"","key_resp_7.keys","trials_2.thisRepN","trials_2.thisTrialN","trials_2.thisN","trials_2.thisIndex","trials_2.ran","id","series_0","series_1","acss_0","acss_1","comparison","id.","Płeć.","Wiek.","date","expName","psychopyVersion","OS","frameRate","STUDY_ID","SESSION_ID","key_resp_5.keys","key_resp_5.corr","key_resp_5.rt","trials.thisRepN","trials.thisTrialN","trials.thisN","trials.thisIndex","trials.ran","key_resp_7.rt"
"1",NA,0,0,0,9,1,"5f19902fd2b95f025c1b0ff3","OOROORO","OOROORR",21.07991943,22.2428857,"series_1","5f19902fd2b95f025c1b0ff3","Kobieta",21,"2021-09-06_19h25.49.703","rantool2","2021.1.4","Win32",59.80145916,"6135e006383e6ea6c3d06a28","61364e8bec0861deeaaa7597","",NA,"",NA,NA,NA,NA,NA,NA
"2",NA,0,1,1,43,1,"5f19902fd2b95f025c1b0ff3","RORORRO","RORORRR",20.71309134,21.07490964,"series_1","5f19902fd2b95f025c1b0ff3","Kobieta",21,"2021-09-06_19h25.49.703","rantool2","2021.1.4","Win32",59.80145916,"6135e006383e6ea6c3d06a28","61364e8bec0861deeaaa7597","",NA,"",NA,NA,NA,NA,NA,NA
"3",NA,0,2,2,4,1,"5f19902fd2b95f025c1b0ff3","OOOROOO","OOOROOR",19.91402015,21.21223021,"series_1","5f19902fd2b95f025c1b0ff3","Kobieta",21,"2021-09-06_19h25.49.703","rantool2","2021.1.4","Win32",59.80145916,"6135e006383e6ea6c3d06a28","61364e8bec0861deeaaa7597","",NA,"",NA,NA,NA,NA,NA,NA
"4",NA,0,3,3,15,1,"5f19902fd2b95f025c1b0ff3","OORRRRO","OORRRRR",22.10108823,21.74922619,"series_0","5f19902fd2b95f025c1b0ff3","Kobieta",21,"2021-09-06_19h25.49.703","rantool2","2021.1.4","Win32",59.80145916,"6135e006383e6ea6c3d06a28","61364e8bec0861deeaaa7597","",NA,"",NA,NA,NA,NA,NA,NA
"5",NA,0,4,4,60,1,"5f19902fd2b95f025c1b0ff3","RRRROOO","RRRROOR",22.10108823,22.15934078,"series_1","5f19902fd2b95f025c1b0ff3","Kobieta",21,"2021-09-06_19h25.49.703","rantool2","2021.1.4","Win32",59.80145916,"6135e006383e6ea6c3d06a28","61364e8bec0861deeaaa7597","",NA,"",NA,NA,NA,NA,NA,NA
"6",NA,0,5,5,24,1,"5f19902fd2b95f025c1b0ff3","ORROOOO","ORROOOR",21.12383932,22.07102821,"series_1","5f19902fd2b95f025c1b0ff3","Kobieta",21,"2021-09-06_19h25.49.703","rantool2","2021.1.4","Win32",59.80145916,"6135e006383e6ea6c3d06a28","61364e8bec0861deeaaa7597","",NA,"",NA,NA,NA,NA,NA,NA
"7",NA,0,6,6,5,1,"5f19902fd2b95f025c1b0ff3","OOORORO","OOORORR",20.87963819,21.9921709,"series_1","5f19902fd2b95f025c1b0ff3","Kobieta",21,"2021-09-06_19h25.49.703","rantool2","2021.1.4","Win32",59.80145916,"6135e006383e6ea6c3d06a28","61364e8bec0861deeaaa7597","",NA,"",NA,NA,NA,NA,NA,NA
"8",NA,0,7,7,47,1,"5f19902fd2b95f025c1b0ff3","RORRRRO","RORRRRR",21.81333602,21.02936224,"series_0","5f19902fd2b95f025c1b0ff3","Kobieta",21,"2021-09-06_19h25.49.703","rantool2","2021.1.4","Win32",59.80145916,"6135e006383e6ea6c3d06a28","61364e8bec0861deeaaa7597","",NA,"",NA,NA,NA,NA,NA,NA
"9",NA,0,8,8,51,1,"5f19902fd2b95f025c1b0ff3","RROORRO","RROORRR",21.89852628,22.02786418,"series_1","5f19902fd2b95f025c1b0ff3","Kobieta",21,"2021-09-06_19h25.49.703","rantool2","2021.1.4","Win32",59.80145916,"6135e006383e6ea6c3d06a28","61364e8bec0861deeaaa7597","",NA,"",NA,NA,NA,NA,NA,NA
"10",NA,0,9,9,37,1,"5f19902fd2b95f025c1b0ff3","ROORORO","ROORORR",20.42602454,21.57657071,"series_1","5f19902fd2b95f025c1b0ff3","Kobieta",21,"2021-09-06_19h25.49.703","rantool2","2021.1.4","Win32",59.80145916,"6135e006383e6ea6c3d06a28","61364e8bec0861deeaaa7597","",NA,"",NA,NA,NA,NA,NA,NA
"11",NA,0,10,10,56,1,"5f19902fd2b95f025c1b0ff3","RRROOOO","RRROOOR",21.6194508,22.31681875,"series_1","5f19902fd2b95f025c1b0ff3","Kobieta",21,"2021-09-06_19h25.49.703","rantool2","2021.1.4","Win32",59.80145916,"6135e006383e6ea6c3d06a28","61364e8bec0861deeaaa7597","",NA,"",NA,NA,NA,NA,NA,NA
"12",NA,0,11,11,42,1,"5f19902fd2b95f025c1b0ff3","ROROROO","ROROROR",20.39515459,19.8361834,"series_0","5f19902fd2b95f025c1b0ff3","Kobieta",21,"2021-09-06_19h25.49.703","rantool2","2021.1.4","Win32",59.80145916,"6135e006383e6ea6c3d06a28","61364e8bec0861deeaaa7597","",NA,"",NA,NA,NA,NA,NA,NA
"13",NA,0,12,12,29,1,"5f19902fd2b95f025c1b0ff3","ORRRORO","ORRRORR",22.00300695,22.12173012,"series_1","5f19902fd2b95f025c1b0ff3","Kobieta",21,"2021-09-06_19h25.49.703","rantool2","2021.1.4","Win32",59.80145916,"6135e006383e6ea6c3d06a28","61364e8bec0861deeaaa7597","",NA,"",NA,NA,NA,NA,NA,NA
"14",NA,0,13,13,23,1,"5f19902fd2b95f025c1b0ff3","ORORRRO","ORORRRR",22.1285618,21.9921709,"series_0","5f19902fd2b95f025c1b0ff3","Kobieta",21,"2021-09-06_19h25.49.703","rantool2","2021.1.4","Win32",59.80145916,"6135e006383e6ea6c3d06a28","61364e8bec0861deeaaa7597","",NA,"",NA,NA,NA,NA,NA,NA
"15",NA,0,14,14,32,1,"5f19902fd2b95f025c1b0ff3","ROOOOOO","ROOOOOR",19.92253567,21.27974287,"series_1","5f19902fd2b95f025c1b0ff3","Kobieta",21,"2021-09-06_19h25.49.703","rantool2","2021.1.4","Win32",59.80145916,"6135e006383e6ea6c3d06a28","61364e8bec0861deeaaa7597","",NA,"",NA,NA,NA,NA,NA,NA
"16",NA,0,15,15,36,1,"5f19902fd2b95f025c1b0ff3","ROOROOO","ROOROOR",21.07991943,20.9984461,"series_0","5f19902fd2b95f025c1b0ff3","Kobieta",21,"2021-09-06_19h25.49.703","rantool2","2021.1.4","Win32",59.80145916,"6135e006383e6ea6c3d06a28","61364e8bec0861deeaaa7597","",NA,"",NA,NA,NA,NA,NA,NA
"17",NA,0,16,16,25,1,"5f19902fd2b95f025c1b0ff3","ORROORO","ORROORR",21.79500819,22.61624387,"series_1","5f19902fd2b95f025c1b0ff3","Kobieta",21,"2021-09-06_19h25.49.703","rantool2","2021.1.4","Win32",59.80145916,"6135e006383e6ea6c3d06a28","61364e8bec0861deeaaa7597","",NA,"",NA,NA,NA,NA,NA,NA
"18",NA,0,17,17,34,1,"5f19902fd2b95f025c1b0ff3","ROOOROO","ROOOROR",21.03750787,21.24781509,"series_1","5f19902fd2b95f025c1b0ff3","Kobieta",21,"2021-09-06_19h25.49.703","rantool2","2021.1.4","Win32",59.80145916,"6135e006383e6ea6c3d06a28","61364e8bec0861deeaaa7597","",NA,"",NA,NA,NA,NA,NA,NA
"19",NA,0,18,18,35,1,"5f19902fd2b95f025c1b0ff3","ROOORRO","ROOORRR",21.76276513,22.16977179,"series_1","5f19902fd2b95f025c1b0ff3","Kobieta",21,"2021-09-06_19h25.49.703","rantool2","2021.1.4","Win32",59.80145916,"6135e006383e6ea6c3d06a28","61364e8bec0861deeaaa7597","",NA,"",NA,NA,NA,NA,NA,NA
"20",NA,0,19,19,41,1,"5f19902fd2b95f025c1b0ff3","ROROORO","ROROORR",20.42602454,21.71443381,"series_1","5f19902fd2b95f025c1b0ff3","Kobieta",21,"2021-09-06_19h25.49.703","rantool2","2021.1.4","Win32",59.80145916,"6135e006383e6ea6c3d06a28","61364e8bec0861deeaaa7597","",NA,"",NA,NA,NA,NA,NA,NA
"21",NA,0,20,20,21,1,"5f19902fd2b95f025c1b0ff3","ORORORO","ORORORR",20.39515459,22.06781359,"series_1","5f19902fd2b95f025c1b0ff3","Kobieta",21,"2021-09-06_19h25.49.703","rantool2","2021.1.4","Win32",59.80145916,"6135e006383e6ea6c3d06a28","61364e8bec0861deeaaa7597","",NA,"",NA,NA,NA,NA,NA,NA
"22",NA,0,21,21,58,1,"5f19902fd2b95f025c1b0ff3","RRROROO","RRROROR",22.1285618,21.37121559,"series_0","5f19902fd2b95f025c1b0ff3","Kobieta",21,"2021-09-06_19h25.49.703","rantool2","2021.1.4","Win32",59.80145916,"6135e006383e6ea6c3d06a28","61364e8bec0861deeaaa7597","",NA,"",NA,NA,NA,NA,NA,NA
"23",NA,0,22,22,13,1,"5f19902fd2b95f025c1b0ff3","OORRORO","OORRORR",21.66733484,22.11181017,"series_1","5f19902fd2b95f025c1b0ff3","Kobieta",21,"2021-09-06_19h25.49.703","rantool2","2021.1.4","Win32",59.80145916,"6135e006383e6ea6c3d06a28","61364e8bec0861deeaaa7597","",NA,"",NA,NA,NA,NA,NA,NA
"24",NA,0,23,23,40,1,"5f19902fd2b95f025c1b0ff3","ROROOOO","ROROOOR",20.87963819,21.37121559,"series_1","5f19902fd2b95f025c1b0ff3","Kobieta",21,"2021-09-06_19h25.49.703","rantool2","2021.1.4","Win32",59.80145916,"6135e006383e6ea6c3d06a28","61364e8bec0861deeaaa7597","",NA,"",NA,NA,NA,NA,NA,NA
"25",NA,0,24,24,8,1,"5f19902fd2b95f025c1b0ff3","OOROOOO","OOROOOR",19.91402015,20.89823192,"series_1","5f19902fd2b95f025c1b0ff3","Kobieta",21,"2021-09-06_19h25.49.703","rantool2","2021.1.4","Win32",59.80145916,"6135e006383e6ea6c3d06a28","61364e8bec0861deeaaa7597","",NA,"",NA,NA,NA,NA,NA,NA
"26",NA,0,25,25,54,1,"5f19902fd2b95f025c1b0ff3","RRORROO","RRORROR",21.55250791,20.9984461,"series_0","5f19902fd2b95f025c1b0ff3","Kobieta",21,"2021-09-06_19h25.49.703","rantool2","2021.1.4","Win32",59.80145916,"6135e006383e6ea6c3d06a28","61364e8bec0861deeaaa7597","",NA,"",NA,NA,NA,NA,NA,NA
"27",NA,0,26,26,18,1,"5f19902fd2b95f025c1b0ff3","OROOROO","OROOROR",20.84860893,21.22513037,"series_1","5f19902fd2b95f025c1b0ff3","Kobieta",21,"2021-09-06_19h25.49.703","rantool2","2021.1.4","Win32",59.80145916,"6135e006383e6ea6c3d06a28","61364e8bec0861deeaaa7597","",NA,"",NA,NA,NA,NA,NA,NA
"28",NA,0,27,27,16,1,"5f19902fd2b95f025c1b0ff3","OROOOOO","OROOOOR",20.43051175,21.17347734,"series_1","5f19902fd2b95f025c1b0ff3","Kobieta",21,"2021-09-06_19h25.49.703","rantool2","2021.1.4","Win32",59.80145916,"6135e006383e6ea6c3d06a28","61364e8bec0861deeaaa7597","",NA,"",NA,NA,NA,NA,NA,NA
"29",NA,0,28,28,57,1,"5f19902fd2b95f025c1b0ff3","RRROORO","RRROORR",21.82425538,22.07102821,"series_1","5f19902fd2b95f025c1b0ff3","Kobieta",21,"2021-09-06_19h25.49.703","rantool2","2021.1.4","Win32",59.80145916,"6135e006383e6ea6c3d06a28","61364e8bec0861deeaaa7597","",NA,"",NA,NA,NA,NA,NA,NA
"30",NA,0,29,29,11,1,"5f19902fd2b95f025c1b0ff3","OORORRO","OORORRR",22.18365867,22.6797523,"series_1","5f19902fd2b95f025c1b0ff3","Kobieta",21,"2021-09-06_19h25.49.703","rantool2","2021.1.4","Win32",59.80145916,"6135e006383e6ea6c3d06a28","61364e8bec0861deeaaa7597","",NA,"",NA,NA,NA,NA,NA,NA
"31",NA,0,30,30,31,1,"5f19902fd2b95f025c1b0ff3","ORRRRRO","ORRRRRR",22.16413392,20.74050628,"series_0","5f19902fd2b95f025c1b0ff3","Kobieta",21,"2021-09-06_19h25.49.703","rantool2","2021.1.4","Win32",59.80145916,"6135e006383e6ea6c3d06a28","61364e8bec0861deeaaa7597","",NA,"",NA,NA,NA,NA,NA,NA
"32",NA,0,31,31,39,1,"5f19902fd2b95f025c1b0ff3","ROORRRO","ROORRRR",21.82425538,21.38562617,"series_0","5f19902fd2b95f025c1b0ff3","Kobieta",21,"2021-09-06_19h25.49.703","rantool2","2021.1.4","Win32",59.80145916,"6135e006383e6ea6c3d06a28","61364e8bec0861deeaaa7597","",NA,"",NA,NA,NA,NA,NA,NA
"33",NA,0,32,32,0,1,"5f19902fd2b95f025c1b0ff3","OOOOOOO","OOOOOOR",18.52739004,19.62521613,"series_1","5f19902fd2b95f025c1b0ff3","Kobieta",21,"2021-09-06_19h25.49.703","rantool2","2021.1.4","Win32",59.80145916,"6135e006383e6ea6c3d06a28","61364e8bec0861deeaaa7597","",NA,"",NA,NA,NA,NA,NA,NA
"34",NA,0,33,33,50,1,"5f19902fd2b95f025c1b0ff3","RROOROO","RROOROR",21.73568164,22.02566557,"series_1","5f19902fd2b95f025c1b0ff3","Kobieta",21,"2021-09-06_19h25.49.703","rantool2","2021.1.4","Win32",59.80145916,"6135e006383e6ea6c3d06a28","61364e8bec0861deeaaa7597","",NA,"",NA,NA,NA,NA,NA,NA
"35",NA,0,34,34,59,1,"5f19902fd2b95f025c1b0ff3","RRRORRO","RRRORRR",21.56657303,20.89823192,"series_0","5f19902fd2b95f025c1b0ff3","Kobieta",21,"2021-09-06_19h25.49.703","rantool2","2021.1.4","Win32",59.80145916,"6135e006383e6ea6c3d06a28","61364e8bec0861deeaaa7597","",NA,"",NA,NA,NA,NA,NA,NA
"36",NA,0,35,35,19,1,"5f19902fd2b95f025c1b0ff3","OROORRO","OROORRR",21.73568164,22.11181017,"series_1","5f19902fd2b95f025c1b0ff3","Kobieta",21,"2021-09-06_19h25.49.703","rantool2","2021.1.4","Win32",59.80145916,"6135e006383e6ea6c3d06a28","61364e8bec0861deeaaa7597","",NA,"",NA,NA,NA,NA,NA,NA
"37",NA,0,36,36,38,1,"5f19902fd2b95f025c1b0ff3","ROORROO","ROORROR",21.79500819,21.36812781,"series_0","5f19902fd2b95f025c1b0ff3","Kobieta",21,"2021-09-06_19h25.49.703","rantool2","2021.1.4","Win32",59.80145916,"6135e006383e6ea6c3d06a28","61364e8bec0861deeaaa7597","",NA,"",NA,NA,NA,NA,NA,NA
"38",NA,0,37,37,3,1,"5f19902fd2b95f025c1b0ff3","OOOORRO","OOOORRR",20.90986523,21.74922619,"series_1","5f19902fd2b95f025c1b0ff3","Kobieta",21,"2021-09-06_19h25.49.703","rantool2","2021.1.4","Win32",59.80145916,"6135e006383e6ea6c3d06a28","61364e8bec0861deeaaa7597","",NA,"",NA,NA,NA,NA,NA,NA
"39",NA,0,38,38,30,1,"5f19902fd2b95f025c1b0ff3","ORRRROO","ORRRROR",22.46748491,22.03072203,"series_0","5f19902fd2b95f025c1b0ff3","Kobieta",21,"2021-09-06_19h25.49.703","rantool2","2021.1.4","Win32",59.80145916,"6135e006383e6ea6c3d06a28","61364e8bec0861deeaaa7597","",NA,"",NA,NA,NA,NA,NA,NA
"40",NA,0,39,39,44,1,"5f19902fd2b95f025c1b0ff3","RORROOO","RORROOR",21.66733484,22.02566557,"series_1","5f19902fd2b95f025c1b0ff3","Kobieta",21,"2021-09-06_19h25.49.703","rantool2","2021.1.4","Win32",59.80145916,"6135e006383e6ea6c3d06a28","61364e8bec0861deeaaa7597","",NA,"",NA,NA,NA,NA,NA,NA
"41",NA,0,40,40,62,1,"5f19902fd2b95f025c1b0ff3","RRRRROO","RRRRROR",22.16413392,21.27974287,"series_0","5f19902fd2b95f025c1b0ff3","Kobieta",21,"2021-09-06_19h25.49.703","rantool2","2021.1.4","Win32",59.80145916,"6135e006383e6ea6c3d06a28","61364e8bec0861deeaaa7597","",NA,"",NA,NA,NA,NA,NA,NA
"42",NA,0,41,41,22,1,"5f19902fd2b95f025c1b0ff3","ORORROO","ORORROR",22.02732763,21.57657071,"series_0","5f19902fd2b95f025c1b0ff3","Kobieta",21,"2021-09-06_19h25.49.703","rantool2","2021.1.4","Win32",59.80145916,"6135e006383e6ea6c3d06a28","61364e8bec0861deeaaa7597","",NA,"",NA,NA,NA,NA,NA,NA
"43",NA,0,42,42,45,1,"5f19902fd2b95f025c1b0ff3","RORRORO","RORRORR",20.78182524,21.22513037,"series_1","5f19902fd2b95f025c1b0ff3","Kobieta",21,"2021-09-06_19h25.49.703","rantool2","2021.1.4","Win32",59.80145916,"6135e006383e6ea6c3d06a28","61364e8bec0861deeaaa7597","",NA,"",NA,NA,NA,NA,NA,NA
"44",NA,0,43,43,52,1,"5f19902fd2b95f025c1b0ff3","RROROOO","RROROOR",22.18365867,22.11097995,"series_0","5f19902fd2b95f025c1b0ff3","Kobieta",21,"2021-09-06_19h25.49.703","rantool2","2021.1.4","Win32",59.80145916,"6135e006383e6ea6c3d06a28","61364e8bec0861deeaaa7597","",NA,"",NA,NA,NA,NA,NA,NA
"45",NA,0,44,44,10,1,"5f19902fd2b95f025c1b0ff3","OOROROO","OOROROR",21.31236711,21.07490964,"series_0","5f19902fd2b95f025c1b0ff3","Kobieta",21,"2021-09-06_19h25.49.703","rantool2","2021.1.4","Win32",59.80145916,"6135e006383e6ea6c3d06a28","61364e8bec0861deeaaa7597","",NA,"",NA,NA,NA,NA,NA,NA
"46",NA,0,45,45,26,1,"5f19902fd2b95f025c1b0ff3","ORROROO","ORROROR",22.02732763,21.71443381,"series_0","5f19902fd2b95f025c1b0ff3","Kobieta",21,"2021-09-06_19h25.49.703","rantool2","2021.1.4","Win32",59.80145916,"6135e006383e6ea6c3d06a28","61364e8bec0861deeaaa7597","",NA,"",NA,NA,NA,NA,NA,NA
"47",NA,0,46,46,7,1,"5f19902fd2b95f025c1b0ff3","OOORRRO","OOORRRR",21.6194508,21.899017,"series_1","5f19902fd2b95f025c1b0ff3","Kobieta",21,"2021-09-06_19h25.49.703","rantool2","2021.1.4","Win32",59.80145916,"6135e006383e6ea6c3d06a28","61364e8bec0861deeaaa7597","",NA,"",NA,NA,NA,NA,NA,NA
"48",NA,0,47,47,17,1,"5f19902fd2b95f025c1b0ff3","OROOORO","OROOORR",21.03750787,22.12173012,"series_1","5f19902fd2b95f025c1b0ff3","Kobieta",21,"2021-09-06_19h25.49.703","rantool2","2021.1.4","Win32",59.80145916,"6135e006383e6ea6c3d06a28","61364e8bec0861deeaaa7597","",NA,"",NA,NA,NA,NA,NA,NA
"49",NA,0,48,48,61,1,"5f19902fd2b95f025c1b0ff3","RRRRORO","RRRRORR",21.81333602,21.17347734,"series_0","5f19902fd2b95f025c1b0ff3","Kobieta",21,"2021-09-06_19h25.49.703","rantool2","2021.1.4","Win32",59.80145916,"6135e006383e6ea6c3d06a28","61364e8bec0861deeaaa7597","",NA,"",NA,NA,NA,NA,NA,NA
"50",NA,0,49,49,49,1,"5f19902fd2b95f025c1b0ff3","RROOORO","RROOORR",21.76276513,22.53364006,"series_1","5f19902fd2b95f025c1b0ff3","Kobieta",21,"2021-09-06_19h25.49.703","rantool2","2021.1.4","Win32",59.80145916,"6135e006383e6ea6c3d06a28","61364e8bec0861deeaaa7597","",NA,"",NA,NA,NA,NA,NA,NA
"51",NA,0,50,50,46,1,"5f19902fd2b95f025c1b0ff3","RORRROO","RORRROR",22.00300695,21.24781509,"series_0","5f19902fd2b95f025c1b0ff3","Kobieta",21,"2021-09-06_19h25.49.703","rantool2","2021.1.4","Win32",59.80145916,"6135e006383e6ea6c3d06a28","61364e8bec0861deeaaa7597","",NA,"",NA,NA,NA,NA,NA,NA
"52",NA,0,51,51,1,1,"5f19902fd2b95f025c1b0ff3","OOOOORO","OOOOORR",19.92253567,20.74050628,"series_1","5f19902fd2b95f025c1b0ff3","Kobieta",21,"2021-09-06_19h25.49.703","rantool2","2021.1.4","Win32",59.80145916,"6135e006383e6ea6c3d06a28","61364e8bec0861deeaaa7597","",NA,"",NA,NA,NA,NA,NA,NA
"53",NA,0,52,52,27,1,"5f19902fd2b95f025c1b0ff3","ORRORRO","ORRORRR",21.55250791,22.2428857,"series_1","5f19902fd2b95f025c1b0ff3","Kobieta",21,"2021-09-06_19h25.49.703","rantool2","2021.1.4","Win32",59.80145916,"6135e006383e6ea6c3d06a28","61364e8bec0861deeaaa7597","",NA,"",NA,NA,NA,NA,NA,NA
"54",NA,0,53,53,48,1,"5f19902fd2b95f025c1b0ff3","RROOOOO","RROOOOR",20.90986523,22.15934078,"series_1","5f19902fd2b95f025c1b0ff3","Kobieta",21,"2021-09-06_19h25.49.703","rantool2","2021.1.4","Win32",59.80145916,"6135e006383e6ea6c3d06a28","61364e8bec0861deeaaa7597","",NA,"",NA,NA,NA,NA,NA,NA
"55",NA,0,54,54,63,1,"5f19902fd2b95f025c1b0ff3","RRRRRRO","RRRRRRR",21.35278725,19.62521613,"series_0","5f19902fd2b95f025c1b0ff3","Kobieta",21,"2021-09-06_19h25.49.703","rantool2","2021.1.4","Win32",59.80145916,"6135e006383e6ea6c3d06a28","61364e8bec0861deeaaa7597","",NA,"",NA,NA,NA,NA,NA,NA
"56",NA,0,55,55,55,1,"5f19902fd2b95f025c1b0ff3","RRORRRO","RRORRRR",21.56657303,21.21223021,"series_0","5f19902fd2b95f025c1b0ff3","Kobieta",21,"2021-09-06_19h25.49.703","rantool2","2021.1.4","Win32",59.80145916,"6135e006383e6ea6c3d06a28","61364e8bec0861deeaaa7597","",NA,"",NA,NA,NA,NA,NA,NA
"57",NA,0,56,56,2,1,"5f19902fd2b95f025c1b0ff3","OOOOROO","OOOOROR",20.43051175,21.02936224,"series_1","5f19902fd2b95f025c1b0ff3","Kobieta",21,"2021-09-06_19h25.49.703","rantool2","2021.1.4","Win32",59.80145916,"6135e006383e6ea6c3d06a28","61364e8bec0861deeaaa7597","",NA,"",NA,NA,NA,NA,NA,NA
"58",NA,0,57,57,6,1,"5f19902fd2b95f025c1b0ff3","OOORROO","OOORROR",21.12383932,21.38562617,"series_1","5f19902fd2b95f025c1b0ff3","Kobieta",21,"2021-09-06_19h25.49.703","rantool2","2021.1.4","Win32",59.80145916,"6135e006383e6ea6c3d06a28","61364e8bec0861deeaaa7597","",NA,"",NA,NA,NA,NA,NA,NA
"59",NA,0,58,58,14,1,"5f19902fd2b95f025c1b0ff3","OORRROO","OORRROR",22.24142883,22.16977179,"series_0","5f19902fd2b95f025c1b0ff3","Kobieta",21,"2021-09-06_19h25.49.703","rantool2","2021.1.4","Win32",59.80145916,"6135e006383e6ea6c3d06a28","61364e8bec0861deeaaa7597","",NA,"",NA,NA,NA,NA,NA,NA
"60",NA,0,59,59,33,1,"5f19902fd2b95f025c1b0ff3","ROOOORO","ROOOORR",20.83779602,22.03072203,"series_1","5f19902fd2b95f025c1b0ff3","Kobieta",21,"2021-09-06_19h25.49.703","rantool2","2021.1.4","Win32",59.80145916,"6135e006383e6ea6c3d06a28","61364e8bec0861deeaaa7597","",NA,"",NA,NA,NA,NA,NA,NA
"61",NA,0,60,60,20,1,"5f19902fd2b95f025c1b0ff3","OROROOO","OROROOR",21.31236711,21.90565814,"series_1","5f19902fd2b95f025c1b0ff3","Kobieta",21,"2021-09-06_19h25.49.703","rantool2","2021.1.4","Win32",59.80145916,"6135e006383e6ea6c3d06a28","61364e8bec0861deeaaa7597","",NA,"",NA,NA,NA,NA,NA,NA
"62",NA,0,61,61,53,1,"5f19902fd2b95f025c1b0ff3","RRORORO","RRORORR",20.71309134,21.90565814,"series_1","5f19902fd2b95f025c1b0ff3","Kobieta",21,"2021-09-06_19h25.49.703","rantool2","2021.1.4","Win32",59.80145916,"6135e006383e6ea6c3d06a28","61364e8bec0861deeaaa7597","",NA,"",NA,NA,NA,NA,NA,NA
"63",NA,0,62,62,28,1,"5f19902fd2b95f025c1b0ff3","ORRROOO","ORRROOR",22.24142883,22.53364006,"series_1","5f19902fd2b95f025c1b0ff3","Kobieta",21,"2021-09-06_19h25.49.703","rantool2","2021.1.4","Win32",59.80145916,"6135e006383e6ea6c3d06a28","61364e8bec0861deeaaa7597","",NA,"",NA,NA,NA,NA,NA,NA
"64",NA,0,63,63,12,1,"5f19902fd2b95f025c1b0ff3","OORROOO","OORROOR",21.30250474,22.02786418,"series_1","5f19902fd2b95f025c1b0ff3","Kobieta",21,"2021-09-06_19h25.49.703","rantool2","2021.1.4","Win32",59.80145916,"6135e006383e6ea6c3d06a28","61364e8bec0861deeaaa7597","",NA,"",NA,NA,NA,NA,NA,NA
"65",NA,NA,NA,NA,NA,NA,"5f19902fd2b95f025c1b0ff3","","",NA,NA,"","5f19902fd2b95f025c1b0ff3","Kobieta",21,"2021-09-06_19h25.49.703","rantool2","2021.1.4","Win32",59.80145916,"6135e006383e6ea6c3d06a28","61364e8bec0861deeaaa7597","0",NA,"",0,0,0,0,1,NA
"66",NA,NA,NA,NA,NA,NA,"5f19902fd2b95f025c1b0ff3","","",NA,NA,"","5f19902fd2b95f025c1b0ff3","Kobieta",21,"2021-09-06_19h25.49.703","rantool2","2021.1.4","Win32",59.80145916,"6135e006383e6ea6c3d06a28","61364e8bec0861deeaaa7597","[""comma""]",0,"[1.6990999999642327]",1,0,1,0,1,NA
"67",NA,NA,NA,NA,NA,NA,"5f19902fd2b95f025c1b0ff3","","",NA,NA,"","5f19902fd2b95f025c1b0ff3","Kobieta",21,"2021-09-06_19h25.49.703","rantool2","2021.1.4","Win32",59.80145916,"6135e006383e6ea6c3d06a28","61364e8bec0861deeaaa7597","[""comma""]",0,"[1.4269000000357437]",2,0,2,0,1,NA
"68",NA,NA,NA,NA,NA,NA,"5f19902fd2b95f025c1b0ff3","","",NA,NA,"","5f19902fd2b95f025c1b0ff3","Kobieta",21,"2021-09-06_19h25.49.703","rantool2","2021.1.4","Win32",59.80145916,"6135e006383e6ea6c3d06a28","61364e8bec0861deeaaa7597","[""period""]",0,"[0.5507999999523463]",3,0,3,0,1,NA
"69",NA,NA,NA,NA,NA,NA,"5f19902fd2b95f025c1b0ff3","","",NA,NA,"","5f19902fd2b95f025c1b0ff3","Kobieta",21,"2021-09-06_19h25.49.703","rantool2","2021.1.4","Win32",59.80145916,"6135e006383e6ea6c3d06a28","61364e8bec0861deeaaa7597","[""period""]",0,"[0.7616999999880818]",4,0,4,0,1,NA
"70",NA,NA,NA,NA,NA,NA,"5f19902fd2b95f025c1b0ff3","","",NA,NA,"","5f19902fd2b95f025c1b0ff3","Kobieta",21,"2021-09-06_19h25.49.703","rantool2","2021.1.4","Win32",59.80145916,"6135e006383e6ea6c3d06a28","61364e8bec0861deeaaa7597","[""comma""]",0,"[0.43200000000001637]",5,0,5,0,1,NA
"71",NA,NA,NA,NA,NA,NA,"5f19902fd2b95f025c1b0ff3","","",NA,NA,"","5f19902fd2b95f025c1b0ff3","Kobieta",21,"2021-09-06_19h25.49.703","rantool2","2021.1.4","Win32",59.80145916,"6135e006383e6ea6c3d06a28","61364e8bec0861deeaaa7597","[""period""]",0,"[0.3523999999762282]",6,0,6,0,1,NA
"72",NA,NA,NA,NA,NA,NA,"5f19902fd2b95f025c1b0ff3","","",NA,NA,"","5f19902fd2b95f025c1b0ff3","Kobieta",21,"2021-09-06_19h25.49.703","rantool2","2021.1.4","Win32",59.80145916,"6135e006383e6ea6c3d06a28","61364e8bec0861deeaaa7597","[""period""]",0,"[0.23019999998814455]",7,0,7,0,1,NA
"73",NA,NA,NA,NA,NA,NA,"5f19902fd2b95f025c1b0ff3","","",NA,NA,"","5f19902fd2b95f025c1b0ff3","Kobieta",21,"2021-09-06_19h25.49.703","rantool2","2021.1.4","Win32",59.80145916,"6135e006383e6ea6c3d06a28","61364e8bec0861deeaaa7597","[""comma""]",0,"[0.3419000000357073]",8,0,8,0,1,NA
"74",NA,NA,NA,NA,NA,NA,"5f19902fd2b95f025c1b0ff3","","",NA,NA,"","5f19902fd2b95f025c1b0ff3","Kobieta",21,"2021-09-06_19h25.49.703","rantool2","2021.1.4","Win32",59.80145916,"6135e006383e6ea6c3d06a28","61364e8bec0861deeaaa7597","[""comma""]",0,"[0.2306000000238555]",9,0,9,0,1,NA
"75",NA,NA,NA,NA,NA,NA,"5f19902fd2b95f025c1b0ff3","","",NA,NA,"","5f19902fd2b95f025c1b0ff3","Kobieta",21,"2021-09-06_19h25.49.703","rantool2","2021.1.4","Win32",59.80145916,"6135e006383e6ea6c3d06a28","61364e8bec0861deeaaa7597","[""comma""]",0,"[0.3410999999642854]",10,0,10,0,1,NA
"76",NA,NA,NA,NA,NA,NA,"5f19902fd2b95f025c1b0ff3","","",NA,NA,"","5f19902fd2b95f025c1b0ff3","Kobieta",21,"2021-09-06_19h25.49.703","rantool2","2021.1.4","Win32",59.80145916,"6135e006383e6ea6c3d06a28","61364e8bec0861deeaaa7597","[""period""]",0,"[0.2663000000119382]",11,0,11,0,1,NA
"77",NA,NA,NA,NA,NA,NA,"5f19902fd2b95f025c1b0ff3","","",NA,NA,"","5f19902fd2b95f025c1b0ff3","Kobieta",21,"2021-09-06_19h25.49.703","rantool2","2021.1.4","Win32",59.80145916,"6135e006383e6ea6c3d06a28","61364e8bec0861deeaaa7597","[""period""]",0,"[0.2541999999880318]",12,0,12,0,1,NA
"78",NA,NA,NA,NA,NA,NA,"5f19902fd2b95f025c1b0ff3","","",NA,NA,"","5f19902fd2b95f025c1b0ff3","Kobieta",21,"2021-09-06_19h25.49.703","rantool2","2021.1.4","Win32",59.80145916,"6135e006383e6ea6c3d06a28","61364e8bec0861deeaaa7597","[""comma""]",0,"[0.2685999999641808]",13,0,13,0,1,NA
"79",NA,NA,NA,NA,NA,NA,"5f19902fd2b95f025c1b0ff3","","",NA,NA,"","5f19902fd2b95f025c1b0ff3","Kobieta",21,"2021-09-06_19h25.49.703","rantool2","2021.1.4","Win32",59.80145916,"6135e006383e6ea6c3d06a28","61364e8bec0861deeaaa7597","[""period""]",0,"[0.21730000001184635]",14,0,14,0,1,NA
"80",NA,NA,NA,NA,NA,NA,"5f19902fd2b95f025c1b0ff3","","",NA,NA,"","5f19902fd2b95f025c1b0ff3","Kobieta",21,"2021-09-06_19h25.49.703","rantool2","2021.1.4","Win32",59.80145916,"6135e006383e6ea6c3d06a28","61364e8bec0861deeaaa7597","[""period""]",0,"[0.23960000002387005]",15,0,15,0,1,NA
"81",NA,NA,NA,NA,NA,NA,"5f19902fd2b95f025c1b0ff3","","",NA,NA,"","5f19902fd2b95f025c1b0ff3","Kobieta",21,"2021-09-06_19h25.49.703","rantool2","2021.1.4","Win32",59.80145916,"6135e006383e6ea6c3d06a28","61364e8bec0861deeaaa7597","[""period""]",0,"[0.2273999999761145]",16,0,16,0,1,NA
"82",NA,NA,NA,NA,NA,NA,"5f19902fd2b95f025c1b0ff3","","",NA,NA,"","5f19902fd2b95f025c1b0ff3","Kobieta",21,"2021-09-06_19h25.49.703","rantool2","2021.1.4","Win32",59.80145916,"6135e006383e6ea6c3d06a28","61364e8bec0861deeaaa7597","[""comma"",""comma""]",0,"[0.24049999999999727,0.7529000000357655]",17,0,17,0,1,NA
"83",NA,NA,NA,NA,NA,NA,"5f19902fd2b95f025c1b0ff3","","",NA,NA,"","5f19902fd2b95f025c1b0ff3","Kobieta",21,"2021-09-06_19h25.49.703","rantool2","2021.1.4","Win32",59.80145916,"6135e006383e6ea6c3d06a28","61364e8bec0861deeaaa7597","[""comma""]",0,"[0.4003999999761163]",18,0,18,0,1,NA
"84",NA,NA,NA,NA,NA,NA,"5f19902fd2b95f025c1b0ff3","","",NA,NA,"","5f19902fd2b95f025c1b0ff3","Kobieta",21,"2021-09-06_19h25.49.703","rantool2","2021.1.4","Win32",59.80145916,"6135e006383e6ea6c3d06a28","61364e8bec0861deeaaa7597","[""period""]",0,"[0.1423999999760781]",19,0,19,0,1,NA
"85",NA,NA,NA,NA,NA,NA,"5f19902fd2b95f025c1b0ff3","","",NA,NA,"","5f19902fd2b95f025c1b0ff3","Kobieta",21,"2021-09-06_19h25.49.703","rantool2","2021.1.4","Win32",59.80145916,"6135e006383e6ea6c3d06a28","61364e8bec0861deeaaa7597","[""period""]",0,"[0.21880000001192457]",20,0,20,0,1,NA
"86",NA,NA,NA,NA,NA,NA,"5f19902fd2b95f025c1b0ff3","","",NA,NA,"","5f19902fd2b95f025c1b0ff3","Kobieta",21,"2021-09-06_19h25.49.703","rantool2","2021.1.4","Win32",59.80145916,"6135e006383e6ea6c3d06a28","61364e8bec0861deeaaa7597","[""period""]",0,"[0.025100000023940083]",21,0,21,0,1,NA
"87",NA,NA,NA,NA,NA,NA,"5f19902fd2b95f025c1b0ff3","","",NA,NA,"","5f19902fd2b95f025c1b0ff3","Kobieta",21,"2021-09-06_19h25.49.703","rantool2","2021.1.4","Win32",59.80145916,"6135e006383e6ea6c3d06a28","61364e8bec0861deeaaa7597","[""comma"",""period""]",0,"[0.2168999999762491,1.961500000000001]",22,0,22,0,1,NA
"88",NA,NA,NA,NA,NA,NA,"5f19902fd2b95f025c1b0ff3","","",NA,NA,"","5f19902fd2b95f025c1b0ff3","Kobieta",21,"2021-09-06_19h25.49.703","rantool2","2021.1.4","Win32",59.80145916,"6135e006383e6ea6c3d06a28","61364e8bec0861deeaaa7597","[""comma""]",0,"[1.81169999998815]",23,0,23,0,1,NA
"89",NA,NA,NA,NA,NA,NA,"5f19902fd2b95f025c1b0ff3","","",NA,NA,"","5f19902fd2b95f025c1b0ff3","Kobieta",21,"2021-09-06_19h25.49.703","rantool2","2021.1.4","Win32",59.80145916,"6135e006383e6ea6c3d06a28","61364e8bec0861deeaaa7597","0",0,"",24,0,24,0,1,NA
"90",NA,NA,NA,NA,NA,NA,"5f19902fd2b95f025c1b0ff3","","",NA,NA,"","5f19902fd2b95f025c1b0ff3","Kobieta",21,"2021-09-06_19h25.49.703","rantool2","2021.1.4","Win32",59.80145916,"6135e006383e6ea6c3d06a28","61364e8bec0861deeaaa7597","[""comma""]",0,"[0.24450000000001637]",25,0,25,0,1,NA
"91",NA,NA,NA,NA,NA,NA,"5f19902fd2b95f025c1b0ff3","","",NA,NA,"","5f19902fd2b95f025c1b0ff3","Kobieta",21,"2021-09-06_19h25.49.703","rantool2","2021.1.4","Win32",59.80145916,"6135e006383e6ea6c3d06a28","61364e8bec0861deeaaa7597","[""period""]",0,"[0.2206000000237509]",26,0,26,0,1,NA
"92",NA,NA,NA,NA,NA,NA,"5f19902fd2b95f025c1b0ff3","","",NA,NA,"","5f19902fd2b95f025c1b0ff3","Kobieta",21,"2021-09-06_19h25.49.703","rantool2","2021.1.4","Win32",59.80145916,"6135e006383e6ea6c3d06a28","61364e8bec0861deeaaa7597","[""period""]",0,"[0.2528999999761936]",27,0,27,0,1,NA
"93",NA,NA,NA,NA,NA,NA,"5f19902fd2b95f025c1b0ff3","","",NA,NA,"","5f19902fd2b95f025c1b0ff3","Kobieta",21,"2021-09-06_19h25.49.703","rantool2","2021.1.4","Win32",59.80145916,"6135e006383e6ea6c3d06a28","61364e8bec0861deeaaa7597","[""comma""]",0,"[0.4364000000357464]",28,0,28,0,1,NA
"94",NA,NA,NA,NA,NA,NA,"5f19902fd2b95f025c1b0ff3","","",NA,NA,"","5f19902fd2b95f025c1b0ff3","Kobieta",21,"2021-09-06_19h25.49.703","rantool2","2021.1.4","Win32",59.80145916,"6135e006383e6ea6c3d06a28","61364e8bec0861deeaaa7597","[""period""]",0,"[0.23610000002383913]",29,0,29,0,1,NA
"95",NA,NA,NA,NA,NA,NA,"5f19902fd2b95f025c1b0ff3","","",NA,NA,"","5f19902fd2b95f025c1b0ff3","Kobieta",21,"2021-09-06_19h25.49.703","rantool2","2021.1.4","Win32",59.80145916,"6135e006383e6ea6c3d06a28","61364e8bec0861deeaaa7597","[""comma""]",0,"[0.23550000000000182]",30,0,30,0,1,NA
"96",NA,NA,NA,NA,NA,NA,"5f19902fd2b95f025c1b0ff3","","",NA,NA,"","5f19902fd2b95f025c1b0ff3","Kobieta",21,"2021-09-06_19h25.49.703","rantool2","2021.1.4","Win32",59.80145916,"6135e006383e6ea6c3d06a28","61364e8bec0861deeaaa7597","[""period""]",0,"[0.23680000001195367]",31,0,31,0,1,NA
"97",NA,NA,NA,NA,NA,NA,"5f19902fd2b95f025c1b0ff3","","",NA,NA,"","5f19902fd2b95f025c1b0ff3","Kobieta",21,"2021-09-06_19h25.49.703","rantool2","2021.1.4","Win32",59.80145916,"6135e006383e6ea6c3d06a28","61364e8bec0861deeaaa7597","[""period""]",0,"[0.2235000000000582]",32,0,32,0,1,NA
"98",NA,NA,NA,NA,NA,NA,"5f19902fd2b95f025c1b0ff3","","",NA,NA,"","5f19902fd2b95f025c1b0ff3","Kobieta",21,"2021-09-06_19h25.49.703","rantool2","2021.1.4","Win32",59.80145916,"6135e006383e6ea6c3d06a28","61364e8bec0861deeaaa7597","[""comma"",""comma""]",0,"[0.37770000004775284,0.7342000000477356]",33,0,33,0,1,NA
"99",NA,NA,NA,NA,NA,NA,"5f19902fd2b95f025c1b0ff3","","",NA,NA,"","5f19902fd2b95f025c1b0ff3","Kobieta",21,"2021-09-06_19h25.49.703","rantool2","2021.1.4","Win32",59.80145916,"6135e006383e6ea6c3d06a28","61364e8bec0861deeaaa7597","[""comma""]",0,"[0.331599999964169]",34,0,34,0,1,NA
"100",NA,NA,NA,NA,NA,NA,"5f19902fd2b95f025c1b0ff3","","",NA,NA,"","5f19902fd2b95f025c1b0ff3","Kobieta",21,"2021-09-06_19h25.49.703","rantool2","2021.1.4","Win32",59.80145916,"6135e006383e6ea6c3d06a28","61364e8bec0861deeaaa7597","[""period""]",0,"[0.4542999999523545]",35,0,35,0,1,NA
"101",NA,NA,NA,NA,NA,NA,"5f19902fd2b95f025c1b0ff3","","",NA,NA,"","5f19902fd2b95f025c1b0ff3","Kobieta",21,"2021-09-06_19h25.49.703","rantool2","2021.1.4","Win32",59.80145916,"6135e006383e6ea6c3d06a28","61364e8bec0861deeaaa7597","[""period""]",0,"[0.22500000000002274]",36,0,36,0,1,NA
"102",NA,NA,NA,NA,NA,NA,"5f19902fd2b95f025c1b0ff3","","",NA,NA,"","5f19902fd2b95f025c1b0ff3","Kobieta",21,"2021-09-06_19h25.49.703","rantool2","2021.1.4","Win32",59.80145916,"6135e006383e6ea6c3d06a28","61364e8bec0861deeaaa7597","[""period"",""comma""]",0,"[0.11289999997609357,1.8358999999761636]",37,0,37,0,1,NA
"103",NA,NA,NA,NA,NA,NA,"5f19902fd2b95f025c1b0ff3","","",NA,NA,"","5f19902fd2b95f025c1b0ff3","Kobieta",21,"2021-09-06_19h25.49.703","rantool2","2021.1.4","Win32",59.80145916,"6135e006383e6ea6c3d06a28","61364e8bec0861deeaaa7597","0",0,"",38,0,38,0,1,NA
"104",NA,NA,NA,NA,NA,NA,"5f19902fd2b95f025c1b0ff3","","",NA,NA,"","5f19902fd2b95f025c1b0ff3","Kobieta",21,"2021-09-06_19h25.49.703","rantool2","2021.1.4","Win32",59.80145916,"6135e006383e6ea6c3d06a28","61364e8bec0861deeaaa7597","[""period""]",0,"[0.24099999999998545]",39,0,39,0,1,NA
"105",NA,NA,NA,NA,NA,NA,"5f19902fd2b95f025c1b0ff3","","",NA,NA,"","5f19902fd2b95f025c1b0ff3","Kobieta",21,"2021-09-06_19h25.49.703","rantool2","2021.1.4","Win32",59.80145916,"6135e006383e6ea6c3d06a28","61364e8bec0861deeaaa7597","[""comma""]",0,"[0.3216999999881409]",40,0,40,0,1,NA
"106",NA,NA,NA,NA,NA,NA,"5f19902fd2b95f025c1b0ff3","","",NA,NA,"","5f19902fd2b95f025c1b0ff3","Kobieta",21,"2021-09-06_19h25.49.703","rantool2","2021.1.4","Win32",59.80145916,"6135e006383e6ea6c3d06a28","61364e8bec0861deeaaa7597","[""period""]",0,"[0.22500000000002274]",41,0,41,0,1,NA
"107",NA,NA,NA,NA,NA,NA,"5f19902fd2b95f025c1b0ff3","","",NA,NA,"","5f19902fd2b95f025c1b0ff3","Kobieta",21,"2021-09-06_19h25.49.703","rantool2","2021.1.4","Win32",59.80145916,"6135e006383e6ea6c3d06a28","61364e8bec0861deeaaa7597","[""period""]",0,"[0.24890000003574642]",42,0,42,0,1,NA
"108",NA,NA,NA,NA,NA,NA,"5f19902fd2b95f025c1b0ff3","","",NA,NA,"","5f19902fd2b95f025c1b0ff3","Kobieta",21,"2021-09-06_19h25.49.703","rantool2","2021.1.4","Win32",59.80145916,"6135e006383e6ea6c3d06a28","61364e8bec0861deeaaa7597","[""comma""]",0,"[0.2816999999881773]",43,0,43,0,1,NA
"109",NA,NA,NA,NA,NA,NA,"5f19902fd2b95f025c1b0ff3","","",NA,NA,"","5f19902fd2b95f025c1b0ff3","Kobieta",21,"2021-09-06_19h25.49.703","rantool2","2021.1.4","Win32",59.80145916,"6135e006383e6ea6c3d06a28","61364e8bec0861deeaaa7597","[""comma""]",0,"[0.4978999999760845]",44,0,44,0,1,NA
"110",NA,NA,NA,NA,NA,NA,"5f19902fd2b95f025c1b0ff3","","",NA,NA,"","5f19902fd2b95f025c1b0ff3","Kobieta",21,"2021-09-06_19h25.49.703","rantool2","2021.1.4","Win32",59.80145916,"6135e006383e6ea6c3d06a28","61364e8bec0861deeaaa7597","[""period""]",0,"[0.2848000000119555]",45,0,45,0,1,NA
"111",NA,NA,NA,NA,NA,NA,"5f19902fd2b95f025c1b0ff3","","",NA,NA,"","5f19902fd2b95f025c1b0ff3","Kobieta",21,"2021-09-06_19h25.49.703","rantool2","2021.1.4","Win32",59.80145916,"6135e006383e6ea6c3d06a28","61364e8bec0861deeaaa7597","[""comma""]",0,"[0.25589999997612267]",46,0,46,0,1,NA
"112",NA,NA,NA,NA,NA,NA,"5f19902fd2b95f025c1b0ff3","","",NA,NA,"","5f19902fd2b95f025c1b0ff3","Kobieta",21,"2021-09-06_19h25.49.703","rantool2","2021.1.4","Win32",59.80145916,"6135e006383e6ea6c3d06a28","61364e8bec0861deeaaa7597","[""period""]",0,"[0.25639999997611085]",47,0,47,0,1,NA
"113",NA,NA,NA,NA,NA,NA,"5f19902fd2b95f025c1b0ff3","","",NA,NA,"","5f19902fd2b95f025c1b0ff3","Kobieta",21,"2021-09-06_19h25.49.703","rantool2","2021.1.4","Win32",59.80145916,"6135e006383e6ea6c3d06a28","61364e8bec0861deeaaa7597","[""period""]",0,"[0.26560000002382367]",48,0,48,0,1,NA
"114",NA,NA,NA,NA,NA,NA,"5f19902fd2b95f025c1b0ff3","","",NA,NA,"","5f19902fd2b95f025c1b0ff3","Kobieta",21,"2021-09-06_19h25.49.703","rantool2","2021.1.4","Win32",59.80145916,"6135e006383e6ea6c3d06a28","61364e8bec0861deeaaa7597","[""comma"",""comma""]",0,"[0.30440000003579826,1.0088000000120019]",49,0,49,0,1,NA
"115",NA,NA,NA,NA,NA,NA,"5f19902fd2b95f025c1b0ff3","","",NA,NA,"","5f19902fd2b95f025c1b0ff3","Kobieta",21,"2021-09-06_19h25.49.703","rantool2","2021.1.4","Win32",59.80145916,"6135e006383e6ea6c3d06a28","61364e8bec0861deeaaa7597","[""period""]",0,"[0.9371999999881382]",50,0,50,0,1,NA
"116",NA,NA,NA,NA,NA,NA,"5f19902fd2b95f025c1b0ff3","","",NA,NA,"","5f19902fd2b95f025c1b0ff3","Kobieta",21,"2021-09-06_19h25.49.703","rantool2","2021.1.4","Win32",59.80145916,"6135e006383e6ea6c3d06a28","61364e8bec0861deeaaa7597","[""period""]",0,"[0.4291999999879863]",51,0,51,0,1,NA
"117",NA,NA,NA,NA,NA,NA,"5f19902fd2b95f025c1b0ff3","","",NA,NA,"","5f19902fd2b95f025c1b0ff3","Kobieta",21,"2021-09-06_19h25.49.703","rantool2","2021.1.4","Win32",59.80145916,"6135e006383e6ea6c3d06a28","61364e8bec0861deeaaa7597","[""comma""]",0,"[0.4083000000118773]",52,0,52,0,1,NA
"118",NA,NA,NA,NA,NA,NA,"5f19902fd2b95f025c1b0ff3","","",NA,NA,"","5f19902fd2b95f025c1b0ff3","Kobieta",21,"2021-09-06_19h25.49.703","rantool2","2021.1.4","Win32",59.80145916,"6135e006383e6ea6c3d06a28","61364e8bec0861deeaaa7597","[""comma""]",0,"[0.4479999999999791]",53,0,53,0,1,NA
"119",NA,NA,NA,NA,NA,NA,"5f19902fd2b95f025c1b0ff3","","",NA,NA,"","5f19902fd2b95f025c1b0ff3","Kobieta",21,"2021-09-06_19h25.49.703","rantool2","2021.1.4","Win32",59.80145916,"6135e006383e6ea6c3d06a28","61364e8bec0861deeaaa7597","[""period""]",0,"[0.2860000000000582]",54,0,54,0,1,NA
"120",NA,NA,NA,NA,NA,NA,"5f19902fd2b95f025c1b0ff3","","",NA,NA,"","5f19902fd2b95f025c1b0ff3","Kobieta",21,"2021-09-06_19h25.49.703","rantool2","2021.1.4","Win32",59.80145916,"6135e006383e6ea6c3d06a28","61364e8bec0861deeaaa7597","[""period""]",0,"[0.2726000000238855]",55,0,55,0,1,NA
"121",NA,NA,NA,NA,NA,NA,"5f19902fd2b95f025c1b0ff3","","",NA,NA,"","5f19902fd2b95f025c1b0ff3","Kobieta",21,"2021-09-06_19h25.49.703","rantool2","2021.1.4","Win32",59.80145916,"6135e006383e6ea6c3d06a28","61364e8bec0861deeaaa7597","[""comma""]",0,"[0.26349999999990814]",56,0,56,0,1,NA
"122",NA,NA,NA,NA,NA,NA,"5f19902fd2b95f025c1b0ff3","","",NA,NA,"","5f19902fd2b95f025c1b0ff3","Kobieta",21,"2021-09-06_19h25.49.703","rantool2","2021.1.4","Win32",59.80145916,"6135e006383e6ea6c3d06a28","61364e8bec0861deeaaa7597","[""comma""]",0,"[0.33550000000002456]",57,0,57,0,1,NA
"123",NA,NA,NA,NA,NA,NA,"5f19902fd2b95f025c1b0ff3","","",NA,NA,"","5f19902fd2b95f025c1b0ff3","Kobieta",21,"2021-09-06_19h25.49.703","rantool2","2021.1.4","Win32",59.80145916,"6135e006383e6ea6c3d06a28","61364e8bec0861deeaaa7597","[""period""]",0,"[0.30090000003565365]",58,0,58,0,1,NA
"124",NA,NA,NA,NA,NA,NA,"5f19902fd2b95f025c1b0ff3","","",NA,NA,"","5f19902fd2b95f025c1b0ff3","Kobieta",21,"2021-09-06_19h25.49.703","rantool2","2021.1.4","Win32",59.80145916,"6135e006383e6ea6c3d06a28","61364e8bec0861deeaaa7597","[""comma""]",0,"[0.4149000000356864]",59,0,59,0,1,NA
"125",NA,NA,NA,NA,NA,NA,"5f19902fd2b95f025c1b0ff3","","",NA,NA,"","5f19902fd2b95f025c1b0ff3","Kobieta",21,"2021-09-06_19h25.49.703","rantool2","2021.1.4","Win32",59.80145916,"6135e006383e6ea6c3d06a28","61364e8bec0861deeaaa7597","[""comma""]",0,"[0.3745000000000118]",60,0,60,0,1,NA
"126",NA,NA,NA,NA,NA,NA,"5f19902fd2b95f025c1b0ff3","","",NA,NA,"","5f19902fd2b95f025c1b0ff3","Kobieta",21,"2021-09-06_19h25.49.703","rantool2","2021.1.4","Win32",59.80145916,"6135e006383e6ea6c3d06a28","61364e8bec0861deeaaa7597","[""period""]",0,"[0.2975999999642909]",61,0,61,0,1,NA
"127",NA,NA,NA,NA,NA,NA,"5f19902fd2b95f025c1b0ff3","","",NA,NA,"","5f19902fd2b95f025c1b0ff3","Kobieta",21,"2021-09-06_19h25.49.703","rantool2","2021.1.4","Win32",59.80145916,"6135e006383e6ea6c3d06a28","61364e8bec0861deeaaa7597","[""comma""]",0,"[0.32089999997606355]",62,0,62,0,1,NA
"128",NA,NA,NA,NA,NA,NA,"5f19902fd2b95f025c1b0ff3","","",NA,NA,"","5f19902fd2b95f025c1b0ff3","Kobieta",21,"2021-09-06_19h25.49.703","rantool2","2021.1.4","Win32",59.80145916,"6135e006383e6ea6c3d06a28","61364e8bec0861deeaaa7597","[""period""]",0,"[0.44189999997615814]",63,0,63,0,1,NA
"129",NA,NA,NA,NA,NA,NA,"5f19902fd2b95f025c1b0ff3","","",NA,NA,"","5f19902fd2b95f025c1b0ff3","Kobieta",21,"2021-09-06_19h25.49.703","rantool2","2021.1.4","Win32",59.80145916,"6135e006383e6ea6c3d06a28","61364e8bec0861deeaaa7597","[""period""]",0,"[0.30460000002381094]",64,0,64,0,1,NA
"130",NA,NA,NA,NA,NA,NA,"5f19902fd2b95f025c1b0ff3","","",NA,NA,"","5f19902fd2b95f025c1b0ff3","Kobieta",21,"2021-09-06_19h25.49.703","rantool2","2021.1.4","Win32",59.80145916,"6135e006383e6ea6c3d06a28","61364e8bec0861deeaaa7597","[""comma""]",0,"[0.2814000000357737]",65,0,65,0,1,NA
"131",NA,NA,NA,NA,NA,NA,"5f19902fd2b95f025c1b0ff3","","",NA,NA,"","5f19902fd2b95f025c1b0ff3","Kobieta",21,"2021-09-06_19h25.49.703","rantool2","2021.1.4","Win32",59.80145916,"6135e006383e6ea6c3d06a28","61364e8bec0861deeaaa7597","[""period""]",0,"[0.36289999997620725]",66,0,66,0,1,NA
"132",NA,NA,NA,NA,NA,NA,"5f19902fd2b95f025c1b0ff3","","",NA,NA,"","5f19902fd2b95f025c1b0ff3","Kobieta",21,"2021-09-06_19h25.49.703","rantool2","2021.1.4","Win32",59.80145916,"6135e006383e6ea6c3d06a28","61364e8bec0861deeaaa7597","[""comma""]",0,"[0.3218999999761536]",67,0,67,0,1,NA
"133",NA,NA,NA,NA,NA,NA,"5f19902fd2b95f025c1b0ff3","","",NA,NA,"","5f19902fd2b95f025c1b0ff3","Kobieta",21,"2021-09-06_19h25.49.703","rantool2","2021.1.4","Win32",59.80145916,"6135e006383e6ea6c3d06a28","61364e8bec0861deeaaa7597","[""period""]",0,"[0.49780000001192093]",68,0,68,0,1,NA
"134",NA,NA,NA,NA,NA,NA,"5f19902fd2b95f025c1b0ff3","","",NA,NA,"","5f19902fd2b95f025c1b0ff3","Kobieta",21,"2021-09-06_19h25.49.703","rantool2","2021.1.4","Win32",59.80145916,"6135e006383e6ea6c3d06a28","61364e8bec0861deeaaa7597","[""period""]",0,"[0.6797000000476601]",69,0,69,0,1,NA
"135",NA,NA,NA,NA,NA,NA,"5f19902fd2b95f025c1b0ff3","","",NA,NA,"","5f19902fd2b95f025c1b0ff3","Kobieta",21,"2021-09-06_19h25.49.703","rantool2","2021.1.4","Win32",59.80145916,"6135e006383e6ea6c3d06a28","61364e8bec0861deeaaa7597","[""comma""]",0,"[0.34060000002386914]",70,0,70,0,1,NA
"136",NA,NA,NA,NA,NA,NA,"5f19902fd2b95f025c1b0ff3","","",NA,NA,"","5f19902fd2b95f025c1b0ff3","Kobieta",21,"2021-09-06_19h25.49.703","rantool2","2021.1.4","Win32",59.80145916,"6135e006383e6ea6c3d06a28","61364e8bec0861deeaaa7597","[""comma""]",0,"[0.28549999999995634]",71,0,71,0,1,NA
"137",NA,NA,NA,NA,NA,NA,"5f19902fd2b95f025c1b0ff3","","",NA,NA,"","5f19902fd2b95f025c1b0ff3","Kobieta",21,"2021-09-06_19h25.49.703","rantool2","2021.1.4","Win32",59.80145916,"6135e006383e6ea6c3d06a28","61364e8bec0861deeaaa7597","[""period""]",0,"[0.25839999997617724]",72,0,72,0,1,NA
"138",NA,NA,NA,NA,NA,NA,"5f19902fd2b95f025c1b0ff3","","",NA,NA,"","5f19902fd2b95f025c1b0ff3","Kobieta",21,"2021-09-06_19h25.49.703","rantool2","2021.1.4","Win32",59.80145916,"6135e006383e6ea6c3d06a28","61364e8bec0861deeaaa7597","[""period""]",0,"[0.28269999998803996]",73,0,73,0,1,NA
"139",NA,NA,NA,NA,NA,NA,"5f19902fd2b95f025c1b0ff3","","",NA,NA,"","5f19902fd2b95f025c1b0ff3","Kobieta",21,"2021-09-06_19h25.49.703","rantool2","2021.1.4","Win32",59.80145916,"6135e006383e6ea6c3d06a28","61364e8bec0861deeaaa7597","[""period""]",0,"[0.49269999998807634]",74,0,74,0,1,NA
"140",NA,NA,NA,NA,NA,NA,"5f19902fd2b95f025c1b0ff3","","",NA,NA,"","5f19902fd2b95f025c1b0ff3","Kobieta",21,"2021-09-06_19h25.49.703","rantool2","2021.1.4","Win32",59.80145916,"6135e006383e6ea6c3d06a28","61364e8bec0861deeaaa7597","[""comma"",""comma""]",0,"[0.34109999996417173,0.9420999999641708]",75,0,75,0,1,NA
"141",NA,NA,NA,NA,NA,NA,"5f19902fd2b95f025c1b0ff3","","",NA,NA,"","5f19902fd2b95f025c1b0ff3","Kobieta",21,"2021-09-06_19h25.49.703","rantool2","2021.1.4","Win32",59.80145916,"6135e006383e6ea6c3d06a28","61364e8bec0861deeaaa7597","0",0,"",76,0,76,0,1,NA
"142",NA,NA,NA,NA,NA,NA,"5f19902fd2b95f025c1b0ff3","","",NA,NA,"","5f19902fd2b95f025c1b0ff3","Kobieta",21,"2021-09-06_19h25.49.703","rantool2","2021.1.4","Win32",59.80145916,"6135e006383e6ea6c3d06a28","61364e8bec0861deeaaa7597","[""period""]",0,"[0.3416000000238455]",77,0,77,0,1,NA
"143",NA,NA,NA,NA,NA,NA,"5f19902fd2b95f025c1b0ff3","","",NA,NA,"","5f19902fd2b95f025c1b0ff3","Kobieta",21,"2021-09-06_19h25.49.703","rantool2","2021.1.4","Win32",59.80145916,"6135e006383e6ea6c3d06a28","61364e8bec0861deeaaa7597","[""comma""]",0,"[0.44190000003573005]",78,0,78,0,1,NA
"144",NA,NA,NA,NA,NA,NA,"5f19902fd2b95f025c1b0ff3","","",NA,NA,"","5f19902fd2b95f025c1b0ff3","Kobieta",21,"2021-09-06_19h25.49.703","rantool2","2021.1.4","Win32",59.80145916,"6135e006383e6ea6c3d06a28","61364e8bec0861deeaaa7597","[""period""]",0,"[0.35319999998807816]",79,0,79,0,1,NA
"145",NA,NA,NA,NA,NA,NA,"5f19902fd2b95f025c1b0ff3","","",NA,NA,"","5f19902fd2b95f025c1b0ff3","Kobieta",21,"2021-09-06_19h25.49.703","rantool2","2021.1.4","Win32",59.80145916,"6135e006383e6ea6c3d06a28","61364e8bec0861deeaaa7597","[""comma""]",0,"[0.2571999999880745]",80,0,80,0,1,NA
"146",NA,NA,NA,NA,NA,NA,"5f19902fd2b95f025c1b0ff3","","",NA,NA,"","5f19902fd2b95f025c1b0ff3","Kobieta",21,"2021-09-06_19h25.49.703","rantool2","2021.1.4","Win32",59.80145916,"6135e006383e6ea6c3d06a28","61364e8bec0861deeaaa7597","[""comma""]",0,"[0.27949999999998454]",81,0,81,0,1,NA
"147",NA,NA,NA,NA,NA,NA,"5f19902fd2b95f025c1b0ff3","","",NA,NA,"","5f19902fd2b95f025c1b0ff3","Kobieta",21,"2021-09-06_19h25.49.703","rantool2","2021.1.4","Win32",59.80145916,"6135e006383e6ea6c3d06a28","61364e8bec0861deeaaa7597","[""period""]",0,"[0.1851999999880718]",82,0,82,0,1,NA
"148",NA,NA,NA,NA,NA,NA,"5f19902fd2b95f025c1b0ff3","","",NA,NA,"","5f19902fd2b95f025c1b0ff3","Kobieta",21,"2021-09-06_19h25.49.703","rantool2","2021.1.4","Win32",59.80145916,"6135e006383e6ea6c3d06a28","61364e8bec0861deeaaa7597","[""period""]",0,"[0.25499999999999545]",83,0,83,0,1,NA
"149",NA,NA,NA,NA,NA,NA,"5f19902fd2b95f025c1b0ff3","","",NA,NA,"","5f19902fd2b95f025c1b0ff3","Kobieta",21,"2021-09-06_19h25.49.703","rantool2","2021.1.4","Win32",59.80145916,"6135e006383e6ea6c3d06a28","61364e8bec0861deeaaa7597","[""period""]",0,"[0.2268999999761263]",84,0,84,0,1,NA
"150",NA,NA,NA,NA,NA,NA,"5f19902fd2b95f025c1b0ff3","","",NA,NA,"","5f19902fd2b95f025c1b0ff3","Kobieta",21,"2021-09-06_19h25.49.703","rantool2","2021.1.4","Win32",59.80145916,"6135e006383e6ea6c3d06a28","61364e8bec0861deeaaa7597","[""comma""]",0,"[0.2856000000238055]",85,0,85,0,1,NA
"151",NA,NA,NA,NA,NA,NA,"5f19902fd2b95f025c1b0ff3","","",NA,NA,"","5f19902fd2b95f025c1b0ff3","Kobieta",21,"2021-09-06_19h25.49.703","rantool2","2021.1.4","Win32",59.80145916,"6135e006383e6ea6c3d06a28","61364e8bec0861deeaaa7597","[""period""]",0,"[0.3356999999881509]",86,0,86,0,1,NA
"152",NA,NA,NA,NA,NA,NA,"5f19902fd2b95f025c1b0ff3","","",NA,NA,"","5f19902fd2b95f025c1b0ff3","Kobieta",21,"2021-09-06_19h25.49.703","rantool2","2021.1.4","Win32",59.80145916,"6135e006383e6ea6c3d06a28","61364e8bec0861deeaaa7597","[""comma""]",0,"[0.3021999999880336]",87,0,87,0,1,NA
"153",NA,NA,NA,NA,NA,NA,"5f19902fd2b95f025c1b0ff3","","",NA,NA,"","5f19902fd2b95f025c1b0ff3","Kobieta",21,"2021-09-06_19h25.49.703","rantool2","2021.1.4","Win32",59.80145916,"6135e006383e6ea6c3d06a28","61364e8bec0861deeaaa7597","[""comma""]",0,"[0.3010999999643218]",88,0,88,0,1,NA
"154",NA,NA,NA,NA,NA,NA,"5f19902fd2b95f025c1b0ff3","","",NA,NA,"","5f19902fd2b95f025c1b0ff3","Kobieta",21,"2021-09-06_19h25.49.703","rantool2","2021.1.4","Win32",59.80145916,"6135e006383e6ea6c3d06a28","61364e8bec0861deeaaa7597","[""period""]",0,"[0.23519999998814]",89,0,89,0,1,NA
"155",NA,NA,NA,NA,NA,NA,"5f19902fd2b95f025c1b0ff3","","",NA,NA,"","5f19902fd2b95f025c1b0ff3","Kobieta",21,"2021-09-06_19h25.49.703","rantool2","2021.1.4","Win32",59.80145916,"6135e006383e6ea6c3d06a28","61364e8bec0861deeaaa7597","[""comma""]",0,"[0.22440000003575733]",90,0,90,0,1,NA
"156",NA,NA,NA,NA,NA,NA,"5f19902fd2b95f025c1b0ff3","","",NA,NA,"","5f19902fd2b95f025c1b0ff3","Kobieta",21,"2021-09-06_19h25.49.703","rantool2","2021.1.4","Win32",59.80145916,"6135e006383e6ea6c3d06a28","61364e8bec0861deeaaa7597","[""period""]",0,"[0.3721999999880836]",91,0,91,0,1,NA
"157",NA,NA,NA,NA,NA,NA,"5f19902fd2b95f025c1b0ff3","","",NA,NA,"","5f19902fd2b95f025c1b0ff3","Kobieta",21,"2021-09-06_19h25.49.703","rantool2","2021.1.4","Win32",59.80145916,"6135e006383e6ea6c3d06a28","61364e8bec0861deeaaa7597","[""period""]",0,"[0.19280000001197095]",92,0,92,0,1,NA
"158",NA,NA,NA,NA,NA,NA,"5f19902fd2b95f025c1b0ff3","","",NA,NA,"","5f19902fd2b95f025c1b0ff3","Kobieta",21,"2021-09-06_19h25.49.703","rantool2","2021.1.4","Win32",59.80145916,"6135e006383e6ea6c3d06a28","61364e8bec0861deeaaa7597","[""comma""]",0,"[0.2643000000119855]",93,0,93,0,1,NA
"159",NA,NA,NA,NA,NA,NA,"5f19902fd2b95f025c1b0ff3","","",NA,NA,"","5f19902fd2b95f025c1b0ff3","Kobieta",21,"2021-09-06_19h25.49.703","rantool2","2021.1.4","Win32",59.80145916,"6135e006383e6ea6c3d06a28","61364e8bec0861deeaaa7597","[""period""]",0,"[0.20080000001189546]",94,0,94,0,1,NA
"160",NA,NA,NA,NA,NA,NA,"5f19902fd2b95f025c1b0ff3","","",NA,NA,"","5f19902fd2b95f025c1b0ff3","Kobieta",21,"2021-09-06_19h25.49.703","rantool2","2021.1.4","Win32",59.80145916,"6135e006383e6ea6c3d06a28","61364e8bec0861deeaaa7597","[""comma""]",0,"[0.3784000000357537]",95,0,95,0,1,NA
"161",NA,NA,NA,NA,NA,NA,"5f19902fd2b95f025c1b0ff3","","",NA,NA,"","5f19902fd2b95f025c1b0ff3","Kobieta",21,"2021-09-06_19h25.49.703","rantool2","2021.1.4","Win32",59.80145916,"6135e006383e6ea6c3d06a28","61364e8bec0861deeaaa7597","[""comma""]",0,"[0.3135999999642536]",96,0,96,0,1,NA
"162",NA,NA,NA,NA,NA,NA,"5f19902fd2b95f025c1b0ff3","","",NA,NA,"","5f19902fd2b95f025c1b0ff3","Kobieta",21,"2021-09-06_19h25.49.703","rantool2","2021.1.4","Win32",59.80145916,"6135e006383e6ea6c3d06a28","61364e8bec0861deeaaa7597","[""period""]",0,"[0.5000999999642772]",97,0,97,0,1,NA
"163",NA,NA,NA,NA,NA,NA,"5f19902fd2b95f025c1b0ff3","","",NA,NA,"","5f19902fd2b95f025c1b0ff3","Kobieta",21,"2021-09-06_19h25.49.703","rantool2","2021.1.4","Win32",59.80145916,"6135e006383e6ea6c3d06a28","61364e8bec0861deeaaa7597","[""period""]",0,"[0.49839999997618634]",98,0,98,0,1,NA
"164",NA,NA,NA,NA,NA,NA,"5f19902fd2b95f025c1b0ff3","","",NA,NA,"","5f19902fd2b95f025c1b0ff3","Kobieta",21,"2021-09-06_19h25.49.703","rantool2","2021.1.4","Win32",59.80145916,"6135e006383e6ea6c3d06a28","61364e8bec0861deeaaa7597","[""comma""]",0,"[0.33739999997612813]",99,0,99,0,1,NA
"165",NA,NA,NA,NA,NA,NA,"5f19902fd2b95f025c1b0ff3","","",NA,NA,"","5f19902fd2b95f025c1b0ff3","Kobieta",21,"2021-09-06_19h25.49.703","rantool2","2021.1.4","Win32",59.80145916,"6135e006383e6ea6c3d06a28","61364e8bec0861deeaaa7597","[""comma""]",0,"[0.27069999998809635]",100,0,100,0,1,NA
"166",NA,NA,NA,NA,NA,NA,"5f19902fd2b95f025c1b0ff3","","",NA,NA,"","5f19902fd2b95f025c1b0ff3","Kobieta",21,"2021-09-06_19h25.49.703","rantool2","2021.1.4","Win32",59.80145916,"6135e006383e6ea6c3d06a28","61364e8bec0861deeaaa7597","[""comma""]",0,"[0.23530000001198914]",101,0,101,0,1,NA
"167",NA,NA,NA,NA,NA,NA,"5f19902fd2b95f025c1b0ff3","","",NA,NA,"","5f19902fd2b95f025c1b0ff3","Kobieta",21,"2021-09-06_19h25.49.703","rantool2","2021.1.4","Win32",59.80145916,"6135e006383e6ea6c3d06a28","61364e8bec0861deeaaa7597","[""period""]",0,"[0.23950000000002092]",102,0,102,0,1,NA
"168",NA,NA,NA,NA,NA,NA,"5f19902fd2b95f025c1b0ff3","","",NA,NA,"","5f19902fd2b95f025c1b0ff3","Kobieta",21,"2021-09-06_19h25.49.703","rantool2","2021.1.4","Win32",59.80145916,"6135e006383e6ea6c3d06a28","61364e8bec0861deeaaa7597","[""comma""]",0,"[0.30689999997616724]",103,0,103,0,1,NA
"169",NA,NA,NA,NA,NA,NA,"5f19902fd2b95f025c1b0ff3","","",NA,NA,"","5f19902fd2b95f025c1b0ff3","Kobieta",21,"2021-09-06_19h25.49.703","rantool2","2021.1.4","Win32",59.80145916,"6135e006383e6ea6c3d06a28","61364e8bec0861deeaaa7597","[""period""]",0,"[0.20680000001186727]",104,0,104,0,1,NA
"170",NA,NA,NA,NA,NA,NA,"5f19902fd2b95f025c1b0ff3","","",NA,NA,"","5f19902fd2b95f025c1b0ff3","Kobieta",21,"2021-09-06_19h25.49.703","rantool2","2021.1.4","Win32",59.80145916,"6135e006383e6ea6c3d06a28","61364e8bec0861deeaaa7597","[""period""]",0,"[0.20099999999990814]",105,0,105,0,1,NA
"171",NA,NA,NA,NA,NA,NA,"5f19902fd2b95f025c1b0ff3","","",NA,NA,"","5f19902fd2b95f025c1b0ff3","Kobieta",21,"2021-09-06_19h25.49.703","rantool2","2021.1.4","Win32",59.80145916,"6135e006383e6ea6c3d06a28","61364e8bec0861deeaaa7597","[""period""]",0,"[0.26419999998813637]",106,0,106,0,1,NA
"172",NA,NA,NA,NA,NA,NA,"5f19902fd2b95f025c1b0ff3","","",NA,NA,"","5f19902fd2b95f025c1b0ff3","Kobieta",21,"2021-09-06_19h25.49.703","rantool2","2021.1.4","Win32",59.80145916,"6135e006383e6ea6c3d06a28","61364e8bec0861deeaaa7597","[""comma""]",0,"[0.3486999999880709]",107,0,107,0,1,NA
"173",NA,NA,NA,NA,NA,NA,"5f19902fd2b95f025c1b0ff3","","",NA,NA,"","5f19902fd2b95f025c1b0ff3","Kobieta",21,"2021-09-06_19h25.49.703","rantool2","2021.1.4","Win32",59.80145916,"6135e006383e6ea6c3d06a28","61364e8bec0861deeaaa7597","[""comma""]",0,"[0.28899999999998727]",108,0,108,0,1,NA
"174",NA,NA,NA,NA,NA,NA,"5f19902fd2b95f025c1b0ff3","","",NA,NA,"","5f19902fd2b95f025c1b0ff3","Kobieta",21,"2021-09-06_19h25.49.703","rantool2","2021.1.4","Win32",59.80145916,"6135e006383e6ea6c3d06a28","61364e8bec0861deeaaa7597","[""period""]",0,"[0.26529999995238995]",109,0,109,0,1,NA
"175",NA,NA,NA,NA,NA,NA,"5f19902fd2b95f025c1b0ff3","","",NA,NA,"","5f19902fd2b95f025c1b0ff3","Kobieta",21,"2021-09-06_19h25.49.703","rantool2","2021.1.4","Win32",59.80145916,"6135e006383e6ea6c3d06a28","61364e8bec0861deeaaa7597","[""comma""]",0,"[0.5290999999641599]",110,0,110,0,1,NA
"176",NA,NA,NA,NA,NA,NA,"5f19902fd2b95f025c1b0ff3","","",NA,NA,"","5f19902fd2b95f025c1b0ff3","Kobieta",21,"2021-09-06_19h25.49.703","rantool2","2021.1.4","Win32",59.80145916,"6135e006383e6ea6c3d06a28","61364e8bec0861deeaaa7597","[""period""]",0,"[0.48819999998806907]",111,0,111,0,1,NA
"177",NA,NA,NA,NA,NA,NA,"5f19902fd2b95f025c1b0ff3","","",NA,NA,"","5f19902fd2b95f025c1b0ff3","Kobieta",21,"2021-09-06_19h25.49.703","rantool2","2021.1.4","Win32",59.80145916,"6135e006383e6ea6c3d06a28","61364e8bec0861deeaaa7597","[""comma""]",0,"[0.3738999999761745]",112,0,112,0,1,NA
"178",NA,NA,NA,NA,NA,NA,"5f19902fd2b95f025c1b0ff3","","",NA,NA,"","5f19902fd2b95f025c1b0ff3","Kobieta",21,"2021-09-06_19h25.49.703","rantool2","2021.1.4","Win32",59.80145916,"6135e006383e6ea6c3d06a28","61364e8bec0861deeaaa7597","[""period""]",0,"[0.3542000000476264]",113,0,113,0,1,NA
"179",NA,NA,NA,NA,NA,NA,"5f19902fd2b95f025c1b0ff3","","",NA,NA,"","5f19902fd2b95f025c1b0ff3","Kobieta",21,"2021-09-06_19h25.49.703","rantool2","2021.1.4","Win32",59.80145916,"6135e006383e6ea6c3d06a28","61364e8bec0861deeaaa7597","[""period""]",0,"[0.33690000003571186]",114,0,114,0,1,NA
"180",NA,NA,NA,NA,NA,NA,"5f19902fd2b95f025c1b0ff3","","",NA,NA,"","5f19902fd2b95f025c1b0ff3","Kobieta",21,"2021-09-06_19h25.49.703","rantool2","2021.1.4","Win32",59.80145916,"6135e006383e6ea6c3d06a28","61364e8bec0861deeaaa7597","[""comma""]",0,"[0.2964999999999236]",115,0,115,0,1,NA
"181",NA,NA,NA,NA,NA,NA,"5f19902fd2b95f025c1b0ff3","","",NA,NA,"","5f19902fd2b95f025c1b0ff3","Kobieta",21,"2021-09-06_19h25.49.703","rantool2","2021.1.4","Win32",59.80145916,"6135e006383e6ea6c3d06a28","61364e8bec0861deeaaa7597","[""period""]",0,"[0.23730000001194185]",116,0,116,0,1,NA
"182",NA,NA,NA,NA,NA,NA,"5f19902fd2b95f025c1b0ff3","","",NA,NA,"","5f19902fd2b95f025c1b0ff3","Kobieta",21,"2021-09-06_19h25.49.703","rantool2","2021.1.4","Win32",59.80145916,"6135e006383e6ea6c3d06a28","61364e8bec0861deeaaa7597","[""comma""]",0,"[0.22939999997618088]",117,0,117,0,1,NA
"183",NA,NA,NA,NA,NA,NA,"5f19902fd2b95f025c1b0ff3","","",NA,NA,"","5f19902fd2b95f025c1b0ff3","Kobieta",21,"2021-09-06_19h25.49.703","rantool2","2021.1.4","Win32",59.80145916,"6135e006383e6ea6c3d06a28","61364e8bec0861deeaaa7597","[""comma""]",0,"[0.1531999999880327]",118,0,118,0,1,NA
"184",NA,NA,NA,NA,NA,NA,"5f19902fd2b95f025c1b0ff3","","",NA,NA,"","5f19902fd2b95f025c1b0ff3","Kobieta",21,"2021-09-06_19h25.49.703","rantool2","2021.1.4","Win32",59.80145916,"6135e006383e6ea6c3d06a28","61364e8bec0861deeaaa7597","[""period""]",0,"[0.24900000000002365]",119,0,119,0,1,NA
