key_resp_15.keys,key_resp_15.rt,key_resp_16.keys,key_resp_16.rt,key_resp_4.keys,key_resp_4.rt,next_letter.thisRepN,next_letter.thisTrialN,next_letter.thisN,next_letter.thisIndex,next_letter.ran,letter,participant,Wiek*,Płeć,date,expName,psychopyVersion,OS,frameRate,study_id,session,simple_recall,key_resp_5.keys,key_resp_5.rt,simple_recall_corr,simple_recall_corrkeys,next_level.thisRepN,next_level.thisTrialN,next_level.thisN,next_level.thisIndex,next_level.ran,key_resp_2.keys,key_resp_2.rt,digit_answer,key_resp.keys,key_resp.corr,key_resp.rt,RT_list,next_equation.thisRepN,next_equation.thisTrialN,next_equation.thisN,next_equation.thisIndex,next_equation.ran,Task,Trial,Problem,Operation_answer,processing_score,sumRT,meanRT,sumdiff,sd,RT,key_resp_3.keys,key_resp_3.rt,repeat_practice.thisRepN,repeat_practice.thisTrialN,repeat_practice.thisN,repeat_practice.thisIndex,repeat_practice.ran,key_resp_6.keys,key_resp_6.rt,key_resp_11.keys,key_resp_11.corr,key_resp_11.rt,operation_correct,repeat_if_wrong_prac.thisRepN,repeat_if_wrong_prac.thisTrialN,repeat_if_wrong_prac.thisN,repeat_if_wrong_prac.thisIndex,repeat_if_wrong_prac.ran,span_size_prac.thisRepN,span_size_prac.thisTrialN,span_size_prac.thisN,span_size_prac.thisIndex,span_size_prac.ran,complex_recall_practice,key_resp_9.keys,key_resp_9.corr,key_resp_9.rt,complex_prac_corr,span_recall_prac.thisRepN,span_recall_prac.thisTrialN,span_recall_prac.thisN,span_recall_prac.thisIndex,span_recall_prac.ran,key_resp_10.keys,key_resp_10.rt,key_resp_7.keys,key_resp_7.corr,key_resp_7.rt,repeat_if_wrong.thisRepN,repeat_if_wrong.thisTrialN,repeat_if_wrong.thisN,repeat_if_wrong.thisIndex,repeat_if_wrong.ran,span_size.thisRepN,span_size.thisTrialN,span_size.thisN,span_size.thisIndex,span_size.ran,complex_recall,key_resp_8.keys,key_resp_8.corr,key_resp_8.rt,complex_recall_corr,complex_recall_corrkeys,span_recall.thisRepN,span_recall.thisTrialN,span_recall.thisN,span_recall.thisIndex,span_recall.ran,key_resp_13.keys,key_resp_13.corr,key_resp_13.rt,random_loop.thisRepN,random_loop.thisTrialN,random_loop.thisN,random_loop.thisIndex,random_loop.ran,key_resp_12.keys,key_resp_12.rt
space,10.519,space,12.149,space,5.002,0,0,0,0,1,X V Q F H G B L J M P D K C T S W R N Z,564e2f979b124900107eaf14,34,Kobieta,2022-06-11_10h17.04.098,task,2021.1.4,Win32,59.95203837,6299f149e92ead563fba08ef,62a4432b9e17e8fcd7ee1028,,,,,,,,,,,,,,,,,,,,,,,,,,,,,,,,,,,,,,,,,,,,,,,,,,,,,,,,,,,,,,,,,,,,,,,,,,,,,,,,,,,,,,,,,,,,,,,,,,,,,
,,,,,,1,0,1,0,1,X V Q F H G B L J M P D K C T S W R N Z,564e2f979b124900107eaf14,34,Kobieta,2022-06-11_10h17.04.098,task,2021.1.4,Win32,59.95203837,6299f149e92ead563fba08ef,62a4432b9e17e8fcd7ee1028,,,,,,,,,,,,,,,,,,,,,,,,,,,,,,,,,,,,,,,,,,,,,,,,,,,,,,,,,,,,,,,,,,,,,,,,,,,,,,,,,,,,,,,,,,,,,,,,,,,,,
,,,,,,,,,,,,564e2f979b124900107eaf14,34,Kobieta,2022-06-11_10h17.04.098,task,2021.1.4,Win32,59.95203837,6299f149e92ead563fba08ef,62a4432b9e17e8fcd7ee1028,zn,"[""z"",""n""]","[1.705999999999996,1.8900000000000006,2.222999999999999]",1,ZN,0,0,0,0,1,,,,,,,,,,,,,,,,,,,,,,,,,,,,,,,,,,,,,,,,,,,,,,,,,,,,,,,,,,,,,,,,,,,,,,,,,,,,,,,,,,,,,,,,,,,
,,,,,,0,0,0,0,1,X V Q F H G B L J M P D K C T S W R N Z,564e2f979b124900107eaf14,34,Kobieta,2022-06-11_10h17.04.098,task,2021.1.4,Win32,59.95203837,6299f149e92ead563fba08ef,62a4432b9e17e8fcd7ee1028,,,,,,,,,,,,,,,,,,,,,,,,,,,,,,,,,,,,,,,,,,,,,,,,,,,,,,,,,,,,,,,,,,,,,,,,,,,,,,,,,,,,,,,,,,,,,,,,,,,,,
,,,,,,1,0,1,0,1,X V Q F H G B L J M P D K C T S W R N Z,564e2f979b124900107eaf14,34,Kobieta,2022-06-11_10h17.04.098,task,2021.1.4,Win32,59.95203837,6299f149e92ead563fba08ef,62a4432b9e17e8fcd7ee1028,,,,,,,,,,,,,,,,,,,,,,,,,,,,,,,,,,,,,,,,,,,,,,,,,,,,,,,,,,,,,,,,,,,,,,,,,,,,,,,,,,,,,,,,,,,,,,,,,,,,,
,,,,,,,,,,,,564e2f979b124900107eaf14,34,Kobieta,2022-06-11_10h17.04.098,task,2021.1.4,Win32,59.95203837,6299f149e92ead563fba08ef,62a4432b9e17e8fcd7ee1028,cl,"[""c"",""l""]","[1.5660000000000025,1.7169999999999987,2.2420000000000044]",1,CL,1,0,1,0,1,,,,,,,,,,,,,,,,,,,,,,,,,,,,,,,,,,,,,,,,,,,,,,,,,,,,,,,,,,,,,,,,,,,,,,,,,,,,,,,,,,,,,,,,,,,
,,,,,,0,0,0,0,1,X V Q F H G B L J M P D K C T S W R N Z,564e2f979b124900107eaf14,34,Kobieta,2022-06-11_10h17.04.098,task,2021.1.4,Win32,59.95203837,6299f149e92ead563fba08ef,62a4432b9e17e8fcd7ee1028,,,,,,,,,,,,,,,,,,,,,,,,,,,,,,,,,,,,,,,,,,,,,,,,,,,,,,,,,,,,,,,,,,,,,,,,,,,,,,,,,,,,,,,,,,,,,,,,,,,,,
,,,,,,1,0,1,0,1,X V Q F H G B L J M P D K C T S W R N Z,564e2f979b124900107eaf14,34,Kobieta,2022-06-11_10h17.04.098,task,2021.1.4,Win32,59.95203837,6299f149e92ead563fba08ef,62a4432b9e17e8fcd7ee1028,,,,,,,,,,,,,,,,,,,,,,,,,,,,,,,,,,,,,,,,,,,,,,,,,,,,,,,,,,,,,,,,,,,,,,,,,,,,,,,,,,,,,,,,,,,,,,,,,,,,,
,,,,,,2,0,2,0,1,X V Q F H G B L J M P D K C T S W R N Z,564e2f979b124900107eaf14,34,Kobieta,2022-06-11_10h17.04.098,task,2021.1.4,Win32,59.95203837,6299f149e92ead563fba08ef,62a4432b9e17e8fcd7ee1028,,,,,,,,,,,,,,,,,,,,,,,,,,,,,,,,,,,,,,,,,,,,,,,,,,,,,,,,,,,,,,,,,,,,,,,,,,,,,,,,,,,,,,,,,,,,,,,,,,,,,
,,,,,,,,,,,,564e2f979b124900107eaf14,34,Kobieta,2022-06-11_10h17.04.098,task,2021.1.4,Win32,59.95203837,6299f149e92ead563fba08ef,62a4432b9e17e8fcd7ee1028,pfk,"[""p"",""f"",""k""]","[1.5840000000000032,1.892000000000003,2.020000000000003,2.2690000000000055]",1,PFK,2,0,2,0,1,,,,,,,,,,,,,,,,,,,,,,,,,,,,,,,,,,,,,,,,,,,,,,,,,,,,,,,,,,,,,,,,,,,,,,,,,,,,,,,,,,,,,,,,,,,
,,,,,,0,0,0,0,1,X V Q F H G B L J M P D K C T S W R N Z,564e2f979b124900107eaf14,34,Kobieta,2022-06-11_10h17.04.098,task,2021.1.4,Win32,59.95203837,6299f149e92ead563fba08ef,62a4432b9e17e8fcd7ee1028,,,,,,,,,,,,,,,,,,,,,,,,,,,,,,,,,,,,,,,,,,,,,,,,,,,,,,,,,,,,,,,,,,,,,,,,,,,,,,,,,,,,,,,,,,,,,,,,,,,,,
,,,,,,1,0,1,0,1,X V Q F H G B L J M P D K C T S W R N Z,564e2f979b124900107eaf14,34,Kobieta,2022-06-11_10h17.04.098,task,2021.1.4,Win32,59.95203837,6299f149e92ead563fba08ef,62a4432b9e17e8fcd7ee1028,,,,,,,,,,,,,,,,,,,,,,,,,,,,,,,,,,,,,,,,,,,,,,,,,,,,,,,,,,,,,,,,,,,,,,,,,,,,,,,,,,,,,,,,,,,,,,,,,,,,,
,,,,,,2,0,2,0,1,X V Q F H G B L J M P D K C T S W R N Z,564e2f979b124900107eaf14,34,Kobieta,2022-06-11_10h17.04.098,task,2021.1.4,Win32,59.95203837,6299f149e92ead563fba08ef,62a4432b9e17e8fcd7ee1028,,,,,,,,,,,,,,,,,,,,,,,,,,,,,,,,,,,,,,,,,,,,,,,,,,,,,,,,,,,,,,,,,,,,,,,,,,,,,,,,,,,,,,,,,,,,,,,,,,,,,
,,,,,,,,,,,,564e2f979b124900107eaf14,34,Kobieta,2022-06-11_10h17.04.098,task,2021.1.4,Win32,59.95203837,6299f149e92ead563fba08ef,62a4432b9e17e8fcd7ee1028,xhh,"[""x"",""h"",""h""]","[1.1090000000000018,1.3250000000000028,1.4440000000000026,1.7250000000000014]",1,XHH,3,0,3,0,1,,,,,,,,,,,,,,,,,,,,,,,,,,,,,,,,,,,,,,,,,,,,,,,,,,,,,,,,,,,,,,,,,,,,,,,,,,,,,,,,,,,,,,,,,,,
,,,,,,0,0,0,0,1,X V Q F H G B L J M P D K C T S W R N Z,564e2f979b124900107eaf14,34,Kobieta,2022-06-11_10h17.04.098,task,2021.1.4,Win32,59.95203837,6299f149e92ead563fba08ef,62a4432b9e17e8fcd7ee1028,,,,,,,,,,,,,,,,,,,,,,,,,,,,,,,,,,,,,,,,,,,,,,,,,,,,,,,,,,,,,,,,,,,,,,,,,,,,,,,,,,,,,,,,,,,,,,,,,,,,,
,,,,,,1,0,1,0,1,X V Q F H G B L J M P D K C T S W R N Z,564e2f979b124900107eaf14,34,Kobieta,2022-06-11_10h17.04.098,task,2021.1.4,Win32,59.95203837,6299f149e92ead563fba08ef,62a4432b9e17e8fcd7ee1028,,,,,,,,,,,,,,,,,,,,,,,,,,,,,,,,,,,,,,,,,,,,,,,,,,,,,,,,,,,,,,,,,,,,,,,,,,,,,,,,,,,,,,,,,,,,,,,,,,,,,
,,,,,,2,0,2,0,1,X V Q F H G B L J M P D K C T S W R N Z,564e2f979b124900107eaf14,34,Kobieta,2022-06-11_10h17.04.098,task,2021.1.4,Win32,59.95203837,6299f149e92ead563fba08ef,62a4432b9e17e8fcd7ee1028,,,,,,,,,,,,,,,,,,,,,,,,,,,,,,,,,,,,,,,,,,,,,,,,,,,,,,,,,,,,,,,,,,,,,,,,,,,,,,,,,,,,,,,,,,,,,,,,,,,,,
,,,,,,3,0,3,0,1,X V Q F H G B L J M P D K C T S W R N Z,564e2f979b124900107eaf14,34,Kobieta,2022-06-11_10h17.04.098,task,2021.1.4,Win32,59.95203837,6299f149e92ead563fba08ef,62a4432b9e17e8fcd7ee1028,,,,,,,,,,,,,,,,,,,,,,,,,,,,,,,,,,,,,,,,,,,,,,,,,,,,,,,,,,,,,,,,,,,,,,,,,,,,,,,,,,,,,,,,,,,,,,,,,,,,,
,,,,,,,,,,,,564e2f979b124900107eaf14,34,Kobieta,2022-06-11_10h17.04.098,task,2021.1.4,Win32,59.95203837,6299f149e92ead563fba08ef,62a4432b9e17e8fcd7ee1028,gkwp,"[""g"",""k"",""w"",""p""]","[0.5339999999999918,0.7019999999999982,0.9179999999999922,1.0339999999999918,1.3269999999999982]",1,GKWP,4,0,4,0,1,,,,,,,,,,,,,,,,,,,,,,,,,,,,,,,,,,,,,,,,,,,,,,,,,,,,,,,,,,,,,,,,,,,,,,,,,,,,,,,,,,,,,,,,,,,
,,,,,,0,0,0,0,1,X V Q F H G B L J M P D K C T S W R N Z,564e2f979b124900107eaf14,34,Kobieta,2022-06-11_10h17.04.098,task,2021.1.4,Win32,59.95203837,6299f149e92ead563fba08ef,62a4432b9e17e8fcd7ee1028,,,,,,,,,,,,,,,,,,,,,,,,,,,,,,,,,,,,,,,,,,,,,,,,,,,,,,,,,,,,,,,,,,,,,,,,,,,,,,,,,,,,,,,,,,,,,,,,,,,,,
,,,,,,1,0,1,0,1,X V Q F H G B L J M P D K C T S W R N Z,564e2f979b124900107eaf14,34,Kobieta,2022-06-11_10h17.04.098,task,2021.1.4,Win32,59.95203837,6299f149e92ead563fba08ef,62a4432b9e17e8fcd7ee1028,,,,,,,,,,,,,,,,,,,,,,,,,,,,,,,,,,,,,,,,,,,,,,,,,,,,,,,,,,,,,,,,,,,,,,,,,,,,,,,,,,,,,,,,,,,,,,,,,,,,,
,,,,,,2,0,2,0,1,X V Q F H G B L J M P D K C T S W R N Z,564e2f979b124900107eaf14,34,Kobieta,2022-06-11_10h17.04.098,task,2021.1.4,Win32,59.95203837,6299f149e92ead563fba08ef,62a4432b9e17e8fcd7ee1028,,,,,,,,,,,,,,,,,,,,,,,,,,,,,,,,,,,,,,,,,,,,,,,,,,,,,,,,,,,,,,,,,,,,,,,,,,,,,,,,,,,,,,,,,,,,,,,,,,,,,
,,,,,,3,0,3,0,1,X V Q F H G B L J M P D K C T S W R N Z,564e2f979b124900107eaf14,34,Kobieta,2022-06-11_10h17.04.098,task,2021.1.4,Win32,59.95203837,6299f149e92ead563fba08ef,62a4432b9e17e8fcd7ee1028,,,,,,,,,,,,,,,,,,,,,,,,,,,,,,,,,,,,,,,,,,,,,,,,,,,,,,,,,,,,,,,,,,,,,,,,,,,,,,,,,,,,,,,,,,,,,,,,,,,,,
,,,,,,,,,,,,564e2f979b124900107eaf14,34,Kobieta,2022-06-11_10h17.04.098,task,2021.1.4,Win32,59.95203837,6299f149e92ead563fba08ef,62a4432b9e17e8fcd7ee1028,xqtq,"[""x"",""q"",""t"",""q""]","[2.9009999999999962,3.4240000000000066,3.6400000000000006,3.7369999999999948,4.287999999999997]",1,XQTQ,5,0,5,0,1,,,,,,,,,,,,,,,,,,,,,,,,,,,,,,,,,,,,,,,,,,,,,,,,,,,,,,,,,,,,,,,,,,,,,,,,,,,,,,,,,,,,,,,,,,,
,,,,,,0,0,0,0,1,X V Q F H G B L J M P D K C T S W R N Z,564e2f979b124900107eaf14,34,Kobieta,2022-06-11_10h17.04.098,task,2021.1.4,Win32,59.95203837,6299f149e92ead563fba08ef,62a4432b9e17e8fcd7ee1028,,,,,,,,,,,,,,,,,,,,,,,,,,,,,,,,,,,,,,,,,,,,,,,,,,,,,,,,,,,,,,,,,,,,,,,,,,,,,,,,,,,,,,,,,,,,,,,,,,,,,
,,,,,,1,0,1,0,1,X V Q F H G B L J M P D K C T S W R N Z,564e2f979b124900107eaf14,34,Kobieta,2022-06-11_10h17.04.098,task,2021.1.4,Win32,59.95203837,6299f149e92ead563fba08ef,62a4432b9e17e8fcd7ee1028,,,,,,,,,,,,,,,,,,,,,,,,,,,,,,,,,,,,,,,,,,,,,,,,,,,,,,,,,,,,,,,,,,,,,,,,,,,,,,,,,,,,,,,,,,,,,,,,,,,,,
,,,,,,2,0,2,0,1,X V Q F H G B L J M P D K C T S W R N Z,564e2f979b124900107eaf14,34,Kobieta,2022-06-11_10h17.04.098,task,2021.1.4,Win32,59.95203837,6299f149e92ead563fba08ef,62a4432b9e17e8fcd7ee1028,,,,,,,,,,,,,,,,,,,,,,,,,,,,,,,,,,,,,,,,,,,,,,,,,,,,,,,,,,,,,,,,,,,,,,,,,,,,,,,,,,,,,,,,,,,,,,,,,,,,,
,,,,,,3,0,3,0,1,X V Q F H G B L J M P D K C T S W R N Z,564e2f979b124900107eaf14,34,Kobieta,2022-06-11_10h17.04.098,task,2021.1.4,Win32,59.95203837,6299f149e92ead563fba08ef,62a4432b9e17e8fcd7ee1028,,,,,,,,,,,,,,,,,,,,,,,,,,,,,,,,,,,,,,,,,,,,,,,,,,,,,,,,,,,,,,,,,,,,,,,,,,,,,,,,,,,,,,,,,,,,,,,,,,,,,
,,,,,,4,0,4,0,1,X V Q F H G B L J M P D K C T S W R N Z,564e2f979b124900107eaf14,34,Kobieta,2022-06-11_10h17.04.098,task,2021.1.4,Win32,59.95203837,6299f149e92ead563fba08ef,62a4432b9e17e8fcd7ee1028,,,,,,,,,,,,,,,,,,,,,,,,,,,,,,,,,,,,,,,,,,,,,,,,,,,,,,,,,,,,,,,,,,,,,,,,,,,,,,,,,,,,,,,,,,,,,,,,,,,,,
,,,,,,,,,,,,564e2f979b124900107eaf14,34,Kobieta,2022-06-11_10h17.04.098,task,2021.1.4,Win32,59.95203837,6299f149e92ead563fba08ef,62a4432b9e17e8fcd7ee1028,gqstq,"[""g"",""q"",""s"",""t"",""q""]","[0.5040000000000049,0.8689999999999998,1.1510000000000105,1.3599999999999994,1.63900000000001,2.9920000000000044]",1,GQSTQ,6,0,6,0,1,,,,,,,,,,,,,,,,,,,,,,,,,,,,,,,,,,,,,,,,,,,,,,,,,,,,,,,,,,,,,,,,,,,,,,,,,,,,,,,,,,,,,,,,,,,
,,,,,,0,0,0,0,1,X V Q F H G B L J M P D K C T S W R N Z,564e2f979b124900107eaf14,34,Kobieta,2022-06-11_10h17.04.098,task,2021.1.4,Win32,59.95203837,6299f149e92ead563fba08ef,62a4432b9e17e8fcd7ee1028,,,,,,,,,,,,,,,,,,,,,,,,,,,,,,,,,,,,,,,,,,,,,,,,,,,,,,,,,,,,,,,,,,,,,,,,,,,,,,,,,,,,,,,,,,,,,,,,,,,,,
,,,,,,1,0,1,0,1,X V Q F H G B L J M P D K C T S W R N Z,564e2f979b124900107eaf14,34,Kobieta,2022-06-11_10h17.04.098,task,2021.1.4,Win32,59.95203837,6299f149e92ead563fba08ef,62a4432b9e17e8fcd7ee1028,,,,,,,,,,,,,,,,,,,,,,,,,,,,,,,,,,,,,,,,,,,,,,,,,,,,,,,,,,,,,,,,,,,,,,,,,,,,,,,,,,,,,,,,,,,,,,,,,,,,,
,,,,,,2,0,2,0,1,X V Q F H G B L J M P D K C T S W R N Z,564e2f979b124900107eaf14,34,Kobieta,2022-06-11_10h17.04.098,task,2021.1.4,Win32,59.95203837,6299f149e92ead563fba08ef,62a4432b9e17e8fcd7ee1028,,,,,,,,,,,,,,,,,,,,,,,,,,,,,,,,,,,,,,,,,,,,,,,,,,,,,,,,,,,,,,,,,,,,,,,,,,,,,,,,,,,,,,,,,,,,,,,,,,,,,
,,,,,,3,0,3,0,1,X V Q F H G B L J M P D K C T S W R N Z,564e2f979b124900107eaf14,34,Kobieta,2022-06-11_10h17.04.098,task,2021.1.4,Win32,59.95203837,6299f149e92ead563fba08ef,62a4432b9e17e8fcd7ee1028,,,,,,,,,,,,,,,,,,,,,,,,,,,,,,,,,,,,,,,,,,,,,,,,,,,,,,,,,,,,,,,,,,,,,,,,,,,,,,,,,,,,,,,,,,,,,,,,,,,,,
,,,,,,4,0,4,0,1,X V Q F H G B L J M P D K C T S W R N Z,564e2f979b124900107eaf14,34,Kobieta,2022-06-11_10h17.04.098,task,2021.1.4,Win32,59.95203837,6299f149e92ead563fba08ef,62a4432b9e17e8fcd7ee1028,,,,,,,,,,,,,,,,,,,,,,,,,,,,,,,,,,,,,,,,,,,,,,,,,,,,,,,,,,,,,,,,,,,,,,,,,,,,,,,,,,,,,,,,,,,,,,,,,,,,,
,,,,,,,,,,,,564e2f979b124900107eaf14,34,Kobieta,2022-06-11_10h17.04.098,task,2021.1.4,Win32,59.95203837,6299f149e92ead563fba08ef,62a4432b9e17e8fcd7ee1028,ngfhp,"[""n"",""g"",""f"",""h"",""p""]","[5.833999999999989,6.36699999999999,6.552999999999997,6.672999999999988,7.352999999999994,8.185999999999993]",1,NGFHP,7,0,7,0,1,,,,,,,,,,,,,,,,,,,,,,,,,,,,,,,,,,,,,,,,,,,,,,,,,,,,,,,,,,,,,,,,,,,,,,,,,,,,,,,,,,,,,,,,,,,
,,,,,,0,0,0,0,1,X V Q F H G B L J M P D K C T S W R N Z,564e2f979b124900107eaf14,34,Kobieta,2022-06-11_10h17.04.098,task,2021.1.4,Win32,59.95203837,6299f149e92ead563fba08ef,62a4432b9e17e8fcd7ee1028,,,,,,,,,,,,,,,,,,,,,,,,,,,,,,,,,,,,,,,,,,,,,,,,,,,,,,,,,,,,,,,,,,,,,,,,,,,,,,,,,,,,,,,,,,,,,,,,,,,,,
,,,,,,1,0,1,0,1,X V Q F H G B L J M P D K C T S W R N Z,564e2f979b124900107eaf14,34,Kobieta,2022-06-11_10h17.04.098,task,2021.1.4,Win32,59.95203837,6299f149e92ead563fba08ef,62a4432b9e17e8fcd7ee1028,,,,,,,,,,,,,,,,,,,,,,,,,,,,,,,,,,,,,,,,,,,,,,,,,,,,,,,,,,,,,,,,,,,,,,,,,,,,,,,,,,,,,,,,,,,,,,,,,,,,,
,,,,,,2,0,2,0,1,X V Q F H G B L J M P D K C T S W R N Z,564e2f979b124900107eaf14,34,Kobieta,2022-06-11_10h17.04.098,task,2021.1.4,Win32,59.95203837,6299f149e92ead563fba08ef,62a4432b9e17e8fcd7ee1028,,,,,,,,,,,,,,,,,,,,,,,,,,,,,,,,,,,,,,,,,,,,,,,,,,,,,,,,,,,,,,,,,,,,,,,,,,,,,,,,,,,,,,,,,,,,,,,,,,,,,
,,,,,,3,0,3,0,1,X V Q F H G B L J M P D K C T S W R N Z,564e2f979b124900107eaf14,34,Kobieta,2022-06-11_10h17.04.098,task,2021.1.4,Win32,59.95203837,6299f149e92ead563fba08ef,62a4432b9e17e8fcd7ee1028,,,,,,,,,,,,,,,,,,,,,,,,,,,,,,,,,,,,,,,,,,,,,,,,,,,,,,,,,,,,,,,,,,,,,,,,,,,,,,,,,,,,,,,,,,,,,,,,,,,,,
,,,,,,4,0,4,0,1,X V Q F H G B L J M P D K C T S W R N Z,564e2f979b124900107eaf14,34,Kobieta,2022-06-11_10h17.04.098,task,2021.1.4,Win32,59.95203837,6299f149e92ead563fba08ef,62a4432b9e17e8fcd7ee1028,,,,,,,,,,,,,,,,,,,,,,,,,,,,,,,,,,,,,,,,,,,,,,,,,,,,,,,,,,,,,,,,,,,,,,,,,,,,,,,,,,,,,,,,,,,,,,,,,,,,,
,,,,,,5,0,5,0,1,X V Q F H G B L J M P D K C T S W R N Z,564e2f979b124900107eaf14,34,Kobieta,2022-06-11_10h17.04.098,task,2021.1.4,Win32,59.95203837,6299f149e92ead563fba08ef,62a4432b9e17e8fcd7ee1028,,,,,,,,,,,,,,,,,,,,,,,,,,,,,,,,,,,,,,,,,,,,,,,,,,,,,,,,,,,,,,,,,,,,,,,,,,,,,,,,,,,,,,,,,,,,,,,,,,,,,
,,,,,,,,,,,,564e2f979b124900107eaf14,34,Kobieta,2022-06-11_10h17.04.098,task,2021.1.4,Win32,59.95203837,6299f149e92ead563fba08ef,62a4432b9e17e8fcd7ee1028,zzlwn,"[""z"",""z"",""l"",""w"",""n""]","[0.5040000000000049,0.6400000000000006,0.8569999999999993,1.0170000000000101,1.1920000000000073,1.8100000000000023]",0,ZZLWNC,8,0,8,0,1,,,,,,,,,,,,,,,,,,,,,,,,,,,,,,,,,,,,,,,,,,,,,,,,,,,,,,,,,,,,,,,,,,,,,,,,,,,,,,,,,,,,,,,,,,,
,,,,,,0,0,0,0,1,X V Q F H G B L J M P D K C T S W R N Z,564e2f979b124900107eaf14,34,Kobieta,2022-06-11_10h17.04.098,task,2021.1.4,Win32,59.95203837,6299f149e92ead563fba08ef,62a4432b9e17e8fcd7ee1028,,,,,,,,,,,,,,,,,,,,,,,,,,,,,,,,,,,,,,,,,,,,,,,,,,,,,,,,,,,,,,,,,,,,,,,,,,,,,,,,,,,,,,,,,,,,,,,,,,,,,
,,,,,,1,0,1,0,1,X V Q F H G B L J M P D K C T S W R N Z,564e2f979b124900107eaf14,34,Kobieta,2022-06-11_10h17.04.098,task,2021.1.4,Win32,59.95203837,6299f149e92ead563fba08ef,62a4432b9e17e8fcd7ee1028,,,,,,,,,,,,,,,,,,,,,,,,,,,,,,,,,,,,,,,,,,,,,,,,,,,,,,,,,,,,,,,,,,,,,,,,,,,,,,,,,,,,,,,,,,,,,,,,,,,,,
,,,,,,2,0,2,0,1,X V Q F H G B L J M P D K C T S W R N Z,564e2f979b124900107eaf14,34,Kobieta,2022-06-11_10h17.04.098,task,2021.1.4,Win32,59.95203837,6299f149e92ead563fba08ef,62a4432b9e17e8fcd7ee1028,,,,,,,,,,,,,,,,,,,,,,,,,,,,,,,,,,,,,,,,,,,,,,,,,,,,,,,,,,,,,,,,,,,,,,,,,,,,,,,,,,,,,,,,,,,,,,,,,,,,,
,,,,,,3,0,3,0,1,X V Q F H G B L J M P D K C T S W R N Z,564e2f979b124900107eaf14,34,Kobieta,2022-06-11_10h17.04.098,task,2021.1.4,Win32,59.95203837,6299f149e92ead563fba08ef,62a4432b9e17e8fcd7ee1028,,,,,,,,,,,,,,,,,,,,,,,,,,,,,,,,,,,,,,,,,,,,,,,,,,,,,,,,,,,,,,,,,,,,,,,,,,,,,,,,,,,,,,,,,,,,,,,,,,,,,
,,,,,,4,0,4,0,1,X V Q F H G B L J M P D K C T S W R N Z,564e2f979b124900107eaf14,34,Kobieta,2022-06-11_10h17.04.098,task,2021.1.4,Win32,59.95203837,6299f149e92ead563fba08ef,62a4432b9e17e8fcd7ee1028,,,,,,,,,,,,,,,,,,,,,,,,,,,,,,,,,,,,,,,,,,,,,,,,,,,,,,,,,,,,,,,,,,,,,,,,,,,,,,,,,,,,,,,,,,,,,,,,,,,,,
,,,,,,5,0,5,0,1,X V Q F H G B L J M P D K C T S W R N Z,564e2f979b124900107eaf14,34,Kobieta,2022-06-11_10h17.04.098,task,2021.1.4,Win32,59.95203837,6299f149e92ead563fba08ef,62a4432b9e17e8fcd7ee1028,,,,,,,,,,,,,,,,,,,,,,,,,,,,,,,,,,,,,,,,,,,,,,,,,,,,,,,,,,,,,,,,,,,,,,,,,,,,,,,,,,,,,,,,,,,,,,,,,,,,,
,,,,,,,,,,,,564e2f979b124900107eaf14,34,Kobieta,2022-06-11_10h17.04.098,task,2021.1.4,Win32,59.95203837,6299f149e92ead563fba08ef,62a4432b9e17e8fcd7ee1028,hvhsnr,"[""h"",""v"",""h"",""s"",""n"",""r""]","[1.3760000000000048,1.7680000000000007,2.100999999999999,2.4000000000000057,7.192999999999998,7.287999999999997,8.176000000000002]",0,HVHSRF,9,0,9,0,1,,,,,,,,,,,,,,,,,,,,,,,,,,,,,,,,,,,,,,,,,,,,,,,,,,,,,,,,,,,,,,,,,,,,,,,,,,,,,,,,,,,,,,,,,,,
,,,,,,0,0,0,0,1,X V Q F H G B L J M P D K C T S W R N Z,564e2f979b124900107eaf14,34,Kobieta,2022-06-11_10h17.04.098,task,2021.1.4,Win32,59.95203837,6299f149e92ead563fba08ef,62a4432b9e17e8fcd7ee1028,,,,,,,,,,,,,,,,,,,,,,,,,,,,,,,,,,,,,,,,,,,,,,,,,,,,,,,,,,,,,,,,,,,,,,,,,,,,,,,,,,,,,,,,,,,,,,,,,,,,,
,,,,,,1,0,1,0,1,X V Q F H G B L J M P D K C T S W R N Z,564e2f979b124900107eaf14,34,Kobieta,2022-06-11_10h17.04.098,task,2021.1.4,Win32,59.95203837,6299f149e92ead563fba08ef,62a4432b9e17e8fcd7ee1028,,,,,,,,,,,,,,,,,,,,,,,,,,,,,,,,,,,,,,,,,,,,,,,,,,,,,,,,,,,,,,,,,,,,,,,,,,,,,,,,,,,,,,,,,,,,,,,,,,,,,
,,,,,,2,0,2,0,1,X V Q F H G B L J M P D K C T S W R N Z,564e2f979b124900107eaf14,34,Kobieta,2022-06-11_10h17.04.098,task,2021.1.4,Win32,59.95203837,6299f149e92ead563fba08ef,62a4432b9e17e8fcd7ee1028,,,,,,,,,,,,,,,,,,,,,,,,,,,,,,,,,,,,,,,,,,,,,,,,,,,,,,,,,,,,,,,,,,,,,,,,,,,,,,,,,,,,,,,,,,,,,,,,,,,,,
,,,,,,3,0,3,0,1,X V Q F H G B L J M P D K C T S W R N Z,564e2f979b124900107eaf14,34,Kobieta,2022-06-11_10h17.04.098,task,2021.1.4,Win32,59.95203837,6299f149e92ead563fba08ef,62a4432b9e17e8fcd7ee1028,,,,,,,,,,,,,,,,,,,,,,,,,,,,,,,,,,,,,,,,,,,,,,,,,,,,,,,,,,,,,,,,,,,,,,,,,,,,,,,,,,,,,,,,,,,,,,,,,,,,,
,,,,,,4,0,4,0,1,X V Q F H G B L J M P D K C T S W R N Z,564e2f979b124900107eaf14,34,Kobieta,2022-06-11_10h17.04.098,task,2021.1.4,Win32,59.95203837,6299f149e92ead563fba08ef,62a4432b9e17e8fcd7ee1028,,,,,,,,,,,,,,,,,,,,,,,,,,,,,,,,,,,,,,,,,,,,,,,,,,,,,,,,,,,,,,,,,,,,,,,,,,,,,,,,,,,,,,,,,,,,,,,,,,,,,
,,,,,,5,0,5,0,1,X V Q F H G B L J M P D K C T S W R N Z,564e2f979b124900107eaf14,34,Kobieta,2022-06-11_10h17.04.098,task,2021.1.4,Win32,59.95203837,6299f149e92ead563fba08ef,62a4432b9e17e8fcd7ee1028,,,,,,,,,,,,,,,,,,,,,,,,,,,,,,,,,,,,,,,,,,,,,,,,,,,,,,,,,,,,,,,,,,,,,,,,,,,,,,,,,,,,,,,,,,,,,,,,,,,,,
,,,,,,,,,,,,564e2f979b124900107eaf14,34,Kobieta,2022-06-11_10h17.04.098,task,2021.1.4,Win32,59.95203837,6299f149e92ead563fba08ef,62a4432b9e17e8fcd7ee1028,jxkktm,"[""j"",""x"",""k"",""k"",""t"",""m""]","[1.4499999999999886,1.6879999999999882,1.9029999999999916,2.022999999999996,2.287000000000006,2.384999999999991,3.304000000000002]",1,JXKKTM,10,0,10,0,1,,,,,,,,,,,,,,,,,,,,,,,,,,,,,,,,,,,,,,,,,,,,,,,,,,,,,,,,,,,,,,,,,,,,,,,,,,,,,,,,,,,,,,,,,,,
,,,,,,0,0,0,0,1,X V Q F H G B L J M P D K C T S W R N Z,564e2f979b124900107eaf14,34,Kobieta,2022-06-11_10h17.04.098,task,2021.1.4,Win32,59.95203837,6299f149e92ead563fba08ef,62a4432b9e17e8fcd7ee1028,,,,,,,,,,,,,,,,,,,,,,,,,,,,,,,,,,,,,,,,,,,,,,,,,,,,,,,,,,,,,,,,,,,,,,,,,,,,,,,,,,,,,,,,,,,,,,,,,,,,,
,,,,,,1,0,1,0,1,X V Q F H G B L J M P D K C T S W R N Z,564e2f979b124900107eaf14,34,Kobieta,2022-06-11_10h17.04.098,task,2021.1.4,Win32,59.95203837,6299f149e92ead563fba08ef,62a4432b9e17e8fcd7ee1028,,,,,,,,,,,,,,,,,,,,,,,,,,,,,,,,,,,,,,,,,,,,,,,,,,,,,,,,,,,,,,,,,,,,,,,,,,,,,,,,,,,,,,,,,,,,,,,,,,,,,
,,,,,,2,0,2,0,1,X V Q F H G B L J M P D K C T S W R N Z,564e2f979b124900107eaf14,34,Kobieta,2022-06-11_10h17.04.098,task,2021.1.4,Win32,59.95203837,6299f149e92ead563fba08ef,62a4432b9e17e8fcd7ee1028,,,,,,,,,,,,,,,,,,,,,,,,,,,,,,,,,,,,,,,,,,,,,,,,,,,,,,,,,,,,,,,,,,,,,,,,,,,,,,,,,,,,,,,,,,,,,,,,,,,,,
,,,,,,3,0,3,0,1,X V Q F H G B L J M P D K C T S W R N Z,564e2f979b124900107eaf14,34,Kobieta,2022-06-11_10h17.04.098,task,2021.1.4,Win32,59.95203837,6299f149e92ead563fba08ef,62a4432b9e17e8fcd7ee1028,,,,,,,,,,,,,,,,,,,,,,,,,,,,,,,,,,,,,,,,,,,,,,,,,,,,,,,,,,,,,,,,,,,,,,,,,,,,,,,,,,,,,,,,,,,,,,,,,,,,,
,,,,,,4,0,4,0,1,X V Q F H G B L J M P D K C T S W R N Z,564e2f979b124900107eaf14,34,Kobieta,2022-06-11_10h17.04.098,task,2021.1.4,Win32,59.95203837,6299f149e92ead563fba08ef,62a4432b9e17e8fcd7ee1028,,,,,,,,,,,,,,,,,,,,,,,,,,,,,,,,,,,,,,,,,,,,,,,,,,,,,,,,,,,,,,,,,,,,,,,,,,,,,,,,,,,,,,,,,,,,,,,,,,,,,
,,,,,,5,0,5,0,1,X V Q F H G B L J M P D K C T S W R N Z,564e2f979b124900107eaf14,34,Kobieta,2022-06-11_10h17.04.098,task,2021.1.4,Win32,59.95203837,6299f149e92ead563fba08ef,62a4432b9e17e8fcd7ee1028,,,,,,,,,,,,,,,,,,,,,,,,,,,,,,,,,,,,,,,,,,,,,,,,,,,,,,,,,,,,,,,,,,,,,,,,,,,,,,,,,,,,,,,,,,,,,,,,,,,,,
,,,,,,,,,,,,564e2f979b124900107eaf14,34,Kobieta,2022-06-11_10h17.04.098,task,2021.1.4,Win32,59.95203837,6299f149e92ead563fba08ef,62a4432b9e17e8fcd7ee1028,kftfkr,"[""k"",""f"",""t"",""f"",""k"",""r""]","[1.1370000000000005,1.3840000000000146,1.7340000000000089,2.3930000000000007,2.6340000000000146,2.7350000000000136,3.241000000000014]",1,KFTFKR,11,0,11,0,1,,,,,,,,,,,,,,,,,,,,,,,,,,,,,,,,,,,,,,,,,,,,,,,,,,,,,,,,,,,,,,,,,,,,,,,,,,,,,,,,,,,,,,,,,,,
,,,,,,0,0,0,0,1,X V Q F H G B L J M P D K C T S W R N Z,564e2f979b124900107eaf14,34,Kobieta,2022-06-11_10h17.04.098,task,2021.1.4,Win32,59.95203837,6299f149e92ead563fba08ef,62a4432b9e17e8fcd7ee1028,,,,,,,,,,,,,,,,,,,,,,,,,,,,,,,,,,,,,,,,,,,,,,,,,,,,,,,,,,,,,,,,,,,,,,,,,,,,,,,,,,,,,,,,,,,,,,,,,,,,,
,,,,,,1,0,1,0,1,X V Q F H G B L J M P D K C T S W R N Z,564e2f979b124900107eaf14,34,Kobieta,2022-06-11_10h17.04.098,task,2021.1.4,Win32,59.95203837,6299f149e92ead563fba08ef,62a4432b9e17e8fcd7ee1028,,,,,,,,,,,,,,,,,,,,,,,,,,,,,,,,,,,,,,,,,,,,,,,,,,,,,,,,,,,,,,,,,,,,,,,,,,,,,,,,,,,,,,,,,,,,,,,,,,,,,
,,,,,,2,0,2,0,1,X V Q F H G B L J M P D K C T S W R N Z,564e2f979b124900107eaf14,34,Kobieta,2022-06-11_10h17.04.098,task,2021.1.4,Win32,59.95203837,6299f149e92ead563fba08ef,62a4432b9e17e8fcd7ee1028,,,,,,,,,,,,,,,,,,,,,,,,,,,,,,,,,,,,,,,,,,,,,,,,,,,,,,,,,,,,,,,,,,,,,,,,,,,,,,,,,,,,,,,,,,,,,,,,,,,,,
,,,,,,3,0,3,0,1,X V Q F H G B L J M P D K C T S W R N Z,564e2f979b124900107eaf14,34,Kobieta,2022-06-11_10h17.04.098,task,2021.1.4,Win32,59.95203837,6299f149e92ead563fba08ef,62a4432b9e17e8fcd7ee1028,,,,,,,,,,,,,,,,,,,,,,,,,,,,,,,,,,,,,,,,,,,,,,,,,,,,,,,,,,,,,,,,,,,,,,,,,,,,,,,,,,,,,,,,,,,,,,,,,,,,,
,,,,,,4,0,4,0,1,X V Q F H G B L J M P D K C T S W R N Z,564e2f979b124900107eaf14,34,Kobieta,2022-06-11_10h17.04.098,task,2021.1.4,Win32,59.95203837,6299f149e92ead563fba08ef,62a4432b9e17e8fcd7ee1028,,,,,,,,,,,,,,,,,,,,,,,,,,,,,,,,,,,,,,,,,,,,,,,,,,,,,,,,,,,,,,,,,,,,,,,,,,,,,,,,,,,,,,,,,,,,,,,,,,,,,
,,,,,,5,0,5,0,1,X V Q F H G B L J M P D K C T S W R N Z,564e2f979b124900107eaf14,34,Kobieta,2022-06-11_10h17.04.098,task,2021.1.4,Win32,59.95203837,6299f149e92ead563fba08ef,62a4432b9e17e8fcd7ee1028,,,,,,,,,,,,,,,,,,,,,,,,,,,,,,,,,,,,,,,,,,,,,,,,,,,,,,,,,,,,,,,,,,,,,,,,,,,,,,,,,,,,,,,,,,,,,,,,,,,,,
,,,,,,6,0,6,0,1,X V Q F H G B L J M P D K C T S W R N Z,564e2f979b124900107eaf14,34,Kobieta,2022-06-11_10h17.04.098,task,2021.1.4,Win32,59.95203837,6299f149e92ead563fba08ef,62a4432b9e17e8fcd7ee1028,,,,,,,,,,,,,,,,,,,,,,,,,,,,,,,,,,,,,,,,,,,,,,,,,,,,,,,,,,,,,,,,,,,,,,,,,,,,,,,,,,,,,,,,,,,,,,,,,,,,,
,,,,,,,,,,,,564e2f979b124900107eaf14,34,Kobieta,2022-06-11_10h17.04.098,task,2021.1.4,Win32,59.95203837,6299f149e92ead563fba08ef,62a4432b9e17e8fcd7ee1028,fmtnfc,"[""f"",""m"",""t"",""n"",""f"",""c""]","[1.516999999999996,1.7060000000000173,2.122000000000014,2.3060000000000116,2.7860000000000014,3.1839999999999975,8.689999999999998]",0,FMTNFNC,12,0,12,0,1,,,,,,,,,,,,,,,,,,,,,,,,,,,,,,,,,,,,,,,,,,,,,,,,,,,,,,,,,,,,,,,,,,,,,,,,,,,,,,,,,,,,,,,,,,,
,,,,,,0,0,0,0,1,X V Q F H G B L J M P D K C T S W R N Z,564e2f979b124900107eaf14,34,Kobieta,2022-06-11_10h17.04.098,task,2021.1.4,Win32,59.95203837,6299f149e92ead563fba08ef,62a4432b9e17e8fcd7ee1028,,,,,,,,,,,,,,,,,,,,,,,,,,,,,,,,,,,,,,,,,,,,,,,,,,,,,,,,,,,,,,,,,,,,,,,,,,,,,,,,,,,,,,,,,,,,,,,,,,,,,
,,,,,,1,0,1,0,1,X V Q F H G B L J M P D K C T S W R N Z,564e2f979b124900107eaf14,34,Kobieta,2022-06-11_10h17.04.098,task,2021.1.4,Win32,59.95203837,6299f149e92ead563fba08ef,62a4432b9e17e8fcd7ee1028,,,,,,,,,,,,,,,,,,,,,,,,,,,,,,,,,,,,,,,,,,,,,,,,,,,,,,,,,,,,,,,,,,,,,,,,,,,,,,,,,,,,,,,,,,,,,,,,,,,,,
,,,,,,2,0,2,0,1,X V Q F H G B L J M P D K C T S W R N Z,564e2f979b124900107eaf14,34,Kobieta,2022-06-11_10h17.04.098,task,2021.1.4,Win32,59.95203837,6299f149e92ead563fba08ef,62a4432b9e17e8fcd7ee1028,,,,,,,,,,,,,,,,,,,,,,,,,,,,,,,,,,,,,,,,,,,,,,,,,,,,,,,,,,,,,,,,,,,,,,,,,,,,,,,,,,,,,,,,,,,,,,,,,,,,,
,,,,,,3,0,3,0,1,X V Q F H G B L J M P D K C T S W R N Z,564e2f979b124900107eaf14,34,Kobieta,2022-06-11_10h17.04.098,task,2021.1.4,Win32,59.95203837,6299f149e92ead563fba08ef,62a4432b9e17e8fcd7ee1028,,,,,,,,,,,,,,,,,,,,,,,,,,,,,,,,,,,,,,,,,,,,,,,,,,,,,,,,,,,,,,,,,,,,,,,,,,,,,,,,,,,,,,,,,,,,,,,,,,,,,
,,,,,,4,0,4,0,1,X V Q F H G B L J M P D K C T S W R N Z,564e2f979b124900107eaf14,34,Kobieta,2022-06-11_10h17.04.098,task,2021.1.4,Win32,59.95203837,6299f149e92ead563fba08ef,62a4432b9e17e8fcd7ee1028,,,,,,,,,,,,,,,,,,,,,,,,,,,,,,,,,,,,,,,,,,,,,,,,,,,,,,,,,,,,,,,,,,,,,,,,,,,,,,,,,,,,,,,,,,,,,,,,,,,,,
,,,,,,5,0,5,0,1,X V Q F H G B L J M P D K C T S W R N Z,564e2f979b124900107eaf14,34,Kobieta,2022-06-11_10h17.04.098,task,2021.1.4,Win32,59.95203837,6299f149e92ead563fba08ef,62a4432b9e17e8fcd7ee1028,,,,,,,,,,,,,,,,,,,,,,,,,,,,,,,,,,,,,,,,,,,,,,,,,,,,,,,,,,,,,,,,,,,,,,,,,,,,,,,,,,,,,,,,,,,,,,,,,,,,,
,,,,,,6,0,6,0,1,X V Q F H G B L J M P D K C T S W R N Z,564e2f979b124900107eaf14,34,Kobieta,2022-06-11_10h17.04.098,task,2021.1.4,Win32,59.95203837,6299f149e92ead563fba08ef,62a4432b9e17e8fcd7ee1028,,,,,,,,,,,,,,,,,,,,,,,,,,,,,,,,,,,,,,,,,,,,,,,,,,,,,,,,,,,,,,,,,,,,,,,,,,,,,,,,,,,,,,,,,,,,,,,,,,,,,
,,,,,,,,,,,,564e2f979b124900107eaf14,34,Kobieta,2022-06-11_10h17.04.098,task,2021.1.4,Win32,59.95203837,6299f149e92ead563fba08ef,62a4432b9e17e8fcd7ee1028,dgchnjv,"[""d"",""g"",""c"",""h"",""n"",""j"",""v""]","[1.3360000000000127,6.27200000000002,6.5190000000000055,6.7590000000000146,7.335000000000008,7.518000000000001,7.687000000000012,9.672000000000025]",1,DGCHNJV,13,0,13,0,1,,,,,,,,,,,,,,,,,,,,,,,,,,,,,,,,,,,,,,,,,,,,,,,,,,,,,,,,,,,,,,,,,,,,,,,,,,,,,,,,,,,,,,,,,,,
,,,,,,0,0,0,0,1,X V Q F H G B L J M P D K C T S W R N Z,564e2f979b124900107eaf14,34,Kobieta,2022-06-11_10h17.04.098,task,2021.1.4,Win32,59.95203837,6299f149e92ead563fba08ef,62a4432b9e17e8fcd7ee1028,,,,,,,,,,,,,,,,,,,,,,,,,,,,,,,,,,,,,,,,,,,,,,,,,,,,,,,,,,,,,,,,,,,,,,,,,,,,,,,,,,,,,,,,,,,,,,,,,,,,,
,,,,,,1,0,1,0,1,X V Q F H G B L J M P D K C T S W R N Z,564e2f979b124900107eaf14,34,Kobieta,2022-06-11_10h17.04.098,task,2021.1.4,Win32,59.95203837,6299f149e92ead563fba08ef,62a4432b9e17e8fcd7ee1028,,,,,,,,,,,,,,,,,,,,,,,,,,,,,,,,,,,,,,,,,,,,,,,,,,,,,,,,,,,,,,,,,,,,,,,,,,,,,,,,,,,,,,,,,,,,,,,,,,,,,
,,,,,,2,0,2,0,1,X V Q F H G B L J M P D K C T S W R N Z,564e2f979b124900107eaf14,34,Kobieta,2022-06-11_10h17.04.098,task,2021.1.4,Win32,59.95203837,6299f149e92ead563fba08ef,62a4432b9e17e8fcd7ee1028,,,,,,,,,,,,,,,,,,,,,,,,,,,,,,,,,,,,,,,,,,,,,,,,,,,,,,,,,,,,,,,,,,,,,,,,,,,,,,,,,,,,,,,,,,,,,,,,,,,,,
,,,,,,3,0,3,0,1,X V Q F H G B L J M P D K C T S W R N Z,564e2f979b124900107eaf14,34,Kobieta,2022-06-11_10h17.04.098,task,2021.1.4,Win32,59.95203837,6299f149e92ead563fba08ef,62a4432b9e17e8fcd7ee1028,,,,,,,,,,,,,,,,,,,,,,,,,,,,,,,,,,,,,,,,,,,,,,,,,,,,,,,,,,,,,,,,,,,,,,,,,,,,,,,,,,,,,,,,,,,,,,,,,,,,,
,,,,,,4,0,4,0,1,X V Q F H G B L J M P D K C T S W R N Z,564e2f979b124900107eaf14,34,Kobieta,2022-06-11_10h17.04.098,task,2021.1.4,Win32,59.95203837,6299f149e92ead563fba08ef,62a4432b9e17e8fcd7ee1028,,,,,,,,,,,,,,,,,,,,,,,,,,,,,,,,,,,,,,,,,,,,,,,,,,,,,,,,,,,,,,,,,,,,,,,,,,,,,,,,,,,,,,,,,,,,,,,,,,,,,
,,,,,,5,0,5,0,1,X V Q F H G B L J M P D K C T S W R N Z,564e2f979b124900107eaf14,34,Kobieta,2022-06-11_10h17.04.098,task,2021.1.4,Win32,59.95203837,6299f149e92ead563fba08ef,62a4432b9e17e8fcd7ee1028,,,,,,,,,,,,,,,,,,,,,,,,,,,,,,,,,,,,,,,,,,,,,,,,,,,,,,,,,,,,,,,,,,,,,,,,,,,,,,,,,,,,,,,,,,,,,,,,,,,,,
,,,,,,6,0,6,0,1,X V Q F H G B L J M P D K C T S W R N Z,564e2f979b124900107eaf14,34,Kobieta,2022-06-11_10h17.04.098,task,2021.1.4,Win32,59.95203837,6299f149e92ead563fba08ef,62a4432b9e17e8fcd7ee1028,,,,,,,,,,,,,,,,,,,,,,,,,,,,,,,,,,,,,,,,,,,,,,,,,,,,,,,,,,,,,,,,,,,,,,,,,,,,,,,,,,,,,,,,,,,,,,,,,,,,,
,,,,,,,,,,,,564e2f979b124900107eaf14,34,Kobieta,2022-06-11_10h17.04.098,task,2021.1.4,Win32,59.95203837,6299f149e92ead563fba08ef,62a4432b9e17e8fcd7ee1028,dqgwpht,"[""d"",""q"",""g"",""w"",""p"",""h"",""t""]","[1.7589999999999861,2.265999999999991,2.766999999999996,3.3829999999999814,4.119,4.21599999999998,4.46599999999998,6.799999999999983]",0,DWTQPHW,14,0,14,0,1,,,,,,,,,,,,,,,,,,,,,,,,,,,,,,,,,,,,,,,,,,,,,,,,,,,,,,,,,,,,,,,,,,,,,,,,,,,,,,,,,,,,,,,,,,,
,,,,,,0,0,0,0,1,X V Q F H G B L J M P D K C T S W R N Z,564e2f979b124900107eaf14,34,Kobieta,2022-06-11_10h17.04.098,task,2021.1.4,Win32,59.95203837,6299f149e92ead563fba08ef,62a4432b9e17e8fcd7ee1028,,,,,,,,,,,,,,,,,,,,,,,,,,,,,,,,,,,,,,,,,,,,,,,,,,,,,,,,,,,,,,,,,,,,,,,,,,,,,,,,,,,,,,,,,,,,,,,,,,,,,
,,,,,,1,0,1,0,1,X V Q F H G B L J M P D K C T S W R N Z,564e2f979b124900107eaf14,34,Kobieta,2022-06-11_10h17.04.098,task,2021.1.4,Win32,59.95203837,6299f149e92ead563fba08ef,62a4432b9e17e8fcd7ee1028,,,,,,,,,,,,,,,,,,,,,,,,,,,,,,,,,,,,,,,,,,,,,,,,,,,,,,,,,,,,,,,,,,,,,,,,,,,,,,,,,,,,,,,,,,,,,,,,,,,,,
,,,,,,2,0,2,0,1,X V Q F H G B L J M P D K C T S W R N Z,564e2f979b124900107eaf14,34,Kobieta,2022-06-11_10h17.04.098,task,2021.1.4,Win32,59.95203837,6299f149e92ead563fba08ef,62a4432b9e17e8fcd7ee1028,,,,,,,,,,,,,,,,,,,,,,,,,,,,,,,,,,,,,,,,,,,,,,,,,,,,,,,,,,,,,,,,,,,,,,,,,,,,,,,,,,,,,,,,,,,,,,,,,,,,,
,,,,,,3,0,3,0,1,X V Q F H G B L J M P D K C T S W R N Z,564e2f979b124900107eaf14,34,Kobieta,2022-06-11_10h17.04.098,task,2021.1.4,Win32,59.95203837,6299f149e92ead563fba08ef,62a4432b9e17e8fcd7ee1028,,,,,,,,,,,,,,,,,,,,,,,,,,,,,,,,,,,,,,,,,,,,,,,,,,,,,,,,,,,,,,,,,,,,,,,,,,,,,,,,,,,,,,,,,,,,,,,,,,,,,
,,,,,,4,0,4,0,1,X V Q F H G B L J M P D K C T S W R N Z,564e2f979b124900107eaf14,34,Kobieta,2022-06-11_10h17.04.098,task,2021.1.4,Win32,59.95203837,6299f149e92ead563fba08ef,62a4432b9e17e8fcd7ee1028,,,,,,,,,,,,,,,,,,,,,,,,,,,,,,,,,,,,,,,,,,,,,,,,,,,,,,,,,,,,,,,,,,,,,,,,,,,,,,,,,,,,,,,,,,,,,,,,,,,,,
,,,,,,5,0,5,0,1,X V Q F H G B L J M P D K C T S W R N Z,564e2f979b124900107eaf14,34,Kobieta,2022-06-11_10h17.04.098,task,2021.1.4,Win32,59.95203837,6299f149e92ead563fba08ef,62a4432b9e17e8fcd7ee1028,,,,,,,,,,,,,,,,,,,,,,,,,,,,,,,,,,,,,,,,,,,,,,,,,,,,,,,,,,,,,,,,,,,,,,,,,,,,,,,,,,,,,,,,,,,,,,,,,,,,,
,,,,,,6,0,6,0,1,X V Q F H G B L J M P D K C T S W R N Z,564e2f979b124900107eaf14,34,Kobieta,2022-06-11_10h17.04.098,task,2021.1.4,Win32,59.95203837,6299f149e92ead563fba08ef,62a4432b9e17e8fcd7ee1028,,,,,,,,,,,,,,,,,,,,,,,,,,,,,,,,,,,,,,,,,,,,,,,,,,,,,,,,,,,,,,,,,,,,,,,,,,,,,,,,,,,,,,,,,,,,,,,,,,,,,
,,,,,,,,,,,,564e2f979b124900107eaf14,34,Kobieta,2022-06-11_10h17.04.098,task,2021.1.4,Win32,59.95203837,6299f149e92ead563fba08ef,62a4432b9e17e8fcd7ee1028,mjwflm,"[""m"",""j"",""w"",""f"",""l"",""m""]","[1.4159999999999968,2.1839999999999975,4.299000000000007,5.040999999999997,8.569000000000017,8.767000000000024,9.137]",0,MJFMWLL,15,0,15,0,1,,,,,,,,,,,,,,,,,,,,,,,,,,,,,,,,,,,,,,,,,,,,,,,,,,,,,,,,,,,,,,,,,,,,,,,,,,,,,,,,,,,,,,,,,,,
,,,,,,,,,,,,564e2f979b124900107eaf14,34,Kobieta,2022-06-11_10h17.04.098,task,2021.1.4,Win32,59.95203837,6299f149e92ead563fba08ef,62a4432b9e17e8fcd7ee1028,,,,,,,,,,,space,7.737,8,"[""8""]",1,[6.563999999999993],[6.563999999999993],0,0,0,8,1,Practice,9,(3x3) - 1,8,,,,,,,,,,,,,,,,,,,,,,,,,,,,,,,,,,,,,,,,,,,,,,,,,,,,,,,,,,,,,,,,,,,,,,,,,,,
,,,,,,,,,,,,564e2f979b124900107eaf14,34,Kobieta,2022-06-11_10h17.04.098,task,2021.1.4,Win32,59.95203837,6299f149e92ead563fba08ef,62a4432b9e17e8fcd7ee1028,,,,,,,,,,,,,6,"[""6""]",1,[1.6510000000000105],"[6.563999999999993,1.6510000000000105]",0,1,1,6,1,Practice,7,(25/5) + 1,6,,,,,,,,,,,,,,,,,,,,,,,,,,,,,,,,,,,,,,,,,,,,,,,,,,,,,,,,,,,,,,,,,,,,,,,,,,,
,,,,,,,,,,,,564e2f979b124900107eaf14,34,Kobieta,2022-06-11_10h17.04.098,task,2021.1.4,Win32,59.95203837,6299f149e92ead563fba08ef,62a4432b9e17e8fcd7ee1028,,,,,,,,,,,,,9,"[""9""]",1,[1.7249999999999943],"[6.563999999999993,1.6510000000000105,1.7249999999999943]",0,2,2,9,1,Practice,10,(20/2) - 1,9,,,,,,,,,,,,,,,,,,,,,,,,,,,,,,,,,,,,,,,,,,,,,,,,,,,,,,,,,,,,,,,,,,,,,,,,,,,
,,,,,,,,,,,,564e2f979b124900107eaf14,34,Kobieta,2022-06-11_10h17.04.098,task,2021.1.4,Win32,59.95203837,6299f149e92ead563fba08ef,62a4432b9e17e8fcd7ee1028,,,,,,,,,,,,,3,"[""3""]",1,[1.4650000000000034],"[6.563999999999993,1.6510000000000105,1.7249999999999943,1.4650000000000034]",0,3,3,3,1,Practice,4,(8/4) + 1,3,,,,,,,,,,,,,,,,,,,,,,,,,,,,,,,,,,,,,,,,,,,,,,,,,,,,,,,,,,,,,,,,,,,,,,,,,,,
,,,,,,,,,,,,564e2f979b124900107eaf14,34,Kobieta,2022-06-11_10h17.04.098,task,2021.1.4,Win32,59.95203837,6299f149e92ead563fba08ef,62a4432b9e17e8fcd7ee1028,,,,,,,,,,,,,4,"[""4""]",1,[1.8669999999999902],"[6.563999999999993,1.6510000000000105,1.7249999999999943,1.4650000000000034,1.8669999999999902]",0,4,4,4,1,Practice,5,(2x6) - 8,4,,,,,,,,,,,,,,,,,,,,,,,,,,,,,,,,,,,,,,,,,,,,,,,,,,,,,,,,,,,,,,,,,,,,,,,,,,,
,,,,,,,,,,,,564e2f979b124900107eaf14,34,Kobieta,2022-06-11_10h17.04.098,task,2021.1.4,Win32,59.95203837,6299f149e92ead563fba08ef,62a4432b9e17e8fcd7ee1028,,,,,,,,,,,,,1,"[""1""]",1,[1.4839999999999804],"[6.563999999999993,1.6510000000000105,1.7249999999999943,1.4650000000000034,1.8669999999999902,1.4839999999999804]",0,5,5,1,1,Practice,2,(4x4) - 15,1,,,,,,,,,,,,,,,,,,,,,,,,,,,,,,,,,,,,,,,,,,,,,,,,,,,,,,,,,,,,,,,,,,,,,,,,,,,
,,,,,,,,,,,,564e2f979b124900107eaf14,34,Kobieta,2022-06-11_10h17.04.098,task,2021.1.4,Win32,59.95203837,6299f149e92ead563fba08ef,62a4432b9e17e8fcd7ee1028,,,,,,,,,,,,,0,"[""0""]",1,[1.3840000000000146],"[6.563999999999993,1.6510000000000105,1.7249999999999943,1.4650000000000034,1.8669999999999902,1.4839999999999804,1.3840000000000146]",0,6,6,0,1,Practice,1,(3x3) -  9,0,,,,,,,,,,,,,,,,,,,,,,,,,,,,,,,,,,,,,,,,,,,,,,,,,,,,,,,,,,,,,,,,,,,,,,,,,,,
,,,,,,,,,,,,564e2f979b124900107eaf14,34,Kobieta,2022-06-11_10h17.04.098,task,2021.1.4,Win32,59.95203837,6299f149e92ead563fba08ef,62a4432b9e17e8fcd7ee1028,,,,,,,,,,,,,2,"[""2""]",1,[1.9529999999999745],"[6.563999999999993,1.6510000000000105,1.7249999999999943,1.4650000000000034,1.8669999999999902,1.4839999999999804,1.3840000000000146,1.9529999999999745]",0,7,7,2,1,Practice,3,(4x4) - 14,2,,,,,,,,,,,,,,,,,,,,,,,,,,,,,,,,,,,,,,,,,,,,,,,,,,,,,,,,,,,,,,,,,,,,,,,,,,,
,,,,,,,,,,,,564e2f979b124900107eaf14,34,Kobieta,2022-06-11_10h17.04.098,task,2021.1.4,Win32,59.95203837,6299f149e92ead563fba08ef,62a4432b9e17e8fcd7ee1028,,,,,,,,,,,,,7,"[""7""]",1,[1.9869999999999663],"[6.563999999999993,1.6510000000000105,1.7249999999999943,1.4650000000000034,1.8669999999999902,1.4839999999999804,1.3840000000000146,1.9529999999999745,1.9869999999999663]",0,8,8,7,1,Practice,8,(5x5) - 18,7,,,,,,,,,,,,,,,,,,,,,,,,,,,,,,,,,,,,,,,,,,,,,,,,,,,,,,,,,,,,,,,,,,,,,,,,,,,
,,,,,,,,,,,,564e2f979b124900107eaf14,34,Kobieta,2022-06-11_10h17.04.098,task,2021.1.4,Win32,59.95203837,6299f149e92ead563fba08ef,62a4432b9e17e8fcd7ee1028,,,,,,,,,,,,,5,"[""5""]",1,[1.9510000000000218],"[6.563999999999993,1.6510000000000105,1.7249999999999943,1.4650000000000034,1.8669999999999902,1.4839999999999804,1.3840000000000146,1.9529999999999745,1.9869999999999663,1.9510000000000218]",0,9,9,5,1,Practice,6,(4/2) + 3,5,,,,,,,,,,,,,,,,,,,,,,,,,,,,,,,,,,,,,,,,,,,,,,,,,,,,,,,,,,,,,,,,,,,,,,,,,,,
,,,,,,,,,,,,564e2f979b124900107eaf14,34,Kobieta,2022-06-11_10h17.04.098,task,2021.1.4,Win32,59.95203837,6299f149e92ead563fba08ef,62a4432b9e17e8fcd7ee1028,,,,,,,,,,,,,,,,,,,,,,,,,,,1,22.031,1.468733333,26.96237491,1.340705658,4.92775393,space,1.525,0,0,0,0,1,,,,,,,,,,,,,,,,,,,,,,,,,,,,,,,,,,,,,,,,,,,,,,,,,,,,,,,,,,,,,,
,,,,,,,,,,,,564e2f979b124900107eaf14,34,Kobieta,2022-06-11_10h17.04.098,task,2021.1.4,Win32,59.95203837,6299f149e92ead563fba08ef,62a4432b9e17e8fcd7ee1028,,,,,,,,,,,,,6,,,,,,,,,,Practice,7,(25/5) + 1,6,,,,,,,,,,,,,,space,8.125,"[""6""]",1,[2.129000000000019],1,0,0,0,6,1,,,,,,,,,,,,,,,,,,,,,,,,,,,,,,,,,,,,,,,,,,,,,,,,,,,
,,,,,,,,,,,X V Q F H G B L J M P D K C T S W R N Z,564e2f979b124900107eaf14,34,Kobieta,2022-06-11_10h17.04.098,task,2021.1.4,Win32,59.95203837,6299f149e92ead563fba08ef,62a4432b9e17e8fcd7ee1028,,,,,,,,,,,,,,,,,,,,,,,,,,,,,,,,,,,,,,,,,,,,,,,,,,,0,0,0,0,1,,,,,,,,,,,,,,,,,,,,,,,,,,,,,,,,,,,,,,,,,,,,,,
,,,,,,,,,,,,564e2f979b124900107eaf14,34,Kobieta,2022-06-11_10h17.04.098,task,2021.1.4,Win32,59.95203837,6299f149e92ead563fba08ef,62a4432b9e17e8fcd7ee1028,,,,,,,,,,,,,6,,,,,,,,,,Practice,7,(25/5) + 1,6,,,,,,,,,,,,,,,,"[""6""]",1,[2.5190000000000055],1,0,0,0,6,1,,,,,,,,,,,,,,,,,,,,,,,,,,,,,,,,,,,,,,,,,,,,,,,,,,,
,,,,,,,,,,,X V Q F H G B L J M P D K C T S W R N Z,564e2f979b124900107eaf14,34,Kobieta,2022-06-11_10h17.04.098,task,2021.1.4,Win32,59.95203837,6299f149e92ead563fba08ef,62a4432b9e17e8fcd7ee1028,,,,,,,,,,,,,,,,,,,,,,,,,,,,,,,,,,,,,,,,,,,,,,,,,,,1,0,1,0,1,,,,,,,,,,,,,,,,,,,,,,,,,,,,,,,,,,,,,,,,,,,,,,
,,,,,,,,,,,,564e2f979b124900107eaf14,34,Kobieta,2022-06-11_10h17.04.098,task,2021.1.4,Win32,59.95203837,6299f149e92ead563fba08ef,62a4432b9e17e8fcd7ee1028,,,,,,,,,,,,,,,,,,,,,,,,,,,,,,,,,,,,,,,,,,,,,,,,,,,,,,,,zf,"[""z"",""f""]",0,"[2.3000000000000114,2.501000000000033,3.184000000000026]",1,0,0,0,0,1,,,,,,,,,,,,,,,,,,,,,,,,,,,,,,,,,,,,
,,,,,,,,,,,,564e2f979b124900107eaf14,34,Kobieta,2022-06-11_10h17.04.098,task,2021.1.4,Win32,59.95203837,6299f149e92ead563fba08ef,62a4432b9e17e8fcd7ee1028,,,,,,,,,,,,,1,,,,,,,,,,Practice,2,(4x4) - 15,1,,,,,,,,,,,,,,,,"[""1""]",1,[1.6160000000000423],1,0,0,0,1,1,,,,,,,,,,,,,,,,,,,,,,,,,,,,,,,,,,,,,,,,,,,,,,,,,,,
,,,,,,,,,,,X V Q F H G B L J M P D K C T S W R N Z,564e2f979b124900107eaf14,34,Kobieta,2022-06-11_10h17.04.098,task,2021.1.4,Win32,59.95203837,6299f149e92ead563fba08ef,62a4432b9e17e8fcd7ee1028,,,,,,,,,,,,,,,,,,,,,,,,,,,,,,,,,,,,,,,,,,,,,,,,,,,0,0,0,0,1,,,,,,,,,,,,,,,,,,,,,,,,,,,,,,,,,,,,,,,,,,,,,,
,,,,,,,,,,,,564e2f979b124900107eaf14,34,Kobieta,2022-06-11_10h17.04.098,task,2021.1.4,Win32,59.95203837,6299f149e92ead563fba08ef,62a4432b9e17e8fcd7ee1028,,,,,,,,,,,,,8,,,,,,,,,,Practice,9,(3x3) - 1,8,,,,,,,,,,,,,,,,"[""8""]",1,[1.6440000000000055],1,0,0,0,8,1,,,,,,,,,,,,,,,,,,,,,,,,,,,,,,,,,,,,,,,,,,,,,,,,,,,
,,,,,,,,,,,X V Q F H G B L J M P D K C T S W R N Z,564e2f979b124900107eaf14,34,Kobieta,2022-06-11_10h17.04.098,task,2021.1.4,Win32,59.95203837,6299f149e92ead563fba08ef,62a4432b9e17e8fcd7ee1028,,,,,,,,,,,,,,,,,,,,,,,,,,,,,,,,,,,,,,,,,,,,,,,,,,,1,0,1,0,1,,,,,,,,,,,,,,,,,,,,,,,,,,,,,,,,,,,,,,,,,,,,,,
,,,,,,,,,,,,564e2f979b124900107eaf14,34,Kobieta,2022-06-11_10h17.04.098,task,2021.1.4,Win32,59.95203837,6299f149e92ead563fba08ef,62a4432b9e17e8fcd7ee1028,,,,,,,,,,,,,,,,,,,,,,,,,,,,,,,,,,,,,,,,,,,,,,,,,,,,,,,,wf,"[""w"",""f""]",0,"[1.516999999999996,1.9019999999999868,2.334000000000003]",1,1,0,1,0,1,,,,,,,,,,,,,,,,,,,,,,,,,,,,,,,,,,,,
,,,,,,,,,,,,564e2f979b124900107eaf14,34,Kobieta,2022-06-11_10h17.04.098,task,2021.1.4,Win32,59.95203837,6299f149e92ead563fba08ef,62a4432b9e17e8fcd7ee1028,,,,,,,,,,,,,9,,,,,,,,,,Practice,10,(20/2) - 1,9,,,,,,,,,,,,,,,,"[""9""]",1,[1.4359999999999786],1,0,0,0,9,1,,,,,,,,,,,,,,,,,,,,,,,,,,,,,,,,,,,,,,,,,,,,,,,,,,,
,,,,,,,,,,,X V Q F H G B L J M P D K C T S W R N Z,564e2f979b124900107eaf14,34,Kobieta,2022-06-11_10h17.04.098,task,2021.1.4,Win32,59.95203837,6299f149e92ead563fba08ef,62a4432b9e17e8fcd7ee1028,,,,,,,,,,,,,,,,,,,,,,,,,,,,,,,,,,,,,,,,,,,,,,,,,,,0,0,0,0,1,,,,,,,,,,,,,,,,,,,,,,,,,,,,,,,,,,,,,,,,,,,,,,
,,,,,,,,,,,,564e2f979b124900107eaf14,34,Kobieta,2022-06-11_10h17.04.098,task,2021.1.4,Win32,59.95203837,6299f149e92ead563fba08ef,62a4432b9e17e8fcd7ee1028,,,,,,,,,,,,,9,,,,,,,,,,Practice,10,(20/2) - 1,9,,,,,,,,,,,,,,,,"[""9""]",1,[1.240000000000009],1,0,0,0,9,1,,,,,,,,,,,,,,,,,,,,,,,,,,,,,,,,,,,,,,,,,,,,,,,,,,,
,,,,,,,,,,,X V Q F H G B L J M P D K C T S W R N Z,564e2f979b124900107eaf14,34,Kobieta,2022-06-11_10h17.04.098,task,2021.1.4,Win32,59.95203837,6299f149e92ead563fba08ef,62a4432b9e17e8fcd7ee1028,,,,,,,,,,,,,,,,,,,,,,,,,,,,,,,,,,,,,,,,,,,,,,,,,,,1,0,1,0,1,,,,,,,,,,,,,,,,,,,,,,,,,,,,,,,,,,,,,,,,,,,,,,
,,,,,,,,,,,,564e2f979b124900107eaf14,34,Kobieta,2022-06-11_10h17.04.098,task,2021.1.4,Win32,59.95203837,6299f149e92ead563fba08ef,62a4432b9e17e8fcd7ee1028,,,,,,,,,,,,,,,,,,,,,,,,,,,,,,,,,,,,,,,,,,,,,,,,,,,,,,,,rp,"[""r"",""p""]",0,"[1.5860000000000127,2.026999999999987,2.3870000000000005]",1,2,0,2,0,1,,,,,,,,,,,,,,,,,,,,,,,,,,,,,,,,,,,,
,,,,,,,,,,,,564e2f979b124900107eaf14,34,Kobieta,2022-06-11_10h17.04.098,task,2021.1.4,Win32,59.95203837,6299f149e92ead563fba08ef,62a4432b9e17e8fcd7ee1028,,,,,,,,,,,,,2,,,,,,,,,,Task,19,(6/2) - 1,2,,,,,,,,,,,,,,,,,,,1,,,,,,,,,,,,,,,,,,,,,space,16.721,"[""2""]",1,[2.1370000000000005],0,0,0,18,1,,,,,,,,,,,,,,,,,,,,,,,,,,
,,,,,,,,,,,X V Q F H G B L J M P D K C T S W R N Z,564e2f979b124900107eaf14,34,Kobieta,2022-06-11_10h17.04.098,task,2021.1.4,Win32,59.95203837,6299f149e92ead563fba08ef,62a4432b9e17e8fcd7ee1028,,,,,,,,,,,,,,,,,,,,,,,,,,,,,,,,,,,,,,,,,,,,,,,,,,,,,,,,,,,,,,,,,,,,,,,,,,,,0,0,0,0,1,,,,,,,,,,,,,,,,,,,,,
,,,,,,,,,,,,564e2f979b124900107eaf14,34,Kobieta,2022-06-11_10h17.04.098,task,2021.1.4,Win32,59.95203837,6299f149e92ead563fba08ef,62a4432b9e17e8fcd7ee1028,,,,,,,,,,,,,7,,,,,,,,,,Task,14,(2x2) + 3,7,,,,,,,,,,,,,,,,,,,1,,,,,,,,,,,,,,,,,,,,,,,"[""7""]",1,[2.0950000000000273],0,0,0,13,1,,,,,,,,,,,,,,,,,,,,,,,,,,
,,,,,,,,,,,X V Q F H G B L J M P D K C T S W R N Z,564e2f979b124900107eaf14,34,Kobieta,2022-06-11_10h17.04.098,task,2021.1.4,Win32,59.95203837,6299f149e92ead563fba08ef,62a4432b9e17e8fcd7ee1028,,,,,,,,,,,,,,,,,,,,,,,,,,,,,,,,,,,,,,,,,,,,,,,,,,,,,,,,,,,,,,,,,,,,,,,,,,,,1,0,1,0,1,,,,,,,,,,,,,,,,,,,,,
,,,,,,,,,,,,564e2f979b124900107eaf14,34,Kobieta,2022-06-11_10h17.04.098,task,2021.1.4,Win32,59.95203837,6299f149e92ead563fba08ef,62a4432b9e17e8fcd7ee1028,,,,,,,,,,,,,,,,,,,,,,,,,,,,,,,,,,,,,,,,,,,,,,,,,,,,,,,,,,,,,,,,,,,,,,,,,,,,,,,,,zq,"[""z"",""q""]",0,"[1.3029999999999973,1.558999999999969,1.801999999999964]",1,ZQ,0,0,0,0,1,,,,,,,,,,
,,,,,,,,,,,,564e2f979b124900107eaf14,34,Kobieta,2022-06-11_10h17.04.098,task,2021.1.4,Win32,59.95203837,6299f149e92ead563fba08ef,62a4432b9e17e8fcd7ee1028,,,,,,,,,,,,,2,,,,,,,,,,Task,2,(2x2) - 2,2,,,,,,,,,,,,,,,,,,,1,,,,,,,,,,,,,,,,,,,,,,,"[""2""]",1,[1.3220000000000027],0,0,0,1,1,,,,,,,,,,,,,,,,,,,,,,,,,,
,,,,,,,,,,,X V Q F H G B L J M P D K C T S W R N Z,564e2f979b124900107eaf14,34,Kobieta,2022-06-11_10h17.04.098,task,2021.1.4,Win32,59.95203837,6299f149e92ead563fba08ef,62a4432b9e17e8fcd7ee1028,,,,,,,,,,,,,,,,,,,,,,,,,,,,,,,,,,,,,,,,,,,,,,,,,,,,,,,,,,,,,,,,,,,,,,,,,,,,0,0,0,0,1,,,,,,,,,,,,,,,,,,,,,
,,,,,,,,,,,,564e2f979b124900107eaf14,34,Kobieta,2022-06-11_10h17.04.098,task,2021.1.4,Win32,59.95203837,6299f149e92ead563fba08ef,62a4432b9e17e8fcd7ee1028,,,,,,,,,,,,,7,,,,,,,,,,Task,38,(4x6) - 17,7,,,,,,,,,,,,,,,,,,,1,,,,,,,,,,,,,,,,,,,,,,,"[""7""]",1,[4.100999999999999],0,0,0,37,1,,,,,,,,,,,,,,,,,,,,,,,,,,
,,,,,,,,,,,X V Q F H G B L J M P D K C T S W R N Z,564e2f979b124900107eaf14,34,Kobieta,2022-06-11_10h17.04.098,task,2021.1.4,Win32,59.95203837,6299f149e92ead563fba08ef,62a4432b9e17e8fcd7ee1028,,,,,,,,,,,,,,,,,,,,,,,,,,,,,,,,,,,,,,,,,,,,,,,,,,,,,,,,,,,,,,,,,,,,,,,,,,,,1,0,1,0,1,,,,,,,,,,,,,,,,,,,,,
,,,,,,,,,,,,564e2f979b124900107eaf14,34,Kobieta,2022-06-11_10h17.04.098,task,2021.1.4,Win32,59.95203837,6299f149e92ead563fba08ef,62a4432b9e17e8fcd7ee1028,,,,,,,,,,,,,0,,,,,,,,,,Task,33,(1/1) - 1,0,,,,,,,,,,,,,,,,,,,1,,,,,,,,,,,,,,,,,,,,,,,"[""0""]",1,[2.134999999999991],0,0,0,32,1,,,,,,,,,,,,,,,,,,,,,,,,,,
,,,,,,,,,,,X V Q F H G B L J M P D K C T S W R N Z,564e2f979b124900107eaf14,34,Kobieta,2022-06-11_10h17.04.098,task,2021.1.4,Win32,59.95203837,6299f149e92ead563fba08ef,62a4432b9e17e8fcd7ee1028,,,,,,,,,,,,,,,,,,,,,,,,,,,,,,,,,,,,,,,,,,,,,,,,,,,,,,,,,,,,,,,,,,,,,,,,,,,,2,0,2,0,1,,,,,,,,,,,,,,,,,,,,,
,,,,,,,,,,,,564e2f979b124900107eaf14,34,Kobieta,2022-06-11_10h17.04.098,task,2021.1.4,Win32,59.95203837,6299f149e92ead563fba08ef,62a4432b9e17e8fcd7ee1028,,,,,,,,,,,,,,,,,,,,,,,,,,,,,,,,,,,,,,,,,,,,,,,,,,,,,,,,,,,,,,,,,,,,,,,,,,,,,,,,,nrh,"[""n"",""r"",""h""]",0,"[1.1679999999999495,1.6239999999999668,1.7279999999999518,2.4079999999999586]",1,NRH,1,0,1,0,1,,,,,,,,,,
,,,,,,,,,,,,564e2f979b124900107eaf14,34,Kobieta,2022-06-11_10h17.04.098,task,2021.1.4,Win32,59.95203837,6299f149e92ead563fba08ef,62a4432b9e17e8fcd7ee1028,,,,,,,,,,,,,4,,,,,,,,,,Task,4,(1x5) - 1,4,,,,,,,,,,,,,,,,,,,1,,,,,,,,,,,,,,,,,,,,,,,"[""4""]",1,[1.9159999999999968],0,0,0,3,1,,,,,,,,,,,,,,,,,,,,,,,,,,
,,,,,,,,,,,X V Q F H G B L J M P D K C T S W R N Z,564e2f979b124900107eaf14,34,Kobieta,2022-06-11_10h17.04.098,task,2021.1.4,Win32,59.95203837,6299f149e92ead563fba08ef,62a4432b9e17e8fcd7ee1028,,,,,,,,,,,,,,,,,,,,,,,,,,,,,,,,,,,,,,,,,,,,,,,,,,,,,,,,,,,,,,,,,,,,,,,,,,,,0,0,0,0,1,,,,,,,,,,,,,,,,,,,,,
,,,,,,,,,,,,564e2f979b124900107eaf14,34,Kobieta,2022-06-11_10h17.04.098,task,2021.1.4,Win32,59.95203837,6299f149e92ead563fba08ef,62a4432b9e17e8fcd7ee1028,,,,,,,,,,,,,8,,,,,,,,,,Task,32,(8/2) + 4,8,,,,,,,,,,,,,,,,,,,1,,,,,,,,,,,,,,,,,,,,,,,"[""8""]",1,[2.203999999999951],0,0,0,31,1,,,,,,,,,,,,,,,,,,,,,,,,,,
,,,,,,,,,,,X V Q F H G B L J M P D K C T S W R N Z,564e2f979b124900107eaf14,34,Kobieta,2022-06-11_10h17.04.098,task,2021.1.4,Win32,59.95203837,6299f149e92ead563fba08ef,62a4432b9e17e8fcd7ee1028,,,,,,,,,,,,,,,,,,,,,,,,,,,,,,,,,,,,,,,,,,,,,,,,,,,,,,,,,,,,,,,,,,,,,,,,,,,,1,0,1,0,1,,,,,,,,,,,,,,,,,,,,,
,,,,,,,,,,,,564e2f979b124900107eaf14,34,Kobieta,2022-06-11_10h17.04.098,task,2021.1.4,Win32,59.95203837,6299f149e92ead563fba08ef,62a4432b9e17e8fcd7ee1028,,,,,,,,,,,,,7,,,,,,,,,,Task,30,(6/3) + 4 ,6,,,,,,,,,,,,,,,,,,,0,,,,,,,,,,,,,,,,,,,,,,,"[""7""]",0,[1.7839999999999918],0,0,0,29,1,,,,,,,,,,,,,,,,,,,,,,,,,,
,,,,,,,,,,,,564e2f979b124900107eaf14,34,Kobieta,2022-06-11_10h17.04.098,task,2021.1.4,Win32,59.95203837,6299f149e92ead563fba08ef,62a4432b9e17e8fcd7ee1028,,,,,,,,,,,,,4,,,,,,,,,,Task,21,(10/2) - 1,4,,,,,,,,,,,,,,,,,,,1,,,,,,,,,,,,,,,,,,,,,,,"[""4""]",1,[2.201000000000022],0,1,1,20,1,,,,,,,,,,,,,,,,,,,,,,,,,,
,,,,,,,,,,,X V Q F H G B L J M P D K C T S W R N Z,564e2f979b124900107eaf14,34,Kobieta,2022-06-11_10h17.04.098,task,2021.1.4,Win32,59.95203837,6299f149e92ead563fba08ef,62a4432b9e17e8fcd7ee1028,,,,,,,,,,,,,,,,,,,,,,,,,,,,,,,,,,,,,,,,,,,,,,,,,,,,,,,,,,,,,,,,,,,,,,,,,,,,2,0,2,0,1,,,,,,,,,,,,,,,,,,,,,
,,,,,,,,,,,,564e2f979b124900107eaf14,34,Kobieta,2022-06-11_10h17.04.098,task,2021.1.4,Win32,59.95203837,6299f149e92ead563fba08ef,62a4432b9e17e8fcd7ee1028,,,,,,,,,,,,,1,,,,,,,,,,Task,1,(12/6) - 1,1,,,,,,,,,,,,,,,,,,,1,,,,,,,,,,,,,,,,,,,,,,,"[""1""]",1,[2.4909999999999854],0,0,0,0,1,,,,,,,,,,,,,,,,,,,,,,,,,,
,,,,,,,,,,,X V Q F H G B L J M P D K C T S W R N Z,564e2f979b124900107eaf14,34,Kobieta,2022-06-11_10h17.04.098,task,2021.1.4,Win32,59.95203837,6299f149e92ead563fba08ef,62a4432b9e17e8fcd7ee1028,,,,,,,,,,,,,,,,,,,,,,,,,,,,,,,,,,,,,,,,,,,,,,,,,,,,,,,,,,,,,,,,,,,,,,,,,,,,3,0,3,0,1,,,,,,,,,,,,,,,,,,,,,
,,,,,,,,,,,,564e2f979b124900107eaf14,34,Kobieta,2022-06-11_10h17.04.098,task,2021.1.4,Win32,59.95203837,6299f149e92ead563fba08ef,62a4432b9e17e8fcd7ee1028,,,,,,,,,,,,,,,,,,,,,,,,,,,,,,,,,,,,,,,,,,,,,,,,,,,,,,,,,,,,,,,,,,,,,,,,,,,,,,,,,pvzj,"[""p"",""v"",""z"",""j""]",0,"[1.204999999999984,1.4039999999999964,2.1089999999999804,2.237000000000023,2.836999999999989]",1,PVZJ,2,0,2,0,1,,,,,,,,,,
,,,,,,,,,,,,564e2f979b124900107eaf14,34,Kobieta,2022-06-11_10h17.04.098,task,2021.1.4,Win32,59.95203837,6299f149e92ead563fba08ef,62a4432b9e17e8fcd7ee1028,,,,,,,,,,,,,9,,,,,,,,,,Task,40,(7x2) - 5,9,,,,,,,,,,,,,,,,,,,1,,,,,,,,,,,,,,,,,,,,,,,"[""9""]",1,[2.524000000000001],0,0,0,39,1,,,,,,,,,,,,,,,,,,,,,,,,,,
,,,,,,,,,,,X V Q F H G B L J M P D K C T S W R N Z,564e2f979b124900107eaf14,34,Kobieta,2022-06-11_10h17.04.098,task,2021.1.4,Win32,59.95203837,6299f149e92ead563fba08ef,62a4432b9e17e8fcd7ee1028,,,,,,,,,,,,,,,,,,,,,,,,,,,,,,,,,,,,,,,,,,,,,,,,,,,,,,,,,,,,,,,,,,,,,,,,,,,,0,0,0,0,1,,,,,,,,,,,,,,,,,,,,,
,,,,,,,,,,,,564e2f979b124900107eaf14,34,Kobieta,2022-06-11_10h17.04.098,task,2021.1.4,Win32,59.95203837,6299f149e92ead563fba08ef,62a4432b9e17e8fcd7ee1028,,,,,,,,,,,,,8,,,,,,,,,,Task,32,(8/2) + 4,8,,,,,,,,,,,,,,,,,,,1,,,,,,,,,,,,,,,,,,,,,,,"[""8""]",1,[2.2309999999999945],0,0,0,31,1,,,,,,,,,,,,,,,,,,,,,,,,,,
,,,,,,,,,,,X V Q F H G B L J M P D K C T S W R N Z,564e2f979b124900107eaf14,34,Kobieta,2022-06-11_10h17.04.098,task,2021.1.4,Win32,59.95203837,6299f149e92ead563fba08ef,62a4432b9e17e8fcd7ee1028,,,,,,,,,,,,,,,,,,,,,,,,,,,,,,,,,,,,,,,,,,,,,,,,,,,,,,,,,,,,,,,,,,,,,,,,,,,,1,0,1,0,1,,,,,,,,,,,,,,,,,,,,,
,,,,,,,,,,,,564e2f979b124900107eaf14,34,Kobieta,2022-06-11_10h17.04.098,task,2021.1.4,Win32,59.95203837,6299f149e92ead563fba08ef,62a4432b9e17e8fcd7ee1028,,,,,,,,,,,,,7,,,,,,,,,,Task,14,(2x2) + 3,7,,,,,,,,,,,,,,,,,,,1,,,,,,,,,,,,,,,,,,,,,,,"[""7""]",1,[3.1189999999999714],0,0,0,13,1,,,,,,,,,,,,,,,,,,,,,,,,,,
,,,,,,,,,,,X V Q F H G B L J M P D K C T S W R N Z,564e2f979b124900107eaf14,34,Kobieta,2022-06-11_10h17.04.098,task,2021.1.4,Win32,59.95203837,6299f149e92ead563fba08ef,62a4432b9e17e8fcd7ee1028,,,,,,,,,,,,,,,,,,,,,,,,,,,,,,,,,,,,,,,,,,,,,,,,,,,,,,,,,,,,,,,,,,,,,,,,,,,,2,0,2,0,1,,,,,,,,,,,,,,,,,,,,,
,,,,,,,,,,,,564e2f979b124900107eaf14,34,Kobieta,2022-06-11_10h17.04.098,task,2021.1.4,Win32,59.95203837,6299f149e92ead563fba08ef,62a4432b9e17e8fcd7ee1028,,,,,,,,,,,,,4,,,,,,,,,,Task,4,(1x5) - 1,4,,,,,,,,,,,,,,,,,,,1,,,,,,,,,,,,,,,,,,,,,,,"[""4""]",1,[1.8690000000000282],0,0,0,3,1,,,,,,,,,,,,,,,,,,,,,,,,,,
,,,,,,,,,,,X V Q F H G B L J M P D K C T S W R N Z,564e2f979b124900107eaf14,34,Kobieta,2022-06-11_10h17.04.098,task,2021.1.4,Win32,59.95203837,6299f149e92ead563fba08ef,62a4432b9e17e8fcd7ee1028,,,,,,,,,,,,,,,,,,,,,,,,,,,,,,,,,,,,,,,,,,,,,,,,,,,,,,,,,,,,,,,,,,,,,,,,,,,,3,0,3,0,1,,,,,,,,,,,,,,,,,,,,,
,,,,,,,,,,,,564e2f979b124900107eaf14,34,Kobieta,2022-06-11_10h17.04.098,task,2021.1.4,Win32,59.95203837,6299f149e92ead563fba08ef,62a4432b9e17e8fcd7ee1028,,,,,,,,,,,,,2,,,,,,,,,,Task,10,(2x5) - 8,2,,,,,,,,,,,,,,,,,,,1,,,,,,,,,,,,,,,,,,,,,,,"[""2""]",1,[2.7860000000000014],0,0,0,9,1,,,,,,,,,,,,,,,,,,,,,,,,,,
,,,,,,,,,,,X V Q F H G B L J M P D K C T S W R N Z,564e2f979b124900107eaf14,34,Kobieta,2022-06-11_10h17.04.098,task,2021.1.4,Win32,59.95203837,6299f149e92ead563fba08ef,62a4432b9e17e8fcd7ee1028,,,,,,,,,,,,,,,,,,,,,,,,,,,,,,,,,,,,,,,,,,,,,,,,,,,,,,,,,,,,,,,,,,,,,,,,,,,,4,0,4,0,1,,,,,,,,,,,,,,,,,,,,,
,,,,,,,,,,,,564e2f979b124900107eaf14,34,Kobieta,2022-06-11_10h17.04.098,task,2021.1.4,Win32,59.95203837,6299f149e92ead563fba08ef,62a4432b9e17e8fcd7ee1028,,,,,,,,,,,,,,,,,,,,,,,,,,,,,,,,,,,,,,,,,,,,,,,,,,,,,,,,,,,,,,,,,,,,,,,,,,,,,,,,,tjsnz,"[""t"",""j"",""s"",""n"",""z""]",0,"[1.4569999999999936,1.7019999999999982,2.0850000000000364,2.209000000000003,2.3460000000000036,3.090000000000032]",1,TJSNZ,3,0,3,0,1,,,,,,,,,,
,,,,,,,,,,,,564e2f979b124900107eaf14,34,Kobieta,2022-06-11_10h17.04.098,task,2021.1.4,Win32,59.95203837,6299f149e92ead563fba08ef,62a4432b9e17e8fcd7ee1028,,,,,,,,,,,,,4,,,,,,,,,,Task,4,(1x5) - 1,4,,,,,,,,,,,,,,,,,,,1,,,,,,,,,,,,,,,,,,,,,,,"[""4""]",1,[2.391999999999996],0,0,0,3,1,,,,,,,,,,,,,,,,,,,,,,,,,,
,,,,,,,,,,,X V Q F H G B L J M P D K C T S W R N Z,564e2f979b124900107eaf14,34,Kobieta,2022-06-11_10h17.04.098,task,2021.1.4,Win32,59.95203837,6299f149e92ead563fba08ef,62a4432b9e17e8fcd7ee1028,,,,,,,,,,,,,,,,,,,,,,,,,,,,,,,,,,,,,,,,,,,,,,,,,,,,,,,,,,,,,,,,,,,,,,,,,,,,0,0,0,0,1,,,,,,,,,,,,,,,,,,,,,
,,,,,,,,,,,,564e2f979b124900107eaf14,34,Kobieta,2022-06-11_10h17.04.098,task,2021.1.4,Win32,59.95203837,6299f149e92ead563fba08ef,62a4432b9e17e8fcd7ee1028,,,,,,,,,,,,,2,,,,,,,,,,Task,2,(2x2) - 2,2,,,,,,,,,,,,,,,,,,,1,,,,,,,,,,,,,,,,,,,,,,,"[""2""]",1,[1.785000000000025],0,0,0,1,1,,,,,,,,,,,,,,,,,,,,,,,,,,
,,,,,,,,,,,X V Q F H G B L J M P D K C T S W R N Z,564e2f979b124900107eaf14,34,Kobieta,2022-06-11_10h17.04.098,task,2021.1.4,Win32,59.95203837,6299f149e92ead563fba08ef,62a4432b9e17e8fcd7ee1028,,,,,,,,,,,,,,,,,,,,,,,,,,,,,,,,,,,,,,,,,,,,,,,,,,,,,,,,,,,,,,,,,,,,,,,,,,,,1,0,1,0,1,,,,,,,,,,,,,,,,,,,,,
,,,,,,,,,,,,564e2f979b124900107eaf14,34,Kobieta,2022-06-11_10h17.04.098,task,2021.1.4,Win32,59.95203837,6299f149e92ead563fba08ef,62a4432b9e17e8fcd7ee1028,,,,,,,,,,,,,3,,,,,,,,,,Task,3,(2x3) - 3,3,,,,,,,,,,,,,,,,,,,1,,,,,,,,,,,,,,,,,,,,,,,"[""3""]",1,[2.0020000000000095],0,0,0,2,1,,,,,,,,,,,,,,,,,,,,,,,,,,
,,,,,,,,,,,X V Q F H G B L J M P D K C T S W R N Z,564e2f979b124900107eaf14,34,Kobieta,2022-06-11_10h17.04.098,task,2021.1.4,Win32,59.95203837,6299f149e92ead563fba08ef,62a4432b9e17e8fcd7ee1028,,,,,,,,,,,,,,,,,,,,,,,,,,,,,,,,,,,,,,,,,,,,,,,,,,,,,,,,,,,,,,,,,,,,,,,,,,,,2,0,2,0,1,,,,,,,,,,,,,,,,,,,,,
,,,,,,,,,,,,564e2f979b124900107eaf14,34,Kobieta,2022-06-11_10h17.04.098,task,2021.1.4,Win32,59.95203837,6299f149e92ead563fba08ef,62a4432b9e17e8fcd7ee1028,,,,,,,,,,,,,9,,,,,,,,,,Task,7,(3x7) - 12,9,,,,,,,,,,,,,,,,,,,1,,,,,,,,,,,,,,,,,,,,,,,"[""9""]",1,[2.0989999999999895],0,0,0,6,1,,,,,,,,,,,,,,,,,,,,,,,,,,
,,,,,,,,,,,X V Q F H G B L J M P D K C T S W R N Z,564e2f979b124900107eaf14,34,Kobieta,2022-06-11_10h17.04.098,task,2021.1.4,Win32,59.95203837,6299f149e92ead563fba08ef,62a4432b9e17e8fcd7ee1028,,,,,,,,,,,,,,,,,,,,,,,,,,,,,,,,,,,,,,,,,,,,,,,,,,,,,,,,,,,,,,,,,,,,,,,,,,,,3,0,3,0,1,,,,,,,,,,,,,,,,,,,,,
,,,,,,,,,,,,564e2f979b124900107eaf14,34,Kobieta,2022-06-11_10h17.04.098,task,2021.1.4,Win32,59.95203837,6299f149e92ead563fba08ef,62a4432b9e17e8fcd7ee1028,,,,,,,,,,,,,,,,,,,,,,,Task,15,(3x7) - 13,8,,,,,,,,,,,,,,,,,,,0,,,,,,,,,,,,,,,,,,,,,,,,0,,0,0,0,14,1,,,,,,,,,,,,,,,,,,,,,,,,,,
,,,,,,,,,,,,564e2f979b124900107eaf14,34,Kobieta,2022-06-11_10h17.04.098,task,2021.1.4,Win32,59.95203837,6299f149e92ead563fba08ef,62a4432b9e17e8fcd7ee1028,,,,,,,,,,,,,7,,,,,,,,,,Task,14,(2x2) + 3,7,,,,,,,,,,,,,,,,,,,1,,,,,,,,,,,,,,,,,,,,,,,"[""7""]",1,[1.9010000000000105],0,1,1,13,1,,,,,,,,,,,,,,,,,,,,,,,,,,
,,,,,,,,,,,X V Q F H G B L J M P D K C T S W R N Z,564e2f979b124900107eaf14,34,Kobieta,2022-06-11_10h17.04.098,task,2021.1.4,Win32,59.95203837,6299f149e92ead563fba08ef,62a4432b9e17e8fcd7ee1028,,,,,,,,,,,,,,,,,,,,,,,,,,,,,,,,,,,,,,,,,,,,,,,,,,,,,,,,,,,,,,,,,,,,,,,,,,,,4,0,4,0,1,,,,,,,,,,,,,,,,,,,,,
,,,,,,,,,,,,564e2f979b124900107eaf14,34,Kobieta,2022-06-11_10h17.04.098,task,2021.1.4,Win32,59.95203837,6299f149e92ead563fba08ef,62a4432b9e17e8fcd7ee1028,,,,,,,,,,,,,1,,,,,,,,,,Task,18,(16/4) - 3,1,,,,,,,,,,,,,,,,,,,1,,,,,,,,,,,,,,,,,,,,,,,"[""1""]",1,[1.6999999999999886],0,0,0,17,1,,,,,,,,,,,,,,,,,,,,,,,,,,
,,,,,,,,,,,X V Q F H G B L J M P D K C T S W R N Z,564e2f979b124900107eaf14,34,Kobieta,2022-06-11_10h17.04.098,task,2021.1.4,Win32,59.95203837,6299f149e92ead563fba08ef,62a4432b9e17e8fcd7ee1028,,,,,,,,,,,,,,,,,,,,,,,,,,,,,,,,,,,,,,,,,,,,,,,,,,,,,,,,,,,,,,,,,,,,,,,,,,,,5,0,5,0,1,,,,,,,,,,,,,,,,,,,,,
,,,,,,,,,,,,564e2f979b124900107eaf14,34,Kobieta,2022-06-11_10h17.04.098,task,2021.1.4,Win32,59.95203837,6299f149e92ead563fba08ef,62a4432b9e17e8fcd7ee1028,,,,,,,,,,,,,,,,,,,,,,,,,,,,,,,,,,,,,,,,,,,,,,,,,,,,,,,,,,,,,,,,,,,,,,,,,,,,,,,,,pcnqsj,"[""p"",""c"",""n"",""q"",""s"",""j""]",0,"[1.4019999999999868,1.5930000000000177,2.2579999999999814,3.6580000000000155,5.153999999999996,7.6580000000000155,7.954000000000008]",0,PCNQSG,4,0,4,0,1,,,,,,,,,,
,,,,,,,,,,,,564e2f979b124900107eaf14,34,Kobieta,2022-06-11_10h17.04.098,task,2021.1.4,Win32,59.95203837,6299f149e92ead563fba08ef,62a4432b9e17e8fcd7ee1028,,,,,,,,,,,,,6,,,,,,,,,,Task,13,(3x4) - 6,6,,,,,,,,,,,,,,,,,,,1,,,,,,,,,,,,,,,,,,,,,,,"[""6""]",1,[1.615000000000009],0,0,0,12,1,,,,,,,,,,,,,,,,,,,,,,,,,,
,,,,,,,,,,,X V Q F H G B L J M P D K C T S W R N Z,564e2f979b124900107eaf14,34,Kobieta,2022-06-11_10h17.04.098,task,2021.1.4,Win32,59.95203837,6299f149e92ead563fba08ef,62a4432b9e17e8fcd7ee1028,,,,,,,,,,,,,,,,,,,,,,,,,,,,,,,,,,,,,,,,,,,,,,,,,,,,,,,,,,,,,,,,,,,,,,,,,,,,0,0,0,0,1,,,,,,,,,,,,,,,,,,,,,
,,,,,,,,,,,,564e2f979b124900107eaf14,34,Kobieta,2022-06-11_10h17.04.098,task,2021.1.4,Win32,59.95203837,6299f149e92ead563fba08ef,62a4432b9e17e8fcd7ee1028,,,,,,,,,,,,,4,,,,,,,,,,Task,11,(18/3) - 2,4,,,,,,,,,,,,,,,,,,,1,,,,,,,,,,,,,,,,,,,,,,,"[""4""]",1,[1.9540000000000077],0,0,0,10,1,,,,,,,,,,,,,,,,,,,,,,,,,,
,,,,,,,,,,,X V Q F H G B L J M P D K C T S W R N Z,564e2f979b124900107eaf14,34,Kobieta,2022-06-11_10h17.04.098,task,2021.1.4,Win32,59.95203837,6299f149e92ead563fba08ef,62a4432b9e17e8fcd7ee1028,,,,,,,,,,,,,,,,,,,,,,,,,,,,,,,,,,,,,,,,,,,,,,,,,,,,,,,,,,,,,,,,,,,,,,,,,,,,1,0,1,0,1,,,,,,,,,,,,,,,,,,,,,
,,,,,,,,,,,,564e2f979b124900107eaf14,34,Kobieta,2022-06-11_10h17.04.098,task,2021.1.4,Win32,59.95203837,6299f149e92ead563fba08ef,62a4432b9e17e8fcd7ee1028,,,,,,,,,,,,,6,,,,,,,,,,Task,37,(3/3) + 5,6,,,,,,,,,,,,,,,,,,,1,,,,,,,,,,,,,,,,,,,,,,,"[""6""]",1,[1.6510000000000105],0,0,0,36,1,,,,,,,,,,,,,,,,,,,,,,,,,,
,,,,,,,,,,,X V Q F H G B L J M P D K C T S W R N Z,564e2f979b124900107eaf14,34,Kobieta,2022-06-11_10h17.04.098,task,2021.1.4,Win32,59.95203837,6299f149e92ead563fba08ef,62a4432b9e17e8fcd7ee1028,,,,,,,,,,,,,,,,,,,,,,,,,,,,,,,,,,,,,,,,,,,,,,,,,,,,,,,,,,,,,,,,,,,,,,,,,,,,2,0,2,0,1,,,,,,,,,,,,,,,,,,,,,
,,,,,,,,,,,,564e2f979b124900107eaf14,34,Kobieta,2022-06-11_10h17.04.098,task,2021.1.4,Win32,59.95203837,6299f149e92ead563fba08ef,62a4432b9e17e8fcd7ee1028,,,,,,,,,,,,,3,,,,,,,,,,Task,16,(3x8) - 15,9,,,,,,,,,,,,,,,,,,,0,,,,,,,,,,,,,,,,,,,,,,,"[""3""]",0,[1.4359999999999786],0,0,0,15,1,,,,,,,,,,,,,,,,,,,,,,,,,,
,,,,,,,,,,,,564e2f979b124900107eaf14,34,Kobieta,2022-06-11_10h17.04.098,task,2021.1.4,Win32,59.95203837,6299f149e92ead563fba08ef,62a4432b9e17e8fcd7ee1028,,,,,,,,,,,,,7,,,,,,,,,,Task,6,(12/2) + 1,7,,,,,,,,,,,,,,,,,,,1,,,,,,,,,,,,,,,,,,,,,,,"[""7""]",1,[2.7110000000000127],0,1,1,5,1,,,,,,,,,,,,,,,,,,,,,,,,,,
,,,,,,,,,,,X V Q F H G B L J M P D K C T S W R N Z,564e2f979b124900107eaf14,34,Kobieta,2022-06-11_10h17.04.098,task,2021.1.4,Win32,59.95203837,6299f149e92ead563fba08ef,62a4432b9e17e8fcd7ee1028,,,,,,,,,,,,,,,,,,,,,,,,,,,,,,,,,,,,,,,,,,,,,,,,,,,,,,,,,,,,,,,,,,,,,,,,,,,,3,0,3,0,1,,,,,,,,,,,,,,,,,,,,,
,,,,,,,,,,,,564e2f979b124900107eaf14,34,Kobieta,2022-06-11_10h17.04.098,task,2021.1.4,Win32,59.95203837,6299f149e92ead563fba08ef,62a4432b9e17e8fcd7ee1028,,,,,,,,,,,,,8,,,,,,,,,,Task,15,(3x7) - 13,8,,,,,,,,,,,,,,,,,,,1,,,,,,,,,,,,,,,,,,,,,,,"[""8""]",1,[1.5170000000000528],0,0,0,14,1,,,,,,,,,,,,,,,,,,,,,,,,,,
,,,,,,,,,,,X V Q F H G B L J M P D K C T S W R N Z,564e2f979b124900107eaf14,34,Kobieta,2022-06-11_10h17.04.098,task,2021.1.4,Win32,59.95203837,6299f149e92ead563fba08ef,62a4432b9e17e8fcd7ee1028,,,,,,,,,,,,,,,,,,,,,,,,,,,,,,,,,,,,,,,,,,,,,,,,,,,,,,,,,,,,,,,,,,,,,,,,,,,,4,0,4,0,1,,,,,,,,,,,,,,,,,,,,,
,,,,,,,,,,,,564e2f979b124900107eaf14,34,Kobieta,2022-06-11_10h17.04.098,task,2021.1.4,Win32,59.95203837,6299f149e92ead563fba08ef,62a4432b9e17e8fcd7ee1028,,,,,,,,,,,,,8,,,,,,,,,,Task,39,(5x3) - 7,8,,,,,,,,,,,,,,,,,,,1,,,,,,,,,,,,,,,,,,,,,,,"[""8""]",1,[2.1399999999999864],0,0,0,38,1,,,,,,,,,,,,,,,,,,,,,,,,,,
,,,,,,,,,,,X V Q F H G B L J M P D K C T S W R N Z,564e2f979b124900107eaf14,34,Kobieta,2022-06-11_10h17.04.098,task,2021.1.4,Win32,59.95203837,6299f149e92ead563fba08ef,62a4432b9e17e8fcd7ee1028,,,,,,,,,,,,,,,,,,,,,,,,,,,,,,,,,,,,,,,,,,,,,,,,,,,,,,,,,,,,,,,,,,,,,,,,,,,,5,0,5,0,1,,,,,,,,,,,,,,,,,,,,,
,,,,,,,,,,,,564e2f979b124900107eaf14,34,Kobieta,2022-06-11_10h17.04.098,task,2021.1.4,Win32,59.95203837,6299f149e92ead563fba08ef,62a4432b9e17e8fcd7ee1028,,,,,,,,,,,,,,,,,,,,,,,,,,,,,,,,,,,,,,,,,,,,,,,,,,,,,,,,,,,,,,,,,,,,,,,,,,,,,,,,,zcktbm,"[""z"",""c"",""k"",""t"",""b"",""m""]",0,"[1.384999999999991,1.7339999999999804,2.2280000000000086,2.5679999999999836,3.0439999999999827,3.2520000000000095,4.019999999999982]",1,ZCKTBM,5,0,5,0,1,,,,,,,,,,
,,,,,,,,,,,,564e2f979b124900107eaf14,34,Kobieta,2022-06-11_10h17.04.098,task,2021.1.4,Win32,59.95203837,6299f149e92ead563fba08ef,62a4432b9e17e8fcd7ee1028,,,,,,,,,,,,,7,,,,,,,,,,Task,14,(2x2) + 3,7,,,,,,,,,,,,,,,,,,,1,,,,,,,,,,,,,,,,,,,,,,,"[""7""]",1,[1.41700000000003],0,0,0,13,1,,,,,,,,,,,,,,,,,,,,,,,,,,
,,,,,,,,,,,X V Q F H G B L J M P D K C T S W R N Z,564e2f979b124900107eaf14,34,Kobieta,2022-06-11_10h17.04.098,task,2021.1.4,Win32,59.95203837,6299f149e92ead563fba08ef,62a4432b9e17e8fcd7ee1028,,,,,,,,,,,,,,,,,,,,,,,,,,,,,,,,,,,,,,,,,,,,,,,,,,,,,,,,,,,,,,,,,,,,,,,,,,,,0,0,0,0,1,,,,,,,,,,,,,,,,,,,,,
,,,,,,,,,,,,564e2f979b124900107eaf14,34,Kobieta,2022-06-11_10h17.04.098,task,2021.1.4,Win32,59.95203837,6299f149e92ead563fba08ef,62a4432b9e17e8fcd7ee1028,,,,,,,,,,,,,7,,,,,,,,,,Task,38,(4x6) - 17,7,,,,,,,,,,,,,,,,,,,1,,,,,,,,,,,,,,,,,,,,,,,"[""7""]",1,[1.79099999999994],0,0,0,37,1,,,,,,,,,,,,,,,,,,,,,,,,,,
,,,,,,,,,,,X V Q F H G B L J M P D K C T S W R N Z,564e2f979b124900107eaf14,34,Kobieta,2022-06-11_10h17.04.098,task,2021.1.4,Win32,59.95203837,6299f149e92ead563fba08ef,62a4432b9e17e8fcd7ee1028,,,,,,,,,,,,,,,,,,,,,,,,,,,,,,,,,,,,,,,,,,,,,,,,,,,,,,,,,,,,,,,,,,,,,,,,,,,,1,0,1,0,1,,,,,,,,,,,,,,,,,,,,,
,,,,,,,,,,,,564e2f979b124900107eaf14,34,Kobieta,2022-06-11_10h17.04.098,task,2021.1.4,Win32,59.95203837,6299f149e92ead563fba08ef,62a4432b9e17e8fcd7ee1028,,,,,,,,,,,,,7,,,,,,,,,,Task,31,(4/2) + 5,7,,,,,,,,,,,,,,,,,,,1,,,,,,,,,,,,,,,,,,,,,,,"[""7""]",1,[1.6059999999999945],0,0,0,30,1,,,,,,,,,,,,,,,,,,,,,,,,,,
,,,,,,,,,,,X V Q F H G B L J M P D K C T S W R N Z,564e2f979b124900107eaf14,34,Kobieta,2022-06-11_10h17.04.098,task,2021.1.4,Win32,59.95203837,6299f149e92ead563fba08ef,62a4432b9e17e8fcd7ee1028,,,,,,,,,,,,,,,,,,,,,,,,,,,,,,,,,,,,,,,,,,,,,,,,,,,,,,,,,,,,,,,,,,,,,,,,,,,,2,0,2,0,1,,,,,,,,,,,,,,,,,,,,,
,,,,,,,,,,,,564e2f979b124900107eaf14,34,Kobieta,2022-06-11_10h17.04.098,task,2021.1.4,Win32,59.95203837,6299f149e92ead563fba08ef,62a4432b9e17e8fcd7ee1028,,,,,,,,,,,,,1,,,,,,,,,,Task,9,(3x7) - 20,1,,,,,,,,,,,,,,,,,,,1,,,,,,,,,,,,,,,,,,,,,,,"[""1""]",1,[1.3759999999999764],0,0,0,8,1,,,,,,,,,,,,,,,,,,,,,,,,,,
,,,,,,,,,,,X V Q F H G B L J M P D K C T S W R N Z,564e2f979b124900107eaf14,34,Kobieta,2022-06-11_10h17.04.098,task,2021.1.4,Win32,59.95203837,6299f149e92ead563fba08ef,62a4432b9e17e8fcd7ee1028,,,,,,,,,,,,,,,,,,,,,,,,,,,,,,,,,,,,,,,,,,,,,,,,,,,,,,,,,,,,,,,,,,,,,,,,,,,,3,0,3,0,1,,,,,,,,,,,,,,,,,,,,,
,,,,,,,,,,,,564e2f979b124900107eaf14,34,Kobieta,2022-06-11_10h17.04.098,task,2021.1.4,Win32,59.95203837,6299f149e92ead563fba08ef,62a4432b9e17e8fcd7ee1028,,,,,,,,,,,,,4,,,,,,,,,,Task,21,(10/2) - 1,4,,,,,,,,,,,,,,,,,,,1,,,,,,,,,,,,,,,,,,,,,,,"[""4""]",1,[1.3550000000000182],0,0,0,20,1,,,,,,,,,,,,,,,,,,,,,,,,,,
,,,,,,,,,,,X V Q F H G B L J M P D K C T S W R N Z,564e2f979b124900107eaf14,34,Kobieta,2022-06-11_10h17.04.098,task,2021.1.4,Win32,59.95203837,6299f149e92ead563fba08ef,62a4432b9e17e8fcd7ee1028,,,,,,,,,,,,,,,,,,,,,,,,,,,,,,,,,,,,,,,,,,,,,,,,,,,,,,,,,,,,,,,,,,,,,,,,,,,,4,0,4,0,1,,,,,,,,,,,,,,,,,,,,,
,,,,,,,,,,,,564e2f979b124900107eaf14,34,Kobieta,2022-06-11_10h17.04.098,task,2021.1.4,Win32,59.95203837,6299f149e92ead563fba08ef,62a4432b9e17e8fcd7ee1028,,,,,,,,,,,,,6,,,,,,,,,,Task,13,(3x4) - 6,6,,,,,,,,,,,,,,,,,,,1,,,,,,,,,,,,,,,,,,,,,,,"[""6""]",1,[3.119000000000028],0,0,0,12,1,,,,,,,,,,,,,,,,,,,,,,,,,,
,,,,,,,,,,,X V Q F H G B L J M P D K C T S W R N Z,564e2f979b124900107eaf14,34,Kobieta,2022-06-11_10h17.04.098,task,2021.1.4,Win32,59.95203837,6299f149e92ead563fba08ef,62a4432b9e17e8fcd7ee1028,,,,,,,,,,,,,,,,,,,,,,,,,,,,,,,,,,,,,,,,,,,,,,,,,,,,,,,,,,,,,,,,,,,,,,,,,,,,5,0,5,0,1,,,,,,,,,,,,,,,,,,,,,
,,,,,,,,,,,,564e2f979b124900107eaf14,34,Kobieta,2022-06-11_10h17.04.098,task,2021.1.4,Win32,59.95203837,6299f149e92ead563fba08ef,62a4432b9e17e8fcd7ee1028,,,,,,,,,,,,,3,,,,,,,,,,Task,16,(3x8) - 15,9,,,,,,,,,,,,,,,,,,,0,,,,,,,,,,,,,,,,,,,,,,,"[""3""]",0,[1.3039999999999736],0,0,0,15,1,,,,,,,,,,,,,,,,,,,,,,,,,,
,,,,,,,,,,,,564e2f979b124900107eaf14,34,Kobieta,2022-06-11_10h17.04.098,task,2021.1.4,Win32,59.95203837,6299f149e92ead563fba08ef,62a4432b9e17e8fcd7ee1028,,,,,,,,,,,,,6,,,,,,,,,,Task,13,(3x4) - 6,6,,,,,,,,,,,,,,,,,,,1,,,,,,,,,,,,,,,,,,,,,,,"[""6""]",1,[1.933999999999969],0,1,1,12,1,,,,,,,,,,,,,,,,,,,,,,,,,,
,,,,,,,,,,,X V Q F H G B L J M P D K C T S W R N Z,564e2f979b124900107eaf14,34,Kobieta,2022-06-11_10h17.04.098,task,2021.1.4,Win32,59.95203837,6299f149e92ead563fba08ef,62a4432b9e17e8fcd7ee1028,,,,,,,,,,,,,,,,,,,,,,,,,,,,,,,,,,,,,,,,,,,,,,,,,,,,,,,,,,,,,,,,,,,,,,,,,,,,6,0,6,0,1,,,,,,,,,,,,,,,,,,,,,
,,,,,,,,,,,,564e2f979b124900107eaf14,34,Kobieta,2022-06-11_10h17.04.098,task,2021.1.4,Win32,59.95203837,6299f149e92ead563fba08ef,62a4432b9e17e8fcd7ee1028,,,,,,,,,,,,,,,,,,,,,,,,,,,,,,,,,,,,,,,,,,,,,,,,,,,,,,,,,,,,,,,,,,,,,,,,,,,,,,,,,bpgzcvx,"[""b"",""p"",""g"",""z"",""c"",""v"",""x""]",0,"[1.97300000000007,2.229000000000042,2.50100000000009,3.0930000000000746,4.991000000000099,5.391000000000076,5.791000000000054,8.261000000000081]",0,BPGXZVH,6,0,6,0,1,,,,,,,,,,
,,,,,,,,,,,,564e2f979b124900107eaf14,34,Kobieta,2022-06-11_10h17.04.098,task,2021.1.4,Win32,59.95203837,6299f149e92ead563fba08ef,62a4432b9e17e8fcd7ee1028,,,,,,,,,,,,,5,,,,,,,,,,Task,22,(3x1) + 2,5,,,,,,,,,,,,,,,,,,,1,,,,,,,,,,,,,,,,,,,,,,,"[""5""]",1,[2.0850000000000364],0,0,0,21,1,,,,,,,,,,,,,,,,,,,,,,,,,,
,,,,,,,,,,,X V Q F H G B L J M P D K C T S W R N Z,564e2f979b124900107eaf14,34,Kobieta,2022-06-11_10h17.04.098,task,2021.1.4,Win32,59.95203837,6299f149e92ead563fba08ef,62a4432b9e17e8fcd7ee1028,,,,,,,,,,,,,,,,,,,,,,,,,,,,,,,,,,,,,,,,,,,,,,,,,,,,,,,,,,,,,,,,,,,,,,,,,,,,0,0,0,0,1,,,,,,,,,,,,,,,,,,,,,
,,,,,,,,,,,,564e2f979b124900107eaf14,34,Kobieta,2022-06-11_10h17.04.098,task,2021.1.4,Win32,59.95203837,6299f149e92ead563fba08ef,62a4432b9e17e8fcd7ee1028,,,,,,,,,,,,,5,,,,,,,,,,Task,22,(3x1) + 2,5,,,,,,,,,,,,,,,,,,,1,,,,,,,,,,,,,,,,,,,,,,,"[""5""]",1,[1.6210000000000946],0,0,0,21,1,,,,,,,,,,,,,,,,,,,,,,,,,,
,,,,,,,,,,,X V Q F H G B L J M P D K C T S W R N Z,564e2f979b124900107eaf14,34,Kobieta,2022-06-11_10h17.04.098,task,2021.1.4,Win32,59.95203837,6299f149e92ead563fba08ef,62a4432b9e17e8fcd7ee1028,,,,,,,,,,,,,,,,,,,,,,,,,,,,,,,,,,,,,,,,,,,,,,,,,,,,,,,,,,,,,,,,,,,,,,,,,,,,1,0,1,0,1,,,,,,,,,,,,,,,,,,,,,
,,,,,,,,,,,,564e2f979b124900107eaf14,34,Kobieta,2022-06-11_10h17.04.098,task,2021.1.4,Win32,59.95203837,6299f149e92ead563fba08ef,62a4432b9e17e8fcd7ee1028,,,,,,,,,,,,,5,,,,,,,,,,Task,36,(8/4) + 3,5,,,,,,,,,,,,,,,,,,,1,,,,,,,,,,,,,,,,,,,,,,,"[""5""]",1,[2.0670000000000073],0,0,0,35,1,,,,,,,,,,,,,,,,,,,,,,,,,,
,,,,,,,,,,,X V Q F H G B L J M P D K C T S W R N Z,564e2f979b124900107eaf14,34,Kobieta,2022-06-11_10h17.04.098,task,2021.1.4,Win32,59.95203837,6299f149e92ead563fba08ef,62a4432b9e17e8fcd7ee1028,,,,,,,,,,,,,,,,,,,,,,,,,,,,,,,,,,,,,,,,,,,,,,,,,,,,,,,,,,,,,,,,,,,,,,,,,,,,2,0,2,0,1,,,,,,,,,,,,,,,,,,,,,
,,,,,,,,,,,,564e2f979b124900107eaf14,34,Kobieta,2022-06-11_10h17.04.098,task,2021.1.4,Win32,59.95203837,6299f149e92ead563fba08ef,62a4432b9e17e8fcd7ee1028,,,,,,,,,,,,,0,,,,,,,,,,Task,33,(1/1) - 1,0,,,,,,,,,,,,,,,,,,,1,,,,,,,,,,,,,,,,,,,,,,,"[""0""]",1,[1.6169999999999618],0,0,0,32,1,,,,,,,,,,,,,,,,,,,,,,,,,,
,,,,,,,,,,,X V Q F H G B L J M P D K C T S W R N Z,564e2f979b124900107eaf14,34,Kobieta,2022-06-11_10h17.04.098,task,2021.1.4,Win32,59.95203837,6299f149e92ead563fba08ef,62a4432b9e17e8fcd7ee1028,,,,,,,,,,,,,,,,,,,,,,,,,,,,,,,,,,,,,,,,,,,,,,,,,,,,,,,,,,,,,,,,,,,,,,,,,,,,3,0,3,0,1,,,,,,,,,,,,,,,,,,,,,
,,,,,,,,,,,,564e2f979b124900107eaf14,34,Kobieta,2022-06-11_10h17.04.098,task,2021.1.4,Win32,59.95203837,6299f149e92ead563fba08ef,62a4432b9e17e8fcd7ee1028,,,,,,,,,,,,,8,,,,,,,,,,Task,15,(3x7) - 13,8,,,,,,,,,,,,,,,,,,,1,,,,,,,,,,,,,,,,,,,,,,,"[""8""]",1,[1.93100000000004],0,0,0,14,1,,,,,,,,,,,,,,,,,,,,,,,,,,
,,,,,,,,,,,X V Q F H G B L J M P D K C T S W R N Z,564e2f979b124900107eaf14,34,Kobieta,2022-06-11_10h17.04.098,task,2021.1.4,Win32,59.95203837,6299f149e92ead563fba08ef,62a4432b9e17e8fcd7ee1028,,,,,,,,,,,,,,,,,,,,,,,,,,,,,,,,,,,,,,,,,,,,,,,,,,,,,,,,,,,,,,,,,,,,,,,,,,,,4,0,4,0,1,,,,,,,,,,,,,,,,,,,,,
,,,,,,,,,,,,564e2f979b124900107eaf14,34,Kobieta,2022-06-11_10h17.04.098,task,2021.1.4,Win32,59.95203837,6299f149e92ead563fba08ef,62a4432b9e17e8fcd7ee1028,,,,,,,,,,,,,4,,,,,,,,,,Task,28,(2x5) - 6,4,,,,,,,,,,,,,,,,,,,1,,,,,,,,,,,,,,,,,,,,,,,"[""4""]",1,[1.336999999999989],0,0,0,27,1,,,,,,,,,,,,,,,,,,,,,,,,,,
,,,,,,,,,,,X V Q F H G B L J M P D K C T S W R N Z,564e2f979b124900107eaf14,34,Kobieta,2022-06-11_10h17.04.098,task,2021.1.4,Win32,59.95203837,6299f149e92ead563fba08ef,62a4432b9e17e8fcd7ee1028,,,,,,,,,,,,,,,,,,,,,,,,,,,,,,,,,,,,,,,,,,,,,,,,,,,,,,,,,,,,,,,,,,,,,,,,,,,,5,0,5,0,1,,,,,,,,,,,,,,,,,,,,,
,,,,,,,,,,,,564e2f979b124900107eaf14,34,Kobieta,2022-06-11_10h17.04.098,task,2021.1.4,Win32,59.95203837,6299f149e92ead563fba08ef,62a4432b9e17e8fcd7ee1028,,,,,,,,,,,,,1,,,,,,,,,,Task,18,(16/4) - 3,1,,,,,,,,,,,,,,,,,,,1,,,,,,,,,,,,,,,,,,,,,,,"[""1""]",1,[1.5659999999999172],0,0,0,17,1,,,,,,,,,,,,,,,,,,,,,,,,,,
,,,,,,,,,,,X V Q F H G B L J M P D K C T S W R N Z,564e2f979b124900107eaf14,34,Kobieta,2022-06-11_10h17.04.098,task,2021.1.4,Win32,59.95203837,6299f149e92ead563fba08ef,62a4432b9e17e8fcd7ee1028,,,,,,,,,,,,,,,,,,,,,,,,,,,,,,,,,,,,,,,,,,,,,,,,,,,,,,,,,,,,,,,,,,,,,,,,,,,,6,0,6,0,1,,,,,,,,,,,,,,,,,,,,,
,,,,,,,,,,,,564e2f979b124900107eaf14,34,Kobieta,2022-06-11_10h17.04.098,task,2021.1.4,Win32,59.95203837,6299f149e92ead563fba08ef,62a4432b9e17e8fcd7ee1028,,,,,,,,,,,,,,,,,,,,,,,,,,,,,,,,,,,,,,,,,,,,,,,,,,,,,,,,,,,,,,,,,,,,,,,,,,,,,,,,,cjhvrvp,"[""c"",""j"",""h"",""v"",""r"",""v"",""p""]",0,"[1.518000000000029,1.7720000000000482,2.0120000000000573,2.2690000000000055,2.475999999999999,2.7069999999999936,3.0020000000000664,3.659999999999968]",1,CJHVRVP,7,0,7,0,1,,,,,,,,,,
,,,,,,,,,,,,564e2f979b124900107eaf14,34,Kobieta,2022-06-11_10h17.04.098,task,2021.1.4,Win32,59.95203837,6299f149e92ead563fba08ef,62a4432b9e17e8fcd7ee1028,,,,,,,,,,,,,7,,,,,,,,,,Task,6,(12/2) + 1,7,,,,,,,,,,,,,,,,,,,1,,,,,,,,,,,,,,,,,,,,,,,"[""7""]",1,[1.8669999999999618],0,0,0,5,1,,,,,,,,,,,,,,,,,,,,,,,,,,
,,,,,,,,,,,X V Q F H G B L J M P D K C T S W R N Z,564e2f979b124900107eaf14,34,Kobieta,2022-06-11_10h17.04.098,task,2021.1.4,Win32,59.95203837,6299f149e92ead563fba08ef,62a4432b9e17e8fcd7ee1028,,,,,,,,,,,,,,,,,,,,,,,,,,,,,,,,,,,,,,,,,,,,,,,,,,,,,,,,,,,,,,,,,,,,,,,,,,,,0,0,0,0,1,,,,,,,,,,,,,,,,,,,,,
,,,,,,,,,,,,564e2f979b124900107eaf14,34,Kobieta,2022-06-11_10h17.04.098,task,2021.1.4,Win32,59.95203837,6299f149e92ead563fba08ef,62a4432b9e17e8fcd7ee1028,,,,,,,,,,,,,6,,,,,,,,,,Task,37,(3/3) + 5,6,,,,,,,,,,,,,,,,,,,1,,,,,,,,,,,,,,,,,,,,,,,"[""6""]",1,[1.5539999999999736],0,0,0,36,1,,,,,,,,,,,,,,,,,,,,,,,,,,
,,,,,,,,,,,X V Q F H G B L J M P D K C T S W R N Z,564e2f979b124900107eaf14,34,Kobieta,2022-06-11_10h17.04.098,task,2021.1.4,Win32,59.95203837,6299f149e92ead563fba08ef,62a4432b9e17e8fcd7ee1028,,,,,,,,,,,,,,,,,,,,,,,,,,,,,,,,,,,,,,,,,,,,,,,,,,,,,,,,,,,,,,,,,,,,,,,,,,,,1,0,1,0,1,,,,,,,,,,,,,,,,,,,,,
,,,,,,,,,,,,564e2f979b124900107eaf14,34,Kobieta,2022-06-11_10h17.04.098,task,2021.1.4,Win32,59.95203837,6299f149e92ead563fba08ef,62a4432b9e17e8fcd7ee1028,,,,,,,,,,,,,4,,,,,,,,,,Task,21,(10/2) - 1,4,,,,,,,,,,,,,,,,,,,1,,,,,,,,,,,,,,,,,,,,,,,"[""4""]",1,[1.2210000000000036],0,0,0,20,1,,,,,,,,,,,,,,,,,,,,,,,,,,
,,,,,,,,,,,X V Q F H G B L J M P D K C T S W R N Z,564e2f979b124900107eaf14,34,Kobieta,2022-06-11_10h17.04.098,task,2021.1.4,Win32,59.95203837,6299f149e92ead563fba08ef,62a4432b9e17e8fcd7ee1028,,,,,,,,,,,,,,,,,,,,,,,,,,,,,,,,,,,,,,,,,,,,,,,,,,,,,,,,,,,,,,,,,,,,,,,,,,,,2,0,2,0,1,,,,,,,,,,,,,,,,,,,,,
,,,,,,,,,,,,564e2f979b124900107eaf14,34,Kobieta,2022-06-11_10h17.04.098,task,2021.1.4,Win32,59.95203837,6299f149e92ead563fba08ef,62a4432b9e17e8fcd7ee1028,,,,,,,,,,,,,3,,,,,,,,,,Task,27,(3/3) + 2,3,,,,,,,,,,,,,,,,,,,1,,,,,,,,,,,,,,,,,,,,,,,"[""3""]",1,[1.6680000000000064],0,0,0,26,1,,,,,,,,,,,,,,,,,,,,,,,,,,
,,,,,,,,,,,X V Q F H G B L J M P D K C T S W R N Z,564e2f979b124900107eaf14,34,Kobieta,2022-06-11_10h17.04.098,task,2021.1.4,Win32,59.95203837,6299f149e92ead563fba08ef,62a4432b9e17e8fcd7ee1028,,,,,,,,,,,,,,,,,,,,,,,,,,,,,,,,,,,,,,,,,,,,,,,,,,,,,,,,,,,,,,,,,,,,,,,,,,,,3,0,3,0,1,,,,,,,,,,,,,,,,,,,,,
,,,,,,,,,,,,564e2f979b124900107eaf14,34,Kobieta,2022-06-11_10h17.04.098,task,2021.1.4,Win32,59.95203837,6299f149e92ead563fba08ef,62a4432b9e17e8fcd7ee1028,,,,,,,,,,,,,7,,,,,,,,,,Task,31,(4/2) + 5,7,,,,,,,,,,,,,,,,,,,1,,,,,,,,,,,,,,,,,,,,,,,"[""7""]",1,[2.116000000000099],0,0,0,30,1,,,,,,,,,,,,,,,,,,,,,,,,,,
,,,,,,,,,,,X V Q F H G B L J M P D K C T S W R N Z,564e2f979b124900107eaf14,34,Kobieta,2022-06-11_10h17.04.098,task,2021.1.4,Win32,59.95203837,6299f149e92ead563fba08ef,62a4432b9e17e8fcd7ee1028,,,,,,,,,,,,,,,,,,,,,,,,,,,,,,,,,,,,,,,,,,,,,,,,,,,,,,,,,,,,,,,,,,,,,,,,,,,,4,0,4,0,1,,,,,,,,,,,,,,,,,,,,,
,,,,,,,,,,,,564e2f979b124900107eaf14,34,Kobieta,2022-06-11_10h17.04.098,task,2021.1.4,Win32,59.95203837,6299f149e92ead563fba08ef,62a4432b9e17e8fcd7ee1028,,,,,,,,,,,,,7,,,,,,,,,,Task,31,(4/2) + 5,7,,,,,,,,,,,,,,,,,,,1,,,,,,,,,,,,,,,,,,,,,,,"[""7""]",1,[1.31899999999996],0,0,0,30,1,,,,,,,,,,,,,,,,,,,,,,,,,,
,,,,,,,,,,,X V Q F H G B L J M P D K C T S W R N Z,564e2f979b124900107eaf14,34,Kobieta,2022-06-11_10h17.04.098,task,2021.1.4,Win32,59.95203837,6299f149e92ead563fba08ef,62a4432b9e17e8fcd7ee1028,,,,,,,,,,,,,,,,,,,,,,,,,,,,,,,,,,,,,,,,,,,,,,,,,,,,,,,,,,,,,,,,,,,,,,,,,,,,5,0,5,0,1,,,,,,,,,,,,,,,,,,,,,
,,,,,,,,,,,,564e2f979b124900107eaf14,34,Kobieta,2022-06-11_10h17.04.098,task,2021.1.4,Win32,59.95203837,6299f149e92ead563fba08ef,62a4432b9e17e8fcd7ee1028,,,,,,,,,,,,,2,,,,,,,,,,Task,10,(2x5) - 8,2,,,,,,,,,,,,,,,,,,,1,,,,,,,,,,,,,,,,,,,,,,,"[""2""]",1,[1.9840000000000373],0,0,0,9,1,,,,,,,,,,,,,,,,,,,,,,,,,,
,,,,,,,,,,,X V Q F H G B L J M P D K C T S W R N Z,564e2f979b124900107eaf14,34,Kobieta,2022-06-11_10h17.04.098,task,2021.1.4,Win32,59.95203837,6299f149e92ead563fba08ef,62a4432b9e17e8fcd7ee1028,,,,,,,,,,,,,,,,,,,,,,,,,,,,,,,,,,,,,,,,,,,,,,,,,,,,,,,,,,,,,,,,,,,,,,,,,,,,6,0,6,0,1,,,,,,,,,,,,,,,,,,,,,
,,,,,,,,,,,,564e2f979b124900107eaf14,34,Kobieta,2022-06-11_10h17.04.098,task,2021.1.4,Win32,59.95203837,6299f149e92ead563fba08ef,62a4432b9e17e8fcd7ee1028,,,,,,,,,,,,,9,,,,,,,,,,Task,24,(2x2) + 5,9,,,,,,,,,,,,,,,,,,,1,,,,,,,,,,,,,,,,,,,,,,,"[""9""]",1,[2.2340000000000373],0,0,0,23,1,,,,,,,,,,,,,,,,,,,,,,,,,,
,,,,,,,,,,,X V Q F H G B L J M P D K C T S W R N Z,564e2f979b124900107eaf14,34,Kobieta,2022-06-11_10h17.04.098,task,2021.1.4,Win32,59.95203837,6299f149e92ead563fba08ef,62a4432b9e17e8fcd7ee1028,,,,,,,,,,,,,,,,,,,,,,,,,,,,,,,,,,,,,,,,,,,,,,,,,,,,,,,,,,,,,,,,,,,,,,,,,,,,7,0,7,0,1,,,,,,,,,,,,,,,,,,,,,
,,,,,,,,,,,,564e2f979b124900107eaf14,34,Kobieta,2022-06-11_10h17.04.098,task,2021.1.4,Win32,59.95203837,6299f149e92ead563fba08ef,62a4432b9e17e8fcd7ee1028,,,,,,,,,,,,,,,,,,,,,,,,,,,,,,,,,,,,,,,,,,,,,,,,,,,,,,,,,,,,,,,,,,,,,,,,,,,,,,,,,wrvgfrv,"[""w"",""r"",""v"",""g"",""f"",""r"",""v""]",0,"[4.076999999999998,4.369000000000028,7.725999999999999,8.302000000000021,12.758000000000038,12.95799999999997,14.07000000000005,14.437999999999988]",0,GWFRCHWG,8,0,8,0,1,,,,,,,,,,
,,,,,,,,,,,,564e2f979b124900107eaf14,34,Kobieta,2022-06-11_10h17.04.098,task,2021.1.4,Win32,59.95203837,6299f149e92ead563fba08ef,62a4432b9e17e8fcd7ee1028,,,,,,,,,,,,,5,,,,,,,,,,Task,29,(3x8) - 19 ,5,,,,,,,,,,,,,,,,,,,1,,,,,,,,,,,,,,,,,,,,,,,"[""5""]",1,[4.373000000000047],0,0,0,28,1,,,,,,,,,,,,,,,,,,,,,,,,,,
,,,,,,,,,,,X V Q F H G B L J M P D K C T S W R N Z,564e2f979b124900107eaf14,34,Kobieta,2022-06-11_10h17.04.098,task,2021.1.4,Win32,59.95203837,6299f149e92ead563fba08ef,62a4432b9e17e8fcd7ee1028,,,,,,,,,,,,,,,,,,,,,,,,,,,,,,,,,,,,,,,,,,,,,,,,,,,,,,,,,,,,,,,,,,,,,,,,,,,,0,0,0,0,1,,,,,,,,,,,,,,,,,,,,,
,,,,,,,,,,,,564e2f979b124900107eaf14,34,Kobieta,2022-06-11_10h17.04.098,task,2021.1.4,Win32,59.95203837,6299f149e92ead563fba08ef,62a4432b9e17e8fcd7ee1028,,,,,,,,,,,,,1,,,,,,,,,,Task,18,(16/4) - 3,1,,,,,,,,,,,,,,,,,,,1,,,,,,,,,,,,,,,,,,,,,,,"[""1""]",1,[1.8670000000000755],0,0,0,17,1,,,,,,,,,,,,,,,,,,,,,,,,,,
,,,,,,,,,,,X V Q F H G B L J M P D K C T S W R N Z,564e2f979b124900107eaf14,34,Kobieta,2022-06-11_10h17.04.098,task,2021.1.4,Win32,59.95203837,6299f149e92ead563fba08ef,62a4432b9e17e8fcd7ee1028,,,,,,,,,,,,,,,,,,,,,,,,,,,,,,,,,,,,,,,,,,,,,,,,,,,,,,,,,,,,,,,,,,,,,,,,,,,,1,0,1,0,1,,,,,,,,,,,,,,,,,,,,,
,,,,,,,,,,,,564e2f979b124900107eaf14,34,Kobieta,2022-06-11_10h17.04.098,task,2021.1.4,Win32,59.95203837,6299f149e92ead563fba08ef,62a4432b9e17e8fcd7ee1028,,,,,,,,,,,,,2,,,,,,,,,,Task,19,(6/2) - 1,2,,,,,,,,,,,,,,,,,,,1,,,,,,,,,,,,,,,,,,,,,,,"[""2""]",1,[1.8500000000000227],0,0,0,18,1,,,,,,,,,,,,,,,,,,,,,,,,,,
,,,,,,,,,,,X V Q F H G B L J M P D K C T S W R N Z,564e2f979b124900107eaf14,34,Kobieta,2022-06-11_10h17.04.098,task,2021.1.4,Win32,59.95203837,6299f149e92ead563fba08ef,62a4432b9e17e8fcd7ee1028,,,,,,,,,,,,,,,,,,,,,,,,,,,,,,,,,,,,,,,,,,,,,,,,,,,,,,,,,,,,,,,,,,,,,,,,,,,,2,0,2,0,1,,,,,,,,,,,,,,,,,,,,,
,,,,,,,,,,,,564e2f979b124900107eaf14,34,Kobieta,2022-06-11_10h17.04.098,task,2021.1.4,Win32,59.95203837,6299f149e92ead563fba08ef,62a4432b9e17e8fcd7ee1028,,,,,,,,,,,,,2,,,,,,,,,,Task,19,(6/2) - 1,2,,,,,,,,,,,,,,,,,,,1,,,,,,,,,,,,,,,,,,,,,,,"[""2""]",1,[1.3450000000000273],0,0,0,18,1,,,,,,,,,,,,,,,,,,,,,,,,,,
,,,,,,,,,,,X V Q F H G B L J M P D K C T S W R N Z,564e2f979b124900107eaf14,34,Kobieta,2022-06-11_10h17.04.098,task,2021.1.4,Win32,59.95203837,6299f149e92ead563fba08ef,62a4432b9e17e8fcd7ee1028,,,,,,,,,,,,,,,,,,,,,,,,,,,,,,,,,,,,,,,,,,,,,,,,,,,,,,,,,,,,,,,,,,,,,,,,,,,,3,0,3,0,1,,,,,,,,,,,,,,,,,,,,,
,,,,,,,,,,,,564e2f979b124900107eaf14,34,Kobieta,2022-06-11_10h17.04.098,task,2021.1.4,Win32,59.95203837,6299f149e92ead563fba08ef,62a4432b9e17e8fcd7ee1028,,,,,,,,,,,,,3,,,,,,,,,,Task,35,(1x2) + 1,3,,,,,,,,,,,,,,,,,,,1,,,,,,,,,,,,,,,,,,,,,,,"[""3""]",1,[1.9519999999999982],0,0,0,34,1,,,,,,,,,,,,,,,,,,,,,,,,,,
,,,,,,,,,,,X V Q F H G B L J M P D K C T S W R N Z,564e2f979b124900107eaf14,34,Kobieta,2022-06-11_10h17.04.098,task,2021.1.4,Win32,59.95203837,6299f149e92ead563fba08ef,62a4432b9e17e8fcd7ee1028,,,,,,,,,,,,,,,,,,,,,,,,,,,,,,,,,,,,,,,,,,,,,,,,,,,,,,,,,,,,,,,,,,,,,,,,,,,,4,0,4,0,1,,,,,,,,,,,,,,,,,,,,,
,,,,,,,,,,,,564e2f979b124900107eaf14,34,Kobieta,2022-06-11_10h17.04.098,task,2021.1.4,Win32,59.95203837,6299f149e92ead563fba08ef,62a4432b9e17e8fcd7ee1028,,,,,,,,,,,,,6,,,,,,,,,,Task,37,(3/3) + 5,6,,,,,,,,,,,,,,,,,,,1,,,,,,,,,,,,,,,,,,,,,,,"[""6""]",1,[1.6190000000000282],0,0,0,36,1,,,,,,,,,,,,,,,,,,,,,,,,,,
,,,,,,,,,,,X V Q F H G B L J M P D K C T S W R N Z,564e2f979b124900107eaf14,34,Kobieta,2022-06-11_10h17.04.098,task,2021.1.4,Win32,59.95203837,6299f149e92ead563fba08ef,62a4432b9e17e8fcd7ee1028,,,,,,,,,,,,,,,,,,,,,,,,,,,,,,,,,,,,,,,,,,,,,,,,,,,,,,,,,,,,,,,,,,,,,,,,,,,,5,0,5,0,1,,,,,,,,,,,,,,,,,,,,,
,,,,,,,,,,,,564e2f979b124900107eaf14,34,Kobieta,2022-06-11_10h17.04.098,task,2021.1.4,Win32,59.95203837,6299f149e92ead563fba08ef,62a4432b9e17e8fcd7ee1028,,,,,,,,,,,,,6,,,,,,,,,,Task,13,(3x4) - 6,6,,,,,,,,,,,,,,,,,,,1,,,,,,,,,,,,,,,,,,,,,,,"[""6""]",1,[1.7819999999999254],0,0,0,12,1,,,,,,,,,,,,,,,,,,,,,,,,,,
,,,,,,,,,,,X V Q F H G B L J M P D K C T S W R N Z,564e2f979b124900107eaf14,34,Kobieta,2022-06-11_10h17.04.098,task,2021.1.4,Win32,59.95203837,6299f149e92ead563fba08ef,62a4432b9e17e8fcd7ee1028,,,,,,,,,,,,,,,,,,,,,,,,,,,,,,,,,,,,,,,,,,,,,,,,,,,,,,,,,,,,,,,,,,,,,,,,,,,,6,0,6,0,1,,,,,,,,,,,,,,,,,,,,,
,,,,,,,,,,,,564e2f979b124900107eaf14,34,Kobieta,2022-06-11_10h17.04.098,task,2021.1.4,Win32,59.95203837,6299f149e92ead563fba08ef,62a4432b9e17e8fcd7ee1028,,,,,,,,,,,,,1,,,,,,,,,,Task,34,(9/3) - 2,1,,,,,,,,,,,,,,,,,,,1,,,,,,,,,,,,,,,,,,,,,,,"[""1""]",1,[1.2609999999999673],0,0,0,33,1,,,,,,,,,,,,,,,,,,,,,,,,,,
,,,,,,,,,,,X V Q F H G B L J M P D K C T S W R N Z,564e2f979b124900107eaf14,34,Kobieta,2022-06-11_10h17.04.098,task,2021.1.4,Win32,59.95203837,6299f149e92ead563fba08ef,62a4432b9e17e8fcd7ee1028,,,,,,,,,,,,,,,,,,,,,,,,,,,,,,,,,,,,,,,,,,,,,,,,,,,,,,,,,,,,,,,,,,,,,,,,,,,,7,0,7,0,1,,,,,,,,,,,,,,,,,,,,,
,,,,,,,,,,,,564e2f979b124900107eaf14,34,Kobieta,2022-06-11_10h17.04.098,task,2021.1.4,Win32,59.95203837,6299f149e92ead563fba08ef,62a4432b9e17e8fcd7ee1028,,,,,,,,,,,,,,,,,,,,,,,,,,,,,,,,,,,,,,,,,,,,,,,,,,,,,,,,,,,,,,,,,,,,,,,,,,,,,,,,,skpwztn,"[""s"",""k"",""p"",""w"",""z"",""t"",""n""]",0,"[1.836999999999989,2.0539999999999736,2.326000000000022,2.4349999999999454,2.717999999999961,3.092999999999961,8.885999999999967,9.293999999999983]",0,SKPWZTKD,9,0,9,0,1,,,,,,,,,,
,,,,,,,,,,,,564e2f979b124900107eaf14,34,Kobieta,2022-06-11_10h17.04.098,task,2021.1.4,Win32,59.95203837,6299f149e92ead563fba08ef,62a4432b9e17e8fcd7ee1028,,,,,,,,,,,,,,,,,,,,,,,,,,,,,,,,,,,,,,,,,,,,,,,,,,,,,,,,,,,,,,,,,,,,,,,,,,,,,,,,,,,,,,,,,,,,"[""comma""]",0,[0.7069999999999936],0,0,0,0,1,,
,,,,,,,,,,,,564e2f979b124900107eaf14,34,Kobieta,2022-06-11_10h17.04.098,task,2021.1.4,Win32,59.95203837,6299f149e92ead563fba08ef,62a4432b9e17e8fcd7ee1028,,,,,,,,,,,,,,,,,,,,,,,,,,,,,,,,,,,,,,,,,,,,,,,,,,,,,,,,,,,,,,,,,,,,,,,,,,,,,,,,,,,,,,,,,,,,"[""comma""]",0,[0.5519999999999072],1,0,1,0,1,,
,,,,,,,,,,,,564e2f979b124900107eaf14,34,Kobieta,2022-06-11_10h17.04.098,task,2021.1.4,Win32,59.95203837,6299f149e92ead563fba08ef,62a4432b9e17e8fcd7ee1028,,,,,,,,,,,,,,,,,,,,,,,,,,,,,,,,,,,,,,,,,,,,,,,,,,,,,,,,,,,,,,,,,,,,,,,,,,,,,,,,,,,,,,,,,,,,"[""period""]",0,[0.45100000000002183],2,0,2,0,1,,
,,,,,,,,,,,,564e2f979b124900107eaf14,34,Kobieta,2022-06-11_10h17.04.098,task,2021.1.4,Win32,59.95203837,6299f149e92ead563fba08ef,62a4432b9e17e8fcd7ee1028,,,,,,,,,,,,,,,,,,,,,,,,,,,,,,,,,,,,,,,,,,,,,,,,,,,,,,,,,,,,,,,,,,,,,,,,,,,,,,,,,,,,,,,,,,,,"[""period""]",0,[0.6849999999999454],3,0,3,0,1,,
,,,,,,,,,,,,564e2f979b124900107eaf14,34,Kobieta,2022-06-11_10h17.04.098,task,2021.1.4,Win32,59.95203837,6299f149e92ead563fba08ef,62a4432b9e17e8fcd7ee1028,,,,,,,,,,,,,,,,,,,,,,,,,,,,,,,,,,,,,,,,,,,,,,,,,,,,,,,,,,,,,,,,,,,,,,,,,,,,,,,,,,,,,,,,,,,,"[""period""]",0,[0.5670000000000073],4,0,4,0,1,,
,,,,,,,,,,,,564e2f979b124900107eaf14,34,Kobieta,2022-06-11_10h17.04.098,task,2021.1.4,Win32,59.95203837,6299f149e92ead563fba08ef,62a4432b9e17e8fcd7ee1028,,,,,,,,,,,,,,,,,,,,,,,,,,,,,,,,,,,,,,,,,,,,,,,,,,,,,,,,,,,,,,,,,,,,,,,,,,,,,,,,,,,,,,,,,,,,"[""comma""]",0,[0.28499999999996817],5,0,5,0,1,,
,,,,,,,,,,,,564e2f979b124900107eaf14,34,Kobieta,2022-06-11_10h17.04.098,task,2021.1.4,Win32,59.95203837,6299f149e92ead563fba08ef,62a4432b9e17e8fcd7ee1028,,,,,,,,,,,,,,,,,,,,,,,,,,,,,,,,,,,,,,,,,,,,,,,,,,,,,,,,,,,,,,,,,,,,,,,,,,,,,,,,,,,,,,,,,,,,"[""comma""]",0,[0.2949999999999591],6,0,6,0,1,,
,,,,,,,,,,,,564e2f979b124900107eaf14,34,Kobieta,2022-06-11_10h17.04.098,task,2021.1.4,Win32,59.95203837,6299f149e92ead563fba08ef,62a4432b9e17e8fcd7ee1028,,,,,,,,,,,,,,,,,,,,,,,,,,,,,,,,,,,,,,,,,,,,,,,,,,,,,,,,,,,,,,,,,,,,,,,,,,,,,,,,,,,,,,,,,,,,"[""comma""]",0,[0.26900000000000546],7,0,7,0,1,,
,,,,,,,,,,,,564e2f979b124900107eaf14,34,Kobieta,2022-06-11_10h17.04.098,task,2021.1.4,Win32,59.95203837,6299f149e92ead563fba08ef,62a4432b9e17e8fcd7ee1028,,,,,,,,,,,,,,,,,,,,,,,,,,,,,,,,,,,,,,,,,,,,,,,,,,,,,,,,,,,,,,,,,,,,,,,,,,,,,,,,,,,,,,,,,,,,"[""period""]",0,[0.3250000000000455],8,0,8,0,1,,
,,,,,,,,,,,,564e2f979b124900107eaf14,34,Kobieta,2022-06-11_10h17.04.098,task,2021.1.4,Win32,59.95203837,6299f149e92ead563fba08ef,62a4432b9e17e8fcd7ee1028,,,,,,,,,,,,,,,,,,,,,,,,,,,,,,,,,,,,,,,,,,,,,,,,,,,,,,,,,,,,,,,,,,,,,,,,,,,,,,,,,,,,,,,,,,,,"[""comma""]",0,[0.30100000000004457],9,0,9,0,1,,
,,,,,,,,,,,,564e2f979b124900107eaf14,34,Kobieta,2022-06-11_10h17.04.098,task,2021.1.4,Win32,59.95203837,6299f149e92ead563fba08ef,62a4432b9e17e8fcd7ee1028,,,,,,,,,,,,,,,,,,,,,,,,,,,,,,,,,,,,,,,,,,,,,,,,,,,,,,,,,,,,,,,,,,,,,,,,,,,,,,,,,,,,,,,,,,,,"[""period""]",0,[0.10199999999997544],10,0,10,0,1,,
,,,,,,,,,,,,564e2f979b124900107eaf14,34,Kobieta,2022-06-11_10h17.04.098,task,2021.1.4,Win32,59.95203837,6299f149e92ead563fba08ef,62a4432b9e17e8fcd7ee1028,,,,,,,,,,,,,,,,,,,,,,,,,,,,,,,,,,,,,,,,,,,,,,,,,,,,,,,,,,,,,,,,,,,,,,,,,,,,,,,,,,,,,,,,,,,,"[""comma""]",0,[0.30900000000008276],11,0,11,0,1,,
,,,,,,,,,,,,564e2f979b124900107eaf14,34,Kobieta,2022-06-11_10h17.04.098,task,2021.1.4,Win32,59.95203837,6299f149e92ead563fba08ef,62a4432b9e17e8fcd7ee1028,,,,,,,,,,,,,,,,,,,,,,,,,,,,,,,,,,,,,,,,,,,,,,,,,,,,,,,,,,,,,,,,,,,,,,,,,,,,,,,,,,,,,,,,,,,,"[""comma""]",0,[0.3350000000000364],12,0,12,0,1,,
,,,,,,,,,,,,564e2f979b124900107eaf14,34,Kobieta,2022-06-11_10h17.04.098,task,2021.1.4,Win32,59.95203837,6299f149e92ead563fba08ef,62a4432b9e17e8fcd7ee1028,,,,,,,,,,,,,,,,,,,,,,,,,,,,,,,,,,,,,,,,,,,,,,,,,,,,,,,,,,,,,,,,,,,,,,,,,,,,,,,,,,,,,,,,,,,,"[""comma""]",0,[0.38900000000001],13,0,13,0,1,,
,,,,,,,,,,,,564e2f979b124900107eaf14,34,Kobieta,2022-06-11_10h17.04.098,task,2021.1.4,Win32,59.95203837,6299f149e92ead563fba08ef,62a4432b9e17e8fcd7ee1028,,,,,,,,,,,,,,,,,,,,,,,,,,,,,,,,,,,,,,,,,,,,,,,,,,,,,,,,,,,,,,,,,,,,,,,,,,,,,,,,,,,,,,,,,,,,"[""period""]",0,[0.5860000000000127],14,0,14,0,1,,
,,,,,,,,,,,,564e2f979b124900107eaf14,34,Kobieta,2022-06-11_10h17.04.098,task,2021.1.4,Win32,59.95203837,6299f149e92ead563fba08ef,62a4432b9e17e8fcd7ee1028,,,,,,,,,,,,,,,,,,,,,,,,,,,,,,,,,,,,,,,,,,,,,,,,,,,,,,,,,,,,,,,,,,,,,,,,,,,,,,,,,,,,,,,,,,,,"[""comma""]",0,[0.5080000000000382],15,0,15,0,1,,
,,,,,,,,,,,,564e2f979b124900107eaf14,34,Kobieta,2022-06-11_10h17.04.098,task,2021.1.4,Win32,59.95203837,6299f149e92ead563fba08ef,62a4432b9e17e8fcd7ee1028,,,,,,,,,,,,,,,,,,,,,,,,,,,,,,,,,,,,,,,,,,,,,,,,,,,,,,,,,,,,,,,,,,,,,,,,,,,,,,,,,,,,,,,,,,,,"[""period""]",0,[0.33400000000006],16,0,16,0,1,,
,,,,,,,,,,,,564e2f979b124900107eaf14,34,Kobieta,2022-06-11_10h17.04.098,task,2021.1.4,Win32,59.95203837,6299f149e92ead563fba08ef,62a4432b9e17e8fcd7ee1028,,,,,,,,,,,,,,,,,,,,,,,,,,,,,,,,,,,,,,,,,,,,,,,,,,,,,,,,,,,,,,,,,,,,,,,,,,,,,,,,,,,,,,,,,,,,"[""period""]",0,[0.28500000000008185],17,0,17,0,1,,
,,,,,,,,,,,,564e2f979b124900107eaf14,34,Kobieta,2022-06-11_10h17.04.098,task,2021.1.4,Win32,59.95203837,6299f149e92ead563fba08ef,62a4432b9e17e8fcd7ee1028,,,,,,,,,,,,,,,,,,,,,,,,,,,,,,,,,,,,,,,,,,,,,,,,,,,,,,,,,,,,,,,,,,,,,,,,,,,,,,,,,,,,,,,,,,,,"[""comma""]",0,[0.2679999999999154],18,0,18,0,1,,
,,,,,,,,,,,,564e2f979b124900107eaf14,34,Kobieta,2022-06-11_10h17.04.098,task,2021.1.4,Win32,59.95203837,6299f149e92ead563fba08ef,62a4432b9e17e8fcd7ee1028,,,,,,,,,,,,,,,,,,,,,,,,,,,,,,,,,,,,,,,,,,,,,,,,,,,,,,,,,,,,,,,,,,,,,,,,,,,,,,,,,,,,,,,,,,,,"[""period""]",0,[0.40300000000002],19,0,19,0,1,,
,,,,,,,,,,,,564e2f979b124900107eaf14,34,Kobieta,2022-06-11_10h17.04.098,task,2021.1.4,Win32,59.95203837,6299f149e92ead563fba08ef,62a4432b9e17e8fcd7ee1028,,,,,,,,,,,,,,,,,,,,,,,,,,,,,,,,,,,,,,,,,,,,,,,,,,,,,,,,,,,,,,,,,,,,,,,,,,,,,,,,,,,,,,,,,,,,"[""period""]",0,[0.6340000000000146],20,0,20,0,1,,
,,,,,,,,,,,,564e2f979b124900107eaf14,34,Kobieta,2022-06-11_10h17.04.098,task,2021.1.4,Win32,59.95203837,6299f149e92ead563fba08ef,62a4432b9e17e8fcd7ee1028,,,,,,,,,,,,,,,,,,,,,,,,,,,,,,,,,,,,,,,,,,,,,,,,,,,,,,,,,,,,,,,,,,,,,,,,,,,,,,,,,,,,,,,,,,,,"[""period""]",0,[0.5680000000000973],21,0,21,0,1,,
,,,,,,,,,,,,564e2f979b124900107eaf14,34,Kobieta,2022-06-11_10h17.04.098,task,2021.1.4,Win32,59.95203837,6299f149e92ead563fba08ef,62a4432b9e17e8fcd7ee1028,,,,,,,,,,,,,,,,,,,,,,,,,,,,,,,,,,,,,,,,,,,,,,,,,,,,,,,,,,,,,,,,,,,,,,,,,,,,,,,,,,,,,,,,,,,,"[""period""]",0,[0.6110000000001037],22,0,22,0,1,,
,,,,,,,,,,,,564e2f979b124900107eaf14,34,Kobieta,2022-06-11_10h17.04.098,task,2021.1.4,Win32,59.95203837,6299f149e92ead563fba08ef,62a4432b9e17e8fcd7ee1028,,,,,,,,,,,,,,,,,,,,,,,,,,,,,,,,,,,,,,,,,,,,,,,,,,,,,,,,,,,,,,,,,,,,,,,,,,,,,,,,,,,,,,,,,,,,"[""period"",""period""]",0,"[0.35599999999999454,1.8920000000000528]",23,0,23,0,1,,
,,,,,,,,,,,,564e2f979b124900107eaf14,34,Kobieta,2022-06-11_10h17.04.098,task,2021.1.4,Win32,59.95203837,6299f149e92ead563fba08ef,62a4432b9e17e8fcd7ee1028,,,,,,,,,,,,,,,,,,,,,,,,,,,,,,,,,,,,,,,,,,,,,,,,,,,,,,,,,,,,,,,,,,,,,,,,,,,,,,,,,,,,,,,,,,,,,0,,24,0,24,0,1,,
,,,,,,,,,,,,564e2f979b124900107eaf14,34,Kobieta,2022-06-11_10h17.04.098,task,2021.1.4,Win32,59.95203837,6299f149e92ead563fba08ef,62a4432b9e17e8fcd7ee1028,,,,,,,,,,,,,,,,,,,,,,,,,,,,,,,,,,,,,,,,,,,,,,,,,,,,,,,,,,,,,,,,,,,,,,,,,,,,,,,,,,,,,,,,,,,,"[""period""]",0,[0.24299999999993815],25,0,25,0,1,,
,,,,,,,,,,,,564e2f979b124900107eaf14,34,Kobieta,2022-06-11_10h17.04.098,task,2021.1.4,Win32,59.95203837,6299f149e92ead563fba08ef,62a4432b9e17e8fcd7ee1028,,,,,,,,,,,,,,,,,,,,,,,,,,,,,,,,,,,,,,,,,,,,,,,,,,,,,,,,,,,,,,,,,,,,,,,,,,,,,,,,,,,,,,,,,,,,"[""period""]",0,[0.25900000000001455],26,0,26,0,1,,
,,,,,,,,,,,,564e2f979b124900107eaf14,34,Kobieta,2022-06-11_10h17.04.098,task,2021.1.4,Win32,59.95203837,6299f149e92ead563fba08ef,62a4432b9e17e8fcd7ee1028,,,,,,,,,,,,,,,,,,,,,,,,,,,,,,,,,,,,,,,,,,,,,,,,,,,,,,,,,,,,,,,,,,,,,,,,,,,,,,,,,,,,,,,,,,,,"[""comma""]",0,[0.18599999999992178],27,0,27,0,1,,
,,,,,,,,,,,,564e2f979b124900107eaf14,34,Kobieta,2022-06-11_10h17.04.098,task,2021.1.4,Win32,59.95203837,6299f149e92ead563fba08ef,62a4432b9e17e8fcd7ee1028,,,,,,,,,,,,,,,,,,,,,,,,,,,,,,,,,,,,,,,,,,,,,,,,,,,,,,,,,,,,,,,,,,,,,,,,,,,,,,,,,,,,,,,,,,,,"[""period"",""period""]",0,"[0.3390000000000555,1.8700000000000045]",28,0,28,0,1,,
,,,,,,,,,,,,564e2f979b124900107eaf14,34,Kobieta,2022-06-11_10h17.04.098,task,2021.1.4,Win32,59.95203837,6299f149e92ead563fba08ef,62a4432b9e17e8fcd7ee1028,,,,,,,,,,,,,,,,,,,,,,,,,,,,,,,,,,,,,,,,,,,,,,,,,,,,,,,,,,,,,,,,,,,,,,,,,,,,,,,,,,,,,,,,,,,,"[""period""]",0,[0.5699999999999363],29,0,29,0,1,,
,,,,,,,,,,,,564e2f979b124900107eaf14,34,Kobieta,2022-06-11_10h17.04.098,task,2021.1.4,Win32,59.95203837,6299f149e92ead563fba08ef,62a4432b9e17e8fcd7ee1028,,,,,,,,,,,,,,,,,,,,,,,,,,,,,,,,,,,,,,,,,,,,,,,,,,,,,,,,,,,,,,,,,,,,,,,,,,,,,,,,,,,,,,,,,,,,"[""period""]",0,[0.38599999999996726],30,0,30,0,1,,
,,,,,,,,,,,,564e2f979b124900107eaf14,34,Kobieta,2022-06-11_10h17.04.098,task,2021.1.4,Win32,59.95203837,6299f149e92ead563fba08ef,62a4432b9e17e8fcd7ee1028,,,,,,,,,,,,,,,,,,,,,,,,,,,,,,,,,,,,,,,,,,,,,,,,,,,,,,,,,,,,,,,,,,,,,,,,,,,,,,,,,,,,,,,,,,,,"[""comma""]",0,[0.29099999999994],31,0,31,0,1,,
,,,,,,,,,,,,564e2f979b124900107eaf14,34,Kobieta,2022-06-11_10h17.04.098,task,2021.1.4,Win32,59.95203837,6299f149e92ead563fba08ef,62a4432b9e17e8fcd7ee1028,,,,,,,,,,,,,,,,,,,,,,,,,,,,,,,,,,,,,,,,,,,,,,,,,,,,,,,,,,,,,,,,,,,,,,,,,,,,,,,,,,,,,,,,,,,,"[""period""]",0,[0.2179999999999609],32,0,32,0,1,,
,,,,,,,,,,,,564e2f979b124900107eaf14,34,Kobieta,2022-06-11_10h17.04.098,task,2021.1.4,Win32,59.95203837,6299f149e92ead563fba08ef,62a4432b9e17e8fcd7ee1028,,,,,,,,,,,,,,,,,,,,,,,,,,,,,,,,,,,,,,,,,,,,,,,,,,,,,,,,,,,,,,,,,,,,,,,,,,,,,,,,,,,,,,,,,,,,"[""period""]",0,[0.26699999999993906],33,0,33,0,1,,
,,,,,,,,,,,,564e2f979b124900107eaf14,34,Kobieta,2022-06-11_10h17.04.098,task,2021.1.4,Win32,59.95203837,6299f149e92ead563fba08ef,62a4432b9e17e8fcd7ee1028,,,,,,,,,,,,,,,,,,,,,,,,,,,,,,,,,,,,,,,,,,,,,,,,,,,,,,,,,,,,,,,,,,,,,,,,,,,,,,,,,,,,,,,,,,,,"[""period""]",0,[0.16999999999995907],34,0,34,0,1,,
,,,,,,,,,,,,564e2f979b124900107eaf14,34,Kobieta,2022-06-11_10h17.04.098,task,2021.1.4,Win32,59.95203837,6299f149e92ead563fba08ef,62a4432b9e17e8fcd7ee1028,,,,,,,,,,,,,,,,,,,,,,,,,,,,,,,,,,,,,,,,,,,,,,,,,,,,,,,,,,,,,,,,,,,,,,,,,,,,,,,,,,,,,,,,,,,,"[""period""]",0,[0.3000000000000682],35,0,35,0,1,,
,,,,,,,,,,,,564e2f979b124900107eaf14,34,Kobieta,2022-06-11_10h17.04.098,task,2021.1.4,Win32,59.95203837,6299f149e92ead563fba08ef,62a4432b9e17e8fcd7ee1028,,,,,,,,,,,,,,,,,,,,,,,,,,,,,,,,,,,,,,,,,,,,,,,,,,,,,,,,,,,,,,,,,,,,,,,,,,,,,,,,,,,,,,,,,,,,"[""period""]",0,[0.32000000000005],36,0,36,0,1,,
,,,,,,,,,,,,564e2f979b124900107eaf14,34,Kobieta,2022-06-11_10h17.04.098,task,2021.1.4,Win32,59.95203837,6299f149e92ead563fba08ef,62a4432b9e17e8fcd7ee1028,,,,,,,,,,,,,,,,,,,,,,,,,,,,,,,,,,,,,,,,,,,,,,,,,,,,,,,,,,,,,,,,,,,,,,,,,,,,,,,,,,,,,,,,,,,,"[""comma""]",0,[0.24099999999998545],37,0,37,0,1,,
,,,,,,,,,,,,564e2f979b124900107eaf14,34,Kobieta,2022-06-11_10h17.04.098,task,2021.1.4,Win32,59.95203837,6299f149e92ead563fba08ef,62a4432b9e17e8fcd7ee1028,,,,,,,,,,,,,,,,,,,,,,,,,,,,,,,,,,,,,,,,,,,,,,,,,,,,,,,,,,,,,,,,,,,,,,,,,,,,,,,,,,,,,,,,,,,,"[""comma""]",0,[0.37599999999997635],38,0,38,0,1,,
,,,,,,,,,,,,564e2f979b124900107eaf14,34,Kobieta,2022-06-11_10h17.04.098,task,2021.1.4,Win32,59.95203837,6299f149e92ead563fba08ef,62a4432b9e17e8fcd7ee1028,,,,,,,,,,,,,,,,,,,,,,,,,,,,,,,,,,,,,,,,,,,,,,,,,,,,,,,,,,,,,,,,,,,,,,,,,,,,,,,,,,,,,,,,,,,,"[""period""]",0,[0.32000000000005],39,0,39,0,1,,
,,,,,,,,,,,,564e2f979b124900107eaf14,34,Kobieta,2022-06-11_10h17.04.098,task,2021.1.4,Win32,59.95203837,6299f149e92ead563fba08ef,62a4432b9e17e8fcd7ee1028,,,,,,,,,,,,,,,,,,,,,,,,,,,,,,,,,,,,,,,,,,,,,,,,,,,,,,,,,,,,,,,,,,,,,,,,,,,,,,,,,,,,,,,,,,,,"[""comma""]",0,[0.23500000000001364],40,0,40,0,1,,
,,,,,,,,,,,,564e2f979b124900107eaf14,34,Kobieta,2022-06-11_10h17.04.098,task,2021.1.4,Win32,59.95203837,6299f149e92ead563fba08ef,62a4432b9e17e8fcd7ee1028,,,,,,,,,,,,,,,,,,,,,,,,,,,,,,,,,,,,,,,,,,,,,,,,,,,,,,,,,,,,,,,,,,,,,,,,,,,,,,,,,,,,,,,,,,,,"[""comma""]",0,[0.39800000000002456],41,0,41,0,1,,
,,,,,,,,,,,,564e2f979b124900107eaf14,34,Kobieta,2022-06-11_10h17.04.098,task,2021.1.4,Win32,59.95203837,6299f149e92ead563fba08ef,62a4432b9e17e8fcd7ee1028,,,,,,,,,,,,,,,,,,,,,,,,,,,,,,,,,,,,,,,,,,,,,,,,,,,,,,,,,,,,,,,,,,,,,,,,,,,,,,,,,,,,,,,,,,,,"[""comma""]",0,[0.4519999999999982],42,0,42,0,1,,
,,,,,,,,,,,,564e2f979b124900107eaf14,34,Kobieta,2022-06-11_10h17.04.098,task,2021.1.4,Win32,59.95203837,6299f149e92ead563fba08ef,62a4432b9e17e8fcd7ee1028,,,,,,,,,,,,,,,,,,,,,,,,,,,,,,,,,,,,,,,,,,,,,,,,,,,,,,,,,,,,,,,,,,,,,,,,,,,,,,,,,,,,,,,,,,,,"[""comma"",""period""]",0,"[0.20900000000006003,1.82000000000005]",43,0,43,0,1,,
,,,,,,,,,,,,564e2f979b124900107eaf14,34,Kobieta,2022-06-11_10h17.04.098,task,2021.1.4,Win32,59.95203837,6299f149e92ead563fba08ef,62a4432b9e17e8fcd7ee1028,,,,,,,,,,,,,,,,,,,,,,,,,,,,,,,,,,,,,,,,,,,,,,,,,,,,,,,,,,,,,,,,,,,,,,,,,,,,,,,,,,,,,,,,,,,,"[""comma""]",0,[1.8239999999999554],44,0,44,0,1,,
,,,,,,,,,,,,564e2f979b124900107eaf14,34,Kobieta,2022-06-11_10h17.04.098,task,2021.1.4,Win32,59.95203837,6299f149e92ead563fba08ef,62a4432b9e17e8fcd7ee1028,,,,,,,,,,,,,,,,,,,,,,,,,,,,,,,,,,,,,,,,,,,,,,,,,,,,,,,,,,,,,,,,,,,,,,,,,,,,,,,,,,,,,,,,,,,,,0,,45,0,45,0,1,,
,,,,,,,,,,,,564e2f979b124900107eaf14,34,Kobieta,2022-06-11_10h17.04.098,task,2021.1.4,Win32,59.95203837,6299f149e92ead563fba08ef,62a4432b9e17e8fcd7ee1028,,,,,,,,,,,,,,,,,,,,,,,,,,,,,,,,,,,,,,,,,,,,,,,,,,,,,,,,,,,,,,,,,,,,,,,,,,,,,,,,,,,,,,,,,,,,"[""period"",""comma""]",0,"[0.3509999999999991,1.9519999999999982]",46,0,46,0,1,,
,,,,,,,,,,,,564e2f979b124900107eaf14,34,Kobieta,2022-06-11_10h17.04.098,task,2021.1.4,Win32,59.95203837,6299f149e92ead563fba08ef,62a4432b9e17e8fcd7ee1028,,,,,,,,,,,,,,,,,,,,,,,,,,,,,,,,,,,,,,,,,,,,,,,,,,,,,,,,,,,,,,,,,,,,,,,,,,,,,,,,,,,,,,,,,,,,,0,,47,0,47,0,1,,
,,,,,,,,,,,,564e2f979b124900107eaf14,34,Kobieta,2022-06-11_10h17.04.098,task,2021.1.4,Win32,59.95203837,6299f149e92ead563fba08ef,62a4432b9e17e8fcd7ee1028,,,,,,,,,,,,,,,,,,,,,,,,,,,,,,,,,,,,,,,,,,,,,,,,,,,,,,,,,,,,,,,,,,,,,,,,,,,,,,,,,,,,,,,,,,,,"[""period""]",0,[0.3109999999999218],48,0,48,0,1,,
,,,,,,,,,,,,564e2f979b124900107eaf14,34,Kobieta,2022-06-11_10h17.04.098,task,2021.1.4,Win32,59.95203837,6299f149e92ead563fba08ef,62a4432b9e17e8fcd7ee1028,,,,,,,,,,,,,,,,,,,,,,,,,,,,,,,,,,,,,,,,,,,,,,,,,,,,,,,,,,,,,,,,,,,,,,,,,,,,,,,,,,,,,,,,,,,,"[""comma""]",0,[0.24099999999998545],49,0,49,0,1,,
,,,,,,,,,,,,564e2f979b124900107eaf14,34,Kobieta,2022-06-11_10h17.04.098,task,2021.1.4,Win32,59.95203837,6299f149e92ead563fba08ef,62a4432b9e17e8fcd7ee1028,,,,,,,,,,,,,,,,,,,,,,,,,,,,,,,,,,,,,,,,,,,,,,,,,,,,,,,,,,,,,,,,,,,,,,,,,,,,,,,,,,,,,,,,,,,,"[""comma""]",0,[0.2860000000000582],50,0,50,0,1,,
,,,,,,,,,,,,564e2f979b124900107eaf14,34,Kobieta,2022-06-11_10h17.04.098,task,2021.1.4,Win32,59.95203837,6299f149e92ead563fba08ef,62a4432b9e17e8fcd7ee1028,,,,,,,,,,,,,,,,,,,,,,,,,,,,,,,,,,,,,,,,,,,,,,,,,,,,,,,,,,,,,,,,,,,,,,,,,,,,,,,,,,,,,,,,,,,,"[""period"",""period""]",0,"[0.2839999999999918,0.3429999999999609]",51,0,51,0,1,,
,,,,,,,,,,,,564e2f979b124900107eaf14,34,Kobieta,2022-06-11_10h17.04.098,task,2021.1.4,Win32,59.95203837,6299f149e92ead563fba08ef,62a4432b9e17e8fcd7ee1028,,,,,,,,,,,,,,,,,,,,,,,,,,,,,,,,,,,,,,,,,,,,,,,,,,,,,,,,,,,,,,,,,,,,,,,,,,,,,,,,,,,,,,,,,,,,"[""period"",""comma""]",0,"[0.30999999999994543,1.9169999999999163]",52,0,52,0,1,,
,,,,,,,,,,,,564e2f979b124900107eaf14,34,Kobieta,2022-06-11_10h17.04.098,task,2021.1.4,Win32,59.95203837,6299f149e92ead563fba08ef,62a4432b9e17e8fcd7ee1028,,,,,,,,,,,,,,,,,,,,,,,,,,,,,,,,,,,,,,,,,,,,,,,,,,,,,,,,,,,,,,,,,,,,,,,,,,,,,,,,,,,,,,,,,,,,"[""period""]",0,[1.2060000000000173],53,0,53,0,1,,
,,,,,,,,,,,,564e2f979b124900107eaf14,34,Kobieta,2022-06-11_10h17.04.098,task,2021.1.4,Win32,59.95203837,6299f149e92ead563fba08ef,62a4432b9e17e8fcd7ee1028,,,,,,,,,,,,,,,,,,,,,,,,,,,,,,,,,,,,,,,,,,,,,,,,,,,,,,,,,,,,,,,,,,,,,,,,,,,,,,,,,,,,,,,,,,,,"[""period""]",0,[0.35199999999997544],54,0,54,0,1,,
,,,,,,,,,,,,564e2f979b124900107eaf14,34,Kobieta,2022-06-11_10h17.04.098,task,2021.1.4,Win32,59.95203837,6299f149e92ead563fba08ef,62a4432b9e17e8fcd7ee1028,,,,,,,,,,,,,,,,,,,,,,,,,,,,,,,,,,,,,,,,,,,,,,,,,,,,,,,,,,,,,,,,,,,,,,,,,,,,,,,,,,,,,,,,,,,,"[""period""]",0,[0.37399999999990996],55,0,55,0,1,,
,,,,,,,,,,,,564e2f979b124900107eaf14,34,Kobieta,2022-06-11_10h17.04.098,task,2021.1.4,Win32,59.95203837,6299f149e92ead563fba08ef,62a4432b9e17e8fcd7ee1028,,,,,,,,,,,,,,,,,,,,,,,,,,,,,,,,,,,,,,,,,,,,,,,,,,,,,,,,,,,,,,,,,,,,,,,,,,,,,,,,,,,,,,,,,,,,"[""comma""]",0,[0.5399999999999636],56,0,56,0,1,,
,,,,,,,,,,,,564e2f979b124900107eaf14,34,Kobieta,2022-06-11_10h17.04.098,task,2021.1.4,Win32,59.95203837,6299f149e92ead563fba08ef,62a4432b9e17e8fcd7ee1028,,,,,,,,,,,,,,,,,,,,,,,,,,,,,,,,,,,,,,,,,,,,,,,,,,,,,,,,,,,,,,,,,,,,,,,,,,,,,,,,,,,,,,,,,,,,"[""comma""]",0,[0.35799999999994725],57,0,57,0,1,,
,,,,,,,,,,,,564e2f979b124900107eaf14,34,Kobieta,2022-06-11_10h17.04.098,task,2021.1.4,Win32,59.95203837,6299f149e92ead563fba08ef,62a4432b9e17e8fcd7ee1028,,,,,,,,,,,,,,,,,,,,,,,,,,,,,,,,,,,,,,,,,,,,,,,,,,,,,,,,,,,,,,,,,,,,,,,,,,,,,,,,,,,,,,,,,,,,"[""period""]",0,[0.4079999999999018],58,0,58,0,1,,
,,,,,,,,,,,,564e2f979b124900107eaf14,34,Kobieta,2022-06-11_10h17.04.098,task,2021.1.4,Win32,59.95203837,6299f149e92ead563fba08ef,62a4432b9e17e8fcd7ee1028,,,,,,,,,,,,,,,,,,,,,,,,,,,,,,,,,,,,,,,,,,,,,,,,,,,,,,,,,,,,,,,,,,,,,,,,,,,,,,,,,,,,,,,,,,,,"[""comma""]",0,[0.29300000000000637],59,0,59,0,1,,
,,,,,,,,,,,,564e2f979b124900107eaf14,34,Kobieta,2022-06-11_10h17.04.098,task,2021.1.4,Win32,59.95203837,6299f149e92ead563fba08ef,62a4432b9e17e8fcd7ee1028,,,,,,,,,,,,,,,,,,,,,,,,,,,,,,,,,,,,,,,,,,,,,,,,,,,,,,,,,,,,,,,,,,,,,,,,,,,,,,,,,,,,,,,,,,,,"[""period""]",0,[0.30999999999994543],60,0,60,0,1,,
,,,,,,,,,,,,564e2f979b124900107eaf14,34,Kobieta,2022-06-11_10h17.04.098,task,2021.1.4,Win32,59.95203837,6299f149e92ead563fba08ef,62a4432b9e17e8fcd7ee1028,,,,,,,,,,,,,,,,,,,,,,,,,,,,,,,,,,,,,,,,,,,,,,,,,,,,,,,,,,,,,,,,,,,,,,,,,,,,,,,,,,,,,,,,,,,,"[""period""]",0,[0.3849999999999909],61,0,61,0,1,,
