key_resp_15.keys,key_resp_15.rt,key_resp_16.keys,key_resp_16.rt,key_resp_4.keys,key_resp_4.rt,next_letter.thisRepN,next_letter.thisTrialN,next_letter.thisN,next_letter.thisIndex,next_letter.ran,letter,participant,Wiek*,Płeć,date,expName,psychopyVersion,OS,frameRate,study_id,session,simple_recall,key_resp_5.keys,key_resp_5.rt,simple_recall_corr,simple_recall_corrkeys,next_level.thisRepN,next_level.thisTrialN,next_level.thisN,next_level.thisIndex,next_level.ran,key_resp_2.keys,key_resp_2.rt,digit_answer,key_resp.keys,key_resp.corr,key_resp.rt,RT_list,next_equation.thisRepN,next_equation.thisTrialN,next_equation.thisN,next_equation.thisIndex,next_equation.ran,Task,Trial,Problem,Operation_answer,processing_score,sumRT,meanRT,sumdiff,sd,RT,key_resp_3.keys,key_resp_3.rt,repeat_practice.thisRepN,repeat_practice.thisTrialN,repeat_practice.thisN,repeat_practice.thisIndex,repeat_practice.ran,key_resp_6.keys,key_resp_6.rt,key_resp_11.keys,key_resp_11.corr,key_resp_11.rt,operation_correct,repeat_if_wrong_prac.thisRepN,repeat_if_wrong_prac.thisTrialN,repeat_if_wrong_prac.thisN,repeat_if_wrong_prac.thisIndex,repeat_if_wrong_prac.ran,span_size_prac.thisRepN,span_size_prac.thisTrialN,span_size_prac.thisN,span_size_prac.thisIndex,span_size_prac.ran,complex_recall_practice,key_resp_9.keys,key_resp_9.corr,key_resp_9.rt,complex_prac_corr,span_recall_prac.thisRepN,span_recall_prac.thisTrialN,span_recall_prac.thisN,span_recall_prac.thisIndex,span_recall_prac.ran,key_resp_10.keys,key_resp_10.rt,key_resp_7.keys,key_resp_7.corr,key_resp_7.rt,repeat_if_wrong.thisRepN,repeat_if_wrong.thisTrialN,repeat_if_wrong.thisN,repeat_if_wrong.thisIndex,repeat_if_wrong.ran,span_size.thisRepN,span_size.thisTrialN,span_size.thisN,span_size.thisIndex,span_size.ran,complex_recall,key_resp_8.keys,key_resp_8.corr,key_resp_8.rt,complex_recall_corr,complex_recall_corrkeys,span_recall.thisRepN,span_recall.thisTrialN,span_recall.thisN,span_recall.thisIndex,span_recall.ran,key_resp_13.keys,key_resp_13.corr,key_resp_13.rt,random_loop.thisRepN,random_loop.thisTrialN,random_loop.thisN,random_loop.thisIndex,random_loop.ran,key_resp_12.keys,key_resp_12.rt
space,5.1062,space,16.034,space,7.9583,0,0,0,0,1,X V Q F H G B L J M P D K C T S W R N Z,5a958d78f05361000171c54c,30,Mężczyzna,2022-06-11_09h06.26.507,task,2021.1.4,Win32,60.04924038,6299f149e92ead563fba08ef,62a43e61f8ca17fcfab2d5a3,,,,,,,,,,,,,,,,,,,,,,,,,,,,,,,,,,,,,,,,,,,,,,,,,,,,,,,,,,,,,,,,,,,,,,,,,,,,,,,,,,,,,,,,,,,,,,,,,,,,,
,,,,,,1,0,1,0,1,X V Q F H G B L J M P D K C T S W R N Z,5a958d78f05361000171c54c,30,Mężczyzna,2022-06-11_09h06.26.507,task,2021.1.4,Win32,60.04924038,6299f149e92ead563fba08ef,62a43e61f8ca17fcfab2d5a3,,,,,,,,,,,,,,,,,,,,,,,,,,,,,,,,,,,,,,,,,,,,,,,,,,,,,,,,,,,,,,,,,,,,,,,,,,,,,,,,,,,,,,,,,,,,,,,,,,,,,
,,,,,,,,,,,,5a958d78f05361000171c54c,30,Mężczyzna,2022-06-11_09h06.26.507,task,2021.1.4,Win32,60.04924038,6299f149e92ead563fba08ef,62a43e61f8ca17fcfab2d5a3,zm,"[""z"",""m""]","[2.33439999999991,2.4345,4.229600000000097]",1,ZM,0,0,0,0,1,,,,,,,,,,,,,,,,,,,,,,,,,,,,,,,,,,,,,,,,,,,,,,,,,,,,,,,,,,,,,,,,,,,,,,,,,,,,,,,,,,,,,,,,,,,
,,,,,,0,0,0,0,1,X V Q F H G B L J M P D K C T S W R N Z,5a958d78f05361000171c54c,30,Mężczyzna,2022-06-11_09h06.26.507,task,2021.1.4,Win32,60.04924038,6299f149e92ead563fba08ef,62a43e61f8ca17fcfab2d5a3,,,,,,,,,,,,,,,,,,,,,,,,,,,,,,,,,,,,,,,,,,,,,,,,,,,,,,,,,,,,,,,,,,,,,,,,,,,,,,,,,,,,,,,,,,,,,,,,,,,,,
,,,,,,1,0,1,0,1,X V Q F H G B L J M P D K C T S W R N Z,5a958d78f05361000171c54c,30,Mężczyzna,2022-06-11_09h06.26.507,task,2021.1.4,Win32,60.04924038,6299f149e92ead563fba08ef,62a43e61f8ca17fcfab2d5a3,,,,,,,,,,,,,,,,,,,,,,,,,,,,,,,,,,,,,,,,,,,,,,,,,,,,,,,,,,,,,,,,,,,,,,,,,,,,,,,,,,,,,,,,,,,,,,,,,,,,,
,,,,,,,,,,,,5a958d78f05361000171c54c,30,Mężczyzna,2022-06-11_09h06.26.507,task,2021.1.4,Win32,60.04924038,6299f149e92ead563fba08ef,62a43e61f8ca17fcfab2d5a3,wn,"[""w"",""n""]","[0.6249000000001388,0.7308000000000447,1.2311000000000973]",1,WN,1,0,1,0,1,,,,,,,,,,,,,,,,,,,,,,,,,,,,,,,,,,,,,,,,,,,,,,,,,,,,,,,,,,,,,,,,,,,,,,,,,,,,,,,,,,,,,,,,,,,
,,,,,,0,0,0,0,1,X V Q F H G B L J M P D K C T S W R N Z,5a958d78f05361000171c54c,30,Mężczyzna,2022-06-11_09h06.26.507,task,2021.1.4,Win32,60.04924038,6299f149e92ead563fba08ef,62a43e61f8ca17fcfab2d5a3,,,,,,,,,,,,,,,,,,,,,,,,,,,,,,,,,,,,,,,,,,,,,,,,,,,,,,,,,,,,,,,,,,,,,,,,,,,,,,,,,,,,,,,,,,,,,,,,,,,,,
,,,,,,1,0,1,0,1,X V Q F H G B L J M P D K C T S W R N Z,5a958d78f05361000171c54c,30,Mężczyzna,2022-06-11_09h06.26.507,task,2021.1.4,Win32,60.04924038,6299f149e92ead563fba08ef,62a43e61f8ca17fcfab2d5a3,,,,,,,,,,,,,,,,,,,,,,,,,,,,,,,,,,,,,,,,,,,,,,,,,,,,,,,,,,,,,,,,,,,,,,,,,,,,,,,,,,,,,,,,,,,,,,,,,,,,,
,,,,,,2,0,2,0,1,X V Q F H G B L J M P D K C T S W R N Z,5a958d78f05361000171c54c,30,Mężczyzna,2022-06-11_09h06.26.507,task,2021.1.4,Win32,60.04924038,6299f149e92ead563fba08ef,62a43e61f8ca17fcfab2d5a3,,,,,,,,,,,,,,,,,,,,,,,,,,,,,,,,,,,,,,,,,,,,,,,,,,,,,,,,,,,,,,,,,,,,,,,,,,,,,,,,,,,,,,,,,,,,,,,,,,,,,
,,,,,,,,,,,,5a958d78f05361000171c54c,30,Mężczyzna,2022-06-11_09h06.26.507,task,2021.1.4,Win32,60.04924038,6299f149e92ead563fba08ef,62a43e61f8ca17fcfab2d5a3,hbv,"[""h"",""b"",""v""]","[0.7073000000000462,0.9118999999999033,1.013800000000046,1.3358999999999028]",1,HBV,2,0,2,0,1,,,,,,,,,,,,,,,,,,,,,,,,,,,,,,,,,,,,,,,,,,,,,,,,,,,,,,,,,,,,,,,,,,,,,,,,,,,,,,,,,,,,,,,,,,,
,,,,,,0,0,0,0,1,X V Q F H G B L J M P D K C T S W R N Z,5a958d78f05361000171c54c,30,Mężczyzna,2022-06-11_09h06.26.507,task,2021.1.4,Win32,60.04924038,6299f149e92ead563fba08ef,62a43e61f8ca17fcfab2d5a3,,,,,,,,,,,,,,,,,,,,,,,,,,,,,,,,,,,,,,,,,,,,,,,,,,,,,,,,,,,,,,,,,,,,,,,,,,,,,,,,,,,,,,,,,,,,,,,,,,,,,
,,,,,,1,0,1,0,1,X V Q F H G B L J M P D K C T S W R N Z,5a958d78f05361000171c54c,30,Mężczyzna,2022-06-11_09h06.26.507,task,2021.1.4,Win32,60.04924038,6299f149e92ead563fba08ef,62a43e61f8ca17fcfab2d5a3,,,,,,,,,,,,,,,,,,,,,,,,,,,,,,,,,,,,,,,,,,,,,,,,,,,,,,,,,,,,,,,,,,,,,,,,,,,,,,,,,,,,,,,,,,,,,,,,,,,,,
,,,,,,2,0,2,0,1,X V Q F H G B L J M P D K C T S W R N Z,5a958d78f05361000171c54c,30,Mężczyzna,2022-06-11_09h06.26.507,task,2021.1.4,Win32,60.04924038,6299f149e92ead563fba08ef,62a43e61f8ca17fcfab2d5a3,,,,,,,,,,,,,,,,,,,,,,,,,,,,,,,,,,,,,,,,,,,,,,,,,,,,,,,,,,,,,,,,,,,,,,,,,,,,,,,,,,,,,,,,,,,,,,,,,,,,,
,,,,,,,,,,,,5a958d78f05361000171c54c,30,Mężczyzna,2022-06-11_09h06.26.507,task,2021.1.4,Win32,60.04924038,6299f149e92ead563fba08ef,62a43e61f8ca17fcfab2d5a3,rsp,"[""r"",""s"",""p""]","[1.4185000000000016,1.7675000000000054,1.899299999999819,2.1430000000000007]",1,RSP,3,0,3,0,1,,,,,,,,,,,,,,,,,,,,,,,,,,,,,,,,,,,,,,,,,,,,,,,,,,,,,,,,,,,,,,,,,,,,,,,,,,,,,,,,,,,,,,,,,,,
,,,,,,0,0,0,0,1,X V Q F H G B L J M P D K C T S W R N Z,5a958d78f05361000171c54c,30,Mężczyzna,2022-06-11_09h06.26.507,task,2021.1.4,Win32,60.04924038,6299f149e92ead563fba08ef,62a43e61f8ca17fcfab2d5a3,,,,,,,,,,,,,,,,,,,,,,,,,,,,,,,,,,,,,,,,,,,,,,,,,,,,,,,,,,,,,,,,,,,,,,,,,,,,,,,,,,,,,,,,,,,,,,,,,,,,,
,,,,,,1,0,1,0,1,X V Q F H G B L J M P D K C T S W R N Z,5a958d78f05361000171c54c,30,Mężczyzna,2022-06-11_09h06.26.507,task,2021.1.4,Win32,60.04924038,6299f149e92ead563fba08ef,62a43e61f8ca17fcfab2d5a3,,,,,,,,,,,,,,,,,,,,,,,,,,,,,,,,,,,,,,,,,,,,,,,,,,,,,,,,,,,,,,,,,,,,,,,,,,,,,,,,,,,,,,,,,,,,,,,,,,,,,
,,,,,,2,0,2,0,1,X V Q F H G B L J M P D K C T S W R N Z,5a958d78f05361000171c54c,30,Mężczyzna,2022-06-11_09h06.26.507,task,2021.1.4,Win32,60.04924038,6299f149e92ead563fba08ef,62a43e61f8ca17fcfab2d5a3,,,,,,,,,,,,,,,,,,,,,,,,,,,,,,,,,,,,,,,,,,,,,,,,,,,,,,,,,,,,,,,,,,,,,,,,,,,,,,,,,,,,,,,,,,,,,,,,,,,,,
,,,,,,3,0,3,0,1,X V Q F H G B L J M P D K C T S W R N Z,5a958d78f05361000171c54c,30,Mężczyzna,2022-06-11_09h06.26.507,task,2021.1.4,Win32,60.04924038,6299f149e92ead563fba08ef,62a43e61f8ca17fcfab2d5a3,,,,,,,,,,,,,,,,,,,,,,,,,,,,,,,,,,,,,,,,,,,,,,,,,,,,,,,,,,,,,,,,,,,,,,,,,,,,,,,,,,,,,,,,,,,,,,,,,,,,,
,,,,,,,,,,,,5a958d78f05361000171c54c,30,Mężczyzna,2022-06-11_09h06.26.507,task,2021.1.4,Win32,60.04924038,6299f149e92ead563fba08ef,62a43e61f8ca17fcfab2d5a3,rfqd,"[""r"",""f"",""q"",""d""]","[1.0204999999999984,1.2149000000001422,2.2061000000000917,3.4541000000000963,4.31830000000005]",1,RFQD,4,0,4,0,1,,,,,,,,,,,,,,,,,,,,,,,,,,,,,,,,,,,,,,,,,,,,,,,,,,,,,,,,,,,,,,,,,,,,,,,,,,,,,,,,,,,,,,,,,,,
,,,,,,0,0,0,0,1,X V Q F H G B L J M P D K C T S W R N Z,5a958d78f05361000171c54c,30,Mężczyzna,2022-06-11_09h06.26.507,task,2021.1.4,Win32,60.04924038,6299f149e92ead563fba08ef,62a43e61f8ca17fcfab2d5a3,,,,,,,,,,,,,,,,,,,,,,,,,,,,,,,,,,,,,,,,,,,,,,,,,,,,,,,,,,,,,,,,,,,,,,,,,,,,,,,,,,,,,,,,,,,,,,,,,,,,,
,,,,,,1,0,1,0,1,X V Q F H G B L J M P D K C T S W R N Z,5a958d78f05361000171c54c,30,Mężczyzna,2022-06-11_09h06.26.507,task,2021.1.4,Win32,60.04924038,6299f149e92ead563fba08ef,62a43e61f8ca17fcfab2d5a3,,,,,,,,,,,,,,,,,,,,,,,,,,,,,,,,,,,,,,,,,,,,,,,,,,,,,,,,,,,,,,,,,,,,,,,,,,,,,,,,,,,,,,,,,,,,,,,,,,,,,
,,,,,,2,0,2,0,1,X V Q F H G B L J M P D K C T S W R N Z,5a958d78f05361000171c54c,30,Mężczyzna,2022-06-11_09h06.26.507,task,2021.1.4,Win32,60.04924038,6299f149e92ead563fba08ef,62a43e61f8ca17fcfab2d5a3,,,,,,,,,,,,,,,,,,,,,,,,,,,,,,,,,,,,,,,,,,,,,,,,,,,,,,,,,,,,,,,,,,,,,,,,,,,,,,,,,,,,,,,,,,,,,,,,,,,,,
,,,,,,3,0,3,0,1,X V Q F H G B L J M P D K C T S W R N Z,5a958d78f05361000171c54c,30,Mężczyzna,2022-06-11_09h06.26.507,task,2021.1.4,Win32,60.04924038,6299f149e92ead563fba08ef,62a43e61f8ca17fcfab2d5a3,,,,,,,,,,,,,,,,,,,,,,,,,,,,,,,,,,,,,,,,,,,,,,,,,,,,,,,,,,,,,,,,,,,,,,,,,,,,,,,,,,,,,,,,,,,,,,,,,,,,,
,,,,,,,,,,,,5a958d78f05361000171c54c,30,Mężczyzna,2022-06-11_09h06.26.507,task,2021.1.4,Win32,60.04924038,6299f149e92ead563fba08ef,62a43e61f8ca17fcfab2d5a3,dzsj,"[""d"",""z"",""s"",""j""]","[0.5207000000001898,0.7633000000000436,1.0660000000000025,1.2919000000001404,1.7856000000000876]",1,DZSJ,5,0,5,0,1,,,,,,,,,,,,,,,,,,,,,,,,,,,,,,,,,,,,,,,,,,,,,,,,,,,,,,,,,,,,,,,,,,,,,,,,,,,,,,,,,,,,,,,,,,,
,,,,,,0,0,0,0,1,X V Q F H G B L J M P D K C T S W R N Z,5a958d78f05361000171c54c,30,Mężczyzna,2022-06-11_09h06.26.507,task,2021.1.4,Win32,60.04924038,6299f149e92ead563fba08ef,62a43e61f8ca17fcfab2d5a3,,,,,,,,,,,,,,,,,,,,,,,,,,,,,,,,,,,,,,,,,,,,,,,,,,,,,,,,,,,,,,,,,,,,,,,,,,,,,,,,,,,,,,,,,,,,,,,,,,,,,
,,,,,,1,0,1,0,1,X V Q F H G B L J M P D K C T S W R N Z,5a958d78f05361000171c54c,30,Mężczyzna,2022-06-11_09h06.26.507,task,2021.1.4,Win32,60.04924038,6299f149e92ead563fba08ef,62a43e61f8ca17fcfab2d5a3,,,,,,,,,,,,,,,,,,,,,,,,,,,,,,,,,,,,,,,,,,,,,,,,,,,,,,,,,,,,,,,,,,,,,,,,,,,,,,,,,,,,,,,,,,,,,,,,,,,,,
,,,,,,2,0,2,0,1,X V Q F H G B L J M P D K C T S W R N Z,5a958d78f05361000171c54c,30,Mężczyzna,2022-06-11_09h06.26.507,task,2021.1.4,Win32,60.04924038,6299f149e92ead563fba08ef,62a43e61f8ca17fcfab2d5a3,,,,,,,,,,,,,,,,,,,,,,,,,,,,,,,,,,,,,,,,,,,,,,,,,,,,,,,,,,,,,,,,,,,,,,,,,,,,,,,,,,,,,,,,,,,,,,,,,,,,,
,,,,,,3,0,3,0,1,X V Q F H G B L J M P D K C T S W R N Z,5a958d78f05361000171c54c,30,Mężczyzna,2022-06-11_09h06.26.507,task,2021.1.4,Win32,60.04924038,6299f149e92ead563fba08ef,62a43e61f8ca17fcfab2d5a3,,,,,,,,,,,,,,,,,,,,,,,,,,,,,,,,,,,,,,,,,,,,,,,,,,,,,,,,,,,,,,,,,,,,,,,,,,,,,,,,,,,,,,,,,,,,,,,,,,,,,
,,,,,,4,0,4,0,1,X V Q F H G B L J M P D K C T S W R N Z,5a958d78f05361000171c54c,30,Mężczyzna,2022-06-11_09h06.26.507,task,2021.1.4,Win32,60.04924038,6299f149e92ead563fba08ef,62a43e61f8ca17fcfab2d5a3,,,,,,,,,,,,,,,,,,,,,,,,,,,,,,,,,,,,,,,,,,,,,,,,,,,,,,,,,,,,,,,,,,,,,,,,,,,,,,,,,,,,,,,,,,,,,,,,,,,,,
,,,,,,,,,,,,5a958d78f05361000171c54c,30,Mężczyzna,2022-06-11_09h06.26.507,task,2021.1.4,Win32,60.04924038,6299f149e92ead563fba08ef,62a43e61f8ca17fcfab2d5a3,wdxjc,"[""w"",""d"",""x"",""j"",""c""]","[0.6797999999998012,0.9110000000000014,1.1867999999998062,1.7852999999998076,2.706899999999905,3.1618999999999033]",0,WDHXC,6,0,6,0,1,,,,,,,,,,,,,,,,,,,,,,,,,,,,,,,,,,,,,,,,,,,,,,,,,,,,,,,,,,,,,,,,,,,,,,,,,,,,,,,,,,,,,,,,,,,
,,,,,,0,0,0,0,1,X V Q F H G B L J M P D K C T S W R N Z,5a958d78f05361000171c54c,30,Mężczyzna,2022-06-11_09h06.26.507,task,2021.1.4,Win32,60.04924038,6299f149e92ead563fba08ef,62a43e61f8ca17fcfab2d5a3,,,,,,,,,,,,,,,,,,,,,,,,,,,,,,,,,,,,,,,,,,,,,,,,,,,,,,,,,,,,,,,,,,,,,,,,,,,,,,,,,,,,,,,,,,,,,,,,,,,,,
,,,,,,1,0,1,0,1,X V Q F H G B L J M P D K C T S W R N Z,5a958d78f05361000171c54c,30,Mężczyzna,2022-06-11_09h06.26.507,task,2021.1.4,Win32,60.04924038,6299f149e92ead563fba08ef,62a43e61f8ca17fcfab2d5a3,,,,,,,,,,,,,,,,,,,,,,,,,,,,,,,,,,,,,,,,,,,,,,,,,,,,,,,,,,,,,,,,,,,,,,,,,,,,,,,,,,,,,,,,,,,,,,,,,,,,,
,,,,,,2,0,2,0,1,X V Q F H G B L J M P D K C T S W R N Z,5a958d78f05361000171c54c,30,Mężczyzna,2022-06-11_09h06.26.507,task,2021.1.4,Win32,60.04924038,6299f149e92ead563fba08ef,62a43e61f8ca17fcfab2d5a3,,,,,,,,,,,,,,,,,,,,,,,,,,,,,,,,,,,,,,,,,,,,,,,,,,,,,,,,,,,,,,,,,,,,,,,,,,,,,,,,,,,,,,,,,,,,,,,,,,,,,
,,,,,,3,0,3,0,1,X V Q F H G B L J M P D K C T S W R N Z,5a958d78f05361000171c54c,30,Mężczyzna,2022-06-11_09h06.26.507,task,2021.1.4,Win32,60.04924038,6299f149e92ead563fba08ef,62a43e61f8ca17fcfab2d5a3,,,,,,,,,,,,,,,,,,,,,,,,,,,,,,,,,,,,,,,,,,,,,,,,,,,,,,,,,,,,,,,,,,,,,,,,,,,,,,,,,,,,,,,,,,,,,,,,,,,,,
,,,,,,4,0,4,0,1,X V Q F H G B L J M P D K C T S W R N Z,5a958d78f05361000171c54c,30,Mężczyzna,2022-06-11_09h06.26.507,task,2021.1.4,Win32,60.04924038,6299f149e92ead563fba08ef,62a43e61f8ca17fcfab2d5a3,,,,,,,,,,,,,,,,,,,,,,,,,,,,,,,,,,,,,,,,,,,,,,,,,,,,,,,,,,,,,,,,,,,,,,,,,,,,,,,,,,,,,,,,,,,,,,,,,,,,,
,,,,,,,,,,,,5a958d78f05361000171c54c,30,Mężczyzna,2022-06-11_09h06.26.507,task,2021.1.4,Win32,60.04924038,6299f149e92ead563fba08ef,62a43e61f8ca17fcfab2d5a3,pfnvc,"[""p"",""f"",""n"",""v"",""c""]","[1.4745999999998531,1.8036999999999495,2.4813999999999083,2.7071999999999576,3.0049999999999955,3.3151999999999475]",1,PFNVC,7,0,7,0,1,,,,,,,,,,,,,,,,,,,,,,,,,,,,,,,,,,,,,,,,,,,,,,,,,,,,,,,,,,,,,,,,,,,,,,,,,,,,,,,,,,,,,,,,,,,
,,,,,,0,0,0,0,1,X V Q F H G B L J M P D K C T S W R N Z,5a958d78f05361000171c54c,30,Mężczyzna,2022-06-11_09h06.26.507,task,2021.1.4,Win32,60.04924038,6299f149e92ead563fba08ef,62a43e61f8ca17fcfab2d5a3,,,,,,,,,,,,,,,,,,,,,,,,,,,,,,,,,,,,,,,,,,,,,,,,,,,,,,,,,,,,,,,,,,,,,,,,,,,,,,,,,,,,,,,,,,,,,,,,,,,,,
,,,,,,1,0,1,0,1,X V Q F H G B L J M P D K C T S W R N Z,5a958d78f05361000171c54c,30,Mężczyzna,2022-06-11_09h06.26.507,task,2021.1.4,Win32,60.04924038,6299f149e92ead563fba08ef,62a43e61f8ca17fcfab2d5a3,,,,,,,,,,,,,,,,,,,,,,,,,,,,,,,,,,,,,,,,,,,,,,,,,,,,,,,,,,,,,,,,,,,,,,,,,,,,,,,,,,,,,,,,,,,,,,,,,,,,,
,,,,,,2,0,2,0,1,X V Q F H G B L J M P D K C T S W R N Z,5a958d78f05361000171c54c,30,Mężczyzna,2022-06-11_09h06.26.507,task,2021.1.4,Win32,60.04924038,6299f149e92ead563fba08ef,62a43e61f8ca17fcfab2d5a3,,,,,,,,,,,,,,,,,,,,,,,,,,,,,,,,,,,,,,,,,,,,,,,,,,,,,,,,,,,,,,,,,,,,,,,,,,,,,,,,,,,,,,,,,,,,,,,,,,,,,
,,,,,,3,0,3,0,1,X V Q F H G B L J M P D K C T S W R N Z,5a958d78f05361000171c54c,30,Mężczyzna,2022-06-11_09h06.26.507,task,2021.1.4,Win32,60.04924038,6299f149e92ead563fba08ef,62a43e61f8ca17fcfab2d5a3,,,,,,,,,,,,,,,,,,,,,,,,,,,,,,,,,,,,,,,,,,,,,,,,,,,,,,,,,,,,,,,,,,,,,,,,,,,,,,,,,,,,,,,,,,,,,,,,,,,,,
,,,,,,4,0,4,0,1,X V Q F H G B L J M P D K C T S W R N Z,5a958d78f05361000171c54c,30,Mężczyzna,2022-06-11_09h06.26.507,task,2021.1.4,Win32,60.04924038,6299f149e92ead563fba08ef,62a43e61f8ca17fcfab2d5a3,,,,,,,,,,,,,,,,,,,,,,,,,,,,,,,,,,,,,,,,,,,,,,,,,,,,,,,,,,,,,,,,,,,,,,,,,,,,,,,,,,,,,,,,,,,,,,,,,,,,,
,,,,,,,,,,,,5a958d78f05361000171c54c,30,Mężczyzna,2022-06-11_09h06.26.507,task,2021.1.4,Win32,60.04924038,6299f149e92ead563fba08ef,62a43e61f8ca17fcfab2d5a3,dcpsw,"[""d"",""c"",""p"",""s"",""w""]","[1.3136000000000934,1.501699999999957,2.071199999999962,2.525699999999958,3.3391000000001014,3.6593000000000444]",1,DCPSW,8,0,8,0,1,,,,,,,,,,,,,,,,,,,,,,,,,,,,,,,,,,,,,,,,,,,,,,,,,,,,,,,,,,,,,,,,,,,,,,,,,,,,,,,,,,,,,,,,,,,
,,,,,,0,0,0,0,1,X V Q F H G B L J M P D K C T S W R N Z,5a958d78f05361000171c54c,30,Mężczyzna,2022-06-11_09h06.26.507,task,2021.1.4,Win32,60.04924038,6299f149e92ead563fba08ef,62a43e61f8ca17fcfab2d5a3,,,,,,,,,,,,,,,,,,,,,,,,,,,,,,,,,,,,,,,,,,,,,,,,,,,,,,,,,,,,,,,,,,,,,,,,,,,,,,,,,,,,,,,,,,,,,,,,,,,,,
,,,,,,1,0,1,0,1,X V Q F H G B L J M P D K C T S W R N Z,5a958d78f05361000171c54c,30,Mężczyzna,2022-06-11_09h06.26.507,task,2021.1.4,Win32,60.04924038,6299f149e92ead563fba08ef,62a43e61f8ca17fcfab2d5a3,,,,,,,,,,,,,,,,,,,,,,,,,,,,,,,,,,,,,,,,,,,,,,,,,,,,,,,,,,,,,,,,,,,,,,,,,,,,,,,,,,,,,,,,,,,,,,,,,,,,,
,,,,,,2,0,2,0,1,X V Q F H G B L J M P D K C T S W R N Z,5a958d78f05361000171c54c,30,Mężczyzna,2022-06-11_09h06.26.507,task,2021.1.4,Win32,60.04924038,6299f149e92ead563fba08ef,62a43e61f8ca17fcfab2d5a3,,,,,,,,,,,,,,,,,,,,,,,,,,,,,,,,,,,,,,,,,,,,,,,,,,,,,,,,,,,,,,,,,,,,,,,,,,,,,,,,,,,,,,,,,,,,,,,,,,,,,
,,,,,,3,0,3,0,1,X V Q F H G B L J M P D K C T S W R N Z,5a958d78f05361000171c54c,30,Mężczyzna,2022-06-11_09h06.26.507,task,2021.1.4,Win32,60.04924038,6299f149e92ead563fba08ef,62a43e61f8ca17fcfab2d5a3,,,,,,,,,,,,,,,,,,,,,,,,,,,,,,,,,,,,,,,,,,,,,,,,,,,,,,,,,,,,,,,,,,,,,,,,,,,,,,,,,,,,,,,,,,,,,,,,,,,,,
,,,,,,4,0,4,0,1,X V Q F H G B L J M P D K C T S W R N Z,5a958d78f05361000171c54c,30,Mężczyzna,2022-06-11_09h06.26.507,task,2021.1.4,Win32,60.04924038,6299f149e92ead563fba08ef,62a43e61f8ca17fcfab2d5a3,,,,,,,,,,,,,,,,,,,,,,,,,,,,,,,,,,,,,,,,,,,,,,,,,,,,,,,,,,,,,,,,,,,,,,,,,,,,,,,,,,,,,,,,,,,,,,,,,,,,,
,,,,,,5,0,5,0,1,X V Q F H G B L J M P D K C T S W R N Z,5a958d78f05361000171c54c,30,Mężczyzna,2022-06-11_09h06.26.507,task,2021.1.4,Win32,60.04924038,6299f149e92ead563fba08ef,62a43e61f8ca17fcfab2d5a3,,,,,,,,,,,,,,,,,,,,,,,,,,,,,,,,,,,,,,,,,,,,,,,,,,,,,,,,,,,,,,,,,,,,,,,,,,,,,,,,,,,,,,,,,,,,,,,,,,,,,
,,,,,,,,,,,,5a958d78f05361000171c54c,30,Mężczyzna,2022-06-11_09h06.26.507,task,2021.1.4,Win32,60.04924038,6299f149e92ead563fba08ef,62a43e61f8ca17fcfab2d5a3,hmbls,"[""h"",""m"",""b"",""l"",""s""]","[1.7855999999998602,2.1860999999998683,2.4788000000000494,3.6778999999999087,6.418899999999908,6.550199999999961]",0,HMBLHP,9,0,9,0,1,,,,,,,,,,,,,,,,,,,,,,,,,,,,,,,,,,,,,,,,,,,,,,,,,,,,,,,,,,,,,,,,,,,,,,,,,,,,,,,,,,,,,,,,,,,
,,,,,,0,0,0,0,1,X V Q F H G B L J M P D K C T S W R N Z,5a958d78f05361000171c54c,30,Mężczyzna,2022-06-11_09h06.26.507,task,2021.1.4,Win32,60.04924038,6299f149e92ead563fba08ef,62a43e61f8ca17fcfab2d5a3,,,,,,,,,,,,,,,,,,,,,,,,,,,,,,,,,,,,,,,,,,,,,,,,,,,,,,,,,,,,,,,,,,,,,,,,,,,,,,,,,,,,,,,,,,,,,,,,,,,,,
,,,,,,1,0,1,0,1,X V Q F H G B L J M P D K C T S W R N Z,5a958d78f05361000171c54c,30,Mężczyzna,2022-06-11_09h06.26.507,task,2021.1.4,Win32,60.04924038,6299f149e92ead563fba08ef,62a43e61f8ca17fcfab2d5a3,,,,,,,,,,,,,,,,,,,,,,,,,,,,,,,,,,,,,,,,,,,,,,,,,,,,,,,,,,,,,,,,,,,,,,,,,,,,,,,,,,,,,,,,,,,,,,,,,,,,,
,,,,,,2,0,2,0,1,X V Q F H G B L J M P D K C T S W R N Z,5a958d78f05361000171c54c,30,Mężczyzna,2022-06-11_09h06.26.507,task,2021.1.4,Win32,60.04924038,6299f149e92ead563fba08ef,62a43e61f8ca17fcfab2d5a3,,,,,,,,,,,,,,,,,,,,,,,,,,,,,,,,,,,,,,,,,,,,,,,,,,,,,,,,,,,,,,,,,,,,,,,,,,,,,,,,,,,,,,,,,,,,,,,,,,,,,
,,,,,,3,0,3,0,1,X V Q F H G B L J M P D K C T S W R N Z,5a958d78f05361000171c54c,30,Mężczyzna,2022-06-11_09h06.26.507,task,2021.1.4,Win32,60.04924038,6299f149e92ead563fba08ef,62a43e61f8ca17fcfab2d5a3,,,,,,,,,,,,,,,,,,,,,,,,,,,,,,,,,,,,,,,,,,,,,,,,,,,,,,,,,,,,,,,,,,,,,,,,,,,,,,,,,,,,,,,,,,,,,,,,,,,,,
,,,,,,4,0,4,0,1,X V Q F H G B L J M P D K C T S W R N Z,5a958d78f05361000171c54c,30,Mężczyzna,2022-06-11_09h06.26.507,task,2021.1.4,Win32,60.04924038,6299f149e92ead563fba08ef,62a43e61f8ca17fcfab2d5a3,,,,,,,,,,,,,,,,,,,,,,,,,,,,,,,,,,,,,,,,,,,,,,,,,,,,,,,,,,,,,,,,,,,,,,,,,,,,,,,,,,,,,,,,,,,,,,,,,,,,,
,,,,,,5,0,5,0,1,X V Q F H G B L J M P D K C T S W R N Z,5a958d78f05361000171c54c,30,Mężczyzna,2022-06-11_09h06.26.507,task,2021.1.4,Win32,60.04924038,6299f149e92ead563fba08ef,62a43e61f8ca17fcfab2d5a3,,,,,,,,,,,,,,,,,,,,,,,,,,,,,,,,,,,,,,,,,,,,,,,,,,,,,,,,,,,,,,,,,,,,,,,,,,,,,,,,,,,,,,,,,,,,,,,,,,,,,
,,,,,,,,,,,,5a958d78f05361000171c54c,30,Mężczyzna,2022-06-11_09h06.26.507,task,2021.1.4,Win32,60.04924038,6299f149e92ead563fba08ef,62a43e61f8ca17fcfab2d5a3,wwszsr,"[""w"",""w"",""s"",""z"",""s"",""r""]","[1.5604000000001577,1.7119000000001563,1.9274000000001479,2.1996000000001175,2.4416000000001077,2.7189000000001613,3.64519999999996]",1,WWSZSR,10,0,10,0,1,,,,,,,,,,,,,,,,,,,,,,,,,,,,,,,,,,,,,,,,,,,,,,,,,,,,,,,,,,,,,,,,,,,,,,,,,,,,,,,,,,,,,,,,,,,
,,,,,,0,0,0,0,1,X V Q F H G B L J M P D K C T S W R N Z,5a958d78f05361000171c54c,30,Mężczyzna,2022-06-11_09h06.26.507,task,2021.1.4,Win32,60.04924038,6299f149e92ead563fba08ef,62a43e61f8ca17fcfab2d5a3,,,,,,,,,,,,,,,,,,,,,,,,,,,,,,,,,,,,,,,,,,,,,,,,,,,,,,,,,,,,,,,,,,,,,,,,,,,,,,,,,,,,,,,,,,,,,,,,,,,,,
,,,,,,1,0,1,0,1,X V Q F H G B L J M P D K C T S W R N Z,5a958d78f05361000171c54c,30,Mężczyzna,2022-06-11_09h06.26.507,task,2021.1.4,Win32,60.04924038,6299f149e92ead563fba08ef,62a43e61f8ca17fcfab2d5a3,,,,,,,,,,,,,,,,,,,,,,,,,,,,,,,,,,,,,,,,,,,,,,,,,,,,,,,,,,,,,,,,,,,,,,,,,,,,,,,,,,,,,,,,,,,,,,,,,,,,,
,,,,,,2,0,2,0,1,X V Q F H G B L J M P D K C T S W R N Z,5a958d78f05361000171c54c,30,Mężczyzna,2022-06-11_09h06.26.507,task,2021.1.4,Win32,60.04924038,6299f149e92ead563fba08ef,62a43e61f8ca17fcfab2d5a3,,,,,,,,,,,,,,,,,,,,,,,,,,,,,,,,,,,,,,,,,,,,,,,,,,,,,,,,,,,,,,,,,,,,,,,,,,,,,,,,,,,,,,,,,,,,,,,,,,,,,
,,,,,,3,0,3,0,1,X V Q F H G B L J M P D K C T S W R N Z,5a958d78f05361000171c54c,30,Mężczyzna,2022-06-11_09h06.26.507,task,2021.1.4,Win32,60.04924038,6299f149e92ead563fba08ef,62a43e61f8ca17fcfab2d5a3,,,,,,,,,,,,,,,,,,,,,,,,,,,,,,,,,,,,,,,,,,,,,,,,,,,,,,,,,,,,,,,,,,,,,,,,,,,,,,,,,,,,,,,,,,,,,,,,,,,,,
,,,,,,4,0,4,0,1,X V Q F H G B L J M P D K C T S W R N Z,5a958d78f05361000171c54c,30,Mężczyzna,2022-06-11_09h06.26.507,task,2021.1.4,Win32,60.04924038,6299f149e92ead563fba08ef,62a43e61f8ca17fcfab2d5a3,,,,,,,,,,,,,,,,,,,,,,,,,,,,,,,,,,,,,,,,,,,,,,,,,,,,,,,,,,,,,,,,,,,,,,,,,,,,,,,,,,,,,,,,,,,,,,,,,,,,,
,,,,,,5,0,5,0,1,X V Q F H G B L J M P D K C T S W R N Z,5a958d78f05361000171c54c,30,Mężczyzna,2022-06-11_09h06.26.507,task,2021.1.4,Win32,60.04924038,6299f149e92ead563fba08ef,62a43e61f8ca17fcfab2d5a3,,,,,,,,,,,,,,,,,,,,,,,,,,,,,,,,,,,,,,,,,,,,,,,,,,,,,,,,,,,,,,,,,,,,,,,,,,,,,,,,,,,,,,,,,,,,,,,,,,,,,
,,,,,,,,,,,,5a958d78f05361000171c54c,30,Mężczyzna,2022-06-11_09h06.26.507,task,2021.1.4,Win32,60.04924038,6299f149e92ead563fba08ef,62a43e61f8ca17fcfab2d5a3,kzkhjs,"[""k"",""z"",""k"",""h"",""j"",""s""]","[2.80469999999994,3.1581000000000756,3.4556000000000893,3.6500000000000057,3.933699999999959,4.203499999999991,4.3351000000000965]",0,HZKHJZ,11,0,11,0,1,,,,,,,,,,,,,,,,,,,,,,,,,,,,,,,,,,,,,,,,,,,,,,,,,,,,,,,,,,,,,,,,,,,,,,,,,,,,,,,,,,,,,,,,,,,
,,,,,,0,0,0,0,1,X V Q F H G B L J M P D K C T S W R N Z,5a958d78f05361000171c54c,30,Mężczyzna,2022-06-11_09h06.26.507,task,2021.1.4,Win32,60.04924038,6299f149e92ead563fba08ef,62a43e61f8ca17fcfab2d5a3,,,,,,,,,,,,,,,,,,,,,,,,,,,,,,,,,,,,,,,,,,,,,,,,,,,,,,,,,,,,,,,,,,,,,,,,,,,,,,,,,,,,,,,,,,,,,,,,,,,,,
,,,,,,1,0,1,0,1,X V Q F H G B L J M P D K C T S W R N Z,5a958d78f05361000171c54c,30,Mężczyzna,2022-06-11_09h06.26.507,task,2021.1.4,Win32,60.04924038,6299f149e92ead563fba08ef,62a43e61f8ca17fcfab2d5a3,,,,,,,,,,,,,,,,,,,,,,,,,,,,,,,,,,,,,,,,,,,,,,,,,,,,,,,,,,,,,,,,,,,,,,,,,,,,,,,,,,,,,,,,,,,,,,,,,,,,,
,,,,,,2,0,2,0,1,X V Q F H G B L J M P D K C T S W R N Z,5a958d78f05361000171c54c,30,Mężczyzna,2022-06-11_09h06.26.507,task,2021.1.4,Win32,60.04924038,6299f149e92ead563fba08ef,62a43e61f8ca17fcfab2d5a3,,,,,,,,,,,,,,,,,,,,,,,,,,,,,,,,,,,,,,,,,,,,,,,,,,,,,,,,,,,,,,,,,,,,,,,,,,,,,,,,,,,,,,,,,,,,,,,,,,,,,
,,,,,,3,0,3,0,1,X V Q F H G B L J M P D K C T S W R N Z,5a958d78f05361000171c54c,30,Mężczyzna,2022-06-11_09h06.26.507,task,2021.1.4,Win32,60.04924038,6299f149e92ead563fba08ef,62a43e61f8ca17fcfab2d5a3,,,,,,,,,,,,,,,,,,,,,,,,,,,,,,,,,,,,,,,,,,,,,,,,,,,,,,,,,,,,,,,,,,,,,,,,,,,,,,,,,,,,,,,,,,,,,,,,,,,,,
,,,,,,4,0,4,0,1,X V Q F H G B L J M P D K C T S W R N Z,5a958d78f05361000171c54c,30,Mężczyzna,2022-06-11_09h06.26.507,task,2021.1.4,Win32,60.04924038,6299f149e92ead563fba08ef,62a43e61f8ca17fcfab2d5a3,,,,,,,,,,,,,,,,,,,,,,,,,,,,,,,,,,,,,,,,,,,,,,,,,,,,,,,,,,,,,,,,,,,,,,,,,,,,,,,,,,,,,,,,,,,,,,,,,,,,,
,,,,,,5,0,5,0,1,X V Q F H G B L J M P D K C T S W R N Z,5a958d78f05361000171c54c,30,Mężczyzna,2022-06-11_09h06.26.507,task,2021.1.4,Win32,60.04924038,6299f149e92ead563fba08ef,62a43e61f8ca17fcfab2d5a3,,,,,,,,,,,,,,,,,,,,,,,,,,,,,,,,,,,,,,,,,,,,,,,,,,,,,,,,,,,,,,,,,,,,,,,,,,,,,,,,,,,,,,,,,,,,,,,,,,,,,
,,,,,,,,,,,,5a958d78f05361000171c54c,30,Mężczyzna,2022-06-11_09h06.26.507,task,2021.1.4,Win32,60.04924038,6299f149e92ead563fba08ef,62a43e61f8ca17fcfab2d5a3,zvwtjs,"[""z"",""v"",""w"",""t"",""j"",""s""]","[0.9124999999999943,1.8969999999999914,3.0561999999999614,3.590899999999891,4.438100000000077,4.6638000000000375,4.757899999999893]",0,ZVWTJC,12,0,12,0,1,,,,,,,,,,,,,,,,,,,,,,,,,,,,,,,,,,,,,,,,,,,,,,,,,,,,,,,,,,,,,,,,,,,,,,,,,,,,,,,,,,,,,,,,,,,
,,,,,,,,,,,,5a958d78f05361000171c54c,30,Mężczyzna,2022-06-11_09h06.26.507,task,2021.1.4,Win32,60.04924038,6299f149e92ead563fba08ef,62a43e61f8ca17fcfab2d5a3,,,,,,,,,,,space,6.8251,1,"[""1""]",1,[3.4915999999998633],[3.4915999999998633],0,0,0,1,1,Practice,2,(4x4) - 15,1,,,,,,,,,,,,,,,,,,,,,,,,,,,,,,,,,,,,,,,,,,,,,,,,,,,,,,,,,,,,,,,,,,,,,,,,,,,
,,,,,,,,,,,,5a958d78f05361000171c54c,30,Mężczyzna,2022-06-11_09h06.26.507,task,2021.1.4,Win32,60.04924038,6299f149e92ead563fba08ef,62a43e61f8ca17fcfab2d5a3,,,,,,,,,,,,,7,"[""7""]",1,[3.205700000000178],"[3.4915999999998633,3.205700000000178]",0,1,1,7,1,Practice,8,(5x5) - 18,7,,,,,,,,,,,,,,,,,,,,,,,,,,,,,,,,,,,,,,,,,,,,,,,,,,,,,,,,,,,,,,,,,,,,,,,,,,,
,,,,,,,,,,,,5a958d78f05361000171c54c,30,Mężczyzna,2022-06-11_09h06.26.507,task,2021.1.4,Win32,60.04924038,6299f149e92ead563fba08ef,62a43e61f8ca17fcfab2d5a3,,,,,,,,,,,,,2,"[""2""]",1,[1.3864999999999839],"[3.4915999999998633,3.205700000000178,1.3864999999999839]",0,2,2,2,1,Practice,3,(4x4) - 14,2,,,,,,,,,,,,,,,,,,,,,,,,,,,,,,,,,,,,,,,,,,,,,,,,,,,,,,,,,,,,,,,,,,,,,,,,,,,
,,,,,,,,,,,,5a958d78f05361000171c54c,30,Mężczyzna,2022-06-11_09h06.26.507,task,2021.1.4,Win32,60.04924038,6299f149e92ead563fba08ef,62a43e61f8ca17fcfab2d5a3,,,,,,,,,,,,,9,"[""9""]",1,[2.2014999999999816],"[3.4915999999998633,3.205700000000178,1.3864999999999839,2.2014999999999816]",0,3,3,9,1,Practice,10,(20/2) - 1,9,,,,,,,,,,,,,,,,,,,,,,,,,,,,,,,,,,,,,,,,,,,,,,,,,,,,,,,,,,,,,,,,,,,,,,,,,,,
,,,,,,,,,,,,5a958d78f05361000171c54c,30,Mężczyzna,2022-06-11_09h06.26.507,task,2021.1.4,Win32,60.04924038,6299f149e92ead563fba08ef,62a43e61f8ca17fcfab2d5a3,,,,,,,,,,,,,6,"[""6""]",1,[2.722599999999858],"[3.4915999999998633,3.205700000000178,1.3864999999999839,2.2014999999999816,2.722599999999858]",0,4,4,6,1,Practice,7,(25/5) + 1,6,,,,,,,,,,,,,,,,,,,,,,,,,,,,,,,,,,,,,,,,,,,,,,,,,,,,,,,,,,,,,,,,,,,,,,,,,,,
,,,,,,,,,,,,5a958d78f05361000171c54c,30,Mężczyzna,2022-06-11_09h06.26.507,task,2021.1.4,Win32,60.04924038,6299f149e92ead563fba08ef,62a43e61f8ca17fcfab2d5a3,,,,,,,,,,,,,5,"[""5""]",1,[2.112499999999983],"[3.4915999999998633,3.205700000000178,1.3864999999999839,2.2014999999999816,2.722599999999858,2.112499999999983]",0,5,5,5,1,Practice,6,(4/2) + 3,5,,,,,,,,,,,,,,,,,,,,,,,,,,,,,,,,,,,,,,,,,,,,,,,,,,,,,,,,,,,,,,,,,,,,,,,,,,,
,,,,,,,,,,,,5a958d78f05361000171c54c,30,Mężczyzna,2022-06-11_09h06.26.507,task,2021.1.4,Win32,60.04924038,6299f149e92ead563fba08ef,62a43e61f8ca17fcfab2d5a3,,,,,,,,,,,,,4,"[""4""]",1,[3.21389999999991],"[3.4915999999998633,3.205700000000178,1.3864999999999839,2.2014999999999816,2.722599999999858,2.112499999999983,3.21389999999991]",0,6,6,4,1,Practice,5,(2x6) - 8,4,,,,,,,,,,,,,,,,,,,,,,,,,,,,,,,,,,,,,,,,,,,,,,,,,,,,,,,,,,,,,,,,,,,,,,,,,,,
,,,,,,,,,,,,5a958d78f05361000171c54c,30,Mężczyzna,2022-06-11_09h06.26.507,task,2021.1.4,Win32,60.04924038,6299f149e92ead563fba08ef,62a43e61f8ca17fcfab2d5a3,,,,,,,,,,,,,3,"[""3""]",1,[2.0961999999999534],"[3.4915999999998633,3.205700000000178,1.3864999999999839,2.2014999999999816,2.722599999999858,2.112499999999983,3.21389999999991,2.0961999999999534]",0,7,7,3,1,Practice,4,(8/4) + 1,3,,,,,,,,,,,,,,,,,,,,,,,,,,,,,,,,,,,,,,,,,,,,,,,,,,,,,,,,,,,,,,,,,,,,,,,,,,,
,,,,,,,,,,,,5a958d78f05361000171c54c,30,Mężczyzna,2022-06-11_09h06.26.507,task,2021.1.4,Win32,60.04924038,6299f149e92ead563fba08ef,62a43e61f8ca17fcfab2d5a3,,,,,,,,,,,,,5,"[""5""]",0,[2.029899999999884],"[3.4915999999998633,3.205700000000178,1.3864999999999839,2.2014999999999816,2.722599999999858,2.112499999999983,3.21389999999991,2.0961999999999534,2.029899999999884]",0,8,8,8,1,Practice,9,(3x3) - 1,8,,,,,,,,,,,,,,,,,,,,,,,,,,,,,,,,,,,,,,,,,,,,,,,,,,,,,,,,,,,,,,,,,,,,,,,,,,,
,,,,,,,,,,,,5a958d78f05361000171c54c,30,Mężczyzna,2022-06-11_09h06.26.507,task,2021.1.4,Win32,60.04924038,6299f149e92ead563fba08ef,62a43e61f8ca17fcfab2d5a3,,,,,,,,,,,,,0,"[""0""]",1,[1.8462999999998146],"[3.4915999999998633,3.205700000000178,1.3864999999999839,2.2014999999999816,2.722599999999858,2.112499999999983,3.21389999999991,2.0961999999999534,2.029899999999884,1.8462999999998146]",0,9,9,0,1,Practice,1,(3x3) -  9,0,,,,,,,,,,,,,,,,,,,,,,,,,,,,,,,,,,,,,,,,,,,,,,,,,,,,,,,,,,,,,,,,,,,,,,,,,,,
,,,,,,,,,,,,5a958d78f05361000171c54c,30,Mężczyzna,2022-06-11_09h06.26.507,task,2021.1.4,Win32,60.04924038,6299f149e92ead563fba08ef,62a43e61f8ca17fcfab2d5a3,,,,,,,,,,,,,,,,,,,,,,,,,,,0.9,24.3067,1.620446667,10.84755192,0.850394102,3.814463449,space,1.1822,0,0,0,0,1,,,,,,,,,,,,,,,,,,,,,,,,,,,,,,,,,,,,,,,,,,,,,,,,,,,,,,,,,,,,,,
,,,,,,,,,,,,5a958d78f05361000171c54c,30,Mężczyzna,2022-06-11_09h06.26.507,task,2021.1.4,Win32,60.04924038,6299f149e92ead563fba08ef,62a43e61f8ca17fcfab2d5a3,,,,,,,,,,,,,8,,,,,,,,,,Practice,9,(3x3) - 1,8,,,,,,,,,,,,,,space,10.9542,"[""8""]",1,[3.041600000000102],1,0,0,0,8,1,,,,,,,,,,,,,,,,,,,,,,,,,,,,,,,,,,,,,,,,,,,,,,,,,,,
,,,,,,,,,,,X V Q F H G B L J M P D K C T S W R N Z,5a958d78f05361000171c54c,30,Mężczyzna,2022-06-11_09h06.26.507,task,2021.1.4,Win32,60.04924038,6299f149e92ead563fba08ef,62a43e61f8ca17fcfab2d5a3,,,,,,,,,,,,,,,,,,,,,,,,,,,,,,,,,,,,,,,,,,,,,,,,,,,0,0,0,0,1,,,,,,,,,,,,,,,,,,,,,,,,,,,,,,,,,,,,,,,,,,,,,,
,,,,,,,,,,,,5a958d78f05361000171c54c,30,Mężczyzna,2022-06-11_09h06.26.507,task,2021.1.4,Win32,60.04924038,6299f149e92ead563fba08ef,62a43e61f8ca17fcfab2d5a3,,,,,,,,,,,,,9,,,,,,,,,,Practice,10,(20/2) - 1,9,,,,,,,,,,,,,,,,"[""9""]",1,[1.83460000000008],1,0,0,0,9,1,,,,,,,,,,,,,,,,,,,,,,,,,,,,,,,,,,,,,,,,,,,,,,,,,,,
,,,,,,,,,,,X V Q F H G B L J M P D K C T S W R N Z,5a958d78f05361000171c54c,30,Mężczyzna,2022-06-11_09h06.26.507,task,2021.1.4,Win32,60.04924038,6299f149e92ead563fba08ef,62a43e61f8ca17fcfab2d5a3,,,,,,,,,,,,,,,,,,,,,,,,,,,,,,,,,,,,,,,,,,,,,,,,,,,1,0,1,0,1,,,,,,,,,,,,,,,,,,,,,,,,,,,,,,,,,,,,,,,,,,,,,,
,,,,,,,,,,,,5a958d78f05361000171c54c,30,Mężczyzna,2022-06-11_09h06.26.507,task,2021.1.4,Win32,60.04924038,6299f149e92ead563fba08ef,62a43e61f8ca17fcfab2d5a3,,,,,,,,,,,,,,,,,,,,,,,,,,,,,,,,,,,,,,,,,,,,,,,,,,,,,,,,zp,"[""z"",""p""]",0,"[1.9876999999999612,2.3448999999999103,5.615499999999997]",1,0,0,0,0,1,,,,,,,,,,,,,,,,,,,,,,,,,,,,,,,,,,,,
,,,,,,,,,,,,5a958d78f05361000171c54c,30,Mężczyzna,2022-06-11_09h06.26.507,task,2021.1.4,Win32,60.04924038,6299f149e92ead563fba08ef,62a43e61f8ca17fcfab2d5a3,,,,,,,,,,,,,2,,,,,,,,,,Practice,3,(4x4) - 14,2,,,,,,,,,,,,,,,,"[""2""]",1,[1.5766999999999598],1,0,0,0,2,1,,,,,,,,,,,,,,,,,,,,,,,,,,,,,,,,,,,,,,,,,,,,,,,,,,,
,,,,,,,,,,,X V Q F H G B L J M P D K C T S W R N Z,5a958d78f05361000171c54c,30,Mężczyzna,2022-06-11_09h06.26.507,task,2021.1.4,Win32,60.04924038,6299f149e92ead563fba08ef,62a43e61f8ca17fcfab2d5a3,,,,,,,,,,,,,,,,,,,,,,,,,,,,,,,,,,,,,,,,,,,,,,,,,,,0,0,0,0,1,,,,,,,,,,,,,,,,,,,,,,,,,,,,,,,,,,,,,,,,,,,,,,
,,,,,,,,,,,,5a958d78f05361000171c54c,30,Mężczyzna,2022-06-11_09h06.26.507,task,2021.1.4,Win32,60.04924038,6299f149e92ead563fba08ef,62a43e61f8ca17fcfab2d5a3,,,,,,,,,,,,,1,,,,,,,,,,Practice,2,(4x4) - 15,1,,,,,,,,,,,,,,,,"[""1""]",1,[1.8652000000001863],1,0,0,0,1,1,,,,,,,,,,,,,,,,,,,,,,,,,,,,,,,,,,,,,,,,,,,,,,,,,,,
,,,,,,,,,,,X V Q F H G B L J M P D K C T S W R N Z,5a958d78f05361000171c54c,30,Mężczyzna,2022-06-11_09h06.26.507,task,2021.1.4,Win32,60.04924038,6299f149e92ead563fba08ef,62a43e61f8ca17fcfab2d5a3,,,,,,,,,,,,,,,,,,,,,,,,,,,,,,,,,,,,,,,,,,,,,,,,,,,1,0,1,0,1,,,,,,,,,,,,,,,,,,,,,,,,,,,,,,,,,,,,,,,,,,,,,,
,,,,,,,,,,,,5a958d78f05361000171c54c,30,Mężczyzna,2022-06-11_09h06.26.507,task,2021.1.4,Win32,60.04924038,6299f149e92ead563fba08ef,62a43e61f8ca17fcfab2d5a3,,,,,,,,,,,,,,,,,,,,,,,,,,,,,,,,,,,,,,,,,,,,,,,,,,,,,,,,rr,"[""r"",""r""]",0,"[1.4190000000000111,1.5598999999999137,2.2183999999999173]",1,1,0,1,0,1,,,,,,,,,,,,,,,,,,,,,,,,,,,,,,,,,,,,
,,,,,,,,,,,,5a958d78f05361000171c54c,30,Mężczyzna,2022-06-11_09h06.26.507,task,2021.1.4,Win32,60.04924038,6299f149e92ead563fba08ef,62a43e61f8ca17fcfab2d5a3,,,,,,,,,,,,,7,,,,,,,,,,Practice,8,(5x5) - 18,7,,,,,,,,,,,,,,,,"[""7""]",1,[2.6744000000003894],1,0,0,0,7,1,,,,,,,,,,,,,,,,,,,,,,,,,,,,,,,,,,,,,,,,,,,,,,,,,,,
,,,,,,,,,,,X V Q F H G B L J M P D K C T S W R N Z,5a958d78f05361000171c54c,30,Mężczyzna,2022-06-11_09h06.26.507,task,2021.1.4,Win32,60.04924038,6299f149e92ead563fba08ef,62a43e61f8ca17fcfab2d5a3,,,,,,,,,,,,,,,,,,,,,,,,,,,,,,,,,,,,,,,,,,,,,,,,,,,0,0,0,0,1,,,,,,,,,,,,,,,,,,,,,,,,,,,,,,,,,,,,,,,,,,,,,,
,,,,,,,,,,,,5a958d78f05361000171c54c,30,Mężczyzna,2022-06-11_09h06.26.507,task,2021.1.4,Win32,60.04924038,6299f149e92ead563fba08ef,62a43e61f8ca17fcfab2d5a3,,,,,,,,,,,,,8,,,,,,,,,,Practice,9,(3x3) - 1,8,,,,,,,,,,,,,,,,"[""8""]",1,[1.6855999999996243],1,0,0,0,8,1,,,,,,,,,,,,,,,,,,,,,,,,,,,,,,,,,,,,,,,,,,,,,,,,,,,
,,,,,,,,,,,X V Q F H G B L J M P D K C T S W R N Z,5a958d78f05361000171c54c,30,Mężczyzna,2022-06-11_09h06.26.507,task,2021.1.4,Win32,60.04924038,6299f149e92ead563fba08ef,62a43e61f8ca17fcfab2d5a3,,,,,,,,,,,,,,,,,,,,,,,,,,,,,,,,,,,,,,,,,,,,,,,,,,,1,0,1,0,1,,,,,,,,,,,,,,,,,,,,,,,,,,,,,,,,,,,,,,,,,,,,,,
,,,,,,,,,,,,5a958d78f05361000171c54c,30,Mężczyzna,2022-06-11_09h06.26.507,task,2021.1.4,Win32,60.04924038,6299f149e92ead563fba08ef,62a43e61f8ca17fcfab2d5a3,,,,,,,,,,,,,,,,,,,,,,,,,,,,,,,,,,,,,,,,,,,,,,,,,,,,,,,,qz,"[""q"",""z""]",0,"[1.997299999999825,2.2368999999999346,2.6628999999999223]",1,2,0,2,0,1,,,,,,,,,,,,,,,,,,,,,,,,,,,,,,,,,,,,
,,,,,,,,,,,,5a958d78f05361000171c54c,30,Mężczyzna,2022-06-11_09h06.26.507,task,2021.1.4,Win32,60.04924038,6299f149e92ead563fba08ef,62a43e61f8ca17fcfab2d5a3,,,,,,,,,,,,,5,,,,,,,,,,Task,29,(3x8) - 19 ,5,,,,,,,,,,,,,,,,,,,1,,,,,,,,,,,,,,,,,,,,,space,9.4759,"[""5""]",1,[3.6122000000001435],0,0,0,28,1,,,,,,,,,,,,,,,,,,,,,,,,,,
,,,,,,,,,,,X V Q F H G B L J M P D K C T S W R N Z,5a958d78f05361000171c54c,30,Mężczyzna,2022-06-11_09h06.26.507,task,2021.1.4,Win32,60.04924038,6299f149e92ead563fba08ef,62a43e61f8ca17fcfab2d5a3,,,,,,,,,,,,,,,,,,,,,,,,,,,,,,,,,,,,,,,,,,,,,,,,,,,,,,,,,,,,,,,,,,,,,,,,,,,,0,0,0,0,1,,,,,,,,,,,,,,,,,,,,,
,,,,,,,,,,,,5a958d78f05361000171c54c,30,Mężczyzna,2022-06-11_09h06.26.507,task,2021.1.4,Win32,60.04924038,6299f149e92ead563fba08ef,62a43e61f8ca17fcfab2d5a3,,,,,,,,,,,,,8,,,,,,,,,,Task,23,(2x3) + 2,8,,,,,,,,,,,,,,,,,,,1,,,,,,,,,,,,,,,,,,,,,,,"[""8""]",1,[2.9680000000000177],0,0,0,22,1,,,,,,,,,,,,,,,,,,,,,,,,,,
,,,,,,,,,,,X V Q F H G B L J M P D K C T S W R N Z,5a958d78f05361000171c54c,30,Mężczyzna,2022-06-11_09h06.26.507,task,2021.1.4,Win32,60.04924038,6299f149e92ead563fba08ef,62a43e61f8ca17fcfab2d5a3,,,,,,,,,,,,,,,,,,,,,,,,,,,,,,,,,,,,,,,,,,,,,,,,,,,,,,,,,,,,,,,,,,,,,,,,,,,,1,0,1,0,1,,,,,,,,,,,,,,,,,,,,,
,,,,,,,,,,,,5a958d78f05361000171c54c,30,Mężczyzna,2022-06-11_09h06.26.507,task,2021.1.4,Win32,60.04924038,6299f149e92ead563fba08ef,62a43e61f8ca17fcfab2d5a3,,,,,,,,,,,,,,,,,,,,,,,,,,,,,,,,,,,,,,,,,,,,,,,,,,,,,,,,,,,,,,,,,,,,,,,,,,,,,,,,,zb,"[""z"",""b""]",0,"[1.5333000000002812,1.6680000000000064,2.055999999999983]",1,ZB,0,0,0,0,1,,,,,,,,,,
,,,,,,,,,,,,5a958d78f05361000171c54c,30,Mężczyzna,2022-06-11_09h06.26.507,task,2021.1.4,Win32,60.04924038,6299f149e92ead563fba08ef,62a43e61f8ca17fcfab2d5a3,,,,,,,,,,,,,8,,,,,,,,,,Task,23,(2x3) + 2,8,,,,,,,,,,,,,,,,,,,1,,,,,,,,,,,,,,,,,,,,,,,"[""8""]",1,[2.1798999999999182],0,0,0,22,1,,,,,,,,,,,,,,,,,,,,,,,,,,
,,,,,,,,,,,X V Q F H G B L J M P D K C T S W R N Z,5a958d78f05361000171c54c,30,Mężczyzna,2022-06-11_09h06.26.507,task,2021.1.4,Win32,60.04924038,6299f149e92ead563fba08ef,62a43e61f8ca17fcfab2d5a3,,,,,,,,,,,,,,,,,,,,,,,,,,,,,,,,,,,,,,,,,,,,,,,,,,,,,,,,,,,,,,,,,,,,,,,,,,,,0,0,0,0,1,,,,,,,,,,,,,,,,,,,,,
,,,,,,,,,,,,5a958d78f05361000171c54c,30,Mężczyzna,2022-06-11_09h06.26.507,task,2021.1.4,Win32,60.04924038,6299f149e92ead563fba08ef,62a43e61f8ca17fcfab2d5a3,,,,,,,,,,,,,,,,,,,,,,,Task,14,(2x2) + 3,7,,,,,,,,,,,,,,,,,,,0,,,,,,,,,,,,,,,,,,,,,,,,0,,0,0,0,13,1,,,,,,,,,,,,,,,,,,,,,,,,,,
,,,,,,,,,,,,5a958d78f05361000171c54c,30,Mężczyzna,2022-06-11_09h06.26.507,task,2021.1.4,Win32,60.04924038,6299f149e92ead563fba08ef,62a43e61f8ca17fcfab2d5a3,,,,,,,,,,,,,6,,,,,,,,,,Task,13,(3x4) - 6,6,,,,,,,,,,,,,,,,,,,1,,,,,,,,,,,,,,,,,,,,,,,"[""6""]",1,[3.4192000000002167],0,1,1,12,1,,,,,,,,,,,,,,,,,,,,,,,,,,
,,,,,,,,,,,X V Q F H G B L J M P D K C T S W R N Z,5a958d78f05361000171c54c,30,Mężczyzna,2022-06-11_09h06.26.507,task,2021.1.4,Win32,60.04924038,6299f149e92ead563fba08ef,62a43e61f8ca17fcfab2d5a3,,,,,,,,,,,,,,,,,,,,,,,,,,,,,,,,,,,,,,,,,,,,,,,,,,,,,,,,,,,,,,,,,,,,,,,,,,,,1,0,1,0,1,,,,,,,,,,,,,,,,,,,,,
,,,,,,,,,,,,5a958d78f05361000171c54c,30,Mężczyzna,2022-06-11_09h06.26.507,task,2021.1.4,Win32,60.04924038,6299f149e92ead563fba08ef,62a43e61f8ca17fcfab2d5a3,,,,,,,,,,,,,7,,,,,,,,,,Task,16,(3x8) - 15,9,,,,,,,,,,,,,,,,,,,0,,,,,,,,,,,,,,,,,,,,,,,"[""7""]",0,[3.3865000000000123],0,0,0,15,1,,,,,,,,,,,,,,,,,,,,,,,,,,
,,,,,,,,,,,,5a958d78f05361000171c54c,30,Mężczyzna,2022-06-11_09h06.26.507,task,2021.1.4,Win32,60.04924038,6299f149e92ead563fba08ef,62a43e61f8ca17fcfab2d5a3,,,,,,,,,,,,,6,,,,,,,,,,Task,13,(3x4) - 6,6,,,,,,,,,,,,,,,,,,,1,,,,,,,,,,,,,,,,,,,,,,,"[""6""]",1,[3.4403000000003203],0,1,1,12,1,,,,,,,,,,,,,,,,,,,,,,,,,,
,,,,,,,,,,,X V Q F H G B L J M P D K C T S W R N Z,5a958d78f05361000171c54c,30,Mężczyzna,2022-06-11_09h06.26.507,task,2021.1.4,Win32,60.04924038,6299f149e92ead563fba08ef,62a43e61f8ca17fcfab2d5a3,,,,,,,,,,,,,,,,,,,,,,,,,,,,,,,,,,,,,,,,,,,,,,,,,,,,,,,,,,,,,,,,,,,,,,,,,,,,2,0,2,0,1,,,,,,,,,,,,,,,,,,,,,
,,,,,,,,,,,,5a958d78f05361000171c54c,30,Mężczyzna,2022-06-11_09h06.26.507,task,2021.1.4,Win32,60.04924038,6299f149e92ead563fba08ef,62a43e61f8ca17fcfab2d5a3,,,,,,,,,,,,,,,,,,,,,,,,,,,,,,,,,,,,,,,,,,,,,,,,,,,,,,,,,,,,,,,,,,,,,,,,,,,,,,,,,vb,"[""v"",""b""]",0,"[1.6887999999997874,1.8907999999997855,3.262100000000089]",0,ZVB,1,0,1,0,1,,,,,,,,,,
,,,,,,,,,,,,5a958d78f05361000171c54c,30,Mężczyzna,2022-06-11_09h06.26.507,task,2021.1.4,Win32,60.04924038,6299f149e92ead563fba08ef,62a43e61f8ca17fcfab2d5a3,,,,,,,,,,,,,8,,,,,,,,,,Task,23,(2x3) + 2,8,,,,,,,,,,,,,,,,,,,1,,,,,,,,,,,,,,,,,,,,,,,"[""8""]",1,[2.5617999999998347],0,0,0,22,1,,,,,,,,,,,,,,,,,,,,,,,,,,
,,,,,,,,,,,X V Q F H G B L J M P D K C T S W R N Z,5a958d78f05361000171c54c,30,Mężczyzna,2022-06-11_09h06.26.507,task,2021.1.4,Win32,60.04924038,6299f149e92ead563fba08ef,62a43e61f8ca17fcfab2d5a3,,,,,,,,,,,,,,,,,,,,,,,,,,,,,,,,,,,,,,,,,,,,,,,,,,,,,,,,,,,,,,,,,,,,,,,,,,,,0,0,0,0,1,,,,,,,,,,,,,,,,,,,,,
,,,,,,,,,,,,5a958d78f05361000171c54c,30,Mężczyzna,2022-06-11_09h06.26.507,task,2021.1.4,Win32,60.04924038,6299f149e92ead563fba08ef,62a43e61f8ca17fcfab2d5a3,,,,,,,,,,,,,3,,,,,,,,,,Task,20,(18/9) + 1,3,,,,,,,,,,,,,,,,,,,1,,,,,,,,,,,,,,,,,,,,,,,"[""3""]",1,[2.3360999999996466],0,0,0,19,1,,,,,,,,,,,,,,,,,,,,,,,,,,
,,,,,,,,,,,X V Q F H G B L J M P D K C T S W R N Z,5a958d78f05361000171c54c,30,Mężczyzna,2022-06-11_09h06.26.507,task,2021.1.4,Win32,60.04924038,6299f149e92ead563fba08ef,62a43e61f8ca17fcfab2d5a3,,,,,,,,,,,,,,,,,,,,,,,,,,,,,,,,,,,,,,,,,,,,,,,,,,,,,,,,,,,,,,,,,,,,,,,,,,,,1,0,1,0,1,,,,,,,,,,,,,,,,,,,,,
,,,,,,,,,,,,5a958d78f05361000171c54c,30,Mężczyzna,2022-06-11_09h06.26.507,task,2021.1.4,Win32,60.04924038,6299f149e92ead563fba08ef,62a43e61f8ca17fcfab2d5a3,,,,,,,,,,,,,3,,,,,,,,,,Task,35,(1x2) + 1,3,,,,,,,,,,,,,,,,,,,1,,,,,,,,,,,,,,,,,,,,,,,"[""3""]",1,[2.167799999999829],0,0,0,34,1,,,,,,,,,,,,,,,,,,,,,,,,,,
,,,,,,,,,,,X V Q F H G B L J M P D K C T S W R N Z,5a958d78f05361000171c54c,30,Mężczyzna,2022-06-11_09h06.26.507,task,2021.1.4,Win32,60.04924038,6299f149e92ead563fba08ef,62a43e61f8ca17fcfab2d5a3,,,,,,,,,,,,,,,,,,,,,,,,,,,,,,,,,,,,,,,,,,,,,,,,,,,,,,,,,,,,,,,,,,,,,,,,,,,,2,0,2,0,1,,,,,,,,,,,,,,,,,,,,,
,,,,,,,,,,,,5a958d78f05361000171c54c,30,Mężczyzna,2022-06-11_09h06.26.507,task,2021.1.4,Win32,60.04924038,6299f149e92ead563fba08ef,62a43e61f8ca17fcfab2d5a3,,,,,,,,,,,,,,,,,,,,,,,,,,,,,,,,,,,,,,,,,,,,,,,,,,,,,,,,,,,,,,,,,,,,,,,,,,,,,,,,,gbj,"[""g"",""b"",""j""]",0,"[1.7170000000000414,1.8950000000000387,2.7375000000000114,3.157000000000039]",1,GBJ,2,0,2,0,1,,,,,,,,,,
,,,,,,,,,,,,5a958d78f05361000171c54c,30,Mężczyzna,2022-06-11_09h06.26.507,task,2021.1.4,Win32,60.04924038,6299f149e92ead563fba08ef,62a43e61f8ca17fcfab2d5a3,,,,,,,,,,,,,3,,,,,,,,,,Task,3,(2x3) - 3,3,,,,,,,,,,,,,,,,,,,1,,,,,,,,,,,,,,,,,,,,,,,"[""3""]",1,[2.480299999999829],0,0,0,2,1,,,,,,,,,,,,,,,,,,,,,,,,,,
,,,,,,,,,,,X V Q F H G B L J M P D K C T S W R N Z,5a958d78f05361000171c54c,30,Mężczyzna,2022-06-11_09h06.26.507,task,2021.1.4,Win32,60.04924038,6299f149e92ead563fba08ef,62a43e61f8ca17fcfab2d5a3,,,,,,,,,,,,,,,,,,,,,,,,,,,,,,,,,,,,,,,,,,,,,,,,,,,,,,,,,,,,,,,,,,,,,,,,,,,,0,0,0,0,1,,,,,,,,,,,,,,,,,,,,,
,,,,,,,,,,,,5a958d78f05361000171c54c,30,Mężczyzna,2022-06-11_09h06.26.507,task,2021.1.4,Win32,60.04924038,6299f149e92ead563fba08ef,62a43e61f8ca17fcfab2d5a3,,,,,,,,,,,,,0,,,,,,,,,,Task,17,(2x3) - 6,0,,,,,,,,,,,,,,,,,,,1,,,,,,,,,,,,,,,,,,,,,,,"[""0""]",1,[2.252999999999986],0,0,0,16,1,,,,,,,,,,,,,,,,,,,,,,,,,,
,,,,,,,,,,,X V Q F H G B L J M P D K C T S W R N Z,5a958d78f05361000171c54c,30,Mężczyzna,2022-06-11_09h06.26.507,task,2021.1.4,Win32,60.04924038,6299f149e92ead563fba08ef,62a43e61f8ca17fcfab2d5a3,,,,,,,,,,,,,,,,,,,,,,,,,,,,,,,,,,,,,,,,,,,,,,,,,,,,,,,,,,,,,,,,,,,,,,,,,,,,1,0,1,0,1,,,,,,,,,,,,,,,,,,,,,
,,,,,,,,,,,,5a958d78f05361000171c54c,30,Mężczyzna,2022-06-11_09h06.26.507,task,2021.1.4,Win32,60.04924038,6299f149e92ead563fba08ef,62a43e61f8ca17fcfab2d5a3,,,,,,,,,,,,,,,,,,,,,,,Task,15,(3x7) - 13,8,,,,,,,,,,,,,,,,,,,0,,,,,,,,,,,,,,,,,,,,,,,,0,,0,0,0,14,1,,,,,,,,,,,,,,,,,,,,,,,,,,
,,,,,,,,,,,,5a958d78f05361000171c54c,30,Mężczyzna,2022-06-11_09h06.26.507,task,2021.1.4,Win32,60.04924038,6299f149e92ead563fba08ef,62a43e61f8ca17fcfab2d5a3,,,,,,,,,,,,,7,,,,,,,,,,Task,38,(4x6) - 17,7,,,,,,,,,,,,,,,,,,,1,,,,,,,,,,,,,,,,,,,,,,,"[""7""]",1,[3.2130000000000223],0,1,1,37,1,,,,,,,,,,,,,,,,,,,,,,,,,,
,,,,,,,,,,,X V Q F H G B L J M P D K C T S W R N Z,5a958d78f05361000171c54c,30,Mężczyzna,2022-06-11_09h06.26.507,task,2021.1.4,Win32,60.04924038,6299f149e92ead563fba08ef,62a43e61f8ca17fcfab2d5a3,,,,,,,,,,,,,,,,,,,,,,,,,,,,,,,,,,,,,,,,,,,,,,,,,,,,,,,,,,,,,,,,,,,,,,,,,,,,2,0,2,0,1,,,,,,,,,,,,,,,,,,,,,
,,,,,,,,,,,,5a958d78f05361000171c54c,30,Mężczyzna,2022-06-11_09h06.26.507,task,2021.1.4,Win32,60.04924038,6299f149e92ead563fba08ef,62a43e61f8ca17fcfab2d5a3,,,,,,,,,,,,,7,,,,,,,,,,Task,6,(12/2) + 1,7,,,,,,,,,,,,,,,,,,,1,,,,,,,,,,,,,,,,,,,,,,,"[""7""]",1,[2.6078999999999155],0,0,0,5,1,,,,,,,,,,,,,,,,,,,,,,,,,,
,,,,,,,,,,,X V Q F H G B L J M P D K C T S W R N Z,5a958d78f05361000171c54c,30,Mężczyzna,2022-06-11_09h06.26.507,task,2021.1.4,Win32,60.04924038,6299f149e92ead563fba08ef,62a43e61f8ca17fcfab2d5a3,,,,,,,,,,,,,,,,,,,,,,,,,,,,,,,,,,,,,,,,,,,,,,,,,,,,,,,,,,,,,,,,,,,,,,,,,,,,3,0,3,0,1,,,,,,,,,,,,,,,,,,,,,
,,,,,,,,,,,,5a958d78f05361000171c54c,30,Mężczyzna,2022-06-11_09h06.26.507,task,2021.1.4,Win32,60.04924038,6299f149e92ead563fba08ef,62a43e61f8ca17fcfab2d5a3,,,,,,,,,,,,,,,,,,,,,,,,,,,,,,,,,,,,,,,,,,,,,,,,,,,,,,,,,,,,,,,,,,,,,,,,,,,,,,,,,cvwb,"[""c"",""v"",""w"",""b""]",0,"[1.6014999999999873,1.7864000000003557,2.459000000000003,2.712300000000255,3.44290000000035]",1,CVWB,3,0,3,0,1,,,,,,,,,,
,,,,,,,,,,,,5a958d78f05361000171c54c,30,Mężczyzna,2022-06-11_09h06.26.507,task,2021.1.4,Win32,60.04924038,6299f149e92ead563fba08ef,62a43e61f8ca17fcfab2d5a3,,,,,,,,,,,,,8,,,,,,,,,,Task,15,(3x7) - 13,8,,,,,,,,,,,,,,,,,,,1,,,,,,,,,,,,,,,,,,,,,,,"[""8""]",1,[3.2384999999999877],0,0,0,14,1,,,,,,,,,,,,,,,,,,,,,,,,,,
,,,,,,,,,,,X V Q F H G B L J M P D K C T S W R N Z,5a958d78f05361000171c54c,30,Mężczyzna,2022-06-11_09h06.26.507,task,2021.1.4,Win32,60.04924038,6299f149e92ead563fba08ef,62a43e61f8ca17fcfab2d5a3,,,,,,,,,,,,,,,,,,,,,,,,,,,,,,,,,,,,,,,,,,,,,,,,,,,,,,,,,,,,,,,,,,,,,,,,,,,,0,0,0,0,1,,,,,,,,,,,,,,,,,,,,,
,,,,,,,,,,,,5a958d78f05361000171c54c,30,Mężczyzna,2022-06-11_09h06.26.507,task,2021.1.4,Win32,60.04924038,6299f149e92ead563fba08ef,62a43e61f8ca17fcfab2d5a3,,,,,,,,,,,,,0,,,,,,,,,,Task,33,(1/1) - 1,0,,,,,,,,,,,,,,,,,,,1,,,,,,,,,,,,,,,,,,,,,,,"[""0""]",1,[1.8153999999998973],0,0,0,32,1,,,,,,,,,,,,,,,,,,,,,,,,,,
,,,,,,,,,,,X V Q F H G B L J M P D K C T S W R N Z,5a958d78f05361000171c54c,30,Mężczyzna,2022-06-11_09h06.26.507,task,2021.1.4,Win32,60.04924038,6299f149e92ead563fba08ef,62a43e61f8ca17fcfab2d5a3,,,,,,,,,,,,,,,,,,,,,,,,,,,,,,,,,,,,,,,,,,,,,,,,,,,,,,,,,,,,,,,,,,,,,,,,,,,,1,0,1,0,1,,,,,,,,,,,,,,,,,,,,,
,,,,,,,,,,,,5a958d78f05361000171c54c,30,Mężczyzna,2022-06-11_09h06.26.507,task,2021.1.4,Win32,60.04924038,6299f149e92ead563fba08ef,62a43e61f8ca17fcfab2d5a3,,,,,,,,,,,,,0,,,,,,,,,,Task,25,(10/5) - 2,0,,,,,,,,,,,,,,,,,,,1,,,,,,,,,,,,,,,,,,,,,,,"[""0""]",1,[2.6954999999999814],0,0,0,24,1,,,,,,,,,,,,,,,,,,,,,,,,,,
,,,,,,,,,,,X V Q F H G B L J M P D K C T S W R N Z,5a958d78f05361000171c54c,30,Mężczyzna,2022-06-11_09h06.26.507,task,2021.1.4,Win32,60.04924038,6299f149e92ead563fba08ef,62a43e61f8ca17fcfab2d5a3,,,,,,,,,,,,,,,,,,,,,,,,,,,,,,,,,,,,,,,,,,,,,,,,,,,,,,,,,,,,,,,,,,,,,,,,,,,,2,0,2,0,1,,,,,,,,,,,,,,,,,,,,,
,,,,,,,,,,,,5a958d78f05361000171c54c,30,Mężczyzna,2022-06-11_09h06.26.507,task,2021.1.4,Win32,60.04924038,6299f149e92ead563fba08ef,62a43e61f8ca17fcfab2d5a3,,,,,,,,,,,,,8,,,,,,,,,,Task,32,(8/2) + 4,8,,,,,,,,,,,,,,,,,,,1,,,,,,,,,,,,,,,,,,,,,,,"[""8""]",1,[2.8656999999997197],0,0,0,31,1,,,,,,,,,,,,,,,,,,,,,,,,,,
,,,,,,,,,,,X V Q F H G B L J M P D K C T S W R N Z,5a958d78f05361000171c54c,30,Mężczyzna,2022-06-11_09h06.26.507,task,2021.1.4,Win32,60.04924038,6299f149e92ead563fba08ef,62a43e61f8ca17fcfab2d5a3,,,,,,,,,,,,,,,,,,,,,,,,,,,,,,,,,,,,,,,,,,,,,,,,,,,,,,,,,,,,,,,,,,,,,,,,,,,,3,0,3,0,1,,,,,,,,,,,,,,,,,,,,,
,,,,,,,,,,,,5a958d78f05361000171c54c,30,Mężczyzna,2022-06-11_09h06.26.507,task,2021.1.4,Win32,60.04924038,6299f149e92ead563fba08ef,62a43e61f8ca17fcfab2d5a3,,,,,,,,,,,,,8,,,,,,,,,,Task,23,(2x3) + 2,8,,,,,,,,,,,,,,,,,,,1,,,,,,,,,,,,,,,,,,,,,,,"[""8""]",1,[1.823299999999847],0,0,0,22,1,,,,,,,,,,,,,,,,,,,,,,,,,,
,,,,,,,,,,,X V Q F H G B L J M P D K C T S W R N Z,5a958d78f05361000171c54c,30,Mężczyzna,2022-06-11_09h06.26.507,task,2021.1.4,Win32,60.04924038,6299f149e92ead563fba08ef,62a43e61f8ca17fcfab2d5a3,,,,,,,,,,,,,,,,,,,,,,,,,,,,,,,,,,,,,,,,,,,,,,,,,,,,,,,,,,,,,,,,,,,,,,,,,,,,4,0,4,0,1,,,,,,,,,,,,,,,,,,,,,
,,,,,,,,,,,,5a958d78f05361000171c54c,30,Mężczyzna,2022-06-11_09h06.26.507,task,2021.1.4,Win32,60.04924038,6299f149e92ead563fba08ef,62a43e61f8ca17fcfab2d5a3,,,,,,,,,,,,,,,,,,,,,,,,,,,,,,,,,,,,,,,,,,,,,,,,,,,,,,,,,,,,,,,,,,,,,,,,,,,,,,,,,lgpgw,"[""l"",""g"",""p"",""g"",""w""]",0,"[2.3603999999999132,2.6479999999999677,2.897899999999879,3.132000000000005,3.415699999999731,3.781499999999994]",1,LGPGW,4,0,4,0,1,,,,,,,,,,
,,,,,,,,,,,,5a958d78f05361000171c54c,30,Mężczyzna,2022-06-11_09h06.26.507,task,2021.1.4,Win32,60.04924038,6299f149e92ead563fba08ef,62a43e61f8ca17fcfab2d5a3,,,,,,,,,,,,,7,,,,,,,,,,Task,6,(12/2) + 1,7,,,,,,,,,,,,,,,,,,,1,,,,,,,,,,,,,,,,,,,,,,,"[""7""]",1,[2.096400000000358],0,0,0,5,1,,,,,,,,,,,,,,,,,,,,,,,,,,
,,,,,,,,,,,X V Q F H G B L J M P D K C T S W R N Z,5a958d78f05361000171c54c,30,Mężczyzna,2022-06-11_09h06.26.507,task,2021.1.4,Win32,60.04924038,6299f149e92ead563fba08ef,62a43e61f8ca17fcfab2d5a3,,,,,,,,,,,,,,,,,,,,,,,,,,,,,,,,,,,,,,,,,,,,,,,,,,,,,,,,,,,,,,,,,,,,,,,,,,,,0,0,0,0,1,,,,,,,,,,,,,,,,,,,,,
,,,,,,,,,,,,5a958d78f05361000171c54c,30,Mężczyzna,2022-06-11_09h06.26.507,task,2021.1.4,Win32,60.04924038,6299f149e92ead563fba08ef,62a43e61f8ca17fcfab2d5a3,,,,,,,,,,,,,8,,,,,,,,,,Task,39,(5x3) - 7,8,,,,,,,,,,,,,,,,,,,1,,,,,,,,,,,,,,,,,,,,,,,"[""8""]",1,[3.515900000000329],0,0,0,38,1,,,,,,,,,,,,,,,,,,,,,,,,,,
,,,,,,,,,,,X V Q F H G B L J M P D K C T S W R N Z,5a958d78f05361000171c54c,30,Mężczyzna,2022-06-11_09h06.26.507,task,2021.1.4,Win32,60.04924038,6299f149e92ead563fba08ef,62a43e61f8ca17fcfab2d5a3,,,,,,,,,,,,,,,,,,,,,,,,,,,,,,,,,,,,,,,,,,,,,,,,,,,,,,,,,,,,,,,,,,,,,,,,,,,,1,0,1,0,1,,,,,,,,,,,,,,,,,,,,,
,,,,,,,,,,,,5a958d78f05361000171c54c,30,Mężczyzna,2022-06-11_09h06.26.507,task,2021.1.4,Win32,60.04924038,6299f149e92ead563fba08ef,62a43e61f8ca17fcfab2d5a3,,,,,,,,,,,,,8,,,,,,,,,,Task,15,(3x7) - 13,8,,,,,,,,,,,,,,,,,,,1,,,,,,,,,,,,,,,,,,,,,,,"[""8""]",1,[2.416999999999973],0,0,0,14,1,,,,,,,,,,,,,,,,,,,,,,,,,,
,,,,,,,,,,,X V Q F H G B L J M P D K C T S W R N Z,5a958d78f05361000171c54c,30,Mężczyzna,2022-06-11_09h06.26.507,task,2021.1.4,Win32,60.04924038,6299f149e92ead563fba08ef,62a43e61f8ca17fcfab2d5a3,,,,,,,,,,,,,,,,,,,,,,,,,,,,,,,,,,,,,,,,,,,,,,,,,,,,,,,,,,,,,,,,,,,,,,,,,,,,2,0,2,0,1,,,,,,,,,,,,,,,,,,,,,
,,,,,,,,,,,,5a958d78f05361000171c54c,30,Mężczyzna,2022-06-11_09h06.26.507,task,2021.1.4,Win32,60.04924038,6299f149e92ead563fba08ef,62a43e61f8ca17fcfab2d5a3,,,,,,,,,,,,,6,,,,,,,,,,Task,12,(4x4) - 11,5,,,,,,,,,,,,,,,,,,,0,,,,,,,,,,,,,,,,,,,,,,,"[""6""]",0,[2.1860000000000355],0,0,0,11,1,,,,,,,,,,,,,,,,,,,,,,,,,,
,,,,,,,,,,,,5a958d78f05361000171c54c,30,Mężczyzna,2022-06-11_09h06.26.507,task,2021.1.4,Win32,60.04924038,6299f149e92ead563fba08ef,62a43e61f8ca17fcfab2d5a3,,,,,,,,,,,,,2,,,,,,,,,,Task,18,(16/4) - 3,1,,,,,,,,,,,,,,,,,,,0,,,,,,,,,,,,,,,,,,,,,,,"[""2""]",0,[2.914600000000064],0,1,1,17,1,,,,,,,,,,,,,,,,,,,,,,,,,,
,,,,,,,,,,,,5a958d78f05361000171c54c,30,Mężczyzna,2022-06-11_09h06.26.507,task,2021.1.4,Win32,60.04924038,6299f149e92ead563fba08ef,62a43e61f8ca17fcfab2d5a3,,,,,,,,,,,,,0,,,,,,,,,,Task,33,(1/1) - 1,0,,,,,,,,,,,,,,,,,,,1,,,,,,,,,,,,,,,,,,,,,,,"[""0""]",1,[1.327099999999632],0,2,2,32,1,,,,,,,,,,,,,,,,,,,,,,,,,,
,,,,,,,,,,,X V Q F H G B L J M P D K C T S W R N Z,5a958d78f05361000171c54c,30,Mężczyzna,2022-06-11_09h06.26.507,task,2021.1.4,Win32,60.04924038,6299f149e92ead563fba08ef,62a43e61f8ca17fcfab2d5a3,,,,,,,,,,,,,,,,,,,,,,,,,,,,,,,,,,,,,,,,,,,,,,,,,,,,,,,,,,,,,,,,,,,,,,,,,,,,3,0,3,0,1,,,,,,,,,,,,,,,,,,,,,
,,,,,,,,,,,,5a958d78f05361000171c54c,30,Mężczyzna,2022-06-11_09h06.26.507,task,2021.1.4,Win32,60.04924038,6299f149e92ead563fba08ef,62a43e61f8ca17fcfab2d5a3,,,,,,,,,,,,,3,,,,,,,,,,Task,27,(3/3) + 2,3,,,,,,,,,,,,,,,,,,,1,,,,,,,,,,,,,,,,,,,,,,,"[""3""]",1,[2.0154999999999745],0,0,0,26,1,,,,,,,,,,,,,,,,,,,,,,,,,,
,,,,,,,,,,,X V Q F H G B L J M P D K C T S W R N Z,5a958d78f05361000171c54c,30,Mężczyzna,2022-06-11_09h06.26.507,task,2021.1.4,Win32,60.04924038,6299f149e92ead563fba08ef,62a43e61f8ca17fcfab2d5a3,,,,,,,,,,,,,,,,,,,,,,,,,,,,,,,,,,,,,,,,,,,,,,,,,,,,,,,,,,,,,,,,,,,,,,,,,,,,4,0,4,0,1,,,,,,,,,,,,,,,,,,,,,
,,,,,,,,,,,,5a958d78f05361000171c54c,30,Mężczyzna,2022-06-11_09h06.26.507,task,2021.1.4,Win32,60.04924038,6299f149e92ead563fba08ef,62a43e61f8ca17fcfab2d5a3,,,,,,,,,,,,,8,,,,,,,,,,Task,23,(2x3) + 2,8,,,,,,,,,,,,,,,,,,,1,,,,,,,,,,,,,,,,,,,,,,,"[""8""]",1,[2.2332000000001813],0,0,0,22,1,,,,,,,,,,,,,,,,,,,,,,,,,,
,,,,,,,,,,,X V Q F H G B L J M P D K C T S W R N Z,5a958d78f05361000171c54c,30,Mężczyzna,2022-06-11_09h06.26.507,task,2021.1.4,Win32,60.04924038,6299f149e92ead563fba08ef,62a43e61f8ca17fcfab2d5a3,,,,,,,,,,,,,,,,,,,,,,,,,,,,,,,,,,,,,,,,,,,,,,,,,,,,,,,,,,,,,,,,,,,,,,,,,,,,5,0,5,0,1,,,,,,,,,,,,,,,,,,,,,
,,,,,,,,,,,,5a958d78f05361000171c54c,30,Mężczyzna,2022-06-11_09h06.26.507,task,2021.1.4,Win32,60.04924038,6299f149e92ead563fba08ef,62a43e61f8ca17fcfab2d5a3,,,,,,,,,,,,,,,,,,,,,,,,,,,,,,,,,,,,,,,,,,,,,,,,,,,,,,,,,,,,,,,,,,,,,,,,,,,,,,,,,vhwxwj,"[""v"",""h"",""w"",""x"",""w"",""j""]",0,"[2.2347999999998365,2.7270000000000323,3.182899999999904,4.186600000000112,4.618799999999851,5.29039999999992,6.333500000000015]",1,VHWXWJ,5,0,5,0,1,,,,,,,,,,
,,,,,,,,,,,,5a958d78f05361000171c54c,30,Mężczyzna,2022-06-11_09h06.26.507,task,2021.1.4,Win32,60.04924038,6299f149e92ead563fba08ef,62a43e61f8ca17fcfab2d5a3,,,,,,,,,,,,,0,,,,,,,,,,Task,38,(4x6) - 17,7,,,,,,,,,,,,,,,,,,,0,,,,,,,,,,,,,,,,,,,,,,,"[""0""]",0,[3.356100000000083],0,0,0,37,1,,,,,,,,,,,,,,,,,,,,,,,,,,
,,,,,,,,,,,,5a958d78f05361000171c54c,30,Mężczyzna,2022-06-11_09h06.26.507,task,2021.1.4,Win32,60.04924038,6299f149e92ead563fba08ef,62a43e61f8ca17fcfab2d5a3,,,,,,,,,,,,,0,,,,,,,,,,Task,17,(2x3) - 6,0,,,,,,,,,,,,,,,,,,,1,,,,,,,,,,,,,,,,,,,,,,,"[""0""]",1,[1.8950000000000387],0,1,1,16,1,,,,,,,,,,,,,,,,,,,,,,,,,,
,,,,,,,,,,,X V Q F H G B L J M P D K C T S W R N Z,5a958d78f05361000171c54c,30,Mężczyzna,2022-06-11_09h06.26.507,task,2021.1.4,Win32,60.04924038,6299f149e92ead563fba08ef,62a43e61f8ca17fcfab2d5a3,,,,,,,,,,,,,,,,,,,,,,,,,,,,,,,,,,,,,,,,,,,,,,,,,,,,,,,,,,,,,,,,,,,,,,,,,,,,0,0,0,0,1,,,,,,,,,,,,,,,,,,,,,
,,,,,,,,,,,,5a958d78f05361000171c54c,30,Mężczyzna,2022-06-11_09h06.26.507,task,2021.1.4,Win32,60.04924038,6299f149e92ead563fba08ef,62a43e61f8ca17fcfab2d5a3,,,,,,,,,,,,,9,,,,,,,,,,Task,40,(7x2) - 5,9,,,,,,,,,,,,,,,,,,,1,,,,,,,,,,,,,,,,,,,,,,,"[""9""]",1,[2.34270000000015],0,0,0,39,1,,,,,,,,,,,,,,,,,,,,,,,,,,
,,,,,,,,,,,X V Q F H G B L J M P D K C T S W R N Z,5a958d78f05361000171c54c,30,Mężczyzna,2022-06-11_09h06.26.507,task,2021.1.4,Win32,60.04924038,6299f149e92ead563fba08ef,62a43e61f8ca17fcfab2d5a3,,,,,,,,,,,,,,,,,,,,,,,,,,,,,,,,,,,,,,,,,,,,,,,,,,,,,,,,,,,,,,,,,,,,,,,,,,,,1,0,1,0,1,,,,,,,,,,,,,,,,,,,,,
,,,,,,,,,,,,5a958d78f05361000171c54c,30,Mężczyzna,2022-06-11_09h06.26.507,task,2021.1.4,Win32,60.04924038,6299f149e92ead563fba08ef,62a43e61f8ca17fcfab2d5a3,,,,,,,,,,,,,8,,,,,,,,,,Task,32,(8/2) + 4,8,,,,,,,,,,,,,,,,,,,1,,,,,,,,,,,,,,,,,,,,,,,"[""8""]",1,[2.600999999999999],0,0,0,31,1,,,,,,,,,,,,,,,,,,,,,,,,,,
,,,,,,,,,,,X V Q F H G B L J M P D K C T S W R N Z,5a958d78f05361000171c54c,30,Mężczyzna,2022-06-11_09h06.26.507,task,2021.1.4,Win32,60.04924038,6299f149e92ead563fba08ef,62a43e61f8ca17fcfab2d5a3,,,,,,,,,,,,,,,,,,,,,,,,,,,,,,,,,,,,,,,,,,,,,,,,,,,,,,,,,,,,,,,,,,,,,,,,,,,,2,0,2,0,1,,,,,,,,,,,,,,,,,,,,,
,,,,,,,,,,,,5a958d78f05361000171c54c,30,Mężczyzna,2022-06-11_09h06.26.507,task,2021.1.4,Win32,60.04924038,6299f149e92ead563fba08ef,62a43e61f8ca17fcfab2d5a3,,,,,,,,,,,,,8,,,,,,,,,,Task,32,(8/2) + 4,8,,,,,,,,,,,,,,,,,,,1,,,,,,,,,,,,,,,,,,,,,,,"[""8""]",1,[2.3683999999998946],0,0,0,31,1,,,,,,,,,,,,,,,,,,,,,,,,,,
,,,,,,,,,,,X V Q F H G B L J M P D K C T S W R N Z,5a958d78f05361000171c54c,30,Mężczyzna,2022-06-11_09h06.26.507,task,2021.1.4,Win32,60.04924038,6299f149e92ead563fba08ef,62a43e61f8ca17fcfab2d5a3,,,,,,,,,,,,,,,,,,,,,,,,,,,,,,,,,,,,,,,,,,,,,,,,,,,,,,,,,,,,,,,,,,,,,,,,,,,,3,0,3,0,1,,,,,,,,,,,,,,,,,,,,,
,,,,,,,,,,,,5a958d78f05361000171c54c,30,Mężczyzna,2022-06-11_09h06.26.507,task,2021.1.4,Win32,60.04924038,6299f149e92ead563fba08ef,62a43e61f8ca17fcfab2d5a3,,,,,,,,,,,,,0,,,,,,,,,,Task,33,(1/1) - 1,0,,,,,,,,,,,,,,,,,,,1,,,,,,,,,,,,,,,,,,,,,,,"[""0""]",1,[1.9392999999997755],0,0,0,32,1,,,,,,,,,,,,,,,,,,,,,,,,,,
,,,,,,,,,,,X V Q F H G B L J M P D K C T S W R N Z,5a958d78f05361000171c54c,30,Mężczyzna,2022-06-11_09h06.26.507,task,2021.1.4,Win32,60.04924038,6299f149e92ead563fba08ef,62a43e61f8ca17fcfab2d5a3,,,,,,,,,,,,,,,,,,,,,,,,,,,,,,,,,,,,,,,,,,,,,,,,,,,,,,,,,,,,,,,,,,,,,,,,,,,,4,0,4,0,1,,,,,,,,,,,,,,,,,,,,,
,,,,,,,,,,,,5a958d78f05361000171c54c,30,Mężczyzna,2022-06-11_09h06.26.507,task,2021.1.4,Win32,60.04924038,6299f149e92ead563fba08ef,62a43e61f8ca17fcfab2d5a3,,,,,,,,,,,,,9,,,,,,,,,,Task,7,(3x7) - 12,9,,,,,,,,,,,,,,,,,,,1,,,,,,,,,,,,,,,,,,,,,,,"[""9""]",1,[2.900899999999922],0,0,0,6,1,,,,,,,,,,,,,,,,,,,,,,,,,,
,,,,,,,,,,,X V Q F H G B L J M P D K C T S W R N Z,5a958d78f05361000171c54c,30,Mężczyzna,2022-06-11_09h06.26.507,task,2021.1.4,Win32,60.04924038,6299f149e92ead563fba08ef,62a43e61f8ca17fcfab2d5a3,,,,,,,,,,,,,,,,,,,,,,,,,,,,,,,,,,,,,,,,,,,,,,,,,,,,,,,,,,,,,,,,,,,,,,,,,,,,5,0,5,0,1,,,,,,,,,,,,,,,,,,,,,
,,,,,,,,,,,,5a958d78f05361000171c54c,30,Mężczyzna,2022-06-11_09h06.26.507,task,2021.1.4,Win32,60.04924038,6299f149e92ead563fba08ef,62a43e61f8ca17fcfab2d5a3,,,,,,,,,,,,,5,,,,,,,,,,Task,22,(3x1) + 2,5,,,,,,,,,,,,,,,,,,,1,,,,,,,,,,,,,,,,,,,,,,,"[""5""]",1,[2.0896000000001322],0,0,0,21,1,,,,,,,,,,,,,,,,,,,,,,,,,,
,,,,,,,,,,,X V Q F H G B L J M P D K C T S W R N Z,5a958d78f05361000171c54c,30,Mężczyzna,2022-06-11_09h06.26.507,task,2021.1.4,Win32,60.04924038,6299f149e92ead563fba08ef,62a43e61f8ca17fcfab2d5a3,,,,,,,,,,,,,,,,,,,,,,,,,,,,,,,,,,,,,,,,,,,,,,,,,,,,,,,,,,,,,,,,,,,,,,,,,,,,6,0,6,0,1,,,,,,,,,,,,,,,,,,,,,
,,,,,,,,,,,,5a958d78f05361000171c54c,30,Mężczyzna,2022-06-11_09h06.26.507,task,2021.1.4,Win32,60.04924038,6299f149e92ead563fba08ef,62a43e61f8ca17fcfab2d5a3,,,,,,,,,,,,,,,,,,,,,,,,,,,,,,,,,,,,,,,,,,,,,,,,,,,,,,,,,,,,,,,,,,,,,,,,,,,,,,,,,scljvzl,"[""s"",""c"",""l"",""j"",""v"",""z"",""l""]",0,"[1.9242000000002122,2.199100000000101,2.7965000000000373,3.494000000000028,3.745399999999904,4.659500000000037,5.336500000000001,5.694100000000105]",0,SCLJVZX,6,0,6,0,1,,,,,,,,,,
,,,,,,,,,,,,5a958d78f05361000171c54c,30,Mężczyzna,2022-06-11_09h06.26.507,task,2021.1.4,Win32,60.04924038,6299f149e92ead563fba08ef,62a43e61f8ca17fcfab2d5a3,,,,,,,,,,,,,0,,,,,,,,,,Task,33,(1/1) - 1,0,,,,,,,,,,,,,,,,,,,1,,,,,,,,,,,,,,,,,,,,,,,"[""0""]",1,[1.8654000000004203],0,0,0,32,1,,,,,,,,,,,,,,,,,,,,,,,,,,
,,,,,,,,,,,X V Q F H G B L J M P D K C T S W R N Z,5a958d78f05361000171c54c,30,Mężczyzna,2022-06-11_09h06.26.507,task,2021.1.4,Win32,60.04924038,6299f149e92ead563fba08ef,62a43e61f8ca17fcfab2d5a3,,,,,,,,,,,,,,,,,,,,,,,,,,,,,,,,,,,,,,,,,,,,,,,,,,,,,,,,,,,,,,,,,,,,,,,,,,,,0,0,0,0,1,,,,,,,,,,,,,,,,,,,,,
,,,,,,,,,,,,5a958d78f05361000171c54c,30,Mężczyzna,2022-06-11_09h06.26.507,task,2021.1.4,Win32,60.04924038,6299f149e92ead563fba08ef,62a43e61f8ca17fcfab2d5a3,,,,,,,,,,,,,6,,,,,,,,,,Task,5,(2x3) + 0,6,,,,,,,,,,,,,,,,,,,1,,,,,,,,,,,,,,,,,,,,,,,"[""6""]",1,[1.6812000000002172],0,0,0,4,1,,,,,,,,,,,,,,,,,,,,,,,,,,
,,,,,,,,,,,X V Q F H G B L J M P D K C T S W R N Z,5a958d78f05361000171c54c,30,Mężczyzna,2022-06-11_09h06.26.507,task,2021.1.4,Win32,60.04924038,6299f149e92ead563fba08ef,62a43e61f8ca17fcfab2d5a3,,,,,,,,,,,,,,,,,,,,,,,,,,,,,,,,,,,,,,,,,,,,,,,,,,,,,,,,,,,,,,,,,,,,,,,,,,,,1,0,1,0,1,,,,,,,,,,,,,,,,,,,,,
,,,,,,,,,,,,5a958d78f05361000171c54c,30,Mężczyzna,2022-06-11_09h06.26.507,task,2021.1.4,Win32,60.04924038,6299f149e92ead563fba08ef,62a43e61f8ca17fcfab2d5a3,,,,,,,,,,,,,7,,,,,,,,,,Task,14,(2x2) + 3,7,,,,,,,,,,,,,,,,,,,1,,,,,,,,,,,,,,,,,,,,,,,"[""7""]",1,[2.092699999999752],0,0,0,13,1,,,,,,,,,,,,,,,,,,,,,,,,,,
,,,,,,,,,,,X V Q F H G B L J M P D K C T S W R N Z,5a958d78f05361000171c54c,30,Mężczyzna,2022-06-11_09h06.26.507,task,2021.1.4,Win32,60.04924038,6299f149e92ead563fba08ef,62a43e61f8ca17fcfab2d5a3,,,,,,,,,,,,,,,,,,,,,,,,,,,,,,,,,,,,,,,,,,,,,,,,,,,,,,,,,,,,,,,,,,,,,,,,,,,,2,0,2,0,1,,,,,,,,,,,,,,,,,,,,,
,,,,,,,,,,,,5a958d78f05361000171c54c,30,Mężczyzna,2022-06-11_09h06.26.507,task,2021.1.4,Win32,60.04924038,6299f149e92ead563fba08ef,62a43e61f8ca17fcfab2d5a3,,,,,,,,,,,,,9,,,,,,,,,,Task,40,(7x2) - 5,9,,,,,,,,,,,,,,,,,,,1,,,,,,,,,,,,,,,,,,,,,,,"[""9""]",1,[2.7878999999999223],0,0,0,39,1,,,,,,,,,,,,,,,,,,,,,,,,,,
,,,,,,,,,,,X V Q F H G B L J M P D K C T S W R N Z,5a958d78f05361000171c54c,30,Mężczyzna,2022-06-11_09h06.26.507,task,2021.1.4,Win32,60.04924038,6299f149e92ead563fba08ef,62a43e61f8ca17fcfab2d5a3,,,,,,,,,,,,,,,,,,,,,,,,,,,,,,,,,,,,,,,,,,,,,,,,,,,,,,,,,,,,,,,,,,,,,,,,,,,,3,0,3,0,1,,,,,,,,,,,,,,,,,,,,,
,,,,,,,,,,,,5a958d78f05361000171c54c,30,Mężczyzna,2022-06-11_09h06.26.507,task,2021.1.4,Win32,60.04924038,6299f149e92ead563fba08ef,62a43e61f8ca17fcfab2d5a3,,,,,,,,,,,,,2,,,,,,,,,,Task,10,(2x5) - 8,2,,,,,,,,,,,,,,,,,,,1,,,,,,,,,,,,,,,,,,,,,,,"[""2""]",1,[2.3436000000000377],0,0,0,9,1,,,,,,,,,,,,,,,,,,,,,,,,,,
,,,,,,,,,,,X V Q F H G B L J M P D K C T S W R N Z,5a958d78f05361000171c54c,30,Mężczyzna,2022-06-11_09h06.26.507,task,2021.1.4,Win32,60.04924038,6299f149e92ead563fba08ef,62a43e61f8ca17fcfab2d5a3,,,,,,,,,,,,,,,,,,,,,,,,,,,,,,,,,,,,,,,,,,,,,,,,,,,,,,,,,,,,,,,,,,,,,,,,,,,,4,0,4,0,1,,,,,,,,,,,,,,,,,,,,,
,,,,,,,,,,,,5a958d78f05361000171c54c,30,Mężczyzna,2022-06-11_09h06.26.507,task,2021.1.4,Win32,60.04924038,6299f149e92ead563fba08ef,62a43e61f8ca17fcfab2d5a3,,,,,,,,,,,,,4,,,,,,,,,,Task,28,(2x5) - 6,4,,,,,,,,,,,,,,,,,,,1,,,,,,,,,,,,,,,,,,,,,,,"[""4""]",1,[2.8937999999998283],0,0,0,27,1,,,,,,,,,,,,,,,,,,,,,,,,,,
,,,,,,,,,,,X V Q F H G B L J M P D K C T S W R N Z,5a958d78f05361000171c54c,30,Mężczyzna,2022-06-11_09h06.26.507,task,2021.1.4,Win32,60.04924038,6299f149e92ead563fba08ef,62a43e61f8ca17fcfab2d5a3,,,,,,,,,,,,,,,,,,,,,,,,,,,,,,,,,,,,,,,,,,,,,,,,,,,,,,,,,,,,,,,,,,,,,,,,,,,,5,0,5,0,1,,,,,,,,,,,,,,,,,,,,,
,,,,,,,,,,,,5a958d78f05361000171c54c,30,Mężczyzna,2022-06-11_09h06.26.507,task,2021.1.4,Win32,60.04924038,6299f149e92ead563fba08ef,62a43e61f8ca17fcfab2d5a3,,,,,,,,,,,,,9,,,,,,,,,,Task,40,(7x2) - 5,9,,,,,,,,,,,,,,,,,,,1,,,,,,,,,,,,,,,,,,,,,,,"[""9""]",1,[2.127899999999954],0,0,0,39,1,,,,,,,,,,,,,,,,,,,,,,,,,,
,,,,,,,,,,,X V Q F H G B L J M P D K C T S W R N Z,5a958d78f05361000171c54c,30,Mężczyzna,2022-06-11_09h06.26.507,task,2021.1.4,Win32,60.04924038,6299f149e92ead563fba08ef,62a43e61f8ca17fcfab2d5a3,,,,,,,,,,,,,,,,,,,,,,,,,,,,,,,,,,,,,,,,,,,,,,,,,,,,,,,,,,,,,,,,,,,,,,,,,,,,6,0,6,0,1,,,,,,,,,,,,,,,,,,,,,
,,,,,,,,,,,,5a958d78f05361000171c54c,30,Mężczyzna,2022-06-11_09h06.26.507,task,2021.1.4,Win32,60.04924038,6299f149e92ead563fba08ef,62a43e61f8ca17fcfab2d5a3,,,,,,,,,,,,,,,,,,,,,,,,,,,,,,,,,,,,,,,,,,,,,,,,,,,,,,,,,,,,,,,,,,,,,,,,,,,,,,,,,kjkpkfk,"[""k"",""j"",""k"",""p"",""k"",""f"",""k""]",0,"[1.8007999999998674,2.003500000000031,2.8150000000000546,3.095399999999927,3.4617000000002918,4.235399999999913,4.556600000000117,5.67020000000025]",1,KJKPKFK,7,0,7,0,1,,,,,,,,,,
,,,,,,,,,,,,5a958d78f05361000171c54c,30,Mężczyzna,2022-06-11_09h06.26.507,task,2021.1.4,Win32,60.04924038,6299f149e92ead563fba08ef,62a43e61f8ca17fcfab2d5a3,,,,,,,,,,,,,0,,,,,,,,,,Task,25,(10/5) - 2,0,,,,,,,,,,,,,,,,,,,1,,,,,,,,,,,,,,,,,,,,,,,"[""0""]",1,[2.2472999999997683],0,0,0,24,1,,,,,,,,,,,,,,,,,,,,,,,,,,
,,,,,,,,,,,X V Q F H G B L J M P D K C T S W R N Z,5a958d78f05361000171c54c,30,Mężczyzna,2022-06-11_09h06.26.507,task,2021.1.4,Win32,60.04924038,6299f149e92ead563fba08ef,62a43e61f8ca17fcfab2d5a3,,,,,,,,,,,,,,,,,,,,,,,,,,,,,,,,,,,,,,,,,,,,,,,,,,,,,,,,,,,,,,,,,,,,,,,,,,,,0,0,0,0,1,,,,,,,,,,,,,,,,,,,,,
,,,,,,,,,,,,5a958d78f05361000171c54c,30,Mężczyzna,2022-06-11_09h06.26.507,task,2021.1.4,Win32,60.04924038,6299f149e92ead563fba08ef,62a43e61f8ca17fcfab2d5a3,,,,,,,,,,,,,3,,,,,,,,,,Task,27,(3/3) + 2,3,,,,,,,,,,,,,,,,,,,1,,,,,,,,,,,,,,,,,,,,,,,"[""3""]",1,[2.6127000000001317],0,0,0,26,1,,,,,,,,,,,,,,,,,,,,,,,,,,
,,,,,,,,,,,X V Q F H G B L J M P D K C T S W R N Z,5a958d78f05361000171c54c,30,Mężczyzna,2022-06-11_09h06.26.507,task,2021.1.4,Win32,60.04924038,6299f149e92ead563fba08ef,62a43e61f8ca17fcfab2d5a3,,,,,,,,,,,,,,,,,,,,,,,,,,,,,,,,,,,,,,,,,,,,,,,,,,,,,,,,,,,,,,,,,,,,,,,,,,,,1,0,1,0,1,,,,,,,,,,,,,,,,,,,,,
,,,,,,,,,,,,5a958d78f05361000171c54c,30,Mężczyzna,2022-06-11_09h06.26.507,task,2021.1.4,Win32,60.04924038,6299f149e92ead563fba08ef,62a43e61f8ca17fcfab2d5a3,,,,,,,,,,,,,1,,,,,,,,,,Task,1,(12/6) - 1,1,,,,,,,,,,,,,,,,,,,1,,,,,,,,,,,,,,,,,,,,,,,"[""1""]",1,[2.1288000000002967],0,0,0,0,1,,,,,,,,,,,,,,,,,,,,,,,,,,
,,,,,,,,,,,X V Q F H G B L J M P D K C T S W R N Z,5a958d78f05361000171c54c,30,Mężczyzna,2022-06-11_09h06.26.507,task,2021.1.4,Win32,60.04924038,6299f149e92ead563fba08ef,62a43e61f8ca17fcfab2d5a3,,,,,,,,,,,,,,,,,,,,,,,,,,,,,,,,,,,,,,,,,,,,,,,,,,,,,,,,,,,,,,,,,,,,,,,,,,,,2,0,2,0,1,,,,,,,,,,,,,,,,,,,,,
,,,,,,,,,,,,5a958d78f05361000171c54c,30,Mężczyzna,2022-06-11_09h06.26.507,task,2021.1.4,Win32,60.04924038,6299f149e92ead563fba08ef,62a43e61f8ca17fcfab2d5a3,,,,,,,,,,,,,5,,,,,,,,,,Task,36,(8/4) + 3,5,,,,,,,,,,,,,,,,,,,1,,,,,,,,,,,,,,,,,,,,,,,"[""5""]",1,[2.3269000000003643],0,0,0,35,1,,,,,,,,,,,,,,,,,,,,,,,,,,
,,,,,,,,,,,X V Q F H G B L J M P D K C T S W R N Z,5a958d78f05361000171c54c,30,Mężczyzna,2022-06-11_09h06.26.507,task,2021.1.4,Win32,60.04924038,6299f149e92ead563fba08ef,62a43e61f8ca17fcfab2d5a3,,,,,,,,,,,,,,,,,,,,,,,,,,,,,,,,,,,,,,,,,,,,,,,,,,,,,,,,,,,,,,,,,,,,,,,,,,,,3,0,3,0,1,,,,,,,,,,,,,,,,,,,,,
,,,,,,,,,,,,5a958d78f05361000171c54c,30,Mężczyzna,2022-06-11_09h06.26.507,task,2021.1.4,Win32,60.04924038,6299f149e92ead563fba08ef,62a43e61f8ca17fcfab2d5a3,,,,,,,,,,,,,6,,,,,,,,,,Task,32,(8/2) + 4,8,,,,,,,,,,,,,,,,,,,0,,,,,,,,,,,,,,,,,,,,,,,"[""6""]",0,[2.2918000000003076],0,0,0,31,1,,,,,,,,,,,,,,,,,,,,,,,,,,
,,,,,,,,,,,,5a958d78f05361000171c54c,30,Mężczyzna,2022-06-11_09h06.26.507,task,2021.1.4,Win32,60.04924038,6299f149e92ead563fba08ef,62a43e61f8ca17fcfab2d5a3,,,,,,,,,,,,,1,,,,,,,,,,Task,9,(3x7) - 20,1,,,,,,,,,,,,,,,,,,,1,,,,,,,,,,,,,,,,,,,,,,,"[""1""]",1,[1.8743999999999232],0,1,1,8,1,,,,,,,,,,,,,,,,,,,,,,,,,,
,,,,,,,,,,,X V Q F H G B L J M P D K C T S W R N Z,5a958d78f05361000171c54c,30,Mężczyzna,2022-06-11_09h06.26.507,task,2021.1.4,Win32,60.04924038,6299f149e92ead563fba08ef,62a43e61f8ca17fcfab2d5a3,,,,,,,,,,,,,,,,,,,,,,,,,,,,,,,,,,,,,,,,,,,,,,,,,,,,,,,,,,,,,,,,,,,,,,,,,,,,4,0,4,0,1,,,,,,,,,,,,,,,,,,,,,
,,,,,,,,,,,,5a958d78f05361000171c54c,30,Mężczyzna,2022-06-11_09h06.26.507,task,2021.1.4,Win32,60.04924038,6299f149e92ead563fba08ef,62a43e61f8ca17fcfab2d5a3,,,,,,,,,,,,,1,,,,,,,,,,Task,1,(12/6) - 1,1,,,,,,,,,,,,,,,,,,,1,,,,,,,,,,,,,,,,,,,,,,,"[""1""]",1,[1.6687000000001717],0,0,0,0,1,,,,,,,,,,,,,,,,,,,,,,,,,,
,,,,,,,,,,,X V Q F H G B L J M P D K C T S W R N Z,5a958d78f05361000171c54c,30,Mężczyzna,2022-06-11_09h06.26.507,task,2021.1.4,Win32,60.04924038,6299f149e92ead563fba08ef,62a43e61f8ca17fcfab2d5a3,,,,,,,,,,,,,,,,,,,,,,,,,,,,,,,,,,,,,,,,,,,,,,,,,,,,,,,,,,,,,,,,,,,,,,,,,,,,5,0,5,0,1,,,,,,,,,,,,,,,,,,,,,
,,,,,,,,,,,,5a958d78f05361000171c54c,30,Mężczyzna,2022-06-11_09h06.26.507,task,2021.1.4,Win32,60.04924038,6299f149e92ead563fba08ef,62a43e61f8ca17fcfab2d5a3,,,,,,,,,,,,,9,,,,,,,,,,Task,24,(2x2) + 5,9,,,,,,,,,,,,,,,,,,,1,,,,,,,,,,,,,,,,,,,,,,,"[""9""]",1,[1.6491000000000895],0,0,0,23,1,,,,,,,,,,,,,,,,,,,,,,,,,,
,,,,,,,,,,,X V Q F H G B L J M P D K C T S W R N Z,5a958d78f05361000171c54c,30,Mężczyzna,2022-06-11_09h06.26.507,task,2021.1.4,Win32,60.04924038,6299f149e92ead563fba08ef,62a43e61f8ca17fcfab2d5a3,,,,,,,,,,,,,,,,,,,,,,,,,,,,,,,,,,,,,,,,,,,,,,,,,,,,,,,,,,,,,,,,,,,,,,,,,,,,6,0,6,0,1,,,,,,,,,,,,,,,,,,,,,
,,,,,,,,,,,,5a958d78f05361000171c54c,30,Mężczyzna,2022-06-11_09h06.26.507,task,2021.1.4,Win32,60.04924038,6299f149e92ead563fba08ef,62a43e61f8ca17fcfab2d5a3,,,,,,,,,,,,,7,,,,,,,,,,Task,14,(2x2) + 3,7,,,,,,,,,,,,,,,,,,,1,,,,,,,,,,,,,,,,,,,,,,,"[""7""]",1,[2.4319000000003825],0,0,0,13,1,,,,,,,,,,,,,,,,,,,,,,,,,,
,,,,,,,,,,,X V Q F H G B L J M P D K C T S W R N Z,5a958d78f05361000171c54c,30,Mężczyzna,2022-06-11_09h06.26.507,task,2021.1.4,Win32,60.04924038,6299f149e92ead563fba08ef,62a43e61f8ca17fcfab2d5a3,,,,,,,,,,,,,,,,,,,,,,,,,,,,,,,,,,,,,,,,,,,,,,,,,,,,,,,,,,,,,,,,,,,,,,,,,,,,7,0,7,0,1,,,,,,,,,,,,,,,,,,,,,
,,,,,,,,,,,,5a958d78f05361000171c54c,30,Mężczyzna,2022-06-11_09h06.26.507,task,2021.1.4,Win32,60.04924038,6299f149e92ead563fba08ef,62a43e61f8ca17fcfab2d5a3,,,,,,,,,,,,,,,,,,,,,,,,,,,,,,,,,,,,,,,,,,,,,,,,,,,,,,,,,,,,,,,,,,,,,,,,,,,,,,,,,jjqkxlb,"[""j"",""j"",""q"",""k"",""x"",""l"",""b""]",0,"[1.6097999999998365,1.7582999999998492,2.3702999999998156,2.739799999999832,5.23599999999999,6.119799999999827,7.093799999999874,7.5625]",0,JJQKXDLB,8,0,8,0,1,,,,,,,,,,
,,,,,,,,,,,,5a958d78f05361000171c54c,30,Mężczyzna,2022-06-11_09h06.26.507,task,2021.1.4,Win32,60.04924038,6299f149e92ead563fba08ef,62a43e61f8ca17fcfab2d5a3,,,,,,,,,,,,,9,,,,,,,,,,Task,16,(3x8) - 15,9,,,,,,,,,,,,,,,,,,,1,,,,,,,,,,,,,,,,,,,,,,,"[""9""]",1,[3.083199999999806],0,0,0,15,1,,,,,,,,,,,,,,,,,,,,,,,,,,
,,,,,,,,,,,X V Q F H G B L J M P D K C T S W R N Z,5a958d78f05361000171c54c,30,Mężczyzna,2022-06-11_09h06.26.507,task,2021.1.4,Win32,60.04924038,6299f149e92ead563fba08ef,62a43e61f8ca17fcfab2d5a3,,,,,,,,,,,,,,,,,,,,,,,,,,,,,,,,,,,,,,,,,,,,,,,,,,,,,,,,,,,,,,,,,,,,,,,,,,,,0,0,0,0,1,,,,,,,,,,,,,,,,,,,,,
,,,,,,,,,,,,5a958d78f05361000171c54c,30,Mężczyzna,2022-06-11_09h06.26.507,task,2021.1.4,Win32,60.04924038,6299f149e92ead563fba08ef,62a43e61f8ca17fcfab2d5a3,,,,,,,,,,,,,3,,,,,,,,,,Task,20,(18/9) + 1,3,,,,,,,,,,,,,,,,,,,1,,,,,,,,,,,,,,,,,,,,,,,"[""3""]",1,[1.8109000000004016],0,0,0,19,1,,,,,,,,,,,,,,,,,,,,,,,,,,
,,,,,,,,,,,X V Q F H G B L J M P D K C T S W R N Z,5a958d78f05361000171c54c,30,Mężczyzna,2022-06-11_09h06.26.507,task,2021.1.4,Win32,60.04924038,6299f149e92ead563fba08ef,62a43e61f8ca17fcfab2d5a3,,,,,,,,,,,,,,,,,,,,,,,,,,,,,,,,,,,,,,,,,,,,,,,,,,,,,,,,,,,,,,,,,,,,,,,,,,,,1,0,1,0,1,,,,,,,,,,,,,,,,,,,,,
,,,,,,,,,,,,5a958d78f05361000171c54c,30,Mężczyzna,2022-06-11_09h06.26.507,task,2021.1.4,Win32,60.04924038,6299f149e92ead563fba08ef,62a43e61f8ca17fcfab2d5a3,,,,,,,,,,,,,4,,,,,,,,,,Task,28,(2x5) - 6,4,,,,,,,,,,,,,,,,,,,1,,,,,,,,,,,,,,,,,,,,,,,"[""4""]",1,[2.5874000000000024],0,0,0,27,1,,,,,,,,,,,,,,,,,,,,,,,,,,
,,,,,,,,,,,X V Q F H G B L J M P D K C T S W R N Z,5a958d78f05361000171c54c,30,Mężczyzna,2022-06-11_09h06.26.507,task,2021.1.4,Win32,60.04924038,6299f149e92ead563fba08ef,62a43e61f8ca17fcfab2d5a3,,,,,,,,,,,,,,,,,,,,,,,,,,,,,,,,,,,,,,,,,,,,,,,,,,,,,,,,,,,,,,,,,,,,,,,,,,,,2,0,2,0,1,,,,,,,,,,,,,,,,,,,,,
,,,,,,,,,,,,5a958d78f05361000171c54c,30,Mężczyzna,2022-06-11_09h06.26.507,task,2021.1.4,Win32,60.04924038,6299f149e92ead563fba08ef,62a43e61f8ca17fcfab2d5a3,,,,,,,,,,,,,0,,,,,,,,,,Task,17,(2x3) - 6,0,,,,,,,,,,,,,,,,,,,1,,,,,,,,,,,,,,,,,,,,,,,"[""0""]",1,[1.6929999999999836],0,0,0,16,1,,,,,,,,,,,,,,,,,,,,,,,,,,
,,,,,,,,,,,X V Q F H G B L J M P D K C T S W R N Z,5a958d78f05361000171c54c,30,Mężczyzna,2022-06-11_09h06.26.507,task,2021.1.4,Win32,60.04924038,6299f149e92ead563fba08ef,62a43e61f8ca17fcfab2d5a3,,,,,,,,,,,,,,,,,,,,,,,,,,,,,,,,,,,,,,,,,,,,,,,,,,,,,,,,,,,,,,,,,,,,,,,,,,,,3,0,3,0,1,,,,,,,,,,,,,,,,,,,,,
,,,,,,,,,,,,5a958d78f05361000171c54c,30,Mężczyzna,2022-06-11_09h06.26.507,task,2021.1.4,Win32,60.04924038,6299f149e92ead563fba08ef,62a43e61f8ca17fcfab2d5a3,,,,,,,,,,,,,0,,,,,,,,,,Task,8,(1x5) - 5,0,,,,,,,,,,,,,,,,,,,1,,,,,,,,,,,,,,,,,,,,,,,"[""0""]",1,[1.6448000000002594],0,0,0,7,1,,,,,,,,,,,,,,,,,,,,,,,,,,
,,,,,,,,,,,X V Q F H G B L J M P D K C T S W R N Z,5a958d78f05361000171c54c,30,Mężczyzna,2022-06-11_09h06.26.507,task,2021.1.4,Win32,60.04924038,6299f149e92ead563fba08ef,62a43e61f8ca17fcfab2d5a3,,,,,,,,,,,,,,,,,,,,,,,,,,,,,,,,,,,,,,,,,,,,,,,,,,,,,,,,,,,,,,,,,,,,,,,,,,,,4,0,4,0,1,,,,,,,,,,,,,,,,,,,,,
,,,,,,,,,,,,5a958d78f05361000171c54c,30,Mężczyzna,2022-06-11_09h06.26.507,task,2021.1.4,Win32,60.04924038,6299f149e92ead563fba08ef,62a43e61f8ca17fcfab2d5a3,,,,,,,,,,,,,0,,,,,,,,,,Task,17,(2x3) - 6,0,,,,,,,,,,,,,,,,,,,1,,,,,,,,,,,,,,,,,,,,,,,"[""0""]",1,[1.558499999999981],0,0,0,16,1,,,,,,,,,,,,,,,,,,,,,,,,,,
,,,,,,,,,,,X V Q F H G B L J M P D K C T S W R N Z,5a958d78f05361000171c54c,30,Mężczyzna,2022-06-11_09h06.26.507,task,2021.1.4,Win32,60.04924038,6299f149e92ead563fba08ef,62a43e61f8ca17fcfab2d5a3,,,,,,,,,,,,,,,,,,,,,,,,,,,,,,,,,,,,,,,,,,,,,,,,,,,,,,,,,,,,,,,,,,,,,,,,,,,,5,0,5,0,1,,,,,,,,,,,,,,,,,,,,,
,,,,,,,,,,,,5a958d78f05361000171c54c,30,Mężczyzna,2022-06-11_09h06.26.507,task,2021.1.4,Win32,60.04924038,6299f149e92ead563fba08ef,62a43e61f8ca17fcfab2d5a3,,,,,,,,,,,,,1,,,,,,,,,,Task,21,(10/2) - 1,4,,,,,,,,,,,,,,,,,,,0,,,,,,,,,,,,,,,,,,,,,,,"[""1""]",0,[2.899299999999812],0,0,0,20,1,,,,,,,,,,,,,,,,,,,,,,,,,,
,,,,,,,,,,,,5a958d78f05361000171c54c,30,Mężczyzna,2022-06-11_09h06.26.507,task,2021.1.4,Win32,60.04924038,6299f149e92ead563fba08ef,62a43e61f8ca17fcfab2d5a3,,,,,,,,,,,,,2,,,,,,,,,,Task,10,(2x5) - 8,2,,,,,,,,,,,,,,,,,,,1,,,,,,,,,,,,,,,,,,,,,,,"[""2""]",1,[1.6168000000002394],0,1,1,9,1,,,,,,,,,,,,,,,,,,,,,,,,,,
,,,,,,,,,,,X V Q F H G B L J M P D K C T S W R N Z,5a958d78f05361000171c54c,30,Mężczyzna,2022-06-11_09h06.26.507,task,2021.1.4,Win32,60.04924038,6299f149e92ead563fba08ef,62a43e61f8ca17fcfab2d5a3,,,,,,,,,,,,,,,,,,,,,,,,,,,,,,,,,,,,,,,,,,,,,,,,,,,,,,,,,,,,,,,,,,,,,,,,,,,,6,0,6,0,1,,,,,,,,,,,,,,,,,,,,,
,,,,,,,,,,,,5a958d78f05361000171c54c,30,Mężczyzna,2022-06-11_09h06.26.507,task,2021.1.4,Win32,60.04924038,6299f149e92ead563fba08ef,62a43e61f8ca17fcfab2d5a3,,,,,,,,,,,,,6,,,,,,,,,,Task,30,(6/3) + 4 ,6,,,,,,,,,,,,,,,,,,,1,,,,,,,,,,,,,,,,,,,,,,,"[""6""]",1,[2.152500000000032],0,0,0,29,1,,,,,,,,,,,,,,,,,,,,,,,,,,
,,,,,,,,,,,X V Q F H G B L J M P D K C T S W R N Z,5a958d78f05361000171c54c,30,Mężczyzna,2022-06-11_09h06.26.507,task,2021.1.4,Win32,60.04924038,6299f149e92ead563fba08ef,62a43e61f8ca17fcfab2d5a3,,,,,,,,,,,,,,,,,,,,,,,,,,,,,,,,,,,,,,,,,,,,,,,,,,,,,,,,,,,,,,,,,,,,,,,,,,,,7,0,7,0,1,,,,,,,,,,,,,,,,,,,,,
,,,,,,,,,,,,5a958d78f05361000171c54c,30,Mężczyzna,2022-06-11_09h06.26.507,task,2021.1.4,Win32,60.04924038,6299f149e92ead563fba08ef,62a43e61f8ca17fcfab2d5a3,,,,,,,,,,,,,,,,,,,,,,,,,,,,,,,,,,,,,,,,,,,,,,,,,,,,,,,,,,,,,,,,,,,,,,,,,,,,,,,,,zcehmtmj,"[""z"",""c"",""e"",""h"",""m"",""t"",""m"",""j""]",0,"[2.2385000000000446,2.5679999999999836,3.0929000000004407,4.101300000000265,4.581100000000106,5.147000000000048,5.846900000000346,6.44680000000028,7.35670000000016]",0,ZCDHMTMJ,9,0,9,0,1,,,,,,,,,,
,,,,,,,,,,,,5a958d78f05361000171c54c,30,Mężczyzna,2022-06-11_09h06.26.507,task,2021.1.4,Win32,60.04924038,6299f149e92ead563fba08ef,62a43e61f8ca17fcfab2d5a3,,,,,,,,,,,,,,,,,,,,,,,,,,,,,,,,,,,,,,,,,,,,,,,,,,,,,,,,,,,,,,,,,,,,,,,,,,,,,,,,,,,,,,,,,,,,"[""period""]",0,[1.2201999999997497],0,0,0,0,1,,
,,,,,,,,,,,,5a958d78f05361000171c54c,30,Mężczyzna,2022-06-11_09h06.26.507,task,2021.1.4,Win32,60.04924038,6299f149e92ead563fba08ef,62a43e61f8ca17fcfab2d5a3,,,,,,,,,,,,,,,,,,,,,,,,,,,,,,,,,,,,,,,,,,,,,,,,,,,,,,,,,,,,,,,,,,,,,,,,,,,,,,,,,,,,,,,,,,,,"[""comma""]",0,[0.8336000000000467],1,0,1,0,1,,
,,,,,,,,,,,,5a958d78f05361000171c54c,30,Mężczyzna,2022-06-11_09h06.26.507,task,2021.1.4,Win32,60.04924038,6299f149e92ead563fba08ef,62a43e61f8ca17fcfab2d5a3,,,,,,,,,,,,,,,,,,,,,,,,,,,,,,,,,,,,,,,,,,,,,,,,,,,,,,,,,,,,,,,,,,,,,,,,,,,,,,,,,,,,,,,,,,,,"[""period""]",0,[0.6140000000000327],2,0,2,0,1,,
,,,,,,,,,,,,5a958d78f05361000171c54c,30,Mężczyzna,2022-06-11_09h06.26.507,task,2021.1.4,Win32,60.04924038,6299f149e92ead563fba08ef,62a43e61f8ca17fcfab2d5a3,,,,,,,,,,,,,,,,,,,,,,,,,,,,,,,,,,,,,,,,,,,,,,,,,,,,,,,,,,,,,,,,,,,,,,,,,,,,,,,,,,,,,,,,,,,,"[""comma""]",0,[0.5692000000001372],3,0,3,0,1,,
,,,,,,,,,,,,5a958d78f05361000171c54c,30,Mężczyzna,2022-06-11_09h06.26.507,task,2021.1.4,Win32,60.04924038,6299f149e92ead563fba08ef,62a43e61f8ca17fcfab2d5a3,,,,,,,,,,,,,,,,,,,,,,,,,,,,,,,,,,,,,,,,,,,,,,,,,,,,,,,,,,,,,,,,,,,,,,,,,,,,,,,,,,,,,,,,,,,,"[""period""]",0,[0.4191000000000713],4,0,4,0,1,,
,,,,,,,,,,,,5a958d78f05361000171c54c,30,Mężczyzna,2022-06-11_09h06.26.507,task,2021.1.4,Win32,60.04924038,6299f149e92ead563fba08ef,62a43e61f8ca17fcfab2d5a3,,,,,,,,,,,,,,,,,,,,,,,,,,,,,,,,,,,,,,,,,,,,,,,,,,,,,,,,,,,,,,,,,,,,,,,,,,,,,,,,,,,,,,,,,,,,"[""comma""]",0,[0.4247000000001435],5,0,5,0,1,,
,,,,,,,,,,,,5a958d78f05361000171c54c,30,Mężczyzna,2022-06-11_09h06.26.507,task,2021.1.4,Win32,60.04924038,6299f149e92ead563fba08ef,62a43e61f8ca17fcfab2d5a3,,,,,,,,,,,,,,,,,,,,,,,,,,,,,,,,,,,,,,,,,,,,,,,,,,,,,,,,,,,,,,,,,,,,,,,,,,,,,,,,,,,,,,,,,,,,"[""period""]",0,[0.4289999999999736],6,0,6,0,1,,
,,,,,,,,,,,,5a958d78f05361000171c54c,30,Mężczyzna,2022-06-11_09h06.26.507,task,2021.1.4,Win32,60.04924038,6299f149e92ead563fba08ef,62a43e61f8ca17fcfab2d5a3,,,,,,,,,,,,,,,,,,,,,,,,,,,,,,,,,,,,,,,,,,,,,,,,,,,,,,,,,,,,,,,,,,,,,,,,,,,,,,,,,,,,,,,,,,,,"[""comma""]",0,[0.36610000000007403],7,0,7,0,1,,
,,,,,,,,,,,,5a958d78f05361000171c54c,30,Mężczyzna,2022-06-11_09h06.26.507,task,2021.1.4,Win32,60.04924038,6299f149e92ead563fba08ef,62a43e61f8ca17fcfab2d5a3,,,,,,,,,,,,,,,,,,,,,,,,,,,,,,,,,,,,,,,,,,,,,,,,,,,,,,,,,,,,,,,,,,,,,,,,,,,,,,,,,,,,,,,,,,,,"[""period""]",0,[0.2799999999999727],8,0,8,0,1,,
,,,,,,,,,,,,5a958d78f05361000171c54c,30,Mężczyzna,2022-06-11_09h06.26.507,task,2021.1.4,Win32,60.04924038,6299f149e92ead563fba08ef,62a43e61f8ca17fcfab2d5a3,,,,,,,,,,,,,,,,,,,,,,,,,,,,,,,,,,,,,,,,,,,,,,,,,,,,,,,,,,,,,,,,,,,,,,,,,,,,,,,,,,,,,,,,,,,,"[""comma""]",0,[0.24910000000011223],9,0,9,0,1,,
,,,,,,,,,,,,5a958d78f05361000171c54c,30,Mężczyzna,2022-06-11_09h06.26.507,task,2021.1.4,Win32,60.04924038,6299f149e92ead563fba08ef,62a43e61f8ca17fcfab2d5a3,,,,,,,,,,,,,,,,,,,,,,,,,,,,,,,,,,,,,,,,,,,,,,,,,,,,,,,,,,,,,,,,,,,,,,,,,,,,,,,,,,,,,,,,,,,,"[""period""]",0,[0.26300000000003365],10,0,10,0,1,,
,,,,,,,,,,,,5a958d78f05361000171c54c,30,Mężczyzna,2022-06-11_09h06.26.507,task,2021.1.4,Win32,60.04924038,6299f149e92ead563fba08ef,62a43e61f8ca17fcfab2d5a3,,,,,,,,,,,,,,,,,,,,,,,,,,,,,,,,,,,,,,,,,,,,,,,,,,,,,,,,,,,,,,,,,,,,,,,,,,,,,,,,,,,,,,,,,,,,"[""comma""]",0,[0.2582999999998492],11,0,11,0,1,,
,,,,,,,,,,,,5a958d78f05361000171c54c,30,Mężczyzna,2022-06-11_09h06.26.507,task,2021.1.4,Win32,60.04924038,6299f149e92ead563fba08ef,62a43e61f8ca17fcfab2d5a3,,,,,,,,,,,,,,,,,,,,,,,,,,,,,,,,,,,,,,,,,,,,,,,,,,,,,,,,,,,,,,,,,,,,,,,,,,,,,,,,,,,,,,,,,,,,"[""period""]",0,[0.32950000000005275],12,0,12,0,1,,
,,,,,,,,,,,,5a958d78f05361000171c54c,30,Mężczyzna,2022-06-11_09h06.26.507,task,2021.1.4,Win32,60.04924038,6299f149e92ead563fba08ef,62a43e61f8ca17fcfab2d5a3,,,,,,,,,,,,,,,,,,,,,,,,,,,,,,,,,,,,,,,,,,,,,,,,,,,,,,,,,,,,,,,,,,,,,,,,,,,,,,,,,,,,,,,,,,,,"[""comma""]",0,[0.27379999999982374],13,0,13,0,1,,
,,,,,,,,,,,,5a958d78f05361000171c54c,30,Mężczyzna,2022-06-11_09h06.26.507,task,2021.1.4,Win32,60.04924038,6299f149e92ead563fba08ef,62a43e61f8ca17fcfab2d5a3,,,,,,,,,,,,,,,,,,,,,,,,,,,,,,,,,,,,,,,,,,,,,,,,,,,,,,,,,,,,,,,,,,,,,,,,,,,,,,,,,,,,,,,,,,,,"[""period""]",0,[0.3433999999998605],14,0,14,0,1,,
,,,,,,,,,,,,5a958d78f05361000171c54c,30,Mężczyzna,2022-06-11_09h06.26.507,task,2021.1.4,Win32,60.04924038,6299f149e92ead563fba08ef,62a43e61f8ca17fcfab2d5a3,,,,,,,,,,,,,,,,,,,,,,,,,,,,,,,,,,,,,,,,,,,,,,,,,,,,,,,,,,,,,,,,,,,,,,,,,,,,,,,,,,,,,,,,,,,,"[""comma""]",0,[0.29129999999986467],15,0,15,0,1,,
,,,,,,,,,,,,5a958d78f05361000171c54c,30,Mężczyzna,2022-06-11_09h06.26.507,task,2021.1.4,Win32,60.04924038,6299f149e92ead563fba08ef,62a43e61f8ca17fcfab2d5a3,,,,,,,,,,,,,,,,,,,,,,,,,,,,,,,,,,,,,,,,,,,,,,,,,,,,,,,,,,,,,,,,,,,,,,,,,,,,,,,,,,,,,,,,,,,,"[""period""]",0,[0.20650000000000546],16,0,16,0,1,,
,,,,,,,,,,,,5a958d78f05361000171c54c,30,Mężczyzna,2022-06-11_09h06.26.507,task,2021.1.4,Win32,60.04924038,6299f149e92ead563fba08ef,62a43e61f8ca17fcfab2d5a3,,,,,,,,,,,,,,,,,,,,,,,,,,,,,,,,,,,,,,,,,,,,,,,,,,,,,,,,,,,,,,,,,,,,,,,,,,,,,,,,,,,,,,,,,,,,"[""comma""]",0,[0.21699999999998454],17,0,17,0,1,,
,,,,,,,,,,,,5a958d78f05361000171c54c,30,Mężczyzna,2022-06-11_09h06.26.507,task,2021.1.4,Win32,60.04924038,6299f149e92ead563fba08ef,62a43e61f8ca17fcfab2d5a3,,,,,,,,,,,,,,,,,,,,,,,,,,,,,,,,,,,,,,,,,,,,,,,,,,,,,,,,,,,,,,,,,,,,,,,,,,,,,,,,,,,,,,,,,,,,"[""period""]",0,[0.2922000000000935],18,0,18,0,1,,
,,,,,,,,,,,,5a958d78f05361000171c54c,30,Mężczyzna,2022-06-11_09h06.26.507,task,2021.1.4,Win32,60.04924038,6299f149e92ead563fba08ef,62a43e61f8ca17fcfab2d5a3,,,,,,,,,,,,,,,,,,,,,,,,,,,,,,,,,,,,,,,,,,,,,,,,,,,,,,,,,,,,,,,,,,,,,,,,,,,,,,,,,,,,,,,,,,,,"[""comma""]",0,[0.15099999999995362],19,0,19,0,1,,
,,,,,,,,,,,,5a958d78f05361000171c54c,30,Mężczyzna,2022-06-11_09h06.26.507,task,2021.1.4,Win32,60.04924038,6299f149e92ead563fba08ef,62a43e61f8ca17fcfab2d5a3,,,,,,,,,,,,,,,,,,,,,,,,,,,,,,,,,,,,,,,,,,,,,,,,,,,,,,,,,,,,,,,,,,,,,,,,,,,,,,,,,,,,,,,,,,,,"[""period""]",0,[0.1747000000002572],20,0,20,0,1,,
,,,,,,,,,,,,5a958d78f05361000171c54c,30,Mężczyzna,2022-06-11_09h06.26.507,task,2021.1.4,Win32,60.04924038,6299f149e92ead563fba08ef,62a43e61f8ca17fcfab2d5a3,,,,,,,,,,,,,,,,,,,,,,,,,,,,,,,,,,,,,,,,,,,,,,,,,,,,,,,,,,,,,,,,,,,,,,,,,,,,,,,,,,,,,,,,,,,,"[""comma""]",0,[0.27680000000032123],21,0,21,0,1,,
,,,,,,,,,,,,5a958d78f05361000171c54c,30,Mężczyzna,2022-06-11_09h06.26.507,task,2021.1.4,Win32,60.04924038,6299f149e92ead563fba08ef,62a43e61f8ca17fcfab2d5a3,,,,,,,,,,,,,,,,,,,,,,,,,,,,,,,,,,,,,,,,,,,,,,,,,,,,,,,,,,,,,,,,,,,,,,,,,,,,,,,,,,,,,,,,,,,,"[""period""]",0,[0.26510000000007494],22,0,22,0,1,,
,,,,,,,,,,,,5a958d78f05361000171c54c,30,Mężczyzna,2022-06-11_09h06.26.507,task,2021.1.4,Win32,60.04924038,6299f149e92ead563fba08ef,62a43e61f8ca17fcfab2d5a3,,,,,,,,,,,,,,,,,,,,,,,,,,,,,,,,,,,,,,,,,,,,,,,,,,,,,,,,,,,,,,,,,,,,,,,,,,,,,,,,,,,,,,,,,,,,"[""comma""]",0,[0.2892999999997983],23,0,23,0,1,,
,,,,,,,,,,,,5a958d78f05361000171c54c,30,Mężczyzna,2022-06-11_09h06.26.507,task,2021.1.4,Win32,60.04924038,6299f149e92ead563fba08ef,62a43e61f8ca17fcfab2d5a3,,,,,,,,,,,,,,,,,,,,,,,,,,,,,,,,,,,,,,,,,,,,,,,,,,,,,,,,,,,,,,,,,,,,,,,,,,,,,,,,,,,,,,,,,,,,"[""period""]",0,[0.25900000000001455],24,0,24,0,1,,
,,,,,,,,,,,,5a958d78f05361000171c54c,30,Mężczyzna,2022-06-11_09h06.26.507,task,2021.1.4,Win32,60.04924038,6299f149e92ead563fba08ef,62a43e61f8ca17fcfab2d5a3,,,,,,,,,,,,,,,,,,,,,,,,,,,,,,,,,,,,,,,,,,,,,,,,,,,,,,,,,,,,,,,,,,,,,,,,,,,,,,,,,,,,,,,,,,,,"[""comma""]",0,[0.2615000000000691],25,0,25,0,1,,
,,,,,,,,,,,,5a958d78f05361000171c54c,30,Mężczyzna,2022-06-11_09h06.26.507,task,2021.1.4,Win32,60.04924038,6299f149e92ead563fba08ef,62a43e61f8ca17fcfab2d5a3,,,,,,,,,,,,,,,,,,,,,,,,,,,,,,,,,,,,,,,,,,,,,,,,,,,,,,,,,,,,,,,,,,,,,,,,,,,,,,,,,,,,,,,,,,,,"[""period""]",0,[0.24610000000006949],26,0,26,0,1,,
,,,,,,,,,,,,5a958d78f05361000171c54c,30,Mężczyzna,2022-06-11_09h06.26.507,task,2021.1.4,Win32,60.04924038,6299f149e92ead563fba08ef,62a43e61f8ca17fcfab2d5a3,,,,,,,,,,,,,,,,,,,,,,,,,,,,,,,,,,,,,,,,,,,,,,,,,,,,,,,,,,,,,,,,,,,,,,,,,,,,,,,,,,,,,,,,,,,,"[""comma""]",0,[0.2532000000002199],27,0,27,0,1,,
,,,,,,,,,,,,5a958d78f05361000171c54c,30,Mężczyzna,2022-06-11_09h06.26.507,task,2021.1.4,Win32,60.04924038,6299f149e92ead563fba08ef,62a43e61f8ca17fcfab2d5a3,,,,,,,,,,,,,,,,,,,,,,,,,,,,,,,,,,,,,,,,,,,,,,,,,,,,,,,,,,,,,,,,,,,,,,,,,,,,,,,,,,,,,,,,,,,,"[""period""]",0,[0.24500000000000455],28,0,28,0,1,,
,,,,,,,,,,,,5a958d78f05361000171c54c,30,Mężczyzna,2022-06-11_09h06.26.507,task,2021.1.4,Win32,60.04924038,6299f149e92ead563fba08ef,62a43e61f8ca17fcfab2d5a3,,,,,,,,,,,,,,,,,,,,,,,,,,,,,,,,,,,,,,,,,,,,,,,,,,,,,,,,,,,,,,,,,,,,,,,,,,,,,,,,,,,,,,,,,,,,"[""comma""]",0,[0.252399999999966],29,0,29,0,1,,
,,,,,,,,,,,,5a958d78f05361000171c54c,30,Mężczyzna,2022-06-11_09h06.26.507,task,2021.1.4,Win32,60.04924038,6299f149e92ead563fba08ef,62a43e61f8ca17fcfab2d5a3,,,,,,,,,,,,,,,,,,,,,,,,,,,,,,,,,,,,,,,,,,,,,,,,,,,,,,,,,,,,,,,,,,,,,,,,,,,,,,,,,,,,,,,,,,,,"[""period""]",0,[0.27520000000015443],30,0,30,0,1,,
,,,,,,,,,,,,5a958d78f05361000171c54c,30,Mężczyzna,2022-06-11_09h06.26.507,task,2021.1.4,Win32,60.04924038,6299f149e92ead563fba08ef,62a43e61f8ca17fcfab2d5a3,,,,,,,,,,,,,,,,,,,,,,,,,,,,,,,,,,,,,,,,,,,,,,,,,,,,,,,,,,,,,,,,,,,,,,,,,,,,,,,,,,,,,,,,,,,,"[""comma""]",0,[0.09160000000008495],31,0,31,0,1,,
,,,,,,,,,,,,5a958d78f05361000171c54c,30,Mężczyzna,2022-06-11_09h06.26.507,task,2021.1.4,Win32,60.04924038,6299f149e92ead563fba08ef,62a43e61f8ca17fcfab2d5a3,,,,,,,,,,,,,,,,,,,,,,,,,,,,,,,,,,,,,,,,,,,,,,,,,,,,,,,,,,,,,,,,,,,,,,,,,,,,,,,,,,,,,,,,,,,,"[""period""]",0,[0.30499999999995],32,0,32,0,1,,
,,,,,,,,,,,,5a958d78f05361000171c54c,30,Mężczyzna,2022-06-11_09h06.26.507,task,2021.1.4,Win32,60.04924038,6299f149e92ead563fba08ef,62a43e61f8ca17fcfab2d5a3,,,,,,,,,,,,,,,,,,,,,,,,,,,,,,,,,,,,,,,,,,,,,,,,,,,,,,,,,,,,,,,,,,,,,,,,,,,,,,,,,,,,,,,,,,,,"[""comma""]",0,[0.30900000000008276],33,0,33,0,1,,
,,,,,,,,,,,,5a958d78f05361000171c54c,30,Mężczyzna,2022-06-11_09h06.26.507,task,2021.1.4,Win32,60.04924038,6299f149e92ead563fba08ef,62a43e61f8ca17fcfab2d5a3,,,,,,,,,,,,,,,,,,,,,,,,,,,,,,,,,,,,,,,,,,,,,,,,,,,,,,,,,,,,,,,,,,,,,,,,,,,,,,,,,,,,,,,,,,,,"[""period""]",0,[0.2822999999998501],34,0,34,0,1,,
,,,,,,,,,,,,5a958d78f05361000171c54c,30,Mężczyzna,2022-06-11_09h06.26.507,task,2021.1.4,Win32,60.04924038,6299f149e92ead563fba08ef,62a43e61f8ca17fcfab2d5a3,,,,,,,,,,,,,,,,,,,,,,,,,,,,,,,,,,,,,,,,,,,,,,,,,,,,,,,,,,,,,,,,,,,,,,,,,,,,,,,,,,,,,,,,,,,,"[""comma""]",0,[0.3423999999999978],35,0,35,0,1,,
,,,,,,,,,,,,5a958d78f05361000171c54c,30,Mężczyzna,2022-06-11_09h06.26.507,task,2021.1.4,Win32,60.04924038,6299f149e92ead563fba08ef,62a43e61f8ca17fcfab2d5a3,,,,,,,,,,,,,,,,,,,,,,,,,,,,,,,,,,,,,,,,,,,,,,,,,,,,,,,,,,,,,,,,,,,,,,,,,,,,,,,,,,,,,,,,,,,,"[""period""]",0,[0.34989999999993415],36,0,36,0,1,,
,,,,,,,,,,,,5a958d78f05361000171c54c,30,Mężczyzna,2022-06-11_09h06.26.507,task,2021.1.4,Win32,60.04924038,6299f149e92ead563fba08ef,62a43e61f8ca17fcfab2d5a3,,,,,,,,,,,,,,,,,,,,,,,,,,,,,,,,,,,,,,,,,,,,,,,,,,,,,,,,,,,,,,,,,,,,,,,,,,,,,,,,,,,,,,,,,,,,"[""comma""]",0,[0.3550000000000182],37,0,37,0,1,,
,,,,,,,,,,,,5a958d78f05361000171c54c,30,Mężczyzna,2022-06-11_09h06.26.507,task,2021.1.4,Win32,60.04924038,6299f149e92ead563fba08ef,62a43e61f8ca17fcfab2d5a3,,,,,,,,,,,,,,,,,,,,,,,,,,,,,,,,,,,,,,,,,,,,,,,,,,,,,,,,,,,,,,,,,,,,,,,,,,,,,,,,,,,,,,,,,,,,"[""period""]",0,[0.43540000000041346],38,0,38,0,1,,
,,,,,,,,,,,,5a958d78f05361000171c54c,30,Mężczyzna,2022-06-11_09h06.26.507,task,2021.1.4,Win32,60.04924038,6299f149e92ead563fba08ef,62a43e61f8ca17fcfab2d5a3,,,,,,,,,,,,,,,,,,,,,,,,,,,,,,,,,,,,,,,,,,,,,,,,,,,,,,,,,,,,,,,,,,,,,,,,,,,,,,,,,,,,,,,,,,,,"[""comma""]",0,[0.3082000000001699],39,0,39,0,1,,
,,,,,,,,,,,,5a958d78f05361000171c54c,30,Mężczyzna,2022-06-11_09h06.26.507,task,2021.1.4,Win32,60.04924038,6299f149e92ead563fba08ef,62a43e61f8ca17fcfab2d5a3,,,,,,,,,,,,,,,,,,,,,,,,,,,,,,,,,,,,,,,,,,,,,,,,,,,,,,,,,,,,,,,,,,,,,,,,,,,,,,,,,,,,,,,,,,,,"[""period"",""comma""]",0,"[0.21610000000009677,1.9102999999997792]",40,0,40,0,1,,
,,,,,,,,,,,,5a958d78f05361000171c54c,30,Mężczyzna,2022-06-11_09h06.26.507,task,2021.1.4,Win32,60.04924038,6299f149e92ead563fba08ef,62a43e61f8ca17fcfab2d5a3,,,,,,,,,,,,,,,,,,,,,,,,,,,,,,,,,,,,,,,,,,,,,,,,,,,,,,,,,,,,,,,,,,,,,,,,,,,,,,,,,,,,,,,,,,,,,0,,41,0,41,0,1,,
,,,,,,,,,,,,5a958d78f05361000171c54c,30,Mężczyzna,2022-06-11_09h06.26.507,task,2021.1.4,Win32,60.04924038,6299f149e92ead563fba08ef,62a43e61f8ca17fcfab2d5a3,,,,,,,,,,,,,,,,,,,,,,,,,,,,,,,,,,,,,,,,,,,,,,,,,,,,,,,,,,,,,,,,,,,,,,,,,,,,,,,,,,,,,,,,,,,,"[""period""]",0,[0.3491999999996551],42,0,42,0,1,,
,,,,,,,,,,,,5a958d78f05361000171c54c,30,Mężczyzna,2022-06-11_09h06.26.507,task,2021.1.4,Win32,60.04924038,6299f149e92ead563fba08ef,62a43e61f8ca17fcfab2d5a3,,,,,,,,,,,,,,,,,,,,,,,,,,,,,,,,,,,,,,,,,,,,,,,,,,,,,,,,,,,,,,,,,,,,,,,,,,,,,,,,,,,,,,,,,,,,"[""comma""]",0,[0.28890000000035343],43,0,43,0,1,,
,,,,,,,,,,,,5a958d78f05361000171c54c,30,Mężczyzna,2022-06-11_09h06.26.507,task,2021.1.4,Win32,60.04924038,6299f149e92ead563fba08ef,62a43e61f8ca17fcfab2d5a3,,,,,,,,,,,,,,,,,,,,,,,,,,,,,,,,,,,,,,,,,,,,,,,,,,,,,,,,,,,,,,,,,,,,,,,,,,,,,,,,,,,,,,,,,,,,"[""period""]",0,[0.40180000000032123],44,0,44,0,1,,
,,,,,,,,,,,,5a958d78f05361000171c54c,30,Mężczyzna,2022-06-11_09h06.26.507,task,2021.1.4,Win32,60.04924038,6299f149e92ead563fba08ef,62a43e61f8ca17fcfab2d5a3,,,,,,,,,,,,,,,,,,,,,,,,,,,,,,,,,,,,,,,,,,,,,,,,,,,,,,,,,,,,,,,,,,,,,,,,,,,,,,,,,,,,,,,,,,,,"[""comma""]",0,[0.08329999999989468],45,0,45,0,1,,
,,,,,,,,,,,,5a958d78f05361000171c54c,30,Mężczyzna,2022-06-11_09h06.26.507,task,2021.1.4,Win32,60.04924038,6299f149e92ead563fba08ef,62a43e61f8ca17fcfab2d5a3,,,,,,,,,,,,,,,,,,,,,,,,,,,,,,,,,,,,,,,,,,,,,,,,,,,,,,,,,,,,,,,,,,,,,,,,,,,,,,,,,,,,,,,,,,,,"[""period""]",0,[0.3632999999997537],46,0,46,0,1,,
,,,,,,,,,,,,5a958d78f05361000171c54c,30,Mężczyzna,2022-06-11_09h06.26.507,task,2021.1.4,Win32,60.04924038,6299f149e92ead563fba08ef,62a43e61f8ca17fcfab2d5a3,,,,,,,,,,,,,,,,,,,,,,,,,,,,,,,,,,,,,,,,,,,,,,,,,,,,,,,,,,,,,,,,,,,,,,,,,,,,,,,,,,,,,,,,,,,,"[""comma""]",0,[0.4592000000001235],47,0,47,0,1,,
,,,,,,,,,,,,5a958d78f05361000171c54c,30,Mężczyzna,2022-06-11_09h06.26.507,task,2021.1.4,Win32,60.04924038,6299f149e92ead563fba08ef,62a43e61f8ca17fcfab2d5a3,,,,,,,,,,,,,,,,,,,,,,,,,,,,,,,,,,,,,,,,,,,,,,,,,,,,,,,,,,,,,,,,,,,,,,,,,,,,,,,,,,,,,,,,,,,,"[""period""]",0,[0.47340000000042437],48,0,48,0,1,,
,,,,,,,,,,,,5a958d78f05361000171c54c,30,Mężczyzna,2022-06-11_09h06.26.507,task,2021.1.4,Win32,60.04924038,6299f149e92ead563fba08ef,62a43e61f8ca17fcfab2d5a3,,,,,,,,,,,,,,,,,,,,,,,,,,,,,,,,,,,,,,,,,,,,,,,,,,,,,,,,,,,,,,,,,,,,,,,,,,,,,,,,,,,,,,,,,,,,"[""comma""]",0,[0.3948999999998932],49,0,49,0,1,,
,,,,,,,,,,,,5a958d78f05361000171c54c,30,Mężczyzna,2022-06-11_09h06.26.507,task,2021.1.4,Win32,60.04924038,6299f149e92ead563fba08ef,62a43e61f8ca17fcfab2d5a3,,,,,,,,,,,,,,,,,,,,,,,,,,,,,,,,,,,,,,,,,,,,,,,,,,,,,,,,,,,,,,,,,,,,,,,,,,,,,,,,,,,,,,,,,,,,"[""period""]",0,[0.4195000000000846],50,0,50,0,1,,
,,,,,,,,,,,,5a958d78f05361000171c54c,30,Mężczyzna,2022-06-11_09h06.26.507,task,2021.1.4,Win32,60.04924038,6299f149e92ead563fba08ef,62a43e61f8ca17fcfab2d5a3,,,,,,,,,,,,,,,,,,,,,,,,,,,,,,,,,,,,,,,,,,,,,,,,,,,,,,,,,,,,,,,,,,,,,,,,,,,,,,,,,,,,,,,,,,,,"[""comma""]",0,[0.23020000000019536],51,0,51,0,1,,
,,,,,,,,,,,,5a958d78f05361000171c54c,30,Mężczyzna,2022-06-11_09h06.26.507,task,2021.1.4,Win32,60.04924038,6299f149e92ead563fba08ef,62a43e61f8ca17fcfab2d5a3,,,,,,,,,,,,,,,,,,,,,,,,,,,,,,,,,,,,,,,,,,,,,,,,,,,,,,,,,,,,,,,,,,,,,,,,,,,,,,,,,,,,,,,,,,,,"[""period""]",0,[0.42540000000042255],52,0,52,0,1,,
,,,,,,,,,,,,5a958d78f05361000171c54c,30,Mężczyzna,2022-06-11_09h06.26.507,task,2021.1.4,Win32,60.04924038,6299f149e92ead563fba08ef,62a43e61f8ca17fcfab2d5a3,,,,,,,,,,,,,,,,,,,,,,,,,,,,,,,,,,,,,,,,,,,,,,,,,,,,,,,,,,,,,,,,,,,,,,,,,,,,,,,,,,,,,,,,,,,,"[""comma""]",0,[0.39999999999997726],53,0,53,0,1,,
,,,,,,,,,,,,5a958d78f05361000171c54c,30,Mężczyzna,2022-06-11_09h06.26.507,task,2021.1.4,Win32,60.04924038,6299f149e92ead563fba08ef,62a43e61f8ca17fcfab2d5a3,,,,,,,,,,,,,,,,,,,,,,,,,,,,,,,,,,,,,,,,,,,,,,,,,,,,,,,,,,,,,,,,,,,,,,,,,,,,,,,,,,,,,,,,,,,,"[""period""]",0,[0.45879999999988286],54,0,54,0,1,,
,,,,,,,,,,,,5a958d78f05361000171c54c,30,Mężczyzna,2022-06-11_09h06.26.507,task,2021.1.4,Win32,60.04924038,6299f149e92ead563fba08ef,62a43e61f8ca17fcfab2d5a3,,,,,,,,,,,,,,,,,,,,,,,,,,,,,,,,,,,,,,,,,,,,,,,,,,,,,,,,,,,,,,,,,,,,,,,,,,,,,,,,,,,,,,,,,,,,"[""comma""]",0,[0.33930000000020755],55,0,55,0,1,,
,,,,,,,,,,,,5a958d78f05361000171c54c,30,Mężczyzna,2022-06-11_09h06.26.507,task,2021.1.4,Win32,60.04924038,6299f149e92ead563fba08ef,62a43e61f8ca17fcfab2d5a3,,,,,,,,,,,,,,,,,,,,,,,,,,,,,,,,,,,,,,,,,,,,,,,,,,,,,,,,,,,,,,,,,,,,,,,,,,,,,,,,,,,,,,,,,,,,"[""period""]",0,[0.2406999999997197],56,0,56,0,1,,
,,,,,,,,,,,,5a958d78f05361000171c54c,30,Mężczyzna,2022-06-11_09h06.26.507,task,2021.1.4,Win32,60.04924038,6299f149e92ead563fba08ef,62a43e61f8ca17fcfab2d5a3,,,,,,,,,,,,,,,,,,,,,,,,,,,,,,,,,,,,,,,,,,,,,,,,,,,,,,,,,,,,,,,,,,,,,,,,,,,,,,,,,,,,,,,,,,,,"[""comma""]",0,[0.2999000000004344],57,0,57,0,1,,
,,,,,,,,,,,,5a958d78f05361000171c54c,30,Mężczyzna,2022-06-11_09h06.26.507,task,2021.1.4,Win32,60.04924038,6299f149e92ead563fba08ef,62a43e61f8ca17fcfab2d5a3,,,,,,,,,,,,,,,,,,,,,,,,,,,,,,,,,,,,,,,,,,,,,,,,,,,,,,,,,,,,,,,,,,,,,,,,,,,,,,,,,,,,,,,,,,,,"[""period""]",0,[0.3592999999998483],58,0,58,0,1,,
,,,,,,,,,,,,5a958d78f05361000171c54c,30,Mężczyzna,2022-06-11_09h06.26.507,task,2021.1.4,Win32,60.04924038,6299f149e92ead563fba08ef,62a43e61f8ca17fcfab2d5a3,,,,,,,,,,,,,,,,,,,,,,,,,,,,,,,,,,,,,,,,,,,,,,,,,,,,,,,,,,,,,,,,,,,,,,,,,,,,,,,,,,,,,,,,,,,,"[""comma""]",0,[0.14210000000014134],59,0,59,0,1,,
,,,,,,,,,,,,5a958d78f05361000171c54c,30,Mężczyzna,2022-06-11_09h06.26.507,task,2021.1.4,Win32,60.04924038,6299f149e92ead563fba08ef,62a43e61f8ca17fcfab2d5a3,,,,,,,,,,,,,,,,,,,,,,,,,,,,,,,,,,,,,,,,,,,,,,,,,,,,,,,,,,,,,,,,,,,,,,,,,,,,,,,,,,,,,,,,,,,,"[""period""]",0,[0.27300000000002456],60,0,60,0,1,,
,,,,,,,,,,,,5a958d78f05361000171c54c,30,Mężczyzna,2022-06-11_09h06.26.507,task,2021.1.4,Win32,60.04924038,6299f149e92ead563fba08ef,62a43e61f8ca17fcfab2d5a3,,,,,,,,,,,,,,,,,,,,,,,,,,,,,,,,,,,,,,,,,,,,,,,,,,,,,,,,,,,,,,,,,,,,,,,,,,,,,,,,,,,,,,,,,,,,"[""comma""]",0,[0.34840000000042437],61,0,61,0,1,,
,,,,,,,,,,,,5a958d78f05361000171c54c,30,Mężczyzna,2022-06-11_09h06.26.507,task,2021.1.4,Win32,60.04924038,6299f149e92ead563fba08ef,62a43e61f8ca17fcfab2d5a3,,,,,,,,,,,,,,,,,,,,,,,,,,,,,,,,,,,,,,,,,,,,,,,,,,,,,,,,,,,,,,,,,,,,,,,,,,,,,,,,,,,,,,,,,,,,"[""period""]",0,[0.33379999999976917],62,0,62,0,1,,
,,,,,,,,,,,,5a958d78f05361000171c54c,30,Mężczyzna,2022-06-11_09h06.26.507,task,2021.1.4,Win32,60.04924038,6299f149e92ead563fba08ef,62a43e61f8ca17fcfab2d5a3,,,,,,,,,,,,,,,,,,,,,,,,,,,,,,,,,,,,,,,,,,,,,,,,,,,,,,,,,,,,,,,,,,,,,,,,,,,,,,,,,,,,,,,,,,,,"[""comma""]",0,[0.1757999999997537],63,0,63,0,1,,
,,,,,,,,,,,,5a958d78f05361000171c54c,30,Mężczyzna,2022-06-11_09h06.26.507,task,2021.1.4,Win32,60.04924038,6299f149e92ead563fba08ef,62a43e61f8ca17fcfab2d5a3,,,,,,,,,,,,,,,,,,,,,,,,,,,,,,,,,,,,,,,,,,,,,,,,,,,,,,,,,,,,,,,,,,,,,,,,,,,,,,,,,,,,,,,,,,,,"[""period""]",0,[0.21820000000025175],64,0,64,0,1,,
,,,,,,,,,,,,5a958d78f05361000171c54c,30,Mężczyzna,2022-06-11_09h06.26.507,task,2021.1.4,Win32,60.04924038,6299f149e92ead563fba08ef,62a43e61f8ca17fcfab2d5a3,,,,,,,,,,,,,,,,,,,,,,,,,,,,,,,,,,,,,,,,,,,,,,,,,,,,,,,,,,,,,,,,,,,,,,,,,,,,,,,,,,,,,,,,,,,,"[""comma""]",0,[0.2323999999998705],65,0,65,0,1,,
,,,,,,,,,,,,5a958d78f05361000171c54c,30,Mężczyzna,2022-06-11_09h06.26.507,task,2021.1.4,Win32,60.04924038,6299f149e92ead563fba08ef,62a43e61f8ca17fcfab2d5a3,,,,,,,,,,,,,,,,,,,,,,,,,,,,,,,,,,,,,,,,,,,,,,,,,,,,,,,,,,,,,,,,,,,,,,,,,,,,,,,,,,,,,,,,,,,,"[""period""]",0,[0.35799999999994725],66,0,66,0,1,,
,,,,,,,,,,,,5a958d78f05361000171c54c,30,Mężczyzna,2022-06-11_09h06.26.507,task,2021.1.4,Win32,60.04924038,6299f149e92ead563fba08ef,62a43e61f8ca17fcfab2d5a3,,,,,,,,,,,,,,,,,,,,,,,,,,,,,,,,,,,,,,,,,,,,,,,,,,,,,,,,,,,,,,,,,,,,,,,,,,,,,,,,,,,,,,,,,,,,"[""comma""]",0,[0.3106000000000222],67,0,67,0,1,,
,,,,,,,,,,,,5a958d78f05361000171c54c,30,Mężczyzna,2022-06-11_09h06.26.507,task,2021.1.4,Win32,60.04924038,6299f149e92ead563fba08ef,62a43e61f8ca17fcfab2d5a3,,,,,,,,,,,,,,,,,,,,,,,,,,,,,,,,,,,,,,,,,,,,,,,,,,,,,,,,,,,,,,,,,,,,,,,,,,,,,,,,,,,,,,,,,,,,"[""period""]",0,[0.32730000000026394],68,0,68,0,1,,
,,,,,,,,,,,,5a958d78f05361000171c54c,30,Mężczyzna,2022-06-11_09h06.26.507,task,2021.1.4,Win32,60.04924038,6299f149e92ead563fba08ef,62a43e61f8ca17fcfab2d5a3,,,,,,,,,,,,,,,,,,,,,,,,,,,,,,,,,,,,,,,,,,,,,,,,,,,,,,,,,,,,,,,,,,,,,,,,,,,,,,,,,,,,,,,,,,,,"[""comma""]",0,[0.28700000000003456],69,0,69,0,1,,
,,,,,,,,,,,,5a958d78f05361000171c54c,30,Mężczyzna,2022-06-11_09h06.26.507,task,2021.1.4,Win32,60.04924038,6299f149e92ead563fba08ef,62a43e61f8ca17fcfab2d5a3,,,,,,,,,,,,,,,,,,,,,,,,,,,,,,,,,,,,,,,,,,,,,,,,,,,,,,,,,,,,,,,,,,,,,,,,,,,,,,,,,,,,,,,,,,,,"[""period""]",0,[0.30700000000001637],70,0,70,0,1,,
,,,,,,,,,,,,5a958d78f05361000171c54c,30,Mężczyzna,2022-06-11_09h06.26.507,task,2021.1.4,Win32,60.04924038,6299f149e92ead563fba08ef,62a43e61f8ca17fcfab2d5a3,,,,,,,,,,,,,,,,,,,,,,,,,,,,,,,,,,,,,,,,,,,,,,,,,,,,,,,,,,,,,,,,,,,,,,,,,,,,,,,,,,,,,,,,,,,,"[""comma""]",0,[0.25230000000021846],71,0,71,0,1,,
,,,,,,,,,,,,5a958d78f05361000171c54c,30,Mężczyzna,2022-06-11_09h06.26.507,task,2021.1.4,Win32,60.04924038,6299f149e92ead563fba08ef,62a43e61f8ca17fcfab2d5a3,,,,,,,,,,,,,,,,,,,,,,,,,,,,,,,,,,,,,,,,,,,,,,,,,,,,,,,,,,,,,,,,,,,,,,,,,,,,,,,,,,,,,,,,,,,,"[""period""]",0,[0.2625000000000455],72,0,72,0,1,,
,,,,,,,,,,,,5a958d78f05361000171c54c,30,Mężczyzna,2022-06-11_09h06.26.507,task,2021.1.4,Win32,60.04924038,6299f149e92ead563fba08ef,62a43e61f8ca17fcfab2d5a3,,,,,,,,,,,,,,,,,,,,,,,,,,,,,,,,,,,,,,,,,,,,,,,,,,,,,,,,,,,,,,,,,,,,,,,,,,,,,,,,,,,,,,,,,,,,"[""comma"",""period""]",0,"[0.25739999999996144,1.5620000000000118]",73,0,73,0,1,,
,,,,,,,,,,,,5a958d78f05361000171c54c,30,Mężczyzna,2022-06-11_09h06.26.507,task,2021.1.4,Win32,60.04924038,6299f149e92ead563fba08ef,62a43e61f8ca17fcfab2d5a3,,,,,,,,,,,,,,,,,,,,,,,,,,,,,,,,,,,,,,,,,,,,,,,,,,,,,,,,,,,,,,,,,,,,,,,,,,,,,,,,,,,,,,,,,,,,"[""comma""]",0,[0.8507999999998219],74,0,74,0,1,,
,,,,,,,,,,,,5a958d78f05361000171c54c,30,Mężczyzna,2022-06-11_09h06.26.507,task,2021.1.4,Win32,60.04924038,6299f149e92ead563fba08ef,62a43e61f8ca17fcfab2d5a3,,,,,,,,,,,,,,,,,,,,,,,,,,,,,,,,,,,,,,,,,,,,,,,,,,,,,,,,,,,,,,,,,,,,,,,,,,,,,,,,,,,,,,,,,,,,"[""period""]",0,[0.298200000000179],75,0,75,0,1,,
,,,,,,,,,,,,5a958d78f05361000171c54c,30,Mężczyzna,2022-06-11_09h06.26.507,task,2021.1.4,Win32,60.04924038,6299f149e92ead563fba08ef,62a43e61f8ca17fcfab2d5a3,,,,,,,,,,,,,,,,,,,,,,,,,,,,,,,,,,,,,,,,,,,,,,,,,,,,,,,,,,,,,,,,,,,,,,,,,,,,,,,,,,,,,,,,,,,,"[""comma""]",0,[0.39090000000044256],76,0,76,0,1,,
,,,,,,,,,,,,5a958d78f05361000171c54c,30,Mężczyzna,2022-06-11_09h06.26.507,task,2021.1.4,Win32,60.04924038,6299f149e92ead563fba08ef,62a43e61f8ca17fcfab2d5a3,,,,,,,,,,,,,,,,,,,,,,,,,,,,,,,,,,,,,,,,,,,,,,,,,,,,,,,,,,,,,,,,,,,,,,,,,,,,,,,,,,,,,,,,,,,,"[""period""]",0,[0.27929999999980737],77,0,77,0,1,,
,,,,,,,,,,,,5a958d78f05361000171c54c,30,Mężczyzna,2022-06-11_09h06.26.507,task,2021.1.4,Win32,60.04924038,6299f149e92ead563fba08ef,62a43e61f8ca17fcfab2d5a3,,,,,,,,,,,,,,,,,,,,,,,,,,,,,,,,,,,,,,,,,,,,,,,,,,,,,,,,,,,,,,,,,,,,,,,,,,,,,,,,,,,,,,,,,,,,"[""comma""]",0,[0.2933000000002721],78,0,78,0,1,,
,,,,,,,,,,,,5a958d78f05361000171c54c,30,Mężczyzna,2022-06-11_09h06.26.507,task,2021.1.4,Win32,60.04924038,6299f149e92ead563fba08ef,62a43e61f8ca17fcfab2d5a3,,,,,,,,,,,,,,,,,,,,,,,,,,,,,,,,,,,,,,,,,,,,,,,,,,,,,,,,,,,,,,,,,,,,,,,,,,,,,,,,,,,,,,,,,,,,"[""period""]",0,[0.21639999999990778],79,0,79,0,1,,
,,,,,,,,,,,,5a958d78f05361000171c54c,30,Mężczyzna,2022-06-11_09h06.26.507,task,2021.1.4,Win32,60.04924038,6299f149e92ead563fba08ef,62a43e61f8ca17fcfab2d5a3,,,,,,,,,,,,,,,,,,,,,,,,,,,,,,,,,,,,,,,,,,,,,,,,,,,,,,,,,,,,,,,,,,,,,,,,,,,,,,,,,,,,,,,,,,,,"[""comma""]",0,[0.2953000000002248],80,0,80,0,1,,
,,,,,,,,,,,,5a958d78f05361000171c54c,30,Mężczyzna,2022-06-11_09h06.26.507,task,2021.1.4,Win32,60.04924038,6299f149e92ead563fba08ef,62a43e61f8ca17fcfab2d5a3,,,,,,,,,,,,,,,,,,,,,,,,,,,,,,,,,,,,,,,,,,,,,,,,,,,,,,,,,,,,,,,,,,,,,,,,,,,,,,,,,,,,,,,,,,,,"[""period""]",0,[0.26430000000027576],81,0,81,0,1,,
,,,,,,,,,,,,5a958d78f05361000171c54c,30,Mężczyzna,2022-06-11_09h06.26.507,task,2021.1.4,Win32,60.04924038,6299f149e92ead563fba08ef,62a43e61f8ca17fcfab2d5a3,,,,,,,,,,,,,,,,,,,,,,,,,,,,,,,,,,,,,,,,,,,,,,,,,,,,,,,,,,,,,,,,,,,,,,,,,,,,,,,,,,,,,,,,,,,,"[""comma""]",0,[0.46620000000018536],82,0,82,0,1,,
,,,,,,,,,,,,5a958d78f05361000171c54c,30,Mężczyzna,2022-06-11_09h06.26.507,task,2021.1.4,Win32,60.04924038,6299f149e92ead563fba08ef,62a43e61f8ca17fcfab2d5a3,,,,,,,,,,,,,,,,,,,,,,,,,,,,,,,,,,,,,,,,,,,,,,,,,,,,,,,,,,,,,,,,,,,,,,,,,,,,,,,,,,,,,,,,,,,,"[""period""]",0,[0.2865999999996802],83,0,83,0,1,,
,,,,,,,,,,,,5a958d78f05361000171c54c,30,Mężczyzna,2022-06-11_09h06.26.507,task,2021.1.4,Win32,60.04924038,6299f149e92ead563fba08ef,62a43e61f8ca17fcfab2d5a3,,,,,,,,,,,,,,,,,,,,,,,,,,,,,,,,,,,,,,,,,,,,,,,,,,,,,,,,,,,,,,,,,,,,,,,,,,,,,,,,,,,,,,,,,,,,"[""comma""]",0,[0.6036000000001422],84,0,84,0,1,,
,,,,,,,,,,,,5a958d78f05361000171c54c,30,Mężczyzna,2022-06-11_09h06.26.507,task,2021.1.4,Win32,60.04924038,6299f149e92ead563fba08ef,62a43e61f8ca17fcfab2d5a3,,,,,,,,,,,,,,,,,,,,,,,,,,,,,,,,,,,,,,,,,,,,,,,,,,,,,,,,,,,,,,,,,,,,,,,,,,,,,,,,,,,,,,,,,,,,"[""period""]",0,[0.2938000000002603],85,0,85,0,1,,
,,,,,,,,,,,,5a958d78f05361000171c54c,30,Mężczyzna,2022-06-11_09h06.26.507,task,2021.1.4,Win32,60.04924038,6299f149e92ead563fba08ef,62a43e61f8ca17fcfab2d5a3,,,,,,,,,,,,,,,,,,,,,,,,,,,,,,,,,,,,,,,,,,,,,,,,,,,,,,,,,,,,,,,,,,,,,,,,,,,,,,,,,,,,,,,,,,,,"[""comma""]",0,[0.27750000000003183],86,0,86,0,1,,
,,,,,,,,,,,,5a958d78f05361000171c54c,30,Mężczyzna,2022-06-11_09h06.26.507,task,2021.1.4,Win32,60.04924038,6299f149e92ead563fba08ef,62a43e61f8ca17fcfab2d5a3,,,,,,,,,,,,,,,,,,,,,,,,,,,,,,,,,,,,,,,,,,,,,,,,,,,,,,,,,,,,,,,,,,,,,,,,,,,,,,,,,,,,,,,,,,,,"[""period""]",0,[0.13200000000006185],87,0,87,0,1,,
,,,,,,,,,,,,5a958d78f05361000171c54c,30,Mężczyzna,2022-06-11_09h06.26.507,task,2021.1.4,Win32,60.04924038,6299f149e92ead563fba08ef,62a43e61f8ca17fcfab2d5a3,,,,,,,,,,,,,,,,,,,,,,,,,,,,,,,,,,,,,,,,,,,,,,,,,,,,,,,,,,,,,,,,,,,,,,,,,,,,,,,,,,,,,,,,,,,,"[""comma"",""period""]",0,"[0.35190000000000055,1.9313999999999396]",88,0,88,0,1,,
,,,,,,,,,,,,5a958d78f05361000171c54c,30,Mężczyzna,2022-06-11_09h06.26.507,task,2021.1.4,Win32,60.04924038,6299f149e92ead563fba08ef,62a43e61f8ca17fcfab2d5a3,,,,,,,,,,,,,,,,,,,,,,,,,,,,,,,,,,,,,,,,,,,,,,,,,,,,,,,,,,,,,,,,,,,,,,,,,,,,,,,,,,,,,,,,,,,,"[""comma""]",0,[1.9715999999996257],89,0,89,0,1,,
