key_resp_15.keys,key_resp_15.rt,key_resp_13.keys,key_resp_13.corr,key_resp_13.rt,ranodm_loop.thisRepN,ranodm_loop.thisTrialN,ranodm_loop.thisN,ranodm_loop.thisIndex,ranodm_loop.ran,participant,Wiek*,Płeć,date,expName,psychopyVersion,OS,frameRate,study_id,session,key_resp_16.keys,key_resp_16.rt,key_resp_4.keys,key_resp_4.rt,next_letter.thisRepN,next_letter.thisTrialN,next_letter.thisN,next_letter.thisIndex,next_letter.ran,letter,simple_recall,key_resp_5.keys,key_resp_5.rt,simple_recall_corr,simple_recall_corrkeys,next_level.thisRepN,next_level.thisTrialN,next_level.thisN,next_level.thisIndex,next_level.ran,key_resp_2.keys,key_resp_2.rt,digit_answer,key_resp.keys,key_resp.corr,key_resp.rt,RT_list,next_equation.thisRepN,next_equation.thisTrialN,next_equation.thisN,next_equation.thisIndex,next_equation.ran,Task,Trial,Problem,Operation_answer,processing_score,sumRT,meanRT,sumdiff,sd,RT,key_resp_3.keys,key_resp_3.rt,repeat_practice.thisRepN,repeat_practice.thisTrialN,repeat_practice.thisN,repeat_practice.thisIndex,repeat_practice.ran,key_resp_6.keys,key_resp_6.rt,key_resp_11.keys,key_resp_11.corr,key_resp_11.rt,operation_correct,repeat_if_wrong_prac.thisRepN,repeat_if_wrong_prac.thisTrialN,repeat_if_wrong_prac.thisN,repeat_if_wrong_prac.thisIndex,repeat_if_wrong_prac.ran,span_size_prac.thisRepN,span_size_prac.thisTrialN,span_size_prac.thisN,span_size_prac.thisIndex,span_size_prac.ran,complex_recall_practice,key_resp_9.keys,key_resp_9.corr,key_resp_9.rt,complex_prac_corr,span_recall_prac.thisRepN,span_recall_prac.thisTrialN,span_recall_prac.thisN,span_recall_prac.thisIndex,span_recall_prac.ran,key_resp_10.keys,key_resp_10.rt,key_resp_7.keys,key_resp_7.corr,key_resp_7.rt,repeat_if_wrong.thisRepN,repeat_if_wrong.thisTrialN,repeat_if_wrong.thisN,repeat_if_wrong.thisIndex,repeat_if_wrong.ran,span_size.thisRepN,span_size.thisTrialN,span_size.thisN,span_size.thisIndex,span_size.ran,complex_recall,key_resp_8.keys,key_resp_8.corr,key_resp_8.rt,complex_recall_corr,complex_recall_corrkeys,span_recall.thisRepN,span_recall.thisTrialN,span_recall.thisN,span_recall.thisIndex,span_recall.ran,key_resp_12.keys,key_resp_12.rt
space,3.6198,"[""comma""]",0,[1.605599999964241],0,0,0,0,1,5afeeff06369280001700225,24,Mężczyzna,2022-06-04_08h09.37.715,task,2021.1.4,Win32,74.97375918,628b806c463b948bc644b84f,629af7104b060a58ef4ee2d4,,,,,,,,,,,,,,,,,,,,,,,,,,,,,,,,,,,,,,,,,,,,,,,,,,,,,,,,,,,,,,,,,,,,,,,,,,,,,,,,,,,,,,,,,,,,,,,,,,,,,,,
,,"[""comma""]",0,[1.2775000000000034],1,0,1,0,1,5afeeff06369280001700225,24,Mężczyzna,2022-06-04_08h09.37.715,task,2021.1.4,Win32,74.97375918,628b806c463b948bc644b84f,629af7104b060a58ef4ee2d4,,,,,,,,,,,,,,,,,,,,,,,,,,,,,,,,,,,,,,,,,,,,,,,,,,,,,,,,,,,,,,,,,,,,,,,,,,,,,,,,,,,,,,,,,,,,,,,,,,,,,,,
,,"[""period""]",0,[0.5486999999880879],2,0,2,0,1,5afeeff06369280001700225,24,Mężczyzna,2022-06-04_08h09.37.715,task,2021.1.4,Win32,74.97375918,628b806c463b948bc644b84f,629af7104b060a58ef4ee2d4,,,,,,,,,,,,,,,,,,,,,,,,,,,,,,,,,,,,,,,,,,,,,,,,,,,,,,,,,,,,,,,,,,,,,,,,,,,,,,,,,,,,,,,,,,,,,,,,,,,,,,,
,,"[""period""]",0,[0.8536000000238317],3,0,3,0,1,5afeeff06369280001700225,24,Mężczyzna,2022-06-04_08h09.37.715,task,2021.1.4,Win32,74.97375918,628b806c463b948bc644b84f,629af7104b060a58ef4ee2d4,,,,,,,,,,,,,,,,,,,,,,,,,,,,,,,,,,,,,,,,,,,,,,,,,,,,,,,,,,,,,,,,,,,,,,,,,,,,,,,,,,,,,,,,,,,,,,,,,,,,,,,
,,"[""period""]",0,[0.8110999999642416],4,0,4,0,1,5afeeff06369280001700225,24,Mężczyzna,2022-06-04_08h09.37.715,task,2021.1.4,Win32,74.97375918,628b806c463b948bc644b84f,629af7104b060a58ef4ee2d4,,,,,,,,,,,,,,,,,,,,,,,,,,,,,,,,,,,,,,,,,,,,,,,,,,,,,,,,,,,,,,,,,,,,,,,,,,,,,,,,,,,,,,,,,,,,,,,,,,,,,,,
,,"[""comma""]",0,[0.7338000000119109],5,0,5,0,1,5afeeff06369280001700225,24,Mężczyzna,2022-06-04_08h09.37.715,task,2021.1.4,Win32,74.97375918,628b806c463b948bc644b84f,629af7104b060a58ef4ee2d4,,,,,,,,,,,,,,,,,,,,,,,,,,,,,,,,,,,,,,,,,,,,,,,,,,,,,,,,,,,,,,,,,,,,,,,,,,,,,,,,,,,,,,,,,,,,,,,,,,,,,,,
,,"[""comma""]",0,[1.2016000000238307],6,0,6,0,1,5afeeff06369280001700225,24,Mężczyzna,2022-06-04_08h09.37.715,task,2021.1.4,Win32,74.97375918,628b806c463b948bc644b84f,629af7104b060a58ef4ee2d4,,,,,,,,,,,,,,,,,,,,,,,,,,,,,,,,,,,,,,,,,,,,,,,,,,,,,,,,,,,,,,,,,,,,,,,,,,,,,,,,,,,,,,,,,,,,,,,,,,,,,,,
,,"[""period""]",0,[0.9769000000357693],7,0,7,0,1,5afeeff06369280001700225,24,Mężczyzna,2022-06-04_08h09.37.715,task,2021.1.4,Win32,74.97375918,628b806c463b948bc644b84f,629af7104b060a58ef4ee2d4,,,,,,,,,,,,,,,,,,,,,,,,,,,,,,,,,,,,,,,,,,,,,,,,,,,,,,,,,,,,,,,,,,,,,,,,,,,,,,,,,,,,,,,,,,,,,,,,,,,,,,,
,,"[""period""]",0,[1.1041000000238483],8,0,8,0,1,5afeeff06369280001700225,24,Mężczyzna,2022-06-04_08h09.37.715,task,2021.1.4,Win32,74.97375918,628b806c463b948bc644b84f,629af7104b060a58ef4ee2d4,,,,,,,,,,,,,,,,,,,,,,,,,,,,,,,,,,,,,,,,,,,,,,,,,,,,,,,,,,,,,,,,,,,,,,,,,,,,,,,,,,,,,,,,,,,,,,,,,,,,,,,
,,"[""comma""]",0,[1.0073000000119094],9,0,9,0,1,5afeeff06369280001700225,24,Mężczyzna,2022-06-04_08h09.37.715,task,2021.1.4,Win32,74.97375918,628b806c463b948bc644b84f,629af7104b060a58ef4ee2d4,,,,,,,,,,,,,,,,,,,,,,,,,,,,,,,,,,,,,,,,,,,,,,,,,,,,,,,,,,,,,,,,,,,,,,,,,,,,,,,,,,,,,,,,,,,,,,,,,,,,,,,
,,"[""period""]",0,[1.0150999999642494],10,0,10,0,1,5afeeff06369280001700225,24,Mężczyzna,2022-06-04_08h09.37.715,task,2021.1.4,Win32,74.97375918,628b806c463b948bc644b84f,629af7104b060a58ef4ee2d4,,,,,,,,,,,,,,,,,,,,,,,,,,,,,,,,,,,,,,,,,,,,,,,,,,,,,,,,,,,,,,,,,,,,,,,,,,,,,,,,,,,,,,,,,,,,,,,,,,,,,,,
,,"[""comma""]",0,[0.6299999999999955],11,0,11,0,1,5afeeff06369280001700225,24,Mężczyzna,2022-06-04_08h09.37.715,task,2021.1.4,Win32,74.97375918,628b806c463b948bc644b84f,629af7104b060a58ef4ee2d4,,,,,,,,,,,,,,,,,,,,,,,,,,,,,,,,,,,,,,,,,,,,,,,,,,,,,,,,,,,,,,,,,,,,,,,,,,,,,,,,,,,,,,,,,,,,,,,,,,,,,,,
,,"[""comma""]",0,[0.5573000000119208],12,0,12,0,1,5afeeff06369280001700225,24,Mężczyzna,2022-06-04_08h09.37.715,task,2021.1.4,Win32,74.97375918,628b806c463b948bc644b84f,629af7104b060a58ef4ee2d4,,,,,,,,,,,,,,,,,,,,,,,,,,,,,,,,,,,,,,,,,,,,,,,,,,,,,,,,,,,,,,,,,,,,,,,,,,,,,,,,,,,,,,,,,,,,,,,,,,,,,,,
,,"[""period""]",0,[1.0006000000238373],13,0,13,0,1,5afeeff06369280001700225,24,Mężczyzna,2022-06-04_08h09.37.715,task,2021.1.4,Win32,74.97375918,628b806c463b948bc644b84f,629af7104b060a58ef4ee2d4,,,,,,,,,,,,,,,,,,,,,,,,,,,,,,,,,,,,,,,,,,,,,,,,,,,,,,,,,,,,,,,,,,,,,,,,,,,,,,,,,,,,,,,,,,,,,,,,,,,,,,,
,,"[""period""]",0,[1.0035000000000025],14,0,14,0,1,5afeeff06369280001700225,24,Mężczyzna,2022-06-04_08h09.37.715,task,2021.1.4,Win32,74.97375918,628b806c463b948bc644b84f,629af7104b060a58ef4ee2d4,,,,,,,,,,,,,,,,,,,,,,,,,,,,,,,,,,,,,,,,,,,,,,,,,,,,,,,,,,,,,,,,,,,,,,,,,,,,,,,,,,,,,,,,,,,,,,,,,,,,,,,
,,"[""period""]",0,[1.0109999999999957],15,0,15,0,1,5afeeff06369280001700225,24,Mężczyzna,2022-06-04_08h09.37.715,task,2021.1.4,Win32,74.97375918,628b806c463b948bc644b84f,629af7104b060a58ef4ee2d4,,,,,,,,,,,,,,,,,,,,,,,,,,,,,,,,,,,,,,,,,,,,,,,,,,,,,,,,,,,,,,,,,,,,,,,,,,,,,,,,,,,,,,,,,,,,,,,,,,,,,,,
,,"[""comma""]",0,[0.493599999964232],16,0,16,0,1,5afeeff06369280001700225,24,Mężczyzna,2022-06-04_08h09.37.715,task,2021.1.4,Win32,74.97375918,628b806c463b948bc644b84f,629af7104b060a58ef4ee2d4,,,,,,,,,,,,,,,,,,,,,,,,,,,,,,,,,,,,,,,,,,,,,,,,,,,,,,,,,,,,,,,,,,,,,,,,,,,,,,,,,,,,,,,,,,,,,,,,,,,,,,,
,,"[""comma""]",0,[1.001399999976158],17,0,17,0,1,5afeeff06369280001700225,24,Mężczyzna,2022-06-04_08h09.37.715,task,2021.1.4,Win32,74.97375918,628b806c463b948bc644b84f,629af7104b060a58ef4ee2d4,,,,,,,,,,,,,,,,,,,,,,,,,,,,,,,,,,,,,,,,,,,,,,,,,,,,,,,,,,,,,,,,,,,,,,,,,,,,,,,,,,,,,,,,,,,,,,,,,,,,,,,
,,"[""period""]",0,[1.0541999999880716],18,0,18,0,1,5afeeff06369280001700225,24,Mężczyzna,2022-06-04_08h09.37.715,task,2021.1.4,Win32,74.97375918,628b806c463b948bc644b84f,629af7104b060a58ef4ee2d4,,,,,,,,,,,,,,,,,,,,,,,,,,,,,,,,,,,,,,,,,,,,,,,,,,,,,,,,,,,,,,,,,,,,,,,,,,,,,,,,,,,,,,,,,,,,,,,,,,,,,,,
,,"[""comma""]",0,[1.0853000000119266],19,0,19,0,1,5afeeff06369280001700225,24,Mężczyzna,2022-06-04_08h09.37.715,task,2021.1.4,Win32,74.97375918,628b806c463b948bc644b84f,629af7104b060a58ef4ee2d4,,,,,,,,,,,,,,,,,,,,,,,,,,,,,,,,,,,,,,,,,,,,,,,,,,,,,,,,,,,,,,,,,,,,,,,,,,,,,,,,,,,,,,,,,,,,,,,,,,,,,,,
,,"[""comma""]",0,[0.5483999999761551],20,0,20,0,1,5afeeff06369280001700225,24,Mężczyzna,2022-06-04_08h09.37.715,task,2021.1.4,Win32,74.97375918,628b806c463b948bc644b84f,629af7104b060a58ef4ee2d4,,,,,,,,,,,,,,,,,,,,,,,,,,,,,,,,,,,,,,,,,,,,,,,,,,,,,,,,,,,,,,,,,,,,,,,,,,,,,,,,,,,,,,,,,,,,,,,,,,,,,,,
,,"[""comma""]",0,[1.0358999999761522],21,0,21,0,1,5afeeff06369280001700225,24,Mężczyzna,2022-06-04_08h09.37.715,task,2021.1.4,Win32,74.97375918,628b806c463b948bc644b84f,629af7104b060a58ef4ee2d4,,,,,,,,,,,,,,,,,,,,,,,,,,,,,,,,,,,,,,,,,,,,,,,,,,,,,,,,,,,,,,,,,,,,,,,,,,,,,,,,,,,,,,,,,,,,,,,,,,,,,,,
,,"[""period""]",0,[1.0274000000357546],22,0,22,0,1,5afeeff06369280001700225,24,Mężczyzna,2022-06-04_08h09.37.715,task,2021.1.4,Win32,74.97375918,628b806c463b948bc644b84f,629af7104b060a58ef4ee2d4,,,,,,,,,,,,,,,,,,,,,,,,,,,,,,,,,,,,,,,,,,,,,,,,,,,,,,,,,,,,,,,,,,,,,,,,,,,,,,,,,,,,,,,,,,,,,,,,,,,,,,,
,,"[""period""]",0,[0.5870000000000033],23,0,23,0,1,5afeeff06369280001700225,24,Mężczyzna,2022-06-04_08h09.37.715,task,2021.1.4,Win32,74.97375918,628b806c463b948bc644b84f,629af7104b060a58ef4ee2d4,,,,,,,,,,,,,,,,,,,,,,,,,,,,,,,,,,,,,,,,,,,,,,,,,,,,,,,,,,,,,,,,,,,,,,,,,,,,,,,,,,,,,,,,,,,,,,,,,,,,,,,
,,"[""period""]",0,[0.42540000003576495],24,0,24,0,1,5afeeff06369280001700225,24,Mężczyzna,2022-06-04_08h09.37.715,task,2021.1.4,Win32,74.97375918,628b806c463b948bc644b84f,629af7104b060a58ef4ee2d4,,,,,,,,,,,,,,,,,,,,,,,,,,,,,,,,,,,,,,,,,,,,,,,,,,,,,,,,,,,,,,,,,,,,,,,,,,,,,,,,,,,,,,,,,,,,,,,,,,,,,,,
,,"[""comma""]",0,[0.241299999952318],25,0,25,0,1,5afeeff06369280001700225,24,Mężczyzna,2022-06-04_08h09.37.715,task,2021.1.4,Win32,74.97375918,628b806c463b948bc644b84f,629af7104b060a58ef4ee2d4,,,,,,,,,,,,,,,,,,,,,,,,,,,,,,,,,,,,,,,,,,,,,,,,,,,,,,,,,,,,,,,,,,,,,,,,,,,,,,,,,,,,,,,,,,,,,,,,,,,,,,,
,,"[""period""]",0,[0.27180000001192184],26,0,26,0,1,5afeeff06369280001700225,24,Mężczyzna,2022-06-04_08h09.37.715,task,2021.1.4,Win32,74.97375918,628b806c463b948bc644b84f,629af7104b060a58ef4ee2d4,,,,,,,,,,,,,,,,,,,,,,,,,,,,,,,,,,,,,,,,,,,,,,,,,,,,,,,,,,,,,,,,,,,,,,,,,,,,,,,,,,,,,,,,,,,,,,,,,,,,,,,
,,"[""comma""]",0,[0.9594999999999914],27,0,27,0,1,5afeeff06369280001700225,24,Mężczyzna,2022-06-04_08h09.37.715,task,2021.1.4,Win32,74.97375918,628b806c463b948bc644b84f,629af7104b060a58ef4ee2d4,,,,,,,,,,,,,,,,,,,,,,,,,,,,,,,,,,,,,,,,,,,,,,,,,,,,,,,,,,,,,,,,,,,,,,,,,,,,,,,,,,,,,,,,,,,,,,,,,,,,,,,
,,"[""period""]",0,[1.0943000000119127],28,0,28,0,1,5afeeff06369280001700225,24,Mężczyzna,2022-06-04_08h09.37.715,task,2021.1.4,Win32,74.97375918,628b806c463b948bc644b84f,629af7104b060a58ef4ee2d4,,,,,,,,,,,,,,,,,,,,,,,,,,,,,,,,,,,,,,,,,,,,,,,,,,,,,,,,,,,,,,,,,,,,,,,,,,,,,,,,,,,,,,,,,,,,,,,,,,,,,,,
,,"[""period""]",0,[1.3876999999880724],29,0,29,0,1,5afeeff06369280001700225,24,Mężczyzna,2022-06-04_08h09.37.715,task,2021.1.4,Win32,74.97375918,628b806c463b948bc644b84f,629af7104b060a58ef4ee2d4,,,,,,,,,,,,,,,,,,,,,,,,,,,,,,,,,,,,,,,,,,,,,,,,,,,,,,,,,,,,,,,,,,,,,,,,,,,,,,,,,,,,,,,,,,,,,,,,,,,,,,,
,,"[""comma""]",0,[1.10089999997615],30,0,30,0,1,5afeeff06369280001700225,24,Mężczyzna,2022-06-04_08h09.37.715,task,2021.1.4,Win32,74.97375918,628b806c463b948bc644b84f,629af7104b060a58ef4ee2d4,,,,,,,,,,,,,,,,,,,,,,,,,,,,,,,,,,,,,,,,,,,,,,,,,,,,,,,,,,,,,,,,,,,,,,,,,,,,,,,,,,,,,,,,,,,,,,,,,,,,,,,
,,"[""comma""]",0,[1.4762999999523174],31,0,31,0,1,5afeeff06369280001700225,24,Mężczyzna,2022-06-04_08h09.37.715,task,2021.1.4,Win32,74.97375918,628b806c463b948bc644b84f,629af7104b060a58ef4ee2d4,,,,,,,,,,,,,,,,,,,,,,,,,,,,,,,,,,,,,,,,,,,,,,,,,,,,,,,,,,,,,,,,,,,,,,,,,,,,,,,,,,,,,,,,,,,,,,,,,,,,,,,
,,"[""period""]",0,[1.340199999988073],32,0,32,0,1,5afeeff06369280001700225,24,Mężczyzna,2022-06-04_08h09.37.715,task,2021.1.4,Win32,74.97375918,628b806c463b948bc644b84f,629af7104b060a58ef4ee2d4,,,,,,,,,,,,,,,,,,,,,,,,,,,,,,,,,,,,,,,,,,,,,,,,,,,,,,,,,,,,,,,,,,,,,,,,,,,,,,,,,,,,,,,,,,,,,,,,,,,,,,,
,,"[""period""]",0,[1.1706999999880736],33,0,33,0,1,5afeeff06369280001700225,24,Mężczyzna,2022-06-04_08h09.37.715,task,2021.1.4,Win32,74.97375918,628b806c463b948bc644b84f,629af7104b060a58ef4ee2d4,,,,,,,,,,,,,,,,,,,,,,,,,,,,,,,,,,,,,,,,,,,,,,,,,,,,,,,,,,,,,,,,,,,,,,,,,,,,,,,,,,,,,,,,,,,,,,,,,,,,,,,
,,"[""comma""]",0,[1.1059999999999945],34,0,34,0,1,5afeeff06369280001700225,24,Mężczyzna,2022-06-04_08h09.37.715,task,2021.1.4,Win32,74.97375918,628b806c463b948bc644b84f,629af7104b060a58ef4ee2d4,,,,,,,,,,,,,,,,,,,,,,,,,,,,,,,,,,,,,,,,,,,,,,,,,,,,,,,,,,,,,,,,,,,,,,,,,,,,,,,,,,,,,,,,,,,,,,,,,,,,,,,
,,"[""comma""]",0,[1.2414000000357817],35,0,35,0,1,5afeeff06369280001700225,24,Mężczyzna,2022-06-04_08h09.37.715,task,2021.1.4,Win32,74.97375918,628b806c463b948bc644b84f,629af7104b060a58ef4ee2d4,,,,,,,,,,,,,,,,,,,,,,,,,,,,,,,,,,,,,,,,,,,,,,,,,,,,,,,,,,,,,,,,,,,,,,,,,,,,,,,,,,,,,,,,,,,,,,,,,,,,,,,
,,"[""comma""]",0,[1.045599999964253],36,0,36,0,1,5afeeff06369280001700225,24,Mężczyzna,2022-06-04_08h09.37.715,task,2021.1.4,Win32,74.97375918,628b806c463b948bc644b84f,629af7104b060a58ef4ee2d4,,,,,,,,,,,,,,,,,,,,,,,,,,,,,,,,,,,,,,,,,,,,,,,,,,,,,,,,,,,,,,,,,,,,,,,,,,,,,,,,,,,,,,,,,,,,,,,,,,,,,,,
,,"[""period""]",0,[0.4450000000000216],37,0,37,0,1,5afeeff06369280001700225,24,Mężczyzna,2022-06-04_08h09.37.715,task,2021.1.4,Win32,74.97375918,628b806c463b948bc644b84f,629af7104b060a58ef4ee2d4,,,,,,,,,,,,,,,,,,,,,,,,,,,,,,,,,,,,,,,,,,,,,,,,,,,,,,,,,,,,,,,,,,,,,,,,,,,,,,,,,,,,,,,,,,,,,,,,,,,,,,,
,,"[""period""]",0,[0.9739999999999895],38,0,38,0,1,5afeeff06369280001700225,24,Mężczyzna,2022-06-04_08h09.37.715,task,2021.1.4,Win32,74.97375918,628b806c463b948bc644b84f,629af7104b060a58ef4ee2d4,,,,,,,,,,,,,,,,,,,,,,,,,,,,,,,,,,,,,,,,,,,,,,,,,,,,,,,,,,,,,,,,,,,,,,,,,,,,,,,,,,,,,,,,,,,,,,,,,,,,,,,
,,"[""period""]",0,[0.9633000000119125],39,0,39,0,1,5afeeff06369280001700225,24,Mężczyzna,2022-06-04_08h09.37.715,task,2021.1.4,Win32,74.97375918,628b806c463b948bc644b84f,629af7104b060a58ef4ee2d4,,,,,,,,,,,,,,,,,,,,,,,,,,,,,,,,,,,,,,,,,,,,,,,,,,,,,,,,,,,,,,,,,,,,,,,,,,,,,,,,,,,,,,,,,,,,,,,,,,,,,,,
,,"[""comma""]",0,[1.2508000000119353],40,0,40,0,1,5afeeff06369280001700225,24,Mężczyzna,2022-06-04_08h09.37.715,task,2021.1.4,Win32,74.97375918,628b806c463b948bc644b84f,629af7104b060a58ef4ee2d4,,,,,,,,,,,,,,,,,,,,,,,,,,,,,,,,,,,,,,,,,,,,,,,,,,,,,,,,,,,,,,,,,,,,,,,,,,,,,,,,,,,,,,,,,,,,,,,,,,,,,,,
,,"[""comma""]",0,[1.2901000000238412],41,0,41,0,1,5afeeff06369280001700225,24,Mężczyzna,2022-06-04_08h09.37.715,task,2021.1.4,Win32,74.97375918,628b806c463b948bc644b84f,629af7104b060a58ef4ee2d4,,,,,,,,,,,,,,,,,,,,,,,,,,,,,,,,,,,,,,,,,,,,,,,,,,,,,,,,,,,,,,,,,,,,,,,,,,,,,,,,,,,,,,,,,,,,,,,,,,,,,,,
,,"[""period""]",0,[1.4171999999880711],42,0,42,0,1,5afeeff06369280001700225,24,Mężczyzna,2022-06-04_08h09.37.715,task,2021.1.4,Win32,74.97375918,628b806c463b948bc644b84f,629af7104b060a58ef4ee2d4,,,,,,,,,,,,,,,,,,,,,,,,,,,,,,,,,,,,,,,,,,,,,,,,,,,,,,,,,,,,,,,,,,,,,,,,,,,,,,,,,,,,,,,,,,,,,,,,,,,,,,,
,,"[""period""]",0,[1.2648000000119168],43,0,43,0,1,5afeeff06369280001700225,24,Mężczyzna,2022-06-04_08h09.37.715,task,2021.1.4,Win32,74.97375918,628b806c463b948bc644b84f,629af7104b060a58ef4ee2d4,,,,,,,,,,,,,,,,,,,,,,,,,,,,,,,,,,,,,,,,,,,,,,,,,,,,,,,,,,,,,,,,,,,,,,,,,,,,,,,,,,,,,,,,,,,,,,,,,,,,,,,
,,"[""comma""]",0,[1.1996999999880984],44,0,44,0,1,5afeeff06369280001700225,24,Mężczyzna,2022-06-04_08h09.37.715,task,2021.1.4,Win32,74.97375918,628b806c463b948bc644b84f,629af7104b060a58ef4ee2d4,,,,,,,,,,,,,,,,,,,,,,,,,,,,,,,,,,,,,,,,,,,,,,,,,,,,,,,,,,,,,,,,,,,,,,,,,,,,,,,,,,,,,,,,,,,,,,,,,,,,,,,
,,"[""comma""]",0,[1.0946999999880802],45,0,45,0,1,5afeeff06369280001700225,24,Mężczyzna,2022-06-04_08h09.37.715,task,2021.1.4,Win32,74.97375918,628b806c463b948bc644b84f,629af7104b060a58ef4ee2d4,,,,,,,,,,,,,,,,,,,,,,,,,,,,,,,,,,,,,,,,,,,,,,,,,,,,,,,,,,,,,,,,,,,,,,,,,,,,,,,,,,,,,,,,,,,,,,,,,,,,,,,
,,"[""period""]",0,[1.0061999999880697],46,0,46,0,1,5afeeff06369280001700225,24,Mężczyzna,2022-06-04_08h09.37.715,task,2021.1.4,Win32,74.97375918,628b806c463b948bc644b84f,629af7104b060a58ef4ee2d4,,,,,,,,,,,,,,,,,,,,,,,,,,,,,,,,,,,,,,,,,,,,,,,,,,,,,,,,,,,,,,,,,,,,,,,,,,,,,,,,,,,,,,,,,,,,,,,,,,,,,,,
,,"[""comma""]",0,[1.029300000011915],47,0,47,0,1,5afeeff06369280001700225,24,Mężczyzna,2022-06-04_08h09.37.715,task,2021.1.4,Win32,74.97375918,628b806c463b948bc644b84f,629af7104b060a58ef4ee2d4,,,,,,,,,,,,,,,,,,,,,,,,,,,,,,,,,,,,,,,,,,,,,,,,,,,,,,,,,,,,,,,,,,,,,,,,,,,,,,,,,,,,,,,,,,,,,,,,,,,,,,,
,,"[""period""]",0,[1.0446000000238485],48,0,48,0,1,5afeeff06369280001700225,24,Mężczyzna,2022-06-04_08h09.37.715,task,2021.1.4,Win32,74.97375918,628b806c463b948bc644b84f,629af7104b060a58ef4ee2d4,,,,,,,,,,,,,,,,,,,,,,,,,,,,,,,,,,,,,,,,,,,,,,,,,,,,,,,,,,,,,,,,,,,,,,,,,,,,,,,,,,,,,,,,,,,,,,,,,,,,,,,
,,"[""comma""]",0,[0.9404999999999859],49,0,49,0,1,5afeeff06369280001700225,24,Mężczyzna,2022-06-04_08h09.37.715,task,2021.1.4,Win32,74.97375918,628b806c463b948bc644b84f,629af7104b060a58ef4ee2d4,,,,,,,,,,,,,,,,,,,,,,,,,,,,,,,,,,,,,,,,,,,,,,,,,,,,,,,,,,,,,,,,,,,,,,,,,,,,,,,,,,,,,,,,,,,,,,,,,,,,,,,
,,"[""period""]",0,[1.0190999999642543],50,0,50,0,1,5afeeff06369280001700225,24,Mężczyzna,2022-06-04_08h09.37.715,task,2021.1.4,Win32,74.97375918,628b806c463b948bc644b84f,629af7104b060a58ef4ee2d4,,,,,,,,,,,,,,,,,,,,,,,,,,,,,,,,,,,,,,,,,,,,,,,,,,,,,,,,,,,,,,,,,,,,,,,,,,,,,,,,,,,,,,,,,,,,,,,,,,,,,,,
,,"[""period""]",0,[1.1383999999761443],51,0,51,0,1,5afeeff06369280001700225,24,Mężczyzna,2022-06-04_08h09.37.715,task,2021.1.4,Win32,74.97375918,628b806c463b948bc644b84f,629af7104b060a58ef4ee2d4,,,,,,,,,,,,,,,,,,,,,,,,,,,,,,,,,,,,,,,,,,,,,,,,,,,,,,,,,,,,,,,,,,,,,,,,,,,,,,,,,,,,,,,,,,,,,,,,,,,,,,,
,,"[""comma""]",0,[1.049600000023844],52,0,52,0,1,5afeeff06369280001700225,24,Mężczyzna,2022-06-04_08h09.37.715,task,2021.1.4,Win32,74.97375918,628b806c463b948bc644b84f,629af7104b060a58ef4ee2d4,,,,,,,,,,,,,,,,,,,,,,,,,,,,,,,,,,,,,,,,,,,,,,,,,,,,,,,,,,,,,,,,,,,,,,,,,,,,,,,,,,,,,,,,,,,,,,,,,,,,,,,
,,"[""period""]",0,[0.9770000000000039],53,0,53,0,1,5afeeff06369280001700225,24,Mężczyzna,2022-06-04_08h09.37.715,task,2021.1.4,Win32,74.97375918,628b806c463b948bc644b84f,629af7104b060a58ef4ee2d4,,,,,,,,,,,,,,,,,,,,,,,,,,,,,,,,,,,,,,,,,,,,,,,,,,,,,,,,,,,,,,,,,,,,,,,,,,,,,,,,,,,,,,,,,,,,,,,,,,,,,,,
,,"[""period""]",0,[1.0458000000119227],54,0,54,0,1,5afeeff06369280001700225,24,Mężczyzna,2022-06-04_08h09.37.715,task,2021.1.4,Win32,74.97375918,628b806c463b948bc644b84f,629af7104b060a58ef4ee2d4,,,,,,,,,,,,,,,,,,,,,,,,,,,,,,,,,,,,,,,,,,,,,,,,,,,,,,,,,,,,,,,,,,,,,,,,,,,,,,,,,,,,,,,,,,,,,,,,,,,,,,,
,,"[""period""]",0,[1.1407999999523213],55,0,55,0,1,5afeeff06369280001700225,24,Mężczyzna,2022-06-04_08h09.37.715,task,2021.1.4,Win32,74.97375918,628b806c463b948bc644b84f,629af7104b060a58ef4ee2d4,,,,,,,,,,,,,,,,,,,,,,,,,,,,,,,,,,,,,,,,,,,,,,,,,,,,,,,,,,,,,,,,,,,,,,,,,,,,,,,,,,,,,,,,,,,,,,,,,,,,,,,
,,"[""comma""]",0,[1.171999999999997],56,0,56,0,1,5afeeff06369280001700225,24,Mężczyzna,2022-06-04_08h09.37.715,task,2021.1.4,Win32,74.97375918,628b806c463b948bc644b84f,629af7104b060a58ef4ee2d4,,,,,,,,,,,,,,,,,,,,,,,,,,,,,,,,,,,,,,,,,,,,,,,,,,,,,,,,,,,,,,,,,,,,,,,,,,,,,,,,,,,,,,,,,,,,,,,,,,,,,,,
,,"[""comma""]",0,[0.9791999999880829],57,0,57,0,1,5afeeff06369280001700225,24,Mężczyzna,2022-06-04_08h09.37.715,task,2021.1.4,Win32,74.97375918,628b806c463b948bc644b84f,629af7104b060a58ef4ee2d4,,,,,,,,,,,,,,,,,,,,,,,,,,,,,,,,,,,,,,,,,,,,,,,,,,,,,,,,,,,,,,,,,,,,,,,,,,,,,,,,,,,,,,,,,,,,,,,,,,,,,,,
,,"[""comma""]",0,[1.0904000000357712],58,0,58,0,1,5afeeff06369280001700225,24,Mężczyzna,2022-06-04_08h09.37.715,task,2021.1.4,Win32,74.97375918,628b806c463b948bc644b84f,629af7104b060a58ef4ee2d4,,,,,,,,,,,,,,,,,,,,,,,,,,,,,,,,,,,,,,,,,,,,,,,,,,,,,,,,,,,,,,,,,,,,,,,,,,,,,,,,,,,,,,,,,,,,,,,,,,,,,,,
,,"[""period""]",0,[1.0019000000357607],59,0,59,0,1,5afeeff06369280001700225,24,Mężczyzna,2022-06-04_08h09.37.715,task,2021.1.4,Win32,74.97375918,628b806c463b948bc644b84f,629af7104b060a58ef4ee2d4,,,,,,,,,,,,,,,,,,,,,,,,,,,,,,,,,,,,,,,,,,,,,,,,,,,,,,,,,,,,,,,,,,,,,,,,,,,,,,,,,,,,,,,,,,,,,,,,,,,,,,,
,,"[""period""]",0,[1.2014000000357612],60,0,60,0,1,5afeeff06369280001700225,24,Mężczyzna,2022-06-04_08h09.37.715,task,2021.1.4,Win32,74.97375918,628b806c463b948bc644b84f,629af7104b060a58ef4ee2d4,,,,,,,,,,,,,,,,,,,,,,,,,,,,,,,,,,,,,,,,,,,,,,,,,,,,,,,,,,,,,,,,,,,,,,,,,,,,,,,,,,,,,,,,,,,,,,,,,,,,,,,
,,"[""comma""]",0,[1.0481000000238225],61,0,61,0,1,5afeeff06369280001700225,24,Mężczyzna,2022-06-04_08h09.37.715,task,2021.1.4,Win32,74.97375918,628b806c463b948bc644b84f,629af7104b060a58ef4ee2d4,,,,,,,,,,,,,,,,,,,,,,,,,,,,,,,,,,,,,,,,,,,,,,,,,,,,,,,,,,,,,,,,,,,,,,,,,,,,,,,,,,,,,,,,,,,,,,,,,,,,,,,
,,"[""comma""]",0,[1.1754999999999995],62,0,62,0,1,5afeeff06369280001700225,24,Mężczyzna,2022-06-04_08h09.37.715,task,2021.1.4,Win32,74.97375918,628b806c463b948bc644b84f,629af7104b060a58ef4ee2d4,,,,,,,,,,,,,,,,,,,,,,,,,,,,,,,,,,,,,,,,,,,,,,,,,,,,,,,,,,,,,,,,,,,,,,,,,,,,,,,,,,,,,,,,,,,,,,,,,,,,,,,
,,"[""period""]",0,[1.5265999999642474],63,0,63,0,1,5afeeff06369280001700225,24,Mężczyzna,2022-06-04_08h09.37.715,task,2021.1.4,Win32,74.97375918,628b806c463b948bc644b84f,629af7104b060a58ef4ee2d4,,,,,,,,,,,,,,,,,,,,,,,,,,,,,,,,,,,,,,,,,,,,,,,,,,,,,,,,,,,,,,,,,,,,,,,,,,,,,,,,,,,,,,,,,,,,,,,,,,,,,,,
,,"[""comma""]",0,[1.7018000000119002],64,0,64,0,1,5afeeff06369280001700225,24,Mężczyzna,2022-06-04_08h09.37.715,task,2021.1.4,Win32,74.97375918,628b806c463b948bc644b84f,629af7104b060a58ef4ee2d4,,,,,,,,,,,,,,,,,,,,,,,,,,,,,,,,,,,,,,,,,,,,,,,,,,,,,,,,,,,,,,,,,,,,,,,,,,,,,,,,,,,,,,,,,,,,,,,,,,,,,,,
,,"[""period""]",0,[1.397500000000008],65,0,65,0,1,5afeeff06369280001700225,24,Mężczyzna,2022-06-04_08h09.37.715,task,2021.1.4,Win32,74.97375918,628b806c463b948bc644b84f,629af7104b060a58ef4ee2d4,,,,,,,,,,,,,,,,,,,,,,,,,,,,,,,,,,,,,,,,,,,,,,,,,,,,,,,,,,,,,,,,,,,,,,,,,,,,,,,,,,,,,,,,,,,,,,,,,,,,,,,
,,"[""comma""]",0,[0.996300000011928],66,0,66,0,1,5afeeff06369280001700225,24,Mężczyzna,2022-06-04_08h09.37.715,task,2021.1.4,Win32,74.97375918,628b806c463b948bc644b84f,629af7104b060a58ef4ee2d4,,,,,,,,,,,,,,,,,,,,,,,,,,,,,,,,,,,,,,,,,,,,,,,,,,,,,,,,,,,,,,,,,,,,,,,,,,,,,,,,,,,,,,,,,,,,,,,,,,,,,,,
,,"[""comma""]",0,[0.9716999999880898],67,0,67,0,1,5afeeff06369280001700225,24,Mężczyzna,2022-06-04_08h09.37.715,task,2021.1.4,Win32,74.97375918,628b806c463b948bc644b84f,629af7104b060a58ef4ee2d4,,,,,,,,,,,,,,,,,,,,,,,,,,,,,,,,,,,,,,,,,,,,,,,,,,,,,,,,,,,,,,,,,,,,,,,,,,,,,,,,,,,,,,,,,,,,,,,,,,,,,,,
,,"[""period""]",0,[1.0349000000357762],68,0,68,0,1,5afeeff06369280001700225,24,Mężczyzna,2022-06-04_08h09.37.715,task,2021.1.4,Win32,74.97375918,628b806c463b948bc644b84f,629af7104b060a58ef4ee2d4,,,,,,,,,,,,,,,,,,,,,,,,,,,,,,,,,,,,,,,,,,,,,,,,,,,,,,,,,,,,,,,,,,,,,,,,,,,,,,,,,,,,,,,,,,,,,,,,,,,,,,,
,,"[""comma""]",0,[1.1059999999999945],69,0,69,0,1,5afeeff06369280001700225,24,Mężczyzna,2022-06-04_08h09.37.715,task,2021.1.4,Win32,74.97375918,628b806c463b948bc644b84f,629af7104b060a58ef4ee2d4,,,,,,,,,,,,,,,,,,,,,,,,,,,,,,,,,,,,,,,,,,,,,,,,,,,,,,,,,,,,,,,,,,,,,,,,,,,,,,,,,,,,,,,,,,,,,,,,,,,,,,,
,,"[""comma""]",0,[1.16130000001192],70,0,70,0,1,5afeeff06369280001700225,24,Mężczyzna,2022-06-04_08h09.37.715,task,2021.1.4,Win32,74.97375918,628b806c463b948bc644b84f,629af7104b060a58ef4ee2d4,,,,,,,,,,,,,,,,,,,,,,,,,,,,,,,,,,,,,,,,,,,,,,,,,,,,,,,,,,,,,,,,,,,,,,,,,,,,,,,,,,,,,,,,,,,,,,,,,,,,,,,
,,"[""comma""]",0,[1.1051000000238673],71,0,71,0,1,5afeeff06369280001700225,24,Mężczyzna,2022-06-04_08h09.37.715,task,2021.1.4,Win32,74.97375918,628b806c463b948bc644b84f,629af7104b060a58ef4ee2d4,,,,,,,,,,,,,,,,,,,,,,,,,,,,,,,,,,,,,,,,,,,,,,,,,,,,,,,,,,,,,,,,,,,,,,,,,,,,,,,,,,,,,,,,,,,,,,,,,,,,,,,
,,"[""comma""]",0,[0.9471999999880722],72,0,72,0,1,5afeeff06369280001700225,24,Mężczyzna,2022-06-04_08h09.37.715,task,2021.1.4,Win32,74.97375918,628b806c463b948bc644b84f,629af7104b060a58ef4ee2d4,,,,,,,,,,,,,,,,,,,,,,,,,,,,,,,,,,,,,,,,,,,,,,,,,,,,,,,,,,,,,,,,,,,,,,,,,,,,,,,,,,,,,,,,,,,,,,,,,,,,,,,
,,"[""period""]",0,[1.0523999999761315],73,0,73,0,1,5afeeff06369280001700225,24,Mężczyzna,2022-06-04_08h09.37.715,task,2021.1.4,Win32,74.97375918,628b806c463b948bc644b84f,629af7104b060a58ef4ee2d4,,,,,,,,,,,,,,,,,,,,,,,,,,,,,,,,,,,,,,,,,,,,,,,,,,,,,,,,,,,,,,,,,,,,,,,,,,,,,,,,,,,,,,,,,,,,,,,,,,,,,,,
,,"[""period""]",0,[1.179599999964239],74,0,74,0,1,5afeeff06369280001700225,24,Mężczyzna,2022-06-04_08h09.37.715,task,2021.1.4,Win32,74.97375918,628b806c463b948bc644b84f,629af7104b060a58ef4ee2d4,,,,,,,,,,,,,,,,,,,,,,,,,,,,,,,,,,,,,,,,,,,,,,,,,,,,,,,,,,,,,,,,,,,,,,,,,,,,,,,,,,,,,,,,,,,,,,,,,,,,,,,
,,"[""period""]",0,[1.1073999999761384],75,0,75,0,1,5afeeff06369280001700225,24,Mężczyzna,2022-06-04_08h09.37.715,task,2021.1.4,Win32,74.97375918,628b806c463b948bc644b84f,629af7104b060a58ef4ee2d4,,,,,,,,,,,,,,,,,,,,,,,,,,,,,,,,,,,,,,,,,,,,,,,,,,,,,,,,,,,,,,,,,,,,,,,,,,,,,,,,,,,,,,,,,,,,,,,,,,,,,,,
,,"[""comma""]",0,[1.1472999999523381],76,0,76,0,1,5afeeff06369280001700225,24,Mężczyzna,2022-06-04_08h09.37.715,task,2021.1.4,Win32,74.97375918,628b806c463b948bc644b84f,629af7104b060a58ef4ee2d4,,,,,,,,,,,,,,,,,,,,,,,,,,,,,,,,,,,,,,,,,,,,,,,,,,,,,,,,,,,,,,,,,,,,,,,,,,,,,,,,,,,,,,,,,,,,,,,,,,,,,,,
,,"[""comma""]",0,[1.2414000000357532],77,0,77,0,1,5afeeff06369280001700225,24,Mężczyzna,2022-06-04_08h09.37.715,task,2021.1.4,Win32,74.97375918,628b806c463b948bc644b84f,629af7104b060a58ef4ee2d4,,,,,,,,,,,,,,,,,,,,,,,,,,,,,,,,,,,,,,,,,,,,,,,,,,,,,,,,,,,,,,,,,,,,,,,,,,,,,,,,,,,,,,,,,,,,,,,,,,,,,,,
,,"[""period""]",0,[1.2726999999880775],78,0,78,0,1,5afeeff06369280001700225,24,Mężczyzna,2022-06-04_08h09.37.715,task,2021.1.4,Win32,74.97375918,628b806c463b948bc644b84f,629af7104b060a58ef4ee2d4,,,,,,,,,,,,,,,,,,,,,,,,,,,,,,,,,,,,,,,,,,,,,,,,,,,,,,,,,,,,,,,,,,,,,,,,,,,,,,,,,,,,,,,,,,,,,,,,,,,,,,,
,,"[""comma""]",0,[1.3608000000119205],79,0,79,0,1,5afeeff06369280001700225,24,Mężczyzna,2022-06-04_08h09.37.715,task,2021.1.4,Win32,74.97375918,628b806c463b948bc644b84f,629af7104b060a58ef4ee2d4,,,,,,,,,,,,,,,,,,,,,,,,,,,,,,,,,,,,,,,,,,,,,,,,,,,,,,,,,,,,,,,,,,,,,,,,,,,,,,,,,,,,,,,,,,,,,,,,,,,,,,,
,,"[""period""]",0,[1.015500000000003],80,0,80,0,1,5afeeff06369280001700225,24,Mężczyzna,2022-06-04_08h09.37.715,task,2021.1.4,Win32,74.97375918,628b806c463b948bc644b84f,629af7104b060a58ef4ee2d4,,,,,,,,,,,,,,,,,,,,,,,,,,,,,,,,,,,,,,,,,,,,,,,,,,,,,,,,,,,,,,,,,,,,,,,,,,,,,,,,,,,,,,,,,,,,,,,,,,,,,,,
,,"[""comma""]",0,[1.0303000000119198],81,0,81,0,1,5afeeff06369280001700225,24,Mężczyzna,2022-06-04_08h09.37.715,task,2021.1.4,Win32,74.97375918,628b806c463b948bc644b84f,629af7104b060a58ef4ee2d4,,,,,,,,,,,,,,,,,,,,,,,,,,,,,,,,,,,,,,,,,,,,,,,,,,,,,,,,,,,,,,,,,,,,,,,,,,,,,,,,,,,,,,,,,,,,,,,,,,,,,,,
,,"[""comma""]",0,[1.269899999976161],82,0,82,0,1,5afeeff06369280001700225,24,Mężczyzna,2022-06-04_08h09.37.715,task,2021.1.4,Win32,74.97375918,628b806c463b948bc644b84f,629af7104b060a58ef4ee2d4,,,,,,,,,,,,,,,,,,,,,,,,,,,,,,,,,,,,,,,,,,,,,,,,,,,,,,,,,,,,,,,,,,,,,,,,,,,,,,,,,,,,,,,,,,,,,,,,,,,,,,,
,,"[""period""]",0,[1.2768000000119457],83,0,83,0,1,5afeeff06369280001700225,24,Mężczyzna,2022-06-04_08h09.37.715,task,2021.1.4,Win32,74.97375918,628b806c463b948bc644b84f,629af7104b060a58ef4ee2d4,,,,,,,,,,,,,,,,,,,,,,,,,,,,,,,,,,,,,,,,,,,,,,,,,,,,,,,,,,,,,,,,,,,,,,,,,,,,,,,,,,,,,,,,,,,,,,,,,,,,,,,
,,"[""comma""]",0,[1.1881999999880577],84,0,84,0,1,5afeeff06369280001700225,24,Mężczyzna,2022-06-04_08h09.37.715,task,2021.1.4,Win32,74.97375918,628b806c463b948bc644b84f,629af7104b060a58ef4ee2d4,,,,,,,,,,,,,,,,,,,,,,,,,,,,,,,,,,,,,,,,,,,,,,,,,,,,,,,,,,,,,,,,,,,,,,,,,,,,,,,,,,,,,,,,,,,,,,,,,,,,,,,
,,"[""comma""]",0,[1.3078000000119232],85,0,85,0,1,5afeeff06369280001700225,24,Mężczyzna,2022-06-04_08h09.37.715,task,2021.1.4,Win32,74.97375918,628b806c463b948bc644b84f,629af7104b060a58ef4ee2d4,,,,,,,,,,,,,,,,,,,,,,,,,,,,,,,,,,,,,,,,,,,,,,,,,,,,,,,,,,,,,,,,,,,,,,,,,,,,,,,,,,,,,,,,,,,,,,,,,,,,,,,
,,"[""period""]",0,[1.858800000011911],86,0,86,0,1,5afeeff06369280001700225,24,Mężczyzna,2022-06-04_08h09.37.715,task,2021.1.4,Win32,74.97375918,628b806c463b948bc644b84f,629af7104b060a58ef4ee2d4,,,,,,,,,,,,,,,,,,,,,,,,,,,,,,,,,,,,,,,,,,,,,,,,,,,,,,,,,,,,,,,,,,,,,,,,,,,,,,,,,,,,,,,,,,,,,,,,,,,,,,,
,,"[""period""]",0,[1.618199999988093],87,0,87,0,1,5afeeff06369280001700225,24,Mężczyzna,2022-06-04_08h09.37.715,task,2021.1.4,Win32,74.97375918,628b806c463b948bc644b84f,629af7104b060a58ef4ee2d4,,,,,,,,,,,,,,,,,,,,,,,,,,,,,,,,,,,,,,,,,,,,,,,,,,,,,,,,,,,,,,,,,,,,,,,,,,,,,,,,,,,,,,,,,,,,,,,,,,,,,,,
,,,0,,88,0,88,0,1,5afeeff06369280001700225,24,Mężczyzna,2022-06-04_08h09.37.715,task,2021.1.4,Win32,74.97375918,628b806c463b948bc644b84f,629af7104b060a58ef4ee2d4,,,,,,,,,,,,,,,,,,,,,,,,,,,,,,,,,,,,,,,,,,,,,,,,,,,,,,,,,,,,,,,,,,,,,,,,,,,,,,,,,,,,,,,,,,,,,,,,,,,,,,,
,,"[""comma""]",0,[0.1658000000119273],89,0,89,0,1,5afeeff06369280001700225,24,Mężczyzna,2022-06-04_08h09.37.715,task,2021.1.4,Win32,74.97375918,628b806c463b948bc644b84f,629af7104b060a58ef4ee2d4,,,,,,,,,,,,,,,,,,,,,,,,,,,,,,,,,,,,,,,,,,,,,,,,,,,,,,,,,,,,,,,,,,,,,,,,,,,,,,,,,,,,,,,,,,,,,,,,,,,,,,,
,,"[""period"",""comma""]",0,"[0.20519999998808203,1.972899999976164]",90,0,90,0,1,5afeeff06369280001700225,24,Mężczyzna,2022-06-04_08h09.37.715,task,2021.1.4,Win32,74.97375918,628b806c463b948bc644b84f,629af7104b060a58ef4ee2d4,,,,,,,,,,,,,,,,,,,,,,,,,,,,,,,,,,,,,,,,,,,,,,,,,,,,,,,,,,,,,,,,,,,,,,,,,,,,,,,,,,,,,,,,,,,,,,,,,,,,,,,
,,"[""period""]",0,[1.7341999999880784],91,0,91,0,1,5afeeff06369280001700225,24,Mężczyzna,2022-06-04_08h09.37.715,task,2021.1.4,Win32,74.97375918,628b806c463b948bc644b84f,629af7104b060a58ef4ee2d4,,,,,,,,,,,,,,,,,,,,,,,,,,,,,,,,,,,,,,,,,,,,,,,,,,,,,,,,,,,,,,,,,,,,,,,,,,,,,,,,,,,,,,,,,,,,,,,,,,,,,,,
,,"[""comma""]",0,[1.6193999999761672],92,0,92,0,1,5afeeff06369280001700225,24,Mężczyzna,2022-06-04_08h09.37.715,task,2021.1.4,Win32,74.97375918,628b806c463b948bc644b84f,629af7104b060a58ef4ee2d4,,,,,,,,,,,,,,,,,,,,,,,,,,,,,,,,,,,,,,,,,,,,,,,,,,,,,,,,,,,,,,,,,,,,,,,,,,,,,,,,,,,,,,,,,,,,,,,,,,,,,,,
,,"[""period""]",0,[0.9148999999761429],93,0,93,0,1,5afeeff06369280001700225,24,Mężczyzna,2022-06-04_08h09.37.715,task,2021.1.4,Win32,74.97375918,628b806c463b948bc644b84f,629af7104b060a58ef4ee2d4,,,,,,,,,,,,,,,,,,,,,,,,,,,,,,,,,,,,,,,,,,,,,,,,,,,,,,,,,,,,,,,,,,,,,,,,,,,,,,,,,,,,,,,,,,,,,,,,,,,,,,,
,,"[""comma""]",0,[0.37810000002386346],94,0,94,0,1,5afeeff06369280001700225,24,Mężczyzna,2022-06-04_08h09.37.715,task,2021.1.4,Win32,74.97375918,628b806c463b948bc644b84f,629af7104b060a58ef4ee2d4,,,,,,,,,,,,,,,,,,,,,,,,,,,,,,,,,,,,,,,,,,,,,,,,,,,,,,,,,,,,,,,,,,,,,,,,,,,,,,,,,,,,,,,,,,,,,,,,,,,,,,,
,,"[""period""]",0,[0.27330000001188637],95,0,95,0,1,5afeeff06369280001700225,24,Mężczyzna,2022-06-04_08h09.37.715,task,2021.1.4,Win32,74.97375918,628b806c463b948bc644b84f,629af7104b060a58ef4ee2d4,,,,,,,,,,,,,,,,,,,,,,,,,,,,,,,,,,,,,,,,,,,,,,,,,,,,,,,,,,,,,,,,,,,,,,,,,,,,,,,,,,,,,,,,,,,,,,,,,,,,,,,
,,"[""period""]",0,[0.4964000000357487],96,0,96,0,1,5afeeff06369280001700225,24,Mężczyzna,2022-06-04_08h09.37.715,task,2021.1.4,Win32,74.97375918,628b806c463b948bc644b84f,629af7104b060a58ef4ee2d4,,,,,,,,,,,,,,,,,,,,,,,,,,,,,,,,,,,,,,,,,,,,,,,,,,,,,,,,,,,,,,,,,,,,,,,,,,,,,,,,,,,,,,,,,,,,,,,,,,,,,,,
,,"[""period""]",0,[0.3036999999881118],97,0,97,0,1,5afeeff06369280001700225,24,Mężczyzna,2022-06-04_08h09.37.715,task,2021.1.4,Win32,74.97375918,628b806c463b948bc644b84f,629af7104b060a58ef4ee2d4,,,,,,,,,,,,,,,,,,,,,,,,,,,,,,,,,,,,,,,,,,,,,,,,,,,,,,,,,,,,,,,,,,,,,,,,,,,,,,,,,,,,,,,,,,,,,,,,,,,,,,,
,,"[""comma""]",0,[0.23080000001192502],98,0,98,0,1,5afeeff06369280001700225,24,Mężczyzna,2022-06-04_08h09.37.715,task,2021.1.4,Win32,74.97375918,628b806c463b948bc644b84f,629af7104b060a58ef4ee2d4,,,,,,,,,,,,,,,,,,,,,,,,,,,,,,,,,,,,,,,,,,,,,,,,,,,,,,,,,,,,,,,,,,,,,,,,,,,,,,,,,,,,,,,,,,,,,,,,,,,,,,,
,,"[""comma""]",0,[0.3206000000238305],99,0,99,0,1,5afeeff06369280001700225,24,Mężczyzna,2022-06-04_08h09.37.715,task,2021.1.4,Win32,74.97375918,628b806c463b948bc644b84f,629af7104b060a58ef4ee2d4,,,,,,,,,,,,,,,,,,,,,,,,,,,,,,,,,,,,,,,,,,,,,,,,,,,,,,,,,,,,,,,,,,,,,,,,,,,,,,,,,,,,,,,,,,,,,,,,,,,,,,,
,,"[""comma""]",0,[0.3205000000000382],100,0,100,0,1,5afeeff06369280001700225,24,Mężczyzna,2022-06-04_08h09.37.715,task,2021.1.4,Win32,74.97375918,628b806c463b948bc644b84f,629af7104b060a58ef4ee2d4,,,,,,,,,,,,,,,,,,,,,,,,,,,,,,,,,,,,,,,,,,,,,,,,,,,,,,,,,,,,,,,,,,,,,,,,,,,,,,,,,,,,,,,,,,,,,,,,,,,,,,,
,,"[""period""]",0,[0.3006999999881259],101,0,101,0,1,5afeeff06369280001700225,24,Mężczyzna,2022-06-04_08h09.37.715,task,2021.1.4,Win32,74.97375918,628b806c463b948bc644b84f,629af7104b060a58ef4ee2d4,,,,,,,,,,,,,,,,,,,,,,,,,,,,,,,,,,,,,,,,,,,,,,,,,,,,,,,,,,,,,,,,,,,,,,,,,,,,,,,,,,,,,,,,,,,,,,,,,,,,,,,
,,"[""period""]",0,[0.31580000001190456],102,0,102,0,1,5afeeff06369280001700225,24,Mężczyzna,2022-06-04_08h09.37.715,task,2021.1.4,Win32,74.97375918,628b806c463b948bc644b84f,629af7104b060a58ef4ee2d4,,,,,,,,,,,,,,,,,,,,,,,,,,,,,,,,,,,,,,,,,,,,,,,,,,,,,,,,,,,,,,,,,,,,,,,,,,,,,,,,,,,,,,,,,,,,,,,,,,,,,,,
,,"[""period""]",0,[0.41900000000003956],103,0,103,0,1,5afeeff06369280001700225,24,Mężczyzna,2022-06-04_08h09.37.715,task,2021.1.4,Win32,74.97375918,628b806c463b948bc644b84f,629af7104b060a58ef4ee2d4,,,,,,,,,,,,,,,,,,,,,,,,,,,,,,,,,,,,,,,,,,,,,,,,,,,,,,,,,,,,,,,,,,,,,,,,,,,,,,,,,,,,,,,,,,,,,,,,,,,,,,,
,,"[""comma""]",0,[0.8585999999642695],104,0,104,0,1,5afeeff06369280001700225,24,Mężczyzna,2022-06-04_08h09.37.715,task,2021.1.4,Win32,74.97375918,628b806c463b948bc644b84f,629af7104b060a58ef4ee2d4,,,,,,,,,,,,,,,,,,,,,,,,,,,,,,,,,,,,,,,,,,,,,,,,,,,,,,,,,,,,,,,,,,,,,,,,,,,,,,,,,,,,,,,,,,,,,,,,,,,,,,,
,,"[""comma""]",0,[1.1374999999999886],105,0,105,0,1,5afeeff06369280001700225,24,Mężczyzna,2022-06-04_08h09.37.715,task,2021.1.4,Win32,74.97375918,628b806c463b948bc644b84f,629af7104b060a58ef4ee2d4,,,,,,,,,,,,,,,,,,,,,,,,,,,,,,,,,,,,,,,,,,,,,,,,,,,,,,,,,,,,,,,,,,,,,,,,,,,,,,,,,,,,,,,,,,,,,,,,,,,,,,,
,,"[""comma""]",0,[0.3661999999881118],106,0,106,0,1,5afeeff06369280001700225,24,Mężczyzna,2022-06-04_08h09.37.715,task,2021.1.4,Win32,74.97375918,628b806c463b948bc644b84f,629af7104b060a58ef4ee2d4,,,,,,,,,,,,,,,,,,,,,,,,,,,,,,,,,,,,,,,,,,,,,,,,,,,,,,,,,,,,,,,,,,,,,,,,,,,,,,,,,,,,,,,,,,,,,,,,,,,,,,,
,,"[""period"",""comma""]",0,"[0.15730000001190092,1.9074999999999704]",107,0,107,0,1,5afeeff06369280001700225,24,Mężczyzna,2022-06-04_08h09.37.715,task,2021.1.4,Win32,74.97375918,628b806c463b948bc644b84f,629af7104b060a58ef4ee2d4,,,,,,,,,,,,,,,,,,,,,,,,,,,,,,,,,,,,,,,,,,,,,,,,,,,,,,,,,,,,,,,,,,,,,,,,,,,,,,,,,,,,,,,,,,,,,,,,,,,,,,,
,,,0,,108,0,108,0,1,5afeeff06369280001700225,24,Mężczyzna,2022-06-04_08h09.37.715,task,2021.1.4,Win32,74.97375918,628b806c463b948bc644b84f,629af7104b060a58ef4ee2d4,,,,,,,,,,,,,,,,,,,,,,,,,,,,,,,,,,,,,,,,,,,,,,,,,,,,,,,,,,,,,,,,,,,,,,,,,,,,,,,,,,,,,,,,,,,,,,,,,,,,,,,
,,"[""comma""]",0,[0.12389999997617451],109,0,109,0,1,5afeeff06369280001700225,24,Mężczyzna,2022-06-04_08h09.37.715,task,2021.1.4,Win32,74.97375918,628b806c463b948bc644b84f,629af7104b060a58ef4ee2d4,,,,,,,,,,,,,,,,,,,,,,,,,,,,,,,,,,,,,,,,,,,,,,,,,,,,,,,,,,,,,,,,,,,,,,,,,,,,,,,,,,,,,,,,,,,,,,,,,,,,,,,
,,"[""period""]",0,[0.2196000000238314],110,0,110,0,1,5afeeff06369280001700225,24,Mężczyzna,2022-06-04_08h09.37.715,task,2021.1.4,Win32,74.97375918,628b806c463b948bc644b84f,629af7104b060a58ef4ee2d4,,,,,,,,,,,,,,,,,,,,,,,,,,,,,,,,,,,,,,,,,,,,,,,,,,,,,,,,,,,,,,,,,,,,,,,,,,,,,,,,,,,,,,,,,,,,,,,,,,,,,,,
,,"[""comma""]",0,[0.22730000001195094],111,0,111,0,1,5afeeff06369280001700225,24,Mężczyzna,2022-06-04_08h09.37.715,task,2021.1.4,Win32,74.97375918,628b806c463b948bc644b84f,629af7104b060a58ef4ee2d4,,,,,,,,,,,,,,,,,,,,,,,,,,,,,,,,,,,,,,,,,,,,,,,,,,,,,,,,,,,,,,,,,,,,,,,,,,,,,,,,,,,,,,,,,,,,,,,,,,,,,,,
,,"[""period""]",0,[0.2015999999642304],112,0,112,0,1,5afeeff06369280001700225,24,Mężczyzna,2022-06-04_08h09.37.715,task,2021.1.4,Win32,74.97375918,628b806c463b948bc644b84f,629af7104b060a58ef4ee2d4,,,,,,,,,,,,,,,,,,,,,,,,,,,,,,,,,,,,,,,,,,,,,,,,,,,,,,,,,,,,,,,,,,,,,,,,,,,,,,,,,,,,,,,,,,,,,,,,,,,,,,,
,,"[""period""]",0,[0.2969999999999686],113,0,113,0,1,5afeeff06369280001700225,24,Mężczyzna,2022-06-04_08h09.37.715,task,2021.1.4,Win32,74.97375918,628b806c463b948bc644b84f,629af7104b060a58ef4ee2d4,,,,,,,,,,,,,,,,,,,,,,,,,,,,,,,,,,,,,,,,,,,,,,,,,,,,,,,,,,,,,,,,,,,,,,,,,,,,,,,,,,,,,,,,,,,,,,,,,,,,,,,
,,"[""period""]",0,[0.36029999995230355],114,0,114,0,1,5afeeff06369280001700225,24,Mężczyzna,2022-06-04_08h09.37.715,task,2021.1.4,Win32,74.97375918,628b806c463b948bc644b84f,629af7104b060a58ef4ee2d4,,,,,,,,,,,,,,,,,,,,,,,,,,,,,,,,,,,,,,,,,,,,,,,,,,,,,,,,,,,,,,,,,,,,,,,,,,,,,,,,,,,,,,,,,,,,,,,,,,,,,,,
,,"[""comma""]",0,[0.21369999998807998],115,0,115,0,1,5afeeff06369280001700225,24,Mężczyzna,2022-06-04_08h09.37.715,task,2021.1.4,Win32,74.97375918,628b806c463b948bc644b84f,629af7104b060a58ef4ee2d4,,,,,,,,,,,,,,,,,,,,,,,,,,,,,,,,,,,,,,,,,,,,,,,,,,,,,,,,,,,,,,,,,,,,,,,,,,,,,,,,,,,,,,,,,,,,,,,,,,,,,,,
,,"[""period""]",0,[0.007199999988074524],116,0,116,0,1,5afeeff06369280001700225,24,Mężczyzna,2022-06-04_08h09.37.715,task,2021.1.4,Win32,74.97375918,628b806c463b948bc644b84f,629af7104b060a58ef4ee2d4,,,,,,,,,,,,,,,,,,,,,,,,,,,,,,,,,,,,,,,,,,,,,,,,,,,,,,,,,,,,,,,,,,,,,,,,,,,,,,,,,,,,,,,,,,,,,,,,,,,,,,,
,,"[""period""]",0,[0.20589999997616815],117,0,117,0,1,5afeeff06369280001700225,24,Mężczyzna,2022-06-04_08h09.37.715,task,2021.1.4,Win32,74.97375918,628b806c463b948bc644b84f,629af7104b060a58ef4ee2d4,,,,,,,,,,,,,,,,,,,,,,,,,,,,,,,,,,,,,,,,,,,,,,,,,,,,,,,,,,,,,,,,,,,,,,,,,,,,,,,,,,,,,,,,,,,,,,,,,,,,,,,
,,"[""comma""]",0,[0.2137999999523572],118,0,118,0,1,5afeeff06369280001700225,24,Mężczyzna,2022-06-04_08h09.37.715,task,2021.1.4,Win32,74.97375918,628b806c463b948bc644b84f,629af7104b060a58ef4ee2d4,,,,,,,,,,,,,,,,,,,,,,,,,,,,,,,,,,,,,,,,,,,,,,,,,,,,,,,,,,,,,,,,,,,,,,,,,,,,,,,,,,,,,,,,,,,,,,,,,,,,,,,
,,"[""period""]",0,[0.4523999999761372],119,0,119,0,1,5afeeff06369280001700225,24,Mężczyzna,2022-06-04_08h09.37.715,task,2021.1.4,Win32,74.97375918,628b806c463b948bc644b84f,629af7104b060a58ef4ee2d4,,,,,,,,,,,,,,,,,,,,,,,,,,,,,,,,,,,,,,,,,,,,,,,,,,,,,,,,,,,,,,,,,,,,,,,,,,,,,,,,,,,,,,,,,,,,,,,,,,,,,,,
,,,,,,,,,,5afeeff06369280001700225,24,Mężczyzna,2022-06-04_08h09.37.715,task,2021.1.4,Win32,74.97375918,628b806c463b948bc644b84f,629af7104b060a58ef4ee2d4,space,23.4423,space,21.6351,0,0,0,0,1,X V Q F H G B L J M P D K C T S W R N Z,,,,,,,,,,,,,,,,,,,,,,,,,,,,,,,,,,,,,,,,,,,,,,,,,,,,,,,,,,,,,,,,,,,,,,,,,,,,,,,,,,,,,,,,,,,,,
,,,,,,,,,,5afeeff06369280001700225,24,Mężczyzna,2022-06-04_08h09.37.715,task,2021.1.4,Win32,74.97375918,628b806c463b948bc644b84f,629af7104b060a58ef4ee2d4,,,,,1,0,1,0,1,X V Q F H G B L J M P D K C T S W R N Z,,,,,,,,,,,,,,,,,,,,,,,,,,,,,,,,,,,,,,,,,,,,,,,,,,,,,,,,,,,,,,,,,,,,,,,,,,,,,,,,,,,,,,,,,,,,,
,,,,,,,,,,5afeeff06369280001700225,24,Mężczyzna,2022-06-04_08h09.37.715,task,2021.1.4,Win32,74.97375918,628b806c463b948bc644b84f,629af7104b060a58ef4ee2d4,,,,,,,,,,,zc,"[""z"",""c""]","[2.3236000000238732,2.811600000023873,4.091699999988123]",1,ZC,0,0,0,0,1,,,,,,,,,,,,,,,,,,,,,,,,,,,,,,,,,,,,,,,,,,,,,,,,,,,,,,,,,,,,,,,,,,,,,,,,,,,,,,,,,,,
,,,,,,,,,,5afeeff06369280001700225,24,Mężczyzna,2022-06-04_08h09.37.715,task,2021.1.4,Win32,74.97375918,628b806c463b948bc644b84f,629af7104b060a58ef4ee2d4,,,,,0,0,0,0,1,X V Q F H G B L J M P D K C T S W R N Z,,,,,,,,,,,,,,,,,,,,,,,,,,,,,,,,,,,,,,,,,,,,,,,,,,,,,,,,,,,,,,,,,,,,,,,,,,,,,,,,,,,,,,,,,,,,,
,,,,,,,,,,5afeeff06369280001700225,24,Mężczyzna,2022-06-04_08h09.37.715,task,2021.1.4,Win32,74.97375918,628b806c463b948bc644b84f,629af7104b060a58ef4ee2d4,,,,,1,0,1,0,1,X V Q F H G B L J M P D K C T S W R N Z,,,,,,,,,,,,,,,,,,,,,,,,,,,,,,,,,,,,,,,,,,,,,,,,,,,,,,,,,,,,,,,,,,,,,,,,,,,,,,,,,,,,,,,,,,,,,
,,,,,,,,,,5afeeff06369280001700225,24,Mężczyzna,2022-06-04_08h09.37.715,task,2021.1.4,Win32,74.97375918,628b806c463b948bc644b84f,629af7104b060a58ef4ee2d4,,,,,,,,,,,tp,"[""t"",""p""]","[2.852300000011894,3.1641000000238364,3.48419999998805]",1,TP,1,0,1,0,1,,,,,,,,,,,,,,,,,,,,,,,,,,,,,,,,,,,,,,,,,,,,,,,,,,,,,,,,,,,,,,,,,,,,,,,,,,,,,,,,,,,
,,,,,,,,,,5afeeff06369280001700225,24,Mężczyzna,2022-06-04_08h09.37.715,task,2021.1.4,Win32,74.97375918,628b806c463b948bc644b84f,629af7104b060a58ef4ee2d4,,,,,0,0,0,0,1,X V Q F H G B L J M P D K C T S W R N Z,,,,,,,,,,,,,,,,,,,,,,,,,,,,,,,,,,,,,,,,,,,,,,,,,,,,,,,,,,,,,,,,,,,,,,,,,,,,,,,,,,,,,,,,,,,,,
,,,,,,,,,,5afeeff06369280001700225,24,Mężczyzna,2022-06-04_08h09.37.715,task,2021.1.4,Win32,74.97375918,628b806c463b948bc644b84f,629af7104b060a58ef4ee2d4,,,,,1,0,1,0,1,X V Q F H G B L J M P D K C T S W R N Z,,,,,,,,,,,,,,,,,,,,,,,,,,,,,,,,,,,,,,,,,,,,,,,,,,,,,,,,,,,,,,,,,,,,,,,,,,,,,,,,,,,,,,,,,,,,,
,,,,,,,,,,5afeeff06369280001700225,24,Mężczyzna,2022-06-04_08h09.37.715,task,2021.1.4,Win32,74.97375918,628b806c463b948bc644b84f,629af7104b060a58ef4ee2d4,,,,,2,0,2,0,1,X V Q F H G B L J M P D K C T S W R N Z,,,,,,,,,,,,,,,,,,,,,,,,,,,,,,,,,,,,,,,,,,,,,,,,,,,,,,,,,,,,,,,,,,,,,,,,,,,,,,,,,,,,,,,,,,,,,
,,,,,,,,,,5afeeff06369280001700225,24,Mężczyzna,2022-06-04_08h09.37.715,task,2021.1.4,Win32,74.97375918,628b806c463b948bc644b84f,629af7104b060a58ef4ee2d4,,,,,,,,,,,dcf,"[""d"",""c"",""f""]","[0.4866000000238273,0.5824999999999818,0.7506000000238373,0.8946999999880632]",1,DCF,2,0,2,0,1,,,,,,,,,,,,,,,,,,,,,,,,,,,,,,,,,,,,,,,,,,,,,,,,,,,,,,,,,,,,,,,,,,,,,,,,,,,,,,,,,,,
,,,,,,,,,,5afeeff06369280001700225,24,Mężczyzna,2022-06-04_08h09.37.715,task,2021.1.4,Win32,74.97375918,628b806c463b948bc644b84f,629af7104b060a58ef4ee2d4,,,,,0,0,0,0,1,X V Q F H G B L J M P D K C T S W R N Z,,,,,,,,,,,,,,,,,,,,,,,,,,,,,,,,,,,,,,,,,,,,,,,,,,,,,,,,,,,,,,,,,,,,,,,,,,,,,,,,,,,,,,,,,,,,,
,,,,,,,,,,5afeeff06369280001700225,24,Mężczyzna,2022-06-04_08h09.37.715,task,2021.1.4,Win32,74.97375918,628b806c463b948bc644b84f,629af7104b060a58ef4ee2d4,,,,,1,0,1,0,1,X V Q F H G B L J M P D K C T S W R N Z,,,,,,,,,,,,,,,,,,,,,,,,,,,,,,,,,,,,,,,,,,,,,,,,,,,,,,,,,,,,,,,,,,,,,,,,,,,,,,,,,,,,,,,,,,,,,
,,,,,,,,,,5afeeff06369280001700225,24,Mężczyzna,2022-06-04_08h09.37.715,task,2021.1.4,Win32,74.97375918,628b806c463b948bc644b84f,629af7104b060a58ef4ee2d4,,,,,2,0,2,0,1,X V Q F H G B L J M P D K C T S W R N Z,,,,,,,,,,,,,,,,,,,,,,,,,,,,,,,,,,,,,,,,,,,,,,,,,,,,,,,,,,,,,,,,,,,,,,,,,,,,,,,,,,,,,,,,,,,,,
,,,,,,,,,,5afeeff06369280001700225,24,Mężczyzna,2022-06-04_08h09.37.715,task,2021.1.4,Win32,74.97375918,628b806c463b948bc644b84f,629af7104b060a58ef4ee2d4,,,,,,,,,,,hcm,"[""h"",""c"",""m""]","[0.6688000000119132,0.7738000000119314,0.8771999999880791,1.2768999999761945]",1,HCM,3,0,3,0,1,,,,,,,,,,,,,,,,,,,,,,,,,,,,,,,,,,,,,,,,,,,,,,,,,,,,,,,,,,,,,,,,,,,,,,,,,,,,,,,,,,,
,,,,,,,,,,5afeeff06369280001700225,24,Mężczyzna,2022-06-04_08h09.37.715,task,2021.1.4,Win32,74.97375918,628b806c463b948bc644b84f,629af7104b060a58ef4ee2d4,,,,,0,0,0,0,1,X V Q F H G B L J M P D K C T S W R N Z,,,,,,,,,,,,,,,,,,,,,,,,,,,,,,,,,,,,,,,,,,,,,,,,,,,,,,,,,,,,,,,,,,,,,,,,,,,,,,,,,,,,,,,,,,,,,
,,,,,,,,,,5afeeff06369280001700225,24,Mężczyzna,2022-06-04_08h09.37.715,task,2021.1.4,Win32,74.97375918,628b806c463b948bc644b84f,629af7104b060a58ef4ee2d4,,,,,1,0,1,0,1,X V Q F H G B L J M P D K C T S W R N Z,,,,,,,,,,,,,,,,,,,,,,,,,,,,,,,,,,,,,,,,,,,,,,,,,,,,,,,,,,,,,,,,,,,,,,,,,,,,,,,,,,,,,,,,,,,,,
,,,,,,,,,,5afeeff06369280001700225,24,Mężczyzna,2022-06-04_08h09.37.715,task,2021.1.4,Win32,74.97375918,628b806c463b948bc644b84f,629af7104b060a58ef4ee2d4,,,,,2,0,2,0,1,X V Q F H G B L J M P D K C T S W R N Z,,,,,,,,,,,,,,,,,,,,,,,,,,,,,,,,,,,,,,,,,,,,,,,,,,,,,,,,,,,,,,,,,,,,,,,,,,,,,,,,,,,,,,,,,,,,,
,,,,,,,,,,5afeeff06369280001700225,24,Mężczyzna,2022-06-04_08h09.37.715,task,2021.1.4,Win32,74.97375918,628b806c463b948bc644b84f,629af7104b060a58ef4ee2d4,,,,,3,0,3,0,1,X V Q F H G B L J M P D K C T S W R N Z,,,,,,,,,,,,,,,,,,,,,,,,,,,,,,,,,,,,,,,,,,,,,,,,,,,,,,,,,,,,,,,,,,,,,,,,,,,,,,,,,,,,,,,,,,,,,
,,,,,,,,,,5afeeff06369280001700225,24,Mężczyzna,2022-06-04_08h09.37.715,task,2021.1.4,Win32,74.97375918,628b806c463b948bc644b84f,629af7104b060a58ef4ee2d4,,,,,,,,,,,htnv,"[""h"",""t"",""n"",""v""]","[0.7204999999999586,0.8006000000237918,1.0316999999880636,1.3916000000238,1.7438999999761222]",1,HTNV,4,0,4,0,1,,,,,,,,,,,,,,,,,,,,,,,,,,,,,,,,,,,,,,,,,,,,,,,,,,,,,,,,,,,,,,,,,,,,,,,,,,,,,,,,,,,
,,,,,,,,,,5afeeff06369280001700225,24,Mężczyzna,2022-06-04_08h09.37.715,task,2021.1.4,Win32,74.97375918,628b806c463b948bc644b84f,629af7104b060a58ef4ee2d4,,,,,0,0,0,0,1,X V Q F H G B L J M P D K C T S W R N Z,,,,,,,,,,,,,,,,,,,,,,,,,,,,,,,,,,,,,,,,,,,,,,,,,,,,,,,,,,,,,,,,,,,,,,,,,,,,,,,,,,,,,,,,,,,,,
,,,,,,,,,,5afeeff06369280001700225,24,Mężczyzna,2022-06-04_08h09.37.715,task,2021.1.4,Win32,74.97375918,628b806c463b948bc644b84f,629af7104b060a58ef4ee2d4,,,,,1,0,1,0,1,X V Q F H G B L J M P D K C T S W R N Z,,,,,,,,,,,,,,,,,,,,,,,,,,,,,,,,,,,,,,,,,,,,,,,,,,,,,,,,,,,,,,,,,,,,,,,,,,,,,,,,,,,,,,,,,,,,,
,,,,,,,,,,5afeeff06369280001700225,24,Mężczyzna,2022-06-04_08h09.37.715,task,2021.1.4,Win32,74.97375918,628b806c463b948bc644b84f,629af7104b060a58ef4ee2d4,,,,,2,0,2,0,1,X V Q F H G B L J M P D K C T S W R N Z,,,,,,,,,,,,,,,,,,,,,,,,,,,,,,,,,,,,,,,,,,,,,,,,,,,,,,,,,,,,,,,,,,,,,,,,,,,,,,,,,,,,,,,,,,,,,
,,,,,,,,,,5afeeff06369280001700225,24,Mężczyzna,2022-06-04_08h09.37.715,task,2021.1.4,Win32,74.97375918,628b806c463b948bc644b84f,629af7104b060a58ef4ee2d4,,,,,3,0,3,0,1,X V Q F H G B L J M P D K C T S W R N Z,,,,,,,,,,,,,,,,,,,,,,,,,,,,,,,,,,,,,,,,,,,,,,,,,,,,,,,,,,,,,,,,,,,,,,,,,,,,,,,,,,,,,,,,,,,,,
,,,,,,,,,,5afeeff06369280001700225,24,Mężczyzna,2022-06-04_08h09.37.715,task,2021.1.4,Win32,74.97375918,628b806c463b948bc644b84f,629af7104b060a58ef4ee2d4,,,,,,,,,,,lbpr,"[""l"",""b"",""p"",""r""]","[0.48799999999999955,0.6319000000357846,0.80030000001193,0.9037000000477065,8.927999999999997]",1,LBPR,5,0,5,0,1,,,,,,,,,,,,,,,,,,,,,,,,,,,,,,,,,,,,,,,,,,,,,,,,,,,,,,,,,,,,,,,,,,,,,,,,,,,,,,,,,,,
,,,,,,,,,,5afeeff06369280001700225,24,Mężczyzna,2022-06-04_08h09.37.715,task,2021.1.4,Win32,74.97375918,628b806c463b948bc644b84f,629af7104b060a58ef4ee2d4,,,,,0,0,0,0,1,X V Q F H G B L J M P D K C T S W R N Z,,,,,,,,,,,,,,,,,,,,,,,,,,,,,,,,,,,,,,,,,,,,,,,,,,,,,,,,,,,,,,,,,,,,,,,,,,,,,,,,,,,,,,,,,,,,,
,,,,,,,,,,5afeeff06369280001700225,24,Mężczyzna,2022-06-04_08h09.37.715,task,2021.1.4,Win32,74.97375918,628b806c463b948bc644b84f,629af7104b060a58ef4ee2d4,,,,,1,0,1,0,1,X V Q F H G B L J M P D K C T S W R N Z,,,,,,,,,,,,,,,,,,,,,,,,,,,,,,,,,,,,,,,,,,,,,,,,,,,,,,,,,,,,,,,,,,,,,,,,,,,,,,,,,,,,,,,,,,,,,
,,,,,,,,,,5afeeff06369280001700225,24,Mężczyzna,2022-06-04_08h09.37.715,task,2021.1.4,Win32,74.97375918,628b806c463b948bc644b84f,629af7104b060a58ef4ee2d4,,,,,2,0,2,0,1,X V Q F H G B L J M P D K C T S W R N Z,,,,,,,,,,,,,,,,,,,,,,,,,,,,,,,,,,,,,,,,,,,,,,,,,,,,,,,,,,,,,,,,,,,,,,,,,,,,,,,,,,,,,,,,,,,,,
,,,,,,,,,,5afeeff06369280001700225,24,Mężczyzna,2022-06-04_08h09.37.715,task,2021.1.4,Win32,74.97375918,628b806c463b948bc644b84f,629af7104b060a58ef4ee2d4,,,,,3,0,3,0,1,X V Q F H G B L J M P D K C T S W R N Z,,,,,,,,,,,,,,,,,,,,,,,,,,,,,,,,,,,,,,,,,,,,,,,,,,,,,,,,,,,,,,,,,,,,,,,,,,,,,,,,,,,,,,,,,,,,,
,,,,,,,,,,5afeeff06369280001700225,24,Mężczyzna,2022-06-04_08h09.37.715,task,2021.1.4,Win32,74.97375918,628b806c463b948bc644b84f,629af7104b060a58ef4ee2d4,,,,,4,0,4,0,1,X V Q F H G B L J M P D K C T S W R N Z,,,,,,,,,,,,,,,,,,,,,,,,,,,,,,,,,,,,,,,,,,,,,,,,,,,,,,,,,,,,,,,,,,,,,,,,,,,,,,,,,,,,,,,,,,,,,
,,,,,,,,,,5afeeff06369280001700225,24,Mężczyzna,2022-06-04_08h09.37.715,task,2021.1.4,Win32,74.97375918,628b806c463b948bc644b84f,629af7104b060a58ef4ee2d4,,,,,,,,,,,mpvvj,"[""m"",""p"",""v"",""v"",""j""]","[0.5738999999761631,0.7165999999642167,0.9965000000000259,1.1725000000000136,1.3206999999881077,1.4445999999642254]",1,MPVVJ,6,0,6,0,1,,,,,,,,,,,,,,,,,,,,,,,,,,,,,,,,,,,,,,,,,,,,,,,,,,,,,,,,,,,,,,,,,,,,,,,,,,,,,,,,,,,
,,,,,,,,,,5afeeff06369280001700225,24,Mężczyzna,2022-06-04_08h09.37.715,task,2021.1.4,Win32,74.97375918,628b806c463b948bc644b84f,629af7104b060a58ef4ee2d4,,,,,0,0,0,0,1,X V Q F H G B L J M P D K C T S W R N Z,,,,,,,,,,,,,,,,,,,,,,,,,,,,,,,,,,,,,,,,,,,,,,,,,,,,,,,,,,,,,,,,,,,,,,,,,,,,,,,,,,,,,,,,,,,,,
,,,,,,,,,,5afeeff06369280001700225,24,Mężczyzna,2022-06-04_08h09.37.715,task,2021.1.4,Win32,74.97375918,628b806c463b948bc644b84f,629af7104b060a58ef4ee2d4,,,,,1,0,1,0,1,X V Q F H G B L J M P D K C T S W R N Z,,,,,,,,,,,,,,,,,,,,,,,,,,,,,,,,,,,,,,,,,,,,,,,,,,,,,,,,,,,,,,,,,,,,,,,,,,,,,,,,,,,,,,,,,,,,,
,,,,,,,,,,5afeeff06369280001700225,24,Mężczyzna,2022-06-04_08h09.37.715,task,2021.1.4,Win32,74.97375918,628b806c463b948bc644b84f,629af7104b060a58ef4ee2d4,,,,,2,0,2,0,1,X V Q F H G B L J M P D K C T S W R N Z,,,,,,,,,,,,,,,,,,,,,,,,,,,,,,,,,,,,,,,,,,,,,,,,,,,,,,,,,,,,,,,,,,,,,,,,,,,,,,,,,,,,,,,,,,,,,
,,,,,,,,,,5afeeff06369280001700225,24,Mężczyzna,2022-06-04_08h09.37.715,task,2021.1.4,Win32,74.97375918,628b806c463b948bc644b84f,629af7104b060a58ef4ee2d4,,,,,3,0,3,0,1,X V Q F H G B L J M P D K C T S W R N Z,,,,,,,,,,,,,,,,,,,,,,,,,,,,,,,,,,,,,,,,,,,,,,,,,,,,,,,,,,,,,,,,,,,,,,,,,,,,,,,,,,,,,,,,,,,,,
,,,,,,,,,,5afeeff06369280001700225,24,Mężczyzna,2022-06-04_08h09.37.715,task,2021.1.4,Win32,74.97375918,628b806c463b948bc644b84f,629af7104b060a58ef4ee2d4,,,,,4,0,4,0,1,X V Q F H G B L J M P D K C T S W R N Z,,,,,,,,,,,,,,,,,,,,,,,,,,,,,,,,,,,,,,,,,,,,,,,,,,,,,,,,,,,,,,,,,,,,,,,,,,,,,,,,,,,,,,,,,,,,,
,,,,,,,,,,5afeeff06369280001700225,24,Mężczyzna,2022-06-04_08h09.37.715,task,2021.1.4,Win32,74.97375918,628b806c463b948bc644b84f,629af7104b060a58ef4ee2d4,,,,,,,,,,,qdgfb,"[""q"",""d"",""g"",""f"",""b""]","[0.7243000000119082,0.8203000000119118,0.9881000000238487,1.1882000000476864,1.5482000000477,1.7722000000476896]",1,QDGFB,7,0,7,0,1,,,,,,,,,,,,,,,,,,,,,,,,,,,,,,,,,,,,,,,,,,,,,,,,,,,,,,,,,,,,,,,,,,,,,,,,,,,,,,,,,,,
,,,,,,,,,,5afeeff06369280001700225,24,Mężczyzna,2022-06-04_08h09.37.715,task,2021.1.4,Win32,74.97375918,628b806c463b948bc644b84f,629af7104b060a58ef4ee2d4,,,,,0,0,0,0,1,X V Q F H G B L J M P D K C T S W R N Z,,,,,,,,,,,,,,,,,,,,,,,,,,,,,,,,,,,,,,,,,,,,,,,,,,,,,,,,,,,,,,,,,,,,,,,,,,,,,,,,,,,,,,,,,,,,,
,,,,,,,,,,5afeeff06369280001700225,24,Mężczyzna,2022-06-04_08h09.37.715,task,2021.1.4,Win32,74.97375918,628b806c463b948bc644b84f,629af7104b060a58ef4ee2d4,,,,,1,0,1,0,1,X V Q F H G B L J M P D K C T S W R N Z,,,,,,,,,,,,,,,,,,,,,,,,,,,,,,,,,,,,,,,,,,,,,,,,,,,,,,,,,,,,,,,,,,,,,,,,,,,,,,,,,,,,,,,,,,,,,
,,,,,,,,,,5afeeff06369280001700225,24,Mężczyzna,2022-06-04_08h09.37.715,task,2021.1.4,Win32,74.97375918,628b806c463b948bc644b84f,629af7104b060a58ef4ee2d4,,,,,2,0,2,0,1,X V Q F H G B L J M P D K C T S W R N Z,,,,,,,,,,,,,,,,,,,,,,,,,,,,,,,,,,,,,,,,,,,,,,,,,,,,,,,,,,,,,,,,,,,,,,,,,,,,,,,,,,,,,,,,,,,,,
,,,,,,,,,,5afeeff06369280001700225,24,Mężczyzna,2022-06-04_08h09.37.715,task,2021.1.4,Win32,74.97375918,628b806c463b948bc644b84f,629af7104b060a58ef4ee2d4,,,,,3,0,3,0,1,X V Q F H G B L J M P D K C T S W R N Z,,,,,,,,,,,,,,,,,,,,,,,,,,,,,,,,,,,,,,,,,,,,,,,,,,,,,,,,,,,,,,,,,,,,,,,,,,,,,,,,,,,,,,,,,,,,,
,,,,,,,,,,5afeeff06369280001700225,24,Mężczyzna,2022-06-04_08h09.37.715,task,2021.1.4,Win32,74.97375918,628b806c463b948bc644b84f,629af7104b060a58ef4ee2d4,,,,,4,0,4,0,1,X V Q F H G B L J M P D K C T S W R N Z,,,,,,,,,,,,,,,,,,,,,,,,,,,,,,,,,,,,,,,,,,,,,,,,,,,,,,,,,,,,,,,,,,,,,,,,,,,,,,,,,,,,,,,,,,,,,
,,,,,,,,,,5afeeff06369280001700225,24,Mężczyzna,2022-06-04_08h09.37.715,task,2021.1.4,Win32,74.97375918,628b806c463b948bc644b84f,629af7104b060a58ef4ee2d4,,,,,5,0,5,0,1,X V Q F H G B L J M P D K C T S W R N Z,,,,,,,,,,,,,,,,,,,,,,,,,,,,,,,,,,,,,,,,,,,,,,,,,,,,,,,,,,,,,,,,,,,,,,,,,,,,,,,,,,,,,,,,,,,,,
,,,,,,,,,,5afeeff06369280001700225,24,Mężczyzna,2022-06-04_08h09.37.715,task,2021.1.4,Win32,74.97375918,628b806c463b948bc644b84f,629af7104b060a58ef4ee2d4,,,,,,,,,,,xbbttx,"[""x"",""b"",""b"",""t"",""t"",""x""]","[0.6781999999880668,0.9739999999999895,1.197999999999979,1.4408000000119046,1.6299999999999955,1.8779000000357655,2.054199999988043]",1,XBBTTX,8,0,8,0,1,,,,,,,,,,,,,,,,,,,,,,,,,,,,,,,,,,,,,,,,,,,,,,,,,,,,,,,,,,,,,,,,,,,,,,,,,,,,,,,,,,,
,,,,,,,,,,5afeeff06369280001700225,24,Mężczyzna,2022-06-04_08h09.37.715,task,2021.1.4,Win32,74.97375918,628b806c463b948bc644b84f,629af7104b060a58ef4ee2d4,,,,,0,0,0,0,1,X V Q F H G B L J M P D K C T S W R N Z,,,,,,,,,,,,,,,,,,,,,,,,,,,,,,,,,,,,,,,,,,,,,,,,,,,,,,,,,,,,,,,,,,,,,,,,,,,,,,,,,,,,,,,,,,,,,
,,,,,,,,,,5afeeff06369280001700225,24,Mężczyzna,2022-06-04_08h09.37.715,task,2021.1.4,Win32,74.97375918,628b806c463b948bc644b84f,629af7104b060a58ef4ee2d4,,,,,1,0,1,0,1,X V Q F H G B L J M P D K C T S W R N Z,,,,,,,,,,,,,,,,,,,,,,,,,,,,,,,,,,,,,,,,,,,,,,,,,,,,,,,,,,,,,,,,,,,,,,,,,,,,,,,,,,,,,,,,,,,,,
,,,,,,,,,,5afeeff06369280001700225,24,Mężczyzna,2022-06-04_08h09.37.715,task,2021.1.4,Win32,74.97375918,628b806c463b948bc644b84f,629af7104b060a58ef4ee2d4,,,,,2,0,2,0,1,X V Q F H G B L J M P D K C T S W R N Z,,,,,,,,,,,,,,,,,,,,,,,,,,,,,,,,,,,,,,,,,,,,,,,,,,,,,,,,,,,,,,,,,,,,,,,,,,,,,,,,,,,,,,,,,,,,,
,,,,,,,,,,5afeeff06369280001700225,24,Mężczyzna,2022-06-04_08h09.37.715,task,2021.1.4,Win32,74.97375918,628b806c463b948bc644b84f,629af7104b060a58ef4ee2d4,,,,,3,0,3,0,1,X V Q F H G B L J M P D K C T S W R N Z,,,,,,,,,,,,,,,,,,,,,,,,,,,,,,,,,,,,,,,,,,,,,,,,,,,,,,,,,,,,,,,,,,,,,,,,,,,,,,,,,,,,,,,,,,,,,
,,,,,,,,,,5afeeff06369280001700225,24,Mężczyzna,2022-06-04_08h09.37.715,task,2021.1.4,Win32,74.97375918,628b806c463b948bc644b84f,629af7104b060a58ef4ee2d4,,,,,4,0,4,0,1,X V Q F H G B L J M P D K C T S W R N Z,,,,,,,,,,,,,,,,,,,,,,,,,,,,,,,,,,,,,,,,,,,,,,,,,,,,,,,,,,,,,,,,,,,,,,,,,,,,,,,,,,,,,,,,,,,,,
,,,,,,,,,,5afeeff06369280001700225,24,Mężczyzna,2022-06-04_08h09.37.715,task,2021.1.4,Win32,74.97375918,628b806c463b948bc644b84f,629af7104b060a58ef4ee2d4,,,,,5,0,5,0,1,X V Q F H G B L J M P D K C T S W R N Z,,,,,,,,,,,,,,,,,,,,,,,,,,,,,,,,,,,,,,,,,,,,,,,,,,,,,,,,,,,,,,,,,,,,,,,,,,,,,,,,,,,,,,,,,,,,,
,,,,,,,,,,5afeeff06369280001700225,24,Mężczyzna,2022-06-04_08h09.37.715,task,2021.1.4,Win32,74.97375918,628b806c463b948bc644b84f,629af7104b060a58ef4ee2d4,,,,,,,,,,,pznrws,"[""p"",""z"",""n"",""r"",""w"",""s""]","[2.226400000035767,2.346200000047702,2.474200000047688,2.6586000000238528,3.2148000000119055,3.378200000047684,3.5622000000476532]",1,PZNRWS,9,0,9,0,1,,,,,,,,,,,,,,,,,,,,,,,,,,,,,,,,,,,,,,,,,,,,,,,,,,,,,,,,,,,,,,,,,,,,,,,,,,,,,,,,,,,
,,,,,,,,,,5afeeff06369280001700225,24,Mężczyzna,2022-06-04_08h09.37.715,task,2021.1.4,Win32,74.97375918,628b806c463b948bc644b84f,629af7104b060a58ef4ee2d4,,,,,0,0,0,0,1,X V Q F H G B L J M P D K C T S W R N Z,,,,,,,,,,,,,,,,,,,,,,,,,,,,,,,,,,,,,,,,,,,,,,,,,,,,,,,,,,,,,,,,,,,,,,,,,,,,,,,,,,,,,,,,,,,,,
,,,,,,,,,,5afeeff06369280001700225,24,Mężczyzna,2022-06-04_08h09.37.715,task,2021.1.4,Win32,74.97375918,628b806c463b948bc644b84f,629af7104b060a58ef4ee2d4,,,,,1,0,1,0,1,X V Q F H G B L J M P D K C T S W R N Z,,,,,,,,,,,,,,,,,,,,,,,,,,,,,,,,,,,,,,,,,,,,,,,,,,,,,,,,,,,,,,,,,,,,,,,,,,,,,,,,,,,,,,,,,,,,,
,,,,,,,,,,5afeeff06369280001700225,24,Mężczyzna,2022-06-04_08h09.37.715,task,2021.1.4,Win32,74.97375918,628b806c463b948bc644b84f,629af7104b060a58ef4ee2d4,,,,,2,0,2,0,1,X V Q F H G B L J M P D K C T S W R N Z,,,,,,,,,,,,,,,,,,,,,,,,,,,,,,,,,,,,,,,,,,,,,,,,,,,,,,,,,,,,,,,,,,,,,,,,,,,,,,,,,,,,,,,,,,,,,
,,,,,,,,,,5afeeff06369280001700225,24,Mężczyzna,2022-06-04_08h09.37.715,task,2021.1.4,Win32,74.97375918,628b806c463b948bc644b84f,629af7104b060a58ef4ee2d4,,,,,3,0,3,0,1,X V Q F H G B L J M P D K C T S W R N Z,,,,,,,,,,,,,,,,,,,,,,,,,,,,,,,,,,,,,,,,,,,,,,,,,,,,,,,,,,,,,,,,,,,,,,,,,,,,,,,,,,,,,,,,,,,,,
,,,,,,,,,,5afeeff06369280001700225,24,Mężczyzna,2022-06-04_08h09.37.715,task,2021.1.4,Win32,74.97375918,628b806c463b948bc644b84f,629af7104b060a58ef4ee2d4,,,,,4,0,4,0,1,X V Q F H G B L J M P D K C T S W R N Z,,,,,,,,,,,,,,,,,,,,,,,,,,,,,,,,,,,,,,,,,,,,,,,,,,,,,,,,,,,,,,,,,,,,,,,,,,,,,,,,,,,,,,,,,,,,,
,,,,,,,,,,5afeeff06369280001700225,24,Mężczyzna,2022-06-04_08h09.37.715,task,2021.1.4,Win32,74.97375918,628b806c463b948bc644b84f,629af7104b060a58ef4ee2d4,,,,,5,0,5,0,1,X V Q F H G B L J M P D K C T S W R N Z,,,,,,,,,,,,,,,,,,,,,,,,,,,,,,,,,,,,,,,,,,,,,,,,,,,,,,,,,,,,,,,,,,,,,,,,,,,,,,,,,,,,,,,,,,,,,
,,,,,,,,,,5afeeff06369280001700225,24,Mężczyzna,2022-06-04_08h09.37.715,task,2021.1.4,Win32,74.97375918,628b806c463b948bc644b84f,629af7104b060a58ef4ee2d4,,,,,6,0,6,0,1,X V Q F H G B L J M P D K C T S W R N Z,,,,,,,,,,,,,,,,,,,,,,,,,,,,,,,,,,,,,,,,,,,,,,,,,,,,,,,,,,,,,,,,,,,,,,,,,,,,,,,,,,,,,,,,,,,,,
,,,,,,,,,,5afeeff06369280001700225,24,Mężczyzna,2022-06-04_08h09.37.715,task,2021.1.4,Win32,74.97375918,628b806c463b948bc644b84f,629af7104b060a58ef4ee2d4,,,,,,,,,,,ghbzrpw,"[""g"",""h"",""b"",""z"",""r"",""p"",""w""]","[0.7416999999880431,0.9016999999880682,1.0544999999999618,1.2615000000000123,1.5342999999522817,1.7094999999999914,1.9574999999999818,2.2409999999999854]",0,GHBRZPW,10,0,10,0,1,,,,,,,,,,,,,,,,,,,,,,,,,,,,,,,,,,,,,,,,,,,,,,,,,,,,,,,,,,,,,,,,,,,,,,,,,,,,,,,,,,,
,,,,,,,,,,5afeeff06369280001700225,24,Mężczyzna,2022-06-04_08h09.37.715,task,2021.1.4,Win32,74.97375918,628b806c463b948bc644b84f,629af7104b060a58ef4ee2d4,,,,,0,0,0,0,1,X V Q F H G B L J M P D K C T S W R N Z,,,,,,,,,,,,,,,,,,,,,,,,,,,,,,,,,,,,,,,,,,,,,,,,,,,,,,,,,,,,,,,,,,,,,,,,,,,,,,,,,,,,,,,,,,,,,
,,,,,,,,,,5afeeff06369280001700225,24,Mężczyzna,2022-06-04_08h09.37.715,task,2021.1.4,Win32,74.97375918,628b806c463b948bc644b84f,629af7104b060a58ef4ee2d4,,,,,1,0,1,0,1,X V Q F H G B L J M P D K C T S W R N Z,,,,,,,,,,,,,,,,,,,,,,,,,,,,,,,,,,,,,,,,,,,,,,,,,,,,,,,,,,,,,,,,,,,,,,,,,,,,,,,,,,,,,,,,,,,,,
,,,,,,,,,,5afeeff06369280001700225,24,Mężczyzna,2022-06-04_08h09.37.715,task,2021.1.4,Win32,74.97375918,628b806c463b948bc644b84f,629af7104b060a58ef4ee2d4,,,,,2,0,2,0,1,X V Q F H G B L J M P D K C T S W R N Z,,,,,,,,,,,,,,,,,,,,,,,,,,,,,,,,,,,,,,,,,,,,,,,,,,,,,,,,,,,,,,,,,,,,,,,,,,,,,,,,,,,,,,,,,,,,,
,,,,,,,,,,5afeeff06369280001700225,24,Mężczyzna,2022-06-04_08h09.37.715,task,2021.1.4,Win32,74.97375918,628b806c463b948bc644b84f,629af7104b060a58ef4ee2d4,,,,,3,0,3,0,1,X V Q F H G B L J M P D K C T S W R N Z,,,,,,,,,,,,,,,,,,,,,,,,,,,,,,,,,,,,,,,,,,,,,,,,,,,,,,,,,,,,,,,,,,,,,,,,,,,,,,,,,,,,,,,,,,,,,
,,,,,,,,,,5afeeff06369280001700225,24,Mężczyzna,2022-06-04_08h09.37.715,task,2021.1.4,Win32,74.97375918,628b806c463b948bc644b84f,629af7104b060a58ef4ee2d4,,,,,4,0,4,0,1,X V Q F H G B L J M P D K C T S W R N Z,,,,,,,,,,,,,,,,,,,,,,,,,,,,,,,,,,,,,,,,,,,,,,,,,,,,,,,,,,,,,,,,,,,,,,,,,,,,,,,,,,,,,,,,,,,,,
,,,,,,,,,,5afeeff06369280001700225,24,Mężczyzna,2022-06-04_08h09.37.715,task,2021.1.4,Win32,74.97375918,628b806c463b948bc644b84f,629af7104b060a58ef4ee2d4,,,,,5,0,5,0,1,X V Q F H G B L J M P D K C T S W R N Z,,,,,,,,,,,,,,,,,,,,,,,,,,,,,,,,,,,,,,,,,,,,,,,,,,,,,,,,,,,,,,,,,,,,,,,,,,,,,,,,,,,,,,,,,,,,,
,,,,,,,,,,5afeeff06369280001700225,24,Mężczyzna,2022-06-04_08h09.37.715,task,2021.1.4,Win32,74.97375918,628b806c463b948bc644b84f,629af7104b060a58ef4ee2d4,,,,,6,0,6,0,1,X V Q F H G B L J M P D K C T S W R N Z,,,,,,,,,,,,,,,,,,,,,,,,,,,,,,,,,,,,,,,,,,,,,,,,,,,,,,,,,,,,,,,,,,,,,,,,,,,,,,,,,,,,,,,,,,,,,
,,,,,,,,,,5afeeff06369280001700225,24,Mężczyzna,2022-06-04_08h09.37.715,task,2021.1.4,Win32,74.97375918,628b806c463b948bc644b84f,629af7104b060a58ef4ee2d4,,,,,,,,,,,gvgpsgl,"[""g"",""v"",""g"",""p"",""s"",""g"",""l""]","[1.1988999999761631,1.3745000000000118,1.59050000000002,1.8463999999761427,2.0305000000000177,2.278399999976159,2.446599999964235,2.7825000000000273]",0,PVGPGSL,11,0,11,0,1,,,,,,,,,,,,,,,,,,,,,,,,,,,,,,,,,,,,,,,,,,,,,,,,,,,,,,,,,,,,,,,,,,,,,,,,,,,,,,,,,,,
,,,,,,,,,,5afeeff06369280001700225,24,Mężczyzna,2022-06-04_08h09.37.715,task,2021.1.4,Win32,74.97375918,628b806c463b948bc644b84f,629af7104b060a58ef4ee2d4,,,,,0,0,0,0,1,X V Q F H G B L J M P D K C T S W R N Z,,,,,,,,,,,,,,,,,,,,,,,,,,,,,,,,,,,,,,,,,,,,,,,,,,,,,,,,,,,,,,,,,,,,,,,,,,,,,,,,,,,,,,,,,,,,,
,,,,,,,,,,5afeeff06369280001700225,24,Mężczyzna,2022-06-04_08h09.37.715,task,2021.1.4,Win32,74.97375918,628b806c463b948bc644b84f,629af7104b060a58ef4ee2d4,,,,,1,0,1,0,1,X V Q F H G B L J M P D K C T S W R N Z,,,,,,,,,,,,,,,,,,,,,,,,,,,,,,,,,,,,,,,,,,,,,,,,,,,,,,,,,,,,,,,,,,,,,,,,,,,,,,,,,,,,,,,,,,,,,
,,,,,,,,,,5afeeff06369280001700225,24,Mężczyzna,2022-06-04_08h09.37.715,task,2021.1.4,Win32,74.97375918,628b806c463b948bc644b84f,629af7104b060a58ef4ee2d4,,,,,2,0,2,0,1,X V Q F H G B L J M P D K C T S W R N Z,,,,,,,,,,,,,,,,,,,,,,,,,,,,,,,,,,,,,,,,,,,,,,,,,,,,,,,,,,,,,,,,,,,,,,,,,,,,,,,,,,,,,,,,,,,,,
,,,,,,,,,,5afeeff06369280001700225,24,Mężczyzna,2022-06-04_08h09.37.715,task,2021.1.4,Win32,74.97375918,628b806c463b948bc644b84f,629af7104b060a58ef4ee2d4,,,,,3,0,3,0,1,X V Q F H G B L J M P D K C T S W R N Z,,,,,,,,,,,,,,,,,,,,,,,,,,,,,,,,,,,,,,,,,,,,,,,,,,,,,,,,,,,,,,,,,,,,,,,,,,,,,,,,,,,,,,,,,,,,,
,,,,,,,,,,5afeeff06369280001700225,24,Mężczyzna,2022-06-04_08h09.37.715,task,2021.1.4,Win32,74.97375918,628b806c463b948bc644b84f,629af7104b060a58ef4ee2d4,,,,,4,0,4,0,1,X V Q F H G B L J M P D K C T S W R N Z,,,,,,,,,,,,,,,,,,,,,,,,,,,,,,,,,,,,,,,,,,,,,,,,,,,,,,,,,,,,,,,,,,,,,,,,,,,,,,,,,,,,,,,,,,,,,
,,,,,,,,,,5afeeff06369280001700225,24,Mężczyzna,2022-06-04_08h09.37.715,task,2021.1.4,Win32,74.97375918,628b806c463b948bc644b84f,629af7104b060a58ef4ee2d4,,,,,5,0,5,0,1,X V Q F H G B L J M P D K C T S W R N Z,,,,,,,,,,,,,,,,,,,,,,,,,,,,,,,,,,,,,,,,,,,,,,,,,,,,,,,,,,,,,,,,,,,,,,,,,,,,,,,,,,,,,,,,,,,,,
,,,,,,,,,,5afeeff06369280001700225,24,Mężczyzna,2022-06-04_08h09.37.715,task,2021.1.4,Win32,74.97375918,628b806c463b948bc644b84f,629af7104b060a58ef4ee2d4,,,,,6,0,6,0,1,X V Q F H G B L J M P D K C T S W R N Z,,,,,,,,,,,,,,,,,,,,,,,,,,,,,,,,,,,,,,,,,,,,,,,,,,,,,,,,,,,,,,,,,,,,,,,,,,,,,,,,,,,,,,,,,,,,,
,,,,,,,,,,5afeeff06369280001700225,24,Mężczyzna,2022-06-04_08h09.37.715,task,2021.1.4,Win32,74.97375918,628b806c463b948bc644b84f,629af7104b060a58ef4ee2d4,,,,,,,,,,,qtlsfvq,"[""q"",""t"",""l"",""s"",""f"",""v"",""q""]","[1.0369000000357573,1.4767000000476855,1.7886000000238482,2.092700000047728,2.468600000023855,2.7246000000238837,2.8770000000000095,3.036700000047688]",1,QTLSFVQ,12,0,12,0,1,,,,,,,,,,,,,,,,,,,,,,,,,,,,,,,,,,,,,,,,,,,,,,,,,,,,,,,,,,,,,,,,,,,,,,,,,,,,,,,,,,,
,,,,,,,,,,5afeeff06369280001700225,24,Mężczyzna,2022-06-04_08h09.37.715,task,2021.1.4,Win32,74.97375918,628b806c463b948bc644b84f,629af7104b060a58ef4ee2d4,,,,,0,0,0,0,1,X V Q F H G B L J M P D K C T S W R N Z,,,,,,,,,,,,,,,,,,,,,,,,,,,,,,,,,,,,,,,,,,,,,,,,,,,,,,,,,,,,,,,,,,,,,,,,,,,,,,,,,,,,,,,,,,,,,
,,,,,,,,,,5afeeff06369280001700225,24,Mężczyzna,2022-06-04_08h09.37.715,task,2021.1.4,Win32,74.97375918,628b806c463b948bc644b84f,629af7104b060a58ef4ee2d4,,,,,1,0,1,0,1,X V Q F H G B L J M P D K C T S W R N Z,,,,,,,,,,,,,,,,,,,,,,,,,,,,,,,,,,,,,,,,,,,,,,,,,,,,,,,,,,,,,,,,,,,,,,,,,,,,,,,,,,,,,,,,,,,,,
,,,,,,,,,,5afeeff06369280001700225,24,Mężczyzna,2022-06-04_08h09.37.715,task,2021.1.4,Win32,74.97375918,628b806c463b948bc644b84f,629af7104b060a58ef4ee2d4,,,,,2,0,2,0,1,X V Q F H G B L J M P D K C T S W R N Z,,,,,,,,,,,,,,,,,,,,,,,,,,,,,,,,,,,,,,,,,,,,,,,,,,,,,,,,,,,,,,,,,,,,,,,,,,,,,,,,,,,,,,,,,,,,,
,,,,,,,,,,5afeeff06369280001700225,24,Mężczyzna,2022-06-04_08h09.37.715,task,2021.1.4,Win32,74.97375918,628b806c463b948bc644b84f,629af7104b060a58ef4ee2d4,,,,,3,0,3,0,1,X V Q F H G B L J M P D K C T S W R N Z,,,,,,,,,,,,,,,,,,,,,,,,,,,,,,,,,,,,,,,,,,,,,,,,,,,,,,,,,,,,,,,,,,,,,,,,,,,,,,,,,,,,,,,,,,,,,
,,,,,,,,,,5afeeff06369280001700225,24,Mężczyzna,2022-06-04_08h09.37.715,task,2021.1.4,Win32,74.97375918,628b806c463b948bc644b84f,629af7104b060a58ef4ee2d4,,,,,4,0,4,0,1,X V Q F H G B L J M P D K C T S W R N Z,,,,,,,,,,,,,,,,,,,,,,,,,,,,,,,,,,,,,,,,,,,,,,,,,,,,,,,,,,,,,,,,,,,,,,,,,,,,,,,,,,,,,,,,,,,,,
,,,,,,,,,,5afeeff06369280001700225,24,Mężczyzna,2022-06-04_08h09.37.715,task,2021.1.4,Win32,74.97375918,628b806c463b948bc644b84f,629af7104b060a58ef4ee2d4,,,,,5,0,5,0,1,X V Q F H G B L J M P D K C T S W R N Z,,,,,,,,,,,,,,,,,,,,,,,,,,,,,,,,,,,,,,,,,,,,,,,,,,,,,,,,,,,,,,,,,,,,,,,,,,,,,,,,,,,,,,,,,,,,,
,,,,,,,,,,5afeeff06369280001700225,24,Mężczyzna,2022-06-04_08h09.37.715,task,2021.1.4,Win32,74.97375918,628b806c463b948bc644b84f,629af7104b060a58ef4ee2d4,,,,,6,0,6,0,1,X V Q F H G B L J M P D K C T S W R N Z,,,,,,,,,,,,,,,,,,,,,,,,,,,,,,,,,,,,,,,,,,,,,,,,,,,,,,,,,,,,,,,,,,,,,,,,,,,,,,,,,,,,,,,,,,,,,
,,,,,,,,,,5afeeff06369280001700225,24,Mężczyzna,2022-06-04_08h09.37.715,task,2021.1.4,Win32,74.97375918,628b806c463b948bc644b84f,629af7104b060a58ef4ee2d4,,,,,,,,,,,pbfscfp,"[""p"",""b"",""f"",""s"",""c"",""f"",""p""]","[0.6806000000238441,1.19760000002384,1.5096000000238519,2.2696000000238428,2.7415000000000305,3.149600000023838,3.4016000000238478,3.8136000000238823]",0,PBFSCBR,13,0,13,0,1,,,,,,,,,,,,,,,,,,,,,,,,,,,,,,,,,,,,,,,,,,,,,,,,,,,,,,,,,,,,,,,,,,,,,,,,,,,,,,,,,,,
,,,,,,,,,,5afeeff06369280001700225,24,Mężczyzna,2022-06-04_08h09.37.715,task,2021.1.4,Win32,74.97375918,628b806c463b948bc644b84f,629af7104b060a58ef4ee2d4,,,,,,,,,,,,,,,,,,,,,space,10.012,0,"[""0""]",1,[6.8748000000119305],[6.8748000000119305],0,0,0,0,1,Practice,1,(3x3) -  9,0,,,,,,,,,,,,,,,,,,,,,,,,,,,,,,,,,,,,,,,,,,,,,,,,,,,,,,,,,,,,,,,,,,,
,,,,,,,,,,5afeeff06369280001700225,24,Mężczyzna,2022-06-04_08h09.37.715,task,2021.1.4,Win32,74.97375918,628b806c463b948bc644b84f,629af7104b060a58ef4ee2d4,,,,,,,,,,,,,,,,,,,,,,,3,"[""3""]",1,[4.575900000035745],"[6.8748000000119305,4.575900000035745]",0,1,1,3,1,Practice,4,(8/4) + 1,3,,,,,,,,,,,,,,,,,,,,,,,,,,,,,,,,,,,,,,,,,,,,,,,,,,,,,,,,,,,,,,,,,,,
,,,,,,,,,,5afeeff06369280001700225,24,Mężczyzna,2022-06-04_08h09.37.715,task,2021.1.4,Win32,74.97375918,628b806c463b948bc644b84f,629af7104b060a58ef4ee2d4,,,,,,,,,,,,,,,,,,,,,,,6,"[""6""]",1,[5.05150000000009],"[6.8748000000119305,4.575900000035745,5.05150000000009]",0,2,2,6,1,Practice,7,(25/5) + 1,6,,,,,,,,,,,,,,,,,,,,,,,,,,,,,,,,,,,,,,,,,,,,,,,,,,,,,,,,,,,,,,,,,,,
,,,,,,,,,,5afeeff06369280001700225,24,Mężczyzna,2022-06-04_08h09.37.715,task,2021.1.4,Win32,74.97375918,628b806c463b948bc644b84f,629af7104b060a58ef4ee2d4,,,,,,,,,,,,,,,,,,,,,,,7,"[""7""]",1,[7.467899999976112],"[6.8748000000119305,4.575900000035745,5.05150000000009,7.467899999976112]",0,3,3,7,1,Practice,8,(5x5) - 18,7,,,,,,,,,,,,,,,,,,,,,,,,,,,,,,,,,,,,,,,,,,,,,,,,,,,,,,,,,,,,,,,,,,,
,,,,,,,,,,5afeeff06369280001700225,24,Mężczyzna,2022-06-04_08h09.37.715,task,2021.1.4,Win32,74.97375918,628b806c463b948bc644b84f,629af7104b060a58ef4ee2d4,,,,,,,,,,,,,,,,,,,,,,,9,"[""9""]",1,[3.1972999999522926],"[6.8748000000119305,4.575900000035745,5.05150000000009,7.467899999976112,3.1972999999522926]",0,4,4,9,1,Practice,10,(20/2) - 1,9,,,,,,,,,,,,,,,,,,,,,,,,,,,,,,,,,,,,,,,,,,,,,,,,,,,,,,,,,,,,,,,,,,,
,,,,,,,,,,5afeeff06369280001700225,24,Mężczyzna,2022-06-04_08h09.37.715,task,2021.1.4,Win32,74.97375918,628b806c463b948bc644b84f,629af7104b060a58ef4ee2d4,,,,,,,,,,,,,,,,,,,,,,,4,"[""4""]",1,[5.867699999988076],"[6.8748000000119305,4.575900000035745,5.05150000000009,7.467899999976112,3.1972999999522926,5.867699999988076]",0,5,5,4,1,Practice,5,(2x6) - 8,4,,,,,,,,,,,,,,,,,,,,,,,,,,,,,,,,,,,,,,,,,,,,,,,,,,,,,,,,,,,,,,,,,,,
,,,,,,,,,,5afeeff06369280001700225,24,Mężczyzna,2022-06-04_08h09.37.715,task,2021.1.4,Win32,74.97375918,628b806c463b948bc644b84f,629af7104b060a58ef4ee2d4,,,,,,,,,,,,,,,,,,,,,,,8,"[""8""]",1,[2.888899999976161],"[6.8748000000119305,4.575900000035745,5.05150000000009,7.467899999976112,3.1972999999522926,5.867699999988076,2.888899999976161]",0,6,6,8,1,Practice,9,(3x3) - 1,8,,,,,,,,,,,,,,,,,,,,,,,,,,,,,,,,,,,,,,,,,,,,,,,,,,,,,,,,,,,,,,,,,,,
,,,,,,,,,,5afeeff06369280001700225,24,Mężczyzna,2022-06-04_08h09.37.715,task,2021.1.4,Win32,74.97375918,628b806c463b948bc644b84f,629af7104b060a58ef4ee2d4,,,,,,,,,,,,,,,,,,,,,,,5,"[""5""]",1,[4.097400000035805],"[6.8748000000119305,4.575900000035745,5.05150000000009,7.467899999976112,3.1972999999522926,5.867699999988076,2.888899999976161,4.097400000035805]",0,7,7,5,1,Practice,6,(4/2) + 3,5,,,,,,,,,,,,,,,,,,,,,,,,,,,,,,,,,,,,,,,,,,,,,,,,,,,,,,,,,,,,,,,,,,,
,,,,,,,,,,5afeeff06369280001700225,24,Mężczyzna,2022-06-04_08h09.37.715,task,2021.1.4,Win32,74.97375918,628b806c463b948bc644b84f,629af7104b060a58ef4ee2d4,,,,,,,,,,,,,,,,,,,,,,,2,"[""2""]",1,[3.348500000000058],"[6.8748000000119305,4.575900000035745,5.05150000000009,7.467899999976112,3.1972999999522926,5.867699999988076,2.888899999976161,4.097400000035805,3.348500000000058]",0,8,8,2,1,Practice,3,(4x4) - 14,2,,,,,,,,,,,,,,,,,,,,,,,,,,,,,,,,,,,,,,,,,,,,,,,,,,,,,,,,,,,,,,,,,,,
,,,,,,,,,,5afeeff06369280001700225,24,Mężczyzna,2022-06-04_08h09.37.715,task,2021.1.4,Win32,74.97375918,628b806c463b948bc644b84f,629af7104b060a58ef4ee2d4,,,,,,,,,,,,,,,,,,,,,,,1,"[""1""]",1,[4.65869999998813],"[6.8748000000119305,4.575900000035745,5.05150000000009,7.467899999976112,3.1972999999522926,5.867699999988076,2.888899999976161,4.097400000035805,3.348500000000058,4.65869999998813]",0,9,9,1,1,Practice,2,(4x4) - 15,1,,,,,,,,,,,,,,,,,,,,,,,,,,,,,,,,,,,,,,,,,,,,,,,,,,,,,,,,,,,,,,,,,,,
,,,,,,,,,,5afeeff06369280001700225,24,Mężczyzna,2022-06-04_08h09.37.715,task,2021.1.4,Win32,74.97375918,628b806c463b948bc644b84f,629af7104b060a58ef4ee2d4,,,,,,,,,,,,,,,,,,,,,,,,,,,,,,,,,,,,,1,48.0286,3.201906667,47.14779096,1.772903287,7.775997146,space,1.7826,0,0,0,0,1,,,,,,,,,,,,,,,,,,,,,,,,,,,,,,,,,,,,,,,,,,,,,,,,,,,,,,
,,,,,,,,,,5afeeff06369280001700225,24,Mężczyzna,2022-06-04_08h09.37.715,task,2021.1.4,Win32,74.97375918,628b806c463b948bc644b84f,629af7104b060a58ef4ee2d4,,,,,,,,,,,,,,,,,,,,,,,3,,,,,,,,,,Practice,4,(8/4) + 1,3,,,,,,,,,,,,,,space,17.8962,"[""3""]",1,[3.7859000000356673],1,0,0,0,3,1,,,,,,,,,,,,,,,,,,,,,,,,,,,,,,,,,,,,,,,,,,,
,,,,,,,,,,5afeeff06369280001700225,24,Mężczyzna,2022-06-04_08h09.37.715,task,2021.1.4,Win32,74.97375918,628b806c463b948bc644b84f,629af7104b060a58ef4ee2d4,,,,,,,,,,X V Q F H G B L J M P D K C T S W R N Z,,,,,,,,,,,,,,,,,,,,,,,,,,,,,,,,,,,,,,,,,,,,,,,,,,,0,0,0,0,1,,,,,,,,,,,,,,,,,,,,,,,,,,,,,,,,,,,,,,
,,,,,,,,,,5afeeff06369280001700225,24,Mężczyzna,2022-06-04_08h09.37.715,task,2021.1.4,Win32,74.97375918,628b806c463b948bc644b84f,629af7104b060a58ef4ee2d4,,,,,,,,,,,,,,,,,,,,,,,,,,,,,,,,,Practice,5,(2x6) - 8,4,,,,,,,,,,,,,,,,,0,,0,0,0,0,4,1,,,,,,,,,,,,,,,,,,,,,,,,,,,,,,,,,,,,,,,,,,,
,,,,,,,,,,5afeeff06369280001700225,24,Mężczyzna,2022-06-04_08h09.37.715,task,2021.1.4,Win32,74.97375918,628b806c463b948bc644b84f,629af7104b060a58ef4ee2d4,,,,,,,,,,,,,,,,,,,,,,,9,,,,,,,,,,Practice,10,(20/2) - 1,9,,,,,,,,,,,,,,,,"[""9""]",1,[2.895199999988108],1,0,1,1,9,1,,,,,,,,,,,,,,,,,,,,,,,,,,,,,,,,,,,,,,,,,,,
,,,,,,,,,,5afeeff06369280001700225,24,Mężczyzna,2022-06-04_08h09.37.715,task,2021.1.4,Win32,74.97375918,628b806c463b948bc644b84f,629af7104b060a58ef4ee2d4,,,,,,,,,,X V Q F H G B L J M P D K C T S W R N Z,,,,,,,,,,,,,,,,,,,,,,,,,,,,,,,,,,,,,,,,,,,,,,,,,,,1,0,1,0,1,,,,,,,,,,,,,,,,,,,,,,,,,,,,,,,,,,,,,,
,,,,,,,,,,5afeeff06369280001700225,24,Mężczyzna,2022-06-04_08h09.37.715,task,2021.1.4,Win32,74.97375918,628b806c463b948bc644b84f,629af7104b060a58ef4ee2d4,,,,,,,,,,,,,,,,,,,,,,,,,,,,,,,,,,,,,,,,,,,,,,,,,,,,,,,,,,,,,,,,,,zx,"[""z"",""x""]",0,"[2.926600000023882,3.2865000000000464,4.934600000023806]",1,0,0,0,0,1,,,,,,,,,,,,,,,,,,,,,,,,,,,,
,,,,,,,,,,5afeeff06369280001700225,24,Mężczyzna,2022-06-04_08h09.37.715,task,2021.1.4,Win32,74.97375918,628b806c463b948bc644b84f,629af7104b060a58ef4ee2d4,,,,,,,,,,,,,,,,,,,,,,,3,,,,,,,,,,Practice,4,(8/4) + 1,3,,,,,,,,,,,,,,,,"[""3""]",1,[2.37889999997617],1,0,0,0,3,1,,,,,,,,,,,,,,,,,,,,,,,,,,,,,,,,,,,,,,,,,,,
,,,,,,,,,,5afeeff06369280001700225,24,Mężczyzna,2022-06-04_08h09.37.715,task,2021.1.4,Win32,74.97375918,628b806c463b948bc644b84f,629af7104b060a58ef4ee2d4,,,,,,,,,,X V Q F H G B L J M P D K C T S W R N Z,,,,,,,,,,,,,,,,,,,,,,,,,,,,,,,,,,,,,,,,,,,,,,,,,,,0,0,0,0,1,,,,,,,,,,,,,,,,,,,,,,,,,,,,,,,,,,,,,,
,,,,,,,,,,5afeeff06369280001700225,24,Mężczyzna,2022-06-04_08h09.37.715,task,2021.1.4,Win32,74.97375918,628b806c463b948bc644b84f,629af7104b060a58ef4ee2d4,,,,,,,,,,,,,,,,,,,,,,,5,,,,,,,,,,Practice,6,(4/2) + 3,5,,,,,,,,,,,,,,,,"[""5""]",1,[3.08299999999997],1,0,0,0,5,1,,,,,,,,,,,,,,,,,,,,,,,,,,,,,,,,,,,,,,,,,,,
,,,,,,,,,,5afeeff06369280001700225,24,Mężczyzna,2022-06-04_08h09.37.715,task,2021.1.4,Win32,74.97375918,628b806c463b948bc644b84f,629af7104b060a58ef4ee2d4,,,,,,,,,,X V Q F H G B L J M P D K C T S W R N Z,,,,,,,,,,,,,,,,,,,,,,,,,,,,,,,,,,,,,,,,,,,,,,,,,,,1,0,1,0,1,,,,,,,,,,,,,,,,,,,,,,,,,,,,,,,,,,,,,,
,,,,,,,,,,5afeeff06369280001700225,24,Mężczyzna,2022-06-04_08h09.37.715,task,2021.1.4,Win32,74.97375918,628b806c463b948bc644b84f,629af7104b060a58ef4ee2d4,,,,,,,,,,,,,,,,,,,,,,,,,,,,,,,,,,,,,,,,,,,,,,,,,,,,,,,,,,,,,,,,,,gn,"[""g"",""n""]",0,"[1.2953000000119346,1.4714999999999918,1.7915999999642054]",1,1,0,1,0,1,,,,,,,,,,,,,,,,,,,,,,,,,,,,
,,,,,,,,,,5afeeff06369280001700225,24,Mężczyzna,2022-06-04_08h09.37.715,task,2021.1.4,Win32,74.97375918,628b806c463b948bc644b84f,629af7104b060a58ef4ee2d4,,,,,,,,,,,,,,,,,,,,,,,9,,,,,,,,,,Practice,10,(20/2) - 1,9,,,,,,,,,,,,,,,,"[""9""]",1,[2.278400000035731],1,0,0,0,9,1,,,,,,,,,,,,,,,,,,,,,,,,,,,,,,,,,,,,,,,,,,,
,,,,,,,,,,5afeeff06369280001700225,24,Mężczyzna,2022-06-04_08h09.37.715,task,2021.1.4,Win32,74.97375918,628b806c463b948bc644b84f,629af7104b060a58ef4ee2d4,,,,,,,,,,X V Q F H G B L J M P D K C T S W R N Z,,,,,,,,,,,,,,,,,,,,,,,,,,,,,,,,,,,,,,,,,,,,,,,,,,,0,0,0,0,1,,,,,,,,,,,,,,,,,,,,,,,,,,,,,,,,,,,,,,
,,,,,,,,,,5afeeff06369280001700225,24,Mężczyzna,2022-06-04_08h09.37.715,task,2021.1.4,Win32,74.97375918,628b806c463b948bc644b84f,629af7104b060a58ef4ee2d4,,,,,,,,,,,,,,,,,,,,,,,0,,,,,,,,,,Practice,1,(3x3) -  9,0,,,,,,,,,,,,,,,,"[""0""]",1,[1.8258999999761727],1,0,0,0,0,1,,,,,,,,,,,,,,,,,,,,,,,,,,,,,,,,,,,,,,,,,,,
,,,,,,,,,,5afeeff06369280001700225,24,Mężczyzna,2022-06-04_08h09.37.715,task,2021.1.4,Win32,74.97375918,628b806c463b948bc644b84f,629af7104b060a58ef4ee2d4,,,,,,,,,,X V Q F H G B L J M P D K C T S W R N Z,,,,,,,,,,,,,,,,,,,,,,,,,,,,,,,,,,,,,,,,,,,,,,,,,,,1,0,1,0,1,,,,,,,,,,,,,,,,,,,,,,,,,,,,,,,,,,,,,,
,,,,,,,,,,5afeeff06369280001700225,24,Mężczyzna,2022-06-04_08h09.37.715,task,2021.1.4,Win32,74.97375918,628b806c463b948bc644b84f,629af7104b060a58ef4ee2d4,,,,,,,,,,,,,,,,,,,,,,,,,,,,,,,,,,,,,,,,,,,,,,,,,,,,,,,,,,,,,,,,,,gb,"[""g"",""b""]",0,"[1.0752999999523354,1.2350000000000136,1.4589999999999463]",1,2,0,2,0,1,,,,,,,,,,,,,,,,,,,,,,,,,,,,
,,,,,,,,,,5afeeff06369280001700225,24,Mężczyzna,2022-06-04_08h09.37.715,task,2021.1.4,Win32,74.97375918,628b806c463b948bc644b84f,629af7104b060a58ef4ee2d4,,,,,,,,,,,,,,,,,,,,,,,0,,,,,,,,,,Task,17,(2x3) - 6,0,,,,,,,,,,,,,,,,,,,1,,,,,,,,,,,,,,,,,,,,,space,14.5031,"[""0""]",1,[4.086399999976152],0,0,0,16,1,,,,,,,,,,,,,,,,,,
,,,,,,,,,,5afeeff06369280001700225,24,Mężczyzna,2022-06-04_08h09.37.715,task,2021.1.4,Win32,74.97375918,628b806c463b948bc644b84f,629af7104b060a58ef4ee2d4,,,,,,,,,,X V Q F H G B L J M P D K C T S W R N Z,,,,,,,,,,,,,,,,,,,,,,,,,,,,,,,,,,,,,,,,,,,,,,,,,,,,,,,,,,,,,,,,,,,,,,,,,,,,0,0,0,0,1,,,,,,,,,,,,,
,,,,,,,,,,5afeeff06369280001700225,24,Mężczyzna,2022-06-04_08h09.37.715,task,2021.1.4,Win32,74.97375918,628b806c463b948bc644b84f,629af7104b060a58ef4ee2d4,,,,,,,,,,,,,,,,,,,,,,,6,,,,,,,,,,Task,37,(3/3) + 5,6,,,,,,,,,,,,,,,,,,,1,,,,,,,,,,,,,,,,,,,,,,,"[""6""]",1,[4.322699999988117],0,0,0,36,1,,,,,,,,,,,,,,,,,,
,,,,,,,,,,5afeeff06369280001700225,24,Mężczyzna,2022-06-04_08h09.37.715,task,2021.1.4,Win32,74.97375918,628b806c463b948bc644b84f,629af7104b060a58ef4ee2d4,,,,,,,,,,X V Q F H G B L J M P D K C T S W R N Z,,,,,,,,,,,,,,,,,,,,,,,,,,,,,,,,,,,,,,,,,,,,,,,,,,,,,,,,,,,,,,,,,,,,,,,,,,,,1,0,1,0,1,,,,,,,,,,,,,
,,,,,,,,,,5afeeff06369280001700225,24,Mężczyzna,2022-06-04_08h09.37.715,task,2021.1.4,Win32,74.97375918,628b806c463b948bc644b84f,629af7104b060a58ef4ee2d4,,,,,,,,,,,,,,,,,,,,,,,,,,,,,,,,,,,,,,,,,,,,,,,,,,,,,,,,,,,,,,,,,,,,,,,,,,,,,,,,,,,,,,,,,,,zf,"[""z"",""f""]",0,"[1.0219000000356573,1.38980000001186,1.6458000000118318]",1,ZF,0,0,0,0,1,,
,,,,,,,,,,5afeeff06369280001700225,24,Mężczyzna,2022-06-04_08h09.37.715,task,2021.1.4,Win32,74.97375918,628b806c463b948bc644b84f,629af7104b060a58ef4ee2d4,,,,,,,,,,,,,,,,,,,,,,,6,,,,,,,,,,Task,5,(2x3) + 0,6,,,,,,,,,,,,,,,,,,,1,,,,,,,,,,,,,,,,,,,,,,,"[""6""]",1,[3.902899999976171],0,0,0,4,1,,,,,,,,,,,,,,,,,,
,,,,,,,,,,5afeeff06369280001700225,24,Mężczyzna,2022-06-04_08h09.37.715,task,2021.1.4,Win32,74.97375918,628b806c463b948bc644b84f,629af7104b060a58ef4ee2d4,,,,,,,,,,X V Q F H G B L J M P D K C T S W R N Z,,,,,,,,,,,,,,,,,,,,,,,,,,,,,,,,,,,,,,,,,,,,,,,,,,,,,,,,,,,,,,,,,,,,,,,,,,,,0,0,0,0,1,,,,,,,,,,,,,
,,,,,,,,,,5afeeff06369280001700225,24,Mężczyzna,2022-06-04_08h09.37.715,task,2021.1.4,Win32,74.97375918,628b806c463b948bc644b84f,629af7104b060a58ef4ee2d4,,,,,,,,,,,,,,,,,,,,,,,8,,,,,,,,,,Task,23,(2x3) + 2,8,,,,,,,,,,,,,,,,,,,1,,,,,,,,,,,,,,,,,,,,,,,"[""8""]",1,[3.7639000000357328],0,0,0,22,1,,,,,,,,,,,,,,,,,,
,,,,,,,,,,5afeeff06369280001700225,24,Mężczyzna,2022-06-04_08h09.37.715,task,2021.1.4,Win32,74.97375918,628b806c463b948bc644b84f,629af7104b060a58ef4ee2d4,,,,,,,,,,X V Q F H G B L J M P D K C T S W R N Z,,,,,,,,,,,,,,,,,,,,,,,,,,,,,,,,,,,,,,,,,,,,,,,,,,,,,,,,,,,,,,,,,,,,,,,,,,,,1,0,1,0,1,,,,,,,,,,,,,
,,,,,,,,,,5afeeff06369280001700225,24,Mężczyzna,2022-06-04_08h09.37.715,task,2021.1.4,Win32,74.97375918,628b806c463b948bc644b84f,629af7104b060a58ef4ee2d4,,,,,,,,,,,,,,,,,,,,,,,,,,,,,,,,,Task,14,(2x2) + 3,7,,,,,,,,,,,,,,,,,,,0,,,,,,,,,,,,,,,,,,,,,,,,0,,0,0,0,13,1,,,,,,,,,,,,,,,,,,
,,,,,,,,,,5afeeff06369280001700225,24,Mężczyzna,2022-06-04_08h09.37.715,task,2021.1.4,Win32,74.97375918,628b806c463b948bc644b84f,629af7104b060a58ef4ee2d4,,,,,,,,,,,,,,,,,,,,,,,1,,,,,,,,,,Task,1,(12/6) - 1,1,,,,,,,,,,,,,,,,,,,1,,,,,,,,,,,,,,,,,,,,,,,"[""1""]",1,[4.739900000035732],0,1,1,0,1,,,,,,,,,,,,,,,,,,
,,,,,,,,,,5afeeff06369280001700225,24,Mężczyzna,2022-06-04_08h09.37.715,task,2021.1.4,Win32,74.97375918,628b806c463b948bc644b84f,629af7104b060a58ef4ee2d4,,,,,,,,,,X V Q F H G B L J M P D K C T S W R N Z,,,,,,,,,,,,,,,,,,,,,,,,,,,,,,,,,,,,,,,,,,,,,,,,,,,,,,,,,,,,,,,,,,,,,,,,,,,,2,0,2,0,1,,,,,,,,,,,,,
,,,,,,,,,,5afeeff06369280001700225,24,Mężczyzna,2022-06-04_08h09.37.715,task,2021.1.4,Win32,74.97375918,628b806c463b948bc644b84f,629af7104b060a58ef4ee2d4,,,,,,,,,,,,,,,,,,,,,,,,,,,,,,,,,,,,,,,,,,,,,,,,,,,,,,,,,,,,,,,,,,,,,,,,,,,,,,,,,,,,,,,,,,,jqr,"[""j"",""q"",""r""]",0,"[1.169499999999971,1.4578000000119573,1.6894999999999527,2.0254999999999654]",1,JQR,1,0,1,0,1,,
,,,,,,,,,,5afeeff06369280001700225,24,Mężczyzna,2022-06-04_08h09.37.715,task,2021.1.4,Win32,74.97375918,628b806c463b948bc644b84f,629af7104b060a58ef4ee2d4,,,,,,,,,,,,,,,,,,,,,,,2,,,,,,,,,,Task,19,(6/2) - 1,2,,,,,,,,,,,,,,,,,,,1,,,,,,,,,,,,,,,,,,,,,,,"[""2""]",1,[4.642300000011915],0,0,0,18,1,,,,,,,,,,,,,,,,,,
,,,,,,,,,,5afeeff06369280001700225,24,Mężczyzna,2022-06-04_08h09.37.715,task,2021.1.4,Win32,74.97375918,628b806c463b948bc644b84f,629af7104b060a58ef4ee2d4,,,,,,,,,,X V Q F H G B L J M P D K C T S W R N Z,,,,,,,,,,,,,,,,,,,,,,,,,,,,,,,,,,,,,,,,,,,,,,,,,,,,,,,,,,,,,,,,,,,,,,,,,,,,0,0,0,0,1,,,,,,,,,,,,,
,,,,,,,,,,5afeeff06369280001700225,24,Mężczyzna,2022-06-04_08h09.37.715,task,2021.1.4,Win32,74.97375918,628b806c463b948bc644b84f,629af7104b060a58ef4ee2d4,,,,,,,,,,,,,,,,,,,,,,,7,,,,,,,,,,Task,31,(4/2) + 5,7,,,,,,,,,,,,,,,,,,,1,,,,,,,,,,,,,,,,,,,,,,,"[""7""]",1,[3.064199999988091],0,0,0,30,1,,,,,,,,,,,,,,,,,,
,,,,,,,,,,5afeeff06369280001700225,24,Mężczyzna,2022-06-04_08h09.37.715,task,2021.1.4,Win32,74.97375918,628b806c463b948bc644b84f,629af7104b060a58ef4ee2d4,,,,,,,,,,X V Q F H G B L J M P D K C T S W R N Z,,,,,,,,,,,,,,,,,,,,,,,,,,,,,,,,,,,,,,,,,,,,,,,,,,,,,,,,,,,,,,,,,,,,,,,,,,,,1,0,1,0,1,,,,,,,,,,,,,
,,,,,,,,,,5afeeff06369280001700225,24,Mężczyzna,2022-06-04_08h09.37.715,task,2021.1.4,Win32,74.97375918,628b806c463b948bc644b84f,629af7104b060a58ef4ee2d4,,,,,,,,,,,,,,,,,,,,,,,3,,,,,,,,,,Task,3,(2x3) - 3,3,,,,,,,,,,,,,,,,,,,1,,,,,,,,,,,,,,,,,,,,,,,"[""3""]",1,[3.691000000000031],0,0,0,2,1,,,,,,,,,,,,,,,,,,
,,,,,,,,,,5afeeff06369280001700225,24,Mężczyzna,2022-06-04_08h09.37.715,task,2021.1.4,Win32,74.97375918,628b806c463b948bc644b84f,629af7104b060a58ef4ee2d4,,,,,,,,,,X V Q F H G B L J M P D K C T S W R N Z,,,,,,,,,,,,,,,,,,,,,,,,,,,,,,,,,,,,,,,,,,,,,,,,,,,,,,,,,,,,,,,,,,,,,,,,,,,,2,0,2,0,1,,,,,,,,,,,,,
,,,,,,,,,,5afeeff06369280001700225,24,Mężczyzna,2022-06-04_08h09.37.715,task,2021.1.4,Win32,74.97375918,628b806c463b948bc644b84f,629af7104b060a58ef4ee2d4,,,,,,,,,,,,,,,,,,,,,,,4,,,,,,,,,,Task,21,(10/2) - 1,4,,,,,,,,,,,,,,,,,,,1,,,,,,,,,,,,,,,,,,,,,,,"[""4""]",1,[5.259599999964166],0,0,0,20,1,,,,,,,,,,,,,,,,,,
,,,,,,,,,,5afeeff06369280001700225,24,Mężczyzna,2022-06-04_08h09.37.715,task,2021.1.4,Win32,74.97375918,628b806c463b948bc644b84f,629af7104b060a58ef4ee2d4,,,,,,,,,,X V Q F H G B L J M P D K C T S W R N Z,,,,,,,,,,,,,,,,,,,,,,,,,,,,,,,,,,,,,,,,,,,,,,,,,,,,,,,,,,,,,,,,,,,,,,,,,,,,3,0,3,0,1,,,,,,,,,,,,,
,,,,,,,,,,5afeeff06369280001700225,24,Mężczyzna,2022-06-04_08h09.37.715,task,2021.1.4,Win32,74.97375918,628b806c463b948bc644b84f,629af7104b060a58ef4ee2d4,,,,,,,,,,,,,,,,,,,,,,,,,,,,,,,,,,,,,,,,,,,,,,,,,,,,,,,,,,,,,,,,,,,,,,,,,,,,,,,,,,,,,,,,,,,trxb,"[""t"",""r"",""x"",""b""]",0,"[1.1931000000238328,1.5289999999999964,1.83299999999997,2.7609999999999673,3.12110000002383]",1,TRXB,2,0,2,0,1,,
,,,,,,,,,,5afeeff06369280001700225,24,Mężczyzna,2022-06-04_08h09.37.715,task,2021.1.4,Win32,74.97375918,628b806c463b948bc644b84f,629af7104b060a58ef4ee2d4,,,,,,,,,,,,,,,,,,,,,,,,,,,,,,,,,Task,38,(4x6) - 17,7,,,,,,,,,,,,,,,,,,,0,,,,,,,,,,,,,,,,,,,,,,,,0,,0,0,0,37,1,,,,,,,,,,,,,,,,,,
,,,,,,,,,,5afeeff06369280001700225,24,Mężczyzna,2022-06-04_08h09.37.715,task,2021.1.4,Win32,74.97375918,628b806c463b948bc644b84f,629af7104b060a58ef4ee2d4,,,,,,,,,,,,,,,,,,,,,,,4,,,,,,,,,,Task,4,(1x5) - 1,4,,,,,,,,,,,,,,,,,,,1,,,,,,,,,,,,,,,,,,,,,,,"[""4""]",1,[2.034999999999968],0,1,1,3,1,,,,,,,,,,,,,,,,,,
,,,,,,,,,,5afeeff06369280001700225,24,Mężczyzna,2022-06-04_08h09.37.715,task,2021.1.4,Win32,74.97375918,628b806c463b948bc644b84f,629af7104b060a58ef4ee2d4,,,,,,,,,,X V Q F H G B L J M P D K C T S W R N Z,,,,,,,,,,,,,,,,,,,,,,,,,,,,,,,,,,,,,,,,,,,,,,,,,,,,,,,,,,,,,,,,,,,,,,,,,,,,0,0,0,0,1,,,,,,,,,,,,,
,,,,,,,,,,5afeeff06369280001700225,24,Mężczyzna,2022-06-04_08h09.37.715,task,2021.1.4,Win32,74.97375918,628b806c463b948bc644b84f,629af7104b060a58ef4ee2d4,,,,,,,,,,,,,,,,,,,,,,,5,,,,,,,,,,Task,22,(3x1) + 2,5,,,,,,,,,,,,,,,,,,,1,,,,,,,,,,,,,,,,,,,,,,,"[""5""]",1,[2.139900000035823],0,0,0,21,1,,,,,,,,,,,,,,,,,,
,,,,,,,,,,5afeeff06369280001700225,24,Mężczyzna,2022-06-04_08h09.37.715,task,2021.1.4,Win32,74.97375918,628b806c463b948bc644b84f,629af7104b060a58ef4ee2d4,,,,,,,,,,X V Q F H G B L J M P D K C T S W R N Z,,,,,,,,,,,,,,,,,,,,,,,,,,,,,,,,,,,,,,,,,,,,,,,,,,,,,,,,,,,,,,,,,,,,,,,,,,,,1,0,1,0,1,,,,,,,,,,,,,
,,,,,,,,,,5afeeff06369280001700225,24,Mężczyzna,2022-06-04_08h09.37.715,task,2021.1.4,Win32,74.97375918,628b806c463b948bc644b84f,629af7104b060a58ef4ee2d4,,,,,,,,,,,,,,,,,,,,,,,3,,,,,,,,,,Task,27,(3/3) + 2,3,,,,,,,,,,,,,,,,,,,1,,,,,,,,,,,,,,,,,,,,,,,"[""3""]",1,[2.0984999999999445],0,0,0,26,1,,,,,,,,,,,,,,,,,,
,,,,,,,,,,5afeeff06369280001700225,24,Mężczyzna,2022-06-04_08h09.37.715,task,2021.1.4,Win32,74.97375918,628b806c463b948bc644b84f,629af7104b060a58ef4ee2d4,,,,,,,,,,X V Q F H G B L J M P D K C T S W R N Z,,,,,,,,,,,,,,,,,,,,,,,,,,,,,,,,,,,,,,,,,,,,,,,,,,,,,,,,,,,,,,,,,,,,,,,,,,,,2,0,2,0,1,,,,,,,,,,,,,
,,,,,,,,,,5afeeff06369280001700225,24,Mężczyzna,2022-06-04_08h09.37.715,task,2021.1.4,Win32,74.97375918,628b806c463b948bc644b84f,629af7104b060a58ef4ee2d4,,,,,,,,,,,,,,,,,,,,,,,7,,,,,,,,,,Task,38,(4x6) - 17,7,,,,,,,,,,,,,,,,,,,1,,,,,,,,,,,,,,,,,,,,,,,"[""7""]",1,[6.211100000023748],0,0,0,37,1,,,,,,,,,,,,,,,,,,
,,,,,,,,,,5afeeff06369280001700225,24,Mężczyzna,2022-06-04_08h09.37.715,task,2021.1.4,Win32,74.97375918,628b806c463b948bc644b84f,629af7104b060a58ef4ee2d4,,,,,,,,,,X V Q F H G B L J M P D K C T S W R N Z,,,,,,,,,,,,,,,,,,,,,,,,,,,,,,,,,,,,,,,,,,,,,,,,,,,,,,,,,,,,,,,,,,,,,,,,,,,,3,0,3,0,1,,,,,,,,,,,,,
,,,,,,,,,,5afeeff06369280001700225,24,Mężczyzna,2022-06-04_08h09.37.715,task,2021.1.4,Win32,74.97375918,628b806c463b948bc644b84f,629af7104b060a58ef4ee2d4,,,,,,,,,,,,,,,,,,,,,,,6,,,,,,,,,,Task,5,(2x3) + 0,6,,,,,,,,,,,,,,,,,,,1,,,,,,,,,,,,,,,,,,,,,,,"[""6""]",1,[3.256199999988098],0,0,0,4,1,,,,,,,,,,,,,,,,,,
,,,,,,,,,,5afeeff06369280001700225,24,Mężczyzna,2022-06-04_08h09.37.715,task,2021.1.4,Win32,74.97375918,628b806c463b948bc644b84f,629af7104b060a58ef4ee2d4,,,,,,,,,,X V Q F H G B L J M P D K C T S W R N Z,,,,,,,,,,,,,,,,,,,,,,,,,,,,,,,,,,,,,,,,,,,,,,,,,,,,,,,,,,,,,,,,,,,,,,,,,,,,4,0,4,0,1,,,,,,,,,,,,,
,,,,,,,,,,5afeeff06369280001700225,24,Mężczyzna,2022-06-04_08h09.37.715,task,2021.1.4,Win32,74.97375918,628b806c463b948bc644b84f,629af7104b060a58ef4ee2d4,,,,,,,,,,,,,,,,,,,,,,,,,,,,,,,,,,,,,,,,,,,,,,,,,,,,,,,,,,,,,,,,,,,,,,,,,,,,,,,,,,,,,,,,,,,hsknn,"[""h"",""s"",""k"",""n"",""n""]",0,"[1.2008000000118955,1.4889000000357555,1.7768000000119173,2.064800000011928,2.337300000011851,3.9049000000356955]",1,HSKNN,3,0,3,0,1,,
,,,,,,,,,,5afeeff06369280001700225,24,Mężczyzna,2022-06-04_08h09.37.715,task,2021.1.4,Win32,74.97375918,628b806c463b948bc644b84f,629af7104b060a58ef4ee2d4,,,,,,,,,,,,,,,,,,,,,,,4,,,,,,,,,,Task,14,(2x2) + 3,7,,,,,,,,,,,,,,,,,,,0,,,,,,,,,,,,,,,,,,,,,,,"[""4""]",0,[1.5346000000238291],0,0,0,13,1,,,,,,,,,,,,,,,,,,
,,,,,,,,,,5afeeff06369280001700225,24,Mężczyzna,2022-06-04_08h09.37.715,task,2021.1.4,Win32,74.97375918,628b806c463b948bc644b84f,629af7104b060a58ef4ee2d4,,,,,,,,,,,,,,,,,,,,,,,1,,,,,,,,,,Task,18,(16/4) - 3,1,,,,,,,,,,,,,,,,,,,1,,,,,,,,,,,,,,,,,,,,,,,"[""1""]",1,[6.242099999964239],0,1,1,17,1,,,,,,,,,,,,,,,,,,
,,,,,,,,,,5afeeff06369280001700225,24,Mężczyzna,2022-06-04_08h09.37.715,task,2021.1.4,Win32,74.97375918,628b806c463b948bc644b84f,629af7104b060a58ef4ee2d4,,,,,,,,,,X V Q F H G B L J M P D K C T S W R N Z,,,,,,,,,,,,,,,,,,,,,,,,,,,,,,,,,,,,,,,,,,,,,,,,,,,,,,,,,,,,,,,,,,,,,,,,,,,,0,0,0,0,1,,,,,,,,,,,,,
,,,,,,,,,,5afeeff06369280001700225,24,Mężczyzna,2022-06-04_08h09.37.715,task,2021.1.4,Win32,74.97375918,628b806c463b948bc644b84f,629af7104b060a58ef4ee2d4,,,,,,,,,,,,,,,,,,,,,,,0,,,,,,,,,,Task,17,(2x3) - 6,0,,,,,,,,,,,,,,,,,,,1,,,,,,,,,,,,,,,,,,,,,,,"[""0""]",1,[2.924399999976231],0,0,0,16,1,,,,,,,,,,,,,,,,,,
,,,,,,,,,,5afeeff06369280001700225,24,Mężczyzna,2022-06-04_08h09.37.715,task,2021.1.4,Win32,74.97375918,628b806c463b948bc644b84f,629af7104b060a58ef4ee2d4,,,,,,,,,,X V Q F H G B L J M P D K C T S W R N Z,,,,,,,,,,,,,,,,,,,,,,,,,,,,,,,,,,,,,,,,,,,,,,,,,,,,,,,,,,,,,,,,,,,,,,,,,,,,1,0,1,0,1,,,,,,,,,,,,,
,,,,,,,,,,5afeeff06369280001700225,24,Mężczyzna,2022-06-04_08h09.37.715,task,2021.1.4,Win32,74.97375918,628b806c463b948bc644b84f,629af7104b060a58ef4ee2d4,,,,,,,,,,,,,,,,,,,,,,,6,,,,,,,,,,Task,30,(6/3) + 4 ,6,,,,,,,,,,,,,,,,,,,1,,,,,,,,,,,,,,,,,,,,,,,"[""6""]",1,[2.4831999999880736],0,0,0,29,1,,,,,,,,,,,,,,,,,,
,,,,,,,,,,5afeeff06369280001700225,24,Mężczyzna,2022-06-04_08h09.37.715,task,2021.1.4,Win32,74.97375918,628b806c463b948bc644b84f,629af7104b060a58ef4ee2d4,,,,,,,,,,X V Q F H G B L J M P D K C T S W R N Z,,,,,,,,,,,,,,,,,,,,,,,,,,,,,,,,,,,,,,,,,,,,,,,,,,,,,,,,,,,,,,,,,,,,,,,,,,,,2,0,2,0,1,,,,,,,,,,,,,
,,,,,,,,,,5afeeff06369280001700225,24,Mężczyzna,2022-06-04_08h09.37.715,task,2021.1.4,Win32,74.97375918,628b806c463b948bc644b84f,629af7104b060a58ef4ee2d4,,,,,,,,,,,,,,,,,,,,,,,2,,,,,,,,,,Task,2,(2x2) - 2,2,,,,,,,,,,,,,,,,,,,1,,,,,,,,,,,,,,,,,,,,,,,"[""2""]",1,[2.937600000023849],0,0,0,1,1,,,,,,,,,,,,,,,,,,
,,,,,,,,,,5afeeff06369280001700225,24,Mężczyzna,2022-06-04_08h09.37.715,task,2021.1.4,Win32,74.97375918,628b806c463b948bc644b84f,629af7104b060a58ef4ee2d4,,,,,,,,,,X V Q F H G B L J M P D K C T S W R N Z,,,,,,,,,,,,,,,,,,,,,,,,,,,,,,,,,,,,,,,,,,,,,,,,,,,,,,,,,,,,,,,,,,,,,,,,,,,,3,0,3,0,1,,,,,,,,,,,,,
,,,,,,,,,,5afeeff06369280001700225,24,Mężczyzna,2022-06-04_08h09.37.715,task,2021.1.4,Win32,74.97375918,628b806c463b948bc644b84f,629af7104b060a58ef4ee2d4,,,,,,,,,,,,,,,,,,,,,,,3,,,,,,,,,,Task,35,(1x2) + 1,3,,,,,,,,,,,,,,,,,,,1,,,,,,,,,,,,,,,,,,,,,,,"[""3""]",1,[2.859699999988152],0,0,0,34,1,,,,,,,,,,,,,,,,,,
,,,,,,,,,,5afeeff06369280001700225,24,Mężczyzna,2022-06-04_08h09.37.715,task,2021.1.4,Win32,74.97375918,628b806c463b948bc644b84f,629af7104b060a58ef4ee2d4,,,,,,,,,,X V Q F H G B L J M P D K C T S W R N Z,,,,,,,,,,,,,,,,,,,,,,,,,,,,,,,,,,,,,,,,,,,,,,,,,,,,,,,,,,,,,,,,,,,,,,,,,,,,4,0,4,0,1,,,,,,,,,,,,,
,,,,,,,,,,5afeeff06369280001700225,24,Mężczyzna,2022-06-04_08h09.37.715,task,2021.1.4,Win32,74.97375918,628b806c463b948bc644b84f,629af7104b060a58ef4ee2d4,,,,,,,,,,,,,,,,,,,,,,,6,,,,,,,,,,Task,30,(6/3) + 4 ,6,,,,,,,,,,,,,,,,,,,1,,,,,,,,,,,,,,,,,,,,,,,"[""6""]",1,[4.510800000011955],0,0,0,29,1,,,,,,,,,,,,,,,,,,
,,,,,,,,,,5afeeff06369280001700225,24,Mężczyzna,2022-06-04_08h09.37.715,task,2021.1.4,Win32,74.97375918,628b806c463b948bc644b84f,629af7104b060a58ef4ee2d4,,,,,,,,,,X V Q F H G B L J M P D K C T S W R N Z,,,,,,,,,,,,,,,,,,,,,,,,,,,,,,,,,,,,,,,,,,,,,,,,,,,,,,,,,,,,,,,,,,,,,,,,,,,,5,0,5,0,1,,,,,,,,,,,,,
,,,,,,,,,,5afeeff06369280001700225,24,Mężczyzna,2022-06-04_08h09.37.715,task,2021.1.4,Win32,74.97375918,628b806c463b948bc644b84f,629af7104b060a58ef4ee2d4,,,,,,,,,,,,,,,,,,,,,,,,,,,,,,,,,,,,,,,,,,,,,,,,,,,,,,,,,,,,,,,,,,,,,,,,,,,,,,,,,,,,,,,,,,,dxvtql,"[""d"",""x"",""v"",""t"",""q"",""l""]",0,"[2.3205999999643154,3.359300000012013,3.8231999999881054,4.215099999964309,4.47119999998813,4.799099999964255,5.719300000012026]",0,DVXTQL,4,0,4,0,1,,
,,,,,,,,,,5afeeff06369280001700225,24,Mężczyzna,2022-06-04_08h09.37.715,task,2021.1.4,Win32,74.97375918,628b806c463b948bc644b84f,629af7104b060a58ef4ee2d4,,,,,,,,,,,,,,,,,,,,,,,9,,,,,,,,,,Task,8,(1x5) - 5,0,,,,,,,,,,,,,,,,,,,0,,,,,,,,,,,,,,,,,,,,,,,"[""9""]",0,[3.020199999988108],0,0,0,7,1,,,,,,,,,,,,,,,,,,
,,,,,,,,,,5afeeff06369280001700225,24,Mężczyzna,2022-06-04_08h09.37.715,task,2021.1.4,Win32,74.97375918,628b806c463b948bc644b84f,629af7104b060a58ef4ee2d4,,,,,,,,,,,,,,,,,,,,,,,2,,,,,,,,,,Task,2,(2x2) - 2,2,,,,,,,,,,,,,,,,,,,1,,,,,,,,,,,,,,,,,,,,,,,"[""2""]",1,[2.341199999988021],0,1,1,1,1,,,,,,,,,,,,,,,,,,
,,,,,,,,,,5afeeff06369280001700225,24,Mężczyzna,2022-06-04_08h09.37.715,task,2021.1.4,Win32,74.97375918,628b806c463b948bc644b84f,629af7104b060a58ef4ee2d4,,,,,,,,,,X V Q F H G B L J M P D K C T S W R N Z,,,,,,,,,,,,,,,,,,,,,,,,,,,,,,,,,,,,,,,,,,,,,,,,,,,,,,,,,,,,,,,,,,,,,,,,,,,,0,0,0,0,1,,,,,,,,,,,,,
,,,,,,,,,,5afeeff06369280001700225,24,Mężczyzna,2022-06-04_08h09.37.715,task,2021.1.4,Win32,74.97375918,628b806c463b948bc644b84f,629af7104b060a58ef4ee2d4,,,,,,,,,,,,,,,,,,,,,,,3,,,,,,,,,,Task,3,(2x3) - 3,3,,,,,,,,,,,,,,,,,,,1,,,,,,,,,,,,,,,,,,,,,,,"[""3""]",1,[2.803299999952401],0,0,0,2,1,,,,,,,,,,,,,,,,,,
,,,,,,,,,,5afeeff06369280001700225,24,Mężczyzna,2022-06-04_08h09.37.715,task,2021.1.4,Win32,74.97375918,628b806c463b948bc644b84f,629af7104b060a58ef4ee2d4,,,,,,,,,,X V Q F H G B L J M P D K C T S W R N Z,,,,,,,,,,,,,,,,,,,,,,,,,,,,,,,,,,,,,,,,,,,,,,,,,,,,,,,,,,,,,,,,,,,,,,,,,,,,1,0,1,0,1,,,,,,,,,,,,,
,,,,,,,,,,5afeeff06369280001700225,24,Mężczyzna,2022-06-04_08h09.37.715,task,2021.1.4,Win32,74.97375918,628b806c463b948bc644b84f,629af7104b060a58ef4ee2d4,,,,,,,,,,,,,,,,,,,,,,,1,,,,,,,,,,Task,1,(12/6) - 1,1,,,,,,,,,,,,,,,,,,,1,,,,,,,,,,,,,,,,,,,,,,,"[""1""]",1,[1.8066000000238773],0,0,0,0,1,,,,,,,,,,,,,,,,,,
,,,,,,,,,,5afeeff06369280001700225,24,Mężczyzna,2022-06-04_08h09.37.715,task,2021.1.4,Win32,74.97375918,628b806c463b948bc644b84f,629af7104b060a58ef4ee2d4,,,,,,,,,,X V Q F H G B L J M P D K C T S W R N Z,,,,,,,,,,,,,,,,,,,,,,,,,,,,,,,,,,,,,,,,,,,,,,,,,,,,,,,,,,,,,,,,,,,,,,,,,,,,2,0,2,0,1,,,,,,,,,,,,,
,,,,,,,,,,5afeeff06369280001700225,24,Mężczyzna,2022-06-04_08h09.37.715,task,2021.1.4,Win32,74.97375918,628b806c463b948bc644b84f,629af7104b060a58ef4ee2d4,,,,,,,,,,,,,,,,,,,,,,,9,,,,,,,,,,Task,7,(3x7) - 12,9,,,,,,,,,,,,,,,,,,,1,,,,,,,,,,,,,,,,,,,,,,,"[""9""]",1,[7.169599999964248],0,0,0,6,1,,,,,,,,,,,,,,,,,,
,,,,,,,,,,5afeeff06369280001700225,24,Mężczyzna,2022-06-04_08h09.37.715,task,2021.1.4,Win32,74.97375918,628b806c463b948bc644b84f,629af7104b060a58ef4ee2d4,,,,,,,,,,X V Q F H G B L J M P D K C T S W R N Z,,,,,,,,,,,,,,,,,,,,,,,,,,,,,,,,,,,,,,,,,,,,,,,,,,,,,,,,,,,,,,,,,,,,,,,,,,,,3,0,3,0,1,,,,,,,,,,,,,
,,,,,,,,,,5afeeff06369280001700225,24,Mężczyzna,2022-06-04_08h09.37.715,task,2021.1.4,Win32,74.97375918,628b806c463b948bc644b84f,629af7104b060a58ef4ee2d4,,,,,,,,,,,,,,,,,,,,,,,0,,,,,,,,,,Task,25,(10/5) - 2,0,,,,,,,,,,,,,,,,,,,1,,,,,,,,,,,,,,,,,,,,,,,"[""0""]",1,[3.57939999997609],0,0,0,24,1,,,,,,,,,,,,,,,,,,
,,,,,,,,,,5afeeff06369280001700225,24,Mężczyzna,2022-06-04_08h09.37.715,task,2021.1.4,Win32,74.97375918,628b806c463b948bc644b84f,629af7104b060a58ef4ee2d4,,,,,,,,,,X V Q F H G B L J M P D K C T S W R N Z,,,,,,,,,,,,,,,,,,,,,,,,,,,,,,,,,,,,,,,,,,,,,,,,,,,,,,,,,,,,,,,,,,,,,,,,,,,,4,0,4,0,1,,,,,,,,,,,,,
,,,,,,,,,,5afeeff06369280001700225,24,Mężczyzna,2022-06-04_08h09.37.715,task,2021.1.4,Win32,74.97375918,628b806c463b948bc644b84f,629af7104b060a58ef4ee2d4,,,,,,,,,,,,,,,,,,,,,,,3,,,,,,,,,,Task,27,(3/3) + 2,3,,,,,,,,,,,,,,,,,,,1,,,,,,,,,,,,,,,,,,,,,,,"[""3""]",1,[2.645399999976121],0,0,0,26,1,,,,,,,,,,,,,,,,,,
,,,,,,,,,,5afeeff06369280001700225,24,Mężczyzna,2022-06-04_08h09.37.715,task,2021.1.4,Win32,74.97375918,628b806c463b948bc644b84f,629af7104b060a58ef4ee2d4,,,,,,,,,,X V Q F H G B L J M P D K C T S W R N Z,,,,,,,,,,,,,,,,,,,,,,,,,,,,,,,,,,,,,,,,,,,,,,,,,,,,,,,,,,,,,,,,,,,,,,,,,,,,5,0,5,0,1,,,,,,,,,,,,,
,,,,,,,,,,5afeeff06369280001700225,24,Mężczyzna,2022-06-04_08h09.37.715,task,2021.1.4,Win32,74.97375918,628b806c463b948bc644b84f,629af7104b060a58ef4ee2d4,,,,,,,,,,,,,,,,,,,,,,,,,,,,,,,,,,,,,,,,,,,,,,,,,,,,,,,,,,,,,,,,,,,,,,,,,,,,,,,,,,,,,,,,,,,gtbcfq,"[""g"",""t"",""b"",""c"",""f"",""q""]",0,"[1.9950000000000045,2.578999999999951,2.9791000000237773,3.4149999999999636,3.739100000023882,3.93100000000004,4.635200000047689]",1,GTBCFQ,5,0,5,0,1,,
,,,,,,,,,,5afeeff06369280001700225,24,Mężczyzna,2022-06-04_08h09.37.715,task,2021.1.4,Win32,74.97375918,628b806c463b948bc644b84f,629af7104b060a58ef4ee2d4,,,,,,,,,,,,,,,,,,,,,,,5,,,,,,,,,,Task,22,(3x1) + 2,5,,,,,,,,,,,,,,,,,,,1,,,,,,,,,,,,,,,,,,,,,,,"[""5""]",1,[3.56819999998811],0,0,0,21,1,,,,,,,,,,,,,,,,,,
,,,,,,,,,,5afeeff06369280001700225,24,Mężczyzna,2022-06-04_08h09.37.715,task,2021.1.4,Win32,74.97375918,628b806c463b948bc644b84f,629af7104b060a58ef4ee2d4,,,,,,,,,,X V Q F H G B L J M P D K C T S W R N Z,,,,,,,,,,,,,,,,,,,,,,,,,,,,,,,,,,,,,,,,,,,,,,,,,,,,,,,,,,,,,,,,,,,,,,,,,,,,0,0,0,0,1,,,,,,,,,,,,,
,,,,,,,,,,5afeeff06369280001700225,24,Mężczyzna,2022-06-04_08h09.37.715,task,2021.1.4,Win32,74.97375918,628b806c463b948bc644b84f,629af7104b060a58ef4ee2d4,,,,,,,,,,,,,,,,,,,,,,,7,,,,,,,,,,Task,6,(12/2) + 1,7,,,,,,,,,,,,,,,,,,,1,,,,,,,,,,,,,,,,,,,,,,,"[""7""]",1,[1.990800000011859],0,0,0,5,1,,,,,,,,,,,,,,,,,,
,,,,,,,,,,5afeeff06369280001700225,24,Mężczyzna,2022-06-04_08h09.37.715,task,2021.1.4,Win32,74.97375918,628b806c463b948bc644b84f,629af7104b060a58ef4ee2d4,,,,,,,,,,X V Q F H G B L J M P D K C T S W R N Z,,,,,,,,,,,,,,,,,,,,,,,,,,,,,,,,,,,,,,,,,,,,,,,,,,,,,,,,,,,,,,,,,,,,,,,,,,,,1,0,1,0,1,,,,,,,,,,,,,
,,,,,,,,,,5afeeff06369280001700225,24,Mężczyzna,2022-06-04_08h09.37.715,task,2021.1.4,Win32,74.97375918,628b806c463b948bc644b84f,629af7104b060a58ef4ee2d4,,,,,,,,,,,,,,,,,,,,,,,3,,,,,,,,,,Task,3,(2x3) - 3,3,,,,,,,,,,,,,,,,,,,1,,,,,,,,,,,,,,,,,,,,,,,"[""3""]",1,[3.078699999988089],0,0,0,2,1,,,,,,,,,,,,,,,,,,
,,,,,,,,,,5afeeff06369280001700225,24,Mężczyzna,2022-06-04_08h09.37.715,task,2021.1.4,Win32,74.97375918,628b806c463b948bc644b84f,629af7104b060a58ef4ee2d4,,,,,,,,,,X V Q F H G B L J M P D K C T S W R N Z,,,,,,,,,,,,,,,,,,,,,,,,,,,,,,,,,,,,,,,,,,,,,,,,,,,,,,,,,,,,,,,,,,,,,,,,,,,,2,0,2,0,1,,,,,,,,,,,,,
,,,,,,,,,,5afeeff06369280001700225,24,Mężczyzna,2022-06-04_08h09.37.715,task,2021.1.4,Win32,74.97375918,628b806c463b948bc644b84f,629af7104b060a58ef4ee2d4,,,,,,,,,,,,,,,,,,,,,,,8,,,,,,,,,,Task,32,(8/2) + 4,8,,,,,,,,,,,,,,,,,,,1,,,,,,,,,,,,,,,,,,,,,,,"[""8""]",1,[2.4066999999880636],0,0,0,31,1,,,,,,,,,,,,,,,,,,
,,,,,,,,,,5afeeff06369280001700225,24,Mężczyzna,2022-06-04_08h09.37.715,task,2021.1.4,Win32,74.97375918,628b806c463b948bc644b84f,629af7104b060a58ef4ee2d4,,,,,,,,,,X V Q F H G B L J M P D K C T S W R N Z,,,,,,,,,,,,,,,,,,,,,,,,,,,,,,,,,,,,,,,,,,,,,,,,,,,,,,,,,,,,,,,,,,,,,,,,,,,,3,0,3,0,1,,,,,,,,,,,,,
,,,,,,,,,,5afeeff06369280001700225,24,Mężczyzna,2022-06-04_08h09.37.715,task,2021.1.4,Win32,74.97375918,628b806c463b948bc644b84f,629af7104b060a58ef4ee2d4,,,,,,,,,,,,,,,,,,,,,,,4,,,,,,,,,,Task,4,(1x5) - 1,4,,,,,,,,,,,,,,,,,,,1,,,,,,,,,,,,,,,,,,,,,,,"[""4""]",1,[3.130199999988122],0,0,0,3,1,,,,,,,,,,,,,,,,,,
,,,,,,,,,,5afeeff06369280001700225,24,Mężczyzna,2022-06-04_08h09.37.715,task,2021.1.4,Win32,74.97375918,628b806c463b948bc644b84f,629af7104b060a58ef4ee2d4,,,,,,,,,,X V Q F H G B L J M P D K C T S W R N Z,,,,,,,,,,,,,,,,,,,,,,,,,,,,,,,,,,,,,,,,,,,,,,,,,,,,,,,,,,,,,,,,,,,,,,,,,,,,4,0,4,0,1,,,,,,,,,,,,,
,,,,,,,,,,5afeeff06369280001700225,24,Mężczyzna,2022-06-04_08h09.37.715,task,2021.1.4,Win32,74.97375918,628b806c463b948bc644b84f,629af7104b060a58ef4ee2d4,,,,,,,,,,,,,,,,,,,,,,,3,,,,,,,,,,Task,20,(18/9) + 1,3,,,,,,,,,,,,,,,,,,,1,,,,,,,,,,,,,,,,,,,,,,,"[""3""]",1,[4.668800000011856],0,0,0,19,1,,,,,,,,,,,,,,,,,,
,,,,,,,,,,5afeeff06369280001700225,24,Mężczyzna,2022-06-04_08h09.37.715,task,2021.1.4,Win32,74.97375918,628b806c463b948bc644b84f,629af7104b060a58ef4ee2d4,,,,,,,,,,X V Q F H G B L J M P D K C T S W R N Z,,,,,,,,,,,,,,,,,,,,,,,,,,,,,,,,,,,,,,,,,,,,,,,,,,,,,,,,,,,,,,,,,,,,,,,,,,,,5,0,5,0,1,,,,,,,,,,,,,
,,,,,,,,,,5afeeff06369280001700225,24,Mężczyzna,2022-06-04_08h09.37.715,task,2021.1.4,Win32,74.97375918,628b806c463b948bc644b84f,629af7104b060a58ef4ee2d4,,,,,,,,,,,,,,,,,,,,,,,,,,,,,,,,,Task,40,(7x2) - 5,9,,,,,,,,,,,,,,,,,,,0,,,,,,,,,,,,,,,,,,,,,,,,0,,0,0,0,39,1,,,,,,,,,,,,,,,,,,
,,,,,,,,,,5afeeff06369280001700225,24,Mężczyzna,2022-06-04_08h09.37.715,task,2021.1.4,Win32,74.97375918,628b806c463b948bc644b84f,629af7104b060a58ef4ee2d4,,,,,,,,,,,,,,,,,,,,,,,8,,,,,,,,,,Task,29,(3x8) - 19 ,5,,,,,,,,,,,,,,,,,,,0,,,,,,,,,,,,,,,,,,,,,,,"[""8""]",0,[6.870600000023842],0,1,1,28,1,,,,,,,,,,,,,,,,,,
,,,,,,,,,,5afeeff06369280001700225,24,Mężczyzna,2022-06-04_08h09.37.715,task,2021.1.4,Win32,74.97375918,628b806c463b948bc644b84f,629af7104b060a58ef4ee2d4,,,,,,,,,,,,,,,,,,,,,,,3,,,,,,,,,,Task,3,(2x3) - 3,3,,,,,,,,,,,,,,,,,,,1,,,,,,,,,,,,,,,,,,,,,,,"[""3""]",1,[2.688900000035801],0,2,2,2,1,,,,,,,,,,,,,,,,,,
,,,,,,,,,,5afeeff06369280001700225,24,Mężczyzna,2022-06-04_08h09.37.715,task,2021.1.4,Win32,74.97375918,628b806c463b948bc644b84f,629af7104b060a58ef4ee2d4,,,,,,,,,,X V Q F H G B L J M P D K C T S W R N Z,,,,,,,,,,,,,,,,,,,,,,,,,,,,,,,,,,,,,,,,,,,,,,,,,,,,,,,,,,,,,,,,,,,,,,,,,,,,6,0,6,0,1,,,,,,,,,,,,,
,,,,,,,,,,5afeeff06369280001700225,24,Mężczyzna,2022-06-04_08h09.37.715,task,2021.1.4,Win32,74.97375918,628b806c463b948bc644b84f,629af7104b060a58ef4ee2d4,,,,,,,,,,,,,,,,,,,,,,,,,,,,,,,,,,,,,,,,,,,,,,,,,,,,,,,,,,,,,,,,,,,,,,,,,,,,,,,,,,,,,,,,,,,jlgxppw,"[""j"",""l"",""g"",""x"",""p"",""p"",""w""]",0,"[1.3406999999881464,2.1166999999881,3.148600000023862,3.412600000023872,5.4446999999880745,5.668900000035819,5.956800000011981,6.3649000000358456]",0,JLXPPGW,6,0,6,0,1,,
,,,,,,,,,,5afeeff06369280001700225,24,Mężczyzna,2022-06-04_08h09.37.715,task,2021.1.4,Win32,74.97375918,628b806c463b948bc644b84f,629af7104b060a58ef4ee2d4,,,,,,,,,,,,,,,,,,,,,,,1,,,,,,,,,,Task,34,(9/3) - 2,1,,,,,,,,,,,,,,,,,,,1,,,,,,,,,,,,,,,,,,,,,,,"[""1""]",1,[2.6575999999643045],0,0,0,33,1,,,,,,,,,,,,,,,,,,
,,,,,,,,,,5afeeff06369280001700225,24,Mężczyzna,2022-06-04_08h09.37.715,task,2021.1.4,Win32,74.97375918,628b806c463b948bc644b84f,629af7104b060a58ef4ee2d4,,,,,,,,,,X V Q F H G B L J M P D K C T S W R N Z,,,,,,,,,,,,,,,,,,,,,,,,,,,,,,,,,,,,,,,,,,,,,,,,,,,,,,,,,,,,,,,,,,,,,,,,,,,,0,0,0,0,1,,,,,,,,,,,,,
,,,,,,,,,,5afeeff06369280001700225,24,Mężczyzna,2022-06-04_08h09.37.715,task,2021.1.4,Win32,74.97375918,628b806c463b948bc644b84f,629af7104b060a58ef4ee2d4,,,,,,,,,,,,,,,,,,,,,,,2,,,,,,,,,,Task,21,(10/2) - 1,4,,,,,,,,,,,,,,,,,,,0,,,,,,,,,,,,,,,,,,,,,,,"[""2""]",0,[2.967299999952388],0,0,0,20,1,,,,,,,,,,,,,,,,,,
,,,,,,,,,,5afeeff06369280001700225,24,Mężczyzna,2022-06-04_08h09.37.715,task,2021.1.4,Win32,74.97375918,628b806c463b948bc644b84f,629af7104b060a58ef4ee2d4,,,,,,,,,,,,,,,,,,,,,,,6,,,,,,,,,,Task,37,(3/3) + 5,6,,,,,,,,,,,,,,,,,,,1,,,,,,,,,,,,,,,,,,,,,,,"[""6""]",1,[3.4211000000237846],0,1,1,36,1,,,,,,,,,,,,,,,,,,
