key_resp_15.keys,key_resp_15.rt,key_resp_16.keys,key_resp_16.rt,key_resp_4.keys,key_resp_4.rt,next_letter.thisRepN,next_letter.thisTrialN,next_letter.thisN,next_letter.thisIndex,next_letter.ran,letter,participant,Wiek*,Płeć,date,expName,psychopyVersion,OS,frameRate,study_id,session,simple_recall,key_resp_5.keys,key_resp_5.rt,simple_recall_corr,simple_recall_corrkeys,next_level.thisRepN,next_level.thisTrialN,next_level.thisN,next_level.thisIndex,next_level.ran,key_resp_2.keys,key_resp_2.rt,digit_answer,key_resp.keys,key_resp.corr,key_resp.rt,RT_list,next_equation.thisRepN,next_equation.thisTrialN,next_equation.thisN,next_equation.thisIndex,next_equation.ran,Task,Trial,Problem,Operation_answer,processing_score,sumRT,meanRT,sumdiff,sd,RT,key_resp_3.keys,key_resp_3.rt,repeat_practice.thisRepN,repeat_practice.thisTrialN,repeat_practice.thisN,repeat_practice.thisIndex,repeat_practice.ran,key_resp_6.keys,key_resp_6.rt,key_resp_11.keys,key_resp_11.corr,key_resp_11.rt,operation_correct,repeat_if_wrong_prac.thisRepN,repeat_if_wrong_prac.thisTrialN,repeat_if_wrong_prac.thisN,repeat_if_wrong_prac.thisIndex,repeat_if_wrong_prac.ran,span_size_prac.thisRepN,span_size_prac.thisTrialN,span_size_prac.thisN,span_size_prac.thisIndex,span_size_prac.ran,complex_recall_practice,key_resp_9.keys,key_resp_9.corr,key_resp_9.rt,complex_prac_corr,span_recall_prac.thisRepN,span_recall_prac.thisTrialN,span_recall_prac.thisN,span_recall_prac.thisIndex,span_recall_prac.ran,key_resp_10.keys,key_resp_10.rt,key_resp_7.keys,key_resp_7.corr,key_resp_7.rt,repeat_if_wrong.thisRepN,repeat_if_wrong.thisTrialN,repeat_if_wrong.thisN,repeat_if_wrong.thisIndex,repeat_if_wrong.ran,span_size.thisRepN,span_size.thisTrialN,span_size.thisN,span_size.thisIndex,span_size.ran,complex_recall,key_resp_8.keys,key_resp_8.corr,key_resp_8.rt,complex_recall_corr,complex_recall_corrkeys,span_recall.thisRepN,span_recall.thisTrialN,span_recall.thisN,span_recall.thisIndex,span_recall.ran,key_resp_13.keys,key_resp_13.corr,key_resp_13.rt,random_loop.thisRepN,random_loop.thisTrialN,random_loop.thisN,random_loop.thisIndex,random_loop.ran,key_resp_12.keys,key_resp_12.rt
space,15.9907,space,18.2786,space,8.4241,0,0,0,0,1,X V Q F H G B L J M P D K C T S W R N Z,5b50677cc5e0cb0001bda255,47,Kobieta,2022-06-11_09h22.49.766,task,2021.1.4,Win32,60.0024001,6299f149e92ead563fba08ef,62a44277d66d387e4a7f2dc5,,,,,,,,,,,,,,,,,,,,,,,,,,,,,,,,,,,,,,,,,,,,,,,,,,,,,,,,,,,,,,,,,,,,,,,,,,,,,,,,,,,,,,,,,,,,,,,,,,,,,
,,,,,,1,0,1,0,1,X V Q F H G B L J M P D K C T S W R N Z,5b50677cc5e0cb0001bda255,47,Kobieta,2022-06-11_09h22.49.766,task,2021.1.4,Win32,60.0024001,6299f149e92ead563fba08ef,62a44277d66d387e4a7f2dc5,,,,,,,,,,,,,,,,,,,,,,,,,,,,,,,,,,,,,,,,,,,,,,,,,,,,,,,,,,,,,,,,,,,,,,,,,,,,,,,,,,,,,,,,,,,,,,,,,,,,,
,,,,,,,,,,,,5b50677cc5e0cb0001bda255,47,Kobieta,2022-06-11_09h22.49.766,task,2021.1.4,Win32,60.0024001,6299f149e92ead563fba08ef,62a44277d66d387e4a7f2dc5,zp,"[""z"",""p""]","[3.3572000000476834,4.023400000095364,5.569299999952321]",1,ZP,0,0,0,0,1,,,,,,,,,,,,,,,,,,,,,,,,,,,,,,,,,,,,,,,,,,,,,,,,,,,,,,,,,,,,,,,,,,,,,,,,,,,,,,,,,,,,,,,,,,,
,,,,,,0,0,0,0,1,X V Q F H G B L J M P D K C T S W R N Z,5b50677cc5e0cb0001bda255,47,Kobieta,2022-06-11_09h22.49.766,task,2021.1.4,Win32,60.0024001,6299f149e92ead563fba08ef,62a44277d66d387e4a7f2dc5,,,,,,,,,,,,,,,,,,,,,,,,,,,,,,,,,,,,,,,,,,,,,,,,,,,,,,,,,,,,,,,,,,,,,,,,,,,,,,,,,,,,,,,,,,,,,,,,,,,,,
,,,,,,1,0,1,0,1,X V Q F H G B L J M P D K C T S W R N Z,5b50677cc5e0cb0001bda255,47,Kobieta,2022-06-11_09h22.49.766,task,2021.1.4,Win32,60.0024001,6299f149e92ead563fba08ef,62a44277d66d387e4a7f2dc5,,,,,,,,,,,,,,,,,,,,,,,,,,,,,,,,,,,,,,,,,,,,,,,,,,,,,,,,,,,,,,,,,,,,,,,,,,,,,,,,,,,,,,,,,,,,,,,,,,,,,
,,,,,,,,,,,,5b50677cc5e0cb0001bda255,47,Kobieta,2022-06-11_09h22.49.766,task,2021.1.4,Win32,60.0024001,6299f149e92ead563fba08ef,62a44277d66d387e4a7f2dc5,cg,"[""c"",""g""]","[1.8330999999046327,2.2654999999999887,2.947399999856941]",1,CG,1,0,1,0,1,,,,,,,,,,,,,,,,,,,,,,,,,,,,,,,,,,,,,,,,,,,,,,,,,,,,,,,,,,,,,,,,,,,,,,,,,,,,,,,,,,,,,,,,,,,
,,,,,,0,0,0,0,1,X V Q F H G B L J M P D K C T S W R N Z,5b50677cc5e0cb0001bda255,47,Kobieta,2022-06-11_09h22.49.766,task,2021.1.4,Win32,60.0024001,6299f149e92ead563fba08ef,62a44277d66d387e4a7f2dc5,,,,,,,,,,,,,,,,,,,,,,,,,,,,,,,,,,,,,,,,,,,,,,,,,,,,,,,,,,,,,,,,,,,,,,,,,,,,,,,,,,,,,,,,,,,,,,,,,,,,,
,,,,,,1,0,1,0,1,X V Q F H G B L J M P D K C T S W R N Z,5b50677cc5e0cb0001bda255,47,Kobieta,2022-06-11_09h22.49.766,task,2021.1.4,Win32,60.0024001,6299f149e92ead563fba08ef,62a44277d66d387e4a7f2dc5,,,,,,,,,,,,,,,,,,,,,,,,,,,,,,,,,,,,,,,,,,,,,,,,,,,,,,,,,,,,,,,,,,,,,,,,,,,,,,,,,,,,,,,,,,,,,,,,,,,,,
,,,,,,2,0,2,0,1,X V Q F H G B L J M P D K C T S W R N Z,5b50677cc5e0cb0001bda255,47,Kobieta,2022-06-11_09h22.49.766,task,2021.1.4,Win32,60.0024001,6299f149e92ead563fba08ef,62a44277d66d387e4a7f2dc5,,,,,,,,,,,,,,,,,,,,,,,,,,,,,,,,,,,,,,,,,,,,,,,,,,,,,,,,,,,,,,,,,,,,,,,,,,,,,,,,,,,,,,,,,,,,,,,,,,,,,
,,,,,,,,,,,,5b50677cc5e0cb0001bda255,47,Kobieta,2022-06-11_09h22.49.766,task,2021.1.4,Win32,60.0024001,6299f149e92ead563fba08ef,62a44277d66d387e4a7f2dc5,qzv,"[""q"",""z"",""v""]","[1.5457000000476881,1.936200000047691,2.5664000000953706,3.3729000000953704]",1,QZV,2,0,2,0,1,,,,,,,,,,,,,,,,,,,,,,,,,,,,,,,,,,,,,,,,,,,,,,,,,,,,,,,,,,,,,,,,,,,,,,,,,,,,,,,,,,,,,,,,,,,
,,,,,,0,0,0,0,1,X V Q F H G B L J M P D K C T S W R N Z,5b50677cc5e0cb0001bda255,47,Kobieta,2022-06-11_09h22.49.766,task,2021.1.4,Win32,60.0024001,6299f149e92ead563fba08ef,62a44277d66d387e4a7f2dc5,,,,,,,,,,,,,,,,,,,,,,,,,,,,,,,,,,,,,,,,,,,,,,,,,,,,,,,,,,,,,,,,,,,,,,,,,,,,,,,,,,,,,,,,,,,,,,,,,,,,,
,,,,,,1,0,1,0,1,X V Q F H G B L J M P D K C T S W R N Z,5b50677cc5e0cb0001bda255,47,Kobieta,2022-06-11_09h22.49.766,task,2021.1.4,Win32,60.0024001,6299f149e92ead563fba08ef,62a44277d66d387e4a7f2dc5,,,,,,,,,,,,,,,,,,,,,,,,,,,,,,,,,,,,,,,,,,,,,,,,,,,,,,,,,,,,,,,,,,,,,,,,,,,,,,,,,,,,,,,,,,,,,,,,,,,,,
,,,,,,2,0,2,0,1,X V Q F H G B L J M P D K C T S W R N Z,5b50677cc5e0cb0001bda255,47,Kobieta,2022-06-11_09h22.49.766,task,2021.1.4,Win32,60.0024001,6299f149e92ead563fba08ef,62a44277d66d387e4a7f2dc5,,,,,,,,,,,,,,,,,,,,,,,,,,,,,,,,,,,,,,,,,,,,,,,,,,,,,,,,,,,,,,,,,,,,,,,,,,,,,,,,,,,,,,,,,,,,,,,,,,,,,
,,,,,,,,,,,,5b50677cc5e0cb0001bda255,47,Kobieta,2022-06-11_09h22.49.766,task,2021.1.4,Win32,60.0024001,6299f149e92ead563fba08ef,62a44277d66d387e4a7f2dc5,lqb,"[""l"",""q"",""b""]","[1.532700000047683,2.0843999998569416,3.5322000000476805,4.350799999952315]",1,LQB,3,0,3,0,1,,,,,,,,,,,,,,,,,,,,,,,,,,,,,,,,,,,,,,,,,,,,,,,,,,,,,,,,,,,,,,,,,,,,,,,,,,,,,,,,,,,,,,,,,,,
,,,,,,0,0,0,0,1,X V Q F H G B L J M P D K C T S W R N Z,5b50677cc5e0cb0001bda255,47,Kobieta,2022-06-11_09h22.49.766,task,2021.1.4,Win32,60.0024001,6299f149e92ead563fba08ef,62a44277d66d387e4a7f2dc5,,,,,,,,,,,,,,,,,,,,,,,,,,,,,,,,,,,,,,,,,,,,,,,,,,,,,,,,,,,,,,,,,,,,,,,,,,,,,,,,,,,,,,,,,,,,,,,,,,,,,
,,,,,,1,0,1,0,1,X V Q F H G B L J M P D K C T S W R N Z,5b50677cc5e0cb0001bda255,47,Kobieta,2022-06-11_09h22.49.766,task,2021.1.4,Win32,60.0024001,6299f149e92ead563fba08ef,62a44277d66d387e4a7f2dc5,,,,,,,,,,,,,,,,,,,,,,,,,,,,,,,,,,,,,,,,,,,,,,,,,,,,,,,,,,,,,,,,,,,,,,,,,,,,,,,,,,,,,,,,,,,,,,,,,,,,,
,,,,,,2,0,2,0,1,X V Q F H G B L J M P D K C T S W R N Z,5b50677cc5e0cb0001bda255,47,Kobieta,2022-06-11_09h22.49.766,task,2021.1.4,Win32,60.0024001,6299f149e92ead563fba08ef,62a44277d66d387e4a7f2dc5,,,,,,,,,,,,,,,,,,,,,,,,,,,,,,,,,,,,,,,,,,,,,,,,,,,,,,,,,,,,,,,,,,,,,,,,,,,,,,,,,,,,,,,,,,,,,,,,,,,,,
,,,,,,3,0,3,0,1,X V Q F H G B L J M P D K C T S W R N Z,5b50677cc5e0cb0001bda255,47,Kobieta,2022-06-11_09h22.49.766,task,2021.1.4,Win32,60.0024001,6299f149e92ead563fba08ef,62a44277d66d387e4a7f2dc5,,,,,,,,,,,,,,,,,,,,,,,,,,,,,,,,,,,,,,,,,,,,,,,,,,,,,,,,,,,,,,,,,,,,,,,,,,,,,,,,,,,,,,,,,,,,,,,,,,,,,
,,,,,,,,,,,,5b50677cc5e0cb0001bda255,47,Kobieta,2022-06-11_09h22.49.766,task,2021.1.4,Win32,60.0024001,6299f149e92ead563fba08ef,62a44277d66d387e4a7f2dc5,jqvn,"[""j"",""q"",""v"",""n""]","[1.3323999998569462,1.9133999998569493,2.5292999999523147,3.3116999998092638,4.048999999999992]",1,JQVN,4,0,4,0,1,,,,,,,,,,,,,,,,,,,,,,,,,,,,,,,,,,,,,,,,,,,,,,,,,,,,,,,,,,,,,,,,,,,,,,,,,,,,,,,,,,,,,,,,,,,
,,,,,,0,0,0,0,1,X V Q F H G B L J M P D K C T S W R N Z,5b50677cc5e0cb0001bda255,47,Kobieta,2022-06-11_09h22.49.766,task,2021.1.4,Win32,60.0024001,6299f149e92ead563fba08ef,62a44277d66d387e4a7f2dc5,,,,,,,,,,,,,,,,,,,,,,,,,,,,,,,,,,,,,,,,,,,,,,,,,,,,,,,,,,,,,,,,,,,,,,,,,,,,,,,,,,,,,,,,,,,,,,,,,,,,,
,,,,,,1,0,1,0,1,X V Q F H G B L J M P D K C T S W R N Z,5b50677cc5e0cb0001bda255,47,Kobieta,2022-06-11_09h22.49.766,task,2021.1.4,Win32,60.0024001,6299f149e92ead563fba08ef,62a44277d66d387e4a7f2dc5,,,,,,,,,,,,,,,,,,,,,,,,,,,,,,,,,,,,,,,,,,,,,,,,,,,,,,,,,,,,,,,,,,,,,,,,,,,,,,,,,,,,,,,,,,,,,,,,,,,,,
,,,,,,2,0,2,0,1,X V Q F H G B L J M P D K C T S W R N Z,5b50677cc5e0cb0001bda255,47,Kobieta,2022-06-11_09h22.49.766,task,2021.1.4,Win32,60.0024001,6299f149e92ead563fba08ef,62a44277d66d387e4a7f2dc5,,,,,,,,,,,,,,,,,,,,,,,,,,,,,,,,,,,,,,,,,,,,,,,,,,,,,,,,,,,,,,,,,,,,,,,,,,,,,,,,,,,,,,,,,,,,,,,,,,,,,
,,,,,,3,0,3,0,1,X V Q F H G B L J M P D K C T S W R N Z,5b50677cc5e0cb0001bda255,47,Kobieta,2022-06-11_09h22.49.766,task,2021.1.4,Win32,60.0024001,6299f149e92ead563fba08ef,62a44277d66d387e4a7f2dc5,,,,,,,,,,,,,,,,,,,,,,,,,,,,,,,,,,,,,,,,,,,,,,,,,,,,,,,,,,,,,,,,,,,,,,,,,,,,,,,,,,,,,,,,,,,,,,,,,,,,,
,,,,,,,,,,,,5b50677cc5e0cb0001bda255,47,Kobieta,2022-06-11_09h22.49.766,task,2021.1.4,Win32,60.0024001,6299f149e92ead563fba08ef,62a44277d66d387e4a7f2dc5,ccrt,"[""c"",""c"",""r"",""t""]","[1.761499999999998,1.9522999999523165,2.2947000000476834,2.478999999999999,3.24389999985695]",1,CCRT,5,0,5,0,1,,,,,,,,,,,,,,,,,,,,,,,,,,,,,,,,,,,,,,,,,,,,,,,,,,,,,,,,,,,,,,,,,,,,,,,,,,,,,,,,,,,,,,,,,,,
,,,,,,0,0,0,0,1,X V Q F H G B L J M P D K C T S W R N Z,5b50677cc5e0cb0001bda255,47,Kobieta,2022-06-11_09h22.49.766,task,2021.1.4,Win32,60.0024001,6299f149e92ead563fba08ef,62a44277d66d387e4a7f2dc5,,,,,,,,,,,,,,,,,,,,,,,,,,,,,,,,,,,,,,,,,,,,,,,,,,,,,,,,,,,,,,,,,,,,,,,,,,,,,,,,,,,,,,,,,,,,,,,,,,,,,
,,,,,,1,0,1,0,1,X V Q F H G B L J M P D K C T S W R N Z,5b50677cc5e0cb0001bda255,47,Kobieta,2022-06-11_09h22.49.766,task,2021.1.4,Win32,60.0024001,6299f149e92ead563fba08ef,62a44277d66d387e4a7f2dc5,,,,,,,,,,,,,,,,,,,,,,,,,,,,,,,,,,,,,,,,,,,,,,,,,,,,,,,,,,,,,,,,,,,,,,,,,,,,,,,,,,,,,,,,,,,,,,,,,,,,,
,,,,,,2,0,2,0,1,X V Q F H G B L J M P D K C T S W R N Z,5b50677cc5e0cb0001bda255,47,Kobieta,2022-06-11_09h22.49.766,task,2021.1.4,Win32,60.0024001,6299f149e92ead563fba08ef,62a44277d66d387e4a7f2dc5,,,,,,,,,,,,,,,,,,,,,,,,,,,,,,,,,,,,,,,,,,,,,,,,,,,,,,,,,,,,,,,,,,,,,,,,,,,,,,,,,,,,,,,,,,,,,,,,,,,,,
,,,,,,3,0,3,0,1,X V Q F H G B L J M P D K C T S W R N Z,5b50677cc5e0cb0001bda255,47,Kobieta,2022-06-11_09h22.49.766,task,2021.1.4,Win32,60.0024001,6299f149e92ead563fba08ef,62a44277d66d387e4a7f2dc5,,,,,,,,,,,,,,,,,,,,,,,,,,,,,,,,,,,,,,,,,,,,,,,,,,,,,,,,,,,,,,,,,,,,,,,,,,,,,,,,,,,,,,,,,,,,,,,,,,,,,
,,,,,,4,0,4,0,1,X V Q F H G B L J M P D K C T S W R N Z,5b50677cc5e0cb0001bda255,47,Kobieta,2022-06-11_09h22.49.766,task,2021.1.4,Win32,60.0024001,6299f149e92ead563fba08ef,62a44277d66d387e4a7f2dc5,,,,,,,,,,,,,,,,,,,,,,,,,,,,,,,,,,,,,,,,,,,,,,,,,,,,,,,,,,,,,,,,,,,,,,,,,,,,,,,,,,,,,,,,,,,,,,,,,,,,,
,,,,,,,,,,,,5b50677cc5e0cb0001bda255,47,Kobieta,2022-06-11_09h22.49.766,task,2021.1.4,Win32,60.0024001,6299f149e92ead563fba08ef,62a44277d66d387e4a7f2dc5,mtsbs,"[""m"",""t"",""s"",""b"",""s""]","[2.2283000001907283,2.6774000000953606,3.0768000001907296,3.5594000000953656,3.9752000000476784,4.957200000047678]",1,MTSBS,6,0,6,0,1,,,,,,,,,,,,,,,,,,,,,,,,,,,,,,,,,,,,,,,,,,,,,,,,,,,,,,,,,,,,,,,,,,,,,,,,,,,,,,,,,,,,,,,,,,,
,,,,,,0,0,0,0,1,X V Q F H G B L J M P D K C T S W R N Z,5b50677cc5e0cb0001bda255,47,Kobieta,2022-06-11_09h22.49.766,task,2021.1.4,Win32,60.0024001,6299f149e92ead563fba08ef,62a44277d66d387e4a7f2dc5,,,,,,,,,,,,,,,,,,,,,,,,,,,,,,,,,,,,,,,,,,,,,,,,,,,,,,,,,,,,,,,,,,,,,,,,,,,,,,,,,,,,,,,,,,,,,,,,,,,,,
,,,,,,1,0,1,0,1,X V Q F H G B L J M P D K C T S W R N Z,5b50677cc5e0cb0001bda255,47,Kobieta,2022-06-11_09h22.49.766,task,2021.1.4,Win32,60.0024001,6299f149e92ead563fba08ef,62a44277d66d387e4a7f2dc5,,,,,,,,,,,,,,,,,,,,,,,,,,,,,,,,,,,,,,,,,,,,,,,,,,,,,,,,,,,,,,,,,,,,,,,,,,,,,,,,,,,,,,,,,,,,,,,,,,,,,
,,,,,,2,0,2,0,1,X V Q F H G B L J M P D K C T S W R N Z,5b50677cc5e0cb0001bda255,47,Kobieta,2022-06-11_09h22.49.766,task,2021.1.4,Win32,60.0024001,6299f149e92ead563fba08ef,62a44277d66d387e4a7f2dc5,,,,,,,,,,,,,,,,,,,,,,,,,,,,,,,,,,,,,,,,,,,,,,,,,,,,,,,,,,,,,,,,,,,,,,,,,,,,,,,,,,,,,,,,,,,,,,,,,,,,,
,,,,,,3,0,3,0,1,X V Q F H G B L J M P D K C T S W R N Z,5b50677cc5e0cb0001bda255,47,Kobieta,2022-06-11_09h22.49.766,task,2021.1.4,Win32,60.0024001,6299f149e92ead563fba08ef,62a44277d66d387e4a7f2dc5,,,,,,,,,,,,,,,,,,,,,,,,,,,,,,,,,,,,,,,,,,,,,,,,,,,,,,,,,,,,,,,,,,,,,,,,,,,,,,,,,,,,,,,,,,,,,,,,,,,,,
,,,,,,4,0,4,0,1,X V Q F H G B L J M P D K C T S W R N Z,5b50677cc5e0cb0001bda255,47,Kobieta,2022-06-11_09h22.49.766,task,2021.1.4,Win32,60.0024001,6299f149e92ead563fba08ef,62a44277d66d387e4a7f2dc5,,,,,,,,,,,,,,,,,,,,,,,,,,,,,,,,,,,,,,,,,,,,,,,,,,,,,,,,,,,,,,,,,,,,,,,,,,,,,,,,,,,,,,,,,,,,,,,,,,,,,
,,,,,,,,,,,,5b50677cc5e0cb0001bda255,47,Kobieta,2022-06-11_09h22.49.766,task,2021.1.4,Win32,60.0024001,6299f149e92ead563fba08ef,62a44277d66d387e4a7f2dc5,thjvk,"[""t"",""h"",""j"",""v"",""k""]","[1.6327999999523115,2.00010000014305,2.294200000047681,3.231600000143061,3.7265000000000157,4.457999999999998]",1,THJVK,7,0,7,0,1,,,,,,,,,,,,,,,,,,,,,,,,,,,,,,,,,,,,,,,,,,,,,,,,,,,,,,,,,,,,,,,,,,,,,,,,,,,,,,,,,,,,,,,,,,,
,,,,,,0,0,0,0,1,X V Q F H G B L J M P D K C T S W R N Z,5b50677cc5e0cb0001bda255,47,Kobieta,2022-06-11_09h22.49.766,task,2021.1.4,Win32,60.0024001,6299f149e92ead563fba08ef,62a44277d66d387e4a7f2dc5,,,,,,,,,,,,,,,,,,,,,,,,,,,,,,,,,,,,,,,,,,,,,,,,,,,,,,,,,,,,,,,,,,,,,,,,,,,,,,,,,,,,,,,,,,,,,,,,,,,,,
,,,,,,1,0,1,0,1,X V Q F H G B L J M P D K C T S W R N Z,5b50677cc5e0cb0001bda255,47,Kobieta,2022-06-11_09h22.49.766,task,2021.1.4,Win32,60.0024001,6299f149e92ead563fba08ef,62a44277d66d387e4a7f2dc5,,,,,,,,,,,,,,,,,,,,,,,,,,,,,,,,,,,,,,,,,,,,,,,,,,,,,,,,,,,,,,,,,,,,,,,,,,,,,,,,,,,,,,,,,,,,,,,,,,,,,
,,,,,,2,0,2,0,1,X V Q F H G B L J M P D K C T S W R N Z,5b50677cc5e0cb0001bda255,47,Kobieta,2022-06-11_09h22.49.766,task,2021.1.4,Win32,60.0024001,6299f149e92ead563fba08ef,62a44277d66d387e4a7f2dc5,,,,,,,,,,,,,,,,,,,,,,,,,,,,,,,,,,,,,,,,,,,,,,,,,,,,,,,,,,,,,,,,,,,,,,,,,,,,,,,,,,,,,,,,,,,,,,,,,,,,,
,,,,,,3,0,3,0,1,X V Q F H G B L J M P D K C T S W R N Z,5b50677cc5e0cb0001bda255,47,Kobieta,2022-06-11_09h22.49.766,task,2021.1.4,Win32,60.0024001,6299f149e92ead563fba08ef,62a44277d66d387e4a7f2dc5,,,,,,,,,,,,,,,,,,,,,,,,,,,,,,,,,,,,,,,,,,,,,,,,,,,,,,,,,,,,,,,,,,,,,,,,,,,,,,,,,,,,,,,,,,,,,,,,,,,,,
,,,,,,4,0,4,0,1,X V Q F H G B L J M P D K C T S W R N Z,5b50677cc5e0cb0001bda255,47,Kobieta,2022-06-11_09h22.49.766,task,2021.1.4,Win32,60.0024001,6299f149e92ead563fba08ef,62a44277d66d387e4a7f2dc5,,,,,,,,,,,,,,,,,,,,,,,,,,,,,,,,,,,,,,,,,,,,,,,,,,,,,,,,,,,,,,,,,,,,,,,,,,,,,,,,,,,,,,,,,,,,,,,,,,,,,
,,,,,,5,0,5,0,1,X V Q F H G B L J M P D K C T S W R N Z,5b50677cc5e0cb0001bda255,47,Kobieta,2022-06-11_09h22.49.766,task,2021.1.4,Win32,60.0024001,6299f149e92ead563fba08ef,62a44277d66d387e4a7f2dc5,,,,,,,,,,,,,,,,,,,,,,,,,,,,,,,,,,,,,,,,,,,,,,,,,,,,,,,,,,,,,,,,,,,,,,,,,,,,,,,,,,,,,,,,,,,,,,,,,,,,,
,,,,,,,,,,,,5b50677cc5e0cb0001bda255,47,Kobieta,2022-06-11_09h22.49.766,task,2021.1.4,Win32,60.0024001,6299f149e92ead563fba08ef,62a44277d66d387e4a7f2dc5,hrfbtm,"[""h"",""r"",""f"",""b"",""t"",""m""]","[1.805599999904615,2.246799999952316,3.5520999999046126,3.992599999904627,4.400399999856944,4.854699999809242,5.815499999999986]",1,HRFBTM,8,0,8,0,1,,,,,,,,,,,,,,,,,,,,,,,,,,,,,,,,,,,,,,,,,,,,,,,,,,,,,,,,,,,,,,,,,,,,,,,,,,,,,,,,,,,,,,,,,,,
,,,,,,0,0,0,0,1,X V Q F H G B L J M P D K C T S W R N Z,5b50677cc5e0cb0001bda255,47,Kobieta,2022-06-11_09h22.49.766,task,2021.1.4,Win32,60.0024001,6299f149e92ead563fba08ef,62a44277d66d387e4a7f2dc5,,,,,,,,,,,,,,,,,,,,,,,,,,,,,,,,,,,,,,,,,,,,,,,,,,,,,,,,,,,,,,,,,,,,,,,,,,,,,,,,,,,,,,,,,,,,,,,,,,,,,
,,,,,,1,0,1,0,1,X V Q F H G B L J M P D K C T S W R N Z,5b50677cc5e0cb0001bda255,47,Kobieta,2022-06-11_09h22.49.766,task,2021.1.4,Win32,60.0024001,6299f149e92ead563fba08ef,62a44277d66d387e4a7f2dc5,,,,,,,,,,,,,,,,,,,,,,,,,,,,,,,,,,,,,,,,,,,,,,,,,,,,,,,,,,,,,,,,,,,,,,,,,,,,,,,,,,,,,,,,,,,,,,,,,,,,,
,,,,,,2,0,2,0,1,X V Q F H G B L J M P D K C T S W R N Z,5b50677cc5e0cb0001bda255,47,Kobieta,2022-06-11_09h22.49.766,task,2021.1.4,Win32,60.0024001,6299f149e92ead563fba08ef,62a44277d66d387e4a7f2dc5,,,,,,,,,,,,,,,,,,,,,,,,,,,,,,,,,,,,,,,,,,,,,,,,,,,,,,,,,,,,,,,,,,,,,,,,,,,,,,,,,,,,,,,,,,,,,,,,,,,,,
,,,,,,3,0,3,0,1,X V Q F H G B L J M P D K C T S W R N Z,5b50677cc5e0cb0001bda255,47,Kobieta,2022-06-11_09h22.49.766,task,2021.1.4,Win32,60.0024001,6299f149e92ead563fba08ef,62a44277d66d387e4a7f2dc5,,,,,,,,,,,,,,,,,,,,,,,,,,,,,,,,,,,,,,,,,,,,,,,,,,,,,,,,,,,,,,,,,,,,,,,,,,,,,,,,,,,,,,,,,,,,,,,,,,,,,
,,,,,,4,0,4,0,1,X V Q F H G B L J M P D K C T S W R N Z,5b50677cc5e0cb0001bda255,47,Kobieta,2022-06-11_09h22.49.766,task,2021.1.4,Win32,60.0024001,6299f149e92ead563fba08ef,62a44277d66d387e4a7f2dc5,,,,,,,,,,,,,,,,,,,,,,,,,,,,,,,,,,,,,,,,,,,,,,,,,,,,,,,,,,,,,,,,,,,,,,,,,,,,,,,,,,,,,,,,,,,,,,,,,,,,,
,,,,,,5,0,5,0,1,X V Q F H G B L J M P D K C T S W R N Z,5b50677cc5e0cb0001bda255,47,Kobieta,2022-06-11_09h22.49.766,task,2021.1.4,Win32,60.0024001,6299f149e92ead563fba08ef,62a44277d66d387e4a7f2dc5,,,,,,,,,,,,,,,,,,,,,,,,,,,,,,,,,,,,,,,,,,,,,,,,,,,,,,,,,,,,,,,,,,,,,,,,,,,,,,,,,,,,,,,,,,,,,,,,,,,,,
,,,,,,,,,,,,5b50677cc5e0cb0001bda255,47,Kobieta,2022-06-11_09h22.49.766,task,2021.1.4,Win32,60.0024001,6299f149e92ead563fba08ef,62a44277d66d387e4a7f2dc5,fzrnpw,"[""f"",""z"",""r"",""n"",""p"",""w""]","[2.244499999999988,2.6500999999046257,3.324299999952302,3.8085000000000093,4.491000000000014,5.246399999856948,6.035899999856952]",1,FZRNPW,9,0,9,0,1,,,,,,,,,,,,,,,,,,,,,,,,,,,,,,,,,,,,,,,,,,,,,,,,,,,,,,,,,,,,,,,,,,,,,,,,,,,,,,,,,,,,,,,,,,,
,,,,,,0,0,0,0,1,X V Q F H G B L J M P D K C T S W R N Z,5b50677cc5e0cb0001bda255,47,Kobieta,2022-06-11_09h22.49.766,task,2021.1.4,Win32,60.0024001,6299f149e92ead563fba08ef,62a44277d66d387e4a7f2dc5,,,,,,,,,,,,,,,,,,,,,,,,,,,,,,,,,,,,,,,,,,,,,,,,,,,,,,,,,,,,,,,,,,,,,,,,,,,,,,,,,,,,,,,,,,,,,,,,,,,,,
,,,,,,1,0,1,0,1,X V Q F H G B L J M P D K C T S W R N Z,5b50677cc5e0cb0001bda255,47,Kobieta,2022-06-11_09h22.49.766,task,2021.1.4,Win32,60.0024001,6299f149e92ead563fba08ef,62a44277d66d387e4a7f2dc5,,,,,,,,,,,,,,,,,,,,,,,,,,,,,,,,,,,,,,,,,,,,,,,,,,,,,,,,,,,,,,,,,,,,,,,,,,,,,,,,,,,,,,,,,,,,,,,,,,,,,
,,,,,,2,0,2,0,1,X V Q F H G B L J M P D K C T S W R N Z,5b50677cc5e0cb0001bda255,47,Kobieta,2022-06-11_09h22.49.766,task,2021.1.4,Win32,60.0024001,6299f149e92ead563fba08ef,62a44277d66d387e4a7f2dc5,,,,,,,,,,,,,,,,,,,,,,,,,,,,,,,,,,,,,,,,,,,,,,,,,,,,,,,,,,,,,,,,,,,,,,,,,,,,,,,,,,,,,,,,,,,,,,,,,,,,,
,,,,,,3,0,3,0,1,X V Q F H G B L J M P D K C T S W R N Z,5b50677cc5e0cb0001bda255,47,Kobieta,2022-06-11_09h22.49.766,task,2021.1.4,Win32,60.0024001,6299f149e92ead563fba08ef,62a44277d66d387e4a7f2dc5,,,,,,,,,,,,,,,,,,,,,,,,,,,,,,,,,,,,,,,,,,,,,,,,,,,,,,,,,,,,,,,,,,,,,,,,,,,,,,,,,,,,,,,,,,,,,,,,,,,,,
,,,,,,4,0,4,0,1,X V Q F H G B L J M P D K C T S W R N Z,5b50677cc5e0cb0001bda255,47,Kobieta,2022-06-11_09h22.49.766,task,2021.1.4,Win32,60.0024001,6299f149e92ead563fba08ef,62a44277d66d387e4a7f2dc5,,,,,,,,,,,,,,,,,,,,,,,,,,,,,,,,,,,,,,,,,,,,,,,,,,,,,,,,,,,,,,,,,,,,,,,,,,,,,,,,,,,,,,,,,,,,,,,,,,,,,
,,,,,,5,0,5,0,1,X V Q F H G B L J M P D K C T S W R N Z,5b50677cc5e0cb0001bda255,47,Kobieta,2022-06-11_09h22.49.766,task,2021.1.4,Win32,60.0024001,6299f149e92ead563fba08ef,62a44277d66d387e4a7f2dc5,,,,,,,,,,,,,,,,,,,,,,,,,,,,,,,,,,,,,,,,,,,,,,,,,,,,,,,,,,,,,,,,,,,,,,,,,,,,,,,,,,,,,,,,,,,,,,,,,,,,,
,,,,,,6,0,6,0,1,X V Q F H G B L J M P D K C T S W R N Z,5b50677cc5e0cb0001bda255,47,Kobieta,2022-06-11_09h22.49.766,task,2021.1.4,Win32,60.0024001,6299f149e92ead563fba08ef,62a44277d66d387e4a7f2dc5,,,,,,,,,,,,,,,,,,,,,,,,,,,,,,,,,,,,,,,,,,,,,,,,,,,,,,,,,,,,,,,,,,,,,,,,,,,,,,,,,,,,,,,,,,,,,,,,,,,,,
,,,,,,,,,,,,5b50677cc5e0cb0001bda255,47,Kobieta,2022-06-11_09h22.49.766,task,2021.1.4,Win32,60.0024001,6299f149e92ead563fba08ef,62a44277d66d387e4a7f2dc5,xlnsptk,"[""x"",""l"",""n"",""s"",""p"",""t"",""k""]","[2.335499999999996,2.958700000047685,3.3589000000953604,3.9279999999999973,4.466300000190728,4.989900000095361,5.523600000143034,7.1703000001907355]",1,XLNSPTK,10,0,10,0,1,,,,,,,,,,,,,,,,,,,,,,,,,,,,,,,,,,,,,,,,,,,,,,,,,,,,,,,,,,,,,,,,,,,,,,,,,,,,,,,,,,,,,,,,,,,
,,,,,,0,0,0,0,1,X V Q F H G B L J M P D K C T S W R N Z,5b50677cc5e0cb0001bda255,47,Kobieta,2022-06-11_09h22.49.766,task,2021.1.4,Win32,60.0024001,6299f149e92ead563fba08ef,62a44277d66d387e4a7f2dc5,,,,,,,,,,,,,,,,,,,,,,,,,,,,,,,,,,,,,,,,,,,,,,,,,,,,,,,,,,,,,,,,,,,,,,,,,,,,,,,,,,,,,,,,,,,,,,,,,,,,,
,,,,,,1,0,1,0,1,X V Q F H G B L J M P D K C T S W R N Z,5b50677cc5e0cb0001bda255,47,Kobieta,2022-06-11_09h22.49.766,task,2021.1.4,Win32,60.0024001,6299f149e92ead563fba08ef,62a44277d66d387e4a7f2dc5,,,,,,,,,,,,,,,,,,,,,,,,,,,,,,,,,,,,,,,,,,,,,,,,,,,,,,,,,,,,,,,,,,,,,,,,,,,,,,,,,,,,,,,,,,,,,,,,,,,,,
,,,,,,2,0,2,0,1,X V Q F H G B L J M P D K C T S W R N Z,5b50677cc5e0cb0001bda255,47,Kobieta,2022-06-11_09h22.49.766,task,2021.1.4,Win32,60.0024001,6299f149e92ead563fba08ef,62a44277d66d387e4a7f2dc5,,,,,,,,,,,,,,,,,,,,,,,,,,,,,,,,,,,,,,,,,,,,,,,,,,,,,,,,,,,,,,,,,,,,,,,,,,,,,,,,,,,,,,,,,,,,,,,,,,,,,
,,,,,,3,0,3,0,1,X V Q F H G B L J M P D K C T S W R N Z,5b50677cc5e0cb0001bda255,47,Kobieta,2022-06-11_09h22.49.766,task,2021.1.4,Win32,60.0024001,6299f149e92ead563fba08ef,62a44277d66d387e4a7f2dc5,,,,,,,,,,,,,,,,,,,,,,,,,,,,,,,,,,,,,,,,,,,,,,,,,,,,,,,,,,,,,,,,,,,,,,,,,,,,,,,,,,,,,,,,,,,,,,,,,,,,,
,,,,,,4,0,4,0,1,X V Q F H G B L J M P D K C T S W R N Z,5b50677cc5e0cb0001bda255,47,Kobieta,2022-06-11_09h22.49.766,task,2021.1.4,Win32,60.0024001,6299f149e92ead563fba08ef,62a44277d66d387e4a7f2dc5,,,,,,,,,,,,,,,,,,,,,,,,,,,,,,,,,,,,,,,,,,,,,,,,,,,,,,,,,,,,,,,,,,,,,,,,,,,,,,,,,,,,,,,,,,,,,,,,,,,,,
,,,,,,5,0,5,0,1,X V Q F H G B L J M P D K C T S W R N Z,5b50677cc5e0cb0001bda255,47,Kobieta,2022-06-11_09h22.49.766,task,2021.1.4,Win32,60.0024001,6299f149e92ead563fba08ef,62a44277d66d387e4a7f2dc5,,,,,,,,,,,,,,,,,,,,,,,,,,,,,,,,,,,,,,,,,,,,,,,,,,,,,,,,,,,,,,,,,,,,,,,,,,,,,,,,,,,,,,,,,,,,,,,,,,,,,
,,,,,,6,0,6,0,1,X V Q F H G B L J M P D K C T S W R N Z,5b50677cc5e0cb0001bda255,47,Kobieta,2022-06-11_09h22.49.766,task,2021.1.4,Win32,60.0024001,6299f149e92ead563fba08ef,62a44277d66d387e4a7f2dc5,,,,,,,,,,,,,,,,,,,,,,,,,,,,,,,,,,,,,,,,,,,,,,,,,,,,,,,,,,,,,,,,,,,,,,,,,,,,,,,,,,,,,,,,,,,,,,,,,,,,,
,,,,,,,,,,,,5b50677cc5e0cb0001bda255,47,Kobieta,2022-06-11_09h22.49.766,task,2021.1.4,Win32,60.0024001,6299f149e92ead563fba08ef,62a44277d66d387e4a7f2dc5,rrrzdcr,"[""r"",""r"",""r"",""z"",""d"",""c"",""r""]","[5.7254999999999825,6.007200000047675,6.357100000143049,7.739400000095344,8.524700000047687,8.877800000190717,9.23830000019072,10.051300000190736]",0,RRRZCDR,11,0,11,0,1,,,,,,,,,,,,,,,,,,,,,,,,,,,,,,,,,,,,,,,,,,,,,,,,,,,,,,,,,,,,,,,,,,,,,,,,,,,,,,,,,,,,,,,,,,,
,,,,,,0,0,0,0,1,X V Q F H G B L J M P D K C T S W R N Z,5b50677cc5e0cb0001bda255,47,Kobieta,2022-06-11_09h22.49.766,task,2021.1.4,Win32,60.0024001,6299f149e92ead563fba08ef,62a44277d66d387e4a7f2dc5,,,,,,,,,,,,,,,,,,,,,,,,,,,,,,,,,,,,,,,,,,,,,,,,,,,,,,,,,,,,,,,,,,,,,,,,,,,,,,,,,,,,,,,,,,,,,,,,,,,,,
,,,,,,1,0,1,0,1,X V Q F H G B L J M P D K C T S W R N Z,5b50677cc5e0cb0001bda255,47,Kobieta,2022-06-11_09h22.49.766,task,2021.1.4,Win32,60.0024001,6299f149e92ead563fba08ef,62a44277d66d387e4a7f2dc5,,,,,,,,,,,,,,,,,,,,,,,,,,,,,,,,,,,,,,,,,,,,,,,,,,,,,,,,,,,,,,,,,,,,,,,,,,,,,,,,,,,,,,,,,,,,,,,,,,,,,
,,,,,,2,0,2,0,1,X V Q F H G B L J M P D K C T S W R N Z,5b50677cc5e0cb0001bda255,47,Kobieta,2022-06-11_09h22.49.766,task,2021.1.4,Win32,60.0024001,6299f149e92ead563fba08ef,62a44277d66d387e4a7f2dc5,,,,,,,,,,,,,,,,,,,,,,,,,,,,,,,,,,,,,,,,,,,,,,,,,,,,,,,,,,,,,,,,,,,,,,,,,,,,,,,,,,,,,,,,,,,,,,,,,,,,,
,,,,,,3,0,3,0,1,X V Q F H G B L J M P D K C T S W R N Z,5b50677cc5e0cb0001bda255,47,Kobieta,2022-06-11_09h22.49.766,task,2021.1.4,Win32,60.0024001,6299f149e92ead563fba08ef,62a44277d66d387e4a7f2dc5,,,,,,,,,,,,,,,,,,,,,,,,,,,,,,,,,,,,,,,,,,,,,,,,,,,,,,,,,,,,,,,,,,,,,,,,,,,,,,,,,,,,,,,,,,,,,,,,,,,,,
,,,,,,4,0,4,0,1,X V Q F H G B L J M P D K C T S W R N Z,5b50677cc5e0cb0001bda255,47,Kobieta,2022-06-11_09h22.49.766,task,2021.1.4,Win32,60.0024001,6299f149e92ead563fba08ef,62a44277d66d387e4a7f2dc5,,,,,,,,,,,,,,,,,,,,,,,,,,,,,,,,,,,,,,,,,,,,,,,,,,,,,,,,,,,,,,,,,,,,,,,,,,,,,,,,,,,,,,,,,,,,,,,,,,,,,
,,,,,,5,0,5,0,1,X V Q F H G B L J M P D K C T S W R N Z,5b50677cc5e0cb0001bda255,47,Kobieta,2022-06-11_09h22.49.766,task,2021.1.4,Win32,60.0024001,6299f149e92ead563fba08ef,62a44277d66d387e4a7f2dc5,,,,,,,,,,,,,,,,,,,,,,,,,,,,,,,,,,,,,,,,,,,,,,,,,,,,,,,,,,,,,,,,,,,,,,,,,,,,,,,,,,,,,,,,,,,,,,,,,,,,,
,,,,,,6,0,6,0,1,X V Q F H G B L J M P D K C T S W R N Z,5b50677cc5e0cb0001bda255,47,Kobieta,2022-06-11_09h22.49.766,task,2021.1.4,Win32,60.0024001,6299f149e92ead563fba08ef,62a44277d66d387e4a7f2dc5,,,,,,,,,,,,,,,,,,,,,,,,,,,,,,,,,,,,,,,,,,,,,,,,,,,,,,,,,,,,,,,,,,,,,,,,,,,,,,,,,,,,,,,,,,,,,,,,,,,,,
,,,,,,,,,,,,5b50677cc5e0cb0001bda255,47,Kobieta,2022-06-11_09h22.49.766,task,2021.1.4,Win32,60.0024001,6299f149e92ead563fba08ef,62a44277d66d387e4a7f2dc5,shmcrgf,"[""s"",""h"",""m"",""c"",""r"",""g"",""f""]","[2.2297000000477,2.901299999952329,3.2319000000953793,3.6640000000000157,4.1825000000000045,5.406799999952341,6.928099999904646,7.818599999904649]",1,SHMCRGF,12,0,12,0,1,,,,,,,,,,,,,,,,,,,,,,,,,,,,,,,,,,,,,,,,,,,,,,,,,,,,,,,,,,,,,,,,,,,,,,,,,,,,,,,,,,,,,,,,,,,
,,,,,,0,0,0,0,1,X V Q F H G B L J M P D K C T S W R N Z,5b50677cc5e0cb0001bda255,47,Kobieta,2022-06-11_09h22.49.766,task,2021.1.4,Win32,60.0024001,6299f149e92ead563fba08ef,62a44277d66d387e4a7f2dc5,,,,,,,,,,,,,,,,,,,,,,,,,,,,,,,,,,,,,,,,,,,,,,,,,,,,,,,,,,,,,,,,,,,,,,,,,,,,,,,,,,,,,,,,,,,,,,,,,,,,,
,,,,,,1,0,1,0,1,X V Q F H G B L J M P D K C T S W R N Z,5b50677cc5e0cb0001bda255,47,Kobieta,2022-06-11_09h22.49.766,task,2021.1.4,Win32,60.0024001,6299f149e92ead563fba08ef,62a44277d66d387e4a7f2dc5,,,,,,,,,,,,,,,,,,,,,,,,,,,,,,,,,,,,,,,,,,,,,,,,,,,,,,,,,,,,,,,,,,,,,,,,,,,,,,,,,,,,,,,,,,,,,,,,,,,,,
,,,,,,2,0,2,0,1,X V Q F H G B L J M P D K C T S W R N Z,5b50677cc5e0cb0001bda255,47,Kobieta,2022-06-11_09h22.49.766,task,2021.1.4,Win32,60.0024001,6299f149e92ead563fba08ef,62a44277d66d387e4a7f2dc5,,,,,,,,,,,,,,,,,,,,,,,,,,,,,,,,,,,,,,,,,,,,,,,,,,,,,,,,,,,,,,,,,,,,,,,,,,,,,,,,,,,,,,,,,,,,,,,,,,,,,
,,,,,,3,0,3,0,1,X V Q F H G B L J M P D K C T S W R N Z,5b50677cc5e0cb0001bda255,47,Kobieta,2022-06-11_09h22.49.766,task,2021.1.4,Win32,60.0024001,6299f149e92ead563fba08ef,62a44277d66d387e4a7f2dc5,,,,,,,,,,,,,,,,,,,,,,,,,,,,,,,,,,,,,,,,,,,,,,,,,,,,,,,,,,,,,,,,,,,,,,,,,,,,,,,,,,,,,,,,,,,,,,,,,,,,,
,,,,,,4,0,4,0,1,X V Q F H G B L J M P D K C T S W R N Z,5b50677cc5e0cb0001bda255,47,Kobieta,2022-06-11_09h22.49.766,task,2021.1.4,Win32,60.0024001,6299f149e92ead563fba08ef,62a44277d66d387e4a7f2dc5,,,,,,,,,,,,,,,,,,,,,,,,,,,,,,,,,,,,,,,,,,,,,,,,,,,,,,,,,,,,,,,,,,,,,,,,,,,,,,,,,,,,,,,,,,,,,,,,,,,,,
,,,,,,5,0,5,0,1,X V Q F H G B L J M P D K C T S W R N Z,5b50677cc5e0cb0001bda255,47,Kobieta,2022-06-11_09h22.49.766,task,2021.1.4,Win32,60.0024001,6299f149e92ead563fba08ef,62a44277d66d387e4a7f2dc5,,,,,,,,,,,,,,,,,,,,,,,,,,,,,,,,,,,,,,,,,,,,,,,,,,,,,,,,,,,,,,,,,,,,,,,,,,,,,,,,,,,,,,,,,,,,,,,,,,,,,
,,,,,,6,0,6,0,1,X V Q F H G B L J M P D K C T S W R N Z,5b50677cc5e0cb0001bda255,47,Kobieta,2022-06-11_09h22.49.766,task,2021.1.4,Win32,60.0024001,6299f149e92ead563fba08ef,62a44277d66d387e4a7f2dc5,,,,,,,,,,,,,,,,,,,,,,,,,,,,,,,,,,,,,,,,,,,,,,,,,,,,,,,,,,,,,,,,,,,,,,,,,,,,,,,,,,,,,,,,,,,,,,,,,,,,,
,,,,,,7,0,7,0,1,X V Q F H G B L J M P D K C T S W R N Z,5b50677cc5e0cb0001bda255,47,Kobieta,2022-06-11_09h22.49.766,task,2021.1.4,Win32,60.0024001,6299f149e92ead563fba08ef,62a44277d66d387e4a7f2dc5,,,,,,,,,,,,,,,,,,,,,,,,,,,,,,,,,,,,,,,,,,,,,,,,,,,,,,,,,,,,,,,,,,,,,,,,,,,,,,,,,,,,,,,,,,,,,,,,,,,,,
,,,,,,,,,,,,5b50677cc5e0cb0001bda255,47,Kobieta,2022-06-11_09h22.49.766,task,2021.1.4,Win32,60.0024001,6299f149e92ead563fba08ef,62a44277d66d387e4a7f2dc5,lqdhsldj,"[""l"",""q"",""d"",""h"",""s"",""l"",""d"",""j""]","[1.2822000000476805,2.238799999952306,2.7949999999999875,3.401999999999987,4.314499999999981,5.518900000095357,6.175900000095368,7.025700000047692,7.7962000000476905]",0,LQDHSLJL,13,0,13,0,1,,,,,,,,,,,,,,,,,,,,,,,,,,,,,,,,,,,,,,,,,,,,,,,,,,,,,,,,,,,,,,,,,,,,,,,,,,,,,,,,,,,,,,,,,,,
,,,,,,0,0,0,0,1,X V Q F H G B L J M P D K C T S W R N Z,5b50677cc5e0cb0001bda255,47,Kobieta,2022-06-11_09h22.49.766,task,2021.1.4,Win32,60.0024001,6299f149e92ead563fba08ef,62a44277d66d387e4a7f2dc5,,,,,,,,,,,,,,,,,,,,,,,,,,,,,,,,,,,,,,,,,,,,,,,,,,,,,,,,,,,,,,,,,,,,,,,,,,,,,,,,,,,,,,,,,,,,,,,,,,,,,
,,,,,,1,0,1,0,1,X V Q F H G B L J M P D K C T S W R N Z,5b50677cc5e0cb0001bda255,47,Kobieta,2022-06-11_09h22.49.766,task,2021.1.4,Win32,60.0024001,6299f149e92ead563fba08ef,62a44277d66d387e4a7f2dc5,,,,,,,,,,,,,,,,,,,,,,,,,,,,,,,,,,,,,,,,,,,,,,,,,,,,,,,,,,,,,,,,,,,,,,,,,,,,,,,,,,,,,,,,,,,,,,,,,,,,,
,,,,,,2,0,2,0,1,X V Q F H G B L J M P D K C T S W R N Z,5b50677cc5e0cb0001bda255,47,Kobieta,2022-06-11_09h22.49.766,task,2021.1.4,Win32,60.0024001,6299f149e92ead563fba08ef,62a44277d66d387e4a7f2dc5,,,,,,,,,,,,,,,,,,,,,,,,,,,,,,,,,,,,,,,,,,,,,,,,,,,,,,,,,,,,,,,,,,,,,,,,,,,,,,,,,,,,,,,,,,,,,,,,,,,,,
,,,,,,3,0,3,0,1,X V Q F H G B L J M P D K C T S W R N Z,5b50677cc5e0cb0001bda255,47,Kobieta,2022-06-11_09h22.49.766,task,2021.1.4,Win32,60.0024001,6299f149e92ead563fba08ef,62a44277d66d387e4a7f2dc5,,,,,,,,,,,,,,,,,,,,,,,,,,,,,,,,,,,,,,,,,,,,,,,,,,,,,,,,,,,,,,,,,,,,,,,,,,,,,,,,,,,,,,,,,,,,,,,,,,,,,
,,,,,,4,0,4,0,1,X V Q F H G B L J M P D K C T S W R N Z,5b50677cc5e0cb0001bda255,47,Kobieta,2022-06-11_09h22.49.766,task,2021.1.4,Win32,60.0024001,6299f149e92ead563fba08ef,62a44277d66d387e4a7f2dc5,,,,,,,,,,,,,,,,,,,,,,,,,,,,,,,,,,,,,,,,,,,,,,,,,,,,,,,,,,,,,,,,,,,,,,,,,,,,,,,,,,,,,,,,,,,,,,,,,,,,,
,,,,,,5,0,5,0,1,X V Q F H G B L J M P D K C T S W R N Z,5b50677cc5e0cb0001bda255,47,Kobieta,2022-06-11_09h22.49.766,task,2021.1.4,Win32,60.0024001,6299f149e92ead563fba08ef,62a44277d66d387e4a7f2dc5,,,,,,,,,,,,,,,,,,,,,,,,,,,,,,,,,,,,,,,,,,,,,,,,,,,,,,,,,,,,,,,,,,,,,,,,,,,,,,,,,,,,,,,,,,,,,,,,,,,,,
,,,,,,6,0,6,0,1,X V Q F H G B L J M P D K C T S W R N Z,5b50677cc5e0cb0001bda255,47,Kobieta,2022-06-11_09h22.49.766,task,2021.1.4,Win32,60.0024001,6299f149e92ead563fba08ef,62a44277d66d387e4a7f2dc5,,,,,,,,,,,,,,,,,,,,,,,,,,,,,,,,,,,,,,,,,,,,,,,,,,,,,,,,,,,,,,,,,,,,,,,,,,,,,,,,,,,,,,,,,,,,,,,,,,,,,
,,,,,,7,0,7,0,1,X V Q F H G B L J M P D K C T S W R N Z,5b50677cc5e0cb0001bda255,47,Kobieta,2022-06-11_09h22.49.766,task,2021.1.4,Win32,60.0024001,6299f149e92ead563fba08ef,62a44277d66d387e4a7f2dc5,,,,,,,,,,,,,,,,,,,,,,,,,,,,,,,,,,,,,,,,,,,,,,,,,,,,,,,,,,,,,,,,,,,,,,,,,,,,,,,,,,,,,,,,,,,,,,,,,,,,,
,,,,,,,,,,,,5b50677cc5e0cb0001bda255,47,Kobieta,2022-06-11_09h22.49.766,task,2021.1.4,Win32,60.0024001,6299f149e92ead563fba08ef,62a44277d66d387e4a7f2dc5,ldhpwkl,"[""l"",""d"",""h"",""p"",""w"",""k"",""l""]","[1.4063999998569443,2.020699999809267,2.549899999856933,3.0501999998092515,3.613999999999976,4.313699999809245,4.678899999856924,5.3105999999046105]",0,DLHPWKMX,14,0,14,0,1,,,,,,,,,,,,,,,,,,,,,,,,,,,,,,,,,,,,,,,,,,,,,,,,,,,,,,,,,,,,,,,,,,,,,,,,,,,,,,,,,,,,,,,,,,,
,,,,,,0,0,0,0,1,X V Q F H G B L J M P D K C T S W R N Z,5b50677cc5e0cb0001bda255,47,Kobieta,2022-06-11_09h22.49.766,task,2021.1.4,Win32,60.0024001,6299f149e92ead563fba08ef,62a44277d66d387e4a7f2dc5,,,,,,,,,,,,,,,,,,,,,,,,,,,,,,,,,,,,,,,,,,,,,,,,,,,,,,,,,,,,,,,,,,,,,,,,,,,,,,,,,,,,,,,,,,,,,,,,,,,,,
,,,,,,1,0,1,0,1,X V Q F H G B L J M P D K C T S W R N Z,5b50677cc5e0cb0001bda255,47,Kobieta,2022-06-11_09h22.49.766,task,2021.1.4,Win32,60.0024001,6299f149e92ead563fba08ef,62a44277d66d387e4a7f2dc5,,,,,,,,,,,,,,,,,,,,,,,,,,,,,,,,,,,,,,,,,,,,,,,,,,,,,,,,,,,,,,,,,,,,,,,,,,,,,,,,,,,,,,,,,,,,,,,,,,,,,
,,,,,,2,0,2,0,1,X V Q F H G B L J M P D K C T S W R N Z,5b50677cc5e0cb0001bda255,47,Kobieta,2022-06-11_09h22.49.766,task,2021.1.4,Win32,60.0024001,6299f149e92ead563fba08ef,62a44277d66d387e4a7f2dc5,,,,,,,,,,,,,,,,,,,,,,,,,,,,,,,,,,,,,,,,,,,,,,,,,,,,,,,,,,,,,,,,,,,,,,,,,,,,,,,,,,,,,,,,,,,,,,,,,,,,,
,,,,,,3,0,3,0,1,X V Q F H G B L J M P D K C T S W R N Z,5b50677cc5e0cb0001bda255,47,Kobieta,2022-06-11_09h22.49.766,task,2021.1.4,Win32,60.0024001,6299f149e92ead563fba08ef,62a44277d66d387e4a7f2dc5,,,,,,,,,,,,,,,,,,,,,,,,,,,,,,,,,,,,,,,,,,,,,,,,,,,,,,,,,,,,,,,,,,,,,,,,,,,,,,,,,,,,,,,,,,,,,,,,,,,,,
,,,,,,4,0,4,0,1,X V Q F H G B L J M P D K C T S W R N Z,5b50677cc5e0cb0001bda255,47,Kobieta,2022-06-11_09h22.49.766,task,2021.1.4,Win32,60.0024001,6299f149e92ead563fba08ef,62a44277d66d387e4a7f2dc5,,,,,,,,,,,,,,,,,,,,,,,,,,,,,,,,,,,,,,,,,,,,,,,,,,,,,,,,,,,,,,,,,,,,,,,,,,,,,,,,,,,,,,,,,,,,,,,,,,,,,
,,,,,,5,0,5,0,1,X V Q F H G B L J M P D K C T S W R N Z,5b50677cc5e0cb0001bda255,47,Kobieta,2022-06-11_09h22.49.766,task,2021.1.4,Win32,60.0024001,6299f149e92ead563fba08ef,62a44277d66d387e4a7f2dc5,,,,,,,,,,,,,,,,,,,,,,,,,,,,,,,,,,,,,,,,,,,,,,,,,,,,,,,,,,,,,,,,,,,,,,,,,,,,,,,,,,,,,,,,,,,,,,,,,,,,,
,,,,,,6,0,6,0,1,X V Q F H G B L J M P D K C T S W R N Z,5b50677cc5e0cb0001bda255,47,Kobieta,2022-06-11_09h22.49.766,task,2021.1.4,Win32,60.0024001,6299f149e92ead563fba08ef,62a44277d66d387e4a7f2dc5,,,,,,,,,,,,,,,,,,,,,,,,,,,,,,,,,,,,,,,,,,,,,,,,,,,,,,,,,,,,,,,,,,,,,,,,,,,,,,,,,,,,,,,,,,,,,,,,,,,,,
,,,,,,7,0,7,0,1,X V Q F H G B L J M P D K C T S W R N Z,5b50677cc5e0cb0001bda255,47,Kobieta,2022-06-11_09h22.49.766,task,2021.1.4,Win32,60.0024001,6299f149e92ead563fba08ef,62a44277d66d387e4a7f2dc5,,,,,,,,,,,,,,,,,,,,,,,,,,,,,,,,,,,,,,,,,,,,,,,,,,,,,,,,,,,,,,,,,,,,,,,,,,,,,,,,,,,,,,,,,,,,,,,,,,,,,
,,,,,,,,,,,,5b50677cc5e0cb0001bda255,47,Kobieta,2022-06-11_09h22.49.766,task,2021.1.4,Win32,60.0024001,6299f149e92ead563fba08ef,62a44277d66d387e4a7f2dc5,vngspwk,"[""v"",""n"",""g"",""s"",""p"",""w"",""k""]","[0.7952000000477142,1.283400000095412,1.7170000000000414,2.21579999995231,3.164299999952334,3.6970000000000027,4.42929999995232,5.2442000000477265]",0,VNGSKZXG,15,0,15,0,1,,,,,,,,,,,,,,,,,,,,,,,,,,,,,,,,,,,,,,,,,,,,,,,,,,,,,,,,,,,,,,,,,,,,,,,,,,,,,,,,,,,,,,,,,,,
,,,,,,,,,,,,5b50677cc5e0cb0001bda255,47,Kobieta,2022-06-11_09h22.49.766,task,2021.1.4,Win32,60.0024001,6299f149e92ead563fba08ef,62a44277d66d387e4a7f2dc5,,,,,,,,,,,space,10.2892,8,"[""8""]",1,[4.106900000095379],[4.106900000095379],0,0,0,8,1,Practice,9,(3x3) - 1,8,,,,,,,,,,,,,,,,,,,,,,,,,,,,,,,,,,,,,,,,,,,,,,,,,,,,,,,,,,,,,,,,,,,,,,,,,,,
,,,,,,,,,,,,5b50677cc5e0cb0001bda255,47,Kobieta,2022-06-11_09h22.49.766,task,2021.1.4,Win32,60.0024001,6299f149e92ead563fba08ef,62a44277d66d387e4a7f2dc5,,,,,,,,,,,,,2,"[""2""]",1,[2.6747000000477215],"[4.106900000095379,2.6747000000477215]",0,1,1,2,1,Practice,3,(4x4) - 14,2,,,,,,,,,,,,,,,,,,,,,,,,,,,,,,,,,,,,,,,,,,,,,,,,,,,,,,,,,,,,,,,,,,,,,,,,,,,
,,,,,,,,,,,,5b50677cc5e0cb0001bda255,47,Kobieta,2022-06-11_09h22.49.766,task,2021.1.4,Win32,60.0024001,6299f149e92ead563fba08ef,62a44277d66d387e4a7f2dc5,,,,,,,,,,,,,0,"[""0""]",1,[1.7788999998569466],"[4.106900000095379,2.6747000000477215,1.7788999998569466]",0,2,2,0,1,Practice,1,(3x3) -  9,0,,,,,,,,,,,,,,,,,,,,,,,,,,,,,,,,,,,,,,,,,,,,,,,,,,,,,,,,,,,,,,,,,,,,,,,,,,,
,,,,,,,,,,,,5b50677cc5e0cb0001bda255,47,Kobieta,2022-06-11_09h22.49.766,task,2021.1.4,Win32,60.0024001,6299f149e92ead563fba08ef,62a44277d66d387e4a7f2dc5,,,,,,,,,,,,,9,"[""9""]",1,[2.8429000000953693],"[4.106900000095379,2.6747000000477215,1.7788999998569466,2.8429000000953693]",0,3,3,9,1,Practice,10,(20/2) - 1,9,,,,,,,,,,,,,,,,,,,,,,,,,,,,,,,,,,,,,,,,,,,,,,,,,,,,,,,,,,,,,,,,,,,,,,,,,,,
,,,,,,,,,,,,5b50677cc5e0cb0001bda255,47,Kobieta,2022-06-11_09h22.49.766,task,2021.1.4,Win32,60.0024001,6299f149e92ead563fba08ef,62a44277d66d387e4a7f2dc5,,,,,,,,,,,,,5,"[""5""]",1,[2.4622000000476874],"[4.106900000095379,2.6747000000477215,1.7788999998569466,2.8429000000953693,2.4622000000476874]",0,4,4,5,1,Practice,6,(4/2) + 3,5,,,,,,,,,,,,,,,,,,,,,,,,,,,,,,,,,,,,,,,,,,,,,,,,,,,,,,,,,,,,,,,,,,,,,,,,,,,
,,,,,,,,,,,,5b50677cc5e0cb0001bda255,47,Kobieta,2022-06-11_09h22.49.766,task,2021.1.4,Win32,60.0024001,6299f149e92ead563fba08ef,62a44277d66d387e4a7f2dc5,,,,,,,,,,,,,7,"[""7""]",1,[3.6500999999046826],"[4.106900000095379,2.6747000000477215,1.7788999998569466,2.8429000000953693,2.4622000000476874,3.6500999999046826]",0,5,5,7,1,Practice,8,(5x5) - 18,7,,,,,,,,,,,,,,,,,,,,,,,,,,,,,,,,,,,,,,,,,,,,,,,,,,,,,,,,,,,,,,,,,,,,,,,,,,,
,,,,,,,,,,,,5b50677cc5e0cb0001bda255,47,Kobieta,2022-06-11_09h22.49.766,task,2021.1.4,Win32,60.0024001,6299f149e92ead563fba08ef,62a44277d66d387e4a7f2dc5,,,,,,,,,,,,,1,"[""1""]",1,[2.1871000001430616],"[4.106900000095379,2.6747000000477215,1.7788999998569466,2.8429000000953693,2.4622000000476874,3.6500999999046826,2.1871000001430616]",0,6,6,1,1,Practice,2,(4x4) - 15,1,,,,,,,,,,,,,,,,,,,,,,,,,,,,,,,,,,,,,,,,,,,,,,,,,,,,,,,,,,,,,,,,,,,,,,,,,,,
,,,,,,,,,,,,5b50677cc5e0cb0001bda255,47,Kobieta,2022-06-11_09h22.49.766,task,2021.1.4,Win32,60.0024001,6299f149e92ead563fba08ef,62a44277d66d387e4a7f2dc5,,,,,,,,,,,,,4,"[""4""]",1,[3.7460000000000377],"[4.106900000095379,2.6747000000477215,1.7788999998569466,2.8429000000953693,2.4622000000476874,3.6500999999046826,2.1871000001430616,3.7460000000000377]",0,7,7,4,1,Practice,5,(2x6) - 8,4,,,,,,,,,,,,,,,,,,,,,,,,,,,,,,,,,,,,,,,,,,,,,,,,,,,,,,,,,,,,,,,,,,,,,,,,,,,
,,,,,,,,,,,,5b50677cc5e0cb0001bda255,47,Kobieta,2022-06-11_09h22.49.766,task,2021.1.4,Win32,60.0024001,6299f149e92ead563fba08ef,62a44277d66d387e4a7f2dc5,,,,,,,,,,,,,3,"[""3""]",1,[2.0658999998569243],"[4.106900000095379,2.6747000000477215,1.7788999998569466,2.8429000000953693,2.4622000000476874,3.6500999999046826,2.1871000001430616,3.7460000000000377,2.0658999998569243]",0,8,8,3,1,Practice,4,(8/4) + 1,3,,,,,,,,,,,,,,,,,,,,,,,,,,,,,,,,,,,,,,,,,,,,,,,,,,,,,,,,,,,,,,,,,,,,,,,,,,,
,,,,,,,,,,,,5b50677cc5e0cb0001bda255,47,Kobieta,2022-06-11_09h22.49.766,task,2021.1.4,Win32,60.0024001,6299f149e92ead563fba08ef,62a44277d66d387e4a7f2dc5,,,,,,,,,,,,,6,"[""6""]",1,[1.9115000000000464],"[4.106900000095379,2.6747000000477215,1.7788999998569466,2.8429000000953693,2.4622000000476874,3.6500999999046826,2.1871000001430616,3.7460000000000377,2.0658999998569243,1.9115000000000464]",0,9,9,6,1,Practice,7,(25/5) + 1,6,,,,,,,,,,,,,,,,,,,,,,,,,,,,,,,,,,,,,,,,,,,,,,,,,,,,,,,,,,,,,,,,,,,,,,,,,,,
,,,,,,,,,,,,5b50677cc5e0cb0001bda255,47,Kobieta,2022-06-11_09h22.49.766,task,2021.1.4,Win32,60.0024001,6299f149e92ead563fba08ef,62a44277d66d387e4a7f2dc5,,,,,,,,,,,,,,,,,,,,,,,,,,,1,27.4262,1.828413333,14.52866329,0.984163377,4.367554846,space,14.8867,0,0,0,0,1,,,,,,,,,,,,,,,,,,,,,,,,,,,,,,,,,,,,,,,,,,,,,,,,,,,,,,,,,,,,,,
,,,,,,,,,,,,5b50677cc5e0cb0001bda255,47,Kobieta,2022-06-11_09h22.49.766,task,2021.1.4,Win32,60.0024001,6299f149e92ead563fba08ef,62a44277d66d387e4a7f2dc5,,,,,,,,,,,,,2,,,,,,,,,,Practice,3,(4x4) - 14,2,,,,,,,,,,,,,,space,23.6913,"[""2""]",1,[3.8254000000953283],1,0,0,0,2,1,,,,,,,,,,,,,,,,,,,,,,,,,,,,,,,,,,,,,,,,,,,,,,,,,,,
,,,,,,,,,,,X V Q F H G B L J M P D K C T S W R N Z,5b50677cc5e0cb0001bda255,47,Kobieta,2022-06-11_09h22.49.766,task,2021.1.4,Win32,60.0024001,6299f149e92ead563fba08ef,62a44277d66d387e4a7f2dc5,,,,,,,,,,,,,,,,,,,,,,,,,,,,,,,,,,,,,,,,,,,,,,,,,,,0,0,0,0,1,,,,,,,,,,,,,,,,,,,,,,,,,,,,,,,,,,,,,,,,,,,,,,
,,,,,,,,,,,,5b50677cc5e0cb0001bda255,47,Kobieta,2022-06-11_09h22.49.766,task,2021.1.4,Win32,60.0024001,6299f149e92ead563fba08ef,62a44277d66d387e4a7f2dc5,,,,,,,,,,,,,,,,,,,,,,,Practice,1,(3x3) -  9,0,,,,,,,,,,,,,,,,,0,,0,0,0,0,0,1,,,,,,,,,,,,,,,,,,,,,,,,,,,,,,,,,,,,,,,,,,,,,,,,,,,
,,,,,,,,,,,,5b50677cc5e0cb0001bda255,47,Kobieta,2022-06-11_09h22.49.766,task,2021.1.4,Win32,60.0024001,6299f149e92ead563fba08ef,62a44277d66d387e4a7f2dc5,,,,,,,,,,,,,6,,,,,,,,,,Practice,7,(25/5) + 1,6,,,,,,,,,,,,,,,,"[""6""]",1,[1.7624000000953401],1,0,1,1,6,1,,,,,,,,,,,,,,,,,,,,,,,,,,,,,,,,,,,,,,,,,,,,,,,,,,,
,,,,,,,,,,,X V Q F H G B L J M P D K C T S W R N Z,5b50677cc5e0cb0001bda255,47,Kobieta,2022-06-11_09h22.49.766,task,2021.1.4,Win32,60.0024001,6299f149e92ead563fba08ef,62a44277d66d387e4a7f2dc5,,,,,,,,,,,,,,,,,,,,,,,,,,,,,,,,,,,,,,,,,,,,,,,,,,,1,0,1,0,1,,,,,,,,,,,,,,,,,,,,,,,,,,,,,,,,,,,,,,,,,,,,,,
,,,,,,,,,,,,5b50677cc5e0cb0001bda255,47,Kobieta,2022-06-11_09h22.49.766,task,2021.1.4,Win32,60.0024001,6299f149e92ead563fba08ef,62a44277d66d387e4a7f2dc5,,,,,,,,,,,,,,,,,,,,,,,,,,,,,,,,,,,,,,,,,,,,,,,,,,,,,,,,zd,"[""z"",""d""]",0,"[4.495599999904641,4.995099999904596,5.84699999999998]",1,0,0,0,0,1,,,,,,,,,,,,,,,,,,,,,,,,,,,,,,,,,,,,
,,,,,,,,,,,,5b50677cc5e0cb0001bda255,47,Kobieta,2022-06-11_09h22.49.766,task,2021.1.4,Win32,60.0024001,6299f149e92ead563fba08ef,62a44277d66d387e4a7f2dc5,,,,,,,,,,,,,2,,,,,,,,,,Practice,3,(4x4) - 14,2,,,,,,,,,,,,,,,,"[""2""]",1,[2.2613999998569625],1,0,0,0,2,1,,,,,,,,,,,,,,,,,,,,,,,,,,,,,,,,,,,,,,,,,,,,,,,,,,,
,,,,,,,,,,,X V Q F H G B L J M P D K C T S W R N Z,5b50677cc5e0cb0001bda255,47,Kobieta,2022-06-11_09h22.49.766,task,2021.1.4,Win32,60.0024001,6299f149e92ead563fba08ef,62a44277d66d387e4a7f2dc5,,,,,,,,,,,,,,,,,,,,,,,,,,,,,,,,,,,,,,,,,,,,,,,,,,,0,0,0,0,1,,,,,,,,,,,,,,,,,,,,,,,,,,,,,,,,,,,,,,,,,,,,,,
,,,,,,,,,,,,5b50677cc5e0cb0001bda255,47,Kobieta,2022-06-11_09h22.49.766,task,2021.1.4,Win32,60.0024001,6299f149e92ead563fba08ef,62a44277d66d387e4a7f2dc5,,,,,,,,,,,,,3,,,,,,,,,,Practice,4,(8/4) + 1,3,,,,,,,,,,,,,,,,"[""3""]",1,[2.782100000143089],1,0,0,0,3,1,,,,,,,,,,,,,,,,,,,,,,,,,,,,,,,,,,,,,,,,,,,,,,,,,,,
,,,,,,,,,,,X V Q F H G B L J M P D K C T S W R N Z,5b50677cc5e0cb0001bda255,47,Kobieta,2022-06-11_09h22.49.766,task,2021.1.4,Win32,60.0024001,6299f149e92ead563fba08ef,62a44277d66d387e4a7f2dc5,,,,,,,,,,,,,,,,,,,,,,,,,,,,,,,,,,,,,,,,,,,,,,,,,,,1,0,1,0,1,,,,,,,,,,,,,,,,,,,,,,,,,,,,,,,,,,,,,,,,,,,,,,
,,,,,,,,,,,,5b50677cc5e0cb0001bda255,47,Kobieta,2022-06-11_09h22.49.766,task,2021.1.4,Win32,60.0024001,6299f149e92ead563fba08ef,62a44277d66d387e4a7f2dc5,,,,,,,,,,,,,,,,,,,,,,,,,,,,,,,,,,,,,,,,,,,,,,,,,,,,,,,,xj,"[""x"",""j""]",0,"[2.3487000000476996,2.6984000000953756,3.4700000000000273]",1,1,0,1,0,1,,,,,,,,,,,,,,,,,,,,,,,,,,,,,,,,,,,,
,,,,,,,,,,,,5b50677cc5e0cb0001bda255,47,Kobieta,2022-06-11_09h22.49.766,task,2021.1.4,Win32,60.0024001,6299f149e92ead563fba08ef,62a44277d66d387e4a7f2dc5,,,,,,,,,,,,,7,,,,,,,,,,Practice,8,(5x5) - 18,7,,,,,,,,,,,,,,,,"[""7""]",1,[3.2797999999523313],1,0,0,0,7,1,,,,,,,,,,,,,,,,,,,,,,,,,,,,,,,,,,,,,,,,,,,,,,,,,,,
,,,,,,,,,,,X V Q F H G B L J M P D K C T S W R N Z,5b50677cc5e0cb0001bda255,47,Kobieta,2022-06-11_09h22.49.766,task,2021.1.4,Win32,60.0024001,6299f149e92ead563fba08ef,62a44277d66d387e4a7f2dc5,,,,,,,,,,,,,,,,,,,,,,,,,,,,,,,,,,,,,,,,,,,,,,,,,,,0,0,0,0,1,,,,,,,,,,,,,,,,,,,,,,,,,,,,,,,,,,,,,,,,,,,,,,
,,,,,,,,,,,,5b50677cc5e0cb0001bda255,47,Kobieta,2022-06-11_09h22.49.766,task,2021.1.4,Win32,60.0024001,6299f149e92ead563fba08ef,62a44277d66d387e4a7f2dc5,,,,,,,,,,,,,7,,,,,,,,,,Practice,8,(5x5) - 18,7,,,,,,,,,,,,,,,,"[""7""]",1,[2.997100000143007],1,0,0,0,7,1,,,,,,,,,,,,,,,,,,,,,,,,,,,,,,,,,,,,,,,,,,,,,,,,,,,
,,,,,,,,,,,X V Q F H G B L J M P D K C T S W R N Z,5b50677cc5e0cb0001bda255,47,Kobieta,2022-06-11_09h22.49.766,task,2021.1.4,Win32,60.0024001,6299f149e92ead563fba08ef,62a44277d66d387e4a7f2dc5,,,,,,,,,,,,,,,,,,,,,,,,,,,,,,,,,,,,,,,,,,,,,,,,,,,1,0,1,0,1,,,,,,,,,,,,,,,,,,,,,,,,,,,,,,,,,,,,,,,,,,,,,,
,,,,,,,,,,,,5b50677cc5e0cb0001bda255,47,Kobieta,2022-06-11_09h22.49.766,task,2021.1.4,Win32,60.0024001,6299f149e92ead563fba08ef,62a44277d66d387e4a7f2dc5,,,,,,,,,,,,,,,,,,,,,,,,,,,,,,,,,,,,,,,,,,,,,,,,,,,,,,,,jq,"[""j"",""q""]",0,"[1.817900000095392,2.400600000143072,3.1537000000477065]",1,2,0,2,0,1,,,,,,,,,,,,,,,,,,,,,,,,,,,,,,,,,,,,
,,,,,,,,,,,,5b50677cc5e0cb0001bda255,47,Kobieta,2022-06-11_09h22.49.766,task,2021.1.4,Win32,60.0024001,6299f149e92ead563fba08ef,62a44277d66d387e4a7f2dc5,,,,,,,,,,,,,8,,,,,,,,,,Task,39,(5x3) - 7,8,,,,,,,,,,,,,,,,,,,1,,,,,,,,,,,,,,,,,,,,,space,19.596,"[""8""]",1,[3.4635000000000105],0,0,0,38,1,,,,,,,,,,,,,,,,,,,,,,,,,,
,,,,,,,,,,,X V Q F H G B L J M P D K C T S W R N Z,5b50677cc5e0cb0001bda255,47,Kobieta,2022-06-11_09h22.49.766,task,2021.1.4,Win32,60.0024001,6299f149e92ead563fba08ef,62a44277d66d387e4a7f2dc5,,,,,,,,,,,,,,,,,,,,,,,,,,,,,,,,,,,,,,,,,,,,,,,,,,,,,,,,,,,,,,,,,,,,,,,,,,,,0,0,0,0,1,,,,,,,,,,,,,,,,,,,,,
,,,,,,,,,,,,5b50677cc5e0cb0001bda255,47,Kobieta,2022-06-11_09h22.49.766,task,2021.1.4,Win32,60.0024001,6299f149e92ead563fba08ef,62a44277d66d387e4a7f2dc5,,,,,,,,,,,,,2,,,,,,,,,,Task,19,(6/2) - 1,2,,,,,,,,,,,,,,,,,,,1,,,,,,,,,,,,,,,,,,,,,,,"[""2""]",1,[2.1817000000477265],0,0,0,18,1,,,,,,,,,,,,,,,,,,,,,,,,,,
,,,,,,,,,,,X V Q F H G B L J M P D K C T S W R N Z,5b50677cc5e0cb0001bda255,47,Kobieta,2022-06-11_09h22.49.766,task,2021.1.4,Win32,60.0024001,6299f149e92ead563fba08ef,62a44277d66d387e4a7f2dc5,,,,,,,,,,,,,,,,,,,,,,,,,,,,,,,,,,,,,,,,,,,,,,,,,,,,,,,,,,,,,,,,,,,,,,,,,,,,1,0,1,0,1,,,,,,,,,,,,,,,,,,,,,
,,,,,,,,,,,,5b50677cc5e0cb0001bda255,47,Kobieta,2022-06-11_09h22.49.766,task,2021.1.4,Win32,60.0024001,6299f149e92ead563fba08ef,62a44277d66d387e4a7f2dc5,,,,,,,,,,,,,,,,,,,,,,,,,,,,,,,,,,,,,,,,,,,,,,,,,,,,,,,,,,,,,,,,,,,,,,,,,,,,,,,,,zd,"[""z"",""d""]",0,"[1.8751999998092401,2.4141999998092842,3.336799999952291]",1,ZD,0,0,0,0,1,,,,,,,,,,
,,,,,,,,,,,,5b50677cc5e0cb0001bda255,47,Kobieta,2022-06-11_09h22.49.766,task,2021.1.4,Win32,60.0024001,6299f149e92ead563fba08ef,62a44277d66d387e4a7f2dc5,,,,,,,,,,,,,4,,,,,,,,,,Task,28,(2x5) - 6,4,,,,,,,,,,,,,,,,,,,1,,,,,,,,,,,,,,,,,,,,,,,"[""4""]",1,[2.7186000001430557],0,0,0,27,1,,,,,,,,,,,,,,,,,,,,,,,,,,
,,,,,,,,,,,X V Q F H G B L J M P D K C T S W R N Z,5b50677cc5e0cb0001bda255,47,Kobieta,2022-06-11_09h22.49.766,task,2021.1.4,Win32,60.0024001,6299f149e92ead563fba08ef,62a44277d66d387e4a7f2dc5,,,,,,,,,,,,,,,,,,,,,,,,,,,,,,,,,,,,,,,,,,,,,,,,,,,,,,,,,,,,,,,,,,,,,,,,,,,,0,0,0,0,1,,,,,,,,,,,,,,,,,,,,,
,,,,,,,,,,,,5b50677cc5e0cb0001bda255,47,Kobieta,2022-06-11_09h22.49.766,task,2021.1.4,Win32,60.0024001,6299f149e92ead563fba08ef,62a44277d66d387e4a7f2dc5,,,,,,,,,,,,,,,,,,,,,,,Task,15,(3x7) - 13,8,,,,,,,,,,,,,,,,,,,0,,,,,,,,,,,,,,,,,,,,,,,,0,,0,0,0,14,1,,,,,,,,,,,,,,,,,,,,,,,,,,
,,,,,,,,,,,,5b50677cc5e0cb0001bda255,47,Kobieta,2022-06-11_09h22.49.766,task,2021.1.4,Win32,60.0024001,6299f149e92ead563fba08ef,62a44277d66d387e4a7f2dc5,,,,,,,,,,,,,7,,,,,,,,,,Task,14,(2x2) + 3,7,,,,,,,,,,,,,,,,,,,1,,,,,,,,,,,,,,,,,,,,,,,"[""7""]",1,[1.996499999999969],0,1,1,13,1,,,,,,,,,,,,,,,,,,,,,,,,,,
,,,,,,,,,,,X V Q F H G B L J M P D K C T S W R N Z,5b50677cc5e0cb0001bda255,47,Kobieta,2022-06-11_09h22.49.766,task,2021.1.4,Win32,60.0024001,6299f149e92ead563fba08ef,62a44277d66d387e4a7f2dc5,,,,,,,,,,,,,,,,,,,,,,,,,,,,,,,,,,,,,,,,,,,,,,,,,,,,,,,,,,,,,,,,,,,,,,,,,,,,1,0,1,0,1,,,,,,,,,,,,,,,,,,,,,
,,,,,,,,,,,,5b50677cc5e0cb0001bda255,47,Kobieta,2022-06-11_09h22.49.766,task,2021.1.4,Win32,60.0024001,6299f149e92ead563fba08ef,62a44277d66d387e4a7f2dc5,,,,,,,,,,,,,6,,,,,,,,,,Task,13,(3x4) - 6,6,,,,,,,,,,,,,,,,,,,1,,,,,,,,,,,,,,,,,,,,,,,"[""6""]",1,[2.744400000095368],0,0,0,12,1,,,,,,,,,,,,,,,,,,,,,,,,,,
,,,,,,,,,,,X V Q F H G B L J M P D K C T S W R N Z,5b50677cc5e0cb0001bda255,47,Kobieta,2022-06-11_09h22.49.766,task,2021.1.4,Win32,60.0024001,6299f149e92ead563fba08ef,62a44277d66d387e4a7f2dc5,,,,,,,,,,,,,,,,,,,,,,,,,,,,,,,,,,,,,,,,,,,,,,,,,,,,,,,,,,,,,,,,,,,,,,,,,,,,2,0,2,0,1,,,,,,,,,,,,,,,,,,,,,
,,,,,,,,,,,,5b50677cc5e0cb0001bda255,47,Kobieta,2022-06-11_09h22.49.766,task,2021.1.4,Win32,60.0024001,6299f149e92ead563fba08ef,62a44277d66d387e4a7f2dc5,,,,,,,,,,,,,,,,,,,,,,,,,,,,,,,,,,,,,,,,,,,,,,,,,,,,,,,,,,,,,,,,,,,,,,,,,,,,,,,,,gs,"[""g"",""s""]",0,"[1.7371999998092633,2.099999999999966,2.898099999904616]",0,TGS,1,0,1,0,1,,,,,,,,,,
,,,,,,,,,,,,5b50677cc5e0cb0001bda255,47,Kobieta,2022-06-11_09h22.49.766,task,2021.1.4,Win32,60.0024001,6299f149e92ead563fba08ef,62a44277d66d387e4a7f2dc5,,,,,,,,,,,,,3,,,,,,,,,,Task,35,(1x2) + 1,3,,,,,,,,,,,,,,,,,,,1,,,,,,,,,,,,,,,,,,,,,,,"[""3""]",1,[1.9865999999046267],0,0,0,34,1,,,,,,,,,,,,,,,,,,,,,,,,,,
,,,,,,,,,,,X V Q F H G B L J M P D K C T S W R N Z,5b50677cc5e0cb0001bda255,47,Kobieta,2022-06-11_09h22.49.766,task,2021.1.4,Win32,60.0024001,6299f149e92ead563fba08ef,62a44277d66d387e4a7f2dc5,,,,,,,,,,,,,,,,,,,,,,,,,,,,,,,,,,,,,,,,,,,,,,,,,,,,,,,,,,,,,,,,,,,,,,,,,,,,0,0,0,0,1,,,,,,,,,,,,,,,,,,,,,
,,,,,,,,,,,,5b50677cc5e0cb0001bda255,47,Kobieta,2022-06-11_09h22.49.766,task,2021.1.4,Win32,60.0024001,6299f149e92ead563fba08ef,62a44277d66d387e4a7f2dc5,,,,,,,,,,,,,7,,,,,,,,,,Task,31,(4/2) + 5,7,,,,,,,,,,,,,,,,,,,1,,,,,,,,,,,,,,,,,,,,,,,"[""7""]",1,[2.505099999904644],0,0,0,30,1,,,,,,,,,,,,,,,,,,,,,,,,,,
,,,,,,,,,,,X V Q F H G B L J M P D K C T S W R N Z,5b50677cc5e0cb0001bda255,47,Kobieta,2022-06-11_09h22.49.766,task,2021.1.4,Win32,60.0024001,6299f149e92ead563fba08ef,62a44277d66d387e4a7f2dc5,,,,,,,,,,,,,,,,,,,,,,,,,,,,,,,,,,,,,,,,,,,,,,,,,,,,,,,,,,,,,,,,,,,,,,,,,,,,1,0,1,0,1,,,,,,,,,,,,,,,,,,,,,
,,,,,,,,,,,,5b50677cc5e0cb0001bda255,47,Kobieta,2022-06-11_09h22.49.766,task,2021.1.4,Win32,60.0024001,6299f149e92ead563fba08ef,62a44277d66d387e4a7f2dc5,,,,,,,,,,,,,9,,,,,,,,,,Task,40,(7x2) - 5,9,,,,,,,,,,,,,,,,,,,1,,,,,,,,,,,,,,,,,,,,,,,"[""9""]",1,[3.995700000047691],0,0,0,39,1,,,,,,,,,,,,,,,,,,,,,,,,,,
,,,,,,,,,,,X V Q F H G B L J M P D K C T S W R N Z,5b50677cc5e0cb0001bda255,47,Kobieta,2022-06-11_09h22.49.766,task,2021.1.4,Win32,60.0024001,6299f149e92ead563fba08ef,62a44277d66d387e4a7f2dc5,,,,,,,,,,,,,,,,,,,,,,,,,,,,,,,,,,,,,,,,,,,,,,,,,,,,,,,,,,,,,,,,,,,,,,,,,,,,2,0,2,0,1,,,,,,,,,,,,,,,,,,,,,
,,,,,,,,,,,,5b50677cc5e0cb0001bda255,47,Kobieta,2022-06-11_09h22.49.766,task,2021.1.4,Win32,60.0024001,6299f149e92ead563fba08ef,62a44277d66d387e4a7f2dc5,,,,,,,,,,,,,,,,,,,,,,,,,,,,,,,,,,,,,,,,,,,,,,,,,,,,,,,,,,,,,,,,,,,,,,,,,,,,,,,,,pvr,"[""p"",""v"",""r""]",0,"[1.9320000000000164,2.2987999999523367,2.8480999999046617,3.2475000000000023]",1,PVR,2,0,2,0,1,,,,,,,,,,
,,,,,,,,,,,,5b50677cc5e0cb0001bda255,47,Kobieta,2022-06-11_09h22.49.766,task,2021.1.4,Win32,60.0024001,6299f149e92ead563fba08ef,62a44277d66d387e4a7f2dc5,,,,,,,,,,,,,3,,,,,,,,,,Task,3,(2x3) - 3,3,,,,,,,,,,,,,,,,,,,1,,,,,,,,,,,,,,,,,,,,,,,"[""3""]",1,[2.0126000001430953],0,0,0,2,1,,,,,,,,,,,,,,,,,,,,,,,,,,
,,,,,,,,,,,X V Q F H G B L J M P D K C T S W R N Z,5b50677cc5e0cb0001bda255,47,Kobieta,2022-06-11_09h22.49.766,task,2021.1.4,Win32,60.0024001,6299f149e92ead563fba08ef,62a44277d66d387e4a7f2dc5,,,,,,,,,,,,,,,,,,,,,,,,,,,,,,,,,,,,,,,,,,,,,,,,,,,,,,,,,,,,,,,,,,,,,,,,,,,,0,0,0,0,1,,,,,,,,,,,,,,,,,,,,,
,,,,,,,,,,,,5b50677cc5e0cb0001bda255,47,Kobieta,2022-06-11_09h22.49.766,task,2021.1.4,Win32,60.0024001,6299f149e92ead563fba08ef,62a44277d66d387e4a7f2dc5,,,,,,,,,,,,,2,,,,,,,,,,Task,10,(2x5) - 8,2,,,,,,,,,,,,,,,,,,,1,,,,,,,,,,,,,,,,,,,,,,,"[""2""]",1,[1.72979999995232],0,0,0,9,1,,,,,,,,,,,,,,,,,,,,,,,,,,
,,,,,,,,,,,X V Q F H G B L J M P D K C T S W R N Z,5b50677cc5e0cb0001bda255,47,Kobieta,2022-06-11_09h22.49.766,task,2021.1.4,Win32,60.0024001,6299f149e92ead563fba08ef,62a44277d66d387e4a7f2dc5,,,,,,,,,,,,,,,,,,,,,,,,,,,,,,,,,,,,,,,,,,,,,,,,,,,,,,,,,,,,,,,,,,,,,,,,,,,,1,0,1,0,1,,,,,,,,,,,,,,,,,,,,,
,,,,,,,,,,,,5b50677cc5e0cb0001bda255,47,Kobieta,2022-06-11_09h22.49.766,task,2021.1.4,Win32,60.0024001,6299f149e92ead563fba08ef,62a44277d66d387e4a7f2dc5,,,,,,,,,,,,,8,,,,,,,,,,Task,32,(8/2) + 4,8,,,,,,,,,,,,,,,,,,,1,,,,,,,,,,,,,,,,,,,,,,,"[""8""]",1,[2.27800000000002],0,0,0,31,1,,,,,,,,,,,,,,,,,,,,,,,,,,
,,,,,,,,,,,X V Q F H G B L J M P D K C T S W R N Z,5b50677cc5e0cb0001bda255,47,Kobieta,2022-06-11_09h22.49.766,task,2021.1.4,Win32,60.0024001,6299f149e92ead563fba08ef,62a44277d66d387e4a7f2dc5,,,,,,,,,,,,,,,,,,,,,,,,,,,,,,,,,,,,,,,,,,,,,,,,,,,,,,,,,,,,,,,,,,,,,,,,,,,,2,0,2,0,1,,,,,,,,,,,,,,,,,,,,,
,,,,,,,,,,,,5b50677cc5e0cb0001bda255,47,Kobieta,2022-06-11_09h22.49.766,task,2021.1.4,Win32,60.0024001,6299f149e92ead563fba08ef,62a44277d66d387e4a7f2dc5,,,,,,,,,,,,,9,,,,,,,,,,Task,7,(3x7) - 12,9,,,,,,,,,,,,,,,,,,,1,,,,,,,,,,,,,,,,,,,,,,,"[""9""]",1,[2.9954999999999927],0,0,0,6,1,,,,,,,,,,,,,,,,,,,,,,,,,,
,,,,,,,,,,,X V Q F H G B L J M P D K C T S W R N Z,5b50677cc5e0cb0001bda255,47,Kobieta,2022-06-11_09h22.49.766,task,2021.1.4,Win32,60.0024001,6299f149e92ead563fba08ef,62a44277d66d387e4a7f2dc5,,,,,,,,,,,,,,,,,,,,,,,,,,,,,,,,,,,,,,,,,,,,,,,,,,,,,,,,,,,,,,,,,,,,,,,,,,,,3,0,3,0,1,,,,,,,,,,,,,,,,,,,,,
,,,,,,,,,,,,5b50677cc5e0cb0001bda255,47,Kobieta,2022-06-11_09h22.49.766,task,2021.1.4,Win32,60.0024001,6299f149e92ead563fba08ef,62a44277d66d387e4a7f2dc5,,,,,,,,,,,,,,,,,,,,,,,,,,,,,,,,,,,,,,,,,,,,,,,,,,,,,,,,,,,,,,,,,,,,,,,,,,,,,,,,,xlhh,"[""x"",""l"",""h"",""h""]",0,"[1.9319000000954247,2.2850999999046735,3.1140000000000327,3.380599999904689,4.26270000004763]",1,XLHH,3,0,3,0,1,,,,,,,,,,
,,,,,,,,,,,,5b50677cc5e0cb0001bda255,47,Kobieta,2022-06-11_09h22.49.766,task,2021.1.4,Win32,60.0024001,6299f149e92ead563fba08ef,62a44277d66d387e4a7f2dc5,,,,,,,,,,,,,5,,,,,,,,,,Task,29,(3x8) - 19 ,5,,,,,,,,,,,,,,,,,,,1,,,,,,,,,,,,,,,,,,,,,,,"[""5""]",1,[3.7941000001429757],0,0,0,28,1,,,,,,,,,,,,,,,,,,,,,,,,,,
,,,,,,,,,,,X V Q F H G B L J M P D K C T S W R N Z,5b50677cc5e0cb0001bda255,47,Kobieta,2022-06-11_09h22.49.766,task,2021.1.4,Win32,60.0024001,6299f149e92ead563fba08ef,62a44277d66d387e4a7f2dc5,,,,,,,,,,,,,,,,,,,,,,,,,,,,,,,,,,,,,,,,,,,,,,,,,,,,,,,,,,,,,,,,,,,,,,,,,,,,0,0,0,0,1,,,,,,,,,,,,,,,,,,,,,
,,,,,,,,,,,,5b50677cc5e0cb0001bda255,47,Kobieta,2022-06-11_09h22.49.766,task,2021.1.4,Win32,60.0024001,6299f149e92ead563fba08ef,62a44277d66d387e4a7f2dc5,,,,,,,,,,,,,9,,,,,,,,,,Task,40,(7x2) - 5,9,,,,,,,,,,,,,,,,,,,1,,,,,,,,,,,,,,,,,,,,,,,"[""9""]",1,[2.0842000000476446],0,0,0,39,1,,,,,,,,,,,,,,,,,,,,,,,,,,
,,,,,,,,,,,X V Q F H G B L J M P D K C T S W R N Z,5b50677cc5e0cb0001bda255,47,Kobieta,2022-06-11_09h22.49.766,task,2021.1.4,Win32,60.0024001,6299f149e92ead563fba08ef,62a44277d66d387e4a7f2dc5,,,,,,,,,,,,,,,,,,,,,,,,,,,,,,,,,,,,,,,,,,,,,,,,,,,,,,,,,,,,,,,,,,,,,,,,,,,,1,0,1,0,1,,,,,,,,,,,,,,,,,,,,,
,,,,,,,,,,,,5b50677cc5e0cb0001bda255,47,Kobieta,2022-06-11_09h22.49.766,task,2021.1.4,Win32,60.0024001,6299f149e92ead563fba08ef,62a44277d66d387e4a7f2dc5,,,,,,,,,,,,,8,,,,,,,,,,Task,23,(2x3) + 2,8,,,,,,,,,,,,,,,,,,,1,,,,,,,,,,,,,,,,,,,,,,,"[""8""]",1,[1.8079999999999927],0,0,0,22,1,,,,,,,,,,,,,,,,,,,,,,,,,,
,,,,,,,,,,,X V Q F H G B L J M P D K C T S W R N Z,5b50677cc5e0cb0001bda255,47,Kobieta,2022-06-11_09h22.49.766,task,2021.1.4,Win32,60.0024001,6299f149e92ead563fba08ef,62a44277d66d387e4a7f2dc5,,,,,,,,,,,,,,,,,,,,,,,,,,,,,,,,,,,,,,,,,,,,,,,,,,,,,,,,,,,,,,,,,,,,,,,,,,,,2,0,2,0,1,,,,,,,,,,,,,,,,,,,,,
,,,,,,,,,,,,5b50677cc5e0cb0001bda255,47,Kobieta,2022-06-11_09h22.49.766,task,2021.1.4,Win32,60.0024001,6299f149e92ead563fba08ef,62a44277d66d387e4a7f2dc5,,,,,,,,,,,,,9,,,,,,,,,,Task,40,(7x2) - 5,9,,,,,,,,,,,,,,,,,,,1,,,,,,,,,,,,,,,,,,,,,,,"[""9""]",1,[2.1478999998570316],0,0,0,39,1,,,,,,,,,,,,,,,,,,,,,,,,,,
,,,,,,,,,,,X V Q F H G B L J M P D K C T S W R N Z,5b50677cc5e0cb0001bda255,47,Kobieta,2022-06-11_09h22.49.766,task,2021.1.4,Win32,60.0024001,6299f149e92ead563fba08ef,62a44277d66d387e4a7f2dc5,,,,,,,,,,,,,,,,,,,,,,,,,,,,,,,,,,,,,,,,,,,,,,,,,,,,,,,,,,,,,,,,,,,,,,,,,,,,3,0,3,0,1,,,,,,,,,,,,,,,,,,,,,
,,,,,,,,,,,,5b50677cc5e0cb0001bda255,47,Kobieta,2022-06-11_09h22.49.766,task,2021.1.4,Win32,60.0024001,6299f149e92ead563fba08ef,62a44277d66d387e4a7f2dc5,,,,,,,,,,,,,5,,,,,,,,,,Task,12,(4x4) - 11,5,,,,,,,,,,,,,,,,,,,1,,,,,,,,,,,,,,,,,,,,,,,"[""5""]",1,[2.680800000190743],0,0,0,11,1,,,,,,,,,,,,,,,,,,,,,,,,,,
,,,,,,,,,,,X V Q F H G B L J M P D K C T S W R N Z,5b50677cc5e0cb0001bda255,47,Kobieta,2022-06-11_09h22.49.766,task,2021.1.4,Win32,60.0024001,6299f149e92ead563fba08ef,62a44277d66d387e4a7f2dc5,,,,,,,,,,,,,,,,,,,,,,,,,,,,,,,,,,,,,,,,,,,,,,,,,,,,,,,,,,,,,,,,,,,,,,,,,,,,4,0,4,0,1,,,,,,,,,,,,,,,,,,,,,
,,,,,,,,,,,,5b50677cc5e0cb0001bda255,47,Kobieta,2022-06-11_09h22.49.766,task,2021.1.4,Win32,60.0024001,6299f149e92ead563fba08ef,62a44277d66d387e4a7f2dc5,,,,,,,,,,,,,,,,,,,,,,,,,,,,,,,,,,,,,,,,,,,,,,,,,,,,,,,,,,,,,,,,,,,,,,,,,,,,,,,,,rgcmh,"[""r"",""g"",""c"",""m"",""h""]",0,"[1.7667999999523545,2.089400000095452,2.5325000000000273,2.8856000001430857,3.3812000000477838,4.5625]",1,RGCMH,4,0,4,0,1,,,,,,,,,,
,,,,,,,,,,,,5b50677cc5e0cb0001bda255,47,Kobieta,2022-06-11_09h22.49.766,task,2021.1.4,Win32,60.0024001,6299f149e92ead563fba08ef,62a44277d66d387e4a7f2dc5,,,,,,,,,,,,,1,,,,,,,,,,Task,1,(12/6) - 1,1,,,,,,,,,,,,,,,,,,,1,,,,,,,,,,,,,,,,,,,,,,,"[""1""]",1,[2.38090000009538],0,0,0,0,1,,,,,,,,,,,,,,,,,,,,,,,,,,
,,,,,,,,,,,X V Q F H G B L J M P D K C T S W R N Z,5b50677cc5e0cb0001bda255,47,Kobieta,2022-06-11_09h22.49.766,task,2021.1.4,Win32,60.0024001,6299f149e92ead563fba08ef,62a44277d66d387e4a7f2dc5,,,,,,,,,,,,,,,,,,,,,,,,,,,,,,,,,,,,,,,,,,,,,,,,,,,,,,,,,,,,,,,,,,,,,,,,,,,,0,0,0,0,1,,,,,,,,,,,,,,,,,,,,,
,,,,,,,,,,,,5b50677cc5e0cb0001bda255,47,Kobieta,2022-06-11_09h22.49.766,task,2021.1.4,Win32,60.0024001,6299f149e92ead563fba08ef,62a44277d66d387e4a7f2dc5,,,,,,,,,,,,,8,,,,,,,,,,Task,23,(2x3) + 2,8,,,,,,,,,,,,,,,,,,,1,,,,,,,,,,,,,,,,,,,,,,,"[""8""]",1,[2.2887000000476974],0,0,0,22,1,,,,,,,,,,,,,,,,,,,,,,,,,,
,,,,,,,,,,,X V Q F H G B L J M P D K C T S W R N Z,5b50677cc5e0cb0001bda255,47,Kobieta,2022-06-11_09h22.49.766,task,2021.1.4,Win32,60.0024001,6299f149e92ead563fba08ef,62a44277d66d387e4a7f2dc5,,,,,,,,,,,,,,,,,,,,,,,,,,,,,,,,,,,,,,,,,,,,,,,,,,,,,,,,,,,,,,,,,,,,,,,,,,,,1,0,1,0,1,,,,,,,,,,,,,,,,,,,,,
,,,,,,,,,,,,5b50677cc5e0cb0001bda255,47,Kobieta,2022-06-11_09h22.49.766,task,2021.1.4,Win32,60.0024001,6299f149e92ead563fba08ef,62a44277d66d387e4a7f2dc5,,,,,,,,,,,,,5,,,,,,,,,,Task,29,(3x8) - 19 ,5,,,,,,,,,,,,,,,,,,,1,,,,,,,,,,,,,,,,,,,,,,,"[""5""]",1,[2.6640999999046926],0,0,0,28,1,,,,,,,,,,,,,,,,,,,,,,,,,,
,,,,,,,,,,,X V Q F H G B L J M P D K C T S W R N Z,5b50677cc5e0cb0001bda255,47,Kobieta,2022-06-11_09h22.49.766,task,2021.1.4,Win32,60.0024001,6299f149e92ead563fba08ef,62a44277d66d387e4a7f2dc5,,,,,,,,,,,,,,,,,,,,,,,,,,,,,,,,,,,,,,,,,,,,,,,,,,,,,,,,,,,,,,,,,,,,,,,,,,,,2,0,2,0,1,,,,,,,,,,,,,,,,,,,,,
,,,,,,,,,,,,5b50677cc5e0cb0001bda255,47,Kobieta,2022-06-11_09h22.49.766,task,2021.1.4,Win32,60.0024001,6299f149e92ead563fba08ef,62a44277d66d387e4a7f2dc5,,,,,,,,,,,,,3,,,,,,,,,,Task,3,(2x3) - 3,3,,,,,,,,,,,,,,,,,,,1,,,,,,,,,,,,,,,,,,,,,,,"[""3""]",1,[1.8232000000476773],0,0,0,2,1,,,,,,,,,,,,,,,,,,,,,,,,,,
,,,,,,,,,,,X V Q F H G B L J M P D K C T S W R N Z,5b50677cc5e0cb0001bda255,47,Kobieta,2022-06-11_09h22.49.766,task,2021.1.4,Win32,60.0024001,6299f149e92ead563fba08ef,62a44277d66d387e4a7f2dc5,,,,,,,,,,,,,,,,,,,,,,,,,,,,,,,,,,,,,,,,,,,,,,,,,,,,,,,,,,,,,,,,,,,,,,,,,,,,3,0,3,0,1,,,,,,,,,,,,,,,,,,,,,
,,,,,,,,,,,,5b50677cc5e0cb0001bda255,47,Kobieta,2022-06-11_09h22.49.766,task,2021.1.4,Win32,60.0024001,6299f149e92ead563fba08ef,62a44277d66d387e4a7f2dc5,,,,,,,,,,,,,7,,,,,,,,,,Task,31,(4/2) + 5,7,,,,,,,,,,,,,,,,,,,1,,,,,,,,,,,,,,,,,,,,,,,"[""7""]",1,[2.251900000095361],0,0,0,30,1,,,,,,,,,,,,,,,,,,,,,,,,,,
,,,,,,,,,,,X V Q F H G B L J M P D K C T S W R N Z,5b50677cc5e0cb0001bda255,47,Kobieta,2022-06-11_09h22.49.766,task,2021.1.4,Win32,60.0024001,6299f149e92ead563fba08ef,62a44277d66d387e4a7f2dc5,,,,,,,,,,,,,,,,,,,,,,,,,,,,,,,,,,,,,,,,,,,,,,,,,,,,,,,,,,,,,,,,,,,,,,,,,,,,4,0,4,0,1,,,,,,,,,,,,,,,,,,,,,
,,,,,,,,,,,,5b50677cc5e0cb0001bda255,47,Kobieta,2022-06-11_09h22.49.766,task,2021.1.4,Win32,60.0024001,6299f149e92ead563fba08ef,62a44277d66d387e4a7f2dc5,,,,,,,,,,,,,2,,,,,,,,,,Task,26,(2x9) - 16,2,,,,,,,,,,,,,,,,,,,1,,,,,,,,,,,,,,,,,,,,,,,"[""2""]",1,[3.1136000001430375],0,0,0,25,1,,,,,,,,,,,,,,,,,,,,,,,,,,
,,,,,,,,,,,X V Q F H G B L J M P D K C T S W R N Z,5b50677cc5e0cb0001bda255,47,Kobieta,2022-06-11_09h22.49.766,task,2021.1.4,Win32,60.0024001,6299f149e92ead563fba08ef,62a44277d66d387e4a7f2dc5,,,,,,,,,,,,,,,,,,,,,,,,,,,,,,,,,,,,,,,,,,,,,,,,,,,,,,,,,,,,,,,,,,,,,,,,,,,,5,0,5,0,1,,,,,,,,,,,,,,,,,,,,,
,,,,,,,,,,,,5b50677cc5e0cb0001bda255,47,Kobieta,2022-06-11_09h22.49.766,task,2021.1.4,Win32,60.0024001,6299f149e92ead563fba08ef,62a44277d66d387e4a7f2dc5,,,,,,,,,,,,,,,,,,,,,,,,,,,,,,,,,,,,,,,,,,,,,,,,,,,,,,,,,,,,,,,,,,,,,,,,,,,,,,,,,rmsft,"[""r"",""m"",""s"",""f"",""t""]",0,"[2.1705999999046526,2.6818999998570234,3.298099999904707,3.913499999999999,4.6127000000477665,5.57839999985697]",0,MRSFFT,5,0,5,0,1,,,,,,,,,,
,,,,,,,,,,,,5b50677cc5e0cb0001bda255,47,Kobieta,2022-06-11_09h22.49.766,task,2021.1.4,Win32,60.0024001,6299f149e92ead563fba08ef,62a44277d66d387e4a7f2dc5,,,,,,,,,,,,,2,,,,,,,,,,Task,19,(6/2) - 1,2,,,,,,,,,,,,,,,,,,,1,,,,,,,,,,,,,,,,,,,,,,,"[""2""]",1,[2.9278000001907003],0,0,0,18,1,,,,,,,,,,,,,,,,,,,,,,,,,,
,,,,,,,,,,,X V Q F H G B L J M P D K C T S W R N Z,5b50677cc5e0cb0001bda255,47,Kobieta,2022-06-11_09h22.49.766,task,2021.1.4,Win32,60.0024001,6299f149e92ead563fba08ef,62a44277d66d387e4a7f2dc5,,,,,,,,,,,,,,,,,,,,,,,,,,,,,,,,,,,,,,,,,,,,,,,,,,,,,,,,,,,,,,,,,,,,,,,,,,,,0,0,0,0,1,,,,,,,,,,,,,,,,,,,,,
,,,,,,,,,,,,5b50677cc5e0cb0001bda255,47,Kobieta,2022-06-11_09h22.49.766,task,2021.1.4,Win32,60.0024001,6299f149e92ead563fba08ef,62a44277d66d387e4a7f2dc5,,,,,,,,,,,,,8,,,,,,,,,,Task,32,(8/2) + 4,8,,,,,,,,,,,,,,,,,,,1,,,,,,,,,,,,,,,,,,,,,,,"[""8""]",1,[2.3447000000477374],0,0,0,31,1,,,,,,,,,,,,,,,,,,,,,,,,,,
,,,,,,,,,,,X V Q F H G B L J M P D K C T S W R N Z,5b50677cc5e0cb0001bda255,47,Kobieta,2022-06-11_09h22.49.766,task,2021.1.4,Win32,60.0024001,6299f149e92ead563fba08ef,62a44277d66d387e4a7f2dc5,,,,,,,,,,,,,,,,,,,,,,,,,,,,,,,,,,,,,,,,,,,,,,,,,,,,,,,,,,,,,,,,,,,,,,,,,,,,1,0,1,0,1,,,,,,,,,,,,,,,,,,,,,
,,,,,,,,,,,,5b50677cc5e0cb0001bda255,47,Kobieta,2022-06-11_09h22.49.766,task,2021.1.4,Win32,60.0024001,6299f149e92ead563fba08ef,62a44277d66d387e4a7f2dc5,,,,,,,,,,,,,8,,,,,,,,,,Task,32,(8/2) + 4,8,,,,,,,,,,,,,,,,,,,1,,,,,,,,,,,,,,,,,,,,,,,"[""8""]",1,[2.465300000190723],0,0,0,31,1,,,,,,,,,,,,,,,,,,,,,,,,,,
,,,,,,,,,,,X V Q F H G B L J M P D K C T S W R N Z,5b50677cc5e0cb0001bda255,47,Kobieta,2022-06-11_09h22.49.766,task,2021.1.4,Win32,60.0024001,6299f149e92ead563fba08ef,62a44277d66d387e4a7f2dc5,,,,,,,,,,,,,,,,,,,,,,,,,,,,,,,,,,,,,,,,,,,,,,,,,,,,,,,,,,,,,,,,,,,,,,,,,,,,2,0,2,0,1,,,,,,,,,,,,,,,,,,,,,
,,,,,,,,,,,,5b50677cc5e0cb0001bda255,47,Kobieta,2022-06-11_09h22.49.766,task,2021.1.4,Win32,60.0024001,6299f149e92ead563fba08ef,62a44277d66d387e4a7f2dc5,,,,,,,,,,,,,9,,,,,,,,,,Task,24,(2x2) + 5,9,,,,,,,,,,,,,,,,,,,1,,,,,,,,,,,,,,,,,,,,,,,"[""9""]",1,[2.8688999998570353],0,0,0,23,1,,,,,,,,,,,,,,,,,,,,,,,,,,
,,,,,,,,,,,X V Q F H G B L J M P D K C T S W R N Z,5b50677cc5e0cb0001bda255,47,Kobieta,2022-06-11_09h22.49.766,task,2021.1.4,Win32,60.0024001,6299f149e92ead563fba08ef,62a44277d66d387e4a7f2dc5,,,,,,,,,,,,,,,,,,,,,,,,,,,,,,,,,,,,,,,,,,,,,,,,,,,,,,,,,,,,,,,,,,,,,,,,,,,,3,0,3,0,1,,,,,,,,,,,,,,,,,,,,,
,,,,,,,,,,,,5b50677cc5e0cb0001bda255,47,Kobieta,2022-06-11_09h22.49.766,task,2021.1.4,Win32,60.0024001,6299f149e92ead563fba08ef,62a44277d66d387e4a7f2dc5,,,,,,,,,,,,,8,,,,,,,,,,Task,23,(2x3) + 2,8,,,,,,,,,,,,,,,,,,,1,,,,,,,,,,,,,,,,,,,,,,,"[""8""]",1,[2.1799000000953583],0,0,0,22,1,,,,,,,,,,,,,,,,,,,,,,,,,,
,,,,,,,,,,,X V Q F H G B L J M P D K C T S W R N Z,5b50677cc5e0cb0001bda255,47,Kobieta,2022-06-11_09h22.49.766,task,2021.1.4,Win32,60.0024001,6299f149e92ead563fba08ef,62a44277d66d387e4a7f2dc5,,,,,,,,,,,,,,,,,,,,,,,,,,,,,,,,,,,,,,,,,,,,,,,,,,,,,,,,,,,,,,,,,,,,,,,,,,,,4,0,4,0,1,,,,,,,,,,,,,,,,,,,,,
,,,,,,,,,,,,5b50677cc5e0cb0001bda255,47,Kobieta,2022-06-11_09h22.49.766,task,2021.1.4,Win32,60.0024001,6299f149e92ead563fba08ef,62a44277d66d387e4a7f2dc5,,,,,,,,,,,,,2,,,,,,,,,,Task,10,(2x5) - 8,2,,,,,,,,,,,,,,,,,,,1,,,,,,,,,,,,,,,,,,,,,,,"[""2""]",1,[1.6374999999999318],0,0,0,9,1,,,,,,,,,,,,,,,,,,,,,,,,,,
,,,,,,,,,,,X V Q F H G B L J M P D K C T S W R N Z,5b50677cc5e0cb0001bda255,47,Kobieta,2022-06-11_09h22.49.766,task,2021.1.4,Win32,60.0024001,6299f149e92ead563fba08ef,62a44277d66d387e4a7f2dc5,,,,,,,,,,,,,,,,,,,,,,,,,,,,,,,,,,,,,,,,,,,,,,,,,,,,,,,,,,,,,,,,,,,,,,,,,,,,5,0,5,0,1,,,,,,,,,,,,,,,,,,,,,
,,,,,,,,,,,,5b50677cc5e0cb0001bda255,47,Kobieta,2022-06-11_09h22.49.766,task,2021.1.4,Win32,60.0024001,6299f149e92ead563fba08ef,62a44277d66d387e4a7f2dc5,,,,,,,,,,,,,,,,,,,,,,,,,,,,,,,,,,,,,,,,,,,,,,,,,,,,,,,,,,,,,,,,,,,,,,,,,,,,,,,,,fqczvv,"[""f"",""q"",""c"",""z"",""v"",""v""]",0,"[4.978999999999928,5.96390000009535,7.018400000095312,8.009299999952304,8.872999999999934,9.362599999904546,10.189200000047663]",1,FQCZVV,6,0,6,0,1,,,,,,,,,,
,,,,,,,,,,,,5b50677cc5e0cb0001bda255,47,Kobieta,2022-06-11_09h22.49.766,task,2021.1.4,Win32,60.0024001,6299f149e92ead563fba08ef,62a44277d66d387e4a7f2dc5,,,,,,,,,,,,,9,,,,,,,,,,Task,16,(3x8) - 15,9,,,,,,,,,,,,,,,,,,,1,,,,,,,,,,,,,,,,,,,,,,,"[""9""]",1,[3.4692000000476355],0,0,0,15,1,,,,,,,,,,,,,,,,,,,,,,,,,,
,,,,,,,,,,,X V Q F H G B L J M P D K C T S W R N Z,5b50677cc5e0cb0001bda255,47,Kobieta,2022-06-11_09h22.49.766,task,2021.1.4,Win32,60.0024001,6299f149e92ead563fba08ef,62a44277d66d387e4a7f2dc5,,,,,,,,,,,,,,,,,,,,,,,,,,,,,,,,,,,,,,,,,,,,,,,,,,,,,,,,,,,,,,,,,,,,,,,,,,,,0,0,0,0,1,,,,,,,,,,,,,,,,,,,,,
,,,,,,,,,,,,5b50677cc5e0cb0001bda255,47,Kobieta,2022-06-11_09h22.49.766,task,2021.1.4,Win32,60.0024001,6299f149e92ead563fba08ef,62a44277d66d387e4a7f2dc5,,,,,,,,,,,,,2,,,,,,,,,,Task,10,(2x5) - 8,2,,,,,,,,,,,,,,,,,,,1,,,,,,,,,,,,,,,,,,,,,,,"[""2""]",1,[1.629400000095302],0,0,0,9,1,,,,,,,,,,,,,,,,,,,,,,,,,,
,,,,,,,,,,,X V Q F H G B L J M P D K C T S W R N Z,5b50677cc5e0cb0001bda255,47,Kobieta,2022-06-11_09h22.49.766,task,2021.1.4,Win32,60.0024001,6299f149e92ead563fba08ef,62a44277d66d387e4a7f2dc5,,,,,,,,,,,,,,,,,,,,,,,,,,,,,,,,,,,,,,,,,,,,,,,,,,,,,,,,,,,,,,,,,,,,,,,,,,,,1,0,1,0,1,,,,,,,,,,,,,,,,,,,,,
,,,,,,,,,,,,5b50677cc5e0cb0001bda255,47,Kobieta,2022-06-11_09h22.49.766,task,2021.1.4,Win32,60.0024001,6299f149e92ead563fba08ef,62a44277d66d387e4a7f2dc5,,,,,,,,,,,,,0,,,,,,,,,,Task,25,(10/5) - 2,0,,,,,,,,,,,,,,,,,,,1,,,,,,,,,,,,,,,,,,,,,,,"[""0""]",1,[2.5482999999522917],0,0,0,24,1,,,,,,,,,,,,,,,,,,,,,,,,,,
,,,,,,,,,,,X V Q F H G B L J M P D K C T S W R N Z,5b50677cc5e0cb0001bda255,47,Kobieta,2022-06-11_09h22.49.766,task,2021.1.4,Win32,60.0024001,6299f149e92ead563fba08ef,62a44277d66d387e4a7f2dc5,,,,,,,,,,,,,,,,,,,,,,,,,,,,,,,,,,,,,,,,,,,,,,,,,,,,,,,,,,,,,,,,,,,,,,,,,,,,2,0,2,0,1,,,,,,,,,,,,,,,,,,,,,
,,,,,,,,,,,,5b50677cc5e0cb0001bda255,47,Kobieta,2022-06-11_09h22.49.766,task,2021.1.4,Win32,60.0024001,6299f149e92ead563fba08ef,62a44277d66d387e4a7f2dc5,,,,,,,,,,,,,3,,,,,,,,,,Task,27,(3/3) + 2,3,,,,,,,,,,,,,,,,,,,1,,,,,,,,,,,,,,,,,,,,,,,"[""3""]",1,[2.8478999998569634],0,0,0,26,1,,,,,,,,,,,,,,,,,,,,,,,,,,
,,,,,,,,,,,X V Q F H G B L J M P D K C T S W R N Z,5b50677cc5e0cb0001bda255,47,Kobieta,2022-06-11_09h22.49.766,task,2021.1.4,Win32,60.0024001,6299f149e92ead563fba08ef,62a44277d66d387e4a7f2dc5,,,,,,,,,,,,,,,,,,,,,,,,,,,,,,,,,,,,,,,,,,,,,,,,,,,,,,,,,,,,,,,,,,,,,,,,,,,,3,0,3,0,1,,,,,,,,,,,,,,,,,,,,,
,,,,,,,,,,,,5b50677cc5e0cb0001bda255,47,Kobieta,2022-06-11_09h22.49.766,task,2021.1.4,Win32,60.0024001,6299f149e92ead563fba08ef,62a44277d66d387e4a7f2dc5,,,,,,,,,,,,,1,,,,,,,,,,Task,34,(9/3) - 2,1,,,,,,,,,,,,,,,,,,,1,,,,,,,,,,,,,,,,,,,,,,,"[""1""]",1,[1.832200000047692],0,0,0,33,1,,,,,,,,,,,,,,,,,,,,,,,,,,
,,,,,,,,,,,X V Q F H G B L J M P D K C T S W R N Z,5b50677cc5e0cb0001bda255,47,Kobieta,2022-06-11_09h22.49.766,task,2021.1.4,Win32,60.0024001,6299f149e92ead563fba08ef,62a44277d66d387e4a7f2dc5,,,,,,,,,,,,,,,,,,,,,,,,,,,,,,,,,,,,,,,,,,,,,,,,,,,,,,,,,,,,,,,,,,,,,,,,,,,,4,0,4,0,1,,,,,,,,,,,,,,,,,,,,,
,,,,,,,,,,,,5b50677cc5e0cb0001bda255,47,Kobieta,2022-06-11_09h22.49.766,task,2021.1.4,Win32,60.0024001,6299f149e92ead563fba08ef,62a44277d66d387e4a7f2dc5,,,,,,,,,,,,,6,,,,,,,,,,Task,37,(3/3) + 5,6,,,,,,,,,,,,,,,,,,,1,,,,,,,,,,,,,,,,,,,,,,,"[""6""]",1,[1.6162999999522754],0,0,0,36,1,,,,,,,,,,,,,,,,,,,,,,,,,,
,,,,,,,,,,,X V Q F H G B L J M P D K C T S W R N Z,5b50677cc5e0cb0001bda255,47,Kobieta,2022-06-11_09h22.49.766,task,2021.1.4,Win32,60.0024001,6299f149e92ead563fba08ef,62a44277d66d387e4a7f2dc5,,,,,,,,,,,,,,,,,,,,,,,,,,,,,,,,,,,,,,,,,,,,,,,,,,,,,,,,,,,,,,,,,,,,,,,,,,,,5,0,5,0,1,,,,,,,,,,,,,,,,,,,,,
,,,,,,,,,,,,5b50677cc5e0cb0001bda255,47,Kobieta,2022-06-11_09h22.49.766,task,2021.1.4,Win32,60.0024001,6299f149e92ead563fba08ef,62a44277d66d387e4a7f2dc5,,,,,,,,,,,,,5,,,,,,,,,,Task,29,(3x8) - 19 ,5,,,,,,,,,,,,,,,,,,,1,,,,,,,,,,,,,,,,,,,,,,,"[""5""]",1,[4.077499999999986],0,0,0,28,1,,,,,,,,,,,,,,,,,,,,,,,,,,
,,,,,,,,,,,X V Q F H G B L J M P D K C T S W R N Z,5b50677cc5e0cb0001bda255,47,Kobieta,2022-06-11_09h22.49.766,task,2021.1.4,Win32,60.0024001,6299f149e92ead563fba08ef,62a44277d66d387e4a7f2dc5,,,,,,,,,,,,,,,,,,,,,,,,,,,,,,,,,,,,,,,,,,,,,,,,,,,,,,,,,,,,,,,,,,,,,,,,,,,,6,0,6,0,1,,,,,,,,,,,,,,,,,,,,,
,,,,,,,,,,,,5b50677cc5e0cb0001bda255,47,Kobieta,2022-06-11_09h22.49.766,task,2021.1.4,Win32,60.0024001,6299f149e92ead563fba08ef,62a44277d66d387e4a7f2dc5,,,,,,,,,,,,,,,,,,,,,,,,,,,,,,,,,,,,,,,,,,,,,,,,,,,,,,,,,,,,,,,,,,,,,,,,,,,,,,,,,grlzdkl,"[""g"",""r"",""l"",""z"",""d"",""k"",""l""]",0,"[3.154399999856878,4.148399999856906,5.028799999952298,6.19429999995225,7.5585999999045725,8.025499999999965,8.59919999980923,9.531899999856932]",1,GRLZDKL,7,0,7,0,1,,,,,,,,,,
,,,,,,,,,,,,5b50677cc5e0cb0001bda255,47,Kobieta,2022-06-11_09h22.49.766,task,2021.1.4,Win32,60.0024001,6299f149e92ead563fba08ef,62a44277d66d387e4a7f2dc5,,,,,,,,,,,,,0,,,,,,,,,,Task,8,(1x5) - 5,0,,,,,,,,,,,,,,,,,,,1,,,,,,,,,,,,,,,,,,,,,,,"[""0""]",1,[2.507000000000062],0,0,0,7,1,,,,,,,,,,,,,,,,,,,,,,,,,,
,,,,,,,,,,,X V Q F H G B L J M P D K C T S W R N Z,5b50677cc5e0cb0001bda255,47,Kobieta,2022-06-11_09h22.49.766,task,2021.1.4,Win32,60.0024001,6299f149e92ead563fba08ef,62a44277d66d387e4a7f2dc5,,,,,,,,,,,,,,,,,,,,,,,,,,,,,,,,,,,,,,,,,,,,,,,,,,,,,,,,,,,,,,,,,,,,,,,,,,,,0,0,0,0,1,,,,,,,,,,,,,,,,,,,,,
,,,,,,,,,,,,5b50677cc5e0cb0001bda255,47,Kobieta,2022-06-11_09h22.49.766,task,2021.1.4,Win32,60.0024001,6299f149e92ead563fba08ef,62a44277d66d387e4a7f2dc5,,,,,,,,,,,,,9,,,,,,,,,,Task,40,(7x2) - 5,9,,,,,,,,,,,,,,,,,,,1,,,,,,,,,,,,,,,,,,,,,,,"[""9""]",1,[2.6630999999046026],0,0,0,39,1,,,,,,,,,,,,,,,,,,,,,,,,,,
,,,,,,,,,,,X V Q F H G B L J M P D K C T S W R N Z,5b50677cc5e0cb0001bda255,47,Kobieta,2022-06-11_09h22.49.766,task,2021.1.4,Win32,60.0024001,6299f149e92ead563fba08ef,62a44277d66d387e4a7f2dc5,,,,,,,,,,,,,,,,,,,,,,,,,,,,,,,,,,,,,,,,,,,,,,,,,,,,,,,,,,,,,,,,,,,,,,,,,,,,1,0,1,0,1,,,,,,,,,,,,,,,,,,,,,
,,,,,,,,,,,,5b50677cc5e0cb0001bda255,47,Kobieta,2022-06-11_09h22.49.766,task,2021.1.4,Win32,60.0024001,6299f149e92ead563fba08ef,62a44277d66d387e4a7f2dc5,,,,,,,,,,,,,8,,,,,,,,,,Task,15,(3x7) - 13,8,,,,,,,,,,,,,,,,,,,1,,,,,,,,,,,,,,,,,,,,,,,"[""8""]",1,[3.0289999999999964],0,0,0,14,1,,,,,,,,,,,,,,,,,,,,,,,,,,
,,,,,,,,,,,X V Q F H G B L J M P D K C T S W R N Z,5b50677cc5e0cb0001bda255,47,Kobieta,2022-06-11_09h22.49.766,task,2021.1.4,Win32,60.0024001,6299f149e92ead563fba08ef,62a44277d66d387e4a7f2dc5,,,,,,,,,,,,,,,,,,,,,,,,,,,,,,,,,,,,,,,,,,,,,,,,,,,,,,,,,,,,,,,,,,,,,,,,,,,,2,0,2,0,1,,,,,,,,,,,,,,,,,,,,,
,,,,,,,,,,,,5b50677cc5e0cb0001bda255,47,Kobieta,2022-06-11_09h22.49.766,task,2021.1.4,Win32,60.0024001,6299f149e92ead563fba08ef,62a44277d66d387e4a7f2dc5,,,,,,,,,,,,,7,,,,,,,,,,Task,14,(2x2) + 3,7,,,,,,,,,,,,,,,,,,,1,,,,,,,,,,,,,,,,,,,,,,,"[""7""]",1,[1.540899999856947],0,0,0,13,1,,,,,,,,,,,,,,,,,,,,,,,,,,
,,,,,,,,,,,X V Q F H G B L J M P D K C T S W R N Z,5b50677cc5e0cb0001bda255,47,Kobieta,2022-06-11_09h22.49.766,task,2021.1.4,Win32,60.0024001,6299f149e92ead563fba08ef,62a44277d66d387e4a7f2dc5,,,,,,,,,,,,,,,,,,,,,,,,,,,,,,,,,,,,,,,,,,,,,,,,,,,,,,,,,,,,,,,,,,,,,,,,,,,,3,0,3,0,1,,,,,,,,,,,,,,,,,,,,,
,,,,,,,,,,,,5b50677cc5e0cb0001bda255,47,Kobieta,2022-06-11_09h22.49.766,task,2021.1.4,Win32,60.0024001,6299f149e92ead563fba08ef,62a44277d66d387e4a7f2dc5,,,,,,,,,,,,,8,,,,,,,,,,Task,39,(5x3) - 7,8,,,,,,,,,,,,,,,,,,,1,,,,,,,,,,,,,,,,,,,,,,,"[""8""]",1,[2.2503999998568815],0,0,0,38,1,,,,,,,,,,,,,,,,,,,,,,,,,,
,,,,,,,,,,,X V Q F H G B L J M P D K C T S W R N Z,5b50677cc5e0cb0001bda255,47,Kobieta,2022-06-11_09h22.49.766,task,2021.1.4,Win32,60.0024001,6299f149e92ead563fba08ef,62a44277d66d387e4a7f2dc5,,,,,,,,,,,,,,,,,,,,,,,,,,,,,,,,,,,,,,,,,,,,,,,,,,,,,,,,,,,,,,,,,,,,,,,,,,,,4,0,4,0,1,,,,,,,,,,,,,,,,,,,,,
,,,,,,,,,,,,5b50677cc5e0cb0001bda255,47,Kobieta,2022-06-11_09h22.49.766,task,2021.1.4,Win32,60.0024001,6299f149e92ead563fba08ef,62a44277d66d387e4a7f2dc5,,,,,,,,,,,,,4,,,,,,,,,,Task,4,(1x5) - 1,4,,,,,,,,,,,,,,,,,,,1,,,,,,,,,,,,,,,,,,,,,,,"[""4""]",1,[1.5802000000477392],0,0,0,3,1,,,,,,,,,,,,,,,,,,,,,,,,,,
,,,,,,,,,,,X V Q F H G B L J M P D K C T S W R N Z,5b50677cc5e0cb0001bda255,47,Kobieta,2022-06-11_09h22.49.766,task,2021.1.4,Win32,60.0024001,6299f149e92ead563fba08ef,62a44277d66d387e4a7f2dc5,,,,,,,,,,,,,,,,,,,,,,,,,,,,,,,,,,,,,,,,,,,,,,,,,,,,,,,,,,,,,,,,,,,,,,,,,,,,5,0,5,0,1,,,,,,,,,,,,,,,,,,,,,
,,,,,,,,,,,,5b50677cc5e0cb0001bda255,47,Kobieta,2022-06-11_09h22.49.766,task,2021.1.4,Win32,60.0024001,6299f149e92ead563fba08ef,62a44277d66d387e4a7f2dc5,,,,,,,,,,,,,2,,,,,,,,,,Task,2,(2x2) - 2,2,,,,,,,,,,,,,,,,,,,1,,,,,,,,,,,,,,,,,,,,,,,"[""2""]",1,[1.9144999999999754],0,0,0,1,1,,,,,,,,,,,,,,,,,,,,,,,,,,
,,,,,,,,,,,X V Q F H G B L J M P D K C T S W R N Z,5b50677cc5e0cb0001bda255,47,Kobieta,2022-06-11_09h22.49.766,task,2021.1.4,Win32,60.0024001,6299f149e92ead563fba08ef,62a44277d66d387e4a7f2dc5,,,,,,,,,,,,,,,,,,,,,,,,,,,,,,,,,,,,,,,,,,,,,,,,,,,,,,,,,,,,,,,,,,,,,,,,,,,,6,0,6,0,1,,,,,,,,,,,,,,,,,,,,,
,,,,,,,,,,,,5b50677cc5e0cb0001bda255,47,Kobieta,2022-06-11_09h22.49.766,task,2021.1.4,Win32,60.0024001,6299f149e92ead563fba08ef,62a44277d66d387e4a7f2dc5,,,,,,,,,,,,,7,,,,,,,,,,Task,14,(2x2) + 3,7,,,,,,,,,,,,,,,,,,,1,,,,,,,,,,,,,,,,,,,,,,,"[""7""]",1,[1.7470999999046626],0,0,0,13,1,,,,,,,,,,,,,,,,,,,,,,,,,,
,,,,,,,,,,,X V Q F H G B L J M P D K C T S W R N Z,5b50677cc5e0cb0001bda255,47,Kobieta,2022-06-11_09h22.49.766,task,2021.1.4,Win32,60.0024001,6299f149e92ead563fba08ef,62a44277d66d387e4a7f2dc5,,,,,,,,,,,,,,,,,,,,,,,,,,,,,,,,,,,,,,,,,,,,,,,,,,,,,,,,,,,,,,,,,,,,,,,,,,,,7,0,7,0,1,,,,,,,,,,,,,,,,,,,,,
,,,,,,,,,,,,5b50677cc5e0cb0001bda255,47,Kobieta,2022-06-11_09h22.49.766,task,2021.1.4,Win32,60.0024001,6299f149e92ead563fba08ef,62a44277d66d387e4a7f2dc5,,,,,,,,,,,,,,,,,,,,,,,,,,,,,,,,,,,,,,,,,,,,,,,,,,,,,,,,,,,,,,,,,,,,,,,,,,,,,,,,,szlxbvsx,"[""s"",""z"",""l"",""x"",""b"",""v"",""s"",""x""]",0,"[4.127999999999929,4.964599999904635,5.669099999904574,6.519699999809291,7.525099999904569,8.723799999952348,10.12159999990456,10.877699999809238,12.36129999995228]",1,SZLXBVSX,8,0,8,0,1,,,,,,,,,,
,,,,,,,,,,,,5b50677cc5e0cb0001bda255,47,Kobieta,2022-06-11_09h22.49.766,task,2021.1.4,Win32,60.0024001,6299f149e92ead563fba08ef,62a44277d66d387e4a7f2dc5,,,,,,,,,,,,,0,,,,,,,,,,Task,8,(1x5) - 5,0,,,,,,,,,,,,,,,,,,,1,,,,,,,,,,,,,,,,,,,,,,,"[""0""]",1,[2.779600000143091],0,0,0,7,1,,,,,,,,,,,,,,,,,,,,,,,,,,
,,,,,,,,,,,X V Q F H G B L J M P D K C T S W R N Z,5b50677cc5e0cb0001bda255,47,Kobieta,2022-06-11_09h22.49.766,task,2021.1.4,Win32,60.0024001,6299f149e92ead563fba08ef,62a44277d66d387e4a7f2dc5,,,,,,,,,,,,,,,,,,,,,,,,,,,,,,,,,,,,,,,,,,,,,,,,,,,,,,,,,,,,,,,,,,,,,,,,,,,,0,0,0,0,1,,,,,,,,,,,,,,,,,,,,,
,,,,,,,,,,,,5b50677cc5e0cb0001bda255,47,Kobieta,2022-06-11_09h22.49.766,task,2021.1.4,Win32,60.0024001,6299f149e92ead563fba08ef,62a44277d66d387e4a7f2dc5,,,,,,,,,,,,,7,,,,,,,,,,Task,31,(4/2) + 5,7,,,,,,,,,,,,,,,,,,,1,,,,,,,,,,,,,,,,,,,,,,,"[""7""]",1,[1.9322999999523063],0,0,0,30,1,,,,,,,,,,,,,,,,,,,,,,,,,,
,,,,,,,,,,,X V Q F H G B L J M P D K C T S W R N Z,5b50677cc5e0cb0001bda255,47,Kobieta,2022-06-11_09h22.49.766,task,2021.1.4,Win32,60.0024001,6299f149e92ead563fba08ef,62a44277d66d387e4a7f2dc5,,,,,,,,,,,,,,,,,,,,,,,,,,,,,,,,,,,,,,,,,,,,,,,,,,,,,,,,,,,,,,,,,,,,,,,,,,,,1,0,1,0,1,,,,,,,,,,,,,,,,,,,,,
,,,,,,,,,,,,5b50677cc5e0cb0001bda255,47,Kobieta,2022-06-11_09h22.49.766,task,2021.1.4,Win32,60.0024001,6299f149e92ead563fba08ef,62a44277d66d387e4a7f2dc5,,,,,,,,,,,,,0,,,,,,,,,,Task,17,(2x3) - 6,0,,,,,,,,,,,,,,,,,,,1,,,,,,,,,,,,,,,,,,,,,,,"[""0""]",1,[1.6805999999046435],0,0,0,16,1,,,,,,,,,,,,,,,,,,,,,,,,,,
,,,,,,,,,,,X V Q F H G B L J M P D K C T S W R N Z,5b50677cc5e0cb0001bda255,47,Kobieta,2022-06-11_09h22.49.766,task,2021.1.4,Win32,60.0024001,6299f149e92ead563fba08ef,62a44277d66d387e4a7f2dc5,,,,,,,,,,,,,,,,,,,,,,,,,,,,,,,,,,,,,,,,,,,,,,,,,,,,,,,,,,,,,,,,,,,,,,,,,,,,2,0,2,0,1,,,,,,,,,,,,,,,,,,,,,
,,,,,,,,,,,,5b50677cc5e0cb0001bda255,47,Kobieta,2022-06-11_09h22.49.766,task,2021.1.4,Win32,60.0024001,6299f149e92ead563fba08ef,62a44277d66d387e4a7f2dc5,,,,,,,,,,,,,0,,,,,,,,,,Task,25,(10/5) - 2,0,,,,,,,,,,,,,,,,,,,1,,,,,,,,,,,,,,,,,,,,,,,"[""0""]",1,[1.9633999998569607],0,0,0,24,1,,,,,,,,,,,,,,,,,,,,,,,,,,
,,,,,,,,,,,X V Q F H G B L J M P D K C T S W R N Z,5b50677cc5e0cb0001bda255,47,Kobieta,2022-06-11_09h22.49.766,task,2021.1.4,Win32,60.0024001,6299f149e92ead563fba08ef,62a44277d66d387e4a7f2dc5,,,,,,,,,,,,,,,,,,,,,,,,,,,,,,,,,,,,,,,,,,,,,,,,,,,,,,,,,,,,,,,,,,,,,,,,,,,,3,0,3,0,1,,,,,,,,,,,,,,,,,,,,,
,,,,,,,,,,,,5b50677cc5e0cb0001bda255,47,Kobieta,2022-06-11_09h22.49.766,task,2021.1.4,Win32,60.0024001,6299f149e92ead563fba08ef,62a44277d66d387e4a7f2dc5,,,,,,,,,,,,,6,,,,,,,,,,Task,30,(6/3) + 4 ,6,,,,,,,,,,,,,,,,,,,1,,,,,,,,,,,,,,,,,,,,,,,"[""6""]",1,[1.8040000000000873],0,0,0,29,1,,,,,,,,,,,,,,,,,,,,,,,,,,
,,,,,,,,,,,X V Q F H G B L J M P D K C T S W R N Z,5b50677cc5e0cb0001bda255,47,Kobieta,2022-06-11_09h22.49.766,task,2021.1.4,Win32,60.0024001,6299f149e92ead563fba08ef,62a44277d66d387e4a7f2dc5,,,,,,,,,,,,,,,,,,,,,,,,,,,,,,,,,,,,,,,,,,,,,,,,,,,,,,,,,,,,,,,,,,,,,,,,,,,,4,0,4,0,1,,,,,,,,,,,,,,,,,,,,,
,,,,,,,,,,,,5b50677cc5e0cb0001bda255,47,Kobieta,2022-06-11_09h22.49.766,task,2021.1.4,Win32,60.0024001,6299f149e92ead563fba08ef,62a44277d66d387e4a7f2dc5,,,,,,,,,,,,,4,,,,,,,,,,Task,28,(2x5) - 6,4,,,,,,,,,,,,,,,,,,,1,,,,,,,,,,,,,,,,,,,,,,,"[""4""]",1,[1.8960000000000719],0,0,0,27,1,,,,,,,,,,,,,,,,,,,,,,,,,,
,,,,,,,,,,,X V Q F H G B L J M P D K C T S W R N Z,5b50677cc5e0cb0001bda255,47,Kobieta,2022-06-11_09h22.49.766,task,2021.1.4,Win32,60.0024001,6299f149e92ead563fba08ef,62a44277d66d387e4a7f2dc5,,,,,,,,,,,,,,,,,,,,,,,,,,,,,,,,,,,,,,,,,,,,,,,,,,,,,,,,,,,,,,,,,,,,,,,,,,,,5,0,5,0,1,,,,,,,,,,,,,,,,,,,,,
,,,,,,,,,,,,5b50677cc5e0cb0001bda255,47,Kobieta,2022-06-11_09h22.49.766,task,2021.1.4,Win32,60.0024001,6299f149e92ead563fba08ef,62a44277d66d387e4a7f2dc5,,,,,,,,,,,,,,,,,,,,,,,Task,11,(18/3) - 2,4,,,,,,,,,,,,,,,,,,,0,,,,,,,,,,,,,,,,,,,,,,,,0,,0,0,0,10,1,,,,,,,,,,,,,,,,,,,,,,,,,,
,,,,,,,,,,,,5b50677cc5e0cb0001bda255,47,Kobieta,2022-06-11_09h22.49.766,task,2021.1.4,Win32,60.0024001,6299f149e92ead563fba08ef,62a44277d66d387e4a7f2dc5,,,,,,,,,,,,,8,,,,,,,,,,Task,15,(3x7) - 13,8,,,,,,,,,,,,,,,,,,,1,,,,,,,,,,,,,,,,,,,,,,,"[""8""]",1,[3.332399999856989],0,1,1,14,1,,,,,,,,,,,,,,,,,,,,,,,,,,
,,,,,,,,,,,X V Q F H G B L J M P D K C T S W R N Z,5b50677cc5e0cb0001bda255,47,Kobieta,2022-06-11_09h22.49.766,task,2021.1.4,Win32,60.0024001,6299f149e92ead563fba08ef,62a44277d66d387e4a7f2dc5,,,,,,,,,,,,,,,,,,,,,,,,,,,,,,,,,,,,,,,,,,,,,,,,,,,,,,,,,,,,,,,,,,,,,,,,,,,,6,0,6,0,1,,,,,,,,,,,,,,,,,,,,,
,,,,,,,,,,,,5b50677cc5e0cb0001bda255,47,Kobieta,2022-06-11_09h22.49.766,task,2021.1.4,Win32,60.0024001,6299f149e92ead563fba08ef,62a44277d66d387e4a7f2dc5,,,,,,,,,,,,,5,,,,,,,,,,Task,29,(3x8) - 19 ,5,,,,,,,,,,,,,,,,,,,1,,,,,,,,,,,,,,,,,,,,,,,"[""5""]",1,[2.563599999904568],0,0,0,28,1,,,,,,,,,,,,,,,,,,,,,,,,,,
,,,,,,,,,,,X V Q F H G B L J M P D K C T S W R N Z,5b50677cc5e0cb0001bda255,47,Kobieta,2022-06-11_09h22.49.766,task,2021.1.4,Win32,60.0024001,6299f149e92ead563fba08ef,62a44277d66d387e4a7f2dc5,,,,,,,,,,,,,,,,,,,,,,,,,,,,,,,,,,,,,,,,,,,,,,,,,,,,,,,,,,,,,,,,,,,,,,,,,,,,7,0,7,0,1,,,,,,,,,,,,,,,,,,,,,
,,,,,,,,,,,,5b50677cc5e0cb0001bda255,47,Kobieta,2022-06-11_09h22.49.766,task,2021.1.4,Win32,60.0024001,6299f149e92ead563fba08ef,62a44277d66d387e4a7f2dc5,,,,,,,,,,,,,0,,,,,,,,,,Task,25,(10/5) - 2,0,,,,,,,,,,,,,,,,,,,1,,,,,,,,,,,,,,,,,,,,,,,"[""0""]",1,[2.1886000001429693],0,0,0,24,1,,,,,,,,,,,,,,,,,,,,,,,,,,
,,,,,,,,,,,X V Q F H G B L J M P D K C T S W R N Z,5b50677cc5e0cb0001bda255,47,Kobieta,2022-06-11_09h22.49.766,task,2021.1.4,Win32,60.0024001,6299f149e92ead563fba08ef,62a44277d66d387e4a7f2dc5,,,,,,,,,,,,,,,,,,,,,,,,,,,,,,,,,,,,,,,,,,,,,,,,,,,,,,,,,,,,,,,,,,,,,,,,,,,,8,0,8,0,1,,,,,,,,,,,,,,,,,,,,,
,,,,,,,,,,,,5b50677cc5e0cb0001bda255,47,Kobieta,2022-06-11_09h22.49.766,task,2021.1.4,Win32,60.0024001,6299f149e92ead563fba08ef,62a44277d66d387e4a7f2dc5,,,,,,,,,,,,,,,,,,,,,,,,,,,,,,,,,,,,,,,,,,,,,,,,,,,,,,,,,,,,,,,,,,,,,,,,,,,,,,,,,rsdjvbjnm,"[""r"",""s"",""d"",""j"",""v"",""b"",""j"",""n"",""m""]",0,"[3.552200000047719,4.382700000047635,4.967499999999973,5.663299999952301,7.375799999952278,8.181200000047738,9.040299999952367,9.389900000095395,9.7117000000477,10.45520000004774]",1,RSDJVBJNM,9,0,9,0,1,,,,,,,,,,
,,,,,,,,,,,,5b50677cc5e0cb0001bda255,47,Kobieta,2022-06-11_09h22.49.766,task,2021.1.4,Win32,60.0024001,6299f149e92ead563fba08ef,62a44277d66d387e4a7f2dc5,,,,,,,,,,,,,5,,,,,,,,,,Task,36,(8/4) + 3,5,,,,,,,,,,,,,,,,,,,1,,,,,,,,,,,,,,,,,,,,,,,"[""5""]",1,[2.3951000001429747],0,0,0,35,1,,,,,,,,,,,,,,,,,,,,,,,,,,
,,,,,,,,,,,X V Q F H G B L J M P D K C T S W R N Z,5b50677cc5e0cb0001bda255,47,Kobieta,2022-06-11_09h22.49.766,task,2021.1.4,Win32,60.0024001,6299f149e92ead563fba08ef,62a44277d66d387e4a7f2dc5,,,,,,,,,,,,,,,,,,,,,,,,,,,,,,,,,,,,,,,,,,,,,,,,,,,,,,,,,,,,,,,,,,,,,,,,,,,,0,0,0,0,1,,,,,,,,,,,,,,,,,,,,,
,,,,,,,,,,,,5b50677cc5e0cb0001bda255,47,Kobieta,2022-06-11_09h22.49.766,task,2021.1.4,Win32,60.0024001,6299f149e92ead563fba08ef,62a44277d66d387e4a7f2dc5,,,,,,,,,,,,,0,,,,,,,,,,Task,8,(1x5) - 5,0,,,,,,,,,,,,,,,,,,,1,,,,,,,,,,,,,,,,,,,,,,,"[""0""]",1,[1.5818000001908104],0,0,0,7,1,,,,,,,,,,,,,,,,,,,,,,,,,,
,,,,,,,,,,,X V Q F H G B L J M P D K C T S W R N Z,5b50677cc5e0cb0001bda255,47,Kobieta,2022-06-11_09h22.49.766,task,2021.1.4,Win32,60.0024001,6299f149e92ead563fba08ef,62a44277d66d387e4a7f2dc5,,,,,,,,,,,,,,,,,,,,,,,,,,,,,,,,,,,,,,,,,,,,,,,,,,,,,,,,,,,,,,,,,,,,,,,,,,,,1,0,1,0,1,,,,,,,,,,,,,,,,,,,,,
,,,,,,,,,,,,5b50677cc5e0cb0001bda255,47,Kobieta,2022-06-11_09h22.49.766,task,2021.1.4,Win32,60.0024001,6299f149e92ead563fba08ef,62a44277d66d387e4a7f2dc5,,,,,,,,,,,,,9,,,,,,,,,,Task,7,(3x7) - 12,9,,,,,,,,,,,,,,,,,,,1,,,,,,,,,,,,,,,,,,,,,,,"[""9""]",1,[3.2803000001907776],0,0,0,6,1,,,,,,,,,,,,,,,,,,,,,,,,,,
,,,,,,,,,,,X V Q F H G B L J M P D K C T S W R N Z,5b50677cc5e0cb0001bda255,47,Kobieta,2022-06-11_09h22.49.766,task,2021.1.4,Win32,60.0024001,6299f149e92ead563fba08ef,62a44277d66d387e4a7f2dc5,,,,,,,,,,,,,,,,,,,,,,,,,,,,,,,,,,,,,,,,,,,,,,,,,,,,,,,,,,,,,,,,,,,,,,,,,,,,2,0,2,0,1,,,,,,,,,,,,,,,,,,,,,
,,,,,,,,,,,,5b50677cc5e0cb0001bda255,47,Kobieta,2022-06-11_09h22.49.766,task,2021.1.4,Win32,60.0024001,6299f149e92ead563fba08ef,62a44277d66d387e4a7f2dc5,,,,,,,,,,,,,4,,,,,,,,,,Task,21,(10/2) - 1,4,,,,,,,,,,,,,,,,,,,1,,,,,,,,,,,,,,,,,,,,,,,"[""4""]",1,[2.778600000143001],0,0,0,20,1,,,,,,,,,,,,,,,,,,,,,,,,,,
,,,,,,,,,,,X V Q F H G B L J M P D K C T S W R N Z,5b50677cc5e0cb0001bda255,47,Kobieta,2022-06-11_09h22.49.766,task,2021.1.4,Win32,60.0024001,6299f149e92ead563fba08ef,62a44277d66d387e4a7f2dc5,,,,,,,,,,,,,,,,,,,,,,,,,,,,,,,,,,,,,,,,,,,,,,,,,,,,,,,,,,,,,,,,,,,,,,,,,,,,3,0,3,0,1,,,,,,,,,,,,,,,,,,,,,
,,,,,,,,,,,,5b50677cc5e0cb0001bda255,47,Kobieta,2022-06-11_09h22.49.766,task,2021.1.4,Win32,60.0024001,6299f149e92ead563fba08ef,62a44277d66d387e4a7f2dc5,,,,,,,,,,,,,0,,,,,,,,,,Task,8,(1x5) - 5,0,,,,,,,,,,,,,,,,,,,1,,,,,,,,,,,,,,,,,,,,,,,"[""0""]",1,[1.5371000001431412],0,0,0,7,1,,,,,,,,,,,,,,,,,,,,,,,,,,
,,,,,,,,,,,X V Q F H G B L J M P D K C T S W R N Z,5b50677cc5e0cb0001bda255,47,Kobieta,2022-06-11_09h22.49.766,task,2021.1.4,Win32,60.0024001,6299f149e92ead563fba08ef,62a44277d66d387e4a7f2dc5,,,,,,,,,,,,,,,,,,,,,,,,,,,,,,,,,,,,,,,,,,,,,,,,,,,,,,,,,,,,,,,,,,,,,,,,,,,,4,0,4,0,1,,,,,,,,,,,,,,,,,,,,,
,,,,,,,,,,,,5b50677cc5e0cb0001bda255,47,Kobieta,2022-06-11_09h22.49.766,task,2021.1.4,Win32,60.0024001,6299f149e92ead563fba08ef,62a44277d66d387e4a7f2dc5,,,,,,,,,,,,,4,,,,,,,,,,Task,4,(1x5) - 1,4,,,,,,,,,,,,,,,,,,,1,,,,,,,,,,,,,,,,,,,,,,,"[""4""]",1,[1.5532999999524009],0,0,0,3,1,,,,,,,,,,,,,,,,,,,,,,,,,,
,,,,,,,,,,,X V Q F H G B L J M P D K C T S W R N Z,5b50677cc5e0cb0001bda255,47,Kobieta,2022-06-11_09h22.49.766,task,2021.1.4,Win32,60.0024001,6299f149e92ead563fba08ef,62a44277d66d387e4a7f2dc5,,,,,,,,,,,,,,,,,,,,,,,,,,,,,,,,,,,,,,,,,,,,,,,,,,,,,,,,,,,,,,,,,,,,,,,,,,,,5,0,5,0,1,,,,,,,,,,,,,,,,,,,,,
,,,,,,,,,,,,5b50677cc5e0cb0001bda255,47,Kobieta,2022-06-11_09h22.49.766,task,2021.1.4,Win32,60.0024001,6299f149e92ead563fba08ef,62a44277d66d387e4a7f2dc5,,,,,,,,,,,,,3,,,,,,,,,,Task,35,(1x2) + 1,3,,,,,,,,,,,,,,,,,,,1,,,,,,,,,,,,,,,,,,,,,,,"[""3""]",1,[1.7164999999999964],0,0,0,34,1,,,,,,,,,,,,,,,,,,,,,,,,,,
,,,,,,,,,,,X V Q F H G B L J M P D K C T S W R N Z,5b50677cc5e0cb0001bda255,47,Kobieta,2022-06-11_09h22.49.766,task,2021.1.4,Win32,60.0024001,6299f149e92ead563fba08ef,62a44277d66d387e4a7f2dc5,,,,,,,,,,,,,,,,,,,,,,,,,,,,,,,,,,,,,,,,,,,,,,,,,,,,,,,,,,,,,,,,,,,,,,,,,,,,6,0,6,0,1,,,,,,,,,,,,,,,,,,,,,
,,,,,,,,,,,,5b50677cc5e0cb0001bda255,47,Kobieta,2022-06-11_09h22.49.766,task,2021.1.4,Win32,60.0024001,6299f149e92ead563fba08ef,62a44277d66d387e4a7f2dc5,,,,,,,,,,,,,4,,,,,,,,,,Task,11,(18/3) - 2,4,,,,,,,,,,,,,,,,,,,1,,,,,,,,,,,,,,,,,,,,,,,"[""4""]",1,[2.065499999999929],0,0,0,10,1,,,,,,,,,,,,,,,,,,,,,,,,,,
,,,,,,,,,,,X V Q F H G B L J M P D K C T S W R N Z,5b50677cc5e0cb0001bda255,47,Kobieta,2022-06-11_09h22.49.766,task,2021.1.4,Win32,60.0024001,6299f149e92ead563fba08ef,62a44277d66d387e4a7f2dc5,,,,,,,,,,,,,,,,,,,,,,,,,,,,,,,,,,,,,,,,,,,,,,,,,,,,,,,,,,,,,,,,,,,,,,,,,,,,7,0,7,0,1,,,,,,,,,,,,,,,,,,,,,
,,,,,,,,,,,,5b50677cc5e0cb0001bda255,47,Kobieta,2022-06-11_09h22.49.766,task,2021.1.4,Win32,60.0024001,6299f149e92ead563fba08ef,62a44277d66d387e4a7f2dc5,,,,,,,,,,,,,0,,,,,,,,,,Task,33,(1/1) - 1,0,,,,,,,,,,,,,,,,,,,1,,,,,,,,,,,,,,,,,,,,,,,"[""0""]",1,[2.070600000143145],0,0,0,32,1,,,,,,,,,,,,,,,,,,,,,,,,,,
,,,,,,,,,,,X V Q F H G B L J M P D K C T S W R N Z,5b50677cc5e0cb0001bda255,47,Kobieta,2022-06-11_09h22.49.766,task,2021.1.4,Win32,60.0024001,6299f149e92ead563fba08ef,62a44277d66d387e4a7f2dc5,,,,,,,,,,,,,,,,,,,,,,,,,,,,,,,,,,,,,,,,,,,,,,,,,,,,,,,,,,,,,,,,,,,,,,,,,,,,8,0,8,0,1,,,,,,,,,,,,,,,,,,,,,
,,,,,,,,,,,,5b50677cc5e0cb0001bda255,47,Kobieta,2022-06-11_09h22.49.766,task,2021.1.4,Win32,60.0024001,6299f149e92ead563fba08ef,62a44277d66d387e4a7f2dc5,,,,,,,,,,,,,3,,,,,,,,,,Task,27,(3/3) + 2,3,,,,,,,,,,,,,,,,,,,1,,,,,,,,,,,,,,,,,,,,,,,"[""3""]",1,[2.3294000000953474],0,0,0,26,1,,,,,,,,,,,,,,,,,,,,,,,,,,
,,,,,,,,,,,X V Q F H G B L J M P D K C T S W R N Z,5b50677cc5e0cb0001bda255,47,Kobieta,2022-06-11_09h22.49.766,task,2021.1.4,Win32,60.0024001,6299f149e92ead563fba08ef,62a44277d66d387e4a7f2dc5,,,,,,,,,,,,,,,,,,,,,,,,,,,,,,,,,,,,,,,,,,,,,,,,,,,,,,,,,,,,,,,,,,,,,,,,,,,,9,0,9,0,1,,,,,,,,,,,,,,,,,,,,,
,,,,,,,,,,,,5b50677cc5e0cb0001bda255,47,Kobieta,2022-06-11_09h22.49.766,task,2021.1.4,Win32,60.0024001,6299f149e92ead563fba08ef,62a44277d66d387e4a7f2dc5,,,,,,,,,,,,,,,,,,,,,,,,,,,,,,,,,,,,,,,,,,,,,,,,,,,,,,,,,,,,,,,,,,,,,,,,,,,,,,,,,vbpwlhxxsb,"[""v"",""b"",""p"",""w"",""l"",""h"",""x"",""x"",""s"",""b""]",0,"[4.828599999904668,5.677599999904601,6.579700000047637,7.525700000047664,8.580500000000029,9.72329999995236,11.404099999904588,12.553099999904589,13.189299999952254,13.517899999856922,14.257899999856932]",1,VBPWLHXXSB,10,0,10,0,1,,,,,,,,,,
,,,,,,,,,,,,5b50677cc5e0cb0001bda255,47,Kobieta,2022-06-11_09h22.49.766,task,2021.1.4,Win32,60.0024001,6299f149e92ead563fba08ef,62a44277d66d387e4a7f2dc5,,,,,,,,,,,,,1,,,,,,,,,,Task,18,(16/4) - 3,1,,,,,,,,,,,,,,,,,,,1,,,,,,,,,,,,,,,,,,,,,,,"[""1""]",1,[2.7160999999046],0,0,0,17,1,,,,,,,,,,,,,,,,,,,,,,,,,,
,,,,,,,,,,,X V Q F H G B L J M P D K C T S W R N Z,5b50677cc5e0cb0001bda255,47,Kobieta,2022-06-11_09h22.49.766,task,2021.1.4,Win32,60.0024001,6299f149e92ead563fba08ef,62a44277d66d387e4a7f2dc5,,,,,,,,,,,,,,,,,,,,,,,,,,,,,,,,,,,,,,,,,,,,,,,,,,,,,,,,,,,,,,,,,,,,,,,,,,,,0,0,0,0,1,,,,,,,,,,,,,,,,,,,,,
,,,,,,,,,,,,5b50677cc5e0cb0001bda255,47,Kobieta,2022-06-11_09h22.49.766,task,2021.1.4,Win32,60.0024001,6299f149e92ead563fba08ef,62a44277d66d387e4a7f2dc5,,,,,,,,,,,,,4,,,,,,,,,,Task,21,(10/2) - 1,4,,,,,,,,,,,,,,,,,,,1,,,,,,,,,,,,,,,,,,,,,,,"[""4""]",1,[1.4781999998092488],0,0,0,20,1,,,,,,,,,,,,,,,,,,,,,,,,,,
,,,,,,,,,,,X V Q F H G B L J M P D K C T S W R N Z,5b50677cc5e0cb0001bda255,47,Kobieta,2022-06-11_09h22.49.766,task,2021.1.4,Win32,60.0024001,6299f149e92ead563fba08ef,62a44277d66d387e4a7f2dc5,,,,,,,,,,,,,,,,,,,,,,,,,,,,,,,,,,,,,,,,,,,,,,,,,,,,,,,,,,,,,,,,,,,,,,,,,,,,1,0,1,0,1,,,,,,,,,,,,,,,,,,,,,
,,,,,,,,,,,,5b50677cc5e0cb0001bda255,47,Kobieta,2022-06-11_09h22.49.766,task,2021.1.4,Win32,60.0024001,6299f149e92ead563fba08ef,62a44277d66d387e4a7f2dc5,,,,,,,,,,,,,8,,,,,,,,,,Task,15,(3x7) - 13,8,,,,,,,,,,,,,,,,,,,1,,,,,,,,,,,,,,,,,,,,,,,"[""8""]",1,[3.2282999999522417],0,0,0,14,1,,,,,,,,,,,,,,,,,,,,,,,,,,
,,,,,,,,,,,X V Q F H G B L J M P D K C T S W R N Z,5b50677cc5e0cb0001bda255,47,Kobieta,2022-06-11_09h22.49.766,task,2021.1.4,Win32,60.0024001,6299f149e92ead563fba08ef,62a44277d66d387e4a7f2dc5,,,,,,,,,,,,,,,,,,,,,,,,,,,,,,,,,,,,,,,,,,,,,,,,,,,,,,,,,,,,,,,,,,,,,,,,,,,,2,0,2,0,1,,,,,,,,,,,,,,,,,,,,,
,,,,,,,,,,,,5b50677cc5e0cb0001bda255,47,Kobieta,2022-06-11_09h22.49.766,task,2021.1.4,Win32,60.0024001,6299f149e92ead563fba08ef,62a44277d66d387e4a7f2dc5,,,,,,,,,,,,,0,,,,,,,,,,Task,8,(1x5) - 5,0,,,,,,,,,,,,,,,,,,,1,,,,,,,,,,,,,,,,,,,,,,,"[""0""]",1,[1.7305000000000064],0,0,0,7,1,,,,,,,,,,,,,,,,,,,,,,,,,,
,,,,,,,,,,,X V Q F H G B L J M P D K C T S W R N Z,5b50677cc5e0cb0001bda255,47,Kobieta,2022-06-11_09h22.49.766,task,2021.1.4,Win32,60.0024001,6299f149e92ead563fba08ef,62a44277d66d387e4a7f2dc5,,,,,,,,,,,,,,,,,,,,,,,,,,,,,,,,,,,,,,,,,,,,,,,,,,,,,,,,,,,,,,,,,,,,,,,,,,,,3,0,3,0,1,,,,,,,,,,,,,,,,,,,,,
,,,,,,,,,,,,5b50677cc5e0cb0001bda255,47,Kobieta,2022-06-11_09h22.49.766,task,2021.1.4,Win32,60.0024001,6299f149e92ead563fba08ef,62a44277d66d387e4a7f2dc5,,,,,,,,,,,,,9,,,,,,,,,,Task,7,(3x7) - 12,9,,,,,,,,,,,,,,,,,,,1,,,,,,,,,,,,,,,,,,,,,,,"[""9""]",1,[2.531700000047749],0,0,0,6,1,,,,,,,,,,,,,,,,,,,,,,,,,,
,,,,,,,,,,,X V Q F H G B L J M P D K C T S W R N Z,5b50677cc5e0cb0001bda255,47,Kobieta,2022-06-11_09h22.49.766,task,2021.1.4,Win32,60.0024001,6299f149e92ead563fba08ef,62a44277d66d387e4a7f2dc5,,,,,,,,,,,,,,,,,,,,,,,,,,,,,,,,,,,,,,,,,,,,,,,,,,,,,,,,,,,,,,,,,,,,,,,,,,,,4,0,4,0,1,,,,,,,,,,,,,,,,,,,,,
,,,,,,,,,,,,5b50677cc5e0cb0001bda255,47,Kobieta,2022-06-11_09h22.49.766,task,2021.1.4,Win32,60.0024001,6299f149e92ead563fba08ef,62a44277d66d387e4a7f2dc5,,,,,,,,,,,,,9,,,,,,,,,,Task,16,(3x8) - 15,9,,,,,,,,,,,,,,,,,,,1,,,,,,,,,,,,,,,,,,,,,,,"[""9""]",1,[3.4790999999046335],0,0,0,15,1,,,,,,,,,,,,,,,,,,,,,,,,,,
,,,,,,,,,,,X V Q F H G B L J M P D K C T S W R N Z,5b50677cc5e0cb0001bda255,47,Kobieta,2022-06-11_09h22.49.766,task,2021.1.4,Win32,60.0024001,6299f149e92ead563fba08ef,62a44277d66d387e4a7f2dc5,,,,,,,,,,,,,,,,,,,,,,,,,,,,,,,,,,,,,,,,,,,,,,,,,,,,,,,,,,,,,,,,,,,,,,,,,,,,5,0,5,0,1,,,,,,,,,,,,,,,,,,,,,
,,,,,,,,,,,,5b50677cc5e0cb0001bda255,47,Kobieta,2022-06-11_09h22.49.766,task,2021.1.4,Win32,60.0024001,6299f149e92ead563fba08ef,62a44277d66d387e4a7f2dc5,,,,,,,,,,,,,4,,,,,,,,,,Task,4,(1x5) - 1,4,,,,,,,,,,,,,,,,,,,1,,,,,,,,,,,,,,,,,,,,,,,"[""4""]",1,[1.8814000000953683],0,0,0,3,1,,,,,,,,,,,,,,,,,,,,,,,,,,
,,,,,,,,,,,X V Q F H G B L J M P D K C T S W R N Z,5b50677cc5e0cb0001bda255,47,Kobieta,2022-06-11_09h22.49.766,task,2021.1.4,Win32,60.0024001,6299f149e92ead563fba08ef,62a44277d66d387e4a7f2dc5,,,,,,,,,,,,,,,,,,,,,,,,,,,,,,,,,,,,,,,,,,,,,,,,,,,,,,,,,,,,,,,,,,,,,,,,,,,,6,0,6,0,1,,,,,,,,,,,,,,,,,,,,,
,,,,,,,,,,,,5b50677cc5e0cb0001bda255,47,Kobieta,2022-06-11_09h22.49.766,task,2021.1.4,Win32,60.0024001,6299f149e92ead563fba08ef,62a44277d66d387e4a7f2dc5,,,,,,,,,,,,,5,,,,,,,,,,Task,29,(3x8) - 19 ,5,,,,,,,,,,,,,,,,,,,1,,,,,,,,,,,,,,,,,,,,,,,"[""5""]",1,[2.3239999999999554],0,0,0,28,1,,,,,,,,,,,,,,,,,,,,,,,,,,
,,,,,,,,,,,X V Q F H G B L J M P D K C T S W R N Z,5b50677cc5e0cb0001bda255,47,Kobieta,2022-06-11_09h22.49.766,task,2021.1.4,Win32,60.0024001,6299f149e92ead563fba08ef,62a44277d66d387e4a7f2dc5,,,,,,,,,,,,,,,,,,,,,,,,,,,,,,,,,,,,,,,,,,,,,,,,,,,,,,,,,,,,,,,,,,,,,,,,,,,,7,0,7,0,1,,,,,,,,,,,,,,,,,,,,,
,,,,,,,,,,,,5b50677cc5e0cb0001bda255,47,Kobieta,2022-06-11_09h22.49.766,task,2021.1.4,Win32,60.0024001,6299f149e92ead563fba08ef,62a44277d66d387e4a7f2dc5,,,,,,,,,,,,,0,,,,,,,,,,Task,17,(2x3) - 6,0,,,,,,,,,,,,,,,,,,,1,,,,,,,,,,,,,,,,,,,,,,,"[""0""]",1,[1.5855999999047299],0,0,0,16,1,,,,,,,,,,,,,,,,,,,,,,,,,,
,,,,,,,,,,,X V Q F H G B L J M P D K C T S W R N Z,5b50677cc5e0cb0001bda255,47,Kobieta,2022-06-11_09h22.49.766,task,2021.1.4,Win32,60.0024001,6299f149e92ead563fba08ef,62a44277d66d387e4a7f2dc5,,,,,,,,,,,,,,,,,,,,,,,,,,,,,,,,,,,,,,,,,,,,,,,,,,,,,,,,,,,,,,,,,,,,,,,,,,,,8,0,8,0,1,,,,,,,,,,,,,,,,,,,,,
,,,,,,,,,,,,5b50677cc5e0cb0001bda255,47,Kobieta,2022-06-11_09h22.49.766,task,2021.1.4,Win32,60.0024001,6299f149e92ead563fba08ef,62a44277d66d387e4a7f2dc5,,,,,,,,,,,,,8,,,,,,,,,,Task,23,(2x3) + 2,8,,,,,,,,,,,,,,,,,,,1,,,,,,,,,,,,,,,,,,,,,,,"[""8""]",1,[1.8355999999046162],0,0,0,22,1,,,,,,,,,,,,,,,,,,,,,,,,,,
,,,,,,,,,,,X V Q F H G B L J M P D K C T S W R N Z,5b50677cc5e0cb0001bda255,47,Kobieta,2022-06-11_09h22.49.766,task,2021.1.4,Win32,60.0024001,6299f149e92ead563fba08ef,62a44277d66d387e4a7f2dc5,,,,,,,,,,,,,,,,,,,,,,,,,,,,,,,,,,,,,,,,,,,,,,,,,,,,,,,,,,,,,,,,,,,,,,,,,,,,9,0,9,0,1,,,,,,,,,,,,,,,,,,,,,
,,,,,,,,,,,,5b50677cc5e0cb0001bda255,47,Kobieta,2022-06-11_09h22.49.766,task,2021.1.4,Win32,60.0024001,6299f149e92ead563fba08ef,62a44277d66d387e4a7f2dc5,,,,,,,,,,,,,7,,,,,,,,,,Task,38,(4x6) - 17,7,,,,,,,,,,,,,,,,,,,1,,,,,,,,,,,,,,,,,,,,,,,"[""7""]",1,[3.3612000000476883],0,0,0,37,1,,,,,,,,,,,,,,,,,,,,,,,,,,
,,,,,,,,,,,X V Q F H G B L J M P D K C T S W R N Z,5b50677cc5e0cb0001bda255,47,Kobieta,2022-06-11_09h22.49.766,task,2021.1.4,Win32,60.0024001,6299f149e92ead563fba08ef,62a44277d66d387e4a7f2dc5,,,,,,,,,,,,,,,,,,,,,,,,,,,,,,,,,,,,,,,,,,,,,,,,,,,,,,,,,,,,,,,,,,,,,,,,,,,,10,0,10,0,1,,,,,,,,,,,,,,,,,,,,,
,,,,,,,,,,,,5b50677cc5e0cb0001bda255,47,Kobieta,2022-06-11_09h22.49.766,task,2021.1.4,Win32,60.0024001,6299f149e92ead563fba08ef,62a44277d66d387e4a7f2dc5,,,,,,,,,,,,,,,,,,,,,,,,,,,,,,,,,,,,,,,,,,,,,,,,,,,,,,,,,,,,,,,,,,,,,,,,,,,,,,,,,wpwhstfhqfl,"[""w"",""p"",""w"",""h"",""s"",""t"",""f"",""h"",""q"",""f"",""l""]",0,"[3.0646000001429456,3.66410000014298,4.9649000000953265,5.58329999995226,7.117400000095358,7.934799999952247,8.95770000004768,10.028900000095291,11.628900000095314,12.169900000095367,12.772499999999923,13.486700000047676]",1,WPWHSTFHQFL,11,0,11,0,1,,,,,,,,,,
,,,,,,,,,,,,5b50677cc5e0cb0001bda255,47,Kobieta,2022-06-11_09h22.49.766,task,2021.1.4,Win32,60.0024001,6299f149e92ead563fba08ef,62a44277d66d387e4a7f2dc5,,,,,,,,,,,,,6,,,,,,,,,,Task,30,(6/3) + 4 ,6,,,,,,,,,,,,,,,,,,,1,,,,,,,,,,,,,,,,,,,,,,,"[""6""]",1,[2.7217999999522817],0,0,0,29,1,,,,,,,,,,,,,,,,,,,,,,,,,,
,,,,,,,,,,,X V Q F H G B L J M P D K C T S W R N Z,5b50677cc5e0cb0001bda255,47,Kobieta,2022-06-11_09h22.49.766,task,2021.1.4,Win32,60.0024001,6299f149e92ead563fba08ef,62a44277d66d387e4a7f2dc5,,,,,,,,,,,,,,,,,,,,,,,,,,,,,,,,,,,,,,,,,,,,,,,,,,,,,,,,,,,,,,,,,,,,,,,,,,,,0,0,0,0,1,,,,,,,,,,,,,,,,,,,,,
,,,,,,,,,,,,5b50677cc5e0cb0001bda255,47,Kobieta,2022-06-11_09h22.49.766,task,2021.1.4,Win32,60.0024001,6299f149e92ead563fba08ef,62a44277d66d387e4a7f2dc5,,,,,,,,,,,,,9,,,,,,,,,,Task,40,(7x2) - 5,9,,,,,,,,,,,,,,,,,,,1,,,,,,,,,,,,,,,,,,,,,,,"[""9""]",1,[1.9212000000476337],0,0,0,39,1,,,,,,,,,,,,,,,,,,,,,,,,,,
,,,,,,,,,,,X V Q F H G B L J M P D K C T S W R N Z,5b50677cc5e0cb0001bda255,47,Kobieta,2022-06-11_09h22.49.766,task,2021.1.4,Win32,60.0024001,6299f149e92ead563fba08ef,62a44277d66d387e4a7f2dc5,,,,,,,,,,,,,,,,,,,,,,,,,,,,,,,,,,,,,,,,,,,,,,,,,,,,,,,,,,,,,,,,,,,,,,,,,,,,1,0,1,0,1,,,,,,,,,,,,,,,,,,,,,
,,,,,,,,,,,,5b50677cc5e0cb0001bda255,47,Kobieta,2022-06-11_09h22.49.766,task,2021.1.4,Win32,60.0024001,6299f149e92ead563fba08ef,62a44277d66d387e4a7f2dc5,,,,,,,,,,,,,7,,,,,,,,,,Task,31,(4/2) + 5,7,,,,,,,,,,,,,,,,,,,1,,,,,,,,,,,,,,,,,,,,,,,"[""7""]",1,[1.9139999999999873],0,0,0,30,1,,,,,,,,,,,,,,,,,,,,,,,,,,
,,,,,,,,,,,X V Q F H G B L J M P D K C T S W R N Z,5b50677cc5e0cb0001bda255,47,Kobieta,2022-06-11_09h22.49.766,task,2021.1.4,Win32,60.0024001,6299f149e92ead563fba08ef,62a44277d66d387e4a7f2dc5,,,,,,,,,,,,,,,,,,,,,,,,,,,,,,,,,,,,,,,,,,,,,,,,,,,,,,,,,,,,,,,,,,,,,,,,,,,,2,0,2,0,1,,,,,,,,,,,,,,,,,,,,,
,,,,,,,,,,,,5b50677cc5e0cb0001bda255,47,Kobieta,2022-06-11_09h22.49.766,task,2021.1.4,Win32,60.0024001,6299f149e92ead563fba08ef,62a44277d66d387e4a7f2dc5,,,,,,,,,,,,,1,,,,,,,,,,Task,18,(16/4) - 3,1,,,,,,,,,,,,,,,,,,,1,,,,,,,,,,,,,,,,,,,,,,,"[""1""]",1,[1.7037999999523663],0,0,0,17,1,,,,,,,,,,,,,,,,,,,,,,,,,,
,,,,,,,,,,,X V Q F H G B L J M P D K C T S W R N Z,5b50677cc5e0cb0001bda255,47,Kobieta,2022-06-11_09h22.49.766,task,2021.1.4,Win32,60.0024001,6299f149e92ead563fba08ef,62a44277d66d387e4a7f2dc5,,,,,,,,,,,,,,,,,,,,,,,,,,,,,,,,,,,,,,,,,,,,,,,,,,,,,,,,,,,,,,,,,,,,,,,,,,,,3,0,3,0,1,,,,,,,,,,,,,,,,,,,,,
,,,,,,,,,,,,5b50677cc5e0cb0001bda255,47,Kobieta,2022-06-11_09h22.49.766,task,2021.1.4,Win32,60.0024001,6299f149e92ead563fba08ef,62a44277d66d387e4a7f2dc5,,,,,,,,,,,,,6,,,,,,,,,,Task,13,(3x4) - 6,6,,,,,,,,,,,,,,,,,,,1,,,,,,,,,,,,,,,,,,,,,,,"[""6""]",1,[1.8740000000000236],0,0,0,12,1,,,,,,,,,,,,,,,,,,,,,,,,,,
,,,,,,,,,,,X V Q F H G B L J M P D K C T S W R N Z,5b50677cc5e0cb0001bda255,47,Kobieta,2022-06-11_09h22.49.766,task,2021.1.4,Win32,60.0024001,6299f149e92ead563fba08ef,62a44277d66d387e4a7f2dc5,,,,,,,,,,,,,,,,,,,,,,,,,,,,,,,,,,,,,,,,,,,,,,,,,,,,,,,,,,,,,,,,,,,,,,,,,,,,4,0,4,0,1,,,,,,,,,,,,,,,,,,,,,
,,,,,,,,,,,,5b50677cc5e0cb0001bda255,47,Kobieta,2022-06-11_09h22.49.766,task,2021.1.4,Win32,60.0024001,6299f149e92ead563fba08ef,62a44277d66d387e4a7f2dc5,,,,,,,,,,,,,6,,,,,,,,,,Task,13,(3x4) - 6,6,,,,,,,,,,,,,,,,,,,1,,,,,,,,,,,,,,,,,,,,,,,"[""6""]",1,[2.198300000190784],0,0,0,12,1,,,,,,,,,,,,,,,,,,,,,,,,,,
,,,,,,,,,,,X V Q F H G B L J M P D K C T S W R N Z,5b50677cc5e0cb0001bda255,47,Kobieta,2022-06-11_09h22.49.766,task,2021.1.4,Win32,60.0024001,6299f149e92ead563fba08ef,62a44277d66d387e4a7f2dc5,,,,,,,,,,,,,,,,,,,,,,,,,,,,,,,,,,,,,,,,,,,,,,,,,,,,,,,,,,,,,,,,,,,,,,,,,,,,5,0,5,0,1,,,,,,,,,,,,,,,,,,,,,
,,,,,,,,,,,,5b50677cc5e0cb0001bda255,47,Kobieta,2022-06-11_09h22.49.766,task,2021.1.4,Win32,60.0024001,6299f149e92ead563fba08ef,62a44277d66d387e4a7f2dc5,,,,,,,,,,,,,9,,,,,,,,,,Task,7,(3x7) - 12,9,,,,,,,,,,,,,,,,,,,1,,,,,,,,,,,,,,,,,,,,,,,"[""9""]",1,[2.2522000000477647],0,0,0,6,1,,,,,,,,,,,,,,,,,,,,,,,,,,
,,,,,,,,,,,X V Q F H G B L J M P D K C T S W R N Z,5b50677cc5e0cb0001bda255,47,Kobieta,2022-06-11_09h22.49.766,task,2021.1.4,Win32,60.0024001,6299f149e92ead563fba08ef,62a44277d66d387e4a7f2dc5,,,,,,,,,,,,,,,,,,,,,,,,,,,,,,,,,,,,,,,,,,,,,,,,,,,,,,,,,,,,,,,,,,,,,,,,,,,,6,0,6,0,1,,,,,,,,,,,,,,,,,,,,,
,,,,,,,,,,,,5b50677cc5e0cb0001bda255,47,Kobieta,2022-06-11_09h22.49.766,task,2021.1.4,Win32,60.0024001,6299f149e92ead563fba08ef,62a44277d66d387e4a7f2dc5,,,,,,,,,,,,,7,,,,,,,,,,Task,6,(12/2) + 1,7,,,,,,,,,,,,,,,,,,,1,,,,,,,,,,,,,,,,,,,,,,,"[""7""]",1,[1.6672000000476146],0,0,0,5,1,,,,,,,,,,,,,,,,,,,,,,,,,,
,,,,,,,,,,,X V Q F H G B L J M P D K C T S W R N Z,5b50677cc5e0cb0001bda255,47,Kobieta,2022-06-11_09h22.49.766,task,2021.1.4,Win32,60.0024001,6299f149e92ead563fba08ef,62a44277d66d387e4a7f2dc5,,,,,,,,,,,,,,,,,,,,,,,,,,,,,,,,,,,,,,,,,,,,,,,,,,,,,,,,,,,,,,,,,,,,,,,,,,,,7,0,7,0,1,,,,,,,,,,,,,,,,,,,,,
,,,,,,,,,,,,5b50677cc5e0cb0001bda255,47,Kobieta,2022-06-11_09h22.49.766,task,2021.1.4,Win32,60.0024001,6299f149e92ead563fba08ef,62a44277d66d387e4a7f2dc5,,,,,,,,,,,,,7,,,,,,,,,,Task,38,(4x6) - 17,7,,,,,,,,,,,,,,,,,,,1,,,,,,,,,,,,,,,,,,,,,,,"[""7""]",1,[3.25029999995229],0,0,0,37,1,,,,,,,,,,,,,,,,,,,,,,,,,,
,,,,,,,,,,,X V Q F H G B L J M P D K C T S W R N Z,5b50677cc5e0cb0001bda255,47,Kobieta,2022-06-11_09h22.49.766,task,2021.1.4,Win32,60.0024001,6299f149e92ead563fba08ef,62a44277d66d387e4a7f2dc5,,,,,,,,,,,,,,,,,,,,,,,,,,,,,,,,,,,,,,,,,,,,,,,,,,,,,,,,,,,,,,,,,,,,,,,,,,,,8,0,8,0,1,,,,,,,,,,,,,,,,,,,,,
