key_resp_15.keys,key_resp_15.rt,key_resp_13.keys,key_resp_13.corr,ranodm_loop.thisRepN,ranodm_loop.thisTrialN,ranodm_loop.thisN,ranodm_loop.thisIndex,ranodm_loop.ran,participant,Wiek*,Płeć,date,expName,psychopyVersion,OS,frameRate,study_id,session,key_resp_13.rt,key_resp_16.keys,key_resp_16.rt,key_resp_4.keys,key_resp_4.rt,next_letter.thisRepN,next_letter.thisTrialN,next_letter.thisN,next_letter.thisIndex,next_letter.ran,letter,simple_recall,key_resp_5.keys,key_resp_5.rt,simple_recall_corr,simple_recall_corrkeys,next_level.thisRepN,next_level.thisTrialN,next_level.thisN,next_level.thisIndex,next_level.ran,key_resp_2.keys,key_resp_2.rt,digit_answer,key_resp.keys,key_resp.corr,key_resp.rt,RT_list,next_equation.thisRepN,next_equation.thisTrialN,next_equation.thisN,next_equation.thisIndex,next_equation.ran,Task,Trial,Problem,Operation_answer,processing_score,sumRT,meanRT,sumdiff,sd,RT,key_resp_3.keys,key_resp_3.rt,repeat_practice.thisRepN,repeat_practice.thisTrialN,repeat_practice.thisN,repeat_practice.thisIndex,repeat_practice.ran,key_resp_6.keys,key_resp_6.rt,key_resp_11.keys,key_resp_11.corr,key_resp_11.rt,operation_correct,repeat_if_wrong_prac.thisRepN,repeat_if_wrong_prac.thisTrialN,repeat_if_wrong_prac.thisN,repeat_if_wrong_prac.thisIndex,repeat_if_wrong_prac.ran,span_size_prac.thisRepN,span_size_prac.thisTrialN,span_size_prac.thisN,span_size_prac.thisIndex,span_size_prac.ran,complex_recall_practice,key_resp_9.keys,key_resp_9.corr,key_resp_9.rt,complex_prac_corr,span_recall_prac.thisRepN,span_recall_prac.thisTrialN,span_recall_prac.thisN,span_recall_prac.thisIndex,span_recall_prac.ran,key_resp_10.keys,key_resp_10.rt,key_resp_7.keys,key_resp_7.corr,key_resp_7.rt,repeat_if_wrong.thisRepN,repeat_if_wrong.thisTrialN,repeat_if_wrong.thisN,repeat_if_wrong.thisIndex,repeat_if_wrong.ran,span_size.thisRepN,span_size.thisTrialN,span_size.thisN,span_size.thisIndex,span_size.ran,complex_recall,key_resp_8.keys,key_resp_8.corr,key_resp_8.rt,complex_recall_corr,complex_recall_corrkeys,span_recall.thisRepN,span_recall.thisTrialN,span_recall.thisN,span_recall.thisIndex,span_recall.ran,key_resp_12.keys,key_resp_12.rt
space,33.4713,,0,0,0,0,0,1,5b8646582c180900019c9eb7,26,Kobieta,2022-05-28_09h28.13.934,task,2021.1.4,Win32,142.4298533,628b806c463b948bc644b84f,6291cf01829664820f82c4dd,,,,,,,,,,,,,,,,,,,,,,,,,,,,,,,,,,,,,,,,,,,,,,,,,,,,,,,,,,,,,,,,,,,,,,,,,,,,,,,,,,,,,,,,,,,,,,,,,,,,,,,,
,,"[""comma""]",0,1,0,1,0,1,5b8646582c180900019c9eb7,26,Kobieta,2022-05-28_09h28.13.934,task,2021.1.4,Win32,142.4298533,628b806c463b948bc644b84f,6291cf01829664820f82c4dd,[0.6116999999880903],,,,,,,,,,,,,,,,,,,,,,,,,,,,,,,,,,,,,,,,,,,,,,,,,,,,,,,,,,,,,,,,,,,,,,,,,,,,,,,,,,,,,,,,,,,,,,,,,,,,,,,
,,"[""period""]",0,2,0,2,0,1,5b8646582c180900019c9eb7,26,Kobieta,2022-05-28_09h28.13.934,task,2021.1.4,Win32,142.4298533,628b806c463b948bc644b84f,6291cf01829664820f82c4dd,[0.6963000000119166],,,,,,,,,,,,,,,,,,,,,,,,,,,,,,,,,,,,,,,,,,,,,,,,,,,,,,,,,,,,,,,,,,,,,,,,,,,,,,,,,,,,,,,,,,,,,,,,,,,,,,,
,,"[""period""]",0,3,0,3,0,1,5b8646582c180900019c9eb7,26,Kobieta,2022-05-28_09h28.13.934,task,2021.1.4,Win32,142.4298533,628b806c463b948bc644b84f,6291cf01829664820f82c4dd,[1.0418999999761667],,,,,,,,,,,,,,,,,,,,,,,,,,,,,,,,,,,,,,,,,,,,,,,,,,,,,,,,,,,,,,,,,,,,,,,,,,,,,,,,,,,,,,,,,,,,,,,,,,,,,,,
,,"[""comma""]",0,4,0,4,0,1,5b8646582c180900019c9eb7,26,Kobieta,2022-05-28_09h28.13.934,task,2021.1.4,Win32,142.4298533,628b806c463b948bc644b84f,6291cf01829664820f82c4dd,[0.5421000000238507],,,,,,,,,,,,,,,,,,,,,,,,,,,,,,,,,,,,,,,,,,,,,,,,,,,,,,,,,,,,,,,,,,,,,,,,,,,,,,,,,,,,,,,,,,,,,,,,,,,,,,,
,,"[""comma""]",0,5,0,5,0,1,5b8646582c180900019c9eb7,26,Kobieta,2022-05-28_09h28.13.934,task,2021.1.4,Win32,142.4298533,628b806c463b948bc644b84f,6291cf01829664820f82c4dd,[0.3545000000000016],,,,,,,,,,,,,,,,,,,,,,,,,,,,,,,,,,,,,,,,,,,,,,,,,,,,,,,,,,,,,,,,,,,,,,,,,,,,,,,,,,,,,,,,,,,,,,,,,,,,,,,
,,"[""period""]",0,6,0,6,0,1,5b8646582c180900019c9eb7,26,Kobieta,2022-05-28_09h28.13.934,task,2021.1.4,Win32,142.4298533,628b806c463b948bc644b84f,6291cf01829664820f82c4dd,[0.3546999999880853],,,,,,,,,,,,,,,,,,,,,,,,,,,,,,,,,,,,,,,,,,,,,,,,,,,,,,,,,,,,,,,,,,,,,,,,,,,,,,,,,,,,,,,,,,,,,,,,,,,,,,,
,,"[""period""]",0,7,0,7,0,1,5b8646582c180900019c9eb7,26,Kobieta,2022-05-28_09h28.13.934,task,2021.1.4,Win32,142.4298533,628b806c463b948bc644b84f,6291cf01829664820f82c4dd,[0.2295000000000016],,,,,,,,,,,,,,,,,,,,,,,,,,,,,,,,,,,,,,,,,,,,,,,,,,,,,,,,,,,,,,,,,,,,,,,,,,,,,,,,,,,,,,,,,,,,,,,,,,,,,,,
,,"[""period""]",0,8,0,8,0,1,5b8646582c180900019c9eb7,26,Kobieta,2022-05-28_09h28.13.934,task,2021.1.4,Win32,142.4298533,628b806c463b948bc644b84f,6291cf01829664820f82c4dd,[0.2236999999880851],,,,,,,,,,,,,,,,,,,,,,,,,,,,,,,,,,,,,,,,,,,,,,,,,,,,,,,,,,,,,,,,,,,,,,,,,,,,,,,,,,,,,,,,,,,,,,,,,,,,,,,
,,"[""comma""]",0,9,0,9,0,1,5b8646582c180900019c9eb7,26,Kobieta,2022-05-28_09h28.13.934,task,2021.1.4,Win32,142.4298533,628b806c463b948bc644b84f,6291cf01829664820f82c4dd,[0.22989999997615485],,,,,,,,,,,,,,,,,,,,,,,,,,,,,,,,,,,,,,,,,,,,,,,,,,,,,,,,,,,,,,,,,,,,,,,,,,,,,,,,,,,,,,,,,,,,,,,,,,,,,,,
,,"[""period"",""comma""]",0,10,0,10,0,1,5b8646582c180900019c9eb7,26,Kobieta,2022-05-28_09h28.13.934,task,2021.1.4,Win32,142.4298533,628b806c463b948bc644b84f,6291cf01829664820f82c4dd,"[0.1809000000357628,1.694500000000005]",,,,,,,,,,,,,,,,,,,,,,,,,,,,,,,,,,,,,,,,,,,,,,,,,,,,,,,,,,,,,,,,,,,,,,,,,,,,,,,,,,,,,,,,,,,,,,,,,,,,,,,
,,,0,11,0,11,0,1,5b8646582c180900019c9eb7,26,Kobieta,2022-05-28_09h28.13.934,task,2021.1.4,Win32,142.4298533,628b806c463b948bc644b84f,6291cf01829664820f82c4dd,,,,,,,,,,,,,,,,,,,,,,,,,,,,,,,,,,,,,,,,,,,,,,,,,,,,,,,,,,,,,,,,,,,,,,,,,,,,,,,,,,,,,,,,,,,,,,,,,,,,,,,,
,,"[""period""]",0,12,0,12,0,1,5b8646582c180900019c9eb7,26,Kobieta,2022-05-28_09h28.13.934,task,2021.1.4,Win32,142.4298533,628b806c463b948bc644b84f,6291cf01829664820f82c4dd,[0.2388000000119206],,,,,,,,,,,,,,,,,,,,,,,,,,,,,,,,,,,,,,,,,,,,,,,,,,,,,,,,,,,,,,,,,,,,,,,,,,,,,,,,,,,,,,,,,,,,,,,,,,,,,,,
,,"[""period""]",0,13,0,13,0,1,5b8646582c180900019c9eb7,26,Kobieta,2022-05-28_09h28.13.934,task,2021.1.4,Win32,142.4298533,628b806c463b948bc644b84f,6291cf01829664820f82c4dd,[0.22440000003575733],,,,,,,,,,,,,,,,,,,,,,,,,,,,,,,,,,,,,,,,,,,,,,,,,,,,,,,,,,,,,,,,,,,,,,,,,,,,,,,,,,,,,,,,,,,,,,,,,,,,,,,
,,"[""period""]",0,14,0,14,0,1,5b8646582c180900019c9eb7,26,Kobieta,2022-05-28_09h28.13.934,task,2021.1.4,Win32,142.4298533,628b806c463b948bc644b84f,6291cf01829664820f82c4dd,[0.21810000002383845],,,,,,,,,,,,,,,,,,,,,,,,,,,,,,,,,,,,,,,,,,,,,,,,,,,,,,,,,,,,,,,,,,,,,,,,,,,,,,,,,,,,,,,,,,,,,,,,,,,,,,,
,,"[""comma""]",0,15,0,15,0,1,5b8646582c180900019c9eb7,26,Kobieta,2022-05-28_09h28.13.934,task,2021.1.4,Win32,142.4298533,628b806c463b948bc644b84f,6291cf01829664820f82c4dd,[0.20480000001191456],,,,,,,,,,,,,,,,,,,,,,,,,,,,,,,,,,,,,,,,,,,,,,,,,,,,,,,,,,,,,,,,,,,,,,,,,,,,,,,,,,,,,,,,,,,,,,,,,,,,,,,
,,"[""comma""]",0,16,0,16,0,1,5b8646582c180900019c9eb7,26,Kobieta,2022-05-28_09h28.13.934,task,2021.1.4,Win32,142.4298533,628b806c463b948bc644b84f,6291cf01829664820f82c4dd,[0.03849999999999909],,,,,,,,,,,,,,,,,,,,,,,,,,,,,,,,,,,,,,,,,,,,,,,,,,,,,,,,,,,,,,,,,,,,,,,,,,,,,,,,,,,,,,,,,,,,,,,,,,,,,,,
,,"[""period"",""comma""]",0,17,0,17,0,1,5b8646582c180900019c9eb7,26,Kobieta,2022-05-28_09h28.13.934,task,2021.1.4,Win32,142.4298533,628b806c463b948bc644b84f,6291cf01829664820f82c4dd,"[0.3160000000000025,1.8543999999761525]",,,,,,,,,,,,,,,,,,,,,,,,,,,,,,,,,,,,,,,,,,,,,,,,,,,,,,,,,,,,,,,,,,,,,,,,,,,,,,,,,,,,,,,,,,,,,,,,,,,,,,,
,,,0,18,0,18,0,1,5b8646582c180900019c9eb7,26,Kobieta,2022-05-28_09h28.13.934,task,2021.1.4,Win32,142.4298533,628b806c463b948bc644b84f,6291cf01829664820f82c4dd,,,,,,,,,,,,,,,,,,,,,,,,,,,,,,,,,,,,,,,,,,,,,,,,,,,,,,,,,,,,,,,,,,,,,,,,,,,,,,,,,,,,,,,,,,,,,,,,,,,,,,,,
,,"[""period""]",0,19,0,19,0,1,5b8646582c180900019c9eb7,26,Kobieta,2022-05-28_09h28.13.934,task,2021.1.4,Win32,142.4298533,628b806c463b948bc644b84f,6291cf01829664820f82c4dd,[0.1875],,,,,,,,,,,,,,,,,,,,,,,,,,,,,,,,,,,,,,,,,,,,,,,,,,,,,,,,,,,,,,,,,,,,,,,,,,,,,,,,,,,,,,,,,,,,,,,,,,,,,,,
,,"[""comma""]",0,20,0,20,0,1,5b8646582c180900019c9eb7,26,Kobieta,2022-05-28_09h28.13.934,task,2021.1.4,Win32,142.4298533,628b806c463b948bc644b84f,6291cf01829664820f82c4dd,[0.222500000000025],,,,,,,,,,,,,,,,,,,,,,,,,,,,,,,,,,,,,,,,,,,,,,,,,,,,,,,,,,,,,,,,,,,,,,,,,,,,,,,,,,,,,,,,,,,,,,,,,,,,,,,
,,"[""comma""]",0,21,0,21,0,1,5b8646582c180900019c9eb7,26,Kobieta,2022-05-28_09h28.13.934,task,2021.1.4,Win32,142.4298533,628b806c463b948bc644b84f,6291cf01829664820f82c4dd,[0.24339999997616246],,,,,,,,,,,,,,,,,,,,,,,,,,,,,,,,,,,,,,,,,,,,,,,,,,,,,,,,,,,,,,,,,,,,,,,,,,,,,,,,,,,,,,,,,,,,,,,,,,,,,,,
,,"[""period""]",0,22,0,22,0,1,5b8646582c180900019c9eb7,26,Kobieta,2022-05-28_09h28.13.934,task,2021.1.4,Win32,142.4298533,628b806c463b948bc644b84f,6291cf01829664820f82c4dd,[0.25849999999999795],,,,,,,,,,,,,,,,,,,,,,,,,,,,,,,,,,,,,,,,,,,,,,,,,,,,,,,,,,,,,,,,,,,,,,,,,,,,,,,,,,,,,,,,,,,,,,,,,,,,,,,
,,"[""period""]",0,23,0,23,0,1,5b8646582c180900019c9eb7,26,Kobieta,2022-05-28_09h28.13.934,task,2021.1.4,Win32,142.4298533,628b806c463b948bc644b84f,6291cf01829664820f82c4dd,[0.21939999997616155],,,,,,,,,,,,,,,,,,,,,,,,,,,,,,,,,,,,,,,,,,,,,,,,,,,,,,,,,,,,,,,,,,,,,,,,,,,,,,,,,,,,,,,,,,,,,,,,,,,,,,,
,,"[""comma""]",0,24,0,24,0,1,5b8646582c180900019c9eb7,26,Kobieta,2022-05-28_09h28.13.934,task,2021.1.4,Win32,142.4298533,628b806c463b948bc644b84f,6291cf01829664820f82c4dd,[0.15010000002385482],,,,,,,,,,,,,,,,,,,,,,,,,,,,,,,,,,,,,,,,,,,,,,,,,,,,,,,,,,,,,,,,,,,,,,,,,,,,,,,,,,,,,,,,,,,,,,,,,,,,,,,
,,"[""comma""]",0,25,0,25,0,1,5b8646582c180900019c9eb7,26,Kobieta,2022-05-28_09h28.13.934,task,2021.1.4,Win32,142.4298533,628b806c463b948bc644b84f,6291cf01829664820f82c4dd,[0.3474999999999966],,,,,,,,,,,,,,,,,,,,,,,,,,,,,,,,,,,,,,,,,,,,,,,,,,,,,,,,,,,,,,,,,,,,,,,,,,,,,,,,,,,,,,,,,,,,,,,,,,,,,,,
,,"[""period""]",0,26,0,26,0,1,5b8646582c180900019c9eb7,26,Kobieta,2022-05-28_09h28.13.934,task,2021.1.4,Win32,142.4298533,628b806c463b948bc644b84f,6291cf01829664820f82c4dd,[0.368599999964232],,,,,,,,,,,,,,,,,,,,,,,,,,,,,,,,,,,,,,,,,,,,,,,,,,,,,,,,,,,,,,,,,,,,,,,,,,,,,,,,,,,,,,,,,,,,,,,,,,,,,,,
,,"[""period""]",0,27,0,27,0,1,5b8646582c180900019c9eb7,26,Kobieta,2022-05-28_09h28.13.934,task,2021.1.4,Win32,142.4298533,628b806c463b948bc644b84f,6291cf01829664820f82c4dd,[0.3395999999642356],,,,,,,,,,,,,,,,,,,,,,,,,,,,,,,,,,,,,,,,,,,,,,,,,,,,,,,,,,,,,,,,,,,,,,,,,,,,,,,,,,,,,,,,,,,,,,,,,,,,,,,
,,"[""period""]",0,28,0,28,0,1,5b8646582c180900019c9eb7,26,Kobieta,2022-05-28_09h28.13.934,task,2021.1.4,Win32,142.4298533,628b806c463b948bc644b84f,6291cf01829664820f82c4dd,[0.2711000000238357],,,,,,,,,,,,,,,,,,,,,,,,,,,,,,,,,,,,,,,,,,,,,,,,,,,,,,,,,,,,,,,,,,,,,,,,,,,,,,,,,,,,,,,,,,,,,,,,,,,,,,,
,,"[""comma""]",0,29,0,29,0,1,5b8646582c180900019c9eb7,26,Kobieta,2022-05-28_09h28.13.934,task,2021.1.4,Win32,142.4298533,628b806c463b948bc644b84f,6291cf01829664820f82c4dd,[0.23290000003575528],,,,,,,,,,,,,,,,,,,,,,,,,,,,,,,,,,,,,,,,,,,,,,,,,,,,,,,,,,,,,,,,,,,,,,,,,,,,,,,,,,,,,,,,,,,,,,,,,,,,,,,
,,"[""comma""]",0,30,0,30,0,1,5b8646582c180900019c9eb7,26,Kobieta,2022-05-28_09h28.13.934,task,2021.1.4,Win32,142.4298533,628b806c463b948bc644b84f,6291cf01829664820f82c4dd,[0.31280000001191866],,,,,,,,,,,,,,,,,,,,,,,,,,,,,,,,,,,,,,,,,,,,,,,,,,,,,,,,,,,,,,,,,,,,,,,,,,,,,,,,,,,,,,,,,,,,,,,,,,,,,,,
,,"[""period""]",0,31,0,31,0,1,5b8646582c180900019c9eb7,26,Kobieta,2022-05-28_09h28.13.934,task,2021.1.4,Win32,142.4298533,628b806c463b948bc644b84f,6291cf01829664820f82c4dd,[0.6760999999642365],,,,,,,,,,,,,,,,,,,,,,,,,,,,,,,,,,,,,,,,,,,,,,,,,,,,,,,,,,,,,,,,,,,,,,,,,,,,,,,,,,,,,,,,,,,,,,,,,,,,,,,
,,"[""period""]",0,32,0,32,0,1,5b8646582c180900019c9eb7,26,Kobieta,2022-05-28_09h28.13.934,task,2021.1.4,Win32,142.4298533,628b806c463b948bc644b84f,6291cf01829664820f82c4dd,[0.4099999999999966],,,,,,,,,,,,,,,,,,,,,,,,,,,,,,,,,,,,,,,,,,,,,,,,,,,,,,,,,,,,,,,,,,,,,,,,,,,,,,,,,,,,,,,,,,,,,,,,,,,,,,,
,,"[""comma""]",0,33,0,33,0,1,5b8646582c180900019c9eb7,26,Kobieta,2022-05-28_09h28.13.934,task,2021.1.4,Win32,142.4298533,628b806c463b948bc644b84f,6291cf01829664820f82c4dd,[0.3336000000238357],,,,,,,,,,,,,,,,,,,,,,,,,,,,,,,,,,,,,,,,,,,,,,,,,,,,,,,,,,,,,,,,,,,,,,,,,,,,,,,,,,,,,,,,,,,,,,,,,,,,,,,
,,"[""period""]",0,34,0,34,0,1,5b8646582c180900019c9eb7,26,Kobieta,2022-05-28_09h28.13.934,task,2021.1.4,Win32,142.4298533,628b806c463b948bc644b84f,6291cf01829664820f82c4dd,[0.26669999998807725],,,,,,,,,,,,,,,,,,,,,,,,,,,,,,,,,,,,,,,,,,,,,,,,,,,,,,,,,,,,,,,,,,,,,,,,,,,,,,,,,,,,,,,,,,,,,,,,,,,,,,,
,,"[""comma""]",0,35,0,35,0,1,5b8646582c180900019c9eb7,26,Kobieta,2022-05-28_09h28.13.934,task,2021.1.4,Win32,142.4298533,628b806c463b948bc644b84f,6291cf01829664820f82c4dd,[0.19730000001192138],,,,,,,,,,,,,,,,,,,,,,,,,,,,,,,,,,,,,,,,,,,,,,,,,,,,,,,,,,,,,,,,,,,,,,,,,,,,,,,,,,,,,,,,,,,,,,,,,,,,,,,
,,"[""period""]",0,36,0,36,0,1,5b8646582c180900019c9eb7,26,Kobieta,2022-05-28_09h28.13.934,task,2021.1.4,Win32,142.4298533,628b806c463b948bc644b84f,6291cf01829664820f82c4dd,[0.2874000000357455],,,,,,,,,,,,,,,,,,,,,,,,,,,,,,,,,,,,,,,,,,,,,,,,,,,,,,,,,,,,,,,,,,,,,,,,,,,,,,,,,,,,,,,,,,,,,,,,,,,,,,,
,,"[""period""]",0,37,0,37,0,1,5b8646582c180900019c9eb7,26,Kobieta,2022-05-28_09h28.13.934,task,2021.1.4,Win32,142.4298533,628b806c463b948bc644b84f,6291cf01829664820f82c4dd,[0.2668000000119264],,,,,,,,,,,,,,,,,,,,,,,,,,,,,,,,,,,,,,,,,,,,,,,,,,,,,,,,,,,,,,,,,,,,,,,,,,,,,,,,,,,,,,,,,,,,,,,,,,,,,,,
,,"[""comma""]",0,38,0,38,0,1,5b8646582c180900019c9eb7,26,Kobieta,2022-05-28_09h28.13.934,task,2021.1.4,Win32,142.4298533,628b806c463b948bc644b84f,6291cf01829664820f82c4dd,[0.23669999998807612],,,,,,,,,,,,,,,,,,,,,,,,,,,,,,,,,,,,,,,,,,,,,,,,,,,,,,,,,,,,,,,,,,,,,,,,,,,,,,,,,,,,,,,,,,,,,,,,,,,,,,,
,,"[""period""]",0,39,0,39,0,1,5b8646582c180900019c9eb7,26,Kobieta,2022-05-28_09h28.13.934,task,2021.1.4,Win32,142.4298533,628b806c463b948bc644b84f,6291cf01829664820f82c4dd,[0.285900000035781],,,,,,,,,,,,,,,,,,,,,,,,,,,,,,,,,,,,,,,,,,,,,,,,,,,,,,,,,,,,,,,,,,,,,,,,,,,,,,,,,,,,,,,,,,,,,,,,,,,,,,,
,,"[""period""]",0,40,0,40,0,1,5b8646582c180900019c9eb7,26,Kobieta,2022-05-28_09h28.13.934,task,2021.1.4,Win32,142.4298533,628b806c463b948bc644b84f,6291cf01829664820f82c4dd,[0.24120000004768372],,,,,,,,,,,,,,,,,,,,,,,,,,,,,,,,,,,,,,,,,,,,,,,,,,,,,,,,,,,,,,,,,,,,,,,,,,,,,,,,,,,,,,,,,,,,,,,,,,,,,,,
,,"[""comma"",""period""]",0,41,0,41,0,1,5b8646582c180900019c9eb7,26,Kobieta,2022-05-28_09h28.13.934,task,2021.1.4,Win32,142.4298533,628b806c463b948bc644b84f,6291cf01829664820f82c4dd,"[0.22920000004768326,1.521900000035771]",,,,,,,,,,,,,,,,,,,,,,,,,,,,,,,,,,,,,,,,,,,,,,,,,,,,,,,,,,,,,,,,,,,,,,,,,,,,,,,,,,,,,,,,,,,,,,,,,,,,,,,
,,,0,42,0,42,0,1,5b8646582c180900019c9eb7,26,Kobieta,2022-05-28_09h28.13.934,task,2021.1.4,Win32,142.4298533,628b806c463b948bc644b84f,6291cf01829664820f82c4dd,,,,,,,,,,,,,,,,,,,,,,,,,,,,,,,,,,,,,,,,,,,,,,,,,,,,,,,,,,,,,,,,,,,,,,,,,,,,,,,,,,,,,,,,,,,,,,,,,,,,,,,,
,,"[""comma""]",0,43,0,43,0,1,5b8646582c180900019c9eb7,26,Kobieta,2022-05-28_09h28.13.934,task,2021.1.4,Win32,142.4298533,628b806c463b948bc644b84f,6291cf01829664820f82c4dd,[0.17919999998807157],,,,,,,,,,,,,,,,,,,,,,,,,,,,,,,,,,,,,,,,,,,,,,,,,,,,,,,,,,,,,,,,,,,,,,,,,,,,,,,,,,,,,,,,,,,,,,,,,,,,,,,
,,"[""period""]",0,44,0,44,0,1,5b8646582c180900019c9eb7,26,Kobieta,2022-05-28_09h28.13.934,task,2021.1.4,Win32,142.4298533,628b806c463b948bc644b84f,6291cf01829664820f82c4dd,[0.31280000001191866],,,,,,,,,,,,,,,,,,,,,,,,,,,,,,,,,,,,,,,,,,,,,,,,,,,,,,,,,,,,,,,,,,,,,,,,,,,,,,,,,,,,,,,,,,,,,,,,,,,,,,,
,,"[""period""]",0,45,0,45,0,1,5b8646582c180900019c9eb7,26,Kobieta,2022-05-28_09h28.13.934,task,2021.1.4,Win32,142.4298533,628b806c463b948bc644b84f,6291cf01829664820f82c4dd,[0.2854000000357644],,,,,,,,,,,,,,,,,,,,,,,,,,,,,,,,,,,,,,,,,,,,,,,,,,,,,,,,,,,,,,,,,,,,,,,,,,,,,,,,,,,,,,,,,,,,,,,,,,,,,,,
,,"[""comma""]",0,46,0,46,0,1,5b8646582c180900019c9eb7,26,Kobieta,2022-05-28_09h28.13.934,task,2021.1.4,Win32,142.4298533,628b806c463b948bc644b84f,6291cf01829664820f82c4dd,[0.26089999997614655],,,,,,,,,,,,,,,,,,,,,,,,,,,,,,,,,,,,,,,,,,,,,,,,,,,,,,,,,,,,,,,,,,,,,,,,,,,,,,,,,,,,,,,,,,,,,,,,,,,,,,,
,,"[""comma""]",0,47,0,47,0,1,5b8646582c180900019c9eb7,26,Kobieta,2022-05-28_09h28.13.934,task,2021.1.4,Win32,142.4298533,628b806c463b948bc644b84f,6291cf01829664820f82c4dd,[0.36059999996425063],,,,,,,,,,,,,,,,,,,,,,,,,,,,,,,,,,,,,,,,,,,,,,,,,,,,,,,,,,,,,,,,,,,,,,,,,,,,,,,,,,,,,,,,,,,,,,,,,,,,,,,
,,"[""period"",""comma""]",0,48,0,48,0,1,5b8646582c180900019c9eb7,26,Kobieta,2022-05-28_09h28.13.934,task,2021.1.4,Win32,142.4298533,628b806c463b948bc644b84f,6291cf01829664820f82c4dd,"[0.3901999999880559,1.4237999999523083]",,,,,,,,,,,,,,,,,,,,,,,,,,,,,,,,,,,,,,,,,,,,,,,,,,,,,,,,,,,,,,,,,,,,,,,,,,,,,,,,,,,,,,,,,,,,,,,,,,,,,,,
,,,0,49,0,49,0,1,5b8646582c180900019c9eb7,26,Kobieta,2022-05-28_09h28.13.934,task,2021.1.4,Win32,142.4298533,628b806c463b948bc644b84f,6291cf01829664820f82c4dd,,,,,,,,,,,,,,,,,,,,,,,,,,,,,,,,,,,,,,,,,,,,,,,,,,,,,,,,,,,,,,,,,,,,,,,,,,,,,,,,,,,,,,,,,,,,,,,,,,,,,,,,
,,"[""period""]",0,50,0,50,0,1,5b8646582c180900019c9eb7,26,Kobieta,2022-05-28_09h28.13.934,task,2021.1.4,Win32,142.4298533,628b806c463b948bc644b84f,6291cf01829664820f82c4dd,[0.27120000004768485],,,,,,,,,,,,,,,,,,,,,,,,,,,,,,,,,,,,,,,,,,,,,,,,,,,,,,,,,,,,,,,,,,,,,,,,,,,,,,,,,,,,,,,,,,,,,,,,,,,,,,,
,,"[""comma""]",0,51,0,51,0,1,5b8646582c180900019c9eb7,26,Kobieta,2022-05-28_09h28.13.934,task,2021.1.4,Win32,142.4298533,628b806c463b948bc644b84f,6291cf01829664820f82c4dd,[0.3148999999761486],,,,,,,,,,,,,,,,,,,,,,,,,,,,,,,,,,,,,,,,,,,,,,,,,,,,,,,,,,,,,,,,,,,,,,,,,,,,,,,,,,,,,,,,,,,,,,,,,,,,,,,
,,"[""comma""]",0,52,0,52,0,1,5b8646582c180900019c9eb7,26,Kobieta,2022-05-28_09h28.13.934,task,2021.1.4,Win32,142.4298533,628b806c463b948bc644b84f,6291cf01829664820f82c4dd,[0.1945999999642538],,,,,,,,,,,,,,,,,,,,,,,,,,,,,,,,,,,,,,,,,,,,,,,,,,,,,,,,,,,,,,,,,,,,,,,,,,,,,,,,,,,,,,,,,,,,,,,,,,,,,,,
,,"[""period""]",0,53,0,53,0,1,5b8646582c180900019c9eb7,26,Kobieta,2022-05-28_09h28.13.934,task,2021.1.4,Win32,142.4298533,628b806c463b948bc644b84f,6291cf01829664820f82c4dd,[0.26429999995232833],,,,,,,,,,,,,,,,,,,,,,,,,,,,,,,,,,,,,,,,,,,,,,,,,,,,,,,,,,,,,,,,,,,,,,,,,,,,,,,,,,,,,,,,,,,,,,,,,,,,,,,
,,"[""comma""]",0,54,0,54,0,1,5b8646582c180900019c9eb7,26,Kobieta,2022-05-28_09h28.13.934,task,2021.1.4,Win32,142.4298533,628b806c463b948bc644b84f,6291cf01829664820f82c4dd,[0.2711000000238357],,,,,,,,,,,,,,,,,,,,,,,,,,,,,,,,,,,,,,,,,,,,,,,,,,,,,,,,,,,,,,,,,,,,,,,,,,,,,,,,,,,,,,,,,,,,,,,,,,,,,,,
,,"[""comma""]",0,55,0,55,0,1,5b8646582c180900019c9eb7,26,Kobieta,2022-05-28_09h28.13.934,task,2021.1.4,Win32,142.4298533,628b806c463b948bc644b84f,6291cf01829664820f82c4dd,[0.23799999999999955],,,,,,,,,,,,,,,,,,,,,,,,,,,,,,,,,,,,,,,,,,,,,,,,,,,,,,,,,,,,,,,,,,,,,,,,,,,,,,,,,,,,,,,,,,,,,,,,,,,,,,,
,,"[""period""]",0,56,0,56,0,1,5b8646582c180900019c9eb7,26,Kobieta,2022-05-28_09h28.13.934,task,2021.1.4,Win32,142.4298533,628b806c463b948bc644b84f,6291cf01829664820f82c4dd,[0.29189999997615246],,,,,,,,,,,,,,,,,,,,,,,,,,,,,,,,,,,,,,,,,,,,,,,,,,,,,,,,,,,,,,,,,,,,,,,,,,,,,,,,,,,,,,,,,,,,,,,,,,,,,,,
,,"[""comma""]",0,57,0,57,0,1,5b8646582c180900019c9eb7,26,Kobieta,2022-05-28_09h28.13.934,task,2021.1.4,Win32,142.4298533,628b806c463b948bc644b84f,6291cf01829664820f82c4dd,[0.2955000000000041],,,,,,,,,,,,,,,,,,,,,,,,,,,,,,,,,,,,,,,,,,,,,,,,,,,,,,,,,,,,,,,,,,,,,,,,,,,,,,,,,,,,,,,,,,,,,,,,,,,,,,,
,,"[""period""]",0,58,0,58,0,1,5b8646582c180900019c9eb7,26,Kobieta,2022-05-28_09h28.13.934,task,2021.1.4,Win32,142.4298533,628b806c463b948bc644b84f,6291cf01829664820f82c4dd,[0.639900000035766],,,,,,,,,,,,,,,,,,,,,,,,,,,,,,,,,,,,,,,,,,,,,,,,,,,,,,,,,,,,,,,,,,,,,,,,,,,,,,,,,,,,,,,,,,,,,,,,,,,,,,,
,,"[""comma""]",0,59,0,59,0,1,5b8646582c180900019c9eb7,26,Kobieta,2022-05-28_09h28.13.934,task,2021.1.4,Win32,142.4298533,628b806c463b948bc644b84f,6291cf01829664820f82c4dd,[0.4855000000000018],,,,,,,,,,,,,,,,,,,,,,,,,,,,,,,,,,,,,,,,,,,,,,,,,,,,,,,,,,,,,,,,,,,,,,,,,,,,,,,,,,,,,,,,,,,,,,,,,,,,,,,
,,"[""comma""]",0,60,0,60,0,1,5b8646582c180900019c9eb7,26,Kobieta,2022-05-28_09h28.13.934,task,2021.1.4,Win32,142.4298533,628b806c463b948bc644b84f,6291cf01829664820f82c4dd,[0.21309999996424267],,,,,,,,,,,,,,,,,,,,,,,,,,,,,,,,,,,,,,,,,,,,,,,,,,,,,,,,,,,,,,,,,,,,,,,,,,,,,,,,,,,,,,,,,,,,,,,,,,,,,,,
,,"[""period""]",0,61,0,61,0,1,5b8646582c180900019c9eb7,26,Kobieta,2022-05-28_09h28.13.934,task,2021.1.4,Win32,142.4298533,628b806c463b948bc644b84f,6291cf01829664820f82c4dd,[0.16030000001191524],,,,,,,,,,,,,,,,,,,,,,,,,,,,,,,,,,,,,,,,,,,,,,,,,,,,,,,,,,,,,,,,,,,,,,,,,,,,,,,,,,,,,,,,,,,,,,,,,,,,,,,
,,"[""period""]",0,62,0,62,0,1,5b8646582c180900019c9eb7,26,Kobieta,2022-05-28_09h28.13.934,task,2021.1.4,Win32,142.4298533,628b806c463b948bc644b84f,6291cf01829664820f82c4dd,[0.45189999997614905],,,,,,,,,,,,,,,,,,,,,,,,,,,,,,,,,,,,,,,,,,,,,,,,,,,,,,,,,,,,,,,,,,,,,,,,,,,,,,,,,,,,,,,,,,,,,,,,,,,,,,,
,,"[""comma""]",0,63,0,63,0,1,5b8646582c180900019c9eb7,26,Kobieta,2022-05-28_09h28.13.934,task,2021.1.4,Win32,142.4298533,628b806c463b948bc644b84f,6291cf01829664820f82c4dd,[0.3266999999880795],,,,,,,,,,,,,,,,,,,,,,,,,,,,,,,,,,,,,,,,,,,,,,,,,,,,,,,,,,,,,,,,,,,,,,,,,,,,,,,,,,,,,,,,,,,,,,,,,,,,,,,
,,"[""period""]",0,64,0,64,0,1,5b8646582c180900019c9eb7,26,Kobieta,2022-05-28_09h28.13.934,task,2021.1.4,Win32,142.4298533,628b806c463b948bc644b84f,6291cf01829664820f82c4dd,[0.2919000000357812],,,,,,,,,,,,,,,,,,,,,,,,,,,,,,,,,,,,,,,,,,,,,,,,,,,,,,,,,,,,,,,,,,,,,,,,,,,,,,,,,,,,,,,,,,,,,,,,,,,,,,,
,,"[""comma""]",0,65,0,65,0,1,5b8646582c180900019c9eb7,26,Kobieta,2022-05-28_09h28.13.934,task,2021.1.4,Win32,142.4298533,628b806c463b948bc644b84f,6291cf01829664820f82c4dd,[0.2587999999523163],,,,,,,,,,,,,,,,,,,,,,,,,,,,,,,,,,,,,,,,,,,,,,,,,,,,,,,,,,,,,,,,,,,,,,,,,,,,,,,,,,,,,,,,,,,,,,,,,,,,,,,
,,"[""period""]",0,66,0,66,0,1,5b8646582c180900019c9eb7,26,Kobieta,2022-05-28_09h28.13.934,task,2021.1.4,Win32,142.4298533,628b806c463b948bc644b84f,6291cf01829664820f82c4dd,[0.18779999995231833],,,,,,,,,,,,,,,,,,,,,,,,,,,,,,,,,,,,,,,,,,,,,,,,,,,,,,,,,,,,,,,,,,,,,,,,,,,,,,,,,,,,,,,,,,,,,,,,,,,,,,,
,,"[""period""]",0,67,0,67,0,1,5b8646582c180900019c9eb7,26,Kobieta,2022-05-28_09h28.13.934,task,2021.1.4,Win32,142.4298533,628b806c463b948bc644b84f,6291cf01829664820f82c4dd,[0.3074999999999761],,,,,,,,,,,,,,,,,,,,,,,,,,,,,,,,,,,,,,,,,,,,,,,,,,,,,,,,,,,,,,,,,,,,,,,,,,,,,,,,,,,,,,,,,,,,,,,,,,,,,,,
,,"[""period""]",0,68,0,68,0,1,5b8646582c180900019c9eb7,26,Kobieta,2022-05-28_09h28.13.934,task,2021.1.4,Win32,142.4298533,628b806c463b948bc644b84f,6291cf01829664820f82c4dd,[0.2230000000000132],,,,,,,,,,,,,,,,,,,,,,,,,,,,,,,,,,,,,,,,,,,,,,,,,,,,,,,,,,,,,,,,,,,,,,,,,,,,,,,,,,,,,,,,,,,,,,,,,,,,,,,
,,"[""comma""]",0,69,0,69,0,1,5b8646582c180900019c9eb7,26,Kobieta,2022-05-28_09h28.13.934,task,2021.1.4,Win32,142.4298533,628b806c463b948bc644b84f,6291cf01829664820f82c4dd,[0.28530000001194367],,,,,,,,,,,,,,,,,,,,,,,,,,,,,,,,,,,,,,,,,,,,,,,,,,,,,,,,,,,,,,,,,,,,,,,,,,,,,,,,,,,,,,,,,,,,,,,,,,,,,,,
,,"[""comma""]",0,70,0,70,0,1,5b8646582c180900019c9eb7,26,Kobieta,2022-05-28_09h28.13.934,task,2021.1.4,Win32,142.4298533,628b806c463b948bc644b84f,6291cf01829664820f82c4dd,[0.18530000001192093],,,,,,,,,,,,,,,,,,,,,,,,,,,,,,,,,,,,,,,,,,,,,,,,,,,,,,,,,,,,,,,,,,,,,,,,,,,,,,,,,,,,,,,,,,,,,,,,,,,,,,,
,,"[""period""]",0,71,0,71,0,1,5b8646582c180900019c9eb7,26,Kobieta,2022-05-28_09h28.13.934,task,2021.1.4,Win32,142.4298533,628b806c463b948bc644b84f,6291cf01829664820f82c4dd,[0.3976999999880775],,,,,,,,,,,,,,,,,,,,,,,,,,,,,,,,,,,,,,,,,,,,,,,,,,,,,,,,,,,,,,,,,,,,,,,,,,,,,,,,,,,,,,,,,,,,,,,,,,,,,,,
,,"[""comma""]",0,72,0,72,0,1,5b8646582c180900019c9eb7,26,Kobieta,2022-05-28_09h28.13.934,task,2021.1.4,Win32,142.4298533,628b806c463b948bc644b84f,6291cf01829664820f82c4dd,[0.3496999999881041],,,,,,,,,,,,,,,,,,,,,,,,,,,,,,,,,,,,,,,,,,,,,,,,,,,,,,,,,,,,,,,,,,,,,,,,,,,,,,,,,,,,,,,,,,,,,,,,,,,,,,,
,,"[""period""]",0,73,0,73,0,1,5b8646582c180900019c9eb7,26,Kobieta,2022-05-28_09h28.13.934,task,2021.1.4,Win32,142.4298533,628b806c463b948bc644b84f,6291cf01829664820f82c4dd,[0.3100000000000023],,,,,,,,,,,,,,,,,,,,,,,,,,,,,,,,,,,,,,,,,,,,,,,,,,,,,,,,,,,,,,,,,,,,,,,,,,,,,,,,,,,,,,,,,,,,,,,,,,,,,,,
,,"[""period""]",0,74,0,74,0,1,5b8646582c180900019c9eb7,26,Kobieta,2022-05-28_09h28.13.934,task,2021.1.4,Win32,142.4298533,628b806c463b948bc644b84f,6291cf01829664820f82c4dd,[0.32689999997617747],,,,,,,,,,,,,,,,,,,,,,,,,,,,,,,,,,,,,,,,,,,,,,,,,,,,,,,,,,,,,,,,,,,,,,,,,,,,,,,,,,,,,,,,,,,,,,,,,,,,,,,
,,"[""comma""]",0,75,0,75,0,1,5b8646582c180900019c9eb7,26,Kobieta,2022-05-28_09h28.13.934,task,2021.1.4,Win32,142.4298533,628b806c463b948bc644b84f,6291cf01829664820f82c4dd,[0.22990000003576938],,,,,,,,,,,,,,,,,,,,,,,,,,,,,,,,,,,,,,,,,,,,,,,,,,,,,,,,,,,,,,,,,,,,,,,,,,,,,,,,,,,,,,,,,,,,,,,,,,,,,,,
,,"[""comma""]",0,76,0,76,0,1,5b8646582c180900019c9eb7,26,Kobieta,2022-05-28_09h28.13.934,task,2021.1.4,Win32,142.4298533,628b806c463b948bc644b84f,6291cf01829664820f82c4dd,[0.25900000000001455],,,,,,,,,,,,,,,,,,,,,,,,,,,,,,,,,,,,,,,,,,,,,,,,,,,,,,,,,,,,,,,,,,,,,,,,,,,,,,,,,,,,,,,,,,,,,,,,,,,,,,,
,,"[""period""]",0,77,0,77,0,1,5b8646582c180900019c9eb7,26,Kobieta,2022-05-28_09h28.13.934,task,2021.1.4,Win32,142.4298533,628b806c463b948bc644b84f,6291cf01829664820f82c4dd,[0.20810000002387596],,,,,,,,,,,,,,,,,,,,,,,,,,,,,,,,,,,,,,,,,,,,,,,,,,,,,,,,,,,,,,,,,,,,,,,,,,,,,,,,,,,,,,,,,,,,,,,,,,,,,,,
,,"[""period""]",0,78,0,78,0,1,5b8646582c180900019c9eb7,26,Kobieta,2022-05-28_09h28.13.934,task,2021.1.4,Win32,142.4298533,628b806c463b948bc644b84f,6291cf01829664820f82c4dd,[0.3159999999999741],,,,,,,,,,,,,,,,,,,,,,,,,,,,,,,,,,,,,,,,,,,,,,,,,,,,,,,,,,,,,,,,,,,,,,,,,,,,,,,,,,,,,,,,,,,,,,,,,,,,,,,
,,"[""period""]",0,79,0,79,0,1,5b8646582c180900019c9eb7,26,Kobieta,2022-05-28_09h28.13.934,task,2021.1.4,Win32,142.4298533,628b806c463b948bc644b84f,6291cf01829664820f82c4dd,[0.26650000000000773],,,,,,,,,,,,,,,,,,,,,,,,,,,,,,,,,,,,,,,,,,,,,,,,,,,,,,,,,,,,,,,,,,,,,,,,,,,,,,,,,,,,,,,,,,,,,,,,,,,,,,,
,,"[""period""]",0,80,0,80,0,1,5b8646582c180900019c9eb7,26,Kobieta,2022-05-28_09h28.13.934,task,2021.1.4,Win32,142.4298533,628b806c463b948bc644b84f,6291cf01829664820f82c4dd,[0.30980000001193275],,,,,,,,,,,,,,,,,,,,,,,,,,,,,,,,,,,,,,,,,,,,,,,,,,,,,,,,,,,,,,,,,,,,,,,,,,,,,,,,,,,,,,,,,,,,,,,,,,,,,,,
,,"[""period""]",0,81,0,81,0,1,5b8646582c180900019c9eb7,26,Kobieta,2022-05-28_09h28.13.934,task,2021.1.4,Win32,142.4298533,628b806c463b948bc644b84f,6291cf01829664820f82c4dd,[0.2728999999761186],,,,,,,,,,,,,,,,,,,,,,,,,,,,,,,,,,,,,,,,,,,,,,,,,,,,,,,,,,,,,,,,,,,,,,,,,,,,,,,,,,,,,,,,,,,,,,,,,,,,,,,
,,"[""comma""]",0,82,0,82,0,1,5b8646582c180900019c9eb7,26,Kobieta,2022-05-28_09h28.13.934,task,2021.1.4,Win32,142.4298533,628b806c463b948bc644b84f,6291cf01829664820f82c4dd,[0.2753000000118959],,,,,,,,,,,,,,,,,,,,,,,,,,,,,,,,,,,,,,,,,,,,,,,,,,,,,,,,,,,,,,,,,,,,,,,,,,,,,,,,,,,,,,,,,,,,,,,,,,,,,,,
,,"[""period"",""comma""]",0,83,0,83,0,1,5b8646582c180900019c9eb7,26,Kobieta,2022-05-28_09h28.13.934,task,2021.1.4,Win32,142.4298533,628b806c463b948bc644b84f,6291cf01829664820f82c4dd,"[0.2628000000119073,1.9863000000119087]",,,,,,,,,,,,,,,,,,,,,,,,,,,,,,,,,,,,,,,,,,,,,,,,,,,,,,,,,,,,,,,,,,,,,,,,,,,,,,,,,,,,,,,,,,,,,,,,,,,,,,,
,,,0,84,0,84,0,1,5b8646582c180900019c9eb7,26,Kobieta,2022-05-28_09h28.13.934,task,2021.1.4,Win32,142.4298533,628b806c463b948bc644b84f,6291cf01829664820f82c4dd,,,,,,,,,,,,,,,,,,,,,,,,,,,,,,,,,,,,,,,,,,,,,,,,,,,,,,,,,,,,,,,,,,,,,,,,,,,,,,,,,,,,,,,,,,,,,,,,,,,,,,,,
,,"[""period""]",0,85,0,85,0,1,5b8646582c180900019c9eb7,26,Kobieta,2022-05-28_09h28.13.934,task,2021.1.4,Win32,142.4298533,628b806c463b948bc644b84f,6291cf01829664820f82c4dd,[0.23719999998803587],,,,,,,,,,,,,,,,,,,,,,,,,,,,,,,,,,,,,,,,,,,,,,,,,,,,,,,,,,,,,,,,,,,,,,,,,,,,,,,,,,,,,,,,,,,,,,,,,,,,,,,
,,"[""comma""]",0,86,0,86,0,1,5b8646582c180900019c9eb7,26,Kobieta,2022-05-28_09h28.13.934,task,2021.1.4,Win32,142.4298533,628b806c463b948bc644b84f,6291cf01829664820f82c4dd,[0.2336999999880618],,,,,,,,,,,,,,,,,,,,,,,,,,,,,,,,,,,,,,,,,,,,,,,,,,,,,,,,,,,,,,,,,,,,,,,,,,,,,,,,,,,,,,,,,,,,,,,,,,,,,,,
,,"[""period""]",0,87,0,87,0,1,5b8646582c180900019c9eb7,26,Kobieta,2022-05-28_09h28.13.934,task,2021.1.4,Win32,142.4298533,628b806c463b948bc644b84f,6291cf01829664820f82c4dd,[0.1844000000357937],,,,,,,,,,,,,,,,,,,,,,,,,,,,,,,,,,,,,,,,,,,,,,,,,,,,,,,,,,,,,,,,,,,,,,,,,,,,,,,,,,,,,,,,,,,,,,,,,,,,,,,
,,"[""comma""]",0,88,0,88,0,1,5b8646582c180900019c9eb7,26,Kobieta,2022-05-28_09h28.13.934,task,2021.1.4,Win32,142.4298533,628b806c463b948bc644b84f,6291cf01829664820f82c4dd,[0.22310000002386232],,,,,,,,,,,,,,,,,,,,,,,,,,,,,,,,,,,,,,,,,,,,,,,,,,,,,,,,,,,,,,,,,,,,,,,,,,,,,,,,,,,,,,,,,,,,,,,,,,,,,,,
,,"[""period"",""period""]",0,89,0,89,0,1,5b8646582c180900019c9eb7,26,Kobieta,2022-05-28_09h28.13.934,task,2021.1.4,Win32,142.4298533,628b806c463b948bc644b84f,6291cf01829664820f82c4dd,"[0.2212000000477019,1.9497000000476987]",,,,,,,,,,,,,,,,,,,,,,,,,,,,,,,,,,,,,,,,,,,,,,,,,,,,,,,,,,,,,,,,,,,,,,,,,,,,,,,,,,,,,,,,,,,,,,,,,,,,,,,
,,,0,90,0,90,0,1,5b8646582c180900019c9eb7,26,Kobieta,2022-05-28_09h28.13.934,task,2021.1.4,Win32,142.4298533,628b806c463b948bc644b84f,6291cf01829664820f82c4dd,,,,,,,,,,,,,,,,,,,,,,,,,,,,,,,,,,,,,,,,,,,,,,,,,,,,,,,,,,,,,,,,,,,,,,,,,,,,,,,,,,,,,,,,,,,,,,,,,,,,,,,,
,,"[""period""]",0,91,0,91,0,1,5b8646582c180900019c9eb7,26,Kobieta,2022-05-28_09h28.13.934,task,2021.1.4,Win32,142.4298533,628b806c463b948bc644b84f,6291cf01829664820f82c4dd,[0.21380000001192911],,,,,,,,,,,,,,,,,,,,,,,,,,,,,,,,,,,,,,,,,,,,,,,,,,,,,,,,,,,,,,,,,,,,,,,,,,,,,,,,,,,,,,,,,,,,,,,,,,,,,,,
,,"[""period""]",0,92,0,92,0,1,5b8646582c180900019c9eb7,26,Kobieta,2022-05-28_09h28.13.934,task,2021.1.4,Win32,142.4298533,628b806c463b948bc644b84f,6291cf01829664820f82c4dd,[0.39029999995227627],,,,,,,,,,,,,,,,,,,,,,,,,,,,,,,,,,,,,,,,,,,,,,,,,,,,,,,,,,,,,,,,,,,,,,,,,,,,,,,,,,,,,,,,,,,,,,,,,,,,,,,
,,"[""comma""]",0,93,0,93,0,1,5b8646582c180900019c9eb7,26,Kobieta,2022-05-28_09h28.13.934,task,2021.1.4,Win32,142.4298533,628b806c463b948bc644b84f,6291cf01829664820f82c4dd,[0.4028999999761709],,,,,,,,,,,,,,,,,,,,,,,,,,,,,,,,,,,,,,,,,,,,,,,,,,,,,,,,,,,,,,,,,,,,,,,,,,,,,,,,,,,,,,,,,,,,,,,,,,,,,,,
,,"[""period""]",0,94,0,94,0,1,5b8646582c180900019c9eb7,26,Kobieta,2022-05-28_09h28.13.934,task,2021.1.4,Win32,142.4298533,628b806c463b948bc644b84f,6291cf01829664820f82c4dd,[0.29359999996421493],,,,,,,,,,,,,,,,,,,,,,,,,,,,,,,,,,,,,,,,,,,,,,,,,,,,,,,,,,,,,,,,,,,,,,,,,,,,,,,,,,,,,,,,,,,,,,,,,,,,,,,
,,"[""comma""]",0,95,0,95,0,1,5b8646582c180900019c9eb7,26,Kobieta,2022-05-28_09h28.13.934,task,2021.1.4,Win32,142.4298533,628b806c463b948bc644b84f,6291cf01829664820f82c4dd,[0.09810000002386232],,,,,,,,,,,,,,,,,,,,,,,,,,,,,,,,,,,,,,,,,,,,,,,,,,,,,,,,,,,,,,,,,,,,,,,,,,,,,,,,,,,,,,,,,,,,,,,,,,,,,,,
,,"[""comma""]",0,96,0,96,0,1,5b8646582c180900019c9eb7,26,Kobieta,2022-05-28_09h28.13.934,task,2021.1.4,Win32,142.4298533,628b806c463b948bc644b84f,6291cf01829664820f82c4dd,[0.2516999999880909],,,,,,,,,,,,,,,,,,,,,,,,,,,,,,,,,,,,,,,,,,,,,,,,,,,,,,,,,,,,,,,,,,,,,,,,,,,,,,,,,,,,,,,,,,,,,,,,,,,,,,,
,,"[""period""]",0,97,0,97,0,1,5b8646582c180900019c9eb7,26,Kobieta,2022-05-28_09h28.13.934,task,2021.1.4,Win32,142.4298533,628b806c463b948bc644b84f,6291cf01829664820f82c4dd,[0.31289999997613904],,,,,,,,,,,,,,,,,,,,,,,,,,,,,,,,,,,,,,,,,,,,,,,,,,,,,,,,,,,,,,,,,,,,,,,,,,,,,,,,,,,,,,,,,,,,,,,,,,,,,,,
,,"[""comma""]",0,98,0,98,0,1,5b8646582c180900019c9eb7,26,Kobieta,2022-05-28_09h28.13.934,task,2021.1.4,Win32,142.4298533,628b806c463b948bc644b84f,6291cf01829664820f82c4dd,[0.3149999999999977],,,,,,,,,,,,,,,,,,,,,,,,,,,,,,,,,,,,,,,,,,,,,,,,,,,,,,,,,,,,,,,,,,,,,,,,,,,,,,,,,,,,,,,,,,,,,,,,,,,,,,,
,,"[""comma""]",0,99,0,99,0,1,5b8646582c180900019c9eb7,26,Kobieta,2022-05-28_09h28.13.934,task,2021.1.4,Win32,142.4298533,628b806c463b948bc644b84f,6291cf01829664820f82c4dd,[0.28669999998805906],,,,,,,,,,,,,,,,,,,,,,,,,,,,,,,,,,,,,,,,,,,,,,,,,,,,,,,,,,,,,,,,,,,,,,,,,,,,,,,,,,,,,,,,,,,,,,,,,,,,,,,
,,"[""comma""]",0,100,0,100,0,1,5b8646582c180900019c9eb7,26,Kobieta,2022-05-28_09h28.13.934,task,2021.1.4,Win32,142.4298533,628b806c463b948bc644b84f,6291cf01829664820f82c4dd,[0.2574000000357728],,,,,,,,,,,,,,,,,,,,,,,,,,,,,,,,,,,,,,,,,,,,,,,,,,,,,,,,,,,,,,,,,,,,,,,,,,,,,,,,,,,,,,,,,,,,,,,,,,,,,,,
,,"[""period""]",0,101,0,101,0,1,5b8646582c180900019c9eb7,26,Kobieta,2022-05-28_09h28.13.934,task,2021.1.4,Win32,142.4298533,628b806c463b948bc644b84f,6291cf01829664820f82c4dd,[0.33369999998808453],,,,,,,,,,,,,,,,,,,,,,,,,,,,,,,,,,,,,,,,,,,,,,,,,,,,,,,,,,,,,,,,,,,,,,,,,,,,,,,,,,,,,,,,,,,,,,,,,,,,,,,
,,"[""period""]",0,102,0,102,0,1,5b8646582c180900019c9eb7,26,Kobieta,2022-05-28_09h28.13.934,task,2021.1.4,Win32,142.4298533,628b806c463b948bc644b84f,6291cf01829664820f82c4dd,[0.29930000001195367],,,,,,,,,,,,,,,,,,,,,,,,,,,,,,,,,,,,,,,,,,,,,,,,,,,,,,,,,,,,,,,,,,,,,,,,,,,,,,,,,,,,,,,,,,,,,,,,,,,,,,,
,,"[""comma""]",0,103,0,103,0,1,5b8646582c180900019c9eb7,26,Kobieta,2022-05-28_09h28.13.934,task,2021.1.4,Win32,142.4298533,628b806c463b948bc644b84f,6291cf01829664820f82c4dd,[0.31980000001192366],,,,,,,,,,,,,,,,,,,,,,,,,,,,,,,,,,,,,,,,,,,,,,,,,,,,,,,,,,,,,,,,,,,,,,,,,,,,,,,,,,,,,,,,,,,,,,,,,,,,,,,
,,"[""period""]",0,104,0,104,0,1,5b8646582c180900019c9eb7,26,Kobieta,2022-05-28_09h28.13.934,task,2021.1.4,Win32,142.4298533,628b806c463b948bc644b84f,6291cf01829664820f82c4dd,[0.3223000000119214],,,,,,,,,,,,,,,,,,,,,,,,,,,,,,,,,,,,,,,,,,,,,,,,,,,,,,,,,,,,,,,,,,,,,,,,,,,,,,,,,,,,,,,,,,,,,,,,,,,,,,,
,,"[""period""]",0,105,0,105,0,1,5b8646582c180900019c9eb7,26,Kobieta,2022-05-28_09h28.13.934,task,2021.1.4,Win32,142.4298533,628b806c463b948bc644b84f,6291cf01829664820f82c4dd,[0.2780999999642404],,,,,,,,,,,,,,,,,,,,,,,,,,,,,,,,,,,,,,,,,,,,,,,,,,,,,,,,,,,,,,,,,,,,,,,,,,,,,,,,,,,,,,,,,,,,,,,,,,,,,,,
,,"[""period""]",0,106,0,106,0,1,5b8646582c180900019c9eb7,26,Kobieta,2022-05-28_09h28.13.934,task,2021.1.4,Win32,142.4298533,628b806c463b948bc644b84f,6291cf01829664820f82c4dd,[0.26410000002385914],,,,,,,,,,,,,,,,,,,,,,,,,,,,,,,,,,,,,,,,,,,,,,,,,,,,,,,,,,,,,,,,,,,,,,,,,,,,,,,,,,,,,,,,,,,,,,,,,,,,,,,
,,"[""period""]",0,107,0,107,0,1,5b8646582c180900019c9eb7,26,Kobieta,2022-05-28_09h28.13.934,task,2021.1.4,Win32,142.4298533,628b806c463b948bc644b84f,6291cf01829664820f82c4dd,[0.31279999995234675],,,,,,,,,,,,,,,,,,,,,,,,,,,,,,,,,,,,,,,,,,,,,,,,,,,,,,,,,,,,,,,,,,,,,,,,,,,,,,,,,,,,,,,,,,,,,,,,,,,,,,,
,,"[""comma""]",0,108,0,108,0,1,5b8646582c180900019c9eb7,26,Kobieta,2022-05-28_09h28.13.934,task,2021.1.4,Win32,142.4298533,628b806c463b948bc644b84f,6291cf01829664820f82c4dd,[0.2925000000000182],,,,,,,,,,,,,,,,,,,,,,,,,,,,,,,,,,,,,,,,,,,,,,,,,,,,,,,,,,,,,,,,,,,,,,,,,,,,,,,,,,,,,,,,,,,,,,,,,,,,,,,
,,"[""period""]",0,109,0,109,0,1,5b8646582c180900019c9eb7,26,Kobieta,2022-05-28_09h28.13.934,task,2021.1.4,Win32,142.4298533,628b806c463b948bc644b84f,6291cf01829664820f82c4dd,[0.32749999999998636],,,,,,,,,,,,,,,,,,,,,,,,,,,,,,,,,,,,,,,,,,,,,,,,,,,,,,,,,,,,,,,,,,,,,,,,,,,,,,,,,,,,,,,,,,,,,,,,,,,,,,,
,,"[""period""]",0,110,0,110,0,1,5b8646582c180900019c9eb7,26,Kobieta,2022-05-28_09h28.13.934,task,2021.1.4,Win32,142.4298533,628b806c463b948bc644b84f,6291cf01829664820f82c4dd,[0.4315000000000282],,,,,,,,,,,,,,,,,,,,,,,,,,,,,,,,,,,,,,,,,,,,,,,,,,,,,,,,,,,,,,,,,,,,,,,,,,,,,,,,,,,,,,,,,,,,,,,,,,,,,,,
,,"[""comma""]",0,111,0,111,0,1,5b8646582c180900019c9eb7,26,Kobieta,2022-05-28_09h28.13.934,task,2021.1.4,Win32,142.4298533,628b806c463b948bc644b84f,6291cf01829664820f82c4dd,[0.2598000000119214],,,,,,,,,,,,,,,,,,,,,,,,,,,,,,,,,,,,,,,,,,,,,,,,,,,,,,,,,,,,,,,,,,,,,,,,,,,,,,,,,,,,,,,,,,,,,,,,,,,,,,,
,,"[""period""]",0,112,0,112,0,1,5b8646582c180900019c9eb7,26,Kobieta,2022-05-28_09h28.13.934,task,2021.1.4,Win32,142.4298533,628b806c463b948bc644b84f,6291cf01829664820f82c4dd,[0.38259999996421357],,,,,,,,,,,,,,,,,,,,,,,,,,,,,,,,,,,,,,,,,,,,,,,,,,,,,,,,,,,,,,,,,,,,,,,,,,,,,,,,,,,,,,,,,,,,,,,,,,,,,,,
,,"[""comma""]",0,113,0,113,0,1,5b8646582c180900019c9eb7,26,Kobieta,2022-05-28_09h28.13.934,task,2021.1.4,Win32,142.4298533,628b806c463b948bc644b84f,6291cf01829664820f82c4dd,[0.3128999999761959],,,,,,,,,,,,,,,,,,,,,,,,,,,,,,,,,,,,,,,,,,,,,,,,,,,,,,,,,,,,,,,,,,,,,,,,,,,,,,,,,,,,,,,,,,,,,,,,,,,,,,,
,,"[""period""]",0,114,0,114,0,1,5b8646582c180900019c9eb7,26,Kobieta,2022-05-28_09h28.13.934,task,2021.1.4,Win32,142.4298533,628b806c463b948bc644b84f,6291cf01829664820f82c4dd,[0.29539999997615496],,,,,,,,,,,,,,,,,,,,,,,,,,,,,,,,,,,,,,,,,,,,,,,,,,,,,,,,,,,,,,,,,,,,,,,,,,,,,,,,,,,,,,,,,,,,,,,,,,,,,,,
,,"[""period""]",0,115,0,115,0,1,5b8646582c180900019c9eb7,26,Kobieta,2022-05-28_09h28.13.934,task,2021.1.4,Win32,142.4298533,628b806c463b948bc644b84f,6291cf01829664820f82c4dd,[0.29540000003572686],,,,,,,,,,,,,,,,,,,,,,,,,,,,,,,,,,,,,,,,,,,,,,,,,,,,,,,,,,,,,,,,,,,,,,,,,,,,,,,,,,,,,,,,,,,,,,,,,,,,,,,
,,"[""comma""]",0,116,0,116,0,1,5b8646582c180900019c9eb7,26,Kobieta,2022-05-28_09h28.13.934,task,2021.1.4,Win32,142.4298533,628b806c463b948bc644b84f,6291cf01829664820f82c4dd,[0.25730000001192366],,,,,,,,,,,,,,,,,,,,,,,,,,,,,,,,,,,,,,,,,,,,,,,,,,,,,,,,,,,,,,,,,,,,,,,,,,,,,,,,,,,,,,,,,,,,,,,,,,,,,,,
,,"[""period""]",0,117,0,117,0,1,5b8646582c180900019c9eb7,26,Kobieta,2022-05-28_09h28.13.934,task,2021.1.4,Win32,142.4298533,628b806c463b948bc644b84f,6291cf01829664820f82c4dd,[0.2731000000238737],,,,,,,,,,,,,,,,,,,,,,,,,,,,,,,,,,,,,,,,,,,,,,,,,,,,,,,,,,,,,,,,,,,,,,,,,,,,,,,,,,,,,,,,,,,,,,,,,,,,,,,
,,"[""comma""]",0,118,0,118,0,1,5b8646582c180900019c9eb7,26,Kobieta,2022-05-28_09h28.13.934,task,2021.1.4,Win32,142.4298533,628b806c463b948bc644b84f,6291cf01829664820f82c4dd,[0.285000000000025],,,,,,,,,,,,,,,,,,,,,,,,,,,,,,,,,,,,,,,,,,,,,,,,,,,,,,,,,,,,,,,,,,,,,,,,,,,,,,,,,,,,,,,,,,,,,,,,,,,,,,,
,,"[""comma""]",0,119,0,119,0,1,5b8646582c180900019c9eb7,26,Kobieta,2022-05-28_09h28.13.934,task,2021.1.4,Win32,142.4298533,628b806c463b948bc644b84f,6291cf01829664820f82c4dd,[0.2524000000357205],,,,,,,,,,,,,,,,,,,,,,,,,,,,,,,,,,,,,,,,,,,,,,,,,,,,,,,,,,,,,,,,,,,,,,,,,,,,,,,,,,,,,,,,,,,,,,,,,,,,,,,
,,,,,,,,,5b8646582c180900019c9eb7,26,Kobieta,2022-05-28_09h28.13.934,task,2021.1.4,Win32,142.4298533,628b806c463b948bc644b84f,6291cf01829664820f82c4dd,,space,22.6856,space,11.1921,0,0,0,0,1,"X V Q F H G B L J M P D K C T S W R N Z
",,,,,,,,,,,,,,,,,,,,,,,,,,,,,,,,,,,,,,,,,,,,,,,,,,,,,,,,,,,,,,,,,,,,,,,,,,,,,,,,,,,,,,,,,,,,,
,,,,,,,,,5b8646582c180900019c9eb7,26,Kobieta,2022-05-28_09h28.13.934,task,2021.1.4,Win32,142.4298533,628b806c463b948bc644b84f,6291cf01829664820f82c4dd,,,,,,1,0,1,0,1,"X V Q F H G B L J M P D K C T S W R N Z
",,,,,,,,,,,,,,,,,,,,,,,,,,,,,,,,,,,,,,,,,,,,,,,,,,,,,,,,,,,,,,,,,,,,,,,,,,,,,,,,,,,,,,,,,,,,,
,,,,,,,,,5b8646582c180900019c9eb7,26,Kobieta,2022-05-28_09h28.13.934,task,2021.1.4,Win32,142.4298533,628b806c463b948bc644b84f,6291cf01829664820f82c4dd,,,,,,,,,,,,zv,"[""z"",""v""]","[3.764400000035778,4.217400000035752,6.256500000000017]",1,ZV,0,0,0,0,1,,,,,,,,,,,,,,,,,,,,,,,,,,,,,,,,,,,,,,,,,,,,,,,,,,,,,,,,,,,,,,,,,,,,,,,,,,,,,,,,,,,
,,,,,,,,,5b8646582c180900019c9eb7,26,Kobieta,2022-05-28_09h28.13.934,task,2021.1.4,Win32,142.4298533,628b806c463b948bc644b84f,6291cf01829664820f82c4dd,,,,,,0,0,0,0,1,"X V Q F H G B L J M P D K C T S W R N Z
",,,,,,,,,,,,,,,,,,,,,,,,,,,,,,,,,,,,,,,,,,,,,,,,,,,,,,,,,,,,,,,,,,,,,,,,,,,,,,,,,,,,,,,,,,,,,
,,,,,,,,,5b8646582c180900019c9eb7,26,Kobieta,2022-05-28_09h28.13.934,task,2021.1.4,Win32,142.4298533,628b806c463b948bc644b84f,6291cf01829664820f82c4dd,,,,,,1,0,1,0,1,"X V Q F H G B L J M P D K C T S W R N Z
",,,,,,,,,,,,,,,,,,,,,,,,,,,,,,,,,,,,,,,,,,,,,,,,,,,,,,,,,,,,,,,,,,,,,,,,,,,,,,,,,,,,,,,,,,,,,
,,,,,,,,,5b8646582c180900019c9eb7,26,Kobieta,2022-05-28_09h28.13.934,task,2021.1.4,Win32,142.4298533,628b806c463b948bc644b84f,6291cf01829664820f82c4dd,,,,,,,,,,,,bw,"[""b"",""w""]","[1.6005999999642313,2.1208999999761886,2.9753000000119414]",1,BW,1,0,1,0,1,,,,,,,,,,,,,,,,,,,,,,,,,,,,,,,,,,,,,,,,,,,,,,,,,,,,,,,,,,,,,,,,,,,,,,,,,,,,,,,,,,,
,,,,,,,,,5b8646582c180900019c9eb7,26,Kobieta,2022-05-28_09h28.13.934,task,2021.1.4,Win32,142.4298533,628b806c463b948bc644b84f,6291cf01829664820f82c4dd,,,,,,0,0,0,0,1,"X V Q F H G B L J M P D K C T S W R N Z
",,,,,,,,,,,,,,,,,,,,,,,,,,,,,,,,,,,,,,,,,,,,,,,,,,,,,,,,,,,,,,,,,,,,,,,,,,,,,,,,,,,,,,,,,,,,,
,,,,,,,,,5b8646582c180900019c9eb7,26,Kobieta,2022-05-28_09h28.13.934,task,2021.1.4,Win32,142.4298533,628b806c463b948bc644b84f,6291cf01829664820f82c4dd,,,,,,1,0,1,0,1,"X V Q F H G B L J M P D K C T S W R N Z
",,,,,,,,,,,,,,,,,,,,,,,,,,,,,,,,,,,,,,,,,,,,,,,,,,,,,,,,,,,,,,,,,,,,,,,,,,,,,,,,,,,,,,,,,,,,,
,,,,,,,,,5b8646582c180900019c9eb7,26,Kobieta,2022-05-28_09h28.13.934,task,2021.1.4,Win32,142.4298533,628b806c463b948bc644b84f,6291cf01829664820f82c4dd,,,,,,2,0,2,0,1,"X V Q F H G B L J M P D K C T S W R N Z
",,,,,,,,,,,,,,,,,,,,,,,,,,,,,,,,,,,,,,,,,,,,,,,,,,,,,,,,,,,,,,,,,,,,,,,,,,,,,,,,,,,,,,,,,,,,,
,,,,,,,,,5b8646582c180900019c9eb7,26,Kobieta,2022-05-28_09h28.13.934,task,2021.1.4,Win32,142.4298533,628b806c463b948bc644b84f,6291cf01829664820f82c4dd,,,,,,,,,,,,bxn,"[""b"",""x"",""n""]","[1.4934999999999832,3.4094000000357596,3.926600000023825,4.63900000000001]",1,BXN,2,0,2,0,1,,,,,,,,,,,,,,,,,,,,,,,,,,,,,,,,,,,,,,,,,,,,,,,,,,,,,,,,,,,,,,,,,,,,,,,,,,,,,,,,,,,
,,,,,,,,,5b8646582c180900019c9eb7,26,Kobieta,2022-05-28_09h28.13.934,task,2021.1.4,Win32,142.4298533,628b806c463b948bc644b84f,6291cf01829664820f82c4dd,,,,,,0,0,0,0,1,"X V Q F H G B L J M P D K C T S W R N Z
",,,,,,,,,,,,,,,,,,,,,,,,,,,,,,,,,,,,,,,,,,,,,,,,,,,,,,,,,,,,,,,,,,,,,,,,,,,,,,,,,,,,,,,,,,,,,
,,,,,,,,,5b8646582c180900019c9eb7,26,Kobieta,2022-05-28_09h28.13.934,task,2021.1.4,Win32,142.4298533,628b806c463b948bc644b84f,6291cf01829664820f82c4dd,,,,,,1,0,1,0,1,"X V Q F H G B L J M P D K C T S W R N Z
",,,,,,,,,,,,,,,,,,,,,,,,,,,,,,,,,,,,,,,,,,,,,,,,,,,,,,,,,,,,,,,,,,,,,,,,,,,,,,,,,,,,,,,,,,,,,
,,,,,,,,,5b8646582c180900019c9eb7,26,Kobieta,2022-05-28_09h28.13.934,task,2021.1.4,Win32,142.4298533,628b806c463b948bc644b84f,6291cf01829664820f82c4dd,,,,,,2,0,2,0,1,"X V Q F H G B L J M P D K C T S W R N Z
",,,,,,,,,,,,,,,,,,,,,,,,,,,,,,,,,,,,,,,,,,,,,,,,,,,,,,,,,,,,,,,,,,,,,,,,,,,,,,,,,,,,,,,,,,,,,
,,,,,,,,,5b8646582c180900019c9eb7,26,Kobieta,2022-05-28_09h28.13.934,task,2021.1.4,Win32,142.4298533,628b806c463b948bc644b84f,6291cf01829664820f82c4dd,,,,,,,,,,,,ghb,"[""g"",""h"",""b""]","[1.3133999999761272,2.0390999999642077,3.185199999988072,3.987000000000023]",1,GHB,3,0,3,0,1,,,,,,,,,,,,,,,,,,,,,,,,,,,,,,,,,,,,,,,,,,,,,,,,,,,,,,,,,,,,,,,,,,,,,,,,,,,,,,,,,,,
,,,,,,,,,5b8646582c180900019c9eb7,26,Kobieta,2022-05-28_09h28.13.934,task,2021.1.4,Win32,142.4298533,628b806c463b948bc644b84f,6291cf01829664820f82c4dd,,,,,,0,0,0,0,1,"X V Q F H G B L J M P D K C T S W R N Z
",,,,,,,,,,,,,,,,,,,,,,,,,,,,,,,,,,,,,,,,,,,,,,,,,,,,,,,,,,,,,,,,,,,,,,,,,,,,,,,,,,,,,,,,,,,,,
,,,,,,,,,5b8646582c180900019c9eb7,26,Kobieta,2022-05-28_09h28.13.934,task,2021.1.4,Win32,142.4298533,628b806c463b948bc644b84f,6291cf01829664820f82c4dd,,,,,,1,0,1,0,1,"X V Q F H G B L J M P D K C T S W R N Z
",,,,,,,,,,,,,,,,,,,,,,,,,,,,,,,,,,,,,,,,,,,,,,,,,,,,,,,,,,,,,,,,,,,,,,,,,,,,,,,,,,,,,,,,,,,,,
,,,,,,,,,5b8646582c180900019c9eb7,26,Kobieta,2022-05-28_09h28.13.934,task,2021.1.4,Win32,142.4298533,628b806c463b948bc644b84f,6291cf01829664820f82c4dd,,,,,,2,0,2,0,1,"X V Q F H G B L J M P D K C T S W R N Z
",,,,,,,,,,,,,,,,,,,,,,,,,,,,,,,,,,,,,,,,,,,,,,,,,,,,,,,,,,,,,,,,,,,,,,,,,,,,,,,,,,,,,,,,,,,,,
,,,,,,,,,5b8646582c180900019c9eb7,26,Kobieta,2022-05-28_09h28.13.934,task,2021.1.4,Win32,142.4298533,628b806c463b948bc644b84f,6291cf01829664820f82c4dd,,,,,,3,0,3,0,1,"X V Q F H G B L J M P D K C T S W R N Z
",,,,,,,,,,,,,,,,,,,,,,,,,,,,,,,,,,,,,,,,,,,,,,,,,,,,,,,,,,,,,,,,,,,,,,,,,,,,,,,,,,,,,,,,,,,,,
,,,,,,,,,5b8646582c180900019c9eb7,26,Kobieta,2022-05-28_09h28.13.934,task,2021.1.4,Win32,142.4298533,628b806c463b948bc644b84f,6291cf01829664820f82c4dd,,,,,,,,,,,,wdfj,"[""w"",""d"",""f"",""j""]","[1.0106000000238282,1.7596999999880722,2.6056000000238555,3.411199999988071,4.0766999999880795]",1,WDFJ,4,0,4,0,1,,,,,,,,,,,,,,,,,,,,,,,,,,,,,,,,,,,,,,,,,,,,,,,,,,,,,,,,,,,,,,,,,,,,,,,,,,,,,,,,,,,
,,,,,,,,,5b8646582c180900019c9eb7,26,Kobieta,2022-05-28_09h28.13.934,task,2021.1.4,Win32,142.4298533,628b806c463b948bc644b84f,6291cf01829664820f82c4dd,,,,,,0,0,0,0,1,"X V Q F H G B L J M P D K C T S W R N Z
",,,,,,,,,,,,,,,,,,,,,,,,,,,,,,,,,,,,,,,,,,,,,,,,,,,,,,,,,,,,,,,,,,,,,,,,,,,,,,,,,,,,,,,,,,,,,
,,,,,,,,,5b8646582c180900019c9eb7,26,Kobieta,2022-05-28_09h28.13.934,task,2021.1.4,Win32,142.4298533,628b806c463b948bc644b84f,6291cf01829664820f82c4dd,,,,,,1,0,1,0,1,"X V Q F H G B L J M P D K C T S W R N Z
",,,,,,,,,,,,,,,,,,,,,,,,,,,,,,,,,,,,,,,,,,,,,,,,,,,,,,,,,,,,,,,,,,,,,,,,,,,,,,,,,,,,,,,,,,,,,
,,,,,,,,,5b8646582c180900019c9eb7,26,Kobieta,2022-05-28_09h28.13.934,task,2021.1.4,Win32,142.4298533,628b806c463b948bc644b84f,6291cf01829664820f82c4dd,,,,,,2,0,2,0,1,"X V Q F H G B L J M P D K C T S W R N Z
",,,,,,,,,,,,,,,,,,,,,,,,,,,,,,,,,,,,,,,,,,,,,,,,,,,,,,,,,,,,,,,,,,,,,,,,,,,,,,,,,,,,,,,,,,,,,
,,,,,,,,,5b8646582c180900019c9eb7,26,Kobieta,2022-05-28_09h28.13.934,task,2021.1.4,Win32,142.4298533,628b806c463b948bc644b84f,6291cf01829664820f82c4dd,,,,,,3,0,3,0,1,"X V Q F H G B L J M P D K C T S W R N Z
",,,,,,,,,,,,,,,,,,,,,,,,,,,,,,,,,,,,,,,,,,,,,,,,,,,,,,,,,,,,,,,,,,,,,,,,,,,,,,,,,,,,,,,,,,,,,
,,,,,,,,,5b8646582c180900019c9eb7,26,Kobieta,2022-05-28_09h28.13.934,task,2021.1.4,Win32,142.4298533,628b806c463b948bc644b84f,6291cf01829664820f82c4dd,,,,,,,,,,,,hxrt,"[""h"",""x"",""r"",""t""]","[1.4033000000119387,3.2160999999642286,3.6761999999880572,3.9191999999880522,4.414199999988057]",1,HXRT,5,0,5,0,1,,,,,,,,,,,,,,,,,,,,,,,,,,,,,,,,,,,,,,,,,,,,,,,,,,,,,,,,,,,,,,,,,,,,,,,,,,,,,,,,,,,
,,,,,,,,,5b8646582c180900019c9eb7,26,Kobieta,2022-05-28_09h28.13.934,task,2021.1.4,Win32,142.4298533,628b806c463b948bc644b84f,6291cf01829664820f82c4dd,,,,,,0,0,0,0,1,"X V Q F H G B L J M P D K C T S W R N Z
",,,,,,,,,,,,,,,,,,,,,,,,,,,,,,,,,,,,,,,,,,,,,,,,,,,,,,,,,,,,,,,,,,,,,,,,,,,,,,,,,,,,,,,,,,,,,
,,,,,,,,,5b8646582c180900019c9eb7,26,Kobieta,2022-05-28_09h28.13.934,task,2021.1.4,Win32,142.4298533,628b806c463b948bc644b84f,6291cf01829664820f82c4dd,,,,,,1,0,1,0,1,"X V Q F H G B L J M P D K C T S W R N Z
",,,,,,,,,,,,,,,,,,,,,,,,,,,,,,,,,,,,,,,,,,,,,,,,,,,,,,,,,,,,,,,,,,,,,,,,,,,,,,,,,,,,,,,,,,,,,
,,,,,,,,,5b8646582c180900019c9eb7,26,Kobieta,2022-05-28_09h28.13.934,task,2021.1.4,Win32,142.4298533,628b806c463b948bc644b84f,6291cf01829664820f82c4dd,,,,,,2,0,2,0,1,"X V Q F H G B L J M P D K C T S W R N Z
",,,,,,,,,,,,,,,,,,,,,,,,,,,,,,,,,,,,,,,,,,,,,,,,,,,,,,,,,,,,,,,,,,,,,,,,,,,,,,,,,,,,,,,,,,,,,
,,,,,,,,,5b8646582c180900019c9eb7,26,Kobieta,2022-05-28_09h28.13.934,task,2021.1.4,Win32,142.4298533,628b806c463b948bc644b84f,6291cf01829664820f82c4dd,,,,,,3,0,3,0,1,"X V Q F H G B L J M P D K C T S W R N Z
",,,,,,,,,,,,,,,,,,,,,,,,,,,,,,,,,,,,,,,,,,,,,,,,,,,,,,,,,,,,,,,,,,,,,,,,,,,,,,,,,,,,,,,,,,,,,
,,,,,,,,,5b8646582c180900019c9eb7,26,Kobieta,2022-05-28_09h28.13.934,task,2021.1.4,Win32,142.4298533,628b806c463b948bc644b84f,6291cf01829664820f82c4dd,,,,,,4,0,4,0,1,"X V Q F H G B L J M P D K C T S W R N Z
",,,,,,,,,,,,,,,,,,,,,,,,,,,,,,,,,,,,,,,,,,,,,,,,,,,,,,,,,,,,,,,,,,,,,,,,,,,,,,,,,,,,,,,,,,,,,
,,,,,,,,,5b8646582c180900019c9eb7,26,Kobieta,2022-05-28_09h28.13.934,task,2021.1.4,Win32,142.4298533,628b806c463b948bc644b84f,6291cf01829664820f82c4dd,,,,,,,,,,,,rfqfp,"[""r"",""f"",""q"",""f"",""p""]","[1.2366999999881045,1.6186999999881095,2.5910999999642286,3.104899999976169,3.7094999999999914,4.427699999988079]",0,RVQFP,6,0,6,0,1,,,,,,,,,,,,,,,,,,,,,,,,,,,,,,,,,,,,,,,,,,,,,,,,,,,,,,,,,,,,,,,,,,,,,,,,,,,,,,,,,,,
,,,,,,,,,5b8646582c180900019c9eb7,26,Kobieta,2022-05-28_09h28.13.934,task,2021.1.4,Win32,142.4298533,628b806c463b948bc644b84f,6291cf01829664820f82c4dd,,,,,,0,0,0,0,1,"X V Q F H G B L J M P D K C T S W R N Z
",,,,,,,,,,,,,,,,,,,,,,,,,,,,,,,,,,,,,,,,,,,,,,,,,,,,,,,,,,,,,,,,,,,,,,,,,,,,,,,,,,,,,,,,,,,,,
,,,,,,,,,5b8646582c180900019c9eb7,26,Kobieta,2022-05-28_09h28.13.934,task,2021.1.4,Win32,142.4298533,628b806c463b948bc644b84f,6291cf01829664820f82c4dd,,,,,,1,0,1,0,1,"X V Q F H G B L J M P D K C T S W R N Z
",,,,,,,,,,,,,,,,,,,,,,,,,,,,,,,,,,,,,,,,,,,,,,,,,,,,,,,,,,,,,,,,,,,,,,,,,,,,,,,,,,,,,,,,,,,,,
,,,,,,,,,5b8646582c180900019c9eb7,26,Kobieta,2022-05-28_09h28.13.934,task,2021.1.4,Win32,142.4298533,628b806c463b948bc644b84f,6291cf01829664820f82c4dd,,,,,,2,0,2,0,1,"X V Q F H G B L J M P D K C T S W R N Z
",,,,,,,,,,,,,,,,,,,,,,,,,,,,,,,,,,,,,,,,,,,,,,,,,,,,,,,,,,,,,,,,,,,,,,,,,,,,,,,,,,,,,,,,,,,,,
,,,,,,,,,5b8646582c180900019c9eb7,26,Kobieta,2022-05-28_09h28.13.934,task,2021.1.4,Win32,142.4298533,628b806c463b948bc644b84f,6291cf01829664820f82c4dd,,,,,,3,0,3,0,1,"X V Q F H G B L J M P D K C T S W R N Z
",,,,,,,,,,,,,,,,,,,,,,,,,,,,,,,,,,,,,,,,,,,,,,,,,,,,,,,,,,,,,,,,,,,,,,,,,,,,,,,,,,,,,,,,,,,,,
,,,,,,,,,5b8646582c180900019c9eb7,26,Kobieta,2022-05-28_09h28.13.934,task,2021.1.4,Win32,142.4298533,628b806c463b948bc644b84f,6291cf01829664820f82c4dd,,,,,,4,0,4,0,1,"X V Q F H G B L J M P D K C T S W R N Z
",,,,,,,,,,,,,,,,,,,,,,,,,,,,,,,,,,,,,,,,,,,,,,,,,,,,,,,,,,,,,,,,,,,,,,,,,,,,,,,,,,,,,,,,,,,,,
,,,,,,,,,5b8646582c180900019c9eb7,26,Kobieta,2022-05-28_09h28.13.934,task,2021.1.4,Win32,142.4298533,628b806c463b948bc644b84f,6291cf01829664820f82c4dd,,,,,,,,,,,,hxtcp,"[""h"",""x"",""t"",""c"",""p""]","[1.410399999976164,2.3511999999880686,2.9884999999999877,3.6225000000000023,4.195699999988108,4.738399999976195]",1,HXTCP,7,0,7,0,1,,,,,,,,,,,,,,,,,,,,,,,,,,,,,,,,,,,,,,,,,,,,,,,,,,,,,,,,,,,,,,,,,,,,,,,,,,,,,,,,,,,
,,,,,,,,,5b8646582c180900019c9eb7,26,Kobieta,2022-05-28_09h28.13.934,task,2021.1.4,Win32,142.4298533,628b806c463b948bc644b84f,6291cf01829664820f82c4dd,,,,,,0,0,0,0,1,"X V Q F H G B L J M P D K C T S W R N Z
",,,,,,,,,,,,,,,,,,,,,,,,,,,,,,,,,,,,,,,,,,,,,,,,,,,,,,,,,,,,,,,,,,,,,,,,,,,,,,,,,,,,,,,,,,,,,
,,,,,,,,,5b8646582c180900019c9eb7,26,Kobieta,2022-05-28_09h28.13.934,task,2021.1.4,Win32,142.4298533,628b806c463b948bc644b84f,6291cf01829664820f82c4dd,,,,,,1,0,1,0,1,"X V Q F H G B L J M P D K C T S W R N Z
",,,,,,,,,,,,,,,,,,,,,,,,,,,,,,,,,,,,,,,,,,,,,,,,,,,,,,,,,,,,,,,,,,,,,,,,,,,,,,,,,,,,,,,,,,,,,
,,,,,,,,,5b8646582c180900019c9eb7,26,Kobieta,2022-05-28_09h28.13.934,task,2021.1.4,Win32,142.4298533,628b806c463b948bc644b84f,6291cf01829664820f82c4dd,,,,,,2,0,2,0,1,"X V Q F H G B L J M P D K C T S W R N Z
",,,,,,,,,,,,,,,,,,,,,,,,,,,,,,,,,,,,,,,,,,,,,,,,,,,,,,,,,,,,,,,,,,,,,,,,,,,,,,,,,,,,,,,,,,,,,
,,,,,,,,,5b8646582c180900019c9eb7,26,Kobieta,2022-05-28_09h28.13.934,task,2021.1.4,Win32,142.4298533,628b806c463b948bc644b84f,6291cf01829664820f82c4dd,,,,,,3,0,3,0,1,"X V Q F H G B L J M P D K C T S W R N Z
",,,,,,,,,,,,,,,,,,,,,,,,,,,,,,,,,,,,,,,,,,,,,,,,,,,,,,,,,,,,,,,,,,,,,,,,,,,,,,,,,,,,,,,,,,,,,
,,,,,,,,,5b8646582c180900019c9eb7,26,Kobieta,2022-05-28_09h28.13.934,task,2021.1.4,Win32,142.4298533,628b806c463b948bc644b84f,6291cf01829664820f82c4dd,,,,,,4,0,4,0,1,"X V Q F H G B L J M P D K C T S W R N Z
",,,,,,,,,,,,,,,,,,,,,,,,,,,,,,,,,,,,,,,,,,,,,,,,,,,,,,,,,,,,,,,,,,,,,,,,,,,,,,,,,,,,,,,,,,,,,
,,,,,,,,,5b8646582c180900019c9eb7,26,Kobieta,2022-05-28_09h28.13.934,task,2021.1.4,Win32,142.4298533,628b806c463b948bc644b84f,6291cf01829664820f82c4dd,,,,,,,,,,,,dhmnh,"[""d"",""h"",""m"",""n"",""h""]","[1.8269999999999982,2.314199999988091,2.767100000023845,3.2171000000238905,3.4941000000238773,3.910800000011932]",0,DHNMH,8,0,8,0,1,,,,,,,,,,,,,,,,,,,,,,,,,,,,,,,,,,,,,,,,,,,,,,,,,,,,,,,,,,,,,,,,,,,,,,,,,,,,,,,,,,,
,,,,,,,,,5b8646582c180900019c9eb7,26,Kobieta,2022-05-28_09h28.13.934,task,2021.1.4,Win32,142.4298533,628b806c463b948bc644b84f,6291cf01829664820f82c4dd,,,,,,0,0,0,0,1,"X V Q F H G B L J M P D K C T S W R N Z
",,,,,,,,,,,,,,,,,,,,,,,,,,,,,,,,,,,,,,,,,,,,,,,,,,,,,,,,,,,,,,,,,,,,,,,,,,,,,,,,,,,,,,,,,,,,,
,,,,,,,,,5b8646582c180900019c9eb7,26,Kobieta,2022-05-28_09h28.13.934,task,2021.1.4,Win32,142.4298533,628b806c463b948bc644b84f,6291cf01829664820f82c4dd,,,,,,1,0,1,0,1,"X V Q F H G B L J M P D K C T S W R N Z
",,,,,,,,,,,,,,,,,,,,,,,,,,,,,,,,,,,,,,,,,,,,,,,,,,,,,,,,,,,,,,,,,,,,,,,,,,,,,,,,,,,,,,,,,,,,,
,,,,,,,,,5b8646582c180900019c9eb7,26,Kobieta,2022-05-28_09h28.13.934,task,2021.1.4,Win32,142.4298533,628b806c463b948bc644b84f,6291cf01829664820f82c4dd,,,,,,2,0,2,0,1,"X V Q F H G B L J M P D K C T S W R N Z
",,,,,,,,,,,,,,,,,,,,,,,,,,,,,,,,,,,,,,,,,,,,,,,,,,,,,,,,,,,,,,,,,,,,,,,,,,,,,,,,,,,,,,,,,,,,,
,,,,,,,,,5b8646582c180900019c9eb7,26,Kobieta,2022-05-28_09h28.13.934,task,2021.1.4,Win32,142.4298533,628b806c463b948bc644b84f,6291cf01829664820f82c4dd,,,,,,3,0,3,0,1,"X V Q F H G B L J M P D K C T S W R N Z
",,,,,,,,,,,,,,,,,,,,,,,,,,,,,,,,,,,,,,,,,,,,,,,,,,,,,,,,,,,,,,,,,,,,,,,,,,,,,,,,,,,,,,,,,,,,,
,,,,,,,,,5b8646582c180900019c9eb7,26,Kobieta,2022-05-28_09h28.13.934,task,2021.1.4,Win32,142.4298533,628b806c463b948bc644b84f,6291cf01829664820f82c4dd,,,,,,4,0,4,0,1,"X V Q F H G B L J M P D K C T S W R N Z
",,,,,,,,,,,,,,,,,,,,,,,,,,,,,,,,,,,,,,,,,,,,,,,,,,,,,,,,,,,,,,,,,,,,,,,,,,,,,,,,,,,,,,,,,,,,,
,,,,,,,,,5b8646582c180900019c9eb7,26,Kobieta,2022-05-28_09h28.13.934,task,2021.1.4,Win32,142.4298533,628b806c463b948bc644b84f,6291cf01829664820f82c4dd,,,,,,,,,,,,psdkg,"[""p"",""s"",""d"",""k"",""g""]","[1.6326000000238423,2.336600000023793,3.4121999999880472,4.015600000023824,5.338499999999954,6.504199999988032]",1,PSDKG,9,0,9,0,1,,,,,,,,,,,,,,,,,,,,,,,,,,,,,,,,,,,,,,,,,,,,,,,,,,,,,,,,,,,,,,,,,,,,,,,,,,,,,,,,,,,
,,,,,,,,,5b8646582c180900019c9eb7,26,Kobieta,2022-05-28_09h28.13.934,task,2021.1.4,Win32,142.4298533,628b806c463b948bc644b84f,6291cf01829664820f82c4dd,,,,,,0,0,0,0,1,"X V Q F H G B L J M P D K C T S W R N Z
",,,,,,,,,,,,,,,,,,,,,,,,,,,,,,,,,,,,,,,,,,,,,,,,,,,,,,,,,,,,,,,,,,,,,,,,,,,,,,,,,,,,,,,,,,,,,
,,,,,,,,,5b8646582c180900019c9eb7,26,Kobieta,2022-05-28_09h28.13.934,task,2021.1.4,Win32,142.4298533,628b806c463b948bc644b84f,6291cf01829664820f82c4dd,,,,,,1,0,1,0,1,"X V Q F H G B L J M P D K C T S W R N Z
",,,,,,,,,,,,,,,,,,,,,,,,,,,,,,,,,,,,,,,,,,,,,,,,,,,,,,,,,,,,,,,,,,,,,,,,,,,,,,,,,,,,,,,,,,,,,
,,,,,,,,,5b8646582c180900019c9eb7,26,Kobieta,2022-05-28_09h28.13.934,task,2021.1.4,Win32,142.4298533,628b806c463b948bc644b84f,6291cf01829664820f82c4dd,,,,,,2,0,2,0,1,"X V Q F H G B L J M P D K C T S W R N Z
",,,,,,,,,,,,,,,,,,,,,,,,,,,,,,,,,,,,,,,,,,,,,,,,,,,,,,,,,,,,,,,,,,,,,,,,,,,,,,,,,,,,,,,,,,,,,
,,,,,,,,,5b8646582c180900019c9eb7,26,Kobieta,2022-05-28_09h28.13.934,task,2021.1.4,Win32,142.4298533,628b806c463b948bc644b84f,6291cf01829664820f82c4dd,,,,,,3,0,3,0,1,"X V Q F H G B L J M P D K C T S W R N Z
",,,,,,,,,,,,,,,,,,,,,,,,,,,,,,,,,,,,,,,,,,,,,,,,,,,,,,,,,,,,,,,,,,,,,,,,,,,,,,,,,,,,,,,,,,,,,
,,,,,,,,,5b8646582c180900019c9eb7,26,Kobieta,2022-05-28_09h28.13.934,task,2021.1.4,Win32,142.4298533,628b806c463b948bc644b84f,6291cf01829664820f82c4dd,,,,,,4,0,4,0,1,"X V Q F H G B L J M P D K C T S W R N Z
",,,,,,,,,,,,,,,,,,,,,,,,,,,,,,,,,,,,,,,,,,,,,,,,,,,,,,,,,,,,,,,,,,,,,,,,,,,,,,,,,,,,,,,,,,,,,
,,,,,,,,,5b8646582c180900019c9eb7,26,Kobieta,2022-05-28_09h28.13.934,task,2021.1.4,Win32,142.4298533,628b806c463b948bc644b84f,6291cf01829664820f82c4dd,,,,,,5,0,5,0,1,"X V Q F H G B L J M P D K C T S W R N Z
",,,,,,,,,,,,,,,,,,,,,,,,,,,,,,,,,,,,,,,,,,,,,,,,,,,,,,,,,,,,,,,,,,,,,,,,,,,,,,,,,,,,,,,,,,,,,
,,,,,,,,,5b8646582c180900019c9eb7,26,Kobieta,2022-05-28_09h28.13.934,task,2021.1.4,Win32,142.4298533,628b806c463b948bc644b84f,6291cf01829664820f82c4dd,,,,,,,,,,,,ndrzh,"[""n"",""d"",""r"",""z"",""h""]","[1.2852000000476664,2.150400000035745,3.3591000000238296,4.167800000011937,5.702900000035754,6.795900000035772]",0,"NTRDZ
B",10,0,10,0,1,,,,,,,,,,,,,,,,,,,,,,,,,,,,,,,,,,,,,,,,,,,,,,,,,,,,,,,,,,,,,,,,,,,,,,,,,,,,,,,,,,,
,,,,,,,,,5b8646582c180900019c9eb7,26,Kobieta,2022-05-28_09h28.13.934,task,2021.1.4,Win32,142.4298533,628b806c463b948bc644b84f,6291cf01829664820f82c4dd,,,,,,0,0,0,0,1,"X V Q F H G B L J M P D K C T S W R N Z
",,,,,,,,,,,,,,,,,,,,,,,,,,,,,,,,,,,,,,,,,,,,,,,,,,,,,,,,,,,,,,,,,,,,,,,,,,,,,,,,,,,,,,,,,,,,,
,,,,,,,,,5b8646582c180900019c9eb7,26,Kobieta,2022-05-28_09h28.13.934,task,2021.1.4,Win32,142.4298533,628b806c463b948bc644b84f,6291cf01829664820f82c4dd,,,,,,1,0,1,0,1,"X V Q F H G B L J M P D K C T S W R N Z
",,,,,,,,,,,,,,,,,,,,,,,,,,,,,,,,,,,,,,,,,,,,,,,,,,,,,,,,,,,,,,,,,,,,,,,,,,,,,,,,,,,,,,,,,,,,,
,,,,,,,,,5b8646582c180900019c9eb7,26,Kobieta,2022-05-28_09h28.13.934,task,2021.1.4,Win32,142.4298533,628b806c463b948bc644b84f,6291cf01829664820f82c4dd,,,,,,2,0,2,0,1,"X V Q F H G B L J M P D K C T S W R N Z
",,,,,,,,,,,,,,,,,,,,,,,,,,,,,,,,,,,,,,,,,,,,,,,,,,,,,,,,,,,,,,,,,,,,,,,,,,,,,,,,,,,,,,,,,,,,,
,,,,,,,,,5b8646582c180900019c9eb7,26,Kobieta,2022-05-28_09h28.13.934,task,2021.1.4,Win32,142.4298533,628b806c463b948bc644b84f,6291cf01829664820f82c4dd,,,,,,3,0,3,0,1,"X V Q F H G B L J M P D K C T S W R N Z
",,,,,,,,,,,,,,,,,,,,,,,,,,,,,,,,,,,,,,,,,,,,,,,,,,,,,,,,,,,,,,,,,,,,,,,,,,,,,,,,,,,,,,,,,,,,,
,,,,,,,,,5b8646582c180900019c9eb7,26,Kobieta,2022-05-28_09h28.13.934,task,2021.1.4,Win32,142.4298533,628b806c463b948bc644b84f,6291cf01829664820f82c4dd,,,,,,4,0,4,0,1,"X V Q F H G B L J M P D K C T S W R N Z
",,,,,,,,,,,,,,,,,,,,,,,,,,,,,,,,,,,,,,,,,,,,,,,,,,,,,,,,,,,,,,,,,,,,,,,,,,,,,,,,,,,,,,,,,,,,,
,,,,,,,,,5b8646582c180900019c9eb7,26,Kobieta,2022-05-28_09h28.13.934,task,2021.1.4,Win32,142.4298533,628b806c463b948bc644b84f,6291cf01829664820f82c4dd,,,,,,5,0,5,0,1,"X V Q F H G B L J M P D K C T S W R N Z
",,,,,,,,,,,,,,,,,,,,,,,,,,,,,,,,,,,,,,,,,,,,,,,,,,,,,,,,,,,,,,,,,,,,,,,,,,,,,,,,,,,,,,,,,,,,,
,,,,,,,,,5b8646582c180900019c9eb7,26,Kobieta,2022-05-28_09h28.13.934,task,2021.1.4,Win32,142.4298533,628b806c463b948bc644b84f,6291cf01829664820f82c4dd,,,,,,,,,,,,nlzdf,"[""n"",""l"",""z"",""d"",""f""]","[1.6323999999762009,2.236799999952325,3.883000000000038,5.91889999997619,6.605799999952353,7.619899999976155]",0,"FRZ
WLD",11,0,11,0,1,,,,,,,,,,,,,,,,,,,,,,,,,,,,,,,,,,,,,,,,,,,,,,,,,,,,,,,,,,,,,,,,,,,,,,,,,,,,,,,,,,,
,,,,,,,,,5b8646582c180900019c9eb7,26,Kobieta,2022-05-28_09h28.13.934,task,2021.1.4,Win32,142.4298533,628b806c463b948bc644b84f,6291cf01829664820f82c4dd,,,,,,0,0,0,0,1,"X V Q F H G B L J M P D K C T S W R N Z
",,,,,,,,,,,,,,,,,,,,,,,,,,,,,,,,,,,,,,,,,,,,,,,,,,,,,,,,,,,,,,,,,,,,,,,,,,,,,,,,,,,,,,,,,,,,,
,,,,,,,,,5b8646582c180900019c9eb7,26,Kobieta,2022-05-28_09h28.13.934,task,2021.1.4,Win32,142.4298533,628b806c463b948bc644b84f,6291cf01829664820f82c4dd,,,,,,1,0,1,0,1,"X V Q F H G B L J M P D K C T S W R N Z
",,,,,,,,,,,,,,,,,,,,,,,,,,,,,,,,,,,,,,,,,,,,,,,,,,,,,,,,,,,,,,,,,,,,,,,,,,,,,,,,,,,,,,,,,,,,,
,,,,,,,,,5b8646582c180900019c9eb7,26,Kobieta,2022-05-28_09h28.13.934,task,2021.1.4,Win32,142.4298533,628b806c463b948bc644b84f,6291cf01829664820f82c4dd,,,,,,2,0,2,0,1,"X V Q F H G B L J M P D K C T S W R N Z
",,,,,,,,,,,,,,,,,,,,,,,,,,,,,,,,,,,,,,,,,,,,,,,,,,,,,,,,,,,,,,,,,,,,,,,,,,,,,,,,,,,,,,,,,,,,,
,,,,,,,,,5b8646582c180900019c9eb7,26,Kobieta,2022-05-28_09h28.13.934,task,2021.1.4,Win32,142.4298533,628b806c463b948bc644b84f,6291cf01829664820f82c4dd,,,,,,3,0,3,0,1,"X V Q F H G B L J M P D K C T S W R N Z
",,,,,,,,,,,,,,,,,,,,,,,,,,,,,,,,,,,,,,,,,,,,,,,,,,,,,,,,,,,,,,,,,,,,,,,,,,,,,,,,,,,,,,,,,,,,,
,,,,,,,,,5b8646582c180900019c9eb7,26,Kobieta,2022-05-28_09h28.13.934,task,2021.1.4,Win32,142.4298533,628b806c463b948bc644b84f,6291cf01829664820f82c4dd,,,,,,4,0,4,0,1,"X V Q F H G B L J M P D K C T S W R N Z
",,,,,,,,,,,,,,,,,,,,,,,,,,,,,,,,,,,,,,,,,,,,,,,,,,,,,,,,,,,,,,,,,,,,,,,,,,,,,,,,,,,,,,,,,,,,,
,,,,,,,,,5b8646582c180900019c9eb7,26,Kobieta,2022-05-28_09h28.13.934,task,2021.1.4,Win32,142.4298533,628b806c463b948bc644b84f,6291cf01829664820f82c4dd,,,,,,5,0,5,0,1,"X V Q F H G B L J M P D K C T S W R N Z
",,,,,,,,,,,,,,,,,,,,,,,,,,,,,,,,,,,,,,,,,,,,,,,,,,,,,,,,,,,,,,,,,,,,,,,,,,,,,,,,,,,,,,,,,,,,,
,,,,,,,,,5b8646582c180900019c9eb7,26,Kobieta,2022-05-28_09h28.13.934,task,2021.1.4,Win32,142.4298533,628b806c463b948bc644b84f,6291cf01829664820f82c4dd,,,,,,,,,,,,mndjj,"[""m"",""n"",""d"",""j"",""j""]","[5.566000000000031,6.06690000003573,7.022500000000036,7.9116000000238955,8.151200000047652,10.350400000035734]",0,MDNJJR,12,0,12,0,1,,,,,,,,,,,,,,,,,,,,,,,,,,,,,,,,,,,,,,,,,,,,,,,,,,,,,,,,,,,,,,,,,,,,,,,,,,,,,,,,,,,
,,,,,,,,,5b8646582c180900019c9eb7,26,Kobieta,2022-05-28_09h28.13.934,task,2021.1.4,Win32,142.4298533,628b806c463b948bc644b84f,6291cf01829664820f82c4dd,,,,,,,,,,,,,,,,,,,,,,space,13.982,6,"[""6""]",1,[5.893500000000017],[5.893500000000017],0,0,0,6,1,Practice,7,(25/5) + 1,6,,,,,,,,,,,,,,,,,,,,,,,,,,,,,,,,,,,,,,,,,,,,,,,,,,,,,,,,,,,,,,,,,,,
,,,,,,,,,5b8646582c180900019c9eb7,26,Kobieta,2022-05-28_09h28.13.934,task,2021.1.4,Win32,142.4298533,628b806c463b948bc644b84f,6291cf01829664820f82c4dd,,,,,,,,,,,,,,,,,,,,,,,,4,"[""4""]",1,[5.180600000023787],"[5.893500000000017,5.180600000023787]",0,1,1,4,1,Practice,5,(2x6) - 8,4,,,,,,,,,,,,,,,,,,,,,,,,,,,,,,,,,,,,,,,,,,,,,,,,,,,,,,,,,,,,,,,,,,,
,,,,,,,,,5b8646582c180900019c9eb7,26,Kobieta,2022-05-28_09h28.13.934,task,2021.1.4,Win32,142.4298533,628b806c463b948bc644b84f,6291cf01829664820f82c4dd,,,,,,,,,,,,,,,,,,,,,,,,2,"[""2""]",1,[2.28810000002386],"[5.893500000000017,5.180600000023787,2.28810000002386]",0,2,2,2,1,Practice,3,(4x4) - 14,2,,,,,,,,,,,,,,,,,,,,,,,,,,,,,,,,,,,,,,,,,,,,,,,,,,,,,,,,,,,,,,,,,,,
,,,,,,,,,5b8646582c180900019c9eb7,26,Kobieta,2022-05-28_09h28.13.934,task,2021.1.4,Win32,142.4298533,628b806c463b948bc644b84f,6291cf01829664820f82c4dd,,,,,,,,,,,,,,,,,,,,,,,,9,"[""9""]",1,[2.36879999995233],"[5.893500000000017,5.180600000023787,2.28810000002386,2.36879999995233]",0,3,3,9,1,Practice,10,(20/2) - 1,9,,,,,,,,,,,,,,,,,,,,,,,,,,,,,,,,,,,,,,,,,,,,,,,,,,,,,,,,,,,,,,,,,,,
,,,,,,,,,5b8646582c180900019c9eb7,26,Kobieta,2022-05-28_09h28.13.934,task,2021.1.4,Win32,142.4298533,628b806c463b948bc644b84f,6291cf01829664820f82c4dd,,,,,,,,,,,,,,,,,,,,,,,,8,"[""8""]",1,[2.466000000000008],"[5.893500000000017,5.180600000023787,2.28810000002386,2.36879999995233,2.466000000000008]",0,4,4,8,1,Practice,9,(3x3) - 1,8,,,,,,,,,,,,,,,,,,,,,,,,,,,,,,,,,,,,,,,,,,,,,,,,,,,,,,,,,,,,,,,,,,,
,,,,,,,,,5b8646582c180900019c9eb7,26,Kobieta,2022-05-28_09h28.13.934,task,2021.1.4,Win32,142.4298533,628b806c463b948bc644b84f,6291cf01829664820f82c4dd,,,,,,,,,,,,,,,,,,,,,,,,3,"[""3""]",1,[2.875799999952278],"[5.893500000000017,5.180600000023787,2.28810000002386,2.36879999995233,2.466000000000008,2.875799999952278]",0,5,5,3,1,Practice,4,(8/4) + 1,3,,,,,,,,,,,,,,,,,,,,,,,,,,,,,,,,,,,,,,,,,,,,,,,,,,,,,,,,,,,,,,,,,,,
,,,,,,,,,5b8646582c180900019c9eb7,26,Kobieta,2022-05-28_09h28.13.934,task,2021.1.4,Win32,142.4298533,628b806c463b948bc644b84f,6291cf01829664820f82c4dd,,,,,,,,,,,,,,,,,,,,,,,,7,"[""7""]",1,[5.098500000000058],"[5.893500000000017,5.180600000023787,2.28810000002386,2.36879999995233,2.466000000000008,2.875799999952278,5.098500000000058]",0,6,6,7,1,Practice,8,(5x5) - 18,7,,,,,,,,,,,,,,,,,,,,,,,,,,,,,,,,,,,,,,,,,,,,,,,,,,,,,,,,,,,,,,,,,,,
,,,,,,,,,5b8646582c180900019c9eb7,26,Kobieta,2022-05-28_09h28.13.934,task,2021.1.4,Win32,142.4298533,628b806c463b948bc644b84f,6291cf01829664820f82c4dd,,,,,,,,,,,,,,,,,,,,,,,,1,"[""1""]",1,[2.9475999999641544],"[5.893500000000017,5.180600000023787,2.28810000002386,2.36879999995233,2.466000000000008,2.875799999952278,5.098500000000058,2.9475999999641544]",0,7,7,1,1,Practice,2,(4x4) - 15,1,,,,,,,,,,,,,,,,,,,,,,,,,,,,,,,,,,,,,,,,,,,,,,,,,,,,,,,,,,,,,,,,,,,
,,,,,,,,,5b8646582c180900019c9eb7,26,Kobieta,2022-05-28_09h28.13.934,task,2021.1.4,Win32,142.4298533,628b806c463b948bc644b84f,6291cf01829664820f82c4dd,,,,,,,,,,,,,,,,,,,,,,,,5,"[""5""]",1,[3.613599999964322],"[5.893500000000017,5.180600000023787,2.28810000002386,2.36879999995233,2.466000000000008,2.875799999952278,5.098500000000058,2.9475999999641544,3.613599999964322]",0,8,8,5,1,Practice,6,(4/2) + 3,5,,,,,,,,,,,,,,,,,,,,,,,,,,,,,,,,,,,,,,,,,,,,,,,,,,,,,,,,,,,,,,,,,,,
,,,,,,,,,5b8646582c180900019c9eb7,26,Kobieta,2022-05-28_09h28.13.934,task,2021.1.4,Win32,142.4298533,628b806c463b948bc644b84f,6291cf01829664820f82c4dd,,,,,,,,,,,,,,,,,,,,,,,,0,"[""0""]",1,[1.7087000000477701],"[5.893500000000017,5.180600000023787,2.28810000002386,2.36879999995233,2.466000000000008,2.875799999952278,5.098500000000058,2.9475999999641544,3.613599999964322,1.7087000000477701]",0,9,9,0,1,Practice,1,(3x3) -  9,0,,,,,,,,,,,,,,,,,,,,,,,,,,,,,,,,,,,,,,,,,,,,,,,,,,,,,,,,,,,,,,,,,,,
,,,,,,,,,5b8646582c180900019c9eb7,26,Kobieta,2022-05-28_09h28.13.934,task,2021.1.4,Win32,142.4298533,628b806c463b948bc644b84f,6291cf01829664820f82c4dd,,,,,,,,,,,,,,,,,,,,,,,,,,,,,,,,,,,,,,1,34.4412,2.29608,31.99109663,1.460390282,6.063886927,space,3.5104,0,0,0,0,1,,,,,,,,,,,,,,,,,,,,,,,,,,,,,,,,,,,,,,,,,,,,,,,,,,,,,,
,,,,,,,,,5b8646582c180900019c9eb7,26,Kobieta,2022-05-28_09h28.13.934,task,2021.1.4,Win32,142.4298533,628b806c463b948bc644b84f,6291cf01829664820f82c4dd,,,,,,,,,,,,,,,,,,,,,,,,1,,,,,,,,,,Practice,2,(4x4) - 15,1,,,,,,,,,,,,,,space,53.0109,"[""1""]",1,[3.0631999999881145],1,0,0,0,1,1,,,,,,,,,,,,,,,,,,,,,,,,,,,,,,,,,,,,,,,,,,,
,,,,,,,,,5b8646582c180900019c9eb7,26,Kobieta,2022-05-28_09h28.13.934,task,2021.1.4,Win32,142.4298533,628b806c463b948bc644b84f,6291cf01829664820f82c4dd,,,,,,,,,,,"X V Q F H G B L J M P D K C T S W R N Z
",,,,,,,,,,,,,,,,,,,,,,,,,,,,,,,,,,,,,,,,,,,,,,,,,,,0,0,0,0,1,,,,,,,,,,,,,,,,,,,,,,,,,,,,,,,,,,,,,,
,,,,,,,,,5b8646582c180900019c9eb7,26,Kobieta,2022-05-28_09h28.13.934,task,2021.1.4,Win32,142.4298533,628b806c463b948bc644b84f,6291cf01829664820f82c4dd,,,,,,,,,,,,,,,,,,,,,,,,,,,,,,,,,,Practice,3,(4x4) - 14,2,,,,,,,,,,,,,,,,,0,,0,0,0,0,2,1,,,,,,,,,,,,,,,,,,,,,,,,,,,,,,,,,,,,,,,,,,,
,,,,,,,,,5b8646582c180900019c9eb7,26,Kobieta,2022-05-28_09h28.13.934,task,2021.1.4,Win32,142.4298533,628b806c463b948bc644b84f,6291cf01829664820f82c4dd,,,,,,,,,,,,,,,,,,,,,,,,0,,,,,,,,,,Practice,1,(3x3) -  9,0,,,,,,,,,,,,,,,,"[""0""]",1,[2.473900000035769],1,0,1,1,0,1,,,,,,,,,,,,,,,,,,,,,,,,,,,,,,,,,,,,,,,,,,,
,,,,,,,,,5b8646582c180900019c9eb7,26,Kobieta,2022-05-28_09h28.13.934,task,2021.1.4,Win32,142.4298533,628b806c463b948bc644b84f,6291cf01829664820f82c4dd,,,,,,,,,,,"X V Q F H G B L J M P D K C T S W R N Z
",,,,,,,,,,,,,,,,,,,,,,,,,,,,,,,,,,,,,,,,,,,,,,,,,,,1,0,1,0,1,,,,,,,,,,,,,,,,,,,,,,,,,,,,,,,,,,,,,,
,,,,,,,,,5b8646582c180900019c9eb7,26,Kobieta,2022-05-28_09h28.13.934,task,2021.1.4,Win32,142.4298533,628b806c463b948bc644b84f,6291cf01829664820f82c4dd,,,,,,,,,,,,,,,,,,,,,,,,,,,,,,,,,,,,,,,,,,,,,,,,,,,,,,,,,,,,,,,,,,,zp,"[""z"",""p""]",0,"[4.848600000023907,5.189000000000078,6.094000000000051]",1,0,0,0,0,1,,,,,,,,,,,,,,,,,,,,,,,,,,,,
,,,,,,,,,5b8646582c180900019c9eb7,26,Kobieta,2022-05-28_09h28.13.934,task,2021.1.4,Win32,142.4298533,628b806c463b948bc644b84f,6291cf01829664820f82c4dd,,,,,,,,,,,,,,,,,,,,,,,,9,,,,,,,,,,Practice,10,(20/2) - 1,9,,,,,,,,,,,,,,,,"[""9""]",1,[5.7234999999999445],1,0,0,0,9,1,,,,,,,,,,,,,,,,,,,,,,,,,,,,,,,,,,,,,,,,,,,
,,,,,,,,,5b8646582c180900019c9eb7,26,Kobieta,2022-05-28_09h28.13.934,task,2021.1.4,Win32,142.4298533,628b806c463b948bc644b84f,6291cf01829664820f82c4dd,,,,,,,,,,,"X V Q F H G B L J M P D K C T S W R N Z
",,,,,,,,,,,,,,,,,,,,,,,,,,,,,,,,,,,,,,,,,,,,,,,,,,,0,0,0,0,1,,,,,,,,,,,,,,,,,,,,,,,,,,,,,,,,,,,,,,
,,,,,,,,,5b8646582c180900019c9eb7,26,Kobieta,2022-05-28_09h28.13.934,task,2021.1.4,Win32,142.4298533,628b806c463b948bc644b84f,6291cf01829664820f82c4dd,,,,,,,,,,,,,,,,,,,,,,,,8,,,,,,,,,,Practice,9,(3x3) - 1,8,,,,,,,,,,,,,,,,"[""8""]",1,[3.009999999999991],1,0,0,0,8,1,,,,,,,,,,,,,,,,,,,,,,,,,,,,,,,,,,,,,,,,,,,
,,,,,,,,,5b8646582c180900019c9eb7,26,Kobieta,2022-05-28_09h28.13.934,task,2021.1.4,Win32,142.4298533,628b806c463b948bc644b84f,6291cf01829664820f82c4dd,,,,,,,,,,,"X V Q F H G B L J M P D K C T S W R N Z
",,,,,,,,,,,,,,,,,,,,,,,,,,,,,,,,,,,,,,,,,,,,,,,,,,,1,0,1,0,1,,,,,,,,,,,,,,,,,,,,,,,,,,,,,,,,,,,,,,
,,,,,,,,,5b8646582c180900019c9eb7,26,Kobieta,2022-05-28_09h28.13.934,task,2021.1.4,Win32,142.4298533,628b806c463b948bc644b84f,6291cf01829664820f82c4dd,,,,,,,,,,,,,,,,,,,,,,,,,,,,,,,,,,,,,,,,,,,,,,,,,,,,,,,,,,,,,,,,,,,mg,"[""m"",""g""]",0,"[1.79930000001184,2.34880000001192,3.222899999976107]",1,1,0,1,0,1,,,,,,,,,,,,,,,,,,,,,,,,,,,,
,,,,,,,,,5b8646582c180900019c9eb7,26,Kobieta,2022-05-28_09h28.13.934,task,2021.1.4,Win32,142.4298533,628b806c463b948bc644b84f,6291cf01829664820f82c4dd,,,,,,,,,,,,,,,,,,,,,,,,8,,,,,,,,,,Practice,9,(3x3) - 1,8,,,,,,,,,,,,,,,,"[""8""]",1,[2.201999999999998],1,0,0,0,8,1,,,,,,,,,,,,,,,,,,,,,,,,,,,,,,,,,,,,,,,,,,,
,,,,,,,,,5b8646582c180900019c9eb7,26,Kobieta,2022-05-28_09h28.13.934,task,2021.1.4,Win32,142.4298533,628b806c463b948bc644b84f,6291cf01829664820f82c4dd,,,,,,,,,,,"X V Q F H G B L J M P D K C T S W R N Z
",,,,,,,,,,,,,,,,,,,,,,,,,,,,,,,,,,,,,,,,,,,,,,,,,,,0,0,0,0,1,,,,,,,,,,,,,,,,,,,,,,,,,,,,,,,,,,,,,,
,,,,,,,,,5b8646582c180900019c9eb7,26,Kobieta,2022-05-28_09h28.13.934,task,2021.1.4,Win32,142.4298533,628b806c463b948bc644b84f,6291cf01829664820f82c4dd,,,,,,,,,,,,,,,,,,,,,,,,0,,,,,,,,,,Practice,1,(3x3) -  9,0,,,,,,,,,,,,,,,,"[""0""]",1,[2.056100000023889],1,0,0,0,0,1,,,,,,,,,,,,,,,,,,,,,,,,,,,,,,,,,,,,,,,,,,,
,,,,,,,,,5b8646582c180900019c9eb7,26,Kobieta,2022-05-28_09h28.13.934,task,2021.1.4,Win32,142.4298533,628b806c463b948bc644b84f,6291cf01829664820f82c4dd,,,,,,,,,,,"X V Q F H G B L J M P D K C T S W R N Z
",,,,,,,,,,,,,,,,,,,,,,,,,,,,,,,,,,,,,,,,,,,,,,,,,,,1,0,1,0,1,,,,,,,,,,,,,,,,,,,,,,,,,,,,,,,,,,,,,,
,,,,,,,,,5b8646582c180900019c9eb7,26,Kobieta,2022-05-28_09h28.13.934,task,2021.1.4,Win32,142.4298533,628b806c463b948bc644b84f,6291cf01829664820f82c4dd,,,,,,,,,,,,,,,,,,,,,,,,,,,,,,,,,,,,,,,,,,,,,,,,,,,,,,,,,,,,,,,,,,,cv,"[""c"",""v""]",0,"[1.608000000000061,1.9035000000000082,2.640799999952378]",1,2,0,2,0,1,,,,,,,,,,,,,,,,,,,,,,,,,,,,
,,,,,,,,,5b8646582c180900019c9eb7,26,Kobieta,2022-05-28_09h28.13.934,task,2021.1.4,Win32,142.4298533,628b806c463b948bc644b84f,6291cf01829664820f82c4dd,,,,,,,,,,,,,,,,,,,,,,,,1,,,,,,,,,,Task,16,(3x8) - 15,9,,,,,,,,,,,,,,,,,,,0,,,,,,,,,,,,,,,,,,,,,space,21.0383,"[""1""]",0,[4.154999999999973],0,0,0,15,1,,,,,,,,,,,,,,,,,,
,,,,,,,,,5b8646582c180900019c9eb7,26,Kobieta,2022-05-28_09h28.13.934,task,2021.1.4,Win32,142.4298533,628b806c463b948bc644b84f,6291cf01829664820f82c4dd,,,,,,,,,,,,,,,,,,,,,,,,8,,,,,,,,,,Task,39,(5x3) - 7,8,,,,,,,,,,,,,,,,,,,1,,,,,,,,,,,,,,,,,,,,,,,"[""8""]",1,[4.619199999988041],0,1,1,38,1,,,,,,,,,,,,,,,,,,
,,,,,,,,,5b8646582c180900019c9eb7,26,Kobieta,2022-05-28_09h28.13.934,task,2021.1.4,Win32,142.4298533,628b806c463b948bc644b84f,6291cf01829664820f82c4dd,,,,,,,,,,,"X V Q F H G B L J M P D K C T S W R N Z
",,,,,,,,,,,,,,,,,,,,,,,,,,,,,,,,,,,,,,,,,,,,,,,,,,,,,,,,,,,,,,,,,,,,,,,,,,,,0,0,0,0,1,,,,,,,,,,,,,
,,,,,,,,,5b8646582c180900019c9eb7,26,Kobieta,2022-05-28_09h28.13.934,task,2021.1.4,Win32,142.4298533,628b806c463b948bc644b84f,6291cf01829664820f82c4dd,,,,,,,,,,,,,,,,,,,,,,,,2,,,,,,,,,,Task,30,(6/3) + 4 ,6,,,,,,,,,,,,,,,,,,,0,,,,,,,,,,,,,,,,,,,,,,,"[""2""]",0,[4.963600000023803],0,0,0,29,1,,,,,,,,,,,,,,,,,,
,,,,,,,,,5b8646582c180900019c9eb7,26,Kobieta,2022-05-28_09h28.13.934,task,2021.1.4,Win32,142.4298533,628b806c463b948bc644b84f,6291cf01829664820f82c4dd,,,,,,,,,,,,,,,,,,,,,,,,,,,,,,,,,,Task,29,(3x8) - 19 ,5,,,,,,,,,,,,,,,,,,,0,,,,,,,,,,,,,,,,,,,,,,,,0,,0,1,1,28,1,,,,,,,,,,,,,,,,,,
,,,,,,,,,5b8646582c180900019c9eb7,26,Kobieta,2022-05-28_09h28.13.934,task,2021.1.4,Win32,142.4298533,628b806c463b948bc644b84f,6291cf01829664820f82c4dd,,,,,,,,,,,,,,,,,,,,,,,,2,,,,,,,,,,Task,10,(2x5) - 8,2,,,,,,,,,,,,,,,,,,,1,,,,,,,,,,,,,,,,,,,,,,,"[""2""]",1,[3.188400000035813],0,2,2,9,1,,,,,,,,,,,,,,,,,,
,,,,,,,,,5b8646582c180900019c9eb7,26,Kobieta,2022-05-28_09h28.13.934,task,2021.1.4,Win32,142.4298533,628b806c463b948bc644b84f,6291cf01829664820f82c4dd,,,,,,,,,,,"X V Q F H G B L J M P D K C T S W R N Z
",,,,,,,,,,,,,,,,,,,,,,,,,,,,,,,,,,,,,,,,,,,,,,,,,,,,,,,,,,,,,,,,,,,,,,,,,,,,1,0,1,0,1,,,,,,,,,,,,,
,,,,,,,,,5b8646582c180900019c9eb7,26,Kobieta,2022-05-28_09h28.13.934,task,2021.1.4,Win32,142.4298533,628b806c463b948bc644b84f,6291cf01829664820f82c4dd,,,,,,,,,,,,,,,,,,,,,,,,,,,,,,,,,,,,,,,,,,,,,,,,,,,,,,,,,,,,,,,,,,,,,,,,,,,,,,,,,,,,,,,,,,,,zv,"[""z"",""v""]",0,"[2.0178000000119027,2.74530000001198,3.551600000023882]",1,ZV,0,0,0,0,1,,
,,,,,,,,,5b8646582c180900019c9eb7,26,Kobieta,2022-05-28_09h28.13.934,task,2021.1.4,Win32,142.4298533,628b806c463b948bc644b84f,6291cf01829664820f82c4dd,,,,,,,,,,,,,,,,,,,,,,,,5,,,,,,,,,,Task,36,(8/4) + 3,5,,,,,,,,,,,,,,,,,,,1,,,,,,,,,,,,,,,,,,,,,,,"[""5""]",1,[2.8548000000120055],0,0,0,35,1,,,,,,,,,,,,,,,,,,
,,,,,,,,,5b8646582c180900019c9eb7,26,Kobieta,2022-05-28_09h28.13.934,task,2021.1.4,Win32,142.4298533,628b806c463b948bc644b84f,6291cf01829664820f82c4dd,,,,,,,,,,,"X V Q F H G B L J M P D K C T S W R N Z
",,,,,,,,,,,,,,,,,,,,,,,,,,,,,,,,,,,,,,,,,,,,,,,,,,,,,,,,,,,,,,,,,,,,,,,,,,,,0,0,0,0,1,,,,,,,,,,,,,
,,,,,,,,,5b8646582c180900019c9eb7,26,Kobieta,2022-05-28_09h28.13.934,task,2021.1.4,Win32,142.4298533,628b806c463b948bc644b84f,6291cf01829664820f82c4dd,,,,,,,,,,,,,,,,,,,,,,,,4,,,,,,,,,,Task,11,(18/3) - 2,4,,,,,,,,,,,,,,,,,,,1,,,,,,,,,,,,,,,,,,,,,,,"[""4""]",1,[3.5383000000119864],0,0,0,10,1,,,,,,,,,,,,,,,,,,
,,,,,,,,,5b8646582c180900019c9eb7,26,Kobieta,2022-05-28_09h28.13.934,task,2021.1.4,Win32,142.4298533,628b806c463b948bc644b84f,6291cf01829664820f82c4dd,,,,,,,,,,,"X V Q F H G B L J M P D K C T S W R N Z
",,,,,,,,,,,,,,,,,,,,,,,,,,,,,,,,,,,,,,,,,,,,,,,,,,,,,,,,,,,,,,,,,,,,,,,,,,,,1,0,1,0,1,,,,,,,,,,,,,
,,,,,,,,,5b8646582c180900019c9eb7,26,Kobieta,2022-05-28_09h28.13.934,task,2021.1.4,Win32,142.4298533,628b806c463b948bc644b84f,6291cf01829664820f82c4dd,,,,,,,,,,,,,,,,,,,,,,,,,,,,,,,,,,Task,7,(3x7) - 12,9,,,,,,,,,,,,,,,,,,,0,,,,,,,,,,,,,,,,,,,,,,,,0,,0,0,0,6,1,,,,,,,,,,,,,,,,,,
,,,,,,,,,5b8646582c180900019c9eb7,26,Kobieta,2022-05-28_09h28.13.934,task,2021.1.4,Win32,142.4298533,628b806c463b948bc644b84f,6291cf01829664820f82c4dd,,,,,,,,,,,,,,,,,,,,,,,,8,,,,,,,,,,Task,32,(8/2) + 4,8,,,,,,,,,,,,,,,,,,,1,,,,,,,,,,,,,,,,,,,,,,,"[""8""]",1,[5.331800000011867],0,1,1,31,1,,,,,,,,,,,,,,,,,,
,,,,,,,,,5b8646582c180900019c9eb7,26,Kobieta,2022-05-28_09h28.13.934,task,2021.1.4,Win32,142.4298533,628b806c463b948bc644b84f,6291cf01829664820f82c4dd,,,,,,,,,,,"X V Q F H G B L J M P D K C T S W R N Z
",,,,,,,,,,,,,,,,,,,,,,,,,,,,,,,,,,,,,,,,,,,,,,,,,,,,,,,,,,,,,,,,,,,,,,,,,,,,2,0,2,0,1,,,,,,,,,,,,,
,,,,,,,,,5b8646582c180900019c9eb7,26,Kobieta,2022-05-28_09h28.13.934,task,2021.1.4,Win32,142.4298533,628b806c463b948bc644b84f,6291cf01829664820f82c4dd,,,,,,,,,,,,,,,,,,,,,,,,,,,,,,,,,,,,,,,,,,,,,,,,,,,,,,,,,,,,,,,,,,,,,,,,,,,,,,,,,,,,,,,,,,,,lms,"[""l"",""m"",""s""]",0,"[2.150300000011839,2.803300000011859,3.059399999976108,4.326300000011884]",1,LMS,1,0,1,0,1,,
,,,,,,,,,5b8646582c180900019c9eb7,26,Kobieta,2022-05-28_09h28.13.934,task,2021.1.4,Win32,142.4298533,628b806c463b948bc644b84f,6291cf01829664820f82c4dd,,,,,,,,,,,,,,,,,,,,,,,,6,,,,,,,,,,Task,5,(2x3) + 0,6,,,,,,,,,,,,,,,,,,,1,,,,,,,,,,,,,,,,,,,,,,,"[""6""]",1,[3.535399999976107],0,0,0,4,1,,,,,,,,,,,,,,,,,,
,,,,,,,,,5b8646582c180900019c9eb7,26,Kobieta,2022-05-28_09h28.13.934,task,2021.1.4,Win32,142.4298533,628b806c463b948bc644b84f,6291cf01829664820f82c4dd,,,,,,,,,,,"X V Q F H G B L J M P D K C T S W R N Z
",,,,,,,,,,,,,,,,,,,,,,,,,,,,,,,,,,,,,,,,,,,,,,,,,,,,,,,,,,,,,,,,,,,,,,,,,,,,0,0,0,0,1,,,,,,,,,,,,,
,,,,,,,,,5b8646582c180900019c9eb7,26,Kobieta,2022-05-28_09h28.13.934,task,2021.1.4,Win32,142.4298533,628b806c463b948bc644b84f,6291cf01829664820f82c4dd,,,,,,,,,,,,,,,,,,,,,,,,5,,,,,,,,,,Task,37,(3/3) + 5,6,,,,,,,,,,,,,,,,,,,0,,,,,,,,,,,,,,,,,,,,,,,"[""5""]",0,[3.237400000035791],0,0,0,36,1,,,,,,,,,,,,,,,,,,
,,,,,,,,,5b8646582c180900019c9eb7,26,Kobieta,2022-05-28_09h28.13.934,task,2021.1.4,Win32,142.4298533,628b806c463b948bc644b84f,6291cf01829664820f82c4dd,,,,,,,,,,,,,,,,,,,,,,,,6,,,,,,,,,,Task,30,(6/3) + 4 ,6,,,,,,,,,,,,,,,,,,,1,,,,,,,,,,,,,,,,,,,,,,,"[""6""]",1,[3.6815999999643054],0,1,1,29,1,,,,,,,,,,,,,,,,,,
,,,,,,,,,5b8646582c180900019c9eb7,26,Kobieta,2022-05-28_09h28.13.934,task,2021.1.4,Win32,142.4298533,628b806c463b948bc644b84f,6291cf01829664820f82c4dd,,,,,,,,,,,"X V Q F H G B L J M P D K C T S W R N Z
",,,,,,,,,,,,,,,,,,,,,,,,,,,,,,,,,,,,,,,,,,,,,,,,,,,,,,,,,,,,,,,,,,,,,,,,,,,,1,0,1,0,1,,,,,,,,,,,,,
,,,,,,,,,5b8646582c180900019c9eb7,26,Kobieta,2022-05-28_09h28.13.934,task,2021.1.4,Win32,142.4298533,628b806c463b948bc644b84f,6291cf01829664820f82c4dd,,,,,,,,,,,,,,,,,,,,,,,,5,,,,,,,,,,Task,12,(4x4) - 11,5,,,,,,,,,,,,,,,,,,,1,,,,,,,,,,,,,,,,,,,,,,,"[""5""]",1,[4.5222000000477465],0,0,0,11,1,,,,,,,,,,,,,,,,,,
,,,,,,,,,5b8646582c180900019c9eb7,26,Kobieta,2022-05-28_09h28.13.934,task,2021.1.4,Win32,142.4298533,628b806c463b948bc644b84f,6291cf01829664820f82c4dd,,,,,,,,,,,"X V Q F H G B L J M P D K C T S W R N Z
",,,,,,,,,,,,,,,,,,,,,,,,,,,,,,,,,,,,,,,,,,,,,,,,,,,,,,,,,,,,,,,,,,,,,,,,,,,,2,0,2,0,1,,,,,,,,,,,,,
,,,,,,,,,5b8646582c180900019c9eb7,26,Kobieta,2022-05-28_09h28.13.934,task,2021.1.4,Win32,142.4298533,628b806c463b948bc644b84f,6291cf01829664820f82c4dd,,,,,,,,,,,,,,,,,,,,,,,,8,,,,,,,,,,Task,39,(5x3) - 7,8,,,,,,,,,,,,,,,,,,,1,,,,,,,,,,,,,,,,,,,,,,,"[""8""]",1,[3.0561999999880527],0,0,0,38,1,,,,,,,,,,,,,,,,,,
,,,,,,,,,5b8646582c180900019c9eb7,26,Kobieta,2022-05-28_09h28.13.934,task,2021.1.4,Win32,142.4298533,628b806c463b948bc644b84f,6291cf01829664820f82c4dd,,,,,,,,,,,"X V Q F H G B L J M P D K C T S W R N Z
",,,,,,,,,,,,,,,,,,,,,,,,,,,,,,,,,,,,,,,,,,,,,,,,,,,,,,,,,,,,,,,,,,,,,,,,,,,,3,0,3,0,1,,,,,,,,,,,,,
,,,,,,,,,5b8646582c180900019c9eb7,26,Kobieta,2022-05-28_09h28.13.934,task,2021.1.4,Win32,142.4298533,628b806c463b948bc644b84f,6291cf01829664820f82c4dd,,,,,,,,,,,,,,,,,,,,,,,,,,,,,,,,,,,,,,,,,,,,,,,,,,,,,,,,,,,,,,,,,,,,,,,,,,,,,,,,,,,,,,,,,,,,ffvg,"[""f"",""f"",""v"",""g""]",0,"[1.8159000000357537,2.1138000000119064,3.2529000000357655,3.529900000035809,4.323999999999955]",1,FFVG,2,0,2,0,1,,
,,,,,,,,,5b8646582c180900019c9eb7,26,Kobieta,2022-05-28_09h28.13.934,task,2021.1.4,Win32,142.4298533,628b806c463b948bc644b84f,6291cf01829664820f82c4dd,,,,,,,,,,,,,,,,,,,,,,,,3,,,,,,,,,,Task,35,(1x2) + 1,3,,,,,,,,,,,,,,,,,,,1,,,,,,,,,,,,,,,,,,,,,,,"[""3""]",1,[2.0270000000000437],0,0,0,34,1,,,,,,,,,,,,,,,,,,
,,,,,,,,,5b8646582c180900019c9eb7,26,Kobieta,2022-05-28_09h28.13.934,task,2021.1.4,Win32,142.4298533,628b806c463b948bc644b84f,6291cf01829664820f82c4dd,,,,,,,,,,,"X V Q F H G B L J M P D K C T S W R N Z
",,,,,,,,,,,,,,,,,,,,,,,,,,,,,,,,,,,,,,,,,,,,,,,,,,,,,,,,,,,,,,,,,,,,,,,,,,,,0,0,0,0,1,,,,,,,,,,,,,
,,,,,,,,,5b8646582c180900019c9eb7,26,Kobieta,2022-05-28_09h28.13.934,task,2021.1.4,Win32,142.4298533,628b806c463b948bc644b84f,6291cf01829664820f82c4dd,,,,,,,,,,,,,,,,,,,,,,,,7,,,,,,,,,,Task,31,(4/2) + 5,7,,,,,,,,,,,,,,,,,,,1,,,,,,,,,,,,,,,,,,,,,,,"[""7""]",1,[2.3713999999762336],0,0,0,30,1,,,,,,,,,,,,,,,,,,
,,,,,,,,,5b8646582c180900019c9eb7,26,Kobieta,2022-05-28_09h28.13.934,task,2021.1.4,Win32,142.4298533,628b806c463b948bc644b84f,6291cf01829664820f82c4dd,,,,,,,,,,,"X V Q F H G B L J M P D K C T S W R N Z
",,,,,,,,,,,,,,,,,,,,,,,,,,,,,,,,,,,,,,,,,,,,,,,,,,,,,,,,,,,,,,,,,,,,,,,,,,,,1,0,1,0,1,,,,,,,,,,,,,
,,,,,,,,,5b8646582c180900019c9eb7,26,Kobieta,2022-05-28_09h28.13.934,task,2021.1.4,Win32,142.4298533,628b806c463b948bc644b84f,6291cf01829664820f82c4dd,,,,,,,,,,,,,,,,,,,,,,,,7,,,,,,,,,,Task,14,(2x2) + 3,7,,,,,,,,,,,,,,,,,,,1,,,,,,,,,,,,,,,,,,,,,,,"[""7""]",1,[2.4953999999761436],0,0,0,13,1,,,,,,,,,,,,,,,,,,
,,,,,,,,,5b8646582c180900019c9eb7,26,Kobieta,2022-05-28_09h28.13.934,task,2021.1.4,Win32,142.4298533,628b806c463b948bc644b84f,6291cf01829664820f82c4dd,,,,,,,,,,,"X V Q F H G B L J M P D K C T S W R N Z
",,,,,,,,,,,,,,,,,,,,,,,,,,,,,,,,,,,,,,,,,,,,,,,,,,,,,,,,,,,,,,,,,,,,,,,,,,,,2,0,2,0,1,,,,,,,,,,,,,
,,,,,,,,,5b8646582c180900019c9eb7,26,Kobieta,2022-05-28_09h28.13.934,task,2021.1.4,Win32,142.4298533,628b806c463b948bc644b84f,6291cf01829664820f82c4dd,,,,,,,,,,,,,,,,,,,,,,,,4,,,,,,,,,,Task,28,(2x5) - 6,4,,,,,,,,,,,,,,,,,,,1,,,,,,,,,,,,,,,,,,,,,,,"[""4""]",1,[5.518500000000017],0,0,0,27,1,,,,,,,,,,,,,,,,,,
,,,,,,,,,5b8646582c180900019c9eb7,26,Kobieta,2022-05-28_09h28.13.934,task,2021.1.4,Win32,142.4298533,628b806c463b948bc644b84f,6291cf01829664820f82c4dd,,,,,,,,,,,"X V Q F H G B L J M P D K C T S W R N Z
",,,,,,,,,,,,,,,,,,,,,,,,,,,,,,,,,,,,,,,,,,,,,,,,,,,,,,,,,,,,,,,,,,,,,,,,,,,,3,0,3,0,1,,,,,,,,,,,,,
,,,,,,,,,5b8646582c180900019c9eb7,26,Kobieta,2022-05-28_09h28.13.934,task,2021.1.4,Win32,142.4298533,628b806c463b948bc644b84f,6291cf01829664820f82c4dd,,,,,,,,,,,,,,,,,,,,,,,,2,,,,,,,,,,Task,26,(2x9) - 16,2,,,,,,,,,,,,,,,,,,,1,,,,,,,,,,,,,,,,,,,,,,,"[""2""]",1,[4.466699999988123],0,0,0,25,1,,,,,,,,,,,,,,,,,,
,,,,,,,,,5b8646582c180900019c9eb7,26,Kobieta,2022-05-28_09h28.13.934,task,2021.1.4,Win32,142.4298533,628b806c463b948bc644b84f,6291cf01829664820f82c4dd,,,,,,,,,,,"X V Q F H G B L J M P D K C T S W R N Z
",,,,,,,,,,,,,,,,,,,,,,,,,,,,,,,,,,,,,,,,,,,,,,,,,,,,,,,,,,,,,,,,,,,,,,,,,,,,4,0,4,0,1,,,,,,,,,,,,,
,,,,,,,,,5b8646582c180900019c9eb7,26,Kobieta,2022-05-28_09h28.13.934,task,2021.1.4,Win32,142.4298533,628b806c463b948bc644b84f,6291cf01829664820f82c4dd,,,,,,,,,,,,,,,,,,,,,,,,,,,,,,,,,,,,,,,,,,,,,,,,,,,,,,,,,,,,,,,,,,,,,,,,,,,,,,,,,,,,,,,,,,,,zfnz,"[""z"",""f"",""n"",""z""]",0,"[2.5838000000119337,3.2016999999880227,3.6260999999642536,6.932399999976155,7.3700000000000045]",0,"Z
FSNF",3,0,3,0,1,,
,,,,,,,,,5b8646582c180900019c9eb7,26,Kobieta,2022-05-28_09h28.13.934,task,2021.1.4,Win32,142.4298533,628b806c463b948bc644b84f,6291cf01829664820f82c4dd,,,,,,,,,,,,,,,,,,,,,,,,4,,,,,,,,,,Task,11,(18/3) - 2,4,,,,,,,,,,,,,,,,,,,1,,,,,,,,,,,,,,,,,,,,,,,"[""4""]",1,[4.015099999964264],0,0,0,10,1,,,,,,,,,,,,,,,,,,
,,,,,,,,,5b8646582c180900019c9eb7,26,Kobieta,2022-05-28_09h28.13.934,task,2021.1.4,Win32,142.4298533,628b806c463b948bc644b84f,6291cf01829664820f82c4dd,,,,,,,,,,,"X V Q F H G B L J M P D K C T S W R N Z
",,,,,,,,,,,,,,,,,,,,,,,,,,,,,,,,,,,,,,,,,,,,,,,,,,,,,,,,,,,,,,,,,,,,,,,,,,,,0,0,0,0,1,,,,,,,,,,,,,
,,,,,,,,,5b8646582c180900019c9eb7,26,Kobieta,2022-05-28_09h28.13.934,task,2021.1.4,Win32,142.4298533,628b806c463b948bc644b84f,6291cf01829664820f82c4dd,,,,,,,,,,,,,,,,,,,,,,,,0,,,,,,,,,,Task,8,(1x5) - 5,0,,,,,,,,,,,,,,,,,,,1,,,,,,,,,,,,,,,,,,,,,,,"[""0""]",1,[2.2154999999999063],0,0,0,7,1,,,,,,,,,,,,,,,,,,
,,,,,,,,,5b8646582c180900019c9eb7,26,Kobieta,2022-05-28_09h28.13.934,task,2021.1.4,Win32,142.4298533,628b806c463b948bc644b84f,6291cf01829664820f82c4dd,,,,,,,,,,,"X V Q F H G B L J M P D K C T S W R N Z
",,,,,,,,,,,,,,,,,,,,,,,,,,,,,,,,,,,,,,,,,,,,,,,,,,,,,,,,,,,,,,,,,,,,,,,,,,,,1,0,1,0,1,,,,,,,,,,,,,
,,,,,,,,,5b8646582c180900019c9eb7,26,Kobieta,2022-05-28_09h28.13.934,task,2021.1.4,Win32,142.4298533,628b806c463b948bc644b84f,6291cf01829664820f82c4dd,,,,,,,,,,,,,,,,,,,,,,,,3,,,,,,,,,,Task,29,(3x8) - 19 ,5,,,,,,,,,,,,,,,,,,,0,,,,,,,,,,,,,,,,,,,,,,,"[""3""]",0,[1.5349999999999682],0,0,0,28,1,,,,,,,,,,,,,,,,,,
,,,,,,,,,5b8646582c180900019c9eb7,26,Kobieta,2022-05-28_09h28.13.934,task,2021.1.4,Win32,142.4298533,628b806c463b948bc644b84f,6291cf01829664820f82c4dd,,,,,,,,,,,,,,,,,,,,,,,,3,,,,,,,,,,Task,27,(3/3) + 2,3,,,,,,,,,,,,,,,,,,,1,,,,,,,,,,,,,,,,,,,,,,,"[""3""]",1,[2.7901000000238128],0,1,1,26,1,,,,,,,,,,,,,,,,,,
,,,,,,,,,5b8646582c180900019c9eb7,26,Kobieta,2022-05-28_09h28.13.934,task,2021.1.4,Win32,142.4298533,628b806c463b948bc644b84f,6291cf01829664820f82c4dd,,,,,,,,,,,"X V Q F H G B L J M P D K C T S W R N Z
",,,,,,,,,,,,,,,,,,,,,,,,,,,,,,,,,,,,,,,,,,,,,,,,,,,,,,,,,,,,,,,,,,,,,,,,,,,,2,0,2,0,1,,,,,,,,,,,,,
,,,,,,,,,5b8646582c180900019c9eb7,26,Kobieta,2022-05-28_09h28.13.934,task,2021.1.4,Win32,142.4298533,628b806c463b948bc644b84f,6291cf01829664820f82c4dd,,,,,,,,,,,,,,,,,,,,,,,,4,,,,,,,,,,Task,12,(4x4) - 11,5,,,,,,,,,,,,,,,,,,,0,,,,,,,,,,,,,,,,,,,,,,,"[""4""]",0,[4.289199999988],0,0,0,11,1,,,,,,,,,,,,,,,,,,
,,,,,,,,,5b8646582c180900019c9eb7,26,Kobieta,2022-05-28_09h28.13.934,task,2021.1.4,Win32,142.4298533,628b806c463b948bc644b84f,6291cf01829664820f82c4dd,,,,,,,,,,,,,,,,,,,,,,,,5,,,,,,,,,,Task,22,(3x1) + 2,5,,,,,,,,,,,,,,,,,,,1,,,,,,,,,,,,,,,,,,,,,,,"[""5""]",1,[2.6641000000238364],0,1,1,21,1,,,,,,,,,,,,,,,,,,
,,,,,,,,,5b8646582c180900019c9eb7,26,Kobieta,2022-05-28_09h28.13.934,task,2021.1.4,Win32,142.4298533,628b806c463b948bc644b84f,6291cf01829664820f82c4dd,,,,,,,,,,,"X V Q F H G B L J M P D K C T S W R N Z
",,,,,,,,,,,,,,,,,,,,,,,,,,,,,,,,,,,,,,,,,,,,,,,,,,,,,,,,,,,,,,,,,,,,,,,,,,,,3,0,3,0,1,,,,,,,,,,,,,
,,,,,,,,,5b8646582c180900019c9eb7,26,Kobieta,2022-05-28_09h28.13.934,task,2021.1.4,Win32,142.4298533,628b806c463b948bc644b84f,6291cf01829664820f82c4dd,,,,,,,,,,,,,,,,,,,,,,,,4,,,,,,,,,,Task,34,(9/3) - 2,1,,,,,,,,,,,,,,,,,,,0,,,,,,,,,,,,,,,,,,,,,,,"[""4""]",0,[3.8135999999642536],0,0,0,33,1,,,,,,,,,,,,,,,,,,
,,,,,,,,,5b8646582c180900019c9eb7,26,Kobieta,2022-05-28_09h28.13.934,task,2021.1.4,Win32,142.4298533,628b806c463b948bc644b84f,6291cf01829664820f82c4dd,,,,,,,,,,,,,,,,,,,,,,,,8,,,,,,,,,,Task,23,(2x3) + 2,8,,,,,,,,,,,,,,,,,,,1,,,,,,,,,,,,,,,,,,,,,,,"[""8""]",1,[3.3943999999761445],0,1,1,22,1,,,,,,,,,,,,,,,,,,
,,,,,,,,,5b8646582c180900019c9eb7,26,Kobieta,2022-05-28_09h28.13.934,task,2021.1.4,Win32,142.4298533,628b806c463b948bc644b84f,6291cf01829664820f82c4dd,,,,,,,,,,,"X V Q F H G B L J M P D K C T S W R N Z
",,,,,,,,,,,,,,,,,,,,,,,,,,,,,,,,,,,,,,,,,,,,,,,,,,,,,,,,,,,,,,,,,,,,,,,,,,,,4,0,4,0,1,,,,,,,,,,,,,
,,,,,,,,,5b8646582c180900019c9eb7,26,Kobieta,2022-05-28_09h28.13.934,task,2021.1.4,Win32,142.4298533,628b806c463b948bc644b84f,6291cf01829664820f82c4dd,,,,,,,,,,,,,,,,,,,,,,,,,,,,,,,,,,,,,,,,,,,,,,,,,,,,,,,,,,,,,,,,,,,,,,,,,,,,,,,,,,,,,,,,,,,,ffll,"[""f"",""f"",""l"",""l""]",0,"[7.779800000011846,9.018600000023866,9.47449999999992,9.691100000023766,10.100900000035722]",0,TTVLL,4,0,4,0,1,,
,,,,,,,,,5b8646582c180900019c9eb7,26,Kobieta,2022-05-28_09h28.13.934,task,2021.1.4,Win32,142.4298533,628b806c463b948bc644b84f,6291cf01829664820f82c4dd,,,,,,,,,,,,,,,,,,,,,,,,,,,,,,,,,,,,,,,,,,,,,,,,,,,,,,,,,,,,,,,,,,,,,,,,,,,,,,,,,,,,,,,,,,,,,,,,,,,,,,,space,2.035
