key_resp_15.keys,key_resp_15.rt,key_resp_13.keys,key_resp_13.corr,key_resp_13.rt,ranodm_loop.thisRepN,ranodm_loop.thisTrialN,ranodm_loop.thisN,ranodm_loop.thisIndex,ranodm_loop.ran,participant,Wiek*,Płeć,date,expName,psychopyVersion,OS,frameRate,study_id,session,key_resp_16.keys,key_resp_16.rt,key_resp_4.keys,key_resp_4.rt,next_letter.thisRepN,next_letter.thisTrialN,next_letter.thisN,next_letter.thisIndex,next_letter.ran,letter,simple_recall,key_resp_5.keys,key_resp_5.rt,simple_recall_corr,simple_recall_corrkeys,next_level.thisRepN,next_level.thisTrialN,next_level.thisN,next_level.thisIndex,next_level.ran,key_resp_2.keys,key_resp_2.rt,digit_answer,key_resp.keys,key_resp.corr,key_resp.rt,RT_list,next_equation.thisRepN,next_equation.thisTrialN,next_equation.thisN,next_equation.thisIndex,next_equation.ran,Task,Trial,Problem,Operation_answer,processing_score,sumRT,meanRT,sumdiff,sd,RT,key_resp_3.keys,key_resp_3.rt,repeat_practice.thisRepN,repeat_practice.thisTrialN,repeat_practice.thisN,repeat_practice.thisIndex,repeat_practice.ran,key_resp_6.keys,key_resp_6.rt,key_resp_11.keys,key_resp_11.corr,operation_correct,repeat_if_wrong_prac.thisRepN,repeat_if_wrong_prac.thisTrialN,repeat_if_wrong_prac.thisN,repeat_if_wrong_prac.thisIndex,repeat_if_wrong_prac.ran,key_resp_11.rt,span_size_prac.thisRepN,span_size_prac.thisTrialN,span_size_prac.thisN,span_size_prac.thisIndex,span_size_prac.ran,complex_recall_practice,key_resp_9.keys,key_resp_9.corr,key_resp_9.rt,complex_prac_corr,span_recall_prac.thisRepN,span_recall_prac.thisTrialN,span_recall_prac.thisN,span_recall_prac.thisIndex,span_recall_prac.ran,key_resp_10.keys,key_resp_10.rt,key_resp_7.keys,key_resp_7.corr,key_resp_7.rt,repeat_if_wrong.thisRepN,repeat_if_wrong.thisTrialN,repeat_if_wrong.thisN,repeat_if_wrong.thisIndex,repeat_if_wrong.ran,span_size.thisRepN,span_size.thisTrialN,span_size.thisN,span_size.thisIndex,span_size.ran,complex_recall,key_resp_8.keys,key_resp_8.corr,key_resp_8.rt,complex_recall_corr,complex_recall_corrkeys,span_recall.thisRepN,span_recall.thisTrialN,span_recall.thisN,span_recall.thisIndex,span_recall.ran,key_resp_12.keys,key_resp_12.rt
space,20.4506,"[""comma""]",0,[0.7413999999761529],0,0,0,0,1,5b94d723839c0a00010f88d9,25,Mężczyzna,2022-06-04_08h09.10.577,task,2021.1.4,Win32,59.99520038,628b806c463b948bc644b84f,629af6c692f19c5eee1bc1ea,,,,,,,,,,,,,,,,,,,,,,,,,,,,,,,,,,,,,,,,,,,,,,,,,,,,,,,,,,,,,,,,,,,,,,,,,,,,,,,,,,,,,,,,,,,,,,,,,,,,,,,
,,"[""period""]",0,[0.5001000000238491],1,0,1,0,1,5b94d723839c0a00010f88d9,25,Mężczyzna,2022-06-04_08h09.10.577,task,2021.1.4,Win32,59.99520038,628b806c463b948bc644b84f,629af6c692f19c5eee1bc1ea,,,,,,,,,,,,,,,,,,,,,,,,,,,,,,,,,,,,,,,,,,,,,,,,,,,,,,,,,,,,,,,,,,,,,,,,,,,,,,,,,,,,,,,,,,,,,,,,,,,,,,,
,,"[""comma""]",0,[0.21699999999999875],2,0,2,0,1,5b94d723839c0a00010f88d9,25,Mężczyzna,2022-06-04_08h09.10.577,task,2021.1.4,Win32,59.99520038,628b806c463b948bc644b84f,629af6c692f19c5eee1bc1ea,,,,,,,,,,,,,,,,,,,,,,,,,,,,,,,,,,,,,,,,,,,,,,,,,,,,,,,,,,,,,,,,,,,,,,,,,,,,,,,,,,,,,,,,,,,,,,,,,,,,,,,
,,"[""comma""]",0,[0.00020000004768405688],3,0,3,0,1,5b94d723839c0a00010f88d9,25,Mężczyzna,2022-06-04_08h09.10.577,task,2021.1.4,Win32,59.99520038,628b806c463b948bc644b84f,629af6c692f19c5eee1bc1ea,,,,,,,,,,,,,,,,,,,,,,,,,,,,,,,,,,,,,,,,,,,,,,,,,,,,,,,,,,,,,,,,,,,,,,,,,,,,,,,,,,,,,,,,,,,,,,,,,,,,,,,
,,"[""period""]",0,[-0.028900000035761764],4,0,4,0,1,5b94d723839c0a00010f88d9,25,Mężczyzna,2022-06-04_08h09.10.577,task,2021.1.4,Win32,59.99520038,628b806c463b948bc644b84f,629af6c692f19c5eee1bc1ea,,,,,,,,,,,,,,,,,,,,,,,,,,,,,,,,,,,,,,,,,,,,,,,,,,,,,,,,,,,,,,,,,,,,,,,,,,,,,,,,,,,,,,,,,,,,,,,,,,,,,,,
,,"[""comma""]",0,[0.2003000000119215],5,0,5,0,1,5b94d723839c0a00010f88d9,25,Mężczyzna,2022-06-04_08h09.10.577,task,2021.1.4,Win32,59.99520038,628b806c463b948bc644b84f,629af6c692f19c5eee1bc1ea,,,,,,,,,,,,,,,,,,,,,,,,,,,,,,,,,,,,,,,,,,,,,,,,,,,,,,,,,,,,,,,,,,,,,,,,,,,,,,,,,,,,,,,,,,,,,,,,,,,,,,,
,,"[""period""]",0,[0.20019999998807236],6,0,6,0,1,5b94d723839c0a00010f88d9,25,Mężczyzna,2022-06-04_08h09.10.577,task,2021.1.4,Win32,59.99520038,628b806c463b948bc644b84f,629af6c692f19c5eee1bc1ea,,,,,,,,,,,,,,,,,,,,,,,,,,,,,,,,,,,,,,,,,,,,,,,,,,,,,,,,,,,,,,,,,,,,,,,,,,,,,,,,,,,,,,,,,,,,,,,,,,,,,,,
,,"[""period"",""comma""]",0,"[0.06289999997616746,1.9355999999642393]",7,0,7,0,1,5b94d723839c0a00010f88d9,25,Mężczyzna,2022-06-04_08h09.10.577,task,2021.1.4,Win32,59.99520038,628b806c463b948bc644b84f,629af6c692f19c5eee1bc1ea,,,,,,,,,,,,,,,,,,,,,,,,,,,,,,,,,,,,,,,,,,,,,,,,,,,,,,,,,,,,,,,,,,,,,,,,,,,,,,,,,,,,,,,,,,,,,,,,,,,,,,,
,,,0,,8,0,8,0,1,5b94d723839c0a00010f88d9,25,Mężczyzna,2022-06-04_08h09.10.577,task,2021.1.4,Win32,59.99520038,628b806c463b948bc644b84f,629af6c692f19c5eee1bc1ea,,,,,,,,,,,,,,,,,,,,,,,,,,,,,,,,,,,,,,,,,,,,,,,,,,,,,,,,,,,,,,,,,,,,,,,,,,,,,,,,,,,,,,,,,,,,,,,,,,,,,,,
,,"[""period""]",0,[0.20699999999999363],9,0,9,0,1,5b94d723839c0a00010f88d9,25,Mężczyzna,2022-06-04_08h09.10.577,task,2021.1.4,Win32,59.99520038,628b806c463b948bc644b84f,629af6c692f19c5eee1bc1ea,,,,,,,,,,,,,,,,,,,,,,,,,,,,,,,,,,,,,,,,,,,,,,,,,,,,,,,,,,,,,,,,,,,,,,,,,,,,,,,,,,,,,,,,,,,,,,,,,,,,,,,
,,"[""period""]",0,[0.18589999997615791],10,0,10,0,1,5b94d723839c0a00010f88d9,25,Mężczyzna,2022-06-04_08h09.10.577,task,2021.1.4,Win32,59.99520038,628b806c463b948bc644b84f,629af6c692f19c5eee1bc1ea,,,,,,,,,,,,,,,,,,,,,,,,,,,,,,,,,,,,,,,,,,,,,,,,,,,,,,,,,,,,,,,,,,,,,,,,,,,,,,,,,,,,,,,,,,,,,,,,,,,,,,,
,,"[""comma""]",0,[0.05259999996422948],11,0,11,0,1,5b94d723839c0a00010f88d9,25,Mężczyzna,2022-06-04_08h09.10.577,task,2021.1.4,Win32,59.99520038,628b806c463b948bc644b84f,629af6c692f19c5eee1bc1ea,,,,,,,,,,,,,,,,,,,,,,,,,,,,,,,,,,,,,,,,,,,,,,,,,,,,,,,,,,,,,,,,,,,,,,,,,,,,,,,,,,,,,,,,,,,,,,,,,,,,,,,
,,"[""period""]",0,[0.07580000001192388],12,0,12,0,1,5b94d723839c0a00010f88d9,25,Mężczyzna,2022-06-04_08h09.10.577,task,2021.1.4,Win32,59.99520038,628b806c463b948bc644b84f,629af6c692f19c5eee1bc1ea,,,,,,,,,,,,,,,,,,,,,,,,,,,,,,,,,,,,,,,,,,,,,,,,,,,,,,,,,,,,,,,,,,,,,,,,,,,,,,,,,,,,,,,,,,,,,,,,,,,,,,,
,,"[""comma""]",0,[0.28609999996422175],13,0,13,0,1,5b94d723839c0a00010f88d9,25,Mężczyzna,2022-06-04_08h09.10.577,task,2021.1.4,Win32,59.99520038,628b806c463b948bc644b84f,629af6c692f19c5eee1bc1ea,,,,,,,,,,,,,,,,,,,,,,,,,,,,,,,,,,,,,,,,,,,,,,,,,,,,,,,,,,,,,,,,,,,,,,,,,,,,,,,,,,,,,,,,,,,,,,,,,,,,,,,
,,"[""comma""]",0,[0.22880000001191547],14,0,14,0,1,5b94d723839c0a00010f88d9,25,Mężczyzna,2022-06-04_08h09.10.577,task,2021.1.4,Win32,59.99520038,628b806c463b948bc644b84f,629af6c692f19c5eee1bc1ea,,,,,,,,,,,,,,,,,,,,,,,,,,,,,,,,,,,,,,,,,,,,,,,,,,,,,,,,,,,,,,,,,,,,,,,,,,,,,,,,,,,,,,,,,,,,,,,,,,,,,,,
,,"[""period""]",0,[0.0706999999880793],15,0,15,0,1,5b94d723839c0a00010f88d9,25,Mężczyzna,2022-06-04_08h09.10.577,task,2021.1.4,Win32,59.99520038,628b806c463b948bc644b84f,629af6c692f19c5eee1bc1ea,,,,,,,,,,,,,,,,,,,,,,,,,,,,,,,,,,,,,,,,,,,,,,,,,,,,,,,,,,,,,,,,,,,,,,,,,,,,,,,,,,,,,,,,,,,,,,,,,,,,,,,
,,"[""period"",""period""]",0,"[0.022999999999996135,1.9411000000238232]",16,0,16,0,1,5b94d723839c0a00010f88d9,25,Mężczyzna,2022-06-04_08h09.10.577,task,2021.1.4,Win32,59.99520038,628b806c463b948bc644b84f,629af6c692f19c5eee1bc1ea,,,,,,,,,,,,,,,,,,,,,,,,,,,,,,,,,,,,,,,,,,,,,,,,,,,,,,,,,,,,,,,,,,,,,,,,,,,,,,,,,,,,,,,,,,,,,,,,,,,,,,,
,,,0,,17,0,17,0,1,5b94d723839c0a00010f88d9,25,Mężczyzna,2022-06-04_08h09.10.577,task,2021.1.4,Win32,59.99520038,628b806c463b948bc644b84f,629af6c692f19c5eee1bc1ea,,,,,,,,,,,,,,,,,,,,,,,,,,,,,,,,,,,,,,,,,,,,,,,,,,,,,,,,,,,,,,,,,,,,,,,,,,,,,,,,,,,,,,,,,,,,,,,,,,,,,,,
,,"[""comma""]",0,[0.20939999997617065],18,0,18,0,1,5b94d723839c0a00010f88d9,25,Mężczyzna,2022-06-04_08h09.10.577,task,2021.1.4,Win32,59.99520038,628b806c463b948bc644b84f,629af6c692f19c5eee1bc1ea,,,,,,,,,,,,,,,,,,,,,,,,,,,,,,,,,,,,,,,,,,,,,,,,,,,,,,,,,,,,,,,,,,,,,,,,,,,,,,,,,,,,,,,,,,,,,,,,,,,,,,,
,,"[""period"",""comma""]",0,"[0.004500000000007276,1.7004000000357848]",19,0,19,0,1,5b94d723839c0a00010f88d9,25,Mężczyzna,2022-06-04_08h09.10.577,task,2021.1.4,Win32,59.99520038,628b806c463b948bc644b84f,629af6c692f19c5eee1bc1ea,,,,,,,,,,,,,,,,,,,,,,,,,,,,,,,,,,,,,,,,,,,,,,,,,,,,,,,,,,,,,,,,,,,,,,,,,,,,,,,,,,,,,,,,,,,,,,,,,,,,,,,
,,,0,,20,0,20,0,1,5b94d723839c0a00010f88d9,25,Mężczyzna,2022-06-04_08h09.10.577,task,2021.1.4,Win32,59.99520038,628b806c463b948bc644b84f,629af6c692f19c5eee1bc1ea,,,,,,,,,,,,,,,,,,,,,,,,,,,,,,,,,,,,,,,,,,,,,,,,,,,,,,,,,,,,,,,,,,,,,,,,,,,,,,,,,,,,,,,,,,,,,,,,,,,,,,,
,,"[""comma""]",0,[0.17850000000001387],21,0,21,0,1,5b94d723839c0a00010f88d9,25,Mężczyzna,2022-06-04_08h09.10.577,task,2021.1.4,Win32,59.99520038,628b806c463b948bc644b84f,629af6c692f19c5eee1bc1ea,,,,,,,,,,,,,,,,,,,,,,,,,,,,,,,,,,,,,,,,,,,,,,,,,,,,,,,,,,,,,,,,,,,,,,,,,,,,,,,,,,,,,,,,,,,,,,,,,,,,,,,
,,"[""period""]",0,[0.21689999997616383],22,0,22,0,1,5b94d723839c0a00010f88d9,25,Mężczyzna,2022-06-04_08h09.10.577,task,2021.1.4,Win32,59.99520038,628b806c463b948bc644b84f,629af6c692f19c5eee1bc1ea,,,,,,,,,,,,,,,,,,,,,,,,,,,,,,,,,,,,,,,,,,,,,,,,,,,,,,,,,,,,,,,,,,,,,,,,,,,,,,,,,,,,,,,,,,,,,,,,,,,,,,,
,,"[""comma""]",0,[0.20019999998808657],23,0,23,0,1,5b94d723839c0a00010f88d9,25,Mężczyzna,2022-06-04_08h09.10.577,task,2021.1.4,Win32,59.99520038,628b806c463b948bc644b84f,629af6c692f19c5eee1bc1ea,,,,,,,,,,,,,,,,,,,,,,,,,,,,,,,,,,,,,,,,,,,,,,,,,,,,,,,,,,,,,,,,,,,,,,,,,,,,,,,,,,,,,,,,,,,,,,,,,,,,,,,
,,"[""period""]",0,[0.21669999998806588],24,0,24,0,1,5b94d723839c0a00010f88d9,25,Mężczyzna,2022-06-04_08h09.10.577,task,2021.1.4,Win32,59.99520038,628b806c463b948bc644b84f,629af6c692f19c5eee1bc1ea,,,,,,,,,,,,,,,,,,,,,,,,,,,,,,,,,,,,,,,,,,,,,,,,,,,,,,,,,,,,,,,,,,,,,,,,,,,,,,,,,,,,,,,,,,,,,,,,,,,,,,,
,,"[""period"",""comma""]",0,"[0.21139999997615178,1.883600000023847]",25,0,25,0,1,5b94d723839c0a00010f88d9,25,Mężczyzna,2022-06-04_08h09.10.577,task,2021.1.4,Win32,59.99520038,628b806c463b948bc644b84f,629af6c692f19c5eee1bc1ea,,,,,,,,,,,,,,,,,,,,,,,,,,,,,,,,,,,,,,,,,,,,,,,,,,,,,,,,,,,,,,,,,,,,,,,,,,,,,,,,,,,,,,,,,,,,,,,,,,,,,,,
,,,0,,26,0,26,0,1,5b94d723839c0a00010f88d9,25,Mężczyzna,2022-06-04_08h09.10.577,task,2021.1.4,Win32,59.99520038,628b806c463b948bc644b84f,629af6c692f19c5eee1bc1ea,,,,,,,,,,,,,,,,,,,,,,,,,,,,,,,,,,,,,,,,,,,,,,,,,,,,,,,,,,,,,,,,,,,,,,,,,,,,,,,,,,,,,,,,,,,,,,,,,,,,,,,
,,"[""comma""]",0,[0.15269999998807293],27,0,27,0,1,5b94d723839c0a00010f88d9,25,Mężczyzna,2022-06-04_08h09.10.577,task,2021.1.4,Win32,59.99520038,628b806c463b948bc644b84f,629af6c692f19c5eee1bc1ea,,,,,,,,,,,,,,,,,,,,,,,,,,,,,,,,,,,,,,,,,,,,,,,,,,,,,,,,,,,,,,,,,,,,,,,,,,,,,,,,,,,,,,,,,,,,,,,,,,,,,,,
,,"[""period""]",0,[0.17679999995232265],28,0,28,0,1,5b94d723839c0a00010f88d9,25,Mężczyzna,2022-06-04_08h09.10.577,task,2021.1.4,Win32,59.99520038,628b806c463b948bc644b84f,629af6c692f19c5eee1bc1ea,,,,,,,,,,,,,,,,,,,,,,,,,,,,,,,,,,,,,,,,,,,,,,,,,,,,,,,,,,,,,,,,,,,,,,,,,,,,,,,,,,,,,,,,,,,,,,,,,,,,,,,
,,"[""comma""]",0,[0.13359999996424676],29,0,29,0,1,5b94d723839c0a00010f88d9,25,Mężczyzna,2022-06-04_08h09.10.577,task,2021.1.4,Win32,59.99520038,628b806c463b948bc644b84f,629af6c692f19c5eee1bc1ea,,,,,,,,,,,,,,,,,,,,,,,,,,,,,,,,,,,,,,,,,,,,,,,,,,,,,,,,,,,,,,,,,,,,,,,,,,,,,,,,,,,,,,,,,,,,,,,,,,,,,,,
,,"[""comma""]",0,[0.20010000002383777],30,0,30,0,1,5b94d723839c0a00010f88d9,25,Mężczyzna,2022-06-04_08h09.10.577,task,2021.1.4,Win32,59.99520038,628b806c463b948bc644b84f,629af6c692f19c5eee1bc1ea,,,,,,,,,,,,,,,,,,,,,,,,,,,,,,,,,,,,,,,,,,,,,,,,,,,,,,,,,,,,,,,,,,,,,,,,,,,,,,,,,,,,,,,,,,,,,,,,,,,,,,,
,,"[""period""]",0,[0.09790000003573596],31,0,31,0,1,5b94d723839c0a00010f88d9,25,Mężczyzna,2022-06-04_08h09.10.577,task,2021.1.4,Win32,59.99520038,628b806c463b948bc644b84f,629af6c692f19c5eee1bc1ea,,,,,,,,,,,,,,,,,,,,,,,,,,,,,,,,,,,,,,,,,,,,,,,,,,,,,,,,,,,,,,,,,,,,,,,,,,,,,,,,,,,,,,,,,,,,,,,,,,,,,,,
,,"[""comma""]",0,[0.09830000001193184],32,0,32,0,1,5b94d723839c0a00010f88d9,25,Mężczyzna,2022-06-04_08h09.10.577,task,2021.1.4,Win32,59.99520038,628b806c463b948bc644b84f,629af6c692f19c5eee1bc1ea,,,,,,,,,,,,,,,,,,,,,,,,,,,,,,,,,,,,,,,,,,,,,,,,,,,,,,,,,,,,,,,,,,,,,,,,,,,,,,,,,,,,,,,,,,,,,,,,,,,,,,,
,,"[""period""]",0,[0.10090000003575028],33,0,33,0,1,5b94d723839c0a00010f88d9,25,Mężczyzna,2022-06-04_08h09.10.577,task,2021.1.4,Win32,59.99520038,628b806c463b948bc644b84f,629af6c692f19c5eee1bc1ea,,,,,,,,,,,,,,,,,,,,,,,,,,,,,,,,,,,,,,,,,,,,,,,,,,,,,,,,,,,,,,,,,,,,,,,,,,,,,,,,,,,,,,,,,,,,,,,,,,,,,,,
,,"[""period""]",0,[0.20040000003575642],34,0,34,0,1,5b94d723839c0a00010f88d9,25,Mężczyzna,2022-06-04_08h09.10.577,task,2021.1.4,Win32,59.99520038,628b806c463b948bc644b84f,629af6c692f19c5eee1bc1ea,,,,,,,,,,,,,,,,,,,,,,,,,,,,,,,,,,,,,,,,,,,,,,,,,,,,,,,,,,,,,,,,,,,,,,,,,,,,,,,,,,,,,,,,,,,,,,,,,,,,,,,
,,"[""comma""]",0,[0.21680000001194344],35,0,35,0,1,5b94d723839c0a00010f88d9,25,Mężczyzna,2022-06-04_08h09.10.577,task,2021.1.4,Win32,59.99520038,628b806c463b948bc644b84f,629af6c692f19c5eee1bc1ea,,,,,,,,,,,,,,,,,,,,,,,,,,,,,,,,,,,,,,,,,,,,,,,,,,,,,,,,,,,,,,,,,,,,,,,,,,,,,,,,,,,,,,,,,,,,,,,,,,,,,,,
,,"[""comma""]",0,[0.2167999999523147],36,0,36,0,1,5b94d723839c0a00010f88d9,25,Mężczyzna,2022-06-04_08h09.10.577,task,2021.1.4,Win32,59.99520038,628b806c463b948bc644b84f,629af6c692f19c5eee1bc1ea,,,,,,,,,,,,,,,,,,,,,,,,,,,,,,,,,,,,,,,,,,,,,,,,,,,,,,,,,,,,,,,,,,,,,,,,,,,,,,,,,,,,,,,,,,,,,,,,,,,,,,,
,,"[""period""]",0,[0.0308999999761852],37,0,37,0,1,5b94d723839c0a00010f88d9,25,Mężczyzna,2022-06-04_08h09.10.577,task,2021.1.4,Win32,59.99520038,628b806c463b948bc644b84f,629af6c692f19c5eee1bc1ea,,,,,,,,,,,,,,,,,,,,,,,,,,,,,,,,,,,,,,,,,,,,,,,,,,,,,,,,,,,,,,,,,,,,,,,,,,,,,,,,,,,,,,,,,,,,,,,,,,,,,,,
,,"[""comma""]",0,[0.12469999998808134],38,0,38,0,1,5b94d723839c0a00010f88d9,25,Mężczyzna,2022-06-04_08h09.10.577,task,2021.1.4,Win32,59.99520038,628b806c463b948bc644b84f,629af6c692f19c5eee1bc1ea,,,,,,,,,,,,,,,,,,,,,,,,,,,,,,,,,,,,,,,,,,,,,,,,,,,,,,,,,,,,,,,,,,,,,,,,,,,,,,,,,,,,,,,,,,,,,,,,,,,,,,,
,,"[""comma""]",0,[0.20700000000002206],39,0,39,0,1,5b94d723839c0a00010f88d9,25,Mężczyzna,2022-06-04_08h09.10.577,task,2021.1.4,Win32,59.99520038,628b806c463b948bc644b84f,629af6c692f19c5eee1bc1ea,,,,,,,,,,,,,,,,,,,,,,,,,,,,,,,,,,,,,,,,,,,,,,,,,,,,,,,,,,,,,,,,,,,,,,,,,,,,,,,,,,,,,,,,,,,,,,,,,,,,,,,
,,"[""period"",""period""]",0,"[0.1337000000476678,1.8739000000357464]",40,0,40,0,1,5b94d723839c0a00010f88d9,25,Mężczyzna,2022-06-04_08h09.10.577,task,2021.1.4,Win32,59.99520038,628b806c463b948bc644b84f,629af6c692f19c5eee1bc1ea,,,,,,,,,,,,,,,,,,,,,,,,,,,,,,,,,,,,,,,,,,,,,,,,,,,,,,,,,,,,,,,,,,,,,,,,,,,,,,,,,,,,,,,,,,,,,,,,,,,,,,,
,,,0,,41,0,41,0,1,5b94d723839c0a00010f88d9,25,Mężczyzna,2022-06-04_08h09.10.577,task,2021.1.4,Win32,59.99520038,628b806c463b948bc644b84f,629af6c692f19c5eee1bc1ea,,,,,,,,,,,,,,,,,,,,,,,,,,,,,,,,,,,,,,,,,,,,,,,,,,,,,,,,,,,,,,,,,,,,,,,,,,,,,,,,,,,,,,,,,,,,,,,,,,,,,,,
,,"[""comma""]",0,[0.19780000001193798],42,0,42,0,1,5b94d723839c0a00010f88d9,25,Mężczyzna,2022-06-04_08h09.10.577,task,2021.1.4,Win32,59.99520038,628b806c463b948bc644b84f,629af6c692f19c5eee1bc1ea,,,,,,,,,,,,,,,,,,,,,,,,,,,,,,,,,,,,,,,,,,,,,,,,,,,,,,,,,,,,,,,,,,,,,,,,,,,,,,,,,,,,,,,,,,,,,,,,,,,,,,,
,,"[""period""]",0,[0.17879999995230378],43,0,43,0,1,5b94d723839c0a00010f88d9,25,Mężczyzna,2022-06-04_08h09.10.577,task,2021.1.4,Win32,59.99520038,628b806c463b948bc644b84f,629af6c692f19c5eee1bc1ea,,,,,,,,,,,,,,,,,,,,,,,,,,,,,,,,,,,,,,,,,,,,,,,,,,,,,,,,,,,,,,,,,,,,,,,,,,,,,,,,,,,,,,,,,,,,,,,,,,,,,,,
,,"[""comma""]",0,[0.20699999999999363],44,0,44,0,1,5b94d723839c0a00010f88d9,25,Mężczyzna,2022-06-04_08h09.10.577,task,2021.1.4,Win32,59.99520038,628b806c463b948bc644b84f,629af6c692f19c5eee1bc1ea,,,,,,,,,,,,,,,,,,,,,,,,,,,,,,,,,,,,,,,,,,,,,,,,,,,,,,,,,,,,,,,,,,,,,,,,,,,,,,,,,,,,,,,,,,,,,,,,,,,,,,,
,,"[""period""]",0,[0.057999999999992724],45,0,45,0,1,5b94d723839c0a00010f88d9,25,Mężczyzna,2022-06-04_08h09.10.577,task,2021.1.4,Win32,59.99520038,628b806c463b948bc644b84f,629af6c692f19c5eee1bc1ea,,,,,,,,,,,,,,,,,,,,,,,,,,,,,,,,,,,,,,,,,,,,,,,,,,,,,,,,,,,,,,,,,,,,,,,,,,,,,,,,,,,,,,,,,,,,,,,,,,,,,,,
,,"[""period""]",0,[0.10369999998806634],46,0,46,0,1,5b94d723839c0a00010f88d9,25,Mężczyzna,2022-06-04_08h09.10.577,task,2021.1.4,Win32,59.99520038,628b806c463b948bc644b84f,629af6c692f19c5eee1bc1ea,,,,,,,,,,,,,,,,,,,,,,,,,,,,,,,,,,,,,,,,,,,,,,,,,,,,,,,,,,,,,,,,,,,,,,,,,,,,,,,,,,,,,,,,,,,,,,,,,,,,,,,
,,"[""period""]",0,[0.24579999995231105],47,0,47,0,1,5b94d723839c0a00010f88d9,25,Mężczyzna,2022-06-04_08h09.10.577,task,2021.1.4,Win32,59.99520038,628b806c463b948bc644b84f,629af6c692f19c5eee1bc1ea,,,,,,,,,,,,,,,,,,,,,,,,,,,,,,,,,,,,,,,,,,,,,,,,,,,,,,,,,,,,,,,,,,,,,,,,,,,,,,,,,,,,,,,,,,,,,,,,,,,,,,,
,,"[""comma""]",0,[0.2183000000119364],48,0,48,0,1,5b94d723839c0a00010f88d9,25,Mężczyzna,2022-06-04_08h09.10.577,task,2021.1.4,Win32,59.99520038,628b806c463b948bc644b84f,629af6c692f19c5eee1bc1ea,,,,,,,,,,,,,,,,,,,,,,,,,,,,,,,,,,,,,,,,,,,,,,,,,,,,,,,,,,,,,,,,,,,,,,,,,,,,,,,,,,,,,,,,,,,,,,,,,,,,,,,
,,"[""comma""]",0,[0.22080000001193412],49,0,49,0,1,5b94d723839c0a00010f88d9,25,Mężczyzna,2022-06-04_08h09.10.577,task,2021.1.4,Win32,59.99520038,628b806c463b948bc644b84f,629af6c692f19c5eee1bc1ea,,,,,,,,,,,,,,,,,,,,,,,,,,,,,,,,,,,,,,,,,,,,,,,,,,,,,,,,,,,,,,,,,,,,,,,,,,,,,,,,,,,,,,,,,,,,,,,,,,,,,,,
,,"[""period""]",0,[0.21699999999998454],50,0,50,0,1,5b94d723839c0a00010f88d9,25,Mężczyzna,2022-06-04_08h09.10.577,task,2021.1.4,Win32,59.99520038,628b806c463b948bc644b84f,629af6c692f19c5eee1bc1ea,,,,,,,,,,,,,,,,,,,,,,,,,,,,,,,,,,,,,,,,,,,,,,,,,,,,,,,,,,,,,,,,,,,,,,,,,,,,,,,,,,,,,,,,,,,,,,,,,,,,,,,
,,"[""period""]",0,[0.2388999999761836],51,0,51,0,1,5b94d723839c0a00010f88d9,25,Mężczyzna,2022-06-04_08h09.10.577,task,2021.1.4,Win32,59.99520038,628b806c463b948bc644b84f,629af6c692f19c5eee1bc1ea,,,,,,,,,,,,,,,,,,,,,,,,,,,,,,,,,,,,,,,,,,,,,,,,,,,,,,,,,,,,,,,,,,,,,,,,,,,,,,,,,,,,,,,,,,,,,,,,,,,,,,,
,,"[""comma""]",0,[0.20430000001192639],52,0,52,0,1,5b94d723839c0a00010f88d9,25,Mężczyzna,2022-06-04_08h09.10.577,task,2021.1.4,Win32,59.99520038,628b806c463b948bc644b84f,629af6c692f19c5eee1bc1ea,,,,,,,,,,,,,,,,,,,,,,,,,,,,,,,,,,,,,,,,,,,,,,,,,,,,,,,,,,,,,,,,,,,,,,,,,,,,,,,,,,,,,,,,,,,,,,,,,,,,,,,
,,"[""period""]",0,[0.20239999997616565],53,0,53,0,1,5b94d723839c0a00010f88d9,25,Mężczyzna,2022-06-04_08h09.10.577,task,2021.1.4,Win32,59.99520038,628b806c463b948bc644b84f,629af6c692f19c5eee1bc1ea,,,,,,,,,,,,,,,,,,,,,,,,,,,,,,,,,,,,,,,,,,,,,,,,,,,,,,,,,,,,,,,,,,,,,,,,,,,,,,,,,,,,,,,,,,,,,,,,,,,,,,,
,,"[""comma""]",0,[0.15190000003576642],54,0,54,0,1,5b94d723839c0a00010f88d9,25,Mężczyzna,2022-06-04_08h09.10.577,task,2021.1.4,Win32,59.99520038,628b806c463b948bc644b84f,629af6c692f19c5eee1bc1ea,,,,,,,,,,,,,,,,,,,,,,,,,,,,,,,,,,,,,,,,,,,,,,,,,,,,,,,,,,,,,,,,,,,,,,,,,,,,,,,,,,,,,,,,,,,,,,,,,,,,,,,
,,"[""comma""]",0,[0.21689999997616383],55,0,55,0,1,5b94d723839c0a00010f88d9,25,Mężczyzna,2022-06-04_08h09.10.577,task,2021.1.4,Win32,59.99520038,628b806c463b948bc644b84f,629af6c692f19c5eee1bc1ea,,,,,,,,,,,,,,,,,,,,,,,,,,,,,,,,,,,,,,,,,,,,,,,,,,,,,,,,,,,,,,,,,,,,,,,,,,,,,,,,,,,,,,,,,,,,,,,,,,,,,,,
,,"[""period""]",0,[0.1856999999880884],56,0,56,0,1,5b94d723839c0a00010f88d9,25,Mężczyzna,2022-06-04_08h09.10.577,task,2021.1.4,Win32,59.99520038,628b806c463b948bc644b84f,629af6c692f19c5eee1bc1ea,,,,,,,,,,,,,,,,,,,,,,,,,,,,,,,,,,,,,,,,,,,,,,,,,,,,,,,,,,,,,,,,,,,,,,,,,,,,,,,,,,,,,,,,,,,,,,,,,,,,,,,
,,"[""comma""]",0,[0.08969999998808476],57,0,57,0,1,5b94d723839c0a00010f88d9,25,Mężczyzna,2022-06-04_08h09.10.577,task,2021.1.4,Win32,59.99520038,628b806c463b948bc644b84f,629af6c692f19c5eee1bc1ea,,,,,,,,,,,,,,,,,,,,,,,,,,,,,,,,,,,,,,,,,,,,,,,,,,,,,,,,,,,,,,,,,,,,,,,,,,,,,,,,,,,,,,,,,,,,,,,,,,,,,,,
,,"[""period""]",0,[0.23669999998807612],58,0,58,0,1,5b94d723839c0a00010f88d9,25,Mężczyzna,2022-06-04_08h09.10.577,task,2021.1.4,Win32,59.99520038,628b806c463b948bc644b84f,629af6c692f19c5eee1bc1ea,,,,,,,,,,,,,,,,,,,,,,,,,,,,,,,,,,,,,,,,,,,,,,,,,,,,,,,,,,,,,,,,,,,,,,,,,,,,,,,,,,,,,,,,,,,,,,,,,,,,,,,
,,"[""comma""]",0,[0.2055999999642495],59,0,59,0,1,5b94d723839c0a00010f88d9,25,Mężczyzna,2022-06-04_08h09.10.577,task,2021.1.4,Win32,59.99520038,628b806c463b948bc644b84f,629af6c692f19c5eee1bc1ea,,,,,,,,,,,,,,,,,,,,,,,,,,,,,,,,,,,,,,,,,,,,,,,,,,,,,,,,,,,,,,,,,,,,,,,,,,,,,,,,,,,,,,,,,,,,,,,,,,,,,,,
,,"[""period""]",0,[0.23569999998807134],60,0,60,0,1,5b94d723839c0a00010f88d9,25,Mężczyzna,2022-06-04_08h09.10.577,task,2021.1.4,Win32,59.99520038,628b806c463b948bc644b84f,629af6c692f19c5eee1bc1ea,,,,,,,,,,,,,,,,,,,,,,,,,,,,,,,,,,,,,,,,,,,,,,,,,,,,,,,,,,,,,,,,,,,,,,,,,,,,,,,,,,,,,,,,,,,,,,,,,,,,,,,
,,"[""comma""]",0,[0.22280000001191524],61,0,61,0,1,5b94d723839c0a00010f88d9,25,Mężczyzna,2022-06-04_08h09.10.577,task,2021.1.4,Win32,59.99520038,628b806c463b948bc644b84f,629af6c692f19c5eee1bc1ea,,,,,,,,,,,,,,,,,,,,,,,,,,,,,,,,,,,,,,,,,,,,,,,,,,,,,,,,,,,,,,,,,,,,,,,,,,,,,,,,,,,,,,,,,,,,,,,,,,,,,,,
,,"[""comma""]",0,[0.07149999999998613],62,0,62,0,1,5b94d723839c0a00010f88d9,25,Mężczyzna,2022-06-04_08h09.10.577,task,2021.1.4,Win32,59.99520038,628b806c463b948bc644b84f,629af6c692f19c5eee1bc1ea,,,,,,,,,,,,,,,,,,,,,,,,,,,,,,,,,,,,,,,,,,,,,,,,,,,,,,,,,,,,,,,,,,,,,,,,,,,,,,,,,,,,,,,,,,,,,,,,,,,,,,,
,,"[""period""]",0,[0.21460000002383595],63,0,63,0,1,5b94d723839c0a00010f88d9,25,Mężczyzna,2022-06-04_08h09.10.577,task,2021.1.4,Win32,59.99520038,628b806c463b948bc644b84f,629af6c692f19c5eee1bc1ea,,,,,,,,,,,,,,,,,,,,,,,,,,,,,,,,,,,,,,,,,,,,,,,,,,,,,,,,,,,,,,,,,,,,,,,,,,,,,,,,,,,,,,,,,,,,,,,,,,,,,,,
,,"[""period""]",0,[0.24040000003574846],64,0,64,0,1,5b94d723839c0a00010f88d9,25,Mężczyzna,2022-06-04_08h09.10.577,task,2021.1.4,Win32,59.99520038,628b806c463b948bc644b84f,629af6c692f19c5eee1bc1ea,,,,,,,,,,,,,,,,,,,,,,,,,,,,,,,,,,,,,,,,,,,,,,,,,,,,,,,,,,,,,,,,,,,,,,,,,,,,,,,,,,,,,,,,,,,,,,,,,,,,,,,
,,"[""comma""]",0,[0.19430000001190706],65,0,65,0,1,5b94d723839c0a00010f88d9,25,Mężczyzna,2022-06-04_08h09.10.577,task,2021.1.4,Win32,59.99520038,628b806c463b948bc644b84f,629af6c692f19c5eee1bc1ea,,,,,,,,,,,,,,,,,,,,,,,,,,,,,,,,,,,,,,,,,,,,,,,,,,,,,,,,,,,,,,,,,,,,,,,,,,,,,,,,,,,,,,,,,,,,,,,,,,,,,,,
,,"[""comma""]",0,[0.16719999998809953],66,0,66,0,1,5b94d723839c0a00010f88d9,25,Mężczyzna,2022-06-04_08h09.10.577,task,2021.1.4,Win32,59.99520038,628b806c463b948bc644b84f,629af6c692f19c5eee1bc1ea,,,,,,,,,,,,,,,,,,,,,,,,,,,,,,,,,,,,,,,,,,,,,,,,,,,,,,,,,,,,,,,,,,,,,,,,,,,,,,,,,,,,,,,,,,,,,,,,,,,,,,,
,,"[""period""]",0,[0.23400000000000887],67,0,67,0,1,5b94d723839c0a00010f88d9,25,Mężczyzna,2022-06-04_08h09.10.577,task,2021.1.4,Win32,59.99520038,628b806c463b948bc644b84f,629af6c692f19c5eee1bc1ea,,,,,,,,,,,,,,,,,,,,,,,,,,,,,,,,,,,,,,,,,,,,,,,,,,,,,,,,,,,,,,,,,,,,,,,,,,,,,,,,,,,,,,,,,,,,,,,,,,,,,,,
,,"[""comma""]",0,[0.2811000000238266],68,0,68,0,1,5b94d723839c0a00010f88d9,25,Mężczyzna,2022-06-04_08h09.10.577,task,2021.1.4,Win32,59.99520038,628b806c463b948bc644b84f,629af6c692f19c5eee1bc1ea,,,,,,,,,,,,,,,,,,,,,,,,,,,,,,,,,,,,,,,,,,,,,,,,,,,,,,,,,,,,,,,,,,,,,,,,,,,,,,,,,,,,,,,,,,,,,,,,,,,,,,,
,,"[""period""]",0,[0.25329999995233266],69,0,69,0,1,5b94d723839c0a00010f88d9,25,Mężczyzna,2022-06-04_08h09.10.577,task,2021.1.4,Win32,59.99520038,628b806c463b948bc644b84f,629af6c692f19c5eee1bc1ea,,,,,,,,,,,,,,,,,,,,,,,,,,,,,,,,,,,,,,,,,,,,,,,,,,,,,,,,,,,,,,,,,,,,,,,,,,,,,,,,,,,,,,,,,,,,,,,,,,,,,,,
,,"[""comma""]",0,[0.23909999996425313],70,0,70,0,1,5b94d723839c0a00010f88d9,25,Mężczyzna,2022-06-04_08h09.10.577,task,2021.1.4,Win32,59.99520038,628b806c463b948bc644b84f,629af6c692f19c5eee1bc1ea,,,,,,,,,,,,,,,,,,,,,,,,,,,,,,,,,,,,,,,,,,,,,,,,,,,,,,,,,,,,,,,,,,,,,,,,,,,,,,,,,,,,,,,,,,,,,,,,,,,,,,,
,,"[""period""]",0,[0.23149999999998272],71,0,71,0,1,5b94d723839c0a00010f88d9,25,Mężczyzna,2022-06-04_08h09.10.577,task,2021.1.4,Win32,59.99520038,628b806c463b948bc644b84f,629af6c692f19c5eee1bc1ea,,,,,,,,,,,,,,,,,,,,,,,,,,,,,,,,,,,,,,,,,,,,,,,,,,,,,,,,,,,,,,,,,,,,,,,,,,,,,,,,,,,,,,,,,,,,,,,,,,,,,,,
,,"[""comma""]",0,[0.21930000001191274],72,0,72,0,1,5b94d723839c0a00010f88d9,25,Mężczyzna,2022-06-04_08h09.10.577,task,2021.1.4,Win32,59.99520038,628b806c463b948bc644b84f,629af6c692f19c5eee1bc1ea,,,,,,,,,,,,,,,,,,,,,,,,,,,,,,,,,,,,,,,,,,,,,,,,,,,,,,,,,,,,,,,,,,,,,,,,,,,,,,,,,,,,,,,,,,,,,,,,,,,,,,,
,,"[""period""]",0,[0.31939999997615587],73,0,73,0,1,5b94d723839c0a00010f88d9,25,Mężczyzna,2022-06-04_08h09.10.577,task,2021.1.4,Win32,59.99520038,628b806c463b948bc644b84f,629af6c692f19c5eee1bc1ea,,,,,,,,,,,,,,,,,,,,,,,,,,,,,,,,,,,,,,,,,,,,,,,,,,,,,,,,,,,,,,,,,,,,,,,,,,,,,,,,,,,,,,,,,,,,,,,,,,,,,,,
,,"[""comma""]",0,[0.3930999999642495],74,0,74,0,1,5b94d723839c0a00010f88d9,25,Mężczyzna,2022-06-04_08h09.10.577,task,2021.1.4,Win32,59.99520038,628b806c463b948bc644b84f,629af6c692f19c5eee1bc1ea,,,,,,,,,,,,,,,,,,,,,,,,,,,,,,,,,,,,,,,,,,,,,,,,,,,,,,,,,,,,,,,,,,,,,,,,,,,,,,,,,,,,,,,,,,,,,,,,,,,,,,,
,,"[""period""]",0,[0.3001999999880809],75,0,75,0,1,5b94d723839c0a00010f88d9,25,Mężczyzna,2022-06-04_08h09.10.577,task,2021.1.4,Win32,59.99520038,628b806c463b948bc644b84f,629af6c692f19c5eee1bc1ea,,,,,,,,,,,,,,,,,,,,,,,,,,,,,,,,,,,,,,,,,,,,,,,,,,,,,,,,,,,,,,,,,,,,,,,,,,,,,,,,,,,,,,,,,,,,,,,,,,,,,,,
,,"[""comma""]",0,[0.26470000004769645],76,0,76,0,1,5b94d723839c0a00010f88d9,25,Mężczyzna,2022-06-04_08h09.10.577,task,2021.1.4,Win32,59.99520038,628b806c463b948bc644b84f,629af6c692f19c5eee1bc1ea,,,,,,,,,,,,,,,,,,,,,,,,,,,,,,,,,,,,,,,,,,,,,,,,,,,,,,,,,,,,,,,,,,,,,,,,,,,,,,,,,,,,,,,,,,,,,,,,,,,,,,,
,,"[""comma""]",0,[0.25010000002384913],77,0,77,0,1,5b94d723839c0a00010f88d9,25,Mężczyzna,2022-06-04_08h09.10.577,task,2021.1.4,Win32,59.99520038,628b806c463b948bc644b84f,629af6c692f19c5eee1bc1ea,,,,,,,,,,,,,,,,,,,,,,,,,,,,,,,,,,,,,,,,,,,,,,,,,,,,,,,,,,,,,,,,,,,,,,,,,,,,,,,,,,,,,,,,,,,,,,,,,,,,,,,
,,"[""period""]",0,[0.3977999999523263],78,0,78,0,1,5b94d723839c0a00010f88d9,25,Mężczyzna,2022-06-04_08h09.10.577,task,2021.1.4,Win32,59.99520038,628b806c463b948bc644b84f,629af6c692f19c5eee1bc1ea,,,,,,,,,,,,,,,,,,,,,,,,,,,,,,,,,,,,,,,,,,,,,,,,,,,,,,,,,,,,,,,,,,,,,,,,,,,,,,,,,,,,,,,,,,,,,,,,,,,,,,,
,,"[""comma""]",0,[0.31110000002382776],79,0,79,0,1,5b94d723839c0a00010f88d9,25,Mężczyzna,2022-06-04_08h09.10.577,task,2021.1.4,Win32,59.99520038,628b806c463b948bc644b84f,629af6c692f19c5eee1bc1ea,,,,,,,,,,,,,,,,,,,,,,,,,,,,,,,,,,,,,,,,,,,,,,,,,,,,,,,,,,,,,,,,,,,,,,,,,,,,,,,,,,,,,,,,,,,,,,,,,,,,,,,
,,"[""period""]",0,[0.25600000000002865],80,0,80,0,1,5b94d723839c0a00010f88d9,25,Mężczyzna,2022-06-04_08h09.10.577,task,2021.1.4,Win32,59.99520038,628b806c463b948bc644b84f,629af6c692f19c5eee1bc1ea,,,,,,,,,,,,,,,,,,,,,,,,,,,,,,,,,,,,,,,,,,,,,,,,,,,,,,,,,,,,,,,,,,,,,,,,,,,,,,,,,,,,,,,,,,,,,,,,,,,,,,,
,,"[""period""]",0,[0.20469999998806543],81,0,81,0,1,5b94d723839c0a00010f88d9,25,Mężczyzna,2022-06-04_08h09.10.577,task,2021.1.4,Win32,59.99520038,628b806c463b948bc644b84f,629af6c692f19c5eee1bc1ea,,,,,,,,,,,,,,,,,,,,,,,,,,,,,,,,,,,,,,,,,,,,,,,,,,,,,,,,,,,,,,,,,,,,,,,,,,,,,,,,,,,,,,,,,,,,,,,,,,,,,,,
,,"[""comma""]",0,[0.2115999999642213],82,0,82,0,1,5b94d723839c0a00010f88d9,25,Mężczyzna,2022-06-04_08h09.10.577,task,2021.1.4,Win32,59.99520038,628b806c463b948bc644b84f,629af6c692f19c5eee1bc1ea,,,,,,,,,,,,,,,,,,,,,,,,,,,,,,,,,,,,,,,,,,,,,,,,,,,,,,,,,,,,,,,,,,,,,,,,,,,,,,,,,,,,,,,,,,,,,,,,,,,,,,,
,,"[""comma""]",0,[0.2106000000238737],83,0,83,0,1,5b94d723839c0a00010f88d9,25,Mężczyzna,2022-06-04_08h09.10.577,task,2021.1.4,Win32,59.99520038,628b806c463b948bc644b84f,629af6c692f19c5eee1bc1ea,,,,,,,,,,,,,,,,,,,,,,,,,,,,,,,,,,,,,,,,,,,,,,,,,,,,,,,,,,,,,,,,,,,,,,,,,,,,,,,,,,,,,,,,,,,,,,,,,,,,,,,
,,"[""period""]",0,[0.1479999999999677],84,0,84,0,1,5b94d723839c0a00010f88d9,25,Mężczyzna,2022-06-04_08h09.10.577,task,2021.1.4,Win32,59.99520038,628b806c463b948bc644b84f,629af6c692f19c5eee1bc1ea,,,,,,,,,,,,,,,,,,,,,,,,,,,,,,,,,,,,,,,,,,,,,,,,,,,,,,,,,,,,,,,,,,,,,,,,,,,,,,,,,,,,,,,,,,,,,,,,,,,,,,,
,,"[""comma""]",0,[0.10019999998809226],85,0,85,0,1,5b94d723839c0a00010f88d9,25,Mężczyzna,2022-06-04_08h09.10.577,task,2021.1.4,Win32,59.99520038,628b806c463b948bc644b84f,629af6c692f19c5eee1bc1ea,,,,,,,,,,,,,,,,,,,,,,,,,,,,,,,,,,,,,,,,,,,,,,,,,,,,,,,,,,,,,,,,,,,,,,,,,,,,,,,,,,,,,,,,,,,,,,,,,,,,,,,
,,"[""period""]",0,[0.22419999998805906],86,0,86,0,1,5b94d723839c0a00010f88d9,25,Mężczyzna,2022-06-04_08h09.10.577,task,2021.1.4,Win32,59.99520038,628b806c463b948bc644b84f,629af6c692f19c5eee1bc1ea,,,,,,,,,,,,,,,,,,,,,,,,,,,,,,,,,,,,,,,,,,,,,,,,,,,,,,,,,,,,,,,,,,,,,,,,,,,,,,,,,,,,,,,,,,,,,,,,,,,,,,,
,,"[""comma""]",0,[0.25480000001192593],87,0,87,0,1,5b94d723839c0a00010f88d9,25,Mężczyzna,2022-06-04_08h09.10.577,task,2021.1.4,Win32,59.99520038,628b806c463b948bc644b84f,629af6c692f19c5eee1bc1ea,,,,,,,,,,,,,,,,,,,,,,,,,,,,,,,,,,,,,,,,,,,,,,,,,,,,,,,,,,,,,,,,,,,,,,,,,,,,,,,,,,,,,,,,,,,,,,,,,,,,,,,
,,"[""period""]",0,[0.25020000004769827],88,0,88,0,1,5b94d723839c0a00010f88d9,25,Mężczyzna,2022-06-04_08h09.10.577,task,2021.1.4,Win32,59.99520038,628b806c463b948bc644b84f,629af6c692f19c5eee1bc1ea,,,,,,,,,,,,,,,,,,,,,,,,,,,,,,,,,,,,,,,,,,,,,,,,,,,,,,,,,,,,,,,,,,,,,,,,,,,,,,,,,,,,,,,,,,,,,,,,,,,,,,,
,,"[""comma""]",0,[0.20129999995231174],89,0,89,0,1,5b94d723839c0a00010f88d9,25,Mężczyzna,2022-06-04_08h09.10.577,task,2021.1.4,Win32,59.99520038,628b806c463b948bc644b84f,629af6c692f19c5eee1bc1ea,,,,,,,,,,,,,,,,,,,,,,,,,,,,,,,,,,,,,,,,,,,,,,,,,,,,,,,,,,,,,,,,,,,,,,,,,,,,,,,,,,,,,,,,,,,,,,,,,,,,,,,
,,"[""comma""]",0,[0.19099999999997408],90,0,90,0,1,5b94d723839c0a00010f88d9,25,Mężczyzna,2022-06-04_08h09.10.577,task,2021.1.4,Win32,59.99520038,628b806c463b948bc644b84f,629af6c692f19c5eee1bc1ea,,,,,,,,,,,,,,,,,,,,,,,,,,,,,,,,,,,,,,,,,,,,,,,,,,,,,,,,,,,,,,,,,,,,,,,,,,,,,,,,,,,,,,,,,,,,,,,,,,,,,,,
,,"[""period""]",0,[0.23569999998807134],91,0,91,0,1,5b94d723839c0a00010f88d9,25,Mężczyzna,2022-06-04_08h09.10.577,task,2021.1.4,Win32,59.99520038,628b806c463b948bc644b84f,629af6c692f19c5eee1bc1ea,,,,,,,,,,,,,,,,,,,,,,,,,,,,,,,,,,,,,,,,,,,,,,,,,,,,,,,,,,,,,,,,,,,,,,,,,,,,,,,,,,,,,,,,,,,,,,,,,,,,,,,
,,"[""period""]",0,[0.06999999999999318],92,0,92,0,1,5b94d723839c0a00010f88d9,25,Mężczyzna,2022-06-04_08h09.10.577,task,2021.1.4,Win32,59.99520038,628b806c463b948bc644b84f,629af6c692f19c5eee1bc1ea,,,,,,,,,,,,,,,,,,,,,,,,,,,,,,,,,,,,,,,,,,,,,,,,,,,,,,,,,,,,,,,,,,,,,,,,,,,,,,,,,,,,,,,,,,,,,,,,,,,,,,,
,,"[""comma""]",0,[0.2668000000119264],93,0,93,0,1,5b94d723839c0a00010f88d9,25,Mężczyzna,2022-06-04_08h09.10.577,task,2021.1.4,Win32,59.99520038,628b806c463b948bc644b84f,629af6c692f19c5eee1bc1ea,,,,,,,,,,,,,,,,,,,,,,,,,,,,,,,,,,,,,,,,,,,,,,,,,,,,,,,,,,,,,,,,,,,,,,,,,,,,,,,,,,,,,,,,,,,,,,,,,,,,,,,
,,"[""comma""]",0,[0.31910000002386596],94,0,94,0,1,5b94d723839c0a00010f88d9,25,Mężczyzna,2022-06-04_08h09.10.577,task,2021.1.4,Win32,59.99520038,628b806c463b948bc644b84f,629af6c692f19c5eee1bc1ea,,,,,,,,,,,,,,,,,,,,,,,,,,,,,,,,,,,,,,,,,,,,,,,,,,,,,,,,,,,,,,,,,,,,,,,,,,,,,,,,,,,,,,,,,,,,,,,,,,,,,,,
,,"[""period""]",0,[0.21699999999998454],95,0,95,0,1,5b94d723839c0a00010f88d9,25,Mężczyzna,2022-06-04_08h09.10.577,task,2021.1.4,Win32,59.99520038,628b806c463b948bc644b84f,629af6c692f19c5eee1bc1ea,,,,,,,,,,,,,,,,,,,,,,,,,,,,,,,,,,,,,,,,,,,,,,,,,,,,,,,,,,,,,,,,,,,,,,,,,,,,,,,,,,,,,,,,,,,,,,,,,,,,,,,
,,"[""comma""]",0,[0.51400000000001],96,0,96,0,1,5b94d723839c0a00010f88d9,25,Mężczyzna,2022-06-04_08h09.10.577,task,2021.1.4,Win32,59.99520038,628b806c463b948bc644b84f,629af6c692f19c5eee1bc1ea,,,,,,,,,,,,,,,,,,,,,,,,,,,,,,,,,,,,,,,,,,,,,,,,,,,,,,,,,,,,,,,,,,,,,,,,,,,,,,,,,,,,,,,,,,,,,,,,,,,,,,,
,,"[""period""]",0,[0.30020000004770964],97,0,97,0,1,5b94d723839c0a00010f88d9,25,Mężczyzna,2022-06-04_08h09.10.577,task,2021.1.4,Win32,59.99520038,628b806c463b948bc644b84f,629af6c692f19c5eee1bc1ea,,,,,,,,,,,,,,,,,,,,,,,,,,,,,,,,,,,,,,,,,,,,,,,,,,,,,,,,,,,,,,,,,,,,,,,,,,,,,,,,,,,,,,,,,,,,,,,,,,,,,,,
,,"[""period"",""comma""]",0,"[0.5168999999761468,0.5520000000000209]",98,0,98,0,1,5b94d723839c0a00010f88d9,25,Mężczyzna,2022-06-04_08h09.10.577,task,2021.1.4,Win32,59.99520038,628b806c463b948bc644b84f,629af6c692f19c5eee1bc1ea,,,,,,,,,,,,,,,,,,,,,,,,,,,,,,,,,,,,,,,,,,,,,,,,,,,,,,,,,,,,,,,,,,,,,,,,,,,,,,,,,,,,,,,,,,,,,,,,,,,,,,,
,,"[""period""]",0,[0.2669999999999959],99,0,99,0,1,5b94d723839c0a00010f88d9,25,Mężczyzna,2022-06-04_08h09.10.577,task,2021.1.4,Win32,59.99520038,628b806c463b948bc644b84f,629af6c692f19c5eee1bc1ea,,,,,,,,,,,,,,,,,,,,,,,,,,,,,,,,,,,,,,,,,,,,,,,,,,,,,,,,,,,,,,,,,,,,,,,,,,,,,,,,,,,,,,,,,,,,,,,,,,,,,,,
,,"[""period""]",0,[0.22149999999999181],100,0,100,0,1,5b94d723839c0a00010f88d9,25,Mężczyzna,2022-06-04_08h09.10.577,task,2021.1.4,Win32,59.99520038,628b806c463b948bc644b84f,629af6c692f19c5eee1bc1ea,,,,,,,,,,,,,,,,,,,,,,,,,,,,,,,,,,,,,,,,,,,,,,,,,,,,,,,,,,,,,,,,,,,,,,,,,,,,,,,,,,,,,,,,,,,,,,,,,,,,,,,
,,"[""comma""]",0,[0.43830000001190683],101,0,101,0,1,5b94d723839c0a00010f88d9,25,Mężczyzna,2022-06-04_08h09.10.577,task,2021.1.4,Win32,59.99520038,628b806c463b948bc644b84f,629af6c692f19c5eee1bc1ea,,,,,,,,,,,,,,,,,,,,,,,,,,,,,,,,,,,,,,,,,,,,,,,,,,,,,,,,,,,,,,,,,,,,,,,,,,,,,,,,,,,,,,,,,,,,,,,,,,,,,,,
,,"[""period""]",0,[0.37259999996422266],102,0,102,0,1,5b94d723839c0a00010f88d9,25,Mężczyzna,2022-06-04_08h09.10.577,task,2021.1.4,Win32,59.99520038,628b806c463b948bc644b84f,629af6c692f19c5eee1bc1ea,,,,,,,,,,,,,,,,,,,,,,,,,,,,,,,,,,,,,,,,,,,,,,,,,,,,,,,,,,,,,,,,,,,,,,,,,,,,,,,,,,,,,,,,,,,,,,,,,,,,,,,
,,"[""comma""]",0,[0.26940000003577325],103,0,103,0,1,5b94d723839c0a00010f88d9,25,Mężczyzna,2022-06-04_08h09.10.577,task,2021.1.4,Win32,59.99520038,628b806c463b948bc644b84f,629af6c692f19c5eee1bc1ea,,,,,,,,,,,,,,,,,,,,,,,,,,,,,,,,,,,,,,,,,,,,,,,,,,,,,,,,,,,,,,,,,,,,,,,,,,,,,,,,,,,,,,,,,,,,,,,,,,,,,,,
,,"[""period""]",0,[0.23619999998805952],104,0,104,0,1,5b94d723839c0a00010f88d9,25,Mężczyzna,2022-06-04_08h09.10.577,task,2021.1.4,Win32,59.99520038,628b806c463b948bc644b84f,629af6c692f19c5eee1bc1ea,,,,,,,,,,,,,,,,,,,,,,,,,,,,,,,,,,,,,,,,,,,,,,,,,,,,,,,,,,,,,,,,,,,,,,,,,,,,,,,,,,,,,,,,,,,,,,,,,,,,,,,
,,"[""comma""]",0,[0.5009999999999764],105,0,105,0,1,5b94d723839c0a00010f88d9,25,Mężczyzna,2022-06-04_08h09.10.577,task,2021.1.4,Win32,59.99520038,628b806c463b948bc644b84f,629af6c692f19c5eee1bc1ea,,,,,,,,,,,,,,,,,,,,,,,,,,,,,,,,,,,,,,,,,,,,,,,,,,,,,,,,,,,,,,,,,,,,,,,,,,,,,,,,,,,,,,,,,,,,,,,,,,,,,,,
,,"[""period""]",0,[0.16700000000003],106,0,106,0,1,5b94d723839c0a00010f88d9,25,Mężczyzna,2022-06-04_08h09.10.577,task,2021.1.4,Win32,59.99520038,628b806c463b948bc644b84f,629af6c692f19c5eee1bc1ea,,,,,,,,,,,,,,,,,,,,,,,,,,,,,,,,,,,,,,,,,,,,,,,,,,,,,,,,,,,,,,,,,,,,,,,,,,,,,,,,,,,,,,,,,,,,,,,,,,,,,,,
,,"[""period""]",0,[0.0501000000238605],107,0,107,0,1,5b94d723839c0a00010f88d9,25,Mężczyzna,2022-06-04_08h09.10.577,task,2021.1.4,Win32,59.99520038,628b806c463b948bc644b84f,629af6c692f19c5eee1bc1ea,,,,,,,,,,,,,,,,,,,,,,,,,,,,,,,,,,,,,,,,,,,,,,,,,,,,,,,,,,,,,,,,,,,,,,,,,,,,,,,,,,,,,,,,,,,,,,,,,,,,,,,
,,"[""comma""]",0,[0.2896999999881018],108,0,108,0,1,5b94d723839c0a00010f88d9,25,Mężczyzna,2022-06-04_08h09.10.577,task,2021.1.4,Win32,59.99520038,628b806c463b948bc644b84f,629af6c692f19c5eee1bc1ea,,,,,,,,,,,,,,,,,,,,,,,,,,,,,,,,,,,,,,,,,,,,,,,,,,,,,,,,,,,,,,,,,,,,,,,,,,,,,,,,,,,,,,,,,,,,,,,,,,,,,,,
,,"[""comma""]",0,[0.25010000002384913],109,0,109,0,1,5b94d723839c0a00010f88d9,25,Mężczyzna,2022-06-04_08h09.10.577,task,2021.1.4,Win32,59.99520038,628b806c463b948bc644b84f,629af6c692f19c5eee1bc1ea,,,,,,,,,,,,,,,,,,,,,,,,,,,,,,,,,,,,,,,,,,,,,,,,,,,,,,,,,,,,,,,,,,,,,,,,,,,,,,,,,,,,,,,,,,,,,,,,,,,,,,,
,,"[""period""]",0,[0.00020000004769826774],110,0,110,0,1,5b94d723839c0a00010f88d9,25,Mężczyzna,2022-06-04_08h09.10.577,task,2021.1.4,Win32,59.99520038,628b806c463b948bc644b84f,629af6c692f19c5eee1bc1ea,,,,,,,,,,,,,,,,,,,,,,,,,,,,,,,,,,,,,,,,,,,,,,,,,,,,,,,,,,,,,,,,,,,,,,,,,,,,,,,,,,,,,,,,,,,,,,,,,,,,,,,
,,"[""comma""]",0,[0.22500000000002274],111,0,111,0,1,5b94d723839c0a00010f88d9,25,Mężczyzna,2022-06-04_08h09.10.577,task,2021.1.4,Win32,59.99520038,628b806c463b948bc644b84f,629af6c692f19c5eee1bc1ea,,,,,,,,,,,,,,,,,,,,,,,,,,,,,,,,,,,,,,,,,,,,,,,,,,,,,,,,,,,,,,,,,,,,,,,,,,,,,,,,,,,,,,,,,,,,,,,,,,,,,,,
,,"[""period""]",0,[0.25439999997615814],112,0,112,0,1,5b94d723839c0a00010f88d9,25,Mężczyzna,2022-06-04_08h09.10.577,task,2021.1.4,Win32,59.99520038,628b806c463b948bc644b84f,629af6c692f19c5eee1bc1ea,,,,,,,,,,,,,,,,,,,,,,,,,,,,,,,,,,,,,,,,,,,,,,,,,,,,,,,,,,,,,,,,,,,,,,,,,,,,,,,,,,,,,,,,,,,,,,,,,,,,,,,
,,"[""comma""]",0,[0.27780000001189364],113,0,113,0,1,5b94d723839c0a00010f88d9,25,Mężczyzna,2022-06-04_08h09.10.577,task,2021.1.4,Win32,59.99520038,628b806c463b948bc644b84f,629af6c692f19c5eee1bc1ea,,,,,,,,,,,,,,,,,,,,,,,,,,,,,,,,,,,,,,,,,,,,,,,,,,,,,,,,,,,,,,,,,,,,,,,,,,,,,,,,,,,,,,,,,,,,,,,,,,,,,,,
,,"[""period""]",0,[0.26389999997616087],114,0,114,0,1,5b94d723839c0a00010f88d9,25,Mężczyzna,2022-06-04_08h09.10.577,task,2021.1.4,Win32,59.99520038,628b806c463b948bc644b84f,629af6c692f19c5eee1bc1ea,,,,,,,,,,,,,,,,,,,,,,,,,,,,,,,,,,,,,,,,,,,,,,,,,,,,,,,,,,,,,,,,,,,,,,,,,,,,,,,,,,,,,,,,,,,,,,,,,,,,,,,
,,"[""period""]",0,[0.2366000000238273],115,0,115,0,1,5b94d723839c0a00010f88d9,25,Mężczyzna,2022-06-04_08h09.10.577,task,2021.1.4,Win32,59.99520038,628b806c463b948bc644b84f,629af6c692f19c5eee1bc1ea,,,,,,,,,,,,,,,,,,,,,,,,,,,,,,,,,,,,,,,,,,,,,,,,,,,,,,,,,,,,,,,,,,,,,,,,,,,,,,,,,,,,,,,,,,,,,,,,,,,,,,,
,,"[""comma""]",0,[0.38310000002388733],116,0,116,0,1,5b94d723839c0a00010f88d9,25,Mężczyzna,2022-06-04_08h09.10.577,task,2021.1.4,Win32,59.99520038,628b806c463b948bc644b84f,629af6c692f19c5eee1bc1ea,,,,,,,,,,,,,,,,,,,,,,,,,,,,,,,,,,,,,,,,,,,,,,,,,,,,,,,,,,,,,,,,,,,,,,,,,,,,,,,,,,,,,,,,,,,,,,,,,,,,,,,
,,"[""comma""]",0,[0.2684000000357969],117,0,117,0,1,5b94d723839c0a00010f88d9,25,Mężczyzna,2022-06-04_08h09.10.577,task,2021.1.4,Win32,59.99520038,628b806c463b948bc644b84f,629af6c692f19c5eee1bc1ea,,,,,,,,,,,,,,,,,,,,,,,,,,,,,,,,,,,,,,,,,,,,,,,,,,,,,,,,,,,,,,,,,,,,,,,,,,,,,,,,,,,,,,,,,,,,,,,,,,,,,,,
,,"[""period""]",0,[0.22129999995229355],118,0,118,0,1,5b94d723839c0a00010f88d9,25,Mężczyzna,2022-06-04_08h09.10.577,task,2021.1.4,Win32,59.99520038,628b806c463b948bc644b84f,629af6c692f19c5eee1bc1ea,,,,,,,,,,,,,,,,,,,,,,,,,,,,,,,,,,,,,,,,,,,,,,,,,,,,,,,,,,,,,,,,,,,,,,,,,,,,,,,,,,,,,,,,,,,,,,,,,,,,,,,
,,"[""period"",""comma""]",0,"[0.20940000003577097,1.8001000000238605]",119,0,119,0,1,5b94d723839c0a00010f88d9,25,Mężczyzna,2022-06-04_08h09.10.577,task,2021.1.4,Win32,59.99520038,628b806c463b948bc644b84f,629af6c692f19c5eee1bc1ea,,,,,,,,,,,,,,,,,,,,,,,,,,,,,,,,,,,,,,,,,,,,,,,,,,,,,,,,,,,,,,,,,,,,,,,,,,,,,,,,,,,,,,,,,,,,,,,,,,,,,,,
,,,,,,,,,,5b94d723839c0a00010f88d9,25,Mężczyzna,2022-06-04_08h09.10.577,task,2021.1.4,Win32,59.99520038,628b806c463b948bc644b84f,629af6c692f19c5eee1bc1ea,space,19.7145,space,4.9153,0,0,0,0,1,X V Q F H G B L J M P D K C T S W R N Z,,,,,,,,,,,,,,,,,,,,,,,,,,,,,,,,,,,,,,,,,,,,,,,,,,,,,,,,,,,,,,,,,,,,,,,,,,,,,,,,,,,,,,,,,,,,,
,,,,,,,,,,5b94d723839c0a00010f88d9,25,Mężczyzna,2022-06-04_08h09.10.577,task,2021.1.4,Win32,59.99520038,628b806c463b948bc644b84f,629af6c692f19c5eee1bc1ea,,,,,1,0,1,0,1,X V Q F H G B L J M P D K C T S W R N Z,,,,,,,,,,,,,,,,,,,,,,,,,,,,,,,,,,,,,,,,,,,,,,,,,,,,,,,,,,,,,,,,,,,,,,,,,,,,,,,,,,,,,,,,,,,,,
,,,,,,,,,,5b94d723839c0a00010f88d9,25,Mężczyzna,2022-06-04_08h09.10.577,task,2021.1.4,Win32,59.99520038,628b806c463b948bc644b84f,629af6c692f19c5eee1bc1ea,,,,,,,,,,,zj,"[""z"",""j""]","[2.289300000011906,2.9023000000119055,3.505999999999972]",1,ZJ,0,0,0,0,1,,,,,,,,,,,,,,,,,,,,,,,,,,,,,,,,,,,,,,,,,,,,,,,,,,,,,,,,,,,,,,,,,,,,,,,,,,,,,,,,,,,
,,,,,,,,,,5b94d723839c0a00010f88d9,25,Mężczyzna,2022-06-04_08h09.10.577,task,2021.1.4,Win32,59.99520038,628b806c463b948bc644b84f,629af6c692f19c5eee1bc1ea,,,,,0,0,0,0,1,X V Q F H G B L J M P D K C T S W R N Z,,,,,,,,,,,,,,,,,,,,,,,,,,,,,,,,,,,,,,,,,,,,,,,,,,,,,,,,,,,,,,,,,,,,,,,,,,,,,,,,,,,,,,,,,,,,,
,,,,,,,,,,5b94d723839c0a00010f88d9,25,Mężczyzna,2022-06-04_08h09.10.577,task,2021.1.4,Win32,59.99520038,628b806c463b948bc644b84f,629af6c692f19c5eee1bc1ea,,,,,1,0,1,0,1,X V Q F H G B L J M P D K C T S W R N Z,,,,,,,,,,,,,,,,,,,,,,,,,,,,,,,,,,,,,,,,,,,,,,,,,,,,,,,,,,,,,,,,,,,,,,,,,,,,,,,,,,,,,,,,,,,,,
,,,,,,,,,,5b94d723839c0a00010f88d9,25,Mężczyzna,2022-06-04_08h09.10.577,task,2021.1.4,Win32,59.99520038,628b806c463b948bc644b84f,629af6c692f19c5eee1bc1ea,,,,,,,,,,,rw,"[""r"",""w""]","[0.7904999999999518,1.072499999999991,1.3001000000238037]",1,RW,1,0,1,0,1,,,,,,,,,,,,,,,,,,,,,,,,,,,,,,,,,,,,,,,,,,,,,,,,,,,,,,,,,,,,,,,,,,,,,,,,,,,,,,,,,,,
,,,,,,,,,,5b94d723839c0a00010f88d9,25,Mężczyzna,2022-06-04_08h09.10.577,task,2021.1.4,Win32,59.99520038,628b806c463b948bc644b84f,629af6c692f19c5eee1bc1ea,,,,,0,0,0,0,1,X V Q F H G B L J M P D K C T S W R N Z,,,,,,,,,,,,,,,,,,,,,,,,,,,,,,,,,,,,,,,,,,,,,,,,,,,,,,,,,,,,,,,,,,,,,,,,,,,,,,,,,,,,,,,,,,,,,
,,,,,,,,,,5b94d723839c0a00010f88d9,25,Mężczyzna,2022-06-04_08h09.10.577,task,2021.1.4,Win32,59.99520038,628b806c463b948bc644b84f,629af6c692f19c5eee1bc1ea,,,,,1,0,1,0,1,X V Q F H G B L J M P D K C T S W R N Z,,,,,,,,,,,,,,,,,,,,,,,,,,,,,,,,,,,,,,,,,,,,,,,,,,,,,,,,,,,,,,,,,,,,,,,,,,,,,,,,,,,,,,,,,,,,,
,,,,,,,,,,5b94d723839c0a00010f88d9,25,Mężczyzna,2022-06-04_08h09.10.577,task,2021.1.4,Win32,59.99520038,628b806c463b948bc644b84f,629af6c692f19c5eee1bc1ea,,,,,2,0,2,0,1,X V Q F H G B L J M P D K C T S W R N Z,,,,,,,,,,,,,,,,,,,,,,,,,,,,,,,,,,,,,,,,,,,,,,,,,,,,,,,,,,,,,,,,,,,,,,,,,,,,,,,,,,,,,,,,,,,,,
,,,,,,,,,,5b94d723839c0a00010f88d9,25,Mężczyzna,2022-06-04_08h09.10.577,task,2021.1.4,Win32,59.99520038,628b806c463b948bc644b84f,629af6c692f19c5eee1bc1ea,,,,,,,,,,,hjp,"[""h"",""j"",""p""]","[0.4222000000476669,0.6024000000357432,0.7434000000357628,0.9733000000119318]",1,HJP,2,0,2,0,1,,,,,,,,,,,,,,,,,,,,,,,,,,,,,,,,,,,,,,,,,,,,,,,,,,,,,,,,,,,,,,,,,,,,,,,,,,,,,,,,,,,
,,,,,,,,,,5b94d723839c0a00010f88d9,25,Mężczyzna,2022-06-04_08h09.10.577,task,2021.1.4,Win32,59.99520038,628b806c463b948bc644b84f,629af6c692f19c5eee1bc1ea,,,,,0,0,0,0,1,X V Q F H G B L J M P D K C T S W R N Z,,,,,,,,,,,,,,,,,,,,,,,,,,,,,,,,,,,,,,,,,,,,,,,,,,,,,,,,,,,,,,,,,,,,,,,,,,,,,,,,,,,,,,,,,,,,,
,,,,,,,,,,5b94d723839c0a00010f88d9,25,Mężczyzna,2022-06-04_08h09.10.577,task,2021.1.4,Win32,59.99520038,628b806c463b948bc644b84f,629af6c692f19c5eee1bc1ea,,,,,1,0,1,0,1,X V Q F H G B L J M P D K C T S W R N Z,,,,,,,,,,,,,,,,,,,,,,,,,,,,,,,,,,,,,,,,,,,,,,,,,,,,,,,,,,,,,,,,,,,,,,,,,,,,,,,,,,,,,,,,,,,,,
,,,,,,,,,,5b94d723839c0a00010f88d9,25,Mężczyzna,2022-06-04_08h09.10.577,task,2021.1.4,Win32,59.99520038,628b806c463b948bc644b84f,629af6c692f19c5eee1bc1ea,,,,,2,0,2,0,1,X V Q F H G B L J M P D K C T S W R N Z,,,,,,,,,,,,,,,,,,,,,,,,,,,,,,,,,,,,,,,,,,,,,,,,,,,,,,,,,,,,,,,,,,,,,,,,,,,,,,,,,,,,,,,,,,,,,
,,,,,,,,,,5b94d723839c0a00010f88d9,25,Mężczyzna,2022-06-04_08h09.10.577,task,2021.1.4,Win32,59.99520038,628b806c463b948bc644b84f,629af6c692f19c5eee1bc1ea,,,,,,,,,,,qrn,"[""q"",""r"",""n""]","[0.3667999999523204,0.4504999999999768,0.5150999999642067,0.7315999999642031]",1,QRN,3,0,3,0,1,,,,,,,,,,,,,,,,,,,,,,,,,,,,,,,,,,,,,,,,,,,,,,,,,,,,,,,,,,,,,,,,,,,,,,,,,,,,,,,,,,,
,,,,,,,,,,5b94d723839c0a00010f88d9,25,Mężczyzna,2022-06-04_08h09.10.577,task,2021.1.4,Win32,59.99520038,628b806c463b948bc644b84f,629af6c692f19c5eee1bc1ea,,,,,0,0,0,0,1,X V Q F H G B L J M P D K C T S W R N Z,,,,,,,,,,,,,,,,,,,,,,,,,,,,,,,,,,,,,,,,,,,,,,,,,,,,,,,,,,,,,,,,,,,,,,,,,,,,,,,,,,,,,,,,,,,,,
,,,,,,,,,,5b94d723839c0a00010f88d9,25,Mężczyzna,2022-06-04_08h09.10.577,task,2021.1.4,Win32,59.99520038,628b806c463b948bc644b84f,629af6c692f19c5eee1bc1ea,,,,,1,0,1,0,1,X V Q F H G B L J M P D K C T S W R N Z,,,,,,,,,,,,,,,,,,,,,,,,,,,,,,,,,,,,,,,,,,,,,,,,,,,,,,,,,,,,,,,,,,,,,,,,,,,,,,,,,,,,,,,,,,,,,
,,,,,,,,,,5b94d723839c0a00010f88d9,25,Mężczyzna,2022-06-04_08h09.10.577,task,2021.1.4,Win32,59.99520038,628b806c463b948bc644b84f,629af6c692f19c5eee1bc1ea,,,,,2,0,2,0,1,X V Q F H G B L J M P D K C T S W R N Z,,,,,,,,,,,,,,,,,,,,,,,,,,,,,,,,,,,,,,,,,,,,,,,,,,,,,,,,,,,,,,,,,,,,,,,,,,,,,,,,,,,,,,,,,,,,,
,,,,,,,,,,5b94d723839c0a00010f88d9,25,Mężczyzna,2022-06-04_08h09.10.577,task,2021.1.4,Win32,59.99520038,628b806c463b948bc644b84f,629af6c692f19c5eee1bc1ea,,,,,3,0,3,0,1,X V Q F H G B L J M P D K C T S W R N Z,,,,,,,,,,,,,,,,,,,,,,,,,,,,,,,,,,,,,,,,,,,,,,,,,,,,,,,,,,,,,,,,,,,,,,,,,,,,,,,,,,,,,,,,,,,,,
,,,,,,,,,,5b94d723839c0a00010f88d9,25,Mężczyzna,2022-06-04_08h09.10.577,task,2021.1.4,Win32,59.99520038,628b806c463b948bc644b84f,629af6c692f19c5eee1bc1ea,,,,,,,,,,,sxnn,"[""s"",""x"",""n"",""n""]","[0.3334000000357378,0.41670000004768326,0.5186000000238096,0.6856000000238396,0.9168000000119036]",1,SXNN,4,0,4,0,1,,,,,,,,,,,,,,,,,,,,,,,,,,,,,,,,,,,,,,,,,,,,,,,,,,,,,,,,,,,,,,,,,,,,,,,,,,,,,,,,,,,
,,,,,,,,,,5b94d723839c0a00010f88d9,25,Mężczyzna,2022-06-04_08h09.10.577,task,2021.1.4,Win32,59.99520038,628b806c463b948bc644b84f,629af6c692f19c5eee1bc1ea,,,,,0,0,0,0,1,X V Q F H G B L J M P D K C T S W R N Z,,,,,,,,,,,,,,,,,,,,,,,,,,,,,,,,,,,,,,,,,,,,,,,,,,,,,,,,,,,,,,,,,,,,,,,,,,,,,,,,,,,,,,,,,,,,,
,,,,,,,,,,5b94d723839c0a00010f88d9,25,Mężczyzna,2022-06-04_08h09.10.577,task,2021.1.4,Win32,59.99520038,628b806c463b948bc644b84f,629af6c692f19c5eee1bc1ea,,,,,1,0,1,0,1,X V Q F H G B L J M P D K C T S W R N Z,,,,,,,,,,,,,,,,,,,,,,,,,,,,,,,,,,,,,,,,,,,,,,,,,,,,,,,,,,,,,,,,,,,,,,,,,,,,,,,,,,,,,,,,,,,,,
,,,,,,,,,,5b94d723839c0a00010f88d9,25,Mężczyzna,2022-06-04_08h09.10.577,task,2021.1.4,Win32,59.99520038,628b806c463b948bc644b84f,629af6c692f19c5eee1bc1ea,,,,,2,0,2,0,1,X V Q F H G B L J M P D K C T S W R N Z,,,,,,,,,,,,,,,,,,,,,,,,,,,,,,,,,,,,,,,,,,,,,,,,,,,,,,,,,,,,,,,,,,,,,,,,,,,,,,,,,,,,,,,,,,,,,
,,,,,,,,,,5b94d723839c0a00010f88d9,25,Mężczyzna,2022-06-04_08h09.10.577,task,2021.1.4,Win32,59.99520038,628b806c463b948bc644b84f,629af6c692f19c5eee1bc1ea,,,,,3,0,3,0,1,X V Q F H G B L J M P D K C T S W R N Z,,,,,,,,,,,,,,,,,,,,,,,,,,,,,,,,,,,,,,,,,,,,,,,,,,,,,,,,,,,,,,,,,,,,,,,,,,,,,,,,,,,,,,,,,,,,,
,,,,,,,,,,5b94d723839c0a00010f88d9,25,Mężczyzna,2022-06-04_08h09.10.577,task,2021.1.4,Win32,59.99520038,628b806c463b948bc644b84f,629af6c692f19c5eee1bc1ea,,,,,,,,,,,rmkk,"[""r"",""m"",""k"",""k""]","[0.7595000000000027,0.8966000000238523,1.3661000000238346,1.518000000000029,1.7493999999761627]",1,RMKK,5,0,5,0,1,,,,,,,,,,,,,,,,,,,,,,,,,,,,,,,,,,,,,,,,,,,,,,,,,,,,,,,,,,,,,,,,,,,,,,,,,,,,,,,,,,,
,,,,,,,,,,5b94d723839c0a00010f88d9,25,Mężczyzna,2022-06-04_08h09.10.577,task,2021.1.4,Win32,59.99520038,628b806c463b948bc644b84f,629af6c692f19c5eee1bc1ea,,,,,0,0,0,0,1,X V Q F H G B L J M P D K C T S W R N Z,,,,,,,,,,,,,,,,,,,,,,,,,,,,,,,,,,,,,,,,,,,,,,,,,,,,,,,,,,,,,,,,,,,,,,,,,,,,,,,,,,,,,,,,,,,,,
,,,,,,,,,,5b94d723839c0a00010f88d9,25,Mężczyzna,2022-06-04_08h09.10.577,task,2021.1.4,Win32,59.99520038,628b806c463b948bc644b84f,629af6c692f19c5eee1bc1ea,,,,,1,0,1,0,1,X V Q F H G B L J M P D K C T S W R N Z,,,,,,,,,,,,,,,,,,,,,,,,,,,,,,,,,,,,,,,,,,,,,,,,,,,,,,,,,,,,,,,,,,,,,,,,,,,,,,,,,,,,,,,,,,,,,
,,,,,,,,,,5b94d723839c0a00010f88d9,25,Mężczyzna,2022-06-04_08h09.10.577,task,2021.1.4,Win32,59.99520038,628b806c463b948bc644b84f,629af6c692f19c5eee1bc1ea,,,,,2,0,2,0,1,X V Q F H G B L J M P D K C T S W R N Z,,,,,,,,,,,,,,,,,,,,,,,,,,,,,,,,,,,,,,,,,,,,,,,,,,,,,,,,,,,,,,,,,,,,,,,,,,,,,,,,,,,,,,,,,,,,,
,,,,,,,,,,5b94d723839c0a00010f88d9,25,Mężczyzna,2022-06-04_08h09.10.577,task,2021.1.4,Win32,59.99520038,628b806c463b948bc644b84f,629af6c692f19c5eee1bc1ea,,,,,3,0,3,0,1,X V Q F H G B L J M P D K C T S W R N Z,,,,,,,,,,,,,,,,,,,,,,,,,,,,,,,,,,,,,,,,,,,,,,,,,,,,,,,,,,,,,,,,,,,,,,,,,,,,,,,,,,,,,,,,,,,,,
,,,,,,,,,,5b94d723839c0a00010f88d9,25,Mężczyzna,2022-06-04_08h09.10.577,task,2021.1.4,Win32,59.99520038,628b806c463b948bc644b84f,629af6c692f19c5eee1bc1ea,,,,,4,0,4,0,1,X V Q F H G B L J M P D K C T S W R N Z,,,,,,,,,,,,,,,,,,,,,,,,,,,,,,,,,,,,,,,,,,,,,,,,,,,,,,,,,,,,,,,,,,,,,,,,,,,,,,,,,,,,,,,,,,,,,
,,,,,,,,,,5b94d723839c0a00010f88d9,25,Mężczyzna,2022-06-04_08h09.10.577,task,2021.1.4,Win32,59.99520038,628b806c463b948bc644b84f,629af6c692f19c5eee1bc1ea,,,,,,,,,,,vttlq,"[""v"",""t"",""t"",""l"",""q""]","[0.43569999998805997,0.6754000000357792,0.8834999999999695,0.9954000000357723,1.1334999999999695,1.2503000000119187]",1,VTTLQ,6,0,6,0,1,,,,,,,,,,,,,,,,,,,,,,,,,,,,,,,,,,,,,,,,,,,,,,,,,,,,,,,,,,,,,,,,,,,,,,,,,,,,,,,,,,,
,,,,,,,,,,5b94d723839c0a00010f88d9,25,Mężczyzna,2022-06-04_08h09.10.577,task,2021.1.4,Win32,59.99520038,628b806c463b948bc644b84f,629af6c692f19c5eee1bc1ea,,,,,0,0,0,0,1,X V Q F H G B L J M P D K C T S W R N Z,,,,,,,,,,,,,,,,,,,,,,,,,,,,,,,,,,,,,,,,,,,,,,,,,,,,,,,,,,,,,,,,,,,,,,,,,,,,,,,,,,,,,,,,,,,,,
,,,,,,,,,,5b94d723839c0a00010f88d9,25,Mężczyzna,2022-06-04_08h09.10.577,task,2021.1.4,Win32,59.99520038,628b806c463b948bc644b84f,629af6c692f19c5eee1bc1ea,,,,,1,0,1,0,1,X V Q F H G B L J M P D K C T S W R N Z,,,,,,,,,,,,,,,,,,,,,,,,,,,,,,,,,,,,,,,,,,,,,,,,,,,,,,,,,,,,,,,,,,,,,,,,,,,,,,,,,,,,,,,,,,,,,
,,,,,,,,,,5b94d723839c0a00010f88d9,25,Mężczyzna,2022-06-04_08h09.10.577,task,2021.1.4,Win32,59.99520038,628b806c463b948bc644b84f,629af6c692f19c5eee1bc1ea,,,,,2,0,2,0,1,X V Q F H G B L J M P D K C T S W R N Z,,,,,,,,,,,,,,,,,,,,,,,,,,,,,,,,,,,,,,,,,,,,,,,,,,,,,,,,,,,,,,,,,,,,,,,,,,,,,,,,,,,,,,,,,,,,,
,,,,,,,,,,5b94d723839c0a00010f88d9,25,Mężczyzna,2022-06-04_08h09.10.577,task,2021.1.4,Win32,59.99520038,628b806c463b948bc644b84f,629af6c692f19c5eee1bc1ea,,,,,3,0,3,0,1,X V Q F H G B L J M P D K C T S W R N Z,,,,,,,,,,,,,,,,,,,,,,,,,,,,,,,,,,,,,,,,,,,,,,,,,,,,,,,,,,,,,,,,,,,,,,,,,,,,,,,,,,,,,,,,,,,,,
,,,,,,,,,,5b94d723839c0a00010f88d9,25,Mężczyzna,2022-06-04_08h09.10.577,task,2021.1.4,Win32,59.99520038,628b806c463b948bc644b84f,629af6c692f19c5eee1bc1ea,,,,,4,0,4,0,1,X V Q F H G B L J M P D K C T S W R N Z,,,,,,,,,,,,,,,,,,,,,,,,,,,,,,,,,,,,,,,,,,,,,,,,,,,,,,,,,,,,,,,,,,,,,,,,,,,,,,,,,,,,,,,,,,,,,
,,,,,,,,,,5b94d723839c0a00010f88d9,25,Mężczyzna,2022-06-04_08h09.10.577,task,2021.1.4,Win32,59.99520038,628b806c463b948bc644b84f,629af6c692f19c5eee1bc1ea,,,,,,,,,,,xrtff,"[""x"",""r"",""t"",""f"",""f""]","[0.5596000000238064,0.8436000000237982,1.0556000000238441,1.581699999988075,1.7313999999761336,1.919499999999971]",1,XRTFF,7,0,7,0,1,,,,,,,,,,,,,,,,,,,,,,,,,,,,,,,,,,,,,,,,,,,,,,,,,,,,,,,,,,,,,,,,,,,,,,,,,,,,,,,,,,,
,,,,,,,,,,5b94d723839c0a00010f88d9,25,Mężczyzna,2022-06-04_08h09.10.577,task,2021.1.4,Win32,59.99520038,628b806c463b948bc644b84f,629af6c692f19c5eee1bc1ea,,,,,0,0,0,0,1,X V Q F H G B L J M P D K C T S W R N Z,,,,,,,,,,,,,,,,,,,,,,,,,,,,,,,,,,,,,,,,,,,,,,,,,,,,,,,,,,,,,,,,,,,,,,,,,,,,,,,,,,,,,,,,,,,,,
,,,,,,,,,,5b94d723839c0a00010f88d9,25,Mężczyzna,2022-06-04_08h09.10.577,task,2021.1.4,Win32,59.99520038,628b806c463b948bc644b84f,629af6c692f19c5eee1bc1ea,,,,,1,0,1,0,1,X V Q F H G B L J M P D K C T S W R N Z,,,,,,,,,,,,,,,,,,,,,,,,,,,,,,,,,,,,,,,,,,,,,,,,,,,,,,,,,,,,,,,,,,,,,,,,,,,,,,,,,,,,,,,,,,,,,
,,,,,,,,,,5b94d723839c0a00010f88d9,25,Mężczyzna,2022-06-04_08h09.10.577,task,2021.1.4,Win32,59.99520038,628b806c463b948bc644b84f,629af6c692f19c5eee1bc1ea,,,,,2,0,2,0,1,X V Q F H G B L J M P D K C T S W R N Z,,,,,,,,,,,,,,,,,,,,,,,,,,,,,,,,,,,,,,,,,,,,,,,,,,,,,,,,,,,,,,,,,,,,,,,,,,,,,,,,,,,,,,,,,,,,,
,,,,,,,,,,5b94d723839c0a00010f88d9,25,Mężczyzna,2022-06-04_08h09.10.577,task,2021.1.4,Win32,59.99520038,628b806c463b948bc644b84f,629af6c692f19c5eee1bc1ea,,,,,3,0,3,0,1,X V Q F H G B L J M P D K C T S W R N Z,,,,,,,,,,,,,,,,,,,,,,,,,,,,,,,,,,,,,,,,,,,,,,,,,,,,,,,,,,,,,,,,,,,,,,,,,,,,,,,,,,,,,,,,,,,,,
,,,,,,,,,,5b94d723839c0a00010f88d9,25,Mężczyzna,2022-06-04_08h09.10.577,task,2021.1.4,Win32,59.99520038,628b806c463b948bc644b84f,629af6c692f19c5eee1bc1ea,,,,,4,0,4,0,1,X V Q F H G B L J M P D K C T S W R N Z,,,,,,,,,,,,,,,,,,,,,,,,,,,,,,,,,,,,,,,,,,,,,,,,,,,,,,,,,,,,,,,,,,,,,,,,,,,,,,,,,,,,,,,,,,,,,
,,,,,,,,,,5b94d723839c0a00010f88d9,25,Mężczyzna,2022-06-04_08h09.10.577,task,2021.1.4,Win32,59.99520038,628b806c463b948bc644b84f,629af6c692f19c5eee1bc1ea,,,,,5,0,5,0,1,X V Q F H G B L J M P D K C T S W R N Z,,,,,,,,,,,,,,,,,,,,,,,,,,,,,,,,,,,,,,,,,,,,,,,,,,,,,,,,,,,,,,,,,,,,,,,,,,,,,,,,,,,,,,,,,,,,,
,,,,,,,,,,5b94d723839c0a00010f88d9,25,Mężczyzna,2022-06-04_08h09.10.577,task,2021.1.4,Win32,59.99520038,628b806c463b948bc644b84f,629af6c692f19c5eee1bc1ea,,,,,,,,,,,wwznvj,"[""w"",""w"",""z"",""n"",""v"",""j""]","[0.5906999999880895,1.083500000000015,1.4934999999999832,1.7686999999880868,2.0944999999999823,2.30030000001193,2.6021000000238246]",1,WWZNVJ,8,0,8,0,1,,,,,,,,,,,,,,,,,,,,,,,,,,,,,,,,,,,,,,,,,,,,,,,,,,,,,,,,,,,,,,,,,,,,,,,,,,,,,,,,,,,
,,,,,,,,,,5b94d723839c0a00010f88d9,25,Mężczyzna,2022-06-04_08h09.10.577,task,2021.1.4,Win32,59.99520038,628b806c463b948bc644b84f,629af6c692f19c5eee1bc1ea,,,,,0,0,0,0,1,X V Q F H G B L J M P D K C T S W R N Z,,,,,,,,,,,,,,,,,,,,,,,,,,,,,,,,,,,,,,,,,,,,,,,,,,,,,,,,,,,,,,,,,,,,,,,,,,,,,,,,,,,,,,,,,,,,,
,,,,,,,,,,5b94d723839c0a00010f88d9,25,Mężczyzna,2022-06-04_08h09.10.577,task,2021.1.4,Win32,59.99520038,628b806c463b948bc644b84f,629af6c692f19c5eee1bc1ea,,,,,1,0,1,0,1,X V Q F H G B L J M P D K C T S W R N Z,,,,,,,,,,,,,,,,,,,,,,,,,,,,,,,,,,,,,,,,,,,,,,,,,,,,,,,,,,,,,,,,,,,,,,,,,,,,,,,,,,,,,,,,,,,,,
,,,,,,,,,,5b94d723839c0a00010f88d9,25,Mężczyzna,2022-06-04_08h09.10.577,task,2021.1.4,Win32,59.99520038,628b806c463b948bc644b84f,629af6c692f19c5eee1bc1ea,,,,,2,0,2,0,1,X V Q F H G B L J M P D K C T S W R N Z,,,,,,,,,,,,,,,,,,,,,,,,,,,,,,,,,,,,,,,,,,,,,,,,,,,,,,,,,,,,,,,,,,,,,,,,,,,,,,,,,,,,,,,,,,,,,
,,,,,,,,,,5b94d723839c0a00010f88d9,25,Mężczyzna,2022-06-04_08h09.10.577,task,2021.1.4,Win32,59.99520038,628b806c463b948bc644b84f,629af6c692f19c5eee1bc1ea,,,,,3,0,3,0,1,X V Q F H G B L J M P D K C T S W R N Z,,,,,,,,,,,,,,,,,,,,,,,,,,,,,,,,,,,,,,,,,,,,,,,,,,,,,,,,,,,,,,,,,,,,,,,,,,,,,,,,,,,,,,,,,,,,,
,,,,,,,,,,5b94d723839c0a00010f88d9,25,Mężczyzna,2022-06-04_08h09.10.577,task,2021.1.4,Win32,59.99520038,628b806c463b948bc644b84f,629af6c692f19c5eee1bc1ea,,,,,4,0,4,0,1,X V Q F H G B L J M P D K C T S W R N Z,,,,,,,,,,,,,,,,,,,,,,,,,,,,,,,,,,,,,,,,,,,,,,,,,,,,,,,,,,,,,,,,,,,,,,,,,,,,,,,,,,,,,,,,,,,,,
,,,,,,,,,,5b94d723839c0a00010f88d9,25,Mężczyzna,2022-06-04_08h09.10.577,task,2021.1.4,Win32,59.99520038,628b806c463b948bc644b84f,629af6c692f19c5eee1bc1ea,,,,,5,0,5,0,1,X V Q F H G B L J M P D K C T S W R N Z,,,,,,,,,,,,,,,,,,,,,,,,,,,,,,,,,,,,,,,,,,,,,,,,,,,,,,,,,,,,,,,,,,,,,,,,,,,,,,,,,,,,,,,,,,,,,
,,,,,,,,,,5b94d723839c0a00010f88d9,25,Mężczyzna,2022-06-04_08h09.10.577,task,2021.1.4,Win32,59.99520038,628b806c463b948bc644b84f,629af6c692f19c5eee1bc1ea,,,,,,,,,,,jtcpgr,"[""j"",""t"",""c"",""p"",""g"",""r""]","[2.2669000000357755,2.4383000000119637,2.738800000011963,3.160900000035781,3.401999999999987,6.316800000011938,6.5968000000119105]",0,JTCGPR,9,0,9,0,1,,,,,,,,,,,,,,,,,,,,,,,,,,,,,,,,,,,,,,,,,,,,,,,,,,,,,,,,,,,,,,,,,,,,,,,,,,,,,,,,,,,
,,,,,,,,,,5b94d723839c0a00010f88d9,25,Mężczyzna,2022-06-04_08h09.10.577,task,2021.1.4,Win32,59.99520038,628b806c463b948bc644b84f,629af6c692f19c5eee1bc1ea,,,,,0,0,0,0,1,X V Q F H G B L J M P D K C T S W R N Z,,,,,,,,,,,,,,,,,,,,,,,,,,,,,,,,,,,,,,,,,,,,,,,,,,,,,,,,,,,,,,,,,,,,,,,,,,,,,,,,,,,,,,,,,,,,,
,,,,,,,,,,5b94d723839c0a00010f88d9,25,Mężczyzna,2022-06-04_08h09.10.577,task,2021.1.4,Win32,59.99520038,628b806c463b948bc644b84f,629af6c692f19c5eee1bc1ea,,,,,1,0,1,0,1,X V Q F H G B L J M P D K C T S W R N Z,,,,,,,,,,,,,,,,,,,,,,,,,,,,,,,,,,,,,,,,,,,,,,,,,,,,,,,,,,,,,,,,,,,,,,,,,,,,,,,,,,,,,,,,,,,,,
,,,,,,,,,,5b94d723839c0a00010f88d9,25,Mężczyzna,2022-06-04_08h09.10.577,task,2021.1.4,Win32,59.99520038,628b806c463b948bc644b84f,629af6c692f19c5eee1bc1ea,,,,,2,0,2,0,1,X V Q F H G B L J M P D K C T S W R N Z,,,,,,,,,,,,,,,,,,,,,,,,,,,,,,,,,,,,,,,,,,,,,,,,,,,,,,,,,,,,,,,,,,,,,,,,,,,,,,,,,,,,,,,,,,,,,
,,,,,,,,,,5b94d723839c0a00010f88d9,25,Mężczyzna,2022-06-04_08h09.10.577,task,2021.1.4,Win32,59.99520038,628b806c463b948bc644b84f,629af6c692f19c5eee1bc1ea,,,,,3,0,3,0,1,X V Q F H G B L J M P D K C T S W R N Z,,,,,,,,,,,,,,,,,,,,,,,,,,,,,,,,,,,,,,,,,,,,,,,,,,,,,,,,,,,,,,,,,,,,,,,,,,,,,,,,,,,,,,,,,,,,,
,,,,,,,,,,5b94d723839c0a00010f88d9,25,Mężczyzna,2022-06-04_08h09.10.577,task,2021.1.4,Win32,59.99520038,628b806c463b948bc644b84f,629af6c692f19c5eee1bc1ea,,,,,4,0,4,0,1,X V Q F H G B L J M P D K C T S W R N Z,,,,,,,,,,,,,,,,,,,,,,,,,,,,,,,,,,,,,,,,,,,,,,,,,,,,,,,,,,,,,,,,,,,,,,,,,,,,,,,,,,,,,,,,,,,,,
,,,,,,,,,,5b94d723839c0a00010f88d9,25,Mężczyzna,2022-06-04_08h09.10.577,task,2021.1.4,Win32,59.99520038,628b806c463b948bc644b84f,629af6c692f19c5eee1bc1ea,,,,,5,0,5,0,1,X V Q F H G B L J M P D K C T S W R N Z,,,,,,,,,,,,,,,,,,,,,,,,,,,,,,,,,,,,,,,,,,,,,,,,,,,,,,,,,,,,,,,,,,,,,,,,,,,,,,,,,,,,,,,,,,,,,
,,,,,,,,,,5b94d723839c0a00010f88d9,25,Mężczyzna,2022-06-04_08h09.10.577,task,2021.1.4,Win32,59.99520038,628b806c463b948bc644b84f,629af6c692f19c5eee1bc1ea,,,,,,,,,,,gmvzms,"[""g"",""m"",""v"",""z"",""m"",""s""]","[0.6668000000119036,0.8721000000238064,1.6149000000357319,2.7901000000238128,2.9857000000476432,3.4482000000476773,3.6702000000476573]",0,GMVMZS,10,0,10,0,1,,,,,,,,,,,,,,,,,,,,,,,,,,,,,,,,,,,,,,,,,,,,,,,,,,,,,,,,,,,,,,,,,,,,,,,,,,,,,,,,,,,
,,,,,,,,,,5b94d723839c0a00010f88d9,25,Mężczyzna,2022-06-04_08h09.10.577,task,2021.1.4,Win32,59.99520038,628b806c463b948bc644b84f,629af6c692f19c5eee1bc1ea,,,,,0,0,0,0,1,X V Q F H G B L J M P D K C T S W R N Z,,,,,,,,,,,,,,,,,,,,,,,,,,,,,,,,,,,,,,,,,,,,,,,,,,,,,,,,,,,,,,,,,,,,,,,,,,,,,,,,,,,,,,,,,,,,,
,,,,,,,,,,5b94d723839c0a00010f88d9,25,Mężczyzna,2022-06-04_08h09.10.577,task,2021.1.4,Win32,59.99520038,628b806c463b948bc644b84f,629af6c692f19c5eee1bc1ea,,,,,1,0,1,0,1,X V Q F H G B L J M P D K C T S W R N Z,,,,,,,,,,,,,,,,,,,,,,,,,,,,,,,,,,,,,,,,,,,,,,,,,,,,,,,,,,,,,,,,,,,,,,,,,,,,,,,,,,,,,,,,,,,,,
,,,,,,,,,,5b94d723839c0a00010f88d9,25,Mężczyzna,2022-06-04_08h09.10.577,task,2021.1.4,Win32,59.99520038,628b806c463b948bc644b84f,629af6c692f19c5eee1bc1ea,,,,,2,0,2,0,1,X V Q F H G B L J M P D K C T S W R N Z,,,,,,,,,,,,,,,,,,,,,,,,,,,,,,,,,,,,,,,,,,,,,,,,,,,,,,,,,,,,,,,,,,,,,,,,,,,,,,,,,,,,,,,,,,,,,
,,,,,,,,,,5b94d723839c0a00010f88d9,25,Mężczyzna,2022-06-04_08h09.10.577,task,2021.1.4,Win32,59.99520038,628b806c463b948bc644b84f,629af6c692f19c5eee1bc1ea,,,,,3,0,3,0,1,X V Q F H G B L J M P D K C T S W R N Z,,,,,,,,,,,,,,,,,,,,,,,,,,,,,,,,,,,,,,,,,,,,,,,,,,,,,,,,,,,,,,,,,,,,,,,,,,,,,,,,,,,,,,,,,,,,,
,,,,,,,,,,5b94d723839c0a00010f88d9,25,Mężczyzna,2022-06-04_08h09.10.577,task,2021.1.4,Win32,59.99520038,628b806c463b948bc644b84f,629af6c692f19c5eee1bc1ea,,,,,4,0,4,0,1,X V Q F H G B L J M P D K C T S W R N Z,,,,,,,,,,,,,,,,,,,,,,,,,,,,,,,,,,,,,,,,,,,,,,,,,,,,,,,,,,,,,,,,,,,,,,,,,,,,,,,,,,,,,,,,,,,,,
,,,,,,,,,,5b94d723839c0a00010f88d9,25,Mężczyzna,2022-06-04_08h09.10.577,task,2021.1.4,Win32,59.99520038,628b806c463b948bc644b84f,629af6c692f19c5eee1bc1ea,,,,,5,0,5,0,1,X V Q F H G B L J M P D K C T S W R N Z,,,,,,,,,,,,,,,,,,,,,,,,,,,,,,,,,,,,,,,,,,,,,,,,,,,,,,,,,,,,,,,,,,,,,,,,,,,,,,,,,,,,,,,,,,,,,
,,,,,,,,,,5b94d723839c0a00010f88d9,25,Mężczyzna,2022-06-04_08h09.10.577,task,2021.1.4,Win32,59.99520038,628b806c463b948bc644b84f,629af6c692f19c5eee1bc1ea,,,,,,,,,,,lqjzkv,"[""l"",""q"",""j"",""z"",""k"",""v""]","[0.9233000000119205,1.3336000000238073,1.5591000000238182,1.8336000000238073,2.2091000000238523,2.533700000047645,2.8581000000237964]",1,LQJZKV,11,0,11,0,1,,,,,,,,,,,,,,,,,,,,,,,,,,,,,,,,,,,,,,,,,,,,,,,,,,,,,,,,,,,,,,,,,,,,,,,,,,,,,,,,,,,
,,,,,,,,,,5b94d723839c0a00010f88d9,25,Mężczyzna,2022-06-04_08h09.10.577,task,2021.1.4,Win32,59.99520038,628b806c463b948bc644b84f,629af6c692f19c5eee1bc1ea,,,,,0,0,0,0,1,X V Q F H G B L J M P D K C T S W R N Z,,,,,,,,,,,,,,,,,,,,,,,,,,,,,,,,,,,,,,,,,,,,,,,,,,,,,,,,,,,,,,,,,,,,,,,,,,,,,,,,,,,,,,,,,,,,,
,,,,,,,,,,5b94d723839c0a00010f88d9,25,Mężczyzna,2022-06-04_08h09.10.577,task,2021.1.4,Win32,59.99520038,628b806c463b948bc644b84f,629af6c692f19c5eee1bc1ea,,,,,1,0,1,0,1,X V Q F H G B L J M P D K C T S W R N Z,,,,,,,,,,,,,,,,,,,,,,,,,,,,,,,,,,,,,,,,,,,,,,,,,,,,,,,,,,,,,,,,,,,,,,,,,,,,,,,,,,,,,,,,,,,,,
,,,,,,,,,,5b94d723839c0a00010f88d9,25,Mężczyzna,2022-06-04_08h09.10.577,task,2021.1.4,Win32,59.99520038,628b806c463b948bc644b84f,629af6c692f19c5eee1bc1ea,,,,,2,0,2,0,1,X V Q F H G B L J M P D K C T S W R N Z,,,,,,,,,,,,,,,,,,,,,,,,,,,,,,,,,,,,,,,,,,,,,,,,,,,,,,,,,,,,,,,,,,,,,,,,,,,,,,,,,,,,,,,,,,,,,
,,,,,,,,,,5b94d723839c0a00010f88d9,25,Mężczyzna,2022-06-04_08h09.10.577,task,2021.1.4,Win32,59.99520038,628b806c463b948bc644b84f,629af6c692f19c5eee1bc1ea,,,,,3,0,3,0,1,X V Q F H G B L J M P D K C T S W R N Z,,,,,,,,,,,,,,,,,,,,,,,,,,,,,,,,,,,,,,,,,,,,,,,,,,,,,,,,,,,,,,,,,,,,,,,,,,,,,,,,,,,,,,,,,,,,,
,,,,,,,,,,5b94d723839c0a00010f88d9,25,Mężczyzna,2022-06-04_08h09.10.577,task,2021.1.4,Win32,59.99520038,628b806c463b948bc644b84f,629af6c692f19c5eee1bc1ea,,,,,4,0,4,0,1,X V Q F H G B L J M P D K C T S W R N Z,,,,,,,,,,,,,,,,,,,,,,,,,,,,,,,,,,,,,,,,,,,,,,,,,,,,,,,,,,,,,,,,,,,,,,,,,,,,,,,,,,,,,,,,,,,,,
,,,,,,,,,,5b94d723839c0a00010f88d9,25,Mężczyzna,2022-06-04_08h09.10.577,task,2021.1.4,Win32,59.99520038,628b806c463b948bc644b84f,629af6c692f19c5eee1bc1ea,,,,,5,0,5,0,1,X V Q F H G B L J M P D K C T S W R N Z,,,,,,,,,,,,,,,,,,,,,,,,,,,,,,,,,,,,,,,,,,,,,,,,,,,,,,,,,,,,,,,,,,,,,,,,,,,,,,,,,,,,,,,,,,,,,
,,,,,,,,,,5b94d723839c0a00010f88d9,25,Mężczyzna,2022-06-04_08h09.10.577,task,2021.1.4,Win32,59.99520038,628b806c463b948bc644b84f,629af6c692f19c5eee1bc1ea,,,,,6,0,6,0,1,X V Q F H G B L J M P D K C T S W R N Z,,,,,,,,,,,,,,,,,,,,,,,,,,,,,,,,,,,,,,,,,,,,,,,,,,,,,,,,,,,,,,,,,,,,,,,,,,,,,,,,,,,,,,,,,,,,,
,,,,,,,,,,5b94d723839c0a00010f88d9,25,Mężczyzna,2022-06-04_08h09.10.577,task,2021.1.4,Win32,59.99520038,628b806c463b948bc644b84f,629af6c692f19c5eee1bc1ea,,,,,,,,,,,sndkwfp,"[""s"",""n"",""d"",""k"",""w"",""f"",""p""]","[0.7068999999762013,0.8483000000119318,1.0386999999881255,1.2006999999881032,1.481699999988109,1.7815999999642713,1.86489999997616,2.0500999999642318]",1,SNDKWFP,12,0,12,0,1,,,,,,,,,,,,,,,,,,,,,,,,,,,,,,,,,,,,,,,,,,,,,,,,,,,,,,,,,,,,,,,,,,,,,,,,,,,,,,,,,,,
,,,,,,,,,,5b94d723839c0a00010f88d9,25,Mężczyzna,2022-06-04_08h09.10.577,task,2021.1.4,Win32,59.99520038,628b806c463b948bc644b84f,629af6c692f19c5eee1bc1ea,,,,,0,0,0,0,1,X V Q F H G B L J M P D K C T S W R N Z,,,,,,,,,,,,,,,,,,,,,,,,,,,,,,,,,,,,,,,,,,,,,,,,,,,,,,,,,,,,,,,,,,,,,,,,,,,,,,,,,,,,,,,,,,,,,
,,,,,,,,,,5b94d723839c0a00010f88d9,25,Mężczyzna,2022-06-04_08h09.10.577,task,2021.1.4,Win32,59.99520038,628b806c463b948bc644b84f,629af6c692f19c5eee1bc1ea,,,,,1,0,1,0,1,X V Q F H G B L J M P D K C T S W R N Z,,,,,,,,,,,,,,,,,,,,,,,,,,,,,,,,,,,,,,,,,,,,,,,,,,,,,,,,,,,,,,,,,,,,,,,,,,,,,,,,,,,,,,,,,,,,,
,,,,,,,,,,5b94d723839c0a00010f88d9,25,Mężczyzna,2022-06-04_08h09.10.577,task,2021.1.4,Win32,59.99520038,628b806c463b948bc644b84f,629af6c692f19c5eee1bc1ea,,,,,2,0,2,0,1,X V Q F H G B L J M P D K C T S W R N Z,,,,,,,,,,,,,,,,,,,,,,,,,,,,,,,,,,,,,,,,,,,,,,,,,,,,,,,,,,,,,,,,,,,,,,,,,,,,,,,,,,,,,,,,,,,,,
,,,,,,,,,,5b94d723839c0a00010f88d9,25,Mężczyzna,2022-06-04_08h09.10.577,task,2021.1.4,Win32,59.99520038,628b806c463b948bc644b84f,629af6c692f19c5eee1bc1ea,,,,,3,0,3,0,1,X V Q F H G B L J M P D K C T S W R N Z,,,,,,,,,,,,,,,,,,,,,,,,,,,,,,,,,,,,,,,,,,,,,,,,,,,,,,,,,,,,,,,,,,,,,,,,,,,,,,,,,,,,,,,,,,,,,
,,,,,,,,,,5b94d723839c0a00010f88d9,25,Mężczyzna,2022-06-04_08h09.10.577,task,2021.1.4,Win32,59.99520038,628b806c463b948bc644b84f,629af6c692f19c5eee1bc1ea,,,,,4,0,4,0,1,X V Q F H G B L J M P D K C T S W R N Z,,,,,,,,,,,,,,,,,,,,,,,,,,,,,,,,,,,,,,,,,,,,,,,,,,,,,,,,,,,,,,,,,,,,,,,,,,,,,,,,,,,,,,,,,,,,,
,,,,,,,,,,5b94d723839c0a00010f88d9,25,Mężczyzna,2022-06-04_08h09.10.577,task,2021.1.4,Win32,59.99520038,628b806c463b948bc644b84f,629af6c692f19c5eee1bc1ea,,,,,5,0,5,0,1,X V Q F H G B L J M P D K C T S W R N Z,,,,,,,,,,,,,,,,,,,,,,,,,,,,,,,,,,,,,,,,,,,,,,,,,,,,,,,,,,,,,,,,,,,,,,,,,,,,,,,,,,,,,,,,,,,,,
,,,,,,,,,,5b94d723839c0a00010f88d9,25,Mężczyzna,2022-06-04_08h09.10.577,task,2021.1.4,Win32,59.99520038,628b806c463b948bc644b84f,629af6c692f19c5eee1bc1ea,,,,,6,0,6,0,1,X V Q F H G B L J M P D K C T S W R N Z,,,,,,,,,,,,,,,,,,,,,,,,,,,,,,,,,,,,,,,,,,,,,,,,,,,,,,,,,,,,,,,,,,,,,,,,,,,,,,,,,,,,,,,,,,,,,
,,,,,,,,,,5b94d723839c0a00010f88d9,25,Mężczyzna,2022-06-04_08h09.10.577,task,2021.1.4,Win32,59.99520038,628b806c463b948bc644b84f,629af6c692f19c5eee1bc1ea,,,,,,,,,,,pzkkhxp,"[""p"",""z"",""k"",""k"",""h"",""x"",""p""]","[0.7836999999880732,0.9836000000238414,1.102300000011894,3.666999999999973,3.9356000000238396,4.533699999988073,5.602199999988102,5.839600000023836]",0,PZKKHXT,13,0,13,0,1,,,,,,,,,,,,,,,,,,,,,,,,,,,,,,,,,,,,,,,,,,,,,,,,,,,,,,,,,,,,,,,,,,,,,,,,,,,,,,,,,,,
,,,,,,,,,,5b94d723839c0a00010f88d9,25,Mężczyzna,2022-06-04_08h09.10.577,task,2021.1.4,Win32,59.99520038,628b806c463b948bc644b84f,629af6c692f19c5eee1bc1ea,,,,,0,0,0,0,1,X V Q F H G B L J M P D K C T S W R N Z,,,,,,,,,,,,,,,,,,,,,,,,,,,,,,,,,,,,,,,,,,,,,,,,,,,,,,,,,,,,,,,,,,,,,,,,,,,,,,,,,,,,,,,,,,,,,
,,,,,,,,,,5b94d723839c0a00010f88d9,25,Mężczyzna,2022-06-04_08h09.10.577,task,2021.1.4,Win32,59.99520038,628b806c463b948bc644b84f,629af6c692f19c5eee1bc1ea,,,,,1,0,1,0,1,X V Q F H G B L J M P D K C T S W R N Z,,,,,,,,,,,,,,,,,,,,,,,,,,,,,,,,,,,,,,,,,,,,,,,,,,,,,,,,,,,,,,,,,,,,,,,,,,,,,,,,,,,,,,,,,,,,,
,,,,,,,,,,5b94d723839c0a00010f88d9,25,Mężczyzna,2022-06-04_08h09.10.577,task,2021.1.4,Win32,59.99520038,628b806c463b948bc644b84f,629af6c692f19c5eee1bc1ea,,,,,2,0,2,0,1,X V Q F H G B L J M P D K C T S W R N Z,,,,,,,,,,,,,,,,,,,,,,,,,,,,,,,,,,,,,,,,,,,,,,,,,,,,,,,,,,,,,,,,,,,,,,,,,,,,,,,,,,,,,,,,,,,,,
,,,,,,,,,,5b94d723839c0a00010f88d9,25,Mężczyzna,2022-06-04_08h09.10.577,task,2021.1.4,Win32,59.99520038,628b806c463b948bc644b84f,629af6c692f19c5eee1bc1ea,,,,,3,0,3,0,1,X V Q F H G B L J M P D K C T S W R N Z,,,,,,,,,,,,,,,,,,,,,,,,,,,,,,,,,,,,,,,,,,,,,,,,,,,,,,,,,,,,,,,,,,,,,,,,,,,,,,,,,,,,,,,,,,,,,
,,,,,,,,,,5b94d723839c0a00010f88d9,25,Mężczyzna,2022-06-04_08h09.10.577,task,2021.1.4,Win32,59.99520038,628b806c463b948bc644b84f,629af6c692f19c5eee1bc1ea,,,,,4,0,4,0,1,X V Q F H G B L J M P D K C T S W R N Z,,,,,,,,,,,,,,,,,,,,,,,,,,,,,,,,,,,,,,,,,,,,,,,,,,,,,,,,,,,,,,,,,,,,,,,,,,,,,,,,,,,,,,,,,,,,,
,,,,,,,,,,5b94d723839c0a00010f88d9,25,Mężczyzna,2022-06-04_08h09.10.577,task,2021.1.4,Win32,59.99520038,628b806c463b948bc644b84f,629af6c692f19c5eee1bc1ea,,,,,5,0,5,0,1,X V Q F H G B L J M P D K C T S W R N Z,,,,,,,,,,,,,,,,,,,,,,,,,,,,,,,,,,,,,,,,,,,,,,,,,,,,,,,,,,,,,,,,,,,,,,,,,,,,,,,,,,,,,,,,,,,,,
,,,,,,,,,,5b94d723839c0a00010f88d9,25,Mężczyzna,2022-06-04_08h09.10.577,task,2021.1.4,Win32,59.99520038,628b806c463b948bc644b84f,629af6c692f19c5eee1bc1ea,,,,,6,0,6,0,1,X V Q F H G B L J M P D K C T S W R N Z,,,,,,,,,,,,,,,,,,,,,,,,,,,,,,,,,,,,,,,,,,,,,,,,,,,,,,,,,,,,,,,,,,,,,,,,,,,,,,,,,,,,,,,,,,,,,
,,,,,,,,,,5b94d723839c0a00010f88d9,25,Mężczyzna,2022-06-04_08h09.10.577,task,2021.1.4,Win32,59.99520038,628b806c463b948bc644b84f,629af6c692f19c5eee1bc1ea,,,,,,,,,,,fgxwgp,"[""f"",""g"",""x"",""w"",""g"",""p""]","[0.652100000023836,0.9363000000119541,1.4453000000119118,1.8190000000000168,2.250500000000045,3.083699999988198,6.510300000011966]",0,FGXWGBP,14,0,14,0,1,,,,,,,,,,,,,,,,,,,,,,,,,,,,,,,,,,,,,,,,,,,,,,,,,,,,,,,,,,,,,,,,,,,,,,,,,,,,,,,,,,,
,,,,,,,,,,5b94d723839c0a00010f88d9,25,Mężczyzna,2022-06-04_08h09.10.577,task,2021.1.4,Win32,59.99520038,628b806c463b948bc644b84f,629af6c692f19c5eee1bc1ea,,,,,0,0,0,0,1,X V Q F H G B L J M P D K C T S W R N Z,,,,,,,,,,,,,,,,,,,,,,,,,,,,,,,,,,,,,,,,,,,,,,,,,,,,,,,,,,,,,,,,,,,,,,,,,,,,,,,,,,,,,,,,,,,,,
,,,,,,,,,,5b94d723839c0a00010f88d9,25,Mężczyzna,2022-06-04_08h09.10.577,task,2021.1.4,Win32,59.99520038,628b806c463b948bc644b84f,629af6c692f19c5eee1bc1ea,,,,,1,0,1,0,1,X V Q F H G B L J M P D K C T S W R N Z,,,,,,,,,,,,,,,,,,,,,,,,,,,,,,,,,,,,,,,,,,,,,,,,,,,,,,,,,,,,,,,,,,,,,,,,,,,,,,,,,,,,,,,,,,,,,
,,,,,,,,,,5b94d723839c0a00010f88d9,25,Mężczyzna,2022-06-04_08h09.10.577,task,2021.1.4,Win32,59.99520038,628b806c463b948bc644b84f,629af6c692f19c5eee1bc1ea,,,,,2,0,2,0,1,X V Q F H G B L J M P D K C T S W R N Z,,,,,,,,,,,,,,,,,,,,,,,,,,,,,,,,,,,,,,,,,,,,,,,,,,,,,,,,,,,,,,,,,,,,,,,,,,,,,,,,,,,,,,,,,,,,,
,,,,,,,,,,5b94d723839c0a00010f88d9,25,Mężczyzna,2022-06-04_08h09.10.577,task,2021.1.4,Win32,59.99520038,628b806c463b948bc644b84f,629af6c692f19c5eee1bc1ea,,,,,3,0,3,0,1,X V Q F H G B L J M P D K C T S W R N Z,,,,,,,,,,,,,,,,,,,,,,,,,,,,,,,,,,,,,,,,,,,,,,,,,,,,,,,,,,,,,,,,,,,,,,,,,,,,,,,,,,,,,,,,,,,,,
,,,,,,,,,,5b94d723839c0a00010f88d9,25,Mężczyzna,2022-06-04_08h09.10.577,task,2021.1.4,Win32,59.99520038,628b806c463b948bc644b84f,629af6c692f19c5eee1bc1ea,,,,,4,0,4,0,1,X V Q F H G B L J M P D K C T S W R N Z,,,,,,,,,,,,,,,,,,,,,,,,,,,,,,,,,,,,,,,,,,,,,,,,,,,,,,,,,,,,,,,,,,,,,,,,,,,,,,,,,,,,,,,,,,,,,
,,,,,,,,,,5b94d723839c0a00010f88d9,25,Mężczyzna,2022-06-04_08h09.10.577,task,2021.1.4,Win32,59.99520038,628b806c463b948bc644b84f,629af6c692f19c5eee1bc1ea,,,,,5,0,5,0,1,X V Q F H G B L J M P D K C T S W R N Z,,,,,,,,,,,,,,,,,,,,,,,,,,,,,,,,,,,,,,,,,,,,,,,,,,,,,,,,,,,,,,,,,,,,,,,,,,,,,,,,,,,,,,,,,,,,,
,,,,,,,,,,5b94d723839c0a00010f88d9,25,Mężczyzna,2022-06-04_08h09.10.577,task,2021.1.4,Win32,59.99520038,628b806c463b948bc644b84f,629af6c692f19c5eee1bc1ea,,,,,6,0,6,0,1,X V Q F H G B L J M P D K C T S W R N Z,,,,,,,,,,,,,,,,,,,,,,,,,,,,,,,,,,,,,,,,,,,,,,,,,,,,,,,,,,,,,,,,,,,,,,,,,,,,,,,,,,,,,,,,,,,,,
,,,,,,,,,,5b94d723839c0a00010f88d9,25,Mężczyzna,2022-06-04_08h09.10.577,task,2021.1.4,Win32,59.99520038,628b806c463b948bc644b84f,629af6c692f19c5eee1bc1ea,,,,,,,,,,,htwczpzp,"[""h"",""t"",""w"",""c"",""z"",""p"",""z"",""p""]","[0.9501000000238946,1.1336000000238755,1.9298000000119373,2.2256999999881373,2.574800000011919,3.710800000012,3.833600000023921,3.9346999999880836,4.161800000011908]",0,HTWCZPZ,15,0,15,0,1,,,,,,,,,,,,,,,,,,,,,,,,,,,,,,,,,,,,,,,,,,,,,,,,,,,,,,,,,,,,,,,,,,,,,,,,,,,,,,,,,,,
,,,,,,,,,,5b94d723839c0a00010f88d9,25,Mężczyzna,2022-06-04_08h09.10.577,task,2021.1.4,Win32,59.99520038,628b806c463b948bc644b84f,629af6c692f19c5eee1bc1ea,,,,,,,,,,,,,,,,,,,,,space,10.3617,1,"[""1""]",1,[2.134699999988129],[2.134699999988129],0,0,0,1,1,Practice,2,(4x4) - 15,1,,,,,,,,,,,,,,,,,,,,,,,,,,,,,,,,,,,,,,,,,,,,,,,,,,,,,,,,,,,,,,,,,,,
,,,,,,,,,,5b94d723839c0a00010f88d9,25,Mężczyzna,2022-06-04_08h09.10.577,task,2021.1.4,Win32,59.99520038,628b806c463b948bc644b84f,629af6c692f19c5eee1bc1ea,,,,,,,,,,,,,,,,,,,,,,,2,"[""2""]",1,[1.59050000000002],"[2.134699999988129,1.59050000000002]",0,1,1,2,1,Practice,3,(4x4) - 14,2,,,,,,,,,,,,,,,,,,,,,,,,,,,,,,,,,,,,,,,,,,,,,,,,,,,,,,,,,,,,,,,,,,,
,,,,,,,,,,5b94d723839c0a00010f88d9,25,Mężczyzna,2022-06-04_08h09.10.577,task,2021.1.4,Win32,59.99520038,628b806c463b948bc644b84f,629af6c692f19c5eee1bc1ea,,,,,,,,,,,,,,,,,,,,,,,0,"[""0""]",1,[1.7231000000238055],"[2.134699999988129,1.59050000000002,1.7231000000238055]",0,2,2,0,1,Practice,1,(3x3) -  9,0,,,,,,,,,,,,,,,,,,,,,,,,,,,,,,,,,,,,,,,,,,,,,,,,,,,,,,,,,,,,,,,,,,,
,,,,,,,,,,5b94d723839c0a00010f88d9,25,Mężczyzna,2022-06-04_08h09.10.577,task,2021.1.4,Win32,59.99520038,628b806c463b948bc644b84f,629af6c692f19c5eee1bc1ea,,,,,,,,,,,,,,,,,,,,,,,3,"[""3""]",1,[1.52130000001182],"[2.134699999988129,1.59050000000002,1.7231000000238055,1.52130000001182]",0,3,3,3,1,Practice,4,(8/4) + 1,3,,,,,,,,,,,,,,,,,,,,,,,,,,,,,,,,,,,,,,,,,,,,,,,,,,,,,,,,,,,,,,,,,,,
,,,,,,,,,,5b94d723839c0a00010f88d9,25,Mężczyzna,2022-06-04_08h09.10.577,task,2021.1.4,Win32,59.99520038,628b806c463b948bc644b84f,629af6c692f19c5eee1bc1ea,,,,,,,,,,,,,,,,,,,,,,,6,"[""6""]",1,[2.0784999999999627],"[2.134699999988129,1.59050000000002,1.7231000000238055,1.52130000001182,2.0784999999999627]",0,4,4,6,1,Practice,7,(25/5) + 1,6,,,,,,,,,,,,,,,,,,,,,,,,,,,,,,,,,,,,,,,,,,,,,,,,,,,,,,,,,,,,,,,,,,,
,,,,,,,,,,5b94d723839c0a00010f88d9,25,Mężczyzna,2022-06-04_08h09.10.577,task,2021.1.4,Win32,59.99520038,628b806c463b948bc644b84f,629af6c692f19c5eee1bc1ea,,,,,,,,,,,,,,,,,,,,,,,7,"[""7""]",1,[1.7950999999642363],"[2.134699999988129,1.59050000000002,1.7231000000238055,1.52130000001182,2.0784999999999627,1.7950999999642363]",0,5,5,7,1,Practice,8,(5x5) - 18,7,,,,,,,,,,,,,,,,,,,,,,,,,,,,,,,,,,,,,,,,,,,,,,,,,,,,,,,,,,,,,,,,,,,
,,,,,,,,,,5b94d723839c0a00010f88d9,25,Mężczyzna,2022-06-04_08h09.10.577,task,2021.1.4,Win32,59.99520038,628b806c463b948bc644b84f,629af6c692f19c5eee1bc1ea,,,,,,,,,,,,,,,,,,,,,,,9,"[""9""]",1,[1.4501999999881718],"[2.134699999988129,1.59050000000002,1.7231000000238055,1.52130000001182,2.0784999999999627,1.7950999999642363,1.4501999999881718]",0,6,6,9,1,Practice,10,(20/2) - 1,9,,,,,,,,,,,,,,,,,,,,,,,,,,,,,,,,,,,,,,,,,,,,,,,,,,,,,,,,,,,,,,,,,,,
,,,,,,,,,,5b94d723839c0a00010f88d9,25,Mężczyzna,2022-06-04_08h09.10.577,task,2021.1.4,Win32,59.99520038,628b806c463b948bc644b84f,629af6c692f19c5eee1bc1ea,,,,,,,,,,,,,,,,,,,,,,,5,"[""5""]",1,[2.703199999988101],"[2.134699999988129,1.59050000000002,1.7231000000238055,1.52130000001182,2.0784999999999627,1.7950999999642363,1.4501999999881718,2.703199999988101]",0,7,7,5,1,Practice,6,(4/2) + 3,5,,,,,,,,,,,,,,,,,,,,,,,,,,,,,,,,,,,,,,,,,,,,,,,,,,,,,,,,,,,,,,,,,,,
,,,,,,,,,,5b94d723839c0a00010f88d9,25,Mężczyzna,2022-06-04_08h09.10.577,task,2021.1.4,Win32,59.99520038,628b806c463b948bc644b84f,629af6c692f19c5eee1bc1ea,,,,,,,,,,,,,,,,,,,,,,,4,"[""4""]",1,[1.8353000000120119],"[2.134699999988129,1.59050000000002,1.7231000000238055,1.52130000001182,2.0784999999999627,1.7950999999642363,1.4501999999881718,2.703199999988101,1.8353000000120119]",0,8,8,4,1,Practice,5,(2x6) - 8,4,,,,,,,,,,,,,,,,,,,,,,,,,,,,,,,,,,,,,,,,,,,,,,,,,,,,,,,,,,,,,,,,,,,
,,,,,,,,,,5b94d723839c0a00010f88d9,25,Mężczyzna,2022-06-04_08h09.10.577,task,2021.1.4,Win32,59.99520038,628b806c463b948bc644b84f,629af6c692f19c5eee1bc1ea,,,,,,,,,,,,,,,,,,,,,,,8,"[""8""]",1,[1.2867999999522226],"[2.134699999988129,1.59050000000002,1.7231000000238055,1.52130000001182,2.0784999999999627,1.7950999999642363,1.4501999999881718,2.703199999988101,1.8353000000120119,1.2867999999522226]",0,9,9,8,1,Practice,9,(3x3) - 1,8,,,,,,,,,,,,,,,,,,,,,,,,,,,,,,,,,,,,,,,,,,,,,,,,,,,,,,,,,,,,,,,,,,,
,,,,,,,,,,5b94d723839c0a00010f88d9,25,Mężczyzna,2022-06-04_08h09.10.577,task,2021.1.4,Win32,59.99520038,628b806c463b948bc644b84f,629af6c692f19c5eee1bc1ea,,,,,,,,,,,,,,,,,,,,,,,,,,,,,,,,,,,,,1,18.1187,1.207913333,5.166066093,0.586859784,2.722011576,space,1.3772,0,0,0,0,1,,,,,,,,,,,,,,,,,,,,,,,,,,,,,,,,,,,,,,,,,,,,,,,,,,,,,,
,,,,,,,,,,5b94d723839c0a00010f88d9,25,Mężczyzna,2022-06-04_08h09.10.577,task,2021.1.4,Win32,59.99520038,628b806c463b948bc644b84f,629af6c692f19c5eee1bc1ea,,,,,,,,,,,,,,,,,,,,,,,,,,,,,,,,,Practice,6,(4/2) + 3,5,,,,,,,,,,,,,,space,9.1501,,0,0,0,0,0,5,1,,,,,,,,,,,,,,,,,,,,,,,,,,,,,,,,,,,,,,,,,,,,
,,,,,,,,,,5b94d723839c0a00010f88d9,25,Mężczyzna,2022-06-04_08h09.10.577,task,2021.1.4,Win32,59.99520038,628b806c463b948bc644b84f,629af6c692f19c5eee1bc1ea,,,,,,,,,,,,,,,,,,,,,,,6,,,,,,,,,,Practice,7,(25/5) + 1,6,,,,,,,,,,,,,,,,"[""6""]",1,1,0,1,1,6,1,[1.8983000000118864],,,,,,,,,,,,,,,,,,,,,,,,,,,,,,,,,,,,,,,,,,,
,,,,,,,,,,5b94d723839c0a00010f88d9,25,Mężczyzna,2022-06-04_08h09.10.577,task,2021.1.4,Win32,59.99520038,628b806c463b948bc644b84f,629af6c692f19c5eee1bc1ea,,,,,,,,,,X V Q F H G B L J M P D K C T S W R N Z,,,,,,,,,,,,,,,,,,,,,,,,,,,,,,,,,,,,,,,,,,,,,,,,,,,0,0,0,0,1,,,,,,,,,,,,,,,,,,,,,,,,,,,,,,,,,,,,,,
,,,,,,,,,,5b94d723839c0a00010f88d9,25,Mężczyzna,2022-06-04_08h09.10.577,task,2021.1.4,Win32,59.99520038,628b806c463b948bc644b84f,629af6c692f19c5eee1bc1ea,,,,,,,,,,,,,,,,,,,,,,,1,,,,,,,,,,Practice,2,(4x4) - 15,1,,,,,,,,,,,,,,,,"[""1""]",1,1,0,0,0,1,1,[0.9936999999880527],,,,,,,,,,,,,,,,,,,,,,,,,,,,,,,,,,,,,,,,,,,
,,,,,,,,,,5b94d723839c0a00010f88d9,25,Mężczyzna,2022-06-04_08h09.10.577,task,2021.1.4,Win32,59.99520038,628b806c463b948bc644b84f,629af6c692f19c5eee1bc1ea,,,,,,,,,,X V Q F H G B L J M P D K C T S W R N Z,,,,,,,,,,,,,,,,,,,,,,,,,,,,,,,,,,,,,,,,,,,,,,,,,,,1,0,1,0,1,,,,,,,,,,,,,,,,,,,,,,,,,,,,,,,,,,,,,,
,,,,,,,,,,5b94d723839c0a00010f88d9,25,Mężczyzna,2022-06-04_08h09.10.577,task,2021.1.4,Win32,59.99520038,628b806c463b948bc644b84f,629af6c692f19c5eee1bc1ea,,,,,,,,,,,,,,,,,,,,,,,,,,,,,,,,,,,,,,,,,,,,,,,,,,,,,,,,,,,,,,,,,,zk,"[""z"",""k""]",0,"[1.4965999999642463,2.157599999964191,3.3376999999881036]",1,0,0,0,0,1,,,,,,,,,,,,,,,,,,,,,,,,,,,,
,,,,,,,,,,5b94d723839c0a00010f88d9,25,Mężczyzna,2022-06-04_08h09.10.577,task,2021.1.4,Win32,59.99520038,628b806c463b948bc644b84f,629af6c692f19c5eee1bc1ea,,,,,,,,,,,,,,,,,,,,,,,8,,,,,,,,,,Practice,9,(3x3) - 1,8,,,,,,,,,,,,,,,,"[""8""]",1,1,0,0,0,8,1,[1.1820000000000164],,,,,,,,,,,,,,,,,,,,,,,,,,,,,,,,,,,,,,,,,,,
,,,,,,,,,,5b94d723839c0a00010f88d9,25,Mężczyzna,2022-06-04_08h09.10.577,task,2021.1.4,Win32,59.99520038,628b806c463b948bc644b84f,629af6c692f19c5eee1bc1ea,,,,,,,,,,X V Q F H G B L J M P D K C T S W R N Z,,,,,,,,,,,,,,,,,,,,,,,,,,,,,,,,,,,,,,,,,,,,,,,,,,,0,0,0,0,1,,,,,,,,,,,,,,,,,,,,,,,,,,,,,,,,,,,,,,
,,,,,,,,,,5b94d723839c0a00010f88d9,25,Mężczyzna,2022-06-04_08h09.10.577,task,2021.1.4,Win32,59.99520038,628b806c463b948bc644b84f,629af6c692f19c5eee1bc1ea,,,,,,,,,,,,,,,,,,,,,,,3,,,,,,,,,,Practice,4,(8/4) + 1,3,,,,,,,,,,,,,,,,"[""3""]",1,1,0,0,0,3,1,[0.9876000000239173],,,,,,,,,,,,,,,,,,,,,,,,,,,,,,,,,,,,,,,,,,,
,,,,,,,,,,5b94d723839c0a00010f88d9,25,Mężczyzna,2022-06-04_08h09.10.577,task,2021.1.4,Win32,59.99520038,628b806c463b948bc644b84f,629af6c692f19c5eee1bc1ea,,,,,,,,,,X V Q F H G B L J M P D K C T S W R N Z,,,,,,,,,,,,,,,,,,,,,,,,,,,,,,,,,,,,,,,,,,,,,,,,,,,1,0,1,0,1,,,,,,,,,,,,,,,,,,,,,,,,,,,,,,,,,,,,,,
,,,,,,,,,,5b94d723839c0a00010f88d9,25,Mężczyzna,2022-06-04_08h09.10.577,task,2021.1.4,Win32,59.99520038,628b806c463b948bc644b84f,629af6c692f19c5eee1bc1ea,,,,,,,,,,,,,,,,,,,,,,,,,,,,,,,,,,,,,,,,,,,,,,,,,,,,,,,,,,,,,,,,,,sj,"[""s"",""j""]",0,"[1.3778000000119164,1.5568999999761672,1.9048999999762373]",1,1,0,1,0,1,,,,,,,,,,,,,,,,,,,,,,,,,,,,
,,,,,,,,,,5b94d723839c0a00010f88d9,25,Mężczyzna,2022-06-04_08h09.10.577,task,2021.1.4,Win32,59.99520038,628b806c463b948bc644b84f,629af6c692f19c5eee1bc1ea,,,,,,,,,,,,,,,,,,,,,,,0,,,,,,,,,,Practice,1,(3x3) -  9,0,,,,,,,,,,,,,,,,"[""0""]",1,1,0,0,0,0,1,[1.02439999997614],,,,,,,,,,,,,,,,,,,,,,,,,,,,,,,,,,,,,,,,,,,
,,,,,,,,,,5b94d723839c0a00010f88d9,25,Mężczyzna,2022-06-04_08h09.10.577,task,2021.1.4,Win32,59.99520038,628b806c463b948bc644b84f,629af6c692f19c5eee1bc1ea,,,,,,,,,,X V Q F H G B L J M P D K C T S W R N Z,,,,,,,,,,,,,,,,,,,,,,,,,,,,,,,,,,,,,,,,,,,,,,,,,,,0,0,0,0,1,,,,,,,,,,,,,,,,,,,,,,,,,,,,,,,,,,,,,,
,,,,,,,,,,5b94d723839c0a00010f88d9,25,Mężczyzna,2022-06-04_08h09.10.577,task,2021.1.4,Win32,59.99520038,628b806c463b948bc644b84f,629af6c692f19c5eee1bc1ea,,,,,,,,,,,,,,,,,,,,,,,5,,,,,,,,,,Practice,6,(4/2) + 3,5,,,,,,,,,,,,,,,,"[""5""]",1,1,0,0,0,5,1,[1.2078000000119573],,,,,,,,,,,,,,,,,,,,,,,,,,,,,,,,,,,,,,,,,,,
,,,,,,,,,,5b94d723839c0a00010f88d9,25,Mężczyzna,2022-06-04_08h09.10.577,task,2021.1.4,Win32,59.99520038,628b806c463b948bc644b84f,629af6c692f19c5eee1bc1ea,,,,,,,,,,X V Q F H G B L J M P D K C T S W R N Z,,,,,,,,,,,,,,,,,,,,,,,,,,,,,,,,,,,,,,,,,,,,,,,,,,,1,0,1,0,1,,,,,,,,,,,,,,,,,,,,,,,,,,,,,,,,,,,,,,
,,,,,,,,,,5b94d723839c0a00010f88d9,25,Mężczyzna,2022-06-04_08h09.10.577,task,2021.1.4,Win32,59.99520038,628b806c463b948bc644b84f,629af6c692f19c5eee1bc1ea,,,,,,,,,,,,,,,,,,,,,,,,,,,,,,,,,,,,,,,,,,,,,,,,,,,,,,,,,,,,,,,,,,wg,"[""w"",""g""]",0,"[1.381899999976099,1.6259999999999764,1.856999999999971]",1,2,0,2,0,1,,,,,,,,,,,,,,,,,,,,,,,,,,,,
,,,,,,,,,,5b94d723839c0a00010f88d9,25,Mężczyzna,2022-06-04_08h09.10.577,task,2021.1.4,Win32,59.99520038,628b806c463b948bc644b84f,629af6c692f19c5eee1bc1ea,,,,,,,,,,,,,,,,,,,,,,,8,,,,,,,,,,Task,32,(8/2) + 4,8,,,,,,,,,,,,,,,,,,1,,,,,,,,,,,,,,,,,,,,,,space,8.3013,"[""8""]",1,[2.619400000035739],0,0,0,31,1,,,,,,,,,,,,,,,,,,
,,,,,,,,,,5b94d723839c0a00010f88d9,25,Mężczyzna,2022-06-04_08h09.10.577,task,2021.1.4,Win32,59.99520038,628b806c463b948bc644b84f,629af6c692f19c5eee1bc1ea,,,,,,,,,,X V Q F H G B L J M P D K C T S W R N Z,,,,,,,,,,,,,,,,,,,,,,,,,,,,,,,,,,,,,,,,,,,,,,,,,,,,,,,,,,,,,,,,,,,,,,,,,,,,0,0,0,0,1,,,,,,,,,,,,,
,,,,,,,,,,5b94d723839c0a00010f88d9,25,Mężczyzna,2022-06-04_08h09.10.577,task,2021.1.4,Win32,59.99520038,628b806c463b948bc644b84f,629af6c692f19c5eee1bc1ea,,,,,,,,,,,,,,,,,,,,,,,8,,,,,,,,,,Task,23,(2x3) + 2,8,,,,,,,,,,,,,,,,,,1,,,,,,,,,,,,,,,,,,,,,,,,"[""8""]",1,[1.8136000000238255],0,0,0,22,1,,,,,,,,,,,,,,,,,,
,,,,,,,,,,5b94d723839c0a00010f88d9,25,Mężczyzna,2022-06-04_08h09.10.577,task,2021.1.4,Win32,59.99520038,628b806c463b948bc644b84f,629af6c692f19c5eee1bc1ea,,,,,,,,,,X V Q F H G B L J M P D K C T S W R N Z,,,,,,,,,,,,,,,,,,,,,,,,,,,,,,,,,,,,,,,,,,,,,,,,,,,,,,,,,,,,,,,,,,,,,,,,,,,,1,0,1,0,1,,,,,,,,,,,,,
,,,,,,,,,,5b94d723839c0a00010f88d9,25,Mężczyzna,2022-06-04_08h09.10.577,task,2021.1.4,Win32,59.99520038,628b806c463b948bc644b84f,629af6c692f19c5eee1bc1ea,,,,,,,,,,,,,,,,,,,,,,,,,,,,,,,,,,,,,,,,,,,,,,,,,,,,,,,,,,,,,,,,,,,,,,,,,,,,,,,,,,,,,,,,,,,zj,"[""z"",""j""]",0,"[1.2538000000118927,1.4336999999879936,1.696599999964178]",1,ZJ,0,0,0,0,1,,
,,,,,,,,,,5b94d723839c0a00010f88d9,25,Mężczyzna,2022-06-04_08h09.10.577,task,2021.1.4,Win32,59.99520038,628b806c463b948bc644b84f,629af6c692f19c5eee1bc1ea,,,,,,,,,,,,,,,,,,,,,,,,,,,,,,,,,Task,37,(3/3) + 5,6,,,,,,,,,,,,,,,,,,0,,,,,,,,,,,,,,,,,,,,,,,,,0,,0,0,0,36,1,,,,,,,,,,,,,,,,,,
,,,,,,,,,,5b94d723839c0a00010f88d9,25,Mężczyzna,2022-06-04_08h09.10.577,task,2021.1.4,Win32,59.99520038,628b806c463b948bc644b84f,629af6c692f19c5eee1bc1ea,,,,,,,,,,,,,,,,,,,,,,,9,,,,,,,,,,Task,40,(7x2) - 5,9,,,,,,,,,,,,,,,,,,1,,,,,,,,,,,,,,,,,,,,,,,,"[""9""]",1,[2.408999999999992],0,1,1,39,1,,,,,,,,,,,,,,,,,,
,,,,,,,,,,5b94d723839c0a00010f88d9,25,Mężczyzna,2022-06-04_08h09.10.577,task,2021.1.4,Win32,59.99520038,628b806c463b948bc644b84f,629af6c692f19c5eee1bc1ea,,,,,,,,,,X V Q F H G B L J M P D K C T S W R N Z,,,,,,,,,,,,,,,,,,,,,,,,,,,,,,,,,,,,,,,,,,,,,,,,,,,,,,,,,,,,,,,,,,,,,,,,,,,,0,0,0,0,1,,,,,,,,,,,,,
,,,,,,,,,,5b94d723839c0a00010f88d9,25,Mężczyzna,2022-06-04_08h09.10.577,task,2021.1.4,Win32,59.99520038,628b806c463b948bc644b84f,629af6c692f19c5eee1bc1ea,,,,,,,,,,,,,,,,,,,,,,,3,,,,,,,,,,Task,3,(2x3) - 3,3,,,,,,,,,,,,,,,,,,1,,,,,,,,,,,,,,,,,,,,,,,,"[""3""]",1,[1.2132000000477774],0,0,0,2,1,,,,,,,,,,,,,,,,,,
,,,,,,,,,,5b94d723839c0a00010f88d9,25,Mężczyzna,2022-06-04_08h09.10.577,task,2021.1.4,Win32,59.99520038,628b806c463b948bc644b84f,629af6c692f19c5eee1bc1ea,,,,,,,,,,X V Q F H G B L J M P D K C T S W R N Z,,,,,,,,,,,,,,,,,,,,,,,,,,,,,,,,,,,,,,,,,,,,,,,,,,,,,,,,,,,,,,,,,,,,,,,,,,,,1,0,1,0,1,,,,,,,,,,,,,
,,,,,,,,,,5b94d723839c0a00010f88d9,25,Mężczyzna,2022-06-04_08h09.10.577,task,2021.1.4,Win32,59.99520038,628b806c463b948bc644b84f,629af6c692f19c5eee1bc1ea,,,,,,,,,,,,,,,,,,,,,,,8,,,,,,,,,,Task,15,(3x7) - 13,8,,,,,,,,,,,,,,,,,,1,,,,,,,,,,,,,,,,,,,,,,,,"[""8""]",1,[1.9239000000358146],0,0,0,14,1,,,,,,,,,,,,,,,,,,
,,,,,,,,,,5b94d723839c0a00010f88d9,25,Mężczyzna,2022-06-04_08h09.10.577,task,2021.1.4,Win32,59.99520038,628b806c463b948bc644b84f,629af6c692f19c5eee1bc1ea,,,,,,,,,,X V Q F H G B L J M P D K C T S W R N Z,,,,,,,,,,,,,,,,,,,,,,,,,,,,,,,,,,,,,,,,,,,,,,,,,,,,,,,,,,,,,,,,,,,,,,,,,,,,2,0,2,0,1,,,,,,,,,,,,,
,,,,,,,,,,5b94d723839c0a00010f88d9,25,Mężczyzna,2022-06-04_08h09.10.577,task,2021.1.4,Win32,59.99520038,628b806c463b948bc644b84f,629af6c692f19c5eee1bc1ea,,,,,,,,,,,,,,,,,,,,,,,,,,,,,,,,,,,,,,,,,,,,,,,,,,,,,,,,,,,,,,,,,,,,,,,,,,,,,,,,,,,,,,,,,,,bbc,"[""b"",""b"",""c""]",0,"[1.3220000000000027,1.4601000000237718,1.6899000000357773,1.8679999999999382]",1,BBC,1,0,1,0,1,,
,,,,,,,,,,5b94d723839c0a00010f88d9,25,Mężczyzna,2022-06-04_08h09.10.577,task,2021.1.4,Win32,59.99520038,628b806c463b948bc644b84f,629af6c692f19c5eee1bc1ea,,,,,,,,,,,,,,,,,,,,,,,8,,,,,,,,,,Task,23,(2x3) + 2,8,,,,,,,,,,,,,,,,,,1,,,,,,,,,,,,,,,,,,,,,,,,"[""8""]",1,[1.41989999997611],0,0,0,22,1,,,,,,,,,,,,,,,,,,
,,,,,,,,,,5b94d723839c0a00010f88d9,25,Mężczyzna,2022-06-04_08h09.10.577,task,2021.1.4,Win32,59.99520038,628b806c463b948bc644b84f,629af6c692f19c5eee1bc1ea,,,,,,,,,,X V Q F H G B L J M P D K C T S W R N Z,,,,,,,,,,,,,,,,,,,,,,,,,,,,,,,,,,,,,,,,,,,,,,,,,,,,,,,,,,,,,,,,,,,,,,,,,,,,0,0,0,0,1,,,,,,,,,,,,,
,,,,,,,,,,5b94d723839c0a00010f88d9,25,Mężczyzna,2022-06-04_08h09.10.577,task,2021.1.4,Win32,59.99520038,628b806c463b948bc644b84f,629af6c692f19c5eee1bc1ea,,,,,,,,,,,,,,,,,,,,,,,5,,,,,,,,,,Task,1,(12/6) - 1,1,,,,,,,,,,,,,,,,,,0,,,,,,,,,,,,,,,,,,,,,,,,"[""5""]",0,[1.8754999999999882],0,0,0,0,1,,,,,,,,,,,,,,,,,,
,,,,,,,,,,5b94d723839c0a00010f88d9,25,Mężczyzna,2022-06-04_08h09.10.577,task,2021.1.4,Win32,59.99520038,628b806c463b948bc644b84f,629af6c692f19c5eee1bc1ea,,,,,,,,,,,,,,,,,,,,,,,7,,,,,,,,,,Task,6,(12/2) + 1,7,,,,,,,,,,,,,,,,,,1,,,,,,,,,,,,,,,,,,,,,,,,"[""7""]",1,[1.7945000000000846],0,1,1,5,1,,,,,,,,,,,,,,,,,,
,,,,,,,,,,5b94d723839c0a00010f88d9,25,Mężczyzna,2022-06-04_08h09.10.577,task,2021.1.4,Win32,59.99520038,628b806c463b948bc644b84f,629af6c692f19c5eee1bc1ea,,,,,,,,,,X V Q F H G B L J M P D K C T S W R N Z,,,,,,,,,,,,,,,,,,,,,,,,,,,,,,,,,,,,,,,,,,,,,,,,,,,,,,,,,,,,,,,,,,,,,,,,,,,,1,0,1,0,1,,,,,,,,,,,,,
,,,,,,,,,,5b94d723839c0a00010f88d9,25,Mężczyzna,2022-06-04_08h09.10.577,task,2021.1.4,Win32,59.99520038,628b806c463b948bc644b84f,629af6c692f19c5eee1bc1ea,,,,,,,,,,,,,,,,,,,,,,,1,,,,,,,,,,Task,34,(9/3) - 2,1,,,,,,,,,,,,,,,,,,1,,,,,,,,,,,,,,,,,,,,,,,,"[""1""]",1,[1.7244999999999209],0,0,0,33,1,,,,,,,,,,,,,,,,,,
,,,,,,,,,,5b94d723839c0a00010f88d9,25,Mężczyzna,2022-06-04_08h09.10.577,task,2021.1.4,Win32,59.99520038,628b806c463b948bc644b84f,629af6c692f19c5eee1bc1ea,,,,,,,,,,X V Q F H G B L J M P D K C T S W R N Z,,,,,,,,,,,,,,,,,,,,,,,,,,,,,,,,,,,,,,,,,,,,,,,,,,,,,,,,,,,,,,,,,,,,,,,,,,,,2,0,2,0,1,,,,,,,,,,,,,
,,,,,,,,,,5b94d723839c0a00010f88d9,25,Mężczyzna,2022-06-04_08h09.10.577,task,2021.1.4,Win32,59.99520038,628b806c463b948bc644b84f,629af6c692f19c5eee1bc1ea,,,,,,,,,,,,,,,,,,,,,,,8,,,,,,,,,,Task,32,(8/2) + 4,8,,,,,,,,,,,,,,,,,,1,,,,,,,,,,,,,,,,,,,,,,,,"[""8""]",1,[1.9176999999880309],0,0,0,31,1,,,,,,,,,,,,,,,,,,
,,,,,,,,,,5b94d723839c0a00010f88d9,25,Mężczyzna,2022-06-04_08h09.10.577,task,2021.1.4,Win32,59.99520038,628b806c463b948bc644b84f,629af6c692f19c5eee1bc1ea,,,,,,,,,,X V Q F H G B L J M P D K C T S W R N Z,,,,,,,,,,,,,,,,,,,,,,,,,,,,,,,,,,,,,,,,,,,,,,,,,,,,,,,,,,,,,,,,,,,,,,,,,,,,3,0,3,0,1,,,,,,,,,,,,,
,,,,,,,,,,5b94d723839c0a00010f88d9,25,Mężczyzna,2022-06-04_08h09.10.577,task,2021.1.4,Win32,59.99520038,628b806c463b948bc644b84f,629af6c692f19c5eee1bc1ea,,,,,,,,,,,,,,,,,,,,,,,,,,,,,,,,,,,,,,,,,,,,,,,,,,,,,,,,,,,,,,,,,,,,,,,,,,,,,,,,,,,,,,,,,,,cmjx,"[""c"",""m"",""j"",""x""]",0,"[1.1698000000118327,1.260800000011841,1.5378999999761618,1.6654999999999518,1.8118000000118855]",1,CMJX,2,0,2,0,1,,
,,,,,,,,,,5b94d723839c0a00010f88d9,25,Mężczyzna,2022-06-04_08h09.10.577,task,2021.1.4,Win32,59.99520038,628b806c463b948bc644b84f,629af6c692f19c5eee1bc1ea,,,,,,,,,,,,,,,,,,,,,,,4,,,,,,,,,,Task,21,(10/2) - 1,4,,,,,,,,,,,,,,,,,,1,,,,,,,,,,,,,,,,,,,,,,,,"[""4""]",1,[1.7169000000357073],0,0,0,20,1,,,,,,,,,,,,,,,,,,
,,,,,,,,,,5b94d723839c0a00010f88d9,25,Mężczyzna,2022-06-04_08h09.10.577,task,2021.1.4,Win32,59.99520038,628b806c463b948bc644b84f,629af6c692f19c5eee1bc1ea,,,,,,,,,,X V Q F H G B L J M P D K C T S W R N Z,,,,,,,,,,,,,,,,,,,,,,,,,,,,,,,,,,,,,,,,,,,,,,,,,,,,,,,,,,,,,,,,,,,,,,,,,,,,0,0,0,0,1,,,,,,,,,,,,,
,,,,,,,,,,5b94d723839c0a00010f88d9,25,Mężczyzna,2022-06-04_08h09.10.577,task,2021.1.4,Win32,59.99520038,628b806c463b948bc644b84f,629af6c692f19c5eee1bc1ea,,,,,,,,,,,,,,,,,,,,,,,0,,,,,,,,,,Task,25,(10/5) - 2,0,,,,,,,,,,,,,,,,,,1,,,,,,,,,,,,,,,,,,,,,,,,"[""0""]",1,[1.8208000000119],0,0,0,24,1,,,,,,,,,,,,,,,,,,
,,,,,,,,,,5b94d723839c0a00010f88d9,25,Mężczyzna,2022-06-04_08h09.10.577,task,2021.1.4,Win32,59.99520038,628b806c463b948bc644b84f,629af6c692f19c5eee1bc1ea,,,,,,,,,,X V Q F H G B L J M P D K C T S W R N Z,,,,,,,,,,,,,,,,,,,,,,,,,,,,,,,,,,,,,,,,,,,,,,,,,,,,,,,,,,,,,,,,,,,,,,,,,,,,1,0,1,0,1,,,,,,,,,,,,,
,,,,,,,,,,5b94d723839c0a00010f88d9,25,Mężczyzna,2022-06-04_08h09.10.577,task,2021.1.4,Win32,59.99520038,628b806c463b948bc644b84f,629af6c692f19c5eee1bc1ea,,,,,,,,,,,,,,,,,,,,,,,8,,,,,,,,,,Task,39,(5x3) - 7,8,,,,,,,,,,,,,,,,,,1,,,,,,,,,,,,,,,,,,,,,,,,"[""8""]",1,[2.2938999999761336],0,0,0,38,1,,,,,,,,,,,,,,,,,,
,,,,,,,,,,5b94d723839c0a00010f88d9,25,Mężczyzna,2022-06-04_08h09.10.577,task,2021.1.4,Win32,59.99520038,628b806c463b948bc644b84f,629af6c692f19c5eee1bc1ea,,,,,,,,,,X V Q F H G B L J M P D K C T S W R N Z,,,,,,,,,,,,,,,,,,,,,,,,,,,,,,,,,,,,,,,,,,,,,,,,,,,,,,,,,,,,,,,,,,,,,,,,,,,,2,0,2,0,1,,,,,,,,,,,,,
,,,,,,,,,,5b94d723839c0a00010f88d9,25,Mężczyzna,2022-06-04_08h09.10.577,task,2021.1.4,Win32,59.99520038,628b806c463b948bc644b84f,629af6c692f19c5eee1bc1ea,,,,,,,,,,,,,,,,,,,,,,,6,,,,,,,,,,Task,13,(3x4) - 6,6,,,,,,,,,,,,,,,,,,1,,,,,,,,,,,,,,,,,,,,,,,,"[""6""]",1,[1.3486000000237937],0,0,0,12,1,,,,,,,,,,,,,,,,,,
,,,,,,,,,,5b94d723839c0a00010f88d9,25,Mężczyzna,2022-06-04_08h09.10.577,task,2021.1.4,Win32,59.99520038,628b806c463b948bc644b84f,629af6c692f19c5eee1bc1ea,,,,,,,,,,X V Q F H G B L J M P D K C T S W R N Z,,,,,,,,,,,,,,,,,,,,,,,,,,,,,,,,,,,,,,,,,,,,,,,,,,,,,,,,,,,,,,,,,,,,,,,,,,,,3,0,3,0,1,,,,,,,,,,,,,
,,,,,,,,,,5b94d723839c0a00010f88d9,25,Mężczyzna,2022-06-04_08h09.10.577,task,2021.1.4,Win32,59.99520038,628b806c463b948bc644b84f,629af6c692f19c5eee1bc1ea,,,,,,,,,,,,,,,,,,,,,,,3,,,,,,,,,,Task,3,(2x3) - 3,3,,,,,,,,,,,,,,,,,,1,,,,,,,,,,,,,,,,,,,,,,,,"[""3""]",1,[2.109300000011899],0,0,0,2,1,,,,,,,,,,,,,,,,,,
,,,,,,,,,,5b94d723839c0a00010f88d9,25,Mężczyzna,2022-06-04_08h09.10.577,task,2021.1.4,Win32,59.99520038,628b806c463b948bc644b84f,629af6c692f19c5eee1bc1ea,,,,,,,,,,X V Q F H G B L J M P D K C T S W R N Z,,,,,,,,,,,,,,,,,,,,,,,,,,,,,,,,,,,,,,,,,,,,,,,,,,,,,,,,,,,,,,,,,,,,,,,,,,,,4,0,4,0,1,,,,,,,,,,,,,
,,,,,,,,,,5b94d723839c0a00010f88d9,25,Mężczyzna,2022-06-04_08h09.10.577,task,2021.1.4,Win32,59.99520038,628b806c463b948bc644b84f,629af6c692f19c5eee1bc1ea,,,,,,,,,,,,,,,,,,,,,,,,,,,,,,,,,,,,,,,,,,,,,,,,,,,,,,,,,,,,,,,,,,,,,,,,,,,,,,,,,,,,,,,,,,,zhctj,"[""z"",""h"",""c"",""t"",""j""]",0,"[1.0098999999761418,1.2433999999760772,1.6004999999998972,2.016499999999951,2.250300000011862,2.6005999999641745]",1,ZHCTJ,3,0,3,0,1,,
,,,,,,,,,,5b94d723839c0a00010f88d9,25,Mężczyzna,2022-06-04_08h09.10.577,task,2021.1.4,Win32,59.99520038,628b806c463b948bc644b84f,629af6c692f19c5eee1bc1ea,,,,,,,,,,,,,,,,,,,,,,,2,,,,,,,,,,Task,10,(2x5) - 8,2,,,,,,,,,,,,,,,,,,1,,,,,,,,,,,,,,,,,,,,,,,,"[""2""]",1,[1.4323999999761554],0,0,0,9,1,,,,,,,,,,,,,,,,,,
,,,,,,,,,,5b94d723839c0a00010f88d9,25,Mężczyzna,2022-06-04_08h09.10.577,task,2021.1.4,Win32,59.99520038,628b806c463b948bc644b84f,629af6c692f19c5eee1bc1ea,,,,,,,,,,X V Q F H G B L J M P D K C T S W R N Z,,,,,,,,,,,,,,,,,,,,,,,,,,,,,,,,,,,,,,,,,,,,,,,,,,,,,,,,,,,,,,,,,,,,,,,,,,,,0,0,0,0,1,,,,,,,,,,,,,
,,,,,,,,,,5b94d723839c0a00010f88d9,25,Mężczyzna,2022-06-04_08h09.10.577,task,2021.1.4,Win32,59.99520038,628b806c463b948bc644b84f,629af6c692f19c5eee1bc1ea,,,,,,,,,,,,,,,,,,,,,,,8,,,,,,,,,,Task,30,(6/3) + 4 ,6,,,,,,,,,,,,,,,,,,0,,,,,,,,,,,,,,,,,,,,,,,,"[""8""]",0,[1.8226999999881173],0,0,0,29,1,,,,,,,,,,,,,,,,,,
,,,,,,,,,,5b94d723839c0a00010f88d9,25,Mężczyzna,2022-06-04_08h09.10.577,task,2021.1.4,Win32,59.99520038,628b806c463b948bc644b84f,629af6c692f19c5eee1bc1ea,,,,,,,,,,,,,,,,,,,,,,,3,,,,,,,,,,Task,20,(18/9) + 1,3,,,,,,,,,,,,,,,,,,1,,,,,,,,,,,,,,,,,,,,,,,,"[""3""]",1,[1.610600000023851],0,1,1,19,1,,,,,,,,,,,,,,,,,,
,,,,,,,,,,5b94d723839c0a00010f88d9,25,Mężczyzna,2022-06-04_08h09.10.577,task,2021.1.4,Win32,59.99520038,628b806c463b948bc644b84f,629af6c692f19c5eee1bc1ea,,,,,,,,,,X V Q F H G B L J M P D K C T S W R N Z,,,,,,,,,,,,,,,,,,,,,,,,,,,,,,,,,,,,,,,,,,,,,,,,,,,,,,,,,,,,,,,,,,,,,,,,,,,,1,0,1,0,1,,,,,,,,,,,,,
,,,,,,,,,,5b94d723839c0a00010f88d9,25,Mężczyzna,2022-06-04_08h09.10.577,task,2021.1.4,Win32,59.99520038,628b806c463b948bc644b84f,629af6c692f19c5eee1bc1ea,,,,,,,,,,,,,,,,,,,,,,,1,,,,,,,,,,Task,1,(12/6) - 1,1,,,,,,,,,,,,,,,,,,1,,,,,,,,,,,,,,,,,,,,,,,,"[""1""]",1,[1.3452000000477256],0,0,0,0,1,,,,,,,,,,,,,,,,,,
,,,,,,,,,,5b94d723839c0a00010f88d9,25,Mężczyzna,2022-06-04_08h09.10.577,task,2021.1.4,Win32,59.99520038,628b806c463b948bc644b84f,629af6c692f19c5eee1bc1ea,,,,,,,,,,X V Q F H G B L J M P D K C T S W R N Z,,,,,,,,,,,,,,,,,,,,,,,,,,,,,,,,,,,,,,,,,,,,,,,,,,,,,,,,,,,,,,,,,,,,,,,,,,,,2,0,2,0,1,,,,,,,,,,,,,
,,,,,,,,,,5b94d723839c0a00010f88d9,25,Mężczyzna,2022-06-04_08h09.10.577,task,2021.1.4,Win32,59.99520038,628b806c463b948bc644b84f,629af6c692f19c5eee1bc1ea,,,,,,,,,,,,,,,,,,,,,,,9,,,,,,,,,,Task,16,(3x8) - 15,9,,,,,,,,,,,,,,,,,,1,,,,,,,,,,,,,,,,,,,,,,,,"[""9""]",1,[1.754300000011881],0,0,0,15,1,,,,,,,,,,,,,,,,,,
,,,,,,,,,,5b94d723839c0a00010f88d9,25,Mężczyzna,2022-06-04_08h09.10.577,task,2021.1.4,Win32,59.99520038,628b806c463b948bc644b84f,629af6c692f19c5eee1bc1ea,,,,,,,,,,X V Q F H G B L J M P D K C T S W R N Z,,,,,,,,,,,,,,,,,,,,,,,,,,,,,,,,,,,,,,,,,,,,,,,,,,,,,,,,,,,,,,,,,,,,,,,,,,,,3,0,3,0,1,,,,,,,,,,,,,
,,,,,,,,,,5b94d723839c0a00010f88d9,25,Mężczyzna,2022-06-04_08h09.10.577,task,2021.1.4,Win32,59.99520038,628b806c463b948bc644b84f,629af6c692f19c5eee1bc1ea,,,,,,,,,,,,,,,,,,,,,,,2,,,,,,,,,,Task,26,(2x9) - 16,2,,,,,,,,,,,,,,,,,,1,,,,,,,,,,,,,,,,,,,,,,,,"[""2""]",1,[1.4316999999880409],0,0,0,25,1,,,,,,,,,,,,,,,,,,
,,,,,,,,,,5b94d723839c0a00010f88d9,25,Mężczyzna,2022-06-04_08h09.10.577,task,2021.1.4,Win32,59.99520038,628b806c463b948bc644b84f,629af6c692f19c5eee1bc1ea,,,,,,,,,,X V Q F H G B L J M P D K C T S W R N Z,,,,,,,,,,,,,,,,,,,,,,,,,,,,,,,,,,,,,,,,,,,,,,,,,,,,,,,,,,,,,,,,,,,,,,,,,,,,4,0,4,0,1,,,,,,,,,,,,,
,,,,,,,,,,5b94d723839c0a00010f88d9,25,Mężczyzna,2022-06-04_08h09.10.577,task,2021.1.4,Win32,59.99520038,628b806c463b948bc644b84f,629af6c692f19c5eee1bc1ea,,,,,,,,,,,,,,,,,,,,,,,8,,,,,,,,,,Task,39,(5x3) - 7,8,,,,,,,,,,,,,,,,,,1,,,,,,,,,,,,,,,,,,,,,,,,"[""8""]",1,[1.5880000000000791],0,0,0,38,1,,,,,,,,,,,,,,,,,,
,,,,,,,,,,5b94d723839c0a00010f88d9,25,Mężczyzna,2022-06-04_08h09.10.577,task,2021.1.4,Win32,59.99520038,628b806c463b948bc644b84f,629af6c692f19c5eee1bc1ea,,,,,,,,,,X V Q F H G B L J M P D K C T S W R N Z,,,,,,,,,,,,,,,,,,,,,,,,,,,,,,,,,,,,,,,,,,,,,,,,,,,,,,,,,,,,,,,,,,,,,,,,,,,,5,0,5,0,1,,,,,,,,,,,,,
,,,,,,,,,,5b94d723839c0a00010f88d9,25,Mężczyzna,2022-06-04_08h09.10.577,task,2021.1.4,Win32,59.99520038,628b806c463b948bc644b84f,629af6c692f19c5eee1bc1ea,,,,,,,,,,,,,,,,,,,,,,,,,,,,,,,,,,,,,,,,,,,,,,,,,,,,,,,,,,,,,,,,,,,,,,,,,,,,,,,,,,,,,,,,,,,fqrbxb,"[""f"",""q"",""r"",""b"",""x"",""b""]",0,"[1.1323000000119237,1.4061999999880754,1.6531999999880327,1.9953000000118664,2.5211999999880845,2.8508000000118727,3.2673000000119146]",1,FQRBXB,4,0,4,0,1,,
,,,,,,,,,,5b94d723839c0a00010f88d9,25,Mężczyzna,2022-06-04_08h09.10.577,task,2021.1.4,Win32,59.99520038,628b806c463b948bc644b84f,629af6c692f19c5eee1bc1ea,,,,,,,,,,,,,,,,,,,,,,,6,,,,,,,,,,Task,37,(3/3) + 5,6,,,,,,,,,,,,,,,,,,1,,,,,,,,,,,,,,,,,,,,,,,,"[""6""]",1,[2.540600000023801],0,0,0,36,1,,,,,,,,,,,,,,,,,,
,,,,,,,,,,5b94d723839c0a00010f88d9,25,Mężczyzna,2022-06-04_08h09.10.577,task,2021.1.4,Win32,59.99520038,628b806c463b948bc644b84f,629af6c692f19c5eee1bc1ea,,,,,,,,,,X V Q F H G B L J M P D K C T S W R N Z,,,,,,,,,,,,,,,,,,,,,,,,,,,,,,,,,,,,,,,,,,,,,,,,,,,,,,,,,,,,,,,,,,,,,,,,,,,,0,0,0,0,1,,,,,,,,,,,,,
,,,,,,,,,,5b94d723839c0a00010f88d9,25,Mężczyzna,2022-06-04_08h09.10.577,task,2021.1.4,Win32,59.99520038,628b806c463b948bc644b84f,629af6c692f19c5eee1bc1ea,,,,,,,,,,,,,,,,,,,,,,,2,,,,,,,,,,Task,10,(2x5) - 8,2,,,,,,,,,,,,,,,,,,1,,,,,,,,,,,,,,,,,,,,,,,,"[""2""]",1,[1.54329999995241],0,0,0,9,1,,,,,,,,,,,,,,,,,,
,,,,,,,,,,5b94d723839c0a00010f88d9,25,Mężczyzna,2022-06-04_08h09.10.577,task,2021.1.4,Win32,59.99520038,628b806c463b948bc644b84f,629af6c692f19c5eee1bc1ea,,,,,,,,,,X V Q F H G B L J M P D K C T S W R N Z,,,,,,,,,,,,,,,,,,,,,,,,,,,,,,,,,,,,,,,,,,,,,,,,,,,,,,,,,,,,,,,,,,,,,,,,,,,,1,0,1,0,1,,,,,,,,,,,,,
,,,,,,,,,,5b94d723839c0a00010f88d9,25,Mężczyzna,2022-06-04_08h09.10.577,task,2021.1.4,Win32,59.99520038,628b806c463b948bc644b84f,629af6c692f19c5eee1bc1ea,,,,,,,,,,,,,,,,,,,,,,,6,,,,,,,,,,Task,5,(2x3) + 0,6,,,,,,,,,,,,,,,,,,1,,,,,,,,,,,,,,,,,,,,,,,,"[""6""]",1,[2.4094000000358164],0,0,0,4,1,,,,,,,,,,,,,,,,,,
,,,,,,,,,,5b94d723839c0a00010f88d9,25,Mężczyzna,2022-06-04_08h09.10.577,task,2021.1.4,Win32,59.99520038,628b806c463b948bc644b84f,629af6c692f19c5eee1bc1ea,,,,,,,,,,X V Q F H G B L J M P D K C T S W R N Z,,,,,,,,,,,,,,,,,,,,,,,,,,,,,,,,,,,,,,,,,,,,,,,,,,,,,,,,,,,,,,,,,,,,,,,,,,,,2,0,2,0,1,,,,,,,,,,,,,
,,,,,,,,,,5b94d723839c0a00010f88d9,25,Mężczyzna,2022-06-04_08h09.10.577,task,2021.1.4,Win32,59.99520038,628b806c463b948bc644b84f,629af6c692f19c5eee1bc1ea,,,,,,,,,,,,,,,,,,,,,,,4,,,,,,,,,,Task,11,(18/3) - 2,4,,,,,,,,,,,,,,,,,,1,,,,,,,,,,,,,,,,,,,,,,,,"[""4""]",1,[1.8230000000000928],0,0,0,10,1,,,,,,,,,,,,,,,,,,
,,,,,,,,,,5b94d723839c0a00010f88d9,25,Mężczyzna,2022-06-04_08h09.10.577,task,2021.1.4,Win32,59.99520038,628b806c463b948bc644b84f,629af6c692f19c5eee1bc1ea,,,,,,,,,,X V Q F H G B L J M P D K C T S W R N Z,,,,,,,,,,,,,,,,,,,,,,,,,,,,,,,,,,,,,,,,,,,,,,,,,,,,,,,,,,,,,,,,,,,,,,,,,,,,3,0,3,0,1,,,,,,,,,,,,,
,,,,,,,,,,5b94d723839c0a00010f88d9,25,Mężczyzna,2022-06-04_08h09.10.577,task,2021.1.4,Win32,59.99520038,628b806c463b948bc644b84f,629af6c692f19c5eee1bc1ea,,,,,,,,,,,,,,,,,,,,,,,0,,,,,,,,,,Task,25,(10/5) - 2,0,,,,,,,,,,,,,,,,,,1,,,,,,,,,,,,,,,,,,,,,,,,"[""0""]",1,[1.7759999999999536],0,0,0,24,1,,,,,,,,,,,,,,,,,,
,,,,,,,,,,5b94d723839c0a00010f88d9,25,Mężczyzna,2022-06-04_08h09.10.577,task,2021.1.4,Win32,59.99520038,628b806c463b948bc644b84f,629af6c692f19c5eee1bc1ea,,,,,,,,,,X V Q F H G B L J M P D K C T S W R N Z,,,,,,,,,,,,,,,,,,,,,,,,,,,,,,,,,,,,,,,,,,,,,,,,,,,,,,,,,,,,,,,,,,,,,,,,,,,,4,0,4,0,1,,,,,,,,,,,,,
,,,,,,,,,,5b94d723839c0a00010f88d9,25,Mężczyzna,2022-06-04_08h09.10.577,task,2021.1.4,Win32,59.99520038,628b806c463b948bc644b84f,629af6c692f19c5eee1bc1ea,,,,,,,,,,,,,,,,,,,,,,,3,,,,,,,,,,Task,3,(2x3) - 3,3,,,,,,,,,,,,,,,,,,1,,,,,,,,,,,,,,,,,,,,,,,,"[""3""]",1,[1.3435999999642263],0,0,0,2,1,,,,,,,,,,,,,,,,,,
,,,,,,,,,,5b94d723839c0a00010f88d9,25,Mężczyzna,2022-06-04_08h09.10.577,task,2021.1.4,Win32,59.99520038,628b806c463b948bc644b84f,629af6c692f19c5eee1bc1ea,,,,,,,,,,X V Q F H G B L J M P D K C T S W R N Z,,,,,,,,,,,,,,,,,,,,,,,,,,,,,,,,,,,,,,,,,,,,,,,,,,,,,,,,,,,,,,,,,,,,,,,,,,,,5,0,5,0,1,,,,,,,,,,,,,
,,,,,,,,,,5b94d723839c0a00010f88d9,25,Mężczyzna,2022-06-04_08h09.10.577,task,2021.1.4,Win32,59.99520038,628b806c463b948bc644b84f,629af6c692f19c5eee1bc1ea,,,,,,,,,,,,,,,,,,,,,,,8,,,,,,,,,,Task,39,(5x3) - 7,8,,,,,,,,,,,,,,,,,,1,,,,,,,,,,,,,,,,,,,,,,,,"[""8""]",1,[1.691799999952309],0,0,0,38,1,,,,,,,,,,,,,,,,,,
,,,,,,,,,,5b94d723839c0a00010f88d9,25,Mężczyzna,2022-06-04_08h09.10.577,task,2021.1.4,Win32,59.99520038,628b806c463b948bc644b84f,629af6c692f19c5eee1bc1ea,,,,,,,,,,X V Q F H G B L J M P D K C T S W R N Z,,,,,,,,,,,,,,,,,,,,,,,,,,,,,,,,,,,,,,,,,,,,,,,,,,,,,,,,,,,,,,,,,,,,,,,,,,,,6,0,6,0,1,,,,,,,,,,,,,
,,,,,,,,,,5b94d723839c0a00010f88d9,25,Mężczyzna,2022-06-04_08h09.10.577,task,2021.1.4,Win32,59.99520038,628b806c463b948bc644b84f,629af6c692f19c5eee1bc1ea,,,,,,,,,,,,,,,,,,,,,,,,,,,,,,,,,,,,,,,,,,,,,,,,,,,,,,,,,,,,,,,,,,,,,,,,,,,,,,,,,,,,,,,,,,,fhcbmr,"[""f"",""h"",""c"",""b"",""m"",""r""]",0,"[1.4248000000119418,1.7909000000357764,2.3058000000119137,6.366900000035798,6.817800000011857,9.952999999999975,10.583499999999958]",0,FHCBMFR,5,0,5,0,1,,
,,,,,,,,,,5b94d723839c0a00010f88d9,25,Mężczyzna,2022-06-04_08h09.10.577,task,2021.1.4,Win32,59.99520038,628b806c463b948bc644b84f,629af6c692f19c5eee1bc1ea,,,,,,,,,,,,,,,,,,,,,,,3,,,,,,,,,,Task,35,(1x2) + 1,3,,,,,,,,,,,,,,,,,,1,,,,,,,,,,,,,,,,,,,,,,,,"[""3""]",1,[1.3196999999880745],0,0,0,34,1,,,,,,,,,,,,,,,,,,
,,,,,,,,,,5b94d723839c0a00010f88d9,25,Mężczyzna,2022-06-04_08h09.10.577,task,2021.1.4,Win32,59.99520038,628b806c463b948bc644b84f,629af6c692f19c5eee1bc1ea,,,,,,,,,,X V Q F H G B L J M P D K C T S W R N Z,,,,,,,,,,,,,,,,,,,,,,,,,,,,,,,,,,,,,,,,,,,,,,,,,,,,,,,,,,,,,,,,,,,,,,,,,,,,0,0,0,0,1,,,,,,,,,,,,,
,,,,,,,,,,5b94d723839c0a00010f88d9,25,Mężczyzna,2022-06-04_08h09.10.577,task,2021.1.4,Win32,59.99520038,628b806c463b948bc644b84f,629af6c692f19c5eee1bc1ea,,,,,,,,,,,,,,,,,,,,,,,7,,,,,,,,,,Task,31,(4/2) + 5,7,,,,,,,,,,,,,,,,,,1,,,,,,,,,,,,,,,,,,,,,,,,"[""7""]",1,[1.6786000000238346],0,0,0,30,1,,,,,,,,,,,,,,,,,,
,,,,,,,,,,5b94d723839c0a00010f88d9,25,Mężczyzna,2022-06-04_08h09.10.577,task,2021.1.4,Win32,59.99520038,628b806c463b948bc644b84f,629af6c692f19c5eee1bc1ea,,,,,,,,,,X V Q F H G B L J M P D K C T S W R N Z,,,,,,,,,,,,,,,,,,,,,,,,,,,,,,,,,,,,,,,,,,,,,,,,,,,,,,,,,,,,,,,,,,,,,,,,,,,,1,0,1,0,1,,,,,,,,,,,,,
,,,,,,,,,,5b94d723839c0a00010f88d9,25,Mężczyzna,2022-06-04_08h09.10.577,task,2021.1.4,Win32,59.99520038,628b806c463b948bc644b84f,629af6c692f19c5eee1bc1ea,,,,,,,,,,,,,,,,,,,,,,,5,,,,,,,,,,Task,36,(8/4) + 3,5,,,,,,,,,,,,,,,,,,1,,,,,,,,,,,,,,,,,,,,,,,,"[""5""]",1,[1.302000000000021],0,0,0,35,1,,,,,,,,,,,,,,,,,,
