key_resp_15.keys,key_resp_15.rt,key_resp_13.keys,key_resp_13.corr,key_resp_13.rt,ranodm_loop.thisRepN,ranodm_loop.thisTrialN,ranodm_loop.thisN,ranodm_loop.thisIndex,ranodm_loop.ran,participant,Wiek*,Płeć,date,expName,psychopyVersion,OS,frameRate,study_id,session,key_resp_16.keys,key_resp_16.rt,key_resp_4.keys,key_resp_4.rt,next_letter.thisRepN,next_letter.thisTrialN,next_letter.thisN,next_letter.thisIndex,next_letter.ran,letter,simple_recall,key_resp_5.keys,key_resp_5.rt,simple_recall_corr,simple_recall_corrkeys,next_level.thisRepN,next_level.thisTrialN,next_level.thisN,next_level.thisIndex,next_level.ran,key_resp_2.keys,key_resp_2.rt,digit_answer,key_resp.keys,key_resp.corr,key_resp.rt,RT_list,next_equation.thisRepN,next_equation.thisTrialN,next_equation.thisN,next_equation.thisIndex,next_equation.ran,Task,Trial,Problem,Operation_answer,processing_score,sumRT,meanRT,sumdiff,sd,RT,key_resp_3.keys,key_resp_3.rt,repeat_practice.thisRepN,repeat_practice.thisTrialN,repeat_practice.thisN,repeat_practice.thisIndex,repeat_practice.ran,key_resp_6.keys,key_resp_6.rt,key_resp_11.keys,key_resp_11.corr,key_resp_11.rt,operation_correct,repeat_if_wrong_prac.thisRepN,repeat_if_wrong_prac.thisTrialN,repeat_if_wrong_prac.thisN,repeat_if_wrong_prac.thisIndex,repeat_if_wrong_prac.ran,span_size_prac.thisRepN,span_size_prac.thisTrialN,span_size_prac.thisN,span_size_prac.thisIndex,span_size_prac.ran,complex_recall_practice,key_resp_9.keys,key_resp_9.corr,key_resp_9.rt,complex_prac_corr,span_recall_prac.thisRepN,span_recall_prac.thisTrialN,span_recall_prac.thisN,span_recall_prac.thisIndex,span_recall_prac.ran,key_resp_10.keys,key_resp_10.rt,key_resp_7.keys,key_resp_7.corr,key_resp_7.rt,repeat_if_wrong.thisRepN,repeat_if_wrong.thisTrialN,repeat_if_wrong.thisN,repeat_if_wrong.thisIndex,repeat_if_wrong.ran,span_size.thisRepN,span_size.thisTrialN,span_size.thisN,span_size.thisIndex,span_size.ran,complex_recall,key_resp_8.keys,key_resp_8.corr,key_resp_8.rt,complex_recall_corr,complex_recall_corrkeys,span_recall.thisRepN,span_recall.thisTrialN,span_recall.thisN,span_recall.thisIndex,span_recall.ran,key_resp_12.keys,key_resp_12.rt
space,7.8258,"[""comma"",""period""]",0,"[0.6883999999998878,1.4718000000000302]",0,0,0,0,1,5b98223fbdb1df0001f1e684,36,Mężczyzna,2022-06-04_08h31.32.902,task,2021.1.4,Win32,37.60953778,628b806c463b948bc644b84f,629afbdf26540dbd3360365e,,,,,,,,,,,,,,,,,,,,,,,,,,,,,,,,,,,,,,,,,,,,,,,,,,,,,,,,,,,,,,,,,,,,,,,,,,,,,,,,,,,,,,,,,,,,,,,,,,,,,,,
,,"[""comma"",""comma""]",0,"[0.29740000000015243,0.7886000000000877]",1,0,1,0,1,5b98223fbdb1df0001f1e684,36,Mężczyzna,2022-06-04_08h31.32.902,task,2021.1.4,Win32,37.60953778,628b806c463b948bc644b84f,629afbdf26540dbd3360365e,,,,,,,,,,,,,,,,,,,,,,,,,,,,,,,,,,,,,,,,,,,,,,,,,,,,,,,,,,,,,,,,,,,,,,,,,,,,,,,,,,,,,,,,,,,,,,,,,,,,,,,
,,"[""period""]",0,[0.24919999999994502],2,0,2,0,1,5b98223fbdb1df0001f1e684,36,Mężczyzna,2022-06-04_08h31.32.902,task,2021.1.4,Win32,37.60953778,628b806c463b948bc644b84f,629afbdf26540dbd3360365e,,,,,,,,,,,,,,,,,,,,,,,,,,,,,,,,,,,,,,,,,,,,,,,,,,,,,,,,,,,,,,,,,,,,,,,,,,,,,,,,,,,,,,,,,,,,,,,,,,,,,,,
,,"[""comma""]",0,[0.2360999999998512],3,0,3,0,1,5b98223fbdb1df0001f1e684,36,Mężczyzna,2022-06-04_08h31.32.902,task,2021.1.4,Win32,37.60953778,628b806c463b948bc644b84f,629afbdf26540dbd3360365e,,,,,,,,,,,,,,,,,,,,,,,,,,,,,,,,,,,,,,,,,,,,,,,,,,,,,,,,,,,,,,,,,,,,,,,,,,,,,,,,,,,,,,,,,,,,,,,,,,,,,,,
,,"[""comma""]",0,[0.24950000000001182],4,0,4,0,1,5b98223fbdb1df0001f1e684,36,Mężczyzna,2022-06-04_08h31.32.902,task,2021.1.4,Win32,37.60953778,628b806c463b948bc644b84f,629afbdf26540dbd3360365e,,,,,,,,,,,,,,,,,,,,,,,,,,,,,,,,,,,,,,,,,,,,,,,,,,,,,,,,,,,,,,,,,,,,,,,,,,,,,,,,,,,,,,,,,,,,,,,,,,,,,,,
,,"[""comma""]",0,[0.21750000000000114],5,0,5,0,1,5b98223fbdb1df0001f1e684,36,Mężczyzna,2022-06-04_08h31.32.902,task,2021.1.4,Win32,37.60953778,628b806c463b948bc644b84f,629afbdf26540dbd3360365e,,,,,,,,,,,,,,,,,,,,,,,,,,,,,,,,,,,,,,,,,,,,,,,,,,,,,,,,,,,,,,,,,,,,,,,,,,,,,,,,,,,,,,,,,,,,,,,,,,,,,,,
,,"[""period""]",0,[0.22819999999995844],6,0,6,0,1,5b98223fbdb1df0001f1e684,36,Mężczyzna,2022-06-04_08h31.32.902,task,2021.1.4,Win32,37.60953778,628b806c463b948bc644b84f,629afbdf26540dbd3360365e,,,,,,,,,,,,,,,,,,,,,,,,,,,,,,,,,,,,,,,,,,,,,,,,,,,,,,,,,,,,,,,,,,,,,,,,,,,,,,,,,,,,,,,,,,,,,,,,,,,,,,,
,,"[""comma""]",0,[0.25840000000013674],7,0,7,0,1,5b98223fbdb1df0001f1e684,36,Mężczyzna,2022-06-04_08h31.32.902,task,2021.1.4,Win32,37.60953778,628b806c463b948bc644b84f,629afbdf26540dbd3360365e,,,,,,,,,,,,,,,,,,,,,,,,,,,,,,,,,,,,,,,,,,,,,,,,,,,,,,,,,,,,,,,,,,,,,,,,,,,,,,,,,,,,,,,,,,,,,,,,,,,,,,,
,,"[""period""]",0,[0.215399999999903],8,0,8,0,1,5b98223fbdb1df0001f1e684,36,Mężczyzna,2022-06-04_08h31.32.902,task,2021.1.4,Win32,37.60953778,628b806c463b948bc644b84f,629afbdf26540dbd3360365e,,,,,,,,,,,,,,,,,,,,,,,,,,,,,,,,,,,,,,,,,,,,,,,,,,,,,,,,,,,,,,,,,,,,,,,,,,,,,,,,,,,,,,,,,,,,,,,,,,,,,,,
,,"[""period""]",0,[0.21590000000014697],9,0,9,0,1,5b98223fbdb1df0001f1e684,36,Mężczyzna,2022-06-04_08h31.32.902,task,2021.1.4,Win32,37.60953778,628b806c463b948bc644b84f,629afbdf26540dbd3360365e,,,,,,,,,,,,,,,,,,,,,,,,,,,,,,,,,,,,,,,,,,,,,,,,,,,,,,,,,,,,,,,,,,,,,,,,,,,,,,,,,,,,,,,,,,,,,,,,,,,,,,,
,,"[""period""]",0,[0.22299999999998477],10,0,10,0,1,5b98223fbdb1df0001f1e684,36,Mężczyzna,2022-06-04_08h31.32.902,task,2021.1.4,Win32,37.60953778,628b806c463b948bc644b84f,629afbdf26540dbd3360365e,,,,,,,,,,,,,,,,,,,,,,,,,,,,,,,,,,,,,,,,,,,,,,,,,,,,,,,,,,,,,,,,,,,,,,,,,,,,,,,,,,,,,,,,,,,,,,,,,,,,,,,
,,"[""period""]",0,[0.2331999999999539],11,0,11,0,1,5b98223fbdb1df0001f1e684,36,Mężczyzna,2022-06-04_08h31.32.902,task,2021.1.4,Win32,37.60953778,628b806c463b948bc644b84f,629afbdf26540dbd3360365e,,,,,,,,,,,,,,,,,,,,,,,,,,,,,,,,,,,,,,,,,,,,,,,,,,,,,,,,,,,,,,,,,,,,,,,,,,,,,,,,,,,,,,,,,,,,,,,,,,,,,,,
,,"[""comma"",""period""]",0,"[0.22480000000004452,1.8133999999999162]",12,0,12,0,1,5b98223fbdb1df0001f1e684,36,Mężczyzna,2022-06-04_08h31.32.902,task,2021.1.4,Win32,37.60953778,628b806c463b948bc644b84f,629afbdf26540dbd3360365e,,,,,,,,,,,,,,,,,,,,,,,,,,,,,,,,,,,,,,,,,,,,,,,,,,,,,,,,,,,,,,,,,,,,,,,,,,,,,,,,,,,,,,,,,,,,,,,,,,,,,,,
,,,0,,13,0,13,0,1,5b98223fbdb1df0001f1e684,36,Mężczyzna,2022-06-04_08h31.32.902,task,2021.1.4,Win32,37.60953778,628b806c463b948bc644b84f,629afbdf26540dbd3360365e,,,,,,,,,,,,,,,,,,,,,,,,,,,,,,,,,,,,,,,,,,,,,,,,,,,,,,,,,,,,,,,,,,,,,,,,,,,,,,,,,,,,,,,,,,,,,,,,,,,,,,,
,,"[""comma""]",0,[0.2650000000000148],14,0,14,0,1,5b98223fbdb1df0001f1e684,36,Mężczyzna,2022-06-04_08h31.32.902,task,2021.1.4,Win32,37.60953778,628b806c463b948bc644b84f,629afbdf26540dbd3360365e,,,,,,,,,,,,,,,,,,,,,,,,,,,,,,,,,,,,,,,,,,,,,,,,,,,,,,,,,,,,,,,,,,,,,,,,,,,,,,,,,,,,,,,,,,,,,,,,,,,,,,,
,,"[""comma""]",0,[0.236399999999918],15,0,15,0,1,5b98223fbdb1df0001f1e684,36,Mężczyzna,2022-06-04_08h31.32.902,task,2021.1.4,Win32,37.60953778,628b806c463b948bc644b84f,629afbdf26540dbd3360365e,,,,,,,,,,,,,,,,,,,,,,,,,,,,,,,,,,,,,,,,,,,,,,,,,,,,,,,,,,,,,,,,,,,,,,,,,,,,,,,,,,,,,,,,,,,,,,,,,,,,,,,
,,"[""period""]",0,[0.2470999999998753],16,0,16,0,1,5b98223fbdb1df0001f1e684,36,Mężczyzna,2022-06-04_08h31.32.902,task,2021.1.4,Win32,37.60953778,628b806c463b948bc644b84f,629afbdf26540dbd3360365e,,,,,,,,,,,,,,,,,,,,,,,,,,,,,,,,,,,,,,,,,,,,,,,,,,,,,,,,,,,,,,,,,,,,,,,,,,,,,,,,,,,,,,,,,,,,,,,,,,,,,,,
,,"[""period""]",0,[0.23840000000015493],17,0,17,0,1,5b98223fbdb1df0001f1e684,36,Mężczyzna,2022-06-04_08h31.32.902,task,2021.1.4,Win32,37.60953778,628b806c463b948bc644b84f,629afbdf26540dbd3360365e,,,,,,,,,,,,,,,,,,,,,,,,,,,,,,,,,,,,,,,,,,,,,,,,,,,,,,,,,,,,,,,,,,,,,,,,,,,,,,,,,,,,,,,,,,,,,,,,,,,,,,,
,,"[""period""]",0,[0.25550000000001205],18,0,18,0,1,5b98223fbdb1df0001f1e684,36,Mężczyzna,2022-06-04_08h31.32.902,task,2021.1.4,Win32,37.60953778,628b806c463b948bc644b84f,629afbdf26540dbd3360365e,,,,,,,,,,,,,,,,,,,,,,,,,,,,,,,,,,,,,,,,,,,,,,,,,,,,,,,,,,,,,,,,,,,,,,,,,,,,,,,,,,,,,,,,,,,,,,,,,,,,,,,
,,"[""comma""]",0,[0.24770000000017944],19,0,19,0,1,5b98223fbdb1df0001f1e684,36,Mężczyzna,2022-06-04_08h31.32.902,task,2021.1.4,Win32,37.60953778,628b806c463b948bc644b84f,629afbdf26540dbd3360365e,,,,,,,,,,,,,,,,,,,,,,,,,,,,,,,,,,,,,,,,,,,,,,,,,,,,,,,,,,,,,,,,,,,,,,,,,,,,,,,,,,,,,,,,,,,,,,,,,,,,,,,
,,"[""period""]",0,[0.23430000000004725],20,0,20,0,1,5b98223fbdb1df0001f1e684,36,Mężczyzna,2022-06-04_08h31.32.902,task,2021.1.4,Win32,37.60953778,628b806c463b948bc644b84f,629afbdf26540dbd3360365e,,,,,,,,,,,,,,,,,,,,,,,,,,,,,,,,,,,,,,,,,,,,,,,,,,,,,,,,,,,,,,,,,,,,,,,,,,,,,,,,,,,,,,,,,,,,,,,,,,,,,,,
,,"[""period""]",0,[0.24340000000012196],21,0,21,0,1,5b98223fbdb1df0001f1e684,36,Mężczyzna,2022-06-04_08h31.32.902,task,2021.1.4,Win32,37.60953778,628b806c463b948bc644b84f,629afbdf26540dbd3360365e,,,,,,,,,,,,,,,,,,,,,,,,,,,,,,,,,,,,,,,,,,,,,,,,,,,,,,,,,,,,,,,,,,,,,,,,,,,,,,,,,,,,,,,,,,,,,,,,,,,,,,,
,,"[""comma""]",0,[0.2949999999999875],22,0,22,0,1,5b98223fbdb1df0001f1e684,36,Mężczyzna,2022-06-04_08h31.32.902,task,2021.1.4,Win32,37.60953778,628b806c463b948bc644b84f,629afbdf26540dbd3360365e,,,,,,,,,,,,,,,,,,,,,,,,,,,,,,,,,,,,,,,,,,,,,,,,,,,,,,,,,,,,,,,,,,,,,,,,,,,,,,,,,,,,,,,,,,,,,,,,,,,,,,,
,,"[""comma""]",0,[0.26569999999995275],23,0,23,0,1,5b98223fbdb1df0001f1e684,36,Mężczyzna,2022-06-04_08h31.32.902,task,2021.1.4,Win32,37.60953778,628b806c463b948bc644b84f,629afbdf26540dbd3360365e,,,,,,,,,,,,,,,,,,,,,,,,,,,,,,,,,,,,,,,,,,,,,,,,,,,,,,,,,,,,,,,,,,,,,,,,,,,,,,,,,,,,,,,,,,,,,,,,,,,,,,,
,,"[""comma""]",0,[0.22630000000003747],24,0,24,0,1,5b98223fbdb1df0001f1e684,36,Mężczyzna,2022-06-04_08h31.32.902,task,2021.1.4,Win32,37.60953778,628b806c463b948bc644b84f,629afbdf26540dbd3360365e,,,,,,,,,,,,,,,,,,,,,,,,,,,,,,,,,,,,,,,,,,,,,,,,,,,,,,,,,,,,,,,,,,,,,,,,,,,,,,,,,,,,,,,,,,,,,,,,,,,,,,,
,,"[""comma""]",0,[-0.021600000000091768],25,0,25,0,1,5b98223fbdb1df0001f1e684,36,Mężczyzna,2022-06-04_08h31.32.902,task,2021.1.4,Win32,37.60953778,628b806c463b948bc644b84f,629afbdf26540dbd3360365e,,,,,,,,,,,,,,,,,,,,,,,,,,,,,,,,,,,,,,,,,,,,,,,,,,,,,,,,,,,,,,,,,,,,,,,,,,,,,,,,,,,,,,,,,,,,,,,,,,,,,,,
,,"[""period""]",0,[0.002299999999792135],26,0,26,0,1,5b98223fbdb1df0001f1e684,36,Mężczyzna,2022-06-04_08h31.32.902,task,2021.1.4,Win32,37.60953778,628b806c463b948bc644b84f,629afbdf26540dbd3360365e,,,,,,,,,,,,,,,,,,,,,,,,,,,,,,,,,,,,,,,,,,,,,,,,,,,,,,,,,,,,,,,,,,,,,,,,,,,,,,,,,,,,,,,,,,,,,,,,,,,,,,,
,,"[""comma""]",0,[0.2228000000000634],27,0,27,0,1,5b98223fbdb1df0001f1e684,36,Mężczyzna,2022-06-04_08h31.32.902,task,2021.1.4,Win32,37.60953778,628b806c463b948bc644b84f,629afbdf26540dbd3360365e,,,,,,,,,,,,,,,,,,,,,,,,,,,,,,,,,,,,,,,,,,,,,,,,,,,,,,,,,,,,,,,,,,,,,,,,,,,,,,,,,,,,,,,,,,,,,,,,,,,,,,,
,,"[""period""]",0,[0.25130000000004316],28,0,28,0,1,5b98223fbdb1df0001f1e684,36,Mężczyzna,2022-06-04_08h31.32.902,task,2021.1.4,Win32,37.60953778,628b806c463b948bc644b84f,629afbdf26540dbd3360365e,,,,,,,,,,,,,,,,,,,,,,,,,,,,,,,,,,,,,,,,,,,,,,,,,,,,,,,,,,,,,,,,,,,,,,,,,,,,,,,,,,,,,,,,,,,,,,,,,,,,,,,
,,"[""period""]",0,[0.2764000000001374],29,0,29,0,1,5b98223fbdb1df0001f1e684,36,Mężczyzna,2022-06-04_08h31.32.902,task,2021.1.4,Win32,37.60953778,628b806c463b948bc644b84f,629afbdf26540dbd3360365e,,,,,,,,,,,,,,,,,,,,,,,,,,,,,,,,,,,,,,,,,,,,,,,,,,,,,,,,,,,,,,,,,,,,,,,,,,,,,,,,,,,,,,,,,,,,,,,,,,,,,,,
,,"[""comma""]",0,[0.2328000000000543],30,0,30,0,1,5b98223fbdb1df0001f1e684,36,Mężczyzna,2022-06-04_08h31.32.902,task,2021.1.4,Win32,37.60953778,628b806c463b948bc644b84f,629afbdf26540dbd3360365e,,,,,,,,,,,,,,,,,,,,,,,,,,,,,,,,,,,,,,,,,,,,,,,,,,,,,,,,,,,,,,,,,,,,,,,,,,,,,,,,,,,,,,,,,,,,,,,,,,,,,,,
,,"[""period""]",0,[0.25130000000004316],31,0,31,0,1,5b98223fbdb1df0001f1e684,36,Mężczyzna,2022-06-04_08h31.32.902,task,2021.1.4,Win32,37.60953778,628b806c463b948bc644b84f,629afbdf26540dbd3360365e,,,,,,,,,,,,,,,,,,,,,,,,,,,,,,,,,,,,,,,,,,,,,,,,,,,,,,,,,,,,,,,,,,,,,,,,,,,,,,,,,,,,,,,,,,,,,,,,,,,,,,,
,,"[""comma"",""comma""]",0,"[0.2602999999998019,1.9232999999998128]",32,0,32,0,1,5b98223fbdb1df0001f1e684,36,Mężczyzna,2022-06-04_08h31.32.902,task,2021.1.4,Win32,37.60953778,628b806c463b948bc644b84f,629afbdf26540dbd3360365e,,,,,,,,,,,,,,,,,,,,,,,,,,,,,,,,,,,,,,,,,,,,,,,,,,,,,,,,,,,,,,,,,,,,,,,,,,,,,,,,,,,,,,,,,,,,,,,,,,,,,,,
,,,0,,33,0,33,0,1,5b98223fbdb1df0001f1e684,36,Mężczyzna,2022-06-04_08h31.32.902,task,2021.1.4,Win32,37.60953778,628b806c463b948bc644b84f,629afbdf26540dbd3360365e,,,,,,,,,,,,,,,,,,,,,,,,,,,,,,,,,,,,,,,,,,,,,,,,,,,,,,,,,,,,,,,,,,,,,,,,,,,,,,,,,,,,,,,,,,,,,,,,,,,,,,,
,,"[""comma""]",0,[0.025300000000044065],34,0,34,0,1,5b98223fbdb1df0001f1e684,36,Mężczyzna,2022-06-04_08h31.32.902,task,2021.1.4,Win32,37.60953778,628b806c463b948bc644b84f,629afbdf26540dbd3360365e,,,,,,,,,,,,,,,,,,,,,,,,,,,,,,,,,,,,,,,,,,,,,,,,,,,,,,,,,,,,,,,,,,,,,,,,,,,,,,,,,,,,,,,,,,,,,,,,,,,,,,,
,,"[""period""]",0,[0.23120000000020013],35,0,35,0,1,5b98223fbdb1df0001f1e684,36,Mężczyzna,2022-06-04_08h31.32.902,task,2021.1.4,Win32,37.60953778,628b806c463b948bc644b84f,629afbdf26540dbd3360365e,,,,,,,,,,,,,,,,,,,,,,,,,,,,,,,,,,,,,,,,,,,,,,,,,,,,,,,,,,,,,,,,,,,,,,,,,,,,,,,,,,,,,,,,,,,,,,,,,,,,,,,
,,"[""comma""]",0,[0.26580000000004134],36,0,36,0,1,5b98223fbdb1df0001f1e684,36,Mężczyzna,2022-06-04_08h31.32.902,task,2021.1.4,Win32,37.60953778,628b806c463b948bc644b84f,629afbdf26540dbd3360365e,,,,,,,,,,,,,,,,,,,,,,,,,,,,,,,,,,,,,,,,,,,,,,,,,,,,,,,,,,,,,,,,,,,,,,,,,,,,,,,,,,,,,,,,,,,,,,,,,,,,,,,
,,"[""period""]",0,[0.2402999999998201],37,0,37,0,1,5b98223fbdb1df0001f1e684,36,Mężczyzna,2022-06-04_08h31.32.902,task,2021.1.4,Win32,37.60953778,628b806c463b948bc644b84f,629afbdf26540dbd3360365e,,,,,,,,,,,,,,,,,,,,,,,,,,,,,,,,,,,,,,,,,,,,,,,,,,,,,,,,,,,,,,,,,,,,,,,,,,,,,,,,,,,,,,,,,,,,,,,,,,,,,,,
,,"[""comma""]",0,[0.1909000000001413],38,0,38,0,1,5b98223fbdb1df0001f1e684,36,Mężczyzna,2022-06-04_08h31.32.902,task,2021.1.4,Win32,37.60953778,628b806c463b948bc644b84f,629afbdf26540dbd3360365e,,,,,,,,,,,,,,,,,,,,,,,,,,,,,,,,,,,,,,,,,,,,,,,,,,,,,,,,,,,,,,,,,,,,,,,,,,,,,,,,,,,,,,,,,,,,,,,,,,,,,,,
,,"[""period""]",0,[0.24779999999981328],39,0,39,0,1,5b98223fbdb1df0001f1e684,36,Mężczyzna,2022-06-04_08h31.32.902,task,2021.1.4,Win32,37.60953778,628b806c463b948bc644b84f,629afbdf26540dbd3360365e,,,,,,,,,,,,,,,,,,,,,,,,,,,,,,,,,,,,,,,,,,,,,,,,,,,,,,,,,,,,,,,,,,,,,,,,,,,,,,,,,,,,,,,,,,,,,,,,,,,,,,,
,,"[""period""]",0,[0.4206000000000927],40,0,40,0,1,5b98223fbdb1df0001f1e684,36,Mężczyzna,2022-06-04_08h31.32.902,task,2021.1.4,Win32,37.60953778,628b806c463b948bc644b84f,629afbdf26540dbd3360365e,,,,,,,,,,,,,,,,,,,,,,,,,,,,,,,,,,,,,,,,,,,,,,,,,,,,,,,,,,,,,,,,,,,,,,,,,,,,,,,,,,,,,,,,,,,,,,,,,,,,,,,
,,"[""comma"",""comma""]",0,"[0.2256000000000995,1.9579999999999984]",41,0,41,0,1,5b98223fbdb1df0001f1e684,36,Mężczyzna,2022-06-04_08h31.32.902,task,2021.1.4,Win32,37.60953778,628b806c463b948bc644b84f,629afbdf26540dbd3360365e,,,,,,,,,,,,,,,,,,,,,,,,,,,,,,,,,,,,,,,,,,,,,,,,,,,,,,,,,,,,,,,,,,,,,,,,,,,,,,,,,,,,,,,,,,,,,,,,,,,,,,,
,,,0,,42,0,42,0,1,5b98223fbdb1df0001f1e684,36,Mężczyzna,2022-06-04_08h31.32.902,task,2021.1.4,Win32,37.60953778,628b806c463b948bc644b84f,629afbdf26540dbd3360365e,,,,,,,,,,,,,,,,,,,,,,,,,,,,,,,,,,,,,,,,,,,,,,,,,,,,,,,,,,,,,,,,,,,,,,,,,,,,,,,,,,,,,,,,,,,,,,,,,,,,,,,
,,"[""period""]",0,[0.22940000000011196],43,0,43,0,1,5b98223fbdb1df0001f1e684,36,Mężczyzna,2022-06-04_08h31.32.902,task,2021.1.4,Win32,37.60953778,628b806c463b948bc644b84f,629afbdf26540dbd3360365e,,,,,,,,,,,,,,,,,,,,,,,,,,,,,,,,,,,,,,,,,,,,,,,,,,,,,,,,,,,,,,,,,,,,,,,,,,,,,,,,,,,,,,,,,,,,,,,,,,,,,,,
,,"[""comma""]",0,[0.21019999999992933],44,0,44,0,1,5b98223fbdb1df0001f1e684,36,Mężczyzna,2022-06-04_08h31.32.902,task,2021.1.4,Win32,37.60953778,628b806c463b948bc644b84f,629afbdf26540dbd3360365e,,,,,,,,,,,,,,,,,,,,,,,,,,,,,,,,,,,,,,,,,,,,,,,,,,,,,,,,,,,,,,,,,,,,,,,,,,,,,,,,,,,,,,,,,,,,,,,,,,,,,,,
,,"[""comma""]",0,[0.26130000000003406],45,0,45,0,1,5b98223fbdb1df0001f1e684,36,Mężczyzna,2022-06-04_08h31.32.902,task,2021.1.4,Win32,37.60953778,628b806c463b948bc644b84f,629afbdf26540dbd3360365e,,,,,,,,,,,,,,,,,,,,,,,,,,,,,,,,,,,,,,,,,,,,,,,,,,,,,,,,,,,,,,,,,,,,,,,,,,,,,,,,,,,,,,,,,,,,,,,,,,,,,,,
,,"[""period""]",0,[0.26219999999995025],46,0,46,0,1,5b98223fbdb1df0001f1e684,36,Mężczyzna,2022-06-04_08h31.32.902,task,2021.1.4,Win32,37.60953778,628b806c463b948bc644b84f,629afbdf26540dbd3360365e,,,,,,,,,,,,,,,,,,,,,,,,,,,,,,,,,,,,,,,,,,,,,,,,,,,,,,,,,,,,,,,,,,,,,,,,,,,,,,,,,,,,,,,,,,,,,,,,,,,,,,,
,,"[""comma""]",0,[0.18029999999981783],47,0,47,0,1,5b98223fbdb1df0001f1e684,36,Mężczyzna,2022-06-04_08h31.32.902,task,2021.1.4,Win32,37.60953778,628b806c463b948bc644b84f,629afbdf26540dbd3360365e,,,,,,,,,,,,,,,,,,,,,,,,,,,,,,,,,,,,,,,,,,,,,,,,,,,,,,,,,,,,,,,,,,,,,,,,,,,,,,,,,,,,,,,,,,,,,,,,,,,,,,,
,,"[""period""]",0,[0.25810000000006994],48,0,48,0,1,5b98223fbdb1df0001f1e684,36,Mężczyzna,2022-06-04_08h31.32.902,task,2021.1.4,Win32,37.60953778,628b806c463b948bc644b84f,629afbdf26540dbd3360365e,,,,,,,,,,,,,,,,,,,,,,,,,,,,,,,,,,,,,,,,,,,,,,,,,,,,,,,,,,,,,,,,,,,,,,,,,,,,,,,,,,,,,,,,,,,,,,,,,,,,,,,
,,"[""comma""]",0,[0.24360000000010018],49,0,49,0,1,5b98223fbdb1df0001f1e684,36,Mężczyzna,2022-06-04_08h31.32.902,task,2021.1.4,Win32,37.60953778,628b806c463b948bc644b84f,629afbdf26540dbd3360365e,,,,,,,,,,,,,,,,,,,,,,,,,,,,,,,,,,,,,,,,,,,,,,,,,,,,,,,,,,,,,,,,,,,,,,,,,,,,,,,,,,,,,,,,,,,,,,,,,,,,,,,
,,"[""comma""]",0,[0.09990000000016153],50,0,50,0,1,5b98223fbdb1df0001f1e684,36,Mężczyzna,2022-06-04_08h31.32.902,task,2021.1.4,Win32,37.60953778,628b806c463b948bc644b84f,629afbdf26540dbd3360365e,,,,,,,,,,,,,,,,,,,,,,,,,,,,,,,,,,,,,,,,,,,,,,,,,,,,,,,,,,,,,,,,,,,,,,,,,,,,,,,,,,,,,,,,,,,,,,,,,,,,,,,
,,"[""period""]",0,[0.215399999999903],51,0,51,0,1,5b98223fbdb1df0001f1e684,36,Mężczyzna,2022-06-04_08h31.32.902,task,2021.1.4,Win32,37.60953778,628b806c463b948bc644b84f,629afbdf26540dbd3360365e,,,,,,,,,,,,,,,,,,,,,,,,,,,,,,,,,,,,,,,,,,,,,,,,,,,,,,,,,,,,,,,,,,,,,,,,,,,,,,,,,,,,,,,,,,,,,,,,,,,,,,,
,,"[""comma""]",0,[0.19269999999997367],52,0,52,0,1,5b98223fbdb1df0001f1e684,36,Mężczyzna,2022-06-04_08h31.32.902,task,2021.1.4,Win32,37.60953778,628b806c463b948bc644b84f,629afbdf26540dbd3360365e,,,,,,,,,,,,,,,,,,,,,,,,,,,,,,,,,,,,,,,,,,,,,,,,,,,,,,,,,,,,,,,,,,,,,,,,,,,,,,,,,,,,,,,,,,,,,,,,,,,,,,,
,,"[""comma""]",0,[-0.02940000000015175],53,0,53,0,1,5b98223fbdb1df0001f1e684,36,Mężczyzna,2022-06-04_08h31.32.902,task,2021.1.4,Win32,37.60953778,628b806c463b948bc644b84f,629afbdf26540dbd3360365e,,,,,,,,,,,,,,,,,,,,,,,,,,,,,,,,,,,,,,,,,,,,,,,,,,,,,,,,,,,,,,,,,,,,,,,,,,,,,,,,,,,,,,,,,,,,,,,,,,,,,,,
,,"[""period""]",0,[0.23400000000000887],54,0,54,0,1,5b98223fbdb1df0001f1e684,36,Mężczyzna,2022-06-04_08h31.32.902,task,2021.1.4,Win32,37.60953778,628b806c463b948bc644b84f,629afbdf26540dbd3360365e,,,,,,,,,,,,,,,,,,,,,,,,,,,,,,,,,,,,,,,,,,,,,,,,,,,,,,,,,,,,,,,,,,,,,,,,,,,,,,,,,,,,,,,,,,,,,,,,,,,,,,,
,,"[""comma""]",0,[0.24180000000006885],55,0,55,0,1,5b98223fbdb1df0001f1e684,36,Mężczyzna,2022-06-04_08h31.32.902,task,2021.1.4,Win32,37.60953778,628b806c463b948bc644b84f,629afbdf26540dbd3360365e,,,,,,,,,,,,,,,,,,,,,,,,,,,,,,,,,,,,,,,,,,,,,,,,,,,,,,,,,,,,,,,,,,,,,,,,,,,,,,,,,,,,,,,,,,,,,,,,,,,,,,,
,,"[""period""]",0,[0.2154999999999916],56,0,56,0,1,5b98223fbdb1df0001f1e684,36,Mężczyzna,2022-06-04_08h31.32.902,task,2021.1.4,Win32,37.60953778,628b806c463b948bc644b84f,629afbdf26540dbd3360365e,,,,,,,,,,,,,,,,,,,,,,,,,,,,,,,,,,,,,,,,,,,,,,,,,,,,,,,,,,,,,,,,,,,,,,,,,,,,,,,,,,,,,,,,,,,,,,,,,,,,,,,
,,"[""period""]",0,[0.23569999999995161],57,0,57,0,1,5b98223fbdb1df0001f1e684,36,Mężczyzna,2022-06-04_08h31.32.902,task,2021.1.4,Win32,37.60953778,628b806c463b948bc644b84f,629afbdf26540dbd3360365e,,,,,,,,,,,,,,,,,,,,,,,,,,,,,,,,,,,,,,,,,,,,,,,,,,,,,,,,,,,,,,,,,,,,,,,,,,,,,,,,,,,,,,,,,,,,,,,,,,,,,,,
,,"[""period""]",0,[0.25390000000012947],58,0,58,0,1,5b98223fbdb1df0001f1e684,36,Mężczyzna,2022-06-04_08h31.32.902,task,2021.1.4,Win32,37.60953778,628b806c463b948bc644b84f,629afbdf26540dbd3360365e,,,,,,,,,,,,,,,,,,,,,,,,,,,,,,,,,,,,,,,,,,,,,,,,,,,,,,,,,,,,,,,,,,,,,,,,,,,,,,,,,,,,,,,,,,,,,,,,,,,,,,,
,,"[""comma""]",0,[0.23480000000003542],59,0,59,0,1,5b98223fbdb1df0001f1e684,36,Mężczyzna,2022-06-04_08h31.32.902,task,2021.1.4,Win32,37.60953778,628b806c463b948bc644b84f,629afbdf26540dbd3360365e,,,,,,,,,,,,,,,,,,,,,,,,,,,,,,,,,,,,,,,,,,,,,,,,,,,,,,,,,,,,,,,,,,,,,,,,,,,,,,,,,,,,,,,,,,,,,,,,,,,,,,,
,,"[""period""]",0,[0.23410000000012587],60,0,60,0,1,5b98223fbdb1df0001f1e684,36,Mężczyzna,2022-06-04_08h31.32.902,task,2021.1.4,Win32,37.60953778,628b806c463b948bc644b84f,629afbdf26540dbd3360365e,,,,,,,,,,,,,,,,,,,,,,,,,,,,,,,,,,,,,,,,,,,,,,,,,,,,,,,,,,,,,,,,,,,,,,,,,,,,,,,,,,,,,,,,,,,,,,,,,,,,,,,
,,"[""comma""]",0,[0.2440000000000282],61,0,61,0,1,5b98223fbdb1df0001f1e684,36,Mężczyzna,2022-06-04_08h31.32.902,task,2021.1.4,Win32,37.60953778,628b806c463b948bc644b84f,629afbdf26540dbd3360365e,,,,,,,,,,,,,,,,,,,,,,,,,,,,,,,,,,,,,,,,,,,,,,,,,,,,,,,,,,,,,,,,,,,,,,,,,,,,,,,,,,,,,,,,,,,,,,,,,,,,,,,
,,"[""comma""]",0,[0.2195000000000391],62,0,62,0,1,5b98223fbdb1df0001f1e684,36,Mężczyzna,2022-06-04_08h31.32.902,task,2021.1.4,Win32,37.60953778,628b806c463b948bc644b84f,629afbdf26540dbd3360365e,,,,,,,,,,,,,,,,,,,,,,,,,,,,,,,,,,,,,,,,,,,,,,,,,,,,,,,,,,,,,,,,,,,,,,,,,,,,,,,,,,,,,,,,,,,,,,,,,,,,,,,
,,"[""period""]",0,[0.20350000000001955],63,0,63,0,1,5b98223fbdb1df0001f1e684,36,Mężczyzna,2022-06-04_08h31.32.902,task,2021.1.4,Win32,37.60953778,628b806c463b948bc644b84f,629afbdf26540dbd3360365e,,,,,,,,,,,,,,,,,,,,,,,,,,,,,,,,,,,,,,,,,,,,,,,,,,,,,,,,,,,,,,,,,,,,,,,,,,,,,,,,,,,,,,,,,,,,,,,,,,,,,,,
,,"[""period"",""period""]",0,"[0.21600000000000819,1.9320000000000164]",64,0,64,0,1,5b98223fbdb1df0001f1e684,36,Mężczyzna,2022-06-04_08h31.32.902,task,2021.1.4,Win32,37.60953778,628b806c463b948bc644b84f,629afbdf26540dbd3360365e,,,,,,,,,,,,,,,,,,,,,,,,,,,,,,,,,,,,,,,,,,,,,,,,,,,,,,,,,,,,,,,,,,,,,,,,,,,,,,,,,,,,,,,,,,,,,,,,,,,,,,,
,,,0,,65,0,65,0,1,5b98223fbdb1df0001f1e684,36,Mężczyzna,2022-06-04_08h31.32.902,task,2021.1.4,Win32,37.60953778,628b806c463b948bc644b84f,629afbdf26540dbd3360365e,,,,,,,,,,,,,,,,,,,,,,,,,,,,,,,,,,,,,,,,,,,,,,,,,,,,,,,,,,,,,,,,,,,,,,,,,,,,,,,,,,,,,,,,,,,,,,,,,,,,,,,
,,"[""comma"",""period""]",0,"[0.00759999999985439,1.91569999999993]",66,0,66,0,1,5b98223fbdb1df0001f1e684,36,Mężczyzna,2022-06-04_08h31.32.902,task,2021.1.4,Win32,37.60953778,628b806c463b948bc644b84f,629afbdf26540dbd3360365e,,,,,,,,,,,,,,,,,,,,,,,,,,,,,,,,,,,,,,,,,,,,,,,,,,,,,,,,,,,,,,,,,,,,,,,,,,,,,,,,,,,,,,,,,,,,,,,,,,,,,,,
,,,0,,67,0,67,0,1,5b98223fbdb1df0001f1e684,36,Mężczyzna,2022-06-04_08h31.32.902,task,2021.1.4,Win32,37.60953778,628b806c463b948bc644b84f,629afbdf26540dbd3360365e,,,,,,,,,,,,,,,,,,,,,,,,,,,,,,,,,,,,,,,,,,,,,,,,,,,,,,,,,,,,,,,,,,,,,,,,,,,,,,,,,,,,,,,,,,,,,,,,,,,,,,,
,,"[""comma""]",0,[0.26159999999981665],68,0,68,0,1,5b98223fbdb1df0001f1e684,36,Mężczyzna,2022-06-04_08h31.32.902,task,2021.1.4,Win32,37.60953778,628b806c463b948bc644b84f,629afbdf26540dbd3360365e,,,,,,,,,,,,,,,,,,,,,,,,,,,,,,,,,,,,,,,,,,,,,,,,,,,,,,,,,,,,,,,,,,,,,,,,,,,,,,,,,,,,,,,,,,,,,,,,,,,,,,,
,,"[""comma""]",0,[0.2154000000001588],69,0,69,0,1,5b98223fbdb1df0001f1e684,36,Mężczyzna,2022-06-04_08h31.32.902,task,2021.1.4,Win32,37.60953778,628b806c463b948bc644b84f,629afbdf26540dbd3360365e,,,,,,,,,,,,,,,,,,,,,,,,,,,,,,,,,,,,,,,,,,,,,,,,,,,,,,,,,,,,,,,,,,,,,,,,,,,,,,,,,,,,,,,,,,,,,,,,,,,,,,,
,,"[""period""]",0,[0.24409999999983256],70,0,70,0,1,5b98223fbdb1df0001f1e684,36,Mężczyzna,2022-06-04_08h31.32.902,task,2021.1.4,Win32,37.60953778,628b806c463b948bc644b84f,629afbdf26540dbd3360365e,,,,,,,,,,,,,,,,,,,,,,,,,,,,,,,,,,,,,,,,,,,,,,,,,,,,,,,,,,,,,,,,,,,,,,,,,,,,,,,,,,,,,,,,,,,,,,,,,,,,,,,
,,"[""comma""]",0,[0.22749999999996362],71,0,71,0,1,5b98223fbdb1df0001f1e684,36,Mężczyzna,2022-06-04_08h31.32.902,task,2021.1.4,Win32,37.60953778,628b806c463b948bc644b84f,629afbdf26540dbd3360365e,,,,,,,,,,,,,,,,,,,,,,,,,,,,,,,,,,,,,,,,,,,,,,,,,,,,,,,,,,,,,,,,,,,,,,,,,,,,,,,,,,,,,,,,,,,,,,,,,,,,,,,
,,"[""period""]",0,[-0.031600000000139516],72,0,72,0,1,5b98223fbdb1df0001f1e684,36,Mężczyzna,2022-06-04_08h31.32.902,task,2021.1.4,Win32,37.60953778,628b806c463b948bc644b84f,629afbdf26540dbd3360365e,,,,,,,,,,,,,,,,,,,,,,,,,,,,,,,,,,,,,,,,,,,,,,,,,,,,,,,,,,,,,,,,,,,,,,,,,,,,,,,,,,,,,,,,,,,,,,,,,,,,,,,
,,"[""comma""]",0,[0.025600000000110867],73,0,73,0,1,5b98223fbdb1df0001f1e684,36,Mężczyzna,2022-06-04_08h31.32.902,task,2021.1.4,Win32,37.60953778,628b806c463b948bc644b84f,629afbdf26540dbd3360365e,,,,,,,,,,,,,,,,,,,,,,,,,,,,,,,,,,,,,,,,,,,,,,,,,,,,,,,,,,,,,,,,,,,,,,,,,,,,,,,,,,,,,,,,,,,,,,,,,,,,,,,
,,"[""comma""]",0,[0.23670000000015534],74,0,74,0,1,5b98223fbdb1df0001f1e684,36,Mężczyzna,2022-06-04_08h31.32.902,task,2021.1.4,Win32,37.60953778,628b806c463b948bc644b84f,629afbdf26540dbd3360365e,,,,,,,,,,,,,,,,,,,,,,,,,,,,,,,,,,,,,,,,,,,,,,,,,,,,,,,,,,,,,,,,,,,,,,,,,,,,,,,,,,,,,,,,,,,,,,,,,,,,,,,
,,"[""period""]",0,[0.37590000000011514],75,0,75,0,1,5b98223fbdb1df0001f1e684,36,Mężczyzna,2022-06-04_08h31.32.902,task,2021.1.4,Win32,37.60953778,628b806c463b948bc644b84f,629afbdf26540dbd3360365e,,,,,,,,,,,,,,,,,,,,,,,,,,,,,,,,,,,,,,,,,,,,,,,,,,,,,,,,,,,,,,,,,,,,,,,,,,,,,,,,,,,,,,,,,,,,,,,,,,,,,,,
,,"[""comma""]",0,[0.2811000000000945],76,0,76,0,1,5b98223fbdb1df0001f1e684,36,Mężczyzna,2022-06-04_08h31.32.902,task,2021.1.4,Win32,37.60953778,628b806c463b948bc644b84f,629afbdf26540dbd3360365e,,,,,,,,,,,,,,,,,,,,,,,,,,,,,,,,,,,,,,,,,,,,,,,,,,,,,,,,,,,,,,,,,,,,,,,,,,,,,,,,,,,,,,,,,,,,,,,,,,,,,,,
,,"[""comma""]",0,[0.23740000000015016],77,0,77,0,1,5b98223fbdb1df0001f1e684,36,Mężczyzna,2022-06-04_08h31.32.902,task,2021.1.4,Win32,37.60953778,628b806c463b948bc644b84f,629afbdf26540dbd3360365e,,,,,,,,,,,,,,,,,,,,,,,,,,,,,,,,,,,,,,,,,,,,,,,,,,,,,,,,,,,,,,,,,,,,,,,,,,,,,,,,,,,,,,,,,,,,,,,,,,,,,,,
,,"[""period""]",0,[0.27080000000000837],78,0,78,0,1,5b98223fbdb1df0001f1e684,36,Mężczyzna,2022-06-04_08h31.32.902,task,2021.1.4,Win32,37.60953778,628b806c463b948bc644b84f,629afbdf26540dbd3360365e,,,,,,,,,,,,,,,,,,,,,,,,,,,,,,,,,,,,,,,,,,,,,,,,,,,,,,,,,,,,,,,,,,,,,,,,,,,,,,,,,,,,,,,,,,,,,,,,,,,,,,,
,,"[""comma""]",0,[0.2366999999999848],79,0,79,0,1,5b98223fbdb1df0001f1e684,36,Mężczyzna,2022-06-04_08h31.32.902,task,2021.1.4,Win32,37.60953778,628b806c463b948bc644b84f,629afbdf26540dbd3360365e,,,,,,,,,,,,,,,,,,,,,,,,,,,,,,,,,,,,,,,,,,,,,,,,,,,,,,,,,,,,,,,,,,,,,,,,,,,,,,,,,,,,,,,,,,,,,,,,,,,,,,,
,,"[""period""]",0,[0.0021999999999593456],80,0,80,0,1,5b98223fbdb1df0001f1e684,36,Mężczyzna,2022-06-04_08h31.32.902,task,2021.1.4,Win32,37.60953778,628b806c463b948bc644b84f,629afbdf26540dbd3360365e,,,,,,,,,,,,,,,,,,,,,,,,,,,,,,,,,,,,,,,,,,,,,,,,,,,,,,,,,,,,,,,,,,,,,,,,,,,,,,,,,,,,,,,,,,,,,,,,,,,,,,,
,,"[""comma""]",0,[0.23890000000017153],81,0,81,0,1,5b98223fbdb1df0001f1e684,36,Mężczyzna,2022-06-04_08h31.32.902,task,2021.1.4,Win32,37.60953778,628b806c463b948bc644b84f,629afbdf26540dbd3360365e,,,,,,,,,,,,,,,,,,,,,,,,,,,,,,,,,,,,,,,,,,,,,,,,,,,,,,,,,,,,,,,,,,,,,,,,,,,,,,,,,,,,,,,,,,,,,,,,,,,,,,,
,,"[""comma""]",0,[0.2465999999998303],82,0,82,0,1,5b98223fbdb1df0001f1e684,36,Mężczyzna,2022-06-04_08h31.32.902,task,2021.1.4,Win32,37.60953778,628b806c463b948bc644b84f,629afbdf26540dbd3360365e,,,,,,,,,,,,,,,,,,,,,,,,,,,,,,,,,,,,,,,,,,,,,,,,,,,,,,,,,,,,,,,,,,,,,,,,,,,,,,,,,,,,,,,,,,,,,,,,,,,,,,,
,,"[""period""]",0,[0.2114000000001397],83,0,83,0,1,5b98223fbdb1df0001f1e684,36,Mężczyzna,2022-06-04_08h31.32.902,task,2021.1.4,Win32,37.60953778,628b806c463b948bc644b84f,629afbdf26540dbd3360365e,,,,,,,,,,,,,,,,,,,,,,,,,,,,,,,,,,,,,,,,,,,,,,,,,,,,,,,,,,,,,,,,,,,,,,,,,,,,,,,,,,,,,,,,,,,,,,,,,,,,,,,
,,"[""comma""]",0,[0.2876000000000545],84,0,84,0,1,5b98223fbdb1df0001f1e684,36,Mężczyzna,2022-06-04_08h31.32.902,task,2021.1.4,Win32,37.60953778,628b806c463b948bc644b84f,629afbdf26540dbd3360365e,,,,,,,,,,,,,,,,,,,,,,,,,,,,,,,,,,,,,,,,,,,,,,,,,,,,,,,,,,,,,,,,,,,,,,,,,,,,,,,,,,,,,,,,,,,,,,,,,,,,,,,
,,"[""period""]",0,[0.3088000000000193],85,0,85,0,1,5b98223fbdb1df0001f1e684,36,Mężczyzna,2022-06-04_08h31.32.902,task,2021.1.4,Win32,37.60953778,628b806c463b948bc644b84f,629afbdf26540dbd3360365e,,,,,,,,,,,,,,,,,,,,,,,,,,,,,,,,,,,,,,,,,,,,,,,,,,,,,,,,,,,,,,,,,,,,,,,,,,,,,,,,,,,,,,,,,,,,,,,,,,,,,,,
,,"[""comma""]",0,[0.2459999999999809],86,0,86,0,1,5b98223fbdb1df0001f1e684,36,Mężczyzna,2022-06-04_08h31.32.902,task,2021.1.4,Win32,37.60953778,628b806c463b948bc644b84f,629afbdf26540dbd3360365e,,,,,,,,,,,,,,,,,,,,,,,,,,,,,,,,,,,,,,,,,,,,,,,,,,,,,,,,,,,,,,,,,,,,,,,,,,,,,,,,,,,,,,,,,,,,,,,,,,,,,,,
,,"[""period""]",0,[0.1743000000000734],87,0,87,0,1,5b98223fbdb1df0001f1e684,36,Mężczyzna,2022-06-04_08h31.32.902,task,2021.1.4,Win32,37.60953778,628b806c463b948bc644b84f,629afbdf26540dbd3360365e,,,,,,,,,,,,,,,,,,,,,,,,,,,,,,,,,,,,,,,,,,,,,,,,,,,,,,,,,,,,,,,,,,,,,,,,,,,,,,,,,,,,,,,,,,,,,,,,,,,,,,,
,,"[""comma""]",0,[0.26679999999981874],88,0,88,0,1,5b98223fbdb1df0001f1e684,36,Mężczyzna,2022-06-04_08h31.32.902,task,2021.1.4,Win32,37.60953778,628b806c463b948bc644b84f,629afbdf26540dbd3360365e,,,,,,,,,,,,,,,,,,,,,,,,,,,,,,,,,,,,,,,,,,,,,,,,,,,,,,,,,,,,,,,,,,,,,,,,,,,,,,,,,,,,,,,,,,,,,,,,,,,,,,,
,,"[""comma""]",0,[0.2674000000001229],89,0,89,0,1,5b98223fbdb1df0001f1e684,36,Mężczyzna,2022-06-04_08h31.32.902,task,2021.1.4,Win32,37.60953778,628b806c463b948bc644b84f,629afbdf26540dbd3360365e,,,,,,,,,,,,,,,,,,,,,,,,,,,,,,,,,,,,,,,,,,,,,,,,,,,,,,,,,,,,,,,,,,,,,,,,,,,,,,,,,,,,,,,,,,,,,,,,,,,,,,,
,,"[""period""]",0,[0.21309999999982665],90,0,90,0,1,5b98223fbdb1df0001f1e684,36,Mężczyzna,2022-06-04_08h31.32.902,task,2021.1.4,Win32,37.60953778,628b806c463b948bc644b84f,629afbdf26540dbd3360365e,,,,,,,,,,,,,,,,,,,,,,,,,,,,,,,,,,,,,,,,,,,,,,,,,,,,,,,,,,,,,,,,,,,,,,,,,,,,,,,,,,,,,,,,,,,,,,,,,,,,,,,
,,"[""comma""]",0,[0.29470000000014807],91,0,91,0,1,5b98223fbdb1df0001f1e684,36,Mężczyzna,2022-06-04_08h31.32.902,task,2021.1.4,Win32,37.60953778,628b806c463b948bc644b84f,629afbdf26540dbd3360365e,,,,,,,,,,,,,,,,,,,,,,,,,,,,,,,,,,,,,,,,,,,,,,,,,,,,,,,,,,,,,,,,,,,,,,,,,,,,,,,,,,,,,,,,,,,,,,,,,,,,,,,
,,"[""period"",""period""]",0,"[0.21489999999994325,1.933499999999981]",92,0,92,0,1,5b98223fbdb1df0001f1e684,36,Mężczyzna,2022-06-04_08h31.32.902,task,2021.1.4,Win32,37.60953778,628b806c463b948bc644b84f,629afbdf26540dbd3360365e,,,,,,,,,,,,,,,,,,,,,,,,,,,,,,,,,,,,,,,,,,,,,,,,,,,,,,,,,,,,,,,,,,,,,,,,,,,,,,,,,,,,,,,,,,,,,,,,,,,,,,,
,,,0,,93,0,93,0,1,5b98223fbdb1df0001f1e684,36,Mężczyzna,2022-06-04_08h31.32.902,task,2021.1.4,Win32,37.60953778,628b806c463b948bc644b84f,629afbdf26540dbd3360365e,,,,,,,,,,,,,,,,,,,,,,,,,,,,,,,,,,,,,,,,,,,,,,,,,,,,,,,,,,,,,,,,,,,,,,,,,,,,,,,,,,,,,,,,,,,,,,,,,,,,,,,
,,"[""period""]",0,[0.17160000000012587],94,0,94,0,1,5b98223fbdb1df0001f1e684,36,Mężczyzna,2022-06-04_08h31.32.902,task,2021.1.4,Win32,37.60953778,628b806c463b948bc644b84f,629afbdf26540dbd3360365e,,,,,,,,,,,,,,,,,,,,,,,,,,,,,,,,,,,,,,,,,,,,,,,,,,,,,,,,,,,,,,,,,,,,,,,,,,,,,,,,,,,,,,,,,,,,,,,,,,,,,,,
,,"[""period""]",0,[0.23960000000005266],95,0,95,0,1,5b98223fbdb1df0001f1e684,36,Mężczyzna,2022-06-04_08h31.32.902,task,2021.1.4,Win32,37.60953778,628b806c463b948bc644b84f,629afbdf26540dbd3360365e,,,,,,,,,,,,,,,,,,,,,,,,,,,,,,,,,,,,,,,,,,,,,,,,,,,,,,,,,,,,,,,,,,,,,,,,,,,,,,,,,,,,,,,,,,,,,,,,,,,,,,,
,,"[""period""]",0,[0.2053000000000793],96,0,96,0,1,5b98223fbdb1df0001f1e684,36,Mężczyzna,2022-06-04_08h31.32.902,task,2021.1.4,Win32,37.60953778,628b806c463b948bc644b84f,629afbdf26540dbd3360365e,,,,,,,,,,,,,,,,,,,,,,,,,,,,,,,,,,,,,,,,,,,,,,,,,,,,,,,,,,,,,,,,,,,,,,,,,,,,,,,,,,,,,,,,,,,,,,,,,,,,,,,
,,"[""comma"",""period""]",0,"[0.09160000000008495,1.9411000000001195]",97,0,97,0,1,5b98223fbdb1df0001f1e684,36,Mężczyzna,2022-06-04_08h31.32.902,task,2021.1.4,Win32,37.60953778,628b806c463b948bc644b84f,629afbdf26540dbd3360365e,,,,,,,,,,,,,,,,,,,,,,,,,,,,,,,,,,,,,,,,,,,,,,,,,,,,,,,,,,,,,,,,,,,,,,,,,,,,,,,,,,,,,,,,,,,,,,,,,,,,,,,
,,"[""comma""]",0,[1.9116000000000781],98,0,98,0,1,5b98223fbdb1df0001f1e684,36,Mężczyzna,2022-06-04_08h31.32.902,task,2021.1.4,Win32,37.60953778,628b806c463b948bc644b84f,629afbdf26540dbd3360365e,,,,,,,,,,,,,,,,,,,,,,,,,,,,,,,,,,,,,,,,,,,,,,,,,,,,,,,,,,,,,,,,,,,,,,,,,,,,,,,,,,,,,,,,,,,,,,,,,,,,,,,
,,,0,,99,0,99,0,1,5b98223fbdb1df0001f1e684,36,Mężczyzna,2022-06-04_08h31.32.902,task,2021.1.4,Win32,37.60953778,628b806c463b948bc644b84f,629afbdf26540dbd3360365e,,,,,,,,,,,,,,,,,,,,,,,,,,,,,,,,,,,,,,,,,,,,,,,,,,,,,,,,,,,,,,,,,,,,,,,,,,,,,,,,,,,,,,,,,,,,,,,,,,,,,,,
,,"[""comma""]",0,[0.04809999999986303],100,0,100,0,1,5b98223fbdb1df0001f1e684,36,Mężczyzna,2022-06-04_08h31.32.902,task,2021.1.4,Win32,37.60953778,628b806c463b948bc644b84f,629afbdf26540dbd3360365e,,,,,,,,,,,,,,,,,,,,,,,,,,,,,,,,,,,,,,,,,,,,,,,,,,,,,,,,,,,,,,,,,,,,,,,,,,,,,,,,,,,,,,,,,,,,,,,,,,,,,,,
,,"[""period""]",0,[0.24160000000011905],101,0,101,0,1,5b98223fbdb1df0001f1e684,36,Mężczyzna,2022-06-04_08h31.32.902,task,2021.1.4,Win32,37.60953778,628b806c463b948bc644b84f,629afbdf26540dbd3360365e,,,,,,,,,,,,,,,,,,,,,,,,,,,,,,,,,,,,,,,,,,,,,,,,,,,,,,,,,,,,,,,,,,,,,,,,,,,,,,,,,,,,,,,,,,,,,,,,,,,,,,,
,,"[""comma""]",0,[0.2814000000001329],102,0,102,0,1,5b98223fbdb1df0001f1e684,36,Mężczyzna,2022-06-04_08h31.32.902,task,2021.1.4,Win32,37.60953778,628b806c463b948bc644b84f,629afbdf26540dbd3360365e,,,,,,,,,,,,,,,,,,,,,,,,,,,,,,,,,,,,,,,,,,,,,,,,,,,,,,,,,,,,,,,,,,,,,,,,,,,,,,,,,,,,,,,,,,,,,,,,,,,,,,,
,,"[""period""]",0,[0.25510000000008404],103,0,103,0,1,5b98223fbdb1df0001f1e684,36,Mężczyzna,2022-06-04_08h31.32.902,task,2021.1.4,Win32,37.60953778,628b806c463b948bc644b84f,629afbdf26540dbd3360365e,,,,,,,,,,,,,,,,,,,,,,,,,,,,,,,,,,,,,,,,,,,,,,,,,,,,,,,,,,,,,,,,,,,,,,,,,,,,,,,,,,,,,,,,,,,,,,,,,,,,,,,
,,"[""comma""]",0,[0.23659999999989623],104,0,104,0,1,5b98223fbdb1df0001f1e684,36,Mężczyzna,2022-06-04_08h31.32.902,task,2021.1.4,Win32,37.60953778,628b806c463b948bc644b84f,629afbdf26540dbd3360365e,,,,,,,,,,,,,,,,,,,,,,,,,,,,,,,,,,,,,,,,,,,,,,,,,,,,,,,,,,,,,,,,,,,,,,,,,,,,,,,,,,,,,,,,,,,,,,,,,,,,,,,
,,"[""period""]",0,[0.25499999999999545],105,0,105,0,1,5b98223fbdb1df0001f1e684,36,Mężczyzna,2022-06-04_08h31.32.902,task,2021.1.4,Win32,37.60953778,628b806c463b948bc644b84f,629afbdf26540dbd3360365e,,,,,,,,,,,,,,,,,,,,,,,,,,,,,,,,,,,,,,,,,,,,,,,,,,,,,,,,,,,,,,,,,,,,,,,,,,,,,,,,,,,,,,,,,,,,,,,,,,,,,,,
,,"[""comma""]",0,[0.1948999999999046],106,0,106,0,1,5b98223fbdb1df0001f1e684,36,Mężczyzna,2022-06-04_08h31.32.902,task,2021.1.4,Win32,37.60953778,628b806c463b948bc644b84f,629afbdf26540dbd3360365e,,,,,,,,,,,,,,,,,,,,,,,,,,,,,,,,,,,,,,,,,,,,,,,,,,,,,,,,,,,,,,,,,,,,,,,,,,,,,,,,,,,,,,,,,,,,,,,,,,,,,,,
,,"[""period""]",0,[0.22959999999983438],107,0,107,0,1,5b98223fbdb1df0001f1e684,36,Mężczyzna,2022-06-04_08h31.32.902,task,2021.1.4,Win32,37.60953778,628b806c463b948bc644b84f,629afbdf26540dbd3360365e,,,,,,,,,,,,,,,,,,,,,,,,,,,,,,,,,,,,,,,,,,,,,,,,,,,,,,,,,,,,,,,,,,,,,,,,,,,,,,,,,,,,,,,,,,,,,,,,,,,,,,,
,,"[""period""]",0,[0.2393999999998755],108,0,108,0,1,5b98223fbdb1df0001f1e684,36,Mężczyzna,2022-06-04_08h31.32.902,task,2021.1.4,Win32,37.60953778,628b806c463b948bc644b84f,629afbdf26540dbd3360365e,,,,,,,,,,,,,,,,,,,,,,,,,,,,,,,,,,,,,,,,,,,,,,,,,,,,,,,,,,,,,,,,,,,,,,,,,,,,,,,,,,,,,,,,,,,,,,,,,,,,,,,
,,"[""comma"",""comma""]",0,"[0.07600000000002183,1.7921999999999798]",109,0,109,0,1,5b98223fbdb1df0001f1e684,36,Mężczyzna,2022-06-04_08h31.32.902,task,2021.1.4,Win32,37.60953778,628b806c463b948bc644b84f,629afbdf26540dbd3360365e,,,,,,,,,,,,,,,,,,,,,,,,,,,,,,,,,,,,,,,,,,,,,,,,,,,,,,,,,,,,,,,,,,,,,,,,,,,,,,,,,,,,,,,,,,,,,,,,,,,,,,,
,,"[""comma""]",0,[1.856399999999951],110,0,110,0,1,5b98223fbdb1df0001f1e684,36,Mężczyzna,2022-06-04_08h31.32.902,task,2021.1.4,Win32,37.60953778,628b806c463b948bc644b84f,629afbdf26540dbd3360365e,,,,,,,,,,,,,,,,,,,,,,,,,,,,,,,,,,,,,,,,,,,,,,,,,,,,,,,,,,,,,,,,,,,,,,,,,,,,,,,,,,,,,,,,,,,,,,,,,,,,,,,
,,"[""period""]",0,[1.4078999999999269],111,0,111,0,1,5b98223fbdb1df0001f1e684,36,Mężczyzna,2022-06-04_08h31.32.902,task,2021.1.4,Win32,37.60953778,628b806c463b948bc644b84f,629afbdf26540dbd3360365e,,,,,,,,,,,,,,,,,,,,,,,,,,,,,,,,,,,,,,,,,,,,,,,,,,,,,,,,,,,,,,,,,,,,,,,,,,,,,,,,,,,,,,,,,,,,,,,,,,,,,,,
,,,0,,112,0,112,0,1,5b98223fbdb1df0001f1e684,36,Mężczyzna,2022-06-04_08h31.32.902,task,2021.1.4,Win32,37.60953778,628b806c463b948bc644b84f,629afbdf26540dbd3360365e,,,,,,,,,,,,,,,,,,,,,,,,,,,,,,,,,,,,,,,,,,,,,,,,,,,,,,,,,,,,,,,,,,,,,,,,,,,,,,,,,,,,,,,,,,,,,,,,,,,,,,,
,,"[""comma""]",0,[0.16840000000013333],113,0,113,0,1,5b98223fbdb1df0001f1e684,36,Mężczyzna,2022-06-04_08h31.32.902,task,2021.1.4,Win32,37.60953778,628b806c463b948bc644b84f,629afbdf26540dbd3360365e,,,,,,,,,,,,,,,,,,,,,,,,,,,,,,,,,,,,,,,,,,,,,,,,,,,,,,,,,,,,,,,,,,,,,,,,,,,,,,,,,,,,,,,,,,,,,,,,,,,,,,,
,,"[""period""]",0,[0.2680000000000291],114,0,114,0,1,5b98223fbdb1df0001f1e684,36,Mężczyzna,2022-06-04_08h31.32.902,task,2021.1.4,Win32,37.60953778,628b806c463b948bc644b84f,629afbdf26540dbd3360365e,,,,,,,,,,,,,,,,,,,,,,,,,,,,,,,,,,,,,,,,,,,,,,,,,,,,,,,,,,,,,,,,,,,,,,,,,,,,,,,,,,,,,,,,,,,,,,,,,,,,,,,
,,"[""comma""]",0,[0.32049999999998136],115,0,115,0,1,5b98223fbdb1df0001f1e684,36,Mężczyzna,2022-06-04_08h31.32.902,task,2021.1.4,Win32,37.60953778,628b806c463b948bc644b84f,629afbdf26540dbd3360365e,,,,,,,,,,,,,,,,,,,,,,,,,,,,,,,,,,,,,,,,,,,,,,,,,,,,,,,,,,,,,,,,,,,,,,,,,,,,,,,,,,,,,,,,,,,,,,,,,,,,,,,
,,"[""period""]",0,[0.10500000000001819],116,0,116,0,1,5b98223fbdb1df0001f1e684,36,Mężczyzna,2022-06-04_08h31.32.902,task,2021.1.4,Win32,37.60953778,628b806c463b948bc644b84f,629afbdf26540dbd3360365e,,,,,,,,,,,,,,,,,,,,,,,,,,,,,,,,,,,,,,,,,,,,,,,,,,,,,,,,,,,,,,,,,,,,,,,,,,,,,,,,,,,,,,,,,,,,,,,,,,,,,,,
,,"[""comma""]",0,[0.23849999999998772],117,0,117,0,1,5b98223fbdb1df0001f1e684,36,Mężczyzna,2022-06-04_08h31.32.902,task,2021.1.4,Win32,37.60953778,628b806c463b948bc644b84f,629afbdf26540dbd3360365e,,,,,,,,,,,,,,,,,,,,,,,,,,,,,,,,,,,,,,,,,,,,,,,,,,,,,,,,,,,,,,,,,,,,,,,,,,,,,,,,,,,,,,,,,,,,,,,,,,,,,,,
,,"[""period""]",0,[0.24139999999988504],118,0,118,0,1,5b98223fbdb1df0001f1e684,36,Mężczyzna,2022-06-04_08h31.32.902,task,2021.1.4,Win32,37.60953778,628b806c463b948bc644b84f,629afbdf26540dbd3360365e,,,,,,,,,,,,,,,,,,,,,,,,,,,,,,,,,,,,,,,,,,,,,,,,,,,,,,,,,,,,,,,,,,,,,,,,,,,,,,,,,,,,,,,,,,,,,,,,,,,,,,,
,,"[""comma""]",0,[0.2659000000001015],119,0,119,0,1,5b98223fbdb1df0001f1e684,36,Mężczyzna,2022-06-04_08h31.32.902,task,2021.1.4,Win32,37.60953778,628b806c463b948bc644b84f,629afbdf26540dbd3360365e,,,,,,,,,,,,,,,,,,,,,,,,,,,,,,,,,,,,,,,,,,,,,,,,,,,,,,,,,,,,,,,,,,,,,,,,,,,,,,,,,,,,,,,,,,,,,,,,,,,,,,,
,,,,,,,,,,5b98223fbdb1df0001f1e684,36,Mężczyzna,2022-06-04_08h31.32.902,task,2021.1.4,Win32,37.60953778,628b806c463b948bc644b84f,629afbdf26540dbd3360365e,space,39.7356,space,9.3111,0,0,0,0,1,X V Q F H G B L J M P D K C T S W R N Z,,,,,,,,,,,,,,,,,,,,,,,,,,,,,,,,,,,,,,,,,,,,,,,,,,,,,,,,,,,,,,,,,,,,,,,,,,,,,,,,,,,,,,,,,,,,,
,,,,,,,,,,5b98223fbdb1df0001f1e684,36,Mężczyzna,2022-06-04_08h31.32.902,task,2021.1.4,Win32,37.60953778,628b806c463b948bc644b84f,629afbdf26540dbd3360365e,,,,,1,0,1,0,1,X V Q F H G B L J M P D K C T S W R N Z,,,,,,,,,,,,,,,,,,,,,,,,,,,,,,,,,,,,,,,,,,,,,,,,,,,,,,,,,,,,,,,,,,,,,,,,,,,,,,,,,,,,,,,,,,,,,
,,,,,,,,,,5b98223fbdb1df0001f1e684,36,Mężczyzna,2022-06-04_08h31.32.902,task,2021.1.4,Win32,37.60953778,628b806c463b948bc644b84f,629afbdf26540dbd3360365e,,,,,,,,,,,zb,"[""z"",""b""]","[2.1643000000000256,3.0433000000000447,4.13310000000007]",1,ZB,0,0,0,0,1,,,,,,,,,,,,,,,,,,,,,,,,,,,,,,,,,,,,,,,,,,,,,,,,,,,,,,,,,,,,,,,,,,,,,,,,,,,,,,,,,,,
,,,,,,,,,,5b98223fbdb1df0001f1e684,36,Mężczyzna,2022-06-04_08h31.32.902,task,2021.1.4,Win32,37.60953778,628b806c463b948bc644b84f,629afbdf26540dbd3360365e,,,,,0,0,0,0,1,X V Q F H G B L J M P D K C T S W R N Z,,,,,,,,,,,,,,,,,,,,,,,,,,,,,,,,,,,,,,,,,,,,,,,,,,,,,,,,,,,,,,,,,,,,,,,,,,,,,,,,,,,,,,,,,,,,,
,,,,,,,,,,5b98223fbdb1df0001f1e684,36,Mężczyzna,2022-06-04_08h31.32.902,task,2021.1.4,Win32,37.60953778,628b806c463b948bc644b84f,629afbdf26540dbd3360365e,,,,,1,0,1,0,1,X V Q F H G B L J M P D K C T S W R N Z,,,,,,,,,,,,,,,,,,,,,,,,,,,,,,,,,,,,,,,,,,,,,,,,,,,,,,,,,,,,,,,,,,,,,,,,,,,,,,,,,,,,,,,,,,,,,
,,,,,,,,,,5b98223fbdb1df0001f1e684,36,Mężczyzna,2022-06-04_08h31.32.902,task,2021.1.4,Win32,37.60953778,628b806c463b948bc644b84f,629afbdf26540dbd3360365e,,,,,,,,,,,zr,"[""z"",""r""]","[1.0685000000000286,4.42349999999999,5.071100000000115]",1,ZR,1,0,1,0,1,,,,,,,,,,,,,,,,,,,,,,,,,,,,,,,,,,,,,,,,,,,,,,,,,,,,,,,,,,,,,,,,,,,,,,,,,,,,,,,,,,,
,,,,,,,,,,5b98223fbdb1df0001f1e684,36,Mężczyzna,2022-06-04_08h31.32.902,task,2021.1.4,Win32,37.60953778,628b806c463b948bc644b84f,629afbdf26540dbd3360365e,,,,,0,0,0,0,1,X V Q F H G B L J M P D K C T S W R N Z,,,,,,,,,,,,,,,,,,,,,,,,,,,,,,,,,,,,,,,,,,,,,,,,,,,,,,,,,,,,,,,,,,,,,,,,,,,,,,,,,,,,,,,,,,,,,
,,,,,,,,,,5b98223fbdb1df0001f1e684,36,Mężczyzna,2022-06-04_08h31.32.902,task,2021.1.4,Win32,37.60953778,628b806c463b948bc644b84f,629afbdf26540dbd3360365e,,,,,1,0,1,0,1,X V Q F H G B L J M P D K C T S W R N Z,,,,,,,,,,,,,,,,,,,,,,,,,,,,,,,,,,,,,,,,,,,,,,,,,,,,,,,,,,,,,,,,,,,,,,,,,,,,,,,,,,,,,,,,,,,,,
,,,,,,,,,,5b98223fbdb1df0001f1e684,36,Mężczyzna,2022-06-04_08h31.32.902,task,2021.1.4,Win32,37.60953778,628b806c463b948bc644b84f,629afbdf26540dbd3360365e,,,,,2,0,2,0,1,X V Q F H G B L J M P D K C T S W R N Z,,,,,,,,,,,,,,,,,,,,,,,,,,,,,,,,,,,,,,,,,,,,,,,,,,,,,,,,,,,,,,,,,,,,,,,,,,,,,,,,,,,,,,,,,,,,,
,,,,,,,,,,5b98223fbdb1df0001f1e684,36,Mężczyzna,2022-06-04_08h31.32.902,task,2021.1.4,Win32,37.60953778,628b806c463b948bc644b84f,629afbdf26540dbd3360365e,,,,,,,,,,,hfn,"[""h"",""f"",""n""]","[1.4472999999998137,1.815099999999859,2.1673999999998728,2.593299999999772]",1,HFN,2,0,2,0,1,,,,,,,,,,,,,,,,,,,,,,,,,,,,,,,,,,,,,,,,,,,,,,,,,,,,,,,,,,,,,,,,,,,,,,,,,,,,,,,,,,,
,,,,,,,,,,5b98223fbdb1df0001f1e684,36,Mężczyzna,2022-06-04_08h31.32.902,task,2021.1.4,Win32,37.60953778,628b806c463b948bc644b84f,629afbdf26540dbd3360365e,,,,,0,0,0,0,1,X V Q F H G B L J M P D K C T S W R N Z,,,,,,,,,,,,,,,,,,,,,,,,,,,,,,,,,,,,,,,,,,,,,,,,,,,,,,,,,,,,,,,,,,,,,,,,,,,,,,,,,,,,,,,,,,,,,
,,,,,,,,,,5b98223fbdb1df0001f1e684,36,Mężczyzna,2022-06-04_08h31.32.902,task,2021.1.4,Win32,37.60953778,628b806c463b948bc644b84f,629afbdf26540dbd3360365e,,,,,1,0,1,0,1,X V Q F H G B L J M P D K C T S W R N Z,,,,,,,,,,,,,,,,,,,,,,,,,,,,,,,,,,,,,,,,,,,,,,,,,,,,,,,,,,,,,,,,,,,,,,,,,,,,,,,,,,,,,,,,,,,,,
,,,,,,,,,,5b98223fbdb1df0001f1e684,36,Mężczyzna,2022-06-04_08h31.32.902,task,2021.1.4,Win32,37.60953778,628b806c463b948bc644b84f,629afbdf26540dbd3360365e,,,,,2,0,2,0,1,X V Q F H G B L J M P D K C T S W R N Z,,,,,,,,,,,,,,,,,,,,,,,,,,,,,,,,,,,,,,,,,,,,,,,,,,,,,,,,,,,,,,,,,,,,,,,,,,,,,,,,,,,,,,,,,,,,,
,,,,,,,,,,5b98223fbdb1df0001f1e684,36,Mężczyzna,2022-06-04_08h31.32.902,task,2021.1.4,Win32,37.60953778,628b806c463b948bc644b84f,629afbdf26540dbd3360365e,,,,,,,,,,,fbz,"[""f"",""b"",""z""]","[1.1696999999999775,1.418399999999906,1.899499999999989,2.415999999999997]",1,FBZ,3,0,3,0,1,,,,,,,,,,,,,,,,,,,,,,,,,,,,,,,,,,,,,,,,,,,,,,,,,,,,,,,,,,,,,,,,,,,,,,,,,,,,,,,,,,,
,,,,,,,,,,5b98223fbdb1df0001f1e684,36,Mężczyzna,2022-06-04_08h31.32.902,task,2021.1.4,Win32,37.60953778,628b806c463b948bc644b84f,629afbdf26540dbd3360365e,,,,,0,0,0,0,1,X V Q F H G B L J M P D K C T S W R N Z,,,,,,,,,,,,,,,,,,,,,,,,,,,,,,,,,,,,,,,,,,,,,,,,,,,,,,,,,,,,,,,,,,,,,,,,,,,,,,,,,,,,,,,,,,,,,
,,,,,,,,,,5b98223fbdb1df0001f1e684,36,Mężczyzna,2022-06-04_08h31.32.902,task,2021.1.4,Win32,37.60953778,628b806c463b948bc644b84f,629afbdf26540dbd3360365e,,,,,1,0,1,0,1,X V Q F H G B L J M P D K C T S W R N Z,,,,,,,,,,,,,,,,,,,,,,,,,,,,,,,,,,,,,,,,,,,,,,,,,,,,,,,,,,,,,,,,,,,,,,,,,,,,,,,,,,,,,,,,,,,,,
,,,,,,,,,,5b98223fbdb1df0001f1e684,36,Mężczyzna,2022-06-04_08h31.32.902,task,2021.1.4,Win32,37.60953778,628b806c463b948bc644b84f,629afbdf26540dbd3360365e,,,,,2,0,2,0,1,X V Q F H G B L J M P D K C T S W R N Z,,,,,,,,,,,,,,,,,,,,,,,,,,,,,,,,,,,,,,,,,,,,,,,,,,,,,,,,,,,,,,,,,,,,,,,,,,,,,,,,,,,,,,,,,,,,,
,,,,,,,,,,5b98223fbdb1df0001f1e684,36,Mężczyzna,2022-06-04_08h31.32.902,task,2021.1.4,Win32,37.60953778,628b806c463b948bc644b84f,629afbdf26540dbd3360365e,,,,,3,0,3,0,1,X V Q F H G B L J M P D K C T S W R N Z,,,,,,,,,,,,,,,,,,,,,,,,,,,,,,,,,,,,,,,,,,,,,,,,,,,,,,,,,,,,,,,,,,,,,,,,,,,,,,,,,,,,,,,,,,,,,
,,,,,,,,,,5b98223fbdb1df0001f1e684,36,Mężczyzna,2022-06-04_08h31.32.902,task,2021.1.4,Win32,37.60953778,628b806c463b948bc644b84f,629afbdf26540dbd3360365e,,,,,,,,,,,smqk,"[""s"",""m"",""q"",""k""]","[1.066000000000031,1.400000000000034,1.6866000000001122,2.104400000000169,2.5740000000000123]",1,SMQK,4,0,4,0,1,,,,,,,,,,,,,,,,,,,,,,,,,,,,,,,,,,,,,,,,,,,,,,,,,,,,,,,,,,,,,,,,,,,,,,,,,,,,,,,,,,,
,,,,,,,,,,5b98223fbdb1df0001f1e684,36,Mężczyzna,2022-06-04_08h31.32.902,task,2021.1.4,Win32,37.60953778,628b806c463b948bc644b84f,629afbdf26540dbd3360365e,,,,,0,0,0,0,1,X V Q F H G B L J M P D K C T S W R N Z,,,,,,,,,,,,,,,,,,,,,,,,,,,,,,,,,,,,,,,,,,,,,,,,,,,,,,,,,,,,,,,,,,,,,,,,,,,,,,,,,,,,,,,,,,,,,
,,,,,,,,,,5b98223fbdb1df0001f1e684,36,Mężczyzna,2022-06-04_08h31.32.902,task,2021.1.4,Win32,37.60953778,628b806c463b948bc644b84f,629afbdf26540dbd3360365e,,,,,1,0,1,0,1,X V Q F H G B L J M P D K C T S W R N Z,,,,,,,,,,,,,,,,,,,,,,,,,,,,,,,,,,,,,,,,,,,,,,,,,,,,,,,,,,,,,,,,,,,,,,,,,,,,,,,,,,,,,,,,,,,,,
,,,,,,,,,,5b98223fbdb1df0001f1e684,36,Mężczyzna,2022-06-04_08h31.32.902,task,2021.1.4,Win32,37.60953778,628b806c463b948bc644b84f,629afbdf26540dbd3360365e,,,,,2,0,2,0,1,X V Q F H G B L J M P D K C T S W R N Z,,,,,,,,,,,,,,,,,,,,,,,,,,,,,,,,,,,,,,,,,,,,,,,,,,,,,,,,,,,,,,,,,,,,,,,,,,,,,,,,,,,,,,,,,,,,,
,,,,,,,,,,5b98223fbdb1df0001f1e684,36,Mężczyzna,2022-06-04_08h31.32.902,task,2021.1.4,Win32,37.60953778,628b806c463b948bc644b84f,629afbdf26540dbd3360365e,,,,,3,0,3,0,1,X V Q F H G B L J M P D K C T S W R N Z,,,,,,,,,,,,,,,,,,,,,,,,,,,,,,,,,,,,,,,,,,,,,,,,,,,,,,,,,,,,,,,,,,,,,,,,,,,,,,,,,,,,,,,,,,,,,
,,,,,,,,,,5b98223fbdb1df0001f1e684,36,Mężczyzna,2022-06-04_08h31.32.902,task,2021.1.4,Win32,37.60953778,628b806c463b948bc644b84f,629afbdf26540dbd3360365e,,,,,,,,,,,jlrd,"[""j"",""l"",""r"",""d""]","[0.9747000000001549,1.2329000000001429,1.508600000000115,1.6746000000001118,2.1171000000001072]",1,JLRD,5,0,5,0,1,,,,,,,,,,,,,,,,,,,,,,,,,,,,,,,,,,,,,,,,,,,,,,,,,,,,,,,,,,,,,,,,,,,,,,,,,,,,,,,,,,,
,,,,,,,,,,5b98223fbdb1df0001f1e684,36,Mężczyzna,2022-06-04_08h31.32.902,task,2021.1.4,Win32,37.60953778,628b806c463b948bc644b84f,629afbdf26540dbd3360365e,,,,,0,0,0,0,1,X V Q F H G B L J M P D K C T S W R N Z,,,,,,,,,,,,,,,,,,,,,,,,,,,,,,,,,,,,,,,,,,,,,,,,,,,,,,,,,,,,,,,,,,,,,,,,,,,,,,,,,,,,,,,,,,,,,
,,,,,,,,,,5b98223fbdb1df0001f1e684,36,Mężczyzna,2022-06-04_08h31.32.902,task,2021.1.4,Win32,37.60953778,628b806c463b948bc644b84f,629afbdf26540dbd3360365e,,,,,1,0,1,0,1,X V Q F H G B L J M P D K C T S W R N Z,,,,,,,,,,,,,,,,,,,,,,,,,,,,,,,,,,,,,,,,,,,,,,,,,,,,,,,,,,,,,,,,,,,,,,,,,,,,,,,,,,,,,,,,,,,,,
,,,,,,,,,,5b98223fbdb1df0001f1e684,36,Mężczyzna,2022-06-04_08h31.32.902,task,2021.1.4,Win32,37.60953778,628b806c463b948bc644b84f,629afbdf26540dbd3360365e,,,,,2,0,2,0,1,X V Q F H G B L J M P D K C T S W R N Z,,,,,,,,,,,,,,,,,,,,,,,,,,,,,,,,,,,,,,,,,,,,,,,,,,,,,,,,,,,,,,,,,,,,,,,,,,,,,,,,,,,,,,,,,,,,,
,,,,,,,,,,5b98223fbdb1df0001f1e684,36,Mężczyzna,2022-06-04_08h31.32.902,task,2021.1.4,Win32,37.60953778,628b806c463b948bc644b84f,629afbdf26540dbd3360365e,,,,,3,0,3,0,1,X V Q F H G B L J M P D K C T S W R N Z,,,,,,,,,,,,,,,,,,,,,,,,,,,,,,,,,,,,,,,,,,,,,,,,,,,,,,,,,,,,,,,,,,,,,,,,,,,,,,,,,,,,,,,,,,,,,
,,,,,,,,,,5b98223fbdb1df0001f1e684,36,Mężczyzna,2022-06-04_08h31.32.902,task,2021.1.4,Win32,37.60953778,628b806c463b948bc644b84f,629afbdf26540dbd3360365e,,,,,4,0,4,0,1,X V Q F H G B L J M P D K C T S W R N Z,,,,,,,,,,,,,,,,,,,,,,,,,,,,,,,,,,,,,,,,,,,,,,,,,,,,,,,,,,,,,,,,,,,,,,,,,,,,,,,,,,,,,,,,,,,,,
,,,,,,,,,,5b98223fbdb1df0001f1e684,36,Mężczyzna,2022-06-04_08h31.32.902,task,2021.1.4,Win32,37.60953778,628b806c463b948bc644b84f,629afbdf26540dbd3360365e,,,,,,,,,,,gphkt,"[""g"",""p"",""h"",""k"",""t""]","[1.3013999999999442,1.5693999999999164,2.01419999999996,2.2700999999999,2.5335000000000036,3.0015000000000214]",0,GPKHT,6,0,6,0,1,,,,,,,,,,,,,,,,,,,,,,,,,,,,,,,,,,,,,,,,,,,,,,,,,,,,,,,,,,,,,,,,,,,,,,,,,,,,,,,,,,,
,,,,,,,,,,5b98223fbdb1df0001f1e684,36,Mężczyzna,2022-06-04_08h31.32.902,task,2021.1.4,Win32,37.60953778,628b806c463b948bc644b84f,629afbdf26540dbd3360365e,,,,,0,0,0,0,1,X V Q F H G B L J M P D K C T S W R N Z,,,,,,,,,,,,,,,,,,,,,,,,,,,,,,,,,,,,,,,,,,,,,,,,,,,,,,,,,,,,,,,,,,,,,,,,,,,,,,,,,,,,,,,,,,,,,
,,,,,,,,,,5b98223fbdb1df0001f1e684,36,Mężczyzna,2022-06-04_08h31.32.902,task,2021.1.4,Win32,37.60953778,628b806c463b948bc644b84f,629afbdf26540dbd3360365e,,,,,1,0,1,0,1,X V Q F H G B L J M P D K C T S W R N Z,,,,,,,,,,,,,,,,,,,,,,,,,,,,,,,,,,,,,,,,,,,,,,,,,,,,,,,,,,,,,,,,,,,,,,,,,,,,,,,,,,,,,,,,,,,,,
,,,,,,,,,,5b98223fbdb1df0001f1e684,36,Mężczyzna,2022-06-04_08h31.32.902,task,2021.1.4,Win32,37.60953778,628b806c463b948bc644b84f,629afbdf26540dbd3360365e,,,,,2,0,2,0,1,X V Q F H G B L J M P D K C T S W R N Z,,,,,,,,,,,,,,,,,,,,,,,,,,,,,,,,,,,,,,,,,,,,,,,,,,,,,,,,,,,,,,,,,,,,,,,,,,,,,,,,,,,,,,,,,,,,,
,,,,,,,,,,5b98223fbdb1df0001f1e684,36,Mężczyzna,2022-06-04_08h31.32.902,task,2021.1.4,Win32,37.60953778,628b806c463b948bc644b84f,629afbdf26540dbd3360365e,,,,,3,0,3,0,1,X V Q F H G B L J M P D K C T S W R N Z,,,,,,,,,,,,,,,,,,,,,,,,,,,,,,,,,,,,,,,,,,,,,,,,,,,,,,,,,,,,,,,,,,,,,,,,,,,,,,,,,,,,,,,,,,,,,
,,,,,,,,,,5b98223fbdb1df0001f1e684,36,Mężczyzna,2022-06-04_08h31.32.902,task,2021.1.4,Win32,37.60953778,628b806c463b948bc644b84f,629afbdf26540dbd3360365e,,,,,4,0,4,0,1,X V Q F H G B L J M P D K C T S W R N Z,,,,,,,,,,,,,,,,,,,,,,,,,,,,,,,,,,,,,,,,,,,,,,,,,,,,,,,,,,,,,,,,,,,,,,,,,,,,,,,,,,,,,,,,,,,,,
,,,,,,,,,,5b98223fbdb1df0001f1e684,36,Mężczyzna,2022-06-04_08h31.32.902,task,2021.1.4,Win32,37.60953778,628b806c463b948bc644b84f,629afbdf26540dbd3360365e,,,,,,,,,,,xprzx,"[""x"",""p"",""r"",""z"",""x""]","[1.127599999999859,1.419099999999844,1.9177999999997724,2.3907999999997855,2.818399999999883,4.3655999999998585]",0,XRZPX,7,0,7,0,1,,,,,,,,,,,,,,,,,,,,,,,,,,,,,,,,,,,,,,,,,,,,,,,,,,,,,,,,,,,,,,,,,,,,,,,,,,,,,,,,,,,
,,,,,,,,,,5b98223fbdb1df0001f1e684,36,Mężczyzna,2022-06-04_08h31.32.902,task,2021.1.4,Win32,37.60953778,628b806c463b948bc644b84f,629afbdf26540dbd3360365e,,,,,0,0,0,0,1,X V Q F H G B L J M P D K C T S W R N Z,,,,,,,,,,,,,,,,,,,,,,,,,,,,,,,,,,,,,,,,,,,,,,,,,,,,,,,,,,,,,,,,,,,,,,,,,,,,,,,,,,,,,,,,,,,,,
,,,,,,,,,,5b98223fbdb1df0001f1e684,36,Mężczyzna,2022-06-04_08h31.32.902,task,2021.1.4,Win32,37.60953778,628b806c463b948bc644b84f,629afbdf26540dbd3360365e,,,,,1,0,1,0,1,X V Q F H G B L J M P D K C T S W R N Z,,,,,,,,,,,,,,,,,,,,,,,,,,,,,,,,,,,,,,,,,,,,,,,,,,,,,,,,,,,,,,,,,,,,,,,,,,,,,,,,,,,,,,,,,,,,,
,,,,,,,,,,5b98223fbdb1df0001f1e684,36,Mężczyzna,2022-06-04_08h31.32.902,task,2021.1.4,Win32,37.60953778,628b806c463b948bc644b84f,629afbdf26540dbd3360365e,,,,,2,0,2,0,1,X V Q F H G B L J M P D K C T S W R N Z,,,,,,,,,,,,,,,,,,,,,,,,,,,,,,,,,,,,,,,,,,,,,,,,,,,,,,,,,,,,,,,,,,,,,,,,,,,,,,,,,,,,,,,,,,,,,
,,,,,,,,,,5b98223fbdb1df0001f1e684,36,Mężczyzna,2022-06-04_08h31.32.902,task,2021.1.4,Win32,37.60953778,628b806c463b948bc644b84f,629afbdf26540dbd3360365e,,,,,3,0,3,0,1,X V Q F H G B L J M P D K C T S W R N Z,,,,,,,,,,,,,,,,,,,,,,,,,,,,,,,,,,,,,,,,,,,,,,,,,,,,,,,,,,,,,,,,,,,,,,,,,,,,,,,,,,,,,,,,,,,,,
,,,,,,,,,,5b98223fbdb1df0001f1e684,36,Mężczyzna,2022-06-04_08h31.32.902,task,2021.1.4,Win32,37.60953778,628b806c463b948bc644b84f,629afbdf26540dbd3360365e,,,,,4,0,4,0,1,X V Q F H G B L J M P D K C T S W R N Z,,,,,,,,,,,,,,,,,,,,,,,,,,,,,,,,,,,,,,,,,,,,,,,,,,,,,,,,,,,,,,,,,,,,,,,,,,,,,,,,,,,,,,,,,,,,,
,,,,,,,,,,5b98223fbdb1df0001f1e684,36,Mężczyzna,2022-06-04_08h31.32.902,task,2021.1.4,Win32,37.60953778,628b806c463b948bc644b84f,629afbdf26540dbd3360365e,,,,,,,,,,,ktkgtr,"[""k"",""t"",""k"",""g"",""t"",""r""]","[1.239500000000021,1.8256000000001222,2.493499999999983,2.8823000000000434,3.362199999999973,3.9139999999999873,5.17310000000009]",0,KTKGR,8,0,8,0,1,,,,,,,,,,,,,,,,,,,,,,,,,,,,,,,,,,,,,,,,,,,,,,,,,,,,,,,,,,,,,,,,,,,,,,,,,,,,,,,,,,,
,,,,,,,,,,5b98223fbdb1df0001f1e684,36,Mężczyzna,2022-06-04_08h31.32.902,task,2021.1.4,Win32,37.60953778,628b806c463b948bc644b84f,629afbdf26540dbd3360365e,,,,,,,,,,,,,,,,,,,,,space,9.5218,2,"[""2""]",1,[4.124300000000005],[4.124300000000005],0,0,0,2,1,Practice,3,(4x4) - 14,2,,,,,,,,,,,,,,,,,,,,,,,,,,,,,,,,,,,,,,,,,,,,,,,,,,,,,,,,,,,,,,,,,,,
,,,,,,,,,,5b98223fbdb1df0001f1e684,36,Mężczyzna,2022-06-04_08h31.32.902,task,2021.1.4,Win32,37.60953778,628b806c463b948bc644b84f,629afbdf26540dbd3360365e,,,,,,,,,,,,,,,,,,,,,,,3,"[""3""]",1,[3.483500000000049],"[4.124300000000005,3.483500000000049]",0,1,1,3,1,Practice,4,(8/4) + 1,3,,,,,,,,,,,,,,,,,,,,,,,,,,,,,,,,,,,,,,,,,,,,,,,,,,,,,,,,,,,,,,,,,,,
,,,,,,,,,,5b98223fbdb1df0001f1e684,36,Mężczyzna,2022-06-04_08h31.32.902,task,2021.1.4,Win32,37.60953778,628b806c463b948bc644b84f,629afbdf26540dbd3360365e,,,,,,,,,,,,,,,,,,,,,,,7,"[""7""]",1,[3.3903000000000247],"[4.124300000000005,3.483500000000049,3.3903000000000247]",0,2,2,7,1,Practice,8,(5x5) - 18,7,,,,,,,,,,,,,,,,,,,,,,,,,,,,,,,,,,,,,,,,,,,,,,,,,,,,,,,,,,,,,,,,,,,
,,,,,,,,,,5b98223fbdb1df0001f1e684,36,Mężczyzna,2022-06-04_08h31.32.902,task,2021.1.4,Win32,37.60953778,628b806c463b948bc644b84f,629afbdf26540dbd3360365e,,,,,,,,,,,,,,,,,,,,,,,9,"[""9""]",0,[2.391999999999939],"[4.124300000000005,3.483500000000049,3.3903000000000247,2.391999999999939]",0,3,3,0,1,Practice,1,(3x3) -  9,0,,,,,,,,,,,,,,,,,,,,,,,,,,,,,,,,,,,,,,,,,,,,,,,,,,,,,,,,,,,,,,,,,,,
,,,,,,,,,,5b98223fbdb1df0001f1e684,36,Mężczyzna,2022-06-04_08h31.32.902,task,2021.1.4,Win32,37.60953778,628b806c463b948bc644b84f,629afbdf26540dbd3360365e,,,,,,,,,,,,,,,,,,,,,,,1,"[""1""]",1,[2.903400000000147],"[4.124300000000005,3.483500000000049,3.3903000000000247,2.391999999999939,2.903400000000147]",0,4,4,1,1,Practice,2,(4x4) - 15,1,,,,,,,,,,,,,,,,,,,,,,,,,,,,,,,,,,,,,,,,,,,,,,,,,,,,,,,,,,,,,,,,,,,
,,,,,,,,,,5b98223fbdb1df0001f1e684,36,Mężczyzna,2022-06-04_08h31.32.902,task,2021.1.4,Win32,37.60953778,628b806c463b948bc644b84f,629afbdf26540dbd3360365e,,,,,,,,,,,,,,,,,,,,,,,4,"[""4""]",1,[3.490199999999959],"[4.124300000000005,3.483500000000049,3.3903000000000247,2.391999999999939,2.903400000000147,3.490199999999959]",0,5,5,4,1,Practice,5,(2x6) - 8,4,,,,,,,,,,,,,,,,,,,,,,,,,,,,,,,,,,,,,,,,,,,,,,,,,,,,,,,,,,,,,,,,,,,
,,,,,,,,,,5b98223fbdb1df0001f1e684,36,Mężczyzna,2022-06-04_08h31.32.902,task,2021.1.4,Win32,37.60953778,628b806c463b948bc644b84f,629afbdf26540dbd3360365e,,,,,,,,,,,,,,,,,,,,,,,5,"[""5""]",1,[3.1131000000000313],"[4.124300000000005,3.483500000000049,3.3903000000000247,2.391999999999939,2.903400000000147,3.490199999999959,3.1131000000000313]",0,6,6,5,1,Practice,6,(4/2) + 3,5,,,,,,,,,,,,,,,,,,,,,,,,,,,,,,,,,,,,,,,,,,,,,,,,,,,,,,,,,,,,,,,,,,,
,,,,,,,,,,5b98223fbdb1df0001f1e684,36,Mężczyzna,2022-06-04_08h31.32.902,task,2021.1.4,Win32,37.60953778,628b806c463b948bc644b84f,629afbdf26540dbd3360365e,,,,,,,,,,,,,,,,,,,,,,,8,"[""8""]",1,[2.8989000000001397],"[4.124300000000005,3.483500000000049,3.3903000000000247,2.391999999999939,2.903400000000147,3.490199999999959,3.1131000000000313,2.8989000000001397]",0,7,7,8,1,Practice,9,(3x3) - 1,8,,,,,,,,,,,,,,,,,,,,,,,,,,,,,,,,,,,,,,,,,,,,,,,,,,,,,,,,,,,,,,,,,,,
,,,,,,,,,,5b98223fbdb1df0001f1e684,36,Mężczyzna,2022-06-04_08h31.32.902,task,2021.1.4,Win32,37.60953778,628b806c463b948bc644b84f,629afbdf26540dbd3360365e,,,,,,,,,,,,,,,,,,,,,,,6,"[""6""]",1,[3.344000000000051],"[4.124300000000005,3.483500000000049,3.3903000000000247,2.391999999999939,2.903400000000147,3.490199999999959,3.1131000000000313,2.8989000000001397,3.344000000000051]",0,8,8,6,1,Practice,7,(25/5) + 1,6,,,,,,,,,,,,,,,,,,,,,,,,,,,,,,,,,,,,,,,,,,,,,,,,,,,,,,,,,,,,,,,,,,,
,,,,,,,,,,5b98223fbdb1df0001f1e684,36,Mężczyzna,2022-06-04_08h31.32.902,task,2021.1.4,Win32,37.60953778,628b806c463b948bc644b84f,629afbdf26540dbd3360365e,,,,,,,,,,,,,,,,,,,,,,,9,"[""9""]",1,[2.7385000000000446],"[4.124300000000005,3.483500000000049,3.3903000000000247,2.391999999999939,2.903400000000147,3.490199999999959,3.1131000000000313,2.8989000000001397,3.344000000000051,2.7385000000000446]",0,9,9,9,1,Practice,10,(20/2) - 1,9,,,,,,,,,,,,,,,,,,,,,,,,,,,,,,,,,,,,,,,,,,,,,,,,,,,,,,,,,,,,,,,,,,,
,,,,,,,,,,5b98223fbdb1df0001f1e684,36,Mężczyzna,2022-06-04_08h31.32.902,task,2021.1.4,Win32,37.60953778,628b806c463b948bc644b84f,629afbdf26540dbd3360365e,,,,,,,,,,,,,,,,,,,,,,,,,,,,,,,,,,,,,0.9,31.8782,2.125213333,13.41774526,0.945788745,4.565348296,space,3.4607,0,0,0,0,1,,,,,,,,,,,,,,,,,,,,,,,,,,,,,,,,,,,,,,,,,,,,,,,,,,,,,,
,,,,,,,,,,5b98223fbdb1df0001f1e684,36,Mężczyzna,2022-06-04_08h31.32.902,task,2021.1.4,Win32,37.60953778,628b806c463b948bc644b84f,629afbdf26540dbd3360365e,,,,,,,,,,,,,,,,,,,,,,,5,,,,,,,,,,Practice,4,(8/4) + 1,3,,,,,,,,,,,,,,space,15.7197,"[""5""]",0,[4.250600000000077],0,0,0,0,3,1,,,,,,,,,,,,,,,,,,,,,,,,,,,,,,,,,,,,,,,,,,,
,,,,,,,,,,5b98223fbdb1df0001f1e684,36,Mężczyzna,2022-06-04_08h31.32.902,task,2021.1.4,Win32,37.60953778,628b806c463b948bc644b84f,629afbdf26540dbd3360365e,,,,,,,,,,,,,,,,,,,,,,,8,,,,,,,,,,Practice,9,(3x3) - 1,8,,,,,,,,,,,,,,,,"[""8""]",1,[2.1123999999999796],1,0,1,1,8,1,,,,,,,,,,,,,,,,,,,,,,,,,,,,,,,,,,,,,,,,,,,
,,,,,,,,,,5b98223fbdb1df0001f1e684,36,Mężczyzna,2022-06-04_08h31.32.902,task,2021.1.4,Win32,37.60953778,628b806c463b948bc644b84f,629afbdf26540dbd3360365e,,,,,,,,,,X V Q F H G B L J M P D K C T S W R N Z,,,,,,,,,,,,,,,,,,,,,,,,,,,,,,,,,,,,,,,,,,,,,,,,,,,0,0,0,0,1,,,,,,,,,,,,,,,,,,,,,,,,,,,,,,,,,,,,,,
,,,,,,,,,,5b98223fbdb1df0001f1e684,36,Mężczyzna,2022-06-04_08h31.32.902,task,2021.1.4,Win32,37.60953778,628b806c463b948bc644b84f,629afbdf26540dbd3360365e,,,,,,,,,,,,,,,,,,,,,,,7,,,,,,,,,,Practice,8,(5x5) - 18,7,,,,,,,,,,,,,,,,"[""7""]",1,[1.905999999999949],1,0,0,0,7,1,,,,,,,,,,,,,,,,,,,,,,,,,,,,,,,,,,,,,,,,,,,
,,,,,,,,,,5b98223fbdb1df0001f1e684,36,Mężczyzna,2022-06-04_08h31.32.902,task,2021.1.4,Win32,37.60953778,628b806c463b948bc644b84f,629afbdf26540dbd3360365e,,,,,,,,,,X V Q F H G B L J M P D K C T S W R N Z,,,,,,,,,,,,,,,,,,,,,,,,,,,,,,,,,,,,,,,,,,,,,,,,,,,1,0,1,0,1,,,,,,,,,,,,,,,,,,,,,,,,,,,,,,,,,,,,,,
,,,,,,,,,,5b98223fbdb1df0001f1e684,36,Mężczyzna,2022-06-04_08h31.32.902,task,2021.1.4,Win32,37.60953778,628b806c463b948bc644b84f,629afbdf26540dbd3360365e,,,,,,,,,,,,,,,,,,,,,,,,,,,,,,,,,,,,,,,,,,,,,,,,,,,,,,,,,,,,,,,,,,zz,"[""z"",""z""]",0,"[2.4344999999999573,2.608100000000036,3.1062000000001717]",1,0,0,0,0,1,,,,,,,,,,,,,,,,,,,,,,,,,,,,
,,,,,,,,,,5b98223fbdb1df0001f1e684,36,Mężczyzna,2022-06-04_08h31.32.902,task,2021.1.4,Win32,37.60953778,628b806c463b948bc644b84f,629afbdf26540dbd3360365e,,,,,,,,,,,,,,,,,,,,,,,9,,,,,,,,,,Practice,10,(20/2) - 1,9,,,,,,,,,,,,,,,,"[""9""]",1,[2.473100000000045],1,0,0,0,9,1,,,,,,,,,,,,,,,,,,,,,,,,,,,,,,,,,,,,,,,,,,,
,,,,,,,,,,5b98223fbdb1df0001f1e684,36,Mężczyzna,2022-06-04_08h31.32.902,task,2021.1.4,Win32,37.60953778,628b806c463b948bc644b84f,629afbdf26540dbd3360365e,,,,,,,,,,X V Q F H G B L J M P D K C T S W R N Z,,,,,,,,,,,,,,,,,,,,,,,,,,,,,,,,,,,,,,,,,,,,,,,,,,,0,0,0,0,1,,,,,,,,,,,,,,,,,,,,,,,,,,,,,,,,,,,,,,
,,,,,,,,,,5b98223fbdb1df0001f1e684,36,Mężczyzna,2022-06-04_08h31.32.902,task,2021.1.4,Win32,37.60953778,628b806c463b948bc644b84f,629afbdf26540dbd3360365e,,,,,,,,,,,,,,,,,,,,,,,6,,,,,,,,,,Practice,7,(25/5) + 1,6,,,,,,,,,,,,,,,,"[""6""]",1,[1.7380000000000564],1,0,0,0,6,1,,,,,,,,,,,,,,,,,,,,,,,,,,,,,,,,,,,,,,,,,,,
,,,,,,,,,,5b98223fbdb1df0001f1e684,36,Mężczyzna,2022-06-04_08h31.32.902,task,2021.1.4,Win32,37.60953778,628b806c463b948bc644b84f,629afbdf26540dbd3360365e,,,,,,,,,,X V Q F H G B L J M P D K C T S W R N Z,,,,,,,,,,,,,,,,,,,,,,,,,,,,,,,,,,,,,,,,,,,,,,,,,,,1,0,1,0,1,,,,,,,,,,,,,,,,,,,,,,,,,,,,,,,,,,,,,,
,,,,,,,,,,5b98223fbdb1df0001f1e684,36,Mężczyzna,2022-06-04_08h31.32.902,task,2021.1.4,Win32,37.60953778,628b806c463b948bc644b84f,629afbdf26540dbd3360365e,,,,,,,,,,,,,,,,,,,,,,,,,,,,,,,,,,,,,,,,,,,,,,,,,,,,,,,,,,,,,,,,,,dw,"[""d"",""w""]",0,"[1.9220000000000255,2.1424999999999272,2.5799999999999272]",1,1,0,1,0,1,,,,,,,,,,,,,,,,,,,,,,,,,,,,
,,,,,,,,,,5b98223fbdb1df0001f1e684,36,Mężczyzna,2022-06-04_08h31.32.902,task,2021.1.4,Win32,37.60953778,628b806c463b948bc644b84f,629afbdf26540dbd3360365e,,,,,,,,,,,,,,,,,,,,,,,,,,,,,,,,,Practice,1,(3x3) -  9,0,,,,,,,,,,,,,,,,,0,,0,0,0,0,0,1,,,,,,,,,,,,,,,,,,,,,,,,,,,,,,,,,,,,,,,,,,,
,,,,,,,,,,5b98223fbdb1df0001f1e684,36,Mężczyzna,2022-06-04_08h31.32.902,task,2021.1.4,Win32,37.60953778,628b806c463b948bc644b84f,629afbdf26540dbd3360365e,,,,,,,,,,,,,,,,,,,,,,,7,,,,,,,,,,Practice,8,(5x5) - 18,7,,,,,,,,,,,,,,,,"[""7""]",1,[1.633600000000115],1,0,1,1,7,1,,,,,,,,,,,,,,,,,,,,,,,,,,,,,,,,,,,,,,,,,,,
,,,,,,,,,,5b98223fbdb1df0001f1e684,36,Mężczyzna,2022-06-04_08h31.32.902,task,2021.1.4,Win32,37.60953778,628b806c463b948bc644b84f,629afbdf26540dbd3360365e,,,,,,,,,,X V Q F H G B L J M P D K C T S W R N Z,,,,,,,,,,,,,,,,,,,,,,,,,,,,,,,,,,,,,,,,,,,,,,,,,,,0,0,0,0,1,,,,,,,,,,,,,,,,,,,,,,,,,,,,,,,,,,,,,,
,,,,,,,,,,5b98223fbdb1df0001f1e684,36,Mężczyzna,2022-06-04_08h31.32.902,task,2021.1.4,Win32,37.60953778,628b806c463b948bc644b84f,629afbdf26540dbd3360365e,,,,,,,,,,,,,,,,,,,,,,,0,,,,,,,,,,Practice,1,(3x3) -  9,0,,,,,,,,,,,,,,,,"[""0""]",1,[1.4466999999999643],1,0,0,0,0,1,,,,,,,,,,,,,,,,,,,,,,,,,,,,,,,,,,,,,,,,,,,
,,,,,,,,,,5b98223fbdb1df0001f1e684,36,Mężczyzna,2022-06-04_08h31.32.902,task,2021.1.4,Win32,37.60953778,628b806c463b948bc644b84f,629afbdf26540dbd3360365e,,,,,,,,,,X V Q F H G B L J M P D K C T S W R N Z,,,,,,,,,,,,,,,,,,,,,,,,,,,,,,,,,,,,,,,,,,,,,,,,,,,1,0,1,0,1,,,,,,,,,,,,,,,,,,,,,,,,,,,,,,,,,,,,,,
,,,,,,,,,,5b98223fbdb1df0001f1e684,36,Mężczyzna,2022-06-04_08h31.32.902,task,2021.1.4,Win32,37.60953778,628b806c463b948bc644b84f,629afbdf26540dbd3360365e,,,,,,,,,,,,,,,,,,,,,,,,,,,,,,,,,,,,,,,,,,,,,,,,,,,,,,,,,,,,,,,,,,mc,"[""m"",""c""]",0,"[1.4850999999998749,2.0604999999999336,2.819499999999948]",1,2,0,2,0,1,,,,,,,,,,,,,,,,,,,,,,,,,,,,
,,,,,,,,,,5b98223fbdb1df0001f1e684,36,Mężczyzna,2022-06-04_08h31.32.902,task,2021.1.4,Win32,37.60953778,628b806c463b948bc644b84f,629afbdf26540dbd3360365e,,,,,,,,,,,,,,,,,,,,,,,2,,,,,,,,,,Task,19,(6/2) - 1,2,,,,,,,,,,,,,,,,,,,1,,,,,,,,,,,,,,,,,,,,,space,23.66,"[""2""]",1,[2.3624999999999545],0,0,0,18,1,,,,,,,,,,,,,,,,,,
,,,,,,,,,,5b98223fbdb1df0001f1e684,36,Mężczyzna,2022-06-04_08h31.32.902,task,2021.1.4,Win32,37.60953778,628b806c463b948bc644b84f,629afbdf26540dbd3360365e,,,,,,,,,,X V Q F H G B L J M P D K C T S W R N Z,,,,,,,,,,,,,,,,,,,,,,,,,,,,,,,,,,,,,,,,,,,,,,,,,,,,,,,,,,,,,,,,,,,,,,,,,,,,0,0,0,0,1,,,,,,,,,,,,,
,,,,,,,,,,5b98223fbdb1df0001f1e684,36,Mężczyzna,2022-06-04_08h31.32.902,task,2021.1.4,Win32,37.60953778,628b806c463b948bc644b84f,629afbdf26540dbd3360365e,,,,,,,,,,,,,,,,,,,,,,,7,,,,,,,,,,Task,31,(4/2) + 5,7,,,,,,,,,,,,,,,,,,,1,,,,,,,,,,,,,,,,,,,,,,,"[""7""]",1,[2.466000000000008],0,0,0,30,1,,,,,,,,,,,,,,,,,,
,,,,,,,,,,5b98223fbdb1df0001f1e684,36,Mężczyzna,2022-06-04_08h31.32.902,task,2021.1.4,Win32,37.60953778,628b806c463b948bc644b84f,629afbdf26540dbd3360365e,,,,,,,,,,X V Q F H G B L J M P D K C T S W R N Z,,,,,,,,,,,,,,,,,,,,,,,,,,,,,,,,,,,,,,,,,,,,,,,,,,,,,,,,,,,,,,,,,,,,,,,,,,,,1,0,1,0,1,,,,,,,,,,,,,
,,,,,,,,,,5b98223fbdb1df0001f1e684,36,Mężczyzna,2022-06-04_08h31.32.902,task,2021.1.4,Win32,37.60953778,628b806c463b948bc644b84f,629afbdf26540dbd3360365e,,,,,,,,,,,,,,,,,,,,,,,,,,,,,,,,,,,,,,,,,,,,,,,,,,,,,,,,,,,,,,,,,,,,,,,,,,,,,,,,,,,,,,,,,,,zb,"[""z"",""b""]",0,"[1.4997999999999365,1.8731000000000222,2.5261999999999034]",1,ZB,0,0,0,0,1,,
,,,,,,,,,,5b98223fbdb1df0001f1e684,36,Mężczyzna,2022-06-04_08h31.32.902,task,2021.1.4,Win32,37.60953778,628b806c463b948bc644b84f,629afbdf26540dbd3360365e,,,,,,,,,,,,,,,,,,,,,,,6,,,,,,,,,,Task,13,(3x4) - 6,6,,,,,,,,,,,,,,,,,,,1,,,,,,,,,,,,,,,,,,,,,,,"[""6""]",1,[2.0293000000000347],0,0,0,12,1,,,,,,,,,,,,,,,,,,
,,,,,,,,,,5b98223fbdb1df0001f1e684,36,Mężczyzna,2022-06-04_08h31.32.902,task,2021.1.4,Win32,37.60953778,628b806c463b948bc644b84f,629afbdf26540dbd3360365e,,,,,,,,,,X V Q F H G B L J M P D K C T S W R N Z,,,,,,,,,,,,,,,,,,,,,,,,,,,,,,,,,,,,,,,,,,,,,,,,,,,,,,,,,,,,,,,,,,,,,,,,,,,,0,0,0,0,1,,,,,,,,,,,,,
,,,,,,,,,,5b98223fbdb1df0001f1e684,36,Mężczyzna,2022-06-04_08h31.32.902,task,2021.1.4,Win32,37.60953778,628b806c463b948bc644b84f,629afbdf26540dbd3360365e,,,,,,,,,,,,,,,,,,,,,,,3,,,,,,,,,,Task,25,(10/5) - 2,0,,,,,,,,,,,,,,,,,,,0,,,,,,,,,,,,,,,,,,,,,,,"[""3""]",0,[2.118400000000179],0,0,0,24,1,,,,,,,,,,,,,,,,,,
,,,,,,,,,,5b98223fbdb1df0001f1e684,36,Mężczyzna,2022-06-04_08h31.32.902,task,2021.1.4,Win32,37.60953778,628b806c463b948bc644b84f,629afbdf26540dbd3360365e,,,,,,,,,,,,,,,,,,,,,,,8,,,,,,,,,,Task,32,(8/2) + 4,8,,,,,,,,,,,,,,,,,,,1,,,,,,,,,,,,,,,,,,,,,,,"[""8""]",1,[2.973399999999856],0,1,1,31,1,,,,,,,,,,,,,,,,,,
,,,,,,,,,,5b98223fbdb1df0001f1e684,36,Mężczyzna,2022-06-04_08h31.32.902,task,2021.1.4,Win32,37.60953778,628b806c463b948bc644b84f,629afbdf26540dbd3360365e,,,,,,,,,,X V Q F H G B L J M P D K C T S W R N Z,,,,,,,,,,,,,,,,,,,,,,,,,,,,,,,,,,,,,,,,,,,,,,,,,,,,,,,,,,,,,,,,,,,,,,,,,,,,1,0,1,0,1,,,,,,,,,,,,,
,,,,,,,,,,5b98223fbdb1df0001f1e684,36,Mężczyzna,2022-06-04_08h31.32.902,task,2021.1.4,Win32,37.60953778,628b806c463b948bc644b84f,629afbdf26540dbd3360365e,,,,,,,,,,,,,,,,,,,,,,,0,,,,,,,,,,Task,33,(1/1) - 1,0,,,,,,,,,,,,,,,,,,,1,,,,,,,,,,,,,,,,,,,,,,,"[""0""]",1,[3.0019000000000915],0,0,0,32,1,,,,,,,,,,,,,,,,,,
,,,,,,,,,,5b98223fbdb1df0001f1e684,36,Mężczyzna,2022-06-04_08h31.32.902,task,2021.1.4,Win32,37.60953778,628b806c463b948bc644b84f,629afbdf26540dbd3360365e,,,,,,,,,,X V Q F H G B L J M P D K C T S W R N Z,,,,,,,,,,,,,,,,,,,,,,,,,,,,,,,,,,,,,,,,,,,,,,,,,,,,,,,,,,,,,,,,,,,,,,,,,,,,2,0,2,0,1,,,,,,,,,,,,,
,,,,,,,,,,5b98223fbdb1df0001f1e684,36,Mężczyzna,2022-06-04_08h31.32.902,task,2021.1.4,Win32,37.60953778,628b806c463b948bc644b84f,629afbdf26540dbd3360365e,,,,,,,,,,,,,,,,,,,,,,,,,,,,,,,,,,,,,,,,,,,,,,,,,,,,,,,,,,,,,,,,,,,,,,,,,,,,,,,,,,,,,,,,,,,lg,"[""l"",""g""]",0,"[1.6613999999999578,2.309300000000121,2.9095000000000937]",0,LKG,1,0,1,0,1,,
,,,,,,,,,,5b98223fbdb1df0001f1e684,36,Mężczyzna,2022-06-04_08h31.32.902,task,2021.1.4,Win32,37.60953778,628b806c463b948bc644b84f,629afbdf26540dbd3360365e,,,,,,,,,,,,,,,,,,,,,,,5,,,,,,,,,,Task,36,(8/4) + 3,5,,,,,,,,,,,,,,,,,,,1,,,,,,,,,,,,,,,,,,,,,,,"[""5""]",1,[2.307800000000043],0,0,0,35,1,,,,,,,,,,,,,,,,,,
,,,,,,,,,,5b98223fbdb1df0001f1e684,36,Mężczyzna,2022-06-04_08h31.32.902,task,2021.1.4,Win32,37.60953778,628b806c463b948bc644b84f,629afbdf26540dbd3360365e,,,,,,,,,,X V Q F H G B L J M P D K C T S W R N Z,,,,,,,,,,,,,,,,,,,,,,,,,,,,,,,,,,,,,,,,,,,,,,,,,,,,,,,,,,,,,,,,,,,,,,,,,,,,0,0,0,0,1,,,,,,,,,,,,,
,,,,,,,,,,5b98223fbdb1df0001f1e684,36,Mężczyzna,2022-06-04_08h31.32.902,task,2021.1.4,Win32,37.60953778,628b806c463b948bc644b84f,629afbdf26540dbd3360365e,,,,,,,,,,,,,,,,,,,,,,,8,,,,,,,,,,Task,32,(8/2) + 4,8,,,,,,,,,,,,,,,,,,,1,,,,,,,,,,,,,,,,,,,,,,,"[""8""]",1,[1.8559999999999945],0,0,0,31,1,,,,,,,,,,,,,,,,,,
,,,,,,,,,,5b98223fbdb1df0001f1e684,36,Mężczyzna,2022-06-04_08h31.32.902,task,2021.1.4,Win32,37.60953778,628b806c463b948bc644b84f,629afbdf26540dbd3360365e,,,,,,,,,,X V Q F H G B L J M P D K C T S W R N Z,,,,,,,,,,,,,,,,,,,,,,,,,,,,,,,,,,,,,,,,,,,,,,,,,,,,,,,,,,,,,,,,,,,,,,,,,,,,1,0,1,0,1,,,,,,,,,,,,,
,,,,,,,,,,5b98223fbdb1df0001f1e684,36,Mężczyzna,2022-06-04_08h31.32.902,task,2021.1.4,Win32,37.60953778,628b806c463b948bc644b84f,629afbdf26540dbd3360365e,,,,,,,,,,,,,,,,,,,,,,,9,,,,,,,,,,Task,40,(7x2) - 5,9,,,,,,,,,,,,,,,,,,,1,,,,,,,,,,,,,,,,,,,,,,,"[""9""]",1,[3.0101999999999407],0,0,0,39,1,,,,,,,,,,,,,,,,,,
,,,,,,,,,,5b98223fbdb1df0001f1e684,36,Mężczyzna,2022-06-04_08h31.32.902,task,2021.1.4,Win32,37.60953778,628b806c463b948bc644b84f,629afbdf26540dbd3360365e,,,,,,,,,,X V Q F H G B L J M P D K C T S W R N Z,,,,,,,,,,,,,,,,,,,,,,,,,,,,,,,,,,,,,,,,,,,,,,,,,,,,,,,,,,,,,,,,,,,,,,,,,,,,2,0,2,0,1,,,,,,,,,,,,,
,,,,,,,,,,5b98223fbdb1df0001f1e684,36,Mężczyzna,2022-06-04_08h31.32.902,task,2021.1.4,Win32,37.60953778,628b806c463b948bc644b84f,629afbdf26540dbd3360365e,,,,,,,,,,,,,,,,,,,,,,,,,,,,,,,,,,,,,,,,,,,,,,,,,,,,,,,,,,,,,,,,,,,,,,,,,,,,,,,,,,,,,,,,,,,jvt,"[""j"",""v"",""t""]",0,"[1.5453000000001111,2.099800000000073,2.453399999999988,2.818100000000186]",1,JVT,2,0,2,0,1,,
,,,,,,,,,,5b98223fbdb1df0001f1e684,36,Mężczyzna,2022-06-04_08h31.32.902,task,2021.1.4,Win32,37.60953778,628b806c463b948bc644b84f,629afbdf26540dbd3360365e,,,,,,,,,,,,,,,,,,,,,,,5,,,,,,,,,,Task,36,(8/4) + 3,5,,,,,,,,,,,,,,,,,,,1,,,,,,,,,,,,,,,,,,,,,,,"[""5""]",1,[2.586099999999874],0,0,0,35,1,,,,,,,,,,,,,,,,,,
,,,,,,,,,,5b98223fbdb1df0001f1e684,36,Mężczyzna,2022-06-04_08h31.32.902,task,2021.1.4,Win32,37.60953778,628b806c463b948bc644b84f,629afbdf26540dbd3360365e,,,,,,,,,,X V Q F H G B L J M P D K C T S W R N Z,,,,,,,,,,,,,,,,,,,,,,,,,,,,,,,,,,,,,,,,,,,,,,,,,,,,,,,,,,,,,,,,,,,,,,,,,,,,0,0,0,0,1,,,,,,,,,,,,,
,,,,,,,,,,5b98223fbdb1df0001f1e684,36,Mężczyzna,2022-06-04_08h31.32.902,task,2021.1.4,Win32,37.60953778,628b806c463b948bc644b84f,629afbdf26540dbd3360365e,,,,,,,,,,,,,,,,,,,,,,,5,,,,,,,,,,Task,29,(3x8) - 19 ,5,,,,,,,,,,,,,,,,,,,1,,,,,,,,,,,,,,,,,,,,,,,"[""5""]",1,[3.638500000000022],0,0,0,28,1,,,,,,,,,,,,,,,,,,
,,,,,,,,,,5b98223fbdb1df0001f1e684,36,Mężczyzna,2022-06-04_08h31.32.902,task,2021.1.4,Win32,37.60953778,628b806c463b948bc644b84f,629afbdf26540dbd3360365e,,,,,,,,,,X V Q F H G B L J M P D K C T S W R N Z,,,,,,,,,,,,,,,,,,,,,,,,,,,,,,,,,,,,,,,,,,,,,,,,,,,,,,,,,,,,,,,,,,,,,,,,,,,,1,0,1,0,1,,,,,,,,,,,,,
,,,,,,,,,,5b98223fbdb1df0001f1e684,36,Mężczyzna,2022-06-04_08h31.32.902,task,2021.1.4,Win32,37.60953778,628b806c463b948bc644b84f,629afbdf26540dbd3360365e,,,,,,,,,,,,,,,,,,,,,,,3,,,,,,,,,,Task,3,(2x3) - 3,3,,,,,,,,,,,,,,,,,,,1,,,,,,,,,,,,,,,,,,,,,,,"[""3""]",1,[2.0954999999999018],0,0,0,2,1,,,,,,,,,,,,,,,,,,
,,,,,,,,,,5b98223fbdb1df0001f1e684,36,Mężczyzna,2022-06-04_08h31.32.902,task,2021.1.4,Win32,37.60953778,628b806c463b948bc644b84f,629afbdf26540dbd3360365e,,,,,,,,,,X V Q F H G B L J M P D K C T S W R N Z,,,,,,,,,,,,,,,,,,,,,,,,,,,,,,,,,,,,,,,,,,,,,,,,,,,,,,,,,,,,,,,,,,,,,,,,,,,,2,0,2,0,1,,,,,,,,,,,,,
,,,,,,,,,,5b98223fbdb1df0001f1e684,36,Mężczyzna,2022-06-04_08h31.32.902,task,2021.1.4,Win32,37.60953778,628b806c463b948bc644b84f,629afbdf26540dbd3360365e,,,,,,,,,,,,,,,,,,,,,,,7,,,,,,,,,,Task,31,(4/2) + 5,7,,,,,,,,,,,,,,,,,,,1,,,,,,,,,,,,,,,,,,,,,,,"[""7""]",1,[3.2696999999999434],0,0,0,30,1,,,,,,,,,,,,,,,,,,
,,,,,,,,,,5b98223fbdb1df0001f1e684,36,Mężczyzna,2022-06-04_08h31.32.902,task,2021.1.4,Win32,37.60953778,628b806c463b948bc644b84f,629afbdf26540dbd3360365e,,,,,,,,,,X V Q F H G B L J M P D K C T S W R N Z,,,,,,,,,,,,,,,,,,,,,,,,,,,,,,,,,,,,,,,,,,,,,,,,,,,,,,,,,,,,,,,,,,,,,,,,,,,,3,0,3,0,1,,,,,,,,,,,,,
,,,,,,,,,,5b98223fbdb1df0001f1e684,36,Mężczyzna,2022-06-04_08h31.32.902,task,2021.1.4,Win32,37.60953778,628b806c463b948bc644b84f,629afbdf26540dbd3360365e,,,,,,,,,,,,,,,,,,,,,,,,,,,,,,,,,,,,,,,,,,,,,,,,,,,,,,,,,,,,,,,,,,,,,,,,,,,,,,,,,,,,,,,,,,,fwzc,"[""f"",""w"",""z"",""c""]",0,"[1.3718999999998687,2.3489999999999327,2.6754999999999427,3.094899999999825,3.529800000000023]",1,FWZC,3,0,3,0,1,,
,,,,,,,,,,5b98223fbdb1df0001f1e684,36,Mężczyzna,2022-06-04_08h31.32.902,task,2021.1.4,Win32,37.60953778,628b806c463b948bc644b84f,629afbdf26540dbd3360365e,,,,,,,,,,,,,,,,,,,,,,,7,,,,,,,,,,Task,14,(2x2) + 3,7,,,,,,,,,,,,,,,,,,,1,,,,,,,,,,,,,,,,,,,,,,,"[""7""]",1,[2.4693999999999505],0,0,0,13,1,,,,,,,,,,,,,,,,,,
,,,,,,,,,,5b98223fbdb1df0001f1e684,36,Mężczyzna,2022-06-04_08h31.32.902,task,2021.1.4,Win32,37.60953778,628b806c463b948bc644b84f,629afbdf26540dbd3360365e,,,,,,,,,,X V Q F H G B L J M P D K C T S W R N Z,,,,,,,,,,,,,,,,,,,,,,,,,,,,,,,,,,,,,,,,,,,,,,,,,,,,,,,,,,,,,,,,,,,,,,,,,,,,0,0,0,0,1,,,,,,,,,,,,,
,,,,,,,,,,5b98223fbdb1df0001f1e684,36,Mężczyzna,2022-06-04_08h31.32.902,task,2021.1.4,Win32,37.60953778,628b806c463b948bc644b84f,629afbdf26540dbd3360365e,,,,,,,,,,,,,,,,,,,,,,,6,,,,,,,,,,Task,13,(3x4) - 6,6,,,,,,,,,,,,,,,,,,,1,,,,,,,,,,,,,,,,,,,,,,,"[""6""]",1,[1.7391000000000076],0,0,0,12,1,,,,,,,,,,,,,,,,,,
,,,,,,,,,,5b98223fbdb1df0001f1e684,36,Mężczyzna,2022-06-04_08h31.32.902,task,2021.1.4,Win32,37.60953778,628b806c463b948bc644b84f,629afbdf26540dbd3360365e,,,,,,,,,,X V Q F H G B L J M P D K C T S W R N Z,,,,,,,,,,,,,,,,,,,,,,,,,,,,,,,,,,,,,,,,,,,,,,,,,,,,,,,,,,,,,,,,,,,,,,,,,,,,1,0,1,0,1,,,,,,,,,,,,,
,,,,,,,,,,5b98223fbdb1df0001f1e684,36,Mężczyzna,2022-06-04_08h31.32.902,task,2021.1.4,Win32,37.60953778,628b806c463b948bc644b84f,629afbdf26540dbd3360365e,,,,,,,,,,,,,,,,,,,,,,,5,,,,,,,,,,Task,29,(3x8) - 19 ,5,,,,,,,,,,,,,,,,,,,1,,,,,,,,,,,,,,,,,,,,,,,"[""5""]",1,[2.0833000000000084],0,0,0,28,1,,,,,,,,,,,,,,,,,,
,,,,,,,,,,5b98223fbdb1df0001f1e684,36,Mężczyzna,2022-06-04_08h31.32.902,task,2021.1.4,Win32,37.60953778,628b806c463b948bc644b84f,629afbdf26540dbd3360365e,,,,,,,,,,X V Q F H G B L J M P D K C T S W R N Z,,,,,,,,,,,,,,,,,,,,,,,,,,,,,,,,,,,,,,,,,,,,,,,,,,,,,,,,,,,,,,,,,,,,,,,,,,,,2,0,2,0,1,,,,,,,,,,,,,
,,,,,,,,,,5b98223fbdb1df0001f1e684,36,Mężczyzna,2022-06-04_08h31.32.902,task,2021.1.4,Win32,37.60953778,628b806c463b948bc644b84f,629afbdf26540dbd3360365e,,,,,,,,,,,,,,,,,,,,,,,6,,,,,,,,,,Task,5,(2x3) + 0,6,,,,,,,,,,,,,,,,,,,1,,,,,,,,,,,,,,,,,,,,,,,"[""6""]",1,[2.668800000000033],0,0,0,4,1,,,,,,,,,,,,,,,,,,
,,,,,,,,,,5b98223fbdb1df0001f1e684,36,Mężczyzna,2022-06-04_08h31.32.902,task,2021.1.4,Win32,37.60953778,628b806c463b948bc644b84f,629afbdf26540dbd3360365e,,,,,,,,,,X V Q F H G B L J M P D K C T S W R N Z,,,,,,,,,,,,,,,,,,,,,,,,,,,,,,,,,,,,,,,,,,,,,,,,,,,,,,,,,,,,,,,,,,,,,,,,,,,,3,0,3,0,1,,,,,,,,,,,,,
,,,,,,,,,,5b98223fbdb1df0001f1e684,36,Mężczyzna,2022-06-04_08h31.32.902,task,2021.1.4,Win32,37.60953778,628b806c463b948bc644b84f,629afbdf26540dbd3360365e,,,,,,,,,,,,,,,,,,,,,,,7,,,,,,,,,,Task,11,(18/3) - 2,4,,,,,,,,,,,,,,,,,,,0,,,,,,,,,,,,,,,,,,,,,,,"[""7""]",0,[3.778900000000135],0,0,0,10,1,,,,,,,,,,,,,,,,,,
,,,,,,,,,,5b98223fbdb1df0001f1e684,36,Mężczyzna,2022-06-04_08h31.32.902,task,2021.1.4,Win32,37.60953778,628b806c463b948bc644b84f,629afbdf26540dbd3360365e,,,,,,,,,,,,,,,,,,,,,,,7,,,,,,,,,,Task,6,(12/2) + 1,7,,,,,,,,,,,,,,,,,,,1,,,,,,,,,,,,,,,,,,,,,,,"[""7""]",1,[3.4455999999997857],0,1,1,5,1,,,,,,,,,,,,,,,,,,
,,,,,,,,,,5b98223fbdb1df0001f1e684,36,Mężczyzna,2022-06-04_08h31.32.902,task,2021.1.4,Win32,37.60953778,628b806c463b948bc644b84f,629afbdf26540dbd3360365e,,,,,,,,,,X V Q F H G B L J M P D K C T S W R N Z,,,,,,,,,,,,,,,,,,,,,,,,,,,,,,,,,,,,,,,,,,,,,,,,,,,,,,,,,,,,,,,,,,,,,,,,,,,,4,0,4,0,1,,,,,,,,,,,,,
,,,,,,,,,,5b98223fbdb1df0001f1e684,36,Mężczyzna,2022-06-04_08h31.32.902,task,2021.1.4,Win32,37.60953778,628b806c463b948bc644b84f,629afbdf26540dbd3360365e,,,,,,,,,,,,,,,,,,,,,,,,,,,,,,,,,,,,,,,,,,,,,,,,,,,,,,,,,,,,,,,,,,,,,,,,,,,,,,,,,,,,,,,,,,,jtjck,"[""j"",""t"",""j"",""c"",""k""]",0,"[1.5203000000000202,1.9273000000000593,2.3256999999998698,2.877900000000068,3.2666999999999007,3.768699999999967]",1,JTJCK,4,0,4,0,1,,
,,,,,,,,,,5b98223fbdb1df0001f1e684,36,Mężczyzna,2022-06-04_08h31.32.902,task,2021.1.4,Win32,37.60953778,628b806c463b948bc644b84f,629afbdf26540dbd3360365e,,,,,,,,,,,,,,,,,,,,,,,8,,,,,,,,,,Task,39,(5x3) - 7,8,,,,,,,,,,,,,,,,,,,1,,,,,,,,,,,,,,,,,,,,,,,"[""8""]",1,[2.7748000000000275],0,0,0,38,1,,,,,,,,,,,,,,,,,,
,,,,,,,,,,5b98223fbdb1df0001f1e684,36,Mężczyzna,2022-06-04_08h31.32.902,task,2021.1.4,Win32,37.60953778,628b806c463b948bc644b84f,629afbdf26540dbd3360365e,,,,,,,,,,X V Q F H G B L J M P D K C T S W R N Z,,,,,,,,,,,,,,,,,,,,,,,,,,,,,,,,,,,,,,,,,,,,,,,,,,,,,,,,,,,,,,,,,,,,,,,,,,,,0,0,0,0,1,,,,,,,,,,,,,
,,,,,,,,,,5b98223fbdb1df0001f1e684,36,Mężczyzna,2022-06-04_08h31.32.902,task,2021.1.4,Win32,37.60953778,628b806c463b948bc644b84f,629afbdf26540dbd3360365e,,,,,,,,,,,,,,,,,,,,,,,9,,,,,,,,,,Task,40,(7x2) - 5,9,,,,,,,,,,,,,,,,,,,1,,,,,,,,,,,,,,,,,,,,,,,"[""9""]",1,[2.0370999999998958],0,0,0,39,1,,,,,,,,,,,,,,,,,,
,,,,,,,,,,5b98223fbdb1df0001f1e684,36,Mężczyzna,2022-06-04_08h31.32.902,task,2021.1.4,Win32,37.60953778,628b806c463b948bc644b84f,629afbdf26540dbd3360365e,,,,,,,,,,X V Q F H G B L J M P D K C T S W R N Z,,,,,,,,,,,,,,,,,,,,,,,,,,,,,,,,,,,,,,,,,,,,,,,,,,,,,,,,,,,,,,,,,,,,,,,,,,,,1,0,1,0,1,,,,,,,,,,,,,
,,,,,,,,,,5b98223fbdb1df0001f1e684,36,Mężczyzna,2022-06-04_08h31.32.902,task,2021.1.4,Win32,37.60953778,628b806c463b948bc644b84f,629afbdf26540dbd3360365e,,,,,,,,,,,,,,,,,,,,,,,5,,,,,,,,,,Task,36,(8/4) + 3,5,,,,,,,,,,,,,,,,,,,1,,,,,,,,,,,,,,,,,,,,,,,"[""5""]",1,[2.846099999999865],0,0,0,35,1,,,,,,,,,,,,,,,,,,
,,,,,,,,,,5b98223fbdb1df0001f1e684,36,Mężczyzna,2022-06-04_08h31.32.902,task,2021.1.4,Win32,37.60953778,628b806c463b948bc644b84f,629afbdf26540dbd3360365e,,,,,,,,,,X V Q F H G B L J M P D K C T S W R N Z,,,,,,,,,,,,,,,,,,,,,,,,,,,,,,,,,,,,,,,,,,,,,,,,,,,,,,,,,,,,,,,,,,,,,,,,,,,,2,0,2,0,1,,,,,,,,,,,,,
,,,,,,,,,,5b98223fbdb1df0001f1e684,36,Mężczyzna,2022-06-04_08h31.32.902,task,2021.1.4,Win32,37.60953778,628b806c463b948bc644b84f,629afbdf26540dbd3360365e,,,,,,,,,,,,,,,,,,,,,,,3,,,,,,,,,,Task,25,(10/5) - 2,0,,,,,,,,,,,,,,,,,,,0,,,,,,,,,,,,,,,,,,,,,,,"[""3""]",0,[2.280499999999961],0,0,0,24,1,,,,,,,,,,,,,,,,,,
,,,,,,,,,,5b98223fbdb1df0001f1e684,36,Mężczyzna,2022-06-04_08h31.32.902,task,2021.1.4,Win32,37.60953778,628b806c463b948bc644b84f,629afbdf26540dbd3360365e,,,,,,,,,,,,,,,,,,,,,,,5,,,,,,,,,,Task,36,(8/4) + 3,5,,,,,,,,,,,,,,,,,,,1,,,,,,,,,,,,,,,,,,,,,,,"[""5""]",1,[2.082099999999855],0,1,1,35,1,,,,,,,,,,,,,,,,,,
,,,,,,,,,,5b98223fbdb1df0001f1e684,36,Mężczyzna,2022-06-04_08h31.32.902,task,2021.1.4,Win32,37.60953778,628b806c463b948bc644b84f,629afbdf26540dbd3360365e,,,,,,,,,,X V Q F H G B L J M P D K C T S W R N Z,,,,,,,,,,,,,,,,,,,,,,,,,,,,,,,,,,,,,,,,,,,,,,,,,,,,,,,,,,,,,,,,,,,,,,,,,,,,3,0,3,0,1,,,,,,,,,,,,,
,,,,,,,,,,5b98223fbdb1df0001f1e684,36,Mężczyzna,2022-06-04_08h31.32.902,task,2021.1.4,Win32,37.60953778,628b806c463b948bc644b84f,629afbdf26540dbd3360365e,,,,,,,,,,,,,,,,,,,,,,,0,,,,,,,,,,Task,17,(2x3) - 6,0,,,,,,,,,,,,,,,,,,,1,,,,,,,,,,,,,,,,,,,,,,,"[""0""]",1,[2.661399999999958],0,0,0,16,1,,,,,,,,,,,,,,,,,,
,,,,,,,,,,5b98223fbdb1df0001f1e684,36,Mężczyzna,2022-06-04_08h31.32.902,task,2021.1.4,Win32,37.60953778,628b806c463b948bc644b84f,629afbdf26540dbd3360365e,,,,,,,,,,X V Q F H G B L J M P D K C T S W R N Z,,,,,,,,,,,,,,,,,,,,,,,,,,,,,,,,,,,,,,,,,,,,,,,,,,,,,,,,,,,,,,,,,,,,,,,,,,,,4,0,4,0,1,,,,,,,,,,,,,
,,,,,,,,,,5b98223fbdb1df0001f1e684,36,Mężczyzna,2022-06-04_08h31.32.902,task,2021.1.4,Win32,37.60953778,628b806c463b948bc644b84f,629afbdf26540dbd3360365e,,,,,,,,,,,,,,,,,,,,,,,2,,,,,,,,,,Task,10,(2x5) - 8,2,,,,,,,,,,,,,,,,,,,1,,,,,,,,,,,,,,,,,,,,,,,"[""2""]",1,[2.6686999999999443],0,0,0,9,1,,,,,,,,,,,,,,,,,,
,,,,,,,,,,5b98223fbdb1df0001f1e684,36,Mężczyzna,2022-06-04_08h31.32.902,task,2021.1.4,Win32,37.60953778,628b806c463b948bc644b84f,629afbdf26540dbd3360365e,,,,,,,,,,X V Q F H G B L J M P D K C T S W R N Z,,,,,,,,,,,,,,,,,,,,,,,,,,,,,,,,,,,,,,,,,,,,,,,,,,,,,,,,,,,,,,,,,,,,,,,,,,,,5,0,5,0,1,,,,,,,,,,,,,
,,,,,,,,,,5b98223fbdb1df0001f1e684,36,Mężczyzna,2022-06-04_08h31.32.902,task,2021.1.4,Win32,37.60953778,628b806c463b948bc644b84f,629afbdf26540dbd3360365e,,,,,,,,,,,,,,,,,,,,,,,,,,,,,,,,,,,,,,,,,,,,,,,,,,,,,,,,,,,,,,,,,,,,,,,,,,,,,,,,,,,,,,,,,,,grpdhs,"[""g"",""r"",""p"",""d"",""h"",""s""]",0,"[1.6139000000000578,2.0942999999999756,2.607499999999959,3.3256000000000085,3.8057999999999765,4.398799999999937,5.195600000000013]",1,GRPDHS,5,0,5,0,1,,
,,,,,,,,,,5b98223fbdb1df0001f1e684,36,Mężczyzna,2022-06-04_08h31.32.902,task,2021.1.4,Win32,37.60953778,628b806c463b948bc644b84f,629afbdf26540dbd3360365e,,,,,,,,,,,,,,,,,,,,,,,6,,,,,,,,,,Task,5,(2x3) + 0,6,,,,,,,,,,,,,,,,,,,1,,,,,,,,,,,,,,,,,,,,,,,"[""6""]",1,[1.9341000000000577],0,0,0,4,1,,,,,,,,,,,,,,,,,,
,,,,,,,,,,5b98223fbdb1df0001f1e684,36,Mężczyzna,2022-06-04_08h31.32.902,task,2021.1.4,Win32,37.60953778,628b806c463b948bc644b84f,629afbdf26540dbd3360365e,,,,,,,,,,X V Q F H G B L J M P D K C T S W R N Z,,,,,,,,,,,,,,,,,,,,,,,,,,,,,,,,,,,,,,,,,,,,,,,,,,,,,,,,,,,,,,,,,,,,,,,,,,,,0,0,0,0,1,,,,,,,,,,,,,
,,,,,,,,,,5b98223fbdb1df0001f1e684,36,Mężczyzna,2022-06-04_08h31.32.902,task,2021.1.4,Win32,37.60953778,628b806c463b948bc644b84f,629afbdf26540dbd3360365e,,,,,,,,,,,,,,,,,,,,,,,4,,,,,,,,,,Task,4,(1x5) - 1,4,,,,,,,,,,,,,,,,,,,1,,,,,,,,,,,,,,,,,,,,,,,"[""4""]",1,[2.0582000000002836],0,0,0,3,1,,,,,,,,,,,,,,,,,,
,,,,,,,,,,5b98223fbdb1df0001f1e684,36,Mężczyzna,2022-06-04_08h31.32.902,task,2021.1.4,Win32,37.60953778,628b806c463b948bc644b84f,629afbdf26540dbd3360365e,,,,,,,,,,X V Q F H G B L J M P D K C T S W R N Z,,,,,,,,,,,,,,,,,,,,,,,,,,,,,,,,,,,,,,,,,,,,,,,,,,,,,,,,,,,,,,,,,,,,,,,,,,,,1,0,1,0,1,,,,,,,,,,,,,
,,,,,,,,,,5b98223fbdb1df0001f1e684,36,Mężczyzna,2022-06-04_08h31.32.902,task,2021.1.4,Win32,37.60953778,628b806c463b948bc644b84f,629afbdf26540dbd3360365e,,,,,,,,,,,,,,,,,,,,,,,3,,,,,,,,,,Task,27,(3/3) + 2,3,,,,,,,,,,,,,,,,,,,1,,,,,,,,,,,,,,,,,,,,,,,"[""3""]",1,[2.3786000000001195],0,0,0,26,1,,,,,,,,,,,,,,,,,,
,,,,,,,,,,5b98223fbdb1df0001f1e684,36,Mężczyzna,2022-06-04_08h31.32.902,task,2021.1.4,Win32,37.60953778,628b806c463b948bc644b84f,629afbdf26540dbd3360365e,,,,,,,,,,X V Q F H G B L J M P D K C T S W R N Z,,,,,,,,,,,,,,,,,,,,,,,,,,,,,,,,,,,,,,,,,,,,,,,,,,,,,,,,,,,,,,,,,,,,,,,,,,,,2,0,2,0,1,,,,,,,,,,,,,
,,,,,,,,,,5b98223fbdb1df0001f1e684,36,Mężczyzna,2022-06-04_08h31.32.902,task,2021.1.4,Win32,37.60953778,628b806c463b948bc644b84f,629afbdf26540dbd3360365e,,,,,,,,,,,,,,,,,,,,,,,2,,,,,,,,,,Task,26,(2x9) - 16,2,,,,,,,,,,,,,,,,,,,1,,,,,,,,,,,,,,,,,,,,,,,"[""2""]",1,[1.679100000000176],0,0,0,25,1,,,,,,,,,,,,,,,,,,
,,,,,,,,,,5b98223fbdb1df0001f1e684,36,Mężczyzna,2022-06-04_08h31.32.902,task,2021.1.4,Win32,37.60953778,628b806c463b948bc644b84f,629afbdf26540dbd3360365e,,,,,,,,,,X V Q F H G B L J M P D K C T S W R N Z,,,,,,,,,,,,,,,,,,,,,,,,,,,,,,,,,,,,,,,,,,,,,,,,,,,,,,,,,,,,,,,,,,,,,,,,,,,,3,0,3,0,1,,,,,,,,,,,,,
,,,,,,,,,,5b98223fbdb1df0001f1e684,36,Mężczyzna,2022-06-04_08h31.32.902,task,2021.1.4,Win32,37.60953778,628b806c463b948bc644b84f,629afbdf26540dbd3360365e,,,,,,,,,,,,,,,,,,,,,,,5,,,,,,,,,,Task,12,(4x4) - 11,5,,,,,,,,,,,,,,,,,,,1,,,,,,,,,,,,,,,,,,,,,,,"[""5""]",1,[1.8419000000001233],0,0,0,11,1,,,,,,,,,,,,,,,,,,
,,,,,,,,,,5b98223fbdb1df0001f1e684,36,Mężczyzna,2022-06-04_08h31.32.902,task,2021.1.4,Win32,37.60953778,628b806c463b948bc644b84f,629afbdf26540dbd3360365e,,,,,,,,,,X V Q F H G B L J M P D K C T S W R N Z,,,,,,,,,,,,,,,,,,,,,,,,,,,,,,,,,,,,,,,,,,,,,,,,,,,,,,,,,,,,,,,,,,,,,,,,,,,,4,0,4,0,1,,,,,,,,,,,,,
,,,,,,,,,,5b98223fbdb1df0001f1e684,36,Mężczyzna,2022-06-04_08h31.32.902,task,2021.1.4,Win32,37.60953778,628b806c463b948bc644b84f,629afbdf26540dbd3360365e,,,,,,,,,,,,,,,,,,,,,,,9,,,,,,,,,,Task,40,(7x2) - 5,9,,,,,,,,,,,,,,,,,,,1,,,,,,,,,,,,,,,,,,,,,,,"[""9""]",1,[2.0833999999998696],0,0,0,39,1,,,,,,,,,,,,,,,,,,
,,,,,,,,,,5b98223fbdb1df0001f1e684,36,Mężczyzna,2022-06-04_08h31.32.902,task,2021.1.4,Win32,37.60953778,628b806c463b948bc644b84f,629afbdf26540dbd3360365e,,,,,,,,,,X V Q F H G B L J M P D K C T S W R N Z,,,,,,,,,,,,,,,,,,,,,,,,,,,,,,,,,,,,,,,,,,,,,,,,,,,,,,,,,,,,,,,,,,,,,,,,,,,,5,0,5,0,1,,,,,,,,,,,,,
,,,,,,,,,,5b98223fbdb1df0001f1e684,36,Mężczyzna,2022-06-04_08h31.32.902,task,2021.1.4,Win32,37.60953778,628b806c463b948bc644b84f,629afbdf26540dbd3360365e,,,,,,,,,,,,,,,,,,,,,,,3,,,,,,,,,,Task,20,(18/9) + 1,3,,,,,,,,,,,,,,,,,,,1,,,,,,,,,,,,,,,,,,,,,,,"[""3""]",1,[1.9729999999999563],0,0,0,19,1,,,,,,,,,,,,,,,,,,
,,,,,,,,,,5b98223fbdb1df0001f1e684,36,Mężczyzna,2022-06-04_08h31.32.902,task,2021.1.4,Win32,37.60953778,628b806c463b948bc644b84f,629afbdf26540dbd3360365e,,,,,,,,,,X V Q F H G B L J M P D K C T S W R N Z,,,,,,,,,,,,,,,,,,,,,,,,,,,,,,,,,,,,,,,,,,,,,,,,,,,,,,,,,,,,,,,,,,,,,,,,,,,,6,0,6,0,1,,,,,,,,,,,,,
,,,,,,,,,,5b98223fbdb1df0001f1e684,36,Mężczyzna,2022-06-04_08h31.32.902,task,2021.1.4,Win32,37.60953778,628b806c463b948bc644b84f,629afbdf26540dbd3360365e,,,,,,,,,,,,,,,,,,,,,,,,,,,,,,,,,,,,,,,,,,,,,,,,,,,,,,,,,,,,,,,,,,,,,,,,,,,,,,,,,,,,,,,,,,,kbxhgh,"[""k"",""b"",""x"",""h"",""g"",""h""]",0,"[2.3474000000002206,3.740400000000136,5.117100000000164,5.629900000000134,6.146800000000098,10.237800000000107,10.990900000000124]",0,KBXHGRN,6,0,6,0,1,,
,,,,,,,,,,5b98223fbdb1df0001f1e684,36,Mężczyzna,2022-06-04_08h31.32.902,task,2021.1.4,Win32,37.60953778,628b806c463b948bc644b84f,629afbdf26540dbd3360365e,,,,,,,,,,,,,,,,,,,,,,,2,,,,,,,,,,Task,26,(2x9) - 16,2,,,,,,,,,,,,,,,,,,,1,,,,,,,,,,,,,,,,,,,,,,,"[""2""]",1,[1.8881999999999834],0,0,0,25,1,,,,,,,,,,,,,,,,,,
,,,,,,,,,,5b98223fbdb1df0001f1e684,36,Mężczyzna,2022-06-04_08h31.32.902,task,2021.1.4,Win32,37.60953778,628b806c463b948bc644b84f,629afbdf26540dbd3360365e,,,,,,,,,,X V Q F H G B L J M P D K C T S W R N Z,,,,,,,,,,,,,,,,,,,,,,,,,,,,,,,,,,,,,,,,,,,,,,,,,,,,,,,,,,,,,,,,,,,,,,,,,,,,0,0,0,0,1,,,,,,,,,,,,,
,,,,,,,,,,5b98223fbdb1df0001f1e684,36,Mężczyzna,2022-06-04_08h31.32.902,task,2021.1.4,Win32,37.60953778,628b806c463b948bc644b84f,629afbdf26540dbd3360365e,,,,,,,,,,,,,,,,,,,,,,,5,,,,,,,,,,Task,12,(4x4) - 11,5,,,,,,,,,,,,,,,,,,,1,,,,,,,,,,,,,,,,,,,,,,,"[""5""]",1,[1.9351999999998952],0,0,0,11,1,,,,,,,,,,,,,,,,,,
,,,,,,,,,,5b98223fbdb1df0001f1e684,36,Mężczyzna,2022-06-04_08h31.32.902,task,2021.1.4,Win32,37.60953778,628b806c463b948bc644b84f,629afbdf26540dbd3360365e,,,,,,,,,,X V Q F H G B L J M P D K C T S W R N Z,,,,,,,,,,,,,,,,,,,,,,,,,,,,,,,,,,,,,,,,,,,,,,,,,,,,,,,,,,,,,,,,,,,,,,,,,,,,1,0,1,0,1,,,,,,,,,,,,,
,,,,,,,,,,5b98223fbdb1df0001f1e684,36,Mężczyzna,2022-06-04_08h31.32.902,task,2021.1.4,Win32,37.60953778,628b806c463b948bc644b84f,629afbdf26540dbd3360365e,,,,,,,,,,,,,,,,,,,,,,,2,,,,,,,,,,Task,10,(2x5) - 8,2,,,,,,,,,,,,,,,,,,,1,,,,,,,,,,,,,,,,,,,,,,,"[""2""]",1,[1.4531999999999243],0,0,0,9,1,,,,,,,,,,,,,,,,,,
,,,,,,,,,,5b98223fbdb1df0001f1e684,36,Mężczyzna,2022-06-04_08h31.32.902,task,2021.1.4,Win32,37.60953778,628b806c463b948bc644b84f,629afbdf26540dbd3360365e,,,,,,,,,,X V Q F H G B L J M P D K C T S W R N Z,,,,,,,,,,,,,,,,,,,,,,,,,,,,,,,,,,,,,,,,,,,,,,,,,,,,,,,,,,,,,,,,,,,,,,,,,,,,2,0,2,0,1,,,,,,,,,,,,,
,,,,,,,,,,5b98223fbdb1df0001f1e684,36,Mężczyzna,2022-06-04_08h31.32.902,task,2021.1.4,Win32,37.60953778,628b806c463b948bc644b84f,629afbdf26540dbd3360365e,,,,,,,,,,,,,,,,,,,,,,,7,,,,,,,,,,Task,14,(2x2) + 3,7,,,,,,,,,,,,,,,,,,,1,,,,,,,,,,,,,,,,,,,,,,,"[""7""]",1,[1.8213000000000648],0,0,0,13,1,,,,,,,,,,,,,,,,,,
,,,,,,,,,,5b98223fbdb1df0001f1e684,36,Mężczyzna,2022-06-04_08h31.32.902,task,2021.1.4,Win32,37.60953778,628b806c463b948bc644b84f,629afbdf26540dbd3360365e,,,,,,,,,,X V Q F H G B L J M P D K C T S W R N Z,,,,,,,,,,,,,,,,,,,,,,,,,,,,,,,,,,,,,,,,,,,,,,,,,,,,,,,,,,,,,,,,,,,,,,,,,,,,3,0,3,0,1,,,,,,,,,,,,,
,,,,,,,,,,5b98223fbdb1df0001f1e684,36,Mężczyzna,2022-06-04_08h31.32.902,task,2021.1.4,Win32,37.60953778,628b806c463b948bc644b84f,629afbdf26540dbd3360365e,,,,,,,,,,,,,,,,,,,,,,,5,,,,,,,,,,Task,29,(3x8) - 19 ,5,,,,,,,,,,,,,,,,,,,1,,,,,,,,,,,,,,,,,,,,,,,"[""5""]",1,[2.586599999999862],0,0,0,28,1,,,,,,,,,,,,,,,,,,
,,,,,,,,,,5b98223fbdb1df0001f1e684,36,Mężczyzna,2022-06-04_08h31.32.902,task,2021.1.4,Win32,37.60953778,628b806c463b948bc644b84f,629afbdf26540dbd3360365e,,,,,,,,,,X V Q F H G B L J M P D K C T S W R N Z,,,,,,,,,,,,,,,,,,,,,,,,,,,,,,,,,,,,,,,,,,,,,,,,,,,,,,,,,,,,,,,,,,,,,,,,,,,,4,0,4,0,1,,,,,,,,,,,,,
,,,,,,,,,,5b98223fbdb1df0001f1e684,36,Mężczyzna,2022-06-04_08h31.32.902,task,2021.1.4,Win32,37.60953778,628b806c463b948bc644b84f,629afbdf26540dbd3360365e,,,,,,,,,,,,,,,,,,,,,,,0,,,,,,,,,,Task,8,(1x5) - 5,0,,,,,,,,,,,,,,,,,,,1,,,,,,,,,,,,,,,,,,,,,,,"[""0""]",1,[2.5011000000001786],0,0,0,7,1,,,,,,,,,,,,,,,,,,
,,,,,,,,,,5b98223fbdb1df0001f1e684,36,Mężczyzna,2022-06-04_08h31.32.902,task,2021.1.4,Win32,37.60953778,628b806c463b948bc644b84f,629afbdf26540dbd3360365e,,,,,,,,,,X V Q F H G B L J M P D K C T S W R N Z,,,,,,,,,,,,,,,,,,,,,,,,,,,,,,,,,,,,,,,,,,,,,,,,,,,,,,,,,,,,,,,,,,,,,,,,,,,,5,0,5,0,1,,,,,,,,,,,,,
,,,,,,,,,,5b98223fbdb1df0001f1e684,36,Mężczyzna,2022-06-04_08h31.32.902,task,2021.1.4,Win32,37.60953778,628b806c463b948bc644b84f,629afbdf26540dbd3360365e,,,,,,,,,,,,,,,,,,,,,,,9,,,,,,,,,,Task,24,(2x2) + 5,9,,,,,,,,,,,,,,,,,,,1,,,,,,,,,,,,,,,,,,,,,,,"[""9""]",1,[1.720600000000104],0,0,0,23,1,,,,,,,,,,,,,,,,,,
,,,,,,,,,,5b98223fbdb1df0001f1e684,36,Mężczyzna,2022-06-04_08h31.32.902,task,2021.1.4,Win32,37.60953778,628b806c463b948bc644b84f,629afbdf26540dbd3360365e,,,,,,,,,,X V Q F H G B L J M P D K C T S W R N Z,,,,,,,,,,,,,,,,,,,,,,,,,,,,,,,,,,,,,,,,,,,,,,,,,,,,,,,,,,,,,,,,,,,,,,,,,,,,6,0,6,0,1,,,,,,,,,,,,,
,,,,,,,,,,5b98223fbdb1df0001f1e684,36,Mężczyzna,2022-06-04_08h31.32.902,task,2021.1.4,Win32,37.60953778,628b806c463b948bc644b84f,629afbdf26540dbd3360365e,,,,,,,,,,,,,,,,,,,,,,,,,,,,,,,,,,,,,,,,,,,,,,,,,,,,,,,,,,,,,,,,,,,,,,,,,,,,,,,,,,,,,,,,,,,grdhjl,"[""g"",""r"",""d"",""h"",""j"",""l""]",0,"[1.5314999999999372,2.0556000000001404,2.3576000000000477,2.7356000000000904,3.2685000000000173,3.571100000000115,4.201800000000048]",0,GRDHHJL,7,0,7,0,1,,
,,,,,,,,,,5b98223fbdb1df0001f1e684,36,Mężczyzna,2022-06-04_08h31.32.902,task,2021.1.4,Win32,37.60953778,628b806c463b948bc644b84f,629afbdf26540dbd3360365e,,,,,,,,,,,,,,,,,,,,,,,,,,,,,,,,,,,,,,,,,,,,,,,,,,,,,,,,,,,,,,,,,,,,,,,,,,,,,,,,,,,,,,,,,,,,,,,,,,,,,,space,2.0907
