key_resp_15.keys,key_resp_15.rt,key_resp_13.keys,key_resp_13.corr,key_resp_13.rt,ranodm_loop.thisRepN,ranodm_loop.thisTrialN,ranodm_loop.thisN,ranodm_loop.thisIndex,ranodm_loop.ran,participant,Wiek*,Płeć,date,expName,psychopyVersion,OS,frameRate,study_id,session,key_resp_16.keys,key_resp_16.rt,key_resp_4.keys,key_resp_4.rt,next_letter.thisRepN,next_letter.thisTrialN,next_letter.thisN,next_letter.thisIndex,next_letter.ran,letter,simple_recall,key_resp_5.keys,key_resp_5.rt,simple_recall_corr,simple_recall_corrkeys,next_level.thisRepN,next_level.thisTrialN,next_level.thisN,next_level.thisIndex,next_level.ran,key_resp_2.keys,key_resp_2.rt,digit_answer,key_resp.keys,key_resp.corr,key_resp.rt,RT_list,next_equation.thisRepN,next_equation.thisTrialN,next_equation.thisN,next_equation.thisIndex,next_equation.ran,Task,Trial,Problem,Operation_answer,processing_score,sumRT,meanRT,sumdiff,sd,RT,key_resp_3.keys,key_resp_3.rt,repeat_practice.thisRepN,repeat_practice.thisTrialN,repeat_practice.thisN,repeat_practice.thisIndex,repeat_practice.ran,key_resp_6.keys,key_resp_6.rt,key_resp_11.keys,key_resp_11.corr,operation_correct,repeat_if_wrong_prac.thisRepN,repeat_if_wrong_prac.thisTrialN,repeat_if_wrong_prac.thisN,repeat_if_wrong_prac.thisIndex,repeat_if_wrong_prac.ran,key_resp_11.rt,span_size_prac.thisRepN,span_size_prac.thisTrialN,span_size_prac.thisN,span_size_prac.thisIndex,span_size_prac.ran,complex_recall_practice,key_resp_9.keys,key_resp_9.corr,key_resp_9.rt,complex_prac_corr,span_recall_prac.thisRepN,span_recall_prac.thisTrialN,span_recall_prac.thisN,span_recall_prac.thisIndex,span_recall_prac.ran,key_resp_10.keys,key_resp_10.rt,key_resp_7.keys,key_resp_7.corr,key_resp_7.rt,repeat_if_wrong.thisRepN,repeat_if_wrong.thisTrialN,repeat_if_wrong.thisN,repeat_if_wrong.thisIndex,repeat_if_wrong.ran,span_size.thisRepN,span_size.thisTrialN,span_size.thisN,span_size.thisIndex,span_size.ran,complex_recall,key_resp_8.keys,key_resp_8.corr,key_resp_8.rt,complex_recall_corr,complex_recall_corrkeys,span_recall.thisRepN,span_recall.thisTrialN,span_recall.thisN,span_recall.thisIndex,span_recall.ran,key_resp_12.keys,key_resp_12.rt
space,1.6229,"[""comma""]",0,[0.9221999999880808],0,0,0,0,1,5b9e401bf074140001051957,49,Mężczyzna,2022-05-28_09h24.24.941,task,2021.1.4,Win32,59.98440405,628b806c463b948bc644b84f,6291cc99f1c19bb8a9e25cca,,,,,,,,,,,,,,,,,,,,,,,,,,,,,,,,,,,,,,,,,,,,,,,,,,,,,,,,,,,,,,,,,,,,,,,,,,,,,,,,,,,,,,,,,,,,,,,,,,,,,,,
,,"[""comma""]",0,[0.5245000000000033],1,0,1,0,1,5b9e401bf074140001051957,49,Mężczyzna,2022-05-28_09h24.24.941,task,2021.1.4,Win32,59.98440405,628b806c463b948bc644b84f,6291cc99f1c19bb8a9e25cca,,,,,,,,,,,,,,,,,,,,,,,,,,,,,,,,,,,,,,,,,,,,,,,,,,,,,,,,,,,,,,,,,,,,,,,,,,,,,,,,,,,,,,,,,,,,,,,,,,,,,,,
,,"[""period""]",0,[0.3752000000029767],2,0,2,0,1,5b9e401bf074140001051957,49,Mężczyzna,2022-05-28_09h24.24.941,task,2021.1.4,Win32,59.98440405,628b806c463b948bc644b84f,6291cc99f1c19bb8a9e25cca,,,,,,,,,,,,,,,,,,,,,,,,,,,,,,,,,,,,,,,,,,,,,,,,,,,,,,,,,,,,,,,,,,,,,,,,,,,,,,,,,,,,,,,,,,,,,,,,,,,,,,,
,,"[""period""]",0,[0.27389999999104475],3,0,3,0,1,5b9e401bf074140001051957,49,Mężczyzna,2022-05-28_09h24.24.941,task,2021.1.4,Win32,59.98440405,628b806c463b948bc644b84f,6291cc99f1c19bb8a9e25cca,,,,,,,,,,,,,,,,,,,,,,,,,,,,,,,,,,,,,,,,,,,,,,,,,,,,,,,,,,,,,,,,,,,,,,,,,,,,,,,,,,,,,,,,,,,,,,,,,,,,,,,
,,"[""period""]",0,[0.2732999999970218],4,0,4,0,1,5b9e401bf074140001051957,49,Mężczyzna,2022-05-28_09h24.24.941,task,2021.1.4,Win32,59.98440405,628b806c463b948bc644b84f,6291cc99f1c19bb8a9e25cca,,,,,,,,,,,,,,,,,,,,,,,,,,,,,,,,,,,,,,,,,,,,,,,,,,,,,,,,,,,,,,,,,,,,,,,,,,,,,,,,,,,,,,,,,,,,,,,,,,,,,,,
,,"[""period""]",0,[0.27279999999703364],5,0,5,0,1,5b9e401bf074140001051957,49,Mężczyzna,2022-05-28_09h24.24.941,task,2021.1.4,Win32,59.98440405,628b806c463b948bc644b84f,6291cc99f1c19bb8a9e25cca,,,,,,,,,,,,,,,,,,,,,,,,,,,,,,,,,,,,,,,,,,,,,,,,,,,,,,,,,,,,,,,,,,,,,,,,,,,,,,,,,,,,,,,,,,,,,,,,,,,,,,,
,,"[""period""]",0,[0.23540000000593864],6,0,6,0,1,5b9e401bf074140001051957,49,Mężczyzna,2022-05-28_09h24.24.941,task,2021.1.4,Win32,59.98440405,628b806c463b948bc644b84f,6291cc99f1c19bb8a9e25cca,,,,,,,,,,,,,,,,,,,,,,,,,,,,,,,,,,,,,,,,,,,,,,,,,,,,,,,,,,,,,,,,,,,,,,,,,,,,,,,,,,,,,,,,,,,,,,,,,,,,,,,
,,"[""comma""]",0,[0.1292000000029816],7,0,7,0,1,5b9e401bf074140001051957,49,Mężczyzna,2022-05-28_09h24.24.941,task,2021.1.4,Win32,59.98440405,628b806c463b948bc644b84f,6291cc99f1c19bb8a9e25cca,,,,,,,,,,,,,,,,,,,,,,,,,,,,,,,,,,,,,,,,,,,,,,,,,,,,,,,,,,,,,,,,,,,,,,,,,,,,,,,,,,,,,,,,,,,,,,,,,,,,,,,
,,"[""comma""]",0,[0.2949999999999875],8,0,8,0,1,5b9e401bf074140001051957,49,Mężczyzna,2022-05-28_09h24.24.941,task,2021.1.4,Win32,59.98440405,628b806c463b948bc644b84f,6291cc99f1c19bb8a9e25cca,,,,,,,,,,,,,,,,,,,,,,,,,,,,,,,,,,,,,,,,,,,,,,,,,,,,,,,,,,,,,,,,,,,,,,,,,,,,,,,,,,,,,,,,,,,,,,,,,,,,,,,
,,"[""comma""]",0,[0.25309999999402066],9,0,9,0,1,5b9e401bf074140001051957,49,Mężczyzna,2022-05-28_09h24.24.941,task,2021.1.4,Win32,59.98440405,628b806c463b948bc644b84f,6291cc99f1c19bb8a9e25cca,,,,,,,,,,,,,,,,,,,,,,,,,,,,,,,,,,,,,,,,,,,,,,,,,,,,,,,,,,,,,,,,,,,,,,,,,,,,,,,,,,,,,,,,,,,,,,,,,,,,,,,
,,"[""comma""]",0,[0.2920999999940648],10,0,10,0,1,5b9e401bf074140001051957,49,Mężczyzna,2022-05-28_09h24.24.941,task,2021.1.4,Win32,59.98440405,628b806c463b948bc644b84f,6291cc99f1c19bb8a9e25cca,,,,,,,,,,,,,,,,,,,,,,,,,,,,,,,,,,,,,,,,,,,,,,,,,,,,,,,,,,,,,,,,,,,,,,,,,,,,,,,,,,,,,,,,,,,,,,,,,,,,,,,
,,"[""period""]",0,[0.35079999999700817],11,0,11,0,1,5b9e401bf074140001051957,49,Mężczyzna,2022-05-28_09h24.24.941,task,2021.1.4,Win32,59.98440405,628b806c463b948bc644b84f,6291cc99f1c19bb8a9e25cca,,,,,,,,,,,,,,,,,,,,,,,,,,,,,,,,,,,,,,,,,,,,,,,,,,,,,,,,,,,,,,,,,,,,,,,,,,,,,,,,,,,,,,,,,,,,,,,,,,,,,,,
,,"[""period""]",0,[0.27720000000297773],12,0,12,0,1,5b9e401bf074140001051957,49,Mężczyzna,2022-05-28_09h24.24.941,task,2021.1.4,Win32,59.98440405,628b806c463b948bc644b84f,6291cc99f1c19bb8a9e25cca,,,,,,,,,,,,,,,,,,,,,,,,,,,,,,,,,,,,,,,,,,,,,,,,,,,,,,,,,,,,,,,,,,,,,,,,,,,,,,,,,,,,,,,,,,,,,,,,,,,,,,,
,,"[""period""]",0,[0.28400000000002024],13,0,13,0,1,5b9e401bf074140001051957,49,Mężczyzna,2022-05-28_09h24.24.941,task,2021.1.4,Win32,59.98440405,628b806c463b948bc644b84f,6291cc99f1c19bb8a9e25cca,,,,,,,,,,,,,,,,,,,,,,,,,,,,,,,,,,,,,,,,,,,,,,,,,,,,,,,,,,,,,,,,,,,,,,,,,,,,,,,,,,,,,,,,,,,,,,,,,,,,,,,
,,"[""period""]",0,[0.20579999999702636],14,0,14,0,1,5b9e401bf074140001051957,49,Mężczyzna,2022-05-28_09h24.24.941,task,2021.1.4,Win32,59.98440405,628b806c463b948bc644b84f,6291cc99f1c19bb8a9e25cca,,,,,,,,,,,,,,,,,,,,,,,,,,,,,,,,,,,,,,,,,,,,,,,,,,,,,,,,,,,,,,,,,,,,,,,,,,,,,,,,,,,,,,,,,,,,,,,,,,,,,,,
,,"[""period"",""period""]",0,"[0.06040000000595569,1.7737000000029752]",15,0,15,0,1,5b9e401bf074140001051957,49,Mężczyzna,2022-05-28_09h24.24.941,task,2021.1.4,Win32,59.98440405,628b806c463b948bc644b84f,6291cc99f1c19bb8a9e25cca,,,,,,,,,,,,,,,,,,,,,,,,,,,,,,,,,,,,,,,,,,,,,,,,,,,,,,,,,,,,,,,,,,,,,,,,,,,,,,,,,,,,,,,,,,,,,,,,,,,,,,,
,,,0,,16,0,16,0,1,5b9e401bf074140001051957,49,Mężczyzna,2022-05-28_09h24.24.941,task,2021.1.4,Win32,59.98440405,628b806c463b948bc644b84f,6291cc99f1c19bb8a9e25cca,,,,,,,,,,,,,,,,,,,,,,,,,,,,,,,,,,,,,,,,,,,,,,,,,,,,,,,,,,,,,,,,,,,,,,,,,,,,,,,,,,,,,,,,,,,,,,,,,,,,,,,
,,"[""period"",""comma""]",0,"[0.26879999999701454,1.9765999999940504]",17,0,17,0,1,5b9e401bf074140001051957,49,Mężczyzna,2022-05-28_09h24.24.941,task,2021.1.4,Win32,59.98440405,628b806c463b948bc644b84f,6291cc99f1c19bb8a9e25cca,,,,,,,,,,,,,,,,,,,,,,,,,,,,,,,,,,,,,,,,,,,,,,,,,,,,,,,,,,,,,,,,,,,,,,,,,,,,,,,,,,,,,,,,,,,,,,,,,,,,,,,
,,"[""comma""]",0,[1.9464999999999861],18,0,18,0,1,5b9e401bf074140001051957,49,Mężczyzna,2022-05-28_09h24.24.941,task,2021.1.4,Win32,59.98440405,628b806c463b948bc644b84f,6291cc99f1c19bb8a9e25cca,,,,,,,,,,,,,,,,,,,,,,,,,,,,,,,,,,,,,,,,,,,,,,,,,,,,,,,,,,,,,,,,,,,,,,,,,,,,,,,,,,,,,,,,,,,,,,,,,,,,,,,
,,,0,,19,0,19,0,1,5b9e401bf074140001051957,49,Mężczyzna,2022-05-28_09h24.24.941,task,2021.1.4,Win32,59.98440405,628b806c463b948bc644b84f,6291cc99f1c19bb8a9e25cca,,,,,,,,,,,,,,,,,,,,,,,,,,,,,,,,,,,,,,,,,,,,,,,,,,,,,,,,,,,,,,,,,,,,,,,,,,,,,,,,,,,,,,,,,,,,,,,,,,,,,,,
,,"[""comma""]",0,[0.22489999999103816],20,0,20,0,1,5b9e401bf074140001051957,49,Mężczyzna,2022-05-28_09h24.24.941,task,2021.1.4,Win32,59.98440405,628b806c463b948bc644b84f,6291cc99f1c19bb8a9e25cca,,,,,,,,,,,,,,,,,,,,,,,,,,,,,,,,,,,,,,,,,,,,,,,,,,,,,,,,,,,,,,,,,,,,,,,,,,,,,,,,,,,,,,,,,,,,,,,,,,,,,,,
,,"[""period""]",0,[0.34950000000000614],21,0,21,0,1,5b9e401bf074140001051957,49,Mężczyzna,2022-05-28_09h24.24.941,task,2021.1.4,Win32,59.98440405,628b806c463b948bc644b84f,6291cc99f1c19bb8a9e25cca,,,,,,,,,,,,,,,,,,,,,,,,,,,,,,,,,,,,,,,,,,,,,,,,,,,,,,,,,,,,,,,,,,,,,,,,,,,,,,,,,,,,,,,,,,,,,,,,,,,,,,,
,,"[""period""]",0,[0.26229999999702613],22,0,22,0,1,5b9e401bf074140001051957,49,Mężczyzna,2022-05-28_09h24.24.941,task,2021.1.4,Win32,59.98440405,628b806c463b948bc644b84f,6291cc99f1c19bb8a9e25cca,,,,,,,,,,,,,,,,,,,,,,,,,,,,,,,,,,,,,,,,,,,,,,,,,,,,,,,,,,,,,,,,,,,,,,,,,,,,,,,,,,,,,,,,,,,,,,,,,,,,,,,
,,"[""period""]",0,[0.24399999999999977],23,0,23,0,1,5b9e401bf074140001051957,49,Mężczyzna,2022-05-28_09h24.24.941,task,2021.1.4,Win32,59.98440405,628b806c463b948bc644b84f,6291cc99f1c19bb8a9e25cca,,,,,,,,,,,,,,,,,,,,,,,,,,,,,,,,,,,,,,,,,,,,,,,,,,,,,,,,,,,,,,,,,,,,,,,,,,,,,,,,,,,,,,,,,,,,,,,,,,,,,,,
,,"[""period""]",0,[0.18709999999404658],24,0,24,0,1,5b9e401bf074140001051957,49,Mężczyzna,2022-05-28_09h24.24.941,task,2021.1.4,Win32,59.98440405,628b806c463b948bc644b84f,6291cc99f1c19bb8a9e25cca,,,,,,,,,,,,,,,,,,,,,,,,,,,,,,,,,,,,,,,,,,,,,,,,,,,,,,,,,,,,,,,,,,,,,,,,,,,,,,,,,,,,,,,,,,,,,,,,,,,,,,,
,,"[""period""]",0,[0.15070000000298478],25,0,25,0,1,5b9e401bf074140001051957,49,Mężczyzna,2022-05-28_09h24.24.941,task,2021.1.4,Win32,59.98440405,628b806c463b948bc644b84f,6291cc99f1c19bb8a9e25cca,,,,,,,,,,,,,,,,,,,,,,,,,,,,,,,,,,,,,,,,,,,,,,,,,,,,,,,,,,,,,,,,,,,,,,,,,,,,,,,,,,,,,,,,,,,,,,,,,,,,,,,
,,"[""period""]",0,[0.12340000000594387],26,0,26,0,1,5b9e401bf074140001051957,49,Mężczyzna,2022-05-28_09h24.24.941,task,2021.1.4,Win32,59.98440405,628b806c463b948bc644b84f,6291cc99f1c19bb8a9e25cca,,,,,,,,,,,,,,,,,,,,,,,,,,,,,,,,,,,,,,,,,,,,,,,,,,,,,,,,,,,,,,,,,,,,,,,,,,,,,,,,,,,,,,,,,,,,,,,,,,,,,,,
,,"[""comma"",""comma""]",0,"[0.054899999991079085,1.95150000000001]",27,0,27,0,1,5b9e401bf074140001051957,49,Mężczyzna,2022-05-28_09h24.24.941,task,2021.1.4,Win32,59.98440405,628b806c463b948bc644b84f,6291cc99f1c19bb8a9e25cca,,,,,,,,,,,,,,,,,,,,,,,,,,,,,,,,,,,,,,,,,,,,,,,,,,,,,,,,,,,,,,,,,,,,,,,,,,,,,,,,,,,,,,,,,,,,,,,,,,,,,,,
,,,0,,28,0,28,0,1,5b9e401bf074140001051957,49,Mężczyzna,2022-05-28_09h24.24.941,task,2021.1.4,Win32,59.98440405,628b806c463b948bc644b84f,6291cc99f1c19bb8a9e25cca,,,,,,,,,,,,,,,,,,,,,,,,,,,,,,,,,,,,,,,,,,,,,,,,,,,,,,,,,,,,,,,,,,,,,,,,,,,,,,,,,,,,,,,,,,,,,,,,,,,,,,,
,,"[""comma"",""comma""]",0,"[-0.007200000002967499,1.9202999999970132]",29,0,29,0,1,5b9e401bf074140001051957,49,Mężczyzna,2022-05-28_09h24.24.941,task,2021.1.4,Win32,59.98440405,628b806c463b948bc644b84f,6291cc99f1c19bb8a9e25cca,,,,,,,,,,,,,,,,,,,,,,,,,,,,,,,,,,,,,,,,,,,,,,,,,,,,,,,,,,,,,,,,,,,,,,,,,,,,,,,,,,,,,,,,,,,,,,,,,,,,,,,
,,,0,,30,0,30,0,1,5b9e401bf074140001051957,49,Mężczyzna,2022-05-28_09h24.24.941,task,2021.1.4,Win32,59.98440405,628b806c463b948bc644b84f,6291cc99f1c19bb8a9e25cca,,,,,,,,,,,,,,,,,,,,,,,,,,,,,,,,,,,,,,,,,,,,,,,,,,,,,,,,,,,,,,,,,,,,,,,,,,,,,,,,,,,,,,,,,,,,,,,,,,,,,,,
,,"[""comma"",""period""]",0,"[0.04969999998809271,1.9670999999940477]",31,0,31,0,1,5b9e401bf074140001051957,49,Mężczyzna,2022-05-28_09h24.24.941,task,2021.1.4,Win32,59.98440405,628b806c463b948bc644b84f,6291cc99f1c19bb8a9e25cca,,,,,,,,,,,,,,,,,,,,,,,,,,,,,,,,,,,,,,,,,,,,,,,,,,,,,,,,,,,,,,,,,,,,,,,,,,,,,,,,,,,,,,,,,,,,,,,,,,,,,,,
,,,0,,32,0,32,0,1,5b9e401bf074140001051957,49,Mężczyzna,2022-05-28_09h24.24.941,task,2021.1.4,Win32,59.98440405,628b806c463b948bc644b84f,6291cc99f1c19bb8a9e25cca,,,,,,,,,,,,,,,,,,,,,,,,,,,,,,,,,,,,,,,,,,,,,,,,,,,,,,,,,,,,,,,,,,,,,,,,,,,,,,,,,,,,,,,,,,,,,,,,,,,,,,,
,,"[""period""]",0,[0.055999999999983174],33,0,33,0,1,5b9e401bf074140001051957,49,Mężczyzna,2022-05-28_09h24.24.941,task,2021.1.4,Win32,59.98440405,628b806c463b948bc644b84f,6291cc99f1c19bb8a9e25cca,,,,,,,,,,,,,,,,,,,,,,,,,,,,,,,,,,,,,,,,,,,,,,,,,,,,,,,,,,,,,,,,,,,,,,,,,,,,,,,,,,,,,,,,,,,,,,,,,,,,,,,
,,"[""comma"",""comma""]",0,"[0.09110000000893592,1.9502999999970143]",34,0,34,0,1,5b9e401bf074140001051957,49,Mężczyzna,2022-05-28_09h24.24.941,task,2021.1.4,Win32,59.98440405,628b806c463b948bc644b84f,6291cc99f1c19bb8a9e25cca,,,,,,,,,,,,,,,,,,,,,,,,,,,,,,,,,,,,,,,,,,,,,,,,,,,,,,,,,,,,,,,,,,,,,,,,,,,,,,,,,,,,,,,,,,,,,,,,,,,,,,,
,,,0,,35,0,35,0,1,5b9e401bf074140001051957,49,Mężczyzna,2022-05-28_09h24.24.941,task,2021.1.4,Win32,59.98440405,628b806c463b948bc644b84f,6291cc99f1c19bb8a9e25cca,,,,,,,,,,,,,,,,,,,,,,,,,,,,,,,,,,,,,,,,,,,,,,,,,,,,,,,,,,,,,,,,,,,,,,,,,,,,,,,,,,,,,,,,,,,,,,,,,,,,,,,
,,"[""period""]",0,[0.043000000000006366],36,0,36,0,1,5b9e401bf074140001051957,49,Mężczyzna,2022-05-28_09h24.24.941,task,2021.1.4,Win32,59.98440405,628b806c463b948bc644b84f,6291cc99f1c19bb8a9e25cca,,,,,,,,,,,,,,,,,,,,,,,,,,,,,,,,,,,,,,,,,,,,,,,,,,,,,,,,,,,,,,,,,,,,,,,,,,,,,,,,,,,,,,,,,,,,,,,,,,,,,,,
,,"[""period"",""period""]",0,"[0.003999999999990678,1.8968000000119218]",37,0,37,0,1,5b9e401bf074140001051957,49,Mężczyzna,2022-05-28_09h24.24.941,task,2021.1.4,Win32,59.98440405,628b806c463b948bc644b84f,6291cc99f1c19bb8a9e25cca,,,,,,,,,,,,,,,,,,,,,,,,,,,,,,,,,,,,,,,,,,,,,,,,,,,,,,,,,,,,,,,,,,,,,,,,,,,,,,,,,,,,,,,,,,,,,,,,,,,,,,,
,,"[""period""]",0,[1.9189000000059764],38,0,38,0,1,5b9e401bf074140001051957,49,Mężczyzna,2022-05-28_09h24.24.941,task,2021.1.4,Win32,59.98440405,628b806c463b948bc644b84f,6291cc99f1c19bb8a9e25cca,,,,,,,,,,,,,,,,,,,,,,,,,,,,,,,,,,,,,,,,,,,,,,,,,,,,,,,,,,,,,,,,,,,,,,,,,,,,,,,,,,,,,,,,,,,,,,,,,,,,,,,
,,,0,,39,0,39,0,1,5b9e401bf074140001051957,49,Mężczyzna,2022-05-28_09h24.24.941,task,2021.1.4,Win32,59.98440405,628b806c463b948bc644b84f,6291cc99f1c19bb8a9e25cca,,,,,,,,,,,,,,,,,,,,,,,,,,,,,,,,,,,,,,,,,,,,,,,,,,,,,,,,,,,,,,,,,,,,,,,,,,,,,,,,,,,,,,,,,,,,,,,,,,,,,,,
,,"[""period""]",0,[0.05340000000595069],40,0,40,0,1,5b9e401bf074140001051957,49,Mężczyzna,2022-05-28_09h24.24.941,task,2021.1.4,Win32,59.98440405,628b806c463b948bc644b84f,6291cc99f1c19bb8a9e25cca,,,,,,,,,,,,,,,,,,,,,,,,,,,,,,,,,,,,,,,,,,,,,,,,,,,,,,,,,,,,,,,,,,,,,,,,,,,,,,,,,,,,,,,,,,,,,,,,,,,,,,,
,,"[""comma""]",0,[0.13580000001192616],41,0,41,0,1,5b9e401bf074140001051957,49,Mężczyzna,2022-05-28_09h24.24.941,task,2021.1.4,Win32,59.98440405,628b806c463b948bc644b84f,6291cc99f1c19bb8a9e25cca,,,,,,,,,,,,,,,,,,,,,,,,,,,,,,,,,,,,,,,,,,,,,,,,,,,,,,,,,,,,,,,,,,,,,,,,,,,,,,,,,,,,,,,,,,,,,,,,,,,,,,,
,,"[""comma""]",0,[0.05170000000299524],42,0,42,0,1,5b9e401bf074140001051957,49,Mężczyzna,2022-05-28_09h24.24.941,task,2021.1.4,Win32,59.98440405,628b806c463b948bc644b84f,6291cc99f1c19bb8a9e25cca,,,,,,,,,,,,,,,,,,,,,,,,,,,,,,,,,,,,,,,,,,,,,,,,,,,,,,,,,,,,,,,,,,,,,,,,,,,,,,,,,,,,,,,,,,,,,,,,,,,,,,,
,,"[""comma""]",0,[0.2009999999999934],43,0,43,0,1,5b9e401bf074140001051957,49,Mężczyzna,2022-05-28_09h24.24.941,task,2021.1.4,Win32,59.98440405,628b806c463b948bc644b84f,6291cc99f1c19bb8a9e25cca,,,,,,,,,,,,,,,,,,,,,,,,,,,,,,,,,,,,,,,,,,,,,,,,,,,,,,,,,,,,,,,,,,,,,,,,,,,,,,,,,,,,,,,,,,,,,,,,,,,,,,,
,,"[""comma""]",0,[0.03509999999403135],44,0,44,0,1,5b9e401bf074140001051957,49,Mężczyzna,2022-05-28_09h24.24.941,task,2021.1.4,Win32,59.98440405,628b806c463b948bc644b84f,6291cc99f1c19bb8a9e25cca,,,,,,,,,,,,,,,,,,,,,,,,,,,,,,,,,,,,,,,,,,,,,,,,,,,,,,,,,,,,,,,,,,,,,,,,,,,,,,,,,,,,,,,,,,,,,,,,,,,,,,,
,,"[""comma""]",0,[0.1506999999880918],45,0,45,0,1,5b9e401bf074140001051957,49,Mężczyzna,2022-05-28_09h24.24.941,task,2021.1.4,Win32,59.98440405,628b806c463b948bc644b84f,6291cc99f1c19bb8a9e25cca,,,,,,,,,,,,,,,,,,,,,,,,,,,,,,,,,,,,,,,,,,,,,,,,,,,,,,,,,,,,,,,,,,,,,,,,,,,,,,,,,,,,,,,,,,,,,,,,,,,,,,,
,,"[""period""]",0,[0.0007000000030075171],46,0,46,0,1,5b9e401bf074140001051957,49,Mężczyzna,2022-05-28_09h24.24.941,task,2021.1.4,Win32,59.98440405,628b806c463b948bc644b84f,6291cc99f1c19bb8a9e25cca,,,,,,,,,,,,,,,,,,,,,,,,,,,,,,,,,,,,,,,,,,,,,,,,,,,,,,,,,,,,,,,,,,,,,,,,,,,,,,,,,,,,,,,,,,,,,,,,,,,,,,,
,,"[""period""]",0,[0.10059999999404567],47,0,47,0,1,5b9e401bf074140001051957,49,Mężczyzna,2022-05-28_09h24.24.941,task,2021.1.4,Win32,59.98440405,628b806c463b948bc644b84f,6291cc99f1c19bb8a9e25cca,,,,,,,,,,,,,,,,,,,,,,,,,,,,,,,,,,,,,,,,,,,,,,,,,,,,,,,,,,,,,,,,,,,,,,,,,,,,,,,,,,,,,,,,,,,,,,,,,,,,,,,
,,"[""period""]",0,[-0.008200000002972274],48,0,48,0,1,5b9e401bf074140001051957,49,Mężczyzna,2022-05-28_09h24.24.941,task,2021.1.4,Win32,59.98440405,628b806c463b948bc644b84f,6291cc99f1c19bb8a9e25cca,,,,,,,,,,,,,,,,,,,,,,,,,,,,,,,,,,,,,,,,,,,,,,,,,,,,,,,,,,,,,,,,,,,,,,,,,,,,,,,,,,,,,,,,,,,,,,,,,,,,,,,
,,"[""period"",""period""]",0,"[0.1672000000029925,1.7279000000059739]",49,0,49,0,1,5b9e401bf074140001051957,49,Mężczyzna,2022-05-28_09h24.24.941,task,2021.1.4,Win32,59.98440405,628b806c463b948bc644b84f,6291cc99f1c19bb8a9e25cca,,,,,,,,,,,,,,,,,,,,,,,,,,,,,,,,,,,,,,,,,,,,,,,,,,,,,,,,,,,,,,,,,,,,,,,,,,,,,,,,,,,,,,,,,,,,,,,,,,,,,,,
,,"[""comma""]",0,[1.8237999999970214],50,0,50,0,1,5b9e401bf074140001051957,49,Mężczyzna,2022-05-28_09h24.24.941,task,2021.1.4,Win32,59.98440405,628b806c463b948bc644b84f,6291cc99f1c19bb8a9e25cca,,,,,,,,,,,,,,,,,,,,,,,,,,,,,,,,,,,,,,,,,,,,,,,,,,,,,,,,,,,,,,,,,,,,,,,,,,,,,,,,,,,,,,,,,,,,,,,,,,,,,,,
,,"[""comma""]",0,[1.9761000000089268],51,0,51,0,1,5b9e401bf074140001051957,49,Mężczyzna,2022-05-28_09h24.24.941,task,2021.1.4,Win32,59.98440405,628b806c463b948bc644b84f,6291cc99f1c19bb8a9e25cca,,,,,,,,,,,,,,,,,,,,,,,,,,,,,,,,,,,,,,,,,,,,,,,,,,,,,,,,,,,,,,,,,,,,,,,,,,,,,,,,,,,,,,,,,,,,,,,,,,,,,,,
,,"[""comma""]",0,[1.8285000000000196],52,0,52,0,1,5b9e401bf074140001051957,49,Mężczyzna,2022-05-28_09h24.24.941,task,2021.1.4,Win32,59.98440405,628b806c463b948bc644b84f,6291cc99f1c19bb8a9e25cca,,,,,,,,,,,,,,,,,,,,,,,,,,,,,,,,,,,,,,,,,,,,,,,,,,,,,,,,,,,,,,,,,,,,,,,,,,,,,,,,,,,,,,,,,,,,,,,,,,,,,,,
,,,0,,53,0,53,0,1,5b9e401bf074140001051957,49,Mężczyzna,2022-05-28_09h24.24.941,task,2021.1.4,Win32,59.98440405,628b806c463b948bc644b84f,6291cc99f1c19bb8a9e25cca,,,,,,,,,,,,,,,,,,,,,,,,,,,,,,,,,,,,,,,,,,,,,,,,,,,,,,,,,,,,,,,,,,,,,,,,,,,,,,,,,,,,,,,,,,,,,,,,,,,,,,,
,,"[""comma"",""period""]",0,"[0.07540000000597047,1.7501000000089277]",54,0,54,0,1,5b9e401bf074140001051957,49,Mężczyzna,2022-05-28_09h24.24.941,task,2021.1.4,Win32,59.98440405,628b806c463b948bc644b84f,6291cc99f1c19bb8a9e25cca,,,,,,,,,,,,,,,,,,,,,,,,,,,,,,,,,,,,,,,,,,,,,,,,,,,,,,,,,,,,,,,,,,,,,,,,,,,,,,,,,,,,,,,,,,,,,,,,,,,,,,,
,,,0,,55,0,55,0,1,5b9e401bf074140001051957,49,Mężczyzna,2022-05-28_09h24.24.941,task,2021.1.4,Win32,59.98440405,628b806c463b948bc644b84f,6291cc99f1c19bb8a9e25cca,,,,,,,,,,,,,,,,,,,,,,,,,,,,,,,,,,,,,,,,,,,,,,,,,,,,,,,,,,,,,,,,,,,,,,,,,,,,,,,,,,,,,,,,,,,,,,,,,,,,,,,
,,"[""period""]",0,[0.28889999999105953],56,0,56,0,1,5b9e401bf074140001051957,49,Mężczyzna,2022-05-28_09h24.24.941,task,2021.1.4,Win32,59.98440405,628b806c463b948bc644b84f,6291cc99f1c19bb8a9e25cca,,,,,,,,,,,,,,,,,,,,,,,,,,,,,,,,,,,,,,,,,,,,,,,,,,,,,,,,,,,,,,,,,,,,,,,,,,,,,,,,,,,,,,,,,,,,,,,,,,,,,,,
,,"[""period""]",0,[0.08029999999703819],57,0,57,0,1,5b9e401bf074140001051957,49,Mężczyzna,2022-05-28_09h24.24.941,task,2021.1.4,Win32,59.98440405,628b806c463b948bc644b84f,6291cc99f1c19bb8a9e25cca,,,,,,,,,,,,,,,,,,,,,,,,,,,,,,,,,,,,,,,,,,,,,,,,,,,,,,,,,,,,,,,,,,,,,,,,,,,,,,,,,,,,,,,,,,,,,,,,,,,,,,,
,,"[""period"",""period""]",0,"[0.18289999999103657,1.9040999999940311]",58,0,58,0,1,5b9e401bf074140001051957,49,Mężczyzna,2022-05-28_09h24.24.941,task,2021.1.4,Win32,59.98440405,628b806c463b948bc644b84f,6291cc99f1c19bb8a9e25cca,,,,,,,,,,,,,,,,,,,,,,,,,,,,,,,,,,,,,,,,,,,,,,,,,,,,,,,,,,,,,,,,,,,,,,,,,,,,,,,,,,,,,,,,,,,,,,,,,,,,,,,
,,,0,,59,0,59,0,1,5b9e401bf074140001051957,49,Mężczyzna,2022-05-28_09h24.24.941,task,2021.1.4,Win32,59.98440405,628b806c463b948bc644b84f,6291cc99f1c19bb8a9e25cca,,,,,,,,,,,,,,,,,,,,,,,,,,,,,,,,,,,,,,,,,,,,,,,,,,,,,,,,,,,,,,,,,,,,,,,,,,,,,,,,,,,,,,,,,,,,,,,,,,,,,,,
,,"[""comma""]",0,[0.3672999999970159],60,0,60,0,1,5b9e401bf074140001051957,49,Mężczyzna,2022-05-28_09h24.24.941,task,2021.1.4,Win32,59.98440405,628b806c463b948bc644b84f,6291cc99f1c19bb8a9e25cca,,,,,,,,,,,,,,,,,,,,,,,,,,,,,,,,,,,,,,,,,,,,,,,,,,,,,,,,,,,,,,,,,,,,,,,,,,,,,,,,,,,,,,,,,,,,,,,,,,,,,,,
,,"[""comma"",""comma""]",0,"[0.05570000000298592,1.9259999999999877]",61,0,61,0,1,5b9e401bf074140001051957,49,Mężczyzna,2022-05-28_09h24.24.941,task,2021.1.4,Win32,59.98440405,628b806c463b948bc644b84f,6291cc99f1c19bb8a9e25cca,,,,,,,,,,,,,,,,,,,,,,,,,,,,,,,,,,,,,,,,,,,,,,,,,,,,,,,,,,,,,,,,,,,,,,,,,,,,,,,,,,,,,,,,,,,,,,,,,,,,,,,
,,,0,,62,0,62,0,1,5b9e401bf074140001051957,49,Mężczyzna,2022-05-28_09h24.24.941,task,2021.1.4,Win32,59.98440405,628b806c463b948bc644b84f,6291cc99f1c19bb8a9e25cca,,,,,,,,,,,,,,,,,,,,,,,,,,,,,,,,,,,,,,,,,,,,,,,,,,,,,,,,,,,,,,,,,,,,,,,,,,,,,,,,,,,,,,,,,,,,,,,,,,,,,,,
,,"[""comma""]",0,[-0.010100000008947063],63,0,63,0,1,5b9e401bf074140001051957,49,Mężczyzna,2022-05-28_09h24.24.941,task,2021.1.4,Win32,59.98440405,628b806c463b948bc644b84f,6291cc99f1c19bb8a9e25cca,,,,,,,,,,,,,,,,,,,,,,,,,,,,,,,,,,,,,,,,,,,,,,,,,,,,,,,,,,,,,,,,,,,,,,,,,,,,,,,,,,,,,,,,,,,,,,,,,,,,,,,
,,"[""period""]",0,[0.011100000008951838],64,0,64,0,1,5b9e401bf074140001051957,49,Mężczyzna,2022-05-28_09h24.24.941,task,2021.1.4,Win32,59.98440405,628b806c463b948bc644b84f,6291cc99f1c19bb8a9e25cca,,,,,,,,,,,,,,,,,,,,,,,,,,,,,,,,,,,,,,,,,,,,,,,,,,,,,,,,,,,,,,,,,,,,,,,,,,,,,,,,,,,,,,,,,,,,,,,,,,,,,,,
,,"[""period""]",0,[0.06790000000594887],65,0,65,0,1,5b9e401bf074140001051957,49,Mężczyzna,2022-05-28_09h24.24.941,task,2021.1.4,Win32,59.98440405,628b806c463b948bc644b84f,6291cc99f1c19bb8a9e25cca,,,,,,,,,,,,,,,,,,,,,,,,,,,,,,,,,,,,,,,,,,,,,,,,,,,,,,,,,,,,,,,,,,,,,,,,,,,,,,,,,,,,,,,,,,,,,,,,,,,,,,,
,,"[""comma""]",0,[0.15309999999402635],66,0,66,0,1,5b9e401bf074140001051957,49,Mężczyzna,2022-05-28_09h24.24.941,task,2021.1.4,Win32,59.98440405,628b806c463b948bc644b84f,6291cc99f1c19bb8a9e25cca,,,,,,,,,,,,,,,,,,,,,,,,,,,,,,,,,,,,,,,,,,,,,,,,,,,,,,,,,,,,,,,,,,,,,,,,,,,,,,,,,,,,,,,,,,,,,,,,,,,,,,,
,,"[""comma""]",0,[0.2704999999999984],67,0,67,0,1,5b9e401bf074140001051957,49,Mężczyzna,2022-05-28_09h24.24.941,task,2021.1.4,Win32,59.98440405,628b806c463b948bc644b84f,6291cc99f1c19bb8a9e25cca,,,,,,,,,,,,,,,,,,,,,,,,,,,,,,,,,,,,,,,,,,,,,,,,,,,,,,,,,,,,,,,,,,,,,,,,,,,,,,,,,,,,,,,,,,,,,,,,,,,,,,,
,,"[""comma""]",0,[0.2847999999970341],68,0,68,0,1,5b9e401bf074140001051957,49,Mężczyzna,2022-05-28_09h24.24.941,task,2021.1.4,Win32,59.98440405,628b806c463b948bc644b84f,6291cc99f1c19bb8a9e25cca,,,,,,,,,,,,,,,,,,,,,,,,,,,,,,,,,,,,,,,,,,,,,,,,,,,,,,,,,,,,,,,,,,,,,,,,,,,,,,,,,,,,,,,,,,,,,,,,,,,,,,,
,,"[""comma""]",0,[0.2753999999910661],69,0,69,0,1,5b9e401bf074140001051957,49,Mężczyzna,2022-05-28_09h24.24.941,task,2021.1.4,Win32,59.98440405,628b806c463b948bc644b84f,6291cc99f1c19bb8a9e25cca,,,,,,,,,,,,,,,,,,,,,,,,,,,,,,,,,,,,,,,,,,,,,,,,,,,,,,,,,,,,,,,,,,,,,,,,,,,,,,,,,,,,,,,,,,,,,,,,,,,,,,,
,,"[""period""]",0,[0.1774000000059459],70,0,70,0,1,5b9e401bf074140001051957,49,Mężczyzna,2022-05-28_09h24.24.941,task,2021.1.4,Win32,59.98440405,628b806c463b948bc644b84f,6291cc99f1c19bb8a9e25cca,,,,,,,,,,,,,,,,,,,,,,,,,,,,,,,,,,,,,,,,,,,,,,,,,,,,,,,,,,,,,,,,,,,,,,,,,,,,,,,,,,,,,,,,,,,,,,,,,,,,,,,
,,"[""period""]",0,[0.28300000000001546],71,0,71,0,1,5b9e401bf074140001051957,49,Mężczyzna,2022-05-28_09h24.24.941,task,2021.1.4,Win32,59.98440405,628b806c463b948bc644b84f,6291cc99f1c19bb8a9e25cca,,,,,,,,,,,,,,,,,,,,,,,,,,,,,,,,,,,,,,,,,,,,,,,,,,,,,,,,,,,,,,,,,,,,,,,,,,,,,,,,,,,,,,,,,,,,,,,,,,,,,,,
,,"[""period""]",0,[0.2459999999999809],72,0,72,0,1,5b9e401bf074140001051957,49,Mężczyzna,2022-05-28_09h24.24.941,task,2021.1.4,Win32,59.98440405,628b806c463b948bc644b84f,6291cc99f1c19bb8a9e25cca,,,,,,,,,,,,,,,,,,,,,,,,,,,,,,,,,,,,,,,,,,,,,,,,,,,,,,,,,,,,,,,,,,,,,,,,,,,,,,,,,,,,,,,,,,,,,,,,,,,,,,,
,,"[""comma""]",0,[0.3006000000089557],73,0,73,0,1,5b9e401bf074140001051957,49,Mężczyzna,2022-05-28_09h24.24.941,task,2021.1.4,Win32,59.98440405,628b806c463b948bc644b84f,6291cc99f1c19bb8a9e25cca,,,,,,,,,,,,,,,,,,,,,,,,,,,,,,,,,,,,,,,,,,,,,,,,,,,,,,,,,,,,,,,,,,,,,,,,,,,,,,,,,,,,,,,,,,,,,,,,,,,,,,,
,,"[""comma""]",0,[0.2775000000000034],74,0,74,0,1,5b9e401bf074140001051957,49,Mężczyzna,2022-05-28_09h24.24.941,task,2021.1.4,Win32,59.98440405,628b806c463b948bc644b84f,6291cc99f1c19bb8a9e25cca,,,,,,,,,,,,,,,,,,,,,,,,,,,,,,,,,,,,,,,,,,,,,,,,,,,,,,,,,,,,,,,,,,,,,,,,,,,,,,,,,,,,,,,,,,,,,,,,,,,,,,,
,,"[""period""]",0,[0.14959999999405227],75,0,75,0,1,5b9e401bf074140001051957,49,Mężczyzna,2022-05-28_09h24.24.941,task,2021.1.4,Win32,59.98440405,628b806c463b948bc644b84f,6291cc99f1c19bb8a9e25cca,,,,,,,,,,,,,,,,,,,,,,,,,,,,,,,,,,,,,,,,,,,,,,,,,,,,,,,,,,,,,,,,,,,,,,,,,,,,,,,,,,,,,,,,,,,,,,,,,,,,,,,
,,"[""period""]",0,[0.2044999999999959],76,0,76,0,1,5b9e401bf074140001051957,49,Mężczyzna,2022-05-28_09h24.24.941,task,2021.1.4,Win32,59.98440405,628b806c463b948bc644b84f,6291cc99f1c19bb8a9e25cca,,,,,,,,,,,,,,,,,,,,,,,,,,,,,,,,,,,,,,,,,,,,,,,,,,,,,,,,,,,,,,,,,,,,,,,,,,,,,,,,,,,,,,,,,,,,,,,,,,,,,,,
,,"[""period""]",0,[0.023399999991056575],77,0,77,0,1,5b9e401bf074140001051957,49,Mężczyzna,2022-05-28_09h24.24.941,task,2021.1.4,Win32,59.98440405,628b806c463b948bc644b84f,6291cc99f1c19bb8a9e25cca,,,,,,,,,,,,,,,,,,,,,,,,,,,,,,,,,,,,,,,,,,,,,,,,,,,,,,,,,,,,,,,,,,,,,,,,,,,,,,,,,,,,,,,,,,,,,,,,,,,,,,,
,,"[""period""]",0,[0.18850000000000477],78,0,78,0,1,5b9e401bf074140001051957,49,Mężczyzna,2022-05-28_09h24.24.941,task,2021.1.4,Win32,59.98440405,628b806c463b948bc644b84f,6291cc99f1c19bb8a9e25cca,,,,,,,,,,,,,,,,,,,,,,,,,,,,,,,,,,,,,,,,,,,,,,,,,,,,,,,,,,,,,,,,,,,,,,,,,,,,,,,,,,,,,,,,,,,,,,,,,,,,,,,
,,"[""comma""]",0,[0.16749999999998977],79,0,79,0,1,5b9e401bf074140001051957,49,Mężczyzna,2022-05-28_09h24.24.941,task,2021.1.4,Win32,59.98440405,628b806c463b948bc644b84f,6291cc99f1c19bb8a9e25cca,,,,,,,,,,,,,,,,,,,,,,,,,,,,,,,,,,,,,,,,,,,,,,,,,,,,,,,,,,,,,,,,,,,,,,,,,,,,,,,,,,,,,,,,,,,,,,,,,,,,,,,
,,"[""comma"",""comma""]",0,"[0.008000000000009777,1.5872999999970148]",80,0,80,0,1,5b9e401bf074140001051957,49,Mężczyzna,2022-05-28_09h24.24.941,task,2021.1.4,Win32,59.98440405,628b806c463b948bc644b84f,6291cc99f1c19bb8a9e25cca,,,,,,,,,,,,,,,,,,,,,,,,,,,,,,,,,,,,,,,,,,,,,,,,,,,,,,,,,,,,,,,,,,,,,,,,,,,,,,,,,,,,,,,,,,,,,,,,,,,,,,,
,,,0,,81,0,81,0,1,5b9e401bf074140001051957,49,Mężczyzna,2022-05-28_09h24.24.941,task,2021.1.4,Win32,59.98440405,628b806c463b948bc644b84f,6291cc99f1c19bb8a9e25cca,,,,,,,,,,,,,,,,,,,,,,,,,,,,,,,,,,,,,,,,,,,,,,,,,,,,,,,,,,,,,,,,,,,,,,,,,,,,,,,,,,,,,,,,,,,,,,,,,,,,,,,
,,"[""comma""]",0,[0.4232999999969991],82,0,82,0,1,5b9e401bf074140001051957,49,Mężczyzna,2022-05-28_09h24.24.941,task,2021.1.4,Win32,59.98440405,628b806c463b948bc644b84f,6291cc99f1c19bb8a9e25cca,,,,,,,,,,,,,,,,,,,,,,,,,,,,,,,,,,,,,,,,,,,,,,,,,,,,,,,,,,,,,,,,,,,,,,,,,,,,,,,,,,,,,,,,,,,,,,,,,,,,,,,
,,"[""comma""]",0,[0.40190000000595205],83,0,83,0,1,5b9e401bf074140001051957,49,Mężczyzna,2022-05-28_09h24.24.941,task,2021.1.4,Win32,59.98440405,628b806c463b948bc644b84f,6291cc99f1c19bb8a9e25cca,,,,,,,,,,,,,,,,,,,,,,,,,,,,,,,,,,,,,,,,,,,,,,,,,,,,,,,,,,,,,,,,,,,,,,,,,,,,,,,,,,,,,,,,,,,,,,,,,,,,,,,
,,"[""comma""]",0,[0.22070000000297796],84,0,84,0,1,5b9e401bf074140001051957,49,Mężczyzna,2022-05-28_09h24.24.941,task,2021.1.4,Win32,59.98440405,628b806c463b948bc644b84f,6291cc99f1c19bb8a9e25cca,,,,,,,,,,,,,,,,,,,,,,,,,,,,,,,,,,,,,,,,,,,,,,,,,,,,,,,,,,,,,,,,,,,,,,,,,,,,,,,,,,,,,,,,,,,,,,,,,,,,,,,
,,"[""comma""]",0,[0.3579000000059409],85,0,85,0,1,5b9e401bf074140001051957,49,Mężczyzna,2022-05-28_09h24.24.941,task,2021.1.4,Win32,59.98440405,628b806c463b948bc644b84f,6291cc99f1c19bb8a9e25cca,,,,,,,,,,,,,,,,,,,,,,,,,,,,,,,,,,,,,,,,,,,,,,,,,,,,,,,,,,,,,,,,,,,,,,,,,,,,,,,,,,,,,,,,,,,,,,,,,,,,,,,
,,"[""period""]",0,[0.061200000002969546],86,0,86,0,1,5b9e401bf074140001051957,49,Mężczyzna,2022-05-28_09h24.24.941,task,2021.1.4,Win32,59.98440405,628b806c463b948bc644b84f,6291cc99f1c19bb8a9e25cca,,,,,,,,,,,,,,,,,,,,,,,,,,,,,,,,,,,,,,,,,,,,,,,,,,,,,,,,,,,,,,,,,,,,,,,,,,,,,,,,,,,,,,,,,,,,,,,,,,,,,,,
,,"[""period""]",0,[0.010000000000019327],87,0,87,0,1,5b9e401bf074140001051957,49,Mężczyzna,2022-05-28_09h24.24.941,task,2021.1.4,Win32,59.98440405,628b806c463b948bc644b84f,6291cc99f1c19bb8a9e25cca,,,,,,,,,,,,,,,,,,,,,,,,,,,,,,,,,,,,,,,,,,,,,,,,,,,,,,,,,,,,,,,,,,,,,,,,,,,,,,,,,,,,,,,,,,,,,,,,,,,,,,,
,,"[""period""]",0,[0.28740000000595955],88,0,88,0,1,5b9e401bf074140001051957,49,Mężczyzna,2022-05-28_09h24.24.941,task,2021.1.4,Win32,59.98440405,628b806c463b948bc644b84f,6291cc99f1c19bb8a9e25cca,,,,,,,,,,,,,,,,,,,,,,,,,,,,,,,,,,,,,,,,,,,,,,,,,,,,,,,,,,,,,,,,,,,,,,,,,,,,,,,,,,,,,,,,,,,,,,,,,,,,,,,
,,"[""comma""]",0,[0.21990000000593568],89,0,89,0,1,5b9e401bf074140001051957,49,Mężczyzna,2022-05-28_09h24.24.941,task,2021.1.4,Win32,59.98440405,628b806c463b948bc644b84f,6291cc99f1c19bb8a9e25cca,,,,,,,,,,,,,,,,,,,,,,,,,,,,,,,,,,,,,,,,,,,,,,,,,,,,,,,,,,,,,,,,,,,,,,,,,,,,,,,,,,,,,,,,,,,,,,,,,,,,,,,
,,"[""comma""]",0,[0.13280000001194026],90,0,90,0,1,5b9e401bf074140001051957,49,Mężczyzna,2022-05-28_09h24.24.941,task,2021.1.4,Win32,59.98440405,628b806c463b948bc644b84f,6291cc99f1c19bb8a9e25cca,,,,,,,,,,,,,,,,,,,,,,,,,,,,,,,,,,,,,,,,,,,,,,,,,,,,,,,,,,,,,,,,,,,,,,,,,,,,,,,,,,,,,,,,,,,,,,,,,,,,,,,
,,"[""comma""]",0,[0.051900000005957736],91,0,91,0,1,5b9e401bf074140001051957,49,Mężczyzna,2022-05-28_09h24.24.941,task,2021.1.4,Win32,59.98440405,628b806c463b948bc644b84f,6291cc99f1c19bb8a9e25cca,,,,,,,,,,,,,,,,,,,,,,,,,,,,,,,,,,,,,,,,,,,,,,,,,,,,,,,,,,,,,,,,,,,,,,,,,,,,,,,,,,,,,,,,,,,,,,,,,,,,,,,
,,"[""comma""]",0,[0.07059999999404454],92,0,92,0,1,5b9e401bf074140001051957,49,Mężczyzna,2022-05-28_09h24.24.941,task,2021.1.4,Win32,59.98440405,628b806c463b948bc644b84f,6291cc99f1c19bb8a9e25cca,,,,,,,,,,,,,,,,,,,,,,,,,,,,,,,,,,,,,,,,,,,,,,,,,,,,,,,,,,,,,,,,,,,,,,,,,,,,,,,,,,,,,,,,,,,,,,,,,,,,,,,
,,"[""comma""]",0,[0.1408999999910634],93,0,93,0,1,5b9e401bf074140001051957,49,Mężczyzna,2022-05-28_09h24.24.941,task,2021.1.4,Win32,59.98440405,628b806c463b948bc644b84f,6291cc99f1c19bb8a9e25cca,,,,,,,,,,,,,,,,,,,,,,,,,,,,,,,,,,,,,,,,,,,,,,,,,,,,,,,,,,,,,,,,,,,,,,,,,,,,,,,,,,,,,,,,,,,,,,,,,,,,,,,
,,"[""comma""]",0,[0.21320000000295636],94,0,94,0,1,5b9e401bf074140001051957,49,Mężczyzna,2022-05-28_09h24.24.941,task,2021.1.4,Win32,59.98440405,628b806c463b948bc644b84f,6291cc99f1c19bb8a9e25cca,,,,,,,,,,,,,,,,,,,,,,,,,,,,,,,,,,,,,,,,,,,,,,,,,,,,,,,,,,,,,,,,,,,,,,,,,,,,,,,,,,,,,,,,,,,,,,,,,,,,,,,
,,"[""period"",""period""]",0,"[0.06860000000892796,1.918900000005948]",95,0,95,0,1,5b9e401bf074140001051957,49,Mężczyzna,2022-05-28_09h24.24.941,task,2021.1.4,Win32,59.98440405,628b806c463b948bc644b84f,6291cc99f1c19bb8a9e25cca,,,,,,,,,,,,,,,,,,,,,,,,,,,,,,,,,,,,,,,,,,,,,,,,,,,,,,,,,,,,,,,,,,,,,,,,,,,,,,,,,,,,,,,,,,,,,,,,,,,,,,,
,,,0,,96,0,96,0,1,5b9e401bf074140001051957,49,Mężczyzna,2022-05-28_09h24.24.941,task,2021.1.4,Win32,59.98440405,628b806c463b948bc644b84f,6291cc99f1c19bb8a9e25cca,,,,,,,,,,,,,,,,,,,,,,,,,,,,,,,,,,,,,,,,,,,,,,,,,,,,,,,,,,,,,,,,,,,,,,,,,,,,,,,,,,,,,,,,,,,,,,,,,,,,,,,
,,"[""period""]",0,[0.04070000000297114],97,0,97,0,1,5b9e401bf074140001051957,49,Mężczyzna,2022-05-28_09h24.24.941,task,2021.1.4,Win32,59.98440405,628b806c463b948bc644b84f,6291cc99f1c19bb8a9e25cca,,,,,,,,,,,,,,,,,,,,,,,,,,,,,,,,,,,,,,,,,,,,,,,,,,,,,,,,,,,,,,,,,,,,,,,,,,,,,,,,,,,,,,,,,,,,,,,,,,,,,,,
,,"[""period""]",0,[0.02890000000593318],98,0,98,0,1,5b9e401bf074140001051957,49,Mężczyzna,2022-05-28_09h24.24.941,task,2021.1.4,Win32,59.98440405,628b806c463b948bc644b84f,6291cc99f1c19bb8a9e25cca,,,,,,,,,,,,,,,,,,,,,,,,,,,,,,,,,,,,,,,,,,,,,,,,,,,,,,,,,,,,,,,,,,,,,,,,,,,,,,,,,,,,,,,,,,,,,,,,,,,,,,,
,,"[""comma"",""period""]",0,"[0.0042000000029815965,1.9044000000059782]",99,0,99,0,1,5b9e401bf074140001051957,49,Mężczyzna,2022-05-28_09h24.24.941,task,2021.1.4,Win32,59.98440405,628b806c463b948bc644b84f,6291cc99f1c19bb8a9e25cca,,,,,,,,,,,,,,,,,,,,,,,,,,,,,,,,,,,,,,,,,,,,,,,,,,,,,,,,,,,,,,,,,,,,,,,,,,,,,,,,,,,,,,,,,,,,,,,,,,,,,,,
,,"[""period""]",0,[1.9672999999970102],100,0,100,0,1,5b9e401bf074140001051957,49,Mężczyzna,2022-05-28_09h24.24.941,task,2021.1.4,Win32,59.98440405,628b806c463b948bc644b84f,6291cc99f1c19bb8a9e25cca,,,,,,,,,,,,,,,,,,,,,,,,,,,,,,,,,,,,,,,,,,,,,,,,,,,,,,,,,,,,,,,,,,,,,,,,,,,,,,,,,,,,,,,,,,,,,,,,,,,,,,,
,,,0,,101,0,101,0,1,5b9e401bf074140001051957,49,Mężczyzna,2022-05-28_09h24.24.941,task,2021.1.4,Win32,59.98440405,628b806c463b948bc644b84f,6291cc99f1c19bb8a9e25cca,,,,,,,,,,,,,,,,,,,,,,,,,,,,,,,,,,,,,,,,,,,,,,,,,,,,,,,,,,,,,,,,,,,,,,,,,,,,,,,,,,,,,,,,,,,,,,,,,,,,,,,
,,"[""comma""]",0,[0.2917999999970107],102,0,102,0,1,5b9e401bf074140001051957,49,Mężczyzna,2022-05-28_09h24.24.941,task,2021.1.4,Win32,59.98440405,628b806c463b948bc644b84f,6291cc99f1c19bb8a9e25cca,,,,,,,,,,,,,,,,,,,,,,,,,,,,,,,,,,,,,,,,,,,,,,,,,,,,,,,,,,,,,,,,,,,,,,,,,,,,,,,,,,,,,,,,,,,,,,,,,,,,,,,
,,"[""comma""]",0,[0.05470000000298114],103,0,103,0,1,5b9e401bf074140001051957,49,Mężczyzna,2022-05-28_09h24.24.941,task,2021.1.4,Win32,59.98440405,628b806c463b948bc644b84f,6291cc99f1c19bb8a9e25cca,,,,,,,,,,,,,,,,,,,,,,,,,,,,,,,,,,,,,,,,,,,,,,,,,,,,,,,,,,,,,,,,,,,,,,,,,,,,,,,,,,,,,,,,,,,,,,,,,,,,,,,
,,"[""comma"",""comma""]",0,"[0.0010999999940395355,1.954499999999996]",104,0,104,0,1,5b9e401bf074140001051957,49,Mężczyzna,2022-05-28_09h24.24.941,task,2021.1.4,Win32,59.98440405,628b806c463b948bc644b84f,6291cc99f1c19bb8a9e25cca,,,,,,,,,,,,,,,,,,,,,,,,,,,,,,,,,,,,,,,,,,,,,,,,,,,,,,,,,,,,,,,,,,,,,,,,,,,,,,,,,,,,,,,,,,,,,,,,,,,,,,,
,,"[""period""]",0,[1.80509999999407],105,0,105,0,1,5b9e401bf074140001051957,49,Mężczyzna,2022-05-28_09h24.24.941,task,2021.1.4,Win32,59.98440405,628b806c463b948bc644b84f,6291cc99f1c19bb8a9e25cca,,,,,,,,,,,,,,,,,,,,,,,,,,,,,,,,,,,,,,,,,,,,,,,,,,,,,,,,,,,,,,,,,,,,,,,,,,,,,,,,,,,,,,,,,,,,,,,,,,,,,,,
,,,0,,106,0,106,0,1,5b9e401bf074140001051957,49,Mężczyzna,2022-05-28_09h24.24.941,task,2021.1.4,Win32,59.98440405,628b806c463b948bc644b84f,6291cc99f1c19bb8a9e25cca,,,,,,,,,,,,,,,,,,,,,,,,,,,,,,,,,,,,,,,,,,,,,,,,,,,,,,,,,,,,,,,,,,,,,,,,,,,,,,,,,,,,,,,,,,,,,,,,,,,,,,,
,,"[""period""]",0,[0.17250000000001364],107,0,107,0,1,5b9e401bf074140001051957,49,Mężczyzna,2022-05-28_09h24.24.941,task,2021.1.4,Win32,59.98440405,628b806c463b948bc644b84f,6291cc99f1c19bb8a9e25cca,,,,,,,,,,,,,,,,,,,,,,,,,,,,,,,,,,,,,,,,,,,,,,,,,,,,,,,,,,,,,,,,,,,,,,,,,,,,,,,,,,,,,,,,,,,,,,,,,,,,,,,
,,"[""period"",""comma""]",0,"[0.20099999999996498,1.9504000000059705]",108,0,108,0,1,5b9e401bf074140001051957,49,Mężczyzna,2022-05-28_09h24.24.941,task,2021.1.4,Win32,59.98440405,628b806c463b948bc644b84f,6291cc99f1c19bb8a9e25cca,,,,,,,,,,,,,,,,,,,,,,,,,,,,,,,,,,,,,,,,,,,,,,,,,,,,,,,,,,,,,,,,,,,,,,,,,,,,,,,,,,,,,,,,,,,,,,,,,,,,,,,
,,"[""comma""]",0,[1.8595000000000255],109,0,109,0,1,5b9e401bf074140001051957,49,Mężczyzna,2022-05-28_09h24.24.941,task,2021.1.4,Win32,59.98440405,628b806c463b948bc644b84f,6291cc99f1c19bb8a9e25cca,,,,,,,,,,,,,,,,,,,,,,,,,,,,,,,,,,,,,,,,,,,,,,,,,,,,,,,,,,,,,,,,,,,,,,,,,,,,,,,,,,,,,,,,,,,,,,,,,,,,,,,
,,"[""period""]",0,[1.8835999999940896],110,0,110,0,1,5b9e401bf074140001051957,49,Mężczyzna,2022-05-28_09h24.24.941,task,2021.1.4,Win32,59.98440405,628b806c463b948bc644b84f,6291cc99f1c19bb8a9e25cca,,,,,,,,,,,,,,,,,,,,,,,,,,,,,,,,,,,,,,,,,,,,,,,,,,,,,,,,,,,,,,,,,,,,,,,,,,,,,,,,,,,,,,,,,,,,,,,,,,,,,,,
,,,0,,111,0,111,0,1,5b9e401bf074140001051957,49,Mężczyzna,2022-05-28_09h24.24.941,task,2021.1.4,Win32,59.98440405,628b806c463b948bc644b84f,6291cc99f1c19bb8a9e25cca,,,,,,,,,,,,,,,,,,,,,,,,,,,,,,,,,,,,,,,,,,,,,,,,,,,,,,,,,,,,,,,,,,,,,,,,,,,,,,,,,,,,,,,,,,,,,,,,,,,,,,,
,,"[""period""]",0,[0.05589999999108386],112,0,112,0,1,5b9e401bf074140001051957,49,Mężczyzna,2022-05-28_09h24.24.941,task,2021.1.4,Win32,59.98440405,628b806c463b948bc644b84f,6291cc99f1c19bb8a9e25cca,,,,,,,,,,,,,,,,,,,,,,,,,,,,,,,,,,,,,,,,,,,,,,,,,,,,,,,,,,,,,,,,,,,,,,,,,,,,,,,,,,,,,,,,,,,,,,,,,,,,,,,
,,"[""comma""]",0,[0.1343999999911034],113,0,113,0,1,5b9e401bf074140001051957,49,Mężczyzna,2022-05-28_09h24.24.941,task,2021.1.4,Win32,59.98440405,628b806c463b948bc644b84f,6291cc99f1c19bb8a9e25cca,,,,,,,,,,,,,,,,,,,,,,,,,,,,,,,,,,,,,,,,,,,,,,,,,,,,,,,,,,,,,,,,,,,,,,,,,,,,,,,,,,,,,,,,,,,,,,,,,,,,,,,
,,"[""comma"",""comma""]",0,"[0.14390000000594227,1.8355000000000246]",114,0,114,0,1,5b9e401bf074140001051957,49,Mężczyzna,2022-05-28_09h24.24.941,task,2021.1.4,Win32,59.98440405,628b806c463b948bc644b84f,6291cc99f1c19bb8a9e25cca,,,,,,,,,,,,,,,,,,,,,,,,,,,,,,,,,,,,,,,,,,,,,,,,,,,,,,,,,,,,,,,,,,,,,,,,,,,,,,,,,,,,,,,,,,,,,,,,,,,,,,,
,,,0,,115,0,115,0,1,5b9e401bf074140001051957,49,Mężczyzna,2022-05-28_09h24.24.941,task,2021.1.4,Win32,59.98440405,628b806c463b948bc644b84f,6291cc99f1c19bb8a9e25cca,,,,,,,,,,,,,,,,,,,,,,,,,,,,,,,,,,,,,,,,,,,,,,,,,,,,,,,,,,,,,,,,,,,,,,,,,,,,,,,,,,,,,,,,,,,,,,,,,,,,,,,
,,"[""period""]",0,[-0.01659999999401407],116,0,116,0,1,5b9e401bf074140001051957,49,Mężczyzna,2022-05-28_09h24.24.941,task,2021.1.4,Win32,59.98440405,628b806c463b948bc644b84f,6291cc99f1c19bb8a9e25cca,,,,,,,,,,,,,,,,,,,,,,,,,,,,,,,,,,,,,,,,,,,,,,,,,,,,,,,,,,,,,,,,,,,,,,,,,,,,,,,,,,,,,,,,,,,,,,,,,,,,,,,
,,"[""comma""]",0,[0.2377999999969802],117,0,117,0,1,5b9e401bf074140001051957,49,Mężczyzna,2022-05-28_09h24.24.941,task,2021.1.4,Win32,59.98440405,628b806c463b948bc644b84f,6291cc99f1c19bb8a9e25cca,,,,,,,,,,,,,,,,,,,,,,,,,,,,,,,,,,,,,,,,,,,,,,,,,,,,,,,,,,,,,,,,,,,,,,,,,,,,,,,,,,,,,,,,,,,,,,,,,,,,,,,
,,"[""comma""]",0,[0.20270000000294885],118,0,118,0,1,5b9e401bf074140001051957,49,Mężczyzna,2022-05-28_09h24.24.941,task,2021.1.4,Win32,59.98440405,628b806c463b948bc644b84f,6291cc99f1c19bb8a9e25cca,,,,,,,,,,,,,,,,,,,,,,,,,,,,,,,,,,,,,,,,,,,,,,,,,,,,,,,,,,,,,,,,,,,,,,,,,,,,,,,,,,,,,,,,,,,,,,,,,,,,,,,
,,"[""period""]",0,[0.28400000000004866],119,0,119,0,1,5b9e401bf074140001051957,49,Mężczyzna,2022-05-28_09h24.24.941,task,2021.1.4,Win32,59.98440405,628b806c463b948bc644b84f,6291cc99f1c19bb8a9e25cca,,,,,,,,,,,,,,,,,,,,,,,,,,,,,,,,,,,,,,,,,,,,,,,,,,,,,,,,,,,,,,,,,,,,,,,,,,,,,,,,,,,,,,,,,,,,,,,,,,,,,,,
,,,,,,,,,,5b9e401bf074140001051957,49,Mężczyzna,2022-05-28_09h24.24.941,task,2021.1.4,Win32,59.98440405,628b806c463b948bc644b84f,6291cc99f1c19bb8a9e25cca,space,105.2387,space,11.8486,0,0,0,0,1,"X V Q F H G B L J M P D K C T S W R N Z
",,,,,,,,,,,,,,,,,,,,,,,,,,,,,,,,,,,,,,,,,,,,,,,,,,,,,,,,,,,,,,,,,,,,,,,,,,,,,,,,,,,,,,,,,,,,,
,,,,,,,,,,5b9e401bf074140001051957,49,Mężczyzna,2022-05-28_09h24.24.941,task,2021.1.4,Win32,59.98440405,628b806c463b948bc644b84f,6291cc99f1c19bb8a9e25cca,,,,,1,0,1,0,1,"X V Q F H G B L J M P D K C T S W R N Z
",,,,,,,,,,,,,,,,,,,,,,,,,,,,,,,,,,,,,,,,,,,,,,,,,,,,,,,,,,,,,,,,,,,,,,,,,,,,,,,,,,,,,,,,,,,,,
,,,,,,,,,,5b9e401bf074140001051957,49,Mężczyzna,2022-05-28_09h24.24.941,task,2021.1.4,Win32,59.98440405,628b806c463b948bc644b84f,6291cc99f1c19bb8a9e25cca,,,,,,,,,,,zg,"[""z"",""g""]","[2.9339000000059627,3.6834000000059746,5.416100000008953]",1,ZG,0,0,0,0,1,,,,,,,,,,,,,,,,,,,,,,,,,,,,,,,,,,,,,,,,,,,,,,,,,,,,,,,,,,,,,,,,,,,,,,,,,,,,,,,,,,,
,,,,,,,,,,5b9e401bf074140001051957,49,Mężczyzna,2022-05-28_09h24.24.941,task,2021.1.4,Win32,59.98440405,628b806c463b948bc644b84f,6291cc99f1c19bb8a9e25cca,,,,,0,0,0,0,1,"X V Q F H G B L J M P D K C T S W R N Z
",,,,,,,,,,,,,,,,,,,,,,,,,,,,,,,,,,,,,,,,,,,,,,,,,,,,,,,,,,,,,,,,,,,,,,,,,,,,,,,,,,,,,,,,,,,,,
,,,,,,,,,,5b9e401bf074140001051957,49,Mężczyzna,2022-05-28_09h24.24.941,task,2021.1.4,Win32,59.98440405,628b806c463b948bc644b84f,6291cc99f1c19bb8a9e25cca,,,,,1,0,1,0,1,"X V Q F H G B L J M P D K C T S W R N Z
",,,,,,,,,,,,,,,,,,,,,,,,,,,,,,,,,,,,,,,,,,,,,,,,,,,,,,,,,,,,,,,,,,,,,,,,,,,,,,,,,,,,,,,,,,,,,
,,,,,,,,,,5b9e401bf074140001051957,49,Mężczyzna,2022-05-28_09h24.24.941,task,2021.1.4,Win32,59.98440405,628b806c463b948bc644b84f,6291cc99f1c19bb8a9e25cca,,,,,,,,,,,fg,"[""f"",""g""]","[1.7812000000030253,2.0312000000030253,2.683599999994044]",1,FG,1,0,1,0,1,,,,,,,,,,,,,,,,,,,,,,,,,,,,,,,,,,,,,,,,,,,,,,,,,,,,,,,,,,,,,,,,,,,,,,,,,,,,,,,,,,,
,,,,,,,,,,5b9e401bf074140001051957,49,Mężczyzna,2022-05-28_09h24.24.941,task,2021.1.4,Win32,59.98440405,628b806c463b948bc644b84f,6291cc99f1c19bb8a9e25cca,,,,,0,0,0,0,1,"X V Q F H G B L J M P D K C T S W R N Z
",,,,,,,,,,,,,,,,,,,,,,,,,,,,,,,,,,,,,,,,,,,,,,,,,,,,,,,,,,,,,,,,,,,,,,,,,,,,,,,,,,,,,,,,,,,,,
,,,,,,,,,,5b9e401bf074140001051957,49,Mężczyzna,2022-05-28_09h24.24.941,task,2021.1.4,Win32,59.98440405,628b806c463b948bc644b84f,6291cc99f1c19bb8a9e25cca,,,,,1,0,1,0,1,"X V Q F H G B L J M P D K C T S W R N Z
",,,,,,,,,,,,,,,,,,,,,,,,,,,,,,,,,,,,,,,,,,,,,,,,,,,,,,,,,,,,,,,,,,,,,,,,,,,,,,,,,,,,,,,,,,,,,
,,,,,,,,,,5b9e401bf074140001051957,49,Mężczyzna,2022-05-28_09h24.24.941,task,2021.1.4,Win32,59.98440405,628b806c463b948bc644b84f,6291cc99f1c19bb8a9e25cca,,,,,2,0,2,0,1,"X V Q F H G B L J M P D K C T S W R N Z
",,,,,,,,,,,,,,,,,,,,,,,,,,,,,,,,,,,,,,,,,,,,,,,,,,,,,,,,,,,,,,,,,,,,,,,,,,,,,,,,,,,,,,,,,,,,,
,,,,,,,,,,5b9e401bf074140001051957,49,Mężczyzna,2022-05-28_09h24.24.941,task,2021.1.4,Win32,59.98440405,628b806c463b948bc644b84f,6291cc99f1c19bb8a9e25cca,,,,,,,,,,,zqc,"[""z"",""q"",""c""]","[1.3969999999999914,2.1492999999970266,2.930999999999983,4.031599999994]",0,"Z
QC",2,0,2,0,1,,,,,,,,,,,,,,,,,,,,,,,,,,,,,,,,,,,,,,,,,,,,,,,,,,,,,,,,,,,,,,,,,,,,,,,,,,,,,,,,,,,
,,,,,,,,,,5b9e401bf074140001051957,49,Mężczyzna,2022-05-28_09h24.24.941,task,2021.1.4,Win32,59.98440405,628b806c463b948bc644b84f,6291cc99f1c19bb8a9e25cca,,,,,0,0,0,0,1,"X V Q F H G B L J M P D K C T S W R N Z
",,,,,,,,,,,,,,,,,,,,,,,,,,,,,,,,,,,,,,,,,,,,,,,,,,,,,,,,,,,,,,,,,,,,,,,,,,,,,,,,,,,,,,,,,,,,,
,,,,,,,,,,5b9e401bf074140001051957,49,Mężczyzna,2022-05-28_09h24.24.941,task,2021.1.4,Win32,59.98440405,628b806c463b948bc644b84f,6291cc99f1c19bb8a9e25cca,,,,,1,0,1,0,1,"X V Q F H G B L J M P D K C T S W R N Z
",,,,,,,,,,,,,,,,,,,,,,,,,,,,,,,,,,,,,,,,,,,,,,,,,,,,,,,,,,,,,,,,,,,,,,,,,,,,,,,,,,,,,,,,,,,,,
,,,,,,,,,,5b9e401bf074140001051957,49,Mężczyzna,2022-05-28_09h24.24.941,task,2021.1.4,Win32,59.98440405,628b806c463b948bc644b84f,6291cc99f1c19bb8a9e25cca,,,,,2,0,2,0,1,"X V Q F H G B L J M P D K C T S W R N Z
",,,,,,,,,,,,,,,,,,,,,,,,,,,,,,,,,,,,,,,,,,,,,,,,,,,,,,,,,,,,,,,,,,,,,,,,,,,,,,,,,,,,,,,,,,,,,
,,,,,,,,,,5b9e401bf074140001051957,49,Mężczyzna,2022-05-28_09h24.24.941,task,2021.1.4,Win32,59.98440405,628b806c463b948bc644b84f,6291cc99f1c19bb8a9e25cca,,,,,,,,,,,zqx,"[""z"",""q"",""x""]","[1.7763999999910425,2.548399999991034,4.430899999991027,5.592099999994048]",0,MQX,3,0,3,0,1,,,,,,,,,,,,,,,,,,,,,,,,,,,,,,,,,,,,,,,,,,,,,,,,,,,,,,,,,,,,,,,,,,,,,,,,,,,,,,,,,,,
,,,,,,,,,,5b9e401bf074140001051957,49,Mężczyzna,2022-05-28_09h24.24.941,task,2021.1.4,Win32,59.98440405,628b806c463b948bc644b84f,6291cc99f1c19bb8a9e25cca,,,,,0,0,0,0,1,"X V Q F H G B L J M P D K C T S W R N Z
",,,,,,,,,,,,,,,,,,,,,,,,,,,,,,,,,,,,,,,,,,,,,,,,,,,,,,,,,,,,,,,,,,,,,,,,,,,,,,,,,,,,,,,,,,,,,
,,,,,,,,,,5b9e401bf074140001051957,49,Mężczyzna,2022-05-28_09h24.24.941,task,2021.1.4,Win32,59.98440405,628b806c463b948bc644b84f,6291cc99f1c19bb8a9e25cca,,,,,1,0,1,0,1,"X V Q F H G B L J M P D K C T S W R N Z
",,,,,,,,,,,,,,,,,,,,,,,,,,,,,,,,,,,,,,,,,,,,,,,,,,,,,,,,,,,,,,,,,,,,,,,,,,,,,,,,,,,,,,,,,,,,,
,,,,,,,,,,5b9e401bf074140001051957,49,Mężczyzna,2022-05-28_09h24.24.941,task,2021.1.4,Win32,59.98440405,628b806c463b948bc644b84f,6291cc99f1c19bb8a9e25cca,,,,,2,0,2,0,1,"X V Q F H G B L J M P D K C T S W R N Z
",,,,,,,,,,,,,,,,,,,,,,,,,,,,,,,,,,,,,,,,,,,,,,,,,,,,,,,,,,,,,,,,,,,,,,,,,,,,,,,,,,,,,,,,,,,,,
,,,,,,,,,,5b9e401bf074140001051957,49,Mężczyzna,2022-05-28_09h24.24.941,task,2021.1.4,Win32,59.98440405,628b806c463b948bc644b84f,6291cc99f1c19bb8a9e25cca,,,,,,,,,,,hft,"[""h"",""f"",""t""]","[2.9045000000000414,3.459400000005985,3.9854000000059955,4.934500000000014]",1,HFT,4,0,4,0,1,,,,,,,,,,,,,,,,,,,,,,,,,,,,,,,,,,,,,,,,,,,,,,,,,,,,,,,,,,,,,,,,,,,,,,,,,,,,,,,,,,,
,,,,,,,,,,5b9e401bf074140001051957,49,Mężczyzna,2022-05-28_09h24.24.941,task,2021.1.4,Win32,59.98440405,628b806c463b948bc644b84f,6291cc99f1c19bb8a9e25cca,,,,,0,0,0,0,1,"X V Q F H G B L J M P D K C T S W R N Z
",,,,,,,,,,,,,,,,,,,,,,,,,,,,,,,,,,,,,,,,,,,,,,,,,,,,,,,,,,,,,,,,,,,,,,,,,,,,,,,,,,,,,,,,,,,,,
,,,,,,,,,,5b9e401bf074140001051957,49,Mężczyzna,2022-05-28_09h24.24.941,task,2021.1.4,Win32,59.98440405,628b806c463b948bc644b84f,6291cc99f1c19bb8a9e25cca,,,,,1,0,1,0,1,"X V Q F H G B L J M P D K C T S W R N Z
",,,,,,,,,,,,,,,,,,,,,,,,,,,,,,,,,,,,,,,,,,,,,,,,,,,,,,,,,,,,,,,,,,,,,,,,,,,,,,,,,,,,,,,,,,,,,
,,,,,,,,,,5b9e401bf074140001051957,49,Mężczyzna,2022-05-28_09h24.24.941,task,2021.1.4,Win32,59.98440405,628b806c463b948bc644b84f,6291cc99f1c19bb8a9e25cca,,,,,2,0,2,0,1,"X V Q F H G B L J M P D K C T S W R N Z
",,,,,,,,,,,,,,,,,,,,,,,,,,,,,,,,,,,,,,,,,,,,,,,,,,,,,,,,,,,,,,,,,,,,,,,,,,,,,,,,,,,,,,,,,,,,,
,,,,,,,,,,5b9e401bf074140001051957,49,Mężczyzna,2022-05-28_09h24.24.941,task,2021.1.4,Win32,59.98440405,628b806c463b948bc644b84f,6291cc99f1c19bb8a9e25cca,,,,,,,,,,,bww,"[""b"",""w"",""w""]","[1.4107999999970389,1.9247000000029857,2.1037000000029593,2.722099999994043]",1,BWW,5,0,5,0,1,,,,,,,,,,,,,,,,,,,,,,,,,,,,,,,,,,,,,,,,,,,,,,,,,,,,,,,,,,,,,,,,,,,,,,,,,,,,,,,,,,,
,,,,,,,,,,5b9e401bf074140001051957,49,Mężczyzna,2022-05-28_09h24.24.941,task,2021.1.4,Win32,59.98440405,628b806c463b948bc644b84f,6291cc99f1c19bb8a9e25cca,,,,,0,0,0,0,1,"X V Q F H G B L J M P D K C T S W R N Z
",,,,,,,,,,,,,,,,,,,,,,,,,,,,,,,,,,,,,,,,,,,,,,,,,,,,,,,,,,,,,,,,,,,,,,,,,,,,,,,,,,,,,,,,,,,,,
,,,,,,,,,,5b9e401bf074140001051957,49,Mężczyzna,2022-05-28_09h24.24.941,task,2021.1.4,Win32,59.98440405,628b806c463b948bc644b84f,6291cc99f1c19bb8a9e25cca,,,,,1,0,1,0,1,"X V Q F H G B L J M P D K C T S W R N Z
",,,,,,,,,,,,,,,,,,,,,,,,,,,,,,,,,,,,,,,,,,,,,,,,,,,,,,,,,,,,,,,,,,,,,,,,,,,,,,,,,,,,,,,,,,,,,
,,,,,,,,,,5b9e401bf074140001051957,49,Mężczyzna,2022-05-28_09h24.24.941,task,2021.1.4,Win32,59.98440405,628b806c463b948bc644b84f,6291cc99f1c19bb8a9e25cca,,,,,2,0,2,0,1,"X V Q F H G B L J M P D K C T S W R N Z
",,,,,,,,,,,,,,,,,,,,,,,,,,,,,,,,,,,,,,,,,,,,,,,,,,,,,,,,,,,,,,,,,,,,,,,,,,,,,,,,,,,,,,,,,,,,,
,,,,,,,,,,5b9e401bf074140001051957,49,Mężczyzna,2022-05-28_09h24.24.941,task,2021.1.4,Win32,59.98440405,628b806c463b948bc644b84f,6291cc99f1c19bb8a9e25cca,,,,,3,0,3,0,1,"X V Q F H G B L J M P D K C T S W R N Z
",,,,,,,,,,,,,,,,,,,,,,,,,,,,,,,,,,,,,,,,,,,,,,,,,,,,,,,,,,,,,,,,,,,,,,,,,,,,,,,,,,,,,,,,,,,,,
,,,,,,,,,,5b9e401bf074140001051957,49,Mężczyzna,2022-05-28_09h24.24.941,task,2021.1.4,Win32,59.98440405,628b806c463b948bc644b84f,6291cc99f1c19bb8a9e25cca,,,,,,,,,,,jfrc,"[""j"",""f"",""r"",""c""]","[1.825199999988115,3.2977999999970393,4.019599999994057,4.6500999999940404,5.702299999997024]",1,JFRC,6,0,6,0,1,,,,,,,,,,,,,,,,,,,,,,,,,,,,,,,,,,,,,,,,,,,,,,,,,,,,,,,,,,,,,,,,,,,,,,,,,,,,,,,,,,,
,,,,,,,,,,5b9e401bf074140001051957,49,Mężczyzna,2022-05-28_09h24.24.941,task,2021.1.4,Win32,59.98440405,628b806c463b948bc644b84f,6291cc99f1c19bb8a9e25cca,,,,,0,0,0,0,1,"X V Q F H G B L J M P D K C T S W R N Z
",,,,,,,,,,,,,,,,,,,,,,,,,,,,,,,,,,,,,,,,,,,,,,,,,,,,,,,,,,,,,,,,,,,,,,,,,,,,,,,,,,,,,,,,,,,,,
,,,,,,,,,,5b9e401bf074140001051957,49,Mężczyzna,2022-05-28_09h24.24.941,task,2021.1.4,Win32,59.98440405,628b806c463b948bc644b84f,6291cc99f1c19bb8a9e25cca,,,,,1,0,1,0,1,"X V Q F H G B L J M P D K C T S W R N Z
",,,,,,,,,,,,,,,,,,,,,,,,,,,,,,,,,,,,,,,,,,,,,,,,,,,,,,,,,,,,,,,,,,,,,,,,,,,,,,,,,,,,,,,,,,,,,
,,,,,,,,,,5b9e401bf074140001051957,49,Mężczyzna,2022-05-28_09h24.24.941,task,2021.1.4,Win32,59.98440405,628b806c463b948bc644b84f,6291cc99f1c19bb8a9e25cca,,,,,2,0,2,0,1,"X V Q F H G B L J M P D K C T S W R N Z
",,,,,,,,,,,,,,,,,,,,,,,,,,,,,,,,,,,,,,,,,,,,,,,,,,,,,,,,,,,,,,,,,,,,,,,,,,,,,,,,,,,,,,,,,,,,,
,,,,,,,,,,5b9e401bf074140001051957,49,Mężczyzna,2022-05-28_09h24.24.941,task,2021.1.4,Win32,59.98440405,628b806c463b948bc644b84f,6291cc99f1c19bb8a9e25cca,,,,,3,0,3,0,1,"X V Q F H G B L J M P D K C T S W R N Z
",,,,,,,,,,,,,,,,,,,,,,,,,,,,,,,,,,,,,,,,,,,,,,,,,,,,,,,,,,,,,,,,,,,,,,,,,,,,,,,,,,,,,,,,,,,,,
,,,,,,,,,,5b9e401bf074140001051957,49,Mężczyzna,2022-05-28_09h24.24.941,task,2021.1.4,Win32,59.98440405,628b806c463b948bc644b84f,6291cc99f1c19bb8a9e25cca,,,,,,,,,,,pmws,"[""p"",""m"",""w"",""s""]","[1.2415000000000305,2.046700000003,2.633400000005963,3.025299999997003,3.790299999997046]",1,PMWS,7,0,7,0,1,,,,,,,,,,,,,,,,,,,,,,,,,,,,,,,,,,,,,,,,,,,,,,,,,,,,,,,,,,,,,,,,,,,,,,,,,,,,,,,,,,,
,,,,,,,,,,5b9e401bf074140001051957,49,Mężczyzna,2022-05-28_09h24.24.941,task,2021.1.4,Win32,59.98440405,628b806c463b948bc644b84f,6291cc99f1c19bb8a9e25cca,,,,,0,0,0,0,1,"X V Q F H G B L J M P D K C T S W R N Z
",,,,,,,,,,,,,,,,,,,,,,,,,,,,,,,,,,,,,,,,,,,,,,,,,,,,,,,,,,,,,,,,,,,,,,,,,,,,,,,,,,,,,,,,,,,,,
,,,,,,,,,,5b9e401bf074140001051957,49,Mężczyzna,2022-05-28_09h24.24.941,task,2021.1.4,Win32,59.98440405,628b806c463b948bc644b84f,6291cc99f1c19bb8a9e25cca,,,,,1,0,1,0,1,"X V Q F H G B L J M P D K C T S W R N Z
",,,,,,,,,,,,,,,,,,,,,,,,,,,,,,,,,,,,,,,,,,,,,,,,,,,,,,,,,,,,,,,,,,,,,,,,,,,,,,,,,,,,,,,,,,,,,
,,,,,,,,,,5b9e401bf074140001051957,49,Mężczyzna,2022-05-28_09h24.24.941,task,2021.1.4,Win32,59.98440405,628b806c463b948bc644b84f,6291cc99f1c19bb8a9e25cca,,,,,2,0,2,0,1,"X V Q F H G B L J M P D K C T S W R N Z
",,,,,,,,,,,,,,,,,,,,,,,,,,,,,,,,,,,,,,,,,,,,,,,,,,,,,,,,,,,,,,,,,,,,,,,,,,,,,,,,,,,,,,,,,,,,,
,,,,,,,,,,5b9e401bf074140001051957,49,Mężczyzna,2022-05-28_09h24.24.941,task,2021.1.4,Win32,59.98440405,628b806c463b948bc644b84f,6291cc99f1c19bb8a9e25cca,,,,,3,0,3,0,1,"X V Q F H G B L J M P D K C T S W R N Z
",,,,,,,,,,,,,,,,,,,,,,,,,,,,,,,,,,,,,,,,,,,,,,,,,,,,,,,,,,,,,,,,,,,,,,,,,,,,,,,,,,,,,,,,,,,,,
,,,,,,,,,,5b9e401bf074140001051957,49,Mężczyzna,2022-05-28_09h24.24.941,task,2021.1.4,Win32,59.98440405,628b806c463b948bc644b84f,6291cc99f1c19bb8a9e25cca,,,,,4,0,4,0,1,"X V Q F H G B L J M P D K C T S W R N Z
",,,,,,,,,,,,,,,,,,,,,,,,,,,,,,,,,,,,,,,,,,,,,,,,,,,,,,,,,,,,,,,,,,,,,,,,,,,,,,,,,,,,,,,,,,,,,
,,,,,,,,,,5b9e401bf074140001051957,49,Mężczyzna,2022-05-28_09h24.24.941,task,2021.1.4,Win32,59.98440405,628b806c463b948bc644b84f,6291cc99f1c19bb8a9e25cca,,,,,,,,,,,xxxwk,"[""x"",""x"",""x"",""w"",""k""]","[1.182199999988086,1.6523999999910757,2.331699999988075,4.175199999988081,5.413799999997025,6.413899999991088]",0,XXXSK,8,0,8,0,1,,,,,,,,,,,,,,,,,,,,,,,,,,,,,,,,,,,,,,,,,,,,,,,,,,,,,,,,,,,,,,,,,,,,,,,,,,,,,,,,,,,
,,,,,,,,,,5b9e401bf074140001051957,49,Mężczyzna,2022-05-28_09h24.24.941,task,2021.1.4,Win32,59.98440405,628b806c463b948bc644b84f,6291cc99f1c19bb8a9e25cca,,,,,0,0,0,0,1,"X V Q F H G B L J M P D K C T S W R N Z
",,,,,,,,,,,,,,,,,,,,,,,,,,,,,,,,,,,,,,,,,,,,,,,,,,,,,,,,,,,,,,,,,,,,,,,,,,,,,,,,,,,,,,,,,,,,,
,,,,,,,,,,5b9e401bf074140001051957,49,Mężczyzna,2022-05-28_09h24.24.941,task,2021.1.4,Win32,59.98440405,628b806c463b948bc644b84f,6291cc99f1c19bb8a9e25cca,,,,,1,0,1,0,1,"X V Q F H G B L J M P D K C T S W R N Z
",,,,,,,,,,,,,,,,,,,,,,,,,,,,,,,,,,,,,,,,,,,,,,,,,,,,,,,,,,,,,,,,,,,,,,,,,,,,,,,,,,,,,,,,,,,,,
,,,,,,,,,,5b9e401bf074140001051957,49,Mężczyzna,2022-05-28_09h24.24.941,task,2021.1.4,Win32,59.98440405,628b806c463b948bc644b84f,6291cc99f1c19bb8a9e25cca,,,,,2,0,2,0,1,"X V Q F H G B L J M P D K C T S W R N Z
",,,,,,,,,,,,,,,,,,,,,,,,,,,,,,,,,,,,,,,,,,,,,,,,,,,,,,,,,,,,,,,,,,,,,,,,,,,,,,,,,,,,,,,,,,,,,
,,,,,,,,,,5b9e401bf074140001051957,49,Mężczyzna,2022-05-28_09h24.24.941,task,2021.1.4,Win32,59.98440405,628b806c463b948bc644b84f,6291cc99f1c19bb8a9e25cca,,,,,3,0,3,0,1,"X V Q F H G B L J M P D K C T S W R N Z
",,,,,,,,,,,,,,,,,,,,,,,,,,,,,,,,,,,,,,,,,,,,,,,,,,,,,,,,,,,,,,,,,,,,,,,,,,,,,,,,,,,,,,,,,,,,,
,,,,,,,,,,5b9e401bf074140001051957,49,Mężczyzna,2022-05-28_09h24.24.941,task,2021.1.4,Win32,59.98440405,628b806c463b948bc644b84f,6291cc99f1c19bb8a9e25cca,,,,,4,0,4,0,1,"X V Q F H G B L J M P D K C T S W R N Z
",,,,,,,,,,,,,,,,,,,,,,,,,,,,,,,,,,,,,,,,,,,,,,,,,,,,,,,,,,,,,,,,,,,,,,,,,,,,,,,,,,,,,,,,,,,,,
,,,,,,,,,,5b9e401bf074140001051957,49,Mężczyzna,2022-05-28_09h24.24.941,task,2021.1.4,Win32,59.98440405,628b806c463b948bc644b84f,6291cc99f1c19bb8a9e25cca,,,,,,,,,,,vxkxj,"[""v"",""x"",""k"",""x"",""j""]","[1.4312999999970089,2.4932000000029575,3.6497000000029516,4.21999999999997,4.725299999996992,5.552700000002972]",1,VXKXJ,9,0,9,0,1,,,,,,,,,,,,,,,,,,,,,,,,,,,,,,,,,,,,,,,,,,,,,,,,,,,,,,,,,,,,,,,,,,,,,,,,,,,,,,,,,,,
,,,,,,,,,,5b9e401bf074140001051957,49,Mężczyzna,2022-05-28_09h24.24.941,task,2021.1.4,Win32,59.98440405,628b806c463b948bc644b84f,6291cc99f1c19bb8a9e25cca,,,,,0,0,0,0,1,"X V Q F H G B L J M P D K C T S W R N Z
",,,,,,,,,,,,,,,,,,,,,,,,,,,,,,,,,,,,,,,,,,,,,,,,,,,,,,,,,,,,,,,,,,,,,,,,,,,,,,,,,,,,,,,,,,,,,
,,,,,,,,,,5b9e401bf074140001051957,49,Mężczyzna,2022-05-28_09h24.24.941,task,2021.1.4,Win32,59.98440405,628b806c463b948bc644b84f,6291cc99f1c19bb8a9e25cca,,,,,1,0,1,0,1,"X V Q F H G B L J M P D K C T S W R N Z
",,,,,,,,,,,,,,,,,,,,,,,,,,,,,,,,,,,,,,,,,,,,,,,,,,,,,,,,,,,,,,,,,,,,,,,,,,,,,,,,,,,,,,,,,,,,,
,,,,,,,,,,5b9e401bf074140001051957,49,Mężczyzna,2022-05-28_09h24.24.941,task,2021.1.4,Win32,59.98440405,628b806c463b948bc644b84f,6291cc99f1c19bb8a9e25cca,,,,,2,0,2,0,1,"X V Q F H G B L J M P D K C T S W R N Z
",,,,,,,,,,,,,,,,,,,,,,,,,,,,,,,,,,,,,,,,,,,,,,,,,,,,,,,,,,,,,,,,,,,,,,,,,,,,,,,,,,,,,,,,,,,,,
,,,,,,,,,,5b9e401bf074140001051957,49,Mężczyzna,2022-05-28_09h24.24.941,task,2021.1.4,Win32,59.98440405,628b806c463b948bc644b84f,6291cc99f1c19bb8a9e25cca,,,,,3,0,3,0,1,"X V Q F H G B L J M P D K C T S W R N Z
",,,,,,,,,,,,,,,,,,,,,,,,,,,,,,,,,,,,,,,,,,,,,,,,,,,,,,,,,,,,,,,,,,,,,,,,,,,,,,,,,,,,,,,,,,,,,
,,,,,,,,,,5b9e401bf074140001051957,49,Mężczyzna,2022-05-28_09h24.24.941,task,2021.1.4,Win32,59.98440405,628b806c463b948bc644b84f,6291cc99f1c19bb8a9e25cca,,,,,4,0,4,0,1,"X V Q F H G B L J M P D K C T S W R N Z
",,,,,,,,,,,,,,,,,,,,,,,,,,,,,,,,,,,,,,,,,,,,,,,,,,,,,,,,,,,,,,,,,,,,,,,,,,,,,,,,,,,,,,,,,,,,,
,,,,,,,,,,5b9e401bf074140001051957,49,Mężczyzna,2022-05-28_09h24.24.941,task,2021.1.4,Win32,59.98440405,628b806c463b948bc644b84f,6291cc99f1c19bb8a9e25cca,,,,,,,,,,,vxfqj,"[""v"",""x"",""f"",""q"",""j""]","[1.4589999999999463,1.9980000000000473,4.764300000011872,5.333900000005997,5.7651000000089425,6.535800000011932]",1,VXFQJ,10,0,10,0,1,,,,,,,,,,,,,,,,,,,,,,,,,,,,,,,,,,,,,,,,,,,,,,,,,,,,,,,,,,,,,,,,,,,,,,,,,,,,,,,,,,,
,,,,,,,,,,5b9e401bf074140001051957,49,Mężczyzna,2022-05-28_09h24.24.941,task,2021.1.4,Win32,59.98440405,628b806c463b948bc644b84f,6291cc99f1c19bb8a9e25cca,,,,,0,0,0,0,1,"X V Q F H G B L J M P D K C T S W R N Z
",,,,,,,,,,,,,,,,,,,,,,,,,,,,,,,,,,,,,,,,,,,,,,,,,,,,,,,,,,,,,,,,,,,,,,,,,,,,,,,,,,,,,,,,,,,,,
,,,,,,,,,,5b9e401bf074140001051957,49,Mężczyzna,2022-05-28_09h24.24.941,task,2021.1.4,Win32,59.98440405,628b806c463b948bc644b84f,6291cc99f1c19bb8a9e25cca,,,,,1,0,1,0,1,"X V Q F H G B L J M P D K C T S W R N Z
",,,,,,,,,,,,,,,,,,,,,,,,,,,,,,,,,,,,,,,,,,,,,,,,,,,,,,,,,,,,,,,,,,,,,,,,,,,,,,,,,,,,,,,,,,,,,
,,,,,,,,,,5b9e401bf074140001051957,49,Mężczyzna,2022-05-28_09h24.24.941,task,2021.1.4,Win32,59.98440405,628b806c463b948bc644b84f,6291cc99f1c19bb8a9e25cca,,,,,2,0,2,0,1,"X V Q F H G B L J M P D K C T S W R N Z
",,,,,,,,,,,,,,,,,,,,,,,,,,,,,,,,,,,,,,,,,,,,,,,,,,,,,,,,,,,,,,,,,,,,,,,,,,,,,,,,,,,,,,,,,,,,,
,,,,,,,,,,5b9e401bf074140001051957,49,Mężczyzna,2022-05-28_09h24.24.941,task,2021.1.4,Win32,59.98440405,628b806c463b948bc644b84f,6291cc99f1c19bb8a9e25cca,,,,,3,0,3,0,1,"X V Q F H G B L J M P D K C T S W R N Z
",,,,,,,,,,,,,,,,,,,,,,,,,,,,,,,,,,,,,,,,,,,,,,,,,,,,,,,,,,,,,,,,,,,,,,,,,,,,,,,,,,,,,,,,,,,,,
,,,,,,,,,,5b9e401bf074140001051957,49,Mężczyzna,2022-05-28_09h24.24.941,task,2021.1.4,Win32,59.98440405,628b806c463b948bc644b84f,6291cc99f1c19bb8a9e25cca,,,,,4,0,4,0,1,"X V Q F H G B L J M P D K C T S W R N Z
",,,,,,,,,,,,,,,,,,,,,,,,,,,,,,,,,,,,,,,,,,,,,,,,,,,,,,,,,,,,,,,,,,,,,,,,,,,,,,,,,,,,,,,,,,,,,
,,,,,,,,,,5b9e401bf074140001051957,49,Mężczyzna,2022-05-28_09h24.24.941,task,2021.1.4,Win32,59.98440405,628b806c463b948bc644b84f,6291cc99f1c19bb8a9e25cca,,,,,5,0,5,0,1,"X V Q F H G B L J M P D K C T S W R N Z
",,,,,,,,,,,,,,,,,,,,,,,,,,,,,,,,,,,,,,,,,,,,,,,,,,,,,,,,,,,,,,,,,,,,,,,,,,,,,,,,,,,,,,,,,,,,,
,,,,,,,,,,5b9e401bf074140001051957,49,Mężczyzna,2022-05-28_09h24.24.941,task,2021.1.4,Win32,59.98440405,628b806c463b948bc644b84f,6291cc99f1c19bb8a9e25cca,,,,,,,,,,,dvpzqj,"[""d"",""v"",""p"",""z"",""q"",""j""]","[1.4753000000119982,2.354400000005967,3.2760000000000673,4.313000000000102,6.049100000008934,6.372300000011933,8.762800000012021]",0,"DVPZ
QD",11,0,11,0,1,,,,,,,,,,,,,,,,,,,,,,,,,,,,,,,,,,,,,,,,,,,,,,,,,,,,,,,,,,,,,,,,,,,,,,,,,,,,,,,,,,,
,,,,,,,,,,5b9e401bf074140001051957,49,Mężczyzna,2022-05-28_09h24.24.941,task,2021.1.4,Win32,59.98440405,628b806c463b948bc644b84f,6291cc99f1c19bb8a9e25cca,,,,,0,0,0,0,1,"X V Q F H G B L J M P D K C T S W R N Z
",,,,,,,,,,,,,,,,,,,,,,,,,,,,,,,,,,,,,,,,,,,,,,,,,,,,,,,,,,,,,,,,,,,,,,,,,,,,,,,,,,,,,,,,,,,,,
,,,,,,,,,,5b9e401bf074140001051957,49,Mężczyzna,2022-05-28_09h24.24.941,task,2021.1.4,Win32,59.98440405,628b806c463b948bc644b84f,6291cc99f1c19bb8a9e25cca,,,,,1,0,1,0,1,"X V Q F H G B L J M P D K C T S W R N Z
",,,,,,,,,,,,,,,,,,,,,,,,,,,,,,,,,,,,,,,,,,,,,,,,,,,,,,,,,,,,,,,,,,,,,,,,,,,,,,,,,,,,,,,,,,,,,
,,,,,,,,,,5b9e401bf074140001051957,49,Mężczyzna,2022-05-28_09h24.24.941,task,2021.1.4,Win32,59.98440405,628b806c463b948bc644b84f,6291cc99f1c19bb8a9e25cca,,,,,2,0,2,0,1,"X V Q F H G B L J M P D K C T S W R N Z
",,,,,,,,,,,,,,,,,,,,,,,,,,,,,,,,,,,,,,,,,,,,,,,,,,,,,,,,,,,,,,,,,,,,,,,,,,,,,,,,,,,,,,,,,,,,,
,,,,,,,,,,5b9e401bf074140001051957,49,Mężczyzna,2022-05-28_09h24.24.941,task,2021.1.4,Win32,59.98440405,628b806c463b948bc644b84f,6291cc99f1c19bb8a9e25cca,,,,,3,0,3,0,1,"X V Q F H G B L J M P D K C T S W R N Z
",,,,,,,,,,,,,,,,,,,,,,,,,,,,,,,,,,,,,,,,,,,,,,,,,,,,,,,,,,,,,,,,,,,,,,,,,,,,,,,,,,,,,,,,,,,,,
,,,,,,,,,,5b9e401bf074140001051957,49,Mężczyzna,2022-05-28_09h24.24.941,task,2021.1.4,Win32,59.98440405,628b806c463b948bc644b84f,6291cc99f1c19bb8a9e25cca,,,,,4,0,4,0,1,"X V Q F H G B L J M P D K C T S W R N Z
",,,,,,,,,,,,,,,,,,,,,,,,,,,,,,,,,,,,,,,,,,,,,,,,,,,,,,,,,,,,,,,,,,,,,,,,,,,,,,,,,,,,,,,,,,,,,
,,,,,,,,,,5b9e401bf074140001051957,49,Mężczyzna,2022-05-28_09h24.24.941,task,2021.1.4,Win32,59.98440405,628b806c463b948bc644b84f,6291cc99f1c19bb8a9e25cca,,,,,5,0,5,0,1,"X V Q F H G B L J M P D K C T S W R N Z
",,,,,,,,,,,,,,,,,,,,,,,,,,,,,,,,,,,,,,,,,,,,,,,,,,,,,,,,,,,,,,,,,,,,,,,,,,,,,,,,,,,,,,,,,,,,,
,,,,,,,,,,5b9e401bf074140001051957,49,Mężczyzna,2022-05-28_09h24.24.941,task,2021.1.4,Win32,59.98440405,628b806c463b948bc644b84f,6291cc99f1c19bb8a9e25cca,,,,,,,,,,,pdfrql,"[""p"",""d"",""f"",""r"",""q"",""l""]","[2.4766000000089434,3.3174000000059323,3.6037000000029593,4.855700000002912,5.585400000005961,6.78720000000294,7.904799999996953]",1,PDFRQL,12,0,12,0,1,,,,,,,,,,,,,,,,,,,,,,,,,,,,,,,,,,,,,,,,,,,,,,,,,,,,,,,,,,,,,,,,,,,,,,,,,,,,,,,,,,,
,,,,,,,,,,5b9e401bf074140001051957,49,Mężczyzna,2022-05-28_09h24.24.941,task,2021.1.4,Win32,59.98440405,628b806c463b948bc644b84f,6291cc99f1c19bb8a9e25cca,,,,,0,0,0,0,1,"X V Q F H G B L J M P D K C T S W R N Z
",,,,,,,,,,,,,,,,,,,,,,,,,,,,,,,,,,,,,,,,,,,,,,,,,,,,,,,,,,,,,,,,,,,,,,,,,,,,,,,,,,,,,,,,,,,,,
,,,,,,,,,,5b9e401bf074140001051957,49,Mężczyzna,2022-05-28_09h24.24.941,task,2021.1.4,Win32,59.98440405,628b806c463b948bc644b84f,6291cc99f1c19bb8a9e25cca,,,,,1,0,1,0,1,"X V Q F H G B L J M P D K C T S W R N Z
",,,,,,,,,,,,,,,,,,,,,,,,,,,,,,,,,,,,,,,,,,,,,,,,,,,,,,,,,,,,,,,,,,,,,,,,,,,,,,,,,,,,,,,,,,,,,
,,,,,,,,,,5b9e401bf074140001051957,49,Mężczyzna,2022-05-28_09h24.24.941,task,2021.1.4,Win32,59.98440405,628b806c463b948bc644b84f,6291cc99f1c19bb8a9e25cca,,,,,2,0,2,0,1,"X V Q F H G B L J M P D K C T S W R N Z
",,,,,,,,,,,,,,,,,,,,,,,,,,,,,,,,,,,,,,,,,,,,,,,,,,,,,,,,,,,,,,,,,,,,,,,,,,,,,,,,,,,,,,,,,,,,,
,,,,,,,,,,5b9e401bf074140001051957,49,Mężczyzna,2022-05-28_09h24.24.941,task,2021.1.4,Win32,59.98440405,628b806c463b948bc644b84f,6291cc99f1c19bb8a9e25cca,,,,,3,0,3,0,1,"X V Q F H G B L J M P D K C T S W R N Z
",,,,,,,,,,,,,,,,,,,,,,,,,,,,,,,,,,,,,,,,,,,,,,,,,,,,,,,,,,,,,,,,,,,,,,,,,,,,,,,,,,,,,,,,,,,,,
,,,,,,,,,,5b9e401bf074140001051957,49,Mężczyzna,2022-05-28_09h24.24.941,task,2021.1.4,Win32,59.98440405,628b806c463b948bc644b84f,6291cc99f1c19bb8a9e25cca,,,,,4,0,4,0,1,"X V Q F H G B L J M P D K C T S W R N Z
",,,,,,,,,,,,,,,,,,,,,,,,,,,,,,,,,,,,,,,,,,,,,,,,,,,,,,,,,,,,,,,,,,,,,,,,,,,,,,,,,,,,,,,,,,,,,
,,,,,,,,,,5b9e401bf074140001051957,49,Mężczyzna,2022-05-28_09h24.24.941,task,2021.1.4,Win32,59.98440405,628b806c463b948bc644b84f,6291cc99f1c19bb8a9e25cca,,,,,5,0,5,0,1,"X V Q F H G B L J M P D K C T S W R N Z
",,,,,,,,,,,,,,,,,,,,,,,,,,,,,,,,,,,,,,,,,,,,,,,,,,,,,,,,,,,,,,,,,,,,,,,,,,,,,,,,,,,,,,,,,,,,,
,,,,,,,,,,5b9e401bf074140001051957,49,Mężczyzna,2022-05-28_09h24.24.941,task,2021.1.4,Win32,59.98440405,628b806c463b948bc644b84f,6291cc99f1c19bb8a9e25cca,,,,,,,,,,,btkbrc,"[""b"",""t"",""k"",""b"",""r"",""c""]","[2.334699999988061,4.6515000000000555,5.841499999999996,7.34909999999411,12.37419999998815,12.954000000000065,13.708399999991116]",0,BTKBNH,13,0,13,0,1,,,,,,,,,,,,,,,,,,,,,,,,,,,,,,,,,,,,,,,,,,,,,,,,,,,,,,,,,,,,,,,,,,,,,,,,,,,,,,,,,,,
,,,,,,,,,,5b9e401bf074140001051957,49,Mężczyzna,2022-05-28_09h24.24.941,task,2021.1.4,Win32,59.98440405,628b806c463b948bc644b84f,6291cc99f1c19bb8a9e25cca,,,,,0,0,0,0,1,"X V Q F H G B L J M P D K C T S W R N Z
",,,,,,,,,,,,,,,,,,,,,,,,,,,,,,,,,,,,,,,,,,,,,,,,,,,,,,,,,,,,,,,,,,,,,,,,,,,,,,,,,,,,,,,,,,,,,
,,,,,,,,,,5b9e401bf074140001051957,49,Mężczyzna,2022-05-28_09h24.24.941,task,2021.1.4,Win32,59.98440405,628b806c463b948bc644b84f,6291cc99f1c19bb8a9e25cca,,,,,1,0,1,0,1,"X V Q F H G B L J M P D K C T S W R N Z
",,,,,,,,,,,,,,,,,,,,,,,,,,,,,,,,,,,,,,,,,,,,,,,,,,,,,,,,,,,,,,,,,,,,,,,,,,,,,,,,,,,,,,,,,,,,,
,,,,,,,,,,5b9e401bf074140001051957,49,Mężczyzna,2022-05-28_09h24.24.941,task,2021.1.4,Win32,59.98440405,628b806c463b948bc644b84f,6291cc99f1c19bb8a9e25cca,,,,,2,0,2,0,1,"X V Q F H G B L J M P D K C T S W R N Z
",,,,,,,,,,,,,,,,,,,,,,,,,,,,,,,,,,,,,,,,,,,,,,,,,,,,,,,,,,,,,,,,,,,,,,,,,,,,,,,,,,,,,,,,,,,,,
,,,,,,,,,,5b9e401bf074140001051957,49,Mężczyzna,2022-05-28_09h24.24.941,task,2021.1.4,Win32,59.98440405,628b806c463b948bc644b84f,6291cc99f1c19bb8a9e25cca,,,,,3,0,3,0,1,"X V Q F H G B L J M P D K C T S W R N Z
",,,,,,,,,,,,,,,,,,,,,,,,,,,,,,,,,,,,,,,,,,,,,,,,,,,,,,,,,,,,,,,,,,,,,,,,,,,,,,,,,,,,,,,,,,,,,
,,,,,,,,,,5b9e401bf074140001051957,49,Mężczyzna,2022-05-28_09h24.24.941,task,2021.1.4,Win32,59.98440405,628b806c463b948bc644b84f,6291cc99f1c19bb8a9e25cca,,,,,4,0,4,0,1,"X V Q F H G B L J M P D K C T S W R N Z
",,,,,,,,,,,,,,,,,,,,,,,,,,,,,,,,,,,,,,,,,,,,,,,,,,,,,,,,,,,,,,,,,,,,,,,,,,,,,,,,,,,,,,,,,,,,,
,,,,,,,,,,5b9e401bf074140001051957,49,Mężczyzna,2022-05-28_09h24.24.941,task,2021.1.4,Win32,59.98440405,628b806c463b948bc644b84f,6291cc99f1c19bb8a9e25cca,,,,,5,0,5,0,1,"X V Q F H G B L J M P D K C T S W R N Z
",,,,,,,,,,,,,,,,,,,,,,,,,,,,,,,,,,,,,,,,,,,,,,,,,,,,,,,,,,,,,,,,,,,,,,,,,,,,,,,,,,,,,,,,,,,,,
,,,,,,,,,,5b9e401bf074140001051957,49,Mężczyzna,2022-05-28_09h24.24.941,task,2021.1.4,Win32,59.98440405,628b806c463b948bc644b84f,6291cc99f1c19bb8a9e25cca,,,,,,,,,,,cdmrfx,"[""c"",""d"",""m"",""r"",""f"",""x""]","[1.7414000000060241,2.1784000000059223,2.62410000000898,3.6221000000089134,3.9312000000029457,4.865000000000009,5.7065000000000055]",1,CDMRFX,14,0,14,0,1,,,,,,,,,,,,,,,,,,,,,,,,,,,,,,,,,,,,,,,,,,,,,,,,,,,,,,,,,,,,,,,,,,,,,,,,,,,,,,,,,,,
,,,,,,,,,,5b9e401bf074140001051957,49,Mężczyzna,2022-05-28_09h24.24.941,task,2021.1.4,Win32,59.98440405,628b806c463b948bc644b84f,6291cc99f1c19bb8a9e25cca,,,,,0,0,0,0,1,"X V Q F H G B L J M P D K C T S W R N Z
",,,,,,,,,,,,,,,,,,,,,,,,,,,,,,,,,,,,,,,,,,,,,,,,,,,,,,,,,,,,,,,,,,,,,,,,,,,,,,,,,,,,,,,,,,,,,
,,,,,,,,,,5b9e401bf074140001051957,49,Mężczyzna,2022-05-28_09h24.24.941,task,2021.1.4,Win32,59.98440405,628b806c463b948bc644b84f,6291cc99f1c19bb8a9e25cca,,,,,1,0,1,0,1,"X V Q F H G B L J M P D K C T S W R N Z
",,,,,,,,,,,,,,,,,,,,,,,,,,,,,,,,,,,,,,,,,,,,,,,,,,,,,,,,,,,,,,,,,,,,,,,,,,,,,,,,,,,,,,,,,,,,,
,,,,,,,,,,5b9e401bf074140001051957,49,Mężczyzna,2022-05-28_09h24.24.941,task,2021.1.4,Win32,59.98440405,628b806c463b948bc644b84f,6291cc99f1c19bb8a9e25cca,,,,,2,0,2,0,1,"X V Q F H G B L J M P D K C T S W R N Z
",,,,,,,,,,,,,,,,,,,,,,,,,,,,,,,,,,,,,,,,,,,,,,,,,,,,,,,,,,,,,,,,,,,,,,,,,,,,,,,,,,,,,,,,,,,,,
,,,,,,,,,,5b9e401bf074140001051957,49,Mężczyzna,2022-05-28_09h24.24.941,task,2021.1.4,Win32,59.98440405,628b806c463b948bc644b84f,6291cc99f1c19bb8a9e25cca,,,,,3,0,3,0,1,"X V Q F H G B L J M P D K C T S W R N Z
",,,,,,,,,,,,,,,,,,,,,,,,,,,,,,,,,,,,,,,,,,,,,,,,,,,,,,,,,,,,,,,,,,,,,,,,,,,,,,,,,,,,,,,,,,,,,
,,,,,,,,,,5b9e401bf074140001051957,49,Mężczyzna,2022-05-28_09h24.24.941,task,2021.1.4,Win32,59.98440405,628b806c463b948bc644b84f,6291cc99f1c19bb8a9e25cca,,,,,4,0,4,0,1,"X V Q F H G B L J M P D K C T S W R N Z
",,,,,,,,,,,,,,,,,,,,,,,,,,,,,,,,,,,,,,,,,,,,,,,,,,,,,,,,,,,,,,,,,,,,,,,,,,,,,,,,,,,,,,,,,,,,,
,,,,,,,,,,5b9e401bf074140001051957,49,Mężczyzna,2022-05-28_09h24.24.941,task,2021.1.4,Win32,59.98440405,628b806c463b948bc644b84f,6291cc99f1c19bb8a9e25cca,,,,,5,0,5,0,1,"X V Q F H G B L J M P D K C T S W R N Z
",,,,,,,,,,,,,,,,,,,,,,,,,,,,,,,,,,,,,,,,,,,,,,,,,,,,,,,,,,,,,,,,,,,,,,,,,,,,,,,,,,,,,,,,,,,,,
,,,,,,,,,,5b9e401bf074140001051957,49,Mężczyzna,2022-05-28_09h24.24.941,task,2021.1.4,Win32,59.98440405,628b806c463b948bc644b84f,6291cc99f1c19bb8a9e25cca,,,,,6,0,6,0,1,"X V Q F H G B L J M P D K C T S W R N Z
",,,,,,,,,,,,,,,,,,,,,,,,,,,,,,,,,,,,,,,,,,,,,,,,,,,,,,,,,,,,,,,,,,,,,,,,,,,,,,,,,,,,,,,,,,,,,
,,,,,,,,,,5b9e401bf074140001051957,49,Mężczyzna,2022-05-28_09h24.24.941,task,2021.1.4,Win32,59.98440405,628b806c463b948bc644b84f,6291cc99f1c19bb8a9e25cca,,,,,,,,,,,zcdrdsz,"[""z"",""c"",""d"",""r"",""d"",""s"",""z""]","[3.8555000000000064,4.185599999993997,8.438200000003008,9.854700000002936,11.132700000002956,12.622399999991103,13.312099999994075,18.05200000000002]",0,"LZ
NNDSG",15,0,15,0,1,,,,,,,,,,,,,,,,,,,,,,,,,,,,,,,,,,,,,,,,,,,,,,,,,,,,,,,,,,,,,,,,,,,,,,,,,,,,,,,,,,,
,,,,,,,,,,5b9e401bf074140001051957,49,Mężczyzna,2022-05-28_09h24.24.941,task,2021.1.4,Win32,59.98440405,628b806c463b948bc644b84f,6291cc99f1c19bb8a9e25cca,,,,,0,0,0,0,1,"X V Q F H G B L J M P D K C T S W R N Z
",,,,,,,,,,,,,,,,,,,,,,,,,,,,,,,,,,,,,,,,,,,,,,,,,,,,,,,,,,,,,,,,,,,,,,,,,,,,,,,,,,,,,,,,,,,,,
,,,,,,,,,,5b9e401bf074140001051957,49,Mężczyzna,2022-05-28_09h24.24.941,task,2021.1.4,Win32,59.98440405,628b806c463b948bc644b84f,6291cc99f1c19bb8a9e25cca,,,,,1,0,1,0,1,"X V Q F H G B L J M P D K C T S W R N Z
",,,,,,,,,,,,,,,,,,,,,,,,,,,,,,,,,,,,,,,,,,,,,,,,,,,,,,,,,,,,,,,,,,,,,,,,,,,,,,,,,,,,,,,,,,,,,
,,,,,,,,,,5b9e401bf074140001051957,49,Mężczyzna,2022-05-28_09h24.24.941,task,2021.1.4,Win32,59.98440405,628b806c463b948bc644b84f,6291cc99f1c19bb8a9e25cca,,,,,2,0,2,0,1,"X V Q F H G B L J M P D K C T S W R N Z
",,,,,,,,,,,,,,,,,,,,,,,,,,,,,,,,,,,,,,,,,,,,,,,,,,,,,,,,,,,,,,,,,,,,,,,,,,,,,,,,,,,,,,,,,,,,,
,,,,,,,,,,5b9e401bf074140001051957,49,Mężczyzna,2022-05-28_09h24.24.941,task,2021.1.4,Win32,59.98440405,628b806c463b948bc644b84f,6291cc99f1c19bb8a9e25cca,,,,,3,0,3,0,1,"X V Q F H G B L J M P D K C T S W R N Z
",,,,,,,,,,,,,,,,,,,,,,,,,,,,,,,,,,,,,,,,,,,,,,,,,,,,,,,,,,,,,,,,,,,,,,,,,,,,,,,,,,,,,,,,,,,,,
,,,,,,,,,,5b9e401bf074140001051957,49,Mężczyzna,2022-05-28_09h24.24.941,task,2021.1.4,Win32,59.98440405,628b806c463b948bc644b84f,6291cc99f1c19bb8a9e25cca,,,,,4,0,4,0,1,"X V Q F H G B L J M P D K C T S W R N Z
",,,,,,,,,,,,,,,,,,,,,,,,,,,,,,,,,,,,,,,,,,,,,,,,,,,,,,,,,,,,,,,,,,,,,,,,,,,,,,,,,,,,,,,,,,,,,
,,,,,,,,,,5b9e401bf074140001051957,49,Mężczyzna,2022-05-28_09h24.24.941,task,2021.1.4,Win32,59.98440405,628b806c463b948bc644b84f,6291cc99f1c19bb8a9e25cca,,,,,5,0,5,0,1,"X V Q F H G B L J M P D K C T S W R N Z
",,,,,,,,,,,,,,,,,,,,,,,,,,,,,,,,,,,,,,,,,,,,,,,,,,,,,,,,,,,,,,,,,,,,,,,,,,,,,,,,,,,,,,,,,,,,,
,,,,,,,,,,5b9e401bf074140001051957,49,Mężczyzna,2022-05-28_09h24.24.941,task,2021.1.4,Win32,59.98440405,628b806c463b948bc644b84f,6291cc99f1c19bb8a9e25cca,,,,,6,0,6,0,1,"X V Q F H G B L J M P D K C T S W R N Z
",,,,,,,,,,,,,,,,,,,,,,,,,,,,,,,,,,,,,,,,,,,,,,,,,,,,,,,,,,,,,,,,,,,,,,,,,,,,,,,,,,,,,,,,,,,,,
,,,,,,,,,,5b9e401bf074140001051957,49,Mężczyzna,2022-05-28_09h24.24.941,task,2021.1.4,Win32,59.98440405,628b806c463b948bc644b84f,6291cc99f1c19bb8a9e25cca,,,,,,,,,,,ktqstlz,"[""k"",""t"",""q"",""s"",""t"",""l"",""z""]","[3.630199999988008,5.200299999997014,6.86569999998801,7.500299999996969,8.885599999994042,9.735899999991034,11.013599999993971,12.128299999997012]",0,"KTQSTLZ
",16,0,16,0,1,,,,,,,,,,,,,,,,,,,,,,,,,,,,,,,,,,,,,,,,,,,,,,,,,,,,,,,,,,,,,,,,,,,,,,,,,,,,,,,,,,,
,,,,,,,,,,5b9e401bf074140001051957,49,Mężczyzna,2022-05-28_09h24.24.941,task,2021.1.4,Win32,59.98440405,628b806c463b948bc644b84f,6291cc99f1c19bb8a9e25cca,,,,,0,0,0,0,1,"X V Q F H G B L J M P D K C T S W R N Z
",,,,,,,,,,,,,,,,,,,,,,,,,,,,,,,,,,,,,,,,,,,,,,,,,,,,,,,,,,,,,,,,,,,,,,,,,,,,,,,,,,,,,,,,,,,,,
,,,,,,,,,,5b9e401bf074140001051957,49,Mężczyzna,2022-05-28_09h24.24.941,task,2021.1.4,Win32,59.98440405,628b806c463b948bc644b84f,6291cc99f1c19bb8a9e25cca,,,,,1,0,1,0,1,"X V Q F H G B L J M P D K C T S W R N Z
",,,,,,,,,,,,,,,,,,,,,,,,,,,,,,,,,,,,,,,,,,,,,,,,,,,,,,,,,,,,,,,,,,,,,,,,,,,,,,,,,,,,,,,,,,,,,
,,,,,,,,,,5b9e401bf074140001051957,49,Mężczyzna,2022-05-28_09h24.24.941,task,2021.1.4,Win32,59.98440405,628b806c463b948bc644b84f,6291cc99f1c19bb8a9e25cca,,,,,2,0,2,0,1,"X V Q F H G B L J M P D K C T S W R N Z
",,,,,,,,,,,,,,,,,,,,,,,,,,,,,,,,,,,,,,,,,,,,,,,,,,,,,,,,,,,,,,,,,,,,,,,,,,,,,,,,,,,,,,,,,,,,,
,,,,,,,,,,5b9e401bf074140001051957,49,Mężczyzna,2022-05-28_09h24.24.941,task,2021.1.4,Win32,59.98440405,628b806c463b948bc644b84f,6291cc99f1c19bb8a9e25cca,,,,,3,0,3,0,1,"X V Q F H G B L J M P D K C T S W R N Z
",,,,,,,,,,,,,,,,,,,,,,,,,,,,,,,,,,,,,,,,,,,,,,,,,,,,,,,,,,,,,,,,,,,,,,,,,,,,,,,,,,,,,,,,,,,,,
,,,,,,,,,,5b9e401bf074140001051957,49,Mężczyzna,2022-05-28_09h24.24.941,task,2021.1.4,Win32,59.98440405,628b806c463b948bc644b84f,6291cc99f1c19bb8a9e25cca,,,,,4,0,4,0,1,"X V Q F H G B L J M P D K C T S W R N Z
",,,,,,,,,,,,,,,,,,,,,,,,,,,,,,,,,,,,,,,,,,,,,,,,,,,,,,,,,,,,,,,,,,,,,,,,,,,,,,,,,,,,,,,,,,,,,
,,,,,,,,,,5b9e401bf074140001051957,49,Mężczyzna,2022-05-28_09h24.24.941,task,2021.1.4,Win32,59.98440405,628b806c463b948bc644b84f,6291cc99f1c19bb8a9e25cca,,,,,5,0,5,0,1,"X V Q F H G B L J M P D K C T S W R N Z
",,,,,,,,,,,,,,,,,,,,,,,,,,,,,,,,,,,,,,,,,,,,,,,,,,,,,,,,,,,,,,,,,,,,,,,,,,,,,,,,,,,,,,,,,,,,,
,,,,,,,,,,5b9e401bf074140001051957,49,Mężczyzna,2022-05-28_09h24.24.941,task,2021.1.4,Win32,59.98440405,628b806c463b948bc644b84f,6291cc99f1c19bb8a9e25cca,,,,,6,0,6,0,1,"X V Q F H G B L J M P D K C T S W R N Z
",,,,,,,,,,,,,,,,,,,,,,,,,,,,,,,,,,,,,,,,,,,,,,,,,,,,,,,,,,,,,,,,,,,,,,,,,,,,,,,,,,,,,,,,,,,,,
,,,,,,,,,,5b9e401bf074140001051957,49,Mężczyzna,2022-05-28_09h24.24.941,task,2021.1.4,Win32,59.98440405,628b806c463b948bc644b84f,6291cc99f1c19bb8a9e25cca,,,,,,,,,,,qxfqxqp,"[""q"",""x"",""f"",""q"",""x"",""q"",""p""]","[3.1522000000029493,3.901900000005867,10.530499999999961,11.669999999999959,14.20710000000895,16.058300000011855,16.456600000008848,17.453800000011825]",1,QXFQXQP,17,0,17,0,1,,,,,,,,,,,,,,,,,,,,,,,,,,,,,,,,,,,,,,,,,,,,,,,,,,,,,,,,,,,,,,,,,,,,,,,,,,,,,,,,,,,
,,,,,,,,,,5b9e401bf074140001051957,49,Mężczyzna,2022-05-28_09h24.24.941,task,2021.1.4,Win32,59.98440405,628b806c463b948bc644b84f,6291cc99f1c19bb8a9e25cca,,,,,0,0,0,0,1,"X V Q F H G B L J M P D K C T S W R N Z
",,,,,,,,,,,,,,,,,,,,,,,,,,,,,,,,,,,,,,,,,,,,,,,,,,,,,,,,,,,,,,,,,,,,,,,,,,,,,,,,,,,,,,,,,,,,,
,,,,,,,,,,5b9e401bf074140001051957,49,Mężczyzna,2022-05-28_09h24.24.941,task,2021.1.4,Win32,59.98440405,628b806c463b948bc644b84f,6291cc99f1c19bb8a9e25cca,,,,,1,0,1,0,1,"X V Q F H G B L J M P D K C T S W R N Z
",,,,,,,,,,,,,,,,,,,,,,,,,,,,,,,,,,,,,,,,,,,,,,,,,,,,,,,,,,,,,,,,,,,,,,,,,,,,,,,,,,,,,,,,,,,,,
,,,,,,,,,,5b9e401bf074140001051957,49,Mężczyzna,2022-05-28_09h24.24.941,task,2021.1.4,Win32,59.98440405,628b806c463b948bc644b84f,6291cc99f1c19bb8a9e25cca,,,,,2,0,2,0,1,"X V Q F H G B L J M P D K C T S W R N Z
",,,,,,,,,,,,,,,,,,,,,,,,,,,,,,,,,,,,,,,,,,,,,,,,,,,,,,,,,,,,,,,,,,,,,,,,,,,,,,,,,,,,,,,,,,,,,
,,,,,,,,,,5b9e401bf074140001051957,49,Mężczyzna,2022-05-28_09h24.24.941,task,2021.1.4,Win32,59.98440405,628b806c463b948bc644b84f,6291cc99f1c19bb8a9e25cca,,,,,3,0,3,0,1,"X V Q F H G B L J M P D K C T S W R N Z
",,,,,,,,,,,,,,,,,,,,,,,,,,,,,,,,,,,,,,,,,,,,,,,,,,,,,,,,,,,,,,,,,,,,,,,,,,,,,,,,,,,,,,,,,,,,,
,,,,,,,,,,5b9e401bf074140001051957,49,Mężczyzna,2022-05-28_09h24.24.941,task,2021.1.4,Win32,59.98440405,628b806c463b948bc644b84f,6291cc99f1c19bb8a9e25cca,,,,,4,0,4,0,1,"X V Q F H G B L J M P D K C T S W R N Z
",,,,,,,,,,,,,,,,,,,,,,,,,,,,,,,,,,,,,,,,,,,,,,,,,,,,,,,,,,,,,,,,,,,,,,,,,,,,,,,,,,,,,,,,,,,,,
,,,,,,,,,,5b9e401bf074140001051957,49,Mężczyzna,2022-05-28_09h24.24.941,task,2021.1.4,Win32,59.98440405,628b806c463b948bc644b84f,6291cc99f1c19bb8a9e25cca,,,,,5,0,5,0,1,"X V Q F H G B L J M P D K C T S W R N Z
",,,,,,,,,,,,,,,,,,,,,,,,,,,,,,,,,,,,,,,,,,,,,,,,,,,,,,,,,,,,,,,,,,,,,,,,,,,,,,,,,,,,,,,,,,,,,
,,,,,,,,,,5b9e401bf074140001051957,49,Mężczyzna,2022-05-28_09h24.24.941,task,2021.1.4,Win32,59.98440405,628b806c463b948bc644b84f,6291cc99f1c19bb8a9e25cca,,,,,6,0,6,0,1,"X V Q F H G B L J M P D K C T S W R N Z
",,,,,,,,,,,,,,,,,,,,,,,,,,,,,,,,,,,,,,,,,,,,,,,,,,,,,,,,,,,,,,,,,,,,,,,,,,,,,,,,,,,,,,,,,,,,,
,,,,,,,,,,5b9e401bf074140001051957,49,Mężczyzna,2022-05-28_09h24.24.941,task,2021.1.4,Win32,59.98440405,628b806c463b948bc644b84f,6291cc99f1c19bb8a9e25cca,,,,,,,,,,,pdkswld,"[""p"",""d"",""k"",""s"",""w"",""l"",""d""]","[4.2218999999911375,4.869299999996997,5.213299999997048,5.657199999988052,5.980799999997089,6.2847999999970625,6.666199999988066,7.50479999999709]",1,PDKSWLD,18,0,18,0,1,,,,,,,,,,,,,,,,,,,,,,,,,,,,,,,,,,,,,,,,,,,,,,,,,,,,,,,,,,,,,,,,,,,,,,,,,,,,,,,,,,,
,,,,,,,,,,5b9e401bf074140001051957,49,Mężczyzna,2022-05-28_09h24.24.941,task,2021.1.4,Win32,59.98440405,628b806c463b948bc644b84f,6291cc99f1c19bb8a9e25cca,,,,,0,0,0,0,1,"X V Q F H G B L J M P D K C T S W R N Z
",,,,,,,,,,,,,,,,,,,,,,,,,,,,,,,,,,,,,,,,,,,,,,,,,,,,,,,,,,,,,,,,,,,,,,,,,,,,,,,,,,,,,,,,,,,,,
,,,,,,,,,,5b9e401bf074140001051957,49,Mężczyzna,2022-05-28_09h24.24.941,task,2021.1.4,Win32,59.98440405,628b806c463b948bc644b84f,6291cc99f1c19bb8a9e25cca,,,,,1,0,1,0,1,"X V Q F H G B L J M P D K C T S W R N Z
",,,,,,,,,,,,,,,,,,,,,,,,,,,,,,,,,,,,,,,,,,,,,,,,,,,,,,,,,,,,,,,,,,,,,,,,,,,,,,,,,,,,,,,,,,,,,
,,,,,,,,,,5b9e401bf074140001051957,49,Mężczyzna,2022-05-28_09h24.24.941,task,2021.1.4,Win32,59.98440405,628b806c463b948bc644b84f,6291cc99f1c19bb8a9e25cca,,,,,2,0,2,0,1,"X V Q F H G B L J M P D K C T S W R N Z
",,,,,,,,,,,,,,,,,,,,,,,,,,,,,,,,,,,,,,,,,,,,,,,,,,,,,,,,,,,,,,,,,,,,,,,,,,,,,,,,,,,,,,,,,,,,,
,,,,,,,,,,5b9e401bf074140001051957,49,Mężczyzna,2022-05-28_09h24.24.941,task,2021.1.4,Win32,59.98440405,628b806c463b948bc644b84f,6291cc99f1c19bb8a9e25cca,,,,,3,0,3,0,1,"X V Q F H G B L J M P D K C T S W R N Z
",,,,,,,,,,,,,,,,,,,,,,,,,,,,,,,,,,,,,,,,,,,,,,,,,,,,,,,,,,,,,,,,,,,,,,,,,,,,,,,,,,,,,,,,,,,,,
,,,,,,,,,,5b9e401bf074140001051957,49,Mężczyzna,2022-05-28_09h24.24.941,task,2021.1.4,Win32,59.98440405,628b806c463b948bc644b84f,6291cc99f1c19bb8a9e25cca,,,,,4,0,4,0,1,"X V Q F H G B L J M P D K C T S W R N Z
",,,,,,,,,,,,,,,,,,,,,,,,,,,,,,,,,,,,,,,,,,,,,,,,,,,,,,,,,,,,,,,,,,,,,,,,,,,,,,,,,,,,,,,,,,,,,
,,,,,,,,,,5b9e401bf074140001051957,49,Mężczyzna,2022-05-28_09h24.24.941,task,2021.1.4,Win32,59.98440405,628b806c463b948bc644b84f,6291cc99f1c19bb8a9e25cca,,,,,5,0,5,0,1,"X V Q F H G B L J M P D K C T S W R N Z
",,,,,,,,,,,,,,,,,,,,,,,,,,,,,,,,,,,,,,,,,,,,,,,,,,,,,,,,,,,,,,,,,,,,,,,,,,,,,,,,,,,,,,,,,,,,,
,,,,,,,,,,5b9e401bf074140001051957,49,Mężczyzna,2022-05-28_09h24.24.941,task,2021.1.4,Win32,59.98440405,628b806c463b948bc644b84f,6291cc99f1c19bb8a9e25cca,,,,,6,0,6,0,1,"X V Q F H G B L J M P D K C T S W R N Z
",,,,,,,,,,,,,,,,,,,,,,,,,,,,,,,,,,,,,,,,,,,,,,,,,,,,,,,,,,,,,,,,,,,,,,,,,,,,,,,,,,,,,,,,,,,,,
,,,,,,,,,,5b9e401bf074140001051957,49,Mężczyzna,2022-05-28_09h24.24.941,task,2021.1.4,Win32,59.98440405,628b806c463b948bc644b84f,6291cc99f1c19bb8a9e25cca,,,,,7,0,7,0,1,"X V Q F H G B L J M P D K C T S W R N Z
",,,,,,,,,,,,,,,,,,,,,,,,,,,,,,,,,,,,,,,,,,,,,,,,,,,,,,,,,,,,,,,,,,,,,,,,,,,,,,,,,,,,,,,,,,,,,
,,,,,,,,,,5b9e401bf074140001051957,49,Mężczyzna,2022-05-28_09h24.24.941,task,2021.1.4,Win32,59.98440405,628b806c463b948bc644b84f,6291cc99f1c19bb8a9e25cca,,,,,,,,,,,rnsqfphg,"[""r"",""n"",""s"",""q"",""f"",""p"",""h"",""g""]","[2.9200999999940223,3.2820999999939886,3.617399999990994,4.268099999993979,5.053099999993947,5.631899999990992,6.153399999991052,7.546799999997006,8.320200000002956]",1,RNSQFPHG,19,0,19,0,1,,,,,,,,,,,,,,,,,,,,,,,,,,,,,,,,,,,,,,,,,,,,,,,,,,,,,,,,,,,,,,,,,,,,,,,,,,,,,,,,,,,
,,,,,,,,,,5b9e401bf074140001051957,49,Mężczyzna,2022-05-28_09h24.24.941,task,2021.1.4,Win32,59.98440405,628b806c463b948bc644b84f,6291cc99f1c19bb8a9e25cca,,,,,0,0,0,0,1,"X V Q F H G B L J M P D K C T S W R N Z
",,,,,,,,,,,,,,,,,,,,,,,,,,,,,,,,,,,,,,,,,,,,,,,,,,,,,,,,,,,,,,,,,,,,,,,,,,,,,,,,,,,,,,,,,,,,,
,,,,,,,,,,5b9e401bf074140001051957,49,Mężczyzna,2022-05-28_09h24.24.941,task,2021.1.4,Win32,59.98440405,628b806c463b948bc644b84f,6291cc99f1c19bb8a9e25cca,,,,,1,0,1,0,1,"X V Q F H G B L J M P D K C T S W R N Z
",,,,,,,,,,,,,,,,,,,,,,,,,,,,,,,,,,,,,,,,,,,,,,,,,,,,,,,,,,,,,,,,,,,,,,,,,,,,,,,,,,,,,,,,,,,,,
,,,,,,,,,,5b9e401bf074140001051957,49,Mężczyzna,2022-05-28_09h24.24.941,task,2021.1.4,Win32,59.98440405,628b806c463b948bc644b84f,6291cc99f1c19bb8a9e25cca,,,,,2,0,2,0,1,"X V Q F H G B L J M P D K C T S W R N Z
",,,,,,,,,,,,,,,,,,,,,,,,,,,,,,,,,,,,,,,,,,,,,,,,,,,,,,,,,,,,,,,,,,,,,,,,,,,,,,,,,,,,,,,,,,,,,
,,,,,,,,,,5b9e401bf074140001051957,49,Mężczyzna,2022-05-28_09h24.24.941,task,2021.1.4,Win32,59.98440405,628b806c463b948bc644b84f,6291cc99f1c19bb8a9e25cca,,,,,3,0,3,0,1,"X V Q F H G B L J M P D K C T S W R N Z
",,,,,,,,,,,,,,,,,,,,,,,,,,,,,,,,,,,,,,,,,,,,,,,,,,,,,,,,,,,,,,,,,,,,,,,,,,,,,,,,,,,,,,,,,,,,,
,,,,,,,,,,5b9e401bf074140001051957,49,Mężczyzna,2022-05-28_09h24.24.941,task,2021.1.4,Win32,59.98440405,628b806c463b948bc644b84f,6291cc99f1c19bb8a9e25cca,,,,,4,0,4,0,1,"X V Q F H G B L J M P D K C T S W R N Z
",,,,,,,,,,,,,,,,,,,,,,,,,,,,,,,,,,,,,,,,,,,,,,,,,,,,,,,,,,,,,,,,,,,,,,,,,,,,,,,,,,,,,,,,,,,,,
,,,,,,,,,,5b9e401bf074140001051957,49,Mężczyzna,2022-05-28_09h24.24.941,task,2021.1.4,Win32,59.98440405,628b806c463b948bc644b84f,6291cc99f1c19bb8a9e25cca,,,,,5,0,5,0,1,"X V Q F H G B L J M P D K C T S W R N Z
",,,,,,,,,,,,,,,,,,,,,,,,,,,,,,,,,,,,,,,,,,,,,,,,,,,,,,,,,,,,,,,,,,,,,,,,,,,,,,,,,,,,,,,,,,,,,
,,,,,,,,,,5b9e401bf074140001051957,49,Mężczyzna,2022-05-28_09h24.24.941,task,2021.1.4,Win32,59.98440405,628b806c463b948bc644b84f,6291cc99f1c19bb8a9e25cca,,,,,6,0,6,0,1,"X V Q F H G B L J M P D K C T S W R N Z
",,,,,,,,,,,,,,,,,,,,,,,,,,,,,,,,,,,,,,,,,,,,,,,,,,,,,,,,,,,,,,,,,,,,,,,,,,,,,,,,,,,,,,,,,,,,,
,,,,,,,,,,5b9e401bf074140001051957,49,Mężczyzna,2022-05-28_09h24.24.941,task,2021.1.4,Win32,59.98440405,628b806c463b948bc644b84f,6291cc99f1c19bb8a9e25cca,,,,,7,0,7,0,1,"X V Q F H G B L J M P D K C T S W R N Z
",,,,,,,,,,,,,,,,,,,,,,,,,,,,,,,,,,,,,,,,,,,,,,,,,,,,,,,,,,,,,,,,,,,,,,,,,,,,,,,,,,,,,,,,,,,,,
,,,,,,,,,,5b9e401bf074140001051957,49,Mężczyzna,2022-05-28_09h24.24.941,task,2021.1.4,Win32,59.98440405,628b806c463b948bc644b84f,6291cc99f1c19bb8a9e25cca,,,,,,,,,,,rwfkzct,"[""r"",""w"",""f"",""k"",""z"",""c"",""t""]","[2.764799999996967,3.5811000000088598,3.8926000000088834,4.223999999999933,4.974999999999909,7.533999999999992,8.214400000005867,9.0121000000089]",0,"RWFKZ
TCZ
",20,0,20,0,1,,,,,,,,,,,,,,,,,,,,,,,,,,,,,,,,,,,,,,,,,,,,,,,,,,,,,,,,,,,,,,,,,,,,,,,,,,,,,,,,,,,
,,,,,,,,,,5b9e401bf074140001051957,49,Mężczyzna,2022-05-28_09h24.24.941,task,2021.1.4,Win32,59.98440405,628b806c463b948bc644b84f,6291cc99f1c19bb8a9e25cca,,,,,0,0,0,0,1,"X V Q F H G B L J M P D K C T S W R N Z
",,,,,,,,,,,,,,,,,,,,,,,,,,,,,,,,,,,,,,,,,,,,,,,,,,,,,,,,,,,,,,,,,,,,,,,,,,,,,,,,,,,,,,,,,,,,,
,,,,,,,,,,5b9e401bf074140001051957,49,Mężczyzna,2022-05-28_09h24.24.941,task,2021.1.4,Win32,59.98440405,628b806c463b948bc644b84f,6291cc99f1c19bb8a9e25cca,,,,,1,0,1,0,1,"X V Q F H G B L J M P D K C T S W R N Z
",,,,,,,,,,,,,,,,,,,,,,,,,,,,,,,,,,,,,,,,,,,,,,,,,,,,,,,,,,,,,,,,,,,,,,,,,,,,,,,,,,,,,,,,,,,,,
,,,,,,,,,,5b9e401bf074140001051957,49,Mężczyzna,2022-05-28_09h24.24.941,task,2021.1.4,Win32,59.98440405,628b806c463b948bc644b84f,6291cc99f1c19bb8a9e25cca,,,,,2,0,2,0,1,"X V Q F H G B L J M P D K C T S W R N Z
",,,,,,,,,,,,,,,,,,,,,,,,,,,,,,,,,,,,,,,,,,,,,,,,,,,,,,,,,,,,,,,,,,,,,,,,,,,,,,,,,,,,,,,,,,,,,
,,,,,,,,,,5b9e401bf074140001051957,49,Mężczyzna,2022-05-28_09h24.24.941,task,2021.1.4,Win32,59.98440405,628b806c463b948bc644b84f,6291cc99f1c19bb8a9e25cca,,,,,3,0,3,0,1,"X V Q F H G B L J M P D K C T S W R N Z
",,,,,,,,,,,,,,,,,,,,,,,,,,,,,,,,,,,,,,,,,,,,,,,,,,,,,,,,,,,,,,,,,,,,,,,,,,,,,,,,,,,,,,,,,,,,,
,,,,,,,,,,5b9e401bf074140001051957,49,Mężczyzna,2022-05-28_09h24.24.941,task,2021.1.4,Win32,59.98440405,628b806c463b948bc644b84f,6291cc99f1c19bb8a9e25cca,,,,,4,0,4,0,1,"X V Q F H G B L J M P D K C T S W R N Z
",,,,,,,,,,,,,,,,,,,,,,,,,,,,,,,,,,,,,,,,,,,,,,,,,,,,,,,,,,,,,,,,,,,,,,,,,,,,,,,,,,,,,,,,,,,,,
,,,,,,,,,,5b9e401bf074140001051957,49,Mężczyzna,2022-05-28_09h24.24.941,task,2021.1.4,Win32,59.98440405,628b806c463b948bc644b84f,6291cc99f1c19bb8a9e25cca,,,,,5,0,5,0,1,"X V Q F H G B L J M P D K C T S W R N Z
",,,,,,,,,,,,,,,,,,,,,,,,,,,,,,,,,,,,,,,,,,,,,,,,,,,,,,,,,,,,,,,,,,,,,,,,,,,,,,,,,,,,,,,,,,,,,
,,,,,,,,,,5b9e401bf074140001051957,49,Mężczyzna,2022-05-28_09h24.24.941,task,2021.1.4,Win32,59.98440405,628b806c463b948bc644b84f,6291cc99f1c19bb8a9e25cca,,,,,6,0,6,0,1,"X V Q F H G B L J M P D K C T S W R N Z
",,,,,,,,,,,,,,,,,,,,,,,,,,,,,,,,,,,,,,,,,,,,,,,,,,,,,,,,,,,,,,,,,,,,,,,,,,,,,,,,,,,,,,,,,,,,,
,,,,,,,,,,5b9e401bf074140001051957,49,Mężczyzna,2022-05-28_09h24.24.941,task,2021.1.4,Win32,59.98440405,628b806c463b948bc644b84f,6291cc99f1c19bb8a9e25cca,,,,,7,0,7,0,1,"X V Q F H G B L J M P D K C T S W R N Z
",,,,,,,,,,,,,,,,,,,,,,,,,,,,,,,,,,,,,,,,,,,,,,,,,,,,,,,,,,,,,,,,,,,,,,,,,,,,,,,,,,,,,,,,,,,,,
,,,,,,,,,,5b9e401bf074140001051957,49,Mężczyzna,2022-05-28_09h24.24.941,task,2021.1.4,Win32,59.98440405,628b806c463b948bc644b84f,6291cc99f1c19bb8a9e25cca,,,,,,,,,,,jrwvqznj,"[""j"",""r"",""w"",""v"",""q"",""z"",""n"",""j""]","[4.684099999994032,5.550299999997037,7.068200000003003,8.459599999993998,10.403200000002926,11.050700000002962,11.906299999997032,12.296099999993999,12.795900000005986]",0,"JRWVQZ
NJ",21,0,21,0,1,,,,,,,,,,,,,,,,,,,,,,,,,,,,,,,,,,,,,,,,,,,,,,,,,,,,,,,,,,,,,,,,,,,,,,,,,,,,,,,,,,,
,,,,,,,,,,5b9e401bf074140001051957,49,Mężczyzna,2022-05-28_09h24.24.941,task,2021.1.4,Win32,59.98440405,628b806c463b948bc644b84f,6291cc99f1c19bb8a9e25cca,,,,,0,0,0,0,1,"X V Q F H G B L J M P D K C T S W R N Z
",,,,,,,,,,,,,,,,,,,,,,,,,,,,,,,,,,,,,,,,,,,,,,,,,,,,,,,,,,,,,,,,,,,,,,,,,,,,,,,,,,,,,,,,,,,,,
,,,,,,,,,,5b9e401bf074140001051957,49,Mężczyzna,2022-05-28_09h24.24.941,task,2021.1.4,Win32,59.98440405,628b806c463b948bc644b84f,6291cc99f1c19bb8a9e25cca,,,,,1,0,1,0,1,"X V Q F H G B L J M P D K C T S W R N Z
",,,,,,,,,,,,,,,,,,,,,,,,,,,,,,,,,,,,,,,,,,,,,,,,,,,,,,,,,,,,,,,,,,,,,,,,,,,,,,,,,,,,,,,,,,,,,
,,,,,,,,,,5b9e401bf074140001051957,49,Mężczyzna,2022-05-28_09h24.24.941,task,2021.1.4,Win32,59.98440405,628b806c463b948bc644b84f,6291cc99f1c19bb8a9e25cca,,,,,2,0,2,0,1,"X V Q F H G B L J M P D K C T S W R N Z
",,,,,,,,,,,,,,,,,,,,,,,,,,,,,,,,,,,,,,,,,,,,,,,,,,,,,,,,,,,,,,,,,,,,,,,,,,,,,,,,,,,,,,,,,,,,,
,,,,,,,,,,5b9e401bf074140001051957,49,Mężczyzna,2022-05-28_09h24.24.941,task,2021.1.4,Win32,59.98440405,628b806c463b948bc644b84f,6291cc99f1c19bb8a9e25cca,,,,,3,0,3,0,1,"X V Q F H G B L J M P D K C T S W R N Z
",,,,,,,,,,,,,,,,,,,,,,,,,,,,,,,,,,,,,,,,,,,,,,,,,,,,,,,,,,,,,,,,,,,,,,,,,,,,,,,,,,,,,,,,,,,,,
,,,,,,,,,,5b9e401bf074140001051957,49,Mężczyzna,2022-05-28_09h24.24.941,task,2021.1.4,Win32,59.98440405,628b806c463b948bc644b84f,6291cc99f1c19bb8a9e25cca,,,,,4,0,4,0,1,"X V Q F H G B L J M P D K C T S W R N Z
",,,,,,,,,,,,,,,,,,,,,,,,,,,,,,,,,,,,,,,,,,,,,,,,,,,,,,,,,,,,,,,,,,,,,,,,,,,,,,,,,,,,,,,,,,,,,
,,,,,,,,,,5b9e401bf074140001051957,49,Mężczyzna,2022-05-28_09h24.24.941,task,2021.1.4,Win32,59.98440405,628b806c463b948bc644b84f,6291cc99f1c19bb8a9e25cca,,,,,5,0,5,0,1,"X V Q F H G B L J M P D K C T S W R N Z
",,,,,,,,,,,,,,,,,,,,,,,,,,,,,,,,,,,,,,,,,,,,,,,,,,,,,,,,,,,,,,,,,,,,,,,,,,,,,,,,,,,,,,,,,,,,,
,,,,,,,,,,5b9e401bf074140001051957,49,Mężczyzna,2022-05-28_09h24.24.941,task,2021.1.4,Win32,59.98440405,628b806c463b948bc644b84f,6291cc99f1c19bb8a9e25cca,,,,,6,0,6,0,1,"X V Q F H G B L J M P D K C T S W R N Z
",,,,,,,,,,,,,,,,,,,,,,,,,,,,,,,,,,,,,,,,,,,,,,,,,,,,,,,,,,,,,,,,,,,,,,,,,,,,,,,,,,,,,,,,,,,,,
,,,,,,,,,,5b9e401bf074140001051957,49,Mężczyzna,2022-05-28_09h24.24.941,task,2021.1.4,Win32,59.98440405,628b806c463b948bc644b84f,6291cc99f1c19bb8a9e25cca,,,,,7,0,7,0,1,"X V Q F H G B L J M P D K C T S W R N Z
",,,,,,,,,,,,,,,,,,,,,,,,,,,,,,,,,,,,,,,,,,,,,,,,,,,,,,,,,,,,,,,,,,,,,,,,,,,,,,,,,,,,,,,,,,,,,
,,,,,,,,,,5b9e401bf074140001051957,49,Mężczyzna,2022-05-28_09h24.24.941,task,2021.1.4,Win32,59.98440405,628b806c463b948bc644b84f,6291cc99f1c19bb8a9e25cca,,,,,,,,,,,wbvrswrh,"[""w"",""b"",""v"",""r"",""s"",""w"",""r"",""h""]","[2.3812999999969406,3.782700000002933,4.997999999999934,5.473200000002976,5.713099999994029,6.723299999997039,7.226299999996968,7.44109999999398,8.359099999993987]",1,WBVRSWRH,22,0,22,0,1,,,,,,,,,,,,,,,,,,,,,,,,,,,,,,,,,,,,,,,,,,,,,,,,,,,,,,,,,,,,,,,,,,,,,,,,,,,,,,,,,,,
,,,,,,,,,,5b9e401bf074140001051957,49,Mężczyzna,2022-05-28_09h24.24.941,task,2021.1.4,Win32,59.98440405,628b806c463b948bc644b84f,6291cc99f1c19bb8a9e25cca,,,,,0,0,0,0,1,"X V Q F H G B L J M P D K C T S W R N Z
",,,,,,,,,,,,,,,,,,,,,,,,,,,,,,,,,,,,,,,,,,,,,,,,,,,,,,,,,,,,,,,,,,,,,,,,,,,,,,,,,,,,,,,,,,,,,
,,,,,,,,,,5b9e401bf074140001051957,49,Mężczyzna,2022-05-28_09h24.24.941,task,2021.1.4,Win32,59.98440405,628b806c463b948bc644b84f,6291cc99f1c19bb8a9e25cca,,,,,1,0,1,0,1,"X V Q F H G B L J M P D K C T S W R N Z
",,,,,,,,,,,,,,,,,,,,,,,,,,,,,,,,,,,,,,,,,,,,,,,,,,,,,,,,,,,,,,,,,,,,,,,,,,,,,,,,,,,,,,,,,,,,,
,,,,,,,,,,5b9e401bf074140001051957,49,Mężczyzna,2022-05-28_09h24.24.941,task,2021.1.4,Win32,59.98440405,628b806c463b948bc644b84f,6291cc99f1c19bb8a9e25cca,,,,,2,0,2,0,1,"X V Q F H G B L J M P D K C T S W R N Z
",,,,,,,,,,,,,,,,,,,,,,,,,,,,,,,,,,,,,,,,,,,,,,,,,,,,,,,,,,,,,,,,,,,,,,,,,,,,,,,,,,,,,,,,,,,,,
,,,,,,,,,,5b9e401bf074140001051957,49,Mężczyzna,2022-05-28_09h24.24.941,task,2021.1.4,Win32,59.98440405,628b806c463b948bc644b84f,6291cc99f1c19bb8a9e25cca,,,,,3,0,3,0,1,"X V Q F H G B L J M P D K C T S W R N Z
",,,,,,,,,,,,,,,,,,,,,,,,,,,,,,,,,,,,,,,,,,,,,,,,,,,,,,,,,,,,,,,,,,,,,,,,,,,,,,,,,,,,,,,,,,,,,
,,,,,,,,,,5b9e401bf074140001051957,49,Mężczyzna,2022-05-28_09h24.24.941,task,2021.1.4,Win32,59.98440405,628b806c463b948bc644b84f,6291cc99f1c19bb8a9e25cca,,,,,4,0,4,0,1,"X V Q F H G B L J M P D K C T S W R N Z
",,,,,,,,,,,,,,,,,,,,,,,,,,,,,,,,,,,,,,,,,,,,,,,,,,,,,,,,,,,,,,,,,,,,,,,,,,,,,,,,,,,,,,,,,,,,,
,,,,,,,,,,5b9e401bf074140001051957,49,Mężczyzna,2022-05-28_09h24.24.941,task,2021.1.4,Win32,59.98440405,628b806c463b948bc644b84f,6291cc99f1c19bb8a9e25cca,,,,,5,0,5,0,1,"X V Q F H G B L J M P D K C T S W R N Z
",,,,,,,,,,,,,,,,,,,,,,,,,,,,,,,,,,,,,,,,,,,,,,,,,,,,,,,,,,,,,,,,,,,,,,,,,,,,,,,,,,,,,,,,,,,,,
,,,,,,,,,,5b9e401bf074140001051957,49,Mężczyzna,2022-05-28_09h24.24.941,task,2021.1.4,Win32,59.98440405,628b806c463b948bc644b84f,6291cc99f1c19bb8a9e25cca,,,,,6,0,6,0,1,"X V Q F H G B L J M P D K C T S W R N Z
",,,,,,,,,,,,,,,,,,,,,,,,,,,,,,,,,,,,,,,,,,,,,,,,,,,,,,,,,,,,,,,,,,,,,,,,,,,,,,,,,,,,,,,,,,,,,
,,,,,,,,,,5b9e401bf074140001051957,49,Mężczyzna,2022-05-28_09h24.24.941,task,2021.1.4,Win32,59.98440405,628b806c463b948bc644b84f,6291cc99f1c19bb8a9e25cca,,,,,7,0,7,0,1,"X V Q F H G B L J M P D K C T S W R N Z
",,,,,,,,,,,,,,,,,,,,,,,,,,,,,,,,,,,,,,,,,,,,,,,,,,,,,,,,,,,,,,,,,,,,,,,,,,,,,,,,,,,,,,,,,,,,,
,,,,,,,,,,5b9e401bf074140001051957,49,Mężczyzna,2022-05-28_09h24.24.941,task,2021.1.4,Win32,59.98440405,628b806c463b948bc644b84f,6291cc99f1c19bb8a9e25cca,,,,,8,0,8,0,1,"X V Q F H G B L J M P D K C T S W R N Z
",,,,,,,,,,,,,,,,,,,,,,,,,,,,,,,,,,,,,,,,,,,,,,,,,,,,,,,,,,,,,,,,,,,,,,,,,,,,,,,,,,,,,,,,,,,,,
,,,,,,,,,,5b9e401bf074140001051957,49,Mężczyzna,2022-05-28_09h24.24.941,task,2021.1.4,Win32,59.98440405,628b806c463b948bc644b84f,6291cc99f1c19bb8a9e25cca,,,,,,,,,,,hscrwpcb,"[""h"",""s"",""c"",""r"",""w"",""p"",""c"",""b""]","[4.0826999999879945,5.522799999997005,6.096599999993941,8.209399999990978,9.730599999993956,10.635799999996948,11.052500000000009,11.585599999993974,12.448399999991011]",0,HSCGRWCPB,23,0,23,0,1,,,,,,,,,,,,,,,,,,,,,,,,,,,,,,,,,,,,,,,,,,,,,,,,,,,,,,,,,,,,,,,,,,,,,,,,,,,,,,,,,,,
,,,,,,,,,,5b9e401bf074140001051957,49,Mężczyzna,2022-05-28_09h24.24.941,task,2021.1.4,Win32,59.98440405,628b806c463b948bc644b84f,6291cc99f1c19bb8a9e25cca,,,,,0,0,0,0,1,"X V Q F H G B L J M P D K C T S W R N Z
",,,,,,,,,,,,,,,,,,,,,,,,,,,,,,,,,,,,,,,,,,,,,,,,,,,,,,,,,,,,,,,,,,,,,,,,,,,,,,,,,,,,,,,,,,,,,
,,,,,,,,,,5b9e401bf074140001051957,49,Mężczyzna,2022-05-28_09h24.24.941,task,2021.1.4,Win32,59.98440405,628b806c463b948bc644b84f,6291cc99f1c19bb8a9e25cca,,,,,1,0,1,0,1,"X V Q F H G B L J M P D K C T S W R N Z
",,,,,,,,,,,,,,,,,,,,,,,,,,,,,,,,,,,,,,,,,,,,,,,,,,,,,,,,,,,,,,,,,,,,,,,,,,,,,,,,,,,,,,,,,,,,,
,,,,,,,,,,5b9e401bf074140001051957,49,Mężczyzna,2022-05-28_09h24.24.941,task,2021.1.4,Win32,59.98440405,628b806c463b948bc644b84f,6291cc99f1c19bb8a9e25cca,,,,,2,0,2,0,1,"X V Q F H G B L J M P D K C T S W R N Z
",,,,,,,,,,,,,,,,,,,,,,,,,,,,,,,,,,,,,,,,,,,,,,,,,,,,,,,,,,,,,,,,,,,,,,,,,,,,,,,,,,,,,,,,,,,,,
,,,,,,,,,,5b9e401bf074140001051957,49,Mężczyzna,2022-05-28_09h24.24.941,task,2021.1.4,Win32,59.98440405,628b806c463b948bc644b84f,6291cc99f1c19bb8a9e25cca,,,,,3,0,3,0,1,"X V Q F H G B L J M P D K C T S W R N Z
",,,,,,,,,,,,,,,,,,,,,,,,,,,,,,,,,,,,,,,,,,,,,,,,,,,,,,,,,,,,,,,,,,,,,,,,,,,,,,,,,,,,,,,,,,,,,
,,,,,,,,,,5b9e401bf074140001051957,49,Mężczyzna,2022-05-28_09h24.24.941,task,2021.1.4,Win32,59.98440405,628b806c463b948bc644b84f,6291cc99f1c19bb8a9e25cca,,,,,4,0,4,0,1,"X V Q F H G B L J M P D K C T S W R N Z
",,,,,,,,,,,,,,,,,,,,,,,,,,,,,,,,,,,,,,,,,,,,,,,,,,,,,,,,,,,,,,,,,,,,,,,,,,,,,,,,,,,,,,,,,,,,,
,,,,,,,,,,5b9e401bf074140001051957,49,Mężczyzna,2022-05-28_09h24.24.941,task,2021.1.4,Win32,59.98440405,628b806c463b948bc644b84f,6291cc99f1c19bb8a9e25cca,,,,,5,0,5,0,1,"X V Q F H G B L J M P D K C T S W R N Z
",,,,,,,,,,,,,,,,,,,,,,,,,,,,,,,,,,,,,,,,,,,,,,,,,,,,,,,,,,,,,,,,,,,,,,,,,,,,,,,,,,,,,,,,,,,,,
,,,,,,,,,,5b9e401bf074140001051957,49,Mężczyzna,2022-05-28_09h24.24.941,task,2021.1.4,Win32,59.98440405,628b806c463b948bc644b84f,6291cc99f1c19bb8a9e25cca,,,,,6,0,6,0,1,"X V Q F H G B L J M P D K C T S W R N Z
",,,,,,,,,,,,,,,,,,,,,,,,,,,,,,,,,,,,,,,,,,,,,,,,,,,,,,,,,,,,,,,,,,,,,,,,,,,,,,,,,,,,,,,,,,,,,
,,,,,,,,,,5b9e401bf074140001051957,49,Mężczyzna,2022-05-28_09h24.24.941,task,2021.1.4,Win32,59.98440405,628b806c463b948bc644b84f,6291cc99f1c19bb8a9e25cca,,,,,7,0,7,0,1,"X V Q F H G B L J M P D K C T S W R N Z
",,,,,,,,,,,,,,,,,,,,,,,,,,,,,,,,,,,,,,,,,,,,,,,,,,,,,,,,,,,,,,,,,,,,,,,,,,,,,,,,,,,,,,,,,,,,,
,,,,,,,,,,5b9e401bf074140001051957,49,Mężczyzna,2022-05-28_09h24.24.941,task,2021.1.4,Win32,59.98440405,628b806c463b948bc644b84f,6291cc99f1c19bb8a9e25cca,,,,,8,0,8,0,1,"X V Q F H G B L J M P D K C T S W R N Z
",,,,,,,,,,,,,,,,,,,,,,,,,,,,,,,,,,,,,,,,,,,,,,,,,,,,,,,,,,,,,,,,,,,,,,,,,,,,,,,,,,,,,,,,,,,,,
,,,,,,,,,,5b9e401bf074140001051957,49,Mężczyzna,2022-05-28_09h24.24.941,task,2021.1.4,Win32,59.98440405,628b806c463b948bc644b84f,6291cc99f1c19bb8a9e25cca,,,,,,,,,,,sjqsjhthj,"[""s"",""j"",""q"",""s"",""j"",""h"",""t"",""h"",""j""]","[2.758299999997007,3.048200000003021,3.5982000000029757,3.9312000000029457,4.145600000008926,4.496400000005906,4.995600000008949,5.169400000005908,6.237600000008911,7.118299999997021]",1,SJQSJHTHJ,24,0,24,0,1,,,,,,,,,,,,,,,,,,,,,,,,,,,,,,,,,,,,,,,,,,,,,,,,,,,,,,,,,,,,,,,,,,,,,,,,,,,,,,,,,,,
,,,,,,,,,,5b9e401bf074140001051957,49,Mężczyzna,2022-05-28_09h24.24.941,task,2021.1.4,Win32,59.98440405,628b806c463b948bc644b84f,6291cc99f1c19bb8a9e25cca,,,,,0,0,0,0,1,"X V Q F H G B L J M P D K C T S W R N Z
",,,,,,,,,,,,,,,,,,,,,,,,,,,,,,,,,,,,,,,,,,,,,,,,,,,,,,,,,,,,,,,,,,,,,,,,,,,,,,,,,,,,,,,,,,,,,
,,,,,,,,,,5b9e401bf074140001051957,49,Mężczyzna,2022-05-28_09h24.24.941,task,2021.1.4,Win32,59.98440405,628b806c463b948bc644b84f,6291cc99f1c19bb8a9e25cca,,,,,1,0,1,0,1,"X V Q F H G B L J M P D K C T S W R N Z
",,,,,,,,,,,,,,,,,,,,,,,,,,,,,,,,,,,,,,,,,,,,,,,,,,,,,,,,,,,,,,,,,,,,,,,,,,,,,,,,,,,,,,,,,,,,,
,,,,,,,,,,5b9e401bf074140001051957,49,Mężczyzna,2022-05-28_09h24.24.941,task,2021.1.4,Win32,59.98440405,628b806c463b948bc644b84f,6291cc99f1c19bb8a9e25cca,,,,,2,0,2,0,1,"X V Q F H G B L J M P D K C T S W R N Z
",,,,,,,,,,,,,,,,,,,,,,,,,,,,,,,,,,,,,,,,,,,,,,,,,,,,,,,,,,,,,,,,,,,,,,,,,,,,,,,,,,,,,,,,,,,,,
,,,,,,,,,,5b9e401bf074140001051957,49,Mężczyzna,2022-05-28_09h24.24.941,task,2021.1.4,Win32,59.98440405,628b806c463b948bc644b84f,6291cc99f1c19bb8a9e25cca,,,,,3,0,3,0,1,"X V Q F H G B L J M P D K C T S W R N Z
",,,,,,,,,,,,,,,,,,,,,,,,,,,,,,,,,,,,,,,,,,,,,,,,,,,,,,,,,,,,,,,,,,,,,,,,,,,,,,,,,,,,,,,,,,,,,
,,,,,,,,,,5b9e401bf074140001051957,49,Mężczyzna,2022-05-28_09h24.24.941,task,2021.1.4,Win32,59.98440405,628b806c463b948bc644b84f,6291cc99f1c19bb8a9e25cca,,,,,4,0,4,0,1,"X V Q F H G B L J M P D K C T S W R N Z
",,,,,,,,,,,,,,,,,,,,,,,,,,,,,,,,,,,,,,,,,,,,,,,,,,,,,,,,,,,,,,,,,,,,,,,,,,,,,,,,,,,,,,,,,,,,,
,,,,,,,,,,5b9e401bf074140001051957,49,Mężczyzna,2022-05-28_09h24.24.941,task,2021.1.4,Win32,59.98440405,628b806c463b948bc644b84f,6291cc99f1c19bb8a9e25cca,,,,,5,0,5,0,1,"X V Q F H G B L J M P D K C T S W R N Z
",,,,,,,,,,,,,,,,,,,,,,,,,,,,,,,,,,,,,,,,,,,,,,,,,,,,,,,,,,,,,,,,,,,,,,,,,,,,,,,,,,,,,,,,,,,,,
,,,,,,,,,,5b9e401bf074140001051957,49,Mężczyzna,2022-05-28_09h24.24.941,task,2021.1.4,Win32,59.98440405,628b806c463b948bc644b84f,6291cc99f1c19bb8a9e25cca,,,,,6,0,6,0,1,"X V Q F H G B L J M P D K C T S W R N Z
",,,,,,,,,,,,,,,,,,,,,,,,,,,,,,,,,,,,,,,,,,,,,,,,,,,,,,,,,,,,,,,,,,,,,,,,,,,,,,,,,,,,,,,,,,,,,
,,,,,,,,,,5b9e401bf074140001051957,49,Mężczyzna,2022-05-28_09h24.24.941,task,2021.1.4,Win32,59.98440405,628b806c463b948bc644b84f,6291cc99f1c19bb8a9e25cca,,,,,7,0,7,0,1,"X V Q F H G B L J M P D K C T S W R N Z
",,,,,,,,,,,,,,,,,,,,,,,,,,,,,,,,,,,,,,,,,,,,,,,,,,,,,,,,,,,,,,,,,,,,,,,,,,,,,,,,,,,,,,,,,,,,,
,,,,,,,,,,5b9e401bf074140001051957,49,Mężczyzna,2022-05-28_09h24.24.941,task,2021.1.4,Win32,59.98440405,628b806c463b948bc644b84f,6291cc99f1c19bb8a9e25cca,,,,,8,0,8,0,1,"X V Q F H G B L J M P D K C T S W R N Z
",,,,,,,,,,,,,,,,,,,,,,,,,,,,,,,,,,,,,,,,,,,,,,,,,,,,,,,,,,,,,,,,,,,,,,,,,,,,,,,,,,,,,,,,,,,,,
,,,,,,,,,,5b9e401bf074140001051957,49,Mężczyzna,2022-05-28_09h24.24.941,task,2021.1.4,Win32,59.98440405,628b806c463b948bc644b84f,6291cc99f1c19bb8a9e25cca,,,,,,,,,,,nxjfjdwcm,"[""n"",""x"",""j"",""f"",""j"",""d"",""w"",""c"",""m""]","[2.930100000008906,5.110500000000002,5.496700000002988,5.72199999999998,6.047700000002919,6.930900000005863,7.975999999999999,8.499900000005937,9.548100000008844,10.574200000002975]",1,NXJFJDWCM,25,0,25,0,1,,,,,,,,,,,,,,,,,,,,,,,,,,,,,,,,,,,,,,,,,,,,,,,,,,,,,,,,,,,,,,,,,,,,,,,,,,,,,,,,,,,
,,,,,,,,,,5b9e401bf074140001051957,49,Mężczyzna,2022-05-28_09h24.24.941,task,2021.1.4,Win32,59.98440405,628b806c463b948bc644b84f,6291cc99f1c19bb8a9e25cca,,,,,0,0,0,0,1,"X V Q F H G B L J M P D K C T S W R N Z
",,,,,,,,,,,,,,,,,,,,,,,,,,,,,,,,,,,,,,,,,,,,,,,,,,,,,,,,,,,,,,,,,,,,,,,,,,,,,,,,,,,,,,,,,,,,,
,,,,,,,,,,5b9e401bf074140001051957,49,Mężczyzna,2022-05-28_09h24.24.941,task,2021.1.4,Win32,59.98440405,628b806c463b948bc644b84f,6291cc99f1c19bb8a9e25cca,,,,,1,0,1,0,1,"X V Q F H G B L J M P D K C T S W R N Z
",,,,,,,,,,,,,,,,,,,,,,,,,,,,,,,,,,,,,,,,,,,,,,,,,,,,,,,,,,,,,,,,,,,,,,,,,,,,,,,,,,,,,,,,,,,,,
,,,,,,,,,,5b9e401bf074140001051957,49,Mężczyzna,2022-05-28_09h24.24.941,task,2021.1.4,Win32,59.98440405,628b806c463b948bc644b84f,6291cc99f1c19bb8a9e25cca,,,,,2,0,2,0,1,"X V Q F H G B L J M P D K C T S W R N Z
",,,,,,,,,,,,,,,,,,,,,,,,,,,,,,,,,,,,,,,,,,,,,,,,,,,,,,,,,,,,,,,,,,,,,,,,,,,,,,,,,,,,,,,,,,,,,
,,,,,,,,,,5b9e401bf074140001051957,49,Mężczyzna,2022-05-28_09h24.24.941,task,2021.1.4,Win32,59.98440405,628b806c463b948bc644b84f,6291cc99f1c19bb8a9e25cca,,,,,3,0,3,0,1,"X V Q F H G B L J M P D K C T S W R N Z
",,,,,,,,,,,,,,,,,,,,,,,,,,,,,,,,,,,,,,,,,,,,,,,,,,,,,,,,,,,,,,,,,,,,,,,,,,,,,,,,,,,,,,,,,,,,,
,,,,,,,,,,5b9e401bf074140001051957,49,Mężczyzna,2022-05-28_09h24.24.941,task,2021.1.4,Win32,59.98440405,628b806c463b948bc644b84f,6291cc99f1c19bb8a9e25cca,,,,,4,0,4,0,1,"X V Q F H G B L J M P D K C T S W R N Z
",,,,,,,,,,,,,,,,,,,,,,,,,,,,,,,,,,,,,,,,,,,,,,,,,,,,,,,,,,,,,,,,,,,,,,,,,,,,,,,,,,,,,,,,,,,,,
,,,,,,,,,,5b9e401bf074140001051957,49,Mężczyzna,2022-05-28_09h24.24.941,task,2021.1.4,Win32,59.98440405,628b806c463b948bc644b84f,6291cc99f1c19bb8a9e25cca,,,,,5,0,5,0,1,"X V Q F H G B L J M P D K C T S W R N Z
",,,,,,,,,,,,,,,,,,,,,,,,,,,,,,,,,,,,,,,,,,,,,,,,,,,,,,,,,,,,,,,,,,,,,,,,,,,,,,,,,,,,,,,,,,,,,
,,,,,,,,,,5b9e401bf074140001051957,49,Mężczyzna,2022-05-28_09h24.24.941,task,2021.1.4,Win32,59.98440405,628b806c463b948bc644b84f,6291cc99f1c19bb8a9e25cca,,,,,6,0,6,0,1,"X V Q F H G B L J M P D K C T S W R N Z
",,,,,,,,,,,,,,,,,,,,,,,,,,,,,,,,,,,,,,,,,,,,,,,,,,,,,,,,,,,,,,,,,,,,,,,,,,,,,,,,,,,,,,,,,,,,,
,,,,,,,,,,5b9e401bf074140001051957,49,Mężczyzna,2022-05-28_09h24.24.941,task,2021.1.4,Win32,59.98440405,628b806c463b948bc644b84f,6291cc99f1c19bb8a9e25cca,,,,,7,0,7,0,1,"X V Q F H G B L J M P D K C T S W R N Z
",,,,,,,,,,,,,,,,,,,,,,,,,,,,,,,,,,,,,,,,,,,,,,,,,,,,,,,,,,,,,,,,,,,,,,,,,,,,,,,,,,,,,,,,,,,,,
,,,,,,,,,,5b9e401bf074140001051957,49,Mężczyzna,2022-05-28_09h24.24.941,task,2021.1.4,Win32,59.98440405,628b806c463b948bc644b84f,6291cc99f1c19bb8a9e25cca,,,,,8,0,8,0,1,"X V Q F H G B L J M P D K C T S W R N Z
",,,,,,,,,,,,,,,,,,,,,,,,,,,,,,,,,,,,,,,,,,,,,,,,,,,,,,,,,,,,,,,,,,,,,,,,,,,,,,,,,,,,,,,,,,,,,
,,,,,,,,,,5b9e401bf074140001051957,49,Mężczyzna,2022-05-28_09h24.24.941,task,2021.1.4,Win32,59.98440405,628b806c463b948bc644b84f,6291cc99f1c19bb8a9e25cca,,,,,9,0,9,0,1,"X V Q F H G B L J M P D K C T S W R N Z
",,,,,,,,,,,,,,,,,,,,,,,,,,,,,,,,,,,,,,,,,,,,,,,,,,,,,,,,,,,,,,,,,,,,,,,,,,,,,,,,,,,,,,,,,,,,,
,,,,,,,,,,5b9e401bf074140001051957,49,Mężczyzna,2022-05-28_09h24.24.941,task,2021.1.4,Win32,59.98440405,628b806c463b948bc644b84f,6291cc99f1c19bb8a9e25cca,,,,,,,,,,,trklqbxjnc,"[""t"",""r"",""k"",""l"",""q"",""b"",""x"",""j"",""n"",""c""]","[2.92260000000897,3.3805000000000973,3.6217999999970516,4.080799999997112,5.059900000005996,5.75750000000005,6.377000000000066,6.730799999997089,7.105799999997089,7.553600000008942,8.386100000009037]",0,TRKLBQXJNC,26,0,26,0,1,,,,,,,,,,,,,,,,,,,,,,,,,,,,,,,,,,,,,,,,,,,,,,,,,,,,,,,,,,,,,,,,,,,,,,,,,,,,,,,,,,,
,,,,,,,,,,5b9e401bf074140001051957,49,Mężczyzna,2022-05-28_09h24.24.941,task,2021.1.4,Win32,59.98440405,628b806c463b948bc644b84f,6291cc99f1c19bb8a9e25cca,,,,,0,0,0,0,1,"X V Q F H G B L J M P D K C T S W R N Z
",,,,,,,,,,,,,,,,,,,,,,,,,,,,,,,,,,,,,,,,,,,,,,,,,,,,,,,,,,,,,,,,,,,,,,,,,,,,,,,,,,,,,,,,,,,,,
,,,,,,,,,,5b9e401bf074140001051957,49,Mężczyzna,2022-05-28_09h24.24.941,task,2021.1.4,Win32,59.98440405,628b806c463b948bc644b84f,6291cc99f1c19bb8a9e25cca,,,,,1,0,1,0,1,"X V Q F H G B L J M P D K C T S W R N Z
",,,,,,,,,,,,,,,,,,,,,,,,,,,,,,,,,,,,,,,,,,,,,,,,,,,,,,,,,,,,,,,,,,,,,,,,,,,,,,,,,,,,,,,,,,,,,
,,,,,,,,,,5b9e401bf074140001051957,49,Mężczyzna,2022-05-28_09h24.24.941,task,2021.1.4,Win32,59.98440405,628b806c463b948bc644b84f,6291cc99f1c19bb8a9e25cca,,,,,2,0,2,0,1,"X V Q F H G B L J M P D K C T S W R N Z
",,,,,,,,,,,,,,,,,,,,,,,,,,,,,,,,,,,,,,,,,,,,,,,,,,,,,,,,,,,,,,,,,,,,,,,,,,,,,,,,,,,,,,,,,,,,,
,,,,,,,,,,5b9e401bf074140001051957,49,Mężczyzna,2022-05-28_09h24.24.941,task,2021.1.4,Win32,59.98440405,628b806c463b948bc644b84f,6291cc99f1c19bb8a9e25cca,,,,,3,0,3,0,1,"X V Q F H G B L J M P D K C T S W R N Z
",,,,,,,,,,,,,,,,,,,,,,,,,,,,,,,,,,,,,,,,,,,,,,,,,,,,,,,,,,,,,,,,,,,,,,,,,,,,,,,,,,,,,,,,,,,,,
