key_resp_15.keys,key_resp_15.rt,key_resp_13.keys,key_resp_13.corr,key_resp_13.rt,ranodm_loop.thisRepN,ranodm_loop.thisTrialN,ranodm_loop.thisN,ranodm_loop.thisIndex,ranodm_loop.ran,participant,Wiek*,Płeć,date,expName,psychopyVersion,OS,frameRate,study_id,session,key_resp_16.keys,key_resp_16.rt,key_resp_4.keys,key_resp_4.rt,next_letter.thisRepN,next_letter.thisTrialN,next_letter.thisN,next_letter.thisIndex,next_letter.ran,letter,simple_recall,key_resp_5.keys,key_resp_5.rt,simple_recall_corr,simple_recall_corrkeys,next_level.thisRepN,next_level.thisTrialN,next_level.thisN,next_level.thisIndex,next_level.ran,key_resp_2.keys,key_resp_2.rt,digit_answer,key_resp.keys,key_resp.corr,key_resp.rt,RT_list,next_equation.thisRepN,next_equation.thisTrialN,next_equation.thisN,next_equation.thisIndex,next_equation.ran,Task,Trial,Problem,Operation_answer,processing_score,sumRT,meanRT,sumdiff,sd,RT,key_resp_3.keys,key_resp_3.rt,repeat_practice.thisRepN,repeat_practice.thisTrialN,repeat_practice.thisN,repeat_practice.thisIndex,repeat_practice.ran,key_resp_6.keys,key_resp_6.rt,key_resp_11.keys,key_resp_11.corr,key_resp_11.rt,operation_correct,repeat_if_wrong_prac.thisRepN,repeat_if_wrong_prac.thisTrialN,repeat_if_wrong_prac.thisN,repeat_if_wrong_prac.thisIndex,repeat_if_wrong_prac.ran,span_size_prac.thisRepN,span_size_prac.thisTrialN,span_size_prac.thisN,span_size_prac.thisIndex,span_size_prac.ran,complex_recall_practice,key_resp_9.keys,key_resp_9.corr,key_resp_9.rt,complex_prac_corr,span_recall_prac.thisRepN,span_recall_prac.thisTrialN,span_recall_prac.thisN,span_recall_prac.thisIndex,span_recall_prac.ran,key_resp_10.keys,key_resp_10.rt,key_resp_7.keys,key_resp_7.corr,key_resp_7.rt,repeat_if_wrong.thisRepN,repeat_if_wrong.thisTrialN,repeat_if_wrong.thisN,repeat_if_wrong.thisIndex,repeat_if_wrong.ran,span_size.thisRepN,span_size.thisTrialN,span_size.thisN,span_size.thisIndex,span_size.ran,complex_recall,key_resp_8.keys,key_resp_8.corr,key_resp_8.rt,complex_recall_corr,complex_recall_corrkeys,span_recall.thisRepN,span_recall.thisTrialN,span_recall.thisN,span_recall.thisIndex,span_recall.ran,key_resp_12.keys,key_resp_12.rt
space,36.6764,"[""comma""]",0,[0.9393999998569598],0,0,0,0,1,5ba4d6c929629d00014e6c28,33,Mężczyzna,2022-06-04_08h11.49.687,task,2021.1.4,Win32,59.88382538,628b806c463b948bc644b84f,629af78be5018847b0106ebc,,,,,,,,,,,,,,,,,,,,,,,,,,,,,,,,,,,,,,,,,,,,,,,,,,,,,,,,,,,,,,,,,,,,,,,,,,,,,,,,,,,,,,,,,,,,,,,,,,,,,,,
,,"[""comma""]",0,[0.5177000000476824],1,0,1,0,1,5ba4d6c929629d00014e6c28,33,Mężczyzna,2022-06-04_08h11.49.687,task,2021.1.4,Win32,59.88382538,628b806c463b948bc644b84f,629af78be5018847b0106ebc,,,,,,,,,,,,,,,,,,,,,,,,,,,,,,,,,,,,,,,,,,,,,,,,,,,,,,,,,,,,,,,,,,,,,,,,,,,,,,,,,,,,,,,,,,,,,,,,,,,,,,,
,,"[""period""]",0,[0.7843999998569586],2,0,2,0,1,5ba4d6c929629d00014e6c28,33,Mężczyzna,2022-06-04_08h11.49.687,task,2021.1.4,Win32,59.88382538,628b806c463b948bc644b84f,629af78be5018847b0106ebc,,,,,,,,,,,,,,,,,,,,,,,,,,,,,,,,,,,,,,,,,,,,,,,,,,,,,,,,,,,,,,,,,,,,,,,,,,,,,,,,,,,,,,,,,,,,,,,,,,,,,,,
,,"[""comma""]",0,[1.782900000095367],3,0,3,0,1,5ba4d6c929629d00014e6c28,33,Mężczyzna,2022-06-04_08h11.49.687,task,2021.1.4,Win32,59.88382538,628b806c463b948bc644b84f,629af78be5018847b0106ebc,,,,,,,,,,,,,,,,,,,,,,,,,,,,,,,,,,,,,,,,,,,,,,,,,,,,,,,,,,,,,,,,,,,,,,,,,,,,,,,,,,,,,,,,,,,,,,,,,,,,,,,
,,,0,,4,0,4,0,1,5ba4d6c929629d00014e6c28,33,Mężczyzna,2022-06-04_08h11.49.687,task,2021.1.4,Win32,59.88382538,628b806c463b948bc644b84f,629af78be5018847b0106ebc,,,,,,,,,,,,,,,,,,,,,,,,,,,,,,,,,,,,,,,,,,,,,,,,,,,,,,,,,,,,,,,,,,,,,,,,,,,,,,,,,,,,,,,,,,,,,,,,,,,,,,,
,,"[""period""]",0,[0.29079999995229855],5,0,5,0,1,5ba4d6c929629d00014e6c28,33,Mężczyzna,2022-06-04_08h11.49.687,task,2021.1.4,Win32,59.88382538,628b806c463b948bc644b84f,629af78be5018847b0106ebc,,,,,,,,,,,,,,,,,,,,,,,,,,,,,,,,,,,,,,,,,,,,,,,,,,,,,,,,,,,,,,,,,,,,,,,,,,,,,,,,,,,,,,,,,,,,,,,,,,,,,,,
,,"[""comma""]",0,[0.3307999999522906],6,0,6,0,1,5ba4d6c929629d00014e6c28,33,Mężczyzna,2022-06-04_08h11.49.687,task,2021.1.4,Win32,59.88382538,628b806c463b948bc644b84f,629af78be5018847b0106ebc,,,,,,,,,,,,,,,,,,,,,,,,,,,,,,,,,,,,,,,,,,,,,,,,,,,,,,,,,,,,,,,,,,,,,,,,,,,,,,,,,,,,,,,,,,,,,,,,,,,,,,,
,,"[""comma""]",0,[0.6042000000476833],7,0,7,0,1,5ba4d6c929629d00014e6c28,33,Mężczyzna,2022-06-04_08h11.49.687,task,2021.1.4,Win32,59.88382538,628b806c463b948bc644b84f,629af78be5018847b0106ebc,,,,,,,,,,,,,,,,,,,,,,,,,,,,,,,,,,,,,,,,,,,,,,,,,,,,,,,,,,,,,,,,,,,,,,,,,,,,,,,,,,,,,,,,,,,,,,,,,,,,,,,
,,"[""period""]",0,[0.5687000000476985],8,0,8,0,1,5ba4d6c929629d00014e6c28,33,Mężczyzna,2022-06-04_08h11.49.687,task,2021.1.4,Win32,59.88382538,628b806c463b948bc644b84f,629af78be5018847b0106ebc,,,,,,,,,,,,,,,,,,,,,,,,,,,,,,,,,,,,,,,,,,,,,,,,,,,,,,,,,,,,,,,,,,,,,,,,,,,,,,,,,,,,,,,,,,,,,,,,,,,,,,,
,,"[""comma""]",0,[0.25940000009535424],9,0,9,0,1,5ba4d6c929629d00014e6c28,33,Mężczyzna,2022-06-04_08h11.49.687,task,2021.1.4,Win32,59.88382538,628b806c463b948bc644b84f,629af78be5018847b0106ebc,,,,,,,,,,,,,,,,,,,,,,,,,,,,,,,,,,,,,,,,,,,,,,,,,,,,,,,,,,,,,,,,,,,,,,,,,,,,,,,,,,,,,,,,,,,,,,,,,,,,,,,
,,"[""period""]",0,[0.40770000004769713],10,0,10,0,1,5ba4d6c929629d00014e6c28,33,Mężczyzna,2022-06-04_08h11.49.687,task,2021.1.4,Win32,59.88382538,628b806c463b948bc644b84f,629af78be5018847b0106ebc,,,,,,,,,,,,,,,,,,,,,,,,,,,,,,,,,,,,,,,,,,,,,,,,,,,,,,,,,,,,,,,,,,,,,,,,,,,,,,,,,,,,,,,,,,,,,,,,,,,,,,,
,,"[""period""]",0,[0.4414999999999907],11,0,11,0,1,5ba4d6c929629d00014e6c28,33,Mężczyzna,2022-06-04_08h11.49.687,task,2021.1.4,Win32,59.88382538,628b806c463b948bc644b84f,629af78be5018847b0106ebc,,,,,,,,,,,,,,,,,,,,,,,,,,,,,,,,,,,,,,,,,,,,,,,,,,,,,,,,,,,,,,,,,,,,,,,,,,,,,,,,,,,,,,,,,,,,,,,,,,,,,,,
,,"[""comma""]",0,[0.47020000004769713],12,0,12,0,1,5ba4d6c929629d00014e6c28,33,Mężczyzna,2022-06-04_08h11.49.687,task,2021.1.4,Win32,59.88382538,628b806c463b948bc644b84f,629af78be5018847b0106ebc,,,,,,,,,,,,,,,,,,,,,,,,,,,,,,,,,,,,,,,,,,,,,,,,,,,,,,,,,,,,,,,,,,,,,,,,,,,,,,,,,,,,,,,,,,,,,,,,,,,,,,,
,,"[""period""]",0,[0.33890000009535015],13,0,13,0,1,5ba4d6c929629d00014e6c28,33,Mężczyzna,2022-06-04_08h11.49.687,task,2021.1.4,Win32,59.88382538,628b806c463b948bc644b84f,629af78be5018847b0106ebc,,,,,,,,,,,,,,,,,,,,,,,,,,,,,,,,,,,,,,,,,,,,,,,,,,,,,,,,,,,,,,,,,,,,,,,,,,,,,,,,,,,,,,,,,,,,,,,,,,,,,,,
,,"[""comma""]",0,[0.3549000000953697],14,0,14,0,1,5ba4d6c929629d00014e6c28,33,Mężczyzna,2022-06-04_08h11.49.687,task,2021.1.4,Win32,59.88382538,628b806c463b948bc644b84f,629af78be5018847b0106ebc,,,,,,,,,,,,,,,,,,,,,,,,,,,,,,,,,,,,,,,,,,,,,,,,,,,,,,,,,,,,,,,,,,,,,,,,,,,,,,,,,,,,,,,,,,,,,,,,,,,,,,,
,,"[""period""]",0,[0.35019999980926286],15,0,15,0,1,5ba4d6c929629d00014e6c28,33,Mężczyzna,2022-06-04_08h11.49.687,task,2021.1.4,Win32,59.88382538,628b806c463b948bc644b84f,629af78be5018847b0106ebc,,,,,,,,,,,,,,,,,,,,,,,,,,,,,,,,,,,,,,,,,,,,,,,,,,,,,,,,,,,,,,,,,,,,,,,,,,,,,,,,,,,,,,,,,,,,,,,,,,,,,,,
,,"[""comma""]",0,[0.3461000001430534],16,0,16,0,1,5ba4d6c929629d00014e6c28,33,Mężczyzna,2022-06-04_08h11.49.687,task,2021.1.4,Win32,59.88382538,628b806c463b948bc644b84f,629af78be5018847b0106ebc,,,,,,,,,,,,,,,,,,,,,,,,,,,,,,,,,,,,,,,,,,,,,,,,,,,,,,,,,,,,,,,,,,,,,,,,,,,,,,,,,,,,,,,,,,,,,,,,,,,,,,,
,,"[""comma""]",0,[0.29830000019072145],17,0,17,0,1,5ba4d6c929629d00014e6c28,33,Mężczyzna,2022-06-04_08h11.49.687,task,2021.1.4,Win32,59.88382538,628b806c463b948bc644b84f,629af78be5018847b0106ebc,,,,,,,,,,,,,,,,,,,,,,,,,,,,,,,,,,,,,,,,,,,,,,,,,,,,,,,,,,,,,,,,,,,,,,,,,,,,,,,,,,,,,,,,,,,,,,,,,,,,,,,
,,"[""comma""]",0,[0.317699999809264],18,0,18,0,1,5ba4d6c929629d00014e6c28,33,Mężczyzna,2022-06-04_08h11.49.687,task,2021.1.4,Win32,59.88382538,628b806c463b948bc644b84f,629af78be5018847b0106ebc,,,,,,,,,,,,,,,,,,,,,,,,,,,,,,,,,,,,,,,,,,,,,,,,,,,,,,,,,,,,,,,,,,,,,,,,,,,,,,,,,,,,,,,,,,,,,,,,,,,,,,,
,,"[""period""]",0,[0.28040000009536925],19,0,19,0,1,5ba4d6c929629d00014e6c28,33,Mężczyzna,2022-06-04_08h11.49.687,task,2021.1.4,Win32,59.88382538,628b806c463b948bc644b84f,629af78be5018847b0106ebc,,,,,,,,,,,,,,,,,,,,,,,,,,,,,,,,,,,,,,,,,,,,,,,,,,,,,,,,,,,,,,,,,,,,,,,,,,,,,,,,,,,,,,,,,,,,,,,,,,,,,,,
,,"[""period""]",0,[0.5922999999523313],20,0,20,0,1,5ba4d6c929629d00014e6c28,33,Mężczyzna,2022-06-04_08h11.49.687,task,2021.1.4,Win32,59.88382538,628b806c463b948bc644b84f,629af78be5018847b0106ebc,,,,,,,,,,,,,,,,,,,,,,,,,,,,,,,,,,,,,,,,,,,,,,,,,,,,,,,,,,,,,,,,,,,,,,,,,,,,,,,,,,,,,,,,,,,,,,,,,,,,,,,
,,"[""period""]",0,[0.4574999999999818],21,0,21,0,1,5ba4d6c929629d00014e6c28,33,Mężczyzna,2022-06-04_08h11.49.687,task,2021.1.4,Win32,59.88382538,628b806c463b948bc644b84f,629af78be5018847b0106ebc,,,,,,,,,,,,,,,,,,,,,,,,,,,,,,,,,,,,,,,,,,,,,,,,,,,,,,,,,,,,,,,,,,,,,,,,,,,,,,,,,,,,,,,,,,,,,,,,,,,,,,,
,,"[""comma""]",0,[0.20809999990461847],22,0,22,0,1,5ba4d6c929629d00014e6c28,33,Mężczyzna,2022-06-04_08h11.49.687,task,2021.1.4,Win32,59.88382538,628b806c463b948bc644b84f,629af78be5018847b0106ebc,,,,,,,,,,,,,,,,,,,,,,,,,,,,,,,,,,,,,,,,,,,,,,,,,,,,,,,,,,,,,,,,,,,,,,,,,,,,,,,,,,,,,,,,,,,,,,,,,,,,,,,
,,"[""period""]",0,[0.2760999999046305],23,0,23,0,1,5ba4d6c929629d00014e6c28,33,Mężczyzna,2022-06-04_08h11.49.687,task,2021.1.4,Win32,59.88382538,628b806c463b948bc644b84f,629af78be5018847b0106ebc,,,,,,,,,,,,,,,,,,,,,,,,,,,,,,,,,,,,,,,,,,,,,,,,,,,,,,,,,,,,,,,,,,,,,,,,,,,,,,,,,,,,,,,,,,,,,,,,,,,,,,,
,,"[""comma""]",0,[0.26809999990462074],24,0,24,0,1,5ba4d6c929629d00014e6c28,33,Mężczyzna,2022-06-04_08h11.49.687,task,2021.1.4,Win32,59.88382538,628b806c463b948bc644b84f,629af78be5018847b0106ebc,,,,,,,,,,,,,,,,,,,,,,,,,,,,,,,,,,,,,,,,,,,,,,,,,,,,,,,,,,,,,,,,,,,,,,,,,,,,,,,,,,,,,,,,,,,,,,,,,,,,,,,
,,"[""period""]",0,[0.22410000014303932],25,0,25,0,1,5ba4d6c929629d00014e6c28,33,Mężczyzna,2022-06-04_08h11.49.687,task,2021.1.4,Win32,59.88382538,628b806c463b948bc644b84f,629af78be5018847b0106ebc,,,,,,,,,,,,,,,,,,,,,,,,,,,,,,,,,,,,,,,,,,,,,,,,,,,,,,,,,,,,,,,,,,,,,,,,,,,,,,,,,,,,,,,,,,,,,,,,,,,,,,,
,,"[""comma""]",0,[0.2517999999523113],26,0,26,0,1,5ba4d6c929629d00014e6c28,33,Mężczyzna,2022-06-04_08h11.49.687,task,2021.1.4,Win32,59.88382538,628b806c463b948bc644b84f,629af78be5018847b0106ebc,,,,,,,,,,,,,,,,,,,,,,,,,,,,,,,,,,,,,,,,,,,,,,,,,,,,,,,,,,,,,,,,,,,,,,,,,,,,,,,,,,,,,,,,,,,,,,,,,,,,,,,
,,"[""comma""]",0,[0.3987000000476826],27,0,27,0,1,5ba4d6c929629d00014e6c28,33,Mężczyzna,2022-06-04_08h11.49.687,task,2021.1.4,Win32,59.88382538,628b806c463b948bc644b84f,629af78be5018847b0106ebc,,,,,,,,,,,,,,,,,,,,,,,,,,,,,,,,,,,,,,,,,,,,,,,,,,,,,,,,,,,,,,,,,,,,,,,,,,,,,,,,,,,,,,,,,,,,,,,,,,,,,,,
,,"[""comma""]",0,[0.4814000000953911],28,0,28,0,1,5ba4d6c929629d00014e6c28,33,Mężczyzna,2022-06-04_08h11.49.687,task,2021.1.4,Win32,59.88382538,628b806c463b948bc644b84f,629af78be5018847b0106ebc,,,,,,,,,,,,,,,,,,,,,,,,,,,,,,,,,,,,,,,,,,,,,,,,,,,,,,,,,,,,,,,,,,,,,,,,,,,,,,,,,,,,,,,,,,,,,,,,,,,,,,,
,,"[""period""]",0,[0.32059999990462984],29,0,29,0,1,5ba4d6c929629d00014e6c28,33,Mężczyzna,2022-06-04_08h11.49.687,task,2021.1.4,Win32,59.88382538,628b806c463b948bc644b84f,629af78be5018847b0106ebc,,,,,,,,,,,,,,,,,,,,,,,,,,,,,,,,,,,,,,,,,,,,,,,,,,,,,,,,,,,,,,,,,,,,,,,,,,,,,,,,,,,,,,,,,,,,,,,,,,,,,,,
,,"[""period""]",0,[0.3015999999046244],30,0,30,0,1,5ba4d6c929629d00014e6c28,33,Mężczyzna,2022-06-04_08h11.49.687,task,2021.1.4,Win32,59.88382538,628b806c463b948bc644b84f,629af78be5018847b0106ebc,,,,,,,,,,,,,,,,,,,,,,,,,,,,,,,,,,,,,,,,,,,,,,,,,,,,,,,,,,,,,,,,,,,,,,,,,,,,,,,,,,,,,,,,,,,,,,,,,,,,,,,
,,"[""comma""]",0,[0.30800000000002115],31,0,31,0,1,5ba4d6c929629d00014e6c28,33,Mężczyzna,2022-06-04_08h11.49.687,task,2021.1.4,Win32,59.88382538,628b806c463b948bc644b84f,629af78be5018847b0106ebc,,,,,,,,,,,,,,,,,,,,,,,,,,,,,,,,,,,,,,,,,,,,,,,,,,,,,,,,,,,,,,,,,,,,,,,,,,,,,,,,,,,,,,,,,,,,,,,,,,,,,,,
,,"[""period""]",0,[0.3318000001907251],32,0,32,0,1,5ba4d6c929629d00014e6c28,33,Mężczyzna,2022-06-04_08h11.49.687,task,2021.1.4,Win32,59.88382538,628b806c463b948bc644b84f,629af78be5018847b0106ebc,,,,,,,,,,,,,,,,,,,,,,,,,,,,,,,,,,,,,,,,,,,,,,,,,,,,,,,,,,,,,,,,,,,,,,,,,,,,,,,,,,,,,,,,,,,,,,,,,,,,,,,
,,"[""comma""]",0,[0.27810000014304137],33,0,33,0,1,5ba4d6c929629d00014e6c28,33,Mężczyzna,2022-06-04_08h11.49.687,task,2021.1.4,Win32,59.88382538,628b806c463b948bc644b84f,629af78be5018847b0106ebc,,,,,,,,,,,,,,,,,,,,,,,,,,,,,,,,,,,,,,,,,,,,,,,,,,,,,,,,,,,,,,,,,,,,,,,,,,,,,,,,,,,,,,,,,,,,,,,,,,,,,,,
,,"[""comma""]",0,[0.43909999990464144],34,0,34,0,1,5ba4d6c929629d00014e6c28,33,Mężczyzna,2022-06-04_08h11.49.687,task,2021.1.4,Win32,59.88382538,628b806c463b948bc644b84f,629af78be5018847b0106ebc,,,,,,,,,,,,,,,,,,,,,,,,,,,,,,,,,,,,,,,,,,,,,,,,,,,,,,,,,,,,,,,,,,,,,,,,,,,,,,,,,,,,,,,,,,,,,,,,,,,,,,,
,,"[""period""]",0,[0.3002000000476812],35,0,35,0,1,5ba4d6c929629d00014e6c28,33,Mężczyzna,2022-06-04_08h11.49.687,task,2021.1.4,Win32,59.88382538,628b806c463b948bc644b84f,629af78be5018847b0106ebc,,,,,,,,,,,,,,,,,,,,,,,,,,,,,,,,,,,,,,,,,,,,,,,,,,,,,,,,,,,,,,,,,,,,,,,,,,,,,,,,,,,,,,,,,,,,,,,,,,,,,,,
,,"[""comma""]",0,[0.42539999985694976],36,0,36,0,1,5ba4d6c929629d00014e6c28,33,Mężczyzna,2022-06-04_08h11.49.687,task,2021.1.4,Win32,59.88382538,628b806c463b948bc644b84f,629af78be5018847b0106ebc,,,,,,,,,,,,,,,,,,,,,,,,,,,,,,,,,,,,,,,,,,,,,,,,,,,,,,,,,,,,,,,,,,,,,,,,,,,,,,,,,,,,,,,,,,,,,,,,,,,,,,,
,,"[""period""]",0,[0.25070000004768644],37,0,37,0,1,5ba4d6c929629d00014e6c28,33,Mężczyzna,2022-06-04_08h11.49.687,task,2021.1.4,Win32,59.88382538,628b806c463b948bc644b84f,629af78be5018847b0106ebc,,,,,,,,,,,,,,,,,,,,,,,,,,,,,,,,,,,,,,,,,,,,,,,,,,,,,,,,,,,,,,,,,,,,,,,,,,,,,,,,,,,,,,,,,,,,,,,,,,,,,,,
,,"[""comma""]",0,[0.2936999998092631],38,0,38,0,1,5ba4d6c929629d00014e6c28,33,Mężczyzna,2022-06-04_08h11.49.687,task,2021.1.4,Win32,59.88382538,628b806c463b948bc644b84f,629af78be5018847b0106ebc,,,,,,,,,,,,,,,,,,,,,,,,,,,,,,,,,,,,,,,,,,,,,,,,,,,,,,,,,,,,,,,,,,,,,,,,,,,,,,,,,,,,,,,,,,,,,,,,,,,,,,,
,,"[""comma""]",0,[0.3111999998092756],39,0,39,0,1,5ba4d6c929629d00014e6c28,33,Mężczyzna,2022-06-04_08h11.49.687,task,2021.1.4,Win32,59.88382538,628b806c463b948bc644b84f,629af78be5018847b0106ebc,,,,,,,,,,,,,,,,,,,,,,,,,,,,,,,,,,,,,,,,,,,,,,,,,,,,,,,,,,,,,,,,,,,,,,,,,,,,,,,,,,,,,,,,,,,,,,,,,,,,,,,
,,"[""comma""]",0,[0.40020000004770395],40,0,40,0,1,5ba4d6c929629d00014e6c28,33,Mężczyzna,2022-06-04_08h11.49.687,task,2021.1.4,Win32,59.88382538,628b806c463b948bc644b84f,629af78be5018847b0106ebc,,,,,,,,,,,,,,,,,,,,,,,,,,,,,,,,,,,,,,,,,,,,,,,,,,,,,,,,,,,,,,,,,,,,,,,,,,,,,,,,,,,,,,,,,,,,,,,,,,,,,,,
,,"[""comma""]",0,[0.3712000000477076],41,0,41,0,1,5ba4d6c929629d00014e6c28,33,Mężczyzna,2022-06-04_08h11.49.687,task,2021.1.4,Win32,59.88382538,628b806c463b948bc644b84f,629af78be5018847b0106ebc,,,,,,,,,,,,,,,,,,,,,,,,,,,,,,,,,,,,,,,,,,,,,,,,,,,,,,,,,,,,,,,,,,,,,,,,,,,,,,,,,,,,,,,,,,,,,,,,,,,,,,,
,,"[""comma""]",0,[0.4150999999046121],42,0,42,0,1,5ba4d6c929629d00014e6c28,33,Mężczyzna,2022-06-04_08h11.49.687,task,2021.1.4,Win32,59.88382538,628b806c463b948bc644b84f,629af78be5018847b0106ebc,,,,,,,,,,,,,,,,,,,,,,,,,,,,,,,,,,,,,,,,,,,,,,,,,,,,,,,,,,,,,,,,,,,,,,,,,,,,,,,,,,,,,,,,,,,,,,,,,,,,,,,
,,"[""comma""]",0,[0.38179999995230673],43,0,43,0,1,5ba4d6c929629d00014e6c28,33,Mężczyzna,2022-06-04_08h11.49.687,task,2021.1.4,Win32,59.88382538,628b806c463b948bc644b84f,629af78be5018847b0106ebc,,,,,,,,,,,,,,,,,,,,,,,,,,,,,,,,,,,,,,,,,,,,,,,,,,,,,,,,,,,,,,,,,,,,,,,,,,,,,,,,,,,,,,,,,,,,,,,,,,,,,,,
,,"[""comma""]",0,[0.38009999990464394],44,0,44,0,1,5ba4d6c929629d00014e6c28,33,Mężczyzna,2022-06-04_08h11.49.687,task,2021.1.4,Win32,59.88382538,628b806c463b948bc644b84f,629af78be5018847b0106ebc,,,,,,,,,,,,,,,,,,,,,,,,,,,,,,,,,,,,,,,,,,,,,,,,,,,,,,,,,,,,,,,,,,,,,,,,,,,,,,,,,,,,,,,,,,,,,,,,,,,,,,,
,,"[""comma"",""period""]",0,"[0.3858999998569459,1.7975999999046337]",45,0,45,0,1,5ba4d6c929629d00014e6c28,33,Mężczyzna,2022-06-04_08h11.49.687,task,2021.1.4,Win32,59.88382538,628b806c463b948bc644b84f,629af78be5018847b0106ebc,,,,,,,,,,,,,,,,,,,,,,,,,,,,,,,,,,,,,,,,,,,,,,,,,,,,,,,,,,,,,,,,,,,,,,,,,,,,,,,,,,,,,,,,,,,,,,,,,,,,,,,
,,,0,,46,0,46,0,1,5ba4d6c929629d00014e6c28,33,Mężczyzna,2022-06-04_08h11.49.687,task,2021.1.4,Win32,59.88382538,628b806c463b948bc644b84f,629af78be5018847b0106ebc,,,,,,,,,,,,,,,,,,,,,,,,,,,,,,,,,,,,,,,,,,,,,,,,,,,,,,,,,,,,,,,,,,,,,,,,,,,,,,,,,,,,,,,,,,,,,,,,,,,,,,,
,,"[""period""]",0,[0.23959999990464098],47,0,47,0,1,5ba4d6c929629d00014e6c28,33,Mężczyzna,2022-06-04_08h11.49.687,task,2021.1.4,Win32,59.88382538,628b806c463b948bc644b84f,629af78be5018847b0106ebc,,,,,,,,,,,,,,,,,,,,,,,,,,,,,,,,,,,,,,,,,,,,,,,,,,,,,,,,,,,,,,,,,,,,,,,,,,,,,,,,,,,,,,,,,,,,,,,,,,,,,,,
,,"[""comma""]",0,[0.3067999999523181],48,0,48,0,1,5ba4d6c929629d00014e6c28,33,Mężczyzna,2022-06-04_08h11.49.687,task,2021.1.4,Win32,59.88382538,628b806c463b948bc644b84f,629af78be5018847b0106ebc,,,,,,,,,,,,,,,,,,,,,,,,,,,,,,,,,,,,,,,,,,,,,,,,,,,,,,,,,,,,,,,,,,,,,,,,,,,,,,,,,,,,,,,,,,,,,,,,,,,,,,,
,,"[""comma""]",0,[0.4668000001907444],49,0,49,0,1,5ba4d6c929629d00014e6c28,33,Mężczyzna,2022-06-04_08h11.49.687,task,2021.1.4,Win32,59.88382538,628b806c463b948bc644b84f,629af78be5018847b0106ebc,,,,,,,,,,,,,,,,,,,,,,,,,,,,,,,,,,,,,,,,,,,,,,,,,,,,,,,,,,,,,,,,,,,,,,,,,,,,,,,,,,,,,,,,,,,,,,,,,,,,,,,
,,"[""period""]",0,[0.42559999990464803],50,0,50,0,1,5ba4d6c929629d00014e6c28,33,Mężczyzna,2022-06-04_08h11.49.687,task,2021.1.4,Win32,59.88382538,628b806c463b948bc644b84f,629af78be5018847b0106ebc,,,,,,,,,,,,,,,,,,,,,,,,,,,,,,,,,,,,,,,,,,,,,,,,,,,,,,,,,,,,,,,,,,,,,,,,,,,,,,,,,,,,,,,,,,,,,,,,,,,,,,,
,,"[""comma""]",0,[0.4559000000953688],51,0,51,0,1,5ba4d6c929629d00014e6c28,33,Mężczyzna,2022-06-04_08h11.49.687,task,2021.1.4,Win32,59.88382538,628b806c463b948bc644b84f,629af78be5018847b0106ebc,,,,,,,,,,,,,,,,,,,,,,,,,,,,,,,,,,,,,,,,,,,,,,,,,,,,,,,,,,,,,,,,,,,,,,,,,,,,,,,,,,,,,,,,,,,,,,,,,,,,,,,
,,"[""period""]",0,[0.2924000000953697],52,0,52,0,1,5ba4d6c929629d00014e6c28,33,Mężczyzna,2022-06-04_08h11.49.687,task,2021.1.4,Win32,59.88382538,628b806c463b948bc644b84f,629af78be5018847b0106ebc,,,,,,,,,,,,,,,,,,,,,,,,,,,,,,,,,,,,,,,,,,,,,,,,,,,,,,,,,,,,,,,,,,,,,,,,,,,,,,,,,,,,,,,,,,,,,,,,,,,,,,,
,,"[""comma""]",0,[0.1910000000000025],53,0,53,0,1,5ba4d6c929629d00014e6c28,33,Mężczyzna,2022-06-04_08h11.49.687,task,2021.1.4,Win32,59.88382538,628b806c463b948bc644b84f,629af78be5018847b0106ebc,,,,,,,,,,,,,,,,,,,,,,,,,,,,,,,,,,,,,,,,,,,,,,,,,,,,,,,,,,,,,,,,,,,,,,,,,,,,,,,,,,,,,,,,,,,,,,,,,,,,,,,
,,"[""period""]",0,[0.33500000000000796],54,0,54,0,1,5ba4d6c929629d00014e6c28,33,Mężczyzna,2022-06-04_08h11.49.687,task,2021.1.4,Win32,59.88382538,628b806c463b948bc644b84f,629af78be5018847b0106ebc,,,,,,,,,,,,,,,,,,,,,,,,,,,,,,,,,,,,,,,,,,,,,,,,,,,,,,,,,,,,,,,,,,,,,,,,,,,,,,,,,,,,,,,,,,,,,,,,,,,,,,,
,,"[""comma""]",0,[0.29820000004767167],55,0,55,0,1,5ba4d6c929629d00014e6c28,33,Mężczyzna,2022-06-04_08h11.49.687,task,2021.1.4,Win32,59.88382538,628b806c463b948bc644b84f,629af78be5018847b0106ebc,,,,,,,,,,,,,,,,,,,,,,,,,,,,,,,,,,,,,,,,,,,,,,,,,,,,,,,,,,,,,,,,,,,,,,,,,,,,,,,,,,,,,,,,,,,,,,,,,,,,,,,
,,"[""period""]",0,[0.3317999999523238],56,0,56,0,1,5ba4d6c929629d00014e6c28,33,Mężczyzna,2022-06-04_08h11.49.687,task,2021.1.4,Win32,59.88382538,628b806c463b948bc644b84f,629af78be5018847b0106ebc,,,,,,,,,,,,,,,,,,,,,,,,,,,,,,,,,,,,,,,,,,,,,,,,,,,,,,,,,,,,,,,,,,,,,,,,,,,,,,,,,,,,,,,,,,,,,,,,,,,,,,,
,,"[""comma""]",0,[0.25679999995233516],57,0,57,0,1,5ba4d6c929629d00014e6c28,33,Mężczyzna,2022-06-04_08h11.49.687,task,2021.1.4,Win32,59.88382538,628b806c463b948bc644b84f,629af78be5018847b0106ebc,,,,,,,,,,,,,,,,,,,,,,,,,,,,,,,,,,,,,,,,,,,,,,,,,,,,,,,,,,,,,,,,,,,,,,,,,,,,,,,,,,,,,,,,,,,,,,,,,,,,,,,
,,"[""comma""]",0,[0.2980999999046219],58,0,58,0,1,5ba4d6c929629d00014e6c28,33,Mężczyzna,2022-06-04_08h11.49.687,task,2021.1.4,Win32,59.88382538,628b806c463b948bc644b84f,629af78be5018847b0106ebc,,,,,,,,,,,,,,,,,,,,,,,,,,,,,,,,,,,,,,,,,,,,,,,,,,,,,,,,,,,,,,,,,,,,,,,,,,,,,,,,,,,,,,,,,,,,,,,,,,,,,,,
,,"[""period""]",0,[0.24970000004768167],59,0,59,0,1,5ba4d6c929629d00014e6c28,33,Mężczyzna,2022-06-04_08h11.49.687,task,2021.1.4,Win32,59.88382538,628b806c463b948bc644b84f,629af78be5018847b0106ebc,,,,,,,,,,,,,,,,,,,,,,,,,,,,,,,,,,,,,,,,,,,,,,,,,,,,,,,,,,,,,,,,,,,,,,,,,,,,,,,,,,,,,,,,,,,,,,,,,,,,,,,
,,"[""comma""]",0,[0.33549999999999613],60,0,60,0,1,5ba4d6c929629d00014e6c28,33,Mężczyzna,2022-06-04_08h11.49.687,task,2021.1.4,Win32,59.88382538,628b806c463b948bc644b84f,629af78be5018847b0106ebc,,,,,,,,,,,,,,,,,,,,,,,,,,,,,,,,,,,,,,,,,,,,,,,,,,,,,,,,,,,,,,,,,,,,,,,,,,,,,,,,,,,,,,,,,,,,,,,,,,,,,,,
,,"[""comma""]",0,[0.3096999998092542],61,0,61,0,1,5ba4d6c929629d00014e6c28,33,Mężczyzna,2022-06-04_08h11.49.687,task,2021.1.4,Win32,59.88382538,628b806c463b948bc644b84f,629af78be5018847b0106ebc,,,,,,,,,,,,,,,,,,,,,,,,,,,,,,,,,,,,,,,,,,,,,,,,,,,,,,,,,,,,,,,,,,,,,,,,,,,,,,,,,,,,,,,,,,,,,,,,,,,,,,,
,,"[""comma""]",0,[0.3149999999999977],62,0,62,0,1,5ba4d6c929629d00014e6c28,33,Mężczyzna,2022-06-04_08h11.49.687,task,2021.1.4,Win32,59.88382538,628b806c463b948bc644b84f,629af78be5018847b0106ebc,,,,,,,,,,,,,,,,,,,,,,,,,,,,,,,,,,,,,,,,,,,,,,,,,,,,,,,,,,,,,,,,,,,,,,,,,,,,,,,,,,,,,,,,,,,,,,,,,,,,,,,
,,"[""comma""]",0,[0.3159999999999741],63,0,63,0,1,5ba4d6c929629d00014e6c28,33,Mężczyzna,2022-06-04_08h11.49.687,task,2021.1.4,Win32,59.88382538,628b806c463b948bc644b84f,629af78be5018847b0106ebc,,,,,,,,,,,,,,,,,,,,,,,,,,,,,,,,,,,,,,,,,,,,,,,,,,,,,,,,,,,,,,,,,,,,,,,,,,,,,,,,,,,,,,,,,,,,,,,,,,,,,,,
,,"[""period""]",0,[0.242999999999995],64,0,64,0,1,5ba4d6c929629d00014e6c28,33,Mężczyzna,2022-06-04_08h11.49.687,task,2021.1.4,Win32,59.88382538,628b806c463b948bc644b84f,629af78be5018847b0106ebc,,,,,,,,,,,,,,,,,,,,,,,,,,,,,,,,,,,,,,,,,,,,,,,,,,,,,,,,,,,,,,,,,,,,,,,,,,,,,,,,,,,,,,,,,,,,,,,,,,,,,,,
,,"[""period""]",0,[0.2837999999523504],65,0,65,0,1,5ba4d6c929629d00014e6c28,33,Mężczyzna,2022-06-04_08h11.49.687,task,2021.1.4,Win32,59.88382538,628b806c463b948bc644b84f,629af78be5018847b0106ebc,,,,,,,,,,,,,,,,,,,,,,,,,,,,,,,,,,,,,,,,,,,,,,,,,,,,,,,,,,,,,,,,,,,,,,,,,,,,,,,,,,,,,,,,,,,,,,,,,,,,,,,
,,"[""period""]",0,[0.33890000009535015],66,0,66,0,1,5ba4d6c929629d00014e6c28,33,Mężczyzna,2022-06-04_08h11.49.687,task,2021.1.4,Win32,59.88382538,628b806c463b948bc644b84f,629af78be5018847b0106ebc,,,,,,,,,,,,,,,,,,,,,,,,,,,,,,,,,,,,,,,,,,,,,,,,,,,,,,,,,,,,,,,,,,,,,,,,,,,,,,,,,,,,,,,,,,,,,,,,,,,,,,,
,,"[""comma""]",0,[0.3369999999999891],67,0,67,0,1,5ba4d6c929629d00014e6c28,33,Mężczyzna,2022-06-04_08h11.49.687,task,2021.1.4,Win32,59.88382538,628b806c463b948bc644b84f,629af78be5018847b0106ebc,,,,,,,,,,,,,,,,,,,,,,,,,,,,,,,,,,,,,,,,,,,,,,,,,,,,,,,,,,,,,,,,,,,,,,,,,,,,,,,,,,,,,,,,,,,,,,,,,,,,,,,
,,"[""comma""]",0,[0.3689000000953797],68,0,68,0,1,5ba4d6c929629d00014e6c28,33,Mężczyzna,2022-06-04_08h11.49.687,task,2021.1.4,Win32,59.88382538,628b806c463b948bc644b84f,629af78be5018847b0106ebc,,,,,,,,,,,,,,,,,,,,,,,,,,,,,,,,,,,,,,,,,,,,,,,,,,,,,,,,,,,,,,,,,,,,,,,,,,,,,,,,,,,,,,,,,,,,,,,,,,,,,,,
,,"[""comma""]",0,[0.39409999990465394],69,0,69,0,1,5ba4d6c929629d00014e6c28,33,Mężczyzna,2022-06-04_08h11.49.687,task,2021.1.4,Win32,59.88382538,628b806c463b948bc644b84f,629af78be5018847b0106ebc,,,,,,,,,,,,,,,,,,,,,,,,,,,,,,,,,,,,,,,,,,,,,,,,,,,,,,,,,,,,,,,,,,,,,,,,,,,,,,,,,,,,,,,,,,,,,,,,,,,,,,,
,,"[""period""]",0,[0.2885999999046476],70,0,70,0,1,5ba4d6c929629d00014e6c28,33,Mężczyzna,2022-06-04_08h11.49.687,task,2021.1.4,Win32,59.88382538,628b806c463b948bc644b84f,629af78be5018847b0106ebc,,,,,,,,,,,,,,,,,,,,,,,,,,,,,,,,,,,,,,,,,,,,,,,,,,,,,,,,,,,,,,,,,,,,,,,,,,,,,,,,,,,,,,,,,,,,,,,,,,,,,,,
,,"[""comma""]",0,[0.38570000004767735],71,0,71,0,1,5ba4d6c929629d00014e6c28,33,Mężczyzna,2022-06-04_08h11.49.687,task,2021.1.4,Win32,59.88382538,628b806c463b948bc644b84f,629af78be5018847b0106ebc,,,,,,,,,,,,,,,,,,,,,,,,,,,,,,,,,,,,,,,,,,,,,,,,,,,,,,,,,,,,,,,,,,,,,,,,,,,,,,,,,,,,,,,,,,,,,,,,,,,,,,,
,,"[""comma""]",0,[0.3597999999523154],72,0,72,0,1,5ba4d6c929629d00014e6c28,33,Mężczyzna,2022-06-04_08h11.49.687,task,2021.1.4,Win32,59.88382538,628b806c463b948bc644b84f,629af78be5018847b0106ebc,,,,,,,,,,,,,,,,,,,,,,,,,,,,,,,,,,,,,,,,,,,,,,,,,,,,,,,,,,,,,,,,,,,,,,,,,,,,,,,,,,,,,,,,,,,,,,,,,,,,,,,
,,"[""period""]",0,[0.4675999999046212],73,0,73,0,1,5ba4d6c929629d00014e6c28,33,Mężczyzna,2022-06-04_08h11.49.687,task,2021.1.4,Win32,59.88382538,628b806c463b948bc644b84f,629af78be5018847b0106ebc,,,,,,,,,,,,,,,,,,,,,,,,,,,,,,,,,,,,,,,,,,,,,,,,,,,,,,,,,,,,,,,,,,,,,,,,,,,,,,,,,,,,,,,,,,,,,,,,,,,,,,,
,,"[""period""]",0,[0.4402999999523445],74,0,74,0,1,5ba4d6c929629d00014e6c28,33,Mężczyzna,2022-06-04_08h11.49.687,task,2021.1.4,Win32,59.88382538,628b806c463b948bc644b84f,629af78be5018847b0106ebc,,,,,,,,,,,,,,,,,,,,,,,,,,,,,,,,,,,,,,,,,,,,,,,,,,,,,,,,,,,,,,,,,,,,,,,,,,,,,,,,,,,,,,,,,,,,,,,,,,,,,,,
,,"[""comma""]",0,[0.4712000000477019],75,0,75,0,1,5ba4d6c929629d00014e6c28,33,Mężczyzna,2022-06-04_08h11.49.687,task,2021.1.4,Win32,59.88382538,628b806c463b948bc644b84f,629af78be5018847b0106ebc,,,,,,,,,,,,,,,,,,,,,,,,,,,,,,,,,,,,,,,,,,,,,,,,,,,,,,,,,,,,,,,,,,,,,,,,,,,,,,,,,,,,,,,,,,,,,,,,,,,,,,,
,,"[""period""]",0,[0.29050000000000864],76,0,76,0,1,5ba4d6c929629d00014e6c28,33,Mężczyzna,2022-06-04_08h11.49.687,task,2021.1.4,Win32,59.88382538,628b806c463b948bc644b84f,629af78be5018847b0106ebc,,,,,,,,,,,,,,,,,,,,,,,,,,,,,,,,,,,,,,,,,,,,,,,,,,,,,,,,,,,,,,,,,,,,,,,,,,,,,,,,,,,,,,,,,,,,,,,,,,,,,,,
,,"[""comma""]",0,[0.3175999999045871],77,0,77,0,1,5ba4d6c929629d00014e6c28,33,Mężczyzna,2022-06-04_08h11.49.687,task,2021.1.4,Win32,59.88382538,628b806c463b948bc644b84f,629af78be5018847b0106ebc,,,,,,,,,,,,,,,,,,,,,,,,,,,,,,,,,,,,,,,,,,,,,,,,,,,,,,,,,,,,,,,,,,,,,,,,,,,,,,,,,,,,,,,,,,,,,,,,,,,,,,,
,,"[""period""]",0,[0.3209000000953779],78,0,78,0,1,5ba4d6c929629d00014e6c28,33,Mężczyzna,2022-06-04_08h11.49.687,task,2021.1.4,Win32,59.88382538,628b806c463b948bc644b84f,629af78be5018847b0106ebc,,,,,,,,,,,,,,,,,,,,,,,,,,,,,,,,,,,,,,,,,,,,,,,,,,,,,,,,,,,,,,,,,,,,,,,,,,,,,,,,,,,,,,,,,,,,,,,,,,,,,,,
,,"[""period""]",0,[0.2591999998092547],79,0,79,0,1,5ba4d6c929629d00014e6c28,33,Mężczyzna,2022-06-04_08h11.49.687,task,2021.1.4,Win32,59.88382538,628b806c463b948bc644b84f,629af78be5018847b0106ebc,,,,,,,,,,,,,,,,,,,,,,,,,,,,,,,,,,,,,,,,,,,,,,,,,,,,,,,,,,,,,,,,,,,,,,,,,,,,,,,,,,,,,,,,,,,,,,,,,,,,,,,
,,"[""period""]",0,[0.31620000004767235],80,0,80,0,1,5ba4d6c929629d00014e6c28,33,Mężczyzna,2022-06-04_08h11.49.687,task,2021.1.4,Win32,59.88382538,628b806c463b948bc644b84f,629af78be5018847b0106ebc,,,,,,,,,,,,,,,,,,,,,,,,,,,,,,,,,,,,,,,,,,,,,,,,,,,,,,,,,,,,,,,,,,,,,,,,,,,,,,,,,,,,,,,,,,,,,,,,,,,,,,,
,,"[""comma""]",0,[0.2812999999522958],81,0,81,0,1,5ba4d6c929629d00014e6c28,33,Mężczyzna,2022-06-04_08h11.49.687,task,2021.1.4,Win32,59.88382538,628b806c463b948bc644b84f,629af78be5018847b0106ebc,,,,,,,,,,,,,,,,,,,,,,,,,,,,,,,,,,,,,,,,,,,,,,,,,,,,,,,,,,,,,,,,,,,,,,,,,,,,,,,,,,,,,,,,,,,,,,,,,,,,,,,
,,"[""period""]",0,[0.31570000004768417],82,0,82,0,1,5ba4d6c929629d00014e6c28,33,Mężczyzna,2022-06-04_08h11.49.687,task,2021.1.4,Win32,59.88382538,628b806c463b948bc644b84f,629af78be5018847b0106ebc,,,,,,,,,,,,,,,,,,,,,,,,,,,,,,,,,,,,,,,,,,,,,,,,,,,,,,,,,,,,,,,,,,,,,,,,,,,,,,,,,,,,,,,,,,,,,,,,,,,,,,,
,,"[""comma""]",0,[0.2818999998569893],83,0,83,0,1,5ba4d6c929629d00014e6c28,33,Mężczyzna,2022-06-04_08h11.49.687,task,2021.1.4,Win32,59.88382538,628b806c463b948bc644b84f,629af78be5018847b0106ebc,,,,,,,,,,,,,,,,,,,,,,,,,,,,,,,,,,,,,,,,,,,,,,,,,,,,,,,,,,,,,,,,,,,,,,,,,,,,,,,,,,,,,,,,,,,,,,,,,,,,,,,
,,"[""period""]",0,[0.2846000001430866],84,0,84,0,1,5ba4d6c929629d00014e6c28,33,Mężczyzna,2022-06-04_08h11.49.687,task,2021.1.4,Win32,59.88382538,628b806c463b948bc644b84f,629af78be5018847b0106ebc,,,,,,,,,,,,,,,,,,,,,,,,,,,,,,,,,,,,,,,,,,,,,,,,,,,,,,,,,,,,,,,,,,,,,,,,,,,,,,,,,,,,,,,,,,,,,,,,,,,,,,,
,,"[""comma""]",0,[0.6484000000953642],85,0,85,0,1,5ba4d6c929629d00014e6c28,33,Mężczyzna,2022-06-04_08h11.49.687,task,2021.1.4,Win32,59.88382538,628b806c463b948bc644b84f,629af78be5018847b0106ebc,,,,,,,,,,,,,,,,,,,,,,,,,,,,,,,,,,,,,,,,,,,,,,,,,,,,,,,,,,,,,,,,,,,,,,,,,,,,,,,,,,,,,,,,,,,,,,,,,,,,,,,
,,"[""comma""]",0,[0.32200000000000273],86,0,86,0,1,5ba4d6c929629d00014e6c28,33,Mężczyzna,2022-06-04_08h11.49.687,task,2021.1.4,Win32,59.88382538,628b806c463b948bc644b84f,629af78be5018847b0106ebc,,,,,,,,,,,,,,,,,,,,,,,,,,,,,,,,,,,,,,,,,,,,,,,,,,,,,,,,,,,,,,,,,,,,,,,,,,,,,,,,,,,,,,,,,,,,,,,,,,,,,,,
,,"[""comma""]",0,[0.40509999990467804],87,0,87,0,1,5ba4d6c929629d00014e6c28,33,Mężczyzna,2022-06-04_08h11.49.687,task,2021.1.4,Win32,59.88382538,628b806c463b948bc644b84f,629af78be5018847b0106ebc,,,,,,,,,,,,,,,,,,,,,,,,,,,,,,,,,,,,,,,,,,,,,,,,,,,,,,,,,,,,,,,,,,,,,,,,,,,,,,,,,,,,,,,,,,,,,,,,,,,,,,,
,,"[""period""]",0,[0.310299999952349],88,0,88,0,1,5ba4d6c929629d00014e6c28,33,Mężczyzna,2022-06-04_08h11.49.687,task,2021.1.4,Win32,59.88382538,628b806c463b948bc644b84f,629af78be5018847b0106ebc,,,,,,,,,,,,,,,,,,,,,,,,,,,,,,,,,,,,,,,,,,,,,,,,,,,,,,,,,,,,,,,,,,,,,,,,,,,,,,,,,,,,,,,,,,,,,,,,,,,,,,,
,,"[""comma""]",0,[0.30750000000000455],89,0,89,0,1,5ba4d6c929629d00014e6c28,33,Mężczyzna,2022-06-04_08h11.49.687,task,2021.1.4,Win32,59.88382538,628b806c463b948bc644b84f,629af78be5018847b0106ebc,,,,,,,,,,,,,,,,,,,,,,,,,,,,,,,,,,,,,,,,,,,,,,,,,,,,,,,,,,,,,,,,,,,,,,,,,,,,,,,,,,,,,,,,,,,,,,,,,,,,,,,
,,"[""comma""]",0,[0.2862999999522913],90,0,90,0,1,5ba4d6c929629d00014e6c28,33,Mężczyzna,2022-06-04_08h11.49.687,task,2021.1.4,Win32,59.88382538,628b806c463b948bc644b84f,629af78be5018847b0106ebc,,,,,,,,,,,,,,,,,,,,,,,,,,,,,,,,,,,,,,,,,,,,,,,,,,,,,,,,,,,,,,,,,,,,,,,,,,,,,,,,,,,,,,,,,,,,,,,,,,,,,,,
,,"[""period""]",0,[0.24770000004770054],91,0,91,0,1,5ba4d6c929629d00014e6c28,33,Mężczyzna,2022-06-04_08h11.49.687,task,2021.1.4,Win32,59.88382538,628b806c463b948bc644b84f,629af78be5018847b0106ebc,,,,,,,,,,,,,,,,,,,,,,,,,,,,,,,,,,,,,,,,,,,,,,,,,,,,,,,,,,,,,,,,,,,,,,,,,,,,,,,,,,,,,,,,,,,,,,,,,,,,,,,
,,"[""period""]",0,[0.2984000000953415],92,0,92,0,1,5ba4d6c929629d00014e6c28,33,Mężczyzna,2022-06-04_08h11.49.687,task,2021.1.4,Win32,59.88382538,628b806c463b948bc644b84f,629af78be5018847b0106ebc,,,,,,,,,,,,,,,,,,,,,,,,,,,,,,,,,,,,,,,,,,,,,,,,,,,,,,,,,,,,,,,,,,,,,,,,,,,,,,,,,,,,,,,,,,,,,,,,,,,,,,,
,,"[""period""]",0,[0.30490000009535834],93,0,93,0,1,5ba4d6c929629d00014e6c28,33,Mężczyzna,2022-06-04_08h11.49.687,task,2021.1.4,Win32,59.88382538,628b806c463b948bc644b84f,629af78be5018847b0106ebc,,,,,,,,,,,,,,,,,,,,,,,,,,,,,,,,,,,,,,,,,,,,,,,,,,,,,,,,,,,,,,,,,,,,,,,,,,,,,,,,,,,,,,,,,,,,,,,,,,,,,,,
,,"[""comma""]",0,[0.25779999995233993],94,0,94,0,1,5ba4d6c929629d00014e6c28,33,Mężczyzna,2022-06-04_08h11.49.687,task,2021.1.4,Win32,59.88382538,628b806c463b948bc644b84f,629af78be5018847b0106ebc,,,,,,,,,,,,,,,,,,,,,,,,,,,,,,,,,,,,,,,,,,,,,,,,,,,,,,,,,,,,,,,,,,,,,,,,,,,,,,,,,,,,,,,,,,,,,,,,,,,,,,,
,,"[""comma""]",0,[0.23340000009534378],95,0,95,0,1,5ba4d6c929629d00014e6c28,33,Mężczyzna,2022-06-04_08h11.49.687,task,2021.1.4,Win32,59.88382538,628b806c463b948bc644b84f,629af78be5018847b0106ebc,,,,,,,,,,,,,,,,,,,,,,,,,,,,,,,,,,,,,,,,,,,,,,,,,,,,,,,,,,,,,,,,,,,,,,,,,,,,,,,,,,,,,,,,,,,,,,,,,,,,,,,
,,"[""period""]",0,[0.2366000001430848],96,0,96,0,1,5ba4d6c929629d00014e6c28,33,Mężczyzna,2022-06-04_08h11.49.687,task,2021.1.4,Win32,59.88382538,628b806c463b948bc644b84f,629af78be5018847b0106ebc,,,,,,,,,,,,,,,,,,,,,,,,,,,,,,,,,,,,,,,,,,,,,,,,,,,,,,,,,,,,,,,,,,,,,,,,,,,,,,,,,,,,,,,,,,,,,,,,,,,,,,,
,,"[""comma""]",0,[0.2535999999046794],97,0,97,0,1,5ba4d6c929629d00014e6c28,33,Mężczyzna,2022-06-04_08h11.49.687,task,2021.1.4,Win32,59.88382538,628b806c463b948bc644b84f,629af78be5018847b0106ebc,,,,,,,,,,,,,,,,,,,,,,,,,,,,,,,,,,,,,,,,,,,,,,,,,,,,,,,,,,,,,,,,,,,,,,,,,,,,,,,,,,,,,,,,,,,,,,,,,,,,,,,
,,"[""period""]",0,[0.5000999999045916],98,0,98,0,1,5ba4d6c929629d00014e6c28,33,Mężczyzna,2022-06-04_08h11.49.687,task,2021.1.4,Win32,59.88382538,628b806c463b948bc644b84f,629af78be5018847b0106ebc,,,,,,,,,,,,,,,,,,,,,,,,,,,,,,,,,,,,,,,,,,,,,,,,,,,,,,,,,,,,,,,,,,,,,,,,,,,,,,,,,,,,,,,,,,,,,,,,,,,,,,,
,,"[""period""]",0,[0.4173999998569684],99,0,99,0,1,5ba4d6c929629d00014e6c28,33,Mężczyzna,2022-06-04_08h11.49.687,task,2021.1.4,Win32,59.88382538,628b806c463b948bc644b84f,629af78be5018847b0106ebc,,,,,,,,,,,,,,,,,,,,,,,,,,,,,,,,,,,,,,,,,,,,,,,,,,,,,,,,,,,,,,,,,,,,,,,,,,,,,,,,,,,,,,,,,,,,,,,,,,,,,,,
,,"[""comma""]",0,[0.2540000000000191],100,0,100,0,1,5ba4d6c929629d00014e6c28,33,Mężczyzna,2022-06-04_08h11.49.687,task,2021.1.4,Win32,59.88382538,628b806c463b948bc644b84f,629af78be5018847b0106ebc,,,,,,,,,,,,,,,,,,,,,,,,,,,,,,,,,,,,,,,,,,,,,,,,,,,,,,,,,,,,,,,,,,,,,,,,,,,,,,,,,,,,,,,,,,,,,,,,,,,,,,,
,,"[""comma""]",0,[0.28339999985695385],101,0,101,0,1,5ba4d6c929629d00014e6c28,33,Mężczyzna,2022-06-04_08h11.49.687,task,2021.1.4,Win32,59.88382538,628b806c463b948bc644b84f,629af78be5018847b0106ebc,,,,,,,,,,,,,,,,,,,,,,,,,,,,,,,,,,,,,,,,,,,,,,,,,,,,,,,,,,,,,,,,,,,,,,,,,,,,,,,,,,,,,,,,,,,,,,,,,,,,,,,
,,"[""period""]",0,[0.3842000000477128],102,0,102,0,1,5ba4d6c929629d00014e6c28,33,Mężczyzna,2022-06-04_08h11.49.687,task,2021.1.4,Win32,59.88382538,628b806c463b948bc644b84f,629af78be5018847b0106ebc,,,,,,,,,,,,,,,,,,,,,,,,,,,,,,,,,,,,,,,,,,,,,,,,,,,,,,,,,,,,,,,,,,,,,,,,,,,,,,,,,,,,,,,,,,,,,,,,,,,,,,,
,,"[""comma""]",0,[0.3752000000476414],103,0,103,0,1,5ba4d6c929629d00014e6c28,33,Mężczyzna,2022-06-04_08h11.49.687,task,2021.1.4,Win32,59.88382538,628b806c463b948bc644b84f,629af78be5018847b0106ebc,,,,,,,,,,,,,,,,,,,,,,,,,,,,,,,,,,,,,,,,,,,,,,,,,,,,,,,,,,,,,,,,,,,,,,,,,,,,,,,,,,,,,,,,,,,,,,,,,,,,,,,
,,"[""comma"",""period""]",0,"[0.16769999980931516,1.905099999904678]",104,0,104,0,1,5ba4d6c929629d00014e6c28,33,Mężczyzna,2022-06-04_08h11.49.687,task,2021.1.4,Win32,59.88382538,628b806c463b948bc644b84f,629af78be5018847b0106ebc,,,,,,,,,,,,,,,,,,,,,,,,,,,,,,,,,,,,,,,,,,,,,,,,,,,,,,,,,,,,,,,,,,,,,,,,,,,,,,,,,,,,,,,,,,,,,,,,,,,,,,,
,,,0,,105,0,105,0,1,5ba4d6c929629d00014e6c28,33,Mężczyzna,2022-06-04_08h11.49.687,task,2021.1.4,Win32,59.88382538,628b806c463b948bc644b84f,629af78be5018847b0106ebc,,,,,,,,,,,,,,,,,,,,,,,,,,,,,,,,,,,,,,,,,,,,,,,,,,,,,,,,,,,,,,,,,,,,,,,,,,,,,,,,,,,,,,,,,,,,,,,,,,,,,,,
,,"[""period""]",0,[0.31779999995228536],106,0,106,0,1,5ba4d6c929629d00014e6c28,33,Mężczyzna,2022-06-04_08h11.49.687,task,2021.1.4,Win32,59.88382538,628b806c463b948bc644b84f,629af78be5018847b0106ebc,,,,,,,,,,,,,,,,,,,,,,,,,,,,,,,,,,,,,,,,,,,,,,,,,,,,,,,,,,,,,,,,,,,,,,,,,,,,,,,,,,,,,,,,,,,,,,,,,,,,,,,
,,"[""comma""]",0,[0.24900000000002365],107,0,107,0,1,5ba4d6c929629d00014e6c28,33,Mężczyzna,2022-06-04_08h11.49.687,task,2021.1.4,Win32,59.88382538,628b806c463b948bc644b84f,629af78be5018847b0106ebc,,,,,,,,,,,,,,,,,,,,,,,,,,,,,,,,,,,,,,,,,,,,,,,,,,,,,,,,,,,,,,,,,,,,,,,,,,,,,,,,,,,,,,,,,,,,,,,,,,,,,,,
,,"[""comma""]",0,[0.37000000000000455],108,0,108,0,1,5ba4d6c929629d00014e6c28,33,Mężczyzna,2022-06-04_08h11.49.687,task,2021.1.4,Win32,59.88382538,628b806c463b948bc644b84f,629af78be5018847b0106ebc,,,,,,,,,,,,,,,,,,,,,,,,,,,,,,,,,,,,,,,,,,,,,,,,,,,,,,,,,,,,,,,,,,,,,,,,,,,,,,,,,,,,,,,,,,,,,,,,,,,,,,,
,,"[""period""]",0,[0.32059999990462984],109,0,109,0,1,5ba4d6c929629d00014e6c28,33,Mężczyzna,2022-06-04_08h11.49.687,task,2021.1.4,Win32,59.88382538,628b806c463b948bc644b84f,629af78be5018847b0106ebc,,,,,,,,,,,,,,,,,,,,,,,,,,,,,,,,,,,,,,,,,,,,,,,,,,,,,,,,,,,,,,,,,,,,,,,,,,,,,,,,,,,,,,,,,,,,,,,,,,,,,,,
,,"[""comma"",""period""]",0,"[0.23370000004769054,1.1384000000953733]",110,0,110,0,1,5ba4d6c929629d00014e6c28,33,Mężczyzna,2022-06-04_08h11.49.687,task,2021.1.4,Win32,59.88382538,628b806c463b948bc644b84f,629af78be5018847b0106ebc,,,,,,,,,,,,,,,,,,,,,,,,,,,,,,,,,,,,,,,,,,,,,,,,,,,,,,,,,,,,,,,,,,,,,,,,,,,,,,,,,,,,,,,,,,,,,,,,,,,,,,,
,,"[""comma""]",0,[0.4985999999046271],111,0,111,0,1,5ba4d6c929629d00014e6c28,33,Mężczyzna,2022-06-04_08h11.49.687,task,2021.1.4,Win32,59.88382538,628b806c463b948bc644b84f,629af78be5018847b0106ebc,,,,,,,,,,,,,,,,,,,,,,,,,,,,,,,,,,,,,,,,,,,,,,,,,,,,,,,,,,,,,,,,,,,,,,,,,,,,,,,,,,,,,,,,,,,,,,,,,,,,,,,
,,"[""comma""]",0,[0.36820000004769327],112,0,112,0,1,5ba4d6c929629d00014e6c28,33,Mężczyzna,2022-06-04_08h11.49.687,task,2021.1.4,Win32,59.88382538,628b806c463b948bc644b84f,629af78be5018847b0106ebc,,,,,,,,,,,,,,,,,,,,,,,,,,,,,,,,,,,,,,,,,,,,,,,,,,,,,,,,,,,,,,,,,,,,,,,,,,,,,,,,,,,,,,,,,,,,,,,,,,,,,,,
,,"[""period""]",0,[0.4758999998569493],113,0,113,0,1,5ba4d6c929629d00014e6c28,33,Mężczyzna,2022-06-04_08h11.49.687,task,2021.1.4,Win32,59.88382538,628b806c463b948bc644b84f,629af78be5018847b0106ebc,,,,,,,,,,,,,,,,,,,,,,,,,,,,,,,,,,,,,,,,,,,,,,,,,,,,,,,,,,,,,,,,,,,,,,,,,,,,,,,,,,,,,,,,,,,,,,,,,,,,,,,
,,"[""period""]",0,[0.5202000000476801],114,0,114,0,1,5ba4d6c929629d00014e6c28,33,Mężczyzna,2022-06-04_08h11.49.687,task,2021.1.4,Win32,59.88382538,628b806c463b948bc644b84f,629af78be5018847b0106ebc,,,,,,,,,,,,,,,,,,,,,,,,,,,,,,,,,,,,,,,,,,,,,,,,,,,,,,,,,,,,,,,,,,,,,,,,,,,,,,,,,,,,,,,,,,,,,,,,,,,,,,,
,,"[""comma""]",0,[1.254000000000019],115,0,115,0,1,5ba4d6c929629d00014e6c28,33,Mężczyzna,2022-06-04_08h11.49.687,task,2021.1.4,Win32,59.88382538,628b806c463b948bc644b84f,629af78be5018847b0106ebc,,,,,,,,,,,,,,,,,,,,,,,,,,,,,,,,,,,,,,,,,,,,,,,,,,,,,,,,,,,,,,,,,,,,,,,,,,,,,,,,,,,,,,,,,,,,,,,,,,,,,,,
,,"[""period""]",0,[0.5169000000954043],116,0,116,0,1,5ba4d6c929629d00014e6c28,33,Mężczyzna,2022-06-04_08h11.49.687,task,2021.1.4,Win32,59.88382538,628b806c463b948bc644b84f,629af78be5018847b0106ebc,,,,,,,,,,,,,,,,,,,,,,,,,,,,,,,,,,,,,,,,,,,,,,,,,,,,,,,,,,,,,,,,,,,,,,,,,,,,,,,,,,,,,,,,,,,,,,,,,,,,,,,
,,"[""comma""]",0,[0.25979999995229264],117,0,117,0,1,5ba4d6c929629d00014e6c28,33,Mężczyzna,2022-06-04_08h11.49.687,task,2021.1.4,Win32,59.88382538,628b806c463b948bc644b84f,629af78be5018847b0106ebc,,,,,,,,,,,,,,,,,,,,,,,,,,,,,,,,,,,,,,,,,,,,,,,,,,,,,,,,,,,,,,,,,,,,,,,,,,,,,,,,,,,,,,,,,,,,,,,,,,,,,,,
,,"[""period""]",0,[0.205799999952319],118,0,118,0,1,5ba4d6c929629d00014e6c28,33,Mężczyzna,2022-06-04_08h11.49.687,task,2021.1.4,Win32,59.88382538,628b806c463b948bc644b84f,629af78be5018847b0106ebc,,,,,,,,,,,,,,,,,,,,,,,,,,,,,,,,,,,,,,,,,,,,,,,,,,,,,,,,,,,,,,,,,,,,,,,,,,,,,,,,,,,,,,,,,,,,,,,,,,,,,,,
,,"[""period""]",0,[0.11859999990463166],119,0,119,0,1,5ba4d6c929629d00014e6c28,33,Mężczyzna,2022-06-04_08h11.49.687,task,2021.1.4,Win32,59.88382538,628b806c463b948bc644b84f,629af78be5018847b0106ebc,,,,,,,,,,,,,,,,,,,,,,,,,,,,,,,,,,,,,,,,,,,,,,,,,,,,,,,,,,,,,,,,,,,,,,,,,,,,,,,,,,,,,,,,,,,,,,,,,,,,,,,
,,,,,,,,,,5ba4d6c929629d00014e6c28,33,Mężczyzna,2022-06-04_08h11.49.687,task,2021.1.4,Win32,59.88382538,628b806c463b948bc644b84f,629af78be5018847b0106ebc,space,52.9229,space,8.1591,0,0,0,0,1,X V Q F H G B L J M P D K C T S W R N Z,,,,,,,,,,,,,,,,,,,,,,,,,,,,,,,,,,,,,,,,,,,,,,,,,,,,,,,,,,,,,,,,,,,,,,,,,,,,,,,,,,,,,,,,,,,,,
,,,,,,,,,,5ba4d6c929629d00014e6c28,33,Mężczyzna,2022-06-04_08h11.49.687,task,2021.1.4,Win32,59.88382538,628b806c463b948bc644b84f,629af78be5018847b0106ebc,,,,,1,0,1,0,1,X V Q F H G B L J M P D K C T S W R N Z,,,,,,,,,,,,,,,,,,,,,,,,,,,,,,,,,,,,,,,,,,,,,,,,,,,,,,,,,,,,,,,,,,,,,,,,,,,,,,,,,,,,,,,,,,,,,
,,,,,,,,,,5ba4d6c929629d00014e6c28,33,Mężczyzna,2022-06-04_08h11.49.687,task,2021.1.4,Win32,59.88382538,628b806c463b948bc644b84f,629af78be5018847b0106ebc,,,,,,,,,,,zz,"[""z"",""z""]","[1.4692999999523408,1.7106000001430743,3.6270000000000095]",1,ZZ,0,0,0,0,1,,,,,,,,,,,,,,,,,,,,,,,,,,,,,,,,,,,,,,,,,,,,,,,,,,,,,,,,,,,,,,,,,,,,,,,,,,,,,,,,,,,
,,,,,,,,,,5ba4d6c929629d00014e6c28,33,Mężczyzna,2022-06-04_08h11.49.687,task,2021.1.4,Win32,59.88382538,628b806c463b948bc644b84f,629af78be5018847b0106ebc,,,,,0,0,0,0,1,X V Q F H G B L J M P D K C T S W R N Z,,,,,,,,,,,,,,,,,,,,,,,,,,,,,,,,,,,,,,,,,,,,,,,,,,,,,,,,,,,,,,,,,,,,,,,,,,,,,,,,,,,,,,,,,,,,,
,,,,,,,,,,5ba4d6c929629d00014e6c28,33,Mężczyzna,2022-06-04_08h11.49.687,task,2021.1.4,Win32,59.88382538,628b806c463b948bc644b84f,629af78be5018847b0106ebc,,,,,1,0,1,0,1,X V Q F H G B L J M P D K C T S W R N Z,,,,,,,,,,,,,,,,,,,,,,,,,,,,,,,,,,,,,,,,,,,,,,,,,,,,,,,,,,,,,,,,,,,,,,,,,,,,,,,,,,,,,,,,,,,,,
,,,,,,,,,,5ba4d6c929629d00014e6c28,33,Mężczyzna,2022-06-04_08h11.49.687,task,2021.1.4,Win32,59.88382538,628b806c463b948bc644b84f,629af78be5018847b0106ebc,,,,,,,,,,,lz,"[""l"",""z""]","[1.9684000000953574,3.31260000014305,4.674100000143028]",1,LZ,1,0,1,0,1,,,,,,,,,,,,,,,,,,,,,,,,,,,,,,,,,,,,,,,,,,,,,,,,,,,,,,,,,,,,,,,,,,,,,,,,,,,,,,,,,,,
,,,,,,,,,,5ba4d6c929629d00014e6c28,33,Mężczyzna,2022-06-04_08h11.49.687,task,2021.1.4,Win32,59.88382538,628b806c463b948bc644b84f,629af78be5018847b0106ebc,,,,,0,0,0,0,1,X V Q F H G B L J M P D K C T S W R N Z,,,,,,,,,,,,,,,,,,,,,,,,,,,,,,,,,,,,,,,,,,,,,,,,,,,,,,,,,,,,,,,,,,,,,,,,,,,,,,,,,,,,,,,,,,,,,
,,,,,,,,,,5ba4d6c929629d00014e6c28,33,Mężczyzna,2022-06-04_08h11.49.687,task,2021.1.4,Win32,59.88382538,628b806c463b948bc644b84f,629af78be5018847b0106ebc,,,,,1,0,1,0,1,X V Q F H G B L J M P D K C T S W R N Z,,,,,,,,,,,,,,,,,,,,,,,,,,,,,,,,,,,,,,,,,,,,,,,,,,,,,,,,,,,,,,,,,,,,,,,,,,,,,,,,,,,,,,,,,,,,,
,,,,,,,,,,5ba4d6c929629d00014e6c28,33,Mężczyzna,2022-06-04_08h11.49.687,task,2021.1.4,Win32,59.88382538,628b806c463b948bc644b84f,629af78be5018847b0106ebc,,,,,2,0,2,0,1,X V Q F H G B L J M P D K C T S W R N Z,,,,,,,,,,,,,,,,,,,,,,,,,,,,,,,,,,,,,,,,,,,,,,,,,,,,,,,,,,,,,,,,,,,,,,,,,,,,,,,,,,,,,,,,,,,,,
,,,,,,,,,,5ba4d6c929629d00014e6c28,33,Mężczyzna,2022-06-04_08h11.49.687,task,2021.1.4,Win32,59.88382538,628b806c463b948bc644b84f,629af78be5018847b0106ebc,,,,,,,,,,,fbr,"[""f"",""b"",""r""]","[1.4632000000476637,2.1171000001430684,2.7964999999999804,4.131700000047658]",1,FBR,2,0,2,0,1,,,,,,,,,,,,,,,,,,,,,,,,,,,,,,,,,,,,,,,,,,,,,,,,,,,,,,,,,,,,,,,,,,,,,,,,,,,,,,,,,,,
,,,,,,,,,,5ba4d6c929629d00014e6c28,33,Mężczyzna,2022-06-04_08h11.49.687,task,2021.1.4,Win32,59.88382538,628b806c463b948bc644b84f,629af78be5018847b0106ebc,,,,,0,0,0,0,1,X V Q F H G B L J M P D K C T S W R N Z,,,,,,,,,,,,,,,,,,,,,,,,,,,,,,,,,,,,,,,,,,,,,,,,,,,,,,,,,,,,,,,,,,,,,,,,,,,,,,,,,,,,,,,,,,,,,
,,,,,,,,,,5ba4d6c929629d00014e6c28,33,Mężczyzna,2022-06-04_08h11.49.687,task,2021.1.4,Win32,59.88382538,628b806c463b948bc644b84f,629af78be5018847b0106ebc,,,,,1,0,1,0,1,X V Q F H G B L J M P D K C T S W R N Z,,,,,,,,,,,,,,,,,,,,,,,,,,,,,,,,,,,,,,,,,,,,,,,,,,,,,,,,,,,,,,,,,,,,,,,,,,,,,,,,,,,,,,,,,,,,,
,,,,,,,,,,5ba4d6c929629d00014e6c28,33,Mężczyzna,2022-06-04_08h11.49.687,task,2021.1.4,Win32,59.88382538,628b806c463b948bc644b84f,629af78be5018847b0106ebc,,,,,2,0,2,0,1,X V Q F H G B L J M P D K C T S W R N Z,,,,,,,,,,,,,,,,,,,,,,,,,,,,,,,,,,,,,,,,,,,,,,,,,,,,,,,,,,,,,,,,,,,,,,,,,,,,,,,,,,,,,,,,,,,,,
,,,,,,,,,,5ba4d6c929629d00014e6c28,33,Mężczyzna,2022-06-04_08h11.49.687,task,2021.1.4,Win32,59.88382538,628b806c463b948bc644b84f,629af78be5018847b0106ebc,,,,,,,,,,,wtn,"[""w"",""t"",""n""]","[1.3848999998569411,1.869599999904608,2.2837999999522935,2.9102000000476664]",1,WTN,3,0,3,0,1,,,,,,,,,,,,,,,,,,,,,,,,,,,,,,,,,,,,,,,,,,,,,,,,,,,,,,,,,,,,,,,,,,,,,,,,,,,,,,,,,,,
,,,,,,,,,,5ba4d6c929629d00014e6c28,33,Mężczyzna,2022-06-04_08h11.49.687,task,2021.1.4,Win32,59.88382538,628b806c463b948bc644b84f,629af78be5018847b0106ebc,,,,,0,0,0,0,1,X V Q F H G B L J M P D K C T S W R N Z,,,,,,,,,,,,,,,,,,,,,,,,,,,,,,,,,,,,,,,,,,,,,,,,,,,,,,,,,,,,,,,,,,,,,,,,,,,,,,,,,,,,,,,,,,,,,
,,,,,,,,,,5ba4d6c929629d00014e6c28,33,Mężczyzna,2022-06-04_08h11.49.687,task,2021.1.4,Win32,59.88382538,628b806c463b948bc644b84f,629af78be5018847b0106ebc,,,,,1,0,1,0,1,X V Q F H G B L J M P D K C T S W R N Z,,,,,,,,,,,,,,,,,,,,,,,,,,,,,,,,,,,,,,,,,,,,,,,,,,,,,,,,,,,,,,,,,,,,,,,,,,,,,,,,,,,,,,,,,,,,,
,,,,,,,,,,5ba4d6c929629d00014e6c28,33,Mężczyzna,2022-06-04_08h11.49.687,task,2021.1.4,Win32,59.88382538,628b806c463b948bc644b84f,629af78be5018847b0106ebc,,,,,2,0,2,0,1,X V Q F H G B L J M P D K C T S W R N Z,,,,,,,,,,,,,,,,,,,,,,,,,,,,,,,,,,,,,,,,,,,,,,,,,,,,,,,,,,,,,,,,,,,,,,,,,,,,,,,,,,,,,,,,,,,,,
,,,,,,,,,,5ba4d6c929629d00014e6c28,33,Mężczyzna,2022-06-04_08h11.49.687,task,2021.1.4,Win32,59.88382538,628b806c463b948bc644b84f,629af78be5018847b0106ebc,,,,,3,0,3,0,1,X V Q F H G B L J M P D K C T S W R N Z,,,,,,,,,,,,,,,,,,,,,,,,,,,,,,,,,,,,,,,,,,,,,,,,,,,,,,,,,,,,,,,,,,,,,,,,,,,,,,,,,,,,,,,,,,,,,
,,,,,,,,,,5ba4d6c929629d00014e6c28,33,Mężczyzna,2022-06-04_08h11.49.687,task,2021.1.4,Win32,59.88382538,628b806c463b948bc644b84f,629af78be5018847b0106ebc,,,,,,,,,,,mhhv,"[""m"",""h"",""h"",""v""]","[1.2666000001430575,2.6899000000953492,3.1172999999523086,3.651999999999987,4.658700000047645]",1,MHHV,4,0,4,0,1,,,,,,,,,,,,,,,,,,,,,,,,,,,,,,,,,,,,,,,,,,,,,,,,,,,,,,,,,,,,,,,,,,,,,,,,,,,,,,,,,,,
,,,,,,,,,,5ba4d6c929629d00014e6c28,33,Mężczyzna,2022-06-04_08h11.49.687,task,2021.1.4,Win32,59.88382538,628b806c463b948bc644b84f,629af78be5018847b0106ebc,,,,,0,0,0,0,1,X V Q F H G B L J M P D K C T S W R N Z,,,,,,,,,,,,,,,,,,,,,,,,,,,,,,,,,,,,,,,,,,,,,,,,,,,,,,,,,,,,,,,,,,,,,,,,,,,,,,,,,,,,,,,,,,,,,
,,,,,,,,,,5ba4d6c929629d00014e6c28,33,Mężczyzna,2022-06-04_08h11.49.687,task,2021.1.4,Win32,59.88382538,628b806c463b948bc644b84f,629af78be5018847b0106ebc,,,,,1,0,1,0,1,X V Q F H G B L J M P D K C T S W R N Z,,,,,,,,,,,,,,,,,,,,,,,,,,,,,,,,,,,,,,,,,,,,,,,,,,,,,,,,,,,,,,,,,,,,,,,,,,,,,,,,,,,,,,,,,,,,,
,,,,,,,,,,5ba4d6c929629d00014e6c28,33,Mężczyzna,2022-06-04_08h11.49.687,task,2021.1.4,Win32,59.88382538,628b806c463b948bc644b84f,629af78be5018847b0106ebc,,,,,2,0,2,0,1,X V Q F H G B L J M P D K C T S W R N Z,,,,,,,,,,,,,,,,,,,,,,,,,,,,,,,,,,,,,,,,,,,,,,,,,,,,,,,,,,,,,,,,,,,,,,,,,,,,,,,,,,,,,,,,,,,,,
,,,,,,,,,,5ba4d6c929629d00014e6c28,33,Mężczyzna,2022-06-04_08h11.49.687,task,2021.1.4,Win32,59.88382538,628b806c463b948bc644b84f,629af78be5018847b0106ebc,,,,,3,0,3,0,1,X V Q F H G B L J M P D K C T S W R N Z,,,,,,,,,,,,,,,,,,,,,,,,,,,,,,,,,,,,,,,,,,,,,,,,,,,,,,,,,,,,,,,,,,,,,,,,,,,,,,,,,,,,,,,,,,,,,
,,,,,,,,,,5ba4d6c929629d00014e6c28,33,Mężczyzna,2022-06-04_08h11.49.687,task,2021.1.4,Win32,59.88382538,628b806c463b948bc644b84f,629af78be5018847b0106ebc,,,,,,,,,,,gpkz,"[""g"",""p"",""k"",""z""]","[1.501899999856903,2.027399999856925,2.561499999999967,2.961799999952291,4.218899999856944]",1,GPKZ,5,0,5,0,1,,,,,,,,,,,,,,,,,,,,,,,,,,,,,,,,,,,,,,,,,,,,,,,,,,,,,,,,,,,,,,,,,,,,,,,,,,,,,,,,,,,
,,,,,,,,,,5ba4d6c929629d00014e6c28,33,Mężczyzna,2022-06-04_08h11.49.687,task,2021.1.4,Win32,59.88382538,628b806c463b948bc644b84f,629af78be5018847b0106ebc,,,,,0,0,0,0,1,X V Q F H G B L J M P D K C T S W R N Z,,,,,,,,,,,,,,,,,,,,,,,,,,,,,,,,,,,,,,,,,,,,,,,,,,,,,,,,,,,,,,,,,,,,,,,,,,,,,,,,,,,,,,,,,,,,,
,,,,,,,,,,5ba4d6c929629d00014e6c28,33,Mężczyzna,2022-06-04_08h11.49.687,task,2021.1.4,Win32,59.88382538,628b806c463b948bc644b84f,629af78be5018847b0106ebc,,,,,1,0,1,0,1,X V Q F H G B L J M P D K C T S W R N Z,,,,,,,,,,,,,,,,,,,,,,,,,,,,,,,,,,,,,,,,,,,,,,,,,,,,,,,,,,,,,,,,,,,,,,,,,,,,,,,,,,,,,,,,,,,,,
,,,,,,,,,,5ba4d6c929629d00014e6c28,33,Mężczyzna,2022-06-04_08h11.49.687,task,2021.1.4,Win32,59.88382538,628b806c463b948bc644b84f,629af78be5018847b0106ebc,,,,,2,0,2,0,1,X V Q F H G B L J M P D K C T S W R N Z,,,,,,,,,,,,,,,,,,,,,,,,,,,,,,,,,,,,,,,,,,,,,,,,,,,,,,,,,,,,,,,,,,,,,,,,,,,,,,,,,,,,,,,,,,,,,
,,,,,,,,,,5ba4d6c929629d00014e6c28,33,Mężczyzna,2022-06-04_08h11.49.687,task,2021.1.4,Win32,59.88382538,628b806c463b948bc644b84f,629af78be5018847b0106ebc,,,,,3,0,3,0,1,X V Q F H G B L J M P D K C T S W R N Z,,,,,,,,,,,,,,,,,,,,,,,,,,,,,,,,,,,,,,,,,,,,,,,,,,,,,,,,,,,,,,,,,,,,,,,,,,,,,,,,,,,,,,,,,,,,,
,,,,,,,,,,5ba4d6c929629d00014e6c28,33,Mężczyzna,2022-06-04_08h11.49.687,task,2021.1.4,Win32,59.88382538,628b806c463b948bc644b84f,629af78be5018847b0106ebc,,,,,4,0,4,0,1,X V Q F H G B L J M P D K C T S W R N Z,,,,,,,,,,,,,,,,,,,,,,,,,,,,,,,,,,,,,,,,,,,,,,,,,,,,,,,,,,,,,,,,,,,,,,,,,,,,,,,,,,,,,,,,,,,,,
,,,,,,,,,,5ba4d6c929629d00014e6c28,33,Mężczyzna,2022-06-04_08h11.49.687,task,2021.1.4,Win32,59.88382538,628b806c463b948bc644b84f,629af78be5018847b0106ebc,,,,,,,,,,,mfjgf,"[""m"",""f"",""j"",""g"",""f""]","[1.435099999904594,2.519599999904642,3.478999999999985,5.095799999952305,5.547700000047655,6.991999999999962]",0,MFJMG,6,0,6,0,1,,,,,,,,,,,,,,,,,,,,,,,,,,,,,,,,,,,,,,,,,,,,,,,,,,,,,,,,,,,,,,,,,,,,,,,,,,,,,,,,,,,
,,,,,,,,,,5ba4d6c929629d00014e6c28,33,Mężczyzna,2022-06-04_08h11.49.687,task,2021.1.4,Win32,59.88382538,628b806c463b948bc644b84f,629af78be5018847b0106ebc,,,,,0,0,0,0,1,X V Q F H G B L J M P D K C T S W R N Z,,,,,,,,,,,,,,,,,,,,,,,,,,,,,,,,,,,,,,,,,,,,,,,,,,,,,,,,,,,,,,,,,,,,,,,,,,,,,,,,,,,,,,,,,,,,,
,,,,,,,,,,5ba4d6c929629d00014e6c28,33,Mężczyzna,2022-06-04_08h11.49.687,task,2021.1.4,Win32,59.88382538,628b806c463b948bc644b84f,629af78be5018847b0106ebc,,,,,1,0,1,0,1,X V Q F H G B L J M P D K C T S W R N Z,,,,,,,,,,,,,,,,,,,,,,,,,,,,,,,,,,,,,,,,,,,,,,,,,,,,,,,,,,,,,,,,,,,,,,,,,,,,,,,,,,,,,,,,,,,,,
,,,,,,,,,,5ba4d6c929629d00014e6c28,33,Mężczyzna,2022-06-04_08h11.49.687,task,2021.1.4,Win32,59.88382538,628b806c463b948bc644b84f,629af78be5018847b0106ebc,,,,,2,0,2,0,1,X V Q F H G B L J M P D K C T S W R N Z,,,,,,,,,,,,,,,,,,,,,,,,,,,,,,,,,,,,,,,,,,,,,,,,,,,,,,,,,,,,,,,,,,,,,,,,,,,,,,,,,,,,,,,,,,,,,
,,,,,,,,,,5ba4d6c929629d00014e6c28,33,Mężczyzna,2022-06-04_08h11.49.687,task,2021.1.4,Win32,59.88382538,628b806c463b948bc644b84f,629af78be5018847b0106ebc,,,,,3,0,3,0,1,X V Q F H G B L J M P D K C T S W R N Z,,,,,,,,,,,,,,,,,,,,,,,,,,,,,,,,,,,,,,,,,,,,,,,,,,,,,,,,,,,,,,,,,,,,,,,,,,,,,,,,,,,,,,,,,,,,,
,,,,,,,,,,5ba4d6c929629d00014e6c28,33,Mężczyzna,2022-06-04_08h11.49.687,task,2021.1.4,Win32,59.88382538,628b806c463b948bc644b84f,629af78be5018847b0106ebc,,,,,4,0,4,0,1,X V Q F H G B L J M P D K C T S W R N Z,,,,,,,,,,,,,,,,,,,,,,,,,,,,,,,,,,,,,,,,,,,,,,,,,,,,,,,,,,,,,,,,,,,,,,,,,,,,,,,,,,,,,,,,,,,,,
,,,,,,,,,,5ba4d6c929629d00014e6c28,33,Mężczyzna,2022-06-04_08h11.49.687,task,2021.1.4,Win32,59.88382538,628b806c463b948bc644b84f,629af78be5018847b0106ebc,,,,,,,,,,,ddrrg,"[""d"",""d"",""r"",""r"",""g""]","[1.4035000000000082,1.774499999999989,2.3650999999046576,2.551200000047686,3.2012999999523117,4.277299999952334]",1,DDRRG,7,0,7,0,1,,,,,,,,,,,,,,,,,,,,,,,,,,,,,,,,,,,,,,,,,,,,,,,,,,,,,,,,,,,,,,,,,,,,,,,,,,,,,,,,,,,
,,,,,,,,,,5ba4d6c929629d00014e6c28,33,Mężczyzna,2022-06-04_08h11.49.687,task,2021.1.4,Win32,59.88382538,628b806c463b948bc644b84f,629af78be5018847b0106ebc,,,,,0,0,0,0,1,X V Q F H G B L J M P D K C T S W R N Z,,,,,,,,,,,,,,,,,,,,,,,,,,,,,,,,,,,,,,,,,,,,,,,,,,,,,,,,,,,,,,,,,,,,,,,,,,,,,,,,,,,,,,,,,,,,,
,,,,,,,,,,5ba4d6c929629d00014e6c28,33,Mężczyzna,2022-06-04_08h11.49.687,task,2021.1.4,Win32,59.88382538,628b806c463b948bc644b84f,629af78be5018847b0106ebc,,,,,1,0,1,0,1,X V Q F H G B L J M P D K C T S W R N Z,,,,,,,,,,,,,,,,,,,,,,,,,,,,,,,,,,,,,,,,,,,,,,,,,,,,,,,,,,,,,,,,,,,,,,,,,,,,,,,,,,,,,,,,,,,,,
,,,,,,,,,,5ba4d6c929629d00014e6c28,33,Mężczyzna,2022-06-04_08h11.49.687,task,2021.1.4,Win32,59.88382538,628b806c463b948bc644b84f,629af78be5018847b0106ebc,,,,,2,0,2,0,1,X V Q F H G B L J M P D K C T S W R N Z,,,,,,,,,,,,,,,,,,,,,,,,,,,,,,,,,,,,,,,,,,,,,,,,,,,,,,,,,,,,,,,,,,,,,,,,,,,,,,,,,,,,,,,,,,,,,
,,,,,,,,,,5ba4d6c929629d00014e6c28,33,Mężczyzna,2022-06-04_08h11.49.687,task,2021.1.4,Win32,59.88382538,628b806c463b948bc644b84f,629af78be5018847b0106ebc,,,,,3,0,3,0,1,X V Q F H G B L J M P D K C T S W R N Z,,,,,,,,,,,,,,,,,,,,,,,,,,,,,,,,,,,,,,,,,,,,,,,,,,,,,,,,,,,,,,,,,,,,,,,,,,,,,,,,,,,,,,,,,,,,,
,,,,,,,,,,5ba4d6c929629d00014e6c28,33,Mężczyzna,2022-06-04_08h11.49.687,task,2021.1.4,Win32,59.88382538,628b806c463b948bc644b84f,629af78be5018847b0106ebc,,,,,4,0,4,0,1,X V Q F H G B L J M P D K C T S W R N Z,,,,,,,,,,,,,,,,,,,,,,,,,,,,,,,,,,,,,,,,,,,,,,,,,,,,,,,,,,,,,,,,,,,,,,,,,,,,,,,,,,,,,,,,,,,,,
,,,,,,,,,,5ba4d6c929629d00014e6c28,33,Mężczyzna,2022-06-04_08h11.49.687,task,2021.1.4,Win32,59.88382538,628b806c463b948bc644b84f,629af78be5018847b0106ebc,,,,,,,,,,,zjrqe,"[""z"",""j"",""r"",""q"",""e""]","[1.4195999999046762,1.8724000000953538,2.2797999999522744,3.0945999999046307,11.243599999904632,11.71820000004766]",0,ZRJQH,8,0,8,0,1,,,,,,,,,,,,,,,,,,,,,,,,,,,,,,,,,,,,,,,,,,,,,,,,,,,,,,,,,,,,,,,,,,,,,,,,,,,,,,,,,,,
,,,,,,,,,,5ba4d6c929629d00014e6c28,33,Mężczyzna,2022-06-04_08h11.49.687,task,2021.1.4,Win32,59.88382538,628b806c463b948bc644b84f,629af78be5018847b0106ebc,,,,,0,0,0,0,1,X V Q F H G B L J M P D K C T S W R N Z,,,,,,,,,,,,,,,,,,,,,,,,,,,,,,,,,,,,,,,,,,,,,,,,,,,,,,,,,,,,,,,,,,,,,,,,,,,,,,,,,,,,,,,,,,,,,
,,,,,,,,,,5ba4d6c929629d00014e6c28,33,Mężczyzna,2022-06-04_08h11.49.687,task,2021.1.4,Win32,59.88382538,628b806c463b948bc644b84f,629af78be5018847b0106ebc,,,,,1,0,1,0,1,X V Q F H G B L J M P D K C T S W R N Z,,,,,,,,,,,,,,,,,,,,,,,,,,,,,,,,,,,,,,,,,,,,,,,,,,,,,,,,,,,,,,,,,,,,,,,,,,,,,,,,,,,,,,,,,,,,,
,,,,,,,,,,5ba4d6c929629d00014e6c28,33,Mężczyzna,2022-06-04_08h11.49.687,task,2021.1.4,Win32,59.88382538,628b806c463b948bc644b84f,629af78be5018847b0106ebc,,,,,2,0,2,0,1,X V Q F H G B L J M P D K C T S W R N Z,,,,,,,,,,,,,,,,,,,,,,,,,,,,,,,,,,,,,,,,,,,,,,,,,,,,,,,,,,,,,,,,,,,,,,,,,,,,,,,,,,,,,,,,,,,,,
,,,,,,,,,,5ba4d6c929629d00014e6c28,33,Mężczyzna,2022-06-04_08h11.49.687,task,2021.1.4,Win32,59.88382538,628b806c463b948bc644b84f,629af78be5018847b0106ebc,,,,,3,0,3,0,1,X V Q F H G B L J M P D K C T S W R N Z,,,,,,,,,,,,,,,,,,,,,,,,,,,,,,,,,,,,,,,,,,,,,,,,,,,,,,,,,,,,,,,,,,,,,,,,,,,,,,,,,,,,,,,,,,,,,
,,,,,,,,,,5ba4d6c929629d00014e6c28,33,Mężczyzna,2022-06-04_08h11.49.687,task,2021.1.4,Win32,59.88382538,628b806c463b948bc644b84f,629af78be5018847b0106ebc,,,,,4,0,4,0,1,X V Q F H G B L J M P D K C T S W R N Z,,,,,,,,,,,,,,,,,,,,,,,,,,,,,,,,,,,,,,,,,,,,,,,,,,,,,,,,,,,,,,,,,,,,,,,,,,,,,,,,,,,,,,,,,,,,,
,,,,,,,,,,5ba4d6c929629d00014e6c28,33,Mężczyzna,2022-06-04_08h11.49.687,task,2021.1.4,Win32,59.88382538,628b806c463b948bc644b84f,629af78be5018847b0106ebc,,,,,,,,,,,tbkj,"[""t"",""b"",""k"",""j""]","[7.694200000047658,8.092400000095267,8.610800000190693,9.045200000047657,9.757999999999925]",0,TBKNJ,9,0,9,0,1,,,,,,,,,,,,,,,,,,,,,,,,,,,,,,,,,,,,,,,,,,,,,,,,,,,,,,,,,,,,,,,,,,,,,,,,,,,,,,,,,,,
,,,,,,,,,,5ba4d6c929629d00014e6c28,33,Mężczyzna,2022-06-04_08h11.49.687,task,2021.1.4,Win32,59.88382538,628b806c463b948bc644b84f,629af78be5018847b0106ebc,,,,,,,,,,,,,,,,,,,,,space,27.1764,5,"[""5""]",1,[4.096099999904595],[4.096099999904595],0,0,0,5,1,Practice,6,(4/2) + 3,5,,,,,,,,,,,,,,,,,,,,,,,,,,,,,,,,,,,,,,,,,,,,,,,,,,,,,,,,,,,,,,,,,,,
,,,,,,,,,,5ba4d6c929629d00014e6c28,33,Mężczyzna,2022-06-04_08h11.49.687,task,2021.1.4,Win32,59.88382538,628b806c463b948bc644b84f,629af78be5018847b0106ebc,,,,,,,,,,,,,,,,,,,,,,,2,"[""2""]",1,[3.447199999809186],"[4.096099999904595,3.447199999809186]",0,1,1,2,1,Practice,3,(4x4) - 14,2,,,,,,,,,,,,,,,,,,,,,,,,,,,,,,,,,,,,,,,,,,,,,,,,,,,,,,,,,,,,,,,,,,,
,,,,,,,,,,5ba4d6c929629d00014e6c28,33,Mężczyzna,2022-06-04_08h11.49.687,task,2021.1.4,Win32,59.88382538,628b806c463b948bc644b84f,629af78be5018847b0106ebc,,,,,,,,,,,,,,,,,,,,,,,6,"[""6""]",1,[2.9388999998569716],"[4.096099999904595,3.447199999809186,2.9388999998569716]",0,2,2,6,1,Practice,7,(25/5) + 1,6,,,,,,,,,,,,,,,,,,,,,,,,,,,,,,,,,,,,,,,,,,,,,,,,,,,,,,,,,,,,,,,,,,,
,,,,,,,,,,5ba4d6c929629d00014e6c28,33,Mężczyzna,2022-06-04_08h11.49.687,task,2021.1.4,Win32,59.88382538,628b806c463b948bc644b84f,629af78be5018847b0106ebc,,,,,,,,,,,,,,,,,,,,,,,9,"[""9""]",1,[3.6267999999522544],"[4.096099999904595,3.447199999809186,2.9388999998569716,3.6267999999522544]",0,3,3,9,1,Practice,10,(20/2) - 1,9,,,,,,,,,,,,,,,,,,,,,,,,,,,,,,,,,,,,,,,,,,,,,,,,,,,,,,,,,,,,,,,,,,,
,,,,,,,,,,5ba4d6c929629d00014e6c28,33,Mężczyzna,2022-06-04_08h11.49.687,task,2021.1.4,Win32,59.88382538,628b806c463b948bc644b84f,629af78be5018847b0106ebc,,,,,,,,,,,,,,,,,,,,,,,1,"[""1""]",0,[3.9872000000476646],"[4.096099999904595,3.447199999809186,2.9388999998569716,3.6267999999522544,3.9872000000476646]",0,4,4,4,1,Practice,5,(2x6) - 8,4,,,,,,,,,,,,,,,,,,,,,,,,,,,,,,,,,,,,,,,,,,,,,,,,,,,,,,,,,,,,,,,,,,,
,,,,,,,,,,5ba4d6c929629d00014e6c28,33,Mężczyzna,2022-06-04_08h11.49.687,task,2021.1.4,Win32,59.88382538,628b806c463b948bc644b84f,629af78be5018847b0106ebc,,,,,,,,,,,,,,,,,,,,,,,0,"[""0""]",1,[3.24249999999995],"[4.096099999904595,3.447199999809186,2.9388999998569716,3.6267999999522544,3.9872000000476646,3.24249999999995]",0,5,5,0,1,Practice,1,(3x3) -  9,0,,,,,,,,,,,,,,,,,,,,,,,,,,,,,,,,,,,,,,,,,,,,,,,,,,,,,,,,,,,,,,,,,,,
,,,,,,,,,,5ba4d6c929629d00014e6c28,33,Mężczyzna,2022-06-04_08h11.49.687,task,2021.1.4,Win32,59.88382538,628b806c463b948bc644b84f,629af78be5018847b0106ebc,,,,,,,,,,,,,,,,,,,,,,,3,"[""3""]",1,[2.915499999999952],"[4.096099999904595,3.447199999809186,2.9388999998569716,3.6267999999522544,3.9872000000476646,3.24249999999995,2.915499999999952]",0,6,6,3,1,Practice,4,(8/4) + 1,3,,,,,,,,,,,,,,,,,,,,,,,,,,,,,,,,,,,,,,,,,,,,,,,,,,,,,,,,,,,,,,,,,,,
,,,,,,,,,,5ba4d6c929629d00014e6c28,33,Mężczyzna,2022-06-04_08h11.49.687,task,2021.1.4,Win32,59.88382538,628b806c463b948bc644b84f,629af78be5018847b0106ebc,,,,,,,,,,,,,,,,,,,,,,,1,"[""1""]",1,[2.5175999999046326],"[4.096099999904595,3.447199999809186,2.9388999998569716,3.6267999999522544,3.9872000000476646,3.24249999999995,2.915499999999952,2.5175999999046326]",0,7,7,1,1,Practice,2,(4x4) - 15,1,,,,,,,,,,,,,,,,,,,,,,,,,,,,,,,,,,,,,,,,,,,,,,,,,,,,,,,,,,,,,,,,,,,
,,,,,,,,,,5ba4d6c929629d00014e6c28,33,Mężczyzna,2022-06-04_08h11.49.687,task,2021.1.4,Win32,59.88382538,628b806c463b948bc644b84f,629af78be5018847b0106ebc,,,,,,,,,,,,,,,,,,,,,,,7,"[""7""]",1,[2.7167000000476946],"[4.096099999904595,3.447199999809186,2.9388999998569716,3.6267999999522544,3.9872000000476646,3.24249999999995,2.915499999999952,2.5175999999046326,2.7167000000476946]",0,8,8,7,1,Practice,8,(5x5) - 18,7,,,,,,,,,,,,,,,,,,,,,,,,,,,,,,,,,,,,,,,,,,,,,,,,,,,,,,,,,,,,,,,,,,,
,,,,,,,,,,5ba4d6c929629d00014e6c28,33,Mężczyzna,2022-06-04_08h11.49.687,task,2021.1.4,Win32,59.88382538,628b806c463b948bc644b84f,629af78be5018847b0106ebc,,,,,,,,,,,,,,,,,,,,,,,8,"[""8""]",1,[2.876400000095373],"[4.096099999904595,3.447199999809186,2.9388999998569716,3.6267999999522544,3.9872000000476646,3.24249999999995,2.915499999999952,2.5175999999046326,2.7167000000476946,2.876400000095373]",0,9,9,8,1,Practice,9,(3x3) - 1,8,,,,,,,,,,,,,,,,,,,,,,,,,,,,,,,,,,,,,,,,,,,,,,,,,,,,,,,,,,,,,,,,,,,
,,,,,,,,,,5ba4d6c929629d00014e6c28,33,Mężczyzna,2022-06-04_08h11.49.687,task,2021.1.4,Win32,59.88382538,628b806c463b948bc644b84f,629af78be5018847b0106ebc,,,,,,,,,,,,,,,,,,,,,,,,,,,,,,,,,,,,,0.9,32.3649,2.15766,14.24625694,0.974551416,4.672002653,space,2.8733,0,0,0,0,1,,,,,,,,,,,,,,,,,,,,,,,,,,,,,,,,,,,,,,,,,,,,,,,,,,,,,,
,,,,,,,,,,5ba4d6c929629d00014e6c28,33,Mężczyzna,2022-06-04_08h11.49.687,task,2021.1.4,Win32,59.88382538,628b806c463b948bc644b84f,629af78be5018847b0106ebc,,,,,,,,,,,,,,,,,,,,,,,1,,,,,,,,,,Practice,2,(4x4) - 15,1,,,,,,,,,,,,,,space,32.0302,"[""1""]",1,[3.3010000000000446],1,0,0,0,1,1,,,,,,,,,,,,,,,,,,,,,,,,,,,,,,,,,,,,,,,,,,,
,,,,,,,,,,5ba4d6c929629d00014e6c28,33,Mężczyzna,2022-06-04_08h11.49.687,task,2021.1.4,Win32,59.88382538,628b806c463b948bc644b84f,629af78be5018847b0106ebc,,,,,,,,,,X V Q F H G B L J M P D K C T S W R N Z,,,,,,,,,,,,,,,,,,,,,,,,,,,,,,,,,,,,,,,,,,,,,,,,,,,0,0,0,0,1,,,,,,,,,,,,,,,,,,,,,,,,,,,,,,,,,,,,,,
,,,,,,,,,,5ba4d6c929629d00014e6c28,33,Mężczyzna,2022-06-04_08h11.49.687,task,2021.1.4,Win32,59.88382538,628b806c463b948bc644b84f,629af78be5018847b0106ebc,,,,,,,,,,,,,,,,,,,,,,,,,,,,,,,,,Practice,10,(20/2) - 1,9,,,,,,,,,,,,,,,,,0,,0,0,0,0,9,1,,,,,,,,,,,,,,,,,,,,,,,,,,,,,,,,,,,,,,,,,,,
,,,,,,,,,,5ba4d6c929629d00014e6c28,33,Mężczyzna,2022-06-04_08h11.49.687,task,2021.1.4,Win32,59.88382538,628b806c463b948bc644b84f,629af78be5018847b0106ebc,,,,,,,,,,,,,,,,,,,,,,,3,,,,,,,,,,Practice,4,(8/4) + 1,3,,,,,,,,,,,,,,,,"[""3""]",1,[2.738099999904648],1,0,1,1,3,1,,,,,,,,,,,,,,,,,,,,,,,,,,,,,,,,,,,,,,,,,,,
,,,,,,,,,,5ba4d6c929629d00014e6c28,33,Mężczyzna,2022-06-04_08h11.49.687,task,2021.1.4,Win32,59.88382538,628b806c463b948bc644b84f,629af78be5018847b0106ebc,,,,,,,,,,X V Q F H G B L J M P D K C T S W R N Z,,,,,,,,,,,,,,,,,,,,,,,,,,,,,,,,,,,,,,,,,,,,,,,,,,,1,0,1,0,1,,,,,,,,,,,,,,,,,,,,,,,,,,,,,,,,,,,,,,
,,,,,,,,,,5ba4d6c929629d00014e6c28,33,Mężczyzna,2022-06-04_08h11.49.687,task,2021.1.4,Win32,59.88382538,628b806c463b948bc644b84f,629af78be5018847b0106ebc,,,,,,,,,,,,,,,,,,,,,,,,,,,,,,,,,,,,,,,,,,,,,,,,,,,,,,,,,,,,,,,,,,zf,"[""z"",""f""]",0,"[4.371999999999957,4.885600000142972,5.816499999999905]",1,0,0,0,0,1,,,,,,,,,,,,,,,,,,,,,,,,,,,,
,,,,,,,,,,5ba4d6c929629d00014e6c28,33,Mężczyzna,2022-06-04_08h11.49.687,task,2021.1.4,Win32,59.88382538,628b806c463b948bc644b84f,629af78be5018847b0106ebc,,,,,,,,,,,,,,,,,,,,,,,9,,,,,,,,,,Practice,10,(20/2) - 1,9,,,,,,,,,,,,,,,,"[""9""]",1,[3.342899999856968],1,0,0,0,9,1,,,,,,,,,,,,,,,,,,,,,,,,,,,,,,,,,,,,,,,,,,,
,,,,,,,,,,5ba4d6c929629d00014e6c28,33,Mężczyzna,2022-06-04_08h11.49.687,task,2021.1.4,Win32,59.88382538,628b806c463b948bc644b84f,629af78be5018847b0106ebc,,,,,,,,,,X V Q F H G B L J M P D K C T S W R N Z,,,,,,,,,,,,,,,,,,,,,,,,,,,,,,,,,,,,,,,,,,,,,,,,,,,0,0,0,0,1,,,,,,,,,,,,,,,,,,,,,,,,,,,,,,,,,,,,,,
,,,,,,,,,,5ba4d6c929629d00014e6c28,33,Mężczyzna,2022-06-04_08h11.49.687,task,2021.1.4,Win32,59.88382538,628b806c463b948bc644b84f,629af78be5018847b0106ebc,,,,,,,,,,,,,,,,,,,,,,,1,,,,,,,,,,Practice,2,(4x4) - 15,1,,,,,,,,,,,,,,,,"[""1""]",1,[2.713799999952357],1,0,0,0,1,1,,,,,,,,,,,,,,,,,,,,,,,,,,,,,,,,,,,,,,,,,,,
,,,,,,,,,,5ba4d6c929629d00014e6c28,33,Mężczyzna,2022-06-04_08h11.49.687,task,2021.1.4,Win32,59.88382538,628b806c463b948bc644b84f,629af78be5018847b0106ebc,,,,,,,,,,X V Q F H G B L J M P D K C T S W R N Z,,,,,,,,,,,,,,,,,,,,,,,,,,,,,,,,,,,,,,,,,,,,,,,,,,,1,0,1,0,1,,,,,,,,,,,,,,,,,,,,,,,,,,,,,,,,,,,,,,
,,,,,,,,,,5ba4d6c929629d00014e6c28,33,Mężczyzna,2022-06-04_08h11.49.687,task,2021.1.4,Win32,59.88382538,628b806c463b948bc644b84f,629af78be5018847b0106ebc,,,,,,,,,,,,,,,,,,,,,,,,,,,,,,,,,,,,,,,,,,,,,,,,,,,,,,,,,,,,,,,,,,gs,"[""g"",""s""]",0,"[3.534999999999968,4.088499999999954,5.014100000143003]",1,1,0,1,0,1,,,,,,,,,,,,,,,,,,,,,,,,,,,,
,,,,,,,,,,5ba4d6c929629d00014e6c28,33,Mężczyzna,2022-06-04_08h11.49.687,task,2021.1.4,Win32,59.88382538,628b806c463b948bc644b84f,629af78be5018847b0106ebc,,,,,,,,,,,,,,,,,,,,,,,7,,,,,,,,,,Practice,8,(5x5) - 18,7,,,,,,,,,,,,,,,,"[""7""]",1,[2.73470000004761],1,0,0,0,7,1,,,,,,,,,,,,,,,,,,,,,,,,,,,,,,,,,,,,,,,,,,,
,,,,,,,,,,5ba4d6c929629d00014e6c28,33,Mężczyzna,2022-06-04_08h11.49.687,task,2021.1.4,Win32,59.88382538,628b806c463b948bc644b84f,629af78be5018847b0106ebc,,,,,,,,,,X V Q F H G B L J M P D K C T S W R N Z,,,,,,,,,,,,,,,,,,,,,,,,,,,,,,,,,,,,,,,,,,,,,,,,,,,0,0,0,0,1,,,,,,,,,,,,,,,,,,,,,,,,,,,,,,,,,,,,,,
,,,,,,,,,,5ba4d6c929629d00014e6c28,33,Mężczyzna,2022-06-04_08h11.49.687,task,2021.1.4,Win32,59.88382538,628b806c463b948bc644b84f,629af78be5018847b0106ebc,,,,,,,,,,,,,,,,,,,,,,,4,,,,,,,,,,Practice,5,(2x6) - 8,4,,,,,,,,,,,,,,,,"[""4""]",1,[3.7050999999046326],1,0,0,0,4,1,,,,,,,,,,,,,,,,,,,,,,,,,,,,,,,,,,,,,,,,,,,
,,,,,,,,,,5ba4d6c929629d00014e6c28,33,Mężczyzna,2022-06-04_08h11.49.687,task,2021.1.4,Win32,59.88382538,628b806c463b948bc644b84f,629af78be5018847b0106ebc,,,,,,,,,,X V Q F H G B L J M P D K C T S W R N Z,,,,,,,,,,,,,,,,,,,,,,,,,,,,,,,,,,,,,,,,,,,,,,,,,,,1,0,1,0,1,,,,,,,,,,,,,,,,,,,,,,,,,,,,,,,,,,,,,,
,,,,,,,,,,5ba4d6c929629d00014e6c28,33,Mężczyzna,2022-06-04_08h11.49.687,task,2021.1.4,Win32,59.88382538,628b806c463b948bc644b84f,629af78be5018847b0106ebc,,,,,,,,,,,,,,,,,,,,,,,,,,,,,,,,,,,,,,,,,,,,,,,,,,,,,,,,,,,,,,,,,,pr,"[""p"",""r""]",0,"[2.953200000047673,3.5944000000954475,4.549200000047676]",1,2,0,2,0,1,,,,,,,,,,,,,,,,,,,,,,,,,,,,
,,,,,,,,,,5ba4d6c929629d00014e6c28,33,Mężczyzna,2022-06-04_08h11.49.687,task,2021.1.4,Win32,59.88382538,628b806c463b948bc644b84f,629af78be5018847b0106ebc,,,,,,,,,,,,,,,,,,,,,,,5,,,,,,,,,,Task,36,(8/4) + 3,5,,,,,,,,,,,,,,,,,,,1,,,,,,,,,,,,,,,,,,,,,space,17.4281,"[""5""]",1,[4.596300000190695],0,0,0,35,1,,,,,,,,,,,,,,,,,,
,,,,,,,,,,5ba4d6c929629d00014e6c28,33,Mężczyzna,2022-06-04_08h11.49.687,task,2021.1.4,Win32,59.88382538,628b806c463b948bc644b84f,629af78be5018847b0106ebc,,,,,,,,,,X V Q F H G B L J M P D K C T S W R N Z,,,,,,,,,,,,,,,,,,,,,,,,,,,,,,,,,,,,,,,,,,,,,,,,,,,,,,,,,,,,,,,,,,,,,,,,,,,,0,0,0,0,1,,,,,,,,,,,,,
,,,,,,,,,,5ba4d6c929629d00014e6c28,33,Mężczyzna,2022-06-04_08h11.49.687,task,2021.1.4,Win32,59.88382538,628b806c463b948bc644b84f,629af78be5018847b0106ebc,,,,,,,,,,,,,,,,,,,,,,,6,,,,,,,,,,Task,13,(3x4) - 6,6,,,,,,,,,,,,,,,,,,,1,,,,,,,,,,,,,,,,,,,,,,,"[""6""]",1,[4.549200000047676],0,0,0,12,1,,,,,,,,,,,,,,,,,,
,,,,,,,,,,5ba4d6c929629d00014e6c28,33,Mężczyzna,2022-06-04_08h11.49.687,task,2021.1.4,Win32,59.88382538,628b806c463b948bc644b84f,629af78be5018847b0106ebc,,,,,,,,,,X V Q F H G B L J M P D K C T S W R N Z,,,,,,,,,,,,,,,,,,,,,,,,,,,,,,,,,,,,,,,,,,,,,,,,,,,,,,,,,,,,,,,,,,,,,,,,,,,,1,0,1,0,1,,,,,,,,,,,,,
,,,,,,,,,,5ba4d6c929629d00014e6c28,33,Mężczyzna,2022-06-04_08h11.49.687,task,2021.1.4,Win32,59.88382538,628b806c463b948bc644b84f,629af78be5018847b0106ebc,,,,,,,,,,,,,,,,,,,,,,,,,,,,,,,,,,,,,,,,,,,,,,,,,,,,,,,,,,,,,,,,,,,,,,,,,,,,,,,,,,,,,,,,,,,zn,"[""z"",""n""]",0,"[3.834900000095331,4.42940000009537,5.475700000047709]",1,ZN,0,0,0,0,1,,
,,,,,,,,,,5ba4d6c929629d00014e6c28,33,Mężczyzna,2022-06-04_08h11.49.687,task,2021.1.4,Win32,59.88382538,628b806c463b948bc644b84f,629af78be5018847b0106ebc,,,,,,,,,,,,,,,,,,,,,,,2,,,,,,,,,,Task,26,(2x9) - 16,2,,,,,,,,,,,,,,,,,,,1,,,,,,,,,,,,,,,,,,,,,,,"[""2""]",1,[3.7508999998568697],0,0,0,25,1,,,,,,,,,,,,,,,,,,
,,,,,,,,,,5ba4d6c929629d00014e6c28,33,Mężczyzna,2022-06-04_08h11.49.687,task,2021.1.4,Win32,59.88382538,628b806c463b948bc644b84f,629af78be5018847b0106ebc,,,,,,,,,,X V Q F H G B L J M P D K C T S W R N Z,,,,,,,,,,,,,,,,,,,,,,,,,,,,,,,,,,,,,,,,,,,,,,,,,,,,,,,,,,,,,,,,,,,,,,,,,,,,0,0,0,0,1,,,,,,,,,,,,,
,,,,,,,,,,5ba4d6c929629d00014e6c28,33,Mężczyzna,2022-06-04_08h11.49.687,task,2021.1.4,Win32,59.88382538,628b806c463b948bc644b84f,629af78be5018847b0106ebc,,,,,,,,,,,,,,,,,,,,,,,,,,,,,,,,,Task,38,(4x6) - 17,7,,,,,,,,,,,,,,,,,,,0,,,,,,,,,,,,,,,,,,,,,,,,0,,0,0,0,37,1,,,,,,,,,,,,,,,,,,
,,,,,,,,,,5ba4d6c929629d00014e6c28,33,Mężczyzna,2022-06-04_08h11.49.687,task,2021.1.4,Win32,59.88382538,628b806c463b948bc644b84f,629af78be5018847b0106ebc,,,,,,,,,,,,,,,,,,,,,,,2,,,,,,,,,,Task,19,(6/2) - 1,2,,,,,,,,,,,,,,,,,,,1,,,,,,,,,,,,,,,,,,,,,,,"[""2""]",1,[3.891899999856946],0,1,1,18,1,,,,,,,,,,,,,,,,,,
,,,,,,,,,,5ba4d6c929629d00014e6c28,33,Mężczyzna,2022-06-04_08h11.49.687,task,2021.1.4,Win32,59.88382538,628b806c463b948bc644b84f,629af78be5018847b0106ebc,,,,,,,,,,X V Q F H G B L J M P D K C T S W R N Z,,,,,,,,,,,,,,,,,,,,,,,,,,,,,,,,,,,,,,,,,,,,,,,,,,,,,,,,,,,,,,,,,,,,,,,,,,,,1,0,1,0,1,,,,,,,,,,,,,
,,,,,,,,,,5ba4d6c929629d00014e6c28,33,Mężczyzna,2022-06-04_08h11.49.687,task,2021.1.4,Win32,59.88382538,628b806c463b948bc644b84f,629af78be5018847b0106ebc,,,,,,,,,,,,,,,,,,,,,,,3,,,,,,,,,,Task,27,(3/3) + 2,3,,,,,,,,,,,,,,,,,,,1,,,,,,,,,,,,,,,,,,,,,,,"[""3""]",1,[2.8426000001430793],0,0,0,26,1,,,,,,,,,,,,,,,,,,
,,,,,,,,,,5ba4d6c929629d00014e6c28,33,Mężczyzna,2022-06-04_08h11.49.687,task,2021.1.4,Win32,59.88382538,628b806c463b948bc644b84f,629af78be5018847b0106ebc,,,,,,,,,,X V Q F H G B L J M P D K C T S W R N Z,,,,,,,,,,,,,,,,,,,,,,,,,,,,,,,,,,,,,,,,,,,,,,,,,,,,,,,,,,,,,,,,,,,,,,,,,,,,2,0,2,0,1,,,,,,,,,,,,,
,,,,,,,,,,5ba4d6c929629d00014e6c28,33,Mężczyzna,2022-06-04_08h11.49.687,task,2021.1.4,Win32,59.88382538,628b806c463b948bc644b84f,629af78be5018847b0106ebc,,,,,,,,,,,,,,,,,,,,,,,,,,,,,,,,,,,,,,,,,,,,,,,,,,,,,,,,,,,,,,,,,,,,,,,,,,,,,,,,,,,,,,,,,,,bw,"[""b"",""w""]",0,"[3.3259000000953165,4.337100000142982,5.7311000001429875]",0,GBW,1,0,1,0,1,,
,,,,,,,,,,5ba4d6c929629d00014e6c28,33,Mężczyzna,2022-06-04_08h11.49.687,task,2021.1.4,Win32,59.88382538,628b806c463b948bc644b84f,629af78be5018847b0106ebc,,,,,,,,,,,,,,,,,,,,,,,5,,,,,,,,,,Task,36,(8/4) + 3,5,,,,,,,,,,,,,,,,,,,1,,,,,,,,,,,,,,,,,,,,,,,"[""5""]",1,[2.916500000000042],0,0,0,35,1,,,,,,,,,,,,,,,,,,
,,,,,,,,,,5ba4d6c929629d00014e6c28,33,Mężczyzna,2022-06-04_08h11.49.687,task,2021.1.4,Win32,59.88382538,628b806c463b948bc644b84f,629af78be5018847b0106ebc,,,,,,,,,,X V Q F H G B L J M P D K C T S W R N Z,,,,,,,,,,,,,,,,,,,,,,,,,,,,,,,,,,,,,,,,,,,,,,,,,,,,,,,,,,,,,,,,,,,,,,,,,,,,0,0,0,0,1,,,,,,,,,,,,,
,,,,,,,,,,5ba4d6c929629d00014e6c28,33,Mężczyzna,2022-06-04_08h11.49.687,task,2021.1.4,Win32,59.88382538,628b806c463b948bc644b84f,629af78be5018847b0106ebc,,,,,,,,,,,,,,,,,,,,,,,8,,,,,,,,,,Task,15,(3x7) - 13,8,,,,,,,,,,,,,,,,,,,1,,,,,,,,,,,,,,,,,,,,,,,"[""8""]",1,[4.132300000190753],0,0,0,14,1,,,,,,,,,,,,,,,,,,
,,,,,,,,,,5ba4d6c929629d00014e6c28,33,Mężczyzna,2022-06-04_08h11.49.687,task,2021.1.4,Win32,59.88382538,628b806c463b948bc644b84f,629af78be5018847b0106ebc,,,,,,,,,,X V Q F H G B L J M P D K C T S W R N Z,,,,,,,,,,,,,,,,,,,,,,,,,,,,,,,,,,,,,,,,,,,,,,,,,,,,,,,,,,,,,,,,,,,,,,,,,,,,1,0,1,0,1,,,,,,,,,,,,,
,,,,,,,,,,5ba4d6c929629d00014e6c28,33,Mężczyzna,2022-06-04_08h11.49.687,task,2021.1.4,Win32,59.88382538,628b806c463b948bc644b84f,629af78be5018847b0106ebc,,,,,,,,,,,,,,,,,,,,,,,0,,,,,,,,,,Task,25,(10/5) - 2,0,,,,,,,,,,,,,,,,,,,1,,,,,,,,,,,,,,,,,,,,,,,"[""0""]",1,[3.8264000000953047],0,0,0,24,1,,,,,,,,,,,,,,,,,,
,,,,,,,,,,5ba4d6c929629d00014e6c28,33,Mężczyzna,2022-06-04_08h11.49.687,task,2021.1.4,Win32,59.88382538,628b806c463b948bc644b84f,629af78be5018847b0106ebc,,,,,,,,,,X V Q F H G B L J M P D K C T S W R N Z,,,,,,,,,,,,,,,,,,,,,,,,,,,,,,,,,,,,,,,,,,,,,,,,,,,,,,,,,,,,,,,,,,,,,,,,,,,,2,0,2,0,1,,,,,,,,,,,,,
,,,,,,,,,,5ba4d6c929629d00014e6c28,33,Mężczyzna,2022-06-04_08h11.49.687,task,2021.1.4,Win32,59.88382538,628b806c463b948bc644b84f,629af78be5018847b0106ebc,,,,,,,,,,,,,,,,,,,,,,,,,,,,,,,,,,,,,,,,,,,,,,,,,,,,,,,,,,,,,,,,,,,,,,,,,,,,,,,,,,,,,,,,,,,kqx,"[""k"",""q"",""x""]",0,"[3.4147999999522654,6.017099999904531,8.903499999999894,10.5285999999046]",1,KQX,2,0,2,0,1,,
,,,,,,,,,,5ba4d6c929629d00014e6c28,33,Mężczyzna,2022-06-04_08h11.49.687,task,2021.1.4,Win32,59.88382538,628b806c463b948bc644b84f,629af78be5018847b0106ebc,,,,,,,,,,,,,,,,,,,,,,,2,,,,,,,,,,Task,26,(2x9) - 16,2,,,,,,,,,,,,,,,,,,,1,,,,,,,,,,,,,,,,,,,,,,,"[""2""]",1,[4.091400000095291],0,0,0,25,1,,,,,,,,,,,,,,,,,,
,,,,,,,,,,5ba4d6c929629d00014e6c28,33,Mężczyzna,2022-06-04_08h11.49.687,task,2021.1.4,Win32,59.88382538,628b806c463b948bc644b84f,629af78be5018847b0106ebc,,,,,,,,,,X V Q F H G B L J M P D K C T S W R N Z,,,,,,,,,,,,,,,,,,,,,,,,,,,,,,,,,,,,,,,,,,,,,,,,,,,,,,,,,,,,,,,,,,,,,,,,,,,,0,0,0,0,1,,,,,,,,,,,,,
,,,,,,,,,,5ba4d6c929629d00014e6c28,33,Mężczyzna,2022-06-04_08h11.49.687,task,2021.1.4,Win32,59.88382538,628b806c463b948bc644b84f,629af78be5018847b0106ebc,,,,,,,,,,,,,,,,,,,,,,,0,,,,,,,,,,Task,33,(1/1) - 1,0,,,,,,,,,,,,,,,,,,,1,,,,,,,,,,,,,,,,,,,,,,,"[""0""]",1,[4.385999999999967],0,0,0,32,1,,,,,,,,,,,,,,,,,,
,,,,,,,,,,5ba4d6c929629d00014e6c28,33,Mężczyzna,2022-06-04_08h11.49.687,task,2021.1.4,Win32,59.88382538,628b806c463b948bc644b84f,629af78be5018847b0106ebc,,,,,,,,,,X V Q F H G B L J M P D K C T S W R N Z,,,,,,,,,,,,,,,,,,,,,,,,,,,,,,,,,,,,,,,,,,,,,,,,,,,,,,,,,,,,,,,,,,,,,,,,,,,,1,0,1,0,1,,,,,,,,,,,,,
,,,,,,,,,,5ba4d6c929629d00014e6c28,33,Mężczyzna,2022-06-04_08h11.49.687,task,2021.1.4,Win32,59.88382538,628b806c463b948bc644b84f,629af78be5018847b0106ebc,,,,,,,,,,,,,,,,,,,,,,,,,,,,,,,,,Task,7,(3x7) - 12,9,,,,,,,,,,,,,,,,,,,0,,,,,,,,,,,,,,,,,,,,,,,,0,,0,0,0,6,1,,,,,,,,,,,,,,,,,,
,,,,,,,,,,5ba4d6c929629d00014e6c28,33,Mężczyzna,2022-06-04_08h11.49.687,task,2021.1.4,Win32,59.88382538,628b806c463b948bc644b84f,629af78be5018847b0106ebc,,,,,,,,,,,,,,,,,,,,,,,,,,,,,,,,,Task,3,(2x3) - 3,3,,,,,,,,,,,,,,,,,,,0,,,,,,,,,,,,,,,,,,,,,,,,0,,0,1,1,2,1,,,,,,,,,,,,,,,,,,
,,,,,,,,,,5ba4d6c929629d00014e6c28,33,Mężczyzna,2022-06-04_08h11.49.687,task,2021.1.4,Win32,59.88382538,628b806c463b948bc644b84f,629af78be5018847b0106ebc,,,,,,,,,,,,,,,,,,,,,,,1,,,,,,,,,,Task,1,(12/6) - 1,1,,,,,,,,,,,,,,,,,,,1,,,,,,,,,,,,,,,,,,,,,,,"[""1""]",1,[2.9650999999046235],0,2,2,0,1,,,,,,,,,,,,,,,,,,
,,,,,,,,,,5ba4d6c929629d00014e6c28,33,Mężczyzna,2022-06-04_08h11.49.687,task,2021.1.4,Win32,59.88382538,628b806c463b948bc644b84f,629af78be5018847b0106ebc,,,,,,,,,,X V Q F H G B L J M P D K C T S W R N Z,,,,,,,,,,,,,,,,,,,,,,,,,,,,,,,,,,,,,,,,,,,,,,,,,,,,,,,,,,,,,,,,,,,,,,,,,,,,2,0,2,0,1,,,,,,,,,,,,,
,,,,,,,,,,5ba4d6c929629d00014e6c28,33,Mężczyzna,2022-06-04_08h11.49.687,task,2021.1.4,Win32,59.88382538,628b806c463b948bc644b84f,629af78be5018847b0106ebc,,,,,,,,,,,,,,,,,,,,,,,5,,,,,,,,,,Task,36,(8/4) + 3,5,,,,,,,,,,,,,,,,,,,1,,,,,,,,,,,,,,,,,,,,,,,"[""5""]",1,[2.463899999856949],0,0,0,35,1,,,,,,,,,,,,,,,,,,
,,,,,,,,,,5ba4d6c929629d00014e6c28,33,Mężczyzna,2022-06-04_08h11.49.687,task,2021.1.4,Win32,59.88382538,628b806c463b948bc644b84f,629af78be5018847b0106ebc,,,,,,,,,,X V Q F H G B L J M P D K C T S W R N Z,,,,,,,,,,,,,,,,,,,,,,,,,,,,,,,,,,,,,,,,,,,,,,,,,,,,,,,,,,,,,,,,,,,,,,,,,,,,3,0,3,0,1,,,,,,,,,,,,,
,,,,,,,,,,5ba4d6c929629d00014e6c28,33,Mężczyzna,2022-06-04_08h11.49.687,task,2021.1.4,Win32,59.88382538,628b806c463b948bc644b84f,629af78be5018847b0106ebc,,,,,,,,,,,,,,,,,,,,,,,,,,,,,,,,,,,,,,,,,,,,,,,,,,,,,,,,,,,,,,,,,,,,,,,,,,,,,,,,,,,,,,,,,,,hbg,"[""h"",""b"",""g""]",0,"[4.2859999999999445,6.570200000047635,7.426500000000033,9.263500000000022]",0,HKBG,3,0,3,0,1,,
,,,,,,,,,,5ba4d6c929629d00014e6c28,33,Mężczyzna,2022-06-04_08h11.49.687,task,2021.1.4,Win32,59.88382538,628b806c463b948bc644b84f,629af78be5018847b0106ebc,,,,,,,,,,,,,,,,,,,,,,,8,,,,,,,,,,Task,32,(8/2) + 4,8,,,,,,,,,,,,,,,,,,,1,,,,,,,,,,,,,,,,,,,,,,,"[""8""]",1,[2.477999999999952],0,0,0,31,1,,,,,,,,,,,,,,,,,,
,,,,,,,,,,5ba4d6c929629d00014e6c28,33,Mężczyzna,2022-06-04_08h11.49.687,task,2021.1.4,Win32,59.88382538,628b806c463b948bc644b84f,629af78be5018847b0106ebc,,,,,,,,,,X V Q F H G B L J M P D K C T S W R N Z,,,,,,,,,,,,,,,,,,,,,,,,,,,,,,,,,,,,,,,,,,,,,,,,,,,,,,,,,,,,,,,,,,,,,,,,,,,,0,0,0,0,1,,,,,,,,,,,,,
,,,,,,,,,,5ba4d6c929629d00014e6c28,33,Mężczyzna,2022-06-04_08h11.49.687,task,2021.1.4,Win32,59.88382538,628b806c463b948bc644b84f,629af78be5018847b0106ebc,,,,,,,,,,,,,,,,,,,,,,,1,,,,,,,,,,Task,18,(16/4) - 3,1,,,,,,,,,,,,,,,,,,,1,,,,,,,,,,,,,,,,,,,,,,,"[""1""]",1,[3.0774000000953947],0,0,0,17,1,,,,,,,,,,,,,,,,,,
,,,,,,,,,,5ba4d6c929629d00014e6c28,33,Mężczyzna,2022-06-04_08h11.49.687,task,2021.1.4,Win32,59.88382538,628b806c463b948bc644b84f,629af78be5018847b0106ebc,,,,,,,,,,X V Q F H G B L J M P D K C T S W R N Z,,,,,,,,,,,,,,,,,,,,,,,,,,,,,,,,,,,,,,,,,,,,,,,,,,,,,,,,,,,,,,,,,,,,,,,,,,,,1,0,1,0,1,,,,,,,,,,,,,
,,,,,,,,,,5ba4d6c929629d00014e6c28,33,Mężczyzna,2022-06-04_08h11.49.687,task,2021.1.4,Win32,59.88382538,628b806c463b948bc644b84f,629af78be5018847b0106ebc,,,,,,,,,,,,,,,,,,,,,,,,,,,,,,,,,Task,22,(3x1) + 2,5,,,,,,,,,,,,,,,,,,,0,,,,,,,,,,,,,,,,,,,,,,,,0,,0,0,0,21,1,,,,,,,,,,,,,,,,,,
,,,,,,,,,,5ba4d6c929629d00014e6c28,33,Mężczyzna,2022-06-04_08h11.49.687,task,2021.1.4,Win32,59.88382538,628b806c463b948bc644b84f,629af78be5018847b0106ebc,,,,,,,,,,,,,,,,,,,,,,,0,,,,,,,,,,Task,25,(10/5) - 2,0,,,,,,,,,,,,,,,,,,,1,,,,,,,,,,,,,,,,,,,,,,,"[""0""]",1,[2.27770000004773],0,1,1,24,1,,,,,,,,,,,,,,,,,,
,,,,,,,,,,5ba4d6c929629d00014e6c28,33,Mężczyzna,2022-06-04_08h11.49.687,task,2021.1.4,Win32,59.88382538,628b806c463b948bc644b84f,629af78be5018847b0106ebc,,,,,,,,,,X V Q F H G B L J M P D K C T S W R N Z,,,,,,,,,,,,,,,,,,,,,,,,,,,,,,,,,,,,,,,,,,,,,,,,,,,,,,,,,,,,,,,,,,,,,,,,,,,,2,0,2,0,1,,,,,,,,,,,,,
,,,,,,,,,,5ba4d6c929629d00014e6c28,33,Mężczyzna,2022-06-04_08h11.49.687,task,2021.1.4,Win32,59.88382538,628b806c463b948bc644b84f,629af78be5018847b0106ebc,,,,,,,,,,,,,,,,,,,,,,,4,,,,,,,,,,Task,21,(10/2) - 1,4,,,,,,,,,,,,,,,,,,,1,,,,,,,,,,,,,,,,,,,,,,,"[""4""]",1,[4.316500000000019],0,0,0,20,1,,,,,,,,,,,,,,,,,,
,,,,,,,,,,5ba4d6c929629d00014e6c28,33,Mężczyzna,2022-06-04_08h11.49.687,task,2021.1.4,Win32,59.88382538,628b806c463b948bc644b84f,629af78be5018847b0106ebc,,,,,,,,,,X V Q F H G B L J M P D K C T S W R N Z,,,,,,,,,,,,,,,,,,,,,,,,,,,,,,,,,,,,,,,,,,,,,,,,,,,,,,,,,,,,,,,,,,,,,,,,,,,,3,0,3,0,1,,,,,,,,,,,,,
,,,,,,,,,,5ba4d6c929629d00014e6c28,33,Mężczyzna,2022-06-04_08h11.49.687,task,2021.1.4,Win32,59.88382538,628b806c463b948bc644b84f,629af78be5018847b0106ebc,,,,,,,,,,,,,,,,,,,,,,,,,,,,,,,,,,,,,,,,,,,,,,,,,,,,,,,,,,,,,,,,,,,,,,,,,,,,,,,,,,,,,,,,,,,jlbr,"[""j"",""l"",""b"",""r""]",0,"[4.106800000190674,4.677000000000021,6.962499999999977,7.597300000190671,12.663600000142992]",1,JLBR,4,0,4,0,1,,
,,,,,,,,,,5ba4d6c929629d00014e6c28,33,Mężczyzna,2022-06-04_08h11.49.687,task,2021.1.4,Win32,59.88382538,628b806c463b948bc644b84f,629af78be5018847b0106ebc,,,,,,,,,,,,,,,,,,,,,,,4,,,,,,,,,,Task,21,(10/2) - 1,4,,,,,,,,,,,,,,,,,,,1,,,,,,,,,,,,,,,,,,,,,,,"[""4""]",1,[2.669899999856966],0,0,0,20,1,,,,,,,,,,,,,,,,,,
,,,,,,,,,,5ba4d6c929629d00014e6c28,33,Mężczyzna,2022-06-04_08h11.49.687,task,2021.1.4,Win32,59.88382538,628b806c463b948bc644b84f,629af78be5018847b0106ebc,,,,,,,,,,X V Q F H G B L J M P D K C T S W R N Z,,,,,,,,,,,,,,,,,,,,,,,,,,,,,,,,,,,,,,,,,,,,,,,,,,,,,,,,,,,,,,,,,,,,,,,,,,,,0,0,0,0,1,,,,,,,,,,,,,
,,,,,,,,,,5ba4d6c929629d00014e6c28,33,Mężczyzna,2022-06-04_08h11.49.687,task,2021.1.4,Win32,59.88382538,628b806c463b948bc644b84f,629af78be5018847b0106ebc,,,,,,,,,,,,,,,,,,,,,,,1,,,,,,,,,,Task,1,(12/6) - 1,1,,,,,,,,,,,,,,,,,,,1,,,,,,,,,,,,,,,,,,,,,,,"[""1""]",1,[4.263000000000034],0,0,0,0,1,,,,,,,,,,,,,,,,,,
,,,,,,,,,,5ba4d6c929629d00014e6c28,33,Mężczyzna,2022-06-04_08h11.49.687,task,2021.1.4,Win32,59.88382538,628b806c463b948bc644b84f,629af78be5018847b0106ebc,,,,,,,,,,X V Q F H G B L J M P D K C T S W R N Z,,,,,,,,,,,,,,,,,,,,,,,,,,,,,,,,,,,,,,,,,,,,,,,,,,,,,,,,,,,,,,,,,,,,,,,,,,,,1,0,1,0,1,,,,,,,,,,,,,
,,,,,,,,,,5ba4d6c929629d00014e6c28,33,Mężczyzna,2022-06-04_08h11.49.687,task,2021.1.4,Win32,59.88382538,628b806c463b948bc644b84f,629af78be5018847b0106ebc,,,,,,,,,,,,,,,,,,,,,,,7,,,,,,,,,,Task,6,(12/2) + 1,7,,,,,,,,,,,,,,,,,,,1,,,,,,,,,,,,,,,,,,,,,,,"[""7""]",1,[3.0440999999045744],0,0,0,5,1,,,,,,,,,,,,,,,,,,
,,,,,,,,,,5ba4d6c929629d00014e6c28,33,Mężczyzna,2022-06-04_08h11.49.687,task,2021.1.4,Win32,59.88382538,628b806c463b948bc644b84f,629af78be5018847b0106ebc,,,,,,,,,,X V Q F H G B L J M P D K C T S W R N Z,,,,,,,,,,,,,,,,,,,,,,,,,,,,,,,,,,,,,,,,,,,,,,,,,,,,,,,,,,,,,,,,,,,,,,,,,,,,2,0,2,0,1,,,,,,,,,,,,,
,,,,,,,,,,5ba4d6c929629d00014e6c28,33,Mężczyzna,2022-06-04_08h11.49.687,task,2021.1.4,Win32,59.88382538,628b806c463b948bc644b84f,629af78be5018847b0106ebc,,,,,,,,,,,,,,,,,,,,,,,1,,,,,,,,,,Task,18,(16/4) - 3,1,,,,,,,,,,,,,,,,,,,1,,,,,,,,,,,,,,,,,,,,,,,"[""1""]",1,[3.3216000001430075],0,0,0,17,1,,,,,,,,,,,,,,,,,,
,,,,,,,,,,5ba4d6c929629d00014e6c28,33,Mężczyzna,2022-06-04_08h11.49.687,task,2021.1.4,Win32,59.88382538,628b806c463b948bc644b84f,629af78be5018847b0106ebc,,,,,,,,,,X V Q F H G B L J M P D K C T S W R N Z,,,,,,,,,,,,,,,,,,,,,,,,,,,,,,,,,,,,,,,,,,,,,,,,,,,,,,,,,,,,,,,,,,,,,,,,,,,,3,0,3,0,1,,,,,,,,,,,,,
,,,,,,,,,,5ba4d6c929629d00014e6c28,33,Mężczyzna,2022-06-04_08h11.49.687,task,2021.1.4,Win32,59.88382538,628b806c463b948bc644b84f,629af78be5018847b0106ebc,,,,,,,,,,,,,,,,,,,,,,,6,,,,,,,,,,Task,30,(6/3) + 4 ,6,,,,,,,,,,,,,,,,,,,1,,,,,,,,,,,,,,,,,,,,,,,"[""6""]",1,[4.161100000143051],0,0,0,29,1,,,,,,,,,,,,,,,,,,
,,,,,,,,,,5ba4d6c929629d00014e6c28,33,Mężczyzna,2022-06-04_08h11.49.687,task,2021.1.4,Win32,59.88382538,628b806c463b948bc644b84f,629af78be5018847b0106ebc,,,,,,,,,,X V Q F H G B L J M P D K C T S W R N Z,,,,,,,,,,,,,,,,,,,,,,,,,,,,,,,,,,,,,,,,,,,,,,,,,,,,,,,,,,,,,,,,,,,,,,,,,,,,4,0,4,0,1,,,,,,,,,,,,,
,,,,,,,,,,5ba4d6c929629d00014e6c28,33,Mężczyzna,2022-06-04_08h11.49.687,task,2021.1.4,Win32,59.88382538,628b806c463b948bc644b84f,629af78be5018847b0106ebc,,,,,,,,,,,,,,,,,,,,,,,,,,,,,,,,,,,,,,,,,,,,,,,,,,,,,,,,,,,,,,,,,,,,,,,,,,,,,,,,,,,,,,,,,,,cdkhx,"[""c"",""d"",""k"",""h"",""x""]",0,"[4.19500000000005,6.036100000143051,7.636500000000069,9.46279999995238,10.0482000000477,11.087600000143084]",1,CDKHX,5,0,5,0,1,,
,,,,,,,,,,5ba4d6c929629d00014e6c28,33,Mężczyzna,2022-06-04_08h11.49.687,task,2021.1.4,Win32,59.88382538,628b806c463b948bc644b84f,629af78be5018847b0106ebc,,,,,,,,,,,,,,,,,,,,,,,,,,,,,,,,,Task,13,(3x4) - 6,6,,,,,,,,,,,,,,,,,,,0,,,,,,,,,,,,,,,,,,,,,,,,0,,0,0,0,12,1,,,,,,,,,,,,,,,,,,
,,,,,,,,,,5ba4d6c929629d00014e6c28,33,Mężczyzna,2022-06-04_08h11.49.687,task,2021.1.4,Win32,59.88382538,628b806c463b948bc644b84f,629af78be5018847b0106ebc,,,,,,,,,,,,,,,,,,,,,,,8,,,,,,,,,,Task,38,(4x6) - 17,7,,,,,,,,,,,,,,,,,,,0,,,,,,,,,,,,,,,,,,,,,,,"[""8""]",0,[4.502999999999929],0,1,1,37,1,,,,,,,,,,,,,,,,,,
,,,,,,,,,,5ba4d6c929629d00014e6c28,33,Mężczyzna,2022-06-04_08h11.49.687,task,2021.1.4,Win32,59.88382538,628b806c463b948bc644b84f,629af78be5018847b0106ebc,,,,,,,,,,,,,,,,,,,,,,,3,,,,,,,,,,Task,35,(1x2) + 1,3,,,,,,,,,,,,,,,,,,,1,,,,,,,,,,,,,,,,,,,,,,,"[""3""]",1,[2.820100000143043],0,2,2,34,1,,,,,,,,,,,,,,,,,,
,,,,,,,,,,5ba4d6c929629d00014e6c28,33,Mężczyzna,2022-06-04_08h11.49.687,task,2021.1.4,Win32,59.88382538,628b806c463b948bc644b84f,629af78be5018847b0106ebc,,,,,,,,,,X V Q F H G B L J M P D K C T S W R N Z,,,,,,,,,,,,,,,,,,,,,,,,,,,,,,,,,,,,,,,,,,,,,,,,,,,,,,,,,,,,,,,,,,,,,,,,,,,,0,0,0,0,1,,,,,,,,,,,,,
,,,,,,,,,,5ba4d6c929629d00014e6c28,33,Mężczyzna,2022-06-04_08h11.49.687,task,2021.1.4,Win32,59.88382538,628b806c463b948bc644b84f,629af78be5018847b0106ebc,,,,,,,,,,,,,,,,,,,,,,,0,,,,,,,,,,Task,25,(10/5) - 2,0,,,,,,,,,,,,,,,,,,,1,,,,,,,,,,,,,,,,,,,,,,,"[""0""]",1,[2.520699999809267],0,0,0,24,1,,,,,,,,,,,,,,,,,,
,,,,,,,,,,5ba4d6c929629d00014e6c28,33,Mężczyzna,2022-06-04_08h11.49.687,task,2021.1.4,Win32,59.88382538,628b806c463b948bc644b84f,629af78be5018847b0106ebc,,,,,,,,,,X V Q F H G B L J M P D K C T S W R N Z,,,,,,,,,,,,,,,,,,,,,,,,,,,,,,,,,,,,,,,,,,,,,,,,,,,,,,,,,,,,,,,,,,,,,,,,,,,,1,0,1,0,1,,,,,,,,,,,,,
,,,,,,,,,,5ba4d6c929629d00014e6c28,33,Mężczyzna,2022-06-04_08h11.49.687,task,2021.1.4,Win32,59.88382538,628b806c463b948bc644b84f,629af78be5018847b0106ebc,,,,,,,,,,,,,,,,,,,,,,,3,,,,,,,,,,Task,3,(2x3) - 3,3,,,,,,,,,,,,,,,,,,,1,,,,,,,,,,,,,,,,,,,,,,,"[""3""]",1,[3.349900000095431],0,0,0,2,1,,,,,,,,,,,,,,,,,,
,,,,,,,,,,5ba4d6c929629d00014e6c28,33,Mężczyzna,2022-06-04_08h11.49.687,task,2021.1.4,Win32,59.88382538,628b806c463b948bc644b84f,629af78be5018847b0106ebc,,,,,,,,,,X V Q F H G B L J M P D K C T S W R N Z,,,,,,,,,,,,,,,,,,,,,,,,,,,,,,,,,,,,,,,,,,,,,,,,,,,,,,,,,,,,,,,,,,,,,,,,,,,,2,0,2,0,1,,,,,,,,,,,,,
,,,,,,,,,,5ba4d6c929629d00014e6c28,33,Mężczyzna,2022-06-04_08h11.49.687,task,2021.1.4,Win32,59.88382538,628b806c463b948bc644b84f,629af78be5018847b0106ebc,,,,,,,,,,,,,,,,,,,,,,,8,,,,,,,,,,Task,23,(2x3) + 2,8,,,,,,,,,,,,,,,,,,,1,,,,,,,,,,,,,,,,,,,,,,,"[""8""]",1,[3.73629999995228],0,0,0,22,1,,,,,,,,,,,,,,,,,,
,,,,,,,,,,5ba4d6c929629d00014e6c28,33,Mężczyzna,2022-06-04_08h11.49.687,task,2021.1.4,Win32,59.88382538,628b806c463b948bc644b84f,629af78be5018847b0106ebc,,,,,,,,,,X V Q F H G B L J M P D K C T S W R N Z,,,,,,,,,,,,,,,,,,,,,,,,,,,,,,,,,,,,,,,,,,,,,,,,,,,,,,,,,,,,,,,,,,,,,,,,,,,,3,0,3,0,1,,,,,,,,,,,,,
,,,,,,,,,,5ba4d6c929629d00014e6c28,33,Mężczyzna,2022-06-04_08h11.49.687,task,2021.1.4,Win32,59.88382538,628b806c463b948bc644b84f,629af78be5018847b0106ebc,,,,,,,,,,,,,,,,,,,,,,,1,,,,,,,,,,Task,1,(12/6) - 1,1,,,,,,,,,,,,,,,,,,,1,,,,,,,,,,,,,,,,,,,,,,,"[""1""]",1,[3.383600000143133],0,0,0,0,1,,,,,,,,,,,,,,,,,,
,,,,,,,,,,5ba4d6c929629d00014e6c28,33,Mężczyzna,2022-06-04_08h11.49.687,task,2021.1.4,Win32,59.88382538,628b806c463b948bc644b84f,629af78be5018847b0106ebc,,,,,,,,,,X V Q F H G B L J M P D K C T S W R N Z,,,,,,,,,,,,,,,,,,,,,,,,,,,,,,,,,,,,,,,,,,,,,,,,,,,,,,,,,,,,,,,,,,,,,,,,,,,,4,0,4,0,1,,,,,,,,,,,,,
,,,,,,,,,,5ba4d6c929629d00014e6c28,33,Mężczyzna,2022-06-04_08h11.49.687,task,2021.1.4,Win32,59.88382538,628b806c463b948bc644b84f,629af78be5018847b0106ebc,,,,,,,,,,,,,,,,,,,,,,,1,,,,,,,,,,Task,9,(3x7) - 20,1,,,,,,,,,,,,,,,,,,,1,,,,,,,,,,,,,,,,,,,,,,,"[""1""]",1,[2.913799999952289],0,0,0,8,1,,,,,,,,,,,,,,,,,,
,,,,,,,,,,5ba4d6c929629d00014e6c28,33,Mężczyzna,2022-06-04_08h11.49.687,task,2021.1.4,Win32,59.88382538,628b806c463b948bc644b84f,629af78be5018847b0106ebc,,,,,,,,,,X V Q F H G B L J M P D K C T S W R N Z,,,,,,,,,,,,,,,,,,,,,,,,,,,,,,,,,,,,,,,,,,,,,,,,,,,,,,,,,,,,,,,,,,,,,,,,,,,,5,0,5,0,1,,,,,,,,,,,,,
,,,,,,,,,,5ba4d6c929629d00014e6c28,33,Mężczyzna,2022-06-04_08h11.49.687,task,2021.1.4,Win32,59.88382538,628b806c463b948bc644b84f,629af78be5018847b0106ebc,,,,,,,,,,,,,,,,,,,,,,,,,,,,,,,,,,,,,,,,,,,,,,,,,,,,,,,,,,,,,,,,,,,,,,,,,,,,,,,,,,,,,,,,,,,qzrcm,"[""q"",""z"",""r"",""c"",""m""]",0,"[15.360699999809299,16.729699999809327,22.981099999904586,23.880299999952513,24.44529999995234,28.577299999952402]",0,QGZFCM,6,0,6,0,1,,
,,,,,,,,,,5ba4d6c929629d00014e6c28,33,Mężczyzna,2022-06-04_08h11.49.687,task,2021.1.4,Win32,59.88382538,628b806c463b948bc644b84f,629af78be5018847b0106ebc,,,,,,,,,,,,,,,,,,,,,,,,,,,,,,,,,Task,5,(2x3) + 0,6,,,,,,,,,,,,,,,,,,,0,,,,,,,,,,,,,,,,,,,,,,,,0,,0,0,0,4,1,,,,,,,,,,,,,,,,,,
,,,,,,,,,,5ba4d6c929629d00014e6c28,33,Mężczyzna,2022-06-04_08h11.49.687,task,2021.1.4,Win32,59.88382538,628b806c463b948bc644b84f,629af78be5018847b0106ebc,,,,,,,,,,,,,,,,,,,,,,,9,,,,,,,,,,Task,16,(3x8) - 15,9,,,,,,,,,,,,,,,,,,,1,,,,,,,,,,,,,,,,,,,,,,,"[""9""]",1,[2.982700000047771],0,1,1,15,1,,,,,,,,,,,,,,,,,,
,,,,,,,,,,5ba4d6c929629d00014e6c28,33,Mężczyzna,2022-06-04_08h11.49.687,task,2021.1.4,Win32,59.88382538,628b806c463b948bc644b84f,629af78be5018847b0106ebc,,,,,,,,,,X V Q F H G B L J M P D K C T S W R N Z,,,,,,,,,,,,,,,,,,,,,,,,,,,,,,,,,,,,,,,,,,,,,,,,,,,,,,,,,,,,,,,,,,,,,,,,,,,,0,0,0,0,1,,,,,,,,,,,,,
,,,,,,,,,,5ba4d6c929629d00014e6c28,33,Mężczyzna,2022-06-04_08h11.49.687,task,2021.1.4,Win32,59.88382538,628b806c463b948bc644b84f,629af78be5018847b0106ebc,,,,,,,,,,,,,,,,,,,,,,,3,,,,,,,,,,Task,35,(1x2) + 1,3,,,,,,,,,,,,,,,,,,,1,,,,,,,,,,,,,,,,,,,,,,,"[""3""]",1,[3.365600000143104],0,0,0,34,1,,,,,,,,,,,,,,,,,,
,,,,,,,,,,5ba4d6c929629d00014e6c28,33,Mężczyzna,2022-06-04_08h11.49.687,task,2021.1.4,Win32,59.88382538,628b806c463b948bc644b84f,629af78be5018847b0106ebc,,,,,,,,,,X V Q F H G B L J M P D K C T S W R N Z,,,,,,,,,,,,,,,,,,,,,,,,,,,,,,,,,,,,,,,,,,,,,,,,,,,,,,,,,,,,,,,,,,,,,,,,,,,,1,0,1,0,1,,,,,,,,,,,,,
,,,,,,,,,,5ba4d6c929629d00014e6c28,33,Mężczyzna,2022-06-04_08h11.49.687,task,2021.1.4,Win32,59.88382538,628b806c463b948bc644b84f,629af78be5018847b0106ebc,,,,,,,,,,,,,,,,,,,,,,,6,,,,,,,,,,Task,37,(3/3) + 5,6,,,,,,,,,,,,,,,,,,,1,,,,,,,,,,,,,,,,,,,,,,,"[""6""]",1,[4.295200000047771],0,0,0,36,1,,,,,,,,,,,,,,,,,,
,,,,,,,,,,5ba4d6c929629d00014e6c28,33,Mężczyzna,2022-06-04_08h11.49.687,task,2021.1.4,Win32,59.88382538,628b806c463b948bc644b84f,629af78be5018847b0106ebc,,,,,,,,,,X V Q F H G B L J M P D K C T S W R N Z,,,,,,,,,,,,,,,,,,,,,,,,,,,,,,,,,,,,,,,,,,,,,,,,,,,,,,,,,,,,,,,,,,,,,,,,,,,,2,0,2,0,1,,,,,,,,,,,,,
,,,,,,,,,,5ba4d6c929629d00014e6c28,33,Mężczyzna,2022-06-04_08h11.49.687,task,2021.1.4,Win32,59.88382538,628b806c463b948bc644b84f,629af78be5018847b0106ebc,,,,,,,,,,,,,,,,,,,,,,,3,,,,,,,,,,Task,27,(3/3) + 2,3,,,,,,,,,,,,,,,,,,,1,,,,,,,,,,,,,,,,,,,,,,,"[""3""]",1,[3.3996999998091724],0,0,0,26,1,,,,,,,,,,,,,,,,,,
,,,,,,,,,,5ba4d6c929629d00014e6c28,33,Mężczyzna,2022-06-04_08h11.49.687,task,2021.1.4,Win32,59.88382538,628b806c463b948bc644b84f,629af78be5018847b0106ebc,,,,,,,,,,X V Q F H G B L J M P D K C T S W R N Z,,,,,,,,,,,,,,,,,,,,,,,,,,,,,,,,,,,,,,,,,,,,,,,,,,,,,,,,,,,,,,,,,,,,,,,,,,,,3,0,3,0,1,,,,,,,,,,,,,
,,,,,,,,,,5ba4d6c929629d00014e6c28,33,Mężczyzna,2022-06-04_08h11.49.687,task,2021.1.4,Win32,59.88382538,628b806c463b948bc644b84f,629af78be5018847b0106ebc,,,,,,,,,,,,,,,,,,,,,,,,,,,,,,,,,Task,21,(10/2) - 1,4,,,,,,,,,,,,,,,,,,,0,,,,,,,,,,,,,,,,,,,,,,,,0,,0,0,0,20,1,,,,,,,,,,,,,,,,,,
,,,,,,,,,,5ba4d6c929629d00014e6c28,33,Mężczyzna,2022-06-04_08h11.49.687,task,2021.1.4,Win32,59.88382538,628b806c463b948bc644b84f,629af78be5018847b0106ebc,,,,,,,,,,,,,,,,,,,,,,,1,,,,,,,,,,Task,9,(3x7) - 20,1,,,,,,,,,,,,,,,,,,,1,,,,,,,,,,,,,,,,,,,,,,,"[""1""]",1,[2.2671999998094634],0,1,1,8,1,,,,,,,,,,,,,,,,,,
,,,,,,,,,,5ba4d6c929629d00014e6c28,33,Mężczyzna,2022-06-04_08h11.49.687,task,2021.1.4,Win32,59.88382538,628b806c463b948bc644b84f,629af78be5018847b0106ebc,,,,,,,,,,X V Q F H G B L J M P D K C T S W R N Z,,,,,,,,,,,,,,,,,,,,,,,,,,,,,,,,,,,,,,,,,,,,,,,,,,,,,,,,,,,,,,,,,,,,,,,,,,,,4,0,4,0,1,,,,,,,,,,,,,
,,,,,,,,,,5ba4d6c929629d00014e6c28,33,Mężczyzna,2022-06-04_08h11.49.687,task,2021.1.4,Win32,59.88382538,628b806c463b948bc644b84f,629af78be5018847b0106ebc,,,,,,,,,,,,,,,,,,,,,,,6,,,,,,,,,,Task,5,(2x3) + 0,6,,,,,,,,,,,,,,,,,,,1,,,,,,,,,,,,,,,,,,,,,,,"[""6""]",1,[3.0913999998570034],0,0,0,4,1,,,,,,,,,,,,,,,,,,
,,,,,,,,,,5ba4d6c929629d00014e6c28,33,Mężczyzna,2022-06-04_08h11.49.687,task,2021.1.4,Win32,59.88382538,628b806c463b948bc644b84f,629af78be5018847b0106ebc,,,,,,,,,,X V Q F H G B L J M P D K C T S W R N Z,,,,,,,,,,,,,,,,,,,,,,,,,,,,,,,,,,,,,,,,,,,,,,,,,,,,,,,,,,,,,,,,,,,,,,,,,,,,5,0,5,0,1,,,,,,,,,,,,,
,,,,,,,,,,5ba4d6c929629d00014e6c28,33,Mężczyzna,2022-06-04_08h11.49.687,task,2021.1.4,Win32,59.88382538,628b806c463b948bc644b84f,629af78be5018847b0106ebc,,,,,,,,,,,,,,,,,,,,,,,,,,,,,,,,,,,,,,,,,,,,,,,,,,,,,,,,,,,,,,,,,,,,,,,,,,,,,,,,,,,,,,,,,,,jbhwhj,"[""j"",""b"",""h"",""w"",""h"",""j""]",0,"[5.596300000190695,6.427600000143002,15.142500000000155,17.335900000095307,20.991300000190677,21.885600000143086,23.409400000095502]",0,JBKWHJ,7,0,7,0,1,,
,,,,,,,,,,5ba4d6c929629d00014e6c28,33,Mężczyzna,2022-06-04_08h11.49.687,task,2021.1.4,Win32,59.88382538,628b806c463b948bc644b84f,629af78be5018847b0106ebc,,,,,,,,,,,,,,,,,,,,,,,,,,,,,,,,,,,,,,,,,,,,,,,,,,,,,,,,,,,,,,,,,,,,,,,,,,,,,,,,,,,,,,,,,,,,,,,,,,,,,,space,2.1308
