key_resp_15.keys,key_resp_15.rt,key_resp_16.keys,key_resp_16.rt,key_resp_4.keys,key_resp_4.rt,next_letter.thisRepN,next_letter.thisTrialN,next_letter.thisN,next_letter.thisIndex,next_letter.ran,letter,participant,Wiek*,Płeć,date,expName,psychopyVersion,OS,frameRate,study_id,session,simple_recall,key_resp_5.keys,key_resp_5.rt,simple_recall_corr,simple_recall_corrkeys,next_level.thisRepN,next_level.thisTrialN,next_level.thisN,next_level.thisIndex,next_level.ran,key_resp_2.keys,key_resp_2.rt,digit_answer,key_resp.keys,key_resp.corr,key_resp.rt,RT_list,next_equation.thisRepN,next_equation.thisTrialN,next_equation.thisN,next_equation.thisIndex,next_equation.ran,Task,Trial,Problem,Operation_answer,processing_score,sumRT,meanRT,sumdiff,sd,RT,key_resp_3.keys,key_resp_3.rt,repeat_practice.thisRepN,repeat_practice.thisTrialN,repeat_practice.thisN,repeat_practice.thisIndex,repeat_practice.ran,key_resp_6.keys,key_resp_6.rt,key_resp_11.keys,key_resp_11.corr,key_resp_11.rt,operation_correct,repeat_if_wrong_prac.thisRepN,repeat_if_wrong_prac.thisTrialN,repeat_if_wrong_prac.thisN,repeat_if_wrong_prac.thisIndex,repeat_if_wrong_prac.ran,span_size_prac.thisRepN,span_size_prac.thisTrialN,span_size_prac.thisN,span_size_prac.thisIndex,span_size_prac.ran,complex_recall_practice,key_resp_9.keys,key_resp_9.corr,key_resp_9.rt,complex_prac_corr,span_recall_prac.thisRepN,span_recall_prac.thisTrialN,span_recall_prac.thisN,span_recall_prac.thisIndex,span_recall_prac.ran,key_resp_10.keys,key_resp_10.rt,key_resp_7.keys,key_resp_7.corr,key_resp_7.rt,repeat_if_wrong.thisRepN,repeat_if_wrong.thisTrialN,repeat_if_wrong.thisN,repeat_if_wrong.thisIndex,repeat_if_wrong.ran,span_size.thisRepN,span_size.thisTrialN,span_size.thisN,span_size.thisIndex,span_size.ran,complex_recall,key_resp_8.keys,key_resp_8.corr,key_resp_8.rt,complex_recall_corr,complex_recall_corrkeys,span_recall.thisRepN,span_recall.thisTrialN,span_recall.thisN,span_recall.thisIndex,span_recall.ran,key_resp_13.keys,key_resp_13.corr,random_loop.thisRepN,random_loop.thisTrialN,random_loop.thisN,random_loop.thisIndex,random_loop.ran,key_resp_13.rt,key_resp_12.keys,key_resp_12.rt
space,20.2726,space,30.7533,space,8.0302,0,0,0,0,1,X V Q F H G B L J M P D K C T S W R N Z,5bb8b7cc56161d0001002faa,30,Mężczyzna,2022-06-11_09h28.04.477,task,2021.1.4,Win32,29.99940001,6299f149e92ead563fba08ef,62a443e9fd87df03ecfbaa57,,,,,,,,,,,,,,,,,,,,,,,,,,,,,,,,,,,,,,,,,,,,,,,,,,,,,,,,,,,,,,,,,,,,,,,,,,,,,,,,,,,,,,,,,,,,,,,,,,,,,
,,,,,,1,0,1,0,1,X V Q F H G B L J M P D K C T S W R N Z,5bb8b7cc56161d0001002faa,30,Mężczyzna,2022-06-11_09h28.04.477,task,2021.1.4,Win32,29.99940001,6299f149e92ead563fba08ef,62a443e9fd87df03ecfbaa57,,,,,,,,,,,,,,,,,,,,,,,,,,,,,,,,,,,,,,,,,,,,,,,,,,,,,,,,,,,,,,,,,,,,,,,,,,,,,,,,,,,,,,,,,,,,,,,,,,,,,
,,,,,,,,,,,,5bb8b7cc56161d0001002faa,30,Mężczyzna,2022-06-11_09h28.04.477,task,2021.1.4,Win32,29.99940001,6299f149e92ead563fba08ef,62a443e9fd87df03ecfbaa57,zb,"[""z"",""b""]","[2.2234000000059666,2.936599999994044,5.602099999994039]",1,ZB,0,0,0,0,1,,,,,,,,,,,,,,,,,,,,,,,,,,,,,,,,,,,,,,,,,,,,,,,,,,,,,,,,,,,,,,,,,,,,,,,,,,,,,,,,,,,,,,,,,,,
,,,,,,0,0,0,0,1,X V Q F H G B L J M P D K C T S W R N Z,5bb8b7cc56161d0001002faa,30,Mężczyzna,2022-06-11_09h28.04.477,task,2021.1.4,Win32,29.99940001,6299f149e92ead563fba08ef,62a443e9fd87df03ecfbaa57,,,,,,,,,,,,,,,,,,,,,,,,,,,,,,,,,,,,,,,,,,,,,,,,,,,,,,,,,,,,,,,,,,,,,,,,,,,,,,,,,,,,,,,,,,,,,,,,,,,,,
,,,,,,1,0,1,0,1,X V Q F H G B L J M P D K C T S W R N Z,5bb8b7cc56161d0001002faa,30,Mężczyzna,2022-06-11_09h28.04.477,task,2021.1.4,Win32,29.99940001,6299f149e92ead563fba08ef,62a443e9fd87df03ecfbaa57,,,,,,,,,,,,,,,,,,,,,,,,,,,,,,,,,,,,,,,,,,,,,,,,,,,,,,,,,,,,,,,,,,,,,,,,,,,,,,,,,,,,,,,,,,,,,,,,,,,,,
,,,,,,,,,,,,5bb8b7cc56161d0001002faa,30,Mężczyzna,2022-06-11_09h28.04.477,task,2021.1.4,Win32,29.99940001,6299f149e92ead563fba08ef,62a443e9fd87df03ecfbaa57,zq,"[""z"",""q""]","[1.8171000000238422,2.3356000000238453,4.113700000017886]",1,ZQ,1,0,1,0,1,,,,,,,,,,,,,,,,,,,,,,,,,,,,,,,,,,,,,,,,,,,,,,,,,,,,,,,,,,,,,,,,,,,,,,,,,,,,,,,,,,,,,,,,,,,
,,,,,,0,0,0,0,1,X V Q F H G B L J M P D K C T S W R N Z,5bb8b7cc56161d0001002faa,30,Mężczyzna,2022-06-11_09h28.04.477,task,2021.1.4,Win32,29.99940001,6299f149e92ead563fba08ef,62a443e9fd87df03ecfbaa57,,,,,,,,,,,,,,,,,,,,,,,,,,,,,,,,,,,,,,,,,,,,,,,,,,,,,,,,,,,,,,,,,,,,,,,,,,,,,,,,,,,,,,,,,,,,,,,,,,,,,
,,,,,,1,0,1,0,1,X V Q F H G B L J M P D K C T S W R N Z,5bb8b7cc56161d0001002faa,30,Mężczyzna,2022-06-11_09h28.04.477,task,2021.1.4,Win32,29.99940001,6299f149e92ead563fba08ef,62a443e9fd87df03ecfbaa57,,,,,,,,,,,,,,,,,,,,,,,,,,,,,,,,,,,,,,,,,,,,,,,,,,,,,,,,,,,,,,,,,,,,,,,,,,,,,,,,,,,,,,,,,,,,,,,,,,,,,
,,,,,,2,0,2,0,1,X V Q F H G B L J M P D K C T S W R N Z,5bb8b7cc56161d0001002faa,30,Mężczyzna,2022-06-11_09h28.04.477,task,2021.1.4,Win32,29.99940001,6299f149e92ead563fba08ef,62a443e9fd87df03ecfbaa57,,,,,,,,,,,,,,,,,,,,,,,,,,,,,,,,,,,,,,,,,,,,,,,,,,,,,,,,,,,,,,,,,,,,,,,,,,,,,,,,,,,,,,,,,,,,,,,,,,,,,
,,,,,,,,,,,,5bb8b7cc56161d0001002faa,30,Mężczyzna,2022-06-11_09h28.04.477,task,2021.1.4,Win32,29.99940001,6299f149e92ead563fba08ef,62a443e9fd87df03ecfbaa57,spz,"[""s"",""p"",""z""]","[1.646700000017887,2.6626000000238434,3.3517000000178854,4.265900000005956]",1,SPZ,2,0,2,0,1,,,,,,,,,,,,,,,,,,,,,,,,,,,,,,,,,,,,,,,,,,,,,,,,,,,,,,,,,,,,,,,,,,,,,,,,,,,,,,,,,,,,,,,,,,,
,,,,,,0,0,0,0,1,X V Q F H G B L J M P D K C T S W R N Z,5bb8b7cc56161d0001002faa,30,Mężczyzna,2022-06-11_09h28.04.477,task,2021.1.4,Win32,29.99940001,6299f149e92ead563fba08ef,62a443e9fd87df03ecfbaa57,,,,,,,,,,,,,,,,,,,,,,,,,,,,,,,,,,,,,,,,,,,,,,,,,,,,,,,,,,,,,,,,,,,,,,,,,,,,,,,,,,,,,,,,,,,,,,,,,,,,,
,,,,,,1,0,1,0,1,X V Q F H G B L J M P D K C T S W R N Z,5bb8b7cc56161d0001002faa,30,Mężczyzna,2022-06-11_09h28.04.477,task,2021.1.4,Win32,29.99940001,6299f149e92ead563fba08ef,62a443e9fd87df03ecfbaa57,,,,,,,,,,,,,,,,,,,,,,,,,,,,,,,,,,,,,,,,,,,,,,,,,,,,,,,,,,,,,,,,,,,,,,,,,,,,,,,,,,,,,,,,,,,,,,,,,,,,,
,,,,,,2,0,2,0,1,X V Q F H G B L J M P D K C T S W R N Z,5bb8b7cc56161d0001002faa,30,Mężczyzna,2022-06-11_09h28.04.477,task,2021.1.4,Win32,29.99940001,6299f149e92ead563fba08ef,62a443e9fd87df03ecfbaa57,,,,,,,,,,,,,,,,,,,,,,,,,,,,,,,,,,,,,,,,,,,,,,,,,,,,,,,,,,,,,,,,,,,,,,,,,,,,,,,,,,,,,,,,,,,,,,,,,,,,,
,,,,,,,,,,,,5bb8b7cc56161d0001002faa,30,Mężczyzna,2022-06-11_09h28.04.477,task,2021.1.4,Win32,29.99940001,6299f149e92ead563fba08ef,62a443e9fd87df03ecfbaa57,cpp,"[""c"",""p"",""p""]","[1.5245000000000033,2.294900000005967,2.4350000000000023,2.9257000000178834]",1,CPP,3,0,3,0,1,,,,,,,,,,,,,,,,,,,,,,,,,,,,,,,,,,,,,,,,,,,,,,,,,,,,,,,,,,,,,,,,,,,,,,,,,,,,,,,,,,,,,,,,,,,
,,,,,,0,0,0,0,1,X V Q F H G B L J M P D K C T S W R N Z,5bb8b7cc56161d0001002faa,30,Mężczyzna,2022-06-11_09h28.04.477,task,2021.1.4,Win32,29.99940001,6299f149e92ead563fba08ef,62a443e9fd87df03ecfbaa57,,,,,,,,,,,,,,,,,,,,,,,,,,,,,,,,,,,,,,,,,,,,,,,,,,,,,,,,,,,,,,,,,,,,,,,,,,,,,,,,,,,,,,,,,,,,,,,,,,,,,
,,,,,,1,0,1,0,1,X V Q F H G B L J M P D K C T S W R N Z,5bb8b7cc56161d0001002faa,30,Mężczyzna,2022-06-11_09h28.04.477,task,2021.1.4,Win32,29.99940001,6299f149e92ead563fba08ef,62a443e9fd87df03ecfbaa57,,,,,,,,,,,,,,,,,,,,,,,,,,,,,,,,,,,,,,,,,,,,,,,,,,,,,,,,,,,,,,,,,,,,,,,,,,,,,,,,,,,,,,,,,,,,,,,,,,,,,
,,,,,,2,0,2,0,1,X V Q F H G B L J M P D K C T S W R N Z,5bb8b7cc56161d0001002faa,30,Mężczyzna,2022-06-11_09h28.04.477,task,2021.1.4,Win32,29.99940001,6299f149e92ead563fba08ef,62a443e9fd87df03ecfbaa57,,,,,,,,,,,,,,,,,,,,,,,,,,,,,,,,,,,,,,,,,,,,,,,,,,,,,,,,,,,,,,,,,,,,,,,,,,,,,,,,,,,,,,,,,,,,,,,,,,,,,
,,,,,,3,0,3,0,1,X V Q F H G B L J M P D K C T S W R N Z,5bb8b7cc56161d0001002faa,30,Mężczyzna,2022-06-11_09h28.04.477,task,2021.1.4,Win32,29.99940001,6299f149e92ead563fba08ef,62a443e9fd87df03ecfbaa57,,,,,,,,,,,,,,,,,,,,,,,,,,,,,,,,,,,,,,,,,,,,,,,,,,,,,,,,,,,,,,,,,,,,,,,,,,,,,,,,,,,,,,,,,,,,,,,,,,,,,
,,,,,,,,,,,,5bb8b7cc56161d0001002faa,30,Mężczyzna,2022-06-11_09h28.04.477,task,2021.1.4,Win32,29.99940001,6299f149e92ead563fba08ef,62a443e9fd87df03ecfbaa57,xfrp,"[""x"",""f"",""r"",""p""]","[0.92349999999999,2.1722999999821155,2.60179999998212,3.284699999988078,4.207599999994031]",1,XFRP,4,0,4,0,1,,,,,,,,,,,,,,,,,,,,,,,,,,,,,,,,,,,,,,,,,,,,,,,,,,,,,,,,,,,,,,,,,,,,,,,,,,,,,,,,,,,,,,,,,,,
,,,,,,0,0,0,0,1,X V Q F H G B L J M P D K C T S W R N Z,5bb8b7cc56161d0001002faa,30,Mężczyzna,2022-06-11_09h28.04.477,task,2021.1.4,Win32,29.99940001,6299f149e92ead563fba08ef,62a443e9fd87df03ecfbaa57,,,,,,,,,,,,,,,,,,,,,,,,,,,,,,,,,,,,,,,,,,,,,,,,,,,,,,,,,,,,,,,,,,,,,,,,,,,,,,,,,,,,,,,,,,,,,,,,,,,,,
,,,,,,1,0,1,0,1,X V Q F H G B L J M P D K C T S W R N Z,5bb8b7cc56161d0001002faa,30,Mężczyzna,2022-06-11_09h28.04.477,task,2021.1.4,Win32,29.99940001,6299f149e92ead563fba08ef,62a443e9fd87df03ecfbaa57,,,,,,,,,,,,,,,,,,,,,,,,,,,,,,,,,,,,,,,,,,,,,,,,,,,,,,,,,,,,,,,,,,,,,,,,,,,,,,,,,,,,,,,,,,,,,,,,,,,,,
,,,,,,2,0,2,0,1,X V Q F H G B L J M P D K C T S W R N Z,5bb8b7cc56161d0001002faa,30,Mężczyzna,2022-06-11_09h28.04.477,task,2021.1.4,Win32,29.99940001,6299f149e92ead563fba08ef,62a443e9fd87df03ecfbaa57,,,,,,,,,,,,,,,,,,,,,,,,,,,,,,,,,,,,,,,,,,,,,,,,,,,,,,,,,,,,,,,,,,,,,,,,,,,,,,,,,,,,,,,,,,,,,,,,,,,,,
,,,,,,3,0,3,0,1,X V Q F H G B L J M P D K C T S W R N Z,5bb8b7cc56161d0001002faa,30,Mężczyzna,2022-06-11_09h28.04.477,task,2021.1.4,Win32,29.99940001,6299f149e92ead563fba08ef,62a443e9fd87df03ecfbaa57,,,,,,,,,,,,,,,,,,,,,,,,,,,,,,,,,,,,,,,,,,,,,,,,,,,,,,,,,,,,,,,,,,,,,,,,,,,,,,,,,,,,,,,,,,,,,,,,,,,,,
,,,,,,,,,,,,5bb8b7cc56161d0001002faa,30,Mężczyzna,2022-06-11_09h28.04.477,task,2021.1.4,Win32,29.99940001,6299f149e92ead563fba08ef,62a443e9fd87df03ecfbaa57,wmkd,"[""w"",""m"",""k"",""d""]","[1.1146000000238558,1.6855000000000047,2.0501000000238463,2.6193000000119326,3.5532000000178954]",1,WMKD,5,0,5,0,1,,,,,,,,,,,,,,,,,,,,,,,,,,,,,,,,,,,,,,,,,,,,,,,,,,,,,,,,,,,,,,,,,,,,,,,,,,,,,,,,,,,,,,,,,,,
,,,,,,0,0,0,0,1,X V Q F H G B L J M P D K C T S W R N Z,5bb8b7cc56161d0001002faa,30,Mężczyzna,2022-06-11_09h28.04.477,task,2021.1.4,Win32,29.99940001,6299f149e92ead563fba08ef,62a443e9fd87df03ecfbaa57,,,,,,,,,,,,,,,,,,,,,,,,,,,,,,,,,,,,,,,,,,,,,,,,,,,,,,,,,,,,,,,,,,,,,,,,,,,,,,,,,,,,,,,,,,,,,,,,,,,,,
,,,,,,1,0,1,0,1,X V Q F H G B L J M P D K C T S W R N Z,5bb8b7cc56161d0001002faa,30,Mężczyzna,2022-06-11_09h28.04.477,task,2021.1.4,Win32,29.99940001,6299f149e92ead563fba08ef,62a443e9fd87df03ecfbaa57,,,,,,,,,,,,,,,,,,,,,,,,,,,,,,,,,,,,,,,,,,,,,,,,,,,,,,,,,,,,,,,,,,,,,,,,,,,,,,,,,,,,,,,,,,,,,,,,,,,,,
,,,,,,2,0,2,0,1,X V Q F H G B L J M P D K C T S W R N Z,5bb8b7cc56161d0001002faa,30,Mężczyzna,2022-06-11_09h28.04.477,task,2021.1.4,Win32,29.99940001,6299f149e92ead563fba08ef,62a443e9fd87df03ecfbaa57,,,,,,,,,,,,,,,,,,,,,,,,,,,,,,,,,,,,,,,,,,,,,,,,,,,,,,,,,,,,,,,,,,,,,,,,,,,,,,,,,,,,,,,,,,,,,,,,,,,,,
,,,,,,3,0,3,0,1,X V Q F H G B L J M P D K C T S W R N Z,5bb8b7cc56161d0001002faa,30,Mężczyzna,2022-06-11_09h28.04.477,task,2021.1.4,Win32,29.99940001,6299f149e92ead563fba08ef,62a443e9fd87df03ecfbaa57,,,,,,,,,,,,,,,,,,,,,,,,,,,,,,,,,,,,,,,,,,,,,,,,,,,,,,,,,,,,,,,,,,,,,,,,,,,,,,,,,,,,,,,,,,,,,,,,,,,,,
,,,,,,4,0,4,0,1,X V Q F H G B L J M P D K C T S W R N Z,5bb8b7cc56161d0001002faa,30,Mężczyzna,2022-06-11_09h28.04.477,task,2021.1.4,Win32,29.99940001,6299f149e92ead563fba08ef,62a443e9fd87df03ecfbaa57,,,,,,,,,,,,,,,,,,,,,,,,,,,,,,,,,,,,,,,,,,,,,,,,,,,,,,,,,,,,,,,,,,,,,,,,,,,,,,,,,,,,,,,,,,,,,,,,,,,,,
,,,,,,,,,,,,5bb8b7cc56161d0001002faa,30,Mężczyzna,2022-06-11_09h28.04.477,task,2021.1.4,Win32,29.99940001,6299f149e92ead563fba08ef,62a443e9fd87df03ecfbaa57,fxhhd,"[""f"",""x"",""h"",""h"",""d""]","[1.051599999994039,1.794599999994034,2.6696999999880404,2.8821999999880745,3.696599999994021,5.033499999999947]",1,FXHHD,6,0,6,0,1,,,,,,,,,,,,,,,,,,,,,,,,,,,,,,,,,,,,,,,,,,,,,,,,,,,,,,,,,,,,,,,,,,,,,,,,,,,,,,,,,,,,,,,,,,,
,,,,,,0,0,0,0,1,X V Q F H G B L J M P D K C T S W R N Z,5bb8b7cc56161d0001002faa,30,Mężczyzna,2022-06-11_09h28.04.477,task,2021.1.4,Win32,29.99940001,6299f149e92ead563fba08ef,62a443e9fd87df03ecfbaa57,,,,,,,,,,,,,,,,,,,,,,,,,,,,,,,,,,,,,,,,,,,,,,,,,,,,,,,,,,,,,,,,,,,,,,,,,,,,,,,,,,,,,,,,,,,,,,,,,,,,,
,,,,,,1,0,1,0,1,X V Q F H G B L J M P D K C T S W R N Z,5bb8b7cc56161d0001002faa,30,Mężczyzna,2022-06-11_09h28.04.477,task,2021.1.4,Win32,29.99940001,6299f149e92ead563fba08ef,62a443e9fd87df03ecfbaa57,,,,,,,,,,,,,,,,,,,,,,,,,,,,,,,,,,,,,,,,,,,,,,,,,,,,,,,,,,,,,,,,,,,,,,,,,,,,,,,,,,,,,,,,,,,,,,,,,,,,,
,,,,,,2,0,2,0,1,X V Q F H G B L J M P D K C T S W R N Z,5bb8b7cc56161d0001002faa,30,Mężczyzna,2022-06-11_09h28.04.477,task,2021.1.4,Win32,29.99940001,6299f149e92ead563fba08ef,62a443e9fd87df03ecfbaa57,,,,,,,,,,,,,,,,,,,,,,,,,,,,,,,,,,,,,,,,,,,,,,,,,,,,,,,,,,,,,,,,,,,,,,,,,,,,,,,,,,,,,,,,,,,,,,,,,,,,,
,,,,,,3,0,3,0,1,X V Q F H G B L J M P D K C T S W R N Z,5bb8b7cc56161d0001002faa,30,Mężczyzna,2022-06-11_09h28.04.477,task,2021.1.4,Win32,29.99940001,6299f149e92ead563fba08ef,62a443e9fd87df03ecfbaa57,,,,,,,,,,,,,,,,,,,,,,,,,,,,,,,,,,,,,,,,,,,,,,,,,,,,,,,,,,,,,,,,,,,,,,,,,,,,,,,,,,,,,,,,,,,,,,,,,,,,,
,,,,,,4,0,4,0,1,X V Q F H G B L J M P D K C T S W R N Z,5bb8b7cc56161d0001002faa,30,Mężczyzna,2022-06-11_09h28.04.477,task,2021.1.4,Win32,29.99940001,6299f149e92ead563fba08ef,62a443e9fd87df03ecfbaa57,,,,,,,,,,,,,,,,,,,,,,,,,,,,,,,,,,,,,,,,,,,,,,,,,,,,,,,,,,,,,,,,,,,,,,,,,,,,,,,,,,,,,,,,,,,,,,,,,,,,,
,,,,,,,,,,,,5bb8b7cc56161d0001002faa,30,Mężczyzna,2022-06-11_09h28.04.477,task,2021.1.4,Win32,29.99940001,6299f149e92ead563fba08ef,62a443e9fd87df03ecfbaa57,jjzzs,"[""j"",""j"",""z"",""z"",""s""]","[1.5984000000059382,1.7349000000059505,2.3275999999940495,2.480400000005943,2.813900000005958,3.9194000000059646]",1,JJZZS,7,0,7,0,1,,,,,,,,,,,,,,,,,,,,,,,,,,,,,,,,,,,,,,,,,,,,,,,,,,,,,,,,,,,,,,,,,,,,,,,,,,,,,,,,,,,,,,,,,,,
,,,,,,0,0,0,0,1,X V Q F H G B L J M P D K C T S W R N Z,5bb8b7cc56161d0001002faa,30,Mężczyzna,2022-06-11_09h28.04.477,task,2021.1.4,Win32,29.99940001,6299f149e92ead563fba08ef,62a443e9fd87df03ecfbaa57,,,,,,,,,,,,,,,,,,,,,,,,,,,,,,,,,,,,,,,,,,,,,,,,,,,,,,,,,,,,,,,,,,,,,,,,,,,,,,,,,,,,,,,,,,,,,,,,,,,,,
,,,,,,1,0,1,0,1,X V Q F H G B L J M P D K C T S W R N Z,5bb8b7cc56161d0001002faa,30,Mężczyzna,2022-06-11_09h28.04.477,task,2021.1.4,Win32,29.99940001,6299f149e92ead563fba08ef,62a443e9fd87df03ecfbaa57,,,,,,,,,,,,,,,,,,,,,,,,,,,,,,,,,,,,,,,,,,,,,,,,,,,,,,,,,,,,,,,,,,,,,,,,,,,,,,,,,,,,,,,,,,,,,,,,,,,,,
,,,,,,2,0,2,0,1,X V Q F H G B L J M P D K C T S W R N Z,5bb8b7cc56161d0001002faa,30,Mężczyzna,2022-06-11_09h28.04.477,task,2021.1.4,Win32,29.99940001,6299f149e92ead563fba08ef,62a443e9fd87df03ecfbaa57,,,,,,,,,,,,,,,,,,,,,,,,,,,,,,,,,,,,,,,,,,,,,,,,,,,,,,,,,,,,,,,,,,,,,,,,,,,,,,,,,,,,,,,,,,,,,,,,,,,,,
,,,,,,3,0,3,0,1,X V Q F H G B L J M P D K C T S W R N Z,5bb8b7cc56161d0001002faa,30,Mężczyzna,2022-06-11_09h28.04.477,task,2021.1.4,Win32,29.99940001,6299f149e92ead563fba08ef,62a443e9fd87df03ecfbaa57,,,,,,,,,,,,,,,,,,,,,,,,,,,,,,,,,,,,,,,,,,,,,,,,,,,,,,,,,,,,,,,,,,,,,,,,,,,,,,,,,,,,,,,,,,,,,,,,,,,,,
,,,,,,4,0,4,0,1,X V Q F H G B L J M P D K C T S W R N Z,5bb8b7cc56161d0001002faa,30,Mężczyzna,2022-06-11_09h28.04.477,task,2021.1.4,Win32,29.99940001,6299f149e92ead563fba08ef,62a443e9fd87df03ecfbaa57,,,,,,,,,,,,,,,,,,,,,,,,,,,,,,,,,,,,,,,,,,,,,,,,,,,,,,,,,,,,,,,,,,,,,,,,,,,,,,,,,,,,,,,,,,,,,,,,,,,,,
,,,,,,5,0,5,0,1,X V Q F H G B L J M P D K C T S W R N Z,5bb8b7cc56161d0001002faa,30,Mężczyzna,2022-06-11_09h28.04.477,task,2021.1.4,Win32,29.99940001,6299f149e92ead563fba08ef,62a443e9fd87df03ecfbaa57,,,,,,,,,,,,,,,,,,,,,,,,,,,,,,,,,,,,,,,,,,,,,,,,,,,,,,,,,,,,,,,,,,,,,,,,,,,,,,,,,,,,,,,,,,,,,,,,,,,,,
,,,,,,,,,,,,5bb8b7cc56161d0001002faa,30,Mężczyzna,2022-06-11_09h28.04.477,task,2021.1.4,Win32,29.99940001,6299f149e92ead563fba08ef,62a443e9fd87df03ecfbaa57,fxvql,"[""f"",""x"",""v"",""q"",""l""]","[0.7222000000178355,1.899499999999989,2.604499999999973,4.068100000023833,5.387999999999977,6.107400000005953]",0,FXVQXL,8,0,8,0,1,,,,,,,,,,,,,,,,,,,,,,,,,,,,,,,,,,,,,,,,,,,,,,,,,,,,,,,,,,,,,,,,,,,,,,,,,,,,,,,,,,,,,,,,,,,
,,,,,,0,0,0,0,1,X V Q F H G B L J M P D K C T S W R N Z,5bb8b7cc56161d0001002faa,30,Mężczyzna,2022-06-11_09h28.04.477,task,2021.1.4,Win32,29.99940001,6299f149e92ead563fba08ef,62a443e9fd87df03ecfbaa57,,,,,,,,,,,,,,,,,,,,,,,,,,,,,,,,,,,,,,,,,,,,,,,,,,,,,,,,,,,,,,,,,,,,,,,,,,,,,,,,,,,,,,,,,,,,,,,,,,,,,
,,,,,,1,0,1,0,1,X V Q F H G B L J M P D K C T S W R N Z,5bb8b7cc56161d0001002faa,30,Mężczyzna,2022-06-11_09h28.04.477,task,2021.1.4,Win32,29.99940001,6299f149e92ead563fba08ef,62a443e9fd87df03ecfbaa57,,,,,,,,,,,,,,,,,,,,,,,,,,,,,,,,,,,,,,,,,,,,,,,,,,,,,,,,,,,,,,,,,,,,,,,,,,,,,,,,,,,,,,,,,,,,,,,,,,,,,
,,,,,,2,0,2,0,1,X V Q F H G B L J M P D K C T S W R N Z,5bb8b7cc56161d0001002faa,30,Mężczyzna,2022-06-11_09h28.04.477,task,2021.1.4,Win32,29.99940001,6299f149e92ead563fba08ef,62a443e9fd87df03ecfbaa57,,,,,,,,,,,,,,,,,,,,,,,,,,,,,,,,,,,,,,,,,,,,,,,,,,,,,,,,,,,,,,,,,,,,,,,,,,,,,,,,,,,,,,,,,,,,,,,,,,,,,
,,,,,,3,0,3,0,1,X V Q F H G B L J M P D K C T S W R N Z,5bb8b7cc56161d0001002faa,30,Mężczyzna,2022-06-11_09h28.04.477,task,2021.1.4,Win32,29.99940001,6299f149e92ead563fba08ef,62a443e9fd87df03ecfbaa57,,,,,,,,,,,,,,,,,,,,,,,,,,,,,,,,,,,,,,,,,,,,,,,,,,,,,,,,,,,,,,,,,,,,,,,,,,,,,,,,,,,,,,,,,,,,,,,,,,,,,
,,,,,,4,0,4,0,1,X V Q F H G B L J M P D K C T S W R N Z,5bb8b7cc56161d0001002faa,30,Mężczyzna,2022-06-11_09h28.04.477,task,2021.1.4,Win32,29.99940001,6299f149e92ead563fba08ef,62a443e9fd87df03ecfbaa57,,,,,,,,,,,,,,,,,,,,,,,,,,,,,,,,,,,,,,,,,,,,,,,,,,,,,,,,,,,,,,,,,,,,,,,,,,,,,,,,,,,,,,,,,,,,,,,,,,,,,
,,,,,,5,0,5,0,1,X V Q F H G B L J M P D K C T S W R N Z,5bb8b7cc56161d0001002faa,30,Mężczyzna,2022-06-11_09h28.04.477,task,2021.1.4,Win32,29.99940001,6299f149e92ead563fba08ef,62a443e9fd87df03ecfbaa57,,,,,,,,,,,,,,,,,,,,,,,,,,,,,,,,,,,,,,,,,,,,,,,,,,,,,,,,,,,,,,,,,,,,,,,,,,,,,,,,,,,,,,,,,,,,,,,,,,,,,
,,,,,,,,,,,,5bb8b7cc56161d0001002faa,30,Mężczyzna,2022-06-11_09h28.04.477,task,2021.1.4,Win32,29.99940001,6299f149e92ead563fba08ef,62a443e9fd87df03ecfbaa57,wxnwk,"[""w"",""x"",""n"",""w"",""k""]","[1.2309999999999945,1.7000999999940518,4.934800000011933,5.663999999999987,6.452400000005923,7.281099999994012]",0,WXDNWK,9,0,9,0,1,,,,,,,,,,,,,,,,,,,,,,,,,,,,,,,,,,,,,,,,,,,,,,,,,,,,,,,,,,,,,,,,,,,,,,,,,,,,,,,,,,,,,,,,,,,
,,,,,,0,0,0,0,1,X V Q F H G B L J M P D K C T S W R N Z,5bb8b7cc56161d0001002faa,30,Mężczyzna,2022-06-11_09h28.04.477,task,2021.1.4,Win32,29.99940001,6299f149e92ead563fba08ef,62a443e9fd87df03ecfbaa57,,,,,,,,,,,,,,,,,,,,,,,,,,,,,,,,,,,,,,,,,,,,,,,,,,,,,,,,,,,,,,,,,,,,,,,,,,,,,,,,,,,,,,,,,,,,,,,,,,,,,
,,,,,,1,0,1,0,1,X V Q F H G B L J M P D K C T S W R N Z,5bb8b7cc56161d0001002faa,30,Mężczyzna,2022-06-11_09h28.04.477,task,2021.1.4,Win32,29.99940001,6299f149e92ead563fba08ef,62a443e9fd87df03ecfbaa57,,,,,,,,,,,,,,,,,,,,,,,,,,,,,,,,,,,,,,,,,,,,,,,,,,,,,,,,,,,,,,,,,,,,,,,,,,,,,,,,,,,,,,,,,,,,,,,,,,,,,
,,,,,,2,0,2,0,1,X V Q F H G B L J M P D K C T S W R N Z,5bb8b7cc56161d0001002faa,30,Mężczyzna,2022-06-11_09h28.04.477,task,2021.1.4,Win32,29.99940001,6299f149e92ead563fba08ef,62a443e9fd87df03ecfbaa57,,,,,,,,,,,,,,,,,,,,,,,,,,,,,,,,,,,,,,,,,,,,,,,,,,,,,,,,,,,,,,,,,,,,,,,,,,,,,,,,,,,,,,,,,,,,,,,,,,,,,
,,,,,,3,0,3,0,1,X V Q F H G B L J M P D K C T S W R N Z,5bb8b7cc56161d0001002faa,30,Mężczyzna,2022-06-11_09h28.04.477,task,2021.1.4,Win32,29.99940001,6299f149e92ead563fba08ef,62a443e9fd87df03ecfbaa57,,,,,,,,,,,,,,,,,,,,,,,,,,,,,,,,,,,,,,,,,,,,,,,,,,,,,,,,,,,,,,,,,,,,,,,,,,,,,,,,,,,,,,,,,,,,,,,,,,,,,
,,,,,,4,0,4,0,1,X V Q F H G B L J M P D K C T S W R N Z,5bb8b7cc56161d0001002faa,30,Mężczyzna,2022-06-11_09h28.04.477,task,2021.1.4,Win32,29.99940001,6299f149e92ead563fba08ef,62a443e9fd87df03ecfbaa57,,,,,,,,,,,,,,,,,,,,,,,,,,,,,,,,,,,,,,,,,,,,,,,,,,,,,,,,,,,,,,,,,,,,,,,,,,,,,,,,,,,,,,,,,,,,,,,,,,,,,
,,,,,,5,0,5,0,1,X V Q F H G B L J M P D K C T S W R N Z,5bb8b7cc56161d0001002faa,30,Mężczyzna,2022-06-11_09h28.04.477,task,2021.1.4,Win32,29.99940001,6299f149e92ead563fba08ef,62a443e9fd87df03ecfbaa57,,,,,,,,,,,,,,,,,,,,,,,,,,,,,,,,,,,,,,,,,,,,,,,,,,,,,,,,,,,,,,,,,,,,,,,,,,,,,,,,,,,,,,,,,,,,,,,,,,,,,
,,,,,,,,,,,,5bb8b7cc56161d0001002faa,30,Mężczyzna,2022-06-11_09h28.04.477,task,2021.1.4,Win32,29.99940001,6299f149e92ead563fba08ef,62a443e9fd87df03ecfbaa57,nhwkph,"[""n"",""h"",""w"",""k"",""p"",""h""]","[1.2760999999940168,1.580799999982105,2.116099999993992,2.852299999982108,6.270799999982103,6.6544999999999845,8.409199999988061]",0,NHWKPV,10,0,10,0,1,,,,,,,,,,,,,,,,,,,,,,,,,,,,,,,,,,,,,,,,,,,,,,,,,,,,,,,,,,,,,,,,,,,,,,,,,,,,,,,,,,,,,,,,,,,
,,,,,,,,,,,,5bb8b7cc56161d0001002faa,30,Mężczyzna,2022-06-11_09h28.04.477,task,2021.1.4,Win32,29.99940001,6299f149e92ead563fba08ef,62a443e9fd87df03ecfbaa57,,,,,,,,,,,space,27.7897,7,"[""7""]",1,[9.373399999976186],[9.373399999976186],0,0,0,7,1,Practice,8,(5x5) - 18,7,,,,,,,,,,,,,,,,,,,,,,,,,,,,,,,,,,,,,,,,,,,,,,,,,,,,,,,,,,,,,,,,,,,,,,,,,,,
,,,,,,,,,,,,5bb8b7cc56161d0001002faa,30,Mężczyzna,2022-06-11_09h28.04.477,task,2021.1.4,Win32,29.99940001,6299f149e92ead563fba08ef,62a443e9fd87df03ecfbaa57,,,,,,,,,,,,,9,"[""9""]",1,[2.83869999998808],"[9.373399999976186,2.83869999998808]",0,1,1,9,1,Practice,10,(20/2) - 1,9,,,,,,,,,,,,,,,,,,,,,,,,,,,,,,,,,,,,,,,,,,,,,,,,,,,,,,,,,,,,,,,,,,,,,,,,,,,
,,,,,,,,,,,,5bb8b7cc56161d0001002faa,30,Mężczyzna,2022-06-11_09h28.04.477,task,2021.1.4,Win32,29.99940001,6299f149e92ead563fba08ef,62a443e9fd87df03ecfbaa57,,,,,,,,,,,,,1,"[""1""]",1,[2.4241999999880477],"[9.373399999976186,2.83869999998808,2.4241999999880477]",0,2,2,1,1,Practice,2,(4x4) - 15,1,,,,,,,,,,,,,,,,,,,,,,,,,,,,,,,,,,,,,,,,,,,,,,,,,,,,,,,,,,,,,,,,,,,,,,,,,,,
,,,,,,,,,,,,5bb8b7cc56161d0001002faa,30,Mężczyzna,2022-06-11_09h28.04.477,task,2021.1.4,Win32,29.99940001,6299f149e92ead563fba08ef,62a443e9fd87df03ecfbaa57,,,,,,,,,,,,,3,"[""3""]",1,[2.604900000005955],"[9.373399999976186,2.83869999998808,2.4241999999880477,2.604900000005955]",0,3,3,3,1,Practice,4,(8/4) + 1,3,,,,,,,,,,,,,,,,,,,,,,,,,,,,,,,,,,,,,,,,,,,,,,,,,,,,,,,,,,,,,,,,,,,,,,,,,,,
,,,,,,,,,,,,5bb8b7cc56161d0001002faa,30,Mężczyzna,2022-06-11_09h28.04.477,task,2021.1.4,Win32,29.99940001,6299f149e92ead563fba08ef,62a443e9fd87df03ecfbaa57,,,,,,,,,,,,,5,"[""5""]",1,[3.5352000000178805],"[9.373399999976186,2.83869999998808,2.4241999999880477,2.604900000005955,3.5352000000178805]",0,4,4,5,1,Practice,6,(4/2) + 3,5,,,,,,,,,,,,,,,,,,,,,,,,,,,,,,,,,,,,,,,,,,,,,,,,,,,,,,,,,,,,,,,,,,,,,,,,,,,
,,,,,,,,,,,,5bb8b7cc56161d0001002faa,30,Mężczyzna,2022-06-11_09h28.04.477,task,2021.1.4,Win32,29.99940001,6299f149e92ead563fba08ef,62a443e9fd87df03ecfbaa57,,,,,,,,,,,,,2,"[""2""]",1,[3.0460999999939986],"[9.373399999976186,2.83869999998808,2.4241999999880477,2.604900000005955,3.5352000000178805,3.0460999999939986]",0,5,5,2,1,Practice,3,(4x4) - 14,2,,,,,,,,,,,,,,,,,,,,,,,,,,,,,,,,,,,,,,,,,,,,,,,,,,,,,,,,,,,,,,,,,,,,,,,,,,,
,,,,,,,,,,,,5bb8b7cc56161d0001002faa,30,Mężczyzna,2022-06-11_09h28.04.477,task,2021.1.4,Win32,29.99940001,6299f149e92ead563fba08ef,62a443e9fd87df03ecfbaa57,,,,,,,,,,,,,6,"[""6""]",1,[2.7895999999940386],"[9.373399999976186,2.83869999998808,2.4241999999880477,2.604900000005955,3.5352000000178805,3.0460999999939986,2.7895999999940386]",0,6,6,6,1,Practice,7,(25/5) + 1,6,,,,,,,,,,,,,,,,,,,,,,,,,,,,,,,,,,,,,,,,,,,,,,,,,,,,,,,,,,,,,,,,,,,,,,,,,,,
,,,,,,,,,,,,5bb8b7cc56161d0001002faa,30,Mężczyzna,2022-06-11_09h28.04.477,task,2021.1.4,Win32,29.99940001,6299f149e92ead563fba08ef,62a443e9fd87df03ecfbaa57,,,,,,,,,,,,,0,"[""0""]",1,[2.583099999994033],"[9.373399999976186,2.83869999998808,2.4241999999880477,2.604900000005955,3.5352000000178805,3.0460999999939986,2.7895999999940386,2.583099999994033]",0,7,7,0,1,Practice,1,(3x3) -  9,0,,,,,,,,,,,,,,,,,,,,,,,,,,,,,,,,,,,,,,,,,,,,,,,,,,,,,,,,,,,,,,,,,,,,,,,,,,,
,,,,,,,,,,,,5bb8b7cc56161d0001002faa,30,Mężczyzna,2022-06-11_09h28.04.477,task,2021.1.4,Win32,29.99940001,6299f149e92ead563fba08ef,62a443e9fd87df03ecfbaa57,,,,,,,,,,,,,8,"[""8""]",1,[2.5790000000000077],"[9.373399999976186,2.83869999998808,2.4241999999880477,2.604900000005955,3.5352000000178805,3.0460999999939986,2.7895999999940386,2.583099999994033,2.5790000000000077]",0,8,8,8,1,Practice,9,(3x3) - 1,8,,,,,,,,,,,,,,,,,,,,,,,,,,,,,,,,,,,,,,,,,,,,,,,,,,,,,,,,,,,,,,,,,,,,,,,,,,,
,,,,,,,,,,,,5bb8b7cc56161d0001002faa,30,Mężczyzna,2022-06-11_09h28.04.477,task,2021.1.4,Win32,29.99940001,6299f149e92ead563fba08ef,62a443e9fd87df03ecfbaa57,,,,,,,,,,,,,4,"[""4""]",1,[2.3515999999939936],"[9.373399999976186,2.83869999998808,2.4241999999880477,2.604900000005955,3.5352000000178805,3.0460999999939986,2.7895999999940386,2.583099999994033,2.5790000000000077,2.3515999999939936]",0,9,9,4,1,Practice,5,(2x6) - 8,4,,,,,,,,,,,,,,,,,,,,,,,,,,,,,,,,,,,,,,,,,,,,,,,,,,,,,,,,,,,,,,,,,,,,,,,,,,,
,,,,,,,,,,,,5bb8b7cc56161d0001002faa,30,Mężczyzna,2022-06-11_09h28.04.477,task,2021.1.4,Win32,29.99940001,6299f149e92ead563fba08ef,62a443e9fd87df03ecfbaa57,,,,,,,,,,,,,,,,,,,,,,,,,,,1,34.1258,2.275053333,53.47564309,1.888132112,7.146434182,space,2.8962,0,0,0,0,1,,,,,,,,,,,,,,,,,,,,,,,,,,,,,,,,,,,,,,,,,,,,,,,,,,,,,,,,,,,,,,
,,,,,,,,,,,,5bb8b7cc56161d0001002faa,30,Mężczyzna,2022-06-11_09h28.04.477,task,2021.1.4,Win32,29.99940001,6299f149e92ead563fba08ef,62a443e9fd87df03ecfbaa57,,,,,,,,,,,,,9,,,,,,,,,,Practice,10,(20/2) - 1,9,,,,,,,,,,,,,,space,17.2046,"[""9""]",1,[2.819500000000005],1,0,0,0,9,1,,,,,,,,,,,,,,,,,,,,,,,,,,,,,,,,,,,,,,,,,,,,,,,,,,,
,,,,,,,,,,,X V Q F H G B L J M P D K C T S W R N Z,5bb8b7cc56161d0001002faa,30,Mężczyzna,2022-06-11_09h28.04.477,task,2021.1.4,Win32,29.99940001,6299f149e92ead563fba08ef,62a443e9fd87df03ecfbaa57,,,,,,,,,,,,,,,,,,,,,,,,,,,,,,,,,,,,,,,,,,,,,,,,,,,0,0,0,0,1,,,,,,,,,,,,,,,,,,,,,,,,,,,,,,,,,,,,,,,,,,,,,,
,,,,,,,,,,,,5bb8b7cc56161d0001002faa,30,Mężczyzna,2022-06-11_09h28.04.477,task,2021.1.4,Win32,29.99940001,6299f149e92ead563fba08ef,62a443e9fd87df03ecfbaa57,,,,,,,,,,,,,8,,,,,,,,,,Practice,9,(3x3) - 1,8,,,,,,,,,,,,,,,,"[""8""]",1,[4.490000000000009],1,0,0,0,8,1,,,,,,,,,,,,,,,,,,,,,,,,,,,,,,,,,,,,,,,,,,,,,,,,,,,
,,,,,,,,,,,X V Q F H G B L J M P D K C T S W R N Z,5bb8b7cc56161d0001002faa,30,Mężczyzna,2022-06-11_09h28.04.477,task,2021.1.4,Win32,29.99940001,6299f149e92ead563fba08ef,62a443e9fd87df03ecfbaa57,,,,,,,,,,,,,,,,,,,,,,,,,,,,,,,,,,,,,,,,,,,,,,,,,,,1,0,1,0,1,,,,,,,,,,,,,,,,,,,,,,,,,,,,,,,,,,,,,,,,,,,,,,
,,,,,,,,,,,,5bb8b7cc56161d0001002faa,30,Mężczyzna,2022-06-11_09h28.04.477,task,2021.1.4,Win32,29.99940001,6299f149e92ead563fba08ef,62a443e9fd87df03ecfbaa57,,,,,,,,,,,,,,,,,,,,,,,,,,,,,,,,,,,,,,,,,,,,,,,,,,,,,,,,zn,"[""z"",""n""]",0,"[3.0027999999820736,3.7764000000059355,4.715400000005957]",1,0,0,0,0,1,,,,,,,,,,,,,,,,,,,,,,,,,,,,,,,,,,,,
,,,,,,,,,,,,5bb8b7cc56161d0001002faa,30,Mężczyzna,2022-06-11_09h28.04.477,task,2021.1.4,Win32,29.99940001,6299f149e92ead563fba08ef,62a443e9fd87df03ecfbaa57,,,,,,,,,,,,,8,,,,,,,,,,Practice,9,(3x3) - 1,8,,,,,,,,,,,,,,,,"[""8""]",1,[1.8830999999940445],1,0,0,0,8,1,,,,,,,,,,,,,,,,,,,,,,,,,,,,,,,,,,,,,,,,,,,,,,,,,,,
,,,,,,,,,,,X V Q F H G B L J M P D K C T S W R N Z,5bb8b7cc56161d0001002faa,30,Mężczyzna,2022-06-11_09h28.04.477,task,2021.1.4,Win32,29.99940001,6299f149e92ead563fba08ef,62a443e9fd87df03ecfbaa57,,,,,,,,,,,,,,,,,,,,,,,,,,,,,,,,,,,,,,,,,,,,,,,,,,,0,0,0,0,1,,,,,,,,,,,,,,,,,,,,,,,,,,,,,,,,,,,,,,,,,,,,,,
,,,,,,,,,,,,5bb8b7cc56161d0001002faa,30,Mężczyzna,2022-06-11_09h28.04.477,task,2021.1.4,Win32,29.99940001,6299f149e92ead563fba08ef,62a443e9fd87df03ecfbaa57,,,,,,,,,,,,,3,,,,,,,,,,Practice,4,(8/4) + 1,3,,,,,,,,,,,,,,,,"[""3""]",1,[5.8515999999940504],1,0,0,0,3,1,,,,,,,,,,,,,,,,,,,,,,,,,,,,,,,,,,,,,,,,,,,,,,,,,,,
,,,,,,,,,,,X V Q F H G B L J M P D K C T S W R N Z,5bb8b7cc56161d0001002faa,30,Mężczyzna,2022-06-11_09h28.04.477,task,2021.1.4,Win32,29.99940001,6299f149e92ead563fba08ef,62a443e9fd87df03ecfbaa57,,,,,,,,,,,,,,,,,,,,,,,,,,,,,,,,,,,,,,,,,,,,,,,,,,,1,0,1,0,1,,,,,,,,,,,,,,,,,,,,,,,,,,,,,,,,,,,,,,,,,,,,,,
,,,,,,,,,,,,5bb8b7cc56161d0001002faa,30,Mężczyzna,2022-06-11_09h28.04.477,task,2021.1.4,Win32,29.99940001,6299f149e92ead563fba08ef,62a443e9fd87df03ecfbaa57,,,,,,,,,,,,,,,,,,,,,,,,,,,,,,,,,,,,,,,,,,,,,,,,,,,,,,,,zw,"[""z"",""w""]",0,"[1.4437000000178841,1.8142000000178768,3.1663000000119155]",0,1,0,1,0,1,,,,,,,,,,,,,,,,,,,,,,,,,,,,,,,,,,,,
,,,,,,,,,,,,5bb8b7cc56161d0001002faa,30,Mężczyzna,2022-06-11_09h28.04.477,task,2021.1.4,Win32,29.99940001,6299f149e92ead563fba08ef,62a443e9fd87df03ecfbaa57,,,,,,,,,,,,,4,,,,,,,,,,Practice,5,(2x6) - 8,4,,,,,,,,,,,,,,,,"[""4""]",1,[3.628399999976182],1,0,0,0,4,1,,,,,,,,,,,,,,,,,,,,,,,,,,,,,,,,,,,,,,,,,,,,,,,,,,,
,,,,,,,,,,,X V Q F H G B L J M P D K C T S W R N Z,5bb8b7cc56161d0001002faa,30,Mężczyzna,2022-06-11_09h28.04.477,task,2021.1.4,Win32,29.99940001,6299f149e92ead563fba08ef,62a443e9fd87df03ecfbaa57,,,,,,,,,,,,,,,,,,,,,,,,,,,,,,,,,,,,,,,,,,,,,,,,,,,0,0,0,0,1,,,,,,,,,,,,,,,,,,,,,,,,,,,,,,,,,,,,,,,,,,,,,,
,,,,,,,,,,,,5bb8b7cc56161d0001002faa,30,Mężczyzna,2022-06-11_09h28.04.477,task,2021.1.4,Win32,29.99940001,6299f149e92ead563fba08ef,62a443e9fd87df03ecfbaa57,,,,,,,,,,,,,9,,,,,,,,,,Practice,10,(20/2) - 1,9,,,,,,,,,,,,,,,,"[""9""]",1,[3.6107999999821345],1,0,0,0,9,1,,,,,,,,,,,,,,,,,,,,,,,,,,,,,,,,,,,,,,,,,,,,,,,,,,,
,,,,,,,,,,,X V Q F H G B L J M P D K C T S W R N Z,5bb8b7cc56161d0001002faa,30,Mężczyzna,2022-06-11_09h28.04.477,task,2021.1.4,Win32,29.99940001,6299f149e92ead563fba08ef,62a443e9fd87df03ecfbaa57,,,,,,,,,,,,,,,,,,,,,,,,,,,,,,,,,,,,,,,,,,,,,,,,,,,1,0,1,0,1,,,,,,,,,,,,,,,,,,,,,,,,,,,,,,,,,,,,,,,,,,,,,,
,,,,,,,,,,,,5bb8b7cc56161d0001002faa,30,Mężczyzna,2022-06-11_09h28.04.477,task,2021.1.4,Win32,29.99940001,6299f149e92ead563fba08ef,62a443e9fd87df03ecfbaa57,,,,,,,,,,,,,,,,,,,,,,,,,,,,,,,,,,,,,,,,,,,,,,,,,,,,,,,,jf,"[""j"",""f""]",0,"[2.3191999999880863,2.7549000000059323,3.8472999999821127]",1,2,0,2,0,1,,,,,,,,,,,,,,,,,,,,,,,,,,,,,,,,,,,,
,,,,,,,,,,,,5bb8b7cc56161d0001002faa,30,Mężczyzna,2022-06-11_09h28.04.477,task,2021.1.4,Win32,29.99940001,6299f149e92ead563fba08ef,62a443e9fd87df03ecfbaa57,,,,,,,,,,,,,7,,,,,,,,,,Practice,8,(5x5) - 18,7,,,,,,,,,,,,,,,,"[""7""]",1,[2.7559000000059655],1,0,0,0,7,1,,,,,,,,,,,,,,,,,,,,,,,,,,,,,,,,,,,,,,,,,,,,,,,,,,,
,,,,,,,,,,,X V Q F H G B L J M P D K C T S W R N Z,5bb8b7cc56161d0001002faa,30,Mężczyzna,2022-06-11_09h28.04.477,task,2021.1.4,Win32,29.99940001,6299f149e92ead563fba08ef,62a443e9fd87df03ecfbaa57,,,,,,,,,,,,,,,,,,,,,,,,,,,,,,,,,,,,,,,,,,,,,,,,,,,0,0,0,0,1,,,,,,,,,,,,,,,,,,,,,,,,,,,,,,,,,,,,,,,,,,,,,,
,,,,,,,,,,,,5bb8b7cc56161d0001002faa,30,Mężczyzna,2022-06-11_09h28.04.477,task,2021.1.4,Win32,29.99940001,6299f149e92ead563fba08ef,62a443e9fd87df03ecfbaa57,,,,,,,,,,,,,7,,,,,,,,,,Practice,8,(5x5) - 18,7,,,,,,,,,,,,,,,,"[""7""]",1,[4.372500000000002],1,0,0,0,7,1,,,,,,,,,,,,,,,,,,,,,,,,,,,,,,,,,,,,,,,,,,,,,,,,,,,
,,,,,,,,,,,X V Q F H G B L J M P D K C T S W R N Z,5bb8b7cc56161d0001002faa,30,Mężczyzna,2022-06-11_09h28.04.477,task,2021.1.4,Win32,29.99940001,6299f149e92ead563fba08ef,62a443e9fd87df03ecfbaa57,,,,,,,,,,,,,,,,,,,,,,,,,,,,,,,,,,,,,,,,,,,,,,,,,,,1,0,1,0,1,,,,,,,,,,,,,,,,,,,,,,,,,,,,,,,,,,,,,,,,,,,,,,
,,,,,,,,,,,,5bb8b7cc56161d0001002faa,30,Mężczyzna,2022-06-11_09h28.04.477,task,2021.1.4,Win32,29.99940001,6299f149e92ead563fba08ef,62a443e9fd87df03ecfbaa57,,,,,,,,,,,,,,,,,,,,,,,,,,,,,,,,,,,,,,,,,,,,,,,,,,,,,,,,ww,"[""w"",""w""]",0,"[1.8377000000178896,2.004800000011926,2.881600000023809]",1,3,0,3,0,1,,,,,,,,,,,,,,,,,,,,,,,,,,,,,,,,,,,,
,,,,,,,,,,,,5bb8b7cc56161d0001002faa,30,Mężczyzna,2022-06-11_09h28.04.477,task,2021.1.4,Win32,29.99940001,6299f149e92ead563fba08ef,62a443e9fd87df03ecfbaa57,,,,,,,,,,,,,9,,,,,,,,,,Practice,10,(20/2) - 1,9,,,,,,,,,,,,,,,,"[""9""]",1,[1.886400000005949],1,0,0,0,9,1,,,,,,,,,,,,,,,,,,,,,,,,,,,,,,,,,,,,,,,,,,,,,,,,,,,
,,,,,,,,,,,X V Q F H G B L J M P D K C T S W R N Z,5bb8b7cc56161d0001002faa,30,Mężczyzna,2022-06-11_09h28.04.477,task,2021.1.4,Win32,29.99940001,6299f149e92ead563fba08ef,62a443e9fd87df03ecfbaa57,,,,,,,,,,,,,,,,,,,,,,,,,,,,,,,,,,,,,,,,,,,,,,,,,,,0,0,0,0,1,,,,,,,,,,,,,,,,,,,,,,,,,,,,,,,,,,,,,,,,,,,,,,
,,,,,,,,,,,,5bb8b7cc56161d0001002faa,30,Mężczyzna,2022-06-11_09h28.04.477,task,2021.1.4,Win32,29.99940001,6299f149e92ead563fba08ef,62a443e9fd87df03ecfbaa57,,,,,,,,,,,,,9,,,,,,,,,,Practice,10,(20/2) - 1,9,,,,,,,,,,,,,,,,"[""9""]",1,[3.0054000000059773],1,0,0,0,9,1,,,,,,,,,,,,,,,,,,,,,,,,,,,,,,,,,,,,,,,,,,,,,,,,,,,
,,,,,,,,,,,X V Q F H G B L J M P D K C T S W R N Z,5bb8b7cc56161d0001002faa,30,Mężczyzna,2022-06-11_09h28.04.477,task,2021.1.4,Win32,29.99940001,6299f149e92ead563fba08ef,62a443e9fd87df03ecfbaa57,,,,,,,,,,,,,,,,,,,,,,,,,,,,,,,,,,,,,,,,,,,,,,,,,,,1,0,1,0,1,,,,,,,,,,,,,,,,,,,,,,,,,,,,,,,,,,,,,,,,,,,,,,
,,,,,,,,,,,,5bb8b7cc56161d0001002faa,30,Mężczyzna,2022-06-11_09h28.04.477,task,2021.1.4,Win32,29.99940001,6299f149e92ead563fba08ef,62a443e9fd87df03ecfbaa57,,,,,,,,,,,,,,,,,,,,,,,,,,,,,,,,,,,,,,,,,,,,,,,,,,,,,,,,gd,"[""g"",""d""]",0,"[1.9325999999940677,2.2280000000000086,3.2925999999940245]",1,4,0,4,0,1,,,,,,,,,,,,,,,,,,,,,,,,,,,,,,,,,,,,
,,,,,,,,,,,,5bb8b7cc56161d0001002faa,30,Mężczyzna,2022-06-11_09h28.04.477,task,2021.1.4,Win32,29.99940001,6299f149e92ead563fba08ef,62a443e9fd87df03ecfbaa57,,,,,,,,,,,,,5,,,,,,,,,,Task,36,(8/4) + 3,5,,,,,,,,,,,,,,,,,,,1,,,,,,,,,,,,,,,,,,,,,space,12.5574,"[""5""]",1,[3.865299999982142],0,0,0,35,1,,,,,,,,,,,,,,,,,,,,,,,,,,
,,,,,,,,,,,X V Q F H G B L J M P D K C T S W R N Z,5bb8b7cc56161d0001002faa,30,Mężczyzna,2022-06-11_09h28.04.477,task,2021.1.4,Win32,29.99940001,6299f149e92ead563fba08ef,62a443e9fd87df03ecfbaa57,,,,,,,,,,,,,,,,,,,,,,,,,,,,,,,,,,,,,,,,,,,,,,,,,,,,,,,,,,,,,,,,,,,,,,,,,,,,0,0,0,0,1,,,,,,,,,,,,,,,,,,,,,
,,,,,,,,,,,,5bb8b7cc56161d0001002faa,30,Mężczyzna,2022-06-11_09h28.04.477,task,2021.1.4,Win32,29.99940001,6299f149e92ead563fba08ef,62a443e9fd87df03ecfbaa57,,,,,,,,,,,,,8,,,,,,,,,,Task,15,(3x7) - 13,8,,,,,,,,,,,,,,,,,,,1,,,,,,,,,,,,,,,,,,,,,,,"[""8""]",1,[6.288600000023848],0,0,0,14,1,,,,,,,,,,,,,,,,,,,,,,,,,,
,,,,,,,,,,,X V Q F H G B L J M P D K C T S W R N Z,5bb8b7cc56161d0001002faa,30,Mężczyzna,2022-06-11_09h28.04.477,task,2021.1.4,Win32,29.99940001,6299f149e92ead563fba08ef,62a443e9fd87df03ecfbaa57,,,,,,,,,,,,,,,,,,,,,,,,,,,,,,,,,,,,,,,,,,,,,,,,,,,,,,,,,,,,,,,,,,,,,,,,,,,,1,0,1,0,1,,,,,,,,,,,,,,,,,,,,,
,,,,,,,,,,,,5bb8b7cc56161d0001002faa,30,Mężczyzna,2022-06-11_09h28.04.477,task,2021.1.4,Win32,29.99940001,6299f149e92ead563fba08ef,62a443e9fd87df03ecfbaa57,,,,,,,,,,,,,,,,,,,,,,,,,,,,,,,,,,,,,,,,,,,,,,,,,,,,,,,,,,,,,,,,,,,,,,,,,,,,,,,,,zq,"[""z"",""q""]",0,"[1.6626000000238719,1.980400000006,3.8879000000059705]",1,ZQ,0,0,0,0,1,,,,,,,,,,
,,,,,,,,,,,,5bb8b7cc56161d0001002faa,30,Mężczyzna,2022-06-11_09h28.04.477,task,2021.1.4,Win32,29.99940001,6299f149e92ead563fba08ef,62a443e9fd87df03ecfbaa57,,,,,,,,,,,,,,,,,,,,,,,Task,7,(3x7) - 12,9,,,,,,,,,,,,,,,,,,,0,,,,,,,,,,,,,,,,,,,,,,,,0,,0,0,0,6,1,,,,,,,,,,,,,,,,,,,,,,,,,,
,,,,,,,,,,,,5bb8b7cc56161d0001002faa,30,Mężczyzna,2022-06-11_09h28.04.477,task,2021.1.4,Win32,29.99940001,6299f149e92ead563fba08ef,62a443e9fd87df03ecfbaa57,,,,,,,,,,,,,5,,,,,,,,,,Task,12,(4x4) - 11,5,,,,,,,,,,,,,,,,,,,1,,,,,,,,,,,,,,,,,,,,,,,"[""5""]",1,[4.179599999994025],0,1,1,11,1,,,,,,,,,,,,,,,,,,,,,,,,,,
,,,,,,,,,,,X V Q F H G B L J M P D K C T S W R N Z,5bb8b7cc56161d0001002faa,30,Mężczyzna,2022-06-11_09h28.04.477,task,2021.1.4,Win32,29.99940001,6299f149e92ead563fba08ef,62a443e9fd87df03ecfbaa57,,,,,,,,,,,,,,,,,,,,,,,,,,,,,,,,,,,,,,,,,,,,,,,,,,,,,,,,,,,,,,,,,,,,,,,,,,,,0,0,0,0,1,,,,,,,,,,,,,,,,,,,,,
,,,,,,,,,,,,5bb8b7cc56161d0001002faa,30,Mężczyzna,2022-06-11_09h28.04.477,task,2021.1.4,Win32,29.99940001,6299f149e92ead563fba08ef,62a443e9fd87df03ecfbaa57,,,,,,,,,,,,,9,,,,,,,,,,Task,7,(3x7) - 12,9,,,,,,,,,,,,,,,,,,,1,,,,,,,,,,,,,,,,,,,,,,,"[""9""]",1,[2.125799999982121],0,0,0,6,1,,,,,,,,,,,,,,,,,,,,,,,,,,
,,,,,,,,,,,X V Q F H G B L J M P D K C T S W R N Z,5bb8b7cc56161d0001002faa,30,Mężczyzna,2022-06-11_09h28.04.477,task,2021.1.4,Win32,29.99940001,6299f149e92ead563fba08ef,62a443e9fd87df03ecfbaa57,,,,,,,,,,,,,,,,,,,,,,,,,,,,,,,,,,,,,,,,,,,,,,,,,,,,,,,,,,,,,,,,,,,,,,,,,,,,1,0,1,0,1,,,,,,,,,,,,,,,,,,,,,
,,,,,,,,,,,,5bb8b7cc56161d0001002faa,30,Mężczyzna,2022-06-11_09h28.04.477,task,2021.1.4,Win32,29.99940001,6299f149e92ead563fba08ef,62a443e9fd87df03ecfbaa57,,,,,,,,,,,,,7,,,,,,,,,,Task,31,(4/2) + 5,7,,,,,,,,,,,,,,,,,,,1,,,,,,,,,,,,,,,,,,,,,,,"[""7""]",1,[4.775599999994029],0,0,0,30,1,,,,,,,,,,,,,,,,,,,,,,,,,,
,,,,,,,,,,,X V Q F H G B L J M P D K C T S W R N Z,5bb8b7cc56161d0001002faa,30,Mężczyzna,2022-06-11_09h28.04.477,task,2021.1.4,Win32,29.99940001,6299f149e92ead563fba08ef,62a443e9fd87df03ecfbaa57,,,,,,,,,,,,,,,,,,,,,,,,,,,,,,,,,,,,,,,,,,,,,,,,,,,,,,,,,,,,,,,,,,,,,,,,,,,,2,0,2,0,1,,,,,,,,,,,,,,,,,,,,,
,,,,,,,,,,,,5bb8b7cc56161d0001002faa,30,Mężczyzna,2022-06-11_09h28.04.477,task,2021.1.4,Win32,29.99940001,6299f149e92ead563fba08ef,62a443e9fd87df03ecfbaa57,,,,,,,,,,,,,,,,,,,,,,,,,,,,,,,,,,,,,,,,,,,,,,,,,,,,,,,,,,,,,,,,,,,,,,,,,,,,,,,,,kwv,"[""k"",""w"",""v""]",0,"[2.8891999999880795,3.397000000000048,3.852800000011939,5.499900000005994]",1,KWV,1,0,1,0,1,,,,,,,,,,
,,,,,,,,,,,,5bb8b7cc56161d0001002faa,30,Mężczyzna,2022-06-11_09h28.04.477,task,2021.1.4,Win32,29.99940001,6299f149e92ead563fba08ef,62a443e9fd87df03ecfbaa57,,,,,,,,,,,,,0,,,,,,,,,,Task,8,(1x5) - 5,0,,,,,,,,,,,,,,,,,,,1,,,,,,,,,,,,,,,,,,,,,,,"[""0""]",1,[1.886400000005949],0,0,0,7,1,,,,,,,,,,,,,,,,,,,,,,,,,,
,,,,,,,,,,,X V Q F H G B L J M P D K C T S W R N Z,5bb8b7cc56161d0001002faa,30,Mężczyzna,2022-06-11_09h28.04.477,task,2021.1.4,Win32,29.99940001,6299f149e92ead563fba08ef,62a443e9fd87df03ecfbaa57,,,,,,,,,,,,,,,,,,,,,,,,,,,,,,,,,,,,,,,,,,,,,,,,,,,,,,,,,,,,,,,,,,,,,,,,,,,,0,0,0,0,1,,,,,,,,,,,,,,,,,,,,,
,,,,,,,,,,,,5bb8b7cc56161d0001002faa,30,Mężczyzna,2022-06-11_09h28.04.477,task,2021.1.4,Win32,29.99940001,6299f149e92ead563fba08ef,62a443e9fd87df03ecfbaa57,,,,,,,,,,,,,5,,,,,,,,,,Task,22,(3x1) + 2,5,,,,,,,,,,,,,,,,,,,1,,,,,,,,,,,,,,,,,,,,,,,"[""5""]",1,[2.0295000000000414],0,0,0,21,1,,,,,,,,,,,,,,,,,,,,,,,,,,
,,,,,,,,,,,X V Q F H G B L J M P D K C T S W R N Z,5bb8b7cc56161d0001002faa,30,Mężczyzna,2022-06-11_09h28.04.477,task,2021.1.4,Win32,29.99940001,6299f149e92ead563fba08ef,62a443e9fd87df03ecfbaa57,,,,,,,,,,,,,,,,,,,,,,,,,,,,,,,,,,,,,,,,,,,,,,,,,,,,,,,,,,,,,,,,,,,,,,,,,,,,1,0,1,0,1,,,,,,,,,,,,,,,,,,,,,
,,,,,,,,,,,,5bb8b7cc56161d0001002faa,30,Mężczyzna,2022-06-11_09h28.04.477,task,2021.1.4,Win32,29.99940001,6299f149e92ead563fba08ef,62a443e9fd87df03ecfbaa57,,,,,,,,,,,,,5,,,,,,,,,,Task,22,(3x1) + 2,5,,,,,,,,,,,,,,,,,,,1,,,,,,,,,,,,,,,,,,,,,,,"[""5""]",1,[2.4791999999881114],0,0,0,21,1,,,,,,,,,,,,,,,,,,,,,,,,,,
,,,,,,,,,,,X V Q F H G B L J M P D K C T S W R N Z,5bb8b7cc56161d0001002faa,30,Mężczyzna,2022-06-11_09h28.04.477,task,2021.1.4,Win32,29.99940001,6299f149e92ead563fba08ef,62a443e9fd87df03ecfbaa57,,,,,,,,,,,,,,,,,,,,,,,,,,,,,,,,,,,,,,,,,,,,,,,,,,,,,,,,,,,,,,,,,,,,,,,,,,,,2,0,2,0,1,,,,,,,,,,,,,,,,,,,,,
,,,,,,,,,,,,5bb8b7cc56161d0001002faa,30,Mężczyzna,2022-06-11_09h28.04.477,task,2021.1.4,Win32,29.99940001,6299f149e92ead563fba08ef,62a443e9fd87df03ecfbaa57,,,,,,,,,,,,,5,,,,,,,,,,Task,29,(3x8) - 19 ,5,,,,,,,,,,,,,,,,,,,1,,,,,,,,,,,,,,,,,,,,,,,"[""5""]",1,[4.662699999988092],0,0,0,28,1,,,,,,,,,,,,,,,,,,,,,,,,,,
,,,,,,,,,,,X V Q F H G B L J M P D K C T S W R N Z,5bb8b7cc56161d0001002faa,30,Mężczyzna,2022-06-11_09h28.04.477,task,2021.1.4,Win32,29.99940001,6299f149e92ead563fba08ef,62a443e9fd87df03ecfbaa57,,,,,,,,,,,,,,,,,,,,,,,,,,,,,,,,,,,,,,,,,,,,,,,,,,,,,,,,,,,,,,,,,,,,,,,,,,,,3,0,3,0,1,,,,,,,,,,,,,,,,,,,,,
,,,,,,,,,,,,5bb8b7cc56161d0001002faa,30,Mężczyzna,2022-06-11_09h28.04.477,task,2021.1.4,Win32,29.99940001,6299f149e92ead563fba08ef,62a443e9fd87df03ecfbaa57,,,,,,,,,,,,,,,,,,,,,,,,,,,,,,,,,,,,,,,,,,,,,,,,,,,,,,,,,,,,,,,,,,,,,,,,,,,,,,,,,gcgb,"[""g"",""c"",""g"",""b""]",0,"[2.8589999999999804,3.2183000000118795,3.594699999988052,4.354900000005955,5.048900000005915]",1,GCGB,2,0,2,0,1,,,,,,,,,,
,,,,,,,,,,,,5bb8b7cc56161d0001002faa,30,Mężczyzna,2022-06-11_09h28.04.477,task,2021.1.4,Win32,29.99940001,6299f149e92ead563fba08ef,62a443e9fd87df03ecfbaa57,,,,,,,,,,,,,1,,,,,,,,,,Task,9,(3x7) - 20,1,,,,,,,,,,,,,,,,,,,1,,,,,,,,,,,,,,,,,,,,,,,"[""1""]",1,[2.1010999999940623],0,0,0,8,1,,,,,,,,,,,,,,,,,,,,,,,,,,
,,,,,,,,,,,X V Q F H G B L J M P D K C T S W R N Z,5bb8b7cc56161d0001002faa,30,Mężczyzna,2022-06-11_09h28.04.477,task,2021.1.4,Win32,29.99940001,6299f149e92ead563fba08ef,62a443e9fd87df03ecfbaa57,,,,,,,,,,,,,,,,,,,,,,,,,,,,,,,,,,,,,,,,,,,,,,,,,,,,,,,,,,,,,,,,,,,,,,,,,,,,0,0,0,0,1,,,,,,,,,,,,,,,,,,,,,
,,,,,,,,,,,,5bb8b7cc56161d0001002faa,30,Mężczyzna,2022-06-11_09h28.04.477,task,2021.1.4,Win32,29.99940001,6299f149e92ead563fba08ef,62a443e9fd87df03ecfbaa57,,,,,,,,,,,,,2,,,,,,,,,,Task,26,(2x9) - 16,2,,,,,,,,,,,,,,,,,,,1,,,,,,,,,,,,,,,,,,,,,,,"[""2""]",1,[2.5490999999940414],0,0,0,25,1,,,,,,,,,,,,,,,,,,,,,,,,,,
,,,,,,,,,,,X V Q F H G B L J M P D K C T S W R N Z,5bb8b7cc56161d0001002faa,30,Mężczyzna,2022-06-11_09h28.04.477,task,2021.1.4,Win32,29.99940001,6299f149e92ead563fba08ef,62a443e9fd87df03ecfbaa57,,,,,,,,,,,,,,,,,,,,,,,,,,,,,,,,,,,,,,,,,,,,,,,,,,,,,,,,,,,,,,,,,,,,,,,,,,,,1,0,1,0,1,,,,,,,,,,,,,,,,,,,,,
,,,,,,,,,,,,5bb8b7cc56161d0001002faa,30,Mężczyzna,2022-06-11_09h28.04.477,task,2021.1.4,Win32,29.99940001,6299f149e92ead563fba08ef,62a443e9fd87df03ecfbaa57,,,,,,,,,,,,,6,,,,,,,,,,Task,13,(3x4) - 6,6,,,,,,,,,,,,,,,,,,,1,,,,,,,,,,,,,,,,,,,,,,,"[""6""]",1,[2.9226000000238628],0,0,0,12,1,,,,,,,,,,,,,,,,,,,,,,,,,,
,,,,,,,,,,,X V Q F H G B L J M P D K C T S W R N Z,5bb8b7cc56161d0001002faa,30,Mężczyzna,2022-06-11_09h28.04.477,task,2021.1.4,Win32,29.99940001,6299f149e92ead563fba08ef,62a443e9fd87df03ecfbaa57,,,,,,,,,,,,,,,,,,,,,,,,,,,,,,,,,,,,,,,,,,,,,,,,,,,,,,,,,,,,,,,,,,,,,,,,,,,,2,0,2,0,1,,,,,,,,,,,,,,,,,,,,,
,,,,,,,,,,,,5bb8b7cc56161d0001002faa,30,Mężczyzna,2022-06-11_09h28.04.477,task,2021.1.4,Win32,29.99940001,6299f149e92ead563fba08ef,62a443e9fd87df03ecfbaa57,,,,,,,,,,,,,4,,,,,,,,,,Task,4,(1x5) - 1,4,,,,,,,,,,,,,,,,,,,1,,,,,,,,,,,,,,,,,,,,,,,"[""4""]",1,[1.7729000000060182],0,0,0,3,1,,,,,,,,,,,,,,,,,,,,,,,,,,
,,,,,,,,,,,X V Q F H G B L J M P D K C T S W R N Z,5bb8b7cc56161d0001002faa,30,Mężczyzna,2022-06-11_09h28.04.477,task,2021.1.4,Win32,29.99940001,6299f149e92ead563fba08ef,62a443e9fd87df03ecfbaa57,,,,,,,,,,,,,,,,,,,,,,,,,,,,,,,,,,,,,,,,,,,,,,,,,,,,,,,,,,,,,,,,,,,,,,,,,,,,3,0,3,0,1,,,,,,,,,,,,,,,,,,,,,
,,,,,,,,,,,,5bb8b7cc56161d0001002faa,30,Mężczyzna,2022-06-11_09h28.04.477,task,2021.1.4,Win32,29.99940001,6299f149e92ead563fba08ef,62a443e9fd87df03ecfbaa57,,,,,,,,,,,,,4,,,,,,,,,,Task,28,(2x5) - 6,4,,,,,,,,,,,,,,,,,,,1,,,,,,,,,,,,,,,,,,,,,,,"[""4""]",1,[3.7389000000059696],0,0,0,27,1,,,,,,,,,,,,,,,,,,,,,,,,,,
,,,,,,,,,,,X V Q F H G B L J M P D K C T S W R N Z,5bb8b7cc56161d0001002faa,30,Mężczyzna,2022-06-11_09h28.04.477,task,2021.1.4,Win32,29.99940001,6299f149e92ead563fba08ef,62a443e9fd87df03ecfbaa57,,,,,,,,,,,,,,,,,,,,,,,,,,,,,,,,,,,,,,,,,,,,,,,,,,,,,,,,,,,,,,,,,,,,,,,,,,,,4,0,4,0,1,,,,,,,,,,,,,,,,,,,,,
,,,,,,,,,,,,5bb8b7cc56161d0001002faa,30,Mężczyzna,2022-06-11_09h28.04.477,task,2021.1.4,Win32,29.99940001,6299f149e92ead563fba08ef,62a443e9fd87df03ecfbaa57,,,,,,,,,,,,,,,,,,,,,,,,,,,,,,,,,,,,,,,,,,,,,,,,,,,,,,,,,,,,,,,,,,,,,,,,,,,,,,,,,vvpvx,"[""v"",""v"",""p"",""v"",""x""]",0,"[3.1014999999999873,3.209699999988061,4.027199999988056,5.648500000000013,6.664800000011837,8.128499999999917]",1,VVPVX,3,0,3,0,1,,,,,,,,,,
,,,,,,,,,,,,5bb8b7cc56161d0001002faa,30,Mężczyzna,2022-06-11_09h28.04.477,task,2021.1.4,Win32,29.99940001,6299f149e92ead563fba08ef,62a443e9fd87df03ecfbaa57,,,,,,,,,,,,,4,,,,,,,,,,Task,4,(1x5) - 1,4,,,,,,,,,,,,,,,,,,,1,,,,,,,,,,,,,,,,,,,,,,,"[""4""]",1,[2.1219000000060078],0,0,0,3,1,,,,,,,,,,,,,,,,,,,,,,,,,,
,,,,,,,,,,,X V Q F H G B L J M P D K C T S W R N Z,5bb8b7cc56161d0001002faa,30,Mężczyzna,2022-06-11_09h28.04.477,task,2021.1.4,Win32,29.99940001,6299f149e92ead563fba08ef,62a443e9fd87df03ecfbaa57,,,,,,,,,,,,,,,,,,,,,,,,,,,,,,,,,,,,,,,,,,,,,,,,,,,,,,,,,,,,,,,,,,,,,,,,,,,,0,0,0,0,1,,,,,,,,,,,,,,,,,,,,,
,,,,,,,,,,,,5bb8b7cc56161d0001002faa,30,Mężczyzna,2022-06-11_09h28.04.477,task,2021.1.4,Win32,29.99940001,6299f149e92ead563fba08ef,62a443e9fd87df03ecfbaa57,,,,,,,,,,,,,9,,,,,,,,,,Task,16,(3x8) - 15,9,,,,,,,,,,,,,,,,,,,1,,,,,,,,,,,,,,,,,,,,,,,"[""9""]",1,[4.803699999988112],0,0,0,15,1,,,,,,,,,,,,,,,,,,,,,,,,,,
,,,,,,,,,,,X V Q F H G B L J M P D K C T S W R N Z,5bb8b7cc56161d0001002faa,30,Mężczyzna,2022-06-11_09h28.04.477,task,2021.1.4,Win32,29.99940001,6299f149e92ead563fba08ef,62a443e9fd87df03ecfbaa57,,,,,,,,,,,,,,,,,,,,,,,,,,,,,,,,,,,,,,,,,,,,,,,,,,,,,,,,,,,,,,,,,,,,,,,,,,,,1,0,1,0,1,,,,,,,,,,,,,,,,,,,,,
,,,,,,,,,,,,5bb8b7cc56161d0001002faa,30,Mężczyzna,2022-06-11_09h28.04.477,task,2021.1.4,Win32,29.99940001,6299f149e92ead563fba08ef,62a443e9fd87df03ecfbaa57,,,,,,,,,,,,,4,,,,,,,,,,Task,32,(8/2) + 4,8,,,,,,,,,,,,,,,,,,,0,,,,,,,,,,,,,,,,,,,,,,,"[""4""]",0,[3.569099999994023],0,0,0,31,1,,,,,,,,,,,,,,,,,,,,,,,,,,
,,,,,,,,,,,,5bb8b7cc56161d0001002faa,30,Mężczyzna,2022-06-11_09h28.04.477,task,2021.1.4,Win32,29.99940001,6299f149e92ead563fba08ef,62a443e9fd87df03ecfbaa57,,,,,,,,,,,,,6,,,,,,,,,,Task,13,(3x4) - 6,6,,,,,,,,,,,,,,,,,,,1,,,,,,,,,,,,,,,,,,,,,,,"[""6""]",1,[2.8208000000119],0,1,1,12,1,,,,,,,,,,,,,,,,,,,,,,,,,,
,,,,,,,,,,,X V Q F H G B L J M P D K C T S W R N Z,5bb8b7cc56161d0001002faa,30,Mężczyzna,2022-06-11_09h28.04.477,task,2021.1.4,Win32,29.99940001,6299f149e92ead563fba08ef,62a443e9fd87df03ecfbaa57,,,,,,,,,,,,,,,,,,,,,,,,,,,,,,,,,,,,,,,,,,,,,,,,,,,,,,,,,,,,,,,,,,,,,,,,,,,,2,0,2,0,1,,,,,,,,,,,,,,,,,,,,,
,,,,,,,,,,,,5bb8b7cc56161d0001002faa,30,Mężczyzna,2022-06-11_09h28.04.477,task,2021.1.4,Win32,29.99940001,6299f149e92ead563fba08ef,62a443e9fd87df03ecfbaa57,,,,,,,,,,,,,4,,,,,,,,,,Task,21,(10/2) - 1,4,,,,,,,,,,,,,,,,,,,1,,,,,,,,,,,,,,,,,,,,,,,"[""4""]",1,[2.011500000000069],0,0,0,20,1,,,,,,,,,,,,,,,,,,,,,,,,,,
,,,,,,,,,,,X V Q F H G B L J M P D K C T S W R N Z,5bb8b7cc56161d0001002faa,30,Mężczyzna,2022-06-11_09h28.04.477,task,2021.1.4,Win32,29.99940001,6299f149e92ead563fba08ef,62a443e9fd87df03ecfbaa57,,,,,,,,,,,,,,,,,,,,,,,,,,,,,,,,,,,,,,,,,,,,,,,,,,,,,,,,,,,,,,,,,,,,,,,,,,,,3,0,3,0,1,,,,,,,,,,,,,,,,,,,,,
,,,,,,,,,,,,5bb8b7cc56161d0001002faa,30,Mężczyzna,2022-06-11_09h28.04.477,task,2021.1.4,Win32,29.99940001,6299f149e92ead563fba08ef,62a443e9fd87df03ecfbaa57,,,,,,,,,,,,,0,,,,,,,,,,Task,8,(1x5) - 5,0,,,,,,,,,,,,,,,,,,,1,,,,,,,,,,,,,,,,,,,,,,,"[""0""]",1,[2.5784999999999627],0,0,0,7,1,,,,,,,,,,,,,,,,,,,,,,,,,,
,,,,,,,,,,,X V Q F H G B L J M P D K C T S W R N Z,5bb8b7cc56161d0001002faa,30,Mężczyzna,2022-06-11_09h28.04.477,task,2021.1.4,Win32,29.99940001,6299f149e92ead563fba08ef,62a443e9fd87df03ecfbaa57,,,,,,,,,,,,,,,,,,,,,,,,,,,,,,,,,,,,,,,,,,,,,,,,,,,,,,,,,,,,,,,,,,,,,,,,,,,,4,0,4,0,1,,,,,,,,,,,,,,,,,,,,,
,,,,,,,,,,,,5bb8b7cc56161d0001002faa,30,Mężczyzna,2022-06-11_09h28.04.477,task,2021.1.4,Win32,29.99940001,6299f149e92ead563fba08ef,62a443e9fd87df03ecfbaa57,,,,,,,,,,,,,5,,,,,,,,,,Task,36,(8/4) + 3,5,,,,,,,,,,,,,,,,,,,1,,,,,,,,,,,,,,,,,,,,,,,"[""5""]",1,[2.719799999982115],0,0,0,35,1,,,,,,,,,,,,,,,,,,,,,,,,,,
,,,,,,,,,,,X V Q F H G B L J M P D K C T S W R N Z,5bb8b7cc56161d0001002faa,30,Mężczyzna,2022-06-11_09h28.04.477,task,2021.1.4,Win32,29.99940001,6299f149e92ead563fba08ef,62a443e9fd87df03ecfbaa57,,,,,,,,,,,,,,,,,,,,,,,,,,,,,,,,,,,,,,,,,,,,,,,,,,,,,,,,,,,,,,,,,,,,,,,,,,,,5,0,5,0,1,,,,,,,,,,,,,,,,,,,,,
,,,,,,,,,,,,5bb8b7cc56161d0001002faa,30,Mężczyzna,2022-06-11_09h28.04.477,task,2021.1.4,Win32,29.99940001,6299f149e92ead563fba08ef,62a443e9fd87df03ecfbaa57,,,,,,,,,,,,,,,,,,,,,,,,,,,,,,,,,,,,,,,,,,,,,,,,,,,,,,,,,,,,,,,,,,,,,,,,,,,,,,,,,fwszmh,"[""f"",""w"",""s"",""z"",""m"",""h""]",0,"[3.294199999988109,3.6825999999940677,8.176000000000045,8.461599999994064,9.214900000005969,9.472900000006007,10.253000000000043]",0,FWZSMH,4,0,4,0,1,,,,,,,,,,
,,,,,,,,,,,,5bb8b7cc56161d0001002faa,30,Mężczyzna,2022-06-11_09h28.04.477,task,2021.1.4,Win32,29.99940001,6299f149e92ead563fba08ef,62a443e9fd87df03ecfbaa57,,,,,,,,,,,,,1,,,,,,,,,,Task,1,(12/6) - 1,1,,,,,,,,,,,,,,,,,,,1,,,,,,,,,,,,,,,,,,,,,,,"[""1""]",1,[6.121599999994032],0,0,0,0,1,,,,,,,,,,,,,,,,,,,,,,,,,,
,,,,,,,,,,,X V Q F H G B L J M P D K C T S W R N Z,5bb8b7cc56161d0001002faa,30,Mężczyzna,2022-06-11_09h28.04.477,task,2021.1.4,Win32,29.99940001,6299f149e92ead563fba08ef,62a443e9fd87df03ecfbaa57,,,,,,,,,,,,,,,,,,,,,,,,,,,,,,,,,,,,,,,,,,,,,,,,,,,,,,,,,,,,,,,,,,,,,,,,,,,,0,0,0,0,1,,,,,,,,,,,,,,,,,,,,,
,,,,,,,,,,,,5bb8b7cc56161d0001002faa,30,Mężczyzna,2022-06-11_09h28.04.477,task,2021.1.4,Win32,29.99940001,6299f149e92ead563fba08ef,62a443e9fd87df03ecfbaa57,,,,,,,,,,,,,8,,,,,,,,,,Task,23,(2x3) + 2,8,,,,,,,,,,,,,,,,,,,1,,,,,,,,,,,,,,,,,,,,,,,"[""8""]",1,[2.265700000017887],0,0,0,22,1,,,,,,,,,,,,,,,,,,,,,,,,,,
,,,,,,,,,,,X V Q F H G B L J M P D K C T S W R N Z,5bb8b7cc56161d0001002faa,30,Mężczyzna,2022-06-11_09h28.04.477,task,2021.1.4,Win32,29.99940001,6299f149e92ead563fba08ef,62a443e9fd87df03ecfbaa57,,,,,,,,,,,,,,,,,,,,,,,,,,,,,,,,,,,,,,,,,,,,,,,,,,,,,,,,,,,,,,,,,,,,,,,,,,,,1,0,1,0,1,,,,,,,,,,,,,,,,,,,,,
,,,,,,,,,,,,5bb8b7cc56161d0001002faa,30,Mężczyzna,2022-06-11_09h28.04.477,task,2021.1.4,Win32,29.99940001,6299f149e92ead563fba08ef,62a443e9fd87df03ecfbaa57,,,,,,,,,,,,,5,,,,,,,,,,Task,12,(4x4) - 11,5,,,,,,,,,,,,,,,,,,,1,,,,,,,,,,,,,,,,,,,,,,,"[""5""]",1,[2.887700000017844],0,0,0,11,1,,,,,,,,,,,,,,,,,,,,,,,,,,
,,,,,,,,,,,X V Q F H G B L J M P D K C T S W R N Z,5bb8b7cc56161d0001002faa,30,Mężczyzna,2022-06-11_09h28.04.477,task,2021.1.4,Win32,29.99940001,6299f149e92ead563fba08ef,62a443e9fd87df03ecfbaa57,,,,,,,,,,,,,,,,,,,,,,,,,,,,,,,,,,,,,,,,,,,,,,,,,,,,,,,,,,,,,,,,,,,,,,,,,,,,2,0,2,0,1,,,,,,,,,,,,,,,,,,,,,
,,,,,,,,,,,,5bb8b7cc56161d0001002faa,30,Mężczyzna,2022-06-11_09h28.04.477,task,2021.1.4,Win32,29.99940001,6299f149e92ead563fba08ef,62a443e9fd87df03ecfbaa57,,,,,,,,,,,,,1,,,,,,,,,,Task,1,(12/6) - 1,1,,,,,,,,,,,,,,,,,,,1,,,,,,,,,,,,,,,,,,,,,,,"[""1""]",1,[2.0890000000000555],0,0,0,0,1,,,,,,,,,,,,,,,,,,,,,,,,,,
,,,,,,,,,,,X V Q F H G B L J M P D K C T S W R N Z,5bb8b7cc56161d0001002faa,30,Mężczyzna,2022-06-11_09h28.04.477,task,2021.1.4,Win32,29.99940001,6299f149e92ead563fba08ef,62a443e9fd87df03ecfbaa57,,,,,,,,,,,,,,,,,,,,,,,,,,,,,,,,,,,,,,,,,,,,,,,,,,,,,,,,,,,,,,,,,,,,,,,,,,,,3,0,3,0,1,,,,,,,,,,,,,,,,,,,,,
,,,,,,,,,,,,5bb8b7cc56161d0001002faa,30,Mężczyzna,2022-06-11_09h28.04.477,task,2021.1.4,Win32,29.99940001,6299f149e92ead563fba08ef,62a443e9fd87df03ecfbaa57,,,,,,,,,,,,,0,,,,,,,,,,Task,25,(10/5) - 2,0,,,,,,,,,,,,,,,,,,,1,,,,,,,,,,,,,,,,,,,,,,,"[""0""]",1,[3.654199999988009],0,0,0,24,1,,,,,,,,,,,,,,,,,,,,,,,,,,
,,,,,,,,,,,X V Q F H G B L J M P D K C T S W R N Z,5bb8b7cc56161d0001002faa,30,Mężczyzna,2022-06-11_09h28.04.477,task,2021.1.4,Win32,29.99940001,6299f149e92ead563fba08ef,62a443e9fd87df03ecfbaa57,,,,,,,,,,,,,,,,,,,,,,,,,,,,,,,,,,,,,,,,,,,,,,,,,,,,,,,,,,,,,,,,,,,,,,,,,,,,4,0,4,0,1,,,,,,,,,,,,,,,,,,,,,
,,,,,,,,,,,,5bb8b7cc56161d0001002faa,30,Mężczyzna,2022-06-11_09h28.04.477,task,2021.1.4,Win32,29.99940001,6299f149e92ead563fba08ef,62a443e9fd87df03ecfbaa57,,,,,,,,,,,,,4,,,,,,,,,,Task,11,(18/3) - 2,4,,,,,,,,,,,,,,,,,,,1,,,,,,,,,,,,,,,,,,,,,,,"[""4""]",1,[3.228999999999928],0,0,0,10,1,,,,,,,,,,,,,,,,,,,,,,,,,,
,,,,,,,,,,,X V Q F H G B L J M P D K C T S W R N Z,5bb8b7cc56161d0001002faa,30,Mężczyzna,2022-06-11_09h28.04.477,task,2021.1.4,Win32,29.99940001,6299f149e92ead563fba08ef,62a443e9fd87df03ecfbaa57,,,,,,,,,,,,,,,,,,,,,,,,,,,,,,,,,,,,,,,,,,,,,,,,,,,,,,,,,,,,,,,,,,,,,,,,,,,,5,0,5,0,1,,,,,,,,,,,,,,,,,,,,,
,,,,,,,,,,,,5bb8b7cc56161d0001002faa,30,Mężczyzna,2022-06-11_09h28.04.477,task,2021.1.4,Win32,29.99940001,6299f149e92ead563fba08ef,62a443e9fd87df03ecfbaa57,,,,,,,,,,,,,,,,,,,,,,,,,,,,,,,,,,,,,,,,,,,,,,,,,,,,,,,,,,,,,,,,,,,,,,,,,,,,,,,,,fghzd,"[""f"",""g"",""h"",""z"",""d""]",0,"[5.040699999988078,6.343599999994012,7.46449999999993,8.019000000000005,8.435799999982123,10.312199999988025]",0,FGFHZD,5,0,5,0,1,,,,,,,,,,
,,,,,,,,,,,,5bb8b7cc56161d0001002faa,30,Mężczyzna,2022-06-11_09h28.04.477,task,2021.1.4,Win32,29.99940001,6299f149e92ead563fba08ef,62a443e9fd87df03ecfbaa57,,,,,,,,,,,,,,,,,,,,,,,,,,,,,,,,,,,,,,,,,,,,,,,,,,,,,,,,,,,,,,,,,,,,,,,,,,,,,,,,,,,,,,,,,,,,,0,0,0,0,0,1,,,
,,,,,,,,,,,,5bb8b7cc56161d0001002faa,30,Mężczyzna,2022-06-11_09h28.04.477,task,2021.1.4,Win32,29.99940001,6299f149e92ead563fba08ef,62a443e9fd87df03ecfbaa57,,,,,,,,,,,,,,,,,,,,,,,,,,,,,,,,,,,,,,,,,,,,,,,,,,,,,,,,,,,,,,,,,,,,,,,,,,,,,,,,,,,,,,,,,,,,,0,1,0,1,0,1,,,
,,,,,,,,,,,,5bb8b7cc56161d0001002faa,30,Mężczyzna,2022-06-11_09h28.04.477,task,2021.1.4,Win32,29.99940001,6299f149e92ead563fba08ef,62a443e9fd87df03ecfbaa57,,,,,,,,,,,,,,,,,,,,,,,,,,,,,,,,,,,,,,,,,,,,,,,,,,,,,,,,,,,,,,,,,,,,,,,,,,,,,,,,,,,,,,,,,,,,"[""comma""]",0,2,0,2,0,1,[0.3369999999999891],,
,,,,,,,,,,,,5bb8b7cc56161d0001002faa,30,Mężczyzna,2022-06-11_09h28.04.477,task,2021.1.4,Win32,29.99940001,6299f149e92ead563fba08ef,62a443e9fd87df03ecfbaa57,,,,,,,,,,,,,,,,,,,,,,,,,,,,,,,,,,,,,,,,,,,,,,,,,,,,,,,,,,,,,,,,,,,,,,,,,,,,,,,,,,,,,,,,,,,,"[""period""]",0,3,0,3,0,1,[0.5113000000119428],,
,,,,,,,,,,,,5bb8b7cc56161d0001002faa,30,Mężczyzna,2022-06-11_09h28.04.477,task,2021.1.4,Win32,29.99940001,6299f149e92ead563fba08ef,62a443e9fd87df03ecfbaa57,,,,,,,,,,,,,,,,,,,,,,,,,,,,,,,,,,,,,,,,,,,,,,,,,,,,,,,,,,,,,,,,,,,,,,,,,,,,,,,,,,,,,,,,,,,,"[""comma""]",0,4,0,4,0,1,[0.6123000000118282],,
,,,,,,,,,,,,5bb8b7cc56161d0001002faa,30,Mężczyzna,2022-06-11_09h28.04.477,task,2021.1.4,Win32,29.99940001,6299f149e92ead563fba08ef,62a443e9fd87df03ecfbaa57,,,,,,,,,,,,,,,,,,,,,,,,,,,,,,,,,,,,,,,,,,,,,,,,,,,,,,,,,,,,,,,,,,,,,,,,,,,,,,,,,,,,,,,,,,,,"[""comma""]",0,5,0,5,0,1,[0.36620000001789776],,
,,,,,,,,,,,,5bb8b7cc56161d0001002faa,30,Mężczyzna,2022-06-11_09h28.04.477,task,2021.1.4,Win32,29.99940001,6299f149e92ead563fba08ef,62a443e9fd87df03ecfbaa57,,,,,,,,,,,,,,,,,,,,,,,,,,,,,,,,,,,,,,,,,,,,,,,,,,,,,,,,,,,,,,,,,,,,,,,,,,,,,,,,,,,,,,,,,,,,"[""comma""]",0,6,0,6,0,1,[0.41379999998207495],,
,,,,,,,,,,,,5bb8b7cc56161d0001002faa,30,Mężczyzna,2022-06-11_09h28.04.477,task,2021.1.4,Win32,29.99940001,6299f149e92ead563fba08ef,62a443e9fd87df03ecfbaa57,,,,,,,,,,,,,,,,,,,,,,,,,,,,,,,,,,,,,,,,,,,,,,,,,,,,,,,,,,,,,,,,,,,,,,,,,,,,,,,,,,,,,,,,,,,,"[""period""]",0,7,0,7,0,1,[0.4182999999821959],,
,,,,,,,,,,,,5bb8b7cc56161d0001002faa,30,Mężczyzna,2022-06-11_09h28.04.477,task,2021.1.4,Win32,29.99940001,6299f149e92ead563fba08ef,62a443e9fd87df03ecfbaa57,,,,,,,,,,,,,,,,,,,,,,,,,,,,,,,,,,,,,,,,,,,,,,,,,,,,,,,,,,,,,,,,,,,,,,,,,,,,,,,,,,,,,,,,,,,,"[""period""]",0,8,0,8,0,1,[0.39139999997610175],,
,,,,,,,,,,,,5bb8b7cc56161d0001002faa,30,Mężczyzna,2022-06-11_09h28.04.477,task,2021.1.4,Win32,29.99940001,6299f149e92ead563fba08ef,62a443e9fd87df03ecfbaa57,,,,,,,,,,,,,,,,,,,,,,,,,,,,,,,,,,,,,,,,,,,,,,,,,,,,,,,,,,,,,,,,,,,,,,,,,,,,,,,,,,,,,,,,,,,,"[""comma""]",0,9,0,9,0,1,[0.4014999999999418],,
,,,,,,,,,,,,5bb8b7cc56161d0001002faa,30,Mężczyzna,2022-06-11_09h28.04.477,task,2021.1.4,Win32,29.99940001,6299f149e92ead563fba08ef,62a443e9fd87df03ecfbaa57,,,,,,,,,,,,,,,,,,,,,,,,,,,,,,,,,,,,,,,,,,,,,,,,,,,,,,,,,,,,,,,,,,,,,,,,,,,,,,,,,,,,,,,,,,,,"[""period""]",0,10,0,10,0,1,[0.318599999994035],,
,,,,,,,,,,,,5bb8b7cc56161d0001002faa,30,Mężczyzna,2022-06-11_09h28.04.477,task,2021.1.4,Win32,29.99940001,6299f149e92ead563fba08ef,62a443e9fd87df03ecfbaa57,,,,,,,,,,,,,,,,,,,,,,,,,,,,,,,,,,,,,,,,,,,,,,,,,,,,,,,,,,,,,,,,,,,,,,,,,,,,,,,,,,,,,,,,,,,,"[""comma""]",0,11,0,11,0,1,[0.3801000000238446],,
,,,,,,,,,,,,5bb8b7cc56161d0001002faa,30,Mężczyzna,2022-06-11_09h28.04.477,task,2021.1.4,Win32,29.99940001,6299f149e92ead563fba08ef,62a443e9fd87df03ecfbaa57,,,,,,,,,,,,,,,,,,,,,,,,,,,,,,,,,,,,,,,,,,,,,,,,,,,,,,,,,,,,,,,,,,,,,,,,,,,,,,,,,,,,,,,,,,,,"[""comma""]",0,12,0,12,0,1,[0.35319999998807816],,
,,,,,,,,,,,,5bb8b7cc56161d0001002faa,30,Mężczyzna,2022-06-11_09h28.04.477,task,2021.1.4,Win32,29.99940001,6299f149e92ead563fba08ef,62a443e9fd87df03ecfbaa57,,,,,,,,,,,,,,,,,,,,,,,,,,,,,,,,,,,,,,,,,,,,,,,,,,,,,,,,,,,,,,,,,,,,,,,,,,,,,,,,,,,,,,,,,,,,"[""period""]",0,13,0,13,0,1,[0.13720000001785593],,
,,,,,,,,,,,,5bb8b7cc56161d0001002faa,30,Mężczyzna,2022-06-11_09h28.04.477,task,2021.1.4,Win32,29.99940001,6299f149e92ead563fba08ef,62a443e9fd87df03ecfbaa57,,,,,,,,,,,,,,,,,,,,,,,,,,,,,,,,,,,,,,,,,,,,,,,,,,,,,,,,,,,,,,,,,,,,,,,,,,,,,,,,,,,,,,,,,,,,"[""period""]",0,14,0,14,0,1,[0.3673000000119373],,
,,,,,,,,,,,,5bb8b7cc56161d0001002faa,30,Mężczyzna,2022-06-11_09h28.04.477,task,2021.1.4,Win32,29.99940001,6299f149e92ead563fba08ef,62a443e9fd87df03ecfbaa57,,,,,,,,,,,,,,,,,,,,,,,,,,,,,,,,,,,,,,,,,,,,,,,,,,,,,,,,,,,,,,,,,,,,,,,,,,,,,,,,,,,,,,,,,,,,"[""period""]",0,15,0,15,0,1,[0.36180000001184],,
,,,,,,,,,,,,5bb8b7cc56161d0001002faa,30,Mężczyzna,2022-06-11_09h28.04.477,task,2021.1.4,Win32,29.99940001,6299f149e92ead563fba08ef,62a443e9fd87df03ecfbaa57,,,,,,,,,,,,,,,,,,,,,,,,,,,,,,,,,,,,,,,,,,,,,,,,,,,,,,,,,,,,,,,,,,,,,,,,,,,,,,,,,,,,,,,,,,,,"[""period""]",0,16,0,16,0,1,[0.34220000001789685],,
,,,,,,,,,,,,5bb8b7cc56161d0001002faa,30,Mężczyzna,2022-06-11_09h28.04.477,task,2021.1.4,Win32,29.99940001,6299f149e92ead563fba08ef,62a443e9fd87df03ecfbaa57,,,,,,,,,,,,,,,,,,,,,,,,,,,,,,,,,,,,,,,,,,,,,,,,,,,,,,,,,,,,,,,,,,,,,,,,,,,,,,,,,,,,,,,,,,,,"[""comma""]",0,17,0,17,0,1,[0.2539000000059559],,
,,,,,,,,,,,,5bb8b7cc56161d0001002faa,30,Mężczyzna,2022-06-11_09h28.04.477,task,2021.1.4,Win32,29.99940001,6299f149e92ead563fba08ef,62a443e9fd87df03ecfbaa57,,,,,,,,,,,,,,,,,,,,,,,,,,,,,,,,,,,,,,,,,,,,,,,,,,,,,,,,,,,,,,,,,,,,,,,,,,,,,,,,,,,,,,,,,,,,"[""comma""]",0,18,0,18,0,1,[0.368900000005965],,
,,,,,,,,,,,,5bb8b7cc56161d0001002faa,30,Mężczyzna,2022-06-11_09h28.04.477,task,2021.1.4,Win32,29.99940001,6299f149e92ead563fba08ef,62a443e9fd87df03ecfbaa57,,,,,,,,,,,,,,,,,,,,,,,,,,,,,,,,,,,,,,,,,,,,,,,,,,,,,,,,,,,,,,,,,,,,,,,,,,,,,,,,,,,,,,,,,,,,"[""period""]",0,19,0,19,0,1,[0.39369999998814365],,
,,,,,,,,,,,,5bb8b7cc56161d0001002faa,30,Mężczyzna,2022-06-11_09h28.04.477,task,2021.1.4,Win32,29.99940001,6299f149e92ead563fba08ef,62a443e9fd87df03ecfbaa57,,,,,,,,,,,,,,,,,,,,,,,,,,,,,,,,,,,,,,,,,,,,,,,,,,,,,,,,,,,,,,,,,,,,,,,,,,,,,,,,,,,,,,,,,,,,"[""comma""]",0,20,0,20,0,1,[0.3641999999880454],,
,,,,,,,,,,,,5bb8b7cc56161d0001002faa,30,Mężczyzna,2022-06-11_09h28.04.477,task,2021.1.4,Win32,29.99940001,6299f149e92ead563fba08ef,62a443e9fd87df03ecfbaa57,,,,,,,,,,,,,,,,,,,,,,,,,,,,,,,,,,,,,,,,,,,,,,,,,,,,,,,,,,,,,,,,,,,,,,,,,,,,,,,,,,,,,,,,,,,,"[""period""]",0,21,0,21,0,1,[0.38769999998805815],,
,,,,,,,,,,,,5bb8b7cc56161d0001002faa,30,Mężczyzna,2022-06-11_09h28.04.477,task,2021.1.4,Win32,29.99940001,6299f149e92ead563fba08ef,62a443e9fd87df03ecfbaa57,,,,,,,,,,,,,,,,,,,,,,,,,,,,,,,,,,,,,,,,,,,,,,,,,,,,,,,,,,,,,,,,,,,,,,,,,,,,,,,,,,,,,,,,,,,,"[""comma""]",0,22,0,22,0,1,[0.18840000000591317],,
,,,,,,,,,,,,5bb8b7cc56161d0001002faa,30,Mężczyzna,2022-06-11_09h28.04.477,task,2021.1.4,Win32,29.99940001,6299f149e92ead563fba08ef,62a443e9fd87df03ecfbaa57,,,,,,,,,,,,,,,,,,,,,,,,,,,,,,,,,,,,,,,,,,,,,,,,,,,,,,,,,,,,,,,,,,,,,,,,,,,,,,,,,,,,,,,,,,,,"[""comma""]",0,23,0,23,0,1,[0.37110000002383003],,
,,,,,,,,,,,,5bb8b7cc56161d0001002faa,30,Mężczyzna,2022-06-11_09h28.04.477,task,2021.1.4,Win32,29.99940001,6299f149e92ead563fba08ef,62a443e9fd87df03ecfbaa57,,,,,,,,,,,,,,,,,,,,,,,,,,,,,,,,,,,,,,,,,,,,,,,,,,,,,,,,,,,,,,,,,,,,,,,,,,,,,,,,,,,,,,,,,,,,"[""period""]",0,24,0,24,0,1,[0.31610000002376637],,
,,,,,,,,,,,,5bb8b7cc56161d0001002faa,30,Mężczyzna,2022-06-11_09h28.04.477,task,2021.1.4,Win32,29.99940001,6299f149e92ead563fba08ef,62a443e9fd87df03ecfbaa57,,,,,,,,,,,,,,,,,,,,,,,,,,,,,,,,,,,,,,,,,,,,,,,,,,,,,,,,,,,,,,,,,,,,,,,,,,,,,,,,,,,,,,,,,,,,"[""period""]",0,25,0,25,0,1,[0.3157999999821186],,
,,,,,,,,,,,,5bb8b7cc56161d0001002faa,30,Mężczyzna,2022-06-11_09h28.04.477,task,2021.1.4,Win32,29.99940001,6299f149e92ead563fba08ef,62a443e9fd87df03ecfbaa57,,,,,,,,,,,,,,,,,,,,,,,,,,,,,,,,,,,,,,,,,,,,,,,,,,,,,,,,,,,,,,,,,,,,,,,,,,,,,,,,,,,,,,,,,,,,"[""comma""]",0,26,0,26,0,1,[0.3834000000059632],,
,,,,,,,,,,,,5bb8b7cc56161d0001002faa,30,Mężczyzna,2022-06-11_09h28.04.477,task,2021.1.4,Win32,29.99940001,6299f149e92ead563fba08ef,62a443e9fd87df03ecfbaa57,,,,,,,,,,,,,,,,,,,,,,,,,,,,,,,,,,,,,,,,,,,,,,,,,,,,,,,,,,,,,,,,,,,,,,,,,,,,,,,,,,,,,,,,,,,,"[""period""]",0,27,0,27,0,1,[0.43280000001198005],,
,,,,,,,,,,,,5bb8b7cc56161d0001002faa,30,Mężczyzna,2022-06-11_09h28.04.477,task,2021.1.4,Win32,29.99940001,6299f149e92ead563fba08ef,62a443e9fd87df03ecfbaa57,,,,,,,,,,,,,,,,,,,,,,,,,,,,,,,,,,,,,,,,,,,,,,,,,,,,,,,,,,,,,,,,,,,,,,,,,,,,,,,,,,,,,,,,,,,,"[""period""]",0,28,0,28,0,1,[0.42349999999999],,
,,,,,,,,,,,,5bb8b7cc56161d0001002faa,30,Mężczyzna,2022-06-11_09h28.04.477,task,2021.1.4,Win32,29.99940001,6299f149e92ead563fba08ef,62a443e9fd87df03ecfbaa57,,,,,,,,,,,,,,,,,,,,,,,,,,,,,,,,,,,,,,,,,,,,,,,,,,,,,,,,,,,,,,,,,,,,,,,,,,,,,,,,,,,,,,,,,,,,"[""comma""]",0,29,0,29,0,1,[0.5926000000238218],,
,,,,,,,,,,,,5bb8b7cc56161d0001002faa,30,Mężczyzna,2022-06-11_09h28.04.477,task,2021.1.4,Win32,29.99940001,6299f149e92ead563fba08ef,62a443e9fd87df03ecfbaa57,,,,,,,,,,,,,,,,,,,,,,,,,,,,,,,,,,,,,,,,,,,,,,,,,,,,,,,,,,,,,,,,,,,,,,,,,,,,,,,,,,,,,,,,,,,,"[""period""]",0,30,0,30,0,1,[0.6274000000059914],,
,,,,,,,,,,,,5bb8b7cc56161d0001002faa,30,Mężczyzna,2022-06-11_09h28.04.477,task,2021.1.4,Win32,29.99940001,6299f149e92ead563fba08ef,62a443e9fd87df03ecfbaa57,,,,,,,,,,,,,,,,,,,,,,,,,,,,,,,,,,,,,,,,,,,,,,,,,,,,,,,,,,,,,,,,,,,,,,,,,,,,,,,,,,,,,,,,,,,,"[""comma""]",0,31,0,31,0,1,[0.459400000005985],,
,,,,,,,,,,,,5bb8b7cc56161d0001002faa,30,Mężczyzna,2022-06-11_09h28.04.477,task,2021.1.4,Win32,29.99940001,6299f149e92ead563fba08ef,62a443e9fd87df03ecfbaa57,,,,,,,,,,,,,,,,,,,,,,,,,,,,,,,,,,,,,,,,,,,,,,,,,,,,,,,,,,,,,,,,,,,,,,,,,,,,,,,,,,,,,,,,,,,,"[""comma""]",0,32,0,32,0,1,[0.3569999999999709],,
,,,,,,,,,,,,5bb8b7cc56161d0001002faa,30,Mężczyzna,2022-06-11_09h28.04.477,task,2021.1.4,Win32,29.99940001,6299f149e92ead563fba08ef,62a443e9fd87df03ecfbaa57,,,,,,,,,,,,,,,,,,,,,,,,,,,,,,,,,,,,,,,,,,,,,,,,,,,,,,,,,,,,,,,,,,,,,,,,,,,,,,,,,,,,,,,,,,,,"[""comma""]",0,33,0,33,0,1,[0.35620000001790686],,
,,,,,,,,,,,,5bb8b7cc56161d0001002faa,30,Mężczyzna,2022-06-11_09h28.04.477,task,2021.1.4,Win32,29.99940001,6299f149e92ead563fba08ef,62a443e9fd87df03ecfbaa57,,,,,,,,,,,,,,,,,,,,,,,,,,,,,,,,,,,,,,,,,,,,,,,,,,,,,,,,,,,,,,,,,,,,,,,,,,,,,,,,,,,,,,,,,,,,"[""period""]",0,34,0,34,0,1,[0.3794000000059441],,
,,,,,,,,,,,,5bb8b7cc56161d0001002faa,30,Mężczyzna,2022-06-11_09h28.04.477,task,2021.1.4,Win32,29.99940001,6299f149e92ead563fba08ef,62a443e9fd87df03ecfbaa57,,,,,,,,,,,,,,,,,,,,,,,,,,,,,,,,,,,,,,,,,,,,,,,,,,,,,,,,,,,,,,,,,,,,,,,,,,,,,,,,,,,,,,,,,,,,"[""comma"",""period""]",0,35,0,35,0,1,"[0.3586999999880618,1.9080000000000155]",,
,,,,,,,,,,,,5bb8b7cc56161d0001002faa,30,Mężczyzna,2022-06-11_09h28.04.477,task,2021.1.4,Win32,29.99940001,6299f149e92ead563fba08ef,62a443e9fd87df03ecfbaa57,,,,,,,,,,,,,,,,,,,,,,,,,,,,,,,,,,,,,,,,,,,,,,,,,,,,,,,,,,,,,,,,,,,,,,,,,,,,,,,,,,,,,,,,,,,,"[""period""]",0,36,0,36,0,1,[1.6970000000000027],,
,,,,,,,,,,,,5bb8b7cc56161d0001002faa,30,Mężczyzna,2022-06-11_09h28.04.477,task,2021.1.4,Win32,29.99940001,6299f149e92ead563fba08ef,62a443e9fd87df03ecfbaa57,,,,,,,,,,,,,,,,,,,,,,,,,,,,,,,,,,,,,,,,,,,,,,,,,,,,,,,,,,,,,,,,,,,,,,,,,,,,,,,,,,,,,,,,,,,,,0,37,0,37,0,1,,,
,,,,,,,,,,,,5bb8b7cc56161d0001002faa,30,Mężczyzna,2022-06-11_09h28.04.477,task,2021.1.4,Win32,29.99940001,6299f149e92ead563fba08ef,62a443e9fd87df03ecfbaa57,,,,,,,,,,,,,,,,,,,,,,,,,,,,,,,,,,,,,,,,,,,,,,,,,,,,,,,,,,,,,,,,,,,,,,,,,,,,,,,,,,,,,,,,,,,,"[""comma""]",0,38,0,38,0,1,[0.38289999997618906],,
,,,,,,,,,,,,5bb8b7cc56161d0001002faa,30,Mężczyzna,2022-06-11_09h28.04.477,task,2021.1.4,Win32,29.99940001,6299f149e92ead563fba08ef,62a443e9fd87df03ecfbaa57,,,,,,,,,,,,,,,,,,,,,,,,,,,,,,,,,,,,,,,,,,,,,,,,,,,,,,,,,,,,,,,,,,,,,,,,,,,,,,,,,,,,,,,,,,,,"[""comma""]",0,39,0,39,0,1,[0.4343999999761081],,
,,,,,,,,,,,,5bb8b7cc56161d0001002faa,30,Mężczyzna,2022-06-11_09h28.04.477,task,2021.1.4,Win32,29.99940001,6299f149e92ead563fba08ef,62a443e9fd87df03ecfbaa57,,,,,,,,,,,,,,,,,,,,,,,,,,,,,,,,,,,,,,,,,,,,,,,,,,,,,,,,,,,,,,,,,,,,,,,,,,,,,,,,,,,,,,,,,,,,"[""period""]",0,40,0,40,0,1,[0.39400000000000546],,
,,,,,,,,,,,,5bb8b7cc56161d0001002faa,30,Mężczyzna,2022-06-11_09h28.04.477,task,2021.1.4,Win32,29.99940001,6299f149e92ead563fba08ef,62a443e9fd87df03ecfbaa57,,,,,,,,,,,,,,,,,,,,,,,,,,,,,,,,,,,,,,,,,,,,,,,,,,,,,,,,,,,,,,,,,,,,,,,,,,,,,,,,,,,,,,,,,,,,"[""comma""]",0,41,0,41,0,1,[0.3849999999999909],,
,,,,,,,,,,,,5bb8b7cc56161d0001002faa,30,Mężczyzna,2022-06-11_09h28.04.477,task,2021.1.4,Win32,29.99940001,6299f149e92ead563fba08ef,62a443e9fd87df03ecfbaa57,,,,,,,,,,,,,,,,,,,,,,,,,,,,,,,,,,,,,,,,,,,,,,,,,,,,,,,,,,,,,,,,,,,,,,,,,,,,,,,,,,,,,,,,,,,,"[""period""]",0,42,0,42,0,1,[0.31140000000596046],,
,,,,,,,,,,,,5bb8b7cc56161d0001002faa,30,Mężczyzna,2022-06-11_09h28.04.477,task,2021.1.4,Win32,29.99940001,6299f149e92ead563fba08ef,62a443e9fd87df03ecfbaa57,,,,,,,,,,,,,,,,,,,,,,,,,,,,,,,,,,,,,,,,,,,,,,,,,,,,,,,,,,,,,,,,,,,,,,,,,,,,,,,,,,,,,,,,,,,,"[""period""]",0,43,0,43,0,1,[0.21249999999997726],,
,,,,,,,,,,,,5bb8b7cc56161d0001002faa,30,Mężczyzna,2022-06-11_09h28.04.477,task,2021.1.4,Win32,29.99940001,6299f149e92ead563fba08ef,62a443e9fd87df03ecfbaa57,,,,,,,,,,,,,,,,,,,,,,,,,,,,,,,,,,,,,,,,,,,,,,,,,,,,,,,,,,,,,,,,,,,,,,,,,,,,,,,,,,,,,,,,,,,,"[""period""]",0,44,0,44,0,1,[0.00890000000595137],,
,,,,,,,,,,,,5bb8b7cc56161d0001002faa,30,Mężczyzna,2022-06-11_09h28.04.477,task,2021.1.4,Win32,29.99940001,6299f149e92ead563fba08ef,62a443e9fd87df03ecfbaa57,,,,,,,,,,,,,,,,,,,,,,,,,,,,,,,,,,,,,,,,,,,,,,,,,,,,,,,,,,,,,,,,,,,,,,,,,,,,,,,,,,,,,,,,,,,,"[""comma""]",0,45,0,45,0,1,[0.37420000001793596],,
,,,,,,,,,,,,5bb8b7cc56161d0001002faa,30,Mężczyzna,2022-06-11_09h28.04.477,task,2021.1.4,Win32,29.99940001,6299f149e92ead563fba08ef,62a443e9fd87df03ecfbaa57,,,,,,,,,,,,,,,,,,,,,,,,,,,,,,,,,,,,,,,,,,,,,,,,,,,,,,,,,,,,,,,,,,,,,,,,,,,,,,,,,,,,,,,,,,,,"[""period""]",0,46,0,46,0,1,[0.37519999998812636],,
,,,,,,,,,,,,5bb8b7cc56161d0001002faa,30,Mężczyzna,2022-06-11_09h28.04.477,task,2021.1.4,Win32,29.99940001,6299f149e92ead563fba08ef,62a443e9fd87df03ecfbaa57,,,,,,,,,,,,,,,,,,,,,,,,,,,,,,,,,,,,,,,,,,,,,,,,,,,,,,,,,,,,,,,,,,,,,,,,,,,,,,,,,,,,,,,,,,,,"[""comma""]",0,47,0,47,0,1,[0.07129999998210224],,
,,,,,,,,,,,,5bb8b7cc56161d0001002faa,30,Mężczyzna,2022-06-11_09h28.04.477,task,2021.1.4,Win32,29.99940001,6299f149e92ead563fba08ef,62a443e9fd87df03ecfbaa57,,,,,,,,,,,,,,,,,,,,,,,,,,,,,,,,,,,,,,,,,,,,,,,,,,,,,,,,,,,,,,,,,,,,,,,,,,,,,,,,,,,,,,,,,,,,"[""comma""]",0,48,0,48,0,1,[0.3521999999879881],,
,,,,,,,,,,,,5bb8b7cc56161d0001002faa,30,Mężczyzna,2022-06-11_09h28.04.477,task,2021.1.4,Win32,29.99940001,6299f149e92ead563fba08ef,62a443e9fd87df03ecfbaa57,,,,,,,,,,,,,,,,,,,,,,,,,,,,,,,,,,,,,,,,,,,,,,,,,,,,,,,,,,,,,,,,,,,,,,,,,,,,,,,,,,,,,,,,,,,,"[""comma""]",0,49,0,49,0,1,[0.8393000000119173],,
,,,,,,,,,,,,5bb8b7cc56161d0001002faa,30,Mężczyzna,2022-06-11_09h28.04.477,task,2021.1.4,Win32,29.99940001,6299f149e92ead563fba08ef,62a443e9fd87df03ecfbaa57,,,,,,,,,,,,,,,,,,,,,,,,,,,,,,,,,,,,,,,,,,,,,,,,,,,,,,,,,,,,,,,,,,,,,,,,,,,,,,,,,,,,,,,,,,,,"[""comma""]",0,50,0,50,0,1,[0.48850000000004457],,
,,,,,,,,,,,,5bb8b7cc56161d0001002faa,30,Mężczyzna,2022-06-11_09h28.04.477,task,2021.1.4,Win32,29.99940001,6299f149e92ead563fba08ef,62a443e9fd87df03ecfbaa57,,,,,,,,,,,,,,,,,,,,,,,,,,,,,,,,,,,,,,,,,,,,,,,,,,,,,,,,,,,,,,,,,,,,,,,,,,,,,,,,,,,,,,,,,,,,"[""period""]",0,51,0,51,0,1,[0.3742999999820995],,
,,,,,,,,,,,,5bb8b7cc56161d0001002faa,30,Mężczyzna,2022-06-11_09h28.04.477,task,2021.1.4,Win32,29.99940001,6299f149e92ead563fba08ef,62a443e9fd87df03ecfbaa57,,,,,,,,,,,,,,,,,,,,,,,,,,,,,,,,,,,,,,,,,,,,,,,,,,,,,,,,,,,,,,,,,,,,,,,,,,,,,,,,,,,,,,,,,,,,"[""comma""]",0,52,0,52,0,1,[0.39449999999999363],,
,,,,,,,,,,,,5bb8b7cc56161d0001002faa,30,Mężczyzna,2022-06-11_09h28.04.477,task,2021.1.4,Win32,29.99940001,6299f149e92ead563fba08ef,62a443e9fd87df03ecfbaa57,,,,,,,,,,,,,,,,,,,,,,,,,,,,,,,,,,,,,,,,,,,,,,,,,,,,,,,,,,,,,,,,,,,,,,,,,,,,,,,,,,,,,,,,,,,,"[""comma""]",0,53,0,53,0,1,[0.4334999999999809],,
,,,,,,,,,,,,5bb8b7cc56161d0001002faa,30,Mężczyzna,2022-06-11_09h28.04.477,task,2021.1.4,Win32,29.99940001,6299f149e92ead563fba08ef,62a443e9fd87df03ecfbaa57,,,,,,,,,,,,,,,,,,,,,,,,,,,,,,,,,,,,,,,,,,,,,,,,,,,,,,,,,,,,,,,,,,,,,,,,,,,,,,,,,,,,,,,,,,,,"[""period""]",0,54,0,54,0,1,[0.39400000000000546],,
,,,,,,,,,,,,5bb8b7cc56161d0001002faa,30,Mężczyzna,2022-06-11_09h28.04.477,task,2021.1.4,Win32,29.99940001,6299f149e92ead563fba08ef,62a443e9fd87df03ecfbaa57,,,,,,,,,,,,,,,,,,,,,,,,,,,,,,,,,,,,,,,,,,,,,,,,,,,,,,,,,,,,,,,,,,,,,,,,,,,,,,,,,,,,,,,,,,,,"[""period""]",0,55,0,55,0,1,[0.3850999999940541],,
,,,,,,,,,,,,5bb8b7cc56161d0001002faa,30,Mężczyzna,2022-06-11_09h28.04.477,task,2021.1.4,Win32,29.99940001,6299f149e92ead563fba08ef,62a443e9fd87df03ecfbaa57,,,,,,,,,,,,,,,,,,,,,,,,,,,,,,,,,,,,,,,,,,,,,,,,,,,,,,,,,,,,,,,,,,,,,,,,,,,,,,,,,,,,,,,,,,,,"[""period""]",0,56,0,56,0,1,[0.34139999997614723],,
,,,,,,,,,,,,5bb8b7cc56161d0001002faa,30,Mężczyzna,2022-06-11_09h28.04.477,task,2021.1.4,Win32,29.99940001,6299f149e92ead563fba08ef,62a443e9fd87df03ecfbaa57,,,,,,,,,,,,,,,,,,,,,,,,,,,,,,,,,,,,,,,,,,,,,,,,,,,,,,,,,,,,,,,,,,,,,,,,,,,,,,,,,,,,,,,,,,,,"[""comma""]",0,57,0,57,0,1,[0.4257000000179687],,
,,,,,,,,,,,,5bb8b7cc56161d0001002faa,30,Mężczyzna,2022-06-11_09h28.04.477,task,2021.1.4,Win32,29.99940001,6299f149e92ead563fba08ef,62a443e9fd87df03ecfbaa57,,,,,,,,,,,,,,,,,,,,,,,,,,,,,,,,,,,,,,,,,,,,,,,,,,,,,,,,,,,,,,,,,,,,,,,,,,,,,,,,,,,,,,,,,,,,"[""period""]",0,58,0,58,0,1,[0.38840000000595865],,
,,,,,,,,,,,,5bb8b7cc56161d0001002faa,30,Mężczyzna,2022-06-11_09h28.04.477,task,2021.1.4,Win32,29.99940001,6299f149e92ead563fba08ef,62a443e9fd87df03ecfbaa57,,,,,,,,,,,,,,,,,,,,,,,,,,,,,,,,,,,,,,,,,,,,,,,,,,,,,,,,,,,,,,,,,,,,,,,,,,,,,,,,,,,,,,,,,,,,"[""period""]",0,59,0,59,0,1,[0.3749000000060505],,
,,,,,,,,,,,,5bb8b7cc56161d0001002faa,30,Mężczyzna,2022-06-11_09h28.04.477,task,2021.1.4,Win32,29.99940001,6299f149e92ead563fba08ef,62a443e9fd87df03ecfbaa57,,,,,,,,,,,,,,,,,,,,,,,,,,,,,,,,,,,,,,,,,,,,,,,,,,,,,,,,,,,,,,,,,,,,,,,,,,,,,,,,,,,,,,,,,,,,"[""comma""]",0,60,0,60,0,1,[0.3774000000058777],,
,,,,,,,,,,,,5bb8b7cc56161d0001002faa,30,Mężczyzna,2022-06-11_09h28.04.477,task,2021.1.4,Win32,29.99940001,6299f149e92ead563fba08ef,62a443e9fd87df03ecfbaa57,,,,,,,,,,,,,,,,,,,,,,,,,,,,,,,,,,,,,,,,,,,,,,,,,,,,,,,,,,,,,,,,,,,,,,,,,,,,,,,,,,,,,,,,,,,,"[""period""]",0,61,0,61,0,1,[0.37390000000596046],,
,,,,,,,,,,,,5bb8b7cc56161d0001002faa,30,Mężczyzna,2022-06-11_09h28.04.477,task,2021.1.4,Win32,29.99940001,6299f149e92ead563fba08ef,62a443e9fd87df03ecfbaa57,,,,,,,,,,,,,,,,,,,,,,,,,,,,,,,,,,,,,,,,,,,,,,,,,,,,,,,,,,,,,,,,,,,,,,,,,,,,,,,,,,,,,,,,,,,,"[""comma""]",0,62,0,62,0,1,[0.30869999998810727],,
,,,,,,,,,,,,5bb8b7cc56161d0001002faa,30,Mężczyzna,2022-06-11_09h28.04.477,task,2021.1.4,Win32,29.99940001,6299f149e92ead563fba08ef,62a443e9fd87df03ecfbaa57,,,,,,,,,,,,,,,,,,,,,,,,,,,,,,,,,,,,,,,,,,,,,,,,,,,,,,,,,,,,,,,,,,,,,,,,,,,,,,,,,,,,,,,,,,,,"[""period""]",0,63,0,63,0,1,[0.4085999999940668],,
,,,,,,,,,,,,5bb8b7cc56161d0001002faa,30,Mężczyzna,2022-06-11_09h28.04.477,task,2021.1.4,Win32,29.99940001,6299f149e92ead563fba08ef,62a443e9fd87df03ecfbaa57,,,,,,,,,,,,,,,,,,,,,,,,,,,,,,,,,,,,,,,,,,,,,,,,,,,,,,,,,,,,,,,,,,,,,,,,,,,,,,,,,,,,,,,,,,,,"[""period""]",0,64,0,64,0,1,[0.32830000001195003],,
,,,,,,,,,,,,5bb8b7cc56161d0001002faa,30,Mężczyzna,2022-06-11_09h28.04.477,task,2021.1.4,Win32,29.99940001,6299f149e92ead563fba08ef,62a443e9fd87df03ecfbaa57,,,,,,,,,,,,,,,,,,,,,,,,,,,,,,,,,,,,,,,,,,,,,,,,,,,,,,,,,,,,,,,,,,,,,,,,,,,,,,,,,,,,,,,,,,,,"[""period""]",0,65,0,65,0,1,[0.39409999999406864],,
,,,,,,,,,,,,5bb8b7cc56161d0001002faa,30,Mężczyzna,2022-06-11_09h28.04.477,task,2021.1.4,Win32,29.99940001,6299f149e92ead563fba08ef,62a443e9fd87df03ecfbaa57,,,,,,,,,,,,,,,,,,,,,,,,,,,,,,,,,,,,,,,,,,,,,,,,,,,,,,,,,,,,,,,,,,,,,,,,,,,,,,,,,,,,,,,,,,,,"[""comma""]",0,66,0,66,0,1,[0.6783999999761363],,
,,,,,,,,,,,,5bb8b7cc56161d0001002faa,30,Mężczyzna,2022-06-11_09h28.04.477,task,2021.1.4,Win32,29.99940001,6299f149e92ead563fba08ef,62a443e9fd87df03ecfbaa57,,,,,,,,,,,,,,,,,,,,,,,,,,,,,,,,,,,,,,,,,,,,,,,,,,,,,,,,,,,,,,,,,,,,,,,,,,,,,,,,,,,,,,,,,,,,"[""comma""]",0,67,0,67,0,1,[0.3710999999940441],,
,,,,,,,,,,,,5bb8b7cc56161d0001002faa,30,Mężczyzna,2022-06-11_09h28.04.477,task,2021.1.4,Win32,29.99940001,6299f149e92ead563fba08ef,62a443e9fd87df03ecfbaa57,,,,,,,,,,,,,,,,,,,,,,,,,,,,,,,,,,,,,,,,,,,,,,,,,,,,,,,,,,,,,,,,,,,,,,,,,,,,,,,,,,,,,,,,,,,,"[""period""]",0,68,0,68,0,1,[0.35750000000007276],,
,,,,,,,,,,,,5bb8b7cc56161d0001002faa,30,Mężczyzna,2022-06-11_09h28.04.477,task,2021.1.4,Win32,29.99940001,6299f149e92ead563fba08ef,62a443e9fd87df03ecfbaa57,,,,,,,,,,,,,,,,,,,,,,,,,,,,,,,,,,,,,,,,,,,,,,,,,,,,,,,,,,,,,,,,,,,,,,,,,,,,,,,,,,,,,,,,,,,,"[""comma""]",0,69,0,69,0,1,[0.42169999998816365],,
,,,,,,,,,,,,5bb8b7cc56161d0001002faa,30,Mężczyzna,2022-06-11_09h28.04.477,task,2021.1.4,Win32,29.99940001,6299f149e92ead563fba08ef,62a443e9fd87df03ecfbaa57,,,,,,,,,,,,,,,,,,,,,,,,,,,,,,,,,,,,,,,,,,,,,,,,,,,,,,,,,,,,,,,,,,,,,,,,,,,,,,,,,,,,,,,,,,,,"[""comma""]",0,70,0,70,0,1,[0.36390000000596956],,
,,,,,,,,,,,,5bb8b7cc56161d0001002faa,30,Mężczyzna,2022-06-11_09h28.04.477,task,2021.1.4,Win32,29.99940001,6299f149e92ead563fba08ef,62a443e9fd87df03ecfbaa57,,,,,,,,,,,,,,,,,,,,,,,,,,,,,,,,,,,,,,,,,,,,,,,,,,,,,,,,,,,,,,,,,,,,,,,,,,,,,,,,,,,,,,,,,,,,"[""comma""]",0,71,0,71,0,1,[0.5441000000238319],,
,,,,,,,,,,,,5bb8b7cc56161d0001002faa,30,Mężczyzna,2022-06-11_09h28.04.477,task,2021.1.4,Win32,29.99940001,6299f149e92ead563fba08ef,62a443e9fd87df03ecfbaa57,,,,,,,,,,,,,,,,,,,,,,,,,,,,,,,,,,,,,,,,,,,,,,,,,,,,,,,,,,,,,,,,,,,,,,,,,,,,,,,,,,,,,,,,,,,,"[""period""]",0,72,0,72,0,1,[0.37999999999999545],,
,,,,,,,,,,,,5bb8b7cc56161d0001002faa,30,Mężczyzna,2022-06-11_09h28.04.477,task,2021.1.4,Win32,29.99940001,6299f149e92ead563fba08ef,62a443e9fd87df03ecfbaa57,,,,,,,,,,,,,,,,,,,,,,,,,,,,,,,,,,,,,,,,,,,,,,,,,,,,,,,,,,,,,,,,,,,,,,,,,,,,,,,,,,,,,,,,,,,,"[""comma""]",0,73,0,73,0,1,[0.43000000000006366],,
,,,,,,,,,,,,5bb8b7cc56161d0001002faa,30,Mężczyzna,2022-06-11_09h28.04.477,task,2021.1.4,Win32,29.99940001,6299f149e92ead563fba08ef,62a443e9fd87df03ecfbaa57,,,,,,,,,,,,,,,,,,,,,,,,,,,,,,,,,,,,,,,,,,,,,,,,,,,,,,,,,,,,,,,,,,,,,,,,,,,,,,,,,,,,,,,,,,,,"[""period""]",0,74,0,74,0,1,[0.39440000000604414],,
,,,,,,,,,,,,5bb8b7cc56161d0001002faa,30,Mężczyzna,2022-06-11_09h28.04.477,task,2021.1.4,Win32,29.99940001,6299f149e92ead563fba08ef,62a443e9fd87df03ecfbaa57,,,,,,,,,,,,,,,,,,,,,,,,,,,,,,,,,,,,,,,,,,,,,,,,,,,,,,,,,,,,,,,,,,,,,,,,,,,,,,,,,,,,,,,,,,,,"[""period""]",0,75,0,75,0,1,[0.3914999999999509],,
,,,,,,,,,,,,5bb8b7cc56161d0001002faa,30,Mężczyzna,2022-06-11_09h28.04.477,task,2021.1.4,Win32,29.99940001,6299f149e92ead563fba08ef,62a443e9fd87df03ecfbaa57,,,,,,,,,,,,,,,,,,,,,,,,,,,,,,,,,,,,,,,,,,,,,,,,,,,,,,,,,,,,,,,,,,,,,,,,,,,,,,,,,,,,,,,,,,,,"[""period""]",0,76,0,76,0,1,[0.37579999998206404],,
,,,,,,,,,,,,5bb8b7cc56161d0001002faa,30,Mężczyzna,2022-06-11_09h28.04.477,task,2021.1.4,Win32,29.99940001,6299f149e92ead563fba08ef,62a443e9fd87df03ecfbaa57,,,,,,,,,,,,,,,,,,,,,,,,,,,,,,,,,,,,,,,,,,,,,,,,,,,,,,,,,,,,,,,,,,,,,,,,,,,,,,,,,,,,,,,,,,,,"[""comma""]",0,77,0,77,0,1,[0.3634999999999309],,
,,,,,,,,,,,,5bb8b7cc56161d0001002faa,30,Mężczyzna,2022-06-11_09h28.04.477,task,2021.1.4,Win32,29.99940001,6299f149e92ead563fba08ef,62a443e9fd87df03ecfbaa57,,,,,,,,,,,,,,,,,,,,,,,,,,,,,,,,,,,,,,,,,,,,,,,,,,,,,,,,,,,,,,,,,,,,,,,,,,,,,,,,,,,,,,,,,,,,"[""comma""]",0,78,0,78,0,1,[0.38519999998811727],,
,,,,,,,,,,,,5bb8b7cc56161d0001002faa,30,Mężczyzna,2022-06-11_09h28.04.477,task,2021.1.4,Win32,29.99940001,6299f149e92ead563fba08ef,62a443e9fd87df03ecfbaa57,,,,,,,,,,,,,,,,,,,,,,,,,,,,,,,,,,,,,,,,,,,,,,,,,,,,,,,,,,,,,,,,,,,,,,,,,,,,,,,,,,,,,,,,,,,,"[""period""]",0,79,0,79,0,1,[0.36409999999398224],,
,,,,,,,,,,,,5bb8b7cc56161d0001002faa,30,Mężczyzna,2022-06-11_09h28.04.477,task,2021.1.4,Win32,29.99940001,6299f149e92ead563fba08ef,62a443e9fd87df03ecfbaa57,,,,,,,,,,,,,,,,,,,,,,,,,,,,,,,,,,,,,,,,,,,,,,,,,,,,,,,,,,,,,,,,,,,,,,,,,,,,,,,,,,,,,,,,,,,,"[""comma""]",0,80,0,80,0,1,[0.3624999999999545],,
,,,,,,,,,,,,5bb8b7cc56161d0001002faa,30,Mężczyzna,2022-06-11_09h28.04.477,task,2021.1.4,Win32,29.99940001,6299f149e92ead563fba08ef,62a443e9fd87df03ecfbaa57,,,,,,,,,,,,,,,,,,,,,,,,,,,,,,,,,,,,,,,,,,,,,,,,,,,,,,,,,,,,,,,,,,,,,,,,,,,,,,,,,,,,,,,,,,,,"[""period""]",0,81,0,81,0,1,[0.36640000000602413],,
,,,,,,,,,,,,5bb8b7cc56161d0001002faa,30,Mężczyzna,2022-06-11_09h28.04.477,task,2021.1.4,Win32,29.99940001,6299f149e92ead563fba08ef,62a443e9fd87df03ecfbaa57,,,,,,,,,,,,,,,,,,,,,,,,,,,,,,,,,,,,,,,,,,,,,,,,,,,,,,,,,,,,,,,,,,,,,,,,,,,,,,,,,,,,,,,,,,,,"[""comma""]",0,82,0,82,0,1,[0.41040000000600685],,
,,,,,,,,,,,,5bb8b7cc56161d0001002faa,30,Mężczyzna,2022-06-11_09h28.04.477,task,2021.1.4,Win32,29.99940001,6299f149e92ead563fba08ef,62a443e9fd87df03ecfbaa57,,,,,,,,,,,,,,,,,,,,,,,,,,,,,,,,,,,,,,,,,,,,,,,,,,,,,,,,,,,,,,,,,,,,,,,,,,,,,,,,,,,,,,,,,,,,"[""comma""]",0,83,0,83,0,1,[0.49819999998805997],,
,,,,,,,,,,,,5bb8b7cc56161d0001002faa,30,Mężczyzna,2022-06-11_09h28.04.477,task,2021.1.4,Win32,29.99940001,6299f149e92ead563fba08ef,62a443e9fd87df03ecfbaa57,,,,,,,,,,,,,,,,,,,,,,,,,,,,,,,,,,,,,,,,,,,,,,,,,,,,,,,,,,,,,,,,,,,,,,,,,,,,,,,,,,,,,,,,,,,,"[""period""]",0,84,0,84,0,1,[0.4215000000000373],,
,,,,,,,,,,,,5bb8b7cc56161d0001002faa,30,Mężczyzna,2022-06-11_09h28.04.477,task,2021.1.4,Win32,29.99940001,6299f149e92ead563fba08ef,62a443e9fd87df03ecfbaa57,,,,,,,,,,,,,,,,,,,,,,,,,,,,,,,,,,,,,,,,,,,,,,,,,,,,,,,,,,,,,,,,,,,,,,,,,,,,,,,,,,,,,,,,,,,,"[""comma""]",0,85,0,85,0,1,[0.6906000000238919],,
,,,,,,,,,,,,5bb8b7cc56161d0001002faa,30,Mężczyzna,2022-06-11_09h28.04.477,task,2021.1.4,Win32,29.99940001,6299f149e92ead563fba08ef,62a443e9fd87df03ecfbaa57,,,,,,,,,,,,,,,,,,,,,,,,,,,,,,,,,,,,,,,,,,,,,,,,,,,,,,,,,,,,,,,,,,,,,,,,,,,,,,,,,,,,,,,,,,,,"[""period""]",0,86,0,86,0,1,[0.5165000000000646],,
,,,,,,,,,,,,5bb8b7cc56161d0001002faa,30,Mężczyzna,2022-06-11_09h28.04.477,task,2021.1.4,Win32,29.99940001,6299f149e92ead563fba08ef,62a443e9fd87df03ecfbaa57,,,,,,,,,,,,,,,,,,,,,,,,,,,,,,,,,,,,,,,,,,,,,,,,,,,,,,,,,,,,,,,,,,,,,,,,,,,,,,,,,,,,,,,,,,,,"[""period""]",0,87,0,87,0,1,[0.521900000005985],,
,,,,,,,,,,,,5bb8b7cc56161d0001002faa,30,Mężczyzna,2022-06-11_09h28.04.477,task,2021.1.4,Win32,29.99940001,6299f149e92ead563fba08ef,62a443e9fd87df03ecfbaa57,,,,,,,,,,,,,,,,,,,,,,,,,,,,,,,,,,,,,,,,,,,,,,,,,,,,,,,,,,,,,,,,,,,,,,,,,,,,,,,,,,,,,,,,,,,,"[""period""]",0,88,0,88,0,1,[0.41619999998806634],,
,,,,,,,,,,,,5bb8b7cc56161d0001002faa,30,Mężczyzna,2022-06-11_09h28.04.477,task,2021.1.4,Win32,29.99940001,6299f149e92ead563fba08ef,62a443e9fd87df03ecfbaa57,,,,,,,,,,,,,,,,,,,,,,,,,,,,,,,,,,,,,,,,,,,,,,,,,,,,,,,,,,,,,,,,,,,,,,,,,,,,,,,,,,,,,,,,,,,,"[""period""]",0,89,0,89,0,1,[0.49899999999990996],,
,,,,,,,,,,,,5bb8b7cc56161d0001002faa,30,Mężczyzna,2022-06-11_09h28.04.477,task,2021.1.4,Win32,29.99940001,6299f149e92ead563fba08ef,62a443e9fd87df03ecfbaa57,,,,,,,,,,,,,,,,,,,,,,,,,,,,,,,,,,,,,,,,,,,,,,,,,,,,,,,,,,,,,,,,,,,,,,,,,,,,,,,,,,,,,,,,,,,,"[""comma""]",0,90,0,90,0,1,[0.4554000000059659],,
,,,,,,,,,,,,5bb8b7cc56161d0001002faa,30,Mężczyzna,2022-06-11_09h28.04.477,task,2021.1.4,Win32,29.99940001,6299f149e92ead563fba08ef,62a443e9fd87df03ecfbaa57,,,,,,,,,,,,,,,,,,,,,,,,,,,,,,,,,,,,,,,,,,,,,,,,,,,,,,,,,,,,,,,,,,,,,,,,,,,,,,,,,,,,,,,,,,,,"[""comma""]",0,91,0,91,0,1,[0.5169000000059896],,
,,,,,,,,,,,,5bb8b7cc56161d0001002faa,30,Mężczyzna,2022-06-11_09h28.04.477,task,2021.1.4,Win32,29.99940001,6299f149e92ead563fba08ef,62a443e9fd87df03ecfbaa57,,,,,,,,,,,,,,,,,,,,,,,,,,,,,,,,,,,,,,,,,,,,,,,,,,,,,,,,,,,,,,,,,,,,,,,,,,,,,,,,,,,,,,,,,,,,"[""period""]",0,92,0,92,0,1,[0.37609999999403954],,
,,,,,,,,,,,,5bb8b7cc56161d0001002faa,30,Mężczyzna,2022-06-11_09h28.04.477,task,2021.1.4,Win32,29.99940001,6299f149e92ead563fba08ef,62a443e9fd87df03ecfbaa57,,,,,,,,,,,,,,,,,,,,,,,,,,,,,,,,,,,,,,,,,,,,,,,,,,,,,,,,,,,,,,,,,,,,,,,,,,,,,,,,,,,,,,,,,,,,"[""period""]",0,93,0,93,0,1,[0.07480000001191911],,
,,,,,,,,,,,,5bb8b7cc56161d0001002faa,30,Mężczyzna,2022-06-11_09h28.04.477,task,2021.1.4,Win32,29.99940001,6299f149e92ead563fba08ef,62a443e9fd87df03ecfbaa57,,,,,,,,,,,,,,,,,,,,,,,,,,,,,,,,,,,,,,,,,,,,,,,,,,,,,,,,,,,,,,,,,,,,,,,,,,,,,,,,,,,,,,,,,,,,"[""comma""]",0,94,0,94,0,1,[0.36270000001786684],,
,,,,,,,,,,,,5bb8b7cc56161d0001002faa,30,Mężczyzna,2022-06-11_09h28.04.477,task,2021.1.4,Win32,29.99940001,6299f149e92ead563fba08ef,62a443e9fd87df03ecfbaa57,,,,,,,,,,,,,,,,,,,,,,,,,,,,,,,,,,,,,,,,,,,,,,,,,,,,,,,,,,,,,,,,,,,,,,,,,,,,,,,,,,,,,,,,,,,,"[""period""]",0,95,0,95,0,1,[0.3785000000000309],,
,,,,,,,,,,,,5bb8b7cc56161d0001002faa,30,Mężczyzna,2022-06-11_09h28.04.477,task,2021.1.4,Win32,29.99940001,6299f149e92ead563fba08ef,62a443e9fd87df03ecfbaa57,,,,,,,,,,,,,,,,,,,,,,,,,,,,,,,,,,,,,,,,,,,,,,,,,,,,,,,,,,,,,,,,,,,,,,,,,,,,,,,,,,,,,,,,,,,,"[""comma""]",0,96,0,96,0,1,[0.4274999999998954],,
,,,,,,,,,,,,5bb8b7cc56161d0001002faa,30,Mężczyzna,2022-06-11_09h28.04.477,task,2021.1.4,Win32,29.99940001,6299f149e92ead563fba08ef,62a443e9fd87df03ecfbaa57,,,,,,,,,,,,,,,,,,,,,,,,,,,,,,,,,,,,,,,,,,,,,,,,,,,,,,,,,,,,,,,,,,,,,,,,,,,,,,,,,,,,,,,,,,,,"[""period""]",0,97,0,97,0,1,[0.5212000000179842],,
,,,,,,,,,,,,5bb8b7cc56161d0001002faa,30,Mężczyzna,2022-06-11_09h28.04.477,task,2021.1.4,Win32,29.99940001,6299f149e92ead563fba08ef,62a443e9fd87df03ecfbaa57,,,,,,,,,,,,,,,,,,,,,,,,,,,,,,,,,,,,,,,,,,,,,,,,,,,,,,,,,,,,,,,,,,,,,,,,,,,,,,,,,,,,,,,,,,,,"[""period""]",0,98,0,98,0,1,[0.4148999999761145],,
,,,,,,,,,,,,5bb8b7cc56161d0001002faa,30,Mężczyzna,2022-06-11_09h28.04.477,task,2021.1.4,Win32,29.99940001,6299f149e92ead563fba08ef,62a443e9fd87df03ecfbaa57,,,,,,,,,,,,,,,,,,,,,,,,,,,,,,,,,,,,,,,,,,,,,,,,,,,,,,,,,,,,,,,,,,,,,,,,,,,,,,,,,,,,,,,,,,,,"[""comma""]",0,99,0,99,0,1,[0.4250999999940177],,
,,,,,,,,,,,,5bb8b7cc56161d0001002faa,30,Mężczyzna,2022-06-11_09h28.04.477,task,2021.1.4,Win32,29.99940001,6299f149e92ead563fba08ef,62a443e9fd87df03ecfbaa57,,,,,,,,,,,,,,,,,,,,,,,,,,,,,,,,,,,,,,,,,,,,,,,,,,,,,,,,,,,,,,,,,,,,,,,,,,,,,,,,,,,,,,,,,,,,"[""comma""]",0,100,0,100,0,1,[0.3835000000000264],,
,,,,,,,,,,,,5bb8b7cc56161d0001002faa,30,Mężczyzna,2022-06-11_09h28.04.477,task,2021.1.4,Win32,29.99940001,6299f149e92ead563fba08ef,62a443e9fd87df03ecfbaa57,,,,,,,,,,,,,,,,,,,,,,,,,,,,,,,,,,,,,,,,,,,,,,,,,,,,,,,,,,,,,,,,,,,,,,,,,,,,,,,,,,,,,,,,,,,,"[""period""]",0,101,0,101,0,1,[0.3288000000119382],,
,,,,,,,,,,,,5bb8b7cc56161d0001002faa,30,Mężczyzna,2022-06-11_09h28.04.477,task,2021.1.4,Win32,29.99940001,6299f149e92ead563fba08ef,62a443e9fd87df03ecfbaa57,,,,,,,,,,,,,,,,,,,,,,,,,,,,,,,,,,,,,,,,,,,,,,,,,,,,,,,,,,,,,,,,,,,,,,,,,,,,,,,,,,,,,,,,,,,,"[""period""]",0,102,0,102,0,1,[0.3297000000178514],,
,,,,,,,,,,,,5bb8b7cc56161d0001002faa,30,Mężczyzna,2022-06-11_09h28.04.477,task,2021.1.4,Win32,29.99940001,6299f149e92ead563fba08ef,62a443e9fd87df03ecfbaa57,,,,,,,,,,,,,,,,,,,,,,,,,,,,,,,,,,,,,,,,,,,,,,,,,,,,,,,,,,,,,,,,,,,,,,,,,,,,,,,,,,,,,,,,,,,,"[""period""]",0,103,0,103,0,1,[0.44379999998204767],,
,,,,,,,,,,,,5bb8b7cc56161d0001002faa,30,Mężczyzna,2022-06-11_09h28.04.477,task,2021.1.4,Win32,29.99940001,6299f149e92ead563fba08ef,62a443e9fd87df03ecfbaa57,,,,,,,,,,,,,,,,,,,,,,,,,,,,,,,,,,,,,,,,,,,,,,,,,,,,,,,,,,,,,,,,,,,,,,,,,,,,,,,,,,,,,,,,,,,,"[""comma""]",0,104,0,104,0,1,[0.3832000000179505],,
,,,,,,,,,,,,5bb8b7cc56161d0001002faa,30,Mężczyzna,2022-06-11_09h28.04.477,task,2021.1.4,Win32,29.99940001,6299f149e92ead563fba08ef,62a443e9fd87df03ecfbaa57,,,,,,,,,,,,,,,,,,,,,,,,,,,,,,,,,,,,,,,,,,,,,,,,,,,,,,,,,,,,,,,,,,,,,,,,,,,,,,,,,,,,,,,,,,,,"[""comma""]",0,105,0,105,0,1,[0.5929999999999609],,
,,,,,,,,,,,,5bb8b7cc56161d0001002faa,30,Mężczyzna,2022-06-11_09h28.04.477,task,2021.1.4,Win32,29.99940001,6299f149e92ead563fba08ef,62a443e9fd87df03ecfbaa57,,,,,,,,,,,,,,,,,,,,,,,,,,,,,,,,,,,,,,,,,,,,,,,,,,,,,,,,,,,,,,,,,,,,,,,,,,,,,,,,,,,,,,,,,,,,"[""period""]",0,106,0,106,0,1,[0.4129000000060614],,
,,,,,,,,,,,,5bb8b7cc56161d0001002faa,30,Mężczyzna,2022-06-11_09h28.04.477,task,2021.1.4,Win32,29.99940001,6299f149e92ead563fba08ef,62a443e9fd87df03ecfbaa57,,,,,,,,,,,,,,,,,,,,,,,,,,,,,,,,,,,,,,,,,,,,,,,,,,,,,,,,,,,,,,,,,,,,,,,,,,,,,,,,,,,,,,,,,,,,"[""comma""]",0,107,0,107,0,1,[0.5012000000178887],,
,,,,,,,,,,,,5bb8b7cc56161d0001002faa,30,Mężczyzna,2022-06-11_09h28.04.477,task,2021.1.4,Win32,29.99940001,6299f149e92ead563fba08ef,62a443e9fd87df03ecfbaa57,,,,,,,,,,,,,,,,,,,,,,,,,,,,,,,,,,,,,,,,,,,,,,,,,,,,,,,,,,,,,,,,,,,,,,,,,,,,,,,,,,,,,,,,,,,,"[""period""]",0,108,0,108,0,1,[0.5199000000060323],,
,,,,,,,,,,,,5bb8b7cc56161d0001002faa,30,Mężczyzna,2022-06-11_09h28.04.477,task,2021.1.4,Win32,29.99940001,6299f149e92ead563fba08ef,62a443e9fd87df03ecfbaa57,,,,,,,,,,,,,,,,,,,,,,,,,,,,,,,,,,,,,,,,,,,,,,,,,,,,,,,,,,,,,,,,,,,,,,,,,,,,,,,,,,,,,,,,,,,,"[""comma""]",0,109,0,109,0,1,[0.4054000000060114],,
,,,,,,,,,,,,5bb8b7cc56161d0001002faa,30,Mężczyzna,2022-06-11_09h28.04.477,task,2021.1.4,Win32,29.99940001,6299f149e92ead563fba08ef,62a443e9fd87df03ecfbaa57,,,,,,,,,,,,,,,,,,,,,,,,,,,,,,,,,,,,,,,,,,,,,,,,,,,,,,,,,,,,,,,,,,,,,,,,,,,,,,,,,,,,,,,,,,,,"[""comma""]",0,110,0,110,0,1,[0.4171999999880427],,
,,,,,,,,,,,,5bb8b7cc56161d0001002faa,30,Mężczyzna,2022-06-11_09h28.04.477,task,2021.1.4,Win32,29.99940001,6299f149e92ead563fba08ef,62a443e9fd87df03ecfbaa57,,,,,,,,,,,,,,,,,,,,,,,,,,,,,,,,,,,,,,,,,,,,,,,,,,,,,,,,,,,,,,,,,,,,,,,,,,,,,,,,,,,,,,,,,,,,"[""comma""]",0,111,0,111,0,1,[0.5874000000059141],,
,,,,,,,,,,,,5bb8b7cc56161d0001002faa,30,Mężczyzna,2022-06-11_09h28.04.477,task,2021.1.4,Win32,29.99940001,6299f149e92ead563fba08ef,62a443e9fd87df03ecfbaa57,,,,,,,,,,,,,,,,,,,,,,,,,,,,,,,,,,,,,,,,,,,,,,,,,,,,,,,,,,,,,,,,,,,,,,,,,,,,,,,,,,,,,,,,,,,,"[""period""]",0,112,0,112,0,1,[0.3490999999939959],,
,,,,,,,,,,,,5bb8b7cc56161d0001002faa,30,Mężczyzna,2022-06-11_09h28.04.477,task,2021.1.4,Win32,29.99940001,6299f149e92ead563fba08ef,62a443e9fd87df03ecfbaa57,,,,,,,,,,,,,,,,,,,,,,,,,,,,,,,,,,,,,,,,,,,,,,,,,,,,,,,,,,,,,,,,,,,,,,,,,,,,,,,,,,,,,,,,,,,,"[""comma""]",0,113,0,113,0,1,[0.39369999998814365],,
,,,,,,,,,,,,5bb8b7cc56161d0001002faa,30,Mężczyzna,2022-06-11_09h28.04.477,task,2021.1.4,Win32,29.99940001,6299f149e92ead563fba08ef,62a443e9fd87df03ecfbaa57,,,,,,,,,,,,,,,,,,,,,,,,,,,,,,,,,,,,,,,,,,,,,,,,,,,,,,,,,,,,,,,,,,,,,,,,,,,,,,,,,,,,,,,,,,,,"[""period""]",0,114,0,114,0,1,[0.40599999999994907],,
,,,,,,,,,,,,5bb8b7cc56161d0001002faa,30,Mężczyzna,2022-06-11_09h28.04.477,task,2021.1.4,Win32,29.99940001,6299f149e92ead563fba08ef,62a443e9fd87df03ecfbaa57,,,,,,,,,,,,,,,,,,,,,,,,,,,,,,,,,,,,,,,,,,,,,,,,,,,,,,,,,,,,,,,,,,,,,,,,,,,,,,,,,,,,,,,,,,,,"[""period""]",0,115,0,115,0,1,[0.39609999999402135],,
,,,,,,,,,,,,5bb8b7cc56161d0001002faa,30,Mężczyzna,2022-06-11_09h28.04.477,task,2021.1.4,Win32,29.99940001,6299f149e92ead563fba08ef,62a443e9fd87df03ecfbaa57,,,,,,,,,,,,,,,,,,,,,,,,,,,,,,,,,,,,,,,,,,,,,,,,,,,,,,,,,,,,,,,,,,,,,,,,,,,,,,,,,,,,,,,,,,,,"[""period""]",0,116,0,116,0,1,[0.45659999999406864],,
,,,,,,,,,,,,5bb8b7cc56161d0001002faa,30,Mężczyzna,2022-06-11_09h28.04.477,task,2021.1.4,Win32,29.99940001,6299f149e92ead563fba08ef,62a443e9fd87df03ecfbaa57,,,,,,,,,,,,,,,,,,,,,,,,,,,,,,,,,,,,,,,,,,,,,,,,,,,,,,,,,,,,,,,,,,,,,,,,,,,,,,,,,,,,,,,,,,,,"[""comma""]",0,117,0,117,0,1,[0.3730999999939968],,
,,,,,,,,,,,,5bb8b7cc56161d0001002faa,30,Mężczyzna,2022-06-11_09h28.04.477,task,2021.1.4,Win32,29.99940001,6299f149e92ead563fba08ef,62a443e9fd87df03ecfbaa57,,,,,,,,,,,,,,,,,,,,,,,,,,,,,,,,,,,,,,,,,,,,,,,,,,,,,,,,,,,,,,,,,,,,,,,,,,,,,,,,,,,,,,,,,,,,"[""comma""]",0,118,0,118,0,1,[1.2034999999999627],,
,,,,,,,,,,,,5bb8b7cc56161d0001002faa,30,Mężczyzna,2022-06-11_09h28.04.477,task,2021.1.4,Win32,29.99940001,6299f149e92ead563fba08ef,62a443e9fd87df03ecfbaa57,,,,,,,,,,,,,,,,,,,,,,,,,,,,,,,,,,,,,,,,,,,,,,,,,,,,,,,,,,,,,,,,,,,,,,,,,,,,,,,,,,,,,,,,,,,,"[""period""]",0,119,0,119,0,1,[0.9596000000237837],,
,,,,,,,,,,,,5bb8b7cc56161d0001002faa,30,Mężczyzna,2022-06-11_09h28.04.477,task,2021.1.4,Win32,29.99940001,6299f149e92ead563fba08ef,62a443e9fd87df03ecfbaa57,,,,,,,,,,,,,,,,,,,,,,,,,,,,,,,,,,,,,,,,,,,,,,,,,,,,,,,,,,,,,,,,,,,,,,,,,,,,,,,,,,,,,,,,,,,,,,,,,,,,space,1.9657
