key_resp_15.keys,key_resp_15.rt,key_resp_13.keys,key_resp_13.corr,ranodm_loop.thisRepN,ranodm_loop.thisTrialN,ranodm_loop.thisN,ranodm_loop.thisIndex,ranodm_loop.ran,participant,Wiek*,Płeć,date,expName,psychopyVersion,OS,frameRate,study_id,session,key_resp_13.rt,key_resp_16.keys,key_resp_16.rt,key_resp_4.keys,key_resp_4.rt,next_letter.thisRepN,next_letter.thisTrialN,next_letter.thisN,next_letter.thisIndex,next_letter.ran,letter,simple_recall,key_resp_5.keys,key_resp_5.rt,simple_recall_corr,simple_recall_corrkeys,next_level.thisRepN,next_level.thisTrialN,next_level.thisN,next_level.thisIndex,next_level.ran,key_resp_2.keys,key_resp_2.rt,digit_answer,key_resp.keys,key_resp.corr,key_resp.rt,RT_list,next_equation.thisRepN,next_equation.thisTrialN,next_equation.thisN,next_equation.thisIndex,next_equation.ran,Task,Trial,Problem,Operation_answer,processing_score,sumRT,meanRT,sumdiff,sd,RT,key_resp_3.keys,key_resp_3.rt,repeat_practice.thisRepN,repeat_practice.thisTrialN,repeat_practice.thisN,repeat_practice.thisIndex,repeat_practice.ran,key_resp_6.keys,key_resp_6.rt,key_resp_11.keys,key_resp_11.corr,operation_correct,repeat_if_wrong_prac.thisRepN,repeat_if_wrong_prac.thisTrialN,repeat_if_wrong_prac.thisN,repeat_if_wrong_prac.thisIndex,repeat_if_wrong_prac.ran,key_resp_11.rt,span_size_prac.thisRepN,span_size_prac.thisTrialN,span_size_prac.thisN,span_size_prac.thisIndex,span_size_prac.ran,complex_recall_practice,key_resp_9.keys,key_resp_9.corr,key_resp_9.rt,complex_prac_corr,span_recall_prac.thisRepN,span_recall_prac.thisTrialN,span_recall_prac.thisN,span_recall_prac.thisIndex,span_recall_prac.ran,key_resp_10.keys,key_resp_10.rt,key_resp_7.keys,key_resp_7.corr,key_resp_7.rt,repeat_if_wrong.thisRepN,repeat_if_wrong.thisTrialN,repeat_if_wrong.thisN,repeat_if_wrong.thisIndex,repeat_if_wrong.ran,span_size.thisRepN,span_size.thisTrialN,span_size.thisN,span_size.thisIndex,span_size.ran,complex_recall,key_resp_8.keys,key_resp_8.corr,key_resp_8.rt,complex_recall_corr,complex_recall_corrkeys,span_recall.thisRepN,span_recall.thisTrialN,span_recall.thisN,span_recall.thisIndex,span_recall.ran,key_resp_12.keys,key_resp_12.rt
space,4.3037,,0,0,0,0,0,1,5bc5fa5248576300014e0739,22,Kobieta,2022-06-04_08h10.06.627,task,2021.1.4,Win32,59.49901827,628b806c463b948bc644b84f,629af7278e6c18f940b51bfd,,,,,,,,,,,,,,,,,,,,,,,,,,,,,,,,,,,,,,,,,,,,,,,,,,,,,,,,,,,,,,,,,,,,,,,,,,,,,,,,,,,,,,,,,,,,,,,,,,,,,,,,
,,"[""comma""]",0,1,0,1,0,1,5bc5fa5248576300014e0739,22,Kobieta,2022-06-04_08h10.06.627,task,2021.1.4,Win32,59.49901827,628b806c463b948bc644b84f,629af7278e6c18f940b51bfd,[0.5486000000238462],,,,,,,,,,,,,,,,,,,,,,,,,,,,,,,,,,,,,,,,,,,,,,,,,,,,,,,,,,,,,,,,,,,,,,,,,,,,,,,,,,,,,,,,,,,,,,,,,,,,,,,
,,"[""comma"",""comma""]",0,2,0,2,0,1,5bc5fa5248576300014e0739,22,Kobieta,2022-06-04_08h10.06.627,task,2021.1.4,Win32,59.49901827,628b806c463b948bc644b84f,629af7278e6c18f940b51bfd,"[0.251299999952316,1.8221999999880794]",,,,,,,,,,,,,,,,,,,,,,,,,,,,,,,,,,,,,,,,,,,,,,,,,,,,,,,,,,,,,,,,,,,,,,,,,,,,,,,,,,,,,,,,,,,,,,,,,,,,,,,
,,,0,3,0,3,0,1,5bc5fa5248576300014e0739,22,Kobieta,2022-06-04_08h10.06.627,task,2021.1.4,Win32,59.49901827,628b806c463b948bc644b84f,629af7278e6c18f940b51bfd,,,,,,,,,,,,,,,,,,,,,,,,,,,,,,,,,,,,,,,,,,,,,,,,,,,,,,,,,,,,,,,,,,,,,,,,,,,,,,,,,,,,,,,,,,,,,,,,,,,,,,,,
,,"[""comma""]",0,4,0,4,0,1,5bc5fa5248576300014e0739,22,Kobieta,2022-06-04_08h10.06.627,task,2021.1.4,Win32,59.49901827,628b806c463b948bc644b84f,629af7278e6c18f940b51bfd,[0.2751999999880752],,,,,,,,,,,,,,,,,,,,,,,,,,,,,,,,,,,,,,,,,,,,,,,,,,,,,,,,,,,,,,,,,,,,,,,,,,,,,,,,,,,,,,,,,,,,,,,,,,,,,,,
,,"[""comma""]",0,5,0,5,0,1,5bc5fa5248576300014e0739,22,Kobieta,2022-06-04_08h10.06.627,task,2021.1.4,Win32,59.49901827,628b806c463b948bc644b84f,629af7278e6c18f940b51bfd,[0.04869999998808083],,,,,,,,,,,,,,,,,,,,,,,,,,,,,,,,,,,,,,,,,,,,,,,,,,,,,,,,,,,,,,,,,,,,,,,,,,,,,,,,,,,,,,,,,,,,,,,,,,,,,,,
,,"[""comma""]",0,6,0,6,0,1,5bc5fa5248576300014e0739,22,Kobieta,2022-06-04_08h10.06.627,task,2021.1.4,Win32,59.49901827,628b806c463b948bc644b84f,629af7278e6c18f940b51bfd,[0.048800000011915756],,,,,,,,,,,,,,,,,,,,,,,,,,,,,,,,,,,,,,,,,,,,,,,,,,,,,,,,,,,,,,,,,,,,,,,,,,,,,,,,,,,,,,,,,,,,,,,,,,,,,,,
,,"[""comma""]",0,7,0,7,0,1,5bc5fa5248576300014e0739,22,Kobieta,2022-06-04_08h10.06.627,task,2021.1.4,Win32,59.49901827,628b806c463b948bc644b84f,629af7278e6c18f940b51bfd,[0.25159999996423466],,,,,,,,,,,,,,,,,,,,,,,,,,,,,,,,,,,,,,,,,,,,,,,,,,,,,,,,,,,,,,,,,,,,,,,,,,,,,,,,,,,,,,,,,,,,,,,,,,,,,,,
,,"[""comma""]",0,8,0,8,0,1,5bc5fa5248576300014e0739,22,Kobieta,2022-06-04_08h10.06.627,task,2021.1.4,Win32,59.49901827,628b806c463b948bc644b84f,629af7278e6c18f940b51bfd,[0.26789999997615865],,,,,,,,,,,,,,,,,,,,,,,,,,,,,,,,,,,,,,,,,,,,,,,,,,,,,,,,,,,,,,,,,,,,,,,,,,,,,,,,,,,,,,,,,,,,,,,,,,,,,,,
,,"[""comma""]",0,9,0,9,0,1,5bc5fa5248576300014e0739,22,Kobieta,2022-06-04_08h10.06.627,task,2021.1.4,Win32,59.49901827,628b806c463b948bc644b84f,629af7278e6c18f940b51bfd,[0.293300000011925],,,,,,,,,,,,,,,,,,,,,,,,,,,,,,,,,,,,,,,,,,,,,,,,,,,,,,,,,,,,,,,,,,,,,,,,,,,,,,,,,,,,,,,,,,,,,,,,,,,,,,,
,,"[""comma""]",0,10,0,10,0,1,5bc5fa5248576300014e0739,22,Kobieta,2022-06-04_08h10.06.627,task,2021.1.4,Win32,59.49901827,628b806c463b948bc644b84f,629af7278e6c18f940b51bfd,[0.26530000001193343],,,,,,,,,,,,,,,,,,,,,,,,,,,,,,,,,,,,,,,,,,,,,,,,,,,,,,,,,,,,,,,,,,,,,,,,,,,,,,,,,,,,,,,,,,,,,,,,,,,,,,,
,,"[""comma""]",0,11,0,11,0,1,5bc5fa5248576300014e0739,22,Kobieta,2022-06-04_08h10.06.627,task,2021.1.4,Win32,59.49901827,628b806c463b948bc644b84f,629af7278e6c18f940b51bfd,[0.26550000000000296],,,,,,,,,,,,,,,,,,,,,,,,,,,,,,,,,,,,,,,,,,,,,,,,,,,,,,,,,,,,,,,,,,,,,,,,,,,,,,,,,,,,,,,,,,,,,,,,,,,,,,,
,,"[""comma""]",0,12,0,12,0,1,5bc5fa5248576300014e0739,22,Kobieta,2022-06-04_08h10.06.627,task,2021.1.4,Win32,59.49901827,628b806c463b948bc644b84f,629af7278e6c18f940b51bfd,[0.2990000000000066],,,,,,,,,,,,,,,,,,,,,,,,,,,,,,,,,,,,,,,,,,,,,,,,,,,,,,,,,,,,,,,,,,,,,,,,,,,,,,,,,,,,,,,,,,,,,,,,,,,,,,,
,,"[""comma"",""comma""]",0,13,0,13,0,1,5bc5fa5248576300014e0739,22,Kobieta,2022-06-04_08h10.06.627,task,2021.1.4,Win32,59.49901827,628b806c463b948bc644b84f,629af7278e6c18f940b51bfd,"[0.2562000000476701,1.9312000000476814]",,,,,,,,,,,,,,,,,,,,,,,,,,,,,,,,,,,,,,,,,,,,,,,,,,,,,,,,,,,,,,,,,,,,,,,,,,,,,,,,,,,,,,,,,,,,,,,,,,,,,,,
,,,0,14,0,14,0,1,5bc5fa5248576300014e0739,22,Kobieta,2022-06-04_08h10.06.627,task,2021.1.4,Win32,59.49901827,628b806c463b948bc644b84f,629af7278e6c18f940b51bfd,,,,,,,,,,,,,,,,,,,,,,,,,,,,,,,,,,,,,,,,,,,,,,,,,,,,,,,,,,,,,,,,,,,,,,,,,,,,,,,,,,,,,,,,,,,,,,,,,,,,,,,,
,,"[""comma"",""comma""]",0,15,0,15,0,1,5bc5fa5248576300014e0739,22,Kobieta,2022-06-04_08h10.06.627,task,2021.1.4,Win32,59.49901827,628b806c463b948bc644b84f,629af7278e6c18f940b51bfd,"[0.28189999997616155,1.6371999999880984]",,,,,,,,,,,,,,,,,,,,,,,,,,,,,,,,,,,,,,,,,,,,,,,,,,,,,,,,,,,,,,,,,,,,,,,,,,,,,,,,,,,,,,,,,,,,,,,,,,,,,,,
,,"[""comma""]",0,16,0,16,0,1,5bc5fa5248576300014e0739,22,Kobieta,2022-06-04_08h10.06.627,task,2021.1.4,Win32,59.49901827,628b806c463b948bc644b84f,629af7278e6c18f940b51bfd,[0.3984000000357639],,,,,,,,,,,,,,,,,,,,,,,,,,,,,,,,,,,,,,,,,,,,,,,,,,,,,,,,,,,,,,,,,,,,,,,,,,,,,,,,,,,,,,,,,,,,,,,,,,,,,,,
,,"[""comma""]",0,17,0,17,0,1,5bc5fa5248576300014e0739,22,Kobieta,2022-06-04_08h10.06.627,task,2021.1.4,Win32,59.49901827,628b806c463b948bc644b84f,629af7278e6c18f940b51bfd,[0.2511999999880743],,,,,,,,,,,,,,,,,,,,,,,,,,,,,,,,,,,,,,,,,,,,,,,,,,,,,,,,,,,,,,,,,,,,,,,,,,,,,,,,,,,,,,,,,,,,,,,,,,,,,,,
,,"[""comma""]",0,18,0,18,0,1,5bc5fa5248576300014e0739,22,Kobieta,2022-06-04_08h10.06.627,task,2021.1.4,Win32,59.49901827,628b806c463b948bc644b84f,629af7278e6c18f940b51bfd,[0.5650999999642181],,,,,,,,,,,,,,,,,,,,,,,,,,,,,,,,,,,,,,,,,,,,,,,,,,,,,,,,,,,,,,,,,,,,,,,,,,,,,,,,,,,,,,,,,,,,,,,,,,,,,,,
,,"[""comma""]",0,19,0,19,0,1,5bc5fa5248576300014e0739,22,Kobieta,2022-06-04_08h10.06.627,task,2021.1.4,Win32,59.49901827,628b806c463b948bc644b84f,629af7278e6c18f940b51bfd,[0.2656999999880725],,,,,,,,,,,,,,,,,,,,,,,,,,,,,,,,,,,,,,,,,,,,,,,,,,,,,,,,,,,,,,,,,,,,,,,,,,,,,,,,,,,,,,,,,,,,,,,,,,,,,,,
,,"[""comma""]",0,20,0,20,0,1,5bc5fa5248576300014e0739,22,Kobieta,2022-06-04_08h10.06.627,task,2021.1.4,Win32,59.49901827,628b806c463b948bc644b84f,629af7278e6c18f940b51bfd,[0.154899999976152],,,,,,,,,,,,,,,,,,,,,,,,,,,,,,,,,,,,,,,,,,,,,,,,,,,,,,,,,,,,,,,,,,,,,,,,,,,,,,,,,,,,,,,,,,,,,,,,,,,,,,,
,,"[""comma""]",0,21,0,21,0,1,5bc5fa5248576300014e0739,22,Kobieta,2022-06-04_08h10.06.627,task,2021.1.4,Win32,59.49901827,628b806c463b948bc644b84f,629af7278e6c18f940b51bfd,[0.29980000001194185],,,,,,,,,,,,,,,,,,,,,,,,,,,,,,,,,,,,,,,,,,,,,,,,,,,,,,,,,,,,,,,,,,,,,,,,,,,,,,,,,,,,,,,,,,,,,,,,,,,,,,,
,,"[""comma""]",0,22,0,22,0,1,5bc5fa5248576300014e0739,22,Kobieta,2022-06-04_08h10.06.627,task,2021.1.4,Win32,59.49901827,628b806c463b948bc644b84f,629af7278e6c18f940b51bfd,[0.632399999976144],,,,,,,,,,,,,,,,,,,,,,,,,,,,,,,,,,,,,,,,,,,,,,,,,,,,,,,,,,,,,,,,,,,,,,,,,,,,,,,,,,,,,,,,,,,,,,,,,,,,,,,
,,"[""comma""]",0,23,0,23,0,1,5bc5fa5248576300014e0739,22,Kobieta,2022-06-04_08h10.06.627,task,2021.1.4,Win32,59.49901827,628b806c463b948bc644b84f,629af7278e6c18f940b51bfd,[0.4153999999761595],,,,,,,,,,,,,,,,,,,,,,,,,,,,,,,,,,,,,,,,,,,,,,,,,,,,,,,,,,,,,,,,,,,,,,,,,,,,,,,,,,,,,,,,,,,,,,,,,,,,,,,
,,"[""comma""]",0,24,0,24,0,1,5bc5fa5248576300014e0739,22,Kobieta,2022-06-04_08h10.06.627,task,2021.1.4,Win32,59.49901827,628b806c463b948bc644b84f,629af7278e6c18f940b51bfd,[0.2983999999761693],,,,,,,,,,,,,,,,,,,,,,,,,,,,,,,,,,,,,,,,,,,,,,,,,,,,,,,,,,,,,,,,,,,,,,,,,,,,,,,,,,,,,,,,,,,,,,,,,,,,,,,
,,"[""comma""]",0,25,0,25,0,1,5bc5fa5248576300014e0739,22,Kobieta,2022-06-04_08h10.06.627,task,2021.1.4,Win32,59.49901827,628b806c463b948bc644b84f,629af7278e6c18f940b51bfd,[0.29180000001190365],,,,,,,,,,,,,,,,,,,,,,,,,,,,,,,,,,,,,,,,,,,,,,,,,,,,,,,,,,,,,,,,,,,,,,,,,,,,,,,,,,,,,,,,,,,,,,,,,,,,,,,
,,"[""comma""]",0,26,0,26,0,1,5bc5fa5248576300014e0739,22,Kobieta,2022-06-04_08h10.06.627,task,2021.1.4,Win32,59.49901827,628b806c463b948bc644b84f,629af7278e6c18f940b51bfd,[0.2661999999880891],,,,,,,,,,,,,,,,,,,,,,,,,,,,,,,,,,,,,,,,,,,,,,,,,,,,,,,,,,,,,,,,,,,,,,,,,,,,,,,,,,,,,,,,,,,,,,,,,,,,,,,
,,"[""comma""]",0,27,0,27,0,1,5bc5fa5248576300014e0739,22,Kobieta,2022-06-04_08h10.06.627,task,2021.1.4,Win32,59.49901827,628b806c463b948bc644b84f,629af7278e6c18f940b51bfd,[0.032400000035778476],,,,,,,,,,,,,,,,,,,,,,,,,,,,,,,,,,,,,,,,,,,,,,,,,,,,,,,,,,,,,,,,,,,,,,,,,,,,,,,,,,,,,,,,,,,,,,,,,,,,,,,
,,"[""comma""]",0,28,0,28,0,1,5bc5fa5248576300014e0739,22,Kobieta,2022-06-04_08h10.06.627,task,2021.1.4,Win32,59.49901827,628b806c463b948bc644b84f,629af7278e6c18f940b51bfd,[0.6549000000357807],,,,,,,,,,,,,,,,,,,,,,,,,,,,,,,,,,,,,,,,,,,,,,,,,,,,,,,,,,,,,,,,,,,,,,,,,,,,,,,,,,,,,,,,,,,,,,,,,,,,,,,
,,"[""comma""]",0,29,0,29,0,1,5bc5fa5248576300014e0739,22,Kobieta,2022-06-04_08h10.06.627,task,2021.1.4,Win32,59.49901827,628b806c463b948bc644b84f,629af7278e6c18f940b51bfd,[-0.01850000000001728],,,,,,,,,,,,,,,,,,,,,,,,,,,,,,,,,,,,,,,,,,,,,,,,,,,,,,,,,,,,,,,,,,,,,,,,,,,,,,,,,,,,,,,,,,,,,,,,,,,,,,,
,,"[""comma""]",0,30,0,30,0,1,5bc5fa5248576300014e0739,22,Kobieta,2022-06-04_08h10.06.627,task,2021.1.4,Win32,59.49901827,628b806c463b948bc644b84f,629af7278e6c18f940b51bfd,[-0.01230000001191911],,,,,,,,,,,,,,,,,,,,,,,,,,,,,,,,,,,,,,,,,,,,,,,,,,,,,,,,,,,,,,,,,,,,,,,,,,,,,,,,,,,,,,,,,,,,,,,,,,,,,,,
,,"[""comma""]",0,31,0,31,0,1,5bc5fa5248576300014e0739,22,Kobieta,2022-06-04_08h10.06.627,task,2021.1.4,Win32,59.49901827,628b806c463b948bc644b84f,629af7278e6c18f940b51bfd,[0.3008000000119182],,,,,,,,,,,,,,,,,,,,,,,,,,,,,,,,,,,,,,,,,,,,,,,,,,,,,,,,,,,,,,,,,,,,,,,,,,,,,,,,,,,,,,,,,,,,,,,,,,,,,,,
,,"[""comma""]",0,32,0,32,0,1,5bc5fa5248576300014e0739,22,Kobieta,2022-06-04_08h10.06.627,task,2021.1.4,Win32,59.49901827,628b806c463b948bc644b84f,629af7278e6c18f940b51bfd,[0.3341999999880727],,,,,,,,,,,,,,,,,,,,,,,,,,,,,,,,,,,,,,,,,,,,,,,,,,,,,,,,,,,,,,,,,,,,,,,,,,,,,,,,,,,,,,,,,,,,,,,,,,,,,,,
,,"[""comma""]",0,33,0,33,0,1,5bc5fa5248576300014e0739,22,Kobieta,2022-06-04_08h10.06.627,task,2021.1.4,Win32,59.49901827,628b806c463b948bc644b84f,629af7278e6c18f940b51bfd,[0.5421999999880711],,,,,,,,,,,,,,,,,,,,,,,,,,,,,,,,,,,,,,,,,,,,,,,,,,,,,,,,,,,,,,,,,,,,,,,,,,,,,,,,,,,,,,,,,,,,,,,,,,,,,,,
,,"[""comma""]",0,34,0,34,0,1,5bc5fa5248576300014e0739,22,Kobieta,2022-06-04_08h10.06.627,task,2021.1.4,Win32,59.49901827,628b806c463b948bc644b84f,629af7278e6c18f940b51bfd,[0.5564999999999998],,,,,,,,,,,,,,,,,,,,,,,,,,,,,,,,,,,,,,,,,,,,,,,,,,,,,,,,,,,,,,,,,,,,,,,,,,,,,,,,,,,,,,,,,,,,,,,,,,,,,,,
,,"[""comma""]",0,35,0,35,0,1,5bc5fa5248576300014e0739,22,Kobieta,2022-06-04_08h10.06.627,task,2021.1.4,Win32,59.49901827,628b806c463b948bc644b84f,629af7278e6c18f940b51bfd,[0.36650000000000205],,,,,,,,,,,,,,,,,,,,,,,,,,,,,,,,,,,,,,,,,,,,,,,,,,,,,,,,,,,,,,,,,,,,,,,,,,,,,,,,,,,,,,,,,,,,,,,,,,,,,,,
,,"[""comma""]",0,36,0,36,0,1,5bc5fa5248576300014e0739,22,Kobieta,2022-06-04_08h10.06.627,task,2021.1.4,Win32,59.49901827,628b806c463b948bc644b84f,629af7278e6c18f940b51bfd,[0.3324000000357614],,,,,,,,,,,,,,,,,,,,,,,,,,,,,,,,,,,,,,,,,,,,,,,,,,,,,,,,,,,,,,,,,,,,,,,,,,,,,,,,,,,,,,,,,,,,,,,,,,,,,,,
,,"[""comma"",""comma""]",0,37,0,37,0,1,5bc5fa5248576300014e0739,22,Kobieta,2022-06-04_08h10.06.627,task,2021.1.4,Win32,59.49901827,628b806c463b948bc644b84f,629af7278e6c18f940b51bfd,"[0.34830000001193184,1.8863000000119428]",,,,,,,,,,,,,,,,,,,,,,,,,,,,,,,,,,,,,,,,,,,,,,,,,,,,,,,,,,,,,,,,,,,,,,,,,,,,,,,,,,,,,,,,,,,,,,,,,,,,,,,
,,,0,38,0,38,0,1,5bc5fa5248576300014e0739,22,Kobieta,2022-06-04_08h10.06.627,task,2021.1.4,Win32,59.49901827,628b806c463b948bc644b84f,629af7278e6c18f940b51bfd,,,,,,,,,,,,,,,,,,,,,,,,,,,,,,,,,,,,,,,,,,,,,,,,,,,,,,,,,,,,,,,,,,,,,,,,,,,,,,,,,,,,,,,,,,,,,,,,,,,,,,,,
,,"[""comma""]",0,39,0,39,0,1,5bc5fa5248576300014e0739,22,Kobieta,2022-06-04_08h10.06.627,task,2021.1.4,Win32,59.49901827,628b806c463b948bc644b84f,629af7278e6c18f940b51bfd,[0.47450000000000614],,,,,,,,,,,,,,,,,,,,,,,,,,,,,,,,,,,,,,,,,,,,,,,,,,,,,,,,,,,,,,,,,,,,,,,,,,,,,,,,,,,,,,,,,,,,,,,,,,,,,,,
,,"[""comma""]",0,40,0,40,0,1,5bc5fa5248576300014e0739,22,Kobieta,2022-06-04_08h10.06.627,task,2021.1.4,Win32,59.49901827,628b806c463b948bc644b84f,629af7278e6c18f940b51bfd,[0.4819999999999993],,,,,,,,,,,,,,,,,,,,,,,,,,,,,,,,,,,,,,,,,,,,,,,,,,,,,,,,,,,,,,,,,,,,,,,,,,,,,,,,,,,,,,,,,,,,,,,,,,,,,,,
,,"[""comma""]",0,41,0,41,0,1,5bc5fa5248576300014e0739,22,Kobieta,2022-06-04_08h10.06.627,task,2021.1.4,Win32,59.49901827,628b806c463b948bc644b84f,629af7278e6c18f940b51bfd,[0.46930000001194117],,,,,,,,,,,,,,,,,,,,,,,,,,,,,,,,,,,,,,,,,,,,,,,,,,,,,,,,,,,,,,,,,,,,,,,,,,,,,,,,,,,,,,,,,,,,,,,,,,,,,,,
,,"[""comma""]",0,42,0,42,0,1,5bc5fa5248576300014e0739,22,Kobieta,2022-06-04_08h10.06.627,task,2021.1.4,Win32,59.49901827,628b806c463b948bc644b84f,629af7278e6c18f940b51bfd,[0.6146999999880904],,,,,,,,,,,,,,,,,,,,,,,,,,,,,,,,,,,,,,,,,,,,,,,,,,,,,,,,,,,,,,,,,,,,,,,,,,,,,,,,,,,,,,,,,,,,,,,,,,,,,,,
,,"[""comma"",""comma""]",0,43,0,43,0,1,5bc5fa5248576300014e0739,22,Kobieta,2022-06-04_08h10.06.627,task,2021.1.4,Win32,59.49901827,628b806c463b948bc644b84f,629af7278e6c18f940b51bfd,"[0.4673000000119032,1.964700000047685]",,,,,,,,,,,,,,,,,,,,,,,,,,,,,,,,,,,,,,,,,,,,,,,,,,,,,,,,,,,,,,,,,,,,,,,,,,,,,,,,,,,,,,,,,,,,,,,,,,,,,,,
,,,0,44,0,44,0,1,5bc5fa5248576300014e0739,22,Kobieta,2022-06-04_08h10.06.627,task,2021.1.4,Win32,59.49901827,628b806c463b948bc644b84f,629af7278e6c18f940b51bfd,,,,,,,,,,,,,,,,,,,,,,,,,,,,,,,,,,,,,,,,,,,,,,,,,,,,,,,,,,,,,,,,,,,,,,,,,,,,,,,,,,,,,,,,,,,,,,,,,,,,,,,,
,,"[""comma""]",0,45,0,45,0,1,5bc5fa5248576300014e0739,22,Kobieta,2022-06-04_08h10.06.627,task,2021.1.4,Win32,59.49901827,628b806c463b948bc644b84f,629af7278e6c18f940b51bfd,[0.38220000004770327],,,,,,,,,,,,,,,,,,,,,,,,,,,,,,,,,,,,,,,,,,,,,,,,,,,,,,,,,,,,,,,,,,,,,,,,,,,,,,,,,,,,,,,,,,,,,,,,,,,,,,,
,,"[""comma""]",0,46,0,46,0,1,5bc5fa5248576300014e0739,22,Kobieta,2022-06-04_08h10.06.627,task,2021.1.4,Win32,59.49901827,628b806c463b948bc644b84f,629af7278e6c18f940b51bfd,[0.4911999999880834],,,,,,,,,,,,,,,,,,,,,,,,,,,,,,,,,,,,,,,,,,,,,,,,,,,,,,,,,,,,,,,,,,,,,,,,,,,,,,,,,,,,,,,,,,,,,,,,,,,,,,,
,,"[""comma""]",0,47,0,47,0,1,5bc5fa5248576300014e0739,22,Kobieta,2022-06-04_08h10.06.627,task,2021.1.4,Win32,59.49901827,628b806c463b948bc644b84f,629af7278e6c18f940b51bfd,[0.35240000003574323],,,,,,,,,,,,,,,,,,,,,,,,,,,,,,,,,,,,,,,,,,,,,,,,,,,,,,,,,,,,,,,,,,,,,,,,,,,,,,,,,,,,,,,,,,,,,,,,,,,,,,,
,,"[""comma""]",0,48,0,48,0,1,5bc5fa5248576300014e0739,22,Kobieta,2022-06-04_08h10.06.627,task,2021.1.4,Win32,59.49901827,628b806c463b948bc644b84f,629af7278e6c18f940b51bfd,[0.3416999999880943],,,,,,,,,,,,,,,,,,,,,,,,,,,,,,,,,,,,,,,,,,,,,,,,,,,,,,,,,,,,,,,,,,,,,,,,,,,,,,,,,,,,,,,,,,,,,,,,,,,,,,,
,,"[""comma""]",0,49,0,49,0,1,5bc5fa5248576300014e0739,22,Kobieta,2022-06-04_08h10.06.627,task,2021.1.4,Win32,59.49901827,628b806c463b948bc644b84f,629af7278e6c18f940b51bfd,[0.29180000001193207],,,,,,,,,,,,,,,,,,,,,,,,,,,,,,,,,,,,,,,,,,,,,,,,,,,,,,,,,,,,,,,,,,,,,,,,,,,,,,,,,,,,,,,,,,,,,,,,,,,,,,,
,,"[""comma""]",0,50,0,50,0,1,5bc5fa5248576300014e0739,22,Kobieta,2022-06-04_08h10.06.627,task,2021.1.4,Win32,59.49901827,628b806c463b948bc644b84f,629af7278e6c18f940b51bfd,[0.30569999998809294],,,,,,,,,,,,,,,,,,,,,,,,,,,,,,,,,,,,,,,,,,,,,,,,,,,,,,,,,,,,,,,,,,,,,,,,,,,,,,,,,,,,,,,,,,,,,,,,,,,,,,,
,,"[""comma""]",0,51,0,51,0,1,5bc5fa5248576300014e0739,22,Kobieta,2022-06-04_08h10.06.627,task,2021.1.4,Win32,59.49901827,628b806c463b948bc644b84f,629af7278e6c18f940b51bfd,[0.2586999999880675],,,,,,,,,,,,,,,,,,,,,,,,,,,,,,,,,,,,,,,,,,,,,,,,,,,,,,,,,,,,,,,,,,,,,,,,,,,,,,,,,,,,,,,,,,,,,,,,,,,,,,,
,,"[""comma""]",0,52,0,52,0,1,5bc5fa5248576300014e0739,22,Kobieta,2022-06-04_08h10.06.627,task,2021.1.4,Win32,59.49901827,628b806c463b948bc644b84f,629af7278e6c18f940b51bfd,[0.37139999997614837],,,,,,,,,,,,,,,,,,,,,,,,,,,,,,,,,,,,,,,,,,,,,,,,,,,,,,,,,,,,,,,,,,,,,,,,,,,,,,,,,,,,,,,,,,,,,,,,,,,,,,,
,,"[""comma""]",0,53,0,53,0,1,5bc5fa5248576300014e0739,22,Kobieta,2022-06-04_08h10.06.627,task,2021.1.4,Win32,59.49901827,628b806c463b948bc644b84f,629af7278e6c18f940b51bfd,[0.31630000001192116],,,,,,,,,,,,,,,,,,,,,,,,,,,,,,,,,,,,,,,,,,,,,,,,,,,,,,,,,,,,,,,,,,,,,,,,,,,,,,,,,,,,,,,,,,,,,,,,,,,,,,,
,,"[""comma""]",0,54,0,54,0,1,5bc5fa5248576300014e0739,22,Kobieta,2022-06-04_08h10.06.627,task,2021.1.4,Win32,59.49901827,628b806c463b948bc644b84f,629af7278e6c18f940b51bfd,[-0.009999999999990905],,,,,,,,,,,,,,,,,,,,,,,,,,,,,,,,,,,,,,,,,,,,,,,,,,,,,,,,,,,,,,,,,,,,,,,,,,,,,,,,,,,,,,,,,,,,,,,,,,,,,,,
,,"[""comma""]",0,55,0,55,0,1,5bc5fa5248576300014e0739,22,Kobieta,2022-06-04_08h10.06.627,task,2021.1.4,Win32,59.49901827,628b806c463b948bc644b84f,629af7278e6c18f940b51bfd,[0.46569999998808953],,,,,,,,,,,,,,,,,,,,,,,,,,,,,,,,,,,,,,,,,,,,,,,,,,,,,,,,,,,,,,,,,,,,,,,,,,,,,,,,,,,,,,,,,,,,,,,,,,,,,,,
,,"[""comma"",""comma""]",0,56,0,56,0,1,5bc5fa5248576300014e0739,22,Kobieta,2022-06-04_08h10.06.627,task,2021.1.4,Win32,59.49901827,628b806c463b948bc644b84f,629af7278e6c18f940b51bfd,"[0.11840000003576279,1.949100000023833]",,,,,,,,,,,,,,,,,,,,,,,,,,,,,,,,,,,,,,,,,,,,,,,,,,,,,,,,,,,,,,,,,,,,,,,,,,,,,,,,,,,,,,,,,,,,,,,,,,,,,,,
,,"[""comma""]",0,57,0,57,0,1,5bc5fa5248576300014e0739,22,Kobieta,2022-06-04_08h10.06.627,task,2021.1.4,Win32,59.49901827,628b806c463b948bc644b84f,629af7278e6c18f940b51bfd,[0.8178999999761629],,,,,,,,,,,,,,,,,,,,,,,,,,,,,,,,,,,,,,,,,,,,,,,,,,,,,,,,,,,,,,,,,,,,,,,,,,,,,,,,,,,,,,,,,,,,,,,,,,,,,,,
,,"[""comma""]",0,58,0,58,0,1,5bc5fa5248576300014e0739,22,Kobieta,2022-06-04_08h10.06.627,task,2021.1.4,Win32,59.49901827,628b806c463b948bc644b84f,629af7278e6c18f940b51bfd,[0.49910000002384436],,,,,,,,,,,,,,,,,,,,,,,,,,,,,,,,,,,,,,,,,,,,,,,,,,,,,,,,,,,,,,,,,,,,,,,,,,,,,,,,,,,,,,,,,,,,,,,,,,,,,,,
,,"[""comma"",""comma""]",0,59,0,59,0,1,5bc5fa5248576300014e0739,22,Kobieta,2022-06-04_08h10.06.627,task,2021.1.4,Win32,59.49901827,628b806c463b948bc644b84f,629af7278e6c18f940b51bfd,"[0.0006000000238373104,1.8688999999761506]",,,,,,,,,,,,,,,,,,,,,,,,,,,,,,,,,,,,,,,,,,,,,,,,,,,,,,,,,,,,,,,,,,,,,,,,,,,,,,,,,,,,,,,,,,,,,,,,,,,,,,,
,,"[""comma""]",0,60,0,60,0,1,5bc5fa5248576300014e0739,22,Kobieta,2022-06-04_08h10.06.627,task,2021.1.4,Win32,59.49901827,628b806c463b948bc644b84f,629af7278e6c18f940b51bfd,[1.9151000000238412],,,,,,,,,,,,,,,,,,,,,,,,,,,,,,,,,,,,,,,,,,,,,,,,,,,,,,,,,,,,,,,,,,,,,,,,,,,,,,,,,,,,,,,,,,,,,,,,,,,,,,,
,,"[""comma""]",0,61,0,61,0,1,5bc5fa5248576300014e0739,22,Kobieta,2022-06-04_08h10.06.627,task,2021.1.4,Win32,59.49901827,628b806c463b948bc644b84f,629af7278e6c18f940b51bfd,[1.8003000000119016],,,,,,,,,,,,,,,,,,,,,,,,,,,,,,,,,,,,,,,,,,,,,,,,,,,,,,,,,,,,,,,,,,,,,,,,,,,,,,,,,,,,,,,,,,,,,,,,,,,,,,,
,,"[""comma""]",0,62,0,62,0,1,5bc5fa5248576300014e0739,22,Kobieta,2022-06-04_08h10.06.627,task,2021.1.4,Win32,59.49901827,628b806c463b948bc644b84f,629af7278e6c18f940b51bfd,[0.5819999999999936],,,,,,,,,,,,,,,,,,,,,,,,,,,,,,,,,,,,,,,,,,,,,,,,,,,,,,,,,,,,,,,,,,,,,,,,,,,,,,,,,,,,,,,,,,,,,,,,,,,,,,,
,,"[""comma""]",0,63,0,63,0,1,5bc5fa5248576300014e0739,22,Kobieta,2022-06-04_08h10.06.627,task,2021.1.4,Win32,59.49901827,628b806c463b948bc644b84f,629af7278e6c18f940b51bfd,[0.367999999999995],,,,,,,,,,,,,,,,,,,,,,,,,,,,,,,,,,,,,,,,,,,,,,,,,,,,,,,,,,,,,,,,,,,,,,,,,,,,,,,,,,,,,,,,,,,,,,,,,,,,,,,
,,"[""comma""]",0,64,0,64,0,1,5bc5fa5248576300014e0739,22,Kobieta,2022-06-04_08h10.06.627,task,2021.1.4,Win32,59.49901827,628b806c463b948bc644b84f,629af7278e6c18f940b51bfd,[0.38819999998807475],,,,,,,,,,,,,,,,,,,,,,,,,,,,,,,,,,,,,,,,,,,,,,,,,,,,,,,,,,,,,,,,,,,,,,,,,,,,,,,,,,,,,,,,,,,,,,,,,,,,,,,
,,"[""comma""]",0,65,0,65,0,1,5bc5fa5248576300014e0739,22,Kobieta,2022-06-04_08h10.06.627,task,2021.1.4,Win32,59.49901827,628b806c463b948bc644b84f,629af7278e6c18f940b51bfd,[0.4486999999880936],,,,,,,,,,,,,,,,,,,,,,,,,,,,,,,,,,,,,,,,,,,,,,,,,,,,,,,,,,,,,,,,,,,,,,,,,,,,,,,,,,,,,,,,,,,,,,,,,,,,,,,
,,"[""comma""]",0,66,0,66,0,1,5bc5fa5248576300014e0739,22,Kobieta,2022-06-04_08h10.06.627,task,2021.1.4,Win32,59.49901827,628b806c463b948bc644b84f,629af7278e6c18f940b51bfd,[0.33459999996424017],,,,,,,,,,,,,,,,,,,,,,,,,,,,,,,,,,,,,,,,,,,,,,,,,,,,,,,,,,,,,,,,,,,,,,,,,,,,,,,,,,,,,,,,,,,,,,,,,,,,,,,
,,"[""comma""]",0,67,0,67,0,1,5bc5fa5248576300014e0739,22,Kobieta,2022-06-04_08h10.06.627,task,2021.1.4,Win32,59.49901827,628b806c463b948bc644b84f,629af7278e6c18f940b51bfd,[0.7151000000238525],,,,,,,,,,,,,,,,,,,,,,,,,,,,,,,,,,,,,,,,,,,,,,,,,,,,,,,,,,,,,,,,,,,,,,,,,,,,,,,,,,,,,,,,,,,,,,,,,,,,,,,
,,"[""comma""]",0,68,0,68,0,1,5bc5fa5248576300014e0739,22,Kobieta,2022-06-04_08h10.06.627,task,2021.1.4,Win32,59.49901827,628b806c463b948bc644b84f,629af7278e6c18f940b51bfd,[0.372299999952304],,,,,,,,,,,,,,,,,,,,,,,,,,,,,,,,,,,,,,,,,,,,,,,,,,,,,,,,,,,,,,,,,,,,,,,,,,,,,,,,,,,,,,,,,,,,,,,,,,,,,,,
,,"[""comma""]",0,69,0,69,0,1,5bc5fa5248576300014e0739,22,Kobieta,2022-06-04_08h10.06.627,task,2021.1.4,Win32,59.49901827,628b806c463b948bc644b84f,629af7278e6c18f940b51bfd,[0.30630000001190183],,,,,,,,,,,,,,,,,,,,,,,,,,,,,,,,,,,,,,,,,,,,,,,,,,,,,,,,,,,,,,,,,,,,,,,,,,,,,,,,,,,,,,,,,,,,,,,,,,,,,,,
,,"[""comma""]",0,70,0,70,0,1,5bc5fa5248576300014e0739,22,Kobieta,2022-06-04_08h10.06.627,task,2021.1.4,Win32,59.49901827,628b806c463b948bc644b84f,629af7278e6c18f940b51bfd,[0.28449999999998],,,,,,,,,,,,,,,,,,,,,,,,,,,,,,,,,,,,,,,,,,,,,,,,,,,,,,,,,,,,,,,,,,,,,,,,,,,,,,,,,,,,,,,,,,,,,,,,,,,,,,,
,,"[""comma""]",0,71,0,71,0,1,5bc5fa5248576300014e0739,22,Kobieta,2022-06-04_08h10.06.627,task,2021.1.4,Win32,59.49901827,628b806c463b948bc644b84f,629af7278e6c18f940b51bfd,[0.3043000000119207],,,,,,,,,,,,,,,,,,,,,,,,,,,,,,,,,,,,,,,,,,,,,,,,,,,,,,,,,,,,,,,,,,,,,,,,,,,,,,,,,,,,,,,,,,,,,,,,,,,,,,,
,,"[""comma""]",0,72,0,72,0,1,5bc5fa5248576300014e0739,22,Kobieta,2022-06-04_08h10.06.627,task,2021.1.4,Win32,59.49901827,628b806c463b948bc644b84f,629af7278e6c18f940b51bfd,[0.3878999999761561],,,,,,,,,,,,,,,,,,,,,,,,,,,,,,,,,,,,,,,,,,,,,,,,,,,,,,,,,,,,,,,,,,,,,,,,,,,,,,,,,,,,,,,,,,,,,,,,,,,,,,,
,,"[""comma""]",0,73,0,73,0,1,5bc5fa5248576300014e0739,22,Kobieta,2022-06-04_08h10.06.627,task,2021.1.4,Win32,59.49901827,628b806c463b948bc644b84f,629af7278e6c18f940b51bfd,[0.31560000002383504],,,,,,,,,,,,,,,,,,,,,,,,,,,,,,,,,,,,,,,,,,,,,,,,,,,,,,,,,,,,,,,,,,,,,,,,,,,,,,,,,,,,,,,,,,,,,,,,,,,,,,,
,,"[""comma""]",0,74,0,74,0,1,5bc5fa5248576300014e0739,22,Kobieta,2022-06-04_08h10.06.627,task,2021.1.4,Win32,59.49901827,628b806c463b948bc644b84f,629af7278e6c18f940b51bfd,[0.3043000000119207],,,,,,,,,,,,,,,,,,,,,,,,,,,,,,,,,,,,,,,,,,,,,,,,,,,,,,,,,,,,,,,,,,,,,,,,,,,,,,,,,,,,,,,,,,,,,,,,,,,,,,,
,,"[""comma""]",0,75,0,75,0,1,5bc5fa5248576300014e0739,22,Kobieta,2022-06-04_08h10.06.627,task,2021.1.4,Win32,59.49901827,628b806c463b948bc644b84f,629af7278e6c18f940b51bfd,[0.4532999999523213],,,,,,,,,,,,,,,,,,,,,,,,,,,,,,,,,,,,,,,,,,,,,,,,,,,,,,,,,,,,,,,,,,,,,,,,,,,,,,,,,,,,,,,,,,,,,,,,,,,,,,,
,,"[""comma""]",0,76,0,76,0,1,5bc5fa5248576300014e0739,22,Kobieta,2022-06-04_08h10.06.627,task,2021.1.4,Win32,59.49901827,628b806c463b948bc644b84f,629af7278e6c18f940b51bfd,[0.3481999999880827],,,,,,,,,,,,,,,,,,,,,,,,,,,,,,,,,,,,,,,,,,,,,,,,,,,,,,,,,,,,,,,,,,,,,,,,,,,,,,,,,,,,,,,,,,,,,,,,,,,,,,,
,,"[""comma""]",0,77,0,77,0,1,5bc5fa5248576300014e0739,22,Kobieta,2022-06-04_08h10.06.627,task,2021.1.4,Win32,59.49901827,628b806c463b948bc644b84f,629af7278e6c18f940b51bfd,[0.28419999998808976],,,,,,,,,,,,,,,,,,,,,,,,,,,,,,,,,,,,,,,,,,,,,,,,,,,,,,,,,,,,,,,,,,,,,,,,,,,,,,,,,,,,,,,,,,,,,,,,,,,,,,,
,,"[""comma""]",0,78,0,78,0,1,5bc5fa5248576300014e0739,22,Kobieta,2022-06-04_08h10.06.627,task,2021.1.4,Win32,59.49901827,628b806c463b948bc644b84f,629af7278e6c18f940b51bfd,[0.27419999998807043],,,,,,,,,,,,,,,,,,,,,,,,,,,,,,,,,,,,,,,,,,,,,,,,,,,,,,,,,,,,,,,,,,,,,,,,,,,,,,,,,,,,,,,,,,,,,,,,,,,,,,,
,,"[""comma""]",0,79,0,79,0,1,5bc5fa5248576300014e0739,22,Kobieta,2022-06-04_08h10.06.627,task,2021.1.4,Win32,59.49901827,628b806c463b948bc644b84f,629af7278e6c18f940b51bfd,[0.44830000001192616],,,,,,,,,,,,,,,,,,,,,,,,,,,,,,,,,,,,,,,,,,,,,,,,,,,,,,,,,,,,,,,,,,,,,,,,,,,,,,,,,,,,,,,,,,,,,,,,,,,,,,,
,,"[""comma""]",0,80,0,80,0,1,5bc5fa5248576300014e0739,22,Kobieta,2022-06-04_08h10.06.627,task,2021.1.4,Win32,59.49901827,628b806c463b948bc644b84f,629af7278e6c18f940b51bfd,[0.28359999996425245],,,,,,,,,,,,,,,,,,,,,,,,,,,,,,,,,,,,,,,,,,,,,,,,,,,,,,,,,,,,,,,,,,,,,,,,,,,,,,,,,,,,,,,,,,,,,,,,,,,,,,,
,,"[""comma""]",0,81,0,81,0,1,5bc5fa5248576300014e0739,22,Kobieta,2022-06-04_08h10.06.627,task,2021.1.4,Win32,59.49901827,628b806c463b948bc644b84f,629af7278e6c18f940b51bfd,[0.19849999999999568],,,,,,,,,,,,,,,,,,,,,,,,,,,,,,,,,,,,,,,,,,,,,,,,,,,,,,,,,,,,,,,,,,,,,,,,,,,,,,,,,,,,,,,,,,,,,,,,,,,,,,,
,,"[""comma""]",0,82,0,82,0,1,5bc5fa5248576300014e0739,22,Kobieta,2022-06-04_08h10.06.627,task,2021.1.4,Win32,59.49901827,628b806c463b948bc644b84f,629af7278e6c18f940b51bfd,[0.35170000004768553],,,,,,,,,,,,,,,,,,,,,,,,,,,,,,,,,,,,,,,,,,,,,,,,,,,,,,,,,,,,,,,,,,,,,,,,,,,,,,,,,,,,,,,,,,,,,,,,,,,,,,,
,,"[""comma""]",0,83,0,83,0,1,5bc5fa5248576300014e0739,22,Kobieta,2022-06-04_08h10.06.627,task,2021.1.4,Win32,59.49901827,628b806c463b948bc644b84f,629af7278e6c18f940b51bfd,[0.25619999998809817],,,,,,,,,,,,,,,,,,,,,,,,,,,,,,,,,,,,,,,,,,,,,,,,,,,,,,,,,,,,,,,,,,,,,,,,,,,,,,,,,,,,,,,,,,,,,,,,,,,,,,,
,,"[""comma""]",0,84,0,84,0,1,5bc5fa5248576300014e0739,22,Kobieta,2022-06-04_08h10.06.627,task,2021.1.4,Win32,59.49901827,628b806c463b948bc644b84f,629af7278e6c18f940b51bfd,[0.3649000000357603],,,,,,,,,,,,,,,,,,,,,,,,,,,,,,,,,,,,,,,,,,,,,,,,,,,,,,,,,,,,,,,,,,,,,,,,,,,,,,,,,,,,,,,,,,,,,,,,,,,,,,,
,,"[""comma""]",0,85,0,85,0,1,5bc5fa5248576300014e0739,22,Kobieta,2022-06-04_08h10.06.627,task,2021.1.4,Win32,59.49901827,628b806c463b948bc644b84f,629af7278e6c18f940b51bfd,[0.24869999998807657],,,,,,,,,,,,,,,,,,,,,,,,,,,,,,,,,,,,,,,,,,,,,,,,,,,,,,,,,,,,,,,,,,,,,,,,,,,,,,,,,,,,,,,,,,,,,,,,,,,,,,,
,,"[""comma""]",0,86,0,86,0,1,5bc5fa5248576300014e0739,22,Kobieta,2022-06-04_08h10.06.627,task,2021.1.4,Win32,59.49901827,628b806c463b948bc644b84f,629af7278e6c18f940b51bfd,[0.49869999998807657],,,,,,,,,,,,,,,,,,,,,,,,,,,,,,,,,,,,,,,,,,,,,,,,,,,,,,,,,,,,,,,,,,,,,,,,,,,,,,,,,,,,,,,,,,,,,,,,,,,,,,,
,,"[""comma""]",0,87,0,87,0,1,5bc5fa5248576300014e0739,22,Kobieta,2022-06-04_08h10.06.627,task,2021.1.4,Win32,59.49901827,628b806c463b948bc644b84f,629af7278e6c18f940b51bfd,[0.5151000000238355],,,,,,,,,,,,,,,,,,,,,,,,,,,,,,,,,,,,,,,,,,,,,,,,,,,,,,,,,,,,,,,,,,,,,,,,,,,,,,,,,,,,,,,,,,,,,,,,,,,,,,,
,,"[""comma""]",0,88,0,88,0,1,5bc5fa5248576300014e0739,22,Kobieta,2022-06-04_08h10.06.627,task,2021.1.4,Win32,59.49901827,628b806c463b948bc644b84f,629af7278e6c18f940b51bfd,[0.29889999997615746],,,,,,,,,,,,,,,,,,,,,,,,,,,,,,,,,,,,,,,,,,,,,,,,,,,,,,,,,,,,,,,,,,,,,,,,,,,,,,,,,,,,,,,,,,,,,,,,,,,,,,,
,,"[""comma"",""comma""]",0,89,0,89,0,1,5bc5fa5248576300014e0739,22,Kobieta,2022-06-04_08h10.06.627,task,2021.1.4,Win32,59.49901827,628b806c463b948bc644b84f,629af7278e6c18f940b51bfd,"[-0.01809999996422107,0.8362000000476826]",,,,,,,,,,,,,,,,,,,,,,,,,,,,,,,,,,,,,,,,,,,,,,,,,,,,,,,,,,,,,,,,,,,,,,,,,,,,,,,,,,,,,,,,,,,,,,,,,,,,,,,
,,"[""comma""]",0,90,0,90,0,1,5bc5fa5248576300014e0739,22,Kobieta,2022-06-04_08h10.06.627,task,2021.1.4,Win32,59.49901827,628b806c463b948bc644b84f,629af7278e6c18f940b51bfd,[0.30560000002384413],,,,,,,,,,,,,,,,,,,,,,,,,,,,,,,,,,,,,,,,,,,,,,,,,,,,,,,,,,,,,,,,,,,,,,,,,,,,,,,,,,,,,,,,,,,,,,,,,,,,,,,
,,"[""comma""]",0,91,0,91,0,1,5bc5fa5248576300014e0739,22,Kobieta,2022-06-04_08h10.06.627,task,2021.1.4,Win32,59.49901827,628b806c463b948bc644b84f,629af7278e6c18f940b51bfd,[0.30299999999999727],,,,,,,,,,,,,,,,,,,,,,,,,,,,,,,,,,,,,,,,,,,,,,,,,,,,,,,,,,,,,,,,,,,,,,,,,,,,,,,,,,,,,,,,,,,,,,,,,,,,,,,
,,"[""comma""]",0,92,0,92,0,1,5bc5fa5248576300014e0739,22,Kobieta,2022-06-04_08h10.06.627,task,2021.1.4,Win32,59.49901827,628b806c463b948bc644b84f,629af7278e6c18f940b51bfd,[0.31790000003576324],,,,,,,,,,,,,,,,,,,,,,,,,,,,,,,,,,,,,,,,,,,,,,,,,,,,,,,,,,,,,,,,,,,,,,,,,,,,,,,,,,,,,,,,,,,,,,,,,,,,,,,
,,"[""comma""]",0,93,0,93,0,1,5bc5fa5248576300014e0739,22,Kobieta,2022-06-04_08h10.06.627,task,2021.1.4,Win32,59.49901827,628b806c463b948bc644b84f,629af7278e6c18f940b51bfd,[0.2317000000477094],,,,,,,,,,,,,,,,,,,,,,,,,,,,,,,,,,,,,,,,,,,,,,,,,,,,,,,,,,,,,,,,,,,,,,,,,,,,,,,,,,,,,,,,,,,,,,,,,,,,,,,
,,"[""comma""]",0,94,0,94,0,1,5bc5fa5248576300014e0739,22,Kobieta,2022-06-04_08h10.06.627,task,2021.1.4,Win32,59.49901827,628b806c463b948bc644b84f,629af7278e6c18f940b51bfd,[0.17160000002382958],,,,,,,,,,,,,,,,,,,,,,,,,,,,,,,,,,,,,,,,,,,,,,,,,,,,,,,,,,,,,,,,,,,,,,,,,,,,,,,,,,,,,,,,,,,,,,,,,,,,,,,
,,"[""comma""]",0,95,0,95,0,1,5bc5fa5248576300014e0739,22,Kobieta,2022-06-04_08h10.06.627,task,2021.1.4,Win32,59.49901827,628b806c463b948bc644b84f,629af7278e6c18f940b51bfd,[0.2417000000476719],,,,,,,,,,,,,,,,,,,,,,,,,,,,,,,,,,,,,,,,,,,,,,,,,,,,,,,,,,,,,,,,,,,,,,,,,,,,,,,,,,,,,,,,,,,,,,,,,,,,,,,
,,"[""comma""]",0,96,0,96,0,1,5bc5fa5248576300014e0739,22,Kobieta,2022-06-04_08h10.06.627,task,2021.1.4,Win32,59.49901827,628b806c463b948bc644b84f,629af7278e6c18f940b51bfd,[0.13219999998807452],,,,,,,,,,,,,,,,,,,,,,,,,,,,,,,,,,,,,,,,,,,,,,,,,,,,,,,,,,,,,,,,,,,,,,,,,,,,,,,,,,,,,,,,,,,,,,,,,,,,,,,
,,"[""comma""]",0,97,0,97,0,1,5bc5fa5248576300014e0739,22,Kobieta,2022-06-04_08h10.06.627,task,2021.1.4,Win32,59.49901827,628b806c463b948bc644b84f,629af7278e6c18f940b51bfd,[0.26550000000000296],,,,,,,,,,,,,,,,,,,,,,,,,,,,,,,,,,,,,,,,,,,,,,,,,,,,,,,,,,,,,,,,,,,,,,,,,,,,,,,,,,,,,,,,,,,,,,,,,,,,,,,
,,"[""comma""]",0,98,0,98,0,1,5bc5fa5248576300014e0739,22,Kobieta,2022-06-04_08h10.06.627,task,2021.1.4,Win32,59.49901827,628b806c463b948bc644b84f,629af7278e6c18f940b51bfd,[0.30189999997614336],,,,,,,,,,,,,,,,,,,,,,,,,,,,,,,,,,,,,,,,,,,,,,,,,,,,,,,,,,,,,,,,,,,,,,,,,,,,,,,,,,,,,,,,,,,,,,,,,,,,,,,
,,"[""comma"",""comma""]",0,99,0,99,0,1,5bc5fa5248576300014e0739,22,Kobieta,2022-06-04_08h10.06.627,task,2021.1.4,Win32,59.49901827,628b806c463b948bc644b84f,629af7278e6c18f940b51bfd,"[0.06540000003576552,0.6669000000357812]",,,,,,,,,,,,,,,,,,,,,,,,,,,,,,,,,,,,,,,,,,,,,,,,,,,,,,,,,,,,,,,,,,,,,,,,,,,,,,,,,,,,,,,,,,,,,,,,,,,,,,,
,,"[""comma""]",0,100,0,100,0,1,5bc5fa5248576300014e0739,22,Kobieta,2022-06-04_08h10.06.627,task,2021.1.4,Win32,59.49901827,628b806c463b948bc644b84f,629af7278e6c18f940b51bfd,[0.45069999998807475],,,,,,,,,,,,,,,,,,,,,,,,,,,,,,,,,,,,,,,,,,,,,,,,,,,,,,,,,,,,,,,,,,,,,,,,,,,,,,,,,,,,,,,,,,,,,,,,,,,,,,,
,,"[""comma""]",0,101,0,101,0,1,5bc5fa5248576300014e0739,22,Kobieta,2022-06-04_08h10.06.627,task,2021.1.4,Win32,59.49901827,628b806c463b948bc644b84f,629af7278e6c18f940b51bfd,[0.4199999999999875],,,,,,,,,,,,,,,,,,,,,,,,,,,,,,,,,,,,,,,,,,,,,,,,,,,,,,,,,,,,,,,,,,,,,,,,,,,,,,,,,,,,,,,,,,,,,,,,,,,,,,,
,,"[""comma""]",0,102,0,102,0,1,5bc5fa5248576300014e0739,22,Kobieta,2022-06-04_08h10.06.627,task,2021.1.4,Win32,59.49901827,628b806c463b948bc644b84f,629af7278e6c18f940b51bfd,[0.4381999999880861],,,,,,,,,,,,,,,,,,,,,,,,,,,,,,,,,,,,,,,,,,,,,,,,,,,,,,,,,,,,,,,,,,,,,,,,,,,,,,,,,,,,,,,,,,,,,,,,,,,,,,,
,,"[""comma""]",0,103,0,103,0,1,5bc5fa5248576300014e0739,22,Kobieta,2022-06-04_08h10.06.627,task,2021.1.4,Win32,59.49901827,628b806c463b948bc644b84f,629af7278e6c18f940b51bfd,[0.31810000002383276],,,,,,,,,,,,,,,,,,,,,,,,,,,,,,,,,,,,,,,,,,,,,,,,,,,,,,,,,,,,,,,,,,,,,,,,,,,,,,,,,,,,,,,,,,,,,,,,,,,,,,,
,,"[""comma""]",0,104,0,104,0,1,5bc5fa5248576300014e0739,22,Kobieta,2022-06-04_08h10.06.627,task,2021.1.4,Win32,59.49901827,628b806c463b948bc644b84f,629af7278e6c18f940b51bfd,[0.18189999997613882],,,,,,,,,,,,,,,,,,,,,,,,,,,,,,,,,,,,,,,,,,,,,,,,,,,,,,,,,,,,,,,,,,,,,,,,,,,,,,,,,,,,,,,,,,,,,,,,,,,,,,,
,,"[""comma""]",0,105,0,105,0,1,5bc5fa5248576300014e0739,22,Kobieta,2022-06-04_08h10.06.627,task,2021.1.4,Win32,59.49901827,628b806c463b948bc644b84f,629af7278e6c18f940b51bfd,[0.3684999999999832],,,,,,,,,,,,,,,,,,,,,,,,,,,,,,,,,,,,,,,,,,,,,,,,,,,,,,,,,,,,,,,,,,,,,,,,,,,,,,,,,,,,,,,,,,,,,,,,,,,,,,,
,,"[""comma""]",0,106,0,106,0,1,5bc5fa5248576300014e0739,22,Kobieta,2022-06-04_08h10.06.627,task,2021.1.4,Win32,59.49901827,628b806c463b948bc644b84f,629af7278e6c18f940b51bfd,[0.36769999998807634],,,,,,,,,,,,,,,,,,,,,,,,,,,,,,,,,,,,,,,,,,,,,,,,,,,,,,,,,,,,,,,,,,,,,,,,,,,,,,,,,,,,,,,,,,,,,,,,,,,,,,,
,,"[""comma""]",0,107,0,107,0,1,5bc5fa5248576300014e0739,22,Kobieta,2022-06-04_08h10.06.627,task,2021.1.4,Win32,59.49901827,628b806c463b948bc644b84f,629af7278e6c18f940b51bfd,[0.33480000001191],,,,,,,,,,,,,,,,,,,,,,,,,,,,,,,,,,,,,,,,,,,,,,,,,,,,,,,,,,,,,,,,,,,,,,,,,,,,,,,,,,,,,,,,,,,,,,,,,,,,,,,
,,"[""comma""]",0,108,0,108,0,1,5bc5fa5248576300014e0739,22,Kobieta,2022-06-04_08h10.06.627,task,2021.1.4,Win32,59.49901827,628b806c463b948bc644b84f,629af7278e6c18f940b51bfd,[0.30409999996425086],,,,,,,,,,,,,,,,,,,,,,,,,,,,,,,,,,,,,,,,,,,,,,,,,,,,,,,,,,,,,,,,,,,,,,,,,,,,,,,,,,,,,,,,,,,,,,,,,,,,,,,
,,"[""comma""]",0,109,0,109,0,1,5bc5fa5248576300014e0739,22,Kobieta,2022-06-04_08h10.06.627,task,2021.1.4,Win32,59.49901827,628b806c463b948bc644b84f,629af7278e6c18f940b51bfd,[0.549000000000035],,,,,,,,,,,,,,,,,,,,,,,,,,,,,,,,,,,,,,,,,,,,,,,,,,,,,,,,,,,,,,,,,,,,,,,,,,,,,,,,,,,,,,,,,,,,,,,,,,,,,,,
,,"[""comma""]",0,110,0,110,0,1,5bc5fa5248576300014e0739,22,Kobieta,2022-06-04_08h10.06.627,task,2021.1.4,Win32,59.49901827,628b806c463b948bc644b84f,629af7278e6c18f940b51bfd,[0.6742999999523249],,,,,,,,,,,,,,,,,,,,,,,,,,,,,,,,,,,,,,,,,,,,,,,,,,,,,,,,,,,,,,,,,,,,,,,,,,,,,,,,,,,,,,,,,,,,,,,,,,,,,,,
,,"[""period""]",0,111,0,111,0,1,5bc5fa5248576300014e0739,22,Kobieta,2022-06-04_08h10.06.627,task,2021.1.4,Win32,59.49901827,628b806c463b948bc644b84f,629af7278e6c18f940b51bfd,[0.39850000000001273],,,,,,,,,,,,,,,,,,,,,,,,,,,,,,,,,,,,,,,,,,,,,,,,,,,,,,,,,,,,,,,,,,,,,,,,,,,,,,,,,,,,,,,,,,,,,,,,,,,,,,,
,,"[""comma""]",0,112,0,112,0,1,5bc5fa5248576300014e0739,22,Kobieta,2022-06-04_08h10.06.627,task,2021.1.4,Win32,59.49901827,628b806c463b948bc644b84f,629af7278e6c18f940b51bfd,[0.3668999999761695],,,,,,,,,,,,,,,,,,,,,,,,,,,,,,,,,,,,,,,,,,,,,,,,,,,,,,,,,,,,,,,,,,,,,,,,,,,,,,,,,,,,,,,,,,,,,,,,,,,,,,,
,,"[""comma""]",0,113,0,113,0,1,5bc5fa5248576300014e0739,22,Kobieta,2022-06-04_08h10.06.627,task,2021.1.4,Win32,59.49901827,628b806c463b948bc644b84f,629af7278e6c18f940b51bfd,[0.4481000000238282],,,,,,,,,,,,,,,,,,,,,,,,,,,,,,,,,,,,,,,,,,,,,,,,,,,,,,,,,,,,,,,,,,,,,,,,,,,,,,,,,,,,,,,,,,,,,,,,,,,,,,,
,,"[""comma""]",0,114,0,114,0,1,5bc5fa5248576300014e0739,22,Kobieta,2022-06-04_08h10.06.627,task,2021.1.4,Win32,59.49901827,628b806c463b948bc644b84f,629af7278e6c18f940b51bfd,[0.38180000001187864],,,,,,,,,,,,,,,,,,,,,,,,,,,,,,,,,,,,,,,,,,,,,,,,,,,,,,,,,,,,,,,,,,,,,,,,,,,,,,,,,,,,,,,,,,,,,,,,,,,,,,,
,,"[""comma""]",0,115,0,115,0,1,5bc5fa5248576300014e0739,22,Kobieta,2022-06-04_08h10.06.627,task,2021.1.4,Win32,59.49901827,628b806c463b948bc644b84f,629af7278e6c18f940b51bfd,[0.16759999996423858],,,,,,,,,,,,,,,,,,,,,,,,,,,,,,,,,,,,,,,,,,,,,,,,,,,,,,,,,,,,,,,,,,,,,,,,,,,,,,,,,,,,,,,,,,,,,,,,,,,,,,,
,,"[""comma""]",0,116,0,116,0,1,5bc5fa5248576300014e0739,22,Kobieta,2022-06-04_08h10.06.627,task,2021.1.4,Win32,59.49901827,628b806c463b948bc644b84f,629af7278e6c18f940b51bfd,[0.3815999999642372],,,,,,,,,,,,,,,,,,,,,,,,,,,,,,,,,,,,,,,,,,,,,,,,,,,,,,,,,,,,,,,,,,,,,,,,,,,,,,,,,,,,,,,,,,,,,,,,,,,,,,,
,,"[""comma""]",0,117,0,117,0,1,5bc5fa5248576300014e0739,22,Kobieta,2022-06-04_08h10.06.627,task,2021.1.4,Win32,59.49901827,628b806c463b948bc644b84f,629af7278e6c18f940b51bfd,[0.34850000000000136],,,,,,,,,,,,,,,,,,,,,,,,,,,,,,,,,,,,,,,,,,,,,,,,,,,,,,,,,,,,,,,,,,,,,,,,,,,,,,,,,,,,,,,,,,,,,,,,,,,,,,,
,,"[""comma""]",0,118,0,118,0,1,5bc5fa5248576300014e0739,22,Kobieta,2022-06-04_08h10.06.627,task,2021.1.4,Win32,59.49901827,628b806c463b948bc644b84f,629af7278e6c18f940b51bfd,[0.3824999999999932],,,,,,,,,,,,,,,,,,,,,,,,,,,,,,,,,,,,,,,,,,,,,,,,,,,,,,,,,,,,,,,,,,,,,,,,,,,,,,,,,,,,,,,,,,,,,,,,,,,,,,,
,,"[""comma""]",0,119,0,119,0,1,5bc5fa5248576300014e0739,22,Kobieta,2022-06-04_08h10.06.627,task,2021.1.4,Win32,59.49901827,628b806c463b948bc644b84f,629af7278e6c18f940b51bfd,[0.3990000000000009],,,,,,,,,,,,,,,,,,,,,,,,,,,,,,,,,,,,,,,,,,,,,,,,,,,,,,,,,,,,,,,,,,,,,,,,,,,,,,,,,,,,,,,,,,,,,,,,,,,,,,,
,,,,,,,,,5bc5fa5248576300014e0739,22,Kobieta,2022-06-04_08h10.06.627,task,2021.1.4,Win32,59.49901827,628b806c463b948bc644b84f,629af7278e6c18f940b51bfd,,space,11.4346,space,3.4533,0,0,0,0,1,X V Q F H G B L J M P D K C T S W R N Z,,,,,,,,,,,,,,,,,,,,,,,,,,,,,,,,,,,,,,,,,,,,,,,,,,,,,,,,,,,,,,,,,,,,,,,,,,,,,,,,,,,,,,,,,,,,,
,,,,,,,,,5bc5fa5248576300014e0739,22,Kobieta,2022-06-04_08h10.06.627,task,2021.1.4,Win32,59.49901827,628b806c463b948bc644b84f,629af7278e6c18f940b51bfd,,,,,,1,0,1,0,1,X V Q F H G B L J M P D K C T S W R N Z,,,,,,,,,,,,,,,,,,,,,,,,,,,,,,,,,,,,,,,,,,,,,,,,,,,,,,,,,,,,,,,,,,,,,,,,,,,,,,,,,,,,,,,,,,,,,
,,,,,,,,,5bc5fa5248576300014e0739,22,Kobieta,2022-06-04_08h10.06.627,task,2021.1.4,Win32,59.49901827,628b806c463b948bc644b84f,629af7278e6c18f940b51bfd,,,,,,,,,,,,zx,"[""z"",""x""]","[0.8791999999880886,1.2208000000119341,2.204600000023845]",1,ZX,0,0,0,0,1,,,,,,,,,,,,,,,,,,,,,,,,,,,,,,,,,,,,,,,,,,,,,,,,,,,,,,,,,,,,,,,,,,,,,,,,,,,,,,,,,,,
,,,,,,,,,5bc5fa5248576300014e0739,22,Kobieta,2022-06-04_08h10.06.627,task,2021.1.4,Win32,59.49901827,628b806c463b948bc644b84f,629af7278e6c18f940b51bfd,,,,,,0,0,0,0,1,X V Q F H G B L J M P D K C T S W R N Z,,,,,,,,,,,,,,,,,,,,,,,,,,,,,,,,,,,,,,,,,,,,,,,,,,,,,,,,,,,,,,,,,,,,,,,,,,,,,,,,,,,,,,,,,,,,,
,,,,,,,,,5bc5fa5248576300014e0739,22,Kobieta,2022-06-04_08h10.06.627,task,2021.1.4,Win32,59.49901827,628b806c463b948bc644b84f,629af7278e6c18f940b51bfd,,,,,,1,0,1,0,1,X V Q F H G B L J M P D K C T S W R N Z,,,,,,,,,,,,,,,,,,,,,,,,,,,,,,,,,,,,,,,,,,,,,,,,,,,,,,,,,,,,,,,,,,,,,,,,,,,,,,,,,,,,,,,,,,,,,
,,,,,,,,,5bc5fa5248576300014e0739,22,Kobieta,2022-06-04_08h10.06.627,task,2021.1.4,Win32,59.49901827,628b806c463b948bc644b84f,629af7278e6c18f940b51bfd,,,,,,,,,,,,bt,"[""b"",""t""]","[0.9627000000476755,1.340100000023881,1.6816000000238773]",1,BT,1,0,1,0,1,,,,,,,,,,,,,,,,,,,,,,,,,,,,,,,,,,,,,,,,,,,,,,,,,,,,,,,,,,,,,,,,,,,,,,,,,,,,,,,,,,,
,,,,,,,,,5bc5fa5248576300014e0739,22,Kobieta,2022-06-04_08h10.06.627,task,2021.1.4,Win32,59.49901827,628b806c463b948bc644b84f,629af7278e6c18f940b51bfd,,,,,,0,0,0,0,1,X V Q F H G B L J M P D K C T S W R N Z,,,,,,,,,,,,,,,,,,,,,,,,,,,,,,,,,,,,,,,,,,,,,,,,,,,,,,,,,,,,,,,,,,,,,,,,,,,,,,,,,,,,,,,,,,,,,
,,,,,,,,,5bc5fa5248576300014e0739,22,Kobieta,2022-06-04_08h10.06.627,task,2021.1.4,Win32,59.49901827,628b806c463b948bc644b84f,629af7278e6c18f940b51bfd,,,,,,1,0,1,0,1,X V Q F H G B L J M P D K C T S W R N Z,,,,,,,,,,,,,,,,,,,,,,,,,,,,,,,,,,,,,,,,,,,,,,,,,,,,,,,,,,,,,,,,,,,,,,,,,,,,,,,,,,,,,,,,,,,,,
,,,,,,,,,5bc5fa5248576300014e0739,22,Kobieta,2022-06-04_08h10.06.627,task,2021.1.4,Win32,59.49901827,628b806c463b948bc644b84f,629af7278e6c18f940b51bfd,,,,,,2,0,2,0,1,X V Q F H G B L J M P D K C T S W R N Z,,,,,,,,,,,,,,,,,,,,,,,,,,,,,,,,,,,,,,,,,,,,,,,,,,,,,,,,,,,,,,,,,,,,,,,,,,,,,,,,,,,,,,,,,,,,,
,,,,,,,,,5bc5fa5248576300014e0739,22,Kobieta,2022-06-04_08h10.06.627,task,2021.1.4,Win32,59.49901827,628b806c463b948bc644b84f,629af7278e6c18f940b51bfd,,,,,,,,,,,,xbt,"[""x"",""b"",""t""]","[0.5894000000357664,1.0980000000000132,1.4982000000476887,1.72199999999998]",1,XBT,2,0,2,0,1,,,,,,,,,,,,,,,,,,,,,,,,,,,,,,,,,,,,,,,,,,,,,,,,,,,,,,,,,,,,,,,,,,,,,,,,,,,,,,,,,,,
,,,,,,,,,5bc5fa5248576300014e0739,22,Kobieta,2022-06-04_08h10.06.627,task,2021.1.4,Win32,59.49901827,628b806c463b948bc644b84f,629af7278e6c18f940b51bfd,,,,,,0,0,0,0,1,X V Q F H G B L J M P D K C T S W R N Z,,,,,,,,,,,,,,,,,,,,,,,,,,,,,,,,,,,,,,,,,,,,,,,,,,,,,,,,,,,,,,,,,,,,,,,,,,,,,,,,,,,,,,,,,,,,,
,,,,,,,,,5bc5fa5248576300014e0739,22,Kobieta,2022-06-04_08h10.06.627,task,2021.1.4,Win32,59.49901827,628b806c463b948bc644b84f,629af7278e6c18f940b51bfd,,,,,,1,0,1,0,1,X V Q F H G B L J M P D K C T S W R N Z,,,,,,,,,,,,,,,,,,,,,,,,,,,,,,,,,,,,,,,,,,,,,,,,,,,,,,,,,,,,,,,,,,,,,,,,,,,,,,,,,,,,,,,,,,,,,
,,,,,,,,,5bc5fa5248576300014e0739,22,Kobieta,2022-06-04_08h10.06.627,task,2021.1.4,Win32,59.49901827,628b806c463b948bc644b84f,629af7278e6c18f940b51bfd,,,,,,2,0,2,0,1,X V Q F H G B L J M P D K C T S W R N Z,,,,,,,,,,,,,,,,,,,,,,,,,,,,,,,,,,,,,,,,,,,,,,,,,,,,,,,,,,,,,,,,,,,,,,,,,,,,,,,,,,,,,,,,,,,,,
,,,,,,,,,5bc5fa5248576300014e0739,22,Kobieta,2022-06-04_08h10.06.627,task,2021.1.4,Win32,59.49901827,628b806c463b948bc644b84f,629af7278e6c18f940b51bfd,,,,,,,,,,,,zbd,"[""z"",""b"",""d""]","[1.13120000004767,1.4912000000476837,1.98390000003576,2.3806000000238328]",1,ZBD,3,0,3,0,1,,,,,,,,,,,,,,,,,,,,,,,,,,,,,,,,,,,,,,,,,,,,,,,,,,,,,,,,,,,,,,,,,,,,,,,,,,,,,,,,,,,
,,,,,,,,,5bc5fa5248576300014e0739,22,Kobieta,2022-06-04_08h10.06.627,task,2021.1.4,Win32,59.49901827,628b806c463b948bc644b84f,629af7278e6c18f940b51bfd,,,,,,0,0,0,0,1,X V Q F H G B L J M P D K C T S W R N Z,,,,,,,,,,,,,,,,,,,,,,,,,,,,,,,,,,,,,,,,,,,,,,,,,,,,,,,,,,,,,,,,,,,,,,,,,,,,,,,,,,,,,,,,,,,,,
,,,,,,,,,5bc5fa5248576300014e0739,22,Kobieta,2022-06-04_08h10.06.627,task,2021.1.4,Win32,59.49901827,628b806c463b948bc644b84f,629af7278e6c18f940b51bfd,,,,,,1,0,1,0,1,X V Q F H G B L J M P D K C T S W R N Z,,,,,,,,,,,,,,,,,,,,,,,,,,,,,,,,,,,,,,,,,,,,,,,,,,,,,,,,,,,,,,,,,,,,,,,,,,,,,,,,,,,,,,,,,,,,,
,,,,,,,,,5bc5fa5248576300014e0739,22,Kobieta,2022-06-04_08h10.06.627,task,2021.1.4,Win32,59.49901827,628b806c463b948bc644b84f,629af7278e6c18f940b51bfd,,,,,,2,0,2,0,1,X V Q F H G B L J M P D K C T S W R N Z,,,,,,,,,,,,,,,,,,,,,,,,,,,,,,,,,,,,,,,,,,,,,,,,,,,,,,,,,,,,,,,,,,,,,,,,,,,,,,,,,,,,,,,,,,,,,
,,,,,,,,,5bc5fa5248576300014e0739,22,Kobieta,2022-06-04_08h10.06.627,task,2021.1.4,Win32,59.49901827,628b806c463b948bc644b84f,629af7278e6c18f940b51bfd,,,,,,3,0,3,0,1,X V Q F H G B L J M P D K C T S W R N Z,,,,,,,,,,,,,,,,,,,,,,,,,,,,,,,,,,,,,,,,,,,,,,,,,,,,,,,,,,,,,,,,,,,,,,,,,,,,,,,,,,,,,,,,,,,,,
,,,,,,,,,5bc5fa5248576300014e0739,22,Kobieta,2022-06-04_08h10.06.627,task,2021.1.4,Win32,59.49901827,628b806c463b948bc644b84f,629af7278e6c18f940b51bfd,,,,,,,,,,,,tvzr,"[""t"",""v"",""z"",""r""]","[0.61489999997616,0.9683999999761568,1.5054999999999836,1.8503000000118845,2.138399999976116]",1,TVZR,4,0,4,0,1,,,,,,,,,,,,,,,,,,,,,,,,,,,,,,,,,,,,,,,,,,,,,,,,,,,,,,,,,,,,,,,,,,,,,,,,,,,,,,,,,,,
,,,,,,,,,5bc5fa5248576300014e0739,22,Kobieta,2022-06-04_08h10.06.627,task,2021.1.4,Win32,59.49901827,628b806c463b948bc644b84f,629af7278e6c18f940b51bfd,,,,,,0,0,0,0,1,X V Q F H G B L J M P D K C T S W R N Z,,,,,,,,,,,,,,,,,,,,,,,,,,,,,,,,,,,,,,,,,,,,,,,,,,,,,,,,,,,,,,,,,,,,,,,,,,,,,,,,,,,,,,,,,,,,,
,,,,,,,,,5bc5fa5248576300014e0739,22,Kobieta,2022-06-04_08h10.06.627,task,2021.1.4,Win32,59.49901827,628b806c463b948bc644b84f,629af7278e6c18f940b51bfd,,,,,,1,0,1,0,1,X V Q F H G B L J M P D K C T S W R N Z,,,,,,,,,,,,,,,,,,,,,,,,,,,,,,,,,,,,,,,,,,,,,,,,,,,,,,,,,,,,,,,,,,,,,,,,,,,,,,,,,,,,,,,,,,,,,
,,,,,,,,,5bc5fa5248576300014e0739,22,Kobieta,2022-06-04_08h10.06.627,task,2021.1.4,Win32,59.49901827,628b806c463b948bc644b84f,629af7278e6c18f940b51bfd,,,,,,2,0,2,0,1,X V Q F H G B L J M P D K C T S W R N Z,,,,,,,,,,,,,,,,,,,,,,,,,,,,,,,,,,,,,,,,,,,,,,,,,,,,,,,,,,,,,,,,,,,,,,,,,,,,,,,,,,,,,,,,,,,,,
,,,,,,,,,5bc5fa5248576300014e0739,22,Kobieta,2022-06-04_08h10.06.627,task,2021.1.4,Win32,59.49901827,628b806c463b948bc644b84f,629af7278e6c18f940b51bfd,,,,,,3,0,3,0,1,X V Q F H G B L J M P D K C T S W R N Z,,,,,,,,,,,,,,,,,,,,,,,,,,,,,,,,,,,,,,,,,,,,,,,,,,,,,,,,,,,,,,,,,,,,,,,,,,,,,,,,,,,,,,,,,,,,,
,,,,,,,,,5bc5fa5248576300014e0739,22,Kobieta,2022-06-04_08h10.06.627,task,2021.1.4,Win32,59.49901827,628b806c463b948bc644b84f,629af7278e6c18f940b51bfd,,,,,,,,,,,,wvzd,"[""w"",""v"",""z"",""d""]","[1.8235999999642445,2.4642999999522885,2.879699999988077,3.202299999952345,3.53449999999998]",1,WVZD,5,0,5,0,1,,,,,,,,,,,,,,,,,,,,,,,,,,,,,,,,,,,,,,,,,,,,,,,,,,,,,,,,,,,,,,,,,,,,,,,,,,,,,,,,,,,
,,,,,,,,,5bc5fa5248576300014e0739,22,Kobieta,2022-06-04_08h10.06.627,task,2021.1.4,Win32,59.49901827,628b806c463b948bc644b84f,629af7278e6c18f940b51bfd,,,,,,0,0,0,0,1,X V Q F H G B L J M P D K C T S W R N Z,,,,,,,,,,,,,,,,,,,,,,,,,,,,,,,,,,,,,,,,,,,,,,,,,,,,,,,,,,,,,,,,,,,,,,,,,,,,,,,,,,,,,,,,,,,,,
,,,,,,,,,5bc5fa5248576300014e0739,22,Kobieta,2022-06-04_08h10.06.627,task,2021.1.4,Win32,59.49901827,628b806c463b948bc644b84f,629af7278e6c18f940b51bfd,,,,,,1,0,1,0,1,X V Q F H G B L J M P D K C T S W R N Z,,,,,,,,,,,,,,,,,,,,,,,,,,,,,,,,,,,,,,,,,,,,,,,,,,,,,,,,,,,,,,,,,,,,,,,,,,,,,,,,,,,,,,,,,,,,,
,,,,,,,,,5bc5fa5248576300014e0739,22,Kobieta,2022-06-04_08h10.06.627,task,2021.1.4,Win32,59.49901827,628b806c463b948bc644b84f,629af7278e6c18f940b51bfd,,,,,,2,0,2,0,1,X V Q F H G B L J M P D K C T S W R N Z,,,,,,,,,,,,,,,,,,,,,,,,,,,,,,,,,,,,,,,,,,,,,,,,,,,,,,,,,,,,,,,,,,,,,,,,,,,,,,,,,,,,,,,,,,,,,
,,,,,,,,,5bc5fa5248576300014e0739,22,Kobieta,2022-06-04_08h10.06.627,task,2021.1.4,Win32,59.49901827,628b806c463b948bc644b84f,629af7278e6c18f940b51bfd,,,,,,3,0,3,0,1,X V Q F H G B L J M P D K C T S W R N Z,,,,,,,,,,,,,,,,,,,,,,,,,,,,,,,,,,,,,,,,,,,,,,,,,,,,,,,,,,,,,,,,,,,,,,,,,,,,,,,,,,,,,,,,,,,,,
,,,,,,,,,5bc5fa5248576300014e0739,22,Kobieta,2022-06-04_08h10.06.627,task,2021.1.4,Win32,59.49901827,628b806c463b948bc644b84f,629af7278e6c18f940b51bfd,,,,,,4,0,4,0,1,X V Q F H G B L J M P D K C T S W R N Z,,,,,,,,,,,,,,,,,,,,,,,,,,,,,,,,,,,,,,,,,,,,,,,,,,,,,,,,,,,,,,,,,,,,,,,,,,,,,,,,,,,,,,,,,,,,,
,,,,,,,,,5bc5fa5248576300014e0739,22,Kobieta,2022-06-04_08h10.06.627,task,2021.1.4,Win32,59.49901827,628b806c463b948bc644b84f,629af7278e6c18f940b51bfd,,,,,,,,,,,,vvlpl,"[""v"",""v"",""l"",""p"",""l""]","[0.6800999999642272,0.8701999999880741,1.350999999999999,1.5980000000000132,1.756099999964249,2.089499999999987]",1,VVLPL,6,0,6,0,1,,,,,,,,,,,,,,,,,,,,,,,,,,,,,,,,,,,,,,,,,,,,,,,,,,,,,,,,,,,,,,,,,,,,,,,,,,,,,,,,,,,
,,,,,,,,,5bc5fa5248576300014e0739,22,Kobieta,2022-06-04_08h10.06.627,task,2021.1.4,Win32,59.49901827,628b806c463b948bc644b84f,629af7278e6c18f940b51bfd,,,,,,0,0,0,0,1,X V Q F H G B L J M P D K C T S W R N Z,,,,,,,,,,,,,,,,,,,,,,,,,,,,,,,,,,,,,,,,,,,,,,,,,,,,,,,,,,,,,,,,,,,,,,,,,,,,,,,,,,,,,,,,,,,,,
,,,,,,,,,5bc5fa5248576300014e0739,22,Kobieta,2022-06-04_08h10.06.627,task,2021.1.4,Win32,59.49901827,628b806c463b948bc644b84f,629af7278e6c18f940b51bfd,,,,,,1,0,1,0,1,X V Q F H G B L J M P D K C T S W R N Z,,,,,,,,,,,,,,,,,,,,,,,,,,,,,,,,,,,,,,,,,,,,,,,,,,,,,,,,,,,,,,,,,,,,,,,,,,,,,,,,,,,,,,,,,,,,,
,,,,,,,,,5bc5fa5248576300014e0739,22,Kobieta,2022-06-04_08h10.06.627,task,2021.1.4,Win32,59.49901827,628b806c463b948bc644b84f,629af7278e6c18f940b51bfd,,,,,,2,0,2,0,1,X V Q F H G B L J M P D K C T S W R N Z,,,,,,,,,,,,,,,,,,,,,,,,,,,,,,,,,,,,,,,,,,,,,,,,,,,,,,,,,,,,,,,,,,,,,,,,,,,,,,,,,,,,,,,,,,,,,
,,,,,,,,,5bc5fa5248576300014e0739,22,Kobieta,2022-06-04_08h10.06.627,task,2021.1.4,Win32,59.49901827,628b806c463b948bc644b84f,629af7278e6c18f940b51bfd,,,,,,3,0,3,0,1,X V Q F H G B L J M P D K C T S W R N Z,,,,,,,,,,,,,,,,,,,,,,,,,,,,,,,,,,,,,,,,,,,,,,,,,,,,,,,,,,,,,,,,,,,,,,,,,,,,,,,,,,,,,,,,,,,,,
,,,,,,,,,5bc5fa5248576300014e0739,22,Kobieta,2022-06-04_08h10.06.627,task,2021.1.4,Win32,59.49901827,628b806c463b948bc644b84f,629af7278e6c18f940b51bfd,,,,,,4,0,4,0,1,X V Q F H G B L J M P D K C T S W R N Z,,,,,,,,,,,,,,,,,,,,,,,,,,,,,,,,,,,,,,,,,,,,,,,,,,,,,,,,,,,,,,,,,,,,,,,,,,,,,,,,,,,,,,,,,,,,,
,,,,,,,,,5bc5fa5248576300014e0739,22,Kobieta,2022-06-04_08h10.06.627,task,2021.1.4,Win32,59.49901827,628b806c463b948bc644b84f,629af7278e6c18f940b51bfd,,,,,,,,,,,,mjlpx,"[""m"",""j"",""l"",""p"",""x""]","[1.0964999999999918,1.3491000000238387,1.713300000011941,1.9467000000477128,2.381600000023866,3.4492000000477105]",1,MJLPX,7,0,7,0,1,,,,,,,,,,,,,,,,,,,,,,,,,,,,,,,,,,,,,,,,,,,,,,,,,,,,,,,,,,,,,,,,,,,,,,,,,,,,,,,,,,,
,,,,,,,,,5bc5fa5248576300014e0739,22,Kobieta,2022-06-04_08h10.06.627,task,2021.1.4,Win32,59.49901827,628b806c463b948bc644b84f,629af7278e6c18f940b51bfd,,,,,,0,0,0,0,1,X V Q F H G B L J M P D K C T S W R N Z,,,,,,,,,,,,,,,,,,,,,,,,,,,,,,,,,,,,,,,,,,,,,,,,,,,,,,,,,,,,,,,,,,,,,,,,,,,,,,,,,,,,,,,,,,,,,
,,,,,,,,,5bc5fa5248576300014e0739,22,Kobieta,2022-06-04_08h10.06.627,task,2021.1.4,Win32,59.49901827,628b806c463b948bc644b84f,629af7278e6c18f940b51bfd,,,,,,1,0,1,0,1,X V Q F H G B L J M P D K C T S W R N Z,,,,,,,,,,,,,,,,,,,,,,,,,,,,,,,,,,,,,,,,,,,,,,,,,,,,,,,,,,,,,,,,,,,,,,,,,,,,,,,,,,,,,,,,,,,,,
,,,,,,,,,5bc5fa5248576300014e0739,22,Kobieta,2022-06-04_08h10.06.627,task,2021.1.4,Win32,59.49901827,628b806c463b948bc644b84f,629af7278e6c18f940b51bfd,,,,,,2,0,2,0,1,X V Q F H G B L J M P D K C T S W R N Z,,,,,,,,,,,,,,,,,,,,,,,,,,,,,,,,,,,,,,,,,,,,,,,,,,,,,,,,,,,,,,,,,,,,,,,,,,,,,,,,,,,,,,,,,,,,,
,,,,,,,,,5bc5fa5248576300014e0739,22,Kobieta,2022-06-04_08h10.06.627,task,2021.1.4,Win32,59.49901827,628b806c463b948bc644b84f,629af7278e6c18f940b51bfd,,,,,,3,0,3,0,1,X V Q F H G B L J M P D K C T S W R N Z,,,,,,,,,,,,,,,,,,,,,,,,,,,,,,,,,,,,,,,,,,,,,,,,,,,,,,,,,,,,,,,,,,,,,,,,,,,,,,,,,,,,,,,,,,,,,
,,,,,,,,,5bc5fa5248576300014e0739,22,Kobieta,2022-06-04_08h10.06.627,task,2021.1.4,Win32,59.49901827,628b806c463b948bc644b84f,629af7278e6c18f940b51bfd,,,,,,4,0,4,0,1,X V Q F H G B L J M P D K C T S W R N Z,,,,,,,,,,,,,,,,,,,,,,,,,,,,,,,,,,,,,,,,,,,,,,,,,,,,,,,,,,,,,,,,,,,,,,,,,,,,,,,,,,,,,,,,,,,,,
,,,,,,,,,5bc5fa5248576300014e0739,22,Kobieta,2022-06-04_08h10.06.627,task,2021.1.4,Win32,59.49901827,628b806c463b948bc644b84f,629af7278e6c18f940b51bfd,,,,,,5,0,5,0,1,X V Q F H G B L J M P D K C T S W R N Z,,,,,,,,,,,,,,,,,,,,,,,,,,,,,,,,,,,,,,,,,,,,,,,,,,,,,,,,,,,,,,,,,,,,,,,,,,,,,,,,,,,,,,,,,,,,,
,,,,,,,,,5bc5fa5248576300014e0739,22,Kobieta,2022-06-04_08h10.06.627,task,2021.1.4,Win32,59.49901827,628b806c463b948bc644b84f,629af7278e6c18f940b51bfd,,,,,,,,,,,,kvdqnv,"[""k"",""v"",""d"",""q"",""n"",""v""]","[0.9292000000476719,1.8979000000357473,2.4699999999999704,2.8293000000119264,3.2641000000238023,3.6637000000476405,3.894700000047692]",1,KVDQNV,8,0,8,0,1,,,,,,,,,,,,,,,,,,,,,,,,,,,,,,,,,,,,,,,,,,,,,,,,,,,,,,,,,,,,,,,,,,,,,,,,,,,,,,,,,,,
,,,,,,,,,5bc5fa5248576300014e0739,22,Kobieta,2022-06-04_08h10.06.627,task,2021.1.4,Win32,59.49901827,628b806c463b948bc644b84f,629af7278e6c18f940b51bfd,,,,,,0,0,0,0,1,X V Q F H G B L J M P D K C T S W R N Z,,,,,,,,,,,,,,,,,,,,,,,,,,,,,,,,,,,,,,,,,,,,,,,,,,,,,,,,,,,,,,,,,,,,,,,,,,,,,,,,,,,,,,,,,,,,,
,,,,,,,,,5bc5fa5248576300014e0739,22,Kobieta,2022-06-04_08h10.06.627,task,2021.1.4,Win32,59.49901827,628b806c463b948bc644b84f,629af7278e6c18f940b51bfd,,,,,,1,0,1,0,1,X V Q F H G B L J M P D K C T S W R N Z,,,,,,,,,,,,,,,,,,,,,,,,,,,,,,,,,,,,,,,,,,,,,,,,,,,,,,,,,,,,,,,,,,,,,,,,,,,,,,,,,,,,,,,,,,,,,
,,,,,,,,,5bc5fa5248576300014e0739,22,Kobieta,2022-06-04_08h10.06.627,task,2021.1.4,Win32,59.49901827,628b806c463b948bc644b84f,629af7278e6c18f940b51bfd,,,,,,2,0,2,0,1,X V Q F H G B L J M P D K C T S W R N Z,,,,,,,,,,,,,,,,,,,,,,,,,,,,,,,,,,,,,,,,,,,,,,,,,,,,,,,,,,,,,,,,,,,,,,,,,,,,,,,,,,,,,,,,,,,,,
,,,,,,,,,5bc5fa5248576300014e0739,22,Kobieta,2022-06-04_08h10.06.627,task,2021.1.4,Win32,59.49901827,628b806c463b948bc644b84f,629af7278e6c18f940b51bfd,,,,,,3,0,3,0,1,X V Q F H G B L J M P D K C T S W R N Z,,,,,,,,,,,,,,,,,,,,,,,,,,,,,,,,,,,,,,,,,,,,,,,,,,,,,,,,,,,,,,,,,,,,,,,,,,,,,,,,,,,,,,,,,,,,,
,,,,,,,,,5bc5fa5248576300014e0739,22,Kobieta,2022-06-04_08h10.06.627,task,2021.1.4,Win32,59.49901827,628b806c463b948bc644b84f,629af7278e6c18f940b51bfd,,,,,,4,0,4,0,1,X V Q F H G B L J M P D K C T S W R N Z,,,,,,,,,,,,,,,,,,,,,,,,,,,,,,,,,,,,,,,,,,,,,,,,,,,,,,,,,,,,,,,,,,,,,,,,,,,,,,,,,,,,,,,,,,,,,
,,,,,,,,,5bc5fa5248576300014e0739,22,Kobieta,2022-06-04_08h10.06.627,task,2021.1.4,Win32,59.49901827,628b806c463b948bc644b84f,629af7278e6c18f940b51bfd,,,,,,5,0,5,0,1,X V Q F H G B L J M P D K C T S W R N Z,,,,,,,,,,,,,,,,,,,,,,,,,,,,,,,,,,,,,,,,,,,,,,,,,,,,,,,,,,,,,,,,,,,,,,,,,,,,,,,,,,,,,,,,,,,,,
,,,,,,,,,5bc5fa5248576300014e0739,22,Kobieta,2022-06-04_08h10.06.627,task,2021.1.4,Win32,59.49901827,628b806c463b948bc644b84f,629af7278e6c18f940b51bfd,,,,,,,,,,,,wdrtzb,"[""w"",""d"",""r"",""t"",""z"",""b""]","[0.8875000000000455,1.2681000000238782,1.8156000000238919,2.2700000000000387,2.8818000000119355,3.248699999988105,3.600999999999999]",1,WDRTZB,9,0,9,0,1,,,,,,,,,,,,,,,,,,,,,,,,,,,,,,,,,,,,,,,,,,,,,,,,,,,,,,,,,,,,,,,,,,,,,,,,,,,,,,,,,,,
,,,,,,,,,5bc5fa5248576300014e0739,22,Kobieta,2022-06-04_08h10.06.627,task,2021.1.4,Win32,59.49901827,628b806c463b948bc644b84f,629af7278e6c18f940b51bfd,,,,,,0,0,0,0,1,X V Q F H G B L J M P D K C T S W R N Z,,,,,,,,,,,,,,,,,,,,,,,,,,,,,,,,,,,,,,,,,,,,,,,,,,,,,,,,,,,,,,,,,,,,,,,,,,,,,,,,,,,,,,,,,,,,,
,,,,,,,,,5bc5fa5248576300014e0739,22,Kobieta,2022-06-04_08h10.06.627,task,2021.1.4,Win32,59.49901827,628b806c463b948bc644b84f,629af7278e6c18f940b51bfd,,,,,,1,0,1,0,1,X V Q F H G B L J M P D K C T S W R N Z,,,,,,,,,,,,,,,,,,,,,,,,,,,,,,,,,,,,,,,,,,,,,,,,,,,,,,,,,,,,,,,,,,,,,,,,,,,,,,,,,,,,,,,,,,,,,
,,,,,,,,,5bc5fa5248576300014e0739,22,Kobieta,2022-06-04_08h10.06.627,task,2021.1.4,Win32,59.49901827,628b806c463b948bc644b84f,629af7278e6c18f940b51bfd,,,,,,2,0,2,0,1,X V Q F H G B L J M P D K C T S W R N Z,,,,,,,,,,,,,,,,,,,,,,,,,,,,,,,,,,,,,,,,,,,,,,,,,,,,,,,,,,,,,,,,,,,,,,,,,,,,,,,,,,,,,,,,,,,,,
,,,,,,,,,5bc5fa5248576300014e0739,22,Kobieta,2022-06-04_08h10.06.627,task,2021.1.4,Win32,59.49901827,628b806c463b948bc644b84f,629af7278e6c18f940b51bfd,,,,,,3,0,3,0,1,X V Q F H G B L J M P D K C T S W R N Z,,,,,,,,,,,,,,,,,,,,,,,,,,,,,,,,,,,,,,,,,,,,,,,,,,,,,,,,,,,,,,,,,,,,,,,,,,,,,,,,,,,,,,,,,,,,,
,,,,,,,,,5bc5fa5248576300014e0739,22,Kobieta,2022-06-04_08h10.06.627,task,2021.1.4,Win32,59.49901827,628b806c463b948bc644b84f,629af7278e6c18f940b51bfd,,,,,,4,0,4,0,1,X V Q F H G B L J M P D K C T S W R N Z,,,,,,,,,,,,,,,,,,,,,,,,,,,,,,,,,,,,,,,,,,,,,,,,,,,,,,,,,,,,,,,,,,,,,,,,,,,,,,,,,,,,,,,,,,,,,
,,,,,,,,,5bc5fa5248576300014e0739,22,Kobieta,2022-06-04_08h10.06.627,task,2021.1.4,Win32,59.49901827,628b806c463b948bc644b84f,629af7278e6c18f940b51bfd,,,,,,5,0,5,0,1,X V Q F H G B L J M P D K C T S W R N Z,,,,,,,,,,,,,,,,,,,,,,,,,,,,,,,,,,,,,,,,,,,,,,,,,,,,,,,,,,,,,,,,,,,,,,,,,,,,,,,,,,,,,,,,,,,,,
,,,,,,,,,5bc5fa5248576300014e0739,22,Kobieta,2022-06-04_08h10.06.627,task,2021.1.4,Win32,59.49901827,628b806c463b948bc644b84f,629af7278e6c18f940b51bfd,,,,,,6,0,6,0,1,X V Q F H G B L J M P D K C T S W R N Z,,,,,,,,,,,,,,,,,,,,,,,,,,,,,,,,,,,,,,,,,,,,,,,,,,,,,,,,,,,,,,,,,,,,,,,,,,,,,,,,,,,,,,,,,,,,,
,,,,,,,,,5bc5fa5248576300014e0739,22,Kobieta,2022-06-04_08h10.06.627,task,2021.1.4,Win32,59.49901827,628b806c463b948bc644b84f,629af7278e6c18f940b51bfd,,,,,,,,,,,,ddpftmrp,"[""d"",""d"",""p"",""f"",""t"",""m"",""r"",""p""]","[0.5215999999642236,0.7298999999761691,1.0530999999642745,2.5863999999761518,2.915099999964241,3.285799999952303,3.5797999999523427,4.3559999999999945,4.696000000000026]",0,DDPFMBR,10,0,10,0,1,,,,,,,,,,,,,,,,,,,,,,,,,,,,,,,,,,,,,,,,,,,,,,,,,,,,,,,,,,,,,,,,,,,,,,,,,,,,,,,,,,,
,,,,,,,,,5bc5fa5248576300014e0739,22,Kobieta,2022-06-04_08h10.06.627,task,2021.1.4,Win32,59.49901827,628b806c463b948bc644b84f,629af7278e6c18f940b51bfd,,,,,,0,0,0,0,1,X V Q F H G B L J M P D K C T S W R N Z,,,,,,,,,,,,,,,,,,,,,,,,,,,,,,,,,,,,,,,,,,,,,,,,,,,,,,,,,,,,,,,,,,,,,,,,,,,,,,,,,,,,,,,,,,,,,
,,,,,,,,,5bc5fa5248576300014e0739,22,Kobieta,2022-06-04_08h10.06.627,task,2021.1.4,Win32,59.49901827,628b806c463b948bc644b84f,629af7278e6c18f940b51bfd,,,,,,1,0,1,0,1,X V Q F H G B L J M P D K C T S W R N Z,,,,,,,,,,,,,,,,,,,,,,,,,,,,,,,,,,,,,,,,,,,,,,,,,,,,,,,,,,,,,,,,,,,,,,,,,,,,,,,,,,,,,,,,,,,,,
,,,,,,,,,5bc5fa5248576300014e0739,22,Kobieta,2022-06-04_08h10.06.627,task,2021.1.4,Win32,59.49901827,628b806c463b948bc644b84f,629af7278e6c18f940b51bfd,,,,,,2,0,2,0,1,X V Q F H G B L J M P D K C T S W R N Z,,,,,,,,,,,,,,,,,,,,,,,,,,,,,,,,,,,,,,,,,,,,,,,,,,,,,,,,,,,,,,,,,,,,,,,,,,,,,,,,,,,,,,,,,,,,,
,,,,,,,,,5bc5fa5248576300014e0739,22,Kobieta,2022-06-04_08h10.06.627,task,2021.1.4,Win32,59.49901827,628b806c463b948bc644b84f,629af7278e6c18f940b51bfd,,,,,,3,0,3,0,1,X V Q F H G B L J M P D K C T S W R N Z,,,,,,,,,,,,,,,,,,,,,,,,,,,,,,,,,,,,,,,,,,,,,,,,,,,,,,,,,,,,,,,,,,,,,,,,,,,,,,,,,,,,,,,,,,,,,
,,,,,,,,,5bc5fa5248576300014e0739,22,Kobieta,2022-06-04_08h10.06.627,task,2021.1.4,Win32,59.49901827,628b806c463b948bc644b84f,629af7278e6c18f940b51bfd,,,,,,4,0,4,0,1,X V Q F H G B L J M P D K C T S W R N Z,,,,,,,,,,,,,,,,,,,,,,,,,,,,,,,,,,,,,,,,,,,,,,,,,,,,,,,,,,,,,,,,,,,,,,,,,,,,,,,,,,,,,,,,,,,,,
,,,,,,,,,5bc5fa5248576300014e0739,22,Kobieta,2022-06-04_08h10.06.627,task,2021.1.4,Win32,59.49901827,628b806c463b948bc644b84f,629af7278e6c18f940b51bfd,,,,,,5,0,5,0,1,X V Q F H G B L J M P D K C T S W R N Z,,,,,,,,,,,,,,,,,,,,,,,,,,,,,,,,,,,,,,,,,,,,,,,,,,,,,,,,,,,,,,,,,,,,,,,,,,,,,,,,,,,,,,,,,,,,,
,,,,,,,,,5bc5fa5248576300014e0739,22,Kobieta,2022-06-04_08h10.06.627,task,2021.1.4,Win32,59.49901827,628b806c463b948bc644b84f,629af7278e6c18f940b51bfd,,,,,,6,0,6,0,1,X V Q F H G B L J M P D K C T S W R N Z,,,,,,,,,,,,,,,,,,,,,,,,,,,,,,,,,,,,,,,,,,,,,,,,,,,,,,,,,,,,,,,,,,,,,,,,,,,,,,,,,,,,,,,,,,,,,
,,,,,,,,,5bc5fa5248576300014e0739,22,Kobieta,2022-06-04_08h10.06.627,task,2021.1.4,Win32,59.49901827,628b806c463b948bc644b84f,629af7278e6c18f940b51bfd,,,,,,,,,,,,sgdrlplg,"[""s"",""g"",""d"",""r"",""l"",""p"",""l"",""g""]","[1.249099999964244,1.5395000000000323,1.8151999999880672,2.06639999997617,2.3625000000000114,2.5845999999642686,2.8625000000000114,3.171699999988107,3.551599999964253]",0,SGDRLGP,11,0,11,0,1,,,,,,,,,,,,,,,,,,,,,,,,,,,,,,,,,,,,,,,,,,,,,,,,,,,,,,,,,,,,,,,,,,,,,,,,,,,,,,,,,,,
,,,,,,,,,5bc5fa5248576300014e0739,22,Kobieta,2022-06-04_08h10.06.627,task,2021.1.4,Win32,59.49901827,628b806c463b948bc644b84f,629af7278e6c18f940b51bfd,,,,,,0,0,0,0,1,X V Q F H G B L J M P D K C T S W R N Z,,,,,,,,,,,,,,,,,,,,,,,,,,,,,,,,,,,,,,,,,,,,,,,,,,,,,,,,,,,,,,,,,,,,,,,,,,,,,,,,,,,,,,,,,,,,,
,,,,,,,,,5bc5fa5248576300014e0739,22,Kobieta,2022-06-04_08h10.06.627,task,2021.1.4,Win32,59.49901827,628b806c463b948bc644b84f,629af7278e6c18f940b51bfd,,,,,,1,0,1,0,1,X V Q F H G B L J M P D K C T S W R N Z,,,,,,,,,,,,,,,,,,,,,,,,,,,,,,,,,,,,,,,,,,,,,,,,,,,,,,,,,,,,,,,,,,,,,,,,,,,,,,,,,,,,,,,,,,,,,
,,,,,,,,,5bc5fa5248576300014e0739,22,Kobieta,2022-06-04_08h10.06.627,task,2021.1.4,Win32,59.49901827,628b806c463b948bc644b84f,629af7278e6c18f940b51bfd,,,,,,2,0,2,0,1,X V Q F H G B L J M P D K C T S W R N Z,,,,,,,,,,,,,,,,,,,,,,,,,,,,,,,,,,,,,,,,,,,,,,,,,,,,,,,,,,,,,,,,,,,,,,,,,,,,,,,,,,,,,,,,,,,,,
,,,,,,,,,5bc5fa5248576300014e0739,22,Kobieta,2022-06-04_08h10.06.627,task,2021.1.4,Win32,59.49901827,628b806c463b948bc644b84f,629af7278e6c18f940b51bfd,,,,,,3,0,3,0,1,X V Q F H G B L J M P D K C T S W R N Z,,,,,,,,,,,,,,,,,,,,,,,,,,,,,,,,,,,,,,,,,,,,,,,,,,,,,,,,,,,,,,,,,,,,,,,,,,,,,,,,,,,,,,,,,,,,,
,,,,,,,,,5bc5fa5248576300014e0739,22,Kobieta,2022-06-04_08h10.06.627,task,2021.1.4,Win32,59.49901827,628b806c463b948bc644b84f,629af7278e6c18f940b51bfd,,,,,,4,0,4,0,1,X V Q F H G B L J M P D K C T S W R N Z,,,,,,,,,,,,,,,,,,,,,,,,,,,,,,,,,,,,,,,,,,,,,,,,,,,,,,,,,,,,,,,,,,,,,,,,,,,,,,,,,,,,,,,,,,,,,
,,,,,,,,,5bc5fa5248576300014e0739,22,Kobieta,2022-06-04_08h10.06.627,task,2021.1.4,Win32,59.49901827,628b806c463b948bc644b84f,629af7278e6c18f940b51bfd,,,,,,5,0,5,0,1,X V Q F H G B L J M P D K C T S W R N Z,,,,,,,,,,,,,,,,,,,,,,,,,,,,,,,,,,,,,,,,,,,,,,,,,,,,,,,,,,,,,,,,,,,,,,,,,,,,,,,,,,,,,,,,,,,,,
,,,,,,,,,5bc5fa5248576300014e0739,22,Kobieta,2022-06-04_08h10.06.627,task,2021.1.4,Win32,59.49901827,628b806c463b948bc644b84f,629af7278e6c18f940b51bfd,,,,,,6,0,6,0,1,X V Q F H G B L J M P D K C T S W R N Z,,,,,,,,,,,,,,,,,,,,,,,,,,,,,,,,,,,,,,,,,,,,,,,,,,,,,,,,,,,,,,,,,,,,,,,,,,,,,,,,,,,,,,,,,,,,,
,,,,,,,,,5bc5fa5248576300014e0739,22,Kobieta,2022-06-04_08h10.06.627,task,2021.1.4,Win32,59.49901827,628b806c463b948bc644b84f,629af7278e6c18f940b51bfd,,,,,,,,,,,,jgkrtgj,"[""j"",""g"",""k"",""r"",""t"",""g"",""j""]","[0.9470000000000027,1.2301999999880877,1.6628000000119414,2.0136999999880913,2.187899999976139,2.4021999999880563,3.4010000000000105,3.646399999976154]",0,JRKRGGV,12,0,12,0,1,,,,,,,,,,,,,,,,,,,,,,,,,,,,,,,,,,,,,,,,,,,,,,,,,,,,,,,,,,,,,,,,,,,,,,,,,,,,,,,,,,,
,,,,,,,,,5bc5fa5248576300014e0739,22,Kobieta,2022-06-04_08h10.06.627,task,2021.1.4,Win32,59.49901827,628b806c463b948bc644b84f,629af7278e6c18f940b51bfd,,,,,,,,,,,,,,,,,,,,,,space,4.0892,3,"[""3""]",1,[2.662199999988104],[2.662199999988104],0,0,0,3,1,Practice,4,(8/4) + 1,3,,,,,,,,,,,,,,,,,,,,,,,,,,,,,,,,,,,,,,,,,,,,,,,,,,,,,,,,,,,,,,,,,,,
,,,,,,,,,5bc5fa5248576300014e0739,22,Kobieta,2022-06-04_08h10.06.627,task,2021.1.4,Win32,59.49901827,628b806c463b948bc644b84f,629af7278e6c18f940b51bfd,,,,,,,,,,,,,,,,,,,,,,,,6,"[""6""]",1,[1.85479999995232],"[2.662199999988104,1.85479999995232]",0,1,1,6,1,Practice,7,(25/5) + 1,6,,,,,,,,,,,,,,,,,,,,,,,,,,,,,,,,,,,,,,,,,,,,,,,,,,,,,,,,,,,,,,,,,,,
,,,,,,,,,5bc5fa5248576300014e0739,22,Kobieta,2022-06-04_08h10.06.627,task,2021.1.4,Win32,59.49901827,628b806c463b948bc644b84f,629af7278e6c18f940b51bfd,,,,,,,,,,,,,,,,,,,,,,,,4,"[""4""]",1,[2.3946000000238428],"[2.662199999988104,1.85479999995232,2.3946000000238428]",0,2,2,4,1,Practice,5,(2x6) - 8,4,,,,,,,,,,,,,,,,,,,,,,,,,,,,,,,,,,,,,,,,,,,,,,,,,,,,,,,,,,,,,,,,,,,
,,,,,,,,,5bc5fa5248576300014e0739,22,Kobieta,2022-06-04_08h10.06.627,task,2021.1.4,Win32,59.49901827,628b806c463b948bc644b84f,629af7278e6c18f940b51bfd,,,,,,,,,,,,,,,,,,,,,,,,7,"[""7""]",1,[2.4661999999880777],"[2.662199999988104,1.85479999995232,2.3946000000238428,2.4661999999880777]",0,3,3,7,1,Practice,8,(5x5) - 18,7,,,,,,,,,,,,,,,,,,,,,,,,,,,,,,,,,,,,,,,,,,,,,,,,,,,,,,,,,,,,,,,,,,,
,,,,,,,,,5bc5fa5248576300014e0739,22,Kobieta,2022-06-04_08h10.06.627,task,2021.1.4,Win32,59.49901827,628b806c463b948bc644b84f,629af7278e6c18f940b51bfd,,,,,,,,,,,,,,,,,,,,,,,,0,"[""0""]",1,[1.5],"[2.662199999988104,1.85479999995232,2.3946000000238428,2.4661999999880777,1.5]",0,4,4,0,1,Practice,1,(3x3) -  9,0,,,,,,,,,,,,,,,,,,,,,,,,,,,,,,,,,,,,,,,,,,,,,,,,,,,,,,,,,,,,,,,,,,,
,,,,,,,,,5bc5fa5248576300014e0739,22,Kobieta,2022-06-04_08h10.06.627,task,2021.1.4,Win32,59.49901827,628b806c463b948bc644b84f,629af7278e6c18f940b51bfd,,,,,,,,,,,,,,,,,,,,,,,,1,"[""1""]",1,[1.4643999999761377],"[2.662199999988104,1.85479999995232,2.3946000000238428,2.4661999999880777,1.5,1.4643999999761377]",0,5,5,1,1,Practice,2,(4x4) - 15,1,,,,,,,,,,,,,,,,,,,,,,,,,,,,,,,,,,,,,,,,,,,,,,,,,,,,,,,,,,,,,,,,,,,
,,,,,,,,,5bc5fa5248576300014e0739,22,Kobieta,2022-06-04_08h10.06.627,task,2021.1.4,Win32,59.49901827,628b806c463b948bc644b84f,629af7278e6c18f940b51bfd,,,,,,,,,,,,,,,,,,,,,,,,5,"[""5""]",1,[1.5459999999999923],"[2.662199999988104,1.85479999995232,2.3946000000238428,2.4661999999880777,1.5,1.4643999999761377,1.5459999999999923]",0,6,6,5,1,Practice,6,(4/2) + 3,5,,,,,,,,,,,,,,,,,,,,,,,,,,,,,,,,,,,,,,,,,,,,,,,,,,,,,,,,,,,,,,,,,,,
,,,,,,,,,5bc5fa5248576300014e0739,22,Kobieta,2022-06-04_08h10.06.627,task,2021.1.4,Win32,59.49901827,628b806c463b948bc644b84f,629af7278e6c18f940b51bfd,,,,,,,,,,,,,,,,,,,,,,,,9,"[""9""]",1,[1.6804000000357178],"[2.662199999988104,1.85479999995232,2.3946000000238428,2.4661999999880777,1.5,1.4643999999761377,1.5459999999999923,1.6804000000357178]",0,7,7,9,1,Practice,10,(20/2) - 1,9,,,,,,,,,,,,,,,,,,,,,,,,,,,,,,,,,,,,,,,,,,,,,,,,,,,,,,,,,,,,,,,,,,,
,,,,,,,,,5bc5fa5248576300014e0739,22,Kobieta,2022-06-04_08h10.06.627,task,2021.1.4,Win32,59.49901827,628b806c463b948bc644b84f,629af7278e6c18f940b51bfd,,,,,,,,,,,,,,,,,,,,,,,,8,"[""8""]",1,[1.3330000000000268],"[2.662199999988104,1.85479999995232,2.3946000000238428,2.4661999999880777,1.5,1.4643999999761377,1.5459999999999923,1.6804000000357178,1.3330000000000268]",0,8,8,8,1,Practice,9,(3x3) - 1,8,,,,,,,,,,,,,,,,,,,,,,,,,,,,,,,,,,,,,,,,,,,,,,,,,,,,,,,,,,,,,,,,,,,
,,,,,,,,,5bc5fa5248576300014e0739,22,Kobieta,2022-06-04_08h10.06.627,task,2021.1.4,Win32,59.49901827,628b806c463b948bc644b84f,629af7278e6c18f940b51bfd,,,,,,,,,,,,,,,,,,,,,,,,2,"[""2""]",1,[1.950099999964209],"[2.662199999988104,1.85479999995232,2.3946000000238428,2.4661999999880777,1.5,1.4643999999761377,1.5459999999999923,1.6804000000357178,1.3330000000000268,1.950099999964209]",0,9,9,2,1,Practice,3,(4x4) - 14,2,,,,,,,,,,,,,,,,,,,,,,,,,,,,,,,,,,,,,,,,,,,,,,,,,,,,,,,,,,,,,,,,,,,
,,,,,,,,,5bc5fa5248576300014e0739,22,Kobieta,2022-06-04_08h10.06.627,task,2021.1.4,Win32,59.49901827,628b806c463b948bc644b84f,629af7278e6c18f940b51bfd,,,,,,,,,,,,,,,,,,,,,,,,,,,,,,,,,,,,,,1,18.8517,1.25678,5.942030642,0.629392863,2.880613587,space,0.9546,0,0,0,0,1,,,,,,,,,,,,,,,,,,,,,,,,,,,,,,,,,,,,,,,,,,,,,,,,,,,,,,
,,,,,,,,,5bc5fa5248576300014e0739,22,Kobieta,2022-06-04_08h10.06.627,task,2021.1.4,Win32,59.49901827,628b806c463b948bc644b84f,629af7278e6c18f940b51bfd,,,,,,,,,,,,,,,,,,,,,,,,,,,,,,,,,,Practice,10,(20/2) - 1,9,,,,,,,,,,,,,,space,0.9683,,0,0,0,0,0,9,1,,,,,,,,,,,,,,,,,,,,,,,,,,,,,,,,,,,,,,,,,,,,
,,,,,,,,,5bc5fa5248576300014e0739,22,Kobieta,2022-06-04_08h10.06.627,task,2021.1.4,Win32,59.49901827,628b806c463b948bc644b84f,629af7278e6c18f940b51bfd,,,,,,,,,,,,,,,,,,,,,,,,6,,,,,,,,,,Practice,7,(25/5) + 1,6,,,,,,,,,,,,,,,,"[""6""]",1,1,0,1,1,6,1,[1.4221000000238746],,,,,,,,,,,,,,,,,,,,,,,,,,,,,,,,,,,,,,,,,,,
,,,,,,,,,5bc5fa5248576300014e0739,22,Kobieta,2022-06-04_08h10.06.627,task,2021.1.4,Win32,59.49901827,628b806c463b948bc644b84f,629af7278e6c18f940b51bfd,,,,,,,,,,,X V Q F H G B L J M P D K C T S W R N Z,,,,,,,,,,,,,,,,,,,,,,,,,,,,,,,,,,,,,,,,,,,,,,,,,,,0,0,0,0,1,,,,,,,,,,,,,,,,,,,,,,,,,,,,,,,,,,,,,,
,,,,,,,,,5bc5fa5248576300014e0739,22,Kobieta,2022-06-04_08h10.06.627,task,2021.1.4,Win32,59.49901827,628b806c463b948bc644b84f,629af7278e6c18f940b51bfd,,,,,,,,,,,,,,,,,,,,,,,,9,,,,,,,,,,Practice,10,(20/2) - 1,9,,,,,,,,,,,,,,,,"[""9""]",1,1,0,0,0,9,1,[2.419199999988109],,,,,,,,,,,,,,,,,,,,,,,,,,,,,,,,,,,,,,,,,,,
,,,,,,,,,5bc5fa5248576300014e0739,22,Kobieta,2022-06-04_08h10.06.627,task,2021.1.4,Win32,59.49901827,628b806c463b948bc644b84f,629af7278e6c18f940b51bfd,,,,,,,,,,,X V Q F H G B L J M P D K C T S W R N Z,,,,,,,,,,,,,,,,,,,,,,,,,,,,,,,,,,,,,,,,,,,,,,,,,,,1,0,1,0,1,,,,,,,,,,,,,,,,,,,,,,,,,,,,,,,,,,,,,,
,,,,,,,,,5bc5fa5248576300014e0739,22,Kobieta,2022-06-04_08h10.06.627,task,2021.1.4,Win32,59.49901827,628b806c463b948bc644b84f,629af7278e6c18f940b51bfd,,,,,,,,,,,,,,,,,,,,,,,,,,,,,,,,,,,,,,,,,,,,,,,,,,,,,,,,,,,,,,,,,,,zq,"[""z"",""q""]",0,"[2.0318000000119127,2.4555999999642495,4.482500000000016]",1,0,0,0,0,1,,,,,,,,,,,,,,,,,,,,,,,,,,,,
,,,,,,,,,5bc5fa5248576300014e0739,22,Kobieta,2022-06-04_08h10.06.627,task,2021.1.4,Win32,59.49901827,628b806c463b948bc644b84f,629af7278e6c18f940b51bfd,,,,,,,,,,,,,,,,,,,,,,,,0,,,,,,,,,,Practice,1,(3x3) -  9,0,,,,,,,,,,,,,,,,"[""0""]",1,1,0,0,0,0,1,[1.1939000000357396],,,,,,,,,,,,,,,,,,,,,,,,,,,,,,,,,,,,,,,,,,,
,,,,,,,,,5bc5fa5248576300014e0739,22,Kobieta,2022-06-04_08h10.06.627,task,2021.1.4,Win32,59.49901827,628b806c463b948bc644b84f,629af7278e6c18f940b51bfd,,,,,,,,,,,X V Q F H G B L J M P D K C T S W R N Z,,,,,,,,,,,,,,,,,,,,,,,,,,,,,,,,,,,,,,,,,,,,,,,,,,,0,0,0,0,1,,,,,,,,,,,,,,,,,,,,,,,,,,,,,,,,,,,,,,
,,,,,,,,,5bc5fa5248576300014e0739,22,Kobieta,2022-06-04_08h10.06.627,task,2021.1.4,Win32,59.49901827,628b806c463b948bc644b84f,629af7278e6c18f940b51bfd,,,,,,,,,,,,,,,,,,,,,,,,1,,,,,,,,,,Practice,2,(4x4) - 15,1,,,,,,,,,,,,,,,,"[""1""]",1,1,0,0,0,1,1,[1.2333999999761431],,,,,,,,,,,,,,,,,,,,,,,,,,,,,,,,,,,,,,,,,,,
,,,,,,,,,5bc5fa5248576300014e0739,22,Kobieta,2022-06-04_08h10.06.627,task,2021.1.4,Win32,59.49901827,628b806c463b948bc644b84f,629af7278e6c18f940b51bfd,,,,,,,,,,,X V Q F H G B L J M P D K C T S W R N Z,,,,,,,,,,,,,,,,,,,,,,,,,,,,,,,,,,,,,,,,,,,,,,,,,,,1,0,1,0,1,,,,,,,,,,,,,,,,,,,,,,,,,,,,,,,,,,,,,,
,,,,,,,,,5bc5fa5248576300014e0739,22,Kobieta,2022-06-04_08h10.06.627,task,2021.1.4,Win32,59.49901827,628b806c463b948bc644b84f,629af7278e6c18f940b51bfd,,,,,,,,,,,,,,,,,,,,,,,,,,,,,,,,,,,,,,,,,,,,,,,,,,,,,,,,,,,,,,,,,,,rm,"[""r"",""m""]",0,"[2.1217000000476673,2.3158000000119046,2.9375]",1,1,0,1,0,1,,,,,,,,,,,,,,,,,,,,,,,,,,,,
,,,,,,,,,5bc5fa5248576300014e0739,22,Kobieta,2022-06-04_08h10.06.627,task,2021.1.4,Win32,59.49901827,628b806c463b948bc644b84f,629af7278e6c18f940b51bfd,,,,,,,,,,,,,,,,,,,,,,,,7,,,,,,,,,,Practice,8,(5x5) - 18,7,,,,,,,,,,,,,,,,"[""7""]",1,1,0,0,0,7,1,[1.7459000000357605],,,,,,,,,,,,,,,,,,,,,,,,,,,,,,,,,,,,,,,,,,,
,,,,,,,,,5bc5fa5248576300014e0739,22,Kobieta,2022-06-04_08h10.06.627,task,2021.1.4,Win32,59.49901827,628b806c463b948bc644b84f,629af7278e6c18f940b51bfd,,,,,,,,,,,X V Q F H G B L J M P D K C T S W R N Z,,,,,,,,,,,,,,,,,,,,,,,,,,,,,,,,,,,,,,,,,,,,,,,,,,,0,0,0,0,1,,,,,,,,,,,,,,,,,,,,,,,,,,,,,,,,,,,,,,
,,,,,,,,,5bc5fa5248576300014e0739,22,Kobieta,2022-06-04_08h10.06.627,task,2021.1.4,Win32,59.49901827,628b806c463b948bc644b84f,629af7278e6c18f940b51bfd,,,,,,,,,,,,,,,,,,,,,,,,9,,,,,,,,,,Practice,10,(20/2) - 1,9,,,,,,,,,,,,,,,,"[""9""]",1,1,0,0,0,9,1,[1.3503999999761618],,,,,,,,,,,,,,,,,,,,,,,,,,,,,,,,,,,,,,,,,,,
,,,,,,,,,5bc5fa5248576300014e0739,22,Kobieta,2022-06-04_08h10.06.627,task,2021.1.4,Win32,59.49901827,628b806c463b948bc644b84f,629af7278e6c18f940b51bfd,,,,,,,,,,,X V Q F H G B L J M P D K C T S W R N Z,,,,,,,,,,,,,,,,,,,,,,,,,,,,,,,,,,,,,,,,,,,,,,,,,,,1,0,1,0,1,,,,,,,,,,,,,,,,,,,,,,,,,,,,,,,,,,,,,,
,,,,,,,,,5bc5fa5248576300014e0739,22,Kobieta,2022-06-04_08h10.06.627,task,2021.1.4,Win32,59.49901827,628b806c463b948bc644b84f,629af7278e6c18f940b51bfd,,,,,,,,,,,,,,,,,,,,,,,,,,,,,,,,,,,,,,,,,,,,,,,,,,,,,,,,,,,,,,,,,,,xh,"[""x"",""h""]",0,"[1.8650999999642295,2.4681999999880873,2.841699999988066]",1,2,0,2,0,1,,,,,,,,,,,,,,,,,,,,,,,,,,,,
,,,,,,,,,5bc5fa5248576300014e0739,22,Kobieta,2022-06-04_08h10.06.627,task,2021.1.4,Win32,59.49901827,628b806c463b948bc644b84f,629af7278e6c18f940b51bfd,,,,,,,,,,,,,,,,,,,,,,,,3,,,,,,,,,,Task,3,(2x3) - 3,3,,,,,,,,,,,,,,,,,,1,,,,,,,,,,,,,,,,,,,,,,space,9.8366,"[""3""]",1,[2.357800000011821],0,0,0,2,1,,,,,,,,,,,,,,,,,,
,,,,,,,,,5bc5fa5248576300014e0739,22,Kobieta,2022-06-04_08h10.06.627,task,2021.1.4,Win32,59.49901827,628b806c463b948bc644b84f,629af7278e6c18f940b51bfd,,,,,,,,,,,X V Q F H G B L J M P D K C T S W R N Z,,,,,,,,,,,,,,,,,,,,,,,,,,,,,,,,,,,,,,,,,,,,,,,,,,,,,,,,,,,,,,,,,,,,,,,,,,,,0,0,0,0,1,,,,,,,,,,,,,
,,,,,,,,,5bc5fa5248576300014e0739,22,Kobieta,2022-06-04_08h10.06.627,task,2021.1.4,Win32,59.49901827,628b806c463b948bc644b84f,629af7278e6c18f940b51bfd,,,,,,,,,,,,,,,,,,,,,,,,1,,,,,,,,,,Task,9,(3x7) - 20,1,,,,,,,,,,,,,,,,,,1,,,,,,,,,,,,,,,,,,,,,,,,"[""1""]",1,[1.4184999999999945],0,0,0,8,1,,,,,,,,,,,,,,,,,,
,,,,,,,,,5bc5fa5248576300014e0739,22,Kobieta,2022-06-04_08h10.06.627,task,2021.1.4,Win32,59.49901827,628b806c463b948bc644b84f,629af7278e6c18f940b51bfd,,,,,,,,,,,X V Q F H G B L J M P D K C T S W R N Z,,,,,,,,,,,,,,,,,,,,,,,,,,,,,,,,,,,,,,,,,,,,,,,,,,,,,,,,,,,,,,,,,,,,,,,,,,,,1,0,1,0,1,,,,,,,,,,,,,
,,,,,,,,,5bc5fa5248576300014e0739,22,Kobieta,2022-06-04_08h10.06.627,task,2021.1.4,Win32,59.49901827,628b806c463b948bc644b84f,629af7278e6c18f940b51bfd,,,,,,,,,,,,,,,,,,,,,,,,,,,,,,,,,,,,,,,,,,,,,,,,,,,,,,,,,,,,,,,,,,,,,,,,,,,,,,,,,,,,,,,,,,,,zw,"[""z"",""w""]",0,"[1.4003999999761163,1.71659999996416,2.06819999998811]",1,ZW,0,0,0,0,1,,
,,,,,,,,,5bc5fa5248576300014e0739,22,Kobieta,2022-06-04_08h10.06.627,task,2021.1.4,Win32,59.49901827,628b806c463b948bc644b84f,629af7278e6c18f940b51bfd,,,,,,,,,,,,,,,,,,,,,,,,4,,,,,,,,,,Task,11,(18/3) - 2,4,,,,,,,,,,,,,,,,,,1,,,,,,,,,,,,,,,,,,,,,,,,"[""4""]",1,[1.799100000023941],0,0,0,10,1,,,,,,,,,,,,,,,,,,
,,,,,,,,,5bc5fa5248576300014e0739,22,Kobieta,2022-06-04_08h10.06.627,task,2021.1.4,Win32,59.49901827,628b806c463b948bc644b84f,629af7278e6c18f940b51bfd,,,,,,,,,,,X V Q F H G B L J M P D K C T S W R N Z,,,,,,,,,,,,,,,,,,,,,,,,,,,,,,,,,,,,,,,,,,,,,,,,,,,,,,,,,,,,,,,,,,,,,,,,,,,,0,0,0,0,1,,,,,,,,,,,,,
,,,,,,,,,5bc5fa5248576300014e0739,22,Kobieta,2022-06-04_08h10.06.627,task,2021.1.4,Win32,59.49901827,628b806c463b948bc644b84f,629af7278e6c18f940b51bfd,,,,,,,,,,,,,,,,,,,,,,,,4,,,,,,,,,,Task,11,(18/3) - 2,4,,,,,,,,,,,,,,,,,,1,,,,,,,,,,,,,,,,,,,,,,,,"[""4""]",1,[1.86930000001189],0,0,0,10,1,,,,,,,,,,,,,,,,,,
,,,,,,,,,5bc5fa5248576300014e0739,22,Kobieta,2022-06-04_08h10.06.627,task,2021.1.4,Win32,59.49901827,628b806c463b948bc644b84f,629af7278e6c18f940b51bfd,,,,,,,,,,,X V Q F H G B L J M P D K C T S W R N Z,,,,,,,,,,,,,,,,,,,,,,,,,,,,,,,,,,,,,,,,,,,,,,,,,,,,,,,,,,,,,,,,,,,,,,,,,,,,1,0,1,0,1,,,,,,,,,,,,,
,,,,,,,,,5bc5fa5248576300014e0739,22,Kobieta,2022-06-04_08h10.06.627,task,2021.1.4,Win32,59.49901827,628b806c463b948bc644b84f,629af7278e6c18f940b51bfd,,,,,,,,,,,,,,,,,,,,,,,,3,,,,,,,,,,Task,27,(3/3) + 2,3,,,,,,,,,,,,,,,,,,1,,,,,,,,,,,,,,,,,,,,,,,,"[""3""]",1,[2.7970000000000255],0,0,0,26,1,,,,,,,,,,,,,,,,,,
,,,,,,,,,5bc5fa5248576300014e0739,22,Kobieta,2022-06-04_08h10.06.627,task,2021.1.4,Win32,59.49901827,628b806c463b948bc644b84f,629af7278e6c18f940b51bfd,,,,,,,,,,,X V Q F H G B L J M P D K C T S W R N Z,,,,,,,,,,,,,,,,,,,,,,,,,,,,,,,,,,,,,,,,,,,,,,,,,,,,,,,,,,,,,,,,,,,,,,,,,,,,2,0,2,0,1,,,,,,,,,,,,,
,,,,,,,,,5bc5fa5248576300014e0739,22,Kobieta,2022-06-04_08h10.06.627,task,2021.1.4,Win32,59.49901827,628b806c463b948bc644b84f,629af7278e6c18f940b51bfd,,,,,,,,,,,,,,,,,,,,,,,,,,,,,,,,,,,,,,,,,,,,,,,,,,,,,,,,,,,,,,,,,,,,,,,,,,,,,,,,,,,,,,,,,,,,fsb,"[""f"",""s"",""b""]",0,"[1.3258999999761727,1.654199999988009,1.8485999999642218,2.3728999999760845]",1,FSB,1,0,1,0,1,,
,,,,,,,,,5bc5fa5248576300014e0739,22,Kobieta,2022-06-04_08h10.06.627,task,2021.1.4,Win32,59.49901827,628b806c463b948bc644b84f,629af7278e6c18f940b51bfd,,,,,,,,,,,,,,,,,,,,,,,,9,,,,,,,,,,Task,21,(10/2) - 1,4,,,,,,,,,,,,,,,,,,0,,,,,,,,,,,,,,,,,,,,,,,,"[""9""]",0,[1.2609999999999673],0,0,0,20,1,,,,,,,,,,,,,,,,,,
,,,,,,,,,5bc5fa5248576300014e0739,22,Kobieta,2022-06-04_08h10.06.627,task,2021.1.4,Win32,59.49901827,628b806c463b948bc644b84f,629af7278e6c18f940b51bfd,,,,,,,,,,,,,,,,,,,,,,,,1,,,,,,,,,,Task,9,(3x7) - 20,1,,,,,,,,,,,,,,,,,,1,,,,,,,,,,,,,,,,,,,,,,,,"[""1""]",1,[1.6176999999880763],0,1,1,8,1,,,,,,,,,,,,,,,,,,
,,,,,,,,,5bc5fa5248576300014e0739,22,Kobieta,2022-06-04_08h10.06.627,task,2021.1.4,Win32,59.49901827,628b806c463b948bc644b84f,629af7278e6c18f940b51bfd,,,,,,,,,,,X V Q F H G B L J M P D K C T S W R N Z,,,,,,,,,,,,,,,,,,,,,,,,,,,,,,,,,,,,,,,,,,,,,,,,,,,,,,,,,,,,,,,,,,,,,,,,,,,,0,0,0,0,1,,,,,,,,,,,,,
,,,,,,,,,5bc5fa5248576300014e0739,22,Kobieta,2022-06-04_08h10.06.627,task,2021.1.4,Win32,59.49901827,628b806c463b948bc644b84f,629af7278e6c18f940b51bfd,,,,,,,,,,,,,,,,,,,,,,,,1,,,,,,,,,,Task,9,(3x7) - 20,1,,,,,,,,,,,,,,,,,,1,,,,,,,,,,,,,,,,,,,,,,,,"[""1""]",1,[1.1746999999880927],0,0,0,8,1,,,,,,,,,,,,,,,,,,
,,,,,,,,,5bc5fa5248576300014e0739,22,Kobieta,2022-06-04_08h10.06.627,task,2021.1.4,Win32,59.49901827,628b806c463b948bc644b84f,629af7278e6c18f940b51bfd,,,,,,,,,,,X V Q F H G B L J M P D K C T S W R N Z,,,,,,,,,,,,,,,,,,,,,,,,,,,,,,,,,,,,,,,,,,,,,,,,,,,,,,,,,,,,,,,,,,,,,,,,,,,,1,0,1,0,1,,,,,,,,,,,,,
,,,,,,,,,5bc5fa5248576300014e0739,22,Kobieta,2022-06-04_08h10.06.627,task,2021.1.4,Win32,59.49901827,628b806c463b948bc644b84f,629af7278e6c18f940b51bfd,,,,,,,,,,,,,,,,,,,,,,,,8,,,,,,,,,,Task,39,(5x3) - 7,8,,,,,,,,,,,,,,,,,,1,,,,,,,,,,,,,,,,,,,,,,,,"[""8""]",1,[2.0720000000000027],0,0,0,38,1,,,,,,,,,,,,,,,,,,
,,,,,,,,,5bc5fa5248576300014e0739,22,Kobieta,2022-06-04_08h10.06.627,task,2021.1.4,Win32,59.49901827,628b806c463b948bc644b84f,629af7278e6c18f940b51bfd,,,,,,,,,,,X V Q F H G B L J M P D K C T S W R N Z,,,,,,,,,,,,,,,,,,,,,,,,,,,,,,,,,,,,,,,,,,,,,,,,,,,,,,,,,,,,,,,,,,,,,,,,,,,,2,0,2,0,1,,,,,,,,,,,,,
,,,,,,,,,5bc5fa5248576300014e0739,22,Kobieta,2022-06-04_08h10.06.627,task,2021.1.4,Win32,59.49901827,628b806c463b948bc644b84f,629af7278e6c18f940b51bfd,,,,,,,,,,,,,,,,,,,,,,,,8,,,,,,,,,,Task,23,(2x3) + 2,8,,,,,,,,,,,,,,,,,,1,,,,,,,,,,,,,,,,,,,,,,,,"[""8""]",1,[2.1442999999522954],0,0,0,22,1,,,,,,,,,,,,,,,,,,
,,,,,,,,,5bc5fa5248576300014e0739,22,Kobieta,2022-06-04_08h10.06.627,task,2021.1.4,Win32,59.49901827,628b806c463b948bc644b84f,629af7278e6c18f940b51bfd,,,,,,,,,,,X V Q F H G B L J M P D K C T S W R N Z,,,,,,,,,,,,,,,,,,,,,,,,,,,,,,,,,,,,,,,,,,,,,,,,,,,,,,,,,,,,,,,,,,,,,,,,,,,,3,0,3,0,1,,,,,,,,,,,,,
,,,,,,,,,5bc5fa5248576300014e0739,22,Kobieta,2022-06-04_08h10.06.627,task,2021.1.4,Win32,59.49901827,628b806c463b948bc644b84f,629af7278e6c18f940b51bfd,,,,,,,,,,,,,,,,,,,,,,,,,,,,,,,,,,,,,,,,,,,,,,,,,,,,,,,,,,,,,,,,,,,,,,,,,,,,,,,,,,,,,,,,,,,,lswb,"[""l"",""s"",""w"",""b""]",0,"[1.4893000000118946,1.7844000000357028,2.0243000000118627,2.235200000047712,2.602800000011939]",1,LSWB,2,0,2,0,1,,
,,,,,,,,,5bc5fa5248576300014e0739,22,Kobieta,2022-06-04_08h10.06.627,task,2021.1.4,Win32,59.49901827,628b806c463b948bc644b84f,629af7278e6c18f940b51bfd,,,,,,,,,,,,,,,,,,,,,,,,9,,,,,,,,,,Task,7,(3x7) - 12,9,,,,,,,,,,,,,,,,,,1,,,,,,,,,,,,,,,,,,,,,,,,"[""9""]",1,[2.249599999964289],0,0,0,6,1,,,,,,,,,,,,,,,,,,
,,,,,,,,,5bc5fa5248576300014e0739,22,Kobieta,2022-06-04_08h10.06.627,task,2021.1.4,Win32,59.49901827,628b806c463b948bc644b84f,629af7278e6c18f940b51bfd,,,,,,,,,,,X V Q F H G B L J M P D K C T S W R N Z,,,,,,,,,,,,,,,,,,,,,,,,,,,,,,,,,,,,,,,,,,,,,,,,,,,,,,,,,,,,,,,,,,,,,,,,,,,,0,0,0,0,1,,,,,,,,,,,,,
,,,,,,,,,5bc5fa5248576300014e0739,22,Kobieta,2022-06-04_08h10.06.627,task,2021.1.4,Win32,59.49901827,628b806c463b948bc644b84f,629af7278e6c18f940b51bfd,,,,,,,,,,,,,,,,,,,,,,,,7,,,,,,,,,,Task,18,(16/4) - 3,1,,,,,,,,,,,,,,,,,,0,,,,,,,,,,,,,,,,,,,,,,,,"[""7""]",0,[1.6113000000119655],0,0,0,17,1,,,,,,,,,,,,,,,,,,
,,,,,,,,,5bc5fa5248576300014e0739,22,Kobieta,2022-06-04_08h10.06.627,task,2021.1.4,Win32,59.49901827,628b806c463b948bc644b84f,629af7278e6c18f940b51bfd,,,,,,,,,,,,,,,,,,,,,,,,2,,,,,,,,,,Task,19,(6/2) - 1,2,,,,,,,,,,,,,,,,,,1,,,,,,,,,,,,,,,,,,,,,,,,"[""2""]",1,[2.217199999988111],0,1,1,18,1,,,,,,,,,,,,,,,,,,
,,,,,,,,,5bc5fa5248576300014e0739,22,Kobieta,2022-06-04_08h10.06.627,task,2021.1.4,Win32,59.49901827,628b806c463b948bc644b84f,629af7278e6c18f940b51bfd,,,,,,,,,,,X V Q F H G B L J M P D K C T S W R N Z,,,,,,,,,,,,,,,,,,,,,,,,,,,,,,,,,,,,,,,,,,,,,,,,,,,,,,,,,,,,,,,,,,,,,,,,,,,,1,0,1,0,1,,,,,,,,,,,,,
,,,,,,,,,5bc5fa5248576300014e0739,22,Kobieta,2022-06-04_08h10.06.627,task,2021.1.4,Win32,59.49901827,628b806c463b948bc644b84f,629af7278e6c18f940b51bfd,,,,,,,,,,,,,,,,,,,,,,,,5,,,,,,,,,,Task,22,(3x1) + 2,5,,,,,,,,,,,,,,,,,,1,,,,,,,,,,,,,,,,,,,,,,,,"[""5""]",1,[1.7786000000237436],0,0,0,21,1,,,,,,,,,,,,,,,,,,
,,,,,,,,,5bc5fa5248576300014e0739,22,Kobieta,2022-06-04_08h10.06.627,task,2021.1.4,Win32,59.49901827,628b806c463b948bc644b84f,629af7278e6c18f940b51bfd,,,,,,,,,,,X V Q F H G B L J M P D K C T S W R N Z,,,,,,,,,,,,,,,,,,,,,,,,,,,,,,,,,,,,,,,,,,,,,,,,,,,,,,,,,,,,,,,,,,,,,,,,,,,,2,0,2,0,1,,,,,,,,,,,,,
,,,,,,,,,5bc5fa5248576300014e0739,22,Kobieta,2022-06-04_08h10.06.627,task,2021.1.4,Win32,59.49901827,628b806c463b948bc644b84f,629af7278e6c18f940b51bfd,,,,,,,,,,,,,,,,,,,,,,,,8,,,,,,,,,,Task,15,(3x7) - 13,8,,,,,,,,,,,,,,,,,,1,,,,,,,,,,,,,,,,,,,,,,,,"[""8""]",1,[2.326999999999998],0,0,0,14,1,,,,,,,,,,,,,,,,,,
,,,,,,,,,5bc5fa5248576300014e0739,22,Kobieta,2022-06-04_08h10.06.627,task,2021.1.4,Win32,59.49901827,628b806c463b948bc644b84f,629af7278e6c18f940b51bfd,,,,,,,,,,,X V Q F H G B L J M P D K C T S W R N Z,,,,,,,,,,,,,,,,,,,,,,,,,,,,,,,,,,,,,,,,,,,,,,,,,,,,,,,,,,,,,,,,,,,,,,,,,,,,3,0,3,0,1,,,,,,,,,,,,,
,,,,,,,,,5bc5fa5248576300014e0739,22,Kobieta,2022-06-04_08h10.06.627,task,2021.1.4,Win32,59.49901827,628b806c463b948bc644b84f,629af7278e6c18f940b51bfd,,,,,,,,,,,,,,,,,,,,,,,,2,,,,,,,,,,Task,26,(2x9) - 16,2,,,,,,,,,,,,,,,,,,1,,,,,,,,,,,,,,,,,,,,,,,,"[""2""]",1,[2.062899999976139],0,0,0,25,1,,,,,,,,,,,,,,,,,,
,,,,,,,,,5bc5fa5248576300014e0739,22,Kobieta,2022-06-04_08h10.06.627,task,2021.1.4,Win32,59.49901827,628b806c463b948bc644b84f,629af7278e6c18f940b51bfd,,,,,,,,,,,X V Q F H G B L J M P D K C T S W R N Z,,,,,,,,,,,,,,,,,,,,,,,,,,,,,,,,,,,,,,,,,,,,,,,,,,,,,,,,,,,,,,,,,,,,,,,,,,,,4,0,4,0,1,,,,,,,,,,,,,
,,,,,,,,,5bc5fa5248576300014e0739,22,Kobieta,2022-06-04_08h10.06.627,task,2021.1.4,Win32,59.49901827,628b806c463b948bc644b84f,629af7278e6c18f940b51bfd,,,,,,,,,,,,,,,,,,,,,,,,,,,,,,,,,,,,,,,,,,,,,,,,,,,,,,,,,,,,,,,,,,,,,,,,,,,,,,,,,,,,,,,,,,,,smjjd,"[""s"",""m"",""j"",""j"",""d""]",0,"[1.2519999999999527,1.4650999999641954,1.7171999999879972,1.8981999999880372,2.290699999988078,2.564999999999941]",1,SMJJD,3,0,3,0,1,,
,,,,,,,,,5bc5fa5248576300014e0739,22,Kobieta,2022-06-04_08h10.06.627,task,2021.1.4,Win32,59.49901827,628b806c463b948bc644b84f,629af7278e6c18f940b51bfd,,,,,,,,,,,,,,,,,,,,,,,,8,,,,,,,,,,Task,23,(2x3) + 2,8,,,,,,,,,,,,,,,,,,1,,,,,,,,,,,,,,,,,,,,,,,,"[""8""]",1,[1.5271000000238928],0,0,0,22,1,,,,,,,,,,,,,,,,,,
,,,,,,,,,5bc5fa5248576300014e0739,22,Kobieta,2022-06-04_08h10.06.627,task,2021.1.4,Win32,59.49901827,628b806c463b948bc644b84f,629af7278e6c18f940b51bfd,,,,,,,,,,,X V Q F H G B L J M P D K C T S W R N Z,,,,,,,,,,,,,,,,,,,,,,,,,,,,,,,,,,,,,,,,,,,,,,,,,,,,,,,,,,,,,,,,,,,,,,,,,,,,0,0,0,0,1,,,,,,,,,,,,,
,,,,,,,,,5bc5fa5248576300014e0739,22,Kobieta,2022-06-04_08h10.06.627,task,2021.1.4,Win32,59.49901827,628b806c463b948bc644b84f,629af7278e6c18f940b51bfd,,,,,,,,,,,,,,,,,,,,,,,,5,,,,,,,,,,Task,34,(9/3) - 2,1,,,,,,,,,,,,,,,,,,0,,,,,,,,,,,,,,,,,,,,,,,,"[""5""]",0,[1.6899999999999409],0,0,0,33,1,,,,,,,,,,,,,,,,,,
,,,,,,,,,5bc5fa5248576300014e0739,22,Kobieta,2022-06-04_08h10.06.627,task,2021.1.4,Win32,59.49901827,628b806c463b948bc644b84f,629af7278e6c18f940b51bfd,,,,,,,,,,,,,,,,,,,,,,,,3,,,,,,,,,,Task,35,(1x2) + 1,3,,,,,,,,,,,,,,,,,,1,,,,,,,,,,,,,,,,,,,,,,,,"[""3""]",1,[1.1385000000000218],0,1,1,34,1,,,,,,,,,,,,,,,,,,
,,,,,,,,,5bc5fa5248576300014e0739,22,Kobieta,2022-06-04_08h10.06.627,task,2021.1.4,Win32,59.49901827,628b806c463b948bc644b84f,629af7278e6c18f940b51bfd,,,,,,,,,,,X V Q F H G B L J M P D K C T S W R N Z,,,,,,,,,,,,,,,,,,,,,,,,,,,,,,,,,,,,,,,,,,,,,,,,,,,,,,,,,,,,,,,,,,,,,,,,,,,,1,0,1,0,1,,,,,,,,,,,,,
,,,,,,,,,5bc5fa5248576300014e0739,22,Kobieta,2022-06-04_08h10.06.627,task,2021.1.4,Win32,59.49901827,628b806c463b948bc644b84f,629af7278e6c18f940b51bfd,,,,,,,,,,,,,,,,,,,,,,,,,,,,,,,,,,Task,29,(3x8) - 19 ,5,,,,,,,,,,,,,,,,,,0,,,,,,,,,,,,,,,,,,,,,,,,,0,,0,0,0,28,1,,,,,,,,,,,,,,,,,,
,,,,,,,,,5bc5fa5248576300014e0739,22,Kobieta,2022-06-04_08h10.06.627,task,2021.1.4,Win32,59.49901827,628b806c463b948bc644b84f,629af7278e6c18f940b51bfd,,,,,,,,,,,,,,,,,,,,,,,,7,,,,,,,,,,Task,6,(12/2) + 1,7,,,,,,,,,,,,,,,,,,1,,,,,,,,,,,,,,,,,,,,,,,,"[""7""]",1,[1.613200000047641],0,1,1,5,1,,,,,,,,,,,,,,,,,,
,,,,,,,,,5bc5fa5248576300014e0739,22,Kobieta,2022-06-04_08h10.06.627,task,2021.1.4,Win32,59.49901827,628b806c463b948bc644b84f,629af7278e6c18f940b51bfd,,,,,,,,,,,X V Q F H G B L J M P D K C T S W R N Z,,,,,,,,,,,,,,,,,,,,,,,,,,,,,,,,,,,,,,,,,,,,,,,,,,,,,,,,,,,,,,,,,,,,,,,,,,,,2,0,2,0,1,,,,,,,,,,,,,
,,,,,,,,,5bc5fa5248576300014e0739,22,Kobieta,2022-06-04_08h10.06.627,task,2021.1.4,Win32,59.49901827,628b806c463b948bc644b84f,629af7278e6c18f940b51bfd,,,,,,,,,,,,,,,,,,,,,,,,9,,,,,,,,,,Task,16,(3x8) - 15,9,,,,,,,,,,,,,,,,,,1,,,,,,,,,,,,,,,,,,,,,,,,"[""9""]",1,[2.4850000000000136],0,0,0,15,1,,,,,,,,,,,,,,,,,,
,,,,,,,,,5bc5fa5248576300014e0739,22,Kobieta,2022-06-04_08h10.06.627,task,2021.1.4,Win32,59.49901827,628b806c463b948bc644b84f,629af7278e6c18f940b51bfd,,,,,,,,,,,X V Q F H G B L J M P D K C T S W R N Z,,,,,,,,,,,,,,,,,,,,,,,,,,,,,,,,,,,,,,,,,,,,,,,,,,,,,,,,,,,,,,,,,,,,,,,,,,,,3,0,3,0,1,,,,,,,,,,,,,
,,,,,,,,,5bc5fa5248576300014e0739,22,Kobieta,2022-06-04_08h10.06.627,task,2021.1.4,Win32,59.49901827,628b806c463b948bc644b84f,629af7278e6c18f940b51bfd,,,,,,,,,,,,,,,,,,,,,,,,5,,,,,,,,,,Task,12,(4x4) - 11,5,,,,,,,,,,,,,,,,,,1,,,,,,,,,,,,,,,,,,,,,,,,"[""5""]",1,[1.7354000000358383],0,0,0,11,1,,,,,,,,,,,,,,,,,,
,,,,,,,,,5bc5fa5248576300014e0739,22,Kobieta,2022-06-04_08h10.06.627,task,2021.1.4,Win32,59.49901827,628b806c463b948bc644b84f,629af7278e6c18f940b51bfd,,,,,,,,,,,X V Q F H G B L J M P D K C T S W R N Z,,,,,,,,,,,,,,,,,,,,,,,,,,,,,,,,,,,,,,,,,,,,,,,,,,,,,,,,,,,,,,,,,,,,,,,,,,,,4,0,4,0,1,,,,,,,,,,,,,
,,,,,,,,,5bc5fa5248576300014e0739,22,Kobieta,2022-06-04_08h10.06.627,task,2021.1.4,Win32,59.49901827,628b806c463b948bc644b84f,629af7278e6c18f940b51bfd,,,,,,,,,,,,,,,,,,,,,,,,8,,,,,,,,,,Task,32,(8/2) + 4,8,,,,,,,,,,,,,,,,,,1,,,,,,,,,,,,,,,,,,,,,,,,"[""8""]",1,[1.6190000000000282],0,0,0,31,1,,,,,,,,,,,,,,,,,,
,,,,,,,,,5bc5fa5248576300014e0739,22,Kobieta,2022-06-04_08h10.06.627,task,2021.1.4,Win32,59.49901827,628b806c463b948bc644b84f,629af7278e6c18f940b51bfd,,,,,,,,,,,X V Q F H G B L J M P D K C T S W R N Z,,,,,,,,,,,,,,,,,,,,,,,,,,,,,,,,,,,,,,,,,,,,,,,,,,,,,,,,,,,,,,,,,,,,,,,,,,,,5,0,5,0,1,,,,,,,,,,,,,
,,,,,,,,,5bc5fa5248576300014e0739,22,Kobieta,2022-06-04_08h10.06.627,task,2021.1.4,Win32,59.49901827,628b806c463b948bc644b84f,629af7278e6c18f940b51bfd,,,,,,,,,,,,,,,,,,,,,,,,,,,,,,,,,,,,,,,,,,,,,,,,,,,,,,,,,,,,,,,,,,,,,,,,,,,,,,,,,,,,,,,,,,,,zqxjnk,"[""z"",""q"",""x"",""j"",""n"",""k""]",0,"[1.6405999999642518,2.7899999999999636,4.251099999964254,4.5175999999642045,4.737599999964232,5.319800000011924,5.81539999997608]",0,ZQXJNH,4,0,4,0,1,,
,,,,,,,,,5bc5fa5248576300014e0739,22,Kobieta,2022-06-04_08h10.06.627,task,2021.1.4,Win32,59.49901827,628b806c463b948bc644b84f,629af7278e6c18f940b51bfd,,,,,,,,,,,,,,,,,,,,,,,,6,,,,,,,,,,Task,13,(3x4) - 6,6,,,,,,,,,,,,,,,,,,1,,,,,,,,,,,,,,,,,,,,,,,,"[""6""]",1,[1.9026999999880445],0,0,0,12,1,,,,,,,,,,,,,,,,,,
,,,,,,,,,5bc5fa5248576300014e0739,22,Kobieta,2022-06-04_08h10.06.627,task,2021.1.4,Win32,59.49901827,628b806c463b948bc644b84f,629af7278e6c18f940b51bfd,,,,,,,,,,,X V Q F H G B L J M P D K C T S W R N Z,,,,,,,,,,,,,,,,,,,,,,,,,,,,,,,,,,,,,,,,,,,,,,,,,,,,,,,,,,,,,,,,,,,,,,,,,,,,0,0,0,0,1,,,,,,,,,,,,,
,,,,,,,,,5bc5fa5248576300014e0739,22,Kobieta,2022-06-04_08h10.06.627,task,2021.1.4,Win32,59.49901827,628b806c463b948bc644b84f,629af7278e6c18f940b51bfd,,,,,,,,,,,,,,,,,,,,,,,,7,,,,,,,,,,Task,14,(2x2) + 3,7,,,,,,,,,,,,,,,,,,1,,,,,,,,,,,,,,,,,,,,,,,,"[""7""]",1,[1.4468999999761536],0,0,0,13,1,,,,,,,,,,,,,,,,,,
,,,,,,,,,5bc5fa5248576300014e0739,22,Kobieta,2022-06-04_08h10.06.627,task,2021.1.4,Win32,59.49901827,628b806c463b948bc644b84f,629af7278e6c18f940b51bfd,,,,,,,,,,,X V Q F H G B L J M P D K C T S W R N Z,,,,,,,,,,,,,,,,,,,,,,,,,,,,,,,,,,,,,,,,,,,,,,,,,,,,,,,,,,,,,,,,,,,,,,,,,,,,1,0,1,0,1,,,,,,,,,,,,,
,,,,,,,,,5bc5fa5248576300014e0739,22,Kobieta,2022-06-04_08h10.06.627,task,2021.1.4,Win32,59.49901827,628b806c463b948bc644b84f,629af7278e6c18f940b51bfd,,,,,,,,,,,,,,,,,,,,,,,,6,,,,,,,,,,Task,13,(3x4) - 6,6,,,,,,,,,,,,,,,,,,1,,,,,,,,,,,,,,,,,,,,,,,,"[""6""]",1,[1.82000000000005],0,0,0,12,1,,,,,,,,,,,,,,,,,,
,,,,,,,,,5bc5fa5248576300014e0739,22,Kobieta,2022-06-04_08h10.06.627,task,2021.1.4,Win32,59.49901827,628b806c463b948bc644b84f,629af7278e6c18f940b51bfd,,,,,,,,,,,X V Q F H G B L J M P D K C T S W R N Z,,,,,,,,,,,,,,,,,,,,,,,,,,,,,,,,,,,,,,,,,,,,,,,,,,,,,,,,,,,,,,,,,,,,,,,,,,,,2,0,2,0,1,,,,,,,,,,,,,
,,,,,,,,,5bc5fa5248576300014e0739,22,Kobieta,2022-06-04_08h10.06.627,task,2021.1.4,Win32,59.49901827,628b806c463b948bc644b84f,629af7278e6c18f940b51bfd,,,,,,,,,,,,,,,,,,,,,,,,5,,,,,,,,,,Task,1,(12/6) - 1,1,,,,,,,,,,,,,,,,,,0,,,,,,,,,,,,,,,,,,,,,,,,"[""5""]",0,[1.8664999999999736],0,0,0,0,1,,,,,,,,,,,,,,,,,,
,,,,,,,,,5bc5fa5248576300014e0739,22,Kobieta,2022-06-04_08h10.06.627,task,2021.1.4,Win32,59.49901827,628b806c463b948bc644b84f,629af7278e6c18f940b51bfd,,,,,,,,,,,,,,,,,,,,,,,,4,,,,,,,,,,Task,28,(2x5) - 6,4,,,,,,,,,,,,,,,,,,1,,,,,,,,,,,,,,,,,,,,,,,,"[""4""]",1,[1.70330000001195],0,1,1,27,1,,,,,,,,,,,,,,,,,,
,,,,,,,,,5bc5fa5248576300014e0739,22,Kobieta,2022-06-04_08h10.06.627,task,2021.1.4,Win32,59.49901827,628b806c463b948bc644b84f,629af7278e6c18f940b51bfd,,,,,,,,,,,X V Q F H G B L J M P D K C T S W R N Z,,,,,,,,,,,,,,,,,,,,,,,,,,,,,,,,,,,,,,,,,,,,,,,,,,,,,,,,,,,,,,,,,,,,,,,,,,,,3,0,3,0,1,,,,,,,,,,,,,
,,,,,,,,,5bc5fa5248576300014e0739,22,Kobieta,2022-06-04_08h10.06.627,task,2021.1.4,Win32,59.49901827,628b806c463b948bc644b84f,629af7278e6c18f940b51bfd,,,,,,,,,,,,,,,,,,,,,,,,7,,,,,,,,,,Task,38,(4x6) - 17,7,,,,,,,,,,,,,,,,,,1,,,,,,,,,,,,,,,,,,,,,,,,"[""7""]",1,[1.947499999999991],0,0,0,37,1,,,,,,,,,,,,,,,,,,
,,,,,,,,,5bc5fa5248576300014e0739,22,Kobieta,2022-06-04_08h10.06.627,task,2021.1.4,Win32,59.49901827,628b806c463b948bc644b84f,629af7278e6c18f940b51bfd,,,,,,,,,,,X V Q F H G B L J M P D K C T S W R N Z,,,,,,,,,,,,,,,,,,,,,,,,,,,,,,,,,,,,,,,,,,,,,,,,,,,,,,,,,,,,,,,,,,,,,,,,,,,,4,0,4,0,1,,,,,,,,,,,,,
,,,,,,,,,5bc5fa5248576300014e0739,22,Kobieta,2022-06-04_08h10.06.627,task,2021.1.4,Win32,59.49901827,628b806c463b948bc644b84f,629af7278e6c18f940b51bfd,,,,,,,,,,,,,,,,,,,,,,,,3,,,,,,,,,,Task,25,(10/5) - 2,0,,,,,,,,,,,,,,,,,,0,,,,,,,,,,,,,,,,,,,,,,,,"[""3""]",0,[1.5816000000238546],0,0,0,24,1,,,,,,,,,,,,,,,,,,
,,,,,,,,,5bc5fa5248576300014e0739,22,Kobieta,2022-06-04_08h10.06.627,task,2021.1.4,Win32,59.49901827,628b806c463b948bc644b84f,629af7278e6c18f940b51bfd,,,,,,,,,,,,,,,,,,,,,,,,5,,,,,,,,,,Task,36,(8/4) + 3,5,,,,,,,,,,,,,,,,,,1,,,,,,,,,,,,,,,,,,,,,,,,"[""5""]",1,[1.9304999999999382],0,1,1,35,1,,,,,,,,,,,,,,,,,,
,,,,,,,,,5bc5fa5248576300014e0739,22,Kobieta,2022-06-04_08h10.06.627,task,2021.1.4,Win32,59.49901827,628b806c463b948bc644b84f,629af7278e6c18f940b51bfd,,,,,,,,,,,X V Q F H G B L J M P D K C T S W R N Z,,,,,,,,,,,,,,,,,,,,,,,,,,,,,,,,,,,,,,,,,,,,,,,,,,,,,,,,,,,,,,,,,,,,,,,,,,,,5,0,5,0,1,,,,,,,,,,,,,
,,,,,,,,,5bc5fa5248576300014e0739,22,Kobieta,2022-06-04_08h10.06.627,task,2021.1.4,Win32,59.49901827,628b806c463b948bc644b84f,629af7278e6c18f940b51bfd,,,,,,,,,,,,,,,,,,,,,,,,,,,,,,,,,,,,,,,,,,,,,,,,,,,,,,,,,,,,,,,,,,,,,,,,,,,,,,,,,,,,,,,,,,,,mdqmt,"[""m"",""d"",""q"",""m"",""t""]",0,"[1.4318999999760536,1.8676000000237991,2.8504999999998972,3.1671999999880427,3.3558999999761454,3.617600000023799]",0,MDQMPT,5,0,5,0,1,,
,,,,,,,,,5bc5fa5248576300014e0739,22,Kobieta,2022-06-04_08h10.06.627,task,2021.1.4,Win32,59.49901827,628b806c463b948bc644b84f,629af7278e6c18f940b51bfd,,,,,,,,,,,,,,,,,,,,,,,,,,,,,,,,,,,,,,,,,,,,,,,,,,,,,,,,,,,,,,,,,,,,,,,,,,,,,,,,,,,,,,,,,,,,,,,,,,,,,,,space,1.1517
