key_resp_15.keys,key_resp_15.rt,key_resp_13.keys,key_resp_13.corr,key_resp_13.rt,ranodm_loop.thisRepN,ranodm_loop.thisTrialN,ranodm_loop.thisN,ranodm_loop.thisIndex,ranodm_loop.ran,participant,Wiek*,Płeć,date,expName,psychopyVersion,OS,frameRate,study_id,session,key_resp_16.keys,key_resp_16.rt,key_resp_4.keys,key_resp_4.rt,next_letter.thisRepN,next_letter.thisTrialN,next_letter.thisN,next_letter.thisIndex,next_letter.ran,letter,simple_recall,key_resp_5.keys,key_resp_5.rt,simple_recall_corr,simple_recall_corrkeys,next_level.thisRepN,next_level.thisTrialN,next_level.thisN,next_level.thisIndex,next_level.ran,key_resp_2.keys,key_resp_2.rt,digit_answer,key_resp.keys,key_resp.corr,key_resp.rt,RT_list,next_equation.thisRepN,next_equation.thisTrialN,next_equation.thisN,next_equation.thisIndex,next_equation.ran,Task,Trial,Problem,Operation_answer,processing_score,sumRT,meanRT,sumdiff,sd,RT,key_resp_3.keys,key_resp_3.rt,repeat_practice.thisRepN,repeat_practice.thisTrialN,repeat_practice.thisN,repeat_practice.thisIndex,repeat_practice.ran,key_resp_6.keys,key_resp_6.rt,key_resp_11.keys,key_resp_11.corr,key_resp_11.rt,operation_correct,repeat_if_wrong_prac.thisRepN,repeat_if_wrong_prac.thisTrialN,repeat_if_wrong_prac.thisN,repeat_if_wrong_prac.thisIndex,repeat_if_wrong_prac.ran,span_size_prac.thisRepN,span_size_prac.thisTrialN,span_size_prac.thisN,span_size_prac.thisIndex,span_size_prac.ran,complex_recall_practice,key_resp_9.keys,key_resp_9.corr,key_resp_9.rt,complex_prac_corr,span_recall_prac.thisRepN,span_recall_prac.thisTrialN,span_recall_prac.thisN,span_recall_prac.thisIndex,span_recall_prac.ran,key_resp_10.keys,key_resp_10.rt,key_resp_7.keys,key_resp_7.corr,repeat_if_wrong.thisRepN,repeat_if_wrong.thisTrialN,repeat_if_wrong.thisN,repeat_if_wrong.thisIndex,repeat_if_wrong.ran,key_resp_7.rt,span_size.thisRepN,span_size.thisTrialN,span_size.thisN,span_size.thisIndex,span_size.ran,complex_recall,key_resp_8.keys,key_resp_8.corr,key_resp_8.rt,complex_recall_corr,complex_recall_corrkeys,span_recall.thisRepN,span_recall.thisTrialN,span_recall.thisN,span_recall.thisIndex,span_recall.ran,key_resp_12.keys,key_resp_12.rt
space,16.1492,"[""comma""]",0,[1.0921000000238479],0,0,0,0,1,5bc9abc0777400000169f73e,29,Kobieta,2022-06-04_08h11.36.112,task,2021.1.4,Win32,59.99520038,628b806c463b948bc644b84f,629af780849631c55696ea7e,,,,,,,,,,,,,,,,,,,,,,,,,,,,,,,,,,,,,,,,,,,,,,,,,,,,,,,,,,,,,,,,,,,,,,,,,,,,,,,,,,,,,,,,,,,,,,,,,,,,,,,
,,"[""comma""]",0,[0.45279999998211906],1,0,1,0,1,5bc9abc0777400000169f73e,29,Kobieta,2022-06-04_08h11.36.112,task,2021.1.4,Win32,59.99520038,628b806c463b948bc644b84f,629af780849631c55696ea7e,,,,,,,,,,,,,,,,,,,,,,,,,,,,,,,,,,,,,,,,,,,,,,,,,,,,,,,,,,,,,,,,,,,,,,,,,,,,,,,,,,,,,,,,,,,,,,,,,,,,,,,
,,"[""comma""]",0,[0.5594000000059509],2,0,2,0,1,5bc9abc0777400000169f73e,29,Kobieta,2022-06-04_08h11.36.112,task,2021.1.4,Win32,59.99520038,628b806c463b948bc644b84f,629af780849631c55696ea7e,,,,,,,,,,,,,,,,,,,,,,,,,,,,,,,,,,,,,,,,,,,,,,,,,,,,,,,,,,,,,,,,,,,,,,,,,,,,,,,,,,,,,,,,,,,,,,,,,,,,,,,
,,"[""period""]",0,[0.25080000001192104],3,0,3,0,1,5bc9abc0777400000169f73e,29,Kobieta,2022-06-04_08h11.36.112,task,2021.1.4,Win32,59.99520038,628b806c463b948bc644b84f,629af780849631c55696ea7e,,,,,,,,,,,,,,,,,,,,,,,,,,,,,,,,,,,,,,,,,,,,,,,,,,,,,,,,,,,,,,,,,,,,,,,,,,,,,,,,,,,,,,,,,,,,,,,,,,,,,,,
,,"[""period""]",0,[0.5905000000000058],4,0,4,0,1,5bc9abc0777400000169f73e,29,Kobieta,2022-06-04_08h11.36.112,task,2021.1.4,Win32,59.99520038,628b806c463b948bc644b84f,629af780849631c55696ea7e,,,,,,,,,,,,,,,,,,,,,,,,,,,,,,,,,,,,,,,,,,,,,,,,,,,,,,,,,,,,,,,,,,,,,,,,,,,,,,,,,,,,,,,,,,,,,,,,,,,,,,,
,,"[""comma""]",0,[0.5409999999999968],5,0,5,0,1,5bc9abc0777400000169f73e,29,Kobieta,2022-06-04_08h11.36.112,task,2021.1.4,Win32,59.99520038,628b806c463b948bc644b84f,629af780849631c55696ea7e,,,,,,,,,,,,,,,,,,,,,,,,,,,,,,,,,,,,,,,,,,,,,,,,,,,,,,,,,,,,,,,,,,,,,,,,,,,,,,,,,,,,,,,,,,,,,,,,,,,,,,,
,,"[""comma""]",0,[0.6008000000119154],6,0,6,0,1,5bc9abc0777400000169f73e,29,Kobieta,2022-06-04_08h11.36.112,task,2021.1.4,Win32,59.99520038,628b806c463b948bc644b84f,629af780849631c55696ea7e,,,,,,,,,,,,,,,,,,,,,,,,,,,,,,,,,,,,,,,,,,,,,,,,,,,,,,,,,,,,,,,,,,,,,,,,,,,,,,,,,,,,,,,,,,,,,,,,,,,,,,,
,,"[""period""]",0,[0.3488999999761546],7,0,7,0,1,5bc9abc0777400000169f73e,29,Kobieta,2022-06-04_08h11.36.112,task,2021.1.4,Win32,59.99520038,628b806c463b948bc644b84f,629af780849631c55696ea7e,,,,,,,,,,,,,,,,,,,,,,,,,,,,,,,,,,,,,,,,,,,,,,,,,,,,,,,,,,,,,,,,,,,,,,,,,,,,,,,,,,,,,,,,,,,,,,,,,,,,,,,
,,"[""comma""]",0,[0.4195999999940483],8,0,8,0,1,5bc9abc0777400000169f73e,29,Kobieta,2022-06-04_08h11.36.112,task,2021.1.4,Win32,59.99520038,628b806c463b948bc644b84f,629af780849631c55696ea7e,,,,,,,,,,,,,,,,,,,,,,,,,,,,,,,,,,,,,,,,,,,,,,,,,,,,,,,,,,,,,,,,,,,,,,,,,,,,,,,,,,,,,,,,,,,,,,,,,,,,,,,
,,"[""period""]",0,[0.49940000000596285],9,0,9,0,1,5bc9abc0777400000169f73e,29,Kobieta,2022-06-04_08h11.36.112,task,2021.1.4,Win32,59.99520038,628b806c463b948bc644b84f,629af780849631c55696ea7e,,,,,,,,,,,,,,,,,,,,,,,,,,,,,,,,,,,,,,,,,,,,,,,,,,,,,,,,,,,,,,,,,,,,,,,,,,,,,,,,,,,,,,,,,,,,,,,,,,,,,,,
,,"[""period""]",0,[0.39400000000000546],10,0,10,0,1,5bc9abc0777400000169f73e,29,Kobieta,2022-06-04_08h11.36.112,task,2021.1.4,Win32,59.99520038,628b806c463b948bc644b84f,629af780849631c55696ea7e,,,,,,,,,,,,,,,,,,,,,,,,,,,,,,,,,,,,,,,,,,,,,,,,,,,,,,,,,,,,,,,,,,,,,,,,,,,,,,,,,,,,,,,,,,,,,,,,,,,,,,,
,,"[""period""]",0,[0.2838000000119223],11,0,11,0,1,5bc9abc0777400000169f73e,29,Kobieta,2022-06-04_08h11.36.112,task,2021.1.4,Win32,59.99520038,628b806c463b948bc644b84f,629af780849631c55696ea7e,,,,,,,,,,,,,,,,,,,,,,,,,,,,,,,,,,,,,,,,,,,,,,,,,,,,,,,,,,,,,,,,,,,,,,,,,,,,,,,,,,,,,,,,,,,,,,,,,,,,,,,
,,"[""comma""]",0,[0.2535000000000025],12,0,12,0,1,5bc9abc0777400000169f73e,29,Kobieta,2022-06-04_08h11.36.112,task,2021.1.4,Win32,59.99520038,628b806c463b948bc644b84f,629af780849631c55696ea7e,,,,,,,,,,,,,,,,,,,,,,,,,,,,,,,,,,,,,,,,,,,,,,,,,,,,,,,,,,,,,,,,,,,,,,,,,,,,,,,,,,,,,,,,,,,,,,,,,,,,,,,
,,"[""period""]",0,[0.284000000000006],13,0,13,0,1,5bc9abc0777400000169f73e,29,Kobieta,2022-06-04_08h11.36.112,task,2021.1.4,Win32,59.99520038,628b806c463b948bc644b84f,629af780849631c55696ea7e,,,,,,,,,,,,,,,,,,,,,,,,,,,,,,,,,,,,,,,,,,,,,,,,,,,,,,,,,,,,,,,,,,,,,,,,,,,,,,,,,,,,,,,,,,,,,,,,,,,,,,,
,,"[""period""]",0,[0.2187000000178898],14,0,14,0,1,5bc9abc0777400000169f73e,29,Kobieta,2022-06-04_08h11.36.112,task,2021.1.4,Win32,59.99520038,628b806c463b948bc644b84f,629af780849631c55696ea7e,,,,,,,,,,,,,,,,,,,,,,,,,,,,,,,,,,,,,,,,,,,,,,,,,,,,,,,,,,,,,,,,,,,,,,,,,,,,,,,,,,,,,,,,,,,,,,,,,,,,,,,
,,"[""period""]",0,[0.24150000000000205],15,0,15,0,1,5bc9abc0777400000169f73e,29,Kobieta,2022-06-04_08h11.36.112,task,2021.1.4,Win32,59.99520038,628b806c463b948bc644b84f,629af780849631c55696ea7e,,,,,,,,,,,,,,,,,,,,,,,,,,,,,,,,,,,,,,,,,,,,,,,,,,,,,,,,,,,,,,,,,,,,,,,,,,,,,,,,,,,,,,,,,,,,,,,,,,,,,,,
,,"[""comma""]",0,[0.2590999999940351],16,0,16,0,1,5bc9abc0777400000169f73e,29,Kobieta,2022-06-04_08h11.36.112,task,2021.1.4,Win32,59.99520038,628b806c463b948bc644b84f,629af780849631c55696ea7e,,,,,,,,,,,,,,,,,,,,,,,,,,,,,,,,,,,,,,,,,,,,,,,,,,,,,,,,,,,,,,,,,,,,,,,,,,,,,,,,,,,,,,,,,,,,,,,,,,,,,,,
,,"[""comma""]",0,[0.2049999999999983],17,0,17,0,1,5bc9abc0777400000169f73e,29,Kobieta,2022-06-04_08h11.36.112,task,2021.1.4,Win32,59.99520038,628b806c463b948bc644b84f,629af780849631c55696ea7e,,,,,,,,,,,,,,,,,,,,,,,,,,,,,,,,,,,,,,,,,,,,,,,,,,,,,,,,,,,,,,,,,,,,,,,,,,,,,,,,,,,,,,,,,,,,,,,,,,,,,,,
,,"[""comma""]",0,[0.23749999999999716],18,0,18,0,1,5bc9abc0777400000169f73e,29,Kobieta,2022-06-04_08h11.36.112,task,2021.1.4,Win32,59.99520038,628b806c463b948bc644b84f,629af780849631c55696ea7e,,,,,,,,,,,,,,,,,,,,,,,,,,,,,,,,,,,,,,,,,,,,,,,,,,,,,,,,,,,,,,,,,,,,,,,,,,,,,,,,,,,,,,,,,,,,,,,,,,,,,,,
,,"[""comma""]",0,[0.20309999999403772],19,0,19,0,1,5bc9abc0777400000169f73e,29,Kobieta,2022-06-04_08h11.36.112,task,2021.1.4,Win32,59.99520038,628b806c463b948bc644b84f,629af780849631c55696ea7e,,,,,,,,,,,,,,,,,,,,,,,,,,,,,,,,,,,,,,,,,,,,,,,,,,,,,,,,,,,,,,,,,,,,,,,,,,,,,,,,,,,,,,,,,,,,,,,,,,,,,,,
,,"[""comma"",""period""]",0,"[0.13949999999999818,1.9612000000178824]",20,0,20,0,1,5bc9abc0777400000169f73e,29,Kobieta,2022-06-04_08h11.36.112,task,2021.1.4,Win32,59.99520038,628b806c463b948bc644b84f,629af780849631c55696ea7e,,,,,,,,,,,,,,,,,,,,,,,,,,,,,,,,,,,,,,,,,,,,,,,,,,,,,,,,,,,,,,,,,,,,,,,,,,,,,,,,,,,,,,,,,,,,,,,,,,,,,,,
,,,0,,21,0,21,0,1,5bc9abc0777400000169f73e,29,Kobieta,2022-06-04_08h11.36.112,task,2021.1.4,Win32,59.99520038,628b806c463b948bc644b84f,629af780849631c55696ea7e,,,,,,,,,,,,,,,,,,,,,,,,,,,,,,,,,,,,,,,,,,,,,,,,,,,,,,,,,,,,,,,,,,,,,,,,,,,,,,,,,,,,,,,,,,,,,,,,,,,,,,,
,,"[""period""]",0,[0.27180000001192184],22,0,22,0,1,5bc9abc0777400000169f73e,29,Kobieta,2022-06-04_08h11.36.112,task,2021.1.4,Win32,59.99520038,628b806c463b948bc644b84f,629af780849631c55696ea7e,,,,,,,,,,,,,,,,,,,,,,,,,,,,,,,,,,,,,,,,,,,,,,,,,,,,,,,,,,,,,,,,,,,,,,,,,,,,,,,,,,,,,,,,,,,,,,,,,,,,,,,
,,"[""period""]",0,[0.25499999999999545],23,0,23,0,1,5bc9abc0777400000169f73e,29,Kobieta,2022-06-04_08h11.36.112,task,2021.1.4,Win32,59.99520038,628b806c463b948bc644b84f,629af780849631c55696ea7e,,,,,,,,,,,,,,,,,,,,,,,,,,,,,,,,,,,,,,,,,,,,,,,,,,,,,,,,,,,,,,,,,,,,,,,,,,,,,,,,,,,,,,,,,,,,,,,,,,,,,,,
,,"[""comma""]",0,[0.2929000000059574],24,0,24,0,1,5bc9abc0777400000169f73e,29,Kobieta,2022-06-04_08h11.36.112,task,2021.1.4,Win32,59.99520038,628b806c463b948bc644b84f,629af780849631c55696ea7e,,,,,,,,,,,,,,,,,,,,,,,,,,,,,,,,,,,,,,,,,,,,,,,,,,,,,,,,,,,,,,,,,,,,,,,,,,,,,,,,,,,,,,,,,,,,,,,,,,,,,,,
,,"[""period""]",0,[0.3835999999940327],25,0,25,0,1,5bc9abc0777400000169f73e,29,Kobieta,2022-06-04_08h11.36.112,task,2021.1.4,Win32,59.99520038,628b806c463b948bc644b84f,629af780849631c55696ea7e,,,,,,,,,,,,,,,,,,,,,,,,,,,,,,,,,,,,,,,,,,,,,,,,,,,,,,,,,,,,,,,,,,,,,,,,,,,,,,,,,,,,,,,,,,,,,,,,,,,,,,,
,,"[""period""]",0,[0.2530000000000001],26,0,26,0,1,5bc9abc0777400000169f73e,29,Kobieta,2022-06-04_08h11.36.112,task,2021.1.4,Win32,59.99520038,628b806c463b948bc644b84f,629af780849631c55696ea7e,,,,,,,,,,,,,,,,,,,,,,,,,,,,,,,,,,,,,,,,,,,,,,,,,,,,,,,,,,,,,,,,,,,,,,,,,,,,,,,,,,,,,,,,,,,,,,,,,,,,,,,
,,"[""period""]",0,[0.4180999999940411],27,0,27,0,1,5bc9abc0777400000169f73e,29,Kobieta,2022-06-04_08h11.36.112,task,2021.1.4,Win32,59.99520038,628b806c463b948bc644b84f,629af780849631c55696ea7e,,,,,,,,,,,,,,,,,,,,,,,,,,,,,,,,,,,,,,,,,,,,,,,,,,,,,,,,,,,,,,,,,,,,,,,,,,,,,,,,,,,,,,,,,,,,,,,,,,,,,,,
,,"[""period""]",0,[0.25390000000597013],28,0,28,0,1,5bc9abc0777400000169f73e,29,Kobieta,2022-06-04_08h11.36.112,task,2021.1.4,Win32,59.99520038,628b806c463b948bc644b84f,629af780849631c55696ea7e,,,,,,,,,,,,,,,,,,,,,,,,,,,,,,,,,,,,,,,,,,,,,,,,,,,,,,,,,,,,,,,,,,,,,,,,,,,,,,,,,,,,,,,,,,,,,,,,,,,,,,,
,,"[""comma""]",0,[0.22079999998211974],29,0,29,0,1,5bc9abc0777400000169f73e,29,Kobieta,2022-06-04_08h11.36.112,task,2021.1.4,Win32,59.99520038,628b806c463b948bc644b84f,629af780849631c55696ea7e,,,,,,,,,,,,,,,,,,,,,,,,,,,,,,,,,,,,,,,,,,,,,,,,,,,,,,,,,,,,,,,,,,,,,,,,,,,,,,,,,,,,,,,,,,,,,,,,,,,,,,,
,,"[""comma""]",0,[0.2505000000000024],30,0,30,0,1,5bc9abc0777400000169f73e,29,Kobieta,2022-06-04_08h11.36.112,task,2021.1.4,Win32,59.99520038,628b806c463b948bc644b84f,629af780849631c55696ea7e,,,,,,,,,,,,,,,,,,,,,,,,,,,,,,,,,,,,,,,,,,,,,,,,,,,,,,,,,,,,,,,,,,,,,,,,,,,,,,,,,,,,,,,,,,,,,,,,,,,,,,,
,,"[""period""]",0,[0.24529999998210883],31,0,31,0,1,5bc9abc0777400000169f73e,29,Kobieta,2022-06-04_08h11.36.112,task,2021.1.4,Win32,59.99520038,628b806c463b948bc644b84f,629af780849631c55696ea7e,,,,,,,,,,,,,,,,,,,,,,,,,,,,,,,,,,,,,,,,,,,,,,,,,,,,,,,,,,,,,,,,,,,,,,,,,,,,,,,,,,,,,,,,,,,,,,,,,,,,,,,
,,"[""comma""]",0,[0.2039999999999793],32,0,32,0,1,5bc9abc0777400000169f73e,29,Kobieta,2022-06-04_08h11.36.112,task,2021.1.4,Win32,59.99520038,628b806c463b948bc644b84f,629af780849631c55696ea7e,,,,,,,,,,,,,,,,,,,,,,,,,,,,,,,,,,,,,,,,,,,,,,,,,,,,,,,,,,,,,,,,,,,,,,,,,,,,,,,,,,,,,,,,,,,,,,,,,,,,,,,
,,"[""comma""]",0,[0.09550000000000125],33,0,33,0,1,5bc9abc0777400000169f73e,29,Kobieta,2022-06-04_08h11.36.112,task,2021.1.4,Win32,59.99520038,628b806c463b948bc644b84f,629af780849631c55696ea7e,,,,,,,,,,,,,,,,,,,,,,,,,,,,,,,,,,,,,,,,,,,,,,,,,,,,,,,,,,,,,,,,,,,,,,,,,,,,,,,,,,,,,,,,,,,,,,,,,,,,,,,
,,"[""comma""]",0,[0.4823999999761668],34,0,34,0,1,5bc9abc0777400000169f73e,29,Kobieta,2022-06-04_08h11.36.112,task,2021.1.4,Win32,59.99520038,628b806c463b948bc644b84f,629af780849631c55696ea7e,,,,,,,,,,,,,,,,,,,,,,,,,,,,,,,,,,,,,,,,,,,,,,,,,,,,,,,,,,,,,,,,,,,,,,,,,,,,,,,,,,,,,,,,,,,,,,,,,,,,,,,
,,"[""comma""]",0,[0.48219999998809726],35,0,35,0,1,5bc9abc0777400000169f73e,29,Kobieta,2022-06-04_08h11.36.112,task,2021.1.4,Win32,59.99520038,628b806c463b948bc644b84f,629af780849631c55696ea7e,,,,,,,,,,,,,,,,,,,,,,,,,,,,,,,,,,,,,,,,,,,,,,,,,,,,,,,,,,,,,,,,,,,,,,,,,,,,,,,,,,,,,,,,,,,,,,,,,,,,,,,
,,"[""comma""]",0,[0.6615999999940527],36,0,36,0,1,5bc9abc0777400000169f73e,29,Kobieta,2022-06-04_08h11.36.112,task,2021.1.4,Win32,59.99520038,628b806c463b948bc644b84f,629af780849631c55696ea7e,,,,,,,,,,,,,,,,,,,,,,,,,,,,,,,,,,,,,,,,,,,,,,,,,,,,,,,,,,,,,,,,,,,,,,,,,,,,,,,,,,,,,,,,,,,,,,,,,,,,,,,
,,"[""period""]",0,[1.3343000000119218],37,0,37,0,1,5bc9abc0777400000169f73e,29,Kobieta,2022-06-04_08h11.36.112,task,2021.1.4,Win32,59.99520038,628b806c463b948bc644b84f,629af780849631c55696ea7e,,,,,,,,,,,,,,,,,,,,,,,,,,,,,,,,,,,,,,,,,,,,,,,,,,,,,,,,,,,,,,,,,,,,,,,,,,,,,,,,,,,,,,,,,,,,,,,,,,,,,,,
,,"[""period""]",0,[0.37509999999403476],38,0,38,0,1,5bc9abc0777400000169f73e,29,Kobieta,2022-06-04_08h11.36.112,task,2021.1.4,Win32,59.99520038,628b806c463b948bc644b84f,629af780849631c55696ea7e,,,,,,,,,,,,,,,,,,,,,,,,,,,,,,,,,,,,,,,,,,,,,,,,,,,,,,,,,,,,,,,,,,,,,,,,,,,,,,,,,,,,,,,,,,,,,,,,,,,,,,,
,,"[""period""]",0,[0.26830000001191934],39,0,39,0,1,5bc9abc0777400000169f73e,29,Kobieta,2022-06-04_08h11.36.112,task,2021.1.4,Win32,59.99520038,628b806c463b948bc644b84f,629af780849631c55696ea7e,,,,,,,,,,,,,,,,,,,,,,,,,,,,,,,,,,,,,,,,,,,,,,,,,,,,,,,,,,,,,,,,,,,,,,,,,,,,,,,,,,,,,,,,,,,,,,,,,,,,,,,
,,"[""period""]",0,[0.24990000000596524],40,0,40,0,1,5bc9abc0777400000169f73e,29,Kobieta,2022-06-04_08h11.36.112,task,2021.1.4,Win32,59.99520038,628b806c463b948bc644b84f,629af780849631c55696ea7e,,,,,,,,,,,,,,,,,,,,,,,,,,,,,,,,,,,,,,,,,,,,,,,,,,,,,,,,,,,,,,,,,,,,,,,,,,,,,,,,,,,,,,,,,,,,,,,,,,,,,,,
,,"[""period""]",0,[0.3598000000119157],41,0,41,0,1,5bc9abc0777400000169f73e,29,Kobieta,2022-06-04_08h11.36.112,task,2021.1.4,Win32,59.99520038,628b806c463b948bc644b84f,629af780849631c55696ea7e,,,,,,,,,,,,,,,,,,,,,,,,,,,,,,,,,,,,,,,,,,,,,,,,,,,,,,,,,,,,,,,,,,,,,,,,,,,,,,,,,,,,,,,,,,,,,,,,,,,,,,,
,,"[""period""]",0,[0.2814999999999941],42,0,42,0,1,5bc9abc0777400000169f73e,29,Kobieta,2022-06-04_08h11.36.112,task,2021.1.4,Win32,59.99520038,628b806c463b948bc644b84f,629af780849631c55696ea7e,,,,,,,,,,,,,,,,,,,,,,,,,,,,,,,,,,,,,,,,,,,,,,,,,,,,,,,,,,,,,,,,,,,,,,,,,,,,,,,,,,,,,,,,,,,,,,,,,,,,,,,
,,"[""period""]",0,[0.2658000000119216],43,0,43,0,1,5bc9abc0777400000169f73e,29,Kobieta,2022-06-04_08h11.36.112,task,2021.1.4,Win32,59.99520038,628b806c463b948bc644b84f,629af780849631c55696ea7e,,,,,,,,,,,,,,,,,,,,,,,,,,,,,,,,,,,,,,,,,,,,,,,,,,,,,,,,,,,,,,,,,,,,,,,,,,,,,,,,,,,,,,,,,,,,,,,,,,,,,,,
,,"[""comma""]",0,[0.31630000001192116],44,0,44,0,1,5bc9abc0777400000169f73e,29,Kobieta,2022-06-04_08h11.36.112,task,2021.1.4,Win32,59.99520038,628b806c463b948bc644b84f,629af780849631c55696ea7e,,,,,,,,,,,,,,,,,,,,,,,,,,,,,,,,,,,,,,,,,,,,,,,,,,,,,,,,,,,,,,,,,,,,,,,,,,,,,,,,,,,,,,,,,,,,,,,,,,,,,,,
,,"[""comma""]",0,[0.28350000000000364],45,0,45,0,1,5bc9abc0777400000169f73e,29,Kobieta,2022-06-04_08h11.36.112,task,2021.1.4,Win32,59.99520038,628b806c463b948bc644b84f,629af780849631c55696ea7e,,,,,,,,,,,,,,,,,,,,,,,,,,,,,,,,,,,,,,,,,,,,,,,,,,,,,,,,,,,,,,,,,,,,,,,,,,,,,,,,,,,,,,,,,,,,,,,,,,,,,,,
,,"[""comma""]",0,[0.3538999999761643],46,0,46,0,1,5bc9abc0777400000169f73e,29,Kobieta,2022-06-04_08h11.36.112,task,2021.1.4,Win32,59.99520038,628b806c463b948bc644b84f,629af780849631c55696ea7e,,,,,,,,,,,,,,,,,,,,,,,,,,,,,,,,,,,,,,,,,,,,,,,,,,,,,,,,,,,,,,,,,,,,,,,,,,,,,,,,,,,,,,,,,,,,,,,,,,,,,,,
,,"[""comma""]",0,[0.2514000000059582],47,0,47,0,1,5bc9abc0777400000169f73e,29,Kobieta,2022-06-04_08h11.36.112,task,2021.1.4,Win32,59.99520038,628b806c463b948bc644b84f,629af780849631c55696ea7e,,,,,,,,,,,,,,,,,,,,,,,,,,,,,,,,,,,,,,,,,,,,,,,,,,,,,,,,,,,,,,,,,,,,,,,,,,,,,,,,,,,,,,,,,,,,,,,,,,,,,,,
,,"[""comma""]",0,[0.26660000002385686],48,0,48,0,1,5bc9abc0777400000169f73e,29,Kobieta,2022-06-04_08h11.36.112,task,2021.1.4,Win32,59.99520038,628b806c463b948bc644b84f,629af780849631c55696ea7e,,,,,,,,,,,,,,,,,,,,,,,,,,,,,,,,,,,,,,,,,,,,,,,,,,,,,,,,,,,,,,,,,,,,,,,,,,,,,,,,,,,,,,,,,,,,,,,,,,,,,,,
,,"[""comma""]",0,[0.2479000000059557],49,0,49,0,1,5bc9abc0777400000169f73e,29,Kobieta,2022-06-04_08h11.36.112,task,2021.1.4,Win32,59.99520038,628b806c463b948bc644b84f,629af780849631c55696ea7e,,,,,,,,,,,,,,,,,,,,,,,,,,,,,,,,,,,,,,,,,,,,,,,,,,,,,,,,,,,,,,,,,,,,,,,,,,,,,,,,,,,,,,,,,,,,,,,,,,,,,,,
,,"[""period""]",0,[0.23859999999402248],50,0,50,0,1,5bc9abc0777400000169f73e,29,Kobieta,2022-06-04_08h11.36.112,task,2021.1.4,Win32,59.99520038,628b806c463b948bc644b84f,629af780849631c55696ea7e,,,,,,,,,,,,,,,,,,,,,,,,,,,,,,,,,,,,,,,,,,,,,,,,,,,,,,,,,,,,,,,,,,,,,,,,,,,,,,,,,,,,,,,,,,,,,,,,,,,,,,,
,,"[""period""]",0,[0.3169000000059441],51,0,51,0,1,5bc9abc0777400000169f73e,29,Kobieta,2022-06-04_08h11.36.112,task,2021.1.4,Win32,59.99520038,628b806c463b948bc644b84f,629af780849631c55696ea7e,,,,,,,,,,,,,,,,,,,,,,,,,,,,,,,,,,,,,,,,,,,,,,,,,,,,,,,,,,,,,,,,,,,,,,,,,,,,,,,,,,,,,,,,,,,,,,,,,,,,,,,
,,"[""comma""]",0,[0.2506999999880861],52,0,52,0,1,5bc9abc0777400000169f73e,29,Kobieta,2022-06-04_08h11.36.112,task,2021.1.4,Win32,59.99520038,628b806c463b948bc644b84f,629af780849631c55696ea7e,,,,,,,,,,,,,,,,,,,,,,,,,,,,,,,,,,,,,,,,,,,,,,,,,,,,,,,,,,,,,,,,,,,,,,,,,,,,,,,,,,,,,,,,,,,,,,,,,,,,,,,
,,"[""period""]",0,[0.30100000000001614],53,0,53,0,1,5bc9abc0777400000169f73e,29,Kobieta,2022-06-04_08h11.36.112,task,2021.1.4,Win32,59.99520038,628b806c463b948bc644b84f,629af780849631c55696ea7e,,,,,,,,,,,,,,,,,,,,,,,,,,,,,,,,,,,,,,,,,,,,,,,,,,,,,,,,,,,,,,,,,,,,,,,,,,,,,,,,,,,,,,,,,,,,,,,,,,,,,,,
,,"[""comma""]",0,[0.6402000000178703],54,0,54,0,1,5bc9abc0777400000169f73e,29,Kobieta,2022-06-04_08h11.36.112,task,2021.1.4,Win32,59.99520038,628b806c463b948bc644b84f,629af780849631c55696ea7e,,,,,,,,,,,,,,,,,,,,,,,,,,,,,,,,,,,,,,,,,,,,,,,,,,,,,,,,,,,,,,,,,,,,,,,,,,,,,,,,,,,,,,,,,,,,,,,,,,,,,,,
,,"[""period""]",0,[0.2525999999940609],55,0,55,0,1,5bc9abc0777400000169f73e,29,Kobieta,2022-06-04_08h11.36.112,task,2021.1.4,Win32,59.99520038,628b806c463b948bc644b84f,629af780849631c55696ea7e,,,,,,,,,,,,,,,,,,,,,,,,,,,,,,,,,,,,,,,,,,,,,,,,,,,,,,,,,,,,,,,,,,,,,,,,,,,,,,,,,,,,,,,,,,,,,,,,,,,,,,,
,,"[""comma""]",0,[0.27019999998807975],56,0,56,0,1,5bc9abc0777400000169f73e,29,Kobieta,2022-06-04_08h11.36.112,task,2021.1.4,Win32,59.99520038,628b806c463b948bc644b84f,629af780849631c55696ea7e,,,,,,,,,,,,,,,,,,,,,,,,,,,,,,,,,,,,,,,,,,,,,,,,,,,,,,,,,,,,,,,,,,,,,,,,,,,,,,,,,,,,,,,,,,,,,,,,,,,,,,,
,,"[""period""]",0,[0.25040000000598184],57,0,57,0,1,5bc9abc0777400000169f73e,29,Kobieta,2022-06-04_08h11.36.112,task,2021.1.4,Win32,59.99520038,628b806c463b948bc644b84f,629af780849631c55696ea7e,,,,,,,,,,,,,,,,,,,,,,,,,,,,,,,,,,,,,,,,,,,,,,,,,,,,,,,,,,,,,,,,,,,,,,,,,,,,,,,,,,,,,,,,,,,,,,,,,,,,,,,
,,"[""period""]",0,[0.2336999999880902],58,0,58,0,1,5bc9abc0777400000169f73e,29,Kobieta,2022-06-04_08h11.36.112,task,2021.1.4,Win32,59.99520038,628b806c463b948bc644b84f,629af780849631c55696ea7e,,,,,,,,,,,,,,,,,,,,,,,,,,,,,,,,,,,,,,,,,,,,,,,,,,,,,,,,,,,,,,,,,,,,,,,,,,,,,,,,,,,,,,,,,,,,,,,,,,,,,,,
,,"[""comma""]",0,[0.45059999999404],59,0,59,0,1,5bc9abc0777400000169f73e,29,Kobieta,2022-06-04_08h11.36.112,task,2021.1.4,Win32,59.99520038,628b806c463b948bc644b84f,629af780849631c55696ea7e,,,,,,,,,,,,,,,,,,,,,,,,,,,,,,,,,,,,,,,,,,,,,,,,,,,,,,,,,,,,,,,,,,,,,,,,,,,,,,,,,,,,,,,,,,,,,,,,,,,,,,,
,,"[""comma""]",0,[0.6004000000059477],60,0,60,0,1,5bc9abc0777400000169f73e,29,Kobieta,2022-06-04_08h11.36.112,task,2021.1.4,Win32,59.99520038,628b806c463b948bc644b84f,629af780849631c55696ea7e,,,,,,,,,,,,,,,,,,,,,,,,,,,,,,,,,,,,,,,,,,,,,,,,,,,,,,,,,,,,,,,,,,,,,,,,,,,,,,,,,,,,,,,,,,,,,,,,,,,,,,,
,,"[""comma""]",0,[0.5226999999880775],61,0,61,0,1,5bc9abc0777400000169f73e,29,Kobieta,2022-06-04_08h11.36.112,task,2021.1.4,Win32,59.99520038,628b806c463b948bc644b84f,629af780849631c55696ea7e,,,,,,,,,,,,,,,,,,,,,,,,,,,,,,,,,,,,,,,,,,,,,,,,,,,,,,,,,,,,,,,,,,,,,,,,,,,,,,,,,,,,,,,,,,,,,,,,,,,,,,,
,,,0,,62,0,62,0,1,5bc9abc0777400000169f73e,29,Kobieta,2022-06-04_08h11.36.112,task,2021.1.4,Win32,59.99520038,628b806c463b948bc644b84f,629af780849631c55696ea7e,,,,,,,,,,,,,,,,,,,,,,,,,,,,,,,,,,,,,,,,,,,,,,,,,,,,,,,,,,,,,,,,,,,,,,,,,,,,,,,,,,,,,,,,,,,,,,,,,,,,,,,
,,"[""comma""]",0,[0.15639999997617338],63,0,63,0,1,5bc9abc0777400000169f73e,29,Kobieta,2022-06-04_08h11.36.112,task,2021.1.4,Win32,59.99520038,628b806c463b948bc644b84f,629af780849631c55696ea7e,,,,,,,,,,,,,,,,,,,,,,,,,,,,,,,,,,,,,,,,,,,,,,,,,,,,,,,,,,,,,,,,,,,,,,,,,,,,,,,,,,,,,,,,,,,,,,,,,,,,,,,
,,"[""period""]",0,[0.5680999999940184],64,0,64,0,1,5bc9abc0777400000169f73e,29,Kobieta,2022-06-04_08h11.36.112,task,2021.1.4,Win32,59.99520038,628b806c463b948bc644b84f,629af780849631c55696ea7e,,,,,,,,,,,,,,,,,,,,,,,,,,,,,,,,,,,,,,,,,,,,,,,,,,,,,,,,,,,,,,,,,,,,,,,,,,,,,,,,,,,,,,,,,,,,,,,,,,,,,,,
,,"[""comma""]",0,[0.3835999999940327],65,0,65,0,1,5bc9abc0777400000169f73e,29,Kobieta,2022-06-04_08h11.36.112,task,2021.1.4,Win32,59.99520038,628b806c463b948bc644b84f,629af780849631c55696ea7e,,,,,,,,,,,,,,,,,,,,,,,,,,,,,,,,,,,,,,,,,,,,,,,,,,,,,,,,,,,,,,,,,,,,,,,,,,,,,,,,,,,,,,,,,,,,,,,,,,,,,,,
,,"[""period"",""comma""]",0,"[0.09459999999401703,1.9749999999999943]",66,0,66,0,1,5bc9abc0777400000169f73e,29,Kobieta,2022-06-04_08h11.36.112,task,2021.1.4,Win32,59.99520038,628b806c463b948bc644b84f,629af780849631c55696ea7e,,,,,,,,,,,,,,,,,,,,,,,,,,,,,,,,,,,,,,,,,,,,,,,,,,,,,,,,,,,,,,,,,,,,,,,,,,,,,,,,,,,,,,,,,,,,,,,,,,,,,,,
,,,0,,67,0,67,0,1,5bc9abc0777400000169f73e,29,Kobieta,2022-06-04_08h11.36.112,task,2021.1.4,Win32,59.99520038,628b806c463b948bc644b84f,629af780849631c55696ea7e,,,,,,,,,,,,,,,,,,,,,,,,,,,,,,,,,,,,,,,,,,,,,,,,,,,,,,,,,,,,,,,,,,,,,,,,,,,,,,,,,,,,,,,,,,,,,,,,,,,,,,,
,,"[""period""]",0,[0.23459999999406023],68,0,68,0,1,5bc9abc0777400000169f73e,29,Kobieta,2022-06-04_08h11.36.112,task,2021.1.4,Win32,59.99520038,628b806c463b948bc644b84f,629af780849631c55696ea7e,,,,,,,,,,,,,,,,,,,,,,,,,,,,,,,,,,,,,,,,,,,,,,,,,,,,,,,,,,,,,,,,,,,,,,,,,,,,,,,,,,,,,,,,,,,,,,,,,,,,,,,
,,"[""period""]",0,[0.2590999999940209],69,0,69,0,1,5bc9abc0777400000169f73e,29,Kobieta,2022-06-04_08h11.36.112,task,2021.1.4,Win32,59.99520038,628b806c463b948bc644b84f,629af780849631c55696ea7e,,,,,,,,,,,,,,,,,,,,,,,,,,,,,,,,,,,,,,,,,,,,,,,,,,,,,,,,,,,,,,,,,,,,,,,,,,,,,,,,,,,,,,,,,,,,,,,,,,,,,,,
,,"[""period""]",0,[0.2480999999940252],70,0,70,0,1,5bc9abc0777400000169f73e,29,Kobieta,2022-06-04_08h11.36.112,task,2021.1.4,Win32,59.99520038,628b806c463b948bc644b84f,629af780849631c55696ea7e,,,,,,,,,,,,,,,,,,,,,,,,,,,,,,,,,,,,,,,,,,,,,,,,,,,,,,,,,,,,,,,,,,,,,,,,,,,,,,,,,,,,,,,,,,,,,,,,,,,,,,,
,,"[""period""]",0,[0.2380999999940343],71,0,71,0,1,5bc9abc0777400000169f73e,29,Kobieta,2022-06-04_08h11.36.112,task,2021.1.4,Win32,59.99520038,628b806c463b948bc644b84f,629af780849631c55696ea7e,,,,,,,,,,,,,,,,,,,,,,,,,,,,,,,,,,,,,,,,,,,,,,,,,,,,,,,,,,,,,,,,,,,,,,,,,,,,,,,,,,,,,,,,,,,,,,,,,,,,,,,
,,"[""period""]",0,[0.23290000000596933],72,0,72,0,1,5bc9abc0777400000169f73e,29,Kobieta,2022-06-04_08h11.36.112,task,2021.1.4,Win32,59.99520038,628b806c463b948bc644b84f,629af780849631c55696ea7e,,,,,,,,,,,,,,,,,,,,,,,,,,,,,,,,,,,,,,,,,,,,,,,,,,,,,,,,,,,,,,,,,,,,,,,,,,,,,,,,,,,,,,,,,,,,,,,,,,,,,,,
,,"[""period""]",0,[0.21509999999403817],73,0,73,0,1,5bc9abc0777400000169f73e,29,Kobieta,2022-06-04_08h11.36.112,task,2021.1.4,Win32,59.99520038,628b806c463b948bc644b84f,629af780849631c55696ea7e,,,,,,,,,,,,,,,,,,,,,,,,,,,,,,,,,,,,,,,,,,,,,,,,,,,,,,,,,,,,,,,,,,,,,,,,,,,,,,,,,,,,,,,,,,,,,,,,,,,,,,,
,,"[""comma""]",0,[0.23950000000002092],74,0,74,0,1,5bc9abc0777400000169f73e,29,Kobieta,2022-06-04_08h11.36.112,task,2021.1.4,Win32,59.99520038,628b806c463b948bc644b84f,629af780849631c55696ea7e,,,,,,,,,,,,,,,,,,,,,,,,,,,,,,,,,,,,,,,,,,,,,,,,,,,,,,,,,,,,,,,,,,,,,,,,,,,,,,,,,,,,,,,,,,,,,,,,,,,,,,,
,,"[""comma""]",0,[0.1527000000178873],75,0,75,0,1,5bc9abc0777400000169f73e,29,Kobieta,2022-06-04_08h11.36.112,task,2021.1.4,Win32,59.99520038,628b806c463b948bc644b84f,629af780849631c55696ea7e,,,,,,,,,,,,,,,,,,,,,,,,,,,,,,,,,,,,,,,,,,,,,,,,,,,,,,,,,,,,,,,,,,,,,,,,,,,,,,,,,,,,,,,,,,,,,,,,,,,,,,,
,,"[""comma""]",0,[0.23720000001787866],76,0,76,0,1,5bc9abc0777400000169f73e,29,Kobieta,2022-06-04_08h11.36.112,task,2021.1.4,Win32,59.99520038,628b806c463b948bc644b84f,629af780849631c55696ea7e,,,,,,,,,,,,,,,,,,,,,,,,,,,,,,,,,,,,,,,,,,,,,,,,,,,,,,,,,,,,,,,,,,,,,,,,,,,,,,,,,,,,,,,,,,,,,,,,,,,,,,,
,,"[""comma""]",0,[0.23840000000595296],77,0,77,0,1,5bc9abc0777400000169f73e,29,Kobieta,2022-06-04_08h11.36.112,task,2021.1.4,Win32,59.99520038,628b806c463b948bc644b84f,629af780849631c55696ea7e,,,,,,,,,,,,,,,,,,,,,,,,,,,,,,,,,,,,,,,,,,,,,,,,,,,,,,,,,,,,,,,,,,,,,,,,,,,,,,,,,,,,,,,,,,,,,,,,,,,,,,,
,,"[""comma""]",0,[0.24150000000000205],78,0,78,0,1,5bc9abc0777400000169f73e,29,Kobieta,2022-06-04_08h11.36.112,task,2021.1.4,Win32,59.99520038,628b806c463b948bc644b84f,629af780849631c55696ea7e,,,,,,,,,,,,,,,,,,,,,,,,,,,,,,,,,,,,,,,,,,,,,,,,,,,,,,,,,,,,,,,,,,,,,,,,,,,,,,,,,,,,,,,,,,,,,,,,,,,,,,,
,,"[""comma""]",0,[0.23409999999404363],79,0,79,0,1,5bc9abc0777400000169f73e,29,Kobieta,2022-06-04_08h11.36.112,task,2021.1.4,Win32,59.99520038,628b806c463b948bc644b84f,629af780849631c55696ea7e,,,,,,,,,,,,,,,,,,,,,,,,,,,,,,,,,,,,,,,,,,,,,,,,,,,,,,,,,,,,,,,,,,,,,,,,,,,,,,,,,,,,,,,,,,,,,,,,,,,,,,,
,,"[""period""]",0,[0.2602000000178748],80,0,80,0,1,5bc9abc0777400000169f73e,29,Kobieta,2022-06-04_08h11.36.112,task,2021.1.4,Win32,59.99520038,628b806c463b948bc644b84f,629af780849631c55696ea7e,,,,,,,,,,,,,,,,,,,,,,,,,,,,,,,,,,,,,,,,,,,,,,,,,,,,,,,,,,,,,,,,,,,,,,,,,,,,,,,,,,,,,,,,,,,,,,,,,,,,,,,
,,"[""period""]",0,[0.16690000000596683],81,0,81,0,1,5bc9abc0777400000169f73e,29,Kobieta,2022-06-04_08h11.36.112,task,2021.1.4,Win32,59.99520038,628b806c463b948bc644b84f,629af780849631c55696ea7e,,,,,,,,,,,,,,,,,,,,,,,,,,,,,,,,,,,,,,,,,,,,,,,,,,,,,,,,,,,,,,,,,,,,,,,,,,,,,,,,,,,,,,,,,,,,,,,,,,,,,,,
,,"[""period""]",0,[0.22019999998806838],82,0,82,0,1,5bc9abc0777400000169f73e,29,Kobieta,2022-06-04_08h11.36.112,task,2021.1.4,Win32,59.99520038,628b806c463b948bc644b84f,629af780849631c55696ea7e,,,,,,,,,,,,,,,,,,,,,,,,,,,,,,,,,,,,,,,,,,,,,,,,,,,,,,,,,,,,,,,,,,,,,,,,,,,,,,,,,,,,,,,,,,,,,,,,,,,,,,,
,,"[""comma""]",0,[0.24089999997616474],83,0,83,0,1,5bc9abc0777400000169f73e,29,Kobieta,2022-06-04_08h11.36.112,task,2021.1.4,Win32,59.99520038,628b806c463b948bc644b84f,629af780849631c55696ea7e,,,,,,,,,,,,,,,,,,,,,,,,,,,,,,,,,,,,,,,,,,,,,,,,,,,,,,,,,,,,,,,,,,,,,,,,,,,,,,,,,,,,,,,,,,,,,,,,,,,,,,,
,,"[""comma""]",0,[0.2336000000238414],84,0,84,0,1,5bc9abc0777400000169f73e,29,Kobieta,2022-06-04_08h11.36.112,task,2021.1.4,Win32,59.99520038,628b806c463b948bc644b84f,629af780849631c55696ea7e,,,,,,,,,,,,,,,,,,,,,,,,,,,,,,,,,,,,,,,,,,,,,,,,,,,,,,,,,,,,,,,,,,,,,,,,,,,,,,,,,,,,,,,,,,,,,,,,,,,,,,,
,,"[""period"",""period""]",0,"[0.2050000000000125,0.8004999999999995]",85,0,85,0,1,5bc9abc0777400000169f73e,29,Kobieta,2022-06-04_08h11.36.112,task,2021.1.4,Win32,59.99520038,628b806c463b948bc644b84f,629af780849631c55696ea7e,,,,,,,,,,,,,,,,,,,,,,,,,,,,,,,,,,,,,,,,,,,,,,,,,,,,,,,,,,,,,,,,,,,,,,,,,,,,,,,,,,,,,,,,,,,,,,,,,,,,,,,
,,"[""period""]",0,[1.8545999999940364],86,0,86,0,1,5bc9abc0777400000169f73e,29,Kobieta,2022-06-04_08h11.36.112,task,2021.1.4,Win32,59.99520038,628b806c463b948bc644b84f,629af780849631c55696ea7e,,,,,,,,,,,,,,,,,,,,,,,,,,,,,,,,,,,,,,,,,,,,,,,,,,,,,,,,,,,,,,,,,,,,,,,,,,,,,,,,,,,,,,,,,,,,,,,,,,,,,,,
,,,0,,87,0,87,0,1,5bc9abc0777400000169f73e,29,Kobieta,2022-06-04_08h11.36.112,task,2021.1.4,Win32,59.99520038,628b806c463b948bc644b84f,629af780849631c55696ea7e,,,,,,,,,,,,,,,,,,,,,,,,,,,,,,,,,,,,,,,,,,,,,,,,,,,,,,,,,,,,,,,,,,,,,,,,,,,,,,,,,,,,,,,,,,,,,,,,,,,,,,,
,,"[""period""]",0,[0.23780000001193002],88,0,88,0,1,5bc9abc0777400000169f73e,29,Kobieta,2022-06-04_08h11.36.112,task,2021.1.4,Win32,59.99520038,628b806c463b948bc644b84f,629af780849631c55696ea7e,,,,,,,,,,,,,,,,,,,,,,,,,,,,,,,,,,,,,,,,,,,,,,,,,,,,,,,,,,,,,,,,,,,,,,,,,,,,,,,,,,,,,,,,,,,,,,,,,,,,,,,
,,"[""comma""]",0,[0.38979999998210246],89,0,89,0,1,5bc9abc0777400000169f73e,29,Kobieta,2022-06-04_08h11.36.112,task,2021.1.4,Win32,59.99520038,628b806c463b948bc644b84f,629af780849631c55696ea7e,,,,,,,,,,,,,,,,,,,,,,,,,,,,,,,,,,,,,,,,,,,,,,,,,,,,,,,,,,,,,,,,,,,,,,,,,,,,,,,,,,,,,,,,,,,,,,,,,,,,,,,
,,"[""comma""]",0,[0.2754000000059591],90,0,90,0,1,5bc9abc0777400000169f73e,29,Kobieta,2022-06-04_08h11.36.112,task,2021.1.4,Win32,59.99520038,628b806c463b948bc644b84f,629af780849631c55696ea7e,,,,,,,,,,,,,,,,,,,,,,,,,,,,,,,,,,,,,,,,,,,,,,,,,,,,,,,,,,,,,,,,,,,,,,,,,,,,,,,,,,,,,,,,,,,,,,,,,,,,,,,
,,"[""period""]",0,[0.2672999999821286],91,0,91,0,1,5bc9abc0777400000169f73e,29,Kobieta,2022-06-04_08h11.36.112,task,2021.1.4,Win32,59.99520038,628b806c463b948bc644b84f,629af780849631c55696ea7e,,,,,,,,,,,,,,,,,,,,,,,,,,,,,,,,,,,,,,,,,,,,,,,,,,,,,,,,,,,,,,,,,,,,,,,,,,,,,,,,,,,,,,,,,,,,,,,,,,,,,,,
,,"[""period""]",0,[0.2341999999880784],92,0,92,0,1,5bc9abc0777400000169f73e,29,Kobieta,2022-06-04_08h11.36.112,task,2021.1.4,Win32,59.99520038,628b806c463b948bc644b84f,629af780849631c55696ea7e,,,,,,,,,,,,,,,,,,,,,,,,,,,,,,,,,,,,,,,,,,,,,,,,,,,,,,,,,,,,,,,,,,,,,,,,,,,,,,,,,,,,,,,,,,,,,,,,,,,,,,,
,,"[""period""]",0,[0.3669999999999902],93,0,93,0,1,5bc9abc0777400000169f73e,29,Kobieta,2022-06-04_08h11.36.112,task,2021.1.4,Win32,59.99520038,628b806c463b948bc644b84f,629af780849631c55696ea7e,,,,,,,,,,,,,,,,,,,,,,,,,,,,,,,,,,,,,,,,,,,,,,,,,,,,,,,,,,,,,,,,,,,,,,,,,,,,,,,,,,,,,,,,,,,,,,,,,,,,,,,
,,"[""comma""]",0,[0.31280000001191866],94,0,94,0,1,5bc9abc0777400000169f73e,29,Kobieta,2022-06-04_08h11.36.112,task,2021.1.4,Win32,59.99520038,628b806c463b948bc644b84f,629af780849631c55696ea7e,,,,,,,,,,,,,,,,,,,,,,,,,,,,,,,,,,,,,,,,,,,,,,,,,,,,,,,,,,,,,,,,,,,,,,,,,,,,,,,,,,,,,,,,,,,,,,,,,,,,,,,
,,"[""comma""]",0,[0.2577999999821259],95,0,95,0,1,5bc9abc0777400000169f73e,29,Kobieta,2022-06-04_08h11.36.112,task,2021.1.4,Win32,59.99520038,628b806c463b948bc644b84f,629af780849631c55696ea7e,,,,,,,,,,,,,,,,,,,,,,,,,,,,,,,,,,,,,,,,,,,,,,,,,,,,,,,,,,,,,,,,,,,,,,,,,,,,,,,,,,,,,,,,,,,,,,,,,,,,,,,
,,"[""comma""]",0,[0.2842999999821245],96,0,96,0,1,5bc9abc0777400000169f73e,29,Kobieta,2022-06-04_08h11.36.112,task,2021.1.4,Win32,59.99520038,628b806c463b948bc644b84f,629af780849631c55696ea7e,,,,,,,,,,,,,,,,,,,,,,,,,,,,,,,,,,,,,,,,,,,,,,,,,,,,,,,,,,,,,,,,,,,,,,,,,,,,,,,,,,,,,,,,,,,,,,,,,,,,,,,
,,"[""period""]",0,[0.3753000000119471],97,0,97,0,1,5bc9abc0777400000169f73e,29,Kobieta,2022-06-04_08h11.36.112,task,2021.1.4,Win32,59.99520038,628b806c463b948bc644b84f,629af780849631c55696ea7e,,,,,,,,,,,,,,,,,,,,,,,,,,,,,,,,,,,,,,,,,,,,,,,,,,,,,,,,,,,,,,,,,,,,,,,,,,,,,,,,,,,,,,,,,,,,,,,,,,,,,,,
,,"[""period""]",0,[0.256099999994035],98,0,98,0,1,5bc9abc0777400000169f73e,29,Kobieta,2022-06-04_08h11.36.112,task,2021.1.4,Win32,59.99520038,628b806c463b948bc644b84f,629af780849631c55696ea7e,,,,,,,,,,,,,,,,,,,,,,,,,,,,,,,,,,,,,,,,,,,,,,,,,,,,,,,,,,,,,,,,,,,,,,,,,,,,,,,,,,,,,,,,,,,,,,,,,,,,,,,
,,"[""comma""]",0,[0.25399999999996226],99,0,99,0,1,5bc9abc0777400000169f73e,29,Kobieta,2022-06-04_08h11.36.112,task,2021.1.4,Win32,59.99520038,628b806c463b948bc644b84f,629af780849631c55696ea7e,,,,,,,,,,,,,,,,,,,,,,,,,,,,,,,,,,,,,,,,,,,,,,,,,,,,,,,,,,,,,,,,,,,,,,,,,,,,,,,,,,,,,,,,,,,,,,,,,,,,,,,
,,"[""period""]",0,[0.25090000000597],100,0,100,0,1,5bc9abc0777400000169f73e,29,Kobieta,2022-06-04_08h11.36.112,task,2021.1.4,Win32,59.99520038,628b806c463b948bc644b84f,629af780849631c55696ea7e,,,,,,,,,,,,,,,,,,,,,,,,,,,,,,,,,,,,,,,,,,,,,,,,,,,,,,,,,,,,,,,,,,,,,,,,,,,,,,,,,,,,,,,,,,,,,,,,,,,,,,,
,,"[""period""]",0,[0.3371999999880586],101,0,101,0,1,5bc9abc0777400000169f73e,29,Kobieta,2022-06-04_08h11.36.112,task,2021.1.4,Win32,59.99520038,628b806c463b948bc644b84f,629af780849631c55696ea7e,,,,,,,,,,,,,,,,,,,,,,,,,,,,,,,,,,,,,,,,,,,,,,,,,,,,,,,,,,,,,,,,,,,,,,,,,,,,,,,,,,,,,,,,,,,,,,,,,,,,,,,
,,"[""period""]",0,[0.501699999988034],102,0,102,0,1,5bc9abc0777400000169f73e,29,Kobieta,2022-06-04_08h11.36.112,task,2021.1.4,Win32,59.99520038,628b806c463b948bc644b84f,629af780849631c55696ea7e,,,,,,,,,,,,,,,,,,,,,,,,,,,,,,,,,,,,,,,,,,,,,,,,,,,,,,,,,,,,,,,,,,,,,,,,,,,,,,,,,,,,,,,,,,,,,,,,,,,,,,,
,,"[""comma""]",0,[0.6104000000059386],103,0,103,0,1,5bc9abc0777400000169f73e,29,Kobieta,2022-06-04_08h11.36.112,task,2021.1.4,Win32,59.99520038,628b806c463b948bc644b84f,629af780849631c55696ea7e,,,,,,,,,,,,,,,,,,,,,,,,,,,,,,,,,,,,,,,,,,,,,,,,,,,,,,,,,,,,,,,,,,,,,,,,,,,,,,,,,,,,,,,,,,,,,,,,,,,,,,,
,,"[""comma""]",0,[0.5353000000119437],104,0,104,0,1,5bc9abc0777400000169f73e,29,Kobieta,2022-06-04_08h11.36.112,task,2021.1.4,Win32,59.99520038,628b806c463b948bc644b84f,629af780849631c55696ea7e,,,,,,,,,,,,,,,,,,,,,,,,,,,,,,,,,,,,,,,,,,,,,,,,,,,,,,,,,,,,,,,,,,,,,,,,,,,,,,,,,,,,,,,,,,,,,,,,,,,,,,,
,,"[""comma""]",0,[0.47470000001789003],105,0,105,0,1,5bc9abc0777400000169f73e,29,Kobieta,2022-06-04_08h11.36.112,task,2021.1.4,Win32,59.99520038,628b806c463b948bc644b84f,629af780849631c55696ea7e,,,,,,,,,,,,,,,,,,,,,,,,,,,,,,,,,,,,,,,,,,,,,,,,,,,,,,,,,,,,,,,,,,,,,,,,,,,,,,,,,,,,,,,,,,,,,,,,,,,,,,,
,,"[""period""]",0,[0.2339000000059741],106,0,106,0,1,5bc9abc0777400000169f73e,29,Kobieta,2022-06-04_08h11.36.112,task,2021.1.4,Win32,59.99520038,628b806c463b948bc644b84f,629af780849631c55696ea7e,,,,,,,,,,,,,,,,,,,,,,,,,,,,,,,,,,,,,,,,,,,,,,,,,,,,,,,,,,,,,,,,,,,,,,,,,,,,,,,,,,,,,,,,,,,,,,,,,,,,,,,
,,"[""period""]",0,[0.2624000000059823],107,0,107,0,1,5bc9abc0777400000169f73e,29,Kobieta,2022-06-04_08h11.36.112,task,2021.1.4,Win32,59.99520038,628b806c463b948bc644b84f,629af780849631c55696ea7e,,,,,,,,,,,,,,,,,,,,,,,,,,,,,,,,,,,,,,,,,,,,,,,,,,,,,,,,,,,,,,,,,,,,,,,,,,,,,,,,,,,,,,,,,,,,,,,,,,,,,,,
,,"[""comma""]",0,[0.202800000011905],108,0,108,0,1,5bc9abc0777400000169f73e,29,Kobieta,2022-06-04_08h11.36.112,task,2021.1.4,Win32,59.99520038,628b806c463b948bc644b84f,629af780849631c55696ea7e,,,,,,,,,,,,,,,,,,,,,,,,,,,,,,,,,,,,,,,,,,,,,,,,,,,,,,,,,,,,,,,,,,,,,,,,,,,,,,,,,,,,,,,,,,,,,,,,,,,,,,,
,,"[""comma""]",0,[0.2231999999880827],109,0,109,0,1,5bc9abc0777400000169f73e,29,Kobieta,2022-06-04_08h11.36.112,task,2021.1.4,Win32,59.99520038,628b806c463b948bc644b84f,629af780849631c55696ea7e,,,,,,,,,,,,,,,,,,,,,,,,,,,,,,,,,,,,,,,,,,,,,,,,,,,,,,,,,,,,,,,,,,,,,,,,,,,,,,,,,,,,,,,,,,,,,,,,,,,,,,,
,,"[""period""]",0,[0.0675000000000523],110,0,110,0,1,5bc9abc0777400000169f73e,29,Kobieta,2022-06-04_08h11.36.112,task,2021.1.4,Win32,59.99520038,628b806c463b948bc644b84f,629af780849631c55696ea7e,,,,,,,,,,,,,,,,,,,,,,,,,,,,,,,,,,,,,,,,,,,,,,,,,,,,,,,,,,,,,,,,,,,,,,,,,,,,,,,,,,,,,,,,,,,,,,,,,,,,,,,
,,"[""period""]",0,[0.1681999999880759],111,0,111,0,1,5bc9abc0777400000169f73e,29,Kobieta,2022-06-04_08h11.36.112,task,2021.1.4,Win32,59.99520038,628b806c463b948bc644b84f,629af780849631c55696ea7e,,,,,,,,,,,,,,,,,,,,,,,,,,,,,,,,,,,,,,,,,,,,,,,,,,,,,,,,,,,,,,,,,,,,,,,,,,,,,,,,,,,,,,,,,,,,,,,,,,,,,,,
,,"[""period""]",0,[0.250400000005925],112,0,112,0,1,5bc9abc0777400000169f73e,29,Kobieta,2022-06-04_08h11.36.112,task,2021.1.4,Win32,59.99520038,628b806c463b948bc644b84f,629af780849631c55696ea7e,,,,,,,,,,,,,,,,,,,,,,,,,,,,,,,,,,,,,,,,,,,,,,,,,,,,,,,,,,,,,,,,,,,,,,,,,,,,,,,,,,,,,,,,,,,,,,,,,,,,,,,
,,"[""comma""]",0,[0.41690000000596683],113,0,113,0,1,5bc9abc0777400000169f73e,29,Kobieta,2022-06-04_08h11.36.112,task,2021.1.4,Win32,59.99520038,628b806c463b948bc644b84f,629af780849631c55696ea7e,,,,,,,,,,,,,,,,,,,,,,,,,,,,,,,,,,,,,,,,,,,,,,,,,,,,,,,,,,,,,,,,,,,,,,,,,,,,,,,,,,,,,,,,,,,,,,,,,,,,,,,
,,"[""comma""]",0,[0.31740000000593227],114,0,114,0,1,5bc9abc0777400000169f73e,29,Kobieta,2022-06-04_08h11.36.112,task,2021.1.4,Win32,59.99520038,628b806c463b948bc644b84f,629af780849631c55696ea7e,,,,,,,,,,,,,,,,,,,,,,,,,,,,,,,,,,,,,,,,,,,,,,,,,,,,,,,,,,,,,,,,,,,,,,,,,,,,,,,,,,,,,,,,,,,,,,,,,,,,,,,
,,"[""comma""]",0,[0.25209999999407273],115,0,115,0,1,5bc9abc0777400000169f73e,29,Kobieta,2022-06-04_08h11.36.112,task,2021.1.4,Win32,59.99520038,628b806c463b948bc644b84f,629af780849631c55696ea7e,,,,,,,,,,,,,,,,,,,,,,,,,,,,,,,,,,,,,,,,,,,,,,,,,,,,,,,,,,,,,,,,,,,,,,,,,,,,,,,,,,,,,,,,,,,,,,,,,,,,,,,
,,"[""comma""]",0,[0.2345999999940318],116,0,116,0,1,5bc9abc0777400000169f73e,29,Kobieta,2022-06-04_08h11.36.112,task,2021.1.4,Win32,59.99520038,628b806c463b948bc644b84f,629af780849631c55696ea7e,,,,,,,,,,,,,,,,,,,,,,,,,,,,,,,,,,,,,,,,,,,,,,,,,,,,,,,,,,,,,,,,,,,,,,,,,,,,,,,,,,,,,,,,,,,,,,,,,,,,,,,
,,"[""period""]",0,[0.30160000002382503],117,0,117,0,1,5bc9abc0777400000169f73e,29,Kobieta,2022-06-04_08h11.36.112,task,2021.1.4,Win32,59.99520038,628b806c463b948bc644b84f,629af780849631c55696ea7e,,,,,,,,,,,,,,,,,,,,,,,,,,,,,,,,,,,,,,,,,,,,,,,,,,,,,,,,,,,,,,,,,,,,,,,,,,,,,,,,,,,,,,,,,,,,,,,,,,,,,,,
,,"[""comma""]",0,[0.25200000000000955],118,0,118,0,1,5bc9abc0777400000169f73e,29,Kobieta,2022-06-04_08h11.36.112,task,2021.1.4,Win32,59.99520038,628b806c463b948bc644b84f,629af780849631c55696ea7e,,,,,,,,,,,,,,,,,,,,,,,,,,,,,,,,,,,,,,,,,,,,,,,,,,,,,,,,,,,,,,,,,,,,,,,,,,,,,,,,,,,,,,,,,,,,,,,,,,,,,,,
,,"[""period""]",0,[0.2000999999940518],119,0,119,0,1,5bc9abc0777400000169f73e,29,Kobieta,2022-06-04_08h11.36.112,task,2021.1.4,Win32,59.99520038,628b806c463b948bc644b84f,629af780849631c55696ea7e,,,,,,,,,,,,,,,,,,,,,,,,,,,,,,,,,,,,,,,,,,,,,,,,,,,,,,,,,,,,,,,,,,,,,,,,,,,,,,,,,,,,,,,,,,,,,,,,,,,,,,,
,,,,,,,,,,5bc9abc0777400000169f73e,29,Kobieta,2022-06-04_08h11.36.112,task,2021.1.4,Win32,59.99520038,628b806c463b948bc644b84f,629af780849631c55696ea7e,space,27.1513,space,13.808,0,0,0,0,1,X V Q F H G B L J M P D K C T S W R N Z,,,,,,,,,,,,,,,,,,,,,,,,,,,,,,,,,,,,,,,,,,,,,,,,,,,,,,,,,,,,,,,,,,,,,,,,,,,,,,,,,,,,,,,,,,,,,
,,,,,,,,,,5bc9abc0777400000169f73e,29,Kobieta,2022-06-04_08h11.36.112,task,2021.1.4,Win32,59.99520038,628b806c463b948bc644b84f,629af780849631c55696ea7e,,,,,1,0,1,0,1,X V Q F H G B L J M P D K C T S W R N Z,,,,,,,,,,,,,,,,,,,,,,,,,,,,,,,,,,,,,,,,,,,,,,,,,,,,,,,,,,,,,,,,,,,,,,,,,,,,,,,,,,,,,,,,,,,,,
,,,,,,,,,,5bc9abc0777400000169f73e,29,Kobieta,2022-06-04_08h11.36.112,task,2021.1.4,Win32,59.99520038,628b806c463b948bc644b84f,629af780849631c55696ea7e,,,,,,,,,,,zt,"[""z"",""t""]","[2.7333000000119227,3.468600000023855,4.143900000005999]",1,ZT,0,0,0,0,1,,,,,,,,,,,,,,,,,,,,,,,,,,,,,,,,,,,,,,,,,,,,,,,,,,,,,,,,,,,,,,,,,,,,,,,,,,,,,,,,,,,
,,,,,,,,,,5bc9abc0777400000169f73e,29,Kobieta,2022-06-04_08h11.36.112,task,2021.1.4,Win32,59.99520038,628b806c463b948bc644b84f,629af780849631c55696ea7e,,,,,0,0,0,0,1,X V Q F H G B L J M P D K C T S W R N Z,,,,,,,,,,,,,,,,,,,,,,,,,,,,,,,,,,,,,,,,,,,,,,,,,,,,,,,,,,,,,,,,,,,,,,,,,,,,,,,,,,,,,,,,,,,,,
,,,,,,,,,,5bc9abc0777400000169f73e,29,Kobieta,2022-06-04_08h11.36.112,task,2021.1.4,Win32,59.99520038,628b806c463b948bc644b84f,629af780849631c55696ea7e,,,,,1,0,1,0,1,X V Q F H G B L J M P D K C T S W R N Z,,,,,,,,,,,,,,,,,,,,,,,,,,,,,,,,,,,,,,,,,,,,,,,,,,,,,,,,,,,,,,,,,,,,,,,,,,,,,,,,,,,,,,,,,,,,,
,,,,,,,,,,5bc9abc0777400000169f73e,29,Kobieta,2022-06-04_08h11.36.112,task,2021.1.4,Win32,59.99520038,628b806c463b948bc644b84f,629af780849631c55696ea7e,,,,,,,,,,,kc,"[""k"",""c""]","[2.6183000000119137,3.1493000000119196,3.647400000005973]",1,KC,1,0,1,0,1,,,,,,,,,,,,,,,,,,,,,,,,,,,,,,,,,,,,,,,,,,,,,,,,,,,,,,,,,,,,,,,,,,,,,,,,,,,,,,,,,,,
,,,,,,,,,,5bc9abc0777400000169f73e,29,Kobieta,2022-06-04_08h11.36.112,task,2021.1.4,Win32,59.99520038,628b806c463b948bc644b84f,629af780849631c55696ea7e,,,,,0,0,0,0,1,X V Q F H G B L J M P D K C T S W R N Z,,,,,,,,,,,,,,,,,,,,,,,,,,,,,,,,,,,,,,,,,,,,,,,,,,,,,,,,,,,,,,,,,,,,,,,,,,,,,,,,,,,,,,,,,,,,,
,,,,,,,,,,5bc9abc0777400000169f73e,29,Kobieta,2022-06-04_08h11.36.112,task,2021.1.4,Win32,59.99520038,628b806c463b948bc644b84f,629af780849631c55696ea7e,,,,,1,0,1,0,1,X V Q F H G B L J M P D K C T S W R N Z,,,,,,,,,,,,,,,,,,,,,,,,,,,,,,,,,,,,,,,,,,,,,,,,,,,,,,,,,,,,,,,,,,,,,,,,,,,,,,,,,,,,,,,,,,,,,
,,,,,,,,,,5bc9abc0777400000169f73e,29,Kobieta,2022-06-04_08h11.36.112,task,2021.1.4,Win32,59.99520038,628b806c463b948bc644b84f,629af780849631c55696ea7e,,,,,2,0,2,0,1,X V Q F H G B L J M P D K C T S W R N Z,,,,,,,,,,,,,,,,,,,,,,,,,,,,,,,,,,,,,,,,,,,,,,,,,,,,,,,,,,,,,,,,,,,,,,,,,,,,,,,,,,,,,,,,,,,,,
,,,,,,,,,,5bc9abc0777400000169f73e,29,Kobieta,2022-06-04_08h11.36.112,task,2021.1.4,Win32,59.99520038,628b806c463b948bc644b84f,629af780849631c55696ea7e,,,,,,,,,,,lgs,"[""l"",""g"",""s""]","[1.5550999999940132,1.9869999999999663,2.4324000000059414,2.818099999994047]",1,LGS,2,0,2,0,1,,,,,,,,,,,,,,,,,,,,,,,,,,,,,,,,,,,,,,,,,,,,,,,,,,,,,,,,,,,,,,,,,,,,,,,,,,,,,,,,,,,
,,,,,,,,,,5bc9abc0777400000169f73e,29,Kobieta,2022-06-04_08h11.36.112,task,2021.1.4,Win32,59.99520038,628b806c463b948bc644b84f,629af780849631c55696ea7e,,,,,0,0,0,0,1,X V Q F H G B L J M P D K C T S W R N Z,,,,,,,,,,,,,,,,,,,,,,,,,,,,,,,,,,,,,,,,,,,,,,,,,,,,,,,,,,,,,,,,,,,,,,,,,,,,,,,,,,,,,,,,,,,,,
,,,,,,,,,,5bc9abc0777400000169f73e,29,Kobieta,2022-06-04_08h11.36.112,task,2021.1.4,Win32,59.99520038,628b806c463b948bc644b84f,629af780849631c55696ea7e,,,,,1,0,1,0,1,X V Q F H G B L J M P D K C T S W R N Z,,,,,,,,,,,,,,,,,,,,,,,,,,,,,,,,,,,,,,,,,,,,,,,,,,,,,,,,,,,,,,,,,,,,,,,,,,,,,,,,,,,,,,,,,,,,,
,,,,,,,,,,5bc9abc0777400000169f73e,29,Kobieta,2022-06-04_08h11.36.112,task,2021.1.4,Win32,59.99520038,628b806c463b948bc644b84f,629af780849631c55696ea7e,,,,,2,0,2,0,1,X V Q F H G B L J M P D K C T S W R N Z,,,,,,,,,,,,,,,,,,,,,,,,,,,,,,,,,,,,,,,,,,,,,,,,,,,,,,,,,,,,,,,,,,,,,,,,,,,,,,,,,,,,,,,,,,,,,
,,,,,,,,,,5bc9abc0777400000169f73e,29,Kobieta,2022-06-04_08h11.36.112,task,2021.1.4,Win32,59.99520038,628b806c463b948bc644b84f,629af780849631c55696ea7e,,,,,,,,,,,gfk,"[""g"",""f"",""k""]","[1.4483000000119546,2.724699999988104,3.123800000011954,3.552099999994084]",1,GFK,3,0,3,0,1,,,,,,,,,,,,,,,,,,,,,,,,,,,,,,,,,,,,,,,,,,,,,,,,,,,,,,,,,,,,,,,,,,,,,,,,,,,,,,,,,,,
,,,,,,,,,,5bc9abc0777400000169f73e,29,Kobieta,2022-06-04_08h11.36.112,task,2021.1.4,Win32,59.99520038,628b806c463b948bc644b84f,629af780849631c55696ea7e,,,,,0,0,0,0,1,X V Q F H G B L J M P D K C T S W R N Z,,,,,,,,,,,,,,,,,,,,,,,,,,,,,,,,,,,,,,,,,,,,,,,,,,,,,,,,,,,,,,,,,,,,,,,,,,,,,,,,,,,,,,,,,,,,,
,,,,,,,,,,5bc9abc0777400000169f73e,29,Kobieta,2022-06-04_08h11.36.112,task,2021.1.4,Win32,59.99520038,628b806c463b948bc644b84f,629af780849631c55696ea7e,,,,,1,0,1,0,1,X V Q F H G B L J M P D K C T S W R N Z,,,,,,,,,,,,,,,,,,,,,,,,,,,,,,,,,,,,,,,,,,,,,,,,,,,,,,,,,,,,,,,,,,,,,,,,,,,,,,,,,,,,,,,,,,,,,
,,,,,,,,,,5bc9abc0777400000169f73e,29,Kobieta,2022-06-04_08h11.36.112,task,2021.1.4,Win32,59.99520038,628b806c463b948bc644b84f,629af780849631c55696ea7e,,,,,2,0,2,0,1,X V Q F H G B L J M P D K C T S W R N Z,,,,,,,,,,,,,,,,,,,,,,,,,,,,,,,,,,,,,,,,,,,,,,,,,,,,,,,,,,,,,,,,,,,,,,,,,,,,,,,,,,,,,,,,,,,,,
,,,,,,,,,,5bc9abc0777400000169f73e,29,Kobieta,2022-06-04_08h11.36.112,task,2021.1.4,Win32,59.99520038,628b806c463b948bc644b84f,629af780849631c55696ea7e,,,,,3,0,3,0,1,X V Q F H G B L J M P D K C T S W R N Z,,,,,,,,,,,,,,,,,,,,,,,,,,,,,,,,,,,,,,,,,,,,,,,,,,,,,,,,,,,,,,,,,,,,,,,,,,,,,,,,,,,,,,,,,,,,,
,,,,,,,,,,5bc9abc0777400000169f73e,29,Kobieta,2022-06-04_08h11.36.112,task,2021.1.4,Win32,59.99520038,628b806c463b948bc644b84f,629af780849631c55696ea7e,,,,,,,,,,,scfc,"[""s"",""c"",""f"",""c""]","[0.7218999999761309,1.0625,1.349199999988059,1.5534999999999854,1.9976999999880718]",1,SCFC,4,0,4,0,1,,,,,,,,,,,,,,,,,,,,,,,,,,,,,,,,,,,,,,,,,,,,,,,,,,,,,,,,,,,,,,,,,,,,,,,,,,,,,,,,,,,
,,,,,,,,,,5bc9abc0777400000169f73e,29,Kobieta,2022-06-04_08h11.36.112,task,2021.1.4,Win32,59.99520038,628b806c463b948bc644b84f,629af780849631c55696ea7e,,,,,0,0,0,0,1,X V Q F H G B L J M P D K C T S W R N Z,,,,,,,,,,,,,,,,,,,,,,,,,,,,,,,,,,,,,,,,,,,,,,,,,,,,,,,,,,,,,,,,,,,,,,,,,,,,,,,,,,,,,,,,,,,,,
,,,,,,,,,,5bc9abc0777400000169f73e,29,Kobieta,2022-06-04_08h11.36.112,task,2021.1.4,Win32,59.99520038,628b806c463b948bc644b84f,629af780849631c55696ea7e,,,,,1,0,1,0,1,X V Q F H G B L J M P D K C T S W R N Z,,,,,,,,,,,,,,,,,,,,,,,,,,,,,,,,,,,,,,,,,,,,,,,,,,,,,,,,,,,,,,,,,,,,,,,,,,,,,,,,,,,,,,,,,,,,,
,,,,,,,,,,5bc9abc0777400000169f73e,29,Kobieta,2022-06-04_08h11.36.112,task,2021.1.4,Win32,59.99520038,628b806c463b948bc644b84f,629af780849631c55696ea7e,,,,,2,0,2,0,1,X V Q F H G B L J M P D K C T S W R N Z,,,,,,,,,,,,,,,,,,,,,,,,,,,,,,,,,,,,,,,,,,,,,,,,,,,,,,,,,,,,,,,,,,,,,,,,,,,,,,,,,,,,,,,,,,,,,
,,,,,,,,,,5bc9abc0777400000169f73e,29,Kobieta,2022-06-04_08h11.36.112,task,2021.1.4,Win32,59.99520038,628b806c463b948bc644b84f,629af780849631c55696ea7e,,,,,3,0,3,0,1,X V Q F H G B L J M P D K C T S W R N Z,,,,,,,,,,,,,,,,,,,,,,,,,,,,,,,,,,,,,,,,,,,,,,,,,,,,,,,,,,,,,,,,,,,,,,,,,,,,,,,,,,,,,,,,,,,,,
,,,,,,,,,,5bc9abc0777400000169f73e,29,Kobieta,2022-06-04_08h11.36.112,task,2021.1.4,Win32,59.99520038,628b806c463b948bc644b84f,629af780849631c55696ea7e,,,,,,,,,,,cwpg,"[""c"",""w"",""p"",""g""]","[0.9390000000000214,1.399000000000001,1.7655999999940946,2.065099999994061,2.569500000000005]",1,CWPG,5,0,5,0,1,,,,,,,,,,,,,,,,,,,,,,,,,,,,,,,,,,,,,,,,,,,,,,,,,,,,,,,,,,,,,,,,,,,,,,,,,,,,,,,,,,,
,,,,,,,,,,5bc9abc0777400000169f73e,29,Kobieta,2022-06-04_08h11.36.112,task,2021.1.4,Win32,59.99520038,628b806c463b948bc644b84f,629af780849631c55696ea7e,,,,,0,0,0,0,1,X V Q F H G B L J M P D K C T S W R N Z,,,,,,,,,,,,,,,,,,,,,,,,,,,,,,,,,,,,,,,,,,,,,,,,,,,,,,,,,,,,,,,,,,,,,,,,,,,,,,,,,,,,,,,,,,,,,
,,,,,,,,,,5bc9abc0777400000169f73e,29,Kobieta,2022-06-04_08h11.36.112,task,2021.1.4,Win32,59.99520038,628b806c463b948bc644b84f,629af780849631c55696ea7e,,,,,1,0,1,0,1,X V Q F H G B L J M P D K C T S W R N Z,,,,,,,,,,,,,,,,,,,,,,,,,,,,,,,,,,,,,,,,,,,,,,,,,,,,,,,,,,,,,,,,,,,,,,,,,,,,,,,,,,,,,,,,,,,,,
,,,,,,,,,,5bc9abc0777400000169f73e,29,Kobieta,2022-06-04_08h11.36.112,task,2021.1.4,Win32,59.99520038,628b806c463b948bc644b84f,629af780849631c55696ea7e,,,,,2,0,2,0,1,X V Q F H G B L J M P D K C T S W R N Z,,,,,,,,,,,,,,,,,,,,,,,,,,,,,,,,,,,,,,,,,,,,,,,,,,,,,,,,,,,,,,,,,,,,,,,,,,,,,,,,,,,,,,,,,,,,,
,,,,,,,,,,5bc9abc0777400000169f73e,29,Kobieta,2022-06-04_08h11.36.112,task,2021.1.4,Win32,59.99520038,628b806c463b948bc644b84f,629af780849631c55696ea7e,,,,,3,0,3,0,1,X V Q F H G B L J M P D K C T S W R N Z,,,,,,,,,,,,,,,,,,,,,,,,,,,,,,,,,,,,,,,,,,,,,,,,,,,,,,,,,,,,,,,,,,,,,,,,,,,,,,,,,,,,,,,,,,,,,
,,,,,,,,,,5bc9abc0777400000169f73e,29,Kobieta,2022-06-04_08h11.36.112,task,2021.1.4,Win32,59.99520038,628b806c463b948bc644b84f,629af780849631c55696ea7e,,,,,4,0,4,0,1,X V Q F H G B L J M P D K C T S W R N Z,,,,,,,,,,,,,,,,,,,,,,,,,,,,,,,,,,,,,,,,,,,,,,,,,,,,,,,,,,,,,,,,,,,,,,,,,,,,,,,,,,,,,,,,,,,,,
,,,,,,,,,,5bc9abc0777400000169f73e,29,Kobieta,2022-06-04_08h11.36.112,task,2021.1.4,Win32,59.99520038,628b806c463b948bc644b84f,629af780849631c55696ea7e,,,,,,,,,,,plcvk,"[""p"",""l"",""c"",""v"",""k""]","[0.5821999999880632,0.9274000000059459,1.245599999994056,1.5020999999940159,1.8104000000059273,2.4060999999940123]",1,PLCVK,6,0,6,0,1,,,,,,,,,,,,,,,,,,,,,,,,,,,,,,,,,,,,,,,,,,,,,,,,,,,,,,,,,,,,,,,,,,,,,,,,,,,,,,,,,,,
,,,,,,,,,,5bc9abc0777400000169f73e,29,Kobieta,2022-06-04_08h11.36.112,task,2021.1.4,Win32,59.99520038,628b806c463b948bc644b84f,629af780849631c55696ea7e,,,,,0,0,0,0,1,X V Q F H G B L J M P D K C T S W R N Z,,,,,,,,,,,,,,,,,,,,,,,,,,,,,,,,,,,,,,,,,,,,,,,,,,,,,,,,,,,,,,,,,,,,,,,,,,,,,,,,,,,,,,,,,,,,,
,,,,,,,,,,5bc9abc0777400000169f73e,29,Kobieta,2022-06-04_08h11.36.112,task,2021.1.4,Win32,59.99520038,628b806c463b948bc644b84f,629af780849631c55696ea7e,,,,,1,0,1,0,1,X V Q F H G B L J M P D K C T S W R N Z,,,,,,,,,,,,,,,,,,,,,,,,,,,,,,,,,,,,,,,,,,,,,,,,,,,,,,,,,,,,,,,,,,,,,,,,,,,,,,,,,,,,,,,,,,,,,
,,,,,,,,,,5bc9abc0777400000169f73e,29,Kobieta,2022-06-04_08h11.36.112,task,2021.1.4,Win32,59.99520038,628b806c463b948bc644b84f,629af780849631c55696ea7e,,,,,2,0,2,0,1,X V Q F H G B L J M P D K C T S W R N Z,,,,,,,,,,,,,,,,,,,,,,,,,,,,,,,,,,,,,,,,,,,,,,,,,,,,,,,,,,,,,,,,,,,,,,,,,,,,,,,,,,,,,,,,,,,,,
,,,,,,,,,,5bc9abc0777400000169f73e,29,Kobieta,2022-06-04_08h11.36.112,task,2021.1.4,Win32,59.99520038,628b806c463b948bc644b84f,629af780849631c55696ea7e,,,,,3,0,3,0,1,X V Q F H G B L J M P D K C T S W R N Z,,,,,,,,,,,,,,,,,,,,,,,,,,,,,,,,,,,,,,,,,,,,,,,,,,,,,,,,,,,,,,,,,,,,,,,,,,,,,,,,,,,,,,,,,,,,,
,,,,,,,,,,5bc9abc0777400000169f73e,29,Kobieta,2022-06-04_08h11.36.112,task,2021.1.4,Win32,59.99520038,628b806c463b948bc644b84f,629af780849631c55696ea7e,,,,,4,0,4,0,1,X V Q F H G B L J M P D K C T S W R N Z,,,,,,,,,,,,,,,,,,,,,,,,,,,,,,,,,,,,,,,,,,,,,,,,,,,,,,,,,,,,,,,,,,,,,,,,,,,,,,,,,,,,,,,,,,,,,
,,,,,,,,,,5bc9abc0777400000169f73e,29,Kobieta,2022-06-04_08h11.36.112,task,2021.1.4,Win32,59.99520038,628b806c463b948bc644b84f,629af780849631c55696ea7e,,,,,,,,,,,jxcnq,"[""j"",""x"",""c"",""n"",""q""]","[0.4728000000118868,0.9807000000178618,1.4099000000059618,1.7299999999999613,2.0964000000059286,2.782800000011889]",1,JXCNQ,7,0,7,0,1,,,,,,,,,,,,,,,,,,,,,,,,,,,,,,,,,,,,,,,,,,,,,,,,,,,,,,,,,,,,,,,,,,,,,,,,,,,,,,,,,,,
,,,,,,,,,,5bc9abc0777400000169f73e,29,Kobieta,2022-06-04_08h11.36.112,task,2021.1.4,Win32,59.99520038,628b806c463b948bc644b84f,629af780849631c55696ea7e,,,,,0,0,0,0,1,X V Q F H G B L J M P D K C T S W R N Z,,,,,,,,,,,,,,,,,,,,,,,,,,,,,,,,,,,,,,,,,,,,,,,,,,,,,,,,,,,,,,,,,,,,,,,,,,,,,,,,,,,,,,,,,,,,,
,,,,,,,,,,5bc9abc0777400000169f73e,29,Kobieta,2022-06-04_08h11.36.112,task,2021.1.4,Win32,59.99520038,628b806c463b948bc644b84f,629af780849631c55696ea7e,,,,,1,0,1,0,1,X V Q F H G B L J M P D K C T S W R N Z,,,,,,,,,,,,,,,,,,,,,,,,,,,,,,,,,,,,,,,,,,,,,,,,,,,,,,,,,,,,,,,,,,,,,,,,,,,,,,,,,,,,,,,,,,,,,
,,,,,,,,,,5bc9abc0777400000169f73e,29,Kobieta,2022-06-04_08h11.36.112,task,2021.1.4,Win32,59.99520038,628b806c463b948bc644b84f,629af780849631c55696ea7e,,,,,2,0,2,0,1,X V Q F H G B L J M P D K C T S W R N Z,,,,,,,,,,,,,,,,,,,,,,,,,,,,,,,,,,,,,,,,,,,,,,,,,,,,,,,,,,,,,,,,,,,,,,,,,,,,,,,,,,,,,,,,,,,,,
,,,,,,,,,,5bc9abc0777400000169f73e,29,Kobieta,2022-06-04_08h11.36.112,task,2021.1.4,Win32,59.99520038,628b806c463b948bc644b84f,629af780849631c55696ea7e,,,,,3,0,3,0,1,X V Q F H G B L J M P D K C T S W R N Z,,,,,,,,,,,,,,,,,,,,,,,,,,,,,,,,,,,,,,,,,,,,,,,,,,,,,,,,,,,,,,,,,,,,,,,,,,,,,,,,,,,,,,,,,,,,,
,,,,,,,,,,5bc9abc0777400000169f73e,29,Kobieta,2022-06-04_08h11.36.112,task,2021.1.4,Win32,59.99520038,628b806c463b948bc644b84f,629af780849631c55696ea7e,,,,,4,0,4,0,1,X V Q F H G B L J M P D K C T S W R N Z,,,,,,,,,,,,,,,,,,,,,,,,,,,,,,,,,,,,,,,,,,,,,,,,,,,,,,,,,,,,,,,,,,,,,,,,,,,,,,,,,,,,,,,,,,,,,
,,,,,,,,,,5bc9abc0777400000169f73e,29,Kobieta,2022-06-04_08h11.36.112,task,2021.1.4,Win32,59.99520038,628b806c463b948bc644b84f,629af780849631c55696ea7e,,,,,5,0,5,0,1,X V Q F H G B L J M P D K C T S W R N Z,,,,,,,,,,,,,,,,,,,,,,,,,,,,,,,,,,,,,,,,,,,,,,,,,,,,,,,,,,,,,,,,,,,,,,,,,,,,,,,,,,,,,,,,,,,,,
,,,,,,,,,,5bc9abc0777400000169f73e,29,Kobieta,2022-06-04_08h11.36.112,task,2021.1.4,Win32,59.99520038,628b806c463b948bc644b84f,629af780849631c55696ea7e,,,,,,,,,,,nstrwn,"[""n"",""s"",""t"",""r"",""w"",""n""]","[0.36899999999997135,0.7680999999940354,1.1204000000059295,1.5597000000178696,2.353599999994003,2.5347000000178355,3.08480000001191]",0,NRSTWN,8,0,8,0,1,,,,,,,,,,,,,,,,,,,,,,,,,,,,,,,,,,,,,,,,,,,,,,,,,,,,,,,,,,,,,,,,,,,,,,,,,,,,,,,,,,,
,,,,,,,,,,5bc9abc0777400000169f73e,29,Kobieta,2022-06-04_08h11.36.112,task,2021.1.4,Win32,59.99520038,628b806c463b948bc644b84f,629af780849631c55696ea7e,,,,,0,0,0,0,1,X V Q F H G B L J M P D K C T S W R N Z,,,,,,,,,,,,,,,,,,,,,,,,,,,,,,,,,,,,,,,,,,,,,,,,,,,,,,,,,,,,,,,,,,,,,,,,,,,,,,,,,,,,,,,,,,,,,
,,,,,,,,,,5bc9abc0777400000169f73e,29,Kobieta,2022-06-04_08h11.36.112,task,2021.1.4,Win32,59.99520038,628b806c463b948bc644b84f,629af780849631c55696ea7e,,,,,1,0,1,0,1,X V Q F H G B L J M P D K C T S W R N Z,,,,,,,,,,,,,,,,,,,,,,,,,,,,,,,,,,,,,,,,,,,,,,,,,,,,,,,,,,,,,,,,,,,,,,,,,,,,,,,,,,,,,,,,,,,,,
,,,,,,,,,,5bc9abc0777400000169f73e,29,Kobieta,2022-06-04_08h11.36.112,task,2021.1.4,Win32,59.99520038,628b806c463b948bc644b84f,629af780849631c55696ea7e,,,,,2,0,2,0,1,X V Q F H G B L J M P D K C T S W R N Z,,,,,,,,,,,,,,,,,,,,,,,,,,,,,,,,,,,,,,,,,,,,,,,,,,,,,,,,,,,,,,,,,,,,,,,,,,,,,,,,,,,,,,,,,,,,,
,,,,,,,,,,5bc9abc0777400000169f73e,29,Kobieta,2022-06-04_08h11.36.112,task,2021.1.4,Win32,59.99520038,628b806c463b948bc644b84f,629af780849631c55696ea7e,,,,,3,0,3,0,1,X V Q F H G B L J M P D K C T S W R N Z,,,,,,,,,,,,,,,,,,,,,,,,,,,,,,,,,,,,,,,,,,,,,,,,,,,,,,,,,,,,,,,,,,,,,,,,,,,,,,,,,,,,,,,,,,,,,
,,,,,,,,,,5bc9abc0777400000169f73e,29,Kobieta,2022-06-04_08h11.36.112,task,2021.1.4,Win32,59.99520038,628b806c463b948bc644b84f,629af780849631c55696ea7e,,,,,4,0,4,0,1,X V Q F H G B L J M P D K C T S W R N Z,,,,,,,,,,,,,,,,,,,,,,,,,,,,,,,,,,,,,,,,,,,,,,,,,,,,,,,,,,,,,,,,,,,,,,,,,,,,,,,,,,,,,,,,,,,,,
,,,,,,,,,,5bc9abc0777400000169f73e,29,Kobieta,2022-06-04_08h11.36.112,task,2021.1.4,Win32,59.99520038,628b806c463b948bc644b84f,629af780849631c55696ea7e,,,,,5,0,5,0,1,X V Q F H G B L J M P D K C T S W R N Z,,,,,,,,,,,,,,,,,,,,,,,,,,,,,,,,,,,,,,,,,,,,,,,,,,,,,,,,,,,,,,,,,,,,,,,,,,,,,,,,,,,,,,,,,,,,,
,,,,,,,,,,5bc9abc0777400000169f73e,29,Kobieta,2022-06-04_08h11.36.112,task,2021.1.4,Win32,59.99520038,628b806c463b948bc644b84f,629af780849631c55696ea7e,,,,,,,,,,,rlgqll,"[""r"",""l"",""g"",""q"",""l"",""l""]","[0.8208000000119,2.8032000000178527,3.7477000000178577,4.248999999999967,4.729499999999973,5.102100000023825,5.645100000023831]",1,RLGQLL,9,0,9,0,1,,,,,,,,,,,,,,,,,,,,,,,,,,,,,,,,,,,,,,,,,,,,,,,,,,,,,,,,,,,,,,,,,,,,,,,,,,,,,,,,,,,
,,,,,,,,,,5bc9abc0777400000169f73e,29,Kobieta,2022-06-04_08h11.36.112,task,2021.1.4,Win32,59.99520038,628b806c463b948bc644b84f,629af780849631c55696ea7e,,,,,0,0,0,0,1,X V Q F H G B L J M P D K C T S W R N Z,,,,,,,,,,,,,,,,,,,,,,,,,,,,,,,,,,,,,,,,,,,,,,,,,,,,,,,,,,,,,,,,,,,,,,,,,,,,,,,,,,,,,,,,,,,,,
,,,,,,,,,,5bc9abc0777400000169f73e,29,Kobieta,2022-06-04_08h11.36.112,task,2021.1.4,Win32,59.99520038,628b806c463b948bc644b84f,629af780849631c55696ea7e,,,,,1,0,1,0,1,X V Q F H G B L J M P D K C T S W R N Z,,,,,,,,,,,,,,,,,,,,,,,,,,,,,,,,,,,,,,,,,,,,,,,,,,,,,,,,,,,,,,,,,,,,,,,,,,,,,,,,,,,,,,,,,,,,,
,,,,,,,,,,5bc9abc0777400000169f73e,29,Kobieta,2022-06-04_08h11.36.112,task,2021.1.4,Win32,59.99520038,628b806c463b948bc644b84f,629af780849631c55696ea7e,,,,,2,0,2,0,1,X V Q F H G B L J M P D K C T S W R N Z,,,,,,,,,,,,,,,,,,,,,,,,,,,,,,,,,,,,,,,,,,,,,,,,,,,,,,,,,,,,,,,,,,,,,,,,,,,,,,,,,,,,,,,,,,,,,
,,,,,,,,,,5bc9abc0777400000169f73e,29,Kobieta,2022-06-04_08h11.36.112,task,2021.1.4,Win32,59.99520038,628b806c463b948bc644b84f,629af780849631c55696ea7e,,,,,3,0,3,0,1,X V Q F H G B L J M P D K C T S W R N Z,,,,,,,,,,,,,,,,,,,,,,,,,,,,,,,,,,,,,,,,,,,,,,,,,,,,,,,,,,,,,,,,,,,,,,,,,,,,,,,,,,,,,,,,,,,,,
,,,,,,,,,,5bc9abc0777400000169f73e,29,Kobieta,2022-06-04_08h11.36.112,task,2021.1.4,Win32,59.99520038,628b806c463b948bc644b84f,629af780849631c55696ea7e,,,,,4,0,4,0,1,X V Q F H G B L J M P D K C T S W R N Z,,,,,,,,,,,,,,,,,,,,,,,,,,,,,,,,,,,,,,,,,,,,,,,,,,,,,,,,,,,,,,,,,,,,,,,,,,,,,,,,,,,,,,,,,,,,,
,,,,,,,,,,5bc9abc0777400000169f73e,29,Kobieta,2022-06-04_08h11.36.112,task,2021.1.4,Win32,59.99520038,628b806c463b948bc644b84f,629af780849631c55696ea7e,,,,,5,0,5,0,1,X V Q F H G B L J M P D K C T S W R N Z,,,,,,,,,,,,,,,,,,,,,,,,,,,,,,,,,,,,,,,,,,,,,,,,,,,,,,,,,,,,,,,,,,,,,,,,,,,,,,,,,,,,,,,,,,,,,
,,,,,,,,,,5bc9abc0777400000169f73e,29,Kobieta,2022-06-04_08h11.36.112,task,2021.1.4,Win32,59.99520038,628b806c463b948bc644b84f,629af780849631c55696ea7e,,,,,,,,,,,qbrvkg,"[""q"",""b"",""r"",""v"",""k"",""g""]","[1.2879000000060046,1.71550000000002,2.098799999982134,2.5435999999940577,3.137199999988127,5.917099999994093,8.852400000006014]",0,QBRVKF,10,0,10,0,1,,,,,,,,,,,,,,,,,,,,,,,,,,,,,,,,,,,,,,,,,,,,,,,,,,,,,,,,,,,,,,,,,,,,,,,,,,,,,,,,,,,
,,,,,,,,,,5bc9abc0777400000169f73e,29,Kobieta,2022-06-04_08h11.36.112,task,2021.1.4,Win32,59.99520038,628b806c463b948bc644b84f,629af780849631c55696ea7e,,,,,0,0,0,0,1,X V Q F H G B L J M P D K C T S W R N Z,,,,,,,,,,,,,,,,,,,,,,,,,,,,,,,,,,,,,,,,,,,,,,,,,,,,,,,,,,,,,,,,,,,,,,,,,,,,,,,,,,,,,,,,,,,,,
,,,,,,,,,,5bc9abc0777400000169f73e,29,Kobieta,2022-06-04_08h11.36.112,task,2021.1.4,Win32,59.99520038,628b806c463b948bc644b84f,629af780849631c55696ea7e,,,,,1,0,1,0,1,X V Q F H G B L J M P D K C T S W R N Z,,,,,,,,,,,,,,,,,,,,,,,,,,,,,,,,,,,,,,,,,,,,,,,,,,,,,,,,,,,,,,,,,,,,,,,,,,,,,,,,,,,,,,,,,,,,,
,,,,,,,,,,5bc9abc0777400000169f73e,29,Kobieta,2022-06-04_08h11.36.112,task,2021.1.4,Win32,59.99520038,628b806c463b948bc644b84f,629af780849631c55696ea7e,,,,,2,0,2,0,1,X V Q F H G B L J M P D K C T S W R N Z,,,,,,,,,,,,,,,,,,,,,,,,,,,,,,,,,,,,,,,,,,,,,,,,,,,,,,,,,,,,,,,,,,,,,,,,,,,,,,,,,,,,,,,,,,,,,
,,,,,,,,,,5bc9abc0777400000169f73e,29,Kobieta,2022-06-04_08h11.36.112,task,2021.1.4,Win32,59.99520038,628b806c463b948bc644b84f,629af780849631c55696ea7e,,,,,3,0,3,0,1,X V Q F H G B L J M P D K C T S W R N Z,,,,,,,,,,,,,,,,,,,,,,,,,,,,,,,,,,,,,,,,,,,,,,,,,,,,,,,,,,,,,,,,,,,,,,,,,,,,,,,,,,,,,,,,,,,,,
,,,,,,,,,,5bc9abc0777400000169f73e,29,Kobieta,2022-06-04_08h11.36.112,task,2021.1.4,Win32,59.99520038,628b806c463b948bc644b84f,629af780849631c55696ea7e,,,,,4,0,4,0,1,X V Q F H G B L J M P D K C T S W R N Z,,,,,,,,,,,,,,,,,,,,,,,,,,,,,,,,,,,,,,,,,,,,,,,,,,,,,,,,,,,,,,,,,,,,,,,,,,,,,,,,,,,,,,,,,,,,,
,,,,,,,,,,5bc9abc0777400000169f73e,29,Kobieta,2022-06-04_08h11.36.112,task,2021.1.4,Win32,59.99520038,628b806c463b948bc644b84f,629af780849631c55696ea7e,,,,,5,0,5,0,1,X V Q F H G B L J M P D K C T S W R N Z,,,,,,,,,,,,,,,,,,,,,,,,,,,,,,,,,,,,,,,,,,,,,,,,,,,,,,,,,,,,,,,,,,,,,,,,,,,,,,,,,,,,,,,,,,,,,
,,,,,,,,,,5bc9abc0777400000169f73e,29,Kobieta,2022-06-04_08h11.36.112,task,2021.1.4,Win32,59.99520038,628b806c463b948bc644b84f,629af780849631c55696ea7e,,,,,,,,,,,mtgjxk,"[""m"",""t"",""g"",""j"",""x"",""k""]","[1.1866999999880932,1.6175000000000068,2.0575999999940677,2.4490000000000123,2.870199999988074,3.2496999999880813,3.7480999999940536]",1,MTGJXK,11,0,11,0,1,,,,,,,,,,,,,,,,,,,,,,,,,,,,,,,,,,,,,,,,,,,,,,,,,,,,,,,,,,,,,,,,,,,,,,,,,,,,,,,,,,,
,,,,,,,,,,5bc9abc0777400000169f73e,29,Kobieta,2022-06-04_08h11.36.112,task,2021.1.4,Win32,59.99520038,628b806c463b948bc644b84f,629af780849631c55696ea7e,,,,,0,0,0,0,1,X V Q F H G B L J M P D K C T S W R N Z,,,,,,,,,,,,,,,,,,,,,,,,,,,,,,,,,,,,,,,,,,,,,,,,,,,,,,,,,,,,,,,,,,,,,,,,,,,,,,,,,,,,,,,,,,,,,
,,,,,,,,,,5bc9abc0777400000169f73e,29,Kobieta,2022-06-04_08h11.36.112,task,2021.1.4,Win32,59.99520038,628b806c463b948bc644b84f,629af780849631c55696ea7e,,,,,1,0,1,0,1,X V Q F H G B L J M P D K C T S W R N Z,,,,,,,,,,,,,,,,,,,,,,,,,,,,,,,,,,,,,,,,,,,,,,,,,,,,,,,,,,,,,,,,,,,,,,,,,,,,,,,,,,,,,,,,,,,,,
,,,,,,,,,,5bc9abc0777400000169f73e,29,Kobieta,2022-06-04_08h11.36.112,task,2021.1.4,Win32,59.99520038,628b806c463b948bc644b84f,629af780849631c55696ea7e,,,,,2,0,2,0,1,X V Q F H G B L J M P D K C T S W R N Z,,,,,,,,,,,,,,,,,,,,,,,,,,,,,,,,,,,,,,,,,,,,,,,,,,,,,,,,,,,,,,,,,,,,,,,,,,,,,,,,,,,,,,,,,,,,,
,,,,,,,,,,5bc9abc0777400000169f73e,29,Kobieta,2022-06-04_08h11.36.112,task,2021.1.4,Win32,59.99520038,628b806c463b948bc644b84f,629af780849631c55696ea7e,,,,,3,0,3,0,1,X V Q F H G B L J M P D K C T S W R N Z,,,,,,,,,,,,,,,,,,,,,,,,,,,,,,,,,,,,,,,,,,,,,,,,,,,,,,,,,,,,,,,,,,,,,,,,,,,,,,,,,,,,,,,,,,,,,
,,,,,,,,,,5bc9abc0777400000169f73e,29,Kobieta,2022-06-04_08h11.36.112,task,2021.1.4,Win32,59.99520038,628b806c463b948bc644b84f,629af780849631c55696ea7e,,,,,4,0,4,0,1,X V Q F H G B L J M P D K C T S W R N Z,,,,,,,,,,,,,,,,,,,,,,,,,,,,,,,,,,,,,,,,,,,,,,,,,,,,,,,,,,,,,,,,,,,,,,,,,,,,,,,,,,,,,,,,,,,,,
,,,,,,,,,,5bc9abc0777400000169f73e,29,Kobieta,2022-06-04_08h11.36.112,task,2021.1.4,Win32,59.99520038,628b806c463b948bc644b84f,629af780849631c55696ea7e,,,,,5,0,5,0,1,X V Q F H G B L J M P D K C T S W R N Z,,,,,,,,,,,,,,,,,,,,,,,,,,,,,,,,,,,,,,,,,,,,,,,,,,,,,,,,,,,,,,,,,,,,,,,,,,,,,,,,,,,,,,,,,,,,,
,,,,,,,,,,5bc9abc0777400000169f73e,29,Kobieta,2022-06-04_08h11.36.112,task,2021.1.4,Win32,59.99520038,628b806c463b948bc644b84f,629af780849631c55696ea7e,,,,,6,0,6,0,1,X V Q F H G B L J M P D K C T S W R N Z,,,,,,,,,,,,,,,,,,,,,,,,,,,,,,,,,,,,,,,,,,,,,,,,,,,,,,,,,,,,,,,,,,,,,,,,,,,,,,,,,,,,,,,,,,,,,
,,,,,,,,,,5bc9abc0777400000169f73e,29,Kobieta,2022-06-04_08h11.36.112,task,2021.1.4,Win32,59.99520038,628b806c463b948bc644b84f,629af780849631c55696ea7e,,,,,,,,,,,vkrlhmg,"[""v"",""k"",""r"",""l"",""h"",""m"",""g""]","[0.8668000000118923,1.3839999999999577,1.9036999999880777,2.2524999999999977,3.8259000000059586,5.270900000005952,5.5828000000119005,6.07269999998806]",0,VKRLHMB,12,0,12,0,1,,,,,,,,,,,,,,,,,,,,,,,,,,,,,,,,,,,,,,,,,,,,,,,,,,,,,,,,,,,,,,,,,,,,,,,,,,,,,,,,,,,
,,,,,,,,,,5bc9abc0777400000169f73e,29,Kobieta,2022-06-04_08h11.36.112,task,2021.1.4,Win32,59.99520038,628b806c463b948bc644b84f,629af780849631c55696ea7e,,,,,0,0,0,0,1,X V Q F H G B L J M P D K C T S W R N Z,,,,,,,,,,,,,,,,,,,,,,,,,,,,,,,,,,,,,,,,,,,,,,,,,,,,,,,,,,,,,,,,,,,,,,,,,,,,,,,,,,,,,,,,,,,,,
,,,,,,,,,,5bc9abc0777400000169f73e,29,Kobieta,2022-06-04_08h11.36.112,task,2021.1.4,Win32,59.99520038,628b806c463b948bc644b84f,629af780849631c55696ea7e,,,,,1,0,1,0,1,X V Q F H G B L J M P D K C T S W R N Z,,,,,,,,,,,,,,,,,,,,,,,,,,,,,,,,,,,,,,,,,,,,,,,,,,,,,,,,,,,,,,,,,,,,,,,,,,,,,,,,,,,,,,,,,,,,,
,,,,,,,,,,5bc9abc0777400000169f73e,29,Kobieta,2022-06-04_08h11.36.112,task,2021.1.4,Win32,59.99520038,628b806c463b948bc644b84f,629af780849631c55696ea7e,,,,,2,0,2,0,1,X V Q F H G B L J M P D K C T S W R N Z,,,,,,,,,,,,,,,,,,,,,,,,,,,,,,,,,,,,,,,,,,,,,,,,,,,,,,,,,,,,,,,,,,,,,,,,,,,,,,,,,,,,,,,,,,,,,
,,,,,,,,,,5bc9abc0777400000169f73e,29,Kobieta,2022-06-04_08h11.36.112,task,2021.1.4,Win32,59.99520038,628b806c463b948bc644b84f,629af780849631c55696ea7e,,,,,3,0,3,0,1,X V Q F H G B L J M P D K C T S W R N Z,,,,,,,,,,,,,,,,,,,,,,,,,,,,,,,,,,,,,,,,,,,,,,,,,,,,,,,,,,,,,,,,,,,,,,,,,,,,,,,,,,,,,,,,,,,,,
,,,,,,,,,,5bc9abc0777400000169f73e,29,Kobieta,2022-06-04_08h11.36.112,task,2021.1.4,Win32,59.99520038,628b806c463b948bc644b84f,629af780849631c55696ea7e,,,,,4,0,4,0,1,X V Q F H G B L J M P D K C T S W R N Z,,,,,,,,,,,,,,,,,,,,,,,,,,,,,,,,,,,,,,,,,,,,,,,,,,,,,,,,,,,,,,,,,,,,,,,,,,,,,,,,,,,,,,,,,,,,,
,,,,,,,,,,5bc9abc0777400000169f73e,29,Kobieta,2022-06-04_08h11.36.112,task,2021.1.4,Win32,59.99520038,628b806c463b948bc644b84f,629af780849631c55696ea7e,,,,,5,0,5,0,1,X V Q F H G B L J M P D K C T S W R N Z,,,,,,,,,,,,,,,,,,,,,,,,,,,,,,,,,,,,,,,,,,,,,,,,,,,,,,,,,,,,,,,,,,,,,,,,,,,,,,,,,,,,,,,,,,,,,
,,,,,,,,,,5bc9abc0777400000169f73e,29,Kobieta,2022-06-04_08h11.36.112,task,2021.1.4,Win32,59.99520038,628b806c463b948bc644b84f,629af780849631c55696ea7e,,,,,6,0,6,0,1,X V Q F H G B L J M P D K C T S W R N Z,,,,,,,,,,,,,,,,,,,,,,,,,,,,,,,,,,,,,,,,,,,,,,,,,,,,,,,,,,,,,,,,,,,,,,,,,,,,,,,,,,,,,,,,,,,,,
,,,,,,,,,,5bc9abc0777400000169f73e,29,Kobieta,2022-06-04_08h11.36.112,task,2021.1.4,Win32,59.99520038,628b806c463b948bc644b84f,629af780849631c55696ea7e,,,,,,,,,,,qwwcphx,"[""q"",""w"",""w"",""c"",""p"",""h"",""x""]","[1.4510000000000218,2.101400000005981,2.5219999999999914,3.264400000005935,3.8004999999999995,4.28630000001192,4.915600000023858,6.615100000023858]",1,QWWCPHX,13,0,13,0,1,,,,,,,,,,,,,,,,,,,,,,,,,,,,,,,,,,,,,,,,,,,,,,,,,,,,,,,,,,,,,,,,,,,,,,,,,,,,,,,,,,,
,,,,,,,,,,5bc9abc0777400000169f73e,29,Kobieta,2022-06-04_08h11.36.112,task,2021.1.4,Win32,59.99520038,628b806c463b948bc644b84f,629af780849631c55696ea7e,,,,,0,0,0,0,1,X V Q F H G B L J M P D K C T S W R N Z,,,,,,,,,,,,,,,,,,,,,,,,,,,,,,,,,,,,,,,,,,,,,,,,,,,,,,,,,,,,,,,,,,,,,,,,,,,,,,,,,,,,,,,,,,,,,
,,,,,,,,,,5bc9abc0777400000169f73e,29,Kobieta,2022-06-04_08h11.36.112,task,2021.1.4,Win32,59.99520038,628b806c463b948bc644b84f,629af780849631c55696ea7e,,,,,1,0,1,0,1,X V Q F H G B L J M P D K C T S W R N Z,,,,,,,,,,,,,,,,,,,,,,,,,,,,,,,,,,,,,,,,,,,,,,,,,,,,,,,,,,,,,,,,,,,,,,,,,,,,,,,,,,,,,,,,,,,,,
,,,,,,,,,,5bc9abc0777400000169f73e,29,Kobieta,2022-06-04_08h11.36.112,task,2021.1.4,Win32,59.99520038,628b806c463b948bc644b84f,629af780849631c55696ea7e,,,,,2,0,2,0,1,X V Q F H G B L J M P D K C T S W R N Z,,,,,,,,,,,,,,,,,,,,,,,,,,,,,,,,,,,,,,,,,,,,,,,,,,,,,,,,,,,,,,,,,,,,,,,,,,,,,,,,,,,,,,,,,,,,,
,,,,,,,,,,5bc9abc0777400000169f73e,29,Kobieta,2022-06-04_08h11.36.112,task,2021.1.4,Win32,59.99520038,628b806c463b948bc644b84f,629af780849631c55696ea7e,,,,,3,0,3,0,1,X V Q F H G B L J M P D K C T S W R N Z,,,,,,,,,,,,,,,,,,,,,,,,,,,,,,,,,,,,,,,,,,,,,,,,,,,,,,,,,,,,,,,,,,,,,,,,,,,,,,,,,,,,,,,,,,,,,
,,,,,,,,,,5bc9abc0777400000169f73e,29,Kobieta,2022-06-04_08h11.36.112,task,2021.1.4,Win32,59.99520038,628b806c463b948bc644b84f,629af780849631c55696ea7e,,,,,4,0,4,0,1,X V Q F H G B L J M P D K C T S W R N Z,,,,,,,,,,,,,,,,,,,,,,,,,,,,,,,,,,,,,,,,,,,,,,,,,,,,,,,,,,,,,,,,,,,,,,,,,,,,,,,,,,,,,,,,,,,,,
,,,,,,,,,,5bc9abc0777400000169f73e,29,Kobieta,2022-06-04_08h11.36.112,task,2021.1.4,Win32,59.99520038,628b806c463b948bc644b84f,629af780849631c55696ea7e,,,,,5,0,5,0,1,X V Q F H G B L J M P D K C T S W R N Z,,,,,,,,,,,,,,,,,,,,,,,,,,,,,,,,,,,,,,,,,,,,,,,,,,,,,,,,,,,,,,,,,,,,,,,,,,,,,,,,,,,,,,,,,,,,,
,,,,,,,,,,5bc9abc0777400000169f73e,29,Kobieta,2022-06-04_08h11.36.112,task,2021.1.4,Win32,59.99520038,628b806c463b948bc644b84f,629af780849631c55696ea7e,,,,,6,0,6,0,1,X V Q F H G B L J M P D K C T S W R N Z,,,,,,,,,,,,,,,,,,,,,,,,,,,,,,,,,,,,,,,,,,,,,,,,,,,,,,,,,,,,,,,,,,,,,,,,,,,,,,,,,,,,,,,,,,,,,
,,,,,,,,,,5bc9abc0777400000169f73e,29,Kobieta,2022-06-04_08h11.36.112,task,2021.1.4,Win32,59.99520038,628b806c463b948bc644b84f,629af780849631c55696ea7e,,,,,,,,,,,xnffvkh,"[""x"",""n"",""f"",""f"",""v"",""k"",""h""]","[1.0124999999999886,1.601399999976195,2.6811999999881095,2.9301999999880763,3.664399999976183,4.2520000000000095,5.161699999988116,5.571199999988096]",0,XNFVVKH,14,0,14,0,1,,,,,,,,,,,,,,,,,,,,,,,,,,,,,,,,,,,,,,,,,,,,,,,,,,,,,,,,,,,,,,,,,,,,,,,,,,,,,,,,,,,
,,,,,,,,,,5bc9abc0777400000169f73e,29,Kobieta,2022-06-04_08h11.36.112,task,2021.1.4,Win32,59.99520038,628b806c463b948bc644b84f,629af780849631c55696ea7e,,,,,0,0,0,0,1,X V Q F H G B L J M P D K C T S W R N Z,,,,,,,,,,,,,,,,,,,,,,,,,,,,,,,,,,,,,,,,,,,,,,,,,,,,,,,,,,,,,,,,,,,,,,,,,,,,,,,,,,,,,,,,,,,,,
,,,,,,,,,,5bc9abc0777400000169f73e,29,Kobieta,2022-06-04_08h11.36.112,task,2021.1.4,Win32,59.99520038,628b806c463b948bc644b84f,629af780849631c55696ea7e,,,,,1,0,1,0,1,X V Q F H G B L J M P D K C T S W R N Z,,,,,,,,,,,,,,,,,,,,,,,,,,,,,,,,,,,,,,,,,,,,,,,,,,,,,,,,,,,,,,,,,,,,,,,,,,,,,,,,,,,,,,,,,,,,,
,,,,,,,,,,5bc9abc0777400000169f73e,29,Kobieta,2022-06-04_08h11.36.112,task,2021.1.4,Win32,59.99520038,628b806c463b948bc644b84f,629af780849631c55696ea7e,,,,,2,0,2,0,1,X V Q F H G B L J M P D K C T S W R N Z,,,,,,,,,,,,,,,,,,,,,,,,,,,,,,,,,,,,,,,,,,,,,,,,,,,,,,,,,,,,,,,,,,,,,,,,,,,,,,,,,,,,,,,,,,,,,
,,,,,,,,,,5bc9abc0777400000169f73e,29,Kobieta,2022-06-04_08h11.36.112,task,2021.1.4,Win32,59.99520038,628b806c463b948bc644b84f,629af780849631c55696ea7e,,,,,3,0,3,0,1,X V Q F H G B L J M P D K C T S W R N Z,,,,,,,,,,,,,,,,,,,,,,,,,,,,,,,,,,,,,,,,,,,,,,,,,,,,,,,,,,,,,,,,,,,,,,,,,,,,,,,,,,,,,,,,,,,,,
,,,,,,,,,,5bc9abc0777400000169f73e,29,Kobieta,2022-06-04_08h11.36.112,task,2021.1.4,Win32,59.99520038,628b806c463b948bc644b84f,629af780849631c55696ea7e,,,,,4,0,4,0,1,X V Q F H G B L J M P D K C T S W R N Z,,,,,,,,,,,,,,,,,,,,,,,,,,,,,,,,,,,,,,,,,,,,,,,,,,,,,,,,,,,,,,,,,,,,,,,,,,,,,,,,,,,,,,,,,,,,,
,,,,,,,,,,5bc9abc0777400000169f73e,29,Kobieta,2022-06-04_08h11.36.112,task,2021.1.4,Win32,59.99520038,628b806c463b948bc644b84f,629af780849631c55696ea7e,,,,,5,0,5,0,1,X V Q F H G B L J M P D K C T S W R N Z,,,,,,,,,,,,,,,,,,,,,,,,,,,,,,,,,,,,,,,,,,,,,,,,,,,,,,,,,,,,,,,,,,,,,,,,,,,,,,,,,,,,,,,,,,,,,
,,,,,,,,,,5bc9abc0777400000169f73e,29,Kobieta,2022-06-04_08h11.36.112,task,2021.1.4,Win32,59.99520038,628b806c463b948bc644b84f,629af780849631c55696ea7e,,,,,6,0,6,0,1,X V Q F H G B L J M P D K C T S W R N Z,,,,,,,,,,,,,,,,,,,,,,,,,,,,,,,,,,,,,,,,,,,,,,,,,,,,,,,,,,,,,,,,,,,,,,,,,,,,,,,,,,,,,,,,,,,,,
,,,,,,,,,,5bc9abc0777400000169f73e,29,Kobieta,2022-06-04_08h11.36.112,task,2021.1.4,Win32,59.99520038,628b806c463b948bc644b84f,629af780849631c55696ea7e,,,,,,,,,,,xnxrlng,"[""x"",""n"",""x"",""r"",""l"",""n"",""g""]","[1.0252000000178896,1.4562000000179296,2.1173000000119373,2.4980999999941105,3.203700000017875,3.8293000000119264,4.280900000006,4.9640000000000555]",0,XNXRLDG,15,0,15,0,1,,,,,,,,,,,,,,,,,,,,,,,,,,,,,,,,,,,,,,,,,,,,,,,,,,,,,,,,,,,,,,,,,,,,,,,,,,,,,,,,,,,
,,,,,,,,,,5bc9abc0777400000169f73e,29,Kobieta,2022-06-04_08h11.36.112,task,2021.1.4,Win32,59.99520038,628b806c463b948bc644b84f,629af780849631c55696ea7e,,,,,,,,,,,,,,,,,,,,,space,9.5437,8,"[""8""]",1,[2.1186999999880527],[2.1186999999880527],0,0,0,8,1,Practice,9,(3x3) - 1,8,,,,,,,,,,,,,,,,,,,,,,,,,,,,,,,,,,,,,,,,,,,,,,,,,,,,,,,,,,,,,,,,,,,
,,,,,,,,,,5bc9abc0777400000169f73e,29,Kobieta,2022-06-04_08h11.36.112,task,2021.1.4,Win32,59.99520038,628b806c463b948bc644b84f,629af780849631c55696ea7e,,,,,,,,,,,,,,,,,,,,,,,3,"[""3""]",1,[1.9682000000178732],"[2.1186999999880527,1.9682000000178732]",0,1,1,3,1,Practice,4,(8/4) + 1,3,,,,,,,,,,,,,,,,,,,,,,,,,,,,,,,,,,,,,,,,,,,,,,,,,,,,,,,,,,,,,,,,,,,
,,,,,,,,,,5bc9abc0777400000169f73e,29,Kobieta,2022-06-04_08h11.36.112,task,2021.1.4,Win32,59.99520038,628b806c463b948bc644b84f,629af780849631c55696ea7e,,,,,,,,,,,,,,,,,,,,,,,7,"[""7""]",1,[2.700199999988172],"[2.1186999999880527,1.9682000000178732,2.700199999988172]",0,2,2,7,1,Practice,8,(5x5) - 18,7,,,,,,,,,,,,,,,,,,,,,,,,,,,,,,,,,,,,,,,,,,,,,,,,,,,,,,,,,,,,,,,,,,,
,,,,,,,,,,5bc9abc0777400000169f73e,29,Kobieta,2022-06-04_08h11.36.112,task,2021.1.4,Win32,59.99520038,628b806c463b948bc644b84f,629af780849631c55696ea7e,,,,,,,,,,,,,,,,,,,,,,,6,"[""6""]",1,[2.1361999999880936],"[2.1186999999880527,1.9682000000178732,2.700199999988172,2.1361999999880936]",0,3,3,6,1,Practice,7,(25/5) + 1,6,,,,,,,,,,,,,,,,,,,,,,,,,,,,,,,,,,,,,,,,,,,,,,,,,,,,,,,,,,,,,,,,,,,
,,,,,,,,,,5bc9abc0777400000169f73e,29,Kobieta,2022-06-04_08h11.36.112,task,2021.1.4,Win32,59.99520038,628b806c463b948bc644b84f,629af780849631c55696ea7e,,,,,,,,,,,,,,,,,,,,,,,2,"[""2""]",1,[1.7249000000059596],"[2.1186999999880527,1.9682000000178732,2.700199999988172,2.1361999999880936,1.7249000000059596]",0,4,4,2,1,Practice,3,(4x4) - 14,2,,,,,,,,,,,,,,,,,,,,,,,,,,,,,,,,,,,,,,,,,,,,,,,,,,,,,,,,,,,,,,,,,,,
,,,,,,,,,,5bc9abc0777400000169f73e,29,Kobieta,2022-06-04_08h11.36.112,task,2021.1.4,Win32,59.99520038,628b806c463b948bc644b84f,629af780849631c55696ea7e,,,,,,,,,,,,,,,,,,,,,,,9,"[""9""]",1,[2.0673000000119828],"[2.1186999999880527,1.9682000000178732,2.700199999988172,2.1361999999880936,1.7249000000059596,2.0673000000119828]",0,5,5,9,1,Practice,10,(20/2) - 1,9,,,,,,,,,,,,,,,,,,,,,,,,,,,,,,,,,,,,,,,,,,,,,,,,,,,,,,,,,,,,,,,,,,,
,,,,,,,,,,5bc9abc0777400000169f73e,29,Kobieta,2022-06-04_08h11.36.112,task,2021.1.4,Win32,59.99520038,628b806c463b948bc644b84f,629af780849631c55696ea7e,,,,,,,,,,,,,,,,,,,,,,,1,"[""1""]",1,[1.5344000000060305],"[2.1186999999880527,1.9682000000178732,2.700199999988172,2.1361999999880936,1.7249000000059596,2.0673000000119828,1.5344000000060305]",0,6,6,1,1,Practice,2,(4x4) - 15,1,,,,,,,,,,,,,,,,,,,,,,,,,,,,,,,,,,,,,,,,,,,,,,,,,,,,,,,,,,,,,,,,,,,
,,,,,,,,,,5bc9abc0777400000169f73e,29,Kobieta,2022-06-04_08h11.36.112,task,2021.1.4,Win32,59.99520038,628b806c463b948bc644b84f,629af780849631c55696ea7e,,,,,,,,,,,,,,,,,,,,,,,5,"[""5""]",1,[1.6673000000120055],"[2.1186999999880527,1.9682000000178732,2.700199999988172,2.1361999999880936,1.7249000000059596,2.0673000000119828,1.5344000000060305,1.6673000000120055]",0,7,7,5,1,Practice,6,(4/2) + 3,5,,,,,,,,,,,,,,,,,,,,,,,,,,,,,,,,,,,,,,,,,,,,,,,,,,,,,,,,,,,,,,,,,,,
,,,,,,,,,,5bc9abc0777400000169f73e,29,Kobieta,2022-06-04_08h11.36.112,task,2021.1.4,Win32,59.99520038,628b806c463b948bc644b84f,629af780849631c55696ea7e,,,,,,,,,,,,,,,,,,,,,,,0,"[""0""]",1,[1.5299000000059095],"[2.1186999999880527,1.9682000000178732,2.700199999988172,2.1361999999880936,1.7249000000059596,2.0673000000119828,1.5344000000060305,1.6673000000120055,1.5299000000059095]",0,8,8,0,1,Practice,1,(3x3) -  9,0,,,,,,,,,,,,,,,,,,,,,,,,,,,,,,,,,,,,,,,,,,,,,,,,,,,,,,,,,,,,,,,,,,,
,,,,,,,,,,5bc9abc0777400000169f73e,29,Kobieta,2022-06-04_08h11.36.112,task,2021.1.4,Win32,59.99520038,628b806c463b948bc644b84f,629af780849631c55696ea7e,,,,,,,,,,,,,,,,,,,,,,,4,"[""4""]",1,[2.051200000017843],"[2.1186999999880527,1.9682000000178732,2.700199999988172,2.1361999999880936,1.7249000000059596,2.0673000000119828,1.5344000000060305,1.6673000000120055,1.5299000000059095,2.051200000017843]",0,9,9,4,1,Practice,5,(2x6) - 8,4,,,,,,,,,,,,,,,,,,,,,,,,,,,,,,,,,,,,,,,,,,,,,,,,,,,,,,,,,,,,,,,,,,,
,,,,,,,,,,5bc9abc0777400000169f73e,29,Kobieta,2022-06-04_08h11.36.112,task,2021.1.4,Win32,59.99520038,628b806c463b948bc644b84f,629af780849631c55696ea7e,,,,,,,,,,,,,,,,,,,,,,,,,,,,,,,,,,,,,1,19.4983,1.299886667,5.354321886,0.597456938,2.841325566,space,1.9335,0,0,0,0,1,,,,,,,,,,,,,,,,,,,,,,,,,,,,,,,,,,,,,,,,,,,,,,,,,,,,,,
,,,,,,,,,,5bc9abc0777400000169f73e,29,Kobieta,2022-06-04_08h11.36.112,task,2021.1.4,Win32,59.99520038,628b806c463b948bc644b84f,629af780849631c55696ea7e,,,,,,,,,,,,,,,,,,,,,,,1,,,,,,,,,,Practice,2,(4x4) - 15,1,,,,,,,,,,,,,,space,18.7659,"[""1""]",1,[1.4834999999999354],1,0,0,0,1,1,,,,,,,,,,,,,,,,,,,,,,,,,,,,,,,,,,,,,,,,,,,
,,,,,,,,,,5bc9abc0777400000169f73e,29,Kobieta,2022-06-04_08h11.36.112,task,2021.1.4,Win32,59.99520038,628b806c463b948bc644b84f,629af780849631c55696ea7e,,,,,,,,,,X V Q F H G B L J M P D K C T S W R N Z,,,,,,,,,,,,,,,,,,,,,,,,,,,,,,,,,,,,,,,,,,,,,,,,,,,0,0,0,0,1,,,,,,,,,,,,,,,,,,,,,,,,,,,,,,,,,,,,,,
,,,,,,,,,,5bc9abc0777400000169f73e,29,Kobieta,2022-06-04_08h11.36.112,task,2021.1.4,Win32,59.99520038,628b806c463b948bc644b84f,629af780849631c55696ea7e,,,,,,,,,,,,,,,,,,,,,,,0,,,,,,,,,,Practice,1,(3x3) -  9,0,,,,,,,,,,,,,,,,"[""0""]",1,[1.7014000000059468],1,0,0,0,0,1,,,,,,,,,,,,,,,,,,,,,,,,,,,,,,,,,,,,,,,,,,,
,,,,,,,,,,5bc9abc0777400000169f73e,29,Kobieta,2022-06-04_08h11.36.112,task,2021.1.4,Win32,59.99520038,628b806c463b948bc644b84f,629af780849631c55696ea7e,,,,,,,,,,X V Q F H G B L J M P D K C T S W R N Z,,,,,,,,,,,,,,,,,,,,,,,,,,,,,,,,,,,,,,,,,,,,,,,,,,,1,0,1,0,1,,,,,,,,,,,,,,,,,,,,,,,,,,,,,,,,,,,,,,
,,,,,,,,,,5bc9abc0777400000169f73e,29,Kobieta,2022-06-04_08h11.36.112,task,2021.1.4,Win32,59.99520038,628b806c463b948bc644b84f,629af780849631c55696ea7e,,,,,,,,,,,,,,,,,,,,,,,,,,,,,,,,,,,,,,,,,,,,,,,,,,,,,,,,,,,,,,,,,,zt,"[""z"",""t""]",0,"[2.3047999999821513,2.670799999982137,3.327799999982062]",1,0,0,0,0,1,,,,,,,,,,,,,,,,,,,,,,,,,,,,
,,,,,,,,,,5bc9abc0777400000169f73e,29,Kobieta,2022-06-04_08h11.36.112,task,2021.1.4,Win32,59.99520038,628b806c463b948bc644b84f,629af780849631c55696ea7e,,,,,,,,,,,,,,,,,,,,,,,7,,,,,,,,,,Practice,8,(5x5) - 18,7,,,,,,,,,,,,,,,,"[""7""]",1,[2.465099999994095],1,0,0,0,7,1,,,,,,,,,,,,,,,,,,,,,,,,,,,,,,,,,,,,,,,,,,,
,,,,,,,,,,5bc9abc0777400000169f73e,29,Kobieta,2022-06-04_08h11.36.112,task,2021.1.4,Win32,59.99520038,628b806c463b948bc644b84f,629af780849631c55696ea7e,,,,,,,,,,X V Q F H G B L J M P D K C T S W R N Z,,,,,,,,,,,,,,,,,,,,,,,,,,,,,,,,,,,,,,,,,,,,,,,,,,,0,0,0,0,1,,,,,,,,,,,,,,,,,,,,,,,,,,,,,,,,,,,,,,
,,,,,,,,,,5bc9abc0777400000169f73e,29,Kobieta,2022-06-04_08h11.36.112,task,2021.1.4,Win32,59.99520038,628b806c463b948bc644b84f,629af780849631c55696ea7e,,,,,,,,,,,,,,,,,,,,,,,7,,,,,,,,,,Practice,8,(5x5) - 18,7,,,,,,,,,,,,,,,,"[""7""]",1,[2.1941999999880863],1,0,0,0,7,1,,,,,,,,,,,,,,,,,,,,,,,,,,,,,,,,,,,,,,,,,,,
,,,,,,,,,,5bc9abc0777400000169f73e,29,Kobieta,2022-06-04_08h11.36.112,task,2021.1.4,Win32,59.99520038,628b806c463b948bc644b84f,629af780849631c55696ea7e,,,,,,,,,,X V Q F H G B L J M P D K C T S W R N Z,,,,,,,,,,,,,,,,,,,,,,,,,,,,,,,,,,,,,,,,,,,,,,,,,,,1,0,1,0,1,,,,,,,,,,,,,,,,,,,,,,,,,,,,,,,,,,,,,,
,,,,,,,,,,5bc9abc0777400000169f73e,29,Kobieta,2022-06-04_08h11.36.112,task,2021.1.4,Win32,59.99520038,628b806c463b948bc644b84f,629af780849631c55696ea7e,,,,,,,,,,,,,,,,,,,,,,,,,,,,,,,,,,,,,,,,,,,,,,,,,,,,,,,,,,,,,,,,,,jh,"[""j"",""h""]",0,"[2.0835999999940213,2.7767999999821313,3.505999999999972]",1,1,0,1,0,1,,,,,,,,,,,,,,,,,,,,,,,,,,,,
,,,,,,,,,,5bc9abc0777400000169f73e,29,Kobieta,2022-06-04_08h11.36.112,task,2021.1.4,Win32,59.99520038,628b806c463b948bc644b84f,629af780849631c55696ea7e,,,,,,,,,,,,,,,,,,,,,,,4,,,,,,,,,,Practice,5,(2x6) - 8,4,,,,,,,,,,,,,,,,"[""4""]",1,[2.151099999994017],1,0,0,0,4,1,,,,,,,,,,,,,,,,,,,,,,,,,,,,,,,,,,,,,,,,,,,
,,,,,,,,,,5bc9abc0777400000169f73e,29,Kobieta,2022-06-04_08h11.36.112,task,2021.1.4,Win32,59.99520038,628b806c463b948bc644b84f,629af780849631c55696ea7e,,,,,,,,,,X V Q F H G B L J M P D K C T S W R N Z,,,,,,,,,,,,,,,,,,,,,,,,,,,,,,,,,,,,,,,,,,,,,,,,,,,0,0,0,0,1,,,,,,,,,,,,,,,,,,,,,,,,,,,,,,,,,,,,,,
,,,,,,,,,,5bc9abc0777400000169f73e,29,Kobieta,2022-06-04_08h11.36.112,task,2021.1.4,Win32,59.99520038,628b806c463b948bc644b84f,629af780849631c55696ea7e,,,,,,,,,,,,,,,,,,,,,,,8,,,,,,,,,,Practice,9,(3x3) - 1,8,,,,,,,,,,,,,,,,"[""8""]",1,[2.532299999982115],1,0,0,0,8,1,,,,,,,,,,,,,,,,,,,,,,,,,,,,,,,,,,,,,,,,,,,
,,,,,,,,,,5bc9abc0777400000169f73e,29,Kobieta,2022-06-04_08h11.36.112,task,2021.1.4,Win32,59.99520038,628b806c463b948bc644b84f,629af780849631c55696ea7e,,,,,,,,,,X V Q F H G B L J M P D K C T S W R N Z,,,,,,,,,,,,,,,,,,,,,,,,,,,,,,,,,,,,,,,,,,,,,,,,,,,1,0,1,0,1,,,,,,,,,,,,,,,,,,,,,,,,,,,,,,,,,,,,,,
,,,,,,,,,,5bc9abc0777400000169f73e,29,Kobieta,2022-06-04_08h11.36.112,task,2021.1.4,Win32,59.99520038,628b806c463b948bc644b84f,629af780849631c55696ea7e,,,,,,,,,,,,,,,,,,,,,,,,,,,,,,,,,,,,,,,,,,,,,,,,,,,,,,,,,,,,,,,,,,mx,"[""m"",""x""]",0,"[1.4845000000000255,1.979899999976169,3.2930000000000064]",1,2,0,2,0,1,,,,,,,,,,,,,,,,,,,,,,,,,,,,
,,,,,,,,,,5bc9abc0777400000169f73e,29,Kobieta,2022-06-04_08h11.36.112,task,2021.1.4,Win32,59.99520038,628b806c463b948bc644b84f,629af780849631c55696ea7e,,,,,,,,,,,,,,,,,,,,,,,,,,,,,,,,,Task,38,(4x6) - 17,7,,,,,,,,,,,,,,,,,,,0,,,,,,,,,,,,,,,,,,,,,space,22.6159,,0,0,0,0,37,1,,,,,,,,,,,,,,,,,,,
,,,,,,,,,,5bc9abc0777400000169f73e,29,Kobieta,2022-06-04_08h11.36.112,task,2021.1.4,Win32,59.99520038,628b806c463b948bc644b84f,629af780849631c55696ea7e,,,,,,,,,,,,,,,,,,,,,,,1,,,,,,,,,,Task,34,(9/3) - 2,1,,,,,,,,,,,,,,,,,,,1,,,,,,,,,,,,,,,,,,,,,,,"[""1""]",1,0,1,1,33,1,[1.6475000000000364],,,,,,,,,,,,,,,,,,
,,,,,,,,,,5bc9abc0777400000169f73e,29,Kobieta,2022-06-04_08h11.36.112,task,2021.1.4,Win32,59.99520038,628b806c463b948bc644b84f,629af780849631c55696ea7e,,,,,,,,,,X V Q F H G B L J M P D K C T S W R N Z,,,,,,,,,,,,,,,,,,,,,,,,,,,,,,,,,,,,,,,,,,,,,,,,,,,,,,,,,,,,,,,,,,,,,,,,,,,,0,0,0,0,1,,,,,,,,,,,,,
,,,,,,,,,,5bc9abc0777400000169f73e,29,Kobieta,2022-06-04_08h11.36.112,task,2021.1.4,Win32,59.99520038,628b806c463b948bc644b84f,629af780849631c55696ea7e,,,,,,,,,,,,,,,,,,,,,,,2,,,,,,,,,,Task,10,(2x5) - 8,2,,,,,,,,,,,,,,,,,,,1,,,,,,,,,,,,,,,,,,,,,,,"[""2""]",1,0,0,0,9,1,[1.2527000000178532],,,,,,,,,,,,,,,,,,
,,,,,,,,,,5bc9abc0777400000169f73e,29,Kobieta,2022-06-04_08h11.36.112,task,2021.1.4,Win32,59.99520038,628b806c463b948bc644b84f,629af780849631c55696ea7e,,,,,,,,,,X V Q F H G B L J M P D K C T S W R N Z,,,,,,,,,,,,,,,,,,,,,,,,,,,,,,,,,,,,,,,,,,,,,,,,,,,,,,,,,,,,,,,,,,,,,,,,,,,,1,0,1,0,1,,,,,,,,,,,,,
,,,,,,,,,,5bc9abc0777400000169f73e,29,Kobieta,2022-06-04_08h11.36.112,task,2021.1.4,Win32,59.99520038,628b806c463b948bc644b84f,629af780849631c55696ea7e,,,,,,,,,,,,,,,,,,,,,,,,,,,,,,,,,,,,,,,,,,,,,,,,,,,,,,,,,,,,,,,,,,,,,,,,,,,,,,,,,,,,,,,,,,,zh,"[""z"",""h""]",0,"[1.3413999999761472,1.7330999999940104,2.373599999993985]",1,ZH,0,0,0,0,1,,
,,,,,,,,,,5bc9abc0777400000169f73e,29,Kobieta,2022-06-04_08h11.36.112,task,2021.1.4,Win32,59.99520038,628b806c463b948bc644b84f,629af780849631c55696ea7e,,,,,,,,,,,,,,,,,,,,,,,6,,,,,,,,,,Task,6,(12/2) + 1,7,,,,,,,,,,,,,,,,,,,0,,,,,,,,,,,,,,,,,,,,,,,"[""6""]",0,0,0,0,5,1,[1.516099999994026],,,,,,,,,,,,,,,,,,
,,,,,,,,,,5bc9abc0777400000169f73e,29,Kobieta,2022-06-04_08h11.36.112,task,2021.1.4,Win32,59.99520038,628b806c463b948bc644b84f,629af780849631c55696ea7e,,,,,,,,,,,,,,,,,,,,,,,7,,,,,,,,,,Task,30,(6/3) + 4 ,6,,,,,,,,,,,,,,,,,,,0,,,,,,,,,,,,,,,,,,,,,,,"[""7""]",0,0,1,1,29,1,[1.6177000000178623],,,,,,,,,,,,,,,,,,
,,,,,,,,,,5bc9abc0777400000169f73e,29,Kobieta,2022-06-04_08h11.36.112,task,2021.1.4,Win32,59.99520038,628b806c463b948bc644b84f,629af780849631c55696ea7e,,,,,,,,,,,,,,,,,,,,,,,7,,,,,,,,,,Task,38,(4x6) - 17,7,,,,,,,,,,,,,,,,,,,1,,,,,,,,,,,,,,,,,,,,,,,"[""7""]",1,0,2,2,37,1,[2.451900000005935],,,,,,,,,,,,,,,,,,
,,,,,,,,,,5bc9abc0777400000169f73e,29,Kobieta,2022-06-04_08h11.36.112,task,2021.1.4,Win32,59.99520038,628b806c463b948bc644b84f,629af780849631c55696ea7e,,,,,,,,,,X V Q F H G B L J M P D K C T S W R N Z,,,,,,,,,,,,,,,,,,,,,,,,,,,,,,,,,,,,,,,,,,,,,,,,,,,,,,,,,,,,,,,,,,,,,,,,,,,,0,0,0,0,1,,,,,,,,,,,,,
,,,,,,,,,,5bc9abc0777400000169f73e,29,Kobieta,2022-06-04_08h11.36.112,task,2021.1.4,Win32,59.99520038,628b806c463b948bc644b84f,629af780849631c55696ea7e,,,,,,,,,,,,,,,,,,,,,,,6,,,,,,,,,,Task,11,(18/3) - 2,4,,,,,,,,,,,,,,,,,,,0,,,,,,,,,,,,,,,,,,,,,,,"[""6""]",0,0,0,0,10,1,[2.0281999999880327],,,,,,,,,,,,,,,,,,
,,,,,,,,,,5bc9abc0777400000169f73e,29,Kobieta,2022-06-04_08h11.36.112,task,2021.1.4,Win32,59.99520038,628b806c463b948bc644b84f,629af780849631c55696ea7e,,,,,,,,,,,,,,,,,,,,,,,3,,,,,,,,,,Task,3,(2x3) - 3,3,,,,,,,,,,,,,,,,,,,1,,,,,,,,,,,,,,,,,,,,,,,"[""3""]",1,0,1,1,2,1,[2.104900000005955],,,,,,,,,,,,,,,,,,
,,,,,,,,,,5bc9abc0777400000169f73e,29,Kobieta,2022-06-04_08h11.36.112,task,2021.1.4,Win32,59.99520038,628b806c463b948bc644b84f,629af780849631c55696ea7e,,,,,,,,,,X V Q F H G B L J M P D K C T S W R N Z,,,,,,,,,,,,,,,,,,,,,,,,,,,,,,,,,,,,,,,,,,,,,,,,,,,,,,,,,,,,,,,,,,,,,,,,,,,,1,0,1,0,1,,,,,,,,,,,,,
,,,,,,,,,,5bc9abc0777400000169f73e,29,Kobieta,2022-06-04_08h11.36.112,task,2021.1.4,Win32,59.99520038,628b806c463b948bc644b84f,629af780849631c55696ea7e,,,,,,,,,,,,,,,,,,,,,,,1,,,,,,,,,,Task,16,(3x8) - 15,9,,,,,,,,,,,,,,,,,,,0,,,,,,,,,,,,,,,,,,,,,,,"[""1""]",0,0,0,0,15,1,[2.1461999999880845],,,,,,,,,,,,,,,,,,
,,,,,,,,,,5bc9abc0777400000169f73e,29,Kobieta,2022-06-04_08h11.36.112,task,2021.1.4,Win32,59.99520038,628b806c463b948bc644b84f,629af780849631c55696ea7e,,,,,,,,,,,,,,,,,,,,,,,5,,,,,,,,,,Task,36,(8/4) + 3,5,,,,,,,,,,,,,,,,,,,1,,,,,,,,,,,,,,,,,,,,,,,"[""5""]",1,0,1,1,35,1,[1.8918000000119264],,,,,,,,,,,,,,,,,,
,,,,,,,,,,5bc9abc0777400000169f73e,29,Kobieta,2022-06-04_08h11.36.112,task,2021.1.4,Win32,59.99520038,628b806c463b948bc644b84f,629af780849631c55696ea7e,,,,,,,,,,X V Q F H G B L J M P D K C T S W R N Z,,,,,,,,,,,,,,,,,,,,,,,,,,,,,,,,,,,,,,,,,,,,,,,,,,,,,,,,,,,,,,,,,,,,,,,,,,,,2,0,2,0,1,,,,,,,,,,,,,
,,,,,,,,,,5bc9abc0777400000169f73e,29,Kobieta,2022-06-04_08h11.36.112,task,2021.1.4,Win32,59.99520038,628b806c463b948bc644b84f,629af780849631c55696ea7e,,,,,,,,,,,,,,,,,,,,,,,,,,,,,,,,,,,,,,,,,,,,,,,,,,,,,,,,,,,,,,,,,,,,,,,,,,,,,,,,,,,,,,,,,,,wfs,"[""w"",""f"",""s""]",0,"[1.3029000000060478,1.6859000000059723,2.1909000000059677,4.274099999994064]",1,WFS,1,0,1,0,1,,
,,,,,,,,,,5bc9abc0777400000169f73e,29,Kobieta,2022-06-04_08h11.36.112,task,2021.1.4,Win32,59.99520038,628b806c463b948bc644b84f,629af780849631c55696ea7e,,,,,,,,,,,,,,,,,,,,,,,1,,,,,,,,,,Task,34,(9/3) - 2,1,,,,,,,,,,,,,,,,,,,1,,,,,,,,,,,,,,,,,,,,,,,"[""1""]",1,0,0,0,33,1,[1.4324000000059414],,,,,,,,,,,,,,,,,,
,,,,,,,,,,5bc9abc0777400000169f73e,29,Kobieta,2022-06-04_08h11.36.112,task,2021.1.4,Win32,59.99520038,628b806c463b948bc644b84f,629af780849631c55696ea7e,,,,,,,,,,X V Q F H G B L J M P D K C T S W R N Z,,,,,,,,,,,,,,,,,,,,,,,,,,,,,,,,,,,,,,,,,,,,,,,,,,,,,,,,,,,,,,,,,,,,,,,,,,,,0,0,0,0,1,,,,,,,,,,,,,
,,,,,,,,,,5bc9abc0777400000169f73e,29,Kobieta,2022-06-04_08h11.36.112,task,2021.1.4,Win32,59.99520038,628b806c463b948bc644b84f,629af780849631c55696ea7e,,,,,,,,,,,,,,,,,,,,,,,5,,,,,,,,,,Task,22,(3x1) + 2,5,,,,,,,,,,,,,,,,,,,1,,,,,,,,,,,,,,,,,,,,,,,"[""5""]",1,0,0,0,21,1,[1.4654999999999063],,,,,,,,,,,,,,,,,,
,,,,,,,,,,5bc9abc0777400000169f73e,29,Kobieta,2022-06-04_08h11.36.112,task,2021.1.4,Win32,59.99520038,628b806c463b948bc644b84f,629af780849631c55696ea7e,,,,,,,,,,X V Q F H G B L J M P D K C T S W R N Z,,,,,,,,,,,,,,,,,,,,,,,,,,,,,,,,,,,,,,,,,,,,,,,,,,,,,,,,,,,,,,,,,,,,,,,,,,,,1,0,1,0,1,,,,,,,,,,,,,
,,,,,,,,,,5bc9abc0777400000169f73e,29,Kobieta,2022-06-04_08h11.36.112,task,2021.1.4,Win32,59.99520038,628b806c463b948bc644b84f,629af780849631c55696ea7e,,,,,,,,,,,,,,,,,,,,,,,,,,,,,,,,,Task,25,(10/5) - 2,0,,,,,,,,,,,,,,,,,,,0,,,,,,,,,,,,,,,,,,,,,,,,0,0,0,0,24,1,,,,,,,,,,,,,,,,,,,
,,,,,,,,,,5bc9abc0777400000169f73e,29,Kobieta,2022-06-04_08h11.36.112,task,2021.1.4,Win32,59.99520038,628b806c463b948bc644b84f,629af780849631c55696ea7e,,,,,,,,,,,,,,,,,,,,,,,3,,,,,,,,,,Task,3,(2x3) - 3,3,,,,,,,,,,,,,,,,,,,1,,,,,,,,,,,,,,,,,,,,,,,"[""3""]",1,0,1,1,2,1,[1.6871000000237473],,,,,,,,,,,,,,,,,,
,,,,,,,,,,5bc9abc0777400000169f73e,29,Kobieta,2022-06-04_08h11.36.112,task,2021.1.4,Win32,59.99520038,628b806c463b948bc644b84f,629af780849631c55696ea7e,,,,,,,,,,X V Q F H G B L J M P D K C T S W R N Z,,,,,,,,,,,,,,,,,,,,,,,,,,,,,,,,,,,,,,,,,,,,,,,,,,,,,,,,,,,,,,,,,,,,,,,,,,,,2,0,2,0,1,,,,,,,,,,,,,
,,,,,,,,,,5bc9abc0777400000169f73e,29,Kobieta,2022-06-04_08h11.36.112,task,2021.1.4,Win32,59.99520038,628b806c463b948bc644b84f,629af780849631c55696ea7e,,,,,,,,,,,,,,,,,,,,,,,5,,,,,,,,,,Task,36,(8/4) + 3,5,,,,,,,,,,,,,,,,,,,1,,,,,,,,,,,,,,,,,,,,,,,"[""5""]",1,0,0,0,35,1,[1.875],,,,,,,,,,,,,,,,,,
,,,,,,,,,,5bc9abc0777400000169f73e,29,Kobieta,2022-06-04_08h11.36.112,task,2021.1.4,Win32,59.99520038,628b806c463b948bc644b84f,629af780849631c55696ea7e,,,,,,,,,,X V Q F H G B L J M P D K C T S W R N Z,,,,,,,,,,,,,,,,,,,,,,,,,,,,,,,,,,,,,,,,,,,,,,,,,,,,,,,,,,,,,,,,,,,,,,,,,,,,3,0,3,0,1,,,,,,,,,,,,,
,,,,,,,,,,5bc9abc0777400000169f73e,29,Kobieta,2022-06-04_08h11.36.112,task,2021.1.4,Win32,59.99520038,628b806c463b948bc644b84f,629af780849631c55696ea7e,,,,,,,,,,,,,,,,,,,,,,,,,,,,,,,,,,,,,,,,,,,,,,,,,,,,,,,,,,,,,,,,,,,,,,,,,,,,,,,,,,,,,,,,,,,mhqv,"[""m"",""h"",""q"",""v""]",0,"[1.335200000017835,1.8183000000119591,2.3119000000059486,3.1094000000059623,4.276300000011929]",1,MHQV,2,0,2,0,1,,
,,,,,,,,,,5bc9abc0777400000169f73e,29,Kobieta,2022-06-04_08h11.36.112,task,2021.1.4,Win32,59.99520038,628b806c463b948bc644b84f,629af780849631c55696ea7e,,,,,,,,,,,,,,,,,,,,,,,0,,,,,,,,,,Task,8,(1x5) - 5,0,,,,,,,,,,,,,,,,,,,1,,,,,,,,,,,,,,,,,,,,,,,"[""0""]",1,0,0,0,7,1,[1.3813000000119473],,,,,,,,,,,,,,,,,,
,,,,,,,,,,5bc9abc0777400000169f73e,29,Kobieta,2022-06-04_08h11.36.112,task,2021.1.4,Win32,59.99520038,628b806c463b948bc644b84f,629af780849631c55696ea7e,,,,,,,,,,X V Q F H G B L J M P D K C T S W R N Z,,,,,,,,,,,,,,,,,,,,,,,,,,,,,,,,,,,,,,,,,,,,,,,,,,,,,,,,,,,,,,,,,,,,,,,,,,,,0,0,0,0,1,,,,,,,,,,,,,
,,,,,,,,,,5bc9abc0777400000169f73e,29,Kobieta,2022-06-04_08h11.36.112,task,2021.1.4,Win32,59.99520038,628b806c463b948bc644b84f,629af780849631c55696ea7e,,,,,,,,,,,,,,,,,,,,,,,2,,,,,,,,,,Task,10,(2x5) - 8,2,,,,,,,,,,,,,,,,,,,1,,,,,,,,,,,,,,,,,,,,,,,"[""2""]",1,0,0,0,9,1,[1.06899999999996],,,,,,,,,,,,,,,,,,
,,,,,,,,,,5bc9abc0777400000169f73e,29,Kobieta,2022-06-04_08h11.36.112,task,2021.1.4,Win32,59.99520038,628b806c463b948bc644b84f,629af780849631c55696ea7e,,,,,,,,,,X V Q F H G B L J M P D K C T S W R N Z,,,,,,,,,,,,,,,,,,,,,,,,,,,,,,,,,,,,,,,,,,,,,,,,,,,,,,,,,,,,,,,,,,,,,,,,,,,,1,0,1,0,1,,,,,,,,,,,,,
,,,,,,,,,,5bc9abc0777400000169f73e,29,Kobieta,2022-06-04_08h11.36.112,task,2021.1.4,Win32,59.99520038,628b806c463b948bc644b84f,629af780849631c55696ea7e,,,,,,,,,,,,,,,,,,,,,,,7,,,,,,,,,,Task,25,(10/5) - 2,0,,,,,,,,,,,,,,,,,,,0,,,,,,,,,,,,,,,,,,,,,,,"[""7""]",0,0,0,0,24,1,[2.1380000000000337],,,,,,,,,,,,,,,,,,
,,,,,,,,,,5bc9abc0777400000169f73e,29,Kobieta,2022-06-04_08h11.36.112,task,2021.1.4,Win32,59.99520038,628b806c463b948bc644b84f,629af780849631c55696ea7e,,,,,,,,,,,,,,,,,,,,,,,1,,,,,,,,,,Task,18,(16/4) - 3,1,,,,,,,,,,,,,,,,,,,1,,,,,,,,,,,,,,,,,,,,,,,"[""1""]",1,0,1,1,17,1,[2.0198000000118554],,,,,,,,,,,,,,,,,,
,,,,,,,,,,5bc9abc0777400000169f73e,29,Kobieta,2022-06-04_08h11.36.112,task,2021.1.4,Win32,59.99520038,628b806c463b948bc644b84f,629af780849631c55696ea7e,,,,,,,,,,X V Q F H G B L J M P D K C T S W R N Z,,,,,,,,,,,,,,,,,,,,,,,,,,,,,,,,,,,,,,,,,,,,,,,,,,,,,,,,,,,,,,,,,,,,,,,,,,,,2,0,2,0,1,,,,,,,,,,,,,
,,,,,,,,,,5bc9abc0777400000169f73e,29,Kobieta,2022-06-04_08h11.36.112,task,2021.1.4,Win32,59.99520038,628b806c463b948bc644b84f,629af780849631c55696ea7e,,,,,,,,,,,,,,,,,,,,,,,4,,,,,,,,,,Task,21,(10/2) - 1,4,,,,,,,,,,,,,,,,,,,1,,,,,,,,,,,,,,,,,,,,,,,"[""4""]",1,0,0,0,20,1,[1.2644999999999982],,,,,,,,,,,,,,,,,,
,,,,,,,,,,5bc9abc0777400000169f73e,29,Kobieta,2022-06-04_08h11.36.112,task,2021.1.4,Win32,59.99520038,628b806c463b948bc644b84f,629af780849631c55696ea7e,,,,,,,,,,X V Q F H G B L J M P D K C T S W R N Z,,,,,,,,,,,,,,,,,,,,,,,,,,,,,,,,,,,,,,,,,,,,,,,,,,,,,,,,,,,,,,,,,,,,,,,,,,,,3,0,3,0,1,,,,,,,,,,,,,
,,,,,,,,,,5bc9abc0777400000169f73e,29,Kobieta,2022-06-04_08h11.36.112,task,2021.1.4,Win32,59.99520038,628b806c463b948bc644b84f,629af780849631c55696ea7e,,,,,,,,,,,,,,,,,,,,,,,7,,,,,,,,,,Task,6,(12/2) + 1,7,,,,,,,,,,,,,,,,,,,1,,,,,,,,,,,,,,,,,,,,,,,"[""7""]",1,0,0,0,5,1,[1.5335999999939531],,,,,,,,,,,,,,,,,,
,,,,,,,,,,5bc9abc0777400000169f73e,29,Kobieta,2022-06-04_08h11.36.112,task,2021.1.4,Win32,59.99520038,628b806c463b948bc644b84f,629af780849631c55696ea7e,,,,,,,,,,X V Q F H G B L J M P D K C T S W R N Z,,,,,,,,,,,,,,,,,,,,,,,,,,,,,,,,,,,,,,,,,,,,,,,,,,,,,,,,,,,,,,,,,,,,,,,,,,,,4,0,4,0,1,,,,,,,,,,,,,
,,,,,,,,,,5bc9abc0777400000169f73e,29,Kobieta,2022-06-04_08h11.36.112,task,2021.1.4,Win32,59.99520038,628b806c463b948bc644b84f,629af780849631c55696ea7e,,,,,,,,,,,,,,,,,,,,,,,,,,,,,,,,,,,,,,,,,,,,,,,,,,,,,,,,,,,,,,,,,,,,,,,,,,,,,,,,,,,,,,,,,,,bppjv,"[""b"",""p"",""p"",""j"",""v""]",0,"[1.384700000017915,2.0016000000239274,2.380700000017896,3.0166000000239137,3.5677000000179078,4.218000000000075]",1,BPPJV,3,0,3,0,1,,
,,,,,,,,,,5bc9abc0777400000169f73e,29,Kobieta,2022-06-04_08h11.36.112,task,2021.1.4,Win32,59.99520038,628b806c463b948bc644b84f,629af780849631c55696ea7e,,,,,,,,,,,,,,,,,,,,,,,,,,,,,,,,,Task,9,(3x7) - 20,1,,,,,,,,,,,,,,,,,,,0,,,,,,,,,,,,,,,,,,,,,,,,0,0,0,0,8,1,,,,,,,,,,,,,,,,,,,
,,,,,,,,,,5bc9abc0777400000169f73e,29,Kobieta,2022-06-04_08h11.36.112,task,2021.1.4,Win32,59.99520038,628b806c463b948bc644b84f,629af780849631c55696ea7e,,,,,,,,,,,,,,,,,,,,,,,,,,,,,,,,,Task,12,(4x4) - 11,5,,,,,,,,,,,,,,,,,,,0,,,,,,,,,,,,,,,,,,,,,,,,0,0,1,1,11,1,,,,,,,,,,,,,,,,,,,
,,,,,,,,,,5bc9abc0777400000169f73e,29,Kobieta,2022-06-04_08h11.36.112,task,2021.1.4,Win32,59.99520038,628b806c463b948bc644b84f,629af780849631c55696ea7e,,,,,,,,,,,,,,,,,,,,,,,7,,,,,,,,,,Task,31,(4/2) + 5,7,,,,,,,,,,,,,,,,,,,1,,,,,,,,,,,,,,,,,,,,,,,"[""7""]",1,0,2,2,30,1,[1.634999999999991],,,,,,,,,,,,,,,,,,
,,,,,,,,,,5bc9abc0777400000169f73e,29,Kobieta,2022-06-04_08h11.36.112,task,2021.1.4,Win32,59.99520038,628b806c463b948bc644b84f,629af780849631c55696ea7e,,,,,,,,,,X V Q F H G B L J M P D K C T S W R N Z,,,,,,,,,,,,,,,,,,,,,,,,,,,,,,,,,,,,,,,,,,,,,,,,,,,,,,,,,,,,,,,,,,,,,,,,,,,,0,0,0,0,1,,,,,,,,,,,,,
,,,,,,,,,,5bc9abc0777400000169f73e,29,Kobieta,2022-06-04_08h11.36.112,task,2021.1.4,Win32,59.99520038,628b806c463b948bc644b84f,629af780849631c55696ea7e,,,,,,,,,,,,,,,,,,,,,,,4,,,,,,,,,,Task,28,(2x5) - 6,4,,,,,,,,,,,,,,,,,,,1,,,,,,,,,,,,,,,,,,,,,,,"[""4""]",1,0,0,0,27,1,[1.5867999999820768],,,,,,,,,,,,,,,,,,
,,,,,,,,,,5bc9abc0777400000169f73e,29,Kobieta,2022-06-04_08h11.36.112,task,2021.1.4,Win32,59.99520038,628b806c463b948bc644b84f,629af780849631c55696ea7e,,,,,,,,,,X V Q F H G B L J M P D K C T S W R N Z,,,,,,,,,,,,,,,,,,,,,,,,,,,,,,,,,,,,,,,,,,,,,,,,,,,,,,,,,,,,,,,,,,,,,,,,,,,,1,0,1,0,1,,,,,,,,,,,,,
,,,,,,,,,,5bc9abc0777400000169f73e,29,Kobieta,2022-06-04_08h11.36.112,task,2021.1.4,Win32,59.99520038,628b806c463b948bc644b84f,629af780849631c55696ea7e,,,,,,,,,,,,,,,,,,,,,,,0,,,,,,,,,,Task,33,(1/1) - 1,0,,,,,,,,,,,,,,,,,,,1,,,,,,,,,,,,,,,,,,,,,,,"[""0""]",1,0,0,0,32,1,[1.1622000000179469],,,,,,,,,,,,,,,,,,
,,,,,,,,,,5bc9abc0777400000169f73e,29,Kobieta,2022-06-04_08h11.36.112,task,2021.1.4,Win32,59.99520038,628b806c463b948bc644b84f,629af780849631c55696ea7e,,,,,,,,,,X V Q F H G B L J M P D K C T S W R N Z,,,,,,,,,,,,,,,,,,,,,,,,,,,,,,,,,,,,,,,,,,,,,,,,,,,,,,,,,,,,,,,,,,,,,,,,,,,,2,0,2,0,1,,,,,,,,,,,,,
,,,,,,,,,,5bc9abc0777400000169f73e,29,Kobieta,2022-06-04_08h11.36.112,task,2021.1.4,Win32,59.99520038,628b806c463b948bc644b84f,629af780849631c55696ea7e,,,,,,,,,,,,,,,,,,,,,,,7,,,,,,,,,,Task,31,(4/2) + 5,7,,,,,,,,,,,,,,,,,,,1,,,,,,,,,,,,,,,,,,,,,,,"[""7""]",1,0,0,0,30,1,[2.101300000011861],,,,,,,,,,,,,,,,,,
,,,,,,,,,,5bc9abc0777400000169f73e,29,Kobieta,2022-06-04_08h11.36.112,task,2021.1.4,Win32,59.99520038,628b806c463b948bc644b84f,629af780849631c55696ea7e,,,,,,,,,,X V Q F H G B L J M P D K C T S W R N Z,,,,,,,,,,,,,,,,,,,,,,,,,,,,,,,,,,,,,,,,,,,,,,,,,,,,,,,,,,,,,,,,,,,,,,,,,,,,3,0,3,0,1,,,,,,,,,,,,,
,,,,,,,,,,5bc9abc0777400000169f73e,29,Kobieta,2022-06-04_08h11.36.112,task,2021.1.4,Win32,59.99520038,628b806c463b948bc644b84f,629af780849631c55696ea7e,,,,,,,,,,,,,,,,,,,,,,,3,,,,,,,,,,Task,19,(6/2) - 1,2,,,,,,,,,,,,,,,,,,,0,,,,,,,,,,,,,,,,,,,,,,,"[""3""]",0,0,0,0,18,1,[1.5707999999822277],,,,,,,,,,,,,,,,,,
,,,,,,,,,,5bc9abc0777400000169f73e,29,Kobieta,2022-06-04_08h11.36.112,task,2021.1.4,Win32,59.99520038,628b806c463b948bc644b84f,629af780849631c55696ea7e,,,,,,,,,,,,,,,,,,,,,,,1,,,,,,,,,,Task,9,(3x7) - 20,1,,,,,,,,,,,,,,,,,,,1,,,,,,,,,,,,,,,,,,,,,,,"[""1""]",1,0,1,1,8,1,[1.2980000000000018],,,,,,,,,,,,,,,,,,
,,,,,,,,,,5bc9abc0777400000169f73e,29,Kobieta,2022-06-04_08h11.36.112,task,2021.1.4,Win32,59.99520038,628b806c463b948bc644b84f,629af780849631c55696ea7e,,,,,,,,,,X V Q F H G B L J M P D K C T S W R N Z,,,,,,,,,,,,,,,,,,,,,,,,,,,,,,,,,,,,,,,,,,,,,,,,,,,,,,,,,,,,,,,,,,,,,,,,,,,,4,0,4,0,1,,,,,,,,,,,,,
,,,,,,,,,,5bc9abc0777400000169f73e,29,Kobieta,2022-06-04_08h11.36.112,task,2021.1.4,Win32,59.99520038,628b806c463b948bc644b84f,629af780849631c55696ea7e,,,,,,,,,,,,,,,,,,,,,,,7,,,,,,,,,,Task,31,(4/2) + 5,7,,,,,,,,,,,,,,,,,,,1,,,,,,,,,,,,,,,,,,,,,,,"[""7""]",1,0,0,0,30,1,[1.8914000000058877],,,,,,,,,,,,,,,,,,
,,,,,,,,,,5bc9abc0777400000169f73e,29,Kobieta,2022-06-04_08h11.36.112,task,2021.1.4,Win32,59.99520038,628b806c463b948bc644b84f,629af780849631c55696ea7e,,,,,,,,,,X V Q F H G B L J M P D K C T S W R N Z,,,,,,,,,,,,,,,,,,,,,,,,,,,,,,,,,,,,,,,,,,,,,,,,,,,,,,,,,,,,,,,,,,,,,,,,,,,,5,0,5,0,1,,,,,,,,,,,,,
,,,,,,,,,,5bc9abc0777400000169f73e,29,Kobieta,2022-06-04_08h11.36.112,task,2021.1.4,Win32,59.99520038,628b806c463b948bc644b84f,629af780849631c55696ea7e,,,,,,,,,,,,,,,,,,,,,,,,,,,,,,,,,,,,,,,,,,,,,,,,,,,,,,,,,,,,,,,,,,,,,,,,,,,,,,,,,,,,,,,,,,,cqbknz,"[""c"",""q"",""b"",""k"",""n"",""z""]",0,"[1.91780000001188,2.9199000000060096,3.4363000000118973,3.952800000011962,5.374000000000024,5.918999999999983,6.456300000011879]",0,CQBKZN,4,0,4,0,1,,
,,,,,,,,,,5bc9abc0777400000169f73e,29,Kobieta,2022-06-04_08h11.36.112,task,2021.1.4,Win32,59.99520038,628b806c463b948bc644b84f,629af780849631c55696ea7e,,,,,,,,,,,,,,,,,,,,,,,8,,,,,,,,,,Task,15,(3x7) - 13,8,,,,,,,,,,,,,,,,,,,1,,,,,,,,,,,,,,,,,,,,,,,"[""8""]",1,0,0,0,14,1,[1.8672000000178741],,,,,,,,,,,,,,,,,,
,,,,,,,,,,5bc9abc0777400000169f73e,29,Kobieta,2022-06-04_08h11.36.112,task,2021.1.4,Win32,59.99520038,628b806c463b948bc644b84f,629af780849631c55696ea7e,,,,,,,,,,X V Q F H G B L J M P D K C T S W R N Z,,,,,,,,,,,,,,,,,,,,,,,,,,,,,,,,,,,,,,,,,,,,,,,,,,,,,,,,,,,,,,,,,,,,,,,,,,,,0,0,0,0,1,,,,,,,,,,,,,
,,,,,,,,,,5bc9abc0777400000169f73e,29,Kobieta,2022-06-04_08h11.36.112,task,2021.1.4,Win32,59.99520038,628b806c463b948bc644b84f,629af780849631c55696ea7e,,,,,,,,,,,,,,,,,,,,,,,0,,,,,,,,,,Task,17,(2x3) - 6,0,,,,,,,,,,,,,,,,,,,1,,,,,,,,,,,,,,,,,,,,,,,"[""0""]",1,0,0,0,16,1,[1.2671999999880654],,,,,,,,,,,,,,,,,,
,,,,,,,,,,5bc9abc0777400000169f73e,29,Kobieta,2022-06-04_08h11.36.112,task,2021.1.4,Win32,59.99520038,628b806c463b948bc644b84f,629af780849631c55696ea7e,,,,,,,,,,X V Q F H G B L J M P D K C T S W R N Z,,,,,,,,,,,,,,,,,,,,,,,,,,,,,,,,,,,,,,,,,,,,,,,,,,,,,,,,,,,,,,,,,,,,,,,,,,,,1,0,1,0,1,,,,,,,,,,,,,
,,,,,,,,,,5bc9abc0777400000169f73e,29,Kobieta,2022-06-04_08h11.36.112,task,2021.1.4,Win32,59.99520038,628b806c463b948bc644b84f,629af780849631c55696ea7e,,,,,,,,,,,,,,,,,,,,,,,4,,,,,,,,,,Task,21,(10/2) - 1,4,,,,,,,,,,,,,,,,,,,1,,,,,,,,,,,,,,,,,,,,,,,"[""4""]",1,0,0,0,20,1,[1.2302999999822077],,,,,,,,,,,,,,,,,,
,,,,,,,,,,5bc9abc0777400000169f73e,29,Kobieta,2022-06-04_08h11.36.112,task,2021.1.4,Win32,59.99520038,628b806c463b948bc644b84f,629af780849631c55696ea7e,,,,,,,,,,X V Q F H G B L J M P D K C T S W R N Z,,,,,,,,,,,,,,,,,,,,,,,,,,,,,,,,,,,,,,,,,,,,,,,,,,,,,,,,,,,,,,,,,,,,,,,,,,,,2,0,2,0,1,,,,,,,,,,,,,
,,,,,,,,,,5bc9abc0777400000169f73e,29,Kobieta,2022-06-04_08h11.36.112,task,2021.1.4,Win32,59.99520038,628b806c463b948bc644b84f,629af780849631c55696ea7e,,,,,,,,,,,,,,,,,,,,,,,1,,,,,,,,,,Task,18,(16/4) - 3,1,,,,,,,,,,,,,,,,,,,1,,,,,,,,,,,,,,,,,,,,,,,"[""1""]",1,0,0,0,17,1,[1.586900000005926],,,,,,,,,,,,,,,,,,
,,,,,,,,,,5bc9abc0777400000169f73e,29,Kobieta,2022-06-04_08h11.36.112,task,2021.1.4,Win32,59.99520038,628b806c463b948bc644b84f,629af780849631c55696ea7e,,,,,,,,,,X V Q F H G B L J M P D K C T S W R N Z,,,,,,,,,,,,,,,,,,,,,,,,,,,,,,,,,,,,,,,,,,,,,,,,,,,,,,,,,,,,,,,,,,,,,,,,,,,,3,0,3,0,1,,,,,,,,,,,,,
,,,,,,,,,,5bc9abc0777400000169f73e,29,Kobieta,2022-06-04_08h11.36.112,task,2021.1.4,Win32,59.99520038,628b806c463b948bc644b84f,629af780849631c55696ea7e,,,,,,,,,,,,,,,,,,,,,,,1,,,,,,,,,,Task,18,(16/4) - 3,1,,,,,,,,,,,,,,,,,,,1,,,,,,,,,,,,,,,,,,,,,,,"[""1""]",1,0,0,0,17,1,[1.817800000011971],,,,,,,,,,,,,,,,,,
,,,,,,,,,,5bc9abc0777400000169f73e,29,Kobieta,2022-06-04_08h11.36.112,task,2021.1.4,Win32,59.99520038,628b806c463b948bc644b84f,629af780849631c55696ea7e,,,,,,,,,,X V Q F H G B L J M P D K C T S W R N Z,,,,,,,,,,,,,,,,,,,,,,,,,,,,,,,,,,,,,,,,,,,,,,,,,,,,,,,,,,,,,,,,,,,,,,,,,,,,4,0,4,0,1,,,,,,,,,,,,,
,,,,,,,,,,5bc9abc0777400000169f73e,29,Kobieta,2022-06-04_08h11.36.112,task,2021.1.4,Win32,59.99520038,628b806c463b948bc644b84f,629af780849631c55696ea7e,,,,,,,,,,,,,,,,,,,,,,,7,,,,,,,,,,Task,30,(6/3) + 4 ,6,,,,,,,,,,,,,,,,,,,0,,,,,,,,,,,,,,,,,,,,,,,"[""7""]",0,0,0,0,29,1,[1.8972000000178468],,,,,,,,,,,,,,,,,,
,,,,,,,,,,5bc9abc0777400000169f73e,29,Kobieta,2022-06-04_08h11.36.112,task,2021.1.4,Win32,59.99520038,628b806c463b948bc644b84f,629af780849631c55696ea7e,,,,,,,,,,,,,,,,,,,,,,,0,,,,,,,,,,Task,33,(1/1) - 1,0,,,,,,,,,,,,,,,,,,,1,,,,,,,,,,,,,,,,,,,,,,,"[""0""]",1,0,1,1,32,1,[1.0652000000178532],,,,,,,,,,,,,,,,,,
,,,,,,,,,,5bc9abc0777400000169f73e,29,Kobieta,2022-06-04_08h11.36.112,task,2021.1.4,Win32,59.99520038,628b806c463b948bc644b84f,629af780849631c55696ea7e,,,,,,,,,,X V Q F H G B L J M P D K C T S W R N Z,,,,,,,,,,,,,,,,,,,,,,,,,,,,,,,,,,,,,,,,,,,,,,,,,,,,,,,,,,,,,,,,,,,,,,,,,,,,5,0,5,0,1,,,,,,,,,,,,,
,,,,,,,,,,5bc9abc0777400000169f73e,29,Kobieta,2022-06-04_08h11.36.112,task,2021.1.4,Win32,59.99520038,628b806c463b948bc644b84f,629af780849631c55696ea7e,,,,,,,,,,,,,,,,,,,,,,,,,,,,,,,,,,,,,,,,,,,,,,,,,,,,,,,,,,,,,,,,,,,,,,,,,,,,,,,,,,,,,,,,,,,fnmfgg,"[""f"",""n"",""m"",""f"",""g"",""g""]",0,"[1.5014000000059013,1.933999999999969,2.4508000000118955,4.617200000017874,5.293600000023844,5.425600000023792,5.885700000017891]",0,FNMGZG,5,0,5,0,1,,
,,,,,,,,,,5bc9abc0777400000169f73e,29,Kobieta,2022-06-04_08h11.36.112,task,2021.1.4,Win32,59.99520038,628b806c463b948bc644b84f,629af780849631c55696ea7e,,,,,,,,,,,,,,,,,,,,,,,,,,,,,,,,,,,,,,,,,,,,,,,,,,,,,,,,,,,,,,,,,,,,,,,,,,,,,,,,,,,,,,,,,,,,,,,,,,,,,,space,2.1374
