key_resp_15.keys,key_resp_15.rt,key_resp_13.keys,key_resp_13.corr,ranodm_loop.thisRepN,ranodm_loop.thisTrialN,ranodm_loop.thisN,ranodm_loop.thisIndex,ranodm_loop.ran,participant,Wiek*,Płeć,date,expName,psychopyVersion,OS,frameRate,study_id,session,key_resp_13.rt,key_resp_16.keys,key_resp_16.rt,key_resp_4.keys,key_resp_4.rt,next_letter.thisRepN,next_letter.thisTrialN,next_letter.thisN,next_letter.thisIndex,next_letter.ran,letter,simple_recall,key_resp_5.keys,key_resp_5.rt,simple_recall_corr,simple_recall_corrkeys,next_level.thisRepN,next_level.thisTrialN,next_level.thisN,next_level.thisIndex,next_level.ran,key_resp_2.keys,key_resp_2.rt,digit_answer,key_resp.keys,key_resp.corr,key_resp.rt,RT_list,next_equation.thisRepN,next_equation.thisTrialN,next_equation.thisN,next_equation.thisIndex,next_equation.ran,Task,Trial,Problem,Operation_answer,processing_score,sumRT,meanRT,sumdiff,sd,RT,key_resp_3.keys,key_resp_3.rt,repeat_practice.thisRepN,repeat_practice.thisTrialN,repeat_practice.thisN,repeat_practice.thisIndex,repeat_practice.ran,key_resp_6.keys,key_resp_6.rt,key_resp_11.keys,key_resp_11.corr,key_resp_11.rt,operation_correct,repeat_if_wrong_prac.thisRepN,repeat_if_wrong_prac.thisTrialN,repeat_if_wrong_prac.thisN,repeat_if_wrong_prac.thisIndex,repeat_if_wrong_prac.ran,span_size_prac.thisRepN,span_size_prac.thisTrialN,span_size_prac.thisN,span_size_prac.thisIndex,span_size_prac.ran,complex_recall_practice,key_resp_9.keys,key_resp_9.corr,key_resp_9.rt,complex_prac_corr,span_recall_prac.thisRepN,span_recall_prac.thisTrialN,span_recall_prac.thisN,span_recall_prac.thisIndex,span_recall_prac.ran,key_resp_10.keys,key_resp_10.rt,key_resp_7.keys,key_resp_7.corr,key_resp_7.rt,repeat_if_wrong.thisRepN,repeat_if_wrong.thisTrialN,repeat_if_wrong.thisN,repeat_if_wrong.thisIndex,repeat_if_wrong.ran,span_size.thisRepN,span_size.thisTrialN,span_size.thisN,span_size.thisIndex,span_size.ran,complex_recall,key_resp_8.keys,key_resp_8.corr,key_resp_8.rt,complex_recall_corr,complex_recall_corrkeys,span_recall.thisRepN,span_recall.thisTrialN,span_recall.thisN,span_recall.thisIndex,span_recall.ran,key_resp_12.keys,key_resp_12.rt
space,14.441,,0,0,0,0,0,1,5bcd6ea508a62c0001f8c85a,36,Mężczyzna,2022-06-04_08h37.05.303,task,2021.1.4,Win32,60.0240096,628b806c463b948bc644b84f,629afd6c5151092c66abf28c,,,,,,,,,,,,,,,,,,,,,,,,,,,,,,,,,,,,,,,,,,,,,,,,,,,,,,,,,,,,,,,,,,,,,,,,,,,,,,,,,,,,,,,,,,,,,,,,,,,,,,,,
,,"[""comma""]",0,1,0,1,0,1,5bcd6ea508a62c0001f8c85a,36,Mężczyzna,2022-06-04_08h37.05.303,task,2021.1.4,Win32,60.0240096,628b806c463b948bc644b84f,629afd6c5151092c66abf28c,[0.8799999999999955],,,,,,,,,,,,,,,,,,,,,,,,,,,,,,,,,,,,,,,,,,,,,,,,,,,,,,,,,,,,,,,,,,,,,,,,,,,,,,,,,,,,,,,,,,,,,,,,,,,,,,,
,,"[""period""]",0,2,0,2,0,1,5bcd6ea508a62c0001f8c85a,36,Mężczyzna,2022-06-04_08h37.05.303,task,2021.1.4,Win32,60.0240096,628b806c463b948bc644b84f,629afd6c5151092c66abf28c,[0.5190000000000055],,,,,,,,,,,,,,,,,,,,,,,,,,,,,,,,,,,,,,,,,,,,,,,,,,,,,,,,,,,,,,,,,,,,,,,,,,,,,,,,,,,,,,,,,,,,,,,,,,,,,,,
,,"[""period""]",0,3,0,3,0,1,5bcd6ea508a62c0001f8c85a,36,Mężczyzna,2022-06-04_08h37.05.303,task,2021.1.4,Win32,60.0240096,628b806c463b948bc644b84f,629afd6c5151092c66abf28c,[0.5829999999999984],,,,,,,,,,,,,,,,,,,,,,,,,,,,,,,,,,,,,,,,,,,,,,,,,,,,,,,,,,,,,,,,,,,,,,,,,,,,,,,,,,,,,,,,,,,,,,,,,,,,,,,
,,"[""comma""]",0,4,0,4,0,1,5bcd6ea508a62c0001f8c85a,36,Mężczyzna,2022-06-04_08h37.05.303,task,2021.1.4,Win32,60.0240096,628b806c463b948bc644b84f,629afd6c5151092c66abf28c,[0.568000000000012],,,,,,,,,,,,,,,,,,,,,,,,,,,,,,,,,,,,,,,,,,,,,,,,,,,,,,,,,,,,,,,,,,,,,,,,,,,,,,,,,,,,,,,,,,,,,,,,,,,,,,,
,,"[""comma""]",0,5,0,5,0,1,5bcd6ea508a62c0001f8c85a,36,Mężczyzna,2022-06-04_08h37.05.303,task,2021.1.4,Win32,60.0240096,628b806c463b948bc644b84f,629afd6c5151092c66abf28c,[0.5690000000000026],,,,,,,,,,,,,,,,,,,,,,,,,,,,,,,,,,,,,,,,,,,,,,,,,,,,,,,,,,,,,,,,,,,,,,,,,,,,,,,,,,,,,,,,,,,,,,,,,,,,,,,
,,"[""comma""]",0,6,0,6,0,1,5bcd6ea508a62c0001f8c85a,36,Mężczyzna,2022-06-04_08h37.05.303,task,2021.1.4,Win32,60.0240096,628b806c463b948bc644b84f,629afd6c5151092c66abf28c,[0.4690000000000083],,,,,,,,,,,,,,,,,,,,,,,,,,,,,,,,,,,,,,,,,,,,,,,,,,,,,,,,,,,,,,,,,,,,,,,,,,,,,,,,,,,,,,,,,,,,,,,,,,,,,,,
,,"[""period""]",0,7,0,7,0,1,5bcd6ea508a62c0001f8c85a,36,Mężczyzna,2022-06-04_08h37.05.303,task,2021.1.4,Win32,60.0240096,628b806c463b948bc644b84f,629afd6c5151092c66abf28c,[0.6020000000000039],,,,,,,,,,,,,,,,,,,,,,,,,,,,,,,,,,,,,,,,,,,,,,,,,,,,,,,,,,,,,,,,,,,,,,,,,,,,,,,,,,,,,,,,,,,,,,,,,,,,,,,
,,"[""comma""]",0,8,0,8,0,1,5bcd6ea508a62c0001f8c85a,36,Mężczyzna,2022-06-04_08h37.05.303,task,2021.1.4,Win32,60.0240096,628b806c463b948bc644b84f,629afd6c5151092c66abf28c,[0.4679999999999893],,,,,,,,,,,,,,,,,,,,,,,,,,,,,,,,,,,,,,,,,,,,,,,,,,,,,,,,,,,,,,,,,,,,,,,,,,,,,,,,,,,,,,,,,,,,,,,,,,,,,,,
,,"[""comma""]",0,9,0,9,0,1,5bcd6ea508a62c0001f8c85a,36,Mężczyzna,2022-06-04_08h37.05.303,task,2021.1.4,Win32,60.0240096,628b806c463b948bc644b84f,629afd6c5151092c66abf28c,[0.30400000000000205],,,,,,,,,,,,,,,,,,,,,,,,,,,,,,,,,,,,,,,,,,,,,,,,,,,,,,,,,,,,,,,,,,,,,,,,,,,,,,,,,,,,,,,,,,,,,,,,,,,,,,,
,,"[""comma""]",0,10,0,10,0,1,5bcd6ea508a62c0001f8c85a,36,Mężczyzna,2022-06-04_08h37.05.303,task,2021.1.4,Win32,60.0240096,628b806c463b948bc644b84f,629afd6c5151092c66abf28c,[0.5349999999999966],,,,,,,,,,,,,,,,,,,,,,,,,,,,,,,,,,,,,,,,,,,,,,,,,,,,,,,,,,,,,,,,,,,,,,,,,,,,,,,,,,,,,,,,,,,,,,,,,,,,,,,
,,"[""comma""]",0,11,0,11,0,1,5bcd6ea508a62c0001f8c85a,36,Mężczyzna,2022-06-04_08h37.05.303,task,2021.1.4,Win32,60.0240096,628b806c463b948bc644b84f,629afd6c5151092c66abf28c,[0.47999999999998977],,,,,,,,,,,,,,,,,,,,,,,,,,,,,,,,,,,,,,,,,,,,,,,,,,,,,,,,,,,,,,,,,,,,,,,,,,,,,,,,,,,,,,,,,,,,,,,,,,,,,,,
,,"[""period""]",0,12,0,12,0,1,5bcd6ea508a62c0001f8c85a,36,Mężczyzna,2022-06-04_08h37.05.303,task,2021.1.4,Win32,60.0240096,628b806c463b948bc644b84f,629afd6c5151092c66abf28c,[0.3030000000000257],,,,,,,,,,,,,,,,,,,,,,,,,,,,,,,,,,,,,,,,,,,,,,,,,,,,,,,,,,,,,,,,,,,,,,,,,,,,,,,,,,,,,,,,,,,,,,,,,,,,,,,
,,"[""comma""]",0,13,0,13,0,1,5bcd6ea508a62c0001f8c85a,36,Mężczyzna,2022-06-04_08h37.05.303,task,2021.1.4,Win32,60.0240096,628b806c463b948bc644b84f,629afd6c5151092c66abf28c,[0.30299999999999727],,,,,,,,,,,,,,,,,,,,,,,,,,,,,,,,,,,,,,,,,,,,,,,,,,,,,,,,,,,,,,,,,,,,,,,,,,,,,,,,,,,,,,,,,,,,,,,,,,,,,,,
,,"[""comma""]",0,14,0,14,0,1,5bcd6ea508a62c0001f8c85a,36,Mężczyzna,2022-06-04_08h37.05.303,task,2021.1.4,Win32,60.0240096,628b806c463b948bc644b84f,629afd6c5151092c66abf28c,[0.3020000000000209],,,,,,,,,,,,,,,,,,,,,,,,,,,,,,,,,,,,,,,,,,,,,,,,,,,,,,,,,,,,,,,,,,,,,,,,,,,,,,,,,,,,,,,,,,,,,,,,,,,,,,,
,,"[""comma"",""comma""]",0,15,0,15,0,1,5bcd6ea508a62c0001f8c85a,36,Mężczyzna,2022-06-04_08h37.05.303,task,2021.1.4,Win32,60.0240096,628b806c463b948bc644b84f,629afd6c5151092c66abf28c,"[0.41800000000000637,1.3220000000000027]",,,,,,,,,,,,,,,,,,,,,,,,,,,,,,,,,,,,,,,,,,,,,,,,,,,,,,,,,,,,,,,,,,,,,,,,,,,,,,,,,,,,,,,,,,,,,,,,,,,,,,,
,,"[""period""]",0,16,0,16,0,1,5bcd6ea508a62c0001f8c85a,36,Mężczyzna,2022-06-04_08h37.05.303,task,2021.1.4,Win32,60.0240096,628b806c463b948bc644b84f,629afd6c5151092c66abf28c,[1.0510000000000161],,,,,,,,,,,,,,,,,,,,,,,,,,,,,,,,,,,,,,,,,,,,,,,,,,,,,,,,,,,,,,,,,,,,,,,,,,,,,,,,,,,,,,,,,,,,,,,,,,,,,,,
,,"[""period""]",0,17,0,17,0,1,5bcd6ea508a62c0001f8c85a,36,Mężczyzna,2022-06-04_08h37.05.303,task,2021.1.4,Win32,60.0240096,628b806c463b948bc644b84f,629afd6c5151092c66abf28c,[1.1870000000000118],,,,,,,,,,,,,,,,,,,,,,,,,,,,,,,,,,,,,,,,,,,,,,,,,,,,,,,,,,,,,,,,,,,,,,,,,,,,,,,,,,,,,,,,,,,,,,,,,,,,,,,
,,"[""comma""]",0,18,0,18,0,1,5bcd6ea508a62c0001f8c85a,36,Mężczyzna,2022-06-04_08h37.05.303,task,2021.1.4,Win32,60.0240096,628b806c463b948bc644b84f,629afd6c5151092c66abf28c,[0.9350000000000023],,,,,,,,,,,,,,,,,,,,,,,,,,,,,,,,,,,,,,,,,,,,,,,,,,,,,,,,,,,,,,,,,,,,,,,,,,,,,,,,,,,,,,,,,,,,,,,,,,,,,,,
,,"[""comma""]",0,19,0,19,0,1,5bcd6ea508a62c0001f8c85a,36,Mężczyzna,2022-06-04_08h37.05.303,task,2021.1.4,Win32,60.0240096,628b806c463b948bc644b84f,629afd6c5151092c66abf28c,[0.3900000000000148],,,,,,,,,,,,,,,,,,,,,,,,,,,,,,,,,,,,,,,,,,,,,,,,,,,,,,,,,,,,,,,,,,,,,,,,,,,,,,,,,,,,,,,,,,,,,,,,,,,,,,,
,,"[""comma""]",0,20,0,20,0,1,5bcd6ea508a62c0001f8c85a,36,Mężczyzna,2022-06-04_08h37.05.303,task,2021.1.4,Win32,60.0240096,628b806c463b948bc644b84f,629afd6c5151092c66abf28c,[0.28600000000000136],,,,,,,,,,,,,,,,,,,,,,,,,,,,,,,,,,,,,,,,,,,,,,,,,,,,,,,,,,,,,,,,,,,,,,,,,,,,,,,,,,,,,,,,,,,,,,,,,,,,,,,
,,"[""comma""]",0,21,0,21,0,1,5bcd6ea508a62c0001f8c85a,36,Mężczyzna,2022-06-04_08h37.05.303,task,2021.1.4,Win32,60.0240096,628b806c463b948bc644b84f,629afd6c5151092c66abf28c,[0.5],,,,,,,,,,,,,,,,,,,,,,,,,,,,,,,,,,,,,,,,,,,,,,,,,,,,,,,,,,,,,,,,,,,,,,,,,,,,,,,,,,,,,,,,,,,,,,,,,,,,,,,
,,"[""period""]",0,22,0,22,0,1,5bcd6ea508a62c0001f8c85a,36,Mężczyzna,2022-06-04_08h37.05.303,task,2021.1.4,Win32,60.0240096,628b806c463b948bc644b84f,629afd6c5151092c66abf28c,[0.28700000000000614],,,,,,,,,,,,,,,,,,,,,,,,,,,,,,,,,,,,,,,,,,,,,,,,,,,,,,,,,,,,,,,,,,,,,,,,,,,,,,,,,,,,,,,,,,,,,,,,,,,,,,,
,,"[""comma""]",0,23,0,23,0,1,5bcd6ea508a62c0001f8c85a,36,Mężczyzna,2022-06-04_08h37.05.303,task,2021.1.4,Win32,60.0240096,628b806c463b948bc644b84f,629afd6c5151092c66abf28c,[0.43600000000000705],,,,,,,,,,,,,,,,,,,,,,,,,,,,,,,,,,,,,,,,,,,,,,,,,,,,,,,,,,,,,,,,,,,,,,,,,,,,,,,,,,,,,,,,,,,,,,,,,,,,,,,
,,"[""period""]",0,24,0,24,0,1,5bcd6ea508a62c0001f8c85a,36,Mężczyzna,2022-06-04_08h37.05.303,task,2021.1.4,Win32,60.0240096,628b806c463b948bc644b84f,629afd6c5151092c66abf28c,[0.4579999999999984],,,,,,,,,,,,,,,,,,,,,,,,,,,,,,,,,,,,,,,,,,,,,,,,,,,,,,,,,,,,,,,,,,,,,,,,,,,,,,,,,,,,,,,,,,,,,,,,,,,,,,,
,,"[""period""]",0,25,0,25,0,1,5bcd6ea508a62c0001f8c85a,36,Mężczyzna,2022-06-04_08h37.05.303,task,2021.1.4,Win32,60.0240096,628b806c463b948bc644b84f,629afd6c5151092c66abf28c,[0.5910000000000082],,,,,,,,,,,,,,,,,,,,,,,,,,,,,,,,,,,,,,,,,,,,,,,,,,,,,,,,,,,,,,,,,,,,,,,,,,,,,,,,,,,,,,,,,,,,,,,,,,,,,,,
,,"[""comma""]",0,26,0,26,0,1,5bcd6ea508a62c0001f8c85a,36,Mężczyzna,2022-06-04_08h37.05.303,task,2021.1.4,Win32,60.0240096,628b806c463b948bc644b84f,629afd6c5151092c66abf28c,[0.3760000000000048],,,,,,,,,,,,,,,,,,,,,,,,,,,,,,,,,,,,,,,,,,,,,,,,,,,,,,,,,,,,,,,,,,,,,,,,,,,,,,,,,,,,,,,,,,,,,,,,,,,,,,,
,,"[""period""]",0,27,0,27,0,1,5bcd6ea508a62c0001f8c85a,36,Mężczyzna,2022-06-04_08h37.05.303,task,2021.1.4,Win32,60.0240096,628b806c463b948bc644b84f,629afd6c5151092c66abf28c,[0.3400000000000034],,,,,,,,,,,,,,,,,,,,,,,,,,,,,,,,,,,,,,,,,,,,,,,,,,,,,,,,,,,,,,,,,,,,,,,,,,,,,,,,,,,,,,,,,,,,,,,,,,,,,,,
,,"[""comma""]",0,28,0,28,0,1,5bcd6ea508a62c0001f8c85a,36,Mężczyzna,2022-06-04_08h37.05.303,task,2021.1.4,Win32,60.0240096,628b806c463b948bc644b84f,629afd6c5151092c66abf28c,[-0.012000000000000455],,,,,,,,,,,,,,,,,,,,,,,,,,,,,,,,,,,,,,,,,,,,,,,,,,,,,,,,,,,,,,,,,,,,,,,,,,,,,,,,,,,,,,,,,,,,,,,,,,,,,,,
,,"[""period""]",0,29,0,29,0,1,5bcd6ea508a62c0001f8c85a,36,Mężczyzna,2022-06-04_08h37.05.303,task,2021.1.4,Win32,60.0240096,628b806c463b948bc644b84f,629afd6c5151092c66abf28c,[0.25],,,,,,,,,,,,,,,,,,,,,,,,,,,,,,,,,,,,,,,,,,,,,,,,,,,,,,,,,,,,,,,,,,,,,,,,,,,,,,,,,,,,,,,,,,,,,,,,,,,,,,,
,,"[""comma""]",0,30,0,30,0,1,5bcd6ea508a62c0001f8c85a,36,Mężczyzna,2022-06-04_08h37.05.303,task,2021.1.4,Win32,60.0240096,628b806c463b948bc644b84f,629afd6c5151092c66abf28c,[0.30100000000001614],,,,,,,,,,,,,,,,,,,,,,,,,,,,,,,,,,,,,,,,,,,,,,,,,,,,,,,,,,,,,,,,,,,,,,,,,,,,,,,,,,,,,,,,,,,,,,,,,,,,,,,
,,"[""period""]",0,31,0,31,0,1,5bcd6ea508a62c0001f8c85a,36,Mężczyzna,2022-06-04_08h37.05.303,task,2021.1.4,Win32,60.0240096,628b806c463b948bc644b84f,629afd6c5151092c66abf28c,[0.26899999999997704],,,,,,,,,,,,,,,,,,,,,,,,,,,,,,,,,,,,,,,,,,,,,,,,,,,,,,,,,,,,,,,,,,,,,,,,,,,,,,,,,,,,,,,,,,,,,,,,,,,,,,,
,,"[""comma""]",0,32,0,32,0,1,5bcd6ea508a62c0001f8c85a,36,Mężczyzna,2022-06-04_08h37.05.303,task,2021.1.4,Win32,60.0240096,628b806c463b948bc644b84f,629afd6c5151092c66abf28c,[0.28600000000000136],,,,,,,,,,,,,,,,,,,,,,,,,,,,,,,,,,,,,,,,,,,,,,,,,,,,,,,,,,,,,,,,,,,,,,,,,,,,,,,,,,,,,,,,,,,,,,,,,,,,,,,
,,"[""comma""]",0,33,0,33,0,1,5bcd6ea508a62c0001f8c85a,36,Mężczyzna,2022-06-04_08h37.05.303,task,2021.1.4,Win32,60.0240096,628b806c463b948bc644b84f,629afd6c5151092c66abf28c,[0.26300000000000523],,,,,,,,,,,,,,,,,,,,,,,,,,,,,,,,,,,,,,,,,,,,,,,,,,,,,,,,,,,,,,,,,,,,,,,,,,,,,,,,,,,,,,,,,,,,,,,,,,,,,,,
,,"[""comma""]",0,34,0,34,0,1,5bcd6ea508a62c0001f8c85a,36,Mężczyzna,2022-06-04_08h37.05.303,task,2021.1.4,Win32,60.0240096,628b806c463b948bc644b84f,629afd6c5151092c66abf28c,[0.4040000000000248],,,,,,,,,,,,,,,,,,,,,,,,,,,,,,,,,,,,,,,,,,,,,,,,,,,,,,,,,,,,,,,,,,,,,,,,,,,,,,,,,,,,,,,,,,,,,,,,,,,,,,,
,,"[""comma""]",0,35,0,35,0,1,5bcd6ea508a62c0001f8c85a,36,Mężczyzna,2022-06-04_08h37.05.303,task,2021.1.4,Win32,60.0240096,628b806c463b948bc644b84f,629afd6c5151092c66abf28c,[0.5560000000000116],,,,,,,,,,,,,,,,,,,,,,,,,,,,,,,,,,,,,,,,,,,,,,,,,,,,,,,,,,,,,,,,,,,,,,,,,,,,,,,,,,,,,,,,,,,,,,,,,,,,,,,
,,"[""period""]",0,36,0,36,0,1,5bcd6ea508a62c0001f8c85a,36,Mężczyzna,2022-06-04_08h37.05.303,task,2021.1.4,Win32,60.0240096,628b806c463b948bc644b84f,629afd6c5151092c66abf28c,[0.43600000000000705],,,,,,,,,,,,,,,,,,,,,,,,,,,,,,,,,,,,,,,,,,,,,,,,,,,,,,,,,,,,,,,,,,,,,,,,,,,,,,,,,,,,,,,,,,,,,,,,,,,,,,,
,,"[""comma""]",0,37,0,37,0,1,5bcd6ea508a62c0001f8c85a,36,Mężczyzna,2022-06-04_08h37.05.303,task,2021.1.4,Win32,60.0240096,628b806c463b948bc644b84f,629afd6c5151092c66abf28c,[0.4720000000000084],,,,,,,,,,,,,,,,,,,,,,,,,,,,,,,,,,,,,,,,,,,,,,,,,,,,,,,,,,,,,,,,,,,,,,,,,,,,,,,,,,,,,,,,,,,,,,,,,,,,,,,
,,"[""comma""]",0,38,0,38,0,1,5bcd6ea508a62c0001f8c85a,36,Mężczyzna,2022-06-04_08h37.05.303,task,2021.1.4,Win32,60.0240096,628b806c463b948bc644b84f,629afd6c5151092c66abf28c,[0.5010000000000048],,,,,,,,,,,,,,,,,,,,,,,,,,,,,,,,,,,,,,,,,,,,,,,,,,,,,,,,,,,,,,,,,,,,,,,,,,,,,,,,,,,,,,,,,,,,,,,,,,,,,,,
,,"[""period""]",0,39,0,39,0,1,5bcd6ea508a62c0001f8c85a,36,Mężczyzna,2022-06-04_08h37.05.303,task,2021.1.4,Win32,60.0240096,628b806c463b948bc644b84f,629afd6c5151092c66abf28c,[0.48400000000000887],,,,,,,,,,,,,,,,,,,,,,,,,,,,,,,,,,,,,,,,,,,,,,,,,,,,,,,,,,,,,,,,,,,,,,,,,,,,,,,,,,,,,,,,,,,,,,,,,,,,,,,
,,"[""period""]",0,40,0,40,0,1,5bcd6ea508a62c0001f8c85a,36,Mężczyzna,2022-06-04_08h37.05.303,task,2021.1.4,Win32,60.0240096,628b806c463b948bc644b84f,629afd6c5151092c66abf28c,[0.5860000000000127],,,,,,,,,,,,,,,,,,,,,,,,,,,,,,,,,,,,,,,,,,,,,,,,,,,,,,,,,,,,,,,,,,,,,,,,,,,,,,,,,,,,,,,,,,,,,,,,,,,,,,,
,,"[""period""]",0,41,0,41,0,1,5bcd6ea508a62c0001f8c85a,36,Mężczyzna,2022-06-04_08h37.05.303,task,2021.1.4,Win32,60.0240096,628b806c463b948bc644b84f,629afd6c5151092c66abf28c,[0.25],,,,,,,,,,,,,,,,,,,,,,,,,,,,,,,,,,,,,,,,,,,,,,,,,,,,,,,,,,,,,,,,,,,,,,,,,,,,,,,,,,,,,,,,,,,,,,,,,,,,,,,
,,"[""comma""]",0,42,0,42,0,1,5bcd6ea508a62c0001f8c85a,36,Mężczyzna,2022-06-04_08h37.05.303,task,2021.1.4,Win32,60.0240096,628b806c463b948bc644b84f,629afd6c5151092c66abf28c,[0.30299999999999727],,,,,,,,,,,,,,,,,,,,,,,,,,,,,,,,,,,,,,,,,,,,,,,,,,,,,,,,,,,,,,,,,,,,,,,,,,,,,,,,,,,,,,,,,,,,,,,,,,,,,,,
,,"[""comma""]",0,43,0,43,0,1,5bcd6ea508a62c0001f8c85a,36,Mężczyzna,2022-06-04_08h37.05.303,task,2021.1.4,Win32,60.0240096,628b806c463b948bc644b84f,629afd6c5151092c66abf28c,[0.28300000000001546],,,,,,,,,,,,,,,,,,,,,,,,,,,,,,,,,,,,,,,,,,,,,,,,,,,,,,,,,,,,,,,,,,,,,,,,,,,,,,,,,,,,,,,,,,,,,,,,,,,,,,,
,,"[""comma""]",0,44,0,44,0,1,5bcd6ea508a62c0001f8c85a,36,Mężczyzna,2022-06-04_08h37.05.303,task,2021.1.4,Win32,60.0240096,628b806c463b948bc644b84f,629afd6c5151092c66abf28c,[0.4060000000000059],,,,,,,,,,,,,,,,,,,,,,,,,,,,,,,,,,,,,,,,,,,,,,,,,,,,,,,,,,,,,,,,,,,,,,,,,,,,,,,,,,,,,,,,,,,,,,,,,,,,,,,
,,"[""period""]",0,45,0,45,0,1,5bcd6ea508a62c0001f8c85a,36,Mężczyzna,2022-06-04_08h37.05.303,task,2021.1.4,Win32,60.0240096,628b806c463b948bc644b84f,629afd6c5151092c66abf28c,[0.2709999999999866],,,,,,,,,,,,,,,,,,,,,,,,,,,,,,,,,,,,,,,,,,,,,,,,,,,,,,,,,,,,,,,,,,,,,,,,,,,,,,,,,,,,,,,,,,,,,,,,,,,,,,,
,,"[""comma""]",0,46,0,46,0,1,5bcd6ea508a62c0001f8c85a,36,Mężczyzna,2022-06-04_08h37.05.303,task,2021.1.4,Win32,60.0240096,628b806c463b948bc644b84f,629afd6c5151092c66abf28c,[0.3710000000000093],,,,,,,,,,,,,,,,,,,,,,,,,,,,,,,,,,,,,,,,,,,,,,,,,,,,,,,,,,,,,,,,,,,,,,,,,,,,,,,,,,,,,,,,,,,,,,,,,,,,,,,
,,"[""comma""]",0,47,0,47,0,1,5bcd6ea508a62c0001f8c85a,36,Mężczyzna,2022-06-04_08h37.05.303,task,2021.1.4,Win32,60.0240096,628b806c463b948bc644b84f,629afd6c5151092c66abf28c,[0.4339999999999975],,,,,,,,,,,,,,,,,,,,,,,,,,,,,,,,,,,,,,,,,,,,,,,,,,,,,,,,,,,,,,,,,,,,,,,,,,,,,,,,,,,,,,,,,,,,,,,,,,,,,,,
,,"[""comma""]",0,48,0,48,0,1,5bcd6ea508a62c0001f8c85a,36,Mężczyzna,2022-06-04_08h37.05.303,task,2021.1.4,Win32,60.0240096,628b806c463b948bc644b84f,629afd6c5151092c66abf28c,[0.40300000000002],,,,,,,,,,,,,,,,,,,,,,,,,,,,,,,,,,,,,,,,,,,,,,,,,,,,,,,,,,,,,,,,,,,,,,,,,,,,,,,,,,,,,,,,,,,,,,,,,,,,,,,
,,"[""period""]",0,49,0,49,0,1,5bcd6ea508a62c0001f8c85a,36,Mężczyzna,2022-06-04_08h37.05.303,task,2021.1.4,Win32,60.0240096,628b806c463b948bc644b84f,629afd6c5151092c66abf28c,[0.26900000000000546],,,,,,,,,,,,,,,,,,,,,,,,,,,,,,,,,,,,,,,,,,,,,,,,,,,,,,,,,,,,,,,,,,,,,,,,,,,,,,,,,,,,,,,,,,,,,,,,,,,,,,,
,,"[""period""]",0,50,0,50,0,1,5bcd6ea508a62c0001f8c85a,36,Mężczyzna,2022-06-04_08h37.05.303,task,2021.1.4,Win32,60.0240096,628b806c463b948bc644b84f,629afd6c5151092c66abf28c,[0.6020000000000039],,,,,,,,,,,,,,,,,,,,,,,,,,,,,,,,,,,,,,,,,,,,,,,,,,,,,,,,,,,,,,,,,,,,,,,,,,,,,,,,,,,,,,,,,,,,,,,,,,,,,,,
,,"[""comma""]",0,51,0,51,0,1,5bcd6ea508a62c0001f8c85a,36,Mężczyzna,2022-06-04_08h37.05.303,task,2021.1.4,Win32,60.0240096,628b806c463b948bc644b84f,629afd6c5151092c66abf28c,[0.6560000000000059],,,,,,,,,,,,,,,,,,,,,,,,,,,,,,,,,,,,,,,,,,,,,,,,,,,,,,,,,,,,,,,,,,,,,,,,,,,,,,,,,,,,,,,,,,,,,,,,,,,,,,,
,,"[""period""]",0,52,0,52,0,1,5bcd6ea508a62c0001f8c85a,36,Mężczyzna,2022-06-04_08h37.05.303,task,2021.1.4,Win32,60.0240096,628b806c463b948bc644b84f,629afd6c5151092c66abf28c,[1.0349999999999966],,,,,,,,,,,,,,,,,,,,,,,,,,,,,,,,,,,,,,,,,,,,,,,,,,,,,,,,,,,,,,,,,,,,,,,,,,,,,,,,,,,,,,,,,,,,,,,,,,,,,,,
,,"[""period""]",0,53,0,53,0,1,5bcd6ea508a62c0001f8c85a,36,Mężczyzna,2022-06-04_08h37.05.303,task,2021.1.4,Win32,60.0240096,628b806c463b948bc644b84f,629afd6c5151092c66abf28c,[0.23799999999999955],,,,,,,,,,,,,,,,,,,,,,,,,,,,,,,,,,,,,,,,,,,,,,,,,,,,,,,,,,,,,,,,,,,,,,,,,,,,,,,,,,,,,,,,,,,,,,,,,,,,,,,
,,"[""period"",""period""]",0,54,0,54,0,1,5bcd6ea508a62c0001f8c85a,36,Mężczyzna,2022-06-04_08h37.05.303,task,2021.1.4,Win32,60.0240096,628b806c463b948bc644b84f,629afd6c5151092c66abf28c,"[0.271000000000015,1.6020000000000039]",,,,,,,,,,,,,,,,,,,,,,,,,,,,,,,,,,,,,,,,,,,,,,,,,,,,,,,,,,,,,,,,,,,,,,,,,,,,,,,,,,,,,,,,,,,,,,,,,,,,,,,
,,"[""period""]",0,55,0,55,0,1,5bcd6ea508a62c0001f8c85a,36,Mężczyzna,2022-06-04_08h37.05.303,task,2021.1.4,Win32,60.0240096,628b806c463b948bc644b84f,629afd6c5151092c66abf28c,[0.617999999999995],,,,,,,,,,,,,,,,,,,,,,,,,,,,,,,,,,,,,,,,,,,,,,,,,,,,,,,,,,,,,,,,,,,,,,,,,,,,,,,,,,,,,,,,,,,,,,,,,,,,,,,
,,"[""comma""]",0,56,0,56,0,1,5bcd6ea508a62c0001f8c85a,36,Mężczyzna,2022-06-04_08h37.05.303,task,2021.1.4,Win32,60.0240096,628b806c463b948bc644b84f,629afd6c5151092c66abf28c,[0.2849999999999966],,,,,,,,,,,,,,,,,,,,,,,,,,,,,,,,,,,,,,,,,,,,,,,,,,,,,,,,,,,,,,,,,,,,,,,,,,,,,,,,,,,,,,,,,,,,,,,,,,,,,,,
,,"[""comma""]",0,57,0,57,0,1,5bcd6ea508a62c0001f8c85a,36,Mężczyzna,2022-06-04_08h37.05.303,task,2021.1.4,Win32,60.0240096,628b806c463b948bc644b84f,629afd6c5151092c66abf28c,[0.5060000000000002],,,,,,,,,,,,,,,,,,,,,,,,,,,,,,,,,,,,,,,,,,,,,,,,,,,,,,,,,,,,,,,,,,,,,,,,,,,,,,,,,,,,,,,,,,,,,,,,,,,,,,,
,,"[""comma""]",0,58,0,58,0,1,5bcd6ea508a62c0001f8c85a,36,Mężczyzna,2022-06-04_08h37.05.303,task,2021.1.4,Win32,60.0240096,628b806c463b948bc644b84f,629afd6c5151092c66abf28c,[0.41900000000001114],,,,,,,,,,,,,,,,,,,,,,,,,,,,,,,,,,,,,,,,,,,,,,,,,,,,,,,,,,,,,,,,,,,,,,,,,,,,,,,,,,,,,,,,,,,,,,,,,,,,,,,
,,"[""period""]",0,59,0,59,0,1,5bcd6ea508a62c0001f8c85a,36,Mężczyzna,2022-06-04_08h37.05.303,task,2021.1.4,Win32,60.0240096,628b806c463b948bc644b84f,629afd6c5151092c66abf28c,[0.3200000000000216],,,,,,,,,,,,,,,,,,,,,,,,,,,,,,,,,,,,,,,,,,,,,,,,,,,,,,,,,,,,,,,,,,,,,,,,,,,,,,,,,,,,,,,,,,,,,,,,,,,,,,,
,,"[""comma""]",0,60,0,60,0,1,5bcd6ea508a62c0001f8c85a,36,Mężczyzna,2022-06-04_08h37.05.303,task,2021.1.4,Win32,60.0240096,628b806c463b948bc644b84f,629afd6c5151092c66abf28c,[0.2849999999999966],,,,,,,,,,,,,,,,,,,,,,,,,,,,,,,,,,,,,,,,,,,,,,,,,,,,,,,,,,,,,,,,,,,,,,,,,,,,,,,,,,,,,,,,,,,,,,,,,,,,,,,
,,"[""period""]",0,61,0,61,0,1,5bcd6ea508a62c0001f8c85a,36,Mężczyzna,2022-06-04_08h37.05.303,task,2021.1.4,Win32,60.0240096,628b806c463b948bc644b84f,629afd6c5151092c66abf28c,[0.6359999999999957],,,,,,,,,,,,,,,,,,,,,,,,,,,,,,,,,,,,,,,,,,,,,,,,,,,,,,,,,,,,,,,,,,,,,,,,,,,,,,,,,,,,,,,,,,,,,,,,,,,,,,,
,,"[""period""]",0,62,0,62,0,1,5bcd6ea508a62c0001f8c85a,36,Mężczyzna,2022-06-04_08h37.05.303,task,2021.1.4,Win32,60.0240096,628b806c463b948bc644b84f,629afd6c5151092c66abf28c,[0.2680000000000007],,,,,,,,,,,,,,,,,,,,,,,,,,,,,,,,,,,,,,,,,,,,,,,,,,,,,,,,,,,,,,,,,,,,,,,,,,,,,,,,,,,,,,,,,,,,,,,,,,,,,,,
,,"[""period""]",0,63,0,63,0,1,5bcd6ea508a62c0001f8c85a,36,Mężczyzna,2022-06-04_08h37.05.303,task,2021.1.4,Win32,60.0240096,628b806c463b948bc644b84f,629afd6c5151092c66abf28c,[0.2530000000000143],,,,,,,,,,,,,,,,,,,,,,,,,,,,,,,,,,,,,,,,,,,,,,,,,,,,,,,,,,,,,,,,,,,,,,,,,,,,,,,,,,,,,,,,,,,,,,,,,,,,,,,
,,"[""period""]",0,64,0,64,0,1,5bcd6ea508a62c0001f8c85a,36,Mężczyzna,2022-06-04_08h37.05.303,task,2021.1.4,Win32,60.0240096,628b806c463b948bc644b84f,629afd6c5151092c66abf28c,[0.40200000000001523],,,,,,,,,,,,,,,,,,,,,,,,,,,,,,,,,,,,,,,,,,,,,,,,,,,,,,,,,,,,,,,,,,,,,,,,,,,,,,,,,,,,,,,,,,,,,,,,,,,,,,,
,,"[""period""]",0,65,0,65,0,1,5bcd6ea508a62c0001f8c85a,36,Mężczyzna,2022-06-04_08h37.05.303,task,2021.1.4,Win32,60.0240096,628b806c463b948bc644b84f,629afd6c5151092c66abf28c,[0.5220000000000198],,,,,,,,,,,,,,,,,,,,,,,,,,,,,,,,,,,,,,,,,,,,,,,,,,,,,,,,,,,,,,,,,,,,,,,,,,,,,,,,,,,,,,,,,,,,,,,,,,,,,,,
,,"[""comma""]",0,66,0,66,0,1,5bcd6ea508a62c0001f8c85a,36,Mężczyzna,2022-06-04_08h37.05.303,task,2021.1.4,Win32,60.0240096,628b806c463b948bc644b84f,629afd6c5151092c66abf28c,[0.7540000000000191],,,,,,,,,,,,,,,,,,,,,,,,,,,,,,,,,,,,,,,,,,,,,,,,,,,,,,,,,,,,,,,,,,,,,,,,,,,,,,,,,,,,,,,,,,,,,,,,,,,,,,,
,,"[""period""]",0,67,0,67,0,1,5bcd6ea508a62c0001f8c85a,36,Mężczyzna,2022-06-04_08h37.05.303,task,2021.1.4,Win32,60.0240096,628b806c463b948bc644b84f,629afd6c5151092c66abf28c,[0.26900000000000546],,,,,,,,,,,,,,,,,,,,,,,,,,,,,,,,,,,,,,,,,,,,,,,,,,,,,,,,,,,,,,,,,,,,,,,,,,,,,,,,,,,,,,,,,,,,,,,,,,,,,,,
,,"[""period""]",0,68,0,68,0,1,5bcd6ea508a62c0001f8c85a,36,Mężczyzna,2022-06-04_08h37.05.303,task,2021.1.4,Win32,60.0240096,628b806c463b948bc644b84f,629afd6c5151092c66abf28c,[0.28300000000001546],,,,,,,,,,,,,,,,,,,,,,,,,,,,,,,,,,,,,,,,,,,,,,,,,,,,,,,,,,,,,,,,,,,,,,,,,,,,,,,,,,,,,,,,,,,,,,,,,,,,,,,
,,"[""period""]",0,69,0,69,0,1,5bcd6ea508a62c0001f8c85a,36,Mężczyzna,2022-06-04_08h37.05.303,task,2021.1.4,Win32,60.0240096,628b806c463b948bc644b84f,629afd6c5151092c66abf28c,[0.2680000000000007],,,,,,,,,,,,,,,,,,,,,,,,,,,,,,,,,,,,,,,,,,,,,,,,,,,,,,,,,,,,,,,,,,,,,,,,,,,,,,,,,,,,,,,,,,,,,,,,,,,,,,,
,,"[""period""]",0,70,0,70,0,1,5bcd6ea508a62c0001f8c85a,36,Mężczyzna,2022-06-04_08h37.05.303,task,2021.1.4,Win32,60.0240096,628b806c463b948bc644b84f,629afd6c5151092c66abf28c,[0.25499999999999545],,,,,,,,,,,,,,,,,,,,,,,,,,,,,,,,,,,,,,,,,,,,,,,,,,,,,,,,,,,,,,,,,,,,,,,,,,,,,,,,,,,,,,,,,,,,,,,,,,,,,,,
,,"[""period""]",0,71,0,71,0,1,5bcd6ea508a62c0001f8c85a,36,Mężczyzna,2022-06-04_08h37.05.303,task,2021.1.4,Win32,60.0240096,628b806c463b948bc644b84f,629afd6c5151092c66abf28c,[0.3860000000000241],,,,,,,,,,,,,,,,,,,,,,,,,,,,,,,,,,,,,,,,,,,,,,,,,,,,,,,,,,,,,,,,,,,,,,,,,,,,,,,,,,,,,,,,,,,,,,,,,,,,,,,
,,"[""period""]",0,72,0,72,0,1,5bcd6ea508a62c0001f8c85a,36,Mężczyzna,2022-06-04_08h37.05.303,task,2021.1.4,Win32,60.0240096,628b806c463b948bc644b84f,629afd6c5151092c66abf28c,[0.2680000000000291],,,,,,,,,,,,,,,,,,,,,,,,,,,,,,,,,,,,,,,,,,,,,,,,,,,,,,,,,,,,,,,,,,,,,,,,,,,,,,,,,,,,,,,,,,,,,,,,,,,,,,,
,,"[""comma""]",0,73,0,73,0,1,5bcd6ea508a62c0001f8c85a,36,Mężczyzna,2022-06-04_08h37.05.303,task,2021.1.4,Win32,60.0240096,628b806c463b948bc644b84f,629afd6c5151092c66abf28c,[0.3009999999999877],,,,,,,,,,,,,,,,,,,,,,,,,,,,,,,,,,,,,,,,,,,,,,,,,,,,,,,,,,,,,,,,,,,,,,,,,,,,,,,,,,,,,,,,,,,,,,,,,,,,,,,
,,"[""period""]",0,74,0,74,0,1,5bcd6ea508a62c0001f8c85a,36,Mężczyzna,2022-06-04_08h37.05.303,task,2021.1.4,Win32,60.0240096,628b806c463b948bc644b84f,629afd6c5151092c66abf28c,[0.38700000000000045],,,,,,,,,,,,,,,,,,,,,,,,,,,,,,,,,,,,,,,,,,,,,,,,,,,,,,,,,,,,,,,,,,,,,,,,,,,,,,,,,,,,,,,,,,,,,,,,,,,,,,,
,,"[""period""]",0,75,0,75,0,1,5bcd6ea508a62c0001f8c85a,36,Mężczyzna,2022-06-04_08h37.05.303,task,2021.1.4,Win32,60.0240096,628b806c463b948bc644b84f,629afd6c5151092c66abf28c,[0.26799999999997226],,,,,,,,,,,,,,,,,,,,,,,,,,,,,,,,,,,,,,,,,,,,,,,,,,,,,,,,,,,,,,,,,,,,,,,,,,,,,,,,,,,,,,,,,,,,,,,,,,,,,,,
,,"[""period""]",0,76,0,76,0,1,5bcd6ea508a62c0001f8c85a,36,Mężczyzna,2022-06-04_08h37.05.303,task,2021.1.4,Win32,60.0240096,628b806c463b948bc644b84f,629afd6c5151092c66abf28c,[0.271000000000015],,,,,,,,,,,,,,,,,,,,,,,,,,,,,,,,,,,,,,,,,,,,,,,,,,,,,,,,,,,,,,,,,,,,,,,,,,,,,,,,,,,,,,,,,,,,,,,,,,,,,,,
,,"[""period""]",0,77,0,77,0,1,5bcd6ea508a62c0001f8c85a,36,Mężczyzna,2022-06-04_08h37.05.303,task,2021.1.4,Win32,60.0240096,628b806c463b948bc644b84f,629afd6c5151092c66abf28c,[0.2839999999999918],,,,,,,,,,,,,,,,,,,,,,,,,,,,,,,,,,,,,,,,,,,,,,,,,,,,,,,,,,,,,,,,,,,,,,,,,,,,,,,,,,,,,,,,,,,,,,,,,,,,,,,
,,"[""period""]",0,78,0,78,0,1,5bcd6ea508a62c0001f8c85a,36,Mężczyzna,2022-06-04_08h37.05.303,task,2021.1.4,Win32,60.0240096,628b806c463b948bc644b84f,629afd6c5151092c66abf28c,[0.3849999999999909],,,,,,,,,,,,,,,,,,,,,,,,,,,,,,,,,,,,,,,,,,,,,,,,,,,,,,,,,,,,,,,,,,,,,,,,,,,,,,,,,,,,,,,,,,,,,,,,,,,,,,,
,,"[""comma""]",0,79,0,79,0,1,5bcd6ea508a62c0001f8c85a,36,Mężczyzna,2022-06-04_08h37.05.303,task,2021.1.4,Win32,60.0240096,628b806c463b948bc644b84f,629afd6c5151092c66abf28c,[0.30299999999999727],,,,,,,,,,,,,,,,,,,,,,,,,,,,,,,,,,,,,,,,,,,,,,,,,,,,,,,,,,,,,,,,,,,,,,,,,,,,,,,,,,,,,,,,,,,,,,,,,,,,,,,
,,"[""comma""]",0,80,0,80,0,1,5bcd6ea508a62c0001f8c85a,36,Mężczyzna,2022-06-04_08h37.05.303,task,2021.1.4,Win32,60.0240096,628b806c463b948bc644b84f,629afd6c5151092c66abf28c,[0.45100000000002183],,,,,,,,,,,,,,,,,,,,,,,,,,,,,,,,,,,,,,,,,,,,,,,,,,,,,,,,,,,,,,,,,,,,,,,,,,,,,,,,,,,,,,,,,,,,,,,,,,,,,,,
,,"[""comma""]",0,81,0,81,0,1,5bcd6ea508a62c0001f8c85a,36,Mężczyzna,2022-06-04_08h37.05.303,task,2021.1.4,Win32,60.0240096,628b806c463b948bc644b84f,629afd6c5151092c66abf28c,[0.26900000000000546],,,,,,,,,,,,,,,,,,,,,,,,,,,,,,,,,,,,,,,,,,,,,,,,,,,,,,,,,,,,,,,,,,,,,,,,,,,,,,,,,,,,,,,,,,,,,,,,,,,,,,,
,,"[""comma""]",0,82,0,82,0,1,5bcd6ea508a62c0001f8c85a,36,Mężczyzna,2022-06-04_08h37.05.303,task,2021.1.4,Win32,60.0240096,628b806c463b948bc644b84f,629afd6c5151092c66abf28c,[0.3520000000000323],,,,,,,,,,,,,,,,,,,,,,,,,,,,,,,,,,,,,,,,,,,,,,,,,,,,,,,,,,,,,,,,,,,,,,,,,,,,,,,,,,,,,,,,,,,,,,,,,,,,,,,
,,"[""period""]",0,83,0,83,0,1,5bcd6ea508a62c0001f8c85a,36,Mężczyzna,2022-06-04_08h37.05.303,task,2021.1.4,Win32,60.0240096,628b806c463b948bc644b84f,629afd6c5151092c66abf28c,[0.285000000000025],,,,,,,,,,,,,,,,,,,,,,,,,,,,,,,,,,,,,,,,,,,,,,,,,,,,,,,,,,,,,,,,,,,,,,,,,,,,,,,,,,,,,,,,,,,,,,,,,,,,,,,
,,"[""period""]",0,84,0,84,0,1,5bcd6ea508a62c0001f8c85a,36,Mężczyzna,2022-06-04_08h37.05.303,task,2021.1.4,Win32,60.0240096,628b806c463b948bc644b84f,629afd6c5151092c66abf28c,[0.3839999999999577],,,,,,,,,,,,,,,,,,,,,,,,,,,,,,,,,,,,,,,,,,,,,,,,,,,,,,,,,,,,,,,,,,,,,,,,,,,,,,,,,,,,,,,,,,,,,,,,,,,,,,,
,,"[""comma""]",0,85,0,85,0,1,5bcd6ea508a62c0001f8c85a,36,Mężczyzna,2022-06-04_08h37.05.303,task,2021.1.4,Win32,60.0240096,628b806c463b948bc644b84f,629afd6c5151092c66abf28c,[0.3020000000000209],,,,,,,,,,,,,,,,,,,,,,,,,,,,,,,,,,,,,,,,,,,,,,,,,,,,,,,,,,,,,,,,,,,,,,,,,,,,,,,,,,,,,,,,,,,,,,,,,,,,,,,
,,"[""comma""]",0,86,0,86,0,1,5bcd6ea508a62c0001f8c85a,36,Mężczyzna,2022-06-04_08h37.05.303,task,2021.1.4,Win32,60.0240096,628b806c463b948bc644b84f,629afd6c5151092c66abf28c,[0.3009999999999877],,,,,,,,,,,,,,,,,,,,,,,,,,,,,,,,,,,,,,,,,,,,,,,,,,,,,,,,,,,,,,,,,,,,,,,,,,,,,,,,,,,,,,,,,,,,,,,,,,,,,,,
,,"[""comma""]",0,87,0,87,0,1,5bcd6ea508a62c0001f8c85a,36,Mężczyzna,2022-06-04_08h37.05.303,task,2021.1.4,Win32,60.0240096,628b806c463b948bc644b84f,629afd6c5151092c66abf28c,[0.3190000000000168],,,,,,,,,,,,,,,,,,,,,,,,,,,,,,,,,,,,,,,,,,,,,,,,,,,,,,,,,,,,,,,,,,,,,,,,,,,,,,,,,,,,,,,,,,,,,,,,,,,,,,,
,,"[""comma""]",0,88,0,88,0,1,5bcd6ea508a62c0001f8c85a,36,Mężczyzna,2022-06-04_08h37.05.303,task,2021.1.4,Win32,60.0240096,628b806c463b948bc644b84f,629afd6c5151092c66abf28c,[0.3499999999999659],,,,,,,,,,,,,,,,,,,,,,,,,,,,,,,,,,,,,,,,,,,,,,,,,,,,,,,,,,,,,,,,,,,,,,,,,,,,,,,,,,,,,,,,,,,,,,,,,,,,,,,
,,"[""period""]",0,89,0,89,0,1,5bcd6ea508a62c0001f8c85a,36,Mężczyzna,2022-06-04_08h37.05.303,task,2021.1.4,Win32,60.0240096,628b806c463b948bc644b84f,629afd6c5151092c66abf28c,[0.23500000000001364],,,,,,,,,,,,,,,,,,,,,,,,,,,,,,,,,,,,,,,,,,,,,,,,,,,,,,,,,,,,,,,,,,,,,,,,,,,,,,,,,,,,,,,,,,,,,,,,,,,,,,,
,,"[""period""]",0,90,0,90,0,1,5bcd6ea508a62c0001f8c85a,36,Mężczyzna,2022-06-04_08h37.05.303,task,2021.1.4,Win32,60.0240096,628b806c463b948bc644b84f,629afd6c5151092c66abf28c,[0.2529999999999859],,,,,,,,,,,,,,,,,,,,,,,,,,,,,,,,,,,,,,,,,,,,,,,,,,,,,,,,,,,,,,,,,,,,,,,,,,,,,,,,,,,,,,,,,,,,,,,,,,,,,,,
,,"[""comma""]",0,91,0,91,0,1,5bcd6ea508a62c0001f8c85a,36,Mężczyzna,2022-06-04_08h37.05.303,task,2021.1.4,Win32,60.0240096,628b806c463b948bc644b84f,629afd6c5151092c66abf28c,[0.02199999999999136],,,,,,,,,,,,,,,,,,,,,,,,,,,,,,,,,,,,,,,,,,,,,,,,,,,,,,,,,,,,,,,,,,,,,,,,,,,,,,,,,,,,,,,,,,,,,,,,,,,,,,,
,,"[""period""]",0,92,0,92,0,1,5bcd6ea508a62c0001f8c85a,36,Mężczyzna,2022-06-04_08h37.05.303,task,2021.1.4,Win32,60.0240096,628b806c463b948bc644b84f,629afd6c5151092c66abf28c,[0.25200000000000955],,,,,,,,,,,,,,,,,,,,,,,,,,,,,,,,,,,,,,,,,,,,,,,,,,,,,,,,,,,,,,,,,,,,,,,,,,,,,,,,,,,,,,,,,,,,,,,,,,,,,,,
,,"[""comma""]",0,93,0,93,0,1,5bcd6ea508a62c0001f8c85a,36,Mężczyzna,2022-06-04_08h37.05.303,task,2021.1.4,Win32,60.0240096,628b806c463b948bc644b84f,629afd6c5151092c66abf28c,[0.30299999999999727],,,,,,,,,,,,,,,,,,,,,,,,,,,,,,,,,,,,,,,,,,,,,,,,,,,,,,,,,,,,,,,,,,,,,,,,,,,,,,,,,,,,,,,,,,,,,,,,,,,,,,,
,,"[""comma""]",0,94,0,94,0,1,5bcd6ea508a62c0001f8c85a,36,Mężczyzna,2022-06-04_08h37.05.303,task,2021.1.4,Win32,60.0240096,628b806c463b948bc644b84f,629afd6c5151092c66abf28c,[0.3879999999999768],,,,,,,,,,,,,,,,,,,,,,,,,,,,,,,,,,,,,,,,,,,,,,,,,,,,,,,,,,,,,,,,,,,,,,,,,,,,,,,,,,,,,,,,,,,,,,,,,,,,,,,
,,"[""period""]",0,95,0,95,0,1,5bcd6ea508a62c0001f8c85a,36,Mężczyzna,2022-06-04_08h37.05.303,task,2021.1.4,Win32,60.0240096,628b806c463b948bc644b84f,629afd6c5151092c66abf28c,[0.37000000000000455],,,,,,,,,,,,,,,,,,,,,,,,,,,,,,,,,,,,,,,,,,,,,,,,,,,,,,,,,,,,,,,,,,,,,,,,,,,,,,,,,,,,,,,,,,,,,,,,,,,,,,,
,,"[""comma""]",0,96,0,96,0,1,5bcd6ea508a62c0001f8c85a,36,Mężczyzna,2022-06-04_08h37.05.303,task,2021.1.4,Win32,60.0240096,628b806c463b948bc644b84f,629afd6c5151092c66abf28c,[0.23399999999998045],,,,,,,,,,,,,,,,,,,,,,,,,,,,,,,,,,,,,,,,,,,,,,,,,,,,,,,,,,,,,,,,,,,,,,,,,,,,,,,,,,,,,,,,,,,,,,,,,,,,,,,
,,"[""period""]",0,97,0,97,0,1,5bcd6ea508a62c0001f8c85a,36,Mężczyzna,2022-06-04_08h37.05.303,task,2021.1.4,Win32,60.0240096,628b806c463b948bc644b84f,629afd6c5151092c66abf28c,[0.2669999999999959],,,,,,,,,,,,,,,,,,,,,,,,,,,,,,,,,,,,,,,,,,,,,,,,,,,,,,,,,,,,,,,,,,,,,,,,,,,,,,,,,,,,,,,,,,,,,,,,,,,,,,,
,,"[""comma""]",0,98,0,98,0,1,5bcd6ea508a62c0001f8c85a,36,Mężczyzna,2022-06-04_08h37.05.303,task,2021.1.4,Win32,60.0240096,628b806c463b948bc644b84f,629afd6c5151092c66abf28c,[0.3019999999999641],,,,,,,,,,,,,,,,,,,,,,,,,,,,,,,,,,,,,,,,,,,,,,,,,,,,,,,,,,,,,,,,,,,,,,,,,,,,,,,,,,,,,,,,,,,,,,,,,,,,,,,
,,"[""comma""]",0,99,0,99,0,1,5bcd6ea508a62c0001f8c85a,36,Mężczyzna,2022-06-04_08h37.05.303,task,2021.1.4,Win32,60.0240096,628b806c463b948bc644b84f,629afd6c5151092c66abf28c,[0.2680000000000291],,,,,,,,,,,,,,,,,,,,,,,,,,,,,,,,,,,,,,,,,,,,,,,,,,,,,,,,,,,,,,,,,,,,,,,,,,,,,,,,,,,,,,,,,,,,,,,,,,,,,,,
,,"[""period""]",0,100,0,100,0,1,5bcd6ea508a62c0001f8c85a,36,Mężczyzna,2022-06-04_08h37.05.303,task,2021.1.4,Win32,60.0240096,628b806c463b948bc644b84f,629afd6c5151092c66abf28c,[0.26900000000000546],,,,,,,,,,,,,,,,,,,,,,,,,,,,,,,,,,,,,,,,,,,,,,,,,,,,,,,,,,,,,,,,,,,,,,,,,,,,,,,,,,,,,,,,,,,,,,,,,,,,,,,
,,"[""comma""]",0,101,0,101,0,1,5bcd6ea508a62c0001f8c85a,36,Mężczyzna,2022-06-04_08h37.05.303,task,2021.1.4,Win32,60.0240096,628b806c463b948bc644b84f,629afd6c5151092c66abf28c,[0.3180000000000405],,,,,,,,,,,,,,,,,,,,,,,,,,,,,,,,,,,,,,,,,,,,,,,,,,,,,,,,,,,,,,,,,,,,,,,,,,,,,,,,,,,,,,,,,,,,,,,,,,,,,,,
,,"[""comma""]",0,102,0,102,0,1,5bcd6ea508a62c0001f8c85a,36,Mężczyzna,2022-06-04_08h37.05.303,task,2021.1.4,Win32,60.0240096,628b806c463b948bc644b84f,629afd6c5151092c66abf28c,[0.3180000000000405],,,,,,,,,,,,,,,,,,,,,,,,,,,,,,,,,,,,,,,,,,,,,,,,,,,,,,,,,,,,,,,,,,,,,,,,,,,,,,,,,,,,,,,,,,,,,,,,,,,,,,,
,,"[""comma""]",0,103,0,103,0,1,5bcd6ea508a62c0001f8c85a,36,Mężczyzna,2022-06-04_08h37.05.303,task,2021.1.4,Win32,60.0240096,628b806c463b948bc644b84f,629afd6c5151092c66abf28c,[0.26900000000000546],,,,,,,,,,,,,,,,,,,,,,,,,,,,,,,,,,,,,,,,,,,,,,,,,,,,,,,,,,,,,,,,,,,,,,,,,,,,,,,,,,,,,,,,,,,,,,,,,,,,,,,
,,"[""period""]",0,104,0,104,0,1,5bcd6ea508a62c0001f8c85a,36,Mężczyzna,2022-06-04_08h37.05.303,task,2021.1.4,Win32,60.0240096,628b806c463b948bc644b84f,629afd6c5151092c66abf28c,[0.2529999999999859],,,,,,,,,,,,,,,,,,,,,,,,,,,,,,,,,,,,,,,,,,,,,,,,,,,,,,,,,,,,,,,,,,,,,,,,,,,,,,,,,,,,,,,,,,,,,,,,,,,,,,,
,,"[""period""]",0,105,0,105,0,1,5bcd6ea508a62c0001f8c85a,36,Mężczyzna,2022-06-04_08h37.05.303,task,2021.1.4,Win32,60.0240096,628b806c463b948bc644b84f,629afd6c5151092c66abf28c,[0.2340000000000373],,,,,,,,,,,,,,,,,,,,,,,,,,,,,,,,,,,,,,,,,,,,,,,,,,,,,,,,,,,,,,,,,,,,,,,,,,,,,,,,,,,,,,,,,,,,,,,,,,,,,,,
,,"[""comma""]",0,106,0,106,0,1,5bcd6ea508a62c0001f8c85a,36,Mężczyzna,2022-06-04_08h37.05.303,task,2021.1.4,Win32,60.0240096,628b806c463b948bc644b84f,629afd6c5151092c66abf28c,[0.3170000000000073],,,,,,,,,,,,,,,,,,,,,,,,,,,,,,,,,,,,,,,,,,,,,,,,,,,,,,,,,,,,,,,,,,,,,,,,,,,,,,,,,,,,,,,,,,,,,,,,,,,,,,,
,,"[""period""]",0,107,0,107,0,1,5bcd6ea508a62c0001f8c85a,36,Mężczyzna,2022-06-04_08h37.05.303,task,2021.1.4,Win32,60.0240096,628b806c463b948bc644b84f,629afd6c5151092c66abf28c,[0.3180000000000405],,,,,,,,,,,,,,,,,,,,,,,,,,,,,,,,,,,,,,,,,,,,,,,,,,,,,,,,,,,,,,,,,,,,,,,,,,,,,,,,,,,,,,,,,,,,,,,,,,,,,,,
,,"[""comma""]",0,108,0,108,0,1,5bcd6ea508a62c0001f8c85a,36,Mężczyzna,2022-06-04_08h37.05.303,task,2021.1.4,Win32,60.0240096,628b806c463b948bc644b84f,629afd6c5151092c66abf28c,[0.3240000000000123],,,,,,,,,,,,,,,,,,,,,,,,,,,,,,,,,,,,,,,,,,,,,,,,,,,,,,,,,,,,,,,,,,,,,,,,,,,,,,,,,,,,,,,,,,,,,,,,,,,,,,,
,,"[""comma""]",0,109,0,109,0,1,5bcd6ea508a62c0001f8c85a,36,Mężczyzna,2022-06-04_08h37.05.303,task,2021.1.4,Win32,60.0240096,628b806c463b948bc644b84f,629afd6c5151092c66abf28c,[0.23699999999996635],,,,,,,,,,,,,,,,,,,,,,,,,,,,,,,,,,,,,,,,,,,,,,,,,,,,,,,,,,,,,,,,,,,,,,,,,,,,,,,,,,,,,,,,,,,,,,,,,,,,,,,
,,"[""comma""]",0,110,0,110,0,1,5bcd6ea508a62c0001f8c85a,36,Mężczyzna,2022-06-04_08h37.05.303,task,2021.1.4,Win32,60.0240096,628b806c463b948bc644b84f,629afd6c5151092c66abf28c,[0.2869999999999777],,,,,,,,,,,,,,,,,,,,,,,,,,,,,,,,,,,,,,,,,,,,,,,,,,,,,,,,,,,,,,,,,,,,,,,,,,,,,,,,,,,,,,,,,,,,,,,,,,,,,,,
,,"[""comma""]",0,111,0,111,0,1,5bcd6ea508a62c0001f8c85a,36,Mężczyzna,2022-06-04_08h37.05.303,task,2021.1.4,Win32,60.0240096,628b806c463b948bc644b84f,629afd6c5151092c66abf28c,[0.40299999999996317],,,,,,,,,,,,,,,,,,,,,,,,,,,,,,,,,,,,,,,,,,,,,,,,,,,,,,,,,,,,,,,,,,,,,,,,,,,,,,,,,,,,,,,,,,,,,,,,,,,,,,,
,,"[""comma"",""period""]",0,112,0,112,0,1,5bcd6ea508a62c0001f8c85a,36,Mężczyzna,2022-06-04_08h37.05.303,task,2021.1.4,Win32,60.0240096,628b806c463b948bc644b84f,629afd6c5151092c66abf28c,"[0.4359999999999786,1.933999999999969]",,,,,,,,,,,,,,,,,,,,,,,,,,,,,,,,,,,,,,,,,,,,,,,,,,,,,,,,,,,,,,,,,,,,,,,,,,,,,,,,,,,,,,,,,,,,,,,,,,,,,,,
,,,0,113,0,113,0,1,5bcd6ea508a62c0001f8c85a,36,Mężczyzna,2022-06-04_08h37.05.303,task,2021.1.4,Win32,60.0240096,628b806c463b948bc644b84f,629afd6c5151092c66abf28c,,,,,,,,,,,,,,,,,,,,,,,,,,,,,,,,,,,,,,,,,,,,,,,,,,,,,,,,,,,,,,,,,,,,,,,,,,,,,,,,,,,,,,,,,,,,,,,,,,,,,,,,
,,"[""period""]",0,114,0,114,0,1,5bcd6ea508a62c0001f8c85a,36,Mężczyzna,2022-06-04_08h37.05.303,task,2021.1.4,Win32,60.0240096,628b806c463b948bc644b84f,629afd6c5151092c66abf28c,[0.002999999999985903],,,,,,,,,,,,,,,,,,,,,,,,,,,,,,,,,,,,,,,,,,,,,,,,,,,,,,,,,,,,,,,,,,,,,,,,,,,,,,,,,,,,,,,,,,,,,,,,,,,,,,,
,,"[""period""]",0,115,0,115,0,1,5bcd6ea508a62c0001f8c85a,36,Mężczyzna,2022-06-04_08h37.05.303,task,2021.1.4,Win32,60.0240096,628b806c463b948bc644b84f,629afd6c5151092c66abf28c,[0.25200000000000955],,,,,,,,,,,,,,,,,,,,,,,,,,,,,,,,,,,,,,,,,,,,,,,,,,,,,,,,,,,,,,,,,,,,,,,,,,,,,,,,,,,,,,,,,,,,,,,,,,,,,,,
,,"[""comma""]",0,116,0,116,0,1,5bcd6ea508a62c0001f8c85a,36,Mężczyzna,2022-06-04_08h37.05.303,task,2021.1.4,Win32,60.0240096,628b806c463b948bc644b84f,629afd6c5151092c66abf28c,[0.25200000000000955],,,,,,,,,,,,,,,,,,,,,,,,,,,,,,,,,,,,,,,,,,,,,,,,,,,,,,,,,,,,,,,,,,,,,,,,,,,,,,,,,,,,,,,,,,,,,,,,,,,,,,,
,,"[""period""]",0,117,0,117,0,1,5bcd6ea508a62c0001f8c85a,36,Mężczyzna,2022-06-04_08h37.05.303,task,2021.1.4,Win32,60.0240096,628b806c463b948bc644b84f,629afd6c5151092c66abf28c,[0.2680000000000291],,,,,,,,,,,,,,,,,,,,,,,,,,,,,,,,,,,,,,,,,,,,,,,,,,,,,,,,,,,,,,,,,,,,,,,,,,,,,,,,,,,,,,,,,,,,,,,,,,,,,,,
,,"[""comma""]",0,118,0,118,0,1,5bcd6ea508a62c0001f8c85a,36,Mężczyzna,2022-06-04_08h37.05.303,task,2021.1.4,Win32,60.0240096,628b806c463b948bc644b84f,629afd6c5151092c66abf28c,[0.23600000000004684],,,,,,,,,,,,,,,,,,,,,,,,,,,,,,,,,,,,,,,,,,,,,,,,,,,,,,,,,,,,,,,,,,,,,,,,,,,,,,,,,,,,,,,,,,,,,,,,,,,,,,,
,,"[""period""]",0,119,0,119,0,1,5bcd6ea508a62c0001f8c85a,36,Mężczyzna,2022-06-04_08h37.05.303,task,2021.1.4,Win32,60.0240096,628b806c463b948bc644b84f,629afd6c5151092c66abf28c,[0.25200000000000955],,,,,,,,,,,,,,,,,,,,,,,,,,,,,,,,,,,,,,,,,,,,,,,,,,,,,,,,,,,,,,,,,,,,,,,,,,,,,,,,,,,,,,,,,,,,,,,,,,,,,,,
,,,,,,,,,5bcd6ea508a62c0001f8c85a,36,Mężczyzna,2022-06-04_08h37.05.303,task,2021.1.4,Win32,60.0240096,628b806c463b948bc644b84f,629afd6c5151092c66abf28c,,space,36.96,space,9.92,0,0,0,0,1,X V Q F H G B L J M P D K C T S W R N Z,,,,,,,,,,,,,,,,,,,,,,,,,,,,,,,,,,,,,,,,,,,,,,,,,,,,,,,,,,,,,,,,,,,,,,,,,,,,,,,,,,,,,,,,,,,,,
,,,,,,,,,5bcd6ea508a62c0001f8c85a,36,Mężczyzna,2022-06-04_08h37.05.303,task,2021.1.4,Win32,60.0240096,628b806c463b948bc644b84f,629afd6c5151092c66abf28c,,,,,,1,0,1,0,1,X V Q F H G B L J M P D K C T S W R N Z,,,,,,,,,,,,,,,,,,,,,,,,,,,,,,,,,,,,,,,,,,,,,,,,,,,,,,,,,,,,,,,,,,,,,,,,,,,,,,,,,,,,,,,,,,,,,
,,,,,,,,,5bcd6ea508a62c0001f8c85a,36,Mężczyzna,2022-06-04_08h37.05.303,task,2021.1.4,Win32,60.0240096,628b806c463b948bc644b84f,629afd6c5151092c66abf28c,,,,,,,,,,,,zc,"[""z"",""c""]","[3.187999999999988,3.437999999999988,6.0709999999999695]",1,ZC,0,0,0,0,1,,,,,,,,,,,,,,,,,,,,,,,,,,,,,,,,,,,,,,,,,,,,,,,,,,,,,,,,,,,,,,,,,,,,,,,,,,,,,,,,,,,
,,,,,,,,,5bcd6ea508a62c0001f8c85a,36,Mężczyzna,2022-06-04_08h37.05.303,task,2021.1.4,Win32,60.0240096,628b806c463b948bc644b84f,629afd6c5151092c66abf28c,,,,,,0,0,0,0,1,X V Q F H G B L J M P D K C T S W R N Z,,,,,,,,,,,,,,,,,,,,,,,,,,,,,,,,,,,,,,,,,,,,,,,,,,,,,,,,,,,,,,,,,,,,,,,,,,,,,,,,,,,,,,,,,,,,,
,,,,,,,,,5bcd6ea508a62c0001f8c85a,36,Mężczyzna,2022-06-04_08h37.05.303,task,2021.1.4,Win32,60.0240096,628b806c463b948bc644b84f,629afd6c5151092c66abf28c,,,,,,1,0,1,0,1,X V Q F H G B L J M P D K C T S W R N Z,,,,,,,,,,,,,,,,,,,,,,,,,,,,,,,,,,,,,,,,,,,,,,,,,,,,,,,,,,,,,,,,,,,,,,,,,,,,,,,,,,,,,,,,,,,,,
,,,,,,,,,5bcd6ea508a62c0001f8c85a,36,Mężczyzna,2022-06-04_08h37.05.303,task,2021.1.4,Win32,60.0240096,628b806c463b948bc644b84f,629afd6c5151092c66abf28c,,,,,,,,,,,,pn,"[""p"",""n""]","[1.6739999999999782,1.9350000000000023,2.7069999999999936]",1,PN,1,0,1,0,1,,,,,,,,,,,,,,,,,,,,,,,,,,,,,,,,,,,,,,,,,,,,,,,,,,,,,,,,,,,,,,,,,,,,,,,,,,,,,,,,,,,
,,,,,,,,,5bcd6ea508a62c0001f8c85a,36,Mężczyzna,2022-06-04_08h37.05.303,task,2021.1.4,Win32,60.0240096,628b806c463b948bc644b84f,629afd6c5151092c66abf28c,,,,,,0,0,0,0,1,X V Q F H G B L J M P D K C T S W R N Z,,,,,,,,,,,,,,,,,,,,,,,,,,,,,,,,,,,,,,,,,,,,,,,,,,,,,,,,,,,,,,,,,,,,,,,,,,,,,,,,,,,,,,,,,,,,,
,,,,,,,,,5bcd6ea508a62c0001f8c85a,36,Mężczyzna,2022-06-04_08h37.05.303,task,2021.1.4,Win32,60.0240096,628b806c463b948bc644b84f,629afd6c5151092c66abf28c,,,,,,1,0,1,0,1,X V Q F H G B L J M P D K C T S W R N Z,,,,,,,,,,,,,,,,,,,,,,,,,,,,,,,,,,,,,,,,,,,,,,,,,,,,,,,,,,,,,,,,,,,,,,,,,,,,,,,,,,,,,,,,,,,,,
,,,,,,,,,5bcd6ea508a62c0001f8c85a,36,Mężczyzna,2022-06-04_08h37.05.303,task,2021.1.4,Win32,60.0240096,628b806c463b948bc644b84f,629afd6c5151092c66abf28c,,,,,,2,0,2,0,1,X V Q F H G B L J M P D K C T S W R N Z,,,,,,,,,,,,,,,,,,,,,,,,,,,,,,,,,,,,,,,,,,,,,,,,,,,,,,,,,,,,,,,,,,,,,,,,,,,,,,,,,,,,,,,,,,,,,
,,,,,,,,,5bcd6ea508a62c0001f8c85a,36,Mężczyzna,2022-06-04_08h37.05.303,task,2021.1.4,Win32,60.0240096,628b806c463b948bc644b84f,629afd6c5151092c66abf28c,,,,,,,,,,,,xgs,"[""x"",""g"",""s""]","[4.834000000000003,5.333000000000027,5.649999999999977,6.588000000000022]",1,XGS,2,0,2,0,1,,,,,,,,,,,,,,,,,,,,,,,,,,,,,,,,,,,,,,,,,,,,,,,,,,,,,,,,,,,,,,,,,,,,,,,,,,,,,,,,,,,
,,,,,,,,,5bcd6ea508a62c0001f8c85a,36,Mężczyzna,2022-06-04_08h37.05.303,task,2021.1.4,Win32,60.0240096,628b806c463b948bc644b84f,629afd6c5151092c66abf28c,,,,,,0,0,0,0,1,X V Q F H G B L J M P D K C T S W R N Z,,,,,,,,,,,,,,,,,,,,,,,,,,,,,,,,,,,,,,,,,,,,,,,,,,,,,,,,,,,,,,,,,,,,,,,,,,,,,,,,,,,,,,,,,,,,,
,,,,,,,,,5bcd6ea508a62c0001f8c85a,36,Mężczyzna,2022-06-04_08h37.05.303,task,2021.1.4,Win32,60.0240096,628b806c463b948bc644b84f,629afd6c5151092c66abf28c,,,,,,1,0,1,0,1,X V Q F H G B L J M P D K C T S W R N Z,,,,,,,,,,,,,,,,,,,,,,,,,,,,,,,,,,,,,,,,,,,,,,,,,,,,,,,,,,,,,,,,,,,,,,,,,,,,,,,,,,,,,,,,,,,,,
,,,,,,,,,5bcd6ea508a62c0001f8c85a,36,Mężczyzna,2022-06-04_08h37.05.303,task,2021.1.4,Win32,60.0240096,628b806c463b948bc644b84f,629afd6c5151092c66abf28c,,,,,,2,0,2,0,1,X V Q F H G B L J M P D K C T S W R N Z,,,,,,,,,,,,,,,,,,,,,,,,,,,,,,,,,,,,,,,,,,,,,,,,,,,,,,,,,,,,,,,,,,,,,,,,,,,,,,,,,,,,,,,,,,,,,
,,,,,,,,,5bcd6ea508a62c0001f8c85a,36,Mężczyzna,2022-06-04_08h37.05.303,task,2021.1.4,Win32,60.0240096,628b806c463b948bc644b84f,629afd6c5151092c66abf28c,,,,,,,,,,,,hrr,"[""h"",""r"",""r""]","[1.3659999999999854,1.7339999999999804,1.8870000000000005,2.535000000000025]",1,HRR,3,0,3,0,1,,,,,,,,,,,,,,,,,,,,,,,,,,,,,,,,,,,,,,,,,,,,,,,,,,,,,,,,,,,,,,,,,,,,,,,,,,,,,,,,,,,
,,,,,,,,,5bcd6ea508a62c0001f8c85a,36,Mężczyzna,2022-06-04_08h37.05.303,task,2021.1.4,Win32,60.0240096,628b806c463b948bc644b84f,629afd6c5151092c66abf28c,,,,,,0,0,0,0,1,X V Q F H G B L J M P D K C T S W R N Z,,,,,,,,,,,,,,,,,,,,,,,,,,,,,,,,,,,,,,,,,,,,,,,,,,,,,,,,,,,,,,,,,,,,,,,,,,,,,,,,,,,,,,,,,,,,,
,,,,,,,,,5bcd6ea508a62c0001f8c85a,36,Mężczyzna,2022-06-04_08h37.05.303,task,2021.1.4,Win32,60.0240096,628b806c463b948bc644b84f,629afd6c5151092c66abf28c,,,,,,1,0,1,0,1,X V Q F H G B L J M P D K C T S W R N Z,,,,,,,,,,,,,,,,,,,,,,,,,,,,,,,,,,,,,,,,,,,,,,,,,,,,,,,,,,,,,,,,,,,,,,,,,,,,,,,,,,,,,,,,,,,,,
,,,,,,,,,5bcd6ea508a62c0001f8c85a,36,Mężczyzna,2022-06-04_08h37.05.303,task,2021.1.4,Win32,60.0240096,628b806c463b948bc644b84f,629afd6c5151092c66abf28c,,,,,,2,0,2,0,1,X V Q F H G B L J M P D K C T S W R N Z,,,,,,,,,,,,,,,,,,,,,,,,,,,,,,,,,,,,,,,,,,,,,,,,,,,,,,,,,,,,,,,,,,,,,,,,,,,,,,,,,,,,,,,,,,,,,
,,,,,,,,,5bcd6ea508a62c0001f8c85a,36,Mężczyzna,2022-06-04_08h37.05.303,task,2021.1.4,Win32,60.0240096,628b806c463b948bc644b84f,629afd6c5151092c66abf28c,,,,,,3,0,3,0,1,X V Q F H G B L J M P D K C T S W R N Z,,,,,,,,,,,,,,,,,,,,,,,,,,,,,,,,,,,,,,,,,,,,,,,,,,,,,,,,,,,,,,,,,,,,,,,,,,,,,,,,,,,,,,,,,,,,,
,,,,,,,,,5bcd6ea508a62c0001f8c85a,36,Mężczyzna,2022-06-04_08h37.05.303,task,2021.1.4,Win32,60.0240096,628b806c463b948bc644b84f,629afd6c5151092c66abf28c,,,,,,,,,,,,rwzw,"[""r"",""w"",""z"",""w""]","[1.2000000000000455,1.5,1.7650000000000432,2.1829999999999927,2.7170000000000414]",1,RWZW,4,0,4,0,1,,,,,,,,,,,,,,,,,,,,,,,,,,,,,,,,,,,,,,,,,,,,,,,,,,,,,,,,,,,,,,,,,,,,,,,,,,,,,,,,,,,
,,,,,,,,,5bcd6ea508a62c0001f8c85a,36,Mężczyzna,2022-06-04_08h37.05.303,task,2021.1.4,Win32,60.0240096,628b806c463b948bc644b84f,629afd6c5151092c66abf28c,,,,,,0,0,0,0,1,X V Q F H G B L J M P D K C T S W R N Z,,,,,,,,,,,,,,,,,,,,,,,,,,,,,,,,,,,,,,,,,,,,,,,,,,,,,,,,,,,,,,,,,,,,,,,,,,,,,,,,,,,,,,,,,,,,,
,,,,,,,,,5bcd6ea508a62c0001f8c85a,36,Mężczyzna,2022-06-04_08h37.05.303,task,2021.1.4,Win32,60.0240096,628b806c463b948bc644b84f,629afd6c5151092c66abf28c,,,,,,1,0,1,0,1,X V Q F H G B L J M P D K C T S W R N Z,,,,,,,,,,,,,,,,,,,,,,,,,,,,,,,,,,,,,,,,,,,,,,,,,,,,,,,,,,,,,,,,,,,,,,,,,,,,,,,,,,,,,,,,,,,,,
,,,,,,,,,5bcd6ea508a62c0001f8c85a,36,Mężczyzna,2022-06-04_08h37.05.303,task,2021.1.4,Win32,60.0240096,628b806c463b948bc644b84f,629afd6c5151092c66abf28c,,,,,,2,0,2,0,1,X V Q F H G B L J M P D K C T S W R N Z,,,,,,,,,,,,,,,,,,,,,,,,,,,,,,,,,,,,,,,,,,,,,,,,,,,,,,,,,,,,,,,,,,,,,,,,,,,,,,,,,,,,,,,,,,,,,
,,,,,,,,,5bcd6ea508a62c0001f8c85a,36,Mężczyzna,2022-06-04_08h37.05.303,task,2021.1.4,Win32,60.0240096,628b806c463b948bc644b84f,629afd6c5151092c66abf28c,,,,,,3,0,3,0,1,X V Q F H G B L J M P D K C T S W R N Z,,,,,,,,,,,,,,,,,,,,,,,,,,,,,,,,,,,,,,,,,,,,,,,,,,,,,,,,,,,,,,,,,,,,,,,,,,,,,,,,,,,,,,,,,,,,,
,,,,,,,,,5bcd6ea508a62c0001f8c85a,36,Mężczyzna,2022-06-04_08h37.05.303,task,2021.1.4,Win32,60.0240096,628b806c463b948bc644b84f,629afd6c5151092c66abf28c,,,,,,,,,,,,dvzj,"[""d"",""v"",""z"",""j""]","[1.0319999999999823,1.75,2.1329999999999814,2.5160000000000196,3.233000000000004]",1,DVZJ,5,0,5,0,1,,,,,,,,,,,,,,,,,,,,,,,,,,,,,,,,,,,,,,,,,,,,,,,,,,,,,,,,,,,,,,,,,,,,,,,,,,,,,,,,,,,
,,,,,,,,,5bcd6ea508a62c0001f8c85a,36,Mężczyzna,2022-06-04_08h37.05.303,task,2021.1.4,Win32,60.0240096,628b806c463b948bc644b84f,629afd6c5151092c66abf28c,,,,,,0,0,0,0,1,X V Q F H G B L J M P D K C T S W R N Z,,,,,,,,,,,,,,,,,,,,,,,,,,,,,,,,,,,,,,,,,,,,,,,,,,,,,,,,,,,,,,,,,,,,,,,,,,,,,,,,,,,,,,,,,,,,,
,,,,,,,,,5bcd6ea508a62c0001f8c85a,36,Mężczyzna,2022-06-04_08h37.05.303,task,2021.1.4,Win32,60.0240096,628b806c463b948bc644b84f,629afd6c5151092c66abf28c,,,,,,1,0,1,0,1,X V Q F H G B L J M P D K C T S W R N Z,,,,,,,,,,,,,,,,,,,,,,,,,,,,,,,,,,,,,,,,,,,,,,,,,,,,,,,,,,,,,,,,,,,,,,,,,,,,,,,,,,,,,,,,,,,,,
,,,,,,,,,5bcd6ea508a62c0001f8c85a,36,Mężczyzna,2022-06-04_08h37.05.303,task,2021.1.4,Win32,60.0240096,628b806c463b948bc644b84f,629afd6c5151092c66abf28c,,,,,,2,0,2,0,1,X V Q F H G B L J M P D K C T S W R N Z,,,,,,,,,,,,,,,,,,,,,,,,,,,,,,,,,,,,,,,,,,,,,,,,,,,,,,,,,,,,,,,,,,,,,,,,,,,,,,,,,,,,,,,,,,,,,
,,,,,,,,,5bcd6ea508a62c0001f8c85a,36,Mężczyzna,2022-06-04_08h37.05.303,task,2021.1.4,Win32,60.0240096,628b806c463b948bc644b84f,629afd6c5151092c66abf28c,,,,,,3,0,3,0,1,X V Q F H G B L J M P D K C T S W R N Z,,,,,,,,,,,,,,,,,,,,,,,,,,,,,,,,,,,,,,,,,,,,,,,,,,,,,,,,,,,,,,,,,,,,,,,,,,,,,,,,,,,,,,,,,,,,,
,,,,,,,,,5bcd6ea508a62c0001f8c85a,36,Mężczyzna,2022-06-04_08h37.05.303,task,2021.1.4,Win32,60.0240096,628b806c463b948bc644b84f,629afd6c5151092c66abf28c,,,,,,4,0,4,0,1,X V Q F H G B L J M P D K C T S W R N Z,,,,,,,,,,,,,,,,,,,,,,,,,,,,,,,,,,,,,,,,,,,,,,,,,,,,,,,,,,,,,,,,,,,,,,,,,,,,,,,,,,,,,,,,,,,,,
,,,,,,,,,5bcd6ea508a62c0001f8c85a,36,Mężczyzna,2022-06-04_08h37.05.303,task,2021.1.4,Win32,60.0240096,628b806c463b948bc644b84f,629afd6c5151092c66abf28c,,,,,,,,,,,,dtxsk,"[""d"",""t"",""x"",""s"",""k""]","[1.132000000000005,1.3840000000000146,3.8360000000000127,4.055000000000007,4.499000000000024,4.984000000000037]",1,DTXSK,6,0,6,0,1,,,,,,,,,,,,,,,,,,,,,,,,,,,,,,,,,,,,,,,,,,,,,,,,,,,,,,,,,,,,,,,,,,,,,,,,,,,,,,,,,,,
,,,,,,,,,5bcd6ea508a62c0001f8c85a,36,Mężczyzna,2022-06-04_08h37.05.303,task,2021.1.4,Win32,60.0240096,628b806c463b948bc644b84f,629afd6c5151092c66abf28c,,,,,,0,0,0,0,1,X V Q F H G B L J M P D K C T S W R N Z,,,,,,,,,,,,,,,,,,,,,,,,,,,,,,,,,,,,,,,,,,,,,,,,,,,,,,,,,,,,,,,,,,,,,,,,,,,,,,,,,,,,,,,,,,,,,
,,,,,,,,,5bcd6ea508a62c0001f8c85a,36,Mężczyzna,2022-06-04_08h37.05.303,task,2021.1.4,Win32,60.0240096,628b806c463b948bc644b84f,629afd6c5151092c66abf28c,,,,,,1,0,1,0,1,X V Q F H G B L J M P D K C T S W R N Z,,,,,,,,,,,,,,,,,,,,,,,,,,,,,,,,,,,,,,,,,,,,,,,,,,,,,,,,,,,,,,,,,,,,,,,,,,,,,,,,,,,,,,,,,,,,,
,,,,,,,,,5bcd6ea508a62c0001f8c85a,36,Mężczyzna,2022-06-04_08h37.05.303,task,2021.1.4,Win32,60.0240096,628b806c463b948bc644b84f,629afd6c5151092c66abf28c,,,,,,2,0,2,0,1,X V Q F H G B L J M P D K C T S W R N Z,,,,,,,,,,,,,,,,,,,,,,,,,,,,,,,,,,,,,,,,,,,,,,,,,,,,,,,,,,,,,,,,,,,,,,,,,,,,,,,,,,,,,,,,,,,,,
,,,,,,,,,5bcd6ea508a62c0001f8c85a,36,Mężczyzna,2022-06-04_08h37.05.303,task,2021.1.4,Win32,60.0240096,628b806c463b948bc644b84f,629afd6c5151092c66abf28c,,,,,,3,0,3,0,1,X V Q F H G B L J M P D K C T S W R N Z,,,,,,,,,,,,,,,,,,,,,,,,,,,,,,,,,,,,,,,,,,,,,,,,,,,,,,,,,,,,,,,,,,,,,,,,,,,,,,,,,,,,,,,,,,,,,
,,,,,,,,,5bcd6ea508a62c0001f8c85a,36,Mężczyzna,2022-06-04_08h37.05.303,task,2021.1.4,Win32,60.0240096,628b806c463b948bc644b84f,629afd6c5151092c66abf28c,,,,,,4,0,4,0,1,X V Q F H G B L J M P D K C T S W R N Z,,,,,,,,,,,,,,,,,,,,,,,,,,,,,,,,,,,,,,,,,,,,,,,,,,,,,,,,,,,,,,,,,,,,,,,,,,,,,,,,,,,,,,,,,,,,,
,,,,,,,,,5bcd6ea508a62c0001f8c85a,36,Mężczyzna,2022-06-04_08h37.05.303,task,2021.1.4,Win32,60.0240096,628b806c463b948bc644b84f,629afd6c5151092c66abf28c,,,,,,,,,,,,ktbdh,"[""k"",""t"",""b"",""d"",""h""]","[0.9670000000000414,1.5300000000000296,2.001000000000033,2.6340000000000146,3.134999999999991,3.980000000000018]",1,KTBDH,7,0,7,0,1,,,,,,,,,,,,,,,,,,,,,,,,,,,,,,,,,,,,,,,,,,,,,,,,,,,,,,,,,,,,,,,,,,,,,,,,,,,,,,,,,,,
,,,,,,,,,5bcd6ea508a62c0001f8c85a,36,Mężczyzna,2022-06-04_08h37.05.303,task,2021.1.4,Win32,60.0240096,628b806c463b948bc644b84f,629afd6c5151092c66abf28c,,,,,,0,0,0,0,1,X V Q F H G B L J M P D K C T S W R N Z,,,,,,,,,,,,,,,,,,,,,,,,,,,,,,,,,,,,,,,,,,,,,,,,,,,,,,,,,,,,,,,,,,,,,,,,,,,,,,,,,,,,,,,,,,,,,
,,,,,,,,,5bcd6ea508a62c0001f8c85a,36,Mężczyzna,2022-06-04_08h37.05.303,task,2021.1.4,Win32,60.0240096,628b806c463b948bc644b84f,629afd6c5151092c66abf28c,,,,,,1,0,1,0,1,X V Q F H G B L J M P D K C T S W R N Z,,,,,,,,,,,,,,,,,,,,,,,,,,,,,,,,,,,,,,,,,,,,,,,,,,,,,,,,,,,,,,,,,,,,,,,,,,,,,,,,,,,,,,,,,,,,,
,,,,,,,,,5bcd6ea508a62c0001f8c85a,36,Mężczyzna,2022-06-04_08h37.05.303,task,2021.1.4,Win32,60.0240096,628b806c463b948bc644b84f,629afd6c5151092c66abf28c,,,,,,2,0,2,0,1,X V Q F H G B L J M P D K C T S W R N Z,,,,,,,,,,,,,,,,,,,,,,,,,,,,,,,,,,,,,,,,,,,,,,,,,,,,,,,,,,,,,,,,,,,,,,,,,,,,,,,,,,,,,,,,,,,,,
,,,,,,,,,5bcd6ea508a62c0001f8c85a,36,Mężczyzna,2022-06-04_08h37.05.303,task,2021.1.4,Win32,60.0240096,628b806c463b948bc644b84f,629afd6c5151092c66abf28c,,,,,,3,0,3,0,1,X V Q F H G B L J M P D K C T S W R N Z,,,,,,,,,,,,,,,,,,,,,,,,,,,,,,,,,,,,,,,,,,,,,,,,,,,,,,,,,,,,,,,,,,,,,,,,,,,,,,,,,,,,,,,,,,,,,
,,,,,,,,,5bcd6ea508a62c0001f8c85a,36,Mężczyzna,2022-06-04_08h37.05.303,task,2021.1.4,Win32,60.0240096,628b806c463b948bc644b84f,629afd6c5151092c66abf28c,,,,,,4,0,4,0,1,X V Q F H G B L J M P D K C T S W R N Z,,,,,,,,,,,,,,,,,,,,,,,,,,,,,,,,,,,,,,,,,,,,,,,,,,,,,,,,,,,,,,,,,,,,,,,,,,,,,,,,,,,,,,,,,,,,,
,,,,,,,,,5bcd6ea508a62c0001f8c85a,36,Mężczyzna,2022-06-04_08h37.05.303,task,2021.1.4,Win32,60.0240096,628b806c463b948bc644b84f,629afd6c5151092c66abf28c,,,,,,5,0,5,0,1,X V Q F H G B L J M P D K C T S W R N Z,,,,,,,,,,,,,,,,,,,,,,,,,,,,,,,,,,,,,,,,,,,,,,,,,,,,,,,,,,,,,,,,,,,,,,,,,,,,,,,,,,,,,,,,,,,,,
,,,,,,,,,5bcd6ea508a62c0001f8c85a,36,Mężczyzna,2022-06-04_08h37.05.303,task,2021.1.4,Win32,60.0240096,628b806c463b948bc644b84f,629afd6c5151092c66abf28c,,,,,,,,,,,,bzwjrj,"[""b"",""z"",""w"",""j"",""r"",""j""]","[1.9839999999999804,2.4350000000000023,2.7379999999999995,3.315999999999974,3.6499999999999773,4.315999999999974,14.01600000000002]",1,BZWJRJ,8,0,8,0,1,,,,,,,,,,,,,,,,,,,,,,,,,,,,,,,,,,,,,,,,,,,,,,,,,,,,,,,,,,,,,,,,,,,,,,,,,,,,,,,,,,,
,,,,,,,,,5bcd6ea508a62c0001f8c85a,36,Mężczyzna,2022-06-04_08h37.05.303,task,2021.1.4,Win32,60.0240096,628b806c463b948bc644b84f,629afd6c5151092c66abf28c,,,,,,0,0,0,0,1,X V Q F H G B L J M P D K C T S W R N Z,,,,,,,,,,,,,,,,,,,,,,,,,,,,,,,,,,,,,,,,,,,,,,,,,,,,,,,,,,,,,,,,,,,,,,,,,,,,,,,,,,,,,,,,,,,,,
,,,,,,,,,5bcd6ea508a62c0001f8c85a,36,Mężczyzna,2022-06-04_08h37.05.303,task,2021.1.4,Win32,60.0240096,628b806c463b948bc644b84f,629afd6c5151092c66abf28c,,,,,,1,0,1,0,1,X V Q F H G B L J M P D K C T S W R N Z,,,,,,,,,,,,,,,,,,,,,,,,,,,,,,,,,,,,,,,,,,,,,,,,,,,,,,,,,,,,,,,,,,,,,,,,,,,,,,,,,,,,,,,,,,,,,
,,,,,,,,,5bcd6ea508a62c0001f8c85a,36,Mężczyzna,2022-06-04_08h37.05.303,task,2021.1.4,Win32,60.0240096,628b806c463b948bc644b84f,629afd6c5151092c66abf28c,,,,,,2,0,2,0,1,X V Q F H G B L J M P D K C T S W R N Z,,,,,,,,,,,,,,,,,,,,,,,,,,,,,,,,,,,,,,,,,,,,,,,,,,,,,,,,,,,,,,,,,,,,,,,,,,,,,,,,,,,,,,,,,,,,,
,,,,,,,,,5bcd6ea508a62c0001f8c85a,36,Mężczyzna,2022-06-04_08h37.05.303,task,2021.1.4,Win32,60.0240096,628b806c463b948bc644b84f,629afd6c5151092c66abf28c,,,,,,3,0,3,0,1,X V Q F H G B L J M P D K C T S W R N Z,,,,,,,,,,,,,,,,,,,,,,,,,,,,,,,,,,,,,,,,,,,,,,,,,,,,,,,,,,,,,,,,,,,,,,,,,,,,,,,,,,,,,,,,,,,,,
,,,,,,,,,5bcd6ea508a62c0001f8c85a,36,Mężczyzna,2022-06-04_08h37.05.303,task,2021.1.4,Win32,60.0240096,628b806c463b948bc644b84f,629afd6c5151092c66abf28c,,,,,,4,0,4,0,1,X V Q F H G B L J M P D K C T S W R N Z,,,,,,,,,,,,,,,,,,,,,,,,,,,,,,,,,,,,,,,,,,,,,,,,,,,,,,,,,,,,,,,,,,,,,,,,,,,,,,,,,,,,,,,,,,,,,
,,,,,,,,,5bcd6ea508a62c0001f8c85a,36,Mężczyzna,2022-06-04_08h37.05.303,task,2021.1.4,Win32,60.0240096,628b806c463b948bc644b84f,629afd6c5151092c66abf28c,,,,,,5,0,5,0,1,X V Q F H G B L J M P D K C T S W R N Z,,,,,,,,,,,,,,,,,,,,,,,,,,,,,,,,,,,,,,,,,,,,,,,,,,,,,,,,,,,,,,,,,,,,,,,,,,,,,,,,,,,,,,,,,,,,,
,,,,,,,,,5bcd6ea508a62c0001f8c85a,36,Mężczyzna,2022-06-04_08h37.05.303,task,2021.1.4,Win32,60.0240096,628b806c463b948bc644b84f,629afd6c5151092c66abf28c,,,,,,,,,,,,gsfknd,"[""g"",""s"",""f"",""k"",""n"",""d""]","[2.301999999999964,2.5989999999999895,4.6159999999999854,5.483000000000004,5.884999999999991,6.748999999999967,7.183999999999969]",1,GSFKND,9,0,9,0,1,,,,,,,,,,,,,,,,,,,,,,,,,,,,,,,,,,,,,,,,,,,,,,,,,,,,,,,,,,,,,,,,,,,,,,,,,,,,,,,,,,,
,,,,,,,,,5bcd6ea508a62c0001f8c85a,36,Mężczyzna,2022-06-04_08h37.05.303,task,2021.1.4,Win32,60.0240096,628b806c463b948bc644b84f,629afd6c5151092c66abf28c,,,,,,0,0,0,0,1,X V Q F H G B L J M P D K C T S W R N Z,,,,,,,,,,,,,,,,,,,,,,,,,,,,,,,,,,,,,,,,,,,,,,,,,,,,,,,,,,,,,,,,,,,,,,,,,,,,,,,,,,,,,,,,,,,,,
,,,,,,,,,5bcd6ea508a62c0001f8c85a,36,Mężczyzna,2022-06-04_08h37.05.303,task,2021.1.4,Win32,60.0240096,628b806c463b948bc644b84f,629afd6c5151092c66abf28c,,,,,,1,0,1,0,1,X V Q F H G B L J M P D K C T S W R N Z,,,,,,,,,,,,,,,,,,,,,,,,,,,,,,,,,,,,,,,,,,,,,,,,,,,,,,,,,,,,,,,,,,,,,,,,,,,,,,,,,,,,,,,,,,,,,
,,,,,,,,,5bcd6ea508a62c0001f8c85a,36,Mężczyzna,2022-06-04_08h37.05.303,task,2021.1.4,Win32,60.0240096,628b806c463b948bc644b84f,629afd6c5151092c66abf28c,,,,,,2,0,2,0,1,X V Q F H G B L J M P D K C T S W R N Z,,,,,,,,,,,,,,,,,,,,,,,,,,,,,,,,,,,,,,,,,,,,,,,,,,,,,,,,,,,,,,,,,,,,,,,,,,,,,,,,,,,,,,,,,,,,,
,,,,,,,,,5bcd6ea508a62c0001f8c85a,36,Mężczyzna,2022-06-04_08h37.05.303,task,2021.1.4,Win32,60.0240096,628b806c463b948bc644b84f,629afd6c5151092c66abf28c,,,,,,3,0,3,0,1,X V Q F H G B L J M P D K C T S W R N Z,,,,,,,,,,,,,,,,,,,,,,,,,,,,,,,,,,,,,,,,,,,,,,,,,,,,,,,,,,,,,,,,,,,,,,,,,,,,,,,,,,,,,,,,,,,,,
,,,,,,,,,5bcd6ea508a62c0001f8c85a,36,Mężczyzna,2022-06-04_08h37.05.303,task,2021.1.4,Win32,60.0240096,628b806c463b948bc644b84f,629afd6c5151092c66abf28c,,,,,,4,0,4,0,1,X V Q F H G B L J M P D K C T S W R N Z,,,,,,,,,,,,,,,,,,,,,,,,,,,,,,,,,,,,,,,,,,,,,,,,,,,,,,,,,,,,,,,,,,,,,,,,,,,,,,,,,,,,,,,,,,,,,
,,,,,,,,,5bcd6ea508a62c0001f8c85a,36,Mężczyzna,2022-06-04_08h37.05.303,task,2021.1.4,Win32,60.0240096,628b806c463b948bc644b84f,629afd6c5151092c66abf28c,,,,,,5,0,5,0,1,X V Q F H G B L J M P D K C T S W R N Z,,,,,,,,,,,,,,,,,,,,,,,,,,,,,,,,,,,,,,,,,,,,,,,,,,,,,,,,,,,,,,,,,,,,,,,,,,,,,,,,,,,,,,,,,,,,,
,,,,,,,,,5bcd6ea508a62c0001f8c85a,36,Mężczyzna,2022-06-04_08h37.05.303,task,2021.1.4,Win32,60.0240096,628b806c463b948bc644b84f,629afd6c5151092c66abf28c,,,,,,6,0,6,0,1,X V Q F H G B L J M P D K C T S W R N Z,,,,,,,,,,,,,,,,,,,,,,,,,,,,,,,,,,,,,,,,,,,,,,,,,,,,,,,,,,,,,,,,,,,,,,,,,,,,,,,,,,,,,,,,,,,,,
,,,,,,,,,5bcd6ea508a62c0001f8c85a,36,Mężczyzna,2022-06-04_08h37.05.303,task,2021.1.4,Win32,60.0240096,628b806c463b948bc644b84f,629afd6c5151092c66abf28c,,,,,,,,,,,,qddstxp,"[""q"",""d"",""d"",""s"",""t"",""x"",""p""]","[3.316000000000031,4.265999999999963,4.483999999999924,6.997999999999934,7.749000000000024,8.848999999999933,9.514999999999986,10.566000000000031]",1,QDDSTXP,10,0,10,0,1,,,,,,,,,,,,,,,,,,,,,,,,,,,,,,,,,,,,,,,,,,,,,,,,,,,,,,,,,,,,,,,,,,,,,,,,,,,,,,,,,,,
,,,,,,,,,5bcd6ea508a62c0001f8c85a,36,Mężczyzna,2022-06-04_08h37.05.303,task,2021.1.4,Win32,60.0240096,628b806c463b948bc644b84f,629afd6c5151092c66abf28c,,,,,,0,0,0,0,1,X V Q F H G B L J M P D K C T S W R N Z,,,,,,,,,,,,,,,,,,,,,,,,,,,,,,,,,,,,,,,,,,,,,,,,,,,,,,,,,,,,,,,,,,,,,,,,,,,,,,,,,,,,,,,,,,,,,
,,,,,,,,,5bcd6ea508a62c0001f8c85a,36,Mężczyzna,2022-06-04_08h37.05.303,task,2021.1.4,Win32,60.0240096,628b806c463b948bc644b84f,629afd6c5151092c66abf28c,,,,,,1,0,1,0,1,X V Q F H G B L J M P D K C T S W R N Z,,,,,,,,,,,,,,,,,,,,,,,,,,,,,,,,,,,,,,,,,,,,,,,,,,,,,,,,,,,,,,,,,,,,,,,,,,,,,,,,,,,,,,,,,,,,,
,,,,,,,,,5bcd6ea508a62c0001f8c85a,36,Mężczyzna,2022-06-04_08h37.05.303,task,2021.1.4,Win32,60.0240096,628b806c463b948bc644b84f,629afd6c5151092c66abf28c,,,,,,2,0,2,0,1,X V Q F H G B L J M P D K C T S W R N Z,,,,,,,,,,,,,,,,,,,,,,,,,,,,,,,,,,,,,,,,,,,,,,,,,,,,,,,,,,,,,,,,,,,,,,,,,,,,,,,,,,,,,,,,,,,,,
,,,,,,,,,5bcd6ea508a62c0001f8c85a,36,Mężczyzna,2022-06-04_08h37.05.303,task,2021.1.4,Win32,60.0240096,628b806c463b948bc644b84f,629afd6c5151092c66abf28c,,,,,,3,0,3,0,1,X V Q F H G B L J M P D K C T S W R N Z,,,,,,,,,,,,,,,,,,,,,,,,,,,,,,,,,,,,,,,,,,,,,,,,,,,,,,,,,,,,,,,,,,,,,,,,,,,,,,,,,,,,,,,,,,,,,
,,,,,,,,,5bcd6ea508a62c0001f8c85a,36,Mężczyzna,2022-06-04_08h37.05.303,task,2021.1.4,Win32,60.0240096,628b806c463b948bc644b84f,629afd6c5151092c66abf28c,,,,,,4,0,4,0,1,X V Q F H G B L J M P D K C T S W R N Z,,,,,,,,,,,,,,,,,,,,,,,,,,,,,,,,,,,,,,,,,,,,,,,,,,,,,,,,,,,,,,,,,,,,,,,,,,,,,,,,,,,,,,,,,,,,,
,,,,,,,,,5bcd6ea508a62c0001f8c85a,36,Mężczyzna,2022-06-04_08h37.05.303,task,2021.1.4,Win32,60.0240096,628b806c463b948bc644b84f,629afd6c5151092c66abf28c,,,,,,5,0,5,0,1,X V Q F H G B L J M P D K C T S W R N Z,,,,,,,,,,,,,,,,,,,,,,,,,,,,,,,,,,,,,,,,,,,,,,,,,,,,,,,,,,,,,,,,,,,,,,,,,,,,,,,,,,,,,,,,,,,,,
,,,,,,,,,5bcd6ea508a62c0001f8c85a,36,Mężczyzna,2022-06-04_08h37.05.303,task,2021.1.4,Win32,60.0240096,628b806c463b948bc644b84f,629afd6c5151092c66abf28c,,,,,,6,0,6,0,1,X V Q F H G B L J M P D K C T S W R N Z,,,,,,,,,,,,,,,,,,,,,,,,,,,,,,,,,,,,,,,,,,,,,,,,,,,,,,,,,,,,,,,,,,,,,,,,,,,,,,,,,,,,,,,,,,,,,
,,,,,,,,,5bcd6ea508a62c0001f8c85a,36,Mężczyzna,2022-06-04_08h37.05.303,task,2021.1.4,Win32,60.0240096,628b806c463b948bc644b84f,629afd6c5151092c66abf28c,,,,,,,,,,,,msjjqzq,"[""m"",""s"",""j"",""j"",""q"",""z"",""q""]","[2.4149999999999636,2.93100000000004,4.448999999999955,4.697999999999979,5.664999999999964,6.081000000000017,6.9809999999999945,7.467999999999961]",1,MSJJQZQ,11,0,11,0,1,,,,,,,,,,,,,,,,,,,,,,,,,,,,,,,,,,,,,,,,,,,,,,,,,,,,,,,,,,,,,,,,,,,,,,,,,,,,,,,,,,,
,,,,,,,,,5bcd6ea508a62c0001f8c85a,36,Mężczyzna,2022-06-04_08h37.05.303,task,2021.1.4,Win32,60.0240096,628b806c463b948bc644b84f,629afd6c5151092c66abf28c,,,,,,0,0,0,0,1,X V Q F H G B L J M P D K C T S W R N Z,,,,,,,,,,,,,,,,,,,,,,,,,,,,,,,,,,,,,,,,,,,,,,,,,,,,,,,,,,,,,,,,,,,,,,,,,,,,,,,,,,,,,,,,,,,,,
,,,,,,,,,5bcd6ea508a62c0001f8c85a,36,Mężczyzna,2022-06-04_08h37.05.303,task,2021.1.4,Win32,60.0240096,628b806c463b948bc644b84f,629afd6c5151092c66abf28c,,,,,,1,0,1,0,1,X V Q F H G B L J M P D K C T S W R N Z,,,,,,,,,,,,,,,,,,,,,,,,,,,,,,,,,,,,,,,,,,,,,,,,,,,,,,,,,,,,,,,,,,,,,,,,,,,,,,,,,,,,,,,,,,,,,
,,,,,,,,,5bcd6ea508a62c0001f8c85a,36,Mężczyzna,2022-06-04_08h37.05.303,task,2021.1.4,Win32,60.0240096,628b806c463b948bc644b84f,629afd6c5151092c66abf28c,,,,,,2,0,2,0,1,X V Q F H G B L J M P D K C T S W R N Z,,,,,,,,,,,,,,,,,,,,,,,,,,,,,,,,,,,,,,,,,,,,,,,,,,,,,,,,,,,,,,,,,,,,,,,,,,,,,,,,,,,,,,,,,,,,,
,,,,,,,,,5bcd6ea508a62c0001f8c85a,36,Mężczyzna,2022-06-04_08h37.05.303,task,2021.1.4,Win32,60.0240096,628b806c463b948bc644b84f,629afd6c5151092c66abf28c,,,,,,3,0,3,0,1,X V Q F H G B L J M P D K C T S W R N Z,,,,,,,,,,,,,,,,,,,,,,,,,,,,,,,,,,,,,,,,,,,,,,,,,,,,,,,,,,,,,,,,,,,,,,,,,,,,,,,,,,,,,,,,,,,,,
,,,,,,,,,5bcd6ea508a62c0001f8c85a,36,Mężczyzna,2022-06-04_08h37.05.303,task,2021.1.4,Win32,60.0240096,628b806c463b948bc644b84f,629afd6c5151092c66abf28c,,,,,,4,0,4,0,1,X V Q F H G B L J M P D K C T S W R N Z,,,,,,,,,,,,,,,,,,,,,,,,,,,,,,,,,,,,,,,,,,,,,,,,,,,,,,,,,,,,,,,,,,,,,,,,,,,,,,,,,,,,,,,,,,,,,
,,,,,,,,,5bcd6ea508a62c0001f8c85a,36,Mężczyzna,2022-06-04_08h37.05.303,task,2021.1.4,Win32,60.0240096,628b806c463b948bc644b84f,629afd6c5151092c66abf28c,,,,,,5,0,5,0,1,X V Q F H G B L J M P D K C T S W R N Z,,,,,,,,,,,,,,,,,,,,,,,,,,,,,,,,,,,,,,,,,,,,,,,,,,,,,,,,,,,,,,,,,,,,,,,,,,,,,,,,,,,,,,,,,,,,,
,,,,,,,,,5bcd6ea508a62c0001f8c85a,36,Mężczyzna,2022-06-04_08h37.05.303,task,2021.1.4,Win32,60.0240096,628b806c463b948bc644b84f,629afd6c5151092c66abf28c,,,,,,6,0,6,0,1,X V Q F H G B L J M P D K C T S W R N Z,,,,,,,,,,,,,,,,,,,,,,,,,,,,,,,,,,,,,,,,,,,,,,,,,,,,,,,,,,,,,,,,,,,,,,,,,,,,,,,,,,,,,,,,,,,,,
,,,,,,,,,5bcd6ea508a62c0001f8c85a,36,Mężczyzna,2022-06-04_08h37.05.303,task,2021.1.4,Win32,60.0240096,628b806c463b948bc644b84f,629afd6c5151092c66abf28c,,,,,,7,0,7,0,1,X V Q F H G B L J M P D K C T S W R N Z,,,,,,,,,,,,,,,,,,,,,,,,,,,,,,,,,,,,,,,,,,,,,,,,,,,,,,,,,,,,,,,,,,,,,,,,,,,,,,,,,,,,,,,,,,,,,
,,,,,,,,,5bcd6ea508a62c0001f8c85a,36,Mężczyzna,2022-06-04_08h37.05.303,task,2021.1.4,Win32,60.0240096,628b806c463b948bc644b84f,629afd6c5151092c66abf28c,,,,,,,,,,,,szsbnrcv,"[""s"",""z"",""s"",""b"",""n"",""r"",""c"",""v""]","[2.66700000000003,3.550000000000068,4.085000000000036,5.315000000000055,5.599000000000046,5.983000000000061,6.550000000000068,7.049000000000092,13.752000000000066]",0,SLSBNRCV,12,0,12,0,1,,,,,,,,,,,,,,,,,,,,,,,,,,,,,,,,,,,,,,,,,,,,,,,,,,,,,,,,,,,,,,,,,,,,,,,,,,,,,,,,,,,
,,,,,,,,,5bcd6ea508a62c0001f8c85a,36,Mężczyzna,2022-06-04_08h37.05.303,task,2021.1.4,Win32,60.0240096,628b806c463b948bc644b84f,629afd6c5151092c66abf28c,,,,,,0,0,0,0,1,X V Q F H G B L J M P D K C T S W R N Z,,,,,,,,,,,,,,,,,,,,,,,,,,,,,,,,,,,,,,,,,,,,,,,,,,,,,,,,,,,,,,,,,,,,,,,,,,,,,,,,,,,,,,,,,,,,,
,,,,,,,,,5bcd6ea508a62c0001f8c85a,36,Mężczyzna,2022-06-04_08h37.05.303,task,2021.1.4,Win32,60.0240096,628b806c463b948bc644b84f,629afd6c5151092c66abf28c,,,,,,1,0,1,0,1,X V Q F H G B L J M P D K C T S W R N Z,,,,,,,,,,,,,,,,,,,,,,,,,,,,,,,,,,,,,,,,,,,,,,,,,,,,,,,,,,,,,,,,,,,,,,,,,,,,,,,,,,,,,,,,,,,,,
,,,,,,,,,5bcd6ea508a62c0001f8c85a,36,Mężczyzna,2022-06-04_08h37.05.303,task,2021.1.4,Win32,60.0240096,628b806c463b948bc644b84f,629afd6c5151092c66abf28c,,,,,,2,0,2,0,1,X V Q F H G B L J M P D K C T S W R N Z,,,,,,,,,,,,,,,,,,,,,,,,,,,,,,,,,,,,,,,,,,,,,,,,,,,,,,,,,,,,,,,,,,,,,,,,,,,,,,,,,,,,,,,,,,,,,
,,,,,,,,,5bcd6ea508a62c0001f8c85a,36,Mężczyzna,2022-06-04_08h37.05.303,task,2021.1.4,Win32,60.0240096,628b806c463b948bc644b84f,629afd6c5151092c66abf28c,,,,,,3,0,3,0,1,X V Q F H G B L J M P D K C T S W R N Z,,,,,,,,,,,,,,,,,,,,,,,,,,,,,,,,,,,,,,,,,,,,,,,,,,,,,,,,,,,,,,,,,,,,,,,,,,,,,,,,,,,,,,,,,,,,,
,,,,,,,,,5bcd6ea508a62c0001f8c85a,36,Mężczyzna,2022-06-04_08h37.05.303,task,2021.1.4,Win32,60.0240096,628b806c463b948bc644b84f,629afd6c5151092c66abf28c,,,,,,4,0,4,0,1,X V Q F H G B L J M P D K C T S W R N Z,,,,,,,,,,,,,,,,,,,,,,,,,,,,,,,,,,,,,,,,,,,,,,,,,,,,,,,,,,,,,,,,,,,,,,,,,,,,,,,,,,,,,,,,,,,,,
,,,,,,,,,5bcd6ea508a62c0001f8c85a,36,Mężczyzna,2022-06-04_08h37.05.303,task,2021.1.4,Win32,60.0240096,628b806c463b948bc644b84f,629afd6c5151092c66abf28c,,,,,,5,0,5,0,1,X V Q F H G B L J M P D K C T S W R N Z,,,,,,,,,,,,,,,,,,,,,,,,,,,,,,,,,,,,,,,,,,,,,,,,,,,,,,,,,,,,,,,,,,,,,,,,,,,,,,,,,,,,,,,,,,,,,
,,,,,,,,,5bcd6ea508a62c0001f8c85a,36,Mężczyzna,2022-06-04_08h37.05.303,task,2021.1.4,Win32,60.0240096,628b806c463b948bc644b84f,629afd6c5151092c66abf28c,,,,,,6,0,6,0,1,X V Q F H G B L J M P D K C T S W R N Z,,,,,,,,,,,,,,,,,,,,,,,,,,,,,,,,,,,,,,,,,,,,,,,,,,,,,,,,,,,,,,,,,,,,,,,,,,,,,,,,,,,,,,,,,,,,,
,,,,,,,,,5bcd6ea508a62c0001f8c85a,36,Mężczyzna,2022-06-04_08h37.05.303,task,2021.1.4,Win32,60.0240096,628b806c463b948bc644b84f,629afd6c5151092c66abf28c,,,,,,7,0,7,0,1,X V Q F H G B L J M P D K C T S W R N Z,,,,,,,,,,,,,,,,,,,,,,,,,,,,,,,,,,,,,,,,,,,,,,,,,,,,,,,,,,,,,,,,,,,,,,,,,,,,,,,,,,,,,,,,,,,,,
,,,,,,,,,5bcd6ea508a62c0001f8c85a,36,Mężczyzna,2022-06-04_08h37.05.303,task,2021.1.4,Win32,60.0240096,628b806c463b948bc644b84f,629afd6c5151092c66abf28c,,,,,,,,,,,,lltvsjln,"[""l"",""l"",""t"",""v"",""s"",""j"",""l"",""n""]","[4.233000000000061,4.416000000000054,5.59800000000007,6.581000000000017,7.734000000000037,8.68100000000004,8.999000000000024,9.281000000000063,19.34800000000007]",1,LLTVSJLN,13,0,13,0,1,,,,,,,,,,,,,,,,,,,,,,,,,,,,,,,,,,,,,,,,,,,,,,,,,,,,,,,,,,,,,,,,,,,,,,,,,,,,,,,,,,,
,,,,,,,,,5bcd6ea508a62c0001f8c85a,36,Mężczyzna,2022-06-04_08h37.05.303,task,2021.1.4,Win32,60.0240096,628b806c463b948bc644b84f,629afd6c5151092c66abf28c,,,,,,0,0,0,0,1,X V Q F H G B L J M P D K C T S W R N Z,,,,,,,,,,,,,,,,,,,,,,,,,,,,,,,,,,,,,,,,,,,,,,,,,,,,,,,,,,,,,,,,,,,,,,,,,,,,,,,,,,,,,,,,,,,,,
,,,,,,,,,5bcd6ea508a62c0001f8c85a,36,Mężczyzna,2022-06-04_08h37.05.303,task,2021.1.4,Win32,60.0240096,628b806c463b948bc644b84f,629afd6c5151092c66abf28c,,,,,,1,0,1,0,1,X V Q F H G B L J M P D K C T S W R N Z,,,,,,,,,,,,,,,,,,,,,,,,,,,,,,,,,,,,,,,,,,,,,,,,,,,,,,,,,,,,,,,,,,,,,,,,,,,,,,,,,,,,,,,,,,,,,
,,,,,,,,,5bcd6ea508a62c0001f8c85a,36,Mężczyzna,2022-06-04_08h37.05.303,task,2021.1.4,Win32,60.0240096,628b806c463b948bc644b84f,629afd6c5151092c66abf28c,,,,,,2,0,2,0,1,X V Q F H G B L J M P D K C T S W R N Z,,,,,,,,,,,,,,,,,,,,,,,,,,,,,,,,,,,,,,,,,,,,,,,,,,,,,,,,,,,,,,,,,,,,,,,,,,,,,,,,,,,,,,,,,,,,,
,,,,,,,,,5bcd6ea508a62c0001f8c85a,36,Mężczyzna,2022-06-04_08h37.05.303,task,2021.1.4,Win32,60.0240096,628b806c463b948bc644b84f,629afd6c5151092c66abf28c,,,,,,3,0,3,0,1,X V Q F H G B L J M P D K C T S W R N Z,,,,,,,,,,,,,,,,,,,,,,,,,,,,,,,,,,,,,,,,,,,,,,,,,,,,,,,,,,,,,,,,,,,,,,,,,,,,,,,,,,,,,,,,,,,,,
,,,,,,,,,5bcd6ea508a62c0001f8c85a,36,Mężczyzna,2022-06-04_08h37.05.303,task,2021.1.4,Win32,60.0240096,628b806c463b948bc644b84f,629afd6c5151092c66abf28c,,,,,,4,0,4,0,1,X V Q F H G B L J M P D K C T S W R N Z,,,,,,,,,,,,,,,,,,,,,,,,,,,,,,,,,,,,,,,,,,,,,,,,,,,,,,,,,,,,,,,,,,,,,,,,,,,,,,,,,,,,,,,,,,,,,
,,,,,,,,,5bcd6ea508a62c0001f8c85a,36,Mężczyzna,2022-06-04_08h37.05.303,task,2021.1.4,Win32,60.0240096,628b806c463b948bc644b84f,629afd6c5151092c66abf28c,,,,,,5,0,5,0,1,X V Q F H G B L J M P D K C T S W R N Z,,,,,,,,,,,,,,,,,,,,,,,,,,,,,,,,,,,,,,,,,,,,,,,,,,,,,,,,,,,,,,,,,,,,,,,,,,,,,,,,,,,,,,,,,,,,,
,,,,,,,,,5bcd6ea508a62c0001f8c85a,36,Mężczyzna,2022-06-04_08h37.05.303,task,2021.1.4,Win32,60.0240096,628b806c463b948bc644b84f,629afd6c5151092c66abf28c,,,,,,6,0,6,0,1,X V Q F H G B L J M P D K C T S W R N Z,,,,,,,,,,,,,,,,,,,,,,,,,,,,,,,,,,,,,,,,,,,,,,,,,,,,,,,,,,,,,,,,,,,,,,,,,,,,,,,,,,,,,,,,,,,,,
,,,,,,,,,5bcd6ea508a62c0001f8c85a,36,Mężczyzna,2022-06-04_08h37.05.303,task,2021.1.4,Win32,60.0240096,628b806c463b948bc644b84f,629afd6c5151092c66abf28c,,,,,,7,0,7,0,1,X V Q F H G B L J M P D K C T S W R N Z,,,,,,,,,,,,,,,,,,,,,,,,,,,,,,,,,,,,,,,,,,,,,,,,,,,,,,,,,,,,,,,,,,,,,,,,,,,,,,,,,,,,,,,,,,,,,
,,,,,,,,,5bcd6ea508a62c0001f8c85a,36,Mężczyzna,2022-06-04_08h37.05.303,task,2021.1.4,Win32,60.0240096,628b806c463b948bc644b84f,629afd6c5151092c66abf28c,,,,,,,,,,,,nwwdrsnm,"[""n"",""w"",""w"",""d"",""r"",""s"",""n"",""m""]","[2.6000000000000227,3.049000000000092,4.468000000000075,5.100000000000023,5.5330000000000155,7.467000000000098,7.804000000000087,8.066000000000031,14.817000000000007]",0,NQWJRSNM,14,0,14,0,1,,,,,,,,,,,,,,,,,,,,,,,,,,,,,,,,,,,,,,,,,,,,,,,,,,,,,,,,,,,,,,,,,,,,,,,,,,,,,,,,,,,
,,,,,,,,,5bcd6ea508a62c0001f8c85a,36,Mężczyzna,2022-06-04_08h37.05.303,task,2021.1.4,Win32,60.0240096,628b806c463b948bc644b84f,629afd6c5151092c66abf28c,,,,,,0,0,0,0,1,X V Q F H G B L J M P D K C T S W R N Z,,,,,,,,,,,,,,,,,,,,,,,,,,,,,,,,,,,,,,,,,,,,,,,,,,,,,,,,,,,,,,,,,,,,,,,,,,,,,,,,,,,,,,,,,,,,,
,,,,,,,,,5bcd6ea508a62c0001f8c85a,36,Mężczyzna,2022-06-04_08h37.05.303,task,2021.1.4,Win32,60.0240096,628b806c463b948bc644b84f,629afd6c5151092c66abf28c,,,,,,1,0,1,0,1,X V Q F H G B L J M P D K C T S W R N Z,,,,,,,,,,,,,,,,,,,,,,,,,,,,,,,,,,,,,,,,,,,,,,,,,,,,,,,,,,,,,,,,,,,,,,,,,,,,,,,,,,,,,,,,,,,,,
,,,,,,,,,5bcd6ea508a62c0001f8c85a,36,Mężczyzna,2022-06-04_08h37.05.303,task,2021.1.4,Win32,60.0240096,628b806c463b948bc644b84f,629afd6c5151092c66abf28c,,,,,,2,0,2,0,1,X V Q F H G B L J M P D K C T S W R N Z,,,,,,,,,,,,,,,,,,,,,,,,,,,,,,,,,,,,,,,,,,,,,,,,,,,,,,,,,,,,,,,,,,,,,,,,,,,,,,,,,,,,,,,,,,,,,
,,,,,,,,,5bcd6ea508a62c0001f8c85a,36,Mężczyzna,2022-06-04_08h37.05.303,task,2021.1.4,Win32,60.0240096,628b806c463b948bc644b84f,629afd6c5151092c66abf28c,,,,,,3,0,3,0,1,X V Q F H G B L J M P D K C T S W R N Z,,,,,,,,,,,,,,,,,,,,,,,,,,,,,,,,,,,,,,,,,,,,,,,,,,,,,,,,,,,,,,,,,,,,,,,,,,,,,,,,,,,,,,,,,,,,,
,,,,,,,,,5bcd6ea508a62c0001f8c85a,36,Mężczyzna,2022-06-04_08h37.05.303,task,2021.1.4,Win32,60.0240096,628b806c463b948bc644b84f,629afd6c5151092c66abf28c,,,,,,4,0,4,0,1,X V Q F H G B L J M P D K C T S W R N Z,,,,,,,,,,,,,,,,,,,,,,,,,,,,,,,,,,,,,,,,,,,,,,,,,,,,,,,,,,,,,,,,,,,,,,,,,,,,,,,,,,,,,,,,,,,,,
,,,,,,,,,5bcd6ea508a62c0001f8c85a,36,Mężczyzna,2022-06-04_08h37.05.303,task,2021.1.4,Win32,60.0240096,628b806c463b948bc644b84f,629afd6c5151092c66abf28c,,,,,,5,0,5,0,1,X V Q F H G B L J M P D K C T S W R N Z,,,,,,,,,,,,,,,,,,,,,,,,,,,,,,,,,,,,,,,,,,,,,,,,,,,,,,,,,,,,,,,,,,,,,,,,,,,,,,,,,,,,,,,,,,,,,
,,,,,,,,,5bcd6ea508a62c0001f8c85a,36,Mężczyzna,2022-06-04_08h37.05.303,task,2021.1.4,Win32,60.0240096,628b806c463b948bc644b84f,629afd6c5151092c66abf28c,,,,,,6,0,6,0,1,X V Q F H G B L J M P D K C T S W R N Z,,,,,,,,,,,,,,,,,,,,,,,,,,,,,,,,,,,,,,,,,,,,,,,,,,,,,,,,,,,,,,,,,,,,,,,,,,,,,,,,,,,,,,,,,,,,,
,,,,,,,,,5bcd6ea508a62c0001f8c85a,36,Mężczyzna,2022-06-04_08h37.05.303,task,2021.1.4,Win32,60.0240096,628b806c463b948bc644b84f,629afd6c5151092c66abf28c,,,,,,7,0,7,0,1,X V Q F H G B L J M P D K C T S W R N Z,,,,,,,,,,,,,,,,,,,,,,,,,,,,,,,,,,,,,,,,,,,,,,,,,,,,,,,,,,,,,,,,,,,,,,,,,,,,,,,,,,,,,,,,,,,,,
,,,,,,,,,5bcd6ea508a62c0001f8c85a,36,Mężczyzna,2022-06-04_08h37.05.303,task,2021.1.4,Win32,60.0240096,628b806c463b948bc644b84f,629afd6c5151092c66abf28c,,,,,,,,,,,,zqpvlsv,"[""z"",""q"",""p"",""v"",""l"",""s"",""v""]","[3.103999999999928,3.633000000000038,5.216000000000008,6.432999999999993,7.499000000000024,7.7999999999999545,8.184999999999945,13.399000000000001]",0,ZQPVPLSV,15,0,15,0,1,,,,,,,,,,,,,,,,,,,,,,,,,,,,,,,,,,,,,,,,,,,,,,,,,,,,,,,,,,,,,,,,,,,,,,,,,,,,,,,,,,,
,,,,,,,,,5bcd6ea508a62c0001f8c85a,36,Mężczyzna,2022-06-04_08h37.05.303,task,2021.1.4,Win32,60.0240096,628b806c463b948bc644b84f,629afd6c5151092c66abf28c,,,,,,,,,,,,,,,,,,,,,,space,13.004,6,"[""6""]",1,[6.606999999999971],[6.606999999999971],0,0,0,6,1,Practice,7,(25/5) + 1,6,,,,,,,,,,,,,,,,,,,,,,,,,,,,,,,,,,,,,,,,,,,,,,,,,,,,,,,,,,,,,,,,,,,
,,,,,,,,,5bcd6ea508a62c0001f8c85a,36,Mężczyzna,2022-06-04_08h37.05.303,task,2021.1.4,Win32,60.0240096,628b806c463b948bc644b84f,629afd6c5151092c66abf28c,,,,,,,,,,,,,,,,,,,,,,,,8,"[""8""]",1,[3.115000000000009],"[6.606999999999971,3.115000000000009]",0,1,1,8,1,Practice,9,(3x3) - 1,8,,,,,,,,,,,,,,,,,,,,,,,,,,,,,,,,,,,,,,,,,,,,,,,,,,,,,,,,,,,,,,,,,,,
,,,,,,,,,5bcd6ea508a62c0001f8c85a,36,Mężczyzna,2022-06-04_08h37.05.303,task,2021.1.4,Win32,60.0240096,628b806c463b948bc644b84f,629afd6c5151092c66abf28c,,,,,,,,,,,,,,,,,,,,,,,,4,"[""4""]",1,[3.8490000000000464],"[6.606999999999971,3.115000000000009,3.8490000000000464]",0,2,2,4,1,Practice,5,(2x6) - 8,4,,,,,,,,,,,,,,,,,,,,,,,,,,,,,,,,,,,,,,,,,,,,,,,,,,,,,,,,,,,,,,,,,,,
,,,,,,,,,5bcd6ea508a62c0001f8c85a,36,Mężczyzna,2022-06-04_08h37.05.303,task,2021.1.4,Win32,60.0240096,628b806c463b948bc644b84f,629afd6c5151092c66abf28c,,,,,,,,,,,,,,,,,,,,,,,,1,"[""1""]",1,[2.199999999999932],"[6.606999999999971,3.115000000000009,3.8490000000000464,2.199999999999932]",0,3,3,1,1,Practice,2,(4x4) - 15,1,,,,,,,,,,,,,,,,,,,,,,,,,,,,,,,,,,,,,,,,,,,,,,,,,,,,,,,,,,,,,,,,,,,
,,,,,,,,,5bcd6ea508a62c0001f8c85a,36,Mężczyzna,2022-06-04_08h37.05.303,task,2021.1.4,Win32,60.0240096,628b806c463b948bc644b84f,629afd6c5151092c66abf28c,,,,,,,,,,,,,,,,,,,,,,,,9,"[""9""]",1,[2.48599999999999],"[6.606999999999971,3.115000000000009,3.8490000000000464,2.199999999999932,2.48599999999999]",0,4,4,9,1,Practice,10,(20/2) - 1,9,,,,,,,,,,,,,,,,,,,,,,,,,,,,,,,,,,,,,,,,,,,,,,,,,,,,,,,,,,,,,,,,,,,
,,,,,,,,,5bcd6ea508a62c0001f8c85a,36,Mężczyzna,2022-06-04_08h37.05.303,task,2021.1.4,Win32,60.0240096,628b806c463b948bc644b84f,629afd6c5151092c66abf28c,,,,,,,,,,,,,,,,,,,,,,,,7,"[""7""]",1,[2.3829999999999245],"[6.606999999999971,3.115000000000009,3.8490000000000464,2.199999999999932,2.48599999999999,2.3829999999999245]",0,5,5,7,1,Practice,8,(5x5) - 18,7,,,,,,,,,,,,,,,,,,,,,,,,,,,,,,,,,,,,,,,,,,,,,,,,,,,,,,,,,,,,,,,,,,,
,,,,,,,,,5bcd6ea508a62c0001f8c85a,36,Mężczyzna,2022-06-04_08h37.05.303,task,2021.1.4,Win32,60.0240096,628b806c463b948bc644b84f,629afd6c5151092c66abf28c,,,,,,,,,,,,,,,,,,,,,,,,0,"[""0""]",1,[1.5850000000000364],"[6.606999999999971,3.115000000000009,3.8490000000000464,2.199999999999932,2.48599999999999,2.3829999999999245,1.5850000000000364]",0,6,6,0,1,Practice,1,(3x3) -  9,0,,,,,,,,,,,,,,,,,,,,,,,,,,,,,,,,,,,,,,,,,,,,,,,,,,,,,,,,,,,,,,,,,,,
,,,,,,,,,5bcd6ea508a62c0001f8c85a,36,Mężczyzna,2022-06-04_08h37.05.303,task,2021.1.4,Win32,60.0240096,628b806c463b948bc644b84f,629afd6c5151092c66abf28c,,,,,,,,,,,,,,,,,,,,,,,,3,"[""3""]",1,[2.4340000000000828],"[6.606999999999971,3.115000000000009,3.8490000000000464,2.199999999999932,2.48599999999999,2.3829999999999245,1.5850000000000364,2.4340000000000828]",0,7,7,3,1,Practice,4,(8/4) + 1,3,,,,,,,,,,,,,,,,,,,,,,,,,,,,,,,,,,,,,,,,,,,,,,,,,,,,,,,,,,,,,,,,,,,
,,,,,,,,,5bcd6ea508a62c0001f8c85a,36,Mężczyzna,2022-06-04_08h37.05.303,task,2021.1.4,Win32,60.0240096,628b806c463b948bc644b84f,629afd6c5151092c66abf28c,,,,,,,,,,,,,,,,,,,,,,,,2,"[""2""]",1,[1.9669999999999845],"[6.606999999999971,3.115000000000009,3.8490000000000464,2.199999999999932,2.48599999999999,2.3829999999999245,1.5850000000000364,2.4340000000000828,1.9669999999999845]",0,8,8,2,1,Practice,3,(4x4) - 14,2,,,,,,,,,,,,,,,,,,,,,,,,,,,,,,,,,,,,,,,,,,,,,,,,,,,,,,,,,,,,,,,,,,,
,,,,,,,,,5bcd6ea508a62c0001f8c85a,36,Mężczyzna,2022-06-04_08h37.05.303,task,2021.1.4,Win32,60.0240096,628b806c463b948bc644b84f,629afd6c5151092c66abf28c,,,,,,,,,,,,,,,,,,,,,,,,5,"[""5""]",1,[2.5529999999999973],"[6.606999999999971,3.115000000000009,3.8490000000000464,2.199999999999932,2.48599999999999,2.3829999999999245,1.5850000000000364,2.4340000000000828,1.9669999999999845,2.5529999999999973]",0,9,9,5,1,Practice,6,(4/2) + 3,5,,,,,,,,,,,,,,,,,,,,,,,,,,,,,,,,,,,,,,,,,,,,,,,,,,,,,,,,,,,,,,,,,,,
,,,,,,,,,5bcd6ea508a62c0001f8c85a,36,Mężczyzna,2022-06-04_08h37.05.303,task,2021.1.4,Win32,60.0240096,628b806c463b948bc644b84f,629afd6c5151092c66abf28c,,,,,,,,,,,,,,,,,,,,,,,,,,,,,,,,,,,,,,1,29.179,1.945266667,28.01159091,1.366542862,5.470947251,space,2.539,0,0,0,0,1,,,,,,,,,,,,,,,,,,,,,,,,,,,,,,,,,,,,,,,,,,,,,,,,,,,,,,
,,,,,,,,,5bcd6ea508a62c0001f8c85a,36,Mężczyzna,2022-06-04_08h37.05.303,task,2021.1.4,Win32,60.0240096,628b806c463b948bc644b84f,629afd6c5151092c66abf28c,,,,,,,,,,,,,,,,,,,,,,,,4,,,,,,,,,,Practice,5,(2x6) - 8,4,,,,,,,,,,,,,,space,68.835,"[""4""]",1,[2.8880000000000337],1,0,0,0,4,1,,,,,,,,,,,,,,,,,,,,,,,,,,,,,,,,,,,,,,,,,,,
,,,,,,,,,5bcd6ea508a62c0001f8c85a,36,Mężczyzna,2022-06-04_08h37.05.303,task,2021.1.4,Win32,60.0240096,628b806c463b948bc644b84f,629afd6c5151092c66abf28c,,,,,,,,,,,X V Q F H G B L J M P D K C T S W R N Z,,,,,,,,,,,,,,,,,,,,,,,,,,,,,,,,,,,,,,,,,,,,,,,,,,,0,0,0,0,1,,,,,,,,,,,,,,,,,,,,,,,,,,,,,,,,,,,,,,
,,,,,,,,,5bcd6ea508a62c0001f8c85a,36,Mężczyzna,2022-06-04_08h37.05.303,task,2021.1.4,Win32,60.0240096,628b806c463b948bc644b84f,629afd6c5151092c66abf28c,,,,,,,,,,,,,,,,,,,,,,,,,,,,,,,,,,Practice,3,(4x4) - 14,2,,,,,,,,,,,,,,,,,0,,0,0,0,0,2,1,,,,,,,,,,,,,,,,,,,,,,,,,,,,,,,,,,,,,,,,,,,
,,,,,,,,,5bcd6ea508a62c0001f8c85a,36,Mężczyzna,2022-06-04_08h37.05.303,task,2021.1.4,Win32,60.0240096,628b806c463b948bc644b84f,629afd6c5151092c66abf28c,,,,,,,,,,,,,,,,,,,,,,,,8,,,,,,,,,,Practice,9,(3x3) - 1,8,,,,,,,,,,,,,,,,"[""8""]",1,[2.3449999999999136],1,0,1,1,8,1,,,,,,,,,,,,,,,,,,,,,,,,,,,,,,,,,,,,,,,,,,,
,,,,,,,,,5bcd6ea508a62c0001f8c85a,36,Mężczyzna,2022-06-04_08h37.05.303,task,2021.1.4,Win32,60.0240096,628b806c463b948bc644b84f,629afd6c5151092c66abf28c,,,,,,,,,,,X V Q F H G B L J M P D K C T S W R N Z,,,,,,,,,,,,,,,,,,,,,,,,,,,,,,,,,,,,,,,,,,,,,,,,,,,1,0,1,0,1,,,,,,,,,,,,,,,,,,,,,,,,,,,,,,,,,,,,,,
,,,,,,,,,5bcd6ea508a62c0001f8c85a,36,Mężczyzna,2022-06-04_08h37.05.303,task,2021.1.4,Win32,60.0240096,628b806c463b948bc644b84f,629afd6c5151092c66abf28c,,,,,,,,,,,,,,,,,,,,,,,,,,,,,,,,,,,,,,,,,,,,,,,,,,,,,,,,,,,,,,,,,,,zw,"[""z"",""w""]",0,"[3.687000000000012,3.866000000000099,5.313000000000102]",1,0,0,0,0,1,,,,,,,,,,,,,,,,,,,,,,,,,,,,
,,,,,,,,,5bcd6ea508a62c0001f8c85a,36,Mężczyzna,2022-06-04_08h37.05.303,task,2021.1.4,Win32,60.0240096,628b806c463b948bc644b84f,629afd6c5151092c66abf28c,,,,,,,,,,,,,,,,,,,,,,,,0,,,,,,,,,,Practice,1,(3x3) -  9,0,,,,,,,,,,,,,,,,"[""0""]",1,[1.5470000000000255],1,0,0,0,0,1,,,,,,,,,,,,,,,,,,,,,,,,,,,,,,,,,,,,,,,,,,,
,,,,,,,,,5bcd6ea508a62c0001f8c85a,36,Mężczyzna,2022-06-04_08h37.05.303,task,2021.1.4,Win32,60.0240096,628b806c463b948bc644b84f,629afd6c5151092c66abf28c,,,,,,,,,,,X V Q F H G B L J M P D K C T S W R N Z,,,,,,,,,,,,,,,,,,,,,,,,,,,,,,,,,,,,,,,,,,,,,,,,,,,0,0,0,0,1,,,,,,,,,,,,,,,,,,,,,,,,,,,,,,,,,,,,,,
,,,,,,,,,5bcd6ea508a62c0001f8c85a,36,Mężczyzna,2022-06-04_08h37.05.303,task,2021.1.4,Win32,60.0240096,628b806c463b948bc644b84f,629afd6c5151092c66abf28c,,,,,,,,,,,,,,,,,,,,,,,,1,,,,,,,,,,Practice,2,(4x4) - 15,1,,,,,,,,,,,,,,,,"[""1""]",1,[1.5330000000000155],1,0,0,0,1,1,,,,,,,,,,,,,,,,,,,,,,,,,,,,,,,,,,,,,,,,,,,
,,,,,,,,,5bcd6ea508a62c0001f8c85a,36,Mężczyzna,2022-06-04_08h37.05.303,task,2021.1.4,Win32,60.0240096,628b806c463b948bc644b84f,629afd6c5151092c66abf28c,,,,,,,,,,,X V Q F H G B L J M P D K C T S W R N Z,,,,,,,,,,,,,,,,,,,,,,,,,,,,,,,,,,,,,,,,,,,,,,,,,,,1,0,1,0,1,,,,,,,,,,,,,,,,,,,,,,,,,,,,,,,,,,,,,,
,,,,,,,,,5bcd6ea508a62c0001f8c85a,36,Mężczyzna,2022-06-04_08h37.05.303,task,2021.1.4,Win32,60.0240096,628b806c463b948bc644b84f,629afd6c5151092c66abf28c,,,,,,,,,,,,,,,,,,,,,,,,,,,,,,,,,,,,,,,,,,,,,,,,,,,,,,,,,,,,,,,,,,,ht,"[""h"",""t""]",0,"[2.2519999999999527,2.5720000000000027,3.3210000000000264]",1,1,0,1,0,1,,,,,,,,,,,,,,,,,,,,,,,,,,,,
,,,,,,,,,5bcd6ea508a62c0001f8c85a,36,Mężczyzna,2022-06-04_08h37.05.303,task,2021.1.4,Win32,60.0240096,628b806c463b948bc644b84f,629afd6c5151092c66abf28c,,,,,,,,,,,,,,,,,,,,,,,,0,,,,,,,,,,Practice,1,(3x3) -  9,0,,,,,,,,,,,,,,,,"[""0""]",1,[1.8980000000000246],1,0,0,0,0,1,,,,,,,,,,,,,,,,,,,,,,,,,,,,,,,,,,,,,,,,,,,
,,,,,,,,,5bcd6ea508a62c0001f8c85a,36,Mężczyzna,2022-06-04_08h37.05.303,task,2021.1.4,Win32,60.0240096,628b806c463b948bc644b84f,629afd6c5151092c66abf28c,,,,,,,,,,,X V Q F H G B L J M P D K C T S W R N Z,,,,,,,,,,,,,,,,,,,,,,,,,,,,,,,,,,,,,,,,,,,,,,,,,,,0,0,0,0,1,,,,,,,,,,,,,,,,,,,,,,,,,,,,,,,,,,,,,,
,,,,,,,,,5bcd6ea508a62c0001f8c85a,36,Mężczyzna,2022-06-04_08h37.05.303,task,2021.1.4,Win32,60.0240096,628b806c463b948bc644b84f,629afd6c5151092c66abf28c,,,,,,,,,,,,,,,,,,,,,,,,3,,,,,,,,,,Practice,8,(5x5) - 18,7,,,,,,,,,,,,,,,,"[""3""]",0,[3.1980000000000928],0,0,0,0,7,1,,,,,,,,,,,,,,,,,,,,,,,,,,,,,,,,,,,,,,,,,,,
,,,,,,,,,5bcd6ea508a62c0001f8c85a,36,Mężczyzna,2022-06-04_08h37.05.303,task,2021.1.4,Win32,60.0240096,628b806c463b948bc644b84f,629afd6c5151092c66abf28c,,,,,,,,,,,,,,,,,,,,,,,,2,,,,,,,,,,Practice,3,(4x4) - 14,2,,,,,,,,,,,,,,,,"[""2""]",1,[2.716000000000008],1,0,1,1,2,1,,,,,,,,,,,,,,,,,,,,,,,,,,,,,,,,,,,,,,,,,,,
,,,,,,,,,5bcd6ea508a62c0001f8c85a,36,Mężczyzna,2022-06-04_08h37.05.303,task,2021.1.4,Win32,60.0240096,628b806c463b948bc644b84f,629afd6c5151092c66abf28c,,,,,,,,,,,X V Q F H G B L J M P D K C T S W R N Z,,,,,,,,,,,,,,,,,,,,,,,,,,,,,,,,,,,,,,,,,,,,,,,,,,,1,0,1,0,1,,,,,,,,,,,,,,,,,,,,,,,,,,,,,,,,,,,,,,
,,,,,,,,,5bcd6ea508a62c0001f8c85a,36,Mężczyzna,2022-06-04_08h37.05.303,task,2021.1.4,Win32,60.0240096,628b806c463b948bc644b84f,629afd6c5151092c66abf28c,,,,,,,,,,,,,,,,,,,,,,,,,,,,,,,,,,,,,,,,,,,,,,,,,,,,,,,,,,,,,,,,,,,mk,"[""m"",""k""]",0,"[1.06899999999996,1.1730000000000018,2.0019999999999527]",1,2,0,2,0,1,,,,,,,,,,,,,,,,,,,,,,,,,,,,
,,,,,,,,,5bcd6ea508a62c0001f8c85a,36,Mężczyzna,2022-06-04_08h37.05.303,task,2021.1.4,Win32,60.0240096,628b806c463b948bc644b84f,629afd6c5151092c66abf28c,,,,,,,,,,,,,,,,,,,,,,,,3,,,,,,,,,,Task,20,(18/9) + 1,3,,,,,,,,,,,,,,,,,,,1,,,,,,,,,,,,,,,,,,,,,space,23.372,"[""3""]",1,[2.105000000000018],0,0,0,19,1,,,,,,,,,,,,,,,,,,
,,,,,,,,,5bcd6ea508a62c0001f8c85a,36,Mężczyzna,2022-06-04_08h37.05.303,task,2021.1.4,Win32,60.0240096,628b806c463b948bc644b84f,629afd6c5151092c66abf28c,,,,,,,,,,,X V Q F H G B L J M P D K C T S W R N Z,,,,,,,,,,,,,,,,,,,,,,,,,,,,,,,,,,,,,,,,,,,,,,,,,,,,,,,,,,,,,,,,,,,,,,,,,,,,0,0,0,0,1,,,,,,,,,,,,,
,,,,,,,,,5bcd6ea508a62c0001f8c85a,36,Mężczyzna,2022-06-04_08h37.05.303,task,2021.1.4,Win32,60.0240096,628b806c463b948bc644b84f,629afd6c5151092c66abf28c,,,,,,,,,,,,,,,,,,,,,,,,6,,,,,,,,,,Task,30,(6/3) + 4 ,6,,,,,,,,,,,,,,,,,,,1,,,,,,,,,,,,,,,,,,,,,,,"[""6""]",1,[3.130999999999972],0,0,0,29,1,,,,,,,,,,,,,,,,,,
,,,,,,,,,5bcd6ea508a62c0001f8c85a,36,Mężczyzna,2022-06-04_08h37.05.303,task,2021.1.4,Win32,60.0240096,628b806c463b948bc644b84f,629afd6c5151092c66abf28c,,,,,,,,,,,X V Q F H G B L J M P D K C T S W R N Z,,,,,,,,,,,,,,,,,,,,,,,,,,,,,,,,,,,,,,,,,,,,,,,,,,,,,,,,,,,,,,,,,,,,,,,,,,,,1,0,1,0,1,,,,,,,,,,,,,
,,,,,,,,,5bcd6ea508a62c0001f8c85a,36,Mężczyzna,2022-06-04_08h37.05.303,task,2021.1.4,Win32,60.0240096,628b806c463b948bc644b84f,629afd6c5151092c66abf28c,,,,,,,,,,,,,,,,,,,,,,,,,,,,,,,,,,,,,,,,,,,,,,,,,,,,,,,,,,,,,,,,,,,,,,,,,,,,,,,,,,,,,,,,,,,,zr,"[""z"",""r""]",0,"[1.9869999999999663,2.103999999999928,3.005999999999972]",1,ZR,0,0,0,0,1,,
,,,,,,,,,5bcd6ea508a62c0001f8c85a,36,Mężczyzna,2022-06-04_08h37.05.303,task,2021.1.4,Win32,60.0240096,628b806c463b948bc644b84f,629afd6c5151092c66abf28c,,,,,,,,,,,,,,,,,,,,,,,,2,,,,,,,,,,Task,26,(2x9) - 16,2,,,,,,,,,,,,,,,,,,,1,,,,,,,,,,,,,,,,,,,,,,,"[""2""]",1,[2.314000000000078],0,0,0,25,1,,,,,,,,,,,,,,,,,,
,,,,,,,,,5bcd6ea508a62c0001f8c85a,36,Mężczyzna,2022-06-04_08h37.05.303,task,2021.1.4,Win32,60.0240096,628b806c463b948bc644b84f,629afd6c5151092c66abf28c,,,,,,,,,,,X V Q F H G B L J M P D K C T S W R N Z,,,,,,,,,,,,,,,,,,,,,,,,,,,,,,,,,,,,,,,,,,,,,,,,,,,,,,,,,,,,,,,,,,,,,,,,,,,,0,0,0,0,1,,,,,,,,,,,,,
,,,,,,,,,5bcd6ea508a62c0001f8c85a,36,Mężczyzna,2022-06-04_08h37.05.303,task,2021.1.4,Win32,60.0240096,628b806c463b948bc644b84f,629afd6c5151092c66abf28c,,,,,,,,,,,,,,,,,,,,,,,,0,,,,,,,,,,Task,17,(2x3) - 6,0,,,,,,,,,,,,,,,,,,,1,,,,,,,,,,,,,,,,,,,,,,,"[""0""]",1,[1.6019999999999754],0,0,0,16,1,,,,,,,,,,,,,,,,,,
,,,,,,,,,5bcd6ea508a62c0001f8c85a,36,Mężczyzna,2022-06-04_08h37.05.303,task,2021.1.4,Win32,60.0240096,628b806c463b948bc644b84f,629afd6c5151092c66abf28c,,,,,,,,,,,X V Q F H G B L J M P D K C T S W R N Z,,,,,,,,,,,,,,,,,,,,,,,,,,,,,,,,,,,,,,,,,,,,,,,,,,,,,,,,,,,,,,,,,,,,,,,,,,,,1,0,1,0,1,,,,,,,,,,,,,
,,,,,,,,,5bcd6ea508a62c0001f8c85a,36,Mężczyzna,2022-06-04_08h37.05.303,task,2021.1.4,Win32,60.0240096,628b806c463b948bc644b84f,629afd6c5151092c66abf28c,,,,,,,,,,,,,,,,,,,,,,,,9,,,,,,,,,,Task,7,(3x7) - 12,9,,,,,,,,,,,,,,,,,,,1,,,,,,,,,,,,,,,,,,,,,,,"[""9""]",1,[2.83299999999997],0,0,0,6,1,,,,,,,,,,,,,,,,,,
,,,,,,,,,5bcd6ea508a62c0001f8c85a,36,Mężczyzna,2022-06-04_08h37.05.303,task,2021.1.4,Win32,60.0240096,628b806c463b948bc644b84f,629afd6c5151092c66abf28c,,,,,,,,,,,X V Q F H G B L J M P D K C T S W R N Z,,,,,,,,,,,,,,,,,,,,,,,,,,,,,,,,,,,,,,,,,,,,,,,,,,,,,,,,,,,,,,,,,,,,,,,,,,,,2,0,2,0,1,,,,,,,,,,,,,
,,,,,,,,,5bcd6ea508a62c0001f8c85a,36,Mężczyzna,2022-06-04_08h37.05.303,task,2021.1.4,Win32,60.0240096,628b806c463b948bc644b84f,629afd6c5151092c66abf28c,,,,,,,,,,,,,,,,,,,,,,,,,,,,,,,,,,,,,,,,,,,,,,,,,,,,,,,,,,,,,,,,,,,,,,,,,,,,,,,,,,,,,,,,,,,,ftk,"[""f"",""t"",""k""]",0,"[1.7390000000000327,1.8260000000000218,2.5389999999999873,3.0090000000000146]",1,FTK,1,0,1,0,1,,
,,,,,,,,,5bcd6ea508a62c0001f8c85a,36,Mężczyzna,2022-06-04_08h37.05.303,task,2021.1.4,Win32,60.0240096,628b806c463b948bc644b84f,629afd6c5151092c66abf28c,,,,,,,,,,,,,,,,,,,,,,,,4,,,,,,,,,,Task,11,(18/3) - 2,4,,,,,,,,,,,,,,,,,,,1,,,,,,,,,,,,,,,,,,,,,,,"[""4""]",1,[3.3310000000000173],0,0,0,10,1,,,,,,,,,,,,,,,,,,
,,,,,,,,,5bcd6ea508a62c0001f8c85a,36,Mężczyzna,2022-06-04_08h37.05.303,task,2021.1.4,Win32,60.0240096,628b806c463b948bc644b84f,629afd6c5151092c66abf28c,,,,,,,,,,,X V Q F H G B L J M P D K C T S W R N Z,,,,,,,,,,,,,,,,,,,,,,,,,,,,,,,,,,,,,,,,,,,,,,,,,,,,,,,,,,,,,,,,,,,,,,,,,,,,0,0,0,0,1,,,,,,,,,,,,,
,,,,,,,,,5bcd6ea508a62c0001f8c85a,36,Mężczyzna,2022-06-04_08h37.05.303,task,2021.1.4,Win32,60.0240096,628b806c463b948bc644b84f,629afd6c5151092c66abf28c,,,,,,,,,,,,,,,,,,,,,,,,5,,,,,,,,,,Task,29,(3x8) - 19 ,5,,,,,,,,,,,,,,,,,,,1,,,,,,,,,,,,,,,,,,,,,,,"[""5""]",1,[3.216000000000008],0,0,0,28,1,,,,,,,,,,,,,,,,,,
,,,,,,,,,5bcd6ea508a62c0001f8c85a,36,Mężczyzna,2022-06-04_08h37.05.303,task,2021.1.4,Win32,60.0240096,628b806c463b948bc644b84f,629afd6c5151092c66abf28c,,,,,,,,,,,X V Q F H G B L J M P D K C T S W R N Z,,,,,,,,,,,,,,,,,,,,,,,,,,,,,,,,,,,,,,,,,,,,,,,,,,,,,,,,,,,,,,,,,,,,,,,,,,,,1,0,1,0,1,,,,,,,,,,,,,
,,,,,,,,,5bcd6ea508a62c0001f8c85a,36,Mężczyzna,2022-06-04_08h37.05.303,task,2021.1.4,Win32,60.0240096,628b806c463b948bc644b84f,629afd6c5151092c66abf28c,,,,,,,,,,,,,,,,,,,,,,,,4,,,,,,,,,,Task,21,(10/2) - 1,4,,,,,,,,,,,,,,,,,,,1,,,,,,,,,,,,,,,,,,,,,,,"[""4""]",1,[1.7479999999999336],0,0,0,20,1,,,,,,,,,,,,,,,,,,
,,,,,,,,,5bcd6ea508a62c0001f8c85a,36,Mężczyzna,2022-06-04_08h37.05.303,task,2021.1.4,Win32,60.0240096,628b806c463b948bc644b84f,629afd6c5151092c66abf28c,,,,,,,,,,,X V Q F H G B L J M P D K C T S W R N Z,,,,,,,,,,,,,,,,,,,,,,,,,,,,,,,,,,,,,,,,,,,,,,,,,,,,,,,,,,,,,,,,,,,,,,,,,,,,2,0,2,0,1,,,,,,,,,,,,,
,,,,,,,,,5bcd6ea508a62c0001f8c85a,36,Mężczyzna,2022-06-04_08h37.05.303,task,2021.1.4,Win32,60.0240096,628b806c463b948bc644b84f,629afd6c5151092c66abf28c,,,,,,,,,,,,,,,,,,,,,,,,1,,,,,,,,,,Task,34,(9/3) - 2,1,,,,,,,,,,,,,,,,,,,1,,,,,,,,,,,,,,,,,,,,,,,"[""1""]",1,[2.380999999999972],0,0,0,33,1,,,,,,,,,,,,,,,,,,
,,,,,,,,,5bcd6ea508a62c0001f8c85a,36,Mężczyzna,2022-06-04_08h37.05.303,task,2021.1.4,Win32,60.0240096,628b806c463b948bc644b84f,629afd6c5151092c66abf28c,,,,,,,,,,,X V Q F H G B L J M P D K C T S W R N Z,,,,,,,,,,,,,,,,,,,,,,,,,,,,,,,,,,,,,,,,,,,,,,,,,,,,,,,,,,,,,,,,,,,,,,,,,,,,3,0,3,0,1,,,,,,,,,,,,,
,,,,,,,,,5bcd6ea508a62c0001f8c85a,36,Mężczyzna,2022-06-04_08h37.05.303,task,2021.1.4,Win32,60.0240096,628b806c463b948bc644b84f,629afd6c5151092c66abf28c,,,,,,,,,,,,,,,,,,,,,,,,,,,,,,,,,,,,,,,,,,,,,,,,,,,,,,,,,,,,,,,,,,,,,,,,,,,,,,,,,,,,,,,,,,,,kpfl,"[""k"",""p"",""f"",""l""]",0,"[1.8719999999999573,2.822999999999979,3.2069999999999936,3.5890000000000555,4.6889999999999645]",1,KPFL,2,0,2,0,1,,
,,,,,,,,,5bcd6ea508a62c0001f8c85a,36,Mężczyzna,2022-06-04_08h37.05.303,task,2021.1.4,Win32,60.0240096,628b806c463b948bc644b84f,629afd6c5151092c66abf28c,,,,,,,,,,,,,,,,,,,,,,,,2,,,,,,,,,,Task,2,(2x2) - 2,2,,,,,,,,,,,,,,,,,,,1,,,,,,,,,,,,,,,,,,,,,,,"[""2""]",1,[2.4689999999999372],0,0,0,1,1,,,,,,,,,,,,,,,,,,
,,,,,,,,,5bcd6ea508a62c0001f8c85a,36,Mężczyzna,2022-06-04_08h37.05.303,task,2021.1.4,Win32,60.0240096,628b806c463b948bc644b84f,629afd6c5151092c66abf28c,,,,,,,,,,,X V Q F H G B L J M P D K C T S W R N Z,,,,,,,,,,,,,,,,,,,,,,,,,,,,,,,,,,,,,,,,,,,,,,,,,,,,,,,,,,,,,,,,,,,,,,,,,,,,0,0,0,0,1,,,,,,,,,,,,,
,,,,,,,,,5bcd6ea508a62c0001f8c85a,36,Mężczyzna,2022-06-04_08h37.05.303,task,2021.1.4,Win32,60.0240096,628b806c463b948bc644b84f,629afd6c5151092c66abf28c,,,,,,,,,,,,,,,,,,,,,,,,3,,,,,,,,,,Task,27,(3/3) + 2,3,,,,,,,,,,,,,,,,,,,1,,,,,,,,,,,,,,,,,,,,,,,"[""3""]",1,[2.0990000000000464],0,0,0,26,1,,,,,,,,,,,,,,,,,,
,,,,,,,,,5bcd6ea508a62c0001f8c85a,36,Mężczyzna,2022-06-04_08h37.05.303,task,2021.1.4,Win32,60.0240096,628b806c463b948bc644b84f,629afd6c5151092c66abf28c,,,,,,,,,,,X V Q F H G B L J M P D K C T S W R N Z,,,,,,,,,,,,,,,,,,,,,,,,,,,,,,,,,,,,,,,,,,,,,,,,,,,,,,,,,,,,,,,,,,,,,,,,,,,,1,0,1,0,1,,,,,,,,,,,,,
,,,,,,,,,5bcd6ea508a62c0001f8c85a,36,Mężczyzna,2022-06-04_08h37.05.303,task,2021.1.4,Win32,60.0240096,628b806c463b948bc644b84f,629afd6c5151092c66abf28c,,,,,,,,,,,,,,,,,,,,,,,,2,,,,,,,,,,Task,19,(6/2) - 1,2,,,,,,,,,,,,,,,,,,,1,,,,,,,,,,,,,,,,,,,,,,,"[""2""]",1,[1.92999999999995],0,0,0,18,1,,,,,,,,,,,,,,,,,,
,,,,,,,,,5bcd6ea508a62c0001f8c85a,36,Mężczyzna,2022-06-04_08h37.05.303,task,2021.1.4,Win32,60.0240096,628b806c463b948bc644b84f,629afd6c5151092c66abf28c,,,,,,,,,,,X V Q F H G B L J M P D K C T S W R N Z,,,,,,,,,,,,,,,,,,,,,,,,,,,,,,,,,,,,,,,,,,,,,,,,,,,,,,,,,,,,,,,,,,,,,,,,,,,,2,0,2,0,1,,,,,,,,,,,,,
,,,,,,,,,5bcd6ea508a62c0001f8c85a,36,Mężczyzna,2022-06-04_08h37.05.303,task,2021.1.4,Win32,60.0240096,628b806c463b948bc644b84f,629afd6c5151092c66abf28c,,,,,,,,,,,,,,,,,,,,,,,,6,,,,,,,,,,Task,22,(3x1) + 2,5,,,,,,,,,,,,,,,,,,,0,,,,,,,,,,,,,,,,,,,,,,,"[""6""]",0,[2.8570000000000846],0,0,0,21,1,,,,,,,,,,,,,,,,,,
,,,,,,,,,5bcd6ea508a62c0001f8c85a,36,Mężczyzna,2022-06-04_08h37.05.303,task,2021.1.4,Win32,60.0240096,628b806c463b948bc644b84f,629afd6c5151092c66abf28c,,,,,,,,,,,,,,,,,,,,,,,,3,,,,,,,,,,Task,3,(2x3) - 3,3,,,,,,,,,,,,,,,,,,,1,,,,,,,,,,,,,,,,,,,,,,,"[""3""]",1,[3.016999999999939],0,1,1,2,1,,,,,,,,,,,,,,,,,,
,,,,,,,,,5bcd6ea508a62c0001f8c85a,36,Mężczyzna,2022-06-04_08h37.05.303,task,2021.1.4,Win32,60.0240096,628b806c463b948bc644b84f,629afd6c5151092c66abf28c,,,,,,,,,,,X V Q F H G B L J M P D K C T S W R N Z,,,,,,,,,,,,,,,,,,,,,,,,,,,,,,,,,,,,,,,,,,,,,,,,,,,,,,,,,,,,,,,,,,,,,,,,,,,,3,0,3,0,1,,,,,,,,,,,,,
,,,,,,,,,5bcd6ea508a62c0001f8c85a,36,Mężczyzna,2022-06-04_08h37.05.303,task,2021.1.4,Win32,60.0240096,628b806c463b948bc644b84f,629afd6c5151092c66abf28c,,,,,,,,,,,,,,,,,,,,,,,,6,,,,,,,,,,Task,13,(3x4) - 6,6,,,,,,,,,,,,,,,,,,,1,,,,,,,,,,,,,,,,,,,,,,,"[""6""]",1,[2.214999999999918],0,0,0,12,1,,,,,,,,,,,,,,,,,,
,,,,,,,,,5bcd6ea508a62c0001f8c85a,36,Mężczyzna,2022-06-04_08h37.05.303,task,2021.1.4,Win32,60.0240096,628b806c463b948bc644b84f,629afd6c5151092c66abf28c,,,,,,,,,,,X V Q F H G B L J M P D K C T S W R N Z,,,,,,,,,,,,,,,,,,,,,,,,,,,,,,,,,,,,,,,,,,,,,,,,,,,,,,,,,,,,,,,,,,,,,,,,,,,,4,0,4,0,1,,,,,,,,,,,,,
,,,,,,,,,5bcd6ea508a62c0001f8c85a,36,Mężczyzna,2022-06-04_08h37.05.303,task,2021.1.4,Win32,60.0240096,628b806c463b948bc644b84f,629afd6c5151092c66abf28c,,,,,,,,,,,,,,,,,,,,,,,,,,,,,,,,,,,,,,,,,,,,,,,,,,,,,,,,,,,,,,,,,,,,,,,,,,,,,,,,,,,,,,,,,,,,cgfxx,"[""c"",""g"",""f"",""x"",""x""]",0,"[1.5149999999999864,3.016999999999939,3.538000000000011,3.836999999999989,4.102999999999952,5.341000000000008]",0,CGXFX,3,0,3,0,1,,
,,,,,,,,,5bcd6ea508a62c0001f8c85a,36,Mężczyzna,2022-06-04_08h37.05.303,task,2021.1.4,Win32,60.0240096,628b806c463b948bc644b84f,629afd6c5151092c66abf28c,,,,,,,,,,,,,,,,,,,,,,,,0,,,,,,,,,,Task,17,(2x3) - 6,0,,,,,,,,,,,,,,,,,,,1,,,,,,,,,,,,,,,,,,,,,,,"[""0""]",1,[2.4149999999999636],0,0,0,16,1,,,,,,,,,,,,,,,,,,
,,,,,,,,,5bcd6ea508a62c0001f8c85a,36,Mężczyzna,2022-06-04_08h37.05.303,task,2021.1.4,Win32,60.0240096,628b806c463b948bc644b84f,629afd6c5151092c66abf28c,,,,,,,,,,,X V Q F H G B L J M P D K C T S W R N Z,,,,,,,,,,,,,,,,,,,,,,,,,,,,,,,,,,,,,,,,,,,,,,,,,,,,,,,,,,,,,,,,,,,,,,,,,,,,0,0,0,0,1,,,,,,,,,,,,,
,,,,,,,,,5bcd6ea508a62c0001f8c85a,36,Mężczyzna,2022-06-04_08h37.05.303,task,2021.1.4,Win32,60.0240096,628b806c463b948bc644b84f,629afd6c5151092c66abf28c,,,,,,,,,,,,,,,,,,,,,,,,4,,,,,,,,,,Task,4,(1x5) - 1,4,,,,,,,,,,,,,,,,,,,1,,,,,,,,,,,,,,,,,,,,,,,"[""4""]",1,[2.562999999999988],0,0,0,3,1,,,,,,,,,,,,,,,,,,
,,,,,,,,,5bcd6ea508a62c0001f8c85a,36,Mężczyzna,2022-06-04_08h37.05.303,task,2021.1.4,Win32,60.0240096,628b806c463b948bc644b84f,629afd6c5151092c66abf28c,,,,,,,,,,,X V Q F H G B L J M P D K C T S W R N Z,,,,,,,,,,,,,,,,,,,,,,,,,,,,,,,,,,,,,,,,,,,,,,,,,,,,,,,,,,,,,,,,,,,,,,,,,,,,1,0,1,0,1,,,,,,,,,,,,,
,,,,,,,,,5bcd6ea508a62c0001f8c85a,36,Mężczyzna,2022-06-04_08h37.05.303,task,2021.1.4,Win32,60.0240096,628b806c463b948bc644b84f,629afd6c5151092c66abf28c,,,,,,,,,,,,,,,,,,,,,,,,7,,,,,,,,,,Task,38,(4x6) - 17,7,,,,,,,,,,,,,,,,,,,1,,,,,,,,,,,,,,,,,,,,,,,"[""7""]",1,[2.3640000000000327],0,0,0,37,1,,,,,,,,,,,,,,,,,,
,,,,,,,,,5bcd6ea508a62c0001f8c85a,36,Mężczyzna,2022-06-04_08h37.05.303,task,2021.1.4,Win32,60.0240096,628b806c463b948bc644b84f,629afd6c5151092c66abf28c,,,,,,,,,,,X V Q F H G B L J M P D K C T S W R N Z,,,,,,,,,,,,,,,,,,,,,,,,,,,,,,,,,,,,,,,,,,,,,,,,,,,,,,,,,,,,,,,,,,,,,,,,,,,,2,0,2,0,1,,,,,,,,,,,,,
,,,,,,,,,5bcd6ea508a62c0001f8c85a,36,Mężczyzna,2022-06-04_08h37.05.303,task,2021.1.4,Win32,60.0240096,628b806c463b948bc644b84f,629afd6c5151092c66abf28c,,,,,,,,,,,,,,,,,,,,,,,,8,,,,,,,,,,Task,39,(5x3) - 7,8,,,,,,,,,,,,,,,,,,,1,,,,,,,,,,,,,,,,,,,,,,,"[""8""]",1,[1.7980000000000018],0,0,0,38,1,,,,,,,,,,,,,,,,,,
,,,,,,,,,5bcd6ea508a62c0001f8c85a,36,Mężczyzna,2022-06-04_08h37.05.303,task,2021.1.4,Win32,60.0240096,628b806c463b948bc644b84f,629afd6c5151092c66abf28c,,,,,,,,,,,X V Q F H G B L J M P D K C T S W R N Z,,,,,,,,,,,,,,,,,,,,,,,,,,,,,,,,,,,,,,,,,,,,,,,,,,,,,,,,,,,,,,,,,,,,,,,,,,,,3,0,3,0,1,,,,,,,,,,,,,
,,,,,,,,,5bcd6ea508a62c0001f8c85a,36,Mężczyzna,2022-06-04_08h37.05.303,task,2021.1.4,Win32,60.0240096,628b806c463b948bc644b84f,629afd6c5151092c66abf28c,,,,,,,,,,,,,,,,,,,,,,,,4,,,,,,,,,,Task,11,(18/3) - 2,4,,,,,,,,,,,,,,,,,,,1,,,,,,,,,,,,,,,,,,,,,,,"[""4""]",1,[1.580000000000041],0,0,0,10,1,,,,,,,,,,,,,,,,,,
,,,,,,,,,5bcd6ea508a62c0001f8c85a,36,Mężczyzna,2022-06-04_08h37.05.303,task,2021.1.4,Win32,60.0240096,628b806c463b948bc644b84f,629afd6c5151092c66abf28c,,,,,,,,,,,X V Q F H G B L J M P D K C T S W R N Z,,,,,,,,,,,,,,,,,,,,,,,,,,,,,,,,,,,,,,,,,,,,,,,,,,,,,,,,,,,,,,,,,,,,,,,,,,,,4,0,4,0,1,,,,,,,,,,,,,
,,,,,,,,,5bcd6ea508a62c0001f8c85a,36,Mężczyzna,2022-06-04_08h37.05.303,task,2021.1.4,Win32,60.0240096,628b806c463b948bc644b84f,629afd6c5151092c66abf28c,,,,,,,,,,,,,,,,,,,,,,,,,,,,,,,,,,,,,,,,,,,,,,,,,,,,,,,,,,,,,,,,,,,,,,,,,,,,,,,,,,,,,,,,,,,,mfmtg,"[""m"",""f"",""m"",""t"",""g""]",0,"[2.1059999999999945,2.7870000000000346,3.4850000000000136,3.8530000000000655,4.088000000000079,4.5750000000000455]",1,MFMTG,4,0,4,0,1,,
,,,,,,,,,5bcd6ea508a62c0001f8c85a,36,Mężczyzna,2022-06-04_08h37.05.303,task,2021.1.4,Win32,60.0240096,628b806c463b948bc644b84f,629afd6c5151092c66abf28c,,,,,,,,,,,,,,,,,,,,,,,,6,,,,,,,,,,Task,5,(2x3) + 0,6,,,,,,,,,,,,,,,,,,,1,,,,,,,,,,,,,,,,,,,,,,,"[""6""]",1,[2.675999999999931],0,0,0,4,1,,,,,,,,,,,,,,,,,,
,,,,,,,,,5bcd6ea508a62c0001f8c85a,36,Mężczyzna,2022-06-04_08h37.05.303,task,2021.1.4,Win32,60.0240096,628b806c463b948bc644b84f,629afd6c5151092c66abf28c,,,,,,,,,,,X V Q F H G B L J M P D K C T S W R N Z,,,,,,,,,,,,,,,,,,,,,,,,,,,,,,,,,,,,,,,,,,,,,,,,,,,,,,,,,,,,,,,,,,,,,,,,,,,,0,0,0,0,1,,,,,,,,,,,,,
,,,,,,,,,5bcd6ea508a62c0001f8c85a,36,Mężczyzna,2022-06-04_08h37.05.303,task,2021.1.4,Win32,60.0240096,628b806c463b948bc644b84f,629afd6c5151092c66abf28c,,,,,,,,,,,,,,,,,,,,,,,,1,,,,,,,,,,Task,34,(9/3) - 2,1,,,,,,,,,,,,,,,,,,,1,,,,,,,,,,,,,,,,,,,,,,,"[""1""]",1,[2.2329999999999472],0,0,0,33,1,,,,,,,,,,,,,,,,,,
,,,,,,,,,5bcd6ea508a62c0001f8c85a,36,Mężczyzna,2022-06-04_08h37.05.303,task,2021.1.4,Win32,60.0240096,628b806c463b948bc644b84f,629afd6c5151092c66abf28c,,,,,,,,,,,X V Q F H G B L J M P D K C T S W R N Z,,,,,,,,,,,,,,,,,,,,,,,,,,,,,,,,,,,,,,,,,,,,,,,,,,,,,,,,,,,,,,,,,,,,,,,,,,,,1,0,1,0,1,,,,,,,,,,,,,
,,,,,,,,,5bcd6ea508a62c0001f8c85a,36,Mężczyzna,2022-06-04_08h37.05.303,task,2021.1.4,Win32,60.0240096,628b806c463b948bc644b84f,629afd6c5151092c66abf28c,,,,,,,,,,,,,,,,,,,,,,,,0,,,,,,,,,,Task,25,(10/5) - 2,0,,,,,,,,,,,,,,,,,,,1,,,,,,,,,,,,,,,,,,,,,,,"[""0""]",1,[4.1170000000000755],0,0,0,24,1,,,,,,,,,,,,,,,,,,
,,,,,,,,,5bcd6ea508a62c0001f8c85a,36,Mężczyzna,2022-06-04_08h37.05.303,task,2021.1.4,Win32,60.0240096,628b806c463b948bc644b84f,629afd6c5151092c66abf28c,,,,,,,,,,,X V Q F H G B L J M P D K C T S W R N Z,,,,,,,,,,,,,,,,,,,,,,,,,,,,,,,,,,,,,,,,,,,,,,,,,,,,,,,,,,,,,,,,,,,,,,,,,,,,2,0,2,0,1,,,,,,,,,,,,,
,,,,,,,,,5bcd6ea508a62c0001f8c85a,36,Mężczyzna,2022-06-04_08h37.05.303,task,2021.1.4,Win32,60.0240096,628b806c463b948bc644b84f,629afd6c5151092c66abf28c,,,,,,,,,,,,,,,,,,,,,,,,2,,,,,,,,,,Task,19,(6/2) - 1,2,,,,,,,,,,,,,,,,,,,1,,,,,,,,,,,,,,,,,,,,,,,"[""2""]",1,[1.497000000000071],0,0,0,18,1,,,,,,,,,,,,,,,,,,
,,,,,,,,,5bcd6ea508a62c0001f8c85a,36,Mężczyzna,2022-06-04_08h37.05.303,task,2021.1.4,Win32,60.0240096,628b806c463b948bc644b84f,629afd6c5151092c66abf28c,,,,,,,,,,,X V Q F H G B L J M P D K C T S W R N Z,,,,,,,,,,,,,,,,,,,,,,,,,,,,,,,,,,,,,,,,,,,,,,,,,,,,,,,,,,,,,,,,,,,,,,,,,,,,3,0,3,0,1,,,,,,,,,,,,,
,,,,,,,,,5bcd6ea508a62c0001f8c85a,36,Mężczyzna,2022-06-04_08h37.05.303,task,2021.1.4,Win32,60.0240096,628b806c463b948bc644b84f,629afd6c5151092c66abf28c,,,,,,,,,,,,,,,,,,,,,,,,2,,,,,,,,,,Task,10,(2x5) - 8,2,,,,,,,,,,,,,,,,,,,1,,,,,,,,,,,,,,,,,,,,,,,"[""2""]",1,[2.08299999999997],0,0,0,9,1,,,,,,,,,,,,,,,,,,
,,,,,,,,,5bcd6ea508a62c0001f8c85a,36,Mężczyzna,2022-06-04_08h37.05.303,task,2021.1.4,Win32,60.0240096,628b806c463b948bc644b84f,629afd6c5151092c66abf28c,,,,,,,,,,,X V Q F H G B L J M P D K C T S W R N Z,,,,,,,,,,,,,,,,,,,,,,,,,,,,,,,,,,,,,,,,,,,,,,,,,,,,,,,,,,,,,,,,,,,,,,,,,,,,4,0,4,0,1,,,,,,,,,,,,,
,,,,,,,,,5bcd6ea508a62c0001f8c85a,36,Mężczyzna,2022-06-04_08h37.05.303,task,2021.1.4,Win32,60.0240096,628b806c463b948bc644b84f,629afd6c5151092c66abf28c,,,,,,,,,,,,,,,,,,,,,,,,7,,,,,,,,,,Task,38,(4x6) - 17,7,,,,,,,,,,,,,,,,,,,1,,,,,,,,,,,,,,,,,,,,,,,"[""7""]",1,[3.77800000000002],0,0,0,37,1,,,,,,,,,,,,,,,,,,
,,,,,,,,,5bcd6ea508a62c0001f8c85a,36,Mężczyzna,2022-06-04_08h37.05.303,task,2021.1.4,Win32,60.0240096,628b806c463b948bc644b84f,629afd6c5151092c66abf28c,,,,,,,,,,,X V Q F H G B L J M P D K C T S W R N Z,,,,,,,,,,,,,,,,,,,,,,,,,,,,,,,,,,,,,,,,,,,,,,,,,,,,,,,,,,,,,,,,,,,,,,,,,,,,5,0,5,0,1,,,,,,,,,,,,,
,,,,,,,,,5bcd6ea508a62c0001f8c85a,36,Mężczyzna,2022-06-04_08h37.05.303,task,2021.1.4,Win32,60.0240096,628b806c463b948bc644b84f,629afd6c5151092c66abf28c,,,,,,,,,,,,,,,,,,,,,,,,,,,,,,,,,,,,,,,,,,,,,,,,,,,,,,,,,,,,,,,,,,,,,,,,,,,,,,,,,,,,,,,,,,,,klsncp,"[""k"",""l"",""s"",""n"",""c"",""p""]",0,"[2.5979999999998427,2.6809999999999263,3.797999999999888,4.2169999999999845,4.600000000000023,4.996999999999957,5.380999999999972]",1,KLSNCP,5,0,5,0,1,,
,,,,,,,,,5bcd6ea508a62c0001f8c85a,36,Mężczyzna,2022-06-04_08h37.05.303,task,2021.1.4,Win32,60.0240096,628b806c463b948bc644b84f,629afd6c5151092c66abf28c,,,,,,,,,,,,,,,,,,,,,,,,2,,,,,,,,,,Task,10,(2x5) - 8,2,,,,,,,,,,,,,,,,,,,1,,,,,,,,,,,,,,,,,,,,,,,"[""2""]",1,[1.83400000000006],0,0,0,9,1,,,,,,,,,,,,,,,,,,
,,,,,,,,,5bcd6ea508a62c0001f8c85a,36,Mężczyzna,2022-06-04_08h37.05.303,task,2021.1.4,Win32,60.0240096,628b806c463b948bc644b84f,629afd6c5151092c66abf28c,,,,,,,,,,,X V Q F H G B L J M P D K C T S W R N Z,,,,,,,,,,,,,,,,,,,,,,,,,,,,,,,,,,,,,,,,,,,,,,,,,,,,,,,,,,,,,,,,,,,,,,,,,,,,0,0,0,0,1,,,,,,,,,,,,,
,,,,,,,,,5bcd6ea508a62c0001f8c85a,36,Mężczyzna,2022-06-04_08h37.05.303,task,2021.1.4,Win32,60.0240096,628b806c463b948bc644b84f,629afd6c5151092c66abf28c,,,,,,,,,,,,,,,,,,,,,,,,6,,,,,,,,,,Task,13,(3x4) - 6,6,,,,,,,,,,,,,,,,,,,1,,,,,,,,,,,,,,,,,,,,,,,"[""6""]",1,[2.01299999999992],0,0,0,12,1,,,,,,,,,,,,,,,,,,
,,,,,,,,,5bcd6ea508a62c0001f8c85a,36,Mężczyzna,2022-06-04_08h37.05.303,task,2021.1.4,Win32,60.0240096,628b806c463b948bc644b84f,629afd6c5151092c66abf28c,,,,,,,,,,,X V Q F H G B L J M P D K C T S W R N Z,,,,,,,,,,,,,,,,,,,,,,,,,,,,,,,,,,,,,,,,,,,,,,,,,,,,,,,,,,,,,,,,,,,,,,,,,,,,1,0,1,0,1,,,,,,,,,,,,,
,,,,,,,,,5bcd6ea508a62c0001f8c85a,36,Mężczyzna,2022-06-04_08h37.05.303,task,2021.1.4,Win32,60.0240096,628b806c463b948bc644b84f,629afd6c5151092c66abf28c,,,,,,,,,,,,,,,,,,,,,,,,5,,,,,,,,,,Task,12,(4x4) - 11,5,,,,,,,,,,,,,,,,,,,1,,,,,,,,,,,,,,,,,,,,,,,"[""5""]",1,[1.5359999999998308],0,0,0,11,1,,,,,,,,,,,,,,,,,,
