key_resp_15.keys,key_resp_15.rt,key_resp_16.keys,key_resp_16.rt,key_resp_4.keys,key_resp_4.rt,next_letter.thisRepN,next_letter.thisTrialN,next_letter.thisN,next_letter.thisIndex,next_letter.ran,letter,participant,Wiek*,Płeć,date,expName,psychopyVersion,OS,frameRate,study_id,session,simple_recall,key_resp_5.keys,key_resp_5.rt,simple_recall_corr,simple_recall_corrkeys,next_level.thisRepN,next_level.thisTrialN,next_level.thisN,next_level.thisIndex,next_level.ran,key_resp_2.keys,key_resp_2.rt,digit_answer,key_resp.keys,key_resp.corr,key_resp.rt,RT_list,next_equation.thisRepN,next_equation.thisTrialN,next_equation.thisN,next_equation.thisIndex,next_equation.ran,Task,Trial,Problem,Operation_answer,processing_score,sumRT,meanRT,sumdiff,sd,RT,key_resp_3.keys,key_resp_3.rt,repeat_practice.thisRepN,repeat_practice.thisTrialN,repeat_practice.thisN,repeat_practice.thisIndex,repeat_practice.ran,key_resp_6.keys,key_resp_6.rt,key_resp_11.keys,key_resp_11.corr,key_resp_11.rt,operation_correct,repeat_if_wrong_prac.thisRepN,repeat_if_wrong_prac.thisTrialN,repeat_if_wrong_prac.thisN,repeat_if_wrong_prac.thisIndex,repeat_if_wrong_prac.ran,span_size_prac.thisRepN,span_size_prac.thisTrialN,span_size_prac.thisN,span_size_prac.thisIndex,span_size_prac.ran,complex_recall_practice,key_resp_9.keys,key_resp_9.corr,key_resp_9.rt,complex_prac_corr,span_recall_prac.thisRepN,span_recall_prac.thisTrialN,span_recall_prac.thisN,span_recall_prac.thisIndex,span_recall_prac.ran,key_resp_10.keys,key_resp_10.rt,key_resp_7.keys,key_resp_7.corr,repeat_if_wrong.thisRepN,repeat_if_wrong.thisTrialN,repeat_if_wrong.thisN,repeat_if_wrong.thisIndex,repeat_if_wrong.ran,key_resp_7.rt,span_size.thisRepN,span_size.thisTrialN,span_size.thisN,span_size.thisIndex,span_size.ran,complex_recall,key_resp_8.keys,key_resp_8.corr,key_resp_8.rt,complex_recall_corr,complex_recall_corrkeys,span_recall.thisRepN,span_recall.thisTrialN,span_recall.thisN,span_recall.thisIndex,span_recall.ran,key_resp_13.keys,key_resp_13.corr,random_loop.thisRepN,random_loop.thisTrialN,random_loop.thisN,random_loop.thisIndex,random_loop.ran,key_resp_13.rt,key_resp_12.keys,key_resp_12.rt
space,32.569,space,20.2389,space,6.4022,0,0,0,0,1,X V Q F H G B L J M P D K C T S W R N Z,5be1c7de91deed00015a97b9,24,Mężczyzna,2022-06-11_09h13.03.713,task,2021.1.4,MacIntel,59.88382538,6299f149e92ead563fba08ef,62a440032acb8d1d2b0e9127,,,,,,,,,,,,,,,,,,,,,,,,,,,,,,,,,,,,,,,,,,,,,,,,,,,,,,,,,,,,,,,,,,,,,,,,,,,,,,,,,,,,,,,,,,,,,,,,,,,,,
,,,,,,1,0,1,0,1,X V Q F H G B L J M P D K C T S W R N Z,5be1c7de91deed00015a97b9,24,Mężczyzna,2022-06-11_09h13.03.713,task,2021.1.4,MacIntel,59.88382538,6299f149e92ead563fba08ef,62a440032acb8d1d2b0e9127,,,,,,,,,,,,,,,,,,,,,,,,,,,,,,,,,,,,,,,,,,,,,,,,,,,,,,,,,,,,,,,,,,,,,,,,,,,,,,,,,,,,,,,,,,,,,,,,,,,,,
,,,,,,,,,,,,5be1c7de91deed00015a97b9,24,Mężczyzna,2022-06-11_09h13.03.713,task,2021.1.4,MacIntel,59.88382538,6299f149e92ead563fba08ef,62a440032acb8d1d2b0e9127,zf,"[""z"",""f""]","[3.3854000000000326,3.768400000000014,5.155100000000033]",1,ZF,0,0,0,0,1,,,,,,,,,,,,,,,,,,,,,,,,,,,,,,,,,,,,,,,,,,,,,,,,,,,,,,,,,,,,,,,,,,,,,,,,,,,,,,,,,,,,,,,,,,,
,,,,,,0,0,0,0,1,X V Q F H G B L J M P D K C T S W R N Z,5be1c7de91deed00015a97b9,24,Mężczyzna,2022-06-11_09h13.03.713,task,2021.1.4,MacIntel,59.88382538,6299f149e92ead563fba08ef,62a440032acb8d1d2b0e9127,,,,,,,,,,,,,,,,,,,,,,,,,,,,,,,,,,,,,,,,,,,,,,,,,,,,,,,,,,,,,,,,,,,,,,,,,,,,,,,,,,,,,,,,,,,,,,,,,,,,,
,,,,,,1,0,1,0,1,X V Q F H G B L J M P D K C T S W R N Z,5be1c7de91deed00015a97b9,24,Mężczyzna,2022-06-11_09h13.03.713,task,2021.1.4,MacIntel,59.88382538,6299f149e92ead563fba08ef,62a440032acb8d1d2b0e9127,,,,,,,,,,,,,,,,,,,,,,,,,,,,,,,,,,,,,,,,,,,,,,,,,,,,,,,,,,,,,,,,,,,,,,,,,,,,,,,,,,,,,,,,,,,,,,,,,,,,,
,,,,,,,,,,,,5be1c7de91deed00015a97b9,24,Mężczyzna,2022-06-11_09h13.03.713,task,2021.1.4,MacIntel,59.88382538,6299f149e92ead563fba08ef,62a440032acb8d1d2b0e9127,zq,"[""z"",""q""]","[1.9008000000000038,2.677099999999996,3.4842999999999904]",1,ZQ,1,0,1,0,1,,,,,,,,,,,,,,,,,,,,,,,,,,,,,,,,,,,,,,,,,,,,,,,,,,,,,,,,,,,,,,,,,,,,,,,,,,,,,,,,,,,,,,,,,,,
,,,,,,0,0,0,0,1,X V Q F H G B L J M P D K C T S W R N Z,5be1c7de91deed00015a97b9,24,Mężczyzna,2022-06-11_09h13.03.713,task,2021.1.4,MacIntel,59.88382538,6299f149e92ead563fba08ef,62a440032acb8d1d2b0e9127,,,,,,,,,,,,,,,,,,,,,,,,,,,,,,,,,,,,,,,,,,,,,,,,,,,,,,,,,,,,,,,,,,,,,,,,,,,,,,,,,,,,,,,,,,,,,,,,,,,,,
,,,,,,1,0,1,0,1,X V Q F H G B L J M P D K C T S W R N Z,5be1c7de91deed00015a97b9,24,Mężczyzna,2022-06-11_09h13.03.713,task,2021.1.4,MacIntel,59.88382538,6299f149e92ead563fba08ef,62a440032acb8d1d2b0e9127,,,,,,,,,,,,,,,,,,,,,,,,,,,,,,,,,,,,,,,,,,,,,,,,,,,,,,,,,,,,,,,,,,,,,,,,,,,,,,,,,,,,,,,,,,,,,,,,,,,,,
,,,,,,2,0,2,0,1,X V Q F H G B L J M P D K C T S W R N Z,5be1c7de91deed00015a97b9,24,Mężczyzna,2022-06-11_09h13.03.713,task,2021.1.4,MacIntel,59.88382538,6299f149e92ead563fba08ef,62a440032acb8d1d2b0e9127,,,,,,,,,,,,,,,,,,,,,,,,,,,,,,,,,,,,,,,,,,,,,,,,,,,,,,,,,,,,,,,,,,,,,,,,,,,,,,,,,,,,,,,,,,,,,,,,,,,,,
,,,,,,,,,,,,5be1c7de91deed00015a97b9,24,Mężczyzna,2022-06-11_09h13.03.713,task,2021.1.4,MacIntel,59.88382538,6299f149e92ead563fba08ef,62a440032acb8d1d2b0e9127,kzl,"[""k"",""z"",""l""]","[1.2352000000000203,1.3315000000000055,1.4527999999999963,2.307200000000023]",1,KZL,2,0,2,0,1,,,,,,,,,,,,,,,,,,,,,,,,,,,,,,,,,,,,,,,,,,,,,,,,,,,,,,,,,,,,,,,,,,,,,,,,,,,,,,,,,,,,,,,,,,,
,,,,,,0,0,0,0,1,X V Q F H G B L J M P D K C T S W R N Z,5be1c7de91deed00015a97b9,24,Mężczyzna,2022-06-11_09h13.03.713,task,2021.1.4,MacIntel,59.88382538,6299f149e92ead563fba08ef,62a440032acb8d1d2b0e9127,,,,,,,,,,,,,,,,,,,,,,,,,,,,,,,,,,,,,,,,,,,,,,,,,,,,,,,,,,,,,,,,,,,,,,,,,,,,,,,,,,,,,,,,,,,,,,,,,,,,,
,,,,,,1,0,1,0,1,X V Q F H G B L J M P D K C T S W R N Z,5be1c7de91deed00015a97b9,24,Mężczyzna,2022-06-11_09h13.03.713,task,2021.1.4,MacIntel,59.88382538,6299f149e92ead563fba08ef,62a440032acb8d1d2b0e9127,,,,,,,,,,,,,,,,,,,,,,,,,,,,,,,,,,,,,,,,,,,,,,,,,,,,,,,,,,,,,,,,,,,,,,,,,,,,,,,,,,,,,,,,,,,,,,,,,,,,,
,,,,,,2,0,2,0,1,X V Q F H G B L J M P D K C T S W R N Z,5be1c7de91deed00015a97b9,24,Mężczyzna,2022-06-11_09h13.03.713,task,2021.1.4,MacIntel,59.88382538,6299f149e92ead563fba08ef,62a440032acb8d1d2b0e9127,,,,,,,,,,,,,,,,,,,,,,,,,,,,,,,,,,,,,,,,,,,,,,,,,,,,,,,,,,,,,,,,,,,,,,,,,,,,,,,,,,,,,,,,,,,,,,,,,,,,,
,,,,,,,,,,,,5be1c7de91deed00015a97b9,24,Mężczyzna,2022-06-11_09h13.03.713,task,2021.1.4,MacIntel,59.88382538,6299f149e92ead563fba08ef,62a440032acb8d1d2b0e9127,vmq,"[""v"",""m"",""q""]","[1.2963000000000022,1.4085999999999785,1.7201000000000022,2.064300000000003]",1,VMQ,3,0,3,0,1,,,,,,,,,,,,,,,,,,,,,,,,,,,,,,,,,,,,,,,,,,,,,,,,,,,,,,,,,,,,,,,,,,,,,,,,,,,,,,,,,,,,,,,,,,,
,,,,,,0,0,0,0,1,X V Q F H G B L J M P D K C T S W R N Z,5be1c7de91deed00015a97b9,24,Mężczyzna,2022-06-11_09h13.03.713,task,2021.1.4,MacIntel,59.88382538,6299f149e92ead563fba08ef,62a440032acb8d1d2b0e9127,,,,,,,,,,,,,,,,,,,,,,,,,,,,,,,,,,,,,,,,,,,,,,,,,,,,,,,,,,,,,,,,,,,,,,,,,,,,,,,,,,,,,,,,,,,,,,,,,,,,,
,,,,,,1,0,1,0,1,X V Q F H G B L J M P D K C T S W R N Z,5be1c7de91deed00015a97b9,24,Mężczyzna,2022-06-11_09h13.03.713,task,2021.1.4,MacIntel,59.88382538,6299f149e92ead563fba08ef,62a440032acb8d1d2b0e9127,,,,,,,,,,,,,,,,,,,,,,,,,,,,,,,,,,,,,,,,,,,,,,,,,,,,,,,,,,,,,,,,,,,,,,,,,,,,,,,,,,,,,,,,,,,,,,,,,,,,,
,,,,,,2,0,2,0,1,X V Q F H G B L J M P D K C T S W R N Z,5be1c7de91deed00015a97b9,24,Mężczyzna,2022-06-11_09h13.03.713,task,2021.1.4,MacIntel,59.88382538,6299f149e92ead563fba08ef,62a440032acb8d1d2b0e9127,,,,,,,,,,,,,,,,,,,,,,,,,,,,,,,,,,,,,,,,,,,,,,,,,,,,,,,,,,,,,,,,,,,,,,,,,,,,,,,,,,,,,,,,,,,,,,,,,,,,,
,,,,,,3,0,3,0,1,X V Q F H G B L J M P D K C T S W R N Z,5be1c7de91deed00015a97b9,24,Mężczyzna,2022-06-11_09h13.03.713,task,2021.1.4,MacIntel,59.88382538,6299f149e92ead563fba08ef,62a440032acb8d1d2b0e9127,,,,,,,,,,,,,,,,,,,,,,,,,,,,,,,,,,,,,,,,,,,,,,,,,,,,,,,,,,,,,,,,,,,,,,,,,,,,,,,,,,,,,,,,,,,,,,,,,,,,,
,,,,,,,,,,,,5be1c7de91deed00015a97b9,24,Mężczyzna,2022-06-11_09h13.03.713,task,2021.1.4,MacIntel,59.88382538,6299f149e92ead563fba08ef,62a440032acb8d1d2b0e9127,cbvs,"[""c"",""b"",""v"",""s""]","[2.2464000000000226,2.4787000000000035,2.7179999999999893,2.975500000000011,3.7665999999999826]",1,CBVS,4,0,4,0,1,,,,,,,,,,,,,,,,,,,,,,,,,,,,,,,,,,,,,,,,,,,,,,,,,,,,,,,,,,,,,,,,,,,,,,,,,,,,,,,,,,,,,,,,,,,
,,,,,,0,0,0,0,1,X V Q F H G B L J M P D K C T S W R N Z,5be1c7de91deed00015a97b9,24,Mężczyzna,2022-06-11_09h13.03.713,task,2021.1.4,MacIntel,59.88382538,6299f149e92ead563fba08ef,62a440032acb8d1d2b0e9127,,,,,,,,,,,,,,,,,,,,,,,,,,,,,,,,,,,,,,,,,,,,,,,,,,,,,,,,,,,,,,,,,,,,,,,,,,,,,,,,,,,,,,,,,,,,,,,,,,,,,
,,,,,,1,0,1,0,1,X V Q F H G B L J M P D K C T S W R N Z,5be1c7de91deed00015a97b9,24,Mężczyzna,2022-06-11_09h13.03.713,task,2021.1.4,MacIntel,59.88382538,6299f149e92ead563fba08ef,62a440032acb8d1d2b0e9127,,,,,,,,,,,,,,,,,,,,,,,,,,,,,,,,,,,,,,,,,,,,,,,,,,,,,,,,,,,,,,,,,,,,,,,,,,,,,,,,,,,,,,,,,,,,,,,,,,,,,
,,,,,,2,0,2,0,1,X V Q F H G B L J M P D K C T S W R N Z,5be1c7de91deed00015a97b9,24,Mężczyzna,2022-06-11_09h13.03.713,task,2021.1.4,MacIntel,59.88382538,6299f149e92ead563fba08ef,62a440032acb8d1d2b0e9127,,,,,,,,,,,,,,,,,,,,,,,,,,,,,,,,,,,,,,,,,,,,,,,,,,,,,,,,,,,,,,,,,,,,,,,,,,,,,,,,,,,,,,,,,,,,,,,,,,,,,
,,,,,,3,0,3,0,1,X V Q F H G B L J M P D K C T S W R N Z,5be1c7de91deed00015a97b9,24,Mężczyzna,2022-06-11_09h13.03.713,task,2021.1.4,MacIntel,59.88382538,6299f149e92ead563fba08ef,62a440032acb8d1d2b0e9127,,,,,,,,,,,,,,,,,,,,,,,,,,,,,,,,,,,,,,,,,,,,,,,,,,,,,,,,,,,,,,,,,,,,,,,,,,,,,,,,,,,,,,,,,,,,,,,,,,,,,
,,,,,,,,,,,,5be1c7de91deed00015a97b9,24,Mężczyzna,2022-06-11_09h13.03.713,task,2021.1.4,MacIntel,59.88382538,6299f149e92ead563fba08ef,62a440032acb8d1d2b0e9127,gdmw,"[""g"",""d"",""m"",""w""]","[1.27860000000004,1.6149000000000058,2.0143000000000484,2.22980000000004,2.6864999999999952]",1,GDMW,5,0,5,0,1,,,,,,,,,,,,,,,,,,,,,,,,,,,,,,,,,,,,,,,,,,,,,,,,,,,,,,,,,,,,,,,,,,,,,,,,,,,,,,,,,,,,,,,,,,,
,,,,,,0,0,0,0,1,X V Q F H G B L J M P D K C T S W R N Z,5be1c7de91deed00015a97b9,24,Mężczyzna,2022-06-11_09h13.03.713,task,2021.1.4,MacIntel,59.88382538,6299f149e92ead563fba08ef,62a440032acb8d1d2b0e9127,,,,,,,,,,,,,,,,,,,,,,,,,,,,,,,,,,,,,,,,,,,,,,,,,,,,,,,,,,,,,,,,,,,,,,,,,,,,,,,,,,,,,,,,,,,,,,,,,,,,,
,,,,,,1,0,1,0,1,X V Q F H G B L J M P D K C T S W R N Z,5be1c7de91deed00015a97b9,24,Mężczyzna,2022-06-11_09h13.03.713,task,2021.1.4,MacIntel,59.88382538,6299f149e92ead563fba08ef,62a440032acb8d1d2b0e9127,,,,,,,,,,,,,,,,,,,,,,,,,,,,,,,,,,,,,,,,,,,,,,,,,,,,,,,,,,,,,,,,,,,,,,,,,,,,,,,,,,,,,,,,,,,,,,,,,,,,,
,,,,,,2,0,2,0,1,X V Q F H G B L J M P D K C T S W R N Z,5be1c7de91deed00015a97b9,24,Mężczyzna,2022-06-11_09h13.03.713,task,2021.1.4,MacIntel,59.88382538,6299f149e92ead563fba08ef,62a440032acb8d1d2b0e9127,,,,,,,,,,,,,,,,,,,,,,,,,,,,,,,,,,,,,,,,,,,,,,,,,,,,,,,,,,,,,,,,,,,,,,,,,,,,,,,,,,,,,,,,,,,,,,,,,,,,,
,,,,,,3,0,3,0,1,X V Q F H G B L J M P D K C T S W R N Z,5be1c7de91deed00015a97b9,24,Mężczyzna,2022-06-11_09h13.03.713,task,2021.1.4,MacIntel,59.88382538,6299f149e92ead563fba08ef,62a440032acb8d1d2b0e9127,,,,,,,,,,,,,,,,,,,,,,,,,,,,,,,,,,,,,,,,,,,,,,,,,,,,,,,,,,,,,,,,,,,,,,,,,,,,,,,,,,,,,,,,,,,,,,,,,,,,,
,,,,,,4,0,4,0,1,X V Q F H G B L J M P D K C T S W R N Z,5be1c7de91deed00015a97b9,24,Mężczyzna,2022-06-11_09h13.03.713,task,2021.1.4,MacIntel,59.88382538,6299f149e92ead563fba08ef,62a440032acb8d1d2b0e9127,,,,,,,,,,,,,,,,,,,,,,,,,,,,,,,,,,,,,,,,,,,,,,,,,,,,,,,,,,,,,,,,,,,,,,,,,,,,,,,,,,,,,,,,,,,,,,,,,,,,,
,,,,,,,,,,,,5be1c7de91deed00015a97b9,24,Mężczyzna,2022-06-11_09h13.03.713,task,2021.1.4,MacIntel,59.88382538,6299f149e92ead563fba08ef,62a440032acb8d1d2b0e9127,jcqtc,"[""j"",""c"",""q"",""t"",""c""]","[1.4263999999999726,1.5937999999999874,2.0185000000000173,2.153599999999983,2.8815999999999917,3.7635999999999967]",1,JCQTC,6,0,6,0,1,,,,,,,,,,,,,,,,,,,,,,,,,,,,,,,,,,,,,,,,,,,,,,,,,,,,,,,,,,,,,,,,,,,,,,,,,,,,,,,,,,,,,,,,,,,
,,,,,,0,0,0,0,1,X V Q F H G B L J M P D K C T S W R N Z,5be1c7de91deed00015a97b9,24,Mężczyzna,2022-06-11_09h13.03.713,task,2021.1.4,MacIntel,59.88382538,6299f149e92ead563fba08ef,62a440032acb8d1d2b0e9127,,,,,,,,,,,,,,,,,,,,,,,,,,,,,,,,,,,,,,,,,,,,,,,,,,,,,,,,,,,,,,,,,,,,,,,,,,,,,,,,,,,,,,,,,,,,,,,,,,,,,
,,,,,,1,0,1,0,1,X V Q F H G B L J M P D K C T S W R N Z,5be1c7de91deed00015a97b9,24,Mężczyzna,2022-06-11_09h13.03.713,task,2021.1.4,MacIntel,59.88382538,6299f149e92ead563fba08ef,62a440032acb8d1d2b0e9127,,,,,,,,,,,,,,,,,,,,,,,,,,,,,,,,,,,,,,,,,,,,,,,,,,,,,,,,,,,,,,,,,,,,,,,,,,,,,,,,,,,,,,,,,,,,,,,,,,,,,
,,,,,,2,0,2,0,1,X V Q F H G B L J M P D K C T S W R N Z,5be1c7de91deed00015a97b9,24,Mężczyzna,2022-06-11_09h13.03.713,task,2021.1.4,MacIntel,59.88382538,6299f149e92ead563fba08ef,62a440032acb8d1d2b0e9127,,,,,,,,,,,,,,,,,,,,,,,,,,,,,,,,,,,,,,,,,,,,,,,,,,,,,,,,,,,,,,,,,,,,,,,,,,,,,,,,,,,,,,,,,,,,,,,,,,,,,
,,,,,,3,0,3,0,1,X V Q F H G B L J M P D K C T S W R N Z,5be1c7de91deed00015a97b9,24,Mężczyzna,2022-06-11_09h13.03.713,task,2021.1.4,MacIntel,59.88382538,6299f149e92ead563fba08ef,62a440032acb8d1d2b0e9127,,,,,,,,,,,,,,,,,,,,,,,,,,,,,,,,,,,,,,,,,,,,,,,,,,,,,,,,,,,,,,,,,,,,,,,,,,,,,,,,,,,,,,,,,,,,,,,,,,,,,
,,,,,,4,0,4,0,1,X V Q F H G B L J M P D K C T S W R N Z,5be1c7de91deed00015a97b9,24,Mężczyzna,2022-06-11_09h13.03.713,task,2021.1.4,MacIntel,59.88382538,6299f149e92ead563fba08ef,62a440032acb8d1d2b0e9127,,,,,,,,,,,,,,,,,,,,,,,,,,,,,,,,,,,,,,,,,,,,,,,,,,,,,,,,,,,,,,,,,,,,,,,,,,,,,,,,,,,,,,,,,,,,,,,,,,,,,
,,,,,,,,,,,,5be1c7de91deed00015a97b9,24,Mężczyzna,2022-06-11_09h13.03.713,task,2021.1.4,MacIntel,59.88382538,6299f149e92ead563fba08ef,62a440032acb8d1d2b0e9127,wjqwm,"[""w"",""j"",""q"",""w"",""m""]","[3.5924000000000262,3.7194000000000074,3.887100000000032,4.200700000000012,4.406700000000001,4.799999999999983]",1,WJQWM,7,0,7,0,1,,,,,,,,,,,,,,,,,,,,,,,,,,,,,,,,,,,,,,,,,,,,,,,,,,,,,,,,,,,,,,,,,,,,,,,,,,,,,,,,,,,,,,,,,,,
,,,,,,0,0,0,0,1,X V Q F H G B L J M P D K C T S W R N Z,5be1c7de91deed00015a97b9,24,Mężczyzna,2022-06-11_09h13.03.713,task,2021.1.4,MacIntel,59.88382538,6299f149e92ead563fba08ef,62a440032acb8d1d2b0e9127,,,,,,,,,,,,,,,,,,,,,,,,,,,,,,,,,,,,,,,,,,,,,,,,,,,,,,,,,,,,,,,,,,,,,,,,,,,,,,,,,,,,,,,,,,,,,,,,,,,,,
,,,,,,1,0,1,0,1,X V Q F H G B L J M P D K C T S W R N Z,5be1c7de91deed00015a97b9,24,Mężczyzna,2022-06-11_09h13.03.713,task,2021.1.4,MacIntel,59.88382538,6299f149e92ead563fba08ef,62a440032acb8d1d2b0e9127,,,,,,,,,,,,,,,,,,,,,,,,,,,,,,,,,,,,,,,,,,,,,,,,,,,,,,,,,,,,,,,,,,,,,,,,,,,,,,,,,,,,,,,,,,,,,,,,,,,,,
,,,,,,2,0,2,0,1,X V Q F H G B L J M P D K C T S W R N Z,5be1c7de91deed00015a97b9,24,Mężczyzna,2022-06-11_09h13.03.713,task,2021.1.4,MacIntel,59.88382538,6299f149e92ead563fba08ef,62a440032acb8d1d2b0e9127,,,,,,,,,,,,,,,,,,,,,,,,,,,,,,,,,,,,,,,,,,,,,,,,,,,,,,,,,,,,,,,,,,,,,,,,,,,,,,,,,,,,,,,,,,,,,,,,,,,,,
,,,,,,3,0,3,0,1,X V Q F H G B L J M P D K C T S W R N Z,5be1c7de91deed00015a97b9,24,Mężczyzna,2022-06-11_09h13.03.713,task,2021.1.4,MacIntel,59.88382538,6299f149e92ead563fba08ef,62a440032acb8d1d2b0e9127,,,,,,,,,,,,,,,,,,,,,,,,,,,,,,,,,,,,,,,,,,,,,,,,,,,,,,,,,,,,,,,,,,,,,,,,,,,,,,,,,,,,,,,,,,,,,,,,,,,,,
,,,,,,4,0,4,0,1,X V Q F H G B L J M P D K C T S W R N Z,5be1c7de91deed00015a97b9,24,Mężczyzna,2022-06-11_09h13.03.713,task,2021.1.4,MacIntel,59.88382538,6299f149e92ead563fba08ef,62a440032acb8d1d2b0e9127,,,,,,,,,,,,,,,,,,,,,,,,,,,,,,,,,,,,,,,,,,,,,,,,,,,,,,,,,,,,,,,,,,,,,,,,,,,,,,,,,,,,,,,,,,,,,,,,,,,,,
,,,,,,5,0,5,0,1,X V Q F H G B L J M P D K C T S W R N Z,5be1c7de91deed00015a97b9,24,Mężczyzna,2022-06-11_09h13.03.713,task,2021.1.4,MacIntel,59.88382538,6299f149e92ead563fba08ef,62a440032acb8d1d2b0e9127,,,,,,,,,,,,,,,,,,,,,,,,,,,,,,,,,,,,,,,,,,,,,,,,,,,,,,,,,,,,,,,,,,,,,,,,,,,,,,,,,,,,,,,,,,,,,,,,,,,,,
,,,,,,,,,,,,5be1c7de91deed00015a97b9,24,Mężczyzna,2022-06-11_09h13.03.713,task,2021.1.4,MacIntel,59.88382538,6299f149e92ead563fba08ef,62a440032acb8d1d2b0e9127,jrmpdg,"[""j"",""r"",""m"",""p"",""d"",""g""]","[1.3343999999999596,2.3100000000000307,3.0858999999999526,3.413800000000009,3.8218999999999994,4.061899999999952,4.53400000000002]",1,JRMPDG,8,0,8,0,1,,,,,,,,,,,,,,,,,,,,,,,,,,,,,,,,,,,,,,,,,,,,,,,,,,,,,,,,,,,,,,,,,,,,,,,,,,,,,,,,,,,,,,,,,,,
,,,,,,0,0,0,0,1,X V Q F H G B L J M P D K C T S W R N Z,5be1c7de91deed00015a97b9,24,Mężczyzna,2022-06-11_09h13.03.713,task,2021.1.4,MacIntel,59.88382538,6299f149e92ead563fba08ef,62a440032acb8d1d2b0e9127,,,,,,,,,,,,,,,,,,,,,,,,,,,,,,,,,,,,,,,,,,,,,,,,,,,,,,,,,,,,,,,,,,,,,,,,,,,,,,,,,,,,,,,,,,,,,,,,,,,,,
,,,,,,1,0,1,0,1,X V Q F H G B L J M P D K C T S W R N Z,5be1c7de91deed00015a97b9,24,Mężczyzna,2022-06-11_09h13.03.713,task,2021.1.4,MacIntel,59.88382538,6299f149e92ead563fba08ef,62a440032acb8d1d2b0e9127,,,,,,,,,,,,,,,,,,,,,,,,,,,,,,,,,,,,,,,,,,,,,,,,,,,,,,,,,,,,,,,,,,,,,,,,,,,,,,,,,,,,,,,,,,,,,,,,,,,,,
,,,,,,2,0,2,0,1,X V Q F H G B L J M P D K C T S W R N Z,5be1c7de91deed00015a97b9,24,Mężczyzna,2022-06-11_09h13.03.713,task,2021.1.4,MacIntel,59.88382538,6299f149e92ead563fba08ef,62a440032acb8d1d2b0e9127,,,,,,,,,,,,,,,,,,,,,,,,,,,,,,,,,,,,,,,,,,,,,,,,,,,,,,,,,,,,,,,,,,,,,,,,,,,,,,,,,,,,,,,,,,,,,,,,,,,,,
,,,,,,3,0,3,0,1,X V Q F H G B L J M P D K C T S W R N Z,5be1c7de91deed00015a97b9,24,Mężczyzna,2022-06-11_09h13.03.713,task,2021.1.4,MacIntel,59.88382538,6299f149e92ead563fba08ef,62a440032acb8d1d2b0e9127,,,,,,,,,,,,,,,,,,,,,,,,,,,,,,,,,,,,,,,,,,,,,,,,,,,,,,,,,,,,,,,,,,,,,,,,,,,,,,,,,,,,,,,,,,,,,,,,,,,,,
,,,,,,4,0,4,0,1,X V Q F H G B L J M P D K C T S W R N Z,5be1c7de91deed00015a97b9,24,Mężczyzna,2022-06-11_09h13.03.713,task,2021.1.4,MacIntel,59.88382538,6299f149e92ead563fba08ef,62a440032acb8d1d2b0e9127,,,,,,,,,,,,,,,,,,,,,,,,,,,,,,,,,,,,,,,,,,,,,,,,,,,,,,,,,,,,,,,,,,,,,,,,,,,,,,,,,,,,,,,,,,,,,,,,,,,,,
,,,,,,5,0,5,0,1,X V Q F H G B L J M P D K C T S W R N Z,5be1c7de91deed00015a97b9,24,Mężczyzna,2022-06-11_09h13.03.713,task,2021.1.4,MacIntel,59.88382538,6299f149e92ead563fba08ef,62a440032acb8d1d2b0e9127,,,,,,,,,,,,,,,,,,,,,,,,,,,,,,,,,,,,,,,,,,,,,,,,,,,,,,,,,,,,,,,,,,,,,,,,,,,,,,,,,,,,,,,,,,,,,,,,,,,,,
,,,,,,,,,,,,5be1c7de91deed00015a97b9,24,Mężczyzna,2022-06-11_09h13.03.713,task,2021.1.4,MacIntel,59.88382538,6299f149e92ead563fba08ef,62a440032acb8d1d2b0e9127,mlmq,"[""m"",""l"",""m"",""q""]","[5.835700000000031,130.5881,130.84459999999996,130.97170000000006,136.01220000000006]",0,MLMQCJ,9,0,9,0,1,,,,,,,,,,,,,,,,,,,,,,,,,,,,,,,,,,,,,,,,,,,,,,,,,,,,,,,,,,,,,,,,,,,,,,,,,,,,,,,,,,,,,,,,,,,
,,,,,,0,0,0,0,1,X V Q F H G B L J M P D K C T S W R N Z,5be1c7de91deed00015a97b9,24,Mężczyzna,2022-06-11_09h13.03.713,task,2021.1.4,MacIntel,59.88382538,6299f149e92ead563fba08ef,62a440032acb8d1d2b0e9127,,,,,,,,,,,,,,,,,,,,,,,,,,,,,,,,,,,,,,,,,,,,,,,,,,,,,,,,,,,,,,,,,,,,,,,,,,,,,,,,,,,,,,,,,,,,,,,,,,,,,
,,,,,,1,0,1,0,1,X V Q F H G B L J M P D K C T S W R N Z,5be1c7de91deed00015a97b9,24,Mężczyzna,2022-06-11_09h13.03.713,task,2021.1.4,MacIntel,59.88382538,6299f149e92ead563fba08ef,62a440032acb8d1d2b0e9127,,,,,,,,,,,,,,,,,,,,,,,,,,,,,,,,,,,,,,,,,,,,,,,,,,,,,,,,,,,,,,,,,,,,,,,,,,,,,,,,,,,,,,,,,,,,,,,,,,,,,
,,,,,,2,0,2,0,1,X V Q F H G B L J M P D K C T S W R N Z,5be1c7de91deed00015a97b9,24,Mężczyzna,2022-06-11_09h13.03.713,task,2021.1.4,MacIntel,59.88382538,6299f149e92ead563fba08ef,62a440032acb8d1d2b0e9127,,,,,,,,,,,,,,,,,,,,,,,,,,,,,,,,,,,,,,,,,,,,,,,,,,,,,,,,,,,,,,,,,,,,,,,,,,,,,,,,,,,,,,,,,,,,,,,,,,,,,
,,,,,,3,0,3,0,1,X V Q F H G B L J M P D K C T S W R N Z,5be1c7de91deed00015a97b9,24,Mężczyzna,2022-06-11_09h13.03.713,task,2021.1.4,MacIntel,59.88382538,6299f149e92ead563fba08ef,62a440032acb8d1d2b0e9127,,,,,,,,,,,,,,,,,,,,,,,,,,,,,,,,,,,,,,,,,,,,,,,,,,,,,,,,,,,,,,,,,,,,,,,,,,,,,,,,,,,,,,,,,,,,,,,,,,,,,
,,,,,,4,0,4,0,1,X V Q F H G B L J M P D K C T S W R N Z,5be1c7de91deed00015a97b9,24,Mężczyzna,2022-06-11_09h13.03.713,task,2021.1.4,MacIntel,59.88382538,6299f149e92ead563fba08ef,62a440032acb8d1d2b0e9127,,,,,,,,,,,,,,,,,,,,,,,,,,,,,,,,,,,,,,,,,,,,,,,,,,,,,,,,,,,,,,,,,,,,,,,,,,,,,,,,,,,,,,,,,,,,,,,,,,,,,
,,,,,,5,0,5,0,1,X V Q F H G B L J M P D K C T S W R N Z,5be1c7de91deed00015a97b9,24,Mężczyzna,2022-06-11_09h13.03.713,task,2021.1.4,MacIntel,59.88382538,6299f149e92ead563fba08ef,62a440032acb8d1d2b0e9127,,,,,,,,,,,,,,,,,,,,,,,,,,,,,,,,,,,,,,,,,,,,,,,,,,,,,,,,,,,,,,,,,,,,,,,,,,,,,,,,,,,,,,,,,,,,,,,,,,,,,
,,,,,,,,,,,,5be1c7de91deed00015a97b9,24,Mężczyzna,2022-06-11_09h13.03.713,task,2021.1.4,MacIntel,59.88382538,6299f149e92ead563fba08ef,62a440032acb8d1d2b0e9127,ckxkmn,"[""c"",""k"",""x"",""k"",""m"",""n""]","[1.68040000000002,12.408900000000017,12.50380000000007,12.648600000000101,13.5852000000001,13.761100000000113,14.120200000000068]",0,CXKKMN,10,0,10,0,1,,,,,,,,,,,,,,,,,,,,,,,,,,,,,,,,,,,,,,,,,,,,,,,,,,,,,,,,,,,,,,,,,,,,,,,,,,,,,,,,,,,,,,,,,,,
,,,,,,0,0,0,0,1,X V Q F H G B L J M P D K C T S W R N Z,5be1c7de91deed00015a97b9,24,Mężczyzna,2022-06-11_09h13.03.713,task,2021.1.4,MacIntel,59.88382538,6299f149e92ead563fba08ef,62a440032acb8d1d2b0e9127,,,,,,,,,,,,,,,,,,,,,,,,,,,,,,,,,,,,,,,,,,,,,,,,,,,,,,,,,,,,,,,,,,,,,,,,,,,,,,,,,,,,,,,,,,,,,,,,,,,,,
,,,,,,1,0,1,0,1,X V Q F H G B L J M P D K C T S W R N Z,5be1c7de91deed00015a97b9,24,Mężczyzna,2022-06-11_09h13.03.713,task,2021.1.4,MacIntel,59.88382538,6299f149e92ead563fba08ef,62a440032acb8d1d2b0e9127,,,,,,,,,,,,,,,,,,,,,,,,,,,,,,,,,,,,,,,,,,,,,,,,,,,,,,,,,,,,,,,,,,,,,,,,,,,,,,,,,,,,,,,,,,,,,,,,,,,,,
,,,,,,2,0,2,0,1,X V Q F H G B L J M P D K C T S W R N Z,5be1c7de91deed00015a97b9,24,Mężczyzna,2022-06-11_09h13.03.713,task,2021.1.4,MacIntel,59.88382538,6299f149e92ead563fba08ef,62a440032acb8d1d2b0e9127,,,,,,,,,,,,,,,,,,,,,,,,,,,,,,,,,,,,,,,,,,,,,,,,,,,,,,,,,,,,,,,,,,,,,,,,,,,,,,,,,,,,,,,,,,,,,,,,,,,,,
,,,,,,3,0,3,0,1,X V Q F H G B L J M P D K C T S W R N Z,5be1c7de91deed00015a97b9,24,Mężczyzna,2022-06-11_09h13.03.713,task,2021.1.4,MacIntel,59.88382538,6299f149e92ead563fba08ef,62a440032acb8d1d2b0e9127,,,,,,,,,,,,,,,,,,,,,,,,,,,,,,,,,,,,,,,,,,,,,,,,,,,,,,,,,,,,,,,,,,,,,,,,,,,,,,,,,,,,,,,,,,,,,,,,,,,,,
,,,,,,4,0,4,0,1,X V Q F H G B L J M P D K C T S W R N Z,5be1c7de91deed00015a97b9,24,Mężczyzna,2022-06-11_09h13.03.713,task,2021.1.4,MacIntel,59.88382538,6299f149e92ead563fba08ef,62a440032acb8d1d2b0e9127,,,,,,,,,,,,,,,,,,,,,,,,,,,,,,,,,,,,,,,,,,,,,,,,,,,,,,,,,,,,,,,,,,,,,,,,,,,,,,,,,,,,,,,,,,,,,,,,,,,,,
,,,,,,5,0,5,0,1,X V Q F H G B L J M P D K C T S W R N Z,5be1c7de91deed00015a97b9,24,Mężczyzna,2022-06-11_09h13.03.713,task,2021.1.4,MacIntel,59.88382538,6299f149e92ead563fba08ef,62a440032acb8d1d2b0e9127,,,,,,,,,,,,,,,,,,,,,,,,,,,,,,,,,,,,,,,,,,,,,,,,,,,,,,,,,,,,,,,,,,,,,,,,,,,,,,,,,,,,,,,,,,,,,,,,,,,,,
,,,,,,,,,,,,5be1c7de91deed00015a97b9,24,Mężczyzna,2022-06-11_09h13.03.713,task,2021.1.4,MacIntel,59.88382538,6299f149e92ead563fba08ef,62a440032acb8d1d2b0e9127,pgjggh,"[""p"",""g"",""j"",""g"",""g"",""h""]","[1.086400000000026,1.2705000000000268,1.5346999999999866,2.2719000000000165,2.42349999999999,3.0475000000000136,3.1749000000000365]",1,PGJGGH,11,0,11,0,1,,,,,,,,,,,,,,,,,,,,,,,,,,,,,,,,,,,,,,,,,,,,,,,,,,,,,,,,,,,,,,,,,,,,,,,,,,,,,,,,,,,,,,,,,,,
,,,,,,0,0,0,0,1,X V Q F H G B L J M P D K C T S W R N Z,5be1c7de91deed00015a97b9,24,Mężczyzna,2022-06-11_09h13.03.713,task,2021.1.4,MacIntel,59.88382538,6299f149e92ead563fba08ef,62a440032acb8d1d2b0e9127,,,,,,,,,,,,,,,,,,,,,,,,,,,,,,,,,,,,,,,,,,,,,,,,,,,,,,,,,,,,,,,,,,,,,,,,,,,,,,,,,,,,,,,,,,,,,,,,,,,,,
,,,,,,1,0,1,0,1,X V Q F H G B L J M P D K C T S W R N Z,5be1c7de91deed00015a97b9,24,Mężczyzna,2022-06-11_09h13.03.713,task,2021.1.4,MacIntel,59.88382538,6299f149e92ead563fba08ef,62a440032acb8d1d2b0e9127,,,,,,,,,,,,,,,,,,,,,,,,,,,,,,,,,,,,,,,,,,,,,,,,,,,,,,,,,,,,,,,,,,,,,,,,,,,,,,,,,,,,,,,,,,,,,,,,,,,,,
,,,,,,2,0,2,0,1,X V Q F H G B L J M P D K C T S W R N Z,5be1c7de91deed00015a97b9,24,Mężczyzna,2022-06-11_09h13.03.713,task,2021.1.4,MacIntel,59.88382538,6299f149e92ead563fba08ef,62a440032acb8d1d2b0e9127,,,,,,,,,,,,,,,,,,,,,,,,,,,,,,,,,,,,,,,,,,,,,,,,,,,,,,,,,,,,,,,,,,,,,,,,,,,,,,,,,,,,,,,,,,,,,,,,,,,,,
,,,,,,3,0,3,0,1,X V Q F H G B L J M P D K C T S W R N Z,5be1c7de91deed00015a97b9,24,Mężczyzna,2022-06-11_09h13.03.713,task,2021.1.4,MacIntel,59.88382538,6299f149e92ead563fba08ef,62a440032acb8d1d2b0e9127,,,,,,,,,,,,,,,,,,,,,,,,,,,,,,,,,,,,,,,,,,,,,,,,,,,,,,,,,,,,,,,,,,,,,,,,,,,,,,,,,,,,,,,,,,,,,,,,,,,,,
,,,,,,4,0,4,0,1,X V Q F H G B L J M P D K C T S W R N Z,5be1c7de91deed00015a97b9,24,Mężczyzna,2022-06-11_09h13.03.713,task,2021.1.4,MacIntel,59.88382538,6299f149e92ead563fba08ef,62a440032acb8d1d2b0e9127,,,,,,,,,,,,,,,,,,,,,,,,,,,,,,,,,,,,,,,,,,,,,,,,,,,,,,,,,,,,,,,,,,,,,,,,,,,,,,,,,,,,,,,,,,,,,,,,,,,,,
,,,,,,5,0,5,0,1,X V Q F H G B L J M P D K C T S W R N Z,5be1c7de91deed00015a97b9,24,Mężczyzna,2022-06-11_09h13.03.713,task,2021.1.4,MacIntel,59.88382538,6299f149e92ead563fba08ef,62a440032acb8d1d2b0e9127,,,,,,,,,,,,,,,,,,,,,,,,,,,,,,,,,,,,,,,,,,,,,,,,,,,,,,,,,,,,,,,,,,,,,,,,,,,,,,,,,,,,,,,,,,,,,,,,,,,,,
,,,,,,6,0,6,0,1,X V Q F H G B L J M P D K C T S W R N Z,5be1c7de91deed00015a97b9,24,Mężczyzna,2022-06-11_09h13.03.713,task,2021.1.4,MacIntel,59.88382538,6299f149e92ead563fba08ef,62a440032acb8d1d2b0e9127,,,,,,,,,,,,,,,,,,,,,,,,,,,,,,,,,,,,,,,,,,,,,,,,,,,,,,,,,,,,,,,,,,,,,,,,,,,,,,,,,,,,,,,,,,,,,,,,,,,,,
,,,,,,,,,,,,5be1c7de91deed00015a97b9,24,Mężczyzna,2022-06-11_09h13.03.713,task,2021.1.4,MacIntel,59.88382538,6299f149e92ead563fba08ef,62a440032acb8d1d2b0e9127,zmwcrmg,"[""z"",""m"",""w"",""c"",""r"",""m"",""g""]","[1.105099999999993,1.4168000000000802,1.6650000000000205,2.15300000000002,2.7291000000000167,2.9687000000000694,3.1861000000000104,5.330500000000029]",1,ZMWCRMG,12,0,12,0,1,,,,,,,,,,,,,,,,,,,,,,,,,,,,,,,,,,,,,,,,,,,,,,,,,,,,,,,,,,,,,,,,,,,,,,,,,,,,,,,,,,,,,,,,,,,
,,,,,,0,0,0,0,1,X V Q F H G B L J M P D K C T S W R N Z,5be1c7de91deed00015a97b9,24,Mężczyzna,2022-06-11_09h13.03.713,task,2021.1.4,MacIntel,59.88382538,6299f149e92ead563fba08ef,62a440032acb8d1d2b0e9127,,,,,,,,,,,,,,,,,,,,,,,,,,,,,,,,,,,,,,,,,,,,,,,,,,,,,,,,,,,,,,,,,,,,,,,,,,,,,,,,,,,,,,,,,,,,,,,,,,,,,
,,,,,,1,0,1,0,1,X V Q F H G B L J M P D K C T S W R N Z,5be1c7de91deed00015a97b9,24,Mężczyzna,2022-06-11_09h13.03.713,task,2021.1.4,MacIntel,59.88382538,6299f149e92ead563fba08ef,62a440032acb8d1d2b0e9127,,,,,,,,,,,,,,,,,,,,,,,,,,,,,,,,,,,,,,,,,,,,,,,,,,,,,,,,,,,,,,,,,,,,,,,,,,,,,,,,,,,,,,,,,,,,,,,,,,,,,
,,,,,,2,0,2,0,1,X V Q F H G B L J M P D K C T S W R N Z,5be1c7de91deed00015a97b9,24,Mężczyzna,2022-06-11_09h13.03.713,task,2021.1.4,MacIntel,59.88382538,6299f149e92ead563fba08ef,62a440032acb8d1d2b0e9127,,,,,,,,,,,,,,,,,,,,,,,,,,,,,,,,,,,,,,,,,,,,,,,,,,,,,,,,,,,,,,,,,,,,,,,,,,,,,,,,,,,,,,,,,,,,,,,,,,,,,
,,,,,,3,0,3,0,1,X V Q F H G B L J M P D K C T S W R N Z,5be1c7de91deed00015a97b9,24,Mężczyzna,2022-06-11_09h13.03.713,task,2021.1.4,MacIntel,59.88382538,6299f149e92ead563fba08ef,62a440032acb8d1d2b0e9127,,,,,,,,,,,,,,,,,,,,,,,,,,,,,,,,,,,,,,,,,,,,,,,,,,,,,,,,,,,,,,,,,,,,,,,,,,,,,,,,,,,,,,,,,,,,,,,,,,,,,
,,,,,,4,0,4,0,1,X V Q F H G B L J M P D K C T S W R N Z,5be1c7de91deed00015a97b9,24,Mężczyzna,2022-06-11_09h13.03.713,task,2021.1.4,MacIntel,59.88382538,6299f149e92ead563fba08ef,62a440032acb8d1d2b0e9127,,,,,,,,,,,,,,,,,,,,,,,,,,,,,,,,,,,,,,,,,,,,,,,,,,,,,,,,,,,,,,,,,,,,,,,,,,,,,,,,,,,,,,,,,,,,,,,,,,,,,
,,,,,,5,0,5,0,1,X V Q F H G B L J M P D K C T S W R N Z,5be1c7de91deed00015a97b9,24,Mężczyzna,2022-06-11_09h13.03.713,task,2021.1.4,MacIntel,59.88382538,6299f149e92ead563fba08ef,62a440032acb8d1d2b0e9127,,,,,,,,,,,,,,,,,,,,,,,,,,,,,,,,,,,,,,,,,,,,,,,,,,,,,,,,,,,,,,,,,,,,,,,,,,,,,,,,,,,,,,,,,,,,,,,,,,,,,
,,,,,,6,0,6,0,1,X V Q F H G B L J M P D K C T S W R N Z,5be1c7de91deed00015a97b9,24,Mężczyzna,2022-06-11_09h13.03.713,task,2021.1.4,MacIntel,59.88382538,6299f149e92ead563fba08ef,62a440032acb8d1d2b0e9127,,,,,,,,,,,,,,,,,,,,,,,,,,,,,,,,,,,,,,,,,,,,,,,,,,,,,,,,,,,,,,,,,,,,,,,,,,,,,,,,,,,,,,,,,,,,,,,,,,,,,
,,,,,,,,,,,,5be1c7de91deed00015a97b9,24,Mężczyzna,2022-06-11_09h13.03.713,task,2021.1.4,MacIntel,59.88382538,6299f149e92ead563fba08ef,62a440032acb8d1d2b0e9127,fpcwswj,"[""f"",""p"",""c"",""w"",""s"",""w"",""j""]","[1.4431999999999334,1.674699999999973,2.228999999999985,2.466699999999946,2.698500000000024,3.211500000000001,3.3390999999999735,3.6272999999999342]",1,FPCWSWJ,13,0,13,0,1,,,,,,,,,,,,,,,,,,,,,,,,,,,,,,,,,,,,,,,,,,,,,,,,,,,,,,,,,,,,,,,,,,,,,,,,,,,,,,,,,,,,,,,,,,,
,,,,,,0,0,0,0,1,X V Q F H G B L J M P D K C T S W R N Z,5be1c7de91deed00015a97b9,24,Mężczyzna,2022-06-11_09h13.03.713,task,2021.1.4,MacIntel,59.88382538,6299f149e92ead563fba08ef,62a440032acb8d1d2b0e9127,,,,,,,,,,,,,,,,,,,,,,,,,,,,,,,,,,,,,,,,,,,,,,,,,,,,,,,,,,,,,,,,,,,,,,,,,,,,,,,,,,,,,,,,,,,,,,,,,,,,,
,,,,,,1,0,1,0,1,X V Q F H G B L J M P D K C T S W R N Z,5be1c7de91deed00015a97b9,24,Mężczyzna,2022-06-11_09h13.03.713,task,2021.1.4,MacIntel,59.88382538,6299f149e92ead563fba08ef,62a440032acb8d1d2b0e9127,,,,,,,,,,,,,,,,,,,,,,,,,,,,,,,,,,,,,,,,,,,,,,,,,,,,,,,,,,,,,,,,,,,,,,,,,,,,,,,,,,,,,,,,,,,,,,,,,,,,,
,,,,,,2,0,2,0,1,X V Q F H G B L J M P D K C T S W R N Z,5be1c7de91deed00015a97b9,24,Mężczyzna,2022-06-11_09h13.03.713,task,2021.1.4,MacIntel,59.88382538,6299f149e92ead563fba08ef,62a440032acb8d1d2b0e9127,,,,,,,,,,,,,,,,,,,,,,,,,,,,,,,,,,,,,,,,,,,,,,,,,,,,,,,,,,,,,,,,,,,,,,,,,,,,,,,,,,,,,,,,,,,,,,,,,,,,,
,,,,,,3,0,3,0,1,X V Q F H G B L J M P D K C T S W R N Z,5be1c7de91deed00015a97b9,24,Mężczyzna,2022-06-11_09h13.03.713,task,2021.1.4,MacIntel,59.88382538,6299f149e92ead563fba08ef,62a440032acb8d1d2b0e9127,,,,,,,,,,,,,,,,,,,,,,,,,,,,,,,,,,,,,,,,,,,,,,,,,,,,,,,,,,,,,,,,,,,,,,,,,,,,,,,,,,,,,,,,,,,,,,,,,,,,,
,,,,,,4,0,4,0,1,X V Q F H G B L J M P D K C T S W R N Z,5be1c7de91deed00015a97b9,24,Mężczyzna,2022-06-11_09h13.03.713,task,2021.1.4,MacIntel,59.88382538,6299f149e92ead563fba08ef,62a440032acb8d1d2b0e9127,,,,,,,,,,,,,,,,,,,,,,,,,,,,,,,,,,,,,,,,,,,,,,,,,,,,,,,,,,,,,,,,,,,,,,,,,,,,,,,,,,,,,,,,,,,,,,,,,,,,,
,,,,,,5,0,5,0,1,X V Q F H G B L J M P D K C T S W R N Z,5be1c7de91deed00015a97b9,24,Mężczyzna,2022-06-11_09h13.03.713,task,2021.1.4,MacIntel,59.88382538,6299f149e92ead563fba08ef,62a440032acb8d1d2b0e9127,,,,,,,,,,,,,,,,,,,,,,,,,,,,,,,,,,,,,,,,,,,,,,,,,,,,,,,,,,,,,,,,,,,,,,,,,,,,,,,,,,,,,,,,,,,,,,,,,,,,,
,,,,,,6,0,6,0,1,X V Q F H G B L J M P D K C T S W R N Z,5be1c7de91deed00015a97b9,24,Mężczyzna,2022-06-11_09h13.03.713,task,2021.1.4,MacIntel,59.88382538,6299f149e92ead563fba08ef,62a440032acb8d1d2b0e9127,,,,,,,,,,,,,,,,,,,,,,,,,,,,,,,,,,,,,,,,,,,,,,,,,,,,,,,,,,,,,,,,,,,,,,,,,,,,,,,,,,,,,,,,,,,,,,,,,,,,,
,,,,,,7,0,7,0,1,X V Q F H G B L J M P D K C T S W R N Z,5be1c7de91deed00015a97b9,24,Mężczyzna,2022-06-11_09h13.03.713,task,2021.1.4,MacIntel,59.88382538,6299f149e92ead563fba08ef,62a440032acb8d1d2b0e9127,,,,,,,,,,,,,,,,,,,,,,,,,,,,,,,,,,,,,,,,,,,,,,,,,,,,,,,,,,,,,,,,,,,,,,,,,,,,,,,,,,,,,,,,,,,,,,,,,,,,,
,,,,,,,,,,,,5be1c7de91deed00015a97b9,24,Mężczyzna,2022-06-11_09h13.03.713,task,2021.1.4,MacIntel,59.88382538,6299f149e92ead563fba08ef,62a440032acb8d1d2b0e9127,wqsbbkbw,"[""w"",""q"",""s"",""b"",""b"",""k"",""b"",""w""]","[1.2651999999999362,1.4325000000000045,1.650000000000034,1.920599999999979,2.0965999999999667,2.83340000000004,3.1376999999999384,3.264799999999923,3.712699999999984]",1,WQSBBKBW,14,0,14,0,1,,,,,,,,,,,,,,,,,,,,,,,,,,,,,,,,,,,,,,,,,,,,,,,,,,,,,,,,,,,,,,,,,,,,,,,,,,,,,,,,,,,,,,,,,,,
,,,,,,0,0,0,0,1,X V Q F H G B L J M P D K C T S W R N Z,5be1c7de91deed00015a97b9,24,Mężczyzna,2022-06-11_09h13.03.713,task,2021.1.4,MacIntel,59.88382538,6299f149e92ead563fba08ef,62a440032acb8d1d2b0e9127,,,,,,,,,,,,,,,,,,,,,,,,,,,,,,,,,,,,,,,,,,,,,,,,,,,,,,,,,,,,,,,,,,,,,,,,,,,,,,,,,,,,,,,,,,,,,,,,,,,,,
,,,,,,1,0,1,0,1,X V Q F H G B L J M P D K C T S W R N Z,5be1c7de91deed00015a97b9,24,Mężczyzna,2022-06-11_09h13.03.713,task,2021.1.4,MacIntel,59.88382538,6299f149e92ead563fba08ef,62a440032acb8d1d2b0e9127,,,,,,,,,,,,,,,,,,,,,,,,,,,,,,,,,,,,,,,,,,,,,,,,,,,,,,,,,,,,,,,,,,,,,,,,,,,,,,,,,,,,,,,,,,,,,,,,,,,,,
,,,,,,2,0,2,0,1,X V Q F H G B L J M P D K C T S W R N Z,5be1c7de91deed00015a97b9,24,Mężczyzna,2022-06-11_09h13.03.713,task,2021.1.4,MacIntel,59.88382538,6299f149e92ead563fba08ef,62a440032acb8d1d2b0e9127,,,,,,,,,,,,,,,,,,,,,,,,,,,,,,,,,,,,,,,,,,,,,,,,,,,,,,,,,,,,,,,,,,,,,,,,,,,,,,,,,,,,,,,,,,,,,,,,,,,,,
,,,,,,3,0,3,0,1,X V Q F H G B L J M P D K C T S W R N Z,5be1c7de91deed00015a97b9,24,Mężczyzna,2022-06-11_09h13.03.713,task,2021.1.4,MacIntel,59.88382538,6299f149e92ead563fba08ef,62a440032acb8d1d2b0e9127,,,,,,,,,,,,,,,,,,,,,,,,,,,,,,,,,,,,,,,,,,,,,,,,,,,,,,,,,,,,,,,,,,,,,,,,,,,,,,,,,,,,,,,,,,,,,,,,,,,,,
,,,,,,4,0,4,0,1,X V Q F H G B L J M P D K C T S W R N Z,5be1c7de91deed00015a97b9,24,Mężczyzna,2022-06-11_09h13.03.713,task,2021.1.4,MacIntel,59.88382538,6299f149e92ead563fba08ef,62a440032acb8d1d2b0e9127,,,,,,,,,,,,,,,,,,,,,,,,,,,,,,,,,,,,,,,,,,,,,,,,,,,,,,,,,,,,,,,,,,,,,,,,,,,,,,,,,,,,,,,,,,,,,,,,,,,,,
,,,,,,5,0,5,0,1,X V Q F H G B L J M P D K C T S W R N Z,5be1c7de91deed00015a97b9,24,Mężczyzna,2022-06-11_09h13.03.713,task,2021.1.4,MacIntel,59.88382538,6299f149e92ead563fba08ef,62a440032acb8d1d2b0e9127,,,,,,,,,,,,,,,,,,,,,,,,,,,,,,,,,,,,,,,,,,,,,,,,,,,,,,,,,,,,,,,,,,,,,,,,,,,,,,,,,,,,,,,,,,,,,,,,,,,,,
,,,,,,6,0,6,0,1,X V Q F H G B L J M P D K C T S W R N Z,5be1c7de91deed00015a97b9,24,Mężczyzna,2022-06-11_09h13.03.713,task,2021.1.4,MacIntel,59.88382538,6299f149e92ead563fba08ef,62a440032acb8d1d2b0e9127,,,,,,,,,,,,,,,,,,,,,,,,,,,,,,,,,,,,,,,,,,,,,,,,,,,,,,,,,,,,,,,,,,,,,,,,,,,,,,,,,,,,,,,,,,,,,,,,,,,,,
,,,,,,7,0,7,0,1,X V Q F H G B L J M P D K C T S W R N Z,5be1c7de91deed00015a97b9,24,Mężczyzna,2022-06-11_09h13.03.713,task,2021.1.4,MacIntel,59.88382538,6299f149e92ead563fba08ef,62a440032acb8d1d2b0e9127,,,,,,,,,,,,,,,,,,,,,,,,,,,,,,,,,,,,,,,,,,,,,,,,,,,,,,,,,,,,,,,,,,,,,,,,,,,,,,,,,,,,,,,,,,,,,,,,,,,,,
,,,,,,,,,,,,5be1c7de91deed00015a97b9,24,Mężczyzna,2022-06-11_09h13.03.713,task,2021.1.4,MacIntel,59.88382538,6299f149e92ead563fba08ef,62a440032acb8d1d2b0e9127,vrhrdbsl,"[""v"",""r"",""h"",""r"",""d"",""b"",""s"",""l""]","[2.70109999999994,2.8764999999999645,3.2923999999999864,3.4214999999999804,3.684199999999919,4.118499999999983,4.228800000000035,4.621599999999944,5.044999999999959]",0,VRHVDSBL,15,0,15,0,1,,,,,,,,,,,,,,,,,,,,,,,,,,,,,,,,,,,,,,,,,,,,,,,,,,,,,,,,,,,,,,,,,,,,,,,,,,,,,,,,,,,,,,,,,,,
,,,,,,0,0,0,0,1,X V Q F H G B L J M P D K C T S W R N Z,5be1c7de91deed00015a97b9,24,Mężczyzna,2022-06-11_09h13.03.713,task,2021.1.4,MacIntel,59.88382538,6299f149e92ead563fba08ef,62a440032acb8d1d2b0e9127,,,,,,,,,,,,,,,,,,,,,,,,,,,,,,,,,,,,,,,,,,,,,,,,,,,,,,,,,,,,,,,,,,,,,,,,,,,,,,,,,,,,,,,,,,,,,,,,,,,,,
,,,,,,1,0,1,0,1,X V Q F H G B L J M P D K C T S W R N Z,5be1c7de91deed00015a97b9,24,Mężczyzna,2022-06-11_09h13.03.713,task,2021.1.4,MacIntel,59.88382538,6299f149e92ead563fba08ef,62a440032acb8d1d2b0e9127,,,,,,,,,,,,,,,,,,,,,,,,,,,,,,,,,,,,,,,,,,,,,,,,,,,,,,,,,,,,,,,,,,,,,,,,,,,,,,,,,,,,,,,,,,,,,,,,,,,,,
,,,,,,2,0,2,0,1,X V Q F H G B L J M P D K C T S W R N Z,5be1c7de91deed00015a97b9,24,Mężczyzna,2022-06-11_09h13.03.713,task,2021.1.4,MacIntel,59.88382538,6299f149e92ead563fba08ef,62a440032acb8d1d2b0e9127,,,,,,,,,,,,,,,,,,,,,,,,,,,,,,,,,,,,,,,,,,,,,,,,,,,,,,,,,,,,,,,,,,,,,,,,,,,,,,,,,,,,,,,,,,,,,,,,,,,,,
,,,,,,3,0,3,0,1,X V Q F H G B L J M P D K C T S W R N Z,5be1c7de91deed00015a97b9,24,Mężczyzna,2022-06-11_09h13.03.713,task,2021.1.4,MacIntel,59.88382538,6299f149e92ead563fba08ef,62a440032acb8d1d2b0e9127,,,,,,,,,,,,,,,,,,,,,,,,,,,,,,,,,,,,,,,,,,,,,,,,,,,,,,,,,,,,,,,,,,,,,,,,,,,,,,,,,,,,,,,,,,,,,,,,,,,,,
,,,,,,4,0,4,0,1,X V Q F H G B L J M P D K C T S W R N Z,5be1c7de91deed00015a97b9,24,Mężczyzna,2022-06-11_09h13.03.713,task,2021.1.4,MacIntel,59.88382538,6299f149e92ead563fba08ef,62a440032acb8d1d2b0e9127,,,,,,,,,,,,,,,,,,,,,,,,,,,,,,,,,,,,,,,,,,,,,,,,,,,,,,,,,,,,,,,,,,,,,,,,,,,,,,,,,,,,,,,,,,,,,,,,,,,,,
,,,,,,5,0,5,0,1,X V Q F H G B L J M P D K C T S W R N Z,5be1c7de91deed00015a97b9,24,Mężczyzna,2022-06-11_09h13.03.713,task,2021.1.4,MacIntel,59.88382538,6299f149e92ead563fba08ef,62a440032acb8d1d2b0e9127,,,,,,,,,,,,,,,,,,,,,,,,,,,,,,,,,,,,,,,,,,,,,,,,,,,,,,,,,,,,,,,,,,,,,,,,,,,,,,,,,,,,,,,,,,,,,,,,,,,,,
,,,,,,6,0,6,0,1,X V Q F H G B L J M P D K C T S W R N Z,5be1c7de91deed00015a97b9,24,Mężczyzna,2022-06-11_09h13.03.713,task,2021.1.4,MacIntel,59.88382538,6299f149e92ead563fba08ef,62a440032acb8d1d2b0e9127,,,,,,,,,,,,,,,,,,,,,,,,,,,,,,,,,,,,,,,,,,,,,,,,,,,,,,,,,,,,,,,,,,,,,,,,,,,,,,,,,,,,,,,,,,,,,,,,,,,,,
,,,,,,7,0,7,0,1,X V Q F H G B L J M P D K C T S W R N Z,5be1c7de91deed00015a97b9,24,Mężczyzna,2022-06-11_09h13.03.713,task,2021.1.4,MacIntel,59.88382538,6299f149e92ead563fba08ef,62a440032acb8d1d2b0e9127,,,,,,,,,,,,,,,,,,,,,,,,,,,,,,,,,,,,,,,,,,,,,,,,,,,,,,,,,,,,,,,,,,,,,,,,,,,,,,,,,,,,,,,,,,,,,,,,,,,,,
,,,,,,,,,,,,5be1c7de91deed00015a97b9,24,Mężczyzna,2022-06-11_09h13.03.713,task,2021.1.4,MacIntel,59.88382538,6299f149e92ead563fba08ef,62a440032acb8d1d2b0e9127,tfvfvjk,"[""t"",""f"",""v"",""f"",""v"",""j"",""k""]","[1.594699999999932,2.080899999999872,2.5372999999999024,5.952899999999886,7.6732999999999265,8.177799999999877,8.371699999999919,14.018000000000029]",0,TFVJVBWK,16,0,16,0,1,,,,,,,,,,,,,,,,,,,,,,,,,,,,,,,,,,,,,,,,,,,,,,,,,,,,,,,,,,,,,,,,,,,,,,,,,,,,,,,,,,,,,,,,,,,
,,,,,,0,0,0,0,1,X V Q F H G B L J M P D K C T S W R N Z,5be1c7de91deed00015a97b9,24,Mężczyzna,2022-06-11_09h13.03.713,task,2021.1.4,MacIntel,59.88382538,6299f149e92ead563fba08ef,62a440032acb8d1d2b0e9127,,,,,,,,,,,,,,,,,,,,,,,,,,,,,,,,,,,,,,,,,,,,,,,,,,,,,,,,,,,,,,,,,,,,,,,,,,,,,,,,,,,,,,,,,,,,,,,,,,,,,
,,,,,,1,0,1,0,1,X V Q F H G B L J M P D K C T S W R N Z,5be1c7de91deed00015a97b9,24,Mężczyzna,2022-06-11_09h13.03.713,task,2021.1.4,MacIntel,59.88382538,6299f149e92ead563fba08ef,62a440032acb8d1d2b0e9127,,,,,,,,,,,,,,,,,,,,,,,,,,,,,,,,,,,,,,,,,,,,,,,,,,,,,,,,,,,,,,,,,,,,,,,,,,,,,,,,,,,,,,,,,,,,,,,,,,,,,
,,,,,,2,0,2,0,1,X V Q F H G B L J M P D K C T S W R N Z,5be1c7de91deed00015a97b9,24,Mężczyzna,2022-06-11_09h13.03.713,task,2021.1.4,MacIntel,59.88382538,6299f149e92ead563fba08ef,62a440032acb8d1d2b0e9127,,,,,,,,,,,,,,,,,,,,,,,,,,,,,,,,,,,,,,,,,,,,,,,,,,,,,,,,,,,,,,,,,,,,,,,,,,,,,,,,,,,,,,,,,,,,,,,,,,,,,
,,,,,,3,0,3,0,1,X V Q F H G B L J M P D K C T S W R N Z,5be1c7de91deed00015a97b9,24,Mężczyzna,2022-06-11_09h13.03.713,task,2021.1.4,MacIntel,59.88382538,6299f149e92ead563fba08ef,62a440032acb8d1d2b0e9127,,,,,,,,,,,,,,,,,,,,,,,,,,,,,,,,,,,,,,,,,,,,,,,,,,,,,,,,,,,,,,,,,,,,,,,,,,,,,,,,,,,,,,,,,,,,,,,,,,,,,
,,,,,,4,0,4,0,1,X V Q F H G B L J M P D K C T S W R N Z,5be1c7de91deed00015a97b9,24,Mężczyzna,2022-06-11_09h13.03.713,task,2021.1.4,MacIntel,59.88382538,6299f149e92ead563fba08ef,62a440032acb8d1d2b0e9127,,,,,,,,,,,,,,,,,,,,,,,,,,,,,,,,,,,,,,,,,,,,,,,,,,,,,,,,,,,,,,,,,,,,,,,,,,,,,,,,,,,,,,,,,,,,,,,,,,,,,
,,,,,,5,0,5,0,1,X V Q F H G B L J M P D K C T S W R N Z,5be1c7de91deed00015a97b9,24,Mężczyzna,2022-06-11_09h13.03.713,task,2021.1.4,MacIntel,59.88382538,6299f149e92ead563fba08ef,62a440032acb8d1d2b0e9127,,,,,,,,,,,,,,,,,,,,,,,,,,,,,,,,,,,,,,,,,,,,,,,,,,,,,,,,,,,,,,,,,,,,,,,,,,,,,,,,,,,,,,,,,,,,,,,,,,,,,
,,,,,,6,0,6,0,1,X V Q F H G B L J M P D K C T S W R N Z,5be1c7de91deed00015a97b9,24,Mężczyzna,2022-06-11_09h13.03.713,task,2021.1.4,MacIntel,59.88382538,6299f149e92ead563fba08ef,62a440032acb8d1d2b0e9127,,,,,,,,,,,,,,,,,,,,,,,,,,,,,,,,,,,,,,,,,,,,,,,,,,,,,,,,,,,,,,,,,,,,,,,,,,,,,,,,,,,,,,,,,,,,,,,,,,,,,
,,,,,,7,0,7,0,1,X V Q F H G B L J M P D K C T S W R N Z,5be1c7de91deed00015a97b9,24,Mężczyzna,2022-06-11_09h13.03.713,task,2021.1.4,MacIntel,59.88382538,6299f149e92ead563fba08ef,62a440032acb8d1d2b0e9127,,,,,,,,,,,,,,,,,,,,,,,,,,,,,,,,,,,,,,,,,,,,,,,,,,,,,,,,,,,,,,,,,,,,,,,,,,,,,,,,,,,,,,,,,,,,,,,,,,,,,
,,,,,,,,,,,,5be1c7de91deed00015a97b9,24,Mężczyzna,2022-06-11_09h13.03.713,task,2021.1.4,MacIntel,59.88382538,6299f149e92ead563fba08ef,62a440032acb8d1d2b0e9127,qswtmtls,"[""q"",""s"",""w"",""t"",""m"",""t"",""l"",""s""]","[1.6646999999999252,1.7617999999999938,2.065399999999954,2.6322999999999865,2.793199999999956,3.7451999999999543,3.864500000000021,4.03449999999998,5.608100000000036]",0,QSMTWLTS,17,0,17,0,1,,,,,,,,,,,,,,,,,,,,,,,,,,,,,,,,,,,,,,,,,,,,,,,,,,,,,,,,,,,,,,,,,,,,,,,,,,,,,,,,,,,,,,,,,,,
,,,,,,,,,,,,5be1c7de91deed00015a97b9,24,Mężczyzna,2022-06-11_09h13.03.713,task,2021.1.4,MacIntel,59.88382538,6299f149e92ead563fba08ef,62a440032acb8d1d2b0e9127,,,,,,,,,,,space,26.4789,8,"[""8""]",1,[2.860300000000052],[2.860300000000052],0,0,0,8,1,Practice,9,(3x3) - 1,8,,,,,,,,,,,,,,,,,,,,,,,,,,,,,,,,,,,,,,,,,,,,,,,,,,,,,,,,,,,,,,,,,,,,,,,,,,,
,,,,,,,,,,,,5be1c7de91deed00015a97b9,24,Mężczyzna,2022-06-11_09h13.03.713,task,2021.1.4,MacIntel,59.88382538,6299f149e92ead563fba08ef,62a440032acb8d1d2b0e9127,,,,,,,,,,,,,9,"[""9""]",1,[2.2729000000000497],"[2.860300000000052,2.2729000000000497]",0,1,1,9,1,Practice,10,(20/2) - 1,9,,,,,,,,,,,,,,,,,,,,,,,,,,,,,,,,,,,,,,,,,,,,,,,,,,,,,,,,,,,,,,,,,,,,,,,,,,,
,,,,,,,,,,,,5be1c7de91deed00015a97b9,24,Mężczyzna,2022-06-11_09h13.03.713,task,2021.1.4,MacIntel,59.88382538,6299f149e92ead563fba08ef,62a440032acb8d1d2b0e9127,,,,,,,,,,,,,5,"[""5""]",1,[2.754199999999969],"[2.860300000000052,2.2729000000000497,2.754199999999969]",0,2,2,5,1,Practice,6,(4/2) + 3,5,,,,,,,,,,,,,,,,,,,,,,,,,,,,,,,,,,,,,,,,,,,,,,,,,,,,,,,,,,,,,,,,,,,,,,,,,,,
,,,,,,,,,,,,5be1c7de91deed00015a97b9,24,Mężczyzna,2022-06-11_09h13.03.713,task,2021.1.4,MacIntel,59.88382538,6299f149e92ead563fba08ef,62a440032acb8d1d2b0e9127,,,,,,,,,,,,,0,"[""0""]",1,[1.838100000000054],"[2.860300000000052,2.2729000000000497,2.754199999999969,1.838100000000054]",0,3,3,0,1,Practice,1,(3x3) -  9,0,,,,,,,,,,,,,,,,,,,,,,,,,,,,,,,,,,,,,,,,,,,,,,,,,,,,,,,,,,,,,,,,,,,,,,,,,,,
,,,,,,,,,,,,5be1c7de91deed00015a97b9,24,Mężczyzna,2022-06-11_09h13.03.713,task,2021.1.4,MacIntel,59.88382538,6299f149e92ead563fba08ef,62a440032acb8d1d2b0e9127,,,,,,,,,,,,,2,"[""2""]",1,[2.2468999999999824],"[2.860300000000052,2.2729000000000497,2.754199999999969,1.838100000000054,2.2468999999999824]",0,4,4,2,1,Practice,3,(4x4) - 14,2,,,,,,,,,,,,,,,,,,,,,,,,,,,,,,,,,,,,,,,,,,,,,,,,,,,,,,,,,,,,,,,,,,,,,,,,,,,
,,,,,,,,,,,,5be1c7de91deed00015a97b9,24,Mężczyzna,2022-06-11_09h13.03.713,task,2021.1.4,MacIntel,59.88382538,6299f149e92ead563fba08ef,62a440032acb8d1d2b0e9127,,,,,,,,,,,,,3,"[""3""]",1,[2.261799999999994],"[2.860300000000052,2.2729000000000497,2.754199999999969,1.838100000000054,2.2468999999999824,2.261799999999994]",0,5,5,3,1,Practice,4,(8/4) + 1,3,,,,,,,,,,,,,,,,,,,,,,,,,,,,,,,,,,,,,,,,,,,,,,,,,,,,,,,,,,,,,,,,,,,,,,,,,,,
,,,,,,,,,,,,5be1c7de91deed00015a97b9,24,Mężczyzna,2022-06-11_09h13.03.713,task,2021.1.4,MacIntel,59.88382538,6299f149e92ead563fba08ef,62a440032acb8d1d2b0e9127,,,,,,,,,,,,,6,"[""6""]",1,[3.5977000000001453],"[2.860300000000052,2.2729000000000497,2.754199999999969,1.838100000000054,2.2468999999999824,2.261799999999994,3.5977000000001453]",0,6,6,6,1,Practice,7,(25/5) + 1,6,,,,,,,,,,,,,,,,,,,,,,,,,,,,,,,,,,,,,,,,,,,,,,,,,,,,,,,,,,,,,,,,,,,,,,,,,,,
,,,,,,,,,,,,5be1c7de91deed00015a97b9,24,Mężczyzna,2022-06-11_09h13.03.713,task,2021.1.4,MacIntel,59.88382538,6299f149e92ead563fba08ef,62a440032acb8d1d2b0e9127,,,,,,,,,,,,,7,"[""7""]",1,[2.6644999999999754],"[2.860300000000052,2.2729000000000497,2.754199999999969,1.838100000000054,2.2468999999999824,2.261799999999994,3.5977000000001453,2.6644999999999754]",0,7,7,7,1,Practice,8,(5x5) - 18,7,,,,,,,,,,,,,,,,,,,,,,,,,,,,,,,,,,,,,,,,,,,,,,,,,,,,,,,,,,,,,,,,,,,,,,,,,,,
,,,,,,,,,,,,5be1c7de91deed00015a97b9,24,Mężczyzna,2022-06-11_09h13.03.713,task,2021.1.4,MacIntel,59.88382538,6299f149e92ead563fba08ef,62a440032acb8d1d2b0e9127,,,,,,,,,,,,,1,"[""1""]",1,[1.8478999999999814],"[2.860300000000052,2.2729000000000497,2.754199999999969,1.838100000000054,2.2468999999999824,2.261799999999994,3.5977000000001453,2.6644999999999754,1.8478999999999814]",0,8,8,1,1,Practice,2,(4x4) - 15,1,,,,,,,,,,,,,,,,,,,,,,,,,,,,,,,,,,,,,,,,,,,,,,,,,,,,,,,,,,,,,,,,,,,,,,,,,,,
,,,,,,,,,,,,5be1c7de91deed00015a97b9,24,Mężczyzna,2022-06-11_09h13.03.713,task,2021.1.4,MacIntel,59.88382538,6299f149e92ead563fba08ef,62a440032acb8d1d2b0e9127,,,,,,,,,,,,,4,"[""4""]",1,[2.266499999999951],"[2.860300000000052,2.2729000000000497,2.754199999999969,1.838100000000054,2.2468999999999824,2.261799999999994,3.5977000000001453,2.6644999999999754,1.8478999999999814,2.266499999999951]",0,9,9,4,1,Practice,5,(2x6) - 8,4,,,,,,,,,,,,,,,,,,,,,,,,,,,,,,,,,,,,,,,,,,,,,,,,,,,,,,,,,,,,,,,,,,,,,,,,,,,
,,,,,,,,,,,,5be1c7de91deed00015a97b9,24,Mężczyzna,2022-06-11_09h13.03.713,task,2021.1.4,MacIntel,59.88382538,6299f149e92ead563fba08ef,62a440032acb8d1d2b0e9127,,,,,,,,,,,,,,,,,,,,,,,,,,,1,24.6108,1.64072,9.231438432,0.784492976,3.664711877,space,8.4504,0,0,0,0,1,,,,,,,,,,,,,,,,,,,,,,,,,,,,,,,,,,,,,,,,,,,,,,,,,,,,,,,,,,,,,,
,,,,,,,,,,,,5be1c7de91deed00015a97b9,24,Mężczyzna,2022-06-11_09h13.03.713,task,2021.1.4,MacIntel,59.88382538,6299f149e92ead563fba08ef,62a440032acb8d1d2b0e9127,,,,,,,,,,,,,9,,,,,,,,,,Practice,10,(20/2) - 1,9,,,,,,,,,,,,,,space,36.2403,"[""9""]",1,[2.3228000000000293],1,0,0,0,9,1,,,,,,,,,,,,,,,,,,,,,,,,,,,,,,,,,,,,,,,,,,,,,,,,,,,
,,,,,,,,,,,X V Q F H G B L J M P D K C T S W R N Z,5be1c7de91deed00015a97b9,24,Mężczyzna,2022-06-11_09h13.03.713,task,2021.1.4,MacIntel,59.88382538,6299f149e92ead563fba08ef,62a440032acb8d1d2b0e9127,,,,,,,,,,,,,,,,,,,,,,,,,,,,,,,,,,,,,,,,,,,,,,,,,,,0,0,0,0,1,,,,,,,,,,,,,,,,,,,,,,,,,,,,,,,,,,,,,,,,,,,,,,
,,,,,,,,,,,,5be1c7de91deed00015a97b9,24,Mężczyzna,2022-06-11_09h13.03.713,task,2021.1.4,MacIntel,59.88382538,6299f149e92ead563fba08ef,62a440032acb8d1d2b0e9127,,,,,,,,,,,,,,,,,,,,,,,Practice,10,(20/2) - 1,9,,,,,,,,,,,,,,,,,0,,0,0,0,0,9,1,,,,,,,,,,,,,,,,,,,,,,,,,,,,,,,,,,,,,,,,,,,,,,,,,,,
,,,,,,,,,,,,5be1c7de91deed00015a97b9,24,Mężczyzna,2022-06-11_09h13.03.713,task,2021.1.4,MacIntel,59.88382538,6299f149e92ead563fba08ef,62a440032acb8d1d2b0e9127,,,,,,,,,,,,,8,,,,,,,,,,Practice,9,(3x3) - 1,8,,,,,,,,,,,,,,,,"[""8""]",1,[1.6435999999999922],1,0,1,1,8,1,,,,,,,,,,,,,,,,,,,,,,,,,,,,,,,,,,,,,,,,,,,,,,,,,,,
,,,,,,,,,,,X V Q F H G B L J M P D K C T S W R N Z,5be1c7de91deed00015a97b9,24,Mężczyzna,2022-06-11_09h13.03.713,task,2021.1.4,MacIntel,59.88382538,6299f149e92ead563fba08ef,62a440032acb8d1d2b0e9127,,,,,,,,,,,,,,,,,,,,,,,,,,,,,,,,,,,,,,,,,,,,,,,,,,,1,0,1,0,1,,,,,,,,,,,,,,,,,,,,,,,,,,,,,,,,,,,,,,,,,,,,,,
,,,,,,,,,,,,5be1c7de91deed00015a97b9,24,Mężczyzna,2022-06-11_09h13.03.713,task,2021.1.4,MacIntel,59.88382538,6299f149e92ead563fba08ef,62a440032acb8d1d2b0e9127,,,,,,,,,,,,,,,,,,,,,,,,,,,,,,,,,,,,,,,,,,,,,,,,,,,,,,,,zm,"[""z"",""m""]",0,"[2.069699999999898,2.302000000000021,2.893299999999954]",1,0,0,0,0,1,,,,,,,,,,,,,,,,,,,,,,,,,,,,,,,,,,,,
,,,,,,,,,,,,5be1c7de91deed00015a97b9,24,Mężczyzna,2022-06-11_09h13.03.713,task,2021.1.4,MacIntel,59.88382538,6299f149e92ead563fba08ef,62a440032acb8d1d2b0e9127,,,,,,,,,,,,,9,,,,,,,,,,Practice,10,(20/2) - 1,9,,,,,,,,,,,,,,,,"[""9""]",1,[1.5445999999999458],1,0,0,0,9,1,,,,,,,,,,,,,,,,,,,,,,,,,,,,,,,,,,,,,,,,,,,,,,,,,,,
,,,,,,,,,,,X V Q F H G B L J M P D K C T S W R N Z,5be1c7de91deed00015a97b9,24,Mężczyzna,2022-06-11_09h13.03.713,task,2021.1.4,MacIntel,59.88382538,6299f149e92ead563fba08ef,62a440032acb8d1d2b0e9127,,,,,,,,,,,,,,,,,,,,,,,,,,,,,,,,,,,,,,,,,,,,,,,,,,,0,0,0,0,1,,,,,,,,,,,,,,,,,,,,,,,,,,,,,,,,,,,,,,,,,,,,,,
,,,,,,,,,,,,5be1c7de91deed00015a97b9,24,Mężczyzna,2022-06-11_09h13.03.713,task,2021.1.4,MacIntel,59.88382538,6299f149e92ead563fba08ef,62a440032acb8d1d2b0e9127,,,,,,,,,,,,,5,,,,,,,,,,Practice,6,(4/2) + 3,5,,,,,,,,,,,,,,,,"[""5""]",1,[1.9603000000000748],1,0,0,0,5,1,,,,,,,,,,,,,,,,,,,,,,,,,,,,,,,,,,,,,,,,,,,,,,,,,,,
,,,,,,,,,,,X V Q F H G B L J M P D K C T S W R N Z,5be1c7de91deed00015a97b9,24,Mężczyzna,2022-06-11_09h13.03.713,task,2021.1.4,MacIntel,59.88382538,6299f149e92ead563fba08ef,62a440032acb8d1d2b0e9127,,,,,,,,,,,,,,,,,,,,,,,,,,,,,,,,,,,,,,,,,,,,,,,,,,,1,0,1,0,1,,,,,,,,,,,,,,,,,,,,,,,,,,,,,,,,,,,,,,,,,,,,,,
,,,,,,,,,,,,5be1c7de91deed00015a97b9,24,Mężczyzna,2022-06-11_09h13.03.713,task,2021.1.4,MacIntel,59.88382538,6299f149e92ead563fba08ef,62a440032acb8d1d2b0e9127,,,,,,,,,,,,,,,,,,,,,,,,,,,,,,,,,,,,,,,,,,,,,,,,,,,,,,,,pv,"[""p"",""v""]",0,"[1.778099999999995,1.88250000000005,2.0126000000000204]",1,1,0,1,0,1,,,,,,,,,,,,,,,,,,,,,,,,,,,,,,,,,,,,
,,,,,,,,,,,,5be1c7de91deed00015a97b9,24,Mężczyzna,2022-06-11_09h13.03.713,task,2021.1.4,MacIntel,59.88382538,6299f149e92ead563fba08ef,62a440032acb8d1d2b0e9127,,,,,,,,,,,,,1,,,,,,,,,,Practice,2,(4x4) - 15,1,,,,,,,,,,,,,,,,"[""1""]",1,[1.6951999999999998],1,0,0,0,1,1,,,,,,,,,,,,,,,,,,,,,,,,,,,,,,,,,,,,,,,,,,,,,,,,,,,
,,,,,,,,,,,X V Q F H G B L J M P D K C T S W R N Z,5be1c7de91deed00015a97b9,24,Mężczyzna,2022-06-11_09h13.03.713,task,2021.1.4,MacIntel,59.88382538,6299f149e92ead563fba08ef,62a440032acb8d1d2b0e9127,,,,,,,,,,,,,,,,,,,,,,,,,,,,,,,,,,,,,,,,,,,,,,,,,,,0,0,0,0,1,,,,,,,,,,,,,,,,,,,,,,,,,,,,,,,,,,,,,,,,,,,,,,
,,,,,,,,,,,,5be1c7de91deed00015a97b9,24,Mężczyzna,2022-06-11_09h13.03.713,task,2021.1.4,MacIntel,59.88382538,6299f149e92ead563fba08ef,62a440032acb8d1d2b0e9127,,,,,,,,,,,,,8,,,,,,,,,,Practice,9,(3x3) - 1,8,,,,,,,,,,,,,,,,"[""8""]",1,[1.4968999999999824],1,0,0,0,8,1,,,,,,,,,,,,,,,,,,,,,,,,,,,,,,,,,,,,,,,,,,,,,,,,,,,
,,,,,,,,,,,X V Q F H G B L J M P D K C T S W R N Z,5be1c7de91deed00015a97b9,24,Mężczyzna,2022-06-11_09h13.03.713,task,2021.1.4,MacIntel,59.88382538,6299f149e92ead563fba08ef,62a440032acb8d1d2b0e9127,,,,,,,,,,,,,,,,,,,,,,,,,,,,,,,,,,,,,,,,,,,,,,,,,,,1,0,1,0,1,,,,,,,,,,,,,,,,,,,,,,,,,,,,,,,,,,,,,,,,,,,,,,
,,,,,,,,,,,,5be1c7de91deed00015a97b9,24,Mężczyzna,2022-06-11_09h13.03.713,task,2021.1.4,MacIntel,59.88382538,6299f149e92ead563fba08ef,62a440032acb8d1d2b0e9127,,,,,,,,,,,,,,,,,,,,,,,,,,,,,,,,,,,,,,,,,,,,,,,,,,,,,,,,gd,"[""g"",""d""]",0,"[1.498899999999935,1.6431999999998652,1.8676999999998998]",1,2,0,2,0,1,,,,,,,,,,,,,,,,,,,,,,,,,,,,,,,,,,,,
,,,,,,,,,,,,5be1c7de91deed00015a97b9,24,Mężczyzna,2022-06-11_09h13.03.713,task,2021.1.4,MacIntel,59.88382538,6299f149e92ead563fba08ef,62a440032acb8d1d2b0e9127,,,,,,,,,,,,,,,,,,,,,,,Task,33,(1/1) - 1,0,,,,,,,,,,,,,,,,,,,0,,,,,,,,,,,,,,,,,,,,,space,18.8347,,0,0,0,0,32,1,,,,,,,,,,,,,,,,,,,,,,,,,,,
,,,,,,,,,,,,5be1c7de91deed00015a97b9,24,Mężczyzna,2022-06-11_09h13.03.713,task,2021.1.4,MacIntel,59.88382538,6299f149e92ead563fba08ef,62a440032acb8d1d2b0e9127,,,,,,,,,,,,,,,,,,,,,,,Task,16,(3x8) - 15,9,,,,,,,,,,,,,,,,,,,0,,,,,,,,,,,,,,,,,,,,,,,,0,0,1,1,15,1,,,,,,,,,,,,,,,,,,,,,,,,,,,
,,,,,,,,,,,,5be1c7de91deed00015a97b9,24,Mężczyzna,2022-06-11_09h13.03.713,task,2021.1.4,MacIntel,59.88382538,6299f149e92ead563fba08ef,62a440032acb8d1d2b0e9127,,,,,,,,,,,,,2,,,,,,,,,,Task,19,(6/2) - 1,2,,,,,,,,,,,,,,,,,,,1,,,,,,,,,,,,,,,,,,,,,,,"[""2""]",1,0,2,2,18,1,[1.8051000000000386],,,,,,,,,,,,,,,,,,,,,,,,,,
,,,,,,,,,,,X V Q F H G B L J M P D K C T S W R N Z,5be1c7de91deed00015a97b9,24,Mężczyzna,2022-06-11_09h13.03.713,task,2021.1.4,MacIntel,59.88382538,6299f149e92ead563fba08ef,62a440032acb8d1d2b0e9127,,,,,,,,,,,,,,,,,,,,,,,,,,,,,,,,,,,,,,,,,,,,,,,,,,,,,,,,,,,,,,,,,,,,,,,,,,,,0,0,0,0,1,,,,,,,,,,,,,,,,,,,,,
,,,,,,,,,,,,5be1c7de91deed00015a97b9,24,Mężczyzna,2022-06-11_09h13.03.713,task,2021.1.4,MacIntel,59.88382538,6299f149e92ead563fba08ef,62a440032acb8d1d2b0e9127,,,,,,,,,,,,,1,,,,,,,,,,Task,38,(4x6) - 17,7,,,,,,,,,,,,,,,,,,,0,,,,,,,,,,,,,,,,,,,,,,,"[""1""]",0,0,0,0,37,1,[2.705100000000016],,,,,,,,,,,,,,,,,,,,,,,,,,
,,,,,,,,,,,,5be1c7de91deed00015a97b9,24,Mężczyzna,2022-06-11_09h13.03.713,task,2021.1.4,MacIntel,59.88382538,6299f149e92ead563fba08ef,62a440032acb8d1d2b0e9127,,,,,,,,,,,,,0,,,,,,,,,,Task,33,(1/1) - 1,0,,,,,,,,,,,,,,,,,,,1,,,,,,,,,,,,,,,,,,,,,,,"[""0""]",1,0,1,1,32,1,[1.4716999999999416],,,,,,,,,,,,,,,,,,,,,,,,,,
,,,,,,,,,,,X V Q F H G B L J M P D K C T S W R N Z,5be1c7de91deed00015a97b9,24,Mężczyzna,2022-06-11_09h13.03.713,task,2021.1.4,MacIntel,59.88382538,6299f149e92ead563fba08ef,62a440032acb8d1d2b0e9127,,,,,,,,,,,,,,,,,,,,,,,,,,,,,,,,,,,,,,,,,,,,,,,,,,,,,,,,,,,,,,,,,,,,,,,,,,,,1,0,1,0,1,,,,,,,,,,,,,,,,,,,,,
,,,,,,,,,,,,5be1c7de91deed00015a97b9,24,Mężczyzna,2022-06-11_09h13.03.713,task,2021.1.4,MacIntel,59.88382538,6299f149e92ead563fba08ef,62a440032acb8d1d2b0e9127,,,,,,,,,,,,,,,,,,,,,,,,,,,,,,,,,,,,,,,,,,,,,,,,,,,,,,,,,,,,,,,,,,,,,,,,,,,,,,,,,zq,"[""z"",""q""]",0,"[1.8110000000000355,2.09800000000007,2.23479999999995]",1,ZQ,0,0,0,0,1,,,,,,,,,,
,,,,,,,,,,,,5be1c7de91deed00015a97b9,24,Mężczyzna,2022-06-11_09h13.03.713,task,2021.1.4,MacIntel,59.88382538,6299f149e92ead563fba08ef,62a440032acb8d1d2b0e9127,,,,,,,,,,,,,1,,,,,,,,,,Task,1,(12/6) - 1,1,,,,,,,,,,,,,,,,,,,1,,,,,,,,,,,,,,,,,,,,,,,"[""1""]",1,0,0,0,0,1,[1.4372999999999365],,,,,,,,,,,,,,,,,,,,,,,,,,
,,,,,,,,,,,X V Q F H G B L J M P D K C T S W R N Z,5be1c7de91deed00015a97b9,24,Mężczyzna,2022-06-11_09h13.03.713,task,2021.1.4,MacIntel,59.88382538,6299f149e92ead563fba08ef,62a440032acb8d1d2b0e9127,,,,,,,,,,,,,,,,,,,,,,,,,,,,,,,,,,,,,,,,,,,,,,,,,,,,,,,,,,,,,,,,,,,,,,,,,,,,0,0,0,0,1,,,,,,,,,,,,,,,,,,,,,
,,,,,,,,,,,,5be1c7de91deed00015a97b9,24,Mężczyzna,2022-06-11_09h13.03.713,task,2021.1.4,MacIntel,59.88382538,6299f149e92ead563fba08ef,62a440032acb8d1d2b0e9127,,,,,,,,,,,,,3,,,,,,,,,,Task,3,(2x3) - 3,3,,,,,,,,,,,,,,,,,,,1,,,,,,,,,,,,,,,,,,,,,,,"[""3""]",1,0,0,0,2,1,[2.061200000000099],,,,,,,,,,,,,,,,,,,,,,,,,,
,,,,,,,,,,,X V Q F H G B L J M P D K C T S W R N Z,5be1c7de91deed00015a97b9,24,Mężczyzna,2022-06-11_09h13.03.713,task,2021.1.4,MacIntel,59.88382538,6299f149e92ead563fba08ef,62a440032acb8d1d2b0e9127,,,,,,,,,,,,,,,,,,,,,,,,,,,,,,,,,,,,,,,,,,,,,,,,,,,,,,,,,,,,,,,,,,,,,,,,,,,,1,0,1,0,1,,,,,,,,,,,,,,,,,,,,,
,,,,,,,,,,,,5be1c7de91deed00015a97b9,24,Mężczyzna,2022-06-11_09h13.03.713,task,2021.1.4,MacIntel,59.88382538,6299f149e92ead563fba08ef,62a440032acb8d1d2b0e9127,,,,,,,,,,,,,1,,,,,,,,,,Task,1,(12/6) - 1,1,,,,,,,,,,,,,,,,,,,1,,,,,,,,,,,,,,,,,,,,,,,"[""1""]",1,0,0,0,0,1,[2.1884000000000015],,,,,,,,,,,,,,,,,,,,,,,,,,
,,,,,,,,,,,X V Q F H G B L J M P D K C T S W R N Z,5be1c7de91deed00015a97b9,24,Mężczyzna,2022-06-11_09h13.03.713,task,2021.1.4,MacIntel,59.88382538,6299f149e92ead563fba08ef,62a440032acb8d1d2b0e9127,,,,,,,,,,,,,,,,,,,,,,,,,,,,,,,,,,,,,,,,,,,,,,,,,,,,,,,,,,,,,,,,,,,,,,,,,,,,2,0,2,0,1,,,,,,,,,,,,,,,,,,,,,
,,,,,,,,,,,,5be1c7de91deed00015a97b9,24,Mężczyzna,2022-06-11_09h13.03.713,task,2021.1.4,MacIntel,59.88382538,6299f149e92ead563fba08ef,62a440032acb8d1d2b0e9127,,,,,,,,,,,,,,,,,,,,,,,,,,,,,,,,,,,,,,,,,,,,,,,,,,,,,,,,,,,,,,,,,,,,,,,,,,,,,,,,,gft,"[""g"",""f"",""t""]",0,"[1.740000000000009,1.8030999999999722,1.978900000000067,2.363200000000006]",1,GFT,1,0,1,0,1,,,,,,,,,,
,,,,,,,,,,,,5be1c7de91deed00015a97b9,24,Mężczyzna,2022-06-11_09h13.03.713,task,2021.1.4,MacIntel,59.88382538,6299f149e92ead563fba08ef,62a440032acb8d1d2b0e9127,,,,,,,,,,,,,3,,,,,,,,,,Task,27,(3/3) + 2,3,,,,,,,,,,,,,,,,,,,1,,,,,,,,,,,,,,,,,,,,,,,"[""3""]",1,0,0,0,26,1,[1.833300000000122],,,,,,,,,,,,,,,,,,,,,,,,,,
,,,,,,,,,,,X V Q F H G B L J M P D K C T S W R N Z,5be1c7de91deed00015a97b9,24,Mężczyzna,2022-06-11_09h13.03.713,task,2021.1.4,MacIntel,59.88382538,6299f149e92ead563fba08ef,62a440032acb8d1d2b0e9127,,,,,,,,,,,,,,,,,,,,,,,,,,,,,,,,,,,,,,,,,,,,,,,,,,,,,,,,,,,,,,,,,,,,,,,,,,,,0,0,0,0,1,,,,,,,,,,,,,,,,,,,,,
,,,,,,,,,,,,5be1c7de91deed00015a97b9,24,Mężczyzna,2022-06-11_09h13.03.713,task,2021.1.4,MacIntel,59.88382538,6299f149e92ead563fba08ef,62a440032acb8d1d2b0e9127,,,,,,,,,,,,,0,,,,,,,,,,Task,17,(2x3) - 6,0,,,,,,,,,,,,,,,,,,,1,,,,,,,,,,,,,,,,,,,,,,,"[""0""]",1,0,0,0,16,1,[1.48599999999999],,,,,,,,,,,,,,,,,,,,,,,,,,
,,,,,,,,,,,X V Q F H G B L J M P D K C T S W R N Z,5be1c7de91deed00015a97b9,24,Mężczyzna,2022-06-11_09h13.03.713,task,2021.1.4,MacIntel,59.88382538,6299f149e92ead563fba08ef,62a440032acb8d1d2b0e9127,,,,,,,,,,,,,,,,,,,,,,,,,,,,,,,,,,,,,,,,,,,,,,,,,,,,,,,,,,,,,,,,,,,,,,,,,,,,1,0,1,0,1,,,,,,,,,,,,,,,,,,,,,
,,,,,,,,,,,,5be1c7de91deed00015a97b9,24,Mężczyzna,2022-06-11_09h13.03.713,task,2021.1.4,MacIntel,59.88382538,6299f149e92ead563fba08ef,62a440032acb8d1d2b0e9127,,,,,,,,,,,,,3,,,,,,,,,,Task,3,(2x3) - 3,3,,,,,,,,,,,,,,,,,,,1,,,,,,,,,,,,,,,,,,,,,,,"[""3""]",1,0,0,0,2,1,[1.6166999999999234],,,,,,,,,,,,,,,,,,,,,,,,,,
,,,,,,,,,,,X V Q F H G B L J M P D K C T S W R N Z,5be1c7de91deed00015a97b9,24,Mężczyzna,2022-06-11_09h13.03.713,task,2021.1.4,MacIntel,59.88382538,6299f149e92ead563fba08ef,62a440032acb8d1d2b0e9127,,,,,,,,,,,,,,,,,,,,,,,,,,,,,,,,,,,,,,,,,,,,,,,,,,,,,,,,,,,,,,,,,,,,,,,,,,,,2,0,2,0,1,,,,,,,,,,,,,,,,,,,,,
,,,,,,,,,,,,5be1c7de91deed00015a97b9,24,Mężczyzna,2022-06-11_09h13.03.713,task,2021.1.4,MacIntel,59.88382538,6299f149e92ead563fba08ef,62a440032acb8d1d2b0e9127,,,,,,,,,,,,,7,,,,,,,,,,Task,31,(4/2) + 5,7,,,,,,,,,,,,,,,,,,,1,,,,,,,,,,,,,,,,,,,,,,,"[""7""]",1,0,0,0,30,1,[2.328800000000115],,,,,,,,,,,,,,,,,,,,,,,,,,
,,,,,,,,,,,X V Q F H G B L J M P D K C T S W R N Z,5be1c7de91deed00015a97b9,24,Mężczyzna,2022-06-11_09h13.03.713,task,2021.1.4,MacIntel,59.88382538,6299f149e92ead563fba08ef,62a440032acb8d1d2b0e9127,,,,,,,,,,,,,,,,,,,,,,,,,,,,,,,,,,,,,,,,,,,,,,,,,,,,,,,,,,,,,,,,,,,,,,,,,,,,3,0,3,0,1,,,,,,,,,,,,,,,,,,,,,
,,,,,,,,,,,,5be1c7de91deed00015a97b9,24,Mężczyzna,2022-06-11_09h13.03.713,task,2021.1.4,MacIntel,59.88382538,6299f149e92ead563fba08ef,62a440032acb8d1d2b0e9127,,,,,,,,,,,,,,,,,,,,,,,,,,,,,,,,,,,,,,,,,,,,,,,,,,,,,,,,,,,,,,,,,,,,,,,,,,,,,,,,,bspq,"[""b"",""s"",""p"",""q""]",0,"[1.9189999999999827,2.087099999999964,2.3590000000000373,2.4868999999999915,2.638900000000035]",1,BSPQ,2,0,2,0,1,,,,,,,,,,
,,,,,,,,,,,,5be1c7de91deed00015a97b9,24,Mężczyzna,2022-06-11_09h13.03.713,task,2021.1.4,MacIntel,59.88382538,6299f149e92ead563fba08ef,62a440032acb8d1d2b0e9127,,,,,,,,,,,,,3,,,,,,,,,,Task,20,(18/9) + 1,3,,,,,,,,,,,,,,,,,,,1,,,,,,,,,,,,,,,,,,,,,,,"[""3""]",1,0,0,0,19,1,[1.6001999999998588],,,,,,,,,,,,,,,,,,,,,,,,,,
,,,,,,,,,,,X V Q F H G B L J M P D K C T S W R N Z,5be1c7de91deed00015a97b9,24,Mężczyzna,2022-06-11_09h13.03.713,task,2021.1.4,MacIntel,59.88382538,6299f149e92ead563fba08ef,62a440032acb8d1d2b0e9127,,,,,,,,,,,,,,,,,,,,,,,,,,,,,,,,,,,,,,,,,,,,,,,,,,,,,,,,,,,,,,,,,,,,,,,,,,,,0,0,0,0,1,,,,,,,,,,,,,,,,,,,,,
,,,,,,,,,,,,5be1c7de91deed00015a97b9,24,Mężczyzna,2022-06-11_09h13.03.713,task,2021.1.4,MacIntel,59.88382538,6299f149e92ead563fba08ef,62a440032acb8d1d2b0e9127,,,,,,,,,,,,,8,,,,,,,,,,Task,23,(2x3) + 2,8,,,,,,,,,,,,,,,,,,,1,,,,,,,,,,,,,,,,,,,,,,,"[""8""]",1,0,0,0,22,1,[2.3152999999999793],,,,,,,,,,,,,,,,,,,,,,,,,,
,,,,,,,,,,,X V Q F H G B L J M P D K C T S W R N Z,5be1c7de91deed00015a97b9,24,Mężczyzna,2022-06-11_09h13.03.713,task,2021.1.4,MacIntel,59.88382538,6299f149e92ead563fba08ef,62a440032acb8d1d2b0e9127,,,,,,,,,,,,,,,,,,,,,,,,,,,,,,,,,,,,,,,,,,,,,,,,,,,,,,,,,,,,,,,,,,,,,,,,,,,,1,0,1,0,1,,,,,,,,,,,,,,,,,,,,,
,,,,,,,,,,,,5be1c7de91deed00015a97b9,24,Mężczyzna,2022-06-11_09h13.03.713,task,2021.1.4,MacIntel,59.88382538,6299f149e92ead563fba08ef,62a440032acb8d1d2b0e9127,,,,,,,,,,,,,3,,,,,,,,,,Task,3,(2x3) - 3,3,,,,,,,,,,,,,,,,,,,1,,,,,,,,,,,,,,,,,,,,,,,"[""3""]",1,0,0,0,2,1,[1.5790999999999258],,,,,,,,,,,,,,,,,,,,,,,,,,
,,,,,,,,,,,X V Q F H G B L J M P D K C T S W R N Z,5be1c7de91deed00015a97b9,24,Mężczyzna,2022-06-11_09h13.03.713,task,2021.1.4,MacIntel,59.88382538,6299f149e92ead563fba08ef,62a440032acb8d1d2b0e9127,,,,,,,,,,,,,,,,,,,,,,,,,,,,,,,,,,,,,,,,,,,,,,,,,,,,,,,,,,,,,,,,,,,,,,,,,,,,2,0,2,0,1,,,,,,,,,,,,,,,,,,,,,
,,,,,,,,,,,,5be1c7de91deed00015a97b9,24,Mężczyzna,2022-06-11_09h13.03.713,task,2021.1.4,MacIntel,59.88382538,6299f149e92ead563fba08ef,62a440032acb8d1d2b0e9127,,,,,,,,,,,,,2,,,,,,,,,,Task,2,(2x2) - 2,2,,,,,,,,,,,,,,,,,,,1,,,,,,,,,,,,,,,,,,,,,,,"[""2""]",1,0,0,0,1,1,[1.9750000000000227],,,,,,,,,,,,,,,,,,,,,,,,,,
,,,,,,,,,,,X V Q F H G B L J M P D K C T S W R N Z,5be1c7de91deed00015a97b9,24,Mężczyzna,2022-06-11_09h13.03.713,task,2021.1.4,MacIntel,59.88382538,6299f149e92ead563fba08ef,62a440032acb8d1d2b0e9127,,,,,,,,,,,,,,,,,,,,,,,,,,,,,,,,,,,,,,,,,,,,,,,,,,,,,,,,,,,,,,,,,,,,,,,,,,,,3,0,3,0,1,,,,,,,,,,,,,,,,,,,,,
,,,,,,,,,,,,5be1c7de91deed00015a97b9,24,Mężczyzna,2022-06-11_09h13.03.713,task,2021.1.4,MacIntel,59.88382538,6299f149e92ead563fba08ef,62a440032acb8d1d2b0e9127,,,,,,,,,,,,,3,,,,,,,,,,Task,3,(2x3) - 3,3,,,,,,,,,,,,,,,,,,,1,,,,,,,,,,,,,,,,,,,,,,,"[""3""]",1,0,0,0,2,1,[2.1336000000000013],,,,,,,,,,,,,,,,,,,,,,,,,,
,,,,,,,,,,,X V Q F H G B L J M P D K C T S W R N Z,5be1c7de91deed00015a97b9,24,Mężczyzna,2022-06-11_09h13.03.713,task,2021.1.4,MacIntel,59.88382538,6299f149e92ead563fba08ef,62a440032acb8d1d2b0e9127,,,,,,,,,,,,,,,,,,,,,,,,,,,,,,,,,,,,,,,,,,,,,,,,,,,,,,,,,,,,,,,,,,,,,,,,,,,,4,0,4,0,1,,,,,,,,,,,,,,,,,,,,,
,,,,,,,,,,,,5be1c7de91deed00015a97b9,24,Mężczyzna,2022-06-11_09h13.03.713,task,2021.1.4,MacIntel,59.88382538,6299f149e92ead563fba08ef,62a440032acb8d1d2b0e9127,,,,,,,,,,,,,,,,,,,,,,,,,,,,,,,,,,,,,,,,,,,,,,,,,,,,,,,,,,,,,,,,,,,,,,,,,,,,,,,,,dxtzj,"[""d"",""x"",""t"",""z"",""j""]",0,"[2.3029000000000224,2.5516000000000076,2.712099999999964,2.8473999999999933,3.2070999999999685,3.623100000000022]",1,DXTZJ,3,0,3,0,1,,,,,,,,,,
,,,,,,,,,,,,5be1c7de91deed00015a97b9,24,Mężczyzna,2022-06-11_09h13.03.713,task,2021.1.4,MacIntel,59.88382538,6299f149e92ead563fba08ef,62a440032acb8d1d2b0e9127,,,,,,,,,,,,,1,,,,,,,,,,Task,1,(12/6) - 1,1,,,,,,,,,,,,,,,,,,,1,,,,,,,,,,,,,,,,,,,,,,,"[""1""]",1,0,0,0,0,1,[1.7990000000000919],,,,,,,,,,,,,,,,,,,,,,,,,,
,,,,,,,,,,,X V Q F H G B L J M P D K C T S W R N Z,5be1c7de91deed00015a97b9,24,Mężczyzna,2022-06-11_09h13.03.713,task,2021.1.4,MacIntel,59.88382538,6299f149e92ead563fba08ef,62a440032acb8d1d2b0e9127,,,,,,,,,,,,,,,,,,,,,,,,,,,,,,,,,,,,,,,,,,,,,,,,,,,,,,,,,,,,,,,,,,,,,,,,,,,,0,0,0,0,1,,,,,,,,,,,,,,,,,,,,,
,,,,,,,,,,,,5be1c7de91deed00015a97b9,24,Mężczyzna,2022-06-11_09h13.03.713,task,2021.1.4,MacIntel,59.88382538,6299f149e92ead563fba08ef,62a440032acb8d1d2b0e9127,,,,,,,,,,,,,0,,,,,,,,,,Task,8,(1x5) - 5,0,,,,,,,,,,,,,,,,,,,1,,,,,,,,,,,,,,,,,,,,,,,"[""0""]",1,0,0,0,7,1,[1.8845000000000027],,,,,,,,,,,,,,,,,,,,,,,,,,
,,,,,,,,,,,X V Q F H G B L J M P D K C T S W R N Z,5be1c7de91deed00015a97b9,24,Mężczyzna,2022-06-11_09h13.03.713,task,2021.1.4,MacIntel,59.88382538,6299f149e92ead563fba08ef,62a440032acb8d1d2b0e9127,,,,,,,,,,,,,,,,,,,,,,,,,,,,,,,,,,,,,,,,,,,,,,,,,,,,,,,,,,,,,,,,,,,,,,,,,,,,1,0,1,0,1,,,,,,,,,,,,,,,,,,,,,
,,,,,,,,,,,,5be1c7de91deed00015a97b9,24,Mężczyzna,2022-06-11_09h13.03.713,task,2021.1.4,MacIntel,59.88382538,6299f149e92ead563fba08ef,62a440032acb8d1d2b0e9127,,,,,,,,,,,,,3,,,,,,,,,,Task,3,(2x3) - 3,3,,,,,,,,,,,,,,,,,,,1,,,,,,,,,,,,,,,,,,,,,,,"[""3""]",1,0,0,0,2,1,[2.0593999999999824],,,,,,,,,,,,,,,,,,,,,,,,,,
,,,,,,,,,,,X V Q F H G B L J M P D K C T S W R N Z,5be1c7de91deed00015a97b9,24,Mężczyzna,2022-06-11_09h13.03.713,task,2021.1.4,MacIntel,59.88382538,6299f149e92ead563fba08ef,62a440032acb8d1d2b0e9127,,,,,,,,,,,,,,,,,,,,,,,,,,,,,,,,,,,,,,,,,,,,,,,,,,,,,,,,,,,,,,,,,,,,,,,,,,,,2,0,2,0,1,,,,,,,,,,,,,,,,,,,,,
,,,,,,,,,,,,5be1c7de91deed00015a97b9,24,Mężczyzna,2022-06-11_09h13.03.713,task,2021.1.4,MacIntel,59.88382538,6299f149e92ead563fba08ef,62a440032acb8d1d2b0e9127,,,,,,,,,,,,,4,,,,,,,,,,Task,11,(18/3) - 2,4,,,,,,,,,,,,,,,,,,,1,,,,,,,,,,,,,,,,,,,,,,,"[""4""]",1,0,0,0,10,1,[2.246900000000096],,,,,,,,,,,,,,,,,,,,,,,,,,
,,,,,,,,,,,X V Q F H G B L J M P D K C T S W R N Z,5be1c7de91deed00015a97b9,24,Mężczyzna,2022-06-11_09h13.03.713,task,2021.1.4,MacIntel,59.88382538,6299f149e92ead563fba08ef,62a440032acb8d1d2b0e9127,,,,,,,,,,,,,,,,,,,,,,,,,,,,,,,,,,,,,,,,,,,,,,,,,,,,,,,,,,,,,,,,,,,,,,,,,,,,3,0,3,0,1,,,,,,,,,,,,,,,,,,,,,
,,,,,,,,,,,,5be1c7de91deed00015a97b9,24,Mężczyzna,2022-06-11_09h13.03.713,task,2021.1.4,MacIntel,59.88382538,6299f149e92ead563fba08ef,62a440032acb8d1d2b0e9127,,,,,,,,,,,,,6,,,,,,,,,,Task,11,(18/3) - 2,4,,,,,,,,,,,,,,,,,,,0,,,,,,,,,,,,,,,,,,,,,,,"[""6""]",0,0,0,0,10,1,[1.8147000000000162],,,,,,,,,,,,,,,,,,,,,,,,,,
,,,,,,,,,,,,5be1c7de91deed00015a97b9,24,Mężczyzna,2022-06-11_09h13.03.713,task,2021.1.4,MacIntel,59.88382538,6299f149e92ead563fba08ef,62a440032acb8d1d2b0e9127,,,,,,,,,,,,,5,,,,,,,,,,Task,29,(3x8) - 19 ,5,,,,,,,,,,,,,,,,,,,1,,,,,,,,,,,,,,,,,,,,,,,"[""5""]",1,0,1,1,28,1,[2.4710000000000036],,,,,,,,,,,,,,,,,,,,,,,,,,
,,,,,,,,,,,X V Q F H G B L J M P D K C T S W R N Z,5be1c7de91deed00015a97b9,24,Mężczyzna,2022-06-11_09h13.03.713,task,2021.1.4,MacIntel,59.88382538,6299f149e92ead563fba08ef,62a440032acb8d1d2b0e9127,,,,,,,,,,,,,,,,,,,,,,,,,,,,,,,,,,,,,,,,,,,,,,,,,,,,,,,,,,,,,,,,,,,,,,,,,,,,4,0,4,0,1,,,,,,,,,,,,,,,,,,,,,
,,,,,,,,,,,,5be1c7de91deed00015a97b9,24,Mężczyzna,2022-06-11_09h13.03.713,task,2021.1.4,MacIntel,59.88382538,6299f149e92ead563fba08ef,62a440032acb8d1d2b0e9127,,,,,,,,,,,,,3,,,,,,,,,,Task,20,(18/9) + 1,3,,,,,,,,,,,,,,,,,,,1,,,,,,,,,,,,,,,,,,,,,,,"[""3""]",1,0,0,0,19,1,[2.4343000000000075],,,,,,,,,,,,,,,,,,,,,,,,,,
,,,,,,,,,,,X V Q F H G B L J M P D K C T S W R N Z,5be1c7de91deed00015a97b9,24,Mężczyzna,2022-06-11_09h13.03.713,task,2021.1.4,MacIntel,59.88382538,6299f149e92ead563fba08ef,62a440032acb8d1d2b0e9127,,,,,,,,,,,,,,,,,,,,,,,,,,,,,,,,,,,,,,,,,,,,,,,,,,,,,,,,,,,,,,,,,,,,,,,,,,,,5,0,5,0,1,,,,,,,,,,,,,,,,,,,,,
,,,,,,,,,,,,5be1c7de91deed00015a97b9,24,Mężczyzna,2022-06-11_09h13.03.713,task,2021.1.4,MacIntel,59.88382538,6299f149e92ead563fba08ef,62a440032acb8d1d2b0e9127,,,,,,,,,,,,,,,,,,,,,,,,,,,,,,,,,,,,,,,,,,,,,,,,,,,,,,,,,,,,,,,,,,,,,,,,,,,,,,,,,shcskw,"[""s"",""h"",""c"",""s"",""k"",""w""]",0,"[1.5863999999999123,1.6900000000000546,1.8419999999999845,2.0587000000000444,2.3707999999999174,2.546100000000024,2.866300000000024]",1,SHCSKW,4,0,4,0,1,,,,,,,,,,
,,,,,,,,,,,,5be1c7de91deed00015a97b9,24,Mężczyzna,2022-06-11_09h13.03.713,task,2021.1.4,MacIntel,59.88382538,6299f149e92ead563fba08ef,62a440032acb8d1d2b0e9127,,,,,,,,,,,,,5,,,,,,,,,,Task,29,(3x8) - 19 ,5,,,,,,,,,,,,,,,,,,,1,,,,,,,,,,,,,,,,,,,,,,,"[""5""]",1,0,0,0,28,1,[2.3553000000000566],,,,,,,,,,,,,,,,,,,,,,,,,,
,,,,,,,,,,,X V Q F H G B L J M P D K C T S W R N Z,5be1c7de91deed00015a97b9,24,Mężczyzna,2022-06-11_09h13.03.713,task,2021.1.4,MacIntel,59.88382538,6299f149e92ead563fba08ef,62a440032acb8d1d2b0e9127,,,,,,,,,,,,,,,,,,,,,,,,,,,,,,,,,,,,,,,,,,,,,,,,,,,,,,,,,,,,,,,,,,,,,,,,,,,,0,0,0,0,1,,,,,,,,,,,,,,,,,,,,,
,,,,,,,,,,,,5be1c7de91deed00015a97b9,24,Mężczyzna,2022-06-11_09h13.03.713,task,2021.1.4,MacIntel,59.88382538,6299f149e92ead563fba08ef,62a440032acb8d1d2b0e9127,,,,,,,,,,,,,5,,,,,,,,,,Task,22,(3x1) + 2,5,,,,,,,,,,,,,,,,,,,1,,,,,,,,,,,,,,,,,,,,,,,"[""5""]",1,0,0,0,21,1,[1.8953000000000202],,,,,,,,,,,,,,,,,,,,,,,,,,
,,,,,,,,,,,X V Q F H G B L J M P D K C T S W R N Z,5be1c7de91deed00015a97b9,24,Mężczyzna,2022-06-11_09h13.03.713,task,2021.1.4,MacIntel,59.88382538,6299f149e92ead563fba08ef,62a440032acb8d1d2b0e9127,,,,,,,,,,,,,,,,,,,,,,,,,,,,,,,,,,,,,,,,,,,,,,,,,,,,,,,,,,,,,,,,,,,,,,,,,,,,1,0,1,0,1,,,,,,,,,,,,,,,,,,,,,
,,,,,,,,,,,,5be1c7de91deed00015a97b9,24,Mężczyzna,2022-06-11_09h13.03.713,task,2021.1.4,MacIntel,59.88382538,6299f149e92ead563fba08ef,62a440032acb8d1d2b0e9127,,,,,,,,,,,,,0,,,,,,,,,,Task,33,(1/1) - 1,0,,,,,,,,,,,,,,,,,,,1,,,,,,,,,,,,,,,,,,,,,,,"[""0""]",1,0,0,0,32,1,[1.7115999999999758],,,,,,,,,,,,,,,,,,,,,,,,,,
,,,,,,,,,,,X V Q F H G B L J M P D K C T S W R N Z,5be1c7de91deed00015a97b9,24,Mężczyzna,2022-06-11_09h13.03.713,task,2021.1.4,MacIntel,59.88382538,6299f149e92ead563fba08ef,62a440032acb8d1d2b0e9127,,,,,,,,,,,,,,,,,,,,,,,,,,,,,,,,,,,,,,,,,,,,,,,,,,,,,,,,,,,,,,,,,,,,,,,,,,,,2,0,2,0,1,,,,,,,,,,,,,,,,,,,,,
,,,,,,,,,,,,5be1c7de91deed00015a97b9,24,Mężczyzna,2022-06-11_09h13.03.713,task,2021.1.4,MacIntel,59.88382538,6299f149e92ead563fba08ef,62a440032acb8d1d2b0e9127,,,,,,,,,,,,,6,,,,,,,,,,Task,13,(3x4) - 6,6,,,,,,,,,,,,,,,,,,,1,,,,,,,,,,,,,,,,,,,,,,,"[""6""]",1,0,0,0,12,1,[3.5575999999999794],,,,,,,,,,,,,,,,,,,,,,,,,,
,,,,,,,,,,,X V Q F H G B L J M P D K C T S W R N Z,5be1c7de91deed00015a97b9,24,Mężczyzna,2022-06-11_09h13.03.713,task,2021.1.4,MacIntel,59.88382538,6299f149e92ead563fba08ef,62a440032acb8d1d2b0e9127,,,,,,,,,,,,,,,,,,,,,,,,,,,,,,,,,,,,,,,,,,,,,,,,,,,,,,,,,,,,,,,,,,,,,,,,,,,,3,0,3,0,1,,,,,,,,,,,,,,,,,,,,,
,,,,,,,,,,,,5be1c7de91deed00015a97b9,24,Mężczyzna,2022-06-11_09h13.03.713,task,2021.1.4,MacIntel,59.88382538,6299f149e92ead563fba08ef,62a440032acb8d1d2b0e9127,,,,,,,,,,,,,5,,,,,,,,,,Task,29,(3x8) - 19 ,5,,,,,,,,,,,,,,,,,,,1,,,,,,,,,,,,,,,,,,,,,,,"[""5""]",1,0,0,0,28,1,[2.2928000000000566],,,,,,,,,,,,,,,,,,,,,,,,,,
,,,,,,,,,,,X V Q F H G B L J M P D K C T S W R N Z,5be1c7de91deed00015a97b9,24,Mężczyzna,2022-06-11_09h13.03.713,task,2021.1.4,MacIntel,59.88382538,6299f149e92ead563fba08ef,62a440032acb8d1d2b0e9127,,,,,,,,,,,,,,,,,,,,,,,,,,,,,,,,,,,,,,,,,,,,,,,,,,,,,,,,,,,,,,,,,,,,,,,,,,,,4,0,4,0,1,,,,,,,,,,,,,,,,,,,,,
,,,,,,,,,,,,5be1c7de91deed00015a97b9,24,Mężczyzna,2022-06-11_09h13.03.713,task,2021.1.4,MacIntel,59.88382538,6299f149e92ead563fba08ef,62a440032acb8d1d2b0e9127,,,,,,,,,,,,,4,,,,,,,,,,Task,21,(10/2) - 1,4,,,,,,,,,,,,,,,,,,,1,,,,,,,,,,,,,,,,,,,,,,,"[""4""]",1,0,0,0,20,1,[2.475699999999847],,,,,,,,,,,,,,,,,,,,,,,,,,
,,,,,,,,,,,X V Q F H G B L J M P D K C T S W R N Z,5be1c7de91deed00015a97b9,24,Mężczyzna,2022-06-11_09h13.03.713,task,2021.1.4,MacIntel,59.88382538,6299f149e92ead563fba08ef,62a440032acb8d1d2b0e9127,,,,,,,,,,,,,,,,,,,,,,,,,,,,,,,,,,,,,,,,,,,,,,,,,,,,,,,,,,,,,,,,,,,,,,,,,,,,5,0,5,0,1,,,,,,,,,,,,,,,,,,,,,
,,,,,,,,,,,,5be1c7de91deed00015a97b9,24,Mężczyzna,2022-06-11_09h13.03.713,task,2021.1.4,MacIntel,59.88382538,6299f149e92ead563fba08ef,62a440032acb8d1d2b0e9127,,,,,,,,,,,,,4,,,,,,,,,,Task,11,(18/3) - 2,4,,,,,,,,,,,,,,,,,,,1,,,,,,,,,,,,,,,,,,,,,,,"[""4""]",1,0,0,0,10,1,[2.631900000000087],,,,,,,,,,,,,,,,,,,,,,,,,,
,,,,,,,,,,,X V Q F H G B L J M P D K C T S W R N Z,5be1c7de91deed00015a97b9,24,Mężczyzna,2022-06-11_09h13.03.713,task,2021.1.4,MacIntel,59.88382538,6299f149e92ead563fba08ef,62a440032acb8d1d2b0e9127,,,,,,,,,,,,,,,,,,,,,,,,,,,,,,,,,,,,,,,,,,,,,,,,,,,,,,,,,,,,,,,,,,,,,,,,,,,,6,0,6,0,1,,,,,,,,,,,,,,,,,,,,,
,,,,,,,,,,,,5be1c7de91deed00015a97b9,24,Mężczyzna,2022-06-11_09h13.03.713,task,2021.1.4,MacIntel,59.88382538,6299f149e92ead563fba08ef,62a440032acb8d1d2b0e9127,,,,,,,,,,,,,,,,,,,,,,,,,,,,,,,,,,,,,,,,,,,,,,,,,,,,,,,,,,,,,,,,,,,,,,,,,,,,,,,,,xnjjjjs,"[""x"",""n"",""j"",""j"",""j"",""j"",""s""]",0,"[1.0302999999998974,1.1510999999999285,1.518199999999979,1.719000000000051,1.897199999999998,2.2626000000000204,2.558499999999981,7.950400000000059]",1,XNJJJJS,5,0,5,0,1,,,,,,,,,,
,,,,,,,,,,,,5be1c7de91deed00015a97b9,24,Mężczyzna,2022-06-11_09h13.03.713,task,2021.1.4,MacIntel,59.88382538,6299f149e92ead563fba08ef,62a440032acb8d1d2b0e9127,,,,,,,,,,,,,2,,,,,,,,,,Task,2,(2x2) - 2,2,,,,,,,,,,,,,,,,,,,1,,,,,,,,,,,,,,,,,,,,,,,"[""2""]",1,0,0,0,1,1,[1.5360999999999194],,,,,,,,,,,,,,,,,,,,,,,,,,
,,,,,,,,,,,X V Q F H G B L J M P D K C T S W R N Z,5be1c7de91deed00015a97b9,24,Mężczyzna,2022-06-11_09h13.03.713,task,2021.1.4,MacIntel,59.88382538,6299f149e92ead563fba08ef,62a440032acb8d1d2b0e9127,,,,,,,,,,,,,,,,,,,,,,,,,,,,,,,,,,,,,,,,,,,,,,,,,,,,,,,,,,,,,,,,,,,,,,,,,,,,0,0,0,0,1,,,,,,,,,,,,,,,,,,,,,
,,,,,,,,,,,,5be1c7de91deed00015a97b9,24,Mężczyzna,2022-06-11_09h13.03.713,task,2021.1.4,MacIntel,59.88382538,6299f149e92ead563fba08ef,62a440032acb8d1d2b0e9127,,,,,,,,,,,,,8,,,,,,,,,,Task,32,(8/2) + 4,8,,,,,,,,,,,,,,,,,,,1,,,,,,,,,,,,,,,,,,,,,,,"[""8""]",1,0,0,0,31,1,[2.057299999999941],,,,,,,,,,,,,,,,,,,,,,,,,,
,,,,,,,,,,,X V Q F H G B L J M P D K C T S W R N Z,5be1c7de91deed00015a97b9,24,Mężczyzna,2022-06-11_09h13.03.713,task,2021.1.4,MacIntel,59.88382538,6299f149e92ead563fba08ef,62a440032acb8d1d2b0e9127,,,,,,,,,,,,,,,,,,,,,,,,,,,,,,,,,,,,,,,,,,,,,,,,,,,,,,,,,,,,,,,,,,,,,,,,,,,,1,0,1,0,1,,,,,,,,,,,,,,,,,,,,,
,,,,,,,,,,,,5be1c7de91deed00015a97b9,24,Mężczyzna,2022-06-11_09h13.03.713,task,2021.1.4,MacIntel,59.88382538,6299f149e92ead563fba08ef,62a440032acb8d1d2b0e9127,,,,,,,,,,,,,1,,,,,,,,,,Task,9,(3x7) - 20,1,,,,,,,,,,,,,,,,,,,1,,,,,,,,,,,,,,,,,,,,,,,"[""1""]",1,0,0,0,8,1,[3.0861000000001013],,,,,,,,,,,,,,,,,,,,,,,,,,
,,,,,,,,,,,X V Q F H G B L J M P D K C T S W R N Z,5be1c7de91deed00015a97b9,24,Mężczyzna,2022-06-11_09h13.03.713,task,2021.1.4,MacIntel,59.88382538,6299f149e92ead563fba08ef,62a440032acb8d1d2b0e9127,,,,,,,,,,,,,,,,,,,,,,,,,,,,,,,,,,,,,,,,,,,,,,,,,,,,,,,,,,,,,,,,,,,,,,,,,,,,2,0,2,0,1,,,,,,,,,,,,,,,,,,,,,
,,,,,,,,,,,,5be1c7de91deed00015a97b9,24,Mężczyzna,2022-06-11_09h13.03.713,task,2021.1.4,MacIntel,59.88382538,6299f149e92ead563fba08ef,62a440032acb8d1d2b0e9127,,,,,,,,,,,,,6,,,,,,,,,,Task,37,(3/3) + 5,6,,,,,,,,,,,,,,,,,,,1,,,,,,,,,,,,,,,,,,,,,,,"[""6""]",1,0,0,0,36,1,[2.108500000000049],,,,,,,,,,,,,,,,,,,,,,,,,,
,,,,,,,,,,,X V Q F H G B L J M P D K C T S W R N Z,5be1c7de91deed00015a97b9,24,Mężczyzna,2022-06-11_09h13.03.713,task,2021.1.4,MacIntel,59.88382538,6299f149e92ead563fba08ef,62a440032acb8d1d2b0e9127,,,,,,,,,,,,,,,,,,,,,,,,,,,,,,,,,,,,,,,,,,,,,,,,,,,,,,,,,,,,,,,,,,,,,,,,,,,,3,0,3,0,1,,,,,,,,,,,,,,,,,,,,,
,,,,,,,,,,,,5be1c7de91deed00015a97b9,24,Mężczyzna,2022-06-11_09h13.03.713,task,2021.1.4,MacIntel,59.88382538,6299f149e92ead563fba08ef,62a440032acb8d1d2b0e9127,,,,,,,,,,,,,,,,,,,,,,,Task,38,(4x6) - 17,7,,,,,,,,,,,,,,,,,,,0,,,,,,,,,,,,,,,,,,,,,,,,0,0,0,0,37,1,,,,,,,,,,,,,,,,,,,,,,,,,,,
,,,,,,,,,,,,5be1c7de91deed00015a97b9,24,Mężczyzna,2022-06-11_09h13.03.713,task,2021.1.4,MacIntel,59.88382538,6299f149e92ead563fba08ef,62a440032acb8d1d2b0e9127,,,,,,,,,,,,,6,,,,,,,,,,Task,13,(3x4) - 6,6,,,,,,,,,,,,,,,,,,,1,,,,,,,,,,,,,,,,,,,,,,,"[""6""]",1,0,1,1,12,1,[2.313199999999938],,,,,,,,,,,,,,,,,,,,,,,,,,
,,,,,,,,,,,X V Q F H G B L J M P D K C T S W R N Z,5be1c7de91deed00015a97b9,24,Mężczyzna,2022-06-11_09h13.03.713,task,2021.1.4,MacIntel,59.88382538,6299f149e92ead563fba08ef,62a440032acb8d1d2b0e9127,,,,,,,,,,,,,,,,,,,,,,,,,,,,,,,,,,,,,,,,,,,,,,,,,,,,,,,,,,,,,,,,,,,,,,,,,,,,4,0,4,0,1,,,,,,,,,,,,,,,,,,,,,
,,,,,,,,,,,,5be1c7de91deed00015a97b9,24,Mężczyzna,2022-06-11_09h13.03.713,task,2021.1.4,MacIntel,59.88382538,6299f149e92ead563fba08ef,62a440032acb8d1d2b0e9127,,,,,,,,,,,,,2,,,,,,,,,,Task,26,(2x9) - 16,2,,,,,,,,,,,,,,,,,,,1,,,,,,,,,,,,,,,,,,,,,,,"[""2""]",1,0,0,0,25,1,[1.7041999999999007],,,,,,,,,,,,,,,,,,,,,,,,,,
,,,,,,,,,,,X V Q F H G B L J M P D K C T S W R N Z,5be1c7de91deed00015a97b9,24,Mężczyzna,2022-06-11_09h13.03.713,task,2021.1.4,MacIntel,59.88382538,6299f149e92ead563fba08ef,62a440032acb8d1d2b0e9127,,,,,,,,,,,,,,,,,,,,,,,,,,,,,,,,,,,,,,,,,,,,,,,,,,,,,,,,,,,,,,,,,,,,,,,,,,,,5,0,5,0,1,,,,,,,,,,,,,,,,,,,,,
,,,,,,,,,,,,5be1c7de91deed00015a97b9,24,Mężczyzna,2022-06-11_09h13.03.713,task,2021.1.4,MacIntel,59.88382538,6299f149e92ead563fba08ef,62a440032acb8d1d2b0e9127,,,,,,,,,,,,,4,,,,,,,,,,Task,28,(2x5) - 6,4,,,,,,,,,,,,,,,,,,,1,,,,,,,,,,,,,,,,,,,,,,,"[""4""]",1,0,0,0,27,1,[1.9336999999999307],,,,,,,,,,,,,,,,,,,,,,,,,,
,,,,,,,,,,,X V Q F H G B L J M P D K C T S W R N Z,5be1c7de91deed00015a97b9,24,Mężczyzna,2022-06-11_09h13.03.713,task,2021.1.4,MacIntel,59.88382538,6299f149e92ead563fba08ef,62a440032acb8d1d2b0e9127,,,,,,,,,,,,,,,,,,,,,,,,,,,,,,,,,,,,,,,,,,,,,,,,,,,,,,,,,,,,,,,,,,,,,,,,,,,,6,0,6,0,1,,,,,,,,,,,,,,,,,,,,,
,,,,,,,,,,,,5be1c7de91deed00015a97b9,24,Mężczyzna,2022-06-11_09h13.03.713,task,2021.1.4,MacIntel,59.88382538,6299f149e92ead563fba08ef,62a440032acb8d1d2b0e9127,,,,,,,,,,,,,1,,,,,,,,,,Task,9,(3x7) - 20,1,,,,,,,,,,,,,,,,,,,1,,,,,,,,,,,,,,,,,,,,,,,"[""1""]",1,0,0,0,8,1,[2.4600000000000364],,,,,,,,,,,,,,,,,,,,,,,,,,
,,,,,,,,,,,X V Q F H G B L J M P D K C T S W R N Z,5be1c7de91deed00015a97b9,24,Mężczyzna,2022-06-11_09h13.03.713,task,2021.1.4,MacIntel,59.88382538,6299f149e92ead563fba08ef,62a440032acb8d1d2b0e9127,,,,,,,,,,,,,,,,,,,,,,,,,,,,,,,,,,,,,,,,,,,,,,,,,,,,,,,,,,,,,,,,,,,,,,,,,,,,7,0,7,0,1,,,,,,,,,,,,,,,,,,,,,
,,,,,,,,,,,,5be1c7de91deed00015a97b9,24,Mężczyzna,2022-06-11_09h13.03.713,task,2021.1.4,MacIntel,59.88382538,6299f149e92ead563fba08ef,62a440032acb8d1d2b0e9127,,,,,,,,,,,,,,,,,,,,,,,,,,,,,,,,,,,,,,,,,,,,,,,,,,,,,,,,,,,,,,,,,,,,,,,,,,,,,,,,,jxjmbmh,"[""j"",""x"",""j"",""m"",""b"",""m"",""h""]",0,"[1.5057000000001608,1.7538000000000693,1.9775000000000773,2.5054000000001224,2.945900000000165,3.3219000000001415,3.4252000000002454,3.897100000000137]",0,JXGJMBMH,6,0,6,0,1,,,,,,,,,,
,,,,,,,,,,,,5be1c7de91deed00015a97b9,24,Mężczyzna,2022-06-11_09h13.03.713,task,2021.1.4,MacIntel,59.88382538,6299f149e92ead563fba08ef,62a440032acb8d1d2b0e9127,,,,,,,,,,,,,6,,,,,,,,,,Task,37,(3/3) + 5,6,,,,,,,,,,,,,,,,,,,1,,,,,,,,,,,,,,,,,,,,,,,"[""6""]",1,0,0,0,36,1,[1.6520999999997912],,,,,,,,,,,,,,,,,,,,,,,,,,
,,,,,,,,,,,X V Q F H G B L J M P D K C T S W R N Z,5be1c7de91deed00015a97b9,24,Mężczyzna,2022-06-11_09h13.03.713,task,2021.1.4,MacIntel,59.88382538,6299f149e92ead563fba08ef,62a440032acb8d1d2b0e9127,,,,,,,,,,,,,,,,,,,,,,,,,,,,,,,,,,,,,,,,,,,,,,,,,,,,,,,,,,,,,,,,,,,,,,,,,,,,0,0,0,0,1,,,,,,,,,,,,,,,,,,,,,
,,,,,,,,,,,,5be1c7de91deed00015a97b9,24,Mężczyzna,2022-06-11_09h13.03.713,task,2021.1.4,MacIntel,59.88382538,6299f149e92ead563fba08ef,62a440032acb8d1d2b0e9127,,,,,,,,,,,,,0,,,,,,,,,,Task,17,(2x3) - 6,0,,,,,,,,,,,,,,,,,,,1,,,,,,,,,,,,,,,,,,,,,,,"[""0""]",1,0,0,0,16,1,[1.601699999999937],,,,,,,,,,,,,,,,,,,,,,,,,,
,,,,,,,,,,,X V Q F H G B L J M P D K C T S W R N Z,5be1c7de91deed00015a97b9,24,Mężczyzna,2022-06-11_09h13.03.713,task,2021.1.4,MacIntel,59.88382538,6299f149e92ead563fba08ef,62a440032acb8d1d2b0e9127,,,,,,,,,,,,,,,,,,,,,,,,,,,,,,,,,,,,,,,,,,,,,,,,,,,,,,,,,,,,,,,,,,,,,,,,,,,,1,0,1,0,1,,,,,,,,,,,,,,,,,,,,,
,,,,,,,,,,,,5be1c7de91deed00015a97b9,24,Mężczyzna,2022-06-11_09h13.03.713,task,2021.1.4,MacIntel,59.88382538,6299f149e92ead563fba08ef,62a440032acb8d1d2b0e9127,,,,,,,,,,,,,6,,,,,,,,,,Task,37,(3/3) + 5,6,,,,,,,,,,,,,,,,,,,1,,,,,,,,,,,,,,,,,,,,,,,"[""6""]",1,0,0,0,36,1,[1.7921999999998661],,,,,,,,,,,,,,,,,,,,,,,,,,
,,,,,,,,,,,X V Q F H G B L J M P D K C T S W R N Z,5be1c7de91deed00015a97b9,24,Mężczyzna,2022-06-11_09h13.03.713,task,2021.1.4,MacIntel,59.88382538,6299f149e92ead563fba08ef,62a440032acb8d1d2b0e9127,,,,,,,,,,,,,,,,,,,,,,,,,,,,,,,,,,,,,,,,,,,,,,,,,,,,,,,,,,,,,,,,,,,,,,,,,,,,2,0,2,0,1,,,,,,,,,,,,,,,,,,,,,
,,,,,,,,,,,,5be1c7de91deed00015a97b9,24,Mężczyzna,2022-06-11_09h13.03.713,task,2021.1.4,MacIntel,59.88382538,6299f149e92ead563fba08ef,62a440032acb8d1d2b0e9127,,,,,,,,,,,,,4,,,,,,,,,,Task,21,(10/2) - 1,4,,,,,,,,,,,,,,,,,,,1,,,,,,,,,,,,,,,,,,,,,,,"[""4""]",1,0,0,0,20,1,[2.6226999999998952],,,,,,,,,,,,,,,,,,,,,,,,,,
,,,,,,,,,,,X V Q F H G B L J M P D K C T S W R N Z,5be1c7de91deed00015a97b9,24,Mężczyzna,2022-06-11_09h13.03.713,task,2021.1.4,MacIntel,59.88382538,6299f149e92ead563fba08ef,62a440032acb8d1d2b0e9127,,,,,,,,,,,,,,,,,,,,,,,,,,,,,,,,,,,,,,,,,,,,,,,,,,,,,,,,,,,,,,,,,,,,,,,,,,,,3,0,3,0,1,,,,,,,,,,,,,,,,,,,,,
,,,,,,,,,,,,5be1c7de91deed00015a97b9,24,Mężczyzna,2022-06-11_09h13.03.713,task,2021.1.4,MacIntel,59.88382538,6299f149e92ead563fba08ef,62a440032acb8d1d2b0e9127,,,,,,,,,,,,,3,,,,,,,,,,Task,3,(2x3) - 3,3,,,,,,,,,,,,,,,,,,,1,,,,,,,,,,,,,,,,,,,,,,,"[""3""]",1,0,0,0,2,1,[2.3923999999998387],,,,,,,,,,,,,,,,,,,,,,,,,,
,,,,,,,,,,,X V Q F H G B L J M P D K C T S W R N Z,5be1c7de91deed00015a97b9,24,Mężczyzna,2022-06-11_09h13.03.713,task,2021.1.4,MacIntel,59.88382538,6299f149e92ead563fba08ef,62a440032acb8d1d2b0e9127,,,,,,,,,,,,,,,,,,,,,,,,,,,,,,,,,,,,,,,,,,,,,,,,,,,,,,,,,,,,,,,,,,,,,,,,,,,,4,0,4,0,1,,,,,,,,,,,,,,,,,,,,,
,,,,,,,,,,,,5be1c7de91deed00015a97b9,24,Mężczyzna,2022-06-11_09h13.03.713,task,2021.1.4,MacIntel,59.88382538,6299f149e92ead563fba08ef,62a440032acb8d1d2b0e9127,,,,,,,,,,,,,1,,,,,,,,,,Task,1,(12/6) - 1,1,,,,,,,,,,,,,,,,,,,1,,,,,,,,,,,,,,,,,,,,,,,"[""1""]",1,0,0,0,0,1,[2.7952999999999975],,,,,,,,,,,,,,,,,,,,,,,,,,
,,,,,,,,,,,X V Q F H G B L J M P D K C T S W R N Z,5be1c7de91deed00015a97b9,24,Mężczyzna,2022-06-11_09h13.03.713,task,2021.1.4,MacIntel,59.88382538,6299f149e92ead563fba08ef,62a440032acb8d1d2b0e9127,,,,,,,,,,,,,,,,,,,,,,,,,,,,,,,,,,,,,,,,,,,,,,,,,,,,,,,,,,,,,,,,,,,,,,,,,,,,5,0,5,0,1,,,,,,,,,,,,,,,,,,,,,
,,,,,,,,,,,,5be1c7de91deed00015a97b9,24,Mężczyzna,2022-06-11_09h13.03.713,task,2021.1.4,MacIntel,59.88382538,6299f149e92ead563fba08ef,62a440032acb8d1d2b0e9127,,,,,,,,,,,,,0,,,,,,,,,,Task,33,(1/1) - 1,0,,,,,,,,,,,,,,,,,,,1,,,,,,,,,,,,,,,,,,,,,,,"[""0""]",1,0,0,0,32,1,[1.4283999999998969],,,,,,,,,,,,,,,,,,,,,,,,,,
,,,,,,,,,,,X V Q F H G B L J M P D K C T S W R N Z,5be1c7de91deed00015a97b9,24,Mężczyzna,2022-06-11_09h13.03.713,task,2021.1.4,MacIntel,59.88382538,6299f149e92ead563fba08ef,62a440032acb8d1d2b0e9127,,,,,,,,,,,,,,,,,,,,,,,,,,,,,,,,,,,,,,,,,,,,,,,,,,,,,,,,,,,,,,,,,,,,,,,,,,,,6,0,6,0,1,,,,,,,,,,,,,,,,,,,,,
,,,,,,,,,,,,5be1c7de91deed00015a97b9,24,Mężczyzna,2022-06-11_09h13.03.713,task,2021.1.4,MacIntel,59.88382538,6299f149e92ead563fba08ef,62a440032acb8d1d2b0e9127,,,,,,,,,,,,,6,,,,,,,,,,Task,13,(3x4) - 6,6,,,,,,,,,,,,,,,,,,,1,,,,,,,,,,,,,,,,,,,,,,,"[""6""]",1,0,0,0,12,1,[1.4199000000002115],,,,,,,,,,,,,,,,,,,,,,,,,,
,,,,,,,,,,,X V Q F H G B L J M P D K C T S W R N Z,5be1c7de91deed00015a97b9,24,Mężczyzna,2022-06-11_09h13.03.713,task,2021.1.4,MacIntel,59.88382538,6299f149e92ead563fba08ef,62a440032acb8d1d2b0e9127,,,,,,,,,,,,,,,,,,,,,,,,,,,,,,,,,,,,,,,,,,,,,,,,,,,,,,,,,,,,,,,,,,,,,,,,,,,,7,0,7,0,1,,,,,,,,,,,,,,,,,,,,,
,,,,,,,,,,,,5be1c7de91deed00015a97b9,24,Mężczyzna,2022-06-11_09h13.03.713,task,2021.1.4,MacIntel,59.88382538,6299f149e92ead563fba08ef,62a440032acb8d1d2b0e9127,,,,,,,,,,,,,,,,,,,,,,,,,,,,,,,,,,,,,,,,,,,,,,,,,,,,,,,,,,,,,,,,,,,,,,,,,,,,,,,,,tjtnpbsj,"[""t"",""j"",""t"",""n"",""p"",""b"",""s"",""j""]",0,"[1.9341000000001713,3.3272000000001754,3.590900000000147,3.9994000000001506,4.726499999999987,4.98270000000025,5.29520000000025,5.990600000000086,7.26400000000001]",1,TJTNPBSJ,7,0,7,0,1,,,,,,,,,,
,,,,,,,,,,,,5be1c7de91deed00015a97b9,24,Mężczyzna,2022-06-11_09h13.03.713,task,2021.1.4,MacIntel,59.88382538,6299f149e92ead563fba08ef,62a440032acb8d1d2b0e9127,,,,,,,,,,,,,0,,,,,,,,,,Task,25,(10/5) - 2,0,,,,,,,,,,,,,,,,,,,1,,,,,,,,,,,,,,,,,,,,,,,"[""0""]",1,0,0,0,24,1,[1.8471999999999298],,,,,,,,,,,,,,,,,,,,,,,,,,
,,,,,,,,,,,X V Q F H G B L J M P D K C T S W R N Z,5be1c7de91deed00015a97b9,24,Mężczyzna,2022-06-11_09h13.03.713,task,2021.1.4,MacIntel,59.88382538,6299f149e92ead563fba08ef,62a440032acb8d1d2b0e9127,,,,,,,,,,,,,,,,,,,,,,,,,,,,,,,,,,,,,,,,,,,,,,,,,,,,,,,,,,,,,,,,,,,,,,,,,,,,0,0,0,0,1,,,,,,,,,,,,,,,,,,,,,
,,,,,,,,,,,,5be1c7de91deed00015a97b9,24,Mężczyzna,2022-06-11_09h13.03.713,task,2021.1.4,MacIntel,59.88382538,6299f149e92ead563fba08ef,62a440032acb8d1d2b0e9127,,,,,,,,,,,,,9,,,,,,,,,,Task,24,(2x2) + 5,9,,,,,,,,,,,,,,,,,,,1,,,,,,,,,,,,,,,,,,,,,,,"[""9""]",1,0,0,0,23,1,[2.0198999999998932],,,,,,,,,,,,,,,,,,,,,,,,,,
,,,,,,,,,,,X V Q F H G B L J M P D K C T S W R N Z,5be1c7de91deed00015a97b9,24,Mężczyzna,2022-06-11_09h13.03.713,task,2021.1.4,MacIntel,59.88382538,6299f149e92ead563fba08ef,62a440032acb8d1d2b0e9127,,,,,,,,,,,,,,,,,,,,,,,,,,,,,,,,,,,,,,,,,,,,,,,,,,,,,,,,,,,,,,,,,,,,,,,,,,,,1,0,1,0,1,,,,,,,,,,,,,,,,,,,,,
,,,,,,,,,,,,5be1c7de91deed00015a97b9,24,Mężczyzna,2022-06-11_09h13.03.713,task,2021.1.4,MacIntel,59.88382538,6299f149e92ead563fba08ef,62a440032acb8d1d2b0e9127,,,,,,,,,,,,,3,,,,,,,,,,Task,3,(2x3) - 3,3,,,,,,,,,,,,,,,,,,,1,,,,,,,,,,,,,,,,,,,,,,,"[""3""]",1,0,0,0,2,1,[1.7090999999999212],,,,,,,,,,,,,,,,,,,,,,,,,,
,,,,,,,,,,,X V Q F H G B L J M P D K C T S W R N Z,5be1c7de91deed00015a97b9,24,Mężczyzna,2022-06-11_09h13.03.713,task,2021.1.4,MacIntel,59.88382538,6299f149e92ead563fba08ef,62a440032acb8d1d2b0e9127,,,,,,,,,,,,,,,,,,,,,,,,,,,,,,,,,,,,,,,,,,,,,,,,,,,,,,,,,,,,,,,,,,,,,,,,,,,,2,0,2,0,1,,,,,,,,,,,,,,,,,,,,,
,,,,,,,,,,,,5be1c7de91deed00015a97b9,24,Mężczyzna,2022-06-11_09h13.03.713,task,2021.1.4,MacIntel,59.88382538,6299f149e92ead563fba08ef,62a440032acb8d1d2b0e9127,,,,,,,,,,,,,0,,,,,,,,,,Task,8,(1x5) - 5,0,,,,,,,,,,,,,,,,,,,1,,,,,,,,,,,,,,,,,,,,,,,"[""0""]",1,0,0,0,7,1,[1.5446000000000595],,,,,,,,,,,,,,,,,,,,,,,,,,
,,,,,,,,,,,X V Q F H G B L J M P D K C T S W R N Z,5be1c7de91deed00015a97b9,24,Mężczyzna,2022-06-11_09h13.03.713,task,2021.1.4,MacIntel,59.88382538,6299f149e92ead563fba08ef,62a440032acb8d1d2b0e9127,,,,,,,,,,,,,,,,,,,,,,,,,,,,,,,,,,,,,,,,,,,,,,,,,,,,,,,,,,,,,,,,,,,,,,,,,,,,3,0,3,0,1,,,,,,,,,,,,,,,,,,,,,
,,,,,,,,,,,,5be1c7de91deed00015a97b9,24,Mężczyzna,2022-06-11_09h13.03.713,task,2021.1.4,MacIntel,59.88382538,6299f149e92ead563fba08ef,62a440032acb8d1d2b0e9127,,,,,,,,,,,,,,,,,,,,,,,Task,38,(4x6) - 17,7,,,,,,,,,,,,,,,,,,,0,,,,,,,,,,,,,,,,,,,,,,,,0,0,0,0,37,1,,,,,,,,,,,,,,,,,,,,,,,,,,,
,,,,,,,,,,,,5be1c7de91deed00015a97b9,24,Mężczyzna,2022-06-11_09h13.03.713,task,2021.1.4,MacIntel,59.88382538,6299f149e92ead563fba08ef,62a440032acb8d1d2b0e9127,,,,,,,,,,,,,0,,,,,,,,,,Task,33,(1/1) - 1,0,,,,,,,,,,,,,,,,,,,1,,,,,,,,,,,,,,,,,,,,,,,"[""0""]",1,0,1,1,32,1,[1.0837999999999965],,,,,,,,,,,,,,,,,,,,,,,,,,
,,,,,,,,,,,X V Q F H G B L J M P D K C T S W R N Z,5be1c7de91deed00015a97b9,24,Mężczyzna,2022-06-11_09h13.03.713,task,2021.1.4,MacIntel,59.88382538,6299f149e92ead563fba08ef,62a440032acb8d1d2b0e9127,,,,,,,,,,,,,,,,,,,,,,,,,,,,,,,,,,,,,,,,,,,,,,,,,,,,,,,,,,,,,,,,,,,,,,,,,,,,4,0,4,0,1,,,,,,,,,,,,,,,,,,,,,
,,,,,,,,,,,,5be1c7de91deed00015a97b9,24,Mężczyzna,2022-06-11_09h13.03.713,task,2021.1.4,MacIntel,59.88382538,6299f149e92ead563fba08ef,62a440032acb8d1d2b0e9127,,,,,,,,,,,,,1,,,,,,,,,,Task,1,(12/6) - 1,1,,,,,,,,,,,,,,,,,,,1,,,,,,,,,,,,,,,,,,,,,,,"[""1""]",1,0,0,0,0,1,[1.695100000000025],,,,,,,,,,,,,,,,,,,,,,,,,,
,,,,,,,,,,,X V Q F H G B L J M P D K C T S W R N Z,5be1c7de91deed00015a97b9,24,Mężczyzna,2022-06-11_09h13.03.713,task,2021.1.4,MacIntel,59.88382538,6299f149e92ead563fba08ef,62a440032acb8d1d2b0e9127,,,,,,,,,,,,,,,,,,,,,,,,,,,,,,,,,,,,,,,,,,,,,,,,,,,,,,,,,,,,,,,,,,,,,,,,,,,,5,0,5,0,1,,,,,,,,,,,,,,,,,,,,,
,,,,,,,,,,,,5be1c7de91deed00015a97b9,24,Mężczyzna,2022-06-11_09h13.03.713,task,2021.1.4,MacIntel,59.88382538,6299f149e92ead563fba08ef,62a440032acb8d1d2b0e9127,,,,,,,,,,,,,9,,,,,,,,,,Task,16,(3x8) - 15,9,,,,,,,,,,,,,,,,,,,1,,,,,,,,,,,,,,,,,,,,,,,"[""9""]",1,0,0,0,15,1,[3.141999999999939],,,,,,,,,,,,,,,,,,,,,,,,,,
,,,,,,,,,,,X V Q F H G B L J M P D K C T S W R N Z,5be1c7de91deed00015a97b9,24,Mężczyzna,2022-06-11_09h13.03.713,task,2021.1.4,MacIntel,59.88382538,6299f149e92ead563fba08ef,62a440032acb8d1d2b0e9127,,,,,,,,,,,,,,,,,,,,,,,,,,,,,,,,,,,,,,,,,,,,,,,,,,,,,,,,,,,,,,,,,,,,,,,,,,,,6,0,6,0,1,,,,,,,,,,,,,,,,,,,,,
,,,,,,,,,,,,5be1c7de91deed00015a97b9,24,Mężczyzna,2022-06-11_09h13.03.713,task,2021.1.4,MacIntel,59.88382538,6299f149e92ead563fba08ef,62a440032acb8d1d2b0e9127,,,,,,,,,,,,,5,,,,,,,,,,Task,12,(4x4) - 11,5,,,,,,,,,,,,,,,,,,,1,,,,,,,,,,,,,,,,,,,,,,,"[""5""]",1,0,0,0,11,1,[1.733900000000176],,,,,,,,,,,,,,,,,,,,,,,,,,
,,,,,,,,,,,X V Q F H G B L J M P D K C T S W R N Z,5be1c7de91deed00015a97b9,24,Mężczyzna,2022-06-11_09h13.03.713,task,2021.1.4,MacIntel,59.88382538,6299f149e92ead563fba08ef,62a440032acb8d1d2b0e9127,,,,,,,,,,,,,,,,,,,,,,,,,,,,,,,,,,,,,,,,,,,,,,,,,,,,,,,,,,,,,,,,,,,,,,,,,,,,7,0,7,0,1,,,,,,,,,,,,,,,,,,,,,
,,,,,,,,,,,,5be1c7de91deed00015a97b9,24,Mężczyzna,2022-06-11_09h13.03.713,task,2021.1.4,MacIntel,59.88382538,6299f149e92ead563fba08ef,62a440032acb8d1d2b0e9127,,,,,,,,,,,,,1,,,,,,,,,,Task,9,(3x7) - 20,1,,,,,,,,,,,,,,,,,,,1,,,,,,,,,,,,,,,,,,,,,,,"[""1""]",1,0,0,0,8,1,[1.757300000000214],,,,,,,,,,,,,,,,,,,,,,,,,,
,,,,,,,,,,,X V Q F H G B L J M P D K C T S W R N Z,5be1c7de91deed00015a97b9,24,Mężczyzna,2022-06-11_09h13.03.713,task,2021.1.4,MacIntel,59.88382538,6299f149e92ead563fba08ef,62a440032acb8d1d2b0e9127,,,,,,,,,,,,,,,,,,,,,,,,,,,,,,,,,,,,,,,,,,,,,,,,,,,,,,,,,,,,,,,,,,,,,,,,,,,,8,0,8,0,1,,,,,,,,,,,,,,,,,,,,,
,,,,,,,,,,,,5be1c7de91deed00015a97b9,24,Mężczyzna,2022-06-11_09h13.03.713,task,2021.1.4,MacIntel,59.88382538,6299f149e92ead563fba08ef,62a440032acb8d1d2b0e9127,,,,,,,,,,,,,,,,,,,,,,,,,,,,,,,,,,,,,,,,,,,,,,,,,,,,,,,,,,,,,,,,,,,,,,,,,,,,,,,,,qnqftvxb,"[""q"",""n"",""q"",""f"",""t"",""v"",""x"",""b""]",0,"[1.965599999999995,2.309700000000248,2.4694999999999254,2.717400000000225,3.0064000000002125,3.261900000000196,4.261600000000044,4.3513000000000375,4.789600000000064]",0,QNFFMTVXB,8,0,8,0,1,,,,,,,,,,
,,,,,,,,,,,,5be1c7de91deed00015a97b9,24,Mężczyzna,2022-06-11_09h13.03.713,task,2021.1.4,MacIntel,59.88382538,6299f149e92ead563fba08ef,62a440032acb8d1d2b0e9127,,,,,,,,,,,,,2,,,,,,,,,,Task,26,(2x9) - 16,2,,,,,,,,,,,,,,,,,,,1,,,,,,,,,,,,,,,,,,,,,,,"[""2""]",1,0,0,0,25,1,[1.5373999999999342],,,,,,,,,,,,,,,,,,,,,,,,,,
,,,,,,,,,,,X V Q F H G B L J M P D K C T S W R N Z,5be1c7de91deed00015a97b9,24,Mężczyzna,2022-06-11_09h13.03.713,task,2021.1.4,MacIntel,59.88382538,6299f149e92ead563fba08ef,62a440032acb8d1d2b0e9127,,,,,,,,,,,,,,,,,,,,,,,,,,,,,,,,,,,,,,,,,,,,,,,,,,,,,,,,,,,,,,,,,,,,,,,,,,,,0,0,0,0,1,,,,,,,,,,,,,,,,,,,,,
,,,,,,,,,,,,5be1c7de91deed00015a97b9,24,Mężczyzna,2022-06-11_09h13.03.713,task,2021.1.4,MacIntel,59.88382538,6299f149e92ead563fba08ef,62a440032acb8d1d2b0e9127,,,,,,,,,,,,,9,,,,,,,,,,Task,40,(7x2) - 5,9,,,,,,,,,,,,,,,,,,,1,,,,,,,,,,,,,,,,,,,,,,,"[""9""]",1,0,0,0,39,1,[2.155699999999797],,,,,,,,,,,,,,,,,,,,,,,,,,
,,,,,,,,,,,X V Q F H G B L J M P D K C T S W R N Z,5be1c7de91deed00015a97b9,24,Mężczyzna,2022-06-11_09h13.03.713,task,2021.1.4,MacIntel,59.88382538,6299f149e92ead563fba08ef,62a440032acb8d1d2b0e9127,,,,,,,,,,,,,,,,,,,,,,,,,,,,,,,,,,,,,,,,,,,,,,,,,,,,,,,,,,,,,,,,,,,,,,,,,,,,1,0,1,0,1,,,,,,,,,,,,,,,,,,,,,
,,,,,,,,,,,,5be1c7de91deed00015a97b9,24,Mężczyzna,2022-06-11_09h13.03.713,task,2021.1.4,MacIntel,59.88382538,6299f149e92ead563fba08ef,62a440032acb8d1d2b0e9127,,,,,,,,,,,,,3,,,,,,,,,,Task,27,(3/3) + 2,3,,,,,,,,,,,,,,,,,,,1,,,,,,,,,,,,,,,,,,,,,,,"[""3""]",1,0,0,0,26,1,[2.020700000000261],,,,,,,,,,,,,,,,,,,,,,,,,,
,,,,,,,,,,,X V Q F H G B L J M P D K C T S W R N Z,5be1c7de91deed00015a97b9,24,Mężczyzna,2022-06-11_09h13.03.713,task,2021.1.4,MacIntel,59.88382538,6299f149e92ead563fba08ef,62a440032acb8d1d2b0e9127,,,,,,,,,,,,,,,,,,,,,,,,,,,,,,,,,,,,,,,,,,,,,,,,,,,,,,,,,,,,,,,,,,,,,,,,,,,,2,0,2,0,1,,,,,,,,,,,,,,,,,,,,,
,,,,,,,,,,,,5be1c7de91deed00015a97b9,24,Mężczyzna,2022-06-11_09h13.03.713,task,2021.1.4,MacIntel,59.88382538,6299f149e92ead563fba08ef,62a440032acb8d1d2b0e9127,,,,,,,,,,,,,4,,,,,,,,,,Task,11,(18/3) - 2,4,,,,,,,,,,,,,,,,,,,1,,,,,,,,,,,,,,,,,,,,,,,"[""4""]",1,0,0,0,10,1,[2.440599999999904],,,,,,,,,,,,,,,,,,,,,,,,,,
,,,,,,,,,,,X V Q F H G B L J M P D K C T S W R N Z,5be1c7de91deed00015a97b9,24,Mężczyzna,2022-06-11_09h13.03.713,task,2021.1.4,MacIntel,59.88382538,6299f149e92ead563fba08ef,62a440032acb8d1d2b0e9127,,,,,,,,,,,,,,,,,,,,,,,,,,,,,,,,,,,,,,,,,,,,,,,,,,,,,,,,,,,,,,,,,,,,,,,,,,,,3,0,3,0,1,,,,,,,,,,,,,,,,,,,,,
,,,,,,,,,,,,5be1c7de91deed00015a97b9,24,Mężczyzna,2022-06-11_09h13.03.713,task,2021.1.4,MacIntel,59.88382538,6299f149e92ead563fba08ef,62a440032acb8d1d2b0e9127,,,,,,,,,,,,,3,,,,,,,,,,Task,35,(1x2) + 1,3,,,,,,,,,,,,,,,,,,,1,,,,,,,,,,,,,,,,,,,,,,,"[""3""]",1,0,0,0,34,1,[1.931400000000167],,,,,,,,,,,,,,,,,,,,,,,,,,
,,,,,,,,,,,X V Q F H G B L J M P D K C T S W R N Z,5be1c7de91deed00015a97b9,24,Mężczyzna,2022-06-11_09h13.03.713,task,2021.1.4,MacIntel,59.88382538,6299f149e92ead563fba08ef,62a440032acb8d1d2b0e9127,,,,,,,,,,,,,,,,,,,,,,,,,,,,,,,,,,,,,,,,,,,,,,,,,,,,,,,,,,,,,,,,,,,,,,,,,,,,4,0,4,0,1,,,,,,,,,,,,,,,,,,,,,
,,,,,,,,,,,,5be1c7de91deed00015a97b9,24,Mężczyzna,2022-06-11_09h13.03.713,task,2021.1.4,MacIntel,59.88382538,6299f149e92ead563fba08ef,62a440032acb8d1d2b0e9127,,,,,,,,,,,,,7,,,,,,,,,,Task,14,(2x2) + 3,7,,,,,,,,,,,,,,,,,,,1,,,,,,,,,,,,,,,,,,,,,,,"[""7""]",1,0,0,0,13,1,[2.6485999999997603],,,,,,,,,,,,,,,,,,,,,,,,,,
,,,,,,,,,,,X V Q F H G B L J M P D K C T S W R N Z,5be1c7de91deed00015a97b9,24,Mężczyzna,2022-06-11_09h13.03.713,task,2021.1.4,MacIntel,59.88382538,6299f149e92ead563fba08ef,62a440032acb8d1d2b0e9127,,,,,,,,,,,,,,,,,,,,,,,,,,,,,,,,,,,,,,,,,,,,,,,,,,,,,,,,,,,,,,,,,,,,,,,,,,,,5,0,5,0,1,,,,,,,,,,,,,,,,,,,,,
,,,,,,,,,,,,5be1c7de91deed00015a97b9,24,Mężczyzna,2022-06-11_09h13.03.713,task,2021.1.4,MacIntel,59.88382538,6299f149e92ead563fba08ef,62a440032acb8d1d2b0e9127,,,,,,,,,,,,,6,,,,,,,,,,Task,13,(3x4) - 6,6,,,,,,,,,,,,,,,,,,,1,,,,,,,,,,,,,,,,,,,,,,,"[""6""]",1,0,0,0,12,1,[3.504699999999957],,,,,,,,,,,,,,,,,,,,,,,,,,
,,,,,,,,,,,X V Q F H G B L J M P D K C T S W R N Z,5be1c7de91deed00015a97b9,24,Mężczyzna,2022-06-11_09h13.03.713,task,2021.1.4,MacIntel,59.88382538,6299f149e92ead563fba08ef,62a440032acb8d1d2b0e9127,,,,,,,,,,,,,,,,,,,,,,,,,,,,,,,,,,,,,,,,,,,,,,,,,,,,,,,,,,,,,,,,,,,,,,,,,,,,6,0,6,0,1,,,,,,,,,,,,,,,,,,,,,
,,,,,,,,,,,,5be1c7de91deed00015a97b9,24,Mężczyzna,2022-06-11_09h13.03.713,task,2021.1.4,MacIntel,59.88382538,6299f149e92ead563fba08ef,62a440032acb8d1d2b0e9127,,,,,,,,,,,,,8,,,,,,,,,,Task,23,(2x3) + 2,8,,,,,,,,,,,,,,,,,,,1,,,,,,,,,,,,,,,,,,,,,,,"[""8""]",1,0,0,0,22,1,[2.4098999999998796],,,,,,,,,,,,,,,,,,,,,,,,,,
,,,,,,,,,,,X V Q F H G B L J M P D K C T S W R N Z,5be1c7de91deed00015a97b9,24,Mężczyzna,2022-06-11_09h13.03.713,task,2021.1.4,MacIntel,59.88382538,6299f149e92ead563fba08ef,62a440032acb8d1d2b0e9127,,,,,,,,,,,,,,,,,,,,,,,,,,,,,,,,,,,,,,,,,,,,,,,,,,,,,,,,,,,,,,,,,,,,,,,,,,,,7,0,7,0,1,,,,,,,,,,,,,,,,,,,,,
,,,,,,,,,,,,5be1c7de91deed00015a97b9,24,Mężczyzna,2022-06-11_09h13.03.713,task,2021.1.4,MacIntel,59.88382538,6299f149e92ead563fba08ef,62a440032acb8d1d2b0e9127,,,,,,,,,,,,,2,,,,,,,,,,Task,2,(2x2) - 2,2,,,,,,,,,,,,,,,,,,,1,,,,,,,,,,,,,,,,,,,,,,,"[""2""]",1,0,0,0,1,1,[1.941000000000031],,,,,,,,,,,,,,,,,,,,,,,,,,
,,,,,,,,,,,X V Q F H G B L J M P D K C T S W R N Z,5be1c7de91deed00015a97b9,24,Mężczyzna,2022-06-11_09h13.03.713,task,2021.1.4,MacIntel,59.88382538,6299f149e92ead563fba08ef,62a440032acb8d1d2b0e9127,,,,,,,,,,,,,,,,,,,,,,,,,,,,,,,,,,,,,,,,,,,,,,,,,,,,,,,,,,,,,,,,,,,,,,,,,,,,8,0,8,0,1,,,,,,,,,,,,,,,,,,,,,
,,,,,,,,,,,,5be1c7de91deed00015a97b9,24,Mężczyzna,2022-06-11_09h13.03.713,task,2021.1.4,MacIntel,59.88382538,6299f149e92ead563fba08ef,62a440032acb8d1d2b0e9127,,,,,,,,,,,,,,,,,,,,,,,,,,,,,,,,,,,,,,,,,,,,,,,,,,,,,,,,,,,,,,,,,,,,,,,,,,,,,,,,,knclvwhb,"[""k"",""n"",""c"",""l"",""v"",""w"",""h"",""b""]",0,"[1.7050000000001546,1.9045999999998457,2.0322000000001026,2.1755000000000564,2.4710999999999785,3.127899999999954,3.2723000000000866,3.5593999999998687,3.8161999999999807]",0,KNCLVLWHB,9,0,9,0,1,,,,,,,,,,
,,,,,,,,,,,,5be1c7de91deed00015a97b9,24,Mężczyzna,2022-06-11_09h13.03.713,task,2021.1.4,MacIntel,59.88382538,6299f149e92ead563fba08ef,62a440032acb8d1d2b0e9127,,,,,,,,,,,,,,,,,,,,,,,,,,,,,,,,,,,,,,,,,,,,,,,,,,,,,,,,,,,,,,,,,,,,,,,,,,,,,,,,,,,,,,,,,,,,,0,0,0,0,0,1,,,
,,,,,,,,,,,,5be1c7de91deed00015a97b9,24,Mężczyzna,2022-06-11_09h13.03.713,task,2021.1.4,MacIntel,59.88382538,6299f149e92ead563fba08ef,62a440032acb8d1d2b0e9127,,,,,,,,,,,,,,,,,,,,,,,,,,,,,,,,,,,,,,,,,,,,,,,,,,,,,,,,,,,,,,,,,,,,,,,,,,,,,,,,,,,,,,,,,,,,"[""comma""]",0,1,0,1,0,1,[0.48489999999992506],,
,,,,,,,,,,,,5be1c7de91deed00015a97b9,24,Mężczyzna,2022-06-11_09h13.03.713,task,2021.1.4,MacIntel,59.88382538,6299f149e92ead563fba08ef,62a440032acb8d1d2b0e9127,,,,,,,,,,,,,,,,,,,,,,,,,,,,,,,,,,,,,,,,,,,,,,,,,,,,,,,,,,,,,,,,,,,,,,,,,,,,,,,,,,,,,,,,,,,,"[""period""]",0,2,0,2,0,1,[0.2511000000001786],,
,,,,,,,,,,,,5be1c7de91deed00015a97b9,24,Mężczyzna,2022-06-11_09h13.03.713,task,2021.1.4,MacIntel,59.88382538,6299f149e92ead563fba08ef,62a440032acb8d1d2b0e9127,,,,,,,,,,,,,,,,,,,,,,,,,,,,,,,,,,,,,,,,,,,,,,,,,,,,,,,,,,,,,,,,,,,,,,,,,,,,,,,,,,,,,,,,,,,,"[""period""]",0,3,0,3,0,1,[0.364699999999857],,
,,,,,,,,,,,,5be1c7de91deed00015a97b9,24,Mężczyzna,2022-06-11_09h13.03.713,task,2021.1.4,MacIntel,59.88382538,6299f149e92ead563fba08ef,62a440032acb8d1d2b0e9127,,,,,,,,,,,,,,,,,,,,,,,,,,,,,,,,,,,,,,,,,,,,,,,,,,,,,,,,,,,,,,,,,,,,,,,,,,,,,,,,,,,,,,,,,,,,"[""comma""]",0,4,0,4,0,1,[0.24469999999996617],,
,,,,,,,,,,,,5be1c7de91deed00015a97b9,24,Mężczyzna,2022-06-11_09h13.03.713,task,2021.1.4,MacIntel,59.88382538,6299f149e92ead563fba08ef,62a440032acb8d1d2b0e9127,,,,,,,,,,,,,,,,,,,,,,,,,,,,,,,,,,,,,,,,,,,,,,,,,,,,,,,,,,,,,,,,,,,,,,,,,,,,,,,,,,,,,,,,,,,,"[""period""]",0,5,0,5,0,1,[0.3101999999998952],,
,,,,,,,,,,,,5be1c7de91deed00015a97b9,24,Mężczyzna,2022-06-11_09h13.03.713,task,2021.1.4,MacIntel,59.88382538,6299f149e92ead563fba08ef,62a440032acb8d1d2b0e9127,,,,,,,,,,,,,,,,,,,,,,,,,,,,,,,,,,,,,,,,,,,,,,,,,,,,,,,,,,,,,,,,,,,,,,,,,,,,,,,,,,,,,,,,,,,,"[""comma""]",0,6,0,6,0,1,[0.26269999999999527],,
,,,,,,,,,,,,5be1c7de91deed00015a97b9,24,Mężczyzna,2022-06-11_09h13.03.713,task,2021.1.4,MacIntel,59.88382538,6299f149e92ead563fba08ef,62a440032acb8d1d2b0e9127,,,,,,,,,,,,,,,,,,,,,,,,,,,,,,,,,,,,,,,,,,,,,,,,,,,,,,,,,,,,,,,,,,,,,,,,,,,,,,,,,,,,,,,,,,,,"[""comma""]",0,7,0,7,0,1,[0.262599999999793],,
,,,,,,,,,,,,5be1c7de91deed00015a97b9,24,Mężczyzna,2022-06-11_09h13.03.713,task,2021.1.4,MacIntel,59.88382538,6299f149e92ead563fba08ef,62a440032acb8d1d2b0e9127,,,,,,,,,,,,,,,,,,,,,,,,,,,,,,,,,,,,,,,,,,,,,,,,,,,,,,,,,,,,,,,,,,,,,,,,,,,,,,,,,,,,,,,,,,,,"[""period""]",0,8,0,8,0,1,[0.2541999999998552],,
,,,,,,,,,,,,5be1c7de91deed00015a97b9,24,Mężczyzna,2022-06-11_09h13.03.713,task,2021.1.4,MacIntel,59.88382538,6299f149e92ead563fba08ef,62a440032acb8d1d2b0e9127,,,,,,,,,,,,,,,,,,,,,,,,,,,,,,,,,,,,,,,,,,,,,,,,,,,,,,,,,,,,,,,,,,,,,,,,,,,,,,,,,,,,,,,,,,,,"[""period""]",0,9,0,9,0,1,[0.6630999999999858],,
,,,,,,,,,,,,5be1c7de91deed00015a97b9,24,Mężczyzna,2022-06-11_09h13.03.713,task,2021.1.4,MacIntel,59.88382538,6299f149e92ead563fba08ef,62a440032acb8d1d2b0e9127,,,,,,,,,,,,,,,,,,,,,,,,,,,,,,,,,,,,,,,,,,,,,,,,,,,,,,,,,,,,,,,,,,,,,,,,,,,,,,,,,,,,,,,,,,,,"[""comma""]",0,10,0,10,0,1,[0.26339999999981956],,
,,,,,,,,,,,,5be1c7de91deed00015a97b9,24,Mężczyzna,2022-06-11_09h13.03.713,task,2021.1.4,MacIntel,59.88382538,6299f149e92ead563fba08ef,62a440032acb8d1d2b0e9127,,,,,,,,,,,,,,,,,,,,,,,,,,,,,,,,,,,,,,,,,,,,,,,,,,,,,,,,,,,,,,,,,,,,,,,,,,,,,,,,,,,,,,,,,,,,"[""comma""]",0,11,0,11,0,1,[0.21580000000017208],,
,,,,,,,,,,,,5be1c7de91deed00015a97b9,24,Mężczyzna,2022-06-11_09h13.03.713,task,2021.1.4,MacIntel,59.88382538,6299f149e92ead563fba08ef,62a440032acb8d1d2b0e9127,,,,,,,,,,,,,,,,,,,,,,,,,,,,,,,,,,,,,,,,,,,,,,,,,,,,,,,,,,,,,,,,,,,,,,,,,,,,,,,,,,,,,,,,,,,,"[""period""]",0,12,0,12,0,1,[0.24690000000009604],,
,,,,,,,,,,,,5be1c7de91deed00015a97b9,24,Mężczyzna,2022-06-11_09h13.03.713,task,2021.1.4,MacIntel,59.88382538,6299f149e92ead563fba08ef,62a440032acb8d1d2b0e9127,,,,,,,,,,,,,,,,,,,,,,,,,,,,,,,,,,,,,,,,,,,,,,,,,,,,,,,,,,,,,,,,,,,,,,,,,,,,,,,,,,,,,,,,,,,,"[""period""]",0,13,0,13,0,1,[0.31070000000022446],,
,,,,,,,,,,,,5be1c7de91deed00015a97b9,24,Mężczyzna,2022-06-11_09h13.03.713,task,2021.1.4,MacIntel,59.88382538,6299f149e92ead563fba08ef,62a440032acb8d1d2b0e9127,,,,,,,,,,,,,,,,,,,,,,,,,,,,,,,,,,,,,,,,,,,,,,,,,,,,,,,,,,,,,,,,,,,,,,,,,,,,,,,,,,,,,,,,,,,,"[""comma""]",0,14,0,14,0,1,[0.25680000000011205],,
,,,,,,,,,,,,5be1c7de91deed00015a97b9,24,Mężczyzna,2022-06-11_09h13.03.713,task,2021.1.4,MacIntel,59.88382538,6299f149e92ead563fba08ef,62a440032acb8d1d2b0e9127,,,,,,,,,,,,,,,,,,,,,,,,,,,,,,,,,,,,,,,,,,,,,,,,,,,,,,,,,,,,,,,,,,,,,,,,,,,,,,,,,,,,,,,,,,,,"[""comma""]",0,15,0,15,0,1,[0.24859999999989668],,
,,,,,,,,,,,,5be1c7de91deed00015a97b9,24,Mężczyzna,2022-06-11_09h13.03.713,task,2021.1.4,MacIntel,59.88382538,6299f149e92ead563fba08ef,62a440032acb8d1d2b0e9127,,,,,,,,,,,,,,,,,,,,,,,,,,,,,,,,,,,,,,,,,,,,,,,,,,,,,,,,,,,,,,,,,,,,,,,,,,,,,,,,,,,,,,,,,,,,"[""period""]",0,16,0,16,0,1,[0.2256999999999607],,
,,,,,,,,,,,,5be1c7de91deed00015a97b9,24,Mężczyzna,2022-06-11_09h13.03.713,task,2021.1.4,MacIntel,59.88382538,6299f149e92ead563fba08ef,62a440032acb8d1d2b0e9127,,,,,,,,,,,,,,,,,,,,,,,,,,,,,,,,,,,,,,,,,,,,,,,,,,,,,,,,,,,,,,,,,,,,,,,,,,,,,,,,,,,,,,,,,,,,"[""period""]",0,17,0,17,0,1,[0.2018999999997959],,
,,,,,,,,,,,,5be1c7de91deed00015a97b9,24,Mężczyzna,2022-06-11_09h13.03.713,task,2021.1.4,MacIntel,59.88382538,6299f149e92ead563fba08ef,62a440032acb8d1d2b0e9127,,,,,,,,,,,,,,,,,,,,,,,,,,,,,,,,,,,,,,,,,,,,,,,,,,,,,,,,,,,,,,,,,,,,,,,,,,,,,,,,,,,,,,,,,,,,"[""comma""]",0,18,0,18,0,1,[0.2497000000000753],,
,,,,,,,,,,,,5be1c7de91deed00015a97b9,24,Mężczyzna,2022-06-11_09h13.03.713,task,2021.1.4,MacIntel,59.88382538,6299f149e92ead563fba08ef,62a440032acb8d1d2b0e9127,,,,,,,,,,,,,,,,,,,,,,,,,,,,,,,,,,,,,,,,,,,,,,,,,,,,,,,,,,,,,,,,,,,,,,,,,,,,,,,,,,,,,,,,,,,,"[""comma""]",0,19,0,19,0,1,[0.2748999999998887],,
,,,,,,,,,,,,5be1c7de91deed00015a97b9,24,Mężczyzna,2022-06-11_09h13.03.713,task,2021.1.4,MacIntel,59.88382538,6299f149e92ead563fba08ef,62a440032acb8d1d2b0e9127,,,,,,,,,,,,,,,,,,,,,,,,,,,,,,,,,,,,,,,,,,,,,,,,,,,,,,,,,,,,,,,,,,,,,,,,,,,,,,,,,,,,,,,,,,,,"[""period""]",0,20,0,20,0,1,[0.2845999999999549],,
,,,,,,,,,,,,5be1c7de91deed00015a97b9,24,Mężczyzna,2022-06-11_09h13.03.713,task,2021.1.4,MacIntel,59.88382538,6299f149e92ead563fba08ef,62a440032acb8d1d2b0e9127,,,,,,,,,,,,,,,,,,,,,,,,,,,,,,,,,,,,,,,,,,,,,,,,,,,,,,,,,,,,,,,,,,,,,,,,,,,,,,,,,,,,,,,,,,,,"[""period""]",0,21,0,21,0,1,[0.2615000000000691],,
