key_resp_15.keys,key_resp_15.rt,key_resp_13.keys,key_resp_13.corr,key_resp_13.rt,ranodm_loop.thisRepN,ranodm_loop.thisTrialN,ranodm_loop.thisN,ranodm_loop.thisIndex,ranodm_loop.ran,participant,Wiek*,Płeć,date,expName,psychopyVersion,OS,frameRate,study_id,session,key_resp_16.keys,key_resp_16.rt,key_resp_4.keys,key_resp_4.rt,next_letter.thisRepN,next_letter.thisTrialN,next_letter.thisN,next_letter.thisIndex,next_letter.ran,letter,simple_recall,key_resp_5.keys,key_resp_5.rt,simple_recall_corr,simple_recall_corrkeys,next_level.thisRepN,next_level.thisTrialN,next_level.thisN,next_level.thisIndex,next_level.ran,key_resp_2.keys,key_resp_2.rt,digit_answer,key_resp.keys,key_resp.corr,key_resp.rt,RT_list,next_equation.thisRepN,next_equation.thisTrialN,next_equation.thisN,next_equation.thisIndex,next_equation.ran,Task,Trial,Problem,Operation_answer,processing_score,sumRT,meanRT,sumdiff,sd,RT,key_resp_3.keys,key_resp_3.rt,repeat_practice.thisRepN,repeat_practice.thisTrialN,repeat_practice.thisN,repeat_practice.thisIndex,repeat_practice.ran,key_resp_6.keys,key_resp_6.rt,key_resp_11.keys,key_resp_11.corr,key_resp_11.rt,operation_correct,repeat_if_wrong_prac.thisRepN,repeat_if_wrong_prac.thisTrialN,repeat_if_wrong_prac.thisN,repeat_if_wrong_prac.thisIndex,repeat_if_wrong_prac.ran,span_size_prac.thisRepN,span_size_prac.thisTrialN,span_size_prac.thisN,span_size_prac.thisIndex,span_size_prac.ran,complex_recall_practice,key_resp_9.keys,key_resp_9.corr,key_resp_9.rt,complex_prac_corr,span_recall_prac.thisRepN,span_recall_prac.thisTrialN,span_recall_prac.thisN,span_recall_prac.thisIndex,span_recall_prac.ran,key_resp_10.keys,key_resp_10.rt,key_resp_7.keys,key_resp_7.corr,key_resp_7.rt,repeat_if_wrong.thisRepN,repeat_if_wrong.thisTrialN,repeat_if_wrong.thisN,repeat_if_wrong.thisIndex,repeat_if_wrong.ran,span_size.thisRepN,span_size.thisTrialN,span_size.thisN,span_size.thisIndex,span_size.ran,complex_recall,key_resp_8.keys,key_resp_8.corr,key_resp_8.rt,complex_recall_corr,complex_recall_corrkeys,span_recall.thisRepN,span_recall.thisTrialN,span_recall.thisN,span_recall.thisIndex,span_recall.ran,key_resp_12.keys,key_resp_12.rt
space,19.4496,"[""comma""]",0,[0.48449999999999704],0,0,0,0,1,5bf801e3361a9b00012654c5,22,Kobieta,2022-06-04_08h09.29.155,task,2021.1.4,Win32,59.99520038,628b806c463b948bc644b84f,629af70210943b7ad7ebc746,,,,,,,,,,,,,,,,,,,,,,,,,,,,,,,,,,,,,,,,,,,,,,,,,,,,,,,,,,,,,,,,,,,,,,,,,,,,,,,,,,,,,,,,,,,,,,,,,,,,,,,
,,"[""comma""]",0,[0.5593000000119162],1,0,1,0,1,5bf801e3361a9b00012654c5,22,Kobieta,2022-06-04_08h09.29.155,task,2021.1.4,Win32,59.99520038,628b806c463b948bc644b84f,629af70210943b7ad7ebc746,,,,,,,,,,,,,,,,,,,,,,,,,,,,,,,,,,,,,,,,,,,,,,,,,,,,,,,,,,,,,,,,,,,,,,,,,,,,,,,,,,,,,,,,,,,,,,,,,,,,,,,
,,"[""comma""]",0,[0.5371000000238411],2,0,2,0,1,5bf801e3361a9b00012654c5,22,Kobieta,2022-06-04_08h09.29.155,task,2021.1.4,Win32,59.99520038,628b806c463b948bc644b84f,629af70210943b7ad7ebc746,,,,,,,,,,,,,,,,,,,,,,,,,,,,,,,,,,,,,,,,,,,,,,,,,,,,,,,,,,,,,,,,,,,,,,,,,,,,,,,,,,,,,,,,,,,,,,,,,,,,,,,
,,"[""period""]",0,[0.26940000003575904],3,0,3,0,1,5bf801e3361a9b00012654c5,22,Kobieta,2022-06-04_08h09.29.155,task,2021.1.4,Win32,59.99520038,628b806c463b948bc644b84f,629af70210943b7ad7ebc746,,,,,,,,,,,,,,,,,,,,,,,,,,,,,,,,,,,,,,,,,,,,,,,,,,,,,,,,,,,,,,,,,,,,,,,,,,,,,,,,,,,,,,,,,,,,,,,,,,,,,,,
,,"[""period""]",0,[0.3347999999523097],4,0,4,0,1,5bf801e3361a9b00012654c5,22,Kobieta,2022-06-04_08h09.29.155,task,2021.1.4,Win32,59.99520038,628b806c463b948bc644b84f,629af70210943b7ad7ebc746,,,,,,,,,,,,,,,,,,,,,,,,,,,,,,,,,,,,,,,,,,,,,,,,,,,,,,,,,,,,,,,,,,,,,,,,,,,,,,,,,,,,,,,,,,,,,,,,,,,,,,,
,,"[""comma""]",0,[0.3539000000357646],5,0,5,0,1,5bf801e3361a9b00012654c5,22,Kobieta,2022-06-04_08h09.29.155,task,2021.1.4,Win32,59.99520038,628b806c463b948bc644b84f,629af70210943b7ad7ebc746,,,,,,,,,,,,,,,,,,,,,,,,,,,,,,,,,,,,,,,,,,,,,,,,,,,,,,,,,,,,,,,,,,,,,,,,,,,,,,,,,,,,,,,,,,,,,,,,,,,,,,,
,,"[""period""]",0,[0.7058000000119193],6,0,6,0,1,5bf801e3361a9b00012654c5,22,Kobieta,2022-06-04_08h09.29.155,task,2021.1.4,Win32,59.99520038,628b806c463b948bc644b84f,629af70210943b7ad7ebc746,,,,,,,,,,,,,,,,,,,,,,,,,,,,,,,,,,,,,,,,,,,,,,,,,,,,,,,,,,,,,,,,,,,,,,,,,,,,,,,,,,,,,,,,,,,,,,,,,,,,,,,
,,"[""comma""]",0,[0.45009999996423744],7,0,7,0,1,5bf801e3361a9b00012654c5,22,Kobieta,2022-06-04_08h09.29.155,task,2021.1.4,Win32,59.99520038,628b806c463b948bc644b84f,629af70210943b7ad7ebc746,,,,,,,,,,,,,,,,,,,,,,,,,,,,,,,,,,,,,,,,,,,,,,,,,,,,,,,,,,,,,,,,,,,,,,,,,,,,,,,,,,,,,,,,,,,,,,,,,,,,,,,
,,"[""period""]",0,[0.7751999999880752],8,0,8,0,1,5bf801e3361a9b00012654c5,22,Kobieta,2022-06-04_08h09.29.155,task,2021.1.4,Win32,59.99520038,628b806c463b948bc644b84f,629af70210943b7ad7ebc746,,,,,,,,,,,,,,,,,,,,,,,,,,,,,,,,,,,,,,,,,,,,,,,,,,,,,,,,,,,,,,,,,,,,,,,,,,,,,,,,,,,,,,,,,,,,,,,,,,,,,,,
,,"[""period""]",0,[0.2681000000238498],9,0,9,0,1,5bf801e3361a9b00012654c5,22,Kobieta,2022-06-04_08h09.29.155,task,2021.1.4,Win32,59.99520038,628b806c463b948bc644b84f,629af70210943b7ad7ebc746,,,,,,,,,,,,,,,,,,,,,,,,,,,,,,,,,,,,,,,,,,,,,,,,,,,,,,,,,,,,,,,,,,,,,,,,,,,,,,,,,,,,,,,,,,,,,,,,,,,,,,,
,,"[""period""]",0,[0.16789999997615723],10,0,10,0,1,5bf801e3361a9b00012654c5,22,Kobieta,2022-06-04_08h09.29.155,task,2021.1.4,Win32,59.99520038,628b806c463b948bc644b84f,629af70210943b7ad7ebc746,,,,,,,,,,,,,,,,,,,,,,,,,,,,,,,,,,,,,,,,,,,,,,,,,,,,,,,,,,,,,,,,,,,,,,,,,,,,,,,,,,,,,,,,,,,,,,,,,,,,,,,
,,"[""comma""]",0,[0.007100000023839925],11,0,11,0,1,5bf801e3361a9b00012654c5,22,Kobieta,2022-06-04_08h09.29.155,task,2021.1.4,Win32,59.99520038,628b806c463b948bc644b84f,629af70210943b7ad7ebc746,,,,,,,,,,,,,,,,,,,,,,,,,,,,,,,,,,,,,,,,,,,,,,,,,,,,,,,,,,,,,,,,,,,,,,,,,,,,,,,,,,,,,,,,,,,,,,,,,,,,,,,
,,"[""comma""]",0,[0.367999999999995],12,0,12,0,1,5bf801e3361a9b00012654c5,22,Kobieta,2022-06-04_08h09.29.155,task,2021.1.4,Win32,59.99520038,628b806c463b948bc644b84f,629af70210943b7ad7ebc746,,,,,,,,,,,,,,,,,,,,,,,,,,,,,,,,,,,,,,,,,,,,,,,,,,,,,,,,,,,,,,,,,,,,,,,,,,,,,,,,,,,,,,,,,,,,,,,,,,,,,,,
,,"[""comma""]",0,[0.35249999999999204],13,0,13,0,1,5bf801e3361a9b00012654c5,22,Kobieta,2022-06-04_08h09.29.155,task,2021.1.4,Win32,59.99520038,628b806c463b948bc644b84f,629af70210943b7ad7ebc746,,,,,,,,,,,,,,,,,,,,,,,,,,,,,,,,,,,,,,,,,,,,,,,,,,,,,,,,,,,,,,,,,,,,,,,,,,,,,,,,,,,,,,,,,,,,,,,,,,,,,,,
,,"[""period""]",0,[0.0011000000238396979],14,0,14,0,1,5bf801e3361a9b00012654c5,22,Kobieta,2022-06-04_08h09.29.155,task,2021.1.4,Win32,59.99520038,628b806c463b948bc644b84f,629af70210943b7ad7ebc746,,,,,,,,,,,,,,,,,,,,,,,,,,,,,,,,,,,,,,,,,,,,,,,,,,,,,,,,,,,,,,,,,,,,,,,,,,,,,,,,,,,,,,,,,,,,,,,,,,,,,,,
,,"[""period""]",0,[0.2518000000119116],15,0,15,0,1,5bf801e3361a9b00012654c5,22,Kobieta,2022-06-04_08h09.29.155,task,2021.1.4,Win32,59.99520038,628b806c463b948bc644b84f,629af70210943b7ad7ebc746,,,,,,,,,,,,,,,,,,,,,,,,,,,,,,,,,,,,,,,,,,,,,,,,,,,,,,,,,,,,,,,,,,,,,,,,,,,,,,,,,,,,,,,,,,,,,,,,,,,,,,,
,,"[""comma"",""period""]",0,"[0.3230000000000075,1.8912999999523237]",16,0,16,0,1,5bf801e3361a9b00012654c5,22,Kobieta,2022-06-04_08h09.29.155,task,2021.1.4,Win32,59.99520038,628b806c463b948bc644b84f,629af70210943b7ad7ebc746,,,,,,,,,,,,,,,,,,,,,,,,,,,,,,,,,,,,,,,,,,,,,,,,,,,,,,,,,,,,,,,,,,,,,,,,,,,,,,,,,,,,,,,,,,,,,,,,,,,,,,,
,,"[""period""]",0,[0.7246999999880757],17,0,17,0,1,5bf801e3361a9b00012654c5,22,Kobieta,2022-06-04_08h09.29.155,task,2021.1.4,Win32,59.99520038,628b806c463b948bc644b84f,629af70210943b7ad7ebc746,,,,,,,,,,,,,,,,,,,,,,,,,,,,,,,,,,,,,,,,,,,,,,,,,,,,,,,,,,,,,,,,,,,,,,,,,,,,,,,,,,,,,,,,,,,,,,,,,,,,,,,
,,"[""comma""]",0,[0.34120000004767803],18,0,18,0,1,5bf801e3361a9b00012654c5,22,Kobieta,2022-06-04_08h09.29.155,task,2021.1.4,Win32,59.99520038,628b806c463b948bc644b84f,629af70210943b7ad7ebc746,,,,,,,,,,,,,,,,,,,,,,,,,,,,,,,,,,,,,,,,,,,,,,,,,,,,,,,,,,,,,,,,,,,,,,,,,,,,,,,,,,,,,,,,,,,,,,,,,,,,,,,
,,"[""comma""]",0,[0.7045999999642305],19,0,19,0,1,5bf801e3361a9b00012654c5,22,Kobieta,2022-06-04_08h09.29.155,task,2021.1.4,Win32,59.99520038,628b806c463b948bc644b84f,629af70210943b7ad7ebc746,,,,,,,,,,,,,,,,,,,,,,,,,,,,,,,,,,,,,,,,,,,,,,,,,,,,,,,,,,,,,,,,,,,,,,,,,,,,,,,,,,,,,,,,,,,,,,,,,,,,,,,
,,"[""period""]",0,[0.29659999996424347],20,0,20,0,1,5bf801e3361a9b00012654c5,22,Kobieta,2022-06-04_08h09.29.155,task,2021.1.4,Win32,59.99520038,628b806c463b948bc644b84f,629af70210943b7ad7ebc746,,,,,,,,,,,,,,,,,,,,,,,,,,,,,,,,,,,,,,,,,,,,,,,,,,,,,,,,,,,,,,,,,,,,,,,,,,,,,,,,,,,,,,,,,,,,,,,,,,,,,,,
,,"[""period"",""comma""]",0,"[0.03470000004767826,1.568200000047682]",21,0,21,0,1,5bf801e3361a9b00012654c5,22,Kobieta,2022-06-04_08h09.29.155,task,2021.1.4,Win32,59.99520038,628b806c463b948bc644b84f,629af70210943b7ad7ebc746,,,,,,,,,,,,,,,,,,,,,,,,,,,,,,,,,,,,,,,,,,,,,,,,,,,,,,,,,,,,,,,,,,,,,,,,,,,,,,,,,,,,,,,,,,,,,,,,,,,,,,,
,,"[""comma""]",0,[1.9509000000357588],22,0,22,0,1,5bf801e3361a9b00012654c5,22,Kobieta,2022-06-04_08h09.29.155,task,2021.1.4,Win32,59.99520038,628b806c463b948bc644b84f,629af70210943b7ad7ebc746,,,,,,,,,,,,,,,,,,,,,,,,,,,,,,,,,,,,,,,,,,,,,,,,,,,,,,,,,,,,,,,,,,,,,,,,,,,,,,,,,,,,,,,,,,,,,,,,,,,,,,,
,,,0,,23,0,23,0,1,5bf801e3361a9b00012654c5,22,Kobieta,2022-06-04_08h09.29.155,task,2021.1.4,Win32,59.99520038,628b806c463b948bc644b84f,629af70210943b7ad7ebc746,,,,,,,,,,,,,,,,,,,,,,,,,,,,,,,,,,,,,,,,,,,,,,,,,,,,,,,,,,,,,,,,,,,,,,,,,,,,,,,,,,,,,,,,,,,,,,,,,,,,,,,
,,"[""period""]",0,[0.23510000002384857],24,0,24,0,1,5bf801e3361a9b00012654c5,22,Kobieta,2022-06-04_08h09.29.155,task,2021.1.4,Win32,59.99520038,628b806c463b948bc644b84f,629af70210943b7ad7ebc746,,,,,,,,,,,,,,,,,,,,,,,,,,,,,,,,,,,,,,,,,,,,,,,,,,,,,,,,,,,,,,,,,,,,,,,,,,,,,,,,,,,,,,,,,,,,,,,,,,,,,,,
,,"[""comma""]",0,[0.5110000000000099],25,0,25,0,1,5bf801e3361a9b00012654c5,22,Kobieta,2022-06-04_08h09.29.155,task,2021.1.4,Win32,59.99520038,628b806c463b948bc644b84f,629af70210943b7ad7ebc746,,,,,,,,,,,,,,,,,,,,,,,,,,,,,,,,,,,,,,,,,,,,,,,,,,,,,,,,,,,,,,,,,,,,,,,,,,,,,,,,,,,,,,,,,,,,,,,,,,,,,,,
,,"[""period""]",0,[0.30119999998805724],26,0,26,0,1,5bf801e3361a9b00012654c5,22,Kobieta,2022-06-04_08h09.29.155,task,2021.1.4,Win32,59.99520038,628b806c463b948bc644b84f,629af70210943b7ad7ebc746,,,,,,,,,,,,,,,,,,,,,,,,,,,,,,,,,,,,,,,,,,,,,,,,,,,,,,,,,,,,,,,,,,,,,,,,,,,,,,,,,,,,,,,,,,,,,,,,,,,,,,,
,,"[""period"",""period""]",0,"[0.5883999999761613,0.8180999999642324]",27,0,27,0,1,5bf801e3361a9b00012654c5,22,Kobieta,2022-06-04_08h09.29.155,task,2021.1.4,Win32,59.99520038,628b806c463b948bc644b84f,629af70210943b7ad7ebc746,,,,,,,,,,,,,,,,,,,,,,,,,,,,,,,,,,,,,,,,,,,,,,,,,,,,,,,,,,,,,,,,,,,,,,,,,,,,,,,,,,,,,,,,,,,,,,,,,,,,,,,
,,"[""comma""]",0,[0.3919999999999959],28,0,28,0,1,5bf801e3361a9b00012654c5,22,Kobieta,2022-06-04_08h09.29.155,task,2021.1.4,Win32,59.99520038,628b806c463b948bc644b84f,629af70210943b7ad7ebc746,,,,,,,,,,,,,,,,,,,,,,,,,,,,,,,,,,,,,,,,,,,,,,,,,,,,,,,,,,,,,,,,,,,,,,,,,,,,,,,,,,,,,,,,,,,,,,,,,,,,,,,
,,"[""comma""]",0,[0.3048000000119373],29,0,29,0,1,5bf801e3361a9b00012654c5,22,Kobieta,2022-06-04_08h09.29.155,task,2021.1.4,Win32,59.99520038,628b806c463b948bc644b84f,629af70210943b7ad7ebc746,,,,,,,,,,,,,,,,,,,,,,,,,,,,,,,,,,,,,,,,,,,,,,,,,,,,,,,,,,,,,,,,,,,,,,,,,,,,,,,,,,,,,,,,,,,,,,,,,,,,,,,
,,"[""comma"",""period""]",0,"[0.41789999997615723,1.8183000000119023]",30,0,30,0,1,5bf801e3361a9b00012654c5,22,Kobieta,2022-06-04_08h09.29.155,task,2021.1.4,Win32,59.99520038,628b806c463b948bc644b84f,629af70210943b7ad7ebc746,,,,,,,,,,,,,,,,,,,,,,,,,,,,,,,,,,,,,,,,,,,,,,,,,,,,,,,,,,,,,,,,,,,,,,,,,,,,,,,,,,,,,,,,,,,,,,,,,,,,,,,
,,,0,,31,0,31,0,1,5bf801e3361a9b00012654c5,22,Kobieta,2022-06-04_08h09.29.155,task,2021.1.4,Win32,59.99520038,628b806c463b948bc644b84f,629af70210943b7ad7ebc746,,,,,,,,,,,,,,,,,,,,,,,,,,,,,,,,,,,,,,,,,,,,,,,,,,,,,,,,,,,,,,,,,,,,,,,,,,,,,,,,,,,,,,,,,,,,,,,,,,,,,,,
,,"[""period""]",0,[0.2898000000118941],32,0,32,0,1,5bf801e3361a9b00012654c5,22,Kobieta,2022-06-04_08h09.29.155,task,2021.1.4,Win32,59.99520038,628b806c463b948bc644b84f,629af70210943b7ad7ebc746,,,,,,,,,,,,,,,,,,,,,,,,,,,,,,,,,,,,,,,,,,,,,,,,,,,,,,,,,,,,,,,,,,,,,,,,,,,,,,,,,,,,,,,,,,,,,,,,,,,,,,,
,,"[""comma""]",0,[0.5048000000119259],33,0,33,0,1,5bf801e3361a9b00012654c5,22,Kobieta,2022-06-04_08h09.29.155,task,2021.1.4,Win32,59.99520038,628b806c463b948bc644b84f,629af70210943b7ad7ebc746,,,,,,,,,,,,,,,,,,,,,,,,,,,,,,,,,,,,,,,,,,,,,,,,,,,,,,,,,,,,,,,,,,,,,,,,,,,,,,,,,,,,,,,,,,,,,,,,,,,,,,,
,,"[""period""]",0,[0.42369999998808794],34,0,34,0,1,5bf801e3361a9b00012654c5,22,Kobieta,2022-06-04_08h09.29.155,task,2021.1.4,Win32,59.99520038,628b806c463b948bc644b84f,629af70210943b7ad7ebc746,,,,,,,,,,,,,,,,,,,,,,,,,,,,,,,,,,,,,,,,,,,,,,,,,,,,,,,,,,,,,,,,,,,,,,,,,,,,,,,,,,,,,,,,,,,,,,,,,,,,,,,
,,"[""comma""]",0,[0.7180999999642381],35,0,35,0,1,5bf801e3361a9b00012654c5,22,Kobieta,2022-06-04_08h09.29.155,task,2021.1.4,Win32,59.99520038,628b806c463b948bc644b84f,629af70210943b7ad7ebc746,,,,,,,,,,,,,,,,,,,,,,,,,,,,,,,,,,,,,,,,,,,,,,,,,,,,,,,,,,,,,,,,,,,,,,,,,,,,,,,,,,,,,,,,,,,,,,,,,,,,,,,
,,"[""period""]",0,[0.5358000000119034],36,0,36,0,1,5bf801e3361a9b00012654c5,22,Kobieta,2022-06-04_08h09.29.155,task,2021.1.4,Win32,59.99520038,628b806c463b948bc644b84f,629af70210943b7ad7ebc746,,,,,,,,,,,,,,,,,,,,,,,,,,,,,,,,,,,,,,,,,,,,,,,,,,,,,,,,,,,,,,,,,,,,,,,,,,,,,,,,,,,,,,,,,,,,,,,,,,,,,,,
,,"[""comma""]",0,[0.3714999999999975],37,0,37,0,1,5bf801e3361a9b00012654c5,22,Kobieta,2022-06-04_08h09.29.155,task,2021.1.4,Win32,59.99520038,628b806c463b948bc644b84f,629af70210943b7ad7ebc746,,,,,,,,,,,,,,,,,,,,,,,,,,,,,,,,,,,,,,,,,,,,,,,,,,,,,,,,,,,,,,,,,,,,,,,,,,,,,,,,,,,,,,,,,,,,,,,,,,,,,,,
,,"[""comma""]",0,[0.605200000047688],38,0,38,0,1,5bf801e3361a9b00012654c5,22,Kobieta,2022-06-04_08h09.29.155,task,2021.1.4,Win32,59.99520038,628b806c463b948bc644b84f,629af70210943b7ad7ebc746,,,,,,,,,,,,,,,,,,,,,,,,,,,,,,,,,,,,,,,,,,,,,,,,,,,,,,,,,,,,,,,,,,,,,,,,,,,,,,,,,,,,,,,,,,,,,,,,,,,,,,,
,,"[""comma""]",0,[0.9523000000119168],39,0,39,0,1,5bf801e3361a9b00012654c5,22,Kobieta,2022-06-04_08h09.29.155,task,2021.1.4,Win32,59.99520038,628b806c463b948bc644b84f,629af70210943b7ad7ebc746,,,,,,,,,,,,,,,,,,,,,,,,,,,,,,,,,,,,,,,,,,,,,,,,,,,,,,,,,,,,,,,,,,,,,,,,,,,,,,,,,,,,,,,,,,,,,,,,,,,,,,,
,,"[""period""]",0,[0.5734999999999957],40,0,40,0,1,5bf801e3361a9b00012654c5,22,Kobieta,2022-06-04_08h09.29.155,task,2021.1.4,Win32,59.99520038,628b806c463b948bc644b84f,629af70210943b7ad7ebc746,,,,,,,,,,,,,,,,,,,,,,,,,,,,,,,,,,,,,,,,,,,,,,,,,,,,,,,,,,,,,,,,,,,,,,,,,,,,,,,,,,,,,,,,,,,,,,,,,,,,,,,
,,"[""comma""]",0,[0.9546999999880939],41,0,41,0,1,5bf801e3361a9b00012654c5,22,Kobieta,2022-06-04_08h09.29.155,task,2021.1.4,Win32,59.99520038,628b806c463b948bc644b84f,629af70210943b7ad7ebc746,,,,,,,,,,,,,,,,,,,,,,,,,,,,,,,,,,,,,,,,,,,,,,,,,,,,,,,,,,,,,,,,,,,,,,,,,,,,,,,,,,,,,,,,,,,,,,,,,,,,,,,
,,"[""period""]",0,[0.8515999999642361],42,0,42,0,1,5bf801e3361a9b00012654c5,22,Kobieta,2022-06-04_08h09.29.155,task,2021.1.4,Win32,59.99520038,628b806c463b948bc644b84f,629af70210943b7ad7ebc746,,,,,,,,,,,,,,,,,,,,,,,,,,,,,,,,,,,,,,,,,,,,,,,,,,,,,,,,,,,,,,,,,,,,,,,,,,,,,,,,,,,,,,,,,,,,,,,,,,,,,,,
,,"[""comma""]",0,[0.42269999998808316],43,0,43,0,1,5bf801e3361a9b00012654c5,22,Kobieta,2022-06-04_08h09.29.155,task,2021.1.4,Win32,59.99520038,628b806c463b948bc644b84f,629af70210943b7ad7ebc746,,,,,,,,,,,,,,,,,,,,,,,,,,,,,,,,,,,,,,,,,,,,,,,,,,,,,,,,,,,,,,,,,,,,,,,,,,,,,,,,,,,,,,,,,,,,,,,,,,,,,,,
,,"[""comma"",""period""]",0,"[0.3411999999880777,1.6199000000357557]",44,0,44,0,1,5bf801e3361a9b00012654c5,22,Kobieta,2022-06-04_08h09.29.155,task,2021.1.4,Win32,59.99520038,628b806c463b948bc644b84f,629af70210943b7ad7ebc746,,,,,,,,,,,,,,,,,,,,,,,,,,,,,,,,,,,,,,,,,,,,,,,,,,,,,,,,,,,,,,,,,,,,,,,,,,,,,,,,,,,,,,,,,,,,,,,,,,,,,,,
,,"[""comma""]",0,[0.9568999999761729],45,0,45,0,1,5bf801e3361a9b00012654c5,22,Kobieta,2022-06-04_08h09.29.155,task,2021.1.4,Win32,59.99520038,628b806c463b948bc644b84f,629af70210943b7ad7ebc746,,,,,,,,,,,,,,,,,,,,,,,,,,,,,,,,,,,,,,,,,,,,,,,,,,,,,,,,,,,,,,,,,,,,,,,,,,,,,,,,,,,,,,,,,,,,,,,,,,,,,,,
,,"[""comma""]",0,[0.4346999999880836],46,0,46,0,1,5bf801e3361a9b00012654c5,22,Kobieta,2022-06-04_08h09.29.155,task,2021.1.4,Win32,59.99520038,628b806c463b948bc644b84f,629af70210943b7ad7ebc746,,,,,,,,,,,,,,,,,,,,,,,,,,,,,,,,,,,,,,,,,,,,,,,,,,,,,,,,,,,,,,,,,,,,,,,,,,,,,,,,,,,,,,,,,,,,,,,,,,,,,,,
,,"[""period""]",0,[0.3891999999880795],47,0,47,0,1,5bf801e3361a9b00012654c5,22,Kobieta,2022-06-04_08h09.29.155,task,2021.1.4,Win32,59.99520038,628b806c463b948bc644b84f,629af70210943b7ad7ebc746,,,,,,,,,,,,,,,,,,,,,,,,,,,,,,,,,,,,,,,,,,,,,,,,,,,,,,,,,,,,,,,,,,,,,,,,,,,,,,,,,,,,,,,,,,,,,,,,,,,,,,,
,,"[""period""]",0,[0.3558000000118966],48,0,48,0,1,5bf801e3361a9b00012654c5,22,Kobieta,2022-06-04_08h09.29.155,task,2021.1.4,Win32,59.99520038,628b806c463b948bc644b84f,629af70210943b7ad7ebc746,,,,,,,,,,,,,,,,,,,,,,,,,,,,,,,,,,,,,,,,,,,,,,,,,,,,,,,,,,,,,,,,,,,,,,,,,,,,,,,,,,,,,,,,,,,,,,,,,,,,,,,
,,"[""comma""]",0,[0.42619999998808566],49,0,49,0,1,5bf801e3361a9b00012654c5,22,Kobieta,2022-06-04_08h09.29.155,task,2021.1.4,Win32,59.99520038,628b806c463b948bc644b84f,629af70210943b7ad7ebc746,,,,,,,,,,,,,,,,,,,,,,,,,,,,,,,,,,,,,,,,,,,,,,,,,,,,,,,,,,,,,,,,,,,,,,,,,,,,,,,,,,,,,,,,,,,,,,,,,,,,,,,
,,"[""period""]",0,[0.09450000000001069],50,0,50,0,1,5bf801e3361a9b00012654c5,22,Kobieta,2022-06-04_08h09.29.155,task,2021.1.4,Win32,59.99520038,628b806c463b948bc644b84f,629af70210943b7ad7ebc746,,,,,,,,,,,,,,,,,,,,,,,,,,,,,,,,,,,,,,,,,,,,,,,,,,,,,,,,,,,,,,,,,,,,,,,,,,,,,,,,,,,,,,,,,,,,,,,,,,,,,,,
,,"[""comma""]",0,[0.24030000001192775],51,0,51,0,1,5bf801e3361a9b00012654c5,22,Kobieta,2022-06-04_08h09.29.155,task,2021.1.4,Win32,59.99520038,628b806c463b948bc644b84f,629af70210943b7ad7ebc746,,,,,,,,,,,,,,,,,,,,,,,,,,,,,,,,,,,,,,,,,,,,,,,,,,,,,,,,,,,,,,,,,,,,,,,,,,,,,,,,,,,,,,,,,,,,,,,,,,,,,,,
,,"[""period""]",0,[0.4013000000119007],52,0,52,0,1,5bf801e3361a9b00012654c5,22,Kobieta,2022-06-04_08h09.29.155,task,2021.1.4,Win32,59.99520038,628b806c463b948bc644b84f,629af70210943b7ad7ebc746,,,,,,,,,,,,,,,,,,,,,,,,,,,,,,,,,,,,,,,,,,,,,,,,,,,,,,,,,,,,,,,,,,,,,,,,,,,,,,,,,,,,,,,,,,,,,,,,,,,,,,,
,,"[""period""]",0,[0.069500000000005],53,0,53,0,1,5bf801e3361a9b00012654c5,22,Kobieta,2022-06-04_08h09.29.155,task,2021.1.4,Win32,59.99520038,628b806c463b948bc644b84f,629af70210943b7ad7ebc746,,,,,,,,,,,,,,,,,,,,,,,,,,,,,,,,,,,,,,,,,,,,,,,,,,,,,,,,,,,,,,,,,,,,,,,,,,,,,,,,,,,,,,,,,,,,,,,,,,,,,,,
,,"[""comma""]",0,[0.017599999964261315],54,0,54,0,1,5bf801e3361a9b00012654c5,22,Kobieta,2022-06-04_08h09.29.155,task,2021.1.4,Win32,59.99520038,628b806c463b948bc644b84f,629af70210943b7ad7ebc746,,,,,,,,,,,,,,,,,,,,,,,,,,,,,,,,,,,,,,,,,,,,,,,,,,,,,,,,,,,,,,,,,,,,,,,,,,,,,,,,,,,,,,,,,,,,,,,,,,,,,,,
,,"[""period""]",0,[0.31049999999999045],55,0,55,0,1,5bf801e3361a9b00012654c5,22,Kobieta,2022-06-04_08h09.29.155,task,2021.1.4,Win32,59.99520038,628b806c463b948bc644b84f,629af70210943b7ad7ebc746,,,,,,,,,,,,,,,,,,,,,,,,,,,,,,,,,,,,,,,,,,,,,,,,,,,,,,,,,,,,,,,,,,,,,,,,,,,,,,,,,,,,,,,,,,,,,,,,,,,,,,,
,,"[""comma""]",0,[0.5847999999523097],56,0,56,0,1,5bf801e3361a9b00012654c5,22,Kobieta,2022-06-04_08h09.29.155,task,2021.1.4,Win32,59.99520038,628b806c463b948bc644b84f,629af70210943b7ad7ebc746,,,,,,,,,,,,,,,,,,,,,,,,,,,,,,,,,,,,,,,,,,,,,,,,,,,,,,,,,,,,,,,,,,,,,,,,,,,,,,,,,,,,,,,,,,,,,,,,,,,,,,,
,,"[""comma""]",0,[0.7678999999761515],57,0,57,0,1,5bf801e3361a9b00012654c5,22,Kobieta,2022-06-04_08h09.29.155,task,2021.1.4,Win32,59.99520038,628b806c463b948bc644b84f,629af70210943b7ad7ebc746,,,,,,,,,,,,,,,,,,,,,,,,,,,,,,,,,,,,,,,,,,,,,,,,,,,,,,,,,,,,,,,,,,,,,,,,,,,,,,,,,,,,,,,,,,,,,,,,,,,,,,,
,,"[""comma""]",0,[0.44249999999999545],58,0,58,0,1,5bf801e3361a9b00012654c5,22,Kobieta,2022-06-04_08h09.29.155,task,2021.1.4,Win32,59.99520038,628b806c463b948bc644b84f,629af70210943b7ad7ebc746,,,,,,,,,,,,,,,,,,,,,,,,,,,,,,,,,,,,,,,,,,,,,,,,,,,,,,,,,,,,,,,,,,,,,,,,,,,,,,,,,,,,,,,,,,,,,,,,,,,,,,,
,,"[""period""]",0,[0.28489999997614746],59,0,59,0,1,5bf801e3361a9b00012654c5,22,Kobieta,2022-06-04_08h09.29.155,task,2021.1.4,Win32,59.99520038,628b806c463b948bc644b84f,629af70210943b7ad7ebc746,,,,,,,,,,,,,,,,,,,,,,,,,,,,,,,,,,,,,,,,,,,,,,,,,,,,,,,,,,,,,,,,,,,,,,,,,,,,,,,,,,,,,,,,,,,,,,,,,,,,,,,
,,"[""comma""]",0,[0.10769999998808544],60,0,60,0,1,5bf801e3361a9b00012654c5,22,Kobieta,2022-06-04_08h09.29.155,task,2021.1.4,Win32,59.99520038,628b806c463b948bc644b84f,629af70210943b7ad7ebc746,,,,,,,,,,,,,,,,,,,,,,,,,,,,,,,,,,,,,,,,,,,,,,,,,,,,,,,,,,,,,,,,,,,,,,,,,,,,,,,,,,,,,,,,,,,,,,,,,,,,,,,
,,"[""period""]",0,[0.21520000004770168],61,0,61,0,1,5bf801e3361a9b00012654c5,22,Kobieta,2022-06-04_08h09.29.155,task,2021.1.4,Win32,59.99520038,628b806c463b948bc644b84f,629af70210943b7ad7ebc746,,,,,,,,,,,,,,,,,,,,,,,,,,,,,,,,,,,,,,,,,,,,,,,,,,,,,,,,,,,,,,,,,,,,,,,,,,,,,,,,,,,,,,,,,,,,,,,,,,,,,,,
,,"[""comma""]",0,[0.2066999999881034],62,0,62,0,1,5bf801e3361a9b00012654c5,22,Kobieta,2022-06-04_08h09.29.155,task,2021.1.4,Win32,59.99520038,628b806c463b948bc644b84f,629af70210943b7ad7ebc746,,,,,,,,,,,,,,,,,,,,,,,,,,,,,,,,,,,,,,,,,,,,,,,,,,,,,,,,,,,,,,,,,,,,,,,,,,,,,,,,,,,,,,,,,,,,,,,,,,,,,,,
,,"[""period""]",0,[0.28949999999997544],63,0,63,0,1,5bf801e3361a9b00012654c5,22,Kobieta,2022-06-04_08h09.29.155,task,2021.1.4,Win32,59.99520038,628b806c463b948bc644b84f,629af70210943b7ad7ebc746,,,,,,,,,,,,,,,,,,,,,,,,,,,,,,,,,,,,,,,,,,,,,,,,,,,,,,,,,,,,,,,,,,,,,,,,,,,,,,,,,,,,,,,,,,,,,,,,,,,,,,,
,,"[""period""]",0,[0.5681999999880816],64,0,64,0,1,5bf801e3361a9b00012654c5,22,Kobieta,2022-06-04_08h09.29.155,task,2021.1.4,Win32,59.99520038,628b806c463b948bc644b84f,629af70210943b7ad7ebc746,,,,,,,,,,,,,,,,,,,,,,,,,,,,,,,,,,,,,,,,,,,,,,,,,,,,,,,,,,,,,,,,,,,,,,,,,,,,,,,,,,,,,,,,,,,,,,,,,,,,,,,
,,"[""period""]",0,[0.36909999996422016],65,0,65,0,1,5bf801e3361a9b00012654c5,22,Kobieta,2022-06-04_08h09.29.155,task,2021.1.4,Win32,59.99520038,628b806c463b948bc644b84f,629af70210943b7ad7ebc746,,,,,,,,,,,,,,,,,,,,,,,,,,,,,,,,,,,,,,,,,,,,,,,,,,,,,,,,,,,,,,,,,,,,,,,,,,,,,,,,,,,,,,,,,,,,,,,,,,,,,,,
,,"[""comma""]",0,[0.4754000000357621],66,0,66,0,1,5bf801e3361a9b00012654c5,22,Kobieta,2022-06-04_08h09.29.155,task,2021.1.4,Win32,59.99520038,628b806c463b948bc644b84f,629af70210943b7ad7ebc746,,,,,,,,,,,,,,,,,,,,,,,,,,,,,,,,,,,,,,,,,,,,,,,,,,,,,,,,,,,,,,,,,,,,,,,,,,,,,,,,,,,,,,,,,,,,,,,,,,,,,,,
,,"[""comma""]",0,[0.8511000000238198],67,0,67,0,1,5bf801e3361a9b00012654c5,22,Kobieta,2022-06-04_08h09.29.155,task,2021.1.4,Win32,59.99520038,628b806c463b948bc644b84f,629af70210943b7ad7ebc746,,,,,,,,,,,,,,,,,,,,,,,,,,,,,,,,,,,,,,,,,,,,,,,,,,,,,,,,,,,,,,,,,,,,,,,,,,,,,,,,,,,,,,,,,,,,,,,,,,,,,,,
,,"[""period""]",0,[0.2728000000119266],68,0,68,0,1,5bf801e3361a9b00012654c5,22,Kobieta,2022-06-04_08h09.29.155,task,2021.1.4,Win32,59.99520038,628b806c463b948bc644b84f,629af70210943b7ad7ebc746,,,,,,,,,,,,,,,,,,,,,,,,,,,,,,,,,,,,,,,,,,,,,,,,,,,,,,,,,,,,,,,,,,,,,,,,,,,,,,,,,,,,,,,,,,,,,,,,,,,,,,,
,,"[""comma""]",0,[0.36709999996423903],69,0,69,0,1,5bf801e3361a9b00012654c5,22,Kobieta,2022-06-04_08h09.29.155,task,2021.1.4,Win32,59.99520038,628b806c463b948bc644b84f,629af70210943b7ad7ebc746,,,,,,,,,,,,,,,,,,,,,,,,,,,,,,,,,,,,,,,,,,,,,,,,,,,,,,,,,,,,,,,,,,,,,,,,,,,,,,,,,,,,,,,,,,,,,,,,,,,,,,,
,,"[""period""]",0,[0.6228000000119209],70,0,70,0,1,5bf801e3361a9b00012654c5,22,Kobieta,2022-06-04_08h09.29.155,task,2021.1.4,Win32,59.99520038,628b806c463b948bc644b84f,629af70210943b7ad7ebc746,,,,,,,,,,,,,,,,,,,,,,,,,,,,,,,,,,,,,,,,,,,,,,,,,,,,,,,,,,,,,,,,,,,,,,,,,,,,,,,,,,,,,,,,,,,,,,,,,,,,,,,
,,"[""period""]",0,[0.3674999999999784],71,0,71,0,1,5bf801e3361a9b00012654c5,22,Kobieta,2022-06-04_08h09.29.155,task,2021.1.4,Win32,59.99520038,628b806c463b948bc644b84f,629af70210943b7ad7ebc746,,,,,,,,,,,,,,,,,,,,,,,,,,,,,,,,,,,,,,,,,,,,,,,,,,,,,,,,,,,,,,,,,,,,,,,,,,,,,,,,,,,,,,,,,,,,,,,,,,,,,,,
,,"[""period""]",0,[0.4508999999761727],72,0,72,0,1,5bf801e3361a9b00012654c5,22,Kobieta,2022-06-04_08h09.29.155,task,2021.1.4,Win32,59.99520038,628b806c463b948bc644b84f,629af70210943b7ad7ebc746,,,,,,,,,,,,,,,,,,,,,,,,,,,,,,,,,,,,,,,,,,,,,,,,,,,,,,,,,,,,,,,,,,,,,,,,,,,,,,,,,,,,,,,,,,,,,,,,,,,,,,,
,,"[""comma""]",0,[0.5356999999880827],73,0,73,0,1,5bf801e3361a9b00012654c5,22,Kobieta,2022-06-04_08h09.29.155,task,2021.1.4,Win32,59.99520038,628b806c463b948bc644b84f,629af70210943b7ad7ebc746,,,,,,,,,,,,,,,,,,,,,,,,,,,,,,,,,,,,,,,,,,,,,,,,,,,,,,,,,,,,,,,,,,,,,,,,,,,,,,,,,,,,,,,,,,,,,,,,,,,,,,,
,,"[""comma""]",0,[0.38749999999998863],74,0,74,0,1,5bf801e3361a9b00012654c5,22,Kobieta,2022-06-04_08h09.29.155,task,2021.1.4,Win32,59.99520038,628b806c463b948bc644b84f,629af70210943b7ad7ebc746,,,,,,,,,,,,,,,,,,,,,,,,,,,,,,,,,,,,,,,,,,,,,,,,,,,,,,,,,,,,,,,,,,,,,,,,,,,,,,,,,,,,,,,,,,,,,,,,,,,,,,,
,,"[""comma""]",0,[0.4188999999761336],75,0,75,0,1,5bf801e3361a9b00012654c5,22,Kobieta,2022-06-04_08h09.29.155,task,2021.1.4,Win32,59.99520038,628b806c463b948bc644b84f,629af70210943b7ad7ebc746,,,,,,,,,,,,,,,,,,,,,,,,,,,,,,,,,,,,,,,,,,,,,,,,,,,,,,,,,,,,,,,,,,,,,,,,,,,,,,,,,,,,,,,,,,,,,,,,,,,,,,,
,,"[""period""]",0,[1.5671999999880768],76,0,76,0,1,5bf801e3361a9b00012654c5,22,Kobieta,2022-06-04_08h09.29.155,task,2021.1.4,Win32,59.99520038,628b806c463b948bc644b84f,629af70210943b7ad7ebc746,,,,,,,,,,,,,,,,,,,,,,,,,,,,,,,,,,,,,,,,,,,,,,,,,,,,,,,,,,,,,,,,,,,,,,,,,,,,,,,,,,,,,,,,,,,,,,,,,,,,,,,
,,"[""comma""]",0,[1.318399999976151],77,0,77,0,1,5bf801e3361a9b00012654c5,22,Kobieta,2022-06-04_08h09.29.155,task,2021.1.4,Win32,59.99520038,628b806c463b948bc644b84f,629af70210943b7ad7ebc746,,,,,,,,,,,,,,,,,,,,,,,,,,,,,,,,,,,,,,,,,,,,,,,,,,,,,,,,,,,,,,,,,,,,,,,,,,,,,,,,,,,,,,,,,,,,,,,,,,,,,,,
,,,0,,78,0,78,0,1,5bf801e3361a9b00012654c5,22,Kobieta,2022-06-04_08h09.29.155,task,2021.1.4,Win32,59.99520038,628b806c463b948bc644b84f,629af70210943b7ad7ebc746,,,,,,,,,,,,,,,,,,,,,,,,,,,,,,,,,,,,,,,,,,,,,,,,,,,,,,,,,,,,,,,,,,,,,,,,,,,,,,,,,,,,,,,,,,,,,,,,,,,,,,,
,,"[""comma""]",0,[0.4345999999642345],79,0,79,0,1,5bf801e3361a9b00012654c5,22,Kobieta,2022-06-04_08h09.29.155,task,2021.1.4,Win32,59.99520038,628b806c463b948bc644b84f,629af70210943b7ad7ebc746,,,,,,,,,,,,,,,,,,,,,,,,,,,,,,,,,,,,,,,,,,,,,,,,,,,,,,,,,,,,,,,,,,,,,,,,,,,,,,,,,,,,,,,,,,,,,,,,,,,,,,,
,,"[""period""]",0,[0.4446000000238257],80,0,80,0,1,5bf801e3361a9b00012654c5,22,Kobieta,2022-06-04_08h09.29.155,task,2021.1.4,Win32,59.99520038,628b806c463b948bc644b84f,629af70210943b7ad7ebc746,,,,,,,,,,,,,,,,,,,,,,,,,,,,,,,,,,,,,,,,,,,,,,,,,,,,,,,,,,,,,,,,,,,,,,,,,,,,,,,,,,,,,,,,,,,,,,,,,,,,,,,
,,"[""period""]",0,[0.2781000000238407],81,0,81,0,1,5bf801e3361a9b00012654c5,22,Kobieta,2022-06-04_08h09.29.155,task,2021.1.4,Win32,59.99520038,628b806c463b948bc644b84f,629af70210943b7ad7ebc746,,,,,,,,,,,,,,,,,,,,,,,,,,,,,,,,,,,,,,,,,,,,,,,,,,,,,,,,,,,,,,,,,,,,,,,,,,,,,,,,,,,,,,,,,,,,,,,,,,,,,,,
,,"[""comma""]",0,[0.9348000000119328],82,0,82,0,1,5bf801e3361a9b00012654c5,22,Kobieta,2022-06-04_08h09.29.155,task,2021.1.4,Win32,59.99520038,628b806c463b948bc644b84f,629af70210943b7ad7ebc746,,,,,,,,,,,,,,,,,,,,,,,,,,,,,,,,,,,,,,,,,,,,,,,,,,,,,,,,,,,,,,,,,,,,,,,,,,,,,,,,,,,,,,,,,,,,,,,,,,,,,,,
,,"[""comma""]",0,[0.3896000000238473],83,0,83,0,1,5bf801e3361a9b00012654c5,22,Kobieta,2022-06-04_08h09.29.155,task,2021.1.4,Win32,59.99520038,628b806c463b948bc644b84f,629af70210943b7ad7ebc746,,,,,,,,,,,,,,,,,,,,,,,,,,,,,,,,,,,,,,,,,,,,,,,,,,,,,,,,,,,,,,,,,,,,,,,,,,,,,,,,,,,,,,,,,,,,,,,,,,,,,,,
,,"[""comma""]",0,[0.43319999998809067],84,0,84,0,1,5bf801e3361a9b00012654c5,22,Kobieta,2022-06-04_08h09.29.155,task,2021.1.4,Win32,59.99520038,628b806c463b948bc644b84f,629af70210943b7ad7ebc746,,,,,,,,,,,,,,,,,,,,,,,,,,,,,,,,,,,,,,,,,,,,,,,,,,,,,,,,,,,,,,,,,,,,,,,,,,,,,,,,,,,,,,,,,,,,,,,,,,,,,,,
,,"[""period""]",0,[0.37580000001193525],85,0,85,0,1,5bf801e3361a9b00012654c5,22,Kobieta,2022-06-04_08h09.29.155,task,2021.1.4,Win32,59.99520038,628b806c463b948bc644b84f,629af70210943b7ad7ebc746,,,,,,,,,,,,,,,,,,,,,,,,,,,,,,,,,,,,,,,,,,,,,,,,,,,,,,,,,,,,,,,,,,,,,,,,,,,,,,,,,,,,,,,,,,,,,,,,,,,,,,,
,,"[""period""]",0,[0.41739999997616906],86,0,86,0,1,5bf801e3361a9b00012654c5,22,Kobieta,2022-06-04_08h09.29.155,task,2021.1.4,Win32,59.99520038,628b806c463b948bc644b84f,629af70210943b7ad7ebc746,,,,,,,,,,,,,,,,,,,,,,,,,,,,,,,,,,,,,,,,,,,,,,,,,,,,,,,,,,,,,,,,,,,,,,,,,,,,,,,,,,,,,,,,,,,,,,,,,,,,,,,
,,"[""comma""]",0,[0.3509999999999991],87,0,87,0,1,5bf801e3361a9b00012654c5,22,Kobieta,2022-06-04_08h09.29.155,task,2021.1.4,Win32,59.99520038,628b806c463b948bc644b84f,629af70210943b7ad7ebc746,,,,,,,,,,,,,,,,,,,,,,,,,,,,,,,,,,,,,,,,,,,,,,,,,,,,,,,,,,,,,,,,,,,,,,,,,,,,,,,,,,,,,,,,,,,,,,,,,,,,,,,
,,"[""period""]",0,[0.3890999999642304],88,0,88,0,1,5bf801e3361a9b00012654c5,22,Kobieta,2022-06-04_08h09.29.155,task,2021.1.4,Win32,59.99520038,628b806c463b948bc644b84f,629af70210943b7ad7ebc746,,,,,,,,,,,,,,,,,,,,,,,,,,,,,,,,,,,,,,,,,,,,,,,,,,,,,,,,,,,,,,,,,,,,,,,,,,,,,,,,,,,,,,,,,,,,,,,,,,,,,,,
,,"[""period""]",0,[0.35369999998806634],89,0,89,0,1,5bf801e3361a9b00012654c5,22,Kobieta,2022-06-04_08h09.29.155,task,2021.1.4,Win32,59.99520038,628b806c463b948bc644b84f,629af70210943b7ad7ebc746,,,,,,,,,,,,,,,,,,,,,,,,,,,,,,,,,,,,,,,,,,,,,,,,,,,,,,,,,,,,,,,,,,,,,,,,,,,,,,,,,,,,,,,,,,,,,,,,,,,,,,,
,,"[""period""]",0,[0.33550000000002456],90,0,90,0,1,5bf801e3361a9b00012654c5,22,Kobieta,2022-06-04_08h09.29.155,task,2021.1.4,Win32,59.99520038,628b806c463b948bc644b84f,629af70210943b7ad7ebc746,,,,,,,,,,,,,,,,,,,,,,,,,,,,,,,,,,,,,,,,,,,,,,,,,,,,,,,,,,,,,,,,,,,,,,,,,,,,,,,,,,,,,,,,,,,,,,,,,,,,,,,
,,"[""comma""]",0,[0.3924999999999841],91,0,91,0,1,5bf801e3361a9b00012654c5,22,Kobieta,2022-06-04_08h09.29.155,task,2021.1.4,Win32,59.99520038,628b806c463b948bc644b84f,629af70210943b7ad7ebc746,,,,,,,,,,,,,,,,,,,,,,,,,,,,,,,,,,,,,,,,,,,,,,,,,,,,,,,,,,,,,,,,,,,,,,,,,,,,,,,,,,,,,,,,,,,,,,,,,,,,,,,
,,"[""period""]",0,[0.3704000000357155],92,0,92,0,1,5bf801e3361a9b00012654c5,22,Kobieta,2022-06-04_08h09.29.155,task,2021.1.4,Win32,59.99520038,628b806c463b948bc644b84f,629af70210943b7ad7ebc746,,,,,,,,,,,,,,,,,,,,,,,,,,,,,,,,,,,,,,,,,,,,,,,,,,,,,,,,,,,,,,,,,,,,,,,,,,,,,,,,,,,,,,,,,,,,,,,,,,,,,,,
,,"[""comma""]",0,[0.2948000000119464],93,0,93,0,1,5bf801e3361a9b00012654c5,22,Kobieta,2022-06-04_08h09.29.155,task,2021.1.4,Win32,59.99520038,628b806c463b948bc644b84f,629af70210943b7ad7ebc746,,,,,,,,,,,,,,,,,,,,,,,,,,,,,,,,,,,,,,,,,,,,,,,,,,,,,,,,,,,,,,,,,,,,,,,,,,,,,,,,,,,,,,,,,,,,,,,,,,,,,,,
,,"[""comma""]",0,[0.3056999999880645],94,0,94,0,1,5bf801e3361a9b00012654c5,22,Kobieta,2022-06-04_08h09.29.155,task,2021.1.4,Win32,59.99520038,628b806c463b948bc644b84f,629af70210943b7ad7ebc746,,,,,,,,,,,,,,,,,,,,,,,,,,,,,,,,,,,,,,,,,,,,,,,,,,,,,,,,,,,,,,,,,,,,,,,,,,,,,,,,,,,,,,,,,,,,,,,,,,,,,,,
,,"[""comma""]",0,[0.5385999999642195],95,0,95,0,1,5bf801e3361a9b00012654c5,22,Kobieta,2022-06-04_08h09.29.155,task,2021.1.4,Win32,59.99520038,628b806c463b948bc644b84f,629af70210943b7ad7ebc746,,,,,,,,,,,,,,,,,,,,,,,,,,,,,,,,,,,,,,,,,,,,,,,,,,,,,,,,,,,,,,,,,,,,,,,,,,,,,,,,,,,,,,,,,,,,,,,,,,,,,,,
,,"[""period""]",0,[0.1848000000118759],96,0,96,0,1,5bf801e3361a9b00012654c5,22,Kobieta,2022-06-04_08h09.29.155,task,2021.1.4,Win32,59.99520038,628b806c463b948bc644b84f,629af70210943b7ad7ebc746,,,,,,,,,,,,,,,,,,,,,,,,,,,,,,,,,,,,,,,,,,,,,,,,,,,,,,,,,,,,,,,,,,,,,,,,,,,,,,,,,,,,,,,,,,,,,,,,,,,,,,,
,,"[""period""]",0,[0.30169999998810226],97,0,97,0,1,5bf801e3361a9b00012654c5,22,Kobieta,2022-06-04_08h09.29.155,task,2021.1.4,Win32,59.99520038,628b806c463b948bc644b84f,629af70210943b7ad7ebc746,,,,,,,,,,,,,,,,,,,,,,,,,,,,,,,,,,,,,,,,,,,,,,,,,,,,,,,,,,,,,,,,,,,,,,,,,,,,,,,,,,,,,,,,,,,,,,,,,,,,,,,
,,"[""period""]",0,[0.2061999999880868],98,0,98,0,1,5bf801e3361a9b00012654c5,22,Kobieta,2022-06-04_08h09.29.155,task,2021.1.4,Win32,59.99520038,628b806c463b948bc644b84f,629af70210943b7ad7ebc746,,,,,,,,,,,,,,,,,,,,,,,,,,,,,,,,,,,,,,,,,,,,,,,,,,,,,,,,,,,,,,,,,,,,,,,,,,,,,,,,,,,,,,,,,,,,,,,,,,,,,,,
,,"[""period""]",0,[0.3184999999999718],99,0,99,0,1,5bf801e3361a9b00012654c5,22,Kobieta,2022-06-04_08h09.29.155,task,2021.1.4,Win32,59.99520038,628b806c463b948bc644b84f,629af70210943b7ad7ebc746,,,,,,,,,,,,,,,,,,,,,,,,,,,,,,,,,,,,,,,,,,,,,,,,,,,,,,,,,,,,,,,,,,,,,,,,,,,,,,,,,,,,,,,,,,,,,,,,,,,,,,,
,,"[""comma""]",0,[0.2679000000357519],100,0,100,0,1,5bf801e3361a9b00012654c5,22,Kobieta,2022-06-04_08h09.29.155,task,2021.1.4,Win32,59.99520038,628b806c463b948bc644b84f,629af70210943b7ad7ebc746,,,,,,,,,,,,,,,,,,,,,,,,,,,,,,,,,,,,,,,,,,,,,,,,,,,,,,,,,,,,,,,,,,,,,,,,,,,,,,,,,,,,,,,,,,,,,,,,,,,,,,,
,,"[""comma""]",0,[0.3872000000476987],101,0,101,0,1,5bf801e3361a9b00012654c5,22,Kobieta,2022-06-04_08h09.29.155,task,2021.1.4,Win32,59.99520038,628b806c463b948bc644b84f,629af70210943b7ad7ebc746,,,,,,,,,,,,,,,,,,,,,,,,,,,,,,,,,,,,,,,,,,,,,,,,,,,,,,,,,,,,,,,,,,,,,,,,,,,,,,,,,,,,,,,,,,,,,,,,,,,,,,,
,,"[""comma""]",0,[1.508800000011945],102,0,102,0,1,5bf801e3361a9b00012654c5,22,Kobieta,2022-06-04_08h09.29.155,task,2021.1.4,Win32,59.99520038,628b806c463b948bc644b84f,629af70210943b7ad7ebc746,,,,,,,,,,,,,,,,,,,,,,,,,,,,,,,,,,,,,,,,,,,,,,,,,,,,,,,,,,,,,,,,,,,,,,,,,,,,,,,,,,,,,,,,,,,,,,,,,,,,,,,
,,,0,,103,0,103,0,1,5bf801e3361a9b00012654c5,22,Kobieta,2022-06-04_08h09.29.155,task,2021.1.4,Win32,59.99520038,628b806c463b948bc644b84f,629af70210943b7ad7ebc746,,,,,,,,,,,,,,,,,,,,,,,,,,,,,,,,,,,,,,,,,,,,,,,,,,,,,,,,,,,,,,,,,,,,,,,,,,,,,,,,,,,,,,,,,,,,,,,,,,,,,,,
,,"[""period""]",0,[0.44109999996419447],104,0,104,0,1,5bf801e3361a9b00012654c5,22,Kobieta,2022-06-04_08h09.29.155,task,2021.1.4,Win32,59.99520038,628b806c463b948bc644b84f,629af70210943b7ad7ebc746,,,,,,,,,,,,,,,,,,,,,,,,,,,,,,,,,,,,,,,,,,,,,,,,,,,,,,,,,,,,,,,,,,,,,,,,,,,,,,,,,,,,,,,,,,,,,,,,,,,,,,,
,,"[""period""]",0,[1.16729999995232],105,0,105,0,1,5bf801e3361a9b00012654c5,22,Kobieta,2022-06-04_08h09.29.155,task,2021.1.4,Win32,59.99520038,628b806c463b948bc644b84f,629af70210943b7ad7ebc746,,,,,,,,,,,,,,,,,,,,,,,,,,,,,,,,,,,,,,,,,,,,,,,,,,,,,,,,,,,,,,,,,,,,,,,,,,,,,,,,,,,,,,,,,,,,,,,,,,,,,,,
,,,0,,106,0,106,0,1,5bf801e3361a9b00012654c5,22,Kobieta,2022-06-04_08h09.29.155,task,2021.1.4,Win32,59.99520038,628b806c463b948bc644b84f,629af70210943b7ad7ebc746,,,,,,,,,,,,,,,,,,,,,,,,,,,,,,,,,,,,,,,,,,,,,,,,,,,,,,,,,,,,,,,,,,,,,,,,,,,,,,,,,,,,,,,,,,,,,,,,,,,,,,,
,,"[""period""]",0,[0.33660000002385004],107,0,107,0,1,5bf801e3361a9b00012654c5,22,Kobieta,2022-06-04_08h09.29.155,task,2021.1.4,Win32,59.99520038,628b806c463b948bc644b84f,629af70210943b7ad7ebc746,,,,,,,,,,,,,,,,,,,,,,,,,,,,,,,,,,,,,,,,,,,,,,,,,,,,,,,,,,,,,,,,,,,,,,,,,,,,,,,,,,,,,,,,,,,,,,,,,,,,,,,
,,"[""comma""]",0,[0.3516000000238364],108,0,108,0,1,5bf801e3361a9b00012654c5,22,Kobieta,2022-06-04_08h09.29.155,task,2021.1.4,Win32,59.99520038,628b806c463b948bc644b84f,629af70210943b7ad7ebc746,,,,,,,,,,,,,,,,,,,,,,,,,,,,,,,,,,,,,,,,,,,,,,,,,,,,,,,,,,,,,,,,,,,,,,,,,,,,,,,,,,,,,,,,,,,,,,,,,,,,,,,
,,"[""comma""]",0,[0.8553999999761572],109,0,109,0,1,5bf801e3361a9b00012654c5,22,Kobieta,2022-06-04_08h09.29.155,task,2021.1.4,Win32,59.99520038,628b806c463b948bc644b84f,629af70210943b7ad7ebc746,,,,,,,,,,,,,,,,,,,,,,,,,,,,,,,,,,,,,,,,,,,,,,,,,,,,,,,,,,,,,,,,,,,,,,,,,,,,,,,,,,,,,,,,,,,,,,,,,,,,,,,
,,"[""comma""]",0,[0.2241999999881159],110,0,110,0,1,5bf801e3361a9b00012654c5,22,Kobieta,2022-06-04_08h09.29.155,task,2021.1.4,Win32,59.99520038,628b806c463b948bc644b84f,629af70210943b7ad7ebc746,,,,,,,,,,,,,,,,,,,,,,,,,,,,,,,,,,,,,,,,,,,,,,,,,,,,,,,,,,,,,,,,,,,,,,,,,,,,,,,,,,,,,,,,,,,,,,,,,,,,,,,
,,"[""comma""]",0,[0.468200000047716],111,0,111,0,1,5bf801e3361a9b00012654c5,22,Kobieta,2022-06-04_08h09.29.155,task,2021.1.4,Win32,59.99520038,628b806c463b948bc644b84f,629af70210943b7ad7ebc746,,,,,,,,,,,,,,,,,,,,,,,,,,,,,,,,,,,,,,,,,,,,,,,,,,,,,,,,,,,,,,,,,,,,,,,,,,,,,,,,,,,,,,,,,,,,,,,,,,,,,,,
,,"[""period""]",0,[0.4028999999761709],112,0,112,0,1,5bf801e3361a9b00012654c5,22,Kobieta,2022-06-04_08h09.29.155,task,2021.1.4,Win32,59.99520038,628b806c463b948bc644b84f,629af70210943b7ad7ebc746,,,,,,,,,,,,,,,,,,,,,,,,,,,,,,,,,,,,,,,,,,,,,,,,,,,,,,,,,,,,,,,,,,,,,,,,,,,,,,,,,,,,,,,,,,,,,,,,,,,,,,,
,,"[""period""]",0,[0.4258000000119182],113,0,113,0,1,5bf801e3361a9b00012654c5,22,Kobieta,2022-06-04_08h09.29.155,task,2021.1.4,Win32,59.99520038,628b806c463b948bc644b84f,629af70210943b7ad7ebc746,,,,,,,,,,,,,,,,,,,,,,,,,,,,,,,,,,,,,,,,,,,,,,,,,,,,,,,,,,,,,,,,,,,,,,,,,,,,,,,,,,,,,,,,,,,,,,,,,,,,,,,
,,"[""period""]",0,[0.3941999999881318],114,0,114,0,1,5bf801e3361a9b00012654c5,22,Kobieta,2022-06-04_08h09.29.155,task,2021.1.4,Win32,59.99520038,628b806c463b948bc644b84f,629af70210943b7ad7ebc746,,,,,,,,,,,,,,,,,,,,,,,,,,,,,,,,,,,,,,,,,,,,,,,,,,,,,,,,,,,,,,,,,,,,,,,,,,,,,,,,,,,,,,,,,,,,,,,,,,,,,,,
,,"[""comma""]",0,[0.4175000000000182],115,0,115,0,1,5bf801e3361a9b00012654c5,22,Kobieta,2022-06-04_08h09.29.155,task,2021.1.4,Win32,59.99520038,628b806c463b948bc644b84f,629af70210943b7ad7ebc746,,,,,,,,,,,,,,,,,,,,,,,,,,,,,,,,,,,,,,,,,,,,,,,,,,,,,,,,,,,,,,,,,,,,,,,,,,,,,,,,,,,,,,,,,,,,,,,,,,,,,,,
,,"[""comma""]",0,[0.35619999998806406],116,0,116,0,1,5bf801e3361a9b00012654c5,22,Kobieta,2022-06-04_08h09.29.155,task,2021.1.4,Win32,59.99520038,628b806c463b948bc644b84f,629af70210943b7ad7ebc746,,,,,,,,,,,,,,,,,,,,,,,,,,,,,,,,,,,,,,,,,,,,,,,,,,,,,,,,,,,,,,,,,,,,,,,,,,,,,,,,,,,,,,,,,,,,,,,,,,,,,,,
,,"[""comma""]",0,[0.6694000000357505],117,0,117,0,1,5bf801e3361a9b00012654c5,22,Kobieta,2022-06-04_08h09.29.155,task,2021.1.4,Win32,59.99520038,628b806c463b948bc644b84f,629af70210943b7ad7ebc746,,,,,,,,,,,,,,,,,,,,,,,,,,,,,,,,,,,,,,,,,,,,,,,,,,,,,,,,,,,,,,,,,,,,,,,,,,,,,,,,,,,,,,,,,,,,,,,,,,,,,,,
,,"[""period""]",0,[0.41080000001193184],118,0,118,0,1,5bf801e3361a9b00012654c5,22,Kobieta,2022-06-04_08h09.29.155,task,2021.1.4,Win32,59.99520038,628b806c463b948bc644b84f,629af70210943b7ad7ebc746,,,,,,,,,,,,,,,,,,,,,,,,,,,,,,,,,,,,,,,,,,,,,,,,,,,,,,,,,,,,,,,,,,,,,,,,,,,,,,,,,,,,,,,,,,,,,,,,,,,,,,,
,,"[""comma""]",0,[1.1063999999761336],119,0,119,0,1,5bf801e3361a9b00012654c5,22,Kobieta,2022-06-04_08h09.29.155,task,2021.1.4,Win32,59.99520038,628b806c463b948bc644b84f,629af70210943b7ad7ebc746,,,,,,,,,,,,,,,,,,,,,,,,,,,,,,,,,,,,,,,,,,,,,,,,,,,,,,,,,,,,,,,,,,,,,,,,,,,,,,,,,,,,,,,,,,,,,,,,,,,,,,,
,,,,,,,,,,5bf801e3361a9b00012654c5,22,Kobieta,2022-06-04_08h09.29.155,task,2021.1.4,Win32,59.99520038,628b806c463b948bc644b84f,629af70210943b7ad7ebc746,space,28.518,space,7.0227,0,0,0,0,1,X V Q F H G B L J M P D K C T S W R N Z,,,,,,,,,,,,,,,,,,,,,,,,,,,,,,,,,,,,,,,,,,,,,,,,,,,,,,,,,,,,,,,,,,,,,,,,,,,,,,,,,,,,,,,,,,,,,
,,,,,,,,,,5bf801e3361a9b00012654c5,22,Kobieta,2022-06-04_08h09.29.155,task,2021.1.4,Win32,59.99520038,628b806c463b948bc644b84f,629af70210943b7ad7ebc746,,,,,1,0,1,0,1,X V Q F H G B L J M P D K C T S W R N Z,,,,,,,,,,,,,,,,,,,,,,,,,,,,,,,,,,,,,,,,,,,,,,,,,,,,,,,,,,,,,,,,,,,,,,,,,,,,,,,,,,,,,,,,,,,,,
,,,,,,,,,,5bf801e3361a9b00012654c5,22,Kobieta,2022-06-04_08h09.29.155,task,2021.1.4,Win32,59.99520038,628b806c463b948bc644b84f,629af70210943b7ad7ebc746,,,,,,,,,,,zf,"[""z"",""f""]","[1.4386999999880459,1.7636000000238141,2.3731000000238396]",1,ZF,0,0,0,0,1,,,,,,,,,,,,,,,,,,,,,,,,,,,,,,,,,,,,,,,,,,,,,,,,,,,,,,,,,,,,,,,,,,,,,,,,,,,,,,,,,,,
,,,,,,,,,,5bf801e3361a9b00012654c5,22,Kobieta,2022-06-04_08h09.29.155,task,2021.1.4,Win32,59.99520038,628b806c463b948bc644b84f,629af70210943b7ad7ebc746,,,,,0,0,0,0,1,X V Q F H G B L J M P D K C T S W R N Z,,,,,,,,,,,,,,,,,,,,,,,,,,,,,,,,,,,,,,,,,,,,,,,,,,,,,,,,,,,,,,,,,,,,,,,,,,,,,,,,,,,,,,,,,,,,,
,,,,,,,,,,5bf801e3361a9b00012654c5,22,Kobieta,2022-06-04_08h09.29.155,task,2021.1.4,Win32,59.99520038,628b806c463b948bc644b84f,629af70210943b7ad7ebc746,,,,,1,0,1,0,1,X V Q F H G B L J M P D K C T S W R N Z,,,,,,,,,,,,,,,,,,,,,,,,,,,,,,,,,,,,,,,,,,,,,,,,,,,,,,,,,,,,,,,,,,,,,,,,,,,,,,,,,,,,,,,,,,,,,
,,,,,,,,,,5bf801e3361a9b00012654c5,22,Kobieta,2022-06-04_08h09.29.155,task,2021.1.4,Win32,59.99520038,628b806c463b948bc644b84f,629af70210943b7ad7ebc746,,,,,,,,,,,tr,"[""t"",""r""]","[0.9171000000238223,1.3181000000238328,1.6671000000238223]",1,TR,1,0,1,0,1,,,,,,,,,,,,,,,,,,,,,,,,,,,,,,,,,,,,,,,,,,,,,,,,,,,,,,,,,,,,,,,,,,,,,,,,,,,,,,,,,,,
,,,,,,,,,,5bf801e3361a9b00012654c5,22,Kobieta,2022-06-04_08h09.29.155,task,2021.1.4,Win32,59.99520038,628b806c463b948bc644b84f,629af70210943b7ad7ebc746,,,,,0,0,0,0,1,X V Q F H G B L J M P D K C T S W R N Z,,,,,,,,,,,,,,,,,,,,,,,,,,,,,,,,,,,,,,,,,,,,,,,,,,,,,,,,,,,,,,,,,,,,,,,,,,,,,,,,,,,,,,,,,,,,,
,,,,,,,,,,5bf801e3361a9b00012654c5,22,Kobieta,2022-06-04_08h09.29.155,task,2021.1.4,Win32,59.99520038,628b806c463b948bc644b84f,629af70210943b7ad7ebc746,,,,,1,0,1,0,1,X V Q F H G B L J M P D K C T S W R N Z,,,,,,,,,,,,,,,,,,,,,,,,,,,,,,,,,,,,,,,,,,,,,,,,,,,,,,,,,,,,,,,,,,,,,,,,,,,,,,,,,,,,,,,,,,,,,
,,,,,,,,,,5bf801e3361a9b00012654c5,22,Kobieta,2022-06-04_08h09.29.155,task,2021.1.4,Win32,59.99520038,628b806c463b948bc644b84f,629af70210943b7ad7ebc746,,,,,2,0,2,0,1,X V Q F H G B L J M P D K C T S W R N Z,,,,,,,,,,,,,,,,,,,,,,,,,,,,,,,,,,,,,,,,,,,,,,,,,,,,,,,,,,,,,,,,,,,,,,,,,,,,,,,,,,,,,,,,,,,,,
,,,,,,,,,,5bf801e3361a9b00012654c5,22,Kobieta,2022-06-04_08h09.29.155,task,2021.1.4,Win32,59.99520038,628b806c463b948bc644b84f,629af70210943b7ad7ebc746,,,,,,,,,,,pqc,"[""p"",""q"",""c""]","[0.5641999999880909,0.718600000023855,1.08660000002385,3.5041999999880886]",1,PQC,2,0,2,0,1,,,,,,,,,,,,,,,,,,,,,,,,,,,,,,,,,,,,,,,,,,,,,,,,,,,,,,,,,,,,,,,,,,,,,,,,,,,,,,,,,,,
,,,,,,,,,,5bf801e3361a9b00012654c5,22,Kobieta,2022-06-04_08h09.29.155,task,2021.1.4,Win32,59.99520038,628b806c463b948bc644b84f,629af70210943b7ad7ebc746,,,,,0,0,0,0,1,X V Q F H G B L J M P D K C T S W R N Z,,,,,,,,,,,,,,,,,,,,,,,,,,,,,,,,,,,,,,,,,,,,,,,,,,,,,,,,,,,,,,,,,,,,,,,,,,,,,,,,,,,,,,,,,,,,,
,,,,,,,,,,5bf801e3361a9b00012654c5,22,Kobieta,2022-06-04_08h09.29.155,task,2021.1.4,Win32,59.99520038,628b806c463b948bc644b84f,629af70210943b7ad7ebc746,,,,,1,0,1,0,1,X V Q F H G B L J M P D K C T S W R N Z,,,,,,,,,,,,,,,,,,,,,,,,,,,,,,,,,,,,,,,,,,,,,,,,,,,,,,,,,,,,,,,,,,,,,,,,,,,,,,,,,,,,,,,,,,,,,
,,,,,,,,,,5bf801e3361a9b00012654c5,22,Kobieta,2022-06-04_08h09.29.155,task,2021.1.4,Win32,59.99520038,628b806c463b948bc644b84f,629af70210943b7ad7ebc746,,,,,2,0,2,0,1,X V Q F H G B L J M P D K C T S W R N Z,,,,,,,,,,,,,,,,,,,,,,,,,,,,,,,,,,,,,,,,,,,,,,,,,,,,,,,,,,,,,,,,,,,,,,,,,,,,,,,,,,,,,,,,,,,,,
,,,,,,,,,,5bf801e3361a9b00012654c5,22,Kobieta,2022-06-04_08h09.29.155,task,2021.1.4,Win32,59.99520038,628b806c463b948bc644b84f,629af70210943b7ad7ebc746,,,,,,,,,,,mwg,"[""m"",""w"",""g""]","[1.4638999999761495,2.096899999976131,2.463199999988092,3.282300000011901]",1,MWG,3,0,3,0,1,,,,,,,,,,,,,,,,,,,,,,,,,,,,,,,,,,,,,,,,,,,,,,,,,,,,,,,,,,,,,,,,,,,,,,,,,,,,,,,,,,,
,,,,,,,,,,5bf801e3361a9b00012654c5,22,Kobieta,2022-06-04_08h09.29.155,task,2021.1.4,Win32,59.99520038,628b806c463b948bc644b84f,629af70210943b7ad7ebc746,,,,,0,0,0,0,1,X V Q F H G B L J M P D K C T S W R N Z,,,,,,,,,,,,,,,,,,,,,,,,,,,,,,,,,,,,,,,,,,,,,,,,,,,,,,,,,,,,,,,,,,,,,,,,,,,,,,,,,,,,,,,,,,,,,
,,,,,,,,,,5bf801e3361a9b00012654c5,22,Kobieta,2022-06-04_08h09.29.155,task,2021.1.4,Win32,59.99520038,628b806c463b948bc644b84f,629af70210943b7ad7ebc746,,,,,1,0,1,0,1,X V Q F H G B L J M P D K C T S W R N Z,,,,,,,,,,,,,,,,,,,,,,,,,,,,,,,,,,,,,,,,,,,,,,,,,,,,,,,,,,,,,,,,,,,,,,,,,,,,,,,,,,,,,,,,,,,,,
,,,,,,,,,,5bf801e3361a9b00012654c5,22,Kobieta,2022-06-04_08h09.29.155,task,2021.1.4,Win32,59.99520038,628b806c463b948bc644b84f,629af70210943b7ad7ebc746,,,,,2,0,2,0,1,X V Q F H G B L J M P D K C T S W R N Z,,,,,,,,,,,,,,,,,,,,,,,,,,,,,,,,,,,,,,,,,,,,,,,,,,,,,,,,,,,,,,,,,,,,,,,,,,,,,,,,,,,,,,,,,,,,,
,,,,,,,,,,5bf801e3361a9b00012654c5,22,Kobieta,2022-06-04_08h09.29.155,task,2021.1.4,Win32,59.99520038,628b806c463b948bc644b84f,629af70210943b7ad7ebc746,,,,,3,0,3,0,1,X V Q F H G B L J M P D K C T S W R N Z,,,,,,,,,,,,,,,,,,,,,,,,,,,,,,,,,,,,,,,,,,,,,,,,,,,,,,,,,,,,,,,,,,,,,,,,,,,,,,,,,,,,,,,,,,,,,
,,,,,,,,,,5bf801e3361a9b00012654c5,22,Kobieta,2022-06-04_08h09.29.155,task,2021.1.4,Win32,59.99520038,628b806c463b948bc644b84f,629af70210943b7ad7ebc746,,,,,,,,,,,trzw,"[""t"",""r"",""z"",""w""]","[0.3732000000476887,0.5642000000476628,0.9989999999999668,1.2021000000238473,1.9841000000238296]",1,TRZW,4,0,4,0,1,,,,,,,,,,,,,,,,,,,,,,,,,,,,,,,,,,,,,,,,,,,,,,,,,,,,,,,,,,,,,,,,,,,,,,,,,,,,,,,,,,,
,,,,,,,,,,5bf801e3361a9b00012654c5,22,Kobieta,2022-06-04_08h09.29.155,task,2021.1.4,Win32,59.99520038,628b806c463b948bc644b84f,629af70210943b7ad7ebc746,,,,,0,0,0,0,1,X V Q F H G B L J M P D K C T S W R N Z,,,,,,,,,,,,,,,,,,,,,,,,,,,,,,,,,,,,,,,,,,,,,,,,,,,,,,,,,,,,,,,,,,,,,,,,,,,,,,,,,,,,,,,,,,,,,
,,,,,,,,,,5bf801e3361a9b00012654c5,22,Kobieta,2022-06-04_08h09.29.155,task,2021.1.4,Win32,59.99520038,628b806c463b948bc644b84f,629af70210943b7ad7ebc746,,,,,1,0,1,0,1,X V Q F H G B L J M P D K C T S W R N Z,,,,,,,,,,,,,,,,,,,,,,,,,,,,,,,,,,,,,,,,,,,,,,,,,,,,,,,,,,,,,,,,,,,,,,,,,,,,,,,,,,,,,,,,,,,,,
,,,,,,,,,,5bf801e3361a9b00012654c5,22,Kobieta,2022-06-04_08h09.29.155,task,2021.1.4,Win32,59.99520038,628b806c463b948bc644b84f,629af70210943b7ad7ebc746,,,,,2,0,2,0,1,X V Q F H G B L J M P D K C T S W R N Z,,,,,,,,,,,,,,,,,,,,,,,,,,,,,,,,,,,,,,,,,,,,,,,,,,,,,,,,,,,,,,,,,,,,,,,,,,,,,,,,,,,,,,,,,,,,,
,,,,,,,,,,5bf801e3361a9b00012654c5,22,Kobieta,2022-06-04_08h09.29.155,task,2021.1.4,Win32,59.99520038,628b806c463b948bc644b84f,629af70210943b7ad7ebc746,,,,,3,0,3,0,1,X V Q F H G B L J M P D K C T S W R N Z,,,,,,,,,,,,,,,,,,,,,,,,,,,,,,,,,,,,,,,,,,,,,,,,,,,,,,,,,,,,,,,,,,,,,,,,,,,,,,,,,,,,,,,,,,,,,
,,,,,,,,,,5bf801e3361a9b00012654c5,22,Kobieta,2022-06-04_08h09.29.155,task,2021.1.4,Win32,59.99520038,628b806c463b948bc644b84f,629af70210943b7ad7ebc746,,,,,,,,,,,wbbg,"[""w"",""b"",""b"",""g""]","[0.5986999999880709,1.2527999999522876,1.431799999952318,1.60479999995232,2.484599999964246]",1,WBBG,5,0,5,0,1,,,,,,,,,,,,,,,,,,,,,,,,,,,,,,,,,,,,,,,,,,,,,,,,,,,,,,,,,,,,,,,,,,,,,,,,,,,,,,,,,,,
,,,,,,,,,,5bf801e3361a9b00012654c5,22,Kobieta,2022-06-04_08h09.29.155,task,2021.1.4,Win32,59.99520038,628b806c463b948bc644b84f,629af70210943b7ad7ebc746,,,,,0,0,0,0,1,X V Q F H G B L J M P D K C T S W R N Z,,,,,,,,,,,,,,,,,,,,,,,,,,,,,,,,,,,,,,,,,,,,,,,,,,,,,,,,,,,,,,,,,,,,,,,,,,,,,,,,,,,,,,,,,,,,,
,,,,,,,,,,5bf801e3361a9b00012654c5,22,Kobieta,2022-06-04_08h09.29.155,task,2021.1.4,Win32,59.99520038,628b806c463b948bc644b84f,629af70210943b7ad7ebc746,,,,,1,0,1,0,1,X V Q F H G B L J M P D K C T S W R N Z,,,,,,,,,,,,,,,,,,,,,,,,,,,,,,,,,,,,,,,,,,,,,,,,,,,,,,,,,,,,,,,,,,,,,,,,,,,,,,,,,,,,,,,,,,,,,
,,,,,,,,,,5bf801e3361a9b00012654c5,22,Kobieta,2022-06-04_08h09.29.155,task,2021.1.4,Win32,59.99520038,628b806c463b948bc644b84f,629af70210943b7ad7ebc746,,,,,2,0,2,0,1,X V Q F H G B L J M P D K C T S W R N Z,,,,,,,,,,,,,,,,,,,,,,,,,,,,,,,,,,,,,,,,,,,,,,,,,,,,,,,,,,,,,,,,,,,,,,,,,,,,,,,,,,,,,,,,,,,,,
,,,,,,,,,,5bf801e3361a9b00012654c5,22,Kobieta,2022-06-04_08h09.29.155,task,2021.1.4,Win32,59.99520038,628b806c463b948bc644b84f,629af70210943b7ad7ebc746,,,,,3,0,3,0,1,X V Q F H G B L J M P D K C T S W R N Z,,,,,,,,,,,,,,,,,,,,,,,,,,,,,,,,,,,,,,,,,,,,,,,,,,,,,,,,,,,,,,,,,,,,,,,,,,,,,,,,,,,,,,,,,,,,,
,,,,,,,,,,5bf801e3361a9b00012654c5,22,Kobieta,2022-06-04_08h09.29.155,task,2021.1.4,Win32,59.99520038,628b806c463b948bc644b84f,629af70210943b7ad7ebc746,,,,,4,0,4,0,1,X V Q F H G B L J M P D K C T S W R N Z,,,,,,,,,,,,,,,,,,,,,,,,,,,,,,,,,,,,,,,,,,,,,,,,,,,,,,,,,,,,,,,,,,,,,,,,,,,,,,,,,,,,,,,,,,,,,
,,,,,,,,,,5bf801e3361a9b00012654c5,22,Kobieta,2022-06-04_08h09.29.155,task,2021.1.4,Win32,59.99520038,628b806c463b948bc644b84f,629af70210943b7ad7ebc746,,,,,,,,,,,dgclg,"[""d"",""g"",""c"",""l"",""g""]","[0.7660000000000196,1.0144999999999982,1.6479000000358042,2.047699999988083,2.2971000000238746,6.994699999988086]",1,DGCLG,6,0,6,0,1,,,,,,,,,,,,,,,,,,,,,,,,,,,,,,,,,,,,,,,,,,,,,,,,,,,,,,,,,,,,,,,,,,,,,,,,,,,,,,,,,,,
,,,,,,,,,,5bf801e3361a9b00012654c5,22,Kobieta,2022-06-04_08h09.29.155,task,2021.1.4,Win32,59.99520038,628b806c463b948bc644b84f,629af70210943b7ad7ebc746,,,,,0,0,0,0,1,X V Q F H G B L J M P D K C T S W R N Z,,,,,,,,,,,,,,,,,,,,,,,,,,,,,,,,,,,,,,,,,,,,,,,,,,,,,,,,,,,,,,,,,,,,,,,,,,,,,,,,,,,,,,,,,,,,,
,,,,,,,,,,5bf801e3361a9b00012654c5,22,Kobieta,2022-06-04_08h09.29.155,task,2021.1.4,Win32,59.99520038,628b806c463b948bc644b84f,629af70210943b7ad7ebc746,,,,,1,0,1,0,1,X V Q F H G B L J M P D K C T S W R N Z,,,,,,,,,,,,,,,,,,,,,,,,,,,,,,,,,,,,,,,,,,,,,,,,,,,,,,,,,,,,,,,,,,,,,,,,,,,,,,,,,,,,,,,,,,,,,
,,,,,,,,,,5bf801e3361a9b00012654c5,22,Kobieta,2022-06-04_08h09.29.155,task,2021.1.4,Win32,59.99520038,628b806c463b948bc644b84f,629af70210943b7ad7ebc746,,,,,2,0,2,0,1,X V Q F H G B L J M P D K C T S W R N Z,,,,,,,,,,,,,,,,,,,,,,,,,,,,,,,,,,,,,,,,,,,,,,,,,,,,,,,,,,,,,,,,,,,,,,,,,,,,,,,,,,,,,,,,,,,,,
,,,,,,,,,,5bf801e3361a9b00012654c5,22,Kobieta,2022-06-04_08h09.29.155,task,2021.1.4,Win32,59.99520038,628b806c463b948bc644b84f,629af70210943b7ad7ebc746,,,,,3,0,3,0,1,X V Q F H G B L J M P D K C T S W R N Z,,,,,,,,,,,,,,,,,,,,,,,,,,,,,,,,,,,,,,,,,,,,,,,,,,,,,,,,,,,,,,,,,,,,,,,,,,,,,,,,,,,,,,,,,,,,,
,,,,,,,,,,5bf801e3361a9b00012654c5,22,Kobieta,2022-06-04_08h09.29.155,task,2021.1.4,Win32,59.99520038,628b806c463b948bc644b84f,629af70210943b7ad7ebc746,,,,,4,0,4,0,1,X V Q F H G B L J M P D K C T S W R N Z,,,,,,,,,,,,,,,,,,,,,,,,,,,,,,,,,,,,,,,,,,,,,,,,,,,,,,,,,,,,,,,,,,,,,,,,,,,,,,,,,,,,,,,,,,,,,
,,,,,,,,,,5bf801e3361a9b00012654c5,22,Kobieta,2022-06-04_08h09.29.155,task,2021.1.4,Win32,59.99520038,628b806c463b948bc644b84f,629af70210943b7ad7ebc746,,,,,,,,,,,tlfwg,"[""t"",""l"",""f"",""w"",""g""]","[3.217199999988111,3.440599999964263,3.686300000011954,4.167300000011949,4.418000000000006,5.21550000000002]",1,TLFWG,7,0,7,0,1,,,,,,,,,,,,,,,,,,,,,,,,,,,,,,,,,,,,,,,,,,,,,,,,,,,,,,,,,,,,,,,,,,,,,,,,,,,,,,,,,,,
,,,,,,,,,,5bf801e3361a9b00012654c5,22,Kobieta,2022-06-04_08h09.29.155,task,2021.1.4,Win32,59.99520038,628b806c463b948bc644b84f,629af70210943b7ad7ebc746,,,,,0,0,0,0,1,X V Q F H G B L J M P D K C T S W R N Z,,,,,,,,,,,,,,,,,,,,,,,,,,,,,,,,,,,,,,,,,,,,,,,,,,,,,,,,,,,,,,,,,,,,,,,,,,,,,,,,,,,,,,,,,,,,,
,,,,,,,,,,5bf801e3361a9b00012654c5,22,Kobieta,2022-06-04_08h09.29.155,task,2021.1.4,Win32,59.99520038,628b806c463b948bc644b84f,629af70210943b7ad7ebc746,,,,,1,0,1,0,1,X V Q F H G B L J M P D K C T S W R N Z,,,,,,,,,,,,,,,,,,,,,,,,,,,,,,,,,,,,,,,,,,,,,,,,,,,,,,,,,,,,,,,,,,,,,,,,,,,,,,,,,,,,,,,,,,,,,
,,,,,,,,,,5bf801e3361a9b00012654c5,22,Kobieta,2022-06-04_08h09.29.155,task,2021.1.4,Win32,59.99520038,628b806c463b948bc644b84f,629af70210943b7ad7ebc746,,,,,2,0,2,0,1,X V Q F H G B L J M P D K C T S W R N Z,,,,,,,,,,,,,,,,,,,,,,,,,,,,,,,,,,,,,,,,,,,,,,,,,,,,,,,,,,,,,,,,,,,,,,,,,,,,,,,,,,,,,,,,,,,,,
,,,,,,,,,,5bf801e3361a9b00012654c5,22,Kobieta,2022-06-04_08h09.29.155,task,2021.1.4,Win32,59.99520038,628b806c463b948bc644b84f,629af70210943b7ad7ebc746,,,,,3,0,3,0,1,X V Q F H G B L J M P D K C T S W R N Z,,,,,,,,,,,,,,,,,,,,,,,,,,,,,,,,,,,,,,,,,,,,,,,,,,,,,,,,,,,,,,,,,,,,,,,,,,,,,,,,,,,,,,,,,,,,,
,,,,,,,,,,5bf801e3361a9b00012654c5,22,Kobieta,2022-06-04_08h09.29.155,task,2021.1.4,Win32,59.99520038,628b806c463b948bc644b84f,629af70210943b7ad7ebc746,,,,,4,0,4,0,1,X V Q F H G B L J M P D K C T S W R N Z,,,,,,,,,,,,,,,,,,,,,,,,,,,,,,,,,,,,,,,,,,,,,,,,,,,,,,,,,,,,,,,,,,,,,,,,,,,,,,,,,,,,,,,,,,,,,
,,,,,,,,,,5bf801e3361a9b00012654c5,22,Kobieta,2022-06-04_08h09.29.155,task,2021.1.4,Win32,59.99520038,628b806c463b948bc644b84f,629af70210943b7ad7ebc746,,,,,5,0,5,0,1,X V Q F H G B L J M P D K C T S W R N Z,,,,,,,,,,,,,,,,,,,,,,,,,,,,,,,,,,,,,,,,,,,,,,,,,,,,,,,,,,,,,,,,,,,,,,,,,,,,,,,,,,,,,,,,,,,,,
,,,,,,,,,,5bf801e3361a9b00012654c5,22,Kobieta,2022-06-04_08h09.29.155,task,2021.1.4,Win32,59.99520038,628b806c463b948bc644b84f,629af70210943b7ad7ebc746,,,,,,,,,,,mzgtrb,"[""m"",""z"",""g"",""t"",""r"",""b""]","[0.4941999999880409,0.6812999999522731,0.9574999999999818,1.2063999999761563,1.471099999964224,2.0338999999761427,2.2620000000000005]",1,MZGTRB,8,0,8,0,1,,,,,,,,,,,,,,,,,,,,,,,,,,,,,,,,,,,,,,,,,,,,,,,,,,,,,,,,,,,,,,,,,,,,,,,,,,,,,,,,,,,
,,,,,,,,,,5bf801e3361a9b00012654c5,22,Kobieta,2022-06-04_08h09.29.155,task,2021.1.4,Win32,59.99520038,628b806c463b948bc644b84f,629af70210943b7ad7ebc746,,,,,0,0,0,0,1,X V Q F H G B L J M P D K C T S W R N Z,,,,,,,,,,,,,,,,,,,,,,,,,,,,,,,,,,,,,,,,,,,,,,,,,,,,,,,,,,,,,,,,,,,,,,,,,,,,,,,,,,,,,,,,,,,,,
,,,,,,,,,,5bf801e3361a9b00012654c5,22,Kobieta,2022-06-04_08h09.29.155,task,2021.1.4,Win32,59.99520038,628b806c463b948bc644b84f,629af70210943b7ad7ebc746,,,,,1,0,1,0,1,X V Q F H G B L J M P D K C T S W R N Z,,,,,,,,,,,,,,,,,,,,,,,,,,,,,,,,,,,,,,,,,,,,,,,,,,,,,,,,,,,,,,,,,,,,,,,,,,,,,,,,,,,,,,,,,,,,,
,,,,,,,,,,5bf801e3361a9b00012654c5,22,Kobieta,2022-06-04_08h09.29.155,task,2021.1.4,Win32,59.99520038,628b806c463b948bc644b84f,629af70210943b7ad7ebc746,,,,,2,0,2,0,1,X V Q F H G B L J M P D K C T S W R N Z,,,,,,,,,,,,,,,,,,,,,,,,,,,,,,,,,,,,,,,,,,,,,,,,,,,,,,,,,,,,,,,,,,,,,,,,,,,,,,,,,,,,,,,,,,,,,
,,,,,,,,,,5bf801e3361a9b00012654c5,22,Kobieta,2022-06-04_08h09.29.155,task,2021.1.4,Win32,59.99520038,628b806c463b948bc644b84f,629af70210943b7ad7ebc746,,,,,3,0,3,0,1,X V Q F H G B L J M P D K C T S W R N Z,,,,,,,,,,,,,,,,,,,,,,,,,,,,,,,,,,,,,,,,,,,,,,,,,,,,,,,,,,,,,,,,,,,,,,,,,,,,,,,,,,,,,,,,,,,,,
,,,,,,,,,,5bf801e3361a9b00012654c5,22,Kobieta,2022-06-04_08h09.29.155,task,2021.1.4,Win32,59.99520038,628b806c463b948bc644b84f,629af70210943b7ad7ebc746,,,,,4,0,4,0,1,X V Q F H G B L J M P D K C T S W R N Z,,,,,,,,,,,,,,,,,,,,,,,,,,,,,,,,,,,,,,,,,,,,,,,,,,,,,,,,,,,,,,,,,,,,,,,,,,,,,,,,,,,,,,,,,,,,,
,,,,,,,,,,5bf801e3361a9b00012654c5,22,Kobieta,2022-06-04_08h09.29.155,task,2021.1.4,Win32,59.99520038,628b806c463b948bc644b84f,629af70210943b7ad7ebc746,,,,,5,0,5,0,1,X V Q F H G B L J M P D K C T S W R N Z,,,,,,,,,,,,,,,,,,,,,,,,,,,,,,,,,,,,,,,,,,,,,,,,,,,,,,,,,,,,,,,,,,,,,,,,,,,,,,,,,,,,,,,,,,,,,
,,,,,,,,,,5bf801e3361a9b00012654c5,22,Kobieta,2022-06-04_08h09.29.155,task,2021.1.4,Win32,59.99520038,628b806c463b948bc644b84f,629af70210943b7ad7ebc746,,,,,,,,,,,cmcsrd,"[""c"",""m"",""c"",""s"",""r"",""d""]","[1.150300000011896,1.3199999999999932,1.7021000000237905,2.0141000000238023,2.281399999976145,2.455100000023833,2.663100000023803]",1,CMCSRD,9,0,9,0,1,,,,,,,,,,,,,,,,,,,,,,,,,,,,,,,,,,,,,,,,,,,,,,,,,,,,,,,,,,,,,,,,,,,,,,,,,,,,,,,,,,,
,,,,,,,,,,5bf801e3361a9b00012654c5,22,Kobieta,2022-06-04_08h09.29.155,task,2021.1.4,Win32,59.99520038,628b806c463b948bc644b84f,629af70210943b7ad7ebc746,,,,,0,0,0,0,1,X V Q F H G B L J M P D K C T S W R N Z,,,,,,,,,,,,,,,,,,,,,,,,,,,,,,,,,,,,,,,,,,,,,,,,,,,,,,,,,,,,,,,,,,,,,,,,,,,,,,,,,,,,,,,,,,,,,
,,,,,,,,,,5bf801e3361a9b00012654c5,22,Kobieta,2022-06-04_08h09.29.155,task,2021.1.4,Win32,59.99520038,628b806c463b948bc644b84f,629af70210943b7ad7ebc746,,,,,1,0,1,0,1,X V Q F H G B L J M P D K C T S W R N Z,,,,,,,,,,,,,,,,,,,,,,,,,,,,,,,,,,,,,,,,,,,,,,,,,,,,,,,,,,,,,,,,,,,,,,,,,,,,,,,,,,,,,,,,,,,,,
,,,,,,,,,,5bf801e3361a9b00012654c5,22,Kobieta,2022-06-04_08h09.29.155,task,2021.1.4,Win32,59.99520038,628b806c463b948bc644b84f,629af70210943b7ad7ebc746,,,,,2,0,2,0,1,X V Q F H G B L J M P D K C T S W R N Z,,,,,,,,,,,,,,,,,,,,,,,,,,,,,,,,,,,,,,,,,,,,,,,,,,,,,,,,,,,,,,,,,,,,,,,,,,,,,,,,,,,,,,,,,,,,,
,,,,,,,,,,5bf801e3361a9b00012654c5,22,Kobieta,2022-06-04_08h09.29.155,task,2021.1.4,Win32,59.99520038,628b806c463b948bc644b84f,629af70210943b7ad7ebc746,,,,,3,0,3,0,1,X V Q F H G B L J M P D K C T S W R N Z,,,,,,,,,,,,,,,,,,,,,,,,,,,,,,,,,,,,,,,,,,,,,,,,,,,,,,,,,,,,,,,,,,,,,,,,,,,,,,,,,,,,,,,,,,,,,
,,,,,,,,,,5bf801e3361a9b00012654c5,22,Kobieta,2022-06-04_08h09.29.155,task,2021.1.4,Win32,59.99520038,628b806c463b948bc644b84f,629af70210943b7ad7ebc746,,,,,4,0,4,0,1,X V Q F H G B L J M P D K C T S W R N Z,,,,,,,,,,,,,,,,,,,,,,,,,,,,,,,,,,,,,,,,,,,,,,,,,,,,,,,,,,,,,,,,,,,,,,,,,,,,,,,,,,,,,,,,,,,,,
,,,,,,,,,,5bf801e3361a9b00012654c5,22,Kobieta,2022-06-04_08h09.29.155,task,2021.1.4,Win32,59.99520038,628b806c463b948bc644b84f,629af70210943b7ad7ebc746,,,,,5,0,5,0,1,X V Q F H G B L J M P D K C T S W R N Z,,,,,,,,,,,,,,,,,,,,,,,,,,,,,,,,,,,,,,,,,,,,,,,,,,,,,,,,,,,,,,,,,,,,,,,,,,,,,,,,,,,,,,,,,,,,,
,,,,,,,,,,5bf801e3361a9b00012654c5,22,Kobieta,2022-06-04_08h09.29.155,task,2021.1.4,Win32,59.99520038,628b806c463b948bc644b84f,629af70210943b7ad7ebc746,,,,,6,0,6,0,1,X V Q F H G B L J M P D K C T S W R N Z,,,,,,,,,,,,,,,,,,,,,,,,,,,,,,,,,,,,,,,,,,,,,,,,,,,,,,,,,,,,,,,,,,,,,,,,,,,,,,,,,,,,,,,,,,,,,
,,,,,,,,,,5bf801e3361a9b00012654c5,22,Kobieta,2022-06-04_08h09.29.155,task,2021.1.4,Win32,59.99520038,628b806c463b948bc644b84f,629af70210943b7ad7ebc746,,,,,,,,,,,sgbvgvb,"[""s"",""g"",""b"",""v"",""g"",""v"",""b""]","[1.101900000035812,1.4473000000119214,1.68540000003577,6.032900000035795,6.5794000000357755,6.928500000000042,7.596500000000049,7.746900000035794]",0,SGBVDVB,10,0,10,0,1,,,,,,,,,,,,,,,,,,,,,,,,,,,,,,,,,,,,,,,,,,,,,,,,,,,,,,,,,,,,,,,,,,,,,,,,,,,,,,,,,,,
,,,,,,,,,,5bf801e3361a9b00012654c5,22,Kobieta,2022-06-04_08h09.29.155,task,2021.1.4,Win32,59.99520038,628b806c463b948bc644b84f,629af70210943b7ad7ebc746,,,,,0,0,0,0,1,X V Q F H G B L J M P D K C T S W R N Z,,,,,,,,,,,,,,,,,,,,,,,,,,,,,,,,,,,,,,,,,,,,,,,,,,,,,,,,,,,,,,,,,,,,,,,,,,,,,,,,,,,,,,,,,,,,,
,,,,,,,,,,5bf801e3361a9b00012654c5,22,Kobieta,2022-06-04_08h09.29.155,task,2021.1.4,Win32,59.99520038,628b806c463b948bc644b84f,629af70210943b7ad7ebc746,,,,,1,0,1,0,1,X V Q F H G B L J M P D K C T S W R N Z,,,,,,,,,,,,,,,,,,,,,,,,,,,,,,,,,,,,,,,,,,,,,,,,,,,,,,,,,,,,,,,,,,,,,,,,,,,,,,,,,,,,,,,,,,,,,
,,,,,,,,,,5bf801e3361a9b00012654c5,22,Kobieta,2022-06-04_08h09.29.155,task,2021.1.4,Win32,59.99520038,628b806c463b948bc644b84f,629af70210943b7ad7ebc746,,,,,2,0,2,0,1,X V Q F H G B L J M P D K C T S W R N Z,,,,,,,,,,,,,,,,,,,,,,,,,,,,,,,,,,,,,,,,,,,,,,,,,,,,,,,,,,,,,,,,,,,,,,,,,,,,,,,,,,,,,,,,,,,,,
,,,,,,,,,,5bf801e3361a9b00012654c5,22,Kobieta,2022-06-04_08h09.29.155,task,2021.1.4,Win32,59.99520038,628b806c463b948bc644b84f,629af70210943b7ad7ebc746,,,,,3,0,3,0,1,X V Q F H G B L J M P D K C T S W R N Z,,,,,,,,,,,,,,,,,,,,,,,,,,,,,,,,,,,,,,,,,,,,,,,,,,,,,,,,,,,,,,,,,,,,,,,,,,,,,,,,,,,,,,,,,,,,,
,,,,,,,,,,5bf801e3361a9b00012654c5,22,Kobieta,2022-06-04_08h09.29.155,task,2021.1.4,Win32,59.99520038,628b806c463b948bc644b84f,629af70210943b7ad7ebc746,,,,,4,0,4,0,1,X V Q F H G B L J M P D K C T S W R N Z,,,,,,,,,,,,,,,,,,,,,,,,,,,,,,,,,,,,,,,,,,,,,,,,,,,,,,,,,,,,,,,,,,,,,,,,,,,,,,,,,,,,,,,,,,,,,
,,,,,,,,,,5bf801e3361a9b00012654c5,22,Kobieta,2022-06-04_08h09.29.155,task,2021.1.4,Win32,59.99520038,628b806c463b948bc644b84f,629af70210943b7ad7ebc746,,,,,5,0,5,0,1,X V Q F H G B L J M P D K C T S W R N Z,,,,,,,,,,,,,,,,,,,,,,,,,,,,,,,,,,,,,,,,,,,,,,,,,,,,,,,,,,,,,,,,,,,,,,,,,,,,,,,,,,,,,,,,,,,,,
,,,,,,,,,,5bf801e3361a9b00012654c5,22,Kobieta,2022-06-04_08h09.29.155,task,2021.1.4,Win32,59.99520038,628b806c463b948bc644b84f,629af70210943b7ad7ebc746,,,,,6,0,6,0,1,X V Q F H G B L J M P D K C T S W R N Z,,,,,,,,,,,,,,,,,,,,,,,,,,,,,,,,,,,,,,,,,,,,,,,,,,,,,,,,,,,,,,,,,,,,,,,,,,,,,,,,,,,,,,,,,,,,,
,,,,,,,,,,5bf801e3361a9b00012654c5,22,Kobieta,2022-06-04_08h09.29.155,task,2021.1.4,Win32,59.99520038,628b806c463b948bc644b84f,629af70210943b7ad7ebc746,,,,,,,,,,,lbpcnjb,"[""l"",""b"",""p"",""c"",""n"",""j"",""b""]","[1.0923999999761804,1.3514999999999873,1.871500000000026,2.113599999964265,2.465099999964252,2.803199999988067,3.7168999999761922,3.994699999988086]",0,LBPCNJS,11,0,11,0,1,,,,,,,,,,,,,,,,,,,,,,,,,,,,,,,,,,,,,,,,,,,,,,,,,,,,,,,,,,,,,,,,,,,,,,,,,,,,,,,,,,,
,,,,,,,,,,5bf801e3361a9b00012654c5,22,Kobieta,2022-06-04_08h09.29.155,task,2021.1.4,Win32,59.99520038,628b806c463b948bc644b84f,629af70210943b7ad7ebc746,,,,,0,0,0,0,1,X V Q F H G B L J M P D K C T S W R N Z,,,,,,,,,,,,,,,,,,,,,,,,,,,,,,,,,,,,,,,,,,,,,,,,,,,,,,,,,,,,,,,,,,,,,,,,,,,,,,,,,,,,,,,,,,,,,
,,,,,,,,,,5bf801e3361a9b00012654c5,22,Kobieta,2022-06-04_08h09.29.155,task,2021.1.4,Win32,59.99520038,628b806c463b948bc644b84f,629af70210943b7ad7ebc746,,,,,1,0,1,0,1,X V Q F H G B L J M P D K C T S W R N Z,,,,,,,,,,,,,,,,,,,,,,,,,,,,,,,,,,,,,,,,,,,,,,,,,,,,,,,,,,,,,,,,,,,,,,,,,,,,,,,,,,,,,,,,,,,,,
,,,,,,,,,,5bf801e3361a9b00012654c5,22,Kobieta,2022-06-04_08h09.29.155,task,2021.1.4,Win32,59.99520038,628b806c463b948bc644b84f,629af70210943b7ad7ebc746,,,,,2,0,2,0,1,X V Q F H G B L J M P D K C T S W R N Z,,,,,,,,,,,,,,,,,,,,,,,,,,,,,,,,,,,,,,,,,,,,,,,,,,,,,,,,,,,,,,,,,,,,,,,,,,,,,,,,,,,,,,,,,,,,,
,,,,,,,,,,5bf801e3361a9b00012654c5,22,Kobieta,2022-06-04_08h09.29.155,task,2021.1.4,Win32,59.99520038,628b806c463b948bc644b84f,629af70210943b7ad7ebc746,,,,,3,0,3,0,1,X V Q F H G B L J M P D K C T S W R N Z,,,,,,,,,,,,,,,,,,,,,,,,,,,,,,,,,,,,,,,,,,,,,,,,,,,,,,,,,,,,,,,,,,,,,,,,,,,,,,,,,,,,,,,,,,,,,
,,,,,,,,,,5bf801e3361a9b00012654c5,22,Kobieta,2022-06-04_08h09.29.155,task,2021.1.4,Win32,59.99520038,628b806c463b948bc644b84f,629af70210943b7ad7ebc746,,,,,4,0,4,0,1,X V Q F H G B L J M P D K C T S W R N Z,,,,,,,,,,,,,,,,,,,,,,,,,,,,,,,,,,,,,,,,,,,,,,,,,,,,,,,,,,,,,,,,,,,,,,,,,,,,,,,,,,,,,,,,,,,,,
,,,,,,,,,,5bf801e3361a9b00012654c5,22,Kobieta,2022-06-04_08h09.29.155,task,2021.1.4,Win32,59.99520038,628b806c463b948bc644b84f,629af70210943b7ad7ebc746,,,,,5,0,5,0,1,X V Q F H G B L J M P D K C T S W R N Z,,,,,,,,,,,,,,,,,,,,,,,,,,,,,,,,,,,,,,,,,,,,,,,,,,,,,,,,,,,,,,,,,,,,,,,,,,,,,,,,,,,,,,,,,,,,,
,,,,,,,,,,5bf801e3361a9b00012654c5,22,Kobieta,2022-06-04_08h09.29.155,task,2021.1.4,Win32,59.99520038,628b806c463b948bc644b84f,629af70210943b7ad7ebc746,,,,,6,0,6,0,1,X V Q F H G B L J M P D K C T S W R N Z,,,,,,,,,,,,,,,,,,,,,,,,,,,,,,,,,,,,,,,,,,,,,,,,,,,,,,,,,,,,,,,,,,,,,,,,,,,,,,,,,,,,,,,,,,,,,
,,,,,,,,,,5bf801e3361a9b00012654c5,22,Kobieta,2022-06-04_08h09.29.155,task,2021.1.4,Win32,59.99520038,628b806c463b948bc644b84f,629af70210943b7ad7ebc746,,,,,,,,,,,rsmllfg,"[""r"",""s"",""m"",""l"",""l"",""f"",""g""]","[1.6014999999999873,1.8704999999999927,2.0390999999642077,2.4661999999880777,2.6133999999761386,3.484999999999957,3.8220000000000027,4.117799999952297]",1,RSMLLFG,12,0,12,0,1,,,,,,,,,,,,,,,,,,,,,,,,,,,,,,,,,,,,,,,,,,,,,,,,,,,,,,,,,,,,,,,,,,,,,,,,,,,,,,,,,,,
,,,,,,,,,,5bf801e3361a9b00012654c5,22,Kobieta,2022-06-04_08h09.29.155,task,2021.1.4,Win32,59.99520038,628b806c463b948bc644b84f,629af70210943b7ad7ebc746,,,,,0,0,0,0,1,X V Q F H G B L J M P D K C T S W R N Z,,,,,,,,,,,,,,,,,,,,,,,,,,,,,,,,,,,,,,,,,,,,,,,,,,,,,,,,,,,,,,,,,,,,,,,,,,,,,,,,,,,,,,,,,,,,,
,,,,,,,,,,5bf801e3361a9b00012654c5,22,Kobieta,2022-06-04_08h09.29.155,task,2021.1.4,Win32,59.99520038,628b806c463b948bc644b84f,629af70210943b7ad7ebc746,,,,,1,0,1,0,1,X V Q F H G B L J M P D K C T S W R N Z,,,,,,,,,,,,,,,,,,,,,,,,,,,,,,,,,,,,,,,,,,,,,,,,,,,,,,,,,,,,,,,,,,,,,,,,,,,,,,,,,,,,,,,,,,,,,
,,,,,,,,,,5bf801e3361a9b00012654c5,22,Kobieta,2022-06-04_08h09.29.155,task,2021.1.4,Win32,59.99520038,628b806c463b948bc644b84f,629af70210943b7ad7ebc746,,,,,2,0,2,0,1,X V Q F H G B L J M P D K C T S W R N Z,,,,,,,,,,,,,,,,,,,,,,,,,,,,,,,,,,,,,,,,,,,,,,,,,,,,,,,,,,,,,,,,,,,,,,,,,,,,,,,,,,,,,,,,,,,,,
,,,,,,,,,,5bf801e3361a9b00012654c5,22,Kobieta,2022-06-04_08h09.29.155,task,2021.1.4,Win32,59.99520038,628b806c463b948bc644b84f,629af70210943b7ad7ebc746,,,,,3,0,3,0,1,X V Q F H G B L J M P D K C T S W R N Z,,,,,,,,,,,,,,,,,,,,,,,,,,,,,,,,,,,,,,,,,,,,,,,,,,,,,,,,,,,,,,,,,,,,,,,,,,,,,,,,,,,,,,,,,,,,,
,,,,,,,,,,5bf801e3361a9b00012654c5,22,Kobieta,2022-06-04_08h09.29.155,task,2021.1.4,Win32,59.99520038,628b806c463b948bc644b84f,629af70210943b7ad7ebc746,,,,,4,0,4,0,1,X V Q F H G B L J M P D K C T S W R N Z,,,,,,,,,,,,,,,,,,,,,,,,,,,,,,,,,,,,,,,,,,,,,,,,,,,,,,,,,,,,,,,,,,,,,,,,,,,,,,,,,,,,,,,,,,,,,
,,,,,,,,,,5bf801e3361a9b00012654c5,22,Kobieta,2022-06-04_08h09.29.155,task,2021.1.4,Win32,59.99520038,628b806c463b948bc644b84f,629af70210943b7ad7ebc746,,,,,5,0,5,0,1,X V Q F H G B L J M P D K C T S W R N Z,,,,,,,,,,,,,,,,,,,,,,,,,,,,,,,,,,,,,,,,,,,,,,,,,,,,,,,,,,,,,,,,,,,,,,,,,,,,,,,,,,,,,,,,,,,,,
,,,,,,,,,,5bf801e3361a9b00012654c5,22,Kobieta,2022-06-04_08h09.29.155,task,2021.1.4,Win32,59.99520038,628b806c463b948bc644b84f,629af70210943b7ad7ebc746,,,,,6,0,6,0,1,X V Q F H G B L J M P D K C T S W R N Z,,,,,,,,,,,,,,,,,,,,,,,,,,,,,,,,,,,,,,,,,,,,,,,,,,,,,,,,,,,,,,,,,,,,,,,,,,,,,,,,,,,,,,,,,,,,,
,,,,,,,,,,5bf801e3361a9b00012654c5,22,Kobieta,2022-06-04_08h09.29.155,task,2021.1.4,Win32,59.99520038,628b806c463b948bc644b84f,629af70210943b7ad7ebc746,,,,,,,,,,,vsdjpsz,"[""v"",""s"",""d"",""j"",""p"",""s"",""z""]","[0.7338000000119109,0.9976000000238514,1.3683000000119137,1.7344000000357482,3.1721000000238178,4.371499999999969,4.664400000035755,5.005100000023845]",0,VSDJDPZ,13,0,13,0,1,,,,,,,,,,,,,,,,,,,,,,,,,,,,,,,,,,,,,,,,,,,,,,,,,,,,,,,,,,,,,,,,,,,,,,,,,,,,,,,,,,,
,,,,,,,,,,5bf801e3361a9b00012654c5,22,Kobieta,2022-06-04_08h09.29.155,task,2021.1.4,Win32,59.99520038,628b806c463b948bc644b84f,629af70210943b7ad7ebc746,,,,,,,,,,,,,,,,,,,,,space,7.1918,5,"[""5""]",1,[3.402099999964207],[3.402099999964207],0,0,0,5,1,Practice,6,(4/2) + 3,5,,,,,,,,,,,,,,,,,,,,,,,,,,,,,,,,,,,,,,,,,,,,,,,,,,,,,,,,,,,,,,,,,,,
,,,,,,,,,,5bf801e3361a9b00012654c5,22,Kobieta,2022-06-04_08h09.29.155,task,2021.1.4,Win32,59.99520038,628b806c463b948bc644b84f,629af70210943b7ad7ebc746,,,,,,,,,,,,,,,,,,,,,,,2,"[""2""]",1,[3.2198000000119578],"[3.402099999964207,3.2198000000119578]",0,1,1,2,1,Practice,3,(4x4) - 14,2,,,,,,,,,,,,,,,,,,,,,,,,,,,,,,,,,,,,,,,,,,,,,,,,,,,,,,,,,,,,,,,,,,,
,,,,,,,,,,5bf801e3361a9b00012654c5,22,Kobieta,2022-06-04_08h09.29.155,task,2021.1.4,Win32,59.99520038,628b806c463b948bc644b84f,629af70210943b7ad7ebc746,,,,,,,,,,,,,,,,,,,,,,,0,"[""0""]",1,[1.7202000000477256],"[3.402099999964207,3.2198000000119578,1.7202000000477256]",0,2,2,0,1,Practice,1,(3x3) -  9,0,,,,,,,,,,,,,,,,,,,,,,,,,,,,,,,,,,,,,,,,,,,,,,,,,,,,,,,,,,,,,,,,,,,
,,,,,,,,,,5bf801e3361a9b00012654c5,22,Kobieta,2022-06-04_08h09.29.155,task,2021.1.4,Win32,59.99520038,628b806c463b948bc644b84f,629af70210943b7ad7ebc746,,,,,,,,,,,,,,,,,,,,,,,7,"[""7""]",1,[5.681800000012004],"[3.402099999964207,3.2198000000119578,1.7202000000477256,5.681800000012004]",0,3,3,7,1,Practice,8,(5x5) - 18,7,,,,,,,,,,,,,,,,,,,,,,,,,,,,,,,,,,,,,,,,,,,,,,,,,,,,,,,,,,,,,,,,,,,
,,,,,,,,,,5bf801e3361a9b00012654c5,22,Kobieta,2022-06-04_08h09.29.155,task,2021.1.4,Win32,59.99520038,628b806c463b948bc644b84f,629af70210943b7ad7ebc746,,,,,,,,,,,,,,,,,,,,,,,9,"[""9""]",1,[2.138500000000022],"[3.402099999964207,3.2198000000119578,1.7202000000477256,5.681800000012004,2.138500000000022]",0,4,4,9,1,Practice,10,(20/2) - 1,9,,,,,,,,,,,,,,,,,,,,,,,,,,,,,,,,,,,,,,,,,,,,,,,,,,,,,,,,,,,,,,,,,,,
,,,,,,,,,,5bf801e3361a9b00012654c5,22,Kobieta,2022-06-04_08h09.29.155,task,2021.1.4,Win32,59.99520038,628b806c463b948bc644b84f,629af70210943b7ad7ebc746,,,,,,,,,,,,,,,,,,,,,,,8,"[""8""]",1,[1.8034999999999854],"[3.402099999964207,3.2198000000119578,1.7202000000477256,5.681800000012004,2.138500000000022,1.8034999999999854]",0,5,5,8,1,Practice,9,(3x3) - 1,8,,,,,,,,,,,,,,,,,,,,,,,,,,,,,,,,,,,,,,,,,,,,,,,,,,,,,,,,,,,,,,,,,,,
,,,,,,,,,,5bf801e3361a9b00012654c5,22,Kobieta,2022-06-04_08h09.29.155,task,2021.1.4,Win32,59.99520038,628b806c463b948bc644b84f,629af70210943b7ad7ebc746,,,,,,,,,,,,,,,,,,,,,,,6,"[""6""]",1,[2.0194999999999936],"[3.402099999964207,3.2198000000119578,1.7202000000477256,5.681800000012004,2.138500000000022,1.8034999999999854,2.0194999999999936]",0,6,6,6,1,Practice,7,(25/5) + 1,6,,,,,,,,,,,,,,,,,,,,,,,,,,,,,,,,,,,,,,,,,,,,,,,,,,,,,,,,,,,,,,,,,,,
,,,,,,,,,,5bf801e3361a9b00012654c5,22,Kobieta,2022-06-04_08h09.29.155,task,2021.1.4,Win32,59.99520038,628b806c463b948bc644b84f,629af70210943b7ad7ebc746,,,,,,,,,,,,,,,,,,,,,,,1,"[""1""]",1,[1.9495000000000573],"[3.402099999964207,3.2198000000119578,1.7202000000477256,5.681800000012004,2.138500000000022,1.8034999999999854,2.0194999999999936,1.9495000000000573]",0,7,7,1,1,Practice,2,(4x4) - 15,1,,,,,,,,,,,,,,,,,,,,,,,,,,,,,,,,,,,,,,,,,,,,,,,,,,,,,,,,,,,,,,,,,,,
,,,,,,,,,,5bf801e3361a9b00012654c5,22,Kobieta,2022-06-04_08h09.29.155,task,2021.1.4,Win32,59.99520038,628b806c463b948bc644b84f,629af70210943b7ad7ebc746,,,,,,,,,,,,,,,,,,,,,,,3,"[""3""]",1,[3.3299000000357637],"[3.402099999964207,3.2198000000119578,1.7202000000477256,5.681800000012004,2.138500000000022,1.8034999999999854,2.0194999999999936,1.9495000000000573,3.3299000000357637]",0,8,8,3,1,Practice,4,(8/4) + 1,3,,,,,,,,,,,,,,,,,,,,,,,,,,,,,,,,,,,,,,,,,,,,,,,,,,,,,,,,,,,,,,,,,,,
,,,,,,,,,,5bf801e3361a9b00012654c5,22,Kobieta,2022-06-04_08h09.29.155,task,2021.1.4,Win32,59.99520038,628b806c463b948bc644b84f,629af70210943b7ad7ebc746,,,,,,,,,,,,,,,,,,,,,,,4,"[""4""]",1,[2.967400000035809],"[3.402099999964207,3.2198000000119578,1.7202000000477256,5.681800000012004,2.138500000000022,1.8034999999999854,2.0194999999999936,1.9495000000000573,3.3299000000357637,2.967400000035809]",0,9,9,4,1,Practice,5,(2x6) - 8,4,,,,,,,,,,,,,,,,,,,,,,,,,,,,,,,,,,,,,,,,,,,,,,,,,,,,,,,,,,,,,,,,,,,
,,,,,,,,,,5bf801e3361a9b00012654c5,22,Kobieta,2022-06-04_08h09.29.155,task,2021.1.4,Win32,59.99520038,628b806c463b948bc644b84f,629af70210943b7ad7ebc746,,,,,,,,,,,,,,,,,,,,,,,,,,,,,,,,,,,,,1,28.2322,1.882146667,21.932236,1.209193561,5.001866053,space,1.1086,0,0,0,0,1,,,,,,,,,,,,,,,,,,,,,,,,,,,,,,,,,,,,,,,,,,,,,,,,,,,,,,
,,,,,,,,,,5bf801e3361a9b00012654c5,22,Kobieta,2022-06-04_08h09.29.155,task,2021.1.4,Win32,59.99520038,628b806c463b948bc644b84f,629af70210943b7ad7ebc746,,,,,,,,,,,,,,,,,,,,,,,9,,,,,,,,,,Practice,10,(20/2) - 1,9,,,,,,,,,,,,,,space,12.9987,"[""9""]",1,[2.3268000000119855],1,0,0,0,9,1,,,,,,,,,,,,,,,,,,,,,,,,,,,,,,,,,,,,,,,,,,,
,,,,,,,,,,5bf801e3361a9b00012654c5,22,Kobieta,2022-06-04_08h09.29.155,task,2021.1.4,Win32,59.99520038,628b806c463b948bc644b84f,629af70210943b7ad7ebc746,,,,,,,,,,X V Q F H G B L J M P D K C T S W R N Z,,,,,,,,,,,,,,,,,,,,,,,,,,,,,,,,,,,,,,,,,,,,,,,,,,,0,0,0,0,1,,,,,,,,,,,,,,,,,,,,,,,,,,,,,,,,,,,,,,
,,,,,,,,,,5bf801e3361a9b00012654c5,22,Kobieta,2022-06-04_08h09.29.155,task,2021.1.4,Win32,59.99520038,628b806c463b948bc644b84f,629af70210943b7ad7ebc746,,,,,,,,,,,,,,,,,,,,,,,9,,,,,,,,,,Practice,10,(20/2) - 1,9,,,,,,,,,,,,,,,,"[""9""]",1,[2.68389999997612],1,0,0,0,9,1,,,,,,,,,,,,,,,,,,,,,,,,,,,,,,,,,,,,,,,,,,,
,,,,,,,,,,5bf801e3361a9b00012654c5,22,Kobieta,2022-06-04_08h09.29.155,task,2021.1.4,Win32,59.99520038,628b806c463b948bc644b84f,629af70210943b7ad7ebc746,,,,,,,,,,X V Q F H G B L J M P D K C T S W R N Z,,,,,,,,,,,,,,,,,,,,,,,,,,,,,,,,,,,,,,,,,,,,,,,,,,,1,0,1,0,1,,,,,,,,,,,,,,,,,,,,,,,,,,,,,,,,,,,,,,
,,,,,,,,,,5bf801e3361a9b00012654c5,22,Kobieta,2022-06-04_08h09.29.155,task,2021.1.4,Win32,59.99520038,628b806c463b948bc644b84f,629af70210943b7ad7ebc746,,,,,,,,,,,,,,,,,,,,,,,,,,,,,,,,,,,,,,,,,,,,,,,,,,,,,,,,,,,,,,,,,,zb,"[""z"",""b""]",0,"[2.00129999995238,2.26529999995239,3.046799999952327]",1,0,0,0,0,1,,,,,,,,,,,,,,,,,,,,,,,,,,,,
,,,,,,,,,,5bf801e3361a9b00012654c5,22,Kobieta,2022-06-04_08h09.29.155,task,2021.1.4,Win32,59.99520038,628b806c463b948bc644b84f,629af70210943b7ad7ebc746,,,,,,,,,,,,,,,,,,,,,,,8,,,,,,,,,,Practice,9,(3x3) - 1,8,,,,,,,,,,,,,,,,"[""8""]",1,[2.546300000011911],1,0,0,0,8,1,,,,,,,,,,,,,,,,,,,,,,,,,,,,,,,,,,,,,,,,,,,
,,,,,,,,,,5bf801e3361a9b00012654c5,22,Kobieta,2022-06-04_08h09.29.155,task,2021.1.4,Win32,59.99520038,628b806c463b948bc644b84f,629af70210943b7ad7ebc746,,,,,,,,,,X V Q F H G B L J M P D K C T S W R N Z,,,,,,,,,,,,,,,,,,,,,,,,,,,,,,,,,,,,,,,,,,,,,,,,,,,0,0,0,0,1,,,,,,,,,,,,,,,,,,,,,,,,,,,,,,,,,,,,,,
,,,,,,,,,,5bf801e3361a9b00012654c5,22,Kobieta,2022-06-04_08h09.29.155,task,2021.1.4,Win32,59.99520038,628b806c463b948bc644b84f,629af70210943b7ad7ebc746,,,,,,,,,,,,,,,,,,,,,,,5,,,,,,,,,,Practice,6,(4/2) + 3,5,,,,,,,,,,,,,,,,"[""5""]",1,[3.084100000023909],1,0,0,0,5,1,,,,,,,,,,,,,,,,,,,,,,,,,,,,,,,,,,,,,,,,,,,
,,,,,,,,,,5bf801e3361a9b00012654c5,22,Kobieta,2022-06-04_08h09.29.155,task,2021.1.4,Win32,59.99520038,628b806c463b948bc644b84f,629af70210943b7ad7ebc746,,,,,,,,,,X V Q F H G B L J M P D K C T S W R N Z,,,,,,,,,,,,,,,,,,,,,,,,,,,,,,,,,,,,,,,,,,,,,,,,,,,1,0,1,0,1,,,,,,,,,,,,,,,,,,,,,,,,,,,,,,,,,,,,,,
,,,,,,,,,,5bf801e3361a9b00012654c5,22,Kobieta,2022-06-04_08h09.29.155,task,2021.1.4,Win32,59.99520038,628b806c463b948bc644b84f,629af70210943b7ad7ebc746,,,,,,,,,,,,,,,,,,,,,,,,,,,,,,,,,,,,,,,,,,,,,,,,,,,,,,,,,,,,,,,,,,zv,"[""z"",""v""]",0,"[2.2771999999880563,2.5254999999999654,2.7846999999881064]",1,1,0,1,0,1,,,,,,,,,,,,,,,,,,,,,,,,,,,,
,,,,,,,,,,5bf801e3361a9b00012654c5,22,Kobieta,2022-06-04_08h09.29.155,task,2021.1.4,Win32,59.99520038,628b806c463b948bc644b84f,629af70210943b7ad7ebc746,,,,,,,,,,,,,,,,,,,,,,,8,,,,,,,,,,Practice,10,(20/2) - 1,9,,,,,,,,,,,,,,,,"[""8""]",0,[4.321399999976165],0,0,0,0,9,1,,,,,,,,,,,,,,,,,,,,,,,,,,,,,,,,,,,,,,,,,,,
,,,,,,,,,,5bf801e3361a9b00012654c5,22,Kobieta,2022-06-04_08h09.29.155,task,2021.1.4,Win32,59.99520038,628b806c463b948bc644b84f,629af70210943b7ad7ebc746,,,,,,,,,,,,,,,,,,,,,,,8,,,,,,,,,,Practice,9,(3x3) - 1,8,,,,,,,,,,,,,,,,"[""8""]",1,[1.9833999999762],1,0,1,1,8,1,,,,,,,,,,,,,,,,,,,,,,,,,,,,,,,,,,,,,,,,,,,
,,,,,,,,,,5bf801e3361a9b00012654c5,22,Kobieta,2022-06-04_08h09.29.155,task,2021.1.4,Win32,59.99520038,628b806c463b948bc644b84f,629af70210943b7ad7ebc746,,,,,,,,,,X V Q F H G B L J M P D K C T S W R N Z,,,,,,,,,,,,,,,,,,,,,,,,,,,,,,,,,,,,,,,,,,,,,,,,,,,0,0,0,0,1,,,,,,,,,,,,,,,,,,,,,,,,,,,,,,,,,,,,,,
,,,,,,,,,,5bf801e3361a9b00012654c5,22,Kobieta,2022-06-04_08h09.29.155,task,2021.1.4,Win32,59.99520038,628b806c463b948bc644b84f,629af70210943b7ad7ebc746,,,,,,,,,,,,,,,,,,,,,,,7,,,,,,,,,,Practice,8,(5x5) - 18,7,,,,,,,,,,,,,,,,"[""7""]",1,[3.25959999996428],1,0,0,0,7,1,,,,,,,,,,,,,,,,,,,,,,,,,,,,,,,,,,,,,,,,,,,
,,,,,,,,,,5bf801e3361a9b00012654c5,22,Kobieta,2022-06-04_08h09.29.155,task,2021.1.4,Win32,59.99520038,628b806c463b948bc644b84f,629af70210943b7ad7ebc746,,,,,,,,,,X V Q F H G B L J M P D K C T S W R N Z,,,,,,,,,,,,,,,,,,,,,,,,,,,,,,,,,,,,,,,,,,,,,,,,,,,1,0,1,0,1,,,,,,,,,,,,,,,,,,,,,,,,,,,,,,,,,,,,,,
,,,,,,,,,,5bf801e3361a9b00012654c5,22,Kobieta,2022-06-04_08h09.29.155,task,2021.1.4,Win32,59.99520038,628b806c463b948bc644b84f,629af70210943b7ad7ebc746,,,,,,,,,,,,,,,,,,,,,,,,,,,,,,,,,,,,,,,,,,,,,,,,,,,,,,,,,,,,,,,,,,kb,"[""k"",""b""]",0,"[1.5146000000238473,1.6768000000118946,2.0864000000357237]",1,2,0,2,0,1,,,,,,,,,,,,,,,,,,,,,,,,,,,,
,,,,,,,,,,5bf801e3361a9b00012654c5,22,Kobieta,2022-06-04_08h09.29.155,task,2021.1.4,Win32,59.99520038,628b806c463b948bc644b84f,629af70210943b7ad7ebc746,,,,,,,,,,,,,,,,,,,,,,,5,,,,,,,,,,Task,12,(4x4) - 11,5,,,,,,,,,,,,,,,,,,,1,,,,,,,,,,,,,,,,,,,,,space,17.2658,"[""5""]",1,[3.1740999999642554],0,0,0,11,1,,,,,,,,,,,,,,,,,,
,,,,,,,,,,5bf801e3361a9b00012654c5,22,Kobieta,2022-06-04_08h09.29.155,task,2021.1.4,Win32,59.99520038,628b806c463b948bc644b84f,629af70210943b7ad7ebc746,,,,,,,,,,X V Q F H G B L J M P D K C T S W R N Z,,,,,,,,,,,,,,,,,,,,,,,,,,,,,,,,,,,,,,,,,,,,,,,,,,,,,,,,,,,,,,,,,,,,,,,,,,,,0,0,0,0,1,,,,,,,,,,,,,
,,,,,,,,,,5bf801e3361a9b00012654c5,22,Kobieta,2022-06-04_08h09.29.155,task,2021.1.4,Win32,59.99520038,628b806c463b948bc644b84f,629af70210943b7ad7ebc746,,,,,,,,,,,,,,,,,,,,,,,6,,,,,,,,,,Task,5,(2x3) + 0,6,,,,,,,,,,,,,,,,,,,1,,,,,,,,,,,,,,,,,,,,,,,"[""6""]",1,[1.947999999999979],0,0,0,4,1,,,,,,,,,,,,,,,,,,
,,,,,,,,,,5bf801e3361a9b00012654c5,22,Kobieta,2022-06-04_08h09.29.155,task,2021.1.4,Win32,59.99520038,628b806c463b948bc644b84f,629af70210943b7ad7ebc746,,,,,,,,,,X V Q F H G B L J M P D K C T S W R N Z,,,,,,,,,,,,,,,,,,,,,,,,,,,,,,,,,,,,,,,,,,,,,,,,,,,,,,,,,,,,,,,,,,,,,,,,,,,,1,0,1,0,1,,,,,,,,,,,,,
,,,,,,,,,,5bf801e3361a9b00012654c5,22,Kobieta,2022-06-04_08h09.29.155,task,2021.1.4,Win32,59.99520038,628b806c463b948bc644b84f,629af70210943b7ad7ebc746,,,,,,,,,,,,,,,,,,,,,,,,,,,,,,,,,,,,,,,,,,,,,,,,,,,,,,,,,,,,,,,,,,,,,,,,,,,,,,,,,,,,,,,,,,,zd,"[""z"",""d""]",0,"[1.3175999999642727,1.5175999999643182,2.065899999976182]",1,ZD,0,0,0,0,1,,
,,,,,,,,,,5bf801e3361a9b00012654c5,22,Kobieta,2022-06-04_08h09.29.155,task,2021.1.4,Win32,59.99520038,628b806c463b948bc644b84f,629af70210943b7ad7ebc746,,,,,,,,,,,,,,,,,,,,,,,,,,,,,,,,,Task,29,(3x8) - 19 ,5,,,,,,,,,,,,,,,,,,,0,,,,,,,,,,,,,,,,,,,,,,,,0,,0,0,0,28,1,,,,,,,,,,,,,,,,,,
,,,,,,,,,,5bf801e3361a9b00012654c5,22,Kobieta,2022-06-04_08h09.29.155,task,2021.1.4,Win32,59.99520038,628b806c463b948bc644b84f,629af70210943b7ad7ebc746,,,,,,,,,,,,,,,,,,,,,,,2,,,,,,,,,,Task,10,(2x5) - 8,2,,,,,,,,,,,,,,,,,,,1,,,,,,,,,,,,,,,,,,,,,,,"[""2""]",1,[3.883800000011888],0,1,1,9,1,,,,,,,,,,,,,,,,,,
,,,,,,,,,,5bf801e3361a9b00012654c5,22,Kobieta,2022-06-04_08h09.29.155,task,2021.1.4,Win32,59.99520038,628b806c463b948bc644b84f,629af70210943b7ad7ebc746,,,,,,,,,,X V Q F H G B L J M P D K C T S W R N Z,,,,,,,,,,,,,,,,,,,,,,,,,,,,,,,,,,,,,,,,,,,,,,,,,,,,,,,,,,,,,,,,,,,,,,,,,,,,0,0,0,0,1,,,,,,,,,,,,,
,,,,,,,,,,5bf801e3361a9b00012654c5,22,Kobieta,2022-06-04_08h09.29.155,task,2021.1.4,Win32,59.99520038,628b806c463b948bc644b84f,629af70210943b7ad7ebc746,,,,,,,,,,,,,,,,,,,,,,,,,,,,,,,,,Task,11,(18/3) - 2,4,,,,,,,,,,,,,,,,,,,0,,,,,,,,,,,,,,,,,,,,,,,,0,,0,0,0,10,1,,,,,,,,,,,,,,,,,,
,,,,,,,,,,5bf801e3361a9b00012654c5,22,Kobieta,2022-06-04_08h09.29.155,task,2021.1.4,Win32,59.99520038,628b806c463b948bc644b84f,629af70210943b7ad7ebc746,,,,,,,,,,,,,,,,,,,,,,,9,,,,,,,,,,Task,40,(7x2) - 5,9,,,,,,,,,,,,,,,,,,,1,,,,,,,,,,,,,,,,,,,,,,,"[""9""]",1,[2.4886999999880572],0,1,1,39,1,,,,,,,,,,,,,,,,,,
,,,,,,,,,,5bf801e3361a9b00012654c5,22,Kobieta,2022-06-04_08h09.29.155,task,2021.1.4,Win32,59.99520038,628b806c463b948bc644b84f,629af70210943b7ad7ebc746,,,,,,,,,,X V Q F H G B L J M P D K C T S W R N Z,,,,,,,,,,,,,,,,,,,,,,,,,,,,,,,,,,,,,,,,,,,,,,,,,,,,,,,,,,,,,,,,,,,,,,,,,,,,1,0,1,0,1,,,,,,,,,,,,,
,,,,,,,,,,5bf801e3361a9b00012654c5,22,Kobieta,2022-06-04_08h09.29.155,task,2021.1.4,Win32,59.99520038,628b806c463b948bc644b84f,629af70210943b7ad7ebc746,,,,,,,,,,,,,,,,,,,,,,,2,,,,,,,,,,Task,19,(6/2) - 1,2,,,,,,,,,,,,,,,,,,,1,,,,,,,,,,,,,,,,,,,,,,,"[""2""]",1,[2.551099999964322],0,0,0,18,1,,,,,,,,,,,,,,,,,,
,,,,,,,,,,5bf801e3361a9b00012654c5,22,Kobieta,2022-06-04_08h09.29.155,task,2021.1.4,Win32,59.99520038,628b806c463b948bc644b84f,629af70210943b7ad7ebc746,,,,,,,,,,X V Q F H G B L J M P D K C T S W R N Z,,,,,,,,,,,,,,,,,,,,,,,,,,,,,,,,,,,,,,,,,,,,,,,,,,,,,,,,,,,,,,,,,,,,,,,,,,,,2,0,2,0,1,,,,,,,,,,,,,
,,,,,,,,,,5bf801e3361a9b00012654c5,22,Kobieta,2022-06-04_08h09.29.155,task,2021.1.4,Win32,59.99520038,628b806c463b948bc644b84f,629af70210943b7ad7ebc746,,,,,,,,,,,,,,,,,,,,,,,,,,,,,,,,,,,,,,,,,,,,,,,,,,,,,,,,,,,,,,,,,,,,,,,,,,,,,,,,,,,,,,,,,,,lpj,"[""l"",""p"",""j""]",0,"[1.5353000000119437,1.69190000003573,2.2068000000118673,2.5216000000237955]",1,LPJ,1,0,1,0,1,,
,,,,,,,,,,5bf801e3361a9b00012654c5,22,Kobieta,2022-06-04_08h09.29.155,task,2021.1.4,Win32,59.99520038,628b806c463b948bc644b84f,629af70210943b7ad7ebc746,,,,,,,,,,,,,,,,,,,,,,,1,,,,,,,,,,Task,9,(3x7) - 20,1,,,,,,,,,,,,,,,,,,,1,,,,,,,,,,,,,,,,,,,,,,,"[""1""]",1,[2.6688999999762473],0,0,0,8,1,,,,,,,,,,,,,,,,,,
,,,,,,,,,,5bf801e3361a9b00012654c5,22,Kobieta,2022-06-04_08h09.29.155,task,2021.1.4,Win32,59.99520038,628b806c463b948bc644b84f,629af70210943b7ad7ebc746,,,,,,,,,,X V Q F H G B L J M P D K C T S W R N Z,,,,,,,,,,,,,,,,,,,,,,,,,,,,,,,,,,,,,,,,,,,,,,,,,,,,,,,,,,,,,,,,,,,,,,,,,,,,0,0,0,0,1,,,,,,,,,,,,,
,,,,,,,,,,5bf801e3361a9b00012654c5,22,Kobieta,2022-06-04_08h09.29.155,task,2021.1.4,Win32,59.99520038,628b806c463b948bc644b84f,629af70210943b7ad7ebc746,,,,,,,,,,,,,,,,,,,,,,,0,,,,,,,,,,Task,33,(1/1) - 1,0,,,,,,,,,,,,,,,,,,,1,,,,,,,,,,,,,,,,,,,,,,,"[""0""]",1,[1.9036999999880209],0,0,0,32,1,,,,,,,,,,,,,,,,,,
,,,,,,,,,,5bf801e3361a9b00012654c5,22,Kobieta,2022-06-04_08h09.29.155,task,2021.1.4,Win32,59.99520038,628b806c463b948bc644b84f,629af70210943b7ad7ebc746,,,,,,,,,,X V Q F H G B L J M P D K C T S W R N Z,,,,,,,,,,,,,,,,,,,,,,,,,,,,,,,,,,,,,,,,,,,,,,,,,,,,,,,,,,,,,,,,,,,,,,,,,,,,1,0,1,0,1,,,,,,,,,,,,,
,,,,,,,,,,5bf801e3361a9b00012654c5,22,Kobieta,2022-06-04_08h09.29.155,task,2021.1.4,Win32,59.99520038,628b806c463b948bc644b84f,629af70210943b7ad7ebc746,,,,,,,,,,,,,,,,,,,,,,,1,,,,,,,,,,Task,9,(3x7) - 20,1,,,,,,,,,,,,,,,,,,,1,,,,,,,,,,,,,,,,,,,,,,,"[""1""]",1,[2.1463000000119337],0,0,0,8,1,,,,,,,,,,,,,,,,,,
,,,,,,,,,,5bf801e3361a9b00012654c5,22,Kobieta,2022-06-04_08h09.29.155,task,2021.1.4,Win32,59.99520038,628b806c463b948bc644b84f,629af70210943b7ad7ebc746,,,,,,,,,,X V Q F H G B L J M P D K C T S W R N Z,,,,,,,,,,,,,,,,,,,,,,,,,,,,,,,,,,,,,,,,,,,,,,,,,,,,,,,,,,,,,,,,,,,,,,,,,,,,2,0,2,0,1,,,,,,,,,,,,,
,,,,,,,,,,5bf801e3361a9b00012654c5,22,Kobieta,2022-06-04_08h09.29.155,task,2021.1.4,Win32,59.99520038,628b806c463b948bc644b84f,629af70210943b7ad7ebc746,,,,,,,,,,,,,,,,,,,,,,,3,,,,,,,,,,Task,20,(18/9) + 1,3,,,,,,,,,,,,,,,,,,,1,,,,,,,,,,,,,,,,,,,,,,,"[""3""]",1,[2.5971999999879927],0,0,0,19,1,,,,,,,,,,,,,,,,,,
,,,,,,,,,,5bf801e3361a9b00012654c5,22,Kobieta,2022-06-04_08h09.29.155,task,2021.1.4,Win32,59.99520038,628b806c463b948bc644b84f,629af70210943b7ad7ebc746,,,,,,,,,,X V Q F H G B L J M P D K C T S W R N Z,,,,,,,,,,,,,,,,,,,,,,,,,,,,,,,,,,,,,,,,,,,,,,,,,,,,,,,,,,,,,,,,,,,,,,,,,,,,3,0,3,0,1,,,,,,,,,,,,,
,,,,,,,,,,5bf801e3361a9b00012654c5,22,Kobieta,2022-06-04_08h09.29.155,task,2021.1.4,Win32,59.99520038,628b806c463b948bc644b84f,629af70210943b7ad7ebc746,,,,,,,,,,,,,,,,,,,,,,,,,,,,,,,,,,,,,,,,,,,,,,,,,,,,,,,,,,,,,,,,,,,,,,,,,,,,,,,,,,,,,,,,,,,vnjn,"[""v"",""n"",""j"",""n""]",0,"[3.485099999964291,3.684399999976222,3.8511999999881255,4.000899999976241,4.500199999988126]",1,VNJN,2,0,2,0,1,,
,,,,,,,,,,5bf801e3361a9b00012654c5,22,Kobieta,2022-06-04_08h09.29.155,task,2021.1.4,Win32,59.99520038,628b806c463b948bc644b84f,629af70210943b7ad7ebc746,,,,,,,,,,,,,,,,,,,,,,,5,,,,,,,,,,Task,36,(8/4) + 3,5,,,,,,,,,,,,,,,,,,,1,,,,,,,,,,,,,,,,,,,,,,,"[""5""]",1,[3.981200000047693],0,0,0,35,1,,,,,,,,,,,,,,,,,,
,,,,,,,,,,5bf801e3361a9b00012654c5,22,Kobieta,2022-06-04_08h09.29.155,task,2021.1.4,Win32,59.99520038,628b806c463b948bc644b84f,629af70210943b7ad7ebc746,,,,,,,,,,X V Q F H G B L J M P D K C T S W R N Z,,,,,,,,,,,,,,,,,,,,,,,,,,,,,,,,,,,,,,,,,,,,,,,,,,,,,,,,,,,,,,,,,,,,,,,,,,,,0,0,0,0,1,,,,,,,,,,,,,
,,,,,,,,,,5bf801e3361a9b00012654c5,22,Kobieta,2022-06-04_08h09.29.155,task,2021.1.4,Win32,59.99520038,628b806c463b948bc644b84f,629af70210943b7ad7ebc746,,,,,,,,,,,,,,,,,,,,,,,,,,,,,,,,,Task,16,(3x8) - 15,9,,,,,,,,,,,,,,,,,,,0,,,,,,,,,,,,,,,,,,,,,,,,0,,0,0,0,15,1,,,,,,,,,,,,,,,,,,
,,,,,,,,,,5bf801e3361a9b00012654c5,22,Kobieta,2022-06-04_08h09.29.155,task,2021.1.4,Win32,59.99520038,628b806c463b948bc644b84f,629af70210943b7ad7ebc746,,,,,,,,,,,,,,,,,,,,,,,5,,,,,,,,,,Task,12,(4x4) - 11,5,,,,,,,,,,,,,,,,,,,1,,,,,,,,,,,,,,,,,,,,,,,"[""5""]",1,[2.9046000000238337],0,1,1,11,1,,,,,,,,,,,,,,,,,,
,,,,,,,,,,5bf801e3361a9b00012654c5,22,Kobieta,2022-06-04_08h09.29.155,task,2021.1.4,Win32,59.99520038,628b806c463b948bc644b84f,629af70210943b7ad7ebc746,,,,,,,,,,X V Q F H G B L J M P D K C T S W R N Z,,,,,,,,,,,,,,,,,,,,,,,,,,,,,,,,,,,,,,,,,,,,,,,,,,,,,,,,,,,,,,,,,,,,,,,,,,,,1,0,1,0,1,,,,,,,,,,,,,
,,,,,,,,,,5bf801e3361a9b00012654c5,22,Kobieta,2022-06-04_08h09.29.155,task,2021.1.4,Win32,59.99520038,628b806c463b948bc644b84f,629af70210943b7ad7ebc746,,,,,,,,,,,,,,,,,,,,,,,1,,,,,,,,,,Task,9,(3x7) - 20,1,,,,,,,,,,,,,,,,,,,1,,,,,,,,,,,,,,,,,,,,,,,"[""1""]",1,[2.3646999999880336],0,0,0,8,1,,,,,,,,,,,,,,,,,,
,,,,,,,,,,5bf801e3361a9b00012654c5,22,Kobieta,2022-06-04_08h09.29.155,task,2021.1.4,Win32,59.99520038,628b806c463b948bc644b84f,629af70210943b7ad7ebc746,,,,,,,,,,X V Q F H G B L J M P D K C T S W R N Z,,,,,,,,,,,,,,,,,,,,,,,,,,,,,,,,,,,,,,,,,,,,,,,,,,,,,,,,,,,,,,,,,,,,,,,,,,,,2,0,2,0,1,,,,,,,,,,,,,
,,,,,,,,,,5bf801e3361a9b00012654c5,22,Kobieta,2022-06-04_08h09.29.155,task,2021.1.4,Win32,59.99520038,628b806c463b948bc644b84f,629af70210943b7ad7ebc746,,,,,,,,,,,,,,,,,,,,,,,0,,,,,,,,,,Task,8,(1x5) - 5,0,,,,,,,,,,,,,,,,,,,1,,,,,,,,,,,,,,,,,,,,,,,"[""0""]",1,[1.9513000000118836],0,0,0,7,1,,,,,,,,,,,,,,,,,,
,,,,,,,,,,5bf801e3361a9b00012654c5,22,Kobieta,2022-06-04_08h09.29.155,task,2021.1.4,Win32,59.99520038,628b806c463b948bc644b84f,629af70210943b7ad7ebc746,,,,,,,,,,X V Q F H G B L J M P D K C T S W R N Z,,,,,,,,,,,,,,,,,,,,,,,,,,,,,,,,,,,,,,,,,,,,,,,,,,,,,,,,,,,,,,,,,,,,,,,,,,,,3,0,3,0,1,,,,,,,,,,,,,
,,,,,,,,,,5bf801e3361a9b00012654c5,22,Kobieta,2022-06-04_08h09.29.155,task,2021.1.4,Win32,59.99520038,628b806c463b948bc644b84f,629af70210943b7ad7ebc746,,,,,,,,,,,,,,,,,,,,,,,9,,,,,,,,,,Task,24,(2x2) + 5,9,,,,,,,,,,,,,,,,,,,1,,,,,,,,,,,,,,,,,,,,,,,"[""9""]",1,[2.60659999996426],0,0,0,23,1,,,,,,,,,,,,,,,,,,
,,,,,,,,,,5bf801e3361a9b00012654c5,22,Kobieta,2022-06-04_08h09.29.155,task,2021.1.4,Win32,59.99520038,628b806c463b948bc644b84f,629af70210943b7ad7ebc746,,,,,,,,,,X V Q F H G B L J M P D K C T S W R N Z,,,,,,,,,,,,,,,,,,,,,,,,,,,,,,,,,,,,,,,,,,,,,,,,,,,,,,,,,,,,,,,,,,,,,,,,,,,,4,0,4,0,1,,,,,,,,,,,,,
,,,,,,,,,,5bf801e3361a9b00012654c5,22,Kobieta,2022-06-04_08h09.29.155,task,2021.1.4,Win32,59.99520038,628b806c463b948bc644b84f,629af70210943b7ad7ebc746,,,,,,,,,,,,,,,,,,,,,,,,,,,,,,,,,,,,,,,,,,,,,,,,,,,,,,,,,,,,,,,,,,,,,,,,,,,,,,,,,,,,,,,,,,,xmqcw,"[""x"",""m"",""q"",""c"",""w""]",0,"[2.485699999988128,3.1680000000000064,4.968199999988087,5.817399999976146,6.09050000000002,7.215600000023869]",1,XMQCW,3,0,3,0,1,,
,,,,,,,,,,5bf801e3361a9b00012654c5,22,Kobieta,2022-06-04_08h09.29.155,task,2021.1.4,Win32,59.99520038,628b806c463b948bc644b84f,629af70210943b7ad7ebc746,,,,,,,,,,,,,,,,,,,,,,,2,,,,,,,,,,Task,2,(2x2) - 2,2,,,,,,,,,,,,,,,,,,,1,,,,,,,,,,,,,,,,,,,,,,,"[""2""]",1,[2.43850000000009],0,0,0,1,1,,,,,,,,,,,,,,,,,,
,,,,,,,,,,5bf801e3361a9b00012654c5,22,Kobieta,2022-06-04_08h09.29.155,task,2021.1.4,Win32,59.99520038,628b806c463b948bc644b84f,629af70210943b7ad7ebc746,,,,,,,,,,X V Q F H G B L J M P D K C T S W R N Z,,,,,,,,,,,,,,,,,,,,,,,,,,,,,,,,,,,,,,,,,,,,,,,,,,,,,,,,,,,,,,,,,,,,,,,,,,,,0,0,0,0,1,,,,,,,,,,,,,
,,,,,,,,,,5bf801e3361a9b00012654c5,22,Kobieta,2022-06-04_08h09.29.155,task,2021.1.4,Win32,59.99520038,628b806c463b948bc644b84f,629af70210943b7ad7ebc746,,,,,,,,,,,,,,,,,,,,,,,6,,,,,,,,,,Task,16,(3x8) - 15,9,,,,,,,,,,,,,,,,,,,0,,,,,,,,,,,,,,,,,,,,,,,"[""6""]",0,[2.942400000035718],0,0,0,15,1,,,,,,,,,,,,,,,,,,
,,,,,,,,,,5bf801e3361a9b00012654c5,22,Kobieta,2022-06-04_08h09.29.155,task,2021.1.4,Win32,59.99520038,628b806c463b948bc644b84f,629af70210943b7ad7ebc746,,,,,,,,,,,,,,,,,,,,,,,0,,,,,,,,,,Task,8,(1x5) - 5,0,,,,,,,,,,,,,,,,,,,1,,,,,,,,,,,,,,,,,,,,,,,"[""0""]",1,[1.6184000000357628],0,1,1,7,1,,,,,,,,,,,,,,,,,,
,,,,,,,,,,5bf801e3361a9b00012654c5,22,Kobieta,2022-06-04_08h09.29.155,task,2021.1.4,Win32,59.99520038,628b806c463b948bc644b84f,629af70210943b7ad7ebc746,,,,,,,,,,X V Q F H G B L J M P D K C T S W R N Z,,,,,,,,,,,,,,,,,,,,,,,,,,,,,,,,,,,,,,,,,,,,,,,,,,,,,,,,,,,,,,,,,,,,,,,,,,,,1,0,1,0,1,,,,,,,,,,,,,
,,,,,,,,,,5bf801e3361a9b00012654c5,22,Kobieta,2022-06-04_08h09.29.155,task,2021.1.4,Win32,59.99520038,628b806c463b948bc644b84f,629af70210943b7ad7ebc746,,,,,,,,,,,,,,,,,,,,,,,8,,,,,,,,,,Task,23,(2x3) + 2,8,,,,,,,,,,,,,,,,,,,1,,,,,,,,,,,,,,,,,,,,,,,"[""8""]",1,[2.138599999964299],0,0,0,22,1,,,,,,,,,,,,,,,,,,
,,,,,,,,,,5bf801e3361a9b00012654c5,22,Kobieta,2022-06-04_08h09.29.155,task,2021.1.4,Win32,59.99520038,628b806c463b948bc644b84f,629af70210943b7ad7ebc746,,,,,,,,,,X V Q F H G B L J M P D K C T S W R N Z,,,,,,,,,,,,,,,,,,,,,,,,,,,,,,,,,,,,,,,,,,,,,,,,,,,,,,,,,,,,,,,,,,,,,,,,,,,,2,0,2,0,1,,,,,,,,,,,,,
,,,,,,,,,,5bf801e3361a9b00012654c5,22,Kobieta,2022-06-04_08h09.29.155,task,2021.1.4,Win32,59.99520038,628b806c463b948bc644b84f,629af70210943b7ad7ebc746,,,,,,,,,,,,,,,,,,,,,,,,,,,,,,,,,Task,16,(3x8) - 15,9,,,,,,,,,,,,,,,,,,,0,,,,,,,,,,,,,,,,,,,,,,,,0,,0,0,0,15,1,,,,,,,,,,,,,,,,,,
,,,,,,,,,,5bf801e3361a9b00012654c5,22,Kobieta,2022-06-04_08h09.29.155,task,2021.1.4,Win32,59.99520038,628b806c463b948bc644b84f,629af70210943b7ad7ebc746,,,,,,,,,,,,,,,,,,,,,,,4,,,,,,,,,,Task,4,(1x5) - 1,4,,,,,,,,,,,,,,,,,,,1,,,,,,,,,,,,,,,,,,,,,,,"[""4""]",1,[2.0679999999999836],0,1,1,3,1,,,,,,,,,,,,,,,,,,
,,,,,,,,,,5bf801e3361a9b00012654c5,22,Kobieta,2022-06-04_08h09.29.155,task,2021.1.4,Win32,59.99520038,628b806c463b948bc644b84f,629af70210943b7ad7ebc746,,,,,,,,,,X V Q F H G B L J M P D K C T S W R N Z,,,,,,,,,,,,,,,,,,,,,,,,,,,,,,,,,,,,,,,,,,,,,,,,,,,,,,,,,,,,,,,,,,,,,,,,,,,,3,0,3,0,1,,,,,,,,,,,,,
,,,,,,,,,,5bf801e3361a9b00012654c5,22,Kobieta,2022-06-04_08h09.29.155,task,2021.1.4,Win32,59.99520038,628b806c463b948bc644b84f,629af70210943b7ad7ebc746,,,,,,,,,,,,,,,,,,,,,,,4,,,,,,,,,,Task,3,(2x3) - 3,3,,,,,,,,,,,,,,,,,,,0,,,,,,,,,,,,,,,,,,,,,,,"[""4""]",0,[4.535400000035793],0,0,0,2,1,,,,,,,,,,,,,,,,,,
,,,,,,,,,,5bf801e3361a9b00012654c5,22,Kobieta,2022-06-04_08h09.29.155,task,2021.1.4,Win32,59.99520038,628b806c463b948bc644b84f,629af70210943b7ad7ebc746,,,,,,,,,,,,,,,,,,,,,,,5,,,,,,,,,,Task,22,(3x1) + 2,5,,,,,,,,,,,,,,,,,,,1,,,,,,,,,,,,,,,,,,,,,,,"[""5""]",1,[1.6983000000119546],0,1,1,21,1,,,,,,,,,,,,,,,,,,
,,,,,,,,,,5bf801e3361a9b00012654c5,22,Kobieta,2022-06-04_08h09.29.155,task,2021.1.4,Win32,59.99520038,628b806c463b948bc644b84f,629af70210943b7ad7ebc746,,,,,,,,,,X V Q F H G B L J M P D K C T S W R N Z,,,,,,,,,,,,,,,,,,,,,,,,,,,,,,,,,,,,,,,,,,,,,,,,,,,,,,,,,,,,,,,,,,,,,,,,,,,,4,0,4,0,1,,,,,,,,,,,,,
,,,,,,,,,,5bf801e3361a9b00012654c5,22,Kobieta,2022-06-04_08h09.29.155,task,2021.1.4,Win32,59.99520038,628b806c463b948bc644b84f,629af70210943b7ad7ebc746,,,,,,,,,,,,,,,,,,,,,,,4,,,,,,,,,,Task,4,(1x5) - 1,4,,,,,,,,,,,,,,,,,,,1,,,,,,,,,,,,,,,,,,,,,,,"[""4""]",1,[2.1213000000118427],0,0,0,3,1,,,,,,,,,,,,,,,,,,
,,,,,,,,,,5bf801e3361a9b00012654c5,22,Kobieta,2022-06-04_08h09.29.155,task,2021.1.4,Win32,59.99520038,628b806c463b948bc644b84f,629af70210943b7ad7ebc746,,,,,,,,,,X V Q F H G B L J M P D K C T S W R N Z,,,,,,,,,,,,,,,,,,,,,,,,,,,,,,,,,,,,,,,,,,,,,,,,,,,,,,,,,,,,,,,,,,,,,,,,,,,,5,0,5,0,1,,,,,,,,,,,,,
,,,,,,,,,,5bf801e3361a9b00012654c5,22,Kobieta,2022-06-04_08h09.29.155,task,2021.1.4,Win32,59.99520038,628b806c463b948bc644b84f,629af70210943b7ad7ebc746,,,,,,,,,,,,,,,,,,,,,,,,,,,,,,,,,,,,,,,,,,,,,,,,,,,,,,,,,,,,,,,,,,,,,,,,,,,,,,,,,,,,,,,,,,,nqwcr,"[""n"",""q"",""w"",""c"",""r""]",0,"[1.5674999999999955,1.9359999999999218,3.76789999997618,3.9678999999761118,4.185499999999934,5.415899999976091]",0,NQWWCR,4,0,4,0,1,,
,,,,,,,,,,5bf801e3361a9b00012654c5,22,Kobieta,2022-06-04_08h09.29.155,task,2021.1.4,Win32,59.99520038,628b806c463b948bc644b84f,629af70210943b7ad7ebc746,,,,,,,,,,,,,,,,,,,,,,,1,,,,,,,,,,Task,18,(16/4) - 3,1,,,,,,,,,,,,,,,,,,,1,,,,,,,,,,,,,,,,,,,,,,,"[""1""]",1,[3.4497999999522335],0,0,0,17,1,,,,,,,,,,,,,,,,,,
,,,,,,,,,,5bf801e3361a9b00012654c5,22,Kobieta,2022-06-04_08h09.29.155,task,2021.1.4,Win32,59.99520038,628b806c463b948bc644b84f,629af70210943b7ad7ebc746,,,,,,,,,,X V Q F H G B L J M P D K C T S W R N Z,,,,,,,,,,,,,,,,,,,,,,,,,,,,,,,,,,,,,,,,,,,,,,,,,,,,,,,,,,,,,,,,,,,,,,,,,,,,0,0,0,0,1,,,,,,,,,,,,,
,,,,,,,,,,5bf801e3361a9b00012654c5,22,Kobieta,2022-06-04_08h09.29.155,task,2021.1.4,Win32,59.99520038,628b806c463b948bc644b84f,629af70210943b7ad7ebc746,,,,,,,,,,,,,,,,,,,,,,,9,,,,,,,,,,Task,15,(3x7) - 13,8,,,,,,,,,,,,,,,,,,,0,,,,,,,,,,,,,,,,,,,,,,,"[""9""]",0,[2.568499999999972],0,0,0,14,1,,,,,,,,,,,,,,,,,,
,,,,,,,,,,5bf801e3361a9b00012654c5,22,Kobieta,2022-06-04_08h09.29.155,task,2021.1.4,Win32,59.99520038,628b806c463b948bc644b84f,629af70210943b7ad7ebc746,,,,,,,,,,,,,,,,,,,,,,,4,,,,,,,,,,Task,11,(18/3) - 2,4,,,,,,,,,,,,,,,,,,,1,,,,,,,,,,,,,,,,,,,,,,,"[""4""]",1,[2.4508999999761727],0,1,1,10,1,,,,,,,,,,,,,,,,,,
,,,,,,,,,,5bf801e3361a9b00012654c5,22,Kobieta,2022-06-04_08h09.29.155,task,2021.1.4,Win32,59.99520038,628b806c463b948bc644b84f,629af70210943b7ad7ebc746,,,,,,,,,,X V Q F H G B L J M P D K C T S W R N Z,,,,,,,,,,,,,,,,,,,,,,,,,,,,,,,,,,,,,,,,,,,,,,,,,,,,,,,,,,,,,,,,,,,,,,,,,,,,1,0,1,0,1,,,,,,,,,,,,,
,,,,,,,,,,5bf801e3361a9b00012654c5,22,Kobieta,2022-06-04_08h09.29.155,task,2021.1.4,Win32,59.99520038,628b806c463b948bc644b84f,629af70210943b7ad7ebc746,,,,,,,,,,,,,,,,,,,,,,,5,,,,,,,,,,Task,29,(3x8) - 19 ,5,,,,,,,,,,,,,,,,,,,1,,,,,,,,,,,,,,,,,,,,,,,"[""5""]",1,[2.28530000001183],0,0,0,28,1,,,,,,,,,,,,,,,,,,
,,,,,,,,,,5bf801e3361a9b00012654c5,22,Kobieta,2022-06-04_08h09.29.155,task,2021.1.4,Win32,59.99520038,628b806c463b948bc644b84f,629af70210943b7ad7ebc746,,,,,,,,,,X V Q F H G B L J M P D K C T S W R N Z,,,,,,,,,,,,,,,,,,,,,,,,,,,,,,,,,,,,,,,,,,,,,,,,,,,,,,,,,,,,,,,,,,,,,,,,,,,,2,0,2,0,1,,,,,,,,,,,,,
,,,,,,,,,,5bf801e3361a9b00012654c5,22,Kobieta,2022-06-04_08h09.29.155,task,2021.1.4,Win32,59.99520038,628b806c463b948bc644b84f,629af70210943b7ad7ebc746,,,,,,,,,,,,,,,,,,,,,,,9,,,,,,,,,,Task,7,(3x7) - 12,9,,,,,,,,,,,,,,,,,,,1,,,,,,,,,,,,,,,,,,,,,,,"[""9""]",1,[4.1352999999523945],0,0,0,6,1,,,,,,,,,,,,,,,,,,
,,,,,,,,,,5bf801e3361a9b00012654c5,22,Kobieta,2022-06-04_08h09.29.155,task,2021.1.4,Win32,59.99520038,628b806c463b948bc644b84f,629af70210943b7ad7ebc746,,,,,,,,,,X V Q F H G B L J M P D K C T S W R N Z,,,,,,,,,,,,,,,,,,,,,,,,,,,,,,,,,,,,,,,,,,,,,,,,,,,,,,,,,,,,,,,,,,,,,,,,,,,,3,0,3,0,1,,,,,,,,,,,,,
,,,,,,,,,,5bf801e3361a9b00012654c5,22,Kobieta,2022-06-04_08h09.29.155,task,2021.1.4,Win32,59.99520038,628b806c463b948bc644b84f,629af70210943b7ad7ebc746,,,,,,,,,,,,,,,,,,,,,,,4,,,,,,,,,,Task,4,(1x5) - 1,4,,,,,,,,,,,,,,,,,,,1,,,,,,,,,,,,,,,,,,,,,,,"[""4""]",1,[1.2323000000119464],0,0,0,3,1,,,,,,,,,,,,,,,,,,
,,,,,,,,,,5bf801e3361a9b00012654c5,22,Kobieta,2022-06-04_08h09.29.155,task,2021.1.4,Win32,59.99520038,628b806c463b948bc644b84f,629af70210943b7ad7ebc746,,,,,,,,,,X V Q F H G B L J M P D K C T S W R N Z,,,,,,,,,,,,,,,,,,,,,,,,,,,,,,,,,,,,,,,,,,,,,,,,,,,,,,,,,,,,,,,,,,,,,,,,,,,,4,0,4,0,1,,,,,,,,,,,,,
,,,,,,,,,,5bf801e3361a9b00012654c5,22,Kobieta,2022-06-04_08h09.29.155,task,2021.1.4,Win32,59.99520038,628b806c463b948bc644b84f,629af70210943b7ad7ebc746,,,,,,,,,,,,,,,,,,,,,,,4,,,,,,,,,,Task,21,(10/2) - 1,4,,,,,,,,,,,,,,,,,,,1,,,,,,,,,,,,,,,,,,,,,,,"[""4""]",1,[2.19940000003578],0,0,0,20,1,,,,,,,,,,,,,,,,,,
,,,,,,,,,,5bf801e3361a9b00012654c5,22,Kobieta,2022-06-04_08h09.29.155,task,2021.1.4,Win32,59.99520038,628b806c463b948bc644b84f,629af70210943b7ad7ebc746,,,,,,,,,,X V Q F H G B L J M P D K C T S W R N Z,,,,,,,,,,,,,,,,,,,,,,,,,,,,,,,,,,,,,,,,,,,,,,,,,,,,,,,,,,,,,,,,,,,,,,,,,,,,5,0,5,0,1,,,,,,,,,,,,,
,,,,,,,,,,5bf801e3361a9b00012654c5,22,Kobieta,2022-06-04_08h09.29.155,task,2021.1.4,Win32,59.99520038,628b806c463b948bc644b84f,629af70210943b7ad7ebc746,,,,,,,,,,,,,,,,,,,,,,,,,,,,,,,,,,,,,,,,,,,,,,,,,,,,,,,,,,,,,,,,,,,,,,,,,,,,,,,,,,,,,,,,,,,hjxmf,"[""h"",""j"",""x"",""m"",""f""]",0,"[1.953699999988089,2.13690000003578,2.63819999998816,2.9700000000000273,3.3791000000238682,3.90119999998808]",0,HJMXMF,5,0,5,0,1,,
,,,,,,,,,,5bf801e3361a9b00012654c5,22,Kobieta,2022-06-04_08h09.29.155,task,2021.1.4,Win32,59.99520038,628b806c463b948bc644b84f,629af70210943b7ad7ebc746,,,,,,,,,,,,,,,,,,,,,,,,,,,,,,,,,,,,,,,,,,,,,,,,,,,,,,,,,,,,,,,,,,,,,,,,,,,,,,,,,,,,,,,,,,,,,,,,,,,,,,space,1.4646
