key_resp_15.keys,key_resp_15.rt,key_resp_16.keys,key_resp_16.rt,key_resp_4.keys,key_resp_4.rt,next_letter.thisRepN,next_letter.thisTrialN,next_letter.thisN,next_letter.thisIndex,next_letter.ran,letter,participant,Wiek*,Płeć,date,expName,psychopyVersion,OS,frameRate,study_id,session,simple_recall,key_resp_5.keys,key_resp_5.rt,simple_recall_corr,simple_recall_corrkeys,next_level.thisRepN,next_level.thisTrialN,next_level.thisN,next_level.thisIndex,next_level.ran,key_resp_2.keys,key_resp_2.rt,digit_answer,key_resp.keys,key_resp.corr,key_resp.rt,RT_list,next_equation.thisRepN,next_equation.thisTrialN,next_equation.thisN,next_equation.thisIndex,next_equation.ran,Task,Trial,Problem,Operation_answer,processing_score,sumRT,meanRT,sumdiff,sd,RT,key_resp_3.keys,key_resp_3.rt,repeat_practice.thisRepN,repeat_practice.thisTrialN,repeat_practice.thisN,repeat_practice.thisIndex,repeat_practice.ran,key_resp_6.keys,key_resp_6.rt,key_resp_11.keys,key_resp_11.corr,key_resp_11.rt,operation_correct,repeat_if_wrong_prac.thisRepN,repeat_if_wrong_prac.thisTrialN,repeat_if_wrong_prac.thisN,repeat_if_wrong_prac.thisIndex,repeat_if_wrong_prac.ran,span_size_prac.thisRepN,span_size_prac.thisTrialN,span_size_prac.thisN,span_size_prac.thisIndex,span_size_prac.ran,complex_recall_practice,key_resp_9.keys,key_resp_9.corr,key_resp_9.rt,complex_prac_corr,span_recall_prac.thisRepN,span_recall_prac.thisTrialN,span_recall_prac.thisN,span_recall_prac.thisIndex,span_recall_prac.ran,key_resp_10.keys,key_resp_10.rt,key_resp_7.keys,key_resp_7.corr,key_resp_7.rt,repeat_if_wrong.thisRepN,repeat_if_wrong.thisTrialN,repeat_if_wrong.thisN,repeat_if_wrong.thisIndex,repeat_if_wrong.ran,span_size.thisRepN,span_size.thisTrialN,span_size.thisN,span_size.thisIndex,span_size.ran,complex_recall,key_resp_8.keys,key_resp_8.corr,key_resp_8.rt,complex_recall_corr,complex_recall_corrkeys,span_recall.thisRepN,span_recall.thisTrialN,span_recall.thisN,span_recall.thisIndex,span_recall.ran,key_resp_13.keys,key_resp_13.corr,key_resp_13.rt,random_loop.thisRepN,random_loop.thisTrialN,random_loop.thisN,random_loop.thisIndex,random_loop.ran,key_resp_12.keys,key_resp_12.rt
space,12.05,space,13.022,space,5.167,0,0,0,0,1,X V Q F H G B L J M P D K C T S W R N Z,5c33496ec75f190001e7ed92,39,Mężczyzna,2022-06-11_09h29.50.283,task,2021.1.4,Win32,60.0240096,6299f149e92ead563fba08ef,62a4443a30da7de6dd2f9f42,,,,,,,,,,,,,,,,,,,,,,,,,,,,,,,,,,,,,,,,,,,,,,,,,,,,,,,,,,,,,,,,,,,,,,,,,,,,,,,,,,,,,,,,,,,,,,,,,,,,,
,,,,,,1,0,1,0,1,X V Q F H G B L J M P D K C T S W R N Z,5c33496ec75f190001e7ed92,39,Mężczyzna,2022-06-11_09h29.50.283,task,2021.1.4,Win32,60.0240096,6299f149e92ead563fba08ef,62a4443a30da7de6dd2f9f42,,,,,,,,,,,,,,,,,,,,,,,,,,,,,,,,,,,,,,,,,,,,,,,,,,,,,,,,,,,,,,,,,,,,,,,,,,,,,,,,,,,,,,,,,,,,,,,,,,,,,
,,,,,,,,,,,,5c33496ec75f190001e7ed92,39,Mężczyzna,2022-06-11_09h29.50.283,task,2021.1.4,Win32,60.0240096,6299f149e92ead563fba08ef,62a4443a30da7de6dd2f9f42,zc,"[""z"",""c""]","[2.6599999999999966,2.9750000000000014,5.642000000000003]",1,ZC,0,0,0,0,1,,,,,,,,,,,,,,,,,,,,,,,,,,,,,,,,,,,,,,,,,,,,,,,,,,,,,,,,,,,,,,,,,,,,,,,,,,,,,,,,,,,,,,,,,,,
,,,,,,0,0,0,0,1,X V Q F H G B L J M P D K C T S W R N Z,5c33496ec75f190001e7ed92,39,Mężczyzna,2022-06-11_09h29.50.283,task,2021.1.4,Win32,60.0240096,6299f149e92ead563fba08ef,62a4443a30da7de6dd2f9f42,,,,,,,,,,,,,,,,,,,,,,,,,,,,,,,,,,,,,,,,,,,,,,,,,,,,,,,,,,,,,,,,,,,,,,,,,,,,,,,,,,,,,,,,,,,,,,,,,,,,,
,,,,,,1,0,1,0,1,X V Q F H G B L J M P D K C T S W R N Z,5c33496ec75f190001e7ed92,39,Mężczyzna,2022-06-11_09h29.50.283,task,2021.1.4,Win32,60.0240096,6299f149e92ead563fba08ef,62a4443a30da7de6dd2f9f42,,,,,,,,,,,,,,,,,,,,,,,,,,,,,,,,,,,,,,,,,,,,,,,,,,,,,,,,,,,,,,,,,,,,,,,,,,,,,,,,,,,,,,,,,,,,,,,,,,,,,
,,,,,,,,,,,,5c33496ec75f190001e7ed92,39,Mężczyzna,2022-06-11_09h29.50.283,task,2021.1.4,Win32,60.0240096,6299f149e92ead563fba08ef,62a4443a30da7de6dd2f9f42,gb,"[""g"",""b""]","[1.5529999999999973,2.408999999999999,2.889000000000003]",1,GB,1,0,1,0,1,,,,,,,,,,,,,,,,,,,,,,,,,,,,,,,,,,,,,,,,,,,,,,,,,,,,,,,,,,,,,,,,,,,,,,,,,,,,,,,,,,,,,,,,,,,
,,,,,,0,0,0,0,1,X V Q F H G B L J M P D K C T S W R N Z,5c33496ec75f190001e7ed92,39,Mężczyzna,2022-06-11_09h29.50.283,task,2021.1.4,Win32,60.0240096,6299f149e92ead563fba08ef,62a4443a30da7de6dd2f9f42,,,,,,,,,,,,,,,,,,,,,,,,,,,,,,,,,,,,,,,,,,,,,,,,,,,,,,,,,,,,,,,,,,,,,,,,,,,,,,,,,,,,,,,,,,,,,,,,,,,,,
,,,,,,1,0,1,0,1,X V Q F H G B L J M P D K C T S W R N Z,5c33496ec75f190001e7ed92,39,Mężczyzna,2022-06-11_09h29.50.283,task,2021.1.4,Win32,60.0240096,6299f149e92ead563fba08ef,62a4443a30da7de6dd2f9f42,,,,,,,,,,,,,,,,,,,,,,,,,,,,,,,,,,,,,,,,,,,,,,,,,,,,,,,,,,,,,,,,,,,,,,,,,,,,,,,,,,,,,,,,,,,,,,,,,,,,,
,,,,,,2,0,2,0,1,X V Q F H G B L J M P D K C T S W R N Z,5c33496ec75f190001e7ed92,39,Mężczyzna,2022-06-11_09h29.50.283,task,2021.1.4,Win32,60.0240096,6299f149e92ead563fba08ef,62a4443a30da7de6dd2f9f42,,,,,,,,,,,,,,,,,,,,,,,,,,,,,,,,,,,,,,,,,,,,,,,,,,,,,,,,,,,,,,,,,,,,,,,,,,,,,,,,,,,,,,,,,,,,,,,,,,,,,
,,,,,,,,,,,,5c33496ec75f190001e7ed92,39,Mężczyzna,2022-06-11_09h29.50.283,task,2021.1.4,Win32,60.0240096,6299f149e92ead563fba08ef,62a4443a30da7de6dd2f9f42,vws,"[""v"",""w"",""s""]","[0.7050000000000054,1.1330000000000027,1.3000000000000043,2.0090000000000003]",1,VWS,2,0,2,0,1,,,,,,,,,,,,,,,,,,,,,,,,,,,,,,,,,,,,,,,,,,,,,,,,,,,,,,,,,,,,,,,,,,,,,,,,,,,,,,,,,,,,,,,,,,,
,,,,,,0,0,0,0,1,X V Q F H G B L J M P D K C T S W R N Z,5c33496ec75f190001e7ed92,39,Mężczyzna,2022-06-11_09h29.50.283,task,2021.1.4,Win32,60.0240096,6299f149e92ead563fba08ef,62a4443a30da7de6dd2f9f42,,,,,,,,,,,,,,,,,,,,,,,,,,,,,,,,,,,,,,,,,,,,,,,,,,,,,,,,,,,,,,,,,,,,,,,,,,,,,,,,,,,,,,,,,,,,,,,,,,,,,
,,,,,,1,0,1,0,1,X V Q F H G B L J M P D K C T S W R N Z,5c33496ec75f190001e7ed92,39,Mężczyzna,2022-06-11_09h29.50.283,task,2021.1.4,Win32,60.0240096,6299f149e92ead563fba08ef,62a4443a30da7de6dd2f9f42,,,,,,,,,,,,,,,,,,,,,,,,,,,,,,,,,,,,,,,,,,,,,,,,,,,,,,,,,,,,,,,,,,,,,,,,,,,,,,,,,,,,,,,,,,,,,,,,,,,,,
,,,,,,2,0,2,0,1,X V Q F H G B L J M P D K C T S W R N Z,5c33496ec75f190001e7ed92,39,Mężczyzna,2022-06-11_09h29.50.283,task,2021.1.4,Win32,60.0240096,6299f149e92ead563fba08ef,62a4443a30da7de6dd2f9f42,,,,,,,,,,,,,,,,,,,,,,,,,,,,,,,,,,,,,,,,,,,,,,,,,,,,,,,,,,,,,,,,,,,,,,,,,,,,,,,,,,,,,,,,,,,,,,,,,,,,,
,,,,,,,,,,,,5c33496ec75f190001e7ed92,39,Mężczyzna,2022-06-11_09h29.50.283,task,2021.1.4,Win32,60.0240096,6299f149e92ead563fba08ef,62a4443a30da7de6dd2f9f42,tfb,"[""t"",""f"",""b""]","[1.1090000000000018,1.3569999999999922,1.8369999999999962,2.2689999999999984]",1,TFB,3,0,3,0,1,,,,,,,,,,,,,,,,,,,,,,,,,,,,,,,,,,,,,,,,,,,,,,,,,,,,,,,,,,,,,,,,,,,,,,,,,,,,,,,,,,,,,,,,,,,
,,,,,,0,0,0,0,1,X V Q F H G B L J M P D K C T S W R N Z,5c33496ec75f190001e7ed92,39,Mężczyzna,2022-06-11_09h29.50.283,task,2021.1.4,Win32,60.0240096,6299f149e92ead563fba08ef,62a4443a30da7de6dd2f9f42,,,,,,,,,,,,,,,,,,,,,,,,,,,,,,,,,,,,,,,,,,,,,,,,,,,,,,,,,,,,,,,,,,,,,,,,,,,,,,,,,,,,,,,,,,,,,,,,,,,,,
,,,,,,1,0,1,0,1,X V Q F H G B L J M P D K C T S W R N Z,5c33496ec75f190001e7ed92,39,Mężczyzna,2022-06-11_09h29.50.283,task,2021.1.4,Win32,60.0240096,6299f149e92ead563fba08ef,62a4443a30da7de6dd2f9f42,,,,,,,,,,,,,,,,,,,,,,,,,,,,,,,,,,,,,,,,,,,,,,,,,,,,,,,,,,,,,,,,,,,,,,,,,,,,,,,,,,,,,,,,,,,,,,,,,,,,,
,,,,,,2,0,2,0,1,X V Q F H G B L J M P D K C T S W R N Z,5c33496ec75f190001e7ed92,39,Mężczyzna,2022-06-11_09h29.50.283,task,2021.1.4,Win32,60.0240096,6299f149e92ead563fba08ef,62a4443a30da7de6dd2f9f42,,,,,,,,,,,,,,,,,,,,,,,,,,,,,,,,,,,,,,,,,,,,,,,,,,,,,,,,,,,,,,,,,,,,,,,,,,,,,,,,,,,,,,,,,,,,,,,,,,,,,
,,,,,,3,0,3,0,1,X V Q F H G B L J M P D K C T S W R N Z,5c33496ec75f190001e7ed92,39,Mężczyzna,2022-06-11_09h29.50.283,task,2021.1.4,Win32,60.0240096,6299f149e92ead563fba08ef,62a4443a30da7de6dd2f9f42,,,,,,,,,,,,,,,,,,,,,,,,,,,,,,,,,,,,,,,,,,,,,,,,,,,,,,,,,,,,,,,,,,,,,,,,,,,,,,,,,,,,,,,,,,,,,,,,,,,,,
,,,,,,,,,,,,5c33496ec75f190001e7ed92,39,Mężczyzna,2022-06-11_09h29.50.283,task,2021.1.4,Win32,60.0240096,6299f149e92ead563fba08ef,62a4443a30da7de6dd2f9f42,hsgl,"[""h"",""s"",""g"",""l""]","[2.105000000000004,2.60799999999999,3.016999999999996,3.816999999999993,4.331999999999994]",1,HSGL,4,0,4,0,1,,,,,,,,,,,,,,,,,,,,,,,,,,,,,,,,,,,,,,,,,,,,,,,,,,,,,,,,,,,,,,,,,,,,,,,,,,,,,,,,,,,,,,,,,,,
,,,,,,0,0,0,0,1,X V Q F H G B L J M P D K C T S W R N Z,5c33496ec75f190001e7ed92,39,Mężczyzna,2022-06-11_09h29.50.283,task,2021.1.4,Win32,60.0240096,6299f149e92ead563fba08ef,62a4443a30da7de6dd2f9f42,,,,,,,,,,,,,,,,,,,,,,,,,,,,,,,,,,,,,,,,,,,,,,,,,,,,,,,,,,,,,,,,,,,,,,,,,,,,,,,,,,,,,,,,,,,,,,,,,,,,,
,,,,,,1,0,1,0,1,X V Q F H G B L J M P D K C T S W R N Z,5c33496ec75f190001e7ed92,39,Mężczyzna,2022-06-11_09h29.50.283,task,2021.1.4,Win32,60.0240096,6299f149e92ead563fba08ef,62a4443a30da7de6dd2f9f42,,,,,,,,,,,,,,,,,,,,,,,,,,,,,,,,,,,,,,,,,,,,,,,,,,,,,,,,,,,,,,,,,,,,,,,,,,,,,,,,,,,,,,,,,,,,,,,,,,,,,
,,,,,,2,0,2,0,1,X V Q F H G B L J M P D K C T S W R N Z,5c33496ec75f190001e7ed92,39,Mężczyzna,2022-06-11_09h29.50.283,task,2021.1.4,Win32,60.0240096,6299f149e92ead563fba08ef,62a4443a30da7de6dd2f9f42,,,,,,,,,,,,,,,,,,,,,,,,,,,,,,,,,,,,,,,,,,,,,,,,,,,,,,,,,,,,,,,,,,,,,,,,,,,,,,,,,,,,,,,,,,,,,,,,,,,,,
,,,,,,3,0,3,0,1,X V Q F H G B L J M P D K C T S W R N Z,5c33496ec75f190001e7ed92,39,Mężczyzna,2022-06-11_09h29.50.283,task,2021.1.4,Win32,60.0240096,6299f149e92ead563fba08ef,62a4443a30da7de6dd2f9f42,,,,,,,,,,,,,,,,,,,,,,,,,,,,,,,,,,,,,,,,,,,,,,,,,,,,,,,,,,,,,,,,,,,,,,,,,,,,,,,,,,,,,,,,,,,,,,,,,,,,,
,,,,,,,,,,,,5c33496ec75f190001e7ed92,39,Mężczyzna,2022-06-11_09h29.50.283,task,2021.1.4,Win32,60.0240096,6299f149e92ead563fba08ef,62a4443a30da7de6dd2f9f42,mvgw,"[""m"",""v"",""g"",""w""]","[2.1159999999999997,3.1329999999999956,3.4180000000000064,3.8670000000000044,4.691999999999993]",1,MVGW,5,0,5,0,1,,,,,,,,,,,,,,,,,,,,,,,,,,,,,,,,,,,,,,,,,,,,,,,,,,,,,,,,,,,,,,,,,,,,,,,,,,,,,,,,,,,,,,,,,,,
,,,,,,0,0,0,0,1,X V Q F H G B L J M P D K C T S W R N Z,5c33496ec75f190001e7ed92,39,Mężczyzna,2022-06-11_09h29.50.283,task,2021.1.4,Win32,60.0240096,6299f149e92ead563fba08ef,62a4443a30da7de6dd2f9f42,,,,,,,,,,,,,,,,,,,,,,,,,,,,,,,,,,,,,,,,,,,,,,,,,,,,,,,,,,,,,,,,,,,,,,,,,,,,,,,,,,,,,,,,,,,,,,,,,,,,,
,,,,,,1,0,1,0,1,X V Q F H G B L J M P D K C T S W R N Z,5c33496ec75f190001e7ed92,39,Mężczyzna,2022-06-11_09h29.50.283,task,2021.1.4,Win32,60.0240096,6299f149e92ead563fba08ef,62a4443a30da7de6dd2f9f42,,,,,,,,,,,,,,,,,,,,,,,,,,,,,,,,,,,,,,,,,,,,,,,,,,,,,,,,,,,,,,,,,,,,,,,,,,,,,,,,,,,,,,,,,,,,,,,,,,,,,
,,,,,,2,0,2,0,1,X V Q F H G B L J M P D K C T S W R N Z,5c33496ec75f190001e7ed92,39,Mężczyzna,2022-06-11_09h29.50.283,task,2021.1.4,Win32,60.0240096,6299f149e92ead563fba08ef,62a4443a30da7de6dd2f9f42,,,,,,,,,,,,,,,,,,,,,,,,,,,,,,,,,,,,,,,,,,,,,,,,,,,,,,,,,,,,,,,,,,,,,,,,,,,,,,,,,,,,,,,,,,,,,,,,,,,,,
,,,,,,3,0,3,0,1,X V Q F H G B L J M P D K C T S W R N Z,5c33496ec75f190001e7ed92,39,Mężczyzna,2022-06-11_09h29.50.283,task,2021.1.4,Win32,60.0240096,6299f149e92ead563fba08ef,62a4443a30da7de6dd2f9f42,,,,,,,,,,,,,,,,,,,,,,,,,,,,,,,,,,,,,,,,,,,,,,,,,,,,,,,,,,,,,,,,,,,,,,,,,,,,,,,,,,,,,,,,,,,,,,,,,,,,,
,,,,,,4,0,4,0,1,X V Q F H G B L J M P D K C T S W R N Z,5c33496ec75f190001e7ed92,39,Mężczyzna,2022-06-11_09h29.50.283,task,2021.1.4,Win32,60.0240096,6299f149e92ead563fba08ef,62a4443a30da7de6dd2f9f42,,,,,,,,,,,,,,,,,,,,,,,,,,,,,,,,,,,,,,,,,,,,,,,,,,,,,,,,,,,,,,,,,,,,,,,,,,,,,,,,,,,,,,,,,,,,,,,,,,,,,
,,,,,,,,,,,,5c33496ec75f190001e7ed92,39,Mężczyzna,2022-06-11_09h29.50.283,task,2021.1.4,Win32,60.0240096,6299f149e92ead563fba08ef,62a4443a30da7de6dd2f9f42,dqxjv,"[""d"",""q"",""x"",""j"",""v""]","[2.266999999999996,3.2989999999999924,4.075000000000003,4.706999999999994,5.602999999999994,6.259]",1,DQXJV,6,0,6,0,1,,,,,,,,,,,,,,,,,,,,,,,,,,,,,,,,,,,,,,,,,,,,,,,,,,,,,,,,,,,,,,,,,,,,,,,,,,,,,,,,,,,,,,,,,,,
,,,,,,0,0,0,0,1,X V Q F H G B L J M P D K C T S W R N Z,5c33496ec75f190001e7ed92,39,Mężczyzna,2022-06-11_09h29.50.283,task,2021.1.4,Win32,60.0240096,6299f149e92ead563fba08ef,62a4443a30da7de6dd2f9f42,,,,,,,,,,,,,,,,,,,,,,,,,,,,,,,,,,,,,,,,,,,,,,,,,,,,,,,,,,,,,,,,,,,,,,,,,,,,,,,,,,,,,,,,,,,,,,,,,,,,,
,,,,,,1,0,1,0,1,X V Q F H G B L J M P D K C T S W R N Z,5c33496ec75f190001e7ed92,39,Mężczyzna,2022-06-11_09h29.50.283,task,2021.1.4,Win32,60.0240096,6299f149e92ead563fba08ef,62a4443a30da7de6dd2f9f42,,,,,,,,,,,,,,,,,,,,,,,,,,,,,,,,,,,,,,,,,,,,,,,,,,,,,,,,,,,,,,,,,,,,,,,,,,,,,,,,,,,,,,,,,,,,,,,,,,,,,
,,,,,,2,0,2,0,1,X V Q F H G B L J M P D K C T S W R N Z,5c33496ec75f190001e7ed92,39,Mężczyzna,2022-06-11_09h29.50.283,task,2021.1.4,Win32,60.0240096,6299f149e92ead563fba08ef,62a4443a30da7de6dd2f9f42,,,,,,,,,,,,,,,,,,,,,,,,,,,,,,,,,,,,,,,,,,,,,,,,,,,,,,,,,,,,,,,,,,,,,,,,,,,,,,,,,,,,,,,,,,,,,,,,,,,,,
,,,,,,3,0,3,0,1,X V Q F H G B L J M P D K C T S W R N Z,5c33496ec75f190001e7ed92,39,Mężczyzna,2022-06-11_09h29.50.283,task,2021.1.4,Win32,60.0240096,6299f149e92ead563fba08ef,62a4443a30da7de6dd2f9f42,,,,,,,,,,,,,,,,,,,,,,,,,,,,,,,,,,,,,,,,,,,,,,,,,,,,,,,,,,,,,,,,,,,,,,,,,,,,,,,,,,,,,,,,,,,,,,,,,,,,,
,,,,,,4,0,4,0,1,X V Q F H G B L J M P D K C T S W R N Z,5c33496ec75f190001e7ed92,39,Mężczyzna,2022-06-11_09h29.50.283,task,2021.1.4,Win32,60.0240096,6299f149e92ead563fba08ef,62a4443a30da7de6dd2f9f42,,,,,,,,,,,,,,,,,,,,,,,,,,,,,,,,,,,,,,,,,,,,,,,,,,,,,,,,,,,,,,,,,,,,,,,,,,,,,,,,,,,,,,,,,,,,,,,,,,,,,
,,,,,,,,,,,,5c33496ec75f190001e7ed92,39,Mężczyzna,2022-06-11_09h29.50.283,task,2021.1.4,Win32,60.0240096,6299f149e92ead563fba08ef,62a4443a30da7de6dd2f9f42,dzzhv,"[""d"",""z"",""z"",""h"",""v""]","[1.3259999999999934,1.600999999999999,1.7509999999999906,3.0219999999999914,3.4849999999999994,48.70100000000001]",1,DZZHV,7,0,7,0,1,,,,,,,,,,,,,,,,,,,,,,,,,,,,,,,,,,,,,,,,,,,,,,,,,,,,,,,,,,,,,,,,,,,,,,,,,,,,,,,,,,,,,,,,,,,
,,,,,,0,0,0,0,1,X V Q F H G B L J M P D K C T S W R N Z,5c33496ec75f190001e7ed92,39,Mężczyzna,2022-06-11_09h29.50.283,task,2021.1.4,Win32,60.0240096,6299f149e92ead563fba08ef,62a4443a30da7de6dd2f9f42,,,,,,,,,,,,,,,,,,,,,,,,,,,,,,,,,,,,,,,,,,,,,,,,,,,,,,,,,,,,,,,,,,,,,,,,,,,,,,,,,,,,,,,,,,,,,,,,,,,,,
,,,,,,1,0,1,0,1,X V Q F H G B L J M P D K C T S W R N Z,5c33496ec75f190001e7ed92,39,Mężczyzna,2022-06-11_09h29.50.283,task,2021.1.4,Win32,60.0240096,6299f149e92ead563fba08ef,62a4443a30da7de6dd2f9f42,,,,,,,,,,,,,,,,,,,,,,,,,,,,,,,,,,,,,,,,,,,,,,,,,,,,,,,,,,,,,,,,,,,,,,,,,,,,,,,,,,,,,,,,,,,,,,,,,,,,,
,,,,,,2,0,2,0,1,X V Q F H G B L J M P D K C T S W R N Z,5c33496ec75f190001e7ed92,39,Mężczyzna,2022-06-11_09h29.50.283,task,2021.1.4,Win32,60.0240096,6299f149e92ead563fba08ef,62a4443a30da7de6dd2f9f42,,,,,,,,,,,,,,,,,,,,,,,,,,,,,,,,,,,,,,,,,,,,,,,,,,,,,,,,,,,,,,,,,,,,,,,,,,,,,,,,,,,,,,,,,,,,,,,,,,,,,
,,,,,,3,0,3,0,1,X V Q F H G B L J M P D K C T S W R N Z,5c33496ec75f190001e7ed92,39,Mężczyzna,2022-06-11_09h29.50.283,task,2021.1.4,Win32,60.0240096,6299f149e92ead563fba08ef,62a4443a30da7de6dd2f9f42,,,,,,,,,,,,,,,,,,,,,,,,,,,,,,,,,,,,,,,,,,,,,,,,,,,,,,,,,,,,,,,,,,,,,,,,,,,,,,,,,,,,,,,,,,,,,,,,,,,,,
,,,,,,4,0,4,0,1,X V Q F H G B L J M P D K C T S W R N Z,5c33496ec75f190001e7ed92,39,Mężczyzna,2022-06-11_09h29.50.283,task,2021.1.4,Win32,60.0240096,6299f149e92ead563fba08ef,62a4443a30da7de6dd2f9f42,,,,,,,,,,,,,,,,,,,,,,,,,,,,,,,,,,,,,,,,,,,,,,,,,,,,,,,,,,,,,,,,,,,,,,,,,,,,,,,,,,,,,,,,,,,,,,,,,,,,,
,,,,,,5,0,5,0,1,X V Q F H G B L J M P D K C T S W R N Z,5c33496ec75f190001e7ed92,39,Mężczyzna,2022-06-11_09h29.50.283,task,2021.1.4,Win32,60.0240096,6299f149e92ead563fba08ef,62a4443a30da7de6dd2f9f42,,,,,,,,,,,,,,,,,,,,,,,,,,,,,,,,,,,,,,,,,,,,,,,,,,,,,,,,,,,,,,,,,,,,,,,,,,,,,,,,,,,,,,,,,,,,,,,,,,,,,
,,,,,,,,,,,,5c33496ec75f190001e7ed92,39,Mężczyzna,2022-06-11_09h29.50.283,task,2021.1.4,Win32,60.0240096,6299f149e92ead563fba08ef,62a4443a30da7de6dd2f9f42,,[],[2.3829999999999814],0,FLFVSS,8,0,8,0,1,,,,,,,,,,,,,,,,,,,,,,,,,,,,,,,,,,,,,,,,,,,,,,,,,,,,,,,,,,,,,,,,,,,,,,,,,,,,,,,,,,,,,,,,,,,
,,,,,,0,0,0,0,1,X V Q F H G B L J M P D K C T S W R N Z,5c33496ec75f190001e7ed92,39,Mężczyzna,2022-06-11_09h29.50.283,task,2021.1.4,Win32,60.0240096,6299f149e92ead563fba08ef,62a4443a30da7de6dd2f9f42,,,,,,,,,,,,,,,,,,,,,,,,,,,,,,,,,,,,,,,,,,,,,,,,,,,,,,,,,,,,,,,,,,,,,,,,,,,,,,,,,,,,,,,,,,,,,,,,,,,,,
,,,,,,1,0,1,0,1,X V Q F H G B L J M P D K C T S W R N Z,5c33496ec75f190001e7ed92,39,Mężczyzna,2022-06-11_09h29.50.283,task,2021.1.4,Win32,60.0240096,6299f149e92ead563fba08ef,62a4443a30da7de6dd2f9f42,,,,,,,,,,,,,,,,,,,,,,,,,,,,,,,,,,,,,,,,,,,,,,,,,,,,,,,,,,,,,,,,,,,,,,,,,,,,,,,,,,,,,,,,,,,,,,,,,,,,,
,,,,,,2,0,2,0,1,X V Q F H G B L J M P D K C T S W R N Z,5c33496ec75f190001e7ed92,39,Mężczyzna,2022-06-11_09h29.50.283,task,2021.1.4,Win32,60.0240096,6299f149e92ead563fba08ef,62a4443a30da7de6dd2f9f42,,,,,,,,,,,,,,,,,,,,,,,,,,,,,,,,,,,,,,,,,,,,,,,,,,,,,,,,,,,,,,,,,,,,,,,,,,,,,,,,,,,,,,,,,,,,,,,,,,,,,
,,,,,,3,0,3,0,1,X V Q F H G B L J M P D K C T S W R N Z,5c33496ec75f190001e7ed92,39,Mężczyzna,2022-06-11_09h29.50.283,task,2021.1.4,Win32,60.0240096,6299f149e92ead563fba08ef,62a4443a30da7de6dd2f9f42,,,,,,,,,,,,,,,,,,,,,,,,,,,,,,,,,,,,,,,,,,,,,,,,,,,,,,,,,,,,,,,,,,,,,,,,,,,,,,,,,,,,,,,,,,,,,,,,,,,,,
,,,,,,4,0,4,0,1,X V Q F H G B L J M P D K C T S W R N Z,5c33496ec75f190001e7ed92,39,Mężczyzna,2022-06-11_09h29.50.283,task,2021.1.4,Win32,60.0240096,6299f149e92ead563fba08ef,62a4443a30da7de6dd2f9f42,,,,,,,,,,,,,,,,,,,,,,,,,,,,,,,,,,,,,,,,,,,,,,,,,,,,,,,,,,,,,,,,,,,,,,,,,,,,,,,,,,,,,,,,,,,,,,,,,,,,,
,,,,,,5,0,5,0,1,X V Q F H G B L J M P D K C T S W R N Z,5c33496ec75f190001e7ed92,39,Mężczyzna,2022-06-11_09h29.50.283,task,2021.1.4,Win32,60.0240096,6299f149e92ead563fba08ef,62a4443a30da7de6dd2f9f42,,,,,,,,,,,,,,,,,,,,,,,,,,,,,,,,,,,,,,,,,,,,,,,,,,,,,,,,,,,,,,,,,,,,,,,,,,,,,,,,,,,,,,,,,,,,,,,,,,,,,
,,,,,,,,,,,,5c33496ec75f190001e7ed92,39,Mężczyzna,2022-06-11_09h29.50.283,task,2021.1.4,Win32,60.0240096,6299f149e92ead563fba08ef,62a4443a30da7de6dd2f9f42,fclllc,"[""f"",""c"",""l"",""l"",""l"",""c""]","[2.2250000000000227,2.568000000000012,3.217000000000013,3.3680000000000234,3.484000000000009,3.7180000000000177,3.9210000000000207]",0,WGMCLC,9,0,9,0,1,,,,,,,,,,,,,,,,,,,,,,,,,,,,,,,,,,,,,,,,,,,,,,,,,,,,,,,,,,,,,,,,,,,,,,,,,,,,,,,,,,,,,,,,,,,
,,,,,,0,0,0,0,1,X V Q F H G B L J M P D K C T S W R N Z,5c33496ec75f190001e7ed92,39,Mężczyzna,2022-06-11_09h29.50.283,task,2021.1.4,Win32,60.0240096,6299f149e92ead563fba08ef,62a4443a30da7de6dd2f9f42,,,,,,,,,,,,,,,,,,,,,,,,,,,,,,,,,,,,,,,,,,,,,,,,,,,,,,,,,,,,,,,,,,,,,,,,,,,,,,,,,,,,,,,,,,,,,,,,,,,,,
,,,,,,1,0,1,0,1,X V Q F H G B L J M P D K C T S W R N Z,5c33496ec75f190001e7ed92,39,Mężczyzna,2022-06-11_09h29.50.283,task,2021.1.4,Win32,60.0240096,6299f149e92ead563fba08ef,62a4443a30da7de6dd2f9f42,,,,,,,,,,,,,,,,,,,,,,,,,,,,,,,,,,,,,,,,,,,,,,,,,,,,,,,,,,,,,,,,,,,,,,,,,,,,,,,,,,,,,,,,,,,,,,,,,,,,,
,,,,,,2,0,2,0,1,X V Q F H G B L J M P D K C T S W R N Z,5c33496ec75f190001e7ed92,39,Mężczyzna,2022-06-11_09h29.50.283,task,2021.1.4,Win32,60.0240096,6299f149e92ead563fba08ef,62a4443a30da7de6dd2f9f42,,,,,,,,,,,,,,,,,,,,,,,,,,,,,,,,,,,,,,,,,,,,,,,,,,,,,,,,,,,,,,,,,,,,,,,,,,,,,,,,,,,,,,,,,,,,,,,,,,,,,
,,,,,,3,0,3,0,1,X V Q F H G B L J M P D K C T S W R N Z,5c33496ec75f190001e7ed92,39,Mężczyzna,2022-06-11_09h29.50.283,task,2021.1.4,Win32,60.0240096,6299f149e92ead563fba08ef,62a4443a30da7de6dd2f9f42,,,,,,,,,,,,,,,,,,,,,,,,,,,,,,,,,,,,,,,,,,,,,,,,,,,,,,,,,,,,,,,,,,,,,,,,,,,,,,,,,,,,,,,,,,,,,,,,,,,,,
,,,,,,4,0,4,0,1,X V Q F H G B L J M P D K C T S W R N Z,5c33496ec75f190001e7ed92,39,Mężczyzna,2022-06-11_09h29.50.283,task,2021.1.4,Win32,60.0240096,6299f149e92ead563fba08ef,62a4443a30da7de6dd2f9f42,,,,,,,,,,,,,,,,,,,,,,,,,,,,,,,,,,,,,,,,,,,,,,,,,,,,,,,,,,,,,,,,,,,,,,,,,,,,,,,,,,,,,,,,,,,,,,,,,,,,,
,,,,,,5,0,5,0,1,X V Q F H G B L J M P D K C T S W R N Z,5c33496ec75f190001e7ed92,39,Mężczyzna,2022-06-11_09h29.50.283,task,2021.1.4,Win32,60.0240096,6299f149e92ead563fba08ef,62a4443a30da7de6dd2f9f42,,,,,,,,,,,,,,,,,,,,,,,,,,,,,,,,,,,,,,,,,,,,,,,,,,,,,,,,,,,,,,,,,,,,,,,,,,,,,,,,,,,,,,,,,,,,,,,,,,,,,
,,,,,,,,,,,,5c33496ec75f190001e7ed92,39,Mężczyzna,2022-06-11_09h29.50.283,task,2021.1.4,Win32,60.0240096,6299f149e92ead563fba08ef,62a4443a30da7de6dd2f9f42,cthlnz,"[""c"",""t"",""h"",""l"",""n"",""z""]","[3.5390000000000157,4.081999999999994,4.643000000000001,5.242999999999995,7.155000000000001,7.555000000000007,8.402000000000015]",1,CTHLNZ,10,0,10,0,1,,,,,,,,,,,,,,,,,,,,,,,,,,,,,,,,,,,,,,,,,,,,,,,,,,,,,,,,,,,,,,,,,,,,,,,,,,,,,,,,,,,,,,,,,,,
,,,,,,0,0,0,0,1,X V Q F H G B L J M P D K C T S W R N Z,5c33496ec75f190001e7ed92,39,Mężczyzna,2022-06-11_09h29.50.283,task,2021.1.4,Win32,60.0240096,6299f149e92ead563fba08ef,62a4443a30da7de6dd2f9f42,,,,,,,,,,,,,,,,,,,,,,,,,,,,,,,,,,,,,,,,,,,,,,,,,,,,,,,,,,,,,,,,,,,,,,,,,,,,,,,,,,,,,,,,,,,,,,,,,,,,,
,,,,,,1,0,1,0,1,X V Q F H G B L J M P D K C T S W R N Z,5c33496ec75f190001e7ed92,39,Mężczyzna,2022-06-11_09h29.50.283,task,2021.1.4,Win32,60.0240096,6299f149e92ead563fba08ef,62a4443a30da7de6dd2f9f42,,,,,,,,,,,,,,,,,,,,,,,,,,,,,,,,,,,,,,,,,,,,,,,,,,,,,,,,,,,,,,,,,,,,,,,,,,,,,,,,,,,,,,,,,,,,,,,,,,,,,
,,,,,,2,0,2,0,1,X V Q F H G B L J M P D K C T S W R N Z,5c33496ec75f190001e7ed92,39,Mężczyzna,2022-06-11_09h29.50.283,task,2021.1.4,Win32,60.0240096,6299f149e92ead563fba08ef,62a4443a30da7de6dd2f9f42,,,,,,,,,,,,,,,,,,,,,,,,,,,,,,,,,,,,,,,,,,,,,,,,,,,,,,,,,,,,,,,,,,,,,,,,,,,,,,,,,,,,,,,,,,,,,,,,,,,,,
,,,,,,3,0,3,0,1,X V Q F H G B L J M P D K C T S W R N Z,5c33496ec75f190001e7ed92,39,Mężczyzna,2022-06-11_09h29.50.283,task,2021.1.4,Win32,60.0240096,6299f149e92ead563fba08ef,62a4443a30da7de6dd2f9f42,,,,,,,,,,,,,,,,,,,,,,,,,,,,,,,,,,,,,,,,,,,,,,,,,,,,,,,,,,,,,,,,,,,,,,,,,,,,,,,,,,,,,,,,,,,,,,,,,,,,,
,,,,,,4,0,4,0,1,X V Q F H G B L J M P D K C T S W R N Z,5c33496ec75f190001e7ed92,39,Mężczyzna,2022-06-11_09h29.50.283,task,2021.1.4,Win32,60.0240096,6299f149e92ead563fba08ef,62a4443a30da7de6dd2f9f42,,,,,,,,,,,,,,,,,,,,,,,,,,,,,,,,,,,,,,,,,,,,,,,,,,,,,,,,,,,,,,,,,,,,,,,,,,,,,,,,,,,,,,,,,,,,,,,,,,,,,
,,,,,,5,0,5,0,1,X V Q F H G B L J M P D K C T S W R N Z,5c33496ec75f190001e7ed92,39,Mężczyzna,2022-06-11_09h29.50.283,task,2021.1.4,Win32,60.0240096,6299f149e92ead563fba08ef,62a4443a30da7de6dd2f9f42,,,,,,,,,,,,,,,,,,,,,,,,,,,,,,,,,,,,,,,,,,,,,,,,,,,,,,,,,,,,,,,,,,,,,,,,,,,,,,,,,,,,,,,,,,,,,,,,,,,,,
,,,,,,,,,,,,5c33496ec75f190001e7ed92,39,Mężczyzna,2022-06-11_09h29.50.283,task,2021.1.4,Win32,60.0240096,6299f149e92ead563fba08ef,62a4443a30da7de6dd2f9f42,sdlwfr,"[""s"",""d"",""l"",""w"",""f"",""r""]","[2.531000000000006,3,4.0400000000000205,4.817000000000007,5.366000000000014,5.5660000000000025,6.152000000000015]",1,SDLWFR,11,0,11,0,1,,,,,,,,,,,,,,,,,,,,,,,,,,,,,,,,,,,,,,,,,,,,,,,,,,,,,,,,,,,,,,,,,,,,,,,,,,,,,,,,,,,,,,,,,,,
,,,,,,0,0,0,0,1,X V Q F H G B L J M P D K C T S W R N Z,5c33496ec75f190001e7ed92,39,Mężczyzna,2022-06-11_09h29.50.283,task,2021.1.4,Win32,60.0240096,6299f149e92ead563fba08ef,62a4443a30da7de6dd2f9f42,,,,,,,,,,,,,,,,,,,,,,,,,,,,,,,,,,,,,,,,,,,,,,,,,,,,,,,,,,,,,,,,,,,,,,,,,,,,,,,,,,,,,,,,,,,,,,,,,,,,,
,,,,,,1,0,1,0,1,X V Q F H G B L J M P D K C T S W R N Z,5c33496ec75f190001e7ed92,39,Mężczyzna,2022-06-11_09h29.50.283,task,2021.1.4,Win32,60.0240096,6299f149e92ead563fba08ef,62a4443a30da7de6dd2f9f42,,,,,,,,,,,,,,,,,,,,,,,,,,,,,,,,,,,,,,,,,,,,,,,,,,,,,,,,,,,,,,,,,,,,,,,,,,,,,,,,,,,,,,,,,,,,,,,,,,,,,
,,,,,,2,0,2,0,1,X V Q F H G B L J M P D K C T S W R N Z,5c33496ec75f190001e7ed92,39,Mężczyzna,2022-06-11_09h29.50.283,task,2021.1.4,Win32,60.0240096,6299f149e92ead563fba08ef,62a4443a30da7de6dd2f9f42,,,,,,,,,,,,,,,,,,,,,,,,,,,,,,,,,,,,,,,,,,,,,,,,,,,,,,,,,,,,,,,,,,,,,,,,,,,,,,,,,,,,,,,,,,,,,,,,,,,,,
,,,,,,3,0,3,0,1,X V Q F H G B L J M P D K C T S W R N Z,5c33496ec75f190001e7ed92,39,Mężczyzna,2022-06-11_09h29.50.283,task,2021.1.4,Win32,60.0240096,6299f149e92ead563fba08ef,62a4443a30da7de6dd2f9f42,,,,,,,,,,,,,,,,,,,,,,,,,,,,,,,,,,,,,,,,,,,,,,,,,,,,,,,,,,,,,,,,,,,,,,,,,,,,,,,,,,,,,,,,,,,,,,,,,,,,,
,,,,,,4,0,4,0,1,X V Q F H G B L J M P D K C T S W R N Z,5c33496ec75f190001e7ed92,39,Mężczyzna,2022-06-11_09h29.50.283,task,2021.1.4,Win32,60.0240096,6299f149e92ead563fba08ef,62a4443a30da7de6dd2f9f42,,,,,,,,,,,,,,,,,,,,,,,,,,,,,,,,,,,,,,,,,,,,,,,,,,,,,,,,,,,,,,,,,,,,,,,,,,,,,,,,,,,,,,,,,,,,,,,,,,,,,
,,,,,,5,0,5,0,1,X V Q F H G B L J M P D K C T S W R N Z,5c33496ec75f190001e7ed92,39,Mężczyzna,2022-06-11_09h29.50.283,task,2021.1.4,Win32,60.0240096,6299f149e92ead563fba08ef,62a4443a30da7de6dd2f9f42,,,,,,,,,,,,,,,,,,,,,,,,,,,,,,,,,,,,,,,,,,,,,,,,,,,,,,,,,,,,,,,,,,,,,,,,,,,,,,,,,,,,,,,,,,,,,,,,,,,,,
,,,,,,6,0,6,0,1,X V Q F H G B L J M P D K C T S W R N Z,5c33496ec75f190001e7ed92,39,Mężczyzna,2022-06-11_09h29.50.283,task,2021.1.4,Win32,60.0240096,6299f149e92ead563fba08ef,62a4443a30da7de6dd2f9f42,,,,,,,,,,,,,,,,,,,,,,,,,,,,,,,,,,,,,,,,,,,,,,,,,,,,,,,,,,,,,,,,,,,,,,,,,,,,,,,,,,,,,,,,,,,,,,,,,,,,,
,,,,,,,,,,,,5c33496ec75f190001e7ed92,39,Mężczyzna,2022-06-11_09h29.50.283,task,2021.1.4,Win32,60.0240096,6299f149e92ead563fba08ef,62a4443a30da7de6dd2f9f42,xlhjw,"[""x"",""l"",""h"",""j"",""w""]","[4.299000000000007,4.531999999999982,5.1910000000000025,6.216000000000008,8.471000000000004,9.133999999999986]",0,XLHLJVP,12,0,12,0,1,,,,,,,,,,,,,,,,,,,,,,,,,,,,,,,,,,,,,,,,,,,,,,,,,,,,,,,,,,,,,,,,,,,,,,,,,,,,,,,,,,,,,,,,,,,
,,,,,,0,0,0,0,1,X V Q F H G B L J M P D K C T S W R N Z,5c33496ec75f190001e7ed92,39,Mężczyzna,2022-06-11_09h29.50.283,task,2021.1.4,Win32,60.0240096,6299f149e92ead563fba08ef,62a4443a30da7de6dd2f9f42,,,,,,,,,,,,,,,,,,,,,,,,,,,,,,,,,,,,,,,,,,,,,,,,,,,,,,,,,,,,,,,,,,,,,,,,,,,,,,,,,,,,,,,,,,,,,,,,,,,,,
,,,,,,1,0,1,0,1,X V Q F H G B L J M P D K C T S W R N Z,5c33496ec75f190001e7ed92,39,Mężczyzna,2022-06-11_09h29.50.283,task,2021.1.4,Win32,60.0240096,6299f149e92ead563fba08ef,62a4443a30da7de6dd2f9f42,,,,,,,,,,,,,,,,,,,,,,,,,,,,,,,,,,,,,,,,,,,,,,,,,,,,,,,,,,,,,,,,,,,,,,,,,,,,,,,,,,,,,,,,,,,,,,,,,,,,,
,,,,,,2,0,2,0,1,X V Q F H G B L J M P D K C T S W R N Z,5c33496ec75f190001e7ed92,39,Mężczyzna,2022-06-11_09h29.50.283,task,2021.1.4,Win32,60.0240096,6299f149e92ead563fba08ef,62a4443a30da7de6dd2f9f42,,,,,,,,,,,,,,,,,,,,,,,,,,,,,,,,,,,,,,,,,,,,,,,,,,,,,,,,,,,,,,,,,,,,,,,,,,,,,,,,,,,,,,,,,,,,,,,,,,,,,
,,,,,,3,0,3,0,1,X V Q F H G B L J M P D K C T S W R N Z,5c33496ec75f190001e7ed92,39,Mężczyzna,2022-06-11_09h29.50.283,task,2021.1.4,Win32,60.0240096,6299f149e92ead563fba08ef,62a4443a30da7de6dd2f9f42,,,,,,,,,,,,,,,,,,,,,,,,,,,,,,,,,,,,,,,,,,,,,,,,,,,,,,,,,,,,,,,,,,,,,,,,,,,,,,,,,,,,,,,,,,,,,,,,,,,,,
,,,,,,4,0,4,0,1,X V Q F H G B L J M P D K C T S W R N Z,5c33496ec75f190001e7ed92,39,Mężczyzna,2022-06-11_09h29.50.283,task,2021.1.4,Win32,60.0240096,6299f149e92ead563fba08ef,62a4443a30da7de6dd2f9f42,,,,,,,,,,,,,,,,,,,,,,,,,,,,,,,,,,,,,,,,,,,,,,,,,,,,,,,,,,,,,,,,,,,,,,,,,,,,,,,,,,,,,,,,,,,,,,,,,,,,,
,,,,,,5,0,5,0,1,X V Q F H G B L J M P D K C T S W R N Z,5c33496ec75f190001e7ed92,39,Mężczyzna,2022-06-11_09h29.50.283,task,2021.1.4,Win32,60.0240096,6299f149e92ead563fba08ef,62a4443a30da7de6dd2f9f42,,,,,,,,,,,,,,,,,,,,,,,,,,,,,,,,,,,,,,,,,,,,,,,,,,,,,,,,,,,,,,,,,,,,,,,,,,,,,,,,,,,,,,,,,,,,,,,,,,,,,
,,,,,,6,0,6,0,1,X V Q F H G B L J M P D K C T S W R N Z,5c33496ec75f190001e7ed92,39,Mężczyzna,2022-06-11_09h29.50.283,task,2021.1.4,Win32,60.0240096,6299f149e92ead563fba08ef,62a4443a30da7de6dd2f9f42,,,,,,,,,,,,,,,,,,,,,,,,,,,,,,,,,,,,,,,,,,,,,,,,,,,,,,,,,,,,,,,,,,,,,,,,,,,,,,,,,,,,,,,,,,,,,,,,,,,,,
,,,,,,,,,,,,5c33496ec75f190001e7ed92,39,Mężczyzna,2022-06-11_09h29.50.283,task,2021.1.4,Win32,60.0240096,6299f149e92ead563fba08ef,62a4443a30da7de6dd2f9f42,wqlhljw,"[""w"",""q"",""l"",""h"",""l"",""j"",""w""]","[3.484000000000009,4.217000000000013,4.909999999999997,5.449000000000012,6.221000000000004,7.2379999999999995,10.199999999999989,10.421999999999997]",0,WQZTTMZ,13,0,13,0,1,,,,,,,,,,,,,,,,,,,,,,,,,,,,,,,,,,,,,,,,,,,,,,,,,,,,,,,,,,,,,,,,,,,,,,,,,,,,,,,,,,,,,,,,,,,
,,,,,,0,0,0,0,1,X V Q F H G B L J M P D K C T S W R N Z,5c33496ec75f190001e7ed92,39,Mężczyzna,2022-06-11_09h29.50.283,task,2021.1.4,Win32,60.0240096,6299f149e92ead563fba08ef,62a4443a30da7de6dd2f9f42,,,,,,,,,,,,,,,,,,,,,,,,,,,,,,,,,,,,,,,,,,,,,,,,,,,,,,,,,,,,,,,,,,,,,,,,,,,,,,,,,,,,,,,,,,,,,,,,,,,,,
,,,,,,1,0,1,0,1,X V Q F H G B L J M P D K C T S W R N Z,5c33496ec75f190001e7ed92,39,Mężczyzna,2022-06-11_09h29.50.283,task,2021.1.4,Win32,60.0240096,6299f149e92ead563fba08ef,62a4443a30da7de6dd2f9f42,,,,,,,,,,,,,,,,,,,,,,,,,,,,,,,,,,,,,,,,,,,,,,,,,,,,,,,,,,,,,,,,,,,,,,,,,,,,,,,,,,,,,,,,,,,,,,,,,,,,,
,,,,,,2,0,2,0,1,X V Q F H G B L J M P D K C T S W R N Z,5c33496ec75f190001e7ed92,39,Mężczyzna,2022-06-11_09h29.50.283,task,2021.1.4,Win32,60.0240096,6299f149e92ead563fba08ef,62a4443a30da7de6dd2f9f42,,,,,,,,,,,,,,,,,,,,,,,,,,,,,,,,,,,,,,,,,,,,,,,,,,,,,,,,,,,,,,,,,,,,,,,,,,,,,,,,,,,,,,,,,,,,,,,,,,,,,
,,,,,,3,0,3,0,1,X V Q F H G B L J M P D K C T S W R N Z,5c33496ec75f190001e7ed92,39,Mężczyzna,2022-06-11_09h29.50.283,task,2021.1.4,Win32,60.0240096,6299f149e92ead563fba08ef,62a4443a30da7de6dd2f9f42,,,,,,,,,,,,,,,,,,,,,,,,,,,,,,,,,,,,,,,,,,,,,,,,,,,,,,,,,,,,,,,,,,,,,,,,,,,,,,,,,,,,,,,,,,,,,,,,,,,,,
,,,,,,4,0,4,0,1,X V Q F H G B L J M P D K C T S W R N Z,5c33496ec75f190001e7ed92,39,Mężczyzna,2022-06-11_09h29.50.283,task,2021.1.4,Win32,60.0240096,6299f149e92ead563fba08ef,62a4443a30da7de6dd2f9f42,,,,,,,,,,,,,,,,,,,,,,,,,,,,,,,,,,,,,,,,,,,,,,,,,,,,,,,,,,,,,,,,,,,,,,,,,,,,,,,,,,,,,,,,,,,,,,,,,,,,,
,,,,,,5,0,5,0,1,X V Q F H G B L J M P D K C T S W R N Z,5c33496ec75f190001e7ed92,39,Mężczyzna,2022-06-11_09h29.50.283,task,2021.1.4,Win32,60.0240096,6299f149e92ead563fba08ef,62a4443a30da7de6dd2f9f42,,,,,,,,,,,,,,,,,,,,,,,,,,,,,,,,,,,,,,,,,,,,,,,,,,,,,,,,,,,,,,,,,,,,,,,,,,,,,,,,,,,,,,,,,,,,,,,,,,,,,
,,,,,,6,0,6,0,1,X V Q F H G B L J M P D K C T S W R N Z,5c33496ec75f190001e7ed92,39,Mężczyzna,2022-06-11_09h29.50.283,task,2021.1.4,Win32,60.0240096,6299f149e92ead563fba08ef,62a4443a30da7de6dd2f9f42,,,,,,,,,,,,,,,,,,,,,,,,,,,,,,,,,,,,,,,,,,,,,,,,,,,,,,,,,,,,,,,,,,,,,,,,,,,,,,,,,,,,,,,,,,,,,,,,,,,,,
,,,,,,,,,,,,5c33496ec75f190001e7ed92,39,Mężczyzna,2022-06-11_09h29.50.283,task,2021.1.4,Win32,60.0240096,6299f149e92ead563fba08ef,62a4443a30da7de6dd2f9f42,blkppgk,"[""b"",""l"",""k"",""p"",""p"",""g"",""k""]","[3.190999999999974,4.566999999999979,6.006,6.57499999999996,7.653999999999968,8.530999999999977,9.83899999999997,10.469999999999999]",1,BLKPPGK,14,0,14,0,1,,,,,,,,,,,,,,,,,,,,,,,,,,,,,,,,,,,,,,,,,,,,,,,,,,,,,,,,,,,,,,,,,,,,,,,,,,,,,,,,,,,,,,,,,,,
,,,,,,0,0,0,0,1,X V Q F H G B L J M P D K C T S W R N Z,5c33496ec75f190001e7ed92,39,Mężczyzna,2022-06-11_09h29.50.283,task,2021.1.4,Win32,60.0240096,6299f149e92ead563fba08ef,62a4443a30da7de6dd2f9f42,,,,,,,,,,,,,,,,,,,,,,,,,,,,,,,,,,,,,,,,,,,,,,,,,,,,,,,,,,,,,,,,,,,,,,,,,,,,,,,,,,,,,,,,,,,,,,,,,,,,,
,,,,,,1,0,1,0,1,X V Q F H G B L J M P D K C T S W R N Z,5c33496ec75f190001e7ed92,39,Mężczyzna,2022-06-11_09h29.50.283,task,2021.1.4,Win32,60.0240096,6299f149e92ead563fba08ef,62a4443a30da7de6dd2f9f42,,,,,,,,,,,,,,,,,,,,,,,,,,,,,,,,,,,,,,,,,,,,,,,,,,,,,,,,,,,,,,,,,,,,,,,,,,,,,,,,,,,,,,,,,,,,,,,,,,,,,
,,,,,,2,0,2,0,1,X V Q F H G B L J M P D K C T S W R N Z,5c33496ec75f190001e7ed92,39,Mężczyzna,2022-06-11_09h29.50.283,task,2021.1.4,Win32,60.0240096,6299f149e92ead563fba08ef,62a4443a30da7de6dd2f9f42,,,,,,,,,,,,,,,,,,,,,,,,,,,,,,,,,,,,,,,,,,,,,,,,,,,,,,,,,,,,,,,,,,,,,,,,,,,,,,,,,,,,,,,,,,,,,,,,,,,,,
,,,,,,3,0,3,0,1,X V Q F H G B L J M P D K C T S W R N Z,5c33496ec75f190001e7ed92,39,Mężczyzna,2022-06-11_09h29.50.283,task,2021.1.4,Win32,60.0240096,6299f149e92ead563fba08ef,62a4443a30da7de6dd2f9f42,,,,,,,,,,,,,,,,,,,,,,,,,,,,,,,,,,,,,,,,,,,,,,,,,,,,,,,,,,,,,,,,,,,,,,,,,,,,,,,,,,,,,,,,,,,,,,,,,,,,,
,,,,,,4,0,4,0,1,X V Q F H G B L J M P D K C T S W R N Z,5c33496ec75f190001e7ed92,39,Mężczyzna,2022-06-11_09h29.50.283,task,2021.1.4,Win32,60.0240096,6299f149e92ead563fba08ef,62a4443a30da7de6dd2f9f42,,,,,,,,,,,,,,,,,,,,,,,,,,,,,,,,,,,,,,,,,,,,,,,,,,,,,,,,,,,,,,,,,,,,,,,,,,,,,,,,,,,,,,,,,,,,,,,,,,,,,
,,,,,,5,0,5,0,1,X V Q F H G B L J M P D K C T S W R N Z,5c33496ec75f190001e7ed92,39,Mężczyzna,2022-06-11_09h29.50.283,task,2021.1.4,Win32,60.0240096,6299f149e92ead563fba08ef,62a4443a30da7de6dd2f9f42,,,,,,,,,,,,,,,,,,,,,,,,,,,,,,,,,,,,,,,,,,,,,,,,,,,,,,,,,,,,,,,,,,,,,,,,,,,,,,,,,,,,,,,,,,,,,,,,,,,,,
,,,,,,6,0,6,0,1,X V Q F H G B L J M P D K C T S W R N Z,5c33496ec75f190001e7ed92,39,Mężczyzna,2022-06-11_09h29.50.283,task,2021.1.4,Win32,60.0240096,6299f149e92ead563fba08ef,62a4443a30da7de6dd2f9f42,,,,,,,,,,,,,,,,,,,,,,,,,,,,,,,,,,,,,,,,,,,,,,,,,,,,,,,,,,,,,,,,,,,,,,,,,,,,,,,,,,,,,,,,,,,,,,,,,,,,,
,,,,,,,,,,,,5c33496ec75f190001e7ed92,39,Mężczyzna,2022-06-11_09h29.50.283,task,2021.1.4,Win32,60.0240096,6299f149e92ead563fba08ef,62a4443a30da7de6dd2f9f42,mfnccjx,"[""m"",""f"",""n"",""c"",""c"",""j"",""x""]","[2.7329999999999472,3.2479999999999905,5.266999999999996,6.623999999999967,6.750999999999976,7.064999999999998,8.087999999999965,8.375]",1,MFNCCJX,15,0,15,0,1,,,,,,,,,,,,,,,,,,,,,,,,,,,,,,,,,,,,,,,,,,,,,,,,,,,,,,,,,,,,,,,,,,,,,,,,,,,,,,,,,,,,,,,,,,,
,,,,,,0,0,0,0,1,X V Q F H G B L J M P D K C T S W R N Z,5c33496ec75f190001e7ed92,39,Mężczyzna,2022-06-11_09h29.50.283,task,2021.1.4,Win32,60.0240096,6299f149e92ead563fba08ef,62a4443a30da7de6dd2f9f42,,,,,,,,,,,,,,,,,,,,,,,,,,,,,,,,,,,,,,,,,,,,,,,,,,,,,,,,,,,,,,,,,,,,,,,,,,,,,,,,,,,,,,,,,,,,,,,,,,,,,
,,,,,,1,0,1,0,1,X V Q F H G B L J M P D K C T S W R N Z,5c33496ec75f190001e7ed92,39,Mężczyzna,2022-06-11_09h29.50.283,task,2021.1.4,Win32,60.0240096,6299f149e92ead563fba08ef,62a4443a30da7de6dd2f9f42,,,,,,,,,,,,,,,,,,,,,,,,,,,,,,,,,,,,,,,,,,,,,,,,,,,,,,,,,,,,,,,,,,,,,,,,,,,,,,,,,,,,,,,,,,,,,,,,,,,,,
,,,,,,2,0,2,0,1,X V Q F H G B L J M P D K C T S W R N Z,5c33496ec75f190001e7ed92,39,Mężczyzna,2022-06-11_09h29.50.283,task,2021.1.4,Win32,60.0240096,6299f149e92ead563fba08ef,62a4443a30da7de6dd2f9f42,,,,,,,,,,,,,,,,,,,,,,,,,,,,,,,,,,,,,,,,,,,,,,,,,,,,,,,,,,,,,,,,,,,,,,,,,,,,,,,,,,,,,,,,,,,,,,,,,,,,,
,,,,,,3,0,3,0,1,X V Q F H G B L J M P D K C T S W R N Z,5c33496ec75f190001e7ed92,39,Mężczyzna,2022-06-11_09h29.50.283,task,2021.1.4,Win32,60.0240096,6299f149e92ead563fba08ef,62a4443a30da7de6dd2f9f42,,,,,,,,,,,,,,,,,,,,,,,,,,,,,,,,,,,,,,,,,,,,,,,,,,,,,,,,,,,,,,,,,,,,,,,,,,,,,,,,,,,,,,,,,,,,,,,,,,,,,
,,,,,,4,0,4,0,1,X V Q F H G B L J M P D K C T S W R N Z,5c33496ec75f190001e7ed92,39,Mężczyzna,2022-06-11_09h29.50.283,task,2021.1.4,Win32,60.0240096,6299f149e92ead563fba08ef,62a4443a30da7de6dd2f9f42,,,,,,,,,,,,,,,,,,,,,,,,,,,,,,,,,,,,,,,,,,,,,,,,,,,,,,,,,,,,,,,,,,,,,,,,,,,,,,,,,,,,,,,,,,,,,,,,,,,,,
,,,,,,5,0,5,0,1,X V Q F H G B L J M P D K C T S W R N Z,5c33496ec75f190001e7ed92,39,Mężczyzna,2022-06-11_09h29.50.283,task,2021.1.4,Win32,60.0240096,6299f149e92ead563fba08ef,62a4443a30da7de6dd2f9f42,,,,,,,,,,,,,,,,,,,,,,,,,,,,,,,,,,,,,,,,,,,,,,,,,,,,,,,,,,,,,,,,,,,,,,,,,,,,,,,,,,,,,,,,,,,,,,,,,,,,,
,,,,,,6,0,6,0,1,X V Q F H G B L J M P D K C T S W R N Z,5c33496ec75f190001e7ed92,39,Mężczyzna,2022-06-11_09h29.50.283,task,2021.1.4,Win32,60.0240096,6299f149e92ead563fba08ef,62a4443a30da7de6dd2f9f42,,,,,,,,,,,,,,,,,,,,,,,,,,,,,,,,,,,,,,,,,,,,,,,,,,,,,,,,,,,,,,,,,,,,,,,,,,,,,,,,,,,,,,,,,,,,,,,,,,,,,
,,,,,,7,0,7,0,1,X V Q F H G B L J M P D K C T S W R N Z,5c33496ec75f190001e7ed92,39,Mężczyzna,2022-06-11_09h29.50.283,task,2021.1.4,Win32,60.0240096,6299f149e92ead563fba08ef,62a4443a30da7de6dd2f9f42,,,,,,,,,,,,,,,,,,,,,,,,,,,,,,,,,,,,,,,,,,,,,,,,,,,,,,,,,,,,,,,,,,,,,,,,,,,,,,,,,,,,,,,,,,,,,,,,,,,,,
,,,,,,,,,,,,5c33496ec75f190001e7ed92,39,Mężczyzna,2022-06-11_09h29.50.283,task,2021.1.4,Win32,60.0240096,6299f149e92ead563fba08ef,62a4443a30da7de6dd2f9f42,bhhmtmmn,"[""b"",""h"",""h"",""m"",""t"",""m"",""m"",""n""]","[3.6410000000000196,4.0160000000000196,4.393000000000029,5.049000000000035,5.968000000000018,6.733000000000004,6.841000000000008,7.0090000000000146,7.415999999999997]",0,BKHMTMMN,16,0,16,0,1,,,,,,,,,,,,,,,,,,,,,,,,,,,,,,,,,,,,,,,,,,,,,,,,,,,,,,,,,,,,,,,,,,,,,,,,,,,,,,,,,,,,,,,,,,,
,,,,,,0,0,0,0,1,X V Q F H G B L J M P D K C T S W R N Z,5c33496ec75f190001e7ed92,39,Mężczyzna,2022-06-11_09h29.50.283,task,2021.1.4,Win32,60.0240096,6299f149e92ead563fba08ef,62a4443a30da7de6dd2f9f42,,,,,,,,,,,,,,,,,,,,,,,,,,,,,,,,,,,,,,,,,,,,,,,,,,,,,,,,,,,,,,,,,,,,,,,,,,,,,,,,,,,,,,,,,,,,,,,,,,,,,
,,,,,,1,0,1,0,1,X V Q F H G B L J M P D K C T S W R N Z,5c33496ec75f190001e7ed92,39,Mężczyzna,2022-06-11_09h29.50.283,task,2021.1.4,Win32,60.0240096,6299f149e92ead563fba08ef,62a4443a30da7de6dd2f9f42,,,,,,,,,,,,,,,,,,,,,,,,,,,,,,,,,,,,,,,,,,,,,,,,,,,,,,,,,,,,,,,,,,,,,,,,,,,,,,,,,,,,,,,,,,,,,,,,,,,,,
,,,,,,2,0,2,0,1,X V Q F H G B L J M P D K C T S W R N Z,5c33496ec75f190001e7ed92,39,Mężczyzna,2022-06-11_09h29.50.283,task,2021.1.4,Win32,60.0240096,6299f149e92ead563fba08ef,62a4443a30da7de6dd2f9f42,,,,,,,,,,,,,,,,,,,,,,,,,,,,,,,,,,,,,,,,,,,,,,,,,,,,,,,,,,,,,,,,,,,,,,,,,,,,,,,,,,,,,,,,,,,,,,,,,,,,,
,,,,,,3,0,3,0,1,X V Q F H G B L J M P D K C T S W R N Z,5c33496ec75f190001e7ed92,39,Mężczyzna,2022-06-11_09h29.50.283,task,2021.1.4,Win32,60.0240096,6299f149e92ead563fba08ef,62a4443a30da7de6dd2f9f42,,,,,,,,,,,,,,,,,,,,,,,,,,,,,,,,,,,,,,,,,,,,,,,,,,,,,,,,,,,,,,,,,,,,,,,,,,,,,,,,,,,,,,,,,,,,,,,,,,,,,
,,,,,,4,0,4,0,1,X V Q F H G B L J M P D K C T S W R N Z,5c33496ec75f190001e7ed92,39,Mężczyzna,2022-06-11_09h29.50.283,task,2021.1.4,Win32,60.0240096,6299f149e92ead563fba08ef,62a4443a30da7de6dd2f9f42,,,,,,,,,,,,,,,,,,,,,,,,,,,,,,,,,,,,,,,,,,,,,,,,,,,,,,,,,,,,,,,,,,,,,,,,,,,,,,,,,,,,,,,,,,,,,,,,,,,,,
,,,,,,5,0,5,0,1,X V Q F H G B L J M P D K C T S W R N Z,5c33496ec75f190001e7ed92,39,Mężczyzna,2022-06-11_09h29.50.283,task,2021.1.4,Win32,60.0240096,6299f149e92ead563fba08ef,62a4443a30da7de6dd2f9f42,,,,,,,,,,,,,,,,,,,,,,,,,,,,,,,,,,,,,,,,,,,,,,,,,,,,,,,,,,,,,,,,,,,,,,,,,,,,,,,,,,,,,,,,,,,,,,,,,,,,,
,,,,,,6,0,6,0,1,X V Q F H G B L J M P D K C T S W R N Z,5c33496ec75f190001e7ed92,39,Mężczyzna,2022-06-11_09h29.50.283,task,2021.1.4,Win32,60.0240096,6299f149e92ead563fba08ef,62a4443a30da7de6dd2f9f42,,,,,,,,,,,,,,,,,,,,,,,,,,,,,,,,,,,,,,,,,,,,,,,,,,,,,,,,,,,,,,,,,,,,,,,,,,,,,,,,,,,,,,,,,,,,,,,,,,,,,
,,,,,,7,0,7,0,1,X V Q F H G B L J M P D K C T S W R N Z,5c33496ec75f190001e7ed92,39,Mężczyzna,2022-06-11_09h29.50.283,task,2021.1.4,Win32,60.0240096,6299f149e92ead563fba08ef,62a4443a30da7de6dd2f9f42,,,,,,,,,,,,,,,,,,,,,,,,,,,,,,,,,,,,,,,,,,,,,,,,,,,,,,,,,,,,,,,,,,,,,,,,,,,,,,,,,,,,,,,,,,,,,,,,,,,,,
,,,,,,,,,,,,5c33496ec75f190001e7ed92,39,Mężczyzna,2022-06-11_09h29.50.283,task,2021.1.4,Win32,60.0240096,6299f149e92ead563fba08ef,62a4443a30da7de6dd2f9f42,mffcgtnp,"[""m"",""f"",""f"",""c"",""g"",""t"",""n"",""p""]","[5.716000000000008,6.734000000000037,6.8870000000000005,7.848000000000013,9.97399999999999,10.949999999999989,11.734000000000037,12.064000000000021,12.375]",0,MFTCGTNP,17,0,17,0,1,,,,,,,,,,,,,,,,,,,,,,,,,,,,,,,,,,,,,,,,,,,,,,,,,,,,,,,,,,,,,,,,,,,,,,,,,,,,,,,,,,,,,,,,,,,
,,,,,,0,0,0,0,1,X V Q F H G B L J M P D K C T S W R N Z,5c33496ec75f190001e7ed92,39,Mężczyzna,2022-06-11_09h29.50.283,task,2021.1.4,Win32,60.0240096,6299f149e92ead563fba08ef,62a4443a30da7de6dd2f9f42,,,,,,,,,,,,,,,,,,,,,,,,,,,,,,,,,,,,,,,,,,,,,,,,,,,,,,,,,,,,,,,,,,,,,,,,,,,,,,,,,,,,,,,,,,,,,,,,,,,,,
,,,,,,1,0,1,0,1,X V Q F H G B L J M P D K C T S W R N Z,5c33496ec75f190001e7ed92,39,Mężczyzna,2022-06-11_09h29.50.283,task,2021.1.4,Win32,60.0240096,6299f149e92ead563fba08ef,62a4443a30da7de6dd2f9f42,,,,,,,,,,,,,,,,,,,,,,,,,,,,,,,,,,,,,,,,,,,,,,,,,,,,,,,,,,,,,,,,,,,,,,,,,,,,,,,,,,,,,,,,,,,,,,,,,,,,,
,,,,,,2,0,2,0,1,X V Q F H G B L J M P D K C T S W R N Z,5c33496ec75f190001e7ed92,39,Mężczyzna,2022-06-11_09h29.50.283,task,2021.1.4,Win32,60.0240096,6299f149e92ead563fba08ef,62a4443a30da7de6dd2f9f42,,,,,,,,,,,,,,,,,,,,,,,,,,,,,,,,,,,,,,,,,,,,,,,,,,,,,,,,,,,,,,,,,,,,,,,,,,,,,,,,,,,,,,,,,,,,,,,,,,,,,
,,,,,,3,0,3,0,1,X V Q F H G B L J M P D K C T S W R N Z,5c33496ec75f190001e7ed92,39,Mężczyzna,2022-06-11_09h29.50.283,task,2021.1.4,Win32,60.0240096,6299f149e92ead563fba08ef,62a4443a30da7de6dd2f9f42,,,,,,,,,,,,,,,,,,,,,,,,,,,,,,,,,,,,,,,,,,,,,,,,,,,,,,,,,,,,,,,,,,,,,,,,,,,,,,,,,,,,,,,,,,,,,,,,,,,,,
,,,,,,4,0,4,0,1,X V Q F H G B L J M P D K C T S W R N Z,5c33496ec75f190001e7ed92,39,Mężczyzna,2022-06-11_09h29.50.283,task,2021.1.4,Win32,60.0240096,6299f149e92ead563fba08ef,62a4443a30da7de6dd2f9f42,,,,,,,,,,,,,,,,,,,,,,,,,,,,,,,,,,,,,,,,,,,,,,,,,,,,,,,,,,,,,,,,,,,,,,,,,,,,,,,,,,,,,,,,,,,,,,,,,,,,,
,,,,,,5,0,5,0,1,X V Q F H G B L J M P D K C T S W R N Z,5c33496ec75f190001e7ed92,39,Mężczyzna,2022-06-11_09h29.50.283,task,2021.1.4,Win32,60.0240096,6299f149e92ead563fba08ef,62a4443a30da7de6dd2f9f42,,,,,,,,,,,,,,,,,,,,,,,,,,,,,,,,,,,,,,,,,,,,,,,,,,,,,,,,,,,,,,,,,,,,,,,,,,,,,,,,,,,,,,,,,,,,,,,,,,,,,
,,,,,,6,0,6,0,1,X V Q F H G B L J M P D K C T S W R N Z,5c33496ec75f190001e7ed92,39,Mężczyzna,2022-06-11_09h29.50.283,task,2021.1.4,Win32,60.0240096,6299f149e92ead563fba08ef,62a4443a30da7de6dd2f9f42,,,,,,,,,,,,,,,,,,,,,,,,,,,,,,,,,,,,,,,,,,,,,,,,,,,,,,,,,,,,,,,,,,,,,,,,,,,,,,,,,,,,,,,,,,,,,,,,,,,,,
,,,,,,7,0,7,0,1,X V Q F H G B L J M P D K C T S W R N Z,5c33496ec75f190001e7ed92,39,Mężczyzna,2022-06-11_09h29.50.283,task,2021.1.4,Win32,60.0240096,6299f149e92ead563fba08ef,62a4443a30da7de6dd2f9f42,,,,,,,,,,,,,,,,,,,,,,,,,,,,,,,,,,,,,,,,,,,,,,,,,,,,,,,,,,,,,,,,,,,,,,,,,,,,,,,,,,,,,,,,,,,,,,,,,,,,,
,,,,,,,,,,,,5c33496ec75f190001e7ed92,39,Mężczyzna,2022-06-11_09h29.50.283,task,2021.1.4,Win32,60.0240096,6299f149e92ead563fba08ef,62a4443a30da7de6dd2f9f42,mtsctjxg,"[""m"",""t"",""s"",""c"",""t"",""j"",""x"",""g""]","[1.9990000000000236,2.2490000000000236,4.58299999999997,5.535000000000025,6.055999999999983,7.350999999999999,8.807999999999993,8.934000000000026,10.014999999999986]",0,MTCSTJXG,18,0,18,0,1,,,,,,,,,,,,,,,,,,,,,,,,,,,,,,,,,,,,,,,,,,,,,,,,,,,,,,,,,,,,,,,,,,,,,,,,,,,,,,,,,,,,,,,,,,,
,,,,,,,,,,,,5c33496ec75f190001e7ed92,39,Mężczyzna,2022-06-11_09h29.50.283,task,2021.1.4,Win32,60.0240096,6299f149e92ead563fba08ef,62a4443a30da7de6dd2f9f42,,,,,,,,,,,space,5.156,4,"[""4""]",1,[10.028999999999996],[10.028999999999996],0,0,0,4,1,Practice,5,(2x6) - 8,4,,,,,,,,,,,,,,,,,,,,,,,,,,,,,,,,,,,,,,,,,,,,,,,,,,,,,,,,,,,,,,,,,,,,,,,,,,,
,,,,,,,,,,,,5c33496ec75f190001e7ed92,39,Mężczyzna,2022-06-11_09h29.50.283,task,2021.1.4,Win32,60.0240096,6299f149e92ead563fba08ef,62a4443a30da7de6dd2f9f42,,,,,,,,,,,,,7,"[""7""]",1,[4.4529999999999745],"[10.028999999999996,4.4529999999999745]",0,1,1,7,1,Practice,8,(5x5) - 18,7,,,,,,,,,,,,,,,,,,,,,,,,,,,,,,,,,,,,,,,,,,,,,,,,,,,,,,,,,,,,,,,,,,,,,,,,,,,
,,,,,,,,,,,,5c33496ec75f190001e7ed92,39,Mężczyzna,2022-06-11_09h29.50.283,task,2021.1.4,Win32,60.0240096,6299f149e92ead563fba08ef,62a4443a30da7de6dd2f9f42,,,,,,,,,,,,,2,"[""2""]",1,[9.165999999999997],"[10.028999999999996,4.4529999999999745,9.165999999999997]",0,2,2,2,1,Practice,3,(4x4) - 14,2,,,,,,,,,,,,,,,,,,,,,,,,,,,,,,,,,,,,,,,,,,,,,,,,,,,,,,,,,,,,,,,,,,,,,,,,,,,
,,,,,,,,,,,,5c33496ec75f190001e7ed92,39,Mężczyzna,2022-06-11_09h29.50.283,task,2021.1.4,Win32,60.0240096,6299f149e92ead563fba08ef,62a4443a30da7de6dd2f9f42,,,,,,,,,,,,,5,"[""5""]",1,[3.041999999999973],"[10.028999999999996,4.4529999999999745,9.165999999999997,3.041999999999973]",0,3,3,5,1,Practice,6,(4/2) + 3,5,,,,,,,,,,,,,,,,,,,,,,,,,,,,,,,,,,,,,,,,,,,,,,,,,,,,,,,,,,,,,,,,,,,,,,,,,,,
,,,,,,,,,,,,5c33496ec75f190001e7ed92,39,Mężczyzna,2022-06-11_09h29.50.283,task,2021.1.4,Win32,60.0240096,6299f149e92ead563fba08ef,62a4443a30da7de6dd2f9f42,,,,,,,,,,,,,9,"[""9""]",1,[2.535000000000025],"[10.028999999999996,4.4529999999999745,9.165999999999997,3.041999999999973,2.535000000000025]",0,4,4,9,1,Practice,10,(20/2) - 1,9,,,,,,,,,,,,,,,,,,,,,,,,,,,,,,,,,,,,,,,,,,,,,,,,,,,,,,,,,,,,,,,,,,,,,,,,,,,
,,,,,,,,,,,,5c33496ec75f190001e7ed92,39,Mężczyzna,2022-06-11_09h29.50.283,task,2021.1.4,Win32,60.0240096,6299f149e92ead563fba08ef,62a4443a30da7de6dd2f9f42,,,,,,,,,,,,,5,"[""5""]",0,[2.4569999999999936],"[10.028999999999996,4.4529999999999745,9.165999999999997,3.041999999999973,2.535000000000025,2.4569999999999936]",0,5,5,3,1,Practice,4,(8/4) + 1,3,,,,,,,,,,,,,,,,,,,,,,,,,,,,,,,,,,,,,,,,,,,,,,,,,,,,,,,,,,,,,,,,,,,,,,,,,,,
,,,,,,,,,,,,5c33496ec75f190001e7ed92,39,Mężczyzna,2022-06-11_09h29.50.283,task,2021.1.4,Win32,60.0240096,6299f149e92ead563fba08ef,62a4443a30da7de6dd2f9f42,,,,,,,,,,,,,8,"[""8""]",1,[2.3500000000000227],"[10.028999999999996,4.4529999999999745,9.165999999999997,3.041999999999973,2.535000000000025,2.4569999999999936,2.3500000000000227]",0,6,6,8,1,Practice,9,(3x3) - 1,8,,,,,,,,,,,,,,,,,,,,,,,,,,,,,,,,,,,,,,,,,,,,,,,,,,,,,,,,,,,,,,,,,,,,,,,,,,,
,,,,,,,,,,,,5c33496ec75f190001e7ed92,39,Mężczyzna,2022-06-11_09h29.50.283,task,2021.1.4,Win32,60.0240096,6299f149e92ead563fba08ef,62a4443a30da7de6dd2f9f42,,,,,,,,,,,,,1,"[""1""]",1,[3.1829999999999927],"[10.028999999999996,4.4529999999999745,9.165999999999997,3.041999999999973,2.535000000000025,2.4569999999999936,2.3500000000000227,3.1829999999999927]",0,7,7,1,1,Practice,2,(4x4) - 15,1,,,,,,,,,,,,,,,,,,,,,,,,,,,,,,,,,,,,,,,,,,,,,,,,,,,,,,,,,,,,,,,,,,,,,,,,,,,
,,,,,,,,,,,,5c33496ec75f190001e7ed92,39,Mężczyzna,2022-06-11_09h29.50.283,task,2021.1.4,Win32,60.0240096,6299f149e92ead563fba08ef,62a4443a30da7de6dd2f9f42,,,,,,,,,,,,,6,"[""6""]",1,[3.9350000000000023],"[10.028999999999996,4.4529999999999745,9.165999999999997,3.041999999999973,2.535000000000025,2.4569999999999936,2.3500000000000227,3.1829999999999927,3.9350000000000023]",0,8,8,6,1,Practice,7,(25/5) + 1,6,,,,,,,,,,,,,,,,,,,,,,,,,,,,,,,,,,,,,,,,,,,,,,,,,,,,,,,,,,,,,,,,,,,,,,,,,,,
,,,,,,,,,,,,5c33496ec75f190001e7ed92,39,Mężczyzna,2022-06-11_09h29.50.283,task,2021.1.4,Win32,60.0240096,6299f149e92ead563fba08ef,62a4443a30da7de6dd2f9f42,,,,,,,,,,,,,0,"[""0""]",1,[2.065999999999974],"[10.028999999999996,4.4529999999999745,9.165999999999997,3.041999999999973,2.535000000000025,2.4569999999999936,2.3500000000000227,3.1829999999999927,3.9350000000000023,2.065999999999974]",0,9,9,0,1,Practice,1,(3x3) -  9,0,,,,,,,,,,,,,,,,,,,,,,,,,,,,,,,,,,,,,,,,,,,,,,,,,,,,,,,,,,,,,,,,,,,,,,,,,,,
,,,,,,,,,,,,5c33496ec75f190001e7ed92,39,Mężczyzna,2022-06-11_09h29.50.283,task,2021.1.4,Win32,60.0240096,6299f149e92ead563fba08ef,62a4443a30da7de6dd2f9f42,,,,,,,,,,,,,,,,,,,,,,,,,,,0.9,43.216,2.881066667,95.53811124,2.523728871,9.392287155,space,2.334,0,0,0,0,1,,,,,,,,,,,,,,,,,,,,,,,,,,,,,,,,,,,,,,,,,,,,,,,,,,,,,,,,,,,,,,
,,,,,,,,,,,,5c33496ec75f190001e7ed92,39,Mężczyzna,2022-06-11_09h29.50.283,task,2021.1.4,Win32,60.0240096,6299f149e92ead563fba08ef,62a4443a30da7de6dd2f9f42,,,,,,,,,,,,,5,,,,,,,,,,Practice,6,(4/2) + 3,5,,,,,,,,,,,,,,space,10.417,"[""5""]",1,[4.5680000000000405],1,0,0,0,5,1,,,,,,,,,,,,,,,,,,,,,,,,,,,,,,,,,,,,,,,,,,,,,,,,,,,
,,,,,,,,,,,X V Q F H G B L J M P D K C T S W R N Z,5c33496ec75f190001e7ed92,39,Mężczyzna,2022-06-11_09h29.50.283,task,2021.1.4,Win32,60.0240096,6299f149e92ead563fba08ef,62a4443a30da7de6dd2f9f42,,,,,,,,,,,,,,,,,,,,,,,,,,,,,,,,,,,,,,,,,,,,,,,,,,,0,0,0,0,1,,,,,,,,,,,,,,,,,,,,,,,,,,,,,,,,,,,,,,,,,,,,,,
,,,,,,,,,,,,5c33496ec75f190001e7ed92,39,Mężczyzna,2022-06-11_09h29.50.283,task,2021.1.4,Win32,60.0240096,6299f149e92ead563fba08ef,62a4443a30da7de6dd2f9f42,,,,,,,,,,,,,1,,,,,,,,,,Practice,2,(4x4) - 15,1,,,,,,,,,,,,,,,,"[""1""]",1,[5.949000000000012],1,0,0,0,1,1,,,,,,,,,,,,,,,,,,,,,,,,,,,,,,,,,,,,,,,,,,,,,,,,,,,
,,,,,,,,,,,X V Q F H G B L J M P D K C T S W R N Z,5c33496ec75f190001e7ed92,39,Mężczyzna,2022-06-11_09h29.50.283,task,2021.1.4,Win32,60.0240096,6299f149e92ead563fba08ef,62a4443a30da7de6dd2f9f42,,,,,,,,,,,,,,,,,,,,,,,,,,,,,,,,,,,,,,,,,,,,,,,,,,,1,0,1,0,1,,,,,,,,,,,,,,,,,,,,,,,,,,,,,,,,,,,,,,,,,,,,,,
,,,,,,,,,,,,5c33496ec75f190001e7ed92,39,Mężczyzna,2022-06-11_09h29.50.283,task,2021.1.4,Win32,60.0240096,6299f149e92ead563fba08ef,62a4443a30da7de6dd2f9f42,,,,,,,,,,,,,,,,,,,,,,,,,,,,,,,,,,,,,,,,,,,,,,,,,,,,,,,,zn,"[""z"",""n""]",0,"[4.734999999999957,5.2409999999999854,7.303999999999974]",1,0,0,0,0,1,,,,,,,,,,,,,,,,,,,,,,,,,,,,,,,,,,,,
,,,,,,,,,,,,5c33496ec75f190001e7ed92,39,Mężczyzna,2022-06-11_09h29.50.283,task,2021.1.4,Win32,60.0240096,6299f149e92ead563fba08ef,62a4443a30da7de6dd2f9f42,,,,,,,,,,,,,2,,,,,,,,,,Practice,3,(4x4) - 14,2,,,,,,,,,,,,,,,,"[""2""]",1,[2.7169999999999845],1,0,0,0,2,1,,,,,,,,,,,,,,,,,,,,,,,,,,,,,,,,,,,,,,,,,,,,,,,,,,,
,,,,,,,,,,,X V Q F H G B L J M P D K C T S W R N Z,5c33496ec75f190001e7ed92,39,Mężczyzna,2022-06-11_09h29.50.283,task,2021.1.4,Win32,60.0240096,6299f149e92ead563fba08ef,62a4443a30da7de6dd2f9f42,,,,,,,,,,,,,,,,,,,,,,,,,,,,,,,,,,,,,,,,,,,,,,,,,,,0,0,0,0,1,,,,,,,,,,,,,,,,,,,,,,,,,,,,,,,,,,,,,,,,,,,,,,
,,,,,,,,,,,,5c33496ec75f190001e7ed92,39,Mężczyzna,2022-06-11_09h29.50.283,task,2021.1.4,Win32,60.0240096,6299f149e92ead563fba08ef,62a4443a30da7de6dd2f9f42,,,,,,,,,,,,,4,,,,,,,,,,Practice,5,(2x6) - 8,4,,,,,,,,,,,,,,,,"[""4""]",1,[5.265999999999963],1,0,0,0,4,1,,,,,,,,,,,,,,,,,,,,,,,,,,,,,,,,,,,,,,,,,,,,,,,,,,,
,,,,,,,,,,,X V Q F H G B L J M P D K C T S W R N Z,5c33496ec75f190001e7ed92,39,Mężczyzna,2022-06-11_09h29.50.283,task,2021.1.4,Win32,60.0240096,6299f149e92ead563fba08ef,62a4443a30da7de6dd2f9f42,,,,,,,,,,,,,,,,,,,,,,,,,,,,,,,,,,,,,,,,,,,,,,,,,,,1,0,1,0,1,,,,,,,,,,,,,,,,,,,,,,,,,,,,,,,,,,,,,,,,,,,,,,
,,,,,,,,,,,,5c33496ec75f190001e7ed92,39,Mężczyzna,2022-06-11_09h29.50.283,task,2021.1.4,Win32,60.0240096,6299f149e92ead563fba08ef,62a4443a30da7de6dd2f9f42,,,,,,,,,,,,,,,,,,,,,,,,,,,,,,,,,,,,,,,,,,,,,,,,,,,,,,,,vq,"[""v"",""q""]",0,"[6.735000000000014,7.118999999999971,8.706999999999994]",1,1,0,1,0,1,,,,,,,,,,,,,,,,,,,,,,,,,,,,,,,,,,,,
,,,,,,,,,,,,5c33496ec75f190001e7ed92,39,Mężczyzna,2022-06-11_09h29.50.283,task,2021.1.4,Win32,60.0240096,6299f149e92ead563fba08ef,62a4443a30da7de6dd2f9f42,,,,,,,,,,,,,6,,,,,,,,,,Practice,7,(25/5) + 1,6,,,,,,,,,,,,,,,,"[""6""]",1,[3.4430000000000405],1,0,0,0,6,1,,,,,,,,,,,,,,,,,,,,,,,,,,,,,,,,,,,,,,,,,,,,,,,,,,,
,,,,,,,,,,,X V Q F H G B L J M P D K C T S W R N Z,5c33496ec75f190001e7ed92,39,Mężczyzna,2022-06-11_09h29.50.283,task,2021.1.4,Win32,60.0240096,6299f149e92ead563fba08ef,62a4443a30da7de6dd2f9f42,,,,,,,,,,,,,,,,,,,,,,,,,,,,,,,,,,,,,,,,,,,,,,,,,,,0,0,0,0,1,,,,,,,,,,,,,,,,,,,,,,,,,,,,,,,,,,,,,,,,,,,,,,
,,,,,,,,,,,,5c33496ec75f190001e7ed92,39,Mężczyzna,2022-06-11_09h29.50.283,task,2021.1.4,Win32,60.0240096,6299f149e92ead563fba08ef,62a4443a30da7de6dd2f9f42,,,,,,,,,,,,,,,,,,,,,,,Practice,8,(5x5) - 18,7,,,,,,,,,,,,,,,,,0,,0,0,0,0,7,1,,,,,,,,,,,,,,,,,,,,,,,,,,,,,,,,,,,,,,,,,,,,,,,,,,,
,,,,,,,,,,,,5c33496ec75f190001e7ed92,39,Mężczyzna,2022-06-11_09h29.50.283,task,2021.1.4,Win32,60.0240096,6299f149e92ead563fba08ef,62a4443a30da7de6dd2f9f42,,,,,,,,,,,,,5,,,,,,,,,,Practice,4,(8/4) + 1,3,,,,,,,,,,,,,,,,"[""5""]",0,[2.5680000000000405],0,0,1,1,3,1,,,,,,,,,,,,,,,,,,,,,,,,,,,,,,,,,,,,,,,,,,,,,,,,,,,
,,,,,,,,,,,,5c33496ec75f190001e7ed92,39,Mężczyzna,2022-06-11_09h29.50.283,task,2021.1.4,Win32,60.0240096,6299f149e92ead563fba08ef,62a4443a30da7de6dd2f9f42,,,,,,,,,,,,,4,,,,,,,,,,Practice,5,(2x6) - 8,4,,,,,,,,,,,,,,,,"[""4""]",1,[4.253000000000043],1,0,2,2,4,1,,,,,,,,,,,,,,,,,,,,,,,,,,,,,,,,,,,,,,,,,,,,,,,,,,,
,,,,,,,,,,,X V Q F H G B L J M P D K C T S W R N Z,5c33496ec75f190001e7ed92,39,Mężczyzna,2022-06-11_09h29.50.283,task,2021.1.4,Win32,60.0240096,6299f149e92ead563fba08ef,62a4443a30da7de6dd2f9f42,,,,,,,,,,,,,,,,,,,,,,,,,,,,,,,,,,,,,,,,,,,,,,,,,,,1,0,1,0,1,,,,,,,,,,,,,,,,,,,,,,,,,,,,,,,,,,,,,,,,,,,,,,
,,,,,,,,,,,,5c33496ec75f190001e7ed92,39,Mężczyzna,2022-06-11_09h29.50.283,task,2021.1.4,Win32,60.0240096,6299f149e92ead563fba08ef,62a4443a30da7de6dd2f9f42,,,,,,,,,,,,,,,,,,,,,,,,,,,,,,,,,,,,,,,,,,,,,,,,,,,,,,,,tl,"[""t"",""l""]",0,"[3.4739999999999895,3.8910000000000196,5.418000000000006]",1,2,0,2,0,1,,,,,,,,,,,,,,,,,,,,,,,,,,,,,,,,,,,,
,,,,,,,,,,,,5c33496ec75f190001e7ed92,39,Mężczyzna,2022-06-11_09h29.50.283,task,2021.1.4,Win32,60.0240096,6299f149e92ead563fba08ef,62a4443a30da7de6dd2f9f42,,,,,,,,,,,,,1,,,,,,,,,,Task,1,(12/6) - 1,1,,,,,,,,,,,,,,,,,,,1,,,,,,,,,,,,,,,,,,,,,space,4.653,"[""1""]",1,[4.2309999999999945],0,0,0,0,1,,,,,,,,,,,,,,,,,,,,,,,,,,
,,,,,,,,,,,X V Q F H G B L J M P D K C T S W R N Z,5c33496ec75f190001e7ed92,39,Mężczyzna,2022-06-11_09h29.50.283,task,2021.1.4,Win32,60.0240096,6299f149e92ead563fba08ef,62a4443a30da7de6dd2f9f42,,,,,,,,,,,,,,,,,,,,,,,,,,,,,,,,,,,,,,,,,,,,,,,,,,,,,,,,,,,,,,,,,,,,,,,,,,,,0,0,0,0,1,,,,,,,,,,,,,,,,,,,,,
,,,,,,,,,,,,5c33496ec75f190001e7ed92,39,Mężczyzna,2022-06-11_09h29.50.283,task,2021.1.4,Win32,60.0240096,6299f149e92ead563fba08ef,62a4443a30da7de6dd2f9f42,,,,,,,,,,,,,3,,,,,,,,,,Task,25,(10/5) - 2,0,,,,,,,,,,,,,,,,,,,0,,,,,,,,,,,,,,,,,,,,,,,"[""3""]",0,[2.8899999999999864],0,0,0,24,1,,,,,,,,,,,,,,,,,,,,,,,,,,
,,,,,,,,,,,,5c33496ec75f190001e7ed92,39,Mężczyzna,2022-06-11_09h29.50.283,task,2021.1.4,Win32,60.0240096,6299f149e92ead563fba08ef,62a4443a30da7de6dd2f9f42,,,,,,,,,,,,,5,,,,,,,,,,Task,22,(3x1) + 2,5,,,,,,,,,,,,,,,,,,,1,,,,,,,,,,,,,,,,,,,,,,,"[""5""]",1,[2.336999999999989],0,1,1,21,1,,,,,,,,,,,,,,,,,,,,,,,,,,
,,,,,,,,,,,X V Q F H G B L J M P D K C T S W R N Z,5c33496ec75f190001e7ed92,39,Mężczyzna,2022-06-11_09h29.50.283,task,2021.1.4,Win32,60.0240096,6299f149e92ead563fba08ef,62a4443a30da7de6dd2f9f42,,,,,,,,,,,,,,,,,,,,,,,,,,,,,,,,,,,,,,,,,,,,,,,,,,,,,,,,,,,,,,,,,,,,,,,,,,,,1,0,1,0,1,,,,,,,,,,,,,,,,,,,,,
,,,,,,,,,,,,5c33496ec75f190001e7ed92,39,Mężczyzna,2022-06-11_09h29.50.283,task,2021.1.4,Win32,60.0240096,6299f149e92ead563fba08ef,62a4443a30da7de6dd2f9f42,,,,,,,,,,,,,,,,,,,,,,,,,,,,,,,,,,,,,,,,,,,,,,,,,,,,,,,,,,,,,,,,,,,,,,,,,,,,,,,,,zv,"[""z"",""v""]",0,"[2.689999999999941,3.3019999999999072,4.168999999999983]",1,ZV,0,0,0,0,1,,,,,,,,,,
,,,,,,,,,,,,5c33496ec75f190001e7ed92,39,Mężczyzna,2022-06-11_09h29.50.283,task,2021.1.4,Win32,60.0240096,6299f149e92ead563fba08ef,62a4443a30da7de6dd2f9f42,,,,,,,,,,,,,2,,,,,,,,,,Task,10,(2x5) - 8,2,,,,,,,,,,,,,,,,,,,1,,,,,,,,,,,,,,,,,,,,,,,"[""2""]",1,[2.2509999999999764],0,0,0,9,1,,,,,,,,,,,,,,,,,,,,,,,,,,
,,,,,,,,,,,X V Q F H G B L J M P D K C T S W R N Z,5c33496ec75f190001e7ed92,39,Mężczyzna,2022-06-11_09h29.50.283,task,2021.1.4,Win32,60.0240096,6299f149e92ead563fba08ef,62a4443a30da7de6dd2f9f42,,,,,,,,,,,,,,,,,,,,,,,,,,,,,,,,,,,,,,,,,,,,,,,,,,,,,,,,,,,,,,,,,,,,,,,,,,,,0,0,0,0,1,,,,,,,,,,,,,,,,,,,,,
,,,,,,,,,,,,5c33496ec75f190001e7ed92,39,Mężczyzna,2022-06-11_09h29.50.283,task,2021.1.4,Win32,60.0240096,6299f149e92ead563fba08ef,62a4443a30da7de6dd2f9f42,,,,,,,,,,,,,2,,,,,,,,,,Task,19,(6/2) - 1,2,,,,,,,,,,,,,,,,,,,1,,,,,,,,,,,,,,,,,,,,,,,"[""2""]",1,[4.08400000000006],0,0,0,18,1,,,,,,,,,,,,,,,,,,,,,,,,,,
,,,,,,,,,,,X V Q F H G B L J M P D K C T S W R N Z,5c33496ec75f190001e7ed92,39,Mężczyzna,2022-06-11_09h29.50.283,task,2021.1.4,Win32,60.0240096,6299f149e92ead563fba08ef,62a4443a30da7de6dd2f9f42,,,,,,,,,,,,,,,,,,,,,,,,,,,,,,,,,,,,,,,,,,,,,,,,,,,,,,,,,,,,,,,,,,,,,,,,,,,,1,0,1,0,1,,,,,,,,,,,,,,,,,,,,,
,,,,,,,,,,,,5c33496ec75f190001e7ed92,39,Mężczyzna,2022-06-11_09h29.50.283,task,2021.1.4,Win32,60.0240096,6299f149e92ead563fba08ef,62a4443a30da7de6dd2f9f42,,,,,,,,,,,,,6,,,,,,,,,,Task,37,(3/3) + 5,6,,,,,,,,,,,,,,,,,,,1,,,,,,,,,,,,,,,,,,,,,,,"[""6""]",1,[6.399000000000001],0,0,0,36,1,,,,,,,,,,,,,,,,,,,,,,,,,,
,,,,,,,,,,,X V Q F H G B L J M P D K C T S W R N Z,5c33496ec75f190001e7ed92,39,Mężczyzna,2022-06-11_09h29.50.283,task,2021.1.4,Win32,60.0240096,6299f149e92ead563fba08ef,62a4443a30da7de6dd2f9f42,,,,,,,,,,,,,,,,,,,,,,,,,,,,,,,,,,,,,,,,,,,,,,,,,,,,,,,,,,,,,,,,,,,,,,,,,,,,2,0,2,0,1,,,,,,,,,,,,,,,,,,,,,
,,,,,,,,,,,,5c33496ec75f190001e7ed92,39,Mężczyzna,2022-06-11_09h29.50.283,task,2021.1.4,Win32,60.0240096,6299f149e92ead563fba08ef,62a4443a30da7de6dd2f9f42,,,,,,,,,,,,,,,,,,,,,,,,,,,,,,,,,,,,,,,,,,,,,,,,,,,,,,,,,,,,,,,,,,,,,,,,,,,,,,,,,tsr,"[""t"",""s"",""r""]",0,"[3.505999999999972,3.869000000000028,4.057000000000016,4.9220000000000255]",1,TSR,1,0,1,0,1,,,,,,,,,,
,,,,,,,,,,,,5c33496ec75f190001e7ed92,39,Mężczyzna,2022-06-11_09h29.50.283,task,2021.1.4,Win32,60.0240096,6299f149e92ead563fba08ef,62a4443a30da7de6dd2f9f42,,,,,,,,,,,,,,,,,,,,,,,Task,16,(3x8) - 15,9,,,,,,,,,,,,,,,,,,,0,,,,,,,,,,,,,,,,,,,,,,,,0,,0,0,0,15,1,,,,,,,,,,,,,,,,,,,,,,,,,,
,,,,,,,,,,,,5c33496ec75f190001e7ed92,39,Mężczyzna,2022-06-11_09h29.50.283,task,2021.1.4,Win32,60.0240096,6299f149e92ead563fba08ef,62a4443a30da7de6dd2f9f42,,,,,,,,,,,,,7,,,,,,,,,,Task,11,(18/3) - 2,4,,,,,,,,,,,,,,,,,,,0,,,,,,,,,,,,,,,,,,,,,,,"[""7""]",0,[4.33299999999997],0,1,1,10,1,,,,,,,,,,,,,,,,,,,,,,,,,,
,,,,,,,,,,,,5c33496ec75f190001e7ed92,39,Mężczyzna,2022-06-11_09h29.50.283,task,2021.1.4,Win32,60.0240096,6299f149e92ead563fba08ef,62a4443a30da7de6dd2f9f42,,,,,,,,,,,,,7,,,,,,,,,,Task,14,(2x2) + 3,7,,,,,,,,,,,,,,,,,,,1,,,,,,,,,,,,,,,,,,,,,,,"[""7""]",1,[5.149000000000001],0,2,2,13,1,,,,,,,,,,,,,,,,,,,,,,,,,,
,,,,,,,,,,,X V Q F H G B L J M P D K C T S W R N Z,5c33496ec75f190001e7ed92,39,Mężczyzna,2022-06-11_09h29.50.283,task,2021.1.4,Win32,60.0240096,6299f149e92ead563fba08ef,62a4443a30da7de6dd2f9f42,,,,,,,,,,,,,,,,,,,,,,,,,,,,,,,,,,,,,,,,,,,,,,,,,,,,,,,,,,,,,,,,,,,,,,,,,,,,0,0,0,0,1,,,,,,,,,,,,,,,,,,,,,
,,,,,,,,,,,,5c33496ec75f190001e7ed92,39,Mężczyzna,2022-06-11_09h29.50.283,task,2021.1.4,Win32,60.0240096,6299f149e92ead563fba08ef,62a4443a30da7de6dd2f9f42,,,,,,,,,,,,,8,,,,,,,,,,Task,39,(5x3) - 7,8,,,,,,,,,,,,,,,,,,,1,,,,,,,,,,,,,,,,,,,,,,,"[""8""]",1,[4.073000000000093],0,0,0,38,1,,,,,,,,,,,,,,,,,,,,,,,,,,
,,,,,,,,,,,X V Q F H G B L J M P D K C T S W R N Z,5c33496ec75f190001e7ed92,39,Mężczyzna,2022-06-11_09h29.50.283,task,2021.1.4,Win32,60.0240096,6299f149e92ead563fba08ef,62a4443a30da7de6dd2f9f42,,,,,,,,,,,,,,,,,,,,,,,,,,,,,,,,,,,,,,,,,,,,,,,,,,,,,,,,,,,,,,,,,,,,,,,,,,,,1,0,1,0,1,,,,,,,,,,,,,,,,,,,,,
,,,,,,,,,,,,5c33496ec75f190001e7ed92,39,Mężczyzna,2022-06-11_09h29.50.283,task,2021.1.4,Win32,60.0240096,6299f149e92ead563fba08ef,62a4443a30da7de6dd2f9f42,,,,,,,,,,,,,7,,,,,,,,,,Task,31,(4/2) + 5,7,,,,,,,,,,,,,,,,,,,1,,,,,,,,,,,,,,,,,,,,,,,"[""7""]",1,[2.838999999999942],0,0,0,30,1,,,,,,,,,,,,,,,,,,,,,,,,,,
,,,,,,,,,,,X V Q F H G B L J M P D K C T S W R N Z,5c33496ec75f190001e7ed92,39,Mężczyzna,2022-06-11_09h29.50.283,task,2021.1.4,Win32,60.0240096,6299f149e92ead563fba08ef,62a4443a30da7de6dd2f9f42,,,,,,,,,,,,,,,,,,,,,,,,,,,,,,,,,,,,,,,,,,,,,,,,,,,,,,,,,,,,,,,,,,,,,,,,,,,,2,0,2,0,1,,,,,,,,,,,,,,,,,,,,,
,,,,,,,,,,,,5c33496ec75f190001e7ed92,39,Mężczyzna,2022-06-11_09h29.50.283,task,2021.1.4,Win32,60.0240096,6299f149e92ead563fba08ef,62a4443a30da7de6dd2f9f42,,,,,,,,,,,,,0,,,,,,,,,,Task,16,(3x8) - 15,9,,,,,,,,,,,,,,,,,,,0,,,,,,,,,,,,,,,,,,,,,,,"[""0""]",0,[5.949999999999932],0,0,0,15,1,,,,,,,,,,,,,,,,,,,,,,,,,,
,,,,,,,,,,,,5c33496ec75f190001e7ed92,39,Mężczyzna,2022-06-11_09h29.50.283,task,2021.1.4,Win32,60.0240096,6299f149e92ead563fba08ef,62a4443a30da7de6dd2f9f42,,,,,,,,,,,,,5,,,,,,,,,,Task,18,(16/4) - 3,1,,,,,,,,,,,,,,,,,,,0,,,,,,,,,,,,,,,,,,,,,,,"[""5""]",0,[3.3490000000000464],0,1,1,17,1,,,,,,,,,,,,,,,,,,,,,,,,,,
,,,,,,,,,,,,5c33496ec75f190001e7ed92,39,Mężczyzna,2022-06-11_09h29.50.283,task,2021.1.4,Win32,60.0240096,6299f149e92ead563fba08ef,62a4443a30da7de6dd2f9f42,,,,,,,,,,,,,1,,,,,,,,,,Task,20,(18/9) + 1,3,,,,,,,,,,,,,,,,,,,0,,,,,,,,,,,,,,,,,,,,,,,"[""1""]",0,[3.947999999999979],0,2,2,19,1,,,,,,,,,,,,,,,,,,,,,,,,,,
,,,,,,,,,,,,5c33496ec75f190001e7ed92,39,Mężczyzna,2022-06-11_09h29.50.283,task,2021.1.4,Win32,60.0240096,6299f149e92ead563fba08ef,62a4443a30da7de6dd2f9f42,,,,,,,,,,,,,7,,,,,,,,,,Task,6,(12/2) + 1,7,,,,,,,,,,,,,,,,,,,1,,,,,,,,,,,,,,,,,,,,,,,"[""7""]",1,[1.8500000000000227],0,3,3,5,1,,,,,,,,,,,,,,,,,,,,,,,,,,
,,,,,,,,,,,X V Q F H G B L J M P D K C T S W R N Z,5c33496ec75f190001e7ed92,39,Mężczyzna,2022-06-11_09h29.50.283,task,2021.1.4,Win32,60.0240096,6299f149e92ead563fba08ef,62a4443a30da7de6dd2f9f42,,,,,,,,,,,,,,,,,,,,,,,,,,,,,,,,,,,,,,,,,,,,,,,,,,,,,,,,,,,,,,,,,,,,,,,,,,,,3,0,3,0,1,,,,,,,,,,,,,,,,,,,,,
,,,,,,,,,,,,5c33496ec75f190001e7ed92,39,Mężczyzna,2022-06-11_09h29.50.283,task,2021.1.4,Win32,60.0240096,6299f149e92ead563fba08ef,62a4443a30da7de6dd2f9f42,,,,,,,,,,,,,,,,,,,,,,,,,,,,,,,,,,,,,,,,,,,,,,,,,,,,,,,,,,,,,,,,,,,,,,,,,,,,,,,,,zzsv,"[""z"",""z"",""s"",""v""]",0,"[2.868000000000052,2.98700000000008,3.171000000000049,3.5680000000000973,4.3840000000000146]",1,ZZSV,2,0,2,0,1,,,,,,,,,,
,,,,,,,,,,,,5c33496ec75f190001e7ed92,39,Mężczyzna,2022-06-11_09h29.50.283,task,2021.1.4,Win32,60.0240096,6299f149e92ead563fba08ef,62a4443a30da7de6dd2f9f42,,,,,,,,,,,,,1,,,,,,,,,,Task,34,(9/3) - 2,1,,,,,,,,,,,,,,,,,,,1,,,,,,,,,,,,,,,,,,,,,,,"[""1""]",1,[2.6569999999999254],0,0,0,33,1,,,,,,,,,,,,,,,,,,,,,,,,,,
,,,,,,,,,,,X V Q F H G B L J M P D K C T S W R N Z,5c33496ec75f190001e7ed92,39,Mężczyzna,2022-06-11_09h29.50.283,task,2021.1.4,Win32,60.0240096,6299f149e92ead563fba08ef,62a4443a30da7de6dd2f9f42,,,,,,,,,,,,,,,,,,,,,,,,,,,,,,,,,,,,,,,,,,,,,,,,,,,,,,,,,,,,,,,,,,,,,,,,,,,,0,0,0,0,1,,,,,,,,,,,,,,,,,,,,,
,,,,,,,,,,,,5c33496ec75f190001e7ed92,39,Mężczyzna,2022-06-11_09h29.50.283,task,2021.1.4,Win32,60.0240096,6299f149e92ead563fba08ef,62a4443a30da7de6dd2f9f42,,,,,,,,,,,,,0,,,,,,,,,,Task,33,(1/1) - 1,0,,,,,,,,,,,,,,,,,,,1,,,,,,,,,,,,,,,,,,,,,,,"[""0""]",1,[2.1219999999999573],0,0,0,32,1,,,,,,,,,,,,,,,,,,,,,,,,,,
,,,,,,,,,,,X V Q F H G B L J M P D K C T S W R N Z,5c33496ec75f190001e7ed92,39,Mężczyzna,2022-06-11_09h29.50.283,task,2021.1.4,Win32,60.0240096,6299f149e92ead563fba08ef,62a4443a30da7de6dd2f9f42,,,,,,,,,,,,,,,,,,,,,,,,,,,,,,,,,,,,,,,,,,,,,,,,,,,,,,,,,,,,,,,,,,,,,,,,,,,,1,0,1,0,1,,,,,,,,,,,,,,,,,,,,,
,,,,,,,,,,,,5c33496ec75f190001e7ed92,39,Mężczyzna,2022-06-11_09h29.50.283,task,2021.1.4,Win32,60.0240096,6299f149e92ead563fba08ef,62a4443a30da7de6dd2f9f42,,,,,,,,,,,,,0,,,,,,,,,,Task,33,(1/1) - 1,0,,,,,,,,,,,,,,,,,,,1,,,,,,,,,,,,,,,,,,,,,,,"[""0""]",1,[3.3010000000000446],0,0,0,32,1,,,,,,,,,,,,,,,,,,,,,,,,,,
,,,,,,,,,,,X V Q F H G B L J M P D K C T S W R N Z,5c33496ec75f190001e7ed92,39,Mężczyzna,2022-06-11_09h29.50.283,task,2021.1.4,Win32,60.0240096,6299f149e92ead563fba08ef,62a4443a30da7de6dd2f9f42,,,,,,,,,,,,,,,,,,,,,,,,,,,,,,,,,,,,,,,,,,,,,,,,,,,,,,,,,,,,,,,,,,,,,,,,,,,,2,0,2,0,1,,,,,,,,,,,,,,,,,,,,,
,,,,,,,,,,,,5c33496ec75f190001e7ed92,39,Mężczyzna,2022-06-11_09h29.50.283,task,2021.1.4,Win32,60.0240096,6299f149e92ead563fba08ef,62a4443a30da7de6dd2f9f42,,,,,,,,,,,,,5,,,,,,,,,,Task,35,(1x2) + 1,3,,,,,,,,,,,,,,,,,,,0,,,,,,,,,,,,,,,,,,,,,,,"[""5""]",0,[3.286999999999921],0,0,0,34,1,,,,,,,,,,,,,,,,,,,,,,,,,,
,,,,,,,,,,,,5c33496ec75f190001e7ed92,39,Mężczyzna,2022-06-11_09h29.50.283,task,2021.1.4,Win32,60.0240096,6299f149e92ead563fba08ef,62a4443a30da7de6dd2f9f42,,,,,,,,,,,,,8,,,,,,,,,,Task,39,(5x3) - 7,8,,,,,,,,,,,,,,,,,,,1,,,,,,,,,,,,,,,,,,,,,,,"[""8""]",1,[5.63799999999992],0,1,1,38,1,,,,,,,,,,,,,,,,,,,,,,,,,,
,,,,,,,,,,,X V Q F H G B L J M P D K C T S W R N Z,5c33496ec75f190001e7ed92,39,Mężczyzna,2022-06-11_09h29.50.283,task,2021.1.4,Win32,60.0240096,6299f149e92ead563fba08ef,62a4443a30da7de6dd2f9f42,,,,,,,,,,,,,,,,,,,,,,,,,,,,,,,,,,,,,,,,,,,,,,,,,,,,,,,,,,,,,,,,,,,,,,,,,,,,3,0,3,0,1,,,,,,,,,,,,,,,,,,,,,
,,,,,,,,,,,,5c33496ec75f190001e7ed92,39,Mężczyzna,2022-06-11_09h29.50.283,task,2021.1.4,Win32,60.0240096,6299f149e92ead563fba08ef,62a4443a30da7de6dd2f9f42,,,,,,,,,,,,,,,,,,,,,,,Task,16,(3x8) - 15,9,,,,,,,,,,,,,,,,,,,0,,,,,,,,,,,,,,,,,,,,,,,,0,,0,0,0,15,1,,,,,,,,,,,,,,,,,,,,,,,,,,
,,,,,,,,,,,,5c33496ec75f190001e7ed92,39,Mężczyzna,2022-06-11_09h29.50.283,task,2021.1.4,Win32,60.0240096,6299f149e92ead563fba08ef,62a4443a30da7de6dd2f9f42,,,,,,,,,,,,,6,,,,,,,,,,Task,3,(2x3) - 3,3,,,,,,,,,,,,,,,,,,,0,,,,,,,,,,,,,,,,,,,,,,,"[""6""]",0,[4.052999999999997],0,1,1,2,1,,,,,,,,,,,,,,,,,,,,,,,,,,
,,,,,,,,,,,,5c33496ec75f190001e7ed92,39,Mężczyzna,2022-06-11_09h29.50.283,task,2021.1.4,Win32,60.0240096,6299f149e92ead563fba08ef,62a4443a30da7de6dd2f9f42,,,,,,,,,,,,,0,,,,,,,,,,Task,33,(1/1) - 1,0,,,,,,,,,,,,,,,,,,,1,,,,,,,,,,,,,,,,,,,,,,,"[""0""]",1,[1.4230000000000018],0,2,2,32,1,,,,,,,,,,,,,,,,,,,,,,,,,,
,,,,,,,,,,,X V Q F H G B L J M P D K C T S W R N Z,5c33496ec75f190001e7ed92,39,Mężczyzna,2022-06-11_09h29.50.283,task,2021.1.4,Win32,60.0240096,6299f149e92ead563fba08ef,62a4443a30da7de6dd2f9f42,,,,,,,,,,,,,,,,,,,,,,,,,,,,,,,,,,,,,,,,,,,,,,,,,,,,,,,,,,,,,,,,,,,,,,,,,,,,4,0,4,0,1,,,,,,,,,,,,,,,,,,,,,
,,,,,,,,,,,,5c33496ec75f190001e7ed92,39,Mężczyzna,2022-06-11_09h29.50.283,task,2021.1.4,Win32,60.0240096,6299f149e92ead563fba08ef,62a4443a30da7de6dd2f9f42,,,,,,,,,,,,,,,,,,,,,,,,,,,,,,,,,,,,,,,,,,,,,,,,,,,,,,,,,,,,,,,,,,,,,,,,,,,,,,,,,zskhv,"[""z"",""s"",""k"",""h"",""v""]",0,"[3.408999999999992,3.6340000000000146,5.056999999999903,5.400999999999954,5.7690000000000055,6.256999999999948]",0,JSKHV,3,0,3,0,1,,,,,,,,,,
,,,,,,,,,,,,5c33496ec75f190001e7ed92,39,Mężczyzna,2022-06-11_09h29.50.283,task,2021.1.4,Win32,60.0240096,6299f149e92ead563fba08ef,62a4443a30da7de6dd2f9f42,,,,,,,,,,,,,5,,,,,,,,,,Task,29,(3x8) - 19 ,5,,,,,,,,,,,,,,,,,,,1,,,,,,,,,,,,,,,,,,,,,,,"[""5""]",1,[4.031999999999925],0,0,0,28,1,,,,,,,,,,,,,,,,,,,,,,,,,,
,,,,,,,,,,,X V Q F H G B L J M P D K C T S W R N Z,5c33496ec75f190001e7ed92,39,Mężczyzna,2022-06-11_09h29.50.283,task,2021.1.4,Win32,60.0240096,6299f149e92ead563fba08ef,62a4443a30da7de6dd2f9f42,,,,,,,,,,,,,,,,,,,,,,,,,,,,,,,,,,,,,,,,,,,,,,,,,,,,,,,,,,,,,,,,,,,,,,,,,,,,0,0,0,0,1,,,,,,,,,,,,,,,,,,,,,
,,,,,,,,,,,,5c33496ec75f190001e7ed92,39,Mężczyzna,2022-06-11_09h29.50.283,task,2021.1.4,Win32,60.0240096,6299f149e92ead563fba08ef,62a4443a30da7de6dd2f9f42,,,,,,,,,,,,,6,,,,,,,,,,Task,5,(2x3) + 0,6,,,,,,,,,,,,,,,,,,,1,,,,,,,,,,,,,,,,,,,,,,,"[""6""]",1,[3.039000000000101],0,0,0,4,1,,,,,,,,,,,,,,,,,,,,,,,,,,
,,,,,,,,,,,X V Q F H G B L J M P D K C T S W R N Z,5c33496ec75f190001e7ed92,39,Mężczyzna,2022-06-11_09h29.50.283,task,2021.1.4,Win32,60.0240096,6299f149e92ead563fba08ef,62a4443a30da7de6dd2f9f42,,,,,,,,,,,,,,,,,,,,,,,,,,,,,,,,,,,,,,,,,,,,,,,,,,,,,,,,,,,,,,,,,,,,,,,,,,,,1,0,1,0,1,,,,,,,,,,,,,,,,,,,,,
,,,,,,,,,,,,5c33496ec75f190001e7ed92,39,Mężczyzna,2022-06-11_09h29.50.283,task,2021.1.4,Win32,60.0240096,6299f149e92ead563fba08ef,62a4443a30da7de6dd2f9f42,,,,,,,,,,,,,7,,,,,,,,,,Task,38,(4x6) - 17,7,,,,,,,,,,,,,,,,,,,1,,,,,,,,,,,,,,,,,,,,,,,"[""7""]",1,[6.516999999999939],0,0,0,37,1,,,,,,,,,,,,,,,,,,,,,,,,,,
,,,,,,,,,,,X V Q F H G B L J M P D K C T S W R N Z,5c33496ec75f190001e7ed92,39,Mężczyzna,2022-06-11_09h29.50.283,task,2021.1.4,Win32,60.0240096,6299f149e92ead563fba08ef,62a4443a30da7de6dd2f9f42,,,,,,,,,,,,,,,,,,,,,,,,,,,,,,,,,,,,,,,,,,,,,,,,,,,,,,,,,,,,,,,,,,,,,,,,,,,,2,0,2,0,1,,,,,,,,,,,,,,,,,,,,,
,,,,,,,,,,,,5c33496ec75f190001e7ed92,39,Mężczyzna,2022-06-11_09h29.50.283,task,2021.1.4,Win32,60.0240096,6299f149e92ead563fba08ef,62a4443a30da7de6dd2f9f42,,,,,,,,,,,,,9,,,,,,,,,,Task,14,(2x2) + 3,7,,,,,,,,,,,,,,,,,,,0,,,,,,,,,,,,,,,,,,,,,,,"[""9""]",0,[2.965000000000032],0,0,0,13,1,,,,,,,,,,,,,,,,,,,,,,,,,,
,,,,,,,,,,,,5c33496ec75f190001e7ed92,39,Mężczyzna,2022-06-11_09h29.50.283,task,2021.1.4,Win32,60.0240096,6299f149e92ead563fba08ef,62a4443a30da7de6dd2f9f42,,,,,,,,,,,,,2,,,,,,,,,,Task,26,(2x9) - 16,2,,,,,,,,,,,,,,,,,,,1,,,,,,,,,,,,,,,,,,,,,,,"[""2""]",1,[5.120999999999981],0,1,1,25,1,,,,,,,,,,,,,,,,,,,,,,,,,,
,,,,,,,,,,,X V Q F H G B L J M P D K C T S W R N Z,5c33496ec75f190001e7ed92,39,Mężczyzna,2022-06-11_09h29.50.283,task,2021.1.4,Win32,60.0240096,6299f149e92ead563fba08ef,62a4443a30da7de6dd2f9f42,,,,,,,,,,,,,,,,,,,,,,,,,,,,,,,,,,,,,,,,,,,,,,,,,,,,,,,,,,,,,,,,,,,,,,,,,,,,3,0,3,0,1,,,,,,,,,,,,,,,,,,,,,
,,,,,,,,,,,,5c33496ec75f190001e7ed92,39,Mężczyzna,2022-06-11_09h29.50.283,task,2021.1.4,Win32,60.0240096,6299f149e92ead563fba08ef,62a4443a30da7de6dd2f9f42,,,,,,,,,,,,,8,,,,,,,,,,Task,23,(2x3) + 2,8,,,,,,,,,,,,,,,,,,,1,,,,,,,,,,,,,,,,,,,,,,,"[""8""]",1,[4.5330000000000155],0,0,0,22,1,,,,,,,,,,,,,,,,,,,,,,,,,,
,,,,,,,,,,,X V Q F H G B L J M P D K C T S W R N Z,5c33496ec75f190001e7ed92,39,Mężczyzna,2022-06-11_09h29.50.283,task,2021.1.4,Win32,60.0240096,6299f149e92ead563fba08ef,62a4443a30da7de6dd2f9f42,,,,,,,,,,,,,,,,,,,,,,,,,,,,,,,,,,,,,,,,,,,,,,,,,,,,,,,,,,,,,,,,,,,,,,,,,,,,4,0,4,0,1,,,,,,,,,,,,,,,,,,,,,
,,,,,,,,,,,,5c33496ec75f190001e7ed92,39,Mężczyzna,2022-06-11_09h29.50.283,task,2021.1.4,Win32,60.0240096,6299f149e92ead563fba08ef,62a4443a30da7de6dd2f9f42,,,,,,,,,,,,,,,,,,,,,,,,,,,,,,,,,,,,,,,,,,,,,,,,,,,,,,,,,,,,,,,,,,,,,,,,,,,,,,,,,ldxgh,"[""l"",""d"",""x"",""g"",""h""]",0,"[4.137000000000057,4.592999999999961,5.08400000000006,6.90300000000002,7.034999999999968,8.039999999999964]",0,LDXGM,4,0,4,0,1,,,,,,,,,,
,,,,,,,,,,,,5c33496ec75f190001e7ed92,39,Mężczyzna,2022-06-11_09h29.50.283,task,2021.1.4,Win32,60.0240096,6299f149e92ead563fba08ef,62a4443a30da7de6dd2f9f42,,,,,,,,,,,,,,,,,,,,,,,,,,,,,,,,,,,,,,,,,,,,,,,,,,,,,,,,,,,,,,,,,,,,,,,,,,,,,,,,,,,,,,,,,,,,"[""period""]",0,[0.7729999999999109],0,0,0,0,1,,
,,,,,,,,,,,,5c33496ec75f190001e7ed92,39,Mężczyzna,2022-06-11_09h29.50.283,task,2021.1.4,Win32,60.0240096,6299f149e92ead563fba08ef,62a4443a30da7de6dd2f9f42,,,,,,,,,,,,,,,,,,,,,,,,,,,,,,,,,,,,,,,,,,,,,,,,,,,,,,,,,,,,,,,,,,,,,,,,,,,,,,,,,,,,,,,,,,,,"[""period""]",0,[0.91700000000003],1,0,1,0,1,,
,,,,,,,,,,,,5c33496ec75f190001e7ed92,39,Mężczyzna,2022-06-11_09h29.50.283,task,2021.1.4,Win32,60.0240096,6299f149e92ead563fba08ef,62a4443a30da7de6dd2f9f42,,,,,,,,,,,,,,,,,,,,,,,,,,,,,,,,,,,,,,,,,,,,,,,,,,,,,,,,,,,,,,,,,,,,,,,,,,,,,,,,,,,,,,,,,,,,"[""comma"",""comma""]",0,"[0.49899999999990996,1.91599999999994]",2,0,2,0,1,,
,,,,,,,,,,,,5c33496ec75f190001e7ed92,39,Mężczyzna,2022-06-11_09h29.50.283,task,2021.1.4,Win32,60.0240096,6299f149e92ead563fba08ef,62a4443a30da7de6dd2f9f42,,,,,,,,,,,,,,,,,,,,,,,,,,,,,,,,,,,,,,,,,,,,,,,,,,,,,,,,,,,,,,,,,,,,,,,,,,,,,,,,,,,,,,,,,,,,,0,,3,0,3,0,1,,
,,,,,,,,,,,,5c33496ec75f190001e7ed92,39,Mężczyzna,2022-06-11_09h29.50.283,task,2021.1.4,Win32,60.0240096,6299f149e92ead563fba08ef,62a4443a30da7de6dd2f9f42,,,,,,,,,,,,,,,,,,,,,,,,,,,,,,,,,,,,,,,,,,,,,,,,,,,,,,,,,,,,,,,,,,,,,,,,,,,,,,,,,,,,,,,,,,,,"[""period""]",0,[0.5430000000000064],4,0,4,0,1,,
,,,,,,,,,,,,5c33496ec75f190001e7ed92,39,Mężczyzna,2022-06-11_09h29.50.283,task,2021.1.4,Win32,60.0240096,6299f149e92ead563fba08ef,62a4443a30da7de6dd2f9f42,,,,,,,,,,,,,,,,,,,,,,,,,,,,,,,,,,,,,,,,,,,,,,,,,,,,,,,,,,,,,,,,,,,,,,,,,,,,,,,,,,,,,,,,,,,,"[""comma""]",0,[0.39200000000005275],5,0,5,0,1,,
,,,,,,,,,,,,5c33496ec75f190001e7ed92,39,Mężczyzna,2022-06-11_09h29.50.283,task,2021.1.4,Win32,60.0240096,6299f149e92ead563fba08ef,62a4443a30da7de6dd2f9f42,,,,,,,,,,,,,,,,,,,,,,,,,,,,,,,,,,,,,,,,,,,,,,,,,,,,,,,,,,,,,,,,,,,,,,,,,,,,,,,,,,,,,,,,,,,,"[""comma""]",0,[0.3669999999999618],6,0,6,0,1,,
,,,,,,,,,,,,5c33496ec75f190001e7ed92,39,Mężczyzna,2022-06-11_09h29.50.283,task,2021.1.4,Win32,60.0240096,6299f149e92ead563fba08ef,62a4443a30da7de6dd2f9f42,,,,,,,,,,,,,,,,,,,,,,,,,,,,,,,,,,,,,,,,,,,,,,,,,,,,,,,,,,,,,,,,,,,,,,,,,,,,,,,,,,,,,,,,,,,,"[""period""]",0,[0.016999999999939064],7,0,7,0,1,,
,,,,,,,,,,,,5c33496ec75f190001e7ed92,39,Mężczyzna,2022-06-11_09h29.50.283,task,2021.1.4,Win32,60.0240096,6299f149e92ead563fba08ef,62a4443a30da7de6dd2f9f42,,,,,,,,,,,,,,,,,,,,,,,,,,,,,,,,,,,,,,,,,,,,,,,,,,,,,,,,,,,,,,,,,,,,,,,,,,,,,,,,,,,,,,,,,,,,"[""period""]",0,[0.4500000000000455],8,0,8,0,1,,
,,,,,,,,,,,,5c33496ec75f190001e7ed92,39,Mężczyzna,2022-06-11_09h29.50.283,task,2021.1.4,Win32,60.0240096,6299f149e92ead563fba08ef,62a4443a30da7de6dd2f9f42,,,,,,,,,,,,,,,,,,,,,,,,,,,,,,,,,,,,,,,,,,,,,,,,,,,,,,,,,,,,,,,,,,,,,,,,,,,,,,,,,,,,,,,,,,,,"[""comma""]",0,[0.26700000000005275],9,0,9,0,1,,
,,,,,,,,,,,,5c33496ec75f190001e7ed92,39,Mężczyzna,2022-06-11_09h29.50.283,task,2021.1.4,Win32,60.0240096,6299f149e92ead563fba08ef,62a4443a30da7de6dd2f9f42,,,,,,,,,,,,,,,,,,,,,,,,,,,,,,,,,,,,,,,,,,,,,,,,,,,,,,,,,,,,,,,,,,,,,,,,,,,,,,,,,,,,,,,,,,,,"[""period""]",0,[0.36000000000001364],10,0,10,0,1,,
,,,,,,,,,,,,5c33496ec75f190001e7ed92,39,Mężczyzna,2022-06-11_09h29.50.283,task,2021.1.4,Win32,60.0240096,6299f149e92ead563fba08ef,62a4443a30da7de6dd2f9f42,,,,,,,,,,,,,,,,,,,,,,,,,,,,,,,,,,,,,,,,,,,,,,,,,,,,,,,,,,,,,,,,,,,,,,,,,,,,,,,,,,,,,,,,,,,,"[""comma""]",0,[0.25100000000009004],11,0,11,0,1,,
,,,,,,,,,,,,5c33496ec75f190001e7ed92,39,Mężczyzna,2022-06-11_09h29.50.283,task,2021.1.4,Win32,60.0240096,6299f149e92ead563fba08ef,62a4443a30da7de6dd2f9f42,,,,,,,,,,,,,,,,,,,,,,,,,,,,,,,,,,,,,,,,,,,,,,,,,,,,,,,,,,,,,,,,,,,,,,,,,,,,,,,,,,,,,,,,,,,,"[""comma""]",0,[0.3509999999999991],12,0,12,0,1,,
,,,,,,,,,,,,5c33496ec75f190001e7ed92,39,Mężczyzna,2022-06-11_09h29.50.283,task,2021.1.4,Win32,60.0240096,6299f149e92ead563fba08ef,62a4443a30da7de6dd2f9f42,,,,,,,,,,,,,,,,,,,,,,,,,,,,,,,,,,,,,,,,,,,,,,,,,,,,,,,,,,,,,,,,,,,,,,,,,,,,,,,,,,,,,,,,,,,,"[""comma"",""period""]",0,"[0.32000000000005,1.6680000000000064]",13,0,13,0,1,,
,,,,,,,,,,,,5c33496ec75f190001e7ed92,39,Mężczyzna,2022-06-11_09h29.50.283,task,2021.1.4,Win32,60.0240096,6299f149e92ead563fba08ef,62a4443a30da7de6dd2f9f42,,,,,,,,,,,,,,,,,,,,,,,,,,,,,,,,,,,,,,,,,,,,,,,,,,,,,,,,,,,,,,,,,,,,,,,,,,,,,,,,,,,,,,,,,,,,,0,,14,0,14,0,1,,
,,,,,,,,,,,,5c33496ec75f190001e7ed92,39,Mężczyzna,2022-06-11_09h29.50.283,task,2021.1.4,Win32,60.0240096,6299f149e92ead563fba08ef,62a4443a30da7de6dd2f9f42,,,,,,,,,,,,,,,,,,,,,,,,,,,,,,,,,,,,,,,,,,,,,,,,,,,,,,,,,,,,,,,,,,,,,,,,,,,,,,,,,,,,,,,,,,,,"[""period""]",0,[0.31900000000007367],15,0,15,0,1,,
,,,,,,,,,,,,5c33496ec75f190001e7ed92,39,Mężczyzna,2022-06-11_09h29.50.283,task,2021.1.4,Win32,60.0240096,6299f149e92ead563fba08ef,62a4443a30da7de6dd2f9f42,,,,,,,,,,,,,,,,,,,,,,,,,,,,,,,,,,,,,,,,,,,,,,,,,,,,,,,,,,,,,,,,,,,,,,,,,,,,,,,,,,,,,,,,,,,,"[""comma""]",0,[0.8489999999999327],16,0,16,0,1,,
,,,,,,,,,,,,5c33496ec75f190001e7ed92,39,Mężczyzna,2022-06-11_09h29.50.283,task,2021.1.4,Win32,60.0240096,6299f149e92ead563fba08ef,62a4443a30da7de6dd2f9f42,,,,,,,,,,,,,,,,,,,,,,,,,,,,,,,,,,,,,,,,,,,,,,,,,,,,,,,,,,,,,,,,,,,,,,,,,,,,,,,,,,,,,,,,,,,,"[""period""]",0,[0.6850000000000591],17,0,17,0,1,,
,,,,,,,,,,,,5c33496ec75f190001e7ed92,39,Mężczyzna,2022-06-11_09h29.50.283,task,2021.1.4,Win32,60.0240096,6299f149e92ead563fba08ef,62a4443a30da7de6dd2f9f42,,,,,,,,,,,,,,,,,,,,,,,,,,,,,,,,,,,,,,,,,,,,,,,,,,,,,,,,,,,,,,,,,,,,,,,,,,,,,,,,,,,,,,,,,,,,"[""period""]",0,[0.6180000000000518],18,0,18,0,1,,
,,,,,,,,,,,,5c33496ec75f190001e7ed92,39,Mężczyzna,2022-06-11_09h29.50.283,task,2021.1.4,Win32,60.0240096,6299f149e92ead563fba08ef,62a4443a30da7de6dd2f9f42,,,,,,,,,,,,,,,,,,,,,,,,,,,,,,,,,,,,,,,,,,,,,,,,,,,,,,,,,,,,,,,,,,,,,,,,,,,,,,,,,,,,,,,,,,,,"[""comma""]",0,[0.6229999999999336],19,0,19,0,1,,
,,,,,,,,,,,,5c33496ec75f190001e7ed92,39,Mężczyzna,2022-06-11_09h29.50.283,task,2021.1.4,Win32,60.0240096,6299f149e92ead563fba08ef,62a4443a30da7de6dd2f9f42,,,,,,,,,,,,,,,,,,,,,,,,,,,,,,,,,,,,,,,,,,,,,,,,,,,,,,,,,,,,,,,,,,,,,,,,,,,,,,,,,,,,,,,,,,,,"[""period""]",0,[0.9270000000000209],20,0,20,0,1,,
,,,,,,,,,,,,5c33496ec75f190001e7ed92,39,Mężczyzna,2022-06-11_09h29.50.283,task,2021.1.4,Win32,60.0240096,6299f149e92ead563fba08ef,62a4443a30da7de6dd2f9f42,,,,,,,,,,,,,,,,,,,,,,,,,,,,,,,,,,,,,,,,,,,,,,,,,,,,,,,,,,,,,,,,,,,,,,,,,,,,,,,,,,,,,,,,,,,,"[""period""]",0,[0.9759999999999991],21,0,21,0,1,,
,,,,,,,,,,,,5c33496ec75f190001e7ed92,39,Mężczyzna,2022-06-11_09h29.50.283,task,2021.1.4,Win32,60.0240096,6299f149e92ead563fba08ef,62a4443a30da7de6dd2f9f42,,,,,,,,,,,,,,,,,,,,,,,,,,,,,,,,,,,,,,,,,,,,,,,,,,,,,,,,,,,,,,,,,,,,,,,,,,,,,,,,,,,,,,,,,,,,,0,,22,0,22,0,1,,
,,,,,,,,,,,,5c33496ec75f190001e7ed92,39,Mężczyzna,2022-06-11_09h29.50.283,task,2021.1.4,Win32,60.0240096,6299f149e92ead563fba08ef,62a4443a30da7de6dd2f9f42,,,,,,,,,,,,,,,,,,,,,,,,,,,,,,,,,,,,,,,,,,,,,,,,,,,,,,,,,,,,,,,,,,,,,,,,,,,,,,,,,,,,,,,,,,,,"[""comma""]",0,[0.3850000000001046],23,0,23,0,1,,
,,,,,,,,,,,,5c33496ec75f190001e7ed92,39,Mężczyzna,2022-06-11_09h29.50.283,task,2021.1.4,Win32,60.0240096,6299f149e92ead563fba08ef,62a4443a30da7de6dd2f9f42,,,,,,,,,,,,,,,,,,,,,,,,,,,,,,,,,,,,,,,,,,,,,,,,,,,,,,,,,,,,,,,,,,,,,,,,,,,,,,,,,,,,,,,,,,,,"[""comma""]",0,[0.6080000000000609],24,0,24,0,1,,
,,,,,,,,,,,,5c33496ec75f190001e7ed92,39,Mężczyzna,2022-06-11_09h29.50.283,task,2021.1.4,Win32,60.0240096,6299f149e92ead563fba08ef,62a4443a30da7de6dd2f9f42,,,,,,,,,,,,,,,,,,,,,,,,,,,,,,,,,,,,,,,,,,,,,,,,,,,,,,,,,,,,,,,,,,,,,,,,,,,,,,,,,,,,,,,,,,,,"[""comma""]",0,[0.5339999999999918],25,0,25,0,1,,
,,,,,,,,,,,,5c33496ec75f190001e7ed92,39,Mężczyzna,2022-06-11_09h29.50.283,task,2021.1.4,Win32,60.0240096,6299f149e92ead563fba08ef,62a4443a30da7de6dd2f9f42,,,,,,,,,,,,,,,,,,,,,,,,,,,,,,,,,,,,,,,,,,,,,,,,,,,,,,,,,,,,,,,,,,,,,,,,,,,,,,,,,,,,,,,,,,,,"[""period""]",0,[0.5680000000000973],26,0,26,0,1,,
,,,,,,,,,,,,5c33496ec75f190001e7ed92,39,Mężczyzna,2022-06-11_09h29.50.283,task,2021.1.4,Win32,60.0240096,6299f149e92ead563fba08ef,62a4443a30da7de6dd2f9f42,,,,,,,,,,,,,,,,,,,,,,,,,,,,,,,,,,,,,,,,,,,,,,,,,,,,,,,,,,,,,,,,,,,,,,,,,,,,,,,,,,,,,,,,,,,,"[""period""]",0,[0.48500000000001364],27,0,27,0,1,,
,,,,,,,,,,,,5c33496ec75f190001e7ed92,39,Mężczyzna,2022-06-11_09h29.50.283,task,2021.1.4,Win32,60.0240096,6299f149e92ead563fba08ef,62a4443a30da7de6dd2f9f42,,,,,,,,,,,,,,,,,,,,,,,,,,,,,,,,,,,,,,,,,,,,,,,,,,,,,,,,,,,,,,,,,,,,,,,,,,,,,,,,,,,,,,,,,,,,"[""period""]",0,[0.46699999999998454],28,0,28,0,1,,
,,,,,,,,,,,,5c33496ec75f190001e7ed92,39,Mężczyzna,2022-06-11_09h29.50.283,task,2021.1.4,Win32,60.0240096,6299f149e92ead563fba08ef,62a4443a30da7de6dd2f9f42,,,,,,,,,,,,,,,,,,,,,,,,,,,,,,,,,,,,,,,,,,,,,,,,,,,,,,,,,,,,,,,,,,,,,,,,,,,,,,,,,,,,,,,,,,,,"[""comma""]",0,[0.43400000000008276],29,0,29,0,1,,
,,,,,,,,,,,,5c33496ec75f190001e7ed92,39,Mężczyzna,2022-06-11_09h29.50.283,task,2021.1.4,Win32,60.0240096,6299f149e92ead563fba08ef,62a4443a30da7de6dd2f9f42,,,,,,,,,,,,,,,,,,,,,,,,,,,,,,,,,,,,,,,,,,,,,,,,,,,,,,,,,,,,,,,,,,,,,,,,,,,,,,,,,,,,,,,,,,,,"[""comma""]",0,[0.36000000000001364],30,0,30,0,1,,
,,,,,,,,,,,,5c33496ec75f190001e7ed92,39,Mężczyzna,2022-06-11_09h29.50.283,task,2021.1.4,Win32,60.0240096,6299f149e92ead563fba08ef,62a4443a30da7de6dd2f9f42,,,,,,,,,,,,,,,,,,,,,,,,,,,,,,,,,,,,,,,,,,,,,,,,,,,,,,,,,,,,,,,,,,,,,,,,,,,,,,,,,,,,,,,,,,,,"[""comma""]",0,[0.3829999999999245],31,0,31,0,1,,
,,,,,,,,,,,,5c33496ec75f190001e7ed92,39,Mężczyzna,2022-06-11_09h29.50.283,task,2021.1.4,Win32,60.0240096,6299f149e92ead563fba08ef,62a4443a30da7de6dd2f9f42,,,,,,,,,,,,,,,,,,,,,,,,,,,,,,,,,,,,,,,,,,,,,,,,,,,,,,,,,,,,,,,,,,,,,,,,,,,,,,,,,,,,,,,,,,,,"[""period""]",0,[0.35799999999994725],32,0,32,0,1,,
,,,,,,,,,,,,5c33496ec75f190001e7ed92,39,Mężczyzna,2022-06-11_09h29.50.283,task,2021.1.4,Win32,60.0240096,6299f149e92ead563fba08ef,62a4443a30da7de6dd2f9f42,,,,,,,,,,,,,,,,,,,,,,,,,,,,,,,,,,,,,,,,,,,,,,,,,,,,,,,,,,,,,,,,,,,,,,,,,,,,,,,,,,,,,,,,,,,,"[""period""]",0,[0.26700000000005275],33,0,33,0,1,,
,,,,,,,,,,,,5c33496ec75f190001e7ed92,39,Mężczyzna,2022-06-11_09h29.50.283,task,2021.1.4,Win32,60.0240096,6299f149e92ead563fba08ef,62a4443a30da7de6dd2f9f42,,,,,,,,,,,,,,,,,,,,,,,,,,,,,,,,,,,,,,,,,,,,,,,,,,,,,,,,,,,,,,,,,,,,,,,,,,,,,,,,,,,,,,,,,,,,"[""period""]",0,[0.5509999999999309],34,0,34,0,1,,
,,,,,,,,,,,,5c33496ec75f190001e7ed92,39,Mężczyzna,2022-06-11_09h29.50.283,task,2021.1.4,Win32,60.0240096,6299f149e92ead563fba08ef,62a4443a30da7de6dd2f9f42,,,,,,,,,,,,,,,,,,,,,,,,,,,,,,,,,,,,,,,,,,,,,,,,,,,,,,,,,,,,,,,,,,,,,,,,,,,,,,,,,,,,,,,,,,,,"[""comma""]",0,[0.30100000000004457],35,0,35,0,1,,
,,,,,,,,,,,,5c33496ec75f190001e7ed92,39,Mężczyzna,2022-06-11_09h29.50.283,task,2021.1.4,Win32,60.0240096,6299f149e92ead563fba08ef,62a4443a30da7de6dd2f9f42,,,,,,,,,,,,,,,,,,,,,,,,,,,,,,,,,,,,,,,,,,,,,,,,,,,,,,,,,,,,,,,,,,,,,,,,,,,,,,,,,,,,,,,,,,,,"[""comma""]",0,[0.30299999999999727],36,0,36,0,1,,
,,,,,,,,,,,,5c33496ec75f190001e7ed92,39,Mężczyzna,2022-06-11_09h29.50.283,task,2021.1.4,Win32,60.0240096,6299f149e92ead563fba08ef,62a4443a30da7de6dd2f9f42,,,,,,,,,,,,,,,,,,,,,,,,,,,,,,,,,,,,,,,,,,,,,,,,,,,,,,,,,,,,,,,,,,,,,,,,,,,,,,,,,,,,,,,,,,,,"[""comma""]",0,[0.36599999999998545],37,0,37,0,1,,
,,,,,,,,,,,,5c33496ec75f190001e7ed92,39,Mężczyzna,2022-06-11_09h29.50.283,task,2021.1.4,Win32,60.0240096,6299f149e92ead563fba08ef,62a4443a30da7de6dd2f9f42,,,,,,,,,,,,,,,,,,,,,,,,,,,,,,,,,,,,,,,,,,,,,,,,,,,,,,,,,,,,,,,,,,,,,,,,,,,,,,,,,,,,,,,,,,,,"[""period""]",0,[0.23500000000001364],38,0,38,0,1,,
,,,,,,,,,,,,5c33496ec75f190001e7ed92,39,Mężczyzna,2022-06-11_09h29.50.283,task,2021.1.4,Win32,60.0240096,6299f149e92ead563fba08ef,62a4443a30da7de6dd2f9f42,,,,,,,,,,,,,,,,,,,,,,,,,,,,,,,,,,,,,,,,,,,,,,,,,,,,,,,,,,,,,,,,,,,,,,,,,,,,,,,,,,,,,,,,,,,,"[""period""]",0,[0.48700000000008004],39,0,39,0,1,,
,,,,,,,,,,,,5c33496ec75f190001e7ed92,39,Mężczyzna,2022-06-11_09h29.50.283,task,2021.1.4,Win32,60.0240096,6299f149e92ead563fba08ef,62a4443a30da7de6dd2f9f42,,,,,,,,,,,,,,,,,,,,,,,,,,,,,,,,,,,,,,,,,,,,,,,,,,,,,,,,,,,,,,,,,,,,,,,,,,,,,,,,,,,,,,,,,,,,"[""period""]",0,[0.28700000000003456],40,0,40,0,1,,
,,,,,,,,,,,,5c33496ec75f190001e7ed92,39,Mężczyzna,2022-06-11_09h29.50.283,task,2021.1.4,Win32,60.0240096,6299f149e92ead563fba08ef,62a4443a30da7de6dd2f9f42,,,,,,,,,,,,,,,,,,,,,,,,,,,,,,,,,,,,,,,,,,,,,,,,,,,,,,,,,,,,,,,,,,,,,,,,,,,,,,,,,,,,,,,,,,,,"[""comma""]",0,[0.33600000000001273],41,0,41,0,1,,
,,,,,,,,,,,,5c33496ec75f190001e7ed92,39,Mężczyzna,2022-06-11_09h29.50.283,task,2021.1.4,Win32,60.0240096,6299f149e92ead563fba08ef,62a4443a30da7de6dd2f9f42,,,,,,,,,,,,,,,,,,,,,,,,,,,,,,,,,,,,,,,,,,,,,,,,,,,,,,,,,,,,,,,,,,,,,,,,,,,,,,,,,,,,,,,,,,,,"[""comma""]",0,[0.3280000000000882],42,0,42,0,1,,
,,,,,,,,,,,,5c33496ec75f190001e7ed92,39,Mężczyzna,2022-06-11_09h29.50.283,task,2021.1.4,Win32,60.0240096,6299f149e92ead563fba08ef,62a4443a30da7de6dd2f9f42,,,,,,,,,,,,,,,,,,,,,,,,,,,,,,,,,,,,,,,,,,,,,,,,,,,,,,,,,,,,,,,,,,,,,,,,,,,,,,,,,,,,,,,,,,,,"[""comma""]",0,[0.6240000000000236],43,0,43,0,1,,
,,,,,,,,,,,,5c33496ec75f190001e7ed92,39,Mężczyzna,2022-06-11_09h29.50.283,task,2021.1.4,Win32,60.0240096,6299f149e92ead563fba08ef,62a4443a30da7de6dd2f9f42,,,,,,,,,,,,,,,,,,,,,,,,,,,,,,,,,,,,,,,,,,,,,,,,,,,,,,,,,,,,,,,,,,,,,,,,,,,,,,,,,,,,,,,,,,,,"[""period""]",0,[0.2680000000000291],44,0,44,0,1,,
,,,,,,,,,,,,5c33496ec75f190001e7ed92,39,Mężczyzna,2022-06-11_09h29.50.283,task,2021.1.4,Win32,60.0240096,6299f149e92ead563fba08ef,62a4443a30da7de6dd2f9f42,,,,,,,,,,,,,,,,,,,,,,,,,,,,,,,,,,,,,,,,,,,,,,,,,,,,,,,,,,,,,,,,,,,,,,,,,,,,,,,,,,,,,,,,,,,,"[""period""]",0,[0.2699999999999818],45,0,45,0,1,,
,,,,,,,,,,,,5c33496ec75f190001e7ed92,39,Mężczyzna,2022-06-11_09h29.50.283,task,2021.1.4,Win32,60.0240096,6299f149e92ead563fba08ef,62a4443a30da7de6dd2f9f42,,,,,,,,,,,,,,,,,,,,,,,,,,,,,,,,,,,,,,,,,,,,,,,,,,,,,,,,,,,,,,,,,,,,,,,,,,,,,,,,,,,,,,,,,,,,"[""comma""]",0,[0.26699999999993906],46,0,46,0,1,,
,,,,,,,,,,,,5c33496ec75f190001e7ed92,39,Mężczyzna,2022-06-11_09h29.50.283,task,2021.1.4,Win32,60.0240096,6299f149e92ead563fba08ef,62a4443a30da7de6dd2f9f42,,,,,,,,,,,,,,,,,,,,,,,,,,,,,,,,,,,,,,,,,,,,,,,,,,,,,,,,,,,,,,,,,,,,,,,,,,,,,,,,,,,,,,,,,,,,"[""period""]",0,[0.25],47,0,47,0,1,,
,,,,,,,,,,,,5c33496ec75f190001e7ed92,39,Mężczyzna,2022-06-11_09h29.50.283,task,2021.1.4,Win32,60.0240096,6299f149e92ead563fba08ef,62a4443a30da7de6dd2f9f42,,,,,,,,,,,,,,,,,,,,,,,,,,,,,,,,,,,,,,,,,,,,,,,,,,,,,,,,,,,,,,,,,,,,,,,,,,,,,,,,,,,,,,,,,,,,"[""comma""]",0,[0.4699999999999136],48,0,48,0,1,,
,,,,,,,,,,,,5c33496ec75f190001e7ed92,39,Mężczyzna,2022-06-11_09h29.50.283,task,2021.1.4,Win32,60.0240096,6299f149e92ead563fba08ef,62a4443a30da7de6dd2f9f42,,,,,,,,,,,,,,,,,,,,,,,,,,,,,,,,,,,,,,,,,,,,,,,,,,,,,,,,,,,,,,,,,,,,,,,,,,,,,,,,,,,,,,,,,,,,"[""comma""]",0,[0.5419999999999163],49,0,49,0,1,,
,,,,,,,,,,,,5c33496ec75f190001e7ed92,39,Mężczyzna,2022-06-11_09h29.50.283,task,2021.1.4,Win32,60.0240096,6299f149e92ead563fba08ef,62a4443a30da7de6dd2f9f42,,,,,,,,,,,,,,,,,,,,,,,,,,,,,,,,,,,,,,,,,,,,,,,,,,,,,,,,,,,,,,,,,,,,,,,,,,,,,,,,,,,,,,,,,,,,"[""period""]",0,[0.3350000000000364],50,0,50,0,1,,
,,,,,,,,,,,,5c33496ec75f190001e7ed92,39,Mężczyzna,2022-06-11_09h29.50.283,task,2021.1.4,Win32,60.0240096,6299f149e92ead563fba08ef,62a4443a30da7de6dd2f9f42,,,,,,,,,,,,,,,,,,,,,,,,,,,,,,,,,,,,,,,,,,,,,,,,,,,,,,,,,,,,,,,,,,,,,,,,,,,,,,,,,,,,,,,,,,,,"[""period""]",0,[0.31900000000007367],51,0,51,0,1,,
,,,,,,,,,,,,5c33496ec75f190001e7ed92,39,Mężczyzna,2022-06-11_09h29.50.283,task,2021.1.4,Win32,60.0240096,6299f149e92ead563fba08ef,62a4443a30da7de6dd2f9f42,,,,,,,,,,,,,,,,,,,,,,,,,,,,,,,,,,,,,,,,,,,,,,,,,,,,,,,,,,,,,,,,,,,,,,,,,,,,,,,,,,,,,,,,,,,,"[""period""]",0,[0.33399999999994634],52,0,52,0,1,,
,,,,,,,,,,,,5c33496ec75f190001e7ed92,39,Mężczyzna,2022-06-11_09h29.50.283,task,2021.1.4,Win32,60.0240096,6299f149e92ead563fba08ef,62a4443a30da7de6dd2f9f42,,,,,,,,,,,,,,,,,,,,,,,,,,,,,,,,,,,,,,,,,,,,,,,,,,,,,,,,,,,,,,,,,,,,,,,,,,,,,,,,,,,,,,,,,,,,"[""comma""]",0,[0.31900000000007367],53,0,53,0,1,,
,,,,,,,,,,,,5c33496ec75f190001e7ed92,39,Mężczyzna,2022-06-11_09h29.50.283,task,2021.1.4,Win32,60.0240096,6299f149e92ead563fba08ef,62a4443a30da7de6dd2f9f42,,,,,,,,,,,,,,,,,,,,,,,,,,,,,,,,,,,,,,,,,,,,,,,,,,,,,,,,,,,,,,,,,,,,,,,,,,,,,,,,,,,,,,,,,,,,"[""comma""]",0,[0.3040000000000873],54,0,54,0,1,,
,,,,,,,,,,,,5c33496ec75f190001e7ed92,39,Mężczyzna,2022-06-11_09h29.50.283,task,2021.1.4,Win32,60.0240096,6299f149e92ead563fba08ef,62a4443a30da7de6dd2f9f42,,,,,,,,,,,,,,,,,,,,,,,,,,,,,,,,,,,,,,,,,,,,,,,,,,,,,,,,,,,,,,,,,,,,,,,,,,,,,,,,,,,,,,,,,,,,"[""period""]",0,[0.4720000000000937],55,0,55,0,1,,
,,,,,,,,,,,,5c33496ec75f190001e7ed92,39,Mężczyzna,2022-06-11_09h29.50.283,task,2021.1.4,Win32,60.0240096,6299f149e92ead563fba08ef,62a4443a30da7de6dd2f9f42,,,,,,,,,,,,,,,,,,,,,,,,,,,,,,,,,,,,,,,,,,,,,,,,,,,,,,,,,,,,,,,,,,,,,,,,,,,,,,,,,,,,,,,,,,,,"[""comma""]",0,[0.3170000000000073],56,0,56,0,1,,
,,,,,,,,,,,,5c33496ec75f190001e7ed92,39,Mężczyzna,2022-06-11_09h29.50.283,task,2021.1.4,Win32,60.0240096,6299f149e92ead563fba08ef,62a4443a30da7de6dd2f9f42,,,,,,,,,,,,,,,,,,,,,,,,,,,,,,,,,,,,,,,,,,,,,,,,,,,,,,,,,,,,,,,,,,,,,,,,,,,,,,,,,,,,,,,,,,,,"[""comma""]",0,[0.28700000000003456],57,0,57,0,1,,
,,,,,,,,,,,,5c33496ec75f190001e7ed92,39,Mężczyzna,2022-06-11_09h29.50.283,task,2021.1.4,Win32,60.0240096,6299f149e92ead563fba08ef,62a4443a30da7de6dd2f9f42,,,,,,,,,,,,,,,,,,,,,,,,,,,,,,,,,,,,,,,,,,,,,,,,,,,,,,,,,,,,,,,,,,,,,,,,,,,,,,,,,,,,,,,,,,,,"[""period""]",0,[0.2999999999999545],58,0,58,0,1,,
,,,,,,,,,,,,5c33496ec75f190001e7ed92,39,Mężczyzna,2022-06-11_09h29.50.283,task,2021.1.4,Win32,60.0240096,6299f149e92ead563fba08ef,62a4443a30da7de6dd2f9f42,,,,,,,,,,,,,,,,,,,,,,,,,,,,,,,,,,,,,,,,,,,,,,,,,,,,,,,,,,,,,,,,,,,,,,,,,,,,,,,,,,,,,,,,,,,,"[""period""]",0,[0.3180000000000973],59,0,59,0,1,,
,,,,,,,,,,,,5c33496ec75f190001e7ed92,39,Mężczyzna,2022-06-11_09h29.50.283,task,2021.1.4,Win32,60.0240096,6299f149e92ead563fba08ef,62a4443a30da7de6dd2f9f42,,,,,,,,,,,,,,,,,,,,,,,,,,,,,,,,,,,,,,,,,,,,,,,,,,,,,,,,,,,,,,,,,,,,,,,,,,,,,,,,,,,,,,,,,,,,"[""comma""]",0,[0.52800000000002],60,0,60,0,1,,
,,,,,,,,,,,,5c33496ec75f190001e7ed92,39,Mężczyzna,2022-06-11_09h29.50.283,task,2021.1.4,Win32,60.0240096,6299f149e92ead563fba08ef,62a4443a30da7de6dd2f9f42,,,,,,,,,,,,,,,,,,,,,,,,,,,,,,,,,,,,,,,,,,,,,,,,,,,,,,,,,,,,,,,,,,,,,,,,,,,,,,,,,,,,,,,,,,,,"[""period""]",0,[0.5179999999999154],61,0,61,0,1,,
,,,,,,,,,,,,5c33496ec75f190001e7ed92,39,Mężczyzna,2022-06-11_09h29.50.283,task,2021.1.4,Win32,60.0240096,6299f149e92ead563fba08ef,62a4443a30da7de6dd2f9f42,,,,,,,,,,,,,,,,,,,,,,,,,,,,,,,,,,,,,,,,,,,,,,,,,,,,,,,,,,,,,,,,,,,,,,,,,,,,,,,,,,,,,,,,,,,,"[""period""]",0,[0.47100000000000364],62,0,62,0,1,,
,,,,,,,,,,,,5c33496ec75f190001e7ed92,39,Mężczyzna,2022-06-11_09h29.50.283,task,2021.1.4,Win32,60.0240096,6299f149e92ead563fba08ef,62a4443a30da7de6dd2f9f42,,,,,,,,,,,,,,,,,,,,,,,,,,,,,,,,,,,,,,,,,,,,,,,,,,,,,,,,,,,,,,,,,,,,,,,,,,,,,,,,,,,,,,,,,,,,"[""comma""]",0,[0.6080000000000609],63,0,63,0,1,,
,,,,,,,,,,,,5c33496ec75f190001e7ed92,39,Mężczyzna,2022-06-11_09h29.50.283,task,2021.1.4,Win32,60.0240096,6299f149e92ead563fba08ef,62a4443a30da7de6dd2f9f42,,,,,,,,,,,,,,,,,,,,,,,,,,,,,,,,,,,,,,,,,,,,,,,,,,,,,,,,,,,,,,,,,,,,,,,,,,,,,,,,,,,,,,,,,,,,"[""comma""]",0,[0.3850000000001046],64,0,64,0,1,,
,,,,,,,,,,,,5c33496ec75f190001e7ed92,39,Mężczyzna,2022-06-11_09h29.50.283,task,2021.1.4,Win32,60.0240096,6299f149e92ead563fba08ef,62a4443a30da7de6dd2f9f42,,,,,,,,,,,,,,,,,,,,,,,,,,,,,,,,,,,,,,,,,,,,,,,,,,,,,,,,,,,,,,,,,,,,,,,,,,,,,,,,,,,,,,,,,,,,"[""comma""]",0,[0.58299999999997],65,0,65,0,1,,
,,,,,,,,,,,,5c33496ec75f190001e7ed92,39,Mężczyzna,2022-06-11_09h29.50.283,task,2021.1.4,Win32,60.0240096,6299f149e92ead563fba08ef,62a4443a30da7de6dd2f9f42,,,,,,,,,,,,,,,,,,,,,,,,,,,,,,,,,,,,,,,,,,,,,,,,,,,,,,,,,,,,,,,,,,,,,,,,,,,,,,,,,,,,,,,,,,,,"[""period""]",0,[0.3000000000000682],66,0,66,0,1,,
,,,,,,,,,,,,5c33496ec75f190001e7ed92,39,Mężczyzna,2022-06-11_09h29.50.283,task,2021.1.4,Win32,60.0240096,6299f149e92ead563fba08ef,62a4443a30da7de6dd2f9f42,,,,,,,,,,,,,,,,,,,,,,,,,,,,,,,,,,,,,,,,,,,,,,,,,,,,,,,,,,,,,,,,,,,,,,,,,,,,,,,,,,,,,,,,,,,,"[""period""]",0,[0.32200000000000273],67,0,67,0,1,,
,,,,,,,,,,,,5c33496ec75f190001e7ed92,39,Mężczyzna,2022-06-11_09h29.50.283,task,2021.1.4,Win32,60.0240096,6299f149e92ead563fba08ef,62a4443a30da7de6dd2f9f42,,,,,,,,,,,,,,,,,,,,,,,,,,,,,,,,,,,,,,,,,,,,,,,,,,,,,,,,,,,,,,,,,,,,,,,,,,,,,,,,,,,,,,,,,,,,"[""period"",""comma""]",0,"[0.23900000000003274,1.6880000000001019]",68,0,68,0,1,,
,,,,,,,,,,,,5c33496ec75f190001e7ed92,39,Mężczyzna,2022-06-11_09h29.50.283,task,2021.1.4,Win32,60.0240096,6299f149e92ead563fba08ef,62a4443a30da7de6dd2f9f42,,,,,,,,,,,,,,,,,,,,,,,,,,,,,,,,,,,,,,,,,,,,,,,,,,,,,,,,,,,,,,,,,,,,,,,,,,,,,,,,,,,,,,,,,,,,,0,,69,0,69,0,1,,
,,,,,,,,,,,,5c33496ec75f190001e7ed92,39,Mężczyzna,2022-06-11_09h29.50.283,task,2021.1.4,Win32,60.0240096,6299f149e92ead563fba08ef,62a4443a30da7de6dd2f9f42,,,,,,,,,,,,,,,,,,,,,,,,,,,,,,,,,,,,,,,,,,,,,,,,,,,,,,,,,,,,,,,,,,,,,,,,,,,,,,,,,,,,,,,,,,,,"[""comma""]",0,[0.2880000000000109],70,0,70,0,1,,
,,,,,,,,,,,,5c33496ec75f190001e7ed92,39,Mężczyzna,2022-06-11_09h29.50.283,task,2021.1.4,Win32,60.0240096,6299f149e92ead563fba08ef,62a4443a30da7de6dd2f9f42,,,,,,,,,,,,,,,,,,,,,,,,,,,,,,,,,,,,,,,,,,,,,,,,,,,,,,,,,,,,,,,,,,,,,,,,,,,,,,,,,,,,,,,,,,,,"[""comma""]",0,[0.4169999999999163],71,0,71,0,1,,
,,,,,,,,,,,,5c33496ec75f190001e7ed92,39,Mężczyzna,2022-06-11_09h29.50.283,task,2021.1.4,Win32,60.0240096,6299f149e92ead563fba08ef,62a4443a30da7de6dd2f9f42,,,,,,,,,,,,,,,,,,,,,,,,,,,,,,,,,,,,,,,,,,,,,,,,,,,,,,,,,,,,,,,,,,,,,,,,,,,,,,,,,,,,,,,,,,,,"[""period""]",0,[0.2840000000001055],72,0,72,0,1,,
,,,,,,,,,,,,5c33496ec75f190001e7ed92,39,Mężczyzna,2022-06-11_09h29.50.283,task,2021.1.4,Win32,60.0240096,6299f149e92ead563fba08ef,62a4443a30da7de6dd2f9f42,,,,,,,,,,,,,,,,,,,,,,,,,,,,,,,,,,,,,,,,,,,,,,,,,,,,,,,,,,,,,,,,,,,,,,,,,,,,,,,,,,,,,,,,,,,,"[""period""]",0,[0.3350000000000364],73,0,73,0,1,,
,,,,,,,,,,,,5c33496ec75f190001e7ed92,39,Mężczyzna,2022-06-11_09h29.50.283,task,2021.1.4,Win32,60.0240096,6299f149e92ead563fba08ef,62a4443a30da7de6dd2f9f42,,,,,,,,,,,,,,,,,,,,,,,,,,,,,,,,,,,,,,,,,,,,,,,,,,,,,,,,,,,,,,,,,,,,,,,,,,,,,,,,,,,,,,,,,,,,"[""period""]",0,[0.2720000000000482],74,0,74,0,1,,
,,,,,,,,,,,,5c33496ec75f190001e7ed92,39,Mężczyzna,2022-06-11_09h29.50.283,task,2021.1.4,Win32,60.0240096,6299f149e92ead563fba08ef,62a4443a30da7de6dd2f9f42,,,,,,,,,,,,,,,,,,,,,,,,,,,,,,,,,,,,,,,,,,,,,,,,,,,,,,,,,,,,,,,,,,,,,,,,,,,,,,,,,,,,,,,,,,,,"[""period""]",0,[0.2859999999999445],75,0,75,0,1,,
,,,,,,,,,,,,5c33496ec75f190001e7ed92,39,Mężczyzna,2022-06-11_09h29.50.283,task,2021.1.4,Win32,60.0240096,6299f149e92ead563fba08ef,62a4443a30da7de6dd2f9f42,,,,,,,,,,,,,,,,,,,,,,,,,,,,,,,,,,,,,,,,,,,,,,,,,,,,,,,,,,,,,,,,,,,,,,,,,,,,,,,,,,,,,,,,,,,,"[""comma""]",0,[0.2839999999999918],76,0,76,0,1,,
,,,,,,,,,,,,5c33496ec75f190001e7ed92,39,Mężczyzna,2022-06-11_09h29.50.283,task,2021.1.4,Win32,60.0240096,6299f149e92ead563fba08ef,62a4443a30da7de6dd2f9f42,,,,,,,,,,,,,,,,,,,,,,,,,,,,,,,,,,,,,,,,,,,,,,,,,,,,,,,,,,,,,,,,,,,,,,,,,,,,,,,,,,,,,,,,,,,,"[""comma""]",0,[0.5510000000000446],77,0,77,0,1,,
,,,,,,,,,,,,5c33496ec75f190001e7ed92,39,Mężczyzna,2022-06-11_09h29.50.283,task,2021.1.4,Win32,60.0240096,6299f149e92ead563fba08ef,62a4443a30da7de6dd2f9f42,,,,,,,,,,,,,,,,,,,,,,,,,,,,,,,,,,,,,,,,,,,,,,,,,,,,,,,,,,,,,,,,,,,,,,,,,,,,,,,,,,,,,,,,,,,,"[""period""]",0,[0.25499999999999545],78,0,78,0,1,,
,,,,,,,,,,,,5c33496ec75f190001e7ed92,39,Mężczyzna,2022-06-11_09h29.50.283,task,2021.1.4,Win32,60.0240096,6299f149e92ead563fba08ef,62a4443a30da7de6dd2f9f42,,,,,,,,,,,,,,,,,,,,,,,,,,,,,,,,,,,,,,,,,,,,,,,,,,,,,,,,,,,,,,,,,,,,,,,,,,,,,,,,,,,,,,,,,,,,"[""comma"",""comma""]",0,"[0.2520000000000664,1.9600000000000364]",79,0,79,0,1,,
,,,,,,,,,,,,5c33496ec75f190001e7ed92,39,Mężczyzna,2022-06-11_09h29.50.283,task,2021.1.4,Win32,60.0240096,6299f149e92ead563fba08ef,62a4443a30da7de6dd2f9f42,,,,,,,,,,,,,,,,,,,,,,,,,,,,,,,,,,,,,,,,,,,,,,,,,,,,,,,,,,,,,,,,,,,,,,,,,,,,,,,,,,,,,,,,,,,,,0,,80,0,80,0,1,,
,,,,,,,,,,,,5c33496ec75f190001e7ed92,39,Mężczyzna,2022-06-11_09h29.50.283,task,2021.1.4,Win32,60.0240096,6299f149e92ead563fba08ef,62a4443a30da7de6dd2f9f42,,,,,,,,,,,,,,,,,,,,,,,,,,,,,,,,,,,,,,,,,,,,,,,,,,,,,,,,,,,,,,,,,,,,,,,,,,,,,,,,,,,,,,,,,,,,"[""comma""]",0,[0.28700000000003456],81,0,81,0,1,,
,,,,,,,,,,,,5c33496ec75f190001e7ed92,39,Mężczyzna,2022-06-11_09h29.50.283,task,2021.1.4,Win32,60.0240096,6299f149e92ead563fba08ef,62a4443a30da7de6dd2f9f42,,,,,,,,,,,,,,,,,,,,,,,,,,,,,,,,,,,,,,,,,,,,,,,,,,,,,,,,,,,,,,,,,,,,,,,,,,,,,,,,,,,,,,,,,,,,"[""period""]",0,[0.4519999999999982],82,0,82,0,1,,
,,,,,,,,,,,,5c33496ec75f190001e7ed92,39,Mężczyzna,2022-06-11_09h29.50.283,task,2021.1.4,Win32,60.0240096,6299f149e92ead563fba08ef,62a4443a30da7de6dd2f9f42,,,,,,,,,,,,,,,,,,,,,,,,,,,,,,,,,,,,,,,,,,,,,,,,,,,,,,,,,,,,,,,,,,,,,,,,,,,,,,,,,,,,,,,,,,,,"[""comma""]",0,[0.30299999999999727],83,0,83,0,1,,
,,,,,,,,,,,,5c33496ec75f190001e7ed92,39,Mężczyzna,2022-06-11_09h29.50.283,task,2021.1.4,Win32,60.0240096,6299f149e92ead563fba08ef,62a4443a30da7de6dd2f9f42,,,,,,,,,,,,,,,,,,,,,,,,,,,,,,,,,,,,,,,,,,,,,,,,,,,,,,,,,,,,,,,,,,,,,,,,,,,,,,,,,,,,,,,,,,,,"[""comma""]",0,[0.16699999999991633],84,0,84,0,1,,
,,,,,,,,,,,,5c33496ec75f190001e7ed92,39,Mężczyzna,2022-06-11_09h29.50.283,task,2021.1.4,Win32,60.0240096,6299f149e92ead563fba08ef,62a4443a30da7de6dd2f9f42,,,,,,,,,,,,,,,,,,,,,,,,,,,,,,,,,,,,,,,,,,,,,,,,,,,,,,,,,,,,,,,,,,,,,,,,,,,,,,,,,,,,,,,,,,,,"[""period""]",0,[0.25],85,0,85,0,1,,
,,,,,,,,,,,,5c33496ec75f190001e7ed92,39,Mężczyzna,2022-06-11_09h29.50.283,task,2021.1.4,Win32,60.0240096,6299f149e92ead563fba08ef,62a4443a30da7de6dd2f9f42,,,,,,,,,,,,,,,,,,,,,,,,,,,,,,,,,,,,,,,,,,,,,,,,,,,,,,,,,,,,,,,,,,,,,,,,,,,,,,,,,,,,,,,,,,,,"[""comma""]",0,[0.3429999999999609],86,0,86,0,1,,
,,,,,,,,,,,,5c33496ec75f190001e7ed92,39,Mężczyzna,2022-06-11_09h29.50.283,task,2021.1.4,Win32,60.0240096,6299f149e92ead563fba08ef,62a4443a30da7de6dd2f9f42,,,,,,,,,,,,,,,,,,,,,,,,,,,,,,,,,,,,,,,,,,,,,,,,,,,,,,,,,,,,,,,,,,,,,,,,,,,,,,,,,,,,,,,,,,,,"[""period""]",0,[0.31599999999991724],87,0,87,0,1,,
,,,,,,,,,,,,5c33496ec75f190001e7ed92,39,Mężczyzna,2022-06-11_09h29.50.283,task,2021.1.4,Win32,60.0240096,6299f149e92ead563fba08ef,62a4443a30da7de6dd2f9f42,,,,,,,,,,,,,,,,,,,,,,,,,,,,,,,,,,,,,,,,,,,,,,,,,,,,,,,,,,,,,,,,,,,,,,,,,,,,,,,,,,,,,,,,,,,,"[""comma""]",0,[0.4680000000000746],88,0,88,0,1,,
,,,,,,,,,,,,5c33496ec75f190001e7ed92,39,Mężczyzna,2022-06-11_09h29.50.283,task,2021.1.4,Win32,60.0240096,6299f149e92ead563fba08ef,62a4443a30da7de6dd2f9f42,,,,,,,,,,,,,,,,,,,,,,,,,,,,,,,,,,,,,,,,,,,,,,,,,,,,,,,,,,,,,,,,,,,,,,,,,,,,,,,,,,,,,,,,,,,,"[""period""]",0,[0.375],89,0,89,0,1,,
,,,,,,,,,,,,5c33496ec75f190001e7ed92,39,Mężczyzna,2022-06-11_09h29.50.283,task,2021.1.4,Win32,60.0240096,6299f149e92ead563fba08ef,62a4443a30da7de6dd2f9f42,,,,,,,,,,,,,,,,,,,,,,,,,,,,,,,,,,,,,,,,,,,,,,,,,,,,,,,,,,,,,,,,,,,,,,,,,,,,,,,,,,,,,,,,,,,,"[""period""]",0,[0.08500000000003638],90,0,90,0,1,,
,,,,,,,,,,,,5c33496ec75f190001e7ed92,39,Mężczyzna,2022-06-11_09h29.50.283,task,2021.1.4,Win32,60.0240096,6299f149e92ead563fba08ef,62a4443a30da7de6dd2f9f42,,,,,,,,,,,,,,,,,,,,,,,,,,,,,,,,,,,,,,,,,,,,,,,,,,,,,,,,,,,,,,,,,,,,,,,,,,,,,,,,,,,,,,,,,,,,"[""comma""]",0,[0.30199999999990723],91,0,91,0,1,,
,,,,,,,,,,,,5c33496ec75f190001e7ed92,39,Mężczyzna,2022-06-11_09h29.50.283,task,2021.1.4,Win32,60.0240096,6299f149e92ead563fba08ef,62a4443a30da7de6dd2f9f42,,,,,,,,,,,,,,,,,,,,,,,,,,,,,,,,,,,,,,,,,,,,,,,,,,,,,,,,,,,,,,,,,,,,,,,,,,,,,,,,,,,,,,,,,,,,"[""period""]",0,[0.46699999999998454],92,0,92,0,1,,
,,,,,,,,,,,,5c33496ec75f190001e7ed92,39,Mężczyzna,2022-06-11_09h29.50.283,task,2021.1.4,Win32,60.0240096,6299f149e92ead563fba08ef,62a4443a30da7de6dd2f9f42,,,,,,,,,,,,,,,,,,,,,,,,,,,,,,,,,,,,,,,,,,,,,,,,,,,,,,,,,,,,,,,,,,,,,,,,,,,,,,,,,,,,,,,,,,,,"[""comma""]",0,[0.33399999999994634],93,0,93,0,1,,
,,,,,,,,,,,,5c33496ec75f190001e7ed92,39,Mężczyzna,2022-06-11_09h29.50.283,task,2021.1.4,Win32,60.0240096,6299f149e92ead563fba08ef,62a4443a30da7de6dd2f9f42,,,,,,,,,,,,,,,,,,,,,,,,,,,,,,,,,,,,,,,,,,,,,,,,,,,,,,,,,,,,,,,,,,,,,,,,,,,,,,,,,,,,,,,,,,,,"[""comma""]",0,[0.3910000000000764],94,0,94,0,1,,
,,,,,,,,,,,,5c33496ec75f190001e7ed92,39,Mężczyzna,2022-06-11_09h29.50.283,task,2021.1.4,Win32,60.0240096,6299f149e92ead563fba08ef,62a4443a30da7de6dd2f9f42,,,,,,,,,,,,,,,,,,,,,,,,,,,,,,,,,,,,,,,,,,,,,,,,,,,,,,,,,,,,,,,,,,,,,,,,,,,,,,,,,,,,,,,,,,,,"[""comma""]",0,[0.30299999999999727],95,0,95,0,1,,
,,,,,,,,,,,,5c33496ec75f190001e7ed92,39,Mężczyzna,2022-06-11_09h29.50.283,task,2021.1.4,Win32,60.0240096,6299f149e92ead563fba08ef,62a4443a30da7de6dd2f9f42,,,,,,,,,,,,,,,,,,,,,,,,,,,,,,,,,,,,,,,,,,,,,,,,,,,,,,,,,,,,,,,,,,,,,,,,,,,,,,,,,,,,,,,,,,,,"[""period""]",0,[0.4680000000000746],96,0,96,0,1,,
,,,,,,,,,,,,5c33496ec75f190001e7ed92,39,Mężczyzna,2022-06-11_09h29.50.283,task,2021.1.4,Win32,60.0240096,6299f149e92ead563fba08ef,62a4443a30da7de6dd2f9f42,,,,,,,,,,,,,,,,,,,,,,,,,,,,,,,,,,,,,,,,,,,,,,,,,,,,,,,,,,,,,,,,,,,,,,,,,,,,,,,,,,,,,,,,,,,,"[""comma""]",0,[0.5659999999999172],97,0,97,0,1,,
,,,,,,,,,,,,5c33496ec75f190001e7ed92,39,Mężczyzna,2022-06-11_09h29.50.283,task,2021.1.4,Win32,60.0240096,6299f149e92ead563fba08ef,62a4443a30da7de6dd2f9f42,,,,,,,,,,,,,,,,,,,,,,,,,,,,,,,,,,,,,,,,,,,,,,,,,,,,,,,,,,,,,,,,,,,,,,,,,,,,,,,,,,,,,,,,,,,,"[""comma""]",0,[0.38400000000001455],98,0,98,0,1,,
,,,,,,,,,,,,5c33496ec75f190001e7ed92,39,Mężczyzna,2022-06-11_09h29.50.283,task,2021.1.4,Win32,60.0240096,6299f149e92ead563fba08ef,62a4443a30da7de6dd2f9f42,,,,,,,,,,,,,,,,,,,,,,,,,,,,,,,,,,,,,,,,,,,,,,,,,,,,,,,,,,,,,,,,,,,,,,,,,,,,,,,,,,,,,,,,,,,,"[""period""]",0,[0.3269999999999982],99,0,99,0,1,,
,,,,,,,,,,,,5c33496ec75f190001e7ed92,39,Mężczyzna,2022-06-11_09h29.50.283,task,2021.1.4,Win32,60.0240096,6299f149e92ead563fba08ef,62a4443a30da7de6dd2f9f42,,,,,,,,,,,,,,,,,,,,,,,,,,,,,,,,,,,,,,,,,,,,,,,,,,,,,,,,,,,,,,,,,,,,,,,,,,,,,,,,,,,,,,,,,,,,"[""period""]",0,[0.43600000000003547],100,0,100,0,1,,
,,,,,,,,,,,,5c33496ec75f190001e7ed92,39,Mężczyzna,2022-06-11_09h29.50.283,task,2021.1.4,Win32,60.0240096,6299f149e92ead563fba08ef,62a4443a30da7de6dd2f9f42,,,,,,,,,,,,,,,,,,,,,,,,,,,,,,,,,,,,,,,,,,,,,,,,,,,,,,,,,,,,,,,,,,,,,,,,,,,,,,,,,,,,,,,,,,,,"[""period""]",0,[0.1190000000000282],101,0,101,0,1,,
,,,,,,,,,,,,5c33496ec75f190001e7ed92,39,Mężczyzna,2022-06-11_09h29.50.283,task,2021.1.4,Win32,60.0240096,6299f149e92ead563fba08ef,62a4443a30da7de6dd2f9f42,,,,,,,,,,,,,,,,,,,,,,,,,,,,,,,,,,,,,,,,,,,,,,,,,,,,,,,,,,,,,,,,,,,,,,,,,,,,,,,,,,,,,,,,,,,,"[""comma""]",0,[0.30299999999999727],102,0,102,0,1,,
,,,,,,,,,,,,5c33496ec75f190001e7ed92,39,Mężczyzna,2022-06-11_09h29.50.283,task,2021.1.4,Win32,60.0240096,6299f149e92ead563fba08ef,62a4443a30da7de6dd2f9f42,,,,,,,,,,,,,,,,,,,,,,,,,,,,,,,,,,,,,,,,,,,,,,,,,,,,,,,,,,,,,,,,,,,,,,,,,,,,,,,,,,,,,,,,,,,,"[""period""]",0,[0.31900000000007367],103,0,103,0,1,,
,,,,,,,,,,,,5c33496ec75f190001e7ed92,39,Mężczyzna,2022-06-11_09h29.50.283,task,2021.1.4,Win32,60.0240096,6299f149e92ead563fba08ef,62a4443a30da7de6dd2f9f42,,,,,,,,,,,,,,,,,,,,,,,,,,,,,,,,,,,,,,,,,,,,,,,,,,,,,,,,,,,,,,,,,,,,,,,,,,,,,,,,,,,,,,,,,,,,"[""period""]",0,[0.4499999999999318],104,0,104,0,1,,
,,,,,,,,,,,,5c33496ec75f190001e7ed92,39,Mężczyzna,2022-06-11_09h29.50.283,task,2021.1.4,Win32,60.0240096,6299f149e92ead563fba08ef,62a4443a30da7de6dd2f9f42,,,,,,,,,,,,,,,,,,,,,,,,,,,,,,,,,,,,,,,,,,,,,,,,,,,,,,,,,,,,,,,,,,,,,,,,,,,,,,,,,,,,,,,,,,,,"[""comma""]",0,[0.3509999999999991],105,0,105,0,1,,
,,,,,,,,,,,,5c33496ec75f190001e7ed92,39,Mężczyzna,2022-06-11_09h29.50.283,task,2021.1.4,Win32,60.0240096,6299f149e92ead563fba08ef,62a4443a30da7de6dd2f9f42,,,,,,,,,,,,,,,,,,,,,,,,,,,,,,,,,,,,,,,,,,,,,,,,,,,,,,,,,,,,,,,,,,,,,,,,,,,,,,,,,,,,,,,,,,,,"[""comma""]",0,[0.3829999999999245],106,0,106,0,1,,
,,,,,,,,,,,,5c33496ec75f190001e7ed92,39,Mężczyzna,2022-06-11_09h29.50.283,task,2021.1.4,Win32,60.0240096,6299f149e92ead563fba08ef,62a4443a30da7de6dd2f9f42,,,,,,,,,,,,,,,,,,,,,,,,,,,,,,,,,,,,,,,,,,,,,,,,,,,,,,,,,,,,,,,,,,,,,,,,,,,,,,,,,,,,,,,,,,,,"[""period""]",0,[0.3509999999999991],107,0,107,0,1,,
