key_resp_15.keys,key_resp_15.rt,key_resp_13.keys,key_resp_13.corr,key_resp_13.rt,ranodm_loop.thisRepN,ranodm_loop.thisTrialN,ranodm_loop.thisN,ranodm_loop.thisIndex,ranodm_loop.ran,participant,Wiek*,Płeć,date,expName,psychopyVersion,OS,frameRate,study_id,session,key_resp_16.keys,key_resp_16.rt,key_resp_4.keys,key_resp_4.rt,next_letter.thisRepN,next_letter.thisTrialN,next_letter.thisN,next_letter.thisIndex,next_letter.ran,letter,simple_recall,key_resp_5.keys,key_resp_5.rt,simple_recall_corr,simple_recall_corrkeys,next_level.thisRepN,next_level.thisTrialN,next_level.thisN,next_level.thisIndex,next_level.ran,key_resp_2.keys,key_resp_2.rt,digit_answer,key_resp.keys,key_resp.corr,key_resp.rt,RT_list,next_equation.thisRepN,next_equation.thisTrialN,next_equation.thisN,next_equation.thisIndex,next_equation.ran,Task,Trial,Problem,Operation_answer,processing_score,sumRT,meanRT,sumdiff,sd,RT,key_resp_3.keys,key_resp_3.rt,repeat_practice.thisRepN,repeat_practice.thisTrialN,repeat_practice.thisN,repeat_practice.thisIndex,repeat_practice.ran,key_resp_6.keys,key_resp_6.rt,key_resp_11.keys,key_resp_11.corr,key_resp_11.rt,operation_correct,repeat_if_wrong_prac.thisRepN,repeat_if_wrong_prac.thisTrialN,repeat_if_wrong_prac.thisN,repeat_if_wrong_prac.thisIndex,repeat_if_wrong_prac.ran,span_size_prac.thisRepN,span_size_prac.thisTrialN,span_size_prac.thisN,span_size_prac.thisIndex,span_size_prac.ran,complex_recall_practice,key_resp_9.keys,key_resp_9.corr,key_resp_9.rt,complex_prac_corr,span_recall_prac.thisRepN,span_recall_prac.thisTrialN,span_recall_prac.thisN,span_recall_prac.thisIndex,span_recall_prac.ran,key_resp_10.keys,key_resp_10.rt,key_resp_7.keys,key_resp_7.corr,key_resp_7.rt,repeat_if_wrong.thisRepN,repeat_if_wrong.thisTrialN,repeat_if_wrong.thisN,repeat_if_wrong.thisIndex,repeat_if_wrong.ran,span_size.thisRepN,span_size.thisTrialN,span_size.thisN,span_size.thisIndex,span_size.ran,complex_recall,key_resp_8.keys,key_resp_8.corr,key_resp_8.rt,complex_recall_corr,complex_recall_corrkeys,span_recall.thisRepN,span_recall.thisTrialN,span_recall.thisN,span_recall.thisIndex,span_recall.ran,key_resp_12.keys,key_resp_12.rt
space,30.782,"[""comma""]",0,[1.1759999999999877],0,0,0,0,1,5c4236103be7b70001fd01c5,29,Mężczyzna,2022-06-04_08h12.23.420,task,2021.1.4,Win32,40,628b806c463b948bc644b84f,629af6dd162e2b2a32cb5c0e,,,,,,,,,,,,,,,,,,,,,,,,,,,,,,,,,,,,,,,,,,,,,,,,,,,,,,,,,,,,,,,,,,,,,,,,,,,,,,,,,,,,,,,,,,,,,,,,,,,,,,,
,,"[""period""]",0,[1.024000000000001],1,0,1,0,1,5c4236103be7b70001fd01c5,29,Mężczyzna,2022-06-04_08h12.23.420,task,2021.1.4,Win32,40,628b806c463b948bc644b84f,629af6dd162e2b2a32cb5c0e,,,,,,,,,,,,,,,,,,,,,,,,,,,,,,,,,,,,,,,,,,,,,,,,,,,,,,,,,,,,,,,,,,,,,,,,,,,,,,,,,,,,,,,,,,,,,,,,,,,,,,,
,,"[""comma""]",0,[1.0260000000000105],2,0,2,0,1,5c4236103be7b70001fd01c5,29,Mężczyzna,2022-06-04_08h12.23.420,task,2021.1.4,Win32,40,628b806c463b948bc644b84f,629af6dd162e2b2a32cb5c0e,,,,,,,,,,,,,,,,,,,,,,,,,,,,,,,,,,,,,,,,,,,,,,,,,,,,,,,,,,,,,,,,,,,,,,,,,,,,,,,,,,,,,,,,,,,,,,,,,,,,,,,
,,"[""comma""]",0,[0.6269999999999527],3,0,3,0,1,5c4236103be7b70001fd01c5,29,Mężczyzna,2022-06-04_08h12.23.420,task,2021.1.4,Win32,40,628b806c463b948bc644b84f,629af6dd162e2b2a32cb5c0e,,,,,,,,,,,,,,,,,,,,,,,,,,,,,,,,,,,,,,,,,,,,,,,,,,,,,,,,,,,,,,,,,,,,,,,,,,,,,,,,,,,,,,,,,,,,,,,,,,,,,,,
,,"[""comma""]",0,[0.7279999999999518],4,0,4,0,1,5c4236103be7b70001fd01c5,29,Mężczyzna,2022-06-04_08h12.23.420,task,2021.1.4,Win32,40,628b806c463b948bc644b84f,629af6dd162e2b2a32cb5c0e,,,,,,,,,,,,,,,,,,,,,,,,,,,,,,,,,,,,,,,,,,,,,,,,,,,,,,,,,,,,,,,,,,,,,,,,,,,,,,,,,,,,,,,,,,,,,,,,,,,,,,,
,,"[""period""]",0,[0.4009999999999536],5,0,5,0,1,5c4236103be7b70001fd01c5,29,Mężczyzna,2022-06-04_08h12.23.420,task,2021.1.4,Win32,40,628b806c463b948bc644b84f,629af6dd162e2b2a32cb5c0e,,,,,,,,,,,,,,,,,,,,,,,,,,,,,,,,,,,,,,,,,,,,,,,,,,,,,,,,,,,,,,,,,,,,,,,,,,,,,,,,,,,,,,,,,,,,,,,,,,,,,,,
,,"[""period""]",0,[0.6080000000000041],6,0,6,0,1,5c4236103be7b70001fd01c5,29,Mężczyzna,2022-06-04_08h12.23.420,task,2021.1.4,Win32,40,628b806c463b948bc644b84f,629af6dd162e2b2a32cb5c0e,,,,,,,,,,,,,,,,,,,,,,,,,,,,,,,,,,,,,,,,,,,,,,,,,,,,,,,,,,,,,,,,,,,,,,,,,,,,,,,,,,,,,,,,,,,,,,,,,,,,,,,
,,"[""comma""]",0,[0.8260000000000218],7,0,7,0,1,5c4236103be7b70001fd01c5,29,Mężczyzna,2022-06-04_08h12.23.420,task,2021.1.4,Win32,40,628b806c463b948bc644b84f,629af6dd162e2b2a32cb5c0e,,,,,,,,,,,,,,,,,,,,,,,,,,,,,,,,,,,,,,,,,,,,,,,,,,,,,,,,,,,,,,,,,,,,,,,,,,,,,,,,,,,,,,,,,,,,,,,,,,,,,,,
,,"[""comma""]",0,[0.7560000000000286],8,0,8,0,1,5c4236103be7b70001fd01c5,29,Mężczyzna,2022-06-04_08h12.23.420,task,2021.1.4,Win32,40,628b806c463b948bc644b84f,629af6dd162e2b2a32cb5c0e,,,,,,,,,,,,,,,,,,,,,,,,,,,,,,,,,,,,,,,,,,,,,,,,,,,,,,,,,,,,,,,,,,,,,,,,,,,,,,,,,,,,,,,,,,,,,,,,,,,,,,,
,,"[""comma""]",0,[0.7019999999999982],9,0,9,0,1,5c4236103be7b70001fd01c5,29,Mężczyzna,2022-06-04_08h12.23.420,task,2021.1.4,Win32,40,628b806c463b948bc644b84f,629af6dd162e2b2a32cb5c0e,,,,,,,,,,,,,,,,,,,,,,,,,,,,,,,,,,,,,,,,,,,,,,,,,,,,,,,,,,,,,,,,,,,,,,,,,,,,,,,,,,,,,,,,,,,,,,,,,,,,,,,
,,"[""period""]",0,[0.40299999999996317],10,0,10,0,1,5c4236103be7b70001fd01c5,29,Mężczyzna,2022-06-04_08h12.23.420,task,2021.1.4,Win32,40,628b806c463b948bc644b84f,629af6dd162e2b2a32cb5c0e,,,,,,,,,,,,,,,,,,,,,,,,,,,,,,,,,,,,,,,,,,,,,,,,,,,,,,,,,,,,,,,,,,,,,,,,,,,,,,,,,,,,,,,,,,,,,,,,,,,,,,,
,,"[""comma""]",0,[0.5760000000000218],11,0,11,0,1,5c4236103be7b70001fd01c5,29,Mężczyzna,2022-06-04_08h12.23.420,task,2021.1.4,Win32,40,628b806c463b948bc644b84f,629af6dd162e2b2a32cb5c0e,,,,,,,,,,,,,,,,,,,,,,,,,,,,,,,,,,,,,,,,,,,,,,,,,,,,,,,,,,,,,,,,,,,,,,,,,,,,,,,,,,,,,,,,,,,,,,,,,,,,,,,
,,"[""comma""]",0,[1.25],12,0,12,0,1,5c4236103be7b70001fd01c5,29,Mężczyzna,2022-06-04_08h12.23.420,task,2021.1.4,Win32,40,628b806c463b948bc644b84f,629af6dd162e2b2a32cb5c0e,,,,,,,,,,,,,,,,,,,,,,,,,,,,,,,,,,,,,,,,,,,,,,,,,,,,,,,,,,,,,,,,,,,,,,,,,,,,,,,,,,,,,,,,,,,,,,,,,,,,,,,
,,"[""comma""]",0,[0.7040000000000077],13,0,13,0,1,5c4236103be7b70001fd01c5,29,Mężczyzna,2022-06-04_08h12.23.420,task,2021.1.4,Win32,40,628b806c463b948bc644b84f,629af6dd162e2b2a32cb5c0e,,,,,,,,,,,,,,,,,,,,,,,,,,,,,,,,,,,,,,,,,,,,,,,,,,,,,,,,,,,,,,,,,,,,,,,,,,,,,,,,,,,,,,,,,,,,,,,,,,,,,,,
,,"[""period""]",0,[0.5270000000000437],14,0,14,0,1,5c4236103be7b70001fd01c5,29,Mężczyzna,2022-06-04_08h12.23.420,task,2021.1.4,Win32,40,628b806c463b948bc644b84f,629af6dd162e2b2a32cb5c0e,,,,,,,,,,,,,,,,,,,,,,,,,,,,,,,,,,,,,,,,,,,,,,,,,,,,,,,,,,,,,,,,,,,,,,,,,,,,,,,,,,,,,,,,,,,,,,,,,,,,,,,
,,"[""period""]",0,[0.9989999999999668],15,0,15,0,1,5c4236103be7b70001fd01c5,29,Mężczyzna,2022-06-04_08h12.23.420,task,2021.1.4,Win32,40,628b806c463b948bc644b84f,629af6dd162e2b2a32cb5c0e,,,,,,,,,,,,,,,,,,,,,,,,,,,,,,,,,,,,,,,,,,,,,,,,,,,,,,,,,,,,,,,,,,,,,,,,,,,,,,,,,,,,,,,,,,,,,,,,,,,,,,,
,,"[""comma""]",0,[0.6030000000000086],16,0,16,0,1,5c4236103be7b70001fd01c5,29,Mężczyzna,2022-06-04_08h12.23.420,task,2021.1.4,Win32,40,628b806c463b948bc644b84f,629af6dd162e2b2a32cb5c0e,,,,,,,,,,,,,,,,,,,,,,,,,,,,,,,,,,,,,,,,,,,,,,,,,,,,,,,,,,,,,,,,,,,,,,,,,,,,,,,,,,,,,,,,,,,,,,,,,,,,,,,
,,"[""comma""]",0,[0.37700000000000955],17,0,17,0,1,5c4236103be7b70001fd01c5,29,Mężczyzna,2022-06-04_08h12.23.420,task,2021.1.4,Win32,40,628b806c463b948bc644b84f,629af6dd162e2b2a32cb5c0e,,,,,,,,,,,,,,,,,,,,,,,,,,,,,,,,,,,,,,,,,,,,,,,,,,,,,,,,,,,,,,,,,,,,,,,,,,,,,,,,,,,,,,,,,,,,,,,,,,,,,,,
,,"[""period""]",0,[0.28199999999998226],18,0,18,0,1,5c4236103be7b70001fd01c5,29,Mężczyzna,2022-06-04_08h12.23.420,task,2021.1.4,Win32,40,628b806c463b948bc644b84f,629af6dd162e2b2a32cb5c0e,,,,,,,,,,,,,,,,,,,,,,,,,,,,,,,,,,,,,,,,,,,,,,,,,,,,,,,,,,,,,,,,,,,,,,,,,,,,,,,,,,,,,,,,,,,,,,,,,,,,,,,
,,"[""period""]",0,[0.28700000000003456],19,0,19,0,1,5c4236103be7b70001fd01c5,29,Mężczyzna,2022-06-04_08h12.23.420,task,2021.1.4,Win32,40,628b806c463b948bc644b84f,629af6dd162e2b2a32cb5c0e,,,,,,,,,,,,,,,,,,,,,,,,,,,,,,,,,,,,,,,,,,,,,,,,,,,,,,,,,,,,,,,,,,,,,,,,,,,,,,,,,,,,,,,,,,,,,,,,,,,,,,,
,,"[""period"",""comma""]",0,"[0.2529999999999859,1.9010000000000105]",20,0,20,0,1,5c4236103be7b70001fd01c5,29,Mężczyzna,2022-06-04_08h12.23.420,task,2021.1.4,Win32,40,628b806c463b948bc644b84f,629af6dd162e2b2a32cb5c0e,,,,,,,,,,,,,,,,,,,,,,,,,,,,,,,,,,,,,,,,,,,,,,,,,,,,,,,,,,,,,,,,,,,,,,,,,,,,,,,,,,,,,,,,,,,,,,,,,,,,,,,
,,"[""comma""]",0,[1.531000000000006],21,0,21,0,1,5c4236103be7b70001fd01c5,29,Mężczyzna,2022-06-04_08h12.23.420,task,2021.1.4,Win32,40,628b806c463b948bc644b84f,629af6dd162e2b2a32cb5c0e,,,,,,,,,,,,,,,,,,,,,,,,,,,,,,,,,,,,,,,,,,,,,,,,,,,,,,,,,,,,,,,,,,,,,,,,,,,,,,,,,,,,,,,,,,,,,,,,,,,,,,,
,,"[""period""]",0,[1.3010000000000446],22,0,22,0,1,5c4236103be7b70001fd01c5,29,Mężczyzna,2022-06-04_08h12.23.420,task,2021.1.4,Win32,40,628b806c463b948bc644b84f,629af6dd162e2b2a32cb5c0e,,,,,,,,,,,,,,,,,,,,,,,,,,,,,,,,,,,,,,,,,,,,,,,,,,,,,,,,,,,,,,,,,,,,,,,,,,,,,,,,,,,,,,,,,,,,,,,,,,,,,,,
,,"[""period""]",0,[0.6770000000000209],23,0,23,0,1,5c4236103be7b70001fd01c5,29,Mężczyzna,2022-06-04_08h12.23.420,task,2021.1.4,Win32,40,628b806c463b948bc644b84f,629af6dd162e2b2a32cb5c0e,,,,,,,,,,,,,,,,,,,,,,,,,,,,,,,,,,,,,,,,,,,,,,,,,,,,,,,,,,,,,,,,,,,,,,,,,,,,,,,,,,,,,,,,,,,,,,,,,,,,,,,
,,"[""period""]",0,[0.6020000000000323],24,0,24,0,1,5c4236103be7b70001fd01c5,29,Mężczyzna,2022-06-04_08h12.23.420,task,2021.1.4,Win32,40,628b806c463b948bc644b84f,629af6dd162e2b2a32cb5c0e,,,,,,,,,,,,,,,,,,,,,,,,,,,,,,,,,,,,,,,,,,,,,,,,,,,,,,,,,,,,,,,,,,,,,,,,,,,,,,,,,,,,,,,,,,,,,,,,,,,,,,,
,,"[""period""]",0,[0.7760000000000105],25,0,25,0,1,5c4236103be7b70001fd01c5,29,Mężczyzna,2022-06-04_08h12.23.420,task,2021.1.4,Win32,40,628b806c463b948bc644b84f,629af6dd162e2b2a32cb5c0e,,,,,,,,,,,,,,,,,,,,,,,,,,,,,,,,,,,,,,,,,,,,,,,,,,,,,,,,,,,,,,,,,,,,,,,,,,,,,,,,,,,,,,,,,,,,,,,,,,,,,,,
,,"[""comma""]",0,[0.9000000000000341],26,0,26,0,1,5c4236103be7b70001fd01c5,29,Mężczyzna,2022-06-04_08h12.23.420,task,2021.1.4,Win32,40,628b806c463b948bc644b84f,629af6dd162e2b2a32cb5c0e,,,,,,,,,,,,,,,,,,,,,,,,,,,,,,,,,,,,,,,,,,,,,,,,,,,,,,,,,,,,,,,,,,,,,,,,,,,,,,,,,,,,,,,,,,,,,,,,,,,,,,,
,,"[""comma""]",0,[0.6759999999999877],27,0,27,0,1,5c4236103be7b70001fd01c5,29,Mężczyzna,2022-06-04_08h12.23.420,task,2021.1.4,Win32,40,628b806c463b948bc644b84f,629af6dd162e2b2a32cb5c0e,,,,,,,,,,,,,,,,,,,,,,,,,,,,,,,,,,,,,,,,,,,,,,,,,,,,,,,,,,,,,,,,,,,,,,,,,,,,,,,,,,,,,,,,,,,,,,,,,,,,,,,
,,"[""period""]",0,[0.5769999999999982],28,0,28,0,1,5c4236103be7b70001fd01c5,29,Mężczyzna,2022-06-04_08h12.23.420,task,2021.1.4,Win32,40,628b806c463b948bc644b84f,629af6dd162e2b2a32cb5c0e,,,,,,,,,,,,,,,,,,,,,,,,,,,,,,,,,,,,,,,,,,,,,,,,,,,,,,,,,,,,,,,,,,,,,,,,,,,,,,,,,,,,,,,,,,,,,,,,,,,,,,,
,,"[""period""]",0,[0.7569999999999482],29,0,29,0,1,5c4236103be7b70001fd01c5,29,Mężczyzna,2022-06-04_08h12.23.420,task,2021.1.4,Win32,40,628b806c463b948bc644b84f,629af6dd162e2b2a32cb5c0e,,,,,,,,,,,,,,,,,,,,,,,,,,,,,,,,,,,,,,,,,,,,,,,,,,,,,,,,,,,,,,,,,,,,,,,,,,,,,,,,,,,,,,,,,,,,,,,,,,,,,,,
,,"[""comma""]",0,[0.6070000000000277],30,0,30,0,1,5c4236103be7b70001fd01c5,29,Mężczyzna,2022-06-04_08h12.23.420,task,2021.1.4,Win32,40,628b806c463b948bc644b84f,629af6dd162e2b2a32cb5c0e,,,,,,,,,,,,,,,,,,,,,,,,,,,,,,,,,,,,,,,,,,,,,,,,,,,,,,,,,,,,,,,,,,,,,,,,,,,,,,,,,,,,,,,,,,,,,,,,,,,,,,,
,,"[""period""]",0,[0.3359999999999559],31,0,31,0,1,5c4236103be7b70001fd01c5,29,Mężczyzna,2022-06-04_08h12.23.420,task,2021.1.4,Win32,40,628b806c463b948bc644b84f,629af6dd162e2b2a32cb5c0e,,,,,,,,,,,,,,,,,,,,,,,,,,,,,,,,,,,,,,,,,,,,,,,,,,,,,,,,,,,,,,,,,,,,,,,,,,,,,,,,,,,,,,,,,,,,,,,,,,,,,,,
,,"[""period""]",0,[0.25099999999997635],32,0,32,0,1,5c4236103be7b70001fd01c5,29,Mężczyzna,2022-06-04_08h12.23.420,task,2021.1.4,Win32,40,628b806c463b948bc644b84f,629af6dd162e2b2a32cb5c0e,,,,,,,,,,,,,,,,,,,,,,,,,,,,,,,,,,,,,,,,,,,,,,,,,,,,,,,,,,,,,,,,,,,,,,,,,,,,,,,,,,,,,,,,,,,,,,,,,,,,,,,
,,"[""comma""]",0,[0.5020000000000095],33,0,33,0,1,5c4236103be7b70001fd01c5,29,Mężczyzna,2022-06-04_08h12.23.420,task,2021.1.4,Win32,40,628b806c463b948bc644b84f,629af6dd162e2b2a32cb5c0e,,,,,,,,,,,,,,,,,,,,,,,,,,,,,,,,,,,,,,,,,,,,,,,,,,,,,,,,,,,,,,,,,,,,,,,,,,,,,,,,,,,,,,,,,,,,,,,,,,,,,,,
,,"[""comma""]",0,[0.2580000000000382],34,0,34,0,1,5c4236103be7b70001fd01c5,29,Mężczyzna,2022-06-04_08h12.23.420,task,2021.1.4,Win32,40,628b806c463b948bc644b84f,629af6dd162e2b2a32cb5c0e,,,,,,,,,,,,,,,,,,,,,,,,,,,,,,,,,,,,,,,,,,,,,,,,,,,,,,,,,,,,,,,,,,,,,,,,,,,,,,,,,,,,,,,,,,,,,,,,,,,,,,,
,,"[""comma""]",0,[0.25799999999998136],35,0,35,0,1,5c4236103be7b70001fd01c5,29,Mężczyzna,2022-06-04_08h12.23.420,task,2021.1.4,Win32,40,628b806c463b948bc644b84f,629af6dd162e2b2a32cb5c0e,,,,,,,,,,,,,,,,,,,,,,,,,,,,,,,,,,,,,,,,,,,,,,,,,,,,,,,,,,,,,,,,,,,,,,,,,,,,,,,,,,,,,,,,,,,,,,,,,,,,,,,
,,"[""comma""]",0,[0.3280000000000314],36,0,36,0,1,5c4236103be7b70001fd01c5,29,Mężczyzna,2022-06-04_08h12.23.420,task,2021.1.4,Win32,40,628b806c463b948bc644b84f,629af6dd162e2b2a32cb5c0e,,,,,,,,,,,,,,,,,,,,,,,,,,,,,,,,,,,,,,,,,,,,,,,,,,,,,,,,,,,,,,,,,,,,,,,,,,,,,,,,,,,,,,,,,,,,,,,,,,,,,,,
,,"[""period""]",0,[0.2270000000000323],37,0,37,0,1,5c4236103be7b70001fd01c5,29,Mężczyzna,2022-06-04_08h12.23.420,task,2021.1.4,Win32,40,628b806c463b948bc644b84f,629af6dd162e2b2a32cb5c0e,,,,,,,,,,,,,,,,,,,,,,,,,,,,,,,,,,,,,,,,,,,,,,,,,,,,,,,,,,,,,,,,,,,,,,,,,,,,,,,,,,,,,,,,,,,,,,,,,,,,,,,
,,"[""period""]",0,[0.3790000000000191],38,0,38,0,1,5c4236103be7b70001fd01c5,29,Mężczyzna,2022-06-04_08h12.23.420,task,2021.1.4,Win32,40,628b806c463b948bc644b84f,629af6dd162e2b2a32cb5c0e,,,,,,,,,,,,,,,,,,,,,,,,,,,,,,,,,,,,,,,,,,,,,,,,,,,,,,,,,,,,,,,,,,,,,,,,,,,,,,,,,,,,,,,,,,,,,,,,,,,,,,,
,,"[""comma""]",0,[0.2769999999999868],39,0,39,0,1,5c4236103be7b70001fd01c5,29,Mężczyzna,2022-06-04_08h12.23.420,task,2021.1.4,Win32,40,628b806c463b948bc644b84f,629af6dd162e2b2a32cb5c0e,,,,,,,,,,,,,,,,,,,,,,,,,,,,,,,,,,,,,,,,,,,,,,,,,,,,,,,,,,,,,,,,,,,,,,,,,,,,,,,,,,,,,,,,,,,,,,,,,,,,,,,
,,"[""period""]",0,[0.228999999999985],40,0,40,0,1,5c4236103be7b70001fd01c5,29,Mężczyzna,2022-06-04_08h12.23.420,task,2021.1.4,Win32,40,628b806c463b948bc644b84f,629af6dd162e2b2a32cb5c0e,,,,,,,,,,,,,,,,,,,,,,,,,,,,,,,,,,,,,,,,,,,,,,,,,,,,,,,,,,,,,,,,,,,,,,,,,,,,,,,,,,,,,,,,,,,,,,,,,,,,,,,
,,"[""period""]",0,[0.2279999999999518],41,0,41,0,1,5c4236103be7b70001fd01c5,29,Mężczyzna,2022-06-04_08h12.23.420,task,2021.1.4,Win32,40,628b806c463b948bc644b84f,629af6dd162e2b2a32cb5c0e,,,,,,,,,,,,,,,,,,,,,,,,,,,,,,,,,,,,,,,,,,,,,,,,,,,,,,,,,,,,,,,,,,,,,,,,,,,,,,,,,,,,,,,,,,,,,,,,,,,,,,,
,,"[""period""]",0,[0.4269999999999641],42,0,42,0,1,5c4236103be7b70001fd01c5,29,Mężczyzna,2022-06-04_08h12.23.420,task,2021.1.4,Win32,40,628b806c463b948bc644b84f,629af6dd162e2b2a32cb5c0e,,,,,,,,,,,,,,,,,,,,,,,,,,,,,,,,,,,,,,,,,,,,,,,,,,,,,,,,,,,,,,,,,,,,,,,,,,,,,,,,,,,,,,,,,,,,,,,,,,,,,,,
,,"[""comma""]",0,[0.7259999999999991],43,0,43,0,1,5c4236103be7b70001fd01c5,29,Mężczyzna,2022-06-04_08h12.23.420,task,2021.1.4,Win32,40,628b806c463b948bc644b84f,629af6dd162e2b2a32cb5c0e,,,,,,,,,,,,,,,,,,,,,,,,,,,,,,,,,,,,,,,,,,,,,,,,,,,,,,,,,,,,,,,,,,,,,,,,,,,,,,,,,,,,,,,,,,,,,,,,,,,,,,,
,,"[""comma""]",0,[0.924000000000035],44,0,44,0,1,5c4236103be7b70001fd01c5,29,Mężczyzna,2022-06-04_08h12.23.420,task,2021.1.4,Win32,40,628b806c463b948bc644b84f,629af6dd162e2b2a32cb5c0e,,,,,,,,,,,,,,,,,,,,,,,,,,,,,,,,,,,,,,,,,,,,,,,,,,,,,,,,,,,,,,,,,,,,,,,,,,,,,,,,,,,,,,,,,,,,,,,,,,,,,,,
,,"[""comma""]",0,[0.6019999999999754],45,0,45,0,1,5c4236103be7b70001fd01c5,29,Mężczyzna,2022-06-04_08h12.23.420,task,2021.1.4,Win32,40,628b806c463b948bc644b84f,629af6dd162e2b2a32cb5c0e,,,,,,,,,,,,,,,,,,,,,,,,,,,,,,,,,,,,,,,,,,,,,,,,,,,,,,,,,,,,,,,,,,,,,,,,,,,,,,,,,,,,,,,,,,,,,,,,,,,,,,,
,,"[""comma"",""comma""]",0,"[0.6259999999999764,0.8240000000000123]",46,0,46,0,1,5c4236103be7b70001fd01c5,29,Mężczyzna,2022-06-04_08h12.23.420,task,2021.1.4,Win32,40,628b806c463b948bc644b84f,629af6dd162e2b2a32cb5c0e,,,,,,,,,,,,,,,,,,,,,,,,,,,,,,,,,,,,,,,,,,,,,,,,,,,,,,,,,,,,,,,,,,,,,,,,,,,,,,,,,,,,,,,,,,,,,,,,,,,,,,,
,,,0,,47,0,47,0,1,5c4236103be7b70001fd01c5,29,Mężczyzna,2022-06-04_08h12.23.420,task,2021.1.4,Win32,40,628b806c463b948bc644b84f,629af6dd162e2b2a32cb5c0e,,,,,,,,,,,,,,,,,,,,,,,,,,,,,,,,,,,,,,,,,,,,,,,,,,,,,,,,,,,,,,,,,,,,,,,,,,,,,,,,,,,,,,,,,,,,,,,,,,,,,,,
,,,0,,48,0,48,0,1,5c4236103be7b70001fd01c5,29,Mężczyzna,2022-06-04_08h12.23.420,task,2021.1.4,Win32,40,628b806c463b948bc644b84f,629af6dd162e2b2a32cb5c0e,,,,,,,,,,,,,,,,,,,,,,,,,,,,,,,,,,,,,,,,,,,,,,,,,,,,,,,,,,,,,,,,,,,,,,,,,,,,,,,,,,,,,,,,,,,,,,,,,,,,,,,
,,"[""period""]",0,[0.2769999999999868],49,0,49,0,1,5c4236103be7b70001fd01c5,29,Mężczyzna,2022-06-04_08h12.23.420,task,2021.1.4,Win32,40,628b806c463b948bc644b84f,629af6dd162e2b2a32cb5c0e,,,,,,,,,,,,,,,,,,,,,,,,,,,,,,,,,,,,,,,,,,,,,,,,,,,,,,,,,,,,,,,,,,,,,,,,,,,,,,,,,,,,,,,,,,,,,,,,,,,,,,,
,,"[""comma"",""period""]",0,"[0.4019999999999868,0.45599999999996044]",50,0,50,0,1,5c4236103be7b70001fd01c5,29,Mężczyzna,2022-06-04_08h12.23.420,task,2021.1.4,Win32,40,628b806c463b948bc644b84f,629af6dd162e2b2a32cb5c0e,,,,,,,,,,,,,,,,,,,,,,,,,,,,,,,,,,,,,,,,,,,,,,,,,,,,,,,,,,,,,,,,,,,,,,,,,,,,,,,,,,,,,,,,,,,,,,,,,,,,,,,
,,,0,,51,0,51,0,1,5c4236103be7b70001fd01c5,29,Mężczyzna,2022-06-04_08h12.23.420,task,2021.1.4,Win32,40,628b806c463b948bc644b84f,629af6dd162e2b2a32cb5c0e,,,,,,,,,,,,,,,,,,,,,,,,,,,,,,,,,,,,,,,,,,,,,,,,,,,,,,,,,,,,,,,,,,,,,,,,,,,,,,,,,,,,,,,,,,,,,,,,,,,,,,,
,,"[""period""]",0,[0.25099999999997635],52,0,52,0,1,5c4236103be7b70001fd01c5,29,Mężczyzna,2022-06-04_08h12.23.420,task,2021.1.4,Win32,40,628b806c463b948bc644b84f,629af6dd162e2b2a32cb5c0e,,,,,,,,,,,,,,,,,,,,,,,,,,,,,,,,,,,,,,,,,,,,,,,,,,,,,,,,,,,,,,,,,,,,,,,,,,,,,,,,,,,,,,,,,,,,,,,,,,,,,,,
,,"[""comma""]",0,[0.3779999999999859],53,0,53,0,1,5c4236103be7b70001fd01c5,29,Mężczyzna,2022-06-04_08h12.23.420,task,2021.1.4,Win32,40,628b806c463b948bc644b84f,629af6dd162e2b2a32cb5c0e,,,,,,,,,,,,,,,,,,,,,,,,,,,,,,,,,,,,,,,,,,,,,,,,,,,,,,,,,,,,,,,,,,,,,,,,,,,,,,,,,,,,,,,,,,,,,,,,,,,,,,,
,,"[""comma""]",0,[0.3039999999999736],54,0,54,0,1,5c4236103be7b70001fd01c5,29,Mężczyzna,2022-06-04_08h12.23.420,task,2021.1.4,Win32,40,628b806c463b948bc644b84f,629af6dd162e2b2a32cb5c0e,,,,,,,,,,,,,,,,,,,,,,,,,,,,,,,,,,,,,,,,,,,,,,,,,,,,,,,,,,,,,,,,,,,,,,,,,,,,,,,,,,,,,,,,,,,,,,,,,,,,,,,
,,"[""period""]",0,[0.27600000000001046],55,0,55,0,1,5c4236103be7b70001fd01c5,29,Mężczyzna,2022-06-04_08h12.23.420,task,2021.1.4,Win32,40,628b806c463b948bc644b84f,629af6dd162e2b2a32cb5c0e,,,,,,,,,,,,,,,,,,,,,,,,,,,,,,,,,,,,,,,,,,,,,,,,,,,,,,,,,,,,,,,,,,,,,,,,,,,,,,,,,,,,,,,,,,,,,,,,,,,,,,,
,,"[""comma""]",0,[0.027000000000043656],56,0,56,0,1,5c4236103be7b70001fd01c5,29,Mężczyzna,2022-06-04_08h12.23.420,task,2021.1.4,Win32,40,628b806c463b948bc644b84f,629af6dd162e2b2a32cb5c0e,,,,,,,,,,,,,,,,,,,,,,,,,,,,,,,,,,,,,,,,,,,,,,,,,,,,,,,,,,,,,,,,,,,,,,,,,,,,,,,,,,,,,,,,,,,,,,,,,,,,,,,
,,"[""comma""]",0,[0.5760000000000218],57,0,57,0,1,5c4236103be7b70001fd01c5,29,Mężczyzna,2022-06-04_08h12.23.420,task,2021.1.4,Win32,40,628b806c463b948bc644b84f,629af6dd162e2b2a32cb5c0e,,,,,,,,,,,,,,,,,,,,,,,,,,,,,,,,,,,,,,,,,,,,,,,,,,,,,,,,,,,,,,,,,,,,,,,,,,,,,,,,,,,,,,,,,,,,,,,,,,,,,,,
,,"[""period""]",0,[0.5260000000000105],58,0,58,0,1,5c4236103be7b70001fd01c5,29,Mężczyzna,2022-06-04_08h12.23.420,task,2021.1.4,Win32,40,628b806c463b948bc644b84f,629af6dd162e2b2a32cb5c0e,,,,,,,,,,,,,,,,,,,,,,,,,,,,,,,,,,,,,,,,,,,,,,,,,,,,,,,,,,,,,,,,,,,,,,,,,,,,,,,,,,,,,,,,,,,,,,,,,,,,,,,
,,"[""period""]",0,[0.45400000000000773],59,0,59,0,1,5c4236103be7b70001fd01c5,29,Mężczyzna,2022-06-04_08h12.23.420,task,2021.1.4,Win32,40,628b806c463b948bc644b84f,629af6dd162e2b2a32cb5c0e,,,,,,,,,,,,,,,,,,,,,,,,,,,,,,,,,,,,,,,,,,,,,,,,,,,,,,,,,,,,,,,,,,,,,,,,,,,,,,,,,,,,,,,,,,,,,,,,,,,,,,,
,,"[""comma""]",0,[0.6759999999999877],60,0,60,0,1,5c4236103be7b70001fd01c5,29,Mężczyzna,2022-06-04_08h12.23.420,task,2021.1.4,Win32,40,628b806c463b948bc644b84f,629af6dd162e2b2a32cb5c0e,,,,,,,,,,,,,,,,,,,,,,,,,,,,,,,,,,,,,,,,,,,,,,,,,,,,,,,,,,,,,,,,,,,,,,,,,,,,,,,,,,,,,,,,,,,,,,,,,,,,,,,
,,"[""comma""]",0,[0.35199999999997544],61,0,61,0,1,5c4236103be7b70001fd01c5,29,Mężczyzna,2022-06-04_08h12.23.420,task,2021.1.4,Win32,40,628b806c463b948bc644b84f,629af6dd162e2b2a32cb5c0e,,,,,,,,,,,,,,,,,,,,,,,,,,,,,,,,,,,,,,,,,,,,,,,,,,,,,,,,,,,,,,,,,,,,,,,,,,,,,,,,,,,,,,,,,,,,,,,,,,,,,,,
,,"[""comma""]",0,[0.35199999999997544],62,0,62,0,1,5c4236103be7b70001fd01c5,29,Mężczyzna,2022-06-04_08h12.23.420,task,2021.1.4,Win32,40,628b806c463b948bc644b84f,629af6dd162e2b2a32cb5c0e,,,,,,,,,,,,,,,,,,,,,,,,,,,,,,,,,,,,,,,,,,,,,,,,,,,,,,,,,,,,,,,,,,,,,,,,,,,,,,,,,,,,,,,,,,,,,,,,,,,,,,,
,,"[""comma""]",0,[0.6560000000000059],63,0,63,0,1,5c4236103be7b70001fd01c5,29,Mężczyzna,2022-06-04_08h12.23.420,task,2021.1.4,Win32,40,628b806c463b948bc644b84f,629af6dd162e2b2a32cb5c0e,,,,,,,,,,,,,,,,,,,,,,,,,,,,,,,,,,,,,,,,,,,,,,,,,,,,,,,,,,,,,,,,,,,,,,,,,,,,,,,,,,,,,,,,,,,,,,,,,,,,,,,
,,"[""comma""]",0,[0.6819999999999595],64,0,64,0,1,5c4236103be7b70001fd01c5,29,Mężczyzna,2022-06-04_08h12.23.420,task,2021.1.4,Win32,40,628b806c463b948bc644b84f,629af6dd162e2b2a32cb5c0e,,,,,,,,,,,,,,,,,,,,,,,,,,,,,,,,,,,,,,,,,,,,,,,,,,,,,,,,,,,,,,,,,,,,,,,,,,,,,,,,,,,,,,,,,,,,,,,,,,,,,,,
,,"[""period""]",0,[0.3009999999999877],65,0,65,0,1,5c4236103be7b70001fd01c5,29,Mężczyzna,2022-06-04_08h12.23.420,task,2021.1.4,Win32,40,628b806c463b948bc644b84f,629af6dd162e2b2a32cb5c0e,,,,,,,,,,,,,,,,,,,,,,,,,,,,,,,,,,,,,,,,,,,,,,,,,,,,,,,,,,,,,,,,,,,,,,,,,,,,,,,,,,,,,,,,,,,,,,,,,,,,,,,
,,"[""comma""]",0,[0.6020000000000323],66,0,66,0,1,5c4236103be7b70001fd01c5,29,Mężczyzna,2022-06-04_08h12.23.420,task,2021.1.4,Win32,40,628b806c463b948bc644b84f,629af6dd162e2b2a32cb5c0e,,,,,,,,,,,,,,,,,,,,,,,,,,,,,,,,,,,,,,,,,,,,,,,,,,,,,,,,,,,,,,,,,,,,,,,,,,,,,,,,,,,,,,,,,,,,,,,,,,,,,,,
,,"[""period""]",0,[0.4759999999999991],67,0,67,0,1,5c4236103be7b70001fd01c5,29,Mężczyzna,2022-06-04_08h12.23.420,task,2021.1.4,Win32,40,628b806c463b948bc644b84f,629af6dd162e2b2a32cb5c0e,,,,,,,,,,,,,,,,,,,,,,,,,,,,,,,,,,,,,,,,,,,,,,,,,,,,,,,,,,,,,,,,,,,,,,,,,,,,,,,,,,,,,,,,,,,,,,,,,,,,,,,
,,"[""period""]",0,[0.35499999999996135],68,0,68,0,1,5c4236103be7b70001fd01c5,29,Mężczyzna,2022-06-04_08h12.23.420,task,2021.1.4,Win32,40,628b806c463b948bc644b84f,629af6dd162e2b2a32cb5c0e,,,,,,,,,,,,,,,,,,,,,,,,,,,,,,,,,,,,,,,,,,,,,,,,,,,,,,,,,,,,,,,,,,,,,,,,,,,,,,,,,,,,,,,,,,,,,,,,,,,,,,,
,,"[""comma""]",0,[0.05200000000002092],69,0,69,0,1,5c4236103be7b70001fd01c5,29,Mężczyzna,2022-06-04_08h12.23.420,task,2021.1.4,Win32,40,628b806c463b948bc644b84f,629af6dd162e2b2a32cb5c0e,,,,,,,,,,,,,,,,,,,,,,,,,,,,,,,,,,,,,,,,,,,,,,,,,,,,,,,,,,,,,,,,,,,,,,,,,,,,,,,,,,,,,,,,,,,,,,,,,,,,,,,
,,"[""period""]",0,[0.2810000000000059],70,0,70,0,1,5c4236103be7b70001fd01c5,29,Mężczyzna,2022-06-04_08h12.23.420,task,2021.1.4,Win32,40,628b806c463b948bc644b84f,629af6dd162e2b2a32cb5c0e,,,,,,,,,,,,,,,,,,,,,,,,,,,,,,,,,,,,,,,,,,,,,,,,,,,,,,,,,,,,,,,,,,,,,,,,,,,,,,,,,,,,,,,,,,,,,,,,,,,,,,,
,,"[""period""]",0,[0.2529999999999859],71,0,71,0,1,5c4236103be7b70001fd01c5,29,Mężczyzna,2022-06-04_08h12.23.420,task,2021.1.4,Win32,40,628b806c463b948bc644b84f,629af6dd162e2b2a32cb5c0e,,,,,,,,,,,,,,,,,,,,,,,,,,,,,,,,,,,,,,,,,,,,,,,,,,,,,,,,,,,,,,,,,,,,,,,,,,,,,,,,,,,,,,,,,,,,,,,,,,,,,,,
,,"[""period""]",0,[0.3019999999999641],72,0,72,0,1,5c4236103be7b70001fd01c5,29,Mężczyzna,2022-06-04_08h12.23.420,task,2021.1.4,Win32,40,628b806c463b948bc644b84f,629af6dd162e2b2a32cb5c0e,,,,,,,,,,,,,,,,,,,,,,,,,,,,,,,,,,,,,,,,,,,,,,,,,,,,,,,,,,,,,,,,,,,,,,,,,,,,,,,,,,,,,,,,,,,,,,,,,,,,,,,
,,"[""comma""]",0,[0.8000000000000114],73,0,73,0,1,5c4236103be7b70001fd01c5,29,Mężczyzna,2022-06-04_08h12.23.420,task,2021.1.4,Win32,40,628b806c463b948bc644b84f,629af6dd162e2b2a32cb5c0e,,,,,,,,,,,,,,,,,,,,,,,,,,,,,,,,,,,,,,,,,,,,,,,,,,,,,,,,,,,,,,,,,,,,,,,,,,,,,,,,,,,,,,,,,,,,,,,,,,,,,,,
,,"[""comma""]",0,[0.9049999999999727],74,0,74,0,1,5c4236103be7b70001fd01c5,29,Mężczyzna,2022-06-04_08h12.23.420,task,2021.1.4,Win32,40,628b806c463b948bc644b84f,629af6dd162e2b2a32cb5c0e,,,,,,,,,,,,,,,,,,,,,,,,,,,,,,,,,,,,,,,,,,,,,,,,,,,,,,,,,,,,,,,,,,,,,,,,,,,,,,,,,,,,,,,,,,,,,,,,,,,,,,,
,,"[""period""]",0,[0.4009999999999536],75,0,75,0,1,5c4236103be7b70001fd01c5,29,Mężczyzna,2022-06-04_08h12.23.420,task,2021.1.4,Win32,40,628b806c463b948bc644b84f,629af6dd162e2b2a32cb5c0e,,,,,,,,,,,,,,,,,,,,,,,,,,,,,,,,,,,,,,,,,,,,,,,,,,,,,,,,,,,,,,,,,,,,,,,,,,,,,,,,,,,,,,,,,,,,,,,,,,,,,,,
,,"[""comma""]",0,[0.65300000000002],76,0,76,0,1,5c4236103be7b70001fd01c5,29,Mężczyzna,2022-06-04_08h12.23.420,task,2021.1.4,Win32,40,628b806c463b948bc644b84f,629af6dd162e2b2a32cb5c0e,,,,,,,,,,,,,,,,,,,,,,,,,,,,,,,,,,,,,,,,,,,,,,,,,,,,,,,,,,,,,,,,,,,,,,,,,,,,,,,,,,,,,,,,,,,,,,,,,,,,,,,
,,"[""comma""]",0,[0.6360000000000241],77,0,77,0,1,5c4236103be7b70001fd01c5,29,Mężczyzna,2022-06-04_08h12.23.420,task,2021.1.4,Win32,40,628b806c463b948bc644b84f,629af6dd162e2b2a32cb5c0e,,,,,,,,,,,,,,,,,,,,,,,,,,,,,,,,,,,,,,,,,,,,,,,,,,,,,,,,,,,,,,,,,,,,,,,,,,,,,,,,,,,,,,,,,,,,,,,,,,,,,,,
,,"[""comma""]",0,[0.5550000000000068],78,0,78,0,1,5c4236103be7b70001fd01c5,29,Mężczyzna,2022-06-04_08h12.23.420,task,2021.1.4,Win32,40,628b806c463b948bc644b84f,629af6dd162e2b2a32cb5c0e,,,,,,,,,,,,,,,,,,,,,,,,,,,,,,,,,,,,,,,,,,,,,,,,,,,,,,,,,,,,,,,,,,,,,,,,,,,,,,,,,,,,,,,,,,,,,,,,,,,,,,,
,,"[""period""]",0,[0.37700000000000955],79,0,79,0,1,5c4236103be7b70001fd01c5,29,Mężczyzna,2022-06-04_08h12.23.420,task,2021.1.4,Win32,40,628b806c463b948bc644b84f,629af6dd162e2b2a32cb5c0e,,,,,,,,,,,,,,,,,,,,,,,,,,,,,,,,,,,,,,,,,,,,,,,,,,,,,,,,,,,,,,,,,,,,,,,,,,,,,,,,,,,,,,,,,,,,,,,,,,,,,,,
,,"[""period""]",0,[0.2769999999999868],80,0,80,0,1,5c4236103be7b70001fd01c5,29,Mężczyzna,2022-06-04_08h12.23.420,task,2021.1.4,Win32,40,628b806c463b948bc644b84f,629af6dd162e2b2a32cb5c0e,,,,,,,,,,,,,,,,,,,,,,,,,,,,,,,,,,,,,,,,,,,,,,,,,,,,,,,,,,,,,,,,,,,,,,,,,,,,,,,,,,,,,,,,,,,,,,,,,,,,,,,
,,"[""comma""]",0,[0.25300000000004275],81,0,81,0,1,5c4236103be7b70001fd01c5,29,Mężczyzna,2022-06-04_08h12.23.420,task,2021.1.4,Win32,40,628b806c463b948bc644b84f,629af6dd162e2b2a32cb5c0e,,,,,,,,,,,,,,,,,,,,,,,,,,,,,,,,,,,,,,,,,,,,,,,,,,,,,,,,,,,,,,,,,,,,,,,,,,,,,,,,,,,,,,,,,,,,,,,,,,,,,,,
,,"[""comma""]",0,[0.3019999999999641],82,0,82,0,1,5c4236103be7b70001fd01c5,29,Mężczyzna,2022-06-04_08h12.23.420,task,2021.1.4,Win32,40,628b806c463b948bc644b84f,629af6dd162e2b2a32cb5c0e,,,,,,,,,,,,,,,,,,,,,,,,,,,,,,,,,,,,,,,,,,,,,,,,,,,,,,,,,,,,,,,,,,,,,,,,,,,,,,,,,,,,,,,,,,,,,,,,,,,,,,,
,,"[""period""]",0,[0.40100000000001046],83,0,83,0,1,5c4236103be7b70001fd01c5,29,Mężczyzna,2022-06-04_08h12.23.420,task,2021.1.4,Win32,40,628b806c463b948bc644b84f,629af6dd162e2b2a32cb5c0e,,,,,,,,,,,,,,,,,,,,,,,,,,,,,,,,,,,,,,,,,,,,,,,,,,,,,,,,,,,,,,,,,,,,,,,,,,,,,,,,,,,,,,,,,,,,,,,,,,,,,,,
,,"[""period""]",0,[0.3020000000000209],84,0,84,0,1,5c4236103be7b70001fd01c5,29,Mężczyzna,2022-06-04_08h12.23.420,task,2021.1.4,Win32,40,628b806c463b948bc644b84f,629af6dd162e2b2a32cb5c0e,,,,,,,,,,,,,,,,,,,,,,,,,,,,,,,,,,,,,,,,,,,,,,,,,,,,,,,,,,,,,,,,,,,,,,,,,,,,,,,,,,,,,,,,,,,,,,,,,,,,,,,
,,"[""comma""]",0,[0.35700000000002774],85,0,85,0,1,5c4236103be7b70001fd01c5,29,Mężczyzna,2022-06-04_08h12.23.420,task,2021.1.4,Win32,40,628b806c463b948bc644b84f,629af6dd162e2b2a32cb5c0e,,,,,,,,,,,,,,,,,,,,,,,,,,,,,,,,,,,,,,,,,,,,,,,,,,,,,,,,,,,,,,,,,,,,,,,,,,,,,,,,,,,,,,,,,,,,,,,,,,,,,,,
,,"[""comma""]",0,[0.3769999999999527],86,0,86,0,1,5c4236103be7b70001fd01c5,29,Mężczyzna,2022-06-04_08h12.23.420,task,2021.1.4,Win32,40,628b806c463b948bc644b84f,629af6dd162e2b2a32cb5c0e,,,,,,,,,,,,,,,,,,,,,,,,,,,,,,,,,,,,,,,,,,,,,,,,,,,,,,,,,,,,,,,,,,,,,,,,,,,,,,,,,,,,,,,,,,,,,,,,,,,,,,,
,,"[""period""]",0,[0.2259999999999991],87,0,87,0,1,5c4236103be7b70001fd01c5,29,Mężczyzna,2022-06-04_08h12.23.420,task,2021.1.4,Win32,40,628b806c463b948bc644b84f,629af6dd162e2b2a32cb5c0e,,,,,,,,,,,,,,,,,,,,,,,,,,,,,,,,,,,,,,,,,,,,,,,,,,,,,,,,,,,,,,,,,,,,,,,,,,,,,,,,,,,,,,,,,,,,,,,,,,,,,,,
,,"[""period""]",0,[0.33199999999999363],88,0,88,0,1,5c4236103be7b70001fd01c5,29,Mężczyzna,2022-06-04_08h12.23.420,task,2021.1.4,Win32,40,628b806c463b948bc644b84f,629af6dd162e2b2a32cb5c0e,,,,,,,,,,,,,,,,,,,,,,,,,,,,,,,,,,,,,,,,,,,,,,,,,,,,,,,,,,,,,,,,,,,,,,,,,,,,,,,,,,,,,,,,,,,,,,,,,,,,,,,
,,"[""period""]",0,[0.6270000000000095],89,0,89,0,1,5c4236103be7b70001fd01c5,29,Mężczyzna,2022-06-04_08h12.23.420,task,2021.1.4,Win32,40,628b806c463b948bc644b84f,629af6dd162e2b2a32cb5c0e,,,,,,,,,,,,,,,,,,,,,,,,,,,,,,,,,,,,,,,,,,,,,,,,,,,,,,,,,,,,,,,,,,,,,,,,,,,,,,,,,,,,,,,,,,,,,,,,,,,,,,,
,,"[""comma""]",0,[0.5760000000000218],90,0,90,0,1,5c4236103be7b70001fd01c5,29,Mężczyzna,2022-06-04_08h12.23.420,task,2021.1.4,Win32,40,628b806c463b948bc644b84f,629af6dd162e2b2a32cb5c0e,,,,,,,,,,,,,,,,,,,,,,,,,,,,,,,,,,,,,,,,,,,,,,,,,,,,,,,,,,,,,,,,,,,,,,,,,,,,,,,,,,,,,,,,,,,,,,,,,,,,,,,
,,"[""comma""]",0,[0.6299999999999955],91,0,91,0,1,5c4236103be7b70001fd01c5,29,Mężczyzna,2022-06-04_08h12.23.420,task,2021.1.4,Win32,40,628b806c463b948bc644b84f,629af6dd162e2b2a32cb5c0e,,,,,,,,,,,,,,,,,,,,,,,,,,,,,,,,,,,,,,,,,,,,,,,,,,,,,,,,,,,,,,,,,,,,,,,,,,,,,,,,,,,,,,,,,,,,,,,,,,,,,,,
,,"[""comma""]",0,[0.40100000000001046],92,0,92,0,1,5c4236103be7b70001fd01c5,29,Mężczyzna,2022-06-04_08h12.23.420,task,2021.1.4,Win32,40,628b806c463b948bc644b84f,629af6dd162e2b2a32cb5c0e,,,,,,,,,,,,,,,,,,,,,,,,,,,,,,,,,,,,,,,,,,,,,,,,,,,,,,,,,,,,,,,,,,,,,,,,,,,,,,,,,,,,,,,,,,,,,,,,,,,,,,,
,,"[""period""]",0,[0.5749999999999886],93,0,93,0,1,5c4236103be7b70001fd01c5,29,Mężczyzna,2022-06-04_08h12.23.420,task,2021.1.4,Win32,40,628b806c463b948bc644b84f,629af6dd162e2b2a32cb5c0e,,,,,,,,,,,,,,,,,,,,,,,,,,,,,,,,,,,,,,,,,,,,,,,,,,,,,,,,,,,,,,,,,,,,,,,,,,,,,,,,,,,,,,,,,,,,,,,,,,,,,,,
,,"[""period""]",0,[0.35400000000004184],94,0,94,0,1,5c4236103be7b70001fd01c5,29,Mężczyzna,2022-06-04_08h12.23.420,task,2021.1.4,Win32,40,628b806c463b948bc644b84f,629af6dd162e2b2a32cb5c0e,,,,,,,,,,,,,,,,,,,,,,,,,,,,,,,,,,,,,,,,,,,,,,,,,,,,,,,,,,,,,,,,,,,,,,,,,,,,,,,,,,,,,,,,,,,,,,,,,,,,,,,
,,"[""period""]",0,[0.7549999999999955],95,0,95,0,1,5c4236103be7b70001fd01c5,29,Mężczyzna,2022-06-04_08h12.23.420,task,2021.1.4,Win32,40,628b806c463b948bc644b84f,629af6dd162e2b2a32cb5c0e,,,,,,,,,,,,,,,,,,,,,,,,,,,,,,,,,,,,,,,,,,,,,,,,,,,,,,,,,,,,,,,,,,,,,,,,,,,,,,,,,,,,,,,,,,,,,,,,,,,,,,,
,,"[""comma""]",0,[0.6269999999999527],96,0,96,0,1,5c4236103be7b70001fd01c5,29,Mężczyzna,2022-06-04_08h12.23.420,task,2021.1.4,Win32,40,628b806c463b948bc644b84f,629af6dd162e2b2a32cb5c0e,,,,,,,,,,,,,,,,,,,,,,,,,,,,,,,,,,,,,,,,,,,,,,,,,,,,,,,,,,,,,,,,,,,,,,,,,,,,,,,,,,,,,,,,,,,,,,,,,,,,,,,
,,"[""comma""]",0,[0.5009999999999764],97,0,97,0,1,5c4236103be7b70001fd01c5,29,Mężczyzna,2022-06-04_08h12.23.420,task,2021.1.4,Win32,40,628b806c463b948bc644b84f,629af6dd162e2b2a32cb5c0e,,,,,,,,,,,,,,,,,,,,,,,,,,,,,,,,,,,,,,,,,,,,,,,,,,,,,,,,,,,,,,,,,,,,,,,,,,,,,,,,,,,,,,,,,,,,,,,,,,,,,,,
,,"[""period""]",0,[0.4019999999999868],98,0,98,0,1,5c4236103be7b70001fd01c5,29,Mężczyzna,2022-06-04_08h12.23.420,task,2021.1.4,Win32,40,628b806c463b948bc644b84f,629af6dd162e2b2a32cb5c0e,,,,,,,,,,,,,,,,,,,,,,,,,,,,,,,,,,,,,,,,,,,,,,,,,,,,,,,,,,,,,,,,,,,,,,,,,,,,,,,,,,,,,,,,,,,,,,,,,,,,,,,
,,"[""period""]",0,[0.35300000000000864],99,0,99,0,1,5c4236103be7b70001fd01c5,29,Mężczyzna,2022-06-04_08h12.23.420,task,2021.1.4,Win32,40,628b806c463b948bc644b84f,629af6dd162e2b2a32cb5c0e,,,,,,,,,,,,,,,,,,,,,,,,,,,,,,,,,,,,,,,,,,,,,,,,,,,,,,,,,,,,,,,,,,,,,,,,,,,,,,,,,,,,,,,,,,,,,,,,,,,,,,,
,,"[""period""]",0,[0.3019999999999641],100,0,100,0,1,5c4236103be7b70001fd01c5,29,Mężczyzna,2022-06-04_08h12.23.420,task,2021.1.4,Win32,40,628b806c463b948bc644b84f,629af6dd162e2b2a32cb5c0e,,,,,,,,,,,,,,,,,,,,,,,,,,,,,,,,,,,,,,,,,,,,,,,,,,,,,,,,,,,,,,,,,,,,,,,,,,,,,,,,,,,,,,,,,,,,,,,,,,,,,,,
,,"[""comma""]",0,[0.8260000000000218],101,0,101,0,1,5c4236103be7b70001fd01c5,29,Mężczyzna,2022-06-04_08h12.23.420,task,2021.1.4,Win32,40,628b806c463b948bc644b84f,629af6dd162e2b2a32cb5c0e,,,,,,,,,,,,,,,,,,,,,,,,,,,,,,,,,,,,,,,,,,,,,,,,,,,,,,,,,,,,,,,,,,,,,,,,,,,,,,,,,,,,,,,,,,,,,,,,,,,,,,,
,,"[""comma""]",0,[0.5900000000000318],102,0,102,0,1,5c4236103be7b70001fd01c5,29,Mężczyzna,2022-06-04_08h12.23.420,task,2021.1.4,Win32,40,628b806c463b948bc644b84f,629af6dd162e2b2a32cb5c0e,,,,,,,,,,,,,,,,,,,,,,,,,,,,,,,,,,,,,,,,,,,,,,,,,,,,,,,,,,,,,,,,,,,,,,,,,,,,,,,,,,,,,,,,,,,,,,,,,,,,,,,
,,"[""comma""]",0,[0.6029999999999518],103,0,103,0,1,5c4236103be7b70001fd01c5,29,Mężczyzna,2022-06-04_08h12.23.420,task,2021.1.4,Win32,40,628b806c463b948bc644b84f,629af6dd162e2b2a32cb5c0e,,,,,,,,,,,,,,,,,,,,,,,,,,,,,,,,,,,,,,,,,,,,,,,,,,,,,,,,,,,,,,,,,,,,,,,,,,,,,,,,,,,,,,,,,,,,,,,,,,,,,,,
,,"[""period""]",0,[0.9249999999999545],104,0,104,0,1,5c4236103be7b70001fd01c5,29,Mężczyzna,2022-06-04_08h12.23.420,task,2021.1.4,Win32,40,628b806c463b948bc644b84f,629af6dd162e2b2a32cb5c0e,,,,,,,,,,,,,,,,,,,,,,,,,,,,,,,,,,,,,,,,,,,,,,,,,,,,,,,,,,,,,,,,,,,,,,,,,,,,,,,,,,,,,,,,,,,,,,,,,,,,,,,
,,"[""comma""]",0,[0.7749999999999773],105,0,105,0,1,5c4236103be7b70001fd01c5,29,Mężczyzna,2022-06-04_08h12.23.420,task,2021.1.4,Win32,40,628b806c463b948bc644b84f,629af6dd162e2b2a32cb5c0e,,,,,,,,,,,,,,,,,,,,,,,,,,,,,,,,,,,,,,,,,,,,,,,,,,,,,,,,,,,,,,,,,,,,,,,,,,,,,,,,,,,,,,,,,,,,,,,,,,,,,,,
,,"[""comma""]",0,[0.6809999999999263],106,0,106,0,1,5c4236103be7b70001fd01c5,29,Mężczyzna,2022-06-04_08h12.23.420,task,2021.1.4,Win32,40,628b806c463b948bc644b84f,629af6dd162e2b2a32cb5c0e,,,,,,,,,,,,,,,,,,,,,,,,,,,,,,,,,,,,,,,,,,,,,,,,,,,,,,,,,,,,,,,,,,,,,,,,,,,,,,,,,,,,,,,,,,,,,,,,,,,,,,,
,,"[""period""]",0,[0.5349999999999682],107,0,107,0,1,5c4236103be7b70001fd01c5,29,Mężczyzna,2022-06-04_08h12.23.420,task,2021.1.4,Win32,40,628b806c463b948bc644b84f,629af6dd162e2b2a32cb5c0e,,,,,,,,,,,,,,,,,,,,,,,,,,,,,,,,,,,,,,,,,,,,,,,,,,,,,,,,,,,,,,,,,,,,,,,,,,,,,,,,,,,,,,,,,,,,,,,,,,,,,,,
,,"[""period""]",0,[0.6499999999999773],108,0,108,0,1,5c4236103be7b70001fd01c5,29,Mężczyzna,2022-06-04_08h12.23.420,task,2021.1.4,Win32,40,628b806c463b948bc644b84f,629af6dd162e2b2a32cb5c0e,,,,,,,,,,,,,,,,,,,,,,,,,,,,,,,,,,,,,,,,,,,,,,,,,,,,,,,,,,,,,,,,,,,,,,,,,,,,,,,,,,,,,,,,,,,,,,,,,,,,,,,
,,"[""comma""]",0,[0.7760000000000673],109,0,109,0,1,5c4236103be7b70001fd01c5,29,Mężczyzna,2022-06-04_08h12.23.420,task,2021.1.4,Win32,40,628b806c463b948bc644b84f,629af6dd162e2b2a32cb5c0e,,,,,,,,,,,,,,,,,,,,,,,,,,,,,,,,,,,,,,,,,,,,,,,,,,,,,,,,,,,,,,,,,,,,,,,,,,,,,,,,,,,,,,,,,,,,,,,,,,,,,,,
,,"[""comma""]",0,[0.4759999999999991],110,0,110,0,1,5c4236103be7b70001fd01c5,29,Mężczyzna,2022-06-04_08h12.23.420,task,2021.1.4,Win32,40,628b806c463b948bc644b84f,629af6dd162e2b2a32cb5c0e,,,,,,,,,,,,,,,,,,,,,,,,,,,,,,,,,,,,,,,,,,,,,,,,,,,,,,,,,,,,,,,,,,,,,,,,,,,,,,,,,,,,,,,,,,,,,,,,,,,,,,,
,,"[""period""]",0,[0.47699999999997544],111,0,111,0,1,5c4236103be7b70001fd01c5,29,Mężczyzna,2022-06-04_08h12.23.420,task,2021.1.4,Win32,40,628b806c463b948bc644b84f,629af6dd162e2b2a32cb5c0e,,,,,,,,,,,,,,,,,,,,,,,,,,,,,,,,,,,,,,,,,,,,,,,,,,,,,,,,,,,,,,,,,,,,,,,,,,,,,,,,,,,,,,,,,,,,,,,,,,,,,,,
,,"[""period""]",0,[0.4250000000000682],112,0,112,0,1,5c4236103be7b70001fd01c5,29,Mężczyzna,2022-06-04_08h12.23.420,task,2021.1.4,Win32,40,628b806c463b948bc644b84f,629af6dd162e2b2a32cb5c0e,,,,,,,,,,,,,,,,,,,,,,,,,,,,,,,,,,,,,,,,,,,,,,,,,,,,,,,,,,,,,,,,,,,,,,,,,,,,,,,,,,,,,,,,,,,,,,,,,,,,,,,
,,"[""period""]",0,[0.6009999999999991],113,0,113,0,1,5c4236103be7b70001fd01c5,29,Mężczyzna,2022-06-04_08h12.23.420,task,2021.1.4,Win32,40,628b806c463b948bc644b84f,629af6dd162e2b2a32cb5c0e,,,,,,,,,,,,,,,,,,,,,,,,,,,,,,,,,,,,,,,,,,,,,,,,,,,,,,,,,,,,,,,,,,,,,,,,,,,,,,,,,,,,,,,,,,,,,,,,,,,,,,,
,,"[""period""]",0,[0.5789999999999509],114,0,114,0,1,5c4236103be7b70001fd01c5,29,Mężczyzna,2022-06-04_08h12.23.420,task,2021.1.4,Win32,40,628b806c463b948bc644b84f,629af6dd162e2b2a32cb5c0e,,,,,,,,,,,,,,,,,,,,,,,,,,,,,,,,,,,,,,,,,,,,,,,,,,,,,,,,,,,,,,,,,,,,,,,,,,,,,,,,,,,,,,,,,,,,,,,,,,,,,,,
,,"[""comma""]",0,[0.6779999999999973],115,0,115,0,1,5c4236103be7b70001fd01c5,29,Mężczyzna,2022-06-04_08h12.23.420,task,2021.1.4,Win32,40,628b806c463b948bc644b84f,629af6dd162e2b2a32cb5c0e,,,,,,,,,,,,,,,,,,,,,,,,,,,,,,,,,,,,,,,,,,,,,,,,,,,,,,,,,,,,,,,,,,,,,,,,,,,,,,,,,,,,,,,,,,,,,,,,,,,,,,,
,,"[""period""]",0,[0.5800000000000409],116,0,116,0,1,5c4236103be7b70001fd01c5,29,Mężczyzna,2022-06-04_08h12.23.420,task,2021.1.4,Win32,40,628b806c463b948bc644b84f,629af6dd162e2b2a32cb5c0e,,,,,,,,,,,,,,,,,,,,,,,,,,,,,,,,,,,,,,,,,,,,,,,,,,,,,,,,,,,,,,,,,,,,,,,,,,,,,,,,,,,,,,,,,,,,,,,,,,,,,,,
,,"[""period""]",0,[0.3020000000000209],117,0,117,0,1,5c4236103be7b70001fd01c5,29,Mężczyzna,2022-06-04_08h12.23.420,task,2021.1.4,Win32,40,628b806c463b948bc644b84f,629af6dd162e2b2a32cb5c0e,,,,,,,,,,,,,,,,,,,,,,,,,,,,,,,,,,,,,,,,,,,,,,,,,,,,,,,,,,,,,,,,,,,,,,,,,,,,,,,,,,,,,,,,,,,,,,,,,,,,,,,
,,"[""period""]",0,[0.4010000000000673],118,0,118,0,1,5c4236103be7b70001fd01c5,29,Mężczyzna,2022-06-04_08h12.23.420,task,2021.1.4,Win32,40,628b806c463b948bc644b84f,629af6dd162e2b2a32cb5c0e,,,,,,,,,,,,,,,,,,,,,,,,,,,,,,,,,,,,,,,,,,,,,,,,,,,,,,,,,,,,,,,,,,,,,,,,,,,,,,,,,,,,,,,,,,,,,,,,,,,,,,,
,,"[""comma""]",0,[-0.023000000000024556],119,0,119,0,1,5c4236103be7b70001fd01c5,29,Mężczyzna,2022-06-04_08h12.23.420,task,2021.1.4,Win32,40,628b806c463b948bc644b84f,629af6dd162e2b2a32cb5c0e,,,,,,,,,,,,,,,,,,,,,,,,,,,,,,,,,,,,,,,,,,,,,,,,,,,,,,,,,,,,,,,,,,,,,,,,,,,,,,,,,,,,,,,,,,,,,,,,,,,,,,,
,,,,,,,,,,5c4236103be7b70001fd01c5,29,Mężczyzna,2022-06-04_08h12.23.420,task,2021.1.4,Win32,40,628b806c463b948bc644b84f,629af6dd162e2b2a32cb5c0e,space,156.084,space,9.475,0,0,0,0,1,X V Q F H G B L J M P D K C T S W R N Z,,,,,,,,,,,,,,,,,,,,,,,,,,,,,,,,,,,,,,,,,,,,,,,,,,,,,,,,,,,,,,,,,,,,,,,,,,,,,,,,,,,,,,,,,,,,,
,,,,,,,,,,5c4236103be7b70001fd01c5,29,Mężczyzna,2022-06-04_08h12.23.420,task,2021.1.4,Win32,40,628b806c463b948bc644b84f,629af6dd162e2b2a32cb5c0e,,,,,1,0,1,0,1,X V Q F H G B L J M P D K C T S W R N Z,,,,,,,,,,,,,,,,,,,,,,,,,,,,,,,,,,,,,,,,,,,,,,,,,,,,,,,,,,,,,,,,,,,,,,,,,,,,,,,,,,,,,,,,,,,,,
,,,,,,,,,,5c4236103be7b70001fd01c5,29,Mężczyzna,2022-06-04_08h12.23.420,task,2021.1.4,Win32,40,628b806c463b948bc644b84f,629af6dd162e2b2a32cb5c0e,,,,,,,,,,,zk,"[""z"",""k""]","[4.611999999999966,5.033999999999992,6.434999999999945]",1,ZK,0,0,0,0,1,,,,,,,,,,,,,,,,,,,,,,,,,,,,,,,,,,,,,,,,,,,,,,,,,,,,,,,,,,,,,,,,,,,,,,,,,,,,,,,,,,,
,,,,,,,,,,5c4236103be7b70001fd01c5,29,Mężczyzna,2022-06-04_08h12.23.420,task,2021.1.4,Win32,40,628b806c463b948bc644b84f,629af6dd162e2b2a32cb5c0e,,,,,0,0,0,0,1,X V Q F H G B L J M P D K C T S W R N Z,,,,,,,,,,,,,,,,,,,,,,,,,,,,,,,,,,,,,,,,,,,,,,,,,,,,,,,,,,,,,,,,,,,,,,,,,,,,,,,,,,,,,,,,,,,,,
,,,,,,,,,,5c4236103be7b70001fd01c5,29,Mężczyzna,2022-06-04_08h12.23.420,task,2021.1.4,Win32,40,628b806c463b948bc644b84f,629af6dd162e2b2a32cb5c0e,,,,,1,0,1,0,1,X V Q F H G B L J M P D K C T S W R N Z,,,,,,,,,,,,,,,,,,,,,,,,,,,,,,,,,,,,,,,,,,,,,,,,,,,,,,,,,,,,,,,,,,,,,,,,,,,,,,,,,,,,,,,,,,,,,
,,,,,,,,,,5c4236103be7b70001fd01c5,29,Mężczyzna,2022-06-04_08h12.23.420,task,2021.1.4,Win32,40,628b806c463b948bc644b84f,629af6dd162e2b2a32cb5c0e,,,,,,,,,,,rj,"[""r"",""j""]","[1.3250000000000455,1.4500000000000455,2.8590000000000373]",1,RJ,1,0,1,0,1,,,,,,,,,,,,,,,,,,,,,,,,,,,,,,,,,,,,,,,,,,,,,,,,,,,,,,,,,,,,,,,,,,,,,,,,,,,,,,,,,,,
,,,,,,,,,,5c4236103be7b70001fd01c5,29,Mężczyzna,2022-06-04_08h12.23.420,task,2021.1.4,Win32,40,628b806c463b948bc644b84f,629af6dd162e2b2a32cb5c0e,,,,,0,0,0,0,1,X V Q F H G B L J M P D K C T S W R N Z,,,,,,,,,,,,,,,,,,,,,,,,,,,,,,,,,,,,,,,,,,,,,,,,,,,,,,,,,,,,,,,,,,,,,,,,,,,,,,,,,,,,,,,,,,,,,
,,,,,,,,,,5c4236103be7b70001fd01c5,29,Mężczyzna,2022-06-04_08h12.23.420,task,2021.1.4,Win32,40,628b806c463b948bc644b84f,629af6dd162e2b2a32cb5c0e,,,,,1,0,1,0,1,X V Q F H G B L J M P D K C T S W R N Z,,,,,,,,,,,,,,,,,,,,,,,,,,,,,,,,,,,,,,,,,,,,,,,,,,,,,,,,,,,,,,,,,,,,,,,,,,,,,,,,,,,,,,,,,,,,,
,,,,,,,,,,5c4236103be7b70001fd01c5,29,Mężczyzna,2022-06-04_08h12.23.420,task,2021.1.4,Win32,40,628b806c463b948bc644b84f,629af6dd162e2b2a32cb5c0e,,,,,2,0,2,0,1,X V Q F H G B L J M P D K C T S W R N Z,,,,,,,,,,,,,,,,,,,,,,,,,,,,,,,,,,,,,,,,,,,,,,,,,,,,,,,,,,,,,,,,,,,,,,,,,,,,,,,,,,,,,,,,,,,,,
,,,,,,,,,,5c4236103be7b70001fd01c5,29,Mężczyzna,2022-06-04_08h12.23.420,task,2021.1.4,Win32,40,628b806c463b948bc644b84f,629af6dd162e2b2a32cb5c0e,,,,,,,,,,,clp,"[""c"",""l"",""p""]","[1.1760000000000446,1.302000000000021,1.5510000000000446,1.9260000000000446]",1,CLP,2,0,2,0,1,,,,,,,,,,,,,,,,,,,,,,,,,,,,,,,,,,,,,,,,,,,,,,,,,,,,,,,,,,,,,,,,,,,,,,,,,,,,,,,,,,,
,,,,,,,,,,5c4236103be7b70001fd01c5,29,Mężczyzna,2022-06-04_08h12.23.420,task,2021.1.4,Win32,40,628b806c463b948bc644b84f,629af6dd162e2b2a32cb5c0e,,,,,0,0,0,0,1,X V Q F H G B L J M P D K C T S W R N Z,,,,,,,,,,,,,,,,,,,,,,,,,,,,,,,,,,,,,,,,,,,,,,,,,,,,,,,,,,,,,,,,,,,,,,,,,,,,,,,,,,,,,,,,,,,,,
,,,,,,,,,,5c4236103be7b70001fd01c5,29,Mężczyzna,2022-06-04_08h12.23.420,task,2021.1.4,Win32,40,628b806c463b948bc644b84f,629af6dd162e2b2a32cb5c0e,,,,,1,0,1,0,1,X V Q F H G B L J M P D K C T S W R N Z,,,,,,,,,,,,,,,,,,,,,,,,,,,,,,,,,,,,,,,,,,,,,,,,,,,,,,,,,,,,,,,,,,,,,,,,,,,,,,,,,,,,,,,,,,,,,
,,,,,,,,,,5c4236103be7b70001fd01c5,29,Mężczyzna,2022-06-04_08h12.23.420,task,2021.1.4,Win32,40,628b806c463b948bc644b84f,629af6dd162e2b2a32cb5c0e,,,,,2,0,2,0,1,X V Q F H G B L J M P D K C T S W R N Z,,,,,,,,,,,,,,,,,,,,,,,,,,,,,,,,,,,,,,,,,,,,,,,,,,,,,,,,,,,,,,,,,,,,,,,,,,,,,,,,,,,,,,,,,,,,,
,,,,,,,,,,5c4236103be7b70001fd01c5,29,Mężczyzna,2022-06-04_08h12.23.420,task,2021.1.4,Win32,40,628b806c463b948bc644b84f,629af6dd162e2b2a32cb5c0e,,,,,,,,,,,gkx,"[""g"",""k"",""x""]","[1.3249999999999318,1.8299999999999272,2.2759999999999536,2.631999999999948]",1,GKX,3,0,3,0,1,,,,,,,,,,,,,,,,,,,,,,,,,,,,,,,,,,,,,,,,,,,,,,,,,,,,,,,,,,,,,,,,,,,,,,,,,,,,,,,,,,,
,,,,,,,,,,5c4236103be7b70001fd01c5,29,Mężczyzna,2022-06-04_08h12.23.420,task,2021.1.4,Win32,40,628b806c463b948bc644b84f,629af6dd162e2b2a32cb5c0e,,,,,0,0,0,0,1,X V Q F H G B L J M P D K C T S W R N Z,,,,,,,,,,,,,,,,,,,,,,,,,,,,,,,,,,,,,,,,,,,,,,,,,,,,,,,,,,,,,,,,,,,,,,,,,,,,,,,,,,,,,,,,,,,,,
,,,,,,,,,,5c4236103be7b70001fd01c5,29,Mężczyzna,2022-06-04_08h12.23.420,task,2021.1.4,Win32,40,628b806c463b948bc644b84f,629af6dd162e2b2a32cb5c0e,,,,,1,0,1,0,1,X V Q F H G B L J M P D K C T S W R N Z,,,,,,,,,,,,,,,,,,,,,,,,,,,,,,,,,,,,,,,,,,,,,,,,,,,,,,,,,,,,,,,,,,,,,,,,,,,,,,,,,,,,,,,,,,,,,
,,,,,,,,,,5c4236103be7b70001fd01c5,29,Mężczyzna,2022-06-04_08h12.23.420,task,2021.1.4,Win32,40,628b806c463b948bc644b84f,629af6dd162e2b2a32cb5c0e,,,,,2,0,2,0,1,X V Q F H G B L J M P D K C T S W R N Z,,,,,,,,,,,,,,,,,,,,,,,,,,,,,,,,,,,,,,,,,,,,,,,,,,,,,,,,,,,,,,,,,,,,,,,,,,,,,,,,,,,,,,,,,,,,,
,,,,,,,,,,5c4236103be7b70001fd01c5,29,Mężczyzna,2022-06-04_08h12.23.420,task,2021.1.4,Win32,40,628b806c463b948bc644b84f,629af6dd162e2b2a32cb5c0e,,,,,3,0,3,0,1,X V Q F H G B L J M P D K C T S W R N Z,,,,,,,,,,,,,,,,,,,,,,,,,,,,,,,,,,,,,,,,,,,,,,,,,,,,,,,,,,,,,,,,,,,,,,,,,,,,,,,,,,,,,,,,,,,,,
,,,,,,,,,,5c4236103be7b70001fd01c5,29,Mężczyzna,2022-06-04_08h12.23.420,task,2021.1.4,Win32,40,628b806c463b948bc644b84f,629af6dd162e2b2a32cb5c0e,,,,,,,,,,,ppfm,"[""p"",""p"",""f"",""m""]","[0.7799999999999727,0.9510000000000218,1.225999999999999,1.3479999999999563,1.5230000000000246]",1,PPFM,4,0,4,0,1,,,,,,,,,,,,,,,,,,,,,,,,,,,,,,,,,,,,,,,,,,,,,,,,,,,,,,,,,,,,,,,,,,,,,,,,,,,,,,,,,,,
,,,,,,,,,,5c4236103be7b70001fd01c5,29,Mężczyzna,2022-06-04_08h12.23.420,task,2021.1.4,Win32,40,628b806c463b948bc644b84f,629af6dd162e2b2a32cb5c0e,,,,,0,0,0,0,1,X V Q F H G B L J M P D K C T S W R N Z,,,,,,,,,,,,,,,,,,,,,,,,,,,,,,,,,,,,,,,,,,,,,,,,,,,,,,,,,,,,,,,,,,,,,,,,,,,,,,,,,,,,,,,,,,,,,
,,,,,,,,,,5c4236103be7b70001fd01c5,29,Mężczyzna,2022-06-04_08h12.23.420,task,2021.1.4,Win32,40,628b806c463b948bc644b84f,629af6dd162e2b2a32cb5c0e,,,,,1,0,1,0,1,X V Q F H G B L J M P D K C T S W R N Z,,,,,,,,,,,,,,,,,,,,,,,,,,,,,,,,,,,,,,,,,,,,,,,,,,,,,,,,,,,,,,,,,,,,,,,,,,,,,,,,,,,,,,,,,,,,,
,,,,,,,,,,5c4236103be7b70001fd01c5,29,Mężczyzna,2022-06-04_08h12.23.420,task,2021.1.4,Win32,40,628b806c463b948bc644b84f,629af6dd162e2b2a32cb5c0e,,,,,2,0,2,0,1,X V Q F H G B L J M P D K C T S W R N Z,,,,,,,,,,,,,,,,,,,,,,,,,,,,,,,,,,,,,,,,,,,,,,,,,,,,,,,,,,,,,,,,,,,,,,,,,,,,,,,,,,,,,,,,,,,,,
,,,,,,,,,,5c4236103be7b70001fd01c5,29,Mężczyzna,2022-06-04_08h12.23.420,task,2021.1.4,Win32,40,628b806c463b948bc644b84f,629af6dd162e2b2a32cb5c0e,,,,,3,0,3,0,1,X V Q F H G B L J M P D K C T S W R N Z,,,,,,,,,,,,,,,,,,,,,,,,,,,,,,,,,,,,,,,,,,,,,,,,,,,,,,,,,,,,,,,,,,,,,,,,,,,,,,,,,,,,,,,,,,,,,
,,,,,,,,,,5c4236103be7b70001fd01c5,29,Mężczyzna,2022-06-04_08h12.23.420,task,2021.1.4,Win32,40,628b806c463b948bc644b84f,629af6dd162e2b2a32cb5c0e,,,,,,,,,,,pxln,"[""p"",""x"",""l"",""n""]","[0.9499999999999318,1.27699999999993,1.504000000000019,1.7350000000000136,1.9039999999999964]",1,PXLN,5,0,5,0,1,,,,,,,,,,,,,,,,,,,,,,,,,,,,,,,,,,,,,,,,,,,,,,,,,,,,,,,,,,,,,,,,,,,,,,,,,,,,,,,,,,,
,,,,,,,,,,5c4236103be7b70001fd01c5,29,Mężczyzna,2022-06-04_08h12.23.420,task,2021.1.4,Win32,40,628b806c463b948bc644b84f,629af6dd162e2b2a32cb5c0e,,,,,0,0,0,0,1,X V Q F H G B L J M P D K C T S W R N Z,,,,,,,,,,,,,,,,,,,,,,,,,,,,,,,,,,,,,,,,,,,,,,,,,,,,,,,,,,,,,,,,,,,,,,,,,,,,,,,,,,,,,,,,,,,,,
,,,,,,,,,,5c4236103be7b70001fd01c5,29,Mężczyzna,2022-06-04_08h12.23.420,task,2021.1.4,Win32,40,628b806c463b948bc644b84f,629af6dd162e2b2a32cb5c0e,,,,,1,0,1,0,1,X V Q F H G B L J M P D K C T S W R N Z,,,,,,,,,,,,,,,,,,,,,,,,,,,,,,,,,,,,,,,,,,,,,,,,,,,,,,,,,,,,,,,,,,,,,,,,,,,,,,,,,,,,,,,,,,,,,
,,,,,,,,,,5c4236103be7b70001fd01c5,29,Mężczyzna,2022-06-04_08h12.23.420,task,2021.1.4,Win32,40,628b806c463b948bc644b84f,629af6dd162e2b2a32cb5c0e,,,,,2,0,2,0,1,X V Q F H G B L J M P D K C T S W R N Z,,,,,,,,,,,,,,,,,,,,,,,,,,,,,,,,,,,,,,,,,,,,,,,,,,,,,,,,,,,,,,,,,,,,,,,,,,,,,,,,,,,,,,,,,,,,,
,,,,,,,,,,5c4236103be7b70001fd01c5,29,Mężczyzna,2022-06-04_08h12.23.420,task,2021.1.4,Win32,40,628b806c463b948bc644b84f,629af6dd162e2b2a32cb5c0e,,,,,3,0,3,0,1,X V Q F H G B L J M P D K C T S W R N Z,,,,,,,,,,,,,,,,,,,,,,,,,,,,,,,,,,,,,,,,,,,,,,,,,,,,,,,,,,,,,,,,,,,,,,,,,,,,,,,,,,,,,,,,,,,,,
,,,,,,,,,,5c4236103be7b70001fd01c5,29,Mężczyzna,2022-06-04_08h12.23.420,task,2021.1.4,Win32,40,628b806c463b948bc644b84f,629af6dd162e2b2a32cb5c0e,,,,,4,0,4,0,1,X V Q F H G B L J M P D K C T S W R N Z,,,,,,,,,,,,,,,,,,,,,,,,,,,,,,,,,,,,,,,,,,,,,,,,,,,,,,,,,,,,,,,,,,,,,,,,,,,,,,,,,,,,,,,,,,,,,
,,,,,,,,,,5c4236103be7b70001fd01c5,29,Mężczyzna,2022-06-04_08h12.23.420,task,2021.1.4,Win32,40,628b806c463b948bc644b84f,629af6dd162e2b2a32cb5c0e,,,,,,,,,,,krjlr,"[""k"",""r"",""j"",""l"",""r""]","[0.7019999999999982,0.9509999999999081,1.475999999999999,2.625,3.0009999999999764,3.625]",0,KRLJR,6,0,6,0,1,,,,,,,,,,,,,,,,,,,,,,,,,,,,,,,,,,,,,,,,,,,,,,,,,,,,,,,,,,,,,,,,,,,,,,,,,,,,,,,,,,,
,,,,,,,,,,5c4236103be7b70001fd01c5,29,Mężczyzna,2022-06-04_08h12.23.420,task,2021.1.4,Win32,40,628b806c463b948bc644b84f,629af6dd162e2b2a32cb5c0e,,,,,0,0,0,0,1,X V Q F H G B L J M P D K C T S W R N Z,,,,,,,,,,,,,,,,,,,,,,,,,,,,,,,,,,,,,,,,,,,,,,,,,,,,,,,,,,,,,,,,,,,,,,,,,,,,,,,,,,,,,,,,,,,,,
,,,,,,,,,,5c4236103be7b70001fd01c5,29,Mężczyzna,2022-06-04_08h12.23.420,task,2021.1.4,Win32,40,628b806c463b948bc644b84f,629af6dd162e2b2a32cb5c0e,,,,,1,0,1,0,1,X V Q F H G B L J M P D K C T S W R N Z,,,,,,,,,,,,,,,,,,,,,,,,,,,,,,,,,,,,,,,,,,,,,,,,,,,,,,,,,,,,,,,,,,,,,,,,,,,,,,,,,,,,,,,,,,,,,
,,,,,,,,,,5c4236103be7b70001fd01c5,29,Mężczyzna,2022-06-04_08h12.23.420,task,2021.1.4,Win32,40,628b806c463b948bc644b84f,629af6dd162e2b2a32cb5c0e,,,,,2,0,2,0,1,X V Q F H G B L J M P D K C T S W R N Z,,,,,,,,,,,,,,,,,,,,,,,,,,,,,,,,,,,,,,,,,,,,,,,,,,,,,,,,,,,,,,,,,,,,,,,,,,,,,,,,,,,,,,,,,,,,,
,,,,,,,,,,5c4236103be7b70001fd01c5,29,Mężczyzna,2022-06-04_08h12.23.420,task,2021.1.4,Win32,40,628b806c463b948bc644b84f,629af6dd162e2b2a32cb5c0e,,,,,3,0,3,0,1,X V Q F H G B L J M P D K C T S W R N Z,,,,,,,,,,,,,,,,,,,,,,,,,,,,,,,,,,,,,,,,,,,,,,,,,,,,,,,,,,,,,,,,,,,,,,,,,,,,,,,,,,,,,,,,,,,,,
,,,,,,,,,,5c4236103be7b70001fd01c5,29,Mężczyzna,2022-06-04_08h12.23.420,task,2021.1.4,Win32,40,628b806c463b948bc644b84f,629af6dd162e2b2a32cb5c0e,,,,,4,0,4,0,1,X V Q F H G B L J M P D K C T S W R N Z,,,,,,,,,,,,,,,,,,,,,,,,,,,,,,,,,,,,,,,,,,,,,,,,,,,,,,,,,,,,,,,,,,,,,,,,,,,,,,,,,,,,,,,,,,,,,
,,,,,,,,,,5c4236103be7b70001fd01c5,29,Mężczyzna,2022-06-04_08h12.23.420,task,2021.1.4,Win32,40,628b806c463b948bc644b84f,629af6dd162e2b2a32cb5c0e,,,,,,,,,,,sjrkp,"[""s"",""j"",""r"",""k"",""p""]","[1.1750000000000682,1.302000000000021,1.5,1.6790000000000873,1.9010000000000673,2.275000000000091]",1,SJRKP,7,0,7,0,1,,,,,,,,,,,,,,,,,,,,,,,,,,,,,,,,,,,,,,,,,,,,,,,,,,,,,,,,,,,,,,,,,,,,,,,,,,,,,,,,,,,
,,,,,,,,,,5c4236103be7b70001fd01c5,29,Mężczyzna,2022-06-04_08h12.23.420,task,2021.1.4,Win32,40,628b806c463b948bc644b84f,629af6dd162e2b2a32cb5c0e,,,,,0,0,0,0,1,X V Q F H G B L J M P D K C T S W R N Z,,,,,,,,,,,,,,,,,,,,,,,,,,,,,,,,,,,,,,,,,,,,,,,,,,,,,,,,,,,,,,,,,,,,,,,,,,,,,,,,,,,,,,,,,,,,,
,,,,,,,,,,5c4236103be7b70001fd01c5,29,Mężczyzna,2022-06-04_08h12.23.420,task,2021.1.4,Win32,40,628b806c463b948bc644b84f,629af6dd162e2b2a32cb5c0e,,,,,1,0,1,0,1,X V Q F H G B L J M P D K C T S W R N Z,,,,,,,,,,,,,,,,,,,,,,,,,,,,,,,,,,,,,,,,,,,,,,,,,,,,,,,,,,,,,,,,,,,,,,,,,,,,,,,,,,,,,,,,,,,,,
,,,,,,,,,,5c4236103be7b70001fd01c5,29,Mężczyzna,2022-06-04_08h12.23.420,task,2021.1.4,Win32,40,628b806c463b948bc644b84f,629af6dd162e2b2a32cb5c0e,,,,,2,0,2,0,1,X V Q F H G B L J M P D K C T S W R N Z,,,,,,,,,,,,,,,,,,,,,,,,,,,,,,,,,,,,,,,,,,,,,,,,,,,,,,,,,,,,,,,,,,,,,,,,,,,,,,,,,,,,,,,,,,,,,
,,,,,,,,,,5c4236103be7b70001fd01c5,29,Mężczyzna,2022-06-04_08h12.23.420,task,2021.1.4,Win32,40,628b806c463b948bc644b84f,629af6dd162e2b2a32cb5c0e,,,,,3,0,3,0,1,X V Q F H G B L J M P D K C T S W R N Z,,,,,,,,,,,,,,,,,,,,,,,,,,,,,,,,,,,,,,,,,,,,,,,,,,,,,,,,,,,,,,,,,,,,,,,,,,,,,,,,,,,,,,,,,,,,,
,,,,,,,,,,5c4236103be7b70001fd01c5,29,Mężczyzna,2022-06-04_08h12.23.420,task,2021.1.4,Win32,40,628b806c463b948bc644b84f,629af6dd162e2b2a32cb5c0e,,,,,4,0,4,0,1,X V Q F H G B L J M P D K C T S W R N Z,,,,,,,,,,,,,,,,,,,,,,,,,,,,,,,,,,,,,,,,,,,,,,,,,,,,,,,,,,,,,,,,,,,,,,,,,,,,,,,,,,,,,,,,,,,,,
,,,,,,,,,,5c4236103be7b70001fd01c5,29,Mężczyzna,2022-06-04_08h12.23.420,task,2021.1.4,Win32,40,628b806c463b948bc644b84f,629af6dd162e2b2a32cb5c0e,,,,,,,,,,,bmnxw,"[""b"",""m"",""n"",""x"",""w""]","[0.7760000000000673,1.0009999999999764,1.177000000000021,1.9510000000000218,2.024000000000001,2.177000000000021]",1,BMNXW,8,0,8,0,1,,,,,,,,,,,,,,,,,,,,,,,,,,,,,,,,,,,,,,,,,,,,,,,,,,,,,,,,,,,,,,,,,,,,,,,,,,,,,,,,,,,
,,,,,,,,,,5c4236103be7b70001fd01c5,29,Mężczyzna,2022-06-04_08h12.23.420,task,2021.1.4,Win32,40,628b806c463b948bc644b84f,629af6dd162e2b2a32cb5c0e,,,,,0,0,0,0,1,X V Q F H G B L J M P D K C T S W R N Z,,,,,,,,,,,,,,,,,,,,,,,,,,,,,,,,,,,,,,,,,,,,,,,,,,,,,,,,,,,,,,,,,,,,,,,,,,,,,,,,,,,,,,,,,,,,,
,,,,,,,,,,5c4236103be7b70001fd01c5,29,Mężczyzna,2022-06-04_08h12.23.420,task,2021.1.4,Win32,40,628b806c463b948bc644b84f,629af6dd162e2b2a32cb5c0e,,,,,1,0,1,0,1,X V Q F H G B L J M P D K C T S W R N Z,,,,,,,,,,,,,,,,,,,,,,,,,,,,,,,,,,,,,,,,,,,,,,,,,,,,,,,,,,,,,,,,,,,,,,,,,,,,,,,,,,,,,,,,,,,,,
,,,,,,,,,,5c4236103be7b70001fd01c5,29,Mężczyzna,2022-06-04_08h12.23.420,task,2021.1.4,Win32,40,628b806c463b948bc644b84f,629af6dd162e2b2a32cb5c0e,,,,,2,0,2,0,1,X V Q F H G B L J M P D K C T S W R N Z,,,,,,,,,,,,,,,,,,,,,,,,,,,,,,,,,,,,,,,,,,,,,,,,,,,,,,,,,,,,,,,,,,,,,,,,,,,,,,,,,,,,,,,,,,,,,
,,,,,,,,,,5c4236103be7b70001fd01c5,29,Mężczyzna,2022-06-04_08h12.23.420,task,2021.1.4,Win32,40,628b806c463b948bc644b84f,629af6dd162e2b2a32cb5c0e,,,,,3,0,3,0,1,X V Q F H G B L J M P D K C T S W R N Z,,,,,,,,,,,,,,,,,,,,,,,,,,,,,,,,,,,,,,,,,,,,,,,,,,,,,,,,,,,,,,,,,,,,,,,,,,,,,,,,,,,,,,,,,,,,,
,,,,,,,,,,5c4236103be7b70001fd01c5,29,Mężczyzna,2022-06-04_08h12.23.420,task,2021.1.4,Win32,40,628b806c463b948bc644b84f,629af6dd162e2b2a32cb5c0e,,,,,4,0,4,0,1,X V Q F H G B L J M P D K C T S W R N Z,,,,,,,,,,,,,,,,,,,,,,,,,,,,,,,,,,,,,,,,,,,,,,,,,,,,,,,,,,,,,,,,,,,,,,,,,,,,,,,,,,,,,,,,,,,,,
,,,,,,,,,,5c4236103be7b70001fd01c5,29,Mężczyzna,2022-06-04_08h12.23.420,task,2021.1.4,Win32,40,628b806c463b948bc644b84f,629af6dd162e2b2a32cb5c0e,,,,,5,0,5,0,1,X V Q F H G B L J M P D K C T S W R N Z,,,,,,,,,,,,,,,,,,,,,,,,,,,,,,,,,,,,,,,,,,,,,,,,,,,,,,,,,,,,,,,,,,,,,,,,,,,,,,,,,,,,,,,,,,,,,
,,,,,,,,,,5c4236103be7b70001fd01c5,29,Mężczyzna,2022-06-04_08h12.23.420,task,2021.1.4,Win32,40,628b806c463b948bc644b84f,629af6dd162e2b2a32cb5c0e,,,,,,,,,,,jvvfgk,"[""j"",""v"",""v"",""f"",""g"",""k""]","[1.5009999999999764,1.850999999999999,2,2.3789999999999054,3.9039999999999964,4.426999999999907,5.8559999999999945]",1,JVVFGK,9,0,9,0,1,,,,,,,,,,,,,,,,,,,,,,,,,,,,,,,,,,,,,,,,,,,,,,,,,,,,,,,,,,,,,,,,,,,,,,,,,,,,,,,,,,,
,,,,,,,,,,5c4236103be7b70001fd01c5,29,Mężczyzna,2022-06-04_08h12.23.420,task,2021.1.4,Win32,40,628b806c463b948bc644b84f,629af6dd162e2b2a32cb5c0e,,,,,0,0,0,0,1,X V Q F H G B L J M P D K C T S W R N Z,,,,,,,,,,,,,,,,,,,,,,,,,,,,,,,,,,,,,,,,,,,,,,,,,,,,,,,,,,,,,,,,,,,,,,,,,,,,,,,,,,,,,,,,,,,,,
,,,,,,,,,,5c4236103be7b70001fd01c5,29,Mężczyzna,2022-06-04_08h12.23.420,task,2021.1.4,Win32,40,628b806c463b948bc644b84f,629af6dd162e2b2a32cb5c0e,,,,,1,0,1,0,1,X V Q F H G B L J M P D K C T S W R N Z,,,,,,,,,,,,,,,,,,,,,,,,,,,,,,,,,,,,,,,,,,,,,,,,,,,,,,,,,,,,,,,,,,,,,,,,,,,,,,,,,,,,,,,,,,,,,
,,,,,,,,,,5c4236103be7b70001fd01c5,29,Mężczyzna,2022-06-04_08h12.23.420,task,2021.1.4,Win32,40,628b806c463b948bc644b84f,629af6dd162e2b2a32cb5c0e,,,,,2,0,2,0,1,X V Q F H G B L J M P D K C T S W R N Z,,,,,,,,,,,,,,,,,,,,,,,,,,,,,,,,,,,,,,,,,,,,,,,,,,,,,,,,,,,,,,,,,,,,,,,,,,,,,,,,,,,,,,,,,,,,,
,,,,,,,,,,5c4236103be7b70001fd01c5,29,Mężczyzna,2022-06-04_08h12.23.420,task,2021.1.4,Win32,40,628b806c463b948bc644b84f,629af6dd162e2b2a32cb5c0e,,,,,3,0,3,0,1,X V Q F H G B L J M P D K C T S W R N Z,,,,,,,,,,,,,,,,,,,,,,,,,,,,,,,,,,,,,,,,,,,,,,,,,,,,,,,,,,,,,,,,,,,,,,,,,,,,,,,,,,,,,,,,,,,,,
,,,,,,,,,,5c4236103be7b70001fd01c5,29,Mężczyzna,2022-06-04_08h12.23.420,task,2021.1.4,Win32,40,628b806c463b948bc644b84f,629af6dd162e2b2a32cb5c0e,,,,,4,0,4,0,1,X V Q F H G B L J M P D K C T S W R N Z,,,,,,,,,,,,,,,,,,,,,,,,,,,,,,,,,,,,,,,,,,,,,,,,,,,,,,,,,,,,,,,,,,,,,,,,,,,,,,,,,,,,,,,,,,,,,
,,,,,,,,,,5c4236103be7b70001fd01c5,29,Mężczyzna,2022-06-04_08h12.23.420,task,2021.1.4,Win32,40,628b806c463b948bc644b84f,629af6dd162e2b2a32cb5c0e,,,,,5,0,5,0,1,X V Q F H G B L J M P D K C T S W R N Z,,,,,,,,,,,,,,,,,,,,,,,,,,,,,,,,,,,,,,,,,,,,,,,,,,,,,,,,,,,,,,,,,,,,,,,,,,,,,,,,,,,,,,,,,,,,,
,,,,,,,,,,5c4236103be7b70001fd01c5,29,Mężczyzna,2022-06-04_08h12.23.420,task,2021.1.4,Win32,40,628b806c463b948bc644b84f,629af6dd162e2b2a32cb5c0e,,,,,,,,,,,vljdsn,"[""v"",""l"",""j"",""d"",""s"",""n""]","[0.9250000000000682,1.0810000000000173,1.2760000000000673,1.7770000000000437,1.8780000000000427,2.025000000000091,2.550000000000068]",1,VLJDSN,10,0,10,0,1,,,,,,,,,,,,,,,,,,,,,,,,,,,,,,,,,,,,,,,,,,,,,,,,,,,,,,,,,,,,,,,,,,,,,,,,,,,,,,,,,,,
,,,,,,,,,,5c4236103be7b70001fd01c5,29,Mężczyzna,2022-06-04_08h12.23.420,task,2021.1.4,Win32,40,628b806c463b948bc644b84f,629af6dd162e2b2a32cb5c0e,,,,,0,0,0,0,1,X V Q F H G B L J M P D K C T S W R N Z,,,,,,,,,,,,,,,,,,,,,,,,,,,,,,,,,,,,,,,,,,,,,,,,,,,,,,,,,,,,,,,,,,,,,,,,,,,,,,,,,,,,,,,,,,,,,
,,,,,,,,,,5c4236103be7b70001fd01c5,29,Mężczyzna,2022-06-04_08h12.23.420,task,2021.1.4,Win32,40,628b806c463b948bc644b84f,629af6dd162e2b2a32cb5c0e,,,,,1,0,1,0,1,X V Q F H G B L J M P D K C T S W R N Z,,,,,,,,,,,,,,,,,,,,,,,,,,,,,,,,,,,,,,,,,,,,,,,,,,,,,,,,,,,,,,,,,,,,,,,,,,,,,,,,,,,,,,,,,,,,,
,,,,,,,,,,5c4236103be7b70001fd01c5,29,Mężczyzna,2022-06-04_08h12.23.420,task,2021.1.4,Win32,40,628b806c463b948bc644b84f,629af6dd162e2b2a32cb5c0e,,,,,2,0,2,0,1,X V Q F H G B L J M P D K C T S W R N Z,,,,,,,,,,,,,,,,,,,,,,,,,,,,,,,,,,,,,,,,,,,,,,,,,,,,,,,,,,,,,,,,,,,,,,,,,,,,,,,,,,,,,,,,,,,,,
,,,,,,,,,,5c4236103be7b70001fd01c5,29,Mężczyzna,2022-06-04_08h12.23.420,task,2021.1.4,Win32,40,628b806c463b948bc644b84f,629af6dd162e2b2a32cb5c0e,,,,,3,0,3,0,1,X V Q F H G B L J M P D K C T S W R N Z,,,,,,,,,,,,,,,,,,,,,,,,,,,,,,,,,,,,,,,,,,,,,,,,,,,,,,,,,,,,,,,,,,,,,,,,,,,,,,,,,,,,,,,,,,,,,
,,,,,,,,,,5c4236103be7b70001fd01c5,29,Mężczyzna,2022-06-04_08h12.23.420,task,2021.1.4,Win32,40,628b806c463b948bc644b84f,629af6dd162e2b2a32cb5c0e,,,,,4,0,4,0,1,X V Q F H G B L J M P D K C T S W R N Z,,,,,,,,,,,,,,,,,,,,,,,,,,,,,,,,,,,,,,,,,,,,,,,,,,,,,,,,,,,,,,,,,,,,,,,,,,,,,,,,,,,,,,,,,,,,,
,,,,,,,,,,5c4236103be7b70001fd01c5,29,Mężczyzna,2022-06-04_08h12.23.420,task,2021.1.4,Win32,40,628b806c463b948bc644b84f,629af6dd162e2b2a32cb5c0e,,,,,5,0,5,0,1,X V Q F H G B L J M P D K C T S W R N Z,,,,,,,,,,,,,,,,,,,,,,,,,,,,,,,,,,,,,,,,,,,,,,,,,,,,,,,,,,,,,,,,,,,,,,,,,,,,,,,,,,,,,,,,,,,,,
,,,,,,,,,,5c4236103be7b70001fd01c5,29,Mężczyzna,2022-06-04_08h12.23.420,task,2021.1.4,Win32,40,628b806c463b948bc644b84f,629af6dd162e2b2a32cb5c0e,,,,,6,0,6,0,1,X V Q F H G B L J M P D K C T S W R N Z,,,,,,,,,,,,,,,,,,,,,,,,,,,,,,,,,,,,,,,,,,,,,,,,,,,,,,,,,,,,,,,,,,,,,,,,,,,,,,,,,,,,,,,,,,,,,
,,,,,,,,,,5c4236103be7b70001fd01c5,29,Mężczyzna,2022-06-04_08h12.23.420,task,2021.1.4,Win32,40,628b806c463b948bc644b84f,629af6dd162e2b2a32cb5c0e,,,,,,,,,,,gkrnsgb,"[""g"",""k"",""r"",""n"",""s"",""g"",""b""]","[0.9329999999999927,1.100999999999999,1.375,1.9750000000000227,2.1000000000000227,2.5260000000000673,3.3279999999999745,6.249000000000024]",1,GKRNSGB,11,0,11,0,1,,,,,,,,,,,,,,,,,,,,,,,,,,,,,,,,,,,,,,,,,,,,,,,,,,,,,,,,,,,,,,,,,,,,,,,,,,,,,,,,,,,
,,,,,,,,,,5c4236103be7b70001fd01c5,29,Mężczyzna,2022-06-04_08h12.23.420,task,2021.1.4,Win32,40,628b806c463b948bc644b84f,629af6dd162e2b2a32cb5c0e,,,,,0,0,0,0,1,X V Q F H G B L J M P D K C T S W R N Z,,,,,,,,,,,,,,,,,,,,,,,,,,,,,,,,,,,,,,,,,,,,,,,,,,,,,,,,,,,,,,,,,,,,,,,,,,,,,,,,,,,,,,,,,,,,,
,,,,,,,,,,5c4236103be7b70001fd01c5,29,Mężczyzna,2022-06-04_08h12.23.420,task,2021.1.4,Win32,40,628b806c463b948bc644b84f,629af6dd162e2b2a32cb5c0e,,,,,1,0,1,0,1,X V Q F H G B L J M P D K C T S W R N Z,,,,,,,,,,,,,,,,,,,,,,,,,,,,,,,,,,,,,,,,,,,,,,,,,,,,,,,,,,,,,,,,,,,,,,,,,,,,,,,,,,,,,,,,,,,,,
,,,,,,,,,,5c4236103be7b70001fd01c5,29,Mężczyzna,2022-06-04_08h12.23.420,task,2021.1.4,Win32,40,628b806c463b948bc644b84f,629af6dd162e2b2a32cb5c0e,,,,,2,0,2,0,1,X V Q F H G B L J M P D K C T S W R N Z,,,,,,,,,,,,,,,,,,,,,,,,,,,,,,,,,,,,,,,,,,,,,,,,,,,,,,,,,,,,,,,,,,,,,,,,,,,,,,,,,,,,,,,,,,,,,
,,,,,,,,,,5c4236103be7b70001fd01c5,29,Mężczyzna,2022-06-04_08h12.23.420,task,2021.1.4,Win32,40,628b806c463b948bc644b84f,629af6dd162e2b2a32cb5c0e,,,,,3,0,3,0,1,X V Q F H G B L J M P D K C T S W R N Z,,,,,,,,,,,,,,,,,,,,,,,,,,,,,,,,,,,,,,,,,,,,,,,,,,,,,,,,,,,,,,,,,,,,,,,,,,,,,,,,,,,,,,,,,,,,,
,,,,,,,,,,5c4236103be7b70001fd01c5,29,Mężczyzna,2022-06-04_08h12.23.420,task,2021.1.4,Win32,40,628b806c463b948bc644b84f,629af6dd162e2b2a32cb5c0e,,,,,4,0,4,0,1,X V Q F H G B L J M P D K C T S W R N Z,,,,,,,,,,,,,,,,,,,,,,,,,,,,,,,,,,,,,,,,,,,,,,,,,,,,,,,,,,,,,,,,,,,,,,,,,,,,,,,,,,,,,,,,,,,,,
,,,,,,,,,,5c4236103be7b70001fd01c5,29,Mężczyzna,2022-06-04_08h12.23.420,task,2021.1.4,Win32,40,628b806c463b948bc644b84f,629af6dd162e2b2a32cb5c0e,,,,,5,0,5,0,1,X V Q F H G B L J M P D K C T S W R N Z,,,,,,,,,,,,,,,,,,,,,,,,,,,,,,,,,,,,,,,,,,,,,,,,,,,,,,,,,,,,,,,,,,,,,,,,,,,,,,,,,,,,,,,,,,,,,
,,,,,,,,,,5c4236103be7b70001fd01c5,29,Mężczyzna,2022-06-04_08h12.23.420,task,2021.1.4,Win32,40,628b806c463b948bc644b84f,629af6dd162e2b2a32cb5c0e,,,,,6,0,6,0,1,X V Q F H G B L J M P D K C T S W R N Z,,,,,,,,,,,,,,,,,,,,,,,,,,,,,,,,,,,,,,,,,,,,,,,,,,,,,,,,,,,,,,,,,,,,,,,,,,,,,,,,,,,,,,,,,,,,,
,,,,,,,,,,5c4236103be7b70001fd01c5,29,Mężczyzna,2022-06-04_08h12.23.420,task,2021.1.4,Win32,40,628b806c463b948bc644b84f,629af6dd162e2b2a32cb5c0e,,,,,,,,,,,vtstvgt,"[""v"",""t"",""s"",""t"",""v"",""g"",""t""]","[1.5750000000000455,1.75,1.9020000000000437,2.050000000000068,3.5750000000000455,3.7250000000000227,4.050000000000068,6.274000000000001]",1,VTSTVGT,12,0,12,0,1,,,,,,,,,,,,,,,,,,,,,,,,,,,,,,,,,,,,,,,,,,,,,,,,,,,,,,,,,,,,,,,,,,,,,,,,,,,,,,,,,,,
,,,,,,,,,,5c4236103be7b70001fd01c5,29,Mężczyzna,2022-06-04_08h12.23.420,task,2021.1.4,Win32,40,628b806c463b948bc644b84f,629af6dd162e2b2a32cb5c0e,,,,,0,0,0,0,1,X V Q F H G B L J M P D K C T S W R N Z,,,,,,,,,,,,,,,,,,,,,,,,,,,,,,,,,,,,,,,,,,,,,,,,,,,,,,,,,,,,,,,,,,,,,,,,,,,,,,,,,,,,,,,,,,,,,
,,,,,,,,,,5c4236103be7b70001fd01c5,29,Mężczyzna,2022-06-04_08h12.23.420,task,2021.1.4,Win32,40,628b806c463b948bc644b84f,629af6dd162e2b2a32cb5c0e,,,,,1,0,1,0,1,X V Q F H G B L J M P D K C T S W R N Z,,,,,,,,,,,,,,,,,,,,,,,,,,,,,,,,,,,,,,,,,,,,,,,,,,,,,,,,,,,,,,,,,,,,,,,,,,,,,,,,,,,,,,,,,,,,,
,,,,,,,,,,5c4236103be7b70001fd01c5,29,Mężczyzna,2022-06-04_08h12.23.420,task,2021.1.4,Win32,40,628b806c463b948bc644b84f,629af6dd162e2b2a32cb5c0e,,,,,2,0,2,0,1,X V Q F H G B L J M P D K C T S W R N Z,,,,,,,,,,,,,,,,,,,,,,,,,,,,,,,,,,,,,,,,,,,,,,,,,,,,,,,,,,,,,,,,,,,,,,,,,,,,,,,,,,,,,,,,,,,,,
,,,,,,,,,,5c4236103be7b70001fd01c5,29,Mężczyzna,2022-06-04_08h12.23.420,task,2021.1.4,Win32,40,628b806c463b948bc644b84f,629af6dd162e2b2a32cb5c0e,,,,,3,0,3,0,1,X V Q F H G B L J M P D K C T S W R N Z,,,,,,,,,,,,,,,,,,,,,,,,,,,,,,,,,,,,,,,,,,,,,,,,,,,,,,,,,,,,,,,,,,,,,,,,,,,,,,,,,,,,,,,,,,,,,
,,,,,,,,,,5c4236103be7b70001fd01c5,29,Mężczyzna,2022-06-04_08h12.23.420,task,2021.1.4,Win32,40,628b806c463b948bc644b84f,629af6dd162e2b2a32cb5c0e,,,,,4,0,4,0,1,X V Q F H G B L J M P D K C T S W R N Z,,,,,,,,,,,,,,,,,,,,,,,,,,,,,,,,,,,,,,,,,,,,,,,,,,,,,,,,,,,,,,,,,,,,,,,,,,,,,,,,,,,,,,,,,,,,,
,,,,,,,,,,5c4236103be7b70001fd01c5,29,Mężczyzna,2022-06-04_08h12.23.420,task,2021.1.4,Win32,40,628b806c463b948bc644b84f,629af6dd162e2b2a32cb5c0e,,,,,5,0,5,0,1,X V Q F H G B L J M P D K C T S W R N Z,,,,,,,,,,,,,,,,,,,,,,,,,,,,,,,,,,,,,,,,,,,,,,,,,,,,,,,,,,,,,,,,,,,,,,,,,,,,,,,,,,,,,,,,,,,,,
,,,,,,,,,,5c4236103be7b70001fd01c5,29,Mężczyzna,2022-06-04_08h12.23.420,task,2021.1.4,Win32,40,628b806c463b948bc644b84f,629af6dd162e2b2a32cb5c0e,,,,,6,0,6,0,1,X V Q F H G B L J M P D K C T S W R N Z,,,,,,,,,,,,,,,,,,,,,,,,,,,,,,,,,,,,,,,,,,,,,,,,,,,,,,,,,,,,,,,,,,,,,,,,,,,,,,,,,,,,,,,,,,,,,
,,,,,,,,,,5c4236103be7b70001fd01c5,29,Mężczyzna,2022-06-04_08h12.23.420,task,2021.1.4,Win32,40,628b806c463b948bc644b84f,629af6dd162e2b2a32cb5c0e,,,,,7,0,7,0,1,X V Q F H G B L J M P D K C T S W R N Z,,,,,,,,,,,,,,,,,,,,,,,,,,,,,,,,,,,,,,,,,,,,,,,,,,,,,,,,,,,,,,,,,,,,,,,,,,,,,,,,,,,,,,,,,,,,,
,,,,,,,,,,5c4236103be7b70001fd01c5,29,Mężczyzna,2022-06-04_08h12.23.420,task,2021.1.4,Win32,40,628b806c463b948bc644b84f,629af6dd162e2b2a32cb5c0e,,,,,,,,,,,cpncpffc,"[""c"",""p"",""n"",""c"",""p"",""f"",""f"",""c""]","[0.9740000000000464,1.0740000000000691,1.274000000000001,1.4239999999999782,2.375,2.5249999999999773,2.673000000000002,2.875,4.09800000000007]",1,CPNCPFFC,13,0,13,0,1,,,,,,,,,,,,,,,,,,,,,,,,,,,,,,,,,,,,,,,,,,,,,,,,,,,,,,,,,,,,,,,,,,,,,,,,,,,,,,,,,,,
,,,,,,,,,,5c4236103be7b70001fd01c5,29,Mężczyzna,2022-06-04_08h12.23.420,task,2021.1.4,Win32,40,628b806c463b948bc644b84f,629af6dd162e2b2a32cb5c0e,,,,,0,0,0,0,1,X V Q F H G B L J M P D K C T S W R N Z,,,,,,,,,,,,,,,,,,,,,,,,,,,,,,,,,,,,,,,,,,,,,,,,,,,,,,,,,,,,,,,,,,,,,,,,,,,,,,,,,,,,,,,,,,,,,
,,,,,,,,,,5c4236103be7b70001fd01c5,29,Mężczyzna,2022-06-04_08h12.23.420,task,2021.1.4,Win32,40,628b806c463b948bc644b84f,629af6dd162e2b2a32cb5c0e,,,,,1,0,1,0,1,X V Q F H G B L J M P D K C T S W R N Z,,,,,,,,,,,,,,,,,,,,,,,,,,,,,,,,,,,,,,,,,,,,,,,,,,,,,,,,,,,,,,,,,,,,,,,,,,,,,,,,,,,,,,,,,,,,,
,,,,,,,,,,5c4236103be7b70001fd01c5,29,Mężczyzna,2022-06-04_08h12.23.420,task,2021.1.4,Win32,40,628b806c463b948bc644b84f,629af6dd162e2b2a32cb5c0e,,,,,2,0,2,0,1,X V Q F H G B L J M P D K C T S W R N Z,,,,,,,,,,,,,,,,,,,,,,,,,,,,,,,,,,,,,,,,,,,,,,,,,,,,,,,,,,,,,,,,,,,,,,,,,,,,,,,,,,,,,,,,,,,,,
,,,,,,,,,,5c4236103be7b70001fd01c5,29,Mężczyzna,2022-06-04_08h12.23.420,task,2021.1.4,Win32,40,628b806c463b948bc644b84f,629af6dd162e2b2a32cb5c0e,,,,,3,0,3,0,1,X V Q F H G B L J M P D K C T S W R N Z,,,,,,,,,,,,,,,,,,,,,,,,,,,,,,,,,,,,,,,,,,,,,,,,,,,,,,,,,,,,,,,,,,,,,,,,,,,,,,,,,,,,,,,,,,,,,
,,,,,,,,,,5c4236103be7b70001fd01c5,29,Mężczyzna,2022-06-04_08h12.23.420,task,2021.1.4,Win32,40,628b806c463b948bc644b84f,629af6dd162e2b2a32cb5c0e,,,,,4,0,4,0,1,X V Q F H G B L J M P D K C T S W R N Z,,,,,,,,,,,,,,,,,,,,,,,,,,,,,,,,,,,,,,,,,,,,,,,,,,,,,,,,,,,,,,,,,,,,,,,,,,,,,,,,,,,,,,,,,,,,,
,,,,,,,,,,5c4236103be7b70001fd01c5,29,Mężczyzna,2022-06-04_08h12.23.420,task,2021.1.4,Win32,40,628b806c463b948bc644b84f,629af6dd162e2b2a32cb5c0e,,,,,5,0,5,0,1,X V Q F H G B L J M P D K C T S W R N Z,,,,,,,,,,,,,,,,,,,,,,,,,,,,,,,,,,,,,,,,,,,,,,,,,,,,,,,,,,,,,,,,,,,,,,,,,,,,,,,,,,,,,,,,,,,,,
,,,,,,,,,,5c4236103be7b70001fd01c5,29,Mężczyzna,2022-06-04_08h12.23.420,task,2021.1.4,Win32,40,628b806c463b948bc644b84f,629af6dd162e2b2a32cb5c0e,,,,,6,0,6,0,1,X V Q F H G B L J M P D K C T S W R N Z,,,,,,,,,,,,,,,,,,,,,,,,,,,,,,,,,,,,,,,,,,,,,,,,,,,,,,,,,,,,,,,,,,,,,,,,,,,,,,,,,,,,,,,,,,,,,
,,,,,,,,,,5c4236103be7b70001fd01c5,29,Mężczyzna,2022-06-04_08h12.23.420,task,2021.1.4,Win32,40,628b806c463b948bc644b84f,629af6dd162e2b2a32cb5c0e,,,,,7,0,7,0,1,X V Q F H G B L J M P D K C T S W R N Z,,,,,,,,,,,,,,,,,,,,,,,,,,,,,,,,,,,,,,,,,,,,,,,,,,,,,,,,,,,,,,,,,,,,,,,,,,,,,,,,,,,,,,,,,,,,,
,,,,,,,,,,5c4236103be7b70001fd01c5,29,Mężczyzna,2022-06-04_08h12.23.420,task,2021.1.4,Win32,40,628b806c463b948bc644b84f,629af6dd162e2b2a32cb5c0e,,,,,,,,,,,jkwbcfgr,"[""j"",""k"",""w"",""b"",""c"",""f"",""g"",""r""]","[1.650000000000091,1.8500000000000227,2.1000000000000227,2.3740000000000236,2.552000000000021,4.299000000000092,5.874000000000024,6.124000000000024,8.32400000000007]",1,JKWBCFGR,14,0,14,0,1,,,,,,,,,,,,,,,,,,,,,,,,,,,,,,,,,,,,,,,,,,,,,,,,,,,,,,,,,,,,,,,,,,,,,,,,,,,,,,,,,,,
,,,,,,,,,,5c4236103be7b70001fd01c5,29,Mężczyzna,2022-06-04_08h12.23.420,task,2021.1.4,Win32,40,628b806c463b948bc644b84f,629af6dd162e2b2a32cb5c0e,,,,,0,0,0,0,1,X V Q F H G B L J M P D K C T S W R N Z,,,,,,,,,,,,,,,,,,,,,,,,,,,,,,,,,,,,,,,,,,,,,,,,,,,,,,,,,,,,,,,,,,,,,,,,,,,,,,,,,,,,,,,,,,,,,
,,,,,,,,,,5c4236103be7b70001fd01c5,29,Mężczyzna,2022-06-04_08h12.23.420,task,2021.1.4,Win32,40,628b806c463b948bc644b84f,629af6dd162e2b2a32cb5c0e,,,,,1,0,1,0,1,X V Q F H G B L J M P D K C T S W R N Z,,,,,,,,,,,,,,,,,,,,,,,,,,,,,,,,,,,,,,,,,,,,,,,,,,,,,,,,,,,,,,,,,,,,,,,,,,,,,,,,,,,,,,,,,,,,,
,,,,,,,,,,5c4236103be7b70001fd01c5,29,Mężczyzna,2022-06-04_08h12.23.420,task,2021.1.4,Win32,40,628b806c463b948bc644b84f,629af6dd162e2b2a32cb5c0e,,,,,2,0,2,0,1,X V Q F H G B L J M P D K C T S W R N Z,,,,,,,,,,,,,,,,,,,,,,,,,,,,,,,,,,,,,,,,,,,,,,,,,,,,,,,,,,,,,,,,,,,,,,,,,,,,,,,,,,,,,,,,,,,,,
,,,,,,,,,,5c4236103be7b70001fd01c5,29,Mężczyzna,2022-06-04_08h12.23.420,task,2021.1.4,Win32,40,628b806c463b948bc644b84f,629af6dd162e2b2a32cb5c0e,,,,,3,0,3,0,1,X V Q F H G B L J M P D K C T S W R N Z,,,,,,,,,,,,,,,,,,,,,,,,,,,,,,,,,,,,,,,,,,,,,,,,,,,,,,,,,,,,,,,,,,,,,,,,,,,,,,,,,,,,,,,,,,,,,
,,,,,,,,,,5c4236103be7b70001fd01c5,29,Mężczyzna,2022-06-04_08h12.23.420,task,2021.1.4,Win32,40,628b806c463b948bc644b84f,629af6dd162e2b2a32cb5c0e,,,,,4,0,4,0,1,X V Q F H G B L J M P D K C T S W R N Z,,,,,,,,,,,,,,,,,,,,,,,,,,,,,,,,,,,,,,,,,,,,,,,,,,,,,,,,,,,,,,,,,,,,,,,,,,,,,,,,,,,,,,,,,,,,,
,,,,,,,,,,5c4236103be7b70001fd01c5,29,Mężczyzna,2022-06-04_08h12.23.420,task,2021.1.4,Win32,40,628b806c463b948bc644b84f,629af6dd162e2b2a32cb5c0e,,,,,5,0,5,0,1,X V Q F H G B L J M P D K C T S W R N Z,,,,,,,,,,,,,,,,,,,,,,,,,,,,,,,,,,,,,,,,,,,,,,,,,,,,,,,,,,,,,,,,,,,,,,,,,,,,,,,,,,,,,,,,,,,,,
,,,,,,,,,,5c4236103be7b70001fd01c5,29,Mężczyzna,2022-06-04_08h12.23.420,task,2021.1.4,Win32,40,628b806c463b948bc644b84f,629af6dd162e2b2a32cb5c0e,,,,,6,0,6,0,1,X V Q F H G B L J M P D K C T S W R N Z,,,,,,,,,,,,,,,,,,,,,,,,,,,,,,,,,,,,,,,,,,,,,,,,,,,,,,,,,,,,,,,,,,,,,,,,,,,,,,,,,,,,,,,,,,,,,
,,,,,,,,,,5c4236103be7b70001fd01c5,29,Mężczyzna,2022-06-04_08h12.23.420,task,2021.1.4,Win32,40,628b806c463b948bc644b84f,629af6dd162e2b2a32cb5c0e,,,,,7,0,7,0,1,X V Q F H G B L J M P D K C T S W R N Z,,,,,,,,,,,,,,,,,,,,,,,,,,,,,,,,,,,,,,,,,,,,,,,,,,,,,,,,,,,,,,,,,,,,,,,,,,,,,,,,,,,,,,,,,,,,,
,,,,,,,,,,5c4236103be7b70001fd01c5,29,Mężczyzna,2022-06-04_08h12.23.420,task,2021.1.4,Win32,40,628b806c463b948bc644b84f,629af6dd162e2b2a32cb5c0e,,,,,8,0,8,0,1,X V Q F H G B L J M P D K C T S W R N Z,,,,,,,,,,,,,,,,,,,,,,,,,,,,,,,,,,,,,,,,,,,,,,,,,,,,,,,,,,,,,,,,,,,,,,,,,,,,,,,,,,,,,,,,,,,,,
,,,,,,,,,,5c4236103be7b70001fd01c5,29,Mężczyzna,2022-06-04_08h12.23.420,task,2021.1.4,Win32,40,628b806c463b948bc644b84f,629af6dd162e2b2a32cb5c0e,,,,,,,,,,,zqlrnbfqn,"[""z"",""q"",""l"",""r"",""n"",""b"",""f"",""q"",""n""]","[2.3759999999999764,2.6509999999999536,3.2749999999999773,3.4599999999999227,6.223999999999933,6.448999999999955,6.598999999999933,7.697999999999979,7.947999999999979,8.423000000000002]",0,ZLQRBXDFN,15,0,15,0,1,,,,,,,,,,,,,,,,,,,,,,,,,,,,,,,,,,,,,,,,,,,,,,,,,,,,,,,,,,,,,,,,,,,,,,,,,,,,,,,,,,,
,,,,,,,,,,5c4236103be7b70001fd01c5,29,Mężczyzna,2022-06-04_08h12.23.420,task,2021.1.4,Win32,40,628b806c463b948bc644b84f,629af6dd162e2b2a32cb5c0e,,,,,0,0,0,0,1,X V Q F H G B L J M P D K C T S W R N Z,,,,,,,,,,,,,,,,,,,,,,,,,,,,,,,,,,,,,,,,,,,,,,,,,,,,,,,,,,,,,,,,,,,,,,,,,,,,,,,,,,,,,,,,,,,,,
,,,,,,,,,,5c4236103be7b70001fd01c5,29,Mężczyzna,2022-06-04_08h12.23.420,task,2021.1.4,Win32,40,628b806c463b948bc644b84f,629af6dd162e2b2a32cb5c0e,,,,,1,0,1,0,1,X V Q F H G B L J M P D K C T S W R N Z,,,,,,,,,,,,,,,,,,,,,,,,,,,,,,,,,,,,,,,,,,,,,,,,,,,,,,,,,,,,,,,,,,,,,,,,,,,,,,,,,,,,,,,,,,,,,
,,,,,,,,,,5c4236103be7b70001fd01c5,29,Mężczyzna,2022-06-04_08h12.23.420,task,2021.1.4,Win32,40,628b806c463b948bc644b84f,629af6dd162e2b2a32cb5c0e,,,,,2,0,2,0,1,X V Q F H G B L J M P D K C T S W R N Z,,,,,,,,,,,,,,,,,,,,,,,,,,,,,,,,,,,,,,,,,,,,,,,,,,,,,,,,,,,,,,,,,,,,,,,,,,,,,,,,,,,,,,,,,,,,,
,,,,,,,,,,5c4236103be7b70001fd01c5,29,Mężczyzna,2022-06-04_08h12.23.420,task,2021.1.4,Win32,40,628b806c463b948bc644b84f,629af6dd162e2b2a32cb5c0e,,,,,3,0,3,0,1,X V Q F H G B L J M P D K C T S W R N Z,,,,,,,,,,,,,,,,,,,,,,,,,,,,,,,,,,,,,,,,,,,,,,,,,,,,,,,,,,,,,,,,,,,,,,,,,,,,,,,,,,,,,,,,,,,,,
,,,,,,,,,,5c4236103be7b70001fd01c5,29,Mężczyzna,2022-06-04_08h12.23.420,task,2021.1.4,Win32,40,628b806c463b948bc644b84f,629af6dd162e2b2a32cb5c0e,,,,,4,0,4,0,1,X V Q F H G B L J M P D K C T S W R N Z,,,,,,,,,,,,,,,,,,,,,,,,,,,,,,,,,,,,,,,,,,,,,,,,,,,,,,,,,,,,,,,,,,,,,,,,,,,,,,,,,,,,,,,,,,,,,
,,,,,,,,,,5c4236103be7b70001fd01c5,29,Mężczyzna,2022-06-04_08h12.23.420,task,2021.1.4,Win32,40,628b806c463b948bc644b84f,629af6dd162e2b2a32cb5c0e,,,,,5,0,5,0,1,X V Q F H G B L J M P D K C T S W R N Z,,,,,,,,,,,,,,,,,,,,,,,,,,,,,,,,,,,,,,,,,,,,,,,,,,,,,,,,,,,,,,,,,,,,,,,,,,,,,,,,,,,,,,,,,,,,,
,,,,,,,,,,5c4236103be7b70001fd01c5,29,Mężczyzna,2022-06-04_08h12.23.420,task,2021.1.4,Win32,40,628b806c463b948bc644b84f,629af6dd162e2b2a32cb5c0e,,,,,6,0,6,0,1,X V Q F H G B L J M P D K C T S W R N Z,,,,,,,,,,,,,,,,,,,,,,,,,,,,,,,,,,,,,,,,,,,,,,,,,,,,,,,,,,,,,,,,,,,,,,,,,,,,,,,,,,,,,,,,,,,,,
,,,,,,,,,,5c4236103be7b70001fd01c5,29,Mężczyzna,2022-06-04_08h12.23.420,task,2021.1.4,Win32,40,628b806c463b948bc644b84f,629af6dd162e2b2a32cb5c0e,,,,,7,0,7,0,1,X V Q F H G B L J M P D K C T S W R N Z,,,,,,,,,,,,,,,,,,,,,,,,,,,,,,,,,,,,,,,,,,,,,,,,,,,,,,,,,,,,,,,,,,,,,,,,,,,,,,,,,,,,,,,,,,,,,
,,,,,,,,,,5c4236103be7b70001fd01c5,29,Mężczyzna,2022-06-04_08h12.23.420,task,2021.1.4,Win32,40,628b806c463b948bc644b84f,629af6dd162e2b2a32cb5c0e,,,,,8,0,8,0,1,X V Q F H G B L J M P D K C T S W R N Z,,,,,,,,,,,,,,,,,,,,,,,,,,,,,,,,,,,,,,,,,,,,,,,,,,,,,,,,,,,,,,,,,,,,,,,,,,,,,,,,,,,,,,,,,,,,,
,,,,,,,,,,5c4236103be7b70001fd01c5,29,Mężczyzna,2022-06-04_08h12.23.420,task,2021.1.4,Win32,40,628b806c463b948bc644b84f,629af6dd162e2b2a32cb5c0e,,,,,,,,,,,wkwsnlws,"[""w"",""k"",""w"",""s"",""n"",""l"",""w"",""s""]","[1.6029999999999518,1.9309999999999263,2.550999999999931,2.77699999999993,3.006999999999948,3.8039999999999736,4.350999999999999,4.925999999999931,9.098999999999933]",0,WKWSNLFNM,16,0,16,0,1,,,,,,,,,,,,,,,,,,,,,,,,,,,,,,,,,,,,,,,,,,,,,,,,,,,,,,,,,,,,,,,,,,,,,,,,,,,,,,,,,,,
,,,,,,,,,,5c4236103be7b70001fd01c5,29,Mężczyzna,2022-06-04_08h12.23.420,task,2021.1.4,Win32,40,628b806c463b948bc644b84f,629af6dd162e2b2a32cb5c0e,,,,,0,0,0,0,1,X V Q F H G B L J M P D K C T S W R N Z,,,,,,,,,,,,,,,,,,,,,,,,,,,,,,,,,,,,,,,,,,,,,,,,,,,,,,,,,,,,,,,,,,,,,,,,,,,,,,,,,,,,,,,,,,,,,
,,,,,,,,,,5c4236103be7b70001fd01c5,29,Mężczyzna,2022-06-04_08h12.23.420,task,2021.1.4,Win32,40,628b806c463b948bc644b84f,629af6dd162e2b2a32cb5c0e,,,,,1,0,1,0,1,X V Q F H G B L J M P D K C T S W R N Z,,,,,,,,,,,,,,,,,,,,,,,,,,,,,,,,,,,,,,,,,,,,,,,,,,,,,,,,,,,,,,,,,,,,,,,,,,,,,,,,,,,,,,,,,,,,,
,,,,,,,,,,5c4236103be7b70001fd01c5,29,Mężczyzna,2022-06-04_08h12.23.420,task,2021.1.4,Win32,40,628b806c463b948bc644b84f,629af6dd162e2b2a32cb5c0e,,,,,2,0,2,0,1,X V Q F H G B L J M P D K C T S W R N Z,,,,,,,,,,,,,,,,,,,,,,,,,,,,,,,,,,,,,,,,,,,,,,,,,,,,,,,,,,,,,,,,,,,,,,,,,,,,,,,,,,,,,,,,,,,,,
,,,,,,,,,,5c4236103be7b70001fd01c5,29,Mężczyzna,2022-06-04_08h12.23.420,task,2021.1.4,Win32,40,628b806c463b948bc644b84f,629af6dd162e2b2a32cb5c0e,,,,,3,0,3,0,1,X V Q F H G B L J M P D K C T S W R N Z,,,,,,,,,,,,,,,,,,,,,,,,,,,,,,,,,,,,,,,,,,,,,,,,,,,,,,,,,,,,,,,,,,,,,,,,,,,,,,,,,,,,,,,,,,,,,
,,,,,,,,,,5c4236103be7b70001fd01c5,29,Mężczyzna,2022-06-04_08h12.23.420,task,2021.1.4,Win32,40,628b806c463b948bc644b84f,629af6dd162e2b2a32cb5c0e,,,,,4,0,4,0,1,X V Q F H G B L J M P D K C T S W R N Z,,,,,,,,,,,,,,,,,,,,,,,,,,,,,,,,,,,,,,,,,,,,,,,,,,,,,,,,,,,,,,,,,,,,,,,,,,,,,,,,,,,,,,,,,,,,,
,,,,,,,,,,5c4236103be7b70001fd01c5,29,Mężczyzna,2022-06-04_08h12.23.420,task,2021.1.4,Win32,40,628b806c463b948bc644b84f,629af6dd162e2b2a32cb5c0e,,,,,5,0,5,0,1,X V Q F H G B L J M P D K C T S W R N Z,,,,,,,,,,,,,,,,,,,,,,,,,,,,,,,,,,,,,,,,,,,,,,,,,,,,,,,,,,,,,,,,,,,,,,,,,,,,,,,,,,,,,,,,,,,,,
,,,,,,,,,,5c4236103be7b70001fd01c5,29,Mężczyzna,2022-06-04_08h12.23.420,task,2021.1.4,Win32,40,628b806c463b948bc644b84f,629af6dd162e2b2a32cb5c0e,,,,,6,0,6,0,1,X V Q F H G B L J M P D K C T S W R N Z,,,,,,,,,,,,,,,,,,,,,,,,,,,,,,,,,,,,,,,,,,,,,,,,,,,,,,,,,,,,,,,,,,,,,,,,,,,,,,,,,,,,,,,,,,,,,
,,,,,,,,,,5c4236103be7b70001fd01c5,29,Mężczyzna,2022-06-04_08h12.23.420,task,2021.1.4,Win32,40,628b806c463b948bc644b84f,629af6dd162e2b2a32cb5c0e,,,,,7,0,7,0,1,X V Q F H G B L J M P D K C T S W R N Z,,,,,,,,,,,,,,,,,,,,,,,,,,,,,,,,,,,,,,,,,,,,,,,,,,,,,,,,,,,,,,,,,,,,,,,,,,,,,,,,,,,,,,,,,,,,,
,,,,,,,,,,5c4236103be7b70001fd01c5,29,Mężczyzna,2022-06-04_08h12.23.420,task,2021.1.4,Win32,40,628b806c463b948bc644b84f,629af6dd162e2b2a32cb5c0e,,,,,8,0,8,0,1,X V Q F H G B L J M P D K C T S W R N Z,,,,,,,,,,,,,,,,,,,,,,,,,,,,,,,,,,,,,,,,,,,,,,,,,,,,,,,,,,,,,,,,,,,,,,,,,,,,,,,,,,,,,,,,,,,,,
,,,,,,,,,,5c4236103be7b70001fd01c5,29,Mężczyzna,2022-06-04_08h12.23.420,task,2021.1.4,Win32,40,628b806c463b948bc644b84f,629af6dd162e2b2a32cb5c0e,,,,,,,,,,,vsbpmgks,"[""v"",""s"",""b"",""p"",""m"",""g"",""k"",""s""]","[3.274000000000001,3.4320000000000164,4.298999999999978,4.455000000000041,5.374000000000024,13.172000000000025,13.373000000000047,14.771000000000072,15.872000000000071]",0,VSBPMGDQD,17,0,17,0,1,,,,,,,,,,,,,,,,,,,,,,,,,,,,,,,,,,,,,,,,,,,,,,,,,,,,,,,,,,,,,,,,,,,,,,,,,,,,,,,,,,,
,,,,,,,,,,5c4236103be7b70001fd01c5,29,Mężczyzna,2022-06-04_08h12.23.420,task,2021.1.4,Win32,40,628b806c463b948bc644b84f,629af6dd162e2b2a32cb5c0e,,,,,,,,,,,,,,,,,,,,,space,11.626,7,"[""7""]",1,[3.2509999999999764],[3.2509999999999764],0,0,0,7,1,Practice,8,(5x5) - 18,7,,,,,,,,,,,,,,,,,,,,,,,,,,,,,,,,,,,,,,,,,,,,,,,,,,,,,,,,,,,,,,,,,,,
,,,,,,,,,,5c4236103be7b70001fd01c5,29,Mężczyzna,2022-06-04_08h12.23.420,task,2021.1.4,Win32,40,628b806c463b948bc644b84f,629af6dd162e2b2a32cb5c0e,,,,,,,,,,,,,,,,,,,,,,,6,"[""6""]",1,[2.4039999999999964],"[3.2509999999999764,2.4039999999999964]",0,1,1,6,1,Practice,7,(25/5) + 1,6,,,,,,,,,,,,,,,,,,,,,,,,,,,,,,,,,,,,,,,,,,,,,,,,,,,,,,,,,,,,,,,,,,,
,,,,,,,,,,5c4236103be7b70001fd01c5,29,Mężczyzna,2022-06-04_08h12.23.420,task,2021.1.4,Win32,40,628b806c463b948bc644b84f,629af6dd162e2b2a32cb5c0e,,,,,,,,,,,,,,,,,,,,,,,8,"[""8""]",1,[1.8000000000000682],"[3.2509999999999764,2.4039999999999964,1.8000000000000682]",0,2,2,8,1,Practice,9,(3x3) - 1,8,,,,,,,,,,,,,,,,,,,,,,,,,,,,,,,,,,,,,,,,,,,,,,,,,,,,,,,,,,,,,,,,,,,
,,,,,,,,,,5c4236103be7b70001fd01c5,29,Mężczyzna,2022-06-04_08h12.23.420,task,2021.1.4,Win32,40,628b806c463b948bc644b84f,629af6dd162e2b2a32cb5c0e,,,,,,,,,,,,,,,,,,,,,,,1,"[""1""]",1,[1.875],"[3.2509999999999764,2.4039999999999964,1.8000000000000682,1.875]",0,3,3,1,1,Practice,2,(4x4) - 15,1,,,,,,,,,,,,,,,,,,,,,,,,,,,,,,,,,,,,,,,,,,,,,,,,,,,,,,,,,,,,,,,,,,,
,,,,,,,,,,5c4236103be7b70001fd01c5,29,Mężczyzna,2022-06-04_08h12.23.420,task,2021.1.4,Win32,40,628b806c463b948bc644b84f,629af6dd162e2b2a32cb5c0e,,,,,,,,,,,,,,,,,,,,,,,0,"[""0""]",1,[1.40300000000002],"[3.2509999999999764,2.4039999999999964,1.8000000000000682,1.875,1.40300000000002]",0,4,4,0,1,Practice,1,(3x3) -  9,0,,,,,,,,,,,,,,,,,,,,,,,,,,,,,,,,,,,,,,,,,,,,,,,,,,,,,,,,,,,,,,,,,,,
,,,,,,,,,,5c4236103be7b70001fd01c5,29,Mężczyzna,2022-06-04_08h12.23.420,task,2021.1.4,Win32,40,628b806c463b948bc644b84f,629af6dd162e2b2a32cb5c0e,,,,,,,,,,,,,,,,,,,,,,,4,"[""4""]",1,[2.2280000000000655],"[3.2509999999999764,2.4039999999999964,1.8000000000000682,1.875,1.40300000000002,2.2280000000000655]",0,5,5,4,1,Practice,5,(2x6) - 8,4,,,,,,,,,,,,,,,,,,,,,,,,,,,,,,,,,,,,,,,,,,,,,,,,,,,,,,,,,,,,,,,,,,,
,,,,,,,,,,5c4236103be7b70001fd01c5,29,Mężczyzna,2022-06-04_08h12.23.420,task,2021.1.4,Win32,40,628b806c463b948bc644b84f,629af6dd162e2b2a32cb5c0e,,,,,,,,,,,,,,,,,,,,,,,5,"[""5""]",1,[3.75100000000009],"[3.2509999999999764,2.4039999999999964,1.8000000000000682,1.875,1.40300000000002,2.2280000000000655,3.75100000000009]",0,6,6,5,1,Practice,6,(4/2) + 3,5,,,,,,,,,,,,,,,,,,,,,,,,,,,,,,,,,,,,,,,,,,,,,,,,,,,,,,,,,,,,,,,,,,,
,,,,,,,,,,5c4236103be7b70001fd01c5,29,Mężczyzna,2022-06-04_08h12.23.420,task,2021.1.4,Win32,40,628b806c463b948bc644b84f,629af6dd162e2b2a32cb5c0e,,,,,,,,,,,,,,,,,,,,,,,2,"[""2""]",1,[3.076000000000022],"[3.2509999999999764,2.4039999999999964,1.8000000000000682,1.875,1.40300000000002,2.2280000000000655,3.75100000000009,3.076000000000022]",0,7,7,2,1,Practice,3,(4x4) - 14,2,,,,,,,,,,,,,,,,,,,,,,,,,,,,,,,,,,,,,,,,,,,,,,,,,,,,,,,,,,,,,,,,,,,
,,,,,,,,,,5c4236103be7b70001fd01c5,29,Mężczyzna,2022-06-04_08h12.23.420,task,2021.1.4,Win32,40,628b806c463b948bc644b84f,629af6dd162e2b2a32cb5c0e,,,,,,,,,,,,,,,,,,,,,,,5,"[""5""]",0,[2.532000000000039],"[3.2509999999999764,2.4039999999999964,1.8000000000000682,1.875,1.40300000000002,2.2280000000000655,3.75100000000009,3.076000000000022,2.532000000000039]",0,8,8,3,1,Practice,4,(8/4) + 1,3,,,,,,,,,,,,,,,,,,,,,,,,,,,,,,,,,,,,,,,,,,,,,,,,,,,,,,,,,,,,,,,,,,,
,,,,,,,,,,5c4236103be7b70001fd01c5,29,Mężczyzna,2022-06-04_08h12.23.420,task,2021.1.4,Win32,40,628b806c463b948bc644b84f,629af6dd162e2b2a32cb5c0e,,,,,,,,,,,,,,,,,,,,,,,9,"[""9""]",1,[3.1259999999999764],"[3.2509999999999764,2.4039999999999964,1.8000000000000682,1.875,1.40300000000002,2.2280000000000655,3.75100000000009,3.076000000000022,2.532000000000039,3.1259999999999764]",0,9,9,9,1,Practice,10,(20/2) - 1,9,,,,,,,,,,,,,,,,,,,,,,,,,,,,,,,,,,,,,,,,,,,,,,,,,,,,,,,,,,,,,,,,,,,
,,,,,,,,,,5c4236103be7b70001fd01c5,29,Mężczyzna,2022-06-04_08h12.23.420,task,2021.1.4,Win32,40,628b806c463b948bc644b84f,629af6dd162e2b2a32cb5c0e,,,,,,,,,,,,,,,,,,,,,,,,,,,,,,,,,,,,,0.9,25.446,1.6964,12.1954528,0.901681866,4.022739213,space,2.803,0,0,0,0,1,,,,,,,,,,,,,,,,,,,,,,,,,,,,,,,,,,,,,,,,,,,,,,,,,,,,,,
,,,,,,,,,,5c4236103be7b70001fd01c5,29,Mężczyzna,2022-06-04_08h12.23.420,task,2021.1.4,Win32,40,628b806c463b948bc644b84f,629af6dd162e2b2a32cb5c0e,,,,,,,,,,,,,,,,,,,,,,,1,,,,,,,,,,Practice,2,(4x4) - 15,1,,,,,,,,,,,,,,space,19.921,"[""1""]",1,[2.244000000000028],1,0,0,0,1,1,,,,,,,,,,,,,,,,,,,,,,,,,,,,,,,,,,,,,,,,,,,
,,,,,,,,,,5c4236103be7b70001fd01c5,29,Mężczyzna,2022-06-04_08h12.23.420,task,2021.1.4,Win32,40,628b806c463b948bc644b84f,629af6dd162e2b2a32cb5c0e,,,,,,,,,,X V Q F H G B L J M P D K C T S W R N Z,,,,,,,,,,,,,,,,,,,,,,,,,,,,,,,,,,,,,,,,,,,,,,,,,,,0,0,0,0,1,,,,,,,,,,,,,,,,,,,,,,,,,,,,,,,,,,,,,,
,,,,,,,,,,5c4236103be7b70001fd01c5,29,Mężczyzna,2022-06-04_08h12.23.420,task,2021.1.4,Win32,40,628b806c463b948bc644b84f,629af6dd162e2b2a32cb5c0e,,,,,,,,,,,,,,,,,,,,,,,1,,,,,,,,,,Practice,2,(4x4) - 15,1,,,,,,,,,,,,,,,,"[""1""]",1,[1.85899999999981],1,0,0,0,1,1,,,,,,,,,,,,,,,,,,,,,,,,,,,,,,,,,,,,,,,,,,,
,,,,,,,,,,5c4236103be7b70001fd01c5,29,Mężczyzna,2022-06-04_08h12.23.420,task,2021.1.4,Win32,40,628b806c463b948bc644b84f,629af6dd162e2b2a32cb5c0e,,,,,,,,,,X V Q F H G B L J M P D K C T S W R N Z,,,,,,,,,,,,,,,,,,,,,,,,,,,,,,,,,,,,,,,,,,,,,,,,,,,1,0,1,0,1,,,,,,,,,,,,,,,,,,,,,,,,,,,,,,,,,,,,,,
,,,,,,,,,,5c4236103be7b70001fd01c5,29,Mężczyzna,2022-06-04_08h12.23.420,task,2021.1.4,Win32,40,628b806c463b948bc644b84f,629af6dd162e2b2a32cb5c0e,,,,,,,,,,,,,,,,,,,,,,,,,,,,,,,,,,,,,,,,,,,,,,,,,,,,,,,,,,,,,,,,,,zs,"[""z"",""s""]",0,"[2.508000000000038,2.7329999999999472,3.9020000000000437]",1,0,0,0,0,1,,,,,,,,,,,,,,,,,,,,,,,,,,,,
,,,,,,,,,,5c4236103be7b70001fd01c5,29,Mężczyzna,2022-06-04_08h12.23.420,task,2021.1.4,Win32,40,628b806c463b948bc644b84f,629af6dd162e2b2a32cb5c0e,,,,,,,,,,,,,,,,,,,,,,,4,,,,,,,,,,Practice,5,(2x6) - 8,4,,,,,,,,,,,,,,,,"[""4""]",1,[2.525000000000091],1,0,0,0,4,1,,,,,,,,,,,,,,,,,,,,,,,,,,,,,,,,,,,,,,,,,,,
,,,,,,,,,,5c4236103be7b70001fd01c5,29,Mężczyzna,2022-06-04_08h12.23.420,task,2021.1.4,Win32,40,628b806c463b948bc644b84f,629af6dd162e2b2a32cb5c0e,,,,,,,,,,X V Q F H G B L J M P D K C T S W R N Z,,,,,,,,,,,,,,,,,,,,,,,,,,,,,,,,,,,,,,,,,,,,,,,,,,,0,0,0,0,1,,,,,,,,,,,,,,,,,,,,,,,,,,,,,,,,,,,,,,
,,,,,,,,,,5c4236103be7b70001fd01c5,29,Mężczyzna,2022-06-04_08h12.23.420,task,2021.1.4,Win32,40,628b806c463b948bc644b84f,629af6dd162e2b2a32cb5c0e,,,,,,,,,,,,,,,,,,,,,,,3,,,,,,,,,,Practice,4,(8/4) + 1,3,,,,,,,,,,,,,,,,"[""3""]",1,[2.102000000000089],1,0,0,0,3,1,,,,,,,,,,,,,,,,,,,,,,,,,,,,,,,,,,,,,,,,,,,
,,,,,,,,,,5c4236103be7b70001fd01c5,29,Mężczyzna,2022-06-04_08h12.23.420,task,2021.1.4,Win32,40,628b806c463b948bc644b84f,629af6dd162e2b2a32cb5c0e,,,,,,,,,,X V Q F H G B L J M P D K C T S W R N Z,,,,,,,,,,,,,,,,,,,,,,,,,,,,,,,,,,,,,,,,,,,,,,,,,,,1,0,1,0,1,,,,,,,,,,,,,,,,,,,,,,,,,,,,,,,,,,,,,,
,,,,,,,,,,5c4236103be7b70001fd01c5,29,Mężczyzna,2022-06-04_08h12.23.420,task,2021.1.4,Win32,40,628b806c463b948bc644b84f,629af6dd162e2b2a32cb5c0e,,,,,,,,,,,,,,,,,,,,,,,,,,,,,,,,,,,,,,,,,,,,,,,,,,,,,,,,,,,,,,,,,,vk,"[""v"",""k""]",0,"[1.77599999999984,1.9019999999998163,2.300999999999931]",1,1,0,1,0,1,,,,,,,,,,,,,,,,,,,,,,,,,,,,
,,,,,,,,,,5c4236103be7b70001fd01c5,29,Mężczyzna,2022-06-04_08h12.23.420,task,2021.1.4,Win32,40,628b806c463b948bc644b84f,629af6dd162e2b2a32cb5c0e,,,,,,,,,,,,,,,,,,,,,,,2,,,,,,,,,,Practice,3,(4x4) - 14,2,,,,,,,,,,,,,,,,"[""2""]",1,[2.0750000000000455],1,0,0,0,2,1,,,,,,,,,,,,,,,,,,,,,,,,,,,,,,,,,,,,,,,,,,,
,,,,,,,,,,5c4236103be7b70001fd01c5,29,Mężczyzna,2022-06-04_08h12.23.420,task,2021.1.4,Win32,40,628b806c463b948bc644b84f,629af6dd162e2b2a32cb5c0e,,,,,,,,,,X V Q F H G B L J M P D K C T S W R N Z,,,,,,,,,,,,,,,,,,,,,,,,,,,,,,,,,,,,,,,,,,,,,,,,,,,0,0,0,0,1,,,,,,,,,,,,,,,,,,,,,,,,,,,,,,,,,,,,,,
,,,,,,,,,,5c4236103be7b70001fd01c5,29,Mężczyzna,2022-06-04_08h12.23.420,task,2021.1.4,Win32,40,628b806c463b948bc644b84f,629af6dd162e2b2a32cb5c0e,,,,,,,,,,,,,,,,,,,,,,,9,,,,,,,,,,Practice,10,(20/2) - 1,9,,,,,,,,,,,,,,,,"[""9""]",1,[2.9010000000000673],1,0,0,0,9,1,,,,,,,,,,,,,,,,,,,,,,,,,,,,,,,,,,,,,,,,,,,
,,,,,,,,,,5c4236103be7b70001fd01c5,29,Mężczyzna,2022-06-04_08h12.23.420,task,2021.1.4,Win32,40,628b806c463b948bc644b84f,629af6dd162e2b2a32cb5c0e,,,,,,,,,,X V Q F H G B L J M P D K C T S W R N Z,,,,,,,,,,,,,,,,,,,,,,,,,,,,,,,,,,,,,,,,,,,,,,,,,,,1,0,1,0,1,,,,,,,,,,,,,,,,,,,,,,,,,,,,,,,,,,,,,,
,,,,,,,,,,5c4236103be7b70001fd01c5,29,Mężczyzna,2022-06-04_08h12.23.420,task,2021.1.4,Win32,40,628b806c463b948bc644b84f,629af6dd162e2b2a32cb5c0e,,,,,,,,,,,,,,,,,,,,,,,,,,,,,,,,,,,,,,,,,,,,,,,,,,,,,,,,,,,,,,,,,,gv,"[""g"",""v""]",0,"[1.2029999999999745,1.5270000000000437,2.5019999999999527]",1,2,0,2,0,1,,,,,,,,,,,,,,,,,,,,,,,,,,,,
,,,,,,,,,,5c4236103be7b70001fd01c5,29,Mężczyzna,2022-06-04_08h12.23.420,task,2021.1.4,Win32,40,628b806c463b948bc644b84f,629af6dd162e2b2a32cb5c0e,,,,,,,,,,,,,,,,,,,,,,,2,,,,,,,,,,Task,19,(6/2) - 1,2,,,,,,,,,,,,,,,,,,,1,,,,,,,,,,,,,,,,,,,,,space,19.321,"[""2""]",1,[3.1239999999997963],0,0,0,18,1,,,,,,,,,,,,,,,,,,
,,,,,,,,,,5c4236103be7b70001fd01c5,29,Mężczyzna,2022-06-04_08h12.23.420,task,2021.1.4,Win32,40,628b806c463b948bc644b84f,629af6dd162e2b2a32cb5c0e,,,,,,,,,,X V Q F H G B L J M P D K C T S W R N Z,,,,,,,,,,,,,,,,,,,,,,,,,,,,,,,,,,,,,,,,,,,,,,,,,,,,,,,,,,,,,,,,,,,,,,,,,,,,0,0,0,0,1,,,,,,,,,,,,,
,,,,,,,,,,5c4236103be7b70001fd01c5,29,Mężczyzna,2022-06-04_08h12.23.420,task,2021.1.4,Win32,40,628b806c463b948bc644b84f,629af6dd162e2b2a32cb5c0e,,,,,,,,,,,,,,,,,,,,,,,7,,,,,,,,,,Task,31,(4/2) + 5,7,,,,,,,,,,,,,,,,,,,1,,,,,,,,,,,,,,,,,,,,,,,"[""7""]",1,[2.2000000000000455],0,0,0,30,1,,,,,,,,,,,,,,,,,,
,,,,,,,,,,5c4236103be7b70001fd01c5,29,Mężczyzna,2022-06-04_08h12.23.420,task,2021.1.4,Win32,40,628b806c463b948bc644b84f,629af6dd162e2b2a32cb5c0e,,,,,,,,,,X V Q F H G B L J M P D K C T S W R N Z,,,,,,,,,,,,,,,,,,,,,,,,,,,,,,,,,,,,,,,,,,,,,,,,,,,,,,,,,,,,,,,,,,,,,,,,,,,,1,0,1,0,1,,,,,,,,,,,,,
,,,,,,,,,,5c4236103be7b70001fd01c5,29,Mężczyzna,2022-06-04_08h12.23.420,task,2021.1.4,Win32,40,628b806c463b948bc644b84f,629af6dd162e2b2a32cb5c0e,,,,,,,,,,,,,,,,,,,,,,,,,,,,,,,,,,,,,,,,,,,,,,,,,,,,,,,,,,,,,,,,,,,,,,,,,,,,,,,,,,,,,,,,,,,zb,"[""z"",""b""]",0,"[2.15300000000002,2.3029999999998836,3.2280000000000655]",1,ZB,0,0,0,0,1,,
,,,,,,,,,,5c4236103be7b70001fd01c5,29,Mężczyzna,2022-06-04_08h12.23.420,task,2021.1.4,Win32,40,628b806c463b948bc644b84f,629af6dd162e2b2a32cb5c0e,,,,,,,,,,,,,,,,,,,,,,,,,,,,,,,,,Task,15,(3x7) - 13,8,,,,,,,,,,,,,,,,,,,0,,,,,,,,,,,,,,,,,,,,,,,,0,,0,0,0,14,1,,,,,,,,,,,,,,,,,,
,,,,,,,,,,5c4236103be7b70001fd01c5,29,Mężczyzna,2022-06-04_08h12.23.420,task,2021.1.4,Win32,40,628b806c463b948bc644b84f,629af6dd162e2b2a32cb5c0e,,,,,,,,,,,,,,,,,,,,,,,0,,,,,,,,,,Task,8,(1x5) - 5,0,,,,,,,,,,,,,,,,,,,1,,,,,,,,,,,,,,,,,,,,,,,"[""0""]",1,[1.8450000000000273],0,1,1,7,1,,,,,,,,,,,,,,,,,,
,,,,,,,,,,5c4236103be7b70001fd01c5,29,Mężczyzna,2022-06-04_08h12.23.420,task,2021.1.4,Win32,40,628b806c463b948bc644b84f,629af6dd162e2b2a32cb5c0e,,,,,,,,,,X V Q F H G B L J M P D K C T S W R N Z,,,,,,,,,,,,,,,,,,,,,,,,,,,,,,,,,,,,,,,,,,,,,,,,,,,,,,,,,,,,,,,,,,,,,,,,,,,,0,0,0,0,1,,,,,,,,,,,,,
,,,,,,,,,,5c4236103be7b70001fd01c5,29,Mężczyzna,2022-06-04_08h12.23.420,task,2021.1.4,Win32,40,628b806c463b948bc644b84f,629af6dd162e2b2a32cb5c0e,,,,,,,,,,,,,,,,,,,,,,,3,,,,,,,,,,Task,3,(2x3) - 3,3,,,,,,,,,,,,,,,,,,,1,,,,,,,,,,,,,,,,,,,,,,,"[""3""]",1,[1.984000000000151],0,0,0,2,1,,,,,,,,,,,,,,,,,,
,,,,,,,,,,5c4236103be7b70001fd01c5,29,Mężczyzna,2022-06-04_08h12.23.420,task,2021.1.4,Win32,40,628b806c463b948bc644b84f,629af6dd162e2b2a32cb5c0e,,,,,,,,,,X V Q F H G B L J M P D K C T S W R N Z,,,,,,,,,,,,,,,,,,,,,,,,,,,,,,,,,,,,,,,,,,,,,,,,,,,,,,,,,,,,,,,,,,,,,,,,,,,,1,0,1,0,1,,,,,,,,,,,,,
,,,,,,,,,,5c4236103be7b70001fd01c5,29,Mężczyzna,2022-06-04_08h12.23.420,task,2021.1.4,Win32,40,628b806c463b948bc644b84f,629af6dd162e2b2a32cb5c0e,,,,,,,,,,,,,,,,,,,,,,,9,,,,,,,,,,Task,16,(3x8) - 15,9,,,,,,,,,,,,,,,,,,,1,,,,,,,,,,,,,,,,,,,,,,,"[""9""]",1,[3.3500000000001364],0,0,0,15,1,,,,,,,,,,,,,,,,,,
,,,,,,,,,,5c4236103be7b70001fd01c5,29,Mężczyzna,2022-06-04_08h12.23.420,task,2021.1.4,Win32,40,628b806c463b948bc644b84f,629af6dd162e2b2a32cb5c0e,,,,,,,,,,X V Q F H G B L J M P D K C T S W R N Z,,,,,,,,,,,,,,,,,,,,,,,,,,,,,,,,,,,,,,,,,,,,,,,,,,,,,,,,,,,,,,,,,,,,,,,,,,,,2,0,2,0,1,,,,,,,,,,,,,
,,,,,,,,,,5c4236103be7b70001fd01c5,29,Mężczyzna,2022-06-04_08h12.23.420,task,2021.1.4,Win32,40,628b806c463b948bc644b84f,629af6dd162e2b2a32cb5c0e,,,,,,,,,,,,,,,,,,,,,,,,,,,,,,,,,,,,,,,,,,,,,,,,,,,,,,,,,,,,,,,,,,,,,,,,,,,,,,,,,,,,,,,,,,,fhs,"[""f"",""h"",""s""]",0,"[1.2010000000000218,1.5510000000001583,1.6760000000001583,2.0499999999999545]",1,FHS,1,0,1,0,1,,
,,,,,,,,,,5c4236103be7b70001fd01c5,29,Mężczyzna,2022-06-04_08h12.23.420,task,2021.1.4,Win32,40,628b806c463b948bc644b84f,629af6dd162e2b2a32cb5c0e,,,,,,,,,,,,,,,,,,,,,,,4,,,,,,,,,,Task,28,(2x5) - 6,4,,,,,,,,,,,,,,,,,,,1,,,,,,,,,,,,,,,,,,,,,,,"[""4""]",1,[1.6259999999999764],0,0,0,27,1,,,,,,,,,,,,,,,,,,
,,,,,,,,,,5c4236103be7b70001fd01c5,29,Mężczyzna,2022-06-04_08h12.23.420,task,2021.1.4,Win32,40,628b806c463b948bc644b84f,629af6dd162e2b2a32cb5c0e,,,,,,,,,,X V Q F H G B L J M P D K C T S W R N Z,,,,,,,,,,,,,,,,,,,,,,,,,,,,,,,,,,,,,,,,,,,,,,,,,,,,,,,,,,,,,,,,,,,,,,,,,,,,0,0,0,0,1,,,,,,,,,,,,,
,,,,,,,,,,5c4236103be7b70001fd01c5,29,Mężczyzna,2022-06-04_08h12.23.420,task,2021.1.4,Win32,40,628b806c463b948bc644b84f,629af6dd162e2b2a32cb5c0e,,,,,,,,,,,,,,,,,,,,,,,0,,,,,,,,,,Task,25,(10/5) - 2,0,,,,,,,,,,,,,,,,,,,1,,,,,,,,,,,,,,,,,,,,,,,"[""0""]",1,[3.050999999999931],0,0,0,24,1,,,,,,,,,,,,,,,,,,
,,,,,,,,,,5c4236103be7b70001fd01c5,29,Mężczyzna,2022-06-04_08h12.23.420,task,2021.1.4,Win32,40,628b806c463b948bc644b84f,629af6dd162e2b2a32cb5c0e,,,,,,,,,,X V Q F H G B L J M P D K C T S W R N Z,,,,,,,,,,,,,,,,,,,,,,,,,,,,,,,,,,,,,,,,,,,,,,,,,,,,,,,,,,,,,,,,,,,,,,,,,,,,1,0,1,0,1,,,,,,,,,,,,,
,,,,,,,,,,5c4236103be7b70001fd01c5,29,Mężczyzna,2022-06-04_08h12.23.420,task,2021.1.4,Win32,40,628b806c463b948bc644b84f,629af6dd162e2b2a32cb5c0e,,,,,,,,,,,,,,,,,,,,,,,0,,,,,,,,,,Task,33,(1/1) - 1,0,,,,,,,,,,,,,,,,,,,1,,,,,,,,,,,,,,,,,,,,,,,"[""0""]",1,[2.1520000000000437],0,0,0,32,1,,,,,,,,,,,,,,,,,,
,,,,,,,,,,5c4236103be7b70001fd01c5,29,Mężczyzna,2022-06-04_08h12.23.420,task,2021.1.4,Win32,40,628b806c463b948bc644b84f,629af6dd162e2b2a32cb5c0e,,,,,,,,,,X V Q F H G B L J M P D K C T S W R N Z,,,,,,,,,,,,,,,,,,,,,,,,,,,,,,,,,,,,,,,,,,,,,,,,,,,,,,,,,,,,,,,,,,,,,,,,,,,,2,0,2,0,1,,,,,,,,,,,,,
,,,,,,,,,,5c4236103be7b70001fd01c5,29,Mężczyzna,2022-06-04_08h12.23.420,task,2021.1.4,Win32,40,628b806c463b948bc644b84f,629af6dd162e2b2a32cb5c0e,,,,,,,,,,,,,,,,,,,,,,,2,,,,,,,,,,Task,2,(2x2) - 2,2,,,,,,,,,,,,,,,,,,,1,,,,,,,,,,,,,,,,,,,,,,,"[""2""]",1,[2.525000000000091],0,0,0,1,1,,,,,,,,,,,,,,,,,,
,,,,,,,,,,5c4236103be7b70001fd01c5,29,Mężczyzna,2022-06-04_08h12.23.420,task,2021.1.4,Win32,40,628b806c463b948bc644b84f,629af6dd162e2b2a32cb5c0e,,,,,,,,,,X V Q F H G B L J M P D K C T S W R N Z,,,,,,,,,,,,,,,,,,,,,,,,,,,,,,,,,,,,,,,,,,,,,,,,,,,,,,,,,,,,,,,,,,,,,,,,,,,,3,0,3,0,1,,,,,,,,,,,,,
,,,,,,,,,,5c4236103be7b70001fd01c5,29,Mężczyzna,2022-06-04_08h12.23.420,task,2021.1.4,Win32,40,628b806c463b948bc644b84f,629af6dd162e2b2a32cb5c0e,,,,,,,,,,,,,,,,,,,,,,,,,,,,,,,,,,,,,,,,,,,,,,,,,,,,,,,,,,,,,,,,,,,,,,,,,,,,,,,,,,,,,,,,,,,vxmm,"[""v"",""x"",""m"",""m""]",0,"[1.4660000000001219,2.008000000000038,2.383000000000038,2.55800000000022,3.9830000000001746]",1,VXMM,2,0,2,0,1,,
,,,,,,,,,,5c4236103be7b70001fd01c5,29,Mężczyzna,2022-06-04_08h12.23.420,task,2021.1.4,Win32,40,628b806c463b948bc644b84f,629af6dd162e2b2a32cb5c0e,,,,,,,,,,,,,,,,,,,,,,,8,,,,,,,,,,Task,39,(5x3) - 7,8,,,,,,,,,,,,,,,,,,,1,,,,,,,,,,,,,,,,,,,,,,,"[""8""]",1,[2.102000000000089],0,0,0,38,1,,,,,,,,,,,,,,,,,,
,,,,,,,,,,5c4236103be7b70001fd01c5,29,Mężczyzna,2022-06-04_08h12.23.420,task,2021.1.4,Win32,40,628b806c463b948bc644b84f,629af6dd162e2b2a32cb5c0e,,,,,,,,,,X V Q F H G B L J M P D K C T S W R N Z,,,,,,,,,,,,,,,,,,,,,,,,,,,,,,,,,,,,,,,,,,,,,,,,,,,,,,,,,,,,,,,,,,,,,,,,,,,,0,0,0,0,1,,,,,,,,,,,,,
,,,,,,,,,,5c4236103be7b70001fd01c5,29,Mężczyzna,2022-06-04_08h12.23.420,task,2021.1.4,Win32,40,628b806c463b948bc644b84f,629af6dd162e2b2a32cb5c0e,,,,,,,,,,,,,,,,,,,,,,,7,,,,,,,,,,Task,31,(4/2) + 5,7,,,,,,,,,,,,,,,,,,,1,,,,,,,,,,,,,,,,,,,,,,,"[""7""]",1,[2.3120000000001255],0,0,0,30,1,,,,,,,,,,,,,,,,,,
,,,,,,,,,,5c4236103be7b70001fd01c5,29,Mężczyzna,2022-06-04_08h12.23.420,task,2021.1.4,Win32,40,628b806c463b948bc644b84f,629af6dd162e2b2a32cb5c0e,,,,,,,,,,X V Q F H G B L J M P D K C T S W R N Z,,,,,,,,,,,,,,,,,,,,,,,,,,,,,,,,,,,,,,,,,,,,,,,,,,,,,,,,,,,,,,,,,,,,,,,,,,,,1,0,1,0,1,,,,,,,,,,,,,
,,,,,,,,,,5c4236103be7b70001fd01c5,29,Mężczyzna,2022-06-04_08h12.23.420,task,2021.1.4,Win32,40,628b806c463b948bc644b84f,629af6dd162e2b2a32cb5c0e,,,,,,,,,,,,,,,,,,,,,,,0,,,,,,,,,,Task,33,(1/1) - 1,0,,,,,,,,,,,,,,,,,,,1,,,,,,,,,,,,,,,,,,,,,,,"[""0""]",1,[1.6009999999998854],0,0,0,32,1,,,,,,,,,,,,,,,,,,
,,,,,,,,,,5c4236103be7b70001fd01c5,29,Mężczyzna,2022-06-04_08h12.23.420,task,2021.1.4,Win32,40,628b806c463b948bc644b84f,629af6dd162e2b2a32cb5c0e,,,,,,,,,,X V Q F H G B L J M P D K C T S W R N Z,,,,,,,,,,,,,,,,,,,,,,,,,,,,,,,,,,,,,,,,,,,,,,,,,,,,,,,,,,,,,,,,,,,,,,,,,,,,2,0,2,0,1,,,,,,,,,,,,,
,,,,,,,,,,5c4236103be7b70001fd01c5,29,Mężczyzna,2022-06-04_08h12.23.420,task,2021.1.4,Win32,40,628b806c463b948bc644b84f,629af6dd162e2b2a32cb5c0e,,,,,,,,,,,,,,,,,,,,,,,0,,,,,,,,,,Task,8,(1x5) - 5,0,,,,,,,,,,,,,,,,,,,1,,,,,,,,,,,,,,,,,,,,,,,"[""0""]",1,[2.8070000000000164],0,0,0,7,1,,,,,,,,,,,,,,,,,,
,,,,,,,,,,5c4236103be7b70001fd01c5,29,Mężczyzna,2022-06-04_08h12.23.420,task,2021.1.4,Win32,40,628b806c463b948bc644b84f,629af6dd162e2b2a32cb5c0e,,,,,,,,,,X V Q F H G B L J M P D K C T S W R N Z,,,,,,,,,,,,,,,,,,,,,,,,,,,,,,,,,,,,,,,,,,,,,,,,,,,,,,,,,,,,,,,,,,,,,,,,,,,,3,0,3,0,1,,,,,,,,,,,,,
,,,,,,,,,,5c4236103be7b70001fd01c5,29,Mężczyzna,2022-06-04_08h12.23.420,task,2021.1.4,Win32,40,628b806c463b948bc644b84f,629af6dd162e2b2a32cb5c0e,,,,,,,,,,,,,,,,,,,,,,,5,,,,,,,,,,Task,12,(4x4) - 11,5,,,,,,,,,,,,,,,,,,,1,,,,,,,,,,,,,,,,,,,,,,,"[""5""]",1,[1.7010000000000218],0,0,0,11,1,,,,,,,,,,,,,,,,,,
,,,,,,,,,,5c4236103be7b70001fd01c5,29,Mężczyzna,2022-06-04_08h12.23.420,task,2021.1.4,Win32,40,628b806c463b948bc644b84f,629af6dd162e2b2a32cb5c0e,,,,,,,,,,X V Q F H G B L J M P D K C T S W R N Z,,,,,,,,,,,,,,,,,,,,,,,,,,,,,,,,,,,,,,,,,,,,,,,,,,,,,,,,,,,,,,,,,,,,,,,,,,,,4,0,4,0,1,,,,,,,,,,,,,
,,,,,,,,,,5c4236103be7b70001fd01c5,29,Mężczyzna,2022-06-04_08h12.23.420,task,2021.1.4,Win32,40,628b806c463b948bc644b84f,629af6dd162e2b2a32cb5c0e,,,,,,,,,,,,,,,,,,,,,,,,,,,,,,,,,,,,,,,,,,,,,,,,,,,,,,,,,,,,,,,,,,,,,,,,,,,,,,,,,,,,,,,,,,,mmgbx,"[""m"",""m"",""g"",""b"",""x""]",0,"[1.3520000000000891,1.52800000000002,2.02800000000002,2.227000000000089,2.7080000000000837,3.2070000000001073]",1,MMGBX,3,0,3,0,1,,
,,,,,,,,,,5c4236103be7b70001fd01c5,29,Mężczyzna,2022-06-04_08h12.23.420,task,2021.1.4,Win32,40,628b806c463b948bc644b84f,629af6dd162e2b2a32cb5c0e,,,,,,,,,,,,,,,,,,,,,,,2,,,,,,,,,,Task,10,(2x5) - 8,2,,,,,,,,,,,,,,,,,,,1,,,,,,,,,,,,,,,,,,,,,,,"[""2""]",1,[1.7010000000000218],0,0,0,9,1,,,,,,,,,,,,,,,,,,
,,,,,,,,,,5c4236103be7b70001fd01c5,29,Mężczyzna,2022-06-04_08h12.23.420,task,2021.1.4,Win32,40,628b806c463b948bc644b84f,629af6dd162e2b2a32cb5c0e,,,,,,,,,,X V Q F H G B L J M P D K C T S W R N Z,,,,,,,,,,,,,,,,,,,,,,,,,,,,,,,,,,,,,,,,,,,,,,,,,,,,,,,,,,,,,,,,,,,,,,,,,,,,0,0,0,0,1,,,,,,,,,,,,,
,,,,,,,,,,5c4236103be7b70001fd01c5,29,Mężczyzna,2022-06-04_08h12.23.420,task,2021.1.4,Win32,40,628b806c463b948bc644b84f,629af6dd162e2b2a32cb5c0e,,,,,,,,,,,,,,,,,,,,,,,3,,,,,,,,,,Task,35,(1x2) + 1,3,,,,,,,,,,,,,,,,,,,1,,,,,,,,,,,,,,,,,,,,,,,"[""3""]",1,[1.7019999999999982],0,0,0,34,1,,,,,,,,,,,,,,,,,,
,,,,,,,,,,5c4236103be7b70001fd01c5,29,Mężczyzna,2022-06-04_08h12.23.420,task,2021.1.4,Win32,40,628b806c463b948bc644b84f,629af6dd162e2b2a32cb5c0e,,,,,,,,,,X V Q F H G B L J M P D K C T S W R N Z,,,,,,,,,,,,,,,,,,,,,,,,,,,,,,,,,,,,,,,,,,,,,,,,,,,,,,,,,,,,,,,,,,,,,,,,,,,,1,0,1,0,1,,,,,,,,,,,,,
,,,,,,,,,,5c4236103be7b70001fd01c5,29,Mężczyzna,2022-06-04_08h12.23.420,task,2021.1.4,Win32,40,628b806c463b948bc644b84f,629af6dd162e2b2a32cb5c0e,,,,,,,,,,,,,,,,,,,,,,,1,,,,,,,,,,Task,7,(3x7) - 12,9,,,,,,,,,,,,,,,,,,,0,,,,,,,,,,,,,,,,,,,,,,,"[""1""]",0,[1.9329999999999927],0,0,0,6,1,,,,,,,,,,,,,,,,,,
,,,,,,,,,,5c4236103be7b70001fd01c5,29,Mężczyzna,2022-06-04_08h12.23.420,task,2021.1.4,Win32,40,628b806c463b948bc644b84f,629af6dd162e2b2a32cb5c0e,,,,,,,,,,,,,,,,,,,,,,,,,,,,,,,,,Task,16,(3x8) - 15,9,,,,,,,,,,,,,,,,,,,0,,,,,,,,,,,,,,,,,,,,,,,,0,,0,1,1,15,1,,,,,,,,,,,,,,,,,,
,,,,,,,,,,5c4236103be7b70001fd01c5,29,Mężczyzna,2022-06-04_08h12.23.420,task,2021.1.4,Win32,40,628b806c463b948bc644b84f,629af6dd162e2b2a32cb5c0e,,,,,,,,,,,,,,,,,,,,,,,6,,,,,,,,,,Task,37,(3/3) + 5,6,,,,,,,,,,,,,,,,,,,1,,,,,,,,,,,,,,,,,,,,,,,"[""6""]",1,[3.625],0,2,2,36,1,,,,,,,,,,,,,,,,,,
,,,,,,,,,,5c4236103be7b70001fd01c5,29,Mężczyzna,2022-06-04_08h12.23.420,task,2021.1.4,Win32,40,628b806c463b948bc644b84f,629af6dd162e2b2a32cb5c0e,,,,,,,,,,X V Q F H G B L J M P D K C T S W R N Z,,,,,,,,,,,,,,,,,,,,,,,,,,,,,,,,,,,,,,,,,,,,,,,,,,,,,,,,,,,,,,,,,,,,,,,,,,,,2,0,2,0,1,,,,,,,,,,,,,
,,,,,,,,,,5c4236103be7b70001fd01c5,29,Mężczyzna,2022-06-04_08h12.23.420,task,2021.1.4,Win32,40,628b806c463b948bc644b84f,629af6dd162e2b2a32cb5c0e,,,,,,,,,,,,,,,,,,,,,,,0,,,,,,,,,,Task,8,(1x5) - 5,0,,,,,,,,,,,,,,,,,,,1,,,,,,,,,,,,,,,,,,,,,,,"[""0""]",1,[1.5299999999999727],0,0,0,7,1,,,,,,,,,,,,,,,,,,
,,,,,,,,,,5c4236103be7b70001fd01c5,29,Mężczyzna,2022-06-04_08h12.23.420,task,2021.1.4,Win32,40,628b806c463b948bc644b84f,629af6dd162e2b2a32cb5c0e,,,,,,,,,,X V Q F H G B L J M P D K C T S W R N Z,,,,,,,,,,,,,,,,,,,,,,,,,,,,,,,,,,,,,,,,,,,,,,,,,,,,,,,,,,,,,,,,,,,,,,,,,,,,3,0,3,0,1,,,,,,,,,,,,,
,,,,,,,,,,5c4236103be7b70001fd01c5,29,Mężczyzna,2022-06-04_08h12.23.420,task,2021.1.4,Win32,40,628b806c463b948bc644b84f,629af6dd162e2b2a32cb5c0e,,,,,,,,,,,,,,,,,,,,,,,6,,,,,,,,,,Task,5,(2x3) + 0,6,,,,,,,,,,,,,,,,,,,1,,,,,,,,,,,,,,,,,,,,,,,"[""6""]",1,[2.025000000000091],0,0,0,4,1,,,,,,,,,,,,,,,,,,
,,,,,,,,,,5c4236103be7b70001fd01c5,29,Mężczyzna,2022-06-04_08h12.23.420,task,2021.1.4,Win32,40,628b806c463b948bc644b84f,629af6dd162e2b2a32cb5c0e,,,,,,,,,,X V Q F H G B L J M P D K C T S W R N Z,,,,,,,,,,,,,,,,,,,,,,,,,,,,,,,,,,,,,,,,,,,,,,,,,,,,,,,,,,,,,,,,,,,,,,,,,,,,4,0,4,0,1,,,,,,,,,,,,,
,,,,,,,,,,5c4236103be7b70001fd01c5,29,Mężczyzna,2022-06-04_08h12.23.420,task,2021.1.4,Win32,40,628b806c463b948bc644b84f,629af6dd162e2b2a32cb5c0e,,,,,,,,,,,,,,,,,,,,,,,,,,,,,,,,,Task,18,(16/4) - 3,1,,,,,,,,,,,,,,,,,,,0,,,,,,,,,,,,,,,,,,,,,,,,0,,0,0,0,17,1,,,,,,,,,,,,,,,,,,
,,,,,,,,,,5c4236103be7b70001fd01c5,29,Mężczyzna,2022-06-04_08h12.23.420,task,2021.1.4,Win32,40,628b806c463b948bc644b84f,629af6dd162e2b2a32cb5c0e,,,,,,,,,,,,,,,,,,,,,,,3,,,,,,,,,,Task,35,(1x2) + 1,3,,,,,,,,,,,,,,,,,,,1,,,,,,,,,,,,,,,,,,,,,,,"[""3""]",1,[1.1140000000000327],0,1,1,34,1,,,,,,,,,,,,,,,,,,
,,,,,,,,,,5c4236103be7b70001fd01c5,29,Mężczyzna,2022-06-04_08h12.23.420,task,2021.1.4,Win32,40,628b806c463b948bc644b84f,629af6dd162e2b2a32cb5c0e,,,,,,,,,,X V Q F H G B L J M P D K C T S W R N Z,,,,,,,,,,,,,,,,,,,,,,,,,,,,,,,,,,,,,,,,,,,,,,,,,,,,,,,,,,,,,,,,,,,,,,,,,,,,5,0,5,0,1,,,,,,,,,,,,,
,,,,,,,,,,5c4236103be7b70001fd01c5,29,Mężczyzna,2022-06-04_08h12.23.420,task,2021.1.4,Win32,40,628b806c463b948bc644b84f,629af6dd162e2b2a32cb5c0e,,,,,,,,,,,,,,,,,,,,,,,,,,,,,,,,,,,,,,,,,,,,,,,,,,,,,,,,,,,,,,,,,,,,,,,,,,,,,,,,,,,,,,,,,,,ntjljf,"[""n"",""t"",""j"",""l"",""j"",""f""]",0,"[1.5769999999999982,2.00200000000018,2.6770000000001346,3.2840000000001055,3.961999999999989,4.125999999999976,5.151000000000067]",1,NTJLJF,4,0,4,0,1,,
,,,,,,,,,,5c4236103be7b70001fd01c5,29,Mężczyzna,2022-06-04_08h12.23.420,task,2021.1.4,Win32,40,628b806c463b948bc644b84f,629af6dd162e2b2a32cb5c0e,,,,,,,,,,,,,,,,,,,,,,,0,,,,,,,,,,Task,3,(2x3) - 3,3,,,,,,,,,,,,,,,,,,,0,,,,,,,,,,,,,,,,,,,,,,,"[""0""]",0,[1.25],0,0,0,2,1,,,,,,,,,,,,,,,,,,
,,,,,,,,,,5c4236103be7b70001fd01c5,29,Mężczyzna,2022-06-04_08h12.23.420,task,2021.1.4,Win32,40,628b806c463b948bc644b84f,629af6dd162e2b2a32cb5c0e,,,,,,,,,,,,,,,,,,,,,,,1,,,,,,,,,,Task,7,(3x7) - 12,9,,,,,,,,,,,,,,,,,,,0,,,,,,,,,,,,,,,,,,,,,,,"[""1""]",0,[3.7000000000000455],0,1,1,6,1,,,,,,,,,,,,,,,,,,
,,,,,,,,,,5c4236103be7b70001fd01c5,29,Mężczyzna,2022-06-04_08h12.23.420,task,2021.1.4,Win32,40,628b806c463b948bc644b84f,629af6dd162e2b2a32cb5c0e,,,,,,,,,,,,,,,,,,,,,,,,,,,,,,,,,Task,24,(2x2) + 5,9,,,,,,,,,,,,,,,,,,,0,,,,,,,,,,,,,,,,,,,,,,,,0,,0,2,2,23,1,,,,,,,,,,,,,,,,,,
,,,,,,,,,,5c4236103be7b70001fd01c5,29,Mężczyzna,2022-06-04_08h12.23.420,task,2021.1.4,Win32,40,628b806c463b948bc644b84f,629af6dd162e2b2a32cb5c0e,,,,,,,,,,,,,,,,,,,,,,,1,,,,,,,,,,Task,18,(16/4) - 3,1,,,,,,,,,,,,,,,,,,,1,,,,,,,,,,,,,,,,,,,,,,,"[""1""]",1,[2.477000000000089],0,3,3,17,1,,,,,,,,,,,,,,,,,,
,,,,,,,,,,5c4236103be7b70001fd01c5,29,Mężczyzna,2022-06-04_08h12.23.420,task,2021.1.4,Win32,40,628b806c463b948bc644b84f,629af6dd162e2b2a32cb5c0e,,,,,,,,,,X V Q F H G B L J M P D K C T S W R N Z,,,,,,,,,,,,,,,,,,,,,,,,,,,,,,,,,,,,,,,,,,,,,,,,,,,,,,,,,,,,,,,,,,,,,,,,,,,,0,0,0,0,1,,,,,,,,,,,,,
,,,,,,,,,,5c4236103be7b70001fd01c5,29,Mężczyzna,2022-06-04_08h12.23.420,task,2021.1.4,Win32,40,628b806c463b948bc644b84f,629af6dd162e2b2a32cb5c0e,,,,,,,,,,,,,,,,,,,,,,,6,,,,,,,,,,Task,5,(2x3) + 0,6,,,,,,,,,,,,,,,,,,,1,,,,,,,,,,,,,,,,,,,,,,,"[""6""]",1,[1.5],0,0,0,4,1,,,,,,,,,,,,,,,,,,
