key_resp_15.keys,key_resp_15.rt,key_resp_13.keys,key_resp_13.corr,key_resp_13.rt,ranodm_loop.thisRepN,ranodm_loop.thisTrialN,ranodm_loop.thisN,ranodm_loop.thisIndex,ranodm_loop.ran,participant,Wiek*,Płeć,date,expName,psychopyVersion,OS,frameRate,study_id,session,key_resp_16.keys,key_resp_16.rt,key_resp_4.keys,key_resp_4.rt,next_letter.thisRepN,next_letter.thisTrialN,next_letter.thisN,next_letter.thisIndex,next_letter.ran,letter,simple_recall,key_resp_5.keys,key_resp_5.rt,simple_recall_corr,simple_recall_corrkeys,next_level.thisRepN,next_level.thisTrialN,next_level.thisN,next_level.thisIndex,next_level.ran,key_resp_2.keys,key_resp_2.rt,digit_answer,key_resp.keys,key_resp.corr,key_resp.rt,RT_list,next_equation.thisRepN,next_equation.thisTrialN,next_equation.thisN,next_equation.thisIndex,next_equation.ran,Task,Trial,Problem,Operation_answer,processing_score,sumRT,meanRT,sumdiff,sd,RT,key_resp_3.keys,key_resp_3.rt,repeat_practice.thisRepN,repeat_practice.thisTrialN,repeat_practice.thisN,repeat_practice.thisIndex,repeat_practice.ran,key_resp_6.keys,key_resp_6.rt,key_resp_11.keys,key_resp_11.corr,key_resp_11.rt,operation_correct,repeat_if_wrong_prac.thisRepN,repeat_if_wrong_prac.thisTrialN,repeat_if_wrong_prac.thisN,repeat_if_wrong_prac.thisIndex,repeat_if_wrong_prac.ran,span_size_prac.thisRepN,span_size_prac.thisTrialN,span_size_prac.thisN,span_size_prac.thisIndex,span_size_prac.ran,complex_recall_practice,key_resp_9.keys,key_resp_9.corr,key_resp_9.rt,complex_prac_corr,span_recall_prac.thisRepN,span_recall_prac.thisTrialN,span_recall_prac.thisN,span_recall_prac.thisIndex,span_recall_prac.ran,key_resp_10.keys,key_resp_10.rt,key_resp_7.keys,key_resp_7.corr,key_resp_7.rt,repeat_if_wrong.thisRepN,repeat_if_wrong.thisTrialN,repeat_if_wrong.thisN,repeat_if_wrong.thisIndex,repeat_if_wrong.ran,span_size.thisRepN,span_size.thisTrialN,span_size.thisN,span_size.thisIndex,span_size.ran,complex_recall,key_resp_8.keys,key_resp_8.corr,key_resp_8.rt,complex_recall_corr,complex_recall_corrkeys,span_recall.thisRepN,span_recall.thisTrialN,span_recall.thisN,span_recall.thisIndex,span_recall.ran,key_resp_12.keys,key_resp_12.rt
space,3.5861,"[""comma""]",0,[0.7390999999940391],0,0,0,0,1,5c4b42666634320001598ff4,22,Kobieta,2022-06-04_08h42.08.544,task,2021.1.4,Win32,60.06727535,628b806c463b948bc644b84f,629afa72e25fde1b1b4c653d,,,,,,,,,,,,,,,,,,,,,,,,,,,,,,,,,,,,,,,,,,,,,,,,,,,,,,,,,,,,,,,,,,,,,,,,,,,,,,,,,,,,,,,,,,,,,,,,,,,,,,,
,,"[""comma""]",0,[0.9177000000178808],1,0,1,0,1,5c4b42666634320001598ff4,22,Kobieta,2022-06-04_08h42.08.544,task,2021.1.4,Win32,60.06727535,628b806c463b948bc644b84f,629afa72e25fde1b1b4c653d,,,,,,,,,,,,,,,,,,,,,,,,,,,,,,,,,,,,,,,,,,,,,,,,,,,,,,,,,,,,,,,,,,,,,,,,,,,,,,,,,,,,,,,,,,,,,,,,,,,,,,,
,,"[""period""]",0,[0.40840000000596177],2,0,2,0,1,5c4b42666634320001598ff4,22,Kobieta,2022-06-04_08h42.08.544,task,2021.1.4,Win32,60.06727535,628b806c463b948bc644b84f,629afa72e25fde1b1b4c653d,,,,,,,,,,,,,,,,,,,,,,,,,,,,,,,,,,,,,,,,,,,,,,,,,,,,,,,,,,,,,,,,,,,,,,,,,,,,,,,,,,,,,,,,,,,,,,,,,,,,,,,
,,"[""comma""]",0,[0.3509999999999991],3,0,3,0,1,5c4b42666634320001598ff4,22,Kobieta,2022-06-04_08h42.08.544,task,2021.1.4,Win32,60.06727535,628b806c463b948bc644b84f,629afa72e25fde1b1b4c653d,,,,,,,,,,,,,,,,,,,,,,,,,,,,,,,,,,,,,,,,,,,,,,,,,,,,,,,,,,,,,,,,,,,,,,,,,,,,,,,,,,,,,,,,,,,,,,,,,,,,,,,
,,"[""period""]",0,[0.3844999999999956],4,0,4,0,1,5c4b42666634320001598ff4,22,Kobieta,2022-06-04_08h42.08.544,task,2021.1.4,Win32,60.06727535,628b806c463b948bc644b84f,629afa72e25fde1b1b4c653d,,,,,,,,,,,,,,,,,,,,,,,,,,,,,,,,,,,,,,,,,,,,,,,,,,,,,,,,,,,,,,,,,,,,,,,,,,,,,,,,,,,,,,,,,,,,,,,,,,,,,,,
,,"[""period""]",0,[0.3071999999880788],5,0,5,0,1,5c4b42666634320001598ff4,22,Kobieta,2022-06-04_08h42.08.544,task,2021.1.4,Win32,60.06727535,628b806c463b948bc644b84f,629afa72e25fde1b1b4c653d,,,,,,,,,,,,,,,,,,,,,,,,,,,,,,,,,,,,,,,,,,,,,,,,,,,,,,,,,,,,,,,,,,,,,,,,,,,,,,,,,,,,,,,,,,,,,,,,,,,,,,,
,,"[""comma""]",0,[0.43480000001192565],6,0,6,0,1,5c4b42666634320001598ff4,22,Kobieta,2022-06-04_08h42.08.544,task,2021.1.4,Win32,60.06727535,628b806c463b948bc644b84f,629afa72e25fde1b1b4c653d,,,,,,,,,,,,,,,,,,,,,,,,,,,,,,,,,,,,,,,,,,,,,,,,,,,,,,,,,,,,,,,,,,,,,,,,,,,,,,,,,,,,,,,,,,,,,,,,,,,,,,,
,,"[""period""]",0,[0.32919999998807725],7,0,7,0,1,5c4b42666634320001598ff4,22,Kobieta,2022-06-04_08h42.08.544,task,2021.1.4,Win32,60.06727535,628b806c463b948bc644b84f,629afa72e25fde1b1b4c653d,,,,,,,,,,,,,,,,,,,,,,,,,,,,,,,,,,,,,,,,,,,,,,,,,,,,,,,,,,,,,,,,,,,,,,,,,,,,,,,,,,,,,,,,,,,,,,,,,,,,,,,
,,"[""period""]",0,[0.3239000000059562],8,0,8,0,1,5c4b42666634320001598ff4,22,Kobieta,2022-06-04_08h42.08.544,task,2021.1.4,Win32,60.06727535,628b806c463b948bc644b84f,629afa72e25fde1b1b4c653d,,,,,,,,,,,,,,,,,,,,,,,,,,,,,,,,,,,,,,,,,,,,,,,,,,,,,,,,,,,,,,,,,,,,,,,,,,,,,,,,,,,,,,,,,,,,,,,,,,,,,,,
,,"[""period""]",0,[0.2856999999880827],9,0,9,0,1,5c4b42666634320001598ff4,22,Kobieta,2022-06-04_08h42.08.544,task,2021.1.4,Win32,60.06727535,628b806c463b948bc644b84f,629afa72e25fde1b1b4c653d,,,,,,,,,,,,,,,,,,,,,,,,,,,,,,,,,,,,,,,,,,,,,,,,,,,,,,,,,,,,,,,,,,,,,,,,,,,,,,,,,,,,,,,,,,,,,,,,,,,,,,,
,,"[""comma""]",0,[0.43409999999403936],10,0,10,0,1,5c4b42666634320001598ff4,22,Kobieta,2022-06-04_08h42.08.544,task,2021.1.4,Win32,60.06727535,628b806c463b948bc644b84f,629afa72e25fde1b1b4c653d,,,,,,,,,,,,,,,,,,,,,,,,,,,,,,,,,,,,,,,,,,,,,,,,,,,,,,,,,,,,,,,,,,,,,,,,,,,,,,,,,,,,,,,,,,,,,,,,,,,,,,,
,,"[""comma""]",0,[0.3395999999940358],11,0,11,0,1,5c4b42666634320001598ff4,22,Kobieta,2022-06-04_08h42.08.544,task,2021.1.4,Win32,60.06727535,628b806c463b948bc644b84f,629afa72e25fde1b1b4c653d,,,,,,,,,,,,,,,,,,,,,,,,,,,,,,,,,,,,,,,,,,,,,,,,,,,,,,,,,,,,,,,,,,,,,,,,,,,,,,,,,,,,,,,,,,,,,,,,,,,,,,,
,,"[""period""]",0,[0.3835999999940469],12,0,12,0,1,5c4b42666634320001598ff4,22,Kobieta,2022-06-04_08h42.08.544,task,2021.1.4,Win32,60.06727535,628b806c463b948bc644b84f,629afa72e25fde1b1b4c653d,,,,,,,,,,,,,,,,,,,,,,,,,,,,,,,,,,,,,,,,,,,,,,,,,,,,,,,,,,,,,,,,,,,,,,,,,,,,,,,,,,,,,,,,,,,,,,,,,,,,,,,
,,"[""comma""]",0,[0.36769999998807634],13,0,13,0,1,5c4b42666634320001598ff4,22,Kobieta,2022-06-04_08h42.08.544,task,2021.1.4,Win32,60.06727535,628b806c463b948bc644b84f,629afa72e25fde1b1b4c653d,,,,,,,,,,,,,,,,,,,,,,,,,,,,,,,,,,,,,,,,,,,,,,,,,,,,,,,,,,,,,,,,,,,,,,,,,,,,,,,,,,,,,,,,,,,,,,,,,,,,,,,
,,"[""period""]",0,[0.2504000000059676],14,0,14,0,1,5c4b42666634320001598ff4,22,Kobieta,2022-06-04_08h42.08.544,task,2021.1.4,Win32,60.06727535,628b806c463b948bc644b84f,629afa72e25fde1b1b4c653d,,,,,,,,,,,,,,,,,,,,,,,,,,,,,,,,,,,,,,,,,,,,,,,,,,,,,,,,,,,,,,,,,,,,,,,,,,,,,,,,,,,,,,,,,,,,,,,,,,,,,,,
,,"[""period""]",0,[0.2674999999999983],15,0,15,0,1,5c4b42666634320001598ff4,22,Kobieta,2022-06-04_08h42.08.544,task,2021.1.4,Win32,60.06727535,628b806c463b948bc644b84f,629afa72e25fde1b1b4c653d,,,,,,,,,,,,,,,,,,,,,,,,,,,,,,,,,,,,,,,,,,,,,,,,,,,,,,,,,,,,,,,,,,,,,,,,,,,,,,,,,,,,,,,,,,,,,,,,,,,,,,,
,,"[""period""]",0,[0.36909999999404874],16,0,16,0,1,5c4b42666634320001598ff4,22,Kobieta,2022-06-04_08h42.08.544,task,2021.1.4,Win32,60.06727535,628b806c463b948bc644b84f,629afa72e25fde1b1b4c653d,,,,,,,,,,,,,,,,,,,,,,,,,,,,,,,,,,,,,,,,,,,,,,,,,,,,,,,,,,,,,,,,,,,,,,,,,,,,,,,,,,,,,,,,,,,,,,,,,,,,,,,
,,"[""comma""]",0,[0.3003000000119158],17,0,17,0,1,5c4b42666634320001598ff4,22,Kobieta,2022-06-04_08h42.08.544,task,2021.1.4,Win32,60.06727535,628b806c463b948bc644b84f,629afa72e25fde1b1b4c653d,,,,,,,,,,,,,,,,,,,,,,,,,,,,,,,,,,,,,,,,,,,,,,,,,,,,,,,,,,,,,,,,,,,,,,,,,,,,,,,,,,,,,,,,,,,,,,,,,,,,,,,
,,"[""comma""]",0,[0.3333000000119313],18,0,18,0,1,5c4b42666634320001598ff4,22,Kobieta,2022-06-04_08h42.08.544,task,2021.1.4,Win32,60.06727535,628b806c463b948bc644b84f,629afa72e25fde1b1b4c653d,,,,,,,,,,,,,,,,,,,,,,,,,,,,,,,,,,,,,,,,,,,,,,,,,,,,,,,,,,,,,,,,,,,,,,,,,,,,,,,,,,,,,,,,,,,,,,,,,,,,,,,
,,"[""period""]",0,[0.2575000000000074],19,0,19,0,1,5c4b42666634320001598ff4,22,Kobieta,2022-06-04_08h42.08.544,task,2021.1.4,Win32,60.06727535,628b806c463b948bc644b84f,629afa72e25fde1b1b4c653d,,,,,,,,,,,,,,,,,,,,,,,,,,,,,,,,,,,,,,,,,,,,,,,,,,,,,,,,,,,,,,,,,,,,,,,,,,,,,,,,,,,,,,,,,,,,,,,,,,,,,,,
,,"[""comma""]",0,[0.30100000000000193],20,0,20,0,1,5c4b42666634320001598ff4,22,Kobieta,2022-06-04_08h42.08.544,task,2021.1.4,Win32,60.06727535,628b806c463b948bc644b84f,629afa72e25fde1b1b4c653d,,,,,,,,,,,,,,,,,,,,,,,,,,,,,,,,,,,,,,,,,,,,,,,,,,,,,,,,,,,,,,,,,,,,,,,,,,,,,,,,,,,,,,,,,,,,,,,,,,,,,,,
,,"[""comma""]",0,[0.30020000001788105],21,0,21,0,1,5c4b42666634320001598ff4,22,Kobieta,2022-06-04_08h42.08.544,task,2021.1.4,Win32,60.06727535,628b806c463b948bc644b84f,629afa72e25fde1b1b4c653d,,,,,,,,,,,,,,,,,,,,,,,,,,,,,,,,,,,,,,,,,,,,,,,,,,,,,,,,,,,,,,,,,,,,,,,,,,,,,,,,,,,,,,,,,,,,,,,,,,,,,,,
,,"[""period"",""period""]",0,"[0.2750000000000057,0.5360000000000014]",22,0,22,0,1,5c4b42666634320001598ff4,22,Kobieta,2022-06-04_08h42.08.544,task,2021.1.4,Win32,60.06727535,628b806c463b948bc644b84f,629afa72e25fde1b1b4c653d,,,,,,,,,,,,,,,,,,,,,,,,,,,,,,,,,,,,,,,,,,,,,,,,,,,,,,,,,,,,,,,,,,,,,,,,,,,,,,,,,,,,,,,,,,,,,,,,,,,,,,,
,,"[""period""]",0,[0.40169999998808237],23,0,23,0,1,5c4b42666634320001598ff4,22,Kobieta,2022-06-04_08h42.08.544,task,2021.1.4,Win32,60.06727535,628b806c463b948bc644b84f,629afa72e25fde1b1b4c653d,,,,,,,,,,,,,,,,,,,,,,,,,,,,,,,,,,,,,,,,,,,,,,,,,,,,,,,,,,,,,,,,,,,,,,,,,,,,,,,,,,,,,,,,,,,,,,,,,,,,,,,
,,"[""period""]",0,[0.30060000002383447],24,0,24,0,1,5c4b42666634320001598ff4,22,Kobieta,2022-06-04_08h42.08.544,task,2021.1.4,Win32,60.06727535,628b806c463b948bc644b84f,629afa72e25fde1b1b4c653d,,,,,,,,,,,,,,,,,,,,,,,,,,,,,,,,,,,,,,,,,,,,,,,,,,,,,,,,,,,,,,,,,,,,,,,,,,,,,,,,,,,,,,,,,,,,,,,,,,,,,,,
,,"[""comma""]",0,[0.2842999999821245],25,0,25,0,1,5c4b42666634320001598ff4,22,Kobieta,2022-06-04_08h42.08.544,task,2021.1.4,Win32,60.06727535,628b806c463b948bc644b84f,629afa72e25fde1b1b4c653d,,,,,,,,,,,,,,,,,,,,,,,,,,,,,,,,,,,,,,,,,,,,,,,,,,,,,,,,,,,,,,,,,,,,,,,,,,,,,,,,,,,,,,,,,,,,,,,,,,,,,,,
,,"[""comma""]",0,[0.33380000001191945],26,0,26,0,1,5c4b42666634320001598ff4,22,Kobieta,2022-06-04_08h42.08.544,task,2021.1.4,Win32,60.06727535,628b806c463b948bc644b84f,629afa72e25fde1b1b4c653d,,,,,,,,,,,,,,,,,,,,,,,,,,,,,,,,,,,,,,,,,,,,,,,,,,,,,,,,,,,,,,,,,,,,,,,,,,,,,,,,,,,,,,,,,,,,,,,,,,,,,,,
,,"[""comma""]",0,[0.3122000000178815],27,0,27,0,1,5c4b42666634320001598ff4,22,Kobieta,2022-06-04_08h42.08.544,task,2021.1.4,Win32,60.06727535,628b806c463b948bc644b84f,629afa72e25fde1b1b4c653d,,,,,,,,,,,,,,,,,,,,,,,,,,,,,,,,,,,,,,,,,,,,,,,,,,,,,,,,,,,,,,,,,,,,,,,,,,,,,,,,,,,,,,,,,,,,,,,,,,,,,,,
,,"[""period""]",0,[0.23469999998808078],28,0,28,0,1,5c4b42666634320001598ff4,22,Kobieta,2022-06-04_08h42.08.544,task,2021.1.4,Win32,60.06727535,628b806c463b948bc644b84f,629afa72e25fde1b1b4c653d,,,,,,,,,,,,,,,,,,,,,,,,,,,,,,,,,,,,,,,,,,,,,,,,,,,,,,,,,,,,,,,,,,,,,,,,,,,,,,,,,,,,,,,,,,,,,,,,,,,,,,,
,,"[""comma""]",0,[0.26799999999998647],29,0,29,0,1,5c4b42666634320001598ff4,22,Kobieta,2022-06-04_08h42.08.544,task,2021.1.4,Win32,60.06727535,628b806c463b948bc644b84f,629afa72e25fde1b1b4c653d,,,,,,,,,,,,,,,,,,,,,,,,,,,,,,,,,,,,,,,,,,,,,,,,,,,,,,,,,,,,,,,,,,,,,,,,,,,,,,,,,,,,,,,,,,,,,,,,,,,,,,,
,,"[""period""]",0,[0.36670000001788594],30,0,30,0,1,5c4b42666634320001598ff4,22,Kobieta,2022-06-04_08h42.08.544,task,2021.1.4,Win32,60.06727535,628b806c463b948bc644b84f,629afa72e25fde1b1b4c653d,,,,,,,,,,,,,,,,,,,,,,,,,,,,,,,,,,,,,,,,,,,,,,,,,,,,,,,,,,,,,,,,,,,,,,,,,,,,,,,,,,,,,,,,,,,,,,,,,,,,,,,
,,"[""period""]",0,[0.3004000000059506],31,0,31,0,1,5c4b42666634320001598ff4,22,Kobieta,2022-06-04_08h42.08.544,task,2021.1.4,Win32,60.06727535,628b806c463b948bc644b84f,629afa72e25fde1b1b4c653d,,,,,,,,,,,,,,,,,,,,,,,,,,,,,,,,,,,,,,,,,,,,,,,,,,,,,,,,,,,,,,,,,,,,,,,,,,,,,,,,,,,,,,,,,,,,,,,,,,,,,,,
,,"[""comma""]",0,[0.28369999998807316],32,0,32,0,1,5c4b42666634320001598ff4,22,Kobieta,2022-06-04_08h42.08.544,task,2021.1.4,Win32,60.06727535,628b806c463b948bc644b84f,629afa72e25fde1b1b4c653d,,,,,,,,,,,,,,,,,,,,,,,,,,,,,,,,,,,,,,,,,,,,,,,,,,,,,,,,,,,,,,,,,,,,,,,,,,,,,,,,,,,,,,,,,,,,,,,,,,,,,,,
,,"[""comma""]",0,[0.30239999997615996],33,0,33,0,1,5c4b42666634320001598ff4,22,Kobieta,2022-06-04_08h42.08.544,task,2021.1.4,Win32,60.06727535,628b806c463b948bc644b84f,629afa72e25fde1b1b4c653d,,,,,,,,,,,,,,,,,,,,,,,,,,,,,,,,,,,,,,,,,,,,,,,,,,,,,,,,,,,,,,,,,,,,,,,,,,,,,,,,,,,,,,,,,,,,,,,,,,,,,,,
,,"[""comma""]",0,[0.3507999999821294],34,0,34,0,1,5c4b42666634320001598ff4,22,Kobieta,2022-06-04_08h42.08.544,task,2021.1.4,Win32,60.06727535,628b806c463b948bc644b84f,629afa72e25fde1b1b4c653d,,,,,,,,,,,,,,,,,,,,,,,,,,,,,,,,,,,,,,,,,,,,,,,,,,,,,,,,,,,,,,,,,,,,,,,,,,,,,,,,,,,,,,,,,,,,,,,,,,,,,,,
,,"[""period""]",0,[0.25009999999403476],35,0,35,0,1,5c4b42666634320001598ff4,22,Kobieta,2022-06-04_08h42.08.544,task,2021.1.4,Win32,60.06727535,628b806c463b948bc644b84f,629afa72e25fde1b1b4c653d,,,,,,,,,,,,,,,,,,,,,,,,,,,,,,,,,,,,,,,,,,,,,,,,,,,,,,,,,,,,,,,,,,,,,,,,,,,,,,,,,,,,,,,,,,,,,,,,,,,,,,,
,,"[""period""]",0,[0.3001000000238463],36,0,36,0,1,5c4b42666634320001598ff4,22,Kobieta,2022-06-04_08h42.08.544,task,2021.1.4,Win32,60.06727535,628b806c463b948bc644b84f,629afa72e25fde1b1b4c653d,,,,,,,,,,,,,,,,,,,,,,,,,,,,,,,,,,,,,,,,,,,,,,,,,,,,,,,,,,,,,,,,,,,,,,,,,,,,,,,,,,,,,,,,,,,,,,,,,,,,,,,
,,"[""comma"",""period""]",0,"[0.2665999999940425,1.6340999999940493]",37,0,37,0,1,5c4b42666634320001598ff4,22,Kobieta,2022-06-04_08h42.08.544,task,2021.1.4,Win32,60.06727535,628b806c463b948bc644b84f,629afa72e25fde1b1b4c653d,,,,,,,,,,,,,,,,,,,,,,,,,,,,,,,,,,,,,,,,,,,,,,,,,,,,,,,,,,,,,,,,,,,,,,,,,,,,,,,,,,,,,,,,,,,,,,,,,,,,,,,
,,,0,,38,0,38,0,1,5c4b42666634320001598ff4,22,Kobieta,2022-06-04_08h42.08.544,task,2021.1.4,Win32,60.06727535,628b806c463b948bc644b84f,629afa72e25fde1b1b4c653d,,,,,,,,,,,,,,,,,,,,,,,,,,,,,,,,,,,,,,,,,,,,,,,,,,,,,,,,,,,,,,,,,,,,,,,,,,,,,,,,,,,,,,,,,,,,,,,,,,,,,,,
,,"[""period""]",0,[0.2760999999940452],39,0,39,0,1,5c4b42666634320001598ff4,22,Kobieta,2022-06-04_08h42.08.544,task,2021.1.4,Win32,60.06727535,628b806c463b948bc644b84f,629afa72e25fde1b1b4c653d,,,,,,,,,,,,,,,,,,,,,,,,,,,,,,,,,,,,,,,,,,,,,,,,,,,,,,,,,,,,,,,,,,,,,,,,,,,,,,,,,,,,,,,,,,,,,,,,,,,,,,,
,,"[""comma""]",0,[0.3227000000178748],40,0,40,0,1,5c4b42666634320001598ff4,22,Kobieta,2022-06-04_08h42.08.544,task,2021.1.4,Win32,60.06727535,628b806c463b948bc644b84f,629afa72e25fde1b1b4c653d,,,,,,,,,,,,,,,,,,,,,,,,,,,,,,,,,,,,,,,,,,,,,,,,,,,,,,,,,,,,,,,,,,,,,,,,,,,,,,,,,,,,,,,,,,,,,,,,,,,,,,,
,,"[""comma""]",0,[0.48470000001788094],41,0,41,0,1,5c4b42666634320001598ff4,22,Kobieta,2022-06-04_08h42.08.544,task,2021.1.4,Win32,60.06727535,628b806c463b948bc644b84f,629afa72e25fde1b1b4c653d,,,,,,,,,,,,,,,,,,,,,,,,,,,,,,,,,,,,,,,,,,,,,,,,,,,,,,,,,,,,,,,,,,,,,,,,,,,,,,,,,,,,,,,,,,,,,,,,,,,,,,,
,,"[""period""]",0,[0.4678000000119198],42,0,42,0,1,5c4b42666634320001598ff4,22,Kobieta,2022-06-04_08h42.08.544,task,2021.1.4,Win32,60.06727535,628b806c463b948bc644b84f,629afa72e25fde1b1b4c653d,,,,,,,,,,,,,,,,,,,,,,,,,,,,,,,,,,,,,,,,,,,,,,,,,,,,,,,,,,,,,,,,,,,,,,,,,,,,,,,,,,,,,,,,,,,,,,,,,,,,,,,
,,"[""period""]",0,[0.5734999999999957],43,0,43,0,1,5c4b42666634320001598ff4,22,Kobieta,2022-06-04_08h42.08.544,task,2021.1.4,Win32,60.06727535,628b806c463b948bc644b84f,629afa72e25fde1b1b4c653d,,,,,,,,,,,,,,,,,,,,,,,,,,,,,,,,,,,,,,,,,,,,,,,,,,,,,,,,,,,,,,,,,,,,,,,,,,,,,,,,,,,,,,,,,,,,,,,,,,,,,,,
,,"[""comma""]",0,[0.4099000000059476],44,0,44,0,1,5c4b42666634320001598ff4,22,Kobieta,2022-06-04_08h42.08.544,task,2021.1.4,Win32,60.06727535,628b806c463b948bc644b84f,629afa72e25fde1b1b4c653d,,,,,,,,,,,,,,,,,,,,,,,,,,,,,,,,,,,,,,,,,,,,,,,,,,,,,,,,,,,,,,,,,,,,,,,,,,,,,,,,,,,,,,,,,,,,,,,,,,,,,,,
,,"[""comma""]",0,[0.2779000000059568],45,0,45,0,1,5c4b42666634320001598ff4,22,Kobieta,2022-06-04_08h42.08.544,task,2021.1.4,Win32,60.06727535,628b806c463b948bc644b84f,629afa72e25fde1b1b4c653d,,,,,,,,,,,,,,,,,,,,,,,,,,,,,,,,,,,,,,,,,,,,,,,,,,,,,,,,,,,,,,,,,,,,,,,,,,,,,,,,,,,,,,,,,,,,,,,,,,,,,,,
,,"[""period""]",0,[0.38259999999405636],46,0,46,0,1,5c4b42666634320001598ff4,22,Kobieta,2022-06-04_08h42.08.544,task,2021.1.4,Win32,60.06727535,628b806c463b948bc644b84f,629afa72e25fde1b1b4c653d,,,,,,,,,,,,,,,,,,,,,,,,,,,,,,,,,,,,,,,,,,,,,,,,,,,,,,,,,,,,,,,,,,,,,,,,,,,,,,,,,,,,,,,,,,,,,,,,,,,,,,,
,,"[""comma""]",0,[0.3344000000059566],47,0,47,0,1,5c4b42666634320001598ff4,22,Kobieta,2022-06-04_08h42.08.544,task,2021.1.4,Win32,60.06727535,628b806c463b948bc644b84f,629afa72e25fde1b1b4c653d,,,,,,,,,,,,,,,,,,,,,,,,,,,,,,,,,,,,,,,,,,,,,,,,,,,,,,,,,,,,,,,,,,,,,,,,,,,,,,,,,,,,,,,,,,,,,,,,,,,,,,,
,,"[""comma""]",0,[0.3127999999821327],48,0,48,0,1,5c4b42666634320001598ff4,22,Kobieta,2022-06-04_08h42.08.544,task,2021.1.4,Win32,60.06727535,628b806c463b948bc644b84f,629afa72e25fde1b1b4c653d,,,,,,,,,,,,,,,,,,,,,,,,,,,,,,,,,,,,,,,,,,,,,,,,,,,,,,,,,,,,,,,,,,,,,,,,,,,,,,,,,,,,,,,,,,,,,,,,,,,,,,,
,,"[""period""]",0,[0.2843000000119389],49,0,49,0,1,5c4b42666634320001598ff4,22,Kobieta,2022-06-04_08h42.08.544,task,2021.1.4,Win32,60.06727535,628b806c463b948bc644b84f,629afa72e25fde1b1b4c653d,,,,,,,,,,,,,,,,,,,,,,,,,,,,,,,,,,,,,,,,,,,,,,,,,,,,,,,,,,,,,,,,,,,,,,,,,,,,,,,,,,,,,,,,,,,,,,,,,,,,,,,
,,"[""comma""]",0,[0.3013999999761836],50,0,50,0,1,5c4b42666634320001598ff4,22,Kobieta,2022-06-04_08h42.08.544,task,2021.1.4,Win32,60.06727535,628b806c463b948bc644b84f,629afa72e25fde1b1b4c653d,,,,,,,,,,,,,,,,,,,,,,,,,,,,,,,,,,,,,,,,,,,,,,,,,,,,,,,,,,,,,,,,,,,,,,,,,,,,,,,,,,,,,,,,,,,,,,,,,,,,,,,
,,"[""comma""]",0,[0.35109999999403385],51,0,51,0,1,5c4b42666634320001598ff4,22,Kobieta,2022-06-04_08h42.08.544,task,2021.1.4,Win32,60.06727535,628b806c463b948bc644b84f,629afa72e25fde1b1b4c653d,,,,,,,,,,,,,,,,,,,,,,,,,,,,,,,,,,,,,,,,,,,,,,,,,,,,,,,,,,,,,,,,,,,,,,,,,,,,,,,,,,,,,,,,,,,,,,,,,,,,,,,
,,"[""comma""]",0,[0.30100000000001614],52,0,52,0,1,5c4b42666634320001598ff4,22,Kobieta,2022-06-04_08h42.08.544,task,2021.1.4,Win32,60.06727535,628b806c463b948bc644b84f,629afa72e25fde1b1b4c653d,,,,,,,,,,,,,,,,,,,,,,,,,,,,,,,,,,,,,,,,,,,,,,,,,,,,,,,,,,,,,,,,,,,,,,,,,,,,,,,,,,,,,,,,,,,,,,,,,,,,,,,
,,"[""period""]",0,[0.25070000001787207],53,0,53,0,1,5c4b42666634320001598ff4,22,Kobieta,2022-06-04_08h42.08.544,task,2021.1.4,Win32,60.06727535,628b806c463b948bc644b84f,629afa72e25fde1b1b4c653d,,,,,,,,,,,,,,,,,,,,,,,,,,,,,,,,,,,,,,,,,,,,,,,,,,,,,,,,,,,,,,,,,,,,,,,,,,,,,,,,,,,,,,,,,,,,,,,,,,,,,,,
,,"[""comma""]",0,[0.3008000000119182],54,0,54,0,1,5c4b42666634320001598ff4,22,Kobieta,2022-06-04_08h42.08.544,task,2021.1.4,Win32,60.06727535,628b806c463b948bc644b84f,629afa72e25fde1b1b4c653d,,,,,,,,,,,,,,,,,,,,,,,,,,,,,,,,,,,,,,,,,,,,,,,,,,,,,,,,,,,,,,,,,,,,,,,,,,,,,,,,,,,,,,,,,,,,,,,,,,,,,,,
,,"[""period""]",0,[0.3013000000119064],55,0,55,0,1,5c4b42666634320001598ff4,22,Kobieta,2022-06-04_08h42.08.544,task,2021.1.4,Win32,60.06727535,628b806c463b948bc644b84f,629afa72e25fde1b1b4c653d,,,,,,,,,,,,,,,,,,,,,,,,,,,,,,,,,,,,,,,,,,,,,,,,,,,,,,,,,,,,,,,,,,,,,,,,,,,,,,,,,,,,,,,,,,,,,,,,,,,,,,,
,,"[""period""]",0,[0.2845000000000084],56,0,56,0,1,5c4b42666634320001598ff4,22,Kobieta,2022-06-04_08h42.08.544,task,2021.1.4,Win32,60.06727535,628b806c463b948bc644b84f,629afa72e25fde1b1b4c653d,,,,,,,,,,,,,,,,,,,,,,,,,,,,,,,,,,,,,,,,,,,,,,,,,,,,,,,,,,,,,,,,,,,,,,,,,,,,,,,,,,,,,,,,,,,,,,,,,,,,,,,
,,"[""comma""]",0,[0.43409999999403226],57,0,57,0,1,5c4b42666634320001598ff4,22,Kobieta,2022-06-04_08h42.08.544,task,2021.1.4,Win32,60.06727535,628b806c463b948bc644b84f,629afa72e25fde1b1b4c653d,,,,,,,,,,,,,,,,,,,,,,,,,,,,,,,,,,,,,,,,,,,,,,,,,,,,,,,,,,,,,,,,,,,,,,,,,,,,,,,,,,,,,,,,,,,,,,,,,,,,,,,
,,"[""period""]",0,[0.3175999999940302],58,0,58,0,1,5c4b42666634320001598ff4,22,Kobieta,2022-06-04_08h42.08.544,task,2021.1.4,Win32,60.06727535,628b806c463b948bc644b84f,629afa72e25fde1b1b4c653d,,,,,,,,,,,,,,,,,,,,,,,,,,,,,,,,,,,,,,,,,,,,,,,,,,,,,,,,,,,,,,,,,,,,,,,,,,,,,,,,,,,,,,,,,,,,,,,,,,,,,,,
,,"[""period""]",0,[0.25830000001192843],59,0,59,0,1,5c4b42666634320001598ff4,22,Kobieta,2022-06-04_08h42.08.544,task,2021.1.4,Win32,60.06727535,628b806c463b948bc644b84f,629afa72e25fde1b1b4c653d,,,,,,,,,,,,,,,,,,,,,,,,,,,,,,,,,,,,,,,,,,,,,,,,,,,,,,,,,,,,,,,,,,,,,,,,,,,,,,,,,,,,,,,,,,,,,,,,,,,,,,,
,,"[""period""]",0,[0.27580000001194094],60,0,60,0,1,5c4b42666634320001598ff4,22,Kobieta,2022-06-04_08h42.08.544,task,2021.1.4,Win32,60.06727535,628b806c463b948bc644b84f,629afa72e25fde1b1b4c653d,,,,,,,,,,,,,,,,,,,,,,,,,,,,,,,,,,,,,,,,,,,,,,,,,,,,,,,,,,,,,,,,,,,,,,,,,,,,,,,,,,,,,,,,,,,,,,,,,,,,,,,
,,"[""comma""]",0,[0.29209999999403635],61,0,61,0,1,5c4b42666634320001598ff4,22,Kobieta,2022-06-04_08h42.08.544,task,2021.1.4,Win32,60.06727535,628b806c463b948bc644b84f,629afa72e25fde1b1b4c653d,,,,,,,,,,,,,,,,,,,,,,,,,,,,,,,,,,,,,,,,,,,,,,,,,,,,,,,,,,,,,,,,,,,,,,,,,,,,,,,,,,,,,,,,,,,,,,,,,,,,,,,
,,"[""comma""]",0,[0.3505999999940457],62,0,62,0,1,5c4b42666634320001598ff4,22,Kobieta,2022-06-04_08h42.08.544,task,2021.1.4,Win32,60.06727535,628b806c463b948bc644b84f,629afa72e25fde1b1b4c653d,,,,,,,,,,,,,,,,,,,,,,,,,,,,,,,,,,,,,,,,,,,,,,,,,,,,,,,,,,,,,,,,,,,,,,,,,,,,,,,,,,,,,,,,,,,,,,,,,,,,,,,
,,"[""period"",""period""]",0,"[0.2845999999940432,1.654900000005938]",63,0,63,0,1,5c4b42666634320001598ff4,22,Kobieta,2022-06-04_08h42.08.544,task,2021.1.4,Win32,60.06727535,628b806c463b948bc644b84f,629afa72e25fde1b1b4c653d,,,,,,,,,,,,,,,,,,,,,,,,,,,,,,,,,,,,,,,,,,,,,,,,,,,,,,,,,,,,,,,,,,,,,,,,,,,,,,,,,,,,,,,,,,,,,,,,,,,,,,,
,,,0,,64,0,64,0,1,5c4b42666634320001598ff4,22,Kobieta,2022-06-04_08h42.08.544,task,2021.1.4,Win32,60.06727535,628b806c463b948bc644b84f,629afa72e25fde1b1b4c653d,,,,,,,,,,,,,,,,,,,,,,,,,,,,,,,,,,,,,,,,,,,,,,,,,,,,,,,,,,,,,,,,,,,,,,,,,,,,,,,,,,,,,,,,,,,,,,,,,,,,,,,
,,"[""comma""]",0,[0.28930000001193434],65,0,65,0,1,5c4b42666634320001598ff4,22,Kobieta,2022-06-04_08h42.08.544,task,2021.1.4,Win32,60.06727535,628b806c463b948bc644b84f,629afa72e25fde1b1b4c653d,,,,,,,,,,,,,,,,,,,,,,,,,,,,,,,,,,,,,,,,,,,,,,,,,,,,,,,,,,,,,,,,,,,,,,,,,,,,,,,,,,,,,,,,,,,,,,,,,,,,,,,
,,"[""period""]",0,[0.27459999999402385],66,0,66,0,1,5c4b42666634320001598ff4,22,Kobieta,2022-06-04_08h42.08.544,task,2021.1.4,Win32,60.06727535,628b806c463b948bc644b84f,629afa72e25fde1b1b4c653d,,,,,,,,,,,,,,,,,,,,,,,,,,,,,,,,,,,,,,,,,,,,,,,,,,,,,,,,,,,,,,,,,,,,,,,,,,,,,,,,,,,,,,,,,,,,,,,,,,,,,,,
,,"[""comma""]",0,[0.27899999999999636],67,0,67,0,1,5c4b42666634320001598ff4,22,Kobieta,2022-06-04_08h42.08.544,task,2021.1.4,Win32,60.06727535,628b806c463b948bc644b84f,629afa72e25fde1b1b4c653d,,,,,,,,,,,,,,,,,,,,,,,,,,,,,,,,,,,,,,,,,,,,,,,,,,,,,,,,,,,,,,,,,,,,,,,,,,,,,,,,,,,,,,,,,,,,,,,,,,,,,,,
,,"[""period""]",0,[0.30219999998809044],68,0,68,0,1,5c4b42666634320001598ff4,22,Kobieta,2022-06-04_08h42.08.544,task,2021.1.4,Win32,60.06727535,628b806c463b948bc644b84f,629afa72e25fde1b1b4c653d,,,,,,,,,,,,,,,,,,,,,,,,,,,,,,,,,,,,,,,,,,,,,,,,,,,,,,,,,,,,,,,,,,,,,,,,,,,,,,,,,,,,,,,,,,,,,,,,,,,,,,,
,,"[""period""]",0,[0.28440000000594523],69,0,69,0,1,5c4b42666634320001598ff4,22,Kobieta,2022-06-04_08h42.08.544,task,2021.1.4,Win32,60.06727535,628b806c463b948bc644b84f,629afa72e25fde1b1b4c653d,,,,,,,,,,,,,,,,,,,,,,,,,,,,,,,,,,,,,,,,,,,,,,,,,,,,,,,,,,,,,,,,,,,,,,,,,,,,,,,,,,,,,,,,,,,,,,,,,,,,,,,
,,"[""comma""]",0,[0.3096999999880836],70,0,70,0,1,5c4b42666634320001598ff4,22,Kobieta,2022-06-04_08h42.08.544,task,2021.1.4,Win32,60.06727535,628b806c463b948bc644b84f,629afa72e25fde1b1b4c653d,,,,,,,,,,,,,,,,,,,,,,,,,,,,,,,,,,,,,,,,,,,,,,,,,,,,,,,,,,,,,,,,,,,,,,,,,,,,,,,,,,,,,,,,,,,,,,,,,,,,,,,
,,"[""comma""]",0,[0.27509999999404045],71,0,71,0,1,5c4b42666634320001598ff4,22,Kobieta,2022-06-04_08h42.08.544,task,2021.1.4,Win32,60.06727535,628b806c463b948bc644b84f,629afa72e25fde1b1b4c653d,,,,,,,,,,,,,,,,,,,,,,,,,,,,,,,,,,,,,,,,,,,,,,,,,,,,,,,,,,,,,,,,,,,,,,,,,,,,,,,,,,,,,,,,,,,,,,,,,,,,,,,
,,"[""period""]",0,[0.26780000001193116],72,0,72,0,1,5c4b42666634320001598ff4,22,Kobieta,2022-06-04_08h42.08.544,task,2021.1.4,Win32,60.06727535,628b806c463b948bc644b84f,629afa72e25fde1b1b4c653d,,,,,,,,,,,,,,,,,,,,,,,,,,,,,,,,,,,,,,,,,,,,,,,,,,,,,,,,,,,,,,,,,,,,,,,,,,,,,,,,,,,,,,,,,,,,,,,,,,,,,,,
,,"[""period""]",0,[0.7092999999821075],73,0,73,0,1,5c4b42666634320001598ff4,22,Kobieta,2022-06-04_08h42.08.544,task,2021.1.4,Win32,60.06727535,628b806c463b948bc644b84f,629afa72e25fde1b1b4c653d,,,,,,,,,,,,,,,,,,,,,,,,,,,,,,,,,,,,,,,,,,,,,,,,,,,,,,,,,,,,,,,,,,,,,,,,,,,,,,,,,,,,,,,,,,,,,,,,,,,,,,,
,,"[""comma""]",0,[0.4001999999880752],74,0,74,0,1,5c4b42666634320001598ff4,22,Kobieta,2022-06-04_08h42.08.544,task,2021.1.4,Win32,60.06727535,628b806c463b948bc644b84f,629afa72e25fde1b1b4c653d,,,,,,,,,,,,,,,,,,,,,,,,,,,,,,,,,,,,,,,,,,,,,,,,,,,,,,,,,,,,,,,,,,,,,,,,,,,,,,,,,,,,,,,,,,,,,,,,,,,,,,,
,,"[""period""]",0,[0.34200000000001296],75,0,75,0,1,5c4b42666634320001598ff4,22,Kobieta,2022-06-04_08h42.08.544,task,2021.1.4,Win32,60.06727535,628b806c463b948bc644b84f,629afa72e25fde1b1b4c653d,,,,,,,,,,,,,,,,,,,,,,,,,,,,,,,,,,,,,,,,,,,,,,,,,,,,,,,,,,,,,,,,,,,,,,,,,,,,,,,,,,,,,,,,,,,,,,,,,,,,,,,
,,"[""period""]",0,[0.22720000001788776],76,0,76,0,1,5c4b42666634320001598ff4,22,Kobieta,2022-06-04_08h42.08.544,task,2021.1.4,Win32,60.06727535,628b806c463b948bc644b84f,629afa72e25fde1b1b4c653d,,,,,,,,,,,,,,,,,,,,,,,,,,,,,,,,,,,,,,,,,,,,,,,,,,,,,,,,,,,,,,,,,,,,,,,,,,,,,,,,,,,,,,,,,,,,,,,,,,,,,,,
,,"[""comma""]",0,[1.3524000000059857],77,0,77,0,1,5c4b42666634320001598ff4,22,Kobieta,2022-06-04_08h42.08.544,task,2021.1.4,Win32,60.06727535,628b806c463b948bc644b84f,629afa72e25fde1b1b4c653d,,,,,,,,,,,,,,,,,,,,,,,,,,,,,,,,,,,,,,,,,,,,,,,,,,,,,,,,,,,,,,,,,,,,,,,,,,,,,,,,,,,,,,,,,,,,,,,,,,,,,,,
,,,0,,78,0,78,0,1,5c4b42666634320001598ff4,22,Kobieta,2022-06-04_08h42.08.544,task,2021.1.4,Win32,60.06727535,628b806c463b948bc644b84f,629afa72e25fde1b1b4c653d,,,,,,,,,,,,,,,,,,,,,,,,,,,,,,,,,,,,,,,,,,,,,,,,,,,,,,,,,,,,,,,,,,,,,,,,,,,,,,,,,,,,,,,,,,,,,,,,,,,,,,,
,,"[""comma""]",0,[0.08439999997617065],79,0,79,0,1,5c4b42666634320001598ff4,22,Kobieta,2022-06-04_08h42.08.544,task,2021.1.4,Win32,60.06727535,628b806c463b948bc644b84f,629afa72e25fde1b1b4c653d,,,,,,,,,,,,,,,,,,,,,,,,,,,,,,,,,,,,,,,,,,,,,,,,,,,,,,,,,,,,,,,,,,,,,,,,,,,,,,,,,,,,,,,,,,,,,,,,,,,,,,,
,,"[""period""]",0,[0.26830000001191934],80,0,80,0,1,5c4b42666634320001598ff4,22,Kobieta,2022-06-04_08h42.08.544,task,2021.1.4,Win32,60.06727535,628b806c463b948bc644b84f,629afa72e25fde1b1b4c653d,,,,,,,,,,,,,,,,,,,,,,,,,,,,,,,,,,,,,,,,,,,,,,,,,,,,,,,,,,,,,,,,,,,,,,,,,,,,,,,,,,,,,,,,,,,,,,,,,,,,,,,
,,"[""comma""]",0,[0.23940000000595774],81,0,81,0,1,5c4b42666634320001598ff4,22,Kobieta,2022-06-04_08h42.08.544,task,2021.1.4,Win32,60.06727535,628b806c463b948bc644b84f,629afa72e25fde1b1b4c653d,,,,,,,,,,,,,,,,,,,,,,,,,,,,,,,,,,,,,,,,,,,,,,,,,,,,,,,,,,,,,,,,,,,,,,,,,,,,,,,,,,,,,,,,,,,,,,,,,,,,,,,
,,"[""comma""]",0,[0.2553999999761629],82,0,82,0,1,5c4b42666634320001598ff4,22,Kobieta,2022-06-04_08h42.08.544,task,2021.1.4,Win32,60.06727535,628b806c463b948bc644b84f,629afa72e25fde1b1b4c653d,,,,,,,,,,,,,,,,,,,,,,,,,,,,,,,,,,,,,,,,,,,,,,,,,,,,,,,,,,,,,,,,,,,,,,,,,,,,,,,,,,,,,,,,,,,,,,,,,,,,,,,
,,"[""period""]",0,[0.30169999998807384],83,0,83,0,1,5c4b42666634320001598ff4,22,Kobieta,2022-06-04_08h42.08.544,task,2021.1.4,Win32,60.06727535,628b806c463b948bc644b84f,629afa72e25fde1b1b4c653d,,,,,,,,,,,,,,,,,,,,,,,,,,,,,,,,,,,,,,,,,,,,,,,,,,,,,,,,,,,,,,,,,,,,,,,,,,,,,,,,,,,,,,,,,,,,,,,,,,,,,,,
,,"[""period""]",0,[0.2991000000238273],84,0,84,0,1,5c4b42666634320001598ff4,22,Kobieta,2022-06-04_08h42.08.544,task,2021.1.4,Win32,60.06727535,628b806c463b948bc644b84f,629afa72e25fde1b1b4c653d,,,,,,,,,,,,,,,,,,,,,,,,,,,,,,,,,,,,,,,,,,,,,,,,,,,,,,,,,,,,,,,,,,,,,,,,,,,,,,,,,,,,,,,,,,,,,,,,,,,,,,,
,,"[""comma""]",0,[0.27620000001789435],85,0,85,0,1,5c4b42666634320001598ff4,22,Kobieta,2022-06-04_08h42.08.544,task,2021.1.4,Win32,60.06727535,628b806c463b948bc644b84f,629afa72e25fde1b1b4c653d,,,,,,,,,,,,,,,,,,,,,,,,,,,,,,,,,,,,,,,,,,,,,,,,,,,,,,,,,,,,,,,,,,,,,,,,,,,,,,,,,,,,,,,,,,,,,,,,,,,,,,,
,,"[""period""]",0,[0.25480000001192593],86,0,86,0,1,5c4b42666634320001598ff4,22,Kobieta,2022-06-04_08h42.08.544,task,2021.1.4,Win32,60.06727535,628b806c463b948bc644b84f,629afa72e25fde1b1b4c653d,,,,,,,,,,,,,,,,,,,,,,,,,,,,,,,,,,,,,,,,,,,,,,,,,,,,,,,,,,,,,,,,,,,,,,,,,,,,,,,,,,,,,,,,,,,,,,,,,,,,,,,
,,"[""period""]",0,[0.2719000000059566],87,0,87,0,1,5c4b42666634320001598ff4,22,Kobieta,2022-06-04_08h42.08.544,task,2021.1.4,Win32,60.06727535,628b806c463b948bc644b84f,629afa72e25fde1b1b4c653d,,,,,,,,,,,,,,,,,,,,,,,,,,,,,,,,,,,,,,,,,,,,,,,,,,,,,,,,,,,,,,,,,,,,,,,,,,,,,,,,,,,,,,,,,,,,,,,,,,,,,,,
,,"[""comma""]",0,[0.318599999994035],88,0,88,0,1,5c4b42666634320001598ff4,22,Kobieta,2022-06-04_08h42.08.544,task,2021.1.4,Win32,60.06727535,628b806c463b948bc644b84f,629afa72e25fde1b1b4c653d,,,,,,,,,,,,,,,,,,,,,,,,,,,,,,,,,,,,,,,,,,,,,,,,,,,,,,,,,,,,,,,,,,,,,,,,,,,,,,,,,,,,,,,,,,,,,,,,,,,,,,,
,,"[""comma""]",0,[0.27489999997615655],89,0,89,0,1,5c4b42666634320001598ff4,22,Kobieta,2022-06-04_08h42.08.544,task,2021.1.4,Win32,60.06727535,628b806c463b948bc644b84f,629afa72e25fde1b1b4c653d,,,,,,,,,,,,,,,,,,,,,,,,,,,,,,,,,,,,,,,,,,,,,,,,,,,,,,,,,,,,,,,,,,,,,,,,,,,,,,,,,,,,,,,,,,,,,,,,,,,,,,,
,,"[""comma""]",0,[0.2558999999761511],90,0,90,0,1,5c4b42666634320001598ff4,22,Kobieta,2022-06-04_08h42.08.544,task,2021.1.4,Win32,60.06727535,628b806c463b948bc644b84f,629afa72e25fde1b1b4c653d,,,,,,,,,,,,,,,,,,,,,,,,,,,,,,,,,,,,,,,,,,,,,,,,,,,,,,,,,,,,,,,,,,,,,,,,,,,,,,,,,,,,,,,,,,,,,,,,,,,,,,,
,,"[""period""]",0,[0.23440000000596228],91,0,91,0,1,5c4b42666634320001598ff4,22,Kobieta,2022-06-04_08h42.08.544,task,2021.1.4,Win32,60.06727535,628b806c463b948bc644b84f,629afa72e25fde1b1b4c653d,,,,,,,,,,,,,,,,,,,,,,,,,,,,,,,,,,,,,,,,,,,,,,,,,,,,,,,,,,,,,,,,,,,,,,,,,,,,,,,,,,,,,,,,,,,,,,,,,,,,,,,
,,"[""period""]",0,[0.3509999999999991],92,0,92,0,1,5c4b42666634320001598ff4,22,Kobieta,2022-06-04_08h42.08.544,task,2021.1.4,Win32,60.06727535,628b806c463b948bc644b84f,629afa72e25fde1b1b4c653d,,,,,,,,,,,,,,,,,,,,,,,,,,,,,,,,,,,,,,,,,,,,,,,,,,,,,,,,,,,,,,,,,,,,,,,,,,,,,,,,,,,,,,,,,,,,,,,,,,,,,,,
,,"[""period""]",0,[0.40120000001789435],93,0,93,0,1,5c4b42666634320001598ff4,22,Kobieta,2022-06-04_08h42.08.544,task,2021.1.4,Win32,60.06727535,628b806c463b948bc644b84f,629afa72e25fde1b1b4c653d,,,,,,,,,,,,,,,,,,,,,,,,,,,,,,,,,,,,,,,,,,,,,,,,,,,,,,,,,,,,,,,,,,,,,,,,,,,,,,,,,,,,,,,,,,,,,,,,,,,,,,,
,,"[""comma""]",0,[0.28419999998808976],94,0,94,0,1,5c4b42666634320001598ff4,22,Kobieta,2022-06-04_08h42.08.544,task,2021.1.4,Win32,60.06727535,628b806c463b948bc644b84f,629afa72e25fde1b1b4c653d,,,,,,,,,,,,,,,,,,,,,,,,,,,,,,,,,,,,,,,,,,,,,,,,,,,,,,,,,,,,,,,,,,,,,,,,,,,,,,,,,,,,,,,,,,,,,,,,,,,,,,,
,,"[""comma""]",0,[0.2920000000000016],95,0,95,0,1,5c4b42666634320001598ff4,22,Kobieta,2022-06-04_08h42.08.544,task,2021.1.4,Win32,60.06727535,628b806c463b948bc644b84f,629afa72e25fde1b1b4c653d,,,,,,,,,,,,,,,,,,,,,,,,,,,,,,,,,,,,,,,,,,,,,,,,,,,,,,,,,,,,,,,,,,,,,,,,,,,,,,,,,,,,,,,,,,,,,,,,,,,,,,,
,,"[""period""]",0,[0.19439999997615587],96,0,96,0,1,5c4b42666634320001598ff4,22,Kobieta,2022-06-04_08h42.08.544,task,2021.1.4,Win32,60.06727535,628b806c463b948bc644b84f,629afa72e25fde1b1b4c653d,,,,,,,,,,,,,,,,,,,,,,,,,,,,,,,,,,,,,,,,,,,,,,,,,,,,,,,,,,,,,,,,,,,,,,,,,,,,,,,,,,,,,,,,,,,,,,,,,,,,,,,
,,"[""comma""]",0,[0.1998999999761395],97,0,97,0,1,5c4b42666634320001598ff4,22,Kobieta,2022-06-04_08h42.08.544,task,2021.1.4,Win32,60.06727535,628b806c463b948bc644b84f,629afa72e25fde1b1b4c653d,,,,,,,,,,,,,,,,,,,,,,,,,,,,,,,,,,,,,,,,,,,,,,,,,,,,,,,,,,,,,,,,,,,,,,,,,,,,,,,,,,,,,,,,,,,,,,,,,,,,,,,
,,"[""period""]",0,[0.25619999998809817],98,0,98,0,1,5c4b42666634320001598ff4,22,Kobieta,2022-06-04_08h42.08.544,task,2021.1.4,Win32,60.06727535,628b806c463b948bc644b84f,629afa72e25fde1b1b4c653d,,,,,,,,,,,,,,,,,,,,,,,,,,,,,,,,,,,,,,,,,,,,,,,,,,,,,,,,,,,,,,,,,,,,,,,,,,,,,,,,,,,,,,,,,,,,,,,,,,,,,,,
,,"[""comma""]",0,[0.25149999999999295],99,0,99,0,1,5c4b42666634320001598ff4,22,Kobieta,2022-06-04_08h42.08.544,task,2021.1.4,Win32,60.06727535,628b806c463b948bc644b84f,629afa72e25fde1b1b4c653d,,,,,,,,,,,,,,,,,,,,,,,,,,,,,,,,,,,,,,,,,,,,,,,,,,,,,,,,,,,,,,,,,,,,,,,,,,,,,,,,,,,,,,,,,,,,,,,,,,,,,,,
,,"[""comma""]",0,[0.24340000000597684],100,0,100,0,1,5c4b42666634320001598ff4,22,Kobieta,2022-06-04_08h42.08.544,task,2021.1.4,Win32,60.06727535,628b806c463b948bc644b84f,629afa72e25fde1b1b4c653d,,,,,,,,,,,,,,,,,,,,,,,,,,,,,,,,,,,,,,,,,,,,,,,,,,,,,,,,,,,,,,,,,,,,,,,,,,,,,,,,,,,,,,,,,,,,,,,,,,,,,,,
,,"[""period""]",0,[0.35090000000596433],101,0,101,0,1,5c4b42666634320001598ff4,22,Kobieta,2022-06-04_08h42.08.544,task,2021.1.4,Win32,60.06727535,628b806c463b948bc644b84f,629afa72e25fde1b1b4c653d,,,,,,,,,,,,,,,,,,,,,,,,,,,,,,,,,,,,,,,,,,,,,,,,,,,,,,,,,,,,,,,,,,,,,,,,,,,,,,,,,,,,,,,,,,,,,,,,,,,,,,,
,,"[""period""]",0,[0.42109999999402703],102,0,102,0,1,5c4b42666634320001598ff4,22,Kobieta,2022-06-04_08h42.08.544,task,2021.1.4,Win32,60.06727535,628b806c463b948bc644b84f,629afa72e25fde1b1b4c653d,,,,,,,,,,,,,,,,,,,,,,,,,,,,,,,,,,,,,,,,,,,,,,,,,,,,,,,,,,,,,,,,,,,,,,,,,,,,,,,,,,,,,,,,,,,,,,,,,,,,,,,
,,"[""comma""]",0,[0.2669999999999959],103,0,103,0,1,5c4b42666634320001598ff4,22,Kobieta,2022-06-04_08h42.08.544,task,2021.1.4,Win32,60.06727535,628b806c463b948bc644b84f,629afa72e25fde1b1b4c653d,,,,,,,,,,,,,,,,,,,,,,,,,,,,,,,,,,,,,,,,,,,,,,,,,,,,,,,,,,,,,,,,,,,,,,,,,,,,,,,,,,,,,,,,,,,,,,,,,,,,,,,
,,"[""period""]",0,[0.3930000000000007],104,0,104,0,1,5c4b42666634320001598ff4,22,Kobieta,2022-06-04_08h42.08.544,task,2021.1.4,Win32,60.06727535,628b806c463b948bc644b84f,629afa72e25fde1b1b4c653d,,,,,,,,,,,,,,,,,,,,,,,,,,,,,,,,,,,,,,,,,,,,,,,,,,,,,,,,,,,,,,,,,,,,,,,,,,,,,,,,,,,,,,,,,,,,,,,,,,,,,,,
,,"[""period""]",0,[0.23359999999405545],105,0,105,0,1,5c4b42666634320001598ff4,22,Kobieta,2022-06-04_08h42.08.544,task,2021.1.4,Win32,60.06727535,628b806c463b948bc644b84f,629afa72e25fde1b1b4c653d,,,,,,,,,,,,,,,,,,,,,,,,,,,,,,,,,,,,,,,,,,,,,,,,,,,,,,,,,,,,,,,,,,,,,,,,,,,,,,,,,,,,,,,,,,,,,,,,,,,,,,,
,,"[""comma""]",0,[0.2669999999999959],106,0,106,0,1,5c4b42666634320001598ff4,22,Kobieta,2022-06-04_08h42.08.544,task,2021.1.4,Win32,60.06727535,628b806c463b948bc644b84f,629afa72e25fde1b1b4c653d,,,,,,,,,,,,,,,,,,,,,,,,,,,,,,,,,,,,,,,,,,,,,,,,,,,,,,,,,,,,,,,,,,,,,,,,,,,,,,,,,,,,,,,,,,,,,,,,,,,,,,,
,,"[""period""]",0,[0.2059000000059541],107,0,107,0,1,5c4b42666634320001598ff4,22,Kobieta,2022-06-04_08h42.08.544,task,2021.1.4,Win32,60.06727535,628b806c463b948bc644b84f,629afa72e25fde1b1b4c653d,,,,,,,,,,,,,,,,,,,,,,,,,,,,,,,,,,,,,,,,,,,,,,,,,,,,,,,,,,,,,,,,,,,,,,,,,,,,,,,,,,,,,,,,,,,,,,,,,,,,,,,
,,"[""period""]",0,[0.1865999999940584],108,0,108,0,1,5c4b42666634320001598ff4,22,Kobieta,2022-06-04_08h42.08.544,task,2021.1.4,Win32,60.06727535,628b806c463b948bc644b84f,629afa72e25fde1b1b4c653d,,,,,,,,,,,,,,,,,,,,,,,,,,,,,,,,,,,,,,,,,,,,,,,,,,,,,,,,,,,,,,,,,,,,,,,,,,,,,,,,,,,,,,,,,,,,,,,,,,,,,,,
,,"[""period""]",0,[0.21820000001793005],109,0,109,0,1,5c4b42666634320001598ff4,22,Kobieta,2022-06-04_08h42.08.544,task,2021.1.4,Win32,60.06727535,628b806c463b948bc644b84f,629afa72e25fde1b1b4c653d,,,,,,,,,,,,,,,,,,,,,,,,,,,,,,,,,,,,,,,,,,,,,,,,,,,,,,,,,,,,,,,,,,,,,,,,,,,,,,,,,,,,,,,,,,,,,,,,,,,,,,,
,,"[""comma""]",0,[0.25109999999403954],110,0,110,0,1,5c4b42666634320001598ff4,22,Kobieta,2022-06-04_08h42.08.544,task,2021.1.4,Win32,60.06727535,628b806c463b948bc644b84f,629afa72e25fde1b1b4c653d,,,,,,,,,,,,,,,,,,,,,,,,,,,,,,,,,,,,,,,,,,,,,,,,,,,,,,,,,,,,,,,,,,,,,,,,,,,,,,,,,,,,,,,,,,,,,,,,,,,,,,,
,,"[""comma""]",0,[0.26669999998807725],111,0,111,0,1,5c4b42666634320001598ff4,22,Kobieta,2022-06-04_08h42.08.544,task,2021.1.4,Win32,60.06727535,628b806c463b948bc644b84f,629afa72e25fde1b1b4c653d,,,,,,,,,,,,,,,,,,,,,,,,,,,,,,,,,,,,,,,,,,,,,,,,,,,,,,,,,,,,,,,,,,,,,,,,,,,,,,,,,,,,,,,,,,,,,,,,,,,,,,,
,,"[""period""]",0,[0.2336999999880618],112,0,112,0,1,5c4b42666634320001598ff4,22,Kobieta,2022-06-04_08h42.08.544,task,2021.1.4,Win32,60.06727535,628b806c463b948bc644b84f,629afa72e25fde1b1b4c653d,,,,,,,,,,,,,,,,,,,,,,,,,,,,,,,,,,,,,,,,,,,,,,,,,,,,,,,,,,,,,,,,,,,,,,,,,,,,,,,,,,,,,,,,,,,,,,,,,,,,,,,
,,"[""comma""]",0,[0.26769999998811045],113,0,113,0,1,5c4b42666634320001598ff4,22,Kobieta,2022-06-04_08h42.08.544,task,2021.1.4,Win32,60.06727535,628b806c463b948bc644b84f,629afa72e25fde1b1b4c653d,,,,,,,,,,,,,,,,,,,,,,,,,,,,,,,,,,,,,,,,,,,,,,,,,,,,,,,,,,,,,,,,,,,,,,,,,,,,,,,,,,,,,,,,,,,,,,,,,,,,,,,
,,"[""period""]",0,[0.26990000000597547],114,0,114,0,1,5c4b42666634320001598ff4,22,Kobieta,2022-06-04_08h42.08.544,task,2021.1.4,Win32,60.06727535,628b806c463b948bc644b84f,629afa72e25fde1b1b4c653d,,,,,,,,,,,,,,,,,,,,,,,,,,,,,,,,,,,,,,,,,,,,,,,,,,,,,,,,,,,,,,,,,,,,,,,,,,,,,,,,,,,,,,,,,,,,,,,,,,,,,,,
,,"[""comma""]",0,[0.23279999998214862],115,0,115,0,1,5c4b42666634320001598ff4,22,Kobieta,2022-06-04_08h42.08.544,task,2021.1.4,Win32,60.06727535,628b806c463b948bc644b84f,629afa72e25fde1b1b4c653d,,,,,,,,,,,,,,,,,,,,,,,,,,,,,,,,,,,,,,,,,,,,,,,,,,,,,,,,,,,,,,,,,,,,,,,,,,,,,,,,,,,,,,,,,,,,,,,,,,,,,,,
,,"[""comma""]",0,[0.22550000000001091],116,0,116,0,1,5c4b42666634320001598ff4,22,Kobieta,2022-06-04_08h42.08.544,task,2021.1.4,Win32,60.06727535,628b806c463b948bc644b84f,629afa72e25fde1b1b4c653d,,,,,,,,,,,,,,,,,,,,,,,,,,,,,,,,,,,,,,,,,,,,,,,,,,,,,,,,,,,,,,,,,,,,,,,,,,,,,,,,,,,,,,,,,,,,,,,,,,,,,,,
,,"[""period""]",0,[0.21699999999998454],117,0,117,0,1,5c4b42666634320001598ff4,22,Kobieta,2022-06-04_08h42.08.544,task,2021.1.4,Win32,60.06727535,628b806c463b948bc644b84f,629afa72e25fde1b1b4c653d,,,,,,,,,,,,,,,,,,,,,,,,,,,,,,,,,,,,,,,,,,,,,,,,,,,,,,,,,,,,,,,,,,,,,,,,,,,,,,,,,,,,,,,,,,,,,,,,,,,,,,,
,,"[""period""]",0,[0.22259999999403135],118,0,118,0,1,5c4b42666634320001598ff4,22,Kobieta,2022-06-04_08h42.08.544,task,2021.1.4,Win32,60.06727535,628b806c463b948bc644b84f,629afa72e25fde1b1b4c653d,,,,,,,,,,,,,,,,,,,,,,,,,,,,,,,,,,,,,,,,,,,,,,,,,,,,,,,,,,,,,,,,,,,,,,,,,,,,,,,,,,,,,,,,,,,,,,,,,,,,,,,
,,"[""comma""]",0,[0.35340000000593363],119,0,119,0,1,5c4b42666634320001598ff4,22,Kobieta,2022-06-04_08h42.08.544,task,2021.1.4,Win32,60.06727535,628b806c463b948bc644b84f,629afa72e25fde1b1b4c653d,,,,,,,,,,,,,,,,,,,,,,,,,,,,,,,,,,,,,,,,,,,,,,,,,,,,,,,,,,,,,,,,,,,,,,,,,,,,,,,,,,,,,,,,,,,,,,,,,,,,,,,
,,,,,,,,,,5c4b42666634320001598ff4,22,Kobieta,2022-06-04_08h42.08.544,task,2021.1.4,Win32,60.06727535,628b806c463b948bc644b84f,629afa72e25fde1b1b4c653d,space,235.7901,space,3.3027,0,0,0,0,1,X V Q F H G B L J M P D K C T S W R N Z,,,,,,,,,,,,,,,,,,,,,,,,,,,,,,,,,,,,,,,,,,,,,,,,,,,,,,,,,,,,,,,,,,,,,,,,,,,,,,,,,,,,,,,,,,,,,
,,,,,,,,,,5c4b42666634320001598ff4,22,Kobieta,2022-06-04_08h42.08.544,task,2021.1.4,Win32,60.06727535,628b806c463b948bc644b84f,629afa72e25fde1b1b4c653d,,,,,1,0,1,0,1,X V Q F H G B L J M P D K C T S W R N Z,,,,,,,,,,,,,,,,,,,,,,,,,,,,,,,,,,,,,,,,,,,,,,,,,,,,,,,,,,,,,,,,,,,,,,,,,,,,,,,,,,,,,,,,,,,,,
,,,,,,,,,,5c4b42666634320001598ff4,22,Kobieta,2022-06-04_08h42.08.544,task,2021.1.4,Win32,60.06727535,628b806c463b948bc644b84f,629afa72e25fde1b1b4c653d,,,,,,,,,,,zq,"[""z"",""q""]","[1.4129000000059477,1.6635999999939486,3.139699999988011]",1,ZQ,0,0,0,0,1,,,,,,,,,,,,,,,,,,,,,,,,,,,,,,,,,,,,,,,,,,,,,,,,,,,,,,,,,,,,,,,,,,,,,,,,,,,,,,,,,,,
,,,,,,,,,,5c4b42666634320001598ff4,22,Kobieta,2022-06-04_08h42.08.544,task,2021.1.4,Win32,60.06727535,628b806c463b948bc644b84f,629afa72e25fde1b1b4c653d,,,,,0,0,0,0,1,X V Q F H G B L J M P D K C T S W R N Z,,,,,,,,,,,,,,,,,,,,,,,,,,,,,,,,,,,,,,,,,,,,,,,,,,,,,,,,,,,,,,,,,,,,,,,,,,,,,,,,,,,,,,,,,,,,,
,,,,,,,,,,5c4b42666634320001598ff4,22,Kobieta,2022-06-04_08h42.08.544,task,2021.1.4,Win32,60.06727535,628b806c463b948bc644b84f,629afa72e25fde1b1b4c653d,,,,,1,0,1,0,1,X V Q F H G B L J M P D K C T S W R N Z,,,,,,,,,,,,,,,,,,,,,,,,,,,,,,,,,,,,,,,,,,,,,,,,,,,,,,,,,,,,,,,,,,,,,,,,,,,,,,,,,,,,,,,,,,,,,
,,,,,,,,,,5c4b42666634320001598ff4,22,Kobieta,2022-06-04_08h42.08.544,task,2021.1.4,Win32,60.06727535,628b806c463b948bc644b84f,629afa72e25fde1b1b4c653d,,,,,,,,,,,sz,"[""s"",""z""]","[1.4544000000059896,1.7680999999940923,2.4914999999999736]",1,SZ,1,0,1,0,1,,,,,,,,,,,,,,,,,,,,,,,,,,,,,,,,,,,,,,,,,,,,,,,,,,,,,,,,,,,,,,,,,,,,,,,,,,,,,,,,,,,
,,,,,,,,,,5c4b42666634320001598ff4,22,Kobieta,2022-06-04_08h42.08.544,task,2021.1.4,Win32,60.06727535,628b806c463b948bc644b84f,629afa72e25fde1b1b4c653d,,,,,0,0,0,0,1,X V Q F H G B L J M P D K C T S W R N Z,,,,,,,,,,,,,,,,,,,,,,,,,,,,,,,,,,,,,,,,,,,,,,,,,,,,,,,,,,,,,,,,,,,,,,,,,,,,,,,,,,,,,,,,,,,,,
,,,,,,,,,,5c4b42666634320001598ff4,22,Kobieta,2022-06-04_08h42.08.544,task,2021.1.4,Win32,60.06727535,628b806c463b948bc644b84f,629afa72e25fde1b1b4c653d,,,,,1,0,1,0,1,X V Q F H G B L J M P D K C T S W R N Z,,,,,,,,,,,,,,,,,,,,,,,,,,,,,,,,,,,,,,,,,,,,,,,,,,,,,,,,,,,,,,,,,,,,,,,,,,,,,,,,,,,,,,,,,,,,,
,,,,,,,,,,5c4b42666634320001598ff4,22,Kobieta,2022-06-04_08h42.08.544,task,2021.1.4,Win32,60.06727535,628b806c463b948bc644b84f,629afa72e25fde1b1b4c653d,,,,,2,0,2,0,1,X V Q F H G B L J M P D K C T S W R N Z,,,,,,,,,,,,,,,,,,,,,,,,,,,,,,,,,,,,,,,,,,,,,,,,,,,,,,,,,,,,,,,,,,,,,,,,,,,,,,,,,,,,,,,,,,,,,
,,,,,,,,,,5c4b42666634320001598ff4,22,Kobieta,2022-06-04_08h42.08.544,task,2021.1.4,Win32,60.06727535,628b806c463b948bc644b84f,629afa72e25fde1b1b4c653d,,,,,,,,,,,vcf,"[""v"",""c"",""f""]","[0.9670000000000982,1.4010999999941305,1.6417999999821404,2.138099999994097]",1,VCF,2,0,2,0,1,,,,,,,,,,,,,,,,,,,,,,,,,,,,,,,,,,,,,,,,,,,,,,,,,,,,,,,,,,,,,,,,,,,,,,,,,,,,,,,,,,,
,,,,,,,,,,5c4b42666634320001598ff4,22,Kobieta,2022-06-04_08h42.08.544,task,2021.1.4,Win32,60.06727535,628b806c463b948bc644b84f,629afa72e25fde1b1b4c653d,,,,,0,0,0,0,1,X V Q F H G B L J M P D K C T S W R N Z,,,,,,,,,,,,,,,,,,,,,,,,,,,,,,,,,,,,,,,,,,,,,,,,,,,,,,,,,,,,,,,,,,,,,,,,,,,,,,,,,,,,,,,,,,,,,
,,,,,,,,,,5c4b42666634320001598ff4,22,Kobieta,2022-06-04_08h42.08.544,task,2021.1.4,Win32,60.06727535,628b806c463b948bc644b84f,629afa72e25fde1b1b4c653d,,,,,1,0,1,0,1,X V Q F H G B L J M P D K C T S W R N Z,,,,,,,,,,,,,,,,,,,,,,,,,,,,,,,,,,,,,,,,,,,,,,,,,,,,,,,,,,,,,,,,,,,,,,,,,,,,,,,,,,,,,,,,,,,,,
,,,,,,,,,,5c4b42666634320001598ff4,22,Kobieta,2022-06-04_08h42.08.544,task,2021.1.4,Win32,60.06727535,628b806c463b948bc644b84f,629afa72e25fde1b1b4c653d,,,,,2,0,2,0,1,X V Q F H G B L J M P D K C T S W R N Z,,,,,,,,,,,,,,,,,,,,,,,,,,,,,,,,,,,,,,,,,,,,,,,,,,,,,,,,,,,,,,,,,,,,,,,,,,,,,,,,,,,,,,,,,,,,,
,,,,,,,,,,5c4b42666634320001598ff4,22,Kobieta,2022-06-04_08h42.08.544,task,2021.1.4,Win32,60.06727535,628b806c463b948bc644b84f,629afa72e25fde1b1b4c653d,,,,,,,,,,,zdm,"[""z"",""d"",""m""]","[0.6675999999940814,0.951099999994085,1.093099999994024,1.4589000000059968]",1,ZDM,3,0,3,0,1,,,,,,,,,,,,,,,,,,,,,,,,,,,,,,,,,,,,,,,,,,,,,,,,,,,,,,,,,,,,,,,,,,,,,,,,,,,,,,,,,,,
,,,,,,,,,,5c4b42666634320001598ff4,22,Kobieta,2022-06-04_08h42.08.544,task,2021.1.4,Win32,60.06727535,628b806c463b948bc644b84f,629afa72e25fde1b1b4c653d,,,,,0,0,0,0,1,X V Q F H G B L J M P D K C T S W R N Z,,,,,,,,,,,,,,,,,,,,,,,,,,,,,,,,,,,,,,,,,,,,,,,,,,,,,,,,,,,,,,,,,,,,,,,,,,,,,,,,,,,,,,,,,,,,,
,,,,,,,,,,5c4b42666634320001598ff4,22,Kobieta,2022-06-04_08h42.08.544,task,2021.1.4,Win32,60.06727535,628b806c463b948bc644b84f,629afa72e25fde1b1b4c653d,,,,,1,0,1,0,1,X V Q F H G B L J M P D K C T S W R N Z,,,,,,,,,,,,,,,,,,,,,,,,,,,,,,,,,,,,,,,,,,,,,,,,,,,,,,,,,,,,,,,,,,,,,,,,,,,,,,,,,,,,,,,,,,,,,
,,,,,,,,,,5c4b42666634320001598ff4,22,Kobieta,2022-06-04_08h42.08.544,task,2021.1.4,Win32,60.06727535,628b806c463b948bc644b84f,629afa72e25fde1b1b4c653d,,,,,2,0,2,0,1,X V Q F H G B L J M P D K C T S W R N Z,,,,,,,,,,,,,,,,,,,,,,,,,,,,,,,,,,,,,,,,,,,,,,,,,,,,,,,,,,,,,,,,,,,,,,,,,,,,,,,,,,,,,,,,,,,,,
,,,,,,,,,,5c4b42666634320001598ff4,22,Kobieta,2022-06-04_08h42.08.544,task,2021.1.4,Win32,60.06727535,628b806c463b948bc644b84f,629afa72e25fde1b1b4c653d,,,,,3,0,3,0,1,X V Q F H G B L J M P D K C T S W R N Z,,,,,,,,,,,,,,,,,,,,,,,,,,,,,,,,,,,,,,,,,,,,,,,,,,,,,,,,,,,,,,,,,,,,,,,,,,,,,,,,,,,,,,,,,,,,,
,,,,,,,,,,5c4b42666634320001598ff4,22,Kobieta,2022-06-04_08h42.08.544,task,2021.1.4,Win32,60.06727535,628b806c463b948bc644b84f,629afa72e25fde1b1b4c653d,,,,,,,,,,,tzpd,"[""t"",""z"",""p"",""d""]","[0.8345999999939977,1.1055000000000064,1.41780000001188,1.650800000011941,1.892900000005966]",1,TZPD,4,0,4,0,1,,,,,,,,,,,,,,,,,,,,,,,,,,,,,,,,,,,,,,,,,,,,,,,,,,,,,,,,,,,,,,,,,,,,,,,,,,,,,,,,,,,
,,,,,,,,,,5c4b42666634320001598ff4,22,Kobieta,2022-06-04_08h42.08.544,task,2021.1.4,Win32,60.06727535,628b806c463b948bc644b84f,629afa72e25fde1b1b4c653d,,,,,0,0,0,0,1,X V Q F H G B L J M P D K C T S W R N Z,,,,,,,,,,,,,,,,,,,,,,,,,,,,,,,,,,,,,,,,,,,,,,,,,,,,,,,,,,,,,,,,,,,,,,,,,,,,,,,,,,,,,,,,,,,,,
,,,,,,,,,,5c4b42666634320001598ff4,22,Kobieta,2022-06-04_08h42.08.544,task,2021.1.4,Win32,60.06727535,628b806c463b948bc644b84f,629afa72e25fde1b1b4c653d,,,,,1,0,1,0,1,X V Q F H G B L J M P D K C T S W R N Z,,,,,,,,,,,,,,,,,,,,,,,,,,,,,,,,,,,,,,,,,,,,,,,,,,,,,,,,,,,,,,,,,,,,,,,,,,,,,,,,,,,,,,,,,,,,,
,,,,,,,,,,5c4b42666634320001598ff4,22,Kobieta,2022-06-04_08h42.08.544,task,2021.1.4,Win32,60.06727535,628b806c463b948bc644b84f,629afa72e25fde1b1b4c653d,,,,,2,0,2,0,1,X V Q F H G B L J M P D K C T S W R N Z,,,,,,,,,,,,,,,,,,,,,,,,,,,,,,,,,,,,,,,,,,,,,,,,,,,,,,,,,,,,,,,,,,,,,,,,,,,,,,,,,,,,,,,,,,,,,
,,,,,,,,,,5c4b42666634320001598ff4,22,Kobieta,2022-06-04_08h42.08.544,task,2021.1.4,Win32,60.06727535,628b806c463b948bc644b84f,629afa72e25fde1b1b4c653d,,,,,3,0,3,0,1,X V Q F H G B L J M P D K C T S W R N Z,,,,,,,,,,,,,,,,,,,,,,,,,,,,,,,,,,,,,,,,,,,,,,,,,,,,,,,,,,,,,,,,,,,,,,,,,,,,,,,,,,,,,,,,,,,,,
,,,,,,,,,,5c4b42666634320001598ff4,22,Kobieta,2022-06-04_08h42.08.544,task,2021.1.4,Win32,60.06727535,628b806c463b948bc644b84f,629afa72e25fde1b1b4c653d,,,,,,,,,,,hhmb,"[""h"",""h"",""m"",""b""]","[0.9665999999940595,1.1343000000118764,1.376699999988091,1.6166999999881,2.3230999999940423]",1,HHMB,5,0,5,0,1,,,,,,,,,,,,,,,,,,,,,,,,,,,,,,,,,,,,,,,,,,,,,,,,,,,,,,,,,,,,,,,,,,,,,,,,,,,,,,,,,,,
,,,,,,,,,,5c4b42666634320001598ff4,22,Kobieta,2022-06-04_08h42.08.544,task,2021.1.4,Win32,60.06727535,628b806c463b948bc644b84f,629afa72e25fde1b1b4c653d,,,,,0,0,0,0,1,X V Q F H G B L J M P D K C T S W R N Z,,,,,,,,,,,,,,,,,,,,,,,,,,,,,,,,,,,,,,,,,,,,,,,,,,,,,,,,,,,,,,,,,,,,,,,,,,,,,,,,,,,,,,,,,,,,,
,,,,,,,,,,5c4b42666634320001598ff4,22,Kobieta,2022-06-04_08h42.08.544,task,2021.1.4,Win32,60.06727535,628b806c463b948bc644b84f,629afa72e25fde1b1b4c653d,,,,,1,0,1,0,1,X V Q F H G B L J M P D K C T S W R N Z,,,,,,,,,,,,,,,,,,,,,,,,,,,,,,,,,,,,,,,,,,,,,,,,,,,,,,,,,,,,,,,,,,,,,,,,,,,,,,,,,,,,,,,,,,,,,
,,,,,,,,,,5c4b42666634320001598ff4,22,Kobieta,2022-06-04_08h42.08.544,task,2021.1.4,Win32,60.06727535,628b806c463b948bc644b84f,629afa72e25fde1b1b4c653d,,,,,2,0,2,0,1,X V Q F H G B L J M P D K C T S W R N Z,,,,,,,,,,,,,,,,,,,,,,,,,,,,,,,,,,,,,,,,,,,,,,,,,,,,,,,,,,,,,,,,,,,,,,,,,,,,,,,,,,,,,,,,,,,,,
,,,,,,,,,,5c4b42666634320001598ff4,22,Kobieta,2022-06-04_08h42.08.544,task,2021.1.4,Win32,60.06727535,628b806c463b948bc644b84f,629afa72e25fde1b1b4c653d,,,,,3,0,3,0,1,X V Q F H G B L J M P D K C T S W R N Z,,,,,,,,,,,,,,,,,,,,,,,,,,,,,,,,,,,,,,,,,,,,,,,,,,,,,,,,,,,,,,,,,,,,,,,,,,,,,,,,,,,,,,,,,,,,,
,,,,,,,,,,5c4b42666634320001598ff4,22,Kobieta,2022-06-04_08h42.08.544,task,2021.1.4,Win32,60.06727535,628b806c463b948bc644b84f,629afa72e25fde1b1b4c653d,,,,,4,0,4,0,1,X V Q F H G B L J M P D K C T S W R N Z,,,,,,,,,,,,,,,,,,,,,,,,,,,,,,,,,,,,,,,,,,,,,,,,,,,,,,,,,,,,,,,,,,,,,,,,,,,,,,,,,,,,,,,,,,,,,
,,,,,,,,,,5c4b42666634320001598ff4,22,Kobieta,2022-06-04_08h42.08.544,task,2021.1.4,Win32,60.06727535,628b806c463b948bc644b84f,629afa72e25fde1b1b4c653d,,,,,,,,,,,wwcdz,"[""w"",""w"",""c"",""d"",""z""]","[0.6670999999940932,0.8359000000059496,1.1419000000059896,1.4075000000000273,1.7168000000119719,1.9038000000119837]",1,WWCDZ,6,0,6,0,1,,,,,,,,,,,,,,,,,,,,,,,,,,,,,,,,,,,,,,,,,,,,,,,,,,,,,,,,,,,,,,,,,,,,,,,,,,,,,,,,,,,
,,,,,,,,,,5c4b42666634320001598ff4,22,Kobieta,2022-06-04_08h42.08.544,task,2021.1.4,Win32,60.06727535,628b806c463b948bc644b84f,629afa72e25fde1b1b4c653d,,,,,0,0,0,0,1,X V Q F H G B L J M P D K C T S W R N Z,,,,,,,,,,,,,,,,,,,,,,,,,,,,,,,,,,,,,,,,,,,,,,,,,,,,,,,,,,,,,,,,,,,,,,,,,,,,,,,,,,,,,,,,,,,,,
,,,,,,,,,,5c4b42666634320001598ff4,22,Kobieta,2022-06-04_08h42.08.544,task,2021.1.4,Win32,60.06727535,628b806c463b948bc644b84f,629afa72e25fde1b1b4c653d,,,,,1,0,1,0,1,X V Q F H G B L J M P D K C T S W R N Z,,,,,,,,,,,,,,,,,,,,,,,,,,,,,,,,,,,,,,,,,,,,,,,,,,,,,,,,,,,,,,,,,,,,,,,,,,,,,,,,,,,,,,,,,,,,,
,,,,,,,,,,5c4b42666634320001598ff4,22,Kobieta,2022-06-04_08h42.08.544,task,2021.1.4,Win32,60.06727535,628b806c463b948bc644b84f,629afa72e25fde1b1b4c653d,,,,,2,0,2,0,1,X V Q F H G B L J M P D K C T S W R N Z,,,,,,,,,,,,,,,,,,,,,,,,,,,,,,,,,,,,,,,,,,,,,,,,,,,,,,,,,,,,,,,,,,,,,,,,,,,,,,,,,,,,,,,,,,,,,
,,,,,,,,,,5c4b42666634320001598ff4,22,Kobieta,2022-06-04_08h42.08.544,task,2021.1.4,Win32,60.06727535,628b806c463b948bc644b84f,629afa72e25fde1b1b4c653d,,,,,3,0,3,0,1,X V Q F H G B L J M P D K C T S W R N Z,,,,,,,,,,,,,,,,,,,,,,,,,,,,,,,,,,,,,,,,,,,,,,,,,,,,,,,,,,,,,,,,,,,,,,,,,,,,,,,,,,,,,,,,,,,,,
,,,,,,,,,,5c4b42666634320001598ff4,22,Kobieta,2022-06-04_08h42.08.544,task,2021.1.4,Win32,60.06727535,628b806c463b948bc644b84f,629afa72e25fde1b1b4c653d,,,,,4,0,4,0,1,X V Q F H G B L J M P D K C T S W R N Z,,,,,,,,,,,,,,,,,,,,,,,,,,,,,,,,,,,,,,,,,,,,,,,,,,,,,,,,,,,,,,,,,,,,,,,,,,,,,,,,,,,,,,,,,,,,,
,,,,,,,,,,5c4b42666634320001598ff4,22,Kobieta,2022-06-04_08h42.08.544,task,2021.1.4,Win32,60.06727535,628b806c463b948bc644b84f,629afa72e25fde1b1b4c653d,,,,,,,,,,,njkmf,"[""n"",""j"",""k"",""m"",""f""]","[0.9169000000059668,1.1048000000118918,1.6913000000118927,1.9348000000119328,2.2680999999939786,2.42349999999999]",1,NJKMF,7,0,7,0,1,,,,,,,,,,,,,,,,,,,,,,,,,,,,,,,,,,,,,,,,,,,,,,,,,,,,,,,,,,,,,,,,,,,,,,,,,,,,,,,,,,,
,,,,,,,,,,5c4b42666634320001598ff4,22,Kobieta,2022-06-04_08h42.08.544,task,2021.1.4,Win32,60.06727535,628b806c463b948bc644b84f,629afa72e25fde1b1b4c653d,,,,,0,0,0,0,1,X V Q F H G B L J M P D K C T S W R N Z,,,,,,,,,,,,,,,,,,,,,,,,,,,,,,,,,,,,,,,,,,,,,,,,,,,,,,,,,,,,,,,,,,,,,,,,,,,,,,,,,,,,,,,,,,,,,
,,,,,,,,,,5c4b42666634320001598ff4,22,Kobieta,2022-06-04_08h42.08.544,task,2021.1.4,Win32,60.06727535,628b806c463b948bc644b84f,629afa72e25fde1b1b4c653d,,,,,1,0,1,0,1,X V Q F H G B L J M P D K C T S W R N Z,,,,,,,,,,,,,,,,,,,,,,,,,,,,,,,,,,,,,,,,,,,,,,,,,,,,,,,,,,,,,,,,,,,,,,,,,,,,,,,,,,,,,,,,,,,,,
,,,,,,,,,,5c4b42666634320001598ff4,22,Kobieta,2022-06-04_08h42.08.544,task,2021.1.4,Win32,60.06727535,628b806c463b948bc644b84f,629afa72e25fde1b1b4c653d,,,,,2,0,2,0,1,X V Q F H G B L J M P D K C T S W R N Z,,,,,,,,,,,,,,,,,,,,,,,,,,,,,,,,,,,,,,,,,,,,,,,,,,,,,,,,,,,,,,,,,,,,,,,,,,,,,,,,,,,,,,,,,,,,,
,,,,,,,,,,5c4b42666634320001598ff4,22,Kobieta,2022-06-04_08h42.08.544,task,2021.1.4,Win32,60.06727535,628b806c463b948bc644b84f,629afa72e25fde1b1b4c653d,,,,,3,0,3,0,1,X V Q F H G B L J M P D K C T S W R N Z,,,,,,,,,,,,,,,,,,,,,,,,,,,,,,,,,,,,,,,,,,,,,,,,,,,,,,,,,,,,,,,,,,,,,,,,,,,,,,,,,,,,,,,,,,,,,
,,,,,,,,,,5c4b42666634320001598ff4,22,Kobieta,2022-06-04_08h42.08.544,task,2021.1.4,Win32,60.06727535,628b806c463b948bc644b84f,629afa72e25fde1b1b4c653d,,,,,4,0,4,0,1,X V Q F H G B L J M P D K C T S W R N Z,,,,,,,,,,,,,,,,,,,,,,,,,,,,,,,,,,,,,,,,,,,,,,,,,,,,,,,,,,,,,,,,,,,,,,,,,,,,,,,,,,,,,,,,,,,,,
,,,,,,,,,,5c4b42666634320001598ff4,22,Kobieta,2022-06-04_08h42.08.544,task,2021.1.4,Win32,60.06727535,628b806c463b948bc644b84f,629afa72e25fde1b1b4c653d,,,,,5,0,5,0,1,X V Q F H G B L J M P D K C T S W R N Z,,,,,,,,,,,,,,,,,,,,,,,,,,,,,,,,,,,,,,,,,,,,,,,,,,,,,,,,,,,,,,,,,,,,,,,,,,,,,,,,,,,,,,,,,,,,,
,,,,,,,,,,5c4b42666634320001598ff4,22,Kobieta,2022-06-04_08h42.08.544,task,2021.1.4,Win32,60.06727535,628b806c463b948bc644b84f,629afa72e25fde1b1b4c653d,,,,,,,,,,,kbvsfb,"[""k"",""b"",""v"",""s"",""f"",""b""]","[0.6920999999940705,1.217700000017885,1.5673000000119828,1.9840999999941005,2.169099999994046,2.500400000005925,2.9014000000059923]",1,KBVSFB,8,0,8,0,1,,,,,,,,,,,,,,,,,,,,,,,,,,,,,,,,,,,,,,,,,,,,,,,,,,,,,,,,,,,,,,,,,,,,,,,,,,,,,,,,,,,
,,,,,,,,,,5c4b42666634320001598ff4,22,Kobieta,2022-06-04_08h42.08.544,task,2021.1.4,Win32,60.06727535,628b806c463b948bc644b84f,629afa72e25fde1b1b4c653d,,,,,0,0,0,0,1,X V Q F H G B L J M P D K C T S W R N Z,,,,,,,,,,,,,,,,,,,,,,,,,,,,,,,,,,,,,,,,,,,,,,,,,,,,,,,,,,,,,,,,,,,,,,,,,,,,,,,,,,,,,,,,,,,,,
,,,,,,,,,,5c4b42666634320001598ff4,22,Kobieta,2022-06-04_08h42.08.544,task,2021.1.4,Win32,60.06727535,628b806c463b948bc644b84f,629afa72e25fde1b1b4c653d,,,,,1,0,1,0,1,X V Q F H G B L J M P D K C T S W R N Z,,,,,,,,,,,,,,,,,,,,,,,,,,,,,,,,,,,,,,,,,,,,,,,,,,,,,,,,,,,,,,,,,,,,,,,,,,,,,,,,,,,,,,,,,,,,,
,,,,,,,,,,5c4b42666634320001598ff4,22,Kobieta,2022-06-04_08h42.08.544,task,2021.1.4,Win32,60.06727535,628b806c463b948bc644b84f,629afa72e25fde1b1b4c653d,,,,,2,0,2,0,1,X V Q F H G B L J M P D K C T S W R N Z,,,,,,,,,,,,,,,,,,,,,,,,,,,,,,,,,,,,,,,,,,,,,,,,,,,,,,,,,,,,,,,,,,,,,,,,,,,,,,,,,,,,,,,,,,,,,
,,,,,,,,,,5c4b42666634320001598ff4,22,Kobieta,2022-06-04_08h42.08.544,task,2021.1.4,Win32,60.06727535,628b806c463b948bc644b84f,629afa72e25fde1b1b4c653d,,,,,3,0,3,0,1,X V Q F H G B L J M P D K C T S W R N Z,,,,,,,,,,,,,,,,,,,,,,,,,,,,,,,,,,,,,,,,,,,,,,,,,,,,,,,,,,,,,,,,,,,,,,,,,,,,,,,,,,,,,,,,,,,,,
,,,,,,,,,,5c4b42666634320001598ff4,22,Kobieta,2022-06-04_08h42.08.544,task,2021.1.4,Win32,60.06727535,628b806c463b948bc644b84f,629afa72e25fde1b1b4c653d,,,,,4,0,4,0,1,X V Q F H G B L J M P D K C T S W R N Z,,,,,,,,,,,,,,,,,,,,,,,,,,,,,,,,,,,,,,,,,,,,,,,,,,,,,,,,,,,,,,,,,,,,,,,,,,,,,,,,,,,,,,,,,,,,,
,,,,,,,,,,5c4b42666634320001598ff4,22,Kobieta,2022-06-04_08h42.08.544,task,2021.1.4,Win32,60.06727535,628b806c463b948bc644b84f,629afa72e25fde1b1b4c653d,,,,,5,0,5,0,1,X V Q F H G B L J M P D K C T S W R N Z,,,,,,,,,,,,,,,,,,,,,,,,,,,,,,,,,,,,,,,,,,,,,,,,,,,,,,,,,,,,,,,,,,,,,,,,,,,,,,,,,,,,,,,,,,,,,
,,,,,,,,,,5c4b42666634320001598ff4,22,Kobieta,2022-06-04_08h42.08.544,task,2021.1.4,Win32,60.06727535,628b806c463b948bc644b84f,629afa72e25fde1b1b4c653d,,,,,,,,,,,fcpzlvc,"[""f"",""c"",""p"",""z"",""l"",""v"",""c""]","[1.2700000000000955,1.6007000000179232,1.8337000000179842,2.233500000000049,3.6165000000000873,3.832700000017894,4.26690000000599,4.550500000000056]",0,FPCZVL,9,0,9,0,1,,,,,,,,,,,,,,,,,,,,,,,,,,,,,,,,,,,,,,,,,,,,,,,,,,,,,,,,,,,,,,,,,,,,,,,,,,,,,,,,,,,
,,,,,,,,,,5c4b42666634320001598ff4,22,Kobieta,2022-06-04_08h42.08.544,task,2021.1.4,Win32,60.06727535,628b806c463b948bc644b84f,629afa72e25fde1b1b4c653d,,,,,0,0,0,0,1,X V Q F H G B L J M P D K C T S W R N Z,,,,,,,,,,,,,,,,,,,,,,,,,,,,,,,,,,,,,,,,,,,,,,,,,,,,,,,,,,,,,,,,,,,,,,,,,,,,,,,,,,,,,,,,,,,,,
,,,,,,,,,,5c4b42666634320001598ff4,22,Kobieta,2022-06-04_08h42.08.544,task,2021.1.4,Win32,60.06727535,628b806c463b948bc644b84f,629afa72e25fde1b1b4c653d,,,,,1,0,1,0,1,X V Q F H G B L J M P D K C T S W R N Z,,,,,,,,,,,,,,,,,,,,,,,,,,,,,,,,,,,,,,,,,,,,,,,,,,,,,,,,,,,,,,,,,,,,,,,,,,,,,,,,,,,,,,,,,,,,,
,,,,,,,,,,5c4b42666634320001598ff4,22,Kobieta,2022-06-04_08h42.08.544,task,2021.1.4,Win32,60.06727535,628b806c463b948bc644b84f,629afa72e25fde1b1b4c653d,,,,,2,0,2,0,1,X V Q F H G B L J M P D K C T S W R N Z,,,,,,,,,,,,,,,,,,,,,,,,,,,,,,,,,,,,,,,,,,,,,,,,,,,,,,,,,,,,,,,,,,,,,,,,,,,,,,,,,,,,,,,,,,,,,
,,,,,,,,,,5c4b42666634320001598ff4,22,Kobieta,2022-06-04_08h42.08.544,task,2021.1.4,Win32,60.06727535,628b806c463b948bc644b84f,629afa72e25fde1b1b4c653d,,,,,3,0,3,0,1,X V Q F H G B L J M P D K C T S W R N Z,,,,,,,,,,,,,,,,,,,,,,,,,,,,,,,,,,,,,,,,,,,,,,,,,,,,,,,,,,,,,,,,,,,,,,,,,,,,,,,,,,,,,,,,,,,,,
,,,,,,,,,,5c4b42666634320001598ff4,22,Kobieta,2022-06-04_08h42.08.544,task,2021.1.4,Win32,60.06727535,628b806c463b948bc644b84f,629afa72e25fde1b1b4c653d,,,,,4,0,4,0,1,X V Q F H G B L J M P D K C T S W R N Z,,,,,,,,,,,,,,,,,,,,,,,,,,,,,,,,,,,,,,,,,,,,,,,,,,,,,,,,,,,,,,,,,,,,,,,,,,,,,,,,,,,,,,,,,,,,,
,,,,,,,,,,5c4b42666634320001598ff4,22,Kobieta,2022-06-04_08h42.08.544,task,2021.1.4,Win32,60.06727535,628b806c463b948bc644b84f,629afa72e25fde1b1b4c653d,,,,,5,0,5,0,1,X V Q F H G B L J M P D K C T S W R N Z,,,,,,,,,,,,,,,,,,,,,,,,,,,,,,,,,,,,,,,,,,,,,,,,,,,,,,,,,,,,,,,,,,,,,,,,,,,,,,,,,,,,,,,,,,,,,
,,,,,,,,,,5c4b42666634320001598ff4,22,Kobieta,2022-06-04_08h42.08.544,task,2021.1.4,Win32,60.06727535,628b806c463b948bc644b84f,629afa72e25fde1b1b4c653d,,,,,,,,,,,zfjhrs,"[""z"",""f"",""j"",""h"",""r"",""s""]","[1.2984000000059268,1.4990000000000236,1.8544000000059668,2.30030000001193,2.5658000000119046,2.8512000000179114,3.066800000011881]",0,ZFJRHS,10,0,10,0,1,,,,,,,,,,,,,,,,,,,,,,,,,,,,,,,,,,,,,,,,,,,,,,,,,,,,,,,,,,,,,,,,,,,,,,,,,,,,,,,,,,,
,,,,,,,,,,5c4b42666634320001598ff4,22,Kobieta,2022-06-04_08h42.08.544,task,2021.1.4,Win32,60.06727535,628b806c463b948bc644b84f,629afa72e25fde1b1b4c653d,,,,,0,0,0,0,1,X V Q F H G B L J M P D K C T S W R N Z,,,,,,,,,,,,,,,,,,,,,,,,,,,,,,,,,,,,,,,,,,,,,,,,,,,,,,,,,,,,,,,,,,,,,,,,,,,,,,,,,,,,,,,,,,,,,
,,,,,,,,,,5c4b42666634320001598ff4,22,Kobieta,2022-06-04_08h42.08.544,task,2021.1.4,Win32,60.06727535,628b806c463b948bc644b84f,629afa72e25fde1b1b4c653d,,,,,1,0,1,0,1,X V Q F H G B L J M P D K C T S W R N Z,,,,,,,,,,,,,,,,,,,,,,,,,,,,,,,,,,,,,,,,,,,,,,,,,,,,,,,,,,,,,,,,,,,,,,,,,,,,,,,,,,,,,,,,,,,,,
,,,,,,,,,,5c4b42666634320001598ff4,22,Kobieta,2022-06-04_08h42.08.544,task,2021.1.4,Win32,60.06727535,628b806c463b948bc644b84f,629afa72e25fde1b1b4c653d,,,,,2,0,2,0,1,X V Q F H G B L J M P D K C T S W R N Z,,,,,,,,,,,,,,,,,,,,,,,,,,,,,,,,,,,,,,,,,,,,,,,,,,,,,,,,,,,,,,,,,,,,,,,,,,,,,,,,,,,,,,,,,,,,,
,,,,,,,,,,5c4b42666634320001598ff4,22,Kobieta,2022-06-04_08h42.08.544,task,2021.1.4,Win32,60.06727535,628b806c463b948bc644b84f,629afa72e25fde1b1b4c653d,,,,,3,0,3,0,1,X V Q F H G B L J M P D K C T S W R N Z,,,,,,,,,,,,,,,,,,,,,,,,,,,,,,,,,,,,,,,,,,,,,,,,,,,,,,,,,,,,,,,,,,,,,,,,,,,,,,,,,,,,,,,,,,,,,
,,,,,,,,,,5c4b42666634320001598ff4,22,Kobieta,2022-06-04_08h42.08.544,task,2021.1.4,Win32,60.06727535,628b806c463b948bc644b84f,629afa72e25fde1b1b4c653d,,,,,4,0,4,0,1,X V Q F H G B L J M P D K C T S W R N Z,,,,,,,,,,,,,,,,,,,,,,,,,,,,,,,,,,,,,,,,,,,,,,,,,,,,,,,,,,,,,,,,,,,,,,,,,,,,,,,,,,,,,,,,,,,,,
,,,,,,,,,,5c4b42666634320001598ff4,22,Kobieta,2022-06-04_08h42.08.544,task,2021.1.4,Win32,60.06727535,628b806c463b948bc644b84f,629afa72e25fde1b1b4c653d,,,,,5,0,5,0,1,X V Q F H G B L J M P D K C T S W R N Z,,,,,,,,,,,,,,,,,,,,,,,,,,,,,,,,,,,,,,,,,,,,,,,,,,,,,,,,,,,,,,,,,,,,,,,,,,,,,,,,,,,,,,,,,,,,,
,,,,,,,,,,5c4b42666634320001598ff4,22,Kobieta,2022-06-04_08h42.08.544,task,2021.1.4,Win32,60.06727535,628b806c463b948bc644b84f,629afa72e25fde1b1b4c653d,,,,,,,,,,,hkgdrf,"[""h"",""k"",""g"",""d"",""r"",""f""]","[0.93930000001194,1.7507000000179005,2.8551000000238673,3.0899000000059686,6.01580000001195,6.2158000000119955,6.505300000011971]",0,HKDGFR,11,0,11,0,1,,,,,,,,,,,,,,,,,,,,,,,,,,,,,,,,,,,,,,,,,,,,,,,,,,,,,,,,,,,,,,,,,,,,,,,,,,,,,,,,,,,
,,,,,,,,,,5c4b42666634320001598ff4,22,Kobieta,2022-06-04_08h42.08.544,task,2021.1.4,Win32,60.06727535,628b806c463b948bc644b84f,629afa72e25fde1b1b4c653d,,,,,,,,,,,,,,,,,,,,,space,7.2842,4,"[""4""]",1,[4.805200000017862],[4.805200000017862],0,0,0,4,1,Practice,5,(2x6) - 8,4,,,,,,,,,,,,,,,,,,,,,,,,,,,,,,,,,,,,,,,,,,,,,,,,,,,,,,,,,,,,,,,,,,,
,,,,,,,,,,5c4b42666634320001598ff4,22,Kobieta,2022-06-04_08h42.08.544,task,2021.1.4,Win32,60.06727535,628b806c463b948bc644b84f,629afa72e25fde1b1b4c653d,,,,,,,,,,,,,,,,,,,,,,,9,"[""9""]",1,[3.050999999999931],"[4.805200000017862,3.050999999999931]",0,1,1,9,1,Practice,10,(20/2) - 1,9,,,,,,,,,,,,,,,,,,,,,,,,,,,,,,,,,,,,,,,,,,,,,,,,,,,,,,,,,,,,,,,,,,,
,,,,,,,,,,5c4b42666634320001598ff4,22,Kobieta,2022-06-04_08h42.08.544,task,2021.1.4,Win32,60.06727535,628b806c463b948bc644b84f,629afa72e25fde1b1b4c653d,,,,,,,,,,,,,,,,,,,,,,,0,"[""0""]",1,[1.6405999999940377],"[4.805200000017862,3.050999999999931,1.6405999999940377]",0,2,2,0,1,Practice,1,(3x3) -  9,0,,,,,,,,,,,,,,,,,,,,,,,,,,,,,,,,,,,,,,,,,,,,,,,,,,,,,,,,,,,,,,,,,,,
,,,,,,,,,,5c4b42666634320001598ff4,22,Kobieta,2022-06-04_08h42.08.544,task,2021.1.4,Win32,60.06727535,628b806c463b948bc644b84f,629afa72e25fde1b1b4c653d,,,,,,,,,,,,,,,,,,,,,,,1,"[""1""]",1,[1.8253000000119073],"[4.805200000017862,3.050999999999931,1.6405999999940377,1.8253000000119073]",0,3,3,1,1,Practice,2,(4x4) - 15,1,,,,,,,,,,,,,,,,,,,,,,,,,,,,,,,,,,,,,,,,,,,,,,,,,,,,,,,,,,,,,,,,,,,
,,,,,,,,,,5c4b42666634320001598ff4,22,Kobieta,2022-06-04_08h42.08.544,task,2021.1.4,Win32,60.06727535,628b806c463b948bc644b84f,629afa72e25fde1b1b4c653d,,,,,,,,,,,,,,,,,,,,,,,8,"[""8""]",1,[1.902599999994095],"[4.805200000017862,3.050999999999931,1.6405999999940377,1.8253000000119073,1.902599999994095]",0,4,4,8,1,Practice,9,(3x3) - 1,8,,,,,,,,,,,,,,,,,,,,,,,,,,,,,,,,,,,,,,,,,,,,,,,,,,,,,,,,,,,,,,,,,,,
,,,,,,,,,,5c4b42666634320001598ff4,22,Kobieta,2022-06-04_08h42.08.544,task,2021.1.4,Win32,60.06727535,628b806c463b948bc644b84f,629afa72e25fde1b1b4c653d,,,,,,,,,,,,,,,,,,,,,,,3,"[""3""]",0,[2.987300000011942],"[4.805200000017862,3.050999999999931,1.6405999999940377,1.8253000000119073,1.902599999994095,2.987300000011942]",0,5,5,7,1,Practice,8,(5x5) - 18,7,,,,,,,,,,,,,,,,,,,,,,,,,,,,,,,,,,,,,,,,,,,,,,,,,,,,,,,,,,,,,,,,,,,
,,,,,,,,,,5c4b42666634320001598ff4,22,Kobieta,2022-06-04_08h42.08.544,task,2021.1.4,Win32,60.06727535,628b806c463b948bc644b84f,629afa72e25fde1b1b4c653d,,,,,,,,,,,,,,,,,,,,,,,3,"[""3""]",1,[2.334799999982124],"[4.805200000017862,3.050999999999931,1.6405999999940377,1.8253000000119073,1.902599999994095,2.987300000011942,2.334799999982124]",0,6,6,3,1,Practice,4,(8/4) + 1,3,,,,,,,,,,,,,,,,,,,,,,,,,,,,,,,,,,,,,,,,,,,,,,,,,,,,,,,,,,,,,,,,,,,
,,,,,,,,,,5c4b42666634320001598ff4,22,Kobieta,2022-06-04_08h42.08.544,task,2021.1.4,Win32,60.06727535,628b806c463b948bc644b84f,629afa72e25fde1b1b4c653d,,,,,,,,,,,,,,,,,,,,,,,5,"[""5""]",1,[3.088800000011929],"[4.805200000017862,3.050999999999931,1.6405999999940377,1.8253000000119073,1.902599999994095,2.987300000011942,2.334799999982124,3.088800000011929]",0,7,7,5,1,Practice,6,(4/2) + 3,5,,,,,,,,,,,,,,,,,,,,,,,,,,,,,,,,,,,,,,,,,,,,,,,,,,,,,,,,,,,,,,,,,,,
,,,,,,,,,,5c4b42666634320001598ff4,22,Kobieta,2022-06-04_08h42.08.544,task,2021.1.4,Win32,60.06727535,628b806c463b948bc644b84f,629afa72e25fde1b1b4c653d,,,,,,,,,,,,,,,,,,,,,,,2,"[""2""]",1,[1.734800000012001],"[4.805200000017862,3.050999999999931,1.6405999999940377,1.8253000000119073,1.902599999994095,2.987300000011942,2.334799999982124,3.088800000011929,1.734800000012001]",0,8,8,2,1,Practice,3,(4x4) - 14,2,,,,,,,,,,,,,,,,,,,,,,,,,,,,,,,,,,,,,,,,,,,,,,,,,,,,,,,,,,,,,,,,,,,
,,,,,,,,,,5c4b42666634320001598ff4,22,Kobieta,2022-06-04_08h42.08.544,task,2021.1.4,Win32,60.06727535,628b806c463b948bc644b84f,629afa72e25fde1b1b4c653d,,,,,,,,,,,,,,,,,,,,,,,6,"[""6""]",1,[2.341000000000008],"[4.805200000017862,3.050999999999931,1.6405999999940377,1.8253000000119073,1.902599999994095,2.987300000011942,2.334799999982124,3.088800000011929,1.734800000012001,2.341000000000008]",0,9,9,6,1,Practice,7,(25/5) + 1,6,,,,,,,,,,,,,,,,,,,,,,,,,,,,,,,,,,,,,,,,,,,,,,,,,,,,,,,,,,,,,,,,,,,
,,,,,,,,,,5c4b42666634320001598ff4,22,Kobieta,2022-06-04_08h42.08.544,task,2021.1.4,Win32,60.06727535,628b806c463b948bc644b84f,629afa72e25fde1b1b4c653d,,,,,,,,,,,,,,,,,,,,,,,,,,,,,,,,,,,,,0.9,25.7114,1.714093333,15.68515395,1.022583459,4.352358657,space,2.2341,0,0,0,0,1,,,,,,,,,,,,,,,,,,,,,,,,,,,,,,,,,,,,,,,,,,,,,,,,,,,,,,
,,,,,,,,,,5c4b42666634320001598ff4,22,Kobieta,2022-06-04_08h42.08.544,task,2021.1.4,Win32,60.06727535,628b806c463b948bc644b84f,629afa72e25fde1b1b4c653d,,,,,,,,,,,,,,,,,,,,,,,4,,,,,,,,,,Practice,5,(2x6) - 8,4,,,,,,,,,,,,,,space,13.057,"[""4""]",1,[2.6889000000059013],1,0,0,0,4,1,,,,,,,,,,,,,,,,,,,,,,,,,,,,,,,,,,,,,,,,,,,
,,,,,,,,,,5c4b42666634320001598ff4,22,Kobieta,2022-06-04_08h42.08.544,task,2021.1.4,Win32,60.06727535,628b806c463b948bc644b84f,629afa72e25fde1b1b4c653d,,,,,,,,,,X V Q F H G B L J M P D K C T S W R N Z,,,,,,,,,,,,,,,,,,,,,,,,,,,,,,,,,,,,,,,,,,,,,,,,,,,0,0,0,0,1,,,,,,,,,,,,,,,,,,,,,,,,,,,,,,,,,,,,,,
,,,,,,,,,,5c4b42666634320001598ff4,22,Kobieta,2022-06-04_08h42.08.544,task,2021.1.4,Win32,60.06727535,628b806c463b948bc644b84f,629afa72e25fde1b1b4c653d,,,,,,,,,,,,,,,,,,,,,,,2,,,,,,,,,,Practice,3,(4x4) - 14,2,,,,,,,,,,,,,,,,"[""2""]",1,[1.5586999999881073],1,0,0,0,2,1,,,,,,,,,,,,,,,,,,,,,,,,,,,,,,,,,,,,,,,,,,,
,,,,,,,,,,5c4b42666634320001598ff4,22,Kobieta,2022-06-04_08h42.08.544,task,2021.1.4,Win32,60.06727535,628b806c463b948bc644b84f,629afa72e25fde1b1b4c653d,,,,,,,,,,X V Q F H G B L J M P D K C T S W R N Z,,,,,,,,,,,,,,,,,,,,,,,,,,,,,,,,,,,,,,,,,,,,,,,,,,,1,0,1,0,1,,,,,,,,,,,,,,,,,,,,,,,,,,,,,,,,,,,,,,
,,,,,,,,,,5c4b42666634320001598ff4,22,Kobieta,2022-06-04_08h42.08.544,task,2021.1.4,Win32,60.06727535,628b806c463b948bc644b84f,629afa72e25fde1b1b4c653d,,,,,,,,,,,,,,,,,,,,,,,,,,,,,,,,,,,,,,,,,,,,,,,,,,,,,,,,,,,,,,,,,,zw,"[""z"",""w""]",0,"[1.7838999999761427,2.1340000000000146,2.517799999982117]",1,0,0,0,0,1,,,,,,,,,,,,,,,,,,,,,,,,,,,,
,,,,,,,,,,5c4b42666634320001598ff4,22,Kobieta,2022-06-04_08h42.08.544,task,2021.1.4,Win32,60.06727535,628b806c463b948bc644b84f,629afa72e25fde1b1b4c653d,,,,,,,,,,,,,,,,,,,,,,,,,,,,,,,,,Practice,8,(5x5) - 18,7,,,,,,,,,,,,,,,,,0,,0,0,0,0,7,1,,,,,,,,,,,,,,,,,,,,,,,,,,,,,,,,,,,,,,,,,,,
,,,,,,,,,,5c4b42666634320001598ff4,22,Kobieta,2022-06-04_08h42.08.544,task,2021.1.4,Win32,60.06727535,628b806c463b948bc644b84f,629afa72e25fde1b1b4c653d,,,,,,,,,,,,,,,,,,,,,,,0,,,,,,,,,,Practice,1,(3x3) -  9,0,,,,,,,,,,,,,,,,"[""0""]",1,[1.4345999999940204],1,0,1,1,0,1,,,,,,,,,,,,,,,,,,,,,,,,,,,,,,,,,,,,,,,,,,,
,,,,,,,,,,5c4b42666634320001598ff4,22,Kobieta,2022-06-04_08h42.08.544,task,2021.1.4,Win32,60.06727535,628b806c463b948bc644b84f,629afa72e25fde1b1b4c653d,,,,,,,,,,X V Q F H G B L J M P D K C T S W R N Z,,,,,,,,,,,,,,,,,,,,,,,,,,,,,,,,,,,,,,,,,,,,,,,,,,,0,0,0,0,1,,,,,,,,,,,,,,,,,,,,,,,,,,,,,,,,,,,,,,
,,,,,,,,,,5c4b42666634320001598ff4,22,Kobieta,2022-06-04_08h42.08.544,task,2021.1.4,Win32,60.06727535,628b806c463b948bc644b84f,629afa72e25fde1b1b4c653d,,,,,,,,,,,,,,,,,,,,,,,2,,,,,,,,,,Practice,3,(4x4) - 14,2,,,,,,,,,,,,,,,,"[""2""]",1,[1.8650999999940723],1,0,0,0,2,1,,,,,,,,,,,,,,,,,,,,,,,,,,,,,,,,,,,,,,,,,,,
,,,,,,,,,,5c4b42666634320001598ff4,22,Kobieta,2022-06-04_08h42.08.544,task,2021.1.4,Win32,60.06727535,628b806c463b948bc644b84f,629afa72e25fde1b1b4c653d,,,,,,,,,,X V Q F H G B L J M P D K C T S W R N Z,,,,,,,,,,,,,,,,,,,,,,,,,,,,,,,,,,,,,,,,,,,,,,,,,,,1,0,1,0,1,,,,,,,,,,,,,,,,,,,,,,,,,,,,,,,,,,,,,,
,,,,,,,,,,5c4b42666634320001598ff4,22,Kobieta,2022-06-04_08h42.08.544,task,2021.1.4,Win32,60.06727535,628b806c463b948bc644b84f,629afa72e25fde1b1b4c653d,,,,,,,,,,,,,,,,,,,,,,,,,,,,,,,,,,,,,,,,,,,,,,,,,,,,,,,,,,,,,,,,,,zwl,"[""z"",""w"",""l""]",0,"[1.6012000000179114,1.9173000000120055,2.0410000000000537,2.3369000000060396]",0,1,0,1,0,1,,,,,,,,,,,,,,,,,,,,,,,,,,,,
,,,,,,,,,,5c4b42666634320001598ff4,22,Kobieta,2022-06-04_08h42.08.544,task,2021.1.4,Win32,60.06727535,628b806c463b948bc644b84f,629afa72e25fde1b1b4c653d,,,,,,,,,,,,,,,,,,,,,,,5,,,,,,,,,,Practice,6,(4/2) + 3,5,,,,,,,,,,,,,,,,"[""5""]",1,[2.4547999999821286],1,0,0,0,5,1,,,,,,,,,,,,,,,,,,,,,,,,,,,,,,,,,,,,,,,,,,,
,,,,,,,,,,5c4b42666634320001598ff4,22,Kobieta,2022-06-04_08h42.08.544,task,2021.1.4,Win32,60.06727535,628b806c463b948bc644b84f,629afa72e25fde1b1b4c653d,,,,,,,,,,X V Q F H G B L J M P D K C T S W R N Z,,,,,,,,,,,,,,,,,,,,,,,,,,,,,,,,,,,,,,,,,,,,,,,,,,,0,0,0,0,1,,,,,,,,,,,,,,,,,,,,,,,,,,,,,,,,,,,,,,
,,,,,,,,,,5c4b42666634320001598ff4,22,Kobieta,2022-06-04_08h42.08.544,task,2021.1.4,Win32,60.06727535,628b806c463b948bc644b84f,629afa72e25fde1b1b4c653d,,,,,,,,,,,,,,,,,,,,,,,1,,,,,,,,,,Practice,2,(4x4) - 15,1,,,,,,,,,,,,,,,,"[""1""]",1,[1.9338000000119564],1,0,0,0,1,1,,,,,,,,,,,,,,,,,,,,,,,,,,,,,,,,,,,,,,,,,,,
,,,,,,,,,,5c4b42666634320001598ff4,22,Kobieta,2022-06-04_08h42.08.544,task,2021.1.4,Win32,60.06727535,628b806c463b948bc644b84f,629afa72e25fde1b1b4c653d,,,,,,,,,,X V Q F H G B L J M P D K C T S W R N Z,,,,,,,,,,,,,,,,,,,,,,,,,,,,,,,,,,,,,,,,,,,,,,,,,,,1,0,1,0,1,,,,,,,,,,,,,,,,,,,,,,,,,,,,,,,,,,,,,,
,,,,,,,,,,5c4b42666634320001598ff4,22,Kobieta,2022-06-04_08h42.08.544,task,2021.1.4,Win32,60.06727535,628b806c463b948bc644b84f,629afa72e25fde1b1b4c653d,,,,,,,,,,,,,,,,,,,,,,,,,,,,,,,,,,,,,,,,,,,,,,,,,,,,,,,,,,,,,,,,,,tj,"[""t"",""j""]",0,"[1.8176999999880081,2.1026999999879763,2.669099999993932]",1,2,0,2,0,1,,,,,,,,,,,,,,,,,,,,,,,,,,,,
,,,,,,,,,,5c4b42666634320001598ff4,22,Kobieta,2022-06-04_08h42.08.544,task,2021.1.4,Win32,60.06727535,628b806c463b948bc644b84f,629afa72e25fde1b1b4c653d,,,,,,,,,,,,,,,,,,,,,,,9,,,,,,,,,,Practice,10,(20/2) - 1,9,,,,,,,,,,,,,,,,"[""9""]",1,[1.803300000011859],1,0,0,0,9,1,,,,,,,,,,,,,,,,,,,,,,,,,,,,,,,,,,,,,,,,,,,
,,,,,,,,,,5c4b42666634320001598ff4,22,Kobieta,2022-06-04_08h42.08.544,task,2021.1.4,Win32,60.06727535,628b806c463b948bc644b84f,629afa72e25fde1b1b4c653d,,,,,,,,,,X V Q F H G B L J M P D K C T S W R N Z,,,,,,,,,,,,,,,,,,,,,,,,,,,,,,,,,,,,,,,,,,,,,,,,,,,0,0,0,0,1,,,,,,,,,,,,,,,,,,,,,,,,,,,,,,,,,,,,,,
,,,,,,,,,,5c4b42666634320001598ff4,22,Kobieta,2022-06-04_08h42.08.544,task,2021.1.4,Win32,60.06727535,628b806c463b948bc644b84f,629afa72e25fde1b1b4c653d,,,,,,,,,,,,,,,,,,,,,,,3,,,,,,,,,,Practice,4,(8/4) + 1,3,,,,,,,,,,,,,,,,"[""3""]",1,[2.415599999994015],1,0,0,0,3,1,,,,,,,,,,,,,,,,,,,,,,,,,,,,,,,,,,,,,,,,,,,
,,,,,,,,,,5c4b42666634320001598ff4,22,Kobieta,2022-06-04_08h42.08.544,task,2021.1.4,Win32,60.06727535,628b806c463b948bc644b84f,629afa72e25fde1b1b4c653d,,,,,,,,,,X V Q F H G B L J M P D K C T S W R N Z,,,,,,,,,,,,,,,,,,,,,,,,,,,,,,,,,,,,,,,,,,,,,,,,,,,1,0,1,0,1,,,,,,,,,,,,,,,,,,,,,,,,,,,,,,,,,,,,,,
,,,,,,,,,,5c4b42666634320001598ff4,22,Kobieta,2022-06-04_08h42.08.544,task,2021.1.4,Win32,60.06727535,628b806c463b948bc644b84f,629afa72e25fde1b1b4c653d,,,,,,,,,,,,,,,,,,,,,,,,,,,,,,,,,,,,,,,,,,,,,,,,,,,,,,,,,,,,,,,,,,jq,"[""j"",""q""]",0,"[1.454499999999939,2.021900000005985,2.301200000017843]",1,3,0,3,0,1,,,,,,,,,,,,,,,,,,,,,,,,,,,,
,,,,,,,,,,5c4b42666634320001598ff4,22,Kobieta,2022-06-04_08h42.08.544,task,2021.1.4,Win32,60.06727535,628b806c463b948bc644b84f,629afa72e25fde1b1b4c653d,,,,,,,,,,,,,,,,,,,,,,,9,,,,,,,,,,Practice,10,(20/2) - 1,9,,,,,,,,,,,,,,,,"[""9""]",1,[1.849999999999909],1,0,0,0,9,1,,,,,,,,,,,,,,,,,,,,,,,,,,,,,,,,,,,,,,,,,,,
,,,,,,,,,,5c4b42666634320001598ff4,22,Kobieta,2022-06-04_08h42.08.544,task,2021.1.4,Win32,60.06727535,628b806c463b948bc644b84f,629afa72e25fde1b1b4c653d,,,,,,,,,,X V Q F H G B L J M P D K C T S W R N Z,,,,,,,,,,,,,,,,,,,,,,,,,,,,,,,,,,,,,,,,,,,,,,,,,,,0,0,0,0,1,,,,,,,,,,,,,,,,,,,,,,,,,,,,,,,,,,,,,,
,,,,,,,,,,5c4b42666634320001598ff4,22,Kobieta,2022-06-04_08h42.08.544,task,2021.1.4,Win32,60.06727535,628b806c463b948bc644b84f,629afa72e25fde1b1b4c653d,,,,,,,,,,,,,,,,,,,,,,,7,,,,,,,,,,Practice,8,(5x5) - 18,7,,,,,,,,,,,,,,,,"[""7""]",1,[3.814700000017865],1,0,0,0,7,1,,,,,,,,,,,,,,,,,,,,,,,,,,,,,,,,,,,,,,,,,,,
,,,,,,,,,,5c4b42666634320001598ff4,22,Kobieta,2022-06-04_08h42.08.544,task,2021.1.4,Win32,60.06727535,628b806c463b948bc644b84f,629afa72e25fde1b1b4c653d,,,,,,,,,,X V Q F H G B L J M P D K C T S W R N Z,,,,,,,,,,,,,,,,,,,,,,,,,,,,,,,,,,,,,,,,,,,,,,,,,,,1,0,1,0,1,,,,,,,,,,,,,,,,,,,,,,,,,,,,,,,,,,,,,,
,,,,,,,,,,5c4b42666634320001598ff4,22,Kobieta,2022-06-04_08h42.08.544,task,2021.1.4,Win32,60.06727535,628b806c463b948bc644b84f,629afa72e25fde1b1b4c653d,,,,,,,,,,,,,,,,,,,,,,,,,,,,,,,,,,,,,,,,,,,,,,,,,,,,,,,,,,,,,,,,,,qv,"[""q"",""v""]",0,"[2.252499999999941,3.6014999999999873,3.784800000011842]",0,4,0,4,0,1,,,,,,,,,,,,,,,,,,,,,,,,,,,,
,,,,,,,,,,5c4b42666634320001598ff4,22,Kobieta,2022-06-04_08h42.08.544,task,2021.1.4,Win32,60.06727535,628b806c463b948bc644b84f,629afa72e25fde1b1b4c653d,,,,,,,,,,,,,,,,,,,,,,,6,,,,,,,,,,Practice,7,(25/5) + 1,6,,,,,,,,,,,,,,,,"[""6""]",1,[2.3119000000059486],1,0,0,0,6,1,,,,,,,,,,,,,,,,,,,,,,,,,,,,,,,,,,,,,,,,,,,
,,,,,,,,,,5c4b42666634320001598ff4,22,Kobieta,2022-06-04_08h42.08.544,task,2021.1.4,Win32,60.06727535,628b806c463b948bc644b84f,629afa72e25fde1b1b4c653d,,,,,,,,,,X V Q F H G B L J M P D K C T S W R N Z,,,,,,,,,,,,,,,,,,,,,,,,,,,,,,,,,,,,,,,,,,,,,,,,,,,0,0,0,0,1,,,,,,,,,,,,,,,,,,,,,,,,,,,,,,,,,,,,,,
,,,,,,,,,,5c4b42666634320001598ff4,22,Kobieta,2022-06-04_08h42.08.544,task,2021.1.4,Win32,60.06727535,628b806c463b948bc644b84f,629afa72e25fde1b1b4c653d,,,,,,,,,,,,,,,,,,,,,,,6,,,,,,,,,,Practice,8,(5x5) - 18,7,,,,,,,,,,,,,,,,"[""6""]",0,[2.854200000017954],0,0,0,0,7,1,,,,,,,,,,,,,,,,,,,,,,,,,,,,,,,,,,,,,,,,,,,
,,,,,,,,,,5c4b42666634320001598ff4,22,Kobieta,2022-06-04_08h42.08.544,task,2021.1.4,Win32,60.06727535,628b806c463b948bc644b84f,629afa72e25fde1b1b4c653d,,,,,,,,,,,,,,,,,,,,,,,4,,,,,,,,,,Practice,5,(2x6) - 8,4,,,,,,,,,,,,,,,,"[""4""]",1,[2.3574000000060096],1,0,1,1,4,1,,,,,,,,,,,,,,,,,,,,,,,,,,,,,,,,,,,,,,,,,,,
,,,,,,,,,,5c4b42666634320001598ff4,22,Kobieta,2022-06-04_08h42.08.544,task,2021.1.4,Win32,60.06727535,628b806c463b948bc644b84f,629afa72e25fde1b1b4c653d,,,,,,,,,,X V Q F H G B L J M P D K C T S W R N Z,,,,,,,,,,,,,,,,,,,,,,,,,,,,,,,,,,,,,,,,,,,,,,,,,,,1,0,1,0,1,,,,,,,,,,,,,,,,,,,,,,,,,,,,,,,,,,,,,,
,,,,,,,,,,5c4b42666634320001598ff4,22,Kobieta,2022-06-04_08h42.08.544,task,2021.1.4,Win32,60.06727535,628b806c463b948bc644b84f,629afa72e25fde1b1b4c653d,,,,,,,,,,,,,,,,,,,,,,,,,,,,,,,,,,,,,,,,,,,,,,,,,,,,,,,,,,,,,,,,,,jd,"[""j"",""d""]",0,"[1.7024000000060369,1.95719999998812,2.334699999988061]",0,5,0,5,0,1,,,,,,,,,,,,,,,,,,,,,,,,,,,,
,,,,,,,,,,5c4b42666634320001598ff4,22,Kobieta,2022-06-04_08h42.08.544,task,2021.1.4,Win32,60.06727535,628b806c463b948bc644b84f,629afa72e25fde1b1b4c653d,,,,,,,,,,,,,,,,,,,,,,,0,,,,,,,,,,Practice,1,(3x3) -  9,0,,,,,,,,,,,,,,,,"[""0""]",1,[1.3652000000179214],1,0,0,0,0,1,,,,,,,,,,,,,,,,,,,,,,,,,,,,,,,,,,,,,,,,,,,
,,,,,,,,,,5c4b42666634320001598ff4,22,Kobieta,2022-06-04_08h42.08.544,task,2021.1.4,Win32,60.06727535,628b806c463b948bc644b84f,629afa72e25fde1b1b4c653d,,,,,,,,,,X V Q F H G B L J M P D K C T S W R N Z,,,,,,,,,,,,,,,,,,,,,,,,,,,,,,,,,,,,,,,,,,,,,,,,,,,0,0,0,0,1,,,,,,,,,,,,,,,,,,,,,,,,,,,,,,,,,,,,,,
,,,,,,,,,,5c4b42666634320001598ff4,22,Kobieta,2022-06-04_08h42.08.544,task,2021.1.4,Win32,60.06727535,628b806c463b948bc644b84f,629afa72e25fde1b1b4c653d,,,,,,,,,,,,,,,,,,,,,,,0,,,,,,,,,,Practice,1,(3x3) -  9,0,,,,,,,,,,,,,,,,"[""0""]",1,[1.475500000000011],1,0,0,0,0,1,,,,,,,,,,,,,,,,,,,,,,,,,,,,,,,,,,,,,,,,,,,
,,,,,,,,,,5c4b42666634320001598ff4,22,Kobieta,2022-06-04_08h42.08.544,task,2021.1.4,Win32,60.06727535,628b806c463b948bc644b84f,629afa72e25fde1b1b4c653d,,,,,,,,,,X V Q F H G B L J M P D K C T S W R N Z,,,,,,,,,,,,,,,,,,,,,,,,,,,,,,,,,,,,,,,,,,,,,,,,,,,1,0,1,0,1,,,,,,,,,,,,,,,,,,,,,,,,,,,,,,,,,,,,,,
,,,,,,,,,,5c4b42666634320001598ff4,22,Kobieta,2022-06-04_08h42.08.544,task,2021.1.4,Win32,60.06727535,628b806c463b948bc644b84f,629afa72e25fde1b1b4c653d,,,,,,,,,,,,,,,,,,,,,,,,,,,,,,,,,,,,,,,,,,,,,,,,,,,,,,,,,,,,,,,,,,qh,"[""q"",""h""]",0,"[1.3335999999940213,1.536699999988059,2.0080999999939877]",1,6,0,6,0,1,,,,,,,,,,,,,,,,,,,,,,,,,,,,
,,,,,,,,,,5c4b42666634320001598ff4,22,Kobieta,2022-06-04_08h42.08.544,task,2021.1.4,Win32,60.06727535,628b806c463b948bc644b84f,629afa72e25fde1b1b4c653d,,,,,,,,,,,,,,,,,,,,,,,4,,,,,,,,,,Practice,5,(2x6) - 8,4,,,,,,,,,,,,,,,,"[""4""]",1,[1.9683000000119364],1,0,0,0,4,1,,,,,,,,,,,,,,,,,,,,,,,,,,,,,,,,,,,,,,,,,,,
,,,,,,,,,,5c4b42666634320001598ff4,22,Kobieta,2022-06-04_08h42.08.544,task,2021.1.4,Win32,60.06727535,628b806c463b948bc644b84f,629afa72e25fde1b1b4c653d,,,,,,,,,,X V Q F H G B L J M P D K C T S W R N Z,,,,,,,,,,,,,,,,,,,,,,,,,,,,,,,,,,,,,,,,,,,,,,,,,,,0,0,0,0,1,,,,,,,,,,,,,,,,,,,,,,,,,,,,,,,,,,,,,,
,,,,,,,,,,5c4b42666634320001598ff4,22,Kobieta,2022-06-04_08h42.08.544,task,2021.1.4,Win32,60.06727535,628b806c463b948bc644b84f,629afa72e25fde1b1b4c653d,,,,,,,,,,,,,,,,,,,,,,,9,,,,,,,,,,Practice,10,(20/2) - 1,9,,,,,,,,,,,,,,,,"[""9""]",1,[1.467699999988099],1,0,0,0,9,1,,,,,,,,,,,,,,,,,,,,,,,,,,,,,,,,,,,,,,,,,,,
,,,,,,,,,,5c4b42666634320001598ff4,22,Kobieta,2022-06-04_08h42.08.544,task,2021.1.4,Win32,60.06727535,628b806c463b948bc644b84f,629afa72e25fde1b1b4c653d,,,,,,,,,,X V Q F H G B L J M P D K C T S W R N Z,,,,,,,,,,,,,,,,,,,,,,,,,,,,,,,,,,,,,,,,,,,,,,,,,,,1,0,1,0,1,,,,,,,,,,,,,,,,,,,,,,,,,,,,,,,,,,,,,,
,,,,,,,,,,5c4b42666634320001598ff4,22,Kobieta,2022-06-04_08h42.08.544,task,2021.1.4,Win32,60.06727535,628b806c463b948bc644b84f,629afa72e25fde1b1b4c653d,,,,,,,,,,,,,,,,,,,,,,,,,,,,,,,,,,,,,,,,,,,,,,,,,,,,,,,,,,,,,,,,,,jp,"[""j"",""p""]",0,"[1.4081999999880281,1.6859000000058586,2.0190000000000055]",1,7,0,7,0,1,,,,,,,,,,,,,,,,,,,,,,,,,,,,
,,,,,,,,,,5c4b42666634320001598ff4,22,Kobieta,2022-06-04_08h42.08.544,task,2021.1.4,Win32,60.06727535,628b806c463b948bc644b84f,629afa72e25fde1b1b4c653d,,,,,,,,,,,,,,,,,,,,,,,5,,,,,,,,,,Practice,6,(4/2) + 3,5,,,,,,,,,,,,,,,,"[""5""]",1,[2.0045000000000073],1,0,0,0,5,1,,,,,,,,,,,,,,,,,,,,,,,,,,,,,,,,,,,,,,,,,,,
,,,,,,,,,,5c4b42666634320001598ff4,22,Kobieta,2022-06-04_08h42.08.544,task,2021.1.4,Win32,60.06727535,628b806c463b948bc644b84f,629afa72e25fde1b1b4c653d,,,,,,,,,,X V Q F H G B L J M P D K C T S W R N Z,,,,,,,,,,,,,,,,,,,,,,,,,,,,,,,,,,,,,,,,,,,,,,,,,,,0,0,0,0,1,,,,,,,,,,,,,,,,,,,,,,,,,,,,,,,,,,,,,,
,,,,,,,,,,5c4b42666634320001598ff4,22,Kobieta,2022-06-04_08h42.08.544,task,2021.1.4,Win32,60.06727535,628b806c463b948bc644b84f,629afa72e25fde1b1b4c653d,,,,,,,,,,,,,,,,,,,,,,,9,,,,,,,,,,Practice,10,(20/2) - 1,9,,,,,,,,,,,,,,,,"[""9""]",1,[1.2669000000058759],1,0,0,0,9,1,,,,,,,,,,,,,,,,,,,,,,,,,,,,,,,,,,,,,,,,,,,
,,,,,,,,,,5c4b42666634320001598ff4,22,Kobieta,2022-06-04_08h42.08.544,task,2021.1.4,Win32,60.06727535,628b806c463b948bc644b84f,629afa72e25fde1b1b4c653d,,,,,,,,,,X V Q F H G B L J M P D K C T S W R N Z,,,,,,,,,,,,,,,,,,,,,,,,,,,,,,,,,,,,,,,,,,,,,,,,,,,1,0,1,0,1,,,,,,,,,,,,,,,,,,,,,,,,,,,,,,,,,,,,,,
,,,,,,,,,,5c4b42666634320001598ff4,22,Kobieta,2022-06-04_08h42.08.544,task,2021.1.4,Win32,60.06727535,628b806c463b948bc644b84f,629afa72e25fde1b1b4c653d,,,,,,,,,,,,,,,,,,,,,,,,,,,,,,,,,,,,,,,,,,,,,,,,,,,,,,,,,,,,,,,,,,cx,"[""c"",""x""]",0,"[1.4512999999820977,2.251299999982166,2.4677999999821623]",1,8,0,8,0,1,,,,,,,,,,,,,,,,,,,,,,,,,,,,
,,,,,,,,,,5c4b42666634320001598ff4,22,Kobieta,2022-06-04_08h42.08.544,task,2021.1.4,Win32,60.06727535,628b806c463b948bc644b84f,629afa72e25fde1b1b4c653d,,,,,,,,,,,,,,,,,,,,,,,3,,,,,,,,,,Task,27,(3/3) + 2,3,,,,,,,,,,,,,,,,,,,1,,,,,,,,,,,,,,,,,,,,,space,28.864,"[""3""]",1,[2.5006999999881145],0,0,0,26,1,,,,,,,,,,,,,,,,,,
,,,,,,,,,,5c4b42666634320001598ff4,22,Kobieta,2022-06-04_08h42.08.544,task,2021.1.4,Win32,60.06727535,628b806c463b948bc644b84f,629afa72e25fde1b1b4c653d,,,,,,,,,,X V Q F H G B L J M P D K C T S W R N Z,,,,,,,,,,,,,,,,,,,,,,,,,,,,,,,,,,,,,,,,,,,,,,,,,,,,,,,,,,,,,,,,,,,,,,,,,,,,0,0,0,0,1,,,,,,,,,,,,,
,,,,,,,,,,5c4b42666634320001598ff4,22,Kobieta,2022-06-04_08h42.08.544,task,2021.1.4,Win32,60.06727535,628b806c463b948bc644b84f,629afa72e25fde1b1b4c653d,,,,,,,,,,,,,,,,,,,,,,,4,,,,,,,,,,Task,28,(2x5) - 6,4,,,,,,,,,,,,,,,,,,,1,,,,,,,,,,,,,,,,,,,,,,,"[""4""]",1,[2.1657999999821413],0,0,0,27,1,,,,,,,,,,,,,,,,,,
,,,,,,,,,,5c4b42666634320001598ff4,22,Kobieta,2022-06-04_08h42.08.544,task,2021.1.4,Win32,60.06727535,628b806c463b948bc644b84f,629afa72e25fde1b1b4c653d,,,,,,,,,,X V Q F H G B L J M P D K C T S W R N Z,,,,,,,,,,,,,,,,,,,,,,,,,,,,,,,,,,,,,,,,,,,,,,,,,,,,,,,,,,,,,,,,,,,,,,,,,,,,1,0,1,0,1,,,,,,,,,,,,,
,,,,,,,,,,5c4b42666634320001598ff4,22,Kobieta,2022-06-04_08h42.08.544,task,2021.1.4,Win32,60.06727535,628b806c463b948bc644b84f,629afa72e25fde1b1b4c653d,,,,,,,,,,,,,,,,,,,,,,,,,,,,,,,,,,,,,,,,,,,,,,,,,,,,,,,,,,,,,,,,,,,,,,,,,,,,,,,,,,,,,,,,,,,zv,"[""z"",""v""]",0,"[1.5175999999939904,1.6728000000118755,2.1010999999939486]",1,ZV,0,0,0,0,1,,
,,,,,,,,,,5c4b42666634320001598ff4,22,Kobieta,2022-06-04_08h42.08.544,task,2021.1.4,Win32,60.06727535,628b806c463b948bc644b84f,629afa72e25fde1b1b4c653d,,,,,,,,,,,,,,,,,,,,,,,3,,,,,,,,,,Task,27,(3/3) + 2,3,,,,,,,,,,,,,,,,,,,1,,,,,,,,,,,,,,,,,,,,,,,"[""3""]",1,[2.46550000000002],0,0,0,26,1,,,,,,,,,,,,,,,,,,
,,,,,,,,,,5c4b42666634320001598ff4,22,Kobieta,2022-06-04_08h42.08.544,task,2021.1.4,Win32,60.06727535,628b806c463b948bc644b84f,629afa72e25fde1b1b4c653d,,,,,,,,,,X V Q F H G B L J M P D K C T S W R N Z,,,,,,,,,,,,,,,,,,,,,,,,,,,,,,,,,,,,,,,,,,,,,,,,,,,,,,,,,,,,,,,,,,,,,,,,,,,,0,0,0,0,1,,,,,,,,,,,,,
,,,,,,,,,,5c4b42666634320001598ff4,22,Kobieta,2022-06-04_08h42.08.544,task,2021.1.4,Win32,60.06727535,628b806c463b948bc644b84f,629afa72e25fde1b1b4c653d,,,,,,,,,,,,,,,,,,,,,,,0,,,,,,,,,,Task,8,(1x5) - 5,0,,,,,,,,,,,,,,,,,,,1,,,,,,,,,,,,,,,,,,,,,,,"[""0""]",1,[2.034099999994055],0,0,0,7,1,,,,,,,,,,,,,,,,,,
,,,,,,,,,,5c4b42666634320001598ff4,22,Kobieta,2022-06-04_08h42.08.544,task,2021.1.4,Win32,60.06727535,628b806c463b948bc644b84f,629afa72e25fde1b1b4c653d,,,,,,,,,,X V Q F H G B L J M P D K C T S W R N Z,,,,,,,,,,,,,,,,,,,,,,,,,,,,,,,,,,,,,,,,,,,,,,,,,,,,,,,,,,,,,,,,,,,,,,,,,,,,1,0,1,0,1,,,,,,,,,,,,,
,,,,,,,,,,5c4b42666634320001598ff4,22,Kobieta,2022-06-04_08h42.08.544,task,2021.1.4,Win32,60.06727535,628b806c463b948bc644b84f,629afa72e25fde1b1b4c653d,,,,,,,,,,,,,,,,,,,,,,,3,,,,,,,,,,Task,35,(1x2) + 1,3,,,,,,,,,,,,,,,,,,,1,,,,,,,,,,,,,,,,,,,,,,,"[""3""]",1,[2.63510000002384],0,0,0,34,1,,,,,,,,,,,,,,,,,,
,,,,,,,,,,5c4b42666634320001598ff4,22,Kobieta,2022-06-04_08h42.08.544,task,2021.1.4,Win32,60.06727535,628b806c463b948bc644b84f,629afa72e25fde1b1b4c653d,,,,,,,,,,X V Q F H G B L J M P D K C T S W R N Z,,,,,,,,,,,,,,,,,,,,,,,,,,,,,,,,,,,,,,,,,,,,,,,,,,,,,,,,,,,,,,,,,,,,,,,,,,,,2,0,2,0,1,,,,,,,,,,,,,
,,,,,,,,,,5c4b42666634320001598ff4,22,Kobieta,2022-06-04_08h42.08.544,task,2021.1.4,Win32,60.06727535,628b806c463b948bc644b84f,629afa72e25fde1b1b4c653d,,,,,,,,,,,,,,,,,,,,,,,,,,,,,,,,,,,,,,,,,,,,,,,,,,,,,,,,,,,,,,,,,,,,,,,,,,,,,,,,,,,,,,,,,,,jhf,"[""j"",""h"",""f""]",0,"[1.667399999976169,2.018000000000029,2.2427999999821395,2.7187999999821386]",1,JHF,1,0,1,0,1,,
,,,,,,,,,,5c4b42666634320001598ff4,22,Kobieta,2022-06-04_08h42.08.544,task,2021.1.4,Win32,60.06727535,628b806c463b948bc644b84f,629afa72e25fde1b1b4c653d,,,,,,,,,,,,,,,,,,,,,,,6,,,,,,,,,,Task,39,(5x3) - 7,8,,,,,,,,,,,,,,,,,,,0,,,,,,,,,,,,,,,,,,,,,,,"[""6""]",0,[3.972499999999968],0,0,0,38,1,,,,,,,,,,,,,,,,,,
,,,,,,,,,,5c4b42666634320001598ff4,22,Kobieta,2022-06-04_08h42.08.544,task,2021.1.4,Win32,60.06727535,628b806c463b948bc644b84f,629afa72e25fde1b1b4c653d,,,,,,,,,,,,,,,,,,,,,,,9,,,,,,,,,,Task,24,(2x2) + 5,9,,,,,,,,,,,,,,,,,,,1,,,,,,,,,,,,,,,,,,,,,,,"[""9""]",1,[2.2152999999821077],0,1,1,23,1,,,,,,,,,,,,,,,,,,
,,,,,,,,,,5c4b42666634320001598ff4,22,Kobieta,2022-06-04_08h42.08.544,task,2021.1.4,Win32,60.06727535,628b806c463b948bc644b84f,629afa72e25fde1b1b4c653d,,,,,,,,,,X V Q F H G B L J M P D K C T S W R N Z,,,,,,,,,,,,,,,,,,,,,,,,,,,,,,,,,,,,,,,,,,,,,,,,,,,,,,,,,,,,,,,,,,,,,,,,,,,,0,0,0,0,1,,,,,,,,,,,,,
,,,,,,,,,,5c4b42666634320001598ff4,22,Kobieta,2022-06-04_08h42.08.544,task,2021.1.4,Win32,60.06727535,628b806c463b948bc644b84f,629afa72e25fde1b1b4c653d,,,,,,,,,,,,,,,,,,,,,,,4,,,,,,,,,,Task,11,(18/3) - 2,4,,,,,,,,,,,,,,,,,,,1,,,,,,,,,,,,,,,,,,,,,,,"[""4""]",1,[3.6487999999820886],0,0,0,10,1,,,,,,,,,,,,,,,,,,
,,,,,,,,,,5c4b42666634320001598ff4,22,Kobieta,2022-06-04_08h42.08.544,task,2021.1.4,Win32,60.06727535,628b806c463b948bc644b84f,629afa72e25fde1b1b4c653d,,,,,,,,,,X V Q F H G B L J M P D K C T S W R N Z,,,,,,,,,,,,,,,,,,,,,,,,,,,,,,,,,,,,,,,,,,,,,,,,,,,,,,,,,,,,,,,,,,,,,,,,,,,,1,0,1,0,1,,,,,,,,,,,,,
,,,,,,,,,,5c4b42666634320001598ff4,22,Kobieta,2022-06-04_08h42.08.544,task,2021.1.4,Win32,60.06727535,628b806c463b948bc644b84f,629afa72e25fde1b1b4c653d,,,,,,,,,,,,,,,,,,,,,,,7,,,,,,,,,,Task,6,(12/2) + 1,7,,,,,,,,,,,,,,,,,,,1,,,,,,,,,,,,,,,,,,,,,,,"[""7""]",1,[1.7204000000059523],0,0,0,5,1,,,,,,,,,,,,,,,,,,
,,,,,,,,,,5c4b42666634320001598ff4,22,Kobieta,2022-06-04_08h42.08.544,task,2021.1.4,Win32,60.06727535,628b806c463b948bc644b84f,629afa72e25fde1b1b4c653d,,,,,,,,,,X V Q F H G B L J M P D K C T S W R N Z,,,,,,,,,,,,,,,,,,,,,,,,,,,,,,,,,,,,,,,,,,,,,,,,,,,,,,,,,,,,,,,,,,,,,,,,,,,,2,0,2,0,1,,,,,,,,,,,,,
,,,,,,,,,,5c4b42666634320001598ff4,22,Kobieta,2022-06-04_08h42.08.544,task,2021.1.4,Win32,60.06727535,628b806c463b948bc644b84f,629afa72e25fde1b1b4c653d,,,,,,,,,,,,,,,,,,,,,,,3,,,,,,,,,,Task,3,(2x3) - 3,3,,,,,,,,,,,,,,,,,,,1,,,,,,,,,,,,,,,,,,,,,,,"[""3""]",1,[2.0661999999880436],0,0,0,2,1,,,,,,,,,,,,,,,,,,
,,,,,,,,,,5c4b42666634320001598ff4,22,Kobieta,2022-06-04_08h42.08.544,task,2021.1.4,Win32,60.06727535,628b806c463b948bc644b84f,629afa72e25fde1b1b4c653d,,,,,,,,,,X V Q F H G B L J M P D K C T S W R N Z,,,,,,,,,,,,,,,,,,,,,,,,,,,,,,,,,,,,,,,,,,,,,,,,,,,,,,,,,,,,,,,,,,,,,,,,,,,,3,0,3,0,1,,,,,,,,,,,,,
,,,,,,,,,,5c4b42666634320001598ff4,22,Kobieta,2022-06-04_08h42.08.544,task,2021.1.4,Win32,60.06727535,628b806c463b948bc644b84f,629afa72e25fde1b1b4c653d,,,,,,,,,,,,,,,,,,,,,,,,,,,,,,,,,,,,,,,,,,,,,,,,,,,,,,,,,,,,,,,,,,,,,,,,,,,,,,,,,,,,,,,,,,,wlbq,"[""w"",""l"",""b"",""q""]",0,"[1.368099999994115,1.5340000000001055,1.85450000000003,2.7180999999941378,4.7336999999881755]",1,WLBQ,2,0,2,0,1,,
,,,,,,,,,,5c4b42666634320001598ff4,22,Kobieta,2022-06-04_08h42.08.544,task,2021.1.4,Win32,60.06727535,628b806c463b948bc644b84f,629afa72e25fde1b1b4c653d,,,,,,,,,,,,,,,,,,,,,,,1,,,,,,,,,,Task,18,(16/4) - 3,1,,,,,,,,,,,,,,,,,,,1,,,,,,,,,,,,,,,,,,,,,,,"[""1""]",1,[2.2235999999941214],0,0,0,17,1,,,,,,,,,,,,,,,,,,
,,,,,,,,,,5c4b42666634320001598ff4,22,Kobieta,2022-06-04_08h42.08.544,task,2021.1.4,Win32,60.06727535,628b806c463b948bc644b84f,629afa72e25fde1b1b4c653d,,,,,,,,,,X V Q F H G B L J M P D K C T S W R N Z,,,,,,,,,,,,,,,,,,,,,,,,,,,,,,,,,,,,,,,,,,,,,,,,,,,,,,,,,,,,,,,,,,,,,,,,,,,,0,0,0,0,1,,,,,,,,,,,,,
,,,,,,,,,,5c4b42666634320001598ff4,22,Kobieta,2022-06-04_08h42.08.544,task,2021.1.4,Win32,60.06727535,628b806c463b948bc644b84f,629afa72e25fde1b1b4c653d,,,,,,,,,,,,,,,,,,,,,,,7,,,,,,,,,,Task,31,(4/2) + 5,7,,,,,,,,,,,,,,,,,,,1,,,,,,,,,,,,,,,,,,,,,,,"[""7""]",1,[2.0173000000119146],0,0,0,30,1,,,,,,,,,,,,,,,,,,
,,,,,,,,,,5c4b42666634320001598ff4,22,Kobieta,2022-06-04_08h42.08.544,task,2021.1.4,Win32,60.06727535,628b806c463b948bc644b84f,629afa72e25fde1b1b4c653d,,,,,,,,,,X V Q F H G B L J M P D K C T S W R N Z,,,,,,,,,,,,,,,,,,,,,,,,,,,,,,,,,,,,,,,,,,,,,,,,,,,,,,,,,,,,,,,,,,,,,,,,,,,,1,0,1,0,1,,,,,,,,,,,,,
,,,,,,,,,,5c4b42666634320001598ff4,22,Kobieta,2022-06-04_08h42.08.544,task,2021.1.4,Win32,60.06727535,628b806c463b948bc644b84f,629afa72e25fde1b1b4c653d,,,,,,,,,,,,,,,,,,,,,,,5,,,,,,,,,,Task,22,(3x1) + 2,5,,,,,,,,,,,,,,,,,,,1,,,,,,,,,,,,,,,,,,,,,,,"[""5""]",1,[2.353599999994003],0,0,0,21,1,,,,,,,,,,,,,,,,,,
,,,,,,,,,,5c4b42666634320001598ff4,22,Kobieta,2022-06-04_08h42.08.544,task,2021.1.4,Win32,60.06727535,628b806c463b948bc644b84f,629afa72e25fde1b1b4c653d,,,,,,,,,,X V Q F H G B L J M P D K C T S W R N Z,,,,,,,,,,,,,,,,,,,,,,,,,,,,,,,,,,,,,,,,,,,,,,,,,,,,,,,,,,,,,,,,,,,,,,,,,,,,2,0,2,0,1,,,,,,,,,,,,,
,,,,,,,,,,5c4b42666634320001598ff4,22,Kobieta,2022-06-04_08h42.08.544,task,2021.1.4,Win32,60.06727535,628b806c463b948bc644b84f,629afa72e25fde1b1b4c653d,,,,,,,,,,,,,,,,,,,,,,,2,,,,,,,,,,Task,26,(2x9) - 16,2,,,,,,,,,,,,,,,,,,,1,,,,,,,,,,,,,,,,,,,,,,,"[""2""]",1,[2.1345000000000027],0,0,0,25,1,,,,,,,,,,,,,,,,,,
,,,,,,,,,,5c4b42666634320001598ff4,22,Kobieta,2022-06-04_08h42.08.544,task,2021.1.4,Win32,60.06727535,628b806c463b948bc644b84f,629afa72e25fde1b1b4c653d,,,,,,,,,,X V Q F H G B L J M P D K C T S W R N Z,,,,,,,,,,,,,,,,,,,,,,,,,,,,,,,,,,,,,,,,,,,,,,,,,,,,,,,,,,,,,,,,,,,,,,,,,,,,3,0,3,0,1,,,,,,,,,,,,,
,,,,,,,,,,5c4b42666634320001598ff4,22,Kobieta,2022-06-04_08h42.08.544,task,2021.1.4,Win32,60.06727535,628b806c463b948bc644b84f,629afa72e25fde1b1b4c653d,,,,,,,,,,,,,,,,,,,,,,,3,,,,,,,,,,Task,27,(3/3) + 2,3,,,,,,,,,,,,,,,,,,,1,,,,,,,,,,,,,,,,,,,,,,,"[""3""]",1,[2.733900000005974],0,0,0,26,1,,,,,,,,,,,,,,,,,,
,,,,,,,,,,5c4b42666634320001598ff4,22,Kobieta,2022-06-04_08h42.08.544,task,2021.1.4,Win32,60.06727535,628b806c463b948bc644b84f,629afa72e25fde1b1b4c653d,,,,,,,,,,X V Q F H G B L J M P D K C T S W R N Z,,,,,,,,,,,,,,,,,,,,,,,,,,,,,,,,,,,,,,,,,,,,,,,,,,,,,,,,,,,,,,,,,,,,,,,,,,,,4,0,4,0,1,,,,,,,,,,,,,
,,,,,,,,,,5c4b42666634320001598ff4,22,Kobieta,2022-06-04_08h42.08.544,task,2021.1.4,Win32,60.06727535,628b806c463b948bc644b84f,629afa72e25fde1b1b4c653d,,,,,,,,,,,,,,,,,,,,,,,,,,,,,,,,,,,,,,,,,,,,,,,,,,,,,,,,,,,,,,,,,,,,,,,,,,,,,,,,,,,,,,,,,,,tqkgb,"[""t"",""q"",""k"",""g"",""b""]",0,"[1.3508000000118727,2.1842000000178814,2.4673000000118464,3.0763000000118836,3.284900000005905,4.007300000011924]",1,TQKGB,3,0,3,0,1,,
,,,,,,,,,,5c4b42666634320001598ff4,22,Kobieta,2022-06-04_08h42.08.544,task,2021.1.4,Win32,60.06727535,628b806c463b948bc644b84f,629afa72e25fde1b1b4c653d,,,,,,,,,,,,,,,,,,,,,,,4,,,,,,,,,,Task,28,(2x5) - 6,4,,,,,,,,,,,,,,,,,,,1,,,,,,,,,,,,,,,,,,,,,,,"[""4""]",1,[2.4418000000119946],0,0,0,27,1,,,,,,,,,,,,,,,,,,
,,,,,,,,,,5c4b42666634320001598ff4,22,Kobieta,2022-06-04_08h42.08.544,task,2021.1.4,Win32,60.06727535,628b806c463b948bc644b84f,629afa72e25fde1b1b4c653d,,,,,,,,,,X V Q F H G B L J M P D K C T S W R N Z,,,,,,,,,,,,,,,,,,,,,,,,,,,,,,,,,,,,,,,,,,,,,,,,,,,,,,,,,,,,,,,,,,,,,,,,,,,,0,0,0,0,1,,,,,,,,,,,,,
,,,,,,,,,,5c4b42666634320001598ff4,22,Kobieta,2022-06-04_08h42.08.544,task,2021.1.4,Win32,60.06727535,628b806c463b948bc644b84f,629afa72e25fde1b1b4c653d,,,,,,,,,,,,,,,,,,,,,,,0,,,,,,,,,,Task,25,(10/5) - 2,0,,,,,,,,,,,,,,,,,,,1,,,,,,,,,,,,,,,,,,,,,,,"[""0""]",1,[2.9669000000059214],0,0,0,24,1,,,,,,,,,,,,,,,,,,
,,,,,,,,,,5c4b42666634320001598ff4,22,Kobieta,2022-06-04_08h42.08.544,task,2021.1.4,Win32,60.06727535,628b806c463b948bc644b84f,629afa72e25fde1b1b4c653d,,,,,,,,,,X V Q F H G B L J M P D K C T S W R N Z,,,,,,,,,,,,,,,,,,,,,,,,,,,,,,,,,,,,,,,,,,,,,,,,,,,,,,,,,,,,,,,,,,,,,,,,,,,,1,0,1,0,1,,,,,,,,,,,,,
,,,,,,,,,,5c4b42666634320001598ff4,22,Kobieta,2022-06-04_08h42.08.544,task,2021.1.4,Win32,60.06727535,628b806c463b948bc644b84f,629afa72e25fde1b1b4c653d,,,,,,,,,,,,,,,,,,,,,,,2,,,,,,,,,,Task,26,(2x9) - 16,2,,,,,,,,,,,,,,,,,,,1,,,,,,,,,,,,,,,,,,,,,,,"[""2""]",1,[1.9771000000238246],0,0,0,25,1,,,,,,,,,,,,,,,,,,
,,,,,,,,,,5c4b42666634320001598ff4,22,Kobieta,2022-06-04_08h42.08.544,task,2021.1.4,Win32,60.06727535,628b806c463b948bc644b84f,629afa72e25fde1b1b4c653d,,,,,,,,,,X V Q F H G B L J M P D K C T S W R N Z,,,,,,,,,,,,,,,,,,,,,,,,,,,,,,,,,,,,,,,,,,,,,,,,,,,,,,,,,,,,,,,,,,,,,,,,,,,,2,0,2,0,1,,,,,,,,,,,,,
,,,,,,,,,,5c4b42666634320001598ff4,22,Kobieta,2022-06-04_08h42.08.544,task,2021.1.4,Win32,60.06727535,628b806c463b948bc644b84f,629afa72e25fde1b1b4c653d,,,,,,,,,,,,,,,,,,,,,,,4,,,,,,,,,,Task,11,(18/3) - 2,4,,,,,,,,,,,,,,,,,,,1,,,,,,,,,,,,,,,,,,,,,,,"[""4""]",1,[1.9417000000179314],0,0,0,10,1,,,,,,,,,,,,,,,,,,
,,,,,,,,,,5c4b42666634320001598ff4,22,Kobieta,2022-06-04_08h42.08.544,task,2021.1.4,Win32,60.06727535,628b806c463b948bc644b84f,629afa72e25fde1b1b4c653d,,,,,,,,,,X V Q F H G B L J M P D K C T S W R N Z,,,,,,,,,,,,,,,,,,,,,,,,,,,,,,,,,,,,,,,,,,,,,,,,,,,,,,,,,,,,,,,,,,,,,,,,,,,,3,0,3,0,1,,,,,,,,,,,,,
,,,,,,,,,,5c4b42666634320001598ff4,22,Kobieta,2022-06-04_08h42.08.544,task,2021.1.4,Win32,60.06727535,628b806c463b948bc644b84f,629afa72e25fde1b1b4c653d,,,,,,,,,,,,,,,,,,,,,,,8,,,,,,,,,,Task,39,(5x3) - 7,8,,,,,,,,,,,,,,,,,,,1,,,,,,,,,,,,,,,,,,,,,,,"[""8""]",1,[3.295299999982035],0,0,0,38,1,,,,,,,,,,,,,,,,,,
,,,,,,,,,,5c4b42666634320001598ff4,22,Kobieta,2022-06-04_08h42.08.544,task,2021.1.4,Win32,60.06727535,628b806c463b948bc644b84f,629afa72e25fde1b1b4c653d,,,,,,,,,,X V Q F H G B L J M P D K C T S W R N Z,,,,,,,,,,,,,,,,,,,,,,,,,,,,,,,,,,,,,,,,,,,,,,,,,,,,,,,,,,,,,,,,,,,,,,,,,,,,4,0,4,0,1,,,,,,,,,,,,,
,,,,,,,,,,5c4b42666634320001598ff4,22,Kobieta,2022-06-04_08h42.08.544,task,2021.1.4,Win32,60.06727535,628b806c463b948bc644b84f,629afa72e25fde1b1b4c653d,,,,,,,,,,,,,,,,,,,,,,,1,,,,,,,,,,Task,1,(12/6) - 1,1,,,,,,,,,,,,,,,,,,,1,,,,,,,,,,,,,,,,,,,,,,,"[""1""]",1,[3.4182999999820822],0,0,0,0,1,,,,,,,,,,,,,,,,,,
,,,,,,,,,,5c4b42666634320001598ff4,22,Kobieta,2022-06-04_08h42.08.544,task,2021.1.4,Win32,60.06727535,628b806c463b948bc644b84f,629afa72e25fde1b1b4c653d,,,,,,,,,,X V Q F H G B L J M P D K C T S W R N Z,,,,,,,,,,,,,,,,,,,,,,,,,,,,,,,,,,,,,,,,,,,,,,,,,,,,,,,,,,,,,,,,,,,,,,,,,,,,5,0,5,0,1,,,,,,,,,,,,,
,,,,,,,,,,5c4b42666634320001598ff4,22,Kobieta,2022-06-04_08h42.08.544,task,2021.1.4,Win32,60.06727535,628b806c463b948bc644b84f,629afa72e25fde1b1b4c653d,,,,,,,,,,,,,,,,,,,,,,,,,,,,,,,,,,,,,,,,,,,,,,,,,,,,,,,,,,,,,,,,,,,,,,,,,,,,,,,,,,,,,,,,,,,thwjjn,"[""t"",""h"",""w"",""j"",""j"",""n""]",0,"[1.6426999999880536,1.8849000000059277,2.0945999999939886,2.367599999994013,2.667500000000018,3.006199999988098,3.702800000011962]",1,THWJJN,4,0,4,0,1,,
,,,,,,,,,,5c4b42666634320001598ff4,22,Kobieta,2022-06-04_08h42.08.544,task,2021.1.4,Win32,60.06727535,628b806c463b948bc644b84f,629afa72e25fde1b1b4c653d,,,,,,,,,,,,,,,,,,,,,,,1,,,,,,,,,,Task,9,(3x7) - 20,1,,,,,,,,,,,,,,,,,,,1,,,,,,,,,,,,,,,,,,,,,,,"[""1""]",1,[2.7314999999999827],0,0,0,8,1,,,,,,,,,,,,,,,,,,
,,,,,,,,,,5c4b42666634320001598ff4,22,Kobieta,2022-06-04_08h42.08.544,task,2021.1.4,Win32,60.06727535,628b806c463b948bc644b84f,629afa72e25fde1b1b4c653d,,,,,,,,,,X V Q F H G B L J M P D K C T S W R N Z,,,,,,,,,,,,,,,,,,,,,,,,,,,,,,,,,,,,,,,,,,,,,,,,,,,,,,,,,,,,,,,,,,,,,,,,,,,,0,0,0,0,1,,,,,,,,,,,,,
,,,,,,,,,,5c4b42666634320001598ff4,22,Kobieta,2022-06-04_08h42.08.544,task,2021.1.4,Win32,60.06727535,628b806c463b948bc644b84f,629afa72e25fde1b1b4c653d,,,,,,,,,,,,,,,,,,,,,,,6,,,,,,,,,,Task,37,(3/3) + 5,6,,,,,,,,,,,,,,,,,,,1,,,,,,,,,,,,,,,,,,,,,,,"[""6""]",1,[1.781500000000051],0,0,0,36,1,,,,,,,,,,,,,,,,,,
,,,,,,,,,,5c4b42666634320001598ff4,22,Kobieta,2022-06-04_08h42.08.544,task,2021.1.4,Win32,60.06727535,628b806c463b948bc644b84f,629afa72e25fde1b1b4c653d,,,,,,,,,,X V Q F H G B L J M P D K C T S W R N Z,,,,,,,,,,,,,,,,,,,,,,,,,,,,,,,,,,,,,,,,,,,,,,,,,,,,,,,,,,,,,,,,,,,,,,,,,,,,1,0,1,0,1,,,,,,,,,,,,,
,,,,,,,,,,5c4b42666634320001598ff4,22,Kobieta,2022-06-04_08h42.08.544,task,2021.1.4,Win32,60.06727535,628b806c463b948bc644b84f,629afa72e25fde1b1b4c653d,,,,,,,,,,,,,,,,,,,,,,,4,,,,,,,,,,Task,28,(2x5) - 6,4,,,,,,,,,,,,,,,,,,,1,,,,,,,,,,,,,,,,,,,,,,,"[""4""]",1,[1.782299999982115],0,0,0,27,1,,,,,,,,,,,,,,,,,,
,,,,,,,,,,5c4b42666634320001598ff4,22,Kobieta,2022-06-04_08h42.08.544,task,2021.1.4,Win32,60.06727535,628b806c463b948bc644b84f,629afa72e25fde1b1b4c653d,,,,,,,,,,X V Q F H G B L J M P D K C T S W R N Z,,,,,,,,,,,,,,,,,,,,,,,,,,,,,,,,,,,,,,,,,,,,,,,,,,,,,,,,,,,,,,,,,,,,,,,,,,,,2,0,2,0,1,,,,,,,,,,,,,
,,,,,,,,,,5c4b42666634320001598ff4,22,Kobieta,2022-06-04_08h42.08.544,task,2021.1.4,Win32,60.06727535,628b806c463b948bc644b84f,629afa72e25fde1b1b4c653d,,,,,,,,,,,,,,,,,,,,,,,1,,,,,,,,,,Task,18,(16/4) - 3,1,,,,,,,,,,,,,,,,,,,1,,,,,,,,,,,,,,,,,,,,,,,"[""1""]",1,[2.3250999999941087],0,0,0,17,1,,,,,,,,,,,,,,,,,,
,,,,,,,,,,5c4b42666634320001598ff4,22,Kobieta,2022-06-04_08h42.08.544,task,2021.1.4,Win32,60.06727535,628b806c463b948bc644b84f,629afa72e25fde1b1b4c653d,,,,,,,,,,X V Q F H G B L J M P D K C T S W R N Z,,,,,,,,,,,,,,,,,,,,,,,,,,,,,,,,,,,,,,,,,,,,,,,,,,,,,,,,,,,,,,,,,,,,,,,,,,,,3,0,3,0,1,,,,,,,,,,,,,
,,,,,,,,,,5c4b42666634320001598ff4,22,Kobieta,2022-06-04_08h42.08.544,task,2021.1.4,Win32,60.06727535,628b806c463b948bc644b84f,629afa72e25fde1b1b4c653d,,,,,,,,,,,,,,,,,,,,,,,4,,,,,,,,,,Task,4,(1x5) - 1,4,,,,,,,,,,,,,,,,,,,1,,,,,,,,,,,,,,,,,,,,,,,"[""4""]",1,[1.9653000000118936],0,0,0,3,1,,,,,,,,,,,,,,,,,,
,,,,,,,,,,5c4b42666634320001598ff4,22,Kobieta,2022-06-04_08h42.08.544,task,2021.1.4,Win32,60.06727535,628b806c463b948bc644b84f,629afa72e25fde1b1b4c653d,,,,,,,,,,X V Q F H G B L J M P D K C T S W R N Z,,,,,,,,,,,,,,,,,,,,,,,,,,,,,,,,,,,,,,,,,,,,,,,,,,,,,,,,,,,,,,,,,,,,,,,,,,,,4,0,4,0,1,,,,,,,,,,,,,
,,,,,,,,,,5c4b42666634320001598ff4,22,Kobieta,2022-06-04_08h42.08.544,task,2021.1.4,Win32,60.06727535,628b806c463b948bc644b84f,629afa72e25fde1b1b4c653d,,,,,,,,,,,,,,,,,,,,,,,7,,,,,,,,,,Task,31,(4/2) + 5,7,,,,,,,,,,,,,,,,,,,1,,,,,,,,,,,,,,,,,,,,,,,"[""7""]",1,[2.2995999999940295],0,0,0,30,1,,,,,,,,,,,,,,,,,,
,,,,,,,,,,5c4b42666634320001598ff4,22,Kobieta,2022-06-04_08h42.08.544,task,2021.1.4,Win32,60.06727535,628b806c463b948bc644b84f,629afa72e25fde1b1b4c653d,,,,,,,,,,X V Q F H G B L J M P D K C T S W R N Z,,,,,,,,,,,,,,,,,,,,,,,,,,,,,,,,,,,,,,,,,,,,,,,,,,,,,,,,,,,,,,,,,,,,,,,,,,,,5,0,5,0,1,,,,,,,,,,,,,
,,,,,,,,,,5c4b42666634320001598ff4,22,Kobieta,2022-06-04_08h42.08.544,task,2021.1.4,Win32,60.06727535,628b806c463b948bc644b84f,629afa72e25fde1b1b4c653d,,,,,,,,,,,,,,,,,,,,,,,,,,,,,,,,,Task,38,(4x6) - 17,7,,,,,,,,,,,,,,,,,,,0,,,,,,,,,,,,,,,,,,,,,,,,0,,0,0,0,37,1,,,,,,,,,,,,,,,,,,
,,,,,,,,,,5c4b42666634320001598ff4,22,Kobieta,2022-06-04_08h42.08.544,task,2021.1.4,Win32,60.06727535,628b806c463b948bc644b84f,629afa72e25fde1b1b4c653d,,,,,,,,,,,,,,,,,,,,,,,1,,,,,,,,,,Task,34,(9/3) - 2,1,,,,,,,,,,,,,,,,,,,1,,,,,,,,,,,,,,,,,,,,,,,"[""1""]",1,[3.2509999999999764],0,1,1,33,1,,,,,,,,,,,,,,,,,,
,,,,,,,,,,5c4b42666634320001598ff4,22,Kobieta,2022-06-04_08h42.08.544,task,2021.1.4,Win32,60.06727535,628b806c463b948bc644b84f,629afa72e25fde1b1b4c653d,,,,,,,,,,X V Q F H G B L J M P D K C T S W R N Z,,,,,,,,,,,,,,,,,,,,,,,,,,,,,,,,,,,,,,,,,,,,,,,,,,,,,,,,,,,,,,,,,,,,,,,,,,,,6,0,6,0,1,,,,,,,,,,,,,
,,,,,,,,,,5c4b42666634320001598ff4,22,Kobieta,2022-06-04_08h42.08.544,task,2021.1.4,Win32,60.06727535,628b806c463b948bc644b84f,629afa72e25fde1b1b4c653d,,,,,,,,,,,,,,,,,,,,,,,,,,,,,,,,,,,,,,,,,,,,,,,,,,,,,,,,,,,,,,,,,,,,,,,,,,,,,,,,,,,,,,,,,,,kcwjzbgv,"[""k"",""c"",""w"",""j"",""z"",""b"",""g"",""v""]",0,"[1.3043000000120628,1.68460000002392,1.9715000000001055,2.4673000000118464,2.917300000011892,3.3669000000058986,3.800999999999931,4.507700000017849,5.217100000023947]",0,KCWZGBV,5,0,5,0,1,,
,,,,,,,,,,5c4b42666634320001598ff4,22,Kobieta,2022-06-04_08h42.08.544,task,2021.1.4,Win32,60.06727535,628b806c463b948bc644b84f,629afa72e25fde1b1b4c653d,,,,,,,,,,,,,,,,,,,,,,,2,,,,,,,,,,Task,2,(2x2) - 2,2,,,,,,,,,,,,,,,,,,,1,,,,,,,,,,,,,,,,,,,,,,,"[""2""]",1,[2.18669999998815],0,0,0,1,1,,,,,,,,,,,,,,,,,,
,,,,,,,,,,5c4b42666634320001598ff4,22,Kobieta,2022-06-04_08h42.08.544,task,2021.1.4,Win32,60.06727535,628b806c463b948bc644b84f,629afa72e25fde1b1b4c653d,,,,,,,,,,X V Q F H G B L J M P D K C T S W R N Z,,,,,,,,,,,,,,,,,,,,,,,,,,,,,,,,,,,,,,,,,,,,,,,,,,,,,,,,,,,,,,,,,,,,,,,,,,,,0,0,0,0,1,,,,,,,,,,,,,
,,,,,,,,,,5c4b42666634320001598ff4,22,Kobieta,2022-06-04_08h42.08.544,task,2021.1.4,Win32,60.06727535,628b806c463b948bc644b84f,629afa72e25fde1b1b4c653d,,,,,,,,,,,,,,,,,,,,,,,2,,,,,,,,,,Task,2,(2x2) - 2,2,,,,,,,,,,,,,,,,,,,1,,,,,,,,,,,,,,,,,,,,,,,"[""2""]",1,[2.076599999994187],0,0,0,1,1,,,,,,,,,,,,,,,,,,
,,,,,,,,,,5c4b42666634320001598ff4,22,Kobieta,2022-06-04_08h42.08.544,task,2021.1.4,Win32,60.06727535,628b806c463b948bc644b84f,629afa72e25fde1b1b4c653d,,,,,,,,,,X V Q F H G B L J M P D K C T S W R N Z,,,,,,,,,,,,,,,,,,,,,,,,,,,,,,,,,,,,,,,,,,,,,,,,,,,,,,,,,,,,,,,,,,,,,,,,,,,,1,0,1,0,1,,,,,,,,,,,,,
,,,,,,,,,,5c4b42666634320001598ff4,22,Kobieta,2022-06-04_08h42.08.544,task,2021.1.4,Win32,60.06727535,628b806c463b948bc644b84f,629afa72e25fde1b1b4c653d,,,,,,,,,,,,,,,,,,,,,,,,,,,,,,,,,Task,29,(3x8) - 19 ,5,,,,,,,,,,,,,,,,,,,0,,,,,,,,,,,,,,,,,,,,,,,,0,,0,0,0,28,1,,,,,,,,,,,,,,,,,,
,,,,,,,,,,5c4b42666634320001598ff4,22,Kobieta,2022-06-04_08h42.08.544,task,2021.1.4,Win32,60.06727535,628b806c463b948bc644b84f,629afa72e25fde1b1b4c653d,,,,,,,,,,,,,,,,,,,,,,,1,,,,,,,,,,Task,1,(12/6) - 1,1,,,,,,,,,,,,,,,,,,,1,,,,,,,,,,,,,,,,,,,,,,,"[""1""]",1,[3.626500000000078],0,1,1,0,1,,,,,,,,,,,,,,,,,,
,,,,,,,,,,5c4b42666634320001598ff4,22,Kobieta,2022-06-04_08h42.08.544,task,2021.1.4,Win32,60.06727535,628b806c463b948bc644b84f,629afa72e25fde1b1b4c653d,,,,,,,,,,X V Q F H G B L J M P D K C T S W R N Z,,,,,,,,,,,,,,,,,,,,,,,,,,,,,,,,,,,,,,,,,,,,,,,,,,,,,,,,,,,,,,,,,,,,,,,,,,,,2,0,2,0,1,,,,,,,,,,,,,
,,,,,,,,,,5c4b42666634320001598ff4,22,Kobieta,2022-06-04_08h42.08.544,task,2021.1.4,Win32,60.06727535,628b806c463b948bc644b84f,629afa72e25fde1b1b4c653d,,,,,,,,,,,,,,,,,,,,,,,1,,,,,,,,,,Task,1,(12/6) - 1,1,,,,,,,,,,,,,,,,,,,1,,,,,,,,,,,,,,,,,,,,,,,"[""1""]",1,[3.220500000000129],0,0,0,0,1,,,,,,,,,,,,,,,,,,
,,,,,,,,,,5c4b42666634320001598ff4,22,Kobieta,2022-06-04_08h42.08.544,task,2021.1.4,Win32,60.06727535,628b806c463b948bc644b84f,629afa72e25fde1b1b4c653d,,,,,,,,,,X V Q F H G B L J M P D K C T S W R N Z,,,,,,,,,,,,,,,,,,,,,,,,,,,,,,,,,,,,,,,,,,,,,,,,,,,,,,,,,,,,,,,,,,,,,,,,,,,,3,0,3,0,1,,,,,,,,,,,,,
,,,,,,,,,,5c4b42666634320001598ff4,22,Kobieta,2022-06-04_08h42.08.544,task,2021.1.4,Win32,60.06727535,628b806c463b948bc644b84f,629afa72e25fde1b1b4c653d,,,,,,,,,,,,,,,,,,,,,,,9,,,,,,,,,,Task,40,(7x2) - 5,9,,,,,,,,,,,,,,,,,,,1,,,,,,,,,,,,,,,,,,,,,,,"[""9""]",1,[3.8544999999999163],0,0,0,39,1,,,,,,,,,,,,,,,,,,
