key_resp_15.keys,key_resp_15.rt,key_resp_16.keys,key_resp_16.rt,key_resp_4.keys,key_resp_4.rt,next_letter.thisRepN,next_letter.thisTrialN,next_letter.thisN,next_letter.thisIndex,next_letter.ran,letter,participant,Wiek*,Płeć,date,expName,psychopyVersion,OS,frameRate,study_id,session,simple_recall,key_resp_5.keys,key_resp_5.rt,simple_recall_corr,simple_recall_corrkeys,next_level.thisRepN,next_level.thisTrialN,next_level.thisN,next_level.thisIndex,next_level.ran,key_resp_2.keys,key_resp_2.rt,digit_answer,key_resp.keys,key_resp.corr,key_resp.rt,RT_list,next_equation.thisRepN,next_equation.thisTrialN,next_equation.thisN,next_equation.thisIndex,next_equation.ran,Task,Trial,Problem,Operation_answer,processing_score,sumRT,meanRT,sumdiff,sd,RT,key_resp_3.keys,key_resp_3.rt,repeat_practice.thisRepN,repeat_practice.thisTrialN,repeat_practice.thisN,repeat_practice.thisIndex,repeat_practice.ran,key_resp_6.keys,key_resp_6.rt,key_resp_11.keys,key_resp_11.corr,key_resp_11.rt,operation_correct,repeat_if_wrong_prac.thisRepN,repeat_if_wrong_prac.thisTrialN,repeat_if_wrong_prac.thisN,repeat_if_wrong_prac.thisIndex,repeat_if_wrong_prac.ran,span_size_prac.thisRepN,span_size_prac.thisTrialN,span_size_prac.thisN,span_size_prac.thisIndex,span_size_prac.ran,complex_recall_practice,key_resp_9.keys,key_resp_9.corr,key_resp_9.rt,complex_prac_corr,span_recall_prac.thisRepN,span_recall_prac.thisTrialN,span_recall_prac.thisN,span_recall_prac.thisIndex,span_recall_prac.ran,key_resp_10.keys,key_resp_10.rt,key_resp_7.keys,key_resp_7.corr,key_resp_7.rt,repeat_if_wrong.thisRepN,repeat_if_wrong.thisTrialN,repeat_if_wrong.thisN,repeat_if_wrong.thisIndex,repeat_if_wrong.ran,span_size.thisRepN,span_size.thisTrialN,span_size.thisN,span_size.thisIndex,span_size.ran,complex_recall,key_resp_8.keys,key_resp_8.corr,key_resp_8.rt,complex_recall_corr,complex_recall_corrkeys,span_recall.thisRepN,span_recall.thisTrialN,span_recall.thisN,span_recall.thisIndex,span_recall.ran,key_resp_13.keys,key_resp_13.corr,random_loop.thisRepN,random_loop.thisTrialN,random_loop.thisN,random_loop.thisIndex,random_loop.ran,key_resp_13.rt,key_resp_12.keys,key_resp_12.rt
space,19.1178,space,17.7239,space,9.0274,0,0,0,0,1,X V Q F H G B L J M P D K C T S W R N Z,5c51dd37c91d1100017760b8,37,Mężczyzna,2022-06-11_09h42.45.168,task,2021.1.4,Win32,39.94567388,6299f149e92ead563fba08ef,62a4474d3469b9eb83393fe9,,,,,,,,,,,,,,,,,,,,,,,,,,,,,,,,,,,,,,,,,,,,,,,,,,,,,,,,,,,,,,,,,,,,,,,,,,,,,,,,,,,,,,,,,,,,,,,,,,,,,
,,,,,,1,0,1,0,1,X V Q F H G B L J M P D K C T S W R N Z,5c51dd37c91d1100017760b8,37,Mężczyzna,2022-06-11_09h42.45.168,task,2021.1.4,Win32,39.94567388,6299f149e92ead563fba08ef,62a4474d3469b9eb83393fe9,,,,,,,,,,,,,,,,,,,,,,,,,,,,,,,,,,,,,,,,,,,,,,,,,,,,,,,,,,,,,,,,,,,,,,,,,,,,,,,,,,,,,,,,,,,,,,,,,,,,,
,,,,,,,,,,,,5c51dd37c91d1100017760b8,37,Mężczyzna,2022-06-11_09h42.45.168,task,2021.1.4,Win32,39.94567388,6299f149e92ead563fba08ef,62a4474d3469b9eb83393fe9,zw,"[""z"",""w""]","[4.716499999999996,5.70459999999963,7.906799999998881]",1,ZW,0,0,0,0,1,,,,,,,,,,,,,,,,,,,,,,,,,,,,,,,,,,,,,,,,,,,,,,,,,,,,,,,,,,,,,,,,,,,,,,,,,,,,,,,,,,,,,,,,,,,
,,,,,,0,0,0,0,1,X V Q F H G B L J M P D K C T S W R N Z,5c51dd37c91d1100017760b8,37,Mężczyzna,2022-06-11_09h42.45.168,task,2021.1.4,Win32,39.94567388,6299f149e92ead563fba08ef,62a4474d3469b9eb83393fe9,,,,,,,,,,,,,,,,,,,,,,,,,,,,,,,,,,,,,,,,,,,,,,,,,,,,,,,,,,,,,,,,,,,,,,,,,,,,,,,,,,,,,,,,,,,,,,,,,,,,,
,,,,,,1,0,1,0,1,X V Q F H G B L J M P D K C T S W R N Z,5c51dd37c91d1100017760b8,37,Mężczyzna,2022-06-11_09h42.45.168,task,2021.1.4,Win32,39.94567388,6299f149e92ead563fba08ef,62a4474d3469b9eb83393fe9,,,,,,,,,,,,,,,,,,,,,,,,,,,,,,,,,,,,,,,,,,,,,,,,,,,,,,,,,,,,,,,,,,,,,,,,,,,,,,,,,,,,,,,,,,,,,,,,,,,,,
,,,,,,,,,,,,5c51dd37c91d1100017760b8,37,Mężczyzna,2022-06-11_09h42.45.168,task,2021.1.4,Win32,39.94567388,6299f149e92ead563fba08ef,62a4474d3469b9eb83393fe9,lx,"[""l"",""x""]","[2.7065000000000055,3.370400000000373,3.8705999999996266]",1,LX,1,0,1,0,1,,,,,,,,,,,,,,,,,,,,,,,,,,,,,,,,,,,,,,,,,,,,,,,,,,,,,,,,,,,,,,,,,,,,,,,,,,,,,,,,,,,,,,,,,,,
,,,,,,0,0,0,0,1,X V Q F H G B L J M P D K C T S W R N Z,5c51dd37c91d1100017760b8,37,Mężczyzna,2022-06-11_09h42.45.168,task,2021.1.4,Win32,39.94567388,6299f149e92ead563fba08ef,62a4474d3469b9eb83393fe9,,,,,,,,,,,,,,,,,,,,,,,,,,,,,,,,,,,,,,,,,,,,,,,,,,,,,,,,,,,,,,,,,,,,,,,,,,,,,,,,,,,,,,,,,,,,,,,,,,,,,
,,,,,,1,0,1,0,1,X V Q F H G B L J M P D K C T S W R N Z,5c51dd37c91d1100017760b8,37,Mężczyzna,2022-06-11_09h42.45.168,task,2021.1.4,Win32,39.94567388,6299f149e92ead563fba08ef,62a4474d3469b9eb83393fe9,,,,,,,,,,,,,,,,,,,,,,,,,,,,,,,,,,,,,,,,,,,,,,,,,,,,,,,,,,,,,,,,,,,,,,,,,,,,,,,,,,,,,,,,,,,,,,,,,,,,,
,,,,,,2,0,2,0,1,X V Q F H G B L J M P D K C T S W R N Z,5c51dd37c91d1100017760b8,37,Mężczyzna,2022-06-11_09h42.45.168,task,2021.1.4,Win32,39.94567388,6299f149e92ead563fba08ef,62a4474d3469b9eb83393fe9,,,,,,,,,,,,,,,,,,,,,,,,,,,,,,,,,,,,,,,,,,,,,,,,,,,,,,,,,,,,,,,,,,,,,,,,,,,,,,,,,,,,,,,,,,,,,,,,,,,,,
,,,,,,,,,,,,5c51dd37c91d1100017760b8,37,Mężczyzna,2022-06-11_09h42.45.168,task,2021.1.4,Win32,39.94567388,6299f149e92ead563fba08ef,62a4474d3469b9eb83393fe9,knv,"[""k"",""n"",""v""]","[2.055499999999995,2.5364999999999895,3.1554000000003697,3.889499999999998]",1,KNV,2,0,2,0,1,,,,,,,,,,,,,,,,,,,,,,,,,,,,,,,,,,,,,,,,,,,,,,,,,,,,,,,,,,,,,,,,,,,,,,,,,,,,,,,,,,,,,,,,,,,
,,,,,,0,0,0,0,1,X V Q F H G B L J M P D K C T S W R N Z,5c51dd37c91d1100017760b8,37,Mężczyzna,2022-06-11_09h42.45.168,task,2021.1.4,Win32,39.94567388,6299f149e92ead563fba08ef,62a4474d3469b9eb83393fe9,,,,,,,,,,,,,,,,,,,,,,,,,,,,,,,,,,,,,,,,,,,,,,,,,,,,,,,,,,,,,,,,,,,,,,,,,,,,,,,,,,,,,,,,,,,,,,,,,,,,,
,,,,,,1,0,1,0,1,X V Q F H G B L J M P D K C T S W R N Z,5c51dd37c91d1100017760b8,37,Mężczyzna,2022-06-11_09h42.45.168,task,2021.1.4,Win32,39.94567388,6299f149e92ead563fba08ef,62a4474d3469b9eb83393fe9,,,,,,,,,,,,,,,,,,,,,,,,,,,,,,,,,,,,,,,,,,,,,,,,,,,,,,,,,,,,,,,,,,,,,,,,,,,,,,,,,,,,,,,,,,,,,,,,,,,,,
,,,,,,2,0,2,0,1,X V Q F H G B L J M P D K C T S W R N Z,5c51dd37c91d1100017760b8,37,Mężczyzna,2022-06-11_09h42.45.168,task,2021.1.4,Win32,39.94567388,6299f149e92ead563fba08ef,62a4474d3469b9eb83393fe9,,,,,,,,,,,,,,,,,,,,,,,,,,,,,,,,,,,,,,,,,,,,,,,,,,,,,,,,,,,,,,,,,,,,,,,,,,,,,,,,,,,,,,,,,,,,,,,,,,,,,
,,,,,,,,,,,,5c51dd37c91d1100017760b8,37,Mężczyzna,2022-06-11_09h42.45.168,task,2021.1.4,Win32,39.94567388,6299f149e92ead563fba08ef,62a4474d3469b9eb83393fe9,qtv,"[""q"",""t"",""v""]","[1.9342000000011126,2.2501000000014812,2.6199999999999903,3.12120000000111]",1,QTV,3,0,3,0,1,,,,,,,,,,,,,,,,,,,,,,,,,,,,,,,,,,,,,,,,,,,,,,,,,,,,,,,,,,,,,,,,,,,,,,,,,,,,,,,,,,,,,,,,,,,
,,,,,,0,0,0,0,1,X V Q F H G B L J M P D K C T S W R N Z,5c51dd37c91d1100017760b8,37,Mężczyzna,2022-06-11_09h42.45.168,task,2021.1.4,Win32,39.94567388,6299f149e92ead563fba08ef,62a4474d3469b9eb83393fe9,,,,,,,,,,,,,,,,,,,,,,,,,,,,,,,,,,,,,,,,,,,,,,,,,,,,,,,,,,,,,,,,,,,,,,,,,,,,,,,,,,,,,,,,,,,,,,,,,,,,,
,,,,,,1,0,1,0,1,X V Q F H G B L J M P D K C T S W R N Z,5c51dd37c91d1100017760b8,37,Mężczyzna,2022-06-11_09h42.45.168,task,2021.1.4,Win32,39.94567388,6299f149e92ead563fba08ef,62a4474d3469b9eb83393fe9,,,,,,,,,,,,,,,,,,,,,,,,,,,,,,,,,,,,,,,,,,,,,,,,,,,,,,,,,,,,,,,,,,,,,,,,,,,,,,,,,,,,,,,,,,,,,,,,,,,,,
,,,,,,2,0,2,0,1,X V Q F H G B L J M P D K C T S W R N Z,5c51dd37c91d1100017760b8,37,Mężczyzna,2022-06-11_09h42.45.168,task,2021.1.4,Win32,39.94567388,6299f149e92ead563fba08ef,62a4474d3469b9eb83393fe9,,,,,,,,,,,,,,,,,,,,,,,,,,,,,,,,,,,,,,,,,,,,,,,,,,,,,,,,,,,,,,,,,,,,,,,,,,,,,,,,,,,,,,,,,,,,,,,,,,,,,
,,,,,,3,0,3,0,1,X V Q F H G B L J M P D K C T S W R N Z,5c51dd37c91d1100017760b8,37,Mężczyzna,2022-06-11_09h42.45.168,task,2021.1.4,Win32,39.94567388,6299f149e92ead563fba08ef,62a4474d3469b9eb83393fe9,,,,,,,,,,,,,,,,,,,,,,,,,,,,,,,,,,,,,,,,,,,,,,,,,,,,,,,,,,,,,,,,,,,,,,,,,,,,,,,,,,,,,,,,,,,,,,,,,,,,,
,,,,,,,,,,,,5c51dd37c91d1100017760b8,37,Mężczyzna,2022-06-11_09h42.45.168,task,2021.1.4,Win32,39.94567388,6299f149e92ead563fba08ef,62a4474d3469b9eb83393fe9,zsbh,"[""z"",""s"",""b"",""h""]","[1.5331000000014825,1.918999999999997,2.4858000000007365,2.934700000001115,3.9876000000014926]",1,ZSBH,4,0,4,0,1,,,,,,,,,,,,,,,,,,,,,,,,,,,,,,,,,,,,,,,,,,,,,,,,,,,,,,,,,,,,,,,,,,,,,,,,,,,,,,,,,,,,,,,,,,,
,,,,,,0,0,0,0,1,X V Q F H G B L J M P D K C T S W R N Z,5c51dd37c91d1100017760b8,37,Mężczyzna,2022-06-11_09h42.45.168,task,2021.1.4,Win32,39.94567388,6299f149e92ead563fba08ef,62a4474d3469b9eb83393fe9,,,,,,,,,,,,,,,,,,,,,,,,,,,,,,,,,,,,,,,,,,,,,,,,,,,,,,,,,,,,,,,,,,,,,,,,,,,,,,,,,,,,,,,,,,,,,,,,,,,,,
,,,,,,1,0,1,0,1,X V Q F H G B L J M P D K C T S W R N Z,5c51dd37c91d1100017760b8,37,Mężczyzna,2022-06-11_09h42.45.168,task,2021.1.4,Win32,39.94567388,6299f149e92ead563fba08ef,62a4474d3469b9eb83393fe9,,,,,,,,,,,,,,,,,,,,,,,,,,,,,,,,,,,,,,,,,,,,,,,,,,,,,,,,,,,,,,,,,,,,,,,,,,,,,,,,,,,,,,,,,,,,,,,,,,,,,
,,,,,,2,0,2,0,1,X V Q F H G B L J M P D K C T S W R N Z,5c51dd37c91d1100017760b8,37,Mężczyzna,2022-06-11_09h42.45.168,task,2021.1.4,Win32,39.94567388,6299f149e92ead563fba08ef,62a4474d3469b9eb83393fe9,,,,,,,,,,,,,,,,,,,,,,,,,,,,,,,,,,,,,,,,,,,,,,,,,,,,,,,,,,,,,,,,,,,,,,,,,,,,,,,,,,,,,,,,,,,,,,,,,,,,,
,,,,,,3,0,3,0,1,X V Q F H G B L J M P D K C T S W R N Z,5c51dd37c91d1100017760b8,37,Mężczyzna,2022-06-11_09h42.45.168,task,2021.1.4,Win32,39.94567388,6299f149e92ead563fba08ef,62a4474d3469b9eb83393fe9,,,,,,,,,,,,,,,,,,,,,,,,,,,,,,,,,,,,,,,,,,,,,,,,,,,,,,,,,,,,,,,,,,,,,,,,,,,,,,,,,,,,,,,,,,,,,,,,,,,,,
,,,,,,,,,,,,5c51dd37c91d1100017760b8,37,Mężczyzna,2022-06-11_09h42.45.168,task,2021.1.4,Win32,39.94567388,6299f149e92ead563fba08ef,62a4474d3469b9eb83393fe9,gkcf,"[""g"",""k"",""c"",""f""]","[1.853199999999248,2.286699999999257,2.920599999999638,3.522299999998893,5.556299999998885]",1,GKCF,5,0,5,0,1,,,,,,,,,,,,,,,,,,,,,,,,,,,,,,,,,,,,,,,,,,,,,,,,,,,,,,,,,,,,,,,,,,,,,,,,,,,,,,,,,,,,,,,,,,,
,,,,,,0,0,0,0,1,X V Q F H G B L J M P D K C T S W R N Z,5c51dd37c91d1100017760b8,37,Mężczyzna,2022-06-11_09h42.45.168,task,2021.1.4,Win32,39.94567388,6299f149e92ead563fba08ef,62a4474d3469b9eb83393fe9,,,,,,,,,,,,,,,,,,,,,,,,,,,,,,,,,,,,,,,,,,,,,,,,,,,,,,,,,,,,,,,,,,,,,,,,,,,,,,,,,,,,,,,,,,,,,,,,,,,,,
,,,,,,1,0,1,0,1,X V Q F H G B L J M P D K C T S W R N Z,5c51dd37c91d1100017760b8,37,Mężczyzna,2022-06-11_09h42.45.168,task,2021.1.4,Win32,39.94567388,6299f149e92ead563fba08ef,62a4474d3469b9eb83393fe9,,,,,,,,,,,,,,,,,,,,,,,,,,,,,,,,,,,,,,,,,,,,,,,,,,,,,,,,,,,,,,,,,,,,,,,,,,,,,,,,,,,,,,,,,,,,,,,,,,,,,
,,,,,,2,0,2,0,1,X V Q F H G B L J M P D K C T S W R N Z,5c51dd37c91d1100017760b8,37,Mężczyzna,2022-06-11_09h42.45.168,task,2021.1.4,Win32,39.94567388,6299f149e92ead563fba08ef,62a4474d3469b9eb83393fe9,,,,,,,,,,,,,,,,,,,,,,,,,,,,,,,,,,,,,,,,,,,,,,,,,,,,,,,,,,,,,,,,,,,,,,,,,,,,,,,,,,,,,,,,,,,,,,,,,,,,,
,,,,,,3,0,3,0,1,X V Q F H G B L J M P D K C T S W R N Z,5c51dd37c91d1100017760b8,37,Mężczyzna,2022-06-11_09h42.45.168,task,2021.1.4,Win32,39.94567388,6299f149e92ead563fba08ef,62a4474d3469b9eb83393fe9,,,,,,,,,,,,,,,,,,,,,,,,,,,,,,,,,,,,,,,,,,,,,,,,,,,,,,,,,,,,,,,,,,,,,,,,,,,,,,,,,,,,,,,,,,,,,,,,,,,,,
,,,,,,4,0,4,0,1,X V Q F H G B L J M P D K C T S W R N Z,5c51dd37c91d1100017760b8,37,Mężczyzna,2022-06-11_09h42.45.168,task,2021.1.4,Win32,39.94567388,6299f149e92ead563fba08ef,62a4474d3469b9eb83393fe9,,,,,,,,,,,,,,,,,,,,,,,,,,,,,,,,,,,,,,,,,,,,,,,,,,,,,,,,,,,,,,,,,,,,,,,,,,,,,,,,,,,,,,,,,,,,,,,,,,,,,
,,,,,,,,,,,,5c51dd37c91d1100017760b8,37,Mężczyzna,2022-06-11_09h42.45.168,task,2021.1.4,Win32,39.94567388,6299f149e92ead563fba08ef,62a4474d3469b9eb83393fe9,zwmrg,"[""z"",""w"",""m"",""r"",""g""]","[1.5521999999992317,1.9530999999996084,2.520599999999604,2.9879000000003657,3.4545999999996297,4.421400000000375]",1,ZWMRG,6,0,6,0,1,,,,,,,,,,,,,,,,,,,,,,,,,,,,,,,,,,,,,,,,,,,,,,,,,,,,,,,,,,,,,,,,,,,,,,,,,,,,,,,,,,,,,,,,,,,
,,,,,,0,0,0,0,1,X V Q F H G B L J M P D K C T S W R N Z,5c51dd37c91d1100017760b8,37,Mężczyzna,2022-06-11_09h42.45.168,task,2021.1.4,Win32,39.94567388,6299f149e92ead563fba08ef,62a4474d3469b9eb83393fe9,,,,,,,,,,,,,,,,,,,,,,,,,,,,,,,,,,,,,,,,,,,,,,,,,,,,,,,,,,,,,,,,,,,,,,,,,,,,,,,,,,,,,,,,,,,,,,,,,,,,,
,,,,,,1,0,1,0,1,X V Q F H G B L J M P D K C T S W R N Z,5c51dd37c91d1100017760b8,37,Mężczyzna,2022-06-11_09h42.45.168,task,2021.1.4,Win32,39.94567388,6299f149e92ead563fba08ef,62a4474d3469b9eb83393fe9,,,,,,,,,,,,,,,,,,,,,,,,,,,,,,,,,,,,,,,,,,,,,,,,,,,,,,,,,,,,,,,,,,,,,,,,,,,,,,,,,,,,,,,,,,,,,,,,,,,,,
,,,,,,2,0,2,0,1,X V Q F H G B L J M P D K C T S W R N Z,5c51dd37c91d1100017760b8,37,Mężczyzna,2022-06-11_09h42.45.168,task,2021.1.4,Win32,39.94567388,6299f149e92ead563fba08ef,62a4474d3469b9eb83393fe9,,,,,,,,,,,,,,,,,,,,,,,,,,,,,,,,,,,,,,,,,,,,,,,,,,,,,,,,,,,,,,,,,,,,,,,,,,,,,,,,,,,,,,,,,,,,,,,,,,,,,
,,,,,,3,0,3,0,1,X V Q F H G B L J M P D K C T S W R N Z,5c51dd37c91d1100017760b8,37,Mężczyzna,2022-06-11_09h42.45.168,task,2021.1.4,Win32,39.94567388,6299f149e92ead563fba08ef,62a4474d3469b9eb83393fe9,,,,,,,,,,,,,,,,,,,,,,,,,,,,,,,,,,,,,,,,,,,,,,,,,,,,,,,,,,,,,,,,,,,,,,,,,,,,,,,,,,,,,,,,,,,,,,,,,,,,,
,,,,,,4,0,4,0,1,X V Q F H G B L J M P D K C T S W R N Z,5c51dd37c91d1100017760b8,37,Mężczyzna,2022-06-11_09h42.45.168,task,2021.1.4,Win32,39.94567388,6299f149e92ead563fba08ef,62a4474d3469b9eb83393fe9,,,,,,,,,,,,,,,,,,,,,,,,,,,,,,,,,,,,,,,,,,,,,,,,,,,,,,,,,,,,,,,,,,,,,,,,,,,,,,,,,,,,,,,,,,,,,,,,,,,,,
,,,,,,,,,,,,5c51dd37c91d1100017760b8,37,Mężczyzna,2022-06-11_09h42.45.168,task,2021.1.4,Win32,39.94567388,6299f149e92ead563fba08ef,62a4474d3469b9eb83393fe9,qdjlf,"[""q"",""d"",""j"",""l"",""f""]","[1.3188000000007492,1.7849999999999966,2.401099999999616,3.054000000000002,3.7539999999999907,4.603099999999614]",1,QDJLF,7,0,7,0,1,,,,,,,,,,,,,,,,,,,,,,,,,,,,,,,,,,,,,,,,,,,,,,,,,,,,,,,,,,,,,,,,,,,,,,,,,,,,,,,,,,,,,,,,,,,
,,,,,,0,0,0,0,1,X V Q F H G B L J M P D K C T S W R N Z,5c51dd37c91d1100017760b8,37,Mężczyzna,2022-06-11_09h42.45.168,task,2021.1.4,Win32,39.94567388,6299f149e92ead563fba08ef,62a4474d3469b9eb83393fe9,,,,,,,,,,,,,,,,,,,,,,,,,,,,,,,,,,,,,,,,,,,,,,,,,,,,,,,,,,,,,,,,,,,,,,,,,,,,,,,,,,,,,,,,,,,,,,,,,,,,,
,,,,,,1,0,1,0,1,X V Q F H G B L J M P D K C T S W R N Z,5c51dd37c91d1100017760b8,37,Mężczyzna,2022-06-11_09h42.45.168,task,2021.1.4,Win32,39.94567388,6299f149e92ead563fba08ef,62a4474d3469b9eb83393fe9,,,,,,,,,,,,,,,,,,,,,,,,,,,,,,,,,,,,,,,,,,,,,,,,,,,,,,,,,,,,,,,,,,,,,,,,,,,,,,,,,,,,,,,,,,,,,,,,,,,,,
,,,,,,2,0,2,0,1,X V Q F H G B L J M P D K C T S W R N Z,5c51dd37c91d1100017760b8,37,Mężczyzna,2022-06-11_09h42.45.168,task,2021.1.4,Win32,39.94567388,6299f149e92ead563fba08ef,62a4474d3469b9eb83393fe9,,,,,,,,,,,,,,,,,,,,,,,,,,,,,,,,,,,,,,,,,,,,,,,,,,,,,,,,,,,,,,,,,,,,,,,,,,,,,,,,,,,,,,,,,,,,,,,,,,,,,
,,,,,,3,0,3,0,1,X V Q F H G B L J M P D K C T S W R N Z,5c51dd37c91d1100017760b8,37,Mężczyzna,2022-06-11_09h42.45.168,task,2021.1.4,Win32,39.94567388,6299f149e92ead563fba08ef,62a4474d3469b9eb83393fe9,,,,,,,,,,,,,,,,,,,,,,,,,,,,,,,,,,,,,,,,,,,,,,,,,,,,,,,,,,,,,,,,,,,,,,,,,,,,,,,,,,,,,,,,,,,,,,,,,,,,,
,,,,,,4,0,4,0,1,X V Q F H G B L J M P D K C T S W R N Z,5c51dd37c91d1100017760b8,37,Mężczyzna,2022-06-11_09h42.45.168,task,2021.1.4,Win32,39.94567388,6299f149e92ead563fba08ef,62a4474d3469b9eb83393fe9,,,,,,,,,,,,,,,,,,,,,,,,,,,,,,,,,,,,,,,,,,,,,,,,,,,,,,,,,,,,,,,,,,,,,,,,,,,,,,,,,,,,,,,,,,,,,,,,,,,,,
,,,,,,5,0,5,0,1,X V Q F H G B L J M P D K C T S W R N Z,5c51dd37c91d1100017760b8,37,Mężczyzna,2022-06-11_09h42.45.168,task,2021.1.4,Win32,39.94567388,6299f149e92ead563fba08ef,62a4474d3469b9eb83393fe9,,,,,,,,,,,,,,,,,,,,,,,,,,,,,,,,,,,,,,,,,,,,,,,,,,,,,,,,,,,,,,,,,,,,,,,,,,,,,,,,,,,,,,,,,,,,,,,,,,,,,
,,,,,,,,,,,,5c51dd37c91d1100017760b8,37,Mężczyzna,2022-06-11_09h42.45.168,task,2021.1.4,Win32,39.94567388,6299f149e92ead563fba08ef,62a4474d3469b9eb83393fe9,kczvrh,"[""k"",""c"",""z"",""v"",""r"",""h""]","[2.3709000000003755,3.1709999999999923,4.238999999999976,4.97259999999963,5.539300000000736,6.340199999999243,7.322599999999625]",1,KCZVRH,8,0,8,0,1,,,,,,,,,,,,,,,,,,,,,,,,,,,,,,,,,,,,,,,,,,,,,,,,,,,,,,,,,,,,,,,,,,,,,,,,,,,,,,,,,,,,,,,,,,,
,,,,,,0,0,0,0,1,X V Q F H G B L J M P D K C T S W R N Z,5c51dd37c91d1100017760b8,37,Mężczyzna,2022-06-11_09h42.45.168,task,2021.1.4,Win32,39.94567388,6299f149e92ead563fba08ef,62a4474d3469b9eb83393fe9,,,,,,,,,,,,,,,,,,,,,,,,,,,,,,,,,,,,,,,,,,,,,,,,,,,,,,,,,,,,,,,,,,,,,,,,,,,,,,,,,,,,,,,,,,,,,,,,,,,,,
,,,,,,1,0,1,0,1,X V Q F H G B L J M P D K C T S W R N Z,5c51dd37c91d1100017760b8,37,Mężczyzna,2022-06-11_09h42.45.168,task,2021.1.4,Win32,39.94567388,6299f149e92ead563fba08ef,62a4474d3469b9eb83393fe9,,,,,,,,,,,,,,,,,,,,,,,,,,,,,,,,,,,,,,,,,,,,,,,,,,,,,,,,,,,,,,,,,,,,,,,,,,,,,,,,,,,,,,,,,,,,,,,,,,,,,
,,,,,,2,0,2,0,1,X V Q F H G B L J M P D K C T S W R N Z,5c51dd37c91d1100017760b8,37,Mężczyzna,2022-06-11_09h42.45.168,task,2021.1.4,Win32,39.94567388,6299f149e92ead563fba08ef,62a4474d3469b9eb83393fe9,,,,,,,,,,,,,,,,,,,,,,,,,,,,,,,,,,,,,,,,,,,,,,,,,,,,,,,,,,,,,,,,,,,,,,,,,,,,,,,,,,,,,,,,,,,,,,,,,,,,,
,,,,,,3,0,3,0,1,X V Q F H G B L J M P D K C T S W R N Z,5c51dd37c91d1100017760b8,37,Mężczyzna,2022-06-11_09h42.45.168,task,2021.1.4,Win32,39.94567388,6299f149e92ead563fba08ef,62a4474d3469b9eb83393fe9,,,,,,,,,,,,,,,,,,,,,,,,,,,,,,,,,,,,,,,,,,,,,,,,,,,,,,,,,,,,,,,,,,,,,,,,,,,,,,,,,,,,,,,,,,,,,,,,,,,,,
,,,,,,4,0,4,0,1,X V Q F H G B L J M P D K C T S W R N Z,5c51dd37c91d1100017760b8,37,Mężczyzna,2022-06-11_09h42.45.168,task,2021.1.4,Win32,39.94567388,6299f149e92ead563fba08ef,62a4474d3469b9eb83393fe9,,,,,,,,,,,,,,,,,,,,,,,,,,,,,,,,,,,,,,,,,,,,,,,,,,,,,,,,,,,,,,,,,,,,,,,,,,,,,,,,,,,,,,,,,,,,,,,,,,,,,
,,,,,,5,0,5,0,1,X V Q F H G B L J M P D K C T S W R N Z,5c51dd37c91d1100017760b8,37,Mężczyzna,2022-06-11_09h42.45.168,task,2021.1.4,Win32,39.94567388,6299f149e92ead563fba08ef,62a4474d3469b9eb83393fe9,,,,,,,,,,,,,,,,,,,,,,,,,,,,,,,,,,,,,,,,,,,,,,,,,,,,,,,,,,,,,,,,,,,,,,,,,,,,,,,,,,,,,,,,,,,,,,,,,,,,,
,,,,,,,,,,,,5c51dd37c91d1100017760b8,37,Mężczyzna,2022-06-11_09h42.45.168,task,2021.1.4,Win32,39.94567388,6299f149e92ead563fba08ef,62a4474d3469b9eb83393fe9,qprnxh,"[""q"",""p"",""r"",""n"",""x"",""h""]","[1.7030999999996084,2.1059999999999945,2.8031999999992365,3.2519000000003473,3.785799999998858,4.372400000000368,5.0052999999988685]",1,QPRNXH,9,0,9,0,1,,,,,,,,,,,,,,,,,,,,,,,,,,,,,,,,,,,,,,,,,,,,,,,,,,,,,,,,,,,,,,,,,,,,,,,,,,,,,,,,,,,,,,,,,,,
,,,,,,0,0,0,0,1,X V Q F H G B L J M P D K C T S W R N Z,5c51dd37c91d1100017760b8,37,Mężczyzna,2022-06-11_09h42.45.168,task,2021.1.4,Win32,39.94567388,6299f149e92ead563fba08ef,62a4474d3469b9eb83393fe9,,,,,,,,,,,,,,,,,,,,,,,,,,,,,,,,,,,,,,,,,,,,,,,,,,,,,,,,,,,,,,,,,,,,,,,,,,,,,,,,,,,,,,,,,,,,,,,,,,,,,
,,,,,,1,0,1,0,1,X V Q F H G B L J M P D K C T S W R N Z,5c51dd37c91d1100017760b8,37,Mężczyzna,2022-06-11_09h42.45.168,task,2021.1.4,Win32,39.94567388,6299f149e92ead563fba08ef,62a4474d3469b9eb83393fe9,,,,,,,,,,,,,,,,,,,,,,,,,,,,,,,,,,,,,,,,,,,,,,,,,,,,,,,,,,,,,,,,,,,,,,,,,,,,,,,,,,,,,,,,,,,,,,,,,,,,,
,,,,,,2,0,2,0,1,X V Q F H G B L J M P D K C T S W R N Z,5c51dd37c91d1100017760b8,37,Mężczyzna,2022-06-11_09h42.45.168,task,2021.1.4,Win32,39.94567388,6299f149e92ead563fba08ef,62a4474d3469b9eb83393fe9,,,,,,,,,,,,,,,,,,,,,,,,,,,,,,,,,,,,,,,,,,,,,,,,,,,,,,,,,,,,,,,,,,,,,,,,,,,,,,,,,,,,,,,,,,,,,,,,,,,,,
,,,,,,3,0,3,0,1,X V Q F H G B L J M P D K C T S W R N Z,5c51dd37c91d1100017760b8,37,Mężczyzna,2022-06-11_09h42.45.168,task,2021.1.4,Win32,39.94567388,6299f149e92ead563fba08ef,62a4474d3469b9eb83393fe9,,,,,,,,,,,,,,,,,,,,,,,,,,,,,,,,,,,,,,,,,,,,,,,,,,,,,,,,,,,,,,,,,,,,,,,,,,,,,,,,,,,,,,,,,,,,,,,,,,,,,
,,,,,,4,0,4,0,1,X V Q F H G B L J M P D K C T S W R N Z,5c51dd37c91d1100017760b8,37,Mężczyzna,2022-06-11_09h42.45.168,task,2021.1.4,Win32,39.94567388,6299f149e92ead563fba08ef,62a4474d3469b9eb83393fe9,,,,,,,,,,,,,,,,,,,,,,,,,,,,,,,,,,,,,,,,,,,,,,,,,,,,,,,,,,,,,,,,,,,,,,,,,,,,,,,,,,,,,,,,,,,,,,,,,,,,,
,,,,,,5,0,5,0,1,X V Q F H G B L J M P D K C T S W R N Z,5c51dd37c91d1100017760b8,37,Mężczyzna,2022-06-11_09h42.45.168,task,2021.1.4,Win32,39.94567388,6299f149e92ead563fba08ef,62a4474d3469b9eb83393fe9,,,,,,,,,,,,,,,,,,,,,,,,,,,,,,,,,,,,,,,,,,,,,,,,,,,,,,,,,,,,,,,,,,,,,,,,,,,,,,,,,,,,,,,,,,,,,,,,,,,,,
,,,,,,6,0,6,0,1,X V Q F H G B L J M P D K C T S W R N Z,5c51dd37c91d1100017760b8,37,Mężczyzna,2022-06-11_09h42.45.168,task,2021.1.4,Win32,39.94567388,6299f149e92ead563fba08ef,62a4474d3469b9eb83393fe9,,,,,,,,,,,,,,,,,,,,,,,,,,,,,,,,,,,,,,,,,,,,,,,,,,,,,,,,,,,,,,,,,,,,,,,,,,,,,,,,,,,,,,,,,,,,,,,,,,,,,
,,,,,,,,,,,,5c51dd37c91d1100017760b8,37,Mężczyzna,2022-06-11_09h42.45.168,task,2021.1.4,Win32,39.94567388,6299f149e92ead563fba08ef,62a4474d3469b9eb83393fe9,jzglnk,"[""j"",""z"",""g"",""l"",""n"",""k""]","[1.4184000000003891,2.053199999999265,2.587099999999623,3.387199999999268,7.391400000000374,10.660500000000013,11.227099999999638]",0,JZGLNKD,10,0,10,0,1,,,,,,,,,,,,,,,,,,,,,,,,,,,,,,,,,,,,,,,,,,,,,,,,,,,,,,,,,,,,,,,,,,,,,,,,,,,,,,,,,,,,,,,,,,,
,,,,,,0,0,0,0,1,X V Q F H G B L J M P D K C T S W R N Z,5c51dd37c91d1100017760b8,37,Mężczyzna,2022-06-11_09h42.45.168,task,2021.1.4,Win32,39.94567388,6299f149e92ead563fba08ef,62a4474d3469b9eb83393fe9,,,,,,,,,,,,,,,,,,,,,,,,,,,,,,,,,,,,,,,,,,,,,,,,,,,,,,,,,,,,,,,,,,,,,,,,,,,,,,,,,,,,,,,,,,,,,,,,,,,,,
,,,,,,1,0,1,0,1,X V Q F H G B L J M P D K C T S W R N Z,5c51dd37c91d1100017760b8,37,Mężczyzna,2022-06-11_09h42.45.168,task,2021.1.4,Win32,39.94567388,6299f149e92ead563fba08ef,62a4474d3469b9eb83393fe9,,,,,,,,,,,,,,,,,,,,,,,,,,,,,,,,,,,,,,,,,,,,,,,,,,,,,,,,,,,,,,,,,,,,,,,,,,,,,,,,,,,,,,,,,,,,,,,,,,,,,
,,,,,,2,0,2,0,1,X V Q F H G B L J M P D K C T S W R N Z,5c51dd37c91d1100017760b8,37,Mężczyzna,2022-06-11_09h42.45.168,task,2021.1.4,Win32,39.94567388,6299f149e92ead563fba08ef,62a4474d3469b9eb83393fe9,,,,,,,,,,,,,,,,,,,,,,,,,,,,,,,,,,,,,,,,,,,,,,,,,,,,,,,,,,,,,,,,,,,,,,,,,,,,,,,,,,,,,,,,,,,,,,,,,,,,,
,,,,,,3,0,3,0,1,X V Q F H G B L J M P D K C T S W R N Z,5c51dd37c91d1100017760b8,37,Mężczyzna,2022-06-11_09h42.45.168,task,2021.1.4,Win32,39.94567388,6299f149e92ead563fba08ef,62a4474d3469b9eb83393fe9,,,,,,,,,,,,,,,,,,,,,,,,,,,,,,,,,,,,,,,,,,,,,,,,,,,,,,,,,,,,,,,,,,,,,,,,,,,,,,,,,,,,,,,,,,,,,,,,,,,,,
,,,,,,4,0,4,0,1,X V Q F H G B L J M P D K C T S W R N Z,5c51dd37c91d1100017760b8,37,Mężczyzna,2022-06-11_09h42.45.168,task,2021.1.4,Win32,39.94567388,6299f149e92ead563fba08ef,62a4474d3469b9eb83393fe9,,,,,,,,,,,,,,,,,,,,,,,,,,,,,,,,,,,,,,,,,,,,,,,,,,,,,,,,,,,,,,,,,,,,,,,,,,,,,,,,,,,,,,,,,,,,,,,,,,,,,
,,,,,,5,0,5,0,1,X V Q F H G B L J M P D K C T S W R N Z,5c51dd37c91d1100017760b8,37,Mężczyzna,2022-06-11_09h42.45.168,task,2021.1.4,Win32,39.94567388,6299f149e92ead563fba08ef,62a4474d3469b9eb83393fe9,,,,,,,,,,,,,,,,,,,,,,,,,,,,,,,,,,,,,,,,,,,,,,,,,,,,,,,,,,,,,,,,,,,,,,,,,,,,,,,,,,,,,,,,,,,,,,,,,,,,,
,,,,,,6,0,6,0,1,X V Q F H G B L J M P D K C T S W R N Z,5c51dd37c91d1100017760b8,37,Mężczyzna,2022-06-11_09h42.45.168,task,2021.1.4,Win32,39.94567388,6299f149e92ead563fba08ef,62a4474d3469b9eb83393fe9,,,,,,,,,,,,,,,,,,,,,,,,,,,,,,,,,,,,,,,,,,,,,,,,,,,,,,,,,,,,,,,,,,,,,,,,,,,,,,,,,,,,,,,,,,,,,,,,,,,,,
,,,,,,,,,,,,5c51dd37c91d1100017760b8,37,Mężczyzna,2022-06-11_09h42.45.168,task,2021.1.4,Win32,39.94567388,6299f149e92ead563fba08ef,62a4474d3469b9eb83393fe9,dfwhdrk,"[""d"",""f"",""w"",""h"",""d"",""r"",""k""]","[1.6832000000011078,2.3987000000010994,4.2003000000007376,4.867700000001122,6.053800000000734,7.154900000000367,8.02230000000074,9.991500000000002]",1,DFWHDRK,11,0,11,0,1,,,,,,,,,,,,,,,,,,,,,,,,,,,,,,,,,,,,,,,,,,,,,,,,,,,,,,,,,,,,,,,,,,,,,,,,,,,,,,,,,,,,,,,,,,,
,,,,,,0,0,0,0,1,X V Q F H G B L J M P D K C T S W R N Z,5c51dd37c91d1100017760b8,37,Mężczyzna,2022-06-11_09h42.45.168,task,2021.1.4,Win32,39.94567388,6299f149e92ead563fba08ef,62a4474d3469b9eb83393fe9,,,,,,,,,,,,,,,,,,,,,,,,,,,,,,,,,,,,,,,,,,,,,,,,,,,,,,,,,,,,,,,,,,,,,,,,,,,,,,,,,,,,,,,,,,,,,,,,,,,,,
,,,,,,1,0,1,0,1,X V Q F H G B L J M P D K C T S W R N Z,5c51dd37c91d1100017760b8,37,Mężczyzna,2022-06-11_09h42.45.168,task,2021.1.4,Win32,39.94567388,6299f149e92ead563fba08ef,62a4474d3469b9eb83393fe9,,,,,,,,,,,,,,,,,,,,,,,,,,,,,,,,,,,,,,,,,,,,,,,,,,,,,,,,,,,,,,,,,,,,,,,,,,,,,,,,,,,,,,,,,,,,,,,,,,,,,
,,,,,,2,0,2,0,1,X V Q F H G B L J M P D K C T S W R N Z,5c51dd37c91d1100017760b8,37,Mężczyzna,2022-06-11_09h42.45.168,task,2021.1.4,Win32,39.94567388,6299f149e92ead563fba08ef,62a4474d3469b9eb83393fe9,,,,,,,,,,,,,,,,,,,,,,,,,,,,,,,,,,,,,,,,,,,,,,,,,,,,,,,,,,,,,,,,,,,,,,,,,,,,,,,,,,,,,,,,,,,,,,,,,,,,,
,,,,,,3,0,3,0,1,X V Q F H G B L J M P D K C T S W R N Z,5c51dd37c91d1100017760b8,37,Mężczyzna,2022-06-11_09h42.45.168,task,2021.1.4,Win32,39.94567388,6299f149e92ead563fba08ef,62a4474d3469b9eb83393fe9,,,,,,,,,,,,,,,,,,,,,,,,,,,,,,,,,,,,,,,,,,,,,,,,,,,,,,,,,,,,,,,,,,,,,,,,,,,,,,,,,,,,,,,,,,,,,,,,,,,,,
,,,,,,4,0,4,0,1,X V Q F H G B L J M P D K C T S W R N Z,5c51dd37c91d1100017760b8,37,Mężczyzna,2022-06-11_09h42.45.168,task,2021.1.4,Win32,39.94567388,6299f149e92ead563fba08ef,62a4474d3469b9eb83393fe9,,,,,,,,,,,,,,,,,,,,,,,,,,,,,,,,,,,,,,,,,,,,,,,,,,,,,,,,,,,,,,,,,,,,,,,,,,,,,,,,,,,,,,,,,,,,,,,,,,,,,
,,,,,,5,0,5,0,1,X V Q F H G B L J M P D K C T S W R N Z,5c51dd37c91d1100017760b8,37,Mężczyzna,2022-06-11_09h42.45.168,task,2021.1.4,Win32,39.94567388,6299f149e92ead563fba08ef,62a4474d3469b9eb83393fe9,,,,,,,,,,,,,,,,,,,,,,,,,,,,,,,,,,,,,,,,,,,,,,,,,,,,,,,,,,,,,,,,,,,,,,,,,,,,,,,,,,,,,,,,,,,,,,,,,,,,,
,,,,,,6,0,6,0,1,X V Q F H G B L J M P D K C T S W R N Z,5c51dd37c91d1100017760b8,37,Mężczyzna,2022-06-11_09h42.45.168,task,2021.1.4,Win32,39.94567388,6299f149e92ead563fba08ef,62a4474d3469b9eb83393fe9,,,,,,,,,,,,,,,,,,,,,,,,,,,,,,,,,,,,,,,,,,,,,,,,,,,,,,,,,,,,,,,,,,,,,,,,,,,,,,,,,,,,,,,,,,,,,,,,,,,,,
,,,,,,,,,,,,5c51dd37c91d1100017760b8,37,Mężczyzna,2022-06-11_09h42.45.168,task,2021.1.4,Win32,39.94567388,6299f149e92ead563fba08ef,62a4474d3469b9eb83393fe9,rrrhdz,"[""r"",""r"",""r"",""h"",""d"",""z""]","[1.3826999999992324,1.9165999999996188,2.903199999999231,4.385599999999613,5.038300000000731,5.972400000000363,6.907400000000365]",0,RRRRHDZ,12,0,12,0,1,,,,,,,,,,,,,,,,,,,,,,,,,,,,,,,,,,,,,,,,,,,,,,,,,,,,,,,,,,,,,,,,,,,,,,,,,,,,,,,,,,,,,,,,,,,
,,,,,,0,0,0,0,1,X V Q F H G B L J M P D K C T S W R N Z,5c51dd37c91d1100017760b8,37,Mężczyzna,2022-06-11_09h42.45.168,task,2021.1.4,Win32,39.94567388,6299f149e92ead563fba08ef,62a4474d3469b9eb83393fe9,,,,,,,,,,,,,,,,,,,,,,,,,,,,,,,,,,,,,,,,,,,,,,,,,,,,,,,,,,,,,,,,,,,,,,,,,,,,,,,,,,,,,,,,,,,,,,,,,,,,,
,,,,,,1,0,1,0,1,X V Q F H G B L J M P D K C T S W R N Z,5c51dd37c91d1100017760b8,37,Mężczyzna,2022-06-11_09h42.45.168,task,2021.1.4,Win32,39.94567388,6299f149e92ead563fba08ef,62a4474d3469b9eb83393fe9,,,,,,,,,,,,,,,,,,,,,,,,,,,,,,,,,,,,,,,,,,,,,,,,,,,,,,,,,,,,,,,,,,,,,,,,,,,,,,,,,,,,,,,,,,,,,,,,,,,,,
,,,,,,2,0,2,0,1,X V Q F H G B L J M P D K C T S W R N Z,5c51dd37c91d1100017760b8,37,Mężczyzna,2022-06-11_09h42.45.168,task,2021.1.4,Win32,39.94567388,6299f149e92ead563fba08ef,62a4474d3469b9eb83393fe9,,,,,,,,,,,,,,,,,,,,,,,,,,,,,,,,,,,,,,,,,,,,,,,,,,,,,,,,,,,,,,,,,,,,,,,,,,,,,,,,,,,,,,,,,,,,,,,,,,,,,
,,,,,,3,0,3,0,1,X V Q F H G B L J M P D K C T S W R N Z,5c51dd37c91d1100017760b8,37,Mężczyzna,2022-06-11_09h42.45.168,task,2021.1.4,Win32,39.94567388,6299f149e92ead563fba08ef,62a4474d3469b9eb83393fe9,,,,,,,,,,,,,,,,,,,,,,,,,,,,,,,,,,,,,,,,,,,,,,,,,,,,,,,,,,,,,,,,,,,,,,,,,,,,,,,,,,,,,,,,,,,,,,,,,,,,,
,,,,,,4,0,4,0,1,X V Q F H G B L J M P D K C T S W R N Z,5c51dd37c91d1100017760b8,37,Mężczyzna,2022-06-11_09h42.45.168,task,2021.1.4,Win32,39.94567388,6299f149e92ead563fba08ef,62a4474d3469b9eb83393fe9,,,,,,,,,,,,,,,,,,,,,,,,,,,,,,,,,,,,,,,,,,,,,,,,,,,,,,,,,,,,,,,,,,,,,,,,,,,,,,,,,,,,,,,,,,,,,,,,,,,,,
,,,,,,5,0,5,0,1,X V Q F H G B L J M P D K C T S W R N Z,5c51dd37c91d1100017760b8,37,Mężczyzna,2022-06-11_09h42.45.168,task,2021.1.4,Win32,39.94567388,6299f149e92ead563fba08ef,62a4474d3469b9eb83393fe9,,,,,,,,,,,,,,,,,,,,,,,,,,,,,,,,,,,,,,,,,,,,,,,,,,,,,,,,,,,,,,,,,,,,,,,,,,,,,,,,,,,,,,,,,,,,,,,,,,,,,
,,,,,,6,0,6,0,1,X V Q F H G B L J M P D K C T S W R N Z,5c51dd37c91d1100017760b8,37,Mężczyzna,2022-06-11_09h42.45.168,task,2021.1.4,Win32,39.94567388,6299f149e92ead563fba08ef,62a4474d3469b9eb83393fe9,,,,,,,,,,,,,,,,,,,,,,,,,,,,,,,,,,,,,,,,,,,,,,,,,,,,,,,,,,,,,,,,,,,,,,,,,,,,,,,,,,,,,,,,,,,,,,,,,,,,,
,,,,,,,,,,,,5c51dd37c91d1100017760b8,37,Mężczyzna,2022-06-11_09h42.45.168,task,2021.1.4,Win32,39.94567388,6299f149e92ead563fba08ef,62a4474d3469b9eb83393fe9,xkhfnc,"[""x"",""k"",""h"",""f"",""n"",""c""]","[2.4025000000000034,4.1714999999999804,4.91919999999925,5.671699999999248,7.506999999999977,8.307699999999244,11.209999999999951]",0,XKHFJNC,13,0,13,0,1,,,,,,,,,,,,,,,,,,,,,,,,,,,,,,,,,,,,,,,,,,,,,,,,,,,,,,,,,,,,,,,,,,,,,,,,,,,,,,,,,,,,,,,,,,,
,,,,,,,,,,,,5c51dd37c91d1100017760b8,37,Mężczyzna,2022-06-11_09h42.45.168,task,2021.1.4,Win32,39.94567388,6299f149e92ead563fba08ef,62a4474d3469b9eb83393fe9,,,,,,,,,,,space,9.6762,4,"[""4""]",1,[24.436399999998514],[24.436399999998514],0,0,0,4,1,Practice,5,(2x6) - 8,4,,,,,,,,,,,,,,,,,,,,,,,,,,,,,,,,,,,,,,,,,,,,,,,,,,,,,,,,,,,,,,,,,,,,,,,,,,,
,,,,,,,,,,,,5c51dd37c91d1100017760b8,37,Mężczyzna,2022-06-11_09h42.45.168,task,2021.1.4,Win32,39.94567388,6299f149e92ead563fba08ef,62a4474d3469b9eb83393fe9,,,,,,,,,,,,,5,"[""5""]",1,[8.725999999999999],"[24.436399999998514,8.725999999999999]",0,1,1,5,1,Practice,6,(4/2) + 3,5,,,,,,,,,,,,,,,,,,,,,,,,,,,,,,,,,,,,,,,,,,,,,,,,,,,,,,,,,,,,,,,,,,,,,,,,,,,
,,,,,,,,,,,,5c51dd37c91d1100017760b8,37,Mężczyzna,2022-06-11_09h42.45.168,task,2021.1.4,Win32,39.94567388,6299f149e92ead563fba08ef,62a4474d3469b9eb83393fe9,,,,,,,,,,,,,1,"[""1""]",1,[2.7223999999985153],"[24.436399999998514,8.725999999999999,2.7223999999985153]",0,2,2,1,1,Practice,2,(4x4) - 15,1,,,,,,,,,,,,,,,,,,,,,,,,,,,,,,,,,,,,,,,,,,,,,,,,,,,,,,,,,,,,,,,,,,,,,,,,,,,
,,,,,,,,,,,,5c51dd37c91d1100017760b8,37,Mężczyzna,2022-06-11_09h42.45.168,task,2021.1.4,Win32,39.94567388,6299f149e92ead563fba08ef,62a4474d3469b9eb83393fe9,,,,,,,,,,,,,8,"[""8""]",1,[3.0033000000007632],"[24.436399999998514,8.725999999999999,2.7223999999985153,3.0033000000007632]",0,3,3,8,1,Practice,9,(3x3) - 1,8,,,,,,,,,,,,,,,,,,,,,,,,,,,,,,,,,,,,,,,,,,,,,,,,,,,,,,,,,,,,,,,,,,,,,,,,,,,
,,,,,,,,,,,,5c51dd37c91d1100017760b8,37,Mężczyzna,2022-06-11_09h42.45.168,task,2021.1.4,Win32,39.94567388,6299f149e92ead563fba08ef,62a4474d3469b9eb83393fe9,,,,,,,,,,,,,9,"[""9""]",1,[4.322000000000003],"[24.436399999998514,8.725999999999999,2.7223999999985153,3.0033000000007632,4.322000000000003]",0,4,4,9,1,Practice,10,(20/2) - 1,9,,,,,,,,,,,,,,,,,,,,,,,,,,,,,,,,,,,,,,,,,,,,,,,,,,,,,,,,,,,,,,,,,,,,,,,,,,,
,,,,,,,,,,,,5c51dd37c91d1100017760b8,37,Mężczyzna,2022-06-11_09h42.45.168,task,2021.1.4,Win32,39.94567388,6299f149e92ead563fba08ef,62a4474d3469b9eb83393fe9,,,,,,,,,,,,,7,"[""7""]",1,[4.591700000001083],"[24.436399999998514,8.725999999999999,2.7223999999985153,3.0033000000007632,4.322000000000003,4.591700000001083]",0,5,5,7,1,Practice,8,(5x5) - 18,7,,,,,,,,,,,,,,,,,,,,,,,,,,,,,,,,,,,,,,,,,,,,,,,,,,,,,,,,,,,,,,,,,,,,,,,,,,,
,,,,,,,,,,,,5c51dd37c91d1100017760b8,37,Mężczyzna,2022-06-11_09h42.45.168,task,2021.1.4,Win32,39.94567388,6299f149e92ead563fba08ef,62a4474d3469b9eb83393fe9,,,,,,,,,,,,,3,"[""3""]",1,[3.221900000000346],"[24.436399999998514,8.725999999999999,2.7223999999985153,3.0033000000007632,4.322000000000003,4.591700000001083,3.221900000000346]",0,6,6,3,1,Practice,4,(8/4) + 1,3,,,,,,,,,,,,,,,,,,,,,,,,,,,,,,,,,,,,,,,,,,,,,,,,,,,,,,,,,,,,,,,,,,,,,,,,,,,
,,,,,,,,,,,,5c51dd37c91d1100017760b8,37,Mężczyzna,2022-06-11_09h42.45.168,task,2021.1.4,Win32,39.94567388,6299f149e92ead563fba08ef,62a4474d3469b9eb83393fe9,,,,,,,,,,,,,0,"[""0""]",1,[1.6684999999999945],"[24.436399999998514,8.725999999999999,2.7223999999985153,3.0033000000007632,4.322000000000003,4.591700000001083,3.221900000000346,1.6684999999999945]",0,7,7,0,1,Practice,1,(3x3) -  9,0,,,,,,,,,,,,,,,,,,,,,,,,,,,,,,,,,,,,,,,,,,,,,,,,,,,,,,,,,,,,,,,,,,,,,,,,,,,
,,,,,,,,,,,,5c51dd37c91d1100017760b8,37,Mężczyzna,2022-06-11_09h42.45.168,task,2021.1.4,Win32,39.94567388,6299f149e92ead563fba08ef,62a4474d3469b9eb83393fe9,,,,,,,,,,,,,2,"[""2""]",1,[2.554800000000739],"[24.436399999998514,8.725999999999999,2.7223999999985153,3.0033000000007632,4.322000000000003,4.591700000001083,3.221900000000346,1.6684999999999945,2.554800000000739]",0,8,8,2,1,Practice,3,(4x4) - 14,2,,,,,,,,,,,,,,,,,,,,,,,,,,,,,,,,,,,,,,,,,,,,,,,,,,,,,,,,,,,,,,,,,,,,,,,,,,,
,,,,,,,,,,,,5c51dd37c91d1100017760b8,37,Mężczyzna,2022-06-11_09h42.45.168,task,2021.1.4,Win32,39.94567388,6299f149e92ead563fba08ef,62a4474d3469b9eb83393fe9,,,,,,,,,,,,,6,"[""6""]",1,[2.9213999999984708],"[24.436399999998514,8.725999999999999,2.7223999999985153,3.0033000000007632,4.322000000000003,4.591700000001083,3.221900000000346,1.6684999999999945,2.554800000000739,2.9213999999984708]",0,9,9,6,1,Practice,7,(25/5) + 1,6,,,,,,,,,,,,,,,,,,,,,,,,,,,,,,,,,,,,,,,,,,,,,,,,,,,,,,,,,,,,,,,,,,,,,,,,,,,
,,,,,,,,,,,,5c51dd37c91d1100017760b8,37,Mężczyzna,2022-06-11_09h42.45.168,task,2021.1.4,Win32,39.94567388,6299f149e92ead563fba08ef,62a4474d3469b9eb83393fe9,,,,,,,,,,,,,,,,,,,,,,,,,,,1,58.1684,3.877893333,456.9403653,5.519301678,18.11769166,space,2.3226,0,0,0,0,1,,,,,,,,,,,,,,,,,,,,,,,,,,,,,,,,,,,,,,,,,,,,,,,,,,,,,,,,,,,,,,
,,,,,,,,,,,,5c51dd37c91d1100017760b8,37,Mężczyzna,2022-06-11_09h42.45.168,task,2021.1.4,Win32,39.94567388,6299f149e92ead563fba08ef,62a4474d3469b9eb83393fe9,,,,,,,,,,,,,1,,,,,,,,,,Practice,2,(4x4) - 15,1,,,,,,,,,,,,,,space,15.8681,"[""1""]",1,[3.6534999999999513],1,0,0,0,1,1,,,,,,,,,,,,,,,,,,,,,,,,,,,,,,,,,,,,,,,,,,,,,,,,,,,
,,,,,,,,,,,X V Q F H G B L J M P D K C T S W R N Z,5c51dd37c91d1100017760b8,37,Mężczyzna,2022-06-11_09h42.45.168,task,2021.1.4,Win32,39.94567388,6299f149e92ead563fba08ef,62a4474d3469b9eb83393fe9,,,,,,,,,,,,,,,,,,,,,,,,,,,,,,,,,,,,,,,,,,,,,,,,,,,0,0,0,0,1,,,,,,,,,,,,,,,,,,,,,,,,,,,,,,,,,,,,,,,,,,,,,,
,,,,,,,,,,,,5c51dd37c91d1100017760b8,37,Mężczyzna,2022-06-11_09h42.45.168,task,2021.1.4,Win32,39.94567388,6299f149e92ead563fba08ef,62a4474d3469b9eb83393fe9,,,,,,,,,,,,,5,,,,,,,,,,Practice,6,(4/2) + 3,5,,,,,,,,,,,,,,,,"[""5""]",1,[3.9348000000007346],1,0,0,0,5,1,,,,,,,,,,,,,,,,,,,,,,,,,,,,,,,,,,,,,,,,,,,,,,,,,,,
,,,,,,,,,,,X V Q F H G B L J M P D K C T S W R N Z,5c51dd37c91d1100017760b8,37,Mężczyzna,2022-06-11_09h42.45.168,task,2021.1.4,Win32,39.94567388,6299f149e92ead563fba08ef,62a4474d3469b9eb83393fe9,,,,,,,,,,,,,,,,,,,,,,,,,,,,,,,,,,,,,,,,,,,,,,,,,,,1,0,1,0,1,,,,,,,,,,,,,,,,,,,,,,,,,,,,,,,,,,,,,,,,,,,,,,
,,,,,,,,,,,,5c51dd37c91d1100017760b8,37,Mężczyzna,2022-06-11_09h42.45.168,task,2021.1.4,Win32,39.94567388,6299f149e92ead563fba08ef,62a4474d3469b9eb83393fe9,,,,,,,,,,,,,,,,,,,,,,,,,,,,,,,,,,,,,,,,,,,,,,,,,,,,,,,,zj,"[""z"",""j""]",0,"[3.921000000000049,4.524199999999269,6.758000000000038]",1,0,0,0,0,1,,,,,,,,,,,,,,,,,,,,,,,,,,,,,,,,,,,,
,,,,,,,,,,,,5c51dd37c91d1100017760b8,37,Mężczyzna,2022-06-11_09h42.45.168,task,2021.1.4,Win32,39.94567388,6299f149e92ead563fba08ef,62a4474d3469b9eb83393fe9,,,,,,,,,,,,,4,,,,,,,,,,Practice,5,(2x6) - 8,4,,,,,,,,,,,,,,,,"[""4""]",1,[9.190800000000763],1,0,0,0,4,1,,,,,,,,,,,,,,,,,,,,,,,,,,,,,,,,,,,,,,,,,,,,,,,,,,,
,,,,,,,,,,,X V Q F H G B L J M P D K C T S W R N Z,5c51dd37c91d1100017760b8,37,Mężczyzna,2022-06-11_09h42.45.168,task,2021.1.4,Win32,39.94567388,6299f149e92ead563fba08ef,62a4474d3469b9eb83393fe9,,,,,,,,,,,,,,,,,,,,,,,,,,,,,,,,,,,,,,,,,,,,,,,,,,,0,0,0,0,1,,,,,,,,,,,,,,,,,,,,,,,,,,,,,,,,,,,,,,,,,,,,,,
,,,,,,,,,,,,5c51dd37c91d1100017760b8,37,Mężczyzna,2022-06-11_09h42.45.168,task,2021.1.4,Win32,39.94567388,6299f149e92ead563fba08ef,62a4474d3469b9eb83393fe9,,,,,,,,,,,,,5,,,,,,,,,,Practice,6,(4/2) + 3,5,,,,,,,,,,,,,,,,"[""5""]",1,[5.070699999999249],1,0,0,0,5,1,,,,,,,,,,,,,,,,,,,,,,,,,,,,,,,,,,,,,,,,,,,,,,,,,,,
,,,,,,,,,,,X V Q F H G B L J M P D K C T S W R N Z,5c51dd37c91d1100017760b8,37,Mężczyzna,2022-06-11_09h42.45.168,task,2021.1.4,Win32,39.94567388,6299f149e92ead563fba08ef,62a4474d3469b9eb83393fe9,,,,,,,,,,,,,,,,,,,,,,,,,,,,,,,,,,,,,,,,,,,,,,,,,,,1,0,1,0,1,,,,,,,,,,,,,,,,,,,,,,,,,,,,,,,,,,,,,,,,,,,,,,
,,,,,,,,,,,,5c51dd37c91d1100017760b8,37,Mężczyzna,2022-06-11_09h42.45.168,task,2021.1.4,Win32,39.94567388,6299f149e92ead563fba08ef,62a4474d3469b9eb83393fe9,,,,,,,,,,,,,,,,,,,,,,,,,,,,,,,,,,,,,,,,,,,,,,,,,,,,,,,,cd,"[""c"",""d""]",0,"[2.437300000000789,2.7042000000011512,3.6704000000003703]",1,1,0,1,0,1,,,,,,,,,,,,,,,,,,,,,,,,,,,,,,,,,,,,
,,,,,,,,,,,,5c51dd37c91d1100017760b8,37,Mężczyzna,2022-06-11_09h42.45.168,task,2021.1.4,Win32,39.94567388,6299f149e92ead563fba08ef,62a4474d3469b9eb83393fe9,,,,,,,,,,,,,1,,,,,,,,,,Practice,2,(4x4) - 15,1,,,,,,,,,,,,,,,,"[""1""]",1,[3.202099999999575],1,0,0,0,1,1,,,,,,,,,,,,,,,,,,,,,,,,,,,,,,,,,,,,,,,,,,,,,,,,,,,
,,,,,,,,,,,X V Q F H G B L J M P D K C T S W R N Z,5c51dd37c91d1100017760b8,37,Mężczyzna,2022-06-11_09h42.45.168,task,2021.1.4,Win32,39.94567388,6299f149e92ead563fba08ef,62a4474d3469b9eb83393fe9,,,,,,,,,,,,,,,,,,,,,,,,,,,,,,,,,,,,,,,,,,,,,,,,,,,0,0,0,0,1,,,,,,,,,,,,,,,,,,,,,,,,,,,,,,,,,,,,,,,,,,,,,,
,,,,,,,,,,,,5c51dd37c91d1100017760b8,37,Mężczyzna,2022-06-11_09h42.45.168,task,2021.1.4,Win32,39.94567388,6299f149e92ead563fba08ef,62a4474d3469b9eb83393fe9,,,,,,,,,,,,,4,,,,,,,,,,Practice,5,(2x6) - 8,4,,,,,,,,,,,,,,,,"[""4""]",1,[4.203799999998864],1,0,0,0,4,1,,,,,,,,,,,,,,,,,,,,,,,,,,,,,,,,,,,,,,,,,,,,,,,,,,,
,,,,,,,,,,,X V Q F H G B L J M P D K C T S W R N Z,5c51dd37c91d1100017760b8,37,Mężczyzna,2022-06-11_09h42.45.168,task,2021.1.4,Win32,39.94567388,6299f149e92ead563fba08ef,62a4474d3469b9eb83393fe9,,,,,,,,,,,,,,,,,,,,,,,,,,,,,,,,,,,,,,,,,,,,,,,,,,,1,0,1,0,1,,,,,,,,,,,,,,,,,,,,,,,,,,,,,,,,,,,,,,,,,,,,,,
,,,,,,,,,,,,5c51dd37c91d1100017760b8,37,Mężczyzna,2022-06-11_09h42.45.168,task,2021.1.4,Win32,39.94567388,6299f149e92ead563fba08ef,62a4474d3469b9eb83393fe9,,,,,,,,,,,,,,,,,,,,,,,,,,,,,,,,,,,,,,,,,,,,,,,,,,,,,,,,gz,"[""g"",""z""]",0,"[2.2030999999996084,3.1889000000003875,4.004699999999275]",1,2,0,2,0,1,,,,,,,,,,,,,,,,,,,,,,,,,,,,,,,,,,,,
,,,,,,,,,,,,5c51dd37c91d1100017760b8,37,Mężczyzna,2022-06-11_09h42.45.168,task,2021.1.4,Win32,39.94567388,6299f149e92ead563fba08ef,62a4474d3469b9eb83393fe9,,,,,,,,,,,,,9,,,,,,,,,,Task,24,(2x2) + 5,9,,,,,,,,,,,,,,,,,,,1,,,,,,,,,,,,,,,,,,,,,space,7.2608,"[""9""]",1,[3.8780000000000427],0,0,0,23,1,,,,,,,,,,,,,,,,,,,,,,,,,,
,,,,,,,,,,,X V Q F H G B L J M P D K C T S W R N Z,5c51dd37c91d1100017760b8,37,Mężczyzna,2022-06-11_09h42.45.168,task,2021.1.4,Win32,39.94567388,6299f149e92ead563fba08ef,62a4474d3469b9eb83393fe9,,,,,,,,,,,,,,,,,,,,,,,,,,,,,,,,,,,,,,,,,,,,,,,,,,,,,,,,,,,,,,,,,,,,,,,,,,,,0,0,0,0,1,,,,,,,,,,,,,,,,,,,,,
,,,,,,,,,,,,5c51dd37c91d1100017760b8,37,Mężczyzna,2022-06-11_09h42.45.168,task,2021.1.4,Win32,39.94567388,6299f149e92ead563fba08ef,62a4474d3469b9eb83393fe9,,,,,,,,,,,,,1,,,,,,,,,,Task,34,(9/3) - 2,1,,,,,,,,,,,,,,,,,,,1,,,,,,,,,,,,,,,,,,,,,,,"[""1""]",1,[3.134400000000369],0,0,0,33,1,,,,,,,,,,,,,,,,,,,,,,,,,,
,,,,,,,,,,,X V Q F H G B L J M P D K C T S W R N Z,5c51dd37c91d1100017760b8,37,Mężczyzna,2022-06-11_09h42.45.168,task,2021.1.4,Win32,39.94567388,6299f149e92ead563fba08ef,62a4474d3469b9eb83393fe9,,,,,,,,,,,,,,,,,,,,,,,,,,,,,,,,,,,,,,,,,,,,,,,,,,,,,,,,,,,,,,,,,,,,,,,,,,,,1,0,1,0,1,,,,,,,,,,,,,,,,,,,,,
,,,,,,,,,,,,5c51dd37c91d1100017760b8,37,Mężczyzna,2022-06-11_09h42.45.168,task,2021.1.4,Win32,39.94567388,6299f149e92ead563fba08ef,62a4474d3469b9eb83393fe9,,,,,,,,,,,,,,,,,,,,,,,,,,,,,,,,,,,,,,,,,,,,,,,,,,,,,,,,,,,,,,,,,,,,,,,,,,,,,,,,,zl,"[""z"",""l""]",0,"[2.455600000001482,3.022100000001444,4.2234000000003675]",1,ZL,0,0,0,0,1,,,,,,,,,,
,,,,,,,,,,,,5c51dd37c91d1100017760b8,37,Mężczyzna,2022-06-11_09h42.45.168,task,2021.1.4,Win32,39.94567388,6299f149e92ead563fba08ef,62a4474d3469b9eb83393fe9,,,,,,,,,,,,,7,,,,,,,,,,Task,31,(4/2) + 5,7,,,,,,,,,,,,,,,,,,,1,,,,,,,,,,,,,,,,,,,,,,,"[""7""]",1,[4.787900000000377],0,0,0,30,1,,,,,,,,,,,,,,,,,,,,,,,,,,
,,,,,,,,,,,X V Q F H G B L J M P D K C T S W R N Z,5c51dd37c91d1100017760b8,37,Mężczyzna,2022-06-11_09h42.45.168,task,2021.1.4,Win32,39.94567388,6299f149e92ead563fba08ef,62a4474d3469b9eb83393fe9,,,,,,,,,,,,,,,,,,,,,,,,,,,,,,,,,,,,,,,,,,,,,,,,,,,,,,,,,,,,,,,,,,,,,,,,,,,,0,0,0,0,1,,,,,,,,,,,,,,,,,,,,,
,,,,,,,,,,,,5c51dd37c91d1100017760b8,37,Mężczyzna,2022-06-11_09h42.45.168,task,2021.1.4,Win32,39.94567388,6299f149e92ead563fba08ef,62a4474d3469b9eb83393fe9,,,,,,,,,,,,,8,,,,,,,,,,Task,15,(3x7) - 13,8,,,,,,,,,,,,,,,,,,,1,,,,,,,,,,,,,,,,,,,,,,,"[""8""]",1,[11.561000000000035],0,0,0,14,1,,,,,,,,,,,,,,,,,,,,,,,,,,
,,,,,,,,,,,X V Q F H G B L J M P D K C T S W R N Z,5c51dd37c91d1100017760b8,37,Mężczyzna,2022-06-11_09h42.45.168,task,2021.1.4,Win32,39.94567388,6299f149e92ead563fba08ef,62a4474d3469b9eb83393fe9,,,,,,,,,,,,,,,,,,,,,,,,,,,,,,,,,,,,,,,,,,,,,,,,,,,,,,,,,,,,,,,,,,,,,,,,,,,,1,0,1,0,1,,,,,,,,,,,,,,,,,,,,,
,,,,,,,,,,,,5c51dd37c91d1100017760b8,37,Mężczyzna,2022-06-11_09h42.45.168,task,2021.1.4,Win32,39.94567388,6299f149e92ead563fba08ef,62a4474d3469b9eb83393fe9,,,,,,,,,,,,,0,,,,,,,,,,Task,17,(2x3) - 6,0,,,,,,,,,,,,,,,,,,,1,,,,,,,,,,,,,,,,,,,,,,,"[""0""]",1,[2.8016000000014856],0,0,0,16,1,,,,,,,,,,,,,,,,,,,,,,,,,,
,,,,,,,,,,,X V Q F H G B L J M P D K C T S W R N Z,5c51dd37c91d1100017760b8,37,Mężczyzna,2022-06-11_09h42.45.168,task,2021.1.4,Win32,39.94567388,6299f149e92ead563fba08ef,62a4474d3469b9eb83393fe9,,,,,,,,,,,,,,,,,,,,,,,,,,,,,,,,,,,,,,,,,,,,,,,,,,,,,,,,,,,,,,,,,,,,,,,,,,,,2,0,2,0,1,,,,,,,,,,,,,,,,,,,,,
,,,,,,,,,,,,5c51dd37c91d1100017760b8,37,Mężczyzna,2022-06-11_09h42.45.168,task,2021.1.4,Win32,39.94567388,6299f149e92ead563fba08ef,62a4474d3469b9eb83393fe9,,,,,,,,,,,,,,,,,,,,,,,,,,,,,,,,,,,,,,,,,,,,,,,,,,,,,,,,,,,,,,,,,,,,,,,,,,,,,,,,,hl,"[""h"",""l""]",0,"[1.954499999999996,2.4032000000011067,2.9892000000011194]",0,KHL,1,0,1,0,1,,,,,,,,,,
,,,,,,,,,,,,5c51dd37c91d1100017760b8,37,Mężczyzna,2022-06-11_09h42.45.168,task,2021.1.4,Win32,39.94567388,6299f149e92ead563fba08ef,62a4474d3469b9eb83393fe9,,,,,,,,,,,,,4,,,,,,,,,,Task,4,(1x5) - 1,4,,,,,,,,,,,,,,,,,,,1,,,,,,,,,,,,,,,,,,,,,,,"[""4""]",1,[2.2673999999985313],0,0,0,3,1,,,,,,,,,,,,,,,,,,,,,,,,,,
,,,,,,,,,,,X V Q F H G B L J M P D K C T S W R N Z,5c51dd37c91d1100017760b8,37,Mężczyzna,2022-06-11_09h42.45.168,task,2021.1.4,Win32,39.94567388,6299f149e92ead563fba08ef,62a4474d3469b9eb83393fe9,,,,,,,,,,,,,,,,,,,,,,,,,,,,,,,,,,,,,,,,,,,,,,,,,,,,,,,,,,,,,,,,,,,,,,,,,,,,0,0,0,0,1,,,,,,,,,,,,,,,,,,,,,
,,,,,,,,,,,,5c51dd37c91d1100017760b8,37,Mężczyzna,2022-06-11_09h42.45.168,task,2021.1.4,Win32,39.94567388,6299f149e92ead563fba08ef,62a4474d3469b9eb83393fe9,,,,,,,,,,,,,4,,,,,,,,,,Task,4,(1x5) - 1,4,,,,,,,,,,,,,,,,,,,1,,,,,,,,,,,,,,,,,,,,,,,"[""4""]",1,[3.801499999999976],0,0,0,3,1,,,,,,,,,,,,,,,,,,,,,,,,,,
,,,,,,,,,,,X V Q F H G B L J M P D K C T S W R N Z,5c51dd37c91d1100017760b8,37,Mężczyzna,2022-06-11_09h42.45.168,task,2021.1.4,Win32,39.94567388,6299f149e92ead563fba08ef,62a4474d3469b9eb83393fe9,,,,,,,,,,,,,,,,,,,,,,,,,,,,,,,,,,,,,,,,,,,,,,,,,,,,,,,,,,,,,,,,,,,,,,,,,,,,1,0,1,0,1,,,,,,,,,,,,,,,,,,,,,
,,,,,,,,,,,,5c51dd37c91d1100017760b8,37,Mężczyzna,2022-06-11_09h42.45.168,task,2021.1.4,Win32,39.94567388,6299f149e92ead563fba08ef,62a4474d3469b9eb83393fe9,,,,,,,,,,,,,2,,,,,,,,,,Task,19,(6/2) - 1,2,,,,,,,,,,,,,,,,,,,1,,,,,,,,,,,,,,,,,,,,,,,"[""2""]",1,[4.305599999999629],0,0,0,18,1,,,,,,,,,,,,,,,,,,,,,,,,,,
,,,,,,,,,,,X V Q F H G B L J M P D K C T S W R N Z,5c51dd37c91d1100017760b8,37,Mężczyzna,2022-06-11_09h42.45.168,task,2021.1.4,Win32,39.94567388,6299f149e92ead563fba08ef,62a4474d3469b9eb83393fe9,,,,,,,,,,,,,,,,,,,,,,,,,,,,,,,,,,,,,,,,,,,,,,,,,,,,,,,,,,,,,,,,,,,,,,,,,,,,2,0,2,0,1,,,,,,,,,,,,,,,,,,,,,
,,,,,,,,,,,,5c51dd37c91d1100017760b8,37,Mężczyzna,2022-06-11_09h42.45.168,task,2021.1.4,Win32,39.94567388,6299f149e92ead563fba08ef,62a4474d3469b9eb83393fe9,,,,,,,,,,,,,,,,,,,,,,,,,,,,,,,,,,,,,,,,,,,,,,,,,,,,,,,,,,,,,,,,,,,,,,,,,,,,,,,,,lcr,"[""l"",""c"",""r""]",0,"[2.1221999999992818,2.622099999999648,3.123099999999738,3.723199999999281]",1,LCR,2,0,2,0,1,,,,,,,,,,
,,,,,,,,,,,,5c51dd37c91d1100017760b8,37,Mężczyzna,2022-06-11_09h42.45.168,task,2021.1.4,Win32,39.94567388,6299f149e92ead563fba08ef,62a4474d3469b9eb83393fe9,,,,,,,,,,,,,0,,,,,,,,,,Task,8,(1x5) - 5,0,,,,,,,,,,,,,,,,,,,1,,,,,,,,,,,,,,,,,,,,,,,"[""0""]",1,[1.7969999999999118],0,0,0,7,1,,,,,,,,,,,,,,,,,,,,,,,,,,
,,,,,,,,,,,X V Q F H G B L J M P D K C T S W R N Z,5c51dd37c91d1100017760b8,37,Mężczyzna,2022-06-11_09h42.45.168,task,2021.1.4,Win32,39.94567388,6299f149e92ead563fba08ef,62a4474d3469b9eb83393fe9,,,,,,,,,,,,,,,,,,,,,,,,,,,,,,,,,,,,,,,,,,,,,,,,,,,,,,,,,,,,,,,,,,,,,,,,,,,,0,0,0,0,1,,,,,,,,,,,,,,,,,,,,,
,,,,,,,,,,,,5c51dd37c91d1100017760b8,37,Mężczyzna,2022-06-11_09h42.45.168,task,2021.1.4,Win32,39.94567388,6299f149e92ead563fba08ef,62a4474d3469b9eb83393fe9,,,,,,,,,,,,,8,,,,,,,,,,Task,15,(3x7) - 13,8,,,,,,,,,,,,,,,,,,,1,,,,,,,,,,,,,,,,,,,,,,,"[""8""]",1,[4.8700000000000045],0,0,0,14,1,,,,,,,,,,,,,,,,,,,,,,,,,,
,,,,,,,,,,,X V Q F H G B L J M P D K C T S W R N Z,5c51dd37c91d1100017760b8,37,Mężczyzna,2022-06-11_09h42.45.168,task,2021.1.4,Win32,39.94567388,6299f149e92ead563fba08ef,62a4474d3469b9eb83393fe9,,,,,,,,,,,,,,,,,,,,,,,,,,,,,,,,,,,,,,,,,,,,,,,,,,,,,,,,,,,,,,,,,,,,,,,,,,,,1,0,1,0,1,,,,,,,,,,,,,,,,,,,,,
,,,,,,,,,,,,5c51dd37c91d1100017760b8,37,Mężczyzna,2022-06-11_09h42.45.168,task,2021.1.4,Win32,39.94567388,6299f149e92ead563fba08ef,62a4474d3469b9eb83393fe9,,,,,,,,,,,,,5,,,,,,,,,,Task,12,(4x4) - 11,5,,,,,,,,,,,,,,,,,,,1,,,,,,,,,,,,,,,,,,,,,,,"[""5""]",1,[9.70659999999964],0,0,0,11,1,,,,,,,,,,,,,,,,,,,,,,,,,,
,,,,,,,,,,,X V Q F H G B L J M P D K C T S W R N Z,5c51dd37c91d1100017760b8,37,Mężczyzna,2022-06-11_09h42.45.168,task,2021.1.4,Win32,39.94567388,6299f149e92ead563fba08ef,62a4474d3469b9eb83393fe9,,,,,,,,,,,,,,,,,,,,,,,,,,,,,,,,,,,,,,,,,,,,,,,,,,,,,,,,,,,,,,,,,,,,,,,,,,,,2,0,2,0,1,,,,,,,,,,,,,,,,,,,,,
,,,,,,,,,,,,5c51dd37c91d1100017760b8,37,Mężczyzna,2022-06-11_09h42.45.168,task,2021.1.4,Win32,39.94567388,6299f149e92ead563fba08ef,62a4474d3469b9eb83393fe9,,,,,,,,,,,,,3,,,,,,,,,,Task,27,(3/3) + 2,3,,,,,,,,,,,,,,,,,,,1,,,,,,,,,,,,,,,,,,,,,,,"[""3""]",1,[4.7229000000003225],0,0,0,26,1,,,,,,,,,,,,,,,,,,,,,,,,,,
,,,,,,,,,,,X V Q F H G B L J M P D K C T S W R N Z,5c51dd37c91d1100017760b8,37,Mężczyzna,2022-06-11_09h42.45.168,task,2021.1.4,Win32,39.94567388,6299f149e92ead563fba08ef,62a4474d3469b9eb83393fe9,,,,,,,,,,,,,,,,,,,,,,,,,,,,,,,,,,,,,,,,,,,,,,,,,,,,,,,,,,,,,,,,,,,,,,,,,,,,3,0,3,0,1,,,,,,,,,,,,,,,,,,,,,
,,,,,,,,,,,,5c51dd37c91d1100017760b8,37,Mężczyzna,2022-06-11_09h42.45.168,task,2021.1.4,Win32,39.94567388,6299f149e92ead563fba08ef,62a4474d3469b9eb83393fe9,,,,,,,,,,,,,,,,,,,,,,,,,,,,,,,,,,,,,,,,,,,,,,,,,,,,,,,,,,,,,,,,,,,,,,,,,,,,,,,,,xxzr,"[""x"",""x"",""z"",""r""]",0,"[2.4209999999999354,2.923799999998778,3.524799999998777,4.191599999999539,5.2597999999987906]",1,XXZR,3,0,3,0,1,,,,,,,,,,
,,,,,,,,,,,,5c51dd37c91d1100017760b8,37,Mężczyzna,2022-06-11_09h42.45.168,task,2021.1.4,Win32,39.94567388,6299f149e92ead563fba08ef,62a4474d3469b9eb83393fe9,,,,,,,,,,,,,0,,,,,,,,,,Task,8,(1x5) - 5,0,,,,,,,,,,,,,,,,,,,1,,,,,,,,,,,,,,,,,,,,,,,"[""0""]",1,[2.281599999999571],0,0,0,7,1,,,,,,,,,,,,,,,,,,,,,,,,,,
,,,,,,,,,,,X V Q F H G B L J M P D K C T S W R N Z,5c51dd37c91d1100017760b8,37,Mężczyzna,2022-06-11_09h42.45.168,task,2021.1.4,Win32,39.94567388,6299f149e92ead563fba08ef,62a4474d3469b9eb83393fe9,,,,,,,,,,,,,,,,,,,,,,,,,,,,,,,,,,,,,,,,,,,,,,,,,,,,,,,,,,,,,,,,,,,,,,,,,,,,0,0,0,0,1,,,,,,,,,,,,,,,,,,,,,
,,,,,,,,,,,,5c51dd37c91d1100017760b8,37,Mężczyzna,2022-06-11_09h42.45.168,task,2021.1.4,Win32,39.94567388,6299f149e92ead563fba08ef,62a4474d3469b9eb83393fe9,,,,,,,,,,,,,9,,,,,,,,,,Task,40,(7x2) - 5,9,,,,,,,,,,,,,,,,,,,1,,,,,,,,,,,,,,,,,,,,,,,"[""9""]",1,[3.2712000000011585],0,0,0,39,1,,,,,,,,,,,,,,,,,,,,,,,,,,
,,,,,,,,,,,X V Q F H G B L J M P D K C T S W R N Z,5c51dd37c91d1100017760b8,37,Mężczyzna,2022-06-11_09h42.45.168,task,2021.1.4,Win32,39.94567388,6299f149e92ead563fba08ef,62a4474d3469b9eb83393fe9,,,,,,,,,,,,,,,,,,,,,,,,,,,,,,,,,,,,,,,,,,,,,,,,,,,,,,,,,,,,,,,,,,,,,,,,,,,,1,0,1,0,1,,,,,,,,,,,,,,,,,,,,,
,,,,,,,,,,,,5c51dd37c91d1100017760b8,37,Mężczyzna,2022-06-11_09h42.45.168,task,2021.1.4,Win32,39.94567388,6299f149e92ead563fba08ef,62a4474d3469b9eb83393fe9,,,,,,,,,,,,,1,,,,,,,,,,Task,1,(12/6) - 1,1,,,,,,,,,,,,,,,,,,,1,,,,,,,,,,,,,,,,,,,,,,,"[""1""]",1,[6.124400000000378],0,0,0,0,1,,,,,,,,,,,,,,,,,,,,,,,,,,
,,,,,,,,,,,X V Q F H G B L J M P D K C T S W R N Z,5c51dd37c91d1100017760b8,37,Mężczyzna,2022-06-11_09h42.45.168,task,2021.1.4,Win32,39.94567388,6299f149e92ead563fba08ef,62a4474d3469b9eb83393fe9,,,,,,,,,,,,,,,,,,,,,,,,,,,,,,,,,,,,,,,,,,,,,,,,,,,,,,,,,,,,,,,,,,,,,,,,,,,,2,0,2,0,1,,,,,,,,,,,,,,,,,,,,,
,,,,,,,,,,,,5c51dd37c91d1100017760b8,37,Mężczyzna,2022-06-11_09h42.45.168,task,2021.1.4,Win32,39.94567388,6299f149e92ead563fba08ef,62a4474d3469b9eb83393fe9,,,,,,,,,,,,,2,,,,,,,,,,Task,19,(6/2) - 1,2,,,,,,,,,,,,,,,,,,,1,,,,,,,,,,,,,,,,,,,,,,,"[""2""]",1,[8.275599999999713],0,0,0,18,1,,,,,,,,,,,,,,,,,,,,,,,,,,
,,,,,,,,,,,X V Q F H G B L J M P D K C T S W R N Z,5c51dd37c91d1100017760b8,37,Mężczyzna,2022-06-11_09h42.45.168,task,2021.1.4,Win32,39.94567388,6299f149e92ead563fba08ef,62a4474d3469b9eb83393fe9,,,,,,,,,,,,,,,,,,,,,,,,,,,,,,,,,,,,,,,,,,,,,,,,,,,,,,,,,,,,,,,,,,,,,,,,,,,,3,0,3,0,1,,,,,,,,,,,,,,,,,,,,,
,,,,,,,,,,,,5c51dd37c91d1100017760b8,37,Mężczyzna,2022-06-11_09h42.45.168,task,2021.1.4,Win32,39.94567388,6299f149e92ead563fba08ef,62a4474d3469b9eb83393fe9,,,,,,,,,,,,,4,,,,,,,,,,Task,21,(10/2) - 1,4,,,,,,,,,,,,,,,,,,,1,,,,,,,,,,,,,,,,,,,,,,,"[""4""]",1,[6.090300000000639],0,0,0,20,1,,,,,,,,,,,,,,,,,,,,,,,,,,
,,,,,,,,,,,X V Q F H G B L J M P D K C T S W R N Z,5c51dd37c91d1100017760b8,37,Mężczyzna,2022-06-11_09h42.45.168,task,2021.1.4,Win32,39.94567388,6299f149e92ead563fba08ef,62a4474d3469b9eb83393fe9,,,,,,,,,,,,,,,,,,,,,,,,,,,,,,,,,,,,,,,,,,,,,,,,,,,,,,,,,,,,,,,,,,,,,,,,,,,,4,0,4,0,1,,,,,,,,,,,,,,,,,,,,,
,,,,,,,,,,,,5c51dd37c91d1100017760b8,37,Mężczyzna,2022-06-11_09h42.45.168,task,2021.1.4,Win32,39.94567388,6299f149e92ead563fba08ef,62a4474d3469b9eb83393fe9,,,,,,,,,,,,,,,,,,,,,,,,,,,,,,,,,,,,,,,,,,,,,,,,,,,,,,,,,,,,,,,,,,,,,,,,,,,,,,,,,zcjst,"[""z"",""c"",""j"",""s"",""t""]",0,"[2.7229000000003225,3.3899000000003525,3.923999999999978,4.690499999999929,5.224200000001019,6.660099999999602]",1,ZCJST,4,0,4,0,1,,,,,,,,,,
,,,,,,,,,,,,5c51dd37c91d1100017760b8,37,Mężczyzna,2022-06-11_09h42.45.168,task,2021.1.4,Win32,39.94567388,6299f149e92ead563fba08ef,62a4474d3469b9eb83393fe9,,,,,,,,,,,,,6,,,,,,,,,,Task,13,(3x4) - 6,6,,,,,,,,,,,,,,,,,,,1,,,,,,,,,,,,,,,,,,,,,,,"[""6""]",1,[3.336999999999989],0,0,0,12,1,,,,,,,,,,,,,,,,,,,,,,,,,,
,,,,,,,,,,,X V Q F H G B L J M P D K C T S W R N Z,5c51dd37c91d1100017760b8,37,Mężczyzna,2022-06-11_09h42.45.168,task,2021.1.4,Win32,39.94567388,6299f149e92ead563fba08ef,62a4474d3469b9eb83393fe9,,,,,,,,,,,,,,,,,,,,,,,,,,,,,,,,,,,,,,,,,,,,,,,,,,,,,,,,,,,,,,,,,,,,,,,,,,,,0,0,0,0,1,,,,,,,,,,,,,,,,,,,,,
,,,,,,,,,,,,5c51dd37c91d1100017760b8,37,Mężczyzna,2022-06-11_09h42.45.168,task,2021.1.4,Win32,39.94567388,6299f149e92ead563fba08ef,62a4474d3469b9eb83393fe9,,,,,,,,,,,,,8,,,,,,,,,,Task,39,(5x3) - 7,8,,,,,,,,,,,,,,,,,,,1,,,,,,,,,,,,,,,,,,,,,,,"[""8""]",1,[6.170999999999935],0,0,0,38,1,,,,,,,,,,,,,,,,,,,,,,,,,,
,,,,,,,,,,,X V Q F H G B L J M P D K C T S W R N Z,5c51dd37c91d1100017760b8,37,Mężczyzna,2022-06-11_09h42.45.168,task,2021.1.4,Win32,39.94567388,6299f149e92ead563fba08ef,62a4474d3469b9eb83393fe9,,,,,,,,,,,,,,,,,,,,,,,,,,,,,,,,,,,,,,,,,,,,,,,,,,,,,,,,,,,,,,,,,,,,,,,,,,,,1,0,1,0,1,,,,,,,,,,,,,,,,,,,,,
,,,,,,,,,,,,5c51dd37c91d1100017760b8,37,Mężczyzna,2022-06-11_09h42.45.168,task,2021.1.4,Win32,39.94567388,6299f149e92ead563fba08ef,62a4474d3469b9eb83393fe9,,,,,,,,,,,,,4,,,,,,,,,,Task,11,(18/3) - 2,4,,,,,,,,,,,,,,,,,,,1,,,,,,,,,,,,,,,,,,,,,,,"[""4""]",1,[8.072599999999625],0,0,0,10,1,,,,,,,,,,,,,,,,,,,,,,,,,,
,,,,,,,,,,,X V Q F H G B L J M P D K C T S W R N Z,5c51dd37c91d1100017760b8,37,Mężczyzna,2022-06-11_09h42.45.168,task,2021.1.4,Win32,39.94567388,6299f149e92ead563fba08ef,62a4474d3469b9eb83393fe9,,,,,,,,,,,,,,,,,,,,,,,,,,,,,,,,,,,,,,,,,,,,,,,,,,,,,,,,,,,,,,,,,,,,,,,,,,,,2,0,2,0,1,,,,,,,,,,,,,,,,,,,,,
,,,,,,,,,,,,5c51dd37c91d1100017760b8,37,Mężczyzna,2022-06-11_09h42.45.168,task,2021.1.4,Win32,39.94567388,6299f149e92ead563fba08ef,62a4474d3469b9eb83393fe9,,,,,,,,,,,,,5,,,,,,,,,,Task,29,(3x8) - 19 ,5,,,,,,,,,,,,,,,,,,,1,,,,,,,,,,,,,,,,,,,,,,,"[""5""]",1,[8.190100000001394],0,0,0,28,1,,,,,,,,,,,,,,,,,,,,,,,,,,
,,,,,,,,,,,X V Q F H G B L J M P D K C T S W R N Z,5c51dd37c91d1100017760b8,37,Mężczyzna,2022-06-11_09h42.45.168,task,2021.1.4,Win32,39.94567388,6299f149e92ead563fba08ef,62a4474d3469b9eb83393fe9,,,,,,,,,,,,,,,,,,,,,,,,,,,,,,,,,,,,,,,,,,,,,,,,,,,,,,,,,,,,,,,,,,,,,,,,,,,,3,0,3,0,1,,,,,,,,,,,,,,,,,,,,,
,,,,,,,,,,,,5c51dd37c91d1100017760b8,37,Mężczyzna,2022-06-11_09h42.45.168,task,2021.1.4,Win32,39.94567388,6299f149e92ead563fba08ef,62a4474d3469b9eb83393fe9,,,,,,,,,,,,,3,,,,,,,,,,Task,20,(18/9) + 1,3,,,,,,,,,,,,,,,,,,,1,,,,,,,,,,,,,,,,,,,,,,,"[""3""]",1,[5.219700000001126],0,0,0,19,1,,,,,,,,,,,,,,,,,,,,,,,,,,
,,,,,,,,,,,X V Q F H G B L J M P D K C T S W R N Z,5c51dd37c91d1100017760b8,37,Mężczyzna,2022-06-11_09h42.45.168,task,2021.1.4,Win32,39.94567388,6299f149e92ead563fba08ef,62a4474d3469b9eb83393fe9,,,,,,,,,,,,,,,,,,,,,,,,,,,,,,,,,,,,,,,,,,,,,,,,,,,,,,,,,,,,,,,,,,,,,,,,,,,,4,0,4,0,1,,,,,,,,,,,,,,,,,,,,,
,,,,,,,,,,,,5c51dd37c91d1100017760b8,37,Mężczyzna,2022-06-11_09h42.45.168,task,2021.1.4,Win32,39.94567388,6299f149e92ead563fba08ef,62a4474d3469b9eb83393fe9,,,,,,,,,,,,,8,,,,,,,,,,Task,15,(3x7) - 13,8,,,,,,,,,,,,,,,,,,,1,,,,,,,,,,,,,,,,,,,,,,,"[""8""]",1,[10.289200000001074],0,0,0,14,1,,,,,,,,,,,,,,,,,,,,,,,,,,
,,,,,,,,,,,X V Q F H G B L J M P D K C T S W R N Z,5c51dd37c91d1100017760b8,37,Mężczyzna,2022-06-11_09h42.45.168,task,2021.1.4,Win32,39.94567388,6299f149e92ead563fba08ef,62a4474d3469b9eb83393fe9,,,,,,,,,,,,,,,,,,,,,,,,,,,,,,,,,,,,,,,,,,,,,,,,,,,,,,,,,,,,,,,,,,,,,,,,,,,,5,0,5,0,1,,,,,,,,,,,,,,,,,,,,,
,,,,,,,,,,,,5c51dd37c91d1100017760b8,37,Mężczyzna,2022-06-11_09h42.45.168,task,2021.1.4,Win32,39.94567388,6299f149e92ead563fba08ef,62a4474d3469b9eb83393fe9,,,,,,,,,,,,,,,,,,,,,,,,,,,,,,,,,,,,,,,,,,,,,,,,,,,,,,,,,,,,,,,,,,,,,,,,,,,,,,,,,dfwzlq,"[""d"",""f"",""w"",""z"",""l"",""q""]",0,"[4.590799999998808,5.191900000000373,5.739400000000387,6.392900000000395,6.992900000000304,7.726299999998901,8.62719999999922]",1,DFWZLQ,5,0,5,0,1,,,,,,,,,,
,,,,,,,,,,,,5c51dd37c91d1100017760b8,37,Mężczyzna,2022-06-11_09h42.45.168,task,2021.1.4,Win32,39.94567388,6299f149e92ead563fba08ef,62a4474d3469b9eb83393fe9,,,,,,,,,,,,,4,,,,,,,,,,Task,28,(2x5) - 6,4,,,,,,,,,,,,,,,,,,,1,,,,,,,,,,,,,,,,,,,,,,,"[""4""]",1,[2.986699999999246],0,0,0,27,1,,,,,,,,,,,,,,,,,,,,,,,,,,
,,,,,,,,,,,X V Q F H G B L J M P D K C T S W R N Z,5c51dd37c91d1100017760b8,37,Mężczyzna,2022-06-11_09h42.45.168,task,2021.1.4,Win32,39.94567388,6299f149e92ead563fba08ef,62a4474d3469b9eb83393fe9,,,,,,,,,,,,,,,,,,,,,,,,,,,,,,,,,,,,,,,,,,,,,,,,,,,,,,,,,,,,,,,,,,,,,,,,,,,,0,0,0,0,1,,,,,,,,,,,,,,,,,,,,,
,,,,,,,,,,,,5c51dd37c91d1100017760b8,37,Mężczyzna,2022-06-11_09h42.45.168,task,2021.1.4,Win32,39.94567388,6299f149e92ead563fba08ef,62a4474d3469b9eb83393fe9,,,,,,,,,,,,,5,,,,,,,,,,Task,29,(3x8) - 19 ,5,,,,,,,,,,,,,,,,,,,1,,,,,,,,,,,,,,,,,,,,,,,"[""5""]",1,[11.476700000001074],0,0,0,28,1,,,,,,,,,,,,,,,,,,,,,,,,,,
,,,,,,,,,,,X V Q F H G B L J M P D K C T S W R N Z,5c51dd37c91d1100017760b8,37,Mężczyzna,2022-06-11_09h42.45.168,task,2021.1.4,Win32,39.94567388,6299f149e92ead563fba08ef,62a4474d3469b9eb83393fe9,,,,,,,,,,,,,,,,,,,,,,,,,,,,,,,,,,,,,,,,,,,,,,,,,,,,,,,,,,,,,,,,,,,,,,,,,,,,1,0,1,0,1,,,,,,,,,,,,,,,,,,,,,
,,,,,,,,,,,,5c51dd37c91d1100017760b8,37,Mężczyzna,2022-06-11_09h42.45.168,task,2021.1.4,Win32,39.94567388,6299f149e92ead563fba08ef,62a4474d3469b9eb83393fe9,,,,,,,,,,,,,3,,,,,,,,,,Task,35,(1x2) + 1,3,,,,,,,,,,,,,,,,,,,1,,,,,,,,,,,,,,,,,,,,,,,"[""3""]",1,[5.672800000000734],0,0,0,34,1,,,,,,,,,,,,,,,,,,,,,,,,,,
,,,,,,,,,,,X V Q F H G B L J M P D K C T S W R N Z,5c51dd37c91d1100017760b8,37,Mężczyzna,2022-06-11_09h42.45.168,task,2021.1.4,Win32,39.94567388,6299f149e92ead563fba08ef,62a4474d3469b9eb83393fe9,,,,,,,,,,,,,,,,,,,,,,,,,,,,,,,,,,,,,,,,,,,,,,,,,,,,,,,,,,,,,,,,,,,,,,,,,,,,2,0,2,0,1,,,,,,,,,,,,,,,,,,,,,
,,,,,,,,,,,,5c51dd37c91d1100017760b8,37,Mężczyzna,2022-06-11_09h42.45.168,task,2021.1.4,Win32,39.94567388,6299f149e92ead563fba08ef,62a4474d3469b9eb83393fe9,,,,,,,,,,,,,4,,,,,,,,,,Task,11,(18/3) - 2,4,,,,,,,,,,,,,,,,,,,1,,,,,,,,,,,,,,,,,,,,,,,"[""4""]",1,[5.856999999999971],0,0,0,10,1,,,,,,,,,,,,,,,,,,,,,,,,,,
,,,,,,,,,,,X V Q F H G B L J M P D K C T S W R N Z,5c51dd37c91d1100017760b8,37,Mężczyzna,2022-06-11_09h42.45.168,task,2021.1.4,Win32,39.94567388,6299f149e92ead563fba08ef,62a4474d3469b9eb83393fe9,,,,,,,,,,,,,,,,,,,,,,,,,,,,,,,,,,,,,,,,,,,,,,,,,,,,,,,,,,,,,,,,,,,,,,,,,,,,3,0,3,0,1,,,,,,,,,,,,,,,,,,,,,
,,,,,,,,,,,,5c51dd37c91d1100017760b8,37,Mężczyzna,2022-06-11_09h42.45.168,task,2021.1.4,Win32,39.94567388,6299f149e92ead563fba08ef,62a4474d3469b9eb83393fe9,,,,,,,,,,,,,0,,,,,,,,,,Task,25,(10/5) - 2,0,,,,,,,,,,,,,,,,,,,1,,,,,,,,,,,,,,,,,,,,,,,"[""0""]",1,[12.341999999999985],0,0,0,24,1,,,,,,,,,,,,,,,,,,,,,,,,,,
,,,,,,,,,,,X V Q F H G B L J M P D K C T S W R N Z,5c51dd37c91d1100017760b8,37,Mężczyzna,2022-06-11_09h42.45.168,task,2021.1.4,Win32,39.94567388,6299f149e92ead563fba08ef,62a4474d3469b9eb83393fe9,,,,,,,,,,,,,,,,,,,,,,,,,,,,,,,,,,,,,,,,,,,,,,,,,,,,,,,,,,,,,,,,,,,,,,,,,,,,4,0,4,0,1,,,,,,,,,,,,,,,,,,,,,
,,,,,,,,,,,,5c51dd37c91d1100017760b8,37,Mężczyzna,2022-06-11_09h42.45.168,task,2021.1.4,Win32,39.94567388,6299f149e92ead563fba08ef,62a4474d3469b9eb83393fe9,,,,,,,,,,,,,0,,,,,,,,,,Task,17,(2x3) - 6,0,,,,,,,,,,,,,,,,,,,1,,,,,,,,,,,,,,,,,,,,,,,"[""0""]",1,[4.619199999999182],0,0,0,16,1,,,,,,,,,,,,,,,,,,,,,,,,,,
,,,,,,,,,,,X V Q F H G B L J M P D K C T S W R N Z,5c51dd37c91d1100017760b8,37,Mężczyzna,2022-06-11_09h42.45.168,task,2021.1.4,Win32,39.94567388,6299f149e92ead563fba08ef,62a4474d3469b9eb83393fe9,,,,,,,,,,,,,,,,,,,,,,,,,,,,,,,,,,,,,,,,,,,,,,,,,,,,,,,,,,,,,,,,,,,,,,,,,,,,5,0,5,0,1,,,,,,,,,,,,,,,,,,,,,
,,,,,,,,,,,,5c51dd37c91d1100017760b8,37,Mężczyzna,2022-06-11_09h42.45.168,task,2021.1.4,Win32,39.94567388,6299f149e92ead563fba08ef,62a4474d3469b9eb83393fe9,,,,,,,,,,,,,5,,,,,,,,,,Task,22,(3x1) + 2,5,,,,,,,,,,,,,,,,,,,1,,,,,,,,,,,,,,,,,,,,,,,"[""5""]",1,[8.739600000001474],0,0,0,21,1,,,,,,,,,,,,,,,,,,,,,,,,,,
,,,,,,,,,,,X V Q F H G B L J M P D K C T S W R N Z,5c51dd37c91d1100017760b8,37,Mężczyzna,2022-06-11_09h42.45.168,task,2021.1.4,Win32,39.94567388,6299f149e92ead563fba08ef,62a4474d3469b9eb83393fe9,,,,,,,,,,,,,,,,,,,,,,,,,,,,,,,,,,,,,,,,,,,,,,,,,,,,,,,,,,,,,,,,,,,,,,,,,,,,6,0,6,0,1,,,,,,,,,,,,,,,,,,,,,
,,,,,,,,,,,,5c51dd37c91d1100017760b8,37,Mężczyzna,2022-06-11_09h42.45.168,task,2021.1.4,Win32,39.94567388,6299f149e92ead563fba08ef,62a4474d3469b9eb83393fe9,,,,,,,,,,,,,,,,,,,,,,,,,,,,,,,,,,,,,,,,,,,,,,,,,,,,,,,,,,,,,,,,,,,,,,,,,,,,,,,,,qgddtrh,"[""q"",""g"",""d"",""d"",""t"",""r"",""h""]",0,"[4.457299999998895,5.658299999998917,6.65949999999998,7.460399999998458,8.594599999999673,9.027599999999666,10.495099999999638,11.797699999999281]",1,QGDDTRH,6,0,6,0,1,,,,,,,,,,
,,,,,,,,,,,,5c51dd37c91d1100017760b8,37,Mężczyzna,2022-06-11_09h42.45.168,task,2021.1.4,Win32,39.94567388,6299f149e92ead563fba08ef,62a4474d3469b9eb83393fe9,,,,,,,,,,,,,6,,,,,,,,,,Task,13,(3x4) - 6,6,,,,,,,,,,,,,,,,,,,1,,,,,,,,,,,,,,,,,,,,,,,"[""6""]",1,[3.0692000000011603],0,0,0,12,1,,,,,,,,,,,,,,,,,,,,,,,,,,
,,,,,,,,,,,X V Q F H G B L J M P D K C T S W R N Z,5c51dd37c91d1100017760b8,37,Mężczyzna,2022-06-11_09h42.45.168,task,2021.1.4,Win32,39.94567388,6299f149e92ead563fba08ef,62a4474d3469b9eb83393fe9,,,,,,,,,,,,,,,,,,,,,,,,,,,,,,,,,,,,,,,,,,,,,,,,,,,,,,,,,,,,,,,,,,,,,,,,,,,,0,0,0,0,1,,,,,,,,,,,,,,,,,,,,,
,,,,,,,,,,,,5c51dd37c91d1100017760b8,37,Mężczyzna,2022-06-11_09h42.45.168,task,2021.1.4,Win32,39.94567388,6299f149e92ead563fba08ef,62a4474d3469b9eb83393fe9,,,,,,,,,,,,,9,,,,,,,,,,Task,40,(7x2) - 5,9,,,,,,,,,,,,,,,,,,,1,,,,,,,,,,,,,,,,,,,,,,,"[""9""]",1,[2.6012999999989006],0,0,0,39,1,,,,,,,,,,,,,,,,,,,,,,,,,,
,,,,,,,,,,,X V Q F H G B L J M P D K C T S W R N Z,5c51dd37c91d1100017760b8,37,Mężczyzna,2022-06-11_09h42.45.168,task,2021.1.4,Win32,39.94567388,6299f149e92ead563fba08ef,62a4474d3469b9eb83393fe9,,,,,,,,,,,,,,,,,,,,,,,,,,,,,,,,,,,,,,,,,,,,,,,,,,,,,,,,,,,,,,,,,,,,,,,,,,,,1,0,1,0,1,,,,,,,,,,,,,,,,,,,,,
,,,,,,,,,,,,5c51dd37c91d1100017760b8,37,Mężczyzna,2022-06-11_09h42.45.168,task,2021.1.4,Win32,39.94567388,6299f149e92ead563fba08ef,62a4474d3469b9eb83393fe9,,,,,,,,,,,,,2,,,,,,,,,,Task,19,(6/2) - 1,2,,,,,,,,,,,,,,,,,,,1,,,,,,,,,,,,,,,,,,,,,,,"[""2""]",1,[5.703700000001049],0,0,0,18,1,,,,,,,,,,,,,,,,,,,,,,,,,,
,,,,,,,,,,,X V Q F H G B L J M P D K C T S W R N Z,5c51dd37c91d1100017760b8,37,Mężczyzna,2022-06-11_09h42.45.168,task,2021.1.4,Win32,39.94567388,6299f149e92ead563fba08ef,62a4474d3469b9eb83393fe9,,,,,,,,,,,,,,,,,,,,,,,,,,,,,,,,,,,,,,,,,,,,,,,,,,,,,,,,,,,,,,,,,,,,,,,,,,,,2,0,2,0,1,,,,,,,,,,,,,,,,,,,,,
,,,,,,,,,,,,5c51dd37c91d1100017760b8,37,Mężczyzna,2022-06-11_09h42.45.168,task,2021.1.4,Win32,39.94567388,6299f149e92ead563fba08ef,62a4474d3469b9eb83393fe9,,,,,,,,,,,,,4,,,,,,,,,,Task,28,(2x5) - 6,4,,,,,,,,,,,,,,,,,,,1,,,,,,,,,,,,,,,,,,,,,,,"[""4""]",1,[3.9715999999996257],0,0,0,27,1,,,,,,,,,,,,,,,,,,,,,,,,,,
,,,,,,,,,,,X V Q F H G B L J M P D K C T S W R N Z,5c51dd37c91d1100017760b8,37,Mężczyzna,2022-06-11_09h42.45.168,task,2021.1.4,Win32,39.94567388,6299f149e92ead563fba08ef,62a4474d3469b9eb83393fe9,,,,,,,,,,,,,,,,,,,,,,,,,,,,,,,,,,,,,,,,,,,,,,,,,,,,,,,,,,,,,,,,,,,,,,,,,,,,3,0,3,0,1,,,,,,,,,,,,,,,,,,,,,
,,,,,,,,,,,,5c51dd37c91d1100017760b8,37,Mężczyzna,2022-06-11_09h42.45.168,task,2021.1.4,Win32,39.94567388,6299f149e92ead563fba08ef,62a4474d3469b9eb83393fe9,,,,,,,,,,,,,6,,,,,,,,,,Task,37,(3/3) + 5,6,,,,,,,,,,,,,,,,,,,1,,,,,,,,,,,,,,,,,,,,,,,"[""6""]",1,[7.774000000000001],0,0,0,36,1,,,,,,,,,,,,,,,,,,,,,,,,,,
,,,,,,,,,,,X V Q F H G B L J M P D K C T S W R N Z,5c51dd37c91d1100017760b8,37,Mężczyzna,2022-06-11_09h42.45.168,task,2021.1.4,Win32,39.94567388,6299f149e92ead563fba08ef,62a4474d3469b9eb83393fe9,,,,,,,,,,,,,,,,,,,,,,,,,,,,,,,,,,,,,,,,,,,,,,,,,,,,,,,,,,,,,,,,,,,,,,,,,,,,4,0,4,0,1,,,,,,,,,,,,,,,,,,,,,
,,,,,,,,,,,,5c51dd37c91d1100017760b8,37,Mężczyzna,2022-06-11_09h42.45.168,task,2021.1.4,Win32,39.94567388,6299f149e92ead563fba08ef,62a4474d3469b9eb83393fe9,,,,,,,,,,,,,6,,,,,,,,,,Task,13,(3x4) - 6,6,,,,,,,,,,,,,,,,,,,1,,,,,,,,,,,,,,,,,,,,,,,"[""6""]",1,[17.26769999999931],0,0,0,12,1,,,,,,,,,,,,,,,,,,,,,,,,,,
,,,,,,,,,,,X V Q F H G B L J M P D K C T S W R N Z,5c51dd37c91d1100017760b8,37,Mężczyzna,2022-06-11_09h42.45.168,task,2021.1.4,Win32,39.94567388,6299f149e92ead563fba08ef,62a4474d3469b9eb83393fe9,,,,,,,,,,,,,,,,,,,,,,,,,,,,,,,,,,,,,,,,,,,,,,,,,,,,,,,,,,,,,,,,,,,,,,,,,,,,5,0,5,0,1,,,,,,,,,,,,,,,,,,,,,
,,,,,,,,,,,,5c51dd37c91d1100017760b8,37,Mężczyzna,2022-06-11_09h42.45.168,task,2021.1.4,Win32,39.94567388,6299f149e92ead563fba08ef,62a4474d3469b9eb83393fe9,,,,,,,,,,,,,9,,,,,,,,,,Task,16,(3x8) - 15,9,,,,,,,,,,,,,,,,,,,1,,,,,,,,,,,,,,,,,,,,,,,"[""9""]",1,[12.546799999998939],0,0,0,15,1,,,,,,,,,,,,,,,,,,,,,,,,,,
,,,,,,,,,,,X V Q F H G B L J M P D K C T S W R N Z,5c51dd37c91d1100017760b8,37,Mężczyzna,2022-06-11_09h42.45.168,task,2021.1.4,Win32,39.94567388,6299f149e92ead563fba08ef,62a4474d3469b9eb83393fe9,,,,,,,,,,,,,,,,,,,,,,,,,,,,,,,,,,,,,,,,,,,,,,,,,,,,,,,,,,,,,,,,,,,,,,,,,,,,6,0,6,0,1,,,,,,,,,,,,,,,,,,,,,
,,,,,,,,,,,,5c51dd37c91d1100017760b8,37,Mężczyzna,2022-06-11_09h42.45.168,task,2021.1.4,Win32,39.94567388,6299f149e92ead563fba08ef,62a4474d3469b9eb83393fe9,,,,,,,,,,,,,0,,,,,,,,,,Task,8,(1x5) - 5,0,,,,,,,,,,,,,,,,,,,1,,,,,,,,,,,,,,,,,,,,,,,"[""0""]",1,[3.2369999999999663],0,0,0,7,1,,,,,,,,,,,,,,,,,,,,,,,,,,
,,,,,,,,,,,X V Q F H G B L J M P D K C T S W R N Z,5c51dd37c91d1100017760b8,37,Mężczyzna,2022-06-11_09h42.45.168,task,2021.1.4,Win32,39.94567388,6299f149e92ead563fba08ef,62a4474d3469b9eb83393fe9,,,,,,,,,,,,,,,,,,,,,,,,,,,,,,,,,,,,,,,,,,,,,,,,,,,,,,,,,,,,,,,,,,,,,,,,,,,,7,0,7,0,1,,,,,,,,,,,,,,,,,,,,,
,,,,,,,,,,,,5c51dd37c91d1100017760b8,37,Mężczyzna,2022-06-11_09h42.45.168,task,2021.1.4,Win32,39.94567388,6299f149e92ead563fba08ef,62a4474d3469b9eb83393fe9,,,,,,,,,,,,,,,,,,,,,,,,,,,,,,,,,,,,,,,,,,,,,,,,,,,,,,,,,,,,,,,,,,,,,,,,,,,,,,,,,xsmdqfwx,"[""x"",""s"",""m"",""d"",""q"",""f"",""w"",""x""]",0,"[2.488499999999931,4.4577000000010685,4.9245999999996,6.592900000000327,9.795099999999593,15.36670000000106,15.899999999999977,16.834800000000655,18.87040000000036]",0,XSMQDFWX,7,0,7,0,1,,,,,,,,,,
,,,,,,,,,,,,5c51dd37c91d1100017760b8,37,Mężczyzna,2022-06-11_09h42.45.168,task,2021.1.4,Win32,39.94567388,6299f149e92ead563fba08ef,62a4474d3469b9eb83393fe9,,,,,,,,,,,,,5,,,,,,,,,,Task,22,(3x1) + 2,5,,,,,,,,,,,,,,,,,,,1,,,,,,,,,,,,,,,,,,,,,,,"[""5""]",1,[4.330599999999663],0,0,0,21,1,,,,,,,,,,,,,,,,,,,,,,,,,,
,,,,,,,,,,,X V Q F H G B L J M P D K C T S W R N Z,5c51dd37c91d1100017760b8,37,Mężczyzna,2022-06-11_09h42.45.168,task,2021.1.4,Win32,39.94567388,6299f149e92ead563fba08ef,62a4474d3469b9eb83393fe9,,,,,,,,,,,,,,,,,,,,,,,,,,,,,,,,,,,,,,,,,,,,,,,,,,,,,,,,,,,,,,,,,,,,,,,,,,,,0,0,0,0,1,,,,,,,,,,,,,,,,,,,,,
,,,,,,,,,,,,5c51dd37c91d1100017760b8,37,Mężczyzna,2022-06-11_09h42.45.168,task,2021.1.4,Win32,39.94567388,6299f149e92ead563fba08ef,62a4474d3469b9eb83393fe9,,,,,,,,,,,,,4,,,,,,,,,,Task,28,(2x5) - 6,4,,,,,,,,,,,,,,,,,,,1,,,,,,,,,,,,,,,,,,,,,,,"[""4""]",1,[2.6999000000004116],0,0,0,27,1,,,,,,,,,,,,,,,,,,,,,,,,,,
,,,,,,,,,,,X V Q F H G B L J M P D K C T S W R N Z,5c51dd37c91d1100017760b8,37,Mężczyzna,2022-06-11_09h42.45.168,task,2021.1.4,Win32,39.94567388,6299f149e92ead563fba08ef,62a4474d3469b9eb83393fe9,,,,,,,,,,,,,,,,,,,,,,,,,,,,,,,,,,,,,,,,,,,,,,,,,,,,,,,,,,,,,,,,,,,,,,,,,,,,1,0,1,0,1,,,,,,,,,,,,,,,,,,,,,
,,,,,,,,,,,,5c51dd37c91d1100017760b8,37,Mężczyzna,2022-06-11_09h42.45.168,task,2021.1.4,Win32,39.94567388,6299f149e92ead563fba08ef,62a4474d3469b9eb83393fe9,,,,,,,,,,,,,3,,,,,,,,,,Task,35,(1x2) + 1,3,,,,,,,,,,,,,,,,,,,1,,,,,,,,,,,,,,,,,,,,,,,"[""3""]",1,[3.4039000000003625],0,0,0,34,1,,,,,,,,,,,,,,,,,,,,,,,,,,
,,,,,,,,,,,X V Q F H G B L J M P D K C T S W R N Z,5c51dd37c91d1100017760b8,37,Mężczyzna,2022-06-11_09h42.45.168,task,2021.1.4,Win32,39.94567388,6299f149e92ead563fba08ef,62a4474d3469b9eb83393fe9,,,,,,,,,,,,,,,,,,,,,,,,,,,,,,,,,,,,,,,,,,,,,,,,,,,,,,,,,,,,,,,,,,,,,,,,,,,,2,0,2,0,1,,,,,,,,,,,,,,,,,,,,,
,,,,,,,,,,,,5c51dd37c91d1100017760b8,37,Mężczyzna,2022-06-11_09h42.45.168,task,2021.1.4,Win32,39.94567388,6299f149e92ead563fba08ef,62a4474d3469b9eb83393fe9,,,,,,,,,,,,,5,,,,,,,,,,Task,29,(3x8) - 19 ,5,,,,,,,,,,,,,,,,,,,1,,,,,,,,,,,,,,,,,,,,,,,"[""5""]",1,[13.059999999999945],0,0,0,28,1,,,,,,,,,,,,,,,,,,,,,,,,,,
,,,,,,,,,,,X V Q F H G B L J M P D K C T S W R N Z,5c51dd37c91d1100017760b8,37,Mężczyzna,2022-06-11_09h42.45.168,task,2021.1.4,Win32,39.94567388,6299f149e92ead563fba08ef,62a4474d3469b9eb83393fe9,,,,,,,,,,,,,,,,,,,,,,,,,,,,,,,,,,,,,,,,,,,,,,,,,,,,,,,,,,,,,,,,,,,,,,,,,,,,3,0,3,0,1,,,,,,,,,,,,,,,,,,,,,
,,,,,,,,,,,,5c51dd37c91d1100017760b8,37,Mężczyzna,2022-06-11_09h42.45.168,task,2021.1.4,Win32,39.94567388,6299f149e92ead563fba08ef,62a4474d3469b9eb83393fe9,,,,,,,,,,,,,3,,,,,,,,,,Task,35,(1x2) + 1,3,,,,,,,,,,,,,,,,,,,1,,,,,,,,,,,,,,,,,,,,,,,"[""3""]",1,[9.91029999999887],0,0,0,34,1,,,,,,,,,,,,,,,,,,,,,,,,,,
,,,,,,,,,,,X V Q F H G B L J M P D K C T S W R N Z,5c51dd37c91d1100017760b8,37,Mężczyzna,2022-06-11_09h42.45.168,task,2021.1.4,Win32,39.94567388,6299f149e92ead563fba08ef,62a4474d3469b9eb83393fe9,,,,,,,,,,,,,,,,,,,,,,,,,,,,,,,,,,,,,,,,,,,,,,,,,,,,,,,,,,,,,,,,,,,,,,,,,,,,4,0,4,0,1,,,,,,,,,,,,,,,,,,,,,
,,,,,,,,,,,,5c51dd37c91d1100017760b8,37,Mężczyzna,2022-06-11_09h42.45.168,task,2021.1.4,Win32,39.94567388,6299f149e92ead563fba08ef,62a4474d3469b9eb83393fe9,,,,,,,,,,,,,1,,,,,,,,,,Task,18,(16/4) - 3,1,,,,,,,,,,,,,,,,,,,1,,,,,,,,,,,,,,,,,,,,,,,"[""1""]",1,[5.605200000001105],0,0,0,17,1,,,,,,,,,,,,,,,,,,,,,,,,,,
,,,,,,,,,,,X V Q F H G B L J M P D K C T S W R N Z,5c51dd37c91d1100017760b8,37,Mężczyzna,2022-06-11_09h42.45.168,task,2021.1.4,Win32,39.94567388,6299f149e92ead563fba08ef,62a4474d3469b9eb83393fe9,,,,,,,,,,,,,,,,,,,,,,,,,,,,,,,,,,,,,,,,,,,,,,,,,,,,,,,,,,,,,,,,,,,,,,,,,,,,5,0,5,0,1,,,,,,,,,,,,,,,,,,,,,
,,,,,,,,,,,,5c51dd37c91d1100017760b8,37,Mężczyzna,2022-06-11_09h42.45.168,task,2021.1.4,Win32,39.94567388,6299f149e92ead563fba08ef,62a4474d3469b9eb83393fe9,,,,,,,,,,,,,,,,,,,,,,,Task,10,(2x5) - 8,2,,,,,,,,,,,,,,,,,,,0,,,,,,,,,,,,,,,,,,,,,,,,0,,0,0,0,9,1,,,,,,,,,,,,,,,,,,,,,,,,,,
,,,,,,,,,,,,5c51dd37c91d1100017760b8,37,Mężczyzna,2022-06-11_09h42.45.168,task,2021.1.4,Win32,39.94567388,6299f149e92ead563fba08ef,62a4474d3469b9eb83393fe9,,,,,,,,,,,,,5,,,,,,,,,,Task,29,(3x8) - 19 ,5,,,,,,,,,,,,,,,,,,,1,,,,,,,,,,,,,,,,,,,,,,,"[""5""]",1,[4.203800000000797],0,1,1,28,1,,,,,,,,,,,,,,,,,,,,,,,,,,
,,,,,,,,,,,X V Q F H G B L J M P D K C T S W R N Z,5c51dd37c91d1100017760b8,37,Mężczyzna,2022-06-11_09h42.45.168,task,2021.1.4,Win32,39.94567388,6299f149e92ead563fba08ef,62a4474d3469b9eb83393fe9,,,,,,,,,,,,,,,,,,,,,,,,,,,,,,,,,,,,,,,,,,,,,,,,,,,,,,,,,,,,,,,,,,,,,,,,,,,,6,0,6,0,1,,,,,,,,,,,,,,,,,,,,,
,,,,,,,,,,,,5c51dd37c91d1100017760b8,37,Mężczyzna,2022-06-11_09h42.45.168,task,2021.1.4,Win32,39.94567388,6299f149e92ead563fba08ef,62a4474d3469b9eb83393fe9,,,,,,,,,,,,,4,,,,,,,,,,Task,11,(18/3) - 2,4,,,,,,,,,,,,,,,,,,,1,,,,,,,,,,,,,,,,,,,,,,,"[""4""]",1,[5.4599000000004025],0,0,0,10,1,,,,,,,,,,,,,,,,,,,,,,,,,,
,,,,,,,,,,,X V Q F H G B L J M P D K C T S W R N Z,5c51dd37c91d1100017760b8,37,Mężczyzna,2022-06-11_09h42.45.168,task,2021.1.4,Win32,39.94567388,6299f149e92ead563fba08ef,62a4474d3469b9eb83393fe9,,,,,,,,,,,,,,,,,,,,,,,,,,,,,,,,,,,,,,,,,,,,,,,,,,,,,,,,,,,,,,,,,,,,,,,,,,,,7,0,7,0,1,,,,,,,,,,,,,,,,,,,,,
,,,,,,,,,,,,5c51dd37c91d1100017760b8,37,Mężczyzna,2022-06-11_09h42.45.168,task,2021.1.4,Win32,39.94567388,6299f149e92ead563fba08ef,62a4474d3469b9eb83393fe9,,,,,,,,,,,,,,,,,,,,,,,,,,,,,,,,,,,,,,,,,,,,,,,,,,,,,,,,,,,,,,,,,,,,,,,,,,,,,,,,,dwphpxzd,"[""d"",""w"",""p"",""h"",""p"",""x"",""z"",""d""]",0,"[2.8702999999987924,4.223199999999224,5.606099999999628,6.926099999999565,8.06009999999958,9.342799999998874,11.19729999999879,12.931499999999915,13.866499999999974]",1,DWPHPXZD,8,0,8,0,1,,,,,,,,,,
,,,,,,,,,,,,5c51dd37c91d1100017760b8,37,Mężczyzna,2022-06-11_09h42.45.168,task,2021.1.4,Win32,39.94567388,6299f149e92ead563fba08ef,62a4474d3469b9eb83393fe9,,,,,,,,,,,,,4,,,,,,,,,,Task,21,(10/2) - 1,4,,,,,,,,,,,,,,,,,,,1,,,,,,,,,,,,,,,,,,,,,,,"[""4""]",1,[4.2029999999999745],0,0,0,20,1,,,,,,,,,,,,,,,,,,,,,,,,,,
,,,,,,,,,,,X V Q F H G B L J M P D K C T S W R N Z,5c51dd37c91d1100017760b8,37,Mężczyzna,2022-06-11_09h42.45.168,task,2021.1.4,Win32,39.94567388,6299f149e92ead563fba08ef,62a4474d3469b9eb83393fe9,,,,,,,,,,,,,,,,,,,,,,,,,,,,,,,,,,,,,,,,,,,,,,,,,,,,,,,,,,,,,,,,,,,,,,,,,,,,0,0,0,0,1,,,,,,,,,,,,,,,,,,,,,
,,,,,,,,,,,,5c51dd37c91d1100017760b8,37,Mężczyzna,2022-06-11_09h42.45.168,task,2021.1.4,Win32,39.94567388,6299f149e92ead563fba08ef,62a4474d3469b9eb83393fe9,,,,,,,,,,,,,9,,,,,,,,,,Task,7,(3x7) - 12,9,,,,,,,,,,,,,,,,,,,1,,,,,,,,,,,,,,,,,,,,,,,"[""9""]",1,[3.7875000000000227],0,0,0,6,1,,,,,,,,,,,,,,,,,,,,,,,,,,
,,,,,,,,,,,X V Q F H G B L J M P D K C T S W R N Z,5c51dd37c91d1100017760b8,37,Mężczyzna,2022-06-11_09h42.45.168,task,2021.1.4,Win32,39.94567388,6299f149e92ead563fba08ef,62a4474d3469b9eb83393fe9,,,,,,,,,,,,,,,,,,,,,,,,,,,,,,,,,,,,,,,,,,,,,,,,,,,,,,,,,,,,,,,,,,,,,,,,,,,,1,0,1,0,1,,,,,,,,,,,,,,,,,,,,,
,,,,,,,,,,,,5c51dd37c91d1100017760b8,37,Mężczyzna,2022-06-11_09h42.45.168,task,2021.1.4,Win32,39.94567388,6299f149e92ead563fba08ef,62a4474d3469b9eb83393fe9,,,,,,,,,,,,,0,,,,,,,,,,Task,8,(1x5) - 5,0,,,,,,,,,,,,,,,,,,,1,,,,,,,,,,,,,,,,,,,,,,,"[""0""]",1,[2.2683000000007496],0,0,0,7,1,,,,,,,,,,,,,,,,,,,,,,,,,,
,,,,,,,,,,,X V Q F H G B L J M P D K C T S W R N Z,5c51dd37c91d1100017760b8,37,Mężczyzna,2022-06-11_09h42.45.168,task,2021.1.4,Win32,39.94567388,6299f149e92ead563fba08ef,62a4474d3469b9eb83393fe9,,,,,,,,,,,,,,,,,,,,,,,,,,,,,,,,,,,,,,,,,,,,,,,,,,,,,,,,,,,,,,,,,,,,,,,,,,,,2,0,2,0,1,,,,,,,,,,,,,,,,,,,,,
,,,,,,,,,,,,5c51dd37c91d1100017760b8,37,Mężczyzna,2022-06-11_09h42.45.168,task,2021.1.4,Win32,39.94567388,6299f149e92ead563fba08ef,62a4474d3469b9eb83393fe9,,,,,,,,,,,,,8,,,,,,,,,,Task,38,(4x6) - 17,7,,,,,,,,,,,,,,,,,,,0,,,,,,,,,,,,,,,,,,,,,,,"[""8""]",0,[3.6854999999999336],0,0,0,37,1,,,,,,,,,,,,,,,,,,,,,,,,,,
,,,,,,,,,,,,5c51dd37c91d1100017760b8,37,Mężczyzna,2022-06-11_09h42.45.168,task,2021.1.4,Win32,39.94567388,6299f149e92ead563fba08ef,62a4474d3469b9eb83393fe9,,,,,,,,,,,,,9,,,,,,,,,,Task,16,(3x8) - 15,9,,,,,,,,,,,,,,,,,,,1,,,,,,,,,,,,,,,,,,,,,,,"[""9""]",1,[5.570700000001125],0,1,1,15,1,,,,,,,,,,,,,,,,,,,,,,,,,,
,,,,,,,,,,,X V Q F H G B L J M P D K C T S W R N Z,5c51dd37c91d1100017760b8,37,Mężczyzna,2022-06-11_09h42.45.168,task,2021.1.4,Win32,39.94567388,6299f149e92ead563fba08ef,62a4474d3469b9eb83393fe9,,,,,,,,,,,,,,,,,,,,,,,,,,,,,,,,,,,,,,,,,,,,,,,,,,,,,,,,,,,,,,,,,,,,,,,,,,,,3,0,3,0,1,,,,,,,,,,,,,,,,,,,,,
,,,,,,,,,,,,5c51dd37c91d1100017760b8,37,Mężczyzna,2022-06-11_09h42.45.168,task,2021.1.4,Win32,39.94567388,6299f149e92ead563fba08ef,62a4474d3469b9eb83393fe9,,,,,,,,,,,,,3,,,,,,,,,,Task,3,(2x3) - 3,3,,,,,,,,,,,,,,,,,,,1,,,,,,,,,,,,,,,,,,,,,,,"[""3""]",1,[3.216099999999642],0,0,0,2,1,,,,,,,,,,,,,,,,,,,,,,,,,,
,,,,,,,,,,,X V Q F H G B L J M P D K C T S W R N Z,5c51dd37c91d1100017760b8,37,Mężczyzna,2022-06-11_09h42.45.168,task,2021.1.4,Win32,39.94567388,6299f149e92ead563fba08ef,62a4474d3469b9eb83393fe9,,,,,,,,,,,,,,,,,,,,,,,,,,,,,,,,,,,,,,,,,,,,,,,,,,,,,,,,,,,,,,,,,,,,,,,,,,,,4,0,4,0,1,,,,,,,,,,,,,,,,,,,,,
,,,,,,,,,,,,5c51dd37c91d1100017760b8,37,Mężczyzna,2022-06-11_09h42.45.168,task,2021.1.4,Win32,39.94567388,6299f149e92ead563fba08ef,62a4474d3469b9eb83393fe9,,,,,,,,,,,,,9,,,,,,,,,,Task,16,(3x8) - 15,9,,,,,,,,,,,,,,,,,,,1,,,,,,,,,,,,,,,,,,,,,,,"[""9""]",1,[5.039400000000455],0,0,0,15,1,,,,,,,,,,,,,,,,,,,,,,,,,,
,,,,,,,,,,,X V Q F H G B L J M P D K C T S W R N Z,5c51dd37c91d1100017760b8,37,Mężczyzna,2022-06-11_09h42.45.168,task,2021.1.4,Win32,39.94567388,6299f149e92ead563fba08ef,62a4474d3469b9eb83393fe9,,,,,,,,,,,,,,,,,,,,,,,,,,,,,,,,,,,,,,,,,,,,,,,,,,,,,,,,,,,,,,,,,,,,,,,,,,,,5,0,5,0,1,,,,,,,,,,,,,,,,,,,,,
,,,,,,,,,,,,5c51dd37c91d1100017760b8,37,Mężczyzna,2022-06-11_09h42.45.168,task,2021.1.4,Win32,39.94567388,6299f149e92ead563fba08ef,62a4474d3469b9eb83393fe9,,,,,,,,,,,,,7,,,,,,,,,,Task,6,(12/2) + 1,7,,,,,,,,,,,,,,,,,,,1,,,,,,,,,,,,,,,,,,,,,,,"[""7""]",1,[5.736900000000446],0,0,0,5,1,,,,,,,,,,,,,,,,,,,,,,,,,,
,,,,,,,,,,,X V Q F H G B L J M P D K C T S W R N Z,5c51dd37c91d1100017760b8,37,Mężczyzna,2022-06-11_09h42.45.168,task,2021.1.4,Win32,39.94567388,6299f149e92ead563fba08ef,62a4474d3469b9eb83393fe9,,,,,,,,,,,,,,,,,,,,,,,,,,,,,,,,,,,,,,,,,,,,,,,,,,,,,,,,,,,,,,,,,,,,,,,,,,,,6,0,6,0,1,,,,,,,,,,,,,,,,,,,,,
,,,,,,,,,,,,5c51dd37c91d1100017760b8,37,Mężczyzna,2022-06-11_09h42.45.168,task,2021.1.4,Win32,39.94567388,6299f149e92ead563fba08ef,62a4474d3469b9eb83393fe9,,,,,,,,,,,,,8,,,,,,,,,,Task,23,(2x3) + 2,8,,,,,,,,,,,,,,,,,,,1,,,,,,,,,,,,,,,,,,,,,,,"[""8""]",1,[3.1569000000002916],0,0,0,22,1,,,,,,,,,,,,,,,,,,,,,,,,,,
,,,,,,,,,,,X V Q F H G B L J M P D K C T S W R N Z,5c51dd37c91d1100017760b8,37,Mężczyzna,2022-06-11_09h42.45.168,task,2021.1.4,Win32,39.94567388,6299f149e92ead563fba08ef,62a4474d3469b9eb83393fe9,,,,,,,,,,,,,,,,,,,,,,,,,,,,,,,,,,,,,,,,,,,,,,,,,,,,,,,,,,,,,,,,,,,,,,,,,,,,7,0,7,0,1,,,,,,,,,,,,,,,,,,,,,
,,,,,,,,,,,,5c51dd37c91d1100017760b8,37,Mężczyzna,2022-06-11_09h42.45.168,task,2021.1.4,Win32,39.94567388,6299f149e92ead563fba08ef,62a4474d3469b9eb83393fe9,,,,,,,,,,,,,8,,,,,,,,,,Task,15,(3x7) - 13,8,,,,,,,,,,,,,,,,,,,1,,,,,,,,,,,,,,,,,,,,,,,"[""8""]",1,[7.272199999999202],0,0,0,14,1,,,,,,,,,,,,,,,,,,,,,,,,,,
,,,,,,,,,,,X V Q F H G B L J M P D K C T S W R N Z,5c51dd37c91d1100017760b8,37,Mężczyzna,2022-06-11_09h42.45.168,task,2021.1.4,Win32,39.94567388,6299f149e92ead563fba08ef,62a4474d3469b9eb83393fe9,,,,,,,,,,,,,,,,,,,,,,,,,,,,,,,,,,,,,,,,,,,,,,,,,,,,,,,,,,,,,,,,,,,,,,,,,,,,8,0,8,0,1,,,,,,,,,,,,,,,,,,,,,
,,,,,,,,,,,,5c51dd37c91d1100017760b8,37,Mężczyzna,2022-06-11_09h42.45.168,task,2021.1.4,Win32,39.94567388,6299f149e92ead563fba08ef,62a4474d3469b9eb83393fe9,,,,,,,,,,,,,,,,,,,,,,,,,,,,,,,,,,,,,,,,,,,,,,,,,,,,,,,,,,,,,,,,,,,,,,,,,,,,,,,,,wmnrqrwjg,"[""w"",""m"",""n"",""r"",""q"",""r"",""w"",""j"",""g""]",0,"[2.7245000000000346,3.404200000001083,3.9394999999999527,4.726600000001554,5.6596000000015465,7.675999999999931,8.996900000000323,9.696200000001,10.9979000000003,12.197900000000345]",1,WMNRQRWJG,9,0,9,0,1,,,,,,,,,,
,,,,,,,,,,,,5c51dd37c91d1100017760b8,37,Mężczyzna,2022-06-11_09h42.45.168,task,2021.1.4,Win32,39.94567388,6299f149e92ead563fba08ef,62a4474d3469b9eb83393fe9,,,,,,,,,,,,,1,,,,,,,,,,Task,1,(12/6) - 1,1,,,,,,,,,,,,,,,,,,,1,,,,,,,,,,,,,,,,,,,,,,,"[""1""]",1,[5.303199999999379],0,0,0,0,1,,,,,,,,,,,,,,,,,,,,,,,,,,
,,,,,,,,,,,X V Q F H G B L J M P D K C T S W R N Z,5c51dd37c91d1100017760b8,37,Mężczyzna,2022-06-11_09h42.45.168,task,2021.1.4,Win32,39.94567388,6299f149e92ead563fba08ef,62a4474d3469b9eb83393fe9,,,,,,,,,,,,,,,,,,,,,,,,,,,,,,,,,,,,,,,,,,,,,,,,,,,,,,,,,,,,,,,,,,,,,,,,,,,,0,0,0,0,1,,,,,,,,,,,,,,,,,,,,,
,,,,,,,,,,,,5c51dd37c91d1100017760b8,37,Mężczyzna,2022-06-11_09h42.45.168,task,2021.1.4,Win32,39.94567388,6299f149e92ead563fba08ef,62a4474d3469b9eb83393fe9,,,,,,,,,,,,,5,,,,,,,,,,Task,36,(8/4) + 3,5,,,,,,,,,,,,,,,,,,,1,,,,,,,,,,,,,,,,,,,,,,,"[""5""]",1,[3.0360999999995784],0,0,0,35,1,,,,,,,,,,,,,,,,,,,,,,,,,,
,,,,,,,,,,,X V Q F H G B L J M P D K C T S W R N Z,5c51dd37c91d1100017760b8,37,Mężczyzna,2022-06-11_09h42.45.168,task,2021.1.4,Win32,39.94567388,6299f149e92ead563fba08ef,62a4474d3469b9eb83393fe9,,,,,,,,,,,,,,,,,,,,,,,,,,,,,,,,,,,,,,,,,,,,,,,,,,,,,,,,,,,,,,,,,,,,,,,,,,,,1,0,1,0,1,,,,,,,,,,,,,,,,,,,,,
,,,,,,,,,,,,5c51dd37c91d1100017760b8,37,Mężczyzna,2022-06-11_09h42.45.168,task,2021.1.4,Win32,39.94567388,6299f149e92ead563fba08ef,62a4474d3469b9eb83393fe9,,,,,,,,,,,,,0,,,,,,,,,,Task,33,(1/1) - 1,0,,,,,,,,,,,,,,,,,,,1,,,,,,,,,,,,,,,,,,,,,,,"[""0""]",1,[2.2009000000002743],0,0,0,32,1,,,,,,,,,,,,,,,,,,,,,,,,,,
,,,,,,,,,,,X V Q F H G B L J M P D K C T S W R N Z,5c51dd37c91d1100017760b8,37,Mężczyzna,2022-06-11_09h42.45.168,task,2021.1.4,Win32,39.94567388,6299f149e92ead563fba08ef,62a4474d3469b9eb83393fe9,,,,,,,,,,,,,,,,,,,,,,,,,,,,,,,,,,,,,,,,,,,,,,,,,,,,,,,,,,,,,,,,,,,,,,,,,,,,2,0,2,0,1,,,,,,,,,,,,,,,,,,,,,
,,,,,,,,,,,,5c51dd37c91d1100017760b8,37,Mężczyzna,2022-06-11_09h42.45.168,task,2021.1.4,Win32,39.94567388,6299f149e92ead563fba08ef,62a4474d3469b9eb83393fe9,,,,,,,,,,,,,1,,,,,,,,,,Task,9,(3x7) - 20,1,,,,,,,,,,,,,,,,,,,1,,,,,,,,,,,,,,,,,,,,,,,"[""1""]",1,[4.335900000000265],0,0,0,8,1,,,,,,,,,,,,,,,,,,,,,,,,,,
,,,,,,,,,,,X V Q F H G B L J M P D K C T S W R N Z,5c51dd37c91d1100017760b8,37,Mężczyzna,2022-06-11_09h42.45.168,task,2021.1.4,Win32,39.94567388,6299f149e92ead563fba08ef,62a4474d3469b9eb83393fe9,,,,,,,,,,,,,,,,,,,,,,,,,,,,,,,,,,,,,,,,,,,,,,,,,,,,,,,,,,,,,,,,,,,,,,,,,,,,3,0,3,0,1,,,,,,,,,,,,,,,,,,,,,
,,,,,,,,,,,,5c51dd37c91d1100017760b8,37,Mężczyzna,2022-06-11_09h42.45.168,task,2021.1.4,Win32,39.94567388,6299f149e92ead563fba08ef,62a4474d3469b9eb83393fe9,,,,,,,,,,,,,7,,,,,,,,,,Task,6,(12/2) + 1,7,,,,,,,,,,,,,,,,,,,1,,,,,,,,,,,,,,,,,,,,,,,"[""7""]",1,[3.300099999999702],0,0,0,5,1,,,,,,,,,,,,,,,,,,,,,,,,,,
,,,,,,,,,,,X V Q F H G B L J M P D K C T S W R N Z,5c51dd37c91d1100017760b8,37,Mężczyzna,2022-06-11_09h42.45.168,task,2021.1.4,Win32,39.94567388,6299f149e92ead563fba08ef,62a4474d3469b9eb83393fe9,,,,,,,,,,,,,,,,,,,,,,,,,,,,,,,,,,,,,,,,,,,,,,,,,,,,,,,,,,,,,,,,,,,,,,,,,,,,4,0,4,0,1,,,,,,,,,,,,,,,,,,,,,
,,,,,,,,,,,,5c51dd37c91d1100017760b8,37,Mężczyzna,2022-06-11_09h42.45.168,task,2021.1.4,Win32,39.94567388,6299f149e92ead563fba08ef,62a4474d3469b9eb83393fe9,,,,,,,,,,,,,4,,,,,,,,,,Task,4,(1x5) - 1,4,,,,,,,,,,,,,,,,,,,1,,,,,,,,,,,,,,,,,,,,,,,"[""4""]",1,[2.751300000000583],0,0,0,3,1,,,,,,,,,,,,,,,,,,,,,,,,,,
,,,,,,,,,,,X V Q F H G B L J M P D K C T S W R N Z,5c51dd37c91d1100017760b8,37,Mężczyzna,2022-06-11_09h42.45.168,task,2021.1.4,Win32,39.94567388,6299f149e92ead563fba08ef,62a4474d3469b9eb83393fe9,,,,,,,,,,,,,,,,,,,,,,,,,,,,,,,,,,,,,,,,,,,,,,,,,,,,,,,,,,,,,,,,,,,,,,,,,,,,5,0,5,0,1,,,,,,,,,,,,,,,,,,,,,
,,,,,,,,,,,,5c51dd37c91d1100017760b8,37,Mężczyzna,2022-06-11_09h42.45.168,task,2021.1.4,Win32,39.94567388,6299f149e92ead563fba08ef,62a4474d3469b9eb83393fe9,,,,,,,,,,,,,7,,,,,,,,,,Task,6,(12/2) + 1,7,,,,,,,,,,,,,,,,,,,1,,,,,,,,,,,,,,,,,,,,,,,"[""7""]",1,[3.4679000000005544],0,0,0,5,1,,,,,,,,,,,,,,,,,,,,,,,,,,
,,,,,,,,,,,X V Q F H G B L J M P D K C T S W R N Z,5c51dd37c91d1100017760b8,37,Mężczyzna,2022-06-11_09h42.45.168,task,2021.1.4,Win32,39.94567388,6299f149e92ead563fba08ef,62a4474d3469b9eb83393fe9,,,,,,,,,,,,,,,,,,,,,,,,,,,,,,,,,,,,,,,,,,,,,,,,,,,,,,,,,,,,,,,,,,,,,,,,,,,,6,0,6,0,1,,,,,,,,,,,,,,,,,,,,,
,,,,,,,,,,,,5c51dd37c91d1100017760b8,37,Mężczyzna,2022-06-11_09h42.45.168,task,2021.1.4,Win32,39.94567388,6299f149e92ead563fba08ef,62a4474d3469b9eb83393fe9,,,,,,,,,,,,,8,,,,,,,,,,Task,32,(8/2) + 4,8,,,,,,,,,,,,,,,,,,,1,,,,,,,,,,,,,,,,,,,,,,,"[""8""]",1,[5.05380000000082],0,0,0,31,1,,,,,,,,,,,,,,,,,,,,,,,,,,
,,,,,,,,,,,X V Q F H G B L J M P D K C T S W R N Z,5c51dd37c91d1100017760b8,37,Mężczyzna,2022-06-11_09h42.45.168,task,2021.1.4,Win32,39.94567388,6299f149e92ead563fba08ef,62a4474d3469b9eb83393fe9,,,,,,,,,,,,,,,,,,,,,,,,,,,,,,,,,,,,,,,,,,,,,,,,,,,,,,,,,,,,,,,,,,,,,,,,,,,,7,0,7,0,1,,,,,,,,,,,,,,,,,,,,,
,,,,,,,,,,,,5c51dd37c91d1100017760b8,37,Mężczyzna,2022-06-11_09h42.45.168,task,2021.1.4,Win32,39.94567388,6299f149e92ead563fba08ef,62a4474d3469b9eb83393fe9,,,,,,,,,,,,,8,,,,,,,,,,Task,39,(5x3) - 7,8,,,,,,,,,,,,,,,,,,,1,,,,,,,,,,,,,,,,,,,,,,,"[""8""]",1,[8.389099999999644],0,0,0,38,1,,,,,,,,,,,,,,,,,,,,,,,,,,
,,,,,,,,,,,X V Q F H G B L J M P D K C T S W R N Z,5c51dd37c91d1100017760b8,37,Mężczyzna,2022-06-11_09h42.45.168,task,2021.1.4,Win32,39.94567388,6299f149e92ead563fba08ef,62a4474d3469b9eb83393fe9,,,,,,,,,,,,,,,,,,,,,,,,,,,,,,,,,,,,,,,,,,,,,,,,,,,,,,,,,,,,,,,,,,,,,,,,,,,,8,0,8,0,1,,,,,,,,,,,,,,,,,,,,,
,,,,,,,,,,,,5c51dd37c91d1100017760b8,37,Mężczyzna,2022-06-11_09h42.45.168,task,2021.1.4,Win32,39.94567388,6299f149e92ead563fba08ef,62a4474d3469b9eb83393fe9,,,,,,,,,,,,,5,,,,,,,,,,Task,12,(4x4) - 11,5,,,,,,,,,,,,,,,,,,,1,,,,,,,,,,,,,,,,,,,,,,,"[""5""]",1,[2.668300000000727],0,0,0,11,1,,,,,,,,,,,,,,,,,,,,,,,,,,
,,,,,,,,,,,X V Q F H G B L J M P D K C T S W R N Z,5c51dd37c91d1100017760b8,37,Mężczyzna,2022-06-11_09h42.45.168,task,2021.1.4,Win32,39.94567388,6299f149e92ead563fba08ef,62a4474d3469b9eb83393fe9,,,,,,,,,,,,,,,,,,,,,,,,,,,,,,,,,,,,,,,,,,,,,,,,,,,,,,,,,,,,,,,,,,,,,,,,,,,,9,0,9,0,1,,,,,,,,,,,,,,,,,,,,,
,,,,,,,,,,,,5c51dd37c91d1100017760b8,37,Mężczyzna,2022-06-11_09h42.45.168,task,2021.1.4,Win32,39.94567388,6299f149e92ead563fba08ef,62a4474d3469b9eb83393fe9,,,,,,,,,,,,,,,,,,,,,,,,,,,,,,,,,,,,,,,,,,,,,,,,,,,,,,,,,,,,,,,,,,,,,,,,,,,,,,,,,hjfrmhskrl,"[""h"",""j"",""f"",""r"",""m"",""h"",""s"",""k"",""r"",""l""]",0,"[3.755500000000211,4.3387999999990825,5.725400000000491,6.091499999999996,6.591499999999996,7.225299999998924,7.727500000000191,8.074900000000525,8.527500000000146,9.294500000000198,10.062599999999748]",0,HJRFMHSKRL,10,0,10,0,1,,,,,,,,,,
,,,,,,,,,,,,5c51dd37c91d1100017760b8,37,Mężczyzna,2022-06-11_09h42.45.168,task,2021.1.4,Win32,39.94567388,6299f149e92ead563fba08ef,62a4474d3469b9eb83393fe9,,,,,,,,,,,,,2,,,,,,,,,,Task,3,(2x3) - 3,3,,,,,,,,,,,,,,,,,,,0,,,,,,,,,,,,,,,,,,,,,,,"[""2""]",0,[4.922099999999546],0,0,0,2,1,,,,,,,,,,,,,,,,,,,,,,,,,,
,,,,,,,,,,,,5c51dd37c91d1100017760b8,37,Mężczyzna,2022-06-11_09h42.45.168,task,2021.1.4,Win32,39.94567388,6299f149e92ead563fba08ef,62a4474d3469b9eb83393fe9,,,,,,,,,,,,,8,,,,,,,,,,Task,7,(3x7) - 12,9,,,,,,,,,,,,,,,,,,,0,,,,,,,,,,,,,,,,,,,,,,,"[""8""]",0,[11.710900000000493],0,1,1,6,1,,,,,,,,,,,,,,,,,,,,,,,,,,
,,,,,,,,,,,,5c51dd37c91d1100017760b8,37,Mężczyzna,2022-06-11_09h42.45.168,task,2021.1.4,Win32,39.94567388,6299f149e92ead563fba08ef,62a4474d3469b9eb83393fe9,,,,,,,,,,,,,2,,,,,,,,,,Task,2,(2x2) - 2,2,,,,,,,,,,,,,,,,,,,1,,,,,,,,,,,,,,,,,,,,,,,"[""2""]",1,[3.9705999999996493],0,2,2,1,1,,,,,,,,,,,,,,,,,,,,,,,,,,
,,,,,,,,,,,X V Q F H G B L J M P D K C T S W R N Z,5c51dd37c91d1100017760b8,37,Mężczyzna,2022-06-11_09h42.45.168,task,2021.1.4,Win32,39.94567388,6299f149e92ead563fba08ef,62a4474d3469b9eb83393fe9,,,,,,,,,,,,,,,,,,,,,,,,,,,,,,,,,,,,,,,,,,,,,,,,,,,,,,,,,,,,,,,,,,,,,,,,,,,,0,0,0,0,1,,,,,,,,,,,,,,,,,,,,,
,,,,,,,,,,,,5c51dd37c91d1100017760b8,37,Mężczyzna,2022-06-11_09h42.45.168,task,2021.1.4,Win32,39.94567388,6299f149e92ead563fba08ef,62a4474d3469b9eb83393fe9,,,,,,,,,,,,,2,,,,,,,,,,Task,19,(6/2) - 1,2,,,,,,,,,,,,,,,,,,,1,,,,,,,,,,,,,,,,,,,,,,,"[""2""]",1,[5.272600000001603],0,0,0,18,1,,,,,,,,,,,,,,,,,,,,,,,,,,
,,,,,,,,,,,X V Q F H G B L J M P D K C T S W R N Z,5c51dd37c91d1100017760b8,37,Mężczyzna,2022-06-11_09h42.45.168,task,2021.1.4,Win32,39.94567388,6299f149e92ead563fba08ef,62a4474d3469b9eb83393fe9,,,,,,,,,,,,,,,,,,,,,,,,,,,,,,,,,,,,,,,,,,,,,,,,,,,,,,,,,,,,,,,,,,,,,,,,,,,,1,0,1,0,1,,,,,,,,,,,,,,,,,,,,,
,,,,,,,,,,,,5c51dd37c91d1100017760b8,37,Mężczyzna,2022-06-11_09h42.45.168,task,2021.1.4,Win32,39.94567388,6299f149e92ead563fba08ef,62a4474d3469b9eb83393fe9,,,,,,,,,,,,,7,,,,,,,,,,Task,14,(2x2) + 3,7,,,,,,,,,,,,,,,,,,,1,,,,,,,,,,,,,,,,,,,,,,,"[""7""]",1,[2.9479000000003452],0,0,0,13,1,,,,,,,,,,,,,,,,,,,,,,,,,,
,,,,,,,,,,,X V Q F H G B L J M P D K C T S W R N Z,5c51dd37c91d1100017760b8,37,Mężczyzna,2022-06-11_09h42.45.168,task,2021.1.4,Win32,39.94567388,6299f149e92ead563fba08ef,62a4474d3469b9eb83393fe9,,,,,,,,,,,,,,,,,,,,,,,,,,,,,,,,,,,,,,,,,,,,,,,,,,,,,,,,,,,,,,,,,,,,,,,,,,,,2,0,2,0,1,,,,,,,,,,,,,,,,,,,,,
,,,,,,,,,,,,5c51dd37c91d1100017760b8,37,Mężczyzna,2022-06-11_09h42.45.168,task,2021.1.4,Win32,39.94567388,6299f149e92ead563fba08ef,62a4474d3469b9eb83393fe9,,,,,,,,,,,,,1,,,,,,,,,,Task,18,(16/4) - 3,1,,,,,,,,,,,,,,,,,,,1,,,,,,,,,,,,,,,,,,,,,,,"[""1""]",1,[3.0691999999992277],0,0,0,17,1,,,,,,,,,,,,,,,,,,,,,,,,,,
,,,,,,,,,,,X V Q F H G B L J M P D K C T S W R N Z,5c51dd37c91d1100017760b8,37,Mężczyzna,2022-06-11_09h42.45.168,task,2021.1.4,Win32,39.94567388,6299f149e92ead563fba08ef,62a4474d3469b9eb83393fe9,,,,,,,,,,,,,,,,,,,,,,,,,,,,,,,,,,,,,,,,,,,,,,,,,,,,,,,,,,,,,,,,,,,,,,,,,,,,3,0,3,0,1,,,,,,,,,,,,,,,,,,,,,
,,,,,,,,,,,,5c51dd37c91d1100017760b8,37,Mężczyzna,2022-06-11_09h42.45.168,task,2021.1.4,Win32,39.94567388,6299f149e92ead563fba08ef,62a4474d3469b9eb83393fe9,,,,,,,,,,,,,6,,,,,,,,,,Task,5,(2x3) + 0,6,,,,,,,,,,,,,,,,,,,1,,,,,,,,,,,,,,,,,,,,,,,"[""6""]",1,[6.987700000001041],0,0,0,4,1,,,,,,,,,,,,,,,,,,,,,,,,,,
,,,,,,,,,,,X V Q F H G B L J M P D K C T S W R N Z,5c51dd37c91d1100017760b8,37,Mężczyzna,2022-06-11_09h42.45.168,task,2021.1.4,Win32,39.94567388,6299f149e92ead563fba08ef,62a4474d3469b9eb83393fe9,,,,,,,,,,,,,,,,,,,,,,,,,,,,,,,,,,,,,,,,,,,,,,,,,,,,,,,,,,,,,,,,,,,,,,,,,,,,4,0,4,0,1,,,,,,,,,,,,,,,,,,,,,
,,,,,,,,,,,,5c51dd37c91d1100017760b8,37,Mężczyzna,2022-06-11_09h42.45.168,task,2021.1.4,Win32,39.94567388,6299f149e92ead563fba08ef,62a4474d3469b9eb83393fe9,,,,,,,,,,,,,7,,,,,,,,,,Task,14,(2x2) + 3,7,,,,,,,,,,,,,,,,,,,1,,,,,,,,,,,,,,,,,,,,,,,"[""7""]",1,[4.63590000000022],0,0,0,13,1,,,,,,,,,,,,,,,,,,,,,,,,,,
,,,,,,,,,,,X V Q F H G B L J M P D K C T S W R N Z,5c51dd37c91d1100017760b8,37,Mężczyzna,2022-06-11_09h42.45.168,task,2021.1.4,Win32,39.94567388,6299f149e92ead563fba08ef,62a4474d3469b9eb83393fe9,,,,,,,,,,,,,,,,,,,,,,,,,,,,,,,,,,,,,,,,,,,,,,,,,,,,,,,,,,,,,,,,,,,,,,,,,,,,5,0,5,0,1,,,,,,,,,,,,,,,,,,,,,
,,,,,,,,,,,,5c51dd37c91d1100017760b8,37,Mężczyzna,2022-06-11_09h42.45.168,task,2021.1.4,Win32,39.94567388,6299f149e92ead563fba08ef,62a4474d3469b9eb83393fe9,,,,,,,,,,,,,4,,,,,,,,,,Task,28,(2x5) - 6,4,,,,,,,,,,,,,,,,,,,1,,,,,,,,,,,,,,,,,,,,,,,"[""4""]",1,[5.8060999999997875],0,0,0,27,1,,,,,,,,,,,,,,,,,,,,,,,,,,
,,,,,,,,,,,X V Q F H G B L J M P D K C T S W R N Z,5c51dd37c91d1100017760b8,37,Mężczyzna,2022-06-11_09h42.45.168,task,2021.1.4,Win32,39.94567388,6299f149e92ead563fba08ef,62a4474d3469b9eb83393fe9,,,,,,,,,,,,,,,,,,,,,,,,,,,,,,,,,,,,,,,,,,,,,,,,,,,,,,,,,,,,,,,,,,,,,,,,,,,,6,0,6,0,1,,,,,,,,,,,,,,,,,,,,,
,,,,,,,,,,,,5c51dd37c91d1100017760b8,37,Mężczyzna,2022-06-11_09h42.45.168,task,2021.1.4,Win32,39.94567388,6299f149e92ead563fba08ef,62a4474d3469b9eb83393fe9,,,,,,,,,,,,,3,,,,,,,,,,Task,27,(3/3) + 2,3,,,,,,,,,,,,,,,,,,,1,,,,,,,,,,,,,,,,,,,,,,,"[""3""]",1,[5.992300000000796],0,0,0,26,1,,,,,,,,,,,,,,,,,,,,,,,,,,
,,,,,,,,,,,X V Q F H G B L J M P D K C T S W R N Z,5c51dd37c91d1100017760b8,37,Mężczyzna,2022-06-11_09h42.45.168,task,2021.1.4,Win32,39.94567388,6299f149e92ead563fba08ef,62a4474d3469b9eb83393fe9,,,,,,,,,,,,,,,,,,,,,,,,,,,,,,,,,,,,,,,,,,,,,,,,,,,,,,,,,,,,,,,,,,,,,,,,,,,,7,0,7,0,1,,,,,,,,,,,,,,,,,,,,,
,,,,,,,,,,,,5c51dd37c91d1100017760b8,37,Mężczyzna,2022-06-11_09h42.45.168,task,2021.1.4,Win32,39.94567388,6299f149e92ead563fba08ef,62a4474d3469b9eb83393fe9,,,,,,,,,,,,,8,,,,,,,,,,Task,15,(3x7) - 13,8,,,,,,,,,,,,,,,,,,,1,,,,,,,,,,,,,,,,,,,,,,,"[""8""]",1,[5.6894000000004326],0,0,0,14,1,,,,,,,,,,,,,,,,,,,,,,,,,,
,,,,,,,,,,,X V Q F H G B L J M P D K C T S W R N Z,5c51dd37c91d1100017760b8,37,Mężczyzna,2022-06-11_09h42.45.168,task,2021.1.4,Win32,39.94567388,6299f149e92ead563fba08ef,62a4474d3469b9eb83393fe9,,,,,,,,,,,,,,,,,,,,,,,,,,,,,,,,,,,,,,,,,,,,,,,,,,,,,,,,,,,,,,,,,,,,,,,,,,,,8,0,8,0,1,,,,,,,,,,,,,,,,,,,,,
,,,,,,,,,,,,5c51dd37c91d1100017760b8,37,Mężczyzna,2022-06-11_09h42.45.168,task,2021.1.4,Win32,39.94567388,6299f149e92ead563fba08ef,62a4474d3469b9eb83393fe9,,,,,,,,,,,,,1,,,,,,,,,,Task,1,(12/6) - 1,1,,,,,,,,,,,,,,,,,,,1,,,,,,,,,,,,,,,,,,,,,,,"[""1""]",1,[3.2037999999988642],0,0,0,0,1,,,,,,,,,,,,,,,,,,,,,,,,,,
,,,,,,,,,,,X V Q F H G B L J M P D K C T S W R N Z,5c51dd37c91d1100017760b8,37,Mężczyzna,2022-06-11_09h42.45.168,task,2021.1.4,Win32,39.94567388,6299f149e92ead563fba08ef,62a4474d3469b9eb83393fe9,,,,,,,,,,,,,,,,,,,,,,,,,,,,,,,,,,,,,,,,,,,,,,,,,,,,,,,,,,,,,,,,,,,,,,,,,,,,9,0,9,0,1,,,,,,,,,,,,,,,,,,,,,
,,,,,,,,,,,,5c51dd37c91d1100017760b8,37,Mężczyzna,2022-06-11_09h42.45.168,task,2021.1.4,Win32,39.94567388,6299f149e92ead563fba08ef,62a4474d3469b9eb83393fe9,,,,,,,,,,,,,,,,,,,,,,,,,,,,,,,,,,,,,,,,,,,,,,,,,,,,,,,,,,,,,,,,,,,,,,,,,,,,,,,,,rcgbvwdnsm,"[""r"",""c"",""g"",""b"",""v"",""w"",""d"",""n"",""s"",""m""]",0,"[3.2038999999986117,3.6571999999994205,4.124199999999291,6.059399999998504,8.008299999999053,9.467399999998634,10.877500000000055,17.9690999999998,18.871000000000095,20.672000000000025,21.839299999998957]",1,RCGBVWDNSM,11,0,11,0,1,,,,,,,,,,
,,,,,,,,,,,,5c51dd37c91d1100017760b8,37,Mężczyzna,2022-06-11_09h42.45.168,task,2021.1.4,Win32,39.94567388,6299f149e92ead563fba08ef,62a4474d3469b9eb83393fe9,,,,,,,,,,,,,4,,,,,,,,,,Task,4,(1x5) - 1,4,,,,,,,,,,,,,,,,,,,1,,,,,,,,,,,,,,,,,,,,,,,"[""4""]",1,[2.866999999999962],0,0,0,3,1,,,,,,,,,,,,,,,,,,,,,,,,,,
,,,,,,,,,,,X V Q F H G B L J M P D K C T S W R N Z,5c51dd37c91d1100017760b8,37,Mężczyzna,2022-06-11_09h42.45.168,task,2021.1.4,Win32,39.94567388,6299f149e92ead563fba08ef,62a4474d3469b9eb83393fe9,,,,,,,,,,,,,,,,,,,,,,,,,,,,,,,,,,,,,,,,,,,,,,,,,,,,,,,,,,,,,,,,,,,,,,,,,,,,0,0,0,0,1,,,,,,,,,,,,,,,,,,,,,
,,,,,,,,,,,,5c51dd37c91d1100017760b8,37,Mężczyzna,2022-06-11_09h42.45.168,task,2021.1.4,Win32,39.94567388,6299f149e92ead563fba08ef,62a4474d3469b9eb83393fe9,,,,,,,,,,,,,5,,,,,,,,,,Task,36,(8/4) + 3,5,,,,,,,,,,,,,,,,,,,1,,,,,,,,,,,,,,,,,,,,,,,"[""5""]",1,[2.3226999999992586],0,0,0,35,1,,,,,,,,,,,,,,,,,,,,,,,,,,
,,,,,,,,,,,X V Q F H G B L J M P D K C T S W R N Z,5c51dd37c91d1100017760b8,37,Mężczyzna,2022-06-11_09h42.45.168,task,2021.1.4,Win32,39.94567388,6299f149e92ead563fba08ef,62a4474d3469b9eb83393fe9,,,,,,,,,,,,,,,,,,,,,,,,,,,,,,,,,,,,,,,,,,,,,,,,,,,,,,,,,,,,,,,,,,,,,,,,,,,,1,0,1,0,1,,,,,,,,,,,,,,,,,,,,,
,,,,,,,,,,,,5c51dd37c91d1100017760b8,37,Mężczyzna,2022-06-11_09h42.45.168,task,2021.1.4,Win32,39.94567388,6299f149e92ead563fba08ef,62a4474d3469b9eb83393fe9,,,,,,,,,,,,,5,,,,,,,,,,Task,36,(8/4) + 3,5,,,,,,,,,,,,,,,,,,,1,,,,,,,,,,,,,,,,,,,,,,,"[""5""]",1,[3.5382000000010976],0,0,0,35,1,,,,,,,,,,,,,,,,,,,,,,,,,,
,,,,,,,,,,,X V Q F H G B L J M P D K C T S W R N Z,5c51dd37c91d1100017760b8,37,Mężczyzna,2022-06-11_09h42.45.168,task,2021.1.4,Win32,39.94567388,6299f149e92ead563fba08ef,62a4474d3469b9eb83393fe9,,,,,,,,,,,,,,,,,,,,,,,,,,,,,,,,,,,,,,,,,,,,,,,,,,,,,,,,,,,,,,,,,,,,,,,,,,,,2,0,2,0,1,,,,,,,,,,,,,,,,,,,,,
,,,,,,,,,,,,5c51dd37c91d1100017760b8,37,Mężczyzna,2022-06-11_09h42.45.168,task,2021.1.4,Win32,39.94567388,6299f149e92ead563fba08ef,62a4474d3469b9eb83393fe9,,,,,,,,,,,,,1,,,,,,,,,,Task,9,(3x7) - 20,1,,,,,,,,,,,,,,,,,,,1,,,,,,,,,,,,,,,,,,,,,,,"[""1""]",1,[3.7192999999988388],0,0,0,8,1,,,,,,,,,,,,,,,,,,,,,,,,,,
,,,,,,,,,,,X V Q F H G B L J M P D K C T S W R N Z,5c51dd37c91d1100017760b8,37,Mężczyzna,2022-06-11_09h42.45.168,task,2021.1.4,Win32,39.94567388,6299f149e92ead563fba08ef,62a4474d3469b9eb83393fe9,,,,,,,,,,,,,,,,,,,,,,,,,,,,,,,,,,,,,,,,,,,,,,,,,,,,,,,,,,,,,,,,,,,,,,,,,,,,3,0,3,0,1,,,,,,,,,,,,,,,,,,,,,
,,,,,,,,,,,,5c51dd37c91d1100017760b8,37,Mężczyzna,2022-06-11_09h42.45.168,task,2021.1.4,Win32,39.94567388,6299f149e92ead563fba08ef,62a4474d3469b9eb83393fe9,,,,,,,,,,,,,4,,,,,,,,,,Task,4,(1x5) - 1,4,,,,,,,,,,,,,,,,,,,1,,,,,,,,,,,,,,,,,,,,,,,"[""4""]",1,[1.9490000000000691],0,0,0,3,1,,,,,,,,,,,,,,,,,,,,,,,,,,
,,,,,,,,,,,X V Q F H G B L J M P D K C T S W R N Z,5c51dd37c91d1100017760b8,37,Mężczyzna,2022-06-11_09h42.45.168,task,2021.1.4,Win32,39.94567388,6299f149e92ead563fba08ef,62a4474d3469b9eb83393fe9,,,,,,,,,,,,,,,,,,,,,,,,,,,,,,,,,,,,,,,,,,,,,,,,,,,,,,,,,,,,,,,,,,,,,,,,,,,,4,0,4,0,1,,,,,,,,,,,,,,,,,,,,,
,,,,,,,,,,,,5c51dd37c91d1100017760b8,37,Mężczyzna,2022-06-11_09h42.45.168,task,2021.1.4,Win32,39.94567388,6299f149e92ead563fba08ef,62a4474d3469b9eb83393fe9,,,,,,,,,,,,,4,,,,,,,,,,Task,28,(2x5) - 6,4,,,,,,,,,,,,,,,,,,,1,,,,,,,,,,,,,,,,,,,,,,,"[""4""]",1,[4.339500000000044],0,0,0,27,1,,,,,,,,,,,,,,,,,,,,,,,,,,
,,,,,,,,,,,X V Q F H G B L J M P D K C T S W R N Z,5c51dd37c91d1100017760b8,37,Mężczyzna,2022-06-11_09h42.45.168,task,2021.1.4,Win32,39.94567388,6299f149e92ead563fba08ef,62a4474d3469b9eb83393fe9,,,,,,,,,,,,,,,,,,,,,,,,,,,,,,,,,,,,,,,,,,,,,,,,,,,,,,,,,,,,,,,,,,,,,,,,,,,,5,0,5,0,1,,,,,,,,,,,,,,,,,,,,,
,,,,,,,,,,,,5c51dd37c91d1100017760b8,37,Mężczyzna,2022-06-11_09h42.45.168,task,2021.1.4,Win32,39.94567388,6299f149e92ead563fba08ef,62a4474d3469b9eb83393fe9,,,,,,,,,,,,,2,,,,,,,,,,Task,26,(2x9) - 16,2,,,,,,,,,,,,,,,,,,,1,,,,,,,,,,,,,,,,,,,,,,,"[""2""]",1,[7.0202000000010685],0,0,0,25,1,,,,,,,,,,,,,,,,,,,,,,,,,,
,,,,,,,,,,,X V Q F H G B L J M P D K C T S W R N Z,5c51dd37c91d1100017760b8,37,Mężczyzna,2022-06-11_09h42.45.168,task,2021.1.4,Win32,39.94567388,6299f149e92ead563fba08ef,62a4474d3469b9eb83393fe9,,,,,,,,,,,,,,,,,,,,,,,,,,,,,,,,,,,,,,,,,,,,,,,,,,,,,,,,,,,,,,,,,,,,,,,,,,,,6,0,6,0,1,,,,,,,,,,,,,,,,,,,,,
,,,,,,,,,,,,5c51dd37c91d1100017760b8,37,Mężczyzna,2022-06-11_09h42.45.168,task,2021.1.4,Win32,39.94567388,6299f149e92ead563fba08ef,62a4474d3469b9eb83393fe9,,,,,,,,,,,,,7,,,,,,,,,,Task,14,(2x2) + 3,7,,,,,,,,,,,,,,,,,,,1,,,,,,,,,,,,,,,,,,,,,,,"[""7""]",1,[5.672699999999168],0,0,0,13,1,,,,,,,,,,,,,,,,,,,,,,,,,,
,,,,,,,,,,,X V Q F H G B L J M P D K C T S W R N Z,5c51dd37c91d1100017760b8,37,Mężczyzna,2022-06-11_09h42.45.168,task,2021.1.4,Win32,39.94567388,6299f149e92ead563fba08ef,62a4474d3469b9eb83393fe9,,,,,,,,,,,,,,,,,,,,,,,,,,,,,,,,,,,,,,,,,,,,,,,,,,,,,,,,,,,,,,,,,,,,,,,,,,,,7,0,7,0,1,,,,,,,,,,,,,,,,,,,,,
,,,,,,,,,,,,5c51dd37c91d1100017760b8,37,Mężczyzna,2022-06-11_09h42.45.168,task,2021.1.4,Win32,39.94567388,6299f149e92ead563fba08ef,62a4474d3469b9eb83393fe9,,,,,,,,,,,,,9,,,,,,,,,,Task,40,(7x2) - 5,9,,,,,,,,,,,,,,,,,,,1,,,,,,,,,,,,,,,,,,,,,,,"[""9""]",1,[2.4010000000000673],0,0,0,39,1,,,,,,,,,,,,,,,,,,,,,,,,,,
,,,,,,,,,,,X V Q F H G B L J M P D K C T S W R N Z,5c51dd37c91d1100017760b8,37,Mężczyzna,2022-06-11_09h42.45.168,task,2021.1.4,Win32,39.94567388,6299f149e92ead563fba08ef,62a4474d3469b9eb83393fe9,,,,,,,,,,,,,,,,,,,,,,,,,,,,,,,,,,,,,,,,,,,,,,,,,,,,,,,,,,,,,,,,,,,,,,,,,,,,8,0,8,0,1,,,,,,,,,,,,,,,,,,,,,
,,,,,,,,,,,,5c51dd37c91d1100017760b8,37,Mężczyzna,2022-06-11_09h42.45.168,task,2021.1.4,Win32,39.94567388,6299f149e92ead563fba08ef,62a4474d3469b9eb83393fe9,,,,,,,,,,,,,7,,,,,,,,,,Task,38,(4x6) - 17,7,,,,,,,,,,,,,,,,,,,1,,,,,,,,,,,,,,,,,,,,,,,"[""7""]",1,[4.739299999999048],0,0,0,37,1,,,,,,,,,,,,,,,,,,,,,,,,,,
,,,,,,,,,,,X V Q F H G B L J M P D K C T S W R N Z,5c51dd37c91d1100017760b8,37,Mężczyzna,2022-06-11_09h42.45.168,task,2021.1.4,Win32,39.94567388,6299f149e92ead563fba08ef,62a4474d3469b9eb83393fe9,,,,,,,,,,,,,,,,,,,,,,,,,,,,,,,,,,,,,,,,,,,,,,,,,,,,,,,,,,,,,,,,,,,,,,,,,,,,9,0,9,0,1,,,,,,,,,,,,,,,,,,,,,
,,,,,,,,,,,,5c51dd37c91d1100017760b8,37,Mężczyzna,2022-06-11_09h42.45.168,task,2021.1.4,Win32,39.94567388,6299f149e92ead563fba08ef,62a4474d3469b9eb83393fe9,,,,,,,,,,,,,7,,,,,,,,,,Task,31,(4/2) + 5,7,,,,,,,,,,,,,,,,,,,1,,,,,,,,,,,,,,,,,,,,,,,"[""7""]",1,[4.571900000000369],0,0,0,30,1,,,,,,,,,,,,,,,,,,,,,,,,,,
,,,,,,,,,,,X V Q F H G B L J M P D K C T S W R N Z,5c51dd37c91d1100017760b8,37,Mężczyzna,2022-06-11_09h42.45.168,task,2021.1.4,Win32,39.94567388,6299f149e92ead563fba08ef,62a4474d3469b9eb83393fe9,,,,,,,,,,,,,,,,,,,,,,,,,,,,,,,,,,,,,,,,,,,,,,,,,,,,,,,,,,,,,,,,,,,,,,,,,,,,10,0,10,0,1,,,,,,,,,,,,,,,,,,,,,
,,,,,,,,,,,,5c51dd37c91d1100017760b8,37,Mężczyzna,2022-06-11_09h42.45.168,task,2021.1.4,Win32,39.94567388,6299f149e92ead563fba08ef,62a4474d3469b9eb83393fe9,,,,,,,,,,,,,,,,,,,,,,,,,,,,,,,,,,,,,,,,,,,,,,,,,,,,,,,,,,,,,,,,,,,,,,,,,,,,,,,,,vgqljjx,"[""v"",""g"",""q"",""l"",""j"",""j"",""x""]",0,"[2.921900000000278,4.422700000000987,9.060100000001512,17.33630000000062,17.95049999999992,18.403400000000374,23.608700000001136,35.09930000000077]",0,VGQWGJJLQXB,12,0,12,0,1,,,,,,,,,,
,,,,,,,,,,,,5c51dd37c91d1100017760b8,37,Mężczyzna,2022-06-11_09h42.45.168,task,2021.1.4,Win32,39.94567388,6299f149e92ead563fba08ef,62a4474d3469b9eb83393fe9,,,,,,,,,,,,,6,,,,,,,,,,Task,13,(3x4) - 6,6,,,,,,,,,,,,,,,,,,,1,,,,,,,,,,,,,,,,,,,,,,,"[""6""]",1,[5.786300000000665],0,0,0,12,1,,,,,,,,,,,,,,,,,,,,,,,,,,
,,,,,,,,,,,X V Q F H G B L J M P D K C T S W R N Z,5c51dd37c91d1100017760b8,37,Mężczyzna,2022-06-11_09h42.45.168,task,2021.1.4,Win32,39.94567388,6299f149e92ead563fba08ef,62a4474d3469b9eb83393fe9,,,,,,,,,,,,,,,,,,,,,,,,,,,,,,,,,,,,,,,,,,,,,,,,,,,,,,,,,,,,,,,,,,,,,,,,,,,,0,0,0,0,1,,,,,,,,,,,,,,,,,,,,,
,,,,,,,,,,,,5c51dd37c91d1100017760b8,37,Mężczyzna,2022-06-11_09h42.45.168,task,2021.1.4,Win32,39.94567388,6299f149e92ead563fba08ef,62a4474d3469b9eb83393fe9,,,,,,,,,,,,,3,,,,,,,,,,Task,20,(18/9) + 1,3,,,,,,,,,,,,,,,,,,,1,,,,,,,,,,,,,,,,,,,,,,,"[""3""]",1,[2.719099999999571],0,0,0,19,1,,,,,,,,,,,,,,,,,,,,,,,,,,
,,,,,,,,,,,X V Q F H G B L J M P D K C T S W R N Z,5c51dd37c91d1100017760b8,37,Mężczyzna,2022-06-11_09h42.45.168,task,2021.1.4,Win32,39.94567388,6299f149e92ead563fba08ef,62a4474d3469b9eb83393fe9,,,,,,,,,,,,,,,,,,,,,,,,,,,,,,,,,,,,,,,,,,,,,,,,,,,,,,,,,,,,,,,,,,,,,,,,,,,,1,0,1,0,1,,,,,,,,,,,,,,,,,,,,,
,,,,,,,,,,,,5c51dd37c91d1100017760b8,37,Mężczyzna,2022-06-11_09h42.45.168,task,2021.1.4,Win32,39.94567388,6299f149e92ead563fba08ef,62a4474d3469b9eb83393fe9,,,,,,,,,,,,,6,,,,,,,,,,Task,5,(2x3) + 0,6,,,,,,,,,,,,,,,,,,,1,,,,,,,,,,,,,,,,,,,,,,,"[""6""]",1,[3.242900000000418],0,0,0,4,1,,,,,,,,,,,,,,,,,,,,,,,,,,
,,,,,,,,,,,X V Q F H G B L J M P D K C T S W R N Z,5c51dd37c91d1100017760b8,37,Mężczyzna,2022-06-11_09h42.45.168,task,2021.1.4,Win32,39.94567388,6299f149e92ead563fba08ef,62a4474d3469b9eb83393fe9,,,,,,,,,,,,,,,,,,,,,,,,,,,,,,,,,,,,,,,,,,,,,,,,,,,,,,,,,,,,,,,,,,,,,,,,,,,,2,0,2,0,1,,,,,,,,,,,,,,,,,,,,,
,,,,,,,,,,,,5c51dd37c91d1100017760b8,37,Mężczyzna,2022-06-11_09h42.45.168,task,2021.1.4,Win32,39.94567388,6299f149e92ead563fba08ef,62a4474d3469b9eb83393fe9,,,,,,,,,,,,,3,,,,,,,,,,Task,20,(18/9) + 1,3,,,,,,,,,,,,,,,,,,,1,,,,,,,,,,,,,,,,,,,,,,,"[""3""]",1,[7.089599999999564],0,0,0,19,1,,,,,,,,,,,,,,,,,,,,,,,,,,
,,,,,,,,,,,X V Q F H G B L J M P D K C T S W R N Z,5c51dd37c91d1100017760b8,37,Mężczyzna,2022-06-11_09h42.45.168,task,2021.1.4,Win32,39.94567388,6299f149e92ead563fba08ef,62a4474d3469b9eb83393fe9,,,,,,,,,,,,,,,,,,,,,,,,,,,,,,,,,,,,,,,,,,,,,,,,,,,,,,,,,,,,,,,,,,,,,,,,,,,,3,0,3,0,1,,,,,,,,,,,,,,,,,,,,,
