key_resp_15.keys,key_resp_15.rt,key_resp_13.keys,key_resp_13.corr,key_resp_13.rt,ranodm_loop.thisRepN,ranodm_loop.thisTrialN,ranodm_loop.thisN,ranodm_loop.thisIndex,ranodm_loop.ran,participant,Wiek*,Płeć,date,expName,psychopyVersion,OS,frameRate,study_id,session,key_resp_16.keys,key_resp_16.rt,key_resp_4.keys,key_resp_4.rt,next_letter.thisRepN,next_letter.thisTrialN,next_letter.thisN,next_letter.thisIndex,next_letter.ran,letter,simple_recall,key_resp_5.keys,key_resp_5.rt,simple_recall_corr,simple_recall_corrkeys,next_level.thisRepN,next_level.thisTrialN,next_level.thisN,next_level.thisIndex,next_level.ran,key_resp_2.keys,key_resp_2.rt,digit_answer,key_resp.keys,key_resp.corr,key_resp.rt,RT_list,next_equation.thisRepN,next_equation.thisTrialN,next_equation.thisN,next_equation.thisIndex,next_equation.ran,Task,Trial,Problem,Operation_answer,processing_score,sumRT,meanRT,sumdiff,sd,RT,key_resp_3.keys,key_resp_3.rt,repeat_practice.thisRepN,repeat_practice.thisTrialN,repeat_practice.thisN,repeat_practice.thisIndex,repeat_practice.ran,key_resp_6.keys,key_resp_6.rt,key_resp_11.keys,key_resp_11.corr,key_resp_11.rt,operation_correct,repeat_if_wrong_prac.thisRepN,repeat_if_wrong_prac.thisTrialN,repeat_if_wrong_prac.thisN,repeat_if_wrong_prac.thisIndex,repeat_if_wrong_prac.ran,span_size_prac.thisRepN,span_size_prac.thisTrialN,span_size_prac.thisN,span_size_prac.thisIndex,span_size_prac.ran,complex_recall_practice,key_resp_9.keys,key_resp_9.corr,key_resp_9.rt,complex_prac_corr,span_recall_prac.thisRepN,span_recall_prac.thisTrialN,span_recall_prac.thisN,span_recall_prac.thisIndex,span_recall_prac.ran,key_resp_10.keys,key_resp_10.rt,key_resp_7.keys,key_resp_7.corr,key_resp_7.rt,repeat_if_wrong.thisRepN,repeat_if_wrong.thisTrialN,repeat_if_wrong.thisN,repeat_if_wrong.thisIndex,repeat_if_wrong.ran,span_size.thisRepN,span_size.thisTrialN,span_size.thisN,span_size.thisIndex,span_size.ran,complex_recall,key_resp_8.keys,key_resp_8.corr,key_resp_8.rt,complex_recall_corr,complex_recall_corrkeys,span_recall.thisRepN,span_recall.thisTrialN,span_recall.thisN,span_recall.thisIndex,span_recall.ran,key_resp_12.keys,key_resp_12.rt
space,15.287,"[""comma""]",0,[0.6000000000000014],0,0,0,0,1,5c62fb7c0ee07c00012604f8,26,Mężczyzna,2022-06-04_08h29.51.669,task,2021.1.4,MacIntel,1.587301587,628b806c463b948bc644b84f,629afabf692063e219f8d5a0,,,,,,,,,,,,,,,,,,,,,,,,,,,,,,,,,,,,,,,,,,,,,,,,,,,,,,,,,,,,,,,,,,,,,,,,,,,,,,,,,,,,,,,,,,,,,,,,,,,,,,,
,,"[""comma""]",0,[0.6490000000000009],1,0,1,0,1,5c62fb7c0ee07c00012604f8,26,Mężczyzna,2022-06-04_08h29.51.669,task,2021.1.4,MacIntel,1.587301587,628b806c463b948bc644b84f,629afabf692063e219f8d5a0,,,,,,,,,,,,,,,,,,,,,,,,,,,,,,,,,,,,,,,,,,,,,,,,,,,,,,,,,,,,,,,,,,,,,,,,,,,,,,,,,,,,,,,,,,,,,,,,,,,,,,,
,,"[""comma""]",0,[0.5210000000000008],2,0,2,0,1,5c62fb7c0ee07c00012604f8,26,Mężczyzna,2022-06-04_08h29.51.669,task,2021.1.4,MacIntel,1.587301587,628b806c463b948bc644b84f,629afabf692063e219f8d5a0,,,,,,,,,,,,,,,,,,,,,,,,,,,,,,,,,,,,,,,,,,,,,,,,,,,,,,,,,,,,,,,,,,,,,,,,,,,,,,,,,,,,,,,,,,,,,,,,,,,,,,,
,,"[""period""]",0,[0.4519999999999982],3,0,3,0,1,5c62fb7c0ee07c00012604f8,26,Mężczyzna,2022-06-04_08h29.51.669,task,2021.1.4,MacIntel,1.587301587,628b806c463b948bc644b84f,629afabf692063e219f8d5a0,,,,,,,,,,,,,,,,,,,,,,,,,,,,,,,,,,,,,,,,,,,,,,,,,,,,,,,,,,,,,,,,,,,,,,,,,,,,,,,,,,,,,,,,,,,,,,,,,,,,,,,
,,"[""period""]",0,[0.41900000000001114],4,0,4,0,1,5c62fb7c0ee07c00012604f8,26,Mężczyzna,2022-06-04_08h29.51.669,task,2021.1.4,MacIntel,1.587301587,628b806c463b948bc644b84f,629afabf692063e219f8d5a0,,,,,,,,,,,,,,,,,,,,,,,,,,,,,,,,,,,,,,,,,,,,,,,,,,,,,,,,,,,,,,,,,,,,,,,,,,,,,,,,,,,,,,,,,,,,,,,,,,,,,,,
,,"[""comma""]",0,[0.3499999999999943],5,0,5,0,1,5c62fb7c0ee07c00012604f8,26,Mężczyzna,2022-06-04_08h29.51.669,task,2021.1.4,MacIntel,1.587301587,628b806c463b948bc644b84f,629afabf692063e219f8d5a0,,,,,,,,,,,,,,,,,,,,,,,,,,,,,,,,,,,,,,,,,,,,,,,,,,,,,,,,,,,,,,,,,,,,,,,,,,,,,,,,,,,,,,,,,,,,,,,,,,,,,,,
,,"[""period""]",0,[0.6780000000000115],6,0,6,0,1,5c62fb7c0ee07c00012604f8,26,Mężczyzna,2022-06-04_08h29.51.669,task,2021.1.4,MacIntel,1.587301587,628b806c463b948bc644b84f,629afabf692063e219f8d5a0,,,,,,,,,,,,,,,,,,,,,,,,,,,,,,,,,,,,,,,,,,,,,,,,,,,,,,,,,,,,,,,,,,,,,,,,,,,,,,,,,,,,,,,,,,,,,,,,,,,,,,,
,,"[""comma""]",0,[0.6099999999999994],7,0,7,0,1,5c62fb7c0ee07c00012604f8,26,Mężczyzna,2022-06-04_08h29.51.669,task,2021.1.4,MacIntel,1.587301587,628b806c463b948bc644b84f,629afabf692063e219f8d5a0,,,,,,,,,,,,,,,,,,,,,,,,,,,,,,,,,,,,,,,,,,,,,,,,,,,,,,,,,,,,,,,,,,,,,,,,,,,,,,,,,,,,,,,,,,,,,,,,,,,,,,,
,,"[""period""]",0,[0.35300000000000864],8,0,8,0,1,5c62fb7c0ee07c00012604f8,26,Mężczyzna,2022-06-04_08h29.51.669,task,2021.1.4,MacIntel,1.587301587,628b806c463b948bc644b84f,629afabf692063e219f8d5a0,,,,,,,,,,,,,,,,,,,,,,,,,,,,,,,,,,,,,,,,,,,,,,,,,,,,,,,,,,,,,,,,,,,,,,,,,,,,,,,,,,,,,,,,,,,,,,,,,,,,,,,
,,"[""period""]",0,[0.340999999999994],9,0,9,0,1,5c62fb7c0ee07c00012604f8,26,Mężczyzna,2022-06-04_08h29.51.669,task,2021.1.4,MacIntel,1.587301587,628b806c463b948bc644b84f,629afabf692063e219f8d5a0,,,,,,,,,,,,,,,,,,,,,,,,,,,,,,,,,,,,,,,,,,,,,,,,,,,,,,,,,,,,,,,,,,,,,,,,,,,,,,,,,,,,,,,,,,,,,,,,,,,,,,,
,,"[""period""]",0,[0.7999999999999972],10,0,10,0,1,5c62fb7c0ee07c00012604f8,26,Mężczyzna,2022-06-04_08h29.51.669,task,2021.1.4,MacIntel,1.587301587,628b806c463b948bc644b84f,629afabf692063e219f8d5a0,,,,,,,,,,,,,,,,,,,,,,,,,,,,,,,,,,,,,,,,,,,,,,,,,,,,,,,,,,,,,,,,,,,,,,,,,,,,,,,,,,,,,,,,,,,,,,,,,,,,,,,
,,"[""comma""]",0,[0.44899999999999807],11,0,11,0,1,5c62fb7c0ee07c00012604f8,26,Mężczyzna,2022-06-04_08h29.51.669,task,2021.1.4,MacIntel,1.587301587,628b806c463b948bc644b84f,629afabf692063e219f8d5a0,,,,,,,,,,,,,,,,,,,,,,,,,,,,,,,,,,,,,,,,,,,,,,,,,,,,,,,,,,,,,,,,,,,,,,,,,,,,,,,,,,,,,,,,,,,,,,,,,,,,,,,
,,"[""period""]",0,[0.33899999999999864],12,0,12,0,1,5c62fb7c0ee07c00012604f8,26,Mężczyzna,2022-06-04_08h29.51.669,task,2021.1.4,MacIntel,1.587301587,628b806c463b948bc644b84f,629afabf692063e219f8d5a0,,,,,,,,,,,,,,,,,,,,,,,,,,,,,,,,,,,,,,,,,,,,,,,,,,,,,,,,,,,,,,,,,,,,,,,,,,,,,,,,,,,,,,,,,,,,,,,,,,,,,,,
,,"[""comma""]",0,[0.32500000000000284],13,0,13,0,1,5c62fb7c0ee07c00012604f8,26,Mężczyzna,2022-06-04_08h29.51.669,task,2021.1.4,MacIntel,1.587301587,628b806c463b948bc644b84f,629afabf692063e219f8d5a0,,,,,,,,,,,,,,,,,,,,,,,,,,,,,,,,,,,,,,,,,,,,,,,,,,,,,,,,,,,,,,,,,,,,,,,,,,,,,,,,,,,,,,,,,,,,,,,,,,,,,,,
,,"[""comma""]",0,[0.30100000000000193],14,0,14,0,1,5c62fb7c0ee07c00012604f8,26,Mężczyzna,2022-06-04_08h29.51.669,task,2021.1.4,MacIntel,1.587301587,628b806c463b948bc644b84f,629afabf692063e219f8d5a0,,,,,,,,,,,,,,,,,,,,,,,,,,,,,,,,,,,,,,,,,,,,,,,,,,,,,,,,,,,,,,,,,,,,,,,,,,,,,,,,,,,,,,,,,,,,,,,,,,,,,,,
,,"[""period""]",0,[0.41499999999999204],15,0,15,0,1,5c62fb7c0ee07c00012604f8,26,Mężczyzna,2022-06-04_08h29.51.669,task,2021.1.4,MacIntel,1.587301587,628b806c463b948bc644b84f,629afabf692063e219f8d5a0,,,,,,,,,,,,,,,,,,,,,,,,,,,,,,,,,,,,,,,,,,,,,,,,,,,,,,,,,,,,,,,,,,,,,,,,,,,,,,,,,,,,,,,,,,,,,,,,,,,,,,,
,,"[""period""]",0,[0.32200000000000273],16,0,16,0,1,5c62fb7c0ee07c00012604f8,26,Mężczyzna,2022-06-04_08h29.51.669,task,2021.1.4,MacIntel,1.587301587,628b806c463b948bc644b84f,629afabf692063e219f8d5a0,,,,,,,,,,,,,,,,,,,,,,,,,,,,,,,,,,,,,,,,,,,,,,,,,,,,,,,,,,,,,,,,,,,,,,,,,,,,,,,,,,,,,,,,,,,,,,,,,,,,,,,
,,"[""comma""]",0,[0.39000000000000057],17,0,17,0,1,5c62fb7c0ee07c00012604f8,26,Mężczyzna,2022-06-04_08h29.51.669,task,2021.1.4,MacIntel,1.587301587,628b806c463b948bc644b84f,629afabf692063e219f8d5a0,,,,,,,,,,,,,,,,,,,,,,,,,,,,,,,,,,,,,,,,,,,,,,,,,,,,,,,,,,,,,,,,,,,,,,,,,,,,,,,,,,,,,,,,,,,,,,,,,,,,,,,
,,"[""comma""]",0,[0.472999999999999],18,0,18,0,1,5c62fb7c0ee07c00012604f8,26,Mężczyzna,2022-06-04_08h29.51.669,task,2021.1.4,MacIntel,1.587301587,628b806c463b948bc644b84f,629afabf692063e219f8d5a0,,,,,,,,,,,,,,,,,,,,,,,,,,,,,,,,,,,,,,,,,,,,,,,,,,,,,,,,,,,,,,,,,,,,,,,,,,,,,,,,,,,,,,,,,,,,,,,,,,,,,,,
,,"[""comma""]",0,[0.5510000000000019],19,0,19,0,1,5c62fb7c0ee07c00012604f8,26,Mężczyzna,2022-06-04_08h29.51.669,task,2021.1.4,MacIntel,1.587301587,628b806c463b948bc644b84f,629afabf692063e219f8d5a0,,,,,,,,,,,,,,,,,,,,,,,,,,,,,,,,,,,,,,,,,,,,,,,,,,,,,,,,,,,,,,,,,,,,,,,,,,,,,,,,,,,,,,,,,,,,,,,,,,,,,,,
,,"[""comma""]",0,[0.7759999999999962],20,0,20,0,1,5c62fb7c0ee07c00012604f8,26,Mężczyzna,2022-06-04_08h29.51.669,task,2021.1.4,MacIntel,1.587301587,628b806c463b948bc644b84f,629afabf692063e219f8d5a0,,,,,,,,,,,,,,,,,,,,,,,,,,,,,,,,,,,,,,,,,,,,,,,,,,,,,,,,,,,,,,,,,,,,,,,,,,,,,,,,,,,,,,,,,,,,,,,,,,,,,,,
,,"[""period""]",0,[0.33200000000000784],21,0,21,0,1,5c62fb7c0ee07c00012604f8,26,Mężczyzna,2022-06-04_08h29.51.669,task,2021.1.4,MacIntel,1.587301587,628b806c463b948bc644b84f,629afabf692063e219f8d5a0,,,,,,,,,,,,,,,,,,,,,,,,,,,,,,,,,,,,,,,,,,,,,,,,,,,,,,,,,,,,,,,,,,,,,,,,,,,,,,,,,,,,,,,,,,,,,,,,,,,,,,,
,,"[""period""]",0,[0.45300000000000296],22,0,22,0,1,5c62fb7c0ee07c00012604f8,26,Mężczyzna,2022-06-04_08h29.51.669,task,2021.1.4,MacIntel,1.587301587,628b806c463b948bc644b84f,629afabf692063e219f8d5a0,,,,,,,,,,,,,,,,,,,,,,,,,,,,,,,,,,,,,,,,,,,,,,,,,,,,,,,,,,,,,,,,,,,,,,,,,,,,,,,,,,,,,,,,,,,,,,,,,,,,,,,
,,"[""comma""]",0,[0.23199999999999932],23,0,23,0,1,5c62fb7c0ee07c00012604f8,26,Mężczyzna,2022-06-04_08h29.51.669,task,2021.1.4,MacIntel,1.587301587,628b806c463b948bc644b84f,629afabf692063e219f8d5a0,,,,,,,,,,,,,,,,,,,,,,,,,,,,,,,,,,,,,,,,,,,,,,,,,,,,,,,,,,,,,,,,,,,,,,,,,,,,,,,,,,,,,,,,,,,,,,,,,,,,,,,
,,"[""period""]",0,[0.30100000000000193],24,0,24,0,1,5c62fb7c0ee07c00012604f8,26,Mężczyzna,2022-06-04_08h29.51.669,task,2021.1.4,MacIntel,1.587301587,628b806c463b948bc644b84f,629afabf692063e219f8d5a0,,,,,,,,,,,,,,,,,,,,,,,,,,,,,,,,,,,,,,,,,,,,,,,,,,,,,,,,,,,,,,,,,,,,,,,,,,,,,,,,,,,,,,,,,,,,,,,,,,,,,,,
,,"[""comma""]",0,[0.5830000000000126],25,0,25,0,1,5c62fb7c0ee07c00012604f8,26,Mężczyzna,2022-06-04_08h29.51.669,task,2021.1.4,MacIntel,1.587301587,628b806c463b948bc644b84f,629afabf692063e219f8d5a0,,,,,,,,,,,,,,,,,,,,,,,,,,,,,,,,,,,,,,,,,,,,,,,,,,,,,,,,,,,,,,,,,,,,,,,,,,,,,,,,,,,,,,,,,,,,,,,,,,,,,,,
,,"[""comma""]",0,[0.4759999999999991],26,0,26,0,1,5c62fb7c0ee07c00012604f8,26,Mężczyzna,2022-06-04_08h29.51.669,task,2021.1.4,MacIntel,1.587301587,628b806c463b948bc644b84f,629afabf692063e219f8d5a0,,,,,,,,,,,,,,,,,,,,,,,,,,,,,,,,,,,,,,,,,,,,,,,,,,,,,,,,,,,,,,,,,,,,,,,,,,,,,,,,,,,,,,,,,,,,,,,,,,,,,,,
,,"[""period""]",0,[0.5159999999999911],27,0,27,0,1,5c62fb7c0ee07c00012604f8,26,Mężczyzna,2022-06-04_08h29.51.669,task,2021.1.4,MacIntel,1.587301587,628b806c463b948bc644b84f,629afabf692063e219f8d5a0,,,,,,,,,,,,,,,,,,,,,,,,,,,,,,,,,,,,,,,,,,,,,,,,,,,,,,,,,,,,,,,,,,,,,,,,,,,,,,,,,,,,,,,,,,,,,,,,,,,,,,,
,,"[""period""]",0,[0.35600000000000875],28,0,28,0,1,5c62fb7c0ee07c00012604f8,26,Mężczyzna,2022-06-04_08h29.51.669,task,2021.1.4,MacIntel,1.587301587,628b806c463b948bc644b84f,629afabf692063e219f8d5a0,,,,,,,,,,,,,,,,,,,,,,,,,,,,,,,,,,,,,,,,,,,,,,,,,,,,,,,,,,,,,,,,,,,,,,,,,,,,,,,,,,,,,,,,,,,,,,,,,,,,,,,
,,"[""comma""]",0,[0.49800000000000466],29,0,29,0,1,5c62fb7c0ee07c00012604f8,26,Mężczyzna,2022-06-04_08h29.51.669,task,2021.1.4,MacIntel,1.587301587,628b806c463b948bc644b84f,629afabf692063e219f8d5a0,,,,,,,,,,,,,,,,,,,,,,,,,,,,,,,,,,,,,,,,,,,,,,,,,,,,,,,,,,,,,,,,,,,,,,,,,,,,,,,,,,,,,,,,,,,,,,,,,,,,,,,
,,"[""comma""]",0,[0.5720000000000027],30,0,30,0,1,5c62fb7c0ee07c00012604f8,26,Mężczyzna,2022-06-04_08h29.51.669,task,2021.1.4,MacIntel,1.587301587,628b806c463b948bc644b84f,629afabf692063e219f8d5a0,,,,,,,,,,,,,,,,,,,,,,,,,,,,,,,,,,,,,,,,,,,,,,,,,,,,,,,,,,,,,,,,,,,,,,,,,,,,,,,,,,,,,,,,,,,,,,,,,,,,,,,
,,"[""period""]",0,[0.6269999999999953],31,0,31,0,1,5c62fb7c0ee07c00012604f8,26,Mężczyzna,2022-06-04_08h29.51.669,task,2021.1.4,MacIntel,1.587301587,628b806c463b948bc644b84f,629afabf692063e219f8d5a0,,,,,,,,,,,,,,,,,,,,,,,,,,,,,,,,,,,,,,,,,,,,,,,,,,,,,,,,,,,,,,,,,,,,,,,,,,,,,,,,,,,,,,,,,,,,,,,,,,,,,,,
,,"[""period""]",0,[0.4420000000000073],32,0,32,0,1,5c62fb7c0ee07c00012604f8,26,Mężczyzna,2022-06-04_08h29.51.669,task,2021.1.4,MacIntel,1.587301587,628b806c463b948bc644b84f,629afabf692063e219f8d5a0,,,,,,,,,,,,,,,,,,,,,,,,,,,,,,,,,,,,,,,,,,,,,,,,,,,,,,,,,,,,,,,,,,,,,,,,,,,,,,,,,,,,,,,,,,,,,,,,,,,,,,,
,,"[""period""]",0,[0.6059999999999945],33,0,33,0,1,5c62fb7c0ee07c00012604f8,26,Mężczyzna,2022-06-04_08h29.51.669,task,2021.1.4,MacIntel,1.587301587,628b806c463b948bc644b84f,629afabf692063e219f8d5a0,,,,,,,,,,,,,,,,,,,,,,,,,,,,,,,,,,,,,,,,,,,,,,,,,,,,,,,,,,,,,,,,,,,,,,,,,,,,,,,,,,,,,,,,,,,,,,,,,,,,,,,
,,"[""period""]",0,[0.6599999999999966],34,0,34,0,1,5c62fb7c0ee07c00012604f8,26,Mężczyzna,2022-06-04_08h29.51.669,task,2021.1.4,MacIntel,1.587301587,628b806c463b948bc644b84f,629afabf692063e219f8d5a0,,,,,,,,,,,,,,,,,,,,,,,,,,,,,,,,,,,,,,,,,,,,,,,,,,,,,,,,,,,,,,,,,,,,,,,,,,,,,,,,,,,,,,,,,,,,,,,,,,,,,,,
,,"[""period""]",0,[0.6060000000000088],35,0,35,0,1,5c62fb7c0ee07c00012604f8,26,Mężczyzna,2022-06-04_08h29.51.669,task,2021.1.4,MacIntel,1.587301587,628b806c463b948bc644b84f,629afabf692063e219f8d5a0,,,,,,,,,,,,,,,,,,,,,,,,,,,,,,,,,,,,,,,,,,,,,,,,,,,,,,,,,,,,,,,,,,,,,,,,,,,,,,,,,,,,,,,,,,,,,,,,,,,,,,,
,,"[""comma""]",0,[0.33899999999999864],36,0,36,0,1,5c62fb7c0ee07c00012604f8,26,Mężczyzna,2022-06-04_08h29.51.669,task,2021.1.4,MacIntel,1.587301587,628b806c463b948bc644b84f,629afabf692063e219f8d5a0,,,,,,,,,,,,,,,,,,,,,,,,,,,,,,,,,,,,,,,,,,,,,,,,,,,,,,,,,,,,,,,,,,,,,,,,,,,,,,,,,,,,,,,,,,,,,,,,,,,,,,,
,,"[""comma""]",0,[0.24799999999999045],37,0,37,0,1,5c62fb7c0ee07c00012604f8,26,Mężczyzna,2022-06-04_08h29.51.669,task,2021.1.4,MacIntel,1.587301587,628b806c463b948bc644b84f,629afabf692063e219f8d5a0,,,,,,,,,,,,,,,,,,,,,,,,,,,,,,,,,,,,,,,,,,,,,,,,,,,,,,,,,,,,,,,,,,,,,,,,,,,,,,,,,,,,,,,,,,,,,,,,,,,,,,,
,,"[""period""]",0,[0.18600000000000705],38,0,38,0,1,5c62fb7c0ee07c00012604f8,26,Mężczyzna,2022-06-04_08h29.51.669,task,2021.1.4,MacIntel,1.587301587,628b806c463b948bc644b84f,629afabf692063e219f8d5a0,,,,,,,,,,,,,,,,,,,,,,,,,,,,,,,,,,,,,,,,,,,,,,,,,,,,,,,,,,,,,,,,,,,,,,,,,,,,,,,,,,,,,,,,,,,,,,,,,,,,,,,
,,"[""comma""]",0,[0.07499999999998863],39,0,39,0,1,5c62fb7c0ee07c00012604f8,26,Mężczyzna,2022-06-04_08h29.51.669,task,2021.1.4,MacIntel,1.587301587,628b806c463b948bc644b84f,629afabf692063e219f8d5a0,,,,,,,,,,,,,,,,,,,,,,,,,,,,,,,,,,,,,,,,,,,,,,,,,,,,,,,,,,,,,,,,,,,,,,,,,,,,,,,,,,,,,,,,,,,,,,,,,,,,,,,
,,"[""period""]",0,[0.32200000000000273],40,0,40,0,1,5c62fb7c0ee07c00012604f8,26,Mężczyzna,2022-06-04_08h29.51.669,task,2021.1.4,MacIntel,1.587301587,628b806c463b948bc644b84f,629afabf692063e219f8d5a0,,,,,,,,,,,,,,,,,,,,,,,,,,,,,,,,,,,,,,,,,,,,,,,,,,,,,,,,,,,,,,,,,,,,,,,,,,,,,,,,,,,,,,,,,,,,,,,,,,,,,,,
,,"[""period""]",0,[0.4689999999999941],41,0,41,0,1,5c62fb7c0ee07c00012604f8,26,Mężczyzna,2022-06-04_08h29.51.669,task,2021.1.4,MacIntel,1.587301587,628b806c463b948bc644b84f,629afabf692063e219f8d5a0,,,,,,,,,,,,,,,,,,,,,,,,,,,,,,,,,,,,,,,,,,,,,,,,,,,,,,,,,,,,,,,,,,,,,,,,,,,,,,,,,,,,,,,,,,,,,,,,,,,,,,,
,,"[""comma""]",0,[0.6089999999999804],42,0,42,0,1,5c62fb7c0ee07c00012604f8,26,Mężczyzna,2022-06-04_08h29.51.669,task,2021.1.4,MacIntel,1.587301587,628b806c463b948bc644b84f,629afabf692063e219f8d5a0,,,,,,,,,,,,,,,,,,,,,,,,,,,,,,,,,,,,,,,,,,,,,,,,,,,,,,,,,,,,,,,,,,,,,,,,,,,,,,,,,,,,,,,,,,,,,,,,,,,,,,,
,,"[""comma""]",0,[0.4259999999999877],43,0,43,0,1,5c62fb7c0ee07c00012604f8,26,Mężczyzna,2022-06-04_08h29.51.669,task,2021.1.4,MacIntel,1.587301587,628b806c463b948bc644b84f,629afabf692063e219f8d5a0,,,,,,,,,,,,,,,,,,,,,,,,,,,,,,,,,,,,,,,,,,,,,,,,,,,,,,,,,,,,,,,,,,,,,,,,,,,,,,,,,,,,,,,,,,,,,,,,,,,,,,,
,,"[""comma""]",0,[0.8650000000000375],44,0,44,0,1,5c62fb7c0ee07c00012604f8,26,Mężczyzna,2022-06-04_08h29.51.669,task,2021.1.4,MacIntel,1.587301587,628b806c463b948bc644b84f,629afabf692063e219f8d5a0,,,,,,,,,,,,,,,,,,,,,,,,,,,,,,,,,,,,,,,,,,,,,,,,,,,,,,,,,,,,,,,,,,,,,,,,,,,,,,,,,,,,,,,,,,,,,,,,,,,,,,,
,,"[""period""]",0,[0.5260000000000105],45,0,45,0,1,5c62fb7c0ee07c00012604f8,26,Mężczyzna,2022-06-04_08h29.51.669,task,2021.1.4,MacIntel,1.587301587,628b806c463b948bc644b84f,629afabf692063e219f8d5a0,,,,,,,,,,,,,,,,,,,,,,,,,,,,,,,,,,,,,,,,,,,,,,,,,,,,,,,,,,,,,,,,,,,,,,,,,,,,,,,,,,,,,,,,,,,,,,,,,,,,,,,
,,"[""period""]",0,[0.3499999999999943],46,0,46,0,1,5c62fb7c0ee07c00012604f8,26,Mężczyzna,2022-06-04_08h29.51.669,task,2021.1.4,MacIntel,1.587301587,628b806c463b948bc644b84f,629afabf692063e219f8d5a0,,,,,,,,,,,,,,,,,,,,,,,,,,,,,,,,,,,,,,,,,,,,,,,,,,,,,,,,,,,,,,,,,,,,,,,,,,,,,,,,,,,,,,,,,,,,,,,,,,,,,,,
,,"[""comma""]",0,[0.4509999999999934],47,0,47,0,1,5c62fb7c0ee07c00012604f8,26,Mężczyzna,2022-06-04_08h29.51.669,task,2021.1.4,MacIntel,1.587301587,628b806c463b948bc644b84f,629afabf692063e219f8d5a0,,,,,,,,,,,,,,,,,,,,,,,,,,,,,,,,,,,,,,,,,,,,,,,,,,,,,,,,,,,,,,,,,,,,,,,,,,,,,,,,,,,,,,,,,,,,,,,,,,,,,,,
,,"[""comma""]",0,[0.4989999999999952],48,0,48,0,1,5c62fb7c0ee07c00012604f8,26,Mężczyzna,2022-06-04_08h29.51.669,task,2021.1.4,MacIntel,1.587301587,628b806c463b948bc644b84f,629afabf692063e219f8d5a0,,,,,,,,,,,,,,,,,,,,,,,,,,,,,,,,,,,,,,,,,,,,,,,,,,,,,,,,,,,,,,,,,,,,,,,,,,,,,,,,,,,,,,,,,,,,,,,,,,,,,,,
,,"[""comma""]",0,[0.3509999999999991],49,0,49,0,1,5c62fb7c0ee07c00012604f8,26,Mężczyzna,2022-06-04_08h29.51.669,task,2021.1.4,MacIntel,1.587301587,628b806c463b948bc644b84f,629afabf692063e219f8d5a0,,,,,,,,,,,,,,,,,,,,,,,,,,,,,,,,,,,,,,,,,,,,,,,,,,,,,,,,,,,,,,,,,,,,,,,,,,,,,,,,,,,,,,,,,,,,,,,,,,,,,,,
,,"[""period""]",0,[0.25899999999998613],50,0,50,0,1,5c62fb7c0ee07c00012604f8,26,Mężczyzna,2022-06-04_08h29.51.669,task,2021.1.4,MacIntel,1.587301587,628b806c463b948bc644b84f,629afabf692063e219f8d5a0,,,,,,,,,,,,,,,,,,,,,,,,,,,,,,,,,,,,,,,,,,,,,,,,,,,,,,,,,,,,,,,,,,,,,,,,,,,,,,,,,,,,,,,,,,,,,,,,,,,,,,,
,,"[""comma""]",0,[0.24799999999999045],51,0,51,0,1,5c62fb7c0ee07c00012604f8,26,Mężczyzna,2022-06-04_08h29.51.669,task,2021.1.4,MacIntel,1.587301587,628b806c463b948bc644b84f,629afabf692063e219f8d5a0,,,,,,,,,,,,,,,,,,,,,,,,,,,,,,,,,,,,,,,,,,,,,,,,,,,,,,,,,,,,,,,,,,,,,,,,,,,,,,,,,,,,,,,,,,,,,,,,,,,,,,,
,,"[""period""]",0,[0.21599999999997976],52,0,52,0,1,5c62fb7c0ee07c00012604f8,26,Mężczyzna,2022-06-04_08h29.51.669,task,2021.1.4,MacIntel,1.587301587,628b806c463b948bc644b84f,629afabf692063e219f8d5a0,,,,,,,,,,,,,,,,,,,,,,,,,,,,,,,,,,,,,,,,,,,,,,,,,,,,,,,,,,,,,,,,,,,,,,,,,,,,,,,,,,,,,,,,,,,,,,,,,,,,,,,
,,"[""period""]",0,[0.47199999999998],53,0,53,0,1,5c62fb7c0ee07c00012604f8,26,Mężczyzna,2022-06-04_08h29.51.669,task,2021.1.4,MacIntel,1.587301587,628b806c463b948bc644b84f,629afabf692063e219f8d5a0,,,,,,,,,,,,,,,,,,,,,,,,,,,,,,,,,,,,,,,,,,,,,,,,,,,,,,,,,,,,,,,,,,,,,,,,,,,,,,,,,,,,,,,,,,,,,,,,,,,,,,,
,,"[""comma""]",0,[0.4099999999999966],54,0,54,0,1,5c62fb7c0ee07c00012604f8,26,Mężczyzna,2022-06-04_08h29.51.669,task,2021.1.4,MacIntel,1.587301587,628b806c463b948bc644b84f,629afabf692063e219f8d5a0,,,,,,,,,,,,,,,,,,,,,,,,,,,,,,,,,,,,,,,,,,,,,,,,,,,,,,,,,,,,,,,,,,,,,,,,,,,,,,,,,,,,,,,,,,,,,,,,,,,,,,,
,,"[""period""]",0,[0.8400000000000034],55,0,55,0,1,5c62fb7c0ee07c00012604f8,26,Mężczyzna,2022-06-04_08h29.51.669,task,2021.1.4,MacIntel,1.587301587,628b806c463b948bc644b84f,629afabf692063e219f8d5a0,,,,,,,,,,,,,,,,,,,,,,,,,,,,,,,,,,,,,,,,,,,,,,,,,,,,,,,,,,,,,,,,,,,,,,,,,,,,,,,,,,,,,,,,,,,,,,,,,,,,,,,
,,"[""comma""]",0,[0.4989999999999952],56,0,56,0,1,5c62fb7c0ee07c00012604f8,26,Mężczyzna,2022-06-04_08h29.51.669,task,2021.1.4,MacIntel,1.587301587,628b806c463b948bc644b84f,629afabf692063e219f8d5a0,,,,,,,,,,,,,,,,,,,,,,,,,,,,,,,,,,,,,,,,,,,,,,,,,,,,,,,,,,,,,,,,,,,,,,,,,,,,,,,,,,,,,,,,,,,,,,,,,,,,,,,
,,"[""period""]",0,[0.532999999999987],57,0,57,0,1,5c62fb7c0ee07c00012604f8,26,Mężczyzna,2022-06-04_08h29.51.669,task,2021.1.4,MacIntel,1.587301587,628b806c463b948bc644b84f,629afabf692063e219f8d5a0,,,,,,,,,,,,,,,,,,,,,,,,,,,,,,,,,,,,,,,,,,,,,,,,,,,,,,,,,,,,,,,,,,,,,,,,,,,,,,,,,,,,,,,,,,,,,,,,,,,,,,,
,,"[""period""]",0,[0.2580000000000098],58,0,58,0,1,5c62fb7c0ee07c00012604f8,26,Mężczyzna,2022-06-04_08h29.51.669,task,2021.1.4,MacIntel,1.587301587,628b806c463b948bc644b84f,629afabf692063e219f8d5a0,,,,,,,,,,,,,,,,,,,,,,,,,,,,,,,,,,,,,,,,,,,,,,,,,,,,,,,,,,,,,,,,,,,,,,,,,,,,,,,,,,,,,,,,,,,,,,,,,,,,,,,
,,"[""comma""]",0,[0.29300000000000637],59,0,59,0,1,5c62fb7c0ee07c00012604f8,26,Mężczyzna,2022-06-04_08h29.51.669,task,2021.1.4,MacIntel,1.587301587,628b806c463b948bc644b84f,629afabf692063e219f8d5a0,,,,,,,,,,,,,,,,,,,,,,,,,,,,,,,,,,,,,,,,,,,,,,,,,,,,,,,,,,,,,,,,,,,,,,,,,,,,,,,,,,,,,,,,,,,,,,,,,,,,,,,
,,"[""period""]",0,[0.056000000000011596],60,0,60,0,1,5c62fb7c0ee07c00012604f8,26,Mężczyzna,2022-06-04_08h29.51.669,task,2021.1.4,MacIntel,1.587301587,628b806c463b948bc644b84f,629afabf692063e219f8d5a0,,,,,,,,,,,,,,,,,,,,,,,,,,,,,,,,,,,,,,,,,,,,,,,,,,,,,,,,,,,,,,,,,,,,,,,,,,,,,,,,,,,,,,,,,,,,,,,,,,,,,,,
,,"[""comma""]",0,[0.24200000000001864],61,0,61,0,1,5c62fb7c0ee07c00012604f8,26,Mężczyzna,2022-06-04_08h29.51.669,task,2021.1.4,MacIntel,1.587301587,628b806c463b948bc644b84f,629afabf692063e219f8d5a0,,,,,,,,,,,,,,,,,,,,,,,,,,,,,,,,,,,,,,,,,,,,,,,,,,,,,,,,,,,,,,,,,,,,,,,,,,,,,,,,,,,,,,,,,,,,,,,,,,,,,,,
,,"[""comma""]",0,[0.4870000000000516],62,0,62,0,1,5c62fb7c0ee07c00012604f8,26,Mężczyzna,2022-06-04_08h29.51.669,task,2021.1.4,MacIntel,1.587301587,628b806c463b948bc644b84f,629afabf692063e219f8d5a0,,,,,,,,,,,,,,,,,,,,,,,,,,,,,,,,,,,,,,,,,,,,,,,,,,,,,,,,,,,,,,,,,,,,,,,,,,,,,,,,,,,,,,,,,,,,,,,,,,,,,,,
,,"[""comma""]",0,[0.30400000000000205],63,0,63,0,1,5c62fb7c0ee07c00012604f8,26,Mężczyzna,2022-06-04_08h29.51.669,task,2021.1.4,MacIntel,1.587301587,628b806c463b948bc644b84f,629afabf692063e219f8d5a0,,,,,,,,,,,,,,,,,,,,,,,,,,,,,,,,,,,,,,,,,,,,,,,,,,,,,,,,,,,,,,,,,,,,,,,,,,,,,,,,,,,,,,,,,,,,,,,,,,,,,,,
,,"[""period""]",0,[0.2109999999999843],64,0,64,0,1,5c62fb7c0ee07c00012604f8,26,Mężczyzna,2022-06-04_08h29.51.669,task,2021.1.4,MacIntel,1.587301587,628b806c463b948bc644b84f,629afabf692063e219f8d5a0,,,,,,,,,,,,,,,,,,,,,,,,,,,,,,,,,,,,,,,,,,,,,,,,,,,,,,,,,,,,,,,,,,,,,,,,,,,,,,,,,,,,,,,,,,,,,,,,,,,,,,,
,,"[""comma""]",0,[0.36000000000001364],65,0,65,0,1,5c62fb7c0ee07c00012604f8,26,Mężczyzna,2022-06-04_08h29.51.669,task,2021.1.4,MacIntel,1.587301587,628b806c463b948bc644b84f,629afabf692063e219f8d5a0,,,,,,,,,,,,,,,,,,,,,,,,,,,,,,,,,,,,,,,,,,,,,,,,,,,,,,,,,,,,,,,,,,,,,,,,,,,,,,,,,,,,,,,,,,,,,,,,,,,,,,,
,,"[""period""]",0,[0.3190000000000168],66,0,66,0,1,5c62fb7c0ee07c00012604f8,26,Mężczyzna,2022-06-04_08h29.51.669,task,2021.1.4,MacIntel,1.587301587,628b806c463b948bc644b84f,629afabf692063e219f8d5a0,,,,,,,,,,,,,,,,,,,,,,,,,,,,,,,,,,,,,,,,,,,,,,,,,,,,,,,,,,,,,,,,,,,,,,,,,,,,,,,,,,,,,,,,,,,,,,,,,,,,,,,
,,"[""comma""]",0,[0.2530000000000143],67,0,67,0,1,5c62fb7c0ee07c00012604f8,26,Mężczyzna,2022-06-04_08h29.51.669,task,2021.1.4,MacIntel,1.587301587,628b806c463b948bc644b84f,629afabf692063e219f8d5a0,,,,,,,,,,,,,,,,,,,,,,,,,,,,,,,,,,,,,,,,,,,,,,,,,,,,,,,,,,,,,,,,,,,,,,,,,,,,,,,,,,,,,,,,,,,,,,,,,,,,,,,
,,"[""comma""]",0,[0.20300000000000296],68,0,68,0,1,5c62fb7c0ee07c00012604f8,26,Mężczyzna,2022-06-04_08h29.51.669,task,2021.1.4,MacIntel,1.587301587,628b806c463b948bc644b84f,629afabf692063e219f8d5a0,,,,,,,,,,,,,,,,,,,,,,,,,,,,,,,,,,,,,,,,,,,,,,,,,,,,,,,,,,,,,,,,,,,,,,,,,,,,,,,,,,,,,,,,,,,,,,,,,,,,,,,
,,"[""period""]",0,[0.2330000000000041],69,0,69,0,1,5c62fb7c0ee07c00012604f8,26,Mężczyzna,2022-06-04_08h29.51.669,task,2021.1.4,MacIntel,1.587301587,628b806c463b948bc644b84f,629afabf692063e219f8d5a0,,,,,,,,,,,,,,,,,,,,,,,,,,,,,,,,,,,,,,,,,,,,,,,,,,,,,,,,,,,,,,,,,,,,,,,,,,,,,,,,,,,,,,,,,,,,,,,,,,,,,,,
,,"[""period""]",0,[0.16599999999999682],70,0,70,0,1,5c62fb7c0ee07c00012604f8,26,Mężczyzna,2022-06-04_08h29.51.669,task,2021.1.4,MacIntel,1.587301587,628b806c463b948bc644b84f,629afabf692063e219f8d5a0,,,,,,,,,,,,,,,,,,,,,,,,,,,,,,,,,,,,,,,,,,,,,,,,,,,,,,,,,,,,,,,,,,,,,,,,,,,,,,,,,,,,,,,,,,,,,,,,,,,,,,,
,,"[""period""]",0,[0.13500000000001933],71,0,71,0,1,5c62fb7c0ee07c00012604f8,26,Mężczyzna,2022-06-04_08h29.51.669,task,2021.1.4,MacIntel,1.587301587,628b806c463b948bc644b84f,629afabf692063e219f8d5a0,,,,,,,,,,,,,,,,,,,,,,,,,,,,,,,,,,,,,,,,,,,,,,,,,,,,,,,,,,,,,,,,,,,,,,,,,,,,,,,,,,,,,,,,,,,,,,,,,,,,,,,
,,"[""comma""]",0,[0.25200000000000955],72,0,72,0,1,5c62fb7c0ee07c00012604f8,26,Mężczyzna,2022-06-04_08h29.51.669,task,2021.1.4,MacIntel,1.587301587,628b806c463b948bc644b84f,629afabf692063e219f8d5a0,,,,,,,,,,,,,,,,,,,,,,,,,,,,,,,,,,,,,,,,,,,,,,,,,,,,,,,,,,,,,,,,,,,,,,,,,,,,,,,,,,,,,,,,,,,,,,,,,,,,,,,
,,"[""period""]",0,[0.27800000000002],73,0,73,0,1,5c62fb7c0ee07c00012604f8,26,Mężczyzna,2022-06-04_08h29.51.669,task,2021.1.4,MacIntel,1.587301587,628b806c463b948bc644b84f,629afabf692063e219f8d5a0,,,,,,,,,,,,,,,,,,,,,,,,,,,,,,,,,,,,,,,,,,,,,,,,,,,,,,,,,,,,,,,,,,,,,,,,,,,,,,,,,,,,,,,,,,,,,,,,,,,,,,,
,,"[""comma""]",0,[0.41499999999999204],74,0,74,0,1,5c62fb7c0ee07c00012604f8,26,Mężczyzna,2022-06-04_08h29.51.669,task,2021.1.4,MacIntel,1.587301587,628b806c463b948bc644b84f,629afabf692063e219f8d5a0,,,,,,,,,,,,,,,,,,,,,,,,,,,,,,,,,,,,,,,,,,,,,,,,,,,,,,,,,,,,,,,,,,,,,,,,,,,,,,,,,,,,,,,,,,,,,,,,,,,,,,,
,,"[""comma""]",0,[0.35599999999999454],75,0,75,0,1,5c62fb7c0ee07c00012604f8,26,Mężczyzna,2022-06-04_08h29.51.669,task,2021.1.4,MacIntel,1.587301587,628b806c463b948bc644b84f,629afabf692063e219f8d5a0,,,,,,,,,,,,,,,,,,,,,,,,,,,,,,,,,,,,,,,,,,,,,,,,,,,,,,,,,,,,,,,,,,,,,,,,,,,,,,,,,,,,,,,,,,,,,,,,,,,,,,,
,,"[""comma""]",0,[0.29699999999999704],76,0,76,0,1,5c62fb7c0ee07c00012604f8,26,Mężczyzna,2022-06-04_08h29.51.669,task,2021.1.4,MacIntel,1.587301587,628b806c463b948bc644b84f,629afabf692063e219f8d5a0,,,,,,,,,,,,,,,,,,,,,,,,,,,,,,,,,,,,,,,,,,,,,,,,,,,,,,,,,,,,,,,,,,,,,,,,,,,,,,,,,,,,,,,,,,,,,,,,,,,,,,,
,,"[""comma""]",0,[0.2669999999999959],77,0,77,0,1,5c62fb7c0ee07c00012604f8,26,Mężczyzna,2022-06-04_08h29.51.669,task,2021.1.4,MacIntel,1.587301587,628b806c463b948bc644b84f,629afabf692063e219f8d5a0,,,,,,,,,,,,,,,,,,,,,,,,,,,,,,,,,,,,,,,,,,,,,,,,,,,,,,,,,,,,,,,,,,,,,,,,,,,,,,,,,,,,,,,,,,,,,,,,,,,,,,,
,,"[""period""]",0,[0.117999999999995],78,0,78,0,1,5c62fb7c0ee07c00012604f8,26,Mężczyzna,2022-06-04_08h29.51.669,task,2021.1.4,MacIntel,1.587301587,628b806c463b948bc644b84f,629afabf692063e219f8d5a0,,,,,,,,,,,,,,,,,,,,,,,,,,,,,,,,,,,,,,,,,,,,,,,,,,,,,,,,,,,,,,,,,,,,,,,,,,,,,,,,,,,,,,,,,,,,,,,,,,,,,,,
,,"[""period""]",0,[0.06700000000000728],79,0,79,0,1,5c62fb7c0ee07c00012604f8,26,Mężczyzna,2022-06-04_08h29.51.669,task,2021.1.4,MacIntel,1.587301587,628b806c463b948bc644b84f,629afabf692063e219f8d5a0,,,,,,,,,,,,,,,,,,,,,,,,,,,,,,,,,,,,,,,,,,,,,,,,,,,,,,,,,,,,,,,,,,,,,,,,,,,,,,,,,,,,,,,,,,,,,,,,,,,,,,,
,,"[""comma""]",0,[0.16900000000001114],80,0,80,0,1,5c62fb7c0ee07c00012604f8,26,Mężczyzna,2022-06-04_08h29.51.669,task,2021.1.4,MacIntel,1.587301587,628b806c463b948bc644b84f,629afabf692063e219f8d5a0,,,,,,,,,,,,,,,,,,,,,,,,,,,,,,,,,,,,,,,,,,,,,,,,,,,,,,,,,,,,,,,,,,,,,,,,,,,,,,,,,,,,,,,,,,,,,,,,,,,,,,,
,,"[""period""]",0,[0.27600000000001046],81,0,81,0,1,5c62fb7c0ee07c00012604f8,26,Mężczyzna,2022-06-04_08h29.51.669,task,2021.1.4,MacIntel,1.587301587,628b806c463b948bc644b84f,629afabf692063e219f8d5a0,,,,,,,,,,,,,,,,,,,,,,,,,,,,,,,,,,,,,,,,,,,,,,,,,,,,,,,,,,,,,,,,,,,,,,,,,,,,,,,,,,,,,,,,,,,,,,,,,,,,,,,
,,"[""comma""]",0,[0.2079999999999984],82,0,82,0,1,5c62fb7c0ee07c00012604f8,26,Mężczyzna,2022-06-04_08h29.51.669,task,2021.1.4,MacIntel,1.587301587,628b806c463b948bc644b84f,629afabf692063e219f8d5a0,,,,,,,,,,,,,,,,,,,,,,,,,,,,,,,,,,,,,,,,,,,,,,,,,,,,,,,,,,,,,,,,,,,,,,,,,,,,,,,,,,,,,,,,,,,,,,,,,,,,,,,
,,"[""period""]",0,[0.2120000000000175],83,0,83,0,1,5c62fb7c0ee07c00012604f8,26,Mężczyzna,2022-06-04_08h29.51.669,task,2021.1.4,MacIntel,1.587301587,628b806c463b948bc644b84f,629afabf692063e219f8d5a0,,,,,,,,,,,,,,,,,,,,,,,,,,,,,,,,,,,,,,,,,,,,,,,,,,,,,,,,,,,,,,,,,,,,,,,,,,,,,,,,,,,,,,,,,,,,,,,,,,,,,,,
,,"[""period""]",0,[0.23699999999999477],84,0,84,0,1,5c62fb7c0ee07c00012604f8,26,Mężczyzna,2022-06-04_08h29.51.669,task,2021.1.4,MacIntel,1.587301587,628b806c463b948bc644b84f,629afabf692063e219f8d5a0,,,,,,,,,,,,,,,,,,,,,,,,,,,,,,,,,,,,,,,,,,,,,,,,,,,,,,,,,,,,,,,,,,,,,,,,,,,,,,,,,,,,,,,,,,,,,,,,,,,,,,,
,,"[""period""]",0,[0.32200000000000273],85,0,85,0,1,5c62fb7c0ee07c00012604f8,26,Mężczyzna,2022-06-04_08h29.51.669,task,2021.1.4,MacIntel,1.587301587,628b806c463b948bc644b84f,629afabf692063e219f8d5a0,,,,,,,,,,,,,,,,,,,,,,,,,,,,,,,,,,,,,,,,,,,,,,,,,,,,,,,,,,,,,,,,,,,,,,,,,,,,,,,,,,,,,,,,,,,,,,,,,,,,,,,
,,"[""comma""]",0,[0.6159999999999854],86,0,86,0,1,5c62fb7c0ee07c00012604f8,26,Mężczyzna,2022-06-04_08h29.51.669,task,2021.1.4,MacIntel,1.587301587,628b806c463b948bc644b84f,629afabf692063e219f8d5a0,,,,,,,,,,,,,,,,,,,,,,,,,,,,,,,,,,,,,,,,,,,,,,,,,,,,,,,,,,,,,,,,,,,,,,,,,,,,,,,,,,,,,,,,,,,,,,,,,,,,,,,
,,"[""period""]",0,[0.4379999999999882],87,0,87,0,1,5c62fb7c0ee07c00012604f8,26,Mężczyzna,2022-06-04_08h29.51.669,task,2021.1.4,MacIntel,1.587301587,628b806c463b948bc644b84f,629afabf692063e219f8d5a0,,,,,,,,,,,,,,,,,,,,,,,,,,,,,,,,,,,,,,,,,,,,,,,,,,,,,,,,,,,,,,,,,,,,,,,,,,,,,,,,,,,,,,,,,,,,,,,,,,,,,,,
,,"[""period"",""comma""]",0,"[0.30299999999999727,1.8359999999999843]",88,0,88,0,1,5c62fb7c0ee07c00012604f8,26,Mężczyzna,2022-06-04_08h29.51.669,task,2021.1.4,MacIntel,1.587301587,628b806c463b948bc644b84f,629afabf692063e219f8d5a0,,,,,,,,,,,,,,,,,,,,,,,,,,,,,,,,,,,,,,,,,,,,,,,,,,,,,,,,,,,,,,,,,,,,,,,,,,,,,,,,,,,,,,,,,,,,,,,,,,,,,,,
,,"[""comma""]",0,[1.7199999999999989],89,0,89,0,1,5c62fb7c0ee07c00012604f8,26,Mężczyzna,2022-06-04_08h29.51.669,task,2021.1.4,MacIntel,1.587301587,628b806c463b948bc644b84f,629afabf692063e219f8d5a0,,,,,,,,,,,,,,,,,,,,,,,,,,,,,,,,,,,,,,,,,,,,,,,,,,,,,,,,,,,,,,,,,,,,,,,,,,,,,,,,,,,,,,,,,,,,,,,,,,,,,,,
,,"[""period""]",0,[1.975999999999999],90,0,90,0,1,5c62fb7c0ee07c00012604f8,26,Mężczyzna,2022-06-04_08h29.51.669,task,2021.1.4,MacIntel,1.587301587,628b806c463b948bc644b84f,629afabf692063e219f8d5a0,,,,,,,,,,,,,,,,,,,,,,,,,,,,,,,,,,,,,,,,,,,,,,,,,,,,,,,,,,,,,,,,,,,,,,,,,,,,,,,,,,,,,,,,,,,,,,,,,,,,,,,
,,"[""period""]",0,[1.7819999999999823],91,0,91,0,1,5c62fb7c0ee07c00012604f8,26,Mężczyzna,2022-06-04_08h29.51.669,task,2021.1.4,MacIntel,1.587301587,628b806c463b948bc644b84f,629afabf692063e219f8d5a0,,,,,,,,,,,,,,,,,,,,,,,,,,,,,,,,,,,,,,,,,,,,,,,,,,,,,,,,,,,,,,,,,,,,,,,,,,,,,,,,,,,,,,,,,,,,,,,,,,,,,,,
,,"[""comma""]",0,[1.6430000000000007],92,0,92,0,1,5c62fb7c0ee07c00012604f8,26,Mężczyzna,2022-06-04_08h29.51.669,task,2021.1.4,MacIntel,1.587301587,628b806c463b948bc644b84f,629afabf692063e219f8d5a0,,,,,,,,,,,,,,,,,,,,,,,,,,,,,,,,,,,,,,,,,,,,,,,,,,,,,,,,,,,,,,,,,,,,,,,,,,,,,,,,,,,,,,,,,,,,,,,,,,,,,,,
,,"[""period""]",0,[1.6829999999999927],93,0,93,0,1,5c62fb7c0ee07c00012604f8,26,Mężczyzna,2022-06-04_08h29.51.669,task,2021.1.4,MacIntel,1.587301587,628b806c463b948bc644b84f,629afabf692063e219f8d5a0,,,,,,,,,,,,,,,,,,,,,,,,,,,,,,,,,,,,,,,,,,,,,,,,,,,,,,,,,,,,,,,,,,,,,,,,,,,,,,,,,,,,,,,,,,,,,,,,,,,,,,,
,,"[""comma""]",0,[1.6680000000000064],94,0,94,0,1,5c62fb7c0ee07c00012604f8,26,Mężczyzna,2022-06-04_08h29.51.669,task,2021.1.4,MacIntel,1.587301587,628b806c463b948bc644b84f,629afabf692063e219f8d5a0,,,,,,,,,,,,,,,,,,,,,,,,,,,,,,,,,,,,,,,,,,,,,,,,,,,,,,,,,,,,,,,,,,,,,,,,,,,,,,,,,,,,,,,,,,,,,,,,,,,,,,,
,,"[""period""]",0,[1.328000000000003],95,0,95,0,1,5c62fb7c0ee07c00012604f8,26,Mężczyzna,2022-06-04_08h29.51.669,task,2021.1.4,MacIntel,1.587301587,628b806c463b948bc644b84f,629afabf692063e219f8d5a0,,,,,,,,,,,,,,,,,,,,,,,,,,,,,,,,,,,,,,,,,,,,,,,,,,,,,,,,,,,,,,,,,,,,,,,,,,,,,,,,,,,,,,,,,,,,,,,,,,,,,,,
,,"[""comma""]",0,[0.8340000000000032],96,0,96,0,1,5c62fb7c0ee07c00012604f8,26,Mężczyzna,2022-06-04_08h29.51.669,task,2021.1.4,MacIntel,1.587301587,628b806c463b948bc644b84f,629afabf692063e219f8d5a0,,,,,,,,,,,,,,,,,,,,,,,,,,,,,,,,,,,,,,,,,,,,,,,,,,,,,,,,,,,,,,,,,,,,,,,,,,,,,,,,,,,,,,,,,,,,,,,,,,,,,,,
,,"[""comma""]",0,[0.5240000000000009],97,0,97,0,1,5c62fb7c0ee07c00012604f8,26,Mężczyzna,2022-06-04_08h29.51.669,task,2021.1.4,MacIntel,1.587301587,628b806c463b948bc644b84f,629afabf692063e219f8d5a0,,,,,,,,,,,,,,,,,,,,,,,,,,,,,,,,,,,,,,,,,,,,,,,,,,,,,,,,,,,,,,,,,,,,,,,,,,,,,,,,,,,,,,,,,,,,,,,,,,,,,,,
,,"[""period""]",0,[0.2179999999999893],98,0,98,0,1,5c62fb7c0ee07c00012604f8,26,Mężczyzna,2022-06-04_08h29.51.669,task,2021.1.4,MacIntel,1.587301587,628b806c463b948bc644b84f,629afabf692063e219f8d5a0,,,,,,,,,,,,,,,,,,,,,,,,,,,,,,,,,,,,,,,,,,,,,,,,,,,,,,,,,,,,,,,,,,,,,,,,,,,,,,,,,,,,,,,,,,,,,,,,,,,,,,,
,,"[""period"",""period""]",0,"[0.006000000000000227,1.7349999999999852]",99,0,99,0,1,5c62fb7c0ee07c00012604f8,26,Mężczyzna,2022-06-04_08h29.51.669,task,2021.1.4,MacIntel,1.587301587,628b806c463b948bc644b84f,629afabf692063e219f8d5a0,,,,,,,,,,,,,,,,,,,,,,,,,,,,,,,,,,,,,,,,,,,,,,,,,,,,,,,,,,,,,,,,,,,,,,,,,,,,,,,,,,,,,,,,,,,,,,,,,,,,,,,
,,"[""comma""]",0,[1.8269999999999982],100,0,100,0,1,5c62fb7c0ee07c00012604f8,26,Mężczyzna,2022-06-04_08h29.51.669,task,2021.1.4,MacIntel,1.587301587,628b806c463b948bc644b84f,629afabf692063e219f8d5a0,,,,,,,,,,,,,,,,,,,,,,,,,,,,,,,,,,,,,,,,,,,,,,,,,,,,,,,,,,,,,,,,,,,,,,,,,,,,,,,,,,,,,,,,,,,,,,,,,,,,,,,
,,,0,,101,0,101,0,1,5c62fb7c0ee07c00012604f8,26,Mężczyzna,2022-06-04_08h29.51.669,task,2021.1.4,MacIntel,1.587301587,628b806c463b948bc644b84f,629afabf692063e219f8d5a0,,,,,,,,,,,,,,,,,,,,,,,,,,,,,,,,,,,,,,,,,,,,,,,,,,,,,,,,,,,,,,,,,,,,,,,,,,,,,,,,,,,,,,,,,,,,,,,,,,,,,,,
,,"[""period""]",0,[0.24799999999999045],102,0,102,0,1,5c62fb7c0ee07c00012604f8,26,Mężczyzna,2022-06-04_08h29.51.669,task,2021.1.4,MacIntel,1.587301587,628b806c463b948bc644b84f,629afabf692063e219f8d5a0,,,,,,,,,,,,,,,,,,,,,,,,,,,,,,,,,,,,,,,,,,,,,,,,,,,,,,,,,,,,,,,,,,,,,,,,,,,,,,,,,,,,,,,,,,,,,,,,,,,,,,,
,,"[""comma""]",0,[0.4000000000000341],103,0,103,0,1,5c62fb7c0ee07c00012604f8,26,Mężczyzna,2022-06-04_08h29.51.669,task,2021.1.4,MacIntel,1.587301587,628b806c463b948bc644b84f,629afabf692063e219f8d5a0,,,,,,,,,,,,,,,,,,,,,,,,,,,,,,,,,,,,,,,,,,,,,,,,,,,,,,,,,,,,,,,,,,,,,,,,,,,,,,,,,,,,,,,,,,,,,,,,,,,,,,,
,,"[""period""]",0,[0.2820000000000391],104,0,104,0,1,5c62fb7c0ee07c00012604f8,26,Mężczyzna,2022-06-04_08h29.51.669,task,2021.1.4,MacIntel,1.587301587,628b806c463b948bc644b84f,629afabf692063e219f8d5a0,,,,,,,,,,,,,,,,,,,,,,,,,,,,,,,,,,,,,,,,,,,,,,,,,,,,,,,,,,,,,,,,,,,,,,,,,,,,,,,,,,,,,,,,,,,,,,,,,,,,,,,
,,"[""comma""]",0,[0.19999999999998863],105,0,105,0,1,5c62fb7c0ee07c00012604f8,26,Mężczyzna,2022-06-04_08h29.51.669,task,2021.1.4,MacIntel,1.587301587,628b806c463b948bc644b84f,629afabf692063e219f8d5a0,,,,,,,,,,,,,,,,,,,,,,,,,,,,,,,,,,,,,,,,,,,,,,,,,,,,,,,,,,,,,,,,,,,,,,,,,,,,,,,,,,,,,,,,,,,,,,,,,,,,,,,
,,"[""comma""]",0,[0.4440000000000168],106,0,106,0,1,5c62fb7c0ee07c00012604f8,26,Mężczyzna,2022-06-04_08h29.51.669,task,2021.1.4,MacIntel,1.587301587,628b806c463b948bc644b84f,629afabf692063e219f8d5a0,,,,,,,,,,,,,,,,,,,,,,,,,,,,,,,,,,,,,,,,,,,,,,,,,,,,,,,,,,,,,,,,,,,,,,,,,,,,,,,,,,,,,,,,,,,,,,,,,,,,,,,
,,"[""comma""]",0,[0.48900000000003274],107,0,107,0,1,5c62fb7c0ee07c00012604f8,26,Mężczyzna,2022-06-04_08h29.51.669,task,2021.1.4,MacIntel,1.587301587,628b806c463b948bc644b84f,629afabf692063e219f8d5a0,,,,,,,,,,,,,,,,,,,,,,,,,,,,,,,,,,,,,,,,,,,,,,,,,,,,,,,,,,,,,,,,,,,,,,,,,,,,,,,,,,,,,,,,,,,,,,,,,,,,,,,
,,"[""period""]",0,[0.2559999999999718],108,0,108,0,1,5c62fb7c0ee07c00012604f8,26,Mężczyzna,2022-06-04_08h29.51.669,task,2021.1.4,MacIntel,1.587301587,628b806c463b948bc644b84f,629afabf692063e219f8d5a0,,,,,,,,,,,,,,,,,,,,,,,,,,,,,,,,,,,,,,,,,,,,,,,,,,,,,,,,,,,,,,,,,,,,,,,,,,,,,,,,,,,,,,,,,,,,,,,,,,,,,,,
,,"[""period""]",0,[0.242999999999995],109,0,109,0,1,5c62fb7c0ee07c00012604f8,26,Mężczyzna,2022-06-04_08h29.51.669,task,2021.1.4,MacIntel,1.587301587,628b806c463b948bc644b84f,629afabf692063e219f8d5a0,,,,,,,,,,,,,,,,,,,,,,,,,,,,,,,,,,,,,,,,,,,,,,,,,,,,,,,,,,,,,,,,,,,,,,,,,,,,,,,,,,,,,,,,,,,,,,,,,,,,,,,
,,"[""comma""]",0,[0.2419999999999618],110,0,110,0,1,5c62fb7c0ee07c00012604f8,26,Mężczyzna,2022-06-04_08h29.51.669,task,2021.1.4,MacIntel,1.587301587,628b806c463b948bc644b84f,629afabf692063e219f8d5a0,,,,,,,,,,,,,,,,,,,,,,,,,,,,,,,,,,,,,,,,,,,,,,,,,,,,,,,,,,,,,,,,,,,,,,,,,,,,,,,,,,,,,,,,,,,,,,,,,,,,,,,
,,"[""comma""]",0,[0.44999999999998863],111,0,111,0,1,5c62fb7c0ee07c00012604f8,26,Mężczyzna,2022-06-04_08h29.51.669,task,2021.1.4,MacIntel,1.587301587,628b806c463b948bc644b84f,629afabf692063e219f8d5a0,,,,,,,,,,,,,,,,,,,,,,,,,,,,,,,,,,,,,,,,,,,,,,,,,,,,,,,,,,,,,,,,,,,,,,,,,,,,,,,,,,,,,,,,,,,,,,,,,,,,,,,
,,"[""period"",""comma""]",0,"[0.2400000000000091,1.9249999999999545]",112,0,112,0,1,5c62fb7c0ee07c00012604f8,26,Mężczyzna,2022-06-04_08h29.51.669,task,2021.1.4,MacIntel,1.587301587,628b806c463b948bc644b84f,629afabf692063e219f8d5a0,,,,,,,,,,,,,,,,,,,,,,,,,,,,,,,,,,,,,,,,,,,,,,,,,,,,,,,,,,,,,,,,,,,,,,,,,,,,,,,,,,,,,,,,,,,,,,,,,,,,,,,
,,,0,,113,0,113,0,1,5c62fb7c0ee07c00012604f8,26,Mężczyzna,2022-06-04_08h29.51.669,task,2021.1.4,MacIntel,1.587301587,628b806c463b948bc644b84f,629afabf692063e219f8d5a0,,,,,,,,,,,,,,,,,,,,,,,,,,,,,,,,,,,,,,,,,,,,,,,,,,,,,,,,,,,,,,,,,,,,,,,,,,,,,,,,,,,,,,,,,,,,,,,,,,,,,,,
,,"[""period"",""period""]",0,"[0.01599999999996271,1.9660000000000082]",114,0,114,0,1,5c62fb7c0ee07c00012604f8,26,Mężczyzna,2022-06-04_08h29.51.669,task,2021.1.4,MacIntel,1.587301587,628b806c463b948bc644b84f,629afabf692063e219f8d5a0,,,,,,,,,,,,,,,,,,,,,,,,,,,,,,,,,,,,,,,,,,,,,,,,,,,,,,,,,,,,,,,,,,,,,,,,,,,,,,,,,,,,,,,,,,,,,,,,,,,,,,,
,,,0,,115,0,115,0,1,5c62fb7c0ee07c00012604f8,26,Mężczyzna,2022-06-04_08h29.51.669,task,2021.1.4,MacIntel,1.587301587,628b806c463b948bc644b84f,629afabf692063e219f8d5a0,,,,,,,,,,,,,,,,,,,,,,,,,,,,,,,,,,,,,,,,,,,,,,,,,,,,,,,,,,,,,,,,,,,,,,,,,,,,,,,,,,,,,,,,,,,,,,,,,,,,,,,
,,"[""comma""]",0,[0.39999999999997726],116,0,116,0,1,5c62fb7c0ee07c00012604f8,26,Mężczyzna,2022-06-04_08h29.51.669,task,2021.1.4,MacIntel,1.587301587,628b806c463b948bc644b84f,629afabf692063e219f8d5a0,,,,,,,,,,,,,,,,,,,,,,,,,,,,,,,,,,,,,,,,,,,,,,,,,,,,,,,,,,,,,,,,,,,,,,,,,,,,,,,,,,,,,,,,,,,,,,,,,,,,,,,
,,"[""period"",""period""]",0,"[0.28499999999996817,1.8769999999999527]",117,0,117,0,1,5c62fb7c0ee07c00012604f8,26,Mężczyzna,2022-06-04_08h29.51.669,task,2021.1.4,MacIntel,1.587301587,628b806c463b948bc644b84f,629afabf692063e219f8d5a0,,,,,,,,,,,,,,,,,,,,,,,,,,,,,,,,,,,,,,,,,,,,,,,,,,,,,,,,,,,,,,,,,,,,,,,,,,,,,,,,,,,,,,,,,,,,,,,,,,,,,,,
,,"[""period""]",0,[1.433999999999969],118,0,118,0,1,5c62fb7c0ee07c00012604f8,26,Mężczyzna,2022-06-04_08h29.51.669,task,2021.1.4,MacIntel,1.587301587,628b806c463b948bc644b84f,629afabf692063e219f8d5a0,,,,,,,,,,,,,,,,,,,,,,,,,,,,,,,,,,,,,,,,,,,,,,,,,,,,,,,,,,,,,,,,,,,,,,,,,,,,,,,,,,,,,,,,,,,,,,,,,,,,,,,
,,"[""comma""]",0,[1.25],119,0,119,0,1,5c62fb7c0ee07c00012604f8,26,Mężczyzna,2022-06-04_08h29.51.669,task,2021.1.4,MacIntel,1.587301587,628b806c463b948bc644b84f,629afabf692063e219f8d5a0,,,,,,,,,,,,,,,,,,,,,,,,,,,,,,,,,,,,,,,,,,,,,,,,,,,,,,,,,,,,,,,,,,,,,,,,,,,,,,,,,,,,,,,,,,,,,,,,,,,,,,,
,,,,,,,,,,5c62fb7c0ee07c00012604f8,26,Mężczyzna,2022-06-04_08h29.51.669,task,2021.1.4,MacIntel,1.587301587,628b806c463b948bc644b84f,629afabf692063e219f8d5a0,space,7.211,space,4.655,0,0,0,0,1,X V Q F H G B L J M P D K C T S W R N Z,,,,,,,,,,,,,,,,,,,,,,,,,,,,,,,,,,,,,,,,,,,,,,,,,,,,,,,,,,,,,,,,,,,,,,,,,,,,,,,,,,,,,,,,,,,,,
,,,,,,,,,,5c62fb7c0ee07c00012604f8,26,Mężczyzna,2022-06-04_08h29.51.669,task,2021.1.4,MacIntel,1.587301587,628b806c463b948bc644b84f,629afabf692063e219f8d5a0,,,,,1,0,1,0,1,X V Q F H G B L J M P D K C T S W R N Z,,,,,,,,,,,,,,,,,,,,,,,,,,,,,,,,,,,,,,,,,,,,,,,,,,,,,,,,,,,,,,,,,,,,,,,,,,,,,,,,,,,,,,,,,,,,,
,,,,,,,,,,5c62fb7c0ee07c00012604f8,26,Mężczyzna,2022-06-04_08h29.51.669,task,2021.1.4,MacIntel,1.587301587,628b806c463b948bc644b84f,629afabf692063e219f8d5a0,,,,,,,,,,,zc,"[""z"",""c""]","[1.61099999999999,1.8360000000000127,2.660000000000025]",1,ZC,0,0,0,0,1,,,,,,,,,,,,,,,,,,,,,,,,,,,,,,,,,,,,,,,,,,,,,,,,,,,,,,,,,,,,,,,,,,,,,,,,,,,,,,,,,,,
,,,,,,,,,,5c62fb7c0ee07c00012604f8,26,Mężczyzna,2022-06-04_08h29.51.669,task,2021.1.4,MacIntel,1.587301587,628b806c463b948bc644b84f,629afabf692063e219f8d5a0,,,,,0,0,0,0,1,X V Q F H G B L J M P D K C T S W R N Z,,,,,,,,,,,,,,,,,,,,,,,,,,,,,,,,,,,,,,,,,,,,,,,,,,,,,,,,,,,,,,,,,,,,,,,,,,,,,,,,,,,,,,,,,,,,,
,,,,,,,,,,5c62fb7c0ee07c00012604f8,26,Mężczyzna,2022-06-04_08h29.51.669,task,2021.1.4,MacIntel,1.587301587,628b806c463b948bc644b84f,629afabf692063e219f8d5a0,,,,,1,0,1,0,1,X V Q F H G B L J M P D K C T S W R N Z,,,,,,,,,,,,,,,,,,,,,,,,,,,,,,,,,,,,,,,,,,,,,,,,,,,,,,,,,,,,,,,,,,,,,,,,,,,,,,,,,,,,,,,,,,,,,
,,,,,,,,,,5c62fb7c0ee07c00012604f8,26,Mężczyzna,2022-06-04_08h29.51.669,task,2021.1.4,MacIntel,1.587301587,628b806c463b948bc644b84f,629afabf692063e219f8d5a0,,,,,,,,,,,sg,"[""s"",""g""]","[1.2869999999999777,1.6129999999999995,2.0949999999999704]",1,SG,1,0,1,0,1,,,,,,,,,,,,,,,,,,,,,,,,,,,,,,,,,,,,,,,,,,,,,,,,,,,,,,,,,,,,,,,,,,,,,,,,,,,,,,,,,,,
,,,,,,,,,,5c62fb7c0ee07c00012604f8,26,Mężczyzna,2022-06-04_08h29.51.669,task,2021.1.4,MacIntel,1.587301587,628b806c463b948bc644b84f,629afabf692063e219f8d5a0,,,,,0,0,0,0,1,X V Q F H G B L J M P D K C T S W R N Z,,,,,,,,,,,,,,,,,,,,,,,,,,,,,,,,,,,,,,,,,,,,,,,,,,,,,,,,,,,,,,,,,,,,,,,,,,,,,,,,,,,,,,,,,,,,,
,,,,,,,,,,5c62fb7c0ee07c00012604f8,26,Mężczyzna,2022-06-04_08h29.51.669,task,2021.1.4,MacIntel,1.587301587,628b806c463b948bc644b84f,629afabf692063e219f8d5a0,,,,,1,0,1,0,1,X V Q F H G B L J M P D K C T S W R N Z,,,,,,,,,,,,,,,,,,,,,,,,,,,,,,,,,,,,,,,,,,,,,,,,,,,,,,,,,,,,,,,,,,,,,,,,,,,,,,,,,,,,,,,,,,,,,
,,,,,,,,,,5c62fb7c0ee07c00012604f8,26,Mężczyzna,2022-06-04_08h29.51.669,task,2021.1.4,MacIntel,1.587301587,628b806c463b948bc644b84f,629afabf692063e219f8d5a0,,,,,2,0,2,0,1,X V Q F H G B L J M P D K C T S W R N Z,,,,,,,,,,,,,,,,,,,,,,,,,,,,,,,,,,,,,,,,,,,,,,,,,,,,,,,,,,,,,,,,,,,,,,,,,,,,,,,,,,,,,,,,,,,,,
,,,,,,,,,,5c62fb7c0ee07c00012604f8,26,Mężczyzna,2022-06-04_08h29.51.669,task,2021.1.4,MacIntel,1.587301587,628b806c463b948bc644b84f,629afabf692063e219f8d5a0,,,,,,,,,,,mkv,"[""m"",""k"",""v""]","[1.271000000000015,1.454999999999984,2.2620000000000005,2.5960000000000036]",1,MKV,2,0,2,0,1,,,,,,,,,,,,,,,,,,,,,,,,,,,,,,,,,,,,,,,,,,,,,,,,,,,,,,,,,,,,,,,,,,,,,,,,,,,,,,,,,,,
,,,,,,,,,,5c62fb7c0ee07c00012604f8,26,Mężczyzna,2022-06-04_08h29.51.669,task,2021.1.4,MacIntel,1.587301587,628b806c463b948bc644b84f,629afabf692063e219f8d5a0,,,,,0,0,0,0,1,X V Q F H G B L J M P D K C T S W R N Z,,,,,,,,,,,,,,,,,,,,,,,,,,,,,,,,,,,,,,,,,,,,,,,,,,,,,,,,,,,,,,,,,,,,,,,,,,,,,,,,,,,,,,,,,,,,,
,,,,,,,,,,5c62fb7c0ee07c00012604f8,26,Mężczyzna,2022-06-04_08h29.51.669,task,2021.1.4,MacIntel,1.587301587,628b806c463b948bc644b84f,629afabf692063e219f8d5a0,,,,,1,0,1,0,1,X V Q F H G B L J M P D K C T S W R N Z,,,,,,,,,,,,,,,,,,,,,,,,,,,,,,,,,,,,,,,,,,,,,,,,,,,,,,,,,,,,,,,,,,,,,,,,,,,,,,,,,,,,,,,,,,,,,
,,,,,,,,,,5c62fb7c0ee07c00012604f8,26,Mężczyzna,2022-06-04_08h29.51.669,task,2021.1.4,MacIntel,1.587301587,628b806c463b948bc644b84f,629afabf692063e219f8d5a0,,,,,2,0,2,0,1,X V Q F H G B L J M P D K C T S W R N Z,,,,,,,,,,,,,,,,,,,,,,,,,,,,,,,,,,,,,,,,,,,,,,,,,,,,,,,,,,,,,,,,,,,,,,,,,,,,,,,,,,,,,,,,,,,,,
,,,,,,,,,,5c62fb7c0ee07c00012604f8,26,Mężczyzna,2022-06-04_08h29.51.669,task,2021.1.4,MacIntel,1.587301587,628b806c463b948bc644b84f,629afabf692063e219f8d5a0,,,,,,,,,,,wwr,"[""w"",""w"",""r""]","[1.08299999999997,1.2369999999999663,1.4869999999999663,1.850999999999999]",1,WWR,3,0,3,0,1,,,,,,,,,,,,,,,,,,,,,,,,,,,,,,,,,,,,,,,,,,,,,,,,,,,,,,,,,,,,,,,,,,,,,,,,,,,,,,,,,,,
,,,,,,,,,,5c62fb7c0ee07c00012604f8,26,Mężczyzna,2022-06-04_08h29.51.669,task,2021.1.4,MacIntel,1.587301587,628b806c463b948bc644b84f,629afabf692063e219f8d5a0,,,,,0,0,0,0,1,X V Q F H G B L J M P D K C T S W R N Z,,,,,,,,,,,,,,,,,,,,,,,,,,,,,,,,,,,,,,,,,,,,,,,,,,,,,,,,,,,,,,,,,,,,,,,,,,,,,,,,,,,,,,,,,,,,,
,,,,,,,,,,5c62fb7c0ee07c00012604f8,26,Mężczyzna,2022-06-04_08h29.51.669,task,2021.1.4,MacIntel,1.587301587,628b806c463b948bc644b84f,629afabf692063e219f8d5a0,,,,,1,0,1,0,1,X V Q F H G B L J M P D K C T S W R N Z,,,,,,,,,,,,,,,,,,,,,,,,,,,,,,,,,,,,,,,,,,,,,,,,,,,,,,,,,,,,,,,,,,,,,,,,,,,,,,,,,,,,,,,,,,,,,
,,,,,,,,,,5c62fb7c0ee07c00012604f8,26,Mężczyzna,2022-06-04_08h29.51.669,task,2021.1.4,MacIntel,1.587301587,628b806c463b948bc644b84f,629afabf692063e219f8d5a0,,,,,2,0,2,0,1,X V Q F H G B L J M P D K C T S W R N Z,,,,,,,,,,,,,,,,,,,,,,,,,,,,,,,,,,,,,,,,,,,,,,,,,,,,,,,,,,,,,,,,,,,,,,,,,,,,,,,,,,,,,,,,,,,,,
,,,,,,,,,,5c62fb7c0ee07c00012604f8,26,Mężczyzna,2022-06-04_08h29.51.669,task,2021.1.4,MacIntel,1.587301587,628b806c463b948bc644b84f,629afabf692063e219f8d5a0,,,,,3,0,3,0,1,X V Q F H G B L J M P D K C T S W R N Z,,,,,,,,,,,,,,,,,,,,,,,,,,,,,,,,,,,,,,,,,,,,,,,,,,,,,,,,,,,,,,,,,,,,,,,,,,,,,,,,,,,,,,,,,,,,,
,,,,,,,,,,5c62fb7c0ee07c00012604f8,26,Mężczyzna,2022-06-04_08h29.51.669,task,2021.1.4,MacIntel,1.587301587,628b806c463b948bc644b84f,629afabf692063e219f8d5a0,,,,,,,,,,,tchn,"[""t"",""c"",""h"",""n""]","[0.9610000000000127,1.211999999999989,1.4950000000000045,1.8880000000000337,2.382000000000005]",1,TCHN,4,0,4,0,1,,,,,,,,,,,,,,,,,,,,,,,,,,,,,,,,,,,,,,,,,,,,,,,,,,,,,,,,,,,,,,,,,,,,,,,,,,,,,,,,,,,
,,,,,,,,,,5c62fb7c0ee07c00012604f8,26,Mężczyzna,2022-06-04_08h29.51.669,task,2021.1.4,MacIntel,1.587301587,628b806c463b948bc644b84f,629afabf692063e219f8d5a0,,,,,0,0,0,0,1,X V Q F H G B L J M P D K C T S W R N Z,,,,,,,,,,,,,,,,,,,,,,,,,,,,,,,,,,,,,,,,,,,,,,,,,,,,,,,,,,,,,,,,,,,,,,,,,,,,,,,,,,,,,,,,,,,,,
,,,,,,,,,,5c62fb7c0ee07c00012604f8,26,Mężczyzna,2022-06-04_08h29.51.669,task,2021.1.4,MacIntel,1.587301587,628b806c463b948bc644b84f,629afabf692063e219f8d5a0,,,,,1,0,1,0,1,X V Q F H G B L J M P D K C T S W R N Z,,,,,,,,,,,,,,,,,,,,,,,,,,,,,,,,,,,,,,,,,,,,,,,,,,,,,,,,,,,,,,,,,,,,,,,,,,,,,,,,,,,,,,,,,,,,,
,,,,,,,,,,5c62fb7c0ee07c00012604f8,26,Mężczyzna,2022-06-04_08h29.51.669,task,2021.1.4,MacIntel,1.587301587,628b806c463b948bc644b84f,629afabf692063e219f8d5a0,,,,,2,0,2,0,1,X V Q F H G B L J M P D K C T S W R N Z,,,,,,,,,,,,,,,,,,,,,,,,,,,,,,,,,,,,,,,,,,,,,,,,,,,,,,,,,,,,,,,,,,,,,,,,,,,,,,,,,,,,,,,,,,,,,
,,,,,,,,,,5c62fb7c0ee07c00012604f8,26,Mężczyzna,2022-06-04_08h29.51.669,task,2021.1.4,MacIntel,1.587301587,628b806c463b948bc644b84f,629afabf692063e219f8d5a0,,,,,3,0,3,0,1,X V Q F H G B L J M P D K C T S W R N Z,,,,,,,,,,,,,,,,,,,,,,,,,,,,,,,,,,,,,,,,,,,,,,,,,,,,,,,,,,,,,,,,,,,,,,,,,,,,,,,,,,,,,,,,,,,,,
,,,,,,,,,,5c62fb7c0ee07c00012604f8,26,Mężczyzna,2022-06-04_08h29.51.669,task,2021.1.4,MacIntel,1.587301587,628b806c463b948bc644b84f,629afabf692063e219f8d5a0,,,,,,,,,,,jcrs,"[""j"",""c"",""r"",""s""]","[1.4119999999999777,1.72199999999998,2.034999999999968,2.3379999999999654,3.113999999999976]",1,JCRS,5,0,5,0,1,,,,,,,,,,,,,,,,,,,,,,,,,,,,,,,,,,,,,,,,,,,,,,,,,,,,,,,,,,,,,,,,,,,,,,,,,,,,,,,,,,,
,,,,,,,,,,5c62fb7c0ee07c00012604f8,26,Mężczyzna,2022-06-04_08h29.51.669,task,2021.1.4,MacIntel,1.587301587,628b806c463b948bc644b84f,629afabf692063e219f8d5a0,,,,,0,0,0,0,1,X V Q F H G B L J M P D K C T S W R N Z,,,,,,,,,,,,,,,,,,,,,,,,,,,,,,,,,,,,,,,,,,,,,,,,,,,,,,,,,,,,,,,,,,,,,,,,,,,,,,,,,,,,,,,,,,,,,
,,,,,,,,,,5c62fb7c0ee07c00012604f8,26,Mężczyzna,2022-06-04_08h29.51.669,task,2021.1.4,MacIntel,1.587301587,628b806c463b948bc644b84f,629afabf692063e219f8d5a0,,,,,1,0,1,0,1,X V Q F H G B L J M P D K C T S W R N Z,,,,,,,,,,,,,,,,,,,,,,,,,,,,,,,,,,,,,,,,,,,,,,,,,,,,,,,,,,,,,,,,,,,,,,,,,,,,,,,,,,,,,,,,,,,,,
,,,,,,,,,,5c62fb7c0ee07c00012604f8,26,Mężczyzna,2022-06-04_08h29.51.669,task,2021.1.4,MacIntel,1.587301587,628b806c463b948bc644b84f,629afabf692063e219f8d5a0,,,,,2,0,2,0,1,X V Q F H G B L J M P D K C T S W R N Z,,,,,,,,,,,,,,,,,,,,,,,,,,,,,,,,,,,,,,,,,,,,,,,,,,,,,,,,,,,,,,,,,,,,,,,,,,,,,,,,,,,,,,,,,,,,,
,,,,,,,,,,5c62fb7c0ee07c00012604f8,26,Mężczyzna,2022-06-04_08h29.51.669,task,2021.1.4,MacIntel,1.587301587,628b806c463b948bc644b84f,629afabf692063e219f8d5a0,,,,,3,0,3,0,1,X V Q F H G B L J M P D K C T S W R N Z,,,,,,,,,,,,,,,,,,,,,,,,,,,,,,,,,,,,,,,,,,,,,,,,,,,,,,,,,,,,,,,,,,,,,,,,,,,,,,,,,,,,,,,,,,,,,
,,,,,,,,,,5c62fb7c0ee07c00012604f8,26,Mężczyzna,2022-06-04_08h29.51.669,task,2021.1.4,MacIntel,1.587301587,628b806c463b948bc644b84f,629afabf692063e219f8d5a0,,,,,4,0,4,0,1,X V Q F H G B L J M P D K C T S W R N Z,,,,,,,,,,,,,,,,,,,,,,,,,,,,,,,,,,,,,,,,,,,,,,,,,,,,,,,,,,,,,,,,,,,,,,,,,,,,,,,,,,,,,,,,,,,,,
,,,,,,,,,,5c62fb7c0ee07c00012604f8,26,Mężczyzna,2022-06-04_08h29.51.669,task,2021.1.4,MacIntel,1.587301587,628b806c463b948bc644b84f,629afabf692063e219f8d5a0,,,,,,,,,,,qdrlb,"[""q"",""d"",""r"",""l"",""b""]","[1.086999999999989,1.5539999999999736,1.8949999999999818,2.180000000000007,3.495999999999981,4.048000000000002]",0,QDLRB,6,0,6,0,1,,,,,,,,,,,,,,,,,,,,,,,,,,,,,,,,,,,,,,,,,,,,,,,,,,,,,,,,,,,,,,,,,,,,,,,,,,,,,,,,,,,
,,,,,,,,,,5c62fb7c0ee07c00012604f8,26,Mężczyzna,2022-06-04_08h29.51.669,task,2021.1.4,MacIntel,1.587301587,628b806c463b948bc644b84f,629afabf692063e219f8d5a0,,,,,0,0,0,0,1,X V Q F H G B L J M P D K C T S W R N Z,,,,,,,,,,,,,,,,,,,,,,,,,,,,,,,,,,,,,,,,,,,,,,,,,,,,,,,,,,,,,,,,,,,,,,,,,,,,,,,,,,,,,,,,,,,,,
,,,,,,,,,,5c62fb7c0ee07c00012604f8,26,Mężczyzna,2022-06-04_08h29.51.669,task,2021.1.4,MacIntel,1.587301587,628b806c463b948bc644b84f,629afabf692063e219f8d5a0,,,,,1,0,1,0,1,X V Q F H G B L J M P D K C T S W R N Z,,,,,,,,,,,,,,,,,,,,,,,,,,,,,,,,,,,,,,,,,,,,,,,,,,,,,,,,,,,,,,,,,,,,,,,,,,,,,,,,,,,,,,,,,,,,,
,,,,,,,,,,5c62fb7c0ee07c00012604f8,26,Mężczyzna,2022-06-04_08h29.51.669,task,2021.1.4,MacIntel,1.587301587,628b806c463b948bc644b84f,629afabf692063e219f8d5a0,,,,,2,0,2,0,1,X V Q F H G B L J M P D K C T S W R N Z,,,,,,,,,,,,,,,,,,,,,,,,,,,,,,,,,,,,,,,,,,,,,,,,,,,,,,,,,,,,,,,,,,,,,,,,,,,,,,,,,,,,,,,,,,,,,
,,,,,,,,,,5c62fb7c0ee07c00012604f8,26,Mężczyzna,2022-06-04_08h29.51.669,task,2021.1.4,MacIntel,1.587301587,628b806c463b948bc644b84f,629afabf692063e219f8d5a0,,,,,3,0,3,0,1,X V Q F H G B L J M P D K C T S W R N Z,,,,,,,,,,,,,,,,,,,,,,,,,,,,,,,,,,,,,,,,,,,,,,,,,,,,,,,,,,,,,,,,,,,,,,,,,,,,,,,,,,,,,,,,,,,,,
,,,,,,,,,,5c62fb7c0ee07c00012604f8,26,Mężczyzna,2022-06-04_08h29.51.669,task,2021.1.4,MacIntel,1.587301587,628b806c463b948bc644b84f,629afabf692063e219f8d5a0,,,,,4,0,4,0,1,X V Q F H G B L J M P D K C T S W R N Z,,,,,,,,,,,,,,,,,,,,,,,,,,,,,,,,,,,,,,,,,,,,,,,,,,,,,,,,,,,,,,,,,,,,,,,,,,,,,,,,,,,,,,,,,,,,,
,,,,,,,,,,5c62fb7c0ee07c00012604f8,26,Mężczyzna,2022-06-04_08h29.51.669,task,2021.1.4,MacIntel,1.587301587,628b806c463b948bc644b84f,629afabf692063e219f8d5a0,,,,,,,,,,,gtkld,"[""g"",""t"",""k"",""l"",""d""]","[1.0950000000000273,1.4840000000000373,2.16700000000003,2.41700000000003,2.766999999999996,3.211999999999989]",0,GTKDL,7,0,7,0,1,,,,,,,,,,,,,,,,,,,,,,,,,,,,,,,,,,,,,,,,,,,,,,,,,,,,,,,,,,,,,,,,,,,,,,,,,,,,,,,,,,,
,,,,,,,,,,5c62fb7c0ee07c00012604f8,26,Mężczyzna,2022-06-04_08h29.51.669,task,2021.1.4,MacIntel,1.587301587,628b806c463b948bc644b84f,629afabf692063e219f8d5a0,,,,,0,0,0,0,1,X V Q F H G B L J M P D K C T S W R N Z,,,,,,,,,,,,,,,,,,,,,,,,,,,,,,,,,,,,,,,,,,,,,,,,,,,,,,,,,,,,,,,,,,,,,,,,,,,,,,,,,,,,,,,,,,,,,
,,,,,,,,,,5c62fb7c0ee07c00012604f8,26,Mężczyzna,2022-06-04_08h29.51.669,task,2021.1.4,MacIntel,1.587301587,628b806c463b948bc644b84f,629afabf692063e219f8d5a0,,,,,1,0,1,0,1,X V Q F H G B L J M P D K C T S W R N Z,,,,,,,,,,,,,,,,,,,,,,,,,,,,,,,,,,,,,,,,,,,,,,,,,,,,,,,,,,,,,,,,,,,,,,,,,,,,,,,,,,,,,,,,,,,,,
,,,,,,,,,,5c62fb7c0ee07c00012604f8,26,Mężczyzna,2022-06-04_08h29.51.669,task,2021.1.4,MacIntel,1.587301587,628b806c463b948bc644b84f,629afabf692063e219f8d5a0,,,,,2,0,2,0,1,X V Q F H G B L J M P D K C T S W R N Z,,,,,,,,,,,,,,,,,,,,,,,,,,,,,,,,,,,,,,,,,,,,,,,,,,,,,,,,,,,,,,,,,,,,,,,,,,,,,,,,,,,,,,,,,,,,,
,,,,,,,,,,5c62fb7c0ee07c00012604f8,26,Mężczyzna,2022-06-04_08h29.51.669,task,2021.1.4,MacIntel,1.587301587,628b806c463b948bc644b84f,629afabf692063e219f8d5a0,,,,,3,0,3,0,1,X V Q F H G B L J M P D K C T S W R N Z,,,,,,,,,,,,,,,,,,,,,,,,,,,,,,,,,,,,,,,,,,,,,,,,,,,,,,,,,,,,,,,,,,,,,,,,,,,,,,,,,,,,,,,,,,,,,
,,,,,,,,,,5c62fb7c0ee07c00012604f8,26,Mężczyzna,2022-06-04_08h29.51.669,task,2021.1.4,MacIntel,1.587301587,628b806c463b948bc644b84f,629afabf692063e219f8d5a0,,,,,4,0,4,0,1,X V Q F H G B L J M P D K C T S W R N Z,,,,,,,,,,,,,,,,,,,,,,,,,,,,,,,,,,,,,,,,,,,,,,,,,,,,,,,,,,,,,,,,,,,,,,,,,,,,,,,,,,,,,,,,,,,,,
,,,,,,,,,,5c62fb7c0ee07c00012604f8,26,Mężczyzna,2022-06-04_08h29.51.669,task,2021.1.4,MacIntel,1.587301587,628b806c463b948bc644b84f,629afabf692063e219f8d5a0,,,,,,,,,,,vcjpq,"[""v"",""c"",""j"",""p"",""q""]","[1.6519999999999868,1.913000000000011,2.2060000000000173,2.497000000000014,3.430999999999983,3.7819999999999823]",1,VCJPQ,8,0,8,0,1,,,,,,,,,,,,,,,,,,,,,,,,,,,,,,,,,,,,,,,,,,,,,,,,,,,,,,,,,,,,,,,,,,,,,,,,,,,,,,,,,,,
,,,,,,,,,,5c62fb7c0ee07c00012604f8,26,Mężczyzna,2022-06-04_08h29.51.669,task,2021.1.4,MacIntel,1.587301587,628b806c463b948bc644b84f,629afabf692063e219f8d5a0,,,,,0,0,0,0,1,X V Q F H G B L J M P D K C T S W R N Z,,,,,,,,,,,,,,,,,,,,,,,,,,,,,,,,,,,,,,,,,,,,,,,,,,,,,,,,,,,,,,,,,,,,,,,,,,,,,,,,,,,,,,,,,,,,,
,,,,,,,,,,5c62fb7c0ee07c00012604f8,26,Mężczyzna,2022-06-04_08h29.51.669,task,2021.1.4,MacIntel,1.587301587,628b806c463b948bc644b84f,629afabf692063e219f8d5a0,,,,,1,0,1,0,1,X V Q F H G B L J M P D K C T S W R N Z,,,,,,,,,,,,,,,,,,,,,,,,,,,,,,,,,,,,,,,,,,,,,,,,,,,,,,,,,,,,,,,,,,,,,,,,,,,,,,,,,,,,,,,,,,,,,
,,,,,,,,,,5c62fb7c0ee07c00012604f8,26,Mężczyzna,2022-06-04_08h29.51.669,task,2021.1.4,MacIntel,1.587301587,628b806c463b948bc644b84f,629afabf692063e219f8d5a0,,,,,2,0,2,0,1,X V Q F H G B L J M P D K C T S W R N Z,,,,,,,,,,,,,,,,,,,,,,,,,,,,,,,,,,,,,,,,,,,,,,,,,,,,,,,,,,,,,,,,,,,,,,,,,,,,,,,,,,,,,,,,,,,,,
,,,,,,,,,,5c62fb7c0ee07c00012604f8,26,Mężczyzna,2022-06-04_08h29.51.669,task,2021.1.4,MacIntel,1.587301587,628b806c463b948bc644b84f,629afabf692063e219f8d5a0,,,,,3,0,3,0,1,X V Q F H G B L J M P D K C T S W R N Z,,,,,,,,,,,,,,,,,,,,,,,,,,,,,,,,,,,,,,,,,,,,,,,,,,,,,,,,,,,,,,,,,,,,,,,,,,,,,,,,,,,,,,,,,,,,,
,,,,,,,,,,5c62fb7c0ee07c00012604f8,26,Mężczyzna,2022-06-04_08h29.51.669,task,2021.1.4,MacIntel,1.587301587,628b806c463b948bc644b84f,629afabf692063e219f8d5a0,,,,,4,0,4,0,1,X V Q F H G B L J M P D K C T S W R N Z,,,,,,,,,,,,,,,,,,,,,,,,,,,,,,,,,,,,,,,,,,,,,,,,,,,,,,,,,,,,,,,,,,,,,,,,,,,,,,,,,,,,,,,,,,,,,
,,,,,,,,,,5c62fb7c0ee07c00012604f8,26,Mężczyzna,2022-06-04_08h29.51.669,task,2021.1.4,MacIntel,1.587301587,628b806c463b948bc644b84f,629afabf692063e219f8d5a0,,,,,,,,,,,glkqg,"[""g"",""l"",""k"",""q"",""g""]","[1.4980000000000473,1.9120000000000346,3.3070000000000164,6.2620000000000005,7.217000000000098,7.579999999999984]",0,GKLQG,9,0,9,0,1,,,,,,,,,,,,,,,,,,,,,,,,,,,,,,,,,,,,,,,,,,,,,,,,,,,,,,,,,,,,,,,,,,,,,,,,,,,,,,,,,,,
,,,,,,,,,,5c62fb7c0ee07c00012604f8,26,Mężczyzna,2022-06-04_08h29.51.669,task,2021.1.4,MacIntel,1.587301587,628b806c463b948bc644b84f,629afabf692063e219f8d5a0,,,,,,,,,,,,,,,,,,,,,space,9.573,6,"[""6""]",1,[3.3100000000000023],[3.3100000000000023],0,0,0,6,1,Practice,7,(25/5) + 1,6,,,,,,,,,,,,,,,,,,,,,,,,,,,,,,,,,,,,,,,,,,,,,,,,,,,,,,,,,,,,,,,,,,,
,,,,,,,,,,5c62fb7c0ee07c00012604f8,26,Mężczyzna,2022-06-04_08h29.51.669,task,2021.1.4,MacIntel,1.587301587,628b806c463b948bc644b84f,629afabf692063e219f8d5a0,,,,,,,,,,,,,,,,,,,,,,,2,"[""2""]",1,[3.162999999999954],"[3.3100000000000023,3.162999999999954]",0,1,1,2,1,Practice,3,(4x4) - 14,2,,,,,,,,,,,,,,,,,,,,,,,,,,,,,,,,,,,,,,,,,,,,,,,,,,,,,,,,,,,,,,,,,,,
,,,,,,,,,,5c62fb7c0ee07c00012604f8,26,Mężczyzna,2022-06-04_08h29.51.669,task,2021.1.4,MacIntel,1.587301587,628b806c463b948bc644b84f,629afabf692063e219f8d5a0,,,,,,,,,,,,,,,,,,,,,,,7,"[""7""]",1,[4.379000000000019],"[3.3100000000000023,3.162999999999954,4.379000000000019]",0,2,2,7,1,Practice,8,(5x5) - 18,7,,,,,,,,,,,,,,,,,,,,,,,,,,,,,,,,,,,,,,,,,,,,,,,,,,,,,,,,,,,,,,,,,,,
,,,,,,,,,,5c62fb7c0ee07c00012604f8,26,Mężczyzna,2022-06-04_08h29.51.669,task,2021.1.4,MacIntel,1.587301587,628b806c463b948bc644b84f,629afabf692063e219f8d5a0,,,,,,,,,,,,,,,,,,,,,,,8,"[""8""]",1,[2.2299999999999613],"[3.3100000000000023,3.162999999999954,4.379000000000019,2.2299999999999613]",0,3,3,8,1,Practice,9,(3x3) - 1,8,,,,,,,,,,,,,,,,,,,,,,,,,,,,,,,,,,,,,,,,,,,,,,,,,,,,,,,,,,,,,,,,,,,
,,,,,,,,,,5c62fb7c0ee07c00012604f8,26,Mężczyzna,2022-06-04_08h29.51.669,task,2021.1.4,MacIntel,1.587301587,628b806c463b948bc644b84f,629afabf692063e219f8d5a0,,,,,,,,,,,,,,,,,,,,,,,5,"[""5""]",1,[2.7059999999999604],"[3.3100000000000023,3.162999999999954,4.379000000000019,2.2299999999999613,2.7059999999999604]",0,4,4,5,1,Practice,6,(4/2) + 3,5,,,,,,,,,,,,,,,,,,,,,,,,,,,,,,,,,,,,,,,,,,,,,,,,,,,,,,,,,,,,,,,,,,,
,,,,,,,,,,5c62fb7c0ee07c00012604f8,26,Mężczyzna,2022-06-04_08h29.51.669,task,2021.1.4,MacIntel,1.587301587,628b806c463b948bc644b84f,629afabf692063e219f8d5a0,,,,,,,,,,,,,,,,,,,,,,,1,"[""1""]",1,[2.0500000000000114],"[3.3100000000000023,3.162999999999954,4.379000000000019,2.2299999999999613,2.7059999999999604,2.0500000000000114]",0,5,5,1,1,Practice,2,(4x4) - 15,1,,,,,,,,,,,,,,,,,,,,,,,,,,,,,,,,,,,,,,,,,,,,,,,,,,,,,,,,,,,,,,,,,,,
,,,,,,,,,,5c62fb7c0ee07c00012604f8,26,Mężczyzna,2022-06-04_08h29.51.669,task,2021.1.4,MacIntel,1.587301587,628b806c463b948bc644b84f,629afabf692063e219f8d5a0,,,,,,,,,,,,,,,,,,,,,,,3,"[""3""]",1,[2.2690000000000055],"[3.3100000000000023,3.162999999999954,4.379000000000019,2.2299999999999613,2.7059999999999604,2.0500000000000114,2.2690000000000055]",0,6,6,3,1,Practice,4,(8/4) + 1,3,,,,,,,,,,,,,,,,,,,,,,,,,,,,,,,,,,,,,,,,,,,,,,,,,,,,,,,,,,,,,,,,,,,
,,,,,,,,,,5c62fb7c0ee07c00012604f8,26,Mężczyzna,2022-06-04_08h29.51.669,task,2021.1.4,MacIntel,1.587301587,628b806c463b948bc644b84f,629afabf692063e219f8d5a0,,,,,,,,,,,,,,,,,,,,,,,4,"[""4""]",1,[2.186999999999955],"[3.3100000000000023,3.162999999999954,4.379000000000019,2.2299999999999613,2.7059999999999604,2.0500000000000114,2.2690000000000055,2.186999999999955]",0,7,7,4,1,Practice,5,(2x6) - 8,4,,,,,,,,,,,,,,,,,,,,,,,,,,,,,,,,,,,,,,,,,,,,,,,,,,,,,,,,,,,,,,,,,,,
,,,,,,,,,,5c62fb7c0ee07c00012604f8,26,Mężczyzna,2022-06-04_08h29.51.669,task,2021.1.4,MacIntel,1.587301587,628b806c463b948bc644b84f,629afabf692063e219f8d5a0,,,,,,,,,,,,,,,,,,,,,,,9,"[""9""]",1,[2.1270000000000095],"[3.3100000000000023,3.162999999999954,4.379000000000019,2.2299999999999613,2.7059999999999604,2.0500000000000114,2.2690000000000055,2.186999999999955,2.1270000000000095]",0,8,8,9,1,Practice,10,(20/2) - 1,9,,,,,,,,,,,,,,,,,,,,,,,,,,,,,,,,,,,,,,,,,,,,,,,,,,,,,,,,,,,,,,,,,,,
,,,,,,,,,,5c62fb7c0ee07c00012604f8,26,Mężczyzna,2022-06-04_08h29.51.669,task,2021.1.4,MacIntel,1.587301587,628b806c463b948bc644b84f,629afabf692063e219f8d5a0,,,,,,,,,,,,,,,,,,,,,,,0,"[""0""]",1,[1.8489999999999895],"[3.3100000000000023,3.162999999999954,4.379000000000019,2.2299999999999613,2.7059999999999604,2.0500000000000114,2.2690000000000055,2.186999999999955,2.1270000000000095,1.8489999999999895]",0,9,9,0,1,Practice,1,(3x3) -  9,0,,,,,,,,,,,,,,,,,,,,,,,,,,,,,,,,,,,,,,,,,,,,,,,,,,,,,,,,,,,,,,,,,,,
,,,,,,,,,,5c62fb7c0ee07c00012604f8,26,Mężczyzna,2022-06-04_08h29.51.669,task,2021.1.4,MacIntel,1.587301587,628b806c463b948bc644b84f,629afabf692063e219f8d5a0,,,,,,,,,,,,,,,,,,,,,,,,,,,,,,,,,,,,,1,26.27,1.751333333,13.16503711,0.936839976,4.168380472,space,15.91,0,0,0,0,1,,,,,,,,,,,,,,,,,,,,,,,,,,,,,,,,,,,,,,,,,,,,,,,,,,,,,,
,,,,,,,,,,5c62fb7c0ee07c00012604f8,26,Mężczyzna,2022-06-04_08h29.51.669,task,2021.1.4,MacIntel,1.587301587,628b806c463b948bc644b84f,629afabf692063e219f8d5a0,,,,,,,,,,,,,,,,,,,,,,,1,,,,,,,,,,Practice,2,(4x4) - 15,1,,,,,,,,,,,,,,space,85.958,"[""1""]",1,[2.4189999999999827],1,0,0,0,1,1,,,,,,,,,,,,,,,,,,,,,,,,,,,,,,,,,,,,,,,,,,,
,,,,,,,,,,5c62fb7c0ee07c00012604f8,26,Mężczyzna,2022-06-04_08h29.51.669,task,2021.1.4,MacIntel,1.587301587,628b806c463b948bc644b84f,629afabf692063e219f8d5a0,,,,,,,,,,X V Q F H G B L J M P D K C T S W R N Z,,,,,,,,,,,,,,,,,,,,,,,,,,,,,,,,,,,,,,,,,,,,,,,,,,,0,0,0,0,1,,,,,,,,,,,,,,,,,,,,,,,,,,,,,,,,,,,,,,
,,,,,,,,,,5c62fb7c0ee07c00012604f8,26,Mężczyzna,2022-06-04_08h29.51.669,task,2021.1.4,MacIntel,1.587301587,628b806c463b948bc644b84f,629afabf692063e219f8d5a0,,,,,,,,,,,,,,,,,,,,,,,1,,,,,,,,,,Practice,2,(4x4) - 15,1,,,,,,,,,,,,,,,,"[""1""]",1,[1.5190000000000055],1,0,0,0,1,1,,,,,,,,,,,,,,,,,,,,,,,,,,,,,,,,,,,,,,,,,,,
,,,,,,,,,,5c62fb7c0ee07c00012604f8,26,Mężczyzna,2022-06-04_08h29.51.669,task,2021.1.4,MacIntel,1.587301587,628b806c463b948bc644b84f,629afabf692063e219f8d5a0,,,,,,,,,,X V Q F H G B L J M P D K C T S W R N Z,,,,,,,,,,,,,,,,,,,,,,,,,,,,,,,,,,,,,,,,,,,,,,,,,,,1,0,1,0,1,,,,,,,,,,,,,,,,,,,,,,,,,,,,,,,,,,,,,,
,,,,,,,,,,5c62fb7c0ee07c00012604f8,26,Mężczyzna,2022-06-04_08h29.51.669,task,2021.1.4,MacIntel,1.587301587,628b806c463b948bc644b84f,629afabf692063e219f8d5a0,,,,,,,,,,,,,,,,,,,,,,,,,,,,,,,,,,,,,,,,,,,,,,,,,,,,,,,,,,,,,,,,,,zt,"[""z"",""t""]",0,"[2.0560000000001537,2.5079999999999245,3.8999999999999773]",1,0,0,0,0,1,,,,,,,,,,,,,,,,,,,,,,,,,,,,
,,,,,,,,,,5c62fb7c0ee07c00012604f8,26,Mężczyzna,2022-06-04_08h29.51.669,task,2021.1.4,MacIntel,1.587301587,628b806c463b948bc644b84f,629afabf692063e219f8d5a0,,,,,,,,,,,,,,,,,,,,,,,7,,,,,,,,,,Practice,8,(5x5) - 18,7,,,,,,,,,,,,,,,,"[""7""]",1,[3.52800000000002],1,0,0,0,7,1,,,,,,,,,,,,,,,,,,,,,,,,,,,,,,,,,,,,,,,,,,,
,,,,,,,,,,5c62fb7c0ee07c00012604f8,26,Mężczyzna,2022-06-04_08h29.51.669,task,2021.1.4,MacIntel,1.587301587,628b806c463b948bc644b84f,629afabf692063e219f8d5a0,,,,,,,,,,X V Q F H G B L J M P D K C T S W R N Z,,,,,,,,,,,,,,,,,,,,,,,,,,,,,,,,,,,,,,,,,,,,,,,,,,,0,0,0,0,1,,,,,,,,,,,,,,,,,,,,,,,,,,,,,,,,,,,,,,
,,,,,,,,,,5c62fb7c0ee07c00012604f8,26,Mężczyzna,2022-06-04_08h29.51.669,task,2021.1.4,MacIntel,1.587301587,628b806c463b948bc644b84f,629afabf692063e219f8d5a0,,,,,,,,,,,,,,,,,,,,,,,2,,,,,,,,,,Practice,3,(4x4) - 14,2,,,,,,,,,,,,,,,,"[""2""]",1,[1.72099999999989],1,0,0,0,2,1,,,,,,,,,,,,,,,,,,,,,,,,,,,,,,,,,,,,,,,,,,,
,,,,,,,,,,5c62fb7c0ee07c00012604f8,26,Mężczyzna,2022-06-04_08h29.51.669,task,2021.1.4,MacIntel,1.587301587,628b806c463b948bc644b84f,629afabf692063e219f8d5a0,,,,,,,,,,X V Q F H G B L J M P D K C T S W R N Z,,,,,,,,,,,,,,,,,,,,,,,,,,,,,,,,,,,,,,,,,,,,,,,,,,,1,0,1,0,1,,,,,,,,,,,,,,,,,,,,,,,,,,,,,,,,,,,,,,
,,,,,,,,,,5c62fb7c0ee07c00012604f8,26,Mężczyzna,2022-06-04_08h29.51.669,task,2021.1.4,MacIntel,1.587301587,628b806c463b948bc644b84f,629afabf692063e219f8d5a0,,,,,,,,,,,,,,,,,,,,,,,,,,,,,,,,,,,,,,,,,,,,,,,,,,,,,,,,,,,,,,,,,,wr,"[""w"",""r""]",0,"[1.969000000000051,2.20900000000006,2.868000000000052]",1,1,0,1,0,1,,,,,,,,,,,,,,,,,,,,,,,,,,,,
,,,,,,,,,,5c62fb7c0ee07c00012604f8,26,Mężczyzna,2022-06-04_08h29.51.669,task,2021.1.4,MacIntel,1.587301587,628b806c463b948bc644b84f,629afabf692063e219f8d5a0,,,,,,,,,,,,,,,,,,,,,,,9,,,,,,,,,,Practice,10,(20/2) - 1,9,,,,,,,,,,,,,,,,"[""9""]",1,[2.104000000000042],1,0,0,0,9,1,,,,,,,,,,,,,,,,,,,,,,,,,,,,,,,,,,,,,,,,,,,
,,,,,,,,,,5c62fb7c0ee07c00012604f8,26,Mężczyzna,2022-06-04_08h29.51.669,task,2021.1.4,MacIntel,1.587301587,628b806c463b948bc644b84f,629afabf692063e219f8d5a0,,,,,,,,,,X V Q F H G B L J M P D K C T S W R N Z,,,,,,,,,,,,,,,,,,,,,,,,,,,,,,,,,,,,,,,,,,,,,,,,,,,0,0,0,0,1,,,,,,,,,,,,,,,,,,,,,,,,,,,,,,,,,,,,,,
,,,,,,,,,,5c62fb7c0ee07c00012604f8,26,Mężczyzna,2022-06-04_08h29.51.669,task,2021.1.4,MacIntel,1.587301587,628b806c463b948bc644b84f,629afabf692063e219f8d5a0,,,,,,,,,,,,,,,,,,,,,,,3,,,,,,,,,,Practice,4,(8/4) + 1,3,,,,,,,,,,,,,,,,"[""3""]",1,[3.1219999999999573],1,0,0,0,3,1,,,,,,,,,,,,,,,,,,,,,,,,,,,,,,,,,,,,,,,,,,,
,,,,,,,,,,5c62fb7c0ee07c00012604f8,26,Mężczyzna,2022-06-04_08h29.51.669,task,2021.1.4,MacIntel,1.587301587,628b806c463b948bc644b84f,629afabf692063e219f8d5a0,,,,,,,,,,X V Q F H G B L J M P D K C T S W R N Z,,,,,,,,,,,,,,,,,,,,,,,,,,,,,,,,,,,,,,,,,,,,,,,,,,,1,0,1,0,1,,,,,,,,,,,,,,,,,,,,,,,,,,,,,,,,,,,,,,
,,,,,,,,,,5c62fb7c0ee07c00012604f8,26,Mężczyzna,2022-06-04_08h29.51.669,task,2021.1.4,MacIntel,1.587301587,628b806c463b948bc644b84f,629afabf692063e219f8d5a0,,,,,,,,,,,,,,,,,,,,,,,,,,,,,,,,,,,,,,,,,,,,,,,,,,,,,,,,,,,,,,,,,,qw,"[""q"",""w""]",0,"[1.893000000000029,2.04200000000003,2.7730000000000246]",1,2,0,2,0,1,,,,,,,,,,,,,,,,,,,,,,,,,,,,
,,,,,,,,,,5c62fb7c0ee07c00012604f8,26,Mężczyzna,2022-06-04_08h29.51.669,task,2021.1.4,MacIntel,1.587301587,628b806c463b948bc644b84f,629afabf692063e219f8d5a0,,,,,,,,,,,,,,,,,,,,,,,3,,,,,,,,,,Task,35,(1x2) + 1,3,,,,,,,,,,,,,,,,,,,1,,,,,,,,,,,,,,,,,,,,,space,18.305,"[""3""]",1,[2.571999999999889],0,0,0,34,1,,,,,,,,,,,,,,,,,,
,,,,,,,,,,5c62fb7c0ee07c00012604f8,26,Mężczyzna,2022-06-04_08h29.51.669,task,2021.1.4,MacIntel,1.587301587,628b806c463b948bc644b84f,629afabf692063e219f8d5a0,,,,,,,,,,X V Q F H G B L J M P D K C T S W R N Z,,,,,,,,,,,,,,,,,,,,,,,,,,,,,,,,,,,,,,,,,,,,,,,,,,,,,,,,,,,,,,,,,,,,,,,,,,,,0,0,0,0,1,,,,,,,,,,,,,
,,,,,,,,,,5c62fb7c0ee07c00012604f8,26,Mężczyzna,2022-06-04_08h29.51.669,task,2021.1.4,MacIntel,1.587301587,628b806c463b948bc644b84f,629afabf692063e219f8d5a0,,,,,,,,,,,,,,,,,,,,,,,,,,,,,,,,,Task,7,(3x7) - 12,9,,,,,,,,,,,,,,,,,,,0,,,,,,,,,,,,,,,,,,,,,,,,0,,0,0,0,6,1,,,,,,,,,,,,,,,,,,
,,,,,,,,,,5c62fb7c0ee07c00012604f8,26,Mężczyzna,2022-06-04_08h29.51.669,task,2021.1.4,MacIntel,1.587301587,628b806c463b948bc644b84f,629afabf692063e219f8d5a0,,,,,,,,,,,,,,,,,,,,,,,2,,,,,,,,,,Task,19,(6/2) - 1,2,,,,,,,,,,,,,,,,,,,1,,,,,,,,,,,,,,,,,,,,,,,"[""2""]",1,[2.532000000000039],0,1,1,18,1,,,,,,,,,,,,,,,,,,
,,,,,,,,,,5c62fb7c0ee07c00012604f8,26,Mężczyzna,2022-06-04_08h29.51.669,task,2021.1.4,MacIntel,1.587301587,628b806c463b948bc644b84f,629afabf692063e219f8d5a0,,,,,,,,,,X V Q F H G B L J M P D K C T S W R N Z,,,,,,,,,,,,,,,,,,,,,,,,,,,,,,,,,,,,,,,,,,,,,,,,,,,,,,,,,,,,,,,,,,,,,,,,,,,,1,0,1,0,1,,,,,,,,,,,,,
,,,,,,,,,,5c62fb7c0ee07c00012604f8,26,Mężczyzna,2022-06-04_08h29.51.669,task,2021.1.4,MacIntel,1.587301587,628b806c463b948bc644b84f,629afabf692063e219f8d5a0,,,,,,,,,,,,,,,,,,,,,,,,,,,,,,,,,,,,,,,,,,,,,,,,,,,,,,,,,,,,,,,,,,,,,,,,,,,,,,,,,,,,,,,,,,,qx,"[""q"",""x""]",0,"[2.1499999999999773,2.697999999999979,3.370999999999981]",0,ZX,0,0,0,0,1,,
,,,,,,,,,,5c62fb7c0ee07c00012604f8,26,Mężczyzna,2022-06-04_08h29.51.669,task,2021.1.4,MacIntel,1.587301587,628b806c463b948bc644b84f,629afabf692063e219f8d5a0,,,,,,,,,,,,,,,,,,,,,,,2,,,,,,,,,,Task,13,(3x4) - 6,6,,,,,,,,,,,,,,,,,,,0,,,,,,,,,,,,,,,,,,,,,,,"[""2""]",0,[2.0950000000000273],0,0,0,12,1,,,,,,,,,,,,,,,,,,
,,,,,,,,,,5c62fb7c0ee07c00012604f8,26,Mężczyzna,2022-06-04_08h29.51.669,task,2021.1.4,MacIntel,1.587301587,628b806c463b948bc644b84f,629afabf692063e219f8d5a0,,,,,,,,,,,,,,,,,,,,,,,4,,,,,,,,,,Task,21,(10/2) - 1,4,,,,,,,,,,,,,,,,,,,1,,,,,,,,,,,,,,,,,,,,,,,"[""4""]",1,[2.034999999999968],0,1,1,20,1,,,,,,,,,,,,,,,,,,
,,,,,,,,,,5c62fb7c0ee07c00012604f8,26,Mężczyzna,2022-06-04_08h29.51.669,task,2021.1.4,MacIntel,1.587301587,628b806c463b948bc644b84f,629afabf692063e219f8d5a0,,,,,,,,,,X V Q F H G B L J M P D K C T S W R N Z,,,,,,,,,,,,,,,,,,,,,,,,,,,,,,,,,,,,,,,,,,,,,,,,,,,,,,,,,,,,,,,,,,,,,,,,,,,,0,0,0,0,1,,,,,,,,,,,,,
,,,,,,,,,,5c62fb7c0ee07c00012604f8,26,Mężczyzna,2022-06-04_08h29.51.669,task,2021.1.4,MacIntel,1.587301587,628b806c463b948bc644b84f,629afabf692063e219f8d5a0,,,,,,,,,,,,,,,,,,,,,,,7,,,,,,,,,,Task,14,(2x2) + 3,7,,,,,,,,,,,,,,,,,,,1,,,,,,,,,,,,,,,,,,,,,,,"[""7""]",1,[2.576999999999998],0,0,0,13,1,,,,,,,,,,,,,,,,,,
,,,,,,,,,,5c62fb7c0ee07c00012604f8,26,Mężczyzna,2022-06-04_08h29.51.669,task,2021.1.4,MacIntel,1.587301587,628b806c463b948bc644b84f,629afabf692063e219f8d5a0,,,,,,,,,,X V Q F H G B L J M P D K C T S W R N Z,,,,,,,,,,,,,,,,,,,,,,,,,,,,,,,,,,,,,,,,,,,,,,,,,,,,,,,,,,,,,,,,,,,,,,,,,,,,1,0,1,0,1,,,,,,,,,,,,,
,,,,,,,,,,5c62fb7c0ee07c00012604f8,26,Mężczyzna,2022-06-04_08h29.51.669,task,2021.1.4,MacIntel,1.587301587,628b806c463b948bc644b84f,629afabf692063e219f8d5a0,,,,,,,,,,,,,,,,,,,,,,,,,,,,,,,,,,,,,,,,,,,,,,,,,,,,,,,,,,,,,,,,,,,,,,,,,,,,,,,,,,,,,,,,,,,wc,"[""w"",""c""]",0,"[1.643000000000029,1.88900000000001,2.975999999999999]",0,VC,1,0,1,0,1,,
,,,,,,,,,,5c62fb7c0ee07c00012604f8,26,Mężczyzna,2022-06-04_08h29.51.669,task,2021.1.4,MacIntel,1.587301587,628b806c463b948bc644b84f,629afabf692063e219f8d5a0,,,,,,,,,,,,,,,,,,,,,,,,,,,,,,,,,,,,,,,,,,,,,,,,,,,,,,,,,,,,,,,,,,,,,,,,,,,,,,,,,,,,,,,,,,,,,,,,,,,,,,space,5.369
