key_resp_15.keys,key_resp_15.rt,key_resp_13.keys,key_resp_13.corr,key_resp_13.rt,ranodm_loop.thisRepN,ranodm_loop.thisTrialN,ranodm_loop.thisN,ranodm_loop.thisIndex,ranodm_loop.ran,participant,Wiek*,Płeć,date,expName,psychopyVersion,OS,frameRate,study_id,session,key_resp_16.keys,key_resp_16.rt,key_resp_4.keys,key_resp_4.rt,next_letter.thisRepN,next_letter.thisTrialN,next_letter.thisN,next_letter.thisIndex,next_letter.ran,letter,simple_recall,key_resp_5.keys,key_resp_5.rt,simple_recall_corr,simple_recall_corrkeys,next_level.thisRepN,next_level.thisTrialN,next_level.thisN,next_level.thisIndex,next_level.ran,key_resp_2.keys,key_resp_2.rt,digit_answer,key_resp.keys,key_resp.corr,key_resp.rt,RT_list,next_equation.thisRepN,next_equation.thisTrialN,next_equation.thisN,next_equation.thisIndex,next_equation.ran,Task,Trial,Problem,Operation_answer,processing_score,sumRT,meanRT,sumdiff,sd,RT,key_resp_3.keys,key_resp_3.rt,repeat_practice.thisRepN,repeat_practice.thisTrialN,repeat_practice.thisN,repeat_practice.thisIndex,repeat_practice.ran,key_resp_6.keys,key_resp_6.rt,key_resp_11.keys,key_resp_11.corr,key_resp_11.rt,operation_correct,repeat_if_wrong_prac.thisRepN,repeat_if_wrong_prac.thisTrialN,repeat_if_wrong_prac.thisN,repeat_if_wrong_prac.thisIndex,repeat_if_wrong_prac.ran,span_size_prac.thisRepN,span_size_prac.thisTrialN,span_size_prac.thisN,span_size_prac.thisIndex,span_size_prac.ran,complex_recall_practice,key_resp_9.keys,key_resp_9.corr,key_resp_9.rt,complex_prac_corr,span_recall_prac.thisRepN,span_recall_prac.thisTrialN,span_recall_prac.thisN,span_recall_prac.thisIndex,span_recall_prac.ran,key_resp_10.keys,key_resp_10.rt,key_resp_7.keys,key_resp_7.corr,repeat_if_wrong.thisRepN,repeat_if_wrong.thisTrialN,repeat_if_wrong.thisN,repeat_if_wrong.thisIndex,repeat_if_wrong.ran,key_resp_7.rt,span_size.thisRepN,span_size.thisTrialN,span_size.thisN,span_size.thisIndex,span_size.ran,complex_recall,key_resp_8.keys,key_resp_8.corr,key_resp_8.rt,complex_recall_corr,complex_recall_corrkeys,span_recall.thisRepN,span_recall.thisTrialN,span_recall.thisN,span_recall.thisIndex,span_recall.ran,key_resp_12.keys,key_resp_12.rt
space,15.768,"[""period""]",0,[0.7821000000014919],0,0,0,0,1,5c6d938c79151c00017c7560,23,Mężczyzna,2022-06-04_08h11.26.298,task,2021.1.4,Win32,143.9470275,628b806c463b948bc644b84f,629af77b871db084a5397aad,,,,,,,,,,,,,,,,,,,,,,,,,,,,,,,,,,,,,,,,,,,,,,,,,,,,,,,,,,,,,,,,,,,,,,,,,,,,,,,,,,,,,,,,,,,,,,,,,,,,,,,
,,"[""comma""]",0,[0.4698999999985034],1,0,1,0,1,5c6d938c79151c00017c7560,23,Mężczyzna,2022-06-04_08h11.26.298,task,2021.1.4,Win32,143.9470275,628b806c463b948bc644b84f,629af77b871db084a5397aad,,,,,,,,,,,,,,,,,,,,,,,,,,,,,,,,,,,,,,,,,,,,,,,,,,,,,,,,,,,,,,,,,,,,,,,,,,,,,,,,,,,,,,,,,,,,,,,,,,,,,,,
,,"[""comma""]",0,[0.2616999999955283],2,0,2,0,1,5c6d938c79151c00017c7560,23,Mężczyzna,2022-06-04_08h11.26.298,task,2021.1.4,Win32,143.9470275,628b806c463b948bc644b84f,629af77b871db084a5397aad,,,,,,,,,,,,,,,,,,,,,,,,,,,,,,,,,,,,,,,,,,,,,,,,,,,,,,,,,,,,,,,,,,,,,,,,,,,,,,,,,,,,,,,,,,,,,,,,,,,,,,,
,,"[""comma"",""period""]",0,"[0.15980000000446637,1.9230000000000018]",3,0,3,0,1,5c6d938c79151c00017c7560,23,Mężczyzna,2022-06-04_08h11.26.298,task,2021.1.4,Win32,143.9470275,628b806c463b948bc644b84f,629af77b871db084a5397aad,,,,,,,,,,,,,,,,,,,,,,,,,,,,,,,,,,,,,,,,,,,,,,,,,,,,,,,,,,,,,,,,,,,,,,,,,,,,,,,,,,,,,,,,,,,,,,,,,,,,,,,
,,,0,,4,0,4,0,1,5c6d938c79151c00017c7560,23,Mężczyzna,2022-06-04_08h11.26.298,task,2021.1.4,Win32,143.9470275,628b806c463b948bc644b84f,629af77b871db084a5397aad,,,,,,,,,,,,,,,,,,,,,,,,,,,,,,,,,,,,,,,,,,,,,,,,,,,,,,,,,,,,,,,,,,,,,,,,,,,,,,,,,,,,,,,,,,,,,,,,,,,,,,,
,,"[""period""]",0,[0.2582000000029723],5,0,5,0,1,5c6d938c79151c00017c7560,23,Mężczyzna,2022-06-04_08h11.26.298,task,2021.1.4,Win32,143.9470275,628b806c463b948bc644b84f,629af77b871db084a5397aad,,,,,,,,,,,,,,,,,,,,,,,,,,,,,,,,,,,,,,,,,,,,,,,,,,,,,,,,,,,,,,,,,,,,,,,,,,,,,,,,,,,,,,,,,,,,,,,,,,,,,,,
,,"[""comma""]",0,[0.33030000000447046],6,0,6,0,1,5c6d938c79151c00017c7560,23,Mężczyzna,2022-06-04_08h11.26.298,task,2021.1.4,Win32,143.9470275,628b806c463b948bc644b84f,629af77b871db084a5397aad,,,,,,,,,,,,,,,,,,,,,,,,,,,,,,,,,,,,,,,,,,,,,,,,,,,,,,,,,,,,,,,,,,,,,,,,,,,,,,,,,,,,,,,,,,,,,,,,,,,,,,,
,,"[""period""]",0,[0.3542000000029759],7,0,7,0,1,5c6d938c79151c00017c7560,23,Mężczyzna,2022-06-04_08h11.26.298,task,2021.1.4,Win32,143.9470275,628b806c463b948bc644b84f,629af77b871db084a5397aad,,,,,,,,,,,,,,,,,,,,,,,,,,,,,,,,,,,,,,,,,,,,,,,,,,,,,,,,,,,,,,,,,,,,,,,,,,,,,,,,,,,,,,,,,,,,,,,,,,,,,,,
,,"[""period""]",0,[0.30100000000000193],8,0,8,0,1,5c6d938c79151c00017c7560,23,Mężczyzna,2022-06-04_08h11.26.298,task,2021.1.4,Win32,143.9470275,628b806c463b948bc644b84f,629af77b871db084a5397aad,,,,,,,,,,,,,,,,,,,,,,,,,,,,,,,,,,,,,,,,,,,,,,,,,,,,,,,,,,,,,,,,,,,,,,,,,,,,,,,,,,,,,,,,,,,,,,,,,,,,,,,
,,"[""period""]",0,[0.3149999999999977],9,0,9,0,1,5c6d938c79151c00017c7560,23,Mężczyzna,2022-06-04_08h11.26.298,task,2021.1.4,Win32,143.9470275,628b806c463b948bc644b84f,629af77b871db084a5397aad,,,,,,,,,,,,,,,,,,,,,,,,,,,,,,,,,,,,,,,,,,,,,,,,,,,,,,,,,,,,,,,,,,,,,,,,,,,,,,,,,,,,,,,,,,,,,,,,,,,,,,,
,,"[""comma""]",0,[0.31289999999850693],10,0,10,0,1,5c6d938c79151c00017c7560,23,Mężczyzna,2022-06-04_08h11.26.298,task,2021.1.4,Win32,143.9470275,628b806c463b948bc644b84f,629af77b871db084a5397aad,,,,,,,,,,,,,,,,,,,,,,,,,,,,,,,,,,,,,,,,,,,,,,,,,,,,,,,,,,,,,,,,,,,,,,,,,,,,,,,,,,,,,,,,,,,,,,,,,,,,,,,
,,"[""comma""]",0,[0.5002000000029909],11,0,11,0,1,5c6d938c79151c00017c7560,23,Mężczyzna,2022-06-04_08h11.26.298,task,2021.1.4,Win32,143.9470275,628b806c463b948bc644b84f,629af77b871db084a5397aad,,,,,,,,,,,,,,,,,,,,,,,,,,,,,,,,,,,,,,,,,,,,,,,,,,,,,,,,,,,,,,,,,,,,,,,,,,,,,,,,,,,,,,,,,,,,,,,,,,,,,,,
,,"[""period""]",0,[0.3542999999970107],12,0,12,0,1,5c6d938c79151c00017c7560,23,Mężczyzna,2022-06-04_08h11.26.298,task,2021.1.4,Win32,143.9470275,628b806c463b948bc644b84f,629af77b871db084a5397aad,,,,,,,,,,,,,,,,,,,,,,,,,,,,,,,,,,,,,,,,,,,,,,,,,,,,,,,,,,,,,,,,,,,,,,,,,,,,,,,,,,,,,,,,,,,,,,,,,,,,,,,
,,"[""comma""]",0,[0.35120000000299],13,0,13,0,1,5c6d938c79151c00017c7560,23,Mężczyzna,2022-06-04_08h11.26.298,task,2021.1.4,Win32,143.9470275,628b806c463b948bc644b84f,629af77b871db084a5397aad,,,,,,,,,,,,,,,,,,,,,,,,,,,,,,,,,,,,,,,,,,,,,,,,,,,,,,,,,,,,,,,,,,,,,,,,,,,,,,,,,,,,,,,,,,,,,,,,,,,,,,,
,,"[""period""]",0,[0.299199999995551],14,0,14,0,1,5c6d938c79151c00017c7560,23,Mężczyzna,2022-06-04_08h11.26.298,task,2021.1.4,Win32,143.9470275,628b806c463b948bc644b84f,629af77b871db084a5397aad,,,,,,,,,,,,,,,,,,,,,,,,,,,,,,,,,,,,,,,,,,,,,,,,,,,,,,,,,,,,,,,,,,,,,,,,,,,,,,,,,,,,,,,,,,,,,,,,,,,,,,,
,,"[""comma""]",0,[0.3218999999985215],15,0,15,0,1,5c6d938c79151c00017c7560,23,Mężczyzna,2022-06-04_08h11.26.298,task,2021.1.4,Win32,143.9470275,628b806c463b948bc644b84f,629af77b871db084a5397aad,,,,,,,,,,,,,,,,,,,,,,,,,,,,,,,,,,,,,,,,,,,,,,,,,,,,,,,,,,,,,,,,,,,,,,,,,,,,,,,,,,,,,,,,,,,,,,,,,,,,,,,
,,"[""comma""]",0,[0.33620000000297523],16,0,16,0,1,5c6d938c79151c00017c7560,23,Mężczyzna,2022-06-04_08h11.26.298,task,2021.1.4,Win32,143.9470275,628b806c463b948bc644b84f,629af77b871db084a5397aad,,,,,,,,,,,,,,,,,,,,,,,,,,,,,,,,,,,,,,,,,,,,,,,,,,,,,,,,,,,,,,,,,,,,,,,,,,,,,,,,,,,,,,,,,,,,,,,,,,,,,,,
,,"[""period""]",0,[0.3541999999955294],17,0,17,0,1,5c6d938c79151c00017c7560,23,Mężczyzna,2022-06-04_08h11.26.298,task,2021.1.4,Win32,143.9470275,628b806c463b948bc644b84f,629af77b871db084a5397aad,,,,,,,,,,,,,,,,,,,,,,,,,,,,,,,,,,,,,,,,,,,,,,,,,,,,,,,,,,,,,,,,,,,,,,,,,,,,,,,,,,,,,,,,,,,,,,,,,,,,,,,
,,"[""comma""]",0,[0.376100000001486],18,0,18,0,1,5c6d938c79151c00017c7560,23,Mężczyzna,2022-06-04_08h11.26.298,task,2021.1.4,Win32,143.9470275,628b806c463b948bc644b84f,629af77b871db084a5397aad,,,,,,,,,,,,,,,,,,,,,,,,,,,,,,,,,,,,,,,,,,,,,,,,,,,,,,,,,,,,,,,,,,,,,,,,,,,,,,,,,,,,,,,,,,,,,,,,,,,,,,,
,,"[""period""]",0,[0.24610000000149057],19,0,19,0,1,5c6d938c79151c00017c7560,23,Mężczyzna,2022-06-04_08h11.26.298,task,2021.1.4,Win32,143.9470275,628b806c463b948bc644b84f,629af77b871db084a5397aad,,,,,,,,,,,,,,,,,,,,,,,,,,,,,,,,,,,,,,,,,,,,,,,,,,,,,,,,,,,,,,,,,,,,,,,,,,,,,,,,,,,,,,,,,,,,,,,,,,,,,,,
,,"[""period""]",0,[0.23169999999552715],20,0,20,0,1,5c6d938c79151c00017c7560,23,Mężczyzna,2022-06-04_08h11.26.298,task,2021.1.4,Win32,143.9470275,628b806c463b948bc644b84f,629af77b871db084a5397aad,,,,,,,,,,,,,,,,,,,,,,,,,,,,,,,,,,,,,,,,,,,,,,,,,,,,,,,,,,,,,,,,,,,,,,,,,,,,,,,,,,,,,,,,,,,,,,,,,,,,,,,
,,"[""period""]",0,[0.27089999999850534],21,0,21,0,1,5c6d938c79151c00017c7560,23,Mężczyzna,2022-06-04_08h11.26.298,task,2021.1.4,Win32,143.9470275,628b806c463b948bc644b84f,629af77b871db084a5397aad,,,,,,,,,,,,,,,,,,,,,,,,,,,,,,,,,,,,,,,,,,,,,,,,,,,,,,,,,,,,,,,,,,,,,,,,,,,,,,,,,,,,,,,,,,,,,,,,,,,,,,,
,,"[""comma""]",0,[0.26009999999402567],22,0,22,0,1,5c6d938c79151c00017c7560,23,Mężczyzna,2022-06-04_08h11.26.298,task,2021.1.4,Win32,143.9470275,628b806c463b948bc644b84f,629af77b871db084a5397aad,,,,,,,,,,,,,,,,,,,,,,,,,,,,,,,,,,,,,,,,,,,,,,,,,,,,,,,,,,,,,,,,,,,,,,,,,,,,,,,,,,,,,,,,,,,,,,,,,,,,,,,
,,"[""period""]",0,[0.23690000000596],23,0,23,0,1,5c6d938c79151c00017c7560,23,Mężczyzna,2022-06-04_08h11.26.298,task,2021.1.4,Win32,143.9470275,628b806c463b948bc644b84f,629af77b871db084a5397aad,,,,,,,,,,,,,,,,,,,,,,,,,,,,,,,,,,,,,,,,,,,,,,,,,,,,,,,,,,,,,,,,,,,,,,,,,,,,,,,,,,,,,,,,,,,,,,,,,,,,,,,
,,"[""period""]",0,[0.22660000000149694],24,0,24,0,1,5c6d938c79151c00017c7560,23,Mężczyzna,2022-06-04_08h11.26.298,task,2021.1.4,Win32,143.9470275,628b806c463b948bc644b84f,629af77b871db084a5397aad,,,,,,,,,,,,,,,,,,,,,,,,,,,,,,,,,,,,,,,,,,,,,,,,,,,,,,,,,,,,,,,,,,,,,,,,,,,,,,,,,,,,,,,,,,,,,,,,,,,,,,,
,,"[""comma""]",0,[0.0016000000014742],25,0,25,0,1,5c6d938c79151c00017c7560,23,Mężczyzna,2022-06-04_08h11.26.298,task,2021.1.4,Win32,143.9470275,628b806c463b948bc644b84f,629af77b871db084a5397aad,,,,,,,,,,,,,,,,,,,,,,,,,,,,,,,,,,,,,,,,,,,,,,,,,,,,,,,,,,,,,,,,,,,,,,,,,,,,,,,,,,,,,,,,,,,,,,,,,,,,,,,
,,"[""comma""]",0,[0.2470000000000141],26,0,26,0,1,5c6d938c79151c00017c7560,23,Mężczyzna,2022-06-04_08h11.26.298,task,2021.1.4,Win32,143.9470275,628b806c463b948bc644b84f,629af77b871db084a5397aad,,,,,,,,,,,,,,,,,,,,,,,,,,,,,,,,,,,,,,,,,,,,,,,,,,,,,,,,,,,,,,,,,,,,,,,,,,,,,,,,,,,,,,,,,,,,,,,,,,,,,,,
,,"[""comma""]",0,[0.2779999999999916],27,0,27,0,1,5c6d938c79151c00017c7560,23,Mężczyzna,2022-06-04_08h11.26.298,task,2021.1.4,Win32,143.9470275,628b806c463b948bc644b84f,629af77b871db084a5397aad,,,,,,,,,,,,,,,,,,,,,,,,,,,,,,,,,,,,,,,,,,,,,,,,,,,,,,,,,,,,,,,,,,,,,,,,,,,,,,,,,,,,,,,,,,,,,,,,,,,,,,,
,,"[""period""]",0,[0.28720000000296864],28,0,28,0,1,5c6d938c79151c00017c7560,23,Mężczyzna,2022-06-04_08h11.26.298,task,2021.1.4,Win32,143.9470275,628b806c463b948bc644b84f,629af77b871db084a5397aad,,,,,,,,,,,,,,,,,,,,,,,,,,,,,,,,,,,,,,,,,,,,,,,,,,,,,,,,,,,,,,,,,,,,,,,,,,,,,,,,,,,,,,,,,,,,,,,,,,,,,,,
,,"[""comma""]",0,[0.28489999999851534],29,0,29,0,1,5c6d938c79151c00017c7560,23,Mężczyzna,2022-06-04_08h11.26.298,task,2021.1.4,Win32,143.9470275,628b806c463b948bc644b84f,629af77b871db084a5397aad,,,,,,,,,,,,,,,,,,,,,,,,,,,,,,,,,,,,,,,,,,,,,,,,,,,,,,,,,,,,,,,,,,,,,,,,,,,,,,,,,,,,,,,,,,,,,,,,,,,,,,,
,,"[""comma""]",0,[0.2637999999970191],30,0,30,0,1,5c6d938c79151c00017c7560,23,Mężczyzna,2022-06-04_08h11.26.298,task,2021.1.4,Win32,143.9470275,628b806c463b948bc644b84f,629af77b871db084a5397aad,,,,,,,,,,,,,,,,,,,,,,,,,,,,,,,,,,,,,,,,,,,,,,,,,,,,,,,,,,,,,,,,,,,,,,,,,,,,,,,,,,,,,,,,,,,,,,,,,,,,,,,
,,"[""period""]",0,[0.2848000000044806],31,0,31,0,1,5c6d938c79151c00017c7560,23,Mężczyzna,2022-06-04_08h11.26.298,task,2021.1.4,Win32,143.9470275,628b806c463b948bc644b84f,629af77b871db084a5397aad,,,,,,,,,,,,,,,,,,,,,,,,,,,,,,,,,,,,,,,,,,,,,,,,,,,,,,,,,,,,,,,,,,,,,,,,,,,,,,,,,,,,,,,,,,,,,,,,,,,,,,,
,,"[""period""]",0,[0.31960000000148625],32,0,32,0,1,5c6d938c79151c00017c7560,23,Mężczyzna,2022-06-04_08h11.26.298,task,2021.1.4,Win32,143.9470275,628b806c463b948bc644b84f,629af77b871db084a5397aad,,,,,,,,,,,,,,,,,,,,,,,,,,,,,,,,,,,,,,,,,,,,,,,,,,,,,,,,,,,,,,,,,,,,,,,,,,,,,,,,,,,,,,,,,,,,,,,,,,,,,,,
,,"[""period""]",0,[0.28460000000148966],33,0,33,0,1,5c6d938c79151c00017c7560,23,Mężczyzna,2022-06-04_08h11.26.298,task,2021.1.4,Win32,143.9470275,628b806c463b948bc644b84f,629af77b871db084a5397aad,,,,,,,,,,,,,,,,,,,,,,,,,,,,,,,,,,,,,,,,,,,,,,,,,,,,,,,,,,,,,,,,,,,,,,,,,,,,,,,,,,,,,,,,,,,,,,,,,,,,,,,
,,"[""comma""]",0,[0.2609000000059609],34,0,34,0,1,5c6d938c79151c00017c7560,23,Mężczyzna,2022-06-04_08h11.26.298,task,2021.1.4,Win32,143.9470275,628b806c463b948bc644b84f,629af77b871db084a5397aad,,,,,,,,,,,,,,,,,,,,,,,,,,,,,,,,,,,,,,,,,,,,,,,,,,,,,,,,,,,,,,,,,,,,,,,,,,,,,,,,,,,,,,,,,,,,,,,,,,,,,,,
,,"[""period""]",0,[0.2751999999955217],35,0,35,0,1,5c6d938c79151c00017c7560,23,Mężczyzna,2022-06-04_08h11.26.298,task,2021.1.4,Win32,143.9470275,628b806c463b948bc644b84f,629af77b871db084a5397aad,,,,,,,,,,,,,,,,,,,,,,,,,,,,,,,,,,,,,,,,,,,,,,,,,,,,,,,,,,,,,,,,,,,,,,,,,,,,,,,,,,,,,,,,,,,,,,,,,,,,,,,
,,"[""comma""]",0,[0.30980000000448626],36,0,36,0,1,5c6d938c79151c00017c7560,23,Mężczyzna,2022-06-04_08h11.26.298,task,2021.1.4,Win32,143.9470275,628b806c463b948bc644b84f,629af77b871db084a5397aad,,,,,,,,,,,,,,,,,,,,,,,,,,,,,,,,,,,,,,,,,,,,,,,,,,,,,,,,,,,,,,,,,,,,,,,,,,,,,,,,,,,,,,,,,,,,,,,,,,,,,,,
,,"[""comma""]",0,[0.25],37,0,37,0,1,5c6d938c79151c00017c7560,23,Mężczyzna,2022-06-04_08h11.26.298,task,2021.1.4,Win32,143.9470275,628b806c463b948bc644b84f,629af77b871db084a5397aad,,,,,,,,,,,,,,,,,,,,,,,,,,,,,,,,,,,,,,,,,,,,,,,,,,,,,,,,,,,,,,,,,,,,,,,,,,,,,,,,,,,,,,,,,,,,,,,,,,,,,,,
,,"[""period""]",0,[0.26859999999405204],38,0,38,0,1,5c6d938c79151c00017c7560,23,Mężczyzna,2022-06-04_08h11.26.298,task,2021.1.4,Win32,143.9470275,628b806c463b948bc644b84f,629af77b871db084a5397aad,,,,,,,,,,,,,,,,,,,,,,,,,,,,,,,,,,,,,,,,,,,,,,,,,,,,,,,,,,,,,,,,,,,,,,,,,,,,,,,,,,,,,,,,,,,,,,,,,,,,,,,
,,"[""period""]",0,[0.2986999999955344],39,0,39,0,1,5c6d938c79151c00017c7560,23,Mężczyzna,2022-06-04_08h11.26.298,task,2021.1.4,Win32,143.9470275,628b806c463b948bc644b84f,629af77b871db084a5397aad,,,,,,,,,,,,,,,,,,,,,,,,,,,,,,,,,,,,,,,,,,,,,,,,,,,,,,,,,,,,,,,,,,,,,,,,,,,,,,,,,,,,,,,,,,,,,,,,,,,,,,,
,,"[""comma""]",0,[0.2800999999940359],40,0,40,0,1,5c6d938c79151c00017c7560,23,Mężczyzna,2022-06-04_08h11.26.298,task,2021.1.4,Win32,143.9470275,628b806c463b948bc644b84f,629af77b871db084a5397aad,,,,,,,,,,,,,,,,,,,,,,,,,,,,,,,,,,,,,,,,,,,,,,,,,,,,,,,,,,,,,,,,,,,,,,,,,,,,,,,,,,,,,,,,,,,,,,,,,,,,,,,
,,"[""period""]",0,[0.2120000000000175],41,0,41,0,1,5c6d938c79151c00017c7560,23,Mężczyzna,2022-06-04_08h11.26.298,task,2021.1.4,Win32,143.9470275,628b806c463b948bc644b84f,629af77b871db084a5397aad,,,,,,,,,,,,,,,,,,,,,,,,,,,,,,,,,,,,,,,,,,,,,,,,,,,,,,,,,,,,,,,,,,,,,,,,,,,,,,,,,,,,,,,,,,,,,,,,,,,,,,,
,,"[""period""]",0,[0.1266000000014742],42,0,42,0,1,5c6d938c79151c00017c7560,23,Mężczyzna,2022-06-04_08h11.26.298,task,2021.1.4,Win32,143.9470275,628b806c463b948bc644b84f,629af77b871db084a5397aad,,,,,,,,,,,,,,,,,,,,,,,,,,,,,,,,,,,,,,,,,,,,,,,,,,,,,,,,,,,,,,,,,,,,,,,,,,,,,,,,,,,,,,,,,,,,,,,,,,,,,,,
,,"[""comma""]",0,[0.20750000000001023],43,0,43,0,1,5c6d938c79151c00017c7560,23,Mężczyzna,2022-06-04_08h11.26.298,task,2021.1.4,Win32,143.9470275,628b806c463b948bc644b84f,629af77b871db084a5397aad,,,,,,,,,,,,,,,,,,,,,,,,,,,,,,,,,,,,,,,,,,,,,,,,,,,,,,,,,,,,,,,,,,,,,,,,,,,,,,,,,,,,,,,,,,,,,,,,,,,,,,,
,,"[""period""]",0,[0.2848000000044806],44,0,44,0,1,5c6d938c79151c00017c7560,23,Mężczyzna,2022-06-04_08h11.26.298,task,2021.1.4,Win32,143.9470275,628b806c463b948bc644b84f,629af77b871db084a5397aad,,,,,,,,,,,,,,,,,,,,,,,,,,,,,,,,,,,,,,,,,,,,,,,,,,,,,,,,,,,,,,,,,,,,,,,,,,,,,,,,,,,,,,,,,,,,,,,,,,,,,,,
,,"[""comma"",""comma""]",0,"[0.037200000002968636,1.9813999999985015]",45,0,45,0,1,5c6d938c79151c00017c7560,23,Mężczyzna,2022-06-04_08h11.26.298,task,2021.1.4,Win32,143.9470275,628b806c463b948bc644b84f,629af77b871db084a5397aad,,,,,,,,,,,,,,,,,,,,,,,,,,,,,,,,,,,,,,,,,,,,,,,,,,,,,,,,,,,,,,,,,,,,,,,,,,,,,,,,,,,,,,,,,,,,,,,,,,,,,,,
,,,0,,46,0,46,0,1,5c6d938c79151c00017c7560,23,Mężczyzna,2022-06-04_08h11.26.298,task,2021.1.4,Win32,143.9470275,628b806c463b948bc644b84f,629af77b871db084a5397aad,,,,,,,,,,,,,,,,,,,,,,,,,,,,,,,,,,,,,,,,,,,,,,,,,,,,,,,,,,,,,,,,,,,,,,,,,,,,,,,,,,,,,,,,,,,,,,,,,,,,,,,
,,"[""period""]",0,[0.24320000000298592],47,0,47,0,1,5c6d938c79151c00017c7560,23,Mężczyzna,2022-06-04_08h11.26.298,task,2021.1.4,Win32,143.9470275,628b806c463b948bc644b84f,629af77b871db084a5397aad,,,,,,,,,,,,,,,,,,,,,,,,,,,,,,,,,,,,,,,,,,,,,,,,,,,,,,,,,,,,,,,,,,,,,,,,,,,,,,,,,,,,,,,,,,,,,,,,,,,,,,,
,,"[""comma""]",0,[0.35620000000295704],48,0,48,0,1,5c6d938c79151c00017c7560,23,Mężczyzna,2022-06-04_08h11.26.298,task,2021.1.4,Win32,143.9470275,628b806c463b948bc644b84f,629af77b871db084a5397aad,,,,,,,,,,,,,,,,,,,,,,,,,,,,,,,,,,,,,,,,,,,,,,,,,,,,,,,,,,,,,,,,,,,,,,,,,,,,,,,,,,,,,,,,,,,,,,,,,,,,,,,
,,"[""period""]",0,[0.2848000000044806],49,0,49,0,1,5c6d938c79151c00017c7560,23,Mężczyzna,2022-06-04_08h11.26.298,task,2021.1.4,Win32,143.9470275,628b806c463b948bc644b84f,629af77b871db084a5397aad,,,,,,,,,,,,,,,,,,,,,,,,,,,,,,,,,,,,,,,,,,,,,,,,,,,,,,,,,,,,,,,,,,,,,,,,,,,,,,,,,,,,,,,,,,,,,,,,,,,,,,,
,,"[""period""]",0,[0.3310000000000173],50,0,50,0,1,5c6d938c79151c00017c7560,23,Mężczyzna,2022-06-04_08h11.26.298,task,2021.1.4,Win32,143.9470275,628b806c463b948bc644b84f,629af77b871db084a5397aad,,,,,,,,,,,,,,,,,,,,,,,,,,,,,,,,,,,,,,,,,,,,,,,,,,,,,,,,,,,,,,,,,,,,,,,,,,,,,,,,,,,,,,,,,,,,,,,,,,,,,,,
,,"[""period""]",0,[0.27510000000148693],51,0,51,0,1,5c6d938c79151c00017c7560,23,Mężczyzna,2022-06-04_08h11.26.298,task,2021.1.4,Win32,143.9470275,628b806c463b948bc644b84f,629af77b871db084a5397aad,,,,,,,,,,,,,,,,,,,,,,,,,,,,,,,,,,,,,,,,,,,,,,,,,,,,,,,,,,,,,,,,,,,,,,,,,,,,,,,,,,,,,,,,,,,,,,,,,,,,,,,
,,"[""period""]",0,[0.2987999999970157],52,0,52,0,1,5c6d938c79151c00017c7560,23,Mężczyzna,2022-06-04_08h11.26.298,task,2021.1.4,Win32,143.9470275,628b806c463b948bc644b84f,629af77b871db084a5397aad,,,,,,,,,,,,,,,,,,,,,,,,,,,,,,,,,,,,,,,,,,,,,,,,,,,,,,,,,,,,,,,,,,,,,,,,,,,,,,,,,,,,,,,,,,,,,,,,,,,,,,,
,,"[""comma""]",0,[0.29889999999852535],53,0,53,0,1,5c6d938c79151c00017c7560,23,Mężczyzna,2022-06-04_08h11.26.298,task,2021.1.4,Win32,143.9470275,628b806c463b948bc644b84f,629af77b871db084a5397aad,,,,,,,,,,,,,,,,,,,,,,,,,,,,,,,,,,,,,,,,,,,,,,,,,,,,,,,,,,,,,,,,,,,,,,,,,,,,,,,,,,,,,,,,,,,,,,,,,,,,,,,
,,"[""comma""]",0,[0.30539999999851375],54,0,54,0,1,5c6d938c79151c00017c7560,23,Mężczyzna,2022-06-04_08h11.26.298,task,2021.1.4,Win32,143.9470275,628b806c463b948bc644b84f,629af77b871db084a5397aad,,,,,,,,,,,,,,,,,,,,,,,,,,,,,,,,,,,,,,,,,,,,,,,,,,,,,,,,,,,,,,,,,,,,,,,,,,,,,,,,,,,,,,,,,,,,,,,,,,,,,,,
,,"[""period""]",0,[0.2778000000044756],55,0,55,0,1,5c6d938c79151c00017c7560,23,Mężczyzna,2022-06-04_08h11.26.298,task,2021.1.4,Win32,143.9470275,628b806c463b948bc644b84f,629af77b871db084a5397aad,,,,,,,,,,,,,,,,,,,,,,,,,,,,,,,,,,,,,,,,,,,,,,,,,,,,,,,,,,,,,,,,,,,,,,,,,,,,,,,,,,,,,,,,,,,,,,,,,,,,,,,
,,"[""period""]",0,[0.16879999999702022],56,0,56,0,1,5c6d938c79151c00017c7560,23,Mężczyzna,2022-06-04_08h11.26.298,task,2021.1.4,Win32,143.9470275,628b806c463b948bc644b84f,629af77b871db084a5397aad,,,,,,,,,,,,,,,,,,,,,,,,,,,,,,,,,,,,,,,,,,,,,,,,,,,,,,,,,,,,,,,,,,,,,,,,,,,,,,,,,,,,,,,,,,,,,,,,,,,,,,,
,,"[""period""]",0,[0.22379999999699862],57,0,57,0,1,5c6d938c79151c00017c7560,23,Mężczyzna,2022-06-04_08h11.26.298,task,2021.1.4,Win32,143.9470275,628b806c463b948bc644b84f,629af77b871db084a5397aad,,,,,,,,,,,,,,,,,,,,,,,,,,,,,,,,,,,,,,,,,,,,,,,,,,,,,,,,,,,,,,,,,,,,,,,,,,,,,,,,,,,,,,,,,,,,,,,,,,,,,,,
,,"[""comma""]",0,[0.13910000000149125],58,0,58,0,1,5c6d938c79151c00017c7560,23,Mężczyzna,2022-06-04_08h11.26.298,task,2021.1.4,Win32,143.9470275,628b806c463b948bc644b84f,629af77b871db084a5397aad,,,,,,,,,,,,,,,,,,,,,,,,,,,,,,,,,,,,,,,,,,,,,,,,,,,,,,,,,,,,,,,,,,,,,,,,,,,,,,,,,,,,,,,,,,,,,,,,,,,,,,,
,,"[""comma""]",0,[0.28489999999851534],59,0,59,0,1,5c6d938c79151c00017c7560,23,Mężczyzna,2022-06-04_08h11.26.298,task,2021.1.4,Win32,143.9470275,628b806c463b948bc644b84f,629af77b871db084a5397aad,,,,,,,,,,,,,,,,,,,,,,,,,,,,,,,,,,,,,,,,,,,,,,,,,,,,,,,,,,,,,,,,,,,,,,,,,,,,,,,,,,,,,,,,,,,,,,,,,,,,,,,
,,"[""period""]",0,[0.34870000000296386],60,0,60,0,1,5c6d938c79151c00017c7560,23,Mężczyzna,2022-06-04_08h11.26.298,task,2021.1.4,Win32,143.9470275,628b806c463b948bc644b84f,629af77b871db084a5397aad,,,,,,,,,,,,,,,,,,,,,,,,,,,,,,,,,,,,,,,,,,,,,,,,,,,,,,,,,,,,,,,,,,,,,,,,,,,,,,,,,,,,,,,,,,,,,,,,,,,,,,,
,,"[""comma""]",0,[0.3633000000044717],61,0,61,0,1,5c6d938c79151c00017c7560,23,Mężczyzna,2022-06-04_08h11.26.298,task,2021.1.4,Win32,143.9470275,628b806c463b948bc644b84f,629af77b871db084a5397aad,,,,,,,,,,,,,,,,,,,,,,,,,,,,,,,,,,,,,,,,,,,,,,,,,,,,,,,,,,,,,,,,,,,,,,,,,,,,,,,,,,,,,,,,,,,,,,,,,,,,,,,
,,"[""comma""]",0,[0.36099999999999],62,0,62,0,1,5c6d938c79151c00017c7560,23,Mężczyzna,2022-06-04_08h11.26.298,task,2021.1.4,Win32,143.9470275,628b806c463b948bc644b84f,629af77b871db084a5397aad,,,,,,,,,,,,,,,,,,,,,,,,,,,,,,,,,,,,,,,,,,,,,,,,,,,,,,,,,,,,,,,,,,,,,,,,,,,,,,,,,,,,,,,,,,,,,,,,,,,,,,,
,,"[""period""]",0,[0.33799999999999386],63,0,63,0,1,5c6d938c79151c00017c7560,23,Mężczyzna,2022-06-04_08h11.26.298,task,2021.1.4,Win32,143.9470275,628b806c463b948bc644b84f,629af77b871db084a5397aad,,,,,,,,,,,,,,,,,,,,,,,,,,,,,,,,,,,,,,,,,,,,,,,,,,,,,,,,,,,,,,,,,,,,,,,,,,,,,,,,,,,,,,,,,,,,,,,,,,,,,,,
,,"[""comma""]",0,[0.3563000000044667],64,0,64,0,1,5c6d938c79151c00017c7560,23,Mężczyzna,2022-06-04_08h11.26.298,task,2021.1.4,Win32,143.9470275,628b806c463b948bc644b84f,629af77b871db084a5397aad,,,,,,,,,,,,,,,,,,,,,,,,,,,,,,,,,,,,,,,,,,,,,,,,,,,,,,,,,,,,,,,,,,,,,,,,,,,,,,,,,,,,,,,,,,,,,,,,,,,,,,,
,,"[""comma""]",0,[0.5072000000029675],65,0,65,0,1,5c6d938c79151c00017c7560,23,Mężczyzna,2022-06-04_08h11.26.298,task,2021.1.4,Win32,143.9470275,628b806c463b948bc644b84f,629af77b871db084a5397aad,,,,,,,,,,,,,,,,,,,,,,,,,,,,,,,,,,,,,,,,,,,,,,,,,,,,,,,,,,,,,,,,,,,,,,,,,,,,,,,,,,,,,,,,,,,,,,,,,,,,,,,
,,"[""period""]",0,[0.4342000000029884],66,0,66,0,1,5c6d938c79151c00017c7560,23,Mężczyzna,2022-06-04_08h11.26.298,task,2021.1.4,Win32,143.9470275,628b806c463b948bc644b84f,629af77b871db084a5397aad,,,,,,,,,,,,,,,,,,,,,,,,,,,,,,,,,,,,,,,,,,,,,,,,,,,,,,,,,,,,,,,,,,,,,,,,,,,,,,,,,,,,,,,,,,,,,,,,,,,,,,,
,,"[""comma""]",0,[0.32029999999701886],67,0,67,0,1,5c6d938c79151c00017c7560,23,Mężczyzna,2022-06-04_08h11.26.298,task,2021.1.4,Win32,143.9470275,628b806c463b948bc644b84f,629af77b871db084a5397aad,,,,,,,,,,,,,,,,,,,,,,,,,,,,,,,,,,,,,,,,,,,,,,,,,,,,,,,,,,,,,,,,,,,,,,,,,,,,,,,,,,,,,,,,,,,,,,,,,,,,,,,
,,"[""comma""]",0,[0.3388999999985174],68,0,68,0,1,5c6d938c79151c00017c7560,23,Mężczyzna,2022-06-04_08h11.26.298,task,2021.1.4,Win32,143.9470275,628b806c463b948bc644b84f,629af77b871db084a5397aad,,,,,,,,,,,,,,,,,,,,,,,,,,,,,,,,,,,,,,,,,,,,,,,,,,,,,,,,,,,,,,,,,,,,,,,,,,,,,,,,,,,,,,,,,,,,,,,,,,,,,,,
,,"[""period""]",0,[0.3197999999970307],69,0,69,0,1,5c6d938c79151c00017c7560,23,Mężczyzna,2022-06-04_08h11.26.298,task,2021.1.4,Win32,143.9470275,628b806c463b948bc644b84f,629af77b871db084a5397aad,,,,,,,,,,,,,,,,,,,,,,,,,,,,,,,,,,,,,,,,,,,,,,,,,,,,,,,,,,,,,,,,,,,,,,,,,,,,,,,,,,,,,,,,,,,,,,,,,,,,,,,
,,"[""comma""]",0,[0.3421000000014942],70,0,70,0,1,5c6d938c79151c00017c7560,23,Mężczyzna,2022-06-04_08h11.26.298,task,2021.1.4,Win32,143.9470275,628b806c463b948bc644b84f,629af77b871db084a5397aad,,,,,,,,,,,,,,,,,,,,,,,,,,,,,,,,,,,,,,,,,,,,,,,,,,,,,,,,,,,,,,,,,,,,,,,,,,,,,,,,,,,,,,,,,,,,,,,,,,,,,,,
,,"[""period""]",0,[0.2988999999984969],71,0,71,0,1,5c6d938c79151c00017c7560,23,Mężczyzna,2022-06-04_08h11.26.298,task,2021.1.4,Win32,143.9470275,628b806c463b948bc644b84f,629af77b871db084a5397aad,,,,,,,,,,,,,,,,,,,,,,,,,,,,,,,,,,,,,,,,,,,,,,,,,,,,,,,,,,,,,,,,,,,,,,,,,,,,,,,,,,,,,,,,,,,,,,,,,,,,,,,
,,"[""comma""]",0,[0.3009999999999877],72,0,72,0,1,5c6d938c79151c00017c7560,23,Mężczyzna,2022-06-04_08h11.26.298,task,2021.1.4,Win32,143.9470275,628b806c463b948bc644b84f,629af77b871db084a5397aad,,,,,,,,,,,,,,,,,,,,,,,,,,,,,,,,,,,,,,,,,,,,,,,,,,,,,,,,,,,,,,,,,,,,,,,,,,,,,,,,,,,,,,,,,,,,,,,,,,,,,,,
,,"[""comma""]",0,[0.3230000000000075],73,0,73,0,1,5c6d938c79151c00017c7560,23,Mężczyzna,2022-06-04_08h11.26.298,task,2021.1.4,Win32,143.9470275,628b806c463b948bc644b84f,629af77b871db084a5397aad,,,,,,,,,,,,,,,,,,,,,,,,,,,,,,,,,,,,,,,,,,,,,,,,,,,,,,,,,,,,,,,,,,,,,,,,,,,,,,,,,,,,,,,,,,,,,,,,,,,,,,,
,,"[""period""]",0,[0.3494000000059714],74,0,74,0,1,5c6d938c79151c00017c7560,23,Mężczyzna,2022-06-04_08h11.26.298,task,2021.1.4,Win32,143.9470275,628b806c463b948bc644b84f,629af77b871db084a5397aad,,,,,,,,,,,,,,,,,,,,,,,,,,,,,,,,,,,,,,,,,,,,,,,,,,,,,,,,,,,,,,,,,,,,,,,,,,,,,,,,,,,,,,,,,,,,,,,,,,,,,,,
,,"[""comma""]",0,[0.35139999999853444],75,0,75,0,1,5c6d938c79151c00017c7560,23,Mężczyzna,2022-06-04_08h11.26.298,task,2021.1.4,Win32,143.9470275,628b806c463b948bc644b84f,629af77b871db084a5397aad,,,,,,,,,,,,,,,,,,,,,,,,,,,,,,,,,,,,,,,,,,,,,,,,,,,,,,,,,,,,,,,,,,,,,,,,,,,,,,,,,,,,,,,,,,,,,,,,,,,,,,,
,,"[""period""]",0,[0.3612000000029525],76,0,76,0,1,5c6d938c79151c00017c7560,23,Mężczyzna,2022-06-04_08h11.26.298,task,2021.1.4,Win32,143.9470275,628b806c463b948bc644b84f,629af77b871db084a5397aad,,,,,,,,,,,,,,,,,,,,,,,,,,,,,,,,,,,,,,,,,,,,,,,,,,,,,,,,,,,,,,,,,,,,,,,,,,,,,,,,,,,,,,,,,,,,,,,,,,,,,,,
,,"[""period""]",0,[0.3097000000029766],77,0,77,0,1,5c6d938c79151c00017c7560,23,Mężczyzna,2022-06-04_08h11.26.298,task,2021.1.4,Win32,143.9470275,628b806c463b948bc644b84f,629af77b871db084a5397aad,,,,,,,,,,,,,,,,,,,,,,,,,,,,,,,,,,,,,,,,,,,,,,,,,,,,,,,,,,,,,,,,,,,,,,,,,,,,,,,,,,,,,,,,,,,,,,,,,,,,,,,
,,"[""comma""]",0,[0.28300000000001546],78,0,78,0,1,5c6d938c79151c00017c7560,23,Mężczyzna,2022-06-04_08h11.26.298,task,2021.1.4,Win32,143.9470275,628b806c463b948bc644b84f,629af77b871db084a5397aad,,,,,,,,,,,,,,,,,,,,,,,,,,,,,,,,,,,,,,,,,,,,,,,,,,,,,,,,,,,,,,,,,,,,,,,,,,,,,,,,,,,,,,,,,,,,,,,,,,,,,,,
,,"[""comma""]",0,[0.30889999999851625],79,0,79,0,1,5c6d938c79151c00017c7560,23,Mężczyzna,2022-06-04_08h11.26.298,task,2021.1.4,Win32,143.9470275,628b806c463b948bc644b84f,629af77b871db084a5397aad,,,,,,,,,,,,,,,,,,,,,,,,,,,,,,,,,,,,,,,,,,,,,,,,,,,,,,,,,,,,,,,,,,,,,,,,,,,,,,,,,,,,,,,,,,,,,,,,,,,,,,,
,,"[""period""]",0,[0.29210000000148284],80,0,80,0,1,5c6d938c79151c00017c7560,23,Mężczyzna,2022-06-04_08h11.26.298,task,2021.1.4,Win32,143.9470275,628b806c463b948bc644b84f,629af77b871db084a5397aad,,,,,,,,,,,,,,,,,,,,,,,,,,,,,,,,,,,,,,,,,,,,,,,,,,,,,,,,,,,,,,,,,,,,,,,,,,,,,,,,,,,,,,,,,,,,,,,,,,,,,,,
,,"[""comma""]",0,[0.3082000000029552],81,0,81,0,1,5c6d938c79151c00017c7560,23,Mężczyzna,2022-06-04_08h11.26.298,task,2021.1.4,Win32,143.9470275,628b806c463b948bc644b84f,629af77b871db084a5397aad,,,,,,,,,,,,,,,,,,,,,,,,,,,,,,,,,,,,,,,,,,,,,,,,,,,,,,,,,,,,,,,,,,,,,,,,,,,,,,,,,,,,,,,,,,,,,,,,,,,,,,,
,,"[""period""]",0,[0.34050000000002],82,0,82,0,1,5c6d938c79151c00017c7560,23,Mężczyzna,2022-06-04_08h11.26.298,task,2021.1.4,Win32,143.9470275,628b806c463b948bc644b84f,629af77b871db084a5397aad,,,,,,,,,,,,,,,,,,,,,,,,,,,,,,,,,,,,,,,,,,,,,,,,,,,,,,,,,,,,,,,,,,,,,,,,,,,,,,,,,,,,,,,,,,,,,,,,,,,,,,,
,,"[""comma""]",0,[0.39579999999699567],83,0,83,0,1,5c6d938c79151c00017c7560,23,Mężczyzna,2022-06-04_08h11.26.298,task,2021.1.4,Win32,143.9470275,628b806c463b948bc644b84f,629af77b871db084a5397aad,,,,,,,,,,,,,,,,,,,,,,,,,,,,,,,,,,,,,,,,,,,,,,,,,,,,,,,,,,,,,,,,,,,,,,,,,,,,,,,,,,,,,,,,,,,,,,,,,,,,,,,
,,"[""period""]",0,[0.3423999999985199],84,0,84,0,1,5c6d938c79151c00017c7560,23,Mężczyzna,2022-06-04_08h11.26.298,task,2021.1.4,Win32,143.9470275,628b806c463b948bc644b84f,629af77b871db084a5397aad,,,,,,,,,,,,,,,,,,,,,,,,,,,,,,,,,,,,,,,,,,,,,,,,,,,,,,,,,,,,,,,,,,,,,,,,,,,,,,,,,,,,,,,,,,,,,,,,,,,,,,,
,,"[""period""]",0,[0.3646000000015306],85,0,85,0,1,5c6d938c79151c00017c7560,23,Mężczyzna,2022-06-04_08h11.26.298,task,2021.1.4,Win32,143.9470275,628b806c463b948bc644b84f,629af77b871db084a5397aad,,,,,,,,,,,,,,,,,,,,,,,,,,,,,,,,,,,,,,,,,,,,,,,,,,,,,,,,,,,,,,,,,,,,,,,,,,,,,,,,,,,,,,,,,,,,,,,,,,,,,,,
,,"[""comma""]",0,[0.354199999995501],86,0,86,0,1,5c6d938c79151c00017c7560,23,Mężczyzna,2022-06-04_08h11.26.298,task,2021.1.4,Win32,143.9470275,628b806c463b948bc644b84f,629af77b871db084a5397aad,,,,,,,,,,,,,,,,,,,,,,,,,,,,,,,,,,,,,,,,,,,,,,,,,,,,,,,,,,,,,,,,,,,,,,,,,,,,,,,,,,,,,,,,,,,,,,,,,,,,,,,
,,"[""period""]",0,[0.4382000000029507],87,0,87,0,1,5c6d938c79151c00017c7560,23,Mężczyzna,2022-06-04_08h11.26.298,task,2021.1.4,Win32,143.9470275,628b806c463b948bc644b84f,629af77b871db084a5397aad,,,,,,,,,,,,,,,,,,,,,,,,,,,,,,,,,,,,,,,,,,,,,,,,,,,,,,,,,,,,,,,,,,,,,,,,,,,,,,,,,,,,,,,,,,,,,,,,,,,,,,,
,,"[""comma""]",0,[0.4487999999970498],88,0,88,0,1,5c6d938c79151c00017c7560,23,Mężczyzna,2022-06-04_08h11.26.298,task,2021.1.4,Win32,143.9470275,628b806c463b948bc644b84f,629af77b871db084a5397aad,,,,,,,,,,,,,,,,,,,,,,,,,,,,,,,,,,,,,,,,,,,,,,,,,,,,,,,,,,,,,,,,,,,,,,,,,,,,,,,,,,,,,,,,,,,,,,,,,,,,,,,
,,"[""comma""]",0,[0.29360000000144737],89,0,89,0,1,5c6d938c79151c00017c7560,23,Mężczyzna,2022-06-04_08h11.26.298,task,2021.1.4,Win32,143.9470275,628b806c463b948bc644b84f,629af77b871db084a5397aad,,,,,,,,,,,,,,,,,,,,,,,,,,,,,,,,,,,,,,,,,,,,,,,,,,,,,,,,,,,,,,,,,,,,,,,,,,,,,,,,,,,,,,,,,,,,,,,,,,,,,,,
,,"[""comma""]",0,[0.2501000000014528],90,0,90,0,1,5c6d938c79151c00017c7560,23,Mężczyzna,2022-06-04_08h11.26.298,task,2021.1.4,Win32,143.9470275,628b806c463b948bc644b84f,629af77b871db084a5397aad,,,,,,,,,,,,,,,,,,,,,,,,,,,,,,,,,,,,,,,,,,,,,,,,,,,,,,,,,,,,,,,,,,,,,,,,,,,,,,,,,,,,,,,,,,,,,,,,,,,,,,,
,,"[""period""]",0,[0.264199999995526],91,0,91,0,1,5c6d938c79151c00017c7560,23,Mężczyzna,2022-06-04_08h11.26.298,task,2021.1.4,Win32,143.9470275,628b806c463b948bc644b84f,629af77b871db084a5397aad,,,,,,,,,,,,,,,,,,,,,,,,,,,,,,,,,,,,,,,,,,,,,,,,,,,,,,,,,,,,,,,,,,,,,,,,,,,,,,,,,,,,,,,,,,,,,,,,,,,,,,,
,,"[""comma""]",0,[0.3404000000059568],92,0,92,0,1,5c6d938c79151c00017c7560,23,Mężczyzna,2022-06-04_08h11.26.298,task,2021.1.4,Win32,143.9470275,628b806c463b948bc644b84f,629af77b871db084a5397aad,,,,,,,,,,,,,,,,,,,,,,,,,,,,,,,,,,,,,,,,,,,,,,,,,,,,,,,,,,,,,,,,,,,,,,,,,,,,,,,,,,,,,,,,,,,,,,,,,,,,,,,
,,"[""period""]",0,[0.28020000000299206],93,0,93,0,1,5c6d938c79151c00017c7560,23,Mężczyzna,2022-06-04_08h11.26.298,task,2021.1.4,Win32,143.9470275,628b806c463b948bc644b84f,629af77b871db084a5397aad,,,,,,,,,,,,,,,,,,,,,,,,,,,,,,,,,,,,,,,,,,,,,,,,,,,,,,,,,,,,,,,,,,,,,,,,,,,,,,,,,,,,,,,,,,,,,,,,,,,,,,,
,,"[""comma""]",0,[0.33579999999705024],94,0,94,0,1,5c6d938c79151c00017c7560,23,Mężczyzna,2022-06-04_08h11.26.298,task,2021.1.4,Win32,143.9470275,628b806c463b948bc644b84f,629af77b871db084a5397aad,,,,,,,,,,,,,,,,,,,,,,,,,,,,,,,,,,,,,,,,,,,,,,,,,,,,,,,,,,,,,,,,,,,,,,,,,,,,,,,,,,,,,,,,,,,,,,,,,,,,,,,
,,"[""period""]",0,[0.32070000000294385],95,0,95,0,1,5c6d938c79151c00017c7560,23,Mężczyzna,2022-06-04_08h11.26.298,task,2021.1.4,Win32,143.9470275,628b806c463b948bc644b84f,629af77b871db084a5397aad,,,,,,,,,,,,,,,,,,,,,,,,,,,,,,,,,,,,,,,,,,,,,,,,,,,,,,,,,,,,,,,,,,,,,,,,,,,,,,,,,,,,,,,,,,,,,,,,,,,,,,,
,,"[""comma""]",0,[0.31990000000593],96,0,96,0,1,5c6d938c79151c00017c7560,23,Mężczyzna,2022-06-04_08h11.26.298,task,2021.1.4,Win32,143.9470275,628b806c463b948bc644b84f,629af77b871db084a5397aad,,,,,,,,,,,,,,,,,,,,,,,,,,,,,,,,,,,,,,,,,,,,,,,,,,,,,,,,,,,,,,,,,,,,,,,,,,,,,,,,,,,,,,,,,,,,,,,,,,,,,,,
,,"[""period""]",0,[0.30800000000004957],97,0,97,0,1,5c6d938c79151c00017c7560,23,Mężczyzna,2022-06-04_08h11.26.298,task,2021.1.4,Win32,143.9470275,628b806c463b948bc644b84f,629af77b871db084a5397aad,,,,,,,,,,,,,,,,,,,,,,,,,,,,,,,,,,,,,,,,,,,,,,,,,,,,,,,,,,,,,,,,,,,,,,,,,,,,,,,,,,,,,,,,,,,,,,,,,,,,,,,
,,"[""comma""]",0,[0.3223000000044749],98,0,98,0,1,5c6d938c79151c00017c7560,23,Mężczyzna,2022-06-04_08h11.26.298,task,2021.1.4,Win32,143.9470275,628b806c463b948bc644b84f,629af77b871db084a5397aad,,,,,,,,,,,,,,,,,,,,,,,,,,,,,,,,,,,,,,,,,,,,,,,,,,,,,,,,,,,,,,,,,,,,,,,,,,,,,,,,,,,,,,,,,,,,,,,,,,,,,,,
,,"[""period""]",0,[0.29910000000148784],99,0,99,0,1,5c6d938c79151c00017c7560,23,Mężczyzna,2022-06-04_08h11.26.298,task,2021.1.4,Win32,143.9470275,628b806c463b948bc644b84f,629af77b871db084a5397aad,,,,,,,,,,,,,,,,,,,,,,,,,,,,,,,,,,,,,,,,,,,,,,,,,,,,,,,,,,,,,,,,,,,,,,,,,,,,,,,,,,,,,,,,,,,,,,,,,,,,,,,
,,"[""period""]",0,[0.3384000000059473],100,0,100,0,1,5c6d938c79151c00017c7560,23,Mężczyzna,2022-06-04_08h11.26.298,task,2021.1.4,Win32,143.9470275,628b806c463b948bc644b84f,629af77b871db084a5397aad,,,,,,,,,,,,,,,,,,,,,,,,,,,,,,,,,,,,,,,,,,,,,,,,,,,,,,,,,,,,,,,,,,,,,,,,,,,,,,,,,,,,,,,,,,,,,,,,,,,,,,,
,,"[""comma""]",0,[0.2862000000030207],101,0,101,0,1,5c6d938c79151c00017c7560,23,Mężczyzna,2022-06-04_08h11.26.298,task,2021.1.4,Win32,143.9470275,628b806c463b948bc644b84f,629af77b871db084a5397aad,,,,,,,,,,,,,,,,,,,,,,,,,,,,,,,,,,,,,,,,,,,,,,,,,,,,,,,,,,,,,,,,,,,,,,,,,,,,,,,,,,,,,,,,,,,,,,,,,,,,,,,
,,"[""comma""]",0,[0.3170000000000073],102,0,102,0,1,5c6d938c79151c00017c7560,23,Mężczyzna,2022-06-04_08h11.26.298,task,2021.1.4,Win32,143.9470275,628b806c463b948bc644b84f,629af77b871db084a5397aad,,,,,,,,,,,,,,,,,,,,,,,,,,,,,,,,,,,,,,,,,,,,,,,,,,,,,,,,,,,,,,,,,,,,,,,,,,,,,,,,,,,,,,,,,,,,,,,,,,,,,,,
,,"[""comma""]",0,[0.2901000000014733],103,0,103,0,1,5c6d938c79151c00017c7560,23,Mężczyzna,2022-06-04_08h11.26.298,task,2021.1.4,Win32,143.9470275,628b806c463b948bc644b84f,629af77b871db084a5397aad,,,,,,,,,,,,,,,,,,,,,,,,,,,,,,,,,,,,,,,,,,,,,,,,,,,,,,,,,,,,,,,,,,,,,,,,,,,,,,,,,,,,,,,,,,,,,,,,,,,,,,,
,,"[""comma""]",0,[0.32650000000001],104,0,104,0,1,5c6d938c79151c00017c7560,23,Mężczyzna,2022-06-04_08h11.26.298,task,2021.1.4,Win32,143.9470275,628b806c463b948bc644b84f,629af77b871db084a5397aad,,,,,,,,,,,,,,,,,,,,,,,,,,,,,,,,,,,,,,,,,,,,,,,,,,,,,,,,,,,,,,,,,,,,,,,,,,,,,,,,,,,,,,,,,,,,,,,,,,,,,,,
,,"[""period""]",0,[0.2693000000044776],105,0,105,0,1,5c6d938c79151c00017c7560,23,Mężczyzna,2022-06-04_08h11.26.298,task,2021.1.4,Win32,143.9470275,628b806c463b948bc644b84f,629af77b871db084a5397aad,,,,,,,,,,,,,,,,,,,,,,,,,,,,,,,,,,,,,,,,,,,,,,,,,,,,,,,,,,,,,,,,,,,,,,,,,,,,,,,,,,,,,,,,,,,,,,,,,,,,,,,
,,"[""period""]",0,[0.4238999999984685],106,0,106,0,1,5c6d938c79151c00017c7560,23,Mężczyzna,2022-06-04_08h11.26.298,task,2021.1.4,Win32,143.9470275,628b806c463b948bc644b84f,629af77b871db084a5397aad,,,,,,,,,,,,,,,,,,,,,,,,,,,,,,,,,,,,,,,,,,,,,,,,,,,,,,,,,,,,,,,,,,,,,,,,,,,,,,,,,,,,,,,,,,,,,,,,,,,,,,,
,,"[""comma""]",0,[0.2810000000000059],107,0,107,0,1,5c6d938c79151c00017c7560,23,Mężczyzna,2022-06-04_08h11.26.298,task,2021.1.4,Win32,143.9470275,628b806c463b948bc644b84f,629af77b871db084a5397aad,,,,,,,,,,,,,,,,,,,,,,,,,,,,,,,,,,,,,,,,,,,,,,,,,,,,,,,,,,,,,,,,,,,,,,,,,,,,,,,,,,,,,,,,,,,,,,,,,,,,,,,
,,"[""period""]",0,[0.3125],108,0,108,0,1,5c6d938c79151c00017c7560,23,Mężczyzna,2022-06-04_08h11.26.298,task,2021.1.4,Win32,143.9470275,628b806c463b948bc644b84f,629af77b871db084a5397aad,,,,,,,,,,,,,,,,,,,,,,,,,,,,,,,,,,,,,,,,,,,,,,,,,,,,,,,,,,,,,,,,,,,,,,,,,,,,,,,,,,,,,,,,,,,,,,,,,,,,,,,
,,"[""comma""]",0,[0.292600000001471],109,0,109,0,1,5c6d938c79151c00017c7560,23,Mężczyzna,2022-06-04_08h11.26.298,task,2021.1.4,Win32,143.9470275,628b806c463b948bc644b84f,629af77b871db084a5397aad,,,,,,,,,,,,,,,,,,,,,,,,,,,,,,,,,,,,,,,,,,,,,,,,,,,,,,,,,,,,,,,,,,,,,,,,,,,,,,,,,,,,,,,,,,,,,,,,,,,,,,,
,,"[""comma""]",0,[0.2821999999955551],110,0,110,0,1,5c6d938c79151c00017c7560,23,Mężczyzna,2022-06-04_08h11.26.298,task,2021.1.4,Win32,143.9470275,628b806c463b948bc644b84f,629af77b871db084a5397aad,,,,,,,,,,,,,,,,,,,,,,,,,,,,,,,,,,,,,,,,,,,,,,,,,,,,,,,,,,,,,,,,,,,,,,,,,,,,,,,,,,,,,,,,,,,,,,,,,,,,,,,
,,"[""period""]",0,[0.2881999999955269],111,0,111,0,1,5c6d938c79151c00017c7560,23,Mężczyzna,2022-06-04_08h11.26.298,task,2021.1.4,Win32,143.9470275,628b806c463b948bc644b84f,629af77b871db084a5397aad,,,,,,,,,,,,,,,,,,,,,,,,,,,,,,,,,,,,,,,,,,,,,,,,,,,,,,,,,,,,,,,,,,,,,,,,,,,,,,,,,,,,,,,,,,,,,,,,,,,,,,,
,,"[""period""]",0,[0.29420000000300206],112,0,112,0,1,5c6d938c79151c00017c7560,23,Mężczyzna,2022-06-04_08h11.26.298,task,2021.1.4,Win32,143.9470275,628b806c463b948bc644b84f,629af77b871db084a5397aad,,,,,,,,,,,,,,,,,,,,,,,,,,,,,,,,,,,,,,,,,,,,,,,,,,,,,,,,,,,,,,,,,,,,,,,,,,,,,,,,,,,,,,,,,,,,,,,,,,,,,,,
,,"[""comma""]",0,[0.132000000000005],113,0,113,0,1,5c6d938c79151c00017c7560,23,Mężczyzna,2022-06-04_08h11.26.298,task,2021.1.4,Win32,143.9470275,628b806c463b948bc644b84f,629af77b871db084a5397aad,,,,,,,,,,,,,,,,,,,,,,,,,,,,,,,,,,,,,,,,,,,,,,,,,,,,,,,,,,,,,,,,,,,,,,,,,,,,,,,,,,,,,,,,,,,,,,,,,,,,,,,
,,"[""period""]",0,[0.28899999999998727],114,0,114,0,1,5c6d938c79151c00017c7560,23,Mężczyzna,2022-06-04_08h11.26.298,task,2021.1.4,Win32,143.9470275,628b806c463b948bc644b84f,629af77b871db084a5397aad,,,,,,,,,,,,,,,,,,,,,,,,,,,,,,,,,,,,,,,,,,,,,,,,,,,,,,,,,,,,,,,,,,,,,,,,,,,,,,,,,,,,,,,,,,,,,,,,,,,,,,,
,,"[""period""]",0,[0.2829000000059523],115,0,115,0,1,5c6d938c79151c00017c7560,23,Mężczyzna,2022-06-04_08h11.26.298,task,2021.1.4,Win32,143.9470275,628b806c463b948bc644b84f,629af77b871db084a5397aad,,,,,,,,,,,,,,,,,,,,,,,,,,,,,,,,,,,,,,,,,,,,,,,,,,,,,,,,,,,,,,,,,,,,,,,,,,,,,,,,,,,,,,,,,,,,,,,,,,,,,,,
,,"[""comma""]",0,[0.3092000000029884],116,0,116,0,1,5c6d938c79151c00017c7560,23,Mężczyzna,2022-06-04_08h11.26.298,task,2021.1.4,Win32,143.9470275,628b806c463b948bc644b84f,629af77b871db084a5397aad,,,,,,,,,,,,,,,,,,,,,,,,,,,,,,,,,,,,,,,,,,,,,,,,,,,,,,,,,,,,,,,,,,,,,,,,,,,,,,,,,,,,,,,,,,,,,,,,,,,,,,,
,,"[""comma""]",0,[0.35650000000003956],117,0,117,0,1,5c6d938c79151c00017c7560,23,Mężczyzna,2022-06-04_08h11.26.298,task,2021.1.4,Win32,143.9470275,628b806c463b948bc644b84f,629af77b871db084a5397aad,,,,,,,,,,,,,,,,,,,,,,,,,,,,,,,,,,,,,,,,,,,,,,,,,,,,,,,,,,,,,,,,,,,,,,,,,,,,,,,,,,,,,,,,,,,,,,,,,,,,,,,
,,"[""period""]",0,[0.3338000000044872],118,0,118,0,1,5c6d938c79151c00017c7560,23,Mężczyzna,2022-06-04_08h11.26.298,task,2021.1.4,Win32,143.9470275,628b806c463b948bc644b84f,629af77b871db084a5397aad,,,,,,,,,,,,,,,,,,,,,,,,,,,,,,,,,,,,,,,,,,,,,,,,,,,,,,,,,,,,,,,,,,,,,,,,,,,,,,,,,,,,,,,,,,,,,,,,,,,,,,,
,,"[""comma""]",0,[0.3267000000029725],119,0,119,0,1,5c6d938c79151c00017c7560,23,Mężczyzna,2022-06-04_08h11.26.298,task,2021.1.4,Win32,143.9470275,628b806c463b948bc644b84f,629af77b871db084a5397aad,,,,,,,,,,,,,,,,,,,,,,,,,,,,,,,,,,,,,,,,,,,,,,,,,,,,,,,,,,,,,,,,,,,,,,,,,,,,,,,,,,,,,,,,,,,,,,,,,,,,,,,
,,,,,,,,,,5c6d938c79151c00017c7560,23,Mężczyzna,2022-06-04_08h11.26.298,task,2021.1.4,Win32,143.9470275,628b806c463b948bc644b84f,629af77b871db084a5397aad,space,19.1198,space,11.5905,0,0,0,0,1,X V Q F H G B L J M P D K C T S W R N Z,,,,,,,,,,,,,,,,,,,,,,,,,,,,,,,,,,,,,,,,,,,,,,,,,,,,,,,,,,,,,,,,,,,,,,,,,,,,,,,,,,,,,,,,,,,,,
,,,,,,,,,,5c6d938c79151c00017c7560,23,Mężczyzna,2022-06-04_08h11.26.298,task,2021.1.4,Win32,143.9470275,628b806c463b948bc644b84f,629af77b871db084a5397aad,,,,,1,0,1,0,1,X V Q F H G B L J M P D K C T S W R N Z,,,,,,,,,,,,,,,,,,,,,,,,,,,,,,,,,,,,,,,,,,,,,,,,,,,,,,,,,,,,,,,,,,,,,,,,,,,,,,,,,,,,,,,,,,,,,
,,,,,,,,,,5c6d938c79151c00017c7560,23,Mężczyzna,2022-06-04_08h11.26.298,task,2021.1.4,Win32,143.9470275,628b806c463b948bc644b84f,629af77b871db084a5397aad,,,,,,,,,,,zx,"[""z"",""x""]","[1.585899999998503,1.8841999999955306,2.641399999998498]",1,ZX,0,0,0,0,1,,,,,,,,,,,,,,,,,,,,,,,,,,,,,,,,,,,,,,,,,,,,,,,,,,,,,,,,,,,,,,,,,,,,,,,,,,,,,,,,,,,
,,,,,,,,,,5c6d938c79151c00017c7560,23,Mężczyzna,2022-06-04_08h11.26.298,task,2021.1.4,Win32,143.9470275,628b806c463b948bc644b84f,629af77b871db084a5397aad,,,,,0,0,0,0,1,X V Q F H G B L J M P D K C T S W R N Z,,,,,,,,,,,,,,,,,,,,,,,,,,,,,,,,,,,,,,,,,,,,,,,,,,,,,,,,,,,,,,,,,,,,,,,,,,,,,,,,,,,,,,,,,,,,,
,,,,,,,,,,5c6d938c79151c00017c7560,23,Mężczyzna,2022-06-04_08h11.26.298,task,2021.1.4,Win32,143.9470275,628b806c463b948bc644b84f,629af77b871db084a5397aad,,,,,1,0,1,0,1,X V Q F H G B L J M P D K C T S W R N Z,,,,,,,,,,,,,,,,,,,,,,,,,,,,,,,,,,,,,,,,,,,,,,,,,,,,,,,,,,,,,,,,,,,,,,,,,,,,,,,,,,,,,,,,,,,,,
,,,,,,,,,,5c6d938c79151c00017c7560,23,Mężczyzna,2022-06-04_08h11.26.298,task,2021.1.4,Win32,143.9470275,628b806c463b948bc644b84f,629af77b871db084a5397aad,,,,,,,,,,,rg,"[""r"",""g""]","[1.3916000000014606,1.934500000000014,2.262999999999977]",1,RG,1,0,1,0,1,,,,,,,,,,,,,,,,,,,,,,,,,,,,,,,,,,,,,,,,,,,,,,,,,,,,,,,,,,,,,,,,,,,,,,,,,,,,,,,,,,,
,,,,,,,,,,5c6d938c79151c00017c7560,23,Mężczyzna,2022-06-04_08h11.26.298,task,2021.1.4,Win32,143.9470275,628b806c463b948bc644b84f,629af77b871db084a5397aad,,,,,0,0,0,0,1,X V Q F H G B L J M P D K C T S W R N Z,,,,,,,,,,,,,,,,,,,,,,,,,,,,,,,,,,,,,,,,,,,,,,,,,,,,,,,,,,,,,,,,,,,,,,,,,,,,,,,,,,,,,,,,,,,,,
,,,,,,,,,,5c6d938c79151c00017c7560,23,Mężczyzna,2022-06-04_08h11.26.298,task,2021.1.4,Win32,143.9470275,628b806c463b948bc644b84f,629af77b871db084a5397aad,,,,,1,0,1,0,1,X V Q F H G B L J M P D K C T S W R N Z,,,,,,,,,,,,,,,,,,,,,,,,,,,,,,,,,,,,,,,,,,,,,,,,,,,,,,,,,,,,,,,,,,,,,,,,,,,,,,,,,,,,,,,,,,,,,
,,,,,,,,,,5c6d938c79151c00017c7560,23,Mężczyzna,2022-06-04_08h11.26.298,task,2021.1.4,Win32,143.9470275,628b806c463b948bc644b84f,629af77b871db084a5397aad,,,,,2,0,2,0,1,X V Q F H G B L J M P D K C T S W R N Z,,,,,,,,,,,,,,,,,,,,,,,,,,,,,,,,,,,,,,,,,,,,,,,,,,,,,,,,,,,,,,,,,,,,,,,,,,,,,,,,,,,,,,,,,,,,,
,,,,,,,,,,5c6d938c79151c00017c7560,23,Mężczyzna,2022-06-04_08h11.26.298,task,2021.1.4,Win32,143.9470275,628b806c463b948bc644b84f,629af77b871db084a5397aad,,,,,,,,,,,rmr,"[""r"",""m"",""r""]","[1.7747000000029516,2.6258000000044603,3.014600000001508,3.9937000000029457]",1,RMR,2,0,2,0,1,,,,,,,,,,,,,,,,,,,,,,,,,,,,,,,,,,,,,,,,,,,,,,,,,,,,,,,,,,,,,,,,,,,,,,,,,,,,,,,,,,,
,,,,,,,,,,5c6d938c79151c00017c7560,23,Mężczyzna,2022-06-04_08h11.26.298,task,2021.1.4,Win32,143.9470275,628b806c463b948bc644b84f,629af77b871db084a5397aad,,,,,0,0,0,0,1,X V Q F H G B L J M P D K C T S W R N Z,,,,,,,,,,,,,,,,,,,,,,,,,,,,,,,,,,,,,,,,,,,,,,,,,,,,,,,,,,,,,,,,,,,,,,,,,,,,,,,,,,,,,,,,,,,,,
,,,,,,,,,,5c6d938c79151c00017c7560,23,Mężczyzna,2022-06-04_08h11.26.298,task,2021.1.4,Win32,143.9470275,628b806c463b948bc644b84f,629af77b871db084a5397aad,,,,,1,0,1,0,1,X V Q F H G B L J M P D K C T S W R N Z,,,,,,,,,,,,,,,,,,,,,,,,,,,,,,,,,,,,,,,,,,,,,,,,,,,,,,,,,,,,,,,,,,,,,,,,,,,,,,,,,,,,,,,,,,,,,
,,,,,,,,,,5c6d938c79151c00017c7560,23,Mężczyzna,2022-06-04_08h11.26.298,task,2021.1.4,Win32,143.9470275,628b806c463b948bc644b84f,629af77b871db084a5397aad,,,,,2,0,2,0,1,X V Q F H G B L J M P D K C T S W R N Z,,,,,,,,,,,,,,,,,,,,,,,,,,,,,,,,,,,,,,,,,,,,,,,,,,,,,,,,,,,,,,,,,,,,,,,,,,,,,,,,,,,,,,,,,,,,,
,,,,,,,,,,5c6d938c79151c00017c7560,23,Mężczyzna,2022-06-04_08h11.26.298,task,2021.1.4,Win32,143.9470275,628b806c463b948bc644b84f,629af77b871db084a5397aad,,,,,,,,,,,cqg,"[""c"",""q"",""g""]","[1.1948999999985404,1.6254999999999882,2.3547000000029925,3.0492000000029975]",1,CQG,3,0,3,0,1,,,,,,,,,,,,,,,,,,,,,,,,,,,,,,,,,,,,,,,,,,,,,,,,,,,,,,,,,,,,,,,,,,,,,,,,,,,,,,,,,,,
,,,,,,,,,,5c6d938c79151c00017c7560,23,Mężczyzna,2022-06-04_08h11.26.298,task,2021.1.4,Win32,143.9470275,628b806c463b948bc644b84f,629af77b871db084a5397aad,,,,,0,0,0,0,1,X V Q F H G B L J M P D K C T S W R N Z,,,,,,,,,,,,,,,,,,,,,,,,,,,,,,,,,,,,,,,,,,,,,,,,,,,,,,,,,,,,,,,,,,,,,,,,,,,,,,,,,,,,,,,,,,,,,
,,,,,,,,,,5c6d938c79151c00017c7560,23,Mężczyzna,2022-06-04_08h11.26.298,task,2021.1.4,Win32,143.9470275,628b806c463b948bc644b84f,629af77b871db084a5397aad,,,,,1,0,1,0,1,X V Q F H G B L J M P D K C T S W R N Z,,,,,,,,,,,,,,,,,,,,,,,,,,,,,,,,,,,,,,,,,,,,,,,,,,,,,,,,,,,,,,,,,,,,,,,,,,,,,,,,,,,,,,,,,,,,,
,,,,,,,,,,5c6d938c79151c00017c7560,23,Mężczyzna,2022-06-04_08h11.26.298,task,2021.1.4,Win32,143.9470275,628b806c463b948bc644b84f,629af77b871db084a5397aad,,,,,2,0,2,0,1,X V Q F H G B L J M P D K C T S W R N Z,,,,,,,,,,,,,,,,,,,,,,,,,,,,,,,,,,,,,,,,,,,,,,,,,,,,,,,,,,,,,,,,,,,,,,,,,,,,,,,,,,,,,,,,,,,,,
,,,,,,,,,,5c6d938c79151c00017c7560,23,Mężczyzna,2022-06-04_08h11.26.298,task,2021.1.4,Win32,143.9470275,628b806c463b948bc644b84f,629af77b871db084a5397aad,,,,,3,0,3,0,1,X V Q F H G B L J M P D K C T S W R N Z,,,,,,,,,,,,,,,,,,,,,,,,,,,,,,,,,,,,,,,,,,,,,,,,,,,,,,,,,,,,,,,,,,,,,,,,,,,,,,,,,,,,,,,,,,,,,
,,,,,,,,,,5c6d938c79151c00017c7560,23,Mężczyzna,2022-06-04_08h11.26.298,task,2021.1.4,Win32,143.9470275,628b806c463b948bc644b84f,629af77b871db084a5397aad,,,,,,,,,,,xbrv,"[""x"",""b"",""r"",""v""]","[1.1394999999999982,1.7434999999999832,2.105600000001459,2.306299999997009,2.7952999999970416]",1,XBRV,4,0,4,0,1,,,,,,,,,,,,,,,,,,,,,,,,,,,,,,,,,,,,,,,,,,,,,,,,,,,,,,,,,,,,,,,,,,,,,,,,,,,,,,,,,,,
,,,,,,,,,,5c6d938c79151c00017c7560,23,Mężczyzna,2022-06-04_08h11.26.298,task,2021.1.4,Win32,143.9470275,628b806c463b948bc644b84f,629af77b871db084a5397aad,,,,,0,0,0,0,1,X V Q F H G B L J M P D K C T S W R N Z,,,,,,,,,,,,,,,,,,,,,,,,,,,,,,,,,,,,,,,,,,,,,,,,,,,,,,,,,,,,,,,,,,,,,,,,,,,,,,,,,,,,,,,,,,,,,
,,,,,,,,,,5c6d938c79151c00017c7560,23,Mężczyzna,2022-06-04_08h11.26.298,task,2021.1.4,Win32,143.9470275,628b806c463b948bc644b84f,629af77b871db084a5397aad,,,,,1,0,1,0,1,X V Q F H G B L J M P D K C T S W R N Z,,,,,,,,,,,,,,,,,,,,,,,,,,,,,,,,,,,,,,,,,,,,,,,,,,,,,,,,,,,,,,,,,,,,,,,,,,,,,,,,,,,,,,,,,,,,,
,,,,,,,,,,5c6d938c79151c00017c7560,23,Mężczyzna,2022-06-04_08h11.26.298,task,2021.1.4,Win32,143.9470275,628b806c463b948bc644b84f,629af77b871db084a5397aad,,,,,2,0,2,0,1,X V Q F H G B L J M P D K C T S W R N Z,,,,,,,,,,,,,,,,,,,,,,,,,,,,,,,,,,,,,,,,,,,,,,,,,,,,,,,,,,,,,,,,,,,,,,,,,,,,,,,,,,,,,,,,,,,,,
,,,,,,,,,,5c6d938c79151c00017c7560,23,Mężczyzna,2022-06-04_08h11.26.298,task,2021.1.4,Win32,143.9470275,628b806c463b948bc644b84f,629af77b871db084a5397aad,,,,,3,0,3,0,1,X V Q F H G B L J M P D K C T S W R N Z,,,,,,,,,,,,,,,,,,,,,,,,,,,,,,,,,,,,,,,,,,,,,,,,,,,,,,,,,,,,,,,,,,,,,,,,,,,,,,,,,,,,,,,,,,,,,
,,,,,,,,,,5c6d938c79151c00017c7560,23,Mężczyzna,2022-06-04_08h11.26.298,task,2021.1.4,Win32,143.9470275,628b806c463b948bc644b84f,629af77b871db084a5397aad,,,,,,,,,,,bwgf,"[""b"",""w"",""g"",""f""]","[1.2284999999999968,1.6602999999969938,2.285199999995484,2.5798999999984744,3.447999999999979]",1,BWGF,5,0,5,0,1,,,,,,,,,,,,,,,,,,,,,,,,,,,,,,,,,,,,,,,,,,,,,,,,,,,,,,,,,,,,,,,,,,,,,,,,,,,,,,,,,,,
,,,,,,,,,,5c6d938c79151c00017c7560,23,Mężczyzna,2022-06-04_08h11.26.298,task,2021.1.4,Win32,143.9470275,628b806c463b948bc644b84f,629af77b871db084a5397aad,,,,,0,0,0,0,1,X V Q F H G B L J M P D K C T S W R N Z,,,,,,,,,,,,,,,,,,,,,,,,,,,,,,,,,,,,,,,,,,,,,,,,,,,,,,,,,,,,,,,,,,,,,,,,,,,,,,,,,,,,,,,,,,,,,
,,,,,,,,,,5c6d938c79151c00017c7560,23,Mężczyzna,2022-06-04_08h11.26.298,task,2021.1.4,Win32,143.9470275,628b806c463b948bc644b84f,629af77b871db084a5397aad,,,,,1,0,1,0,1,X V Q F H G B L J M P D K C T S W R N Z,,,,,,,,,,,,,,,,,,,,,,,,,,,,,,,,,,,,,,,,,,,,,,,,,,,,,,,,,,,,,,,,,,,,,,,,,,,,,,,,,,,,,,,,,,,,,
,,,,,,,,,,5c6d938c79151c00017c7560,23,Mężczyzna,2022-06-04_08h11.26.298,task,2021.1.4,Win32,143.9470275,628b806c463b948bc644b84f,629af77b871db084a5397aad,,,,,2,0,2,0,1,X V Q F H G B L J M P D K C T S W R N Z,,,,,,,,,,,,,,,,,,,,,,,,,,,,,,,,,,,,,,,,,,,,,,,,,,,,,,,,,,,,,,,,,,,,,,,,,,,,,,,,,,,,,,,,,,,,,
,,,,,,,,,,5c6d938c79151c00017c7560,23,Mężczyzna,2022-06-04_08h11.26.298,task,2021.1.4,Win32,143.9470275,628b806c463b948bc644b84f,629af77b871db084a5397aad,,,,,3,0,3,0,1,X V Q F H G B L J M P D K C T S W R N Z,,,,,,,,,,,,,,,,,,,,,,,,,,,,,,,,,,,,,,,,,,,,,,,,,,,,,,,,,,,,,,,,,,,,,,,,,,,,,,,,,,,,,,,,,,,,,
,,,,,,,,,,5c6d938c79151c00017c7560,23,Mężczyzna,2022-06-04_08h11.26.298,task,2021.1.4,Win32,143.9470275,628b806c463b948bc644b84f,629af77b871db084a5397aad,,,,,4,0,4,0,1,X V Q F H G B L J M P D K C T S W R N Z,,,,,,,,,,,,,,,,,,,,,,,,,,,,,,,,,,,,,,,,,,,,,,,,,,,,,,,,,,,,,,,,,,,,,,,,,,,,,,,,,,,,,,,,,,,,,
,,,,,,,,,,5c6d938c79151c00017c7560,23,Mężczyzna,2022-06-04_08h11.26.298,task,2021.1.4,Win32,143.9470275,628b806c463b948bc644b84f,629af77b871db084a5397aad,,,,,,,,,,,rfrhd,"[""r"",""f"",""r"",""h"",""d""]","[1.2239000000059832,1.3999999999999773,1.5840000000000032,2.139300000004482,2.4388000000044485,2.9032000000029825]",1,RFRHD,6,0,6,0,1,,,,,,,,,,,,,,,,,,,,,,,,,,,,,,,,,,,,,,,,,,,,,,,,,,,,,,,,,,,,,,,,,,,,,,,,,,,,,,,,,,,
,,,,,,,,,,5c6d938c79151c00017c7560,23,Mężczyzna,2022-06-04_08h11.26.298,task,2021.1.4,Win32,143.9470275,628b806c463b948bc644b84f,629af77b871db084a5397aad,,,,,0,0,0,0,1,X V Q F H G B L J M P D K C T S W R N Z,,,,,,,,,,,,,,,,,,,,,,,,,,,,,,,,,,,,,,,,,,,,,,,,,,,,,,,,,,,,,,,,,,,,,,,,,,,,,,,,,,,,,,,,,,,,,
,,,,,,,,,,5c6d938c79151c00017c7560,23,Mężczyzna,2022-06-04_08h11.26.298,task,2021.1.4,Win32,143.9470275,628b806c463b948bc644b84f,629af77b871db084a5397aad,,,,,1,0,1,0,1,X V Q F H G B L J M P D K C T S W R N Z,,,,,,,,,,,,,,,,,,,,,,,,,,,,,,,,,,,,,,,,,,,,,,,,,,,,,,,,,,,,,,,,,,,,,,,,,,,,,,,,,,,,,,,,,,,,,
,,,,,,,,,,5c6d938c79151c00017c7560,23,Mężczyzna,2022-06-04_08h11.26.298,task,2021.1.4,Win32,143.9470275,628b806c463b948bc644b84f,629af77b871db084a5397aad,,,,,2,0,2,0,1,X V Q F H G B L J M P D K C T S W R N Z,,,,,,,,,,,,,,,,,,,,,,,,,,,,,,,,,,,,,,,,,,,,,,,,,,,,,,,,,,,,,,,,,,,,,,,,,,,,,,,,,,,,,,,,,,,,,
,,,,,,,,,,5c6d938c79151c00017c7560,23,Mężczyzna,2022-06-04_08h11.26.298,task,2021.1.4,Win32,143.9470275,628b806c463b948bc644b84f,629af77b871db084a5397aad,,,,,3,0,3,0,1,X V Q F H G B L J M P D K C T S W R N Z,,,,,,,,,,,,,,,,,,,,,,,,,,,,,,,,,,,,,,,,,,,,,,,,,,,,,,,,,,,,,,,,,,,,,,,,,,,,,,,,,,,,,,,,,,,,,
,,,,,,,,,,5c6d938c79151c00017c7560,23,Mężczyzna,2022-06-04_08h11.26.298,task,2021.1.4,Win32,143.9470275,628b806c463b948bc644b84f,629af77b871db084a5397aad,,,,,4,0,4,0,1,X V Q F H G B L J M P D K C T S W R N Z,,,,,,,,,,,,,,,,,,,,,,,,,,,,,,,,,,,,,,,,,,,,,,,,,,,,,,,,,,,,,,,,,,,,,,,,,,,,,,,,,,,,,,,,,,,,,
,,,,,,,,,,5c6d938c79151c00017c7560,23,Mężczyzna,2022-06-04_08h11.26.298,task,2021.1.4,Win32,143.9470275,628b806c463b948bc644b84f,629af77b871db084a5397aad,,,,,,,,,,,nrnrh,"[""n"",""r"",""n"",""r"",""h""]","[0.9798999999985085,1.4728999999985035,2.024000000000001,2.4798999999985085,2.840799999996989,3.188299999997014]",1,NRNRH,7,0,7,0,1,,,,,,,,,,,,,,,,,,,,,,,,,,,,,,,,,,,,,,,,,,,,,,,,,,,,,,,,,,,,,,,,,,,,,,,,,,,,,,,,,,,
,,,,,,,,,,5c6d938c79151c00017c7560,23,Mężczyzna,2022-06-04_08h11.26.298,task,2021.1.4,Win32,143.9470275,628b806c463b948bc644b84f,629af77b871db084a5397aad,,,,,0,0,0,0,1,X V Q F H G B L J M P D K C T S W R N Z,,,,,,,,,,,,,,,,,,,,,,,,,,,,,,,,,,,,,,,,,,,,,,,,,,,,,,,,,,,,,,,,,,,,,,,,,,,,,,,,,,,,,,,,,,,,,
,,,,,,,,,,5c6d938c79151c00017c7560,23,Mężczyzna,2022-06-04_08h11.26.298,task,2021.1.4,Win32,143.9470275,628b806c463b948bc644b84f,629af77b871db084a5397aad,,,,,1,0,1,0,1,X V Q F H G B L J M P D K C T S W R N Z,,,,,,,,,,,,,,,,,,,,,,,,,,,,,,,,,,,,,,,,,,,,,,,,,,,,,,,,,,,,,,,,,,,,,,,,,,,,,,,,,,,,,,,,,,,,,
,,,,,,,,,,5c6d938c79151c00017c7560,23,Mężczyzna,2022-06-04_08h11.26.298,task,2021.1.4,Win32,143.9470275,628b806c463b948bc644b84f,629af77b871db084a5397aad,,,,,2,0,2,0,1,X V Q F H G B L J M P D K C T S W R N Z,,,,,,,,,,,,,,,,,,,,,,,,,,,,,,,,,,,,,,,,,,,,,,,,,,,,,,,,,,,,,,,,,,,,,,,,,,,,,,,,,,,,,,,,,,,,,
,,,,,,,,,,5c6d938c79151c00017c7560,23,Mężczyzna,2022-06-04_08h11.26.298,task,2021.1.4,Win32,143.9470275,628b806c463b948bc644b84f,629af77b871db084a5397aad,,,,,3,0,3,0,1,X V Q F H G B L J M P D K C T S W R N Z,,,,,,,,,,,,,,,,,,,,,,,,,,,,,,,,,,,,,,,,,,,,,,,,,,,,,,,,,,,,,,,,,,,,,,,,,,,,,,,,,,,,,,,,,,,,,
,,,,,,,,,,5c6d938c79151c00017c7560,23,Mężczyzna,2022-06-04_08h11.26.298,task,2021.1.4,Win32,143.9470275,628b806c463b948bc644b84f,629af77b871db084a5397aad,,,,,4,0,4,0,1,X V Q F H G B L J M P D K C T S W R N Z,,,,,,,,,,,,,,,,,,,,,,,,,,,,,,,,,,,,,,,,,,,,,,,,,,,,,,,,,,,,,,,,,,,,,,,,,,,,,,,,,,,,,,,,,,,,,
,,,,,,,,,,5c6d938c79151c00017c7560,23,Mężczyzna,2022-06-04_08h11.26.298,task,2021.1.4,Win32,143.9470275,628b806c463b948bc644b84f,629af77b871db084a5397aad,,,,,5,0,5,0,1,X V Q F H G B L J M P D K C T S W R N Z,,,,,,,,,,,,,,,,,,,,,,,,,,,,,,,,,,,,,,,,,,,,,,,,,,,,,,,,,,,,,,,,,,,,,,,,,,,,,,,,,,,,,,,,,,,,,
,,,,,,,,,,5c6d938c79151c00017c7560,23,Mężczyzna,2022-06-04_08h11.26.298,task,2021.1.4,Win32,143.9470275,628b806c463b948bc644b84f,629af77b871db084a5397aad,,,,,,,,,,,wqrntj,"[""w"",""q"",""r"",""n"",""t"",""j""]","[1.5678999999985308,1.9728000000044972,2.6653000000044926,3.4223000000044976,3.7852000000029875,4.247800000004474,4.9382000000030075]",1,WQRNTJ,8,0,8,0,1,,,,,,,,,,,,,,,,,,,,,,,,,,,,,,,,,,,,,,,,,,,,,,,,,,,,,,,,,,,,,,,,,,,,,,,,,,,,,,,,,,,
,,,,,,,,,,5c6d938c79151c00017c7560,23,Mężczyzna,2022-06-04_08h11.26.298,task,2021.1.4,Win32,143.9470275,628b806c463b948bc644b84f,629af77b871db084a5397aad,,,,,0,0,0,0,1,X V Q F H G B L J M P D K C T S W R N Z,,,,,,,,,,,,,,,,,,,,,,,,,,,,,,,,,,,,,,,,,,,,,,,,,,,,,,,,,,,,,,,,,,,,,,,,,,,,,,,,,,,,,,,,,,,,,
,,,,,,,,,,5c6d938c79151c00017c7560,23,Mężczyzna,2022-06-04_08h11.26.298,task,2021.1.4,Win32,143.9470275,628b806c463b948bc644b84f,629af77b871db084a5397aad,,,,,1,0,1,0,1,X V Q F H G B L J M P D K C T S W R N Z,,,,,,,,,,,,,,,,,,,,,,,,,,,,,,,,,,,,,,,,,,,,,,,,,,,,,,,,,,,,,,,,,,,,,,,,,,,,,,,,,,,,,,,,,,,,,
,,,,,,,,,,5c6d938c79151c00017c7560,23,Mężczyzna,2022-06-04_08h11.26.298,task,2021.1.4,Win32,143.9470275,628b806c463b948bc644b84f,629af77b871db084a5397aad,,,,,2,0,2,0,1,X V Q F H G B L J M P D K C T S W R N Z,,,,,,,,,,,,,,,,,,,,,,,,,,,,,,,,,,,,,,,,,,,,,,,,,,,,,,,,,,,,,,,,,,,,,,,,,,,,,,,,,,,,,,,,,,,,,
,,,,,,,,,,5c6d938c79151c00017c7560,23,Mężczyzna,2022-06-04_08h11.26.298,task,2021.1.4,Win32,143.9470275,628b806c463b948bc644b84f,629af77b871db084a5397aad,,,,,3,0,3,0,1,X V Q F H G B L J M P D K C T S W R N Z,,,,,,,,,,,,,,,,,,,,,,,,,,,,,,,,,,,,,,,,,,,,,,,,,,,,,,,,,,,,,,,,,,,,,,,,,,,,,,,,,,,,,,,,,,,,,
,,,,,,,,,,5c6d938c79151c00017c7560,23,Mężczyzna,2022-06-04_08h11.26.298,task,2021.1.4,Win32,143.9470275,628b806c463b948bc644b84f,629af77b871db084a5397aad,,,,,4,0,4,0,1,X V Q F H G B L J M P D K C T S W R N Z,,,,,,,,,,,,,,,,,,,,,,,,,,,,,,,,,,,,,,,,,,,,,,,,,,,,,,,,,,,,,,,,,,,,,,,,,,,,,,,,,,,,,,,,,,,,,
,,,,,,,,,,5c6d938c79151c00017c7560,23,Mężczyzna,2022-06-04_08h11.26.298,task,2021.1.4,Win32,143.9470275,628b806c463b948bc644b84f,629af77b871db084a5397aad,,,,,5,0,5,0,1,X V Q F H G B L J M P D K C T S W R N Z,,,,,,,,,,,,,,,,,,,,,,,,,,,,,,,,,,,,,,,,,,,,,,,,,,,,,,,,,,,,,,,,,,,,,,,,,,,,,,,,,,,,,,,,,,,,,
,,,,,,,,,,5c6d938c79151c00017c7560,23,Mężczyzna,2022-06-04_08h11.26.298,task,2021.1.4,Win32,143.9470275,628b806c463b948bc644b84f,629af77b871db084a5397aad,,,,,,,,,,,wtwdvg,"[""w"",""t"",""w"",""d"",""v"",""g""]","[0.7434999999999832,1.3586999999955083,1.8756999999955042,2.4030999999940263,2.928899999998464,3.250499999999988,3.820299999997019]",1,WTWDVG,9,0,9,0,1,,,,,,,,,,,,,,,,,,,,,,,,,,,,,,,,,,,,,,,,,,,,,,,,,,,,,,,,,,,,,,,,,,,,,,,,,,,,,,,,,,,
,,,,,,,,,,5c6d938c79151c00017c7560,23,Mężczyzna,2022-06-04_08h11.26.298,task,2021.1.4,Win32,143.9470275,628b806c463b948bc644b84f,629af77b871db084a5397aad,,,,,0,0,0,0,1,X V Q F H G B L J M P D K C T S W R N Z,,,,,,,,,,,,,,,,,,,,,,,,,,,,,,,,,,,,,,,,,,,,,,,,,,,,,,,,,,,,,,,,,,,,,,,,,,,,,,,,,,,,,,,,,,,,,
,,,,,,,,,,5c6d938c79151c00017c7560,23,Mężczyzna,2022-06-04_08h11.26.298,task,2021.1.4,Win32,143.9470275,628b806c463b948bc644b84f,629af77b871db084a5397aad,,,,,1,0,1,0,1,X V Q F H G B L J M P D K C T S W R N Z,,,,,,,,,,,,,,,,,,,,,,,,,,,,,,,,,,,,,,,,,,,,,,,,,,,,,,,,,,,,,,,,,,,,,,,,,,,,,,,,,,,,,,,,,,,,,
,,,,,,,,,,5c6d938c79151c00017c7560,23,Mężczyzna,2022-06-04_08h11.26.298,task,2021.1.4,Win32,143.9470275,628b806c463b948bc644b84f,629af77b871db084a5397aad,,,,,2,0,2,0,1,X V Q F H G B L J M P D K C T S W R N Z,,,,,,,,,,,,,,,,,,,,,,,,,,,,,,,,,,,,,,,,,,,,,,,,,,,,,,,,,,,,,,,,,,,,,,,,,,,,,,,,,,,,,,,,,,,,,
,,,,,,,,,,5c6d938c79151c00017c7560,23,Mężczyzna,2022-06-04_08h11.26.298,task,2021.1.4,Win32,143.9470275,628b806c463b948bc644b84f,629af77b871db084a5397aad,,,,,3,0,3,0,1,X V Q F H G B L J M P D K C T S W R N Z,,,,,,,,,,,,,,,,,,,,,,,,,,,,,,,,,,,,,,,,,,,,,,,,,,,,,,,,,,,,,,,,,,,,,,,,,,,,,,,,,,,,,,,,,,,,,
,,,,,,,,,,5c6d938c79151c00017c7560,23,Mężczyzna,2022-06-04_08h11.26.298,task,2021.1.4,Win32,143.9470275,628b806c463b948bc644b84f,629af77b871db084a5397aad,,,,,4,0,4,0,1,X V Q F H G B L J M P D K C T S W R N Z,,,,,,,,,,,,,,,,,,,,,,,,,,,,,,,,,,,,,,,,,,,,,,,,,,,,,,,,,,,,,,,,,,,,,,,,,,,,,,,,,,,,,,,,,,,,,
,,,,,,,,,,5c6d938c79151c00017c7560,23,Mężczyzna,2022-06-04_08h11.26.298,task,2021.1.4,Win32,143.9470275,628b806c463b948bc644b84f,629af77b871db084a5397aad,,,,,5,0,5,0,1,X V Q F H G B L J M P D K C T S W R N Z,,,,,,,,,,,,,,,,,,,,,,,,,,,,,,,,,,,,,,,,,,,,,,,,,,,,,,,,,,,,,,,,,,,,,,,,,,,,,,,,,,,,,,,,,,,,,
,,,,,,,,,,5c6d938c79151c00017c7560,23,Mężczyzna,2022-06-04_08h11.26.298,task,2021.1.4,Win32,143.9470275,628b806c463b948bc644b84f,629af77b871db084a5397aad,,,,,6,0,6,0,1,X V Q F H G B L J M P D K C T S W R N Z,,,,,,,,,,,,,,,,,,,,,,,,,,,,,,,,,,,,,,,,,,,,,,,,,,,,,,,,,,,,,,,,,,,,,,,,,,,,,,,,,,,,,,,,,,,,,
,,,,,,,,,,5c6d938c79151c00017c7560,23,Mężczyzna,2022-06-04_08h11.26.298,task,2021.1.4,Win32,143.9470275,628b806c463b948bc644b84f,629af77b871db084a5397aad,,,,,,,,,,,rpzkplw,"[""r"",""p"",""z"",""k"",""p"",""l"",""w""]","[1.0697999999970307,1.715699999995536,2.2502999999970257,2.8560000000000514,3.2017999999970357,3.4260000000000446,3.8753999999985353,4.576999999999998]",1,RPZKPLW,10,0,10,0,1,,,,,,,,,,,,,,,,,,,,,,,,,,,,,,,,,,,,,,,,,,,,,,,,,,,,,,,,,,,,,,,,,,,,,,,,,,,,,,,,,,,
,,,,,,,,,,5c6d938c79151c00017c7560,23,Mężczyzna,2022-06-04_08h11.26.298,task,2021.1.4,Win32,143.9470275,628b806c463b948bc644b84f,629af77b871db084a5397aad,,,,,0,0,0,0,1,X V Q F H G B L J M P D K C T S W R N Z,,,,,,,,,,,,,,,,,,,,,,,,,,,,,,,,,,,,,,,,,,,,,,,,,,,,,,,,,,,,,,,,,,,,,,,,,,,,,,,,,,,,,,,,,,,,,
,,,,,,,,,,5c6d938c79151c00017c7560,23,Mężczyzna,2022-06-04_08h11.26.298,task,2021.1.4,Win32,143.9470275,628b806c463b948bc644b84f,629af77b871db084a5397aad,,,,,1,0,1,0,1,X V Q F H G B L J M P D K C T S W R N Z,,,,,,,,,,,,,,,,,,,,,,,,,,,,,,,,,,,,,,,,,,,,,,,,,,,,,,,,,,,,,,,,,,,,,,,,,,,,,,,,,,,,,,,,,,,,,
,,,,,,,,,,5c6d938c79151c00017c7560,23,Mężczyzna,2022-06-04_08h11.26.298,task,2021.1.4,Win32,143.9470275,628b806c463b948bc644b84f,629af77b871db084a5397aad,,,,,2,0,2,0,1,X V Q F H G B L J M P D K C T S W R N Z,,,,,,,,,,,,,,,,,,,,,,,,,,,,,,,,,,,,,,,,,,,,,,,,,,,,,,,,,,,,,,,,,,,,,,,,,,,,,,,,,,,,,,,,,,,,,
,,,,,,,,,,5c6d938c79151c00017c7560,23,Mężczyzna,2022-06-04_08h11.26.298,task,2021.1.4,Win32,143.9470275,628b806c463b948bc644b84f,629af77b871db084a5397aad,,,,,3,0,3,0,1,X V Q F H G B L J M P D K C T S W R N Z,,,,,,,,,,,,,,,,,,,,,,,,,,,,,,,,,,,,,,,,,,,,,,,,,,,,,,,,,,,,,,,,,,,,,,,,,,,,,,,,,,,,,,,,,,,,,
,,,,,,,,,,5c6d938c79151c00017c7560,23,Mężczyzna,2022-06-04_08h11.26.298,task,2021.1.4,Win32,143.9470275,628b806c463b948bc644b84f,629af77b871db084a5397aad,,,,,4,0,4,0,1,X V Q F H G B L J M P D K C T S W R N Z,,,,,,,,,,,,,,,,,,,,,,,,,,,,,,,,,,,,,,,,,,,,,,,,,,,,,,,,,,,,,,,,,,,,,,,,,,,,,,,,,,,,,,,,,,,,,
,,,,,,,,,,5c6d938c79151c00017c7560,23,Mężczyzna,2022-06-04_08h11.26.298,task,2021.1.4,Win32,143.9470275,628b806c463b948bc644b84f,629af77b871db084a5397aad,,,,,5,0,5,0,1,X V Q F H G B L J M P D K C T S W R N Z,,,,,,,,,,,,,,,,,,,,,,,,,,,,,,,,,,,,,,,,,,,,,,,,,,,,,,,,,,,,,,,,,,,,,,,,,,,,,,,,,,,,,,,,,,,,,
,,,,,,,,,,5c6d938c79151c00017c7560,23,Mężczyzna,2022-06-04_08h11.26.298,task,2021.1.4,Win32,143.9470275,628b806c463b948bc644b84f,629af77b871db084a5397aad,,,,,6,0,6,0,1,X V Q F H G B L J M P D K C T S W R N Z,,,,,,,,,,,,,,,,,,,,,,,,,,,,,,,,,,,,,,,,,,,,,,,,,,,,,,,,,,,,,,,,,,,,,,,,,,,,,,,,,,,,,,,,,,,,,
,,,,,,,,,,5c6d938c79151c00017c7560,23,Mężczyzna,2022-06-04_08h11.26.298,task,2021.1.4,Win32,143.9470275,628b806c463b948bc644b84f,629af77b871db084a5397aad,,,,,,,,,,,rhhjpcx,"[""r"",""h"",""h"",""j"",""p"",""c"",""x""]","[7.202000000000055,7.729899999998565,10.209000000000003,12.952000000000055,14.717200000003004,16.039200000003007,17.202100000001508,18.063300000004517]",0,FHHJPCX,11,0,11,0,1,,,,,,,,,,,,,,,,,,,,,,,,,,,,,,,,,,,,,,,,,,,,,,,,,,,,,,,,,,,,,,,,,,,,,,,,,,,,,,,,,,,
,,,,,,,,,,5c6d938c79151c00017c7560,23,Mężczyzna,2022-06-04_08h11.26.298,task,2021.1.4,Win32,143.9470275,628b806c463b948bc644b84f,629af77b871db084a5397aad,,,,,0,0,0,0,1,X V Q F H G B L J M P D K C T S W R N Z,,,,,,,,,,,,,,,,,,,,,,,,,,,,,,,,,,,,,,,,,,,,,,,,,,,,,,,,,,,,,,,,,,,,,,,,,,,,,,,,,,,,,,,,,,,,,
,,,,,,,,,,5c6d938c79151c00017c7560,23,Mężczyzna,2022-06-04_08h11.26.298,task,2021.1.4,Win32,143.9470275,628b806c463b948bc644b84f,629af77b871db084a5397aad,,,,,1,0,1,0,1,X V Q F H G B L J M P D K C T S W R N Z,,,,,,,,,,,,,,,,,,,,,,,,,,,,,,,,,,,,,,,,,,,,,,,,,,,,,,,,,,,,,,,,,,,,,,,,,,,,,,,,,,,,,,,,,,,,,
,,,,,,,,,,5c6d938c79151c00017c7560,23,Mężczyzna,2022-06-04_08h11.26.298,task,2021.1.4,Win32,143.9470275,628b806c463b948bc644b84f,629af77b871db084a5397aad,,,,,2,0,2,0,1,X V Q F H G B L J M P D K C T S W R N Z,,,,,,,,,,,,,,,,,,,,,,,,,,,,,,,,,,,,,,,,,,,,,,,,,,,,,,,,,,,,,,,,,,,,,,,,,,,,,,,,,,,,,,,,,,,,,
,,,,,,,,,,5c6d938c79151c00017c7560,23,Mężczyzna,2022-06-04_08h11.26.298,task,2021.1.4,Win32,143.9470275,628b806c463b948bc644b84f,629af77b871db084a5397aad,,,,,3,0,3,0,1,X V Q F H G B L J M P D K C T S W R N Z,,,,,,,,,,,,,,,,,,,,,,,,,,,,,,,,,,,,,,,,,,,,,,,,,,,,,,,,,,,,,,,,,,,,,,,,,,,,,,,,,,,,,,,,,,,,,
,,,,,,,,,,5c6d938c79151c00017c7560,23,Mężczyzna,2022-06-04_08h11.26.298,task,2021.1.4,Win32,143.9470275,628b806c463b948bc644b84f,629af77b871db084a5397aad,,,,,4,0,4,0,1,X V Q F H G B L J M P D K C T S W R N Z,,,,,,,,,,,,,,,,,,,,,,,,,,,,,,,,,,,,,,,,,,,,,,,,,,,,,,,,,,,,,,,,,,,,,,,,,,,,,,,,,,,,,,,,,,,,,
,,,,,,,,,,5c6d938c79151c00017c7560,23,Mężczyzna,2022-06-04_08h11.26.298,task,2021.1.4,Win32,143.9470275,628b806c463b948bc644b84f,629af77b871db084a5397aad,,,,,5,0,5,0,1,X V Q F H G B L J M P D K C T S W R N Z,,,,,,,,,,,,,,,,,,,,,,,,,,,,,,,,,,,,,,,,,,,,,,,,,,,,,,,,,,,,,,,,,,,,,,,,,,,,,,,,,,,,,,,,,,,,,
,,,,,,,,,,5c6d938c79151c00017c7560,23,Mężczyzna,2022-06-04_08h11.26.298,task,2021.1.4,Win32,143.9470275,628b806c463b948bc644b84f,629af77b871db084a5397aad,,,,,6,0,6,0,1,X V Q F H G B L J M P D K C T S W R N Z,,,,,,,,,,,,,,,,,,,,,,,,,,,,,,,,,,,,,,,,,,,,,,,,,,,,,,,,,,,,,,,,,,,,,,,,,,,,,,,,,,,,,,,,,,,,,
,,,,,,,,,,5c6d938c79151c00017c7560,23,Mężczyzna,2022-06-04_08h11.26.298,task,2021.1.4,Win32,143.9470275,628b806c463b948bc644b84f,629af77b871db084a5397aad,,,,,,,,,,,bhcbqcv,"[""b"",""h"",""c"",""b"",""q"",""c"",""v""]","[4.4187000000029,4.625700000002894,4.844200000002957,5.308499999999981,7.289800000004448,7.894300000004364,9.778399999998442,10.2716000000014]",1,BHCBQCV,12,0,12,0,1,,,,,,,,,,,,,,,,,,,,,,,,,,,,,,,,,,,,,,,,,,,,,,,,,,,,,,,,,,,,,,,,,,,,,,,,,,,,,,,,,,,
,,,,,,,,,,5c6d938c79151c00017c7560,23,Mężczyzna,2022-06-04_08h11.26.298,task,2021.1.4,Win32,143.9470275,628b806c463b948bc644b84f,629af77b871db084a5397aad,,,,,0,0,0,0,1,X V Q F H G B L J M P D K C T S W R N Z,,,,,,,,,,,,,,,,,,,,,,,,,,,,,,,,,,,,,,,,,,,,,,,,,,,,,,,,,,,,,,,,,,,,,,,,,,,,,,,,,,,,,,,,,,,,,
,,,,,,,,,,5c6d938c79151c00017c7560,23,Mężczyzna,2022-06-04_08h11.26.298,task,2021.1.4,Win32,143.9470275,628b806c463b948bc644b84f,629af77b871db084a5397aad,,,,,1,0,1,0,1,X V Q F H G B L J M P D K C T S W R N Z,,,,,,,,,,,,,,,,,,,,,,,,,,,,,,,,,,,,,,,,,,,,,,,,,,,,,,,,,,,,,,,,,,,,,,,,,,,,,,,,,,,,,,,,,,,,,
,,,,,,,,,,5c6d938c79151c00017c7560,23,Mężczyzna,2022-06-04_08h11.26.298,task,2021.1.4,Win32,143.9470275,628b806c463b948bc644b84f,629af77b871db084a5397aad,,,,,2,0,2,0,1,X V Q F H G B L J M P D K C T S W R N Z,,,,,,,,,,,,,,,,,,,,,,,,,,,,,,,,,,,,,,,,,,,,,,,,,,,,,,,,,,,,,,,,,,,,,,,,,,,,,,,,,,,,,,,,,,,,,
,,,,,,,,,,5c6d938c79151c00017c7560,23,Mężczyzna,2022-06-04_08h11.26.298,task,2021.1.4,Win32,143.9470275,628b806c463b948bc644b84f,629af77b871db084a5397aad,,,,,3,0,3,0,1,X V Q F H G B L J M P D K C T S W R N Z,,,,,,,,,,,,,,,,,,,,,,,,,,,,,,,,,,,,,,,,,,,,,,,,,,,,,,,,,,,,,,,,,,,,,,,,,,,,,,,,,,,,,,,,,,,,,
,,,,,,,,,,5c6d938c79151c00017c7560,23,Mężczyzna,2022-06-04_08h11.26.298,task,2021.1.4,Win32,143.9470275,628b806c463b948bc644b84f,629af77b871db084a5397aad,,,,,4,0,4,0,1,X V Q F H G B L J M P D K C T S W R N Z,,,,,,,,,,,,,,,,,,,,,,,,,,,,,,,,,,,,,,,,,,,,,,,,,,,,,,,,,,,,,,,,,,,,,,,,,,,,,,,,,,,,,,,,,,,,,
,,,,,,,,,,5c6d938c79151c00017c7560,23,Mężczyzna,2022-06-04_08h11.26.298,task,2021.1.4,Win32,143.9470275,628b806c463b948bc644b84f,629af77b871db084a5397aad,,,,,5,0,5,0,1,X V Q F H G B L J M P D K C T S W R N Z,,,,,,,,,,,,,,,,,,,,,,,,,,,,,,,,,,,,,,,,,,,,,,,,,,,,,,,,,,,,,,,,,,,,,,,,,,,,,,,,,,,,,,,,,,,,,
,,,,,,,,,,5c6d938c79151c00017c7560,23,Mężczyzna,2022-06-04_08h11.26.298,task,2021.1.4,Win32,143.9470275,628b806c463b948bc644b84f,629af77b871db084a5397aad,,,,,6,0,6,0,1,X V Q F H G B L J M P D K C T S W R N Z,,,,,,,,,,,,,,,,,,,,,,,,,,,,,,,,,,,,,,,,,,,,,,,,,,,,,,,,,,,,,,,,,,,,,,,,,,,,,,,,,,,,,,,,,,,,,
,,,,,,,,,,5c6d938c79151c00017c7560,23,Mężczyzna,2022-06-04_08h11.26.298,task,2021.1.4,Win32,143.9470275,628b806c463b948bc644b84f,629af77b871db084a5397aad,,,,,7,0,7,0,1,X V Q F H G B L J M P D K C T S W R N Z,,,,,,,,,,,,,,,,,,,,,,,,,,,,,,,,,,,,,,,,,,,,,,,,,,,,,,,,,,,,,,,,,,,,,,,,,,,,,,,,,,,,,,,,,,,,,
,,,,,,,,,,5c6d938c79151c00017c7560,23,Mężczyzna,2022-06-04_08h11.26.298,task,2021.1.4,Win32,143.9470275,628b806c463b948bc644b84f,629af77b871db084a5397aad,,,,,,,,,,,rvtrbml,"[""r"",""v"",""t"",""r"",""b"",""m"",""l""]","[4.451899999998545,4.95520000000306,5.922700000003033,6.222800000004554,7.076999999999998,7.792300000004502,9.076999999999998,10.429200000002993]",0,NLWTRBML,13,0,13,0,1,,,,,,,,,,,,,,,,,,,,,,,,,,,,,,,,,,,,,,,,,,,,,,,,,,,,,,,,,,,,,,,,,,,,,,,,,,,,,,,,,,,
,,,,,,,,,,5c6d938c79151c00017c7560,23,Mężczyzna,2022-06-04_08h11.26.298,task,2021.1.4,Win32,143.9470275,628b806c463b948bc644b84f,629af77b871db084a5397aad,,,,,0,0,0,0,1,X V Q F H G B L J M P D K C T S W R N Z,,,,,,,,,,,,,,,,,,,,,,,,,,,,,,,,,,,,,,,,,,,,,,,,,,,,,,,,,,,,,,,,,,,,,,,,,,,,,,,,,,,,,,,,,,,,,
,,,,,,,,,,5c6d938c79151c00017c7560,23,Mężczyzna,2022-06-04_08h11.26.298,task,2021.1.4,Win32,143.9470275,628b806c463b948bc644b84f,629af77b871db084a5397aad,,,,,1,0,1,0,1,X V Q F H G B L J M P D K C T S W R N Z,,,,,,,,,,,,,,,,,,,,,,,,,,,,,,,,,,,,,,,,,,,,,,,,,,,,,,,,,,,,,,,,,,,,,,,,,,,,,,,,,,,,,,,,,,,,,
,,,,,,,,,,5c6d938c79151c00017c7560,23,Mężczyzna,2022-06-04_08h11.26.298,task,2021.1.4,Win32,143.9470275,628b806c463b948bc644b84f,629af77b871db084a5397aad,,,,,2,0,2,0,1,X V Q F H G B L J M P D K C T S W R N Z,,,,,,,,,,,,,,,,,,,,,,,,,,,,,,,,,,,,,,,,,,,,,,,,,,,,,,,,,,,,,,,,,,,,,,,,,,,,,,,,,,,,,,,,,,,,,
,,,,,,,,,,5c6d938c79151c00017c7560,23,Mężczyzna,2022-06-04_08h11.26.298,task,2021.1.4,Win32,143.9470275,628b806c463b948bc644b84f,629af77b871db084a5397aad,,,,,3,0,3,0,1,X V Q F H G B L J M P D K C T S W R N Z,,,,,,,,,,,,,,,,,,,,,,,,,,,,,,,,,,,,,,,,,,,,,,,,,,,,,,,,,,,,,,,,,,,,,,,,,,,,,,,,,,,,,,,,,,,,,
,,,,,,,,,,5c6d938c79151c00017c7560,23,Mężczyzna,2022-06-04_08h11.26.298,task,2021.1.4,Win32,143.9470275,628b806c463b948bc644b84f,629af77b871db084a5397aad,,,,,4,0,4,0,1,X V Q F H G B L J M P D K C T S W R N Z,,,,,,,,,,,,,,,,,,,,,,,,,,,,,,,,,,,,,,,,,,,,,,,,,,,,,,,,,,,,,,,,,,,,,,,,,,,,,,,,,,,,,,,,,,,,,
,,,,,,,,,,5c6d938c79151c00017c7560,23,Mężczyzna,2022-06-04_08h11.26.298,task,2021.1.4,Win32,143.9470275,628b806c463b948bc644b84f,629af77b871db084a5397aad,,,,,5,0,5,0,1,X V Q F H G B L J M P D K C T S W R N Z,,,,,,,,,,,,,,,,,,,,,,,,,,,,,,,,,,,,,,,,,,,,,,,,,,,,,,,,,,,,,,,,,,,,,,,,,,,,,,,,,,,,,,,,,,,,,
,,,,,,,,,,5c6d938c79151c00017c7560,23,Mężczyzna,2022-06-04_08h11.26.298,task,2021.1.4,Win32,143.9470275,628b806c463b948bc644b84f,629af77b871db084a5397aad,,,,,6,0,6,0,1,X V Q F H G B L J M P D K C T S W R N Z,,,,,,,,,,,,,,,,,,,,,,,,,,,,,,,,,,,,,,,,,,,,,,,,,,,,,,,,,,,,,,,,,,,,,,,,,,,,,,,,,,,,,,,,,,,,,
,,,,,,,,,,5c6d938c79151c00017c7560,23,Mężczyzna,2022-06-04_08h11.26.298,task,2021.1.4,Win32,143.9470275,628b806c463b948bc644b84f,629af77b871db084a5397aad,,,,,7,0,7,0,1,X V Q F H G B L J M P D K C T S W R N Z,,,,,,,,,,,,,,,,,,,,,,,,,,,,,,,,,,,,,,,,,,,,,,,,,,,,,,,,,,,,,,,,,,,,,,,,,,,,,,,,,,,,,,,,,,,,,
,,,,,,,,,,5c6d938c79151c00017c7560,23,Mężczyzna,2022-06-04_08h11.26.298,task,2021.1.4,Win32,143.9470275,628b806c463b948bc644b84f,629af77b871db084a5397aad,,,,,,,,,,,crjbwln,"[""c"",""r"",""j"",""b"",""w"",""l"",""n""]","[3.0142999999970925,3.2761999999955833,3.9100999999940314,4.250699999995504,6.2642999999970925,6.975899999998546,8.111599999994041,8.914499999999975]",0,CRJCBWLN,14,0,14,0,1,,,,,,,,,,,,,,,,,,,,,,,,,,,,,,,,,,,,,,,,,,,,,,,,,,,,,,,,,,,,,,,,,,,,,,,,,,,,,,,,,,,
,,,,,,,,,,5c6d938c79151c00017c7560,23,Mężczyzna,2022-06-04_08h11.26.298,task,2021.1.4,Win32,143.9470275,628b806c463b948bc644b84f,629af77b871db084a5397aad,,,,,0,0,0,0,1,X V Q F H G B L J M P D K C T S W R N Z,,,,,,,,,,,,,,,,,,,,,,,,,,,,,,,,,,,,,,,,,,,,,,,,,,,,,,,,,,,,,,,,,,,,,,,,,,,,,,,,,,,,,,,,,,,,,
,,,,,,,,,,5c6d938c79151c00017c7560,23,Mężczyzna,2022-06-04_08h11.26.298,task,2021.1.4,Win32,143.9470275,628b806c463b948bc644b84f,629af77b871db084a5397aad,,,,,1,0,1,0,1,X V Q F H G B L J M P D K C T S W R N Z,,,,,,,,,,,,,,,,,,,,,,,,,,,,,,,,,,,,,,,,,,,,,,,,,,,,,,,,,,,,,,,,,,,,,,,,,,,,,,,,,,,,,,,,,,,,,
,,,,,,,,,,5c6d938c79151c00017c7560,23,Mężczyzna,2022-06-04_08h11.26.298,task,2021.1.4,Win32,143.9470275,628b806c463b948bc644b84f,629af77b871db084a5397aad,,,,,2,0,2,0,1,X V Q F H G B L J M P D K C T S W R N Z,,,,,,,,,,,,,,,,,,,,,,,,,,,,,,,,,,,,,,,,,,,,,,,,,,,,,,,,,,,,,,,,,,,,,,,,,,,,,,,,,,,,,,,,,,,,,
,,,,,,,,,,5c6d938c79151c00017c7560,23,Mężczyzna,2022-06-04_08h11.26.298,task,2021.1.4,Win32,143.9470275,628b806c463b948bc644b84f,629af77b871db084a5397aad,,,,,3,0,3,0,1,X V Q F H G B L J M P D K C T S W R N Z,,,,,,,,,,,,,,,,,,,,,,,,,,,,,,,,,,,,,,,,,,,,,,,,,,,,,,,,,,,,,,,,,,,,,,,,,,,,,,,,,,,,,,,,,,,,,
,,,,,,,,,,5c6d938c79151c00017c7560,23,Mężczyzna,2022-06-04_08h11.26.298,task,2021.1.4,Win32,143.9470275,628b806c463b948bc644b84f,629af77b871db084a5397aad,,,,,4,0,4,0,1,X V Q F H G B L J M P D K C T S W R N Z,,,,,,,,,,,,,,,,,,,,,,,,,,,,,,,,,,,,,,,,,,,,,,,,,,,,,,,,,,,,,,,,,,,,,,,,,,,,,,,,,,,,,,,,,,,,,
,,,,,,,,,,5c6d938c79151c00017c7560,23,Mężczyzna,2022-06-04_08h11.26.298,task,2021.1.4,Win32,143.9470275,628b806c463b948bc644b84f,629af77b871db084a5397aad,,,,,5,0,5,0,1,X V Q F H G B L J M P D K C T S W R N Z,,,,,,,,,,,,,,,,,,,,,,,,,,,,,,,,,,,,,,,,,,,,,,,,,,,,,,,,,,,,,,,,,,,,,,,,,,,,,,,,,,,,,,,,,,,,,
,,,,,,,,,,5c6d938c79151c00017c7560,23,Mężczyzna,2022-06-04_08h11.26.298,task,2021.1.4,Win32,143.9470275,628b806c463b948bc644b84f,629af77b871db084a5397aad,,,,,6,0,6,0,1,X V Q F H G B L J M P D K C T S W R N Z,,,,,,,,,,,,,,,,,,,,,,,,,,,,,,,,,,,,,,,,,,,,,,,,,,,,,,,,,,,,,,,,,,,,,,,,,,,,,,,,,,,,,,,,,,,,,
,,,,,,,,,,5c6d938c79151c00017c7560,23,Mężczyzna,2022-06-04_08h11.26.298,task,2021.1.4,Win32,143.9470275,628b806c463b948bc644b84f,629af77b871db084a5397aad,,,,,7,0,7,0,1,X V Q F H G B L J M P D K C T S W R N Z,,,,,,,,,,,,,,,,,,,,,,,,,,,,,,,,,,,,,,,,,,,,,,,,,,,,,,,,,,,,,,,,,,,,,,,,,,,,,,,,,,,,,,,,,,,,,
,,,,,,,,,,5c6d938c79151c00017c7560,23,Mężczyzna,2022-06-04_08h11.26.298,task,2021.1.4,Win32,143.9470275,628b806c463b948bc644b84f,629af77b871db084a5397aad,,,,,,,,,,,xxkzhfqq,"[""x"",""x"",""k"",""z"",""h"",""f"",""q"",""q""]","[2.6118999999985135,3.1255999999940514,4.622699999995575,5.9103999999985035,6.813299999997071,8.52159999999401,10.105000000000018,10.681500000000028,13.16050000000007]",0,XXKDHFQQ,15,0,15,0,1,,,,,,,,,,,,,,,,,,,,,,,,,,,,,,,,,,,,,,,,,,,,,,,,,,,,,,,,,,,,,,,,,,,,,,,,,,,,,,,,,,,
,,,,,,,,,,5c6d938c79151c00017c7560,23,Mężczyzna,2022-06-04_08h11.26.298,task,2021.1.4,Win32,143.9470275,628b806c463b948bc644b84f,629af77b871db084a5397aad,,,,,,,,,,,,,,,,,,,,,space,10.3383,2,"[""2""]",1,[9.710500000000025],[9.710500000000025],0,0,0,2,1,Practice,3,(4x4) - 14,2,,,,,,,,,,,,,,,,,,,,,,,,,,,,,,,,,,,,,,,,,,,,,,,,,,,,,,,,,,,,,,,,,,,
,,,,,,,,,,5c6d938c79151c00017c7560,23,Mężczyzna,2022-06-04_08h11.26.298,task,2021.1.4,Win32,143.9470275,628b806c463b948bc644b84f,629af77b871db084a5397aad,,,,,,,,,,,,,,,,,,,,,,,0,"[""0""]",1,[2.5308999999984962],"[9.710500000000025,2.5308999999984962]",0,1,1,0,1,Practice,1,(3x3) -  9,0,,,,,,,,,,,,,,,,,,,,,,,,,,,,,,,,,,,,,,,,,,,,,,,,,,,,,,,,,,,,,,,,,,,
,,,,,,,,,,5c6d938c79151c00017c7560,23,Mężczyzna,2022-06-04_08h11.26.298,task,2021.1.4,Win32,143.9470275,628b806c463b948bc644b84f,629af77b871db084a5397aad,,,,,,,,,,,,,,,,,,,,,,,8,"[""8""]",1,[3.000600000001441],"[9.710500000000025,2.5308999999984962,3.000600000001441]",0,2,2,8,1,Practice,9,(3x3) - 1,8,,,,,,,,,,,,,,,,,,,,,,,,,,,,,,,,,,,,,,,,,,,,,,,,,,,,,,,,,,,,,,,,,,,
,,,,,,,,,,5c6d938c79151c00017c7560,23,Mężczyzna,2022-06-04_08h11.26.298,task,2021.1.4,Win32,143.9470275,628b806c463b948bc644b84f,629af77b871db084a5397aad,,,,,,,,,,,,,,,,,,,,,,,1,"[""1""]",1,[2.1278000000045267],"[9.710500000000025,2.5308999999984962,3.000600000001441,2.1278000000045267]",0,3,3,1,1,Practice,2,(4x4) - 15,1,,,,,,,,,,,,,,,,,,,,,,,,,,,,,,,,,,,,,,,,,,,,,,,,,,,,,,,,,,,,,,,,,,,
,,,,,,,,,,5c6d938c79151c00017c7560,23,Mężczyzna,2022-06-04_08h11.26.298,task,2021.1.4,Win32,143.9470275,628b806c463b948bc644b84f,629af77b871db084a5397aad,,,,,,,,,,,,,,,,,,,,,,,7,"[""7""]",1,[3.679399999998509],"[9.710500000000025,2.5308999999984962,3.000600000001441,2.1278000000045267,3.679399999998509]",0,4,4,7,1,Practice,8,(5x5) - 18,7,,,,,,,,,,,,,,,,,,,,,,,,,,,,,,,,,,,,,,,,,,,,,,,,,,,,,,,,,,,,,,,,,,,
,,,,,,,,,,5c6d938c79151c00017c7560,23,Mężczyzna,2022-06-04_08h11.26.298,task,2021.1.4,Win32,143.9470275,628b806c463b948bc644b84f,629af77b871db084a5397aad,,,,,,,,,,,,,,,,,,,,,,,3,"[""3""]",1,[3.680499999999938],"[9.710500000000025,2.5308999999984962,3.000600000001441,2.1278000000045267,3.679399999998509,3.680499999999938]",0,5,5,3,1,Practice,4,(8/4) + 1,3,,,,,,,,,,,,,,,,,,,,,,,,,,,,,,,,,,,,,,,,,,,,,,,,,,,,,,,,,,,,,,,,,,,
,,,,,,,,,,5c6d938c79151c00017c7560,23,Mężczyzna,2022-06-04_08h11.26.298,task,2021.1.4,Win32,143.9470275,628b806c463b948bc644b84f,629af77b871db084a5397aad,,,,,,,,,,,,,,,,,,,,,,,4,"[""4""]",1,[4.040600000001518],"[9.710500000000025,2.5308999999984962,3.000600000001441,2.1278000000045267,3.679399999998509,3.680499999999938,4.040600000001518]",0,6,6,4,1,Practice,5,(2x6) - 8,4,,,,,,,,,,,,,,,,,,,,,,,,,,,,,,,,,,,,,,,,,,,,,,,,,,,,,,,,,,,,,,,,,,,
,,,,,,,,,,5c6d938c79151c00017c7560,23,Mężczyzna,2022-06-04_08h11.26.298,task,2021.1.4,Win32,143.9470275,628b806c463b948bc644b84f,629af77b871db084a5397aad,,,,,,,,,,,,,,,,,,,,,,,6,"[""6""]",1,[2.5417999999970107],"[9.710500000000025,2.5308999999984962,3.000600000001441,2.1278000000045267,3.679399999998509,3.680499999999938,4.040600000001518,2.5417999999970107]",0,7,7,6,1,Practice,7,(25/5) + 1,6,,,,,,,,,,,,,,,,,,,,,,,,,,,,,,,,,,,,,,,,,,,,,,,,,,,,,,,,,,,,,,,,,,,
,,,,,,,,,,5c6d938c79151c00017c7560,23,Mężczyzna,2022-06-04_08h11.26.298,task,2021.1.4,Win32,143.9470275,628b806c463b948bc644b84f,629af77b871db084a5397aad,,,,,,,,,,,,,,,,,,,,,,,5,"[""5""]",1,[2.2767999999970243],"[9.710500000000025,2.5308999999984962,3.000600000001441,2.1278000000045267,3.679399999998509,3.680499999999938,4.040600000001518,2.5417999999970107,2.2767999999970243]",0,8,8,5,1,Practice,6,(4/2) + 3,5,,,,,,,,,,,,,,,,,,,,,,,,,,,,,,,,,,,,,,,,,,,,,,,,,,,,,,,,,,,,,,,,,,,
,,,,,,,,,,5c6d938c79151c00017c7560,23,Mężczyzna,2022-06-04_08h11.26.298,task,2021.1.4,Win32,143.9470275,628b806c463b948bc644b84f,629af77b871db084a5397aad,,,,,,,,,,,,,,,,,,,,,,,9,"[""9""]",1,[2.374499999999898],"[9.710500000000025,2.5308999999984962,3.000600000001441,2.1278000000045267,3.679399999998509,3.680499999999938,4.040600000001518,2.5417999999970107,2.2767999999970243,2.374499999999898]",0,9,9,9,1,Practice,10,(20/2) - 1,9,,,,,,,,,,,,,,,,,,,,,,,,,,,,,,,,,,,,,,,,,,,,,,,,,,,,,,,,,,,,,,,,,,,
,,,,,,,,,,5c6d938c79151c00017c7560,23,Mężczyzna,2022-06-04_08h11.26.298,task,2021.1.4,Win32,143.9470275,628b806c463b948bc644b84f,629af77b871db084a5397aad,,,,,,,,,,,,,,,,,,,,,,,,,,,,,,,,,,,,,1,35.9634,2.39756,59.95784789,1.999297341,7.555747141,space,1.7226,0,0,0,0,1,,,,,,,,,,,,,,,,,,,,,,,,,,,,,,,,,,,,,,,,,,,,,,,,,,,,,,
,,,,,,,,,,5c6d938c79151c00017c7560,23,Mężczyzna,2022-06-04_08h11.26.298,task,2021.1.4,Win32,143.9470275,628b806c463b948bc644b84f,629af77b871db084a5397aad,,,,,,,,,,,,,,,,,,,,,,,1,,,,,,,,,,Practice,2,(4x4) - 15,1,,,,,,,,,,,,,,space,16.1576,"[""1""]",1,[2.4587999999970407],1,0,0,0,1,1,,,,,,,,,,,,,,,,,,,,,,,,,,,,,,,,,,,,,,,,,,,
,,,,,,,,,,5c6d938c79151c00017c7560,23,Mężczyzna,2022-06-04_08h11.26.298,task,2021.1.4,Win32,143.9470275,628b806c463b948bc644b84f,629af77b871db084a5397aad,,,,,,,,,,X V Q F H G B L J M P D K C T S W R N Z,,,,,,,,,,,,,,,,,,,,,,,,,,,,,,,,,,,,,,,,,,,,,,,,,,,0,0,0,0,1,,,,,,,,,,,,,,,,,,,,,,,,,,,,,,,,,,,,,,
,,,,,,,,,,5c6d938c79151c00017c7560,23,Mężczyzna,2022-06-04_08h11.26.298,task,2021.1.4,Win32,143.9470275,628b806c463b948bc644b84f,629af77b871db084a5397aad,,,,,,,,,,,,,,,,,,,,,,,9,,,,,,,,,,Practice,10,(20/2) - 1,9,,,,,,,,,,,,,,,,"[""9""]",1,[2.419399999998518],1,0,0,0,9,1,,,,,,,,,,,,,,,,,,,,,,,,,,,,,,,,,,,,,,,,,,,
,,,,,,,,,,5c6d938c79151c00017c7560,23,Mężczyzna,2022-06-04_08h11.26.298,task,2021.1.4,Win32,143.9470275,628b806c463b948bc644b84f,629af77b871db084a5397aad,,,,,,,,,,X V Q F H G B L J M P D K C T S W R N Z,,,,,,,,,,,,,,,,,,,,,,,,,,,,,,,,,,,,,,,,,,,,,,,,,,,1,0,1,0,1,,,,,,,,,,,,,,,,,,,,,,,,,,,,,,,,,,,,,,
,,,,,,,,,,5c6d938c79151c00017c7560,23,Mężczyzna,2022-06-04_08h11.26.298,task,2021.1.4,Win32,143.9470275,628b806c463b948bc644b84f,629af77b871db084a5397aad,,,,,,,,,,,,,,,,,,,,,,,,,,,,,,,,,,,,,,,,,,,,,,,,,,,,,,,,,,,,,,,,,,zf,"[""z"",""f""]",0,"[1.975500000000011,2.6127999999969234,3.753199999995445]",1,0,0,0,0,1,,,,,,,,,,,,,,,,,,,,,,,,,,,,
,,,,,,,,,,5c6d938c79151c00017c7560,23,Mężczyzna,2022-06-04_08h11.26.298,task,2021.1.4,Win32,143.9470275,628b806c463b948bc644b84f,629af77b871db084a5397aad,,,,,,,,,,,,,,,,,,,,,,,8,,,,,,,,,,Practice,9,(3x3) - 1,8,,,,,,,,,,,,,,,,"[""8""]",1,[3.6725000000000136],1,0,0,0,8,1,,,,,,,,,,,,,,,,,,,,,,,,,,,,,,,,,,,,,,,,,,,
,,,,,,,,,,5c6d938c79151c00017c7560,23,Mężczyzna,2022-06-04_08h11.26.298,task,2021.1.4,Win32,143.9470275,628b806c463b948bc644b84f,629af77b871db084a5397aad,,,,,,,,,,X V Q F H G B L J M P D K C T S W R N Z,,,,,,,,,,,,,,,,,,,,,,,,,,,,,,,,,,,,,,,,,,,,,,,,,,,0,0,0,0,1,,,,,,,,,,,,,,,,,,,,,,,,,,,,,,,,,,,,,,
,,,,,,,,,,5c6d938c79151c00017c7560,23,Mężczyzna,2022-06-04_08h11.26.298,task,2021.1.4,Win32,143.9470275,628b806c463b948bc644b84f,629af77b871db084a5397aad,,,,,,,,,,,,,,,,,,,,,,,7,,,,,,,,,,Practice,8,(5x5) - 18,7,,,,,,,,,,,,,,,,"[""7""]",1,[1.9868000000044503],1,0,0,0,7,1,,,,,,,,,,,,,,,,,,,,,,,,,,,,,,,,,,,,,,,,,,,
,,,,,,,,,,5c6d938c79151c00017c7560,23,Mężczyzna,2022-06-04_08h11.26.298,task,2021.1.4,Win32,143.9470275,628b806c463b948bc644b84f,629af77b871db084a5397aad,,,,,,,,,,X V Q F H G B L J M P D K C T S W R N Z,,,,,,,,,,,,,,,,,,,,,,,,,,,,,,,,,,,,,,,,,,,,,,,,,,,1,0,1,0,1,,,,,,,,,,,,,,,,,,,,,,,,,,,,,,,,,,,,,,
,,,,,,,,,,5c6d938c79151c00017c7560,23,Mężczyzna,2022-06-04_08h11.26.298,task,2021.1.4,Win32,143.9470275,628b806c463b948bc644b84f,629af77b871db084a5397aad,,,,,,,,,,,,,,,,,,,,,,,,,,,,,,,,,,,,,,,,,,,,,,,,,,,,,,,,,,,,,,,,,,tz,"[""t"",""z""]",0,"[1.4512999999971044,2.070100000001503,2.62410000000159]",1,1,0,1,0,1,,,,,,,,,,,,,,,,,,,,,,,,,,,,
,,,,,,,,,,5c6d938c79151c00017c7560,23,Mężczyzna,2022-06-04_08h11.26.298,task,2021.1.4,Win32,143.9470275,628b806c463b948bc644b84f,629af77b871db084a5397aad,,,,,,,,,,,,,,,,,,,,,,,0,,,,,,,,,,Practice,1,(3x3) -  9,0,,,,,,,,,,,,,,,,"[""0""]",1,[2.08299999999997],1,0,0,0,0,1,,,,,,,,,,,,,,,,,,,,,,,,,,,,,,,,,,,,,,,,,,,
,,,,,,,,,,5c6d938c79151c00017c7560,23,Mężczyzna,2022-06-04_08h11.26.298,task,2021.1.4,Win32,143.9470275,628b806c463b948bc644b84f,629af77b871db084a5397aad,,,,,,,,,,X V Q F H G B L J M P D K C T S W R N Z,,,,,,,,,,,,,,,,,,,,,,,,,,,,,,,,,,,,,,,,,,,,,,,,,,,0,0,0,0,1,,,,,,,,,,,,,,,,,,,,,,,,,,,,,,,,,,,,,,
,,,,,,,,,,5c6d938c79151c00017c7560,23,Mężczyzna,2022-06-04_08h11.26.298,task,2021.1.4,Win32,143.9470275,628b806c463b948bc644b84f,629af77b871db084a5397aad,,,,,,,,,,,,,,,,,,,,,,,9,,,,,,,,,,Practice,10,(20/2) - 1,9,,,,,,,,,,,,,,,,"[""9""]",1,[1.9918000000045595],1,0,0,0,9,1,,,,,,,,,,,,,,,,,,,,,,,,,,,,,,,,,,,,,,,,,,,
,,,,,,,,,,5c6d938c79151c00017c7560,23,Mężczyzna,2022-06-04_08h11.26.298,task,2021.1.4,Win32,143.9470275,628b806c463b948bc644b84f,629af77b871db084a5397aad,,,,,,,,,,X V Q F H G B L J M P D K C T S W R N Z,,,,,,,,,,,,,,,,,,,,,,,,,,,,,,,,,,,,,,,,,,,,,,,,,,,1,0,1,0,1,,,,,,,,,,,,,,,,,,,,,,,,,,,,,,,,,,,,,,
,,,,,,,,,,5c6d938c79151c00017c7560,23,Mężczyzna,2022-06-04_08h11.26.298,task,2021.1.4,Win32,143.9470275,628b806c463b948bc644b84f,629af77b871db084a5397aad,,,,,,,,,,,,,,,,,,,,,,,,,,,,,,,,,,,,,,,,,,,,,,,,,,,,,,,,,,,,,,,,,,kn,"[""k"",""n""]",0,"[2.6257000000030075,2.810000000000059,3.070100000001503]",1,2,0,2,0,1,,,,,,,,,,,,,,,,,,,,,,,,,,,,
,,,,,,,,,,5c6d938c79151c00017c7560,23,Mężczyzna,2022-06-04_08h11.26.298,task,2021.1.4,Win32,143.9470275,628b806c463b948bc644b84f,629af77b871db084a5397aad,,,,,,,,,,,,,,,,,,,,,,,,,,,,,,,,,Task,7,(3x7) - 12,9,,,,,,,,,,,,,,,,,,,0,,,,,,,,,,,,,,,,,,,,,space,27.7161,,0,0,0,0,6,1,,,,,,,,,,,,,,,,,,,
,,,,,,,,,,5c6d938c79151c00017c7560,23,Mężczyzna,2022-06-04_08h11.26.298,task,2021.1.4,Win32,143.9470275,628b806c463b948bc644b84f,629af77b871db084a5397aad,,,,,,,,,,,,,,,,,,,,,,,1,,,,,,,,,,Task,37,(3/3) + 5,6,,,,,,,,,,,,,,,,,,,0,,,,,,,,,,,,,,,,,,,,,,,"[""1""]",0,0,1,1,36,1,[3.859899999998561],,,,,,,,,,,,,,,,,,
,,,,,,,,,,5c6d938c79151c00017c7560,23,Mężczyzna,2022-06-04_08h11.26.298,task,2021.1.4,Win32,143.9470275,628b806c463b948bc644b84f,629af77b871db084a5397aad,,,,,,,,,,,,,,,,,,,,,,,3,,,,,,,,,,Task,20,(18/9) + 1,3,,,,,,,,,,,,,,,,,,,1,,,,,,,,,,,,,,,,,,,,,,,"[""3""]",1,0,2,2,19,1,[3.361600000001431],,,,,,,,,,,,,,,,,,
,,,,,,,,,,5c6d938c79151c00017c7560,23,Mężczyzna,2022-06-04_08h11.26.298,task,2021.1.4,Win32,143.9470275,628b806c463b948bc644b84f,629af77b871db084a5397aad,,,,,,,,,,X V Q F H G B L J M P D K C T S W R N Z,,,,,,,,,,,,,,,,,,,,,,,,,,,,,,,,,,,,,,,,,,,,,,,,,,,,,,,,,,,,,,,,,,,,,,,,,,,,0,0,0,0,1,,,,,,,,,,,,,
,,,,,,,,,,5c6d938c79151c00017c7560,23,Mężczyzna,2022-06-04_08h11.26.298,task,2021.1.4,Win32,143.9470275,628b806c463b948bc644b84f,629af77b871db084a5397aad,,,,,,,,,,,,,,,,,,,,,,,1,,,,,,,,,,Task,16,(3x8) - 15,9,,,,,,,,,,,,,,,,,,,0,,,,,,,,,,,,,,,,,,,,,,,"[""1""]",0,0,0,0,15,1,[2.232199999995487],,,,,,,,,,,,,,,,,,
,,,,,,,,,,5c6d938c79151c00017c7560,23,Mężczyzna,2022-06-04_08h11.26.298,task,2021.1.4,Win32,143.9470275,628b806c463b948bc644b84f,629af77b871db084a5397aad,,,,,,,,,,,,,,,,,,,,,,,3,,,,,,,,,,Task,35,(1x2) + 1,3,,,,,,,,,,,,,,,,,,,1,,,,,,,,,,,,,,,,,,,,,,,"[""3""]",1,0,1,1,34,1,[2.730600000001459],,,,,,,,,,,,,,,,,,
,,,,,,,,,,5c6d938c79151c00017c7560,23,Mężczyzna,2022-06-04_08h11.26.298,task,2021.1.4,Win32,143.9470275,628b806c463b948bc644b84f,629af77b871db084a5397aad,,,,,,,,,,X V Q F H G B L J M P D K C T S W R N Z,,,,,,,,,,,,,,,,,,,,,,,,,,,,,,,,,,,,,,,,,,,,,,,,,,,,,,,,,,,,,,,,,,,,,,,,,,,,1,0,1,0,1,,,,,,,,,,,,,
,,,,,,,,,,5c6d938c79151c00017c7560,23,Mężczyzna,2022-06-04_08h11.26.298,task,2021.1.4,Win32,143.9470275,628b806c463b948bc644b84f,629af77b871db084a5397aad,,,,,,,,,,,,,,,,,,,,,,,,,,,,,,,,,,,,,,,,,,,,,,,,,,,,,,,,,,,,,,,,,,,,,,,,,,,,,,,,,,,,,,,,,,,zs,"[""z"",""s""]",0,"[1.6047000000030494,1.807299999997099,2.306100000001493]",1,ZS,0,0,0,0,1,,
,,,,,,,,,,5c6d938c79151c00017c7560,23,Mężczyzna,2022-06-04_08h11.26.298,task,2021.1.4,Win32,143.9470275,628b806c463b948bc644b84f,629af77b871db084a5397aad,,,,,,,,,,,,,,,,,,,,,,,5,,,,,,,,,,Task,29,(3x8) - 19 ,5,,,,,,,,,,,,,,,,,,,1,,,,,,,,,,,,,,,,,,,,,,,"[""5""]",1,0,0,0,28,1,[5.947000000000003],,,,,,,,,,,,,,,,,,
,,,,,,,,,,5c6d938c79151c00017c7560,23,Mężczyzna,2022-06-04_08h11.26.298,task,2021.1.4,Win32,143.9470275,628b806c463b948bc644b84f,629af77b871db084a5397aad,,,,,,,,,,X V Q F H G B L J M P D K C T S W R N Z,,,,,,,,,,,,,,,,,,,,,,,,,,,,,,,,,,,,,,,,,,,,,,,,,,,,,,,,,,,,,,,,,,,,,,,,,,,,0,0,0,0,1,,,,,,,,,,,,,
,,,,,,,,,,5c6d938c79151c00017c7560,23,Mężczyzna,2022-06-04_08h11.26.298,task,2021.1.4,Win32,143.9470275,628b806c463b948bc644b84f,629af77b871db084a5397aad,,,,,,,,,,,,,,,,,,,,,,,4,,,,,,,,,,Task,28,(2x5) - 6,4,,,,,,,,,,,,,,,,,,,1,,,,,,,,,,,,,,,,,,,,,,,"[""4""]",1,0,0,0,27,1,[2.5077000000030694],,,,,,,,,,,,,,,,,,
,,,,,,,,,,5c6d938c79151c00017c7560,23,Mężczyzna,2022-06-04_08h11.26.298,task,2021.1.4,Win32,143.9470275,628b806c463b948bc644b84f,629af77b871db084a5397aad,,,,,,,,,,X V Q F H G B L J M P D K C T S W R N Z,,,,,,,,,,,,,,,,,,,,,,,,,,,,,,,,,,,,,,,,,,,,,,,,,,,,,,,,,,,,,,,,,,,,,,,,,,,,1,0,1,0,1,,,,,,,,,,,,,
,,,,,,,,,,5c6d938c79151c00017c7560,23,Mężczyzna,2022-06-04_08h11.26.298,task,2021.1.4,Win32,143.9470275,628b806c463b948bc644b84f,629af77b871db084a5397aad,,,,,,,,,,,,,,,,,,,,,,,9,,,,,,,,,,Task,24,(2x2) + 5,9,,,,,,,,,,,,,,,,,,,1,,,,,,,,,,,,,,,,,,,,,,,"[""9""]",1,0,0,0,23,1,[1.943399999998519],,,,,,,,,,,,,,,,,,
,,,,,,,,,,5c6d938c79151c00017c7560,23,Mężczyzna,2022-06-04_08h11.26.298,task,2021.1.4,Win32,143.9470275,628b806c463b948bc644b84f,629af77b871db084a5397aad,,,,,,,,,,X V Q F H G B L J M P D K C T S W R N Z,,,,,,,,,,,,,,,,,,,,,,,,,,,,,,,,,,,,,,,,,,,,,,,,,,,,,,,,,,,,,,,,,,,,,,,,,,,,2,0,2,0,1,,,,,,,,,,,,,
,,,,,,,,,,5c6d938c79151c00017c7560,23,Mężczyzna,2022-06-04_08h11.26.298,task,2021.1.4,Win32,143.9470275,628b806c463b948bc644b84f,629af77b871db084a5397aad,,,,,,,,,,,,,,,,,,,,,,,,,,,,,,,,,,,,,,,,,,,,,,,,,,,,,,,,,,,,,,,,,,,,,,,,,,,,,,,,,,,,,,,,,,,lzk,"[""l"",""z"",""k""]",0,"[1.934199999995485,2.2433999999984735,2.9378999999985353,3.191199999995547]",1,LZK,1,0,1,0,1,,
,,,,,,,,,,5c6d938c79151c00017c7560,23,Mężczyzna,2022-06-04_08h11.26.298,task,2021.1.4,Win32,143.9470275,628b806c463b948bc644b84f,629af77b871db084a5397aad,,,,,,,,,,,,,,,,,,,,,,,6,,,,,,,,,,Task,37,(3/3) + 5,6,,,,,,,,,,,,,,,,,,,1,,,,,,,,,,,,,,,,,,,,,,,"[""6""]",1,0,0,0,36,1,[3.715800000004492],,,,,,,,,,,,,,,,,,
,,,,,,,,,,5c6d938c79151c00017c7560,23,Mężczyzna,2022-06-04_08h11.26.298,task,2021.1.4,Win32,143.9470275,628b806c463b948bc644b84f,629af77b871db084a5397aad,,,,,,,,,,X V Q F H G B L J M P D K C T S W R N Z,,,,,,,,,,,,,,,,,,,,,,,,,,,,,,,,,,,,,,,,,,,,,,,,,,,,,,,,,,,,,,,,,,,,,,,,,,,,0,0,0,0,1,,,,,,,,,,,,,
,,,,,,,,,,5c6d938c79151c00017c7560,23,Mężczyzna,2022-06-04_08h11.26.298,task,2021.1.4,Win32,143.9470275,628b806c463b948bc644b84f,629af77b871db084a5397aad,,,,,,,,,,,,,,,,,,,,,,,6,,,,,,,,,,Task,37,(3/3) + 5,6,,,,,,,,,,,,,,,,,,,1,,,,,,,,,,,,,,,,,,,,,,,"[""6""]",1,0,0,0,36,1,[1.507100000001401],,,,,,,,,,,,,,,,,,
,,,,,,,,,,5c6d938c79151c00017c7560,23,Mężczyzna,2022-06-04_08h11.26.298,task,2021.1.4,Win32,143.9470275,628b806c463b948bc644b84f,629af77b871db084a5397aad,,,,,,,,,,X V Q F H G B L J M P D K C T S W R N Z,,,,,,,,,,,,,,,,,,,,,,,,,,,,,,,,,,,,,,,,,,,,,,,,,,,,,,,,,,,,,,,,,,,,,,,,,,,,1,0,1,0,1,,,,,,,,,,,,,
,,,,,,,,,,5c6d938c79151c00017c7560,23,Mężczyzna,2022-06-04_08h11.26.298,task,2021.1.4,Win32,143.9470275,628b806c463b948bc644b84f,629af77b871db084a5397aad,,,,,,,,,,,,,,,,,,,,,,,4,,,,,,,,,,Task,28,(2x5) - 6,4,,,,,,,,,,,,,,,,,,,1,,,,,,,,,,,,,,,,,,,,,,,"[""4""]",1,0,0,0,27,1,[2.894999999999982],,,,,,,,,,,,,,,,,,
,,,,,,,,,,5c6d938c79151c00017c7560,23,Mężczyzna,2022-06-04_08h11.26.298,task,2021.1.4,Win32,143.9470275,628b806c463b948bc644b84f,629af77b871db084a5397aad,,,,,,,,,,X V Q F H G B L J M P D K C T S W R N Z,,,,,,,,,,,,,,,,,,,,,,,,,,,,,,,,,,,,,,,,,,,,,,,,,,,,,,,,,,,,,,,,,,,,,,,,,,,,2,0,2,0,1,,,,,,,,,,,,,
,,,,,,,,,,5c6d938c79151c00017c7560,23,Mężczyzna,2022-06-04_08h11.26.298,task,2021.1.4,Win32,143.9470275,628b806c463b948bc644b84f,629af77b871db084a5397aad,,,,,,,,,,,,,,,,,,,,,,,2,,,,,,,,,,Task,10,(2x5) - 8,2,,,,,,,,,,,,,,,,,,,1,,,,,,,,,,,,,,,,,,,,,,,"[""2""]",1,0,0,0,9,1,[1.8402000000029375],,,,,,,,,,,,,,,,,,
,,,,,,,,,,5c6d938c79151c00017c7560,23,Mężczyzna,2022-06-04_08h11.26.298,task,2021.1.4,Win32,143.9470275,628b806c463b948bc644b84f,629af77b871db084a5397aad,,,,,,,,,,X V Q F H G B L J M P D K C T S W R N Z,,,,,,,,,,,,,,,,,,,,,,,,,,,,,,,,,,,,,,,,,,,,,,,,,,,,,,,,,,,,,,,,,,,,,,,,,,,,3,0,3,0,1,,,,,,,,,,,,,
,,,,,,,,,,5c6d938c79151c00017c7560,23,Mężczyzna,2022-06-04_08h11.26.298,task,2021.1.4,Win32,143.9470275,628b806c463b948bc644b84f,629af77b871db084a5397aad,,,,,,,,,,,,,,,,,,,,,,,,,,,,,,,,,,,,,,,,,,,,,,,,,,,,,,,,,,,,,,,,,,,,,,,,,,,,,,,,,,,,,,,,,,,gmpn,"[""g"",""m"",""p"",""n""]",0,"[2.3838999999985617,2.812000000000012,3.164500000000089,3.476199999995515,4.063899999998512]",1,GMPN,2,0,2,0,1,,
,,,,,,,,,,5c6d938c79151c00017c7560,23,Mężczyzna,2022-06-04_08h11.26.298,task,2021.1.4,Win32,143.9470275,628b806c463b948bc644b84f,629af77b871db084a5397aad,,,,,,,,,,,,,,,,,,,,,,,5,,,,,,,,,,Task,22,(3x1) + 2,5,,,,,,,,,,,,,,,,,,,1,,,,,,,,,,,,,,,,,,,,,,,"[""5""]",1,0,0,0,21,1,[2.1398000000044703],,,,,,,,,,,,,,,,,,
,,,,,,,,,,5c6d938c79151c00017c7560,23,Mężczyzna,2022-06-04_08h11.26.298,task,2021.1.4,Win32,143.9470275,628b806c463b948bc644b84f,629af77b871db084a5397aad,,,,,,,,,,X V Q F H G B L J M P D K C T S W R N Z,,,,,,,,,,,,,,,,,,,,,,,,,,,,,,,,,,,,,,,,,,,,,,,,,,,,,,,,,,,,,,,,,,,,,,,,,,,,0,0,0,0,1,,,,,,,,,,,,,
,,,,,,,,,,5c6d938c79151c00017c7560,23,Mężczyzna,2022-06-04_08h11.26.298,task,2021.1.4,Win32,143.9470275,628b806c463b948bc644b84f,629af77b871db084a5397aad,,,,,,,,,,,,,,,,,,,,,,,6,,,,,,,,,,Task,37,(3/3) + 5,6,,,,,,,,,,,,,,,,,,,1,,,,,,,,,,,,,,,,,,,,,,,"[""6""]",1,0,0,0,36,1,[2.4237000000028956],,,,,,,,,,,,,,,,,,
,,,,,,,,,,5c6d938c79151c00017c7560,23,Mężczyzna,2022-06-04_08h11.26.298,task,2021.1.4,Win32,143.9470275,628b806c463b948bc644b84f,629af77b871db084a5397aad,,,,,,,,,,X V Q F H G B L J M P D K C T S W R N Z,,,,,,,,,,,,,,,,,,,,,,,,,,,,,,,,,,,,,,,,,,,,,,,,,,,,,,,,,,,,,,,,,,,,,,,,,,,,1,0,1,0,1,,,,,,,,,,,,,
,,,,,,,,,,5c6d938c79151c00017c7560,23,Mężczyzna,2022-06-04_08h11.26.298,task,2021.1.4,Win32,143.9470275,628b806c463b948bc644b84f,629af77b871db084a5397aad,,,,,,,,,,,,,,,,,,,,,,,0,,,,,,,,,,Task,8,(1x5) - 5,0,,,,,,,,,,,,,,,,,,,1,,,,,,,,,,,,,,,,,,,,,,,"[""0""]",1,0,0,0,7,1,[2.4248999999985017],,,,,,,,,,,,,,,,,,
,,,,,,,,,,5c6d938c79151c00017c7560,23,Mężczyzna,2022-06-04_08h11.26.298,task,2021.1.4,Win32,143.9470275,628b806c463b948bc644b84f,629af77b871db084a5397aad,,,,,,,,,,X V Q F H G B L J M P D K C T S W R N Z,,,,,,,,,,,,,,,,,,,,,,,,,,,,,,,,,,,,,,,,,,,,,,,,,,,,,,,,,,,,,,,,,,,,,,,,,,,,2,0,2,0,1,,,,,,,,,,,,,
,,,,,,,,,,5c6d938c79151c00017c7560,23,Mężczyzna,2022-06-04_08h11.26.298,task,2021.1.4,Win32,143.9470275,628b806c463b948bc644b84f,629af77b871db084a5397aad,,,,,,,,,,,,,,,,,,,,,,,0,,,,,,,,,,Task,17,(2x3) - 6,0,,,,,,,,,,,,,,,,,,,1,,,,,,,,,,,,,,,,,,,,,,,"[""0""]",1,0,0,0,16,1,[3.676700000003052],,,,,,,,,,,,,,,,,,
,,,,,,,,,,5c6d938c79151c00017c7560,23,Mężczyzna,2022-06-04_08h11.26.298,task,2021.1.4,Win32,143.9470275,628b806c463b948bc644b84f,629af77b871db084a5397aad,,,,,,,,,,X V Q F H G B L J M P D K C T S W R N Z,,,,,,,,,,,,,,,,,,,,,,,,,,,,,,,,,,,,,,,,,,,,,,,,,,,,,,,,,,,,,,,,,,,,,,,,,,,,3,0,3,0,1,,,,,,,,,,,,,
,,,,,,,,,,5c6d938c79151c00017c7560,23,Mężczyzna,2022-06-04_08h11.26.298,task,2021.1.4,Win32,143.9470275,628b806c463b948bc644b84f,629af77b871db084a5397aad,,,,,,,,,,,,,,,,,,,,,,,9,,,,,,,,,,Task,40,(7x2) - 5,9,,,,,,,,,,,,,,,,,,,1,,,,,,,,,,,,,,,,,,,,,,,"[""9""]",1,0,0,0,39,1,[3.4198999999985062],,,,,,,,,,,,,,,,,,
,,,,,,,,,,5c6d938c79151c00017c7560,23,Mężczyzna,2022-06-04_08h11.26.298,task,2021.1.4,Win32,143.9470275,628b806c463b948bc644b84f,629af77b871db084a5397aad,,,,,,,,,,X V Q F H G B L J M P D K C T S W R N Z,,,,,,,,,,,,,,,,,,,,,,,,,,,,,,,,,,,,,,,,,,,,,,,,,,,,,,,,,,,,,,,,,,,,,,,,,,,,4,0,4,0,1,,,,,,,,,,,,,
,,,,,,,,,,5c6d938c79151c00017c7560,23,Mężczyzna,2022-06-04_08h11.26.298,task,2021.1.4,Win32,143.9470275,628b806c463b948bc644b84f,629af77b871db084a5397aad,,,,,,,,,,,,,,,,,,,,,,,,,,,,,,,,,,,,,,,,,,,,,,,,,,,,,,,,,,,,,,,,,,,,,,,,,,,,,,,,,,,,,,,,,,,xwknk,"[""x"",""w"",""k"",""n"",""k""]",0,"[1.377999999999929,1.6195000000000164,2.182899999998426,2.3999999999999773,2.6003999999984444,2.780499999999961]",1,XWKNK,3,0,3,0,1,,
,,,,,,,,,,5c6d938c79151c00017c7560,23,Mężczyzna,2022-06-04_08h11.26.298,task,2021.1.4,Win32,143.9470275,628b806c463b948bc644b84f,629af77b871db084a5397aad,,,,,,,,,,,,,,,,,,,,,,,2,,,,,,,,,,Task,35,(1x2) + 1,3,,,,,,,,,,,,,,,,,,,0,,,,,,,,,,,,,,,,,,,,,,,"[""2""]",0,0,0,0,34,1,[2.888499999999908],,,,,,,,,,,,,,,,,,
,,,,,,,,,,5c6d938c79151c00017c7560,23,Mężczyzna,2022-06-04_08h11.26.298,task,2021.1.4,Win32,143.9470275,628b806c463b948bc644b84f,629af77b871db084a5397aad,,,,,,,,,,,,,,,,,,,,,,,7,,,,,,,,,,Task,14,(2x2) + 3,7,,,,,,,,,,,,,,,,,,,1,,,,,,,,,,,,,,,,,,,,,,,"[""7""]",1,0,1,1,13,1,[2.0126999999955615],,,,,,,,,,,,,,,,,,
,,,,,,,,,,5c6d938c79151c00017c7560,23,Mężczyzna,2022-06-04_08h11.26.298,task,2021.1.4,Win32,143.9470275,628b806c463b948bc644b84f,629af77b871db084a5397aad,,,,,,,,,,X V Q F H G B L J M P D K C T S W R N Z,,,,,,,,,,,,,,,,,,,,,,,,,,,,,,,,,,,,,,,,,,,,,,,,,,,,,,,,,,,,,,,,,,,,,,,,,,,,0,0,0,0,1,,,,,,,,,,,,,
,,,,,,,,,,5c6d938c79151c00017c7560,23,Mężczyzna,2022-06-04_08h11.26.298,task,2021.1.4,Win32,143.9470275,628b806c463b948bc644b84f,629af77b871db084a5397aad,,,,,,,,,,,,,,,,,,,,,,,2,,,,,,,,,,Task,10,(2x5) - 8,2,,,,,,,,,,,,,,,,,,,1,,,,,,,,,,,,,,,,,,,,,,,"[""2""]",1,0,0,0,9,1,[2.827600000001553],,,,,,,,,,,,,,,,,,
,,,,,,,,,,5c6d938c79151c00017c7560,23,Mężczyzna,2022-06-04_08h11.26.298,task,2021.1.4,Win32,143.9470275,628b806c463b948bc644b84f,629af77b871db084a5397aad,,,,,,,,,,X V Q F H G B L J M P D K C T S W R N Z,,,,,,,,,,,,,,,,,,,,,,,,,,,,,,,,,,,,,,,,,,,,,,,,,,,,,,,,,,,,,,,,,,,,,,,,,,,,1,0,1,0,1,,,,,,,,,,,,,
,,,,,,,,,,5c6d938c79151c00017c7560,23,Mężczyzna,2022-06-04_08h11.26.298,task,2021.1.4,Win32,143.9470275,628b806c463b948bc644b84f,629af77b871db084a5397aad,,,,,,,,,,,,,,,,,,,,,,,2,,,,,,,,,,Task,19,(6/2) - 1,2,,,,,,,,,,,,,,,,,,,1,,,,,,,,,,,,,,,,,,,,,,,"[""2""]",1,0,0,0,18,1,[3.298799999996959],,,,,,,,,,,,,,,,,,
,,,,,,,,,,5c6d938c79151c00017c7560,23,Mężczyzna,2022-06-04_08h11.26.298,task,2021.1.4,Win32,143.9470275,628b806c463b948bc644b84f,629af77b871db084a5397aad,,,,,,,,,,X V Q F H G B L J M P D K C T S W R N Z,,,,,,,,,,,,,,,,,,,,,,,,,,,,,,,,,,,,,,,,,,,,,,,,,,,,,,,,,,,,,,,,,,,,,,,,,,,,2,0,2,0,1,,,,,,,,,,,,,
,,,,,,,,,,5c6d938c79151c00017c7560,23,Mężczyzna,2022-06-04_08h11.26.298,task,2021.1.4,Win32,143.9470275,628b806c463b948bc644b84f,629af77b871db084a5397aad,,,,,,,,,,,,,,,,,,,,,,,6,,,,,,,,,,Task,5,(2x3) + 0,6,,,,,,,,,,,,,,,,,,,1,,,,,,,,,,,,,,,,,,,,,,,"[""6""]",1,0,0,0,4,1,[2.012599999993995],,,,,,,,,,,,,,,,,,
,,,,,,,,,,5c6d938c79151c00017c7560,23,Mężczyzna,2022-06-04_08h11.26.298,task,2021.1.4,Win32,143.9470275,628b806c463b948bc644b84f,629af77b871db084a5397aad,,,,,,,,,,X V Q F H G B L J M P D K C T S W R N Z,,,,,,,,,,,,,,,,,,,,,,,,,,,,,,,,,,,,,,,,,,,,,,,,,,,,,,,,,,,,,,,,,,,,,,,,,,,,3,0,3,0,1,,,,,,,,,,,,,
,,,,,,,,,,5c6d938c79151c00017c7560,23,Mężczyzna,2022-06-04_08h11.26.298,task,2021.1.4,Win32,143.9470275,628b806c463b948bc644b84f,629af77b871db084a5397aad,,,,,,,,,,,,,,,,,,,,,,,5,,,,,,,,,,Task,36,(8/4) + 3,5,,,,,,,,,,,,,,,,,,,1,,,,,,,,,,,,,,,,,,,,,,,"[""5""]",1,0,0,0,35,1,[1.6843000000044412],,,,,,,,,,,,,,,,,,
,,,,,,,,,,5c6d938c79151c00017c7560,23,Mężczyzna,2022-06-04_08h11.26.298,task,2021.1.4,Win32,143.9470275,628b806c463b948bc644b84f,629af77b871db084a5397aad,,,,,,,,,,X V Q F H G B L J M P D K C T S W R N Z,,,,,,,,,,,,,,,,,,,,,,,,,,,,,,,,,,,,,,,,,,,,,,,,,,,,,,,,,,,,,,,,,,,,,,,,,,,,4,0,4,0,1,,,,,,,,,,,,,
,,,,,,,,,,5c6d938c79151c00017c7560,23,Mężczyzna,2022-06-04_08h11.26.298,task,2021.1.4,Win32,143.9470275,628b806c463b948bc644b84f,629af77b871db084a5397aad,,,,,,,,,,,,,,,,,,,,,,,6,,,,,,,,,,Task,37,(3/3) + 5,6,,,,,,,,,,,,,,,,,,,1,,,,,,,,,,,,,,,,,,,,,,,"[""6""]",1,0,0,0,36,1,[2.3338999999984935],,,,,,,,,,,,,,,,,,
,,,,,,,,,,5c6d938c79151c00017c7560,23,Mężczyzna,2022-06-04_08h11.26.298,task,2021.1.4,Win32,143.9470275,628b806c463b948bc644b84f,629af77b871db084a5397aad,,,,,,,,,,X V Q F H G B L J M P D K C T S W R N Z,,,,,,,,,,,,,,,,,,,,,,,,,,,,,,,,,,,,,,,,,,,,,,,,,,,,,,,,,,,,,,,,,,,,,,,,,,,,5,0,5,0,1,,,,,,,,,,,,,
,,,,,,,,,,5c6d938c79151c00017c7560,23,Mężczyzna,2022-06-04_08h11.26.298,task,2021.1.4,Win32,143.9470275,628b806c463b948bc644b84f,629af77b871db084a5397aad,,,,,,,,,,,,,,,,,,,,,,,,,,,,,,,,,,,,,,,,,,,,,,,,,,,,,,,,,,,,,,,,,,,,,,,,,,,,,,,,,,,,,,,,,,,ncnmzc,"[""n"",""c"",""n"",""m"",""z"",""c""]",0,"[0.92349999999999,1.1351000000014437,1.4757000000029166,1.861600000001431,2.029399999998418,2.2753000000044494,2.6901000000013937]",0,NCNMZN,4,0,4,0,1,,
,,,,,,,,,,5c6d938c79151c00017c7560,23,Mężczyzna,2022-06-04_08h11.26.298,task,2021.1.4,Win32,143.9470275,628b806c463b948bc644b84f,629af77b871db084a5397aad,,,,,,,,,,,,,,,,,,,,,,,4,,,,,,,,,,Task,4,(1x5) - 1,4,,,,,,,,,,,,,,,,,,,1,,,,,,,,,,,,,,,,,,,,,,,"[""4""]",1,0,0,0,3,1,[1.5148000000044703],,,,,,,,,,,,,,,,,,
,,,,,,,,,,5c6d938c79151c00017c7560,23,Mężczyzna,2022-06-04_08h11.26.298,task,2021.1.4,Win32,143.9470275,628b806c463b948bc644b84f,629af77b871db084a5397aad,,,,,,,,,,X V Q F H G B L J M P D K C T S W R N Z,,,,,,,,,,,,,,,,,,,,,,,,,,,,,,,,,,,,,,,,,,,,,,,,,,,,,,,,,,,,,,,,,,,,,,,,,,,,0,0,0,0,1,,,,,,,,,,,,,
,,,,,,,,,,5c6d938c79151c00017c7560,23,Mężczyzna,2022-06-04_08h11.26.298,task,2021.1.4,Win32,143.9470275,628b806c463b948bc644b84f,629af77b871db084a5397aad,,,,,,,,,,,,,,,,,,,,,,,7,,,,,,,,,,Task,6,(12/2) + 1,7,,,,,,,,,,,,,,,,,,,1,,,,,,,,,,,,,,,,,,,,,,,"[""7""]",1,0,0,0,5,1,[2.480899999998428],,,,,,,,,,,,,,,,,,
,,,,,,,,,,5c6d938c79151c00017c7560,23,Mężczyzna,2022-06-04_08h11.26.298,task,2021.1.4,Win32,143.9470275,628b806c463b948bc644b84f,629af77b871db084a5397aad,,,,,,,,,,X V Q F H G B L J M P D K C T S W R N Z,,,,,,,,,,,,,,,,,,,,,,,,,,,,,,,,,,,,,,,,,,,,,,,,,,,,,,,,,,,,,,,,,,,,,,,,,,,,1,0,1,0,1,,,,,,,,,,,,,
,,,,,,,,,,5c6d938c79151c00017c7560,23,Mężczyzna,2022-06-04_08h11.26.298,task,2021.1.4,Win32,143.9470275,628b806c463b948bc644b84f,629af77b871db084a5397aad,,,,,,,,,,,,,,,,,,,,,,,7,,,,,,,,,,Task,14,(2x2) + 3,7,,,,,,,,,,,,,,,,,,,1,,,,,,,,,,,,,,,,,,,,,,,"[""7""]",1,0,0,0,13,1,[1.6558999999984962],,,,,,,,,,,,,,,,,,
,,,,,,,,,,5c6d938c79151c00017c7560,23,Mężczyzna,2022-06-04_08h11.26.298,task,2021.1.4,Win32,143.9470275,628b806c463b948bc644b84f,629af77b871db084a5397aad,,,,,,,,,,X V Q F H G B L J M P D K C T S W R N Z,,,,,,,,,,,,,,,,,,,,,,,,,,,,,,,,,,,,,,,,,,,,,,,,,,,,,,,,,,,,,,,,,,,,,,,,,,,,2,0,2,0,1,,,,,,,,,,,,,
,,,,,,,,,,5c6d938c79151c00017c7560,23,Mężczyzna,2022-06-04_08h11.26.298,task,2021.1.4,Win32,143.9470275,628b806c463b948bc644b84f,629af77b871db084a5397aad,,,,,,,,,,,,,,,,,,,,,,,1,,,,,,,,,,Task,34,(9/3) - 2,1,,,,,,,,,,,,,,,,,,,1,,,,,,,,,,,,,,,,,,,,,,,"[""1""]",1,0,0,0,33,1,[6.1802999999970325],,,,,,,,,,,,,,,,,,
,,,,,,,,,,5c6d938c79151c00017c7560,23,Mężczyzna,2022-06-04_08h11.26.298,task,2021.1.4,Win32,143.9470275,628b806c463b948bc644b84f,629af77b871db084a5397aad,,,,,,,,,,X V Q F H G B L J M P D K C T S W R N Z,,,,,,,,,,,,,,,,,,,,,,,,,,,,,,,,,,,,,,,,,,,,,,,,,,,,,,,,,,,,,,,,,,,,,,,,,,,,3,0,3,0,1,,,,,,,,,,,,,
,,,,,,,,,,5c6d938c79151c00017c7560,23,Mężczyzna,2022-06-04_08h11.26.298,task,2021.1.4,Win32,143.9470275,628b806c463b948bc644b84f,629af77b871db084a5397aad,,,,,,,,,,,,,,,,,,,,,,,7,,,,,,,,,,Task,6,(12/2) + 1,7,,,,,,,,,,,,,,,,,,,1,,,,,,,,,,,,,,,,,,,,,,,"[""7""]",1,0,0,0,5,1,[1.7074999999999818],,,,,,,,,,,,,,,,,,
,,,,,,,,,,5c6d938c79151c00017c7560,23,Mężczyzna,2022-06-04_08h11.26.298,task,2021.1.4,Win32,143.9470275,628b806c463b948bc644b84f,629af77b871db084a5397aad,,,,,,,,,,X V Q F H G B L J M P D K C T S W R N Z,,,,,,,,,,,,,,,,,,,,,,,,,,,,,,,,,,,,,,,,,,,,,,,,,,,,,,,,,,,,,,,,,,,,,,,,,,,,4,0,4,0,1,,,,,,,,,,,,,
,,,,,,,,,,5c6d938c79151c00017c7560,23,Mężczyzna,2022-06-04_08h11.26.298,task,2021.1.4,Win32,143.9470275,628b806c463b948bc644b84f,629af77b871db084a5397aad,,,,,,,,,,,,,,,,,,,,,,,2,,,,,,,,,,Task,10,(2x5) - 8,2,,,,,,,,,,,,,,,,,,,1,,,,,,,,,,,,,,,,,,,,,,,"[""2""]",1,0,0,0,9,1,[3.75920000000292],,,,,,,,,,,,,,,,,,
,,,,,,,,,,5c6d938c79151c00017c7560,23,Mężczyzna,2022-06-04_08h11.26.298,task,2021.1.4,Win32,143.9470275,628b806c463b948bc644b84f,629af77b871db084a5397aad,,,,,,,,,,X V Q F H G B L J M P D K C T S W R N Z,,,,,,,,,,,,,,,,,,,,,,,,,,,,,,,,,,,,,,,,,,,,,,,,,,,,,,,,,,,,,,,,,,,,,,,,,,,,5,0,5,0,1,,,,,,,,,,,,,
,,,,,,,,,,5c6d938c79151c00017c7560,23,Mężczyzna,2022-06-04_08h11.26.298,task,2021.1.4,Win32,143.9470275,628b806c463b948bc644b84f,629af77b871db084a5397aad,,,,,,,,,,,,,,,,,,,,,,,,,,,,,,,,,,,,,,,,,,,,,,,,,,,,,,,,,,,,,,,,,,,,,,,,,,,,,,,,,,,,,,,,,,,pwgpwt,"[""p"",""w"",""g"",""p"",""w"",""t""]",0,"[1.4682000000029802,1.5944000000058622,2.0049999999999955,2.2713000000044303,2.6324999999999363,2.8291000000014037,3.6064999999999827]",1,PWGPWT,5,0,5,0,1,,
,,,,,,,,,,5c6d938c79151c00017c7560,23,Mężczyzna,2022-06-04_08h11.26.298,task,2021.1.4,Win32,143.9470275,628b806c463b948bc644b84f,629af77b871db084a5397aad,,,,,,,,,,,,,,,,,,,,,,,6,,,,,,,,,,Task,32,(8/2) + 4,8,,,,,,,,,,,,,,,,,,,0,,,,,,,,,,,,,,,,,,,,,,,"[""6""]",0,0,0,0,31,1,[1.8042999999969425],,,,,,,,,,,,,,,,,,
,,,,,,,,,,5c6d938c79151c00017c7560,23,Mężczyzna,2022-06-04_08h11.26.298,task,2021.1.4,Win32,143.9470275,628b806c463b948bc644b84f,629af77b871db084a5397aad,,,,,,,,,,,,,,,,,,,,,,,8,,,,,,,,,,Task,7,(3x7) - 12,9,,,,,,,,,,,,,,,,,,,0,,,,,,,,,,,,,,,,,,,,,,,"[""8""]",0,0,1,1,6,1,[4.7286000000015065],,,,,,,,,,,,,,,,,,
