key_resp_15.keys,key_resp_15.rt,key_resp_13.keys,key_resp_13.corr,key_resp_13.rt,ranodm_loop.thisRepN,ranodm_loop.thisTrialN,ranodm_loop.thisN,ranodm_loop.thisIndex,ranodm_loop.ran,participant,Wiek*,Płeć,date,expName,psychopyVersion,OS,frameRate,study_id,session,key_resp_16.keys,key_resp_16.rt,key_resp_4.keys,key_resp_4.rt,next_letter.thisRepN,next_letter.thisTrialN,next_letter.thisN,next_letter.thisIndex,next_letter.ran,letter,simple_recall,key_resp_5.keys,key_resp_5.rt,simple_recall_corr,simple_recall_corrkeys,next_level.thisRepN,next_level.thisTrialN,next_level.thisN,next_level.thisIndex,next_level.ran,key_resp_2.keys,key_resp_2.rt,digit_answer,key_resp.keys,key_resp.corr,key_resp.rt,RT_list,next_equation.thisRepN,next_equation.thisTrialN,next_equation.thisN,next_equation.thisIndex,next_equation.ran,Task,Trial,Problem,Operation_answer,processing_score,sumRT,meanRT,sumdiff,sd,RT,key_resp_3.keys,key_resp_3.rt,repeat_practice.thisRepN,repeat_practice.thisTrialN,repeat_practice.thisN,repeat_practice.thisIndex,repeat_practice.ran,key_resp_6.keys,key_resp_6.rt,key_resp_11.keys,key_resp_11.corr,key_resp_11.rt,operation_correct,repeat_if_wrong_prac.thisRepN,repeat_if_wrong_prac.thisTrialN,repeat_if_wrong_prac.thisN,repeat_if_wrong_prac.thisIndex,repeat_if_wrong_prac.ran,span_size_prac.thisRepN,span_size_prac.thisTrialN,span_size_prac.thisN,span_size_prac.thisIndex,span_size_prac.ran,complex_recall_practice,key_resp_9.keys,key_resp_9.corr,key_resp_9.rt,complex_prac_corr,span_recall_prac.thisRepN,span_recall_prac.thisTrialN,span_recall_prac.thisN,span_recall_prac.thisIndex,span_recall_prac.ran,key_resp_10.keys,key_resp_10.rt,key_resp_7.keys,key_resp_7.corr,key_resp_7.rt,repeat_if_wrong.thisRepN,repeat_if_wrong.thisTrialN,repeat_if_wrong.thisN,repeat_if_wrong.thisIndex,repeat_if_wrong.ran,span_size.thisRepN,span_size.thisTrialN,span_size.thisN,span_size.thisIndex,span_size.ran,complex_recall,key_resp_8.keys,key_resp_8.corr,key_resp_8.rt,complex_recall_corr,complex_recall_corrkeys,span_recall.thisRepN,span_recall.thisTrialN,span_recall.thisN,span_recall.thisIndex,span_recall.ran,key_resp_12.keys,key_resp_12.rt
space,58.6114,"[""comma""]",0,[1.5628999998569384],0,0,0,0,1,5c8bb229b0b5510016a92910,33,Mężczyzna,2022-06-04_08h42.57.296,task,2021.1.4,Win32,60.10337781,628b806c463b948bc644b84f,629afed1692063e219f8d5b4,,,,,,,,,,,,,,,,,,,,,,,,,,,,,,,,,,,,,,,,,,,,,,,,,,,,,,,,,,,,,,,,,,,,,,,,,,,,,,,,,,,,,,,,,,,,,,,,,,,,,,,
,,"[""comma""]",0,[1.0824999999999818],1,0,1,0,1,5c8bb229b0b5510016a92910,33,Mężczyzna,2022-06-04_08h42.57.296,task,2021.1.4,Win32,60.10337781,628b806c463b948bc644b84f,629afed1692063e219f8d5b4,,,,,,,,,,,,,,,,,,,,,,,,,,,,,,,,,,,,,,,,,,,,,,,,,,,,,,,,,,,,,,,,,,,,,,,,,,,,,,,,,,,,,,,,,,,,,,,,,,,,,,,
,,"[""period""]",0,[0.47970000004767144],2,0,2,0,1,5c8bb229b0b5510016a92910,33,Mężczyzna,2022-06-04_08h42.57.296,task,2021.1.4,Win32,60.10337781,628b806c463b948bc644b84f,629afed1692063e219f8d5b4,,,,,,,,,,,,,,,,,,,,,,,,,,,,,,,,,,,,,,,,,,,,,,,,,,,,,,,,,,,,,,,,,,,,,,,,,,,,,,,,,,,,,,,,,,,,,,,,,,,,,,,
,,"[""comma""]",0,[0.9347000000476839],3,0,3,0,1,5c8bb229b0b5510016a92910,33,Mężczyzna,2022-06-04_08h42.57.296,task,2021.1.4,Win32,60.10337781,628b806c463b948bc644b84f,629afed1692063e219f8d5b4,,,,,,,,,,,,,,,,,,,,,,,,,,,,,,,,,,,,,,,,,,,,,,,,,,,,,,,,,,,,,,,,,,,,,,,,,,,,,,,,,,,,,,,,,,,,,,,,,,,,,,,
,,"[""period""]",0,[0.5052999999523138],4,0,4,0,1,5c8bb229b0b5510016a92910,33,Mężczyzna,2022-06-04_08h42.57.296,task,2021.1.4,Win32,60.10337781,628b806c463b948bc644b84f,629afed1692063e219f8d5b4,,,,,,,,,,,,,,,,,,,,,,,,,,,,,,,,,,,,,,,,,,,,,,,,,,,,,,,,,,,,,,,,,,,,,,,,,,,,,,,,,,,,,,,,,,,,,,,,,,,,,,,
,,"[""period""]",0,[0.601600000143037],5,0,5,0,1,5c8bb229b0b5510016a92910,33,Mężczyzna,2022-06-04_08h42.57.296,task,2021.1.4,Win32,60.10337781,628b806c463b948bc644b84f,629afed1692063e219f8d5b4,,,,,,,,,,,,,,,,,,,,,,,,,,,,,,,,,,,,,,,,,,,,,,,,,,,,,,,,,,,,,,,,,,,,,,,,,,,,,,,,,,,,,,,,,,,,,,,,,,,,,,,
,,"[""period""]",0,[0.921999999999997],6,0,6,0,1,5c8bb229b0b5510016a92910,33,Mężczyzna,2022-06-04_08h42.57.296,task,2021.1.4,Win32,60.10337781,628b806c463b948bc644b84f,629afed1692063e219f8d5b4,,,,,,,,,,,,,,,,,,,,,,,,,,,,,,,,,,,,,,,,,,,,,,,,,,,,,,,,,,,,,,,,,,,,,,,,,,,,,,,,,,,,,,,,,,,,,,,,,,,,,,,
,,"[""comma""]",0,[0.3169000000953588],7,0,7,0,1,5c8bb229b0b5510016a92910,33,Mężczyzna,2022-06-04_08h42.57.296,task,2021.1.4,Win32,60.10337781,628b806c463b948bc644b84f,629afed1692063e219f8d5b4,,,,,,,,,,,,,,,,,,,,,,,,,,,,,,,,,,,,,,,,,,,,,,,,,,,,,,,,,,,,,,,,,,,,,,,,,,,,,,,,,,,,,,,,,,,,,,,,,,,,,,,
,,"[""comma""]",0,[0.5160999999046396],8,0,8,0,1,5c8bb229b0b5510016a92910,33,Mężczyzna,2022-06-04_08h42.57.296,task,2021.1.4,Win32,60.10337781,628b806c463b948bc644b84f,629afed1692063e219f8d5b4,,,,,,,,,,,,,,,,,,,,,,,,,,,,,,,,,,,,,,,,,,,,,,,,,,,,,,,,,,,,,,,,,,,,,,,,,,,,,,,,,,,,,,,,,,,,,,,,,,,,,,,
,,"[""period"",""comma""]",0,"[0.3657999999523156,1.865000000000009]",9,0,9,0,1,5c8bb229b0b5510016a92910,33,Mężczyzna,2022-06-04_08h42.57.296,task,2021.1.4,Win32,60.10337781,628b806c463b948bc644b84f,629afed1692063e219f8d5b4,,,,,,,,,,,,,,,,,,,,,,,,,,,,,,,,,,,,,,,,,,,,,,,,,,,,,,,,,,,,,,,,,,,,,,,,,,,,,,,,,,,,,,,,,,,,,,,,,,,,,,,
,,"[""comma""]",0,[0.6379000000953567],10,0,10,0,1,5c8bb229b0b5510016a92910,33,Mężczyzna,2022-06-04_08h42.57.296,task,2021.1.4,Win32,60.10337781,628b806c463b948bc644b84f,629afed1692063e219f8d5b4,,,,,,,,,,,,,,,,,,,,,,,,,,,,,,,,,,,,,,,,,,,,,,,,,,,,,,,,,,,,,,,,,,,,,,,,,,,,,,,,,,,,,,,,,,,,,,,,,,,,,,,
,,"[""period""]",0,[0.7587999999523163],11,0,11,0,1,5c8bb229b0b5510016a92910,33,Mężczyzna,2022-06-04_08h42.57.296,task,2021.1.4,Win32,60.10337781,628b806c463b948bc644b84f,629afed1692063e219f8d5b4,,,,,,,,,,,,,,,,,,,,,,,,,,,,,,,,,,,,,,,,,,,,,,,,,,,,,,,,,,,,,,,,,,,,,,,,,,,,,,,,,,,,,,,,,,,,,,,,,,,,,,,
,,"[""comma""]",0,[0.4688999998569443],12,0,12,0,1,5c8bb229b0b5510016a92910,33,Mężczyzna,2022-06-04_08h42.57.296,task,2021.1.4,Win32,60.10337781,628b806c463b948bc644b84f,629afed1692063e219f8d5b4,,,,,,,,,,,,,,,,,,,,,,,,,,,,,,,,,,,,,,,,,,,,,,,,,,,,,,,,,,,,,,,,,,,,,,,,,,,,,,,,,,,,,,,,,,,,,,,,,,,,,,,
,,"[""period""]",0,[0.38279999995233993],13,0,13,0,1,5c8bb229b0b5510016a92910,33,Mężczyzna,2022-06-04_08h42.57.296,task,2021.1.4,Win32,60.10337781,628b806c463b948bc644b84f,629afed1692063e219f8d5b4,,,,,,,,,,,,,,,,,,,,,,,,,,,,,,,,,,,,,,,,,,,,,,,,,,,,,,,,,,,,,,,,,,,,,,,,,,,,,,,,,,,,,,,,,,,,,,,,,,,,,,,
,,"[""period""]",0,[0.2827999999523172],14,0,14,0,1,5c8bb229b0b5510016a92910,33,Mężczyzna,2022-06-04_08h42.57.296,task,2021.1.4,Win32,60.10337781,628b806c463b948bc644b84f,629afed1692063e219f8d5b4,,,,,,,,,,,,,,,,,,,,,,,,,,,,,,,,,,,,,,,,,,,,,,,,,,,,,,,,,,,,,,,,,,,,,,,,,,,,,,,,,,,,,,,,,,,,,,,,,,,,,,,
,,"[""period""]",0,[0.28249999999999886],15,0,15,0,1,5c8bb229b0b5510016a92910,33,Mężczyzna,2022-06-04_08h42.57.296,task,2021.1.4,Win32,60.10337781,628b806c463b948bc644b84f,629afed1692063e219f8d5b4,,,,,,,,,,,,,,,,,,,,,,,,,,,,,,,,,,,,,,,,,,,,,,,,,,,,,,,,,,,,,,,,,,,,,,,,,,,,,,,,,,,,,,,,,,,,,,,,,,,,,,,
,,"[""comma""]",0,[0.34910000014306775],16,0,16,0,1,5c8bb229b0b5510016a92910,33,Mężczyzna,2022-06-04_08h42.57.296,task,2021.1.4,Win32,60.10337781,628b806c463b948bc644b84f,629afed1692063e219f8d5b4,,,,,,,,,,,,,,,,,,,,,,,,,,,,,,,,,,,,,,,,,,,,,,,,,,,,,,,,,,,,,,,,,,,,,,,,,,,,,,,,,,,,,,,,,,,,,,,,,,,,,,,
,,"[""comma""]",0,[0.31570000004768417],17,0,17,0,1,5c8bb229b0b5510016a92910,33,Mężczyzna,2022-06-04_08h42.57.296,task,2021.1.4,Win32,60.10337781,628b806c463b948bc644b84f,629afed1692063e219f8d5b4,,,,,,,,,,,,,,,,,,,,,,,,,,,,,,,,,,,,,,,,,,,,,,,,,,,,,,,,,,,,,,,,,,,,,,,,,,,,,,,,,,,,,,,,,,,,,,,,,,,,,,,
,,"[""period""]",0,[0.532299999952329],18,0,18,0,1,5c8bb229b0b5510016a92910,33,Mężczyzna,2022-06-04_08h42.57.296,task,2021.1.4,Win32,60.10337781,628b806c463b948bc644b84f,629afed1692063e219f8d5b4,,,,,,,,,,,,,,,,,,,,,,,,,,,,,,,,,,,,,,,,,,,,,,,,,,,,,,,,,,,,,,,,,,,,,,,,,,,,,,,,,,,,,,,,,,,,,,,,,,,,,,,
,,"[""period""]",0,[0.40420000004769463],19,0,19,0,1,5c8bb229b0b5510016a92910,33,Mężczyzna,2022-06-04_08h42.57.296,task,2021.1.4,Win32,60.10337781,628b806c463b948bc644b84f,629afed1692063e219f8d5b4,,,,,,,,,,,,,,,,,,,,,,,,,,,,,,,,,,,,,,,,,,,,,,,,,,,,,,,,,,,,,,,,,,,,,,,,,,,,,,,,,,,,,,,,,,,,,,,,,,,,,,,
,,"[""period""]",0,[0.3161000001430523],20,0,20,0,1,5c8bb229b0b5510016a92910,33,Mężczyzna,2022-06-04_08h42.57.296,task,2021.1.4,Win32,60.10337781,628b806c463b948bc644b84f,629afed1692063e219f8d5b4,,,,,,,,,,,,,,,,,,,,,,,,,,,,,,,,,,,,,,,,,,,,,,,,,,,,,,,,,,,,,,,,,,,,,,,,,,,,,,,,,,,,,,,,,,,,,,,,,,,,,,,
,,"[""period""]",0,[0.35040000009536243],21,0,21,0,1,5c8bb229b0b5510016a92910,33,Mężczyzna,2022-06-04_08h42.57.296,task,2021.1.4,Win32,60.10337781,628b806c463b948bc644b84f,629afed1692063e219f8d5b4,,,,,,,,,,,,,,,,,,,,,,,,,,,,,,,,,,,,,,,,,,,,,,,,,,,,,,,,,,,,,,,,,,,,,,,,,,,,,,,,,,,,,,,,,,,,,,,,,,,,,,,
,,"[""comma""]",0,[0.3234999999999957],22,0,22,0,1,5c8bb229b0b5510016a92910,33,Mężczyzna,2022-06-04_08h42.57.296,task,2021.1.4,Win32,60.10337781,628b806c463b948bc644b84f,629afed1692063e219f8d5b4,,,,,,,,,,,,,,,,,,,,,,,,,,,,,,,,,,,,,,,,,,,,,,,,,,,,,,,,,,,,,,,,,,,,,,,,,,,,,,,,,,,,,,,,,,,,,,,,,,,,,,,
,,"[""period""]",0,[0.3552999999523365],23,0,23,0,1,5c8bb229b0b5510016a92910,33,Mężczyzna,2022-06-04_08h42.57.296,task,2021.1.4,Win32,60.10337781,628b806c463b948bc644b84f,629afed1692063e219f8d5b4,,,,,,,,,,,,,,,,,,,,,,,,,,,,,,,,,,,,,,,,,,,,,,,,,,,,,,,,,,,,,,,,,,,,,,,,,,,,,,,,,,,,,,,,,,,,,,,,,,,,,,,
,,"[""comma""]",0,[0.551299999952306],24,0,24,0,1,5c8bb229b0b5510016a92910,33,Mężczyzna,2022-06-04_08h42.57.296,task,2021.1.4,Win32,60.10337781,628b806c463b948bc644b84f,629afed1692063e219f8d5b4,,,,,,,,,,,,,,,,,,,,,,,,,,,,,,,,,,,,,,,,,,,,,,,,,,,,,,,,,,,,,,,,,,,,,,,,,,,,,,,,,,,,,,,,,,,,,,,,,,,,,,,
,,"[""period""]",0,[0.5349999999999966],25,0,25,0,1,5c8bb229b0b5510016a92910,33,Mężczyzna,2022-06-04_08h42.57.296,task,2021.1.4,Win32,60.10337781,628b806c463b948bc644b84f,629afed1692063e219f8d5b4,,,,,,,,,,,,,,,,,,,,,,,,,,,,,,,,,,,,,,,,,,,,,,,,,,,,,,,,,,,,,,,,,,,,,,,,,,,,,,,,,,,,,,,,,,,,,,,,,,,,,,,
,,"[""comma""]",0,[0.48359999990461233],26,0,26,0,1,5c8bb229b0b5510016a92910,33,Mężczyzna,2022-06-04_08h42.57.296,task,2021.1.4,Win32,60.10337781,628b806c463b948bc644b84f,629afed1692063e219f8d5b4,,,,,,,,,,,,,,,,,,,,,,,,,,,,,,,,,,,,,,,,,,,,,,,,,,,,,,,,,,,,,,,,,,,,,,,,,,,,,,,,,,,,,,,,,,,,,,,,,,,,,,,
,,"[""comma""]",0,[0.3373999998569559],27,0,27,0,1,5c8bb229b0b5510016a92910,33,Mężczyzna,2022-06-04_08h42.57.296,task,2021.1.4,Win32,60.10337781,628b806c463b948bc644b84f,629afed1692063e219f8d5b4,,,,,,,,,,,,,,,,,,,,,,,,,,,,,,,,,,,,,,,,,,,,,,,,,,,,,,,,,,,,,,,,,,,,,,,,,,,,,,,,,,,,,,,,,,,,,,,,,,,,,,,
,,"[""comma""]",0,[0.4654999999999916],28,0,28,0,1,5c8bb229b0b5510016a92910,33,Mężczyzna,2022-06-04_08h42.57.296,task,2021.1.4,Win32,60.10337781,628b806c463b948bc644b84f,629afed1692063e219f8d5b4,,,,,,,,,,,,,,,,,,,,,,,,,,,,,,,,,,,,,,,,,,,,,,,,,,,,,,,,,,,,,,,,,,,,,,,,,,,,,,,,,,,,,,,,,,,,,,,,,,,,,,,
,,"[""period""]",0,[0.38479999995229264],29,0,29,0,1,5c8bb229b0b5510016a92910,33,Mężczyzna,2022-06-04_08h42.57.296,task,2021.1.4,Win32,60.10337781,628b806c463b948bc644b84f,629afed1692063e219f8d5b4,,,,,,,,,,,,,,,,,,,,,,,,,,,,,,,,,,,,,,,,,,,,,,,,,,,,,,,,,,,,,,,,,,,,,,,,,,,,,,,,,,,,,,,,,,,,,,,,,,,,,,,
,,"[""period""]",0,[0.6695999999046194],30,0,30,0,1,5c8bb229b0b5510016a92910,33,Mężczyzna,2022-06-04_08h42.57.296,task,2021.1.4,Win32,60.10337781,628b806c463b948bc644b84f,629afed1692063e219f8d5b4,,,,,,,,,,,,,,,,,,,,,,,,,,,,,,,,,,,,,,,,,,,,,,,,,,,,,,,,,,,,,,,,,,,,,,,,,,,,,,,,,,,,,,,,,,,,,,,,,,,,,,,
,,"[""comma""]",0,[0.5504999999999995],31,0,31,0,1,5c8bb229b0b5510016a92910,33,Mężczyzna,2022-06-04_08h42.57.296,task,2021.1.4,Win32,60.10337781,628b806c463b948bc644b84f,629afed1692063e219f8d5b4,,,,,,,,,,,,,,,,,,,,,,,,,,,,,,,,,,,,,,,,,,,,,,,,,,,,,,,,,,,,,,,,,,,,,,,,,,,,,,,,,,,,,,,,,,,,,,,,,,,,,,,
,,"[""period""]",0,[0.839299999952317],32,0,32,0,1,5c8bb229b0b5510016a92910,33,Mężczyzna,2022-06-04_08h42.57.296,task,2021.1.4,Win32,60.10337781,628b806c463b948bc644b84f,629afed1692063e219f8d5b4,,,,,,,,,,,,,,,,,,,,,,,,,,,,,,,,,,,,,,,,,,,,,,,,,,,,,,,,,,,,,,,,,,,,,,,,,,,,,,,,,,,,,,,,,,,,,,,,,,,,,,,
,,"[""comma""]",0,[0.7548999998569457],33,0,33,0,1,5c8bb229b0b5510016a92910,33,Mężczyzna,2022-06-04_08h42.57.296,task,2021.1.4,Win32,60.10337781,628b806c463b948bc644b84f,629afed1692063e219f8d5b4,,,,,,,,,,,,,,,,,,,,,,,,,,,,,,,,,,,,,,,,,,,,,,,,,,,,,,,,,,,,,,,,,,,,,,,,,,,,,,,,,,,,,,,,,,,,,,,,,,,,,,,
,,"[""comma""]",0,[0.7564000000953683],34,0,34,0,1,5c8bb229b0b5510016a92910,33,Mężczyzna,2022-06-04_08h42.57.296,task,2021.1.4,Win32,60.10337781,628b806c463b948bc644b84f,629afed1692063e219f8d5b4,,,,,,,,,,,,,,,,,,,,,,,,,,,,,,,,,,,,,,,,,,,,,,,,,,,,,,,,,,,,,,,,,,,,,,,,,,,,,,,,,,,,,,,,,,,,,,,,,,,,,,,
,,"[""comma""]",0,[0.5825000000000102],35,0,35,0,1,5c8bb229b0b5510016a92910,33,Mężczyzna,2022-06-04_08h42.57.296,task,2021.1.4,Win32,60.10337781,628b806c463b948bc644b84f,629afed1692063e219f8d5b4,,,,,,,,,,,,,,,,,,,,,,,,,,,,,,,,,,,,,,,,,,,,,,,,,,,,,,,,,,,,,,,,,,,,,,,,,,,,,,,,,,,,,,,,,,,,,,,,,,,,,,,
,,"[""period""]",0,[0.6419000000953758],36,0,36,0,1,5c8bb229b0b5510016a92910,33,Mężczyzna,2022-06-04_08h42.57.296,task,2021.1.4,Win32,60.10337781,628b806c463b948bc644b84f,629afed1692063e219f8d5b4,,,,,,,,,,,,,,,,,,,,,,,,,,,,,,,,,,,,,,,,,,,,,,,,,,,,,,,,,,,,,,,,,,,,,,,,,,,,,,,,,,,,,,,,,,,,,,,,,,,,,,,
,,"[""comma""]",0,[0.46560000014304137],37,0,37,0,1,5c8bb229b0b5510016a92910,33,Mężczyzna,2022-06-04_08h42.57.296,task,2021.1.4,Win32,60.10337781,628b806c463b948bc644b84f,629afed1692063e219f8d5b4,,,,,,,,,,,,,,,,,,,,,,,,,,,,,,,,,,,,,,,,,,,,,,,,,,,,,,,,,,,,,,,,,,,,,,,,,,,,,,,,,,,,,,,,,,,,,,,,,,,,,,,
,,"[""period""]",0,[0.3855000000000075],38,0,38,0,1,5c8bb229b0b5510016a92910,33,Mężczyzna,2022-06-04_08h42.57.296,task,2021.1.4,Win32,60.10337781,628b806c463b948bc644b84f,629afed1692063e219f8d5b4,,,,,,,,,,,,,,,,,,,,,,,,,,,,,,,,,,,,,,,,,,,,,,,,,,,,,,,,,,,,,,,,,,,,,,,,,,,,,,,,,,,,,,,,,,,,,,,,,,,,,,,
,,"[""period""]",0,[0.9062000000477042],39,0,39,0,1,5c8bb229b0b5510016a92910,33,Mężczyzna,2022-06-04_08h42.57.296,task,2021.1.4,Win32,60.10337781,628b806c463b948bc644b84f,629afed1692063e219f8d5b4,,,,,,,,,,,,,,,,,,,,,,,,,,,,,,,,,,,,,,,,,,,,,,,,,,,,,,,,,,,,,,,,,,,,,,,,,,,,,,,,,,,,,,,,,,,,,,,,,,,,,,,
,,"[""period""]",0,[1.1492999999523192],40,0,40,0,1,5c8bb229b0b5510016a92910,33,Mężczyzna,2022-06-04_08h42.57.296,task,2021.1.4,Win32,60.10337781,628b806c463b948bc644b84f,629afed1692063e219f8d5b4,,,,,,,,,,,,,,,,,,,,,,,,,,,,,,,,,,,,,,,,,,,,,,,,,,,,,,,,,,,,,,,,,,,,,,,,,,,,,,,,,,,,,,,,,,,,,,,,,,,,,,,
,,"[""comma""]",0,[0.7492000000476651],41,0,41,0,1,5c8bb229b0b5510016a92910,33,Mężczyzna,2022-06-04_08h42.57.296,task,2021.1.4,Win32,60.10337781,628b806c463b948bc644b84f,629afed1692063e219f8d5b4,,,,,,,,,,,,,,,,,,,,,,,,,,,,,,,,,,,,,,,,,,,,,,,,,,,,,,,,,,,,,,,,,,,,,,,,,,,,,,,,,,,,,,,,,,,,,,,,,,,,,,,
,,"[""comma""]",0,[0.634399999856953],42,0,42,0,1,5c8bb229b0b5510016a92910,33,Mężczyzna,2022-06-04_08h42.57.296,task,2021.1.4,Win32,60.10337781,628b806c463b948bc644b84f,629afed1692063e219f8d5b4,,,,,,,,,,,,,,,,,,,,,,,,,,,,,,,,,,,,,,,,,,,,,,,,,,,,,,,,,,,,,,,,,,,,,,,,,,,,,,,,,,,,,,,,,,,,,,,,,,,,,,,
,,"[""period""]",0,[0.613700000047686],43,0,43,0,1,5c8bb229b0b5510016a92910,33,Mężczyzna,2022-06-04_08h42.57.296,task,2021.1.4,Win32,60.10337781,628b806c463b948bc644b84f,629afed1692063e219f8d5b4,,,,,,,,,,,,,,,,,,,,,,,,,,,,,,,,,,,,,,,,,,,,,,,,,,,,,,,,,,,,,,,,,,,,,,,,,,,,,,,,,,,,,,,,,,,,,,,,,,,,,,,
,,"[""comma""]",0,[0.5852999999523263],44,0,44,0,1,5c8bb229b0b5510016a92910,33,Mężczyzna,2022-06-04_08h42.57.296,task,2021.1.4,Win32,60.10337781,628b806c463b948bc644b84f,629afed1692063e219f8d5b4,,,,,,,,,,,,,,,,,,,,,,,,,,,,,,,,,,,,,,,,,,,,,,,,,,,,,,,,,,,,,,,,,,,,,,,,,,,,,,,,,,,,,,,,,,,,,,,,,,,,,,,
,,"[""period""]",0,[0.5867000000476992],45,0,45,0,1,5c8bb229b0b5510016a92910,33,Mężczyzna,2022-06-04_08h42.57.296,task,2021.1.4,Win32,60.10337781,628b806c463b948bc644b84f,629afed1692063e219f8d5b4,,,,,,,,,,,,,,,,,,,,,,,,,,,,,,,,,,,,,,,,,,,,,,,,,,,,,,,,,,,,,,,,,,,,,,,,,,,,,,,,,,,,,,,,,,,,,,,,,,,,,,,
,,"[""period""]",0,[0.374100000143045],46,0,46,0,1,5c8bb229b0b5510016a92910,33,Mężczyzna,2022-06-04_08h42.57.296,task,2021.1.4,Win32,60.10337781,628b806c463b948bc644b84f,629afed1692063e219f8d5b4,,,,,,,,,,,,,,,,,,,,,,,,,,,,,,,,,,,,,,,,,,,,,,,,,,,,,,,,,,,,,,,,,,,,,,,,,,,,,,,,,,,,,,,,,,,,,,,,,,,,,,,
,,"[""comma""]",0,[0.4562000000476871],47,0,47,0,1,5c8bb229b0b5510016a92910,33,Mężczyzna,2022-06-04_08h42.57.296,task,2021.1.4,Win32,60.10337781,628b806c463b948bc644b84f,629afed1692063e219f8d5b4,,,,,,,,,,,,,,,,,,,,,,,,,,,,,,,,,,,,,,,,,,,,,,,,,,,,,,,,,,,,,,,,,,,,,,,,,,,,,,,,,,,,,,,,,,,,,,,,,,,,,,,
,,"[""comma""]",0,[0.6181000001430448],48,0,48,0,1,5c8bb229b0b5510016a92910,33,Mężczyzna,2022-06-04_08h42.57.296,task,2021.1.4,Win32,60.10337781,628b806c463b948bc644b84f,629afed1692063e219f8d5b4,,,,,,,,,,,,,,,,,,,,,,,,,,,,,,,,,,,,,,,,,,,,,,,,,,,,,,,,,,,,,,,,,,,,,,,,,,,,,,,,,,,,,,,,,,,,,,,,,,,,,,,
,,"[""comma""]",0,[0.6686000001430443],49,0,49,0,1,5c8bb229b0b5510016a92910,33,Mężczyzna,2022-06-04_08h42.57.296,task,2021.1.4,Win32,60.10337781,628b806c463b948bc644b84f,629afed1692063e219f8d5b4,,,,,,,,,,,,,,,,,,,,,,,,,,,,,,,,,,,,,,,,,,,,,,,,,,,,,,,,,,,,,,,,,,,,,,,,,,,,,,,,,,,,,,,,,,,,,,,,,,,,,,,
,,"[""period""]",0,[0.4860999999046385],50,0,50,0,1,5c8bb229b0b5510016a92910,33,Mężczyzna,2022-06-04_08h42.57.296,task,2021.1.4,Win32,60.10337781,628b806c463b948bc644b84f,629afed1692063e219f8d5b4,,,,,,,,,,,,,,,,,,,,,,,,,,,,,,,,,,,,,,,,,,,,,,,,,,,,,,,,,,,,,,,,,,,,,,,,,,,,,,,,,,,,,,,,,,,,,,,,,,,,,,,
,,"[""comma""]",0,[0.9077000000477256],51,0,51,0,1,5c8bb229b0b5510016a92910,33,Mężczyzna,2022-06-04_08h42.57.296,task,2021.1.4,Win32,60.10337781,628b806c463b948bc644b84f,629afed1692063e219f8d5b4,,,,,,,,,,,,,,,,,,,,,,,,,,,,,,,,,,,,,,,,,,,,,,,,,,,,,,,,,,,,,,,,,,,,,,,,,,,,,,,,,,,,,,,,,,,,,,,,,,,,,,,
,,"[""period""]",0,[0.596399999856942],52,0,52,0,1,5c8bb229b0b5510016a92910,33,Mężczyzna,2022-06-04_08h42.57.296,task,2021.1.4,Win32,60.10337781,628b806c463b948bc644b84f,629afed1692063e219f8d5b4,,,,,,,,,,,,,,,,,,,,,,,,,,,,,,,,,,,,,,,,,,,,,,,,,,,,,,,,,,,,,,,,,,,,,,,,,,,,,,,,,,,,,,,,,,,,,,,,,,,,,,,
,,"[""period""]",0,[0.5837999999523049],53,0,53,0,1,5c8bb229b0b5510016a92910,33,Mężczyzna,2022-06-04_08h42.57.296,task,2021.1.4,Win32,60.10337781,628b806c463b948bc644b84f,629afed1692063e219f8d5b4,,,,,,,,,,,,,,,,,,,,,,,,,,,,,,,,,,,,,,,,,,,,,,,,,,,,,,,,,,,,,,,,,,,,,,,,,,,,,,,,,,,,,,,,,,,,,,,,,,,,,,,
,,"[""comma""]",0,[0.6532999999523099],54,0,54,0,1,5c8bb229b0b5510016a92910,33,Mężczyzna,2022-06-04_08h42.57.296,task,2021.1.4,Win32,60.10337781,628b806c463b948bc644b84f,629afed1692063e219f8d5b4,,,,,,,,,,,,,,,,,,,,,,,,,,,,,,,,,,,,,,,,,,,,,,,,,,,,,,,,,,,,,,,,,,,,,,,,,,,,,,,,,,,,,,,,,,,,,,,,,,,,,,,
,,"[""period""]",0,[0.3239000000953638],55,0,55,0,1,5c8bb229b0b5510016a92910,33,Mężczyzna,2022-06-04_08h42.57.296,task,2021.1.4,Win32,60.10337781,628b806c463b948bc644b84f,629afed1692063e219f8d5b4,,,,,,,,,,,,,,,,,,,,,,,,,,,,,,,,,,,,,,,,,,,,,,,,,,,,,,,,,,,,,,,,,,,,,,,,,,,,,,,,,,,,,,,,,,,,,,,,,,,,,,,
,,"[""period""]",0,[0.4327000000477028],56,0,56,0,1,5c8bb229b0b5510016a92910,33,Mężczyzna,2022-06-04_08h42.57.296,task,2021.1.4,Win32,60.10337781,628b806c463b948bc644b84f,629afed1692063e219f8d5b4,,,,,,,,,,,,,,,,,,,,,,,,,,,,,,,,,,,,,,,,,,,,,,,,,,,,,,,,,,,,,,,,,,,,,,,,,,,,,,,,,,,,,,,,,,,,,,,,,,,,,,,
,,"[""period""]",0,[0.8489000000953979],57,0,57,0,1,5c8bb229b0b5510016a92910,33,Mężczyzna,2022-06-04_08h42.57.296,task,2021.1.4,Win32,60.10337781,628b806c463b948bc644b84f,629afed1692063e219f8d5b4,,,,,,,,,,,,,,,,,,,,,,,,,,,,,,,,,,,,,,,,,,,,,,,,,,,,,,,,,,,,,,,,,,,,,,,,,,,,,,,,,,,,,,,,,,,,,,,,,,,,,,,
,,"[""comma""]",0,[0.6657999999523554],58,0,58,0,1,5c8bb229b0b5510016a92910,33,Mężczyzna,2022-06-04_08h42.57.296,task,2021.1.4,Win32,60.10337781,628b806c463b948bc644b84f,629afed1692063e219f8d5b4,,,,,,,,,,,,,,,,,,,,,,,,,,,,,,,,,,,,,,,,,,,,,,,,,,,,,,,,,,,,,,,,,,,,,,,,,,,,,,,,,,,,,,,,,,,,,,,,,,,,,,,
,,"[""comma""]",0,[0.5825999999046303],59,0,59,0,1,5c8bb229b0b5510016a92910,33,Mężczyzna,2022-06-04_08h42.57.296,task,2021.1.4,Win32,60.10337781,628b806c463b948bc644b84f,629afed1692063e219f8d5b4,,,,,,,,,,,,,,,,,,,,,,,,,,,,,,,,,,,,,,,,,,,,,,,,,,,,,,,,,,,,,,,,,,,,,,,,,,,,,,,,,,,,,,,,,,,,,,,,,,,,,,,
,,"[""period""]",0,[0.4021000001430366],60,0,60,0,1,5c8bb229b0b5510016a92910,33,Mężczyzna,2022-06-04_08h42.57.296,task,2021.1.4,Win32,60.10337781,628b806c463b948bc644b84f,629afed1692063e219f8d5b4,,,,,,,,,,,,,,,,,,,,,,,,,,,,,,,,,,,,,,,,,,,,,,,,,,,,,,,,,,,,,,,,,,,,,,,,,,,,,,,,,,,,,,,,,,,,,,,,,,,,,,,
,,"[""comma""]",0,[0.48219999980926787],61,0,61,0,1,5c8bb229b0b5510016a92910,33,Mężczyzna,2022-06-04_08h42.57.296,task,2021.1.4,Win32,60.10337781,628b806c463b948bc644b84f,629afed1692063e219f8d5b4,,,,,,,,,,,,,,,,,,,,,,,,,,,,,,,,,,,,,,,,,,,,,,,,,,,,,,,,,,,,,,,,,,,,,,,,,,,,,,,,,,,,,,,,,,,,,,,,,,,,,,,
,,"[""period""]",0,[0.622900000095342],62,0,62,0,1,5c8bb229b0b5510016a92910,33,Mężczyzna,2022-06-04_08h42.57.296,task,2021.1.4,Win32,60.10337781,628b806c463b948bc644b84f,629afed1692063e219f8d5b4,,,,,,,,,,,,,,,,,,,,,,,,,,,,,,,,,,,,,,,,,,,,,,,,,,,,,,,,,,,,,,,,,,,,,,,,,,,,,,,,,,,,,,,,,,,,,,,,,,,,,,,
,,"[""period""]",0,[0.49009999990460074],63,0,63,0,1,5c8bb229b0b5510016a92910,33,Mężczyzna,2022-06-04_08h42.57.296,task,2021.1.4,Win32,60.10337781,628b806c463b948bc644b84f,629afed1692063e219f8d5b4,,,,,,,,,,,,,,,,,,,,,,,,,,,,,,,,,,,,,,,,,,,,,,,,,,,,,,,,,,,,,,,,,,,,,,,,,,,,,,,,,,,,,,,,,,,,,,,,,,,,,,,
,,"[""comma""]",0,[0.4995000000000118],64,0,64,0,1,5c8bb229b0b5510016a92910,33,Mężczyzna,2022-06-04_08h42.57.296,task,2021.1.4,Win32,60.10337781,628b806c463b948bc644b84f,629afed1692063e219f8d5b4,,,,,,,,,,,,,,,,,,,,,,,,,,,,,,,,,,,,,,,,,,,,,,,,,,,,,,,,,,,,,,,,,,,,,,,,,,,,,,,,,,,,,,,,,,,,,,,,,,,,,,,
,,"[""comma""]",0,[0.698799999952314],65,0,65,0,1,5c8bb229b0b5510016a92910,33,Mężczyzna,2022-06-04_08h42.57.296,task,2021.1.4,Win32,60.10337781,628b806c463b948bc644b84f,629afed1692063e219f8d5b4,,,,,,,,,,,,,,,,,,,,,,,,,,,,,,,,,,,,,,,,,,,,,,,,,,,,,,,,,,,,,,,,,,,,,,,,,,,,,,,,,,,,,,,,,,,,,,,,,,,,,,,
,,"[""comma""]",0,[0.8676000001430566],66,0,66,0,1,5c8bb229b0b5510016a92910,33,Mężczyzna,2022-06-04_08h42.57.296,task,2021.1.4,Win32,60.10337781,628b806c463b948bc644b84f,629afed1692063e219f8d5b4,,,,,,,,,,,,,,,,,,,,,,,,,,,,,,,,,,,,,,,,,,,,,,,,,,,,,,,,,,,,,,,,,,,,,,,,,,,,,,,,,,,,,,,,,,,,,,,,,,,,,,,
,,"[""comma""]",0,[0.8680999999046435],67,0,67,0,1,5c8bb229b0b5510016a92910,33,Mężczyzna,2022-06-04_08h42.57.296,task,2021.1.4,Win32,60.10337781,628b806c463b948bc644b84f,629afed1692063e219f8d5b4,,,,,,,,,,,,,,,,,,,,,,,,,,,,,,,,,,,,,,,,,,,,,,,,,,,,,,,,,,,,,,,,,,,,,,,,,,,,,,,,,,,,,,,,,,,,,,,,,,,,,,,
,,"[""period""]",0,[0.7327999999523058],68,0,68,0,1,5c8bb229b0b5510016a92910,33,Mężczyzna,2022-06-04_08h42.57.296,task,2021.1.4,Win32,60.10337781,628b806c463b948bc644b84f,629afed1692063e219f8d5b4,,,,,,,,,,,,,,,,,,,,,,,,,,,,,,,,,,,,,,,,,,,,,,,,,,,,,,,,,,,,,,,,,,,,,,,,,,,,,,,,,,,,,,,,,,,,,,,,,,,,,,,
,,"[""comma""]",0,[0.40410000014304615],69,0,69,0,1,5c8bb229b0b5510016a92910,33,Mężczyzna,2022-06-04_08h42.57.296,task,2021.1.4,Win32,60.10337781,628b806c463b948bc644b84f,629afed1692063e219f8d5b4,,,,,,,,,,,,,,,,,,,,,,,,,,,,,,,,,,,,,,,,,,,,,,,,,,,,,,,,,,,,,,,,,,,,,,,,,,,,,,,,,,,,,,,,,,,,,,,,,,,,,,,
,,"[""comma""]",0,[0.5187000000477155],70,0,70,0,1,5c8bb229b0b5510016a92910,33,Mężczyzna,2022-06-04_08h42.57.296,task,2021.1.4,Win32,60.10337781,628b806c463b948bc644b84f,629afed1692063e219f8d5b4,,,,,,,,,,,,,,,,,,,,,,,,,,,,,,,,,,,,,,,,,,,,,,,,,,,,,,,,,,,,,,,,,,,,,,,,,,,,,,,,,,,,,,,,,,,,,,,,,,,,,,,
,,"[""period"",""comma""]",0,"[0.3006999998092965,1.7575999999046417]",71,0,71,0,1,5c8bb229b0b5510016a92910,33,Mężczyzna,2022-06-04_08h42.57.296,task,2021.1.4,Win32,60.10337781,628b806c463b948bc644b84f,629afed1692063e219f8d5b4,,,,,,,,,,,,,,,,,,,,,,,,,,,,,,,,,,,,,,,,,,,,,,,,,,,,,,,,,,,,,,,,,,,,,,,,,,,,,,,,,,,,,,,,,,,,,,,,,,,,,,,
,,"[""comma""]",0,[1.918400000095403],72,0,72,0,1,5c8bb229b0b5510016a92910,33,Mężczyzna,2022-06-04_08h42.57.296,task,2021.1.4,Win32,60.10337781,628b806c463b948bc644b84f,629afed1692063e219f8d5b4,,,,,,,,,,,,,,,,,,,,,,,,,,,,,,,,,,,,,,,,,,,,,,,,,,,,,,,,,,,,,,,,,,,,,,,,,,,,,,,,,,,,,,,,,,,,,,,,,,,,,,,
,,"[""period""]",0,[1.171100000143099],73,0,73,0,1,5c8bb229b0b5510016a92910,33,Mężczyzna,2022-06-04_08h42.57.296,task,2021.1.4,Win32,60.10337781,628b806c463b948bc644b84f,629afed1692063e219f8d5b4,,,,,,,,,,,,,,,,,,,,,,,,,,,,,,,,,,,,,,,,,,,,,,,,,,,,,,,,,,,,,,,,,,,,,,,,,,,,,,,,,,,,,,,,,,,,,,,,,,,,,,,
,,"[""period""]",0,[1.3823999998569434],74,0,74,0,1,5c8bb229b0b5510016a92910,33,Mężczyzna,2022-06-04_08h42.57.296,task,2021.1.4,Win32,60.10337781,628b806c463b948bc644b84f,629afed1692063e219f8d5b4,,,,,,,,,,,,,,,,,,,,,,,,,,,,,,,,,,,,,,,,,,,,,,,,,,,,,,,,,,,,,,,,,,,,,,,,,,,,,,,,,,,,,,,,,,,,,,,,,,,,,,,
,,,0,,75,0,75,0,1,5c8bb229b0b5510016a92910,33,Mężczyzna,2022-06-04_08h42.57.296,task,2021.1.4,Win32,60.10337781,628b806c463b948bc644b84f,629afed1692063e219f8d5b4,,,,,,,,,,,,,,,,,,,,,,,,,,,,,,,,,,,,,,,,,,,,,,,,,,,,,,,,,,,,,,,,,,,,,,,,,,,,,,,,,,,,,,,,,,,,,,,,,,,,,,,
,,"[""comma""]",0,[0.4404000000953374],76,0,76,0,1,5c8bb229b0b5510016a92910,33,Mężczyzna,2022-06-04_08h42.57.296,task,2021.1.4,Win32,60.10337781,628b806c463b948bc644b84f,629afed1692063e219f8d5b4,,,,,,,,,,,,,,,,,,,,,,,,,,,,,,,,,,,,,,,,,,,,,,,,,,,,,,,,,,,,,,,,,,,,,,,,,,,,,,,,,,,,,,,,,,,,,,,,,,,,,,,
,,"[""period""]",0,[0.17029999995230582],77,0,77,0,1,5c8bb229b0b5510016a92910,33,Mężczyzna,2022-06-04_08h42.57.296,task,2021.1.4,Win32,60.10337781,628b806c463b948bc644b84f,629afed1692063e219f8d5b4,,,,,,,,,,,,,,,,,,,,,,,,,,,,,,,,,,,,,,,,,,,,,,,,,,,,,,,,,,,,,,,,,,,,,,,,,,,,,,,,,,,,,,,,,,,,,,,,,,,,,,,
,,"[""period""]",0,[0.7193999998569325],78,0,78,0,1,5c8bb229b0b5510016a92910,33,Mężczyzna,2022-06-04_08h42.57.296,task,2021.1.4,Win32,60.10337781,628b806c463b948bc644b84f,629afed1692063e219f8d5b4,,,,,,,,,,,,,,,,,,,,,,,,,,,,,,,,,,,,,,,,,,,,,,,,,,,,,,,,,,,,,,,,,,,,,,,,,,,,,,,,,,,,,,,,,,,,,,,,,,,,,,,
,,"[""comma""]",0,[0.43520000004770054],79,0,79,0,1,5c8bb229b0b5510016a92910,33,Mężczyzna,2022-06-04_08h42.57.296,task,2021.1.4,Win32,60.10337781,628b806c463b948bc644b84f,629afed1692063e219f8d5b4,,,,,,,,,,,,,,,,,,,,,,,,,,,,,,,,,,,,,,,,,,,,,,,,,,,,,,,,,,,,,,,,,,,,,,,,,,,,,,,,,,,,,,,,,,,,,,,,,,,,,,,
,,,0,,80,0,80,0,1,5c8bb229b0b5510016a92910,33,Mężczyzna,2022-06-04_08h42.57.296,task,2021.1.4,Win32,60.10337781,628b806c463b948bc644b84f,629afed1692063e219f8d5b4,,,,,,,,,,,,,,,,,,,,,,,,,,,,,,,,,,,,,,,,,,,,,,,,,,,,,,,,,,,,,,,,,,,,,,,,,,,,,,,,,,,,,,,,,,,,,,,,,,,,,,,
,,"[""comma""]",0,[0.44910000014306206],81,0,81,0,1,5c8bb229b0b5510016a92910,33,Mężczyzna,2022-06-04_08h42.57.296,task,2021.1.4,Win32,60.10337781,628b806c463b948bc644b84f,629afed1692063e219f8d5b4,,,,,,,,,,,,,,,,,,,,,,,,,,,,,,,,,,,,,,,,,,,,,,,,,,,,,,,,,,,,,,,,,,,,,,,,,,,,,,,,,,,,,,,,,,,,,,,,,,,,,,,
,,"[""period""]",0,[0.517199999809236],82,0,82,0,1,5c8bb229b0b5510016a92910,33,Mężczyzna,2022-06-04_08h42.57.296,task,2021.1.4,Win32,60.10337781,628b806c463b948bc644b84f,629afed1692063e219f8d5b4,,,,,,,,,,,,,,,,,,,,,,,,,,,,,,,,,,,,,,,,,,,,,,,,,,,,,,,,,,,,,,,,,,,,,,,,,,,,,,,,,,,,,,,,,,,,,,,,,,,,,,,
,,"[""period""]",0,[0.8047000000477169],83,0,83,0,1,5c8bb229b0b5510016a92910,33,Mężczyzna,2022-06-04_08h42.57.296,task,2021.1.4,Win32,60.10337781,628b806c463b948bc644b84f,629afed1692063e219f8d5b4,,,,,,,,,,,,,,,,,,,,,,,,,,,,,,,,,,,,,,,,,,,,,,,,,,,,,,,,,,,,,,,,,,,,,,,,,,,,,,,,,,,,,,,,,,,,,,,,,,,,,,,
,,"[""period""]",0,[0.6562000000477042],84,0,84,0,1,5c8bb229b0b5510016a92910,33,Mężczyzna,2022-06-04_08h42.57.296,task,2021.1.4,Win32,60.10337781,628b806c463b948bc644b84f,629afed1692063e219f8d5b4,,,,,,,,,,,,,,,,,,,,,,,,,,,,,,,,,,,,,,,,,,,,,,,,,,,,,,,,,,,,,,,,,,,,,,,,,,,,,,,,,,,,,,,,,,,,,,,,,,,,,,,
,,"[""period""]",0,[0.6427000000476824],85,0,85,0,1,5c8bb229b0b5510016a92910,33,Mężczyzna,2022-06-04_08h42.57.296,task,2021.1.4,Win32,60.10337781,628b806c463b948bc644b84f,629afed1692063e219f8d5b4,,,,,,,,,,,,,,,,,,,,,,,,,,,,,,,,,,,,,,,,,,,,,,,,,,,,,,,,,,,,,,,,,,,,,,,,,,,,,,,,,,,,,,,,,,,,,,,,,,,,,,,
,,"[""comma""]",0,[0.5182000000476705],86,0,86,0,1,5c8bb229b0b5510016a92910,33,Mężczyzna,2022-06-04_08h42.57.296,task,2021.1.4,Win32,60.10337781,628b806c463b948bc644b84f,629afed1692063e219f8d5b4,,,,,,,,,,,,,,,,,,,,,,,,,,,,,,,,,,,,,,,,,,,,,,,,,,,,,,,,,,,,,,,,,,,,,,,,,,,,,,,,,,,,,,,,,,,,,,,,,,,,,,,
,,"[""period""]",0,[0.3180999999046321],87,0,87,0,1,5c8bb229b0b5510016a92910,33,Mężczyzna,2022-06-04_08h42.57.296,task,2021.1.4,Win32,60.10337781,628b806c463b948bc644b84f,629afed1692063e219f8d5b4,,,,,,,,,,,,,,,,,,,,,,,,,,,,,,,,,,,,,,,,,,,,,,,,,,,,,,,,,,,,,,,,,,,,,,,,,,,,,,,,,,,,,,,,,,,,,,,,,,,,,,,
,,"[""comma"",""period""]",0,"[0.6016999998092842,1.8340000000000032]",88,0,88,0,1,5c8bb229b0b5510016a92910,33,Mężczyzna,2022-06-04_08h42.57.296,task,2021.1.4,Win32,60.10337781,628b806c463b948bc644b84f,629afed1692063e219f8d5b4,,,,,,,,,,,,,,,,,,,,,,,,,,,,,,,,,,,,,,,,,,,,,,,,,,,,,,,,,,,,,,,,,,,,,,,,,,,,,,,,,,,,,,,,,,,,,,,,,,,,,,,
,,,0,,89,0,89,0,1,5c8bb229b0b5510016a92910,33,Mężczyzna,2022-06-04_08h42.57.296,task,2021.1.4,Win32,60.10337781,628b806c463b948bc644b84f,629afed1692063e219f8d5b4,,,,,,,,,,,,,,,,,,,,,,,,,,,,,,,,,,,,,,,,,,,,,,,,,,,,,,,,,,,,,,,,,,,,,,,,,,,,,,,,,,,,,,,,,,,,,,,,,,,,,,,
,,"[""comma""]",0,[0.3337999999523049],90,0,90,0,1,5c8bb229b0b5510016a92910,33,Mężczyzna,2022-06-04_08h42.57.296,task,2021.1.4,Win32,60.10337781,628b806c463b948bc644b84f,629afed1692063e219f8d5b4,,,,,,,,,,,,,,,,,,,,,,,,,,,,,,,,,,,,,,,,,,,,,,,,,,,,,,,,,,,,,,,,,,,,,,,,,,,,,,,,,,,,,,,,,,,,,,,,,,,,,,,
,,"[""period""]",0,[0.45249999999998636],91,0,91,0,1,5c8bb229b0b5510016a92910,33,Mężczyzna,2022-06-04_08h42.57.296,task,2021.1.4,Win32,60.10337781,628b806c463b948bc644b84f,629afed1692063e219f8d5b4,,,,,,,,,,,,,,,,,,,,,,,,,,,,,,,,,,,,,,,,,,,,,,,,,,,,,,,,,,,,,,,,,,,,,,,,,,,,,,,,,,,,,,,,,,,,,,,,,,,,,,,
,,"[""period""]",0,[0.5827999999523286],92,0,92,0,1,5c8bb229b0b5510016a92910,33,Mężczyzna,2022-06-04_08h42.57.296,task,2021.1.4,Win32,60.10337781,628b806c463b948bc644b84f,629afed1692063e219f8d5b4,,,,,,,,,,,,,,,,,,,,,,,,,,,,,,,,,,,,,,,,,,,,,,,,,,,,,,,,,,,,,,,,,,,,,,,,,,,,,,,,,,,,,,,,,,,,,,,,,,,,,,,
,,"[""comma""]",0,[0.5045999999046558],93,0,93,0,1,5c8bb229b0b5510016a92910,33,Mężczyzna,2022-06-04_08h42.57.296,task,2021.1.4,Win32,60.10337781,628b806c463b948bc644b84f,629afed1692063e219f8d5b4,,,,,,,,,,,,,,,,,,,,,,,,,,,,,,,,,,,,,,,,,,,,,,,,,,,,,,,,,,,,,,,,,,,,,,,,,,,,,,,,,,,,,,,,,,,,,,,,,,,,,,,
,,"[""period""]",0,[0.8894999999999982],94,0,94,0,1,5c8bb229b0b5510016a92910,33,Mężczyzna,2022-06-04_08h42.57.296,task,2021.1.4,Win32,60.10337781,628b806c463b948bc644b84f,629afed1692063e219f8d5b4,,,,,,,,,,,,,,,,,,,,,,,,,,,,,,,,,,,,,,,,,,,,,,,,,,,,,,,,,,,,,,,,,,,,,,,,,,,,,,,,,,,,,,,,,,,,,,,,,,,,,,,
,,"[""comma""]",0,[0.7044999999999959],95,0,95,0,1,5c8bb229b0b5510016a92910,33,Mężczyzna,2022-06-04_08h42.57.296,task,2021.1.4,Win32,60.10337781,628b806c463b948bc644b84f,629afed1692063e219f8d5b4,,,,,,,,,,,,,,,,,,,,,,,,,,,,,,,,,,,,,,,,,,,,,,,,,,,,,,,,,,,,,,,,,,,,,,,,,,,,,,,,,,,,,,,,,,,,,,,,,,,,,,,
,,"[""period""]",0,[0.6532999999523099],96,0,96,0,1,5c8bb229b0b5510016a92910,33,Mężczyzna,2022-06-04_08h42.57.296,task,2021.1.4,Win32,60.10337781,628b806c463b948bc644b84f,629afed1692063e219f8d5b4,,,,,,,,,,,,,,,,,,,,,,,,,,,,,,,,,,,,,,,,,,,,,,,,,,,,,,,,,,,,,,,,,,,,,,,,,,,,,,,,,,,,,,,,,,,,,,,,,,,,,,,
,,"[""period""]",0,[0.8525000000000205],97,0,97,0,1,5c8bb229b0b5510016a92910,33,Mężczyzna,2022-06-04_08h42.57.296,task,2021.1.4,Win32,60.10337781,628b806c463b948bc644b84f,629afed1692063e219f8d5b4,,,,,,,,,,,,,,,,,,,,,,,,,,,,,,,,,,,,,,,,,,,,,,,,,,,,,,,,,,,,,,,,,,,,,,,,,,,,,,,,,,,,,,,,,,,,,,,,,,,,,,,
,,"[""comma""]",0,[1.3025999999046576],98,0,98,0,1,5c8bb229b0b5510016a92910,33,Mężczyzna,2022-06-04_08h42.57.296,task,2021.1.4,Win32,60.10337781,628b806c463b948bc644b84f,629afed1692063e219f8d5b4,,,,,,,,,,,,,,,,,,,,,,,,,,,,,,,,,,,,,,,,,,,,,,,,,,,,,,,,,,,,,,,,,,,,,,,,,,,,,,,,,,,,,,,,,,,,,,,,,,,,,,,
,,"[""period""]",0,[1.09699999999998],99,0,99,0,1,5c8bb229b0b5510016a92910,33,Mężczyzna,2022-06-04_08h42.57.296,task,2021.1.4,Win32,60.10337781,628b806c463b948bc644b84f,629afed1692063e219f8d5b4,,,,,,,,,,,,,,,,,,,,,,,,,,,,,,,,,,,,,,,,,,,,,,,,,,,,,,,,,,,,,,,,,,,,,,,,,,,,,,,,,,,,,,,,,,,,,,,,,,,,,,,
,,,0,,100,0,100,0,1,5c8bb229b0b5510016a92910,33,Mężczyzna,2022-06-04_08h42.57.296,task,2021.1.4,Win32,60.10337781,628b806c463b948bc644b84f,629afed1692063e219f8d5b4,,,,,,,,,,,,,,,,,,,,,,,,,,,,,,,,,,,,,,,,,,,,,,,,,,,,,,,,,,,,,,,,,,,,,,,,,,,,,,,,,,,,,,,,,,,,,,,,,,,,,,,
,,"[""period"",""period""]",0,"[0.29939999985691657,0.42279999995230355]",101,0,101,0,1,5c8bb229b0b5510016a92910,33,Mężczyzna,2022-06-04_08h42.57.296,task,2021.1.4,Win32,60.10337781,628b806c463b948bc644b84f,629afed1692063e219f8d5b4,,,,,,,,,,,,,,,,,,,,,,,,,,,,,,,,,,,,,,,,,,,,,,,,,,,,,,,,,,,,,,,,,,,,,,,,,,,,,,,,,,,,,,,,,,,,,,,,,,,,,,,
,,"[""comma""]",0,[0.4360999999046271],102,0,102,0,1,5c8bb229b0b5510016a92910,33,Mężczyzna,2022-06-04_08h42.57.296,task,2021.1.4,Win32,60.10337781,628b806c463b948bc644b84f,629afed1692063e219f8d5b4,,,,,,,,,,,,,,,,,,,,,,,,,,,,,,,,,,,,,,,,,,,,,,,,,,,,,,,,,,,,,,,,,,,,,,,,,,,,,,,,,,,,,,,,,,,,,,,,,,,,,,,
,,"[""period""]",0,[0.8199999999999932],103,0,103,0,1,5c8bb229b0b5510016a92910,33,Mężczyzna,2022-06-04_08h42.57.296,task,2021.1.4,Win32,60.10337781,628b806c463b948bc644b84f,629afed1692063e219f8d5b4,,,,,,,,,,,,,,,,,,,,,,,,,,,,,,,,,,,,,,,,,,,,,,,,,,,,,,,,,,,,,,,,,,,,,,,,,,,,,,,,,,,,,,,,,,,,,,,,,,,,,,,
,,"[""comma""]",0,[1.432400000095356],104,0,104,0,1,5c8bb229b0b5510016a92910,33,Mężczyzna,2022-06-04_08h42.57.296,task,2021.1.4,Win32,60.10337781,628b806c463b948bc644b84f,629afed1692063e219f8d5b4,,,,,,,,,,,,,,,,,,,,,,,,,,,,,,,,,,,,,,,,,,,,,,,,,,,,,,,,,,,,,,,,,,,,,,,,,,,,,,,,,,,,,,,,,,,,,,,,,,,,,,,
,,,0,,105,0,105,0,1,5c8bb229b0b5510016a92910,33,Mężczyzna,2022-06-04_08h42.57.296,task,2021.1.4,Win32,60.10337781,628b806c463b948bc644b84f,629afed1692063e219f8d5b4,,,,,,,,,,,,,,,,,,,,,,,,,,,,,,,,,,,,,,,,,,,,,,,,,,,,,,,,,,,,,,,,,,,,,,,,,,,,,,,,,,,,,,,,,,,,,,,,,,,,,,,
,,"[""comma"",""period""]",0,"[0.06659999990466758,1.6569999999999823]",106,0,106,0,1,5c8bb229b0b5510016a92910,33,Mężczyzna,2022-06-04_08h42.57.296,task,2021.1.4,Win32,60.10337781,628b806c463b948bc644b84f,629afed1692063e219f8d5b4,,,,,,,,,,,,,,,,,,,,,,,,,,,,,,,,,,,,,,,,,,,,,,,,,,,,,,,,,,,,,,,,,,,,,,,,,,,,,,,,,,,,,,,,,,,,,,,,,,,,,,,
,,"[""comma""]",0,[1.6739000000953865],107,0,107,0,1,5c8bb229b0b5510016a92910,33,Mężczyzna,2022-06-04_08h42.57.296,task,2021.1.4,Win32,60.10337781,628b806c463b948bc644b84f,629afed1692063e219f8d5b4,,,,,,,,,,,,,,,,,,,,,,,,,,,,,,,,,,,,,,,,,,,,,,,,,,,,,,,,,,,,,,,,,,,,,,,,,,,,,,,,,,,,,,,,,,,,,,,,,,,,,,,
,,"[""period""]",0,[1.5524000000953606],108,0,108,0,1,5c8bb229b0b5510016a92910,33,Mężczyzna,2022-06-04_08h42.57.296,task,2021.1.4,Win32,60.10337781,628b806c463b948bc644b84f,629afed1692063e219f8d5b4,,,,,,,,,,,,,,,,,,,,,,,,,,,,,,,,,,,,,,,,,,,,,,,,,,,,,,,,,,,,,,,,,,,,,,,,,,,,,,,,,,,,,,,,,,,,,,,,,,,,,,,
,,,0,,109,0,109,0,1,5c8bb229b0b5510016a92910,33,Mężczyzna,2022-06-04_08h42.57.296,task,2021.1.4,Win32,60.10337781,628b806c463b948bc644b84f,629afed1692063e219f8d5b4,,,,,,,,,,,,,,,,,,,,,,,,,,,,,,,,,,,,,,,,,,,,,,,,,,,,,,,,,,,,,,,,,,,,,,,,,,,,,,,,,,,,,,,,,,,,,,,,,,,,,,,
,,"[""comma""]",0,[1.2326000001430657],110,0,110,0,1,5c8bb229b0b5510016a92910,33,Mężczyzna,2022-06-04_08h42.57.296,task,2021.1.4,Win32,60.10337781,628b806c463b948bc644b84f,629afed1692063e219f8d5b4,,,,,,,,,,,,,,,,,,,,,,,,,,,,,,,,,,,,,,,,,,,,,,,,,,,,,,,,,,,,,,,,,,,,,,,,,,,,,,,,,,,,,,,,,,,,,,,,,,,,,,,
,,"[""period""]",0,[0.8489999999999895],111,0,111,0,1,5c8bb229b0b5510016a92910,33,Mężczyzna,2022-06-04_08h42.57.296,task,2021.1.4,Win32,60.10337781,628b806c463b948bc644b84f,629afed1692063e219f8d5b4,,,,,,,,,,,,,,,,,,,,,,,,,,,,,,,,,,,,,,,,,,,,,,,,,,,,,,,,,,,,,,,,,,,,,,,,,,,,,,,,,,,,,,,,,,,,,,,,,,,,,,,
,,,0,,112,0,112,0,1,5c8bb229b0b5510016a92910,33,Mężczyzna,2022-06-04_08h42.57.296,task,2021.1.4,Win32,60.10337781,628b806c463b948bc644b84f,629afed1692063e219f8d5b4,,,,,,,,,,,,,,,,,,,,,,,,,,,,,,,,,,,,,,,,,,,,,,,,,,,,,,,,,,,,,,,,,,,,,,,,,,,,,,,,,,,,,,,,,,,,,,,,,,,,,,,
,,,0,,113,0,113,0,1,5c8bb229b0b5510016a92910,33,Mężczyzna,2022-06-04_08h42.57.296,task,2021.1.4,Win32,60.10337781,628b806c463b948bc644b84f,629afed1692063e219f8d5b4,,,,,,,,,,,,,,,,,,,,,,,,,,,,,,,,,,,,,,,,,,,,,,,,,,,,,,,,,,,,,,,,,,,,,,,,,,,,,,,,,,,,,,,,,,,,,,,,,,,,,,,
,,,0,,114,0,114,0,1,5c8bb229b0b5510016a92910,33,Mężczyzna,2022-06-04_08h42.57.296,task,2021.1.4,Win32,60.10337781,628b806c463b948bc644b84f,629afed1692063e219f8d5b4,,,,,,,,,,,,,,,,,,,,,,,,,,,,,,,,,,,,,,,,,,,,,,,,,,,,,,,,,,,,,,,,,,,,,,,,,,,,,,,,,,,,,,,,,,,,,,,,,,,,,,,
,,"[""period""]",0,[1.8882999999523236],115,0,115,0,1,5c8bb229b0b5510016a92910,33,Mężczyzna,2022-06-04_08h42.57.296,task,2021.1.4,Win32,60.10337781,628b806c463b948bc644b84f,629afed1692063e219f8d5b4,,,,,,,,,,,,,,,,,,,,,,,,,,,,,,,,,,,,,,,,,,,,,,,,,,,,,,,,,,,,,,,,,,,,,,,,,,,,,,,,,,,,,,,,,,,,,,,,,,,,,,,
,,"[""comma""]",0,[0.9664999999999964],116,0,116,0,1,5c8bb229b0b5510016a92910,33,Mężczyzna,2022-06-04_08h42.57.296,task,2021.1.4,Win32,60.10337781,628b806c463b948bc644b84f,629afed1692063e219f8d5b4,,,,,,,,,,,,,,,,,,,,,,,,,,,,,,,,,,,,,,,,,,,,,,,,,,,,,,,,,,,,,,,,,,,,,,,,,,,,,,,,,,,,,,,,,,,,,,,,,,,,,,,
,,"[""comma""]",0,[1.0661000001430239],117,0,117,0,1,5c8bb229b0b5510016a92910,33,Mężczyzna,2022-06-04_08h42.57.296,task,2021.1.4,Win32,60.10337781,628b806c463b948bc644b84f,629afed1692063e219f8d5b4,,,,,,,,,,,,,,,,,,,,,,,,,,,,,,,,,,,,,,,,,,,,,,,,,,,,,,,,,,,,,,,,,,,,,,,,,,,,,,,,,,,,,,,,,,,,,,,,,,,,,,,
,,"[""period""]",0,[0.5488999998569284],118,0,118,0,1,5c8bb229b0b5510016a92910,33,Mężczyzna,2022-06-04_08h42.57.296,task,2021.1.4,Win32,60.10337781,628b806c463b948bc644b84f,629afed1692063e219f8d5b4,,,,,,,,,,,,,,,,,,,,,,,,,,,,,,,,,,,,,,,,,,,,,,,,,,,,,,,,,,,,,,,,,,,,,,,,,,,,,,,,,,,,,,,,,,,,,,,,,,,,,,,
,,"[""comma""]",0,[0.2849000000953197],119,0,119,0,1,5c8bb229b0b5510016a92910,33,Mężczyzna,2022-06-04_08h42.57.296,task,2021.1.4,Win32,60.10337781,628b806c463b948bc644b84f,629afed1692063e219f8d5b4,,,,,,,,,,,,,,,,,,,,,,,,,,,,,,,,,,,,,,,,,,,,,,,,,,,,,,,,,,,,,,,,,,,,,,,,,,,,,,,,,,,,,,,,,,,,,,,,,,,,,,,
,,,,,,,,,,5c8bb229b0b5510016a92910,33,Mężczyzna,2022-06-04_08h42.57.296,task,2021.1.4,Win32,60.10337781,628b806c463b948bc644b84f,629afed1692063e219f8d5b4,space,30.0089,space,1.2172,0,0,0,0,1,X V Q F H G B L J M P D K C T S W R N Z,,,,,,,,,,,,,,,,,,,,,,,,,,,,,,,,,,,,,,,,,,,,,,,,,,,,,,,,,,,,,,,,,,,,,,,,,,,,,,,,,,,,,,,,,,,,,
,,,,,,,,,,5c8bb229b0b5510016a92910,33,Mężczyzna,2022-06-04_08h42.57.296,task,2021.1.4,Win32,60.10337781,628b806c463b948bc644b84f,629afed1692063e219f8d5b4,,,,,1,0,1,0,1,X V Q F H G B L J M P D K C T S W R N Z,,,,,,,,,,,,,,,,,,,,,,,,,,,,,,,,,,,,,,,,,,,,,,,,,,,,,,,,,,,,,,,,,,,,,,,,,,,,,,,,,,,,,,,,,,,,,
,,,,,,,,,,5c8bb229b0b5510016a92910,33,Mężczyzna,2022-06-04_08h42.57.296,task,2021.1.4,Win32,60.10337781,628b806c463b948bc644b84f,629afed1692063e219f8d5b4,,,,,,,,,,,zw,"[""z"",""w""]","[2.427799999952299,3.4844999999999686,5.559299999952316]",1,ZW,0,0,0,0,1,,,,,,,,,,,,,,,,,,,,,,,,,,,,,,,,,,,,,,,,,,,,,,,,,,,,,,,,,,,,,,,,,,,,,,,,,,,,,,,,,,,
,,,,,,,,,,5c8bb229b0b5510016a92910,33,Mężczyzna,2022-06-04_08h42.57.296,task,2021.1.4,Win32,60.10337781,628b806c463b948bc644b84f,629afed1692063e219f8d5b4,,,,,0,0,0,0,1,X V Q F H G B L J M P D K C T S W R N Z,,,,,,,,,,,,,,,,,,,,,,,,,,,,,,,,,,,,,,,,,,,,,,,,,,,,,,,,,,,,,,,,,,,,,,,,,,,,,,,,,,,,,,,,,,,,,
,,,,,,,,,,5c8bb229b0b5510016a92910,33,Mężczyzna,2022-06-04_08h42.57.296,task,2021.1.4,Win32,60.10337781,628b806c463b948bc644b84f,629afed1692063e219f8d5b4,,,,,1,0,1,0,1,X V Q F H G B L J M P D K C T S W R N Z,,,,,,,,,,,,,,,,,,,,,,,,,,,,,,,,,,,,,,,,,,,,,,,,,,,,,,,,,,,,,,,,,,,,,,,,,,,,,,,,,,,,,,,,,,,,,
,,,,,,,,,,5c8bb229b0b5510016a92910,33,Mężczyzna,2022-06-04_08h42.57.296,task,2021.1.4,Win32,60.10337781,628b806c463b948bc644b84f,629afed1692063e219f8d5b4,,,,,,,,,,,pn,"[""p"",""n""]","[1.2852000000476664,1.9896000001430707,2.6822000000477146]",1,PN,1,0,1,0,1,,,,,,,,,,,,,,,,,,,,,,,,,,,,,,,,,,,,,,,,,,,,,,,,,,,,,,,,,,,,,,,,,,,,,,,,,,,,,,,,,,,
,,,,,,,,,,5c8bb229b0b5510016a92910,33,Mężczyzna,2022-06-04_08h42.57.296,task,2021.1.4,Win32,60.10337781,628b806c463b948bc644b84f,629afed1692063e219f8d5b4,,,,,0,0,0,0,1,X V Q F H G B L J M P D K C T S W R N Z,,,,,,,,,,,,,,,,,,,,,,,,,,,,,,,,,,,,,,,,,,,,,,,,,,,,,,,,,,,,,,,,,,,,,,,,,,,,,,,,,,,,,,,,,,,,,
,,,,,,,,,,5c8bb229b0b5510016a92910,33,Mężczyzna,2022-06-04_08h42.57.296,task,2021.1.4,Win32,60.10337781,628b806c463b948bc644b84f,629afed1692063e219f8d5b4,,,,,1,0,1,0,1,X V Q F H G B L J M P D K C T S W R N Z,,,,,,,,,,,,,,,,,,,,,,,,,,,,,,,,,,,,,,,,,,,,,,,,,,,,,,,,,,,,,,,,,,,,,,,,,,,,,,,,,,,,,,,,,,,,,
,,,,,,,,,,5c8bb229b0b5510016a92910,33,Mężczyzna,2022-06-04_08h42.57.296,task,2021.1.4,Win32,60.10337781,628b806c463b948bc644b84f,629afed1692063e219f8d5b4,,,,,2,0,2,0,1,X V Q F H G B L J M P D K C T S W R N Z,,,,,,,,,,,,,,,,,,,,,,,,,,,,,,,,,,,,,,,,,,,,,,,,,,,,,,,,,,,,,,,,,,,,,,,,,,,,,,,,,,,,,,,,,,,,,
,,,,,,,,,,5c8bb229b0b5510016a92910,33,Mężczyzna,2022-06-04_08h42.57.296,task,2021.1.4,Win32,60.10337781,628b806c463b948bc644b84f,629afed1692063e219f8d5b4,,,,,,,,,,,dgm,"[""d"",""g"",""m""]","[1.5502000000476528,1.7168000001907444,2.352400000095372,7.047500000000014]",1,DGM,2,0,2,0,1,,,,,,,,,,,,,,,,,,,,,,,,,,,,,,,,,,,,,,,,,,,,,,,,,,,,,,,,,,,,,,,,,,,,,,,,,,,,,,,,,,,
,,,,,,,,,,5c8bb229b0b5510016a92910,33,Mężczyzna,2022-06-04_08h42.57.296,task,2021.1.4,Win32,60.10337781,628b806c463b948bc644b84f,629afed1692063e219f8d5b4,,,,,0,0,0,0,1,X V Q F H G B L J M P D K C T S W R N Z,,,,,,,,,,,,,,,,,,,,,,,,,,,,,,,,,,,,,,,,,,,,,,,,,,,,,,,,,,,,,,,,,,,,,,,,,,,,,,,,,,,,,,,,,,,,,
,,,,,,,,,,5c8bb229b0b5510016a92910,33,Mężczyzna,2022-06-04_08h42.57.296,task,2021.1.4,Win32,60.10337781,628b806c463b948bc644b84f,629afed1692063e219f8d5b4,,,,,1,0,1,0,1,X V Q F H G B L J M P D K C T S W R N Z,,,,,,,,,,,,,,,,,,,,,,,,,,,,,,,,,,,,,,,,,,,,,,,,,,,,,,,,,,,,,,,,,,,,,,,,,,,,,,,,,,,,,,,,,,,,,
,,,,,,,,,,5c8bb229b0b5510016a92910,33,Mężczyzna,2022-06-04_08h42.57.296,task,2021.1.4,Win32,60.10337781,628b806c463b948bc644b84f,629afed1692063e219f8d5b4,,,,,2,0,2,0,1,X V Q F H G B L J M P D K C T S W R N Z,,,,,,,,,,,,,,,,,,,,,,,,,,,,,,,,,,,,,,,,,,,,,,,,,,,,,,,,,,,,,,,,,,,,,,,,,,,,,,,,,,,,,,,,,,,,,
,,,,,,,,,,5c8bb229b0b5510016a92910,33,Mężczyzna,2022-06-04_08h42.57.296,task,2021.1.4,Win32,60.10337781,628b806c463b948bc644b84f,629afed1692063e219f8d5b4,,,,,,,,,,,qxf,"[""q"",""x"",""f""]","[1.3695000000000164,1.849899999856973,2.4180000000000064,3.4526999998092833]",1,QXF,3,0,3,0,1,,,,,,,,,,,,,,,,,,,,,,,,,,,,,,,,,,,,,,,,,,,,,,,,,,,,,,,,,,,,,,,,,,,,,,,,,,,,,,,,,,,
,,,,,,,,,,5c8bb229b0b5510016a92910,33,Mężczyzna,2022-06-04_08h42.57.296,task,2021.1.4,Win32,60.10337781,628b806c463b948bc644b84f,629afed1692063e219f8d5b4,,,,,0,0,0,0,1,X V Q F H G B L J M P D K C T S W R N Z,,,,,,,,,,,,,,,,,,,,,,,,,,,,,,,,,,,,,,,,,,,,,,,,,,,,,,,,,,,,,,,,,,,,,,,,,,,,,,,,,,,,,,,,,,,,,
,,,,,,,,,,5c8bb229b0b5510016a92910,33,Mężczyzna,2022-06-04_08h42.57.296,task,2021.1.4,Win32,60.10337781,628b806c463b948bc644b84f,629afed1692063e219f8d5b4,,,,,1,0,1,0,1,X V Q F H G B L J M P D K C T S W R N Z,,,,,,,,,,,,,,,,,,,,,,,,,,,,,,,,,,,,,,,,,,,,,,,,,,,,,,,,,,,,,,,,,,,,,,,,,,,,,,,,,,,,,,,,,,,,,
,,,,,,,,,,5c8bb229b0b5510016a92910,33,Mężczyzna,2022-06-04_08h42.57.296,task,2021.1.4,Win32,60.10337781,628b806c463b948bc644b84f,629afed1692063e219f8d5b4,,,,,2,0,2,0,1,X V Q F H G B L J M P D K C T S W R N Z,,,,,,,,,,,,,,,,,,,,,,,,,,,,,,,,,,,,,,,,,,,,,,,,,,,,,,,,,,,,,,,,,,,,,,,,,,,,,,,,,,,,,,,,,,,,,
,,,,,,,,,,5c8bb229b0b5510016a92910,33,Mężczyzna,2022-06-04_08h42.57.296,task,2021.1.4,Win32,60.10337781,628b806c463b948bc644b84f,629afed1692063e219f8d5b4,,,,,3,0,3,0,1,X V Q F H G B L J M P D K C T S W R N Z,,,,,,,,,,,,,,,,,,,,,,,,,,,,,,,,,,,,,,,,,,,,,,,,,,,,,,,,,,,,,,,,,,,,,,,,,,,,,,,,,,,,,,,,,,,,,
,,,,,,,,,,5c8bb229b0b5510016a92910,33,Mężczyzna,2022-06-04_08h42.57.296,task,2021.1.4,Win32,60.10337781,628b806c463b948bc644b84f,629afed1692063e219f8d5b4,,,,,,,,,,,nqss,"[""n"",""q"",""s"",""s""]","[1.7672000000476942,2.183099999904641,2.6832999999523395,2.86879999995233,3.1160000000000423]",1,NQSS,4,0,4,0,1,,,,,,,,,,,,,,,,,,,,,,,,,,,,,,,,,,,,,,,,,,,,,,,,,,,,,,,,,,,,,,,,,,,,,,,,,,,,,,,,,,,
,,,,,,,,,,5c8bb229b0b5510016a92910,33,Mężczyzna,2022-06-04_08h42.57.296,task,2021.1.4,Win32,60.10337781,628b806c463b948bc644b84f,629afed1692063e219f8d5b4,,,,,0,0,0,0,1,X V Q F H G B L J M P D K C T S W R N Z,,,,,,,,,,,,,,,,,,,,,,,,,,,,,,,,,,,,,,,,,,,,,,,,,,,,,,,,,,,,,,,,,,,,,,,,,,,,,,,,,,,,,,,,,,,,,
,,,,,,,,,,5c8bb229b0b5510016a92910,33,Mężczyzna,2022-06-04_08h42.57.296,task,2021.1.4,Win32,60.10337781,628b806c463b948bc644b84f,629afed1692063e219f8d5b4,,,,,1,0,1,0,1,X V Q F H G B L J M P D K C T S W R N Z,,,,,,,,,,,,,,,,,,,,,,,,,,,,,,,,,,,,,,,,,,,,,,,,,,,,,,,,,,,,,,,,,,,,,,,,,,,,,,,,,,,,,,,,,,,,,
,,,,,,,,,,5c8bb229b0b5510016a92910,33,Mężczyzna,2022-06-04_08h42.57.296,task,2021.1.4,Win32,60.10337781,628b806c463b948bc644b84f,629afed1692063e219f8d5b4,,,,,2,0,2,0,1,X V Q F H G B L J M P D K C T S W R N Z,,,,,,,,,,,,,,,,,,,,,,,,,,,,,,,,,,,,,,,,,,,,,,,,,,,,,,,,,,,,,,,,,,,,,,,,,,,,,,,,,,,,,,,,,,,,,
,,,,,,,,,,5c8bb229b0b5510016a92910,33,Mężczyzna,2022-06-04_08h42.57.296,task,2021.1.4,Win32,60.10337781,628b806c463b948bc644b84f,629afed1692063e219f8d5b4,,,,,3,0,3,0,1,X V Q F H G B L J M P D K C T S W R N Z,,,,,,,,,,,,,,,,,,,,,,,,,,,,,,,,,,,,,,,,,,,,,,,,,,,,,,,,,,,,,,,,,,,,,,,,,,,,,,,,,,,,,,,,,,,,,
,,,,,,,,,,5c8bb229b0b5510016a92910,33,Mężczyzna,2022-06-04_08h42.57.296,task,2021.1.4,Win32,60.10337781,628b806c463b948bc644b84f,629afed1692063e219f8d5b4,,,,,,,,,,,svbp,"[""s"",""v"",""b"",""p""]","[1.3907000000476728,2.0375999999046144,2.2937999999522845,3.133700000047668,3.549599999904615]",1,SVBP,5,0,5,0,1,,,,,,,,,,,,,,,,,,,,,,,,,,,,,,,,,,,,,,,,,,,,,,,,,,,,,,,,,,,,,,,,,,,,,,,,,,,,,,,,,,,
,,,,,,,,,,5c8bb229b0b5510016a92910,33,Mężczyzna,2022-06-04_08h42.57.296,task,2021.1.4,Win32,60.10337781,628b806c463b948bc644b84f,629afed1692063e219f8d5b4,,,,,0,0,0,0,1,X V Q F H G B L J M P D K C T S W R N Z,,,,,,,,,,,,,,,,,,,,,,,,,,,,,,,,,,,,,,,,,,,,,,,,,,,,,,,,,,,,,,,,,,,,,,,,,,,,,,,,,,,,,,,,,,,,,
,,,,,,,,,,5c8bb229b0b5510016a92910,33,Mężczyzna,2022-06-04_08h42.57.296,task,2021.1.4,Win32,60.10337781,628b806c463b948bc644b84f,629afed1692063e219f8d5b4,,,,,1,0,1,0,1,X V Q F H G B L J M P D K C T S W R N Z,,,,,,,,,,,,,,,,,,,,,,,,,,,,,,,,,,,,,,,,,,,,,,,,,,,,,,,,,,,,,,,,,,,,,,,,,,,,,,,,,,,,,,,,,,,,,
,,,,,,,,,,5c8bb229b0b5510016a92910,33,Mężczyzna,2022-06-04_08h42.57.296,task,2021.1.4,Win32,60.10337781,628b806c463b948bc644b84f,629afed1692063e219f8d5b4,,,,,2,0,2,0,1,X V Q F H G B L J M P D K C T S W R N Z,,,,,,,,,,,,,,,,,,,,,,,,,,,,,,,,,,,,,,,,,,,,,,,,,,,,,,,,,,,,,,,,,,,,,,,,,,,,,,,,,,,,,,,,,,,,,
,,,,,,,,,,5c8bb229b0b5510016a92910,33,Mężczyzna,2022-06-04_08h42.57.296,task,2021.1.4,Win32,60.10337781,628b806c463b948bc644b84f,629afed1692063e219f8d5b4,,,,,3,0,3,0,1,X V Q F H G B L J M P D K C T S W R N Z,,,,,,,,,,,,,,,,,,,,,,,,,,,,,,,,,,,,,,,,,,,,,,,,,,,,,,,,,,,,,,,,,,,,,,,,,,,,,,,,,,,,,,,,,,,,,
,,,,,,,,,,5c8bb229b0b5510016a92910,33,Mężczyzna,2022-06-04_08h42.57.296,task,2021.1.4,Win32,60.10337781,628b806c463b948bc644b84f,629afed1692063e219f8d5b4,,,,,4,0,4,0,1,X V Q F H G B L J M P D K C T S W R N Z,,,,,,,,,,,,,,,,,,,,,,,,,,,,,,,,,,,,,,,,,,,,,,,,,,,,,,,,,,,,,,,,,,,,,,,,,,,,,,,,,,,,,,,,,,,,,
,,,,,,,,,,5c8bb229b0b5510016a92910,33,Mężczyzna,2022-06-04_08h42.57.296,task,2021.1.4,Win32,60.10337781,628b806c463b948bc644b84f,629afed1692063e219f8d5b4,,,,,,,,,,,cnrmc,"[""c"",""n"",""r"",""m"",""c""]","[0.9612999999523026,1.3722000000476555,2.001700000047663,2.4378999998569384,2.9003999998569157,3.350200000047664]",1,CNRMC,6,0,6,0,1,,,,,,,,,,,,,,,,,,,,,,,,,,,,,,,,,,,,,,,,,,,,,,,,,,,,,,,,,,,,,,,,,,,,,,,,,,,,,,,,,,,
,,,,,,,,,,5c8bb229b0b5510016a92910,33,Mężczyzna,2022-06-04_08h42.57.296,task,2021.1.4,Win32,60.10337781,628b806c463b948bc644b84f,629afed1692063e219f8d5b4,,,,,0,0,0,0,1,X V Q F H G B L J M P D K C T S W R N Z,,,,,,,,,,,,,,,,,,,,,,,,,,,,,,,,,,,,,,,,,,,,,,,,,,,,,,,,,,,,,,,,,,,,,,,,,,,,,,,,,,,,,,,,,,,,,
,,,,,,,,,,5c8bb229b0b5510016a92910,33,Mężczyzna,2022-06-04_08h42.57.296,task,2021.1.4,Win32,60.10337781,628b806c463b948bc644b84f,629afed1692063e219f8d5b4,,,,,1,0,1,0,1,X V Q F H G B L J M P D K C T S W R N Z,,,,,,,,,,,,,,,,,,,,,,,,,,,,,,,,,,,,,,,,,,,,,,,,,,,,,,,,,,,,,,,,,,,,,,,,,,,,,,,,,,,,,,,,,,,,,
,,,,,,,,,,5c8bb229b0b5510016a92910,33,Mężczyzna,2022-06-04_08h42.57.296,task,2021.1.4,Win32,60.10337781,628b806c463b948bc644b84f,629afed1692063e219f8d5b4,,,,,2,0,2,0,1,X V Q F H G B L J M P D K C T S W R N Z,,,,,,,,,,,,,,,,,,,,,,,,,,,,,,,,,,,,,,,,,,,,,,,,,,,,,,,,,,,,,,,,,,,,,,,,,,,,,,,,,,,,,,,,,,,,,
,,,,,,,,,,5c8bb229b0b5510016a92910,33,Mężczyzna,2022-06-04_08h42.57.296,task,2021.1.4,Win32,60.10337781,628b806c463b948bc644b84f,629afed1692063e219f8d5b4,,,,,3,0,3,0,1,X V Q F H G B L J M P D K C T S W R N Z,,,,,,,,,,,,,,,,,,,,,,,,,,,,,,,,,,,,,,,,,,,,,,,,,,,,,,,,,,,,,,,,,,,,,,,,,,,,,,,,,,,,,,,,,,,,,
,,,,,,,,,,5c8bb229b0b5510016a92910,33,Mężczyzna,2022-06-04_08h42.57.296,task,2021.1.4,Win32,60.10337781,628b806c463b948bc644b84f,629afed1692063e219f8d5b4,,,,,4,0,4,0,1,X V Q F H G B L J M P D K C T S W R N Z,,,,,,,,,,,,,,,,,,,,,,,,,,,,,,,,,,,,,,,,,,,,,,,,,,,,,,,,,,,,,,,,,,,,,,,,,,,,,,,,,,,,,,,,,,,,,
,,,,,,,,,,5c8bb229b0b5510016a92910,33,Mężczyzna,2022-06-04_08h42.57.296,task,2021.1.4,Win32,60.10337781,628b806c463b948bc644b84f,629afed1692063e219f8d5b4,,,,,,,,,,,vlvrr,"[""v"",""l"",""v"",""r"",""r""]","[1.776700000047697,2.3064000000953797,2.6333000001907294,3.3841000001430643,3.583300000190718,3.989800000190712]",1,VLVRR,7,0,7,0,1,,,,,,,,,,,,,,,,,,,,,,,,,,,,,,,,,,,,,,,,,,,,,,,,,,,,,,,,,,,,,,,,,,,,,,,,,,,,,,,,,,,
,,,,,,,,,,5c8bb229b0b5510016a92910,33,Mężczyzna,2022-06-04_08h42.57.296,task,2021.1.4,Win32,60.10337781,628b806c463b948bc644b84f,629afed1692063e219f8d5b4,,,,,0,0,0,0,1,X V Q F H G B L J M P D K C T S W R N Z,,,,,,,,,,,,,,,,,,,,,,,,,,,,,,,,,,,,,,,,,,,,,,,,,,,,,,,,,,,,,,,,,,,,,,,,,,,,,,,,,,,,,,,,,,,,,
,,,,,,,,,,5c8bb229b0b5510016a92910,33,Mężczyzna,2022-06-04_08h42.57.296,task,2021.1.4,Win32,60.10337781,628b806c463b948bc644b84f,629afed1692063e219f8d5b4,,,,,1,0,1,0,1,X V Q F H G B L J M P D K C T S W R N Z,,,,,,,,,,,,,,,,,,,,,,,,,,,,,,,,,,,,,,,,,,,,,,,,,,,,,,,,,,,,,,,,,,,,,,,,,,,,,,,,,,,,,,,,,,,,,
,,,,,,,,,,5c8bb229b0b5510016a92910,33,Mężczyzna,2022-06-04_08h42.57.296,task,2021.1.4,Win32,60.10337781,628b806c463b948bc644b84f,629afed1692063e219f8d5b4,,,,,2,0,2,0,1,X V Q F H G B L J M P D K C T S W R N Z,,,,,,,,,,,,,,,,,,,,,,,,,,,,,,,,,,,,,,,,,,,,,,,,,,,,,,,,,,,,,,,,,,,,,,,,,,,,,,,,,,,,,,,,,,,,,
,,,,,,,,,,5c8bb229b0b5510016a92910,33,Mężczyzna,2022-06-04_08h42.57.296,task,2021.1.4,Win32,60.10337781,628b806c463b948bc644b84f,629afed1692063e219f8d5b4,,,,,3,0,3,0,1,X V Q F H G B L J M P D K C T S W R N Z,,,,,,,,,,,,,,,,,,,,,,,,,,,,,,,,,,,,,,,,,,,,,,,,,,,,,,,,,,,,,,,,,,,,,,,,,,,,,,,,,,,,,,,,,,,,,
,,,,,,,,,,5c8bb229b0b5510016a92910,33,Mężczyzna,2022-06-04_08h42.57.296,task,2021.1.4,Win32,60.10337781,628b806c463b948bc644b84f,629afed1692063e219f8d5b4,,,,,4,0,4,0,1,X V Q F H G B L J M P D K C T S W R N Z,,,,,,,,,,,,,,,,,,,,,,,,,,,,,,,,,,,,,,,,,,,,,,,,,,,,,,,,,,,,,,,,,,,,,,,,,,,,,,,,,,,,,,,,,,,,,
,,,,,,,,,,5c8bb229b0b5510016a92910,33,Mężczyzna,2022-06-04_08h42.57.296,task,2021.1.4,Win32,60.10337781,628b806c463b948bc644b84f,629afed1692063e219f8d5b4,,,,,5,0,5,0,1,X V Q F H G B L J M P D K C T S W R N Z,,,,,,,,,,,,,,,,,,,,,,,,,,,,,,,,,,,,,,,,,,,,,,,,,,,,,,,,,,,,,,,,,,,,,,,,,,,,,,,,,,,,,,,,,,,,,
,,,,,,,,,,5c8bb229b0b5510016a92910,33,Mężczyzna,2022-06-04_08h42.57.296,task,2021.1.4,Win32,60.10337781,628b806c463b948bc644b84f,629afed1692063e219f8d5b4,,,,,,,,,,,xcqxtd,"[""x"",""c"",""q"",""x"",""t"",""d""]","[1.8006999998092397,2.4507999999522667,3.74989999985695,4.870699999809233,5.485199999809254,5.6539999999999395,6.46539999985697]",0,VCQXTD,8,0,8,0,1,,,,,,,,,,,,,,,,,,,,,,,,,,,,,,,,,,,,,,,,,,,,,,,,,,,,,,,,,,,,,,,,,,,,,,,,,,,,,,,,,,,
,,,,,,,,,,5c8bb229b0b5510016a92910,33,Mężczyzna,2022-06-04_08h42.57.296,task,2021.1.4,Win32,60.10337781,628b806c463b948bc644b84f,629afed1692063e219f8d5b4,,,,,0,0,0,0,1,X V Q F H G B L J M P D K C T S W R N Z,,,,,,,,,,,,,,,,,,,,,,,,,,,,,,,,,,,,,,,,,,,,,,,,,,,,,,,,,,,,,,,,,,,,,,,,,,,,,,,,,,,,,,,,,,,,,
,,,,,,,,,,5c8bb229b0b5510016a92910,33,Mężczyzna,2022-06-04_08h42.57.296,task,2021.1.4,Win32,60.10337781,628b806c463b948bc644b84f,629afed1692063e219f8d5b4,,,,,1,0,1,0,1,X V Q F H G B L J M P D K C T S W R N Z,,,,,,,,,,,,,,,,,,,,,,,,,,,,,,,,,,,,,,,,,,,,,,,,,,,,,,,,,,,,,,,,,,,,,,,,,,,,,,,,,,,,,,,,,,,,,
,,,,,,,,,,5c8bb229b0b5510016a92910,33,Mężczyzna,2022-06-04_08h42.57.296,task,2021.1.4,Win32,60.10337781,628b806c463b948bc644b84f,629afed1692063e219f8d5b4,,,,,2,0,2,0,1,X V Q F H G B L J M P D K C T S W R N Z,,,,,,,,,,,,,,,,,,,,,,,,,,,,,,,,,,,,,,,,,,,,,,,,,,,,,,,,,,,,,,,,,,,,,,,,,,,,,,,,,,,,,,,,,,,,,
,,,,,,,,,,5c8bb229b0b5510016a92910,33,Mężczyzna,2022-06-04_08h42.57.296,task,2021.1.4,Win32,60.10337781,628b806c463b948bc644b84f,629afed1692063e219f8d5b4,,,,,3,0,3,0,1,X V Q F H G B L J M P D K C T S W R N Z,,,,,,,,,,,,,,,,,,,,,,,,,,,,,,,,,,,,,,,,,,,,,,,,,,,,,,,,,,,,,,,,,,,,,,,,,,,,,,,,,,,,,,,,,,,,,
,,,,,,,,,,5c8bb229b0b5510016a92910,33,Mężczyzna,2022-06-04_08h42.57.296,task,2021.1.4,Win32,60.10337781,628b806c463b948bc644b84f,629afed1692063e219f8d5b4,,,,,4,0,4,0,1,X V Q F H G B L J M P D K C T S W R N Z,,,,,,,,,,,,,,,,,,,,,,,,,,,,,,,,,,,,,,,,,,,,,,,,,,,,,,,,,,,,,,,,,,,,,,,,,,,,,,,,,,,,,,,,,,,,,
,,,,,,,,,,5c8bb229b0b5510016a92910,33,Mężczyzna,2022-06-04_08h42.57.296,task,2021.1.4,Win32,60.10337781,628b806c463b948bc644b84f,629afed1692063e219f8d5b4,,,,,5,0,5,0,1,X V Q F H G B L J M P D K C T S W R N Z,,,,,,,,,,,,,,,,,,,,,,,,,,,,,,,,,,,,,,,,,,,,,,,,,,,,,,,,,,,,,,,,,,,,,,,,,,,,,,,,,,,,,,,,,,,,,
,,,,,,,,,,5c8bb229b0b5510016a92910,33,Mężczyzna,2022-06-04_08h42.57.296,task,2021.1.4,Win32,60.10337781,628b806c463b948bc644b84f,629afed1692063e219f8d5b4,,,,,,,,,,,bfxddp,"[""b"",""f"",""x"",""d"",""d"",""p""]","[1.9670000000000982,2.883100000143145,4.150200000047789,4.588200000047777,4.7657000000477865,6.8657000000476955,7.18070000004775]",1,BFXDDP,9,0,9,0,1,,,,,,,,,,,,,,,,,,,,,,,,,,,,,,,,,,,,,,,,,,,,,,,,,,,,,,,,,,,,,,,,,,,,,,,,,,,,,,,,,,,
,,,,,,,,,,5c8bb229b0b5510016a92910,33,Mężczyzna,2022-06-04_08h42.57.296,task,2021.1.4,Win32,60.10337781,628b806c463b948bc644b84f,629afed1692063e219f8d5b4,,,,,0,0,0,0,1,X V Q F H G B L J M P D K C T S W R N Z,,,,,,,,,,,,,,,,,,,,,,,,,,,,,,,,,,,,,,,,,,,,,,,,,,,,,,,,,,,,,,,,,,,,,,,,,,,,,,,,,,,,,,,,,,,,,
,,,,,,,,,,5c8bb229b0b5510016a92910,33,Mężczyzna,2022-06-04_08h42.57.296,task,2021.1.4,Win32,60.10337781,628b806c463b948bc644b84f,629afed1692063e219f8d5b4,,,,,1,0,1,0,1,X V Q F H G B L J M P D K C T S W R N Z,,,,,,,,,,,,,,,,,,,,,,,,,,,,,,,,,,,,,,,,,,,,,,,,,,,,,,,,,,,,,,,,,,,,,,,,,,,,,,,,,,,,,,,,,,,,,
,,,,,,,,,,5c8bb229b0b5510016a92910,33,Mężczyzna,2022-06-04_08h42.57.296,task,2021.1.4,Win32,60.10337781,628b806c463b948bc644b84f,629afed1692063e219f8d5b4,,,,,2,0,2,0,1,X V Q F H G B L J M P D K C T S W R N Z,,,,,,,,,,,,,,,,,,,,,,,,,,,,,,,,,,,,,,,,,,,,,,,,,,,,,,,,,,,,,,,,,,,,,,,,,,,,,,,,,,,,,,,,,,,,,
,,,,,,,,,,5c8bb229b0b5510016a92910,33,Mężczyzna,2022-06-04_08h42.57.296,task,2021.1.4,Win32,60.10337781,628b806c463b948bc644b84f,629afed1692063e219f8d5b4,,,,,3,0,3,0,1,X V Q F H G B L J M P D K C T S W R N Z,,,,,,,,,,,,,,,,,,,,,,,,,,,,,,,,,,,,,,,,,,,,,,,,,,,,,,,,,,,,,,,,,,,,,,,,,,,,,,,,,,,,,,,,,,,,,
,,,,,,,,,,5c8bb229b0b5510016a92910,33,Mężczyzna,2022-06-04_08h42.57.296,task,2021.1.4,Win32,60.10337781,628b806c463b948bc644b84f,629afed1692063e219f8d5b4,,,,,4,0,4,0,1,X V Q F H G B L J M P D K C T S W R N Z,,,,,,,,,,,,,,,,,,,,,,,,,,,,,,,,,,,,,,,,,,,,,,,,,,,,,,,,,,,,,,,,,,,,,,,,,,,,,,,,,,,,,,,,,,,,,
,,,,,,,,,,5c8bb229b0b5510016a92910,33,Mężczyzna,2022-06-04_08h42.57.296,task,2021.1.4,Win32,60.10337781,628b806c463b948bc644b84f,629afed1692063e219f8d5b4,,,,,5,0,5,0,1,X V Q F H G B L J M P D K C T S W R N Z,,,,,,,,,,,,,,,,,,,,,,,,,,,,,,,,,,,,,,,,,,,,,,,,,,,,,,,,,,,,,,,,,,,,,,,,,,,,,,,,,,,,,,,,,,,,,
,,,,,,,,,,5c8bb229b0b5510016a92910,33,Mężczyzna,2022-06-04_08h42.57.296,task,2021.1.4,Win32,60.10337781,628b806c463b948bc644b84f,629afed1692063e219f8d5b4,,,,,,,,,,,jpzsvw,"[""j"",""p"",""z"",""s"",""v"",""w""]","[2.869000000000028,3.4325000000000045,4.0890000000000555,5.115199999809306,6.207699999809279,6.567000000000007,7.034699999809277]",1,JPZSVW,10,0,10,0,1,,,,,,,,,,,,,,,,,,,,,,,,,,,,,,,,,,,,,,,,,,,,,,,,,,,,,,,,,,,,,,,,,,,,,,,,,,,,,,,,,,,
,,,,,,,,,,5c8bb229b0b5510016a92910,33,Mężczyzna,2022-06-04_08h42.57.296,task,2021.1.4,Win32,60.10337781,628b806c463b948bc644b84f,629afed1692063e219f8d5b4,,,,,0,0,0,0,1,X V Q F H G B L J M P D K C T S W R N Z,,,,,,,,,,,,,,,,,,,,,,,,,,,,,,,,,,,,,,,,,,,,,,,,,,,,,,,,,,,,,,,,,,,,,,,,,,,,,,,,,,,,,,,,,,,,,
,,,,,,,,,,5c8bb229b0b5510016a92910,33,Mężczyzna,2022-06-04_08h42.57.296,task,2021.1.4,Win32,60.10337781,628b806c463b948bc644b84f,629afed1692063e219f8d5b4,,,,,1,0,1,0,1,X V Q F H G B L J M P D K C T S W R N Z,,,,,,,,,,,,,,,,,,,,,,,,,,,,,,,,,,,,,,,,,,,,,,,,,,,,,,,,,,,,,,,,,,,,,,,,,,,,,,,,,,,,,,,,,,,,,
,,,,,,,,,,5c8bb229b0b5510016a92910,33,Mężczyzna,2022-06-04_08h42.57.296,task,2021.1.4,Win32,60.10337781,628b806c463b948bc644b84f,629afed1692063e219f8d5b4,,,,,2,0,2,0,1,X V Q F H G B L J M P D K C T S W R N Z,,,,,,,,,,,,,,,,,,,,,,,,,,,,,,,,,,,,,,,,,,,,,,,,,,,,,,,,,,,,,,,,,,,,,,,,,,,,,,,,,,,,,,,,,,,,,
,,,,,,,,,,5c8bb229b0b5510016a92910,33,Mężczyzna,2022-06-04_08h42.57.296,task,2021.1.4,Win32,60.10337781,628b806c463b948bc644b84f,629afed1692063e219f8d5b4,,,,,3,0,3,0,1,X V Q F H G B L J M P D K C T S W R N Z,,,,,,,,,,,,,,,,,,,,,,,,,,,,,,,,,,,,,,,,,,,,,,,,,,,,,,,,,,,,,,,,,,,,,,,,,,,,,,,,,,,,,,,,,,,,,
,,,,,,,,,,5c8bb229b0b5510016a92910,33,Mężczyzna,2022-06-04_08h42.57.296,task,2021.1.4,Win32,60.10337781,628b806c463b948bc644b84f,629afed1692063e219f8d5b4,,,,,4,0,4,0,1,X V Q F H G B L J M P D K C T S W R N Z,,,,,,,,,,,,,,,,,,,,,,,,,,,,,,,,,,,,,,,,,,,,,,,,,,,,,,,,,,,,,,,,,,,,,,,,,,,,,,,,,,,,,,,,,,,,,
,,,,,,,,,,5c8bb229b0b5510016a92910,33,Mężczyzna,2022-06-04_08h42.57.296,task,2021.1.4,Win32,60.10337781,628b806c463b948bc644b84f,629afed1692063e219f8d5b4,,,,,5,0,5,0,1,X V Q F H G B L J M P D K C T S W R N Z,,,,,,,,,,,,,,,,,,,,,,,,,,,,,,,,,,,,,,,,,,,,,,,,,,,,,,,,,,,,,,,,,,,,,,,,,,,,,,,,,,,,,,,,,,,,,
,,,,,,,,,,5c8bb229b0b5510016a92910,33,Mężczyzna,2022-06-04_08h42.57.296,task,2021.1.4,Win32,60.10337781,628b806c463b948bc644b84f,629afed1692063e219f8d5b4,,,,,6,0,6,0,1,X V Q F H G B L J M P D K C T S W R N Z,,,,,,,,,,,,,,,,,,,,,,,,,,,,,,,,,,,,,,,,,,,,,,,,,,,,,,,,,,,,,,,,,,,,,,,,,,,,,,,,,,,,,,,,,,,,,
,,,,,,,,,,5c8bb229b0b5510016a92910,33,Mężczyzna,2022-06-04_08h42.57.296,task,2021.1.4,Win32,60.10337781,628b806c463b948bc644b84f,629afed1692063e219f8d5b4,,,,,,,,,,,vmtsvzg,"[""v"",""m"",""t"",""s"",""v"",""z"",""g""]","[1.4724000000953765,1.7167000000476946,3.0172999999523427,4.2492999999523136,5.333700000047656,5.822000000000003,6.316000000000031,8.313599999904682]",0,VMTSHZG,11,0,11,0,1,,,,,,,,,,,,,,,,,,,,,,,,,,,,,,,,,,,,,,,,,,,,,,,,,,,,,,,,,,,,,,,,,,,,,,,,,,,,,,,,,,,
,,,,,,,,,,5c8bb229b0b5510016a92910,33,Mężczyzna,2022-06-04_08h42.57.296,task,2021.1.4,Win32,60.10337781,628b806c463b948bc644b84f,629afed1692063e219f8d5b4,,,,,0,0,0,0,1,X V Q F H G B L J M P D K C T S W R N Z,,,,,,,,,,,,,,,,,,,,,,,,,,,,,,,,,,,,,,,,,,,,,,,,,,,,,,,,,,,,,,,,,,,,,,,,,,,,,,,,,,,,,,,,,,,,,
,,,,,,,,,,5c8bb229b0b5510016a92910,33,Mężczyzna,2022-06-04_08h42.57.296,task,2021.1.4,Win32,60.10337781,628b806c463b948bc644b84f,629afed1692063e219f8d5b4,,,,,1,0,1,0,1,X V Q F H G B L J M P D K C T S W R N Z,,,,,,,,,,,,,,,,,,,,,,,,,,,,,,,,,,,,,,,,,,,,,,,,,,,,,,,,,,,,,,,,,,,,,,,,,,,,,,,,,,,,,,,,,,,,,
,,,,,,,,,,5c8bb229b0b5510016a92910,33,Mężczyzna,2022-06-04_08h42.57.296,task,2021.1.4,Win32,60.10337781,628b806c463b948bc644b84f,629afed1692063e219f8d5b4,,,,,2,0,2,0,1,X V Q F H G B L J M P D K C T S W R N Z,,,,,,,,,,,,,,,,,,,,,,,,,,,,,,,,,,,,,,,,,,,,,,,,,,,,,,,,,,,,,,,,,,,,,,,,,,,,,,,,,,,,,,,,,,,,,
,,,,,,,,,,5c8bb229b0b5510016a92910,33,Mężczyzna,2022-06-04_08h42.57.296,task,2021.1.4,Win32,60.10337781,628b806c463b948bc644b84f,629afed1692063e219f8d5b4,,,,,3,0,3,0,1,X V Q F H G B L J M P D K C T S W R N Z,,,,,,,,,,,,,,,,,,,,,,,,,,,,,,,,,,,,,,,,,,,,,,,,,,,,,,,,,,,,,,,,,,,,,,,,,,,,,,,,,,,,,,,,,,,,,
,,,,,,,,,,5c8bb229b0b5510016a92910,33,Mężczyzna,2022-06-04_08h42.57.296,task,2021.1.4,Win32,60.10337781,628b806c463b948bc644b84f,629afed1692063e219f8d5b4,,,,,4,0,4,0,1,X V Q F H G B L J M P D K C T S W R N Z,,,,,,,,,,,,,,,,,,,,,,,,,,,,,,,,,,,,,,,,,,,,,,,,,,,,,,,,,,,,,,,,,,,,,,,,,,,,,,,,,,,,,,,,,,,,,
,,,,,,,,,,5c8bb229b0b5510016a92910,33,Mężczyzna,2022-06-04_08h42.57.296,task,2021.1.4,Win32,60.10337781,628b806c463b948bc644b84f,629afed1692063e219f8d5b4,,,,,5,0,5,0,1,X V Q F H G B L J M P D K C T S W R N Z,,,,,,,,,,,,,,,,,,,,,,,,,,,,,,,,,,,,,,,,,,,,,,,,,,,,,,,,,,,,,,,,,,,,,,,,,,,,,,,,,,,,,,,,,,,,,
,,,,,,,,,,5c8bb229b0b5510016a92910,33,Mężczyzna,2022-06-04_08h42.57.296,task,2021.1.4,Win32,60.10337781,628b806c463b948bc644b84f,629afed1692063e219f8d5b4,,,,,6,0,6,0,1,X V Q F H G B L J M P D K C T S W R N Z,,,,,,,,,,,,,,,,,,,,,,,,,,,,,,,,,,,,,,,,,,,,,,,,,,,,,,,,,,,,,,,,,,,,,,,,,,,,,,,,,,,,,,,,,,,,,
,,,,,,,,,,5c8bb229b0b5510016a92910,33,Mężczyzna,2022-06-04_08h42.57.296,task,2021.1.4,Win32,60.10337781,628b806c463b948bc644b84f,629afed1692063e219f8d5b4,,,,,,,,,,,cjfsjzn,"[""c"",""j"",""f"",""s"",""j"",""z"",""n""]","[1.2835000000000036,1.6183999998569334,2.034399999856987,5.539500000000089,6.515799999952378,7.416000000000054,7.770799999952374,8.412799999952313]",0,CJSFCNF,12,0,12,0,1,,,,,,,,,,,,,,,,,,,,,,,,,,,,,,,,,,,,,,,,,,,,,,,,,,,,,,,,,,,,,,,,,,,,,,,,,,,,,,,,,,,
,,,,,,,,,,5c8bb229b0b5510016a92910,33,Mężczyzna,2022-06-04_08h42.57.296,task,2021.1.4,Win32,60.10337781,628b806c463b948bc644b84f,629afed1692063e219f8d5b4,,,,,0,0,0,0,1,X V Q F H G B L J M P D K C T S W R N Z,,,,,,,,,,,,,,,,,,,,,,,,,,,,,,,,,,,,,,,,,,,,,,,,,,,,,,,,,,,,,,,,,,,,,,,,,,,,,,,,,,,,,,,,,,,,,
,,,,,,,,,,5c8bb229b0b5510016a92910,33,Mężczyzna,2022-06-04_08h42.57.296,task,2021.1.4,Win32,60.10337781,628b806c463b948bc644b84f,629afed1692063e219f8d5b4,,,,,1,0,1,0,1,X V Q F H G B L J M P D K C T S W R N Z,,,,,,,,,,,,,,,,,,,,,,,,,,,,,,,,,,,,,,,,,,,,,,,,,,,,,,,,,,,,,,,,,,,,,,,,,,,,,,,,,,,,,,,,,,,,,
,,,,,,,,,,5c8bb229b0b5510016a92910,33,Mężczyzna,2022-06-04_08h42.57.296,task,2021.1.4,Win32,60.10337781,628b806c463b948bc644b84f,629afed1692063e219f8d5b4,,,,,2,0,2,0,1,X V Q F H G B L J M P D K C T S W R N Z,,,,,,,,,,,,,,,,,,,,,,,,,,,,,,,,,,,,,,,,,,,,,,,,,,,,,,,,,,,,,,,,,,,,,,,,,,,,,,,,,,,,,,,,,,,,,
,,,,,,,,,,5c8bb229b0b5510016a92910,33,Mężczyzna,2022-06-04_08h42.57.296,task,2021.1.4,Win32,60.10337781,628b806c463b948bc644b84f,629afed1692063e219f8d5b4,,,,,3,0,3,0,1,X V Q F H G B L J M P D K C T S W R N Z,,,,,,,,,,,,,,,,,,,,,,,,,,,,,,,,,,,,,,,,,,,,,,,,,,,,,,,,,,,,,,,,,,,,,,,,,,,,,,,,,,,,,,,,,,,,,
,,,,,,,,,,5c8bb229b0b5510016a92910,33,Mężczyzna,2022-06-04_08h42.57.296,task,2021.1.4,Win32,60.10337781,628b806c463b948bc644b84f,629afed1692063e219f8d5b4,,,,,4,0,4,0,1,X V Q F H G B L J M P D K C T S W R N Z,,,,,,,,,,,,,,,,,,,,,,,,,,,,,,,,,,,,,,,,,,,,,,,,,,,,,,,,,,,,,,,,,,,,,,,,,,,,,,,,,,,,,,,,,,,,,
,,,,,,,,,,5c8bb229b0b5510016a92910,33,Mężczyzna,2022-06-04_08h42.57.296,task,2021.1.4,Win32,60.10337781,628b806c463b948bc644b84f,629afed1692063e219f8d5b4,,,,,5,0,5,0,1,X V Q F H G B L J M P D K C T S W R N Z,,,,,,,,,,,,,,,,,,,,,,,,,,,,,,,,,,,,,,,,,,,,,,,,,,,,,,,,,,,,,,,,,,,,,,,,,,,,,,,,,,,,,,,,,,,,,
,,,,,,,,,,5c8bb229b0b5510016a92910,33,Mężczyzna,2022-06-04_08h42.57.296,task,2021.1.4,Win32,60.10337781,628b806c463b948bc644b84f,629afed1692063e219f8d5b4,,,,,6,0,6,0,1,X V Q F H G B L J M P D K C T S W R N Z,,,,,,,,,,,,,,,,,,,,,,,,,,,,,,,,,,,,,,,,,,,,,,,,,,,,,,,,,,,,,,,,,,,,,,,,,,,,,,,,,,,,,,,,,,,,,
,,,,,,,,,,5c8bb229b0b5510016a92910,33,Mężczyzna,2022-06-04_08h42.57.296,task,2021.1.4,Win32,60.10337781,628b806c463b948bc644b84f,629afed1692063e219f8d5b4,,,,,,,,,,,vjlcvjq,"[""v"",""j"",""l"",""c"",""v"",""j"",""q""]","[1.95929999995235,2.6831000001430994,3.384700000047701,4.373600000143142,4.949100000143062,5.715400000095428,6.5319000000954475,7.071100000143133]",0,HJLCVFQ,13,0,13,0,1,,,,,,,,,,,,,,,,,,,,,,,,,,,,,,,,,,,,,,,,,,,,,,,,,,,,,,,,,,,,,,,,,,,,,,,,,,,,,,,,,,,
,,,,,,,,,,5c8bb229b0b5510016a92910,33,Mężczyzna,2022-06-04_08h42.57.296,task,2021.1.4,Win32,60.10337781,628b806c463b948bc644b84f,629afed1692063e219f8d5b4,,,,,,,,,,,,,,,,,,,,,space,51.9581,4,"[""4""]",1,[9.678099999904703],[9.678099999904703],0,0,0,4,1,Practice,5,(2x6) - 8,4,,,,,,,,,,,,,,,,,,,,,,,,,,,,,,,,,,,,,,,,,,,,,,,,,,,,,,,,,,,,,,,,,,,
,,,,,,,,,,5c8bb229b0b5510016a92910,33,Mężczyzna,2022-06-04_08h42.57.296,task,2021.1.4,Win32,60.10337781,628b806c463b948bc644b84f,629afed1692063e219f8d5b4,,,,,,,,,,,,,,,,,,,,,,,1,"[""1""]",1,[5.210700000047723],"[9.678099999904703,5.210700000047723]",0,1,1,1,1,Practice,2,(4x4) - 15,1,,,,,,,,,,,,,,,,,,,,,,,,,,,,,,,,,,,,,,,,,,,,,,,,,,,,,,,,,,,,,,,,,,,
,,,,,,,,,,5c8bb229b0b5510016a92910,33,Mężczyzna,2022-06-04_08h42.57.296,task,2021.1.4,Win32,60.10337781,628b806c463b948bc644b84f,629afed1692063e219f8d5b4,,,,,,,,,,,,,,,,,,,,,,,9,"[""9""]",1,[3.6686000001429875],"[9.678099999904703,5.210700000047723,3.6686000001429875]",0,2,2,9,1,Practice,10,(20/2) - 1,9,,,,,,,,,,,,,,,,,,,,,,,,,,,,,,,,,,,,,,,,,,,,,,,,,,,,,,,,,,,,,,,,,,,
,,,,,,,,,,5c8bb229b0b5510016a92910,33,Mężczyzna,2022-06-04_08h42.57.296,task,2021.1.4,Win32,60.10337781,628b806c463b948bc644b84f,629afed1692063e219f8d5b4,,,,,,,,,,,,,,,,,,,,,,,0,"[""0""]",1,[2.5172000000476373],"[9.678099999904703,5.210700000047723,3.6686000001429875,2.5172000000476373]",0,3,3,0,1,Practice,1,(3x3) -  9,0,,,,,,,,,,,,,,,,,,,,,,,,,,,,,,,,,,,,,,,,,,,,,,,,,,,,,,,,,,,,,,,,,,,
,,,,,,,,,,5c8bb229b0b5510016a92910,33,Mężczyzna,2022-06-04_08h42.57.296,task,2021.1.4,Win32,60.10337781,628b806c463b948bc644b84f,629afed1692063e219f8d5b4,,,,,,,,,,,,,,,,,,,,,,,5,"[""5""]",1,[3.4277000000477074],"[9.678099999904703,5.210700000047723,3.6686000001429875,2.5172000000476373,3.4277000000477074]",0,4,4,5,1,Practice,6,(4/2) + 3,5,,,,,,,,,,,,,,,,,,,,,,,,,,,,,,,,,,,,,,,,,,,,,,,,,,,,,,,,,,,,,,,,,,,
,,,,,,,,,,5c8bb229b0b5510016a92910,33,Mężczyzna,2022-06-04_08h42.57.296,task,2021.1.4,Win32,60.10337781,628b806c463b948bc644b84f,629afed1692063e219f8d5b4,,,,,,,,,,,,,,,,,,,,,,,7,"[""7""]",1,[4.125099999904592],"[9.678099999904703,5.210700000047723,3.6686000001429875,2.5172000000476373,3.4277000000477074,4.125099999904592]",0,5,5,7,1,Practice,8,(5x5) - 18,7,,,,,,,,,,,,,,,,,,,,,,,,,,,,,,,,,,,,,,,,,,,,,,,,,,,,,,,,,,,,,,,,,,,
,,,,,,,,,,5c8bb229b0b5510016a92910,33,Mężczyzna,2022-06-04_08h42.57.296,task,2021.1.4,Win32,60.10337781,628b806c463b948bc644b84f,629afed1692063e219f8d5b4,,,,,,,,,,,,,,,,,,,,,,,8,"[""8""]",1,[2.087299999952279],"[9.678099999904703,5.210700000047723,3.6686000001429875,2.5172000000476373,3.4277000000477074,4.125099999904592,2.087299999952279]",0,6,6,8,1,Practice,9,(3x3) - 1,8,,,,,,,,,,,,,,,,,,,,,,,,,,,,,,,,,,,,,,,,,,,,,,,,,,,,,,,,,,,,,,,,,,,
,,,,,,,,,,5c8bb229b0b5510016a92910,33,Mężczyzna,2022-06-04_08h42.57.296,task,2021.1.4,Win32,60.10337781,628b806c463b948bc644b84f,629afed1692063e219f8d5b4,,,,,,,,,,,,,,,,,,,,,,,2,"[""2""]",1,[2.0137999999523117],"[9.678099999904703,5.210700000047723,3.6686000001429875,2.5172000000476373,3.4277000000477074,4.125099999904592,2.087299999952279,2.0137999999523117]",0,7,7,2,1,Practice,3,(4x4) - 14,2,,,,,,,,,,,,,,,,,,,,,,,,,,,,,,,,,,,,,,,,,,,,,,,,,,,,,,,,,,,,,,,,,,,
,,,,,,,,,,5c8bb229b0b5510016a92910,33,Mężczyzna,2022-06-04_08h42.57.296,task,2021.1.4,Win32,60.10337781,628b806c463b948bc644b84f,629afed1692063e219f8d5b4,,,,,,,,,,,,,,,,,,,,,,,3,"[""3""]",1,[2.7847000000476783],"[9.678099999904703,5.210700000047723,3.6686000001429875,2.5172000000476373,3.4277000000477074,4.125099999904592,2.087299999952279,2.0137999999523117,2.7847000000476783]",0,8,8,3,1,Practice,4,(8/4) + 1,3,,,,,,,,,,,,,,,,,,,,,,,,,,,,,,,,,,,,,,,,,,,,,,,,,,,,,,,,,,,,,,,,,,,
,,,,,,,,,,5c8bb229b0b5510016a92910,33,Mężczyzna,2022-06-04_08h42.57.296,task,2021.1.4,Win32,60.10337781,628b806c463b948bc644b84f,629afed1692063e219f8d5b4,,,,,,,,,,,,,,,,,,,,,,,6,"[""6""]",1,[2.36259999990466],"[9.678099999904703,5.210700000047723,3.6686000001429875,2.5172000000476373,3.4277000000477074,4.125099999904592,2.087299999952279,2.0137999999523117,2.7847000000476783,2.36259999990466]",0,9,9,6,1,Practice,7,(25/5) + 1,6,,,,,,,,,,,,,,,,,,,,,,,,,,,,,,,,,,,,,,,,,,,,,,,,,,,,,,,,,,,,,,,,,,,
,,,,,,,,,,5c8bb229b0b5510016a92910,33,Mężczyzna,2022-06-04_08h42.57.296,task,2021.1.4,Win32,60.10337781,628b806c463b948bc644b84f,629afed1692063e219f8d5b4,,,,,,,,,,,,,,,,,,,,,,,,,,,,,,,,,,,,,1,37.8758,2.525053333,63.60827106,2.059259917,7.837943918,space,2.2078,0,0,0,0,1,,,,,,,,,,,,,,,,,,,,,,,,,,,,,,,,,,,,,,,,,,,,,,,,,,,,,,
,,,,,,,,,,5c8bb229b0b5510016a92910,33,Mężczyzna,2022-06-04_08h42.57.296,task,2021.1.4,Win32,60.10337781,628b806c463b948bc644b84f,629afed1692063e219f8d5b4,,,,,,,,,,,,,,,,,,,,,,,1,,,,,,,,,,Practice,2,(4x4) - 15,1,,,,,,,,,,,,,,space,20.7107,"[""1""]",1,[2.703999999999951],1,0,0,0,1,1,,,,,,,,,,,,,,,,,,,,,,,,,,,,,,,,,,,,,,,,,,,
,,,,,,,,,,5c8bb229b0b5510016a92910,33,Mężczyzna,2022-06-04_08h42.57.296,task,2021.1.4,Win32,60.10337781,628b806c463b948bc644b84f,629afed1692063e219f8d5b4,,,,,,,,,,X V Q F H G B L J M P D K C T S W R N Z,,,,,,,,,,,,,,,,,,,,,,,,,,,,,,,,,,,,,,,,,,,,,,,,,,,0,0,0,0,1,,,,,,,,,,,,,,,,,,,,,,,,,,,,,,,,,,,,,,
,,,,,,,,,,5c8bb229b0b5510016a92910,33,Mężczyzna,2022-06-04_08h42.57.296,task,2021.1.4,Win32,60.10337781,628b806c463b948bc644b84f,629afed1692063e219f8d5b4,,,,,,,,,,,,,,,,,,,,,,,6,,,,,,,,,,Practice,7,(25/5) + 1,6,,,,,,,,,,,,,,,,"[""6""]",1,[3.4990000000000236],1,0,0,0,6,1,,,,,,,,,,,,,,,,,,,,,,,,,,,,,,,,,,,,,,,,,,,
,,,,,,,,,,5c8bb229b0b5510016a92910,33,Mężczyzna,2022-06-04_08h42.57.296,task,2021.1.4,Win32,60.10337781,628b806c463b948bc644b84f,629afed1692063e219f8d5b4,,,,,,,,,,X V Q F H G B L J M P D K C T S W R N Z,,,,,,,,,,,,,,,,,,,,,,,,,,,,,,,,,,,,,,,,,,,,,,,,,,,1,0,1,0,1,,,,,,,,,,,,,,,,,,,,,,,,,,,,,,,,,,,,,,
,,,,,,,,,,5c8bb229b0b5510016a92910,33,Mężczyzna,2022-06-04_08h42.57.296,task,2021.1.4,Win32,60.10337781,628b806c463b948bc644b84f,629afed1692063e219f8d5b4,,,,,,,,,,,,,,,,,,,,,,,,,,,,,,,,,,,,,,,,,,,,,,,,,,,,,,,,,,,,,,,,,,zw,"[""z"",""w""]",0,"[2.6605999999046617,3.893799999952421,4.167900000095415]",1,0,0,0,0,1,,,,,,,,,,,,,,,,,,,,,,,,,,,,
,,,,,,,,,,5c8bb229b0b5510016a92910,33,Mężczyzna,2022-06-04_08h42.57.296,task,2021.1.4,Win32,60.10337781,628b806c463b948bc644b84f,629afed1692063e219f8d5b4,,,,,,,,,,,,,,,,,,,,,,,0,,,,,,,,,,Practice,1,(3x3) -  9,0,,,,,,,,,,,,,,,,"[""0""]",1,[2.1289000000953138],1,0,0,0,0,1,,,,,,,,,,,,,,,,,,,,,,,,,,,,,,,,,,,,,,,,,,,
,,,,,,,,,,5c8bb229b0b5510016a92910,33,Mężczyzna,2022-06-04_08h42.57.296,task,2021.1.4,Win32,60.10337781,628b806c463b948bc644b84f,629afed1692063e219f8d5b4,,,,,,,,,,X V Q F H G B L J M P D K C T S W R N Z,,,,,,,,,,,,,,,,,,,,,,,,,,,,,,,,,,,,,,,,,,,,,,,,,,,0,0,0,0,1,,,,,,,,,,,,,,,,,,,,,,,,,,,,,,,,,,,,,,
,,,,,,,,,,5c8bb229b0b5510016a92910,33,Mężczyzna,2022-06-04_08h42.57.296,task,2021.1.4,Win32,60.10337781,628b806c463b948bc644b84f,629afed1692063e219f8d5b4,,,,,,,,,,,,,,,,,,,,,,,3,,,,,,,,,,Practice,4,(8/4) + 1,3,,,,,,,,,,,,,,,,"[""3""]",1,[2.919499999999971],1,0,0,0,3,1,,,,,,,,,,,,,,,,,,,,,,,,,,,,,,,,,,,,,,,,,,,
,,,,,,,,,,5c8bb229b0b5510016a92910,33,Mężczyzna,2022-06-04_08h42.57.296,task,2021.1.4,Win32,60.10337781,628b806c463b948bc644b84f,629afed1692063e219f8d5b4,,,,,,,,,,X V Q F H G B L J M P D K C T S W R N Z,,,,,,,,,,,,,,,,,,,,,,,,,,,,,,,,,,,,,,,,,,,,,,,,,,,1,0,1,0,1,,,,,,,,,,,,,,,,,,,,,,,,,,,,,,,,,,,,,,
,,,,,,,,,,5c8bb229b0b5510016a92910,33,Mężczyzna,2022-06-04_08h42.57.296,task,2021.1.4,Win32,60.10337781,628b806c463b948bc644b84f,629afed1692063e219f8d5b4,,,,,,,,,,,,,,,,,,,,,,,,,,,,,,,,,,,,,,,,,,,,,,,,,,,,,,,,,,,,,,,,,,ms,"[""m"",""s""]",0,"[1.4162999999523436,3.431799999952318,4.1804000000953465]",1,1,0,1,0,1,,,,,,,,,,,,,,,,,,,,,,,,,,,,
,,,,,,,,,,5c8bb229b0b5510016a92910,33,Mężczyzna,2022-06-04_08h42.57.296,task,2021.1.4,Win32,60.10337781,628b806c463b948bc644b84f,629afed1692063e219f8d5b4,,,,,,,,,,,,,,,,,,,,,,,9,,,,,,,,,,Practice,10,(20/2) - 1,9,,,,,,,,,,,,,,,,"[""9""]",1,[2.433399999856988],1,0,0,0,9,1,,,,,,,,,,,,,,,,,,,,,,,,,,,,,,,,,,,,,,,,,,,
,,,,,,,,,,5c8bb229b0b5510016a92910,33,Mężczyzna,2022-06-04_08h42.57.296,task,2021.1.4,Win32,60.10337781,628b806c463b948bc644b84f,629afed1692063e219f8d5b4,,,,,,,,,,X V Q F H G B L J M P D K C T S W R N Z,,,,,,,,,,,,,,,,,,,,,,,,,,,,,,,,,,,,,,,,,,,,,,,,,,,0,0,0,0,1,,,,,,,,,,,,,,,,,,,,,,,,,,,,,,,,,,,,,,
,,,,,,,,,,5c8bb229b0b5510016a92910,33,Mężczyzna,2022-06-04_08h42.57.296,task,2021.1.4,Win32,60.10337781,628b806c463b948bc644b84f,629afed1692063e219f8d5b4,,,,,,,,,,,,,,,,,,,,,,,9,,,,,,,,,,Practice,10,(20/2) - 1,9,,,,,,,,,,,,,,,,"[""9""]",1,[3.4494999999999436],1,0,0,0,9,1,,,,,,,,,,,,,,,,,,,,,,,,,,,,,,,,,,,,,,,,,,,
,,,,,,,,,,5c8bb229b0b5510016a92910,33,Mężczyzna,2022-06-04_08h42.57.296,task,2021.1.4,Win32,60.10337781,628b806c463b948bc644b84f,629afed1692063e219f8d5b4,,,,,,,,,,X V Q F H G B L J M P D K C T S W R N Z,,,,,,,,,,,,,,,,,,,,,,,,,,,,,,,,,,,,,,,,,,,,,,,,,,,1,0,1,0,1,,,,,,,,,,,,,,,,,,,,,,,,,,,,,,,,,,,,,,
,,,,,,,,,,5c8bb229b0b5510016a92910,33,Mężczyzna,2022-06-04_08h42.57.296,task,2021.1.4,Win32,60.10337781,628b806c463b948bc644b84f,629afed1692063e219f8d5b4,,,,,,,,,,,,,,,,,,,,,,,,,,,,,,,,,,,,,,,,,,,,,,,,,,,,,,,,,,,,,,,,,,xh,"[""x"",""h""]",0,"[2.116999999999962,2.4406000001430357,3.0335000000000036]",1,2,0,2,0,1,,,,,,,,,,,,,,,,,,,,,,,,,,,,
,,,,,,,,,,5c8bb229b0b5510016a92910,33,Mężczyzna,2022-06-04_08h42.57.296,task,2021.1.4,Win32,60.10337781,628b806c463b948bc644b84f,629afed1692063e219f8d5b4,,,,,,,,,,,,,,,,,,,,,,,5,,,,,,,,,,Task,36,(8/4) + 3,5,,,,,,,,,,,,,,,,,,,1,,,,,,,,,,,,,,,,,,,,,space,12.0305,"[""5""]",1,[3.5568999998569097],0,0,0,35,1,,,,,,,,,,,,,,,,,,
,,,,,,,,,,5c8bb229b0b5510016a92910,33,Mężczyzna,2022-06-04_08h42.57.296,task,2021.1.4,Win32,60.10337781,628b806c463b948bc644b84f,629afed1692063e219f8d5b4,,,,,,,,,,X V Q F H G B L J M P D K C T S W R N Z,,,,,,,,,,,,,,,,,,,,,,,,,,,,,,,,,,,,,,,,,,,,,,,,,,,,,,,,,,,,,,,,,,,,,,,,,,,,0,0,0,0,1,,,,,,,,,,,,,
,,,,,,,,,,5c8bb229b0b5510016a92910,33,Mężczyzna,2022-06-04_08h42.57.296,task,2021.1.4,Win32,60.10337781,628b806c463b948bc644b84f,629afed1692063e219f8d5b4,,,,,,,,,,,,,,,,,,,,,,,,,,,,,,,,,Task,23,(2x3) + 2,8,,,,,,,,,,,,,,,,,,,0,,,,,,,,,,,,,,,,,,,,,,,,0,,0,0,0,22,1,,,,,,,,,,,,,,,,,,
,,,,,,,,,,5c8bb229b0b5510016a92910,33,Mężczyzna,2022-06-04_08h42.57.296,task,2021.1.4,Win32,60.10337781,628b806c463b948bc644b84f,629afed1692063e219f8d5b4,,,,,,,,,,,,,,,,,,,,,,,0,,,,,,,,,,Task,17,(2x3) - 6,0,,,,,,,,,,,,,,,,,,,1,,,,,,,,,,,,,,,,,,,,,,,"[""0""]",1,[6.537399999856916],0,1,1,16,1,,,,,,,,,,,,,,,,,,
,,,,,,,,,,5c8bb229b0b5510016a92910,33,Mężczyzna,2022-06-04_08h42.57.296,task,2021.1.4,Win32,60.10337781,628b806c463b948bc644b84f,629afed1692063e219f8d5b4,,,,,,,,,,X V Q F H G B L J M P D K C T S W R N Z,,,,,,,,,,,,,,,,,,,,,,,,,,,,,,,,,,,,,,,,,,,,,,,,,,,,,,,,,,,,,,,,,,,,,,,,,,,,1,0,1,0,1,,,,,,,,,,,,,
,,,,,,,,,,5c8bb229b0b5510016a92910,33,Mężczyzna,2022-06-04_08h42.57.296,task,2021.1.4,Win32,60.10337781,628b806c463b948bc644b84f,629afed1692063e219f8d5b4,,,,,,,,,,,,,,,,,,,,,,,,,,,,,,,,,,,,,,,,,,,,,,,,,,,,,,,,,,,,,,,,,,,,,,,,,,,,,,,,,,,,,,,,,,,zg,"[""z"",""g""]",0,"[1.0485999999045816,2.2985999999045816,4.053799999952275]",1,ZG,0,0,0,0,1,,
,,,,,,,,,,5c8bb229b0b5510016a92910,33,Mężczyzna,2022-06-04_08h42.57.296,task,2021.1.4,Win32,60.10337781,628b806c463b948bc644b84f,629afed1692063e219f8d5b4,,,,,,,,,,,,,,,,,,,,,,,6,,,,,,,,,,Task,13,(3x4) - 6,6,,,,,,,,,,,,,,,,,,,1,,,,,,,,,,,,,,,,,,,,,,,"[""6""]",1,[4.7859999999999445],0,0,0,12,1,,,,,,,,,,,,,,,,,,
,,,,,,,,,,5c8bb229b0b5510016a92910,33,Mężczyzna,2022-06-04_08h42.57.296,task,2021.1.4,Win32,60.10337781,628b806c463b948bc644b84f,629afed1692063e219f8d5b4,,,,,,,,,,X V Q F H G B L J M P D K C T S W R N Z,,,,,,,,,,,,,,,,,,,,,,,,,,,,,,,,,,,,,,,,,,,,,,,,,,,,,,,,,,,,,,,,,,,,,,,,,,,,0,0,0,0,1,,,,,,,,,,,,,
,,,,,,,,,,5c8bb229b0b5510016a92910,33,Mężczyzna,2022-06-04_08h42.57.296,task,2021.1.4,Win32,60.10337781,628b806c463b948bc644b84f,629afed1692063e219f8d5b4,,,,,,,,,,,,,,,,,,,,,,,6,,,,,,,,,,Task,5,(2x3) + 0,6,,,,,,,,,,,,,,,,,,,1,,,,,,,,,,,,,,,,,,,,,,,"[""6""]",1,[4.351599999904693],0,0,0,4,1,,,,,,,,,,,,,,,,,,
,,,,,,,,,,5c8bb229b0b5510016a92910,33,Mężczyzna,2022-06-04_08h42.57.296,task,2021.1.4,Win32,60.10337781,628b806c463b948bc644b84f,629afed1692063e219f8d5b4,,,,,,,,,,X V Q F H G B L J M P D K C T S W R N Z,,,,,,,,,,,,,,,,,,,,,,,,,,,,,,,,,,,,,,,,,,,,,,,,,,,,,,,,,,,,,,,,,,,,,,,,,,,,1,0,1,0,1,,,,,,,,,,,,,
,,,,,,,,,,5c8bb229b0b5510016a92910,33,Mężczyzna,2022-06-04_08h42.57.296,task,2021.1.4,Win32,60.10337781,628b806c463b948bc644b84f,629afed1692063e219f8d5b4,,,,,,,,,,,,,,,,,,,,,,,1,,,,,,,,,,Task,18,(16/4) - 3,1,,,,,,,,,,,,,,,,,,,1,,,,,,,,,,,,,,,,,,,,,,,"[""1""]",1,[6.495900000095389],0,0,0,17,1,,,,,,,,,,,,,,,,,,
,,,,,,,,,,5c8bb229b0b5510016a92910,33,Mężczyzna,2022-06-04_08h42.57.296,task,2021.1.4,Win32,60.10337781,628b806c463b948bc644b84f,629afed1692063e219f8d5b4,,,,,,,,,,X V Q F H G B L J M P D K C T S W R N Z,,,,,,,,,,,,,,,,,,,,,,,,,,,,,,,,,,,,,,,,,,,,,,,,,,,,,,,,,,,,,,,,,,,,,,,,,,,,2,0,2,0,1,,,,,,,,,,,,,
,,,,,,,,,,5c8bb229b0b5510016a92910,33,Mężczyzna,2022-06-04_08h42.57.296,task,2021.1.4,Win32,60.10337781,628b806c463b948bc644b84f,629afed1692063e219f8d5b4,,,,,,,,,,,,,,,,,,,,,,,,,,,,,,,,,,,,,,,,,,,,,,,,,,,,,,,,,,,,,,,,,,,,,,,,,,,,,,,,,,,,,,,,,,,pwz,"[""p"",""w"",""z""]",0,"[2.234399999856919,2.517799999952331,2.984499999999912,4.623399999856929]",1,PWZ,1,0,1,0,1,,
,,,,,,,,,,5c8bb229b0b5510016a92910,33,Mężczyzna,2022-06-04_08h42.57.296,task,2021.1.4,Win32,60.10337781,628b806c463b948bc644b84f,629afed1692063e219f8d5b4,,,,,,,,,,,,,,,,,,,,,,,3,,,,,,,,,,Task,35,(1x2) + 1,3,,,,,,,,,,,,,,,,,,,1,,,,,,,,,,,,,,,,,,,,,,,"[""3""]",1,[5.711099999904604],0,0,0,34,1,,,,,,,,,,,,,,,,,,
,,,,,,,,,,5c8bb229b0b5510016a92910,33,Mężczyzna,2022-06-04_08h42.57.296,task,2021.1.4,Win32,60.10337781,628b806c463b948bc644b84f,629afed1692063e219f8d5b4,,,,,,,,,,X V Q F H G B L J M P D K C T S W R N Z,,,,,,,,,,,,,,,,,,,,,,,,,,,,,,,,,,,,,,,,,,,,,,,,,,,,,,,,,,,,,,,,,,,,,,,,,,,,0,0,0,0,1,,,,,,,,,,,,,
,,,,,,,,,,5c8bb229b0b5510016a92910,33,Mężczyzna,2022-06-04_08h42.57.296,task,2021.1.4,Win32,60.10337781,628b806c463b948bc644b84f,629afed1692063e219f8d5b4,,,,,,,,,,,,,,,,,,,,,,,1,,,,,,,,,,Task,9,(3x7) - 20,1,,,,,,,,,,,,,,,,,,,1,,,,,,,,,,,,,,,,,,,,,,,"[""1""]",1,[2.5274000000953265],0,0,0,8,1,,,,,,,,,,,,,,,,,,
,,,,,,,,,,5c8bb229b0b5510016a92910,33,Mężczyzna,2022-06-04_08h42.57.296,task,2021.1.4,Win32,60.10337781,628b806c463b948bc644b84f,629afed1692063e219f8d5b4,,,,,,,,,,X V Q F H G B L J M P D K C T S W R N Z,,,,,,,,,,,,,,,,,,,,,,,,,,,,,,,,,,,,,,,,,,,,,,,,,,,,,,,,,,,,,,,,,,,,,,,,,,,,1,0,1,0,1,,,,,,,,,,,,,
,,,,,,,,,,5c8bb229b0b5510016a92910,33,Mężczyzna,2022-06-04_08h42.57.296,task,2021.1.4,Win32,60.10337781,628b806c463b948bc644b84f,629afed1692063e219f8d5b4,,,,,,,,,,,,,,,,,,,,,,,5,,,,,,,,,,Task,37,(3/3) + 5,6,,,,,,,,,,,,,,,,,,,0,,,,,,,,,,,,,,,,,,,,,,,"[""5""]",0,[3.894700000047692],0,0,0,36,1,,,,,,,,,,,,,,,,,,
,,,,,,,,,,5c8bb229b0b5510016a92910,33,Mężczyzna,2022-06-04_08h42.57.296,task,2021.1.4,Win32,60.10337781,628b806c463b948bc644b84f,629afed1692063e219f8d5b4,,,,,,,,,,,,,,,,,,,,,,,8,,,,,,,,,,Task,23,(2x3) + 2,8,,,,,,,,,,,,,,,,,,,1,,,,,,,,,,,,,,,,,,,,,,,"[""8""]",1,[4.378600000143024],0,1,1,22,1,,,,,,,,,,,,,,,,,,
,,,,,,,,,,5c8bb229b0b5510016a92910,33,Mężczyzna,2022-06-04_08h42.57.296,task,2021.1.4,Win32,60.10337781,628b806c463b948bc644b84f,629afed1692063e219f8d5b4,,,,,,,,,,X V Q F H G B L J M P D K C T S W R N Z,,,,,,,,,,,,,,,,,,,,,,,,,,,,,,,,,,,,,,,,,,,,,,,,,,,,,,,,,,,,,,,,,,,,,,,,,,,,2,0,2,0,1,,,,,,,,,,,,,
,,,,,,,,,,5c8bb229b0b5510016a92910,33,Mężczyzna,2022-06-04_08h42.57.296,task,2021.1.4,Win32,60.10337781,628b806c463b948bc644b84f,629afed1692063e219f8d5b4,,,,,,,,,,,,,,,,,,,,,,,1,,,,,,,,,,Task,1,(12/6) - 1,1,,,,,,,,,,,,,,,,,,,1,,,,,,,,,,,,,,,,,,,,,,,"[""1""]",1,[3.64520000004768],0,0,0,0,1,,,,,,,,,,,,,,,,,,
,,,,,,,,,,5c8bb229b0b5510016a92910,33,Mężczyzna,2022-06-04_08h42.57.296,task,2021.1.4,Win32,60.10337781,628b806c463b948bc644b84f,629afed1692063e219f8d5b4,,,,,,,,,,X V Q F H G B L J M P D K C T S W R N Z,,,,,,,,,,,,,,,,,,,,,,,,,,,,,,,,,,,,,,,,,,,,,,,,,,,,,,,,,,,,,,,,,,,,,,,,,,,,3,0,3,0,1,,,,,,,,,,,,,
,,,,,,,,,,5c8bb229b0b5510016a92910,33,Mężczyzna,2022-06-04_08h42.57.296,task,2021.1.4,Win32,60.10337781,628b806c463b948bc644b84f,629afed1692063e219f8d5b4,,,,,,,,,,,,,,,,,,,,,,,,,,,,,,,,,,,,,,,,,,,,,,,,,,,,,,,,,,,,,,,,,,,,,,,,,,,,,,,,,,,,,,,,,,,jzqt,"[""j"",""z"",""q"",""t""]",0,"[2.3190000000000737,2.632000000000062,3.6647000000476737,4.519499999999994,6.589299999952345]",1,JZQT,2,0,2,0,1,,
,,,,,,,,,,5c8bb229b0b5510016a92910,33,Mężczyzna,2022-06-04_08h42.57.296,task,2021.1.4,Win32,60.10337781,628b806c463b948bc644b84f,629afed1692063e219f8d5b4,,,,,,,,,,,,,,,,,,,,,,,4,,,,,,,,,,Task,21,(10/2) - 1,4,,,,,,,,,,,,,,,,,,,1,,,,,,,,,,,,,,,,,,,,,,,"[""4""]",1,[2.0710000000000264],0,0,0,20,1,,,,,,,,,,,,,,,,,,
,,,,,,,,,,5c8bb229b0b5510016a92910,33,Mężczyzna,2022-06-04_08h42.57.296,task,2021.1.4,Win32,60.10337781,628b806c463b948bc644b84f,629afed1692063e219f8d5b4,,,,,,,,,,X V Q F H G B L J M P D K C T S W R N Z,,,,,,,,,,,,,,,,,,,,,,,,,,,,,,,,,,,,,,,,,,,,,,,,,,,,,,,,,,,,,,,,,,,,,,,,,,,,0,0,0,0,1,,,,,,,,,,,,,
,,,,,,,,,,5c8bb229b0b5510016a92910,33,Mężczyzna,2022-06-04_08h42.57.296,task,2021.1.4,Win32,60.10337781,628b806c463b948bc644b84f,629afed1692063e219f8d5b4,,,,,,,,,,,,,,,,,,,,,,,2,,,,,,,,,,Task,10,(2x5) - 8,2,,,,,,,,,,,,,,,,,,,1,,,,,,,,,,,,,,,,,,,,,,,"[""2""]",1,[2.1508000001907703],0,0,0,9,1,,,,,,,,,,,,,,,,,,
,,,,,,,,,,5c8bb229b0b5510016a92910,33,Mężczyzna,2022-06-04_08h42.57.296,task,2021.1.4,Win32,60.10337781,628b806c463b948bc644b84f,629afed1692063e219f8d5b4,,,,,,,,,,X V Q F H G B L J M P D K C T S W R N Z,,,,,,,,,,,,,,,,,,,,,,,,,,,,,,,,,,,,,,,,,,,,,,,,,,,,,,,,,,,,,,,,,,,,,,,,,,,,1,0,1,0,1,,,,,,,,,,,,,
,,,,,,,,,,5c8bb229b0b5510016a92910,33,Mężczyzna,2022-06-04_08h42.57.296,task,2021.1.4,Win32,60.10337781,628b806c463b948bc644b84f,629afed1692063e219f8d5b4,,,,,,,,,,,,,,,,,,,,,,,4,,,,,,,,,,Task,21,(10/2) - 1,4,,,,,,,,,,,,,,,,,,,1,,,,,,,,,,,,,,,,,,,,,,,"[""4""]",1,[2.997299999952247],0,0,0,20,1,,,,,,,,,,,,,,,,,,
,,,,,,,,,,5c8bb229b0b5510016a92910,33,Mężczyzna,2022-06-04_08h42.57.296,task,2021.1.4,Win32,60.10337781,628b806c463b948bc644b84f,629afed1692063e219f8d5b4,,,,,,,,,,X V Q F H G B L J M P D K C T S W R N Z,,,,,,,,,,,,,,,,,,,,,,,,,,,,,,,,,,,,,,,,,,,,,,,,,,,,,,,,,,,,,,,,,,,,,,,,,,,,2,0,2,0,1,,,,,,,,,,,,,
,,,,,,,,,,5c8bb229b0b5510016a92910,33,Mężczyzna,2022-06-04_08h42.57.296,task,2021.1.4,Win32,60.10337781,628b806c463b948bc644b84f,629afed1692063e219f8d5b4,,,,,,,,,,,,,,,,,,,,,,,7,,,,,,,,,,Task,6,(12/2) + 1,7,,,,,,,,,,,,,,,,,,,1,,,,,,,,,,,,,,,,,,,,,,,"[""7""]",1,[2.283999999999992],0,0,0,5,1,,,,,,,,,,,,,,,,,,
,,,,,,,,,,5c8bb229b0b5510016a92910,33,Mężczyzna,2022-06-04_08h42.57.296,task,2021.1.4,Win32,60.10337781,628b806c463b948bc644b84f,629afed1692063e219f8d5b4,,,,,,,,,,X V Q F H G B L J M P D K C T S W R N Z,,,,,,,,,,,,,,,,,,,,,,,,,,,,,,,,,,,,,,,,,,,,,,,,,,,,,,,,,,,,,,,,,,,,,,,,,,,,3,0,3,0,1,,,,,,,,,,,,,
,,,,,,,,,,5c8bb229b0b5510016a92910,33,Mężczyzna,2022-06-04_08h42.57.296,task,2021.1.4,Win32,60.10337781,628b806c463b948bc644b84f,629afed1692063e219f8d5b4,,,,,,,,,,,,,,,,,,,,,,,3,,,,,,,,,,Task,3,(2x3) - 3,3,,,,,,,,,,,,,,,,,,,1,,,,,,,,,,,,,,,,,,,,,,,"[""3""]",1,[3.0289999999999964],0,0,0,2,1,,,,,,,,,,,,,,,,,,
,,,,,,,,,,5c8bb229b0b5510016a92910,33,Mężczyzna,2022-06-04_08h42.57.296,task,2021.1.4,Win32,60.10337781,628b806c463b948bc644b84f,629afed1692063e219f8d5b4,,,,,,,,,,X V Q F H G B L J M P D K C T S W R N Z,,,,,,,,,,,,,,,,,,,,,,,,,,,,,,,,,,,,,,,,,,,,,,,,,,,,,,,,,,,,,,,,,,,,,,,,,,,,4,0,4,0,1,,,,,,,,,,,,,
,,,,,,,,,,5c8bb229b0b5510016a92910,33,Mężczyzna,2022-06-04_08h42.57.296,task,2021.1.4,Win32,60.10337781,628b806c463b948bc644b84f,629afed1692063e219f8d5b4,,,,,,,,,,,,,,,,,,,,,,,,,,,,,,,,,,,,,,,,,,,,,,,,,,,,,,,,,,,,,,,,,,,,,,,,,,,,,,,,,,,,,,,,,,,hxxkv,"[""h"",""x"",""x"",""k"",""v""]",0,"[2.2164999999999964,2.907700000047612,3.3339999999999463,4.968799999952239,6.966000000000008,9.615400000095292]",1,HXXKV,3,0,3,0,1,,
,,,,,,,,,,5c8bb229b0b5510016a92910,33,Mężczyzna,2022-06-04_08h42.57.296,task,2021.1.4,Win32,60.10337781,628b806c463b948bc644b84f,629afed1692063e219f8d5b4,,,,,,,,,,,,,,,,,,,,,,,7,,,,,,,,,,Task,38,(4x6) - 17,7,,,,,,,,,,,,,,,,,,,1,,,,,,,,,,,,,,,,,,,,,,,"[""7""]",1,[6.081700000047704],0,0,0,37,1,,,,,,,,,,,,,,,,,,
,,,,,,,,,,5c8bb229b0b5510016a92910,33,Mężczyzna,2022-06-04_08h42.57.296,task,2021.1.4,Win32,60.10337781,628b806c463b948bc644b84f,629afed1692063e219f8d5b4,,,,,,,,,,X V Q F H G B L J M P D K C T S W R N Z,,,,,,,,,,,,,,,,,,,,,,,,,,,,,,,,,,,,,,,,,,,,,,,,,,,,,,,,,,,,,,,,,,,,,,,,,,,,0,0,0,0,1,,,,,,,,,,,,,
,,,,,,,,,,5c8bb229b0b5510016a92910,33,Mężczyzna,2022-06-04_08h42.57.296,task,2021.1.4,Win32,60.10337781,628b806c463b948bc644b84f,629afed1692063e219f8d5b4,,,,,,,,,,,,,,,,,,,,,,,8,,,,,,,,,,Task,39,(5x3) - 7,8,,,,,,,,,,,,,,,,,,,1,,,,,,,,,,,,,,,,,,,,,,,"[""8""]",1,[2.7369999999999663],0,0,0,38,1,,,,,,,,,,,,,,,,,,
,,,,,,,,,,5c8bb229b0b5510016a92910,33,Mężczyzna,2022-06-04_08h42.57.296,task,2021.1.4,Win32,60.10337781,628b806c463b948bc644b84f,629afed1692063e219f8d5b4,,,,,,,,,,X V Q F H G B L J M P D K C T S W R N Z,,,,,,,,,,,,,,,,,,,,,,,,,,,,,,,,,,,,,,,,,,,,,,,,,,,,,,,,,,,,,,,,,,,,,,,,,,,,1,0,1,0,1,,,,,,,,,,,,,
,,,,,,,,,,5c8bb229b0b5510016a92910,33,Mężczyzna,2022-06-04_08h42.57.296,task,2021.1.4,Win32,60.10337781,628b806c463b948bc644b84f,629afed1692063e219f8d5b4,,,,,,,,,,,,,,,,,,,,,,,6,,,,,,,,,,Task,5,(2x3) + 0,6,,,,,,,,,,,,,,,,,,,1,,,,,,,,,,,,,,,,,,,,,,,"[""6""]",1,[2.2167000000476946],0,0,0,4,1,,,,,,,,,,,,,,,,,,
,,,,,,,,,,5c8bb229b0b5510016a92910,33,Mężczyzna,2022-06-04_08h42.57.296,task,2021.1.4,Win32,60.10337781,628b806c463b948bc644b84f,629afed1692063e219f8d5b4,,,,,,,,,,X V Q F H G B L J M P D K C T S W R N Z,,,,,,,,,,,,,,,,,,,,,,,,,,,,,,,,,,,,,,,,,,,,,,,,,,,,,,,,,,,,,,,,,,,,,,,,,,,,2,0,2,0,1,,,,,,,,,,,,,
,,,,,,,,,,5c8bb229b0b5510016a92910,33,Mężczyzna,2022-06-04_08h42.57.296,task,2021.1.4,Win32,60.10337781,628b806c463b948bc644b84f,629afed1692063e219f8d5b4,,,,,,,,,,,,,,,,,,,,,,,9,,,,,,,,,,Task,7,(3x7) - 12,9,,,,,,,,,,,,,,,,,,,1,,,,,,,,,,,,,,,,,,,,,,,"[""9""]",1,[3.0121999998092406],0,0,0,6,1,,,,,,,,,,,,,,,,,,
,,,,,,,,,,5c8bb229b0b5510016a92910,33,Mężczyzna,2022-06-04_08h42.57.296,task,2021.1.4,Win32,60.10337781,628b806c463b948bc644b84f,629afed1692063e219f8d5b4,,,,,,,,,,X V Q F H G B L J M P D K C T S W R N Z,,,,,,,,,,,,,,,,,,,,,,,,,,,,,,,,,,,,,,,,,,,,,,,,,,,,,,,,,,,,,,,,,,,,,,,,,,,,3,0,3,0,1,,,,,,,,,,,,,
,,,,,,,,,,5c8bb229b0b5510016a92910,33,Mężczyzna,2022-06-04_08h42.57.296,task,2021.1.4,Win32,60.10337781,628b806c463b948bc644b84f,629afed1692063e219f8d5b4,,,,,,,,,,,,,,,,,,,,,,,7,,,,,,,,,,Task,15,(3x7) - 13,8,,,,,,,,,,,,,,,,,,,0,,,,,,,,,,,,,,,,,,,,,,,"[""7""]",0,[6.116899999856969],0,0,0,14,1,,,,,,,,,,,,,,,,,,
,,,,,,,,,,5c8bb229b0b5510016a92910,33,Mężczyzna,2022-06-04_08h42.57.296,task,2021.1.4,Win32,60.10337781,628b806c463b948bc644b84f,629afed1692063e219f8d5b4,,,,,,,,,,,,,,,,,,,,,,,0,,,,,,,,,,Task,33,(1/1) - 1,0,,,,,,,,,,,,,,,,,,,1,,,,,,,,,,,,,,,,,,,,,,,"[""0""]",1,[4.333200000047668],0,1,1,32,1,,,,,,,,,,,,,,,,,,
,,,,,,,,,,5c8bb229b0b5510016a92910,33,Mężczyzna,2022-06-04_08h42.57.296,task,2021.1.4,Win32,60.10337781,628b806c463b948bc644b84f,629afed1692063e219f8d5b4,,,,,,,,,,X V Q F H G B L J M P D K C T S W R N Z,,,,,,,,,,,,,,,,,,,,,,,,,,,,,,,,,,,,,,,,,,,,,,,,,,,,,,,,,,,,,,,,,,,,,,,,,,,,4,0,4,0,1,,,,,,,,,,,,,
,,,,,,,,,,5c8bb229b0b5510016a92910,33,Mężczyzna,2022-06-04_08h42.57.296,task,2021.1.4,Win32,60.10337781,628b806c463b948bc644b84f,629afed1692063e219f8d5b4,,,,,,,,,,,,,,,,,,,,,,,0,,,,,,,,,,Task,17,(2x3) - 6,0,,,,,,,,,,,,,,,,,,,1,,,,,,,,,,,,,,,,,,,,,,,"[""0""]",1,[1.9594000000953429],0,0,0,16,1,,,,,,,,,,,,,,,,,,
,,,,,,,,,,5c8bb229b0b5510016a92910,33,Mężczyzna,2022-06-04_08h42.57.296,task,2021.1.4,Win32,60.10337781,628b806c463b948bc644b84f,629afed1692063e219f8d5b4,,,,,,,,,,X V Q F H G B L J M P D K C T S W R N Z,,,,,,,,,,,,,,,,,,,,,,,,,,,,,,,,,,,,,,,,,,,,,,,,,,,,,,,,,,,,,,,,,,,,,,,,,,,,5,0,5,0,1,,,,,,,,,,,,,
,,,,,,,,,,5c8bb229b0b5510016a92910,33,Mężczyzna,2022-06-04_08h42.57.296,task,2021.1.4,Win32,60.10337781,628b806c463b948bc644b84f,629afed1692063e219f8d5b4,,,,,,,,,,,,,,,,,,,,,,,,,,,,,,,,,,,,,,,,,,,,,,,,,,,,,,,,,,,,,,,,,,,,,,,,,,,,,,,,,,,,,,,,,,,bdrpf,"[""b"",""d"",""r"",""p"",""f""]",0,"[3.2322999999523745,4.304900000095358,4.639200000047708,5.471499999999992,5.948500000000081,7.046200000047747]",0,BDRHPF,4,0,4,0,1,,
,,,,,,,,,,5c8bb229b0b5510016a92910,33,Mężczyzna,2022-06-04_08h42.57.296,task,2021.1.4,Win32,60.10337781,628b806c463b948bc644b84f,629afed1692063e219f8d5b4,,,,,,,,,,,,,,,,,,,,,,,5,,,,,,,,,,Task,36,(8/4) + 3,5,,,,,,,,,,,,,,,,,,,1,,,,,,,,,,,,,,,,,,,,,,,"[""5""]",1,[4.478100000143058],0,0,0,35,1,,,,,,,,,,,,,,,,,,
,,,,,,,,,,5c8bb229b0b5510016a92910,33,Mężczyzna,2022-06-04_08h42.57.296,task,2021.1.4,Win32,60.10337781,628b806c463b948bc644b84f,629afed1692063e219f8d5b4,,,,,,,,,,X V Q F H G B L J M P D K C T S W R N Z,,,,,,,,,,,,,,,,,,,,,,,,,,,,,,,,,,,,,,,,,,,,,,,,,,,,,,,,,,,,,,,,,,,,,,,,,,,,0,0,0,0,1,,,,,,,,,,,,,
,,,,,,,,,,5c8bb229b0b5510016a92910,33,Mężczyzna,2022-06-04_08h42.57.296,task,2021.1.4,Win32,60.10337781,628b806c463b948bc644b84f,629afed1692063e219f8d5b4,,,,,,,,,,,,,,,,,,,,,,,2,,,,,,,,,,Task,19,(6/2) - 1,2,,,,,,,,,,,,,,,,,,,1,,,,,,,,,,,,,,,,,,,,,,,"[""2""]",1,[3.2696000001431003],0,0,0,18,1,,,,,,,,,,,,,,,,,,
,,,,,,,,,,5c8bb229b0b5510016a92910,33,Mężczyzna,2022-06-04_08h42.57.296,task,2021.1.4,Win32,60.10337781,628b806c463b948bc644b84f,629afed1692063e219f8d5b4,,,,,,,,,,X V Q F H G B L J M P D K C T S W R N Z,,,,,,,,,,,,,,,,,,,,,,,,,,,,,,,,,,,,,,,,,,,,,,,,,,,,,,,,,,,,,,,,,,,,,,,,,,,,1,0,1,0,1,,,,,,,,,,,,,
,,,,,,,,,,5c8bb229b0b5510016a92910,33,Mężczyzna,2022-06-04_08h42.57.296,task,2021.1.4,Win32,60.10337781,628b806c463b948bc644b84f,629afed1692063e219f8d5b4,,,,,,,,,,,,,,,,,,,,,,,7,,,,,,,,,,Task,14,(2x2) + 3,7,,,,,,,,,,,,,,,,,,,1,,,,,,,,,,,,,,,,,,,,,,,"[""7""]",1,[1.985199999809197],0,0,0,13,1,,,,,,,,,,,,,,,,,,
,,,,,,,,,,5c8bb229b0b5510016a92910,33,Mężczyzna,2022-06-04_08h42.57.296,task,2021.1.4,Win32,60.10337781,628b806c463b948bc644b84f,629afed1692063e219f8d5b4,,,,,,,,,,X V Q F H G B L J M P D K C T S W R N Z,,,,,,,,,,,,,,,,,,,,,,,,,,,,,,,,,,,,,,,,,,,,,,,,,,,,,,,,,,,,,,,,,,,,,,,,,,,,2,0,2,0,1,,,,,,,,,,,,,
,,,,,,,,,,5c8bb229b0b5510016a92910,33,Mężczyzna,2022-06-04_08h42.57.296,task,2021.1.4,Win32,60.10337781,628b806c463b948bc644b84f,629afed1692063e219f8d5b4,,,,,,,,,,,,,,,,,,,,,,,4,,,,,,,,,,Task,28,(2x5) - 6,4,,,,,,,,,,,,,,,,,,,1,,,,,,,,,,,,,,,,,,,,,,,"[""4""]",1,[2.5832000000476683],0,0,0,27,1,,,,,,,,,,,,,,,,,,
,,,,,,,,,,5c8bb229b0b5510016a92910,33,Mężczyzna,2022-06-04_08h42.57.296,task,2021.1.4,Win32,60.10337781,628b806c463b948bc644b84f,629afed1692063e219f8d5b4,,,,,,,,,,X V Q F H G B L J M P D K C T S W R N Z,,,,,,,,,,,,,,,,,,,,,,,,,,,,,,,,,,,,,,,,,,,,,,,,,,,,,,,,,,,,,,,,,,,,,,,,,,,,3,0,3,0,1,,,,,,,,,,,,,
,,,,,,,,,,5c8bb229b0b5510016a92910,33,Mężczyzna,2022-06-04_08h42.57.296,task,2021.1.4,Win32,60.10337781,628b806c463b948bc644b84f,629afed1692063e219f8d5b4,,,,,,,,,,,,,,,,,,,,,,,7,,,,,,,,,,Task,31,(4/2) + 5,7,,,,,,,,,,,,,,,,,,,1,,,,,,,,,,,,,,,,,,,,,,,"[""7""]",1,[5.22820000004765],0,0,0,30,1,,,,,,,,,,,,,,,,,,
,,,,,,,,,,5c8bb229b0b5510016a92910,33,Mężczyzna,2022-06-04_08h42.57.296,task,2021.1.4,Win32,60.10337781,628b806c463b948bc644b84f,629afed1692063e219f8d5b4,,,,,,,,,,X V Q F H G B L J M P D K C T S W R N Z,,,,,,,,,,,,,,,,,,,,,,,,,,,,,,,,,,,,,,,,,,,,,,,,,,,,,,,,,,,,,,,,,,,,,,,,,,,,4,0,4,0,1,,,,,,,,,,,,,
,,,,,,,,,,5c8bb229b0b5510016a92910,33,Mężczyzna,2022-06-04_08h42.57.296,task,2021.1.4,Win32,60.10337781,628b806c463b948bc644b84f,629afed1692063e219f8d5b4,,,,,,,,,,,,,,,,,,,,,,,5,,,,,,,,,,Task,29,(3x8) - 19 ,5,,,,,,,,,,,,,,,,,,,1,,,,,,,,,,,,,,,,,,,,,,,"[""5""]",1,[3.15140000009535],0,0,0,28,1,,,,,,,,,,,,,,,,,,
,,,,,,,,,,5c8bb229b0b5510016a92910,33,Mężczyzna,2022-06-04_08h42.57.296,task,2021.1.4,Win32,60.10337781,628b806c463b948bc644b84f,629afed1692063e219f8d5b4,,,,,,,,,,X V Q F H G B L J M P D K C T S W R N Z,,,,,,,,,,,,,,,,,,,,,,,,,,,,,,,,,,,,,,,,,,,,,,,,,,,,,,,,,,,,,,,,,,,,,,,,,,,,5,0,5,0,1,,,,,,,,,,,,,
,,,,,,,,,,5c8bb229b0b5510016a92910,33,Mężczyzna,2022-06-04_08h42.57.296,task,2021.1.4,Win32,60.10337781,628b806c463b948bc644b84f,629afed1692063e219f8d5b4,,,,,,,,,,,,,,,,,,,,,,,,,,,,,,,,,,,,,,,,,,,,,,,,,,,,,,,,,,,,,,,,,,,,,,,,,,,,,,,,,,,,,,,,,,,jkcbh,"[""j"",""k"",""c"",""b"",""h""]",0,"[2.0326999998092106,2.2747999999523927,2.615899999856879,4.1687999999522845,4.80039999985695,6.313499999999863]",0,JJKCBH,5,0,5,0,1,,
,,,,,,,,,,5c8bb229b0b5510016a92910,33,Mężczyzna,2022-06-04_08h42.57.296,task,2021.1.4,Win32,60.10337781,628b806c463b948bc644b84f,629afed1692063e219f8d5b4,,,,,,,,,,,,,,,,,,,,,,,,,,,,,,,,,,,,,,,,,,,,,,,,,,,,,,,,,,,,,,,,,,,,,,,,,,,,,,,,,,,,,,,,,,,,,,,,,,,,,,space,2.1981
