key_resp_15.keys,key_resp_15.rt,key_resp_16.keys,key_resp_16.rt,key_resp_4.keys,key_resp_4.rt,next_letter.thisRepN,next_letter.thisTrialN,next_letter.thisN,next_letter.thisIndex,next_letter.ran,letter,participant,Wiek*,Płeć,date,expName,psychopyVersion,OS,frameRate,study_id,session,simple_recall,key_resp_5.keys,key_resp_5.rt,simple_recall_corr,simple_recall_corrkeys,next_level.thisRepN,next_level.thisTrialN,next_level.thisN,next_level.thisIndex,next_level.ran,key_resp_2.keys,key_resp_2.rt,digit_answer,key_resp.keys,key_resp.corr,key_resp.rt,RT_list,next_equation.thisRepN,next_equation.thisTrialN,next_equation.thisN,next_equation.thisIndex,next_equation.ran,Task,Trial,Problem,Operation_answer,processing_score,sumRT,meanRT,sumdiff,sd,RT,key_resp_3.keys,key_resp_3.rt,repeat_practice.thisRepN,repeat_practice.thisTrialN,repeat_practice.thisN,repeat_practice.thisIndex,repeat_practice.ran,key_resp_6.keys,key_resp_6.rt,key_resp_11.keys,key_resp_11.corr,key_resp_11.rt,operation_correct,repeat_if_wrong_prac.thisRepN,repeat_if_wrong_prac.thisTrialN,repeat_if_wrong_prac.thisN,repeat_if_wrong_prac.thisIndex,repeat_if_wrong_prac.ran,span_size_prac.thisRepN,span_size_prac.thisTrialN,span_size_prac.thisN,span_size_prac.thisIndex,span_size_prac.ran,complex_recall_practice,key_resp_9.keys,key_resp_9.corr,key_resp_9.rt,complex_prac_corr,span_recall_prac.thisRepN,span_recall_prac.thisTrialN,span_recall_prac.thisN,span_recall_prac.thisIndex,span_recall_prac.ran,key_resp_10.keys,key_resp_10.rt,key_resp_7.keys,key_resp_7.corr,key_resp_7.rt,repeat_if_wrong.thisRepN,repeat_if_wrong.thisTrialN,repeat_if_wrong.thisN,repeat_if_wrong.thisIndex,repeat_if_wrong.ran,span_size.thisRepN,span_size.thisTrialN,span_size.thisN,span_size.thisIndex,span_size.ran,complex_recall,key_resp_8.keys,key_resp_8.corr,key_resp_8.rt,complex_recall_corr,complex_recall_corrkeys,span_recall.thisRepN,span_recall.thisTrialN,span_recall.thisN,span_recall.thisIndex,span_recall.ran,key_resp_13.keys,key_resp_13.corr,random_loop.thisRepN,random_loop.thisTrialN,random_loop.thisN,random_loop.thisIndex,random_loop.ran,key_resp_13.rt,key_resp_12.keys,key_resp_12.rt
space,31.68,space,26.833,space,16.1,0,0,0,0,1,X V Q F H G B L J M P D K C T S W R N Z,5c9b0d631c8e140014d19fc5,41,Mężczyzna,2022-06-11_09h27.50.794,task,2021.1.4,Win32,30.0120048,6299f149e92ead563fba08ef,62a44338997204d6f31fe6a8,,,,,,,,,,,,,,,,,,,,,,,,,,,,,,,,,,,,,,,,,,,,,,,,,,,,,,,,,,,,,,,,,,,,,,,,,,,,,,,,,,,,,,,,,,,,,,,,,,,,,
,,,,,,1,0,1,0,1,X V Q F H G B L J M P D K C T S W R N Z,5c9b0d631c8e140014d19fc5,41,Mężczyzna,2022-06-11_09h27.50.794,task,2021.1.4,Win32,30.0120048,6299f149e92ead563fba08ef,62a44338997204d6f31fe6a8,,,,,,,,,,,,,,,,,,,,,,,,,,,,,,,,,,,,,,,,,,,,,,,,,,,,,,,,,,,,,,,,,,,,,,,,,,,,,,,,,,,,,,,,,,,,,,,,,,,,,
,,,,,,,,,,,,5c9b0d631c8e140014d19fc5,41,Mężczyzna,2022-06-11_09h27.50.794,task,2021.1.4,Win32,30.0120048,6299f149e92ead563fba08ef,62a44338997204d6f31fe6a8,zv,"[""z"",""v""]","[2.191999999999993,2.570999999999998,4.734999999999999]",1,ZV,0,0,0,0,1,,,,,,,,,,,,,,,,,,,,,,,,,,,,,,,,,,,,,,,,,,,,,,,,,,,,,,,,,,,,,,,,,,,,,,,,,,,,,,,,,,,,,,,,,,,
,,,,,,0,0,0,0,1,X V Q F H G B L J M P D K C T S W R N Z,5c9b0d631c8e140014d19fc5,41,Mężczyzna,2022-06-11_09h27.50.794,task,2021.1.4,Win32,30.0120048,6299f149e92ead563fba08ef,62a44338997204d6f31fe6a8,,,,,,,,,,,,,,,,,,,,,,,,,,,,,,,,,,,,,,,,,,,,,,,,,,,,,,,,,,,,,,,,,,,,,,,,,,,,,,,,,,,,,,,,,,,,,,,,,,,,,
,,,,,,1,0,1,0,1,X V Q F H G B L J M P D K C T S W R N Z,5c9b0d631c8e140014d19fc5,41,Mężczyzna,2022-06-11_09h27.50.794,task,2021.1.4,Win32,30.0120048,6299f149e92ead563fba08ef,62a44338997204d6f31fe6a8,,,,,,,,,,,,,,,,,,,,,,,,,,,,,,,,,,,,,,,,,,,,,,,,,,,,,,,,,,,,,,,,,,,,,,,,,,,,,,,,,,,,,,,,,,,,,,,,,,,,,
,,,,,,,,,,,,5c9b0d631c8e140014d19fc5,41,Mężczyzna,2022-06-11_09h27.50.794,task,2021.1.4,Win32,30.0120048,6299f149e92ead563fba08ef,62a44338997204d6f31fe6a8,mt,"[""m"",""t""]","[1.4740000000000038,2.0490000000000066,3.7210000000000036]",1,MT,1,0,1,0,1,,,,,,,,,,,,,,,,,,,,,,,,,,,,,,,,,,,,,,,,,,,,,,,,,,,,,,,,,,,,,,,,,,,,,,,,,,,,,,,,,,,,,,,,,,,
,,,,,,0,0,0,0,1,X V Q F H G B L J M P D K C T S W R N Z,5c9b0d631c8e140014d19fc5,41,Mężczyzna,2022-06-11_09h27.50.794,task,2021.1.4,Win32,30.0120048,6299f149e92ead563fba08ef,62a44338997204d6f31fe6a8,,,,,,,,,,,,,,,,,,,,,,,,,,,,,,,,,,,,,,,,,,,,,,,,,,,,,,,,,,,,,,,,,,,,,,,,,,,,,,,,,,,,,,,,,,,,,,,,,,,,,
,,,,,,1,0,1,0,1,X V Q F H G B L J M P D K C T S W R N Z,5c9b0d631c8e140014d19fc5,41,Mężczyzna,2022-06-11_09h27.50.794,task,2021.1.4,Win32,30.0120048,6299f149e92ead563fba08ef,62a44338997204d6f31fe6a8,,,,,,,,,,,,,,,,,,,,,,,,,,,,,,,,,,,,,,,,,,,,,,,,,,,,,,,,,,,,,,,,,,,,,,,,,,,,,,,,,,,,,,,,,,,,,,,,,,,,,
,,,,,,2,0,2,0,1,X V Q F H G B L J M P D K C T S W R N Z,5c9b0d631c8e140014d19fc5,41,Mężczyzna,2022-06-11_09h27.50.794,task,2021.1.4,Win32,30.0120048,6299f149e92ead563fba08ef,62a44338997204d6f31fe6a8,,,,,,,,,,,,,,,,,,,,,,,,,,,,,,,,,,,,,,,,,,,,,,,,,,,,,,,,,,,,,,,,,,,,,,,,,,,,,,,,,,,,,,,,,,,,,,,,,,,,,
,,,,,,,,,,,,5c9b0d631c8e140014d19fc5,41,Mężczyzna,2022-06-11_09h27.50.794,task,2021.1.4,Win32,30.0120048,6299f149e92ead563fba08ef,62a44338997204d6f31fe6a8,ppr,"[""p"",""p"",""r""]","[0.8489999999999895,1.0139999999999958,1.9170000000000016,3.2249999999999943]",1,PPR,2,0,2,0,1,,,,,,,,,,,,,,,,,,,,,,,,,,,,,,,,,,,,,,,,,,,,,,,,,,,,,,,,,,,,,,,,,,,,,,,,,,,,,,,,,,,,,,,,,,,
,,,,,,0,0,0,0,1,X V Q F H G B L J M P D K C T S W R N Z,5c9b0d631c8e140014d19fc5,41,Mężczyzna,2022-06-11_09h27.50.794,task,2021.1.4,Win32,30.0120048,6299f149e92ead563fba08ef,62a44338997204d6f31fe6a8,,,,,,,,,,,,,,,,,,,,,,,,,,,,,,,,,,,,,,,,,,,,,,,,,,,,,,,,,,,,,,,,,,,,,,,,,,,,,,,,,,,,,,,,,,,,,,,,,,,,,
,,,,,,1,0,1,0,1,X V Q F H G B L J M P D K C T S W R N Z,5c9b0d631c8e140014d19fc5,41,Mężczyzna,2022-06-11_09h27.50.794,task,2021.1.4,Win32,30.0120048,6299f149e92ead563fba08ef,62a44338997204d6f31fe6a8,,,,,,,,,,,,,,,,,,,,,,,,,,,,,,,,,,,,,,,,,,,,,,,,,,,,,,,,,,,,,,,,,,,,,,,,,,,,,,,,,,,,,,,,,,,,,,,,,,,,,
,,,,,,2,0,2,0,1,X V Q F H G B L J M P D K C T S W R N Z,5c9b0d631c8e140014d19fc5,41,Mężczyzna,2022-06-11_09h27.50.794,task,2021.1.4,Win32,30.0120048,6299f149e92ead563fba08ef,62a44338997204d6f31fe6a8,,,,,,,,,,,,,,,,,,,,,,,,,,,,,,,,,,,,,,,,,,,,,,,,,,,,,,,,,,,,,,,,,,,,,,,,,,,,,,,,,,,,,,,,,,,,,,,,,,,,,
,,,,,,,,,,,,5c9b0d631c8e140014d19fc5,41,Mężczyzna,2022-06-11_09h27.50.794,task,2021.1.4,Win32,30.0120048,6299f149e92ead563fba08ef,62a44338997204d6f31fe6a8,rfw,"[""r"",""f"",""w""]","[1.3020000000000067,1.5090000000000003,2.0150000000000006,2.745999999999995]",1,RFW,3,0,3,0,1,,,,,,,,,,,,,,,,,,,,,,,,,,,,,,,,,,,,,,,,,,,,,,,,,,,,,,,,,,,,,,,,,,,,,,,,,,,,,,,,,,,,,,,,,,,
,,,,,,0,0,0,0,1,X V Q F H G B L J M P D K C T S W R N Z,5c9b0d631c8e140014d19fc5,41,Mężczyzna,2022-06-11_09h27.50.794,task,2021.1.4,Win32,30.0120048,6299f149e92ead563fba08ef,62a44338997204d6f31fe6a8,,,,,,,,,,,,,,,,,,,,,,,,,,,,,,,,,,,,,,,,,,,,,,,,,,,,,,,,,,,,,,,,,,,,,,,,,,,,,,,,,,,,,,,,,,,,,,,,,,,,,
,,,,,,1,0,1,0,1,X V Q F H G B L J M P D K C T S W R N Z,5c9b0d631c8e140014d19fc5,41,Mężczyzna,2022-06-11_09h27.50.794,task,2021.1.4,Win32,30.0120048,6299f149e92ead563fba08ef,62a44338997204d6f31fe6a8,,,,,,,,,,,,,,,,,,,,,,,,,,,,,,,,,,,,,,,,,,,,,,,,,,,,,,,,,,,,,,,,,,,,,,,,,,,,,,,,,,,,,,,,,,,,,,,,,,,,,
,,,,,,2,0,2,0,1,X V Q F H G B L J M P D K C T S W R N Z,5c9b0d631c8e140014d19fc5,41,Mężczyzna,2022-06-11_09h27.50.794,task,2021.1.4,Win32,30.0120048,6299f149e92ead563fba08ef,62a44338997204d6f31fe6a8,,,,,,,,,,,,,,,,,,,,,,,,,,,,,,,,,,,,,,,,,,,,,,,,,,,,,,,,,,,,,,,,,,,,,,,,,,,,,,,,,,,,,,,,,,,,,,,,,,,,,
,,,,,,3,0,3,0,1,X V Q F H G B L J M P D K C T S W R N Z,5c9b0d631c8e140014d19fc5,41,Mężczyzna,2022-06-11_09h27.50.794,task,2021.1.4,Win32,30.0120048,6299f149e92ead563fba08ef,62a44338997204d6f31fe6a8,,,,,,,,,,,,,,,,,,,,,,,,,,,,,,,,,,,,,,,,,,,,,,,,,,,,,,,,,,,,,,,,,,,,,,,,,,,,,,,,,,,,,,,,,,,,,,,,,,,,,
,,,,,,,,,,,,5c9b0d631c8e140014d19fc5,41,Mężczyzna,2022-06-11_09h27.50.794,task,2021.1.4,Win32,30.0120048,6299f149e92ead563fba08ef,62a44338997204d6f31fe6a8,qvdz,"[""q"",""v"",""d"",""z""]","[0.9239999999999782,2.136999999999972,2.644999999999982,2.9749999999999943,4.3349999999999795]",1,QVDZ,4,0,4,0,1,,,,,,,,,,,,,,,,,,,,,,,,,,,,,,,,,,,,,,,,,,,,,,,,,,,,,,,,,,,,,,,,,,,,,,,,,,,,,,,,,,,,,,,,,,,
,,,,,,0,0,0,0,1,X V Q F H G B L J M P D K C T S W R N Z,5c9b0d631c8e140014d19fc5,41,Mężczyzna,2022-06-11_09h27.50.794,task,2021.1.4,Win32,30.0120048,6299f149e92ead563fba08ef,62a44338997204d6f31fe6a8,,,,,,,,,,,,,,,,,,,,,,,,,,,,,,,,,,,,,,,,,,,,,,,,,,,,,,,,,,,,,,,,,,,,,,,,,,,,,,,,,,,,,,,,,,,,,,,,,,,,,
,,,,,,1,0,1,0,1,X V Q F H G B L J M P D K C T S W R N Z,5c9b0d631c8e140014d19fc5,41,Mężczyzna,2022-06-11_09h27.50.794,task,2021.1.4,Win32,30.0120048,6299f149e92ead563fba08ef,62a44338997204d6f31fe6a8,,,,,,,,,,,,,,,,,,,,,,,,,,,,,,,,,,,,,,,,,,,,,,,,,,,,,,,,,,,,,,,,,,,,,,,,,,,,,,,,,,,,,,,,,,,,,,,,,,,,,
,,,,,,2,0,2,0,1,X V Q F H G B L J M P D K C T S W R N Z,5c9b0d631c8e140014d19fc5,41,Mężczyzna,2022-06-11_09h27.50.794,task,2021.1.4,Win32,30.0120048,6299f149e92ead563fba08ef,62a44338997204d6f31fe6a8,,,,,,,,,,,,,,,,,,,,,,,,,,,,,,,,,,,,,,,,,,,,,,,,,,,,,,,,,,,,,,,,,,,,,,,,,,,,,,,,,,,,,,,,,,,,,,,,,,,,,
,,,,,,3,0,3,0,1,X V Q F H G B L J M P D K C T S W R N Z,5c9b0d631c8e140014d19fc5,41,Mężczyzna,2022-06-11_09h27.50.794,task,2021.1.4,Win32,30.0120048,6299f149e92ead563fba08ef,62a44338997204d6f31fe6a8,,,,,,,,,,,,,,,,,,,,,,,,,,,,,,,,,,,,,,,,,,,,,,,,,,,,,,,,,,,,,,,,,,,,,,,,,,,,,,,,,,,,,,,,,,,,,,,,,,,,,
,,,,,,,,,,,,5c9b0d631c8e140014d19fc5,41,Mężczyzna,2022-06-11_09h27.50.794,task,2021.1.4,Win32,30.0120048,6299f149e92ead563fba08ef,62a44338997204d6f31fe6a8,gjqm,"[""g"",""j"",""q"",""m""]","[1.4989999999999952,1.7879999999999825,2.448999999999984,3.1670000000000016,4.403999999999996]",1,GJQM,5,0,5,0,1,,,,,,,,,,,,,,,,,,,,,,,,,,,,,,,,,,,,,,,,,,,,,,,,,,,,,,,,,,,,,,,,,,,,,,,,,,,,,,,,,,,,,,,,,,,
,,,,,,0,0,0,0,1,X V Q F H G B L J M P D K C T S W R N Z,5c9b0d631c8e140014d19fc5,41,Mężczyzna,2022-06-11_09h27.50.794,task,2021.1.4,Win32,30.0120048,6299f149e92ead563fba08ef,62a44338997204d6f31fe6a8,,,,,,,,,,,,,,,,,,,,,,,,,,,,,,,,,,,,,,,,,,,,,,,,,,,,,,,,,,,,,,,,,,,,,,,,,,,,,,,,,,,,,,,,,,,,,,,,,,,,,
,,,,,,1,0,1,0,1,X V Q F H G B L J M P D K C T S W R N Z,5c9b0d631c8e140014d19fc5,41,Mężczyzna,2022-06-11_09h27.50.794,task,2021.1.4,Win32,30.0120048,6299f149e92ead563fba08ef,62a44338997204d6f31fe6a8,,,,,,,,,,,,,,,,,,,,,,,,,,,,,,,,,,,,,,,,,,,,,,,,,,,,,,,,,,,,,,,,,,,,,,,,,,,,,,,,,,,,,,,,,,,,,,,,,,,,,
,,,,,,2,0,2,0,1,X V Q F H G B L J M P D K C T S W R N Z,5c9b0d631c8e140014d19fc5,41,Mężczyzna,2022-06-11_09h27.50.794,task,2021.1.4,Win32,30.0120048,6299f149e92ead563fba08ef,62a44338997204d6f31fe6a8,,,,,,,,,,,,,,,,,,,,,,,,,,,,,,,,,,,,,,,,,,,,,,,,,,,,,,,,,,,,,,,,,,,,,,,,,,,,,,,,,,,,,,,,,,,,,,,,,,,,,
,,,,,,3,0,3,0,1,X V Q F H G B L J M P D K C T S W R N Z,5c9b0d631c8e140014d19fc5,41,Mężczyzna,2022-06-11_09h27.50.794,task,2021.1.4,Win32,30.0120048,6299f149e92ead563fba08ef,62a44338997204d6f31fe6a8,,,,,,,,,,,,,,,,,,,,,,,,,,,,,,,,,,,,,,,,,,,,,,,,,,,,,,,,,,,,,,,,,,,,,,,,,,,,,,,,,,,,,,,,,,,,,,,,,,,,,
,,,,,,4,0,4,0,1,X V Q F H G B L J M P D K C T S W R N Z,5c9b0d631c8e140014d19fc5,41,Mężczyzna,2022-06-11_09h27.50.794,task,2021.1.4,Win32,30.0120048,6299f149e92ead563fba08ef,62a44338997204d6f31fe6a8,,,,,,,,,,,,,,,,,,,,,,,,,,,,,,,,,,,,,,,,,,,,,,,,,,,,,,,,,,,,,,,,,,,,,,,,,,,,,,,,,,,,,,,,,,,,,,,,,,,,,
,,,,,,,,,,,,5c9b0d631c8e140014d19fc5,41,Mężczyzna,2022-06-11_09h27.50.794,task,2021.1.4,Win32,30.0120048,6299f149e92ead563fba08ef,62a44338997204d6f31fe6a8,mpttx,"[""m"",""p"",""t"",""t"",""x""]","[1.0759999999999934,2.0080000000000098,2.9240000000000066,3.218999999999994,4.111999999999995,12.979000000000013]",1,MPTTX,6,0,6,0,1,,,,,,,,,,,,,,,,,,,,,,,,,,,,,,,,,,,,,,,,,,,,,,,,,,,,,,,,,,,,,,,,,,,,,,,,,,,,,,,,,,,,,,,,,,,
,,,,,,0,0,0,0,1,X V Q F H G B L J M P D K C T S W R N Z,5c9b0d631c8e140014d19fc5,41,Mężczyzna,2022-06-11_09h27.50.794,task,2021.1.4,Win32,30.0120048,6299f149e92ead563fba08ef,62a44338997204d6f31fe6a8,,,,,,,,,,,,,,,,,,,,,,,,,,,,,,,,,,,,,,,,,,,,,,,,,,,,,,,,,,,,,,,,,,,,,,,,,,,,,,,,,,,,,,,,,,,,,,,,,,,,,
,,,,,,1,0,1,0,1,X V Q F H G B L J M P D K C T S W R N Z,5c9b0d631c8e140014d19fc5,41,Mężczyzna,2022-06-11_09h27.50.794,task,2021.1.4,Win32,30.0120048,6299f149e92ead563fba08ef,62a44338997204d6f31fe6a8,,,,,,,,,,,,,,,,,,,,,,,,,,,,,,,,,,,,,,,,,,,,,,,,,,,,,,,,,,,,,,,,,,,,,,,,,,,,,,,,,,,,,,,,,,,,,,,,,,,,,
,,,,,,2,0,2,0,1,X V Q F H G B L J M P D K C T S W R N Z,5c9b0d631c8e140014d19fc5,41,Mężczyzna,2022-06-11_09h27.50.794,task,2021.1.4,Win32,30.0120048,6299f149e92ead563fba08ef,62a44338997204d6f31fe6a8,,,,,,,,,,,,,,,,,,,,,,,,,,,,,,,,,,,,,,,,,,,,,,,,,,,,,,,,,,,,,,,,,,,,,,,,,,,,,,,,,,,,,,,,,,,,,,,,,,,,,
,,,,,,3,0,3,0,1,X V Q F H G B L J M P D K C T S W R N Z,5c9b0d631c8e140014d19fc5,41,Mężczyzna,2022-06-11_09h27.50.794,task,2021.1.4,Win32,30.0120048,6299f149e92ead563fba08ef,62a44338997204d6f31fe6a8,,,,,,,,,,,,,,,,,,,,,,,,,,,,,,,,,,,,,,,,,,,,,,,,,,,,,,,,,,,,,,,,,,,,,,,,,,,,,,,,,,,,,,,,,,,,,,,,,,,,,
,,,,,,4,0,4,0,1,X V Q F H G B L J M P D K C T S W R N Z,5c9b0d631c8e140014d19fc5,41,Mężczyzna,2022-06-11_09h27.50.794,task,2021.1.4,Win32,30.0120048,6299f149e92ead563fba08ef,62a44338997204d6f31fe6a8,,,,,,,,,,,,,,,,,,,,,,,,,,,,,,,,,,,,,,,,,,,,,,,,,,,,,,,,,,,,,,,,,,,,,,,,,,,,,,,,,,,,,,,,,,,,,,,,,,,,,
,,,,,,,,,,,,5c9b0d631c8e140014d19fc5,41,Mężczyzna,2022-06-11_09h27.50.794,task,2021.1.4,Win32,30.0120048,6299f149e92ead563fba08ef,62a44338997204d6f31fe6a8,hzwcd,"[""h"",""z"",""w"",""c"",""d""]","[1.193000000000012,1.774000000000001,2.219999999999999,8.040999999999997,8.224999999999994,9.03200000000001]",1,HZWCD,7,0,7,0,1,,,,,,,,,,,,,,,,,,,,,,,,,,,,,,,,,,,,,,,,,,,,,,,,,,,,,,,,,,,,,,,,,,,,,,,,,,,,,,,,,,,,,,,,,,,
,,,,,,0,0,0,0,1,X V Q F H G B L J M P D K C T S W R N Z,5c9b0d631c8e140014d19fc5,41,Mężczyzna,2022-06-11_09h27.50.794,task,2021.1.4,Win32,30.0120048,6299f149e92ead563fba08ef,62a44338997204d6f31fe6a8,,,,,,,,,,,,,,,,,,,,,,,,,,,,,,,,,,,,,,,,,,,,,,,,,,,,,,,,,,,,,,,,,,,,,,,,,,,,,,,,,,,,,,,,,,,,,,,,,,,,,
,,,,,,1,0,1,0,1,X V Q F H G B L J M P D K C T S W R N Z,5c9b0d631c8e140014d19fc5,41,Mężczyzna,2022-06-11_09h27.50.794,task,2021.1.4,Win32,30.0120048,6299f149e92ead563fba08ef,62a44338997204d6f31fe6a8,,,,,,,,,,,,,,,,,,,,,,,,,,,,,,,,,,,,,,,,,,,,,,,,,,,,,,,,,,,,,,,,,,,,,,,,,,,,,,,,,,,,,,,,,,,,,,,,,,,,,
,,,,,,2,0,2,0,1,X V Q F H G B L J M P D K C T S W R N Z,5c9b0d631c8e140014d19fc5,41,Mężczyzna,2022-06-11_09h27.50.794,task,2021.1.4,Win32,30.0120048,6299f149e92ead563fba08ef,62a44338997204d6f31fe6a8,,,,,,,,,,,,,,,,,,,,,,,,,,,,,,,,,,,,,,,,,,,,,,,,,,,,,,,,,,,,,,,,,,,,,,,,,,,,,,,,,,,,,,,,,,,,,,,,,,,,,
,,,,,,3,0,3,0,1,X V Q F H G B L J M P D K C T S W R N Z,5c9b0d631c8e140014d19fc5,41,Mężczyzna,2022-06-11_09h27.50.794,task,2021.1.4,Win32,30.0120048,6299f149e92ead563fba08ef,62a44338997204d6f31fe6a8,,,,,,,,,,,,,,,,,,,,,,,,,,,,,,,,,,,,,,,,,,,,,,,,,,,,,,,,,,,,,,,,,,,,,,,,,,,,,,,,,,,,,,,,,,,,,,,,,,,,,
,,,,,,4,0,4,0,1,X V Q F H G B L J M P D K C T S W R N Z,5c9b0d631c8e140014d19fc5,41,Mężczyzna,2022-06-11_09h27.50.794,task,2021.1.4,Win32,30.0120048,6299f149e92ead563fba08ef,62a44338997204d6f31fe6a8,,,,,,,,,,,,,,,,,,,,,,,,,,,,,,,,,,,,,,,,,,,,,,,,,,,,,,,,,,,,,,,,,,,,,,,,,,,,,,,,,,,,,,,,,,,,,,,,,,,,,
,,,,,,5,0,5,0,1,X V Q F H G B L J M P D K C T S W R N Z,5c9b0d631c8e140014d19fc5,41,Mężczyzna,2022-06-11_09h27.50.794,task,2021.1.4,Win32,30.0120048,6299f149e92ead563fba08ef,62a44338997204d6f31fe6a8,,,,,,,,,,,,,,,,,,,,,,,,,,,,,,,,,,,,,,,,,,,,,,,,,,,,,,,,,,,,,,,,,,,,,,,,,,,,,,,,,,,,,,,,,,,,,,,,,,,,,
,,,,,,,,,,,,5c9b0d631c8e140014d19fc5,41,Mężczyzna,2022-06-11_09h27.50.794,task,2021.1.4,Win32,30.0120048,6299f149e92ead563fba08ef,62a44338997204d6f31fe6a8,jnxxqq,"[""j"",""n"",""x"",""x"",""q"",""q""]","[0.8810000000000002,1.2469999999999857,10.507999999999981,10.701999999999998,11.716999999999985,11.877999999999986,15.974999999999994]",1,JNXXQQ,8,0,8,0,1,,,,,,,,,,,,,,,,,,,,,,,,,,,,,,,,,,,,,,,,,,,,,,,,,,,,,,,,,,,,,,,,,,,,,,,,,,,,,,,,,,,,,,,,,,,
,,,,,,0,0,0,0,1,X V Q F H G B L J M P D K C T S W R N Z,5c9b0d631c8e140014d19fc5,41,Mężczyzna,2022-06-11_09h27.50.794,task,2021.1.4,Win32,30.0120048,6299f149e92ead563fba08ef,62a44338997204d6f31fe6a8,,,,,,,,,,,,,,,,,,,,,,,,,,,,,,,,,,,,,,,,,,,,,,,,,,,,,,,,,,,,,,,,,,,,,,,,,,,,,,,,,,,,,,,,,,,,,,,,,,,,,
,,,,,,1,0,1,0,1,X V Q F H G B L J M P D K C T S W R N Z,5c9b0d631c8e140014d19fc5,41,Mężczyzna,2022-06-11_09h27.50.794,task,2021.1.4,Win32,30.0120048,6299f149e92ead563fba08ef,62a44338997204d6f31fe6a8,,,,,,,,,,,,,,,,,,,,,,,,,,,,,,,,,,,,,,,,,,,,,,,,,,,,,,,,,,,,,,,,,,,,,,,,,,,,,,,,,,,,,,,,,,,,,,,,,,,,,
,,,,,,2,0,2,0,1,X V Q F H G B L J M P D K C T S W R N Z,5c9b0d631c8e140014d19fc5,41,Mężczyzna,2022-06-11_09h27.50.794,task,2021.1.4,Win32,30.0120048,6299f149e92ead563fba08ef,62a44338997204d6f31fe6a8,,,,,,,,,,,,,,,,,,,,,,,,,,,,,,,,,,,,,,,,,,,,,,,,,,,,,,,,,,,,,,,,,,,,,,,,,,,,,,,,,,,,,,,,,,,,,,,,,,,,,
,,,,,,3,0,3,0,1,X V Q F H G B L J M P D K C T S W R N Z,5c9b0d631c8e140014d19fc5,41,Mężczyzna,2022-06-11_09h27.50.794,task,2021.1.4,Win32,30.0120048,6299f149e92ead563fba08ef,62a44338997204d6f31fe6a8,,,,,,,,,,,,,,,,,,,,,,,,,,,,,,,,,,,,,,,,,,,,,,,,,,,,,,,,,,,,,,,,,,,,,,,,,,,,,,,,,,,,,,,,,,,,,,,,,,,,,
,,,,,,4,0,4,0,1,X V Q F H G B L J M P D K C T S W R N Z,5c9b0d631c8e140014d19fc5,41,Mężczyzna,2022-06-11_09h27.50.794,task,2021.1.4,Win32,30.0120048,6299f149e92ead563fba08ef,62a44338997204d6f31fe6a8,,,,,,,,,,,,,,,,,,,,,,,,,,,,,,,,,,,,,,,,,,,,,,,,,,,,,,,,,,,,,,,,,,,,,,,,,,,,,,,,,,,,,,,,,,,,,,,,,,,,,
,,,,,,5,0,5,0,1,X V Q F H G B L J M P D K C T S W R N Z,5c9b0d631c8e140014d19fc5,41,Mężczyzna,2022-06-11_09h27.50.794,task,2021.1.4,Win32,30.0120048,6299f149e92ead563fba08ef,62a44338997204d6f31fe6a8,,,,,,,,,,,,,,,,,,,,,,,,,,,,,,,,,,,,,,,,,,,,,,,,,,,,,,,,,,,,,,,,,,,,,,,,,,,,,,,,,,,,,,,,,,,,,,,,,,,,,
,,,,,,,,,,,,5c9b0d631c8e140014d19fc5,41,Mężczyzna,2022-06-11_09h27.50.794,task,2021.1.4,Win32,30.0120048,6299f149e92ead563fba08ef,62a44338997204d6f31fe6a8,pxghtm,"[""p"",""x"",""g"",""h"",""t"",""m""]","[1.4669999999999845,2.1499999999999773,2.6549999999999727,4.439999999999998,5.85499999999999,6.61099999999999,7.415999999999997]",1,PXGHTM,9,0,9,0,1,,,,,,,,,,,,,,,,,,,,,,,,,,,,,,,,,,,,,,,,,,,,,,,,,,,,,,,,,,,,,,,,,,,,,,,,,,,,,,,,,,,,,,,,,,,
,,,,,,0,0,0,0,1,X V Q F H G B L J M P D K C T S W R N Z,5c9b0d631c8e140014d19fc5,41,Mężczyzna,2022-06-11_09h27.50.794,task,2021.1.4,Win32,30.0120048,6299f149e92ead563fba08ef,62a44338997204d6f31fe6a8,,,,,,,,,,,,,,,,,,,,,,,,,,,,,,,,,,,,,,,,,,,,,,,,,,,,,,,,,,,,,,,,,,,,,,,,,,,,,,,,,,,,,,,,,,,,,,,,,,,,,
,,,,,,1,0,1,0,1,X V Q F H G B L J M P D K C T S W R N Z,5c9b0d631c8e140014d19fc5,41,Mężczyzna,2022-06-11_09h27.50.794,task,2021.1.4,Win32,30.0120048,6299f149e92ead563fba08ef,62a44338997204d6f31fe6a8,,,,,,,,,,,,,,,,,,,,,,,,,,,,,,,,,,,,,,,,,,,,,,,,,,,,,,,,,,,,,,,,,,,,,,,,,,,,,,,,,,,,,,,,,,,,,,,,,,,,,
,,,,,,2,0,2,0,1,X V Q F H G B L J M P D K C T S W R N Z,5c9b0d631c8e140014d19fc5,41,Mężczyzna,2022-06-11_09h27.50.794,task,2021.1.4,Win32,30.0120048,6299f149e92ead563fba08ef,62a44338997204d6f31fe6a8,,,,,,,,,,,,,,,,,,,,,,,,,,,,,,,,,,,,,,,,,,,,,,,,,,,,,,,,,,,,,,,,,,,,,,,,,,,,,,,,,,,,,,,,,,,,,,,,,,,,,
,,,,,,3,0,3,0,1,X V Q F H G B L J M P D K C T S W R N Z,5c9b0d631c8e140014d19fc5,41,Mężczyzna,2022-06-11_09h27.50.794,task,2021.1.4,Win32,30.0120048,6299f149e92ead563fba08ef,62a44338997204d6f31fe6a8,,,,,,,,,,,,,,,,,,,,,,,,,,,,,,,,,,,,,,,,,,,,,,,,,,,,,,,,,,,,,,,,,,,,,,,,,,,,,,,,,,,,,,,,,,,,,,,,,,,,,
,,,,,,4,0,4,0,1,X V Q F H G B L J M P D K C T S W R N Z,5c9b0d631c8e140014d19fc5,41,Mężczyzna,2022-06-11_09h27.50.794,task,2021.1.4,Win32,30.0120048,6299f149e92ead563fba08ef,62a44338997204d6f31fe6a8,,,,,,,,,,,,,,,,,,,,,,,,,,,,,,,,,,,,,,,,,,,,,,,,,,,,,,,,,,,,,,,,,,,,,,,,,,,,,,,,,,,,,,,,,,,,,,,,,,,,,
,,,,,,5,0,5,0,1,X V Q F H G B L J M P D K C T S W R N Z,5c9b0d631c8e140014d19fc5,41,Mężczyzna,2022-06-11_09h27.50.794,task,2021.1.4,Win32,30.0120048,6299f149e92ead563fba08ef,62a44338997204d6f31fe6a8,,,,,,,,,,,,,,,,,,,,,,,,,,,,,,,,,,,,,,,,,,,,,,,,,,,,,,,,,,,,,,,,,,,,,,,,,,,,,,,,,,,,,,,,,,,,,,,,,,,,,
,,,,,,6,0,6,0,1,X V Q F H G B L J M P D K C T S W R N Z,5c9b0d631c8e140014d19fc5,41,Mężczyzna,2022-06-11_09h27.50.794,task,2021.1.4,Win32,30.0120048,6299f149e92ead563fba08ef,62a44338997204d6f31fe6a8,,,,,,,,,,,,,,,,,,,,,,,,,,,,,,,,,,,,,,,,,,,,,,,,,,,,,,,,,,,,,,,,,,,,,,,,,,,,,,,,,,,,,,,,,,,,,,,,,,,,,
,,,,,,,,,,,,5c9b0d631c8e140014d19fc5,41,Mężczyzna,2022-06-11_09h27.50.794,task,2021.1.4,Win32,30.0120048,6299f149e92ead563fba08ef,62a44338997204d6f31fe6a8,wsqxzt,"[""w"",""s"",""q"",""x"",""z"",""t""]","[1.6200000000000045,1.9050000000000011,2.828000000000003,4.550000000000011,4.849999999999994,8.283999999999992,8.896999999999991]",0,WSQVZXC,10,0,10,0,1,,,,,,,,,,,,,,,,,,,,,,,,,,,,,,,,,,,,,,,,,,,,,,,,,,,,,,,,,,,,,,,,,,,,,,,,,,,,,,,,,,,,,,,,,,,
,,,,,,0,0,0,0,1,X V Q F H G B L J M P D K C T S W R N Z,5c9b0d631c8e140014d19fc5,41,Mężczyzna,2022-06-11_09h27.50.794,task,2021.1.4,Win32,30.0120048,6299f149e92ead563fba08ef,62a44338997204d6f31fe6a8,,,,,,,,,,,,,,,,,,,,,,,,,,,,,,,,,,,,,,,,,,,,,,,,,,,,,,,,,,,,,,,,,,,,,,,,,,,,,,,,,,,,,,,,,,,,,,,,,,,,,
,,,,,,1,0,1,0,1,X V Q F H G B L J M P D K C T S W R N Z,5c9b0d631c8e140014d19fc5,41,Mężczyzna,2022-06-11_09h27.50.794,task,2021.1.4,Win32,30.0120048,6299f149e92ead563fba08ef,62a44338997204d6f31fe6a8,,,,,,,,,,,,,,,,,,,,,,,,,,,,,,,,,,,,,,,,,,,,,,,,,,,,,,,,,,,,,,,,,,,,,,,,,,,,,,,,,,,,,,,,,,,,,,,,,,,,,
,,,,,,2,0,2,0,1,X V Q F H G B L J M P D K C T S W R N Z,5c9b0d631c8e140014d19fc5,41,Mężczyzna,2022-06-11_09h27.50.794,task,2021.1.4,Win32,30.0120048,6299f149e92ead563fba08ef,62a44338997204d6f31fe6a8,,,,,,,,,,,,,,,,,,,,,,,,,,,,,,,,,,,,,,,,,,,,,,,,,,,,,,,,,,,,,,,,,,,,,,,,,,,,,,,,,,,,,,,,,,,,,,,,,,,,,
,,,,,,3,0,3,0,1,X V Q F H G B L J M P D K C T S W R N Z,5c9b0d631c8e140014d19fc5,41,Mężczyzna,2022-06-11_09h27.50.794,task,2021.1.4,Win32,30.0120048,6299f149e92ead563fba08ef,62a44338997204d6f31fe6a8,,,,,,,,,,,,,,,,,,,,,,,,,,,,,,,,,,,,,,,,,,,,,,,,,,,,,,,,,,,,,,,,,,,,,,,,,,,,,,,,,,,,,,,,,,,,,,,,,,,,,
,,,,,,4,0,4,0,1,X V Q F H G B L J M P D K C T S W R N Z,5c9b0d631c8e140014d19fc5,41,Mężczyzna,2022-06-11_09h27.50.794,task,2021.1.4,Win32,30.0120048,6299f149e92ead563fba08ef,62a44338997204d6f31fe6a8,,,,,,,,,,,,,,,,,,,,,,,,,,,,,,,,,,,,,,,,,,,,,,,,,,,,,,,,,,,,,,,,,,,,,,,,,,,,,,,,,,,,,,,,,,,,,,,,,,,,,
,,,,,,5,0,5,0,1,X V Q F H G B L J M P D K C T S W R N Z,5c9b0d631c8e140014d19fc5,41,Mężczyzna,2022-06-11_09h27.50.794,task,2021.1.4,Win32,30.0120048,6299f149e92ead563fba08ef,62a44338997204d6f31fe6a8,,,,,,,,,,,,,,,,,,,,,,,,,,,,,,,,,,,,,,,,,,,,,,,,,,,,,,,,,,,,,,,,,,,,,,,,,,,,,,,,,,,,,,,,,,,,,,,,,,,,,
,,,,,,6,0,6,0,1,X V Q F H G B L J M P D K C T S W R N Z,5c9b0d631c8e140014d19fc5,41,Mężczyzna,2022-06-11_09h27.50.794,task,2021.1.4,Win32,30.0120048,6299f149e92ead563fba08ef,62a44338997204d6f31fe6a8,,,,,,,,,,,,,,,,,,,,,,,,,,,,,,,,,,,,,,,,,,,,,,,,,,,,,,,,,,,,,,,,,,,,,,,,,,,,,,,,,,,,,,,,,,,,,,,,,,,,,
,,,,,,,,,,,,5c9b0d631c8e140014d19fc5,41,Mężczyzna,2022-06-11_09h27.50.794,task,2021.1.4,Win32,30.0120048,6299f149e92ead563fba08ef,62a44338997204d6f31fe6a8,khpkcjg,"[""k"",""h"",""p"",""k"",""c"",""j"",""g""]","[1.6159999999999854,3.155000000000001,3.586999999999989,4.548000000000002,5.9339999999999975,7.114999999999981,14.581999999999994,14.94599999999997]",0,KHPKCJQ,11,0,11,0,1,,,,,,,,,,,,,,,,,,,,,,,,,,,,,,,,,,,,,,,,,,,,,,,,,,,,,,,,,,,,,,,,,,,,,,,,,,,,,,,,,,,,,,,,,,,
,,,,,,0,0,0,0,1,X V Q F H G B L J M P D K C T S W R N Z,5c9b0d631c8e140014d19fc5,41,Mężczyzna,2022-06-11_09h27.50.794,task,2021.1.4,Win32,30.0120048,6299f149e92ead563fba08ef,62a44338997204d6f31fe6a8,,,,,,,,,,,,,,,,,,,,,,,,,,,,,,,,,,,,,,,,,,,,,,,,,,,,,,,,,,,,,,,,,,,,,,,,,,,,,,,,,,,,,,,,,,,,,,,,,,,,,
,,,,,,1,0,1,0,1,X V Q F H G B L J M P D K C T S W R N Z,5c9b0d631c8e140014d19fc5,41,Mężczyzna,2022-06-11_09h27.50.794,task,2021.1.4,Win32,30.0120048,6299f149e92ead563fba08ef,62a44338997204d6f31fe6a8,,,,,,,,,,,,,,,,,,,,,,,,,,,,,,,,,,,,,,,,,,,,,,,,,,,,,,,,,,,,,,,,,,,,,,,,,,,,,,,,,,,,,,,,,,,,,,,,,,,,,
,,,,,,2,0,2,0,1,X V Q F H G B L J M P D K C T S W R N Z,5c9b0d631c8e140014d19fc5,41,Mężczyzna,2022-06-11_09h27.50.794,task,2021.1.4,Win32,30.0120048,6299f149e92ead563fba08ef,62a44338997204d6f31fe6a8,,,,,,,,,,,,,,,,,,,,,,,,,,,,,,,,,,,,,,,,,,,,,,,,,,,,,,,,,,,,,,,,,,,,,,,,,,,,,,,,,,,,,,,,,,,,,,,,,,,,,
,,,,,,3,0,3,0,1,X V Q F H G B L J M P D K C T S W R N Z,5c9b0d631c8e140014d19fc5,41,Mężczyzna,2022-06-11_09h27.50.794,task,2021.1.4,Win32,30.0120048,6299f149e92ead563fba08ef,62a44338997204d6f31fe6a8,,,,,,,,,,,,,,,,,,,,,,,,,,,,,,,,,,,,,,,,,,,,,,,,,,,,,,,,,,,,,,,,,,,,,,,,,,,,,,,,,,,,,,,,,,,,,,,,,,,,,
,,,,,,4,0,4,0,1,X V Q F H G B L J M P D K C T S W R N Z,5c9b0d631c8e140014d19fc5,41,Mężczyzna,2022-06-11_09h27.50.794,task,2021.1.4,Win32,30.0120048,6299f149e92ead563fba08ef,62a44338997204d6f31fe6a8,,,,,,,,,,,,,,,,,,,,,,,,,,,,,,,,,,,,,,,,,,,,,,,,,,,,,,,,,,,,,,,,,,,,,,,,,,,,,,,,,,,,,,,,,,,,,,,,,,,,,
,,,,,,5,0,5,0,1,X V Q F H G B L J M P D K C T S W R N Z,5c9b0d631c8e140014d19fc5,41,Mężczyzna,2022-06-11_09h27.50.794,task,2021.1.4,Win32,30.0120048,6299f149e92ead563fba08ef,62a44338997204d6f31fe6a8,,,,,,,,,,,,,,,,,,,,,,,,,,,,,,,,,,,,,,,,,,,,,,,,,,,,,,,,,,,,,,,,,,,,,,,,,,,,,,,,,,,,,,,,,,,,,,,,,,,,,
,,,,,,6,0,6,0,1,X V Q F H G B L J M P D K C T S W R N Z,5c9b0d631c8e140014d19fc5,41,Mężczyzna,2022-06-11_09h27.50.794,task,2021.1.4,Win32,30.0120048,6299f149e92ead563fba08ef,62a44338997204d6f31fe6a8,,,,,,,,,,,,,,,,,,,,,,,,,,,,,,,,,,,,,,,,,,,,,,,,,,,,,,,,,,,,,,,,,,,,,,,,,,,,,,,,,,,,,,,,,,,,,,,,,,,,,
,,,,,,,,,,,,5c9b0d631c8e140014d19fc5,41,Mężczyzna,2022-06-11_09h27.50.794,task,2021.1.4,Win32,30.0120048,6299f149e92ead563fba08ef,62a44338997204d6f31fe6a8,ffzwnls,"[""f"",""f"",""z"",""w"",""n"",""l"",""s""]","[1.4499999999999886,1.6259999999999764,2.6359999999999673,2.9249999999999545,3.33299999999997,9.954999999999984,12.503999999999962,13.161000000000001]",1,FFZWNLS,12,0,12,0,1,,,,,,,,,,,,,,,,,,,,,,,,,,,,,,,,,,,,,,,,,,,,,,,,,,,,,,,,,,,,,,,,,,,,,,,,,,,,,,,,,,,,,,,,,,,
,,,,,,0,0,0,0,1,X V Q F H G B L J M P D K C T S W R N Z,5c9b0d631c8e140014d19fc5,41,Mężczyzna,2022-06-11_09h27.50.794,task,2021.1.4,Win32,30.0120048,6299f149e92ead563fba08ef,62a44338997204d6f31fe6a8,,,,,,,,,,,,,,,,,,,,,,,,,,,,,,,,,,,,,,,,,,,,,,,,,,,,,,,,,,,,,,,,,,,,,,,,,,,,,,,,,,,,,,,,,,,,,,,,,,,,,
,,,,,,1,0,1,0,1,X V Q F H G B L J M P D K C T S W R N Z,5c9b0d631c8e140014d19fc5,41,Mężczyzna,2022-06-11_09h27.50.794,task,2021.1.4,Win32,30.0120048,6299f149e92ead563fba08ef,62a44338997204d6f31fe6a8,,,,,,,,,,,,,,,,,,,,,,,,,,,,,,,,,,,,,,,,,,,,,,,,,,,,,,,,,,,,,,,,,,,,,,,,,,,,,,,,,,,,,,,,,,,,,,,,,,,,,
,,,,,,2,0,2,0,1,X V Q F H G B L J M P D K C T S W R N Z,5c9b0d631c8e140014d19fc5,41,Mężczyzna,2022-06-11_09h27.50.794,task,2021.1.4,Win32,30.0120048,6299f149e92ead563fba08ef,62a44338997204d6f31fe6a8,,,,,,,,,,,,,,,,,,,,,,,,,,,,,,,,,,,,,,,,,,,,,,,,,,,,,,,,,,,,,,,,,,,,,,,,,,,,,,,,,,,,,,,,,,,,,,,,,,,,,
,,,,,,3,0,3,0,1,X V Q F H G B L J M P D K C T S W R N Z,5c9b0d631c8e140014d19fc5,41,Mężczyzna,2022-06-11_09h27.50.794,task,2021.1.4,Win32,30.0120048,6299f149e92ead563fba08ef,62a44338997204d6f31fe6a8,,,,,,,,,,,,,,,,,,,,,,,,,,,,,,,,,,,,,,,,,,,,,,,,,,,,,,,,,,,,,,,,,,,,,,,,,,,,,,,,,,,,,,,,,,,,,,,,,,,,,
,,,,,,4,0,4,0,1,X V Q F H G B L J M P D K C T S W R N Z,5c9b0d631c8e140014d19fc5,41,Mężczyzna,2022-06-11_09h27.50.794,task,2021.1.4,Win32,30.0120048,6299f149e92ead563fba08ef,62a44338997204d6f31fe6a8,,,,,,,,,,,,,,,,,,,,,,,,,,,,,,,,,,,,,,,,,,,,,,,,,,,,,,,,,,,,,,,,,,,,,,,,,,,,,,,,,,,,,,,,,,,,,,,,,,,,,
,,,,,,5,0,5,0,1,X V Q F H G B L J M P D K C T S W R N Z,5c9b0d631c8e140014d19fc5,41,Mężczyzna,2022-06-11_09h27.50.794,task,2021.1.4,Win32,30.0120048,6299f149e92ead563fba08ef,62a44338997204d6f31fe6a8,,,,,,,,,,,,,,,,,,,,,,,,,,,,,,,,,,,,,,,,,,,,,,,,,,,,,,,,,,,,,,,,,,,,,,,,,,,,,,,,,,,,,,,,,,,,,,,,,,,,,
,,,,,,6,0,6,0,1,X V Q F H G B L J M P D K C T S W R N Z,5c9b0d631c8e140014d19fc5,41,Mężczyzna,2022-06-11_09h27.50.794,task,2021.1.4,Win32,30.0120048,6299f149e92ead563fba08ef,62a44338997204d6f31fe6a8,,,,,,,,,,,,,,,,,,,,,,,,,,,,,,,,,,,,,,,,,,,,,,,,,,,,,,,,,,,,,,,,,,,,,,,,,,,,,,,,,,,,,,,,,,,,,,,,,,,,,
,,,,,,,,,,,,5c9b0d631c8e140014d19fc5,41,Mężczyzna,2022-06-11_09h27.50.794,task,2021.1.4,Win32,30.0120048,6299f149e92ead563fba08ef,62a44338997204d6f31fe6a8,xkkztml,"[""x"",""k"",""k"",""z"",""t"",""m"",""l""]","[9.125,9.84899999999999,10.067000000000007,13.24799999999999,13.730000000000018,14.375,14.735000000000014,15.569999999999993]",0,XKXFLDT,13,0,13,0,1,,,,,,,,,,,,,,,,,,,,,,,,,,,,,,,,,,,,,,,,,,,,,,,,,,,,,,,,,,,,,,,,,,,,,,,,,,,,,,,,,,,,,,,,,,,
,,,,,,,,,,,,5c9b0d631c8e140014d19fc5,41,Mężczyzna,2022-06-11_09h27.50.794,task,2021.1.4,Win32,30.0120048,6299f149e92ead563fba08ef,62a44338997204d6f31fe6a8,,,,,,,,,,,space,14.573,6,"[""6""]",1,[3.92999999999995],[3.92999999999995],0,0,0,6,1,Practice,7,(25/5) + 1,6,,,,,,,,,,,,,,,,,,,,,,,,,,,,,,,,,,,,,,,,,,,,,,,,,,,,,,,,,,,,,,,,,,,,,,,,,,,
,,,,,,,,,,,,5c9b0d631c8e140014d19fc5,41,Mężczyzna,2022-06-11_09h27.50.794,task,2021.1.4,Win32,30.0120048,6299f149e92ead563fba08ef,62a44338997204d6f31fe6a8,,,,,,,,,,,,,2,"[""2""]",1,[3.103999999999985],"[3.92999999999995,3.103999999999985]",0,1,1,2,1,Practice,3,(4x4) - 14,2,,,,,,,,,,,,,,,,,,,,,,,,,,,,,,,,,,,,,,,,,,,,,,,,,,,,,,,,,,,,,,,,,,,,,,,,,,,
,,,,,,,,,,,,5c9b0d631c8e140014d19fc5,41,Mężczyzna,2022-06-11_09h27.50.794,task,2021.1.4,Win32,30.0120048,6299f149e92ead563fba08ef,62a44338997204d6f31fe6a8,,,,,,,,,,,,,7,"[""7""]",1,[6.774999999999977],"[3.92999999999995,3.103999999999985,6.774999999999977]",0,2,2,7,1,Practice,8,(5x5) - 18,7,,,,,,,,,,,,,,,,,,,,,,,,,,,,,,,,,,,,,,,,,,,,,,,,,,,,,,,,,,,,,,,,,,,,,,,,,,,
,,,,,,,,,,,,5c9b0d631c8e140014d19fc5,41,Mężczyzna,2022-06-11_09h27.50.794,task,2021.1.4,Win32,30.0120048,6299f149e92ead563fba08ef,62a44338997204d6f31fe6a8,,,,,,,,,,,,,9,"[""9""]",1,[2.6759999999999877],"[3.92999999999995,3.103999999999985,6.774999999999977,2.6759999999999877]",0,3,3,9,1,Practice,10,(20/2) - 1,9,,,,,,,,,,,,,,,,,,,,,,,,,,,,,,,,,,,,,,,,,,,,,,,,,,,,,,,,,,,,,,,,,,,,,,,,,,,
,,,,,,,,,,,,5c9b0d631c8e140014d19fc5,41,Mężczyzna,2022-06-11_09h27.50.794,task,2021.1.4,Win32,30.0120048,6299f149e92ead563fba08ef,62a44338997204d6f31fe6a8,,,,,,,,,,,,,0,"[""0""]",1,[2.840000000000032],"[3.92999999999995,3.103999999999985,6.774999999999977,2.6759999999999877,2.840000000000032]",0,4,4,0,1,Practice,1,(3x3) -  9,0,,,,,,,,,,,,,,,,,,,,,,,,,,,,,,,,,,,,,,,,,,,,,,,,,,,,,,,,,,,,,,,,,,,,,,,,,,,
,,,,,,,,,,,,5c9b0d631c8e140014d19fc5,41,Mężczyzna,2022-06-11_09h27.50.794,task,2021.1.4,Win32,30.0120048,6299f149e92ead563fba08ef,62a44338997204d6f31fe6a8,,,,,,,,,,,,,8,"[""8""]",1,[2.3729999999999905],"[3.92999999999995,3.103999999999985,6.774999999999977,2.6759999999999877,2.840000000000032,2.3729999999999905]",0,5,5,8,1,Practice,9,(3x3) - 1,8,,,,,,,,,,,,,,,,,,,,,,,,,,,,,,,,,,,,,,,,,,,,,,,,,,,,,,,,,,,,,,,,,,,,,,,,,,,
,,,,,,,,,,,,5c9b0d631c8e140014d19fc5,41,Mężczyzna,2022-06-11_09h27.50.794,task,2021.1.4,Win32,30.0120048,6299f149e92ead563fba08ef,62a44338997204d6f31fe6a8,,,,,,,,,,,,,1,"[""1""]",1,[3.969000000000051],"[3.92999999999995,3.103999999999985,6.774999999999977,2.6759999999999877,2.840000000000032,2.3729999999999905,3.969000000000051]",0,6,6,1,1,Practice,2,(4x4) - 15,1,,,,,,,,,,,,,,,,,,,,,,,,,,,,,,,,,,,,,,,,,,,,,,,,,,,,,,,,,,,,,,,,,,,,,,,,,,,
,,,,,,,,,,,,5c9b0d631c8e140014d19fc5,41,Mężczyzna,2022-06-11_09h27.50.794,task,2021.1.4,Win32,30.0120048,6299f149e92ead563fba08ef,62a44338997204d6f31fe6a8,,,,,,,,,,,,,5,"[""5""]",1,[5.656000000000006],"[3.92999999999995,3.103999999999985,6.774999999999977,2.6759999999999877,2.840000000000032,2.3729999999999905,3.969000000000051,5.656000000000006]",0,7,7,5,1,Practice,6,(4/2) + 3,5,,,,,,,,,,,,,,,,,,,,,,,,,,,,,,,,,,,,,,,,,,,,,,,,,,,,,,,,,,,,,,,,,,,,,,,,,,,
,,,,,,,,,,,,5c9b0d631c8e140014d19fc5,41,Mężczyzna,2022-06-11_09h27.50.794,task,2021.1.4,Win32,30.0120048,6299f149e92ead563fba08ef,62a44338997204d6f31fe6a8,,,,,,,,,,,,,4,"[""4""]",1,[3.73599999999999],"[3.92999999999995,3.103999999999985,6.774999999999977,2.6759999999999877,2.840000000000032,2.3729999999999905,3.969000000000051,5.656000000000006,3.73599999999999]",0,8,8,4,1,Practice,5,(2x6) - 8,4,,,,,,,,,,,,,,,,,,,,,,,,,,,,,,,,,,,,,,,,,,,,,,,,,,,,,,,,,,,,,,,,,,,,,,,,,,,
,,,,,,,,,,,,5c9b0d631c8e140014d19fc5,41,Mężczyzna,2022-06-11_09h27.50.794,task,2021.1.4,Win32,30.0120048,6299f149e92ead563fba08ef,62a44338997204d6f31fe6a8,,,,,,,,,,,,,3,"[""3""]",1,[3.505999999999972],"[3.92999999999995,3.103999999999985,6.774999999999977,2.6759999999999877,2.840000000000032,2.3729999999999905,3.969000000000051,5.656000000000006,3.73599999999999,3.505999999999972]",0,9,9,3,1,Practice,4,(8/4) + 1,3,,,,,,,,,,,,,,,,,,,,,,,,,,,,,,,,,,,,,,,,,,,,,,,,,,,,,,,,,,,,,,,,,,,,,,,,,,,
,,,,,,,,,,,,5c9b0d631c8e140014d19fc5,41,Mężczyzna,2022-06-11_09h27.50.794,task,2021.1.4,Win32,30.0120048,6299f149e92ead563fba08ef,62a44338997204d6f31fe6a8,,,,,,,,,,,,,,,,,,,,,,,,,,,1,38.565,2.571,33.630255,1.497336635,6.43412852,space,3.995,0,0,0,0,1,,,,,,,,,,,,,,,,,,,,,,,,,,,,,,,,,,,,,,,,,,,,,,,,,,,,,,,,,,,,,,
,,,,,,,,,,,,5c9b0d631c8e140014d19fc5,41,Mężczyzna,2022-06-11_09h27.50.794,task,2021.1.4,Win32,30.0120048,6299f149e92ead563fba08ef,62a44338997204d6f31fe6a8,,,,,,,,,,,,,8,,,,,,,,,,Practice,9,(3x3) - 1,8,,,,,,,,,,,,,,space,34.637,"[""8""]",1,[2.901999999999987],1,0,0,0,8,1,,,,,,,,,,,,,,,,,,,,,,,,,,,,,,,,,,,,,,,,,,,,,,,,,,,
,,,,,,,,,,,X V Q F H G B L J M P D K C T S W R N Z,5c9b0d631c8e140014d19fc5,41,Mężczyzna,2022-06-11_09h27.50.794,task,2021.1.4,Win32,30.0120048,6299f149e92ead563fba08ef,62a44338997204d6f31fe6a8,,,,,,,,,,,,,,,,,,,,,,,,,,,,,,,,,,,,,,,,,,,,,,,,,,,0,0,0,0,1,,,,,,,,,,,,,,,,,,,,,,,,,,,,,,,,,,,,,,,,,,,,,,
,,,,,,,,,,,,5c9b0d631c8e140014d19fc5,41,Mężczyzna,2022-06-11_09h27.50.794,task,2021.1.4,Win32,30.0120048,6299f149e92ead563fba08ef,62a44338997204d6f31fe6a8,,,,,,,,,,,,,8,,,,,,,,,,Practice,9,(3x3) - 1,8,,,,,,,,,,,,,,,,"[""8""]",1,[4.390000000000043],1,0,0,0,8,1,,,,,,,,,,,,,,,,,,,,,,,,,,,,,,,,,,,,,,,,,,,,,,,,,,,
,,,,,,,,,,,X V Q F H G B L J M P D K C T S W R N Z,5c9b0d631c8e140014d19fc5,41,Mężczyzna,2022-06-11_09h27.50.794,task,2021.1.4,Win32,30.0120048,6299f149e92ead563fba08ef,62a44338997204d6f31fe6a8,,,,,,,,,,,,,,,,,,,,,,,,,,,,,,,,,,,,,,,,,,,,,,,,,,,1,0,1,0,1,,,,,,,,,,,,,,,,,,,,,,,,,,,,,,,,,,,,,,,,,,,,,,
,,,,,,,,,,,,5c9b0d631c8e140014d19fc5,41,Mężczyzna,2022-06-11_09h27.50.794,task,2021.1.4,Win32,30.0120048,6299f149e92ead563fba08ef,62a44338997204d6f31fe6a8,,,,,,,,,,,,,,,,,,,,,,,,,,,,,,,,,,,,,,,,,,,,,,,,,,,,,,,,zm,"[""z"",""m""]",0,"[3.16700000000003,3.674000000000035,6.1340000000000146]",1,0,0,0,0,1,,,,,,,,,,,,,,,,,,,,,,,,,,,,,,,,,,,,
,,,,,,,,,,,,5c9b0d631c8e140014d19fc5,41,Mężczyzna,2022-06-11_09h27.50.794,task,2021.1.4,Win32,30.0120048,6299f149e92ead563fba08ef,62a44338997204d6f31fe6a8,,,,,,,,,,,,,0,,,,,,,,,,Practice,1,(3x3) -  9,0,,,,,,,,,,,,,,,,"[""0""]",1,[2.992999999999995],1,0,0,0,0,1,,,,,,,,,,,,,,,,,,,,,,,,,,,,,,,,,,,,,,,,,,,,,,,,,,,
,,,,,,,,,,,X V Q F H G B L J M P D K C T S W R N Z,5c9b0d631c8e140014d19fc5,41,Mężczyzna,2022-06-11_09h27.50.794,task,2021.1.4,Win32,30.0120048,6299f149e92ead563fba08ef,62a44338997204d6f31fe6a8,,,,,,,,,,,,,,,,,,,,,,,,,,,,,,,,,,,,,,,,,,,,,,,,,,,0,0,0,0,1,,,,,,,,,,,,,,,,,,,,,,,,,,,,,,,,,,,,,,,,,,,,,,
,,,,,,,,,,,,5c9b0d631c8e140014d19fc5,41,Mężczyzna,2022-06-11_09h27.50.794,task,2021.1.4,Win32,30.0120048,6299f149e92ead563fba08ef,62a44338997204d6f31fe6a8,,,,,,,,,,,,,8,,,,,,,,,,Practice,9,(3x3) - 1,8,,,,,,,,,,,,,,,,"[""8""]",1,[2.5369999999999777],1,0,0,0,8,1,,,,,,,,,,,,,,,,,,,,,,,,,,,,,,,,,,,,,,,,,,,,,,,,,,,
,,,,,,,,,,,X V Q F H G B L J M P D K C T S W R N Z,5c9b0d631c8e140014d19fc5,41,Mężczyzna,2022-06-11_09h27.50.794,task,2021.1.4,Win32,30.0120048,6299f149e92ead563fba08ef,62a44338997204d6f31fe6a8,,,,,,,,,,,,,,,,,,,,,,,,,,,,,,,,,,,,,,,,,,,,,,,,,,,1,0,1,0,1,,,,,,,,,,,,,,,,,,,,,,,,,,,,,,,,,,,,,,,,,,,,,,
,,,,,,,,,,,,5c9b0d631c8e140014d19fc5,41,Mężczyzna,2022-06-11_09h27.50.794,task,2021.1.4,Win32,30.0120048,6299f149e92ead563fba08ef,62a44338997204d6f31fe6a8,,,,,,,,,,,,,,,,,,,,,,,,,,,,,,,,,,,,,,,,,,,,,,,,,,,,,,,,fg,"[""f"",""g""]",0,"[2.149000000000001,2.361000000000047,4.563000000000045]",1,1,0,1,0,1,,,,,,,,,,,,,,,,,,,,,,,,,,,,,,,,,,,,
,,,,,,,,,,,,5c9b0d631c8e140014d19fc5,41,Mężczyzna,2022-06-11_09h27.50.794,task,2021.1.4,Win32,30.0120048,6299f149e92ead563fba08ef,62a44338997204d6f31fe6a8,,,,,,,,,,,,,7,,,,,,,,,,Practice,8,(5x5) - 18,7,,,,,,,,,,,,,,,,"[""7""]",1,[4.84499999999997],1,0,0,0,7,1,,,,,,,,,,,,,,,,,,,,,,,,,,,,,,,,,,,,,,,,,,,,,,,,,,,
,,,,,,,,,,,X V Q F H G B L J M P D K C T S W R N Z,5c9b0d631c8e140014d19fc5,41,Mężczyzna,2022-06-11_09h27.50.794,task,2021.1.4,Win32,30.0120048,6299f149e92ead563fba08ef,62a44338997204d6f31fe6a8,,,,,,,,,,,,,,,,,,,,,,,,,,,,,,,,,,,,,,,,,,,,,,,,,,,0,0,0,0,1,,,,,,,,,,,,,,,,,,,,,,,,,,,,,,,,,,,,,,,,,,,,,,
,,,,,,,,,,,,5c9b0d631c8e140014d19fc5,41,Mężczyzna,2022-06-11_09h27.50.794,task,2021.1.4,Win32,30.0120048,6299f149e92ead563fba08ef,62a44338997204d6f31fe6a8,,,,,,,,,,,,,2,,,,,,,,,,Practice,3,(4x4) - 14,2,,,,,,,,,,,,,,,,"[""2""]",1,[3.1059999999999945],1,0,0,0,2,1,,,,,,,,,,,,,,,,,,,,,,,,,,,,,,,,,,,,,,,,,,,,,,,,,,,
,,,,,,,,,,,X V Q F H G B L J M P D K C T S W R N Z,5c9b0d631c8e140014d19fc5,41,Mężczyzna,2022-06-11_09h27.50.794,task,2021.1.4,Win32,30.0120048,6299f149e92ead563fba08ef,62a44338997204d6f31fe6a8,,,,,,,,,,,,,,,,,,,,,,,,,,,,,,,,,,,,,,,,,,,,,,,,,,,1,0,1,0,1,,,,,,,,,,,,,,,,,,,,,,,,,,,,,,,,,,,,,,,,,,,,,,
,,,,,,,,,,,,5c9b0d631c8e140014d19fc5,41,Mężczyzna,2022-06-11_09h27.50.794,task,2021.1.4,Win32,30.0120048,6299f149e92ead563fba08ef,62a44338997204d6f31fe6a8,,,,,,,,,,,,,,,,,,,,,,,,,,,,,,,,,,,,,,,,,,,,,,,,,,,,,,,,bq,"[""b"",""q""]",0,"[2.051999999999964,2.7229999999999563,3.6819999999999595]",1,2,0,2,0,1,,,,,,,,,,,,,,,,,,,,,,,,,,,,,,,,,,,,
,,,,,,,,,,,,5c9b0d631c8e140014d19fc5,41,Mężczyzna,2022-06-11_09h27.50.794,task,2021.1.4,Win32,30.0120048,6299f149e92ead563fba08ef,62a44338997204d6f31fe6a8,,,,,,,,,,,,,6,,,,,,,,,,Task,5,(2x3) + 0,6,,,,,,,,,,,,,,,,,,,1,,,,,,,,,,,,,,,,,,,,,space,32.062,"[""6""]",1,[3.451999999999998],0,0,0,4,1,,,,,,,,,,,,,,,,,,,,,,,,,,
,,,,,,,,,,,X V Q F H G B L J M P D K C T S W R N Z,5c9b0d631c8e140014d19fc5,41,Mężczyzna,2022-06-11_09h27.50.794,task,2021.1.4,Win32,30.0120048,6299f149e92ead563fba08ef,62a44338997204d6f31fe6a8,,,,,,,,,,,,,,,,,,,,,,,,,,,,,,,,,,,,,,,,,,,,,,,,,,,,,,,,,,,,,,,,,,,,,,,,,,,,0,0,0,0,1,,,,,,,,,,,,,,,,,,,,,
,,,,,,,,,,,,5c9b0d631c8e140014d19fc5,41,Mężczyzna,2022-06-11_09h27.50.794,task,2021.1.4,Win32,30.0120048,6299f149e92ead563fba08ef,62a44338997204d6f31fe6a8,,,,,,,,,,,,,0,,,,,,,,,,Task,33,(1/1) - 1,0,,,,,,,,,,,,,,,,,,,1,,,,,,,,,,,,,,,,,,,,,,,"[""0""]",1,[2.2479999999999336],0,0,0,32,1,,,,,,,,,,,,,,,,,,,,,,,,,,
,,,,,,,,,,,X V Q F H G B L J M P D K C T S W R N Z,5c9b0d631c8e140014d19fc5,41,Mężczyzna,2022-06-11_09h27.50.794,task,2021.1.4,Win32,30.0120048,6299f149e92ead563fba08ef,62a44338997204d6f31fe6a8,,,,,,,,,,,,,,,,,,,,,,,,,,,,,,,,,,,,,,,,,,,,,,,,,,,,,,,,,,,,,,,,,,,,,,,,,,,,1,0,1,0,1,,,,,,,,,,,,,,,,,,,,,
,,,,,,,,,,,,5c9b0d631c8e140014d19fc5,41,Mężczyzna,2022-06-11_09h27.50.794,task,2021.1.4,Win32,30.0120048,6299f149e92ead563fba08ef,62a44338997204d6f31fe6a8,,,,,,,,,,,,,,,,,,,,,,,,,,,,,,,,,,,,,,,,,,,,,,,,,,,,,,,,,,,,,,,,,,,,,,,,,,,,,,,,,zr,"[""z"",""r""]",0,"[1.9750000000000227,2.3799999999999955,3.4260000000000446]",1,ZR,0,0,0,0,1,,,,,,,,,,
,,,,,,,,,,,,5c9b0d631c8e140014d19fc5,41,Mężczyzna,2022-06-11_09h27.50.794,task,2021.1.4,Win32,30.0120048,6299f149e92ead563fba08ef,62a44338997204d6f31fe6a8,,,,,,,,,,,,,2,,,,,,,,,,Task,10,(2x5) - 8,2,,,,,,,,,,,,,,,,,,,1,,,,,,,,,,,,,,,,,,,,,,,"[""2""]",1,[2.5310000000000628],0,0,0,9,1,,,,,,,,,,,,,,,,,,,,,,,,,,
,,,,,,,,,,,X V Q F H G B L J M P D K C T S W R N Z,5c9b0d631c8e140014d19fc5,41,Mężczyzna,2022-06-11_09h27.50.794,task,2021.1.4,Win32,30.0120048,6299f149e92ead563fba08ef,62a44338997204d6f31fe6a8,,,,,,,,,,,,,,,,,,,,,,,,,,,,,,,,,,,,,,,,,,,,,,,,,,,,,,,,,,,,,,,,,,,,,,,,,,,,0,0,0,0,1,,,,,,,,,,,,,,,,,,,,,
,,,,,,,,,,,,5c9b0d631c8e140014d19fc5,41,Mężczyzna,2022-06-11_09h27.50.794,task,2021.1.4,Win32,30.0120048,6299f149e92ead563fba08ef,62a44338997204d6f31fe6a8,,,,,,,,,,,,,5,,,,,,,,,,Task,12,(4x4) - 11,5,,,,,,,,,,,,,,,,,,,1,,,,,,,,,,,,,,,,,,,,,,,"[""5""]",1,[3.5750000000000455],0,0,0,11,1,,,,,,,,,,,,,,,,,,,,,,,,,,
,,,,,,,,,,,X V Q F H G B L J M P D K C T S W R N Z,5c9b0d631c8e140014d19fc5,41,Mężczyzna,2022-06-11_09h27.50.794,task,2021.1.4,Win32,30.0120048,6299f149e92ead563fba08ef,62a44338997204d6f31fe6a8,,,,,,,,,,,,,,,,,,,,,,,,,,,,,,,,,,,,,,,,,,,,,,,,,,,,,,,,,,,,,,,,,,,,,,,,,,,,1,0,1,0,1,,,,,,,,,,,,,,,,,,,,,
,,,,,,,,,,,,5c9b0d631c8e140014d19fc5,41,Mężczyzna,2022-06-11_09h27.50.794,task,2021.1.4,Win32,30.0120048,6299f149e92ead563fba08ef,62a44338997204d6f31fe6a8,,,,,,,,,,,,,,,,,,,,,,,Task,16,(3x8) - 15,9,,,,,,,,,,,,,,,,,,,0,,,,,,,,,,,,,,,,,,,,,,,,0,,0,0,0,15,1,,,,,,,,,,,,,,,,,,,,,,,,,,
,,,,,,,,,,,,5c9b0d631c8e140014d19fc5,41,Mężczyzna,2022-06-11_09h27.50.794,task,2021.1.4,Win32,30.0120048,6299f149e92ead563fba08ef,62a44338997204d6f31fe6a8,,,,,,,,,,,,,0,,,,,,,,,,Task,8,(1x5) - 5,0,,,,,,,,,,,,,,,,,,,1,,,,,,,,,,,,,,,,,,,,,,,"[""0""]",1,[3.1639999999999873],0,1,1,7,1,,,,,,,,,,,,,,,,,,,,,,,,,,
,,,,,,,,,,,X V Q F H G B L J M P D K C T S W R N Z,5c9b0d631c8e140014d19fc5,41,Mężczyzna,2022-06-11_09h27.50.794,task,2021.1.4,Win32,30.0120048,6299f149e92ead563fba08ef,62a44338997204d6f31fe6a8,,,,,,,,,,,,,,,,,,,,,,,,,,,,,,,,,,,,,,,,,,,,,,,,,,,,,,,,,,,,,,,,,,,,,,,,,,,,2,0,2,0,1,,,,,,,,,,,,,,,,,,,,,
,,,,,,,,,,,,5c9b0d631c8e140014d19fc5,41,Mężczyzna,2022-06-11_09h27.50.794,task,2021.1.4,Win32,30.0120048,6299f149e92ead563fba08ef,62a44338997204d6f31fe6a8,,,,,,,,,,,,,,,,,,,,,,,,,,,,,,,,,,,,,,,,,,,,,,,,,,,,,,,,,,,,,,,,,,,,,,,,,,,,,,,,,cgg,"[""c"",""g"",""g""]",0,"[1.9510000000000218,2.269999999999982,2.4320000000000164,3.060000000000059]",1,CGG,1,0,1,0,1,,,,,,,,,,
,,,,,,,,,,,,5c9b0d631c8e140014d19fc5,41,Mężczyzna,2022-06-11_09h27.50.794,task,2021.1.4,Win32,30.0120048,6299f149e92ead563fba08ef,62a44338997204d6f31fe6a8,,,,,,,,,,,,,3,,,,,,,,,,Task,35,(1x2) + 1,3,,,,,,,,,,,,,,,,,,,1,,,,,,,,,,,,,,,,,,,,,,,"[""3""]",1,[2.1609999999999445],0,0,0,34,1,,,,,,,,,,,,,,,,,,,,,,,,,,
,,,,,,,,,,,X V Q F H G B L J M P D K C T S W R N Z,5c9b0d631c8e140014d19fc5,41,Mężczyzna,2022-06-11_09h27.50.794,task,2021.1.4,Win32,30.0120048,6299f149e92ead563fba08ef,62a44338997204d6f31fe6a8,,,,,,,,,,,,,,,,,,,,,,,,,,,,,,,,,,,,,,,,,,,,,,,,,,,,,,,,,,,,,,,,,,,,,,,,,,,,0,0,0,0,1,,,,,,,,,,,,,,,,,,,,,
,,,,,,,,,,,,5c9b0d631c8e140014d19fc5,41,Mężczyzna,2022-06-11_09h27.50.794,task,2021.1.4,Win32,30.0120048,6299f149e92ead563fba08ef,62a44338997204d6f31fe6a8,,,,,,,,,,,,,6,,,,,,,,,,Task,37,(3/3) + 5,6,,,,,,,,,,,,,,,,,,,1,,,,,,,,,,,,,,,,,,,,,,,"[""6""]",1,[2.961999999999989],0,0,0,36,1,,,,,,,,,,,,,,,,,,,,,,,,,,
,,,,,,,,,,,X V Q F H G B L J M P D K C T S W R N Z,5c9b0d631c8e140014d19fc5,41,Mężczyzna,2022-06-11_09h27.50.794,task,2021.1.4,Win32,30.0120048,6299f149e92ead563fba08ef,62a44338997204d6f31fe6a8,,,,,,,,,,,,,,,,,,,,,,,,,,,,,,,,,,,,,,,,,,,,,,,,,,,,,,,,,,,,,,,,,,,,,,,,,,,,1,0,1,0,1,,,,,,,,,,,,,,,,,,,,,
,,,,,,,,,,,,5c9b0d631c8e140014d19fc5,41,Mężczyzna,2022-06-11_09h27.50.794,task,2021.1.4,Win32,30.0120048,6299f149e92ead563fba08ef,62a44338997204d6f31fe6a8,,,,,,,,,,,,,3,,,,,,,,,,Task,3,(2x3) - 3,3,,,,,,,,,,,,,,,,,,,1,,,,,,,,,,,,,,,,,,,,,,,"[""3""]",1,[2.11099999999999],0,0,0,2,1,,,,,,,,,,,,,,,,,,,,,,,,,,
,,,,,,,,,,,X V Q F H G B L J M P D K C T S W R N Z,5c9b0d631c8e140014d19fc5,41,Mężczyzna,2022-06-11_09h27.50.794,task,2021.1.4,Win32,30.0120048,6299f149e92ead563fba08ef,62a44338997204d6f31fe6a8,,,,,,,,,,,,,,,,,,,,,,,,,,,,,,,,,,,,,,,,,,,,,,,,,,,,,,,,,,,,,,,,,,,,,,,,,,,,2,0,2,0,1,,,,,,,,,,,,,,,,,,,,,
,,,,,,,,,,,,5c9b0d631c8e140014d19fc5,41,Mężczyzna,2022-06-11_09h27.50.794,task,2021.1.4,Win32,30.0120048,6299f149e92ead563fba08ef,62a44338997204d6f31fe6a8,,,,,,,,,,,,,3,,,,,,,,,,Task,3,(2x3) - 3,3,,,,,,,,,,,,,,,,,,,1,,,,,,,,,,,,,,,,,,,,,,,"[""3""]",1,[2.73700000000008],0,0,0,2,1,,,,,,,,,,,,,,,,,,,,,,,,,,
,,,,,,,,,,,X V Q F H G B L J M P D K C T S W R N Z,5c9b0d631c8e140014d19fc5,41,Mężczyzna,2022-06-11_09h27.50.794,task,2021.1.4,Win32,30.0120048,6299f149e92ead563fba08ef,62a44338997204d6f31fe6a8,,,,,,,,,,,,,,,,,,,,,,,,,,,,,,,,,,,,,,,,,,,,,,,,,,,,,,,,,,,,,,,,,,,,,,,,,,,,3,0,3,0,1,,,,,,,,,,,,,,,,,,,,,
,,,,,,,,,,,,5c9b0d631c8e140014d19fc5,41,Mężczyzna,2022-06-11_09h27.50.794,task,2021.1.4,Win32,30.0120048,6299f149e92ead563fba08ef,62a44338997204d6f31fe6a8,,,,,,,,,,,,,,,,,,,,,,,,,,,,,,,,,,,,,,,,,,,,,,,,,,,,,,,,,,,,,,,,,,,,,,,,,,,,,,,,,tmdk,"[""t"",""m"",""d"",""k""]",0,"[3.855000000000018,4.44500000000005,5.014999999999986,5.456000000000017,6.8700000000000045]",1,TMDK,2,0,2,0,1,,,,,,,,,,
,,,,,,,,,,,,5c9b0d631c8e140014d19fc5,41,Mężczyzna,2022-06-11_09h27.50.794,task,2021.1.4,Win32,30.0120048,6299f149e92ead563fba08ef,62a44338997204d6f31fe6a8,,,,,,,,,,,,,7,,,,,,,,,,Task,14,(2x2) + 3,7,,,,,,,,,,,,,,,,,,,1,,,,,,,,,,,,,,,,,,,,,,,"[""7""]",1,[2.3210000000000264],0,0,0,13,1,,,,,,,,,,,,,,,,,,,,,,,,,,
,,,,,,,,,,,X V Q F H G B L J M P D K C T S W R N Z,5c9b0d631c8e140014d19fc5,41,Mężczyzna,2022-06-11_09h27.50.794,task,2021.1.4,Win32,30.0120048,6299f149e92ead563fba08ef,62a44338997204d6f31fe6a8,,,,,,,,,,,,,,,,,,,,,,,,,,,,,,,,,,,,,,,,,,,,,,,,,,,,,,,,,,,,,,,,,,,,,,,,,,,,0,0,0,0,1,,,,,,,,,,,,,,,,,,,,,
,,,,,,,,,,,,5c9b0d631c8e140014d19fc5,41,Mężczyzna,2022-06-11_09h27.50.794,task,2021.1.4,Win32,30.0120048,6299f149e92ead563fba08ef,62a44338997204d6f31fe6a8,,,,,,,,,,,,,9,,,,,,,,,,Task,7,(3x7) - 12,9,,,,,,,,,,,,,,,,,,,1,,,,,,,,,,,,,,,,,,,,,,,"[""9""]",1,[5.128999999999905],0,0,0,6,1,,,,,,,,,,,,,,,,,,,,,,,,,,
,,,,,,,,,,,X V Q F H G B L J M P D K C T S W R N Z,5c9b0d631c8e140014d19fc5,41,Mężczyzna,2022-06-11_09h27.50.794,task,2021.1.4,Win32,30.0120048,6299f149e92ead563fba08ef,62a44338997204d6f31fe6a8,,,,,,,,,,,,,,,,,,,,,,,,,,,,,,,,,,,,,,,,,,,,,,,,,,,,,,,,,,,,,,,,,,,,,,,,,,,,1,0,1,0,1,,,,,,,,,,,,,,,,,,,,,
,,,,,,,,,,,,5c9b0d631c8e140014d19fc5,41,Mężczyzna,2022-06-11_09h27.50.794,task,2021.1.4,Win32,30.0120048,6299f149e92ead563fba08ef,62a44338997204d6f31fe6a8,,,,,,,,,,,,,0,,,,,,,,,,Task,8,(1x5) - 5,0,,,,,,,,,,,,,,,,,,,1,,,,,,,,,,,,,,,,,,,,,,,"[""0""]",1,[1.8559999999999945],0,0,0,7,1,,,,,,,,,,,,,,,,,,,,,,,,,,
,,,,,,,,,,,X V Q F H G B L J M P D K C T S W R N Z,5c9b0d631c8e140014d19fc5,41,Mężczyzna,2022-06-11_09h27.50.794,task,2021.1.4,Win32,30.0120048,6299f149e92ead563fba08ef,62a44338997204d6f31fe6a8,,,,,,,,,,,,,,,,,,,,,,,,,,,,,,,,,,,,,,,,,,,,,,,,,,,,,,,,,,,,,,,,,,,,,,,,,,,,2,0,2,0,1,,,,,,,,,,,,,,,,,,,,,
,,,,,,,,,,,,5c9b0d631c8e140014d19fc5,41,Mężczyzna,2022-06-11_09h27.50.794,task,2021.1.4,Win32,30.0120048,6299f149e92ead563fba08ef,62a44338997204d6f31fe6a8,,,,,,,,,,,,,7,,,,,,,,,,Task,38,(4x6) - 17,7,,,,,,,,,,,,,,,,,,,1,,,,,,,,,,,,,,,,,,,,,,,"[""7""]",1,[5.040000000000077],0,0,0,37,1,,,,,,,,,,,,,,,,,,,,,,,,,,
,,,,,,,,,,,X V Q F H G B L J M P D K C T S W R N Z,5c9b0d631c8e140014d19fc5,41,Mężczyzna,2022-06-11_09h27.50.794,task,2021.1.4,Win32,30.0120048,6299f149e92ead563fba08ef,62a44338997204d6f31fe6a8,,,,,,,,,,,,,,,,,,,,,,,,,,,,,,,,,,,,,,,,,,,,,,,,,,,,,,,,,,,,,,,,,,,,,,,,,,,,3,0,3,0,1,,,,,,,,,,,,,,,,,,,,,
,,,,,,,,,,,,5c9b0d631c8e140014d19fc5,41,Mężczyzna,2022-06-11_09h27.50.794,task,2021.1.4,Win32,30.0120048,6299f149e92ead563fba08ef,62a44338997204d6f31fe6a8,,,,,,,,,,,,,4,,,,,,,,,,Task,11,(18/3) - 2,4,,,,,,,,,,,,,,,,,,,1,,,,,,,,,,,,,,,,,,,,,,,"[""4""]",1,[2.5510000000000446],0,0,0,10,1,,,,,,,,,,,,,,,,,,,,,,,,,,
,,,,,,,,,,,X V Q F H G B L J M P D K C T S W R N Z,5c9b0d631c8e140014d19fc5,41,Mężczyzna,2022-06-11_09h27.50.794,task,2021.1.4,Win32,30.0120048,6299f149e92ead563fba08ef,62a44338997204d6f31fe6a8,,,,,,,,,,,,,,,,,,,,,,,,,,,,,,,,,,,,,,,,,,,,,,,,,,,,,,,,,,,,,,,,,,,,,,,,,,,,4,0,4,0,1,,,,,,,,,,,,,,,,,,,,,
,,,,,,,,,,,,5c9b0d631c8e140014d19fc5,41,Mężczyzna,2022-06-11_09h27.50.794,task,2021.1.4,Win32,30.0120048,6299f149e92ead563fba08ef,62a44338997204d6f31fe6a8,,,,,,,,,,,,,,,,,,,,,,,,,,,,,,,,,,,,,,,,,,,,,,,,,,,,,,,,,,,,,,,,,,,,,,,,,,,,,,,,,qrmx,"[""q"",""r"",""m"",""x""]",0,"[1.7440000000000282,2.2830000000000155,3.6989999999999554,17.335000000000036,18.008000000000038]",0,QRNXM,3,0,3,0,1,,,,,,,,,,
,,,,,,,,,,,,5c9b0d631c8e140014d19fc5,41,Mężczyzna,2022-06-11_09h27.50.794,task,2021.1.4,Win32,30.0120048,6299f149e92ead563fba08ef,62a44338997204d6f31fe6a8,,,,,,,,,,,,,5,,,,,,,,,,Task,29,(3x8) - 19 ,5,,,,,,,,,,,,,,,,,,,1,,,,,,,,,,,,,,,,,,,,,,,"[""5""]",1,[4.344000000000051],0,0,0,28,1,,,,,,,,,,,,,,,,,,,,,,,,,,
,,,,,,,,,,,X V Q F H G B L J M P D K C T S W R N Z,5c9b0d631c8e140014d19fc5,41,Mężczyzna,2022-06-11_09h27.50.794,task,2021.1.4,Win32,30.0120048,6299f149e92ead563fba08ef,62a44338997204d6f31fe6a8,,,,,,,,,,,,,,,,,,,,,,,,,,,,,,,,,,,,,,,,,,,,,,,,,,,,,,,,,,,,,,,,,,,,,,,,,,,,0,0,0,0,1,,,,,,,,,,,,,,,,,,,,,
,,,,,,,,,,,,5c9b0d631c8e140014d19fc5,41,Mężczyzna,2022-06-11_09h27.50.794,task,2021.1.4,Win32,30.0120048,6299f149e92ead563fba08ef,62a44338997204d6f31fe6a8,,,,,,,,,,,,,6,,,,,,,,,,Task,13,(3x4) - 6,6,,,,,,,,,,,,,,,,,,,1,,,,,,,,,,,,,,,,,,,,,,,"[""6""]",1,[2.913000000000011],0,0,0,12,1,,,,,,,,,,,,,,,,,,,,,,,,,,
,,,,,,,,,,,X V Q F H G B L J M P D K C T S W R N Z,5c9b0d631c8e140014d19fc5,41,Mężczyzna,2022-06-11_09h27.50.794,task,2021.1.4,Win32,30.0120048,6299f149e92ead563fba08ef,62a44338997204d6f31fe6a8,,,,,,,,,,,,,,,,,,,,,,,,,,,,,,,,,,,,,,,,,,,,,,,,,,,,,,,,,,,,,,,,,,,,,,,,,,,,1,0,1,0,1,,,,,,,,,,,,,,,,,,,,,
,,,,,,,,,,,,5c9b0d631c8e140014d19fc5,41,Mężczyzna,2022-06-11_09h27.50.794,task,2021.1.4,Win32,30.0120048,6299f149e92ead563fba08ef,62a44338997204d6f31fe6a8,,,,,,,,,,,,,9,,,,,,,,,,Task,16,(3x8) - 15,9,,,,,,,,,,,,,,,,,,,1,,,,,,,,,,,,,,,,,,,,,,,"[""9""]",1,[3.9909999999999854],0,0,0,15,1,,,,,,,,,,,,,,,,,,,,,,,,,,
,,,,,,,,,,,X V Q F H G B L J M P D K C T S W R N Z,5c9b0d631c8e140014d19fc5,41,Mężczyzna,2022-06-11_09h27.50.794,task,2021.1.4,Win32,30.0120048,6299f149e92ead563fba08ef,62a44338997204d6f31fe6a8,,,,,,,,,,,,,,,,,,,,,,,,,,,,,,,,,,,,,,,,,,,,,,,,,,,,,,,,,,,,,,,,,,,,,,,,,,,,2,0,2,0,1,,,,,,,,,,,,,,,,,,,,,
,,,,,,,,,,,,5c9b0d631c8e140014d19fc5,41,Mężczyzna,2022-06-11_09h27.50.794,task,2021.1.4,Win32,30.0120048,6299f149e92ead563fba08ef,62a44338997204d6f31fe6a8,,,,,,,,,,,,,9,,,,,,,,,,Task,16,(3x8) - 15,9,,,,,,,,,,,,,,,,,,,1,,,,,,,,,,,,,,,,,,,,,,,"[""9""]",1,[3.711999999999989],0,0,0,15,1,,,,,,,,,,,,,,,,,,,,,,,,,,
,,,,,,,,,,,X V Q F H G B L J M P D K C T S W R N Z,5c9b0d631c8e140014d19fc5,41,Mężczyzna,2022-06-11_09h27.50.794,task,2021.1.4,Win32,30.0120048,6299f149e92ead563fba08ef,62a44338997204d6f31fe6a8,,,,,,,,,,,,,,,,,,,,,,,,,,,,,,,,,,,,,,,,,,,,,,,,,,,,,,,,,,,,,,,,,,,,,,,,,,,,3,0,3,0,1,,,,,,,,,,,,,,,,,,,,,
,,,,,,,,,,,,5c9b0d631c8e140014d19fc5,41,Mężczyzna,2022-06-11_09h27.50.794,task,2021.1.4,Win32,30.0120048,6299f149e92ead563fba08ef,62a44338997204d6f31fe6a8,,,,,,,,,,,,,3,,,,,,,,,,Task,20,(18/9) + 1,3,,,,,,,,,,,,,,,,,,,1,,,,,,,,,,,,,,,,,,,,,,,"[""3""]",1,[3.050999999999931],0,0,0,19,1,,,,,,,,,,,,,,,,,,,,,,,,,,
,,,,,,,,,,,X V Q F H G B L J M P D K C T S W R N Z,5c9b0d631c8e140014d19fc5,41,Mężczyzna,2022-06-11_09h27.50.794,task,2021.1.4,Win32,30.0120048,6299f149e92ead563fba08ef,62a44338997204d6f31fe6a8,,,,,,,,,,,,,,,,,,,,,,,,,,,,,,,,,,,,,,,,,,,,,,,,,,,,,,,,,,,,,,,,,,,,,,,,,,,,4,0,4,0,1,,,,,,,,,,,,,,,,,,,,,
,,,,,,,,,,,,5c9b0d631c8e140014d19fc5,41,Mężczyzna,2022-06-11_09h27.50.794,task,2021.1.4,Win32,30.0120048,6299f149e92ead563fba08ef,62a44338997204d6f31fe6a8,,,,,,,,,,,,,,,,,,,,,,,,,,,,,,,,,,,,,,,,,,,,,,,,,,,,,,,,,,,,,,,,,,,,,,,,,,,,,,,,,mgphd,"[""m"",""g"",""p"",""h"",""d""]",0,"[1.9009999999999536,2.7250000000000227,3.4879999999999427,5.178999999999974,5.812999999999988,7.595000000000027]",1,MGPHD,4,0,4,0,1,,,,,,,,,,
,,,,,,,,,,,,5c9b0d631c8e140014d19fc5,41,Mężczyzna,2022-06-11_09h27.50.794,task,2021.1.4,Win32,30.0120048,6299f149e92ead563fba08ef,62a44338997204d6f31fe6a8,,,,,,,,,,,,,8,,,,,,,,,,Task,23,(2x3) + 2,8,,,,,,,,,,,,,,,,,,,1,,,,,,,,,,,,,,,,,,,,,,,"[""8""]",1,[2.4020000000000437],0,0,0,22,1,,,,,,,,,,,,,,,,,,,,,,,,,,
,,,,,,,,,,,X V Q F H G B L J M P D K C T S W R N Z,5c9b0d631c8e140014d19fc5,41,Mężczyzna,2022-06-11_09h27.50.794,task,2021.1.4,Win32,30.0120048,6299f149e92ead563fba08ef,62a44338997204d6f31fe6a8,,,,,,,,,,,,,,,,,,,,,,,,,,,,,,,,,,,,,,,,,,,,,,,,,,,,,,,,,,,,,,,,,,,,,,,,,,,,0,0,0,0,1,,,,,,,,,,,,,,,,,,,,,
,,,,,,,,,,,,5c9b0d631c8e140014d19fc5,41,Mężczyzna,2022-06-11_09h27.50.794,task,2021.1.4,Win32,30.0120048,6299f149e92ead563fba08ef,62a44338997204d6f31fe6a8,,,,,,,,,,,,,6,,,,,,,,,,Task,13,(3x4) - 6,6,,,,,,,,,,,,,,,,,,,1,,,,,,,,,,,,,,,,,,,,,,,"[""6""]",1,[2.3150000000000546],0,0,0,12,1,,,,,,,,,,,,,,,,,,,,,,,,,,
,,,,,,,,,,,X V Q F H G B L J M P D K C T S W R N Z,5c9b0d631c8e140014d19fc5,41,Mężczyzna,2022-06-11_09h27.50.794,task,2021.1.4,Win32,30.0120048,6299f149e92ead563fba08ef,62a44338997204d6f31fe6a8,,,,,,,,,,,,,,,,,,,,,,,,,,,,,,,,,,,,,,,,,,,,,,,,,,,,,,,,,,,,,,,,,,,,,,,,,,,,1,0,1,0,1,,,,,,,,,,,,,,,,,,,,,
,,,,,,,,,,,,5c9b0d631c8e140014d19fc5,41,Mężczyzna,2022-06-11_09h27.50.794,task,2021.1.4,Win32,30.0120048,6299f149e92ead563fba08ef,62a44338997204d6f31fe6a8,,,,,,,,,,,,,4,,,,,,,,,,Task,21,(10/2) - 1,4,,,,,,,,,,,,,,,,,,,1,,,,,,,,,,,,,,,,,,,,,,,"[""4""]",1,[3.1140000000000327],0,0,0,20,1,,,,,,,,,,,,,,,,,,,,,,,,,,
,,,,,,,,,,,X V Q F H G B L J M P D K C T S W R N Z,5c9b0d631c8e140014d19fc5,41,Mężczyzna,2022-06-11_09h27.50.794,task,2021.1.4,Win32,30.0120048,6299f149e92ead563fba08ef,62a44338997204d6f31fe6a8,,,,,,,,,,,,,,,,,,,,,,,,,,,,,,,,,,,,,,,,,,,,,,,,,,,,,,,,,,,,,,,,,,,,,,,,,,,,2,0,2,0,1,,,,,,,,,,,,,,,,,,,,,
,,,,,,,,,,,,5c9b0d631c8e140014d19fc5,41,Mężczyzna,2022-06-11_09h27.50.794,task,2021.1.4,Win32,30.0120048,6299f149e92ead563fba08ef,62a44338997204d6f31fe6a8,,,,,,,,,,,,,4,,,,,,,,,,Task,28,(2x5) - 6,4,,,,,,,,,,,,,,,,,,,1,,,,,,,,,,,,,,,,,,,,,,,"[""4""]",1,[1.8959999999999582],0,0,0,27,1,,,,,,,,,,,,,,,,,,,,,,,,,,
,,,,,,,,,,,X V Q F H G B L J M P D K C T S W R N Z,5c9b0d631c8e140014d19fc5,41,Mężczyzna,2022-06-11_09h27.50.794,task,2021.1.4,Win32,30.0120048,6299f149e92ead563fba08ef,62a44338997204d6f31fe6a8,,,,,,,,,,,,,,,,,,,,,,,,,,,,,,,,,,,,,,,,,,,,,,,,,,,,,,,,,,,,,,,,,,,,,,,,,,,,3,0,3,0,1,,,,,,,,,,,,,,,,,,,,,
,,,,,,,,,,,,5c9b0d631c8e140014d19fc5,41,Mężczyzna,2022-06-11_09h27.50.794,task,2021.1.4,Win32,30.0120048,6299f149e92ead563fba08ef,62a44338997204d6f31fe6a8,,,,,,,,,,,,,1,,,,,,,,,,Task,9,(3x7) - 20,1,,,,,,,,,,,,,,,,,,,1,,,,,,,,,,,,,,,,,,,,,,,"[""1""]",1,[2.1929999999999836],0,0,0,8,1,,,,,,,,,,,,,,,,,,,,,,,,,,
,,,,,,,,,,,X V Q F H G B L J M P D K C T S W R N Z,5c9b0d631c8e140014d19fc5,41,Mężczyzna,2022-06-11_09h27.50.794,task,2021.1.4,Win32,30.0120048,6299f149e92ead563fba08ef,62a44338997204d6f31fe6a8,,,,,,,,,,,,,,,,,,,,,,,,,,,,,,,,,,,,,,,,,,,,,,,,,,,,,,,,,,,,,,,,,,,,,,,,,,,,4,0,4,0,1,,,,,,,,,,,,,,,,,,,,,
,,,,,,,,,,,,5c9b0d631c8e140014d19fc5,41,Mężczyzna,2022-06-11_09h27.50.794,task,2021.1.4,Win32,30.0120048,6299f149e92ead563fba08ef,62a44338997204d6f31fe6a8,,,,,,,,,,,,,5,,,,,,,,,,Task,12,(4x4) - 11,5,,,,,,,,,,,,,,,,,,,1,,,,,,,,,,,,,,,,,,,,,,,"[""5""]",1,[2.933999999999969],0,0,0,11,1,,,,,,,,,,,,,,,,,,,,,,,,,,
,,,,,,,,,,,X V Q F H G B L J M P D K C T S W R N Z,5c9b0d631c8e140014d19fc5,41,Mężczyzna,2022-06-11_09h27.50.794,task,2021.1.4,Win32,30.0120048,6299f149e92ead563fba08ef,62a44338997204d6f31fe6a8,,,,,,,,,,,,,,,,,,,,,,,,,,,,,,,,,,,,,,,,,,,,,,,,,,,,,,,,,,,,,,,,,,,,,,,,,,,,5,0,5,0,1,,,,,,,,,,,,,,,,,,,,,
,,,,,,,,,,,,5c9b0d631c8e140014d19fc5,41,Mężczyzna,2022-06-11_09h27.50.794,task,2021.1.4,Win32,30.0120048,6299f149e92ead563fba08ef,62a44338997204d6f31fe6a8,,,,,,,,,,,,,,,,,,,,,,,,,,,,,,,,,,,,,,,,,,,,,,,,,,,,,,,,,,,,,,,,,,,,,,,,,,,,,,,,,jlffff,"[""j"",""l"",""f"",""f"",""f"",""f""]",0,"[2.3079999999999927,2.9990000000000236,4.1059999999999945,4.461000000000013,4.775000000000091,5.163000000000011,6.634999999999991]",1,JLFFFF,5,0,5,0,1,,,,,,,,,,
,,,,,,,,,,,,5c9b0d631c8e140014d19fc5,41,Mężczyzna,2022-06-11_09h27.50.794,task,2021.1.4,Win32,30.0120048,6299f149e92ead563fba08ef,62a44338997204d6f31fe6a8,,,,,,,,,,,,,6,,,,,,,,,,Task,30,(6/3) + 4 ,6,,,,,,,,,,,,,,,,,,,1,,,,,,,,,,,,,,,,,,,,,,,"[""6""]",1,[3.29099999999994],0,0,0,29,1,,,,,,,,,,,,,,,,,,,,,,,,,,
,,,,,,,,,,,X V Q F H G B L J M P D K C T S W R N Z,5c9b0d631c8e140014d19fc5,41,Mężczyzna,2022-06-11_09h27.50.794,task,2021.1.4,Win32,30.0120048,6299f149e92ead563fba08ef,62a44338997204d6f31fe6a8,,,,,,,,,,,,,,,,,,,,,,,,,,,,,,,,,,,,,,,,,,,,,,,,,,,,,,,,,,,,,,,,,,,,,,,,,,,,0,0,0,0,1,,,,,,,,,,,,,,,,,,,,,
,,,,,,,,,,,,5c9b0d631c8e140014d19fc5,41,Mężczyzna,2022-06-11_09h27.50.794,task,2021.1.4,Win32,30.0120048,6299f149e92ead563fba08ef,62a44338997204d6f31fe6a8,,,,,,,,,,,,,6,,,,,,,,,,Task,5,(2x3) + 0,6,,,,,,,,,,,,,,,,,,,1,,,,,,,,,,,,,,,,,,,,,,,"[""6""]",1,[1.6989999999999554],0,0,0,4,1,,,,,,,,,,,,,,,,,,,,,,,,,,
,,,,,,,,,,,X V Q F H G B L J M P D K C T S W R N Z,5c9b0d631c8e140014d19fc5,41,Mężczyzna,2022-06-11_09h27.50.794,task,2021.1.4,Win32,30.0120048,6299f149e92ead563fba08ef,62a44338997204d6f31fe6a8,,,,,,,,,,,,,,,,,,,,,,,,,,,,,,,,,,,,,,,,,,,,,,,,,,,,,,,,,,,,,,,,,,,,,,,,,,,,1,0,1,0,1,,,,,,,,,,,,,,,,,,,,,
,,,,,,,,,,,,5c9b0d631c8e140014d19fc5,41,Mężczyzna,2022-06-11_09h27.50.794,task,2021.1.4,Win32,30.0120048,6299f149e92ead563fba08ef,62a44338997204d6f31fe6a8,,,,,,,,,,,,,8,,,,,,,,,,Task,39,(5x3) - 7,8,,,,,,,,,,,,,,,,,,,1,,,,,,,,,,,,,,,,,,,,,,,"[""8""]",1,[3.005999999999972],0,0,0,38,1,,,,,,,,,,,,,,,,,,,,,,,,,,
,,,,,,,,,,,X V Q F H G B L J M P D K C T S W R N Z,5c9b0d631c8e140014d19fc5,41,Mężczyzna,2022-06-11_09h27.50.794,task,2021.1.4,Win32,30.0120048,6299f149e92ead563fba08ef,62a44338997204d6f31fe6a8,,,,,,,,,,,,,,,,,,,,,,,,,,,,,,,,,,,,,,,,,,,,,,,,,,,,,,,,,,,,,,,,,,,,,,,,,,,,2,0,2,0,1,,,,,,,,,,,,,,,,,,,,,
,,,,,,,,,,,,5c9b0d631c8e140014d19fc5,41,Mężczyzna,2022-06-11_09h27.50.794,task,2021.1.4,Win32,30.0120048,6299f149e92ead563fba08ef,62a44338997204d6f31fe6a8,,,,,,,,,,,,,7,,,,,,,,,,Task,38,(4x6) - 17,7,,,,,,,,,,,,,,,,,,,1,,,,,,,,,,,,,,,,,,,,,,,"[""7""]",1,[2.919999999999959],0,0,0,37,1,,,,,,,,,,,,,,,,,,,,,,,,,,
,,,,,,,,,,,X V Q F H G B L J M P D K C T S W R N Z,5c9b0d631c8e140014d19fc5,41,Mężczyzna,2022-06-11_09h27.50.794,task,2021.1.4,Win32,30.0120048,6299f149e92ead563fba08ef,62a44338997204d6f31fe6a8,,,,,,,,,,,,,,,,,,,,,,,,,,,,,,,,,,,,,,,,,,,,,,,,,,,,,,,,,,,,,,,,,,,,,,,,,,,,3,0,3,0,1,,,,,,,,,,,,,,,,,,,,,
,,,,,,,,,,,,5c9b0d631c8e140014d19fc5,41,Mężczyzna,2022-06-11_09h27.50.794,task,2021.1.4,Win32,30.0120048,6299f149e92ead563fba08ef,62a44338997204d6f31fe6a8,,,,,,,,,,,,,1,,,,,,,,,,Task,9,(3x7) - 20,1,,,,,,,,,,,,,,,,,,,1,,,,,,,,,,,,,,,,,,,,,,,"[""1""]",1,[1.9320000000000164],0,0,0,8,1,,,,,,,,,,,,,,,,,,,,,,,,,,
,,,,,,,,,,,X V Q F H G B L J M P D K C T S W R N Z,5c9b0d631c8e140014d19fc5,41,Mężczyzna,2022-06-11_09h27.50.794,task,2021.1.4,Win32,30.0120048,6299f149e92ead563fba08ef,62a44338997204d6f31fe6a8,,,,,,,,,,,,,,,,,,,,,,,,,,,,,,,,,,,,,,,,,,,,,,,,,,,,,,,,,,,,,,,,,,,,,,,,,,,,4,0,4,0,1,,,,,,,,,,,,,,,,,,,,,
,,,,,,,,,,,,5c9b0d631c8e140014d19fc5,41,Mężczyzna,2022-06-11_09h27.50.794,task,2021.1.4,Win32,30.0120048,6299f149e92ead563fba08ef,62a44338997204d6f31fe6a8,,,,,,,,,,,,,2,,,,,,,,,,Task,26,(2x9) - 16,2,,,,,,,,,,,,,,,,,,,1,,,,,,,,,,,,,,,,,,,,,,,"[""2""]",1,[2.0850000000000364],0,0,0,25,1,,,,,,,,,,,,,,,,,,,,,,,,,,
,,,,,,,,,,,X V Q F H G B L J M P D K C T S W R N Z,5c9b0d631c8e140014d19fc5,41,Mężczyzna,2022-06-11_09h27.50.794,task,2021.1.4,Win32,30.0120048,6299f149e92ead563fba08ef,62a44338997204d6f31fe6a8,,,,,,,,,,,,,,,,,,,,,,,,,,,,,,,,,,,,,,,,,,,,,,,,,,,,,,,,,,,,,,,,,,,,,,,,,,,,5,0,5,0,1,,,,,,,,,,,,,,,,,,,,,
,,,,,,,,,,,,5c9b0d631c8e140014d19fc5,41,Mężczyzna,2022-06-11_09h27.50.794,task,2021.1.4,Win32,30.0120048,6299f149e92ead563fba08ef,62a44338997204d6f31fe6a8,,,,,,,,,,,,,0,,,,,,,,,,Task,33,(1/1) - 1,0,,,,,,,,,,,,,,,,,,,1,,,,,,,,,,,,,,,,,,,,,,,"[""0""]",1,[1.5470000000000255],0,0,0,32,1,,,,,,,,,,,,,,,,,,,,,,,,,,
,,,,,,,,,,,X V Q F H G B L J M P D K C T S W R N Z,5c9b0d631c8e140014d19fc5,41,Mężczyzna,2022-06-11_09h27.50.794,task,2021.1.4,Win32,30.0120048,6299f149e92ead563fba08ef,62a44338997204d6f31fe6a8,,,,,,,,,,,,,,,,,,,,,,,,,,,,,,,,,,,,,,,,,,,,,,,,,,,,,,,,,,,,,,,,,,,,,,,,,,,,6,0,6,0,1,,,,,,,,,,,,,,,,,,,,,
,,,,,,,,,,,,5c9b0d631c8e140014d19fc5,41,Mężczyzna,2022-06-11_09h27.50.794,task,2021.1.4,Win32,30.0120048,6299f149e92ead563fba08ef,62a44338997204d6f31fe6a8,,,,,,,,,,,,,,,,,,,,,,,,,,,,,,,,,,,,,,,,,,,,,,,,,,,,,,,,,,,,,,,,,,,,,,,,,,,,,,,,,qmrqdkg,"[""q"",""m"",""r"",""q"",""d"",""k"",""g""]",0,"[2.0610000000000355,2.533999999999992,4.91700000000003,5.620999999999981,6.091000000000008,6.831000000000017,14.779999999999973,16.024999999999977]",1,QMRQDKG,6,0,6,0,1,,,,,,,,,,
,,,,,,,,,,,,5c9b0d631c8e140014d19fc5,41,Mężczyzna,2022-06-11_09h27.50.794,task,2021.1.4,Win32,30.0120048,6299f149e92ead563fba08ef,62a44338997204d6f31fe6a8,,,,,,,,,,,,,2,,,,,,,,,,Task,26,(2x9) - 16,2,,,,,,,,,,,,,,,,,,,1,,,,,,,,,,,,,,,,,,,,,,,"[""2""]",1,[2.0179999999999154],0,0,0,25,1,,,,,,,,,,,,,,,,,,,,,,,,,,
,,,,,,,,,,,X V Q F H G B L J M P D K C T S W R N Z,5c9b0d631c8e140014d19fc5,41,Mężczyzna,2022-06-11_09h27.50.794,task,2021.1.4,Win32,30.0120048,6299f149e92ead563fba08ef,62a44338997204d6f31fe6a8,,,,,,,,,,,,,,,,,,,,,,,,,,,,,,,,,,,,,,,,,,,,,,,,,,,,,,,,,,,,,,,,,,,,,,,,,,,,0,0,0,0,1,,,,,,,,,,,,,,,,,,,,,
,,,,,,,,,,,,5c9b0d631c8e140014d19fc5,41,Mężczyzna,2022-06-11_09h27.50.794,task,2021.1.4,Win32,30.0120048,6299f149e92ead563fba08ef,62a44338997204d6f31fe6a8,,,,,,,,,,,,,3,,,,,,,,,,Task,3,(2x3) - 3,3,,,,,,,,,,,,,,,,,,,1,,,,,,,,,,,,,,,,,,,,,,,"[""3""]",1,[1.891999999999939],0,0,0,2,1,,,,,,,,,,,,,,,,,,,,,,,,,,
,,,,,,,,,,,X V Q F H G B L J M P D K C T S W R N Z,5c9b0d631c8e140014d19fc5,41,Mężczyzna,2022-06-11_09h27.50.794,task,2021.1.4,Win32,30.0120048,6299f149e92ead563fba08ef,62a44338997204d6f31fe6a8,,,,,,,,,,,,,,,,,,,,,,,,,,,,,,,,,,,,,,,,,,,,,,,,,,,,,,,,,,,,,,,,,,,,,,,,,,,,1,0,1,0,1,,,,,,,,,,,,,,,,,,,,,
,,,,,,,,,,,,5c9b0d631c8e140014d19fc5,41,Mężczyzna,2022-06-11_09h27.50.794,task,2021.1.4,Win32,30.0120048,6299f149e92ead563fba08ef,62a44338997204d6f31fe6a8,,,,,,,,,,,,,9,,,,,,,,,,Task,24,(2x2) + 5,9,,,,,,,,,,,,,,,,,,,1,,,,,,,,,,,,,,,,,,,,,,,"[""9""]",1,[2.719000000000051],0,0,0,23,1,,,,,,,,,,,,,,,,,,,,,,,,,,
,,,,,,,,,,,X V Q F H G B L J M P D K C T S W R N Z,5c9b0d631c8e140014d19fc5,41,Mężczyzna,2022-06-11_09h27.50.794,task,2021.1.4,Win32,30.0120048,6299f149e92ead563fba08ef,62a44338997204d6f31fe6a8,,,,,,,,,,,,,,,,,,,,,,,,,,,,,,,,,,,,,,,,,,,,,,,,,,,,,,,,,,,,,,,,,,,,,,,,,,,,2,0,2,0,1,,,,,,,,,,,,,,,,,,,,,
,,,,,,,,,,,,5c9b0d631c8e140014d19fc5,41,Mężczyzna,2022-06-11_09h27.50.794,task,2021.1.4,Win32,30.0120048,6299f149e92ead563fba08ef,62a44338997204d6f31fe6a8,,,,,,,,,,,,,1,,,,,,,,,,Task,18,(16/4) - 3,1,,,,,,,,,,,,,,,,,,,1,,,,,,,,,,,,,,,,,,,,,,,"[""1""]",1,[2.1329999999999245],0,0,0,17,1,,,,,,,,,,,,,,,,,,,,,,,,,,
,,,,,,,,,,,X V Q F H G B L J M P D K C T S W R N Z,5c9b0d631c8e140014d19fc5,41,Mężczyzna,2022-06-11_09h27.50.794,task,2021.1.4,Win32,30.0120048,6299f149e92ead563fba08ef,62a44338997204d6f31fe6a8,,,,,,,,,,,,,,,,,,,,,,,,,,,,,,,,,,,,,,,,,,,,,,,,,,,,,,,,,,,,,,,,,,,,,,,,,,,,3,0,3,0,1,,,,,,,,,,,,,,,,,,,,,
,,,,,,,,,,,,5c9b0d631c8e140014d19fc5,41,Mężczyzna,2022-06-11_09h27.50.794,task,2021.1.4,Win32,30.0120048,6299f149e92ead563fba08ef,62a44338997204d6f31fe6a8,,,,,,,,,,,,,2,,,,,,,,,,Task,26,(2x9) - 16,2,,,,,,,,,,,,,,,,,,,1,,,,,,,,,,,,,,,,,,,,,,,"[""2""]",1,[2.225999999999999],0,0,0,25,1,,,,,,,,,,,,,,,,,,,,,,,,,,
,,,,,,,,,,,X V Q F H G B L J M P D K C T S W R N Z,5c9b0d631c8e140014d19fc5,41,Mężczyzna,2022-06-11_09h27.50.794,task,2021.1.4,Win32,30.0120048,6299f149e92ead563fba08ef,62a44338997204d6f31fe6a8,,,,,,,,,,,,,,,,,,,,,,,,,,,,,,,,,,,,,,,,,,,,,,,,,,,,,,,,,,,,,,,,,,,,,,,,,,,,4,0,4,0,1,,,,,,,,,,,,,,,,,,,,,
,,,,,,,,,,,,5c9b0d631c8e140014d19fc5,41,Mężczyzna,2022-06-11_09h27.50.794,task,2021.1.4,Win32,30.0120048,6299f149e92ead563fba08ef,62a44338997204d6f31fe6a8,,,,,,,,,,,,,5,,,,,,,,,,Task,12,(4x4) - 11,5,,,,,,,,,,,,,,,,,,,1,,,,,,,,,,,,,,,,,,,,,,,"[""5""]",1,[2.0330000000000155],0,0,0,11,1,,,,,,,,,,,,,,,,,,,,,,,,,,
,,,,,,,,,,,X V Q F H G B L J M P D K C T S W R N Z,5c9b0d631c8e140014d19fc5,41,Mężczyzna,2022-06-11_09h27.50.794,task,2021.1.4,Win32,30.0120048,6299f149e92ead563fba08ef,62a44338997204d6f31fe6a8,,,,,,,,,,,,,,,,,,,,,,,,,,,,,,,,,,,,,,,,,,,,,,,,,,,,,,,,,,,,,,,,,,,,,,,,,,,,5,0,5,0,1,,,,,,,,,,,,,,,,,,,,,
,,,,,,,,,,,,5c9b0d631c8e140014d19fc5,41,Mężczyzna,2022-06-11_09h27.50.794,task,2021.1.4,Win32,30.0120048,6299f149e92ead563fba08ef,62a44338997204d6f31fe6a8,,,,,,,,,,,,,8,,,,,,,,,,Task,32,(8/2) + 4,8,,,,,,,,,,,,,,,,,,,1,,,,,,,,,,,,,,,,,,,,,,,"[""8""]",1,[5.405999999999949],0,0,0,31,1,,,,,,,,,,,,,,,,,,,,,,,,,,
,,,,,,,,,,,X V Q F H G B L J M P D K C T S W R N Z,5c9b0d631c8e140014d19fc5,41,Mężczyzna,2022-06-11_09h27.50.794,task,2021.1.4,Win32,30.0120048,6299f149e92ead563fba08ef,62a44338997204d6f31fe6a8,,,,,,,,,,,,,,,,,,,,,,,,,,,,,,,,,,,,,,,,,,,,,,,,,,,,,,,,,,,,,,,,,,,,,,,,,,,,6,0,6,0,1,,,,,,,,,,,,,,,,,,,,,
,,,,,,,,,,,,5c9b0d631c8e140014d19fc5,41,Mężczyzna,2022-06-11_09h27.50.794,task,2021.1.4,Win32,30.0120048,6299f149e92ead563fba08ef,62a44338997204d6f31fe6a8,,,,,,,,,,,,,7,,,,,,,,,,Task,31,(4/2) + 5,7,,,,,,,,,,,,,,,,,,,1,,,,,,,,,,,,,,,,,,,,,,,"[""7""]",1,[2.6649999999999636],0,0,0,30,1,,,,,,,,,,,,,,,,,,,,,,,,,,
,,,,,,,,,,,X V Q F H G B L J M P D K C T S W R N Z,5c9b0d631c8e140014d19fc5,41,Mężczyzna,2022-06-11_09h27.50.794,task,2021.1.4,Win32,30.0120048,6299f149e92ead563fba08ef,62a44338997204d6f31fe6a8,,,,,,,,,,,,,,,,,,,,,,,,,,,,,,,,,,,,,,,,,,,,,,,,,,,,,,,,,,,,,,,,,,,,,,,,,,,,7,0,7,0,1,,,,,,,,,,,,,,,,,,,,,
,,,,,,,,,,,,5c9b0d631c8e140014d19fc5,41,Mężczyzna,2022-06-11_09h27.50.794,task,2021.1.4,Win32,30.0120048,6299f149e92ead563fba08ef,62a44338997204d6f31fe6a8,,,,,,,,,,,,,,,,,,,,,,,,,,,,,,,,,,,,,,,,,,,,,,,,,,,,,,,,,,,,,,,,,,,,,,,,,,,,,,,,,tqjmnbd,"[""t"",""q"",""j"",""m"",""n"",""b"",""d""]",0,"[2.814999999999941,3.3740000000000236,3.90199999999993,6.477999999999952,18.94399999999996,20.140999999999963,20.559999999999945,21.594999999999914]",0,TQJNBTDR,7,0,7,0,1,,,,,,,,,,
,,,,,,,,,,,,5c9b0d631c8e140014d19fc5,41,Mężczyzna,2022-06-11_09h27.50.794,task,2021.1.4,Win32,30.0120048,6299f149e92ead563fba08ef,62a44338997204d6f31fe6a8,,,,,,,,,,,,,3,,,,,,,,,,Task,3,(2x3) - 3,3,,,,,,,,,,,,,,,,,,,1,,,,,,,,,,,,,,,,,,,,,,,"[""3""]",1,[1.9739999999999327],0,0,0,2,1,,,,,,,,,,,,,,,,,,,,,,,,,,
,,,,,,,,,,,X V Q F H G B L J M P D K C T S W R N Z,5c9b0d631c8e140014d19fc5,41,Mężczyzna,2022-06-11_09h27.50.794,task,2021.1.4,Win32,30.0120048,6299f149e92ead563fba08ef,62a44338997204d6f31fe6a8,,,,,,,,,,,,,,,,,,,,,,,,,,,,,,,,,,,,,,,,,,,,,,,,,,,,,,,,,,,,,,,,,,,,,,,,,,,,0,0,0,0,1,,,,,,,,,,,,,,,,,,,,,
,,,,,,,,,,,,5c9b0d631c8e140014d19fc5,41,Mężczyzna,2022-06-11_09h27.50.794,task,2021.1.4,Win32,30.0120048,6299f149e92ead563fba08ef,62a44338997204d6f31fe6a8,,,,,,,,,,,,,8,,,,,,,,,,Task,32,(8/2) + 4,8,,,,,,,,,,,,,,,,,,,1,,,,,,,,,,,,,,,,,,,,,,,"[""8""]",1,[2.919999999999959],0,0,0,31,1,,,,,,,,,,,,,,,,,,,,,,,,,,
,,,,,,,,,,,X V Q F H G B L J M P D K C T S W R N Z,5c9b0d631c8e140014d19fc5,41,Mężczyzna,2022-06-11_09h27.50.794,task,2021.1.4,Win32,30.0120048,6299f149e92ead563fba08ef,62a44338997204d6f31fe6a8,,,,,,,,,,,,,,,,,,,,,,,,,,,,,,,,,,,,,,,,,,,,,,,,,,,,,,,,,,,,,,,,,,,,,,,,,,,,1,0,1,0,1,,,,,,,,,,,,,,,,,,,,,
,,,,,,,,,,,,5c9b0d631c8e140014d19fc5,41,Mężczyzna,2022-06-11_09h27.50.794,task,2021.1.4,Win32,30.0120048,6299f149e92ead563fba08ef,62a44338997204d6f31fe6a8,,,,,,,,,,,,,1,,,,,,,,,,Task,9,(3x7) - 20,1,,,,,,,,,,,,,,,,,,,1,,,,,,,,,,,,,,,,,,,,,,,"[""1""]",1,[1.7690000000000055],0,0,0,8,1,,,,,,,,,,,,,,,,,,,,,,,,,,
,,,,,,,,,,,X V Q F H G B L J M P D K C T S W R N Z,5c9b0d631c8e140014d19fc5,41,Mężczyzna,2022-06-11_09h27.50.794,task,2021.1.4,Win32,30.0120048,6299f149e92ead563fba08ef,62a44338997204d6f31fe6a8,,,,,,,,,,,,,,,,,,,,,,,,,,,,,,,,,,,,,,,,,,,,,,,,,,,,,,,,,,,,,,,,,,,,,,,,,,,,2,0,2,0,1,,,,,,,,,,,,,,,,,,,,,
,,,,,,,,,,,,5c9b0d631c8e140014d19fc5,41,Mężczyzna,2022-06-11_09h27.50.794,task,2021.1.4,Win32,30.0120048,6299f149e92ead563fba08ef,62a44338997204d6f31fe6a8,,,,,,,,,,,,,1,,,,,,,,,,Task,18,(16/4) - 3,1,,,,,,,,,,,,,,,,,,,1,,,,,,,,,,,,,,,,,,,,,,,"[""1""]",1,[2.8330000000000837],0,0,0,17,1,,,,,,,,,,,,,,,,,,,,,,,,,,
,,,,,,,,,,,X V Q F H G B L J M P D K C T S W R N Z,5c9b0d631c8e140014d19fc5,41,Mężczyzna,2022-06-11_09h27.50.794,task,2021.1.4,Win32,30.0120048,6299f149e92ead563fba08ef,62a44338997204d6f31fe6a8,,,,,,,,,,,,,,,,,,,,,,,,,,,,,,,,,,,,,,,,,,,,,,,,,,,,,,,,,,,,,,,,,,,,,,,,,,,,3,0,3,0,1,,,,,,,,,,,,,,,,,,,,,
,,,,,,,,,,,,5c9b0d631c8e140014d19fc5,41,Mężczyzna,2022-06-11_09h27.50.794,task,2021.1.4,Win32,30.0120048,6299f149e92ead563fba08ef,62a44338997204d6f31fe6a8,,,,,,,,,,,,,4,,,,,,,,,,Task,28,(2x5) - 6,4,,,,,,,,,,,,,,,,,,,1,,,,,,,,,,,,,,,,,,,,,,,"[""4""]",1,[1.91700000000003],0,0,0,27,1,,,,,,,,,,,,,,,,,,,,,,,,,,
,,,,,,,,,,,X V Q F H G B L J M P D K C T S W R N Z,5c9b0d631c8e140014d19fc5,41,Mężczyzna,2022-06-11_09h27.50.794,task,2021.1.4,Win32,30.0120048,6299f149e92ead563fba08ef,62a44338997204d6f31fe6a8,,,,,,,,,,,,,,,,,,,,,,,,,,,,,,,,,,,,,,,,,,,,,,,,,,,,,,,,,,,,,,,,,,,,,,,,,,,,4,0,4,0,1,,,,,,,,,,,,,,,,,,,,,
,,,,,,,,,,,,5c9b0d631c8e140014d19fc5,41,Mężczyzna,2022-06-11_09h27.50.794,task,2021.1.4,Win32,30.0120048,6299f149e92ead563fba08ef,62a44338997204d6f31fe6a8,,,,,,,,,,,,,6,,,,,,,,,,Task,30,(6/3) + 4 ,6,,,,,,,,,,,,,,,,,,,1,,,,,,,,,,,,,,,,,,,,,,,"[""6""]",1,[3.0850000000000364],0,0,0,29,1,,,,,,,,,,,,,,,,,,,,,,,,,,
,,,,,,,,,,,X V Q F H G B L J M P D K C T S W R N Z,5c9b0d631c8e140014d19fc5,41,Mężczyzna,2022-06-11_09h27.50.794,task,2021.1.4,Win32,30.0120048,6299f149e92ead563fba08ef,62a44338997204d6f31fe6a8,,,,,,,,,,,,,,,,,,,,,,,,,,,,,,,,,,,,,,,,,,,,,,,,,,,,,,,,,,,,,,,,,,,,,,,,,,,,5,0,5,0,1,,,,,,,,,,,,,,,,,,,,,
,,,,,,,,,,,,5c9b0d631c8e140014d19fc5,41,Mężczyzna,2022-06-11_09h27.50.794,task,2021.1.4,Win32,30.0120048,6299f149e92ead563fba08ef,62a44338997204d6f31fe6a8,,,,,,,,,,,,,0,,,,,,,,,,Task,8,(1x5) - 5,0,,,,,,,,,,,,,,,,,,,1,,,,,,,,,,,,,,,,,,,,,,,"[""0""]",1,[2.284999999999968],0,0,0,7,1,,,,,,,,,,,,,,,,,,,,,,,,,,
,,,,,,,,,,,X V Q F H G B L J M P D K C T S W R N Z,5c9b0d631c8e140014d19fc5,41,Mężczyzna,2022-06-11_09h27.50.794,task,2021.1.4,Win32,30.0120048,6299f149e92ead563fba08ef,62a44338997204d6f31fe6a8,,,,,,,,,,,,,,,,,,,,,,,,,,,,,,,,,,,,,,,,,,,,,,,,,,,,,,,,,,,,,,,,,,,,,,,,,,,,6,0,6,0,1,,,,,,,,,,,,,,,,,,,,,
,,,,,,,,,,,,5c9b0d631c8e140014d19fc5,41,Mężczyzna,2022-06-11_09h27.50.794,task,2021.1.4,Win32,30.0120048,6299f149e92ead563fba08ef,62a44338997204d6f31fe6a8,,,,,,,,,,,,,0,,,,,,,,,,Task,33,(1/1) - 1,0,,,,,,,,,,,,,,,,,,,1,,,,,,,,,,,,,,,,,,,,,,,"[""0""]",1,[1.5499999999999545],0,0,0,32,1,,,,,,,,,,,,,,,,,,,,,,,,,,
,,,,,,,,,,,X V Q F H G B L J M P D K C T S W R N Z,5c9b0d631c8e140014d19fc5,41,Mężczyzna,2022-06-11_09h27.50.794,task,2021.1.4,Win32,30.0120048,6299f149e92ead563fba08ef,62a44338997204d6f31fe6a8,,,,,,,,,,,,,,,,,,,,,,,,,,,,,,,,,,,,,,,,,,,,,,,,,,,,,,,,,,,,,,,,,,,,,,,,,,,,7,0,7,0,1,,,,,,,,,,,,,,,,,,,,,
,,,,,,,,,,,,5c9b0d631c8e140014d19fc5,41,Mężczyzna,2022-06-11_09h27.50.794,task,2021.1.4,Win32,30.0120048,6299f149e92ead563fba08ef,62a44338997204d6f31fe6a8,,,,,,,,,,,,,,,,,,,,,,,,,,,,,,,,,,,,,,,,,,,,,,,,,,,,,,,,,,,,,,,,,,,,,,,,,,,,,,,,,smhqdj,"[""s"",""m"",""h"",""q"",""d"",""j""]",0,"[2.4169999999999163,2.8589999999999236,6.645999999999958,8.002999999999929,11.182999999999993,11.56499999999994,16.574999999999932]",0,SMHDQJHP,8,0,8,0,1,,,,,,,,,,
,,,,,,,,,,,,5c9b0d631c8e140014d19fc5,41,Mężczyzna,2022-06-11_09h27.50.794,task,2021.1.4,Win32,30.0120048,6299f149e92ead563fba08ef,62a44338997204d6f31fe6a8,,,,,,,,,,,,,,,,,,,,,,,,,,,,,,,,,,,,,,,,,,,,,,,,,,,,,,,,,,,,,,,,,,,,,,,,,,,,,,,,,,,,,,,,,,,,,0,0,0,0,0,1,,,
,,,,,,,,,,,,5c9b0d631c8e140014d19fc5,41,Mężczyzna,2022-06-11_09h27.50.794,task,2021.1.4,Win32,30.0120048,6299f149e92ead563fba08ef,62a44338997204d6f31fe6a8,,,,,,,,,,,,,,,,,,,,,,,,,,,,,,,,,,,,,,,,,,,,,,,,,,,,,,,,,,,,,,,,,,,,,,,,,,,,,,,,,,,,,,,,,,,,"[""comma""]",0,1,0,1,0,1,[0.5519999999999072],,
,,,,,,,,,,,,5c9b0d631c8e140014d19fc5,41,Mężczyzna,2022-06-11_09h27.50.794,task,2021.1.4,Win32,30.0120048,6299f149e92ead563fba08ef,62a44338997204d6f31fe6a8,,,,,,,,,,,,,,,,,,,,,,,,,,,,,,,,,,,,,,,,,,,,,,,,,,,,,,,,,,,,,,,,,,,,,,,,,,,,,,,,,,,,,,,,,,,,"[""comma""]",0,2,0,2,0,1,[0.5599999999999454],,
,,,,,,,,,,,,5c9b0d631c8e140014d19fc5,41,Mężczyzna,2022-06-11_09h27.50.794,task,2021.1.4,Win32,30.0120048,6299f149e92ead563fba08ef,62a44338997204d6f31fe6a8,,,,,,,,,,,,,,,,,,,,,,,,,,,,,,,,,,,,,,,,,,,,,,,,,,,,,,,,,,,,,,,,,,,,,,,,,,,,,,,,,,,,,,,,,,,,"[""period""]",0,3,0,3,0,1,[0.6989999999999554],,
,,,,,,,,,,,,5c9b0d631c8e140014d19fc5,41,Mężczyzna,2022-06-11_09h27.50.794,task,2021.1.4,Win32,30.0120048,6299f149e92ead563fba08ef,62a44338997204d6f31fe6a8,,,,,,,,,,,,,,,,,,,,,,,,,,,,,,,,,,,,,,,,,,,,,,,,,,,,,,,,,,,,,,,,,,,,,,,,,,,,,,,,,,,,,,,,,,,,"[""period""]",0,4,0,4,0,1,[0.5620000000000118],,
,,,,,,,,,,,,5c9b0d631c8e140014d19fc5,41,Mężczyzna,2022-06-11_09h27.50.794,task,2021.1.4,Win32,30.0120048,6299f149e92ead563fba08ef,62a44338997204d6f31fe6a8,,,,,,,,,,,,,,,,,,,,,,,,,,,,,,,,,,,,,,,,,,,,,,,,,,,,,,,,,,,,,,,,,,,,,,,,,,,,,,,,,,,,,,,,,,,,"[""period""]",0,5,0,5,0,1,[0.5419999999999163],,
,,,,,,,,,,,,5c9b0d631c8e140014d19fc5,41,Mężczyzna,2022-06-11_09h27.50.794,task,2021.1.4,Win32,30.0120048,6299f149e92ead563fba08ef,62a44338997204d6f31fe6a8,,,,,,,,,,,,,,,,,,,,,,,,,,,,,,,,,,,,,,,,,,,,,,,,,,,,,,,,,,,,,,,,,,,,,,,,,,,,,,,,,,,,,,,,,,,,"[""comma""]",0,6,0,6,0,1,[0.32399999999995543],,
,,,,,,,,,,,,5c9b0d631c8e140014d19fc5,41,Mężczyzna,2022-06-11_09h27.50.794,task,2021.1.4,Win32,30.0120048,6299f149e92ead563fba08ef,62a44338997204d6f31fe6a8,,,,,,,,,,,,,,,,,,,,,,,,,,,,,,,,,,,,,,,,,,,,,,,,,,,,,,,,,,,,,,,,,,,,,,,,,,,,,,,,,,,,,,,,,,,,"[""period""]",0,7,0,7,0,1,[0.5630000000001019],,
,,,,,,,,,,,,5c9b0d631c8e140014d19fc5,41,Mężczyzna,2022-06-11_09h27.50.794,task,2021.1.4,Win32,30.0120048,6299f149e92ead563fba08ef,62a44338997204d6f31fe6a8,,,,,,,,,,,,,,,,,,,,,,,,,,,,,,,,,,,,,,,,,,,,,,,,,,,,,,,,,,,,,,,,,,,,,,,,,,,,,,,,,,,,,,,,,,,,"[""comma""]",0,8,0,8,0,1,[0.5720000000000027],,
,,,,,,,,,,,,5c9b0d631c8e140014d19fc5,41,Mężczyzna,2022-06-11_09h27.50.794,task,2021.1.4,Win32,30.0120048,6299f149e92ead563fba08ef,62a44338997204d6f31fe6a8,,,,,,,,,,,,,,,,,,,,,,,,,,,,,,,,,,,,,,,,,,,,,,,,,,,,,,,,,,,,,,,,,,,,,,,,,,,,,,,,,,,,,,,,,,,,"[""period""]",0,9,0,9,0,1,[0.5329999999999018],,
,,,,,,,,,,,,5c9b0d631c8e140014d19fc5,41,Mężczyzna,2022-06-11_09h27.50.794,task,2021.1.4,Win32,30.0120048,6299f149e92ead563fba08ef,62a44338997204d6f31fe6a8,,,,,,,,,,,,,,,,,,,,,,,,,,,,,,,,,,,,,,,,,,,,,,,,,,,,,,,,,,,,,,,,,,,,,,,,,,,,,,,,,,,,,,,,,,,,"[""comma""]",0,10,0,10,0,1,[0.39199999999993906],,
,,,,,,,,,,,,5c9b0d631c8e140014d19fc5,41,Mężczyzna,2022-06-11_09h27.50.794,task,2021.1.4,Win32,30.0120048,6299f149e92ead563fba08ef,62a44338997204d6f31fe6a8,,,,,,,,,,,,,,,,,,,,,,,,,,,,,,,,,,,,,,,,,,,,,,,,,,,,,,,,,,,,,,,,,,,,,,,,,,,,,,,,,,,,,,,,,,,,"[""period""]",0,11,0,11,0,1,[0.3769999999999527],,
,,,,,,,,,,,,5c9b0d631c8e140014d19fc5,41,Mężczyzna,2022-06-11_09h27.50.794,task,2021.1.4,Win32,30.0120048,6299f149e92ead563fba08ef,62a44338997204d6f31fe6a8,,,,,,,,,,,,,,,,,,,,,,,,,,,,,,,,,,,,,,,,,,,,,,,,,,,,,,,,,,,,,,,,,,,,,,,,,,,,,,,,,,,,,,,,,,,,"[""comma""]",0,12,0,12,0,1,[0.3410000000000082],,
,,,,,,,,,,,,5c9b0d631c8e140014d19fc5,41,Mężczyzna,2022-06-11_09h27.50.794,task,2021.1.4,Win32,30.0120048,6299f149e92ead563fba08ef,62a44338997204d6f31fe6a8,,,,,,,,,,,,,,,,,,,,,,,,,,,,,,,,,,,,,,,,,,,,,,,,,,,,,,,,,,,,,,,,,,,,,,,,,,,,,,,,,,,,,,,,,,,,"[""period""]",0,13,0,13,0,1,[0.5520000000000209],,
,,,,,,,,,,,,5c9b0d631c8e140014d19fc5,41,Mężczyzna,2022-06-11_09h27.50.794,task,2021.1.4,Win32,30.0120048,6299f149e92ead563fba08ef,62a44338997204d6f31fe6a8,,,,,,,,,,,,,,,,,,,,,,,,,,,,,,,,,,,,,,,,,,,,,,,,,,,,,,,,,,,,,,,,,,,,,,,,,,,,,,,,,,,,,,,,,,,,"[""comma""]",0,14,0,14,0,1,[0.4189999999999827],,
,,,,,,,,,,,,5c9b0d631c8e140014d19fc5,41,Mężczyzna,2022-06-11_09h27.50.794,task,2021.1.4,Win32,30.0120048,6299f149e92ead563fba08ef,62a44338997204d6f31fe6a8,,,,,,,,,,,,,,,,,,,,,,,,,,,,,,,,,,,,,,,,,,,,,,,,,,,,,,,,,,,,,,,,,,,,,,,,,,,,,,,,,,,,,,,,,,,,"[""period""]",0,15,0,15,0,1,[0.29700000000002547],,
,,,,,,,,,,,,5c9b0d631c8e140014d19fc5,41,Mężczyzna,2022-06-11_09h27.50.794,task,2021.1.4,Win32,30.0120048,6299f149e92ead563fba08ef,62a44338997204d6f31fe6a8,,,,,,,,,,,,,,,,,,,,,,,,,,,,,,,,,,,,,,,,,,,,,,,,,,,,,,,,,,,,,,,,,,,,,,,,,,,,,,,,,,,,,,,,,,,,"[""comma""]",0,16,0,16,0,1,[0.2949999999999591],,
,,,,,,,,,,,,5c9b0d631c8e140014d19fc5,41,Mężczyzna,2022-06-11_09h27.50.794,task,2021.1.4,Win32,30.0120048,6299f149e92ead563fba08ef,62a44338997204d6f31fe6a8,,,,,,,,,,,,,,,,,,,,,,,,,,,,,,,,,,,,,,,,,,,,,,,,,,,,,,,,,,,,,,,,,,,,,,,,,,,,,,,,,,,,,,,,,,,,"[""period""]",0,17,0,17,0,1,[0.3290000000000646],,
,,,,,,,,,,,,5c9b0d631c8e140014d19fc5,41,Mężczyzna,2022-06-11_09h27.50.794,task,2021.1.4,Win32,30.0120048,6299f149e92ead563fba08ef,62a44338997204d6f31fe6a8,,,,,,,,,,,,,,,,,,,,,,,,,,,,,,,,,,,,,,,,,,,,,,,,,,,,,,,,,,,,,,,,,,,,,,,,,,,,,,,,,,,,,,,,,,,,"[""comma""]",0,18,0,18,0,1,[0.33299999999997],,
,,,,,,,,,,,,5c9b0d631c8e140014d19fc5,41,Mężczyzna,2022-06-11_09h27.50.794,task,2021.1.4,Win32,30.0120048,6299f149e92ead563fba08ef,62a44338997204d6f31fe6a8,,,,,,,,,,,,,,,,,,,,,,,,,,,,,,,,,,,,,,,,,,,,,,,,,,,,,,,,,,,,,,,,,,,,,,,,,,,,,,,,,,,,,,,,,,,,"[""period""]",0,19,0,19,0,1,[0.5260000000000673],,
,,,,,,,,,,,,5c9b0d631c8e140014d19fc5,41,Mężczyzna,2022-06-11_09h27.50.794,task,2021.1.4,Win32,30.0120048,6299f149e92ead563fba08ef,62a44338997204d6f31fe6a8,,,,,,,,,,,,,,,,,,,,,,,,,,,,,,,,,,,,,,,,,,,,,,,,,,,,,,,,,,,,,,,,,,,,,,,,,,,,,,,,,,,,,,,,,,,,"[""comma""]",0,20,0,20,0,1,[0.3590000000000373],,
,,,,,,,,,,,,5c9b0d631c8e140014d19fc5,41,Mężczyzna,2022-06-11_09h27.50.794,task,2021.1.4,Win32,30.0120048,6299f149e92ead563fba08ef,62a44338997204d6f31fe6a8,,,,,,,,,,,,,,,,,,,,,,,,,,,,,,,,,,,,,,,,,,,,,,,,,,,,,,,,,,,,,,,,,,,,,,,,,,,,,,,,,,,,,,,,,,,,"[""period""]",0,21,0,21,0,1,[0.3869999999999436],,
,,,,,,,,,,,,5c9b0d631c8e140014d19fc5,41,Mężczyzna,2022-06-11_09h27.50.794,task,2021.1.4,Win32,30.0120048,6299f149e92ead563fba08ef,62a44338997204d6f31fe6a8,,,,,,,,,,,,,,,,,,,,,,,,,,,,,,,,,,,,,,,,,,,,,,,,,,,,,,,,,,,,,,,,,,,,,,,,,,,,,,,,,,,,,,,,,,,,"[""comma""]",0,22,0,22,0,1,[0.3490000000000464],,
,,,,,,,,,,,,5c9b0d631c8e140014d19fc5,41,Mężczyzna,2022-06-11_09h27.50.794,task,2021.1.4,Win32,30.0120048,6299f149e92ead563fba08ef,62a44338997204d6f31fe6a8,,,,,,,,,,,,,,,,,,,,,,,,,,,,,,,,,,,,,,,,,,,,,,,,,,,,,,,,,,,,,,,,,,,,,,,,,,,,,,,,,,,,,,,,,,,,"[""period""]",0,23,0,23,0,1,[0.33400000000006],,
,,,,,,,,,,,,5c9b0d631c8e140014d19fc5,41,Mężczyzna,2022-06-11_09h27.50.794,task,2021.1.4,Win32,30.0120048,6299f149e92ead563fba08ef,62a44338997204d6f31fe6a8,,,,,,,,,,,,,,,,,,,,,,,,,,,,,,,,,,,,,,,,,,,,,,,,,,,,,,,,,,,,,,,,,,,,,,,,,,,,,,,,,,,,,,,,,,,,"[""comma""]",0,24,0,24,0,1,[0.28899999999998727],,
,,,,,,,,,,,,5c9b0d631c8e140014d19fc5,41,Mężczyzna,2022-06-11_09h27.50.794,task,2021.1.4,Win32,30.0120048,6299f149e92ead563fba08ef,62a44338997204d6f31fe6a8,,,,,,,,,,,,,,,,,,,,,,,,,,,,,,,,,,,,,,,,,,,,,,,,,,,,,,,,,,,,,,,,,,,,,,,,,,,,,,,,,,,,,,,,,,,,"[""period""]",0,25,0,25,0,1,[0.2849999999998545],,
,,,,,,,,,,,,5c9b0d631c8e140014d19fc5,41,Mężczyzna,2022-06-11_09h27.50.794,task,2021.1.4,Win32,30.0120048,6299f149e92ead563fba08ef,62a44338997204d6f31fe6a8,,,,,,,,,,,,,,,,,,,,,,,,,,,,,,,,,,,,,,,,,,,,,,,,,,,,,,,,,,,,,,,,,,,,,,,,,,,,,,,,,,,,,,,,,,,,"[""comma""]",0,26,0,26,0,1,[0.3140000000000782],,
,,,,,,,,,,,,5c9b0d631c8e140014d19fc5,41,Mężczyzna,2022-06-11_09h27.50.794,task,2021.1.4,Win32,30.0120048,6299f149e92ead563fba08ef,62a44338997204d6f31fe6a8,,,,,,,,,,,,,,,,,,,,,,,,,,,,,,,,,,,,,,,,,,,,,,,,,,,,,,,,,,,,,,,,,,,,,,,,,,,,,,,,,,,,,,,,,,,,"[""period""]",0,27,0,27,0,1,[0.30600000000004],,
,,,,,,,,,,,,5c9b0d631c8e140014d19fc5,41,Mężczyzna,2022-06-11_09h27.50.794,task,2021.1.4,Win32,30.0120048,6299f149e92ead563fba08ef,62a44338997204d6f31fe6a8,,,,,,,,,,,,,,,,,,,,,,,,,,,,,,,,,,,,,,,,,,,,,,,,,,,,,,,,,,,,,,,,,,,,,,,,,,,,,,,,,,,,,,,,,,,,"[""comma""]",0,28,0,28,0,1,[0.3949999999999818],,
,,,,,,,,,,,,5c9b0d631c8e140014d19fc5,41,Mężczyzna,2022-06-11_09h27.50.794,task,2021.1.4,Win32,30.0120048,6299f149e92ead563fba08ef,62a44338997204d6f31fe6a8,,,,,,,,,,,,,,,,,,,,,,,,,,,,,,,,,,,,,,,,,,,,,,,,,,,,,,,,,,,,,,,,,,,,,,,,,,,,,,,,,,,,,,,,,,,,"[""period""]",0,29,0,29,0,1,[0.40399999999999636],,
,,,,,,,,,,,,5c9b0d631c8e140014d19fc5,41,Mężczyzna,2022-06-11_09h27.50.794,task,2021.1.4,Win32,30.0120048,6299f149e92ead563fba08ef,62a44338997204d6f31fe6a8,,,,,,,,,,,,,,,,,,,,,,,,,,,,,,,,,,,,,,,,,,,,,,,,,,,,,,,,,,,,,,,,,,,,,,,,,,,,,,,,,,,,,,,,,,,,"[""comma""]",0,30,0,30,0,1,[0.49300000000016553],,
,,,,,,,,,,,,5c9b0d631c8e140014d19fc5,41,Mężczyzna,2022-06-11_09h27.50.794,task,2021.1.4,Win32,30.0120048,6299f149e92ead563fba08ef,62a44338997204d6f31fe6a8,,,,,,,,,,,,,,,,,,,,,,,,,,,,,,,,,,,,,,,,,,,,,,,,,,,,,,,,,,,,,,,,,,,,,,,,,,,,,,,,,,,,,,,,,,,,"[""period""]",0,31,0,31,0,1,[0.6210000000000946],,
,,,,,,,,,,,,5c9b0d631c8e140014d19fc5,41,Mężczyzna,2022-06-11_09h27.50.794,task,2021.1.4,Win32,30.0120048,6299f149e92ead563fba08ef,62a44338997204d6f31fe6a8,,,,,,,,,,,,,,,,,,,,,,,,,,,,,,,,,,,,,,,,,,,,,,,,,,,,,,,,,,,,,,,,,,,,,,,,,,,,,,,,,,,,,,,,,,,,"[""comma""]",0,32,0,32,0,1,[0.36400000000003274],,
,,,,,,,,,,,,5c9b0d631c8e140014d19fc5,41,Mężczyzna,2022-06-11_09h27.50.794,task,2021.1.4,Win32,30.0120048,6299f149e92ead563fba08ef,62a44338997204d6f31fe6a8,,,,,,,,,,,,,,,,,,,,,,,,,,,,,,,,,,,,,,,,,,,,,,,,,,,,,,,,,,,,,,,,,,,,,,,,,,,,,,,,,,,,,,,,,,,,"[""period""]",0,33,0,33,0,1,[0.3240000000000691],,
,,,,,,,,,,,,5c9b0d631c8e140014d19fc5,41,Mężczyzna,2022-06-11_09h27.50.794,task,2021.1.4,Win32,30.0120048,6299f149e92ead563fba08ef,62a44338997204d6f31fe6a8,,,,,,,,,,,,,,,,,,,,,,,,,,,,,,,,,,,,,,,,,,,,,,,,,,,,,,,,,,,,,,,,,,,,,,,,,,,,,,,,,,,,,,,,,,,,"[""comma""]",0,34,0,34,0,1,[0.4420000000000073],,
,,,,,,,,,,,,5c9b0d631c8e140014d19fc5,41,Mężczyzna,2022-06-11_09h27.50.794,task,2021.1.4,Win32,30.0120048,6299f149e92ead563fba08ef,62a44338997204d6f31fe6a8,,,,,,,,,,,,,,,,,,,,,,,,,,,,,,,,,,,,,,,,,,,,,,,,,,,,,,,,,,,,,,,,,,,,,,,,,,,,,,,,,,,,,,,,,,,,"[""period""]",0,35,0,35,0,1,[0.33600000000001273],,
,,,,,,,,,,,,5c9b0d631c8e140014d19fc5,41,Mężczyzna,2022-06-11_09h27.50.794,task,2021.1.4,Win32,30.0120048,6299f149e92ead563fba08ef,62a44338997204d6f31fe6a8,,,,,,,,,,,,,,,,,,,,,,,,,,,,,,,,,,,,,,,,,,,,,,,,,,,,,,,,,,,,,,,,,,,,,,,,,,,,,,,,,,,,,,,,,,,,"[""comma""]",0,36,0,36,0,1,[0.3309999999999036],,
,,,,,,,,,,,,5c9b0d631c8e140014d19fc5,41,Mężczyzna,2022-06-11_09h27.50.794,task,2021.1.4,Win32,30.0120048,6299f149e92ead563fba08ef,62a44338997204d6f31fe6a8,,,,,,,,,,,,,,,,,,,,,,,,,,,,,,,,,,,,,,,,,,,,,,,,,,,,,,,,,,,,,,,,,,,,,,,,,,,,,,,,,,,,,,,,,,,,"[""period""]",0,37,0,37,0,1,[0.3040000000000873],,
,,,,,,,,,,,,5c9b0d631c8e140014d19fc5,41,Mężczyzna,2022-06-11_09h27.50.794,task,2021.1.4,Win32,30.0120048,6299f149e92ead563fba08ef,62a44338997204d6f31fe6a8,,,,,,,,,,,,,,,,,,,,,,,,,,,,,,,,,,,,,,,,,,,,,,,,,,,,,,,,,,,,,,,,,,,,,,,,,,,,,,,,,,,,,,,,,,,,"[""comma""]",0,38,0,38,0,1,[0.4500000000000455],,
,,,,,,,,,,,,5c9b0d631c8e140014d19fc5,41,Mężczyzna,2022-06-11_09h27.50.794,task,2021.1.4,Win32,30.0120048,6299f149e92ead563fba08ef,62a44338997204d6f31fe6a8,,,,,,,,,,,,,,,,,,,,,,,,,,,,,,,,,,,,,,,,,,,,,,,,,,,,,,,,,,,,,,,,,,,,,,,,,,,,,,,,,,,,,,,,,,,,"[""period""]",0,39,0,39,0,1,[0.33400000000006],,
,,,,,,,,,,,,5c9b0d631c8e140014d19fc5,41,Mężczyzna,2022-06-11_09h27.50.794,task,2021.1.4,Win32,30.0120048,6299f149e92ead563fba08ef,62a44338997204d6f31fe6a8,,,,,,,,,,,,,,,,,,,,,,,,,,,,,,,,,,,,,,,,,,,,,,,,,,,,,,,,,,,,,,,,,,,,,,,,,,,,,,,,,,,,,,,,,,,,"[""comma""]",0,40,0,40,0,1,[0.2380000000000564],,
,,,,,,,,,,,,5c9b0d631c8e140014d19fc5,41,Mężczyzna,2022-06-11_09h27.50.794,task,2021.1.4,Win32,30.0120048,6299f149e92ead563fba08ef,62a44338997204d6f31fe6a8,,,,,,,,,,,,,,,,,,,,,,,,,,,,,,,,,,,,,,,,,,,,,,,,,,,,,,,,,,,,,,,,,,,,,,,,,,,,,,,,,,,,,,,,,,,,"[""period""]",0,41,0,41,0,1,[0.38199999999983447],,
,,,,,,,,,,,,5c9b0d631c8e140014d19fc5,41,Mężczyzna,2022-06-11_09h27.50.794,task,2021.1.4,Win32,30.0120048,6299f149e92ead563fba08ef,62a44338997204d6f31fe6a8,,,,,,,,,,,,,,,,,,,,,,,,,,,,,,,,,,,,,,,,,,,,,,,,,,,,,,,,,,,,,,,,,,,,,,,,,,,,,,,,,,,,,,,,,,,,"[""comma""]",0,42,0,42,0,1,[0.35400000000004184],,
,,,,,,,,,,,,5c9b0d631c8e140014d19fc5,41,Mężczyzna,2022-06-11_09h27.50.794,task,2021.1.4,Win32,30.0120048,6299f149e92ead563fba08ef,62a44338997204d6f31fe6a8,,,,,,,,,,,,,,,,,,,,,,,,,,,,,,,,,,,,,,,,,,,,,,,,,,,,,,,,,,,,,,,,,,,,,,,,,,,,,,,,,,,,,,,,,,,,"[""period""]",0,43,0,43,0,1,[0.2960000000000491],,
,,,,,,,,,,,,5c9b0d631c8e140014d19fc5,41,Mężczyzna,2022-06-11_09h27.50.794,task,2021.1.4,Win32,30.0120048,6299f149e92ead563fba08ef,62a44338997204d6f31fe6a8,,,,,,,,,,,,,,,,,,,,,,,,,,,,,,,,,,,,,,,,,,,,,,,,,,,,,,,,,,,,,,,,,,,,,,,,,,,,,,,,,,,,,,,,,,,,"[""comma""]",0,44,0,44,0,1,[0.2899999999999636],,
,,,,,,,,,,,,5c9b0d631c8e140014d19fc5,41,Mężczyzna,2022-06-11_09h27.50.794,task,2021.1.4,Win32,30.0120048,6299f149e92ead563fba08ef,62a44338997204d6f31fe6a8,,,,,,,,,,,,,,,,,,,,,,,,,,,,,,,,,,,,,,,,,,,,,,,,,,,,,,,,,,,,,,,,,,,,,,,,,,,,,,,,,,,,,,,,,,,,"[""period""]",0,45,0,45,0,1,[0.3079999999999927],,
,,,,,,,,,,,,5c9b0d631c8e140014d19fc5,41,Mężczyzna,2022-06-11_09h27.50.794,task,2021.1.4,Win32,30.0120048,6299f149e92ead563fba08ef,62a44338997204d6f31fe6a8,,,,,,,,,,,,,,,,,,,,,,,,,,,,,,,,,,,,,,,,,,,,,,,,,,,,,,,,,,,,,,,,,,,,,,,,,,,,,,,,,,,,,,,,,,,,"[""comma""]",0,46,0,46,0,1,[0.2580000000000382],,
,,,,,,,,,,,,5c9b0d631c8e140014d19fc5,41,Mężczyzna,2022-06-11_09h27.50.794,task,2021.1.4,Win32,30.0120048,6299f149e92ead563fba08ef,62a44338997204d6f31fe6a8,,,,,,,,,,,,,,,,,,,,,,,,,,,,,,,,,,,,,,,,,,,,,,,,,,,,,,,,,,,,,,,,,,,,,,,,,,,,,,,,,,,,,,,,,,,,"[""period""]",0,47,0,47,0,1,[0.23700000000008004],,
,,,,,,,,,,,,5c9b0d631c8e140014d19fc5,41,Mężczyzna,2022-06-11_09h27.50.794,task,2021.1.4,Win32,30.0120048,6299f149e92ead563fba08ef,62a44338997204d6f31fe6a8,,,,,,,,,,,,,,,,,,,,,,,,,,,,,,,,,,,,,,,,,,,,,,,,,,,,,,,,,,,,,,,,,,,,,,,,,,,,,,,,,,,,,,,,,,,,"[""comma""]",0,48,0,48,0,1,[0.3020000000001346],,
,,,,,,,,,,,,5c9b0d631c8e140014d19fc5,41,Mężczyzna,2022-06-11_09h27.50.794,task,2021.1.4,Win32,30.0120048,6299f149e92ead563fba08ef,62a44338997204d6f31fe6a8,,,,,,,,,,,,,,,,,,,,,,,,,,,,,,,,,,,,,,,,,,,,,,,,,,,,,,,,,,,,,,,,,,,,,,,,,,,,,,,,,,,,,,,,,,,,"[""period""]",0,49,0,49,0,1,[0.27099999999995816],,
,,,,,,,,,,,,5c9b0d631c8e140014d19fc5,41,Mężczyzna,2022-06-11_09h27.50.794,task,2021.1.4,Win32,30.0120048,6299f149e92ead563fba08ef,62a44338997204d6f31fe6a8,,,,,,,,,,,,,,,,,,,,,,,,,,,,,,,,,,,,,,,,,,,,,,,,,,,,,,,,,,,,,,,,,,,,,,,,,,,,,,,,,,,,,,,,,,,,"[""comma""]",0,50,0,50,0,1,[0.32100000000014006],,
,,,,,,,,,,,,5c9b0d631c8e140014d19fc5,41,Mężczyzna,2022-06-11_09h27.50.794,task,2021.1.4,Win32,30.0120048,6299f149e92ead563fba08ef,62a44338997204d6f31fe6a8,,,,,,,,,,,,,,,,,,,,,,,,,,,,,,,,,,,,,,,,,,,,,,,,,,,,,,,,,,,,,,,,,,,,,,,,,,,,,,,,,,,,,,,,,,,,"[""period""]",0,51,0,51,0,1,[0.3009999999999309],,
,,,,,,,,,,,,5c9b0d631c8e140014d19fc5,41,Mężczyzna,2022-06-11_09h27.50.794,task,2021.1.4,Win32,30.0120048,6299f149e92ead563fba08ef,62a44338997204d6f31fe6a8,,,,,,,,,,,,,,,,,,,,,,,,,,,,,,,,,,,,,,,,,,,,,,,,,,,,,,,,,,,,,,,,,,,,,,,,,,,,,,,,,,,,,,,,,,,,"[""comma""]",0,52,0,52,0,1,[0.3250000000000455],,
,,,,,,,,,,,,5c9b0d631c8e140014d19fc5,41,Mężczyzna,2022-06-11_09h27.50.794,task,2021.1.4,Win32,30.0120048,6299f149e92ead563fba08ef,62a44338997204d6f31fe6a8,,,,,,,,,,,,,,,,,,,,,,,,,,,,,,,,,,,,,,,,,,,,,,,,,,,,,,,,,,,,,,,,,,,,,,,,,,,,,,,,,,,,,,,,,,,,"[""period"",""period""]",0,53,0,53,0,1,"[0.30300000000011096,1.7110000000000127]",,
,,,,,,,,,,,,5c9b0d631c8e140014d19fc5,41,Mężczyzna,2022-06-11_09h27.50.794,task,2021.1.4,Win32,30.0120048,6299f149e92ead563fba08ef,62a44338997204d6f31fe6a8,,,,,,,,,,,,,,,,,,,,,,,,,,,,,,,,,,,,,,,,,,,,,,,,,,,,,,,,,,,,,,,,,,,,,,,,,,,,,,,,,,,,,,,,,,,,"[""comma""]",0,54,0,54,0,1,[1.4800000000000182],,
,,,,,,,,,,,,5c9b0d631c8e140014d19fc5,41,Mężczyzna,2022-06-11_09h27.50.794,task,2021.1.4,Win32,30.0120048,6299f149e92ead563fba08ef,62a44338997204d6f31fe6a8,,,,,,,,,,,,,,,,,,,,,,,,,,,,,,,,,,,,,,,,,,,,,,,,,,,,,,,,,,,,,,,,,,,,,,,,,,,,,,,,,,,,,,,,,,,,,0,55,0,55,0,1,,,
,,,,,,,,,,,,5c9b0d631c8e140014d19fc5,41,Mężczyzna,2022-06-11_09h27.50.794,task,2021.1.4,Win32,30.0120048,6299f149e92ead563fba08ef,62a44338997204d6f31fe6a8,,,,,,,,,,,,,,,,,,,,,,,,,,,,,,,,,,,,,,,,,,,,,,,,,,,,,,,,,,,,,,,,,,,,,,,,,,,,,,,,,,,,,,,,,,,,"[""comma""]",0,56,0,56,0,1,[0.2660000000000764],,
,,,,,,,,,,,,5c9b0d631c8e140014d19fc5,41,Mężczyzna,2022-06-11_09h27.50.794,task,2021.1.4,Win32,30.0120048,6299f149e92ead563fba08ef,62a44338997204d6f31fe6a8,,,,,,,,,,,,,,,,,,,,,,,,,,,,,,,,,,,,,,,,,,,,,,,,,,,,,,,,,,,,,,,,,,,,,,,,,,,,,,,,,,,,,,,,,,,,"[""comma""]",0,57,0,57,0,1,[0.38799999999991996],,
,,,,,,,,,,,,5c9b0d631c8e140014d19fc5,41,Mężczyzna,2022-06-11_09h27.50.794,task,2021.1.4,Win32,30.0120048,6299f149e92ead563fba08ef,62a44338997204d6f31fe6a8,,,,,,,,,,,,,,,,,,,,,,,,,,,,,,,,,,,,,,,,,,,,,,,,,,,,,,,,,,,,,,,,,,,,,,,,,,,,,,,,,,,,,,,,,,,,"[""period""]",0,58,0,58,0,1,[0.29099999999994],,
,,,,,,,,,,,,5c9b0d631c8e140014d19fc5,41,Mężczyzna,2022-06-11_09h27.50.794,task,2021.1.4,Win32,30.0120048,6299f149e92ead563fba08ef,62a44338997204d6f31fe6a8,,,,,,,,,,,,,,,,,,,,,,,,,,,,,,,,,,,,,,,,,,,,,,,,,,,,,,,,,,,,,,,,,,,,,,,,,,,,,,,,,,,,,,,,,,,,"[""period""]",0,59,0,59,0,1,[0.29300000000012005],,
,,,,,,,,,,,,5c9b0d631c8e140014d19fc5,41,Mężczyzna,2022-06-11_09h27.50.794,task,2021.1.4,Win32,30.0120048,6299f149e92ead563fba08ef,62a44338997204d6f31fe6a8,,,,,,,,,,,,,,,,,,,,,,,,,,,,,,,,,,,,,,,,,,,,,,,,,,,,,,,,,,,,,,,,,,,,,,,,,,,,,,,,,,,,,,,,,,,,"[""comma""]",0,60,0,60,0,1,[0.28300000000012915],,
,,,,,,,,,,,,5c9b0d631c8e140014d19fc5,41,Mężczyzna,2022-06-11_09h27.50.794,task,2021.1.4,Win32,30.0120048,6299f149e92ead563fba08ef,62a44338997204d6f31fe6a8,,,,,,,,,,,,,,,,,,,,,,,,,,,,,,,,,,,,,,,,,,,,,,,,,,,,,,,,,,,,,,,,,,,,,,,,,,,,,,,,,,,,,,,,,,,,"[""period""]",0,61,0,61,0,1,[0.27299999999991087],,
,,,,,,,,,,,,5c9b0d631c8e140014d19fc5,41,Mężczyzna,2022-06-11_09h27.50.794,task,2021.1.4,Win32,30.0120048,6299f149e92ead563fba08ef,62a44338997204d6f31fe6a8,,,,,,,,,,,,,,,,,,,,,,,,,,,,,,,,,,,,,,,,,,,,,,,,,,,,,,,,,,,,,,,,,,,,,,,,,,,,,,,,,,,,,,,,,,,,"[""comma""]",0,62,0,62,0,1,[0.2819999999999254],,
,,,,,,,,,,,,5c9b0d631c8e140014d19fc5,41,Mężczyzna,2022-06-11_09h27.50.794,task,2021.1.4,Win32,30.0120048,6299f149e92ead563fba08ef,62a44338997204d6f31fe6a8,,,,,,,,,,,,,,,,,,,,,,,,,,,,,,,,,,,,,,,,,,,,,,,,,,,,,,,,,,,,,,,,,,,,,,,,,,,,,,,,,,,,,,,,,,,,"[""period""]",0,63,0,63,0,1,[0.2799999999999727],,
,,,,,,,,,,,,5c9b0d631c8e140014d19fc5,41,Mężczyzna,2022-06-11_09h27.50.794,task,2021.1.4,Win32,30.0120048,6299f149e92ead563fba08ef,62a44338997204d6f31fe6a8,,,,,,,,,,,,,,,,,,,,,,,,,,,,,,,,,,,,,,,,,,,,,,,,,,,,,,,,,,,,,,,,,,,,,,,,,,,,,,,,,,,,,,,,,,,,"[""comma""]",0,64,0,64,0,1,[0.2940000000000964],,
,,,,,,,,,,,,5c9b0d631c8e140014d19fc5,41,Mężczyzna,2022-06-11_09h27.50.794,task,2021.1.4,Win32,30.0120048,6299f149e92ead563fba08ef,62a44338997204d6f31fe6a8,,,,,,,,,,,,,,,,,,,,,,,,,,,,,,,,,,,,,,,,,,,,,,,,,,,,,,,,,,,,,,,,,,,,,,,,,,,,,,,,,,,,,,,,,,,,"[""period""]",0,65,0,65,0,1,[0.30700000000001637],,
,,,,,,,,,,,,5c9b0d631c8e140014d19fc5,41,Mężczyzna,2022-06-11_09h27.50.794,task,2021.1.4,Win32,30.0120048,6299f149e92ead563fba08ef,62a44338997204d6f31fe6a8,,,,,,,,,,,,,,,,,,,,,,,,,,,,,,,,,,,,,,,,,,,,,,,,,,,,,,,,,,,,,,,,,,,,,,,,,,,,,,,,,,,,,,,,,,,,"[""comma""]",0,66,0,66,0,1,[0.2660000000000764],,
,,,,,,,,,,,,5c9b0d631c8e140014d19fc5,41,Mężczyzna,2022-06-11_09h27.50.794,task,2021.1.4,Win32,30.0120048,6299f149e92ead563fba08ef,62a44338997204d6f31fe6a8,,,,,,,,,,,,,,,,,,,,,,,,,,,,,,,,,,,,,,,,,,,,,,,,,,,,,,,,,,,,,,,,,,,,,,,,,,,,,,,,,,,,,,,,,,,,"[""period""]",0,67,0,67,0,1,[0.2820000000001528],,
,,,,,,,,,,,,5c9b0d631c8e140014d19fc5,41,Mężczyzna,2022-06-11_09h27.50.794,task,2021.1.4,Win32,30.0120048,6299f149e92ead563fba08ef,62a44338997204d6f31fe6a8,,,,,,,,,,,,,,,,,,,,,,,,,,,,,,,,,,,,,,,,,,,,,,,,,,,,,,,,,,,,,,,,,,,,,,,,,,,,,,,,,,,,,,,,,,,,"[""comma""]",0,68,0,68,0,1,[0.31899999999996],,
,,,,,,,,,,,,5c9b0d631c8e140014d19fc5,41,Mężczyzna,2022-06-11_09h27.50.794,task,2021.1.4,Win32,30.0120048,6299f149e92ead563fba08ef,62a44338997204d6f31fe6a8,,,,,,,,,,,,,,,,,,,,,,,,,,,,,,,,,,,,,,,,,,,,,,,,,,,,,,,,,,,,,,,,,,,,,,,,,,,,,,,,,,,,,,,,,,,,"[""period""]",0,69,0,69,0,1,[0.27700000000004366],,
,,,,,,,,,,,,5c9b0d631c8e140014d19fc5,41,Mężczyzna,2022-06-11_09h27.50.794,task,2021.1.4,Win32,30.0120048,6299f149e92ead563fba08ef,62a44338997204d6f31fe6a8,,,,,,,,,,,,,,,,,,,,,,,,,,,,,,,,,,,,,,,,,,,,,,,,,,,,,,,,,,,,,,,,,,,,,,,,,,,,,,,,,,,,,,,,,,,,"[""comma""]",0,70,0,70,0,1,[0.2840000000001055],,
,,,,,,,,,,,,5c9b0d631c8e140014d19fc5,41,Mężczyzna,2022-06-11_09h27.50.794,task,2021.1.4,Win32,30.0120048,6299f149e92ead563fba08ef,62a44338997204d6f31fe6a8,,,,,,,,,,,,,,,,,,,,,,,,,,,,,,,,,,,,,,,,,,,,,,,,,,,,,,,,,,,,,,,,,,,,,,,,,,,,,,,,,,,,,,,,,,,,"[""period""]",0,71,0,71,0,1,[0.24100000000021282],,
,,,,,,,,,,,,5c9b0d631c8e140014d19fc5,41,Mężczyzna,2022-06-11_09h27.50.794,task,2021.1.4,Win32,30.0120048,6299f149e92ead563fba08ef,62a44338997204d6f31fe6a8,,,,,,,,,,,,,,,,,,,,,,,,,,,,,,,,,,,,,,,,,,,,,,,,,,,,,,,,,,,,,,,,,,,,,,,,,,,,,,,,,,,,,,,,,,,,"[""comma""]",0,72,0,72,0,1,[0.12599999999997635],,
,,,,,,,,,,,,5c9b0d631c8e140014d19fc5,41,Mężczyzna,2022-06-11_09h27.50.794,task,2021.1.4,Win32,30.0120048,6299f149e92ead563fba08ef,62a44338997204d6f31fe6a8,,,,,,,,,,,,,,,,,,,,,,,,,,,,,,,,,,,,,,,,,,,,,,,,,,,,,,,,,,,,,,,,,,,,,,,,,,,,,,,,,,,,,,,,,,,,"[""period""]",0,73,0,73,0,1,[0.2819999999999254],,
,,,,,,,,,,,,5c9b0d631c8e140014d19fc5,41,Mężczyzna,2022-06-11_09h27.50.794,task,2021.1.4,Win32,30.0120048,6299f149e92ead563fba08ef,62a44338997204d6f31fe6a8,,,,,,,,,,,,,,,,,,,,,,,,,,,,,,,,,,,,,,,,,,,,,,,,,,,,,,,,,,,,,,,,,,,,,,,,,,,,,,,,,,,,,,,,,,,,"[""comma""]",0,74,0,74,0,1,[0.16799999999989268],,
,,,,,,,,,,,,5c9b0d631c8e140014d19fc5,41,Mężczyzna,2022-06-11_09h27.50.794,task,2021.1.4,Win32,30.0120048,6299f149e92ead563fba08ef,62a44338997204d6f31fe6a8,,,,,,,,,,,,,,,,,,,,,,,,,,,,,,,,,,,,,,,,,,,,,,,,,,,,,,,,,,,,,,,,,,,,,,,,,,,,,,,,,,,,,,,,,,,,"[""period""]",0,75,0,75,0,1,[0.2720000000001619],,
,,,,,,,,,,,,5c9b0d631c8e140014d19fc5,41,Mężczyzna,2022-06-11_09h27.50.794,task,2021.1.4,Win32,30.0120048,6299f149e92ead563fba08ef,62a44338997204d6f31fe6a8,,,,,,,,,,,,,,,,,,,,,,,,,,,,,,,,,,,,,,,,,,,,,,,,,,,,,,,,,,,,,,,,,,,,,,,,,,,,,,,,,,,,,,,,,,,,"[""comma""]",0,76,0,76,0,1,[0.2400000000000091],,
,,,,,,,,,,,,5c9b0d631c8e140014d19fc5,41,Mężczyzna,2022-06-11_09h27.50.794,task,2021.1.4,Win32,30.0120048,6299f149e92ead563fba08ef,62a44338997204d6f31fe6a8,,,,,,,,,,,,,,,,,,,,,,,,,,,,,,,,,,,,,,,,,,,,,,,,,,,,,,,,,,,,,,,,,,,,,,,,,,,,,,,,,,,,,,,,,,,,"[""period""]",0,77,0,77,0,1,[0.2699999999999818],,
,,,,,,,,,,,,5c9b0d631c8e140014d19fc5,41,Mężczyzna,2022-06-11_09h27.50.794,task,2021.1.4,Win32,30.0120048,6299f149e92ead563fba08ef,62a44338997204d6f31fe6a8,,,,,,,,,,,,,,,,,,,,,,,,,,,,,,,,,,,,,,,,,,,,,,,,,,,,,,,,,,,,,,,,,,,,,,,,,,,,,,,,,,,,,,,,,,,,"[""comma""]",0,78,0,78,0,1,[0.28500000000008185],,
,,,,,,,,,,,,5c9b0d631c8e140014d19fc5,41,Mężczyzna,2022-06-11_09h27.50.794,task,2021.1.4,Win32,30.0120048,6299f149e92ead563fba08ef,62a44338997204d6f31fe6a8,,,,,,,,,,,,,,,,,,,,,,,,,,,,,,,,,,,,,,,,,,,,,,,,,,,,,,,,,,,,,,,,,,,,,,,,,,,,,,,,,,,,,,,,,,,,"[""period""]",0,79,0,79,0,1,[0.27800000000002],,
,,,,,,,,,,,,5c9b0d631c8e140014d19fc5,41,Mężczyzna,2022-06-11_09h27.50.794,task,2021.1.4,Win32,30.0120048,6299f149e92ead563fba08ef,62a44338997204d6f31fe6a8,,,,,,,,,,,,,,,,,,,,,,,,,,,,,,,,,,,,,,,,,,,,,,,,,,,,,,,,,,,,,,,,,,,,,,,,,,,,,,,,,,,,,,,,,,,,"[""comma""]",0,80,0,80,0,1,[0.31799999999998363],,
,,,,,,,,,,,,5c9b0d631c8e140014d19fc5,41,Mężczyzna,2022-06-11_09h27.50.794,task,2021.1.4,Win32,30.0120048,6299f149e92ead563fba08ef,62a44338997204d6f31fe6a8,,,,,,,,,,,,,,,,,,,,,,,,,,,,,,,,,,,,,,,,,,,,,,,,,,,,,,,,,,,,,,,,,,,,,,,,,,,,,,,,,,,,,,,,,,,,"[""period""]",0,81,0,81,0,1,[0.2999999999999545],,
,,,,,,,,,,,,5c9b0d631c8e140014d19fc5,41,Mężczyzna,2022-06-11_09h27.50.794,task,2021.1.4,Win32,30.0120048,6299f149e92ead563fba08ef,62a44338997204d6f31fe6a8,,,,,,,,,,,,,,,,,,,,,,,,,,,,,,,,,,,,,,,,,,,,,,,,,,,,,,,,,,,,,,,,,,,,,,,,,,,,,,,,,,,,,,,,,,,,"[""comma""]",0,82,0,82,0,1,[0.28700000000003456],,
,,,,,,,,,,,,5c9b0d631c8e140014d19fc5,41,Mężczyzna,2022-06-11_09h27.50.794,task,2021.1.4,Win32,30.0120048,6299f149e92ead563fba08ef,62a44338997204d6f31fe6a8,,,,,,,,,,,,,,,,,,,,,,,,,,,,,,,,,,,,,,,,,,,,,,,,,,,,,,,,,,,,,,,,,,,,,,,,,,,,,,,,,,,,,,,,,,,,"[""period""]",0,83,0,83,0,1,[0.23500000000012733],,
,,,,,,,,,,,,5c9b0d631c8e140014d19fc5,41,Mężczyzna,2022-06-11_09h27.50.794,task,2021.1.4,Win32,30.0120048,6299f149e92ead563fba08ef,62a44338997204d6f31fe6a8,,,,,,,,,,,,,,,,,,,,,,,,,,,,,,,,,,,,,,,,,,,,,,,,,,,,,,,,,,,,,,,,,,,,,,,,,,,,,,,,,,,,,,,,,,,,"[""comma""]",0,84,0,84,0,1,[0.11899999999991451],,
,,,,,,,,,,,,5c9b0d631c8e140014d19fc5,41,Mężczyzna,2022-06-11_09h27.50.794,task,2021.1.4,Win32,30.0120048,6299f149e92ead563fba08ef,62a44338997204d6f31fe6a8,,,,,,,,,,,,,,,,,,,,,,,,,,,,,,,,,,,,,,,,,,,,,,,,,,,,,,,,,,,,,,,,,,,,,,,,,,,,,,,,,,,,,,,,,,,,"[""period""]",0,85,0,85,0,1,[0.28500000000008185],,
,,,,,,,,,,,,5c9b0d631c8e140014d19fc5,41,Mężczyzna,2022-06-11_09h27.50.794,task,2021.1.4,Win32,30.0120048,6299f149e92ead563fba08ef,62a44338997204d6f31fe6a8,,,,,,,,,,,,,,,,,,,,,,,,,,,,,,,,,,,,,,,,,,,,,,,,,,,,,,,,,,,,,,,,,,,,,,,,,,,,,,,,,,,,,,,,,,,,"[""comma""]",0,86,0,86,0,1,[0.34400000000005093],,
,,,,,,,,,,,,5c9b0d631c8e140014d19fc5,41,Mężczyzna,2022-06-11_09h27.50.794,task,2021.1.4,Win32,30.0120048,6299f149e92ead563fba08ef,62a44338997204d6f31fe6a8,,,,,,,,,,,,,,,,,,,,,,,,,,,,,,,,,,,,,,,,,,,,,,,,,,,,,,,,,,,,,,,,,,,,,,,,,,,,,,,,,,,,,,,,,,,,"[""period""]",0,87,0,87,0,1,[0.30500000000006366],,
,,,,,,,,,,,,5c9b0d631c8e140014d19fc5,41,Mężczyzna,2022-06-11_09h27.50.794,task,2021.1.4,Win32,30.0120048,6299f149e92ead563fba08ef,62a44338997204d6f31fe6a8,,,,,,,,,,,,,,,,,,,,,,,,,,,,,,,,,,,,,,,,,,,,,,,,,,,,,,,,,,,,,,,,,,,,,,,,,,,,,,,,,,,,,,,,,,,,"[""comma""]",0,88,0,88,0,1,[0.3120000000001255],,
,,,,,,,,,,,,5c9b0d631c8e140014d19fc5,41,Mężczyzna,2022-06-11_09h27.50.794,task,2021.1.4,Win32,30.0120048,6299f149e92ead563fba08ef,62a44338997204d6f31fe6a8,,,,,,,,,,,,,,,,,,,,,,,,,,,,,,,,,,,,,,,,,,,,,,,,,,,,,,,,,,,,,,,,,,,,,,,,,,,,,,,,,,,,,,,,,,,,"[""period""]",0,89,0,89,0,1,[0.25299999999992906],,
,,,,,,,,,,,,5c9b0d631c8e140014d19fc5,41,Mężczyzna,2022-06-11_09h27.50.794,task,2021.1.4,Win32,30.0120048,6299f149e92ead563fba08ef,62a44338997204d6f31fe6a8,,,,,,,,,,,,,,,,,,,,,,,,,,,,,,,,,,,,,,,,,,,,,,,,,,,,,,,,,,,,,,,,,,,,,,,,,,,,,,,,,,,,,,,,,,,,"[""comma""]",0,90,0,90,0,1,[0.2740000000001146],,
,,,,,,,,,,,,5c9b0d631c8e140014d19fc5,41,Mężczyzna,2022-06-11_09h27.50.794,task,2021.1.4,Win32,30.0120048,6299f149e92ead563fba08ef,62a44338997204d6f31fe6a8,,,,,,,,,,,,,,,,,,,,,,,,,,,,,,,,,,,,,,,,,,,,,,,,,,,,,,,,,,,,,,,,,,,,,,,,,,,,,,,,,,,,,,,,,,,,"[""period""]",0,91,0,91,0,1,[0.23600000000010368],,
,,,,,,,,,,,,5c9b0d631c8e140014d19fc5,41,Mężczyzna,2022-06-11_09h27.50.794,task,2021.1.4,Win32,30.0120048,6299f149e92ead563fba08ef,62a44338997204d6f31fe6a8,,,,,,,,,,,,,,,,,,,,,,,,,,,,,,,,,,,,,,,,,,,,,,,,,,,,,,,,,,,,,,,,,,,,,,,,,,,,,,,,,,,,,,,,,,,,"[""comma""]",0,92,0,92,0,1,[0.05700000000001637],,
,,,,,,,,,,,,5c9b0d631c8e140014d19fc5,41,Mężczyzna,2022-06-11_09h27.50.794,task,2021.1.4,Win32,30.0120048,6299f149e92ead563fba08ef,62a44338997204d6f31fe6a8,,,,,,,,,,,,,,,,,,,,,,,,,,,,,,,,,,,,,,,,,,,,,,,,,,,,,,,,,,,,,,,,,,,,,,,,,,,,,,,,,,,,,,,,,,,,"[""period""]",0,93,0,93,0,1,[0.2960000000000491],,
,,,,,,,,,,,,5c9b0d631c8e140014d19fc5,41,Mężczyzna,2022-06-11_09h27.50.794,task,2021.1.4,Win32,30.0120048,6299f149e92ead563fba08ef,62a44338997204d6f31fe6a8,,,,,,,,,,,,,,,,,,,,,,,,,,,,,,,,,,,,,,,,,,,,,,,,,,,,,,,,,,,,,,,,,,,,,,,,,,,,,,,,,,,,,,,,,,,,"[""comma""]",0,94,0,94,0,1,[0.3790000000001328],,
,,,,,,,,,,,,5c9b0d631c8e140014d19fc5,41,Mężczyzna,2022-06-11_09h27.50.794,task,2021.1.4,Win32,30.0120048,6299f149e92ead563fba08ef,62a44338997204d6f31fe6a8,,,,,,,,,,,,,,,,,,,,,,,,,,,,,,,,,,,,,,,,,,,,,,,,,,,,,,,,,,,,,,,,,,,,,,,,,,,,,,,,,,,,,,,,,,,,"[""period""]",0,95,0,95,0,1,[0.3140000000000782],,
,,,,,,,,,,,,5c9b0d631c8e140014d19fc5,41,Mężczyzna,2022-06-11_09h27.50.794,task,2021.1.4,Win32,30.0120048,6299f149e92ead563fba08ef,62a44338997204d6f31fe6a8,,,,,,,,,,,,,,,,,,,,,,,,,,,,,,,,,,,,,,,,,,,,,,,,,,,,,,,,,,,,,,,,,,,,,,,,,,,,,,,,,,,,,,,,,,,,"[""comma""]",0,96,0,96,0,1,[0.28899999999998727],,
,,,,,,,,,,,,5c9b0d631c8e140014d19fc5,41,Mężczyzna,2022-06-11_09h27.50.794,task,2021.1.4,Win32,30.0120048,6299f149e92ead563fba08ef,62a44338997204d6f31fe6a8,,,,,,,,,,,,,,,,,,,,,,,,,,,,,,,,,,,,,,,,,,,,,,,,,,,,,,,,,,,,,,,,,,,,,,,,,,,,,,,,,,,,,,,,,,,,"[""period""]",0,97,0,97,0,1,[0.28700000000003456],,
