key_resp_15.keys,key_resp_15.rt,key_resp_16.keys,key_resp_16.rt,key_resp_4.keys,key_resp_4.rt,next_letter.thisRepN,next_letter.thisTrialN,next_letter.thisN,next_letter.thisIndex,next_letter.ran,letter,participant,Wiek*,Płeć,date,expName,psychopyVersion,OS,frameRate,study_id,session,simple_recall,key_resp_5.keys,key_resp_5.rt,simple_recall_corr,simple_recall_corrkeys,next_level.thisRepN,next_level.thisTrialN,next_level.thisN,next_level.thisIndex,next_level.ran,key_resp_2.keys,key_resp_2.rt,digit_answer,key_resp.keys,key_resp.corr,key_resp.rt,RT_list,next_equation.thisRepN,next_equation.thisTrialN,next_equation.thisN,next_equation.thisIndex,next_equation.ran,Task,Trial,Problem,Operation_answer,processing_score,sumRT,meanRT,sumdiff,sd,RT,key_resp_3.keys,key_resp_3.rt,repeat_practice.thisRepN,repeat_practice.thisTrialN,repeat_practice.thisN,repeat_practice.thisIndex,repeat_practice.ran,key_resp_6.keys,key_resp_6.rt,key_resp_11.keys,key_resp_11.corr,key_resp_11.rt,operation_correct,repeat_if_wrong_prac.thisRepN,repeat_if_wrong_prac.thisTrialN,repeat_if_wrong_prac.thisN,repeat_if_wrong_prac.thisIndex,repeat_if_wrong_prac.ran,span_size_prac.thisRepN,span_size_prac.thisTrialN,span_size_prac.thisN,span_size_prac.thisIndex,span_size_prac.ran,complex_recall_practice,key_resp_9.keys,key_resp_9.corr,key_resp_9.rt,complex_prac_corr,span_recall_prac.thisRepN,span_recall_prac.thisTrialN,span_recall_prac.thisN,span_recall_prac.thisIndex,span_recall_prac.ran,key_resp_10.keys,key_resp_10.rt,key_resp_7.keys,key_resp_7.corr,key_resp_7.rt,repeat_if_wrong.thisRepN,repeat_if_wrong.thisTrialN,repeat_if_wrong.thisN,repeat_if_wrong.thisIndex,repeat_if_wrong.ran,span_size.thisRepN,span_size.thisTrialN,span_size.thisN,span_size.thisIndex,span_size.ran,complex_recall,key_resp_8.keys,key_resp_8.corr,key_resp_8.rt,complex_recall_corr,complex_recall_corrkeys,span_recall.thisRepN,span_recall.thisTrialN,span_recall.thisN,span_recall.thisIndex,span_recall.ran,key_resp_13.keys,key_resp_13.corr,key_resp_13.rt,random_loop.thisRepN,random_loop.thisTrialN,random_loop.thisN,random_loop.thisIndex,random_loop.ran,key_resp_12.keys,key_resp_12.rt
space,147.593,space,21.6956,space,7.3417,0,0,0,0,1,X V Q F H G B L J M P D K C T S W R N Z,5cb0b3a61a9e59001571df04,28,Mężczyzna,2022-06-11_09h15.34.520,task,2021.1.4,Win32,60.0024001,6299f149e92ead563fba08ef,62a441087048548339cf06f6,,,,,,,,,,,,,,,,,,,,,,,,,,,,,,,,,,,,,,,,,,,,,,,,,,,,,,,,,,,,,,,,,,,,,,,,,,,,,,,,,,,,,,,,,,,,,,,,,,,,,
,,,,,,1,0,1,0,1,X V Q F H G B L J M P D K C T S W R N Z,5cb0b3a61a9e59001571df04,28,Mężczyzna,2022-06-11_09h15.34.520,task,2021.1.4,Win32,60.0024001,6299f149e92ead563fba08ef,62a441087048548339cf06f6,,,,,,,,,,,,,,,,,,,,,,,,,,,,,,,,,,,,,,,,,,,,,,,,,,,,,,,,,,,,,,,,,,,,,,,,,,,,,,,,,,,,,,,,,,,,,,,,,,,,,
,,,,,,,,,,,,5cb0b3a61a9e59001571df04,28,Mężczyzna,2022-06-11_09h15.34.520,task,2021.1.4,Win32,60.0024001,6299f149e92ead563fba08ef,62a441087048548339cf06f6,zg,"[""z"",""g""]","[3.6242999999523136,4.291499999999985,5.741099999904634]",1,ZG,0,0,0,0,1,,,,,,,,,,,,,,,,,,,,,,,,,,,,,,,,,,,,,,,,,,,,,,,,,,,,,,,,,,,,,,,,,,,,,,,,,,,,,,,,,,,,,,,,,,,
,,,,,,0,0,0,0,1,X V Q F H G B L J M P D K C T S W R N Z,5cb0b3a61a9e59001571df04,28,Mężczyzna,2022-06-11_09h15.34.520,task,2021.1.4,Win32,60.0024001,6299f149e92ead563fba08ef,62a441087048548339cf06f6,,,,,,,,,,,,,,,,,,,,,,,,,,,,,,,,,,,,,,,,,,,,,,,,,,,,,,,,,,,,,,,,,,,,,,,,,,,,,,,,,,,,,,,,,,,,,,,,,,,,,
,,,,,,1,0,1,0,1,X V Q F H G B L J M P D K C T S W R N Z,5cb0b3a61a9e59001571df04,28,Mężczyzna,2022-06-11_09h15.34.520,task,2021.1.4,Win32,60.0024001,6299f149e92ead563fba08ef,62a441087048548339cf06f6,,,,,,,,,,,,,,,,,,,,,,,,,,,,,,,,,,,,,,,,,,,,,,,,,,,,,,,,,,,,,,,,,,,,,,,,,,,,,,,,,,,,,,,,,,,,,,,,,,,,,
,,,,,,,,,,,,5cb0b3a61a9e59001571df04,28,Mężczyzna,2022-06-11_09h15.34.520,task,2021.1.4,Win32,60.0024001,6299f149e92ead563fba08ef,62a441087048548339cf06f6,mg,"[""m"",""g""]","[1.2996000001430446,1.4996000001430332,1.964700000047685]",1,MG,1,0,1,0,1,,,,,,,,,,,,,,,,,,,,,,,,,,,,,,,,,,,,,,,,,,,,,,,,,,,,,,,,,,,,,,,,,,,,,,,,,,,,,,,,,,,,,,,,,,,
,,,,,,0,0,0,0,1,X V Q F H G B L J M P D K C T S W R N Z,5cb0b3a61a9e59001571df04,28,Mężczyzna,2022-06-11_09h15.34.520,task,2021.1.4,Win32,60.0024001,6299f149e92ead563fba08ef,62a441087048548339cf06f6,,,,,,,,,,,,,,,,,,,,,,,,,,,,,,,,,,,,,,,,,,,,,,,,,,,,,,,,,,,,,,,,,,,,,,,,,,,,,,,,,,,,,,,,,,,,,,,,,,,,,
,,,,,,1,0,1,0,1,X V Q F H G B L J M P D K C T S W R N Z,5cb0b3a61a9e59001571df04,28,Mężczyzna,2022-06-11_09h15.34.520,task,2021.1.4,Win32,60.0024001,6299f149e92ead563fba08ef,62a441087048548339cf06f6,,,,,,,,,,,,,,,,,,,,,,,,,,,,,,,,,,,,,,,,,,,,,,,,,,,,,,,,,,,,,,,,,,,,,,,,,,,,,,,,,,,,,,,,,,,,,,,,,,,,,
,,,,,,2,0,2,0,1,X V Q F H G B L J M P D K C T S W R N Z,5cb0b3a61a9e59001571df04,28,Mężczyzna,2022-06-11_09h15.34.520,task,2021.1.4,Win32,60.0024001,6299f149e92ead563fba08ef,62a441087048548339cf06f6,,,,,,,,,,,,,,,,,,,,,,,,,,,,,,,,,,,,,,,,,,,,,,,,,,,,,,,,,,,,,,,,,,,,,,,,,,,,,,,,,,,,,,,,,,,,,,,,,,,,,
,,,,,,,,,,,,5cb0b3a61a9e59001571df04,28,Mężczyzna,2022-06-11_09h15.34.520,task,2021.1.4,Win32,60.0024001,6299f149e92ead563fba08ef,62a441087048548339cf06f6,hck,"[""h"",""c"",""k""]","[1.3496999998092747,2.0330000000000155,2.183000000000021,2.6984999999999957]",1,HCK,2,0,2,0,1,,,,,,,,,,,,,,,,,,,,,,,,,,,,,,,,,,,,,,,,,,,,,,,,,,,,,,,,,,,,,,,,,,,,,,,,,,,,,,,,,,,,,,,,,,,
,,,,,,0,0,0,0,1,X V Q F H G B L J M P D K C T S W R N Z,5cb0b3a61a9e59001571df04,28,Mężczyzna,2022-06-11_09h15.34.520,task,2021.1.4,Win32,60.0024001,6299f149e92ead563fba08ef,62a441087048548339cf06f6,,,,,,,,,,,,,,,,,,,,,,,,,,,,,,,,,,,,,,,,,,,,,,,,,,,,,,,,,,,,,,,,,,,,,,,,,,,,,,,,,,,,,,,,,,,,,,,,,,,,,
,,,,,,1,0,1,0,1,X V Q F H G B L J M P D K C T S W R N Z,5cb0b3a61a9e59001571df04,28,Mężczyzna,2022-06-11_09h15.34.520,task,2021.1.4,Win32,60.0024001,6299f149e92ead563fba08ef,62a441087048548339cf06f6,,,,,,,,,,,,,,,,,,,,,,,,,,,,,,,,,,,,,,,,,,,,,,,,,,,,,,,,,,,,,,,,,,,,,,,,,,,,,,,,,,,,,,,,,,,,,,,,,,,,,
,,,,,,2,0,2,0,1,X V Q F H G B L J M P D K C T S W R N Z,5cb0b3a61a9e59001571df04,28,Mężczyzna,2022-06-11_09h15.34.520,task,2021.1.4,Win32,60.0024001,6299f149e92ead563fba08ef,62a441087048548339cf06f6,,,,,,,,,,,,,,,,,,,,,,,,,,,,,,,,,,,,,,,,,,,,,,,,,,,,,,,,,,,,,,,,,,,,,,,,,,,,,,,,,,,,,,,,,,,,,,,,,,,,,
,,,,,,,,,,,,5cb0b3a61a9e59001571df04,28,Mężczyzna,2022-06-11_09h15.34.520,task,2021.1.4,Win32,60.0024001,6299f149e92ead563fba08ef,62a441087048548339cf06f6,hds,"[""h"",""d"",""s""]","[1.1495999999046091,1.5661999998092426,1.9002999999522956,2.5649999999999977]",1,HDS,3,0,3,0,1,,,,,,,,,,,,,,,,,,,,,,,,,,,,,,,,,,,,,,,,,,,,,,,,,,,,,,,,,,,,,,,,,,,,,,,,,,,,,,,,,,,,,,,,,,,
,,,,,,0,0,0,0,1,X V Q F H G B L J M P D K C T S W R N Z,5cb0b3a61a9e59001571df04,28,Mężczyzna,2022-06-11_09h15.34.520,task,2021.1.4,Win32,60.0024001,6299f149e92ead563fba08ef,62a441087048548339cf06f6,,,,,,,,,,,,,,,,,,,,,,,,,,,,,,,,,,,,,,,,,,,,,,,,,,,,,,,,,,,,,,,,,,,,,,,,,,,,,,,,,,,,,,,,,,,,,,,,,,,,,
,,,,,,1,0,1,0,1,X V Q F H G B L J M P D K C T S W R N Z,5cb0b3a61a9e59001571df04,28,Mężczyzna,2022-06-11_09h15.34.520,task,2021.1.4,Win32,60.0024001,6299f149e92ead563fba08ef,62a441087048548339cf06f6,,,,,,,,,,,,,,,,,,,,,,,,,,,,,,,,,,,,,,,,,,,,,,,,,,,,,,,,,,,,,,,,,,,,,,,,,,,,,,,,,,,,,,,,,,,,,,,,,,,,,
,,,,,,2,0,2,0,1,X V Q F H G B L J M P D K C T S W R N Z,5cb0b3a61a9e59001571df04,28,Mężczyzna,2022-06-11_09h15.34.520,task,2021.1.4,Win32,60.0024001,6299f149e92ead563fba08ef,62a441087048548339cf06f6,,,,,,,,,,,,,,,,,,,,,,,,,,,,,,,,,,,,,,,,,,,,,,,,,,,,,,,,,,,,,,,,,,,,,,,,,,,,,,,,,,,,,,,,,,,,,,,,,,,,,
,,,,,,3,0,3,0,1,X V Q F H G B L J M P D K C T S W R N Z,5cb0b3a61a9e59001571df04,28,Mężczyzna,2022-06-11_09h15.34.520,task,2021.1.4,Win32,60.0024001,6299f149e92ead563fba08ef,62a441087048548339cf06f6,,,,,,,,,,,,,,,,,,,,,,,,,,,,,,,,,,,,,,,,,,,,,,,,,,,,,,,,,,,,,,,,,,,,,,,,,,,,,,,,,,,,,,,,,,,,,,,,,,,,,
,,,,,,,,,,,,5cb0b3a61a9e59001571df04,28,Mężczyzna,2022-06-11_09h15.34.520,task,2021.1.4,Win32,60.0024001,6299f149e92ead563fba08ef,62a441087048548339cf06f6,zfff,"[""z"",""f"",""f"",""f""]","[0.849899999856973,1.683200000047691,2.0328999998569657,2.383200000047708,2.799099999904655]",1,ZFFF,4,0,4,0,1,,,,,,,,,,,,,,,,,,,,,,,,,,,,,,,,,,,,,,,,,,,,,,,,,,,,,,,,,,,,,,,,,,,,,,,,,,,,,,,,,,,,,,,,,,,
,,,,,,0,0,0,0,1,X V Q F H G B L J M P D K C T S W R N Z,5cb0b3a61a9e59001571df04,28,Mężczyzna,2022-06-11_09h15.34.520,task,2021.1.4,Win32,60.0024001,6299f149e92ead563fba08ef,62a441087048548339cf06f6,,,,,,,,,,,,,,,,,,,,,,,,,,,,,,,,,,,,,,,,,,,,,,,,,,,,,,,,,,,,,,,,,,,,,,,,,,,,,,,,,,,,,,,,,,,,,,,,,,,,,
,,,,,,1,0,1,0,1,X V Q F H G B L J M P D K C T S W R N Z,5cb0b3a61a9e59001571df04,28,Mężczyzna,2022-06-11_09h15.34.520,task,2021.1.4,Win32,60.0024001,6299f149e92ead563fba08ef,62a441087048548339cf06f6,,,,,,,,,,,,,,,,,,,,,,,,,,,,,,,,,,,,,,,,,,,,,,,,,,,,,,,,,,,,,,,,,,,,,,,,,,,,,,,,,,,,,,,,,,,,,,,,,,,,,
,,,,,,2,0,2,0,1,X V Q F H G B L J M P D K C T S W R N Z,5cb0b3a61a9e59001571df04,28,Mężczyzna,2022-06-11_09h15.34.520,task,2021.1.4,Win32,60.0024001,6299f149e92ead563fba08ef,62a441087048548339cf06f6,,,,,,,,,,,,,,,,,,,,,,,,,,,,,,,,,,,,,,,,,,,,,,,,,,,,,,,,,,,,,,,,,,,,,,,,,,,,,,,,,,,,,,,,,,,,,,,,,,,,,
,,,,,,3,0,3,0,1,X V Q F H G B L J M P D K C T S W R N Z,5cb0b3a61a9e59001571df04,28,Mężczyzna,2022-06-11_09h15.34.520,task,2021.1.4,Win32,60.0024001,6299f149e92ead563fba08ef,62a441087048548339cf06f6,,,,,,,,,,,,,,,,,,,,,,,,,,,,,,,,,,,,,,,,,,,,,,,,,,,,,,,,,,,,,,,,,,,,,,,,,,,,,,,,,,,,,,,,,,,,,,,,,,,,,
,,,,,,,,,,,,5cb0b3a61a9e59001571df04,28,Mężczyzna,2022-06-11_09h15.34.520,task,2021.1.4,Win32,60.0024001,6299f149e92ead563fba08ef,62a441087048548339cf06f6,cdwb,"[""c"",""d"",""w"",""b""]","[3.3496999998092747,3.7328999998569543,4.133199999809278,4.9165999999046335,5.615499999999997]",1,CDWB,5,0,5,0,1,,,,,,,,,,,,,,,,,,,,,,,,,,,,,,,,,,,,,,,,,,,,,,,,,,,,,,,,,,,,,,,,,,,,,,,,,,,,,,,,,,,,,,,,,,,
,,,,,,0,0,0,0,1,X V Q F H G B L J M P D K C T S W R N Z,5cb0b3a61a9e59001571df04,28,Mężczyzna,2022-06-11_09h15.34.520,task,2021.1.4,Win32,60.0024001,6299f149e92ead563fba08ef,62a441087048548339cf06f6,,,,,,,,,,,,,,,,,,,,,,,,,,,,,,,,,,,,,,,,,,,,,,,,,,,,,,,,,,,,,,,,,,,,,,,,,,,,,,,,,,,,,,,,,,,,,,,,,,,,,
,,,,,,1,0,1,0,1,X V Q F H G B L J M P D K C T S W R N Z,5cb0b3a61a9e59001571df04,28,Mężczyzna,2022-06-11_09h15.34.520,task,2021.1.4,Win32,60.0024001,6299f149e92ead563fba08ef,62a441087048548339cf06f6,,,,,,,,,,,,,,,,,,,,,,,,,,,,,,,,,,,,,,,,,,,,,,,,,,,,,,,,,,,,,,,,,,,,,,,,,,,,,,,,,,,,,,,,,,,,,,,,,,,,,
,,,,,,2,0,2,0,1,X V Q F H G B L J M P D K C T S W R N Z,5cb0b3a61a9e59001571df04,28,Mężczyzna,2022-06-11_09h15.34.520,task,2021.1.4,Win32,60.0024001,6299f149e92ead563fba08ef,62a441087048548339cf06f6,,,,,,,,,,,,,,,,,,,,,,,,,,,,,,,,,,,,,,,,,,,,,,,,,,,,,,,,,,,,,,,,,,,,,,,,,,,,,,,,,,,,,,,,,,,,,,,,,,,,,
,,,,,,3,0,3,0,1,X V Q F H G B L J M P D K C T S W R N Z,5cb0b3a61a9e59001571df04,28,Mężczyzna,2022-06-11_09h15.34.520,task,2021.1.4,Win32,60.0024001,6299f149e92ead563fba08ef,62a441087048548339cf06f6,,,,,,,,,,,,,,,,,,,,,,,,,,,,,,,,,,,,,,,,,,,,,,,,,,,,,,,,,,,,,,,,,,,,,,,,,,,,,,,,,,,,,,,,,,,,,,,,,,,,,
,,,,,,4,0,4,0,1,X V Q F H G B L J M P D K C T S W R N Z,5cb0b3a61a9e59001571df04,28,Mężczyzna,2022-06-11_09h15.34.520,task,2021.1.4,Win32,60.0024001,6299f149e92ead563fba08ef,62a441087048548339cf06f6,,,,,,,,,,,,,,,,,,,,,,,,,,,,,,,,,,,,,,,,,,,,,,,,,,,,,,,,,,,,,,,,,,,,,,,,,,,,,,,,,,,,,,,,,,,,,,,,,,,,,
,,,,,,,,,,,,5cb0b3a61a9e59001571df04,28,Mężczyzna,2022-06-11_09h15.34.520,task,2021.1.4,Win32,60.0024001,6299f149e92ead563fba08ef,62a441087048548339cf06f6,xmtzz,"[""x"",""m"",""t"",""z"",""z""]","[0.7662000000476894,2.2329000000953556,2.532499999999999,2.9994000000953633,3.3674000000953583,6.464799999952305]",1,XMTZZ,6,0,6,0,1,,,,,,,,,,,,,,,,,,,,,,,,,,,,,,,,,,,,,,,,,,,,,,,,,,,,,,,,,,,,,,,,,,,,,,,,,,,,,,,,,,,,,,,,,,,
,,,,,,0,0,0,0,1,X V Q F H G B L J M P D K C T S W R N Z,5cb0b3a61a9e59001571df04,28,Mężczyzna,2022-06-11_09h15.34.520,task,2021.1.4,Win32,60.0024001,6299f149e92ead563fba08ef,62a441087048548339cf06f6,,,,,,,,,,,,,,,,,,,,,,,,,,,,,,,,,,,,,,,,,,,,,,,,,,,,,,,,,,,,,,,,,,,,,,,,,,,,,,,,,,,,,,,,,,,,,,,,,,,,,
,,,,,,1,0,1,0,1,X V Q F H G B L J M P D K C T S W R N Z,5cb0b3a61a9e59001571df04,28,Mężczyzna,2022-06-11_09h15.34.520,task,2021.1.4,Win32,60.0024001,6299f149e92ead563fba08ef,62a441087048548339cf06f6,,,,,,,,,,,,,,,,,,,,,,,,,,,,,,,,,,,,,,,,,,,,,,,,,,,,,,,,,,,,,,,,,,,,,,,,,,,,,,,,,,,,,,,,,,,,,,,,,,,,,
,,,,,,2,0,2,0,1,X V Q F H G B L J M P D K C T S W R N Z,5cb0b3a61a9e59001571df04,28,Mężczyzna,2022-06-11_09h15.34.520,task,2021.1.4,Win32,60.0024001,6299f149e92ead563fba08ef,62a441087048548339cf06f6,,,,,,,,,,,,,,,,,,,,,,,,,,,,,,,,,,,,,,,,,,,,,,,,,,,,,,,,,,,,,,,,,,,,,,,,,,,,,,,,,,,,,,,,,,,,,,,,,,,,,
,,,,,,3,0,3,0,1,X V Q F H G B L J M P D K C T S W R N Z,5cb0b3a61a9e59001571df04,28,Mężczyzna,2022-06-11_09h15.34.520,task,2021.1.4,Win32,60.0024001,6299f149e92ead563fba08ef,62a441087048548339cf06f6,,,,,,,,,,,,,,,,,,,,,,,,,,,,,,,,,,,,,,,,,,,,,,,,,,,,,,,,,,,,,,,,,,,,,,,,,,,,,,,,,,,,,,,,,,,,,,,,,,,,,
,,,,,,4,0,4,0,1,X V Q F H G B L J M P D K C T S W R N Z,5cb0b3a61a9e59001571df04,28,Mężczyzna,2022-06-11_09h15.34.520,task,2021.1.4,Win32,60.0024001,6299f149e92ead563fba08ef,62a441087048548339cf06f6,,,,,,,,,,,,,,,,,,,,,,,,,,,,,,,,,,,,,,,,,,,,,,,,,,,,,,,,,,,,,,,,,,,,,,,,,,,,,,,,,,,,,,,,,,,,,,,,,,,,,
,,,,,,,,,,,,5cb0b3a61a9e59001571df04,28,Mężczyzna,2022-06-11_09h15.34.520,task,2021.1.4,Win32,60.0024001,6299f149e92ead563fba08ef,62a441087048548339cf06f6,bbxxh,"[""b"",""b"",""x"",""x"",""h""]","[0.8493999998569279,1.366599999904622,1.6825999999046246,2.1829999999999927,2.8998999998569275,8.465199999809272]",1,BBXXH,7,0,7,0,1,,,,,,,,,,,,,,,,,,,,,,,,,,,,,,,,,,,,,,,,,,,,,,,,,,,,,,,,,,,,,,,,,,,,,,,,,,,,,,,,,,,,,,,,,,,
,,,,,,0,0,0,0,1,X V Q F H G B L J M P D K C T S W R N Z,5cb0b3a61a9e59001571df04,28,Mężczyzna,2022-06-11_09h15.34.520,task,2021.1.4,Win32,60.0024001,6299f149e92ead563fba08ef,62a441087048548339cf06f6,,,,,,,,,,,,,,,,,,,,,,,,,,,,,,,,,,,,,,,,,,,,,,,,,,,,,,,,,,,,,,,,,,,,,,,,,,,,,,,,,,,,,,,,,,,,,,,,,,,,,
,,,,,,1,0,1,0,1,X V Q F H G B L J M P D K C T S W R N Z,5cb0b3a61a9e59001571df04,28,Mężczyzna,2022-06-11_09h15.34.520,task,2021.1.4,Win32,60.0024001,6299f149e92ead563fba08ef,62a441087048548339cf06f6,,,,,,,,,,,,,,,,,,,,,,,,,,,,,,,,,,,,,,,,,,,,,,,,,,,,,,,,,,,,,,,,,,,,,,,,,,,,,,,,,,,,,,,,,,,,,,,,,,,,,
,,,,,,2,0,2,0,1,X V Q F H G B L J M P D K C T S W R N Z,5cb0b3a61a9e59001571df04,28,Mężczyzna,2022-06-11_09h15.34.520,task,2021.1.4,Win32,60.0024001,6299f149e92ead563fba08ef,62a441087048548339cf06f6,,,,,,,,,,,,,,,,,,,,,,,,,,,,,,,,,,,,,,,,,,,,,,,,,,,,,,,,,,,,,,,,,,,,,,,,,,,,,,,,,,,,,,,,,,,,,,,,,,,,,
,,,,,,3,0,3,0,1,X V Q F H G B L J M P D K C T S W R N Z,5cb0b3a61a9e59001571df04,28,Mężczyzna,2022-06-11_09h15.34.520,task,2021.1.4,Win32,60.0024001,6299f149e92ead563fba08ef,62a441087048548339cf06f6,,,,,,,,,,,,,,,,,,,,,,,,,,,,,,,,,,,,,,,,,,,,,,,,,,,,,,,,,,,,,,,,,,,,,,,,,,,,,,,,,,,,,,,,,,,,,,,,,,,,,
,,,,,,4,0,4,0,1,X V Q F H G B L J M P D K C T S W R N Z,5cb0b3a61a9e59001571df04,28,Mężczyzna,2022-06-11_09h15.34.520,task,2021.1.4,Win32,60.0024001,6299f149e92ead563fba08ef,62a441087048548339cf06f6,,,,,,,,,,,,,,,,,,,,,,,,,,,,,,,,,,,,,,,,,,,,,,,,,,,,,,,,,,,,,,,,,,,,,,,,,,,,,,,,,,,,,,,,,,,,,,,,,,,,,
,,,,,,5,0,5,0,1,X V Q F H G B L J M P D K C T S W R N Z,5cb0b3a61a9e59001571df04,28,Mężczyzna,2022-06-11_09h15.34.520,task,2021.1.4,Win32,60.0024001,6299f149e92ead563fba08ef,62a441087048548339cf06f6,,,,,,,,,,,,,,,,,,,,,,,,,,,,,,,,,,,,,,,,,,,,,,,,,,,,,,,,,,,,,,,,,,,,,,,,,,,,,,,,,,,,,,,,,,,,,,,,,,,,,
,,,,,,,,,,,,5cb0b3a61a9e59001571df04,28,Mężczyzna,2022-06-11_09h15.34.520,task,2021.1.4,Win32,60.0024001,6299f149e92ead563fba08ef,62a441087048548339cf06f6,xvdpl,"[""x"",""v"",""d"",""p"",""l""]","[0.599599999904683,2.166399999856992,4.066399999856969,4.316500000000019,4.61839999985699,5.9662000000477065]",0,XVLDPN,8,0,8,0,1,,,,,,,,,,,,,,,,,,,,,,,,,,,,,,,,,,,,,,,,,,,,,,,,,,,,,,,,,,,,,,,,,,,,,,,,,,,,,,,,,,,,,,,,,,,
,,,,,,0,0,0,0,1,X V Q F H G B L J M P D K C T S W R N Z,5cb0b3a61a9e59001571df04,28,Mężczyzna,2022-06-11_09h15.34.520,task,2021.1.4,Win32,60.0024001,6299f149e92ead563fba08ef,62a441087048548339cf06f6,,,,,,,,,,,,,,,,,,,,,,,,,,,,,,,,,,,,,,,,,,,,,,,,,,,,,,,,,,,,,,,,,,,,,,,,,,,,,,,,,,,,,,,,,,,,,,,,,,,,,
,,,,,,1,0,1,0,1,X V Q F H G B L J M P D K C T S W R N Z,5cb0b3a61a9e59001571df04,28,Mężczyzna,2022-06-11_09h15.34.520,task,2021.1.4,Win32,60.0024001,6299f149e92ead563fba08ef,62a441087048548339cf06f6,,,,,,,,,,,,,,,,,,,,,,,,,,,,,,,,,,,,,,,,,,,,,,,,,,,,,,,,,,,,,,,,,,,,,,,,,,,,,,,,,,,,,,,,,,,,,,,,,,,,,
,,,,,,2,0,2,0,1,X V Q F H G B L J M P D K C T S W R N Z,5cb0b3a61a9e59001571df04,28,Mężczyzna,2022-06-11_09h15.34.520,task,2021.1.4,Win32,60.0024001,6299f149e92ead563fba08ef,62a441087048548339cf06f6,,,,,,,,,,,,,,,,,,,,,,,,,,,,,,,,,,,,,,,,,,,,,,,,,,,,,,,,,,,,,,,,,,,,,,,,,,,,,,,,,,,,,,,,,,,,,,,,,,,,,
,,,,,,3,0,3,0,1,X V Q F H G B L J M P D K C T S W R N Z,5cb0b3a61a9e59001571df04,28,Mężczyzna,2022-06-11_09h15.34.520,task,2021.1.4,Win32,60.0024001,6299f149e92ead563fba08ef,62a441087048548339cf06f6,,,,,,,,,,,,,,,,,,,,,,,,,,,,,,,,,,,,,,,,,,,,,,,,,,,,,,,,,,,,,,,,,,,,,,,,,,,,,,,,,,,,,,,,,,,,,,,,,,,,,
,,,,,,4,0,4,0,1,X V Q F H G B L J M P D K C T S W R N Z,5cb0b3a61a9e59001571df04,28,Mężczyzna,2022-06-11_09h15.34.520,task,2021.1.4,Win32,60.0024001,6299f149e92ead563fba08ef,62a441087048548339cf06f6,,,,,,,,,,,,,,,,,,,,,,,,,,,,,,,,,,,,,,,,,,,,,,,,,,,,,,,,,,,,,,,,,,,,,,,,,,,,,,,,,,,,,,,,,,,,,,,,,,,,,
,,,,,,5,0,5,0,1,X V Q F H G B L J M P D K C T S W R N Z,5cb0b3a61a9e59001571df04,28,Mężczyzna,2022-06-11_09h15.34.520,task,2021.1.4,Win32,60.0024001,6299f149e92ead563fba08ef,62a441087048548339cf06f6,,,,,,,,,,,,,,,,,,,,,,,,,,,,,,,,,,,,,,,,,,,,,,,,,,,,,,,,,,,,,,,,,,,,,,,,,,,,,,,,,,,,,,,,,,,,,,,,,,,,,
,,,,,,,,,,,,5cb0b3a61a9e59001571df04,28,Mężczyzna,2022-06-11_09h15.34.520,task,2021.1.4,Win32,60.0024001,6299f149e92ead563fba08ef,62a441087048548339cf06f6,kqqx,"[""k"",""q"",""q"",""x""]","[0.8663000001907335,2.099700000047676,3.818200000047682,4.533400000095355,7.848600000143051]",0,KQXXVN,9,0,9,0,1,,,,,,,,,,,,,,,,,,,,,,,,,,,,,,,,,,,,,,,,,,,,,,,,,,,,,,,,,,,,,,,,,,,,,,,,,,,,,,,,,,,,,,,,,,,
,,,,,,0,0,0,0,1,X V Q F H G B L J M P D K C T S W R N Z,5cb0b3a61a9e59001571df04,28,Mężczyzna,2022-06-11_09h15.34.520,task,2021.1.4,Win32,60.0024001,6299f149e92ead563fba08ef,62a441087048548339cf06f6,,,,,,,,,,,,,,,,,,,,,,,,,,,,,,,,,,,,,,,,,,,,,,,,,,,,,,,,,,,,,,,,,,,,,,,,,,,,,,,,,,,,,,,,,,,,,,,,,,,,,
,,,,,,1,0,1,0,1,X V Q F H G B L J M P D K C T S W R N Z,5cb0b3a61a9e59001571df04,28,Mężczyzna,2022-06-11_09h15.34.520,task,2021.1.4,Win32,60.0024001,6299f149e92ead563fba08ef,62a441087048548339cf06f6,,,,,,,,,,,,,,,,,,,,,,,,,,,,,,,,,,,,,,,,,,,,,,,,,,,,,,,,,,,,,,,,,,,,,,,,,,,,,,,,,,,,,,,,,,,,,,,,,,,,,
,,,,,,2,0,2,0,1,X V Q F H G B L J M P D K C T S W R N Z,5cb0b3a61a9e59001571df04,28,Mężczyzna,2022-06-11_09h15.34.520,task,2021.1.4,Win32,60.0024001,6299f149e92ead563fba08ef,62a441087048548339cf06f6,,,,,,,,,,,,,,,,,,,,,,,,,,,,,,,,,,,,,,,,,,,,,,,,,,,,,,,,,,,,,,,,,,,,,,,,,,,,,,,,,,,,,,,,,,,,,,,,,,,,,
,,,,,,3,0,3,0,1,X V Q F H G B L J M P D K C T S W R N Z,5cb0b3a61a9e59001571df04,28,Mężczyzna,2022-06-11_09h15.34.520,task,2021.1.4,Win32,60.0024001,6299f149e92ead563fba08ef,62a441087048548339cf06f6,,,,,,,,,,,,,,,,,,,,,,,,,,,,,,,,,,,,,,,,,,,,,,,,,,,,,,,,,,,,,,,,,,,,,,,,,,,,,,,,,,,,,,,,,,,,,,,,,,,,,
,,,,,,4,0,4,0,1,X V Q F H G B L J M P D K C T S W R N Z,5cb0b3a61a9e59001571df04,28,Mężczyzna,2022-06-11_09h15.34.520,task,2021.1.4,Win32,60.0024001,6299f149e92ead563fba08ef,62a441087048548339cf06f6,,,,,,,,,,,,,,,,,,,,,,,,,,,,,,,,,,,,,,,,,,,,,,,,,,,,,,,,,,,,,,,,,,,,,,,,,,,,,,,,,,,,,,,,,,,,,,,,,,,,,
,,,,,,5,0,5,0,1,X V Q F H G B L J M P D K C T S W R N Z,5cb0b3a61a9e59001571df04,28,Mężczyzna,2022-06-11_09h15.34.520,task,2021.1.4,Win32,60.0024001,6299f149e92ead563fba08ef,62a441087048548339cf06f6,,,,,,,,,,,,,,,,,,,,,,,,,,,,,,,,,,,,,,,,,,,,,,,,,,,,,,,,,,,,,,,,,,,,,,,,,,,,,,,,,,,,,,,,,,,,,,,,,,,,,
,,,,,,,,,,,,5cb0b3a61a9e59001571df04,28,Mężczyzna,2022-06-11_09h15.34.520,task,2021.1.4,Win32,60.0024001,6299f149e92ead563fba08ef,62a441087048548339cf06f6,rjdnz,"[""r"",""j"",""d"",""n"",""z""]","[1.1162000000476837,1.733000000000004,2.1667000000476833,4.100500000000011,4.483100000143054,5.198200000047677]",0,RJDNZD,10,0,10,0,1,,,,,,,,,,,,,,,,,,,,,,,,,,,,,,,,,,,,,,,,,,,,,,,,,,,,,,,,,,,,,,,,,,,,,,,,,,,,,,,,,,,,,,,,,,,
,,,,,,,,,,,,5cb0b3a61a9e59001571df04,28,Mężczyzna,2022-06-11_09h15.34.520,task,2021.1.4,Win32,60.0024001,6299f149e92ead563fba08ef,62a441087048548339cf06f6,,,,,,,,,,,space,336.0317,3,"[""3""]",1,[12.963599999904659],[12.963599999904659],0,0,0,3,1,Practice,4,(8/4) + 1,3,,,,,,,,,,,,,,,,,,,,,,,,,,,,,,,,,,,,,,,,,,,,,,,,,,,,,,,,,,,,,,,,,,,,,,,,,,,
,,,,,,,,,,,,5cb0b3a61a9e59001571df04,28,Mężczyzna,2022-06-11_09h15.34.520,task,2021.1.4,Win32,60.0024001,6299f149e92ead563fba08ef,62a441087048548339cf06f6,,,,,,,,,,,,,7,"[""7""]",1,[5.532500000000027],"[12.963599999904659,5.532500000000027]",0,1,1,7,1,Practice,8,(5x5) - 18,7,,,,,,,,,,,,,,,,,,,,,,,,,,,,,,,,,,,,,,,,,,,,,,,,,,,,,,,,,,,,,,,,,,,,,,,,,,,
,,,,,,,,,,,,5cb0b3a61a9e59001571df04,28,Mężczyzna,2022-06-11_09h15.34.520,task,2021.1.4,Win32,60.0024001,6299f149e92ead563fba08ef,62a441087048548339cf06f6,,,,,,,,,,,,,5,"[""5""]",1,[7.649600000142982],"[12.963599999904659,5.532500000000027,7.649600000142982]",0,2,2,5,1,Practice,6,(4/2) + 3,5,,,,,,,,,,,,,,,,,,,,,,,,,,,,,,,,,,,,,,,,,,,,,,,,,,,,,,,,,,,,,,,,,,,,,,,,,,,
,,,,,,,,,,,,5cb0b3a61a9e59001571df04,28,Mężczyzna,2022-06-11_09h15.34.520,task,2021.1.4,Win32,60.0024001,6299f149e92ead563fba08ef,62a441087048548339cf06f6,,,,,,,,,,,,,8,"[""8""]",1,[4.71520000004773],"[12.963599999904659,5.532500000000027,7.649600000142982,4.71520000004773]",0,3,3,8,1,Practice,9,(3x3) - 1,8,,,,,,,,,,,,,,,,,,,,,,,,,,,,,,,,,,,,,,,,,,,,,,,,,,,,,,,,,,,,,,,,,,,,,,,,,,,
,,,,,,,,,,,,5cb0b3a61a9e59001571df04,28,Mężczyzna,2022-06-11_09h15.34.520,task,2021.1.4,Win32,60.0024001,6299f149e92ead563fba08ef,62a441087048548339cf06f6,,,,,,,,,,,,,6,"[""6""]",1,[4.325799999952324],"[12.963599999904659,5.532500000000027,7.649600000142982,4.71520000004773,4.325799999952324]",0,4,4,6,1,Practice,7,(25/5) + 1,6,,,,,,,,,,,,,,,,,,,,,,,,,,,,,,,,,,,,,,,,,,,,,,,,,,,,,,,,,,,,,,,,,,,,,,,,,,,
,,,,,,,,,,,,5cb0b3a61a9e59001571df04,28,Mężczyzna,2022-06-11_09h15.34.520,task,2021.1.4,Win32,60.0024001,6299f149e92ead563fba08ef,62a441087048548339cf06f6,,,,,,,,,,,,,9,"[""9""]",1,[4.1264999999999645],"[12.963599999904659,5.532500000000027,7.649600000142982,4.71520000004773,4.325799999952324,4.1264999999999645]",0,5,5,9,1,Practice,10,(20/2) - 1,9,,,,,,,,,,,,,,,,,,,,,,,,,,,,,,,,,,,,,,,,,,,,,,,,,,,,,,,,,,,,,,,,,,,,,,,,,,,
,,,,,,,,,,,,5cb0b3a61a9e59001571df04,28,Mężczyzna,2022-06-11_09h15.34.520,task,2021.1.4,Win32,60.0024001,6299f149e92ead563fba08ef,62a441087048548339cf06f6,,,,,,,,,,,,,1,"[""1""]",1,[4.47329999995236],"[12.963599999904659,5.532500000000027,7.649600000142982,4.71520000004773,4.325799999952324,4.1264999999999645,4.47329999995236]",0,6,6,1,1,Practice,2,(4x4) - 15,1,,,,,,,,,,,,,,,,,,,,,,,,,,,,,,,,,,,,,,,,,,,,,,,,,,,,,,,,,,,,,,,,,,,,,,,,,,,
,,,,,,,,,,,,5cb0b3a61a9e59001571df04,28,Mężczyzna,2022-06-11_09h15.34.520,task,2021.1.4,Win32,60.0024001,6299f149e92ead563fba08ef,62a441087048548339cf06f6,,,,,,,,,,,,,0,"[""0""]",1,[2.441799999952309],"[12.963599999904659,5.532500000000027,7.649600000142982,4.71520000004773,4.325799999952324,4.1264999999999645,4.47329999995236,2.441799999952309]",0,7,7,0,1,Practice,1,(3x3) -  9,0,,,,,,,,,,,,,,,,,,,,,,,,,,,,,,,,,,,,,,,,,,,,,,,,,,,,,,,,,,,,,,,,,,,,,,,,,,,
,,,,,,,,,,,,5cb0b3a61a9e59001571df04,28,Mężczyzna,2022-06-11_09h15.34.520,task,2021.1.4,Win32,60.0024001,6299f149e92ead563fba08ef,62a441087048548339cf06f6,,,,,,,,,,,,,4,"[""4""]",1,[4.619799999952306],"[12.963599999904659,5.532500000000027,7.649600000142982,4.71520000004773,4.325799999952324,4.1264999999999645,4.47329999995236,2.441799999952309,4.619799999952306]",0,8,8,4,1,Practice,5,(2x6) - 8,4,,,,,,,,,,,,,,,,,,,,,,,,,,,,,,,,,,,,,,,,,,,,,,,,,,,,,,,,,,,,,,,,,,,,,,,,,,,
,,,,,,,,,,,,5cb0b3a61a9e59001571df04,28,Mężczyzna,2022-06-11_09h15.34.520,task,2021.1.4,Win32,60.0024001,6299f149e92ead563fba08ef,62a441087048548339cf06f6,,,,,,,,,,,,,2,"[""2""]",1,[2.6659000000953483],"[12.963599999904659,5.532500000000027,7.649600000142982,4.71520000004773,4.325799999952324,4.1264999999999645,4.47329999995236,2.441799999952309,4.619799999952306,2.6659000000953483]",0,9,9,2,1,Practice,3,(4x4) - 14,2,,,,,,,,,,,,,,,,,,,,,,,,,,,,,,,,,,,,,,,,,,,,,,,,,,,,,,,,,,,,,,,,,,,,,,,,,,,
,,,,,,,,,,,,5cb0b3a61a9e59001571df04,28,Mężczyzna,2022-06-11_09h15.34.520,task,2021.1.4,Win32,60.0024001,6299f149e92ead563fba08ef,62a441087048548339cf06f6,,,,,,,,,,,,,,,,,,,,,,,,,,,1,53.514,3.5676,115.0205001,2.769121402,10.71193322,space,20.9893,0,0,0,0,1,,,,,,,,,,,,,,,,,,,,,,,,,,,,,,,,,,,,,,,,,,,,,,,,,,,,,,,,,,,,,,
,,,,,,,,,,,,5cb0b3a61a9e59001571df04,28,Mężczyzna,2022-06-11_09h15.34.520,task,2021.1.4,Win32,60.0024001,6299f149e92ead563fba08ef,62a441087048548339cf06f6,,,,,,,,,,,,,5,,,,,,,,,,Practice,6,(4/2) + 3,5,,,,,,,,,,,,,,space,17.0811,"[""5""]",1,[4.096100000142997],1,0,0,0,5,1,,,,,,,,,,,,,,,,,,,,,,,,,,,,,,,,,,,,,,,,,,,,,,,,,,,
,,,,,,,,,,,X V Q F H G B L J M P D K C T S W R N Z,5cb0b3a61a9e59001571df04,28,Mężczyzna,2022-06-11_09h15.34.520,task,2021.1.4,Win32,60.0024001,6299f149e92ead563fba08ef,62a441087048548339cf06f6,,,,,,,,,,,,,,,,,,,,,,,,,,,,,,,,,,,,,,,,,,,,,,,,,,,0,0,0,0,1,,,,,,,,,,,,,,,,,,,,,,,,,,,,,,,,,,,,,,,,,,,,,,
,,,,,,,,,,,,5cb0b3a61a9e59001571df04,28,Mężczyzna,2022-06-11_09h15.34.520,task,2021.1.4,Win32,60.0024001,6299f149e92ead563fba08ef,62a441087048548339cf06f6,,,,,,,,,,,,,0,,,,,,,,,,Practice,1,(3x3) -  9,0,,,,,,,,,,,,,,,,"[""0""]",1,[2.593499999999949],1,0,0,0,0,1,,,,,,,,,,,,,,,,,,,,,,,,,,,,,,,,,,,,,,,,,,,,,,,,,,,
,,,,,,,,,,,X V Q F H G B L J M P D K C T S W R N Z,5cb0b3a61a9e59001571df04,28,Mężczyzna,2022-06-11_09h15.34.520,task,2021.1.4,Win32,60.0024001,6299f149e92ead563fba08ef,62a441087048548339cf06f6,,,,,,,,,,,,,,,,,,,,,,,,,,,,,,,,,,,,,,,,,,,,,,,,,,,1,0,1,0,1,,,,,,,,,,,,,,,,,,,,,,,,,,,,,,,,,,,,,,,,,,,,,,
,,,,,,,,,,,,5cb0b3a61a9e59001571df04,28,Mężczyzna,2022-06-11_09h15.34.520,task,2021.1.4,Win32,60.0024001,6299f149e92ead563fba08ef,62a441087048548339cf06f6,,,,,,,,,,,,,,,,,,,,,,,,,,,,,,,,,,,,,,,,,,,,,,,,,,,,,,,,zq,"[""z"",""q""]",0,"[2.5072000000476464,3.1087000000477474,3.94500000000005]",1,0,0,0,0,1,,,,,,,,,,,,,,,,,,,,,,,,,,,,,,,,,,,,
,,,,,,,,,,,,5cb0b3a61a9e59001571df04,28,Mężczyzna,2022-06-11_09h15.34.520,task,2021.1.4,Win32,60.0024001,6299f149e92ead563fba08ef,62a441087048548339cf06f6,,,,,,,,,,,,,6,,,,,,,,,,Practice,7,(25/5) + 1,6,,,,,,,,,,,,,,,,"[""6""]",1,[2.694699999809245],1,0,0,0,6,1,,,,,,,,,,,,,,,,,,,,,,,,,,,,,,,,,,,,,,,,,,,,,,,,,,,
,,,,,,,,,,,X V Q F H G B L J M P D K C T S W R N Z,5cb0b3a61a9e59001571df04,28,Mężczyzna,2022-06-11_09h15.34.520,task,2021.1.4,Win32,60.0024001,6299f149e92ead563fba08ef,62a441087048548339cf06f6,,,,,,,,,,,,,,,,,,,,,,,,,,,,,,,,,,,,,,,,,,,,,,,,,,,0,0,0,0,1,,,,,,,,,,,,,,,,,,,,,,,,,,,,,,,,,,,,,,,,,,,,,,
,,,,,,,,,,,,5cb0b3a61a9e59001571df04,28,Mężczyzna,2022-06-11_09h15.34.520,task,2021.1.4,Win32,60.0024001,6299f149e92ead563fba08ef,62a441087048548339cf06f6,,,,,,,,,,,,,5,,,,,,,,,,Practice,6,(4/2) + 3,5,,,,,,,,,,,,,,,,"[""5""]",1,[4.453200000047673],1,0,0,0,5,1,,,,,,,,,,,,,,,,,,,,,,,,,,,,,,,,,,,,,,,,,,,,,,,,,,,
,,,,,,,,,,,X V Q F H G B L J M P D K C T S W R N Z,5cb0b3a61a9e59001571df04,28,Mężczyzna,2022-06-11_09h15.34.520,task,2021.1.4,Win32,60.0024001,6299f149e92ead563fba08ef,62a441087048548339cf06f6,,,,,,,,,,,,,,,,,,,,,,,,,,,,,,,,,,,,,,,,,,,,,,,,,,,1,0,1,0,1,,,,,,,,,,,,,,,,,,,,,,,,,,,,,,,,,,,,,,,,,,,,,,
,,,,,,,,,,,,5cb0b3a61a9e59001571df04,28,Mężczyzna,2022-06-11_09h15.34.520,task,2021.1.4,Win32,60.0024001,6299f149e92ead563fba08ef,62a441087048548339cf06f6,,,,,,,,,,,,,,,,,,,,,,,,,,,,,,,,,,,,,,,,,,,,,,,,,,,,,,,,zk,"[""z"",""k""]",0,"[2.096499999999992,2.4562000000477155,3.247900000095342]",1,1,0,1,0,1,,,,,,,,,,,,,,,,,,,,,,,,,,,,,,,,,,,,
,,,,,,,,,,,,5cb0b3a61a9e59001571df04,28,Mężczyzna,2022-06-11_09h15.34.520,task,2021.1.4,Win32,60.0024001,6299f149e92ead563fba08ef,62a441087048548339cf06f6,,,,,,,,,,,,,5,,,,,,,,,,Practice,6,(4/2) + 3,5,,,,,,,,,,,,,,,,"[""5""]",1,[2.936700000047722],1,0,0,0,5,1,,,,,,,,,,,,,,,,,,,,,,,,,,,,,,,,,,,,,,,,,,,,,,,,,,,
,,,,,,,,,,,X V Q F H G B L J M P D K C T S W R N Z,5cb0b3a61a9e59001571df04,28,Mężczyzna,2022-06-11_09h15.34.520,task,2021.1.4,Win32,60.0024001,6299f149e92ead563fba08ef,62a441087048548339cf06f6,,,,,,,,,,,,,,,,,,,,,,,,,,,,,,,,,,,,,,,,,,,,,,,,,,,0,0,0,0,1,,,,,,,,,,,,,,,,,,,,,,,,,,,,,,,,,,,,,,,,,,,,,,
,,,,,,,,,,,,5cb0b3a61a9e59001571df04,28,Mężczyzna,2022-06-11_09h15.34.520,task,2021.1.4,Win32,60.0024001,6299f149e92ead563fba08ef,62a441087048548339cf06f6,,,,,,,,,,,,,6,,,,,,,,,,Practice,7,(25/5) + 1,6,,,,,,,,,,,,,,,,"[""6""]",1,[3.349099999904638],1,0,0,0,6,1,,,,,,,,,,,,,,,,,,,,,,,,,,,,,,,,,,,,,,,,,,,,,,,,,,,
,,,,,,,,,,,X V Q F H G B L J M P D K C T S W R N Z,5cb0b3a61a9e59001571df04,28,Mężczyzna,2022-06-11_09h15.34.520,task,2021.1.4,Win32,60.0024001,6299f149e92ead563fba08ef,62a441087048548339cf06f6,,,,,,,,,,,,,,,,,,,,,,,,,,,,,,,,,,,,,,,,,,,,,,,,,,,1,0,1,0,1,,,,,,,,,,,,,,,,,,,,,,,,,,,,,,,,,,,,,,,,,,,,,,
,,,,,,,,,,,,5cb0b3a61a9e59001571df04,28,Mężczyzna,2022-06-11_09h15.34.520,task,2021.1.4,Win32,60.0024001,6299f149e92ead563fba08ef,62a441087048548339cf06f6,,,,,,,,,,,,,,,,,,,,,,,,,,,,,,,,,,,,,,,,,,,,,,,,,,,,,,,,sb,"[""s"",""b""]",0,"[1.58270000004768,1.9589999999999463,2.2694999999999936]",1,2,0,2,0,1,,,,,,,,,,,,,,,,,,,,,,,,,,,,,,,,,,,,
,,,,,,,,,,,,5cb0b3a61a9e59001571df04,28,Mężczyzna,2022-06-11_09h15.34.520,task,2021.1.4,Win32,60.0024001,6299f149e92ead563fba08ef,62a441087048548339cf06f6,,,,,,,,,,,,,1,,,,,,,,,,Task,9,(3x7) - 20,1,,,,,,,,,,,,,,,,,,,1,,,,,,,,,,,,,,,,,,,,,space,116.9324,"[""1""]",1,[2.369199999809325],0,0,0,8,1,,,,,,,,,,,,,,,,,,,,,,,,,,
,,,,,,,,,,,X V Q F H G B L J M P D K C T S W R N Z,5cb0b3a61a9e59001571df04,28,Mężczyzna,2022-06-11_09h15.34.520,task,2021.1.4,Win32,60.0024001,6299f149e92ead563fba08ef,62a441087048548339cf06f6,,,,,,,,,,,,,,,,,,,,,,,,,,,,,,,,,,,,,,,,,,,,,,,,,,,,,,,,,,,,,,,,,,,,,,,,,,,,0,0,0,0,1,,,,,,,,,,,,,,,,,,,,,
,,,,,,,,,,,,5cb0b3a61a9e59001571df04,28,Mężczyzna,2022-06-11_09h15.34.520,task,2021.1.4,Win32,60.0024001,6299f149e92ead563fba08ef,62a441087048548339cf06f6,,,,,,,,,,,,,6,,,,,,,,,,Task,37,(3/3) + 5,6,,,,,,,,,,,,,,,,,,,1,,,,,,,,,,,,,,,,,,,,,,,"[""6""]",1,[2.9006000001429584],0,0,0,36,1,,,,,,,,,,,,,,,,,,,,,,,,,,
,,,,,,,,,,,X V Q F H G B L J M P D K C T S W R N Z,5cb0b3a61a9e59001571df04,28,Mężczyzna,2022-06-11_09h15.34.520,task,2021.1.4,Win32,60.0024001,6299f149e92ead563fba08ef,62a441087048548339cf06f6,,,,,,,,,,,,,,,,,,,,,,,,,,,,,,,,,,,,,,,,,,,,,,,,,,,,,,,,,,,,,,,,,,,,,,,,,,,,1,0,1,0,1,,,,,,,,,,,,,,,,,,,,,
,,,,,,,,,,,,5cb0b3a61a9e59001571df04,28,Mężczyzna,2022-06-11_09h15.34.520,task,2021.1.4,Win32,60.0024001,6299f149e92ead563fba08ef,62a441087048548339cf06f6,,,,,,,,,,,,,,,,,,,,,,,,,,,,,,,,,,,,,,,,,,,,,,,,,,,,,,,,,,,,,,,,,,,,,,,,,,,,,,,,,zc,"[""z"",""c""]",0,"[1.8849000000952856,2.30310000014299,2.9334000000952756]",1,ZC,0,0,0,0,1,,,,,,,,,,
,,,,,,,,,,,,5cb0b3a61a9e59001571df04,28,Mężczyzna,2022-06-11_09h15.34.520,task,2021.1.4,Win32,60.0024001,6299f149e92ead563fba08ef,62a441087048548339cf06f6,,,,,,,,,,,,,3,,,,,,,,,,Task,20,(18/9) + 1,3,,,,,,,,,,,,,,,,,,,1,,,,,,,,,,,,,,,,,,,,,,,"[""3""]",1,[1.970599999904607],0,0,0,19,1,,,,,,,,,,,,,,,,,,,,,,,,,,
,,,,,,,,,,,X V Q F H G B L J M P D K C T S W R N Z,5cb0b3a61a9e59001571df04,28,Mężczyzna,2022-06-11_09h15.34.520,task,2021.1.4,Win32,60.0024001,6299f149e92ead563fba08ef,62a441087048548339cf06f6,,,,,,,,,,,,,,,,,,,,,,,,,,,,,,,,,,,,,,,,,,,,,,,,,,,,,,,,,,,,,,,,,,,,,,,,,,,,0,0,0,0,1,,,,,,,,,,,,,,,,,,,,,
,,,,,,,,,,,,5cb0b3a61a9e59001571df04,28,Mężczyzna,2022-06-11_09h15.34.520,task,2021.1.4,Win32,60.0024001,6299f149e92ead563fba08ef,62a441087048548339cf06f6,,,,,,,,,,,,,0,,,,,,,,,,Task,8,(1x5) - 5,0,,,,,,,,,,,,,,,,,,,1,,,,,,,,,,,,,,,,,,,,,,,"[""0""]",1,[2.5811999998093142],0,0,0,7,1,,,,,,,,,,,,,,,,,,,,,,,,,,
,,,,,,,,,,,X V Q F H G B L J M P D K C T S W R N Z,5cb0b3a61a9e59001571df04,28,Mężczyzna,2022-06-11_09h15.34.520,task,2021.1.4,Win32,60.0024001,6299f149e92ead563fba08ef,62a441087048548339cf06f6,,,,,,,,,,,,,,,,,,,,,,,,,,,,,,,,,,,,,,,,,,,,,,,,,,,,,,,,,,,,,,,,,,,,,,,,,,,,1,0,1,0,1,,,,,,,,,,,,,,,,,,,,,
,,,,,,,,,,,,5cb0b3a61a9e59001571df04,28,Mężczyzna,2022-06-11_09h15.34.520,task,2021.1.4,Win32,60.0024001,6299f149e92ead563fba08ef,62a441087048548339cf06f6,,,,,,,,,,,,,0,,,,,,,,,,Task,25,(10/5) - 2,0,,,,,,,,,,,,,,,,,,,1,,,,,,,,,,,,,,,,,,,,,,,"[""0""]",1,[2.413499999999999],0,0,0,24,1,,,,,,,,,,,,,,,,,,,,,,,,,,
,,,,,,,,,,,X V Q F H G B L J M P D K C T S W R N Z,5cb0b3a61a9e59001571df04,28,Mężczyzna,2022-06-11_09h15.34.520,task,2021.1.4,Win32,60.0024001,6299f149e92ead563fba08ef,62a441087048548339cf06f6,,,,,,,,,,,,,,,,,,,,,,,,,,,,,,,,,,,,,,,,,,,,,,,,,,,,,,,,,,,,,,,,,,,,,,,,,,,,2,0,2,0,1,,,,,,,,,,,,,,,,,,,,,
,,,,,,,,,,,,5cb0b3a61a9e59001571df04,28,Mężczyzna,2022-06-11_09h15.34.520,task,2021.1.4,Win32,60.0024001,6299f149e92ead563fba08ef,62a441087048548339cf06f6,,,,,,,,,,,,,,,,,,,,,,,,,,,,,,,,,,,,,,,,,,,,,,,,,,,,,,,,,,,,,,,,,,,,,,,,,,,,,,,,,bgv,"[""b"",""g"",""v""]",0,"[1.6009000000954074,1.9948000001908213,2.244100000143135,51.543499999999995]",1,BGV,1,0,1,0,1,,,,,,,,,,
,,,,,,,,,,,,5cb0b3a61a9e59001571df04,28,Mężczyzna,2022-06-11_09h15.34.520,task,2021.1.4,Win32,60.0024001,6299f149e92ead563fba08ef,62a441087048548339cf06f6,,,,,,,,,,,,,3,,,,,,,,,,Task,3,(2x3) - 3,3,,,,,,,,,,,,,,,,,,,1,,,,,,,,,,,,,,,,,,,,,,,"[""3""]",1,[3.212100000142982],0,0,0,2,1,,,,,,,,,,,,,,,,,,,,,,,,,,
,,,,,,,,,,,X V Q F H G B L J M P D K C T S W R N Z,5cb0b3a61a9e59001571df04,28,Mężczyzna,2022-06-11_09h15.34.520,task,2021.1.4,Win32,60.0024001,6299f149e92ead563fba08ef,62a441087048548339cf06f6,,,,,,,,,,,,,,,,,,,,,,,,,,,,,,,,,,,,,,,,,,,,,,,,,,,,,,,,,,,,,,,,,,,,,,,,,,,,0,0,0,0,1,,,,,,,,,,,,,,,,,,,,,
,,,,,,,,,,,,5cb0b3a61a9e59001571df04,28,Mężczyzna,2022-06-11_09h15.34.520,task,2021.1.4,Win32,60.0024001,6299f149e92ead563fba08ef,62a441087048548339cf06f6,,,,,,,,,,,,,6,,,,,,,,,,Task,13,(3x4) - 6,6,,,,,,,,,,,,,,,,,,,1,,,,,,,,,,,,,,,,,,,,,,,"[""6""]",1,[3.2065000000000055],0,0,0,12,1,,,,,,,,,,,,,,,,,,,,,,,,,,
,,,,,,,,,,,X V Q F H G B L J M P D K C T S W R N Z,5cb0b3a61a9e59001571df04,28,Mężczyzna,2022-06-11_09h15.34.520,task,2021.1.4,Win32,60.0024001,6299f149e92ead563fba08ef,62a441087048548339cf06f6,,,,,,,,,,,,,,,,,,,,,,,,,,,,,,,,,,,,,,,,,,,,,,,,,,,,,,,,,,,,,,,,,,,,,,,,,,,,1,0,1,0,1,,,,,,,,,,,,,,,,,,,,,
,,,,,,,,,,,,5cb0b3a61a9e59001571df04,28,Mężczyzna,2022-06-11_09h15.34.520,task,2021.1.4,Win32,60.0024001,6299f149e92ead563fba08ef,62a441087048548339cf06f6,,,,,,,,,,,,,1,,,,,,,,,,Task,9,(3x7) - 20,1,,,,,,,,,,,,,,,,,,,1,,,,,,,,,,,,,,,,,,,,,,,"[""1""]",1,[1.850500000000011],0,0,0,8,1,,,,,,,,,,,,,,,,,,,,,,,,,,
,,,,,,,,,,,X V Q F H G B L J M P D K C T S W R N Z,5cb0b3a61a9e59001571df04,28,Mężczyzna,2022-06-11_09h15.34.520,task,2021.1.4,Win32,60.0024001,6299f149e92ead563fba08ef,62a441087048548339cf06f6,,,,,,,,,,,,,,,,,,,,,,,,,,,,,,,,,,,,,,,,,,,,,,,,,,,,,,,,,,,,,,,,,,,,,,,,,,,,2,0,2,0,1,,,,,,,,,,,,,,,,,,,,,
,,,,,,,,,,,,5cb0b3a61a9e59001571df04,28,Mężczyzna,2022-06-11_09h15.34.520,task,2021.1.4,Win32,60.0024001,6299f149e92ead563fba08ef,62a441087048548339cf06f6,,,,,,,,,,,,,1,,,,,,,,,,Task,34,(9/3) - 2,1,,,,,,,,,,,,,,,,,,,1,,,,,,,,,,,,,,,,,,,,,,,"[""1""]",1,[4.122900000095456],0,0,0,33,1,,,,,,,,,,,,,,,,,,,,,,,,,,
,,,,,,,,,,,X V Q F H G B L J M P D K C T S W R N Z,5cb0b3a61a9e59001571df04,28,Mężczyzna,2022-06-11_09h15.34.520,task,2021.1.4,Win32,60.0024001,6299f149e92ead563fba08ef,62a441087048548339cf06f6,,,,,,,,,,,,,,,,,,,,,,,,,,,,,,,,,,,,,,,,,,,,,,,,,,,,,,,,,,,,,,,,,,,,,,,,,,,,3,0,3,0,1,,,,,,,,,,,,,,,,,,,,,
,,,,,,,,,,,,5cb0b3a61a9e59001571df04,28,Mężczyzna,2022-06-11_09h15.34.520,task,2021.1.4,Win32,60.0024001,6299f149e92ead563fba08ef,62a441087048548339cf06f6,,,,,,,,,,,,,,,,,,,,,,,,,,,,,,,,,,,,,,,,,,,,,,,,,,,,,,,,,,,,,,,,,,,,,,,,,,,,,,,,,npgk,"[""n"",""p"",""g"",""k""]",0,"[1.4787000000476382,1.8943000001906967,2.4807000000478183,3.1994999999999436,47.45210000014299]",1,NPGK,2,0,2,0,1,,,,,,,,,,
,,,,,,,,,,,,5cb0b3a61a9e59001571df04,28,Mężczyzna,2022-06-11_09h15.34.520,task,2021.1.4,Win32,60.0024001,6299f149e92ead563fba08ef,62a441087048548339cf06f6,,,,,,,,,,,,,7,,,,,,,,,,Task,38,(4x6) - 17,7,,,,,,,,,,,,,,,,,,,1,,,,,,,,,,,,,,,,,,,,,,,"[""7""]",1,[9.062099999904603],0,0,0,37,1,,,,,,,,,,,,,,,,,,,,,,,,,,
,,,,,,,,,,,X V Q F H G B L J M P D K C T S W R N Z,5cb0b3a61a9e59001571df04,28,Mężczyzna,2022-06-11_09h15.34.520,task,2021.1.4,Win32,60.0024001,6299f149e92ead563fba08ef,62a441087048548339cf06f6,,,,,,,,,,,,,,,,,,,,,,,,,,,,,,,,,,,,,,,,,,,,,,,,,,,,,,,,,,,,,,,,,,,,,,,,,,,,0,0,0,0,1,,,,,,,,,,,,,,,,,,,,,
,,,,,,,,,,,,5cb0b3a61a9e59001571df04,28,Mężczyzna,2022-06-11_09h15.34.520,task,2021.1.4,Win32,60.0024001,6299f149e92ead563fba08ef,62a441087048548339cf06f6,,,,,,,,,,,,,2,,,,,,,,,,Task,2,(2x2) - 2,2,,,,,,,,,,,,,,,,,,,1,,,,,,,,,,,,,,,,,,,,,,,"[""2""]",1,[2.758800000190604],0,0,0,1,1,,,,,,,,,,,,,,,,,,,,,,,,,,
,,,,,,,,,,,X V Q F H G B L J M P D K C T S W R N Z,5cb0b3a61a9e59001571df04,28,Mężczyzna,2022-06-11_09h15.34.520,task,2021.1.4,Win32,60.0024001,6299f149e92ead563fba08ef,62a441087048548339cf06f6,,,,,,,,,,,,,,,,,,,,,,,,,,,,,,,,,,,,,,,,,,,,,,,,,,,,,,,,,,,,,,,,,,,,,,,,,,,,1,0,1,0,1,,,,,,,,,,,,,,,,,,,,,
,,,,,,,,,,,,5cb0b3a61a9e59001571df04,28,Mężczyzna,2022-06-11_09h15.34.520,task,2021.1.4,Win32,60.0024001,6299f149e92ead563fba08ef,62a441087048548339cf06f6,,,,,,,,,,,,,0,,,,,,,,,,Task,25,(10/5) - 2,0,,,,,,,,,,,,,,,,,,,1,,,,,,,,,,,,,,,,,,,,,,,"[""0""]",1,[2.3177999999522854],0,0,0,24,1,,,,,,,,,,,,,,,,,,,,,,,,,,
,,,,,,,,,,,X V Q F H G B L J M P D K C T S W R N Z,5cb0b3a61a9e59001571df04,28,Mężczyzna,2022-06-11_09h15.34.520,task,2021.1.4,Win32,60.0024001,6299f149e92ead563fba08ef,62a441087048548339cf06f6,,,,,,,,,,,,,,,,,,,,,,,,,,,,,,,,,,,,,,,,,,,,,,,,,,,,,,,,,,,,,,,,,,,,,,,,,,,,2,0,2,0,1,,,,,,,,,,,,,,,,,,,,,
,,,,,,,,,,,,5cb0b3a61a9e59001571df04,28,Mężczyzna,2022-06-11_09h15.34.520,task,2021.1.4,Win32,60.0024001,6299f149e92ead563fba08ef,62a441087048548339cf06f6,,,,,,,,,,,,,8,,,,,,,,,,Task,15,(3x7) - 13,8,,,,,,,,,,,,,,,,,,,1,,,,,,,,,,,,,,,,,,,,,,,"[""8""]",1,[5.468299999952251],0,0,0,14,1,,,,,,,,,,,,,,,,,,,,,,,,,,
,,,,,,,,,,,X V Q F H G B L J M P D K C T S W R N Z,5cb0b3a61a9e59001571df04,28,Mężczyzna,2022-06-11_09h15.34.520,task,2021.1.4,Win32,60.0024001,6299f149e92ead563fba08ef,62a441087048548339cf06f6,,,,,,,,,,,,,,,,,,,,,,,,,,,,,,,,,,,,,,,,,,,,,,,,,,,,,,,,,,,,,,,,,,,,,,,,,,,,3,0,3,0,1,,,,,,,,,,,,,,,,,,,,,
,,,,,,,,,,,,5cb0b3a61a9e59001571df04,28,Mężczyzna,2022-06-11_09h15.34.520,task,2021.1.4,Win32,60.0024001,6299f149e92ead563fba08ef,62a441087048548339cf06f6,,,,,,,,,,,,,0,,,,,,,,,,Task,33,(1/1) - 1,0,,,,,,,,,,,,,,,,,,,1,,,,,,,,,,,,,,,,,,,,,,,"[""0""]",1,[2.6749999999999545],0,0,0,32,1,,,,,,,,,,,,,,,,,,,,,,,,,,
,,,,,,,,,,,X V Q F H G B L J M P D K C T S W R N Z,5cb0b3a61a9e59001571df04,28,Mężczyzna,2022-06-11_09h15.34.520,task,2021.1.4,Win32,60.0024001,6299f149e92ead563fba08ef,62a441087048548339cf06f6,,,,,,,,,,,,,,,,,,,,,,,,,,,,,,,,,,,,,,,,,,,,,,,,,,,,,,,,,,,,,,,,,,,,,,,,,,,,4,0,4,0,1,,,,,,,,,,,,,,,,,,,,,
,,,,,,,,,,,,5cb0b3a61a9e59001571df04,28,Mężczyzna,2022-06-11_09h15.34.520,task,2021.1.4,Win32,60.0024001,6299f149e92ead563fba08ef,62a441087048548339cf06f6,,,,,,,,,,,,,,,,,,,,,,,,,,,,,,,,,,,,,,,,,,,,,,,,,,,,,,,,,,,,,,,,,,,,,,,,,,,,,,,,,vmfw,"[""v"",""m"",""f"",""w""]",0,"[1.5360000000000582,2.83400000000006,4.043799999952398,5.703200000047673,8.029500000000098]",0,VMFNB,3,0,3,0,1,,,,,,,,,,
,,,,,,,,,,,,5cb0b3a61a9e59001571df04,28,Mężczyzna,2022-06-11_09h15.34.520,task,2021.1.4,Win32,60.0024001,6299f149e92ead563fba08ef,62a441087048548339cf06f6,,,,,,,,,,,,,,,,,,,,,,,Task,17,(2x3) - 6,0,,,,,,,,,,,,,,,,,,,0,,,,,,,,,,,,,,,,,,,,,,,,0,,0,0,0,16,1,,,,,,,,,,,,,,,,,,,,,,,,,,
,,,,,,,,,,,,5cb0b3a61a9e59001571df04,28,Mężczyzna,2022-06-11_09h15.34.520,task,2021.1.4,Win32,60.0024001,6299f149e92ead563fba08ef,62a441087048548339cf06f6,,,,,,,,,,,,,0,,,,,,,,,,Task,2,(2x2) - 2,2,,,,,,,,,,,,,,,,,,,0,,,,,,,,,,,,,,,,,,,,,,,"[""0""]",0,[6.141799999952127],0,1,1,1,1,,,,,,,,,,,,,,,,,,,,,,,,,,
,,,,,,,,,,,,5cb0b3a61a9e59001571df04,28,Mężczyzna,2022-06-11_09h15.34.520,task,2021.1.4,Win32,60.0024001,6299f149e92ead563fba08ef,62a441087048548339cf06f6,,,,,,,,,,,,,7,,,,,,,,,,Task,14,(2x2) + 3,7,,,,,,,,,,,,,,,,,,,1,,,,,,,,,,,,,,,,,,,,,,,"[""7""]",1,[2.8947000000478056],0,2,2,13,1,,,,,,,,,,,,,,,,,,,,,,,,,,
,,,,,,,,,,,X V Q F H G B L J M P D K C T S W R N Z,5cb0b3a61a9e59001571df04,28,Mężczyzna,2022-06-11_09h15.34.520,task,2021.1.4,Win32,60.0024001,6299f149e92ead563fba08ef,62a441087048548339cf06f6,,,,,,,,,,,,,,,,,,,,,,,,,,,,,,,,,,,,,,,,,,,,,,,,,,,,,,,,,,,,,,,,,,,,,,,,,,,,0,0,0,0,1,,,,,,,,,,,,,,,,,,,,,
,,,,,,,,,,,,5cb0b3a61a9e59001571df04,28,Mężczyzna,2022-06-11_09h15.34.520,task,2021.1.4,Win32,60.0024001,6299f149e92ead563fba08ef,62a441087048548339cf06f6,,,,,,,,,,,,,7,,,,,,,,,,Task,38,(4x6) - 17,7,,,,,,,,,,,,,,,,,,,1,,,,,,,,,,,,,,,,,,,,,,,"[""7""]",1,[4.84759999990456],0,0,0,37,1,,,,,,,,,,,,,,,,,,,,,,,,,,
,,,,,,,,,,,X V Q F H G B L J M P D K C T S W R N Z,5cb0b3a61a9e59001571df04,28,Mężczyzna,2022-06-11_09h15.34.520,task,2021.1.4,Win32,60.0024001,6299f149e92ead563fba08ef,62a441087048548339cf06f6,,,,,,,,,,,,,,,,,,,,,,,,,,,,,,,,,,,,,,,,,,,,,,,,,,,,,,,,,,,,,,,,,,,,,,,,,,,,1,0,1,0,1,,,,,,,,,,,,,,,,,,,,,
,,,,,,,,,,,,5cb0b3a61a9e59001571df04,28,Mężczyzna,2022-06-11_09h15.34.520,task,2021.1.4,Win32,60.0024001,6299f149e92ead563fba08ef,62a441087048548339cf06f6,,,,,,,,,,,,,1,,,,,,,,,,Task,9,(3x7) - 20,1,,,,,,,,,,,,,,,,,,,1,,,,,,,,,,,,,,,,,,,,,,,"[""1""]",1,[3.9724000000953765],0,0,0,8,1,,,,,,,,,,,,,,,,,,,,,,,,,,
,,,,,,,,,,,X V Q F H G B L J M P D K C T S W R N Z,5cb0b3a61a9e59001571df04,28,Mężczyzna,2022-06-11_09h15.34.520,task,2021.1.4,Win32,60.0024001,6299f149e92ead563fba08ef,62a441087048548339cf06f6,,,,,,,,,,,,,,,,,,,,,,,,,,,,,,,,,,,,,,,,,,,,,,,,,,,,,,,,,,,,,,,,,,,,,,,,,,,,2,0,2,0,1,,,,,,,,,,,,,,,,,,,,,
,,,,,,,,,,,,5cb0b3a61a9e59001571df04,28,Mężczyzna,2022-06-11_09h15.34.520,task,2021.1.4,Win32,60.0024001,6299f149e92ead563fba08ef,62a441087048548339cf06f6,,,,,,,,,,,,,8,,,,,,,,,,Task,23,(2x3) + 2,8,,,,,,,,,,,,,,,,,,,1,,,,,,,,,,,,,,,,,,,,,,,"[""8""]",1,[2.647900000095433],0,0,0,22,1,,,,,,,,,,,,,,,,,,,,,,,,,,
,,,,,,,,,,,X V Q F H G B L J M P D K C T S W R N Z,5cb0b3a61a9e59001571df04,28,Mężczyzna,2022-06-11_09h15.34.520,task,2021.1.4,Win32,60.0024001,6299f149e92ead563fba08ef,62a441087048548339cf06f6,,,,,,,,,,,,,,,,,,,,,,,,,,,,,,,,,,,,,,,,,,,,,,,,,,,,,,,,,,,,,,,,,,,,,,,,,,,,3,0,3,0,1,,,,,,,,,,,,,,,,,,,,,
,,,,,,,,,,,,5cb0b3a61a9e59001571df04,28,Mężczyzna,2022-06-11_09h15.34.520,task,2021.1.4,Win32,60.0024001,6299f149e92ead563fba08ef,62a441087048548339cf06f6,,,,,,,,,,,,,7,,,,,,,,,,Task,38,(4x6) - 17,7,,,,,,,,,,,,,,,,,,,1,,,,,,,,,,,,,,,,,,,,,,,"[""7""]",1,[3.8883000001908385],0,0,0,37,1,,,,,,,,,,,,,,,,,,,,,,,,,,
,,,,,,,,,,,X V Q F H G B L J M P D K C T S W R N Z,5cb0b3a61a9e59001571df04,28,Mężczyzna,2022-06-11_09h15.34.520,task,2021.1.4,Win32,60.0024001,6299f149e92ead563fba08ef,62a441087048548339cf06f6,,,,,,,,,,,,,,,,,,,,,,,,,,,,,,,,,,,,,,,,,,,,,,,,,,,,,,,,,,,,,,,,,,,,,,,,,,,,4,0,4,0,1,,,,,,,,,,,,,,,,,,,,,
,,,,,,,,,,,,5cb0b3a61a9e59001571df04,28,Mężczyzna,2022-06-11_09h15.34.520,task,2021.1.4,Win32,60.0024001,6299f149e92ead563fba08ef,62a441087048548339cf06f6,,,,,,,,,,,,,,,,,,,,,,,,,,,,,,,,,,,,,,,,,,,,,,,,,,,,,,,,,,,,,,,,,,,,,,,,,,,,,,,,,wpcp,"[""w"",""p"",""c"",""p""]",0,"[3.690199999809238,4.131299999952262,4.402199999809227,5.208799999952362,253.52659999990465]",0,ZCQPW,4,0,4,0,1,,,,,,,,,,
,,,,,,,,,,,,5cb0b3a61a9e59001571df04,28,Mężczyzna,2022-06-11_09h15.34.520,task,2021.1.4,Win32,60.0024001,6299f149e92ead563fba08ef,62a441087048548339cf06f6,,,,,,,,,,,,,,,,,,,,,,,,,,,,,,,,,,,,,,,,,,,,,,,,,,,,,,,,,,,,,,,,,,,,,,,,,,,,,,,,,,,,,,,,,,,,"[""period""]",0,[0.8438000001906403],0,0,0,0,1,,
,,,,,,,,,,,,5cb0b3a61a9e59001571df04,28,Mężczyzna,2022-06-11_09h15.34.520,task,2021.1.4,Win32,60.0024001,6299f149e92ead563fba08ef,62a441087048548339cf06f6,,,,,,,,,,,,,,,,,,,,,,,,,,,,,,,,,,,,,,,,,,,,,,,,,,,,,,,,,,,,,,,,,,,,,,,,,,,,,,,,,,,,,,,,,,,,,0,,1,0,1,0,1,,
,,,,,,,,,,,,5cb0b3a61a9e59001571df04,28,Mężczyzna,2022-06-11_09h15.34.520,task,2021.1.4,Win32,60.0024001,6299f149e92ead563fba08ef,62a441087048548339cf06f6,,,,,,,,,,,,,,,,,,,,,,,,,,,,,,,,,,,,,,,,,,,,,,,,,,,,,,,,,,,,,,,,,,,,,,,,,,,,,,,,,,,,,,,,,,,,"[""comma""]",0,[0.45109999990472716],2,0,2,0,1,,
,,,,,,,,,,,,5cb0b3a61a9e59001571df04,28,Mężczyzna,2022-06-11_09h15.34.520,task,2021.1.4,Win32,60.0024001,6299f149e92ead563fba08ef,62a441087048548339cf06f6,,,,,,,,,,,,,,,,,,,,,,,,,,,,,,,,,,,,,,,,,,,,,,,,,,,,,,,,,,,,,,,,,,,,,,,,,,,,,,,,,,,,,,,,,,,,"[""period""]",0,[0.6075999999047781],3,0,3,0,1,,
,,,,,,,,,,,,5cb0b3a61a9e59001571df04,28,Mężczyzna,2022-06-11_09h15.34.520,task,2021.1.4,Win32,60.0024001,6299f149e92ead563fba08ef,62a441087048548339cf06f6,,,,,,,,,,,,,,,,,,,,,,,,,,,,,,,,,,,,,,,,,,,,,,,,,,,,,,,,,,,,,,,,,,,,,,,,,,,,,,,,,,,,,,,,,,,,"[""comma""]",0,[1.1913999998569125],4,0,4,0,1,,
,,,,,,,,,,,,5cb0b3a61a9e59001571df04,28,Mężczyzna,2022-06-11_09h15.34.520,task,2021.1.4,Win32,60.0024001,6299f149e92ead563fba08ef,62a441087048548339cf06f6,,,,,,,,,,,,,,,,,,,,,,,,,,,,,,,,,,,,,,,,,,,,,,,,,,,,,,,,,,,,,,,,,,,,,,,,,,,,,,,,,,,,,,,,,,,,"[""period""]",0,[0.885799999952269],5,0,5,0,1,,
,,,,,,,,,,,,5cb0b3a61a9e59001571df04,28,Mężczyzna,2022-06-11_09h15.34.520,task,2021.1.4,Win32,60.0024001,6299f149e92ead563fba08ef,62a441087048548339cf06f6,,,,,,,,,,,,,,,,,,,,,,,,,,,,,,,,,,,,,,,,,,,,,,,,,,,,,,,,,,,,,,,,,,,,,,,,,,,,,,,,,,,,,,,,,,,,"[""period""]",0,[0.8682000000476364],6,0,6,0,1,,
,,,,,,,,,,,,5cb0b3a61a9e59001571df04,28,Mężczyzna,2022-06-11_09h15.34.520,task,2021.1.4,Win32,60.0024001,6299f149e92ead563fba08ef,62a441087048548339cf06f6,,,,,,,,,,,,,,,,,,,,,,,,,,,,,,,,,,,,,,,,,,,,,,,,,,,,,,,,,,,,,,,,,,,,,,,,,,,,,,,,,,,,,,,,,,,,"[""period""]",0,[0.48450000000002547],7,0,7,0,1,,
,,,,,,,,,,,,5cb0b3a61a9e59001571df04,28,Mężczyzna,2022-06-11_09h15.34.520,task,2021.1.4,Win32,60.0024001,6299f149e92ead563fba08ef,62a441087048548339cf06f6,,,,,,,,,,,,,,,,,,,,,,,,,,,,,,,,,,,,,,,,,,,,,,,,,,,,,,,,,,,,,,,,,,,,,,,,,,,,,,,,,,,,,,,,,,,,"[""comma""]",0,[0.44469999980924513],8,0,8,0,1,,
,,,,,,,,,,,,5cb0b3a61a9e59001571df04,28,Mężczyzna,2022-06-11_09h15.34.520,task,2021.1.4,Win32,60.0024001,6299f149e92ead563fba08ef,62a441087048548339cf06f6,,,,,,,,,,,,,,,,,,,,,,,,,,,,,,,,,,,,,,,,,,,,,,,,,,,,,,,,,,,,,,,,,,,,,,,,,,,,,,,,,,,,,,,,,,,,"[""comma""]",0,[1.1374000000953401],9,0,9,0,1,,
,,,,,,,,,,,,5cb0b3a61a9e59001571df04,28,Mężczyzna,2022-06-11_09h15.34.520,task,2021.1.4,Win32,60.0024001,6299f149e92ead563fba08ef,62a441087048548339cf06f6,,,,,,,,,,,,,,,,,,,,,,,,,,,,,,,,,,,,,,,,,,,,,,,,,,,,,,,,,,,,,,,,,,,,,,,,,,,,,,,,,,,,,,,,,,,,"[""period""]",0,[0.5867999999525182],10,0,10,0,1,,
,,,,,,,,,,,,5cb0b3a61a9e59001571df04,28,Mężczyzna,2022-06-11_09h15.34.520,task,2021.1.4,Win32,60.0024001,6299f149e92ead563fba08ef,62a441087048548339cf06f6,,,,,,,,,,,,,,,,,,,,,,,,,,,,,,,,,,,,,,,,,,,,,,,,,,,,,,,,,,,,,,,,,,,,,,,,,,,,,,,,,,,,,,,,,,,,"[""period""]",0,[1.3176999998092924],11,0,11,0,1,,
,,,,,,,,,,,,5cb0b3a61a9e59001571df04,28,Mężczyzna,2022-06-11_09h15.34.520,task,2021.1.4,Win32,60.0024001,6299f149e92ead563fba08ef,62a441087048548339cf06f6,,,,,,,,,,,,,,,,,,,,,,,,,,,,,,,,,,,,,,,,,,,,,,,,,,,,,,,,,,,,,,,,,,,,,,,,,,,,,,,,,,,,,,,,,,,,"[""comma""]",0,[1.71809999990478],12,0,12,0,1,,
,,,,,,,,,,,,5cb0b3a61a9e59001571df04,28,Mężczyzna,2022-06-11_09h15.34.520,task,2021.1.4,Win32,60.0024001,6299f149e92ead563fba08ef,62a441087048548339cf06f6,,,,,,,,,,,,,,,,,,,,,,,,,,,,,,,,,,,,,,,,,,,,,,,,,,,,,,,,,,,,,,,,,,,,,,,,,,,,,,,,,,,,,,,,,,,,,0,,13,0,13,0,1,,
,,,,,,,,,,,,5cb0b3a61a9e59001571df04,28,Mężczyzna,2022-06-11_09h15.34.520,task,2021.1.4,Win32,60.0024001,6299f149e92ead563fba08ef,62a441087048548339cf06f6,,,,,,,,,,,,,,,,,,,,,,,,,,,,,,,,,,,,,,,,,,,,,,,,,,,,,,,,,,,,,,,,,,,,,,,,,,,,,,,,,,,,,,,,,,,,"[""period""]",0,[0.467700000047671],14,0,14,0,1,,
,,,,,,,,,,,,5cb0b3a61a9e59001571df04,28,Mężczyzna,2022-06-11_09h15.34.520,task,2021.1.4,Win32,60.0024001,6299f149e92ead563fba08ef,62a441087048548339cf06f6,,,,,,,,,,,,,,,,,,,,,,,,,,,,,,,,,,,,,,,,,,,,,,,,,,,,,,,,,,,,,,,,,,,,,,,,,,,,,,,,,,,,,,,,,,,,,0,,15,0,15,0,1,,
,,,,,,,,,,,,5cb0b3a61a9e59001571df04,28,Mężczyzna,2022-06-11_09h15.34.520,task,2021.1.4,Win32,60.0024001,6299f149e92ead563fba08ef,62a441087048548339cf06f6,,,,,,,,,,,,,,,,,,,,,,,,,,,,,,,,,,,,,,,,,,,,,,,,,,,,,,,,,,,,,,,,,,,,,,,,,,,,,,,,,,,,,,,,,,,,"[""period""]",0,[-0.030599999904552533],16,0,16,0,1,,
,,,,,,,,,,,,5cb0b3a61a9e59001571df04,28,Mężczyzna,2022-06-11_09h15.34.520,task,2021.1.4,Win32,60.0024001,6299f149e92ead563fba08ef,62a441087048548339cf06f6,,,,,,,,,,,,,,,,,,,,,,,,,,,,,,,,,,,,,,,,,,,,,,,,,,,,,,,,,,,,,,,,,,,,,,,,,,,,,,,,,,,,,,,,,,,,"[""comma""]",0,[0.26790000009555115],17,0,17,0,1,,
,,,,,,,,,,,,5cb0b3a61a9e59001571df04,28,Mężczyzna,2022-06-11_09h15.34.520,task,2021.1.4,Win32,60.0024001,6299f149e92ead563fba08ef,62a441087048548339cf06f6,,,,,,,,,,,,,,,,,,,,,,,,,,,,,,,,,,,,,,,,,,,,,,,,,,,,,,,,,,,,,,,,,,,,,,,,,,,,,,,,,,,,,,,,,,,,"[""period""]",0,[0.5178999998568088],18,0,18,0,1,,
,,,,,,,,,,,,5cb0b3a61a9e59001571df04,28,Mężczyzna,2022-06-11_09h15.34.520,task,2021.1.4,Win32,60.0024001,6299f149e92ead563fba08ef,62a441087048548339cf06f6,,,,,,,,,,,,,,,,,,,,,,,,,,,,,,,,,,,,,,,,,,,,,,,,,,,,,,,,,,,,,,,,,,,,,,,,,,,,,,,,,,,,,,,,,,,,"[""period""]",0,[1.051299999952107],19,0,19,0,1,,
,,,,,,,,,,,,5cb0b3a61a9e59001571df04,28,Mężczyzna,2022-06-11_09h15.34.520,task,2021.1.4,Win32,60.0024001,6299f149e92ead563fba08ef,62a441087048548339cf06f6,,,,,,,,,,,,,,,,,,,,,,,,,,,,,,,,,,,,,,,,,,,,,,,,,,,,,,,,,,,,,,,,,,,,,,,,,,,,,,,,,,,,,,,,,,,,"[""period""]",0,[1.3869999999999436],20,0,20,0,1,,
,,,,,,,,,,,,5cb0b3a61a9e59001571df04,28,Mężczyzna,2022-06-11_09h15.34.520,task,2021.1.4,Win32,60.0024001,6299f149e92ead563fba08ef,62a441087048548339cf06f6,,,,,,,,,,,,,,,,,,,,,,,,,,,,,,,,,,,,,,,,,,,,,,,,,,,,,,,,,,,,,,,,,,,,,,,,,,,,,,,,,,,,,,,,,,,,"[""comma""]",0,[1.5205999999045616],21,0,21,0,1,,
,,,,,,,,,,,,5cb0b3a61a9e59001571df04,28,Mężczyzna,2022-06-11_09h15.34.520,task,2021.1.4,Win32,60.0024001,6299f149e92ead563fba08ef,62a441087048548339cf06f6,,,,,,,,,,,,,,,,,,,,,,,,,,,,,,,,,,,,,,,,,,,,,,,,,,,,,,,,,,,,,,,,,,,,,,,,,,,,,,,,,,,,,,,,,,,,"[""period""]",0,[1.3679999999999382],22,0,22,0,1,,
,,,,,,,,,,,,5cb0b3a61a9e59001571df04,28,Mężczyzna,2022-06-11_09h15.34.520,task,2021.1.4,Win32,60.0024001,6299f149e92ead563fba08ef,62a441087048548339cf06f6,,,,,,,,,,,,,,,,,,,,,,,,,,,,,,,,,,,,,,,,,,,,,,,,,,,,,,,,,,,,,,,,,,,,,,,,,,,,,,,,,,,,,,,,,,,,"[""comma""]",0,[0.49900000000002365],23,0,23,0,1,,
,,,,,,,,,,,,5cb0b3a61a9e59001571df04,28,Mężczyzna,2022-06-11_09h15.34.520,task,2021.1.4,Win32,60.0024001,6299f149e92ead563fba08ef,62a441087048548339cf06f6,,,,,,,,,,,,,,,,,,,,,,,,,,,,,,,,,,,,,,,,,,,,,,,,,,,,,,,,,,,,,,,,,,,,,,,,,,,,,,,,,,,,,,,,,,,,"[""comma""]",0,[0.3842999999521908],24,0,24,0,1,,
,,,,,,,,,,,,5cb0b3a61a9e59001571df04,28,Mężczyzna,2022-06-11_09h15.34.520,task,2021.1.4,Win32,60.0024001,6299f149e92ead563fba08ef,62a441087048548339cf06f6,,,,,,,,,,,,,,,,,,,,,,,,,,,,,,,,,,,,,,,,,,,,,,,,,,,,,,,,,,,,,,,,,,,,,,,,,,,,,,,,,,,,,,,,,,,,"[""period""]",0,[0.4552000000478529],25,0,25,0,1,,
,,,,,,,,,,,,5cb0b3a61a9e59001571df04,28,Mężczyzna,2022-06-11_09h15.34.520,task,2021.1.4,Win32,60.0024001,6299f149e92ead563fba08ef,62a441087048548339cf06f6,,,,,,,,,,,,,,,,,,,,,,,,,,,,,,,,,,,,,,,,,,,,,,,,,,,,,,,,,,,,,,,,,,,,,,,,,,,,,,,,,,,,,,,,,,,,"[""comma""]",0,[0.5000999999047053],26,0,26,0,1,,
,,,,,,,,,,,,5cb0b3a61a9e59001571df04,28,Mężczyzna,2022-06-11_09h15.34.520,task,2021.1.4,Win32,60.0024001,6299f149e92ead563fba08ef,62a441087048548339cf06f6,,,,,,,,,,,,,,,,,,,,,,,,,,,,,,,,,,,,,,,,,,,,,,,,,,,,,,,,,,,,,,,,,,,,,,,,,,,,,,,,,,,,,,,,,,,,"[""period""]",0,[0.9672000000477965],27,0,27,0,1,,
,,,,,,,,,,,,5cb0b3a61a9e59001571df04,28,Mężczyzna,2022-06-11_09h15.34.520,task,2021.1.4,Win32,60.0024001,6299f149e92ead563fba08ef,62a441087048548339cf06f6,,,,,,,,,,,,,,,,,,,,,,,,,,,,,,,,,,,,,,,,,,,,,,,,,,,,,,,,,,,,,,,,,,,,,,,,,,,,,,,,,,,,,,,,,,,,"[""period""]",0,[0.6847000000477692],28,0,28,0,1,,
,,,,,,,,,,,,5cb0b3a61a9e59001571df04,28,Mężczyzna,2022-06-11_09h15.34.520,task,2021.1.4,Win32,60.0024001,6299f149e92ead563fba08ef,62a441087048548339cf06f6,,,,,,,,,,,,,,,,,,,,,,,,,,,,,,,,,,,,,,,,,,,,,,,,,,,,,,,,,,,,,,,,,,,,,,,,,,,,,,,,,,,,,,,,,,,,"[""comma""]",0,[0.4107000000476546],29,0,29,0,1,,
,,,,,,,,,,,,5cb0b3a61a9e59001571df04,28,Mężczyzna,2022-06-11_09h15.34.520,task,2021.1.4,Win32,60.0024001,6299f149e92ead563fba08ef,62a441087048548339cf06f6,,,,,,,,,,,,,,,,,,,,,,,,,,,,,,,,,,,,,,,,,,,,,,,,,,,,,,,,,,,,,,,,,,,,,,,,,,,,,,,,,,,,,,,,,,,,"[""period""]",0,[0.48989999985701616],30,0,30,0,1,,
,,,,,,,,,,,,5cb0b3a61a9e59001571df04,28,Mężczyzna,2022-06-11_09h15.34.520,task,2021.1.4,Win32,60.0024001,6299f149e92ead563fba08ef,62a441087048548339cf06f6,,,,,,,,,,,,,,,,,,,,,,,,,,,,,,,,,,,,,,,,,,,,,,,,,,,,,,,,,,,,,,,,,,,,,,,,,,,,,,,,,,,,,,,,,,,,"[""comma""]",0,[0.4558000001907203],31,0,31,0,1,,
,,,,,,,,,,,,5cb0b3a61a9e59001571df04,28,Mężczyzna,2022-06-11_09h15.34.520,task,2021.1.4,Win32,60.0024001,6299f149e92ead563fba08ef,62a441087048548339cf06f6,,,,,,,,,,,,,,,,,,,,,,,,,,,,,,,,,,,,,,,,,,,,,,,,,,,,,,,,,,,,,,,,,,,,,,,,,,,,,,,,,,,,,,,,,,,,"[""period""]",0,[0.4514999999998963],32,0,32,0,1,,
,,,,,,,,,,,,5cb0b3a61a9e59001571df04,28,Mężczyzna,2022-06-11_09h15.34.520,task,2021.1.4,Win32,60.0024001,6299f149e92ead563fba08ef,62a441087048548339cf06f6,,,,,,,,,,,,,,,,,,,,,,,,,,,,,,,,,,,,,,,,,,,,,,,,,,,,,,,,,,,,,,,,,,,,,,,,,,,,,,,,,,,,,,,,,,,,"[""comma""]",0,[0.45140000009541836],33,0,33,0,1,,
,,,,,,,,,,,,5cb0b3a61a9e59001571df04,28,Mężczyzna,2022-06-11_09h15.34.520,task,2021.1.4,Win32,60.0024001,6299f149e92ead563fba08ef,62a441087048548339cf06f6,,,,,,,,,,,,,,,,,,,,,,,,,,,,,,,,,,,,,,,,,,,,,,,,,,,,,,,,,,,,,,,,,,,,,,,,,,,,,,,,,,,,,,,,,,,,"[""period""]",0,[0.29409999990457436],34,0,34,0,1,,
,,,,,,,,,,,,5cb0b3a61a9e59001571df04,28,Mężczyzna,2022-06-11_09h15.34.520,task,2021.1.4,Win32,60.0024001,6299f149e92ead563fba08ef,62a441087048548339cf06f6,,,,,,,,,,,,,,,,,,,,,,,,,,,,,,,,,,,,,,,,,,,,,,,,,,,,,,,,,,,,,,,,,,,,,,,,,,,,,,,,,,,,,,,,,,,,"[""comma""]",0,[0.3680999999046435],35,0,35,0,1,,
,,,,,,,,,,,,5cb0b3a61a9e59001571df04,28,Mężczyzna,2022-06-11_09h15.34.520,task,2021.1.4,Win32,60.0024001,6299f149e92ead563fba08ef,62a441087048548339cf06f6,,,,,,,,,,,,,,,,,,,,,,,,,,,,,,,,,,,,,,,,,,,,,,,,,,,,,,,,,,,,,,,,,,,,,,,,,,,,,,,,,,,,,,,,,,,,"[""period""]",0,[0.3202000000476346],36,0,36,0,1,,
,,,,,,,,,,,,5cb0b3a61a9e59001571df04,28,Mężczyzna,2022-06-11_09h15.34.520,task,2021.1.4,Win32,60.0024001,6299f149e92ead563fba08ef,62a441087048548339cf06f6,,,,,,,,,,,,,,,,,,,,,,,,,,,,,,,,,,,,,,,,,,,,,,,,,,,,,,,,,,,,,,,,,,,,,,,,,,,,,,,,,,,,,,,,,,,,"[""period""]",0,[0.2634000000953165],37,0,37,0,1,,
,,,,,,,,,,,,5cb0b3a61a9e59001571df04,28,Mężczyzna,2022-06-11_09h15.34.520,task,2021.1.4,Win32,60.0024001,6299f149e92ead563fba08ef,62a441087048548339cf06f6,,,,,,,,,,,,,,,,,,,,,,,,,,,,,,,,,,,,,,,,,,,,,,,,,,,,,,,,,,,,,,,,,,,,,,,,,,,,,,,,,,,,,,,,,,,,"[""comma""]",0,[0.2714000000953547],38,0,38,0,1,,
,,,,,,,,,,,,5cb0b3a61a9e59001571df04,28,Mężczyzna,2022-06-11_09h15.34.520,task,2021.1.4,Win32,60.0024001,6299f149e92ead563fba08ef,62a441087048548339cf06f6,,,,,,,,,,,,,,,,,,,,,,,,,,,,,,,,,,,,,,,,,,,,,,,,,,,,,,,,,,,,,,,,,,,,,,,,,,,,,,,,,,,,,,,,,,,,"[""period""]",0,[0.27209999990463984],39,0,39,0,1,,
,,,,,,,,,,,,5cb0b3a61a9e59001571df04,28,Mężczyzna,2022-06-11_09h15.34.520,task,2021.1.4,Win32,60.0024001,6299f149e92ead563fba08ef,62a441087048548339cf06f6,,,,,,,,,,,,,,,,,,,,,,,,,,,,,,,,,,,,,,,,,,,,,,,,,,,,,,,,,,,,,,,,,,,,,,,,,,,,,,,,,,,,,,,,,,,,"[""comma""]",0,[0.29190000009543837],40,0,40,0,1,,
,,,,,,,,,,,,5cb0b3a61a9e59001571df04,28,Mężczyzna,2022-06-11_09h15.34.520,task,2021.1.4,Win32,60.0024001,6299f149e92ead563fba08ef,62a441087048548339cf06f6,,,,,,,,,,,,,,,,,,,,,,,,,,,,,,,,,,,,,,,,,,,,,,,,,,,,,,,,,,,,,,,,,,,,,,,,,,,,,,,,,,,,,,,,,,,,"[""period""]",0,[0.7415000000000873],41,0,41,0,1,,
,,,,,,,,,,,,5cb0b3a61a9e59001571df04,28,Mężczyzna,2022-06-11_09h15.34.520,task,2021.1.4,Win32,60.0024001,6299f149e92ead563fba08ef,62a441087048548339cf06f6,,,,,,,,,,,,,,,,,,,,,,,,,,,,,,,,,,,,,,,,,,,,,,,,,,,,,,,,,,,,,,,,,,,,,,,,,,,,,,,,,,,,,,,,,,,,"[""comma""]",0,[0.8917000000476492],42,0,42,0,1,,
,,,,,,,,,,,,5cb0b3a61a9e59001571df04,28,Mężczyzna,2022-06-11_09h15.34.520,task,2021.1.4,Win32,60.0024001,6299f149e92ead563fba08ef,62a441087048548339cf06f6,,,,,,,,,,,,,,,,,,,,,,,,,,,,,,,,,,,,,,,,,,,,,,,,,,,,,,,,,,,,,,,,,,,,,,,,,,,,,,,,,,,,,,,,,,,,"[""period""]",0,[0.5209999999999582],43,0,43,0,1,,
,,,,,,,,,,,,5cb0b3a61a9e59001571df04,28,Mężczyzna,2022-06-11_09h15.34.520,task,2021.1.4,Win32,60.0024001,6299f149e92ead563fba08ef,62a441087048548339cf06f6,,,,,,,,,,,,,,,,,,,,,,,,,,,,,,,,,,,,,,,,,,,,,,,,,,,,,,,,,,,,,,,,,,,,,,,,,,,,,,,,,,,,,,,,,,,,"[""period""]",0,[1.275099999904569],44,0,44,0,1,,
,,,,,,,,,,,,5cb0b3a61a9e59001571df04,28,Mężczyzna,2022-06-11_09h15.34.520,task,2021.1.4,Win32,60.0024001,6299f149e92ead563fba08ef,62a441087048548339cf06f6,,,,,,,,,,,,,,,,,,,,,,,,,,,,,,,,,,,,,,,,,,,,,,,,,,,,,,,,,,,,,,,,,,,,,,,,,,,,,,,,,,,,,,,,,,,,"[""period""]",0,[0.7844000000952747],45,0,45,0,1,,
,,,,,,,,,,,,5cb0b3a61a9e59001571df04,28,Mężczyzna,2022-06-11_09h15.34.520,task,2021.1.4,Win32,60.0024001,6299f149e92ead563fba08ef,62a441087048548339cf06f6,,,,,,,,,,,,,,,,,,,,,,,,,,,,,,,,,,,,,,,,,,,,,,,,,,,,,,,,,,,,,,,,,,,,,,,,,,,,,,,,,,,,,,,,,,,,"[""comma""]",0,[0.48829999995246],46,0,46,0,1,,
,,,,,,,,,,,,5cb0b3a61a9e59001571df04,28,Mężczyzna,2022-06-11_09h15.34.520,task,2021.1.4,Win32,60.0024001,6299f149e92ead563fba08ef,62a441087048548339cf06f6,,,,,,,,,,,,,,,,,,,,,,,,,,,,,,,,,,,,,,,,,,,,,,,,,,,,,,,,,,,,,,,,,,,,,,,,,,,,,,,,,,,,,,,,,,,,"[""period""]",0,[0.7125999999045689],47,0,47,0,1,,
,,,,,,,,,,,,5cb0b3a61a9e59001571df04,28,Mężczyzna,2022-06-11_09h15.34.520,task,2021.1.4,Win32,60.0024001,6299f149e92ead563fba08ef,62a441087048548339cf06f6,,,,,,,,,,,,,,,,,,,,,,,,,,,,,,,,,,,,,,,,,,,,,,,,,,,,,,,,,,,,,,,,,,,,,,,,,,,,,,,,,,,,,,,,,,,,"[""comma""]",0,[0.38459999990459437],48,0,48,0,1,,
,,,,,,,,,,,,5cb0b3a61a9e59001571df04,28,Mężczyzna,2022-06-11_09h15.34.520,task,2021.1.4,Win32,60.0024001,6299f149e92ead563fba08ef,62a441087048548339cf06f6,,,,,,,,,,,,,,,,,,,,,,,,,,,,,,,,,,,,,,,,,,,,,,,,,,,,,,,,,,,,,,,,,,,,,,,,,,,,,,,,,,,,,,,,,,,,"[""period""]",0,[0.4390000000000782],49,0,49,0,1,,
,,,,,,,,,,,,5cb0b3a61a9e59001571df04,28,Mężczyzna,2022-06-11_09h15.34.520,task,2021.1.4,Win32,60.0024001,6299f149e92ead563fba08ef,62a441087048548339cf06f6,,,,,,,,,,,,,,,,,,,,,,,,,,,,,,,,,,,,,,,,,,,,,,,,,,,,,,,,,,,,,,,,,,,,,,,,,,,,,,,,,,,,,,,,,,,,"[""period""]",0,[0.4626000001430839],50,0,50,0,1,,
,,,,,,,,,,,,5cb0b3a61a9e59001571df04,28,Mężczyzna,2022-06-11_09h15.34.520,task,2021.1.4,Win32,60.0024001,6299f149e92ead563fba08ef,62a441087048548339cf06f6,,,,,,,,,,,,,,,,,,,,,,,,,,,,,,,,,,,,,,,,,,,,,,,,,,,,,,,,,,,,,,,,,,,,,,,,,,,,,,,,,,,,,,,,,,,,"[""comma""]",0,[0.27240000009533105],51,0,51,0,1,,
,,,,,,,,,,,,5cb0b3a61a9e59001571df04,28,Mężczyzna,2022-06-11_09h15.34.520,task,2021.1.4,Win32,60.0024001,6299f149e92ead563fba08ef,62a441087048548339cf06f6,,,,,,,,,,,,,,,,,,,,,,,,,,,,,,,,,,,,,,,,,,,,,,,,,,,,,,,,,,,,,,,,,,,,,,,,,,,,,,,,,,,,,,,,,,,,"[""comma""]",0,[0.5750000000000455],52,0,52,0,1,,
,,,,,,,,,,,,5cb0b3a61a9e59001571df04,28,Mężczyzna,2022-06-11_09h15.34.520,task,2021.1.4,Win32,60.0024001,6299f149e92ead563fba08ef,62a441087048548339cf06f6,,,,,,,,,,,,,,,,,,,,,,,,,,,,,,,,,,,,,,,,,,,,,,,,,,,,,,,,,,,,,,,,,,,,,,,,,,,,,,,,,,,,,,,,,,,,"[""comma""]",0,[0.8790999999046107],53,0,53,0,1,,
,,,,,,,,,,,,5cb0b3a61a9e59001571df04,28,Mężczyzna,2022-06-11_09h15.34.520,task,2021.1.4,Win32,60.0024001,6299f149e92ead563fba08ef,62a441087048548339cf06f6,,,,,,,,,,,,,,,,,,,,,,,,,,,,,,,,,,,,,,,,,,,,,,,,,,,,,,,,,,,,,,,,,,,,,,,,,,,,,,,,,,,,,,,,,,,,"[""period""]",0,[0.47170000004780377],54,0,54,0,1,,
,,,,,,,,,,,,5cb0b3a61a9e59001571df04,28,Mężczyzna,2022-06-11_09h15.34.520,task,2021.1.4,Win32,60.0024001,6299f149e92ead563fba08ef,62a441087048548339cf06f6,,,,,,,,,,,,,,,,,,,,,,,,,,,,,,,,,,,,,,,,,,,,,,,,,,,,,,,,,,,,,,,,,,,,,,,,,,,,,,,,,,,,,,,,,,,,"[""comma""]",0,[0.40829999995230537],55,0,55,0,1,,
,,,,,,,,,,,,5cb0b3a61a9e59001571df04,28,Mężczyzna,2022-06-11_09h15.34.520,task,2021.1.4,Win32,60.0024001,6299f149e92ead563fba08ef,62a441087048548339cf06f6,,,,,,,,,,,,,,,,,,,,,,,,,,,,,,,,,,,,,,,,,,,,,,,,,,,,,,,,,,,,,,,,,,,,,,,,,,,,,,,,,,,,,,,,,,,,"[""period""]",0,[0.30429999995226353],56,0,56,0,1,,
,,,,,,,,,,,,5cb0b3a61a9e59001571df04,28,Mężczyzna,2022-06-11_09h15.34.520,task,2021.1.4,Win32,60.0024001,6299f149e92ead563fba08ef,62a441087048548339cf06f6,,,,,,,,,,,,,,,,,,,,,,,,,,,,,,,,,,,,,,,,,,,,,,,,,,,,,,,,,,,,,,,,,,,,,,,,,,,,,,,,,,,,,,,,,,,,"[""period""]",0,[0.42399999999997817],57,0,57,0,1,,
,,,,,,,,,,,,5cb0b3a61a9e59001571df04,28,Mężczyzna,2022-06-11_09h15.34.520,task,2021.1.4,Win32,60.0024001,6299f149e92ead563fba08ef,62a441087048548339cf06f6,,,,,,,,,,,,,,,,,,,,,,,,,,,,,,,,,,,,,,,,,,,,,,,,,,,,,,,,,,,,,,,,,,,,,,,,,,,,,,,,,,,,,,,,,,,,"[""comma""]",0,[0.6554999999998472],58,0,58,0,1,,
,,,,,,,,,,,,5cb0b3a61a9e59001571df04,28,Mężczyzna,2022-06-11_09h15.34.520,task,2021.1.4,Win32,60.0024001,6299f149e92ead563fba08ef,62a441087048548339cf06f6,,,,,,,,,,,,,,,,,,,,,,,,,,,,,,,,,,,,,,,,,,,,,,,,,,,,,,,,,,,,,,,,,,,,,,,,,,,,,,,,,,,,,,,,,,,,"[""period""]",0,[0.5037999999522071],59,0,59,0,1,,
,,,,,,,,,,,,5cb0b3a61a9e59001571df04,28,Mężczyzna,2022-06-11_09h15.34.520,task,2021.1.4,Win32,60.0024001,6299f149e92ead563fba08ef,62a441087048548339cf06f6,,,,,,,,,,,,,,,,,,,,,,,,,,,,,,,,,,,,,,,,,,,,,,,,,,,,,,,,,,,,,,,,,,,,,,,,,,,,,,,,,,,,,,,,,,,,"[""period""]",0,[0.47240000009514915],60,0,60,0,1,,
,,,,,,,,,,,,5cb0b3a61a9e59001571df04,28,Mężczyzna,2022-06-11_09h15.34.520,task,2021.1.4,Win32,60.0024001,6299f149e92ead563fba08ef,62a441087048548339cf06f6,,,,,,,,,,,,,,,,,,,,,,,,,,,,,,,,,,,,,,,,,,,,,,,,,,,,,,,,,,,,,,,,,,,,,,,,,,,,,,,,,,,,,,,,,,,,"[""comma""]",0,[0.756399999856967],61,0,61,0,1,,
,,,,,,,,,,,,5cb0b3a61a9e59001571df04,28,Mężczyzna,2022-06-11_09h15.34.520,task,2021.1.4,Win32,60.0024001,6299f149e92ead563fba08ef,62a441087048548339cf06f6,,,,,,,,,,,,,,,,,,,,,,,,,,,,,,,,,,,,,,,,,,,,,,,,,,,,,,,,,,,,,,,,,,,,,,,,,,,,,,,,,,,,,,,,,,,,"[""period""]",0,[1.2007999999523236],62,0,62,0,1,,
,,,,,,,,,,,,5cb0b3a61a9e59001571df04,28,Mężczyzna,2022-06-11_09h15.34.520,task,2021.1.4,Win32,60.0024001,6299f149e92ead563fba08ef,62a441087048548339cf06f6,,,,,,,,,,,,,,,,,,,,,,,,,,,,,,,,,,,,,,,,,,,,,,,,,,,,,,,,,,,,,,,,,,,,,,,,,,,,,,,,,,,,,,,,,,,,,0,,63,0,63,0,1,,
,,,,,,,,,,,,5cb0b3a61a9e59001571df04,28,Mężczyzna,2022-06-11_09h15.34.520,task,2021.1.4,Win32,60.0024001,6299f149e92ead563fba08ef,62a441087048548339cf06f6,,,,,,,,,,,,,,,,,,,,,,,,,,,,,,,,,,,,,,,,,,,,,,,,,,,,,,,,,,,,,,,,,,,,,,,,,,,,,,,,,,,,,,,,,,,,"[""comma""]",0,[0.445200000047862],64,0,64,0,1,,
,,,,,,,,,,,,5cb0b3a61a9e59001571df04,28,Mężczyzna,2022-06-11_09h15.34.520,task,2021.1.4,Win32,60.0024001,6299f149e92ead563fba08ef,62a441087048548339cf06f6,,,,,,,,,,,,,,,,,,,,,,,,,,,,,,,,,,,,,,,,,,,,,,,,,,,,,,,,,,,,,,,,,,,,,,,,,,,,,,,,,,,,,,,,,,,,"[""comma""]",0,[0.9843999998570325],65,0,65,0,1,,
,,,,,,,,,,,,5cb0b3a61a9e59001571df04,28,Mężczyzna,2022-06-11_09h15.34.520,task,2021.1.4,Win32,60.0024001,6299f149e92ead563fba08ef,62a441087048548339cf06f6,,,,,,,,,,,,,,,,,,,,,,,,,,,,,,,,,,,,,,,,,,,,,,,,,,,,,,,,,,,,,,,,,,,,,,,,,,,,,,,,,,,,,,,,,,,,,0,,66,0,66,0,1,,
,,,,,,,,,,,,5cb0b3a61a9e59001571df04,28,Mężczyzna,2022-06-11_09h15.34.520,task,2021.1.4,Win32,60.0024001,6299f149e92ead563fba08ef,62a441087048548339cf06f6,,,,,,,,,,,,,,,,,,,,,,,,,,,,,,,,,,,,,,,,,,,,,,,,,,,,,,,,,,,,,,,,,,,,,,,,,,,,,,,,,,,,,,,,,,,,"[""comma""]",0,[0.26979999995228354],67,0,67,0,1,,
,,,,,,,,,,,,5cb0b3a61a9e59001571df04,28,Mężczyzna,2022-06-11_09h15.34.520,task,2021.1.4,Win32,60.0024001,6299f149e92ead563fba08ef,62a441087048548339cf06f6,,,,,,,,,,,,,,,,,,,,,,,,,,,,,,,,,,,,,,,,,,,,,,,,,,,,,,,,,,,,,,,,,,,,,,,,,,,,,,,,,,,,,,,,,,,,"[""period""]",0,[0.4614999999998872],68,0,68,0,1,,
,,,,,,,,,,,,5cb0b3a61a9e59001571df04,28,Mężczyzna,2022-06-11_09h15.34.520,task,2021.1.4,Win32,60.0024001,6299f149e92ead563fba08ef,62a441087048548339cf06f6,,,,,,,,,,,,,,,,,,,,,,,,,,,,,,,,,,,,,,,,,,,,,,,,,,,,,,,,,,,,,,,,,,,,,,,,,,,,,,,,,,,,,,,,,,,,"[""comma""]",0,[0.3602000000475982],69,0,69,0,1,,
,,,,,,,,,,,,5cb0b3a61a9e59001571df04,28,Mężczyzna,2022-06-11_09h15.34.520,task,2021.1.4,Win32,60.0024001,6299f149e92ead563fba08ef,62a441087048548339cf06f6,,,,,,,,,,,,,,,,,,,,,,,,,,,,,,,,,,,,,,,,,,,,,,,,,,,,,,,,,,,,,,,,,,,,,,,,,,,,,,,,,,,,,,,,,,,,"[""period""]",0,[0.31829999995215985],70,0,70,0,1,,
,,,,,,,,,,,,5cb0b3a61a9e59001571df04,28,Mężczyzna,2022-06-11_09h15.34.520,task,2021.1.4,Win32,60.0024001,6299f149e92ead563fba08ef,62a441087048548339cf06f6,,,,,,,,,,,,,,,,,,,,,,,,,,,,,,,,,,,,,,,,,,,,,,,,,,,,,,,,,,,,,,,,,,,,,,,,,,,,,,,,,,,,,,,,,,,,"[""comma""]",0,[0.4470000000001164],71,0,71,0,1,,
,,,,,,,,,,,,5cb0b3a61a9e59001571df04,28,Mężczyzna,2022-06-11_09h15.34.520,task,2021.1.4,Win32,60.0024001,6299f149e92ead563fba08ef,62a441087048548339cf06f6,,,,,,,,,,,,,,,,,,,,,,,,,,,,,,,,,,,,,,,,,,,,,,,,,,,,,,,,,,,,,,,,,,,,,,,,,,,,,,,,,,,,,,,,,,,,"[""period""]",0,[0.5454000000954693],72,0,72,0,1,,
,,,,,,,,,,,,5cb0b3a61a9e59001571df04,28,Mężczyzna,2022-06-11_09h15.34.520,task,2021.1.4,Win32,60.0024001,6299f149e92ead563fba08ef,62a441087048548339cf06f6,,,,,,,,,,,,,,,,,,,,,,,,,,,,,,,,,,,,,,,,,,,,,,,,,,,,,,,,,,,,,,,,,,,,,,,,,,,,,,,,,,,,,,,,,,,,"[""period""]",0,[0.61200000000008],73,0,73,0,1,,
,,,,,,,,,,,,5cb0b3a61a9e59001571df04,28,Mężczyzna,2022-06-11_09h15.34.520,task,2021.1.4,Win32,60.0024001,6299f149e92ead563fba08ef,62a441087048548339cf06f6,,,,,,,,,,,,,,,,,,,,,,,,,,,,,,,,,,,,,,,,,,,,,,,,,,,,,,,,,,,,,,,,,,,,,,,,,,,,,,,,,,,,,,,,,,,,"[""period""]",0,[0.4949000000954129],74,0,74,0,1,,
,,,,,,,,,,,,5cb0b3a61a9e59001571df04,28,Mężczyzna,2022-06-11_09h15.34.520,task,2021.1.4,Win32,60.0024001,6299f149e92ead563fba08ef,62a441087048548339cf06f6,,,,,,,,,,,,,,,,,,,,,,,,,,,,,,,,,,,,,,,,,,,,,,,,,,,,,,,,,,,,,,,,,,,,,,,,,,,,,,,,,,,,,,,,,,,,"[""comma""]",0,[0.4264000000953274],75,0,75,0,1,,
,,,,,,,,,,,,5cb0b3a61a9e59001571df04,28,Mężczyzna,2022-06-11_09h15.34.520,task,2021.1.4,Win32,60.0024001,6299f149e92ead563fba08ef,62a441087048548339cf06f6,,,,,,,,,,,,,,,,,,,,,,,,,,,,,,,,,,,,,,,,,,,,,,,,,,,,,,,,,,,,,,,,,,,,,,,,,,,,,,,,,,,,,,,,,,,,"[""period""]",0,[0.33640000009540927],76,0,76,0,1,,
,,,,,,,,,,,,5cb0b3a61a9e59001571df04,28,Mężczyzna,2022-06-11_09h15.34.520,task,2021.1.4,Win32,60.0024001,6299f149e92ead563fba08ef,62a441087048548339cf06f6,,,,,,,,,,,,,,,,,,,,,,,,,,,,,,,,,,,,,,,,,,,,,,,,,,,,,,,,,,,,,,,,,,,,,,,,,,,,,,,,,,,,,,,,,,,,"[""comma""]",0,[0.4540999999046562],77,0,77,0,1,,
,,,,,,,,,,,,5cb0b3a61a9e59001571df04,28,Mężczyzna,2022-06-11_09h15.34.520,task,2021.1.4,Win32,60.0024001,6299f149e92ead563fba08ef,62a441087048548339cf06f6,,,,,,,,,,,,,,,,,,,,,,,,,,,,,,,,,,,,,,,,,,,,,,,,,,,,,,,,,,,,,,,,,,,,,,,,,,,,,,,,,,,,,,,,,,,,"[""period""]",0,[0.4722999999523836],78,0,78,0,1,,
,,,,,,,,,,,,5cb0b3a61a9e59001571df04,28,Mężczyzna,2022-06-11_09h15.34.520,task,2021.1.4,Win32,60.0024001,6299f149e92ead563fba08ef,62a441087048548339cf06f6,,,,,,,,,,,,,,,,,,,,,,,,,,,,,,,,,,,,,,,,,,,,,,,,,,,,,,,,,,,,,,,,,,,,,,,,,,,,,,,,,,,,,,,,,,,,"[""comma""]",0,[0.5389999999999873],79,0,79,0,1,,
,,,,,,,,,,,,5cb0b3a61a9e59001571df04,28,Mężczyzna,2022-06-11_09h15.34.520,task,2021.1.4,Win32,60.0024001,6299f149e92ead563fba08ef,62a441087048548339cf06f6,,,,,,,,,,,,,,,,,,,,,,,,,,,,,,,,,,,,,,,,,,,,,,,,,,,,,,,,,,,,,,,,,,,,,,,,,,,,,,,,,,,,,,,,,,,,"[""period""]",0,[0.704700000047751],80,0,80,0,1,,
,,,,,,,,,,,,5cb0b3a61a9e59001571df04,28,Mężczyzna,2022-06-11_09h15.34.520,task,2021.1.4,Win32,60.0024001,6299f149e92ead563fba08ef,62a441087048548339cf06f6,,,,,,,,,,,,,,,,,,,,,,,,,,,,,,,,,,,,,,,,,,,,,,,,,,,,,,,,,,,,,,,,,,,,,,,,,,,,,,,,,,,,,,,,,,,,"[""comma""]",0,[0.7412000000476837],81,0,81,0,1,,
,,,,,,,,,,,,5cb0b3a61a9e59001571df04,28,Mężczyzna,2022-06-11_09h15.34.520,task,2021.1.4,Win32,60.0024001,6299f149e92ead563fba08ef,62a441087048548339cf06f6,,,,,,,,,,,,,,,,,,,,,,,,,,,,,,,,,,,,,,,,,,,,,,,,,,,,,,,,,,,,,,,,,,,,,,,,,,,,,,,,,,,,,,,,,,,,"[""period""]",0,[0.4457000000475091],82,0,82,0,1,,
,,,,,,,,,,,,5cb0b3a61a9e59001571df04,28,Mężczyzna,2022-06-11_09h15.34.520,task,2021.1.4,Win32,60.0024001,6299f149e92ead563fba08ef,62a441087048548339cf06f6,,,,,,,,,,,,,,,,,,,,,,,,,,,,,,,,,,,,,,,,,,,,,,,,,,,,,,,,,,,,,,,,,,,,,,,,,,,,,,,,,,,,,,,,,,,,"[""comma""]",0,[0.6719000000955475],83,0,83,0,1,,
,,,,,,,,,,,,5cb0b3a61a9e59001571df04,28,Mężczyzna,2022-06-11_09h15.34.520,task,2021.1.4,Win32,60.0024001,6299f149e92ead563fba08ef,62a441087048548339cf06f6,,,,,,,,,,,,,,,,,,,,,,,,,,,,,,,,,,,,,,,,,,,,,,,,,,,,,,,,,,,,,,,,,,,,,,,,,,,,,,,,,,,,,,,,,,,,"[""comma""]",0,[0.17139999985693066],84,0,84,0,1,,
,,,,,,,,,,,,5cb0b3a61a9e59001571df04,28,Mężczyzna,2022-06-11_09h15.34.520,task,2021.1.4,Win32,60.0024001,6299f149e92ead563fba08ef,62a441087048548339cf06f6,,,,,,,,,,,,,,,,,,,,,,,,,,,,,,,,,,,,,,,,,,,,,,,,,,,,,,,,,,,,,,,,,,,,,,,,,,,,,,,,,,,,,,,,,,,,"[""period""]",0,[0.40279999995232174],85,0,85,0,1,,
,,,,,,,,,,,,5cb0b3a61a9e59001571df04,28,Mężczyzna,2022-06-11_09h15.34.520,task,2021.1.4,Win32,60.0024001,6299f149e92ead563fba08ef,62a441087048548339cf06f6,,,,,,,,,,,,,,,,,,,,,,,,,,,,,,,,,,,,,,,,,,,,,,,,,,,,,,,,,,,,,,,,,,,,,,,,,,,,,,,,,,,,,,,,,,,,"[""comma""]",0,[0.2942000000475673],86,0,86,0,1,,
,,,,,,,,,,,,5cb0b3a61a9e59001571df04,28,Mężczyzna,2022-06-11_09h15.34.520,task,2021.1.4,Win32,60.0024001,6299f149e92ead563fba08ef,62a441087048548339cf06f6,,,,,,,,,,,,,,,,,,,,,,,,,,,,,,,,,,,,,,,,,,,,,,,,,,,,,,,,,,,,,,,,,,,,,,,,,,,,,,,,,,,,,,,,,,,,"[""period""]",0,[0.35259999990466895],87,0,87,0,1,,
,,,,,,,,,,,,5cb0b3a61a9e59001571df04,28,Mężczyzna,2022-06-11_09h15.34.520,task,2021.1.4,Win32,60.0024001,6299f149e92ead563fba08ef,62a441087048548339cf06f6,,,,,,,,,,,,,,,,,,,,,,,,,,,,,,,,,,,,,,,,,,,,,,,,,,,,,,,,,,,,,,,,,,,,,,,,,,,,,,,,,,,,,,,,,,,,"[""period""]",0,[0.34199999999987085],88,0,88,0,1,,
,,,,,,,,,,,,5cb0b3a61a9e59001571df04,28,Mężczyzna,2022-06-11_09h15.34.520,task,2021.1.4,Win32,60.0024001,6299f149e92ead563fba08ef,62a441087048548339cf06f6,,,,,,,,,,,,,,,,,,,,,,,,,,,,,,,,,,,,,,,,,,,,,,,,,,,,,,,,,,,,,,,,,,,,,,,,,,,,,,,,,,,,,,,,,,,,"[""period""]",0,[0.5206000001430766],89,0,89,0,1,,
,,,,,,,,,,,,5cb0b3a61a9e59001571df04,28,Mężczyzna,2022-06-11_09h15.34.520,task,2021.1.4,Win32,60.0024001,6299f149e92ead563fba08ef,62a441087048548339cf06f6,,,,,,,,,,,,,,,,,,,,,,,,,,,,,,,,,,,,,,,,,,,,,,,,,,,,,,,,,,,,,,,,,,,,,,,,,,,,,,,,,,,,,,,,,,,,"[""comma""]",0,[0.33970000004751455],90,0,90,0,1,,
,,,,,,,,,,,,5cb0b3a61a9e59001571df04,28,Mężczyzna,2022-06-11_09h15.34.520,task,2021.1.4,Win32,60.0024001,6299f149e92ead563fba08ef,62a441087048548339cf06f6,,,,,,,,,,,,,,,,,,,,,,,,,,,,,,,,,,,,,,,,,,,,,,,,,,,,,,,,,,,,,,,,,,,,,,,,,,,,,,,,,,,,,,,,,,,,"[""period""]",0,[0.5360999999047635],91,0,91,0,1,,
,,,,,,,,,,,,5cb0b3a61a9e59001571df04,28,Mężczyzna,2022-06-11_09h15.34.520,task,2021.1.4,Win32,60.0024001,6299f149e92ead563fba08ef,62a441087048548339cf06f6,,,,,,,,,,,,,,,,,,,,,,,,,,,,,,,,,,,,,,,,,,,,,,,,,,,,,,,,,,,,,,,,,,,,,,,,,,,,,,,,,,,,,,,,,,,,"[""comma""]",0,[0.645699999809267],92,0,92,0,1,,
,,,,,,,,,,,,5cb0b3a61a9e59001571df04,28,Mężczyzna,2022-06-11_09h15.34.520,task,2021.1.4,Win32,60.0024001,6299f149e92ead563fba08ef,62a441087048548339cf06f6,,,,,,,,,,,,,,,,,,,,,,,,,,,,,,,,,,,,,,,,,,,,,,,,,,,,,,,,,,,,,,,,,,,,,,,,,,,,,,,,,,,,,,,,,,,,"[""period""]",0,[0.3365000000001146],93,0,93,0,1,,
,,,,,,,,,,,,5cb0b3a61a9e59001571df04,28,Mężczyzna,2022-06-11_09h15.34.520,task,2021.1.4,Win32,60.0024001,6299f149e92ead563fba08ef,62a441087048548339cf06f6,,,,,,,,,,,,,,,,,,,,,,,,,,,,,,,,,,,,,,,,,,,,,,,,,,,,,,,,,,,,,,,,,,,,,,,,,,,,,,,,,,,,,,,,,,,,"[""comma""]",0,[0.4562999999523072],94,0,94,0,1,,
,,,,,,,,,,,,5cb0b3a61a9e59001571df04,28,Mężczyzna,2022-06-11_09h15.34.520,task,2021.1.4,Win32,60.0024001,6299f149e92ead563fba08ef,62a441087048548339cf06f6,,,,,,,,,,,,,,,,,,,,,,,,,,,,,,,,,,,,,,,,,,,,,,,,,,,,,,,,,,,,,,,,,,,,,,,,,,,,,,,,,,,,,,,,,,,,"[""period""]",0,[0.3587000000477474],95,0,95,0,1,,
,,,,,,,,,,,,5cb0b3a61a9e59001571df04,28,Mężczyzna,2022-06-11_09h15.34.520,task,2021.1.4,Win32,60.0024001,6299f149e92ead563fba08ef,62a441087048548339cf06f6,,,,,,,,,,,,,,,,,,,,,,,,,,,,,,,,,,,,,,,,,,,,,,,,,,,,,,,,,,,,,,,,,,,,,,,,,,,,,,,,,,,,,,,,,,,,"[""period""]",0,[0.2804999999998472],96,0,96,0,1,,
,,,,,,,,,,,,5cb0b3a61a9e59001571df04,28,Mężczyzna,2022-06-11_09h15.34.520,task,2021.1.4,Win32,60.0024001,6299f149e92ead563fba08ef,62a441087048548339cf06f6,,,,,,,,,,,,,,,,,,,,,,,,,,,,,,,,,,,,,,,,,,,,,,,,,,,,,,,,,,,,,,,,,,,,,,,,,,,,,,,,,,,,,,,,,,,,"[""comma""]",0,[0.24299999999993815],97,0,97,0,1,,
,,,,,,,,,,,,5cb0b3a61a9e59001571df04,28,Mężczyzna,2022-06-11_09h15.34.520,task,2021.1.4,Win32,60.0024001,6299f149e92ead563fba08ef,62a441087048548339cf06f6,,,,,,,,,,,,,,,,,,,,,,,,,,,,,,,,,,,,,,,,,,,,,,,,,,,,,,,,,,,,,,,,,,,,,,,,,,,,,,,,,,,,,,,,,,,,"[""comma""]",0,[0.328499999999849],98,0,98,0,1,,
,,,,,,,,,,,,5cb0b3a61a9e59001571df04,28,Mężczyzna,2022-06-11_09h15.34.520,task,2021.1.4,Win32,60.0024001,6299f149e92ead563fba08ef,62a441087048548339cf06f6,,,,,,,,,,,,,,,,,,,,,,,,,,,,,,,,,,,,,,,,,,,,,,,,,,,,,,,,,,,,,,,,,,,,,,,,,,,,,,,,,,,,,,,,,,,,"[""period""]",0,[0.3122999999525291],99,0,99,0,1,,
,,,,,,,,,,,,5cb0b3a61a9e59001571df04,28,Mężczyzna,2022-06-11_09h15.34.520,task,2021.1.4,Win32,60.0024001,6299f149e92ead563fba08ef,62a441087048548339cf06f6,,,,,,,,,,,,,,,,,,,,,,,,,,,,,,,,,,,,,,,,,,,,,,,,,,,,,,,,,,,,,,,,,,,,,,,,,,,,,,,,,,,,,,,,,,,,"[""comma""]",0,[0.2562999999524891],100,0,100,0,1,,
,,,,,,,,,,,,5cb0b3a61a9e59001571df04,28,Mężczyzna,2022-06-11_09h15.34.520,task,2021.1.4,Win32,60.0024001,6299f149e92ead563fba08ef,62a441087048548339cf06f6,,,,,,,,,,,,,,,,,,,,,,,,,,,,,,,,,,,,,,,,,,,,,,,,,,,,,,,,,,,,,,,,,,,,,,,,,,,,,,,,,,,,,,,,,,,,"[""period""]",0,[0.2630999999046253],101,0,101,0,1,,
,,,,,,,,,,,,5cb0b3a61a9e59001571df04,28,Mężczyzna,2022-06-11_09h15.34.520,task,2021.1.4,Win32,60.0024001,6299f149e92ead563fba08ef,62a441087048548339cf06f6,,,,,,,,,,,,,,,,,,,,,,,,,,,,,,,,,,,,,,,,,,,,,,,,,,,,,,,,,,,,,,,,,,,,,,,,,,,,,,,,,,,,,,,,,,,,"[""period""]",0,[0.2502999999524036],102,0,102,0,1,,
,,,,,,,,,,,,5cb0b3a61a9e59001571df04,28,Mężczyzna,2022-06-11_09h15.34.520,task,2021.1.4,Win32,60.0024001,6299f149e92ead563fba08ef,62a441087048548339cf06f6,,,,,,,,,,,,,,,,,,,,,,,,,,,,,,,,,,,,,,,,,,,,,,,,,,,,,,,,,,,,,,,,,,,,,,,,,,,,,,,,,,,,,,,,,,,,"[""comma""]",0,[0.4595000000001619],103,0,103,0,1,,
,,,,,,,,,,,,5cb0b3a61a9e59001571df04,28,Mężczyzna,2022-06-11_09h15.34.520,task,2021.1.4,Win32,60.0024001,6299f149e92ead563fba08ef,62a441087048548339cf06f6,,,,,,,,,,,,,,,,,,,,,,,,,,,,,,,,,,,,,,,,,,,,,,,,,,,,,,,,,,,,,,,,,,,,,,,,,,,,,,,,,,,,,,,,,,,,"[""period""]",0,[0.2802999999523763],104,0,104,0,1,,
,,,,,,,,,,,,5cb0b3a61a9e59001571df04,28,Mężczyzna,2022-06-11_09h15.34.520,task,2021.1.4,Win32,60.0024001,6299f149e92ead563fba08ef,62a441087048548339cf06f6,,,,,,,,,,,,,,,,,,,,,,,,,,,,,,,,,,,,,,,,,,,,,,,,,,,,,,,,,,,,,,,,,,,,,,,,,,,,,,,,,,,,,,,,,,,,"[""comma""]",0,[0.3183999998568652],105,0,105,0,1,,
,,,,,,,,,,,,5cb0b3a61a9e59001571df04,28,Mężczyzna,2022-06-11_09h15.34.520,task,2021.1.4,Win32,60.0024001,6299f149e92ead563fba08ef,62a441087048548339cf06f6,,,,,,,,,,,,,,,,,,,,,,,,,,,,,,,,,,,,,,,,,,,,,,,,,,,,,,,,,,,,,,,,,,,,,,,,,,,,,,,,,,,,,,,,,,,,"[""comma""]",0,[0.24029999995218532],106,0,106,0,1,,
,,,,,,,,,,,,5cb0b3a61a9e59001571df04,28,Mężczyzna,2022-06-11_09h15.34.520,task,2021.1.4,Win32,60.0024001,6299f149e92ead563fba08ef,62a441087048548339cf06f6,,,,,,,,,,,,,,,,,,,,,,,,,,,,,,,,,,,,,,,,,,,,,,,,,,,,,,,,,,,,,,,,,,,,,,,,,,,,,,,,,,,,,,,,,,,,"[""period""]",0,[0.25700000000006185],107,0,107,0,1,,
,,,,,,,,,,,,5cb0b3a61a9e59001571df04,28,Mężczyzna,2022-06-11_09h15.34.520,task,2021.1.4,Win32,60.0024001,6299f149e92ead563fba08ef,62a441087048548339cf06f6,,,,,,,,,,,,,,,,,,,,,,,,,,,,,,,,,,,,,,,,,,,,,,,,,,,,,,,,,,,,,,,,,,,,,,,,,,,,,,,,,,,,,,,,,,,,"[""comma""]",0,[0.34519999980943794],108,0,108,0,1,,
,,,,,,,,,,,,5cb0b3a61a9e59001571df04,28,Mężczyzna,2022-06-11_09h15.34.520,task,2021.1.4,Win32,60.0024001,6299f149e92ead563fba08ef,62a441087048548339cf06f6,,,,,,,,,,,,,,,,,,,,,,,,,,,,,,,,,,,,,,,,,,,,,,,,,,,,,,,,,,,,,,,,,,,,,,,,,,,,,,,,,,,,,,,,,,,,"[""period""]",0,[0.30439999985696886],109,0,109,0,1,,
,,,,,,,,,,,,5cb0b3a61a9e59001571df04,28,Mężczyzna,2022-06-11_09h15.34.520,task,2021.1.4,Win32,60.0024001,6299f149e92ead563fba08ef,62a441087048548339cf06f6,,,,,,,,,,,,,,,,,,,,,,,,,,,,,,,,,,,,,,,,,,,,,,,,,,,,,,,,,,,,,,,,,,,,,,,,,,,,,,,,,,,,,,,,,,,,"[""period""]",0,[0.25609999990456345],110,0,110,0,1,,
,,,,,,,,,,,,5cb0b3a61a9e59001571df04,28,Mężczyzna,2022-06-11_09h15.34.520,task,2021.1.4,Win32,60.0024001,6299f149e92ead563fba08ef,62a441087048548339cf06f6,,,,,,,,,,,,,,,,,,,,,,,,,,,,,,,,,,,,,,,,,,,,,,,,,,,,,,,,,,,,,,,,,,,,,,,,,,,,,,,,,,,,,,,,,,,,"[""period""]",0,[0.25590000009538016],111,0,111,0,1,,
,,,,,,,,,,,,5cb0b3a61a9e59001571df04,28,Mężczyzna,2022-06-11_09h15.34.520,task,2021.1.4,Win32,60.0024001,6299f149e92ead563fba08ef,62a441087048548339cf06f6,,,,,,,,,,,,,,,,,,,,,,,,,,,,,,,,,,,,,,,,,,,,,,,,,,,,,,,,,,,,,,,,,,,,,,,,,,,,,,,,,,,,,,,,,,,,"[""comma""]",0,[0.2980000000000018],112,0,112,0,1,,
,,,,,,,,,,,,5cb0b3a61a9e59001571df04,28,Mężczyzna,2022-06-11_09h15.34.520,task,2021.1.4,Win32,60.0024001,6299f149e92ead563fba08ef,62a441087048548339cf06f6,,,,,,,,,,,,,,,,,,,,,,,,,,,,,,,,,,,,,,,,,,,,,,,,,,,,,,,,,,,,,,,,,,,,,,,,,,,,,,,,,,,,,,,,,,,,"[""comma""]",0,[0.3949999999999818],113,0,113,0,1,,
,,,,,,,,,,,,5cb0b3a61a9e59001571df04,28,Mężczyzna,2022-06-11_09h15.34.520,task,2021.1.4,Win32,60.0024001,6299f149e92ead563fba08ef,62a441087048548339cf06f6,,,,,,,,,,,,,,,,,,,,,,,,,,,,,,,,,,,,,,,,,,,,,,,,,,,,,,,,,,,,,,,,,,,,,,,,,,,,,,,,,,,,,,,,,,,,"[""period""]",0,[0.38459999990459437],114,0,114,0,1,,
,,,,,,,,,,,,5cb0b3a61a9e59001571df04,28,Mężczyzna,2022-06-11_09h15.34.520,task,2021.1.4,Win32,60.0024001,6299f149e92ead563fba08ef,62a441087048548339cf06f6,,,,,,,,,,,,,,,,,,,,,,,,,,,,,,,,,,,,,,,,,,,,,,,,,,,,,,,,,,,,,,,,,,,,,,,,,,,,,,,,,,,,,,,,,,,,"[""comma""]",0,[0.4279999999998836],115,0,115,0,1,,
,,,,,,,,,,,,5cb0b3a61a9e59001571df04,28,Mężczyzna,2022-06-11_09h15.34.520,task,2021.1.4,Win32,60.0024001,6299f149e92ead563fba08ef,62a441087048548339cf06f6,,,,,,,,,,,,,,,,,,,,,,,,,,,,,,,,,,,,,,,,,,,,,,,,,,,,,,,,,,,,,,,,,,,,,,,,,,,,,,,,,,,,,,,,,,,,"[""period""]",0,[0.2788000001908131],116,0,116,0,1,,
,,,,,,,,,,,,5cb0b3a61a9e59001571df04,28,Mężczyzna,2022-06-11_09h15.34.520,task,2021.1.4,Win32,60.0024001,6299f149e92ead563fba08ef,62a441087048548339cf06f6,,,,,,,,,,,,,,,,,,,,,,,,,,,,,,,,,,,,,,,,,,,,,,,,,,,,,,,,,,,,,,,,,,,,,,,,,,,,,,,,,,,,,,,,,,,,"[""comma""]",0,[0.3435999999046544],117,0,117,0,1,,
,,,,,,,,,,,,5cb0b3a61a9e59001571df04,28,Mężczyzna,2022-06-11_09h15.34.520,task,2021.1.4,Win32,60.0024001,6299f149e92ead563fba08ef,62a441087048548339cf06f6,,,,,,,,,,,,,,,,,,,,,,,,,,,,,,,,,,,,,,,,,,,,,,,,,,,,,,,,,,,,,,,,,,,,,,,,,,,,,,,,,,,,,,,,,,,,"[""period""]",0,[0.921100000143042],118,0,118,0,1,,
,,,,,,,,,,,,5cb0b3a61a9e59001571df04,28,Mężczyzna,2022-06-11_09h15.34.520,task,2021.1.4,Win32,60.0024001,6299f149e92ead563fba08ef,62a441087048548339cf06f6,,,,,,,,,,,,,,,,,,,,,,,,,,,,,,,,,,,,,,,,,,,,,,,,,,,,,,,,,,,,,,,,,,,,,,,,,,,,,,,,,,,,,,,,,,,,,0,,119,0,119,0,1,,
,,,,,,,,,,,,5cb0b3a61a9e59001571df04,28,Mężczyzna,2022-06-11_09h15.34.520,task,2021.1.4,Win32,60.0024001,6299f149e92ead563fba08ef,62a441087048548339cf06f6,,,,,,,,,,,,,,,,,,,,,,,,,,,,,,,,,,,,,,,,,,,,,,,,,,,,,,,,,,,,,,,,,,,,,,,,,,,,,,,,,,,,,,,,,,,,,,,,,,,,space,3.3427
