key_resp_15.keys,key_resp_15.rt,key_resp_16.keys,key_resp_16.rt,key_resp_4.keys,key_resp_4.rt,next_letter.thisRepN,next_letter.thisTrialN,next_letter.thisN,next_letter.thisIndex,next_letter.ran,letter,participant,Wiek*,Płeć,date,expName,psychopyVersion,OS,frameRate,study_id,session,simple_recall,key_resp_5.keys,key_resp_5.rt,simple_recall_corr,simple_recall_corrkeys,next_level.thisRepN,next_level.thisTrialN,next_level.thisN,next_level.thisIndex,next_level.ran,key_resp_2.keys,key_resp_2.rt,digit_answer,key_resp.keys,key_resp.corr,key_resp.rt,RT_list,next_equation.thisRepN,next_equation.thisTrialN,next_equation.thisN,next_equation.thisIndex,next_equation.ran,Task,Trial,Problem,Operation_answer,processing_score,sumRT,meanRT,sumdiff,sd,RT,key_resp_3.keys,key_resp_3.rt,repeat_practice.thisRepN,repeat_practice.thisTrialN,repeat_practice.thisN,repeat_practice.thisIndex,repeat_practice.ran,key_resp_6.keys,key_resp_6.rt,key_resp_11.keys,key_resp_11.corr,key_resp_11.rt,operation_correct,repeat_if_wrong_prac.thisRepN,repeat_if_wrong_prac.thisTrialN,repeat_if_wrong_prac.thisN,repeat_if_wrong_prac.thisIndex,repeat_if_wrong_prac.ran,span_size_prac.thisRepN,span_size_prac.thisTrialN,span_size_prac.thisN,span_size_prac.thisIndex,span_size_prac.ran,complex_recall_practice,key_resp_9.keys,key_resp_9.corr,key_resp_9.rt,complex_prac_corr,span_recall_prac.thisRepN,span_recall_prac.thisTrialN,span_recall_prac.thisN,span_recall_prac.thisIndex,span_recall_prac.ran,key_resp_10.keys,key_resp_10.rt,key_resp_7.keys,key_resp_7.corr,key_resp_7.rt,repeat_if_wrong.thisRepN,repeat_if_wrong.thisTrialN,repeat_if_wrong.thisN,repeat_if_wrong.thisIndex,repeat_if_wrong.ran,span_size.thisRepN,span_size.thisTrialN,span_size.thisN,span_size.thisIndex,span_size.ran,complex_recall,key_resp_8.keys,key_resp_8.corr,key_resp_8.rt,complex_recall_corr,complex_recall_corrkeys,span_recall.thisRepN,span_recall.thisTrialN,span_recall.thisN,span_recall.thisIndex,span_recall.ran,key_resp_13.keys,key_resp_13.corr,key_resp_13.rt,random_loop.thisRepN,random_loop.thisTrialN,random_loop.thisN,random_loop.thisIndex,random_loop.ran,key_resp_12.keys,key_resp_12.rt
space,9.3388,space,21.1523,space,7.2066,0,0,0,0,1,X V Q F H G B L J M P D K C T S W R N Z,5cb6d6608f7ee10016e5abd7,28,Mężczyzna,2022-06-11_09h15.05.916,task,2021.1.4,Win32,60.08171113,6299f149e92ead563fba08ef,62a440ced4c3d28453a014b9,,,,,,,,,,,,,,,,,,,,,,,,,,,,,,,,,,,,,,,,,,,,,,,,,,,,,,,,,,,,,,,,,,,,,,,,,,,,,,,,,,,,,,,,,,,,,,,,,,,,,
,,,,,,1,0,1,0,1,X V Q F H G B L J M P D K C T S W R N Z,5cb6d6608f7ee10016e5abd7,28,Mężczyzna,2022-06-11_09h15.05.916,task,2021.1.4,Win32,60.08171113,6299f149e92ead563fba08ef,62a440ced4c3d28453a014b9,,,,,,,,,,,,,,,,,,,,,,,,,,,,,,,,,,,,,,,,,,,,,,,,,,,,,,,,,,,,,,,,,,,,,,,,,,,,,,,,,,,,,,,,,,,,,,,,,,,,,
,,,,,,,,,,,,5cb6d6608f7ee10016e5abd7,28,Mężczyzna,2022-06-11_09h15.05.916,task,2021.1.4,Win32,60.08171113,6299f149e92ead563fba08ef,62a440ced4c3d28453a014b9,zc,"[""z"",""c""]","[2.11580000000005,2.4878000000000497,4.716600000000092]",1,ZC,0,0,0,0,1,,,,,,,,,,,,,,,,,,,,,,,,,,,,,,,,,,,,,,,,,,,,,,,,,,,,,,,,,,,,,,,,,,,,,,,,,,,,,,,,,,,,,,,,,,,
,,,,,,0,0,0,0,1,X V Q F H G B L J M P D K C T S W R N Z,5cb6d6608f7ee10016e5abd7,28,Mężczyzna,2022-06-11_09h15.05.916,task,2021.1.4,Win32,60.08171113,6299f149e92ead563fba08ef,62a440ced4c3d28453a014b9,,,,,,,,,,,,,,,,,,,,,,,,,,,,,,,,,,,,,,,,,,,,,,,,,,,,,,,,,,,,,,,,,,,,,,,,,,,,,,,,,,,,,,,,,,,,,,,,,,,,,
,,,,,,1,0,1,0,1,X V Q F H G B L J M P D K C T S W R N Z,5cb6d6608f7ee10016e5abd7,28,Mężczyzna,2022-06-11_09h15.05.916,task,2021.1.4,Win32,60.08171113,6299f149e92ead563fba08ef,62a440ced4c3d28453a014b9,,,,,,,,,,,,,,,,,,,,,,,,,,,,,,,,,,,,,,,,,,,,,,,,,,,,,,,,,,,,,,,,,,,,,,,,,,,,,,,,,,,,,,,,,,,,,,,,,,,,,
,,,,,,,,,,,,5cb6d6608f7ee10016e5abd7,28,Mężczyzna,2022-06-11_09h15.05.916,task,2021.1.4,Win32,60.08171113,6299f149e92ead563fba08ef,62a440ced4c3d28453a014b9,gb,"[""g"",""b""]","[1.343300000000049,1.7991000000000952,2.299300000000045]",1,GB,1,0,1,0,1,,,,,,,,,,,,,,,,,,,,,,,,,,,,,,,,,,,,,,,,,,,,,,,,,,,,,,,,,,,,,,,,,,,,,,,,,,,,,,,,,,,,,,,,,,,
,,,,,,0,0,0,0,1,X V Q F H G B L J M P D K C T S W R N Z,5cb6d6608f7ee10016e5abd7,28,Mężczyzna,2022-06-11_09h15.05.916,task,2021.1.4,Win32,60.08171113,6299f149e92ead563fba08ef,62a440ced4c3d28453a014b9,,,,,,,,,,,,,,,,,,,,,,,,,,,,,,,,,,,,,,,,,,,,,,,,,,,,,,,,,,,,,,,,,,,,,,,,,,,,,,,,,,,,,,,,,,,,,,,,,,,,,
,,,,,,1,0,1,0,1,X V Q F H G B L J M P D K C T S W R N Z,5cb6d6608f7ee10016e5abd7,28,Mężczyzna,2022-06-11_09h15.05.916,task,2021.1.4,Win32,60.08171113,6299f149e92ead563fba08ef,62a440ced4c3d28453a014b9,,,,,,,,,,,,,,,,,,,,,,,,,,,,,,,,,,,,,,,,,,,,,,,,,,,,,,,,,,,,,,,,,,,,,,,,,,,,,,,,,,,,,,,,,,,,,,,,,,,,,
,,,,,,2,0,2,0,1,X V Q F H G B L J M P D K C T S W R N Z,5cb6d6608f7ee10016e5abd7,28,Mężczyzna,2022-06-11_09h15.05.916,task,2021.1.4,Win32,60.08171113,6299f149e92ead563fba08ef,62a440ced4c3d28453a014b9,,,,,,,,,,,,,,,,,,,,,,,,,,,,,,,,,,,,,,,,,,,,,,,,,,,,,,,,,,,,,,,,,,,,,,,,,,,,,,,,,,,,,,,,,,,,,,,,,,,,,
,,,,,,,,,,,,5cb6d6608f7ee10016e5abd7,28,Mężczyzna,2022-06-11_09h15.05.916,task,2021.1.4,Win32,60.08171113,6299f149e92ead563fba08ef,62a440ced4c3d28453a014b9,wtf,"[""w"",""t"",""f""]","[0.6179000000000201,0.9831000000000927,1.259800000000041,1.9889000000000152]",1,WTF,2,0,2,0,1,,,,,,,,,,,,,,,,,,,,,,,,,,,,,,,,,,,,,,,,,,,,,,,,,,,,,,,,,,,,,,,,,,,,,,,,,,,,,,,,,,,,,,,,,,,
,,,,,,0,0,0,0,1,X V Q F H G B L J M P D K C T S W R N Z,5cb6d6608f7ee10016e5abd7,28,Mężczyzna,2022-06-11_09h15.05.916,task,2021.1.4,Win32,60.08171113,6299f149e92ead563fba08ef,62a440ced4c3d28453a014b9,,,,,,,,,,,,,,,,,,,,,,,,,,,,,,,,,,,,,,,,,,,,,,,,,,,,,,,,,,,,,,,,,,,,,,,,,,,,,,,,,,,,,,,,,,,,,,,,,,,,,
,,,,,,1,0,1,0,1,X V Q F H G B L J M P D K C T S W R N Z,5cb6d6608f7ee10016e5abd7,28,Mężczyzna,2022-06-11_09h15.05.916,task,2021.1.4,Win32,60.08171113,6299f149e92ead563fba08ef,62a440ced4c3d28453a014b9,,,,,,,,,,,,,,,,,,,,,,,,,,,,,,,,,,,,,,,,,,,,,,,,,,,,,,,,,,,,,,,,,,,,,,,,,,,,,,,,,,,,,,,,,,,,,,,,,,,,,
,,,,,,2,0,2,0,1,X V Q F H G B L J M P D K C T S W R N Z,5cb6d6608f7ee10016e5abd7,28,Mężczyzna,2022-06-11_09h15.05.916,task,2021.1.4,Win32,60.08171113,6299f149e92ead563fba08ef,62a440ced4c3d28453a014b9,,,,,,,,,,,,,,,,,,,,,,,,,,,,,,,,,,,,,,,,,,,,,,,,,,,,,,,,,,,,,,,,,,,,,,,,,,,,,,,,,,,,,,,,,,,,,,,,,,,,,
,,,,,,,,,,,,5cb6d6608f7ee10016e5abd7,28,Mężczyzna,2022-06-11_09h15.05.916,task,2021.1.4,Win32,60.08171113,6299f149e92ead563fba08ef,62a440ced4c3d28453a014b9,rrt,"[""r"",""r"",""t""]","[0.5987999999999261,0.8166999999999547,1.2194999999999965,1.708400000000026]",1,RRT,3,0,3,0,1,,,,,,,,,,,,,,,,,,,,,,,,,,,,,,,,,,,,,,,,,,,,,,,,,,,,,,,,,,,,,,,,,,,,,,,,,,,,,,,,,,,,,,,,,,,
,,,,,,0,0,0,0,1,X V Q F H G B L J M P D K C T S W R N Z,5cb6d6608f7ee10016e5abd7,28,Mężczyzna,2022-06-11_09h15.05.916,task,2021.1.4,Win32,60.08171113,6299f149e92ead563fba08ef,62a440ced4c3d28453a014b9,,,,,,,,,,,,,,,,,,,,,,,,,,,,,,,,,,,,,,,,,,,,,,,,,,,,,,,,,,,,,,,,,,,,,,,,,,,,,,,,,,,,,,,,,,,,,,,,,,,,,
,,,,,,1,0,1,0,1,X V Q F H G B L J M P D K C T S W R N Z,5cb6d6608f7ee10016e5abd7,28,Mężczyzna,2022-06-11_09h15.05.916,task,2021.1.4,Win32,60.08171113,6299f149e92ead563fba08ef,62a440ced4c3d28453a014b9,,,,,,,,,,,,,,,,,,,,,,,,,,,,,,,,,,,,,,,,,,,,,,,,,,,,,,,,,,,,,,,,,,,,,,,,,,,,,,,,,,,,,,,,,,,,,,,,,,,,,
,,,,,,2,0,2,0,1,X V Q F H G B L J M P D K C T S W R N Z,5cb6d6608f7ee10016e5abd7,28,Mężczyzna,2022-06-11_09h15.05.916,task,2021.1.4,Win32,60.08171113,6299f149e92ead563fba08ef,62a440ced4c3d28453a014b9,,,,,,,,,,,,,,,,,,,,,,,,,,,,,,,,,,,,,,,,,,,,,,,,,,,,,,,,,,,,,,,,,,,,,,,,,,,,,,,,,,,,,,,,,,,,,,,,,,,,,
,,,,,,3,0,3,0,1,X V Q F H G B L J M P D K C T S W R N Z,5cb6d6608f7ee10016e5abd7,28,Mężczyzna,2022-06-11_09h15.05.916,task,2021.1.4,Win32,60.08171113,6299f149e92ead563fba08ef,62a440ced4c3d28453a014b9,,,,,,,,,,,,,,,,,,,,,,,,,,,,,,,,,,,,,,,,,,,,,,,,,,,,,,,,,,,,,,,,,,,,,,,,,,,,,,,,,,,,,,,,,,,,,,,,,,,,,
,,,,,,,,,,,,5cb6d6608f7ee10016e5abd7,28,Mężczyzna,2022-06-11_09h15.05.916,task,2021.1.4,Win32,60.08171113,6299f149e92ead563fba08ef,62a440ced4c3d28453a014b9,jpcb,"[""j"",""p"",""c"",""b""]","[1.3857999999999322,1.7872999999999308,2.1184999999999974,2.5264999999999986,3.048699999999954]",1,JPCB,4,0,4,0,1,,,,,,,,,,,,,,,,,,,,,,,,,,,,,,,,,,,,,,,,,,,,,,,,,,,,,,,,,,,,,,,,,,,,,,,,,,,,,,,,,,,,,,,,,,,
,,,,,,0,0,0,0,1,X V Q F H G B L J M P D K C T S W R N Z,5cb6d6608f7ee10016e5abd7,28,Mężczyzna,2022-06-11_09h15.05.916,task,2021.1.4,Win32,60.08171113,6299f149e92ead563fba08ef,62a440ced4c3d28453a014b9,,,,,,,,,,,,,,,,,,,,,,,,,,,,,,,,,,,,,,,,,,,,,,,,,,,,,,,,,,,,,,,,,,,,,,,,,,,,,,,,,,,,,,,,,,,,,,,,,,,,,
,,,,,,1,0,1,0,1,X V Q F H G B L J M P D K C T S W R N Z,5cb6d6608f7ee10016e5abd7,28,Mężczyzna,2022-06-11_09h15.05.916,task,2021.1.4,Win32,60.08171113,6299f149e92ead563fba08ef,62a440ced4c3d28453a014b9,,,,,,,,,,,,,,,,,,,,,,,,,,,,,,,,,,,,,,,,,,,,,,,,,,,,,,,,,,,,,,,,,,,,,,,,,,,,,,,,,,,,,,,,,,,,,,,,,,,,,
,,,,,,2,0,2,0,1,X V Q F H G B L J M P D K C T S W R N Z,5cb6d6608f7ee10016e5abd7,28,Mężczyzna,2022-06-11_09h15.05.916,task,2021.1.4,Win32,60.08171113,6299f149e92ead563fba08ef,62a440ced4c3d28453a014b9,,,,,,,,,,,,,,,,,,,,,,,,,,,,,,,,,,,,,,,,,,,,,,,,,,,,,,,,,,,,,,,,,,,,,,,,,,,,,,,,,,,,,,,,,,,,,,,,,,,,,
,,,,,,3,0,3,0,1,X V Q F H G B L J M P D K C T S W R N Z,5cb6d6608f7ee10016e5abd7,28,Mężczyzna,2022-06-11_09h15.05.916,task,2021.1.4,Win32,60.08171113,6299f149e92ead563fba08ef,62a440ced4c3d28453a014b9,,,,,,,,,,,,,,,,,,,,,,,,,,,,,,,,,,,,,,,,,,,,,,,,,,,,,,,,,,,,,,,,,,,,,,,,,,,,,,,,,,,,,,,,,,,,,,,,,,,,,
,,,,,,,,,,,,5cb6d6608f7ee10016e5abd7,28,Mężczyzna,2022-06-11_09h15.05.916,task,2021.1.4,Win32,60.08171113,6299f149e92ead563fba08ef,62a440ced4c3d28453a014b9,nlxz,"[""n"",""l"",""x"",""z""]","[1.1221999999999497,4.435099999999977,5.206900000000019,5.637900000000016,5.921199999999956]",0,NXLZ,5,0,5,0,1,,,,,,,,,,,,,,,,,,,,,,,,,,,,,,,,,,,,,,,,,,,,,,,,,,,,,,,,,,,,,,,,,,,,,,,,,,,,,,,,,,,,,,,,,,,
,,,,,,0,0,0,0,1,X V Q F H G B L J M P D K C T S W R N Z,5cb6d6608f7ee10016e5abd7,28,Mężczyzna,2022-06-11_09h15.05.916,task,2021.1.4,Win32,60.08171113,6299f149e92ead563fba08ef,62a440ced4c3d28453a014b9,,,,,,,,,,,,,,,,,,,,,,,,,,,,,,,,,,,,,,,,,,,,,,,,,,,,,,,,,,,,,,,,,,,,,,,,,,,,,,,,,,,,,,,,,,,,,,,,,,,,,
,,,,,,1,0,1,0,1,X V Q F H G B L J M P D K C T S W R N Z,5cb6d6608f7ee10016e5abd7,28,Mężczyzna,2022-06-11_09h15.05.916,task,2021.1.4,Win32,60.08171113,6299f149e92ead563fba08ef,62a440ced4c3d28453a014b9,,,,,,,,,,,,,,,,,,,,,,,,,,,,,,,,,,,,,,,,,,,,,,,,,,,,,,,,,,,,,,,,,,,,,,,,,,,,,,,,,,,,,,,,,,,,,,,,,,,,,
,,,,,,2,0,2,0,1,X V Q F H G B L J M P D K C T S W R N Z,5cb6d6608f7ee10016e5abd7,28,Mężczyzna,2022-06-11_09h15.05.916,task,2021.1.4,Win32,60.08171113,6299f149e92ead563fba08ef,62a440ced4c3d28453a014b9,,,,,,,,,,,,,,,,,,,,,,,,,,,,,,,,,,,,,,,,,,,,,,,,,,,,,,,,,,,,,,,,,,,,,,,,,,,,,,,,,,,,,,,,,,,,,,,,,,,,,
,,,,,,3,0,3,0,1,X V Q F H G B L J M P D K C T S W R N Z,5cb6d6608f7ee10016e5abd7,28,Mężczyzna,2022-06-11_09h15.05.916,task,2021.1.4,Win32,60.08171113,6299f149e92ead563fba08ef,62a440ced4c3d28453a014b9,,,,,,,,,,,,,,,,,,,,,,,,,,,,,,,,,,,,,,,,,,,,,,,,,,,,,,,,,,,,,,,,,,,,,,,,,,,,,,,,,,,,,,,,,,,,,,,,,,,,,
,,,,,,,,,,,,5cb6d6608f7ee10016e5abd7,28,Mężczyzna,2022-06-11_09h15.05.916,task,2021.1.4,Win32,60.08171113,6299f149e92ead563fba08ef,62a440ced4c3d28453a014b9,mljs,"[""m"",""l"",""j"",""s""]","[1.0406000000000972,1.3238000000000483,1.7172000000000764,2.1676000000000926,2.5897000000000645]",1,MLJS,6,0,6,0,1,,,,,,,,,,,,,,,,,,,,,,,,,,,,,,,,,,,,,,,,,,,,,,,,,,,,,,,,,,,,,,,,,,,,,,,,,,,,,,,,,,,,,,,,,,,
,,,,,,0,0,0,0,1,X V Q F H G B L J M P D K C T S W R N Z,5cb6d6608f7ee10016e5abd7,28,Mężczyzna,2022-06-11_09h15.05.916,task,2021.1.4,Win32,60.08171113,6299f149e92ead563fba08ef,62a440ced4c3d28453a014b9,,,,,,,,,,,,,,,,,,,,,,,,,,,,,,,,,,,,,,,,,,,,,,,,,,,,,,,,,,,,,,,,,,,,,,,,,,,,,,,,,,,,,,,,,,,,,,,,,,,,,
,,,,,,1,0,1,0,1,X V Q F H G B L J M P D K C T S W R N Z,5cb6d6608f7ee10016e5abd7,28,Mężczyzna,2022-06-11_09h15.05.916,task,2021.1.4,Win32,60.08171113,6299f149e92ead563fba08ef,62a440ced4c3d28453a014b9,,,,,,,,,,,,,,,,,,,,,,,,,,,,,,,,,,,,,,,,,,,,,,,,,,,,,,,,,,,,,,,,,,,,,,,,,,,,,,,,,,,,,,,,,,,,,,,,,,,,,
,,,,,,2,0,2,0,1,X V Q F H G B L J M P D K C T S W R N Z,5cb6d6608f7ee10016e5abd7,28,Mężczyzna,2022-06-11_09h15.05.916,task,2021.1.4,Win32,60.08171113,6299f149e92ead563fba08ef,62a440ced4c3d28453a014b9,,,,,,,,,,,,,,,,,,,,,,,,,,,,,,,,,,,,,,,,,,,,,,,,,,,,,,,,,,,,,,,,,,,,,,,,,,,,,,,,,,,,,,,,,,,,,,,,,,,,,
,,,,,,3,0,3,0,1,X V Q F H G B L J M P D K C T S W R N Z,5cb6d6608f7ee10016e5abd7,28,Mężczyzna,2022-06-11_09h15.05.916,task,2021.1.4,Win32,60.08171113,6299f149e92ead563fba08ef,62a440ced4c3d28453a014b9,,,,,,,,,,,,,,,,,,,,,,,,,,,,,,,,,,,,,,,,,,,,,,,,,,,,,,,,,,,,,,,,,,,,,,,,,,,,,,,,,,,,,,,,,,,,,,,,,,,,,
,,,,,,4,0,4,0,1,X V Q F H G B L J M P D K C T S W R N Z,5cb6d6608f7ee10016e5abd7,28,Mężczyzna,2022-06-11_09h15.05.916,task,2021.1.4,Win32,60.08171113,6299f149e92ead563fba08ef,62a440ced4c3d28453a014b9,,,,,,,,,,,,,,,,,,,,,,,,,,,,,,,,,,,,,,,,,,,,,,,,,,,,,,,,,,,,,,,,,,,,,,,,,,,,,,,,,,,,,,,,,,,,,,,,,,,,,
,,,,,,,,,,,,5cb6d6608f7ee10016e5abd7,28,Mężczyzna,2022-06-11_09h15.05.916,task,2021.1.4,Win32,60.08171113,6299f149e92ead563fba08ef,62a440ced4c3d28453a014b9,gqzg,"[""g"",""q"",""z"",""g""]","[1.08269999999996,1.9524000000000257,3.160699999999963,4.009400000000028,8.319500000000005]",0,GQGZM,7,0,7,0,1,,,,,,,,,,,,,,,,,,,,,,,,,,,,,,,,,,,,,,,,,,,,,,,,,,,,,,,,,,,,,,,,,,,,,,,,,,,,,,,,,,,,,,,,,,,
,,,,,,0,0,0,0,1,X V Q F H G B L J M P D K C T S W R N Z,5cb6d6608f7ee10016e5abd7,28,Mężczyzna,2022-06-11_09h15.05.916,task,2021.1.4,Win32,60.08171113,6299f149e92ead563fba08ef,62a440ced4c3d28453a014b9,,,,,,,,,,,,,,,,,,,,,,,,,,,,,,,,,,,,,,,,,,,,,,,,,,,,,,,,,,,,,,,,,,,,,,,,,,,,,,,,,,,,,,,,,,,,,,,,,,,,,
,,,,,,1,0,1,0,1,X V Q F H G B L J M P D K C T S W R N Z,5cb6d6608f7ee10016e5abd7,28,Mężczyzna,2022-06-11_09h15.05.916,task,2021.1.4,Win32,60.08171113,6299f149e92ead563fba08ef,62a440ced4c3d28453a014b9,,,,,,,,,,,,,,,,,,,,,,,,,,,,,,,,,,,,,,,,,,,,,,,,,,,,,,,,,,,,,,,,,,,,,,,,,,,,,,,,,,,,,,,,,,,,,,,,,,,,,
,,,,,,2,0,2,0,1,X V Q F H G B L J M P D K C T S W R N Z,5cb6d6608f7ee10016e5abd7,28,Mężczyzna,2022-06-11_09h15.05.916,task,2021.1.4,Win32,60.08171113,6299f149e92ead563fba08ef,62a440ced4c3d28453a014b9,,,,,,,,,,,,,,,,,,,,,,,,,,,,,,,,,,,,,,,,,,,,,,,,,,,,,,,,,,,,,,,,,,,,,,,,,,,,,,,,,,,,,,,,,,,,,,,,,,,,,
,,,,,,3,0,3,0,1,X V Q F H G B L J M P D K C T S W R N Z,5cb6d6608f7ee10016e5abd7,28,Mężczyzna,2022-06-11_09h15.05.916,task,2021.1.4,Win32,60.08171113,6299f149e92ead563fba08ef,62a440ced4c3d28453a014b9,,,,,,,,,,,,,,,,,,,,,,,,,,,,,,,,,,,,,,,,,,,,,,,,,,,,,,,,,,,,,,,,,,,,,,,,,,,,,,,,,,,,,,,,,,,,,,,,,,,,,
,,,,,,4,0,4,0,1,X V Q F H G B L J M P D K C T S W R N Z,5cb6d6608f7ee10016e5abd7,28,Mężczyzna,2022-06-11_09h15.05.916,task,2021.1.4,Win32,60.08171113,6299f149e92ead563fba08ef,62a440ced4c3d28453a014b9,,,,,,,,,,,,,,,,,,,,,,,,,,,,,,,,,,,,,,,,,,,,,,,,,,,,,,,,,,,,,,,,,,,,,,,,,,,,,,,,,,,,,,,,,,,,,,,,,,,,,
,,,,,,,,,,,,5cb6d6608f7ee10016e5abd7,28,Mężczyzna,2022-06-11_09h15.05.916,task,2021.1.4,Win32,60.08171113,6299f149e92ead563fba08ef,62a440ced4c3d28453a014b9,wwlnp,"[""w"",""w"",""l"",""n"",""p""]","[1.7210000000000036,1.932800000000043,2.483199999999954,3.0388000000000517,3.3368000000000393,3.706000000000003]",1,WWLNP,8,0,8,0,1,,,,,,,,,,,,,,,,,,,,,,,,,,,,,,,,,,,,,,,,,,,,,,,,,,,,,,,,,,,,,,,,,,,,,,,,,,,,,,,,,,,,,,,,,,,
,,,,,,0,0,0,0,1,X V Q F H G B L J M P D K C T S W R N Z,5cb6d6608f7ee10016e5abd7,28,Mężczyzna,2022-06-11_09h15.05.916,task,2021.1.4,Win32,60.08171113,6299f149e92ead563fba08ef,62a440ced4c3d28453a014b9,,,,,,,,,,,,,,,,,,,,,,,,,,,,,,,,,,,,,,,,,,,,,,,,,,,,,,,,,,,,,,,,,,,,,,,,,,,,,,,,,,,,,,,,,,,,,,,,,,,,,
,,,,,,1,0,1,0,1,X V Q F H G B L J M P D K C T S W R N Z,5cb6d6608f7ee10016e5abd7,28,Mężczyzna,2022-06-11_09h15.05.916,task,2021.1.4,Win32,60.08171113,6299f149e92ead563fba08ef,62a440ced4c3d28453a014b9,,,,,,,,,,,,,,,,,,,,,,,,,,,,,,,,,,,,,,,,,,,,,,,,,,,,,,,,,,,,,,,,,,,,,,,,,,,,,,,,,,,,,,,,,,,,,,,,,,,,,
,,,,,,2,0,2,0,1,X V Q F H G B L J M P D K C T S W R N Z,5cb6d6608f7ee10016e5abd7,28,Mężczyzna,2022-06-11_09h15.05.916,task,2021.1.4,Win32,60.08171113,6299f149e92ead563fba08ef,62a440ced4c3d28453a014b9,,,,,,,,,,,,,,,,,,,,,,,,,,,,,,,,,,,,,,,,,,,,,,,,,,,,,,,,,,,,,,,,,,,,,,,,,,,,,,,,,,,,,,,,,,,,,,,,,,,,,
,,,,,,3,0,3,0,1,X V Q F H G B L J M P D K C T S W R N Z,5cb6d6608f7ee10016e5abd7,28,Mężczyzna,2022-06-11_09h15.05.916,task,2021.1.4,Win32,60.08171113,6299f149e92ead563fba08ef,62a440ced4c3d28453a014b9,,,,,,,,,,,,,,,,,,,,,,,,,,,,,,,,,,,,,,,,,,,,,,,,,,,,,,,,,,,,,,,,,,,,,,,,,,,,,,,,,,,,,,,,,,,,,,,,,,,,,
,,,,,,4,0,4,0,1,X V Q F H G B L J M P D K C T S W R N Z,5cb6d6608f7ee10016e5abd7,28,Mężczyzna,2022-06-11_09h15.05.916,task,2021.1.4,Win32,60.08171113,6299f149e92ead563fba08ef,62a440ced4c3d28453a014b9,,,,,,,,,,,,,,,,,,,,,,,,,,,,,,,,,,,,,,,,,,,,,,,,,,,,,,,,,,,,,,,,,,,,,,,,,,,,,,,,,,,,,,,,,,,,,,,,,,,,,
,,,,,,,,,,,,5cb6d6608f7ee10016e5abd7,28,Mężczyzna,2022-06-11_09h15.05.916,task,2021.1.4,Win32,60.08171113,6299f149e92ead563fba08ef,62a440ced4c3d28453a014b9,kjxsg,"[""k"",""j"",""x"",""s"",""g""]","[3.366599999999977,4.448199999999957,5.308400000000034,6.204299999999932,8.05540000000002,8.913900000000012]",1,KJXSG,9,0,9,0,1,,,,,,,,,,,,,,,,,,,,,,,,,,,,,,,,,,,,,,,,,,,,,,,,,,,,,,,,,,,,,,,,,,,,,,,,,,,,,,,,,,,,,,,,,,,
,,,,,,0,0,0,0,1,X V Q F H G B L J M P D K C T S W R N Z,5cb6d6608f7ee10016e5abd7,28,Mężczyzna,2022-06-11_09h15.05.916,task,2021.1.4,Win32,60.08171113,6299f149e92ead563fba08ef,62a440ced4c3d28453a014b9,,,,,,,,,,,,,,,,,,,,,,,,,,,,,,,,,,,,,,,,,,,,,,,,,,,,,,,,,,,,,,,,,,,,,,,,,,,,,,,,,,,,,,,,,,,,,,,,,,,,,
,,,,,,1,0,1,0,1,X V Q F H G B L J M P D K C T S W R N Z,5cb6d6608f7ee10016e5abd7,28,Mężczyzna,2022-06-11_09h15.05.916,task,2021.1.4,Win32,60.08171113,6299f149e92ead563fba08ef,62a440ced4c3d28453a014b9,,,,,,,,,,,,,,,,,,,,,,,,,,,,,,,,,,,,,,,,,,,,,,,,,,,,,,,,,,,,,,,,,,,,,,,,,,,,,,,,,,,,,,,,,,,,,,,,,,,,,
,,,,,,2,0,2,0,1,X V Q F H G B L J M P D K C T S W R N Z,5cb6d6608f7ee10016e5abd7,28,Mężczyzna,2022-06-11_09h15.05.916,task,2021.1.4,Win32,60.08171113,6299f149e92ead563fba08ef,62a440ced4c3d28453a014b9,,,,,,,,,,,,,,,,,,,,,,,,,,,,,,,,,,,,,,,,,,,,,,,,,,,,,,,,,,,,,,,,,,,,,,,,,,,,,,,,,,,,,,,,,,,,,,,,,,,,,
,,,,,,3,0,3,0,1,X V Q F H G B L J M P D K C T S W R N Z,5cb6d6608f7ee10016e5abd7,28,Mężczyzna,2022-06-11_09h15.05.916,task,2021.1.4,Win32,60.08171113,6299f149e92ead563fba08ef,62a440ced4c3d28453a014b9,,,,,,,,,,,,,,,,,,,,,,,,,,,,,,,,,,,,,,,,,,,,,,,,,,,,,,,,,,,,,,,,,,,,,,,,,,,,,,,,,,,,,,,,,,,,,,,,,,,,,
,,,,,,4,0,4,0,1,X V Q F H G B L J M P D K C T S W R N Z,5cb6d6608f7ee10016e5abd7,28,Mężczyzna,2022-06-11_09h15.05.916,task,2021.1.4,Win32,60.08171113,6299f149e92ead563fba08ef,62a440ced4c3d28453a014b9,,,,,,,,,,,,,,,,,,,,,,,,,,,,,,,,,,,,,,,,,,,,,,,,,,,,,,,,,,,,,,,,,,,,,,,,,,,,,,,,,,,,,,,,,,,,,,,,,,,,,
,,,,,,5,0,5,0,1,X V Q F H G B L J M P D K C T S W R N Z,5cb6d6608f7ee10016e5abd7,28,Mężczyzna,2022-06-11_09h15.05.916,task,2021.1.4,Win32,60.08171113,6299f149e92ead563fba08ef,62a440ced4c3d28453a014b9,,,,,,,,,,,,,,,,,,,,,,,,,,,,,,,,,,,,,,,,,,,,,,,,,,,,,,,,,,,,,,,,,,,,,,,,,,,,,,,,,,,,,,,,,,,,,,,,,,,,,
,,,,,,,,,,,,5cb6d6608f7ee10016e5abd7,28,Mężczyzna,2022-06-11_09h15.05.916,task,2021.1.4,Win32,60.08171113,6299f149e92ead563fba08ef,62a440ced4c3d28453a014b9,wffmsf,"[""w"",""f"",""f"",""m"",""s"",""f""]","[2.5164999999999793,3.1988999999998953,3.4029999999999916,4.099399999999889,4.4498999999999,5.398799999999909,6.040199999999942]",1,WFFMSF,10,0,10,0,1,,,,,,,,,,,,,,,,,,,,,,,,,,,,,,,,,,,,,,,,,,,,,,,,,,,,,,,,,,,,,,,,,,,,,,,,,,,,,,,,,,,,,,,,,,,
,,,,,,0,0,0,0,1,X V Q F H G B L J M P D K C T S W R N Z,5cb6d6608f7ee10016e5abd7,28,Mężczyzna,2022-06-11_09h15.05.916,task,2021.1.4,Win32,60.08171113,6299f149e92ead563fba08ef,62a440ced4c3d28453a014b9,,,,,,,,,,,,,,,,,,,,,,,,,,,,,,,,,,,,,,,,,,,,,,,,,,,,,,,,,,,,,,,,,,,,,,,,,,,,,,,,,,,,,,,,,,,,,,,,,,,,,
,,,,,,1,0,1,0,1,X V Q F H G B L J M P D K C T S W R N Z,5cb6d6608f7ee10016e5abd7,28,Mężczyzna,2022-06-11_09h15.05.916,task,2021.1.4,Win32,60.08171113,6299f149e92ead563fba08ef,62a440ced4c3d28453a014b9,,,,,,,,,,,,,,,,,,,,,,,,,,,,,,,,,,,,,,,,,,,,,,,,,,,,,,,,,,,,,,,,,,,,,,,,,,,,,,,,,,,,,,,,,,,,,,,,,,,,,
,,,,,,2,0,2,0,1,X V Q F H G B L J M P D K C T S W R N Z,5cb6d6608f7ee10016e5abd7,28,Mężczyzna,2022-06-11_09h15.05.916,task,2021.1.4,Win32,60.08171113,6299f149e92ead563fba08ef,62a440ced4c3d28453a014b9,,,,,,,,,,,,,,,,,,,,,,,,,,,,,,,,,,,,,,,,,,,,,,,,,,,,,,,,,,,,,,,,,,,,,,,,,,,,,,,,,,,,,,,,,,,,,,,,,,,,,
,,,,,,3,0,3,0,1,X V Q F H G B L J M P D K C T S W R N Z,5cb6d6608f7ee10016e5abd7,28,Mężczyzna,2022-06-11_09h15.05.916,task,2021.1.4,Win32,60.08171113,6299f149e92ead563fba08ef,62a440ced4c3d28453a014b9,,,,,,,,,,,,,,,,,,,,,,,,,,,,,,,,,,,,,,,,,,,,,,,,,,,,,,,,,,,,,,,,,,,,,,,,,,,,,,,,,,,,,,,,,,,,,,,,,,,,,
,,,,,,4,0,4,0,1,X V Q F H G B L J M P D K C T S W R N Z,5cb6d6608f7ee10016e5abd7,28,Mężczyzna,2022-06-11_09h15.05.916,task,2021.1.4,Win32,60.08171113,6299f149e92ead563fba08ef,62a440ced4c3d28453a014b9,,,,,,,,,,,,,,,,,,,,,,,,,,,,,,,,,,,,,,,,,,,,,,,,,,,,,,,,,,,,,,,,,,,,,,,,,,,,,,,,,,,,,,,,,,,,,,,,,,,,,
,,,,,,5,0,5,0,1,X V Q F H G B L J M P D K C T S W R N Z,5cb6d6608f7ee10016e5abd7,28,Mężczyzna,2022-06-11_09h15.05.916,task,2021.1.4,Win32,60.08171113,6299f149e92ead563fba08ef,62a440ced4c3d28453a014b9,,,,,,,,,,,,,,,,,,,,,,,,,,,,,,,,,,,,,,,,,,,,,,,,,,,,,,,,,,,,,,,,,,,,,,,,,,,,,,,,,,,,,,,,,,,,,,,,,,,,,
,,,,,,,,,,,,5cb6d6608f7ee10016e5abd7,28,Mężczyzna,2022-06-11_09h15.05.916,task,2021.1.4,Win32,60.08171113,6299f149e92ead563fba08ef,62a440ced4c3d28453a014b9,nblpxt,"[""n"",""b"",""l"",""p"",""x"",""t""]","[2.9758999999999105,3.483699999999942,4.016399999999891,5.276899999999898,5.616399999999885,7.601399999999899,8.249799999999908]",1,NBLPXT,11,0,11,0,1,,,,,,,,,,,,,,,,,,,,,,,,,,,,,,,,,,,,,,,,,,,,,,,,,,,,,,,,,,,,,,,,,,,,,,,,,,,,,,,,,,,,,,,,,,,
,,,,,,0,0,0,0,1,X V Q F H G B L J M P D K C T S W R N Z,5cb6d6608f7ee10016e5abd7,28,Mężczyzna,2022-06-11_09h15.05.916,task,2021.1.4,Win32,60.08171113,6299f149e92ead563fba08ef,62a440ced4c3d28453a014b9,,,,,,,,,,,,,,,,,,,,,,,,,,,,,,,,,,,,,,,,,,,,,,,,,,,,,,,,,,,,,,,,,,,,,,,,,,,,,,,,,,,,,,,,,,,,,,,,,,,,,
,,,,,,1,0,1,0,1,X V Q F H G B L J M P D K C T S W R N Z,5cb6d6608f7ee10016e5abd7,28,Mężczyzna,2022-06-11_09h15.05.916,task,2021.1.4,Win32,60.08171113,6299f149e92ead563fba08ef,62a440ced4c3d28453a014b9,,,,,,,,,,,,,,,,,,,,,,,,,,,,,,,,,,,,,,,,,,,,,,,,,,,,,,,,,,,,,,,,,,,,,,,,,,,,,,,,,,,,,,,,,,,,,,,,,,,,,
,,,,,,2,0,2,0,1,X V Q F H G B L J M P D K C T S W R N Z,5cb6d6608f7ee10016e5abd7,28,Mężczyzna,2022-06-11_09h15.05.916,task,2021.1.4,Win32,60.08171113,6299f149e92ead563fba08ef,62a440ced4c3d28453a014b9,,,,,,,,,,,,,,,,,,,,,,,,,,,,,,,,,,,,,,,,,,,,,,,,,,,,,,,,,,,,,,,,,,,,,,,,,,,,,,,,,,,,,,,,,,,,,,,,,,,,,
,,,,,,3,0,3,0,1,X V Q F H G B L J M P D K C T S W R N Z,5cb6d6608f7ee10016e5abd7,28,Mężczyzna,2022-06-11_09h15.05.916,task,2021.1.4,Win32,60.08171113,6299f149e92ead563fba08ef,62a440ced4c3d28453a014b9,,,,,,,,,,,,,,,,,,,,,,,,,,,,,,,,,,,,,,,,,,,,,,,,,,,,,,,,,,,,,,,,,,,,,,,,,,,,,,,,,,,,,,,,,,,,,,,,,,,,,
,,,,,,4,0,4,0,1,X V Q F H G B L J M P D K C T S W R N Z,5cb6d6608f7ee10016e5abd7,28,Mężczyzna,2022-06-11_09h15.05.916,task,2021.1.4,Win32,60.08171113,6299f149e92ead563fba08ef,62a440ced4c3d28453a014b9,,,,,,,,,,,,,,,,,,,,,,,,,,,,,,,,,,,,,,,,,,,,,,,,,,,,,,,,,,,,,,,,,,,,,,,,,,,,,,,,,,,,,,,,,,,,,,,,,,,,,
,,,,,,5,0,5,0,1,X V Q F H G B L J M P D K C T S W R N Z,5cb6d6608f7ee10016e5abd7,28,Mężczyzna,2022-06-11_09h15.05.916,task,2021.1.4,Win32,60.08171113,6299f149e92ead563fba08ef,62a440ced4c3d28453a014b9,,,,,,,,,,,,,,,,,,,,,,,,,,,,,,,,,,,,,,,,,,,,,,,,,,,,,,,,,,,,,,,,,,,,,,,,,,,,,,,,,,,,,,,,,,,,,,,,,,,,,
,,,,,,6,0,6,0,1,X V Q F H G B L J M P D K C T S W R N Z,5cb6d6608f7ee10016e5abd7,28,Mężczyzna,2022-06-11_09h15.05.916,task,2021.1.4,Win32,60.08171113,6299f149e92ead563fba08ef,62a440ced4c3d28453a014b9,,,,,,,,,,,,,,,,,,,,,,,,,,,,,,,,,,,,,,,,,,,,,,,,,,,,,,,,,,,,,,,,,,,,,,,,,,,,,,,,,,,,,,,,,,,,,,,,,,,,,
,,,,,,,,,,,,5cb6d6608f7ee10016e5abd7,28,Mężczyzna,2022-06-11_09h15.05.916,task,2021.1.4,Win32,60.08171113,6299f149e92ead563fba08ef,62a440ced4c3d28453a014b9,slvbqwx,"[""s"",""l"",""v"",""b"",""q"",""w"",""x""]","[2.4349000000000274,3.139800000000065,4.04940000000002,5.898900000000026,7.257900000000035,8.232,9.324900000000014,9.914999999999992]",1,SLVBQWX,12,0,12,0,1,,,,,,,,,,,,,,,,,,,,,,,,,,,,,,,,,,,,,,,,,,,,,,,,,,,,,,,,,,,,,,,,,,,,,,,,,,,,,,,,,,,,,,,,,,,
,,,,,,0,0,0,0,1,X V Q F H G B L J M P D K C T S W R N Z,5cb6d6608f7ee10016e5abd7,28,Mężczyzna,2022-06-11_09h15.05.916,task,2021.1.4,Win32,60.08171113,6299f149e92ead563fba08ef,62a440ced4c3d28453a014b9,,,,,,,,,,,,,,,,,,,,,,,,,,,,,,,,,,,,,,,,,,,,,,,,,,,,,,,,,,,,,,,,,,,,,,,,,,,,,,,,,,,,,,,,,,,,,,,,,,,,,
,,,,,,1,0,1,0,1,X V Q F H G B L J M P D K C T S W R N Z,5cb6d6608f7ee10016e5abd7,28,Mężczyzna,2022-06-11_09h15.05.916,task,2021.1.4,Win32,60.08171113,6299f149e92ead563fba08ef,62a440ced4c3d28453a014b9,,,,,,,,,,,,,,,,,,,,,,,,,,,,,,,,,,,,,,,,,,,,,,,,,,,,,,,,,,,,,,,,,,,,,,,,,,,,,,,,,,,,,,,,,,,,,,,,,,,,,
,,,,,,2,0,2,0,1,X V Q F H G B L J M P D K C T S W R N Z,5cb6d6608f7ee10016e5abd7,28,Mężczyzna,2022-06-11_09h15.05.916,task,2021.1.4,Win32,60.08171113,6299f149e92ead563fba08ef,62a440ced4c3d28453a014b9,,,,,,,,,,,,,,,,,,,,,,,,,,,,,,,,,,,,,,,,,,,,,,,,,,,,,,,,,,,,,,,,,,,,,,,,,,,,,,,,,,,,,,,,,,,,,,,,,,,,,
,,,,,,3,0,3,0,1,X V Q F H G B L J M P D K C T S W R N Z,5cb6d6608f7ee10016e5abd7,28,Mężczyzna,2022-06-11_09h15.05.916,task,2021.1.4,Win32,60.08171113,6299f149e92ead563fba08ef,62a440ced4c3d28453a014b9,,,,,,,,,,,,,,,,,,,,,,,,,,,,,,,,,,,,,,,,,,,,,,,,,,,,,,,,,,,,,,,,,,,,,,,,,,,,,,,,,,,,,,,,,,,,,,,,,,,,,
,,,,,,4,0,4,0,1,X V Q F H G B L J M P D K C T S W R N Z,5cb6d6608f7ee10016e5abd7,28,Mężczyzna,2022-06-11_09h15.05.916,task,2021.1.4,Win32,60.08171113,6299f149e92ead563fba08ef,62a440ced4c3d28453a014b9,,,,,,,,,,,,,,,,,,,,,,,,,,,,,,,,,,,,,,,,,,,,,,,,,,,,,,,,,,,,,,,,,,,,,,,,,,,,,,,,,,,,,,,,,,,,,,,,,,,,,
,,,,,,5,0,5,0,1,X V Q F H G B L J M P D K C T S W R N Z,5cb6d6608f7ee10016e5abd7,28,Mężczyzna,2022-06-11_09h15.05.916,task,2021.1.4,Win32,60.08171113,6299f149e92ead563fba08ef,62a440ced4c3d28453a014b9,,,,,,,,,,,,,,,,,,,,,,,,,,,,,,,,,,,,,,,,,,,,,,,,,,,,,,,,,,,,,,,,,,,,,,,,,,,,,,,,,,,,,,,,,,,,,,,,,,,,,
,,,,,,6,0,6,0,1,X V Q F H G B L J M P D K C T S W R N Z,5cb6d6608f7ee10016e5abd7,28,Mężczyzna,2022-06-11_09h15.05.916,task,2021.1.4,Win32,60.08171113,6299f149e92ead563fba08ef,62a440ced4c3d28453a014b9,,,,,,,,,,,,,,,,,,,,,,,,,,,,,,,,,,,,,,,,,,,,,,,,,,,,,,,,,,,,,,,,,,,,,,,,,,,,,,,,,,,,,,,,,,,,,,,,,,,,,
,,,,,,,,,,,,5cb6d6608f7ee10016e5abd7,28,Mężczyzna,2022-06-11_09h15.05.916,task,2021.1.4,Win32,60.08171113,6299f149e92ead563fba08ef,62a440ced4c3d28453a014b9,mncmnct,"[""m"",""n"",""c"",""m"",""n"",""c"",""t""]","[2.9539000000000044,3.447900000000004,5.3659000000000106,7.1019000000000005,7.532900000000012,8.606900000000024,9.421599999999955,10.083800000000025]",1,MNCMNCT,13,0,13,0,1,,,,,,,,,,,,,,,,,,,,,,,,,,,,,,,,,,,,,,,,,,,,,,,,,,,,,,,,,,,,,,,,,,,,,,,,,,,,,,,,,,,,,,,,,,,
,,,,,,0,0,0,0,1,X V Q F H G B L J M P D K C T S W R N Z,5cb6d6608f7ee10016e5abd7,28,Mężczyzna,2022-06-11_09h15.05.916,task,2021.1.4,Win32,60.08171113,6299f149e92ead563fba08ef,62a440ced4c3d28453a014b9,,,,,,,,,,,,,,,,,,,,,,,,,,,,,,,,,,,,,,,,,,,,,,,,,,,,,,,,,,,,,,,,,,,,,,,,,,,,,,,,,,,,,,,,,,,,,,,,,,,,,
,,,,,,1,0,1,0,1,X V Q F H G B L J M P D K C T S W R N Z,5cb6d6608f7ee10016e5abd7,28,Mężczyzna,2022-06-11_09h15.05.916,task,2021.1.4,Win32,60.08171113,6299f149e92ead563fba08ef,62a440ced4c3d28453a014b9,,,,,,,,,,,,,,,,,,,,,,,,,,,,,,,,,,,,,,,,,,,,,,,,,,,,,,,,,,,,,,,,,,,,,,,,,,,,,,,,,,,,,,,,,,,,,,,,,,,,,
,,,,,,2,0,2,0,1,X V Q F H G B L J M P D K C T S W R N Z,5cb6d6608f7ee10016e5abd7,28,Mężczyzna,2022-06-11_09h15.05.916,task,2021.1.4,Win32,60.08171113,6299f149e92ead563fba08ef,62a440ced4c3d28453a014b9,,,,,,,,,,,,,,,,,,,,,,,,,,,,,,,,,,,,,,,,,,,,,,,,,,,,,,,,,,,,,,,,,,,,,,,,,,,,,,,,,,,,,,,,,,,,,,,,,,,,,
,,,,,,3,0,3,0,1,X V Q F H G B L J M P D K C T S W R N Z,5cb6d6608f7ee10016e5abd7,28,Mężczyzna,2022-06-11_09h15.05.916,task,2021.1.4,Win32,60.08171113,6299f149e92ead563fba08ef,62a440ced4c3d28453a014b9,,,,,,,,,,,,,,,,,,,,,,,,,,,,,,,,,,,,,,,,,,,,,,,,,,,,,,,,,,,,,,,,,,,,,,,,,,,,,,,,,,,,,,,,,,,,,,,,,,,,,
,,,,,,4,0,4,0,1,X V Q F H G B L J M P D K C T S W R N Z,5cb6d6608f7ee10016e5abd7,28,Mężczyzna,2022-06-11_09h15.05.916,task,2021.1.4,Win32,60.08171113,6299f149e92ead563fba08ef,62a440ced4c3d28453a014b9,,,,,,,,,,,,,,,,,,,,,,,,,,,,,,,,,,,,,,,,,,,,,,,,,,,,,,,,,,,,,,,,,,,,,,,,,,,,,,,,,,,,,,,,,,,,,,,,,,,,,
,,,,,,5,0,5,0,1,X V Q F H G B L J M P D K C T S W R N Z,5cb6d6608f7ee10016e5abd7,28,Mężczyzna,2022-06-11_09h15.05.916,task,2021.1.4,Win32,60.08171113,6299f149e92ead563fba08ef,62a440ced4c3d28453a014b9,,,,,,,,,,,,,,,,,,,,,,,,,,,,,,,,,,,,,,,,,,,,,,,,,,,,,,,,,,,,,,,,,,,,,,,,,,,,,,,,,,,,,,,,,,,,,,,,,,,,,
,,,,,,6,0,6,0,1,X V Q F H G B L J M P D K C T S W R N Z,5cb6d6608f7ee10016e5abd7,28,Mężczyzna,2022-06-11_09h15.05.916,task,2021.1.4,Win32,60.08171113,6299f149e92ead563fba08ef,62a440ced4c3d28453a014b9,,,,,,,,,,,,,,,,,,,,,,,,,,,,,,,,,,,,,,,,,,,,,,,,,,,,,,,,,,,,,,,,,,,,,,,,,,,,,,,,,,,,,,,,,,,,,,,,,,,,,
,,,,,,7,0,7,0,1,X V Q F H G B L J M P D K C T S W R N Z,5cb6d6608f7ee10016e5abd7,28,Mężczyzna,2022-06-11_09h15.05.916,task,2021.1.4,Win32,60.08171113,6299f149e92ead563fba08ef,62a440ced4c3d28453a014b9,,,,,,,,,,,,,,,,,,,,,,,,,,,,,,,,,,,,,,,,,,,,,,,,,,,,,,,,,,,,,,,,,,,,,,,,,,,,,,,,,,,,,,,,,,,,,,,,,,,,,
,,,,,,,,,,,,5cb6d6608f7ee10016e5abd7,28,Mężczyzna,2022-06-11_09h15.05.916,task,2021.1.4,Win32,60.08171113,6299f149e92ead563fba08ef,62a440ced4c3d28453a014b9,gvqchcct,"[""g"",""v"",""q"",""c"",""h"",""c"",""c"",""t""]","[2.4378999999998996,4.388699999999943,5.098899999999901,6.282599999999974,6.99819999999994,8.765399999999886,9.005499999999984,9.417599999999965,10.400699999999944]",1,GVQCHCCT,14,0,14,0,1,,,,,,,,,,,,,,,,,,,,,,,,,,,,,,,,,,,,,,,,,,,,,,,,,,,,,,,,,,,,,,,,,,,,,,,,,,,,,,,,,,,,,,,,,,,
,,,,,,0,0,0,0,1,X V Q F H G B L J M P D K C T S W R N Z,5cb6d6608f7ee10016e5abd7,28,Mężczyzna,2022-06-11_09h15.05.916,task,2021.1.4,Win32,60.08171113,6299f149e92ead563fba08ef,62a440ced4c3d28453a014b9,,,,,,,,,,,,,,,,,,,,,,,,,,,,,,,,,,,,,,,,,,,,,,,,,,,,,,,,,,,,,,,,,,,,,,,,,,,,,,,,,,,,,,,,,,,,,,,,,,,,,
,,,,,,1,0,1,0,1,X V Q F H G B L J M P D K C T S W R N Z,5cb6d6608f7ee10016e5abd7,28,Mężczyzna,2022-06-11_09h15.05.916,task,2021.1.4,Win32,60.08171113,6299f149e92ead563fba08ef,62a440ced4c3d28453a014b9,,,,,,,,,,,,,,,,,,,,,,,,,,,,,,,,,,,,,,,,,,,,,,,,,,,,,,,,,,,,,,,,,,,,,,,,,,,,,,,,,,,,,,,,,,,,,,,,,,,,,
,,,,,,2,0,2,0,1,X V Q F H G B L J M P D K C T S W R N Z,5cb6d6608f7ee10016e5abd7,28,Mężczyzna,2022-06-11_09h15.05.916,task,2021.1.4,Win32,60.08171113,6299f149e92ead563fba08ef,62a440ced4c3d28453a014b9,,,,,,,,,,,,,,,,,,,,,,,,,,,,,,,,,,,,,,,,,,,,,,,,,,,,,,,,,,,,,,,,,,,,,,,,,,,,,,,,,,,,,,,,,,,,,,,,,,,,,
,,,,,,3,0,3,0,1,X V Q F H G B L J M P D K C T S W R N Z,5cb6d6608f7ee10016e5abd7,28,Mężczyzna,2022-06-11_09h15.05.916,task,2021.1.4,Win32,60.08171113,6299f149e92ead563fba08ef,62a440ced4c3d28453a014b9,,,,,,,,,,,,,,,,,,,,,,,,,,,,,,,,,,,,,,,,,,,,,,,,,,,,,,,,,,,,,,,,,,,,,,,,,,,,,,,,,,,,,,,,,,,,,,,,,,,,,
,,,,,,4,0,4,0,1,X V Q F H G B L J M P D K C T S W R N Z,5cb6d6608f7ee10016e5abd7,28,Mężczyzna,2022-06-11_09h15.05.916,task,2021.1.4,Win32,60.08171113,6299f149e92ead563fba08ef,62a440ced4c3d28453a014b9,,,,,,,,,,,,,,,,,,,,,,,,,,,,,,,,,,,,,,,,,,,,,,,,,,,,,,,,,,,,,,,,,,,,,,,,,,,,,,,,,,,,,,,,,,,,,,,,,,,,,
,,,,,,5,0,5,0,1,X V Q F H G B L J M P D K C T S W R N Z,5cb6d6608f7ee10016e5abd7,28,Mężczyzna,2022-06-11_09h15.05.916,task,2021.1.4,Win32,60.08171113,6299f149e92ead563fba08ef,62a440ced4c3d28453a014b9,,,,,,,,,,,,,,,,,,,,,,,,,,,,,,,,,,,,,,,,,,,,,,,,,,,,,,,,,,,,,,,,,,,,,,,,,,,,,,,,,,,,,,,,,,,,,,,,,,,,,
,,,,,,6,0,6,0,1,X V Q F H G B L J M P D K C T S W R N Z,5cb6d6608f7ee10016e5abd7,28,Mężczyzna,2022-06-11_09h15.05.916,task,2021.1.4,Win32,60.08171113,6299f149e92ead563fba08ef,62a440ced4c3d28453a014b9,,,,,,,,,,,,,,,,,,,,,,,,,,,,,,,,,,,,,,,,,,,,,,,,,,,,,,,,,,,,,,,,,,,,,,,,,,,,,,,,,,,,,,,,,,,,,,,,,,,,,
,,,,,,7,0,7,0,1,X V Q F H G B L J M P D K C T S W R N Z,5cb6d6608f7ee10016e5abd7,28,Mężczyzna,2022-06-11_09h15.05.916,task,2021.1.4,Win32,60.08171113,6299f149e92ead563fba08ef,62a440ced4c3d28453a014b9,,,,,,,,,,,,,,,,,,,,,,,,,,,,,,,,,,,,,,,,,,,,,,,,,,,,,,,,,,,,,,,,,,,,,,,,,,,,,,,,,,,,,,,,,,,,,,,,,,,,,
,,,,,,,,,,,,5cb6d6608f7ee10016e5abd7,28,Mężczyzna,2022-06-11_09h15.05.916,task,2021.1.4,Win32,60.08171113,6299f149e92ead563fba08ef,62a440ced4c3d28453a014b9,gkzvxkqh,"[""g"",""k"",""z"",""v"",""x"",""k"",""q"",""h""]","[3.4141999999999655,3.8933999999999003,5.225599999999986,6.3762999999999295,7.468999999999994,8.063500000000005,9.041199999999947,9.746799999999922,10.159199999999942]",0,GKZVXKPH,15,0,15,0,1,,,,,,,,,,,,,,,,,,,,,,,,,,,,,,,,,,,,,,,,,,,,,,,,,,,,,,,,,,,,,,,,,,,,,,,,,,,,,,,,,,,,,,,,,,,
,,,,,,0,0,0,0,1,X V Q F H G B L J M P D K C T S W R N Z,5cb6d6608f7ee10016e5abd7,28,Mężczyzna,2022-06-11_09h15.05.916,task,2021.1.4,Win32,60.08171113,6299f149e92ead563fba08ef,62a440ced4c3d28453a014b9,,,,,,,,,,,,,,,,,,,,,,,,,,,,,,,,,,,,,,,,,,,,,,,,,,,,,,,,,,,,,,,,,,,,,,,,,,,,,,,,,,,,,,,,,,,,,,,,,,,,,
,,,,,,1,0,1,0,1,X V Q F H G B L J M P D K C T S W R N Z,5cb6d6608f7ee10016e5abd7,28,Mężczyzna,2022-06-11_09h15.05.916,task,2021.1.4,Win32,60.08171113,6299f149e92ead563fba08ef,62a440ced4c3d28453a014b9,,,,,,,,,,,,,,,,,,,,,,,,,,,,,,,,,,,,,,,,,,,,,,,,,,,,,,,,,,,,,,,,,,,,,,,,,,,,,,,,,,,,,,,,,,,,,,,,,,,,,
,,,,,,2,0,2,0,1,X V Q F H G B L J M P D K C T S W R N Z,5cb6d6608f7ee10016e5abd7,28,Mężczyzna,2022-06-11_09h15.05.916,task,2021.1.4,Win32,60.08171113,6299f149e92ead563fba08ef,62a440ced4c3d28453a014b9,,,,,,,,,,,,,,,,,,,,,,,,,,,,,,,,,,,,,,,,,,,,,,,,,,,,,,,,,,,,,,,,,,,,,,,,,,,,,,,,,,,,,,,,,,,,,,,,,,,,,
,,,,,,3,0,3,0,1,X V Q F H G B L J M P D K C T S W R N Z,5cb6d6608f7ee10016e5abd7,28,Mężczyzna,2022-06-11_09h15.05.916,task,2021.1.4,Win32,60.08171113,6299f149e92ead563fba08ef,62a440ced4c3d28453a014b9,,,,,,,,,,,,,,,,,,,,,,,,,,,,,,,,,,,,,,,,,,,,,,,,,,,,,,,,,,,,,,,,,,,,,,,,,,,,,,,,,,,,,,,,,,,,,,,,,,,,,
,,,,,,4,0,4,0,1,X V Q F H G B L J M P D K C T S W R N Z,5cb6d6608f7ee10016e5abd7,28,Mężczyzna,2022-06-11_09h15.05.916,task,2021.1.4,Win32,60.08171113,6299f149e92ead563fba08ef,62a440ced4c3d28453a014b9,,,,,,,,,,,,,,,,,,,,,,,,,,,,,,,,,,,,,,,,,,,,,,,,,,,,,,,,,,,,,,,,,,,,,,,,,,,,,,,,,,,,,,,,,,,,,,,,,,,,,
,,,,,,5,0,5,0,1,X V Q F H G B L J M P D K C T S W R N Z,5cb6d6608f7ee10016e5abd7,28,Mężczyzna,2022-06-11_09h15.05.916,task,2021.1.4,Win32,60.08171113,6299f149e92ead563fba08ef,62a440ced4c3d28453a014b9,,,,,,,,,,,,,,,,,,,,,,,,,,,,,,,,,,,,,,,,,,,,,,,,,,,,,,,,,,,,,,,,,,,,,,,,,,,,,,,,,,,,,,,,,,,,,,,,,,,,,
,,,,,,6,0,6,0,1,X V Q F H G B L J M P D K C T S W R N Z,5cb6d6608f7ee10016e5abd7,28,Mężczyzna,2022-06-11_09h15.05.916,task,2021.1.4,Win32,60.08171113,6299f149e92ead563fba08ef,62a440ced4c3d28453a014b9,,,,,,,,,,,,,,,,,,,,,,,,,,,,,,,,,,,,,,,,,,,,,,,,,,,,,,,,,,,,,,,,,,,,,,,,,,,,,,,,,,,,,,,,,,,,,,,,,,,,,
,,,,,,7,0,7,0,1,X V Q F H G B L J M P D K C T S W R N Z,5cb6d6608f7ee10016e5abd7,28,Mężczyzna,2022-06-11_09h15.05.916,task,2021.1.4,Win32,60.08171113,6299f149e92ead563fba08ef,62a440ced4c3d28453a014b9,,,,,,,,,,,,,,,,,,,,,,,,,,,,,,,,,,,,,,,,,,,,,,,,,,,,,,,,,,,,,,,,,,,,,,,,,,,,,,,,,,,,,,,,,,,,,,,,,,,,,
,,,,,,,,,,,,5cb6d6608f7ee10016e5abd7,28,Mężczyzna,2022-06-11_09h15.05.916,task,2021.1.4,Win32,60.08171113,6299f149e92ead563fba08ef,62a440ced4c3d28453a014b9,gzqpffhp,"[""g"",""z"",""q"",""p"",""f"",""f"",""h"",""p""]","[2.217999999999961,3.3158000000000243,3.617800000000045,5.449600000000089,5.832699999999932,8.057800000000043,9.581800000000044,9.812999999999988,10.16290000000015]",1,GZQPFFHP,16,0,16,0,1,,,,,,,,,,,,,,,,,,,,,,,,,,,,,,,,,,,,,,,,,,,,,,,,,,,,,,,,,,,,,,,,,,,,,,,,,,,,,,,,,,,,,,,,,,,
,,,,,,0,0,0,0,1,X V Q F H G B L J M P D K C T S W R N Z,5cb6d6608f7ee10016e5abd7,28,Mężczyzna,2022-06-11_09h15.05.916,task,2021.1.4,Win32,60.08171113,6299f149e92ead563fba08ef,62a440ced4c3d28453a014b9,,,,,,,,,,,,,,,,,,,,,,,,,,,,,,,,,,,,,,,,,,,,,,,,,,,,,,,,,,,,,,,,,,,,,,,,,,,,,,,,,,,,,,,,,,,,,,,,,,,,,
,,,,,,1,0,1,0,1,X V Q F H G B L J M P D K C T S W R N Z,5cb6d6608f7ee10016e5abd7,28,Mężczyzna,2022-06-11_09h15.05.916,task,2021.1.4,Win32,60.08171113,6299f149e92ead563fba08ef,62a440ced4c3d28453a014b9,,,,,,,,,,,,,,,,,,,,,,,,,,,,,,,,,,,,,,,,,,,,,,,,,,,,,,,,,,,,,,,,,,,,,,,,,,,,,,,,,,,,,,,,,,,,,,,,,,,,,
,,,,,,2,0,2,0,1,X V Q F H G B L J M P D K C T S W R N Z,5cb6d6608f7ee10016e5abd7,28,Mężczyzna,2022-06-11_09h15.05.916,task,2021.1.4,Win32,60.08171113,6299f149e92ead563fba08ef,62a440ced4c3d28453a014b9,,,,,,,,,,,,,,,,,,,,,,,,,,,,,,,,,,,,,,,,,,,,,,,,,,,,,,,,,,,,,,,,,,,,,,,,,,,,,,,,,,,,,,,,,,,,,,,,,,,,,
,,,,,,3,0,3,0,1,X V Q F H G B L J M P D K C T S W R N Z,5cb6d6608f7ee10016e5abd7,28,Mężczyzna,2022-06-11_09h15.05.916,task,2021.1.4,Win32,60.08171113,6299f149e92ead563fba08ef,62a440ced4c3d28453a014b9,,,,,,,,,,,,,,,,,,,,,,,,,,,,,,,,,,,,,,,,,,,,,,,,,,,,,,,,,,,,,,,,,,,,,,,,,,,,,,,,,,,,,,,,,,,,,,,,,,,,,
,,,,,,4,0,4,0,1,X V Q F H G B L J M P D K C T S W R N Z,5cb6d6608f7ee10016e5abd7,28,Mężczyzna,2022-06-11_09h15.05.916,task,2021.1.4,Win32,60.08171113,6299f149e92ead563fba08ef,62a440ced4c3d28453a014b9,,,,,,,,,,,,,,,,,,,,,,,,,,,,,,,,,,,,,,,,,,,,,,,,,,,,,,,,,,,,,,,,,,,,,,,,,,,,,,,,,,,,,,,,,,,,,,,,,,,,,
,,,,,,5,0,5,0,1,X V Q F H G B L J M P D K C T S W R N Z,5cb6d6608f7ee10016e5abd7,28,Mężczyzna,2022-06-11_09h15.05.916,task,2021.1.4,Win32,60.08171113,6299f149e92ead563fba08ef,62a440ced4c3d28453a014b9,,,,,,,,,,,,,,,,,,,,,,,,,,,,,,,,,,,,,,,,,,,,,,,,,,,,,,,,,,,,,,,,,,,,,,,,,,,,,,,,,,,,,,,,,,,,,,,,,,,,,
,,,,,,6,0,6,0,1,X V Q F H G B L J M P D K C T S W R N Z,5cb6d6608f7ee10016e5abd7,28,Mężczyzna,2022-06-11_09h15.05.916,task,2021.1.4,Win32,60.08171113,6299f149e92ead563fba08ef,62a440ced4c3d28453a014b9,,,,,,,,,,,,,,,,,,,,,,,,,,,,,,,,,,,,,,,,,,,,,,,,,,,,,,,,,,,,,,,,,,,,,,,,,,,,,,,,,,,,,,,,,,,,,,,,,,,,,
,,,,,,7,0,7,0,1,X V Q F H G B L J M P D K C T S W R N Z,5cb6d6608f7ee10016e5abd7,28,Mężczyzna,2022-06-11_09h15.05.916,task,2021.1.4,Win32,60.08171113,6299f149e92ead563fba08ef,62a440ced4c3d28453a014b9,,,,,,,,,,,,,,,,,,,,,,,,,,,,,,,,,,,,,,,,,,,,,,,,,,,,,,,,,,,,,,,,,,,,,,,,,,,,,,,,,,,,,,,,,,,,,,,,,,,,,
,,,,,,8,0,8,0,1,X V Q F H G B L J M P D K C T S W R N Z,5cb6d6608f7ee10016e5abd7,28,Mężczyzna,2022-06-11_09h15.05.916,task,2021.1.4,Win32,60.08171113,6299f149e92ead563fba08ef,62a440ced4c3d28453a014b9,,,,,,,,,,,,,,,,,,,,,,,,,,,,,,,,,,,,,,,,,,,,,,,,,,,,,,,,,,,,,,,,,,,,,,,,,,,,,,,,,,,,,,,,,,,,,,,,,,,,,
,,,,,,,,,,,,5cb6d6608f7ee10016e5abd7,28,Mężczyzna,2022-06-11_09h15.05.916,task,2021.1.4,Win32,60.08171113,6299f149e92ead563fba08ef,62a440ced4c3d28453a014b9,zmfxxncjj,"[""z"",""m"",""f"",""x"",""x"",""n"",""c"",""j"",""j""]","[1.9998999999999114,2.8865000000000123,3.5867000000000075,4.756699999999967,4.999699999999962,6.003500000000031,7.101699999999994,7.350800000000049,7.499599999999873,12.265599999999893]",1,ZMFXXNCJJ,17,0,17,0,1,,,,,,,,,,,,,,,,,,,,,,,,,,,,,,,,,,,,,,,,,,,,,,,,,,,,,,,,,,,,,,,,,,,,,,,,,,,,,,,,,,,,,,,,,,,
,,,,,,0,0,0,0,1,X V Q F H G B L J M P D K C T S W R N Z,5cb6d6608f7ee10016e5abd7,28,Mężczyzna,2022-06-11_09h15.05.916,task,2021.1.4,Win32,60.08171113,6299f149e92ead563fba08ef,62a440ced4c3d28453a014b9,,,,,,,,,,,,,,,,,,,,,,,,,,,,,,,,,,,,,,,,,,,,,,,,,,,,,,,,,,,,,,,,,,,,,,,,,,,,,,,,,,,,,,,,,,,,,,,,,,,,,
,,,,,,1,0,1,0,1,X V Q F H G B L J M P D K C T S W R N Z,5cb6d6608f7ee10016e5abd7,28,Mężczyzna,2022-06-11_09h15.05.916,task,2021.1.4,Win32,60.08171113,6299f149e92ead563fba08ef,62a440ced4c3d28453a014b9,,,,,,,,,,,,,,,,,,,,,,,,,,,,,,,,,,,,,,,,,,,,,,,,,,,,,,,,,,,,,,,,,,,,,,,,,,,,,,,,,,,,,,,,,,,,,,,,,,,,,
,,,,,,2,0,2,0,1,X V Q F H G B L J M P D K C T S W R N Z,5cb6d6608f7ee10016e5abd7,28,Mężczyzna,2022-06-11_09h15.05.916,task,2021.1.4,Win32,60.08171113,6299f149e92ead563fba08ef,62a440ced4c3d28453a014b9,,,,,,,,,,,,,,,,,,,,,,,,,,,,,,,,,,,,,,,,,,,,,,,,,,,,,,,,,,,,,,,,,,,,,,,,,,,,,,,,,,,,,,,,,,,,,,,,,,,,,
,,,,,,3,0,3,0,1,X V Q F H G B L J M P D K C T S W R N Z,5cb6d6608f7ee10016e5abd7,28,Mężczyzna,2022-06-11_09h15.05.916,task,2021.1.4,Win32,60.08171113,6299f149e92ead563fba08ef,62a440ced4c3d28453a014b9,,,,,,,,,,,,,,,,,,,,,,,,,,,,,,,,,,,,,,,,,,,,,,,,,,,,,,,,,,,,,,,,,,,,,,,,,,,,,,,,,,,,,,,,,,,,,,,,,,,,,
,,,,,,4,0,4,0,1,X V Q F H G B L J M P D K C T S W R N Z,5cb6d6608f7ee10016e5abd7,28,Mężczyzna,2022-06-11_09h15.05.916,task,2021.1.4,Win32,60.08171113,6299f149e92ead563fba08ef,62a440ced4c3d28453a014b9,,,,,,,,,,,,,,,,,,,,,,,,,,,,,,,,,,,,,,,,,,,,,,,,,,,,,,,,,,,,,,,,,,,,,,,,,,,,,,,,,,,,,,,,,,,,,,,,,,,,,
,,,,,,5,0,5,0,1,X V Q F H G B L J M P D K C T S W R N Z,5cb6d6608f7ee10016e5abd7,28,Mężczyzna,2022-06-11_09h15.05.916,task,2021.1.4,Win32,60.08171113,6299f149e92ead563fba08ef,62a440ced4c3d28453a014b9,,,,,,,,,,,,,,,,,,,,,,,,,,,,,,,,,,,,,,,,,,,,,,,,,,,,,,,,,,,,,,,,,,,,,,,,,,,,,,,,,,,,,,,,,,,,,,,,,,,,,
,,,,,,6,0,6,0,1,X V Q F H G B L J M P D K C T S W R N Z,5cb6d6608f7ee10016e5abd7,28,Mężczyzna,2022-06-11_09h15.05.916,task,2021.1.4,Win32,60.08171113,6299f149e92ead563fba08ef,62a440ced4c3d28453a014b9,,,,,,,,,,,,,,,,,,,,,,,,,,,,,,,,,,,,,,,,,,,,,,,,,,,,,,,,,,,,,,,,,,,,,,,,,,,,,,,,,,,,,,,,,,,,,,,,,,,,,
,,,,,,7,0,7,0,1,X V Q F H G B L J M P D K C T S W R N Z,5cb6d6608f7ee10016e5abd7,28,Mężczyzna,2022-06-11_09h15.05.916,task,2021.1.4,Win32,60.08171113,6299f149e92ead563fba08ef,62a440ced4c3d28453a014b9,,,,,,,,,,,,,,,,,,,,,,,,,,,,,,,,,,,,,,,,,,,,,,,,,,,,,,,,,,,,,,,,,,,,,,,,,,,,,,,,,,,,,,,,,,,,,,,,,,,,,
,,,,,,8,0,8,0,1,X V Q F H G B L J M P D K C T S W R N Z,5cb6d6608f7ee10016e5abd7,28,Mężczyzna,2022-06-11_09h15.05.916,task,2021.1.4,Win32,60.08171113,6299f149e92ead563fba08ef,62a440ced4c3d28453a014b9,,,,,,,,,,,,,,,,,,,,,,,,,,,,,,,,,,,,,,,,,,,,,,,,,,,,,,,,,,,,,,,,,,,,,,,,,,,,,,,,,,,,,,,,,,,,,,,,,,,,,
,,,,,,,,,,,,5cb6d6608f7ee10016e5abd7,28,Mężczyzna,2022-06-11_09h15.05.916,task,2021.1.4,Win32,60.08171113,6299f149e92ead563fba08ef,62a440ced4c3d28453a014b9,sqqhntmsw,"[""s"",""q"",""q"",""h"",""n"",""t"",""m"",""s"",""w""]","[2.799000000000035,3.9821999999999775,4.234699999999975,5.937000000000012,6.502800000000093,7.304600000000107,7.817000000000007,8.487899999999911,8.799300000000073,9.274000000000001]",1,SQQHNTMSW,18,0,18,0,1,,,,,,,,,,,,,,,,,,,,,,,,,,,,,,,,,,,,,,,,,,,,,,,,,,,,,,,,,,,,,,,,,,,,,,,,,,,,,,,,,,,,,,,,,,,
,,,,,,0,0,0,0,1,X V Q F H G B L J M P D K C T S W R N Z,5cb6d6608f7ee10016e5abd7,28,Mężczyzna,2022-06-11_09h15.05.916,task,2021.1.4,Win32,60.08171113,6299f149e92ead563fba08ef,62a440ced4c3d28453a014b9,,,,,,,,,,,,,,,,,,,,,,,,,,,,,,,,,,,,,,,,,,,,,,,,,,,,,,,,,,,,,,,,,,,,,,,,,,,,,,,,,,,,,,,,,,,,,,,,,,,,,
,,,,,,1,0,1,0,1,X V Q F H G B L J M P D K C T S W R N Z,5cb6d6608f7ee10016e5abd7,28,Mężczyzna,2022-06-11_09h15.05.916,task,2021.1.4,Win32,60.08171113,6299f149e92ead563fba08ef,62a440ced4c3d28453a014b9,,,,,,,,,,,,,,,,,,,,,,,,,,,,,,,,,,,,,,,,,,,,,,,,,,,,,,,,,,,,,,,,,,,,,,,,,,,,,,,,,,,,,,,,,,,,,,,,,,,,,
,,,,,,2,0,2,0,1,X V Q F H G B L J M P D K C T S W R N Z,5cb6d6608f7ee10016e5abd7,28,Mężczyzna,2022-06-11_09h15.05.916,task,2021.1.4,Win32,60.08171113,6299f149e92ead563fba08ef,62a440ced4c3d28453a014b9,,,,,,,,,,,,,,,,,,,,,,,,,,,,,,,,,,,,,,,,,,,,,,,,,,,,,,,,,,,,,,,,,,,,,,,,,,,,,,,,,,,,,,,,,,,,,,,,,,,,,
,,,,,,3,0,3,0,1,X V Q F H G B L J M P D K C T S W R N Z,5cb6d6608f7ee10016e5abd7,28,Mężczyzna,2022-06-11_09h15.05.916,task,2021.1.4,Win32,60.08171113,6299f149e92ead563fba08ef,62a440ced4c3d28453a014b9,,,,,,,,,,,,,,,,,,,,,,,,,,,,,,,,,,,,,,,,,,,,,,,,,,,,,,,,,,,,,,,,,,,,,,,,,,,,,,,,,,,,,,,,,,,,,,,,,,,,,
,,,,,,4,0,4,0,1,X V Q F H G B L J M P D K C T S W R N Z,5cb6d6608f7ee10016e5abd7,28,Mężczyzna,2022-06-11_09h15.05.916,task,2021.1.4,Win32,60.08171113,6299f149e92ead563fba08ef,62a440ced4c3d28453a014b9,,,,,,,,,,,,,,,,,,,,,,,,,,,,,,,,,,,,,,,,,,,,,,,,,,,,,,,,,,,,,,,,,,,,,,,,,,,,,,,,,,,,,,,,,,,,,,,,,,,,,
,,,,,,5,0,5,0,1,X V Q F H G B L J M P D K C T S W R N Z,5cb6d6608f7ee10016e5abd7,28,Mężczyzna,2022-06-11_09h15.05.916,task,2021.1.4,Win32,60.08171113,6299f149e92ead563fba08ef,62a440ced4c3d28453a014b9,,,,,,,,,,,,,,,,,,,,,,,,,,,,,,,,,,,,,,,,,,,,,,,,,,,,,,,,,,,,,,,,,,,,,,,,,,,,,,,,,,,,,,,,,,,,,,,,,,,,,
,,,,,,6,0,6,0,1,X V Q F H G B L J M P D K C T S W R N Z,5cb6d6608f7ee10016e5abd7,28,Mężczyzna,2022-06-11_09h15.05.916,task,2021.1.4,Win32,60.08171113,6299f149e92ead563fba08ef,62a440ced4c3d28453a014b9,,,,,,,,,,,,,,,,,,,,,,,,,,,,,,,,,,,,,,,,,,,,,,,,,,,,,,,,,,,,,,,,,,,,,,,,,,,,,,,,,,,,,,,,,,,,,,,,,,,,,
,,,,,,7,0,7,0,1,X V Q F H G B L J M P D K C T S W R N Z,5cb6d6608f7ee10016e5abd7,28,Mężczyzna,2022-06-11_09h15.05.916,task,2021.1.4,Win32,60.08171113,6299f149e92ead563fba08ef,62a440ced4c3d28453a014b9,,,,,,,,,,,,,,,,,,,,,,,,,,,,,,,,,,,,,,,,,,,,,,,,,,,,,,,,,,,,,,,,,,,,,,,,,,,,,,,,,,,,,,,,,,,,,,,,,,,,,
,,,,,,8,0,8,0,1,X V Q F H G B L J M P D K C T S W R N Z,5cb6d6608f7ee10016e5abd7,28,Mężczyzna,2022-06-11_09h15.05.916,task,2021.1.4,Win32,60.08171113,6299f149e92ead563fba08ef,62a440ced4c3d28453a014b9,,,,,,,,,,,,,,,,,,,,,,,,,,,,,,,,,,,,,,,,,,,,,,,,,,,,,,,,,,,,,,,,,,,,,,,,,,,,,,,,,,,,,,,,,,,,,,,,,,,,,
,,,,,,9,0,9,0,1,X V Q F H G B L J M P D K C T S W R N Z,5cb6d6608f7ee10016e5abd7,28,Mężczyzna,2022-06-11_09h15.05.916,task,2021.1.4,Win32,60.08171113,6299f149e92ead563fba08ef,62a440ced4c3d28453a014b9,,,,,,,,,,,,,,,,,,,,,,,,,,,,,,,,,,,,,,,,,,,,,,,,,,,,,,,,,,,,,,,,,,,,,,,,,,,,,,,,,,,,,,,,,,,,,,,,,,,,,
,,,,,,,,,,,,5cb6d6608f7ee10016e5abd7,28,Mężczyzna,2022-06-11_09h15.05.916,task,2021.1.4,Win32,60.08171113,6299f149e92ead563fba08ef,62a440ced4c3d28453a014b9,tdqltjjlzx,"[""t"",""d"",""q"",""l"",""t"",""j"",""j"",""l"",""z"",""x""]","[3.332800000000077,4.565200000000175,5.38490000000013,6.085100000000125,7.153999999999996,7.720100000000116,7.9019000000001824,8.836999999999989,9.623200000000224,11.381700000000194,12.514499999999998]",1,TDQLTJJLZX,19,0,19,0,1,,,,,,,,,,,,,,,,,,,,,,,,,,,,,,,,,,,,,,,,,,,,,,,,,,,,,,,,,,,,,,,,,,,,,,,,,,,,,,,,,,,,,,,,,,,
,,,,,,0,0,0,0,1,X V Q F H G B L J M P D K C T S W R N Z,5cb6d6608f7ee10016e5abd7,28,Mężczyzna,2022-06-11_09h15.05.916,task,2021.1.4,Win32,60.08171113,6299f149e92ead563fba08ef,62a440ced4c3d28453a014b9,,,,,,,,,,,,,,,,,,,,,,,,,,,,,,,,,,,,,,,,,,,,,,,,,,,,,,,,,,,,,,,,,,,,,,,,,,,,,,,,,,,,,,,,,,,,,,,,,,,,,
,,,,,,1,0,1,0,1,X V Q F H G B L J M P D K C T S W R N Z,5cb6d6608f7ee10016e5abd7,28,Mężczyzna,2022-06-11_09h15.05.916,task,2021.1.4,Win32,60.08171113,6299f149e92ead563fba08ef,62a440ced4c3d28453a014b9,,,,,,,,,,,,,,,,,,,,,,,,,,,,,,,,,,,,,,,,,,,,,,,,,,,,,,,,,,,,,,,,,,,,,,,,,,,,,,,,,,,,,,,,,,,,,,,,,,,,,
,,,,,,2,0,2,0,1,X V Q F H G B L J M P D K C T S W R N Z,5cb6d6608f7ee10016e5abd7,28,Mężczyzna,2022-06-11_09h15.05.916,task,2021.1.4,Win32,60.08171113,6299f149e92ead563fba08ef,62a440ced4c3d28453a014b9,,,,,,,,,,,,,,,,,,,,,,,,,,,,,,,,,,,,,,,,,,,,,,,,,,,,,,,,,,,,,,,,,,,,,,,,,,,,,,,,,,,,,,,,,,,,,,,,,,,,,
,,,,,,3,0,3,0,1,X V Q F H G B L J M P D K C T S W R N Z,5cb6d6608f7ee10016e5abd7,28,Mężczyzna,2022-06-11_09h15.05.916,task,2021.1.4,Win32,60.08171113,6299f149e92ead563fba08ef,62a440ced4c3d28453a014b9,,,,,,,,,,,,,,,,,,,,,,,,,,,,,,,,,,,,,,,,,,,,,,,,,,,,,,,,,,,,,,,,,,,,,,,,,,,,,,,,,,,,,,,,,,,,,,,,,,,,,
,,,,,,4,0,4,0,1,X V Q F H G B L J M P D K C T S W R N Z,5cb6d6608f7ee10016e5abd7,28,Mężczyzna,2022-06-11_09h15.05.916,task,2021.1.4,Win32,60.08171113,6299f149e92ead563fba08ef,62a440ced4c3d28453a014b9,,,,,,,,,,,,,,,,,,,,,,,,,,,,,,,,,,,,,,,,,,,,,,,,,,,,,,,,,,,,,,,,,,,,,,,,,,,,,,,,,,,,,,,,,,,,,,,,,,,,,
,,,,,,5,0,5,0,1,X V Q F H G B L J M P D K C T S W R N Z,5cb6d6608f7ee10016e5abd7,28,Mężczyzna,2022-06-11_09h15.05.916,task,2021.1.4,Win32,60.08171113,6299f149e92ead563fba08ef,62a440ced4c3d28453a014b9,,,,,,,,,,,,,,,,,,,,,,,,,,,,,,,,,,,,,,,,,,,,,,,,,,,,,,,,,,,,,,,,,,,,,,,,,,,,,,,,,,,,,,,,,,,,,,,,,,,,,
,,,,,,6,0,6,0,1,X V Q F H G B L J M P D K C T S W R N Z,5cb6d6608f7ee10016e5abd7,28,Mężczyzna,2022-06-11_09h15.05.916,task,2021.1.4,Win32,60.08171113,6299f149e92ead563fba08ef,62a440ced4c3d28453a014b9,,,,,,,,,,,,,,,,,,,,,,,,,,,,,,,,,,,,,,,,,,,,,,,,,,,,,,,,,,,,,,,,,,,,,,,,,,,,,,,,,,,,,,,,,,,,,,,,,,,,,
,,,,,,7,0,7,0,1,X V Q F H G B L J M P D K C T S W R N Z,5cb6d6608f7ee10016e5abd7,28,Mężczyzna,2022-06-11_09h15.05.916,task,2021.1.4,Win32,60.08171113,6299f149e92ead563fba08ef,62a440ced4c3d28453a014b9,,,,,,,,,,,,,,,,,,,,,,,,,,,,,,,,,,,,,,,,,,,,,,,,,,,,,,,,,,,,,,,,,,,,,,,,,,,,,,,,,,,,,,,,,,,,,,,,,,,,,
,,,,,,8,0,8,0,1,X V Q F H G B L J M P D K C T S W R N Z,5cb6d6608f7ee10016e5abd7,28,Mężczyzna,2022-06-11_09h15.05.916,task,2021.1.4,Win32,60.08171113,6299f149e92ead563fba08ef,62a440ced4c3d28453a014b9,,,,,,,,,,,,,,,,,,,,,,,,,,,,,,,,,,,,,,,,,,,,,,,,,,,,,,,,,,,,,,,,,,,,,,,,,,,,,,,,,,,,,,,,,,,,,,,,,,,,,
,,,,,,9,0,9,0,1,X V Q F H G B L J M P D K C T S W R N Z,5cb6d6608f7ee10016e5abd7,28,Mężczyzna,2022-06-11_09h15.05.916,task,2021.1.4,Win32,60.08171113,6299f149e92ead563fba08ef,62a440ced4c3d28453a014b9,,,,,,,,,,,,,,,,,,,,,,,,,,,,,,,,,,,,,,,,,,,,,,,,,,,,,,,,,,,,,,,,,,,,,,,,,,,,,,,,,,,,,,,,,,,,,,,,,,,,,
,,,,,,,,,,,,5cb6d6608f7ee10016e5abd7,28,Mężczyzna,2022-06-11_09h15.05.916,task,2021.1.4,Win32,60.08171113,6299f149e92ead563fba08ef,62a440ced4c3d28453a014b9,ghfcpjkqcw,"[""g"",""h"",""f"",""c"",""p"",""j"",""k"",""q"",""c"",""w""]","[2.7398999999999205,3.415800000000047,5.949199999999962,6.849099999999851,7.572599999999852,7.936599999999885,9.202499999999986,9.631899999999916,10.982699999999966,11.517599999999845,12.524699999999939]",1,GHFCPJKQCW,20,0,20,0,1,,,,,,,,,,,,,,,,,,,,,,,,,,,,,,,,,,,,,,,,,,,,,,,,,,,,,,,,,,,,,,,,,,,,,,,,,,,,,,,,,,,,,,,,,,,
,,,,,,0,0,0,0,1,X V Q F H G B L J M P D K C T S W R N Z,5cb6d6608f7ee10016e5abd7,28,Mężczyzna,2022-06-11_09h15.05.916,task,2021.1.4,Win32,60.08171113,6299f149e92ead563fba08ef,62a440ced4c3d28453a014b9,,,,,,,,,,,,,,,,,,,,,,,,,,,,,,,,,,,,,,,,,,,,,,,,,,,,,,,,,,,,,,,,,,,,,,,,,,,,,,,,,,,,,,,,,,,,,,,,,,,,,
,,,,,,1,0,1,0,1,X V Q F H G B L J M P D K C T S W R N Z,5cb6d6608f7ee10016e5abd7,28,Mężczyzna,2022-06-11_09h15.05.916,task,2021.1.4,Win32,60.08171113,6299f149e92ead563fba08ef,62a440ced4c3d28453a014b9,,,,,,,,,,,,,,,,,,,,,,,,,,,,,,,,,,,,,,,,,,,,,,,,,,,,,,,,,,,,,,,,,,,,,,,,,,,,,,,,,,,,,,,,,,,,,,,,,,,,,
,,,,,,2,0,2,0,1,X V Q F H G B L J M P D K C T S W R N Z,5cb6d6608f7ee10016e5abd7,28,Mężczyzna,2022-06-11_09h15.05.916,task,2021.1.4,Win32,60.08171113,6299f149e92ead563fba08ef,62a440ced4c3d28453a014b9,,,,,,,,,,,,,,,,,,,,,,,,,,,,,,,,,,,,,,,,,,,,,,,,,,,,,,,,,,,,,,,,,,,,,,,,,,,,,,,,,,,,,,,,,,,,,,,,,,,,,
,,,,,,3,0,3,0,1,X V Q F H G B L J M P D K C T S W R N Z,5cb6d6608f7ee10016e5abd7,28,Mężczyzna,2022-06-11_09h15.05.916,task,2021.1.4,Win32,60.08171113,6299f149e92ead563fba08ef,62a440ced4c3d28453a014b9,,,,,,,,,,,,,,,,,,,,,,,,,,,,,,,,,,,,,,,,,,,,,,,,,,,,,,,,,,,,,,,,,,,,,,,,,,,,,,,,,,,,,,,,,,,,,,,,,,,,,
,,,,,,4,0,4,0,1,X V Q F H G B L J M P D K C T S W R N Z,5cb6d6608f7ee10016e5abd7,28,Mężczyzna,2022-06-11_09h15.05.916,task,2021.1.4,Win32,60.08171113,6299f149e92ead563fba08ef,62a440ced4c3d28453a014b9,,,,,,,,,,,,,,,,,,,,,,,,,,,,,,,,,,,,,,,,,,,,,,,,,,,,,,,,,,,,,,,,,,,,,,,,,,,,,,,,,,,,,,,,,,,,,,,,,,,,,
,,,,,,5,0,5,0,1,X V Q F H G B L J M P D K C T S W R N Z,5cb6d6608f7ee10016e5abd7,28,Mężczyzna,2022-06-11_09h15.05.916,task,2021.1.4,Win32,60.08171113,6299f149e92ead563fba08ef,62a440ced4c3d28453a014b9,,,,,,,,,,,,,,,,,,,,,,,,,,,,,,,,,,,,,,,,,,,,,,,,,,,,,,,,,,,,,,,,,,,,,,,,,,,,,,,,,,,,,,,,,,,,,,,,,,,,,
,,,,,,6,0,6,0,1,X V Q F H G B L J M P D K C T S W R N Z,5cb6d6608f7ee10016e5abd7,28,Mężczyzna,2022-06-11_09h15.05.916,task,2021.1.4,Win32,60.08171113,6299f149e92ead563fba08ef,62a440ced4c3d28453a014b9,,,,,,,,,,,,,,,,,,,,,,,,,,,,,,,,,,,,,,,,,,,,,,,,,,,,,,,,,,,,,,,,,,,,,,,,,,,,,,,,,,,,,,,,,,,,,,,,,,,,,
,,,,,,7,0,7,0,1,X V Q F H G B L J M P D K C T S W R N Z,5cb6d6608f7ee10016e5abd7,28,Mężczyzna,2022-06-11_09h15.05.916,task,2021.1.4,Win32,60.08171113,6299f149e92ead563fba08ef,62a440ced4c3d28453a014b9,,,,,,,,,,,,,,,,,,,,,,,,,,,,,,,,,,,,,,,,,,,,,,,,,,,,,,,,,,,,,,,,,,,,,,,,,,,,,,,,,,,,,,,,,,,,,,,,,,,,,
,,,,,,8,0,8,0,1,X V Q F H G B L J M P D K C T S W R N Z,5cb6d6608f7ee10016e5abd7,28,Mężczyzna,2022-06-11_09h15.05.916,task,2021.1.4,Win32,60.08171113,6299f149e92ead563fba08ef,62a440ced4c3d28453a014b9,,,,,,,,,,,,,,,,,,,,,,,,,,,,,,,,,,,,,,,,,,,,,,,,,,,,,,,,,,,,,,,,,,,,,,,,,,,,,,,,,,,,,,,,,,,,,,,,,,,,,
,,,,,,9,0,9,0,1,X V Q F H G B L J M P D K C T S W R N Z,5cb6d6608f7ee10016e5abd7,28,Mężczyzna,2022-06-11_09h15.05.916,task,2021.1.4,Win32,60.08171113,6299f149e92ead563fba08ef,62a440ced4c3d28453a014b9,,,,,,,,,,,,,,,,,,,,,,,,,,,,,,,,,,,,,,,,,,,,,,,,,,,,,,,,,,,,,,,,,,,,,,,,,,,,,,,,,,,,,,,,,,,,,,,,,,,,,
,,,,,,10,0,10,0,1,X V Q F H G B L J M P D K C T S W R N Z,5cb6d6608f7ee10016e5abd7,28,Mężczyzna,2022-06-11_09h15.05.916,task,2021.1.4,Win32,60.08171113,6299f149e92ead563fba08ef,62a440ced4c3d28453a014b9,,,,,,,,,,,,,,,,,,,,,,,,,,,,,,,,,,,,,,,,,,,,,,,,,,,,,,,,,,,,,,,,,,,,,,,,,,,,,,,,,,,,,,,,,,,,,,,,,,,,,
,,,,,,,,,,,,5cb6d6608f7ee10016e5abd7,28,Mężczyzna,2022-06-11_09h15.05.916,task,2021.1.4,Win32,60.08171113,6299f149e92ead563fba08ef,62a440ced4c3d28453a014b9,cnjzvpngkwx,"[""c"",""n"",""j"",""z"",""v"",""p"",""n"",""g"",""k"",""w"",""x""]","[3.6163000000000807,4.906199999999956,5.688099999999906,6.426500000000033,7.706000000000017,8.958300000000065,11.231399999999951,12.88919999999996,13.623000000000047,14.197500000000048,15.191099999999892,16.01439999999991]",1,CNJZVPNGKWX,21,0,21,0,1,,,,,,,,,,,,,,,,,,,,,,,,,,,,,,,,,,,,,,,,,,,,,,,,,,,,,,,,,,,,,,,,,,,,,,,,,,,,,,,,,,,,,,,,,,,
,,,,,,0,0,0,0,1,X V Q F H G B L J M P D K C T S W R N Z,5cb6d6608f7ee10016e5abd7,28,Mężczyzna,2022-06-11_09h15.05.916,task,2021.1.4,Win32,60.08171113,6299f149e92ead563fba08ef,62a440ced4c3d28453a014b9,,,,,,,,,,,,,,,,,,,,,,,,,,,,,,,,,,,,,,,,,,,,,,,,,,,,,,,,,,,,,,,,,,,,,,,,,,,,,,,,,,,,,,,,,,,,,,,,,,,,,
,,,,,,1,0,1,0,1,X V Q F H G B L J M P D K C T S W R N Z,5cb6d6608f7ee10016e5abd7,28,Mężczyzna,2022-06-11_09h15.05.916,task,2021.1.4,Win32,60.08171113,6299f149e92ead563fba08ef,62a440ced4c3d28453a014b9,,,,,,,,,,,,,,,,,,,,,,,,,,,,,,,,,,,,,,,,,,,,,,,,,,,,,,,,,,,,,,,,,,,,,,,,,,,,,,,,,,,,,,,,,,,,,,,,,,,,,
,,,,,,2,0,2,0,1,X V Q F H G B L J M P D K C T S W R N Z,5cb6d6608f7ee10016e5abd7,28,Mężczyzna,2022-06-11_09h15.05.916,task,2021.1.4,Win32,60.08171113,6299f149e92ead563fba08ef,62a440ced4c3d28453a014b9,,,,,,,,,,,,,,,,,,,,,,,,,,,,,,,,,,,,,,,,,,,,,,,,,,,,,,,,,,,,,,,,,,,,,,,,,,,,,,,,,,,,,,,,,,,,,,,,,,,,,
,,,,,,3,0,3,0,1,X V Q F H G B L J M P D K C T S W R N Z,5cb6d6608f7ee10016e5abd7,28,Mężczyzna,2022-06-11_09h15.05.916,task,2021.1.4,Win32,60.08171113,6299f149e92ead563fba08ef,62a440ced4c3d28453a014b9,,,,,,,,,,,,,,,,,,,,,,,,,,,,,,,,,,,,,,,,,,,,,,,,,,,,,,,,,,,,,,,,,,,,,,,,,,,,,,,,,,,,,,,,,,,,,,,,,,,,,
,,,,,,4,0,4,0,1,X V Q F H G B L J M P D K C T S W R N Z,5cb6d6608f7ee10016e5abd7,28,Mężczyzna,2022-06-11_09h15.05.916,task,2021.1.4,Win32,60.08171113,6299f149e92ead563fba08ef,62a440ced4c3d28453a014b9,,,,,,,,,,,,,,,,,,,,,,,,,,,,,,,,,,,,,,,,,,,,,,,,,,,,,,,,,,,,,,,,,,,,,,,,,,,,,,,,,,,,,,,,,,,,,,,,,,,,,
,,,,,,5,0,5,0,1,X V Q F H G B L J M P D K C T S W R N Z,5cb6d6608f7ee10016e5abd7,28,Mężczyzna,2022-06-11_09h15.05.916,task,2021.1.4,Win32,60.08171113,6299f149e92ead563fba08ef,62a440ced4c3d28453a014b9,,,,,,,,,,,,,,,,,,,,,,,,,,,,,,,,,,,,,,,,,,,,,,,,,,,,,,,,,,,,,,,,,,,,,,,,,,,,,,,,,,,,,,,,,,,,,,,,,,,,,
,,,,,,6,0,6,0,1,X V Q F H G B L J M P D K C T S W R N Z,5cb6d6608f7ee10016e5abd7,28,Mężczyzna,2022-06-11_09h15.05.916,task,2021.1.4,Win32,60.08171113,6299f149e92ead563fba08ef,62a440ced4c3d28453a014b9,,,,,,,,,,,,,,,,,,,,,,,,,,,,,,,,,,,,,,,,,,,,,,,,,,,,,,,,,,,,,,,,,,,,,,,,,,,,,,,,,,,,,,,,,,,,,,,,,,,,,
,,,,,,7,0,7,0,1,X V Q F H G B L J M P D K C T S W R N Z,5cb6d6608f7ee10016e5abd7,28,Mężczyzna,2022-06-11_09h15.05.916,task,2021.1.4,Win32,60.08171113,6299f149e92ead563fba08ef,62a440ced4c3d28453a014b9,,,,,,,,,,,,,,,,,,,,,,,,,,,,,,,,,,,,,,,,,,,,,,,,,,,,,,,,,,,,,,,,,,,,,,,,,,,,,,,,,,,,,,,,,,,,,,,,,,,,,
,,,,,,8,0,8,0,1,X V Q F H G B L J M P D K C T S W R N Z,5cb6d6608f7ee10016e5abd7,28,Mężczyzna,2022-06-11_09h15.05.916,task,2021.1.4,Win32,60.08171113,6299f149e92ead563fba08ef,62a440ced4c3d28453a014b9,,,,,,,,,,,,,,,,,,,,,,,,,,,,,,,,,,,,,,,,,,,,,,,,,,,,,,,,,,,,,,,,,,,,,,,,,,,,,,,,,,,,,,,,,,,,,,,,,,,,,
,,,,,,9,0,9,0,1,X V Q F H G B L J M P D K C T S W R N Z,5cb6d6608f7ee10016e5abd7,28,Mężczyzna,2022-06-11_09h15.05.916,task,2021.1.4,Win32,60.08171113,6299f149e92ead563fba08ef,62a440ced4c3d28453a014b9,,,,,,,,,,,,,,,,,,,,,,,,,,,,,,,,,,,,,,,,,,,,,,,,,,,,,,,,,,,,,,,,,,,,,,,,,,,,,,,,,,,,,,,,,,,,,,,,,,,,,
,,,,,,10,0,10,0,1,X V Q F H G B L J M P D K C T S W R N Z,5cb6d6608f7ee10016e5abd7,28,Mężczyzna,2022-06-11_09h15.05.916,task,2021.1.4,Win32,60.08171113,6299f149e92ead563fba08ef,62a440ced4c3d28453a014b9,,,,,,,,,,,,,,,,,,,,,,,,,,,,,,,,,,,,,,,,,,,,,,,,,,,,,,,,,,,,,,,,,,,,,,,,,,,,,,,,,,,,,,,,,,,,,,,,,,,,,
,,,,,,,,,,,,5cb6d6608f7ee10016e5abd7,28,Mężczyzna,2022-06-11_09h15.05.916,task,2021.1.4,Win32,60.08171113,6299f149e92ead563fba08ef,62a440ced4c3d28453a014b9,rdwnvnqvllr,"[""r"",""d"",""w"",""n"",""v"",""n"",""q"",""v"",""l"",""l"",""r""]","[4.058599999999842,4.850299999999777,5.454299999999819,6.299199999999928,7.573499999999967,8.422199999999918,8.732099999999832,9.68219999999991,10.354199999999935,10.548599999999851,11.006399999999871,12.13169999999991]",1,RDWNVNQVLLR,22,0,22,0,1,,,,,,,,,,,,,,,,,,,,,,,,,,,,,,,,,,,,,,,,,,,,,,,,,,,,,,,,,,,,,,,,,,,,,,,,,,,,,,,,,,,,,,,,,,,
,,,,,,0,0,0,0,1,X V Q F H G B L J M P D K C T S W R N Z,5cb6d6608f7ee10016e5abd7,28,Mężczyzna,2022-06-11_09h15.05.916,task,2021.1.4,Win32,60.08171113,6299f149e92ead563fba08ef,62a440ced4c3d28453a014b9,,,,,,,,,,,,,,,,,,,,,,,,,,,,,,,,,,,,,,,,,,,,,,,,,,,,,,,,,,,,,,,,,,,,,,,,,,,,,,,,,,,,,,,,,,,,,,,,,,,,,
,,,,,,1,0,1,0,1,X V Q F H G B L J M P D K C T S W R N Z,5cb6d6608f7ee10016e5abd7,28,Mężczyzna,2022-06-11_09h15.05.916,task,2021.1.4,Win32,60.08171113,6299f149e92ead563fba08ef,62a440ced4c3d28453a014b9,,,,,,,,,,,,,,,,,,,,,,,,,,,,,,,,,,,,,,,,,,,,,,,,,,,,,,,,,,,,,,,,,,,,,,,,,,,,,,,,,,,,,,,,,,,,,,,,,,,,,
,,,,,,2,0,2,0,1,X V Q F H G B L J M P D K C T S W R N Z,5cb6d6608f7ee10016e5abd7,28,Mężczyzna,2022-06-11_09h15.05.916,task,2021.1.4,Win32,60.08171113,6299f149e92ead563fba08ef,62a440ced4c3d28453a014b9,,,,,,,,,,,,,,,,,,,,,,,,,,,,,,,,,,,,,,,,,,,,,,,,,,,,,,,,,,,,,,,,,,,,,,,,,,,,,,,,,,,,,,,,,,,,,,,,,,,,,
,,,,,,3,0,3,0,1,X V Q F H G B L J M P D K C T S W R N Z,5cb6d6608f7ee10016e5abd7,28,Mężczyzna,2022-06-11_09h15.05.916,task,2021.1.4,Win32,60.08171113,6299f149e92ead563fba08ef,62a440ced4c3d28453a014b9,,,,,,,,,,,,,,,,,,,,,,,,,,,,,,,,,,,,,,,,,,,,,,,,,,,,,,,,,,,,,,,,,,,,,,,,,,,,,,,,,,,,,,,,,,,,,,,,,,,,,
,,,,,,4,0,4,0,1,X V Q F H G B L J M P D K C T S W R N Z,5cb6d6608f7ee10016e5abd7,28,Mężczyzna,2022-06-11_09h15.05.916,task,2021.1.4,Win32,60.08171113,6299f149e92ead563fba08ef,62a440ced4c3d28453a014b9,,,,,,,,,,,,,,,,,,,,,,,,,,,,,,,,,,,,,,,,,,,,,,,,,,,,,,,,,,,,,,,,,,,,,,,,,,,,,,,,,,,,,,,,,,,,,,,,,,,,,
,,,,,,5,0,5,0,1,X V Q F H G B L J M P D K C T S W R N Z,5cb6d6608f7ee10016e5abd7,28,Mężczyzna,2022-06-11_09h15.05.916,task,2021.1.4,Win32,60.08171113,6299f149e92ead563fba08ef,62a440ced4c3d28453a014b9,,,,,,,,,,,,,,,,,,,,,,,,,,,,,,,,,,,,,,,,,,,,,,,,,,,,,,,,,,,,,,,,,,,,,,,,,,,,,,,,,,,,,,,,,,,,,,,,,,,,,
,,,,,,6,0,6,0,1,X V Q F H G B L J M P D K C T S W R N Z,5cb6d6608f7ee10016e5abd7,28,Mężczyzna,2022-06-11_09h15.05.916,task,2021.1.4,Win32,60.08171113,6299f149e92ead563fba08ef,62a440ced4c3d28453a014b9,,,,,,,,,,,,,,,,,,,,,,,,,,,,,,,,,,,,,,,,,,,,,,,,,,,,,,,,,,,,,,,,,,,,,,,,,,,,,,,,,,,,,,,,,,,,,,,,,,,,,
,,,,,,7,0,7,0,1,X V Q F H G B L J M P D K C T S W R N Z,5cb6d6608f7ee10016e5abd7,28,Mężczyzna,2022-06-11_09h15.05.916,task,2021.1.4,Win32,60.08171113,6299f149e92ead563fba08ef,62a440ced4c3d28453a014b9,,,,,,,,,,,,,,,,,,,,,,,,,,,,,,,,,,,,,,,,,,,,,,,,,,,,,,,,,,,,,,,,,,,,,,,,,,,,,,,,,,,,,,,,,,,,,,,,,,,,,
,,,,,,8,0,8,0,1,X V Q F H G B L J M P D K C T S W R N Z,5cb6d6608f7ee10016e5abd7,28,Mężczyzna,2022-06-11_09h15.05.916,task,2021.1.4,Win32,60.08171113,6299f149e92ead563fba08ef,62a440ced4c3d28453a014b9,,,,,,,,,,,,,,,,,,,,,,,,,,,,,,,,,,,,,,,,,,,,,,,,,,,,,,,,,,,,,,,,,,,,,,,,,,,,,,,,,,,,,,,,,,,,,,,,,,,,,
,,,,,,9,0,9,0,1,X V Q F H G B L J M P D K C T S W R N Z,5cb6d6608f7ee10016e5abd7,28,Mężczyzna,2022-06-11_09h15.05.916,task,2021.1.4,Win32,60.08171113,6299f149e92ead563fba08ef,62a440ced4c3d28453a014b9,,,,,,,,,,,,,,,,,,,,,,,,,,,,,,,,,,,,,,,,,,,,,,,,,,,,,,,,,,,,,,,,,,,,,,,,,,,,,,,,,,,,,,,,,,,,,,,,,,,,,
,,,,,,10,0,10,0,1,X V Q F H G B L J M P D K C T S W R N Z,5cb6d6608f7ee10016e5abd7,28,Mężczyzna,2022-06-11_09h15.05.916,task,2021.1.4,Win32,60.08171113,6299f149e92ead563fba08ef,62a440ced4c3d28453a014b9,,,,,,,,,,,,,,,,,,,,,,,,,,,,,,,,,,,,,,,,,,,,,,,,,,,,,,,,,,,,,,,,,,,,,,,,,,,,,,,,,,,,,,,,,,,,,,,,,,,,,
,,,,,,11,0,11,0,1,X V Q F H G B L J M P D K C T S W R N Z,5cb6d6608f7ee10016e5abd7,28,Mężczyzna,2022-06-11_09h15.05.916,task,2021.1.4,Win32,60.08171113,6299f149e92ead563fba08ef,62a440ced4c3d28453a014b9,,,,,,,,,,,,,,,,,,,,,,,,,,,,,,,,,,,,,,,,,,,,,,,,,,,,,,,,,,,,,,,,,,,,,,,,,,,,,,,,,,,,,,,,,,,,,,,,,,,,,
,,,,,,,,,,,,5cb6d6608f7ee10016e5abd7,28,Mężczyzna,2022-06-11_09h15.05.916,task,2021.1.4,Win32,60.08171113,6299f149e92ead563fba08ef,62a440ced4c3d28453a014b9,vrjdfprffmfl,"[""v"",""r"",""j"",""d"",""f"",""p"",""r"",""f"",""f"",""m"",""f"",""l""]","[2.990699999999947,4.8834999999999695,6.005599999999845,7.6358000000000175,8.234699999999975,9.145899999999926,9.471499999999992,10.747899999999902,10.962699999999927,11.600599999999872,11.903099999999881,13.182699999999954,19.693599999999833]",1,VRJDFPRFFMFL,23,0,23,0,1,,,,,,,,,,,,,,,,,,,,,,,,,,,,,,,,,,,,,,,,,,,,,,,,,,,,,,,,,,,,,,,,,,,,,,,,,,,,,,,,,,,,,,,,,,,
,,,,,,0,0,0,0,1,X V Q F H G B L J M P D K C T S W R N Z,5cb6d6608f7ee10016e5abd7,28,Mężczyzna,2022-06-11_09h15.05.916,task,2021.1.4,Win32,60.08171113,6299f149e92ead563fba08ef,62a440ced4c3d28453a014b9,,,,,,,,,,,,,,,,,,,,,,,,,,,,,,,,,,,,,,,,,,,,,,,,,,,,,,,,,,,,,,,,,,,,,,,,,,,,,,,,,,,,,,,,,,,,,,,,,,,,,
,,,,,,1,0,1,0,1,X V Q F H G B L J M P D K C T S W R N Z,5cb6d6608f7ee10016e5abd7,28,Mężczyzna,2022-06-11_09h15.05.916,task,2021.1.4,Win32,60.08171113,6299f149e92ead563fba08ef,62a440ced4c3d28453a014b9,,,,,,,,,,,,,,,,,,,,,,,,,,,,,,,,,,,,,,,,,,,,,,,,,,,,,,,,,,,,,,,,,,,,,,,,,,,,,,,,,,,,,,,,,,,,,,,,,,,,,
,,,,,,2,0,2,0,1,X V Q F H G B L J M P D K C T S W R N Z,5cb6d6608f7ee10016e5abd7,28,Mężczyzna,2022-06-11_09h15.05.916,task,2021.1.4,Win32,60.08171113,6299f149e92ead563fba08ef,62a440ced4c3d28453a014b9,,,,,,,,,,,,,,,,,,,,,,,,,,,,,,,,,,,,,,,,,,,,,,,,,,,,,,,,,,,,,,,,,,,,,,,,,,,,,,,,,,,,,,,,,,,,,,,,,,,,,
,,,,,,3,0,3,0,1,X V Q F H G B L J M P D K C T S W R N Z,5cb6d6608f7ee10016e5abd7,28,Mężczyzna,2022-06-11_09h15.05.916,task,2021.1.4,Win32,60.08171113,6299f149e92ead563fba08ef,62a440ced4c3d28453a014b9,,,,,,,,,,,,,,,,,,,,,,,,,,,,,,,,,,,,,,,,,,,,,,,,,,,,,,,,,,,,,,,,,,,,,,,,,,,,,,,,,,,,,,,,,,,,,,,,,,,,,
,,,,,,4,0,4,0,1,X V Q F H G B L J M P D K C T S W R N Z,5cb6d6608f7ee10016e5abd7,28,Mężczyzna,2022-06-11_09h15.05.916,task,2021.1.4,Win32,60.08171113,6299f149e92ead563fba08ef,62a440ced4c3d28453a014b9,,,,,,,,,,,,,,,,,,,,,,,,,,,,,,,,,,,,,,,,,,,,,,,,,,,,,,,,,,,,,,,,,,,,,,,,,,,,,,,,,,,,,,,,,,,,,,,,,,,,,
,,,,,,5,0,5,0,1,X V Q F H G B L J M P D K C T S W R N Z,5cb6d6608f7ee10016e5abd7,28,Mężczyzna,2022-06-11_09h15.05.916,task,2021.1.4,Win32,60.08171113,6299f149e92ead563fba08ef,62a440ced4c3d28453a014b9,,,,,,,,,,,,,,,,,,,,,,,,,,,,,,,,,,,,,,,,,,,,,,,,,,,,,,,,,,,,,,,,,,,,,,,,,,,,,,,,,,,,,,,,,,,,,,,,,,,,,
,,,,,,6,0,6,0,1,X V Q F H G B L J M P D K C T S W R N Z,5cb6d6608f7ee10016e5abd7,28,Mężczyzna,2022-06-11_09h15.05.916,task,2021.1.4,Win32,60.08171113,6299f149e92ead563fba08ef,62a440ced4c3d28453a014b9,,,,,,,,,,,,,,,,,,,,,,,,,,,,,,,,,,,,,,,,,,,,,,,,,,,,,,,,,,,,,,,,,,,,,,,,,,,,,,,,,,,,,,,,,,,,,,,,,,,,,
,,,,,,7,0,7,0,1,X V Q F H G B L J M P D K C T S W R N Z,5cb6d6608f7ee10016e5abd7,28,Mężczyzna,2022-06-11_09h15.05.916,task,2021.1.4,Win32,60.08171113,6299f149e92ead563fba08ef,62a440ced4c3d28453a014b9,,,,,,,,,,,,,,,,,,,,,,,,,,,,,,,,,,,,,,,,,,,,,,,,,,,,,,,,,,,,,,,,,,,,,,,,,,,,,,,,,,,,,,,,,,,,,,,,,,,,,
,,,,,,8,0,8,0,1,X V Q F H G B L J M P D K C T S W R N Z,5cb6d6608f7ee10016e5abd7,28,Mężczyzna,2022-06-11_09h15.05.916,task,2021.1.4,Win32,60.08171113,6299f149e92ead563fba08ef,62a440ced4c3d28453a014b9,,,,,,,,,,,,,,,,,,,,,,,,,,,,,,,,,,,,,,,,,,,,,,,,,,,,,,,,,,,,,,,,,,,,,,,,,,,,,,,,,,,,,,,,,,,,,,,,,,,,,
,,,,,,9,0,9,0,1,X V Q F H G B L J M P D K C T S W R N Z,5cb6d6608f7ee10016e5abd7,28,Mężczyzna,2022-06-11_09h15.05.916,task,2021.1.4,Win32,60.08171113,6299f149e92ead563fba08ef,62a440ced4c3d28453a014b9,,,,,,,,,,,,,,,,,,,,,,,,,,,,,,,,,,,,,,,,,,,,,,,,,,,,,,,,,,,,,,,,,,,,,,,,,,,,,,,,,,,,,,,,,,,,,,,,,,,,,
,,,,,,10,0,10,0,1,X V Q F H G B L J M P D K C T S W R N Z,5cb6d6608f7ee10016e5abd7,28,Mężczyzna,2022-06-11_09h15.05.916,task,2021.1.4,Win32,60.08171113,6299f149e92ead563fba08ef,62a440ced4c3d28453a014b9,,,,,,,,,,,,,,,,,,,,,,,,,,,,,,,,,,,,,,,,,,,,,,,,,,,,,,,,,,,,,,,,,,,,,,,,,,,,,,,,,,,,,,,,,,,,,,,,,,,,,
,,,,,,11,0,11,0,1,X V Q F H G B L J M P D K C T S W R N Z,5cb6d6608f7ee10016e5abd7,28,Mężczyzna,2022-06-11_09h15.05.916,task,2021.1.4,Win32,60.08171113,6299f149e92ead563fba08ef,62a440ced4c3d28453a014b9,,,,,,,,,,,,,,,,,,,,,,,,,,,,,,,,,,,,,,,,,,,,,,,,,,,,,,,,,,,,,,,,,,,,,,,,,,,,,,,,,,,,,,,,,,,,,,,,,,,,,
,,,,,,,,,,,,5cb6d6608f7ee10016e5abd7,28,Mężczyzna,2022-06-11_09h15.05.916,task,2021.1.4,Win32,60.08171113,6299f149e92ead563fba08ef,62a440ced4c3d28453a014b9,xzttbdnmjgjw,"[""x"",""z"",""t"",""t"",""b"",""d"",""n"",""m"",""j"",""g"",""j"",""w""]","[4.057000000000016,4.35859999999991,5.268800000000056,5.508699999999976,6.1327,7.033800000000099,7.987699999999961,8.298599999999908,9.449599999999862,10.422599999999875,10.840800000000058,11.947899999999947,13.531099999999867]",1,XZTTBDNMJGJW,24,0,24,0,1,,,,,,,,,,,,,,,,,,,,,,,,,,,,,,,,,,,,,,,,,,,,,,,,,,,,,,,,,,,,,,,,,,,,,,,,,,,,,,,,,,,,,,,,,,,
,,,,,,0,0,0,0,1,X V Q F H G B L J M P D K C T S W R N Z,5cb6d6608f7ee10016e5abd7,28,Mężczyzna,2022-06-11_09h15.05.916,task,2021.1.4,Win32,60.08171113,6299f149e92ead563fba08ef,62a440ced4c3d28453a014b9,,,,,,,,,,,,,,,,,,,,,,,,,,,,,,,,,,,,,,,,,,,,,,,,,,,,,,,,,,,,,,,,,,,,,,,,,,,,,,,,,,,,,,,,,,,,,,,,,,,,,
,,,,,,1,0,1,0,1,X V Q F H G B L J M P D K C T S W R N Z,5cb6d6608f7ee10016e5abd7,28,Mężczyzna,2022-06-11_09h15.05.916,task,2021.1.4,Win32,60.08171113,6299f149e92ead563fba08ef,62a440ced4c3d28453a014b9,,,,,,,,,,,,,,,,,,,,,,,,,,,,,,,,,,,,,,,,,,,,,,,,,,,,,,,,,,,,,,,,,,,,,,,,,,,,,,,,,,,,,,,,,,,,,,,,,,,,,
,,,,,,2,0,2,0,1,X V Q F H G B L J M P D K C T S W R N Z,5cb6d6608f7ee10016e5abd7,28,Mężczyzna,2022-06-11_09h15.05.916,task,2021.1.4,Win32,60.08171113,6299f149e92ead563fba08ef,62a440ced4c3d28453a014b9,,,,,,,,,,,,,,,,,,,,,,,,,,,,,,,,,,,,,,,,,,,,,,,,,,,,,,,,,,,,,,,,,,,,,,,,,,,,,,,,,,,,,,,,,,,,,,,,,,,,,
,,,,,,3,0,3,0,1,X V Q F H G B L J M P D K C T S W R N Z,5cb6d6608f7ee10016e5abd7,28,Mężczyzna,2022-06-11_09h15.05.916,task,2021.1.4,Win32,60.08171113,6299f149e92ead563fba08ef,62a440ced4c3d28453a014b9,,,,,,,,,,,,,,,,,,,,,,,,,,,,,,,,,,,,,,,,,,,,,,,,,,,,,,,,,,,,,,,,,,,,,,,,,,,,,,,,,,,,,,,,,,,,,,,,,,,,,
,,,,,,4,0,4,0,1,X V Q F H G B L J M P D K C T S W R N Z,5cb6d6608f7ee10016e5abd7,28,Mężczyzna,2022-06-11_09h15.05.916,task,2021.1.4,Win32,60.08171113,6299f149e92ead563fba08ef,62a440ced4c3d28453a014b9,,,,,,,,,,,,,,,,,,,,,,,,,,,,,,,,,,,,,,,,,,,,,,,,,,,,,,,,,,,,,,,,,,,,,,,,,,,,,,,,,,,,,,,,,,,,,,,,,,,,,
,,,,,,5,0,5,0,1,X V Q F H G B L J M P D K C T S W R N Z,5cb6d6608f7ee10016e5abd7,28,Mężczyzna,2022-06-11_09h15.05.916,task,2021.1.4,Win32,60.08171113,6299f149e92ead563fba08ef,62a440ced4c3d28453a014b9,,,,,,,,,,,,,,,,,,,,,,,,,,,,,,,,,,,,,,,,,,,,,,,,,,,,,,,,,,,,,,,,,,,,,,,,,,,,,,,,,,,,,,,,,,,,,,,,,,,,,
,,,,,,6,0,6,0,1,X V Q F H G B L J M P D K C T S W R N Z,5cb6d6608f7ee10016e5abd7,28,Mężczyzna,2022-06-11_09h15.05.916,task,2021.1.4,Win32,60.08171113,6299f149e92ead563fba08ef,62a440ced4c3d28453a014b9,,,,,,,,,,,,,,,,,,,,,,,,,,,,,,,,,,,,,,,,,,,,,,,,,,,,,,,,,,,,,,,,,,,,,,,,,,,,,,,,,,,,,,,,,,,,,,,,,,,,,
,,,,,,7,0,7,0,1,X V Q F H G B L J M P D K C T S W R N Z,5cb6d6608f7ee10016e5abd7,28,Mężczyzna,2022-06-11_09h15.05.916,task,2021.1.4,Win32,60.08171113,6299f149e92ead563fba08ef,62a440ced4c3d28453a014b9,,,,,,,,,,,,,,,,,,,,,,,,,,,,,,,,,,,,,,,,,,,,,,,,,,,,,,,,,,,,,,,,,,,,,,,,,,,,,,,,,,,,,,,,,,,,,,,,,,,,,
,,,,,,8,0,8,0,1,X V Q F H G B L J M P D K C T S W R N Z,5cb6d6608f7ee10016e5abd7,28,Mężczyzna,2022-06-11_09h15.05.916,task,2021.1.4,Win32,60.08171113,6299f149e92ead563fba08ef,62a440ced4c3d28453a014b9,,,,,,,,,,,,,,,,,,,,,,,,,,,,,,,,,,,,,,,,,,,,,,,,,,,,,,,,,,,,,,,,,,,,,,,,,,,,,,,,,,,,,,,,,,,,,,,,,,,,,
,,,,,,9,0,9,0,1,X V Q F H G B L J M P D K C T S W R N Z,5cb6d6608f7ee10016e5abd7,28,Mężczyzna,2022-06-11_09h15.05.916,task,2021.1.4,Win32,60.08171113,6299f149e92ead563fba08ef,62a440ced4c3d28453a014b9,,,,,,,,,,,,,,,,,,,,,,,,,,,,,,,,,,,,,,,,,,,,,,,,,,,,,,,,,,,,,,,,,,,,,,,,,,,,,,,,,,,,,,,,,,,,,,,,,,,,,
,,,,,,10,0,10,0,1,X V Q F H G B L J M P D K C T S W R N Z,5cb6d6608f7ee10016e5abd7,28,Mężczyzna,2022-06-11_09h15.05.916,task,2021.1.4,Win32,60.08171113,6299f149e92ead563fba08ef,62a440ced4c3d28453a014b9,,,,,,,,,,,,,,,,,,,,,,,,,,,,,,,,,,,,,,,,,,,,,,,,,,,,,,,,,,,,,,,,,,,,,,,,,,,,,,,,,,,,,,,,,,,,,,,,,,,,,
,,,,,,11,0,11,0,1,X V Q F H G B L J M P D K C T S W R N Z,5cb6d6608f7ee10016e5abd7,28,Mężczyzna,2022-06-11_09h15.05.916,task,2021.1.4,Win32,60.08171113,6299f149e92ead563fba08ef,62a440ced4c3d28453a014b9,,,,,,,,,,,,,,,,,,,,,,,,,,,,,,,,,,,,,,,,,,,,,,,,,,,,,,,,,,,,,,,,,,,,,,,,,,,,,,,,,,,,,,,,,,,,,,,,,,,,,
,,,,,,12,0,12,0,1,X V Q F H G B L J M P D K C T S W R N Z,5cb6d6608f7ee10016e5abd7,28,Mężczyzna,2022-06-11_09h15.05.916,task,2021.1.4,Win32,60.08171113,6299f149e92ead563fba08ef,62a440ced4c3d28453a014b9,,,,,,,,,,,,,,,,,,,,,,,,,,,,,,,,,,,,,,,,,,,,,,,,,,,,,,,,,,,,,,,,,,,,,,,,,,,,,,,,,,,,,,,,,,,,,,,,,,,,,
,,,,,,,,,,,,5cb6d6608f7ee10016e5abd7,28,Mężczyzna,2022-06-11_09h15.05.916,task,2021.1.4,Win32,60.08171113,6299f149e92ead563fba08ef,62a440ced4c3d28453a014b9,sbctrqfjhzqcm,"[""s"",""b"",""c"",""t"",""r"",""q"",""f"",""j"",""h"",""z"",""q"",""c"",""m""]","[3.1323999999999046,3.8149999999999977,4.665100000000109,5.286000000000001,6.220000000000027,6.959199999999953,7.581999999999994,8.535899999999913,8.982100000000116,11.83889999999991,12.299100000000124,13.00989999999996,13.64749999999998,15.182500000000061]",1,SBCTRQFJHZQCM,25,0,25,0,1,,,,,,,,,,,,,,,,,,,,,,,,,,,,,,,,,,,,,,,,,,,,,,,,,,,,,,,,,,,,,,,,,,,,,,,,,,,,,,,,,,,,,,,,,,,
,,,,,,0,0,0,0,1,X V Q F H G B L J M P D K C T S W R N Z,5cb6d6608f7ee10016e5abd7,28,Mężczyzna,2022-06-11_09h15.05.916,task,2021.1.4,Win32,60.08171113,6299f149e92ead563fba08ef,62a440ced4c3d28453a014b9,,,,,,,,,,,,,,,,,,,,,,,,,,,,,,,,,,,,,,,,,,,,,,,,,,,,,,,,,,,,,,,,,,,,,,,,,,,,,,,,,,,,,,,,,,,,,,,,,,,,,
,,,,,,1,0,1,0,1,X V Q F H G B L J M P D K C T S W R N Z,5cb6d6608f7ee10016e5abd7,28,Mężczyzna,2022-06-11_09h15.05.916,task,2021.1.4,Win32,60.08171113,6299f149e92ead563fba08ef,62a440ced4c3d28453a014b9,,,,,,,,,,,,,,,,,,,,,,,,,,,,,,,,,,,,,,,,,,,,,,,,,,,,,,,,,,,,,,,,,,,,,,,,,,,,,,,,,,,,,,,,,,,,,,,,,,,,,
,,,,,,2,0,2,0,1,X V Q F H G B L J M P D K C T S W R N Z,5cb6d6608f7ee10016e5abd7,28,Mężczyzna,2022-06-11_09h15.05.916,task,2021.1.4,Win32,60.08171113,6299f149e92ead563fba08ef,62a440ced4c3d28453a014b9,,,,,,,,,,,,,,,,,,,,,,,,,,,,,,,,,,,,,,,,,,,,,,,,,,,,,,,,,,,,,,,,,,,,,,,,,,,,,,,,,,,,,,,,,,,,,,,,,,,,,
,,,,,,3,0,3,0,1,X V Q F H G B L J M P D K C T S W R N Z,5cb6d6608f7ee10016e5abd7,28,Mężczyzna,2022-06-11_09h15.05.916,task,2021.1.4,Win32,60.08171113,6299f149e92ead563fba08ef,62a440ced4c3d28453a014b9,,,,,,,,,,,,,,,,,,,,,,,,,,,,,,,,,,,,,,,,,,,,,,,,,,,,,,,,,,,,,,,,,,,,,,,,,,,,,,,,,,,,,,,,,,,,,,,,,,,,,
,,,,,,4,0,4,0,1,X V Q F H G B L J M P D K C T S W R N Z,5cb6d6608f7ee10016e5abd7,28,Mężczyzna,2022-06-11_09h15.05.916,task,2021.1.4,Win32,60.08171113,6299f149e92ead563fba08ef,62a440ced4c3d28453a014b9,,,,,,,,,,,,,,,,,,,,,,,,,,,,,,,,,,,,,,,,,,,,,,,,,,,,,,,,,,,,,,,,,,,,,,,,,,,,,,,,,,,,,,,,,,,,,,,,,,,,,
,,,,,,5,0,5,0,1,X V Q F H G B L J M P D K C T S W R N Z,5cb6d6608f7ee10016e5abd7,28,Mężczyzna,2022-06-11_09h15.05.916,task,2021.1.4,Win32,60.08171113,6299f149e92ead563fba08ef,62a440ced4c3d28453a014b9,,,,,,,,,,,,,,,,,,,,,,,,,,,,,,,,,,,,,,,,,,,,,,,,,,,,,,,,,,,,,,,,,,,,,,,,,,,,,,,,,,,,,,,,,,,,,,,,,,,,,
,,,,,,6,0,6,0,1,X V Q F H G B L J M P D K C T S W R N Z,5cb6d6608f7ee10016e5abd7,28,Mężczyzna,2022-06-11_09h15.05.916,task,2021.1.4,Win32,60.08171113,6299f149e92ead563fba08ef,62a440ced4c3d28453a014b9,,,,,,,,,,,,,,,,,,,,,,,,,,,,,,,,,,,,,,,,,,,,,,,,,,,,,,,,,,,,,,,,,,,,,,,,,,,,,,,,,,,,,,,,,,,,,,,,,,,,,
,,,,,,7,0,7,0,1,X V Q F H G B L J M P D K C T S W R N Z,5cb6d6608f7ee10016e5abd7,28,Mężczyzna,2022-06-11_09h15.05.916,task,2021.1.4,Win32,60.08171113,6299f149e92ead563fba08ef,62a440ced4c3d28453a014b9,,,,,,,,,,,,,,,,,,,,,,,,,,,,,,,,,,,,,,,,,,,,,,,,,,,,,,,,,,,,,,,,,,,,,,,,,,,,,,,,,,,,,,,,,,,,,,,,,,,,,
,,,,,,8,0,8,0,1,X V Q F H G B L J M P D K C T S W R N Z,5cb6d6608f7ee10016e5abd7,28,Mężczyzna,2022-06-11_09h15.05.916,task,2021.1.4,Win32,60.08171113,6299f149e92ead563fba08ef,62a440ced4c3d28453a014b9,,,,,,,,,,,,,,,,,,,,,,,,,,,,,,,,,,,,,,,,,,,,,,,,,,,,,,,,,,,,,,,,,,,,,,,,,,,,,,,,,,,,,,,,,,,,,,,,,,,,,
,,,,,,9,0,9,0,1,X V Q F H G B L J M P D K C T S W R N Z,5cb6d6608f7ee10016e5abd7,28,Mężczyzna,2022-06-11_09h15.05.916,task,2021.1.4,Win32,60.08171113,6299f149e92ead563fba08ef,62a440ced4c3d28453a014b9,,,,,,,,,,,,,,,,,,,,,,,,,,,,,,,,,,,,,,,,,,,,,,,,,,,,,,,,,,,,,,,,,,,,,,,,,,,,,,,,,,,,,,,,,,,,,,,,,,,,,
,,,,,,10,0,10,0,1,X V Q F H G B L J M P D K C T S W R N Z,5cb6d6608f7ee10016e5abd7,28,Mężczyzna,2022-06-11_09h15.05.916,task,2021.1.4,Win32,60.08171113,6299f149e92ead563fba08ef,62a440ced4c3d28453a014b9,,,,,,,,,,,,,,,,,,,,,,,,,,,,,,,,,,,,,,,,,,,,,,,,,,,,,,,,,,,,,,,,,,,,,,,,,,,,,,,,,,,,,,,,,,,,,,,,,,,,,
,,,,,,11,0,11,0,1,X V Q F H G B L J M P D K C T S W R N Z,5cb6d6608f7ee10016e5abd7,28,Mężczyzna,2022-06-11_09h15.05.916,task,2021.1.4,Win32,60.08171113,6299f149e92ead563fba08ef,62a440ced4c3d28453a014b9,,,,,,,,,,,,,,,,,,,,,,,,,,,,,,,,,,,,,,,,,,,,,,,,,,,,,,,,,,,,,,,,,,,,,,,,,,,,,,,,,,,,,,,,,,,,,,,,,,,,,
,,,,,,12,0,12,0,1,X V Q F H G B L J M P D K C T S W R N Z,5cb6d6608f7ee10016e5abd7,28,Mężczyzna,2022-06-11_09h15.05.916,task,2021.1.4,Win32,60.08171113,6299f149e92ead563fba08ef,62a440ced4c3d28453a014b9,,,,,,,,,,,,,,,,,,,,,,,,,,,,,,,,,,,,,,,,,,,,,,,,,,,,,,,,,,,,,,,,,,,,,,,,,,,,,,,,,,,,,,,,,,,,,,,,,,,,,
,,,,,,,,,,,,5cb6d6608f7ee10016e5abd7,28,Mężczyzna,2022-06-11_09h15.05.916,task,2021.1.4,Win32,60.08171113,6299f149e92ead563fba08ef,62a440ced4c3d28453a014b9,nzbtvnfcsnnwr,"[""n"",""z"",""b"",""t"",""v"",""n"",""f"",""c"",""s"",""n"",""n"",""w"",""r""]","[4.782100000000014,5.277499999999918,6.265699999999924,6.9821000000000595,7.467800000000011,8.916100000000029,9.423800000000028,10.483699999999885,11.06519999999989,12.458699999999908,12.632299999999987,13.470800000000054,14.050699999999892,16.040100000000052]",1,NZBTVNFCSNNWR,26,0,26,0,1,,,,,,,,,,,,,,,,,,,,,,,,,,,,,,,,,,,,,,,,,,,,,,,,,,,,,,,,,,,,,,,,,,,,,,,,,,,,,,,,,,,,,,,,,,,
,,,,,,0,0,0,0,1,X V Q F H G B L J M P D K C T S W R N Z,5cb6d6608f7ee10016e5abd7,28,Mężczyzna,2022-06-11_09h15.05.916,task,2021.1.4,Win32,60.08171113,6299f149e92ead563fba08ef,62a440ced4c3d28453a014b9,,,,,,,,,,,,,,,,,,,,,,,,,,,,,,,,,,,,,,,,,,,,,,,,,,,,,,,,,,,,,,,,,,,,,,,,,,,,,,,,,,,,,,,,,,,,,,,,,,,,,
,,,,,,1,0,1,0,1,X V Q F H G B L J M P D K C T S W R N Z,5cb6d6608f7ee10016e5abd7,28,Mężczyzna,2022-06-11_09h15.05.916,task,2021.1.4,Win32,60.08171113,6299f149e92ead563fba08ef,62a440ced4c3d28453a014b9,,,,,,,,,,,,,,,,,,,,,,,,,,,,,,,,,,,,,,,,,,,,,,,,,,,,,,,,,,,,,,,,,,,,,,,,,,,,,,,,,,,,,,,,,,,,,,,,,,,,,
,,,,,,2,0,2,0,1,X V Q F H G B L J M P D K C T S W R N Z,5cb6d6608f7ee10016e5abd7,28,Mężczyzna,2022-06-11_09h15.05.916,task,2021.1.4,Win32,60.08171113,6299f149e92ead563fba08ef,62a440ced4c3d28453a014b9,,,,,,,,,,,,,,,,,,,,,,,,,,,,,,,,,,,,,,,,,,,,,,,,,,,,,,,,,,,,,,,,,,,,,,,,,,,,,,,,,,,,,,,,,,,,,,,,,,,,,
,,,,,,3,0,3,0,1,X V Q F H G B L J M P D K C T S W R N Z,5cb6d6608f7ee10016e5abd7,28,Mężczyzna,2022-06-11_09h15.05.916,task,2021.1.4,Win32,60.08171113,6299f149e92ead563fba08ef,62a440ced4c3d28453a014b9,,,,,,,,,,,,,,,,,,,,,,,,,,,,,,,,,,,,,,,,,,,,,,,,,,,,,,,,,,,,,,,,,,,,,,,,,,,,,,,,,,,,,,,,,,,,,,,,,,,,,
,,,,,,4,0,4,0,1,X V Q F H G B L J M P D K C T S W R N Z,5cb6d6608f7ee10016e5abd7,28,Mężczyzna,2022-06-11_09h15.05.916,task,2021.1.4,Win32,60.08171113,6299f149e92ead563fba08ef,62a440ced4c3d28453a014b9,,,,,,,,,,,,,,,,,,,,,,,,,,,,,,,,,,,,,,,,,,,,,,,,,,,,,,,,,,,,,,,,,,,,,,,,,,,,,,,,,,,,,,,,,,,,,,,,,,,,,
,,,,,,5,0,5,0,1,X V Q F H G B L J M P D K C T S W R N Z,5cb6d6608f7ee10016e5abd7,28,Mężczyzna,2022-06-11_09h15.05.916,task,2021.1.4,Win32,60.08171113,6299f149e92ead563fba08ef,62a440ced4c3d28453a014b9,,,,,,,,,,,,,,,,,,,,,,,,,,,,,,,,,,,,,,,,,,,,,,,,,,,,,,,,,,,,,,,,,,,,,,,,,,,,,,,,,,,,,,,,,,,,,,,,,,,,,
,,,,,,6,0,6,0,1,X V Q F H G B L J M P D K C T S W R N Z,5cb6d6608f7ee10016e5abd7,28,Mężczyzna,2022-06-11_09h15.05.916,task,2021.1.4,Win32,60.08171113,6299f149e92ead563fba08ef,62a440ced4c3d28453a014b9,,,,,,,,,,,,,,,,,,,,,,,,,,,,,,,,,,,,,,,,,,,,,,,,,,,,,,,,,,,,,,,,,,,,,,,,,,,,,,,,,,,,,,,,,,,,,,,,,,,,,
,,,,,,7,0,7,0,1,X V Q F H G B L J M P D K C T S W R N Z,5cb6d6608f7ee10016e5abd7,28,Mężczyzna,2022-06-11_09h15.05.916,task,2021.1.4,Win32,60.08171113,6299f149e92ead563fba08ef,62a440ced4c3d28453a014b9,,,,,,,,,,,,,,,,,,,,,,,,,,,,,,,,,,,,,,,,,,,,,,,,,,,,,,,,,,,,,,,,,,,,,,,,,,,,,,,,,,,,,,,,,,,,,,,,,,,,,
,,,,,,8,0,8,0,1,X V Q F H G B L J M P D K C T S W R N Z,5cb6d6608f7ee10016e5abd7,28,Mężczyzna,2022-06-11_09h15.05.916,task,2021.1.4,Win32,60.08171113,6299f149e92ead563fba08ef,62a440ced4c3d28453a014b9,,,,,,,,,,,,,,,,,,,,,,,,,,,,,,,,,,,,,,,,,,,,,,,,,,,,,,,,,,,,,,,,,,,,,,,,,,,,,,,,,,,,,,,,,,,,,,,,,,,,,
,,,,,,9,0,9,0,1,X V Q F H G B L J M P D K C T S W R N Z,5cb6d6608f7ee10016e5abd7,28,Mężczyzna,2022-06-11_09h15.05.916,task,2021.1.4,Win32,60.08171113,6299f149e92ead563fba08ef,62a440ced4c3d28453a014b9,,,,,,,,,,,,,,,,,,,,,,,,,,,,,,,,,,,,,,,,,,,,,,,,,,,,,,,,,,,,,,,,,,,,,,,,,,,,,,,,,,,,,,,,,,,,,,,,,,,,,
,,,,,,10,0,10,0,1,X V Q F H G B L J M P D K C T S W R N Z,5cb6d6608f7ee10016e5abd7,28,Mężczyzna,2022-06-11_09h15.05.916,task,2021.1.4,Win32,60.08171113,6299f149e92ead563fba08ef,62a440ced4c3d28453a014b9,,,,,,,,,,,,,,,,,,,,,,,,,,,,,,,,,,,,,,,,,,,,,,,,,,,,,,,,,,,,,,,,,,,,,,,,,,,,,,,,,,,,,,,,,,,,,,,,,,,,,
,,,,,,11,0,11,0,1,X V Q F H G B L J M P D K C T S W R N Z,5cb6d6608f7ee10016e5abd7,28,Mężczyzna,2022-06-11_09h15.05.916,task,2021.1.4,Win32,60.08171113,6299f149e92ead563fba08ef,62a440ced4c3d28453a014b9,,,,,,,,,,,,,,,,,,,,,,,,,,,,,,,,,,,,,,,,,,,,,,,,,,,,,,,,,,,,,,,,,,,,,,,,,,,,,,,,,,,,,,,,,,,,,,,,,,,,,
,,,,,,12,0,12,0,1,X V Q F H G B L J M P D K C T S W R N Z,5cb6d6608f7ee10016e5abd7,28,Mężczyzna,2022-06-11_09h15.05.916,task,2021.1.4,Win32,60.08171113,6299f149e92ead563fba08ef,62a440ced4c3d28453a014b9,,,,,,,,,,,,,,,,,,,,,,,,,,,,,,,,,,,,,,,,,,,,,,,,,,,,,,,,,,,,,,,,,,,,,,,,,,,,,,,,,,,,,,,,,,,,,,,,,,,,,
,,,,,,13,0,13,0,1,X V Q F H G B L J M P D K C T S W R N Z,5cb6d6608f7ee10016e5abd7,28,Mężczyzna,2022-06-11_09h15.05.916,task,2021.1.4,Win32,60.08171113,6299f149e92ead563fba08ef,62a440ced4c3d28453a014b9,,,,,,,,,,,,,,,,,,,,,,,,,,,,,,,,,,,,,,,,,,,,,,,,,,,,,,,,,,,,,,,,,,,,,,,,,,,,,,,,,,,,,,,,,,,,,,,,,,,,,
,,,,,,,,,,,,5cb6d6608f7ee10016e5abd7,28,Mężczyzna,2022-06-11_09h15.05.916,task,2021.1.4,Win32,60.08171113,6299f149e92ead563fba08ef,62a440ced4c3d28453a014b9,ttpktrzfdzqdcf,"[""t"",""t"",""p"",""k"",""t"",""r"",""z"",""f"",""d"",""z"",""q"",""d"",""c"",""f""]","[3.0321000000001277,3.2187000000001262,3.7835000000000036,8.318499999999972,8.726800000000026,9.698999999999955,10.02049999999997,11.109800000000064,11.473400000000083,12.950600000000122,13.35290000000009,14.38110000000006,14.79790000000014,15.687700000000177,16.257700000000114]",0,TTPKTRZFPZQDCF,27,0,27,0,1,,,,,,,,,,,,,,,,,,,,,,,,,,,,,,,,,,,,,,,,,,,,,,,,,,,,,,,,,,,,,,,,,,,,,,,,,,,,,,,,,,,,,,,,,,,
,,,,,,0,0,0,0,1,X V Q F H G B L J M P D K C T S W R N Z,5cb6d6608f7ee10016e5abd7,28,Mężczyzna,2022-06-11_09h15.05.916,task,2021.1.4,Win32,60.08171113,6299f149e92ead563fba08ef,62a440ced4c3d28453a014b9,,,,,,,,,,,,,,,,,,,,,,,,,,,,,,,,,,,,,,,,,,,,,,,,,,,,,,,,,,,,,,,,,,,,,,,,,,,,,,,,,,,,,,,,,,,,,,,,,,,,,
,,,,,,1,0,1,0,1,X V Q F H G B L J M P D K C T S W R N Z,5cb6d6608f7ee10016e5abd7,28,Mężczyzna,2022-06-11_09h15.05.916,task,2021.1.4,Win32,60.08171113,6299f149e92ead563fba08ef,62a440ced4c3d28453a014b9,,,,,,,,,,,,,,,,,,,,,,,,,,,,,,,,,,,,,,,,,,,,,,,,,,,,,,,,,,,,,,,,,,,,,,,,,,,,,,,,,,,,,,,,,,,,,,,,,,,,,
,,,,,,2,0,2,0,1,X V Q F H G B L J M P D K C T S W R N Z,5cb6d6608f7ee10016e5abd7,28,Mężczyzna,2022-06-11_09h15.05.916,task,2021.1.4,Win32,60.08171113,6299f149e92ead563fba08ef,62a440ced4c3d28453a014b9,,,,,,,,,,,,,,,,,,,,,,,,,,,,,,,,,,,,,,,,,,,,,,,,,,,,,,,,,,,,,,,,,,,,,,,,,,,,,,,,,,,,,,,,,,,,,,,,,,,,,
,,,,,,3,0,3,0,1,X V Q F H G B L J M P D K C T S W R N Z,5cb6d6608f7ee10016e5abd7,28,Mężczyzna,2022-06-11_09h15.05.916,task,2021.1.4,Win32,60.08171113,6299f149e92ead563fba08ef,62a440ced4c3d28453a014b9,,,,,,,,,,,,,,,,,,,,,,,,,,,,,,,,,,,,,,,,,,,,,,,,,,,,,,,,,,,,,,,,,,,,,,,,,,,,,,,,,,,,,,,,,,,,,,,,,,,,,
,,,,,,4,0,4,0,1,X V Q F H G B L J M P D K C T S W R N Z,5cb6d6608f7ee10016e5abd7,28,Mężczyzna,2022-06-11_09h15.05.916,task,2021.1.4,Win32,60.08171113,6299f149e92ead563fba08ef,62a440ced4c3d28453a014b9,,,,,,,,,,,,,,,,,,,,,,,,,,,,,,,,,,,,,,,,,,,,,,,,,,,,,,,,,,,,,,,,,,,,,,,,,,,,,,,,,,,,,,,,,,,,,,,,,,,,,
,,,,,,5,0,5,0,1,X V Q F H G B L J M P D K C T S W R N Z,5cb6d6608f7ee10016e5abd7,28,Mężczyzna,2022-06-11_09h15.05.916,task,2021.1.4,Win32,60.08171113,6299f149e92ead563fba08ef,62a440ced4c3d28453a014b9,,,,,,,,,,,,,,,,,,,,,,,,,,,,,,,,,,,,,,,,,,,,,,,,,,,,,,,,,,,,,,,,,,,,,,,,,,,,,,,,,,,,,,,,,,,,,,,,,,,,,
,,,,,,6,0,6,0,1,X V Q F H G B L J M P D K C T S W R N Z,5cb6d6608f7ee10016e5abd7,28,Mężczyzna,2022-06-11_09h15.05.916,task,2021.1.4,Win32,60.08171113,6299f149e92ead563fba08ef,62a440ced4c3d28453a014b9,,,,,,,,,,,,,,,,,,,,,,,,,,,,,,,,,,,,,,,,,,,,,,,,,,,,,,,,,,,,,,,,,,,,,,,,,,,,,,,,,,,,,,,,,,,,,,,,,,,,,
,,,,,,7,0,7,0,1,X V Q F H G B L J M P D K C T S W R N Z,5cb6d6608f7ee10016e5abd7,28,Mężczyzna,2022-06-11_09h15.05.916,task,2021.1.4,Win32,60.08171113,6299f149e92ead563fba08ef,62a440ced4c3d28453a014b9,,,,,,,,,,,,,,,,,,,,,,,,,,,,,,,,,,,,,,,,,,,,,,,,,,,,,,,,,,,,,,,,,,,,,,,,,,,,,,,,,,,,,,,,,,,,,,,,,,,,,
,,,,,,8,0,8,0,1,X V Q F H G B L J M P D K C T S W R N Z,5cb6d6608f7ee10016e5abd7,28,Mężczyzna,2022-06-11_09h15.05.916,task,2021.1.4,Win32,60.08171113,6299f149e92ead563fba08ef,62a440ced4c3d28453a014b9,,,,,,,,,,,,,,,,,,,,,,,,,,,,,,,,,,,,,,,,,,,,,,,,,,,,,,,,,,,,,,,,,,,,,,,,,,,,,,,,,,,,,,,,,,,,,,,,,,,,,
,,,,,,9,0,9,0,1,X V Q F H G B L J M P D K C T S W R N Z,5cb6d6608f7ee10016e5abd7,28,Mężczyzna,2022-06-11_09h15.05.916,task,2021.1.4,Win32,60.08171113,6299f149e92ead563fba08ef,62a440ced4c3d28453a014b9,,,,,,,,,,,,,,,,,,,,,,,,,,,,,,,,,,,,,,,,,,,,,,,,,,,,,,,,,,,,,,,,,,,,,,,,,,,,,,,,,,,,,,,,,,,,,,,,,,,,,
,,,,,,10,0,10,0,1,X V Q F H G B L J M P D K C T S W R N Z,5cb6d6608f7ee10016e5abd7,28,Mężczyzna,2022-06-11_09h15.05.916,task,2021.1.4,Win32,60.08171113,6299f149e92ead563fba08ef,62a440ced4c3d28453a014b9,,,,,,,,,,,,,,,,,,,,,,,,,,,,,,,,,,,,,,,,,,,,,,,,,,,,,,,,,,,,,,,,,,,,,,,,,,,,,,,,,,,,,,,,,,,,,,,,,,,,,
,,,,,,11,0,11,0,1,X V Q F H G B L J M P D K C T S W R N Z,5cb6d6608f7ee10016e5abd7,28,Mężczyzna,2022-06-11_09h15.05.916,task,2021.1.4,Win32,60.08171113,6299f149e92ead563fba08ef,62a440ced4c3d28453a014b9,,,,,,,,,,,,,,,,,,,,,,,,,,,,,,,,,,,,,,,,,,,,,,,,,,,,,,,,,,,,,,,,,,,,,,,,,,,,,,,,,,,,,,,,,,,,,,,,,,,,,
,,,,,,12,0,12,0,1,X V Q F H G B L J M P D K C T S W R N Z,5cb6d6608f7ee10016e5abd7,28,Mężczyzna,2022-06-11_09h15.05.916,task,2021.1.4,Win32,60.08171113,6299f149e92ead563fba08ef,62a440ced4c3d28453a014b9,,,,,,,,,,,,,,,,,,,,,,,,,,,,,,,,,,,,,,,,,,,,,,,,,,,,,,,,,,,,,,,,,,,,,,,,,,,,,,,,,,,,,,,,,,,,,,,,,,,,,
,,,,,,13,0,13,0,1,X V Q F H G B L J M P D K C T S W R N Z,5cb6d6608f7ee10016e5abd7,28,Mężczyzna,2022-06-11_09h15.05.916,task,2021.1.4,Win32,60.08171113,6299f149e92ead563fba08ef,62a440ced4c3d28453a014b9,,,,,,,,,,,,,,,,,,,,,,,,,,,,,,,,,,,,,,,,,,,,,,,,,,,,,,,,,,,,,,,,,,,,,,,,,,,,,,,,,,,,,,,,,,,,,,,,,,,,,
,,,,,,,,,,,,5cb6d6608f7ee10016e5abd7,28,Mężczyzna,2022-06-11_09h15.05.916,task,2021.1.4,Win32,60.08171113,6299f149e92ead563fba08ef,62a440ced4c3d28453a014b9,qjhrlwbqttftjp,"[""q"",""j"",""h"",""r"",""l"",""w"",""b"",""q"",""t"",""t"",""f"",""t"",""j"",""p""]","[2.326599999999871,3.4803000000000566,3.9070999999999003,4.952200000000062,6.547500000000014,7.306800000000067,8.015099999999961,8.653099999999881,9.832099999999969,10.067099999999868,11.121099999999956,11.788099999999872,12.379599999999868,12.766200000000026,13.753199999999993]",1,QJHRLWBQTTFTJP,28,0,28,0,1,,,,,,,,,,,,,,,,,,,,,,,,,,,,,,,,,,,,,,,,,,,,,,,,,,,,,,,,,,,,,,,,,,,,,,,,,,,,,,,,,,,,,,,,,,,
,,,,,,0,0,0,0,1,X V Q F H G B L J M P D K C T S W R N Z,5cb6d6608f7ee10016e5abd7,28,Mężczyzna,2022-06-11_09h15.05.916,task,2021.1.4,Win32,60.08171113,6299f149e92ead563fba08ef,62a440ced4c3d28453a014b9,,,,,,,,,,,,,,,,,,,,,,,,,,,,,,,,,,,,,,,,,,,,,,,,,,,,,,,,,,,,,,,,,,,,,,,,,,,,,,,,,,,,,,,,,,,,,,,,,,,,,
,,,,,,1,0,1,0,1,X V Q F H G B L J M P D K C T S W R N Z,5cb6d6608f7ee10016e5abd7,28,Mężczyzna,2022-06-11_09h15.05.916,task,2021.1.4,Win32,60.08171113,6299f149e92ead563fba08ef,62a440ced4c3d28453a014b9,,,,,,,,,,,,,,,,,,,,,,,,,,,,,,,,,,,,,,,,,,,,,,,,,,,,,,,,,,,,,,,,,,,,,,,,,,,,,,,,,,,,,,,,,,,,,,,,,,,,,
,,,,,,2,0,2,0,1,X V Q F H G B L J M P D K C T S W R N Z,5cb6d6608f7ee10016e5abd7,28,Mężczyzna,2022-06-11_09h15.05.916,task,2021.1.4,Win32,60.08171113,6299f149e92ead563fba08ef,62a440ced4c3d28453a014b9,,,,,,,,,,,,,,,,,,,,,,,,,,,,,,,,,,,,,,,,,,,,,,,,,,,,,,,,,,,,,,,,,,,,,,,,,,,,,,,,,,,,,,,,,,,,,,,,,,,,,
,,,,,,3,0,3,0,1,X V Q F H G B L J M P D K C T S W R N Z,5cb6d6608f7ee10016e5abd7,28,Mężczyzna,2022-06-11_09h15.05.916,task,2021.1.4,Win32,60.08171113,6299f149e92ead563fba08ef,62a440ced4c3d28453a014b9,,,,,,,,,,,,,,,,,,,,,,,,,,,,,,,,,,,,,,,,,,,,,,,,,,,,,,,,,,,,,,,,,,,,,,,,,,,,,,,,,,,,,,,,,,,,,,,,,,,,,
,,,,,,4,0,4,0,1,X V Q F H G B L J M P D K C T S W R N Z,5cb6d6608f7ee10016e5abd7,28,Mężczyzna,2022-06-11_09h15.05.916,task,2021.1.4,Win32,60.08171113,6299f149e92ead563fba08ef,62a440ced4c3d28453a014b9,,,,,,,,,,,,,,,,,,,,,,,,,,,,,,,,,,,,,,,,,,,,,,,,,,,,,,,,,,,,,,,,,,,,,,,,,,,,,,,,,,,,,,,,,,,,,,,,,,,,,
,,,,,,5,0,5,0,1,X V Q F H G B L J M P D K C T S W R N Z,5cb6d6608f7ee10016e5abd7,28,Mężczyzna,2022-06-11_09h15.05.916,task,2021.1.4,Win32,60.08171113,6299f149e92ead563fba08ef,62a440ced4c3d28453a014b9,,,,,,,,,,,,,,,,,,,,,,,,,,,,,,,,,,,,,,,,,,,,,,,,,,,,,,,,,,,,,,,,,,,,,,,,,,,,,,,,,,,,,,,,,,,,,,,,,,,,,
,,,,,,6,0,6,0,1,X V Q F H G B L J M P D K C T S W R N Z,5cb6d6608f7ee10016e5abd7,28,Mężczyzna,2022-06-11_09h15.05.916,task,2021.1.4,Win32,60.08171113,6299f149e92ead563fba08ef,62a440ced4c3d28453a014b9,,,,,,,,,,,,,,,,,,,,,,,,,,,,,,,,,,,,,,,,,,,,,,,,,,,,,,,,,,,,,,,,,,,,,,,,,,,,,,,,,,,,,,,,,,,,,,,,,,,,,
,,,,,,7,0,7,0,1,X V Q F H G B L J M P D K C T S W R N Z,5cb6d6608f7ee10016e5abd7,28,Mężczyzna,2022-06-11_09h15.05.916,task,2021.1.4,Win32,60.08171113,6299f149e92ead563fba08ef,62a440ced4c3d28453a014b9,,,,,,,,,,,,,,,,,,,,,,,,,,,,,,,,,,,,,,,,,,,,,,,,,,,,,,,,,,,,,,,,,,,,,,,,,,,,,,,,,,,,,,,,,,,,,,,,,,,,,
,,,,,,8,0,8,0,1,X V Q F H G B L J M P D K C T S W R N Z,5cb6d6608f7ee10016e5abd7,28,Mężczyzna,2022-06-11_09h15.05.916,task,2021.1.4,Win32,60.08171113,6299f149e92ead563fba08ef,62a440ced4c3d28453a014b9,,,,,,,,,,,,,,,,,,,,,,,,,,,,,,,,,,,,,,,,,,,,,,,,,,,,,,,,,,,,,,,,,,,,,,,,,,,,,,,,,,,,,,,,,,,,,,,,,,,,,
,,,,,,9,0,9,0,1,X V Q F H G B L J M P D K C T S W R N Z,5cb6d6608f7ee10016e5abd7,28,Mężczyzna,2022-06-11_09h15.05.916,task,2021.1.4,Win32,60.08171113,6299f149e92ead563fba08ef,62a440ced4c3d28453a014b9,,,,,,,,,,,,,,,,,,,,,,,,,,,,,,,,,,,,,,,,,,,,,,,,,,,,,,,,,,,,,,,,,,,,,,,,,,,,,,,,,,,,,,,,,,,,,,,,,,,,,
,,,,,,10,0,10,0,1,X V Q F H G B L J M P D K C T S W R N Z,5cb6d6608f7ee10016e5abd7,28,Mężczyzna,2022-06-11_09h15.05.916,task,2021.1.4,Win32,60.08171113,6299f149e92ead563fba08ef,62a440ced4c3d28453a014b9,,,,,,,,,,,,,,,,,,,,,,,,,,,,,,,,,,,,,,,,,,,,,,,,,,,,,,,,,,,,,,,,,,,,,,,,,,,,,,,,,,,,,,,,,,,,,,,,,,,,,
,,,,,,11,0,11,0,1,X V Q F H G B L J M P D K C T S W R N Z,5cb6d6608f7ee10016e5abd7,28,Mężczyzna,2022-06-11_09h15.05.916,task,2021.1.4,Win32,60.08171113,6299f149e92ead563fba08ef,62a440ced4c3d28453a014b9,,,,,,,,,,,,,,,,,,,,,,,,,,,,,,,,,,,,,,,,,,,,,,,,,,,,,,,,,,,,,,,,,,,,,,,,,,,,,,,,,,,,,,,,,,,,,,,,,,,,,
,,,,,,12,0,12,0,1,X V Q F H G B L J M P D K C T S W R N Z,5cb6d6608f7ee10016e5abd7,28,Mężczyzna,2022-06-11_09h15.05.916,task,2021.1.4,Win32,60.08171113,6299f149e92ead563fba08ef,62a440ced4c3d28453a014b9,,,,,,,,,,,,,,,,,,,,,,,,,,,,,,,,,,,,,,,,,,,,,,,,,,,,,,,,,,,,,,,,,,,,,,,,,,,,,,,,,,,,,,,,,,,,,,,,,,,,,
,,,,,,13,0,13,0,1,X V Q F H G B L J M P D K C T S W R N Z,5cb6d6608f7ee10016e5abd7,28,Mężczyzna,2022-06-11_09h15.05.916,task,2021.1.4,Win32,60.08171113,6299f149e92ead563fba08ef,62a440ced4c3d28453a014b9,,,,,,,,,,,,,,,,,,,,,,,,,,,,,,,,,,,,,,,,,,,,,,,,,,,,,,,,,,,,,,,,,,,,,,,,,,,,,,,,,,,,,,,,,,,,,,,,,,,,,
,,,,,,,,,,,,5cb6d6608f7ee10016e5abd7,28,Mężczyzna,2022-06-11_09h15.05.916,task,2021.1.4,Win32,60.08171113,6299f149e92ead563fba08ef,62a440ced4c3d28453a014b9,szwmzmnwhpj,"[""s"",""z"",""w"",""m"",""z"",""m"",""n"",""w"",""h"",""p"",""j""]","[2.3539000000001806,2.9989000000001624,3.8816000000001623,4.434700000000248,4.881500000000074,5.4217000000002145,5.651700000000233,6.265700000000265,8.653700000000185,19.286500000000046,19.814000000000078,20.600700000000188]",0,SZWMZMNWHBWBJP,29,0,29,0,1,,,,,,,,,,,,,,,,,,,,,,,,,,,,,,,,,,,,,,,,,,,,,,,,,,,,,,,,,,,,,,,,,,,,,,,,,,,,,,,,,,,,,,,,,,,
,,,,,,0,0,0,0,1,X V Q F H G B L J M P D K C T S W R N Z,5cb6d6608f7ee10016e5abd7,28,Mężczyzna,2022-06-11_09h15.05.916,task,2021.1.4,Win32,60.08171113,6299f149e92ead563fba08ef,62a440ced4c3d28453a014b9,,,,,,,,,,,,,,,,,,,,,,,,,,,,,,,,,,,,,,,,,,,,,,,,,,,,,,,,,,,,,,,,,,,,,,,,,,,,,,,,,,,,,,,,,,,,,,,,,,,,,
,,,,,,1,0,1,0,1,X V Q F H G B L J M P D K C T S W R N Z,5cb6d6608f7ee10016e5abd7,28,Mężczyzna,2022-06-11_09h15.05.916,task,2021.1.4,Win32,60.08171113,6299f149e92ead563fba08ef,62a440ced4c3d28453a014b9,,,,,,,,,,,,,,,,,,,,,,,,,,,,,,,,,,,,,,,,,,,,,,,,,,,,,,,,,,,,,,,,,,,,,,,,,,,,,,,,,,,,,,,,,,,,,,,,,,,,,
,,,,,,2,0,2,0,1,X V Q F H G B L J M P D K C T S W R N Z,5cb6d6608f7ee10016e5abd7,28,Mężczyzna,2022-06-11_09h15.05.916,task,2021.1.4,Win32,60.08171113,6299f149e92ead563fba08ef,62a440ced4c3d28453a014b9,,,,,,,,,,,,,,,,,,,,,,,,,,,,,,,,,,,,,,,,,,,,,,,,,,,,,,,,,,,,,,,,,,,,,,,,,,,,,,,,,,,,,,,,,,,,,,,,,,,,,
,,,,,,3,0,3,0,1,X V Q F H G B L J M P D K C T S W R N Z,5cb6d6608f7ee10016e5abd7,28,Mężczyzna,2022-06-11_09h15.05.916,task,2021.1.4,Win32,60.08171113,6299f149e92ead563fba08ef,62a440ced4c3d28453a014b9,,,,,,,,,,,,,,,,,,,,,,,,,,,,,,,,,,,,,,,,,,,,,,,,,,,,,,,,,,,,,,,,,,,,,,,,,,,,,,,,,,,,,,,,,,,,,,,,,,,,,
,,,,,,4,0,4,0,1,X V Q F H G B L J M P D K C T S W R N Z,5cb6d6608f7ee10016e5abd7,28,Mężczyzna,2022-06-11_09h15.05.916,task,2021.1.4,Win32,60.08171113,6299f149e92ead563fba08ef,62a440ced4c3d28453a014b9,,,,,,,,,,,,,,,,,,,,,,,,,,,,,,,,,,,,,,,,,,,,,,,,,,,,,,,,,,,,,,,,,,,,,,,,,,,,,,,,,,,,,,,,,,,,,,,,,,,,,
,,,,,,5,0,5,0,1,X V Q F H G B L J M P D K C T S W R N Z,5cb6d6608f7ee10016e5abd7,28,Mężczyzna,2022-06-11_09h15.05.916,task,2021.1.4,Win32,60.08171113,6299f149e92ead563fba08ef,62a440ced4c3d28453a014b9,,,,,,,,,,,,,,,,,,,,,,,,,,,,,,,,,,,,,,,,,,,,,,,,,,,,,,,,,,,,,,,,,,,,,,,,,,,,,,,,,,,,,,,,,,,,,,,,,,,,,
,,,,,,6,0,6,0,1,X V Q F H G B L J M P D K C T S W R N Z,5cb6d6608f7ee10016e5abd7,28,Mężczyzna,2022-06-11_09h15.05.916,task,2021.1.4,Win32,60.08171113,6299f149e92ead563fba08ef,62a440ced4c3d28453a014b9,,,,,,,,,,,,,,,,,,,,,,,,,,,,,,,,,,,,,,,,,,,,,,,,,,,,,,,,,,,,,,,,,,,,,,,,,,,,,,,,,,,,,,,,,,,,,,,,,,,,,
,,,,,,7,0,7,0,1,X V Q F H G B L J M P D K C T S W R N Z,5cb6d6608f7ee10016e5abd7,28,Mężczyzna,2022-06-11_09h15.05.916,task,2021.1.4,Win32,60.08171113,6299f149e92ead563fba08ef,62a440ced4c3d28453a014b9,,,,,,,,,,,,,,,,,,,,,,,,,,,,,,,,,,,,,,,,,,,,,,,,,,,,,,,,,,,,,,,,,,,,,,,,,,,,,,,,,,,,,,,,,,,,,,,,,,,,,
,,,,,,8,0,8,0,1,X V Q F H G B L J M P D K C T S W R N Z,5cb6d6608f7ee10016e5abd7,28,Mężczyzna,2022-06-11_09h15.05.916,task,2021.1.4,Win32,60.08171113,6299f149e92ead563fba08ef,62a440ced4c3d28453a014b9,,,,,,,,,,,,,,,,,,,,,,,,,,,,,,,,,,,,,,,,,,,,,,,,,,,,,,,,,,,,,,,,,,,,,,,,,,,,,,,,,,,,,,,,,,,,,,,,,,,,,
,,,,,,9,0,9,0,1,X V Q F H G B L J M P D K C T S W R N Z,5cb6d6608f7ee10016e5abd7,28,Mężczyzna,2022-06-11_09h15.05.916,task,2021.1.4,Win32,60.08171113,6299f149e92ead563fba08ef,62a440ced4c3d28453a014b9,,,,,,,,,,,,,,,,,,,,,,,,,,,,,,,,,,,,,,,,,,,,,,,,,,,,,,,,,,,,,,,,,,,,,,,,,,,,,,,,,,,,,,,,,,,,,,,,,,,,,
,,,,,,10,0,10,0,1,X V Q F H G B L J M P D K C T S W R N Z,5cb6d6608f7ee10016e5abd7,28,Mężczyzna,2022-06-11_09h15.05.916,task,2021.1.4,Win32,60.08171113,6299f149e92ead563fba08ef,62a440ced4c3d28453a014b9,,,,,,,,,,,,,,,,,,,,,,,,,,,,,,,,,,,,,,,,,,,,,,,,,,,,,,,,,,,,,,,,,,,,,,,,,,,,,,,,,,,,,,,,,,,,,,,,,,,,,
,,,,,,11,0,11,0,1,X V Q F H G B L J M P D K C T S W R N Z,5cb6d6608f7ee10016e5abd7,28,Mężczyzna,2022-06-11_09h15.05.916,task,2021.1.4,Win32,60.08171113,6299f149e92ead563fba08ef,62a440ced4c3d28453a014b9,,,,,,,,,,,,,,,,,,,,,,,,,,,,,,,,,,,,,,,,,,,,,,,,,,,,,,,,,,,,,,,,,,,,,,,,,,,,,,,,,,,,,,,,,,,,,,,,,,,,,
,,,,,,12,0,12,0,1,X V Q F H G B L J M P D K C T S W R N Z,5cb6d6608f7ee10016e5abd7,28,Mężczyzna,2022-06-11_09h15.05.916,task,2021.1.4,Win32,60.08171113,6299f149e92ead563fba08ef,62a440ced4c3d28453a014b9,,,,,,,,,,,,,,,,,,,,,,,,,,,,,,,,,,,,,,,,,,,,,,,,,,,,,,,,,,,,,,,,,,,,,,,,,,,,,,,,,,,,,,,,,,,,,,,,,,,,,
,,,,,,13,0,13,0,1,X V Q F H G B L J M P D K C T S W R N Z,5cb6d6608f7ee10016e5abd7,28,Mężczyzna,2022-06-11_09h15.05.916,task,2021.1.4,Win32,60.08171113,6299f149e92ead563fba08ef,62a440ced4c3d28453a014b9,,,,,,,,,,,,,,,,,,,,,,,,,,,,,,,,,,,,,,,,,,,,,,,,,,,,,,,,,,,,,,,,,,,,,,,,,,,,,,,,,,,,,,,,,,,,,,,,,,,,,
,,,,,,,,,,,,5cb6d6608f7ee10016e5abd7,28,Mężczyzna,2022-06-11_09h15.05.916,task,2021.1.4,Win32,60.08171113,6299f149e92ead563fba08ef,62a440ced4c3d28453a014b9,ghcdqqpglhvkrd,"[""g"",""h"",""c"",""d"",""q"",""q"",""p"",""g"",""l"",""h"",""v"",""k"",""r"",""d""]","[3.3040000000000873,3.9828999999999724,8.948799999999892,9.786000000000058,10.56619999999998,10.764899999999898,11.843399999999974,13.03229999999985,13.208899999999971,14.764699999999948,16.655799999999886,17.49009999999987,17.94979999999987,18.4310999999999,18.93159999999989]",0,GZCDQQDGLHVKRD,30,0,30,0,1,,,,,,,,,,,,,,,,,,,,,,,,,,,,,,,,,,,,,,,,,,,,,,,,,,,,,,,,,,,,,,,,,,,,,,,,,,,,,,,,,,,,,,,,,,,
,,,,,,,,,,,,5cb6d6608f7ee10016e5abd7,28,Mężczyzna,2022-06-11_09h15.05.916,task,2021.1.4,Win32,60.08171113,6299f149e92ead563fba08ef,62a440ced4c3d28453a014b9,,,,,,,,,,,space,17.7492,8,"[""8""]",1,[9.879000000000019],[9.879000000000019],0,0,0,8,1,Practice,9,(3x3) - 1,8,,,,,,,,,,,,,,,,,,,,,,,,,,,,,,,,,,,,,,,,,,,,,,,,,,,,,,,,,,,,,,,,,,,,,,,,,,,
,,,,,,,,,,,,5cb6d6608f7ee10016e5abd7,28,Mężczyzna,2022-06-11_09h15.05.916,task,2021.1.4,Win32,60.08171113,6299f149e92ead563fba08ef,62a440ced4c3d28453a014b9,,,,,,,,,,,,,2,"[""2""]",1,[6.756399999999871],"[9.879000000000019,6.756399999999871]",0,1,1,2,1,Practice,3,(4x4) - 14,2,,,,,,,,,,,,,,,,,,,,,,,,,,,,,,,,,,,,,,,,,,,,,,,,,,,,,,,,,,,,,,,,,,,,,,,,,,,
,,,,,,,,,,,,5cb6d6608f7ee10016e5abd7,28,Mężczyzna,2022-06-11_09h15.05.916,task,2021.1.4,Win32,60.08171113,6299f149e92ead563fba08ef,62a440ced4c3d28453a014b9,,,,,,,,,,,,,0,"[""0""]",1,[5.4529999999999745],"[9.879000000000019,6.756399999999871,5.4529999999999745]",0,2,2,0,1,Practice,1,(3x3) -  9,0,,,,,,,,,,,,,,,,,,,,,,,,,,,,,,,,,,,,,,,,,,,,,,,,,,,,,,,,,,,,,,,,,,,,,,,,,,,
,,,,,,,,,,,,5cb6d6608f7ee10016e5abd7,28,Mężczyzna,2022-06-11_09h15.05.916,task,2021.1.4,Win32,60.08171113,6299f149e92ead563fba08ef,62a440ced4c3d28453a014b9,,,,,,,,,,,,,3,"[""3""]",1,[4.601100000000088],"[9.879000000000019,6.756399999999871,5.4529999999999745,4.601100000000088]",0,3,3,3,1,Practice,4,(8/4) + 1,3,,,,,,,,,,,,,,,,,,,,,,,,,,,,,,,,,,,,,,,,,,,,,,,,,,,,,,,,,,,,,,,,,,,,,,,,,,,
,,,,,,,,,,,,5cb6d6608f7ee10016e5abd7,28,Mężczyzna,2022-06-11_09h15.05.916,task,2021.1.4,Win32,60.08171113,6299f149e92ead563fba08ef,62a440ced4c3d28453a014b9,,,,,,,,,,,,,5,"[""5""]",1,[4.634800000000041],"[9.879000000000019,6.756399999999871,5.4529999999999745,4.601100000000088,4.634800000000041]",0,4,4,5,1,Practice,6,(4/2) + 3,5,,,,,,,,,,,,,,,,,,,,,,,,,,,,,,,,,,,,,,,,,,,,,,,,,,,,,,,,,,,,,,,,,,,,,,,,,,,
,,,,,,,,,,,,5cb6d6608f7ee10016e5abd7,28,Mężczyzna,2022-06-11_09h15.05.916,task,2021.1.4,Win32,60.08171113,6299f149e92ead563fba08ef,62a440ced4c3d28453a014b9,,,,,,,,,,,,,7,"[""7""]",1,[4.583499999999958],"[9.879000000000019,6.756399999999871,5.4529999999999745,4.601100000000088,4.634800000000041,4.583499999999958]",0,5,5,7,1,Practice,8,(5x5) - 18,7,,,,,,,,,,,,,,,,,,,,,,,,,,,,,,,,,,,,,,,,,,,,,,,,,,,,,,,,,,,,,,,,,,,,,,,,,,,
,,,,,,,,,,,,5cb6d6608f7ee10016e5abd7,28,Mężczyzna,2022-06-11_09h15.05.916,task,2021.1.4,Win32,60.08171113,6299f149e92ead563fba08ef,62a440ced4c3d28453a014b9,,,,,,,,,,,,,4,"[""4""]",1,[3.9344999999999573],"[9.879000000000019,6.756399999999871,5.4529999999999745,4.601100000000088,4.634800000000041,4.583499999999958,3.9344999999999573]",0,6,6,4,1,Practice,5,(2x6) - 8,4,,,,,,,,,,,,,,,,,,,,,,,,,,,,,,,,,,,,,,,,,,,,,,,,,,,,,,,,,,,,,,,,,,,,,,,,,,,
,,,,,,,,,,,,5cb6d6608f7ee10016e5abd7,28,Mężczyzna,2022-06-11_09h15.05.916,task,2021.1.4,Win32,60.08171113,6299f149e92ead563fba08ef,62a440ced4c3d28453a014b9,,,,,,,,,,,,,6,"[""6""]",1,[3.482699999999909],"[9.879000000000019,6.756399999999871,5.4529999999999745,4.601100000000088,4.634800000000041,4.583499999999958,3.9344999999999573,3.482699999999909]",0,7,7,6,1,Practice,7,(25/5) + 1,6,,,,,,,,,,,,,,,,,,,,,,,,,,,,,,,,,,,,,,,,,,,,,,,,,,,,,,,,,,,,,,,,,,,,,,,,,,,
,,,,,,,,,,,,5cb6d6608f7ee10016e5abd7,28,Mężczyzna,2022-06-11_09h15.05.916,task,2021.1.4,Win32,60.08171113,6299f149e92ead563fba08ef,62a440ced4c3d28453a014b9,,,,,,,,,,,,,9,"[""9""]",1,[3.1031000000000404],"[9.879000000000019,6.756399999999871,5.4529999999999745,4.601100000000088,4.634800000000041,4.583499999999958,3.9344999999999573,3.482699999999909,3.1031000000000404]",0,8,8,9,1,Practice,10,(20/2) - 1,9,,,,,,,,,,,,,,,,,,,,,,,,,,,,,,,,,,,,,,,,,,,,,,,,,,,,,,,,,,,,,,,,,,,,,,,,,,,
,,,,,,,,,,,,5cb6d6608f7ee10016e5abd7,28,Mężczyzna,2022-06-11_09h15.05.916,task,2021.1.4,Win32,60.08171113,6299f149e92ead563fba08ef,62a440ced4c3d28453a014b9,,,,,,,,,,,,,1,"[""1""]",1,[3.4343000000000075],"[9.879000000000019,6.756399999999871,5.4529999999999745,4.601100000000088,4.634800000000041,4.583499999999958,3.9344999999999573,3.482699999999909,3.1031000000000404,3.4343000000000075]",0,9,9,1,1,Practice,2,(4x4) - 15,1,,,,,,,,,,,,,,,,,,,,,,,,,,,,,,,,,,,,,,,,,,,,,,,,,,,,,,,,,,,,,,,,,,,,,,,,,,,
,,,,,,,,,,,,5cb6d6608f7ee10016e5abd7,28,Mężczyzna,2022-06-11_09h15.05.916,task,2021.1.4,Win32,60.08171113,6299f149e92ead563fba08ef,62a440ced4c3d28453a014b9,,,,,,,,,,,,,,,,,,,,,,,,,,,1,49.8624,3.32416,64.67109699,2.076392657,8.681253055,space,2.9664,0,0,0,0,1,,,,,,,,,,,,,,,,,,,,,,,,,,,,,,,,,,,,,,,,,,,,,,,,,,,,,,,,,,,,,,
,,,,,,,,,,,,5cb6d6608f7ee10016e5abd7,28,Mężczyzna,2022-06-11_09h15.05.916,task,2021.1.4,Win32,60.08171113,6299f149e92ead563fba08ef,62a440ced4c3d28453a014b9,,,,,,,,,,,,,5,,,,,,,,,,Practice,6,(4/2) + 3,5,,,,,,,,,,,,,,space,27.7353,"[""5""]",1,[5.328499999999963],1,0,0,0,5,1,,,,,,,,,,,,,,,,,,,,,,,,,,,,,,,,,,,,,,,,,,,,,,,,,,,
,,,,,,,,,,,X V Q F H G B L J M P D K C T S W R N Z,5cb6d6608f7ee10016e5abd7,28,Mężczyzna,2022-06-11_09h15.05.916,task,2021.1.4,Win32,60.08171113,6299f149e92ead563fba08ef,62a440ced4c3d28453a014b9,,,,,,,,,,,,,,,,,,,,,,,,,,,,,,,,,,,,,,,,,,,,,,,,,,,0,0,0,0,1,,,,,,,,,,,,,,,,,,,,,,,,,,,,,,,,,,,,,,,,,,,,,,
,,,,,,,,,,,,5cb6d6608f7ee10016e5abd7,28,Mężczyzna,2022-06-11_09h15.05.916,task,2021.1.4,Win32,60.08171113,6299f149e92ead563fba08ef,62a440ced4c3d28453a014b9,,,,,,,,,,,,,9,,,,,,,,,,Practice,10,(20/2) - 1,9,,,,,,,,,,,,,,,,"[""9""]",1,[8.095700000000193],1,0,0,0,9,1,,,,,,,,,,,,,,,,,,,,,,,,,,,,,,,,,,,,,,,,,,,,,,,,,,,
,,,,,,,,,,,X V Q F H G B L J M P D K C T S W R N Z,5cb6d6608f7ee10016e5abd7,28,Mężczyzna,2022-06-11_09h15.05.916,task,2021.1.4,Win32,60.08171113,6299f149e92ead563fba08ef,62a440ced4c3d28453a014b9,,,,,,,,,,,,,,,,,,,,,,,,,,,,,,,,,,,,,,,,,,,,,,,,,,,1,0,1,0,1,,,,,,,,,,,,,,,,,,,,,,,,,,,,,,,,,,,,,,,,,,,,,,
,,,,,,,,,,,,5cb6d6608f7ee10016e5abd7,28,Mężczyzna,2022-06-11_09h15.05.916,task,2021.1.4,Win32,60.08171113,6299f149e92ead563fba08ef,62a440ced4c3d28453a014b9,,,,,,,,,,,,,,,,,,,,,,,,,,,,,,,,,,,,,,,,,,,,,,,,,,,,,,,,zc,"[""z"",""c""]",0,"[2.050999999999931,2.6506999999999152,3.5560999999997875]",1,0,0,0,0,1,,,,,,,,,,,,,,,,,,,,,,,,,,,,,,,,,,,,
