key_resp_15.keys,key_resp_15.rt,key_resp_13.keys,key_resp_13.corr,key_resp_13.rt,ranodm_loop.thisRepN,ranodm_loop.thisTrialN,ranodm_loop.thisN,ranodm_loop.thisIndex,ranodm_loop.ran,participant,Wiek*,Płeć,date,expName,psychopyVersion,OS,frameRate,study_id,session,key_resp_16.keys,key_resp_16.rt,key_resp_4.keys,key_resp_4.rt,next_letter.thisRepN,next_letter.thisTrialN,next_letter.thisN,next_letter.thisIndex,next_letter.ran,letter,simple_recall,key_resp_5.keys,key_resp_5.rt,simple_recall_corr,simple_recall_corrkeys,next_level.thisRepN,next_level.thisTrialN,next_level.thisN,next_level.thisIndex,next_level.ran,key_resp_2.keys,key_resp_2.rt,digit_answer,key_resp.keys,key_resp.corr,key_resp.rt,RT_list,next_equation.thisRepN,next_equation.thisTrialN,next_equation.thisN,next_equation.thisIndex,next_equation.ran,Task,Trial,Problem,Operation_answer,processing_score,sumRT,meanRT,sumdiff,sd,RT,key_resp_3.keys,key_resp_3.rt,repeat_practice.thisRepN,repeat_practice.thisTrialN,repeat_practice.thisN,repeat_practice.thisIndex,repeat_practice.ran,key_resp_6.keys,key_resp_6.rt,key_resp_11.keys,key_resp_11.corr,key_resp_11.rt,operation_correct,repeat_if_wrong_prac.thisRepN,repeat_if_wrong_prac.thisTrialN,repeat_if_wrong_prac.thisN,repeat_if_wrong_prac.thisIndex,repeat_if_wrong_prac.ran,span_size_prac.thisRepN,span_size_prac.thisTrialN,span_size_prac.thisN,span_size_prac.thisIndex,span_size_prac.ran,complex_recall_practice,key_resp_9.keys,key_resp_9.corr,key_resp_9.rt,complex_prac_corr,span_recall_prac.thisRepN,span_recall_prac.thisTrialN,span_recall_prac.thisN,span_recall_prac.thisIndex,span_recall_prac.ran,key_resp_10.keys,key_resp_10.rt,key_resp_7.keys,key_resp_7.corr,key_resp_7.rt,repeat_if_wrong.thisRepN,repeat_if_wrong.thisTrialN,repeat_if_wrong.thisN,repeat_if_wrong.thisIndex,repeat_if_wrong.ran,span_size.thisRepN,span_size.thisTrialN,span_size.thisN,span_size.thisIndex,span_size.ran,complex_recall,key_resp_8.keys,key_resp_8.corr,key_resp_8.rt,complex_recall_corr,complex_recall_corrkeys,span_recall.thisRepN,span_recall.thisTrialN,span_recall.thisN,span_recall.thisIndex,span_recall.ran,key_resp_12.keys,key_resp_12.rt
space,25.626,"[""comma""]",0,[1.2250000000000085],0,0,0,0,1,5cb72e7625f45e0017c31287,31,Mężczyzna,2022-06-04_08h13.19.148,task,2021.1.4,Win32,60.0240096,628b806c463b948bc644b84f,629af7dff64c3b3a748b2242,,,,,,,,,,,,,,,,,,,,,,,,,,,,,,,,,,,,,,,,,,,,,,,,,,,,,,,,,,,,,,,,,,,,,,,,,,,,,,,,,,,,,,,,,,,,,,,,,,,,,,,
,,"[""period""]",0,[0.722999999999999],1,0,1,0,1,5cb72e7625f45e0017c31287,31,Mężczyzna,2022-06-04_08h13.19.148,task,2021.1.4,Win32,60.0240096,628b806c463b948bc644b84f,629af7dff64c3b3a748b2242,,,,,,,,,,,,,,,,,,,,,,,,,,,,,,,,,,,,,,,,,,,,,,,,,,,,,,,,,,,,,,,,,,,,,,,,,,,,,,,,,,,,,,,,,,,,,,,,,,,,,,,
,,"[""period""]",0,[0.6569999999999965],2,0,2,0,1,5cb72e7625f45e0017c31287,31,Mężczyzna,2022-06-04_08h13.19.148,task,2021.1.4,Win32,60.0240096,628b806c463b948bc644b84f,629af7dff64c3b3a748b2242,,,,,,,,,,,,,,,,,,,,,,,,,,,,,,,,,,,,,,,,,,,,,,,,,,,,,,,,,,,,,,,,,,,,,,,,,,,,,,,,,,,,,,,,,,,,,,,,,,,,,,,
,,"[""comma""]",0,[0.4989999999999952],3,0,3,0,1,5cb72e7625f45e0017c31287,31,Mężczyzna,2022-06-04_08h13.19.148,task,2021.1.4,Win32,60.0240096,628b806c463b948bc644b84f,629af7dff64c3b3a748b2242,,,,,,,,,,,,,,,,,,,,,,,,,,,,,,,,,,,,,,,,,,,,,,,,,,,,,,,,,,,,,,,,,,,,,,,,,,,,,,,,,,,,,,,,,,,,,,,,,,,,,,,
,,"[""comma""]",0,[0.6899999999999977],4,0,4,0,1,5cb72e7625f45e0017c31287,31,Mężczyzna,2022-06-04_08h13.19.148,task,2021.1.4,Win32,60.0240096,628b806c463b948bc644b84f,629af7dff64c3b3a748b2242,,,,,,,,,,,,,,,,,,,,,,,,,,,,,,,,,,,,,,,,,,,,,,,,,,,,,,,,,,,,,,,,,,,,,,,,,,,,,,,,,,,,,,,,,,,,,,,,,,,,,,,
,,"[""comma""]",0,[0.7669999999999959],5,0,5,0,1,5cb72e7625f45e0017c31287,31,Mężczyzna,2022-06-04_08h13.19.148,task,2021.1.4,Win32,60.0240096,628b806c463b948bc644b84f,629af7dff64c3b3a748b2242,,,,,,,,,,,,,,,,,,,,,,,,,,,,,,,,,,,,,,,,,,,,,,,,,,,,,,,,,,,,,,,,,,,,,,,,,,,,,,,,,,,,,,,,,,,,,,,,,,,,,,,
,,"[""period""]",0,[0.75],6,0,6,0,1,5cb72e7625f45e0017c31287,31,Mężczyzna,2022-06-04_08h13.19.148,task,2021.1.4,Win32,60.0240096,628b806c463b948bc644b84f,629af7dff64c3b3a748b2242,,,,,,,,,,,,,,,,,,,,,,,,,,,,,,,,,,,,,,,,,,,,,,,,,,,,,,,,,,,,,,,,,,,,,,,,,,,,,,,,,,,,,,,,,,,,,,,,,,,,,,,
,,"[""period""]",0,[0.8659999999999997],7,0,7,0,1,5cb72e7625f45e0017c31287,31,Mężczyzna,2022-06-04_08h13.19.148,task,2021.1.4,Win32,60.0240096,628b806c463b948bc644b84f,629af7dff64c3b3a748b2242,,,,,,,,,,,,,,,,,,,,,,,,,,,,,,,,,,,,,,,,,,,,,,,,,,,,,,,,,,,,,,,,,,,,,,,,,,,,,,,,,,,,,,,,,,,,,,,,,,,,,,,
,,"[""comma""]",0,[0.5090000000000003],8,0,8,0,1,5cb72e7625f45e0017c31287,31,Mężczyzna,2022-06-04_08h13.19.148,task,2021.1.4,Win32,60.0240096,628b806c463b948bc644b84f,629af7dff64c3b3a748b2242,,,,,,,,,,,,,,,,,,,,,,,,,,,,,,,,,,,,,,,,,,,,,,,,,,,,,,,,,,,,,,,,,,,,,,,,,,,,,,,,,,,,,,,,,,,,,,,,,,,,,,,
,,"[""comma""]",0,[0.554000000000002],9,0,9,0,1,5cb72e7625f45e0017c31287,31,Mężczyzna,2022-06-04_08h13.19.148,task,2021.1.4,Win32,60.0240096,628b806c463b948bc644b84f,629af7dff64c3b3a748b2242,,,,,,,,,,,,,,,,,,,,,,,,,,,,,,,,,,,,,,,,,,,,,,,,,,,,,,,,,,,,,,,,,,,,,,,,,,,,,,,,,,,,,,,,,,,,,,,,,,,,,,,
,,"[""period""]",0,[0.7169999999999987],10,0,10,0,1,5cb72e7625f45e0017c31287,31,Mężczyzna,2022-06-04_08h13.19.148,task,2021.1.4,Win32,60.0240096,628b806c463b948bc644b84f,629af7dff64c3b3a748b2242,,,,,,,,,,,,,,,,,,,,,,,,,,,,,,,,,,,,,,,,,,,,,,,,,,,,,,,,,,,,,,,,,,,,,,,,,,,,,,,,,,,,,,,,,,,,,,,,,,,,,,,
,,"[""comma""]",0,[0.7249999999999943],11,0,11,0,1,5cb72e7625f45e0017c31287,31,Mężczyzna,2022-06-04_08h13.19.148,task,2021.1.4,Win32,60.0240096,628b806c463b948bc644b84f,629af7dff64c3b3a748b2242,,,,,,,,,,,,,,,,,,,,,,,,,,,,,,,,,,,,,,,,,,,,,,,,,,,,,,,,,,,,,,,,,,,,,,,,,,,,,,,,,,,,,,,,,,,,,,,,,,,,,,,
,,"[""comma""]",0,[0.6090000000000089],12,0,12,0,1,5cb72e7625f45e0017c31287,31,Mężczyzna,2022-06-04_08h13.19.148,task,2021.1.4,Win32,60.0240096,628b806c463b948bc644b84f,629af7dff64c3b3a748b2242,,,,,,,,,,,,,,,,,,,,,,,,,,,,,,,,,,,,,,,,,,,,,,,,,,,,,,,,,,,,,,,,,,,,,,,,,,,,,,,,,,,,,,,,,,,,,,,,,,,,,,,
,,"[""period""]",0,[0.3439999999999941],13,0,13,0,1,5cb72e7625f45e0017c31287,31,Mężczyzna,2022-06-04_08h13.19.148,task,2021.1.4,Win32,60.0240096,628b806c463b948bc644b84f,629af7dff64c3b3a748b2242,,,,,,,,,,,,,,,,,,,,,,,,,,,,,,,,,,,,,,,,,,,,,,,,,,,,,,,,,,,,,,,,,,,,,,,,,,,,,,,,,,,,,,,,,,,,,,,,,,,,,,,
,,"[""comma""]",0,[0.47100000000000364],14,0,14,0,1,5cb72e7625f45e0017c31287,31,Mężczyzna,2022-06-04_08h13.19.148,task,2021.1.4,Win32,60.0240096,628b806c463b948bc644b84f,629af7dff64c3b3a748b2242,,,,,,,,,,,,,,,,,,,,,,,,,,,,,,,,,,,,,,,,,,,,,,,,,,,,,,,,,,,,,,,,,,,,,,,,,,,,,,,,,,,,,,,,,,,,,,,,,,,,,,,
,,"[""period""]",0,[0.7210000000000036],15,0,15,0,1,5cb72e7625f45e0017c31287,31,Mężczyzna,2022-06-04_08h13.19.148,task,2021.1.4,Win32,60.0240096,628b806c463b948bc644b84f,629af7dff64c3b3a748b2242,,,,,,,,,,,,,,,,,,,,,,,,,,,,,,,,,,,,,,,,,,,,,,,,,,,,,,,,,,,,,,,,,,,,,,,,,,,,,,,,,,,,,,,,,,,,,,,,,,,,,,,
,,"[""period""]",0,[0.6099999999999852],16,0,16,0,1,5cb72e7625f45e0017c31287,31,Mężczyzna,2022-06-04_08h13.19.148,task,2021.1.4,Win32,60.0240096,628b806c463b948bc644b84f,629af7dff64c3b3a748b2242,,,,,,,,,,,,,,,,,,,,,,,,,,,,,,,,,,,,,,,,,,,,,,,,,,,,,,,,,,,,,,,,,,,,,,,,,,,,,,,,,,,,,,,,,,,,,,,,,,,,,,,
,,"[""comma""]",0,[0.40100000000001046],17,0,17,0,1,5cb72e7625f45e0017c31287,31,Mężczyzna,2022-06-04_08h13.19.148,task,2021.1.4,Win32,60.0240096,628b806c463b948bc644b84f,629af7dff64c3b3a748b2242,,,,,,,,,,,,,,,,,,,,,,,,,,,,,,,,,,,,,,,,,,,,,,,,,,,,,,,,,,,,,,,,,,,,,,,,,,,,,,,,,,,,,,,,,,,,,,,,,,,,,,,
,,"[""comma""]",0,[0.9339999999999975],18,0,18,0,1,5cb72e7625f45e0017c31287,31,Mężczyzna,2022-06-04_08h13.19.148,task,2021.1.4,Win32,60.0240096,628b806c463b948bc644b84f,629af7dff64c3b3a748b2242,,,,,,,,,,,,,,,,,,,,,,,,,,,,,,,,,,,,,,,,,,,,,,,,,,,,,,,,,,,,,,,,,,,,,,,,,,,,,,,,,,,,,,,,,,,,,,,,,,,,,,,
,,"[""period""]",0,[0.5069999999999766],19,0,19,0,1,5cb72e7625f45e0017c31287,31,Mężczyzna,2022-06-04_08h13.19.148,task,2021.1.4,Win32,60.0240096,628b806c463b948bc644b84f,629af7dff64c3b3a748b2242,,,,,,,,,,,,,,,,,,,,,,,,,,,,,,,,,,,,,,,,,,,,,,,,,,,,,,,,,,,,,,,,,,,,,,,,,,,,,,,,,,,,,,,,,,,,,,,,,,,,,,,
,,"[""comma""]",0,[0.35499999999998977],20,0,20,0,1,5cb72e7625f45e0017c31287,31,Mężczyzna,2022-06-04_08h13.19.148,task,2021.1.4,Win32,60.0240096,628b806c463b948bc644b84f,629af7dff64c3b3a748b2242,,,,,,,,,,,,,,,,,,,,,,,,,,,,,,,,,,,,,,,,,,,,,,,,,,,,,,,,,,,,,,,,,,,,,,,,,,,,,,,,,,,,,,,,,,,,,,,,,,,,,,,
,,"[""comma""]",0,[0.4099999999999966],21,0,21,0,1,5cb72e7625f45e0017c31287,31,Mężczyzna,2022-06-04_08h13.19.148,task,2021.1.4,Win32,60.0240096,628b806c463b948bc644b84f,629af7dff64c3b3a748b2242,,,,,,,,,,,,,,,,,,,,,,,,,,,,,,,,,,,,,,,,,,,,,,,,,,,,,,,,,,,,,,,,,,,,,,,,,,,,,,,,,,,,,,,,,,,,,,,,,,,,,,,
,,"[""comma""]",0,[0.33499999999997954],22,0,22,0,1,5cb72e7625f45e0017c31287,31,Mężczyzna,2022-06-04_08h13.19.148,task,2021.1.4,Win32,60.0240096,628b806c463b948bc644b84f,629af7dff64c3b3a748b2242,,,,,,,,,,,,,,,,,,,,,,,,,,,,,,,,,,,,,,,,,,,,,,,,,,,,,,,,,,,,,,,,,,,,,,,,,,,,,,,,,,,,,,,,,,,,,,,,,,,,,,,
,,"[""period""]",0,[0.49100000000001387],23,0,23,0,1,5cb72e7625f45e0017c31287,31,Mężczyzna,2022-06-04_08h13.19.148,task,2021.1.4,Win32,60.0240096,628b806c463b948bc644b84f,629af7dff64c3b3a748b2242,,,,,,,,,,,,,,,,,,,,,,,,,,,,,,,,,,,,,,,,,,,,,,,,,,,,,,,,,,,,,,,,,,,,,,,,,,,,,,,,,,,,,,,,,,,,,,,,,,,,,,,
,,"[""comma""]",0,[0.5159999999999911],24,0,24,0,1,5cb72e7625f45e0017c31287,31,Mężczyzna,2022-06-04_08h13.19.148,task,2021.1.4,Win32,60.0240096,628b806c463b948bc644b84f,629af7dff64c3b3a748b2242,,,,,,,,,,,,,,,,,,,,,,,,,,,,,,,,,,,,,,,,,,,,,,,,,,,,,,,,,,,,,,,,,,,,,,,,,,,,,,,,,,,,,,,,,,,,,,,,,,,,,,,
,,"[""period""]",0,[0.8009999999999877],25,0,25,0,1,5cb72e7625f45e0017c31287,31,Mężczyzna,2022-06-04_08h13.19.148,task,2021.1.4,Win32,60.0240096,628b806c463b948bc644b84f,629af7dff64c3b3a748b2242,,,,,,,,,,,,,,,,,,,,,,,,,,,,,,,,,,,,,,,,,,,,,,,,,,,,,,,,,,,,,,,,,,,,,,,,,,,,,,,,,,,,,,,,,,,,,,,,,,,,,,,
,,"[""period""]",0,[0.6670000000000016],26,0,26,0,1,5cb72e7625f45e0017c31287,31,Mężczyzna,2022-06-04_08h13.19.148,task,2021.1.4,Win32,60.0240096,628b806c463b948bc644b84f,629af7dff64c3b3a748b2242,,,,,,,,,,,,,,,,,,,,,,,,,,,,,,,,,,,,,,,,,,,,,,,,,,,,,,,,,,,,,,,,,,,,,,,,,,,,,,,,,,,,,,,,,,,,,,,,,,,,,,,
,,"[""comma""]",0,[0.6570000000000107],27,0,27,0,1,5cb72e7625f45e0017c31287,31,Mężczyzna,2022-06-04_08h13.19.148,task,2021.1.4,Win32,60.0240096,628b806c463b948bc644b84f,629af7dff64c3b3a748b2242,,,,,,,,,,,,,,,,,,,,,,,,,,,,,,,,,,,,,,,,,,,,,,,,,,,,,,,,,,,,,,,,,,,,,,,,,,,,,,,,,,,,,,,,,,,,,,,,,,,,,,,
,,"[""period""]",0,[0.5999999999999943],28,0,28,0,1,5cb72e7625f45e0017c31287,31,Mężczyzna,2022-06-04_08h13.19.148,task,2021.1.4,Win32,60.0240096,628b806c463b948bc644b84f,629af7dff64c3b3a748b2242,,,,,,,,,,,,,,,,,,,,,,,,,,,,,,,,,,,,,,,,,,,,,,,,,,,,,,,,,,,,,,,,,,,,,,,,,,,,,,,,,,,,,,,,,,,,,,,,,,,,,,,
,,"[""comma""]",0,[0.46000000000000796],29,0,29,0,1,5cb72e7625f45e0017c31287,31,Mężczyzna,2022-06-04_08h13.19.148,task,2021.1.4,Win32,60.0240096,628b806c463b948bc644b84f,629af7dff64c3b3a748b2242,,,,,,,,,,,,,,,,,,,,,,,,,,,,,,,,,,,,,,,,,,,,,,,,,,,,,,,,,,,,,,,,,,,,,,,,,,,,,,,,,,,,,,,,,,,,,,,,,,,,,,,
,,"[""comma""]",0,[0.31800000000001205],30,0,30,0,1,5cb72e7625f45e0017c31287,31,Mężczyzna,2022-06-04_08h13.19.148,task,2021.1.4,Win32,60.0240096,628b806c463b948bc644b84f,629af7dff64c3b3a748b2242,,,,,,,,,,,,,,,,,,,,,,,,,,,,,,,,,,,,,,,,,,,,,,,,,,,,,,,,,,,,,,,,,,,,,,,,,,,,,,,,,,,,,,,,,,,,,,,,,,,,,,,
,,"[""comma""]",0,[0.49099999999998545],31,0,31,0,1,5cb72e7625f45e0017c31287,31,Mężczyzna,2022-06-04_08h13.19.148,task,2021.1.4,Win32,60.0240096,628b806c463b948bc644b84f,629af7dff64c3b3a748b2242,,,,,,,,,,,,,,,,,,,,,,,,,,,,,,,,,,,,,,,,,,,,,,,,,,,,,,,,,,,,,,,,,,,,,,,,,,,,,,,,,,,,,,,,,,,,,,,,,,,,,,,
,,"[""period""]",0,[0.3199999999999932],32,0,32,0,1,5cb72e7625f45e0017c31287,31,Mężczyzna,2022-06-04_08h13.19.148,task,2021.1.4,Win32,60.0240096,628b806c463b948bc644b84f,629af7dff64c3b3a748b2242,,,,,,,,,,,,,,,,,,,,,,,,,,,,,,,,,,,,,,,,,,,,,,,,,,,,,,,,,,,,,,,,,,,,,,,,,,,,,,,,,,,,,,,,,,,,,,,,,,,,,,,
,,"[""comma""]",0,[0.3329999999999984],33,0,33,0,1,5cb72e7625f45e0017c31287,31,Mężczyzna,2022-06-04_08h13.19.148,task,2021.1.4,Win32,60.0240096,628b806c463b948bc644b84f,629af7dff64c3b3a748b2242,,,,,,,,,,,,,,,,,,,,,,,,,,,,,,,,,,,,,,,,,,,,,,,,,,,,,,,,,,,,,,,,,,,,,,,,,,,,,,,,,,,,,,,,,,,,,,,,,,,,,,,
,,"[""comma""]",0,[0.3410000000000082],34,0,34,0,1,5cb72e7625f45e0017c31287,31,Mężczyzna,2022-06-04_08h13.19.148,task,2021.1.4,Win32,60.0240096,628b806c463b948bc644b84f,629af7dff64c3b3a748b2242,,,,,,,,,,,,,,,,,,,,,,,,,,,,,,,,,,,,,,,,,,,,,,,,,,,,,,,,,,,,,,,,,,,,,,,,,,,,,,,,,,,,,,,,,,,,,,,,,,,,,,,
,,"[""period""]",0,[0.3509999999999991],35,0,35,0,1,5cb72e7625f45e0017c31287,31,Mężczyzna,2022-06-04_08h13.19.148,task,2021.1.4,Win32,60.0240096,628b806c463b948bc644b84f,629af7dff64c3b3a748b2242,,,,,,,,,,,,,,,,,,,,,,,,,,,,,,,,,,,,,,,,,,,,,,,,,,,,,,,,,,,,,,,,,,,,,,,,,,,,,,,,,,,,,,,,,,,,,,,,,,,,,,,
,,"[""period""]",0,[0.4720000000000084],36,0,36,0,1,5cb72e7625f45e0017c31287,31,Mężczyzna,2022-06-04_08h13.19.148,task,2021.1.4,Win32,60.0240096,628b806c463b948bc644b84f,629af7dff64c3b3a748b2242,,,,,,,,,,,,,,,,,,,,,,,,,,,,,,,,,,,,,,,,,,,,,,,,,,,,,,,,,,,,,,,,,,,,,,,,,,,,,,,,,,,,,,,,,,,,,,,,,,,,,,,
,,"[""comma""]",0,[0.30100000000001614],37,0,37,0,1,5cb72e7625f45e0017c31287,31,Mężczyzna,2022-06-04_08h13.19.148,task,2021.1.4,Win32,60.0240096,628b806c463b948bc644b84f,629af7dff64c3b3a748b2242,,,,,,,,,,,,,,,,,,,,,,,,,,,,,,,,,,,,,,,,,,,,,,,,,,,,,,,,,,,,,,,,,,,,,,,,,,,,,,,,,,,,,,,,,,,,,,,,,,,,,,,
,,"[""period""]",0,[0.4189999999999827],38,0,38,0,1,5cb72e7625f45e0017c31287,31,Mężczyzna,2022-06-04_08h13.19.148,task,2021.1.4,Win32,60.0240096,628b806c463b948bc644b84f,629af7dff64c3b3a748b2242,,,,,,,,,,,,,,,,,,,,,,,,,,,,,,,,,,,,,,,,,,,,,,,,,,,,,,,,,,,,,,,,,,,,,,,,,,,,,,,,,,,,,,,,,,,,,,,,,,,,,,,
,,"[""comma""]",0,[0.4060000000000059],39,0,39,0,1,5cb72e7625f45e0017c31287,31,Mężczyzna,2022-06-04_08h13.19.148,task,2021.1.4,Win32,60.0240096,628b806c463b948bc644b84f,629af7dff64c3b3a748b2242,,,,,,,,,,,,,,,,,,,,,,,,,,,,,,,,,,,,,,,,,,,,,,,,,,,,,,,,,,,,,,,,,,,,,,,,,,,,,,,,,,,,,,,,,,,,,,,,,,,,,,,
,,"[""comma""]",0,[0.6850000000000023],40,0,40,0,1,5cb72e7625f45e0017c31287,31,Mężczyzna,2022-06-04_08h13.19.148,task,2021.1.4,Win32,60.0240096,628b806c463b948bc644b84f,629af7dff64c3b3a748b2242,,,,,,,,,,,,,,,,,,,,,,,,,,,,,,,,,,,,,,,,,,,,,,,,,,,,,,,,,,,,,,,,,,,,,,,,,,,,,,,,,,,,,,,,,,,,,,,,,,,,,,,
,,"[""period""]",0,[0.6499999999999773],41,0,41,0,1,5cb72e7625f45e0017c31287,31,Mężczyzna,2022-06-04_08h13.19.148,task,2021.1.4,Win32,60.0240096,628b806c463b948bc644b84f,629af7dff64c3b3a748b2242,,,,,,,,,,,,,,,,,,,,,,,,,,,,,,,,,,,,,,,,,,,,,,,,,,,,,,,,,,,,,,,,,,,,,,,,,,,,,,,,,,,,,,,,,,,,,,,,,,,,,,,
,,"[""comma""]",0,[0.29999999999998295],42,0,42,0,1,5cb72e7625f45e0017c31287,31,Mężczyzna,2022-06-04_08h13.19.148,task,2021.1.4,Win32,60.0240096,628b806c463b948bc644b84f,629af7dff64c3b3a748b2242,,,,,,,,,,,,,,,,,,,,,,,,,,,,,,,,,,,,,,,,,,,,,,,,,,,,,,,,,,,,,,,,,,,,,,,,,,,,,,,,,,,,,,,,,,,,,,,,,,,,,,,
,,"[""comma""]",0,[0.3050000000000068],43,0,43,0,1,5cb72e7625f45e0017c31287,31,Mężczyzna,2022-06-04_08h13.19.148,task,2021.1.4,Win32,60.0240096,628b806c463b948bc644b84f,629af7dff64c3b3a748b2242,,,,,,,,,,,,,,,,,,,,,,,,,,,,,,,,,,,,,,,,,,,,,,,,,,,,,,,,,,,,,,,,,,,,,,,,,,,,,,,,,,,,,,,,,,,,,,,,,,,,,,,
,,"[""comma""]",0,[0.339999999999975],44,0,44,0,1,5cb72e7625f45e0017c31287,31,Mężczyzna,2022-06-04_08h13.19.148,task,2021.1.4,Win32,60.0240096,628b806c463b948bc644b84f,629af7dff64c3b3a748b2242,,,,,,,,,,,,,,,,,,,,,,,,,,,,,,,,,,,,,,,,,,,,,,,,,,,,,,,,,,,,,,,,,,,,,,,,,,,,,,,,,,,,,,,,,,,,,,,,,,,,,,,
,,"[""period""]",0,[0.3509999999999991],45,0,45,0,1,5cb72e7625f45e0017c31287,31,Mężczyzna,2022-06-04_08h13.19.148,task,2021.1.4,Win32,60.0240096,628b806c463b948bc644b84f,629af7dff64c3b3a748b2242,,,,,,,,,,,,,,,,,,,,,,,,,,,,,,,,,,,,,,,,,,,,,,,,,,,,,,,,,,,,,,,,,,,,,,,,,,,,,,,,,,,,,,,,,,,,,,,,,,,,,,,
,,"[""period""]",0,[0.30700000000001637],46,0,46,0,1,5cb72e7625f45e0017c31287,31,Mężczyzna,2022-06-04_08h13.19.148,task,2021.1.4,Win32,60.0240096,628b806c463b948bc644b84f,629af7dff64c3b3a748b2242,,,,,,,,,,,,,,,,,,,,,,,,,,,,,,,,,,,,,,,,,,,,,,,,,,,,,,,,,,,,,,,,,,,,,,,,,,,,,,,,,,,,,,,,,,,,,,,,,,,,,,,
,,"[""comma""]",0,[0.3599999999999852],47,0,47,0,1,5cb72e7625f45e0017c31287,31,Mężczyzna,2022-06-04_08h13.19.148,task,2021.1.4,Win32,60.0240096,628b806c463b948bc644b84f,629af7dff64c3b3a748b2242,,,,,,,,,,,,,,,,,,,,,,,,,,,,,,,,,,,,,,,,,,,,,,,,,,,,,,,,,,,,,,,,,,,,,,,,,,,,,,,,,,,,,,,,,,,,,,,,,,,,,,,
,,"[""comma""]",0,[0.4939999999999998],48,0,48,0,1,5cb72e7625f45e0017c31287,31,Mężczyzna,2022-06-04_08h13.19.148,task,2021.1.4,Win32,60.0240096,628b806c463b948bc644b84f,629af7dff64c3b3a748b2242,,,,,,,,,,,,,,,,,,,,,,,,,,,,,,,,,,,,,,,,,,,,,,,,,,,,,,,,,,,,,,,,,,,,,,,,,,,,,,,,,,,,,,,,,,,,,,,,,,,,,,,
,,"[""period""]",0,[0.43600000000000705],49,0,49,0,1,5cb72e7625f45e0017c31287,31,Mężczyzna,2022-06-04_08h13.19.148,task,2021.1.4,Win32,60.0240096,628b806c463b948bc644b84f,629af7dff64c3b3a748b2242,,,,,,,,,,,,,,,,,,,,,,,,,,,,,,,,,,,,,,,,,,,,,,,,,,,,,,,,,,,,,,,,,,,,,,,,,,,,,,,,,,,,,,,,,,,,,,,,,,,,,,,
,,"[""comma"",""period""]",0,"[0.2740000000000009,1.792999999999978]",50,0,50,0,1,5cb72e7625f45e0017c31287,31,Mężczyzna,2022-06-04_08h13.19.148,task,2021.1.4,Win32,60.0240096,628b806c463b948bc644b84f,629af7dff64c3b3a748b2242,,,,,,,,,,,,,,,,,,,,,,,,,,,,,,,,,,,,,,,,,,,,,,,,,,,,,,,,,,,,,,,,,,,,,,,,,,,,,,,,,,,,,,,,,,,,,,,,,,,,,,,
,,,0,,51,0,51,0,1,5cb72e7625f45e0017c31287,31,Mężczyzna,2022-06-04_08h13.19.148,task,2021.1.4,Win32,60.0240096,628b806c463b948bc644b84f,629af7dff64c3b3a748b2242,,,,,,,,,,,,,,,,,,,,,,,,,,,,,,,,,,,,,,,,,,,,,,,,,,,,,,,,,,,,,,,,,,,,,,,,,,,,,,,,,,,,,,,,,,,,,,,,,,,,,,,
,,"[""period"",""comma""]",0,"[0.03499999999999659,1.5510000000000161]",52,0,52,0,1,5cb72e7625f45e0017c31287,31,Mężczyzna,2022-06-04_08h13.19.148,task,2021.1.4,Win32,60.0240096,628b806c463b948bc644b84f,629af7dff64c3b3a748b2242,,,,,,,,,,,,,,,,,,,,,,,,,,,,,,,,,,,,,,,,,,,,,,,,,,,,,,,,,,,,,,,,,,,,,,,,,,,,,,,,,,,,,,,,,,,,,,,,,,,,,,,
,,"[""comma""]",0,[0.7439999999999998],53,0,53,0,1,5cb72e7625f45e0017c31287,31,Mężczyzna,2022-06-04_08h13.19.148,task,2021.1.4,Win32,60.0240096,628b806c463b948bc644b84f,629af7dff64c3b3a748b2242,,,,,,,,,,,,,,,,,,,,,,,,,,,,,,,,,,,,,,,,,,,,,,,,,,,,,,,,,,,,,,,,,,,,,,,,,,,,,,,,,,,,,,,,,,,,,,,,,,,,,,,
,,"[""period""]",0,[0.5529999999999973],54,0,54,0,1,5cb72e7625f45e0017c31287,31,Mężczyzna,2022-06-04_08h13.19.148,task,2021.1.4,Win32,60.0240096,628b806c463b948bc644b84f,629af7dff64c3b3a748b2242,,,,,,,,,,,,,,,,,,,,,,,,,,,,,,,,,,,,,,,,,,,,,,,,,,,,,,,,,,,,,,,,,,,,,,,,,,,,,,,,,,,,,,,,,,,,,,,,,,,,,,,
,,"[""comma""]",0,[0.48400000000000887],55,0,55,0,1,5cb72e7625f45e0017c31287,31,Mężczyzna,2022-06-04_08h13.19.148,task,2021.1.4,Win32,60.0240096,628b806c463b948bc644b84f,629af7dff64c3b3a748b2242,,,,,,,,,,,,,,,,,,,,,,,,,,,,,,,,,,,,,,,,,,,,,,,,,,,,,,,,,,,,,,,,,,,,,,,,,,,,,,,,,,,,,,,,,,,,,,,,,,,,,,,
,,"[""comma""]",0,[0.585000000000008],56,0,56,0,1,5cb72e7625f45e0017c31287,31,Mężczyzna,2022-06-04_08h13.19.148,task,2021.1.4,Win32,60.0240096,628b806c463b948bc644b84f,629af7dff64c3b3a748b2242,,,,,,,,,,,,,,,,,,,,,,,,,,,,,,,,,,,,,,,,,,,,,,,,,,,,,,,,,,,,,,,,,,,,,,,,,,,,,,,,,,,,,,,,,,,,,,,,,,,,,,,
,,"[""period""]",0,[0.4339999999999975],57,0,57,0,1,5cb72e7625f45e0017c31287,31,Mężczyzna,2022-06-04_08h13.19.148,task,2021.1.4,Win32,60.0240096,628b806c463b948bc644b84f,629af7dff64c3b3a748b2242,,,,,,,,,,,,,,,,,,,,,,,,,,,,,,,,,,,,,,,,,,,,,,,,,,,,,,,,,,,,,,,,,,,,,,,,,,,,,,,,,,,,,,,,,,,,,,,,,,,,,,,
,,"[""comma""]",0,[0.32099999999999795],58,0,58,0,1,5cb72e7625f45e0017c31287,31,Mężczyzna,2022-06-04_08h13.19.148,task,2021.1.4,Win32,60.0240096,628b806c463b948bc644b84f,629af7dff64c3b3a748b2242,,,,,,,,,,,,,,,,,,,,,,,,,,,,,,,,,,,,,,,,,,,,,,,,,,,,,,,,,,,,,,,,,,,,,,,,,,,,,,,,,,,,,,,,,,,,,,,,,,,,,,,
,,"[""period""]",0,[0.3499999999999943],59,0,59,0,1,5cb72e7625f45e0017c31287,31,Mężczyzna,2022-06-04_08h13.19.148,task,2021.1.4,Win32,60.0240096,628b806c463b948bc644b84f,629af7dff64c3b3a748b2242,,,,,,,,,,,,,,,,,,,,,,,,,,,,,,,,,,,,,,,,,,,,,,,,,,,,,,,,,,,,,,,,,,,,,,,,,,,,,,,,,,,,,,,,,,,,,,,,,,,,,,,
,,"[""period""]",0,[0.2179999999999893],60,0,60,0,1,5cb72e7625f45e0017c31287,31,Mężczyzna,2022-06-04_08h13.19.148,task,2021.1.4,Win32,60.0240096,628b806c463b948bc644b84f,629af7dff64c3b3a748b2242,,,,,,,,,,,,,,,,,,,,,,,,,,,,,,,,,,,,,,,,,,,,,,,,,,,,,,,,,,,,,,,,,,,,,,,,,,,,,,,,,,,,,,,,,,,,,,,,,,,,,,,
,,"[""comma""]",0,[0.617999999999995],61,0,61,0,1,5cb72e7625f45e0017c31287,31,Mężczyzna,2022-06-04_08h13.19.148,task,2021.1.4,Win32,60.0240096,628b806c463b948bc644b84f,629af7dff64c3b3a748b2242,,,,,,,,,,,,,,,,,,,,,,,,,,,,,,,,,,,,,,,,,,,,,,,,,,,,,,,,,,,,,,,,,,,,,,,,,,,,,,,,,,,,,,,,,,,,,,,,,,,,,,,
,,"[""comma""]",0,[0.4450000000000216],62,0,62,0,1,5cb72e7625f45e0017c31287,31,Mężczyzna,2022-06-04_08h13.19.148,task,2021.1.4,Win32,60.0240096,628b806c463b948bc644b84f,629af7dff64c3b3a748b2242,,,,,,,,,,,,,,,,,,,,,,,,,,,,,,,,,,,,,,,,,,,,,,,,,,,,,,,,,,,,,,,,,,,,,,,,,,,,,,,,,,,,,,,,,,,,,,,,,,,,,,,
,,"[""period""]",0,[0.2179999999999893],63,0,63,0,1,5cb72e7625f45e0017c31287,31,Mężczyzna,2022-06-04_08h13.19.148,task,2021.1.4,Win32,60.0240096,628b806c463b948bc644b84f,629af7dff64c3b3a748b2242,,,,,,,,,,,,,,,,,,,,,,,,,,,,,,,,,,,,,,,,,,,,,,,,,,,,,,,,,,,,,,,,,,,,,,,,,,,,,,,,,,,,,,,,,,,,,,,,,,,,,,,
,,"[""comma""]",0,[0.05500000000000682],64,0,64,0,1,5cb72e7625f45e0017c31287,31,Mężczyzna,2022-06-04_08h13.19.148,task,2021.1.4,Win32,60.0240096,628b806c463b948bc644b84f,629af7dff64c3b3a748b2242,,,,,,,,,,,,,,,,,,,,,,,,,,,,,,,,,,,,,,,,,,,,,,,,,,,,,,,,,,,,,,,,,,,,,,,,,,,,,,,,,,,,,,,,,,,,,,,,,,,,,,,
,,"[""comma""]",0,[0.5349999999999966],65,0,65,0,1,5cb72e7625f45e0017c31287,31,Mężczyzna,2022-06-04_08h13.19.148,task,2021.1.4,Win32,60.0240096,628b806c463b948bc644b84f,629af7dff64c3b3a748b2242,,,,,,,,,,,,,,,,,,,,,,,,,,,,,,,,,,,,,,,,,,,,,,,,,,,,,,,,,,,,,,,,,,,,,,,,,,,,,,,,,,,,,,,,,,,,,,,,,,,,,,,
,,"[""comma""]",0,[0.4440000000000168],66,0,66,0,1,5cb72e7625f45e0017c31287,31,Mężczyzna,2022-06-04_08h13.19.148,task,2021.1.4,Win32,60.0240096,628b806c463b948bc644b84f,629af7dff64c3b3a748b2242,,,,,,,,,,,,,,,,,,,,,,,,,,,,,,,,,,,,,,,,,,,,,,,,,,,,,,,,,,,,,,,,,,,,,,,,,,,,,,,,,,,,,,,,,,,,,,,,,,,,,,,
,,"[""period""]",0,[0.36599999999998545],67,0,67,0,1,5cb72e7625f45e0017c31287,31,Mężczyzna,2022-06-04_08h13.19.148,task,2021.1.4,Win32,60.0240096,628b806c463b948bc644b84f,629af7dff64c3b3a748b2242,,,,,,,,,,,,,,,,,,,,,,,,,,,,,,,,,,,,,,,,,,,,,,,,,,,,,,,,,,,,,,,,,,,,,,,,,,,,,,,,,,,,,,,,,,,,,,,,,,,,,,,
,,"[""comma""]",0,[0.33500000000000796],68,0,68,0,1,5cb72e7625f45e0017c31287,31,Mężczyzna,2022-06-04_08h13.19.148,task,2021.1.4,Win32,60.0240096,628b806c463b948bc644b84f,629af7dff64c3b3a748b2242,,,,,,,,,,,,,,,,,,,,,,,,,,,,,,,,,,,,,,,,,,,,,,,,,,,,,,,,,,,,,,,,,,,,,,,,,,,,,,,,,,,,,,,,,,,,,,,,,,,,,,,
,,"[""period""]",0,[0.3919999999999959],69,0,69,0,1,5cb72e7625f45e0017c31287,31,Mężczyzna,2022-06-04_08h13.19.148,task,2021.1.4,Win32,60.0240096,628b806c463b948bc644b84f,629af7dff64c3b3a748b2242,,,,,,,,,,,,,,,,,,,,,,,,,,,,,,,,,,,,,,,,,,,,,,,,,,,,,,,,,,,,,,,,,,,,,,,,,,,,,,,,,,,,,,,,,,,,,,,,,,,,,,,
,,"[""comma""]",0,[0.353999999999985],70,0,70,0,1,5cb72e7625f45e0017c31287,31,Mężczyzna,2022-06-04_08h13.19.148,task,2021.1.4,Win32,60.0240096,628b806c463b948bc644b84f,629af7dff64c3b3a748b2242,,,,,,,,,,,,,,,,,,,,,,,,,,,,,,,,,,,,,,,,,,,,,,,,,,,,,,,,,,,,,,,,,,,,,,,,,,,,,,,,,,,,,,,,,,,,,,,,,,,,,,,
,,"[""comma""]",0,[0.45699999999999363],71,0,71,0,1,5cb72e7625f45e0017c31287,31,Mężczyzna,2022-06-04_08h13.19.148,task,2021.1.4,Win32,60.0240096,628b806c463b948bc644b84f,629af7dff64c3b3a748b2242,,,,,,,,,,,,,,,,,,,,,,,,,,,,,,,,,,,,,,,,,,,,,,,,,,,,,,,,,,,,,,,,,,,,,,,,,,,,,,,,,,,,,,,,,,,,,,,,,,,,,,,
,,"[""period""]",0,[0.3850000000000193],72,0,72,0,1,5cb72e7625f45e0017c31287,31,Mężczyzna,2022-06-04_08h13.19.148,task,2021.1.4,Win32,60.0240096,628b806c463b948bc644b84f,629af7dff64c3b3a748b2242,,,,,,,,,,,,,,,,,,,,,,,,,,,,,,,,,,,,,,,,,,,,,,,,,,,,,,,,,,,,,,,,,,,,,,,,,,,,,,,,,,,,,,,,,,,,,,,,,,,,,,,
,,"[""comma""]",0,[0.3509999999999991],73,0,73,0,1,5cb72e7625f45e0017c31287,31,Mężczyzna,2022-06-04_08h13.19.148,task,2021.1.4,Win32,60.0240096,628b806c463b948bc644b84f,629af7dff64c3b3a748b2242,,,,,,,,,,,,,,,,,,,,,,,,,,,,,,,,,,,,,,,,,,,,,,,,,,,,,,,,,,,,,,,,,,,,,,,,,,,,,,,,,,,,,,,,,,,,,,,,,,,,,,,
,,"[""comma""]",0,[0.3739999999999952],74,0,74,0,1,5cb72e7625f45e0017c31287,31,Mężczyzna,2022-06-04_08h13.19.148,task,2021.1.4,Win32,60.0240096,628b806c463b948bc644b84f,629af7dff64c3b3a748b2242,,,,,,,,,,,,,,,,,,,,,,,,,,,,,,,,,,,,,,,,,,,,,,,,,,,,,,,,,,,,,,,,,,,,,,,,,,,,,,,,,,,,,,,,,,,,,,,,,,,,,,,
,,"[""period""]",0,[0.3369999999999891],75,0,75,0,1,5cb72e7625f45e0017c31287,31,Mężczyzna,2022-06-04_08h13.19.148,task,2021.1.4,Win32,60.0240096,628b806c463b948bc644b84f,629af7dff64c3b3a748b2242,,,,,,,,,,,,,,,,,,,,,,,,,,,,,,,,,,,,,,,,,,,,,,,,,,,,,,,,,,,,,,,,,,,,,,,,,,,,,,,,,,,,,,,,,,,,,,,,,,,,,,,
,,"[""period""]",0,[0.4670000000000414],76,0,76,0,1,5cb72e7625f45e0017c31287,31,Mężczyzna,2022-06-04_08h13.19.148,task,2021.1.4,Win32,60.0240096,628b806c463b948bc644b84f,629af7dff64c3b3a748b2242,,,,,,,,,,,,,,,,,,,,,,,,,,,,,,,,,,,,,,,,,,,,,,,,,,,,,,,,,,,,,,,,,,,,,,,,,,,,,,,,,,,,,,,,,,,,,,,,,,,,,,,
,,"[""comma""]",0,[0.5849999999999795],77,0,77,0,1,5cb72e7625f45e0017c31287,31,Mężczyzna,2022-06-04_08h13.19.148,task,2021.1.4,Win32,60.0240096,628b806c463b948bc644b84f,629af7dff64c3b3a748b2242,,,,,,,,,,,,,,,,,,,,,,,,,,,,,,,,,,,,,,,,,,,,,,,,,,,,,,,,,,,,,,,,,,,,,,,,,,,,,,,,,,,,,,,,,,,,,,,,,,,,,,,
,,"[""period""]",0,[0.4009999999999536],78,0,78,0,1,5cb72e7625f45e0017c31287,31,Mężczyzna,2022-06-04_08h13.19.148,task,2021.1.4,Win32,60.0240096,628b806c463b948bc644b84f,629af7dff64c3b3a748b2242,,,,,,,,,,,,,,,,,,,,,,,,,,,,,,,,,,,,,,,,,,,,,,,,,,,,,,,,,,,,,,,,,,,,,,,,,,,,,,,,,,,,,,,,,,,,,,,,,,,,,,,
,,"[""comma""]",0,[0.6329999999999814],79,0,79,0,1,5cb72e7625f45e0017c31287,31,Mężczyzna,2022-06-04_08h13.19.148,task,2021.1.4,Win32,60.0240096,628b806c463b948bc644b84f,629af7dff64c3b3a748b2242,,,,,,,,,,,,,,,,,,,,,,,,,,,,,,,,,,,,,,,,,,,,,,,,,,,,,,,,,,,,,,,,,,,,,,,,,,,,,,,,,,,,,,,,,,,,,,,,,,,,,,,
,,"[""comma""]",0,[0.5339999999999918],80,0,80,0,1,5cb72e7625f45e0017c31287,31,Mężczyzna,2022-06-04_08h13.19.148,task,2021.1.4,Win32,60.0240096,628b806c463b948bc644b84f,629af7dff64c3b3a748b2242,,,,,,,,,,,,,,,,,,,,,,,,,,,,,,,,,,,,,,,,,,,,,,,,,,,,,,,,,,,,,,,,,,,,,,,,,,,,,,,,,,,,,,,,,,,,,,,,,,,,,,,
,,"[""comma""]",0,[0.6680000000000064],81,0,81,0,1,5cb72e7625f45e0017c31287,31,Mężczyzna,2022-06-04_08h13.19.148,task,2021.1.4,Win32,60.0240096,628b806c463b948bc644b84f,629af7dff64c3b3a748b2242,,,,,,,,,,,,,,,,,,,,,,,,,,,,,,,,,,,,,,,,,,,,,,,,,,,,,,,,,,,,,,,,,,,,,,,,,,,,,,,,,,,,,,,,,,,,,,,,,,,,,,,
,,"[""period""]",0,[0.7200000000000273],82,0,82,0,1,5cb72e7625f45e0017c31287,31,Mężczyzna,2022-06-04_08h13.19.148,task,2021.1.4,Win32,60.0240096,628b806c463b948bc644b84f,629af7dff64c3b3a748b2242,,,,,,,,,,,,,,,,,,,,,,,,,,,,,,,,,,,,,,,,,,,,,,,,,,,,,,,,,,,,,,,,,,,,,,,,,,,,,,,,,,,,,,,,,,,,,,,,,,,,,,,
,,"[""comma""]",0,[0.5520000000000209],83,0,83,0,1,5cb72e7625f45e0017c31287,31,Mężczyzna,2022-06-04_08h13.19.148,task,2021.1.4,Win32,60.0240096,628b806c463b948bc644b84f,629af7dff64c3b3a748b2242,,,,,,,,,,,,,,,,,,,,,,,,,,,,,,,,,,,,,,,,,,,,,,,,,,,,,,,,,,,,,,,,,,,,,,,,,,,,,,,,,,,,,,,,,,,,,,,,,,,,,,,
,,"[""period""]",0,[0.31799999999998363],84,0,84,0,1,5cb72e7625f45e0017c31287,31,Mężczyzna,2022-06-04_08h13.19.148,task,2021.1.4,Win32,60.0240096,628b806c463b948bc644b84f,629af7dff64c3b3a748b2242,,,,,,,,,,,,,,,,,,,,,,,,,,,,,,,,,,,,,,,,,,,,,,,,,,,,,,,,,,,,,,,,,,,,,,,,,,,,,,,,,,,,,,,,,,,,,,,,,,,,,,,
,,"[""period""]",0,[0.39400000000000546],85,0,85,0,1,5cb72e7625f45e0017c31287,31,Mężczyzna,2022-06-04_08h13.19.148,task,2021.1.4,Win32,60.0240096,628b806c463b948bc644b84f,629af7dff64c3b3a748b2242,,,,,,,,,,,,,,,,,,,,,,,,,,,,,,,,,,,,,,,,,,,,,,,,,,,,,,,,,,,,,,,,,,,,,,,,,,,,,,,,,,,,,,,,,,,,,,,,,,,,,,,
,,"[""comma""]",0,[0.47800000000000864],86,0,86,0,1,5cb72e7625f45e0017c31287,31,Mężczyzna,2022-06-04_08h13.19.148,task,2021.1.4,Win32,60.0240096,628b806c463b948bc644b84f,629af7dff64c3b3a748b2242,,,,,,,,,,,,,,,,,,,,,,,,,,,,,,,,,,,,,,,,,,,,,,,,,,,,,,,,,,,,,,,,,,,,,,,,,,,,,,,,,,,,,,,,,,,,,,,,,,,,,,,
,,"[""comma"",""period""]",0,"[0.25099999999997635,1.8079999999999927]",87,0,87,0,1,5cb72e7625f45e0017c31287,31,Mężczyzna,2022-06-04_08h13.19.148,task,2021.1.4,Win32,60.0240096,628b806c463b948bc644b84f,629af7dff64c3b3a748b2242,,,,,,,,,,,,,,,,,,,,,,,,,,,,,,,,,,,,,,,,,,,,,,,,,,,,,,,,,,,,,,,,,,,,,,,,,,,,,,,,,,,,,,,,,,,,,,,,,,,,,,,
,,"[""comma""]",0,[1.4180000000000064],88,0,88,0,1,5cb72e7625f45e0017c31287,31,Mężczyzna,2022-06-04_08h13.19.148,task,2021.1.4,Win32,60.0240096,628b806c463b948bc644b84f,629af7dff64c3b3a748b2242,,,,,,,,,,,,,,,,,,,,,,,,,,,,,,,,,,,,,,,,,,,,,,,,,,,,,,,,,,,,,,,,,,,,,,,,,,,,,,,,,,,,,,,,,,,,,,,,,,,,,,,
,,"[""period""]",0,[1.016999999999996],89,0,89,0,1,5cb72e7625f45e0017c31287,31,Mężczyzna,2022-06-04_08h13.19.148,task,2021.1.4,Win32,60.0240096,628b806c463b948bc644b84f,629af7dff64c3b3a748b2242,,,,,,,,,,,,,,,,,,,,,,,,,,,,,,,,,,,,,,,,,,,,,,,,,,,,,,,,,,,,,,,,,,,,,,,,,,,,,,,,,,,,,,,,,,,,,,,,,,,,,,,
,,"[""comma""]",0,[0.367999999999995],90,0,90,0,1,5cb72e7625f45e0017c31287,31,Mężczyzna,2022-06-04_08h13.19.148,task,2021.1.4,Win32,60.0240096,628b806c463b948bc644b84f,629af7dff64c3b3a748b2242,,,,,,,,,,,,,,,,,,,,,,,,,,,,,,,,,,,,,,,,,,,,,,,,,,,,,,,,,,,,,,,,,,,,,,,,,,,,,,,,,,,,,,,,,,,,,,,,,,,,,,,
,,"[""comma""]",0,[0.38299999999998136],91,0,91,0,1,5cb72e7625f45e0017c31287,31,Mężczyzna,2022-06-04_08h13.19.148,task,2021.1.4,Win32,60.0240096,628b806c463b948bc644b84f,629af7dff64c3b3a748b2242,,,,,,,,,,,,,,,,,,,,,,,,,,,,,,,,,,,,,,,,,,,,,,,,,,,,,,,,,,,,,,,,,,,,,,,,,,,,,,,,,,,,,,,,,,,,,,,,,,,,,,,
,,"[""comma""]",0,[0.36700000000001864],92,0,92,0,1,5cb72e7625f45e0017c31287,31,Mężczyzna,2022-06-04_08h13.19.148,task,2021.1.4,Win32,60.0240096,628b806c463b948bc644b84f,629af7dff64c3b3a748b2242,,,,,,,,,,,,,,,,,,,,,,,,,,,,,,,,,,,,,,,,,,,,,,,,,,,,,,,,,,,,,,,,,,,,,,,,,,,,,,,,,,,,,,,,,,,,,,,,,,,,,,,
,,"[""period""]",0,[0.48399999999998045],93,0,93,0,1,5cb72e7625f45e0017c31287,31,Mężczyzna,2022-06-04_08h13.19.148,task,2021.1.4,Win32,60.0240096,628b806c463b948bc644b84f,629af7dff64c3b3a748b2242,,,,,,,,,,,,,,,,,,,,,,,,,,,,,,,,,,,,,,,,,,,,,,,,,,,,,,,,,,,,,,,,,,,,,,,,,,,,,,,,,,,,,,,,,,,,,,,,,,,,,,,
,,"[""period""]",0,[0.09199999999998454],94,0,94,0,1,5cb72e7625f45e0017c31287,31,Mężczyzna,2022-06-04_08h13.19.148,task,2021.1.4,Win32,60.0240096,628b806c463b948bc644b84f,629af7dff64c3b3a748b2242,,,,,,,,,,,,,,,,,,,,,,,,,,,,,,,,,,,,,,,,,,,,,,,,,,,,,,,,,,,,,,,,,,,,,,,,,,,,,,,,,,,,,,,,,,,,,,,,,,,,,,,
,,"[""comma""]",0,[0.23599999999999],95,0,95,0,1,5cb72e7625f45e0017c31287,31,Mężczyzna,2022-06-04_08h13.19.148,task,2021.1.4,Win32,60.0240096,628b806c463b948bc644b84f,629af7dff64c3b3a748b2242,,,,,,,,,,,,,,,,,,,,,,,,,,,,,,,,,,,,,,,,,,,,,,,,,,,,,,,,,,,,,,,,,,,,,,,,,,,,,,,,,,,,,,,,,,,,,,,,,,,,,,,
,,"[""period""]",0,[0.4440000000000168],96,0,96,0,1,5cb72e7625f45e0017c31287,31,Mężczyzna,2022-06-04_08h13.19.148,task,2021.1.4,Win32,60.0240096,628b806c463b948bc644b84f,629af7dff64c3b3a748b2242,,,,,,,,,,,,,,,,,,,,,,,,,,,,,,,,,,,,,,,,,,,,,,,,,,,,,,,,,,,,,,,,,,,,,,,,,,,,,,,,,,,,,,,,,,,,,,,,,,,,,,,
,,"[""comma"",""comma""]",0,"[-0.012000000000000455,1.5199999999999818]",97,0,97,0,1,5cb72e7625f45e0017c31287,31,Mężczyzna,2022-06-04_08h13.19.148,task,2021.1.4,Win32,60.0240096,628b806c463b948bc644b84f,629af7dff64c3b3a748b2242,,,,,,,,,,,,,,,,,,,,,,,,,,,,,,,,,,,,,,,,,,,,,,,,,,,,,,,,,,,,,,,,,,,,,,,,,,,,,,,,,,,,,,,,,,,,,,,,,,,,,,,
,,"[""comma""]",0,[0.9150000000000205],98,0,98,0,1,5cb72e7625f45e0017c31287,31,Mężczyzna,2022-06-04_08h13.19.148,task,2021.1.4,Win32,60.0240096,628b806c463b948bc644b84f,629af7dff64c3b3a748b2242,,,,,,,,,,,,,,,,,,,,,,,,,,,,,,,,,,,,,,,,,,,,,,,,,,,,,,,,,,,,,,,,,,,,,,,,,,,,,,,,,,,,,,,,,,,,,,,,,,,,,,,
,,"[""period""]",0,[0.41699999999997317],99,0,99,0,1,5cb72e7625f45e0017c31287,31,Mężczyzna,2022-06-04_08h13.19.148,task,2021.1.4,Win32,60.0240096,628b806c463b948bc644b84f,629af7dff64c3b3a748b2242,,,,,,,,,,,,,,,,,,,,,,,,,,,,,,,,,,,,,,,,,,,,,,,,,,,,,,,,,,,,,,,,,,,,,,,,,,,,,,,,,,,,,,,,,,,,,,,,,,,,,,,
,,"[""comma""]",0,[0.049999999999954525],100,0,100,0,1,5cb72e7625f45e0017c31287,31,Mężczyzna,2022-06-04_08h13.19.148,task,2021.1.4,Win32,60.0240096,628b806c463b948bc644b84f,629af7dff64c3b3a748b2242,,,,,,,,,,,,,,,,,,,,,,,,,,,,,,,,,,,,,,,,,,,,,,,,,,,,,,,,,,,,,,,,,,,,,,,,,,,,,,,,,,,,,,,,,,,,,,,,,,,,,,,
,,"[""comma""]",0,[0.3240000000000123],101,0,101,0,1,5cb72e7625f45e0017c31287,31,Mężczyzna,2022-06-04_08h13.19.148,task,2021.1.4,Win32,60.0240096,628b806c463b948bc644b84f,629af7dff64c3b3a748b2242,,,,,,,,,,,,,,,,,,,,,,,,,,,,,,,,,,,,,,,,,,,,,,,,,,,,,,,,,,,,,,,,,,,,,,,,,,,,,,,,,,,,,,,,,,,,,,,,,,,,,,,
,,"[""period""]",0,[0.7620000000000005],102,0,102,0,1,5cb72e7625f45e0017c31287,31,Mężczyzna,2022-06-04_08h13.19.148,task,2021.1.4,Win32,60.0240096,628b806c463b948bc644b84f,629af7dff64c3b3a748b2242,,,,,,,,,,,,,,,,,,,,,,,,,,,,,,,,,,,,,,,,,,,,,,,,,,,,,,,,,,,,,,,,,,,,,,,,,,,,,,,,,,,,,,,,,,,,,,,,,,,,,,,
,,"[""comma""]",0,[0.6899999999999977],103,0,103,0,1,5cb72e7625f45e0017c31287,31,Mężczyzna,2022-06-04_08h13.19.148,task,2021.1.4,Win32,60.0240096,628b806c463b948bc644b84f,629af7dff64c3b3a748b2242,,,,,,,,,,,,,,,,,,,,,,,,,,,,,,,,,,,,,,,,,,,,,,,,,,,,,,,,,,,,,,,,,,,,,,,,,,,,,,,,,,,,,,,,,,,,,,,,,,,,,,,
,,"[""period""]",0,[0.35000000000002274],104,0,104,0,1,5cb72e7625f45e0017c31287,31,Mężczyzna,2022-06-04_08h13.19.148,task,2021.1.4,Win32,60.0240096,628b806c463b948bc644b84f,629af7dff64c3b3a748b2242,,,,,,,,,,,,,,,,,,,,,,,,,,,,,,,,,,,,,,,,,,,,,,,,,,,,,,,,,,,,,,,,,,,,,,,,,,,,,,,,,,,,,,,,,,,,,,,,,,,,,,,
,,"[""period"",""comma""]",0,"[0.08500000000003638,1.899000000000001]",105,0,105,0,1,5cb72e7625f45e0017c31287,31,Mężczyzna,2022-06-04_08h13.19.148,task,2021.1.4,Win32,60.0240096,628b806c463b948bc644b84f,629af7dff64c3b3a748b2242,,,,,,,,,,,,,,,,,,,,,,,,,,,,,,,,,,,,,,,,,,,,,,,,,,,,,,,,,,,,,,,,,,,,,,,,,,,,,,,,,,,,,,,,,,,,,,,,,,,,,,,
,,,0,,106,0,106,0,1,5cb72e7625f45e0017c31287,31,Mężczyzna,2022-06-04_08h13.19.148,task,2021.1.4,Win32,60.0240096,628b806c463b948bc644b84f,629af7dff64c3b3a748b2242,,,,,,,,,,,,,,,,,,,,,,,,,,,,,,,,,,,,,,,,,,,,,,,,,,,,,,,,,,,,,,,,,,,,,,,,,,,,,,,,,,,,,,,,,,,,,,,,,,,,,,,
,,"[""comma""]",0,[0.37000000000000455],107,0,107,0,1,5cb72e7625f45e0017c31287,31,Mężczyzna,2022-06-04_08h13.19.148,task,2021.1.4,Win32,60.0240096,628b806c463b948bc644b84f,629af7dff64c3b3a748b2242,,,,,,,,,,,,,,,,,,,,,,,,,,,,,,,,,,,,,,,,,,,,,,,,,,,,,,,,,,,,,,,,,,,,,,,,,,,,,,,,,,,,,,,,,,,,,,,,,,,,,,,
,,"[""period""]",0,[0.4379999999999882],108,0,108,0,1,5cb72e7625f45e0017c31287,31,Mężczyzna,2022-06-04_08h13.19.148,task,2021.1.4,Win32,60.0240096,628b806c463b948bc644b84f,629af7dff64c3b3a748b2242,,,,,,,,,,,,,,,,,,,,,,,,,,,,,,,,,,,,,,,,,,,,,,,,,,,,,,,,,,,,,,,,,,,,,,,,,,,,,,,,,,,,,,,,,,,,,,,,,,,,,,,
,,"[""comma""]",0,[0.4730000000000132],109,0,109,0,1,5cb72e7625f45e0017c31287,31,Mężczyzna,2022-06-04_08h13.19.148,task,2021.1.4,Win32,60.0240096,628b806c463b948bc644b84f,629af7dff64c3b3a748b2242,,,,,,,,,,,,,,,,,,,,,,,,,,,,,,,,,,,,,,,,,,,,,,,,,,,,,,,,,,,,,,,,,,,,,,,,,,,,,,,,,,,,,,,,,,,,,,,,,,,,,,,
,,"[""comma""]",0,[0.3509999999999991],110,0,110,0,1,5cb72e7625f45e0017c31287,31,Mężczyzna,2022-06-04_08h13.19.148,task,2021.1.4,Win32,60.0240096,628b806c463b948bc644b84f,629af7dff64c3b3a748b2242,,,,,,,,,,,,,,,,,,,,,,,,,,,,,,,,,,,,,,,,,,,,,,,,,,,,,,,,,,,,,,,,,,,,,,,,,,,,,,,,,,,,,,,,,,,,,,,,,,,,,,,
,,"[""comma""]",0,[0.33499999999997954],111,0,111,0,1,5cb72e7625f45e0017c31287,31,Mężczyzna,2022-06-04_08h13.19.148,task,2021.1.4,Win32,60.0240096,628b806c463b948bc644b84f,629af7dff64c3b3a748b2242,,,,,,,,,,,,,,,,,,,,,,,,,,,,,,,,,,,,,,,,,,,,,,,,,,,,,,,,,,,,,,,,,,,,,,,,,,,,,,,,,,,,,,,,,,,,,,,,,,,,,,,
,,"[""comma""]",0,[0.367999999999995],112,0,112,0,1,5cb72e7625f45e0017c31287,31,Mężczyzna,2022-06-04_08h13.19.148,task,2021.1.4,Win32,60.0240096,628b806c463b948bc644b84f,629af7dff64c3b3a748b2242,,,,,,,,,,,,,,,,,,,,,,,,,,,,,,,,,,,,,,,,,,,,,,,,,,,,,,,,,,,,,,,,,,,,,,,,,,,,,,,,,,,,,,,,,,,,,,,,,,,,,,,
,,"[""period""]",0,[0.5679999999999836],113,0,113,0,1,5cb72e7625f45e0017c31287,31,Mężczyzna,2022-06-04_08h13.19.148,task,2021.1.4,Win32,60.0240096,628b806c463b948bc644b84f,629af7dff64c3b3a748b2242,,,,,,,,,,,,,,,,,,,,,,,,,,,,,,,,,,,,,,,,,,,,,,,,,,,,,,,,,,,,,,,,,,,,,,,,,,,,,,,,,,,,,,,,,,,,,,,,,,,,,,,
,,"[""period""]",0,[0.3009999999999877],114,0,114,0,1,5cb72e7625f45e0017c31287,31,Mężczyzna,2022-06-04_08h13.19.148,task,2021.1.4,Win32,60.0240096,628b806c463b948bc644b84f,629af7dff64c3b3a748b2242,,,,,,,,,,,,,,,,,,,,,,,,,,,,,,,,,,,,,,,,,,,,,,,,,,,,,,,,,,,,,,,,,,,,,,,,,,,,,,,,,,,,,,,,,,,,,,,,,,,,,,,
,,"[""comma""]",0,[0.3230000000000359],115,0,115,0,1,5cb72e7625f45e0017c31287,31,Mężczyzna,2022-06-04_08h13.19.148,task,2021.1.4,Win32,60.0240096,628b806c463b948bc644b84f,629af7dff64c3b3a748b2242,,,,,,,,,,,,,,,,,,,,,,,,,,,,,,,,,,,,,,,,,,,,,,,,,,,,,,,,,,,,,,,,,,,,,,,,,,,,,,,,,,,,,,,,,,,,,,,,,,,,,,,
,,"[""period""]",0,[0.3100000000000023],116,0,116,0,1,5cb72e7625f45e0017c31287,31,Mężczyzna,2022-06-04_08h13.19.148,task,2021.1.4,Win32,60.0240096,628b806c463b948bc644b84f,629af7dff64c3b3a748b2242,,,,,,,,,,,,,,,,,,,,,,,,,,,,,,,,,,,,,,,,,,,,,,,,,,,,,,,,,,,,,,,,,,,,,,,,,,,,,,,,,,,,,,,,,,,,,,,,,,,,,,,
,,"[""period""]",0,[0.1500000000000341],117,0,117,0,1,5cb72e7625f45e0017c31287,31,Mężczyzna,2022-06-04_08h13.19.148,task,2021.1.4,Win32,60.0240096,628b806c463b948bc644b84f,629af7dff64c3b3a748b2242,,,,,,,,,,,,,,,,,,,,,,,,,,,,,,,,,,,,,,,,,,,,,,,,,,,,,,,,,,,,,,,,,,,,,,,,,,,,,,,,,,,,,,,,,,,,,,,,,,,,,,,
,,"[""period""]",0,[0.3170000000000073],118,0,118,0,1,5cb72e7625f45e0017c31287,31,Mężczyzna,2022-06-04_08h13.19.148,task,2021.1.4,Win32,60.0240096,628b806c463b948bc644b84f,629af7dff64c3b3a748b2242,,,,,,,,,,,,,,,,,,,,,,,,,,,,,,,,,,,,,,,,,,,,,,,,,,,,,,,,,,,,,,,,,,,,,,,,,,,,,,,,,,,,,,,,,,,,,,,,,,,,,,,
,,"[""comma""]",0,[0.41699999999997317],119,0,119,0,1,5cb72e7625f45e0017c31287,31,Mężczyzna,2022-06-04_08h13.19.148,task,2021.1.4,Win32,60.0240096,628b806c463b948bc644b84f,629af7dff64c3b3a748b2242,,,,,,,,,,,,,,,,,,,,,,,,,,,,,,,,,,,,,,,,,,,,,,,,,,,,,,,,,,,,,,,,,,,,,,,,,,,,,,,,,,,,,,,,,,,,,,,,,,,,,,,
,,,,,,,,,,5cb72e7625f45e0017c31287,31,Mężczyzna,2022-06-04_08h13.19.148,task,2021.1.4,Win32,60.0240096,628b806c463b948bc644b84f,629af7dff64c3b3a748b2242,space,84.335,space,8.218,0,0,0,0,1,X V Q F H G B L J M P D K C T S W R N Z,,,,,,,,,,,,,,,,,,,,,,,,,,,,,,,,,,,,,,,,,,,,,,,,,,,,,,,,,,,,,,,,,,,,,,,,,,,,,,,,,,,,,,,,,,,,,
,,,,,,,,,,5cb72e7625f45e0017c31287,31,Mężczyzna,2022-06-04_08h13.19.148,task,2021.1.4,Win32,60.0240096,628b806c463b948bc644b84f,629af7dff64c3b3a748b2242,,,,,1,0,1,0,1,X V Q F H G B L J M P D K C T S W R N Z,,,,,,,,,,,,,,,,,,,,,,,,,,,,,,,,,,,,,,,,,,,,,,,,,,,,,,,,,,,,,,,,,,,,,,,,,,,,,,,,,,,,,,,,,,,,,
,,,,,,,,,,5cb72e7625f45e0017c31287,31,Mężczyzna,2022-06-04_08h13.19.148,task,2021.1.4,Win32,60.0240096,628b806c463b948bc644b84f,629af7dff64c3b3a748b2242,,,,,,,,,,,zw,"[""z"",""w""]","[2.2229999999999563,2.6229999999999905,3.632000000000005]",1,ZW,0,0,0,0,1,,,,,,,,,,,,,,,,,,,,,,,,,,,,,,,,,,,,,,,,,,,,,,,,,,,,,,,,,,,,,,,,,,,,,,,,,,,,,,,,,,,
,,,,,,,,,,5cb72e7625f45e0017c31287,31,Mężczyzna,2022-06-04_08h13.19.148,task,2021.1.4,Win32,60.0240096,628b806c463b948bc644b84f,629af7dff64c3b3a748b2242,,,,,0,0,0,0,1,X V Q F H G B L J M P D K C T S W R N Z,,,,,,,,,,,,,,,,,,,,,,,,,,,,,,,,,,,,,,,,,,,,,,,,,,,,,,,,,,,,,,,,,,,,,,,,,,,,,,,,,,,,,,,,,,,,,
,,,,,,,,,,5cb72e7625f45e0017c31287,31,Mężczyzna,2022-06-04_08h13.19.148,task,2021.1.4,Win32,60.0240096,628b806c463b948bc644b84f,629af7dff64c3b3a748b2242,,,,,1,0,1,0,1,X V Q F H G B L J M P D K C T S W R N Z,,,,,,,,,,,,,,,,,,,,,,,,,,,,,,,,,,,,,,,,,,,,,,,,,,,,,,,,,,,,,,,,,,,,,,,,,,,,,,,,,,,,,,,,,,,,,
,,,,,,,,,,5cb72e7625f45e0017c31287,31,Mężczyzna,2022-06-04_08h13.19.148,task,2021.1.4,Win32,60.0240096,628b806c463b948bc644b84f,629af7dff64c3b3a748b2242,,,,,,,,,,,kt,"[""k"",""t""]","[0.9279999999999973,1.259999999999991,1.9770000000000323]",1,KT,1,0,1,0,1,,,,,,,,,,,,,,,,,,,,,,,,,,,,,,,,,,,,,,,,,,,,,,,,,,,,,,,,,,,,,,,,,,,,,,,,,,,,,,,,,,,
,,,,,,,,,,5cb72e7625f45e0017c31287,31,Mężczyzna,2022-06-04_08h13.19.148,task,2021.1.4,Win32,60.0240096,628b806c463b948bc644b84f,629af7dff64c3b3a748b2242,,,,,0,0,0,0,1,X V Q F H G B L J M P D K C T S W R N Z,,,,,,,,,,,,,,,,,,,,,,,,,,,,,,,,,,,,,,,,,,,,,,,,,,,,,,,,,,,,,,,,,,,,,,,,,,,,,,,,,,,,,,,,,,,,,
,,,,,,,,,,5cb72e7625f45e0017c31287,31,Mężczyzna,2022-06-04_08h13.19.148,task,2021.1.4,Win32,60.0240096,628b806c463b948bc644b84f,629af7dff64c3b3a748b2242,,,,,1,0,1,0,1,X V Q F H G B L J M P D K C T S W R N Z,,,,,,,,,,,,,,,,,,,,,,,,,,,,,,,,,,,,,,,,,,,,,,,,,,,,,,,,,,,,,,,,,,,,,,,,,,,,,,,,,,,,,,,,,,,,,
,,,,,,,,,,5cb72e7625f45e0017c31287,31,Mężczyzna,2022-06-04_08h13.19.148,task,2021.1.4,Win32,60.0240096,628b806c463b948bc644b84f,629af7dff64c3b3a748b2242,,,,,2,0,2,0,1,X V Q F H G B L J M P D K C T S W R N Z,,,,,,,,,,,,,,,,,,,,,,,,,,,,,,,,,,,,,,,,,,,,,,,,,,,,,,,,,,,,,,,,,,,,,,,,,,,,,,,,,,,,,,,,,,,,,
,,,,,,,,,,5cb72e7625f45e0017c31287,31,Mężczyzna,2022-06-04_08h13.19.148,task,2021.1.4,Win32,60.0240096,628b806c463b948bc644b84f,629af7dff64c3b3a748b2242,,,,,,,,,,,rrn,"[""r"",""r"",""n""]","[0.6340000000000146,0.8490000000000464,1.0330000000000155,1.93100000000004]",1,RRN,2,0,2,0,1,,,,,,,,,,,,,,,,,,,,,,,,,,,,,,,,,,,,,,,,,,,,,,,,,,,,,,,,,,,,,,,,,,,,,,,,,,,,,,,,,,,
,,,,,,,,,,5cb72e7625f45e0017c31287,31,Mężczyzna,2022-06-04_08h13.19.148,task,2021.1.4,Win32,60.0240096,628b806c463b948bc644b84f,629af7dff64c3b3a748b2242,,,,,0,0,0,0,1,X V Q F H G B L J M P D K C T S W R N Z,,,,,,,,,,,,,,,,,,,,,,,,,,,,,,,,,,,,,,,,,,,,,,,,,,,,,,,,,,,,,,,,,,,,,,,,,,,,,,,,,,,,,,,,,,,,,
,,,,,,,,,,5cb72e7625f45e0017c31287,31,Mężczyzna,2022-06-04_08h13.19.148,task,2021.1.4,Win32,60.0240096,628b806c463b948bc644b84f,629af7dff64c3b3a748b2242,,,,,1,0,1,0,1,X V Q F H G B L J M P D K C T S W R N Z,,,,,,,,,,,,,,,,,,,,,,,,,,,,,,,,,,,,,,,,,,,,,,,,,,,,,,,,,,,,,,,,,,,,,,,,,,,,,,,,,,,,,,,,,,,,,
,,,,,,,,,,5cb72e7625f45e0017c31287,31,Mężczyzna,2022-06-04_08h13.19.148,task,2021.1.4,Win32,60.0240096,628b806c463b948bc644b84f,629af7dff64c3b3a748b2242,,,,,2,0,2,0,1,X V Q F H G B L J M P D K C T S W R N Z,,,,,,,,,,,,,,,,,,,,,,,,,,,,,,,,,,,,,,,,,,,,,,,,,,,,,,,,,,,,,,,,,,,,,,,,,,,,,,,,,,,,,,,,,,,,,
,,,,,,,,,,5cb72e7625f45e0017c31287,31,Mężczyzna,2022-06-04_08h13.19.148,task,2021.1.4,Win32,60.0240096,628b806c463b948bc644b84f,629af7dff64c3b3a748b2242,,,,,,,,,,,bwm,"[""b"",""w"",""m""]","[0.6639999999999873,0.75,0.8719999999999573,1.3700000000000045]",1,BWM,3,0,3,0,1,,,,,,,,,,,,,,,,,,,,,,,,,,,,,,,,,,,,,,,,,,,,,,,,,,,,,,,,,,,,,,,,,,,,,,,,,,,,,,,,,,,
,,,,,,,,,,5cb72e7625f45e0017c31287,31,Mężczyzna,2022-06-04_08h13.19.148,task,2021.1.4,Win32,60.0240096,628b806c463b948bc644b84f,629af7dff64c3b3a748b2242,,,,,0,0,0,0,1,X V Q F H G B L J M P D K C T S W R N Z,,,,,,,,,,,,,,,,,,,,,,,,,,,,,,,,,,,,,,,,,,,,,,,,,,,,,,,,,,,,,,,,,,,,,,,,,,,,,,,,,,,,,,,,,,,,,
,,,,,,,,,,5cb72e7625f45e0017c31287,31,Mężczyzna,2022-06-04_08h13.19.148,task,2021.1.4,Win32,60.0240096,628b806c463b948bc644b84f,629af7dff64c3b3a748b2242,,,,,1,0,1,0,1,X V Q F H G B L J M P D K C T S W R N Z,,,,,,,,,,,,,,,,,,,,,,,,,,,,,,,,,,,,,,,,,,,,,,,,,,,,,,,,,,,,,,,,,,,,,,,,,,,,,,,,,,,,,,,,,,,,,
,,,,,,,,,,5cb72e7625f45e0017c31287,31,Mężczyzna,2022-06-04_08h13.19.148,task,2021.1.4,Win32,60.0240096,628b806c463b948bc644b84f,629af7dff64c3b3a748b2242,,,,,2,0,2,0,1,X V Q F H G B L J M P D K C T S W R N Z,,,,,,,,,,,,,,,,,,,,,,,,,,,,,,,,,,,,,,,,,,,,,,,,,,,,,,,,,,,,,,,,,,,,,,,,,,,,,,,,,,,,,,,,,,,,,
,,,,,,,,,,5cb72e7625f45e0017c31287,31,Mężczyzna,2022-06-04_08h13.19.148,task,2021.1.4,Win32,60.0240096,628b806c463b948bc644b84f,629af7dff64c3b3a748b2242,,,,,3,0,3,0,1,X V Q F H G B L J M P D K C T S W R N Z,,,,,,,,,,,,,,,,,,,,,,,,,,,,,,,,,,,,,,,,,,,,,,,,,,,,,,,,,,,,,,,,,,,,,,,,,,,,,,,,,,,,,,,,,,,,,
,,,,,,,,,,5cb72e7625f45e0017c31287,31,Mężczyzna,2022-06-04_08h13.19.148,task,2021.1.4,Win32,60.0240096,628b806c463b948bc644b84f,629af7dff64c3b3a748b2242,,,,,,,,,,,czql,"[""c"",""z"",""q"",""l""]","[0.4410000000000309,0.5339999999999918,1.035000000000025,1.2549999999999955,1.7320000000000277]",1,CZQL,4,0,4,0,1,,,,,,,,,,,,,,,,,,,,,,,,,,,,,,,,,,,,,,,,,,,,,,,,,,,,,,,,,,,,,,,,,,,,,,,,,,,,,,,,,,,
,,,,,,,,,,5cb72e7625f45e0017c31287,31,Mężczyzna,2022-06-04_08h13.19.148,task,2021.1.4,Win32,60.0240096,628b806c463b948bc644b84f,629af7dff64c3b3a748b2242,,,,,0,0,0,0,1,X V Q F H G B L J M P D K C T S W R N Z,,,,,,,,,,,,,,,,,,,,,,,,,,,,,,,,,,,,,,,,,,,,,,,,,,,,,,,,,,,,,,,,,,,,,,,,,,,,,,,,,,,,,,,,,,,,,
,,,,,,,,,,5cb72e7625f45e0017c31287,31,Mężczyzna,2022-06-04_08h13.19.148,task,2021.1.4,Win32,60.0240096,628b806c463b948bc644b84f,629af7dff64c3b3a748b2242,,,,,1,0,1,0,1,X V Q F H G B L J M P D K C T S W R N Z,,,,,,,,,,,,,,,,,,,,,,,,,,,,,,,,,,,,,,,,,,,,,,,,,,,,,,,,,,,,,,,,,,,,,,,,,,,,,,,,,,,,,,,,,,,,,
,,,,,,,,,,5cb72e7625f45e0017c31287,31,Mężczyzna,2022-06-04_08h13.19.148,task,2021.1.4,Win32,60.0240096,628b806c463b948bc644b84f,629af7dff64c3b3a748b2242,,,,,2,0,2,0,1,X V Q F H G B L J M P D K C T S W R N Z,,,,,,,,,,,,,,,,,,,,,,,,,,,,,,,,,,,,,,,,,,,,,,,,,,,,,,,,,,,,,,,,,,,,,,,,,,,,,,,,,,,,,,,,,,,,,
,,,,,,,,,,5cb72e7625f45e0017c31287,31,Mężczyzna,2022-06-04_08h13.19.148,task,2021.1.4,Win32,60.0240096,628b806c463b948bc644b84f,629af7dff64c3b3a748b2242,,,,,3,0,3,0,1,X V Q F H G B L J M P D K C T S W R N Z,,,,,,,,,,,,,,,,,,,,,,,,,,,,,,,,,,,,,,,,,,,,,,,,,,,,,,,,,,,,,,,,,,,,,,,,,,,,,,,,,,,,,,,,,,,,,
,,,,,,,,,,5cb72e7625f45e0017c31287,31,Mężczyzna,2022-06-04_08h13.19.148,task,2021.1.4,Win32,60.0240096,628b806c463b948bc644b84f,629af7dff64c3b3a748b2242,,,,,,,,,,,qhlw,"[""q"",""h"",""l"",""w""]","[0.5740000000000123,0.8799999999999955,1.2309999999999945,1.5300000000000296,1.978999999999985]",1,QHLW,5,0,5,0,1,,,,,,,,,,,,,,,,,,,,,,,,,,,,,,,,,,,,,,,,,,,,,,,,,,,,,,,,,,,,,,,,,,,,,,,,,,,,,,,,,,,
,,,,,,,,,,5cb72e7625f45e0017c31287,31,Mężczyzna,2022-06-04_08h13.19.148,task,2021.1.4,Win32,60.0240096,628b806c463b948bc644b84f,629af7dff64c3b3a748b2242,,,,,0,0,0,0,1,X V Q F H G B L J M P D K C T S W R N Z,,,,,,,,,,,,,,,,,,,,,,,,,,,,,,,,,,,,,,,,,,,,,,,,,,,,,,,,,,,,,,,,,,,,,,,,,,,,,,,,,,,,,,,,,,,,,
,,,,,,,,,,5cb72e7625f45e0017c31287,31,Mężczyzna,2022-06-04_08h13.19.148,task,2021.1.4,Win32,60.0240096,628b806c463b948bc644b84f,629af7dff64c3b3a748b2242,,,,,1,0,1,0,1,X V Q F H G B L J M P D K C T S W R N Z,,,,,,,,,,,,,,,,,,,,,,,,,,,,,,,,,,,,,,,,,,,,,,,,,,,,,,,,,,,,,,,,,,,,,,,,,,,,,,,,,,,,,,,,,,,,,
,,,,,,,,,,5cb72e7625f45e0017c31287,31,Mężczyzna,2022-06-04_08h13.19.148,task,2021.1.4,Win32,60.0240096,628b806c463b948bc644b84f,629af7dff64c3b3a748b2242,,,,,2,0,2,0,1,X V Q F H G B L J M P D K C T S W R N Z,,,,,,,,,,,,,,,,,,,,,,,,,,,,,,,,,,,,,,,,,,,,,,,,,,,,,,,,,,,,,,,,,,,,,,,,,,,,,,,,,,,,,,,,,,,,,
,,,,,,,,,,5cb72e7625f45e0017c31287,31,Mężczyzna,2022-06-04_08h13.19.148,task,2021.1.4,Win32,60.0240096,628b806c463b948bc644b84f,629af7dff64c3b3a748b2242,,,,,3,0,3,0,1,X V Q F H G B L J M P D K C T S W R N Z,,,,,,,,,,,,,,,,,,,,,,,,,,,,,,,,,,,,,,,,,,,,,,,,,,,,,,,,,,,,,,,,,,,,,,,,,,,,,,,,,,,,,,,,,,,,,
,,,,,,,,,,5cb72e7625f45e0017c31287,31,Mężczyzna,2022-06-04_08h13.19.148,task,2021.1.4,Win32,60.0240096,628b806c463b948bc644b84f,629af7dff64c3b3a748b2242,,,,,4,0,4,0,1,X V Q F H G B L J M P D K C T S W R N Z,,,,,,,,,,,,,,,,,,,,,,,,,,,,,,,,,,,,,,,,,,,,,,,,,,,,,,,,,,,,,,,,,,,,,,,,,,,,,,,,,,,,,,,,,,,,,
,,,,,,,,,,5cb72e7625f45e0017c31287,31,Mężczyzna,2022-06-04_08h13.19.148,task,2021.1.4,Win32,60.0240096,628b806c463b948bc644b84f,629af7dff64c3b3a748b2242,,,,,,,,,,,wjpxl,"[""w"",""j"",""p"",""x"",""l""]","[0.3709999999999809,0.6639999999999873,0.9869999999999663,1.2709999999999582,1.495999999999981,2.5709999999999695]",1,WJPXL,6,0,6,0,1,,,,,,,,,,,,,,,,,,,,,,,,,,,,,,,,,,,,,,,,,,,,,,,,,,,,,,,,,,,,,,,,,,,,,,,,,,,,,,,,,,,
,,,,,,,,,,5cb72e7625f45e0017c31287,31,Mężczyzna,2022-06-04_08h13.19.148,task,2021.1.4,Win32,60.0240096,628b806c463b948bc644b84f,629af7dff64c3b3a748b2242,,,,,0,0,0,0,1,X V Q F H G B L J M P D K C T S W R N Z,,,,,,,,,,,,,,,,,,,,,,,,,,,,,,,,,,,,,,,,,,,,,,,,,,,,,,,,,,,,,,,,,,,,,,,,,,,,,,,,,,,,,,,,,,,,,
,,,,,,,,,,5cb72e7625f45e0017c31287,31,Mężczyzna,2022-06-04_08h13.19.148,task,2021.1.4,Win32,60.0240096,628b806c463b948bc644b84f,629af7dff64c3b3a748b2242,,,,,1,0,1,0,1,X V Q F H G B L J M P D K C T S W R N Z,,,,,,,,,,,,,,,,,,,,,,,,,,,,,,,,,,,,,,,,,,,,,,,,,,,,,,,,,,,,,,,,,,,,,,,,,,,,,,,,,,,,,,,,,,,,,
,,,,,,,,,,5cb72e7625f45e0017c31287,31,Mężczyzna,2022-06-04_08h13.19.148,task,2021.1.4,Win32,60.0240096,628b806c463b948bc644b84f,629af7dff64c3b3a748b2242,,,,,2,0,2,0,1,X V Q F H G B L J M P D K C T S W R N Z,,,,,,,,,,,,,,,,,,,,,,,,,,,,,,,,,,,,,,,,,,,,,,,,,,,,,,,,,,,,,,,,,,,,,,,,,,,,,,,,,,,,,,,,,,,,,
,,,,,,,,,,5cb72e7625f45e0017c31287,31,Mężczyzna,2022-06-04_08h13.19.148,task,2021.1.4,Win32,60.0240096,628b806c463b948bc644b84f,629af7dff64c3b3a748b2242,,,,,3,0,3,0,1,X V Q F H G B L J M P D K C T S W R N Z,,,,,,,,,,,,,,,,,,,,,,,,,,,,,,,,,,,,,,,,,,,,,,,,,,,,,,,,,,,,,,,,,,,,,,,,,,,,,,,,,,,,,,,,,,,,,
,,,,,,,,,,5cb72e7625f45e0017c31287,31,Mężczyzna,2022-06-04_08h13.19.148,task,2021.1.4,Win32,60.0240096,628b806c463b948bc644b84f,629af7dff64c3b3a748b2242,,,,,4,0,4,0,1,X V Q F H G B L J M P D K C T S W R N Z,,,,,,,,,,,,,,,,,,,,,,,,,,,,,,,,,,,,,,,,,,,,,,,,,,,,,,,,,,,,,,,,,,,,,,,,,,,,,,,,,,,,,,,,,,,,,
,,,,,,,,,,5cb72e7625f45e0017c31287,31,Mężczyzna,2022-06-04_08h13.19.148,task,2021.1.4,Win32,60.0240096,628b806c463b948bc644b84f,629af7dff64c3b3a748b2242,,,,,,,,,,,ppvbw,"[""p"",""p"",""v"",""b"",""w""]","[0.7810000000000059,0.9689999999999941,1.0690000000000168,2.40300000000002,2.512999999999977,3.6299999999999955]",1,PPVBW,7,0,7,0,1,,,,,,,,,,,,,,,,,,,,,,,,,,,,,,,,,,,,,,,,,,,,,,,,,,,,,,,,,,,,,,,,,,,,,,,,,,,,,,,,,,,
,,,,,,,,,,5cb72e7625f45e0017c31287,31,Mężczyzna,2022-06-04_08h13.19.148,task,2021.1.4,Win32,60.0240096,628b806c463b948bc644b84f,629af7dff64c3b3a748b2242,,,,,0,0,0,0,1,X V Q F H G B L J M P D K C T S W R N Z,,,,,,,,,,,,,,,,,,,,,,,,,,,,,,,,,,,,,,,,,,,,,,,,,,,,,,,,,,,,,,,,,,,,,,,,,,,,,,,,,,,,,,,,,,,,,
,,,,,,,,,,5cb72e7625f45e0017c31287,31,Mężczyzna,2022-06-04_08h13.19.148,task,2021.1.4,Win32,60.0240096,628b806c463b948bc644b84f,629af7dff64c3b3a748b2242,,,,,1,0,1,0,1,X V Q F H G B L J M P D K C T S W R N Z,,,,,,,,,,,,,,,,,,,,,,,,,,,,,,,,,,,,,,,,,,,,,,,,,,,,,,,,,,,,,,,,,,,,,,,,,,,,,,,,,,,,,,,,,,,,,
,,,,,,,,,,5cb72e7625f45e0017c31287,31,Mężczyzna,2022-06-04_08h13.19.148,task,2021.1.4,Win32,60.0240096,628b806c463b948bc644b84f,629af7dff64c3b3a748b2242,,,,,2,0,2,0,1,X V Q F H G B L J M P D K C T S W R N Z,,,,,,,,,,,,,,,,,,,,,,,,,,,,,,,,,,,,,,,,,,,,,,,,,,,,,,,,,,,,,,,,,,,,,,,,,,,,,,,,,,,,,,,,,,,,,
,,,,,,,,,,5cb72e7625f45e0017c31287,31,Mężczyzna,2022-06-04_08h13.19.148,task,2021.1.4,Win32,60.0240096,628b806c463b948bc644b84f,629af7dff64c3b3a748b2242,,,,,3,0,3,0,1,X V Q F H G B L J M P D K C T S W R N Z,,,,,,,,,,,,,,,,,,,,,,,,,,,,,,,,,,,,,,,,,,,,,,,,,,,,,,,,,,,,,,,,,,,,,,,,,,,,,,,,,,,,,,,,,,,,,
,,,,,,,,,,5cb72e7625f45e0017c31287,31,Mężczyzna,2022-06-04_08h13.19.148,task,2021.1.4,Win32,60.0240096,628b806c463b948bc644b84f,629af7dff64c3b3a748b2242,,,,,4,0,4,0,1,X V Q F H G B L J M P D K C T S W R N Z,,,,,,,,,,,,,,,,,,,,,,,,,,,,,,,,,,,,,,,,,,,,,,,,,,,,,,,,,,,,,,,,,,,,,,,,,,,,,,,,,,,,,,,,,,,,,
,,,,,,,,,,5cb72e7625f45e0017c31287,31,Mężczyzna,2022-06-04_08h13.19.148,task,2021.1.4,Win32,60.0240096,628b806c463b948bc644b84f,629af7dff64c3b3a748b2242,,,,,5,0,5,0,1,X V Q F H G B L J M P D K C T S W R N Z,,,,,,,,,,,,,,,,,,,,,,,,,,,,,,,,,,,,,,,,,,,,,,,,,,,,,,,,,,,,,,,,,,,,,,,,,,,,,,,,,,,,,,,,,,,,,
,,,,,,,,,,5cb72e7625f45e0017c31287,31,Mężczyzna,2022-06-04_08h13.19.148,task,2021.1.4,Win32,60.0240096,628b806c463b948bc644b84f,629af7dff64c3b3a748b2242,,,,,,,,,,,ngpjld,"[""n"",""g"",""p"",""j"",""l"",""d""]","[0.4189999999999827,0.6539999999999964,0.8819999999999482,1.2799999999999727,1.6509999999999536,1.8039999999999736,3.7939999999999827]",1,NGPJLD,8,0,8,0,1,,,,,,,,,,,,,,,,,,,,,,,,,,,,,,,,,,,,,,,,,,,,,,,,,,,,,,,,,,,,,,,,,,,,,,,,,,,,,,,,,,,
,,,,,,,,,,5cb72e7625f45e0017c31287,31,Mężczyzna,2022-06-04_08h13.19.148,task,2021.1.4,Win32,60.0240096,628b806c463b948bc644b84f,629af7dff64c3b3a748b2242,,,,,0,0,0,0,1,X V Q F H G B L J M P D K C T S W R N Z,,,,,,,,,,,,,,,,,,,,,,,,,,,,,,,,,,,,,,,,,,,,,,,,,,,,,,,,,,,,,,,,,,,,,,,,,,,,,,,,,,,,,,,,,,,,,
,,,,,,,,,,5cb72e7625f45e0017c31287,31,Mężczyzna,2022-06-04_08h13.19.148,task,2021.1.4,Win32,60.0240096,628b806c463b948bc644b84f,629af7dff64c3b3a748b2242,,,,,1,0,1,0,1,X V Q F H G B L J M P D K C T S W R N Z,,,,,,,,,,,,,,,,,,,,,,,,,,,,,,,,,,,,,,,,,,,,,,,,,,,,,,,,,,,,,,,,,,,,,,,,,,,,,,,,,,,,,,,,,,,,,
,,,,,,,,,,5cb72e7625f45e0017c31287,31,Mężczyzna,2022-06-04_08h13.19.148,task,2021.1.4,Win32,60.0240096,628b806c463b948bc644b84f,629af7dff64c3b3a748b2242,,,,,2,0,2,0,1,X V Q F H G B L J M P D K C T S W R N Z,,,,,,,,,,,,,,,,,,,,,,,,,,,,,,,,,,,,,,,,,,,,,,,,,,,,,,,,,,,,,,,,,,,,,,,,,,,,,,,,,,,,,,,,,,,,,
,,,,,,,,,,5cb72e7625f45e0017c31287,31,Mężczyzna,2022-06-04_08h13.19.148,task,2021.1.4,Win32,60.0240096,628b806c463b948bc644b84f,629af7dff64c3b3a748b2242,,,,,3,0,3,0,1,X V Q F H G B L J M P D K C T S W R N Z,,,,,,,,,,,,,,,,,,,,,,,,,,,,,,,,,,,,,,,,,,,,,,,,,,,,,,,,,,,,,,,,,,,,,,,,,,,,,,,,,,,,,,,,,,,,,
,,,,,,,,,,5cb72e7625f45e0017c31287,31,Mężczyzna,2022-06-04_08h13.19.148,task,2021.1.4,Win32,60.0240096,628b806c463b948bc644b84f,629af7dff64c3b3a748b2242,,,,,4,0,4,0,1,X V Q F H G B L J M P D K C T S W R N Z,,,,,,,,,,,,,,,,,,,,,,,,,,,,,,,,,,,,,,,,,,,,,,,,,,,,,,,,,,,,,,,,,,,,,,,,,,,,,,,,,,,,,,,,,,,,,
,,,,,,,,,,5cb72e7625f45e0017c31287,31,Mężczyzna,2022-06-04_08h13.19.148,task,2021.1.4,Win32,60.0240096,628b806c463b948bc644b84f,629af7dff64c3b3a748b2242,,,,,5,0,5,0,1,X V Q F H G B L J M P D K C T S W R N Z,,,,,,,,,,,,,,,,,,,,,,,,,,,,,,,,,,,,,,,,,,,,,,,,,,,,,,,,,,,,,,,,,,,,,,,,,,,,,,,,,,,,,,,,,,,,,
,,,,,,,,,,5cb72e7625f45e0017c31287,31,Mężczyzna,2022-06-04_08h13.19.148,task,2021.1.4,Win32,60.0240096,628b806c463b948bc644b84f,629af7dff64c3b3a748b2242,,,,,,,,,,,ggjghj,"[""g"",""g"",""j"",""g"",""h"",""j""]","[0.5869999999999891,0.7719999999999345,0.988999999999919,1.3809999999999718,1.8299999999999272,2.216000000000008,3.49899999999991]",1,GGJGHJ,9,0,9,0,1,,,,,,,,,,,,,,,,,,,,,,,,,,,,,,,,,,,,,,,,,,,,,,,,,,,,,,,,,,,,,,,,,,,,,,,,,,,,,,,,,,,
,,,,,,,,,,5cb72e7625f45e0017c31287,31,Mężczyzna,2022-06-04_08h13.19.148,task,2021.1.4,Win32,60.0240096,628b806c463b948bc644b84f,629af7dff64c3b3a748b2242,,,,,0,0,0,0,1,X V Q F H G B L J M P D K C T S W R N Z,,,,,,,,,,,,,,,,,,,,,,,,,,,,,,,,,,,,,,,,,,,,,,,,,,,,,,,,,,,,,,,,,,,,,,,,,,,,,,,,,,,,,,,,,,,,,
,,,,,,,,,,5cb72e7625f45e0017c31287,31,Mężczyzna,2022-06-04_08h13.19.148,task,2021.1.4,Win32,60.0240096,628b806c463b948bc644b84f,629af7dff64c3b3a748b2242,,,,,1,0,1,0,1,X V Q F H G B L J M P D K C T S W R N Z,,,,,,,,,,,,,,,,,,,,,,,,,,,,,,,,,,,,,,,,,,,,,,,,,,,,,,,,,,,,,,,,,,,,,,,,,,,,,,,,,,,,,,,,,,,,,
,,,,,,,,,,5cb72e7625f45e0017c31287,31,Mężczyzna,2022-06-04_08h13.19.148,task,2021.1.4,Win32,60.0240096,628b806c463b948bc644b84f,629af7dff64c3b3a748b2242,,,,,2,0,2,0,1,X V Q F H G B L J M P D K C T S W R N Z,,,,,,,,,,,,,,,,,,,,,,,,,,,,,,,,,,,,,,,,,,,,,,,,,,,,,,,,,,,,,,,,,,,,,,,,,,,,,,,,,,,,,,,,,,,,,
,,,,,,,,,,5cb72e7625f45e0017c31287,31,Mężczyzna,2022-06-04_08h13.19.148,task,2021.1.4,Win32,60.0240096,628b806c463b948bc644b84f,629af7dff64c3b3a748b2242,,,,,3,0,3,0,1,X V Q F H G B L J M P D K C T S W R N Z,,,,,,,,,,,,,,,,,,,,,,,,,,,,,,,,,,,,,,,,,,,,,,,,,,,,,,,,,,,,,,,,,,,,,,,,,,,,,,,,,,,,,,,,,,,,,
,,,,,,,,,,5cb72e7625f45e0017c31287,31,Mężczyzna,2022-06-04_08h13.19.148,task,2021.1.4,Win32,60.0240096,628b806c463b948bc644b84f,629af7dff64c3b3a748b2242,,,,,4,0,4,0,1,X V Q F H G B L J M P D K C T S W R N Z,,,,,,,,,,,,,,,,,,,,,,,,,,,,,,,,,,,,,,,,,,,,,,,,,,,,,,,,,,,,,,,,,,,,,,,,,,,,,,,,,,,,,,,,,,,,,
,,,,,,,,,,5cb72e7625f45e0017c31287,31,Mężczyzna,2022-06-04_08h13.19.148,task,2021.1.4,Win32,60.0240096,628b806c463b948bc644b84f,629af7dff64c3b3a748b2242,,,,,5,0,5,0,1,X V Q F H G B L J M P D K C T S W R N Z,,,,,,,,,,,,,,,,,,,,,,,,,,,,,,,,,,,,,,,,,,,,,,,,,,,,,,,,,,,,,,,,,,,,,,,,,,,,,,,,,,,,,,,,,,,,,
,,,,,,,,,,5cb72e7625f45e0017c31287,31,Mężczyzna,2022-06-04_08h13.19.148,task,2021.1.4,Win32,60.0240096,628b806c463b948bc644b84f,629af7dff64c3b3a748b2242,,,,,6,0,6,0,1,X V Q F H G B L J M P D K C T S W R N Z,,,,,,,,,,,,,,,,,,,,,,,,,,,,,,,,,,,,,,,,,,,,,,,,,,,,,,,,,,,,,,,,,,,,,,,,,,,,,,,,,,,,,,,,,,,,,
,,,,,,,,,,5cb72e7625f45e0017c31287,31,Mężczyzna,2022-06-04_08h13.19.148,task,2021.1.4,Win32,60.0240096,628b806c463b948bc644b84f,629af7dff64c3b3a748b2242,,,,,,,,,,,sgsnhbw,"[""s"",""g"",""s"",""n"",""h"",""b"",""w""]","[0.4490000000000691,0.7150000000000318,0.8410000000000082,1.1980000000000928,1.6070000000000846,2.063000000000102,2.316000000000031,3.5990000000000464]",1,SGSNHBW,10,0,10,0,1,,,,,,,,,,,,,,,,,,,,,,,,,,,,,,,,,,,,,,,,,,,,,,,,,,,,,,,,,,,,,,,,,,,,,,,,,,,,,,,,,,,
,,,,,,,,,,5cb72e7625f45e0017c31287,31,Mężczyzna,2022-06-04_08h13.19.148,task,2021.1.4,Win32,60.0240096,628b806c463b948bc644b84f,629af7dff64c3b3a748b2242,,,,,0,0,0,0,1,X V Q F H G B L J M P D K C T S W R N Z,,,,,,,,,,,,,,,,,,,,,,,,,,,,,,,,,,,,,,,,,,,,,,,,,,,,,,,,,,,,,,,,,,,,,,,,,,,,,,,,,,,,,,,,,,,,,
,,,,,,,,,,5cb72e7625f45e0017c31287,31,Mężczyzna,2022-06-04_08h13.19.148,task,2021.1.4,Win32,60.0240096,628b806c463b948bc644b84f,629af7dff64c3b3a748b2242,,,,,1,0,1,0,1,X V Q F H G B L J M P D K C T S W R N Z,,,,,,,,,,,,,,,,,,,,,,,,,,,,,,,,,,,,,,,,,,,,,,,,,,,,,,,,,,,,,,,,,,,,,,,,,,,,,,,,,,,,,,,,,,,,,
,,,,,,,,,,5cb72e7625f45e0017c31287,31,Mężczyzna,2022-06-04_08h13.19.148,task,2021.1.4,Win32,60.0240096,628b806c463b948bc644b84f,629af7dff64c3b3a748b2242,,,,,2,0,2,0,1,X V Q F H G B L J M P D K C T S W R N Z,,,,,,,,,,,,,,,,,,,,,,,,,,,,,,,,,,,,,,,,,,,,,,,,,,,,,,,,,,,,,,,,,,,,,,,,,,,,,,,,,,,,,,,,,,,,,
,,,,,,,,,,5cb72e7625f45e0017c31287,31,Mężczyzna,2022-06-04_08h13.19.148,task,2021.1.4,Win32,60.0240096,628b806c463b948bc644b84f,629af7dff64c3b3a748b2242,,,,,3,0,3,0,1,X V Q F H G B L J M P D K C T S W R N Z,,,,,,,,,,,,,,,,,,,,,,,,,,,,,,,,,,,,,,,,,,,,,,,,,,,,,,,,,,,,,,,,,,,,,,,,,,,,,,,,,,,,,,,,,,,,,
,,,,,,,,,,5cb72e7625f45e0017c31287,31,Mężczyzna,2022-06-04_08h13.19.148,task,2021.1.4,Win32,60.0240096,628b806c463b948bc644b84f,629af7dff64c3b3a748b2242,,,,,4,0,4,0,1,X V Q F H G B L J M P D K C T S W R N Z,,,,,,,,,,,,,,,,,,,,,,,,,,,,,,,,,,,,,,,,,,,,,,,,,,,,,,,,,,,,,,,,,,,,,,,,,,,,,,,,,,,,,,,,,,,,,
,,,,,,,,,,5cb72e7625f45e0017c31287,31,Mężczyzna,2022-06-04_08h13.19.148,task,2021.1.4,Win32,60.0240096,628b806c463b948bc644b84f,629af7dff64c3b3a748b2242,,,,,5,0,5,0,1,X V Q F H G B L J M P D K C T S W R N Z,,,,,,,,,,,,,,,,,,,,,,,,,,,,,,,,,,,,,,,,,,,,,,,,,,,,,,,,,,,,,,,,,,,,,,,,,,,,,,,,,,,,,,,,,,,,,
,,,,,,,,,,5cb72e7625f45e0017c31287,31,Mężczyzna,2022-06-04_08h13.19.148,task,2021.1.4,Win32,60.0240096,628b806c463b948bc644b84f,629af7dff64c3b3a748b2242,,,,,6,0,6,0,1,X V Q F H G B L J M P D K C T S W R N Z,,,,,,,,,,,,,,,,,,,,,,,,,,,,,,,,,,,,,,,,,,,,,,,,,,,,,,,,,,,,,,,,,,,,,,,,,,,,,,,,,,,,,,,,,,,,,
,,,,,,,,,,5cb72e7625f45e0017c31287,31,Mężczyzna,2022-06-04_08h13.19.148,task,2021.1.4,Win32,60.0240096,628b806c463b948bc644b84f,629af7dff64c3b3a748b2242,,,,,,,,,,,nbrrqlq,"[""n"",""b"",""r"",""r"",""q"",""l"",""q""]","[0.6230000000000473,0.7980000000000018,1.0209999999999582,1.2010000000000218,1.7169999999999845,1.8799999999999955,1.9700000000000273,2.4980000000000473]",1,NBRRQLQ,11,0,11,0,1,,,,,,,,,,,,,,,,,,,,,,,,,,,,,,,,,,,,,,,,,,,,,,,,,,,,,,,,,,,,,,,,,,,,,,,,,,,,,,,,,,,
,,,,,,,,,,5cb72e7625f45e0017c31287,31,Mężczyzna,2022-06-04_08h13.19.148,task,2021.1.4,Win32,60.0240096,628b806c463b948bc644b84f,629af7dff64c3b3a748b2242,,,,,0,0,0,0,1,X V Q F H G B L J M P D K C T S W R N Z,,,,,,,,,,,,,,,,,,,,,,,,,,,,,,,,,,,,,,,,,,,,,,,,,,,,,,,,,,,,,,,,,,,,,,,,,,,,,,,,,,,,,,,,,,,,,
,,,,,,,,,,5cb72e7625f45e0017c31287,31,Mężczyzna,2022-06-04_08h13.19.148,task,2021.1.4,Win32,60.0240096,628b806c463b948bc644b84f,629af7dff64c3b3a748b2242,,,,,1,0,1,0,1,X V Q F H G B L J M P D K C T S W R N Z,,,,,,,,,,,,,,,,,,,,,,,,,,,,,,,,,,,,,,,,,,,,,,,,,,,,,,,,,,,,,,,,,,,,,,,,,,,,,,,,,,,,,,,,,,,,,
,,,,,,,,,,5cb72e7625f45e0017c31287,31,Mężczyzna,2022-06-04_08h13.19.148,task,2021.1.4,Win32,60.0240096,628b806c463b948bc644b84f,629af7dff64c3b3a748b2242,,,,,2,0,2,0,1,X V Q F H G B L J M P D K C T S W R N Z,,,,,,,,,,,,,,,,,,,,,,,,,,,,,,,,,,,,,,,,,,,,,,,,,,,,,,,,,,,,,,,,,,,,,,,,,,,,,,,,,,,,,,,,,,,,,
,,,,,,,,,,5cb72e7625f45e0017c31287,31,Mężczyzna,2022-06-04_08h13.19.148,task,2021.1.4,Win32,60.0240096,628b806c463b948bc644b84f,629af7dff64c3b3a748b2242,,,,,3,0,3,0,1,X V Q F H G B L J M P D K C T S W R N Z,,,,,,,,,,,,,,,,,,,,,,,,,,,,,,,,,,,,,,,,,,,,,,,,,,,,,,,,,,,,,,,,,,,,,,,,,,,,,,,,,,,,,,,,,,,,,
,,,,,,,,,,5cb72e7625f45e0017c31287,31,Mężczyzna,2022-06-04_08h13.19.148,task,2021.1.4,Win32,60.0240096,628b806c463b948bc644b84f,629af7dff64c3b3a748b2242,,,,,4,0,4,0,1,X V Q F H G B L J M P D K C T S W R N Z,,,,,,,,,,,,,,,,,,,,,,,,,,,,,,,,,,,,,,,,,,,,,,,,,,,,,,,,,,,,,,,,,,,,,,,,,,,,,,,,,,,,,,,,,,,,,
,,,,,,,,,,5cb72e7625f45e0017c31287,31,Mężczyzna,2022-06-04_08h13.19.148,task,2021.1.4,Win32,60.0240096,628b806c463b948bc644b84f,629af7dff64c3b3a748b2242,,,,,5,0,5,0,1,X V Q F H G B L J M P D K C T S W R N Z,,,,,,,,,,,,,,,,,,,,,,,,,,,,,,,,,,,,,,,,,,,,,,,,,,,,,,,,,,,,,,,,,,,,,,,,,,,,,,,,,,,,,,,,,,,,,
,,,,,,,,,,5cb72e7625f45e0017c31287,31,Mężczyzna,2022-06-04_08h13.19.148,task,2021.1.4,Win32,60.0240096,628b806c463b948bc644b84f,629af7dff64c3b3a748b2242,,,,,6,0,6,0,1,X V Q F H G B L J M P D K C T S W R N Z,,,,,,,,,,,,,,,,,,,,,,,,,,,,,,,,,,,,,,,,,,,,,,,,,,,,,,,,,,,,,,,,,,,,,,,,,,,,,,,,,,,,,,,,,,,,,
,,,,,,,,,,5cb72e7625f45e0017c31287,31,Mężczyzna,2022-06-04_08h13.19.148,task,2021.1.4,Win32,60.0240096,628b806c463b948bc644b84f,629af7dff64c3b3a748b2242,,,,,7,0,7,0,1,X V Q F H G B L J M P D K C T S W R N Z,,,,,,,,,,,,,,,,,,,,,,,,,,,,,,,,,,,,,,,,,,,,,,,,,,,,,,,,,,,,,,,,,,,,,,,,,,,,,,,,,,,,,,,,,,,,,
,,,,,,,,,,5cb72e7625f45e0017c31287,31,Mężczyzna,2022-06-04_08h13.19.148,task,2021.1.4,Win32,60.0240096,628b806c463b948bc644b84f,629af7dff64c3b3a748b2242,,,,,,,,,,,knrfqgfg,"[""k"",""n"",""r"",""f"",""q"",""g"",""f"",""g""]","[0.4980000000000473,0.6980000000000928,1.0860000000000127,1.5460000000000491,1.886000000000081,2.979000000000042,3.25100000000009,3.799000000000092,5.526000000000067]",1,KNRFQGFG,12,0,12,0,1,,,,,,,,,,,,,,,,,,,,,,,,,,,,,,,,,,,,,,,,,,,,,,,,,,,,,,,,,,,,,,,,,,,,,,,,,,,,,,,,,,,
,,,,,,,,,,5cb72e7625f45e0017c31287,31,Mężczyzna,2022-06-04_08h13.19.148,task,2021.1.4,Win32,60.0240096,628b806c463b948bc644b84f,629af7dff64c3b3a748b2242,,,,,0,0,0,0,1,X V Q F H G B L J M P D K C T S W R N Z,,,,,,,,,,,,,,,,,,,,,,,,,,,,,,,,,,,,,,,,,,,,,,,,,,,,,,,,,,,,,,,,,,,,,,,,,,,,,,,,,,,,,,,,,,,,,
,,,,,,,,,,5cb72e7625f45e0017c31287,31,Mężczyzna,2022-06-04_08h13.19.148,task,2021.1.4,Win32,60.0240096,628b806c463b948bc644b84f,629af7dff64c3b3a748b2242,,,,,1,0,1,0,1,X V Q F H G B L J M P D K C T S W R N Z,,,,,,,,,,,,,,,,,,,,,,,,,,,,,,,,,,,,,,,,,,,,,,,,,,,,,,,,,,,,,,,,,,,,,,,,,,,,,,,,,,,,,,,,,,,,,
,,,,,,,,,,5cb72e7625f45e0017c31287,31,Mężczyzna,2022-06-04_08h13.19.148,task,2021.1.4,Win32,60.0240096,628b806c463b948bc644b84f,629af7dff64c3b3a748b2242,,,,,2,0,2,0,1,X V Q F H G B L J M P D K C T S W R N Z,,,,,,,,,,,,,,,,,,,,,,,,,,,,,,,,,,,,,,,,,,,,,,,,,,,,,,,,,,,,,,,,,,,,,,,,,,,,,,,,,,,,,,,,,,,,,
,,,,,,,,,,5cb72e7625f45e0017c31287,31,Mężczyzna,2022-06-04_08h13.19.148,task,2021.1.4,Win32,60.0240096,628b806c463b948bc644b84f,629af7dff64c3b3a748b2242,,,,,3,0,3,0,1,X V Q F H G B L J M P D K C T S W R N Z,,,,,,,,,,,,,,,,,,,,,,,,,,,,,,,,,,,,,,,,,,,,,,,,,,,,,,,,,,,,,,,,,,,,,,,,,,,,,,,,,,,,,,,,,,,,,
,,,,,,,,,,5cb72e7625f45e0017c31287,31,Mężczyzna,2022-06-04_08h13.19.148,task,2021.1.4,Win32,60.0240096,628b806c463b948bc644b84f,629af7dff64c3b3a748b2242,,,,,4,0,4,0,1,X V Q F H G B L J M P D K C T S W R N Z,,,,,,,,,,,,,,,,,,,,,,,,,,,,,,,,,,,,,,,,,,,,,,,,,,,,,,,,,,,,,,,,,,,,,,,,,,,,,,,,,,,,,,,,,,,,,
,,,,,,,,,,5cb72e7625f45e0017c31287,31,Mężczyzna,2022-06-04_08h13.19.148,task,2021.1.4,Win32,60.0240096,628b806c463b948bc644b84f,629af7dff64c3b3a748b2242,,,,,5,0,5,0,1,X V Q F H G B L J M P D K C T S W R N Z,,,,,,,,,,,,,,,,,,,,,,,,,,,,,,,,,,,,,,,,,,,,,,,,,,,,,,,,,,,,,,,,,,,,,,,,,,,,,,,,,,,,,,,,,,,,,
,,,,,,,,,,5cb72e7625f45e0017c31287,31,Mężczyzna,2022-06-04_08h13.19.148,task,2021.1.4,Win32,60.0240096,628b806c463b948bc644b84f,629af7dff64c3b3a748b2242,,,,,6,0,6,0,1,X V Q F H G B L J M P D K C T S W R N Z,,,,,,,,,,,,,,,,,,,,,,,,,,,,,,,,,,,,,,,,,,,,,,,,,,,,,,,,,,,,,,,,,,,,,,,,,,,,,,,,,,,,,,,,,,,,,
,,,,,,,,,,5cb72e7625f45e0017c31287,31,Mężczyzna,2022-06-04_08h13.19.148,task,2021.1.4,Win32,60.0240096,628b806c463b948bc644b84f,629af7dff64c3b3a748b2242,,,,,7,0,7,0,1,X V Q F H G B L J M P D K C T S W R N Z,,,,,,,,,,,,,,,,,,,,,,,,,,,,,,,,,,,,,,,,,,,,,,,,,,,,,,,,,,,,,,,,,,,,,,,,,,,,,,,,,,,,,,,,,,,,,
,,,,,,,,,,5cb72e7625f45e0017c31287,31,Mężczyzna,2022-06-04_08h13.19.148,task,2021.1.4,Win32,60.0240096,628b806c463b948bc644b84f,629af7dff64c3b3a748b2242,,,,,,,,,,,wntwgxl,"[""w"",""n"",""t"",""w"",""g"",""x"",""l""]","[0.6879999999999882,0.8389999999999418,1.0049999999999955,1.22199999999998,1.7010000000000218,2.1829999999999927,2.380999999999972,2.852999999999952]",0,WNTWGDXL,13,0,13,0,1,,,,,,,,,,,,,,,,,,,,,,,,,,,,,,,,,,,,,,,,,,,,,,,,,,,,,,,,,,,,,,,,,,,,,,,,,,,,,,,,,,,
,,,,,,,,,,5cb72e7625f45e0017c31287,31,Mężczyzna,2022-06-04_08h13.19.148,task,2021.1.4,Win32,60.0240096,628b806c463b948bc644b84f,629af7dff64c3b3a748b2242,,,,,0,0,0,0,1,X V Q F H G B L J M P D K C T S W R N Z,,,,,,,,,,,,,,,,,,,,,,,,,,,,,,,,,,,,,,,,,,,,,,,,,,,,,,,,,,,,,,,,,,,,,,,,,,,,,,,,,,,,,,,,,,,,,
,,,,,,,,,,5cb72e7625f45e0017c31287,31,Mężczyzna,2022-06-04_08h13.19.148,task,2021.1.4,Win32,60.0240096,628b806c463b948bc644b84f,629af7dff64c3b3a748b2242,,,,,1,0,1,0,1,X V Q F H G B L J M P D K C T S W R N Z,,,,,,,,,,,,,,,,,,,,,,,,,,,,,,,,,,,,,,,,,,,,,,,,,,,,,,,,,,,,,,,,,,,,,,,,,,,,,,,,,,,,,,,,,,,,,
,,,,,,,,,,5cb72e7625f45e0017c31287,31,Mężczyzna,2022-06-04_08h13.19.148,task,2021.1.4,Win32,60.0240096,628b806c463b948bc644b84f,629af7dff64c3b3a748b2242,,,,,2,0,2,0,1,X V Q F H G B L J M P D K C T S W R N Z,,,,,,,,,,,,,,,,,,,,,,,,,,,,,,,,,,,,,,,,,,,,,,,,,,,,,,,,,,,,,,,,,,,,,,,,,,,,,,,,,,,,,,,,,,,,,
,,,,,,,,,,5cb72e7625f45e0017c31287,31,Mężczyzna,2022-06-04_08h13.19.148,task,2021.1.4,Win32,60.0240096,628b806c463b948bc644b84f,629af7dff64c3b3a748b2242,,,,,3,0,3,0,1,X V Q F H G B L J M P D K C T S W R N Z,,,,,,,,,,,,,,,,,,,,,,,,,,,,,,,,,,,,,,,,,,,,,,,,,,,,,,,,,,,,,,,,,,,,,,,,,,,,,,,,,,,,,,,,,,,,,
,,,,,,,,,,5cb72e7625f45e0017c31287,31,Mężczyzna,2022-06-04_08h13.19.148,task,2021.1.4,Win32,60.0240096,628b806c463b948bc644b84f,629af7dff64c3b3a748b2242,,,,,4,0,4,0,1,X V Q F H G B L J M P D K C T S W R N Z,,,,,,,,,,,,,,,,,,,,,,,,,,,,,,,,,,,,,,,,,,,,,,,,,,,,,,,,,,,,,,,,,,,,,,,,,,,,,,,,,,,,,,,,,,,,,
,,,,,,,,,,5cb72e7625f45e0017c31287,31,Mężczyzna,2022-06-04_08h13.19.148,task,2021.1.4,Win32,60.0240096,628b806c463b948bc644b84f,629af7dff64c3b3a748b2242,,,,,5,0,5,0,1,X V Q F H G B L J M P D K C T S W R N Z,,,,,,,,,,,,,,,,,,,,,,,,,,,,,,,,,,,,,,,,,,,,,,,,,,,,,,,,,,,,,,,,,,,,,,,,,,,,,,,,,,,,,,,,,,,,,
,,,,,,,,,,5cb72e7625f45e0017c31287,31,Mężczyzna,2022-06-04_08h13.19.148,task,2021.1.4,Win32,60.0240096,628b806c463b948bc644b84f,629af7dff64c3b3a748b2242,,,,,6,0,6,0,1,X V Q F H G B L J M P D K C T S W R N Z,,,,,,,,,,,,,,,,,,,,,,,,,,,,,,,,,,,,,,,,,,,,,,,,,,,,,,,,,,,,,,,,,,,,,,,,,,,,,,,,,,,,,,,,,,,,,
,,,,,,,,,,5cb72e7625f45e0017c31287,31,Mężczyzna,2022-06-04_08h13.19.148,task,2021.1.4,Win32,60.0240096,628b806c463b948bc644b84f,629af7dff64c3b3a748b2242,,,,,7,0,7,0,1,X V Q F H G B L J M P D K C T S W R N Z,,,,,,,,,,,,,,,,,,,,,,,,,,,,,,,,,,,,,,,,,,,,,,,,,,,,,,,,,,,,,,,,,,,,,,,,,,,,,,,,,,,,,,,,,,,,,
,,,,,,,,,,5cb72e7625f45e0017c31287,31,Mężczyzna,2022-06-04_08h13.19.148,task,2021.1.4,Win32,60.0240096,628b806c463b948bc644b84f,629af7dff64c3b3a748b2242,,,,,,,,,,,hmtmlhtm,"[""h"",""m"",""t"",""m"",""l"",""h"",""t"",""m""]","[2.01299999999992,2.120999999999981,2.3549999999999045,2.4969999999999573,3.461999999999989,3.713999999999942,4.01400000000001,4.394999999999982,22.182999999999993]",0,HMTMLMTH,14,0,14,0,1,,,,,,,,,,,,,,,,,,,,,,,,,,,,,,,,,,,,,,,,,,,,,,,,,,,,,,,,,,,,,,,,,,,,,,,,,,,,,,,,,,,
,,,,,,,,,,5cb72e7625f45e0017c31287,31,Mężczyzna,2022-06-04_08h13.19.148,task,2021.1.4,Win32,60.0240096,628b806c463b948bc644b84f,629af7dff64c3b3a748b2242,,,,,0,0,0,0,1,X V Q F H G B L J M P D K C T S W R N Z,,,,,,,,,,,,,,,,,,,,,,,,,,,,,,,,,,,,,,,,,,,,,,,,,,,,,,,,,,,,,,,,,,,,,,,,,,,,,,,,,,,,,,,,,,,,,
,,,,,,,,,,5cb72e7625f45e0017c31287,31,Mężczyzna,2022-06-04_08h13.19.148,task,2021.1.4,Win32,60.0240096,628b806c463b948bc644b84f,629af7dff64c3b3a748b2242,,,,,1,0,1,0,1,X V Q F H G B L J M P D K C T S W R N Z,,,,,,,,,,,,,,,,,,,,,,,,,,,,,,,,,,,,,,,,,,,,,,,,,,,,,,,,,,,,,,,,,,,,,,,,,,,,,,,,,,,,,,,,,,,,,
,,,,,,,,,,5cb72e7625f45e0017c31287,31,Mężczyzna,2022-06-04_08h13.19.148,task,2021.1.4,Win32,60.0240096,628b806c463b948bc644b84f,629af7dff64c3b3a748b2242,,,,,2,0,2,0,1,X V Q F H G B L J M P D K C T S W R N Z,,,,,,,,,,,,,,,,,,,,,,,,,,,,,,,,,,,,,,,,,,,,,,,,,,,,,,,,,,,,,,,,,,,,,,,,,,,,,,,,,,,,,,,,,,,,,
,,,,,,,,,,5cb72e7625f45e0017c31287,31,Mężczyzna,2022-06-04_08h13.19.148,task,2021.1.4,Win32,60.0240096,628b806c463b948bc644b84f,629af7dff64c3b3a748b2242,,,,,3,0,3,0,1,X V Q F H G B L J M P D K C T S W R N Z,,,,,,,,,,,,,,,,,,,,,,,,,,,,,,,,,,,,,,,,,,,,,,,,,,,,,,,,,,,,,,,,,,,,,,,,,,,,,,,,,,,,,,,,,,,,,
,,,,,,,,,,5cb72e7625f45e0017c31287,31,Mężczyzna,2022-06-04_08h13.19.148,task,2021.1.4,Win32,60.0240096,628b806c463b948bc644b84f,629af7dff64c3b3a748b2242,,,,,4,0,4,0,1,X V Q F H G B L J M P D K C T S W R N Z,,,,,,,,,,,,,,,,,,,,,,,,,,,,,,,,,,,,,,,,,,,,,,,,,,,,,,,,,,,,,,,,,,,,,,,,,,,,,,,,,,,,,,,,,,,,,
,,,,,,,,,,5cb72e7625f45e0017c31287,31,Mężczyzna,2022-06-04_08h13.19.148,task,2021.1.4,Win32,60.0240096,628b806c463b948bc644b84f,629af7dff64c3b3a748b2242,,,,,5,0,5,0,1,X V Q F H G B L J M P D K C T S W R N Z,,,,,,,,,,,,,,,,,,,,,,,,,,,,,,,,,,,,,,,,,,,,,,,,,,,,,,,,,,,,,,,,,,,,,,,,,,,,,,,,,,,,,,,,,,,,,
,,,,,,,,,,5cb72e7625f45e0017c31287,31,Mężczyzna,2022-06-04_08h13.19.148,task,2021.1.4,Win32,60.0240096,628b806c463b948bc644b84f,629af7dff64c3b3a748b2242,,,,,6,0,6,0,1,X V Q F H G B L J M P D K C T S W R N Z,,,,,,,,,,,,,,,,,,,,,,,,,,,,,,,,,,,,,,,,,,,,,,,,,,,,,,,,,,,,,,,,,,,,,,,,,,,,,,,,,,,,,,,,,,,,,
,,,,,,,,,,5cb72e7625f45e0017c31287,31,Mężczyzna,2022-06-04_08h13.19.148,task,2021.1.4,Win32,60.0240096,628b806c463b948bc644b84f,629af7dff64c3b3a748b2242,,,,,7,0,7,0,1,X V Q F H G B L J M P D K C T S W R N Z,,,,,,,,,,,,,,,,,,,,,,,,,,,,,,,,,,,,,,,,,,,,,,,,,,,,,,,,,,,,,,,,,,,,,,,,,,,,,,,,,,,,,,,,,,,,,
,,,,,,,,,,5cb72e7625f45e0017c31287,31,Mężczyzna,2022-06-04_08h13.19.148,task,2021.1.4,Win32,60.0240096,628b806c463b948bc644b84f,629af7dff64c3b3a748b2242,,,,,,,,,,,qvlpmsc,"[""q"",""v"",""l"",""p"",""m"",""s"",""c""]","[0.38200000000006185,0.5289999999999964,0.7290000000000418,1.0120000000000573,1.2810000000000628,1.59800000000007,1.7649999999999864,2.1159999999999854]",0,QVLVPMSC,15,0,15,0,1,,,,,,,,,,,,,,,,,,,,,,,,,,,,,,,,,,,,,,,,,,,,,,,,,,,,,,,,,,,,,,,,,,,,,,,,,,,,,,,,,,,
,,,,,,,,,,5cb72e7625f45e0017c31287,31,Mężczyzna,2022-06-04_08h13.19.148,task,2021.1.4,Win32,60.0240096,628b806c463b948bc644b84f,629af7dff64c3b3a748b2242,,,,,,,,,,,,,,,,,,,,,space,20.235,2,"[""2""]",1,[3.1909999999999172],[3.1909999999999172],0,0,0,2,1,Practice,3,(4x4) - 14,2,,,,,,,,,,,,,,,,,,,,,,,,,,,,,,,,,,,,,,,,,,,,,,,,,,,,,,,,,,,,,,,,,,,
,,,,,,,,,,5cb72e7625f45e0017c31287,31,Mężczyzna,2022-06-04_08h13.19.148,task,2021.1.4,Win32,60.0240096,628b806c463b948bc644b84f,629af7dff64c3b3a748b2242,,,,,,,,,,,,,,,,,,,,,,,1,"[""1""]",1,[1.5120000000000573],"[3.1909999999999172,1.5120000000000573]",0,1,1,1,1,Practice,2,(4x4) - 15,1,,,,,,,,,,,,,,,,,,,,,,,,,,,,,,,,,,,,,,,,,,,,,,,,,,,,,,,,,,,,,,,,,,,
,,,,,,,,,,5cb72e7625f45e0017c31287,31,Mężczyzna,2022-06-04_08h13.19.148,task,2021.1.4,Win32,60.0240096,628b806c463b948bc644b84f,629af7dff64c3b3a748b2242,,,,,,,,,,,,,,,,,,,,,,,4,"[""4""]",1,[2.399000000000001],"[3.1909999999999172,1.5120000000000573,2.399000000000001]",0,2,2,4,1,Practice,5,(2x6) - 8,4,,,,,,,,,,,,,,,,,,,,,,,,,,,,,,,,,,,,,,,,,,,,,,,,,,,,,,,,,,,,,,,,,,,
,,,,,,,,,,5cb72e7625f45e0017c31287,31,Mężczyzna,2022-06-04_08h13.19.148,task,2021.1.4,Win32,60.0240096,628b806c463b948bc644b84f,629af7dff64c3b3a748b2242,,,,,,,,,,,,,,,,,,,,,,,8,"[""8""]",1,[1.7860000000000582],"[3.1909999999999172,1.5120000000000573,2.399000000000001,1.7860000000000582]",0,3,3,8,1,Practice,9,(3x3) - 1,8,,,,,,,,,,,,,,,,,,,,,,,,,,,,,,,,,,,,,,,,,,,,,,,,,,,,,,,,,,,,,,,,,,,
,,,,,,,,,,5cb72e7625f45e0017c31287,31,Mężczyzna,2022-06-04_08h13.19.148,task,2021.1.4,Win32,60.0240096,628b806c463b948bc644b84f,629af7dff64c3b3a748b2242,,,,,,,,,,,,,,,,,,,,,,,0,"[""0""]",1,[2.330000000000041],"[3.1909999999999172,1.5120000000000573,2.399000000000001,1.7860000000000582,2.330000000000041]",0,4,4,0,1,Practice,1,(3x3) -  9,0,,,,,,,,,,,,,,,,,,,,,,,,,,,,,,,,,,,,,,,,,,,,,,,,,,,,,,,,,,,,,,,,,,,
,,,,,,,,,,5cb72e7625f45e0017c31287,31,Mężczyzna,2022-06-04_08h13.19.148,task,2021.1.4,Win32,60.0240096,628b806c463b948bc644b84f,629af7dff64c3b3a748b2242,,,,,,,,,,,,,,,,,,,,,,,9,"[""9""]",1,[2.546000000000049],"[3.1909999999999172,1.5120000000000573,2.399000000000001,1.7860000000000582,2.330000000000041,2.546000000000049]",0,5,5,9,1,Practice,10,(20/2) - 1,9,,,,,,,,,,,,,,,,,,,,,,,,,,,,,,,,,,,,,,,,,,,,,,,,,,,,,,,,,,,,,,,,,,,
,,,,,,,,,,5cb72e7625f45e0017c31287,31,Mężczyzna,2022-06-04_08h13.19.148,task,2021.1.4,Win32,60.0240096,628b806c463b948bc644b84f,629af7dff64c3b3a748b2242,,,,,,,,,,,,,,,,,,,,,,,3,"[""3""]",1,[2.5149999999999864],"[3.1909999999999172,1.5120000000000573,2.399000000000001,1.7860000000000582,2.330000000000041,2.546000000000049,2.5149999999999864]",0,6,6,3,1,Practice,4,(8/4) + 1,3,,,,,,,,,,,,,,,,,,,,,,,,,,,,,,,,,,,,,,,,,,,,,,,,,,,,,,,,,,,,,,,,,,,
,,,,,,,,,,5cb72e7625f45e0017c31287,31,Mężczyzna,2022-06-04_08h13.19.148,task,2021.1.4,Win32,60.0240096,628b806c463b948bc644b84f,629af7dff64c3b3a748b2242,,,,,,,,,,,,,,,,,,,,,,,6,"[""6""]",1,[2.379000000000019],"[3.1909999999999172,1.5120000000000573,2.399000000000001,1.7860000000000582,2.330000000000041,2.546000000000049,2.5149999999999864,2.379000000000019]",0,7,7,6,1,Practice,7,(25/5) + 1,6,,,,,,,,,,,,,,,,,,,,,,,,,,,,,,,,,,,,,,,,,,,,,,,,,,,,,,,,,,,,,,,,,,,
,,,,,,,,,,5cb72e7625f45e0017c31287,31,Mężczyzna,2022-06-04_08h13.19.148,task,2021.1.4,Win32,60.0240096,628b806c463b948bc644b84f,629af7dff64c3b3a748b2242,,,,,,,,,,,,,,,,,,,,,,,7,"[""7""]",1,[2.463999999999942],"[3.1909999999999172,1.5120000000000573,2.399000000000001,1.7860000000000582,2.330000000000041,2.546000000000049,2.5149999999999864,2.379000000000019,2.463999999999942]",0,8,8,7,1,Practice,8,(5x5) - 18,7,,,,,,,,,,,,,,,,,,,,,,,,,,,,,,,,,,,,,,,,,,,,,,,,,,,,,,,,,,,,,,,,,,,
,,,,,,,,,,5cb72e7625f45e0017c31287,31,Mężczyzna,2022-06-04_08h13.19.148,task,2021.1.4,Win32,60.0240096,628b806c463b948bc644b84f,629af7dff64c3b3a748b2242,,,,,,,,,,,,,,,,,,,,,,,5,"[""5""]",1,[3.2959999999999354],"[3.1909999999999172,1.5120000000000573,2.399000000000001,1.7860000000000582,2.330000000000041,2.546000000000049,2.5149999999999864,2.379000000000019,2.463999999999942,3.2959999999999354]",0,9,9,5,1,Practice,6,(4/2) + 3,5,,,,,,,,,,,,,,,,,,,,,,,,,,,,,,,,,,,,,,,,,,,,,,,,,,,,,,,,,,,,,,,,,,,
,,,,,,,,,,5cb72e7625f45e0017c31287,31,Mężczyzna,2022-06-04_08h13.19.148,task,2021.1.4,Win32,60.0240096,628b806c463b948bc644b84f,629af7dff64c3b3a748b2242,,,,,,,,,,,,,,,,,,,,,,,,,,,,,,,,,,,,,1,24.418,1.627866667,9.245418311,0.78508676,3.653390507,space,3.851,0,0,0,0,1,,,,,,,,,,,,,,,,,,,,,,,,,,,,,,,,,,,,,,,,,,,,,,,,,,,,,,
,,,,,,,,,,5cb72e7625f45e0017c31287,31,Mężczyzna,2022-06-04_08h13.19.148,task,2021.1.4,Win32,60.0240096,628b806c463b948bc644b84f,629af7dff64c3b3a748b2242,,,,,,,,,,,,,,,,,,,,,,,7,,,,,,,,,,Practice,8,(5x5) - 18,7,,,,,,,,,,,,,,space,254.786,"[""7""]",1,[2.9559999999999036],1,0,0,0,7,1,,,,,,,,,,,,,,,,,,,,,,,,,,,,,,,,,,,,,,,,,,,
,,,,,,,,,,5cb72e7625f45e0017c31287,31,Mężczyzna,2022-06-04_08h13.19.148,task,2021.1.4,Win32,60.0240096,628b806c463b948bc644b84f,629af7dff64c3b3a748b2242,,,,,,,,,,X V Q F H G B L J M P D K C T S W R N Z,,,,,,,,,,,,,,,,,,,,,,,,,,,,,,,,,,,,,,,,,,,,,,,,,,,0,0,0,0,1,,,,,,,,,,,,,,,,,,,,,,,,,,,,,,,,,,,,,,
,,,,,,,,,,5cb72e7625f45e0017c31287,31,Mężczyzna,2022-06-04_08h13.19.148,task,2021.1.4,Win32,60.0240096,628b806c463b948bc644b84f,629af7dff64c3b3a748b2242,,,,,,,,,,,,,,,,,,,,,,,7,,,,,,,,,,Practice,8,(5x5) - 18,7,,,,,,,,,,,,,,,,"[""7""]",1,[2.423999999999978],1,0,0,0,7,1,,,,,,,,,,,,,,,,,,,,,,,,,,,,,,,,,,,,,,,,,,,
,,,,,,,,,,5cb72e7625f45e0017c31287,31,Mężczyzna,2022-06-04_08h13.19.148,task,2021.1.4,Win32,60.0240096,628b806c463b948bc644b84f,629af7dff64c3b3a748b2242,,,,,,,,,,X V Q F H G B L J M P D K C T S W R N Z,,,,,,,,,,,,,,,,,,,,,,,,,,,,,,,,,,,,,,,,,,,,,,,,,,,1,0,1,0,1,,,,,,,,,,,,,,,,,,,,,,,,,,,,,,,,,,,,,,
,,,,,,,,,,5cb72e7625f45e0017c31287,31,Mężczyzna,2022-06-04_08h13.19.148,task,2021.1.4,Win32,60.0240096,628b806c463b948bc644b84f,629af7dff64c3b3a748b2242,,,,,,,,,,,,,,,,,,,,,,,,,,,,,,,,,,,,,,,,,,,,,,,,,,,,,,,,,,,,,,,,,,zf,"[""z"",""f""]",0,"[2.3360000000000127,2.465000000000032,3.2390000000000327]",1,0,0,0,0,1,,,,,,,,,,,,,,,,,,,,,,,,,,,,
,,,,,,,,,,5cb72e7625f45e0017c31287,31,Mężczyzna,2022-06-04_08h13.19.148,task,2021.1.4,Win32,60.0240096,628b806c463b948bc644b84f,629af7dff64c3b3a748b2242,,,,,,,,,,,,,,,,,,,,,,,3,,,,,,,,,,Practice,4,(8/4) + 1,3,,,,,,,,,,,,,,,,"[""3""]",1,[2.380999999999972],1,0,0,0,3,1,,,,,,,,,,,,,,,,,,,,,,,,,,,,,,,,,,,,,,,,,,,
,,,,,,,,,,5cb72e7625f45e0017c31287,31,Mężczyzna,2022-06-04_08h13.19.148,task,2021.1.4,Win32,60.0240096,628b806c463b948bc644b84f,629af7dff64c3b3a748b2242,,,,,,,,,,X V Q F H G B L J M P D K C T S W R N Z,,,,,,,,,,,,,,,,,,,,,,,,,,,,,,,,,,,,,,,,,,,,,,,,,,,0,0,0,0,1,,,,,,,,,,,,,,,,,,,,,,,,,,,,,,,,,,,,,,
,,,,,,,,,,5cb72e7625f45e0017c31287,31,Mężczyzna,2022-06-04_08h13.19.148,task,2021.1.4,Win32,60.0240096,628b806c463b948bc644b84f,629af7dff64c3b3a748b2242,,,,,,,,,,,,,,,,,,,,,,,8,,,,,,,,,,Practice,9,(3x3) - 1,8,,,,,,,,,,,,,,,,"[""8""]",1,[2.0779999999999745],1,0,0,0,8,1,,,,,,,,,,,,,,,,,,,,,,,,,,,,,,,,,,,,,,,,,,,
,,,,,,,,,,5cb72e7625f45e0017c31287,31,Mężczyzna,2022-06-04_08h13.19.148,task,2021.1.4,Win32,60.0240096,628b806c463b948bc644b84f,629af7dff64c3b3a748b2242,,,,,,,,,,X V Q F H G B L J M P D K C T S W R N Z,,,,,,,,,,,,,,,,,,,,,,,,,,,,,,,,,,,,,,,,,,,,,,,,,,,1,0,1,0,1,,,,,,,,,,,,,,,,,,,,,,,,,,,,,,,,,,,,,,
,,,,,,,,,,5cb72e7625f45e0017c31287,31,Mężczyzna,2022-06-04_08h13.19.148,task,2021.1.4,Win32,60.0240096,628b806c463b948bc644b84f,629af7dff64c3b3a748b2242,,,,,,,,,,,,,,,,,,,,,,,,,,,,,,,,,,,,,,,,,,,,,,,,,,,,,,,,,,,,,,,,,,tb,"[""t"",""b""]",0,"[2.4160000000000537,2.731999999999971,3.923999999999978]",1,1,0,1,0,1,,,,,,,,,,,,,,,,,,,,,,,,,,,,
,,,,,,,,,,5cb72e7625f45e0017c31287,31,Mężczyzna,2022-06-04_08h13.19.148,task,2021.1.4,Win32,60.0240096,628b806c463b948bc644b84f,629af7dff64c3b3a748b2242,,,,,,,,,,,,,,,,,,,,,,,3,,,,,,,,,,Practice,4,(8/4) + 1,3,,,,,,,,,,,,,,,,"[""3""]",1,[1.8389999999999418],1,0,0,0,3,1,,,,,,,,,,,,,,,,,,,,,,,,,,,,,,,,,,,,,,,,,,,
,,,,,,,,,,5cb72e7625f45e0017c31287,31,Mężczyzna,2022-06-04_08h13.19.148,task,2021.1.4,Win32,60.0240096,628b806c463b948bc644b84f,629af7dff64c3b3a748b2242,,,,,,,,,,X V Q F H G B L J M P D K C T S W R N Z,,,,,,,,,,,,,,,,,,,,,,,,,,,,,,,,,,,,,,,,,,,,,,,,,,,0,0,0,0,1,,,,,,,,,,,,,,,,,,,,,,,,,,,,,,,,,,,,,,
,,,,,,,,,,5cb72e7625f45e0017c31287,31,Mężczyzna,2022-06-04_08h13.19.148,task,2021.1.4,Win32,60.0240096,628b806c463b948bc644b84f,629af7dff64c3b3a748b2242,,,,,,,,,,,,,,,,,,,,,,,8,,,,,,,,,,Practice,9,(3x3) - 1,8,,,,,,,,,,,,,,,,"[""8""]",1,[2.830000000000041],1,0,0,0,8,1,,,,,,,,,,,,,,,,,,,,,,,,,,,,,,,,,,,,,,,,,,,
,,,,,,,,,,5cb72e7625f45e0017c31287,31,Mężczyzna,2022-06-04_08h13.19.148,task,2021.1.4,Win32,60.0240096,628b806c463b948bc644b84f,629af7dff64c3b3a748b2242,,,,,,,,,,X V Q F H G B L J M P D K C T S W R N Z,,,,,,,,,,,,,,,,,,,,,,,,,,,,,,,,,,,,,,,,,,,,,,,,,,,1,0,1,0,1,,,,,,,,,,,,,,,,,,,,,,,,,,,,,,,,,,,,,,
,,,,,,,,,,5cb72e7625f45e0017c31287,31,Mężczyzna,2022-06-04_08h13.19.148,task,2021.1.4,Win32,60.0240096,628b806c463b948bc644b84f,629af7dff64c3b3a748b2242,,,,,,,,,,,,,,,,,,,,,,,,,,,,,,,,,,,,,,,,,,,,,,,,,,,,,,,,,,,,,,,,,,sd,"[""s"",""d""]",0,"[1.30499999999995,1.66700000000003,2.838999999999942]",1,2,0,2,0,1,,,,,,,,,,,,,,,,,,,,,,,,,,,,
,,,,,,,,,,5cb72e7625f45e0017c31287,31,Mężczyzna,2022-06-04_08h13.19.148,task,2021.1.4,Win32,60.0240096,628b806c463b948bc644b84f,629af7dff64c3b3a748b2242,,,,,,,,,,,,,,,,,,,,,,,7,,,,,,,,,,Task,14,(2x2) + 3,7,,,,,,,,,,,,,,,,,,,1,,,,,,,,,,,,,,,,,,,,,space,35.576,"[""7""]",1,[2.588000000000079],0,0,0,13,1,,,,,,,,,,,,,,,,,,
,,,,,,,,,,5cb72e7625f45e0017c31287,31,Mężczyzna,2022-06-04_08h13.19.148,task,2021.1.4,Win32,60.0240096,628b806c463b948bc644b84f,629af7dff64c3b3a748b2242,,,,,,,,,,X V Q F H G B L J M P D K C T S W R N Z,,,,,,,,,,,,,,,,,,,,,,,,,,,,,,,,,,,,,,,,,,,,,,,,,,,,,,,,,,,,,,,,,,,,,,,,,,,,0,0,0,0,1,,,,,,,,,,,,,
,,,,,,,,,,5cb72e7625f45e0017c31287,31,Mężczyzna,2022-06-04_08h13.19.148,task,2021.1.4,Win32,60.0240096,628b806c463b948bc644b84f,629af7dff64c3b3a748b2242,,,,,,,,,,,,,,,,,,,,,,,4,,,,,,,,,,Task,21,(10/2) - 1,4,,,,,,,,,,,,,,,,,,,1,,,,,,,,,,,,,,,,,,,,,,,"[""4""]",1,[2.1790000000000873],0,0,0,20,1,,,,,,,,,,,,,,,,,,
,,,,,,,,,,5cb72e7625f45e0017c31287,31,Mężczyzna,2022-06-04_08h13.19.148,task,2021.1.4,Win32,60.0240096,628b806c463b948bc644b84f,629af7dff64c3b3a748b2242,,,,,,,,,,X V Q F H G B L J M P D K C T S W R N Z,,,,,,,,,,,,,,,,,,,,,,,,,,,,,,,,,,,,,,,,,,,,,,,,,,,,,,,,,,,,,,,,,,,,,,,,,,,,1,0,1,0,1,,,,,,,,,,,,,
,,,,,,,,,,5cb72e7625f45e0017c31287,31,Mężczyzna,2022-06-04_08h13.19.148,task,2021.1.4,Win32,60.0240096,628b806c463b948bc644b84f,629af7dff64c3b3a748b2242,,,,,,,,,,,,,,,,,,,,,,,,,,,,,,,,,,,,,,,,,,,,,,,,,,,,,,,,,,,,,,,,,,,,,,,,,,,,,,,,,,,,,,,,,,,zl,"[""z"",""l""]",0,"[1.3920000000000528,1.6050000000000182,2.7330000000001746]",1,ZL,0,0,0,0,1,,
,,,,,,,,,,5cb72e7625f45e0017c31287,31,Mężczyzna,2022-06-04_08h13.19.148,task,2021.1.4,Win32,60.0240096,628b806c463b948bc644b84f,629af7dff64c3b3a748b2242,,,,,,,,,,,,,,,,,,,,,,,7,,,,,,,,,,Task,14,(2x2) + 3,7,,,,,,,,,,,,,,,,,,,1,,,,,,,,,,,,,,,,,,,,,,,"[""7""]",1,[2.536000000000058],0,0,0,13,1,,,,,,,,,,,,,,,,,,
,,,,,,,,,,5cb72e7625f45e0017c31287,31,Mężczyzna,2022-06-04_08h13.19.148,task,2021.1.4,Win32,60.0240096,628b806c463b948bc644b84f,629af7dff64c3b3a748b2242,,,,,,,,,,X V Q F H G B L J M P D K C T S W R N Z,,,,,,,,,,,,,,,,,,,,,,,,,,,,,,,,,,,,,,,,,,,,,,,,,,,,,,,,,,,,,,,,,,,,,,,,,,,,0,0,0,0,1,,,,,,,,,,,,,
,,,,,,,,,,5cb72e7625f45e0017c31287,31,Mężczyzna,2022-06-04_08h13.19.148,task,2021.1.4,Win32,60.0240096,628b806c463b948bc644b84f,629af7dff64c3b3a748b2242,,,,,,,,,,,,,,,,,,,,,,,3,,,,,,,,,,Task,3,(2x3) - 3,3,,,,,,,,,,,,,,,,,,,1,,,,,,,,,,,,,,,,,,,,,,,"[""3""]",1,[3.0219999999999345],0,0,0,2,1,,,,,,,,,,,,,,,,,,
,,,,,,,,,,5cb72e7625f45e0017c31287,31,Mężczyzna,2022-06-04_08h13.19.148,task,2021.1.4,Win32,60.0240096,628b806c463b948bc644b84f,629af7dff64c3b3a748b2242,,,,,,,,,,X V Q F H G B L J M P D K C T S W R N Z,,,,,,,,,,,,,,,,,,,,,,,,,,,,,,,,,,,,,,,,,,,,,,,,,,,,,,,,,,,,,,,,,,,,,,,,,,,,1,0,1,0,1,,,,,,,,,,,,,
,,,,,,,,,,5cb72e7625f45e0017c31287,31,Mężczyzna,2022-06-04_08h13.19.148,task,2021.1.4,Win32,60.0240096,628b806c463b948bc644b84f,629af7dff64c3b3a748b2242,,,,,,,,,,,,,,,,,,,,,,,,,,,,,,,,,Task,36,(8/4) + 3,5,,,,,,,,,,,,,,,,,,,0,,,,,,,,,,,,,,,,,,,,,,,,0,,0,0,0,35,1,,,,,,,,,,,,,,,,,,
,,,,,,,,,,5cb72e7625f45e0017c31287,31,Mężczyzna,2022-06-04_08h13.19.148,task,2021.1.4,Win32,60.0240096,628b806c463b948bc644b84f,629af7dff64c3b3a748b2242,,,,,,,,,,,,,,,,,,,,,,,6,,,,,,,,,,Task,30,(6/3) + 4 ,6,,,,,,,,,,,,,,,,,,,1,,,,,,,,,,,,,,,,,,,,,,,"[""6""]",1,[2.6130000000000564],0,1,1,29,1,,,,,,,,,,,,,,,,,,
,,,,,,,,,,5cb72e7625f45e0017c31287,31,Mężczyzna,2022-06-04_08h13.19.148,task,2021.1.4,Win32,60.0240096,628b806c463b948bc644b84f,629af7dff64c3b3a748b2242,,,,,,,,,,X V Q F H G B L J M P D K C T S W R N Z,,,,,,,,,,,,,,,,,,,,,,,,,,,,,,,,,,,,,,,,,,,,,,,,,,,,,,,,,,,,,,,,,,,,,,,,,,,,2,0,2,0,1,,,,,,,,,,,,,
,,,,,,,,,,5cb72e7625f45e0017c31287,31,Mężczyzna,2022-06-04_08h13.19.148,task,2021.1.4,Win32,60.0240096,628b806c463b948bc644b84f,629af7dff64c3b3a748b2242,,,,,,,,,,,,,,,,,,,,,,,,,,,,,,,,,,,,,,,,,,,,,,,,,,,,,,,,,,,,,,,,,,,,,,,,,,,,,,,,,,,,,,,,,,,cbw,"[""c"",""b"",""w""]",0,"[1.2509999999999764,1.6380000000001473,1.7830000000001291,2.6390000000001237]",1,CBW,1,0,1,0,1,,
,,,,,,,,,,5cb72e7625f45e0017c31287,31,Mężczyzna,2022-06-04_08h13.19.148,task,2021.1.4,Win32,60.0240096,628b806c463b948bc644b84f,629af7dff64c3b3a748b2242,,,,,,,,,,,,,,,,,,,,,,,1,,,,,,,,,,Task,18,(16/4) - 3,1,,,,,,,,,,,,,,,,,,,1,,,,,,,,,,,,,,,,,,,,,,,"[""1""]",1,[2.336999999999989],0,0,0,17,1,,,,,,,,,,,,,,,,,,
,,,,,,,,,,5cb72e7625f45e0017c31287,31,Mężczyzna,2022-06-04_08h13.19.148,task,2021.1.4,Win32,60.0240096,628b806c463b948bc644b84f,629af7dff64c3b3a748b2242,,,,,,,,,,X V Q F H G B L J M P D K C T S W R N Z,,,,,,,,,,,,,,,,,,,,,,,,,,,,,,,,,,,,,,,,,,,,,,,,,,,,,,,,,,,,,,,,,,,,,,,,,,,,0,0,0,0,1,,,,,,,,,,,,,
,,,,,,,,,,5cb72e7625f45e0017c31287,31,Mężczyzna,2022-06-04_08h13.19.148,task,2021.1.4,Win32,60.0240096,628b806c463b948bc644b84f,629af7dff64c3b3a748b2242,,,,,,,,,,,,,,,,,,,,,,,6,,,,,,,,,,Task,5,(2x3) + 0,6,,,,,,,,,,,,,,,,,,,1,,,,,,,,,,,,,,,,,,,,,,,"[""6""]",1,[1.5540000000000873],0,0,0,4,1,,,,,,,,,,,,,,,,,,
,,,,,,,,,,5cb72e7625f45e0017c31287,31,Mężczyzna,2022-06-04_08h13.19.148,task,2021.1.4,Win32,60.0240096,628b806c463b948bc644b84f,629af7dff64c3b3a748b2242,,,,,,,,,,X V Q F H G B L J M P D K C T S W R N Z,,,,,,,,,,,,,,,,,,,,,,,,,,,,,,,,,,,,,,,,,,,,,,,,,,,,,,,,,,,,,,,,,,,,,,,,,,,,1,0,1,0,1,,,,,,,,,,,,,
,,,,,,,,,,5cb72e7625f45e0017c31287,31,Mężczyzna,2022-06-04_08h13.19.148,task,2021.1.4,Win32,60.0240096,628b806c463b948bc644b84f,629af7dff64c3b3a748b2242,,,,,,,,,,,,,,,,,,,,,,,5,,,,,,,,,,Task,12,(4x4) - 11,5,,,,,,,,,,,,,,,,,,,1,,,,,,,,,,,,,,,,,,,,,,,"[""5""]",1,[1.9120000000000346],0,0,0,11,1,,,,,,,,,,,,,,,,,,
,,,,,,,,,,5cb72e7625f45e0017c31287,31,Mężczyzna,2022-06-04_08h13.19.148,task,2021.1.4,Win32,60.0240096,628b806c463b948bc644b84f,629af7dff64c3b3a748b2242,,,,,,,,,,X V Q F H G B L J M P D K C T S W R N Z,,,,,,,,,,,,,,,,,,,,,,,,,,,,,,,,,,,,,,,,,,,,,,,,,,,,,,,,,,,,,,,,,,,,,,,,,,,,2,0,2,0,1,,,,,,,,,,,,,
,,,,,,,,,,5cb72e7625f45e0017c31287,31,Mężczyzna,2022-06-04_08h13.19.148,task,2021.1.4,Win32,60.0240096,628b806c463b948bc644b84f,629af7dff64c3b3a748b2242,,,,,,,,,,,,,,,,,,,,,,,8,,,,,,,,,,Task,32,(8/2) + 4,8,,,,,,,,,,,,,,,,,,,1,,,,,,,,,,,,,,,,,,,,,,,"[""8""]",1,[2.716000000000122],0,0,0,31,1,,,,,,,,,,,,,,,,,,
,,,,,,,,,,5cb72e7625f45e0017c31287,31,Mężczyzna,2022-06-04_08h13.19.148,task,2021.1.4,Win32,60.0240096,628b806c463b948bc644b84f,629af7dff64c3b3a748b2242,,,,,,,,,,X V Q F H G B L J M P D K C T S W R N Z,,,,,,,,,,,,,,,,,,,,,,,,,,,,,,,,,,,,,,,,,,,,,,,,,,,,,,,,,,,,,,,,,,,,,,,,,,,,3,0,3,0,1,,,,,,,,,,,,,
,,,,,,,,,,5cb72e7625f45e0017c31287,31,Mężczyzna,2022-06-04_08h13.19.148,task,2021.1.4,Win32,60.0240096,628b806c463b948bc644b84f,629af7dff64c3b3a748b2242,,,,,,,,,,,,,,,,,,,,,,,,,,,,,,,,,,,,,,,,,,,,,,,,,,,,,,,,,,,,,,,,,,,,,,,,,,,,,,,,,,,,,,,,,,,zjnd,"[""z"",""j"",""n"",""d""]",0,"[1.25,1.5830000000000837,1.8730000000000473,2.4329999999999927,4.7999999999999545]",1,ZJND,2,0,2,0,1,,
,,,,,,,,,,5cb72e7625f45e0017c31287,31,Mężczyzna,2022-06-04_08h13.19.148,task,2021.1.4,Win32,60.0240096,628b806c463b948bc644b84f,629af7dff64c3b3a748b2242,,,,,,,,,,,,,,,,,,,,,,,7,,,,,,,,,,Task,31,(4/2) + 5,7,,,,,,,,,,,,,,,,,,,1,,,,,,,,,,,,,,,,,,,,,,,"[""7""]",1,[2.7649999999998727],0,0,0,30,1,,,,,,,,,,,,,,,,,,
,,,,,,,,,,5cb72e7625f45e0017c31287,31,Mężczyzna,2022-06-04_08h13.19.148,task,2021.1.4,Win32,60.0240096,628b806c463b948bc644b84f,629af7dff64c3b3a748b2242,,,,,,,,,,X V Q F H G B L J M P D K C T S W R N Z,,,,,,,,,,,,,,,,,,,,,,,,,,,,,,,,,,,,,,,,,,,,,,,,,,,,,,,,,,,,,,,,,,,,,,,,,,,,0,0,0,0,1,,,,,,,,,,,,,
,,,,,,,,,,5cb72e7625f45e0017c31287,31,Mężczyzna,2022-06-04_08h13.19.148,task,2021.1.4,Win32,60.0240096,628b806c463b948bc644b84f,629af7dff64c3b3a748b2242,,,,,,,,,,,,,,,,,,,,,,,,,,,,,,,,,Task,38,(4x6) - 17,7,,,,,,,,,,,,,,,,,,,0,,,,,,,,,,,,,,,,,,,,,,,,0,,0,0,0,37,1,,,,,,,,,,,,,,,,,,
,,,,,,,,,,5cb72e7625f45e0017c31287,31,Mężczyzna,2022-06-04_08h13.19.148,task,2021.1.4,Win32,60.0240096,628b806c463b948bc644b84f,629af7dff64c3b3a748b2242,,,,,,,,,,,,,,,,,,,,,,,0,,,,,,,,,,Task,17,(2x3) - 6,0,,,,,,,,,,,,,,,,,,,1,,,,,,,,,,,,,,,,,,,,,,,"[""0""]",1,[2.413000000000011],0,1,1,16,1,,,,,,,,,,,,,,,,,,
,,,,,,,,,,5cb72e7625f45e0017c31287,31,Mężczyzna,2022-06-04_08h13.19.148,task,2021.1.4,Win32,60.0240096,628b806c463b948bc644b84f,629af7dff64c3b3a748b2242,,,,,,,,,,X V Q F H G B L J M P D K C T S W R N Z,,,,,,,,,,,,,,,,,,,,,,,,,,,,,,,,,,,,,,,,,,,,,,,,,,,,,,,,,,,,,,,,,,,,,,,,,,,,1,0,1,0,1,,,,,,,,,,,,,
,,,,,,,,,,5cb72e7625f45e0017c31287,31,Mężczyzna,2022-06-04_08h13.19.148,task,2021.1.4,Win32,60.0240096,628b806c463b948bc644b84f,629af7dff64c3b3a748b2242,,,,,,,,,,,,,,,,,,,,,,,7,,,,,,,,,,Task,38,(4x6) - 17,7,,,,,,,,,,,,,,,,,,,1,,,,,,,,,,,,,,,,,,,,,,,"[""7""]",1,[3.0670000000000073],0,0,0,37,1,,,,,,,,,,,,,,,,,,
,,,,,,,,,,5cb72e7625f45e0017c31287,31,Mężczyzna,2022-06-04_08h13.19.148,task,2021.1.4,Win32,60.0240096,628b806c463b948bc644b84f,629af7dff64c3b3a748b2242,,,,,,,,,,X V Q F H G B L J M P D K C T S W R N Z,,,,,,,,,,,,,,,,,,,,,,,,,,,,,,,,,,,,,,,,,,,,,,,,,,,,,,,,,,,,,,,,,,,,,,,,,,,,2,0,2,0,1,,,,,,,,,,,,,
,,,,,,,,,,5cb72e7625f45e0017c31287,31,Mężczyzna,2022-06-04_08h13.19.148,task,2021.1.4,Win32,60.0240096,628b806c463b948bc644b84f,629af7dff64c3b3a748b2242,,,,,,,,,,,,,,,,,,,,,,,8,,,,,,,,,,Task,15,(3x7) - 13,8,,,,,,,,,,,,,,,,,,,1,,,,,,,,,,,,,,,,,,,,,,,"[""8""]",1,[2.2390000000000327],0,0,0,14,1,,,,,,,,,,,,,,,,,,
,,,,,,,,,,5cb72e7625f45e0017c31287,31,Mężczyzna,2022-06-04_08h13.19.148,task,2021.1.4,Win32,60.0240096,628b806c463b948bc644b84f,629af7dff64c3b3a748b2242,,,,,,,,,,X V Q F H G B L J M P D K C T S W R N Z,,,,,,,,,,,,,,,,,,,,,,,,,,,,,,,,,,,,,,,,,,,,,,,,,,,,,,,,,,,,,,,,,,,,,,,,,,,,3,0,3,0,1,,,,,,,,,,,,,
,,,,,,,,,,5cb72e7625f45e0017c31287,31,Mężczyzna,2022-06-04_08h13.19.148,task,2021.1.4,Win32,60.0240096,628b806c463b948bc644b84f,629af7dff64c3b3a748b2242,,,,,,,,,,,,,,,,,,,,,,,9,,,,,,,,,,Task,7,(3x7) - 12,9,,,,,,,,,,,,,,,,,,,1,,,,,,,,,,,,,,,,,,,,,,,"[""9""]",1,[3.0540000000000873],0,0,0,6,1,,,,,,,,,,,,,,,,,,
,,,,,,,,,,5cb72e7625f45e0017c31287,31,Mężczyzna,2022-06-04_08h13.19.148,task,2021.1.4,Win32,60.0240096,628b806c463b948bc644b84f,629af7dff64c3b3a748b2242,,,,,,,,,,X V Q F H G B L J M P D K C T S W R N Z,,,,,,,,,,,,,,,,,,,,,,,,,,,,,,,,,,,,,,,,,,,,,,,,,,,,,,,,,,,,,,,,,,,,,,,,,,,,4,0,4,0,1,,,,,,,,,,,,,
,,,,,,,,,,5cb72e7625f45e0017c31287,31,Mężczyzna,2022-06-04_08h13.19.148,task,2021.1.4,Win32,60.0240096,628b806c463b948bc644b84f,629af7dff64c3b3a748b2242,,,,,,,,,,,,,,,,,,,,,,,,,,,,,,,,,,,,,,,,,,,,,,,,,,,,,,,,,,,,,,,,,,,,,,,,,,,,,,,,,,,,,,,,,,,xdwcx,"[""x"",""d"",""w"",""c"",""x""]",0,"[1.6829999999999927,2.216000000000122,2.633000000000038,3.032000000000153,3.464000000000169,5.701000000000022]",1,XDWCX,3,0,3,0,1,,
,,,,,,,,,,5cb72e7625f45e0017c31287,31,Mężczyzna,2022-06-04_08h13.19.148,task,2021.1.4,Win32,60.0240096,628b806c463b948bc644b84f,629af7dff64c3b3a748b2242,,,,,,,,,,,,,,,,,,,,,,,6,,,,,,,,,,Task,30,(6/3) + 4 ,6,,,,,,,,,,,,,,,,,,,1,,,,,,,,,,,,,,,,,,,,,,,"[""6""]",1,[3.0190000000000055],0,0,0,29,1,,,,,,,,,,,,,,,,,,
,,,,,,,,,,5cb72e7625f45e0017c31287,31,Mężczyzna,2022-06-04_08h13.19.148,task,2021.1.4,Win32,60.0240096,628b806c463b948bc644b84f,629af7dff64c3b3a748b2242,,,,,,,,,,X V Q F H G B L J M P D K C T S W R N Z,,,,,,,,,,,,,,,,,,,,,,,,,,,,,,,,,,,,,,,,,,,,,,,,,,,,,,,,,,,,,,,,,,,,,,,,,,,,0,0,0,0,1,,,,,,,,,,,,,
,,,,,,,,,,5cb72e7625f45e0017c31287,31,Mężczyzna,2022-06-04_08h13.19.148,task,2021.1.4,Win32,60.0240096,628b806c463b948bc644b84f,629af7dff64c3b3a748b2242,,,,,,,,,,,,,,,,,,,,,,,0,,,,,,,,,,Task,8,(1x5) - 5,0,,,,,,,,,,,,,,,,,,,1,,,,,,,,,,,,,,,,,,,,,,,"[""0""]",1,[1.8840000000000146],0,0,0,7,1,,,,,,,,,,,,,,,,,,
,,,,,,,,,,5cb72e7625f45e0017c31287,31,Mężczyzna,2022-06-04_08h13.19.148,task,2021.1.4,Win32,60.0240096,628b806c463b948bc644b84f,629af7dff64c3b3a748b2242,,,,,,,,,,X V Q F H G B L J M P D K C T S W R N Z,,,,,,,,,,,,,,,,,,,,,,,,,,,,,,,,,,,,,,,,,,,,,,,,,,,,,,,,,,,,,,,,,,,,,,,,,,,,1,0,1,0,1,,,,,,,,,,,,,
,,,,,,,,,,5cb72e7625f45e0017c31287,31,Mężczyzna,2022-06-04_08h13.19.148,task,2021.1.4,Win32,60.0240096,628b806c463b948bc644b84f,629af7dff64c3b3a748b2242,,,,,,,,,,,,,,,,,,,,,,,8,,,,,,,,,,Task,15,(3x7) - 13,8,,,,,,,,,,,,,,,,,,,1,,,,,,,,,,,,,,,,,,,,,,,"[""8""]",1,[1.7699999999999818],0,0,0,14,1,,,,,,,,,,,,,,,,,,
,,,,,,,,,,5cb72e7625f45e0017c31287,31,Mężczyzna,2022-06-04_08h13.19.148,task,2021.1.4,Win32,60.0240096,628b806c463b948bc644b84f,629af7dff64c3b3a748b2242,,,,,,,,,,X V Q F H G B L J M P D K C T S W R N Z,,,,,,,,,,,,,,,,,,,,,,,,,,,,,,,,,,,,,,,,,,,,,,,,,,,,,,,,,,,,,,,,,,,,,,,,,,,,2,0,2,0,1,,,,,,,,,,,,,
,,,,,,,,,,5cb72e7625f45e0017c31287,31,Mężczyzna,2022-06-04_08h13.19.148,task,2021.1.4,Win32,60.0240096,628b806c463b948bc644b84f,629af7dff64c3b3a748b2242,,,,,,,,,,,,,,,,,,,,,,,6,,,,,,,,,,Task,13,(3x4) - 6,6,,,,,,,,,,,,,,,,,,,1,,,,,,,,,,,,,,,,,,,,,,,"[""6""]",1,[2.5989999999999327],0,0,0,12,1,,,,,,,,,,,,,,,,,,
,,,,,,,,,,5cb72e7625f45e0017c31287,31,Mężczyzna,2022-06-04_08h13.19.148,task,2021.1.4,Win32,60.0240096,628b806c463b948bc644b84f,629af7dff64c3b3a748b2242,,,,,,,,,,X V Q F H G B L J M P D K C T S W R N Z,,,,,,,,,,,,,,,,,,,,,,,,,,,,,,,,,,,,,,,,,,,,,,,,,,,,,,,,,,,,,,,,,,,,,,,,,,,,3,0,3,0,1,,,,,,,,,,,,,
,,,,,,,,,,5cb72e7625f45e0017c31287,31,Mężczyzna,2022-06-04_08h13.19.148,task,2021.1.4,Win32,60.0240096,628b806c463b948bc644b84f,629af7dff64c3b3a748b2242,,,,,,,,,,,,,,,,,,,,,,,0,,,,,,,,,,Task,25,(10/5) - 2,0,,,,,,,,,,,,,,,,,,,1,,,,,,,,,,,,,,,,,,,,,,,"[""0""]",1,[2.286000000000058],0,0,0,24,1,,,,,,,,,,,,,,,,,,
,,,,,,,,,,5cb72e7625f45e0017c31287,31,Mężczyzna,2022-06-04_08h13.19.148,task,2021.1.4,Win32,60.0240096,628b806c463b948bc644b84f,629af7dff64c3b3a748b2242,,,,,,,,,,X V Q F H G B L J M P D K C T S W R N Z,,,,,,,,,,,,,,,,,,,,,,,,,,,,,,,,,,,,,,,,,,,,,,,,,,,,,,,,,,,,,,,,,,,,,,,,,,,,4,0,4,0,1,,,,,,,,,,,,,
,,,,,,,,,,5cb72e7625f45e0017c31287,31,Mężczyzna,2022-06-04_08h13.19.148,task,2021.1.4,Win32,60.0240096,628b806c463b948bc644b84f,629af7dff64c3b3a748b2242,,,,,,,,,,,,,,,,,,,,,,,0,,,,,,,,,,Task,17,(2x3) - 6,0,,,,,,,,,,,,,,,,,,,1,,,,,,,,,,,,,,,,,,,,,,,"[""0""]",1,[1.57100000000014],0,0,0,16,1,,,,,,,,,,,,,,,,,,
,,,,,,,,,,5cb72e7625f45e0017c31287,31,Mężczyzna,2022-06-04_08h13.19.148,task,2021.1.4,Win32,60.0240096,628b806c463b948bc644b84f,629af7dff64c3b3a748b2242,,,,,,,,,,X V Q F H G B L J M P D K C T S W R N Z,,,,,,,,,,,,,,,,,,,,,,,,,,,,,,,,,,,,,,,,,,,,,,,,,,,,,,,,,,,,,,,,,,,,,,,,,,,,5,0,5,0,1,,,,,,,,,,,,,
,,,,,,,,,,5cb72e7625f45e0017c31287,31,Mężczyzna,2022-06-04_08h13.19.148,task,2021.1.4,Win32,60.0240096,628b806c463b948bc644b84f,629af7dff64c3b3a748b2242,,,,,,,,,,,,,,,,,,,,,,,,,,,,,,,,,,,,,,,,,,,,,,,,,,,,,,,,,,,,,,,,,,,,,,,,,,,,,,,,,,,,,,,,,,,mlrrdk,"[""m"",""l"",""r"",""r"",""d"",""k""]",0,"[1.4400000000000546,1.790000000000191,2.688000000000102,3.0900000000001455,3.6230000000000473,3.7810000000001764,4.835000000000036]",1,MLRRDK,4,0,4,0,1,,
,,,,,,,,,,5cb72e7625f45e0017c31287,31,Mężczyzna,2022-06-04_08h13.19.148,task,2021.1.4,Win32,60.0240096,628b806c463b948bc644b84f,629af7dff64c3b3a748b2242,,,,,,,,,,,,,,,,,,,,,,,9,,,,,,,,,,Task,24,(2x2) + 5,9,,,,,,,,,,,,,,,,,,,1,,,,,,,,,,,,,,,,,,,,,,,"[""9""]",1,[2.6340000000000146],0,0,0,23,1,,,,,,,,,,,,,,,,,,
,,,,,,,,,,5cb72e7625f45e0017c31287,31,Mężczyzna,2022-06-04_08h13.19.148,task,2021.1.4,Win32,60.0240096,628b806c463b948bc644b84f,629af7dff64c3b3a748b2242,,,,,,,,,,X V Q F H G B L J M P D K C T S W R N Z,,,,,,,,,,,,,,,,,,,,,,,,,,,,,,,,,,,,,,,,,,,,,,,,,,,,,,,,,,,,,,,,,,,,,,,,,,,,0,0,0,0,1,,,,,,,,,,,,,
,,,,,,,,,,5cb72e7625f45e0017c31287,31,Mężczyzna,2022-06-04_08h13.19.148,task,2021.1.4,Win32,60.0240096,628b806c463b948bc644b84f,629af7dff64c3b3a748b2242,,,,,,,,,,,,,,,,,,,,,,,6,,,,,,,,,,Task,5,(2x3) + 0,6,,,,,,,,,,,,,,,,,,,1,,,,,,,,,,,,,,,,,,,,,,,"[""6""]",1,[1.8550000000000182],0,0,0,4,1,,,,,,,,,,,,,,,,,,
,,,,,,,,,,5cb72e7625f45e0017c31287,31,Mężczyzna,2022-06-04_08h13.19.148,task,2021.1.4,Win32,60.0240096,628b806c463b948bc644b84f,629af7dff64c3b3a748b2242,,,,,,,,,,X V Q F H G B L J M P D K C T S W R N Z,,,,,,,,,,,,,,,,,,,,,,,,,,,,,,,,,,,,,,,,,,,,,,,,,,,,,,,,,,,,,,,,,,,,,,,,,,,,1,0,1,0,1,,,,,,,,,,,,,
,,,,,,,,,,5cb72e7625f45e0017c31287,31,Mężczyzna,2022-06-04_08h13.19.148,task,2021.1.4,Win32,60.0240096,628b806c463b948bc644b84f,629af7dff64c3b3a748b2242,,,,,,,,,,,,,,,,,,,,,,,4,,,,,,,,,,Task,21,(10/2) - 1,4,,,,,,,,,,,,,,,,,,,1,,,,,,,,,,,,,,,,,,,,,,,"[""4""]",1,[1.5460000000000491],0,0,0,20,1,,,,,,,,,,,,,,,,,,
,,,,,,,,,,5cb72e7625f45e0017c31287,31,Mężczyzna,2022-06-04_08h13.19.148,task,2021.1.4,Win32,60.0240096,628b806c463b948bc644b84f,629af7dff64c3b3a748b2242,,,,,,,,,,X V Q F H G B L J M P D K C T S W R N Z,,,,,,,,,,,,,,,,,,,,,,,,,,,,,,,,,,,,,,,,,,,,,,,,,,,,,,,,,,,,,,,,,,,,,,,,,,,,2,0,2,0,1,,,,,,,,,,,,,
,,,,,,,,,,5cb72e7625f45e0017c31287,31,Mężczyzna,2022-06-04_08h13.19.148,task,2021.1.4,Win32,60.0240096,628b806c463b948bc644b84f,629af7dff64c3b3a748b2242,,,,,,,,,,,,,,,,,,,,,,,4,,,,,,,,,,Task,4,(1x5) - 1,4,,,,,,,,,,,,,,,,,,,1,,,,,,,,,,,,,,,,,,,,,,,"[""4""]",1,[1.2329999999999472],0,0,0,3,1,,,,,,,,,,,,,,,,,,
,,,,,,,,,,5cb72e7625f45e0017c31287,31,Mężczyzna,2022-06-04_08h13.19.148,task,2021.1.4,Win32,60.0240096,628b806c463b948bc644b84f,629af7dff64c3b3a748b2242,,,,,,,,,,X V Q F H G B L J M P D K C T S W R N Z,,,,,,,,,,,,,,,,,,,,,,,,,,,,,,,,,,,,,,,,,,,,,,,,,,,,,,,,,,,,,,,,,,,,,,,,,,,,3,0,3,0,1,,,,,,,,,,,,,
,,,,,,,,,,5cb72e7625f45e0017c31287,31,Mężczyzna,2022-06-04_08h13.19.148,task,2021.1.4,Win32,60.0240096,628b806c463b948bc644b84f,629af7dff64c3b3a748b2242,,,,,,,,,,,,,,,,,,,,,,,6,,,,,,,,,,Task,37,(3/3) + 5,6,,,,,,,,,,,,,,,,,,,1,,,,,,,,,,,,,,,,,,,,,,,"[""6""]",1,[2.683999999999969],0,0,0,36,1,,,,,,,,,,,,,,,,,,
,,,,,,,,,,5cb72e7625f45e0017c31287,31,Mężczyzna,2022-06-04_08h13.19.148,task,2021.1.4,Win32,60.0240096,628b806c463b948bc644b84f,629af7dff64c3b3a748b2242,,,,,,,,,,X V Q F H G B L J M P D K C T S W R N Z,,,,,,,,,,,,,,,,,,,,,,,,,,,,,,,,,,,,,,,,,,,,,,,,,,,,,,,,,,,,,,,,,,,,,,,,,,,,4,0,4,0,1,,,,,,,,,,,,,
,,,,,,,,,,5cb72e7625f45e0017c31287,31,Mężczyzna,2022-06-04_08h13.19.148,task,2021.1.4,Win32,60.0240096,628b806c463b948bc644b84f,629af7dff64c3b3a748b2242,,,,,,,,,,,,,,,,,,,,,,,5,,,,,,,,,,Task,22,(3x1) + 2,5,,,,,,,,,,,,,,,,,,,1,,,,,,,,,,,,,,,,,,,,,,,"[""5""]",1,[1.3800000000001091],0,0,0,21,1,,,,,,,,,,,,,,,,,,
,,,,,,,,,,5cb72e7625f45e0017c31287,31,Mężczyzna,2022-06-04_08h13.19.148,task,2021.1.4,Win32,60.0240096,628b806c463b948bc644b84f,629af7dff64c3b3a748b2242,,,,,,,,,,X V Q F H G B L J M P D K C T S W R N Z,,,,,,,,,,,,,,,,,,,,,,,,,,,,,,,,,,,,,,,,,,,,,,,,,,,,,,,,,,,,,,,,,,,,,,,,,,,,5,0,5,0,1,,,,,,,,,,,,,
,,,,,,,,,,5cb72e7625f45e0017c31287,31,Mężczyzna,2022-06-04_08h13.19.148,task,2021.1.4,Win32,60.0240096,628b806c463b948bc644b84f,629af7dff64c3b3a748b2242,,,,,,,,,,,,,,,,,,,,,,,1,,,,,,,,,,Task,1,(12/6) - 1,1,,,,,,,,,,,,,,,,,,,1,,,,,,,,,,,,,,,,,,,,,,,"[""1""]",1,[2.469000000000051],0,0,0,0,1,,,,,,,,,,,,,,,,,,
,,,,,,,,,,5cb72e7625f45e0017c31287,31,Mężczyzna,2022-06-04_08h13.19.148,task,2021.1.4,Win32,60.0240096,628b806c463b948bc644b84f,629af7dff64c3b3a748b2242,,,,,,,,,,X V Q F H G B L J M P D K C T S W R N Z,,,,,,,,,,,,,,,,,,,,,,,,,,,,,,,,,,,,,,,,,,,,,,,,,,,,,,,,,,,,,,,,,,,,,,,,,,,,6,0,6,0,1,,,,,,,,,,,,,
,,,,,,,,,,5cb72e7625f45e0017c31287,31,Mężczyzna,2022-06-04_08h13.19.148,task,2021.1.4,Win32,60.0240096,628b806c463b948bc644b84f,629af7dff64c3b3a748b2242,,,,,,,,,,,,,,,,,,,,,,,,,,,,,,,,,,,,,,,,,,,,,,,,,,,,,,,,,,,,,,,,,,,,,,,,,,,,,,,,,,,,,,,,,,,wmncxhw,"[""w"",""m"",""n"",""c"",""x"",""h"",""w""]",0,"[1.66599999999994,1.9500000000000455,3.0319999999999254,3.4320000000000164,3.884999999999991,4.3810000000000855,4.529999999999973,5.4379999999998745]",1,WMNCXHW,5,0,5,0,1,,
,,,,,,,,,,5cb72e7625f45e0017c31287,31,Mężczyzna,2022-06-04_08h13.19.148,task,2021.1.4,Win32,60.0240096,628b806c463b948bc644b84f,629af7dff64c3b3a748b2242,,,,,,,,,,,,,,,,,,,,,,,5,,,,,,,,,,Task,12,(4x4) - 11,5,,,,,,,,,,,,,,,,,,,1,,,,,,,,,,,,,,,,,,,,,,,"[""5""]",1,[1.92899999999986],0,0,0,11,1,,,,,,,,,,,,,,,,,,
,,,,,,,,,,5cb72e7625f45e0017c31287,31,Mężczyzna,2022-06-04_08h13.19.148,task,2021.1.4,Win32,60.0240096,628b806c463b948bc644b84f,629af7dff64c3b3a748b2242,,,,,,,,,,X V Q F H G B L J M P D K C T S W R N Z,,,,,,,,,,,,,,,,,,,,,,,,,,,,,,,,,,,,,,,,,,,,,,,,,,,,,,,,,,,,,,,,,,,,,,,,,,,,0,0,0,0,1,,,,,,,,,,,,,
