key_resp_15.keys,key_resp_15.rt,key_resp_16.keys,key_resp_16.rt,key_resp_4.keys,key_resp_4.rt,next_letter.thisRepN,next_letter.thisTrialN,next_letter.thisN,next_letter.thisIndex,next_letter.ran,letter,participant,Wiek*,Płeć,date,expName,psychopyVersion,OS,frameRate,study_id,session,simple_recall,key_resp_5.keys,key_resp_5.rt,simple_recall_corr,simple_recall_corrkeys,next_level.thisRepN,next_level.thisTrialN,next_level.thisN,next_level.thisIndex,next_level.ran,key_resp_2.keys,key_resp_2.rt,digit_answer,key_resp.keys,key_resp.corr,key_resp.rt,RT_list,next_equation.thisRepN,next_equation.thisTrialN,next_equation.thisN,next_equation.thisIndex,next_equation.ran,Task,Trial,Problem,Operation_answer,processing_score,sumRT,meanRT,sumdiff,sd,RT,key_resp_3.keys,key_resp_3.rt,repeat_practice.thisRepN,repeat_practice.thisTrialN,repeat_practice.thisN,repeat_practice.thisIndex,repeat_practice.ran,key_resp_6.keys,key_resp_6.rt,key_resp_11.keys,key_resp_11.corr,key_resp_11.rt,operation_correct,repeat_if_wrong_prac.thisRepN,repeat_if_wrong_prac.thisTrialN,repeat_if_wrong_prac.thisN,repeat_if_wrong_prac.thisIndex,repeat_if_wrong_prac.ran,span_size_prac.thisRepN,span_size_prac.thisTrialN,span_size_prac.thisN,span_size_prac.thisIndex,span_size_prac.ran,complex_recall_practice,key_resp_9.keys,key_resp_9.corr,key_resp_9.rt,complex_prac_corr,span_recall_prac.thisRepN,span_recall_prac.thisTrialN,span_recall_prac.thisN,span_recall_prac.thisIndex,span_recall_prac.ran,key_resp_10.keys,key_resp_10.rt,key_resp_7.keys,key_resp_7.corr,key_resp_7.rt,repeat_if_wrong.thisRepN,repeat_if_wrong.thisTrialN,repeat_if_wrong.thisN,repeat_if_wrong.thisIndex,repeat_if_wrong.ran,span_size.thisRepN,span_size.thisTrialN,span_size.thisN,span_size.thisIndex,span_size.ran,complex_recall,key_resp_8.keys,key_resp_8.corr,key_resp_8.rt,complex_recall_corr,complex_recall_corrkeys,span_recall.thisRepN,span_recall.thisTrialN,span_recall.thisN,span_recall.thisIndex,span_recall.ran,key_resp_13.keys,key_resp_13.corr,key_resp_13.rt,random_loop.thisRepN,random_loop.thisTrialN,random_loop.thisN,random_loop.thisIndex,random_loop.ran,key_resp_12.keys,key_resp_12.rt
space,11.679,space,12.593,space,7.952,0,0,0,0,1,X V Q F H G B L J M P D K C T S W R N Z,5cebae5b2e4f1700012a915a,26,Mężczyzna,2022-06-11_09h39.18.144,task,2021.1.4,MacIntel,52.63157895,6299f149e92ead563fba08ef,62a444b630ad2be50bae4c29,,,,,,,,,,,,,,,,,,,,,,,,,,,,,,,,,,,,,,,,,,,,,,,,,,,,,,,,,,,,,,,,,,,,,,,,,,,,,,,,,,,,,,,,,,,,,,,,,,,,,
,,,,,,1,0,1,0,1,X V Q F H G B L J M P D K C T S W R N Z,5cebae5b2e4f1700012a915a,26,Mężczyzna,2022-06-11_09h39.18.144,task,2021.1.4,MacIntel,52.63157895,6299f149e92ead563fba08ef,62a444b630ad2be50bae4c29,,,,,,,,,,,,,,,,,,,,,,,,,,,,,,,,,,,,,,,,,,,,,,,,,,,,,,,,,,,,,,,,,,,,,,,,,,,,,,,,,,,,,,,,,,,,,,,,,,,,,
,,,,,,,,,,,,5cebae5b2e4f1700012a915a,26,Mężczyzna,2022-06-11_09h39.18.144,task,2021.1.4,MacIntel,52.63157895,6299f149e92ead563fba08ef,62a444b630ad2be50bae4c29,zz,"[""z"",""z""]","[1.9320000000000022,2.353999999999999,4.2989999999999995]",1,ZZ,0,0,0,0,1,,,,,,,,,,,,,,,,,,,,,,,,,,,,,,,,,,,,,,,,,,,,,,,,,,,,,,,,,,,,,,,,,,,,,,,,,,,,,,,,,,,,,,,,,,,
,,,,,,0,0,0,0,1,X V Q F H G B L J M P D K C T S W R N Z,5cebae5b2e4f1700012a915a,26,Mężczyzna,2022-06-11_09h39.18.144,task,2021.1.4,MacIntel,52.63157895,6299f149e92ead563fba08ef,62a444b630ad2be50bae4c29,,,,,,,,,,,,,,,,,,,,,,,,,,,,,,,,,,,,,,,,,,,,,,,,,,,,,,,,,,,,,,,,,,,,,,,,,,,,,,,,,,,,,,,,,,,,,,,,,,,,,
,,,,,,1,0,1,0,1,X V Q F H G B L J M P D K C T S W R N Z,5cebae5b2e4f1700012a915a,26,Mężczyzna,2022-06-11_09h39.18.144,task,2021.1.4,MacIntel,52.63157895,6299f149e92ead563fba08ef,62a444b630ad2be50bae4c29,,,,,,,,,,,,,,,,,,,,,,,,,,,,,,,,,,,,,,,,,,,,,,,,,,,,,,,,,,,,,,,,,,,,,,,,,,,,,,,,,,,,,,,,,,,,,,,,,,,,,
,,,,,,,,,,,,5cebae5b2e4f1700012a915a,26,Mężczyzna,2022-06-11_09h39.18.144,task,2021.1.4,MacIntel,52.63157895,6299f149e92ead563fba08ef,62a444b630ad2be50bae4c29,sg,"[""s"",""g""]","[1.0450000000000017,2.2989999999999995,3.4000000000000057]",1,SG,1,0,1,0,1,,,,,,,,,,,,,,,,,,,,,,,,,,,,,,,,,,,,,,,,,,,,,,,,,,,,,,,,,,,,,,,,,,,,,,,,,,,,,,,,,,,,,,,,,,,
,,,,,,0,0,0,0,1,X V Q F H G B L J M P D K C T S W R N Z,5cebae5b2e4f1700012a915a,26,Mężczyzna,2022-06-11_09h39.18.144,task,2021.1.4,MacIntel,52.63157895,6299f149e92ead563fba08ef,62a444b630ad2be50bae4c29,,,,,,,,,,,,,,,,,,,,,,,,,,,,,,,,,,,,,,,,,,,,,,,,,,,,,,,,,,,,,,,,,,,,,,,,,,,,,,,,,,,,,,,,,,,,,,,,,,,,,
,,,,,,1,0,1,0,1,X V Q F H G B L J M P D K C T S W R N Z,5cebae5b2e4f1700012a915a,26,Mężczyzna,2022-06-11_09h39.18.144,task,2021.1.4,MacIntel,52.63157895,6299f149e92ead563fba08ef,62a444b630ad2be50bae4c29,,,,,,,,,,,,,,,,,,,,,,,,,,,,,,,,,,,,,,,,,,,,,,,,,,,,,,,,,,,,,,,,,,,,,,,,,,,,,,,,,,,,,,,,,,,,,,,,,,,,,
,,,,,,2,0,2,0,1,X V Q F H G B L J M P D K C T S W R N Z,5cebae5b2e4f1700012a915a,26,Mężczyzna,2022-06-11_09h39.18.144,task,2021.1.4,MacIntel,52.63157895,6299f149e92ead563fba08ef,62a444b630ad2be50bae4c29,,,,,,,,,,,,,,,,,,,,,,,,,,,,,,,,,,,,,,,,,,,,,,,,,,,,,,,,,,,,,,,,,,,,,,,,,,,,,,,,,,,,,,,,,,,,,,,,,,,,,
,,,,,,,,,,,,5cebae5b2e4f1700012a915a,26,Mężczyzna,2022-06-11_09h39.18.144,task,2021.1.4,MacIntel,52.63157895,6299f149e92ead563fba08ef,62a444b630ad2be50bae4c29,hrm,"[""h"",""r"",""m""]","[0.79999999999999,0.9169999999999874,1.2819999999999894,3.484999999999985]",1,HRM,2,0,2,0,1,,,,,,,,,,,,,,,,,,,,,,,,,,,,,,,,,,,,,,,,,,,,,,,,,,,,,,,,,,,,,,,,,,,,,,,,,,,,,,,,,,,,,,,,,,,
,,,,,,0,0,0,0,1,X V Q F H G B L J M P D K C T S W R N Z,5cebae5b2e4f1700012a915a,26,Mężczyzna,2022-06-11_09h39.18.144,task,2021.1.4,MacIntel,52.63157895,6299f149e92ead563fba08ef,62a444b630ad2be50bae4c29,,,,,,,,,,,,,,,,,,,,,,,,,,,,,,,,,,,,,,,,,,,,,,,,,,,,,,,,,,,,,,,,,,,,,,,,,,,,,,,,,,,,,,,,,,,,,,,,,,,,,
,,,,,,1,0,1,0,1,X V Q F H G B L J M P D K C T S W R N Z,5cebae5b2e4f1700012a915a,26,Mężczyzna,2022-06-11_09h39.18.144,task,2021.1.4,MacIntel,52.63157895,6299f149e92ead563fba08ef,62a444b630ad2be50bae4c29,,,,,,,,,,,,,,,,,,,,,,,,,,,,,,,,,,,,,,,,,,,,,,,,,,,,,,,,,,,,,,,,,,,,,,,,,,,,,,,,,,,,,,,,,,,,,,,,,,,,,
,,,,,,2,0,2,0,1,X V Q F H G B L J M P D K C T S W R N Z,5cebae5b2e4f1700012a915a,26,Mężczyzna,2022-06-11_09h39.18.144,task,2021.1.4,MacIntel,52.63157895,6299f149e92ead563fba08ef,62a444b630ad2be50bae4c29,,,,,,,,,,,,,,,,,,,,,,,,,,,,,,,,,,,,,,,,,,,,,,,,,,,,,,,,,,,,,,,,,,,,,,,,,,,,,,,,,,,,,,,,,,,,,,,,,,,,,
,,,,,,,,,,,,5cebae5b2e4f1700012a915a,26,Mężczyzna,2022-06-11_09h39.18.144,task,2021.1.4,MacIntel,52.63157895,6299f149e92ead563fba08ef,62a444b630ad2be50bae4c29,vqr,"[""v"",""q"",""r""]","[0.9009999999999962,1.9329999999999927,2.4809999999999945,3.397999999999996]",1,VQR,3,0,3,0,1,,,,,,,,,,,,,,,,,,,,,,,,,,,,,,,,,,,,,,,,,,,,,,,,,,,,,,,,,,,,,,,,,,,,,,,,,,,,,,,,,,,,,,,,,,,
,,,,,,0,0,0,0,1,X V Q F H G B L J M P D K C T S W R N Z,5cebae5b2e4f1700012a915a,26,Mężczyzna,2022-06-11_09h39.18.144,task,2021.1.4,MacIntel,52.63157895,6299f149e92ead563fba08ef,62a444b630ad2be50bae4c29,,,,,,,,,,,,,,,,,,,,,,,,,,,,,,,,,,,,,,,,,,,,,,,,,,,,,,,,,,,,,,,,,,,,,,,,,,,,,,,,,,,,,,,,,,,,,,,,,,,,,
,,,,,,1,0,1,0,1,X V Q F H G B L J M P D K C T S W R N Z,5cebae5b2e4f1700012a915a,26,Mężczyzna,2022-06-11_09h39.18.144,task,2021.1.4,MacIntel,52.63157895,6299f149e92ead563fba08ef,62a444b630ad2be50bae4c29,,,,,,,,,,,,,,,,,,,,,,,,,,,,,,,,,,,,,,,,,,,,,,,,,,,,,,,,,,,,,,,,,,,,,,,,,,,,,,,,,,,,,,,,,,,,,,,,,,,,,
,,,,,,2,0,2,0,1,X V Q F H G B L J M P D K C T S W R N Z,5cebae5b2e4f1700012a915a,26,Mężczyzna,2022-06-11_09h39.18.144,task,2021.1.4,MacIntel,52.63157895,6299f149e92ead563fba08ef,62a444b630ad2be50bae4c29,,,,,,,,,,,,,,,,,,,,,,,,,,,,,,,,,,,,,,,,,,,,,,,,,,,,,,,,,,,,,,,,,,,,,,,,,,,,,,,,,,,,,,,,,,,,,,,,,,,,,
,,,,,,3,0,3,0,1,X V Q F H G B L J M P D K C T S W R N Z,5cebae5b2e4f1700012a915a,26,Mężczyzna,2022-06-11_09h39.18.144,task,2021.1.4,MacIntel,52.63157895,6299f149e92ead563fba08ef,62a444b630ad2be50bae4c29,,,,,,,,,,,,,,,,,,,,,,,,,,,,,,,,,,,,,,,,,,,,,,,,,,,,,,,,,,,,,,,,,,,,,,,,,,,,,,,,,,,,,,,,,,,,,,,,,,,,,
,,,,,,,,,,,,5cebae5b2e4f1700012a915a,26,Mężczyzna,2022-06-11_09h39.18.144,task,2021.1.4,MacIntel,52.63157895,6299f149e92ead563fba08ef,62a444b630ad2be50bae4c29,hhsd,"[""h"",""h"",""s"",""d""]","[0.6329999999999956,0.7999999999999972,1.3379999999999939,1.5529999999999973,2.633999999999986]",1,HHSD,4,0,4,0,1,,,,,,,,,,,,,,,,,,,,,,,,,,,,,,,,,,,,,,,,,,,,,,,,,,,,,,,,,,,,,,,,,,,,,,,,,,,,,,,,,,,,,,,,,,,
,,,,,,0,0,0,0,1,X V Q F H G B L J M P D K C T S W R N Z,5cebae5b2e4f1700012a915a,26,Mężczyzna,2022-06-11_09h39.18.144,task,2021.1.4,MacIntel,52.63157895,6299f149e92ead563fba08ef,62a444b630ad2be50bae4c29,,,,,,,,,,,,,,,,,,,,,,,,,,,,,,,,,,,,,,,,,,,,,,,,,,,,,,,,,,,,,,,,,,,,,,,,,,,,,,,,,,,,,,,,,,,,,,,,,,,,,
,,,,,,1,0,1,0,1,X V Q F H G B L J M P D K C T S W R N Z,5cebae5b2e4f1700012a915a,26,Mężczyzna,2022-06-11_09h39.18.144,task,2021.1.4,MacIntel,52.63157895,6299f149e92ead563fba08ef,62a444b630ad2be50bae4c29,,,,,,,,,,,,,,,,,,,,,,,,,,,,,,,,,,,,,,,,,,,,,,,,,,,,,,,,,,,,,,,,,,,,,,,,,,,,,,,,,,,,,,,,,,,,,,,,,,,,,
,,,,,,2,0,2,0,1,X V Q F H G B L J M P D K C T S W R N Z,5cebae5b2e4f1700012a915a,26,Mężczyzna,2022-06-11_09h39.18.144,task,2021.1.4,MacIntel,52.63157895,6299f149e92ead563fba08ef,62a444b630ad2be50bae4c29,,,,,,,,,,,,,,,,,,,,,,,,,,,,,,,,,,,,,,,,,,,,,,,,,,,,,,,,,,,,,,,,,,,,,,,,,,,,,,,,,,,,,,,,,,,,,,,,,,,,,
,,,,,,3,0,3,0,1,X V Q F H G B L J M P D K C T S W R N Z,5cebae5b2e4f1700012a915a,26,Mężczyzna,2022-06-11_09h39.18.144,task,2021.1.4,MacIntel,52.63157895,6299f149e92ead563fba08ef,62a444b630ad2be50bae4c29,,,,,,,,,,,,,,,,,,,,,,,,,,,,,,,,,,,,,,,,,,,,,,,,,,,,,,,,,,,,,,,,,,,,,,,,,,,,,,,,,,,,,,,,,,,,,,,,,,,,,
,,,,,,,,,,,,5cebae5b2e4f1700012a915a,26,Mężczyzna,2022-06-11_09h39.18.144,task,2021.1.4,MacIntel,52.63157895,6299f149e92ead563fba08ef,62a444b630ad2be50bae4c29,zwgk,"[""z"",""w"",""g"",""k""]","[0.7309999999999945,1.3979999999999961,2.0019999999999953,2.7299999999999898,3.551000000000002]",1,ZWGK,5,0,5,0,1,,,,,,,,,,,,,,,,,,,,,,,,,,,,,,,,,,,,,,,,,,,,,,,,,,,,,,,,,,,,,,,,,,,,,,,,,,,,,,,,,,,,,,,,,,,
,,,,,,0,0,0,0,1,X V Q F H G B L J M P D K C T S W R N Z,5cebae5b2e4f1700012a915a,26,Mężczyzna,2022-06-11_09h39.18.144,task,2021.1.4,MacIntel,52.63157895,6299f149e92ead563fba08ef,62a444b630ad2be50bae4c29,,,,,,,,,,,,,,,,,,,,,,,,,,,,,,,,,,,,,,,,,,,,,,,,,,,,,,,,,,,,,,,,,,,,,,,,,,,,,,,,,,,,,,,,,,,,,,,,,,,,,
,,,,,,1,0,1,0,1,X V Q F H G B L J M P D K C T S W R N Z,5cebae5b2e4f1700012a915a,26,Mężczyzna,2022-06-11_09h39.18.144,task,2021.1.4,MacIntel,52.63157895,6299f149e92ead563fba08ef,62a444b630ad2be50bae4c29,,,,,,,,,,,,,,,,,,,,,,,,,,,,,,,,,,,,,,,,,,,,,,,,,,,,,,,,,,,,,,,,,,,,,,,,,,,,,,,,,,,,,,,,,,,,,,,,,,,,,
,,,,,,2,0,2,0,1,X V Q F H G B L J M P D K C T S W R N Z,5cebae5b2e4f1700012a915a,26,Mężczyzna,2022-06-11_09h39.18.144,task,2021.1.4,MacIntel,52.63157895,6299f149e92ead563fba08ef,62a444b630ad2be50bae4c29,,,,,,,,,,,,,,,,,,,,,,,,,,,,,,,,,,,,,,,,,,,,,,,,,,,,,,,,,,,,,,,,,,,,,,,,,,,,,,,,,,,,,,,,,,,,,,,,,,,,,
,,,,,,3,0,3,0,1,X V Q F H G B L J M P D K C T S W R N Z,5cebae5b2e4f1700012a915a,26,Mężczyzna,2022-06-11_09h39.18.144,task,2021.1.4,MacIntel,52.63157895,6299f149e92ead563fba08ef,62a444b630ad2be50bae4c29,,,,,,,,,,,,,,,,,,,,,,,,,,,,,,,,,,,,,,,,,,,,,,,,,,,,,,,,,,,,,,,,,,,,,,,,,,,,,,,,,,,,,,,,,,,,,,,,,,,,,
,,,,,,4,0,4,0,1,X V Q F H G B L J M P D K C T S W R N Z,5cebae5b2e4f1700012a915a,26,Mężczyzna,2022-06-11_09h39.18.144,task,2021.1.4,MacIntel,52.63157895,6299f149e92ead563fba08ef,62a444b630ad2be50bae4c29,,,,,,,,,,,,,,,,,,,,,,,,,,,,,,,,,,,,,,,,,,,,,,,,,,,,,,,,,,,,,,,,,,,,,,,,,,,,,,,,,,,,,,,,,,,,,,,,,,,,,
,,,,,,,,,,,,5cebae5b2e4f1700012a915a,26,Mężczyzna,2022-06-11_09h39.18.144,task,2021.1.4,MacIntel,52.63157895,6299f149e92ead563fba08ef,62a444b630ad2be50bae4c29,bwgwb,"[""b"",""w"",""g"",""w"",""b""]","[0.4789999999999992,1.0339999999999918,2.114999999999995,3.003,3.201999999999998,4.680999999999997]",0,BWGBG,6,0,6,0,1,,,,,,,,,,,,,,,,,,,,,,,,,,,,,,,,,,,,,,,,,,,,,,,,,,,,,,,,,,,,,,,,,,,,,,,,,,,,,,,,,,,,,,,,,,,
,,,,,,0,0,0,0,1,X V Q F H G B L J M P D K C T S W R N Z,5cebae5b2e4f1700012a915a,26,Mężczyzna,2022-06-11_09h39.18.144,task,2021.1.4,MacIntel,52.63157895,6299f149e92ead563fba08ef,62a444b630ad2be50bae4c29,,,,,,,,,,,,,,,,,,,,,,,,,,,,,,,,,,,,,,,,,,,,,,,,,,,,,,,,,,,,,,,,,,,,,,,,,,,,,,,,,,,,,,,,,,,,,,,,,,,,,
,,,,,,1,0,1,0,1,X V Q F H G B L J M P D K C T S W R N Z,5cebae5b2e4f1700012a915a,26,Mężczyzna,2022-06-11_09h39.18.144,task,2021.1.4,MacIntel,52.63157895,6299f149e92ead563fba08ef,62a444b630ad2be50bae4c29,,,,,,,,,,,,,,,,,,,,,,,,,,,,,,,,,,,,,,,,,,,,,,,,,,,,,,,,,,,,,,,,,,,,,,,,,,,,,,,,,,,,,,,,,,,,,,,,,,,,,
,,,,,,2,0,2,0,1,X V Q F H G B L J M P D K C T S W R N Z,5cebae5b2e4f1700012a915a,26,Mężczyzna,2022-06-11_09h39.18.144,task,2021.1.4,MacIntel,52.63157895,6299f149e92ead563fba08ef,62a444b630ad2be50bae4c29,,,,,,,,,,,,,,,,,,,,,,,,,,,,,,,,,,,,,,,,,,,,,,,,,,,,,,,,,,,,,,,,,,,,,,,,,,,,,,,,,,,,,,,,,,,,,,,,,,,,,
,,,,,,3,0,3,0,1,X V Q F H G B L J M P D K C T S W R N Z,5cebae5b2e4f1700012a915a,26,Mężczyzna,2022-06-11_09h39.18.144,task,2021.1.4,MacIntel,52.63157895,6299f149e92ead563fba08ef,62a444b630ad2be50bae4c29,,,,,,,,,,,,,,,,,,,,,,,,,,,,,,,,,,,,,,,,,,,,,,,,,,,,,,,,,,,,,,,,,,,,,,,,,,,,,,,,,,,,,,,,,,,,,,,,,,,,,
,,,,,,4,0,4,0,1,X V Q F H G B L J M P D K C T S W R N Z,5cebae5b2e4f1700012a915a,26,Mężczyzna,2022-06-11_09h39.18.144,task,2021.1.4,MacIntel,52.63157895,6299f149e92ead563fba08ef,62a444b630ad2be50bae4c29,,,,,,,,,,,,,,,,,,,,,,,,,,,,,,,,,,,,,,,,,,,,,,,,,,,,,,,,,,,,,,,,,,,,,,,,,,,,,,,,,,,,,,,,,,,,,,,,,,,,,
,,,,,,,,,,,,5cebae5b2e4f1700012a915a,26,Mężczyzna,2022-06-11_09h39.18.144,task,2021.1.4,MacIntel,52.63157895,6299f149e92ead563fba08ef,62a444b630ad2be50bae4c29,sjwtb,"[""s"",""j"",""w"",""t"",""b""]","[1.085000000000008,1.5370000000000061,1.9519999999999982,2.3880000000000052,2.737000000000009,3.7169999999999987]",1,SJWTB,7,0,7,0,1,,,,,,,,,,,,,,,,,,,,,,,,,,,,,,,,,,,,,,,,,,,,,,,,,,,,,,,,,,,,,,,,,,,,,,,,,,,,,,,,,,,,,,,,,,,
,,,,,,0,0,0,0,1,X V Q F H G B L J M P D K C T S W R N Z,5cebae5b2e4f1700012a915a,26,Mężczyzna,2022-06-11_09h39.18.144,task,2021.1.4,MacIntel,52.63157895,6299f149e92ead563fba08ef,62a444b630ad2be50bae4c29,,,,,,,,,,,,,,,,,,,,,,,,,,,,,,,,,,,,,,,,,,,,,,,,,,,,,,,,,,,,,,,,,,,,,,,,,,,,,,,,,,,,,,,,,,,,,,,,,,,,,
,,,,,,1,0,1,0,1,X V Q F H G B L J M P D K C T S W R N Z,5cebae5b2e4f1700012a915a,26,Mężczyzna,2022-06-11_09h39.18.144,task,2021.1.4,MacIntel,52.63157895,6299f149e92ead563fba08ef,62a444b630ad2be50bae4c29,,,,,,,,,,,,,,,,,,,,,,,,,,,,,,,,,,,,,,,,,,,,,,,,,,,,,,,,,,,,,,,,,,,,,,,,,,,,,,,,,,,,,,,,,,,,,,,,,,,,,
,,,,,,2,0,2,0,1,X V Q F H G B L J M P D K C T S W R N Z,5cebae5b2e4f1700012a915a,26,Mężczyzna,2022-06-11_09h39.18.144,task,2021.1.4,MacIntel,52.63157895,6299f149e92ead563fba08ef,62a444b630ad2be50bae4c29,,,,,,,,,,,,,,,,,,,,,,,,,,,,,,,,,,,,,,,,,,,,,,,,,,,,,,,,,,,,,,,,,,,,,,,,,,,,,,,,,,,,,,,,,,,,,,,,,,,,,
,,,,,,3,0,3,0,1,X V Q F H G B L J M P D K C T S W R N Z,5cebae5b2e4f1700012a915a,26,Mężczyzna,2022-06-11_09h39.18.144,task,2021.1.4,MacIntel,52.63157895,6299f149e92ead563fba08ef,62a444b630ad2be50bae4c29,,,,,,,,,,,,,,,,,,,,,,,,,,,,,,,,,,,,,,,,,,,,,,,,,,,,,,,,,,,,,,,,,,,,,,,,,,,,,,,,,,,,,,,,,,,,,,,,,,,,,
,,,,,,4,0,4,0,1,X V Q F H G B L J M P D K C T S W R N Z,5cebae5b2e4f1700012a915a,26,Mężczyzna,2022-06-11_09h39.18.144,task,2021.1.4,MacIntel,52.63157895,6299f149e92ead563fba08ef,62a444b630ad2be50bae4c29,,,,,,,,,,,,,,,,,,,,,,,,,,,,,,,,,,,,,,,,,,,,,,,,,,,,,,,,,,,,,,,,,,,,,,,,,,,,,,,,,,,,,,,,,,,,,,,,,,,,,
,,,,,,,,,,,,5cebae5b2e4f1700012a915a,26,Mężczyzna,2022-06-11_09h39.18.144,task,2021.1.4,MacIntel,52.63157895,6299f149e92ead563fba08ef,62a444b630ad2be50bae4c29,qqdkp,"[""q"",""q"",""d"",""k"",""p""]","[1.3799999999999955,1.5969999999999942,2.528000000000006,3.5150000000000006,3.8700000000000045,5.754000000000005]",1,QQDKP,8,0,8,0,1,,,,,,,,,,,,,,,,,,,,,,,,,,,,,,,,,,,,,,,,,,,,,,,,,,,,,,,,,,,,,,,,,,,,,,,,,,,,,,,,,,,,,,,,,,,
,,,,,,0,0,0,0,1,X V Q F H G B L J M P D K C T S W R N Z,5cebae5b2e4f1700012a915a,26,Mężczyzna,2022-06-11_09h39.18.144,task,2021.1.4,MacIntel,52.63157895,6299f149e92ead563fba08ef,62a444b630ad2be50bae4c29,,,,,,,,,,,,,,,,,,,,,,,,,,,,,,,,,,,,,,,,,,,,,,,,,,,,,,,,,,,,,,,,,,,,,,,,,,,,,,,,,,,,,,,,,,,,,,,,,,,,,
,,,,,,1,0,1,0,1,X V Q F H G B L J M P D K C T S W R N Z,5cebae5b2e4f1700012a915a,26,Mężczyzna,2022-06-11_09h39.18.144,task,2021.1.4,MacIntel,52.63157895,6299f149e92ead563fba08ef,62a444b630ad2be50bae4c29,,,,,,,,,,,,,,,,,,,,,,,,,,,,,,,,,,,,,,,,,,,,,,,,,,,,,,,,,,,,,,,,,,,,,,,,,,,,,,,,,,,,,,,,,,,,,,,,,,,,,
,,,,,,2,0,2,0,1,X V Q F H G B L J M P D K C T S W R N Z,5cebae5b2e4f1700012a915a,26,Mężczyzna,2022-06-11_09h39.18.144,task,2021.1.4,MacIntel,52.63157895,6299f149e92ead563fba08ef,62a444b630ad2be50bae4c29,,,,,,,,,,,,,,,,,,,,,,,,,,,,,,,,,,,,,,,,,,,,,,,,,,,,,,,,,,,,,,,,,,,,,,,,,,,,,,,,,,,,,,,,,,,,,,,,,,,,,
,,,,,,3,0,3,0,1,X V Q F H G B L J M P D K C T S W R N Z,5cebae5b2e4f1700012a915a,26,Mężczyzna,2022-06-11_09h39.18.144,task,2021.1.4,MacIntel,52.63157895,6299f149e92ead563fba08ef,62a444b630ad2be50bae4c29,,,,,,,,,,,,,,,,,,,,,,,,,,,,,,,,,,,,,,,,,,,,,,,,,,,,,,,,,,,,,,,,,,,,,,,,,,,,,,,,,,,,,,,,,,,,,,,,,,,,,
,,,,,,4,0,4,0,1,X V Q F H G B L J M P D K C T S W R N Z,5cebae5b2e4f1700012a915a,26,Mężczyzna,2022-06-11_09h39.18.144,task,2021.1.4,MacIntel,52.63157895,6299f149e92ead563fba08ef,62a444b630ad2be50bae4c29,,,,,,,,,,,,,,,,,,,,,,,,,,,,,,,,,,,,,,,,,,,,,,,,,,,,,,,,,,,,,,,,,,,,,,,,,,,,,,,,,,,,,,,,,,,,,,,,,,,,,
,,,,,,5,0,5,0,1,X V Q F H G B L J M P D K C T S W R N Z,5cebae5b2e4f1700012a915a,26,Mężczyzna,2022-06-11_09h39.18.144,task,2021.1.4,MacIntel,52.63157895,6299f149e92ead563fba08ef,62a444b630ad2be50bae4c29,,,,,,,,,,,,,,,,,,,,,,,,,,,,,,,,,,,,,,,,,,,,,,,,,,,,,,,,,,,,,,,,,,,,,,,,,,,,,,,,,,,,,,,,,,,,,,,,,,,,,
,,,,,,,,,,,,5cebae5b2e4f1700012a915a,26,Mężczyzna,2022-06-11_09h39.18.144,task,2021.1.4,MacIntel,52.63157895,6299f149e92ead563fba08ef,62a444b630ad2be50bae4c29,srxhxk,"[""s"",""r"",""x"",""h"",""x"",""k""]","[0.5529999999999973,0.9350000000000023,1.6839999999999975,2.6820000000000164,3.415999999999997,4.717000000000013,5.890999999999991]",1,SRXHXK,9,0,9,0,1,,,,,,,,,,,,,,,,,,,,,,,,,,,,,,,,,,,,,,,,,,,,,,,,,,,,,,,,,,,,,,,,,,,,,,,,,,,,,,,,,,,,,,,,,,,
,,,,,,0,0,0,0,1,X V Q F H G B L J M P D K C T S W R N Z,5cebae5b2e4f1700012a915a,26,Mężczyzna,2022-06-11_09h39.18.144,task,2021.1.4,MacIntel,52.63157895,6299f149e92ead563fba08ef,62a444b630ad2be50bae4c29,,,,,,,,,,,,,,,,,,,,,,,,,,,,,,,,,,,,,,,,,,,,,,,,,,,,,,,,,,,,,,,,,,,,,,,,,,,,,,,,,,,,,,,,,,,,,,,,,,,,,
,,,,,,1,0,1,0,1,X V Q F H G B L J M P D K C T S W R N Z,5cebae5b2e4f1700012a915a,26,Mężczyzna,2022-06-11_09h39.18.144,task,2021.1.4,MacIntel,52.63157895,6299f149e92ead563fba08ef,62a444b630ad2be50bae4c29,,,,,,,,,,,,,,,,,,,,,,,,,,,,,,,,,,,,,,,,,,,,,,,,,,,,,,,,,,,,,,,,,,,,,,,,,,,,,,,,,,,,,,,,,,,,,,,,,,,,,
,,,,,,2,0,2,0,1,X V Q F H G B L J M P D K C T S W R N Z,5cebae5b2e4f1700012a915a,26,Mężczyzna,2022-06-11_09h39.18.144,task,2021.1.4,MacIntel,52.63157895,6299f149e92ead563fba08ef,62a444b630ad2be50bae4c29,,,,,,,,,,,,,,,,,,,,,,,,,,,,,,,,,,,,,,,,,,,,,,,,,,,,,,,,,,,,,,,,,,,,,,,,,,,,,,,,,,,,,,,,,,,,,,,,,,,,,
,,,,,,3,0,3,0,1,X V Q F H G B L J M P D K C T S W R N Z,5cebae5b2e4f1700012a915a,26,Mężczyzna,2022-06-11_09h39.18.144,task,2021.1.4,MacIntel,52.63157895,6299f149e92ead563fba08ef,62a444b630ad2be50bae4c29,,,,,,,,,,,,,,,,,,,,,,,,,,,,,,,,,,,,,,,,,,,,,,,,,,,,,,,,,,,,,,,,,,,,,,,,,,,,,,,,,,,,,,,,,,,,,,,,,,,,,
,,,,,,4,0,4,0,1,X V Q F H G B L J M P D K C T S W R N Z,5cebae5b2e4f1700012a915a,26,Mężczyzna,2022-06-11_09h39.18.144,task,2021.1.4,MacIntel,52.63157895,6299f149e92ead563fba08ef,62a444b630ad2be50bae4c29,,,,,,,,,,,,,,,,,,,,,,,,,,,,,,,,,,,,,,,,,,,,,,,,,,,,,,,,,,,,,,,,,,,,,,,,,,,,,,,,,,,,,,,,,,,,,,,,,,,,,
,,,,,,5,0,5,0,1,X V Q F H G B L J M P D K C T S W R N Z,5cebae5b2e4f1700012a915a,26,Mężczyzna,2022-06-11_09h39.18.144,task,2021.1.4,MacIntel,52.63157895,6299f149e92ead563fba08ef,62a444b630ad2be50bae4c29,,,,,,,,,,,,,,,,,,,,,,,,,,,,,,,,,,,,,,,,,,,,,,,,,,,,,,,,,,,,,,,,,,,,,,,,,,,,,,,,,,,,,,,,,,,,,,,,,,,,,
,,,,,,,,,,,,5cebae5b2e4f1700012a915a,26,Mężczyzna,2022-06-11_09h39.18.144,task,2021.1.4,MacIntel,52.63157895,6299f149e92ead563fba08ef,62a444b630ad2be50bae4c29,spztmq,"[""s"",""p"",""z"",""t"",""m"",""q""]","[1.1829999999999927,2.1219999999999857,2.5549999999999784,2.84699999999998,3.315999999999974,3.9529999999999745,4.802999999999969]",1,SPZTMQ,10,0,10,0,1,,,,,,,,,,,,,,,,,,,,,,,,,,,,,,,,,,,,,,,,,,,,,,,,,,,,,,,,,,,,,,,,,,,,,,,,,,,,,,,,,,,,,,,,,,,
,,,,,,0,0,0,0,1,X V Q F H G B L J M P D K C T S W R N Z,5cebae5b2e4f1700012a915a,26,Mężczyzna,2022-06-11_09h39.18.144,task,2021.1.4,MacIntel,52.63157895,6299f149e92ead563fba08ef,62a444b630ad2be50bae4c29,,,,,,,,,,,,,,,,,,,,,,,,,,,,,,,,,,,,,,,,,,,,,,,,,,,,,,,,,,,,,,,,,,,,,,,,,,,,,,,,,,,,,,,,,,,,,,,,,,,,,
,,,,,,1,0,1,0,1,X V Q F H G B L J M P D K C T S W R N Z,5cebae5b2e4f1700012a915a,26,Mężczyzna,2022-06-11_09h39.18.144,task,2021.1.4,MacIntel,52.63157895,6299f149e92ead563fba08ef,62a444b630ad2be50bae4c29,,,,,,,,,,,,,,,,,,,,,,,,,,,,,,,,,,,,,,,,,,,,,,,,,,,,,,,,,,,,,,,,,,,,,,,,,,,,,,,,,,,,,,,,,,,,,,,,,,,,,
,,,,,,2,0,2,0,1,X V Q F H G B L J M P D K C T S W R N Z,5cebae5b2e4f1700012a915a,26,Mężczyzna,2022-06-11_09h39.18.144,task,2021.1.4,MacIntel,52.63157895,6299f149e92ead563fba08ef,62a444b630ad2be50bae4c29,,,,,,,,,,,,,,,,,,,,,,,,,,,,,,,,,,,,,,,,,,,,,,,,,,,,,,,,,,,,,,,,,,,,,,,,,,,,,,,,,,,,,,,,,,,,,,,,,,,,,
,,,,,,3,0,3,0,1,X V Q F H G B L J M P D K C T S W R N Z,5cebae5b2e4f1700012a915a,26,Mężczyzna,2022-06-11_09h39.18.144,task,2021.1.4,MacIntel,52.63157895,6299f149e92ead563fba08ef,62a444b630ad2be50bae4c29,,,,,,,,,,,,,,,,,,,,,,,,,,,,,,,,,,,,,,,,,,,,,,,,,,,,,,,,,,,,,,,,,,,,,,,,,,,,,,,,,,,,,,,,,,,,,,,,,,,,,
,,,,,,4,0,4,0,1,X V Q F H G B L J M P D K C T S W R N Z,5cebae5b2e4f1700012a915a,26,Mężczyzna,2022-06-11_09h39.18.144,task,2021.1.4,MacIntel,52.63157895,6299f149e92ead563fba08ef,62a444b630ad2be50bae4c29,,,,,,,,,,,,,,,,,,,,,,,,,,,,,,,,,,,,,,,,,,,,,,,,,,,,,,,,,,,,,,,,,,,,,,,,,,,,,,,,,,,,,,,,,,,,,,,,,,,,,
,,,,,,5,0,5,0,1,X V Q F H G B L J M P D K C T S W R N Z,5cebae5b2e4f1700012a915a,26,Mężczyzna,2022-06-11_09h39.18.144,task,2021.1.4,MacIntel,52.63157895,6299f149e92ead563fba08ef,62a444b630ad2be50bae4c29,,,,,,,,,,,,,,,,,,,,,,,,,,,,,,,,,,,,,,,,,,,,,,,,,,,,,,,,,,,,,,,,,,,,,,,,,,,,,,,,,,,,,,,,,,,,,,,,,,,,,
,,,,,,6,0,6,0,1,X V Q F H G B L J M P D K C T S W R N Z,5cebae5b2e4f1700012a915a,26,Mężczyzna,2022-06-11_09h39.18.144,task,2021.1.4,MacIntel,52.63157895,6299f149e92ead563fba08ef,62a444b630ad2be50bae4c29,,,,,,,,,,,,,,,,,,,,,,,,,,,,,,,,,,,,,,,,,,,,,,,,,,,,,,,,,,,,,,,,,,,,,,,,,,,,,,,,,,,,,,,,,,,,,,,,,,,,,
,,,,,,,,,,,,5cebae5b2e4f1700012a915a,26,Mężczyzna,2022-06-11_09h39.18.144,task,2021.1.4,MacIntel,52.63157895,6299f149e92ead563fba08ef,62a444b630ad2be50bae4c29,wsxzmxq,"[""w"",""s"",""x"",""z"",""m"",""x"",""q""]","[0.7620000000000005,1.296999999999997,1.8019999999999925,2.7280000000000086,3.287000000000006,4.1980000000000075,4.479000000000013,5.550000000000011]",0,WSXMZQG,11,0,11,0,1,,,,,,,,,,,,,,,,,,,,,,,,,,,,,,,,,,,,,,,,,,,,,,,,,,,,,,,,,,,,,,,,,,,,,,,,,,,,,,,,,,,,,,,,,,,
,,,,,,0,0,0,0,1,X V Q F H G B L J M P D K C T S W R N Z,5cebae5b2e4f1700012a915a,26,Mężczyzna,2022-06-11_09h39.18.144,task,2021.1.4,MacIntel,52.63157895,6299f149e92ead563fba08ef,62a444b630ad2be50bae4c29,,,,,,,,,,,,,,,,,,,,,,,,,,,,,,,,,,,,,,,,,,,,,,,,,,,,,,,,,,,,,,,,,,,,,,,,,,,,,,,,,,,,,,,,,,,,,,,,,,,,,
,,,,,,1,0,1,0,1,X V Q F H G B L J M P D K C T S W R N Z,5cebae5b2e4f1700012a915a,26,Mężczyzna,2022-06-11_09h39.18.144,task,2021.1.4,MacIntel,52.63157895,6299f149e92ead563fba08ef,62a444b630ad2be50bae4c29,,,,,,,,,,,,,,,,,,,,,,,,,,,,,,,,,,,,,,,,,,,,,,,,,,,,,,,,,,,,,,,,,,,,,,,,,,,,,,,,,,,,,,,,,,,,,,,,,,,,,
,,,,,,2,0,2,0,1,X V Q F H G B L J M P D K C T S W R N Z,5cebae5b2e4f1700012a915a,26,Mężczyzna,2022-06-11_09h39.18.144,task,2021.1.4,MacIntel,52.63157895,6299f149e92ead563fba08ef,62a444b630ad2be50bae4c29,,,,,,,,,,,,,,,,,,,,,,,,,,,,,,,,,,,,,,,,,,,,,,,,,,,,,,,,,,,,,,,,,,,,,,,,,,,,,,,,,,,,,,,,,,,,,,,,,,,,,
,,,,,,3,0,3,0,1,X V Q F H G B L J M P D K C T S W R N Z,5cebae5b2e4f1700012a915a,26,Mężczyzna,2022-06-11_09h39.18.144,task,2021.1.4,MacIntel,52.63157895,6299f149e92ead563fba08ef,62a444b630ad2be50bae4c29,,,,,,,,,,,,,,,,,,,,,,,,,,,,,,,,,,,,,,,,,,,,,,,,,,,,,,,,,,,,,,,,,,,,,,,,,,,,,,,,,,,,,,,,,,,,,,,,,,,,,
,,,,,,4,0,4,0,1,X V Q F H G B L J M P D K C T S W R N Z,5cebae5b2e4f1700012a915a,26,Mężczyzna,2022-06-11_09h39.18.144,task,2021.1.4,MacIntel,52.63157895,6299f149e92ead563fba08ef,62a444b630ad2be50bae4c29,,,,,,,,,,,,,,,,,,,,,,,,,,,,,,,,,,,,,,,,,,,,,,,,,,,,,,,,,,,,,,,,,,,,,,,,,,,,,,,,,,,,,,,,,,,,,,,,,,,,,
,,,,,,5,0,5,0,1,X V Q F H G B L J M P D K C T S W R N Z,5cebae5b2e4f1700012a915a,26,Mężczyzna,2022-06-11_09h39.18.144,task,2021.1.4,MacIntel,52.63157895,6299f149e92ead563fba08ef,62a444b630ad2be50bae4c29,,,,,,,,,,,,,,,,,,,,,,,,,,,,,,,,,,,,,,,,,,,,,,,,,,,,,,,,,,,,,,,,,,,,,,,,,,,,,,,,,,,,,,,,,,,,,,,,,,,,,
,,,,,,6,0,6,0,1,X V Q F H G B L J M P D K C T S W R N Z,5cebae5b2e4f1700012a915a,26,Mężczyzna,2022-06-11_09h39.18.144,task,2021.1.4,MacIntel,52.63157895,6299f149e92ead563fba08ef,62a444b630ad2be50bae4c29,,,,,,,,,,,,,,,,,,,,,,,,,,,,,,,,,,,,,,,,,,,,,,,,,,,,,,,,,,,,,,,,,,,,,,,,,,,,,,,,,,,,,,,,,,,,,,,,,,,,,
,,,,,,,,,,,,5cebae5b2e4f1700012a915a,26,Mężczyzna,2022-06-11_09h39.18.144,task,2021.1.4,MacIntel,52.63157895,6299f149e92ead563fba08ef,62a444b630ad2be50bae4c29,wpzrhqw,"[""w"",""p"",""z"",""r"",""h"",""q"",""w""]","[1.1169999999999902,1.6479999999999961,2.2229999999999848,3.201999999999998,3.617999999999995,4.540999999999997,5.054000000000002,5.770999999999987]",0,WPZRKQH,12,0,12,0,1,,,,,,,,,,,,,,,,,,,,,,,,,,,,,,,,,,,,,,,,,,,,,,,,,,,,,,,,,,,,,,,,,,,,,,,,,,,,,,,,,,,,,,,,,,,
,,,,,,0,0,0,0,1,X V Q F H G B L J M P D K C T S W R N Z,5cebae5b2e4f1700012a915a,26,Mężczyzna,2022-06-11_09h39.18.144,task,2021.1.4,MacIntel,52.63157895,6299f149e92ead563fba08ef,62a444b630ad2be50bae4c29,,,,,,,,,,,,,,,,,,,,,,,,,,,,,,,,,,,,,,,,,,,,,,,,,,,,,,,,,,,,,,,,,,,,,,,,,,,,,,,,,,,,,,,,,,,,,,,,,,,,,
,,,,,,1,0,1,0,1,X V Q F H G B L J M P D K C T S W R N Z,5cebae5b2e4f1700012a915a,26,Mężczyzna,2022-06-11_09h39.18.144,task,2021.1.4,MacIntel,52.63157895,6299f149e92ead563fba08ef,62a444b630ad2be50bae4c29,,,,,,,,,,,,,,,,,,,,,,,,,,,,,,,,,,,,,,,,,,,,,,,,,,,,,,,,,,,,,,,,,,,,,,,,,,,,,,,,,,,,,,,,,,,,,,,,,,,,,
,,,,,,2,0,2,0,1,X V Q F H G B L J M P D K C T S W R N Z,5cebae5b2e4f1700012a915a,26,Mężczyzna,2022-06-11_09h39.18.144,task,2021.1.4,MacIntel,52.63157895,6299f149e92ead563fba08ef,62a444b630ad2be50bae4c29,,,,,,,,,,,,,,,,,,,,,,,,,,,,,,,,,,,,,,,,,,,,,,,,,,,,,,,,,,,,,,,,,,,,,,,,,,,,,,,,,,,,,,,,,,,,,,,,,,,,,
,,,,,,3,0,3,0,1,X V Q F H G B L J M P D K C T S W R N Z,5cebae5b2e4f1700012a915a,26,Mężczyzna,2022-06-11_09h39.18.144,task,2021.1.4,MacIntel,52.63157895,6299f149e92ead563fba08ef,62a444b630ad2be50bae4c29,,,,,,,,,,,,,,,,,,,,,,,,,,,,,,,,,,,,,,,,,,,,,,,,,,,,,,,,,,,,,,,,,,,,,,,,,,,,,,,,,,,,,,,,,,,,,,,,,,,,,
,,,,,,4,0,4,0,1,X V Q F H G B L J M P D K C T S W R N Z,5cebae5b2e4f1700012a915a,26,Mężczyzna,2022-06-11_09h39.18.144,task,2021.1.4,MacIntel,52.63157895,6299f149e92ead563fba08ef,62a444b630ad2be50bae4c29,,,,,,,,,,,,,,,,,,,,,,,,,,,,,,,,,,,,,,,,,,,,,,,,,,,,,,,,,,,,,,,,,,,,,,,,,,,,,,,,,,,,,,,,,,,,,,,,,,,,,
,,,,,,5,0,5,0,1,X V Q F H G B L J M P D K C T S W R N Z,5cebae5b2e4f1700012a915a,26,Mężczyzna,2022-06-11_09h39.18.144,task,2021.1.4,MacIntel,52.63157895,6299f149e92ead563fba08ef,62a444b630ad2be50bae4c29,,,,,,,,,,,,,,,,,,,,,,,,,,,,,,,,,,,,,,,,,,,,,,,,,,,,,,,,,,,,,,,,,,,,,,,,,,,,,,,,,,,,,,,,,,,,,,,,,,,,,
,,,,,,6,0,6,0,1,X V Q F H G B L J M P D K C T S W R N Z,5cebae5b2e4f1700012a915a,26,Mężczyzna,2022-06-11_09h39.18.144,task,2021.1.4,MacIntel,52.63157895,6299f149e92ead563fba08ef,62a444b630ad2be50bae4c29,,,,,,,,,,,,,,,,,,,,,,,,,,,,,,,,,,,,,,,,,,,,,,,,,,,,,,,,,,,,,,,,,,,,,,,,,,,,,,,,,,,,,,,,,,,,,,,,,,,,,
,,,,,,,,,,,,5cebae5b2e4f1700012a915a,26,Mężczyzna,2022-06-11_09h39.18.144,task,2021.1.4,MacIntel,52.63157895,6299f149e92ead563fba08ef,62a444b630ad2be50bae4c29,xthzlmth,"[""x"",""t"",""h"",""z"",""l"",""m"",""t"",""h""]","[2.664999999999992,3.1839999999999975,3.7819999999999823,4.198999999999984,4.781999999999982,5.231999999999999,5.681999999999988,6.081999999999994,6.986999999999995]",0,XTHZLKS,13,0,13,0,1,,,,,,,,,,,,,,,,,,,,,,,,,,,,,,,,,,,,,,,,,,,,,,,,,,,,,,,,,,,,,,,,,,,,,,,,,,,,,,,,,,,,,,,,,,,
,,,,,,,,,,,,5cebae5b2e4f1700012a915a,26,Mężczyzna,2022-06-11_09h39.18.144,task,2021.1.4,MacIntel,52.63157895,6299f149e92ead563fba08ef,62a444b630ad2be50bae4c29,,,,,,,,,,,space,16.482,4,"[""4""]",1,[5.447000000000003],[5.447000000000003],0,0,0,4,1,Practice,5,(2x6) - 8,4,,,,,,,,,,,,,,,,,,,,,,,,,,,,,,,,,,,,,,,,,,,,,,,,,,,,,,,,,,,,,,,,,,,,,,,,,,,
,,,,,,,,,,,,5cebae5b2e4f1700012a915a,26,Mężczyzna,2022-06-11_09h39.18.144,task,2021.1.4,MacIntel,52.63157895,6299f149e92ead563fba08ef,62a444b630ad2be50bae4c29,,,,,,,,,,,,,3,"[""3""]",1,[3.9359999999999786],"[5.447000000000003,3.9359999999999786]",0,1,1,3,1,Practice,4,(8/4) + 1,3,,,,,,,,,,,,,,,,,,,,,,,,,,,,,,,,,,,,,,,,,,,,,,,,,,,,,,,,,,,,,,,,,,,,,,,,,,,
,,,,,,,,,,,,5cebae5b2e4f1700012a915a,26,Mężczyzna,2022-06-11_09h39.18.144,task,2021.1.4,MacIntel,52.63157895,6299f149e92ead563fba08ef,62a444b630ad2be50bae4c29,,,,,,,,,,,,,6,"[""6""]",1,[3.25],"[5.447000000000003,3.9359999999999786,3.25]",0,2,2,6,1,Practice,7,(25/5) + 1,6,,,,,,,,,,,,,,,,,,,,,,,,,,,,,,,,,,,,,,,,,,,,,,,,,,,,,,,,,,,,,,,,,,,,,,,,,,,
,,,,,,,,,,,,5cebae5b2e4f1700012a915a,26,Mężczyzna,2022-06-11_09h39.18.144,task,2021.1.4,MacIntel,52.63157895,6299f149e92ead563fba08ef,62a444b630ad2be50bae4c29,,,,,,,,,,,,,8,"[""8""]",1,[2.2970000000000255],"[5.447000000000003,3.9359999999999786,3.25,2.2970000000000255]",0,3,3,8,1,Practice,9,(3x3) - 1,8,,,,,,,,,,,,,,,,,,,,,,,,,,,,,,,,,,,,,,,,,,,,,,,,,,,,,,,,,,,,,,,,,,,,,,,,,,,
,,,,,,,,,,,,5cebae5b2e4f1700012a915a,26,Mężczyzna,2022-06-11_09h39.18.144,task,2021.1.4,MacIntel,52.63157895,6299f149e92ead563fba08ef,62a444b630ad2be50bae4c29,,,,,,,,,,,,,7,"[""7""]",1,[2.5819999999999936],"[5.447000000000003,3.9359999999999786,3.25,2.2970000000000255,2.5819999999999936]",0,4,4,7,1,Practice,8,(5x5) - 18,7,,,,,,,,,,,,,,,,,,,,,,,,,,,,,,,,,,,,,,,,,,,,,,,,,,,,,,,,,,,,,,,,,,,,,,,,,,,
,,,,,,,,,,,,5cebae5b2e4f1700012a915a,26,Mężczyzna,2022-06-11_09h39.18.144,task,2021.1.4,MacIntel,52.63157895,6299f149e92ead563fba08ef,62a444b630ad2be50bae4c29,,,,,,,,,,,,,2,"[""2""]",1,[2.4129999999999825],"[5.447000000000003,3.9359999999999786,3.25,2.2970000000000255,2.5819999999999936,2.4129999999999825]",0,5,5,2,1,Practice,3,(4x4) - 14,2,,,,,,,,,,,,,,,,,,,,,,,,,,,,,,,,,,,,,,,,,,,,,,,,,,,,,,,,,,,,,,,,,,,,,,,,,,,
,,,,,,,,,,,,5cebae5b2e4f1700012a915a,26,Mężczyzna,2022-06-11_09h39.18.144,task,2021.1.4,MacIntel,52.63157895,6299f149e92ead563fba08ef,62a444b630ad2be50bae4c29,,,,,,,,,,,,,1,"[""1""]",1,[1.5800000000000125],"[5.447000000000003,3.9359999999999786,3.25,2.2970000000000255,2.5819999999999936,2.4129999999999825,1.5800000000000125]",0,6,6,1,1,Practice,2,(4x4) - 15,1,,,,,,,,,,,,,,,,,,,,,,,,,,,,,,,,,,,,,,,,,,,,,,,,,,,,,,,,,,,,,,,,,,,,,,,,,,,
,,,,,,,,,,,,5cebae5b2e4f1700012a915a,26,Mężczyzna,2022-06-11_09h39.18.144,task,2021.1.4,MacIntel,52.63157895,6299f149e92ead563fba08ef,62a444b630ad2be50bae4c29,,,,,,,,,,,,,5,"[""5""]",1,[2.576999999999998],"[5.447000000000003,3.9359999999999786,3.25,2.2970000000000255,2.5819999999999936,2.4129999999999825,1.5800000000000125,2.576999999999998]",0,7,7,5,1,Practice,6,(4/2) + 3,5,,,,,,,,,,,,,,,,,,,,,,,,,,,,,,,,,,,,,,,,,,,,,,,,,,,,,,,,,,,,,,,,,,,,,,,,,,,
,,,,,,,,,,,,5cebae5b2e4f1700012a915a,26,Mężczyzna,2022-06-11_09h39.18.144,task,2021.1.4,MacIntel,52.63157895,6299f149e92ead563fba08ef,62a444b630ad2be50bae4c29,,,,,,,,,,,,,0,"[""0""]",1,[2.765000000000015],"[5.447000000000003,3.9359999999999786,3.25,2.2970000000000255,2.5819999999999936,2.4129999999999825,1.5800000000000125,2.576999999999998,2.765000000000015]",0,8,8,0,1,Practice,1,(3x3) -  9,0,,,,,,,,,,,,,,,,,,,,,,,,,,,,,,,,,,,,,,,,,,,,,,,,,,,,,,,,,,,,,,,,,,,,,,,,,,,
,,,,,,,,,,,,5cebae5b2e4f1700012a915a,26,Mężczyzna,2022-06-11_09h39.18.144,task,2021.1.4,MacIntel,52.63157895,6299f149e92ead563fba08ef,62a444b630ad2be50bae4c29,,,,,,,,,,,,,9,"[""9""]",1,[2.666999999999973],"[5.447000000000003,3.9359999999999786,3.25,2.2970000000000255,2.5819999999999936,2.4129999999999825,1.5800000000000125,2.576999999999998,2.765000000000015,2.666999999999973]",0,9,9,9,1,Practice,10,(20/2) - 1,9,,,,,,,,,,,,,,,,,,,,,,,,,,,,,,,,,,,,,,,,,,,,,,,,,,,,,,,,,,,,,,,,,,,,,,,,,,,
,,,,,,,,,,,,5cebae5b2e4f1700012a915a,26,Mężczyzna,2022-06-11_09h39.18.144,task,2021.1.4,MacIntel,52.63157895,6299f149e92ead563fba08ef,62a444b630ad2be50bae4c29,,,,,,,,,,,,,,,,,,,,,,,,,,,1,29.514,1.9676,19.9563548,1.153439922,4.943474998,space,1.623,0,0,0,0,1,,,,,,,,,,,,,,,,,,,,,,,,,,,,,,,,,,,,,,,,,,,,,,,,,,,,,,,,,,,,,,
,,,,,,,,,,,,5cebae5b2e4f1700012a915a,26,Mężczyzna,2022-06-11_09h39.18.144,task,2021.1.4,MacIntel,52.63157895,6299f149e92ead563fba08ef,62a444b630ad2be50bae4c29,,,,,,,,,,,,,8,,,,,,,,,,Practice,9,(3x3) - 1,8,,,,,,,,,,,,,,space,23.547,"[""8""]",1,[3.6129999999999995],1,0,0,0,8,1,,,,,,,,,,,,,,,,,,,,,,,,,,,,,,,,,,,,,,,,,,,,,,,,,,,
,,,,,,,,,,,X V Q F H G B L J M P D K C T S W R N Z,5cebae5b2e4f1700012a915a,26,Mężczyzna,2022-06-11_09h39.18.144,task,2021.1.4,MacIntel,52.63157895,6299f149e92ead563fba08ef,62a444b630ad2be50bae4c29,,,,,,,,,,,,,,,,,,,,,,,,,,,,,,,,,,,,,,,,,,,,,,,,,,,0,0,0,0,1,,,,,,,,,,,,,,,,,,,,,,,,,,,,,,,,,,,,,,,,,,,,,,
,,,,,,,,,,,,5cebae5b2e4f1700012a915a,26,Mężczyzna,2022-06-11_09h39.18.144,task,2021.1.4,MacIntel,52.63157895,6299f149e92ead563fba08ef,62a444b630ad2be50bae4c29,,,,,,,,,,,,,1,,,,,,,,,,Practice,2,(4x4) - 15,1,,,,,,,,,,,,,,,,"[""1""]",1,[2.3950000000000387],1,0,0,0,1,1,,,,,,,,,,,,,,,,,,,,,,,,,,,,,,,,,,,,,,,,,,,,,,,,,,,
,,,,,,,,,,,X V Q F H G B L J M P D K C T S W R N Z,5cebae5b2e4f1700012a915a,26,Mężczyzna,2022-06-11_09h39.18.144,task,2021.1.4,MacIntel,52.63157895,6299f149e92ead563fba08ef,62a444b630ad2be50bae4c29,,,,,,,,,,,,,,,,,,,,,,,,,,,,,,,,,,,,,,,,,,,,,,,,,,,1,0,1,0,1,,,,,,,,,,,,,,,,,,,,,,,,,,,,,,,,,,,,,,,,,,,,,,
,,,,,,,,,,,,5cebae5b2e4f1700012a915a,26,Mężczyzna,2022-06-11_09h39.18.144,task,2021.1.4,MacIntel,52.63157895,6299f149e92ead563fba08ef,62a444b630ad2be50bae4c29,,,,,,,,,,,,,,,,,,,,,,,,,,,,,,,,,,,,,,,,,,,,,,,,,,,,,,,,zs,"[""z"",""s""]",0,"[1.5720000000000027,2.2180000000000177,4.069999999999993]",1,0,0,0,0,1,,,,,,,,,,,,,,,,,,,,,,,,,,,,,,,,,,,,
,,,,,,,,,,,,5cebae5b2e4f1700012a915a,26,Mężczyzna,2022-06-11_09h39.18.144,task,2021.1.4,MacIntel,52.63157895,6299f149e92ead563fba08ef,62a444b630ad2be50bae4c29,,,,,,,,,,,,,6,,,,,,,,,,Practice,7,(25/5) + 1,6,,,,,,,,,,,,,,,,"[""6""]",1,[2.867999999999995],1,0,0,0,6,1,,,,,,,,,,,,,,,,,,,,,,,,,,,,,,,,,,,,,,,,,,,,,,,,,,,
,,,,,,,,,,,X V Q F H G B L J M P D K C T S W R N Z,5cebae5b2e4f1700012a915a,26,Mężczyzna,2022-06-11_09h39.18.144,task,2021.1.4,MacIntel,52.63157895,6299f149e92ead563fba08ef,62a444b630ad2be50bae4c29,,,,,,,,,,,,,,,,,,,,,,,,,,,,,,,,,,,,,,,,,,,,,,,,,,,0,0,0,0,1,,,,,,,,,,,,,,,,,,,,,,,,,,,,,,,,,,,,,,,,,,,,,,
,,,,,,,,,,,,5cebae5b2e4f1700012a915a,26,Mężczyzna,2022-06-11_09h39.18.144,task,2021.1.4,MacIntel,52.63157895,6299f149e92ead563fba08ef,62a444b630ad2be50bae4c29,,,,,,,,,,,,,2,,,,,,,,,,Practice,3,(4x4) - 14,2,,,,,,,,,,,,,,,,"[""2""]",1,[2.314999999999941],1,0,0,0,2,1,,,,,,,,,,,,,,,,,,,,,,,,,,,,,,,,,,,,,,,,,,,,,,,,,,,
,,,,,,,,,,,X V Q F H G B L J M P D K C T S W R N Z,5cebae5b2e4f1700012a915a,26,Mężczyzna,2022-06-11_09h39.18.144,task,2021.1.4,MacIntel,52.63157895,6299f149e92ead563fba08ef,62a444b630ad2be50bae4c29,,,,,,,,,,,,,,,,,,,,,,,,,,,,,,,,,,,,,,,,,,,,,,,,,,,1,0,1,0,1,,,,,,,,,,,,,,,,,,,,,,,,,,,,,,,,,,,,,,,,,,,,,,
,,,,,,,,,,,,5cebae5b2e4f1700012a915a,26,Mężczyzna,2022-06-11_09h39.18.144,task,2021.1.4,MacIntel,52.63157895,6299f149e92ead563fba08ef,62a444b630ad2be50bae4c29,,,,,,,,,,,,,,,,,,,,,,,,,,,,,,,,,,,,,,,,,,,,,,,,,,,,,,,,kb,"[""k"",""b""]",0,"[1.3980000000000246,1.8980000000000246,3.1340000000000146]",1,1,0,1,0,1,,,,,,,,,,,,,,,,,,,,,,,,,,,,,,,,,,,,
,,,,,,,,,,,,5cebae5b2e4f1700012a915a,26,Mężczyzna,2022-06-11_09h39.18.144,task,2021.1.4,MacIntel,52.63157895,6299f149e92ead563fba08ef,62a444b630ad2be50bae4c29,,,,,,,,,,,,,3,,,,,,,,,,Practice,4,(8/4) + 1,3,,,,,,,,,,,,,,,,"[""3""]",1,[3.0020000000000095],1,0,0,0,3,1,,,,,,,,,,,,,,,,,,,,,,,,,,,,,,,,,,,,,,,,,,,,,,,,,,,
,,,,,,,,,,,X V Q F H G B L J M P D K C T S W R N Z,5cebae5b2e4f1700012a915a,26,Mężczyzna,2022-06-11_09h39.18.144,task,2021.1.4,MacIntel,52.63157895,6299f149e92ead563fba08ef,62a444b630ad2be50bae4c29,,,,,,,,,,,,,,,,,,,,,,,,,,,,,,,,,,,,,,,,,,,,,,,,,,,0,0,0,0,1,,,,,,,,,,,,,,,,,,,,,,,,,,,,,,,,,,,,,,,,,,,,,,
,,,,,,,,,,,,5cebae5b2e4f1700012a915a,26,Mężczyzna,2022-06-11_09h39.18.144,task,2021.1.4,MacIntel,52.63157895,6299f149e92ead563fba08ef,62a444b630ad2be50bae4c29,,,,,,,,,,,,,4,,,,,,,,,,Practice,5,(2x6) - 8,4,,,,,,,,,,,,,,,,"[""4""]",1,[2.5989999999999895],1,0,0,0,4,1,,,,,,,,,,,,,,,,,,,,,,,,,,,,,,,,,,,,,,,,,,,,,,,,,,,
,,,,,,,,,,,X V Q F H G B L J M P D K C T S W R N Z,5cebae5b2e4f1700012a915a,26,Mężczyzna,2022-06-11_09h39.18.144,task,2021.1.4,MacIntel,52.63157895,6299f149e92ead563fba08ef,62a444b630ad2be50bae4c29,,,,,,,,,,,,,,,,,,,,,,,,,,,,,,,,,,,,,,,,,,,,,,,,,,,1,0,1,0,1,,,,,,,,,,,,,,,,,,,,,,,,,,,,,,,,,,,,,,,,,,,,,,
,,,,,,,,,,,,5cebae5b2e4f1700012a915a,26,Mężczyzna,2022-06-11_09h39.18.144,task,2021.1.4,MacIntel,52.63157895,6299f149e92ead563fba08ef,62a444b630ad2be50bae4c29,,,,,,,,,,,,,,,,,,,,,,,,,,,,,,,,,,,,,,,,,,,,,,,,,,,,,,,,wc,"[""w"",""c""]",0,"[2.468999999999994,2.701000000000022,3.119000000000028]",1,2,0,2,0,1,,,,,,,,,,,,,,,,,,,,,,,,,,,,,,,,,,,,
,,,,,,,,,,,,5cebae5b2e4f1700012a915a,26,Mężczyzna,2022-06-11_09h39.18.144,task,2021.1.4,MacIntel,52.63157895,6299f149e92ead563fba08ef,62a444b630ad2be50bae4c29,,,,,,,,,,,,,3,,,,,,,,,,Task,27,(3/3) + 2,3,,,,,,,,,,,,,,,,,,,1,,,,,,,,,,,,,,,,,,,,,space,17.967,"[""3""]",1,[4.54400000000004],0,0,0,26,1,,,,,,,,,,,,,,,,,,,,,,,,,,
,,,,,,,,,,,X V Q F H G B L J M P D K C T S W R N Z,5cebae5b2e4f1700012a915a,26,Mężczyzna,2022-06-11_09h39.18.144,task,2021.1.4,MacIntel,52.63157895,6299f149e92ead563fba08ef,62a444b630ad2be50bae4c29,,,,,,,,,,,,,,,,,,,,,,,,,,,,,,,,,,,,,,,,,,,,,,,,,,,,,,,,,,,,,,,,,,,,,,,,,,,,0,0,0,0,1,,,,,,,,,,,,,,,,,,,,,
,,,,,,,,,,,,5cebae5b2e4f1700012a915a,26,Mężczyzna,2022-06-11_09h39.18.144,task,2021.1.4,MacIntel,52.63157895,6299f149e92ead563fba08ef,62a444b630ad2be50bae4c29,,,,,,,,,,,,,2,,,,,,,,,,Task,19,(6/2) - 1,2,,,,,,,,,,,,,,,,,,,1,,,,,,,,,,,,,,,,,,,,,,,"[""2""]",1,[3.7660000000000196],0,0,0,18,1,,,,,,,,,,,,,,,,,,,,,,,,,,
,,,,,,,,,,,X V Q F H G B L J M P D K C T S W R N Z,5cebae5b2e4f1700012a915a,26,Mężczyzna,2022-06-11_09h39.18.144,task,2021.1.4,MacIntel,52.63157895,6299f149e92ead563fba08ef,62a444b630ad2be50bae4c29,,,,,,,,,,,,,,,,,,,,,,,,,,,,,,,,,,,,,,,,,,,,,,,,,,,,,,,,,,,,,,,,,,,,,,,,,,,,1,0,1,0,1,,,,,,,,,,,,,,,,,,,,,
,,,,,,,,,,,,5cebae5b2e4f1700012a915a,26,Mężczyzna,2022-06-11_09h39.18.144,task,2021.1.4,MacIntel,52.63157895,6299f149e92ead563fba08ef,62a444b630ad2be50bae4c29,,,,,,,,,,,,,,,,,,,,,,,,,,,,,,,,,,,,,,,,,,,,,,,,,,,,,,,,,,,,,,,,,,,,,,,,,,,,,,,,,zg,"[""z"",""g""]",0,"[1.7559999999999718,2.190999999999974,3.326999999999998]",1,ZG,0,0,0,0,1,,,,,,,,,,
,,,,,,,,,,,,5cebae5b2e4f1700012a915a,26,Mężczyzna,2022-06-11_09h39.18.144,task,2021.1.4,MacIntel,52.63157895,6299f149e92ead563fba08ef,62a444b630ad2be50bae4c29,,,,,,,,,,,,,5,,,,,,,,,,Task,12,(4x4) - 11,5,,,,,,,,,,,,,,,,,,,1,,,,,,,,,,,,,,,,,,,,,,,"[""5""]",1,[1.850999999999999],0,0,0,11,1,,,,,,,,,,,,,,,,,,,,,,,,,,
,,,,,,,,,,,X V Q F H G B L J M P D K C T S W R N Z,5cebae5b2e4f1700012a915a,26,Mężczyzna,2022-06-11_09h39.18.144,task,2021.1.4,MacIntel,52.63157895,6299f149e92ead563fba08ef,62a444b630ad2be50bae4c29,,,,,,,,,,,,,,,,,,,,,,,,,,,,,,,,,,,,,,,,,,,,,,,,,,,,,,,,,,,,,,,,,,,,,,,,,,,,0,0,0,0,1,,,,,,,,,,,,,,,,,,,,,
,,,,,,,,,,,,5cebae5b2e4f1700012a915a,26,Mężczyzna,2022-06-11_09h39.18.144,task,2021.1.4,MacIntel,52.63157895,6299f149e92ead563fba08ef,62a444b630ad2be50bae4c29,,,,,,,,,,,,,,,,,,,,,,,Task,38,(4x6) - 17,7,,,,,,,,,,,,,,,,,,,0,,,,,,,,,,,,,,,,,,,,,,,,0,,0,0,0,37,1,,,,,,,,,,,,,,,,,,,,,,,,,,
,,,,,,,,,,,,5cebae5b2e4f1700012a915a,26,Mężczyzna,2022-06-11_09h39.18.144,task,2021.1.4,MacIntel,52.63157895,6299f149e92ead563fba08ef,62a444b630ad2be50bae4c29,,,,,,,,,,,,,2,,,,,,,,,,Task,2,(2x2) - 2,2,,,,,,,,,,,,,,,,,,,1,,,,,,,,,,,,,,,,,,,,,,,"[""2""]",1,[2.048000000000002],0,1,1,1,1,,,,,,,,,,,,,,,,,,,,,,,,,,
,,,,,,,,,,,X V Q F H G B L J M P D K C T S W R N Z,5cebae5b2e4f1700012a915a,26,Mężczyzna,2022-06-11_09h39.18.144,task,2021.1.4,MacIntel,52.63157895,6299f149e92ead563fba08ef,62a444b630ad2be50bae4c29,,,,,,,,,,,,,,,,,,,,,,,,,,,,,,,,,,,,,,,,,,,,,,,,,,,,,,,,,,,,,,,,,,,,,,,,,,,,1,0,1,0,1,,,,,,,,,,,,,,,,,,,,,
,,,,,,,,,,,,5cebae5b2e4f1700012a915a,26,Mężczyzna,2022-06-11_09h39.18.144,task,2021.1.4,MacIntel,52.63157895,6299f149e92ead563fba08ef,62a444b630ad2be50bae4c29,,,,,,,,,,,,,6,,,,,,,,,,Task,37,(3/3) + 5,6,,,,,,,,,,,,,,,,,,,1,,,,,,,,,,,,,,,,,,,,,,,"[""6""]",1,[3.0330000000000155],0,0,0,36,1,,,,,,,,,,,,,,,,,,,,,,,,,,
,,,,,,,,,,,X V Q F H G B L J M P D K C T S W R N Z,5cebae5b2e4f1700012a915a,26,Mężczyzna,2022-06-11_09h39.18.144,task,2021.1.4,MacIntel,52.63157895,6299f149e92ead563fba08ef,62a444b630ad2be50bae4c29,,,,,,,,,,,,,,,,,,,,,,,,,,,,,,,,,,,,,,,,,,,,,,,,,,,,,,,,,,,,,,,,,,,,,,,,,,,,2,0,2,0,1,,,,,,,,,,,,,,,,,,,,,
,,,,,,,,,,,,5cebae5b2e4f1700012a915a,26,Mężczyzna,2022-06-11_09h39.18.144,task,2021.1.4,MacIntel,52.63157895,6299f149e92ead563fba08ef,62a444b630ad2be50bae4c29,,,,,,,,,,,,,,,,,,,,,,,,,,,,,,,,,,,,,,,,,,,,,,,,,,,,,,,,,,,,,,,,,,,,,,,,,,,,,,,,,zdp,"[""z"",""d"",""p""]",0,"[1.468999999999994,1.9020000000000437,2.5670000000000073,3.369000000000028]",0,SDP,1,0,1,0,1,,,,,,,,,,
,,,,,,,,,,,,5cebae5b2e4f1700012a915a,26,Mężczyzna,2022-06-11_09h39.18.144,task,2021.1.4,MacIntel,52.63157895,6299f149e92ead563fba08ef,62a444b630ad2be50bae4c29,,,,,,,,,,,,,2,,,,,,,,,,Task,26,(2x9) - 16,2,,,,,,,,,,,,,,,,,,,1,,,,,,,,,,,,,,,,,,,,,,,"[""2""]",1,[1.8330000000000268],0,0,0,25,1,,,,,,,,,,,,,,,,,,,,,,,,,,
,,,,,,,,,,,X V Q F H G B L J M P D K C T S W R N Z,5cebae5b2e4f1700012a915a,26,Mężczyzna,2022-06-11_09h39.18.144,task,2021.1.4,MacIntel,52.63157895,6299f149e92ead563fba08ef,62a444b630ad2be50bae4c29,,,,,,,,,,,,,,,,,,,,,,,,,,,,,,,,,,,,,,,,,,,,,,,,,,,,,,,,,,,,,,,,,,,,,,,,,,,,0,0,0,0,1,,,,,,,,,,,,,,,,,,,,,
,,,,,,,,,,,,5cebae5b2e4f1700012a915a,26,Mężczyzna,2022-06-11_09h39.18.144,task,2021.1.4,MacIntel,52.63157895,6299f149e92ead563fba08ef,62a444b630ad2be50bae4c29,,,,,,,,,,,,,3,,,,,,,,,,Task,3,(2x3) - 3,3,,,,,,,,,,,,,,,,,,,1,,,,,,,,,,,,,,,,,,,,,,,"[""3""]",1,[3.234999999999957],0,0,0,2,1,,,,,,,,,,,,,,,,,,,,,,,,,,
,,,,,,,,,,,X V Q F H G B L J M P D K C T S W R N Z,5cebae5b2e4f1700012a915a,26,Mężczyzna,2022-06-11_09h39.18.144,task,2021.1.4,MacIntel,52.63157895,6299f149e92ead563fba08ef,62a444b630ad2be50bae4c29,,,,,,,,,,,,,,,,,,,,,,,,,,,,,,,,,,,,,,,,,,,,,,,,,,,,,,,,,,,,,,,,,,,,,,,,,,,,1,0,1,0,1,,,,,,,,,,,,,,,,,,,,,
,,,,,,,,,,,,5cebae5b2e4f1700012a915a,26,Mężczyzna,2022-06-11_09h39.18.144,task,2021.1.4,MacIntel,52.63157895,6299f149e92ead563fba08ef,62a444b630ad2be50bae4c29,,,,,,,,,,,,,4,,,,,,,,,,Task,11,(18/3) - 2,4,,,,,,,,,,,,,,,,,,,1,,,,,,,,,,,,,,,,,,,,,,,"[""4""]",1,[3.1140000000000327],0,0,0,10,1,,,,,,,,,,,,,,,,,,,,,,,,,,
,,,,,,,,,,,X V Q F H G B L J M P D K C T S W R N Z,5cebae5b2e4f1700012a915a,26,Mężczyzna,2022-06-11_09h39.18.144,task,2021.1.4,MacIntel,52.63157895,6299f149e92ead563fba08ef,62a444b630ad2be50bae4c29,,,,,,,,,,,,,,,,,,,,,,,,,,,,,,,,,,,,,,,,,,,,,,,,,,,,,,,,,,,,,,,,,,,,,,,,,,,,2,0,2,0,1,,,,,,,,,,,,,,,,,,,,,
,,,,,,,,,,,,5cebae5b2e4f1700012a915a,26,Mężczyzna,2022-06-11_09h39.18.144,task,2021.1.4,MacIntel,52.63157895,6299f149e92ead563fba08ef,62a444b630ad2be50bae4c29,,,,,,,,,,,,,,,,,,,,,,,,,,,,,,,,,,,,,,,,,,,,,,,,,,,,,,,,,,,,,,,,,,,,,,,,,,,,,,,,,fzx,"[""f"",""z"",""x""]",0,"[1.617999999999995,2.038000000000011,2.8149999999999977,3.7549999999999955]",1,FZX,2,0,2,0,1,,,,,,,,,,
,,,,,,,,,,,,5cebae5b2e4f1700012a915a,26,Mężczyzna,2022-06-11_09h39.18.144,task,2021.1.4,MacIntel,52.63157895,6299f149e92ead563fba08ef,62a444b630ad2be50bae4c29,,,,,,,,,,,,,0,,,,,,,,,,Task,33,(1/1) - 1,0,,,,,,,,,,,,,,,,,,,1,,,,,,,,,,,,,,,,,,,,,,,"[""0""]",1,[1.4869999999999663],0,0,0,32,1,,,,,,,,,,,,,,,,,,,,,,,,,,
,,,,,,,,,,,X V Q F H G B L J M P D K C T S W R N Z,5cebae5b2e4f1700012a915a,26,Mężczyzna,2022-06-11_09h39.18.144,task,2021.1.4,MacIntel,52.63157895,6299f149e92ead563fba08ef,62a444b630ad2be50bae4c29,,,,,,,,,,,,,,,,,,,,,,,,,,,,,,,,,,,,,,,,,,,,,,,,,,,,,,,,,,,,,,,,,,,,,,,,,,,,0,0,0,0,1,,,,,,,,,,,,,,,,,,,,,
,,,,,,,,,,,,5cebae5b2e4f1700012a915a,26,Mężczyzna,2022-06-11_09h39.18.144,task,2021.1.4,MacIntel,52.63157895,6299f149e92ead563fba08ef,62a444b630ad2be50bae4c29,,,,,,,,,,,,,2,,,,,,,,,,Task,10,(2x5) - 8,2,,,,,,,,,,,,,,,,,,,1,,,,,,,,,,,,,,,,,,,,,,,"[""2""]",1,[1.9459999999999695],0,0,0,9,1,,,,,,,,,,,,,,,,,,,,,,,,,,
,,,,,,,,,,,X V Q F H G B L J M P D K C T S W R N Z,5cebae5b2e4f1700012a915a,26,Mężczyzna,2022-06-11_09h39.18.144,task,2021.1.4,MacIntel,52.63157895,6299f149e92ead563fba08ef,62a444b630ad2be50bae4c29,,,,,,,,,,,,,,,,,,,,,,,,,,,,,,,,,,,,,,,,,,,,,,,,,,,,,,,,,,,,,,,,,,,,,,,,,,,,1,0,1,0,1,,,,,,,,,,,,,,,,,,,,,
,,,,,,,,,,,,5cebae5b2e4f1700012a915a,26,Mężczyzna,2022-06-11_09h39.18.144,task,2021.1.4,MacIntel,52.63157895,6299f149e92ead563fba08ef,62a444b630ad2be50bae4c29,,,,,,,,,,,,,6,,,,,,,,,,Task,13,(3x4) - 6,6,,,,,,,,,,,,,,,,,,,1,,,,,,,,,,,,,,,,,,,,,,,"[""6""]",1,[2.100999999999999],0,0,0,12,1,,,,,,,,,,,,,,,,,,,,,,,,,,
,,,,,,,,,,,X V Q F H G B L J M P D K C T S W R N Z,5cebae5b2e4f1700012a915a,26,Mężczyzna,2022-06-11_09h39.18.144,task,2021.1.4,MacIntel,52.63157895,6299f149e92ead563fba08ef,62a444b630ad2be50bae4c29,,,,,,,,,,,,,,,,,,,,,,,,,,,,,,,,,,,,,,,,,,,,,,,,,,,,,,,,,,,,,,,,,,,,,,,,,,,,2,0,2,0,1,,,,,,,,,,,,,,,,,,,,,
,,,,,,,,,,,,5cebae5b2e4f1700012a915a,26,Mężczyzna,2022-06-11_09h39.18.144,task,2021.1.4,MacIntel,52.63157895,6299f149e92ead563fba08ef,62a444b630ad2be50bae4c29,,,,,,,,,,,,,7,,,,,,,,,,Task,14,(2x2) + 3,7,,,,,,,,,,,,,,,,,,,1,,,,,,,,,,,,,,,,,,,,,,,"[""7""]",1,[3.4279999999999973],0,0,0,13,1,,,,,,,,,,,,,,,,,,,,,,,,,,
,,,,,,,,,,,X V Q F H G B L J M P D K C T S W R N Z,5cebae5b2e4f1700012a915a,26,Mężczyzna,2022-06-11_09h39.18.144,task,2021.1.4,MacIntel,52.63157895,6299f149e92ead563fba08ef,62a444b630ad2be50bae4c29,,,,,,,,,,,,,,,,,,,,,,,,,,,,,,,,,,,,,,,,,,,,,,,,,,,,,,,,,,,,,,,,,,,,,,,,,,,,3,0,3,0,1,,,,,,,,,,,,,,,,,,,,,
,,,,,,,,,,,,5cebae5b2e4f1700012a915a,26,Mężczyzna,2022-06-11_09h39.18.144,task,2021.1.4,MacIntel,52.63157895,6299f149e92ead563fba08ef,62a444b630ad2be50bae4c29,,,,,,,,,,,,,,,,,,,,,,,,,,,,,,,,,,,,,,,,,,,,,,,,,,,,,,,,,,,,,,,,,,,,,,,,,,,,,,,,,vnzq,"[""v"",""n"",""z"",""q""]",0,"[1.2980000000000018,1.6999999999999886,2.853999999999985,3.2660000000000196,4.254000000000019]",0,VNMQ,3,0,3,0,1,,,,,,,,,,
,,,,,,,,,,,,5cebae5b2e4f1700012a915a,26,Mężczyzna,2022-06-11_09h39.18.144,task,2021.1.4,MacIntel,52.63157895,6299f149e92ead563fba08ef,62a444b630ad2be50bae4c29,,,,,,,,,,,,,2,,,,,,,,,,Task,22,(3x1) + 2,5,,,,,,,,,,,,,,,,,,,0,,,,,,,,,,,,,,,,,,,,,,,"[""2""]",0,[1.8449999999999704],0,0,0,21,1,,,,,,,,,,,,,,,,,,,,,,,,,,
,,,,,,,,,,,,5cebae5b2e4f1700012a915a,26,Mężczyzna,2022-06-11_09h39.18.144,task,2021.1.4,MacIntel,52.63157895,6299f149e92ead563fba08ef,62a444b630ad2be50bae4c29,,,,,,,,,,,,,0,,,,,,,,,,Task,33,(1/1) - 1,0,,,,,,,,,,,,,,,,,,,1,,,,,,,,,,,,,,,,,,,,,,,"[""0""]",1,[1.3799999999999955],0,1,1,32,1,,,,,,,,,,,,,,,,,,,,,,,,,,
,,,,,,,,,,,X V Q F H G B L J M P D K C T S W R N Z,5cebae5b2e4f1700012a915a,26,Mężczyzna,2022-06-11_09h39.18.144,task,2021.1.4,MacIntel,52.63157895,6299f149e92ead563fba08ef,62a444b630ad2be50bae4c29,,,,,,,,,,,,,,,,,,,,,,,,,,,,,,,,,,,,,,,,,,,,,,,,,,,,,,,,,,,,,,,,,,,,,,,,,,,,0,0,0,0,1,,,,,,,,,,,,,,,,,,,,,
,,,,,,,,,,,,5cebae5b2e4f1700012a915a,26,Mężczyzna,2022-06-11_09h39.18.144,task,2021.1.4,MacIntel,52.63157895,6299f149e92ead563fba08ef,62a444b630ad2be50bae4c29,,,,,,,,,,,,,2,,,,,,,,,,Task,25,(10/5) - 2,0,,,,,,,,,,,,,,,,,,,0,,,,,,,,,,,,,,,,,,,,,,,"[""2""]",0,[2.8489999999999895],0,0,0,24,1,,,,,,,,,,,,,,,,,,,,,,,,,,
,,,,,,,,,,,,5cebae5b2e4f1700012a915a,26,Mężczyzna,2022-06-11_09h39.18.144,task,2021.1.4,MacIntel,52.63157895,6299f149e92ead563fba08ef,62a444b630ad2be50bae4c29,,,,,,,,,,,,,1,,,,,,,,,,Task,16,(3x8) - 15,9,,,,,,,,,,,,,,,,,,,0,,,,,,,,,,,,,,,,,,,,,,,"[""1""]",0,[1.8000000000000114],0,1,1,15,1,,,,,,,,,,,,,,,,,,,,,,,,,,
,,,,,,,,,,,,5cebae5b2e4f1700012a915a,26,Mężczyzna,2022-06-11_09h39.18.144,task,2021.1.4,MacIntel,52.63157895,6299f149e92ead563fba08ef,62a444b630ad2be50bae4c29,,,,,,,,,,,,,1,,,,,,,,,,Task,34,(9/3) - 2,1,,,,,,,,,,,,,,,,,,,1,,,,,,,,,,,,,,,,,,,,,,,"[""1""]",1,[4.7620000000000005],0,2,2,33,1,,,,,,,,,,,,,,,,,,,,,,,,,,
,,,,,,,,,,,X V Q F H G B L J M P D K C T S W R N Z,5cebae5b2e4f1700012a915a,26,Mężczyzna,2022-06-11_09h39.18.144,task,2021.1.4,MacIntel,52.63157895,6299f149e92ead563fba08ef,62a444b630ad2be50bae4c29,,,,,,,,,,,,,,,,,,,,,,,,,,,,,,,,,,,,,,,,,,,,,,,,,,,,,,,,,,,,,,,,,,,,,,,,,,,,1,0,1,0,1,,,,,,,,,,,,,,,,,,,,,
,,,,,,,,,,,,5cebae5b2e4f1700012a915a,26,Mężczyzna,2022-06-11_09h39.18.144,task,2021.1.4,MacIntel,52.63157895,6299f149e92ead563fba08ef,62a444b630ad2be50bae4c29,,,,,,,,,,,,,8,,,,,,,,,,Task,32,(8/2) + 4,8,,,,,,,,,,,,,,,,,,,1,,,,,,,,,,,,,,,,,,,,,,,"[""8""]",1,[2.687999999999988],0,0,0,31,1,,,,,,,,,,,,,,,,,,,,,,,,,,
,,,,,,,,,,,X V Q F H G B L J M P D K C T S W R N Z,5cebae5b2e4f1700012a915a,26,Mężczyzna,2022-06-11_09h39.18.144,task,2021.1.4,MacIntel,52.63157895,6299f149e92ead563fba08ef,62a444b630ad2be50bae4c29,,,,,,,,,,,,,,,,,,,,,,,,,,,,,,,,,,,,,,,,,,,,,,,,,,,,,,,,,,,,,,,,,,,,,,,,,,,,2,0,2,0,1,,,,,,,,,,,,,,,,,,,,,
,,,,,,,,,,,,5cebae5b2e4f1700012a915a,26,Mężczyzna,2022-06-11_09h39.18.144,task,2021.1.4,MacIntel,52.63157895,6299f149e92ead563fba08ef,62a444b630ad2be50bae4c29,,,,,,,,,,,,,2,,,,,,,,,,Task,10,(2x5) - 8,2,,,,,,,,,,,,,,,,,,,1,,,,,,,,,,,,,,,,,,,,,,,"[""2""]",1,[3.069000000000017],0,0,0,9,1,,,,,,,,,,,,,,,,,,,,,,,,,,
,,,,,,,,,,,X V Q F H G B L J M P D K C T S W R N Z,5cebae5b2e4f1700012a915a,26,Mężczyzna,2022-06-11_09h39.18.144,task,2021.1.4,MacIntel,52.63157895,6299f149e92ead563fba08ef,62a444b630ad2be50bae4c29,,,,,,,,,,,,,,,,,,,,,,,,,,,,,,,,,,,,,,,,,,,,,,,,,,,,,,,,,,,,,,,,,,,,,,,,,,,,3,0,3,0,1,,,,,,,,,,,,,,,,,,,,,
,,,,,,,,,,,,5cebae5b2e4f1700012a915a,26,Mężczyzna,2022-06-11_09h39.18.144,task,2021.1.4,MacIntel,52.63157895,6299f149e92ead563fba08ef,62a444b630ad2be50bae4c29,,,,,,,,,,,,,,,,,,,,,,,,,,,,,,,,,,,,,,,,,,,,,,,,,,,,,,,,,,,,,,,,,,,,,,,,,,,,,,,,,fgf,"[""f"",""g"",""f""]",0,"[2.13900000000001,2.55600000000004,3.0050000000000523,3.795000000000016]",0,FGKF,4,0,4,0,1,,,,,,,,,,
,,,,,,,,,,,,5cebae5b2e4f1700012a915a,26,Mężczyzna,2022-06-11_09h39.18.144,task,2021.1.4,MacIntel,52.63157895,6299f149e92ead563fba08ef,62a444b630ad2be50bae4c29,,,,,,,,,,,,,,,,,,,,,,,,,,,,,,,,,,,,,,,,,,,,,,,,,,,,,,,,,,,,,,,,,,,,,,,,,,,,,,,,,,,,,,,,,,,,"[""period""]",0,[1.9039999999999964],0,0,0,0,1,,
,,,,,,,,,,,,5cebae5b2e4f1700012a915a,26,Mężczyzna,2022-06-11_09h39.18.144,task,2021.1.4,MacIntel,52.63157895,6299f149e92ead563fba08ef,62a444b630ad2be50bae4c29,,,,,,,,,,,,,,,,,,,,,,,,,,,,,,,,,,,,,,,,,,,,,,,,,,,,,,,,,,,,,,,,,,,,,,,,,,,,,,,,,,,,,,,,,,,,"[""period""]",0,[0.8170000000000073],1,0,1,0,1,,
,,,,,,,,,,,,5cebae5b2e4f1700012a915a,26,Mężczyzna,2022-06-11_09h39.18.144,task,2021.1.4,MacIntel,52.63157895,6299f149e92ead563fba08ef,62a444b630ad2be50bae4c29,,,,,,,,,,,,,,,,,,,,,,,,,,,,,,,,,,,,,,,,,,,,,,,,,,,,,,,,,,,,,,,,,,,,,,,,,,,,,,,,,,,,,,,,,,,,"[""comma""]",0,[0.3430000000000746],2,0,2,0,1,,
,,,,,,,,,,,,5cebae5b2e4f1700012a915a,26,Mężczyzna,2022-06-11_09h39.18.144,task,2021.1.4,MacIntel,52.63157895,6299f149e92ead563fba08ef,62a444b630ad2be50bae4c29,,,,,,,,,,,,,,,,,,,,,,,,,,,,,,,,,,,,,,,,,,,,,,,,,,,,,,,,,,,,,,,,,,,,,,,,,,,,,,,,,,,,,,,,,,,,"[""period""]",0,[0.28899999999998727],3,0,3,0,1,,
,,,,,,,,,,,,5cebae5b2e4f1700012a915a,26,Mężczyzna,2022-06-11_09h39.18.144,task,2021.1.4,MacIntel,52.63157895,6299f149e92ead563fba08ef,62a444b630ad2be50bae4c29,,,,,,,,,,,,,,,,,,,,,,,,,,,,,,,,,,,,,,,,,,,,,,,,,,,,,,,,,,,,,,,,,,,,,,,,,,,,,,,,,,,,,,,,,,,,"[""comma""]",0,[0.7540000000000191],4,0,4,0,1,,
,,,,,,,,,,,,5cebae5b2e4f1700012a915a,26,Mężczyzna,2022-06-11_09h39.18.144,task,2021.1.4,MacIntel,52.63157895,6299f149e92ead563fba08ef,62a444b630ad2be50bae4c29,,,,,,,,,,,,,,,,,,,,,,,,,,,,,,,,,,,,,,,,,,,,,,,,,,,,,,,,,,,,,,,,,,,,,,,,,,,,,,,,,,,,,,,,,,,,"[""period""]",0,[0.2699999999999818],5,0,5,0,1,,
,,,,,,,,,,,,5cebae5b2e4f1700012a915a,26,Mężczyzna,2022-06-11_09h39.18.144,task,2021.1.4,MacIntel,52.63157895,6299f149e92ead563fba08ef,62a444b630ad2be50bae4c29,,,,,,,,,,,,,,,,,,,,,,,,,,,,,,,,,,,,,,,,,,,,,,,,,,,,,,,,,,,,,,,,,,,,,,,,,,,,,,,,,,,,,,,,,,,,"[""comma""]",0,[0.2899999999999636],6,0,6,0,1,,
,,,,,,,,,,,,5cebae5b2e4f1700012a915a,26,Mężczyzna,2022-06-11_09h39.18.144,task,2021.1.4,MacIntel,52.63157895,6299f149e92ead563fba08ef,62a444b630ad2be50bae4c29,,,,,,,,,,,,,,,,,,,,,,,,,,,,,,,,,,,,,,,,,,,,,,,,,,,,,,,,,,,,,,,,,,,,,,,,,,,,,,,,,,,,,,,,,,,,"[""period""]",0,[0.3240000000000691],7,0,7,0,1,,
,,,,,,,,,,,,5cebae5b2e4f1700012a915a,26,Mężczyzna,2022-06-11_09h39.18.144,task,2021.1.4,MacIntel,52.63157895,6299f149e92ead563fba08ef,62a444b630ad2be50bae4c29,,,,,,,,,,,,,,,,,,,,,,,,,,,,,,,,,,,,,,,,,,,,,,,,,,,,,,,,,,,,,,,,,,,,,,,,,,,,,,,,,,,,,,,,,,,,"[""period""]",0,[0.5210000000000719],8,0,8,0,1,,
,,,,,,,,,,,,5cebae5b2e4f1700012a915a,26,Mężczyzna,2022-06-11_09h39.18.144,task,2021.1.4,MacIntel,52.63157895,6299f149e92ead563fba08ef,62a444b630ad2be50bae4c29,,,,,,,,,,,,,,,,,,,,,,,,,,,,,,,,,,,,,,,,,,,,,,,,,,,,,,,,,,,,,,,,,,,,,,,,,,,,,,,,,,,,,,,,,,,,"[""comma""]",0,[0.2680000000000291],9,0,9,0,1,,
,,,,,,,,,,,,5cebae5b2e4f1700012a915a,26,Mężczyzna,2022-06-11_09h39.18.144,task,2021.1.4,MacIntel,52.63157895,6299f149e92ead563fba08ef,62a444b630ad2be50bae4c29,,,,,,,,,,,,,,,,,,,,,,,,,,,,,,,,,,,,,,,,,,,,,,,,,,,,,,,,,,,,,,,,,,,,,,,,,,,,,,,,,,,,,,,,,,,,"[""comma""]",0,[0.6050000000000182],10,0,10,0,1,,
,,,,,,,,,,,,5cebae5b2e4f1700012a915a,26,Mężczyzna,2022-06-11_09h39.18.144,task,2021.1.4,MacIntel,52.63157895,6299f149e92ead563fba08ef,62a444b630ad2be50bae4c29,,,,,,,,,,,,,,,,,,,,,,,,,,,,,,,,,,,,,,,,,,,,,,,,,,,,,,,,,,,,,,,,,,,,,,,,,,,,,,,,,,,,,,,,,,,,"[""period""]",0,[0.55499999999995],11,0,11,0,1,,
,,,,,,,,,,,,5cebae5b2e4f1700012a915a,26,Mężczyzna,2022-06-11_09h39.18.144,task,2021.1.4,MacIntel,52.63157895,6299f149e92ead563fba08ef,62a444b630ad2be50bae4c29,,,,,,,,,,,,,,,,,,,,,,,,,,,,,,,,,,,,,,,,,,,,,,,,,,,,,,,,,,,,,,,,,,,,,,,,,,,,,,,,,,,,,,,,,,,,"[""comma""]",0,[0.8559999999999945],12,0,12,0,1,,
,,,,,,,,,,,,5cebae5b2e4f1700012a915a,26,Mężczyzna,2022-06-11_09h39.18.144,task,2021.1.4,MacIntel,52.63157895,6299f149e92ead563fba08ef,62a444b630ad2be50bae4c29,,,,,,,,,,,,,,,,,,,,,,,,,,,,,,,,,,,,,,,,,,,,,,,,,,,,,,,,,,,,,,,,,,,,,,,,,,,,,,,,,,,,,,,,,,,,"[""period""]",0,[0.42799999999999727],13,0,13,0,1,,
,,,,,,,,,,,,5cebae5b2e4f1700012a915a,26,Mężczyzna,2022-06-11_09h39.18.144,task,2021.1.4,MacIntel,52.63157895,6299f149e92ead563fba08ef,62a444b630ad2be50bae4c29,,,,,,,,,,,,,,,,,,,,,,,,,,,,,,,,,,,,,,,,,,,,,,,,,,,,,,,,,,,,,,,,,,,,,,,,,,,,,,,,,,,,,,,,,,,,,0,,14,0,14,0,1,,
,,,,,,,,,,,,5cebae5b2e4f1700012a915a,26,Mężczyzna,2022-06-11_09h39.18.144,task,2021.1.4,MacIntel,52.63157895,6299f149e92ead563fba08ef,62a444b630ad2be50bae4c29,,,,,,,,,,,,,,,,,,,,,,,,,,,,,,,,,,,,,,,,,,,,,,,,,,,,,,,,,,,,,,,,,,,,,,,,,,,,,,,,,,,,,,,,,,,,"[""comma""]",0,[1.516999999999939],15,0,15,0,1,,
,,,,,,,,,,,,5cebae5b2e4f1700012a915a,26,Mężczyzna,2022-06-11_09h39.18.144,task,2021.1.4,MacIntel,52.63157895,6299f149e92ead563fba08ef,62a444b630ad2be50bae4c29,,,,,,,,,,,,,,,,,,,,,,,,,,,,,,,,,,,,,,,,,,,,,,,,,,,,,,,,,,,,,,,,,,,,,,,,,,,,,,,,,,,,,,,,,,,,,0,,16,0,16,0,1,,
,,,,,,,,,,,,5cebae5b2e4f1700012a915a,26,Mężczyzna,2022-06-11_09h39.18.144,task,2021.1.4,MacIntel,52.63157895,6299f149e92ead563fba08ef,62a444b630ad2be50bae4c29,,,,,,,,,,,,,,,,,,,,,,,,,,,,,,,,,,,,,,,,,,,,,,,,,,,,,,,,,,,,,,,,,,,,,,,,,,,,,,,,,,,,,,,,,,,,"[""comma""]",0,[0.2700000000000955],17,0,17,0,1,,
,,,,,,,,,,,,5cebae5b2e4f1700012a915a,26,Mężczyzna,2022-06-11_09h39.18.144,task,2021.1.4,MacIntel,52.63157895,6299f149e92ead563fba08ef,62a444b630ad2be50bae4c29,,,,,,,,,,,,,,,,,,,,,,,,,,,,,,,,,,,,,,,,,,,,,,,,,,,,,,,,,,,,,,,,,,,,,,,,,,,,,,,,,,,,,,,,,,,,"[""period"",""comma""]",0,"[0.43600000000003547,1.8550000000000182]",18,0,18,0,1,,
,,,,,,,,,,,,5cebae5b2e4f1700012a915a,26,Mężczyzna,2022-06-11_09h39.18.144,task,2021.1.4,MacIntel,52.63157895,6299f149e92ead563fba08ef,62a444b630ad2be50bae4c29,,,,,,,,,,,,,,,,,,,,,,,,,,,,,,,,,,,,,,,,,,,,,,,,,,,,,,,,,,,,,,,,,,,,,,,,,,,,,,,,,,,,,,,,,,,,,0,,19,0,19,0,1,,
,,,,,,,,,,,,5cebae5b2e4f1700012a915a,26,Mężczyzna,2022-06-11_09h39.18.144,task,2021.1.4,MacIntel,52.63157895,6299f149e92ead563fba08ef,62a444b630ad2be50bae4c29,,,,,,,,,,,,,,,,,,,,,,,,,,,,,,,,,,,,,,,,,,,,,,,,,,,,,,,,,,,,,,,,,,,,,,,,,,,,,,,,,,,,,,,,,,,,,0,,20,0,20,0,1,,
,,,,,,,,,,,,5cebae5b2e4f1700012a915a,26,Mężczyzna,2022-06-11_09h39.18.144,task,2021.1.4,MacIntel,52.63157895,6299f149e92ead563fba08ef,62a444b630ad2be50bae4c29,,,,,,,,,,,,,,,,,,,,,,,,,,,,,,,,,,,,,,,,,,,,,,,,,,,,,,,,,,,,,,,,,,,,,,,,,,,,,,,,,,,,,,,,,,,,"[""comma"",""period""]",0,"[0.47500000000002274,1.669999999999959]",21,0,21,0,1,,
,,,,,,,,,,,,5cebae5b2e4f1700012a915a,26,Mężczyzna,2022-06-11_09h39.18.144,task,2021.1.4,MacIntel,52.63157895,6299f149e92ead563fba08ef,62a444b630ad2be50bae4c29,,,,,,,,,,,,,,,,,,,,,,,,,,,,,,,,,,,,,,,,,,,,,,,,,,,,,,,,,,,,,,,,,,,,,,,,,,,,,,,,,,,,,,,,,,,,"[""period""]",0,[1.8389999999999418],22,0,22,0,1,,
,,,,,,,,,,,,5cebae5b2e4f1700012a915a,26,Mężczyzna,2022-06-11_09h39.18.144,task,2021.1.4,MacIntel,52.63157895,6299f149e92ead563fba08ef,62a444b630ad2be50bae4c29,,,,,,,,,,,,,,,,,,,,,,,,,,,,,,,,,,,,,,,,,,,,,,,,,,,,,,,,,,,,,,,,,,,,,,,,,,,,,,,,,,,,,,,,,,,,,0,,23,0,23,0,1,,
,,,,,,,,,,,,5cebae5b2e4f1700012a915a,26,Mężczyzna,2022-06-11_09h39.18.144,task,2021.1.4,MacIntel,52.63157895,6299f149e92ead563fba08ef,62a444b630ad2be50bae4c29,,,,,,,,,,,,,,,,,,,,,,,,,,,,,,,,,,,,,,,,,,,,,,,,,,,,,,,,,,,,,,,,,,,,,,,,,,,,,,,,,,,,,,,,,,,,"[""comma"",""period""]",0,"[0.4530000000000882,1.907000000000039]",24,0,24,0,1,,
,,,,,,,,,,,,5cebae5b2e4f1700012a915a,26,Mężczyzna,2022-06-11_09h39.18.144,task,2021.1.4,MacIntel,52.63157895,6299f149e92ead563fba08ef,62a444b630ad2be50bae4c29,,,,,,,,,,,,,,,,,,,,,,,,,,,,,,,,,,,,,,,,,,,,,,,,,,,,,,,,,,,,,,,,,,,,,,,,,,,,,,,,,,,,,,,,,,,,,0,,25,0,25,0,1,,
,,,,,,,,,,,,5cebae5b2e4f1700012a915a,26,Mężczyzna,2022-06-11_09h39.18.144,task,2021.1.4,MacIntel,52.63157895,6299f149e92ead563fba08ef,62a444b630ad2be50bae4c29,,,,,,,,,,,,,,,,,,,,,,,,,,,,,,,,,,,,,,,,,,,,,,,,,,,,,,,,,,,,,,,,,,,,,,,,,,,,,,,,,,,,,,,,,,,,"[""comma"",""comma""]",0,"[0.26900000000000546,1.7839999999999918]",26,0,26,0,1,,
,,,,,,,,,,,,5cebae5b2e4f1700012a915a,26,Mężczyzna,2022-06-11_09h39.18.144,task,2021.1.4,MacIntel,52.63157895,6299f149e92ead563fba08ef,62a444b630ad2be50bae4c29,,,,,,,,,,,,,,,,,,,,,,,,,,,,,,,,,,,,,,,,,,,,,,,,,,,,,,,,,,,,,,,,,,,,,,,,,,,,,,,,,,,,,,,,,,,,"[""comma""]",0,[1.9689999999999372],27,0,27,0,1,,
,,,,,,,,,,,,5cebae5b2e4f1700012a915a,26,Mężczyzna,2022-06-11_09h39.18.144,task,2021.1.4,MacIntel,52.63157895,6299f149e92ead563fba08ef,62a444b630ad2be50bae4c29,,,,,,,,,,,,,,,,,,,,,,,,,,,,,,,,,,,,,,,,,,,,,,,,,,,,,,,,,,,,,,,,,,,,,,,,,,,,,,,,,,,,,,,,,,,,"[""period""]",0,[1.2559999999999718],28,0,28,0,1,,
,,,,,,,,,,,,5cebae5b2e4f1700012a915a,26,Mężczyzna,2022-06-11_09h39.18.144,task,2021.1.4,MacIntel,52.63157895,6299f149e92ead563fba08ef,62a444b630ad2be50bae4c29,,,,,,,,,,,,,,,,,,,,,,,,,,,,,,,,,,,,,,,,,,,,,,,,,,,,,,,,,,,,,,,,,,,,,,,,,,,,,,,,,,,,,,,,,,,,"[""comma""]",0,[0.9839999999999236],29,0,29,0,1,,
,,,,,,,,,,,,5cebae5b2e4f1700012a915a,26,Mężczyzna,2022-06-11_09h39.18.144,task,2021.1.4,MacIntel,52.63157895,6299f149e92ead563fba08ef,62a444b630ad2be50bae4c29,,,,,,,,,,,,,,,,,,,,,,,,,,,,,,,,,,,,,,,,,,,,,,,,,,,,,,,,,,,,,,,,,,,,,,,,,,,,,,,,,,,,,,,,,,,,"[""period""]",0,[0.41700000000003],30,0,30,0,1,,
,,,,,,,,,,,,5cebae5b2e4f1700012a915a,26,Mężczyzna,2022-06-11_09h39.18.144,task,2021.1.4,MacIntel,52.63157895,6299f149e92ead563fba08ef,62a444b630ad2be50bae4c29,,,,,,,,,,,,,,,,,,,,,,,,,,,,,,,,,,,,,,,,,,,,,,,,,,,,,,,,,,,,,,,,,,,,,,,,,,,,,,,,,,,,,,,,,,,,"[""period"",""period""]",0,"[0.05400000000008731,1.1380000000000337]",31,0,31,0,1,,
,,,,,,,,,,,,5cebae5b2e4f1700012a915a,26,Mężczyzna,2022-06-11_09h39.18.144,task,2021.1.4,MacIntel,52.63157895,6299f149e92ead563fba08ef,62a444b630ad2be50bae4c29,,,,,,,,,,,,,,,,,,,,,,,,,,,,,,,,,,,,,,,,,,,,,,,,,,,,,,,,,,,,,,,,,,,,,,,,,,,,,,,,,,,,,,,,,,,,"[""comma""]",0,[0.8230000000000928],32,0,32,0,1,,
,,,,,,,,,,,,5cebae5b2e4f1700012a915a,26,Mężczyzna,2022-06-11_09h39.18.144,task,2021.1.4,MacIntel,52.63157895,6299f149e92ead563fba08ef,62a444b630ad2be50bae4c29,,,,,,,,,,,,,,,,,,,,,,,,,,,,,,,,,,,,,,,,,,,,,,,,,,,,,,,,,,,,,,,,,,,,,,,,,,,,,,,,,,,,,,,,,,,,"[""comma""]",0,[0.42200000000002547],33,0,33,0,1,,
,,,,,,,,,,,,5cebae5b2e4f1700012a915a,26,Mężczyzna,2022-06-11_09h39.18.144,task,2021.1.4,MacIntel,52.63157895,6299f149e92ead563fba08ef,62a444b630ad2be50bae4c29,,,,,,,,,,,,,,,,,,,,,,,,,,,,,,,,,,,,,,,,,,,,,,,,,,,,,,,,,,,,,,,,,,,,,,,,,,,,,,,,,,,,,,,,,,,,"[""period"",""comma""]",0,"[0.13400000000001455,1.13900000000001]",34,0,34,0,1,,
,,,,,,,,,,,,5cebae5b2e4f1700012a915a,26,Mężczyzna,2022-06-11_09h39.18.144,task,2021.1.4,MacIntel,52.63157895,6299f149e92ead563fba08ef,62a444b630ad2be50bae4c29,,,,,,,,,,,,,,,,,,,,,,,,,,,,,,,,,,,,,,,,,,,,,,,,,,,,,,,,,,,,,,,,,,,,,,,,,,,,,,,,,,,,,,,,,,,,"[""comma"",""comma""]",0,"[0.33999999999991815,1.4360000000000355]",35,0,35,0,1,,
,,,,,,,,,,,,5cebae5b2e4f1700012a915a,26,Mężczyzna,2022-06-11_09h39.18.144,task,2021.1.4,MacIntel,52.63157895,6299f149e92ead563fba08ef,62a444b630ad2be50bae4c29,,,,,,,,,,,,,,,,,,,,,,,,,,,,,,,,,,,,,,,,,,,,,,,,,,,,,,,,,,,,,,,,,,,,,,,,,,,,,,,,,,,,,,,,,,,,,0,,36,0,36,0,1,,
,,,,,,,,,,,,5cebae5b2e4f1700012a915a,26,Mężczyzna,2022-06-11_09h39.18.144,task,2021.1.4,MacIntel,52.63157895,6299f149e92ead563fba08ef,62a444b630ad2be50bae4c29,,,,,,,,,,,,,,,,,,,,,,,,,,,,,,,,,,,,,,,,,,,,,,,,,,,,,,,,,,,,,,,,,,,,,,,,,,,,,,,,,,,,,,,,,,,,"[""comma"",""comma"",""comma""]",0,"[0.12199999999995725,1.05600000000004,1.7350000000000136]",37,0,37,0,1,,
,,,,,,,,,,,,5cebae5b2e4f1700012a915a,26,Mężczyzna,2022-06-11_09h39.18.144,task,2021.1.4,MacIntel,52.63157895,6299f149e92ead563fba08ef,62a444b630ad2be50bae4c29,,,,,,,,,,,,,,,,,,,,,,,,,,,,,,,,,,,,,,,,,,,,,,,,,,,,,,,,,,,,,,,,,,,,,,,,,,,,,,,,,,,,,,,,,,,,"[""comma""]",0,[1.05600000000004],38,0,38,0,1,,
,,,,,,,,,,,,5cebae5b2e4f1700012a915a,26,Mężczyzna,2022-06-11_09h39.18.144,task,2021.1.4,MacIntel,52.63157895,6299f149e92ead563fba08ef,62a444b630ad2be50bae4c29,,,,,,,,,,,,,,,,,,,,,,,,,,,,,,,,,,,,,,,,,,,,,,,,,,,,,,,,,,,,,,,,,,,,,,,,,,,,,,,,,,,,,,,,,,,,"[""comma"",""comma""]",0,"[0.4189999999999827,1.7369999999999663]",39,0,39,0,1,,
,,,,,,,,,,,,5cebae5b2e4f1700012a915a,26,Mężczyzna,2022-06-11_09h39.18.144,task,2021.1.4,MacIntel,52.63157895,6299f149e92ead563fba08ef,62a444b630ad2be50bae4c29,,,,,,,,,,,,,,,,,,,,,,,,,,,,,,,,,,,,,,,,,,,,,,,,,,,,,,,,,,,,,,,,,,,,,,,,,,,,,,,,,,,,,,,,,,,,"[""comma"",""comma""]",0,"[0.7690000000000055,1.6359999999999673]",40,0,40,0,1,,
,,,,,,,,,,,,5cebae5b2e4f1700012a915a,26,Mężczyzna,2022-06-11_09h39.18.144,task,2021.1.4,MacIntel,52.63157895,6299f149e92ead563fba08ef,62a444b630ad2be50bae4c29,,,,,,,,,,,,,,,,,,,,,,,,,,,,,,,,,,,,,,,,,,,,,,,,,,,,,,,,,,,,,,,,,,,,,,,,,,,,,,,,,,,,,,,,,,,,"[""comma"",""comma""]",0,"[0.4519999999999982,1.2690000000000055]",41,0,41,0,1,,
,,,,,,,,,,,,5cebae5b2e4f1700012a915a,26,Mężczyzna,2022-06-11_09h39.18.144,task,2021.1.4,MacIntel,52.63157895,6299f149e92ead563fba08ef,62a444b630ad2be50bae4c29,,,,,,,,,,,,,,,,,,,,,,,,,,,,,,,,,,,,,,,,,,,,,,,,,,,,,,,,,,,,,,,,,,,,,,,,,,,,,,,,,,,,,,,,,,,,"[""comma"",""comma""]",0,"[0.03599999999994452,1.6019999999999754]",42,0,42,0,1,,
,,,,,,,,,,,,5cebae5b2e4f1700012a915a,26,Mężczyzna,2022-06-11_09h39.18.144,task,2021.1.4,MacIntel,52.63157895,6299f149e92ead563fba08ef,62a444b630ad2be50bae4c29,,,,,,,,,,,,,,,,,,,,,,,,,,,,,,,,,,,,,,,,,,,,,,,,,,,,,,,,,,,,,,,,,,,,,,,,,,,,,,,,,,,,,,,,,,,,"[""comma"",""comma""]",0,"[0.68100000000004,1.6190000000000282]",43,0,43,0,1,,
,,,,,,,,,,,,5cebae5b2e4f1700012a915a,26,Mężczyzna,2022-06-11_09h39.18.144,task,2021.1.4,MacIntel,52.63157895,6299f149e92ead563fba08ef,62a444b630ad2be50bae4c29,,,,,,,,,,,,,,,,,,,,,,,,,,,,,,,,,,,,,,,,,,,,,,,,,,,,,,,,,,,,,,,,,,,,,,,,,,,,,,,,,,,,,,,,,,,,"[""comma"",""comma""]",0,"[0.2699999999999818,1.0349999999999682]",44,0,44,0,1,,
,,,,,,,,,,,,5cebae5b2e4f1700012a915a,26,Mężczyzna,2022-06-11_09h39.18.144,task,2021.1.4,MacIntel,52.63157895,6299f149e92ead563fba08ef,62a444b630ad2be50bae4c29,,,,,,,,,,,,,,,,,,,,,,,,,,,,,,,,,,,,,,,,,,,,,,,,,,,,,,,,,,,,,,,,,,,,,,,,,,,,,,,,,,,,,,,,,,,,"[""period"",""period""]",0,"[0.30499999999995,1.2699999999999818]",45,0,45,0,1,,
,,,,,,,,,,,,5cebae5b2e4f1700012a915a,26,Mężczyzna,2022-06-11_09h39.18.144,task,2021.1.4,MacIntel,52.63157895,6299f149e92ead563fba08ef,62a444b630ad2be50bae4c29,,,,,,,,,,,,,,,,,,,,,,,,,,,,,,,,,,,,,,,,,,,,,,,,,,,,,,,,,,,,,,,,,,,,,,,,,,,,,,,,,,,,,,,,,,,,"[""period""]",0,[1.4400000000000546],46,0,46,0,1,,
,,,,,,,,,,,,5cebae5b2e4f1700012a915a,26,Mężczyzna,2022-06-11_09h39.18.144,task,2021.1.4,MacIntel,52.63157895,6299f149e92ead563fba08ef,62a444b630ad2be50bae4c29,,,,,,,,,,,,,,,,,,,,,,,,,,,,,,,,,,,,,,,,,,,,,,,,,,,,,,,,,,,,,,,,,,,,,,,,,,,,,,,,,,,,,,,,,,,,"[""period"",""period""]",0,"[0.12400000000002365,1.0880000000000791]",47,0,47,0,1,,
,,,,,,,,,,,,5cebae5b2e4f1700012a915a,26,Mężczyzna,2022-06-11_09h39.18.144,task,2021.1.4,MacIntel,52.63157895,6299f149e92ead563fba08ef,62a444b630ad2be50bae4c29,,,,,,,,,,,,,,,,,,,,,,,,,,,,,,,,,,,,,,,,,,,,,,,,,,,,,,,,,,,,,,,,,,,,,,,,,,,,,,,,,,,,,,,,,,,,"[""period"",""period""]",0,"[0.6229999999999336,1.905999999999949]",48,0,48,0,1,,
,,,,,,,,,,,,5cebae5b2e4f1700012a915a,26,Mężczyzna,2022-06-11_09h39.18.144,task,2021.1.4,MacIntel,52.63157895,6299f149e92ead563fba08ef,62a444b630ad2be50bae4c29,,,,,,,,,,,,,,,,,,,,,,,,,,,,,,,,,,,,,,,,,,,,,,,,,,,,,,,,,,,,,,,,,,,,,,,,,,,,,,,,,,,,,,,,,,,,,0,,49,0,49,0,1,,
,,,,,,,,,,,,5cebae5b2e4f1700012a915a,26,Mężczyzna,2022-06-11_09h39.18.144,task,2021.1.4,MacIntel,52.63157895,6299f149e92ead563fba08ef,62a444b630ad2be50bae4c29,,,,,,,,,,,,,,,,,,,,,,,,,,,,,,,,,,,,,,,,,,,,,,,,,,,,,,,,,,,,,,,,,,,,,,,,,,,,,,,,,,,,,,,,,,,,"[""comma"",""period""]",0,"[0.18700000000001182,1.4249999999999545]",50,0,50,0,1,,
,,,,,,,,,,,,5cebae5b2e4f1700012a915a,26,Mężczyzna,2022-06-11_09h39.18.144,task,2021.1.4,MacIntel,52.63157895,6299f149e92ead563fba08ef,62a444b630ad2be50bae4c29,,,,,,,,,,,,,,,,,,,,,,,,,,,,,,,,,,,,,,,,,,,,,,,,,,,,,,,,,,,,,,,,,,,,,,,,,,,,,,,,,,,,,,,,,,,,,0,,51,0,51,0,1,,
,,,,,,,,,,,,5cebae5b2e4f1700012a915a,26,Mężczyzna,2022-06-11_09h39.18.144,task,2021.1.4,MacIntel,52.63157895,6299f149e92ead563fba08ef,62a444b630ad2be50bae4c29,,,,,,,,,,,,,,,,,,,,,,,,,,,,,,,,,,,,,,,,,,,,,,,,,,,,,,,,,,,,,,,,,,,,,,,,,,,,,,,,,,,,,,,,,,,,"[""comma"",""period""]",0,"[0.2340000000000373,1.0009999999999764]",52,0,52,0,1,,
,,,,,,,,,,,,5cebae5b2e4f1700012a915a,26,Mężczyzna,2022-06-11_09h39.18.144,task,2021.1.4,MacIntel,52.63157895,6299f149e92ead563fba08ef,62a444b630ad2be50bae4c29,,,,,,,,,,,,,,,,,,,,,,,,,,,,,,,,,,,,,,,,,,,,,,,,,,,,,,,,,,,,,,,,,,,,,,,,,,,,,,,,,,,,,,,,,,,,"[""period""]",0,[0.5910000000000082],53,0,53,0,1,,
,,,,,,,,,,,,5cebae5b2e4f1700012a915a,26,Mężczyzna,2022-06-11_09h39.18.144,task,2021.1.4,MacIntel,52.63157895,6299f149e92ead563fba08ef,62a444b630ad2be50bae4c29,,,,,,,,,,,,,,,,,,,,,,,,,,,,,,,,,,,,,,,,,,,,,,,,,,,,,,,,,,,,,,,,,,,,,,,,,,,,,,,,,,,,,,,,,,,,"[""comma"",""period""]",0,"[0.2680000000000291,1.2340000000000373]",54,0,54,0,1,,
,,,,,,,,,,,,5cebae5b2e4f1700012a915a,26,Mężczyzna,2022-06-11_09h39.18.144,task,2021.1.4,MacIntel,52.63157895,6299f149e92ead563fba08ef,62a444b630ad2be50bae4c29,,,,,,,,,,,,,,,,,,,,,,,,,,,,,,,,,,,,,,,,,,,,,,,,,,,,,,,,,,,,,,,,,,,,,,,,,,,,,,,,,,,,,,,,,,,,"[""period""]",0,[0.5849999999999227],55,0,55,0,1,,
,,,,,,,,,,,,5cebae5b2e4f1700012a915a,26,Mężczyzna,2022-06-11_09h39.18.144,task,2021.1.4,MacIntel,52.63157895,6299f149e92ead563fba08ef,62a444b630ad2be50bae4c29,,,,,,,,,,,,,,,,,,,,,,,,,,,,,,,,,,,,,,,,,,,,,,,,,,,,,,,,,,,,,,,,,,,,,,,,,,,,,,,,,,,,,,,,,,,,"[""comma""]",0,[0.49099999999998545],56,0,56,0,1,,
,,,,,,,,,,,,5cebae5b2e4f1700012a915a,26,Mężczyzna,2022-06-11_09h39.18.144,task,2021.1.4,MacIntel,52.63157895,6299f149e92ead563fba08ef,62a444b630ad2be50bae4c29,,,,,,,,,,,,,,,,,,,,,,,,,,,,,,,,,,,,,,,,,,,,,,,,,,,,,,,,,,,,,,,,,,,,,,,,,,,,,,,,,,,,,,,,,,,,"[""comma"",""comma""]",0,"[0.1230000000000473,1.6930000000000973]",57,0,57,0,1,,
,,,,,,,,,,,,5cebae5b2e4f1700012a915a,26,Mężczyzna,2022-06-11_09h39.18.144,task,2021.1.4,MacIntel,52.63157895,6299f149e92ead563fba08ef,62a444b630ad2be50bae4c29,,,,,,,,,,,,,,,,,,,,,,,,,,,,,,,,,,,,,,,,,,,,,,,,,,,,,,,,,,,,,,,,,,,,,,,,,,,,,,,,,,,,,,,,,,,,"[""comma""]",0,[1.1030000000000655],58,0,58,0,1,,
,,,,,,,,,,,,5cebae5b2e4f1700012a915a,26,Mężczyzna,2022-06-11_09h39.18.144,task,2021.1.4,MacIntel,52.63157895,6299f149e92ead563fba08ef,62a444b630ad2be50bae4c29,,,,,,,,,,,,,,,,,,,,,,,,,,,,,,,,,,,,,,,,,,,,,,,,,,,,,,,,,,,,,,,,,,,,,,,,,,,,,,,,,,,,,,,,,,,,,0,,59,0,59,0,1,,
,,,,,,,,,,,,5cebae5b2e4f1700012a915a,26,Mężczyzna,2022-06-11_09h39.18.144,task,2021.1.4,MacIntel,52.63157895,6299f149e92ead563fba08ef,62a444b630ad2be50bae4c29,,,,,,,,,,,,,,,,,,,,,,,,,,,,,,,,,,,,,,,,,,,,,,,,,,,,,,,,,,,,,,,,,,,,,,,,,,,,,,,,,,,,,,,,,,,,"[""comma"",""period""]",0,"[0.40199999999992997,1.4829999999999472]",60,0,60,0,1,,
,,,,,,,,,,,,5cebae5b2e4f1700012a915a,26,Mężczyzna,2022-06-11_09h39.18.144,task,2021.1.4,MacIntel,52.63157895,6299f149e92ead563fba08ef,62a444b630ad2be50bae4c29,,,,,,,,,,,,,,,,,,,,,,,,,,,,,,,,,,,,,,,,,,,,,,,,,,,,,,,,,,,,,,,,,,,,,,,,,,,,,,,,,,,,,,,,,,,,"[""comma""]",0,[1.1330000000000382],61,0,61,0,1,,
,,,,,,,,,,,,5cebae5b2e4f1700012a915a,26,Mężczyzna,2022-06-11_09h39.18.144,task,2021.1.4,MacIntel,52.63157895,6299f149e92ead563fba08ef,62a444b630ad2be50bae4c29,,,,,,,,,,,,,,,,,,,,,,,,,,,,,,,,,,,,,,,,,,,,,,,,,,,,,,,,,,,,,,,,,,,,,,,,,,,,,,,,,,,,,,,,,,,,"[""comma""]",0,[1.0860000000000127],62,0,62,0,1,,
,,,,,,,,,,,,5cebae5b2e4f1700012a915a,26,Mężczyzna,2022-06-11_09h39.18.144,task,2021.1.4,MacIntel,52.63157895,6299f149e92ead563fba08ef,62a444b630ad2be50bae4c29,,,,,,,,,,,,,,,,,,,,,,,,,,,,,,,,,,,,,,,,,,,,,,,,,,,,,,,,,,,,,,,,,,,,,,,,,,,,,,,,,,,,,,,,,,,,"[""comma"",""period""]",0,"[0.5229999999999109,1.0059999999999718]",63,0,63,0,1,,
,,,,,,,,,,,,5cebae5b2e4f1700012a915a,26,Mężczyzna,2022-06-11_09h39.18.144,task,2021.1.4,MacIntel,52.63157895,6299f149e92ead563fba08ef,62a444b630ad2be50bae4c29,,,,,,,,,,,,,,,,,,,,,,,,,,,,,,,,,,,,,,,,,,,,,,,,,,,,,,,,,,,,,,,,,,,,,,,,,,,,,,,,,,,,,,,,,,,,,0,,64,0,64,0,1,,
,,,,,,,,,,,,5cebae5b2e4f1700012a915a,26,Mężczyzna,2022-06-11_09h39.18.144,task,2021.1.4,MacIntel,52.63157895,6299f149e92ead563fba08ef,62a444b630ad2be50bae4c29,,,,,,,,,,,,,,,,,,,,,,,,,,,,,,,,,,,,,,,,,,,,,,,,,,,,,,,,,,,,,,,,,,,,,,,,,,,,,,,,,,,,,,,,,,,,"[""period""]",0,[0.2759999999999536],65,0,65,0,1,,
,,,,,,,,,,,,5cebae5b2e4f1700012a915a,26,Mężczyzna,2022-06-11_09h39.18.144,task,2021.1.4,MacIntel,52.63157895,6299f149e92ead563fba08ef,62a444b630ad2be50bae4c29,,,,,,,,,,,,,,,,,,,,,,,,,,,,,,,,,,,,,,,,,,,,,,,,,,,,,,,,,,,,,,,,,,,,,,,,,,,,,,,,,,,,,,,,,,,,"[""comma""]",0,[0.8210000000000264],66,0,66,0,1,,
,,,,,,,,,,,,5cebae5b2e4f1700012a915a,26,Mężczyzna,2022-06-11_09h39.18.144,task,2021.1.4,MacIntel,52.63157895,6299f149e92ead563fba08ef,62a444b630ad2be50bae4c29,,,,,,,,,,,,,,,,,,,,,,,,,,,,,,,,,,,,,,,,,,,,,,,,,,,,,,,,,,,,,,,,,,,,,,,,,,,,,,,,,,,,,,,,,,,,"[""period"",""comma""]",0,"[0.22400000000004638,1.586999999999989]",67,0,67,0,1,,
,,,,,,,,,,,,5cebae5b2e4f1700012a915a,26,Mężczyzna,2022-06-11_09h39.18.144,task,2021.1.4,MacIntel,52.63157895,6299f149e92ead563fba08ef,62a444b630ad2be50bae4c29,,,,,,,,,,,,,,,,,,,,,,,,,,,,,,,,,,,,,,,,,,,,,,,,,,,,,,,,,,,,,,,,,,,,,,,,,,,,,,,,,,,,,,,,,,,,,0,,68,0,68,0,1,,
,,,,,,,,,,,,5cebae5b2e4f1700012a915a,26,Mężczyzna,2022-06-11_09h39.18.144,task,2021.1.4,MacIntel,52.63157895,6299f149e92ead563fba08ef,62a444b630ad2be50bae4c29,,,,,,,,,,,,,,,,,,,,,,,,,,,,,,,,,,,,,,,,,,,,,,,,,,,,,,,,,,,,,,,,,,,,,,,,,,,,,,,,,,,,,,,,,,,,"[""period""]",0,[0.2560000000000855],69,0,69,0,1,,
,,,,,,,,,,,,5cebae5b2e4f1700012a915a,26,Mężczyzna,2022-06-11_09h39.18.144,task,2021.1.4,MacIntel,52.63157895,6299f149e92ead563fba08ef,62a444b630ad2be50bae4c29,,,,,,,,,,,,,,,,,,,,,,,,,,,,,,,,,,,,,,,,,,,,,,,,,,,,,,,,,,,,,,,,,,,,,,,,,,,,,,,,,,,,,,,,,,,,"[""comma"",""comma""]",0,"[-0.014000000000010004,1.7160000000000082]",70,0,70,0,1,,
,,,,,,,,,,,,5cebae5b2e4f1700012a915a,26,Mężczyzna,2022-06-11_09h39.18.144,task,2021.1.4,MacIntel,52.63157895,6299f149e92ead563fba08ef,62a444b630ad2be50bae4c29,,,,,,,,,,,,,,,,,,,,,,,,,,,,,,,,,,,,,,,,,,,,,,,,,,,,,,,,,,,,,,,,,,,,,,,,,,,,,,,,,,,,,,,,,,,,"[""comma""]",0,[0.5510000000000446],71,0,71,0,1,,
,,,,,,,,,,,,5cebae5b2e4f1700012a915a,26,Mężczyzna,2022-06-11_09h39.18.144,task,2021.1.4,MacIntel,52.63157895,6299f149e92ead563fba08ef,62a444b630ad2be50bae4c29,,,,,,,,,,,,,,,,,,,,,,,,,,,,,,,,,,,,,,,,,,,,,,,,,,,,,,,,,,,,,,,,,,,,,,,,,,,,,,,,,,,,,,,,,,,,"[""comma""]",0,[1.086999999999989],72,0,72,0,1,,
,,,,,,,,,,,,5cebae5b2e4f1700012a915a,26,Mężczyzna,2022-06-11_09h39.18.144,task,2021.1.4,MacIntel,52.63157895,6299f149e92ead563fba08ef,62a444b630ad2be50bae4c29,,,,,,,,,,,,,,,,,,,,,,,,,,,,,,,,,,,,,,,,,,,,,,,,,,,,,,,,,,,,,,,,,,,,,,,,,,,,,,,,,,,,,,,,,,,,"[""period""]",0,[0.2259999999999991],73,0,73,0,1,,
,,,,,,,,,,,,5cebae5b2e4f1700012a915a,26,Mężczyzna,2022-06-11_09h39.18.144,task,2021.1.4,MacIntel,52.63157895,6299f149e92ead563fba08ef,62a444b630ad2be50bae4c29,,,,,,,,,,,,,,,,,,,,,,,,,,,,,,,,,,,,,,,,,,,,,,,,,,,,,,,,,,,,,,,,,,,,,,,,,,,,,,,,,,,,,,,,,,,,"[""comma""]",0,[0.31899999999996],74,0,74,0,1,,
,,,,,,,,,,,,5cebae5b2e4f1700012a915a,26,Mężczyzna,2022-06-11_09h39.18.144,task,2021.1.4,MacIntel,52.63157895,6299f149e92ead563fba08ef,62a444b630ad2be50bae4c29,,,,,,,,,,,,,,,,,,,,,,,,,,,,,,,,,,,,,,,,,,,,,,,,,,,,,,,,,,,,,,,,,,,,,,,,,,,,,,,,,,,,,,,,,,,,"[""comma""]",0,[0.2340000000000373],75,0,75,0,1,,
,,,,,,,,,,,,5cebae5b2e4f1700012a915a,26,Mężczyzna,2022-06-11_09h39.18.144,task,2021.1.4,MacIntel,52.63157895,6299f149e92ead563fba08ef,62a444b630ad2be50bae4c29,,,,,,,,,,,,,,,,,,,,,,,,,,,,,,,,,,,,,,,,,,,,,,,,,,,,,,,,,,,,,,,,,,,,,,,,,,,,,,,,,,,,,,,,,,,,"[""comma""]",0,[0.27899999999999636],76,0,76,0,1,,
,,,,,,,,,,,,5cebae5b2e4f1700012a915a,26,Mężczyzna,2022-06-11_09h39.18.144,task,2021.1.4,MacIntel,52.63157895,6299f149e92ead563fba08ef,62a444b630ad2be50bae4c29,,,,,,,,,,,,,,,,,,,,,,,,,,,,,,,,,,,,,,,,,,,,,,,,,,,,,,,,,,,,,,,,,,,,,,,,,,,,,,,,,,,,,,,,,,,,"[""period""]",0,[0.3040000000000873],77,0,77,0,1,,
,,,,,,,,,,,,5cebae5b2e4f1700012a915a,26,Mężczyzna,2022-06-11_09h39.18.144,task,2021.1.4,MacIntel,52.63157895,6299f149e92ead563fba08ef,62a444b630ad2be50bae4c29,,,,,,,,,,,,,,,,,,,,,,,,,,,,,,,,,,,,,,,,,,,,,,,,,,,,,,,,,,,,,,,,,,,,,,,,,,,,,,,,,,,,,,,,,,,,"[""comma""]",0,[0.7059999999999036],78,0,78,0,1,,
,,,,,,,,,,,,5cebae5b2e4f1700012a915a,26,Mężczyzna,2022-06-11_09h39.18.144,task,2021.1.4,MacIntel,52.63157895,6299f149e92ead563fba08ef,62a444b630ad2be50bae4c29,,,,,,,,,,,,,,,,,,,,,,,,,,,,,,,,,,,,,,,,,,,,,,,,,,,,,,,,,,,,,,,,,,,,,,,,,,,,,,,,,,,,,,,,,,,,"[""comma"",""comma""]",0,"[0.30299999999999727,1.65300000000002]",79,0,79,0,1,,
,,,,,,,,,,,,5cebae5b2e4f1700012a915a,26,Mężczyzna,2022-06-11_09h39.18.144,task,2021.1.4,MacIntel,52.63157895,6299f149e92ead563fba08ef,62a444b630ad2be50bae4c29,,,,,,,,,,,,,,,,,,,,,,,,,,,,,,,,,,,,,,,,,,,,,,,,,,,,,,,,,,,,,,,,,,,,,,,,,,,,,,,,,,,,,,,,,,,,,0,,80,0,80,0,1,,
,,,,,,,,,,,,5cebae5b2e4f1700012a915a,26,Mężczyzna,2022-06-11_09h39.18.144,task,2021.1.4,MacIntel,52.63157895,6299f149e92ead563fba08ef,62a444b630ad2be50bae4c29,,,,,,,,,,,,,,,,,,,,,,,,,,,,,,,,,,,,,,,,,,,,,,,,,,,,,,,,,,,,,,,,,,,,,,,,,,,,,,,,,,,,,,,,,,,,"[""period"",""comma""]",0,"[0.30600000000004,1.9430000000000973]",81,0,81,0,1,,
,,,,,,,,,,,,5cebae5b2e4f1700012a915a,26,Mężczyzna,2022-06-11_09h39.18.144,task,2021.1.4,MacIntel,52.63157895,6299f149e92ead563fba08ef,62a444b630ad2be50bae4c29,,,,,,,,,,,,,,,,,,,,,,,,,,,,,,,,,,,,,,,,,,,,,,,,,,,,,,,,,,,,,,,,,,,,,,,,,,,,,,,,,,,,,,,,,,,,"[""comma""]",0,[1.65400000000011],82,0,82,0,1,,
,,,,,,,,,,,,5cebae5b2e4f1700012a915a,26,Mężczyzna,2022-06-11_09h39.18.144,task,2021.1.4,MacIntel,52.63157895,6299f149e92ead563fba08ef,62a444b630ad2be50bae4c29,,,,,,,,,,,,,,,,,,,,,,,,,,,,,,,,,,,,,,,,,,,,,,,,,,,,,,,,,,,,,,,,,,,,,,,,,,,,,,,,,,,,,,,,,,,,"[""period""]",0,[1.3179999999999836],83,0,83,0,1,,
,,,,,,,,,,,,5cebae5b2e4f1700012a915a,26,Mężczyzna,2022-06-11_09h39.18.144,task,2021.1.4,MacIntel,52.63157895,6299f149e92ead563fba08ef,62a444b630ad2be50bae4c29,,,,,,,,,,,,,,,,,,,,,,,,,,,,,,,,,,,,,,,,,,,,,,,,,,,,,,,,,,,,,,,,,,,,,,,,,,,,,,,,,,,,,,,,,,,,"[""comma""]",0,[1.0019999999999527],84,0,84,0,1,,
,,,,,,,,,,,,5cebae5b2e4f1700012a915a,26,Mężczyzna,2022-06-11_09h39.18.144,task,2021.1.4,MacIntel,52.63157895,6299f149e92ead563fba08ef,62a444b630ad2be50bae4c29,,,,,,,,,,,,,,,,,,,,,,,,,,,,,,,,,,,,,,,,,,,,,,,,,,,,,,,,,,,,,,,,,,,,,,,,,,,,,,,,,,,,,,,,,,,,"[""period"",""comma""]",0,"[0.4029999999999063,1.2349999999999]",85,0,85,0,1,,
,,,,,,,,,,,,5cebae5b2e4f1700012a915a,26,Mężczyzna,2022-06-11_09h39.18.144,task,2021.1.4,MacIntel,52.63157895,6299f149e92ead563fba08ef,62a444b630ad2be50bae4c29,,,,,,,,,,,,,,,,,,,,,,,,,,,,,,,,,,,,,,,,,,,,,,,,,,,,,,,,,,,,,,,,,,,,,,,,,,,,,,,,,,,,,,,,,,,,"[""comma""]",0,[0.3589999999999236],86,0,86,0,1,,
,,,,,,,,,,,,5cebae5b2e4f1700012a915a,26,Mężczyzna,2022-06-11_09h39.18.144,task,2021.1.4,MacIntel,52.63157895,6299f149e92ead563fba08ef,62a444b630ad2be50bae4c29,,,,,,,,,,,,,,,,,,,,,,,,,,,,,,,,,,,,,,,,,,,,,,,,,,,,,,,,,,,,,,,,,,,,,,,,,,,,,,,,,,,,,,,,,,,,"[""period"",""comma""]",0,"[0.038000000000010914,1.40300000000002]",87,0,87,0,1,,
,,,,,,,,,,,,5cebae5b2e4f1700012a915a,26,Mężczyzna,2022-06-11_09h39.18.144,task,2021.1.4,MacIntel,52.63157895,6299f149e92ead563fba08ef,62a444b630ad2be50bae4c29,,,,,,,,,,,,,,,,,,,,,,,,,,,,,,,,,,,,,,,,,,,,,,,,,,,,,,,,,,,,,,,,,,,,,,,,,,,,,,,,,,,,,,,,,,,,"[""comma"",""comma""]",0,"[0.79200000000003,1.9589999999999463]",88,0,88,0,1,,
,,,,,,,,,,,,5cebae5b2e4f1700012a915a,26,Mężczyzna,2022-06-11_09h39.18.144,task,2021.1.4,MacIntel,52.63157895,6299f149e92ead563fba08ef,62a444b630ad2be50bae4c29,,,,,,,,,,,,,,,,,,,,,,,,,,,,,,,,,,,,,,,,,,,,,,,,,,,,,,,,,,,,,,,,,,,,,,,,,,,,,,,,,,,,,,,,,,,,"[""period""]",0,[1.1169999999999618],89,0,89,0,1,,
,,,,,,,,,,,,5cebae5b2e4f1700012a915a,26,Mężczyzna,2022-06-11_09h39.18.144,task,2021.1.4,MacIntel,52.63157895,6299f149e92ead563fba08ef,62a444b630ad2be50bae4c29,,,,,,,,,,,,,,,,,,,,,,,,,,,,,,,,,,,,,,,,,,,,,,,,,,,,,,,,,,,,,,,,,,,,,,,,,,,,,,,,,,,,,,,,,,,,"[""comma"",""comma"",""comma""]",0,"[0.23299999999983356,1.1849999999998317,1.8519999999998618]",90,0,90,0,1,,
,,,,,,,,,,,,5cebae5b2e4f1700012a915a,26,Mężczyzna,2022-06-11_09h39.18.144,task,2021.1.4,MacIntel,52.63157895,6299f149e92ead563fba08ef,62a444b630ad2be50bae4c29,,,,,,,,,,,,,,,,,,,,,,,,,,,,,,,,,,,,,,,,,,,,,,,,,,,,,,,,,,,,,,,,,,,,,,,,,,,,,,,,,,,,,,,,,,,,"[""period"",""comma""]",0,"[0.8349999999999227,0.8549999999999045]",91,0,91,0,1,,
,,,,,,,,,,,,5cebae5b2e4f1700012a915a,26,Mężczyzna,2022-06-11_09h39.18.144,task,2021.1.4,MacIntel,52.63157895,6299f149e92ead563fba08ef,62a444b630ad2be50bae4c29,,,,,,,,,,,,,,,,,,,,,,,,,,,,,,,,,,,,,,,,,,,,,,,,,,,,,,,,,,,,,,,,,,,,,,,,,,,,,,,,,,,,,,,,,,,,"[""period""]",0,[0.2759999999999536],92,0,92,0,1,,
,,,,,,,,,,,,5cebae5b2e4f1700012a915a,26,Mężczyzna,2022-06-11_09h39.18.144,task,2021.1.4,MacIntel,52.63157895,6299f149e92ead563fba08ef,62a444b630ad2be50bae4c29,,,,,,,,,,,,,,,,,,,,,,,,,,,,,,,,,,,,,,,,,,,,,,,,,,,,,,,,,,,,,,,,,,,,,,,,,,,,,,,,,,,,,,,,,,,,"[""comma"",""comma""]",0,"[0.21600000000000819,1.8199999999999363]",93,0,93,0,1,,
,,,,,,,,,,,,5cebae5b2e4f1700012a915a,26,Mężczyzna,2022-06-11_09h39.18.144,task,2021.1.4,MacIntel,52.63157895,6299f149e92ead563fba08ef,62a444b630ad2be50bae4c29,,,,,,,,,,,,,,,,,,,,,,,,,,,,,,,,,,,,,,,,,,,,,,,,,,,,,,,,,,,,,,,,,,,,,,,,,,,,,,,,,,,,,,,,,,,,"[""period""]",0,[1.0049999999999955],94,0,94,0,1,,
,,,,,,,,,,,,5cebae5b2e4f1700012a915a,26,Mężczyzna,2022-06-11_09h39.18.144,task,2021.1.4,MacIntel,52.63157895,6299f149e92ead563fba08ef,62a444b630ad2be50bae4c29,,,,,,,,,,,,,,,,,,,,,,,,,,,,,,,,,,,,,,,,,,,,,,,,,,,,,,,,,,,,,,,,,,,,,,,,,,,,,,,,,,,,,,,,,,,,"[""comma""]",0,[0.46900000000005093],95,0,95,0,1,,
,,,,,,,,,,,,5cebae5b2e4f1700012a915a,26,Mężczyzna,2022-06-11_09h39.18.144,task,2021.1.4,MacIntel,52.63157895,6299f149e92ead563fba08ef,62a444b630ad2be50bae4c29,,,,,,,,,,,,,,,,,,,,,,,,,,,,,,,,,,,,,,,,,,,,,,,,,,,,,,,,,,,,,,,,,,,,,,,,,,,,,,,,,,,,,,,,,,,,"[""comma""]",0,[0.36800000000005184],96,0,96,0,1,,
,,,,,,,,,,,,5cebae5b2e4f1700012a915a,26,Mężczyzna,2022-06-11_09h39.18.144,task,2021.1.4,MacIntel,52.63157895,6299f149e92ead563fba08ef,62a444b630ad2be50bae4c29,,,,,,,,,,,,,,,,,,,,,,,,,,,,,,,,,,,,,,,,,,,,,,,,,,,,,,,,,,,,,,,,,,,,,,,,,,,,,,,,,,,,,,,,,,,,"[""comma""]",0,[0.18899999999996453],97,0,97,0,1,,
,,,,,,,,,,,,5cebae5b2e4f1700012a915a,26,Mężczyzna,2022-06-11_09h39.18.144,task,2021.1.4,MacIntel,52.63157895,6299f149e92ead563fba08ef,62a444b630ad2be50bae4c29,,,,,,,,,,,,,,,,,,,,,,,,,,,,,,,,,,,,,,,,,,,,,,,,,,,,,,,,,,,,,,,,,,,,,,,,,,,,,,,,,,,,,,,,,,,,"[""comma""]",0,[0.30299999999999727],98,0,98,0,1,,
,,,,,,,,,,,,5cebae5b2e4f1700012a915a,26,Mężczyzna,2022-06-11_09h39.18.144,task,2021.1.4,MacIntel,52.63157895,6299f149e92ead563fba08ef,62a444b630ad2be50bae4c29,,,,,,,,,,,,,,,,,,,,,,,,,,,,,,,,,,,,,,,,,,,,,,,,,,,,,,,,,,,,,,,,,,,,,,,,,,,,,,,,,,,,,,,,,,,,"[""period""]",0,[0.1029999999999518],99,0,99,0,1,,
,,,,,,,,,,,,5cebae5b2e4f1700012a915a,26,Mężczyzna,2022-06-11_09h39.18.144,task,2021.1.4,MacIntel,52.63157895,6299f149e92ead563fba08ef,62a444b630ad2be50bae4c29,,,,,,,,,,,,,,,,,,,,,,,,,,,,,,,,,,,,,,,,,,,,,,,,,,,,,,,,,,,,,,,,,,,,,,,,,,,,,,,,,,,,,,,,,,,,"[""comma""]",0,[-0.012999999999919964],100,0,100,0,1,,
,,,,,,,,,,,,5cebae5b2e4f1700012a915a,26,Mężczyzna,2022-06-11_09h39.18.144,task,2021.1.4,MacIntel,52.63157895,6299f149e92ead563fba08ef,62a444b630ad2be50bae4c29,,,,,,,,,,,,,,,,,,,,,,,,,,,,,,,,,,,,,,,,,,,,,,,,,,,,,,,,,,,,,,,,,,,,,,,,,,,,,,,,,,,,,,,,,,,,"[""period"",""comma""]",0,"[0.23500000000001364,1.8519999999999754]",101,0,101,0,1,,
,,,,,,,,,,,,5cebae5b2e4f1700012a915a,26,Mężczyzna,2022-06-11_09h39.18.144,task,2021.1.4,MacIntel,52.63157895,6299f149e92ead563fba08ef,62a444b630ad2be50bae4c29,,,,,,,,,,,,,,,,,,,,,,,,,,,,,,,,,,,,,,,,,,,,,,,,,,,,,,,,,,,,,,,,,,,,,,,,,,,,,,,,,,,,,,,,,,,,,0,,102,0,102,0,1,,
,,,,,,,,,,,,5cebae5b2e4f1700012a915a,26,Mężczyzna,2022-06-11_09h39.18.144,task,2021.1.4,MacIntel,52.63157895,6299f149e92ead563fba08ef,62a444b630ad2be50bae4c29,,,,,,,,,,,,,,,,,,,,,,,,,,,,,,,,,,,,,,,,,,,,,,,,,,,,,,,,,,,,,,,,,,,,,,,,,,,,,,,,,,,,,,,,,,,,"[""period""]",0,[0.22199999999998],103,0,103,0,1,,
,,,,,,,,,,,,5cebae5b2e4f1700012a915a,26,Mężczyzna,2022-06-11_09h39.18.144,task,2021.1.4,MacIntel,52.63157895,6299f149e92ead563fba08ef,62a444b630ad2be50bae4c29,,,,,,,,,,,,,,,,,,,,,,,,,,,,,,,,,,,,,,,,,,,,,,,,,,,,,,,,,,,,,,,,,,,,,,,,,,,,,,,,,,,,,,,,,,,,"[""comma""]",0,[0.2819999999999254],104,0,104,0,1,,
,,,,,,,,,,,,5cebae5b2e4f1700012a915a,26,Mężczyzna,2022-06-11_09h39.18.144,task,2021.1.4,MacIntel,52.63157895,6299f149e92ead563fba08ef,62a444b630ad2be50bae4c29,,,,,,,,,,,,,,,,,,,,,,,,,,,,,,,,,,,,,,,,,,,,,,,,,,,,,,,,,,,,,,,,,,,,,,,,,,,,,,,,,,,,,,,,,,,,"[""comma""]",0,[0.25499999999999545],105,0,105,0,1,,
,,,,,,,,,,,,5cebae5b2e4f1700012a915a,26,Mężczyzna,2022-06-11_09h39.18.144,task,2021.1.4,MacIntel,52.63157895,6299f149e92ead563fba08ef,62a444b630ad2be50bae4c29,,,,,,,,,,,,,,,,,,,,,,,,,,,,,,,,,,,,,,,,,,,,,,,,,,,,,,,,,,,,,,,,,,,,,,,,,,,,,,,,,,,,,,,,,,,,"[""comma""]",0,[0.30299999999999727],106,0,106,0,1,,
,,,,,,,,,,,,5cebae5b2e4f1700012a915a,26,Mężczyzna,2022-06-11_09h39.18.144,task,2021.1.4,MacIntel,52.63157895,6299f149e92ead563fba08ef,62a444b630ad2be50bae4c29,,,,,,,,,,,,,,,,,,,,,,,,,,,,,,,,,,,,,,,,,,,,,,,,,,,,,,,,,,,,,,,,,,,,,,,,,,,,,,,,,,,,,,,,,,,,"[""period""]",0,[0.23600000000010368],107,0,107,0,1,,
,,,,,,,,,,,,5cebae5b2e4f1700012a915a,26,Mężczyzna,2022-06-11_09h39.18.144,task,2021.1.4,MacIntel,52.63157895,6299f149e92ead563fba08ef,62a444b630ad2be50bae4c29,,,,,,,,,,,,,,,,,,,,,,,,,,,,,,,,,,,,,,,,,,,,,,,,,,,,,,,,,,,,,,,,,,,,,,,,,,,,,,,,,,,,,,,,,,,,"[""period""]",0,[0.18299999999999272],108,0,108,0,1,,
,,,,,,,,,,,,5cebae5b2e4f1700012a915a,26,Mężczyzna,2022-06-11_09h39.18.144,task,2021.1.4,MacIntel,52.63157895,6299f149e92ead563fba08ef,62a444b630ad2be50bae4c29,,,,,,,,,,,,,,,,,,,,,,,,,,,,,,,,,,,,,,,,,,,,,,,,,,,,,,,,,,,,,,,,,,,,,,,,,,,,,,,,,,,,,,,,,,,,"[""period""]",0,[0.8660000000000991],109,0,109,0,1,,
,,,,,,,,,,,,5cebae5b2e4f1700012a915a,26,Mężczyzna,2022-06-11_09h39.18.144,task,2021.1.4,MacIntel,52.63157895,6299f149e92ead563fba08ef,62a444b630ad2be50bae4c29,,,,,,,,,,,,,,,,,,,,,,,,,,,,,,,,,,,,,,,,,,,,,,,,,,,,,,,,,,,,,,,,,,,,,,,,,,,,,,,,,,,,,,,,,,,,"[""comma""]",0,[0.4600000000000364],110,0,110,0,1,,
,,,,,,,,,,,,5cebae5b2e4f1700012a915a,26,Mężczyzna,2022-06-11_09h39.18.144,task,2021.1.4,MacIntel,52.63157895,6299f149e92ead563fba08ef,62a444b630ad2be50bae4c29,,,,,,,,,,,,,,,,,,,,,,,,,,,,,,,,,,,,,,,,,,,,,,,,,,,,,,,,,,,,,,,,,,,,,,,,,,,,,,,,,,,,,,,,,,,,"[""comma""]",0,[0.2719999999999345],111,0,111,0,1,,
,,,,,,,,,,,,5cebae5b2e4f1700012a915a,26,Mężczyzna,2022-06-11_09h39.18.144,task,2021.1.4,MacIntel,52.63157895,6299f149e92ead563fba08ef,62a444b630ad2be50bae4c29,,,,,,,,,,,,,,,,,,,,,,,,,,,,,,,,,,,,,,,,,,,,,,,,,,,,,,,,,,,,,,,,,,,,,,,,,,,,,,,,,,,,,,,,,,,,"[""period""]",0,[0.28899999999998727],112,0,112,0,1,,
,,,,,,,,,,,,5cebae5b2e4f1700012a915a,26,Mężczyzna,2022-06-11_09h39.18.144,task,2021.1.4,MacIntel,52.63157895,6299f149e92ead563fba08ef,62a444b630ad2be50bae4c29,,,,,,,,,,,,,,,,,,,,,,,,,,,,,,,,,,,,,,,,,,,,,,,,,,,,,,,,,,,,,,,,,,,,,,,,,,,,,,,,,,,,,,,,,,,,"[""comma""]",0,[0.45299999999997453],113,0,113,0,1,,
,,,,,,,,,,,,5cebae5b2e4f1700012a915a,26,Mężczyzna,2022-06-11_09h39.18.144,task,2021.1.4,MacIntel,52.63157895,6299f149e92ead563fba08ef,62a444b630ad2be50bae4c29,,,,,,,,,,,,,,,,,,,,,,,,,,,,,,,,,,,,,,,,,,,,,,,,,,,,,,,,,,,,,,,,,,,,,,,,,,,,,,,,,,,,,,,,,,,,"[""period"",""comma""]",0,"[0.4249999999999545,1.891999999999939]",114,0,114,0,1,,
,,,,,,,,,,,,5cebae5b2e4f1700012a915a,26,Mężczyzna,2022-06-11_09h39.18.144,task,2021.1.4,MacIntel,52.63157895,6299f149e92ead563fba08ef,62a444b630ad2be50bae4c29,,,,,,,,,,,,,,,,,,,,,,,,,,,,,,,,,,,,,,,,,,,,,,,,,,,,,,,,,,,,,,,,,,,,,,,,,,,,,,,,,,,,,,,,,,,,,0,,115,0,115,0,1,,
,,,,,,,,,,,,5cebae5b2e4f1700012a915a,26,Mężczyzna,2022-06-11_09h39.18.144,task,2021.1.4,MacIntel,52.63157895,6299f149e92ead563fba08ef,62a444b630ad2be50bae4c29,,,,,,,,,,,,,,,,,,,,,,,,,,,,,,,,,,,,,,,,,,,,,,,,,,,,,,,,,,,,,,,,,,,,,,,,,,,,,,,,,,,,,,,,,,,,"[""period""]",0,[0.3089999999999691],116,0,116,0,1,,
,,,,,,,,,,,,5cebae5b2e4f1700012a915a,26,Mężczyzna,2022-06-11_09h39.18.144,task,2021.1.4,MacIntel,52.63157895,6299f149e92ead563fba08ef,62a444b630ad2be50bae4c29,,,,,,,,,,,,,,,,,,,,,,,,,,,,,,,,,,,,,,,,,,,,,,,,,,,,,,,,,,,,,,,,,,,,,,,,,,,,,,,,,,,,,,,,,,,,"[""comma""]",0,[0.29200000000003],117,0,117,0,1,,
,,,,,,,,,,,,5cebae5b2e4f1700012a915a,26,Mężczyzna,2022-06-11_09h39.18.144,task,2021.1.4,MacIntel,52.63157895,6299f149e92ead563fba08ef,62a444b630ad2be50bae4c29,,,,,,,,,,,,,,,,,,,,,,,,,,,,,,,,,,,,,,,,,,,,,,,,,,,,,,,,,,,,,,,,,,,,,,,,,,,,,,,,,,,,,,,,,,,,"[""comma"",""period""]",0,"[0.002000000000066393,1.3810000000000855]",118,0,118,0,1,,
,,,,,,,,,,,,5cebae5b2e4f1700012a915a,26,Mężczyzna,2022-06-11_09h39.18.144,task,2021.1.4,MacIntel,52.63157895,6299f149e92ead563fba08ef,62a444b630ad2be50bae4c29,,,,,,,,,,,,,,,,,,,,,,,,,,,,,,,,,,,,,,,,,,,,,,,,,,,,,,,,,,,,,,,,,,,,,,,,,,,,,,,,,,,,,,,,,,,,,0,,119,0,119,0,1,,
,,,,,,,,,,,,5cebae5b2e4f1700012a915a,26,Mężczyzna,2022-06-11_09h39.18.144,task,2021.1.4,MacIntel,52.63157895,6299f149e92ead563fba08ef,62a444b630ad2be50bae4c29,,,,,,,,,,,,,,,,,,,,,,,,,,,,,,,,,,,,,,,,,,,,,,,,,,,,,,,,,,,,,,,,,,,,,,,,,,,,,,,,,,,,,,,,,,,,,,,,,,,,space,2.94
