key_resp_15.keys,key_resp_15.rt,key_resp_13.keys,key_resp_13.corr,key_resp_13.rt,ranodm_loop.thisRepN,ranodm_loop.thisTrialN,ranodm_loop.thisN,ranodm_loop.thisIndex,ranodm_loop.ran,participant,Wiek*,Płeć,date,expName,psychopyVersion,OS,frameRate,study_id,session,key_resp_16.keys,key_resp_16.rt,key_resp_4.keys,key_resp_4.rt,next_letter.thisRepN,next_letter.thisTrialN,next_letter.thisN,next_letter.thisIndex,next_letter.ran,letter,simple_recall,key_resp_5.keys,key_resp_5.rt,simple_recall_corr,simple_recall_corrkeys,next_level.thisRepN,next_level.thisTrialN,next_level.thisN,next_level.thisIndex,next_level.ran,key_resp_2.keys,key_resp_2.rt,digit_answer,key_resp.keys,key_resp.corr,key_resp.rt,RT_list,next_equation.thisRepN,next_equation.thisTrialN,next_equation.thisN,next_equation.thisIndex,next_equation.ran,Task,Trial,Problem,Operation_answer,processing_score,sumRT,meanRT,sumdiff,sd,RT,key_resp_3.keys,key_resp_3.rt,repeat_practice.thisRepN,repeat_practice.thisTrialN,repeat_practice.thisN,repeat_practice.thisIndex,repeat_practice.ran,key_resp_6.keys,key_resp_6.rt,key_resp_11.keys,key_resp_11.corr,key_resp_11.rt,operation_correct,repeat_if_wrong_prac.thisRepN,repeat_if_wrong_prac.thisTrialN,repeat_if_wrong_prac.thisN,repeat_if_wrong_prac.thisIndex,repeat_if_wrong_prac.ran,span_size_prac.thisRepN,span_size_prac.thisTrialN,span_size_prac.thisN,span_size_prac.thisIndex,span_size_prac.ran,complex_recall_practice,key_resp_9.keys,key_resp_9.corr,key_resp_9.rt,complex_prac_corr,span_recall_prac.thisRepN,span_recall_prac.thisTrialN,span_recall_prac.thisN,span_recall_prac.thisIndex,span_recall_prac.ran,key_resp_10.keys,key_resp_10.rt,key_resp_7.keys,key_resp_7.corr,key_resp_7.rt,repeat_if_wrong.thisRepN,repeat_if_wrong.thisTrialN,repeat_if_wrong.thisN,repeat_if_wrong.thisIndex,repeat_if_wrong.ran,span_size.thisRepN,span_size.thisTrialN,span_size.thisN,span_size.thisIndex,span_size.ran,complex_recall,key_resp_8.keys,key_resp_8.corr,key_resp_8.rt,complex_recall_corr,complex_recall_corrkeys,span_recall.thisRepN,span_recall.thisTrialN,span_recall.thisN,span_recall.thisIndex,span_recall.ran,key_resp_12.keys,key_resp_12.rt
space,21.6375,"[""comma""]",0,[1.1863000000119257],0,0,0,0,1,5d0e74d6c26b9e001a6b9def,25,Mężczyzna,2022-06-04_08h34.05.775,task,2021.1.4,Win32,59.9880024,628b806c463b948bc644b84f,629afccdd26e5bad43830c9e,,,,,,,,,,,,,,,,,,,,,,,,,,,,,,,,,,,,,,,,,,,,,,,,,,,,,,,,,,,,,,,,,,,,,,,,,,,,,,,,,,,,,,,,,,,,,,,,,,,,,,,
,,"[""period""]",0,[1.2903000000119107],1,0,1,0,1,5d0e74d6c26b9e001a6b9def,25,Mężczyzna,2022-06-04_08h34.05.775,task,2021.1.4,Win32,59.9880024,628b806c463b948bc644b84f,629afccdd26e5bad43830c9e,,,,,,,,,,,,,,,,,,,,,,,,,,,,,,,,,,,,,,,,,,,,,,,,,,,,,,,,,,,,,,,,,,,,,,,,,,,,,,,,,,,,,,,,,,,,,,,,,,,,,,,
,,"[""period""]",0,[0.7065999999940402],2,0,2,0,1,5d0e74d6c26b9e001a6b9def,25,Mężczyzna,2022-06-04_08h34.05.775,task,2021.1.4,Win32,59.9880024,628b806c463b948bc644b84f,629afccdd26e5bad43830c9e,,,,,,,,,,,,,,,,,,,,,,,,,,,,,,,,,,,,,,,,,,,,,,,,,,,,,,,,,,,,,,,,,,,,,,,,,,,,,,,,,,,,,,,,,,,,,,,,,,,,,,,
,,"[""comma""]",0,[0.0024999999999977263],3,0,3,0,1,5d0e74d6c26b9e001a6b9def,25,Mężczyzna,2022-06-04_08h34.05.775,task,2021.1.4,Win32,59.9880024,628b806c463b948bc644b84f,629afccdd26e5bad43830c9e,,,,,,,,,,,,,,,,,,,,,,,,,,,,,,,,,,,,,,,,,,,,,,,,,,,,,,,,,,,,,,,,,,,,,,,,,,,,,,,,,,,,,,,,,,,,,,,,,,,,,,,
,,"[""period""]",0,[0.3004000000059648],4,0,4,0,1,5d0e74d6c26b9e001a6b9def,25,Mężczyzna,2022-06-04_08h34.05.775,task,2021.1.4,Win32,59.9880024,628b806c463b948bc644b84f,629afccdd26e5bad43830c9e,,,,,,,,,,,,,,,,,,,,,,,,,,,,,,,,,,,,,,,,,,,,,,,,,,,,,,,,,,,,,,,,,,,,,,,,,,,,,,,,,,,,,,,,,,,,,,,,,,,,,,,
,,"[""period""]",0,[0.2504000000059676],5,0,5,0,1,5d0e74d6c26b9e001a6b9def,25,Mężczyzna,2022-06-04_08h34.05.775,task,2021.1.4,Win32,59.9880024,628b806c463b948bc644b84f,629afccdd26e5bad43830c9e,,,,,,,,,,,,,,,,,,,,,,,,,,,,,,,,,,,,,,,,,,,,,,,,,,,,,,,,,,,,,,,,,,,,,,,,,,,,,,,,,,,,,,,,,,,,,,,,,,,,,,,
,,"[""comma""]",0,[0.16740000000596922],6,0,6,0,1,5d0e74d6c26b9e001a6b9def,25,Mężczyzna,2022-06-04_08h34.05.775,task,2021.1.4,Win32,59.9880024,628b806c463b948bc644b84f,629afccdd26e5bad43830c9e,,,,,,,,,,,,,,,,,,,,,,,,,,,,,,,,,,,,,,,,,,,,,,,,,,,,,,,,,,,,,,,,,,,,,,,,,,,,,,,,,,,,,,,,,,,,,,,,,,,,,,,
,,"[""period""]",0,[0.2690999999940402],7,0,7,0,1,5d0e74d6c26b9e001a6b9def,25,Mężczyzna,2022-06-04_08h34.05.775,task,2021.1.4,Win32,59.9880024,628b806c463b948bc644b84f,629afccdd26e5bad43830c9e,,,,,,,,,,,,,,,,,,,,,,,,,,,,,,,,,,,,,,,,,,,,,,,,,,,,,,,,,,,,,,,,,,,,,,,,,,,,,,,,,,,,,,,,,,,,,,,,,,,,,,,
,,"[""period""]",0,[0.5171999999880796],8,0,8,0,1,5d0e74d6c26b9e001a6b9def,25,Mężczyzna,2022-06-04_08h34.05.775,task,2021.1.4,Win32,59.9880024,628b806c463b948bc644b84f,629afccdd26e5bad43830c9e,,,,,,,,,,,,,,,,,,,,,,,,,,,,,,,,,,,,,,,,,,,,,,,,,,,,,,,,,,,,,,,,,,,,,,,,,,,,,,,,,,,,,,,,,,,,,,,,,,,,,,,
,,"[""period""]",0,[0.34109999999402874],9,0,9,0,1,5d0e74d6c26b9e001a6b9def,25,Mężczyzna,2022-06-04_08h34.05.775,task,2021.1.4,Win32,59.9880024,628b806c463b948bc644b84f,629afccdd26e5bad43830c9e,,,,,,,,,,,,,,,,,,,,,,,,,,,,,,,,,,,,,,,,,,,,,,,,,,,,,,,,,,,,,,,,,,,,,,,,,,,,,,,,,,,,,,,,,,,,,,,,,,,,,,,
,,"[""period""]",0,[0.23380000001192514],10,0,10,0,1,5d0e74d6c26b9e001a6b9def,25,Mężczyzna,2022-06-04_08h34.05.775,task,2021.1.4,Win32,59.9880024,628b806c463b948bc644b84f,629afccdd26e5bad43830c9e,,,,,,,,,,,,,,,,,,,,,,,,,,,,,,,,,,,,,,,,,,,,,,,,,,,,,,,,,,,,,,,,,,,,,,,,,,,,,,,,,,,,,,,,,,,,,,,,,,,,,,,
,,"[""comma""]",0,[0.2834999999999894],11,0,11,0,1,5d0e74d6c26b9e001a6b9def,25,Mężczyzna,2022-06-04_08h34.05.775,task,2021.1.4,Win32,59.9880024,628b806c463b948bc644b84f,629afccdd26e5bad43830c9e,,,,,,,,,,,,,,,,,,,,,,,,,,,,,,,,,,,,,,,,,,,,,,,,,,,,,,,,,,,,,,,,,,,,,,,,,,,,,,,,,,,,,,,,,,,,,,,,,,,,,,,
,,"[""period""]",0,[0.03720000001787582],12,0,12,0,1,5d0e74d6c26b9e001a6b9def,25,Mężczyzna,2022-06-04_08h34.05.775,task,2021.1.4,Win32,59.9880024,628b806c463b948bc644b84f,629afccdd26e5bad43830c9e,,,,,,,,,,,,,,,,,,,,,,,,,,,,,,,,,,,,,,,,,,,,,,,,,,,,,,,,,,,,,,,,,,,,,,,,,,,,,,,,,,,,,,,,,,,,,,,,,,,,,,,
,,"[""period""]",0,[0.3000999999940319],13,0,13,0,1,5d0e74d6c26b9e001a6b9def,25,Mężczyzna,2022-06-04_08h34.05.775,task,2021.1.4,Win32,59.9880024,628b806c463b948bc644b84f,629afccdd26e5bad43830c9e,,,,,,,,,,,,,,,,,,,,,,,,,,,,,,,,,,,,,,,,,,,,,,,,,,,,,,,,,,,,,,,,,,,,,,,,,,,,,,,,,,,,,,,,,,,,,,,,,,,,,,,
,,"[""period""]",0,[0.3013000000119206],14,0,14,0,1,5d0e74d6c26b9e001a6b9def,25,Mężczyzna,2022-06-04_08h34.05.775,task,2021.1.4,Win32,59.9880024,628b806c463b948bc644b84f,629afccdd26e5bad43830c9e,,,,,,,,,,,,,,,,,,,,,,,,,,,,,,,,,,,,,,,,,,,,,,,,,,,,,,,,,,,,,,,,,,,,,,,,,,,,,,,,,,,,,,,,,,,,,,,,,,,,,,,
,,"[""period""]",0,[0.28369999998807316],15,0,15,0,1,5d0e74d6c26b9e001a6b9def,25,Mężczyzna,2022-06-04_08h34.05.775,task,2021.1.4,Win32,59.9880024,628b806c463b948bc644b84f,629afccdd26e5bad43830c9e,,,,,,,,,,,,,,,,,,,,,,,,,,,,,,,,,,,,,,,,,,,,,,,,,,,,,,,,,,,,,,,,,,,,,,,,,,,,,,,,,,,,,,,,,,,,,,,,,,,,,,,
,,"[""comma""]",0,[0.2694000000059589],16,0,16,0,1,5d0e74d6c26b9e001a6b9def,25,Mężczyzna,2022-06-04_08h34.05.775,task,2021.1.4,Win32,59.9880024,628b806c463b948bc644b84f,629afccdd26e5bad43830c9e,,,,,,,,,,,,,,,,,,,,,,,,,,,,,,,,,,,,,,,,,,,,,,,,,,,,,,,,,,,,,,,,,,,,,,,,,,,,,,,,,,,,,,,,,,,,,,,,,,,,,,,
,,"[""period""]",0,[0.285499999999999],17,0,17,0,1,5d0e74d6c26b9e001a6b9def,25,Mężczyzna,2022-06-04_08h34.05.775,task,2021.1.4,Win32,59.9880024,628b806c463b948bc644b84f,629afccdd26e5bad43830c9e,,,,,,,,,,,,,,,,,,,,,,,,,,,,,,,,,,,,,,,,,,,,,,,,,,,,,,,,,,,,,,,,,,,,,,,,,,,,,,,,,,,,,,,,,,,,,,,,,,,,,,,
,,"[""period""]",0,[0.3174000000059607],18,0,18,0,1,5d0e74d6c26b9e001a6b9def,25,Mężczyzna,2022-06-04_08h34.05.775,task,2021.1.4,Win32,59.9880024,628b806c463b948bc644b84f,629afccdd26e5bad43830c9e,,,,,,,,,,,,,,,,,,,,,,,,,,,,,,,,,,,,,,,,,,,,,,,,,,,,,,,,,,,,,,,,,,,,,,,,,,,,,,,,,,,,,,,,,,,,,,,,,,,,,,,
,,"[""period""]",0,[0.36719999998807396],19,0,19,0,1,5d0e74d6c26b9e001a6b9def,25,Mężczyzna,2022-06-04_08h34.05.775,task,2021.1.4,Win32,59.9880024,628b806c463b948bc644b84f,629afccdd26e5bad43830c9e,,,,,,,,,,,,,,,,,,,,,,,,,,,,,,,,,,,,,,,,,,,,,,,,,,,,,,,,,,,,,,,,,,,,,,,,,,,,,,,,,,,,,,,,,,,,,,,,,,,,,,,
,,"[""comma""]",0,[0.40540000000596876],20,0,20,0,1,5d0e74d6c26b9e001a6b9def,25,Mężczyzna,2022-06-04_08h34.05.775,task,2021.1.4,Win32,59.9880024,628b806c463b948bc644b84f,629afccdd26e5bad43830c9e,,,,,,,,,,,,,,,,,,,,,,,,,,,,,,,,,,,,,,,,,,,,,,,,,,,,,,,,,,,,,,,,,,,,,,,,,,,,,,,,,,,,,,,,,,,,,,,,,,,,,,,
,,"[""comma""]",0,[0.3575000000000017],21,0,21,0,1,5d0e74d6c26b9e001a6b9def,25,Mężczyzna,2022-06-04_08h34.05.775,task,2021.1.4,Win32,59.9880024,628b806c463b948bc644b84f,629afccdd26e5bad43830c9e,,,,,,,,,,,,,,,,,,,,,,,,,,,,,,,,,,,,,,,,,,,,,,,,,,,,,,,,,,,,,,,,,,,,,,,,,,,,,,,,,,,,,,,,,,,,,,,,,,,,,,,
,,"[""period""]",0,[0.34170000001788026],22,0,22,0,1,5d0e74d6c26b9e001a6b9def,25,Mężczyzna,2022-06-04_08h34.05.775,task,2021.1.4,Win32,59.9880024,628b806c463b948bc644b84f,629afccdd26e5bad43830c9e,,,,,,,,,,,,,,,,,,,,,,,,,,,,,,,,,,,,,,,,,,,,,,,,,,,,,,,,,,,,,,,,,,,,,,,,,,,,,,,,,,,,,,,,,,,,,,,,,,,,,,,
,,"[""period""]",0,[0.20570000001788458],23,0,23,0,1,5d0e74d6c26b9e001a6b9def,25,Mężczyzna,2022-06-04_08h34.05.775,task,2021.1.4,Win32,59.9880024,628b806c463b948bc644b84f,629afccdd26e5bad43830c9e,,,,,,,,,,,,,,,,,,,,,,,,,,,,,,,,,,,,,,,,,,,,,,,,,,,,,,,,,,,,,,,,,,,,,,,,,,,,,,,,,,,,,,,,,,,,,,,,,,,,,,,
,,"[""period""]",0,[0.05349999999999966],24,0,24,0,1,5d0e74d6c26b9e001a6b9def,25,Mężczyzna,2022-06-04_08h34.05.775,task,2021.1.4,Win32,59.9880024,628b806c463b948bc644b84f,629afccdd26e5bad43830c9e,,,,,,,,,,,,,,,,,,,,,,,,,,,,,,,,,,,,,,,,,,,,,,,,,,,,,,,,,,,,,,,,,,,,,,,,,,,,,,,,,,,,,,,,,,,,,,,,,,,,,,,
,,"[""comma""]",0,[0.3003000000119158],25,0,25,0,1,5d0e74d6c26b9e001a6b9def,25,Mężczyzna,2022-06-04_08h34.05.775,task,2021.1.4,Win32,59.9880024,628b806c463b948bc644b84f,629afccdd26e5bad43830c9e,,,,,,,,,,,,,,,,,,,,,,,,,,,,,,,,,,,,,,,,,,,,,,,,,,,,,,,,,,,,,,,,,,,,,,,,,,,,,,,,,,,,,,,,,,,,,,,,,,,,,,,
,,"[""comma""]",0,[0.2535000000000025],26,0,26,0,1,5d0e74d6c26b9e001a6b9def,25,Mężczyzna,2022-06-04_08h34.05.775,task,2021.1.4,Win32,59.9880024,628b806c463b948bc644b84f,629afccdd26e5bad43830c9e,,,,,,,,,,,,,,,,,,,,,,,,,,,,,,,,,,,,,,,,,,,,,,,,,,,,,,,,,,,,,,,,,,,,,,,,,,,,,,,,,,,,,,,,,,,,,,,,,,,,,,,
,,"[""comma""]",0,[0.6059000000059598],27,0,27,0,1,5d0e74d6c26b9e001a6b9def,25,Mężczyzna,2022-06-04_08h34.05.775,task,2021.1.4,Win32,59.9880024,628b806c463b948bc644b84f,629afccdd26e5bad43830c9e,,,,,,,,,,,,,,,,,,,,,,,,,,,,,,,,,,,,,,,,,,,,,,,,,,,,,,,,,,,,,,,,,,,,,,,,,,,,,,,,,,,,,,,,,,,,,,,,,,,,,,,
,,"[""comma""]",0,[0.6376999999880866],28,0,28,0,1,5d0e74d6c26b9e001a6b9def,25,Mężczyzna,2022-06-04_08h34.05.775,task,2021.1.4,Win32,59.9880024,628b806c463b948bc644b84f,629afccdd26e5bad43830c9e,,,,,,,,,,,,,,,,,,,,,,,,,,,,,,,,,,,,,,,,,,,,,,,,,,,,,,,,,,,,,,,,,,,,,,,,,,,,,,,,,,,,,,,,,,,,,,,,,,,,,,,
,,"[""period""]",0,[0.4836999999880902],29,0,29,0,1,5d0e74d6c26b9e001a6b9def,25,Mężczyzna,2022-06-04_08h34.05.775,task,2021.1.4,Win32,59.9880024,628b806c463b948bc644b84f,629afccdd26e5bad43830c9e,,,,,,,,,,,,,,,,,,,,,,,,,,,,,,,,,,,,,,,,,,,,,,,,,,,,,,,,,,,,,,,,,,,,,,,,,,,,,,,,,,,,,,,,,,,,,,,,,,,,,,,
,,"[""comma""]",0,[0.533900000005957],30,0,30,0,1,5d0e74d6c26b9e001a6b9def,25,Mężczyzna,2022-06-04_08h34.05.775,task,2021.1.4,Win32,59.9880024,628b806c463b948bc644b84f,629afccdd26e5bad43830c9e,,,,,,,,,,,,,,,,,,,,,,,,,,,,,,,,,,,,,,,,,,,,,,,,,,,,,,,,,,,,,,,,,,,,,,,,,,,,,,,,,,,,,,,,,,,,,,,,,,,,,,,
,,"[""comma""]",0,[0.5272999999821195],31,0,31,0,1,5d0e74d6c26b9e001a6b9def,25,Mężczyzna,2022-06-04_08h34.05.775,task,2021.1.4,Win32,59.9880024,628b806c463b948bc644b84f,629afccdd26e5bad43830c9e,,,,,,,,,,,,,,,,,,,,,,,,,,,,,,,,,,,,,,,,,,,,,,,,,,,,,,,,,,,,,,,,,,,,,,,,,,,,,,,,,,,,,,,,,,,,,,,,,,,,,,,
,,"[""comma""]",0,[0.7340000000000089],32,0,32,0,1,5d0e74d6c26b9e001a6b9def,25,Mężczyzna,2022-06-04_08h34.05.775,task,2021.1.4,Win32,59.9880024,628b806c463b948bc644b84f,629afccdd26e5bad43830c9e,,,,,,,,,,,,,,,,,,,,,,,,,,,,,,,,,,,,,,,,,,,,,,,,,,,,,,,,,,,,,,,,,,,,,,,,,,,,,,,,,,,,,,,,,,,,,,,,,,,,,,,
,,"[""comma""]",0,[0.45040000000597047],33,0,33,0,1,5d0e74d6c26b9e001a6b9def,25,Mężczyzna,2022-06-04_08h34.05.775,task,2021.1.4,Win32,59.9880024,628b806c463b948bc644b84f,629afccdd26e5bad43830c9e,,,,,,,,,,,,,,,,,,,,,,,,,,,,,,,,,,,,,,,,,,,,,,,,,,,,,,,,,,,,,,,,,,,,,,,,,,,,,,,,,,,,,,,,,,,,,,,,,,,,,,,
,,"[""period""]",0,[0.6836999999880788],34,0,34,0,1,5d0e74d6c26b9e001a6b9def,25,Mężczyzna,2022-06-04_08h34.05.775,task,2021.1.4,Win32,59.9880024,628b806c463b948bc644b84f,629afccdd26e5bad43830c9e,,,,,,,,,,,,,,,,,,,,,,,,,,,,,,,,,,,,,,,,,,,,,,,,,,,,,,,,,,,,,,,,,,,,,,,,,,,,,,,,,,,,,,,,,,,,,,,,,,,,,,,
,,"[""period""]",0,[0.9545999999940591],35,0,35,0,1,5d0e74d6c26b9e001a6b9def,25,Mężczyzna,2022-06-04_08h34.05.775,task,2021.1.4,Win32,59.9880024,628b806c463b948bc644b84f,629afccdd26e5bad43830c9e,,,,,,,,,,,,,,,,,,,,,,,,,,,,,,,,,,,,,,,,,,,,,,,,,,,,,,,,,,,,,,,,,,,,,,,,,,,,,,,,,,,,,,,,,,,,,,,,,,,,,,,
,,"[""comma""]",0,[0.3957999999821311],36,0,36,0,1,5d0e74d6c26b9e001a6b9def,25,Mężczyzna,2022-06-04_08h34.05.775,task,2021.1.4,Win32,59.9880024,628b806c463b948bc644b84f,629afccdd26e5bad43830c9e,,,,,,,,,,,,,,,,,,,,,,,,,,,,,,,,,,,,,,,,,,,,,,,,,,,,,,,,,,,,,,,,,,,,,,,,,,,,,,,,,,,,,,,,,,,,,,,,,,,,,,,
,,"[""period""]",0,[0.307899999976172],37,0,37,0,1,5d0e74d6c26b9e001a6b9def,25,Mężczyzna,2022-06-04_08h34.05.775,task,2021.1.4,Win32,59.9880024,628b806c463b948bc644b84f,629afccdd26e5bad43830c9e,,,,,,,,,,,,,,,,,,,,,,,,,,,,,,,,,,,,,,,,,,,,,,,,,,,,,,,,,,,,,,,,,,,,,,,,,,,,,,,,,,,,,,,,,,,,,,,,,,,,,,,
,,"[""period""]",0,[0.3337000000178989],38,0,38,0,1,5d0e74d6c26b9e001a6b9def,25,Mężczyzna,2022-06-04_08h34.05.775,task,2021.1.4,Win32,59.9880024,628b806c463b948bc644b84f,629afccdd26e5bad43830c9e,,,,,,,,,,,,,,,,,,,,,,,,,,,,,,,,,,,,,,,,,,,,,,,,,,,,,,,,,,,,,,,,,,,,,,,,,,,,,,,,,,,,,,,,,,,,,,,,,,,,,,,
,,"[""comma""]",0,[0.31730000001192593],39,0,39,0,1,5d0e74d6c26b9e001a6b9def,25,Mężczyzna,2022-06-04_08h34.05.775,task,2021.1.4,Win32,59.9880024,628b806c463b948bc644b84f,629afccdd26e5bad43830c9e,,,,,,,,,,,,,,,,,,,,,,,,,,,,,,,,,,,,,,,,,,,,,,,,,,,,,,,,,,,,,,,,,,,,,,,,,,,,,,,,,,,,,,,,,,,,,,,,,,,,,,,
,,"[""period""]",0,[0.41709999999403635],40,0,40,0,1,5d0e74d6c26b9e001a6b9def,25,Mężczyzna,2022-06-04_08h34.05.775,task,2021.1.4,Win32,59.9880024,628b806c463b948bc644b84f,629afccdd26e5bad43830c9e,,,,,,,,,,,,,,,,,,,,,,,,,,,,,,,,,,,,,,,,,,,,,,,,,,,,,,,,,,,,,,,,,,,,,,,,,,,,,,,,,,,,,,,,,,,,,,,,,,,,,,,
,,"[""period""]",0,[0.30029999998211565],41,0,41,0,1,5d0e74d6c26b9e001a6b9def,25,Mężczyzna,2022-06-04_08h34.05.775,task,2021.1.4,Win32,59.9880024,628b806c463b948bc644b84f,629afccdd26e5bad43830c9e,,,,,,,,,,,,,,,,,,,,,,,,,,,,,,,,,,,,,,,,,,,,,,,,,,,,,,,,,,,,,,,,,,,,,,,,,,,,,,,,,,,,,,,,,,,,,,,,,,,,,,,
,,"[""comma""]",0,[0.3004000000059648],42,0,42,0,1,5d0e74d6c26b9e001a6b9def,25,Mężczyzna,2022-06-04_08h34.05.775,task,2021.1.4,Win32,59.9880024,628b806c463b948bc644b84f,629afccdd26e5bad43830c9e,,,,,,,,,,,,,,,,,,,,,,,,,,,,,,,,,,,,,,,,,,,,,,,,,,,,,,,,,,,,,,,,,,,,,,,,,,,,,,,,,,,,,,,,,,,,,,,,,,,,,,,
,,"[""comma""]",0,[0.28370000001788753],43,0,43,0,1,5d0e74d6c26b9e001a6b9def,25,Mężczyzna,2022-06-04_08h34.05.775,task,2021.1.4,Win32,59.9880024,628b806c463b948bc644b84f,629afccdd26e5bad43830c9e,,,,,,,,,,,,,,,,,,,,,,,,,,,,,,,,,,,,,,,,,,,,,,,,,,,,,,,,,,,,,,,,,,,,,,,,,,,,,,,,,,,,,,,,,,,,,,,,,,,,,,,
,,"[""comma""]",0,[0.4503000000119357],44,0,44,0,1,5d0e74d6c26b9e001a6b9def,25,Mężczyzna,2022-06-04_08h34.05.775,task,2021.1.4,Win32,59.9880024,628b806c463b948bc644b84f,629afccdd26e5bad43830c9e,,,,,,,,,,,,,,,,,,,,,,,,,,,,,,,,,,,,,,,,,,,,,,,,,,,,,,,,,,,,,,,,,,,,,,,,,,,,,,,,,,,,,,,,,,,,,,,,,,,,,,,
,,"[""period""]",0,[0.3836000000238471],45,0,45,0,1,5d0e74d6c26b9e001a6b9def,25,Mężczyzna,2022-06-04_08h34.05.775,task,2021.1.4,Win32,59.9880024,628b806c463b948bc644b84f,629afccdd26e5bad43830c9e,,,,,,,,,,,,,,,,,,,,,,,,,,,,,,,,,,,,,,,,,,,,,,,,,,,,,,,,,,,,,,,,,,,,,,,,,,,,,,,,,,,,,,,,,,,,,,,,,,,,,,,
,,"[""period""]",0,[0.23390000000594569],46,0,46,0,1,5d0e74d6c26b9e001a6b9def,25,Mężczyzna,2022-06-04_08h34.05.775,task,2021.1.4,Win32,59.9880024,628b806c463b948bc644b84f,629afccdd26e5bad43830c9e,,,,,,,,,,,,,,,,,,,,,,,,,,,,,,,,,,,,,,,,,,,,,,,,,,,,,,,,,,,,,,,,,,,,,,,,,,,,,,,,,,,,,,,,,,,,,,,,,,,,,,,
,,"[""period""]",0,[0.0004000000059534159],47,0,47,0,1,5d0e74d6c26b9e001a6b9def,25,Mężczyzna,2022-06-04_08h34.05.775,task,2021.1.4,Win32,59.9880024,628b806c463b948bc644b84f,629afccdd26e5bad43830c9e,,,,,,,,,,,,,,,,,,,,,,,,,,,,,,,,,,,,,,,,,,,,,,,,,,,,,,,,,,,,,,,,,,,,,,,,,,,,,,,,,,,,,,,,,,,,,,,,,,,,,,,
,,"[""period""]",0,[-0.009900000005956144],48,0,48,0,1,5d0e74d6c26b9e001a6b9def,25,Mężczyzna,2022-06-04_08h34.05.775,task,2021.1.4,Win32,59.9880024,628b806c463b948bc644b84f,629afccdd26e5bad43830c9e,,,,,,,,,,,,,,,,,,,,,,,,,,,,,,,,,,,,,,,,,,,,,,,,,,,,,,,,,,,,,,,,,,,,,,,,,,,,,,,,,,,,,,,,,,,,,,,,,,,,,,,
,,"[""period""]",0,[0.2336999999880902],49,0,49,0,1,5d0e74d6c26b9e001a6b9def,25,Mężczyzna,2022-06-04_08h34.05.775,task,2021.1.4,Win32,59.9880024,628b806c463b948bc644b84f,629afccdd26e5bad43830c9e,,,,,,,,,,,,,,,,,,,,,,,,,,,,,,,,,,,,,,,,,,,,,,,,,,,,,,,,,,,,,,,,,,,,,,,,,,,,,,,,,,,,,,,,,,,,,,,,,,,,,,,
,,"[""comma""]",0,[0.15819999998808498],50,0,50,0,1,5d0e74d6c26b9e001a6b9def,25,Mężczyzna,2022-06-04_08h34.05.775,task,2021.1.4,Win32,59.9880024,628b806c463b948bc644b84f,629afccdd26e5bad43830c9e,,,,,,,,,,,,,,,,,,,,,,,,,,,,,,,,,,,,,,,,,,,,,,,,,,,,,,,,,,,,,,,,,,,,,,,,,,,,,,,,,,,,,,,,,,,,,,,,,,,,,,,
,,"[""comma""]",0,[0.42219999998806657],51,0,51,0,1,5d0e74d6c26b9e001a6b9def,25,Mężczyzna,2022-06-04_08h34.05.775,task,2021.1.4,Win32,59.9880024,628b806c463b948bc644b84f,629afccdd26e5bad43830c9e,,,,,,,,,,,,,,,,,,,,,,,,,,,,,,,,,,,,,,,,,,,,,,,,,,,,,,,,,,,,,,,,,,,,,,,,,,,,,,,,,,,,,,,,,,,,,,,,,,,,,,,
,,"[""period""]",0,[0.3019999999999925],52,0,52,0,1,5d0e74d6c26b9e001a6b9def,25,Mężczyzna,2022-06-04_08h34.05.775,task,2021.1.4,Win32,59.9880024,628b806c463b948bc644b84f,629afccdd26e5bad43830c9e,,,,,,,,,,,,,,,,,,,,,,,,,,,,,,,,,,,,,,,,,,,,,,,,,,,,,,,,,,,,,,,,,,,,,,,,,,,,,,,,,,,,,,,,,,,,,,,,,,,,,,,
,,"[""comma""]",0,[0.33429999998210747],53,0,53,0,1,5d0e74d6c26b9e001a6b9def,25,Mężczyzna,2022-06-04_08h34.05.775,task,2021.1.4,Win32,59.9880024,628b806c463b948bc644b84f,629afccdd26e5bad43830c9e,,,,,,,,,,,,,,,,,,,,,,,,,,,,,,,,,,,,,,,,,,,,,,,,,,,,,,,,,,,,,,,,,,,,,,,,,,,,,,,,,,,,,,,,,,,,,,,,,,,,,,,
,,"[""comma""]",0,[0.2674999999999841],54,0,54,0,1,5d0e74d6c26b9e001a6b9def,25,Mężczyzna,2022-06-04_08h34.05.775,task,2021.1.4,Win32,59.9880024,628b806c463b948bc644b84f,629afccdd26e5bad43830c9e,,,,,,,,,,,,,,,,,,,,,,,,,,,,,,,,,,,,,,,,,,,,,,,,,,,,,,,,,,,,,,,,,,,,,,,,,,,,,,,,,,,,,,,,,,,,,,,,,,,,,,,
,,"[""comma""]",0,[0.28369999998807316],55,0,55,0,1,5d0e74d6c26b9e001a6b9def,25,Mężczyzna,2022-06-04_08h34.05.775,task,2021.1.4,Win32,59.9880024,628b806c463b948bc644b84f,629afccdd26e5bad43830c9e,,,,,,,,,,,,,,,,,,,,,,,,,,,,,,,,,,,,,,,,,,,,,,,,,,,,,,,,,,,,,,,,,,,,,,,,,,,,,,,,,,,,,,,,,,,,,,,,,,,,,,,
,,"[""comma""]",0,[0.30230000001191115],56,0,56,0,1,5d0e74d6c26b9e001a6b9def,25,Mężczyzna,2022-06-04_08h34.05.775,task,2021.1.4,Win32,59.9880024,628b806c463b948bc644b84f,629afccdd26e5bad43830c9e,,,,,,,,,,,,,,,,,,,,,,,,,,,,,,,,,,,,,,,,,,,,,,,,,,,,,,,,,,,,,,,,,,,,,,,,,,,,,,,,,,,,,,,,,,,,,,,,,,,,,,,
,,"[""period""]",0,[0.35830000001192275],57,0,57,0,1,5d0e74d6c26b9e001a6b9def,25,Mężczyzna,2022-06-04_08h34.05.775,task,2021.1.4,Win32,59.9880024,628b806c463b948bc644b84f,629afccdd26e5bad43830c9e,,,,,,,,,,,,,,,,,,,,,,,,,,,,,,,,,,,,,,,,,,,,,,,,,,,,,,,,,,,,,,,,,,,,,,,,,,,,,,,,,,,,,,,,,,,,,,,,,,,,,,,
,,"[""period""]",0,[0.9829000000059409],58,0,58,0,1,5d0e74d6c26b9e001a6b9def,25,Mężczyzna,2022-06-04_08h34.05.775,task,2021.1.4,Win32,59.9880024,628b806c463b948bc644b84f,629afccdd26e5bad43830c9e,,,,,,,,,,,,,,,,,,,,,,,,,,,,,,,,,,,,,,,,,,,,,,,,,,,,,,,,,,,,,,,,,,,,,,,,,,,,,,,,,,,,,,,,,,,,,,,,,,,,,,,
,,"[""comma""]",0,[0.5504999999999995],59,0,59,0,1,5d0e74d6c26b9e001a6b9def,25,Mężczyzna,2022-06-04_08h34.05.775,task,2021.1.4,Win32,59.9880024,628b806c463b948bc644b84f,629afccdd26e5bad43830c9e,,,,,,,,,,,,,,,,,,,,,,,,,,,,,,,,,,,,,,,,,,,,,,,,,,,,,,,,,,,,,,,,,,,,,,,,,,,,,,,,,,,,,,,,,,,,,,,,,,,,,,,
,,"[""comma""]",0,[0.2224999999999966],60,0,60,0,1,5d0e74d6c26b9e001a6b9def,25,Mężczyzna,2022-06-04_08h34.05.775,task,2021.1.4,Win32,59.9880024,628b806c463b948bc644b84f,629afccdd26e5bad43830c9e,,,,,,,,,,,,,,,,,,,,,,,,,,,,,,,,,,,,,,,,,,,,,,,,,,,,,,,,,,,,,,,,,,,,,,,,,,,,,,,,,,,,,,,,,,,,,,,,,,,,,,,
,,"[""comma""]",0,[1.1495999999940238],61,0,61,0,1,5d0e74d6c26b9e001a6b9def,25,Mężczyzna,2022-06-04_08h34.05.775,task,2021.1.4,Win32,59.9880024,628b806c463b948bc644b84f,629afccdd26e5bad43830c9e,,,,,,,,,,,,,,,,,,,,,,,,,,,,,,,,,,,,,,,,,,,,,,,,,,,,,,,,,,,,,,,,,,,,,,,,,,,,,,,,,,,,,,,,,,,,,,,,,,,,,,,
,,"[""period""]",0,[0.4504999999999768],62,0,62,0,1,5d0e74d6c26b9e001a6b9def,25,Mężczyzna,2022-06-04_08h34.05.775,task,2021.1.4,Win32,59.9880024,628b806c463b948bc644b84f,629afccdd26e5bad43830c9e,,,,,,,,,,,,,,,,,,,,,,,,,,,,,,,,,,,,,,,,,,,,,,,,,,,,,,,,,,,,,,,,,,,,,,,,,,,,,,,,,,,,,,,,,,,,,,,,,,,,,,,
,,"[""period""]",0,[0.7336999999880902],63,0,63,0,1,5d0e74d6c26b9e001a6b9def,25,Mężczyzna,2022-06-04_08h34.05.775,task,2021.1.4,Win32,59.9880024,628b806c463b948bc644b84f,629afccdd26e5bad43830c9e,,,,,,,,,,,,,,,,,,,,,,,,,,,,,,,,,,,,,,,,,,,,,,,,,,,,,,,,,,,,,,,,,,,,,,,,,,,,,,,,,,,,,,,,,,,,,,,,,,,,,,,
,,"[""period""]",0,[0.31709999999404204],64,0,64,0,1,5d0e74d6c26b9e001a6b9def,25,Mężczyzna,2022-06-04_08h34.05.775,task,2021.1.4,Win32,59.9880024,628b806c463b948bc644b84f,629afccdd26e5bad43830c9e,,,,,,,,,,,,,,,,,,,,,,,,,,,,,,,,,,,,,,,,,,,,,,,,,,,,,,,,,,,,,,,,,,,,,,,,,,,,,,,,,,,,,,,,,,,,,,,,,,,,,,,
,,"[""comma""]",0,[0.7745999999940523],65,0,65,0,1,5d0e74d6c26b9e001a6b9def,25,Mężczyzna,2022-06-04_08h34.05.775,task,2021.1.4,Win32,59.9880024,628b806c463b948bc644b84f,629afccdd26e5bad43830c9e,,,,,,,,,,,,,,,,,,,,,,,,,,,,,,,,,,,,,,,,,,,,,,,,,,,,,,,,,,,,,,,,,,,,,,,,,,,,,,,,,,,,,,,,,,,,,,,,,,,,,,,
,,"[""period""]",0,[0.8160999999940373],66,0,66,0,1,5d0e74d6c26b9e001a6b9def,25,Mężczyzna,2022-06-04_08h34.05.775,task,2021.1.4,Win32,59.9880024,628b806c463b948bc644b84f,629afccdd26e5bad43830c9e,,,,,,,,,,,,,,,,,,,,,,,,,,,,,,,,,,,,,,,,,,,,,,,,,,,,,,,,,,,,,,,,,,,,,,,,,,,,,,,,,,,,,,,,,,,,,,,,,,,,,,,
,,,0,,67,0,67,0,1,5d0e74d6c26b9e001a6b9def,25,Mężczyzna,2022-06-04_08h34.05.775,task,2021.1.4,Win32,59.9880024,628b806c463b948bc644b84f,629afccdd26e5bad43830c9e,,,,,,,,,,,,,,,,,,,,,,,,,,,,,,,,,,,,,,,,,,,,,,,,,,,,,,,,,,,,,,,,,,,,,,,,,,,,,,,,,,,,,,,,,,,,,,,,,,,,,,,
,,,0,,68,0,68,0,1,5d0e74d6c26b9e001a6b9def,25,Mężczyzna,2022-06-04_08h34.05.775,task,2021.1.4,Win32,59.9880024,628b806c463b948bc644b84f,629afccdd26e5bad43830c9e,,,,,,,,,,,,,,,,,,,,,,,,,,,,,,,,,,,,,,,,,,,,,,,,,,,,,,,,,,,,,,,,,,,,,,,,,,,,,,,,,,,,,,,,,,,,,,,,,,,,,,,
,,,0,,69,0,69,0,1,5d0e74d6c26b9e001a6b9def,25,Mężczyzna,2022-06-04_08h34.05.775,task,2021.1.4,Win32,59.9880024,628b806c463b948bc644b84f,629afccdd26e5bad43830c9e,,,,,,,,,,,,,,,,,,,,,,,,,,,,,,,,,,,,,,,,,,,,,,,,,,,,,,,,,,,,,,,,,,,,,,,,,,,,,,,,,,,,,,,,,,,,,,,,,,,,,,,
,,,0,,70,0,70,0,1,5d0e74d6c26b9e001a6b9def,25,Mężczyzna,2022-06-04_08h34.05.775,task,2021.1.4,Win32,59.9880024,628b806c463b948bc644b84f,629afccdd26e5bad43830c9e,,,,,,,,,,,,,,,,,,,,,,,,,,,,,,,,,,,,,,,,,,,,,,,,,,,,,,,,,,,,,,,,,,,,,,,,,,,,,,,,,,,,,,,,,,,,,,,,,,,,,,,
,,"[""period"",""period"",""period"",""comma""]",0,"[0.6705999999940389,1.1826999999881025,1.3504000000059762,1.8825000000000216]",71,0,71,0,1,5d0e74d6c26b9e001a6b9def,25,Mężczyzna,2022-06-04_08h34.05.775,task,2021.1.4,Win32,59.9880024,628b806c463b948bc644b84f,629afccdd26e5bad43830c9e,,,,,,,,,,,,,,,,,,,,,,,,,,,,,,,,,,,,,,,,,,,,,,,,,,,,,,,,,,,,,,,,,,,,,,,,,,,,,,,,,,,,,,,,,,,,,,,,,,,,,,,
,,"[""comma""]",0,[0.55030000001193],72,0,72,0,1,5d0e74d6c26b9e001a6b9def,25,Mężczyzna,2022-06-04_08h34.05.775,task,2021.1.4,Win32,59.9880024,628b806c463b948bc644b84f,629afccdd26e5bad43830c9e,,,,,,,,,,,,,,,,,,,,,,,,,,,,,,,,,,,,,,,,,,,,,,,,,,,,,,,,,,,,,,,,,,,,,,,,,,,,,,,,,,,,,,,,,,,,,,,,,,,,,,,
,,,0,,73,0,73,0,1,5d0e74d6c26b9e001a6b9def,25,Mężczyzna,2022-06-04_08h34.05.775,task,2021.1.4,Win32,59.9880024,628b806c463b948bc644b84f,629afccdd26e5bad43830c9e,,,,,,,,,,,,,,,,,,,,,,,,,,,,,,,,,,,,,,,,,,,,,,,,,,,,,,,,,,,,,,,,,,,,,,,,,,,,,,,,,,,,,,,,,,,,,,,,,,,,,,,
,,,0,,74,0,74,0,1,5d0e74d6c26b9e001a6b9def,25,Mężczyzna,2022-06-04_08h34.05.775,task,2021.1.4,Win32,59.9880024,628b806c463b948bc644b84f,629afccdd26e5bad43830c9e,,,,,,,,,,,,,,,,,,,,,,,,,,,,,,,,,,,,,,,,,,,,,,,,,,,,,,,,,,,,,,,,,,,,,,,,,,,,,,,,,,,,,,,,,,,,,,,,,,,,,,,
,,"[""period"",""period""]",0,"[0.08359999999402135,1.2494999999999834]",75,0,75,0,1,5d0e74d6c26b9e001a6b9def,25,Mężczyzna,2022-06-04_08h34.05.775,task,2021.1.4,Win32,59.9880024,628b806c463b948bc644b84f,629afccdd26e5bad43830c9e,,,,,,,,,,,,,,,,,,,,,,,,,,,,,,,,,,,,,,,,,,,,,,,,,,,,,,,,,,,,,,,,,,,,,,,,,,,,,,,,,,,,,,,,,,,,,,,,,,,,,,,
,,"[""comma"",""comma""]",0,"[-0.009500000000002728,0.918899999976162]",76,0,76,0,1,5d0e74d6c26b9e001a6b9def,25,Mężczyzna,2022-06-04_08h34.05.775,task,2021.1.4,Win32,59.9880024,628b806c463b948bc644b84f,629afccdd26e5bad43830c9e,,,,,,,,,,,,,,,,,,,,,,,,,,,,,,,,,,,,,,,,,,,,,,,,,,,,,,,,,,,,,,,,,,,,,,,,,,,,,,,,,,,,,,,,,,,,,,,,,,,,,,,
,,"[""comma"",""period""]",0,"[0.20650000000000546,1.316199999988072]",77,0,77,0,1,5d0e74d6c26b9e001a6b9def,25,Mężczyzna,2022-06-04_08h34.05.775,task,2021.1.4,Win32,59.9880024,628b806c463b948bc644b84f,629afccdd26e5bad43830c9e,,,,,,,,,,,,,,,,,,,,,,,,,,,,,,,,,,,,,,,,,,,,,,,,,,,,,,,,,,,,,,,,,,,,,,,,,,,,,,,,,,,,,,,,,,,,,,,,,,,,,,,
,,"[""period""]",0,[0.27060000002384754],78,0,78,0,1,5d0e74d6c26b9e001a6b9def,25,Mężczyzna,2022-06-04_08h34.05.775,task,2021.1.4,Win32,59.9880024,628b806c463b948bc644b84f,629afccdd26e5bad43830c9e,,,,,,,,,,,,,,,,,,,,,,,,,,,,,,,,,,,,,,,,,,,,,,,,,,,,,,,,,,,,,,,,,,,,,,,,,,,,,,,,,,,,,,,,,,,,,,,,,,,,,,,
,,"[""period""]",0,[0.2545000000000073],79,0,79,0,1,5d0e74d6c26b9e001a6b9def,25,Mężczyzna,2022-06-04_08h34.05.775,task,2021.1.4,Win32,59.9880024,628b806c463b948bc644b84f,629afccdd26e5bad43830c9e,,,,,,,,,,,,,,,,,,,,,,,,,,,,,,,,,,,,,,,,,,,,,,,,,,,,,,,,,,,,,,,,,,,,,,,,,,,,,,,,,,,,,,,,,,,,,,,,,,,,,,,
,,"[""comma""]",0,[0.30009999999404613],80,0,80,0,1,5d0e74d6c26b9e001a6b9def,25,Mężczyzna,2022-06-04_08h34.05.775,task,2021.1.4,Win32,59.9880024,628b806c463b948bc644b84f,629afccdd26e5bad43830c9e,,,,,,,,,,,,,,,,,,,,,,,,,,,,,,,,,,,,,,,,,,,,,,,,,,,,,,,,,,,,,,,,,,,,,,,,,,,,,,,,,,,,,,,,,,,,,,,,,,,,,,,
,,"[""period""]",0,[0.28350000000000364],81,0,81,0,1,5d0e74d6c26b9e001a6b9def,25,Mężczyzna,2022-06-04_08h34.05.775,task,2021.1.4,Win32,59.9880024,628b806c463b948bc644b84f,629afccdd26e5bad43830c9e,,,,,,,,,,,,,,,,,,,,,,,,,,,,,,,,,,,,,,,,,,,,,,,,,,,,,,,,,,,,,,,,,,,,,,,,,,,,,,,,,,,,,,,,,,,,,,,,,,,,,,,
,,"[""period""]",0,[0.3015000000000043],82,0,82,0,1,5d0e74d6c26b9e001a6b9def,25,Mężczyzna,2022-06-04_08h34.05.775,task,2021.1.4,Win32,59.9880024,628b806c463b948bc644b84f,629afccdd26e5bad43830c9e,,,,,,,,,,,,,,,,,,,,,,,,,,,,,,,,,,,,,,,,,,,,,,,,,,,,,,,,,,,,,,,,,,,,,,,,,,,,,,,,,,,,,,,,,,,,,,,,,,,,,,,
,,"[""period""]",0,[0.5886000000238596],83,0,83,0,1,5d0e74d6c26b9e001a6b9def,25,Mężczyzna,2022-06-04_08h34.05.775,task,2021.1.4,Win32,59.9880024,628b806c463b948bc644b84f,629afccdd26e5bad43830c9e,,,,,,,,,,,,,,,,,,,,,,,,,,,,,,,,,,,,,,,,,,,,,,,,,,,,,,,,,,,,,,,,,,,,,,,,,,,,,,,,,,,,,,,,,,,,,,,,,,,,,,,
,,"[""period""]",0,[0.5404000000059739],84,0,84,0,1,5d0e74d6c26b9e001a6b9def,25,Mężczyzna,2022-06-04_08h34.05.775,task,2021.1.4,Win32,59.9880024,628b806c463b948bc644b84f,629afccdd26e5bad43830c9e,,,,,,,,,,,,,,,,,,,,,,,,,,,,,,,,,,,,,,,,,,,,,,,,,,,,,,,,,,,,,,,,,,,,,,,,,,,,,,,,,,,,,,,,,,,,,,,,,,,,,,,
,,"[""comma""]",0,[0.47640000000598093],85,0,85,0,1,5d0e74d6c26b9e001a6b9def,25,Mężczyzna,2022-06-04_08h34.05.775,task,2021.1.4,Win32,59.9880024,628b806c463b948bc644b84f,629afccdd26e5bad43830c9e,,,,,,,,,,,,,,,,,,,,,,,,,,,,,,,,,,,,,,,,,,,,,,,,,,,,,,,,,,,,,,,,,,,,,,,,,,,,,,,,,,,,,,,,,,,,,,,,,,,,,,,
,,"[""comma"",""period""]",0,"[0.26950000000002206,1.4695000000000107]",86,0,86,0,1,5d0e74d6c26b9e001a6b9def,25,Mężczyzna,2022-06-04_08h34.05.775,task,2021.1.4,Win32,59.9880024,628b806c463b948bc644b84f,629afccdd26e5bad43830c9e,,,,,,,,,,,,,,,,,,,,,,,,,,,,,,,,,,,,,,,,,,,,,,,,,,,,,,,,,,,,,,,,,,,,,,,,,,,,,,,,,,,,,,,,,,,,,,,,,,,,,,,
,,,0,,87,0,87,0,1,5d0e74d6c26b9e001a6b9def,25,Mężczyzna,2022-06-04_08h34.05.775,task,2021.1.4,Win32,59.9880024,628b806c463b948bc644b84f,629afccdd26e5bad43830c9e,,,,,,,,,,,,,,,,,,,,,,,,,,,,,,,,,,,,,,,,,,,,,,,,,,,,,,,,,,,,,,,,,,,,,,,,,,,,,,,,,,,,,,,,,,,,,,,,,,,,,,,
,,"[""period""]",0,[0.4936000000238323],88,0,88,0,1,5d0e74d6c26b9e001a6b9def,25,Mężczyzna,2022-06-04_08h34.05.775,task,2021.1.4,Win32,59.9880024,628b806c463b948bc644b84f,629afccdd26e5bad43830c9e,,,,,,,,,,,,,,,,,,,,,,,,,,,,,,,,,,,,,,,,,,,,,,,,,,,,,,,,,,,,,,,,,,,,,,,,,,,,,,,,,,,,,,,,,,,,,,,,,,,,,,,
,,,0,,89,0,89,0,1,5d0e74d6c26b9e001a6b9def,25,Mężczyzna,2022-06-04_08h34.05.775,task,2021.1.4,Win32,59.9880024,628b806c463b948bc644b84f,629afccdd26e5bad43830c9e,,,,,,,,,,,,,,,,,,,,,,,,,,,,,,,,,,,,,,,,,,,,,,,,,,,,,,,,,,,,,,,,,,,,,,,,,,,,,,,,,,,,,,,,,,,,,,,,,,,,,,,
,,"[""period"",""period""]",0,"[0.22919999998808294,1.3890999999940448]",90,0,90,0,1,5d0e74d6c26b9e001a6b9def,25,Mężczyzna,2022-06-04_08h34.05.775,task,2021.1.4,Win32,59.9880024,628b806c463b948bc644b84f,629afccdd26e5bad43830c9e,,,,,,,,,,,,,,,,,,,,,,,,,,,,,,,,,,,,,,,,,,,,,,,,,,,,,,,,,,,,,,,,,,,,,,,,,,,,,,,,,,,,,,,,,,,,,,,,,,,,,,,
,,"[""comma""]",0,[0.7514000000059582],91,0,91,0,1,5d0e74d6c26b9e001a6b9def,25,Mężczyzna,2022-06-04_08h34.05.775,task,2021.1.4,Win32,59.9880024,628b806c463b948bc644b84f,629afccdd26e5bad43830c9e,,,,,,,,,,,,,,,,,,,,,,,,,,,,,,,,,,,,,,,,,,,,,,,,,,,,,,,,,,,,,,,,,,,,,,,,,,,,,,,,,,,,,,,,,,,,,,,,,,,,,,,
,,"[""comma""]",0,[0.27650000000002706],92,0,92,0,1,5d0e74d6c26b9e001a6b9def,25,Mężczyzna,2022-06-04_08h34.05.775,task,2021.1.4,Win32,59.9880024,628b806c463b948bc644b84f,629afccdd26e5bad43830c9e,,,,,,,,,,,,,,,,,,,,,,,,,,,,,,,,,,,,,,,,,,,,,,,,,,,,,,,,,,,,,,,,,,,,,,,,,,,,,,,,,,,,,,,,,,,,,,,,,,,,,,,
,,"[""comma"",""period""]",0,"[0.3978999999761754,1.351199999988097]",93,0,93,0,1,5d0e74d6c26b9e001a6b9def,25,Mężczyzna,2022-06-04_08h34.05.775,task,2021.1.4,Win32,59.9880024,628b806c463b948bc644b84f,629afccdd26e5bad43830c9e,,,,,,,,,,,,,,,,,,,,,,,,,,,,,,,,,,,,,,,,,,,,,,,,,,,,,,,,,,,,,,,,,,,,,,,,,,,,,,,,,,,,,,,,,,,,,,,,,,,,,,,
,,"[""period""]",0,[0.5217000000178587],94,0,94,0,1,5d0e74d6c26b9e001a6b9def,25,Mężczyzna,2022-06-04_08h34.05.775,task,2021.1.4,Win32,59.9880024,628b806c463b948bc644b84f,629afccdd26e5bad43830c9e,,,,,,,,,,,,,,,,,,,,,,,,,,,,,,,,,,,,,,,,,,,,,,,,,,,,,,,,,,,,,,,,,,,,,,,,,,,,,,,,,,,,,,,,,,,,,,,,,,,,,,,
,,,0,,95,0,95,0,1,5d0e74d6c26b9e001a6b9def,25,Mężczyzna,2022-06-04_08h34.05.775,task,2021.1.4,Win32,59.9880024,628b806c463b948bc644b84f,629afccdd26e5bad43830c9e,,,,,,,,,,,,,,,,,,,,,,,,,,,,,,,,,,,,,,,,,,,,,,,,,,,,,,,,,,,,,,,,,,,,,,,,,,,,,,,,,,,,,,,,,,,,,,,,,,,,,,,
,,"[""period""]",0,[1.7647999999821309],96,0,96,0,1,5d0e74d6c26b9e001a6b9def,25,Mężczyzna,2022-06-04_08h34.05.775,task,2021.1.4,Win32,59.9880024,628b806c463b948bc644b84f,629afccdd26e5bad43830c9e,,,,,,,,,,,,,,,,,,,,,,,,,,,,,,,,,,,,,,,,,,,,,,,,,,,,,,,,,,,,,,,,,,,,,,,,,,,,,,,,,,,,,,,,,,,,,,,,,,,,,,,
,,"[""period""]",0,[0.5035999999940373],97,0,97,0,1,5d0e74d6c26b9e001a6b9def,25,Mężczyzna,2022-06-04_08h34.05.775,task,2021.1.4,Win32,59.9880024,628b806c463b948bc644b84f,629afccdd26e5bad43830c9e,,,,,,,,,,,,,,,,,,,,,,,,,,,,,,,,,,,,,,,,,,,,,,,,,,,,,,,,,,,,,,,,,,,,,,,,,,,,,,,,,,,,,,,,,,,,,,,,,,,,,,,
,,"[""comma""]",0,[0.367999999999995],98,0,98,0,1,5d0e74d6c26b9e001a6b9def,25,Mężczyzna,2022-06-04_08h34.05.775,task,2021.1.4,Win32,59.9880024,628b806c463b948bc644b84f,629afccdd26e5bad43830c9e,,,,,,,,,,,,,,,,,,,,,,,,,,,,,,,,,,,,,,,,,,,,,,,,,,,,,,,,,,,,,,,,,,,,,,,,,,,,,,,,,,,,,,,,,,,,,,,,,,,,,,,
,,"[""period""]",0,[0.5038000000119496],99,0,99,0,1,5d0e74d6c26b9e001a6b9def,25,Mężczyzna,2022-06-04_08h34.05.775,task,2021.1.4,Win32,59.9880024,628b806c463b948bc644b84f,629afccdd26e5bad43830c9e,,,,,,,,,,,,,,,,,,,,,,,,,,,,,,,,,,,,,,,,,,,,,,,,,,,,,,,,,,,,,,,,,,,,,,,,,,,,,,,,,,,,,,,,,,,,,,,,,,,,,,,
,,"[""period""]",0,[0.6375999999940518],100,0,100,0,1,5d0e74d6c26b9e001a6b9def,25,Mężczyzna,2022-06-04_08h34.05.775,task,2021.1.4,Win32,59.9880024,628b806c463b948bc644b84f,629afccdd26e5bad43830c9e,,,,,,,,,,,,,,,,,,,,,,,,,,,,,,,,,,,,,,,,,,,,,,,,,,,,,,,,,,,,,,,,,,,,,,,,,,,,,,,,,,,,,,,,,,,,,,,,,,,,,,,
,,"[""period""]",0,[0.6140000000000327],101,0,101,0,1,5d0e74d6c26b9e001a6b9def,25,Mężczyzna,2022-06-04_08h34.05.775,task,2021.1.4,Win32,59.9880024,628b806c463b948bc644b84f,629afccdd26e5bad43830c9e,,,,,,,,,,,,,,,,,,,,,,,,,,,,,,,,,,,,,,,,,,,,,,,,,,,,,,,,,,,,,,,,,,,,,,,,,,,,,,,,,,,,,,,,,,,,,,,,,,,,,,,
,,"[""comma""]",0,[0.5639999999999645],102,0,102,0,1,5d0e74d6c26b9e001a6b9def,25,Mężczyzna,2022-06-04_08h34.05.775,task,2021.1.4,Win32,59.9880024,628b806c463b948bc644b84f,629afccdd26e5bad43830c9e,,,,,,,,,,,,,,,,,,,,,,,,,,,,,,,,,,,,,,,,,,,,,,,,,,,,,,,,,,,,,,,,,,,,,,,,,,,,,,,,,,,,,,,,,,,,,,,,,,,,,,,
,,"[""period""]",0,[0.2880000000000109],103,0,103,0,1,5d0e74d6c26b9e001a6b9def,25,Mężczyzna,2022-06-04_08h34.05.775,task,2021.1.4,Win32,59.9880024,628b806c463b948bc644b84f,629afccdd26e5bad43830c9e,,,,,,,,,,,,,,,,,,,,,,,,,,,,,,,,,,,,,,,,,,,,,,,,,,,,,,,,,,,,,,,,,,,,,,,,,,,,,,,,,,,,,,,,,,,,,,,,,,,,,,,
,,"[""period""]",0,[0.38390000000595137],104,0,104,0,1,5d0e74d6c26b9e001a6b9def,25,Mężczyzna,2022-06-04_08h34.05.775,task,2021.1.4,Win32,59.9880024,628b806c463b948bc644b84f,629afccdd26e5bad43830c9e,,,,,,,,,,,,,,,,,,,,,,,,,,,,,,,,,,,,,,,,,,,,,,,,,,,,,,,,,,,,,,,,,,,,,,,,,,,,,,,,,,,,,,,,,,,,,,,,,,,,,,,
,,,0,,105,0,105,0,1,5d0e74d6c26b9e001a6b9def,25,Mężczyzna,2022-06-04_08h34.05.775,task,2021.1.4,Win32,59.9880024,628b806c463b948bc644b84f,629afccdd26e5bad43830c9e,,,,,,,,,,,,,,,,,,,,,,,,,,,,,,,,,,,,,,,,,,,,,,,,,,,,,,,,,,,,,,,,,,,,,,,,,,,,,,,,,,,,,,,,,,,,,,,,,,,,,,,
,,,0,,106,0,106,0,1,5d0e74d6c26b9e001a6b9def,25,Mężczyzna,2022-06-04_08h34.05.775,task,2021.1.4,Win32,59.9880024,628b806c463b948bc644b84f,629afccdd26e5bad43830c9e,,,,,,,,,,,,,,,,,,,,,,,,,,,,,,,,,,,,,,,,,,,,,,,,,,,,,,,,,,,,,,,,,,,,,,,,,,,,,,,,,,,,,,,,,,,,,,,,,,,,,,,
,,,0,,107,0,107,0,1,5d0e74d6c26b9e001a6b9def,25,Mężczyzna,2022-06-04_08h34.05.775,task,2021.1.4,Win32,59.9880024,628b806c463b948bc644b84f,629afccdd26e5bad43830c9e,,,,,,,,,,,,,,,,,,,,,,,,,,,,,,,,,,,,,,,,,,,,,,,,,,,,,,,,,,,,,,,,,,,,,,,,,,,,,,,,,,,,,,,,,,,,,,,,,,,,,,,
,,,0,,108,0,108,0,1,5d0e74d6c26b9e001a6b9def,25,Mężczyzna,2022-06-04_08h34.05.775,task,2021.1.4,Win32,59.9880024,628b806c463b948bc644b84f,629afccdd26e5bad43830c9e,,,,,,,,,,,,,,,,,,,,,,,,,,,,,,,,,,,,,,,,,,,,,,,,,,,,,,,,,,,,,,,,,,,,,,,,,,,,,,,,,,,,,,,,,,,,,,,,,,,,,,,
,,"[""comma"",""comma"",""comma"",""period""]",0,"[0.54380000001197,0.7135000000000105,0.8930000000000291,1.2200999999940905]",109,0,109,0,1,5d0e74d6c26b9e001a6b9def,25,Mężczyzna,2022-06-04_08h34.05.775,task,2021.1.4,Win32,59.9880024,628b806c463b948bc644b84f,629afccdd26e5bad43830c9e,,,,,,,,,,,,,,,,,,,,,,,,,,,,,,,,,,,,,,,,,,,,,,,,,,,,,,,,,,,,,,,,,,,,,,,,,,,,,,,,,,,,,,,,,,,,,,,,,,,,,,,
,,"[""period""]",0,[0.6639000000059809],110,0,110,0,1,5d0e74d6c26b9e001a6b9def,25,Mężczyzna,2022-06-04_08h34.05.775,task,2021.1.4,Win32,59.9880024,628b806c463b948bc644b84f,629afccdd26e5bad43830c9e,,,,,,,,,,,,,,,,,,,,,,,,,,,,,,,,,,,,,,,,,,,,,,,,,,,,,,,,,,,,,,,,,,,,,,,,,,,,,,,,,,,,,,,,,,,,,,,,,,,,,,,
,,"[""comma""]",0,[0.2865999999939959],111,0,111,0,1,5d0e74d6c26b9e001a6b9def,25,Mężczyzna,2022-06-04_08h34.05.775,task,2021.1.4,Win32,59.9880024,628b806c463b948bc644b84f,629afccdd26e5bad43830c9e,,,,,,,,,,,,,,,,,,,,,,,,,,,,,,,,,,,,,,,,,,,,,,,,,,,,,,,,,,,,,,,,,,,,,,,,,,,,,,,,,,,,,,,,,,,,,,,,,,,,,,,
,,"[""period""]",0,[0.30069999998806907],112,0,112,0,1,5d0e74d6c26b9e001a6b9def,25,Mężczyzna,2022-06-04_08h34.05.775,task,2021.1.4,Win32,59.9880024,628b806c463b948bc644b84f,629afccdd26e5bad43830c9e,,,,,,,,,,,,,,,,,,,,,,,,,,,,,,,,,,,,,,,,,,,,,,,,,,,,,,,,,,,,,,,,,,,,,,,,,,,,,,,,,,,,,,,,,,,,,,,,,,,,,,,
,,"[""period""]",0,[0.36250000000001137],113,0,113,0,1,5d0e74d6c26b9e001a6b9def,25,Mężczyzna,2022-06-04_08h34.05.775,task,2021.1.4,Win32,59.9880024,628b806c463b948bc644b84f,629afccdd26e5bad43830c9e,,,,,,,,,,,,,,,,,,,,,,,,,,,,,,,,,,,,,,,,,,,,,,,,,,,,,,,,,,,,,,,,,,,,,,,,,,,,,,,,,,,,,,,,,,,,,,,,,,,,,,,
,,"[""comma""]",0,[0.25129999998210906],114,0,114,0,1,5d0e74d6c26b9e001a6b9def,25,Mężczyzna,2022-06-04_08h34.05.775,task,2021.1.4,Win32,59.9880024,628b806c463b948bc644b84f,629afccdd26e5bad43830c9e,,,,,,,,,,,,,,,,,,,,,,,,,,,,,,,,,,,,,,,,,,,,,,,,,,,,,,,,,,,,,,,,,,,,,,,,,,,,,,,,,,,,,,,,,,,,,,,,,,,,,,,
,,"[""comma""]",0,[0.23569999998812818],115,0,115,0,1,5d0e74d6c26b9e001a6b9def,25,Mężczyzna,2022-06-04_08h34.05.775,task,2021.1.4,Win32,59.9880024,628b806c463b948bc644b84f,629afccdd26e5bad43830c9e,,,,,,,,,,,,,,,,,,,,,,,,,,,,,,,,,,,,,,,,,,,,,,,,,,,,,,,,,,,,,,,,,,,,,,,,,,,,,,,,,,,,,,,,,,,,,,,,,,,,,,,
,,"[""period""]",0,[0.2625000000000455],116,0,116,0,1,5d0e74d6c26b9e001a6b9def,25,Mężczyzna,2022-06-04_08h34.05.775,task,2021.1.4,Win32,59.9880024,628b806c463b948bc644b84f,629afccdd26e5bad43830c9e,,,,,,,,,,,,,,,,,,,,,,,,,,,,,,,,,,,,,,,,,,,,,,,,,,,,,,,,,,,,,,,,,,,,,,,,,,,,,,,,,,,,,,,,,,,,,,,,,,,,,,,
,,"[""comma""]",0,[0.23709999999402953],117,0,117,0,1,5d0e74d6c26b9e001a6b9def,25,Mężczyzna,2022-06-04_08h34.05.775,task,2021.1.4,Win32,59.9880024,628b806c463b948bc644b84f,629afccdd26e5bad43830c9e,,,,,,,,,,,,,,,,,,,,,,,,,,,,,,,,,,,,,,,,,,,,,,,,,,,,,,,,,,,,,,,,,,,,,,,,,,,,,,,,,,,,,,,,,,,,,,,,,,,,,,,
,,"[""period""]",0,[0.2385999999940509],118,0,118,0,1,5d0e74d6c26b9e001a6b9def,25,Mężczyzna,2022-06-04_08h34.05.775,task,2021.1.4,Win32,59.9880024,628b806c463b948bc644b84f,629afccdd26e5bad43830c9e,,,,,,,,,,,,,,,,,,,,,,,,,,,,,,,,,,,,,,,,,,,,,,,,,,,,,,,,,,,,,,,,,,,,,,,,,,,,,,,,,,,,,,,,,,,,,,,,,,,,,,,
,,"[""period""]",0,[0.24109999999404863],119,0,119,0,1,5d0e74d6c26b9e001a6b9def,25,Mężczyzna,2022-06-04_08h34.05.775,task,2021.1.4,Win32,59.9880024,628b806c463b948bc644b84f,629afccdd26e5bad43830c9e,,,,,,,,,,,,,,,,,,,,,,,,,,,,,,,,,,,,,,,,,,,,,,,,,,,,,,,,,,,,,,,,,,,,,,,,,,,,,,,,,,,,,,,,,,,,,,,,,,,,,,,
,,,,,,,,,,5d0e74d6c26b9e001a6b9def,25,Mężczyzna,2022-06-04_08h34.05.775,task,2021.1.4,Win32,59.9880024,628b806c463b948bc644b84f,629afccdd26e5bad43830c9e,space,12.4568,space,24.0869,0,0,0,0,1,X V Q F H G B L J M P D K C T S W R N Z,,,,,,,,,,,,,,,,,,,,,,,,,,,,,,,,,,,,,,,,,,,,,,,,,,,,,,,,,,,,,,,,,,,,,,,,,,,,,,,,,,,,,,,,,,,,,
,,,,,,,,,,5d0e74d6c26b9e001a6b9def,25,Mężczyzna,2022-06-04_08h34.05.775,task,2021.1.4,Win32,59.9880024,628b806c463b948bc644b84f,629afccdd26e5bad43830c9e,,,,,1,0,1,0,1,X V Q F H G B L J M P D K C T S W R N Z,,,,,,,,,,,,,,,,,,,,,,,,,,,,,,,,,,,,,,,,,,,,,,,,,,,,,,,,,,,,,,,,,,,,,,,,,,,,,,,,,,,,,,,,,,,,,
,,,,,,,,,,5d0e74d6c26b9e001a6b9def,25,Mężczyzna,2022-06-04_08h34.05.775,task,2021.1.4,Win32,59.9880024,628b806c463b948bc644b84f,629afccdd26e5bad43830c9e,,,,,,,,,,,zp,"[""z"",""p""]","[1.4470000000000027,2.6090999999940436,3.494199999988041]",1,ZP,0,0,0,0,1,,,,,,,,,,,,,,,,,,,,,,,,,,,,,,,,,,,,,,,,,,,,,,,,,,,,,,,,,,,,,,,,,,,,,,,,,,,,,,,,,,,
,,,,,,,,,,5d0e74d6c26b9e001a6b9def,25,Mężczyzna,2022-06-04_08h34.05.775,task,2021.1.4,Win32,59.9880024,628b806c463b948bc644b84f,629afccdd26e5bad43830c9e,,,,,0,0,0,0,1,X V Q F H G B L J M P D K C T S W R N Z,,,,,,,,,,,,,,,,,,,,,,,,,,,,,,,,,,,,,,,,,,,,,,,,,,,,,,,,,,,,,,,,,,,,,,,,,,,,,,,,,,,,,,,,,,,,,
,,,,,,,,,,5d0e74d6c26b9e001a6b9def,25,Mężczyzna,2022-06-04_08h34.05.775,task,2021.1.4,Win32,59.9880024,628b806c463b948bc644b84f,629afccdd26e5bad43830c9e,,,,,1,0,1,0,1,X V Q F H G B L J M P D K C T S W R N Z,,,,,,,,,,,,,,,,,,,,,,,,,,,,,,,,,,,,,,,,,,,,,,,,,,,,,,,,,,,,,,,,,,,,,,,,,,,,,,,,,,,,,,,,,,,,,
,,,,,,,,,,5d0e74d6c26b9e001a6b9def,25,Mężczyzna,2022-06-04_08h34.05.775,task,2021.1.4,Win32,59.9880024,628b806c463b948bc644b84f,629afccdd26e5bad43830c9e,,,,,,,,,,,sd,"[""s"",""d""]","[0.9343000000119446,1.115800000011916,1.7507000000179005]",1,SD,1,0,1,0,1,,,,,,,,,,,,,,,,,,,,,,,,,,,,,,,,,,,,,,,,,,,,,,,,,,,,,,,,,,,,,,,,,,,,,,,,,,,,,,,,,,,
,,,,,,,,,,5d0e74d6c26b9e001a6b9def,25,Mężczyzna,2022-06-04_08h34.05.775,task,2021.1.4,Win32,59.9880024,628b806c463b948bc644b84f,629afccdd26e5bad43830c9e,,,,,0,0,0,0,1,X V Q F H G B L J M P D K C T S W R N Z,,,,,,,,,,,,,,,,,,,,,,,,,,,,,,,,,,,,,,,,,,,,,,,,,,,,,,,,,,,,,,,,,,,,,,,,,,,,,,,,,,,,,,,,,,,,,
,,,,,,,,,,5d0e74d6c26b9e001a6b9def,25,Mężczyzna,2022-06-04_08h34.05.775,task,2021.1.4,Win32,59.9880024,628b806c463b948bc644b84f,629afccdd26e5bad43830c9e,,,,,1,0,1,0,1,X V Q F H G B L J M P D K C T S W R N Z,,,,,,,,,,,,,,,,,,,,,,,,,,,,,,,,,,,,,,,,,,,,,,,,,,,,,,,,,,,,,,,,,,,,,,,,,,,,,,,,,,,,,,,,,,,,,
,,,,,,,,,,5d0e74d6c26b9e001a6b9def,25,Mężczyzna,2022-06-04_08h34.05.775,task,2021.1.4,Win32,59.9880024,628b806c463b948bc644b84f,629afccdd26e5bad43830c9e,,,,,2,0,2,0,1,X V Q F H G B L J M P D K C T S W R N Z,,,,,,,,,,,,,,,,,,,,,,,,,,,,,,,,,,,,,,,,,,,,,,,,,,,,,,,,,,,,,,,,,,,,,,,,,,,,,,,,,,,,,,,,,,,,,
,,,,,,,,,,5d0e74d6c26b9e001a6b9def,25,Mężczyzna,2022-06-04_08h34.05.775,task,2021.1.4,Win32,59.9880024,628b806c463b948bc644b84f,629afccdd26e5bad43830c9e,,,,,,,,,,,vgv,"[""v"",""g"",""v""]","[0.6476999999881059,0.8131999999880577,1.029299999982129,1.4839999999999804]",1,VGV,2,0,2,0,1,,,,,,,,,,,,,,,,,,,,,,,,,,,,,,,,,,,,,,,,,,,,,,,,,,,,,,,,,,,,,,,,,,,,,,,,,,,,,,,,,,,
,,,,,,,,,,5d0e74d6c26b9e001a6b9def,25,Mężczyzna,2022-06-04_08h34.05.775,task,2021.1.4,Win32,59.9880024,628b806c463b948bc644b84f,629afccdd26e5bad43830c9e,,,,,0,0,0,0,1,X V Q F H G B L J M P D K C T S W R N Z,,,,,,,,,,,,,,,,,,,,,,,,,,,,,,,,,,,,,,,,,,,,,,,,,,,,,,,,,,,,,,,,,,,,,,,,,,,,,,,,,,,,,,,,,,,,,
,,,,,,,,,,5d0e74d6c26b9e001a6b9def,25,Mężczyzna,2022-06-04_08h34.05.775,task,2021.1.4,Win32,59.9880024,628b806c463b948bc644b84f,629afccdd26e5bad43830c9e,,,,,1,0,1,0,1,X V Q F H G B L J M P D K C T S W R N Z,,,,,,,,,,,,,,,,,,,,,,,,,,,,,,,,,,,,,,,,,,,,,,,,,,,,,,,,,,,,,,,,,,,,,,,,,,,,,,,,,,,,,,,,,,,,,
,,,,,,,,,,5d0e74d6c26b9e001a6b9def,25,Mężczyzna,2022-06-04_08h34.05.775,task,2021.1.4,Win32,59.9880024,628b806c463b948bc644b84f,629afccdd26e5bad43830c9e,,,,,2,0,2,0,1,X V Q F H G B L J M P D K C T S W R N Z,,,,,,,,,,,,,,,,,,,,,,,,,,,,,,,,,,,,,,,,,,,,,,,,,,,,,,,,,,,,,,,,,,,,,,,,,,,,,,,,,,,,,,,,,,,,,
,,,,,,,,,,5d0e74d6c26b9e001a6b9def,25,Mężczyzna,2022-06-04_08h34.05.775,task,2021.1.4,Win32,59.9880024,628b806c463b948bc644b84f,629afccdd26e5bad43830c9e,,,,,,,,,,,pqv,"[""p"",""q"",""v""]","[0.47140000000592863,0.56990000000593,0.8675999999940132,1.1025999999940268]",1,PQV,3,0,3,0,1,,,,,,,,,,,,,,,,,,,,,,,,,,,,,,,,,,,,,,,,,,,,,,,,,,,,,,,,,,,,,,,,,,,,,,,,,,,,,,,,,,,
,,,,,,,,,,5d0e74d6c26b9e001a6b9def,25,Mężczyzna,2022-06-04_08h34.05.775,task,2021.1.4,Win32,59.9880024,628b806c463b948bc644b84f,629afccdd26e5bad43830c9e,,,,,0,0,0,0,1,X V Q F H G B L J M P D K C T S W R N Z,,,,,,,,,,,,,,,,,,,,,,,,,,,,,,,,,,,,,,,,,,,,,,,,,,,,,,,,,,,,,,,,,,,,,,,,,,,,,,,,,,,,,,,,,,,,,
,,,,,,,,,,5d0e74d6c26b9e001a6b9def,25,Mężczyzna,2022-06-04_08h34.05.775,task,2021.1.4,Win32,59.9880024,628b806c463b948bc644b84f,629afccdd26e5bad43830c9e,,,,,1,0,1,0,1,X V Q F H G B L J M P D K C T S W R N Z,,,,,,,,,,,,,,,,,,,,,,,,,,,,,,,,,,,,,,,,,,,,,,,,,,,,,,,,,,,,,,,,,,,,,,,,,,,,,,,,,,,,,,,,,,,,,
,,,,,,,,,,5d0e74d6c26b9e001a6b9def,25,Mężczyzna,2022-06-04_08h34.05.775,task,2021.1.4,Win32,59.9880024,628b806c463b948bc644b84f,629afccdd26e5bad43830c9e,,,,,2,0,2,0,1,X V Q F H G B L J M P D K C T S W R N Z,,,,,,,,,,,,,,,,,,,,,,,,,,,,,,,,,,,,,,,,,,,,,,,,,,,,,,,,,,,,,,,,,,,,,,,,,,,,,,,,,,,,,,,,,,,,,
,,,,,,,,,,5d0e74d6c26b9e001a6b9def,25,Mężczyzna,2022-06-04_08h34.05.775,task,2021.1.4,Win32,59.9880024,628b806c463b948bc644b84f,629afccdd26e5bad43830c9e,,,,,3,0,3,0,1,X V Q F H G B L J M P D K C T S W R N Z,,,,,,,,,,,,,,,,,,,,,,,,,,,,,,,,,,,,,,,,,,,,,,,,,,,,,,,,,,,,,,,,,,,,,,,,,,,,,,,,,,,,,,,,,,,,,
,,,,,,,,,,5d0e74d6c26b9e001a6b9def,25,Mężczyzna,2022-06-04_08h34.05.775,task,2021.1.4,Win32,59.9880024,628b806c463b948bc644b84f,629afccdd26e5bad43830c9e,,,,,,,,,,,kwqg,"[""k"",""w"",""q"",""g""]","[0.5167999999820836,0.6460999999940213,0.7477999999820781,1.6692999999821154,1.8301999999880536]",1,KWQG,4,0,4,0,1,,,,,,,,,,,,,,,,,,,,,,,,,,,,,,,,,,,,,,,,,,,,,,,,,,,,,,,,,,,,,,,,,,,,,,,,,,,,,,,,,,,
,,,,,,,,,,5d0e74d6c26b9e001a6b9def,25,Mężczyzna,2022-06-04_08h34.05.775,task,2021.1.4,Win32,59.9880024,628b806c463b948bc644b84f,629afccdd26e5bad43830c9e,,,,,0,0,0,0,1,X V Q F H G B L J M P D K C T S W R N Z,,,,,,,,,,,,,,,,,,,,,,,,,,,,,,,,,,,,,,,,,,,,,,,,,,,,,,,,,,,,,,,,,,,,,,,,,,,,,,,,,,,,,,,,,,,,,
,,,,,,,,,,5d0e74d6c26b9e001a6b9def,25,Mężczyzna,2022-06-04_08h34.05.775,task,2021.1.4,Win32,59.9880024,628b806c463b948bc644b84f,629afccdd26e5bad43830c9e,,,,,1,0,1,0,1,X V Q F H G B L J M P D K C T S W R N Z,,,,,,,,,,,,,,,,,,,,,,,,,,,,,,,,,,,,,,,,,,,,,,,,,,,,,,,,,,,,,,,,,,,,,,,,,,,,,,,,,,,,,,,,,,,,,
,,,,,,,,,,5d0e74d6c26b9e001a6b9def,25,Mężczyzna,2022-06-04_08h34.05.775,task,2021.1.4,Win32,59.9880024,628b806c463b948bc644b84f,629afccdd26e5bad43830c9e,,,,,2,0,2,0,1,X V Q F H G B L J M P D K C T S W R N Z,,,,,,,,,,,,,,,,,,,,,,,,,,,,,,,,,,,,,,,,,,,,,,,,,,,,,,,,,,,,,,,,,,,,,,,,,,,,,,,,,,,,,,,,,,,,,
,,,,,,,,,,5d0e74d6c26b9e001a6b9def,25,Mężczyzna,2022-06-04_08h34.05.775,task,2021.1.4,Win32,59.9880024,628b806c463b948bc644b84f,629afccdd26e5bad43830c9e,,,,,3,0,3,0,1,X V Q F H G B L J M P D K C T S W R N Z,,,,,,,,,,,,,,,,,,,,,,,,,,,,,,,,,,,,,,,,,,,,,,,,,,,,,,,,,,,,,,,,,,,,,,,,,,,,,,,,,,,,,,,,,,,,,
,,,,,,,,,,5d0e74d6c26b9e001a6b9def,25,Mężczyzna,2022-06-04_08h34.05.775,task,2021.1.4,Win32,59.9880024,628b806c463b948bc644b84f,629afccdd26e5bad43830c9e,,,,,,,,,,,msdm,"[""m"",""s"",""d"",""m""]","[0.6229999999999905,0.7198999999761213,1.3040999999940368,1.384599999994009,1.5871999999880586]",1,MSDM,5,0,5,0,1,,,,,,,,,,,,,,,,,,,,,,,,,,,,,,,,,,,,,,,,,,,,,,,,,,,,,,,,,,,,,,,,,,,,,,,,,,,,,,,,,,,
,,,,,,,,,,5d0e74d6c26b9e001a6b9def,25,Mężczyzna,2022-06-04_08h34.05.775,task,2021.1.4,Win32,59.9880024,628b806c463b948bc644b84f,629afccdd26e5bad43830c9e,,,,,0,0,0,0,1,X V Q F H G B L J M P D K C T S W R N Z,,,,,,,,,,,,,,,,,,,,,,,,,,,,,,,,,,,,,,,,,,,,,,,,,,,,,,,,,,,,,,,,,,,,,,,,,,,,,,,,,,,,,,,,,,,,,
,,,,,,,,,,5d0e74d6c26b9e001a6b9def,25,Mężczyzna,2022-06-04_08h34.05.775,task,2021.1.4,Win32,59.9880024,628b806c463b948bc644b84f,629afccdd26e5bad43830c9e,,,,,1,0,1,0,1,X V Q F H G B L J M P D K C T S W R N Z,,,,,,,,,,,,,,,,,,,,,,,,,,,,,,,,,,,,,,,,,,,,,,,,,,,,,,,,,,,,,,,,,,,,,,,,,,,,,,,,,,,,,,,,,,,,,
,,,,,,,,,,5d0e74d6c26b9e001a6b9def,25,Mężczyzna,2022-06-04_08h34.05.775,task,2021.1.4,Win32,59.9880024,628b806c463b948bc644b84f,629afccdd26e5bad43830c9e,,,,,2,0,2,0,1,X V Q F H G B L J M P D K C T S W R N Z,,,,,,,,,,,,,,,,,,,,,,,,,,,,,,,,,,,,,,,,,,,,,,,,,,,,,,,,,,,,,,,,,,,,,,,,,,,,,,,,,,,,,,,,,,,,,
,,,,,,,,,,5d0e74d6c26b9e001a6b9def,25,Mężczyzna,2022-06-04_08h34.05.775,task,2021.1.4,Win32,59.9880024,628b806c463b948bc644b84f,629afccdd26e5bad43830c9e,,,,,3,0,3,0,1,X V Q F H G B L J M P D K C T S W R N Z,,,,,,,,,,,,,,,,,,,,,,,,,,,,,,,,,,,,,,,,,,,,,,,,,,,,,,,,,,,,,,,,,,,,,,,,,,,,,,,,,,,,,,,,,,,,,
,,,,,,,,,,5d0e74d6c26b9e001a6b9def,25,Mężczyzna,2022-06-04_08h34.05.775,task,2021.1.4,Win32,59.9880024,628b806c463b948bc644b84f,629afccdd26e5bad43830c9e,,,,,4,0,4,0,1,X V Q F H G B L J M P D K C T S W R N Z,,,,,,,,,,,,,,,,,,,,,,,,,,,,,,,,,,,,,,,,,,,,,,,,,,,,,,,,,,,,,,,,,,,,,,,,,,,,,,,,,,,,,,,,,,,,,
,,,,,,,,,,5d0e74d6c26b9e001a6b9def,25,Mężczyzna,2022-06-04_08h34.05.775,task,2021.1.4,Win32,59.9880024,628b806c463b948bc644b84f,629afccdd26e5bad43830c9e,,,,,,,,,,,nnvkd,"[""n"",""n"",""v"",""k"",""d""]","[0.4665999999940027,0.6009000000059359,0.9639000000059355,1.0834999999999582,1.380300000011914,1.7505999999939945]",1,NNVKD,6,0,6,0,1,,,,,,,,,,,,,,,,,,,,,,,,,,,,,,,,,,,,,,,,,,,,,,,,,,,,,,,,,,,,,,,,,,,,,,,,,,,,,,,,,,,
,,,,,,,,,,5d0e74d6c26b9e001a6b9def,25,Mężczyzna,2022-06-04_08h34.05.775,task,2021.1.4,Win32,59.9880024,628b806c463b948bc644b84f,629afccdd26e5bad43830c9e,,,,,0,0,0,0,1,X V Q F H G B L J M P D K C T S W R N Z,,,,,,,,,,,,,,,,,,,,,,,,,,,,,,,,,,,,,,,,,,,,,,,,,,,,,,,,,,,,,,,,,,,,,,,,,,,,,,,,,,,,,,,,,,,,,
,,,,,,,,,,5d0e74d6c26b9e001a6b9def,25,Mężczyzna,2022-06-04_08h34.05.775,task,2021.1.4,Win32,59.9880024,628b806c463b948bc644b84f,629afccdd26e5bad43830c9e,,,,,1,0,1,0,1,X V Q F H G B L J M P D K C T S W R N Z,,,,,,,,,,,,,,,,,,,,,,,,,,,,,,,,,,,,,,,,,,,,,,,,,,,,,,,,,,,,,,,,,,,,,,,,,,,,,,,,,,,,,,,,,,,,,
,,,,,,,,,,5d0e74d6c26b9e001a6b9def,25,Mężczyzna,2022-06-04_08h34.05.775,task,2021.1.4,Win32,59.9880024,628b806c463b948bc644b84f,629afccdd26e5bad43830c9e,,,,,2,0,2,0,1,X V Q F H G B L J M P D K C T S W R N Z,,,,,,,,,,,,,,,,,,,,,,,,,,,,,,,,,,,,,,,,,,,,,,,,,,,,,,,,,,,,,,,,,,,,,,,,,,,,,,,,,,,,,,,,,,,,,
,,,,,,,,,,5d0e74d6c26b9e001a6b9def,25,Mężczyzna,2022-06-04_08h34.05.775,task,2021.1.4,Win32,59.9880024,628b806c463b948bc644b84f,629afccdd26e5bad43830c9e,,,,,3,0,3,0,1,X V Q F H G B L J M P D K C T S W R N Z,,,,,,,,,,,,,,,,,,,,,,,,,,,,,,,,,,,,,,,,,,,,,,,,,,,,,,,,,,,,,,,,,,,,,,,,,,,,,,,,,,,,,,,,,,,,,
,,,,,,,,,,5d0e74d6c26b9e001a6b9def,25,Mężczyzna,2022-06-04_08h34.05.775,task,2021.1.4,Win32,59.9880024,628b806c463b948bc644b84f,629afccdd26e5bad43830c9e,,,,,4,0,4,0,1,X V Q F H G B L J M P D K C T S W R N Z,,,,,,,,,,,,,,,,,,,,,,,,,,,,,,,,,,,,,,,,,,,,,,,,,,,,,,,,,,,,,,,,,,,,,,,,,,,,,,,,,,,,,,,,,,,,,
,,,,,,,,,,5d0e74d6c26b9e001a6b9def,25,Mężczyzna,2022-06-04_08h34.05.775,task,2021.1.4,Win32,59.9880024,628b806c463b948bc644b84f,629afccdd26e5bad43830c9e,,,,,,,,,,,lbjrd,"[""l"",""b"",""j"",""r"",""d""]","[0.5690999999940232,0.7701999999880513,1.0039999999999623,1.2541999999880886,1.4846999999880381,1.716299999982084]",1,LBJRD,7,0,7,0,1,,,,,,,,,,,,,,,,,,,,,,,,,,,,,,,,,,,,,,,,,,,,,,,,,,,,,,,,,,,,,,,,,,,,,,,,,,,,,,,,,,,
,,,,,,,,,,5d0e74d6c26b9e001a6b9def,25,Mężczyzna,2022-06-04_08h34.05.775,task,2021.1.4,Win32,59.9880024,628b806c463b948bc644b84f,629afccdd26e5bad43830c9e,,,,,0,0,0,0,1,X V Q F H G B L J M P D K C T S W R N Z,,,,,,,,,,,,,,,,,,,,,,,,,,,,,,,,,,,,,,,,,,,,,,,,,,,,,,,,,,,,,,,,,,,,,,,,,,,,,,,,,,,,,,,,,,,,,
,,,,,,,,,,5d0e74d6c26b9e001a6b9def,25,Mężczyzna,2022-06-04_08h34.05.775,task,2021.1.4,Win32,59.9880024,628b806c463b948bc644b84f,629afccdd26e5bad43830c9e,,,,,1,0,1,0,1,X V Q F H G B L J M P D K C T S W R N Z,,,,,,,,,,,,,,,,,,,,,,,,,,,,,,,,,,,,,,,,,,,,,,,,,,,,,,,,,,,,,,,,,,,,,,,,,,,,,,,,,,,,,,,,,,,,,
,,,,,,,,,,5d0e74d6c26b9e001a6b9def,25,Mężczyzna,2022-06-04_08h34.05.775,task,2021.1.4,Win32,59.9880024,628b806c463b948bc644b84f,629afccdd26e5bad43830c9e,,,,,2,0,2,0,1,X V Q F H G B L J M P D K C T S W R N Z,,,,,,,,,,,,,,,,,,,,,,,,,,,,,,,,,,,,,,,,,,,,,,,,,,,,,,,,,,,,,,,,,,,,,,,,,,,,,,,,,,,,,,,,,,,,,
,,,,,,,,,,5d0e74d6c26b9e001a6b9def,25,Mężczyzna,2022-06-04_08h34.05.775,task,2021.1.4,Win32,59.9880024,628b806c463b948bc644b84f,629afccdd26e5bad43830c9e,,,,,3,0,3,0,1,X V Q F H G B L J M P D K C T S W R N Z,,,,,,,,,,,,,,,,,,,,,,,,,,,,,,,,,,,,,,,,,,,,,,,,,,,,,,,,,,,,,,,,,,,,,,,,,,,,,,,,,,,,,,,,,,,,,
,,,,,,,,,,5d0e74d6c26b9e001a6b9def,25,Mężczyzna,2022-06-04_08h34.05.775,task,2021.1.4,Win32,59.9880024,628b806c463b948bc644b84f,629afccdd26e5bad43830c9e,,,,,4,0,4,0,1,X V Q F H G B L J M P D K C T S W R N Z,,,,,,,,,,,,,,,,,,,,,,,,,,,,,,,,,,,,,,,,,,,,,,,,,,,,,,,,,,,,,,,,,,,,,,,,,,,,,,,,,,,,,,,,,,,,,
,,,,,,,,,,5d0e74d6c26b9e001a6b9def,25,Mężczyzna,2022-06-04_08h34.05.775,task,2021.1.4,Win32,59.9880024,628b806c463b948bc644b84f,629afccdd26e5bad43830c9e,,,,,5,0,5,0,1,X V Q F H G B L J M P D K C T S W R N Z,,,,,,,,,,,,,,,,,,,,,,,,,,,,,,,,,,,,,,,,,,,,,,,,,,,,,,,,,,,,,,,,,,,,,,,,,,,,,,,,,,,,,,,,,,,,,
,,,,,,,,,,5d0e74d6c26b9e001a6b9def,25,Mężczyzna,2022-06-04_08h34.05.775,task,2021.1.4,Win32,59.9880024,628b806c463b948bc644b84f,629afccdd26e5bad43830c9e,,,,,,,,,,,ldm,"[""l"",""d"",""m""]","[0.4814999999999827,0.6005000000000109,0.6675000000000182,1.1670999999940364]",0,LWPDLM,8,0,8,0,1,,,,,,,,,,,,,,,,,,,,,,,,,,,,,,,,,,,,,,,,,,,,,,,,,,,,,,,,,,,,,,,,,,,,,,,,,,,,,,,,,,,
,,,,,,,,,,5d0e74d6c26b9e001a6b9def,25,Mężczyzna,2022-06-04_08h34.05.775,task,2021.1.4,Win32,59.9880024,628b806c463b948bc644b84f,629afccdd26e5bad43830c9e,,,,,0,0,0,0,1,X V Q F H G B L J M P D K C T S W R N Z,,,,,,,,,,,,,,,,,,,,,,,,,,,,,,,,,,,,,,,,,,,,,,,,,,,,,,,,,,,,,,,,,,,,,,,,,,,,,,,,,,,,,,,,,,,,,
,,,,,,,,,,5d0e74d6c26b9e001a6b9def,25,Mężczyzna,2022-06-04_08h34.05.775,task,2021.1.4,Win32,59.9880024,628b806c463b948bc644b84f,629afccdd26e5bad43830c9e,,,,,1,0,1,0,1,X V Q F H G B L J M P D K C T S W R N Z,,,,,,,,,,,,,,,,,,,,,,,,,,,,,,,,,,,,,,,,,,,,,,,,,,,,,,,,,,,,,,,,,,,,,,,,,,,,,,,,,,,,,,,,,,,,,
,,,,,,,,,,5d0e74d6c26b9e001a6b9def,25,Mężczyzna,2022-06-04_08h34.05.775,task,2021.1.4,Win32,59.9880024,628b806c463b948bc644b84f,629afccdd26e5bad43830c9e,,,,,2,0,2,0,1,X V Q F H G B L J M P D K C T S W R N Z,,,,,,,,,,,,,,,,,,,,,,,,,,,,,,,,,,,,,,,,,,,,,,,,,,,,,,,,,,,,,,,,,,,,,,,,,,,,,,,,,,,,,,,,,,,,,
,,,,,,,,,,5d0e74d6c26b9e001a6b9def,25,Mężczyzna,2022-06-04_08h34.05.775,task,2021.1.4,Win32,59.9880024,628b806c463b948bc644b84f,629afccdd26e5bad43830c9e,,,,,3,0,3,0,1,X V Q F H G B L J M P D K C T S W R N Z,,,,,,,,,,,,,,,,,,,,,,,,,,,,,,,,,,,,,,,,,,,,,,,,,,,,,,,,,,,,,,,,,,,,,,,,,,,,,,,,,,,,,,,,,,,,,
,,,,,,,,,,5d0e74d6c26b9e001a6b9def,25,Mężczyzna,2022-06-04_08h34.05.775,task,2021.1.4,Win32,59.9880024,628b806c463b948bc644b84f,629afccdd26e5bad43830c9e,,,,,4,0,4,0,1,X V Q F H G B L J M P D K C T S W R N Z,,,,,,,,,,,,,,,,,,,,,,,,,,,,,,,,,,,,,,,,,,,,,,,,,,,,,,,,,,,,,,,,,,,,,,,,,,,,,,,,,,,,,,,,,,,,,
,,,,,,,,,,5d0e74d6c26b9e001a6b9def,25,Mężczyzna,2022-06-04_08h34.05.775,task,2021.1.4,Win32,59.9880024,628b806c463b948bc644b84f,629afccdd26e5bad43830c9e,,,,,5,0,5,0,1,X V Q F H G B L J M P D K C T S W R N Z,,,,,,,,,,,,,,,,,,,,,,,,,,,,,,,,,,,,,,,,,,,,,,,,,,,,,,,,,,,,,,,,,,,,,,,,,,,,,,,,,,,,,,,,,,,,,
,,,,,,,,,,5d0e74d6c26b9e001a6b9def,25,Mężczyzna,2022-06-04_08h34.05.775,task,2021.1.4,Win32,59.9880024,628b806c463b948bc644b84f,629afccdd26e5bad43830c9e,,,,,,,,,,,qdwpl,"[""q"",""d"",""w"",""p"",""l""]","[1.50090000000597,1.8371999999880586,2.584300000011922,2.7678000000119027,3.0210999999940213,3.173000000000002]",0,QDWDPH,9,0,9,0,1,,,,,,,,,,,,,,,,,,,,,,,,,,,,,,,,,,,,,,,,,,,,,,,,,,,,,,,,,,,,,,,,,,,,,,,,,,,,,,,,,,,
,,,,,,,,,,5d0e74d6c26b9e001a6b9def,25,Mężczyzna,2022-06-04_08h34.05.775,task,2021.1.4,Win32,59.9880024,628b806c463b948bc644b84f,629afccdd26e5bad43830c9e,,,,,0,0,0,0,1,X V Q F H G B L J M P D K C T S W R N Z,,,,,,,,,,,,,,,,,,,,,,,,,,,,,,,,,,,,,,,,,,,,,,,,,,,,,,,,,,,,,,,,,,,,,,,,,,,,,,,,,,,,,,,,,,,,,
,,,,,,,,,,5d0e74d6c26b9e001a6b9def,25,Mężczyzna,2022-06-04_08h34.05.775,task,2021.1.4,Win32,59.9880024,628b806c463b948bc644b84f,629afccdd26e5bad43830c9e,,,,,1,0,1,0,1,X V Q F H G B L J M P D K C T S W R N Z,,,,,,,,,,,,,,,,,,,,,,,,,,,,,,,,,,,,,,,,,,,,,,,,,,,,,,,,,,,,,,,,,,,,,,,,,,,,,,,,,,,,,,,,,,,,,
,,,,,,,,,,5d0e74d6c26b9e001a6b9def,25,Mężczyzna,2022-06-04_08h34.05.775,task,2021.1.4,Win32,59.9880024,628b806c463b948bc644b84f,629afccdd26e5bad43830c9e,,,,,2,0,2,0,1,X V Q F H G B L J M P D K C T S W R N Z,,,,,,,,,,,,,,,,,,,,,,,,,,,,,,,,,,,,,,,,,,,,,,,,,,,,,,,,,,,,,,,,,,,,,,,,,,,,,,,,,,,,,,,,,,,,,
,,,,,,,,,,5d0e74d6c26b9e001a6b9def,25,Mężczyzna,2022-06-04_08h34.05.775,task,2021.1.4,Win32,59.9880024,628b806c463b948bc644b84f,629afccdd26e5bad43830c9e,,,,,3,0,3,0,1,X V Q F H G B L J M P D K C T S W R N Z,,,,,,,,,,,,,,,,,,,,,,,,,,,,,,,,,,,,,,,,,,,,,,,,,,,,,,,,,,,,,,,,,,,,,,,,,,,,,,,,,,,,,,,,,,,,,
,,,,,,,,,,5d0e74d6c26b9e001a6b9def,25,Mężczyzna,2022-06-04_08h34.05.775,task,2021.1.4,Win32,59.9880024,628b806c463b948bc644b84f,629afccdd26e5bad43830c9e,,,,,4,0,4,0,1,X V Q F H G B L J M P D K C T S W R N Z,,,,,,,,,,,,,,,,,,,,,,,,,,,,,,,,,,,,,,,,,,,,,,,,,,,,,,,,,,,,,,,,,,,,,,,,,,,,,,,,,,,,,,,,,,,,,
,,,,,,,,,,5d0e74d6c26b9e001a6b9def,25,Mężczyzna,2022-06-04_08h34.05.775,task,2021.1.4,Win32,59.9880024,628b806c463b948bc644b84f,629afccdd26e5bad43830c9e,,,,,5,0,5,0,1,X V Q F H G B L J M P D K C T S W R N Z,,,,,,,,,,,,,,,,,,,,,,,,,,,,,,,,,,,,,,,,,,,,,,,,,,,,,,,,,,,,,,,,,,,,,,,,,,,,,,,,,,,,,,,,,,,,,
,,,,,,,,,,5d0e74d6c26b9e001a6b9def,25,Mężczyzna,2022-06-04_08h34.05.775,task,2021.1.4,Win32,59.9880024,628b806c463b948bc644b84f,629afccdd26e5bad43830c9e,,,,,,,,,,,fvhnp,"[""f"",""v"",""h"",""n"",""p""]","[0.39009999999404954,0.4829000000059409,0.616199999988055,4.283599999994067,5.133699999988096,5.583199999988096]",0,FVHNPR,10,0,10,0,1,,,,,,,,,,,,,,,,,,,,,,,,,,,,,,,,,,,,,,,,,,,,,,,,,,,,,,,,,,,,,,,,,,,,,,,,,,,,,,,,,,,
,,,,,,,,,,5d0e74d6c26b9e001a6b9def,25,Mężczyzna,2022-06-04_08h34.05.775,task,2021.1.4,Win32,59.9880024,628b806c463b948bc644b84f,629afccdd26e5bad43830c9e,,,,,,,,,,,,,,,,,,,,,space,100.1315,7,"[""7""]",1,[3.799400000006017],[3.799400000006017],0,0,0,7,1,Practice,8,(5x5) - 18,7,,,,,,,,,,,,,,,,,,,,,,,,,,,,,,,,,,,,,,,,,,,,,,,,,,,,,,,,,,,,,,,,,,,
,,,,,,,,,,5d0e74d6c26b9e001a6b9def,25,Mężczyzna,2022-06-04_08h34.05.775,task,2021.1.4,Win32,59.9880024,628b806c463b948bc644b84f,629afccdd26e5bad43830c9e,,,,,,,,,,,,,,,,,,,,,,,9,"[""9""]",1,[3.616799999982163],"[3.799400000006017,3.616799999982163]",0,1,1,9,1,Practice,10,(20/2) - 1,9,,,,,,,,,,,,,,,,,,,,,,,,,,,,,,,,,,,,,,,,,,,,,,,,,,,,,,,,,,,,,,,,,,,
,,,,,,,,,,5d0e74d6c26b9e001a6b9def,25,Mężczyzna,2022-06-04_08h34.05.775,task,2021.1.4,Win32,59.9880024,628b806c463b948bc644b84f,629afccdd26e5bad43830c9e,,,,,,,,,,,,,,,,,,,,,,,0,"[""0""]",1,[1.6930999999940468],"[3.799400000006017,3.616799999982163,1.6930999999940468]",0,2,2,0,1,Practice,1,(3x3) -  9,0,,,,,,,,,,,,,,,,,,,,,,,,,,,,,,,,,,,,,,,,,,,,,,,,,,,,,,,,,,,,,,,,,,,
,,,,,,,,,,5d0e74d6c26b9e001a6b9def,25,Mężczyzna,2022-06-04_08h34.05.775,task,2021.1.4,Win32,59.9880024,628b806c463b948bc644b84f,629afccdd26e5bad43830c9e,,,,,,,,,,,,,,,,,,,,,,,1,"[""1""]",1,[1.656500000000051],"[3.799400000006017,3.616799999982163,1.6930999999940468,1.656500000000051]",0,3,3,1,1,Practice,2,(4x4) - 15,1,,,,,,,,,,,,,,,,,,,,,,,,,,,,,,,,,,,,,,,,,,,,,,,,,,,,,,,,,,,,,,,,,,,
,,,,,,,,,,5d0e74d6c26b9e001a6b9def,25,Mężczyzna,2022-06-04_08h34.05.775,task,2021.1.4,Win32,59.9880024,628b806c463b948bc644b84f,629afccdd26e5bad43830c9e,,,,,,,,,,,,,,,,,,,,,,,5,"[""5""]",1,[2.350500000000011],"[3.799400000006017,3.616799999982163,1.6930999999940468,1.656500000000051,2.350500000000011]",0,4,4,5,1,Practice,6,(4/2) + 3,5,,,,,,,,,,,,,,,,,,,,,,,,,,,,,,,,,,,,,,,,,,,,,,,,,,,,,,,,,,,,,,,,,,,
,,,,,,,,,,5d0e74d6c26b9e001a6b9def,25,Mężczyzna,2022-06-04_08h34.05.775,task,2021.1.4,Win32,59.9880024,628b806c463b948bc644b84f,629afccdd26e5bad43830c9e,,,,,,,,,,,,,,,,,,,,,,,4,"[""4""]",1,[2.189699999988079],"[3.799400000006017,3.616799999982163,1.6930999999940468,1.656500000000051,2.350500000000011,2.189699999988079]",0,5,5,4,1,Practice,5,(2x6) - 8,4,,,,,,,,,,,,,,,,,,,,,,,,,,,,,,,,,,,,,,,,,,,,,,,,,,,,,,,,,,,,,,,,,,,
,,,,,,,,,,5d0e74d6c26b9e001a6b9def,25,Mężczyzna,2022-06-04_08h34.05.775,task,2021.1.4,Win32,59.9880024,628b806c463b948bc644b84f,629afccdd26e5bad43830c9e,,,,,,,,,,,,,,,,,,,,,,,6,"[""6""]",1,[1.8835999999940896],"[3.799400000006017,3.616799999982163,1.6930999999940468,1.656500000000051,2.350500000000011,2.189699999988079,1.8835999999940896]",0,6,6,6,1,Practice,7,(25/5) + 1,6,,,,,,,,,,,,,,,,,,,,,,,,,,,,,,,,,,,,,,,,,,,,,,,,,,,,,,,,,,,,,,,,,,,
,,,,,,,,,,5d0e74d6c26b9e001a6b9def,25,Mężczyzna,2022-06-04_08h34.05.775,task,2021.1.4,Win32,59.9880024,628b806c463b948bc644b84f,629afccdd26e5bad43830c9e,,,,,,,,,,,,,,,,,,,,,,,3,"[""3""]",1,[1.9525000000001],"[3.799400000006017,3.616799999982163,1.6930999999940468,1.656500000000051,2.350500000000011,2.189699999988079,1.8835999999940896,1.9525000000001]",0,7,7,3,1,Practice,4,(8/4) + 1,3,,,,,,,,,,,,,,,,,,,,,,,,,,,,,,,,,,,,,,,,,,,,,,,,,,,,,,,,,,,,,,,,,,,
,,,,,,,,,,5d0e74d6c26b9e001a6b9def,25,Mężczyzna,2022-06-04_08h34.05.775,task,2021.1.4,Win32,59.9880024,628b806c463b948bc644b84f,629afccdd26e5bad43830c9e,,,,,,,,,,,,,,,,,,,,,,,8,"[""8""]",1,[1.683599999994044],"[3.799400000006017,3.616799999982163,1.6930999999940468,1.656500000000051,2.350500000000011,2.189699999988079,1.8835999999940896,1.9525000000001,1.683599999994044]",0,8,8,8,1,Practice,9,(3x3) - 1,8,,,,,,,,,,,,,,,,,,,,,,,,,,,,,,,,,,,,,,,,,,,,,,,,,,,,,,,,,,,,,,,,,,,
,,,,,,,,,,5d0e74d6c26b9e001a6b9def,25,Mężczyzna,2022-06-04_08h34.05.775,task,2021.1.4,Win32,59.9880024,628b806c463b948bc644b84f,629afccdd26e5bad43830c9e,,,,,,,,,,,,,,,,,,,,,,,2,"[""2""]",1,[2.267100000023788],"[3.799400000006017,3.616799999982163,1.6930999999940468,1.656500000000051,2.350500000000011,2.189699999988079,1.8835999999940896,1.9525000000001,1.683599999994044,2.267100000023788]",0,9,9,2,1,Practice,3,(4x4) - 14,2,,,,,,,,,,,,,,,,,,,,,,,,,,,,,,,,,,,,,,,,,,,,,,,,,,,,,,,,,,,,,,,,,,,
,,,,,,,,,,5d0e74d6c26b9e001a6b9def,25,Mężczyzna,2022-06-04_08h34.05.775,task,2021.1.4,Win32,59.9880024,628b806c463b948bc644b84f,629afccdd26e5bad43830c9e,,,,,,,,,,,,,,,,,,,,,,,,,,,,,,,,,,,,,1,23.0928,1.53952,11.37891877,0.870973355,3.786631255,space,3.417,0,0,0,0,1,,,,,,,,,,,,,,,,,,,,,,,,,,,,,,,,,,,,,,,,,,,,,,,,,,,,,,
,,,,,,,,,,5d0e74d6c26b9e001a6b9def,25,Mężczyzna,2022-06-04_08h34.05.775,task,2021.1.4,Win32,59.9880024,628b806c463b948bc644b84f,629afccdd26e5bad43830c9e,,,,,,,,,,,,,,,,,,,,,,,6,,,,,,,,,,Practice,7,(25/5) + 1,6,,,,,,,,,,,,,,space,18.05,"[""6""]",1,[1.6532000000179323],1,0,0,0,6,1,,,,,,,,,,,,,,,,,,,,,,,,,,,,,,,,,,,,,,,,,,,
,,,,,,,,,,5d0e74d6c26b9e001a6b9def,25,Mężczyzna,2022-06-04_08h34.05.775,task,2021.1.4,Win32,59.9880024,628b806c463b948bc644b84f,629afccdd26e5bad43830c9e,,,,,,,,,,X V Q F H G B L J M P D K C T S W R N Z,,,,,,,,,,,,,,,,,,,,,,,,,,,,,,,,,,,,,,,,,,,,,,,,,,,0,0,0,0,1,,,,,,,,,,,,,,,,,,,,,,,,,,,,,,,,,,,,,,
,,,,,,,,,,5d0e74d6c26b9e001a6b9def,25,Mężczyzna,2022-06-04_08h34.05.775,task,2021.1.4,Win32,59.9880024,628b806c463b948bc644b84f,629afccdd26e5bad43830c9e,,,,,,,,,,,,,,,,,,,,,,,,,,,,,,,,,Practice,7,(25/5) + 1,6,,,,,,,,,,,,,,,,,0,,0,0,0,0,6,1,,,,,,,,,,,,,,,,,,,,,,,,,,,,,,,,,,,,,,,,,,,
,,,,,,,,,,5d0e74d6c26b9e001a6b9def,25,Mężczyzna,2022-06-04_08h34.05.775,task,2021.1.4,Win32,59.9880024,628b806c463b948bc644b84f,629afccdd26e5bad43830c9e,,,,,,,,,,,,,,,,,,,,,,,,,,,,,,,,,Practice,5,(2x6) - 8,4,,,,,,,,,,,,,,,,,0,,0,0,1,1,4,1,,,,,,,,,,,,,,,,,,,,,,,,,,,,,,,,,,,,,,,,,,,
,,,,,,,,,,5d0e74d6c26b9e001a6b9def,25,Mężczyzna,2022-06-04_08h34.05.775,task,2021.1.4,Win32,59.9880024,628b806c463b948bc644b84f,629afccdd26e5bad43830c9e,,,,,,,,,,,,,,,,,,,,,,,5,,,,,,,,,,Practice,6,(4/2) + 3,5,,,,,,,,,,,,,,,,"[""5""]",1,[3.3845000000000027],1,0,2,2,5,1,,,,,,,,,,,,,,,,,,,,,,,,,,,,,,,,,,,,,,,,,,,
,,,,,,,,,,5d0e74d6c26b9e001a6b9def,25,Mężczyzna,2022-06-04_08h34.05.775,task,2021.1.4,Win32,59.9880024,628b806c463b948bc644b84f,629afccdd26e5bad43830c9e,,,,,,,,,,X V Q F H G B L J M P D K C T S W R N Z,,,,,,,,,,,,,,,,,,,,,,,,,,,,,,,,,,,,,,,,,,,,,,,,,,,1,0,1,0,1,,,,,,,,,,,,,,,,,,,,,,,,,,,,,,,,,,,,,,
,,,,,,,,,,5d0e74d6c26b9e001a6b9def,25,Mężczyzna,2022-06-04_08h34.05.775,task,2021.1.4,Win32,59.9880024,628b806c463b948bc644b84f,629afccdd26e5bad43830c9e,,,,,,,,,,,,,,,,,,,,,,,,,,,,,,,,,,,,,,,,,,,,,,,,,,,,,,,,,,,,,,,,,,zs,"[""z"",""s""]",0,"[3.3010000000000446,3.5177000000179532,5.984300000012013]",1,0,0,0,0,1,,,,,,,,,,,,,,,,,,,,,,,,,,,,
,,,,,,,,,,5d0e74d6c26b9e001a6b9def,25,Mężczyzna,2022-06-04_08h34.05.775,task,2021.1.4,Win32,59.9880024,628b806c463b948bc644b84f,629afccdd26e5bad43830c9e,,,,,,,,,,,,,,,,,,,,,,,4,,,,,,,,,,Practice,5,(2x6) - 8,4,,,,,,,,,,,,,,,,"[""4""]",1,[3.0902000000178305],1,0,0,0,4,1,,,,,,,,,,,,,,,,,,,,,,,,,,,,,,,,,,,,,,,,,,,
,,,,,,,,,,5d0e74d6c26b9e001a6b9def,25,Mężczyzna,2022-06-04_08h34.05.775,task,2021.1.4,Win32,59.9880024,628b806c463b948bc644b84f,629afccdd26e5bad43830c9e,,,,,,,,,,X V Q F H G B L J M P D K C T S W R N Z,,,,,,,,,,,,,,,,,,,,,,,,,,,,,,,,,,,,,,,,,,,,,,,,,,,0,0,0,0,1,,,,,,,,,,,,,,,,,,,,,,,,,,,,,,,,,,,,,,
,,,,,,,,,,5d0e74d6c26b9e001a6b9def,25,Mężczyzna,2022-06-04_08h34.05.775,task,2021.1.4,Win32,59.9880024,628b806c463b948bc644b84f,629afccdd26e5bad43830c9e,,,,,,,,,,,,,,,,,,,,,,,2,,,,,,,,,,Practice,3,(4x4) - 14,2,,,,,,,,,,,,,,,,"[""2""]",1,[2.6828000000118664],1,0,0,0,2,1,,,,,,,,,,,,,,,,,,,,,,,,,,,,,,,,,,,,,,,,,,,
,,,,,,,,,,5d0e74d6c26b9e001a6b9def,25,Mężczyzna,2022-06-04_08h34.05.775,task,2021.1.4,Win32,59.9880024,628b806c463b948bc644b84f,629afccdd26e5bad43830c9e,,,,,,,,,,X V Q F H G B L J M P D K C T S W R N Z,,,,,,,,,,,,,,,,,,,,,,,,,,,,,,,,,,,,,,,,,,,,,,,,,,,1,0,1,0,1,,,,,,,,,,,,,,,,,,,,,,,,,,,,,,,,,,,,,,
,,,,,,,,,,5d0e74d6c26b9e001a6b9def,25,Mężczyzna,2022-06-04_08h34.05.775,task,2021.1.4,Win32,59.9880024,628b806c463b948bc644b84f,629afccdd26e5bad43830c9e,,,,,,,,,,,,,,,,,,,,,,,,,,,,,,,,,,,,,,,,,,,,,,,,,,,,,,,,,,,,,,,,,,bf,"[""b"",""f""]",0,"[2.7572999999821377,2.885499999999979,3.8175999999940586]",1,1,0,1,0,1,,,,,,,,,,,,,,,,,,,,,,,,,,,,
,,,,,,,,,,5d0e74d6c26b9e001a6b9def,25,Mężczyzna,2022-06-04_08h34.05.775,task,2021.1.4,Win32,59.9880024,628b806c463b948bc644b84f,629afccdd26e5bad43830c9e,,,,,,,,,,,,,,,,,,,,,,,9,,,,,,,,,,Practice,10,(20/2) - 1,9,,,,,,,,,,,,,,,,"[""9""]",1,[2.5529999999999973],1,0,0,0,9,1,,,,,,,,,,,,,,,,,,,,,,,,,,,,,,,,,,,,,,,,,,,
,,,,,,,,,,5d0e74d6c26b9e001a6b9def,25,Mężczyzna,2022-06-04_08h34.05.775,task,2021.1.4,Win32,59.9880024,628b806c463b948bc644b84f,629afccdd26e5bad43830c9e,,,,,,,,,,X V Q F H G B L J M P D K C T S W R N Z,,,,,,,,,,,,,,,,,,,,,,,,,,,,,,,,,,,,,,,,,,,,,,,,,,,0,0,0,0,1,,,,,,,,,,,,,,,,,,,,,,,,,,,,,,,,,,,,,,
,,,,,,,,,,5d0e74d6c26b9e001a6b9def,25,Mężczyzna,2022-06-04_08h34.05.775,task,2021.1.4,Win32,59.9880024,628b806c463b948bc644b84f,629afccdd26e5bad43830c9e,,,,,,,,,,,,,,,,,,,,,,,1,,,,,,,,,,Practice,2,(4x4) - 15,1,,,,,,,,,,,,,,,,"[""1""]",1,[1.6495999999940523],1,0,0,0,1,1,,,,,,,,,,,,,,,,,,,,,,,,,,,,,,,,,,,,,,,,,,,
,,,,,,,,,,5d0e74d6c26b9e001a6b9def,25,Mężczyzna,2022-06-04_08h34.05.775,task,2021.1.4,Win32,59.9880024,628b806c463b948bc644b84f,629afccdd26e5bad43830c9e,,,,,,,,,,X V Q F H G B L J M P D K C T S W R N Z,,,,,,,,,,,,,,,,,,,,,,,,,,,,,,,,,,,,,,,,,,,,,,,,,,,1,0,1,0,1,,,,,,,,,,,,,,,,,,,,,,,,,,,,,,,,,,,,,,
,,,,,,,,,,5d0e74d6c26b9e001a6b9def,25,Mężczyzna,2022-06-04_08h34.05.775,task,2021.1.4,Win32,59.9880024,628b806c463b948bc644b84f,629afccdd26e5bad43830c9e,,,,,,,,,,,,,,,,,,,,,,,,,,,,,,,,,,,,,,,,,,,,,,,,,,,,,,,,,,,,,,,,,,bz,"[""b"",""z""]",0,"[1.6735000000001037,1.9054000000060114,2.825300000012021]",1,2,0,2,0,1,,,,,,,,,,,,,,,,,,,,,,,,,,,,
,,,,,,,,,,5d0e74d6c26b9e001a6b9def,25,Mężczyzna,2022-06-04_08h34.05.775,task,2021.1.4,Win32,59.9880024,628b806c463b948bc644b84f,629afccdd26e5bad43830c9e,,,,,,,,,,,,,,,,,,,,,,,0,,,,,,,,,,Task,8,(1x5) - 5,0,,,,,,,,,,,,,,,,,,,1,,,,,,,,,,,,,,,,,,,,,space,17.8699,"[""0""]",1,[2.4994000000060623],0,0,0,7,1,,,,,,,,,,,,,,,,,,
,,,,,,,,,,5d0e74d6c26b9e001a6b9def,25,Mężczyzna,2022-06-04_08h34.05.775,task,2021.1.4,Win32,59.9880024,628b806c463b948bc644b84f,629afccdd26e5bad43830c9e,,,,,,,,,,X V Q F H G B L J M P D K C T S W R N Z,,,,,,,,,,,,,,,,,,,,,,,,,,,,,,,,,,,,,,,,,,,,,,,,,,,,,,,,,,,,,,,,,,,,,,,,,,,,0,0,0,0,1,,,,,,,,,,,,,
,,,,,,,,,,5d0e74d6c26b9e001a6b9def,25,Mężczyzna,2022-06-04_08h34.05.775,task,2021.1.4,Win32,59.9880024,628b806c463b948bc644b84f,629afccdd26e5bad43830c9e,,,,,,,,,,,,,,,,,,,,,,,9,,,,,,,,,,Task,40,(7x2) - 5,9,,,,,,,,,,,,,,,,,,,1,,,,,,,,,,,,,,,,,,,,,,,"[""9""]",1,[2.7329999999999472],0,0,0,39,1,,,,,,,,,,,,,,,,,,
,,,,,,,,,,5d0e74d6c26b9e001a6b9def,25,Mężczyzna,2022-06-04_08h34.05.775,task,2021.1.4,Win32,59.9880024,628b806c463b948bc644b84f,629afccdd26e5bad43830c9e,,,,,,,,,,X V Q F H G B L J M P D K C T S W R N Z,,,,,,,,,,,,,,,,,,,,,,,,,,,,,,,,,,,,,,,,,,,,,,,,,,,,,,,,,,,,,,,,,,,,,,,,,,,,1,0,1,0,1,,,,,,,,,,,,,
,,,,,,,,,,5d0e74d6c26b9e001a6b9def,25,Mężczyzna,2022-06-04_08h34.05.775,task,2021.1.4,Win32,59.9880024,628b806c463b948bc644b84f,629afccdd26e5bad43830c9e,,,,,,,,,,,,,,,,,,,,,,,,,,,,,,,,,,,,,,,,,,,,,,,,,,,,,,,,,,,,,,,,,,,,,,,,,,,,,,,,,,,,,,,,,,,zj,"[""z"",""j""]",0,"[1.5341999999881182,1.9009000000060041,3.034199999988118]",1,ZJ,0,0,0,0,1,,
,,,,,,,,,,5d0e74d6c26b9e001a6b9def,25,Mężczyzna,2022-06-04_08h34.05.775,task,2021.1.4,Win32,59.9880024,628b806c463b948bc644b84f,629afccdd26e5bad43830c9e,,,,,,,,,,,,,,,,,,,,,,,2,,,,,,,,,,Task,26,(2x9) - 16,2,,,,,,,,,,,,,,,,,,,1,,,,,,,,,,,,,,,,,,,,,,,"[""2""]",1,[1.9359000000059723],0,0,0,25,1,,,,,,,,,,,,,,,,,,
,,,,,,,,,,5d0e74d6c26b9e001a6b9def,25,Mężczyzna,2022-06-04_08h34.05.775,task,2021.1.4,Win32,59.9880024,628b806c463b948bc644b84f,629afccdd26e5bad43830c9e,,,,,,,,,,X V Q F H G B L J M P D K C T S W R N Z,,,,,,,,,,,,,,,,,,,,,,,,,,,,,,,,,,,,,,,,,,,,,,,,,,,,,,,,,,,,,,,,,,,,,,,,,,,,0,0,0,0,1,,,,,,,,,,,,,
,,,,,,,,,,5d0e74d6c26b9e001a6b9def,25,Mężczyzna,2022-06-04_08h34.05.775,task,2021.1.4,Win32,59.9880024,628b806c463b948bc644b84f,629afccdd26e5bad43830c9e,,,,,,,,,,,,,,,,,,,,,,,5,,,,,,,,,,Task,36,(8/4) + 3,5,,,,,,,,,,,,,,,,,,,1,,,,,,,,,,,,,,,,,,,,,,,"[""5""]",1,[3.468200000017873],0,0,0,35,1,,,,,,,,,,,,,,,,,,
,,,,,,,,,,5d0e74d6c26b9e001a6b9def,25,Mężczyzna,2022-06-04_08h34.05.775,task,2021.1.4,Win32,59.9880024,628b806c463b948bc644b84f,629afccdd26e5bad43830c9e,,,,,,,,,,X V Q F H G B L J M P D K C T S W R N Z,,,,,,,,,,,,,,,,,,,,,,,,,,,,,,,,,,,,,,,,,,,,,,,,,,,,,,,,,,,,,,,,,,,,,,,,,,,,1,0,1,0,1,,,,,,,,,,,,,
,,,,,,,,,,5d0e74d6c26b9e001a6b9def,25,Mężczyzna,2022-06-04_08h34.05.775,task,2021.1.4,Win32,59.9880024,628b806c463b948bc644b84f,629afccdd26e5bad43830c9e,,,,,,,,,,,,,,,,,,,,,,,4,,,,,,,,,,Task,21,(10/2) - 1,4,,,,,,,,,,,,,,,,,,,1,,,,,,,,,,,,,,,,,,,,,,,"[""4""]",1,[2.782800000012003],0,0,0,20,1,,,,,,,,,,,,,,,,,,
,,,,,,,,,,5d0e74d6c26b9e001a6b9def,25,Mężczyzna,2022-06-04_08h34.05.775,task,2021.1.4,Win32,59.9880024,628b806c463b948bc644b84f,629afccdd26e5bad43830c9e,,,,,,,,,,X V Q F H G B L J M P D K C T S W R N Z,,,,,,,,,,,,,,,,,,,,,,,,,,,,,,,,,,,,,,,,,,,,,,,,,,,,,,,,,,,,,,,,,,,,,,,,,,,,2,0,2,0,1,,,,,,,,,,,,,
,,,,,,,,,,5d0e74d6c26b9e001a6b9def,25,Mężczyzna,2022-06-04_08h34.05.775,task,2021.1.4,Win32,59.9880024,628b806c463b948bc644b84f,629afccdd26e5bad43830c9e,,,,,,,,,,,,,,,,,,,,,,,,,,,,,,,,,,,,,,,,,,,,,,,,,,,,,,,,,,,,,,,,,,,,,,,,,,,,,,,,,,,,,,,,,,,hpm,"[""h"",""p"",""m""]",0,"[1.1890999999940277,1.6510000000000673,2.1176999999880763,3.0690000000000737]",1,HPM,1,0,1,0,1,,
,,,,,,,,,,5d0e74d6c26b9e001a6b9def,25,Mężczyzna,2022-06-04_08h34.05.775,task,2021.1.4,Win32,59.9880024,628b806c463b948bc644b84f,629afccdd26e5bad43830c9e,,,,,,,,,,,,,,,,,,,,,,,3,,,,,,,,,,Task,25,(10/5) - 2,0,,,,,,,,,,,,,,,,,,,0,,,,,,,,,,,,,,,,,,,,,,,"[""3""]",0,[3.2908000000119273],0,0,0,24,1,,,,,,,,,,,,,,,,,,
,,,,,,,,,,5d0e74d6c26b9e001a6b9def,25,Mężczyzna,2022-06-04_08h34.05.775,task,2021.1.4,Win32,59.9880024,628b806c463b948bc644b84f,629afccdd26e5bad43830c9e,,,,,,,,,,,,,,,,,,,,,,,0,,,,,,,,,,Task,8,(1x5) - 5,0,,,,,,,,,,,,,,,,,,,1,,,,,,,,,,,,,,,,,,,,,,,"[""0""]",1,[2.8664999999999736],0,1,1,7,1,,,,,,,,,,,,,,,,,,
,,,,,,,,,,5d0e74d6c26b9e001a6b9def,25,Mężczyzna,2022-06-04_08h34.05.775,task,2021.1.4,Win32,59.9880024,628b806c463b948bc644b84f,629afccdd26e5bad43830c9e,,,,,,,,,,X V Q F H G B L J M P D K C T S W R N Z,,,,,,,,,,,,,,,,,,,,,,,,,,,,,,,,,,,,,,,,,,,,,,,,,,,,,,,,,,,,,,,,,,,,,,,,,,,,0,0,0,0,1,,,,,,,,,,,,,
,,,,,,,,,,5d0e74d6c26b9e001a6b9def,25,Mężczyzna,2022-06-04_08h34.05.775,task,2021.1.4,Win32,59.9880024,628b806c463b948bc644b84f,629afccdd26e5bad43830c9e,,,,,,,,,,,,,,,,,,,,,,,7,,,,,,,,,,Task,38,(4x6) - 17,7,,,,,,,,,,,,,,,,,,,1,,,,,,,,,,,,,,,,,,,,,,,"[""7""]",1,[3.069299999982036],0,0,0,37,1,,,,,,,,,,,,,,,,,,
,,,,,,,,,,5d0e74d6c26b9e001a6b9def,25,Mężczyzna,2022-06-04_08h34.05.775,task,2021.1.4,Win32,59.9880024,628b806c463b948bc644b84f,629afccdd26e5bad43830c9e,,,,,,,,,,X V Q F H G B L J M P D K C T S W R N Z,,,,,,,,,,,,,,,,,,,,,,,,,,,,,,,,,,,,,,,,,,,,,,,,,,,,,,,,,,,,,,,,,,,,,,,,,,,,1,0,1,0,1,,,,,,,,,,,,,
,,,,,,,,,,5d0e74d6c26b9e001a6b9def,25,Mężczyzna,2022-06-04_08h34.05.775,task,2021.1.4,Win32,59.9880024,628b806c463b948bc644b84f,629afccdd26e5bad43830c9e,,,,,,,,,,,,,,,,,,,,,,,3,,,,,,,,,,Task,20,(18/9) + 1,3,,,,,,,,,,,,,,,,,,,1,,,,,,,,,,,,,,,,,,,,,,,"[""3""]",1,[1.6995999999940068],0,0,0,19,1,,,,,,,,,,,,,,,,,,
,,,,,,,,,,5d0e74d6c26b9e001a6b9def,25,Mężczyzna,2022-06-04_08h34.05.775,task,2021.1.4,Win32,59.9880024,628b806c463b948bc644b84f,629afccdd26e5bad43830c9e,,,,,,,,,,X V Q F H G B L J M P D K C T S W R N Z,,,,,,,,,,,,,,,,,,,,,,,,,,,,,,,,,,,,,,,,,,,,,,,,,,,,,,,,,,,,,,,,,,,,,,,,,,,,2,0,2,0,1,,,,,,,,,,,,,
,,,,,,,,,,5d0e74d6c26b9e001a6b9def,25,Mężczyzna,2022-06-04_08h34.05.775,task,2021.1.4,Win32,59.9880024,628b806c463b948bc644b84f,629afccdd26e5bad43830c9e,,,,,,,,,,,,,,,,,,,,,,,8,,,,,,,,,,Task,23,(2x3) + 2,8,,,,,,,,,,,,,,,,,,,1,,,,,,,,,,,,,,,,,,,,,,,"[""8""]",1,[2.850099999994086],0,0,0,22,1,,,,,,,,,,,,,,,,,,
,,,,,,,,,,5d0e74d6c26b9e001a6b9def,25,Mężczyzna,2022-06-04_08h34.05.775,task,2021.1.4,Win32,59.9880024,628b806c463b948bc644b84f,629afccdd26e5bad43830c9e,,,,,,,,,,X V Q F H G B L J M P D K C T S W R N Z,,,,,,,,,,,,,,,,,,,,,,,,,,,,,,,,,,,,,,,,,,,,,,,,,,,,,,,,,,,,,,,,,,,,,,,,,,,,3,0,3,0,1,,,,,,,,,,,,,
,,,,,,,,,,5d0e74d6c26b9e001a6b9def,25,Mężczyzna,2022-06-04_08h34.05.775,task,2021.1.4,Win32,59.9880024,628b806c463b948bc644b84f,629afccdd26e5bad43830c9e,,,,,,,,,,,,,,,,,,,,,,,,,,,,,,,,,,,,,,,,,,,,,,,,,,,,,,,,,,,,,,,,,,,,,,,,,,,,,,,,,,,,,,,,,,,qxvw,"[""q"",""x"",""v"",""w""]",0,"[1.40119999998808,2.151099999994017,2.6083000000119227,2.8345999999939977,4.176599999993982]",1,QXVW,2,0,2,0,1,,
,,,,,,,,,,5d0e74d6c26b9e001a6b9def,25,Mężczyzna,2022-06-04_08h34.05.775,task,2021.1.4,Win32,59.9880024,628b806c463b948bc644b84f,629afccdd26e5bad43830c9e,,,,,,,,,,,,,,,,,,,,,,,6,,,,,,,,,,Task,13,(3x4) - 6,6,,,,,,,,,,,,,,,,,,,1,,,,,,,,,,,,,,,,,,,,,,,"[""6""]",1,[2.1000000000000227],0,0,0,12,1,,,,,,,,,,,,,,,,,,
,,,,,,,,,,5d0e74d6c26b9e001a6b9def,25,Mężczyzna,2022-06-04_08h34.05.775,task,2021.1.4,Win32,59.9880024,628b806c463b948bc644b84f,629afccdd26e5bad43830c9e,,,,,,,,,,X V Q F H G B L J M P D K C T S W R N Z,,,,,,,,,,,,,,,,,,,,,,,,,,,,,,,,,,,,,,,,,,,,,,,,,,,,,,,,,,,,,,,,,,,,,,,,,,,,0,0,0,0,1,,,,,,,,,,,,,
,,,,,,,,,,5d0e74d6c26b9e001a6b9def,25,Mężczyzna,2022-06-04_08h34.05.775,task,2021.1.4,Win32,59.9880024,628b806c463b948bc644b84f,629afccdd26e5bad43830c9e,,,,,,,,,,,,,,,,,,,,,,,2,,,,,,,,,,Task,10,(2x5) - 8,2,,,,,,,,,,,,,,,,,,,1,,,,,,,,,,,,,,,,,,,,,,,"[""2""]",1,[1.499599999994075],0,0,0,9,1,,,,,,,,,,,,,,,,,,
,,,,,,,,,,5d0e74d6c26b9e001a6b9def,25,Mężczyzna,2022-06-04_08h34.05.775,task,2021.1.4,Win32,59.9880024,628b806c463b948bc644b84f,629afccdd26e5bad43830c9e,,,,,,,,,,X V Q F H G B L J M P D K C T S W R N Z,,,,,,,,,,,,,,,,,,,,,,,,,,,,,,,,,,,,,,,,,,,,,,,,,,,,,,,,,,,,,,,,,,,,,,,,,,,,1,0,1,0,1,,,,,,,,,,,,,
,,,,,,,,,,5d0e74d6c26b9e001a6b9def,25,Mężczyzna,2022-06-04_08h34.05.775,task,2021.1.4,Win32,59.9880024,628b806c463b948bc644b84f,629afccdd26e5bad43830c9e,,,,,,,,,,,,,,,,,,,,,,,3,,,,,,,,,,Task,3,(2x3) - 3,3,,,,,,,,,,,,,,,,,,,1,,,,,,,,,,,,,,,,,,,,,,,"[""3""]",1,[2.471200000017916],0,0,0,2,1,,,,,,,,,,,,,,,,,,
,,,,,,,,,,5d0e74d6c26b9e001a6b9def,25,Mężczyzna,2022-06-04_08h34.05.775,task,2021.1.4,Win32,59.9880024,628b806c463b948bc644b84f,629afccdd26e5bad43830c9e,,,,,,,,,,X V Q F H G B L J M P D K C T S W R N Z,,,,,,,,,,,,,,,,,,,,,,,,,,,,,,,,,,,,,,,,,,,,,,,,,,,,,,,,,,,,,,,,,,,,,,,,,,,,2,0,2,0,1,,,,,,,,,,,,,
,,,,,,,,,,5d0e74d6c26b9e001a6b9def,25,Mężczyzna,2022-06-04_08h34.05.775,task,2021.1.4,Win32,59.9880024,628b806c463b948bc644b84f,629afccdd26e5bad43830c9e,,,,,,,,,,,,,,,,,,,,,,,0,,,,,,,,,,Task,17,(2x3) - 6,0,,,,,,,,,,,,,,,,,,,1,,,,,,,,,,,,,,,,,,,,,,,"[""0""]",1,[2.707900000005907],0,0,0,16,1,,,,,,,,,,,,,,,,,,
,,,,,,,,,,5d0e74d6c26b9e001a6b9def,25,Mężczyzna,2022-06-04_08h34.05.775,task,2021.1.4,Win32,59.9880024,628b806c463b948bc644b84f,629afccdd26e5bad43830c9e,,,,,,,,,,X V Q F H G B L J M P D K C T S W R N Z,,,,,,,,,,,,,,,,,,,,,,,,,,,,,,,,,,,,,,,,,,,,,,,,,,,,,,,,,,,,,,,,,,,,,,,,,,,,3,0,3,0,1,,,,,,,,,,,,,
,,,,,,,,,,5d0e74d6c26b9e001a6b9def,25,Mężczyzna,2022-06-04_08h34.05.775,task,2021.1.4,Win32,59.9880024,628b806c463b948bc644b84f,629afccdd26e5bad43830c9e,,,,,,,,,,,,,,,,,,,,,,,2,,,,,,,,,,Task,10,(2x5) - 8,2,,,,,,,,,,,,,,,,,,,1,,,,,,,,,,,,,,,,,,,,,,,"[""2""]",1,[2.217599999994036],0,0,0,9,1,,,,,,,,,,,,,,,,,,
,,,,,,,,,,5d0e74d6c26b9e001a6b9def,25,Mężczyzna,2022-06-04_08h34.05.775,task,2021.1.4,Win32,59.9880024,628b806c463b948bc644b84f,629afccdd26e5bad43830c9e,,,,,,,,,,X V Q F H G B L J M P D K C T S W R N Z,,,,,,,,,,,,,,,,,,,,,,,,,,,,,,,,,,,,,,,,,,,,,,,,,,,,,,,,,,,,,,,,,,,,,,,,,,,,4,0,4,0,1,,,,,,,,,,,,,
,,,,,,,,,,5d0e74d6c26b9e001a6b9def,25,Mężczyzna,2022-06-04_08h34.05.775,task,2021.1.4,Win32,59.9880024,628b806c463b948bc644b84f,629afccdd26e5bad43830c9e,,,,,,,,,,,,,,,,,,,,,,,,,,,,,,,,,,,,,,,,,,,,,,,,,,,,,,,,,,,,,,,,,,,,,,,,,,,,,,,,,,,,,,,,,,,cdqzr,"[""c"",""d"",""q"",""z"",""r""]",0,"[1.100900000005936,1.3340999999941232,1.717599999994036,1.9892999999821086,2.485299999982203,3.4854000000059386]",1,CDQZR,3,0,3,0,1,,
,,,,,,,,,,5d0e74d6c26b9e001a6b9def,25,Mężczyzna,2022-06-04_08h34.05.775,task,2021.1.4,Win32,59.9880024,628b806c463b948bc644b84f,629afccdd26e5bad43830c9e,,,,,,,,,,,,,,,,,,,,,,,6,,,,,,,,,,Task,13,(3x4) - 6,6,,,,,,,,,,,,,,,,,,,1,,,,,,,,,,,,,,,,,,,,,,,"[""6""]",1,[2.367099999994025],0,0,0,12,1,,,,,,,,,,,,,,,,,,
,,,,,,,,,,5d0e74d6c26b9e001a6b9def,25,Mężczyzna,2022-06-04_08h34.05.775,task,2021.1.4,Win32,59.9880024,628b806c463b948bc644b84f,629afccdd26e5bad43830c9e,,,,,,,,,,X V Q F H G B L J M P D K C T S W R N Z,,,,,,,,,,,,,,,,,,,,,,,,,,,,,,,,,,,,,,,,,,,,,,,,,,,,,,,,,,,,,,,,,,,,,,,,,,,,0,0,0,0,1,,,,,,,,,,,,,
,,,,,,,,,,5d0e74d6c26b9e001a6b9def,25,Mężczyzna,2022-06-04_08h34.05.775,task,2021.1.4,Win32,59.9880024,628b806c463b948bc644b84f,629afccdd26e5bad43830c9e,,,,,,,,,,,,,,,,,,,,,,,6,,,,,,,,,,Task,13,(3x4) - 6,6,,,,,,,,,,,,,,,,,,,1,,,,,,,,,,,,,,,,,,,,,,,"[""6""]",1,[2.1191999999881546],0,0,0,12,1,,,,,,,,,,,,,,,,,,
,,,,,,,,,,5d0e74d6c26b9e001a6b9def,25,Mężczyzna,2022-06-04_08h34.05.775,task,2021.1.4,Win32,59.9880024,628b806c463b948bc644b84f,629afccdd26e5bad43830c9e,,,,,,,,,,X V Q F H G B L J M P D K C T S W R N Z,,,,,,,,,,,,,,,,,,,,,,,,,,,,,,,,,,,,,,,,,,,,,,,,,,,,,,,,,,,,,,,,,,,,,,,,,,,,1,0,1,0,1,,,,,,,,,,,,,
,,,,,,,,,,5d0e74d6c26b9e001a6b9def,25,Mężczyzna,2022-06-04_08h34.05.775,task,2021.1.4,Win32,59.9880024,628b806c463b948bc644b84f,629afccdd26e5bad43830c9e,,,,,,,,,,,,,,,,,,,,,,,5,,,,,,,,,,Task,39,(5x3) - 7,8,,,,,,,,,,,,,,,,,,,0,,,,,,,,,,,,,,,,,,,,,,,"[""5""]",0,[2.2519999999999527],0,0,0,38,1,,,,,,,,,,,,,,,,,,
,,,,,,,,,,5d0e74d6c26b9e001a6b9def,25,Mężczyzna,2022-06-04_08h34.05.775,task,2021.1.4,Win32,59.9880024,628b806c463b948bc644b84f,629afccdd26e5bad43830c9e,,,,,,,,,,,,,,,,,,,,,,,2,,,,,,,,,,Task,2,(2x2) - 2,2,,,,,,,,,,,,,,,,,,,1,,,,,,,,,,,,,,,,,,,,,,,"[""2""]",1,[2.1667999999821177],0,1,1,1,1,,,,,,,,,,,,,,,,,,
,,,,,,,,,,5d0e74d6c26b9e001a6b9def,25,Mężczyzna,2022-06-04_08h34.05.775,task,2021.1.4,Win32,59.9880024,628b806c463b948bc644b84f,629afccdd26e5bad43830c9e,,,,,,,,,,X V Q F H G B L J M P D K C T S W R N Z,,,,,,,,,,,,,,,,,,,,,,,,,,,,,,,,,,,,,,,,,,,,,,,,,,,,,,,,,,,,,,,,,,,,,,,,,,,,2,0,2,0,1,,,,,,,,,,,,,
,,,,,,,,,,5d0e74d6c26b9e001a6b9def,25,Mężczyzna,2022-06-04_08h34.05.775,task,2021.1.4,Win32,59.9880024,628b806c463b948bc644b84f,629afccdd26e5bad43830c9e,,,,,,,,,,,,,,,,,,,,,,,6,,,,,,,,,,Task,5,(2x3) + 0,6,,,,,,,,,,,,,,,,,,,1,,,,,,,,,,,,,,,,,,,,,,,"[""6""]",1,[2.653299999982096],0,0,0,4,1,,,,,,,,,,,,,,,,,,
,,,,,,,,,,5d0e74d6c26b9e001a6b9def,25,Mężczyzna,2022-06-04_08h34.05.775,task,2021.1.4,Win32,59.9880024,628b806c463b948bc644b84f,629afccdd26e5bad43830c9e,,,,,,,,,,X V Q F H G B L J M P D K C T S W R N Z,,,,,,,,,,,,,,,,,,,,,,,,,,,,,,,,,,,,,,,,,,,,,,,,,,,,,,,,,,,,,,,,,,,,,,,,,,,,3,0,3,0,1,,,,,,,,,,,,,
,,,,,,,,,,5d0e74d6c26b9e001a6b9def,25,Mężczyzna,2022-06-04_08h34.05.775,task,2021.1.4,Win32,59.9880024,628b806c463b948bc644b84f,629afccdd26e5bad43830c9e,,,,,,,,,,,,,,,,,,,,,,,4,,,,,,,,,,Task,4,(1x5) - 1,4,,,,,,,,,,,,,,,,,,,1,,,,,,,,,,,,,,,,,,,,,,,"[""4""]",1,[1.7998000000119418],0,0,0,3,1,,,,,,,,,,,,,,,,,,
,,,,,,,,,,5d0e74d6c26b9e001a6b9def,25,Mężczyzna,2022-06-04_08h34.05.775,task,2021.1.4,Win32,59.9880024,628b806c463b948bc644b84f,629afccdd26e5bad43830c9e,,,,,,,,,,X V Q F H G B L J M P D K C T S W R N Z,,,,,,,,,,,,,,,,,,,,,,,,,,,,,,,,,,,,,,,,,,,,,,,,,,,,,,,,,,,,,,,,,,,,,,,,,,,,4,0,4,0,1,,,,,,,,,,,,,
,,,,,,,,,,5d0e74d6c26b9e001a6b9def,25,Mężczyzna,2022-06-04_08h34.05.775,task,2021.1.4,Win32,59.9880024,628b806c463b948bc644b84f,629afccdd26e5bad43830c9e,,,,,,,,,,,,,,,,,,,,,,,0,,,,,,,,,,Task,8,(1x5) - 5,0,,,,,,,,,,,,,,,,,,,1,,,,,,,,,,,,,,,,,,,,,,,"[""0""]",1,[2.0663000000118927],0,0,0,7,1,,,,,,,,,,,,,,,,,,
,,,,,,,,,,5d0e74d6c26b9e001a6b9def,25,Mężczyzna,2022-06-04_08h34.05.775,task,2021.1.4,Win32,59.9880024,628b806c463b948bc644b84f,629afccdd26e5bad43830c9e,,,,,,,,,,X V Q F H G B L J M P D K C T S W R N Z,,,,,,,,,,,,,,,,,,,,,,,,,,,,,,,,,,,,,,,,,,,,,,,,,,,,,,,,,,,,,,,,,,,,,,,,,,,,5,0,5,0,1,,,,,,,,,,,,,
,,,,,,,,,,5d0e74d6c26b9e001a6b9def,25,Mężczyzna,2022-06-04_08h34.05.775,task,2021.1.4,Win32,59.9880024,628b806c463b948bc644b84f,629afccdd26e5bad43830c9e,,,,,,,,,,,,,,,,,,,,,,,,,,,,,,,,,,,,,,,,,,,,,,,,,,,,,,,,,,,,,,,,,,,,,,,,,,,,,,,,,,,,,,,,,,,mpzzvs,"[""m"",""p"",""z"",""z"",""v"",""s""]",0,"[1.4012999999821432,2.8413999999761472,3.417799999982094,3.585199999988049,4.009799999982192,4.084500000000048,5.353099999994015]",1,MPZZVS,4,0,4,0,1,,
,,,,,,,,,,5d0e74d6c26b9e001a6b9def,25,Mężczyzna,2022-06-04_08h34.05.775,task,2021.1.4,Win32,59.9880024,628b806c463b948bc644b84f,629afccdd26e5bad43830c9e,,,,,,,,,,,,,,,,,,,,,,,8,,,,,,,,,,Task,23,(2x3) + 2,8,,,,,,,,,,,,,,,,,,,1,,,,,,,,,,,,,,,,,,,,,,,"[""8""]",1,[2.0666000000238682],0,0,0,22,1,,,,,,,,,,,,,,,,,,
,,,,,,,,,,5d0e74d6c26b9e001a6b9def,25,Mężczyzna,2022-06-04_08h34.05.775,task,2021.1.4,Win32,59.9880024,628b806c463b948bc644b84f,629afccdd26e5bad43830c9e,,,,,,,,,,X V Q F H G B L J M P D K C T S W R N Z,,,,,,,,,,,,,,,,,,,,,,,,,,,,,,,,,,,,,,,,,,,,,,,,,,,,,,,,,,,,,,,,,,,,,,,,,,,,0,0,0,0,1,,,,,,,,,,,,,
,,,,,,,,,,5d0e74d6c26b9e001a6b9def,25,Mężczyzna,2022-06-04_08h34.05.775,task,2021.1.4,Win32,59.9880024,628b806c463b948bc644b84f,629afccdd26e5bad43830c9e,,,,,,,,,,,,,,,,,,,,,,,7,,,,,,,,,,Task,6,(12/2) + 1,7,,,,,,,,,,,,,,,,,,,1,,,,,,,,,,,,,,,,,,,,,,,"[""7""]",1,[3.0691999999880863],0,0,0,5,1,,,,,,,,,,,,,,,,,,
,,,,,,,,,,5d0e74d6c26b9e001a6b9def,25,Mężczyzna,2022-06-04_08h34.05.775,task,2021.1.4,Win32,59.9880024,628b806c463b948bc644b84f,629afccdd26e5bad43830c9e,,,,,,,,,,X V Q F H G B L J M P D K C T S W R N Z,,,,,,,,,,,,,,,,,,,,,,,,,,,,,,,,,,,,,,,,,,,,,,,,,,,,,,,,,,,,,,,,,,,,,,,,,,,,1,0,1,0,1,,,,,,,,,,,,,
,,,,,,,,,,5d0e74d6c26b9e001a6b9def,25,Mężczyzna,2022-06-04_08h34.05.775,task,2021.1.4,Win32,59.9880024,628b806c463b948bc644b84f,629afccdd26e5bad43830c9e,,,,,,,,,,,,,,,,,,,,,,,2,,,,,,,,,,Task,19,(6/2) - 1,2,,,,,,,,,,,,,,,,,,,1,,,,,,,,,,,,,,,,,,,,,,,"[""2""]",1,[1.5566999999880409],0,0,0,18,1,,,,,,,,,,,,,,,,,,
,,,,,,,,,,5d0e74d6c26b9e001a6b9def,25,Mężczyzna,2022-06-04_08h34.05.775,task,2021.1.4,Win32,59.9880024,628b806c463b948bc644b84f,629afccdd26e5bad43830c9e,,,,,,,,,,X V Q F H G B L J M P D K C T S W R N Z,,,,,,,,,,,,,,,,,,,,,,,,,,,,,,,,,,,,,,,,,,,,,,,,,,,,,,,,,,,,,,,,,,,,,,,,,,,,2,0,2,0,1,,,,,,,,,,,,,
,,,,,,,,,,5d0e74d6c26b9e001a6b9def,25,Mężczyzna,2022-06-04_08h34.05.775,task,2021.1.4,Win32,59.9880024,628b806c463b948bc644b84f,629afccdd26e5bad43830c9e,,,,,,,,,,,,,,,,,,,,,,,4,,,,,,,,,,Task,28,(2x5) - 6,4,,,,,,,,,,,,,,,,,,,1,,,,,,,,,,,,,,,,,,,,,,,"[""4""]",1,[2.536400000005983],0,0,0,27,1,,,,,,,,,,,,,,,,,,
,,,,,,,,,,5d0e74d6c26b9e001a6b9def,25,Mężczyzna,2022-06-04_08h34.05.775,task,2021.1.4,Win32,59.9880024,628b806c463b948bc644b84f,629afccdd26e5bad43830c9e,,,,,,,,,,X V Q F H G B L J M P D K C T S W R N Z,,,,,,,,,,,,,,,,,,,,,,,,,,,,,,,,,,,,,,,,,,,,,,,,,,,,,,,,,,,,,,,,,,,,,,,,,,,,3,0,3,0,1,,,,,,,,,,,,,
,,,,,,,,,,5d0e74d6c26b9e001a6b9def,25,Mężczyzna,2022-06-04_08h34.05.775,task,2021.1.4,Win32,59.9880024,628b806c463b948bc644b84f,629afccdd26e5bad43830c9e,,,,,,,,,,,,,,,,,,,,,,,0,,,,,,,,,,Task,8,(1x5) - 5,0,,,,,,,,,,,,,,,,,,,1,,,,,,,,,,,,,,,,,,,,,,,"[""0""]",1,[1.8050000000000637],0,0,0,7,1,,,,,,,,,,,,,,,,,,
,,,,,,,,,,5d0e74d6c26b9e001a6b9def,25,Mężczyzna,2022-06-04_08h34.05.775,task,2021.1.4,Win32,59.9880024,628b806c463b948bc644b84f,629afccdd26e5bad43830c9e,,,,,,,,,,X V Q F H G B L J M P D K C T S W R N Z,,,,,,,,,,,,,,,,,,,,,,,,,,,,,,,,,,,,,,,,,,,,,,,,,,,,,,,,,,,,,,,,,,,,,,,,,,,,4,0,4,0,1,,,,,,,,,,,,,
,,,,,,,,,,5d0e74d6c26b9e001a6b9def,25,Mężczyzna,2022-06-04_08h34.05.775,task,2021.1.4,Win32,59.9880024,628b806c463b948bc644b84f,629afccdd26e5bad43830c9e,,,,,,,,,,,,,,,,,,,,,,,3,,,,,,,,,,Task,35,(1x2) + 1,3,,,,,,,,,,,,,,,,,,,1,,,,,,,,,,,,,,,,,,,,,,,"[""3""]",1,[3.0496000000238155],0,0,0,34,1,,,,,,,,,,,,,,,,,,
,,,,,,,,,,5d0e74d6c26b9e001a6b9def,25,Mężczyzna,2022-06-04_08h34.05.775,task,2021.1.4,Win32,59.9880024,628b806c463b948bc644b84f,629afccdd26e5bad43830c9e,,,,,,,,,,X V Q F H G B L J M P D K C T S W R N Z,,,,,,,,,,,,,,,,,,,,,,,,,,,,,,,,,,,,,,,,,,,,,,,,,,,,,,,,,,,,,,,,,,,,,,,,,,,,5,0,5,0,1,,,,,,,,,,,,,
,,,,,,,,,,5d0e74d6c26b9e001a6b9def,25,Mężczyzna,2022-06-04_08h34.05.775,task,2021.1.4,Win32,59.9880024,628b806c463b948bc644b84f,629afccdd26e5bad43830c9e,,,,,,,,,,,,,,,,,,,,,,,,,,,,,,,,,Task,11,(18/3) - 2,4,,,,,,,,,,,,,,,,,,,0,,,,,,,,,,,,,,,,,,,,,,,,0,,0,0,0,10,1,,,,,,,,,,,,,,,,,,
,,,,,,,,,,5d0e74d6c26b9e001a6b9def,25,Mężczyzna,2022-06-04_08h34.05.775,task,2021.1.4,Win32,59.9880024,628b806c463b948bc644b84f,629afccdd26e5bad43830c9e,,,,,,,,,,,,,,,,,,,,,,,0,,,,,,,,,,Task,17,(2x3) - 6,0,,,,,,,,,,,,,,,,,,,1,,,,,,,,,,,,,,,,,,,,,,,"[""0""]",1,[1.4837000000178477],0,1,1,16,1,,,,,,,,,,,,,,,,,,
,,,,,,,,,,5d0e74d6c26b9e001a6b9def,25,Mężczyzna,2022-06-04_08h34.05.775,task,2021.1.4,Win32,59.9880024,628b806c463b948bc644b84f,629afccdd26e5bad43830c9e,,,,,,,,,,X V Q F H G B L J M P D K C T S W R N Z,,,,,,,,,,,,,,,,,,,,,,,,,,,,,,,,,,,,,,,,,,,,,,,,,,,,,,,,,,,,,,,,,,,,,,,,,,,,6,0,6,0,1,,,,,,,,,,,,,
,,,,,,,,,,5d0e74d6c26b9e001a6b9def,25,Mężczyzna,2022-06-04_08h34.05.775,task,2021.1.4,Win32,59.9880024,628b806c463b948bc644b84f,629afccdd26e5bad43830c9e,,,,,,,,,,,,,,,,,,,,,,,,,,,,,,,,,,,,,,,,,,,,,,,,,,,,,,,,,,,,,,,,,,,,,,,,,,,,,,,,,,,,,,,,,,,mdlpmxw,"[""m"",""d"",""l"",""p"",""m"",""x"",""w""]",0,"[2.4207000000178596,3.3176000000238446,5.834300000011922,6.101100000023848,6.901200000017866,7.067700000017908,7.351100000023848,9.108600000023898]",0,MLDPMXW,5,0,5,0,1,,
,,,,,,,,,,5d0e74d6c26b9e001a6b9def,25,Mężczyzna,2022-06-04_08h34.05.775,task,2021.1.4,Win32,59.9880024,628b806c463b948bc644b84f,629afccdd26e5bad43830c9e,,,,,,,,,,,,,,,,,,,,,,,0,,,,,,,,,,Task,33,(1/1) - 1,0,,,,,,,,,,,,,,,,,,,1,,,,,,,,,,,,,,,,,,,,,,,"[""0""]",1,[1.9339000000060196],0,0,0,32,1,,,,,,,,,,,,,,,,,,
,,,,,,,,,,5d0e74d6c26b9e001a6b9def,25,Mężczyzna,2022-06-04_08h34.05.775,task,2021.1.4,Win32,59.9880024,628b806c463b948bc644b84f,629afccdd26e5bad43830c9e,,,,,,,,,,X V Q F H G B L J M P D K C T S W R N Z,,,,,,,,,,,,,,,,,,,,,,,,,,,,,,,,,,,,,,,,,,,,,,,,,,,,,,,,,,,,,,,,,,,,,,,,,,,,0,0,0,0,1,,,,,,,,,,,,,
,,,,,,,,,,5d0e74d6c26b9e001a6b9def,25,Mężczyzna,2022-06-04_08h34.05.775,task,2021.1.4,Win32,59.9880024,628b806c463b948bc644b84f,629afccdd26e5bad43830c9e,,,,,,,,,,,,,,,,,,,,,,,2,,,,,,,,,,Task,10,(2x5) - 8,2,,,,,,,,,,,,,,,,,,,1,,,,,,,,,,,,,,,,,,,,,,,"[""2""]",1,[2.522299999982124],0,0,0,9,1,,,,,,,,,,,,,,,,,,
,,,,,,,,,,5d0e74d6c26b9e001a6b9def,25,Mężczyzna,2022-06-04_08h34.05.775,task,2021.1.4,Win32,59.9880024,628b806c463b948bc644b84f,629afccdd26e5bad43830c9e,,,,,,,,,,X V Q F H G B L J M P D K C T S W R N Z,,,,,,,,,,,,,,,,,,,,,,,,,,,,,,,,,,,,,,,,,,,,,,,,,,,,,,,,,,,,,,,,,,,,,,,,,,,,1,0,1,0,1,,,,,,,,,,,,,
,,,,,,,,,,5d0e74d6c26b9e001a6b9def,25,Mężczyzna,2022-06-04_08h34.05.775,task,2021.1.4,Win32,59.9880024,628b806c463b948bc644b84f,629afccdd26e5bad43830c9e,,,,,,,,,,,,,,,,,,,,,,,0,,,,,,,,,,Task,33,(1/1) - 1,0,,,,,,,,,,,,,,,,,,,1,,,,,,,,,,,,,,,,,,,,,,,"[""0""]",1,[1.749599999994075],0,0,0,32,1,,,,,,,,,,,,,,,,,,
,,,,,,,,,,5d0e74d6c26b9e001a6b9def,25,Mężczyzna,2022-06-04_08h34.05.775,task,2021.1.4,Win32,59.9880024,628b806c463b948bc644b84f,629afccdd26e5bad43830c9e,,,,,,,,,,X V Q F H G B L J M P D K C T S W R N Z,,,,,,,,,,,,,,,,,,,,,,,,,,,,,,,,,,,,,,,,,,,,,,,,,,,,,,,,,,,,,,,,,,,,,,,,,,,,2,0,2,0,1,,,,,,,,,,,,,
,,,,,,,,,,5d0e74d6c26b9e001a6b9def,25,Mężczyzna,2022-06-04_08h34.05.775,task,2021.1.4,Win32,59.9880024,628b806c463b948bc644b84f,629afccdd26e5bad43830c9e,,,,,,,,,,,,,,,,,,,,,,,9,,,,,,,,,,Task,40,(7x2) - 5,9,,,,,,,,,,,,,,,,,,,1,,,,,,,,,,,,,,,,,,,,,,,"[""9""]",1,[2.1163999999761245],0,0,0,39,1,,,,,,,,,,,,,,,,,,
,,,,,,,,,,5d0e74d6c26b9e001a6b9def,25,Mężczyzna,2022-06-04_08h34.05.775,task,2021.1.4,Win32,59.9880024,628b806c463b948bc644b84f,629afccdd26e5bad43830c9e,,,,,,,,,,X V Q F H G B L J M P D K C T S W R N Z,,,,,,,,,,,,,,,,,,,,,,,,,,,,,,,,,,,,,,,,,,,,,,,,,,,,,,,,,,,,,,,,,,,,,,,,,,,,3,0,3,0,1,,,,,,,,,,,,,
,,,,,,,,,,5d0e74d6c26b9e001a6b9def,25,Mężczyzna,2022-06-04_08h34.05.775,task,2021.1.4,Win32,59.9880024,628b806c463b948bc644b84f,629afccdd26e5bad43830c9e,,,,,,,,,,,,,,,,,,,,,,,8,,,,,,,,,,Task,23,(2x3) + 2,8,,,,,,,,,,,,,,,,,,,1,,,,,,,,,,,,,,,,,,,,,,,"[""8""]",1,[1.7830999999940786],0,0,0,22,1,,,,,,,,,,,,,,,,,,
,,,,,,,,,,5d0e74d6c26b9e001a6b9def,25,Mężczyzna,2022-06-04_08h34.05.775,task,2021.1.4,Win32,59.9880024,628b806c463b948bc644b84f,629afccdd26e5bad43830c9e,,,,,,,,,,X V Q F H G B L J M P D K C T S W R N Z,,,,,,,,,,,,,,,,,,,,,,,,,,,,,,,,,,,,,,,,,,,,,,,,,,,,,,,,,,,,,,,,,,,,,,,,,,,,4,0,4,0,1,,,,,,,,,,,,,
,,,,,,,,,,5d0e74d6c26b9e001a6b9def,25,Mężczyzna,2022-06-04_08h34.05.775,task,2021.1.4,Win32,59.9880024,628b806c463b948bc644b84f,629afccdd26e5bad43830c9e,,,,,,,,,,,,,,,,,,,,,,,9,,,,,,,,,,Task,40,(7x2) - 5,9,,,,,,,,,,,,,,,,,,,1,,,,,,,,,,,,,,,,,,,,,,,"[""9""]",1,[1.9375],0,0,0,39,1,,,,,,,,,,,,,,,,,,
,,,,,,,,,,5d0e74d6c26b9e001a6b9def,25,Mężczyzna,2022-06-04_08h34.05.775,task,2021.1.4,Win32,59.9880024,628b806c463b948bc644b84f,629afccdd26e5bad43830c9e,,,,,,,,,,X V Q F H G B L J M P D K C T S W R N Z,,,,,,,,,,,,,,,,,,,,,,,,,,,,,,,,,,,,,,,,,,,,,,,,,,,,,,,,,,,,,,,,,,,,,,,,,,,,5,0,5,0,1,,,,,,,,,,,,,
,,,,,,,,,,5d0e74d6c26b9e001a6b9def,25,Mężczyzna,2022-06-04_08h34.05.775,task,2021.1.4,Win32,59.9880024,628b806c463b948bc644b84f,629afccdd26e5bad43830c9e,,,,,,,,,,,,,,,,,,,,,,,,,,,,,,,,,Task,39,(5x3) - 7,8,,,,,,,,,,,,,,,,,,,0,,,,,,,,,,,,,,,,,,,,,,,,0,,0,0,0,38,1,,,,,,,,,,,,,,,,,,
,,,,,,,,,,5d0e74d6c26b9e001a6b9def,25,Mężczyzna,2022-06-04_08h34.05.775,task,2021.1.4,Win32,59.9880024,628b806c463b948bc644b84f,629afccdd26e5bad43830c9e,,,,,,,,,,,,,,,,,,,,,,,2,,,,,,,,,,Task,19,(6/2) - 1,2,,,,,,,,,,,,,,,,,,,1,,,,,,,,,,,,,,,,,,,,,,,"[""2""]",1,[3.101699999988],0,1,1,18,1,,,,,,,,,,,,,,,,,,
,,,,,,,,,,5d0e74d6c26b9e001a6b9def,25,Mężczyzna,2022-06-04_08h34.05.775,task,2021.1.4,Win32,59.9880024,628b806c463b948bc644b84f,629afccdd26e5bad43830c9e,,,,,,,,,,X V Q F H G B L J M P D K C T S W R N Z,,,,,,,,,,,,,,,,,,,,,,,,,,,,,,,,,,,,,,,,,,,,,,,,,,,,,,,,,,,,,,,,,,,,,,,,,,,,6,0,6,0,1,,,,,,,,,,,,,
,,,,,,,,,,5d0e74d6c26b9e001a6b9def,25,Mężczyzna,2022-06-04_08h34.05.775,task,2021.1.4,Win32,59.9880024,628b806c463b948bc644b84f,629afccdd26e5bad43830c9e,,,,,,,,,,,,,,,,,,,,,,,,,,,,,,,,,,,,,,,,,,,,,,,,,,,,,,,,,,,,,,,,,,,,,,,,,,,,,,,,,,,,,,,,,,,lhpjsp,"[""l"",""h"",""p"",""j"",""s"",""p""]",0,"[1.75080000001185,2.0059000000059086,2.2519000000058895,2.590000000000032,2.853999999999928,3.021900000005985,7.118100000023787]",0,LHPLJSP,6,0,6,0,1,,
,,,,,,,,,,5d0e74d6c26b9e001a6b9def,25,Mężczyzna,2022-06-04_08h34.05.775,task,2021.1.4,Win32,59.9880024,628b806c463b948bc644b84f,629afccdd26e5bad43830c9e,,,,,,,,,,,,,,,,,,,,,,,,,,,,,,,,,,,,,,,,,,,,,,,,,,,,,,,,,,,,,,,,,,,,,,,,,,,,,,,,,,,,,,,,,,,,,,,,,,,,,,space,1.8338
