key_resp_15.keys,key_resp_15.rt,key_resp_13.keys,key_resp_13.corr,key_resp_13.rt,ranodm_loop.thisRepN,ranodm_loop.thisTrialN,ranodm_loop.thisN,ranodm_loop.thisIndex,ranodm_loop.ran,participant,Wiek*,Płeć,date,expName,psychopyVersion,OS,frameRate,study_id,session,key_resp_16.keys,key_resp_16.rt,key_resp_4.keys,key_resp_4.rt,next_letter.thisRepN,next_letter.thisTrialN,next_letter.thisN,next_letter.thisIndex,next_letter.ran,letter,simple_recall,key_resp_5.keys,key_resp_5.rt,simple_recall_corr,simple_recall_corrkeys,next_level.thisRepN,next_level.thisTrialN,next_level.thisN,next_level.thisIndex,next_level.ran,key_resp_2.keys,key_resp_2.rt,digit_answer,key_resp.keys,key_resp.corr,key_resp.rt,RT_list,next_equation.thisRepN,next_equation.thisTrialN,next_equation.thisN,next_equation.thisIndex,next_equation.ran,Task,Trial,Problem,Operation_answer,sumRT,meanRT,sumdiff,sd,RT,key_resp_3.keys,key_resp_3.rt,repeat_practice.thisRepN,repeat_practice.thisTrialN,repeat_practice.thisN,repeat_practice.thisIndex,repeat_practice.ran,processing_score,key_resp_6.keys,key_resp_6.rt,key_resp_11.keys,key_resp_11.corr,key_resp_11.rt,operation_correct,repeat_if_wrong_prac.thisRepN,repeat_if_wrong_prac.thisTrialN,repeat_if_wrong_prac.thisN,repeat_if_wrong_prac.thisIndex,repeat_if_wrong_prac.ran,span_size_prac.thisRepN,span_size_prac.thisTrialN,span_size_prac.thisN,span_size_prac.thisIndex,span_size_prac.ran,complex_recall_practice,key_resp_9.keys,key_resp_9.corr,key_resp_9.rt,complex_prac_corr,span_recall_prac.thisRepN,span_recall_prac.thisTrialN,span_recall_prac.thisN,span_recall_prac.thisIndex,span_recall_prac.ran,key_resp_10.keys,key_resp_10.rt,key_resp_7.keys,key_resp_7.corr,key_resp_7.rt,repeat_if_wrong.thisRepN,repeat_if_wrong.thisTrialN,repeat_if_wrong.thisN,repeat_if_wrong.thisIndex,repeat_if_wrong.ran,span_size.thisRepN,span_size.thisTrialN,span_size.thisN,span_size.thisIndex,span_size.ran,complex_recall,key_resp_8.keys,key_resp_8.corr,key_resp_8.rt,complex_recall_corr,complex_recall_corrkeys,span_recall.thisRepN,span_recall.thisTrialN,span_recall.thisN,span_recall.thisIndex,span_recall.ran,key_resp_12.keys,key_resp_12.rt
space,28.1676,"[""comma""]",0,[1.8442000000001713],0,0,0,0,1,5d0f4380e0392a00170d8def,57,Mężczyzna,2022-06-04_08h09.56.562,task,2021.1.4,MacIntel,60.0024001,628b806c463b948bc644b84f,629af719d1930bdf59e767e5,,,,,,,,,,,,,,,,,,,,,,,,,,,,,,,,,,,,,,,,,,,,,,,,,,,,,,,,,,,,,,,,,,,,,,,,,,,,,,,,,,,,,,,,,,,,,,,,,,,,,,,
,,"[""comma""]",0,[0.610400000000368],1,0,1,0,1,5d0f4380e0392a00170d8def,57,Mężczyzna,2022-06-04_08h09.56.562,task,2021.1.4,MacIntel,60.0024001,628b806c463b948bc644b84f,629af719d1930bdf59e767e5,,,,,,,,,,,,,,,,,,,,,,,,,,,,,,,,,,,,,,,,,,,,,,,,,,,,,,,,,,,,,,,,,,,,,,,,,,,,,,,,,,,,,,,,,,,,,,,,,,,,,,,
,,"[""comma""]",0,[0.6842000000001462],2,0,2,0,1,5d0f4380e0392a00170d8def,57,Mężczyzna,2022-06-04_08h09.56.562,task,2021.1.4,MacIntel,60.0024001,628b806c463b948bc644b84f,629af719d1930bdf59e767e5,,,,,,,,,,,,,,,,,,,,,,,,,,,,,,,,,,,,,,,,,,,,,,,,,,,,,,,,,,,,,,,,,,,,,,,,,,,,,,,,,,,,,,,,,,,,,,,,,,,,,,,
,,"[""period""]",0,[0.8324999999999818],3,0,3,0,1,5d0f4380e0392a00170d8def,57,Mężczyzna,2022-06-04_08h09.56.562,task,2021.1.4,MacIntel,60.0024001,628b806c463b948bc644b84f,629af719d1930bdf59e767e5,,,,,,,,,,,,,,,,,,,,,,,,,,,,,,,,,,,,,,,,,,,,,,,,,,,,,,,,,,,,,,,,,,,,,,,,,,,,,,,,,,,,,,,,,,,,,,,,,,,,,,,
,,"[""period""]",0,[0.43549999999999045],4,0,4,0,1,5d0f4380e0392a00170d8def,57,Mężczyzna,2022-06-04_08h09.56.562,task,2021.1.4,MacIntel,60.0024001,628b806c463b948bc644b84f,629af719d1930bdf59e767e5,,,,,,,,,,,,,,,,,,,,,,,,,,,,,,,,,,,,,,,,,,,,,,,,,,,,,,,,,,,,,,,,,,,,,,,,,,,,,,,,,,,,,,,,,,,,,,,,,,,,,,,
,,"[""period""]",0,[0.3647999999998319],5,0,5,0,1,5d0f4380e0392a00170d8def,57,Mężczyzna,2022-06-04_08h09.56.562,task,2021.1.4,MacIntel,60.0024001,628b806c463b948bc644b84f,629af719d1930bdf59e767e5,,,,,,,,,,,,,,,,,,,,,,,,,,,,,,,,,,,,,,,,,,,,,,,,,,,,,,,,,,,,,,,,,,,,,,,,,,,,,,,,,,,,,,,,,,,,,,,,,,,,,,,
,,"[""comma""]",0,[0.39209999999962974],6,0,6,0,1,5d0f4380e0392a00170d8def,57,Mężczyzna,2022-06-04_08h09.56.562,task,2021.1.4,MacIntel,60.0024001,628b806c463b948bc644b84f,629af719d1930bdf59e767e5,,,,,,,,,,,,,,,,,,,,,,,,,,,,,,,,,,,,,,,,,,,,,,,,,,,,,,,,,,,,,,,,,,,,,,,,,,,,,,,,,,,,,,,,,,,,,,,,,,,,,,,
,,"[""comma"",""comma""]",0,"[0.311999999999955,1.9212999999998033]",7,0,7,0,1,5d0f4380e0392a00170d8def,57,Mężczyzna,2022-06-04_08h09.56.562,task,2021.1.4,MacIntel,60.0024001,628b806c463b948bc644b84f,629af719d1930bdf59e767e5,,,,,,,,,,,,,,,,,,,,,,,,,,,,,,,,,,,,,,,,,,,,,,,,,,,,,,,,,,,,,,,,,,,,,,,,,,,,,,,,,,,,,,,,,,,,,,,,,,,,,,,
,,"[""comma""]",0,[0.806099999999617],8,0,8,0,1,5d0f4380e0392a00170d8def,57,Mężczyzna,2022-06-04_08h09.56.562,task,2021.1.4,MacIntel,60.0024001,628b806c463b948bc644b84f,629af719d1930bdf59e767e5,,,,,,,,,,,,,,,,,,,,,,,,,,,,,,,,,,,,,,,,,,,,,,,,,,,,,,,,,,,,,,,,,,,,,,,,,,,,,,,,,,,,,,,,,,,,,,,,,,,,,,,
,,"[""period""]",0,[0.687799999999811],9,0,9,0,1,5d0f4380e0392a00170d8def,57,Mężczyzna,2022-06-04_08h09.56.562,task,2021.1.4,MacIntel,60.0024001,628b806c463b948bc644b84f,629af719d1930bdf59e767e5,,,,,,,,,,,,,,,,,,,,,,,,,,,,,,,,,,,,,,,,,,,,,,,,,,,,,,,,,,,,,,,,,,,,,,,,,,,,,,,,,,,,,,,,,,,,,,,,,,,,,,,
,,"[""period""]",0,[0.35739999999941574],10,0,10,0,1,5d0f4380e0392a00170d8def,57,Mężczyzna,2022-06-04_08h09.56.562,task,2021.1.4,MacIntel,60.0024001,628b806c463b948bc644b84f,629af719d1930bdf59e767e5,,,,,,,,,,,,,,,,,,,,,,,,,,,,,,,,,,,,,,,,,,,,,,,,,,,,,,,,,,,,,,,,,,,,,,,,,,,,,,,,,,,,,,,,,,,,,,,,,,,,,,,
,,"[""period""]",0,[0.4914000000003398],11,0,11,0,1,5d0f4380e0392a00170d8def,57,Mężczyzna,2022-06-04_08h09.56.562,task,2021.1.4,MacIntel,60.0024001,628b806c463b948bc644b84f,629af719d1930bdf59e767e5,,,,,,,,,,,,,,,,,,,,,,,,,,,,,,,,,,,,,,,,,,,,,,,,,,,,,,,,,,,,,,,,,,,,,,,,,,,,,,,,,,,,,,,,,,,,,,,,,,,,,,,
,,"[""period""]",0,[0.36899999999997135],12,0,12,0,1,5d0f4380e0392a00170d8def,57,Mężczyzna,2022-06-04_08h09.56.562,task,2021.1.4,MacIntel,60.0024001,628b806c463b948bc644b84f,629af719d1930bdf59e767e5,,,,,,,,,,,,,,,,,,,,,,,,,,,,,,,,,,,,,,,,,,,,,,,,,,,,,,,,,,,,,,,,,,,,,,,,,,,,,,,,,,,,,,,,,,,,,,,,,,,,,,,
,,"[""comma""]",0,[0.4267000000002099],13,0,13,0,1,5d0f4380e0392a00170d8def,57,Mężczyzna,2022-06-04_08h09.56.562,task,2021.1.4,MacIntel,60.0024001,628b806c463b948bc644b84f,629af719d1930bdf59e767e5,,,,,,,,,,,,,,,,,,,,,,,,,,,,,,,,,,,,,,,,,,,,,,,,,,,,,,,,,,,,,,,,,,,,,,,,,,,,,,,,,,,,,,,,,,,,,,,,,,,,,,,
,,"[""comma""]",0,[0.3092000000002031],14,0,14,0,1,5d0f4380e0392a00170d8def,57,Mężczyzna,2022-06-04_08h09.56.562,task,2021.1.4,MacIntel,60.0024001,628b806c463b948bc644b84f,629af719d1930bdf59e767e5,,,,,,,,,,,,,,,,,,,,,,,,,,,,,,,,,,,,,,,,,,,,,,,,,,,,,,,,,,,,,,,,,,,,,,,,,,,,,,,,,,,,,,,,,,,,,,,,,,,,,,,
,,"[""comma""]",0,[0.26799999999997226],15,0,15,0,1,5d0f4380e0392a00170d8def,57,Mężczyzna,2022-06-04_08h09.56.562,task,2021.1.4,MacIntel,60.0024001,628b806c463b948bc644b84f,629af719d1930bdf59e767e5,,,,,,,,,,,,,,,,,,,,,,,,,,,,,,,,,,,,,,,,,,,,,,,,,,,,,,,,,,,,,,,,,,,,,,,,,,,,,,,,,,,,,,,,,,,,,,,,,,,,,,,
,,"[""comma""]",0,[0.3027999999998201],16,0,16,0,1,5d0f4380e0392a00170d8def,57,Mężczyzna,2022-06-04_08h09.56.562,task,2021.1.4,MacIntel,60.0024001,628b806c463b948bc644b84f,629af719d1930bdf59e767e5,,,,,,,,,,,,,,,,,,,,,,,,,,,,,,,,,,,,,,,,,,,,,,,,,,,,,,,,,,,,,,,,,,,,,,,,,,,,,,,,,,,,,,,,,,,,,,,,,,,,,,,
,,"[""period""]",0,[0.2866999999992572],17,0,17,0,1,5d0f4380e0392a00170d8def,57,Mężczyzna,2022-06-04_08h09.56.562,task,2021.1.4,MacIntel,60.0024001,628b806c463b948bc644b84f,629af719d1930bdf59e767e5,,,,,,,,,,,,,,,,,,,,,,,,,,,,,,,,,,,,,,,,,,,,,,,,,,,,,,,,,,,,,,,,,,,,,,,,,,,,,,,,,,,,,,,,,,,,,,,,,,,,,,,
,,"[""period""]",0,[0.187200000000189],18,0,18,0,1,5d0f4380e0392a00170d8def,57,Mężczyzna,2022-06-04_08h09.56.562,task,2021.1.4,MacIntel,60.0024001,628b806c463b948bc644b84f,629af719d1930bdf59e767e5,,,,,,,,,,,,,,,,,,,,,,,,,,,,,,,,,,,,,,,,,,,,,,,,,,,,,,,,,,,,,,,,,,,,,,,,,,,,,,,,,,,,,,,,,,,,,,,,,,,,,,,
,,"[""comma""]",0,[0.3063000000007605],19,0,19,0,1,5d0f4380e0392a00170d8def,57,Mężczyzna,2022-06-04_08h09.56.562,task,2021.1.4,MacIntel,60.0024001,628b806c463b948bc644b84f,629af719d1930bdf59e767e5,,,,,,,,,,,,,,,,,,,,,,,,,,,,,,,,,,,,,,,,,,,,,,,,,,,,,,,,,,,,,,,,,,,,,,,,,,,,,,,,,,,,,,,,,,,,,,,,,,,,,,,
,,"[""period""]",0,[0.361500000000035],20,0,20,0,1,5d0f4380e0392a00170d8def,57,Mężczyzna,2022-06-04_08h09.56.562,task,2021.1.4,MacIntel,60.0024001,628b806c463b948bc644b84f,629af719d1930bdf59e767e5,,,,,,,,,,,,,,,,,,,,,,,,,,,,,,,,,,,,,,,,,,,,,,,,,,,,,,,,,,,,,,,,,,,,,,,,,,,,,,,,,,,,,,,,,,,,,,,,,,,,,,,
,,"[""comma""]",0,[0.49309999999962884],21,0,21,0,1,5d0f4380e0392a00170d8def,57,Mężczyzna,2022-06-04_08h09.56.562,task,2021.1.4,MacIntel,60.0024001,628b806c463b948bc644b84f,629af719d1930bdf59e767e5,,,,,,,,,,,,,,,,,,,,,,,,,,,,,,,,,,,,,,,,,,,,,,,,,,,,,,,,,,,,,,,,,,,,,,,,,,,,,,,,,,,,,,,,,,,,,,,,,,,,,,,
,,"[""comma""]",0,[0.48599999999999],22,0,22,0,1,5d0f4380e0392a00170d8def,57,Mężczyzna,2022-06-04_08h09.56.562,task,2021.1.4,MacIntel,60.0024001,628b806c463b948bc644b84f,629af719d1930bdf59e767e5,,,,,,,,,,,,,,,,,,,,,,,,,,,,,,,,,,,,,,,,,,,,,,,,,,,,,,,,,,,,,,,,,,,,,,,,,,,,,,,,,,,,,,,,,,,,,,,,,,,,,,,
,,"[""period""]",0,[0.3237999999998351],23,0,23,0,1,5d0f4380e0392a00170d8def,57,Mężczyzna,2022-06-04_08h09.56.562,task,2021.1.4,MacIntel,60.0024001,628b806c463b948bc644b84f,629af719d1930bdf59e767e5,,,,,,,,,,,,,,,,,,,,,,,,,,,,,,,,,,,,,,,,,,,,,,,,,,,,,,,,,,,,,,,,,,,,,,,,,,,,,,,,,,,,,,,,,,,,,,,,,,,,,,,
,,"[""period""]",0,[0.16920000000021673],24,0,24,0,1,5d0f4380e0392a00170d8def,57,Mężczyzna,2022-06-04_08h09.56.562,task,2021.1.4,MacIntel,60.0024001,628b806c463b948bc644b84f,629af719d1930bdf59e767e5,,,,,,,,,,,,,,,,,,,,,,,,,,,,,,,,,,,,,,,,,,,,,,,,,,,,,,,,,,,,,,,,,,,,,,,,,,,,,,,,,,,,,,,,,,,,,,,,,,,,,,,
,,"[""period""]",0,[0.2606999999993036],25,0,25,0,1,5d0f4380e0392a00170d8def,57,Mężczyzna,2022-06-04_08h09.56.562,task,2021.1.4,MacIntel,60.0024001,628b806c463b948bc644b84f,629af719d1930bdf59e767e5,,,,,,,,,,,,,,,,,,,,,,,,,,,,,,,,,,,,,,,,,,,,,,,,,,,,,,,,,,,,,,,,,,,,,,,,,,,,,,,,,,,,,,,,,,,,,,,,,,,,,,,
,,"[""comma""]",0,[0.3022999999998319],26,0,26,0,1,5d0f4380e0392a00170d8def,57,Mężczyzna,2022-06-04_08h09.56.562,task,2021.1.4,MacIntel,60.0024001,628b806c463b948bc644b84f,629af719d1930bdf59e767e5,,,,,,,,,,,,,,,,,,,,,,,,,,,,,,,,,,,,,,,,,,,,,,,,,,,,,,,,,,,,,,,,,,,,,,,,,,,,,,,,,,,,,,,,,,,,,,,,,,,,,,,
,,"[""comma""]",0,[0.33600000000001273],27,0,27,0,1,5d0f4380e0392a00170d8def,57,Mężczyzna,2022-06-04_08h09.56.562,task,2021.1.4,MacIntel,60.0024001,628b806c463b948bc644b84f,629af719d1930bdf59e767e5,,,,,,,,,,,,,,,,,,,,,,,,,,,,,,,,,,,,,,,,,,,,,,,,,,,,,,,,,,,,,,,,,,,,,,,,,,,,,,,,,,,,,,,,,,,,,,,,,,,,,,,
,,"[""comma""]",0,[0.20510000000058426],28,0,28,0,1,5d0f4380e0392a00170d8def,57,Mężczyzna,2022-06-04_08h09.56.562,task,2021.1.4,MacIntel,60.0024001,628b806c463b948bc644b84f,629af719d1930bdf59e767e5,,,,,,,,,,,,,,,,,,,,,,,,,,,,,,,,,,,,,,,,,,,,,,,,,,,,,,,,,,,,,,,,,,,,,,,,,,,,,,,,,,,,,,,,,,,,,,,,,,,,,,,
,,"[""period""]",0,[0.2674999999999841],29,0,29,0,1,5d0f4380e0392a00170d8def,57,Mężczyzna,2022-06-04_08h09.56.562,task,2021.1.4,MacIntel,60.0024001,628b806c463b948bc644b84f,629af719d1930bdf59e767e5,,,,,,,,,,,,,,,,,,,,,,,,,,,,,,,,,,,,,,,,,,,,,,,,,,,,,,,,,,,,,,,,,,,,,,,,,,,,,,,,,,,,,,,,,,,,,,,,,,,,,,,
,,"[""period""]",0,[0.13419999999922538],30,0,30,0,1,5d0f4380e0392a00170d8def,57,Mężczyzna,2022-06-04_08h09.56.562,task,2021.1.4,MacIntel,60.0024001,628b806c463b948bc644b84f,629af719d1930bdf59e767e5,,,,,,,,,,,,,,,,,,,,,,,,,,,,,,,,,,,,,,,,,,,,,,,,,,,,,,,,,,,,,,,,,,,,,,,,,,,,,,,,,,,,,,,,,,,,,,,,,,,,,,,
,,"[""period""]",0,[0.25739999999944985],31,0,31,0,1,5d0f4380e0392a00170d8def,57,Mężczyzna,2022-06-04_08h09.56.562,task,2021.1.4,MacIntel,60.0024001,628b806c463b948bc644b84f,629af719d1930bdf59e767e5,,,,,,,,,,,,,,,,,,,,,,,,,,,,,,,,,,,,,,,,,,,,,,,,,,,,,,,,,,,,,,,,,,,,,,,,,,,,,,,,,,,,,,,,,,,,,,,,,,,,,,,
,,"[""comma""]",0,[0.26979999999980464],32,0,32,0,1,5d0f4380e0392a00170d8def,57,Mężczyzna,2022-06-04_08h09.56.562,task,2021.1.4,MacIntel,60.0024001,628b806c463b948bc644b84f,629af719d1930bdf59e767e5,,,,,,,,,,,,,,,,,,,,,,,,,,,,,,,,,,,,,,,,,,,,,,,,,,,,,,,,,,,,,,,,,,,,,,,,,,,,,,,,,,,,,,,,,,,,,,,,,,,,,,,
,,"[""period""]",0,[0.3036000000005856],33,0,33,0,1,5d0f4380e0392a00170d8def,57,Mężczyzna,2022-06-04_08h09.56.562,task,2021.1.4,MacIntel,60.0024001,628b806c463b948bc644b84f,629af719d1930bdf59e767e5,,,,,,,,,,,,,,,,,,,,,,,,,,,,,,,,,,,,,,,,,,,,,,,,,,,,,,,,,,,,,,,,,,,,,,,,,,,,,,,,,,,,,,,,,,,,,,,,,,,,,,,
,,"[""comma""]",0,[0.5494999999999663],34,0,34,0,1,5d0f4380e0392a00170d8def,57,Mężczyzna,2022-06-04_08h09.56.562,task,2021.1.4,MacIntel,60.0024001,628b806c463b948bc644b84f,629af719d1930bdf59e767e5,,,,,,,,,,,,,,,,,,,,,,,,,,,,,,,,,,,,,,,,,,,,,,,,,,,,,,,,,,,,,,,,,,,,,,,,,,,,,,,,,,,,,,,,,,,,,,,,,,,,,,,
,,"[""period""]",0,[0.25649999999996],35,0,35,0,1,5d0f4380e0392a00170d8def,57,Mężczyzna,2022-06-04_08h09.56.562,task,2021.1.4,MacIntel,60.0024001,628b806c463b948bc644b84f,629af719d1930bdf59e767e5,,,,,,,,,,,,,,,,,,,,,,,,,,,,,,,,,,,,,,,,,,,,,,,,,,,,,,,,,,,,,,,,,,,,,,,,,,,,,,,,,,,,,,,,,,,,,,,,,,,,,,,
,,"[""comma""]",0,[0.1366000000005556],36,0,36,0,1,5d0f4380e0392a00170d8def,57,Mężczyzna,2022-06-04_08h09.56.562,task,2021.1.4,MacIntel,60.0024001,628b806c463b948bc644b84f,629af719d1930bdf59e767e5,,,,,,,,,,,,,,,,,,,,,,,,,,,,,,,,,,,,,,,,,,,,,,,,,,,,,,,,,,,,,,,,,,,,,,,,,,,,,,,,,,,,,,,,,,,,,,,,,,,,,,,
,,"[""period""]",0,[0.2703999999994835],37,0,37,0,1,5d0f4380e0392a00170d8def,57,Mężczyzna,2022-06-04_08h09.56.562,task,2021.1.4,MacIntel,60.0024001,628b806c463b948bc644b84f,629af719d1930bdf59e767e5,,,,,,,,,,,,,,,,,,,,,,,,,,,,,,,,,,,,,,,,,,,,,,,,,,,,,,,,,,,,,,,,,,,,,,,,,,,,,,,,,,,,,,,,,,,,,,,,,,,,,,,
,,"[""period""]",0,[0.250799999999856],38,0,38,0,1,5d0f4380e0392a00170d8def,57,Mężczyzna,2022-06-04_08h09.56.562,task,2021.1.4,MacIntel,60.0024001,628b806c463b948bc644b84f,629af719d1930bdf59e767e5,,,,,,,,,,,,,,,,,,,,,,,,,,,,,,,,,,,,,,,,,,,,,,,,,,,,,,,,,,,,,,,,,,,,,,,,,,,,,,,,,,,,,,,,,,,,,,,,,,,,,,,
,,"[""comma""]",0,[0.26900000000000546],39,0,39,0,1,5d0f4380e0392a00170d8def,57,Mężczyzna,2022-06-04_08h09.56.562,task,2021.1.4,MacIntel,60.0024001,628b806c463b948bc644b84f,629af719d1930bdf59e767e5,,,,,,,,,,,,,,,,,,,,,,,,,,,,,,,,,,,,,,,,,,,,,,,,,,,,,,,,,,,,,,,,,,,,,,,,,,,,,,,,,,,,,,,,,,,,,,,,,,,,,,,
,,"[""comma""]",0,[0.2042000000001849],40,0,40,0,1,5d0f4380e0392a00170d8def,57,Mężczyzna,2022-06-04_08h09.56.562,task,2021.1.4,MacIntel,60.0024001,628b806c463b948bc644b84f,629af719d1930bdf59e767e5,,,,,,,,,,,,,,,,,,,,,,,,,,,,,,,,,,,,,,,,,,,,,,,,,,,,,,,,,,,,,,,,,,,,,,,,,,,,,,,,,,,,,,,,,,,,,,,,,,,,,,,
,,"[""period""]",0,[0.04110000000054015],41,0,41,0,1,5d0f4380e0392a00170d8def,57,Mężczyzna,2022-06-04_08h09.56.562,task,2021.1.4,MacIntel,60.0024001,628b806c463b948bc644b84f,629af719d1930bdf59e767e5,,,,,,,,,,,,,,,,,,,,,,,,,,,,,,,,,,,,,,,,,,,,,,,,,,,,,,,,,,,,,,,,,,,,,,,,,,,,,,,,,,,,,,,,,,,,,,,,,,,,,,,
,,"[""period""]",0,[0.12700000000000955],42,0,42,0,1,5d0f4380e0392a00170d8def,57,Mężczyzna,2022-06-04_08h09.56.562,task,2021.1.4,MacIntel,60.0024001,628b806c463b948bc644b84f,629af719d1930bdf59e767e5,,,,,,,,,,,,,,,,,,,,,,,,,,,,,,,,,,,,,,,,,,,,,,,,,,,,,,,,,,,,,,,,,,,,,,,,,,,,,,,,,,,,,,,,,,,,,,,,,,,,,,,
,,"[""comma""]",0,[0.18829999999979918],43,0,43,0,1,5d0f4380e0392a00170d8def,57,Mężczyzna,2022-06-04_08h09.56.562,task,2021.1.4,MacIntel,60.0024001,628b806c463b948bc644b84f,629af719d1930bdf59e767e5,,,,,,,,,,,,,,,,,,,,,,,,,,,,,,,,,,,,,,,,,,,,,,,,,,,,,,,,,,,,,,,,,,,,,,,,,,,,,,,,,,,,,,,,,,,,,,,,,,,,,,,
,,"[""comma""]",0,[0.13539999999943575],44,0,44,0,1,5d0f4380e0392a00170d8def,57,Mężczyzna,2022-06-04_08h09.56.562,task,2021.1.4,MacIntel,60.0024001,628b806c463b948bc644b84f,629af719d1930bdf59e767e5,,,,,,,,,,,,,,,,,,,,,,,,,,,,,,,,,,,,,,,,,,,,,,,,,,,,,,,,,,,,,,,,,,,,,,,,,,,,,,,,,,,,,,,,,,,,,,,,,,,,,,,
,,"[""period""]",0,[0.10420000000016216],45,0,45,0,1,5d0f4380e0392a00170d8def,57,Mężczyzna,2022-06-04_08h09.56.562,task,2021.1.4,MacIntel,60.0024001,628b806c463b948bc644b84f,629af719d1930bdf59e767e5,,,,,,,,,,,,,,,,,,,,,,,,,,,,,,,,,,,,,,,,,,,,,,,,,,,,,,,,,,,,,,,,,,,,,,,,,,,,,,,,,,,,,,,,,,,,,,,,,,,,,,,
,,"[""period""]",0,[0.20220000000017535],46,0,46,0,1,5d0f4380e0392a00170d8def,57,Mężczyzna,2022-06-04_08h09.56.562,task,2021.1.4,MacIntel,60.0024001,628b806c463b948bc644b84f,629af719d1930bdf59e767e5,,,,,,,,,,,,,,,,,,,,,,,,,,,,,,,,,,,,,,,,,,,,,,,,,,,,,,,,,,,,,,,,,,,,,,,,,,,,,,,,,,,,,,,,,,,,,,,,,,,,,,,
,,"[""comma""]",0,[0.28859999999963293],47,0,47,0,1,5d0f4380e0392a00170d8def,57,Mężczyzna,2022-06-04_08h09.56.562,task,2021.1.4,MacIntel,60.0024001,628b806c463b948bc644b84f,629af719d1930bdf59e767e5,,,,,,,,,,,,,,,,,,,,,,,,,,,,,,,,,,,,,,,,,,,,,,,,,,,,,,,,,,,,,,,,,,,,,,,,,,,,,,,,,,,,,,,,,,,,,,,,,,,,,,,
,,"[""comma""]",0,[0.2650999999996202],48,0,48,0,1,5d0f4380e0392a00170d8def,57,Mężczyzna,2022-06-04_08h09.56.562,task,2021.1.4,MacIntel,60.0024001,628b806c463b948bc644b84f,629af719d1930bdf59e767e5,,,,,,,,,,,,,,,,,,,,,,,,,,,,,,,,,,,,,,,,,,,,,,,,,,,,,,,,,,,,,,,,,,,,,,,,,,,,,,,,,,,,,,,,,,,,,,,,,,,,,,,
,,"[""period""]",0,[0.15640000000036025],49,0,49,0,1,5d0f4380e0392a00170d8def,57,Mężczyzna,2022-06-04_08h09.56.562,task,2021.1.4,MacIntel,60.0024001,628b806c463b948bc644b84f,629af719d1930bdf59e767e5,,,,,,,,,,,,,,,,,,,,,,,,,,,,,,,,,,,,,,,,,,,,,,,,,,,,,,,,,,,,,,,,,,,,,,,,,,,,,,,,,,,,,,,,,,,,,,,,,,,,,,,
,,"[""period""]",0,[0.2662000000001967],50,0,50,0,1,5d0f4380e0392a00170d8def,57,Mężczyzna,2022-06-04_08h09.56.562,task,2021.1.4,MacIntel,60.0024001,628b806c463b948bc644b84f,629af719d1930bdf59e767e5,,,,,,,,,,,,,,,,,,,,,,,,,,,,,,,,,,,,,,,,,,,,,,,,,,,,,,,,,,,,,,,,,,,,,,,,,,,,,,,,,,,,,,,,,,,,,,,,,,,,,,,
,,"[""comma""]",0,[0.33659999999963475],51,0,51,0,1,5d0f4380e0392a00170d8def,57,Mężczyzna,2022-06-04_08h09.56.562,task,2021.1.4,MacIntel,60.0024001,628b806c463b948bc644b84f,629af719d1930bdf59e767e5,,,,,,,,,,,,,,,,,,,,,,,,,,,,,,,,,,,,,,,,,,,,,,,,,,,,,,,,,,,,,,,,,,,,,,,,,,,,,,,,,,,,,,,,,,,,,,,,,,,,,,,
,,"[""period""]",0,[0.3687999999997942],52,0,52,0,1,5d0f4380e0392a00170d8def,57,Mężczyzna,2022-06-04_08h09.56.562,task,2021.1.4,MacIntel,60.0024001,628b806c463b948bc644b84f,629af719d1930bdf59e767e5,,,,,,,,,,,,,,,,,,,,,,,,,,,,,,,,,,,,,,,,,,,,,,,,,,,,,,,,,,,,,,,,,,,,,,,,,,,,,,,,,,,,,,,,,,,,,,,,,,,,,,,
,,"[""comma""]",0,[0.256400000000383],53,0,53,0,1,5d0f4380e0392a00170d8def,57,Mężczyzna,2022-06-04_08h09.56.562,task,2021.1.4,MacIntel,60.0024001,628b806c463b948bc644b84f,629af719d1930bdf59e767e5,,,,,,,,,,,,,,,,,,,,,,,,,,,,,,,,,,,,,,,,,,,,,,,,,,,,,,,,,,,,,,,,,,,,,,,,,,,,,,,,,,,,,,,,,,,,,,,,,,,,,,,
,,"[""period""]",0,[0.2686000000005606],54,0,54,0,1,5d0f4380e0392a00170d8def,57,Mężczyzna,2022-06-04_08h09.56.562,task,2021.1.4,MacIntel,60.0024001,628b806c463b948bc644b84f,629af719d1930bdf59e767e5,,,,,,,,,,,,,,,,,,,,,,,,,,,,,,,,,,,,,,,,,,,,,,,,,,,,,,,,,,,,,,,,,,,,,,,,,,,,,,,,,,,,,,,,,,,,,,,,,,,,,,,
,,"[""comma""]",0,[0.3355999999996584],55,0,55,0,1,5d0f4380e0392a00170d8def,57,Mężczyzna,2022-06-04_08h09.56.562,task,2021.1.4,MacIntel,60.0024001,628b806c463b948bc644b84f,629af719d1930bdf59e767e5,,,,,,,,,,,,,,,,,,,,,,,,,,,,,,,,,,,,,,,,,,,,,,,,,,,,,,,,,,,,,,,,,,,,,,,,,,,,,,,,,,,,,,,,,,,,,,,,,,,,,,,
,,"[""comma""]",0,[0.049699999999234024],56,0,56,0,1,5d0f4380e0392a00170d8def,57,Mężczyzna,2022-06-04_08h09.56.562,task,2021.1.4,MacIntel,60.0024001,628b806c463b948bc644b84f,629af719d1930bdf59e767e5,,,,,,,,,,,,,,,,,,,,,,,,,,,,,,,,,,,,,,,,,,,,,,,,,,,,,,,,,,,,,,,,,,,,,,,,,,,,,,,,,,,,,,,,,,,,,,,,,,,,,,,
,,"[""period""]",0,[0.1362999999998351],57,0,57,0,1,5d0f4380e0392a00170d8def,57,Mężczyzna,2022-06-04_08h09.56.562,task,2021.1.4,MacIntel,60.0024001,628b806c463b948bc644b84f,629af719d1930bdf59e767e5,,,,,,,,,,,,,,,,,,,,,,,,,,,,,,,,,,,,,,,,,,,,,,,,,,,,,,,,,,,,,,,,,,,,,,,,,,,,,,,,,,,,,,,,,,,,,,,,,,,,,,,
,,"[""period"",""comma""]",0,"[0.03370000000018081,1.7527999999998087]",58,0,58,0,1,5d0f4380e0392a00170d8def,57,Mężczyzna,2022-06-04_08h09.56.562,task,2021.1.4,MacIntel,60.0024001,628b806c463b948bc644b84f,629af719d1930bdf59e767e5,,,,,,,,,,,,,,,,,,,,,,,,,,,,,,,,,,,,,,,,,,,,,,,,,,,,,,,,,,,,,,,,,,,,,,,,,,,,,,,,,,,,,,,,,,,,,,,,,,,,,,,
,,,0,,59,0,59,0,1,5d0f4380e0392a00170d8def,57,Mężczyzna,2022-06-04_08h09.56.562,task,2021.1.4,MacIntel,60.0024001,628b806c463b948bc644b84f,629af719d1930bdf59e767e5,,,,,,,,,,,,,,,,,,,,,,,,,,,,,,,,,,,,,,,,,,,,,,,,,,,,,,,,,,,,,,,,,,,,,,,,,,,,,,,,,,,,,,,,,,,,,,,,,,,,,,,
,,"[""comma""]",0,[0.38610000000056743],60,0,60,0,1,5d0f4380e0392a00170d8def,57,Mężczyzna,2022-06-04_08h09.56.562,task,2021.1.4,MacIntel,60.0024001,628b806c463b948bc644b84f,629af719d1930bdf59e767e5,,,,,,,,,,,,,,,,,,,,,,,,,,,,,,,,,,,,,,,,,,,,,,,,,,,,,,,,,,,,,,,,,,,,,,,,,,,,,,,,,,,,,,,,,,,,,,,,,,,,,,,
,,"[""period"",""period""]",0,"[0.22129999999981464,1.8404000000003862]",61,0,61,0,1,5d0f4380e0392a00170d8def,57,Mężczyzna,2022-06-04_08h09.56.562,task,2021.1.4,MacIntel,60.0024001,628b806c463b948bc644b84f,629af719d1930bdf59e767e5,,,,,,,,,,,,,,,,,,,,,,,,,,,,,,,,,,,,,,,,,,,,,,,,,,,,,,,,,,,,,,,,,,,,,,,,,,,,,,,,,,,,,,,,,,,,,,,,,,,,,,,
,,,0,,62,0,62,0,1,5d0f4380e0392a00170d8def,57,Mężczyzna,2022-06-04_08h09.56.562,task,2021.1.4,MacIntel,60.0024001,628b806c463b948bc644b84f,629af719d1930bdf59e767e5,,,,,,,,,,,,,,,,,,,,,,,,,,,,,,,,,,,,,,,,,,,,,,,,,,,,,,,,,,,,,,,,,,,,,,,,,,,,,,,,,,,,,,,,,,,,,,,,,,,,,,,
,,"[""period""]",0,[0.2853000000007455],63,0,63,0,1,5d0f4380e0392a00170d8def,57,Mężczyzna,2022-06-04_08h09.56.562,task,2021.1.4,MacIntel,60.0024001,628b806c463b948bc644b84f,629af719d1930bdf59e767e5,,,,,,,,,,,,,,,,,,,,,,,,,,,,,,,,,,,,,,,,,,,,,,,,,,,,,,,,,,,,,,,,,,,,,,,,,,,,,,,,,,,,,,,,,,,,,,,,,,,,,,,
,,"[""comma""]",0,[0.3333999999994717],64,0,64,0,1,5d0f4380e0392a00170d8def,57,Mężczyzna,2022-06-04_08h09.56.562,task,2021.1.4,MacIntel,60.0024001,628b806c463b948bc644b84f,629af719d1930bdf59e767e5,,,,,,,,,,,,,,,,,,,,,,,,,,,,,,,,,,,,,,,,,,,,,,,,,,,,,,,,,,,,,,,,,,,,,,,,,,,,,,,,,,,,,,,,,,,,,,,,,,,,,,,
,,"[""period""]",0,[0.2692999999997596],65,0,65,0,1,5d0f4380e0392a00170d8def,57,Mężczyzna,2022-06-04_08h09.56.562,task,2021.1.4,MacIntel,60.0024001,628b806c463b948bc644b84f,629af719d1930bdf59e767e5,,,,,,,,,,,,,,,,,,,,,,,,,,,,,,,,,,,,,,,,,,,,,,,,,,,,,,,,,,,,,,,,,,,,,,,,,,,,,,,,,,,,,,,,,,,,,,,,,,,,,,,
,,"[""period""]",0,[0.41979999999983875],66,0,66,0,1,5d0f4380e0392a00170d8def,57,Mężczyzna,2022-06-04_08h09.56.562,task,2021.1.4,MacIntel,60.0024001,628b806c463b948bc644b84f,629af719d1930bdf59e767e5,,,,,,,,,,,,,,,,,,,,,,,,,,,,,,,,,,,,,,,,,,,,,,,,,,,,,,,,,,,,,,,,,,,,,,,,,,,,,,,,,,,,,,,,,,,,,,,,,,,,,,,
,,"[""period""]",0,[0.2760999999996443],67,0,67,0,1,5d0f4380e0392a00170d8def,57,Mężczyzna,2022-06-04_08h09.56.562,task,2021.1.4,MacIntel,60.0024001,628b806c463b948bc644b84f,629af719d1930bdf59e767e5,,,,,,,,,,,,,,,,,,,,,,,,,,,,,,,,,,,,,,,,,,,,,,,,,,,,,,,,,,,,,,,,,,,,,,,,,,,,,,,,,,,,,,,,,,,,,,,,,,,,,,,
,,"[""comma""]",0,[0.3550000000000182],68,0,68,0,1,5d0f4380e0392a00170d8def,57,Mężczyzna,2022-06-04_08h09.56.562,task,2021.1.4,MacIntel,60.0024001,628b806c463b948bc644b84f,629af719d1930bdf59e767e5,,,,,,,,,,,,,,,,,,,,,,,,,,,,,,,,,,,,,,,,,,,,,,,,,,,,,,,,,,,,,,,,,,,,,,,,,,,,,,,,,,,,,,,,,,,,,,,,,,,,,,,
,,"[""comma""]",0,[0.26669999999921856],69,0,69,0,1,5d0f4380e0392a00170d8def,57,Mężczyzna,2022-06-04_08h09.56.562,task,2021.1.4,MacIntel,60.0024001,628b806c463b948bc644b84f,629af719d1930bdf59e767e5,,,,,,,,,,,,,,,,,,,,,,,,,,,,,,,,,,,,,,,,,,,,,,,,,,,,,,,,,,,,,,,,,,,,,,,,,,,,,,,,,,,,,,,,,,,,,,,,,,,,,,,
,,"[""period""]",0,[0.2734999999999559],70,0,70,0,1,5d0f4380e0392a00170d8def,57,Mężczyzna,2022-06-04_08h09.56.562,task,2021.1.4,MacIntel,60.0024001,628b806c463b948bc644b84f,629af719d1930bdf59e767e5,,,,,,,,,,,,,,,,,,,,,,,,,,,,,,,,,,,,,,,,,,,,,,,,,,,,,,,,,,,,,,,,,,,,,,,,,,,,,,,,,,,,,,,,,,,,,,,,,,,,,,,
,,"[""period""]",0,[0.22580000000073142],71,0,71,0,1,5d0f4380e0392a00170d8def,57,Mężczyzna,2022-06-04_08h09.56.562,task,2021.1.4,MacIntel,60.0024001,628b806c463b948bc644b84f,629af719d1930bdf59e767e5,,,,,,,,,,,,,,,,,,,,,,,,,,,,,,,,,,,,,,,,,,,,,,,,,,,,,,,,,,,,,,,,,,,,,,,,,,,,,,,,,,,,,,,,,,,,,,,,,,,,,,,
,,"[""comma""]",0,[0.16979999999983875],72,0,72,0,1,5d0f4380e0392a00170d8def,57,Mężczyzna,2022-06-04_08h09.56.562,task,2021.1.4,MacIntel,60.0024001,628b806c463b948bc644b84f,629af719d1930bdf59e767e5,,,,,,,,,,,,,,,,,,,,,,,,,,,,,,,,,,,,,,,,,,,,,,,,,,,,,,,,,,,,,,,,,,,,,,,,,,,,,,,,,,,,,,,,,,,,,,,,,,,,,,,
,,"[""comma""]",0,[0.2652000000001635],73,0,73,0,1,5d0f4380e0392a00170d8def,57,Mężczyzna,2022-06-04_08h09.56.562,task,2021.1.4,MacIntel,60.0024001,628b806c463b948bc644b84f,629af719d1930bdf59e767e5,,,,,,,,,,,,,,,,,,,,,,,,,,,,,,,,,,,,,,,,,,,,,,,,,,,,,,,,,,,,,,,,,,,,,,,,,,,,,,,,,,,,,,,,,,,,,,,,,,,,,,,
,,"[""comma""]",0,[0.39280000000076143],74,0,74,0,1,5d0f4380e0392a00170d8def,57,Mężczyzna,2022-06-04_08h09.56.562,task,2021.1.4,MacIntel,60.0024001,628b806c463b948bc644b84f,629af719d1930bdf59e767e5,,,,,,,,,,,,,,,,,,,,,,,,,,,,,,,,,,,,,,,,,,,,,,,,,,,,,,,,,,,,,,,,,,,,,,,,,,,,,,,,,,,,,,,,,,,,,,,,,,,,,,,
,,"[""period""]",0,[0.3009999999999877],75,0,75,0,1,5d0f4380e0392a00170d8def,57,Mężczyzna,2022-06-04_08h09.56.562,task,2021.1.4,MacIntel,60.0024001,628b806c463b948bc644b84f,629af719d1930bdf59e767e5,,,,,,,,,,,,,,,,,,,,,,,,,,,,,,,,,,,,,,,,,,,,,,,,,,,,,,,,,,,,,,,,,,,,,,,,,,,,,,,,,,,,,,,,,,,,,,,,,,,,,,,
,,"[""period""]",0,[0.15429999999980737],76,0,76,0,1,5d0f4380e0392a00170d8def,57,Mężczyzna,2022-06-04_08h09.56.562,task,2021.1.4,MacIntel,60.0024001,628b806c463b948bc644b84f,629af719d1930bdf59e767e5,,,,,,,,,,,,,,,,,,,,,,,,,,,,,,,,,,,,,,,,,,,,,,,,,,,,,,,,,,,,,,,,,,,,,,,,,,,,,,,,,,,,,,,,,,,,,,,,,,,,,,,
,,"[""period""]",0,[0.06960000000054833],77,0,77,0,1,5d0f4380e0392a00170d8def,57,Mężczyzna,2022-06-04_08h09.56.562,task,2021.1.4,MacIntel,60.0024001,628b806c463b948bc644b84f,629af719d1930bdf59e767e5,,,,,,,,,,,,,,,,,,,,,,,,,,,,,,,,,,,,,,,,,,,,,,,,,,,,,,,,,,,,,,,,,,,,,,,,,,,,,,,,,,,,,,,,,,,,,,,,,,,,,,,
,,"[""period""]",0,[0.26660000000055106],78,0,78,0,1,5d0f4380e0392a00170d8def,57,Mężczyzna,2022-06-04_08h09.56.562,task,2021.1.4,MacIntel,60.0024001,628b806c463b948bc644b84f,629af719d1930bdf59e767e5,,,,,,,,,,,,,,,,,,,,,,,,,,,,,,,,,,,,,,,,,,,,,,,,,,,,,,,,,,,,,,,,,,,,,,,,,,,,,,,,,,,,,,,,,,,,,,,,,,,,,,,
,,"[""period""]",0,[0.2761000000005538],79,0,79,0,1,5d0f4380e0392a00170d8def,57,Mężczyzna,2022-06-04_08h09.56.562,task,2021.1.4,MacIntel,60.0024001,628b806c463b948bc644b84f,629af719d1930bdf59e767e5,,,,,,,,,,,,,,,,,,,,,,,,,,,,,,,,,,,,,,,,,,,,,,,,,,,,,,,,,,,,,,,,,,,,,,,,,,,,,,,,,,,,,,,,,,,,,,,,,,,,,,,
,,"[""period""]",0,[0.26579999999978554],80,0,80,0,1,5d0f4380e0392a00170d8def,57,Mężczyzna,2022-06-04_08h09.56.562,task,2021.1.4,MacIntel,60.0024001,628b806c463b948bc644b84f,629af719d1930bdf59e767e5,,,,,,,,,,,,,,,,,,,,,,,,,,,,,,,,,,,,,,,,,,,,,,,,,,,,,,,,,,,,,,,,,,,,,,,,,,,,,,,,,,,,,,,,,,,,,,,,,,,,,,,
,,"[""comma""]",0,[0.27390000000036707],81,0,81,0,1,5d0f4380e0392a00170d8def,57,Mężczyzna,2022-06-04_08h09.56.562,task,2021.1.4,MacIntel,60.0024001,628b806c463b948bc644b84f,629af719d1930bdf59e767e5,,,,,,,,,,,,,,,,,,,,,,,,,,,,,,,,,,,,,,,,,,,,,,,,,,,,,,,,,,,,,,,,,,,,,,,,,,,,,,,,,,,,,,,,,,,,,,,,,,,,,,,
,,"[""comma""]",0,[0.20699999999999363],82,0,82,0,1,5d0f4380e0392a00170d8def,57,Mężczyzna,2022-06-04_08h09.56.562,task,2021.1.4,MacIntel,60.0024001,628b806c463b948bc644b84f,629af719d1930bdf59e767e5,,,,,,,,,,,,,,,,,,,,,,,,,,,,,,,,,,,,,,,,,,,,,,,,,,,,,,,,,,,,,,,,,,,,,,,,,,,,,,,,,,,,,,,,,,,,,,,,,,,,,,,
,,"[""period""]",0,[0.21759999999960655],83,0,83,0,1,5d0f4380e0392a00170d8def,57,Mężczyzna,2022-06-04_08h09.56.562,task,2021.1.4,MacIntel,60.0024001,628b806c463b948bc644b84f,629af719d1930bdf59e767e5,,,,,,,,,,,,,,,,,,,,,,,,,,,,,,,,,,,,,,,,,,,,,,,,,,,,,,,,,,,,,,,,,,,,,,,,,,,,,,,,,,,,,,,,,,,,,,,,,,,,,,,
,,"[""comma""]",0,[0.2880000000000109],84,0,84,0,1,5d0f4380e0392a00170d8def,57,Mężczyzna,2022-06-04_08h09.56.562,task,2021.1.4,MacIntel,60.0024001,628b806c463b948bc644b84f,629af719d1930bdf59e767e5,,,,,,,,,,,,,,,,,,,,,,,,,,,,,,,,,,,,,,,,,,,,,,,,,,,,,,,,,,,,,,,,,,,,,,,,,,,,,,,,,,,,,,,,,,,,,,,,,,,,,,,
,,"[""period""]",0,[0.23719999999923402],85,0,85,0,1,5d0f4380e0392a00170d8def,57,Mężczyzna,2022-06-04_08h09.56.562,task,2021.1.4,MacIntel,60.0024001,628b806c463b948bc644b84f,629af719d1930bdf59e767e5,,,,,,,,,,,,,,,,,,,,,,,,,,,,,,,,,,,,,,,,,,,,,,,,,,,,,,,,,,,,,,,,,,,,,,,,,,,,,,,,,,,,,,,,,,,,,,,,,,,,,,,
,,"[""comma""]",0,[0.25339999999943075],86,0,86,0,1,5d0f4380e0392a00170d8def,57,Mężczyzna,2022-06-04_08h09.56.562,task,2021.1.4,MacIntel,60.0024001,628b806c463b948bc644b84f,629af719d1930bdf59e767e5,,,,,,,,,,,,,,,,,,,,,,,,,,,,,,,,,,,,,,,,,,,,,,,,,,,,,,,,,,,,,,,,,,,,,,,,,,,,,,,,,,,,,,,,,,,,,,,,,,,,,,,
,,"[""period""]",0,[0.061400000000332966],87,0,87,0,1,5d0f4380e0392a00170d8def,57,Mężczyzna,2022-06-04_08h09.56.562,task,2021.1.4,MacIntel,60.0024001,628b806c463b948bc644b84f,629af719d1930bdf59e767e5,,,,,,,,,,,,,,,,,,,,,,,,,,,,,,,,,,,,,,,,,,,,,,,,,,,,,,,,,,,,,,,,,,,,,,,,,,,,,,,,,,,,,,,,,,,,,,,,,,,,,,,
,,"[""comma""]",0,[0.2855000000000132],88,0,88,0,1,5d0f4380e0392a00170d8def,57,Mężczyzna,2022-06-04_08h09.56.562,task,2021.1.4,MacIntel,60.0024001,628b806c463b948bc644b84f,629af719d1930bdf59e767e5,,,,,,,,,,,,,,,,,,,,,,,,,,,,,,,,,,,,,,,,,,,,,,,,,,,,,,,,,,,,,,,,,,,,,,,,,,,,,,,,,,,,,,,,,,,,,,,,,,,,,,,
,,"[""comma""]",0,[0.30860000000052423],89,0,89,0,1,5d0f4380e0392a00170d8def,57,Mężczyzna,2022-06-04_08h09.56.562,task,2021.1.4,MacIntel,60.0024001,628b806c463b948bc644b84f,629af719d1930bdf59e767e5,,,,,,,,,,,,,,,,,,,,,,,,,,,,,,,,,,,,,,,,,,,,,,,,,,,,,,,,,,,,,,,,,,,,,,,,,,,,,,,,,,,,,,,,,,,,,,,,,,,,,,,
,,"[""period""]",0,[0.2715000000000032],90,0,90,0,1,5d0f4380e0392a00170d8def,57,Mężczyzna,2022-06-04_08h09.56.562,task,2021.1.4,MacIntel,60.0024001,628b806c463b948bc644b84f,629af719d1930bdf59e767e5,,,,,,,,,,,,,,,,,,,,,,,,,,,,,,,,,,,,,,,,,,,,,,,,,,,,,,,,,,,,,,,,,,,,,,,,,,,,,,,,,,,,,,,,,,,,,,,,,,,,,,,
,,"[""comma""]",0,[0.346400000000358],91,0,91,0,1,5d0f4380e0392a00170d8def,57,Mężczyzna,2022-06-04_08h09.56.562,task,2021.1.4,MacIntel,60.0024001,628b806c463b948bc644b84f,629af719d1930bdf59e767e5,,,,,,,,,,,,,,,,,,,,,,,,,,,,,,,,,,,,,,,,,,,,,,,,,,,,,,,,,,,,,,,,,,,,,,,,,,,,,,,,,,,,,,,,,,,,,,,,,,,,,,,
,,"[""period""]",0,[0.39559999999966067],92,0,92,0,1,5d0f4380e0392a00170d8def,57,Mężczyzna,2022-06-04_08h09.56.562,task,2021.1.4,MacIntel,60.0024001,628b806c463b948bc644b84f,629af719d1930bdf59e767e5,,,,,,,,,,,,,,,,,,,,,,,,,,,,,,,,,,,,,,,,,,,,,,,,,,,,,,,,,,,,,,,,,,,,,,,,,,,,,,,,,,,,,,,,,,,,,,,,,,,,,,,
,,"[""period""]",0,[0.28570000000019036],93,0,93,0,1,5d0f4380e0392a00170d8def,57,Mężczyzna,2022-06-04_08h09.56.562,task,2021.1.4,MacIntel,60.0024001,628b806c463b948bc644b84f,629af719d1930bdf59e767e5,,,,,,,,,,,,,,,,,,,,,,,,,,,,,,,,,,,,,,,,,,,,,,,,,,,,,,,,,,,,,,,,,,,,,,,,,,,,,,,,,,,,,,,,,,,,,,,,,,,,,,,
,,"[""period""]",0,[0.3488999999994462],94,0,94,0,1,5d0f4380e0392a00170d8def,57,Mężczyzna,2022-06-04_08h09.56.562,task,2021.1.4,MacIntel,60.0024001,628b806c463b948bc644b84f,629af719d1930bdf59e767e5,,,,,,,,,,,,,,,,,,,,,,,,,,,,,,,,,,,,,,,,,,,,,,,,,,,,,,,,,,,,,,,,,,,,,,,,,,,,,,,,,,,,,,,,,,,,,,,,,,,,,,,
,,"[""comma""]",0,[0.26230000000072096],95,0,95,0,1,5d0f4380e0392a00170d8def,57,Mężczyzna,2022-06-04_08h09.56.562,task,2021.1.4,MacIntel,60.0024001,628b806c463b948bc644b84f,629af719d1930bdf59e767e5,,,,,,,,,,,,,,,,,,,,,,,,,,,,,,,,,,,,,,,,,,,,,,,,,,,,,,,,,,,,,,,,,,,,,,,,,,,,,,,,,,,,,,,,,,,,,,,,,,,,,,,
,,"[""comma""]",0,[0.25559999999961747],96,0,96,0,1,5d0f4380e0392a00170d8def,57,Mężczyzna,2022-06-04_08h09.56.562,task,2021.1.4,MacIntel,60.0024001,628b806c463b948bc644b84f,629af719d1930bdf59e767e5,,,,,,,,,,,,,,,,,,,,,,,,,,,,,,,,,,,,,,,,,,,,,,,,,,,,,,,,,,,,,,,,,,,,,,,,,,,,,,,,,,,,,,,,,,,,,,,,,,,,,,,
,,"[""period""]",0,[0.2972000000001458],97,0,97,0,1,5d0f4380e0392a00170d8def,57,Mężczyzna,2022-06-04_08h09.56.562,task,2021.1.4,MacIntel,60.0024001,628b806c463b948bc644b84f,629af719d1930bdf59e767e5,,,,,,,,,,,,,,,,,,,,,,,,,,,,,,,,,,,,,,,,,,,,,,,,,,,,,,,,,,,,,,,,,,,,,,,,,,,,,,,,,,,,,,,,,,,,,,,,,,,,,,,
,,"[""period""]",0,[0.29300000000000637],98,0,98,0,1,5d0f4380e0392a00170d8def,57,Mężczyzna,2022-06-04_08h09.56.562,task,2021.1.4,MacIntel,60.0024001,628b806c463b948bc644b84f,629af719d1930bdf59e767e5,,,,,,,,,,,,,,,,,,,,,,,,,,,,,,,,,,,,,,,,,,,,,,,,,,,,,,,,,,,,,,,,,,,,,,,,,,,,,,,,,,,,,,,,,,,,,,,,,,,,,,,
,,"[""period""]",0,[0.25359999999966476],99,0,99,0,1,5d0f4380e0392a00170d8def,57,Mężczyzna,2022-06-04_08h09.56.562,task,2021.1.4,MacIntel,60.0024001,628b806c463b948bc644b84f,629af719d1930bdf59e767e5,,,,,,,,,,,,,,,,,,,,,,,,,,,,,,,,,,,,,,,,,,,,,,,,,,,,,,,,,,,,,,,,,,,,,,,,,,,,,,,,,,,,,,,,,,,,,,,,,,,,,,,
,,"[""comma""]",0,[0.26400000000001],100,0,100,0,1,5d0f4380e0392a00170d8def,57,Mężczyzna,2022-06-04_08h09.56.562,task,2021.1.4,MacIntel,60.0024001,628b806c463b948bc644b84f,629af719d1930bdf59e767e5,,,,,,,,,,,,,,,,,,,,,,,,,,,,,,,,,,,,,,,,,,,,,,,,,,,,,,,,,,,,,,,,,,,,,,,,,,,,,,,,,,,,,,,,,,,,,,,,,,,,,,,
,,"[""comma""]",0,[0.24229999999982965],101,0,101,0,1,5d0f4380e0392a00170d8def,57,Mężczyzna,2022-06-04_08h09.56.562,task,2021.1.4,MacIntel,60.0024001,628b806c463b948bc644b84f,629af719d1930bdf59e767e5,,,,,,,,,,,,,,,,,,,,,,,,,,,,,,,,,,,,,,,,,,,,,,,,,,,,,,,,,,,,,,,,,,,,,,,,,,,,,,,,,,,,,,,,,,,,,,,,,,,,,,,
,,"[""period""]",0,[0.26650000000000773],102,0,102,0,1,5d0f4380e0392a00170d8def,57,Mężczyzna,2022-06-04_08h09.56.562,task,2021.1.4,MacIntel,60.0024001,628b806c463b948bc644b84f,629af719d1930bdf59e767e5,,,,,,,,,,,,,,,,,,,,,,,,,,,,,,,,,,,,,,,,,,,,,,,,,,,,,,,,,,,,,,,,,,,,,,,,,,,,,,,,,,,,,,,,,,,,,,,,,,,,,,,
,,"[""period""]",0,[0.16739999999941801],103,0,103,0,1,5d0f4380e0392a00170d8def,57,Mężczyzna,2022-06-04_08h09.56.562,task,2021.1.4,MacIntel,60.0024001,628b806c463b948bc644b84f,629af719d1930bdf59e767e5,,,,,,,,,,,,,,,,,,,,,,,,,,,,,,,,,,,,,,,,,,,,,,,,,,,,,,,,,,,,,,,,,,,,,,,,,,,,,,,,,,,,,,,,,,,,,,,,,,,,,,,
,,"[""comma"",""period""]",0,"[0.270700000000204,1.9201000000005592]",104,0,104,0,1,5d0f4380e0392a00170d8def,57,Mężczyzna,2022-06-04_08h09.56.562,task,2021.1.4,MacIntel,60.0024001,628b806c463b948bc644b84f,629af719d1930bdf59e767e5,,,,,,,,,,,,,,,,,,,,,,,,,,,,,,,,,,,,,,,,,,,,,,,,,,,,,,,,,,,,,,,,,,,,,,,,,,,,,,,,,,,,,,,,,,,,,,,,,,,,,,,
,,,0,,105,0,105,0,1,5d0f4380e0392a00170d8def,57,Mężczyzna,2022-06-04_08h09.56.562,task,2021.1.4,MacIntel,60.0024001,628b806c463b948bc644b84f,629af719d1930bdf59e767e5,,,,,,,,,,,,,,,,,,,,,,,,,,,,,,,,,,,,,,,,,,,,,,,,,,,,,,,,,,,,,,,,,,,,,,,,,,,,,,,,,,,,,,,,,,,,,,,,,,,,,,,
,,"[""comma""]",0,[0.3174000000003616],106,0,106,0,1,5d0f4380e0392a00170d8def,57,Mężczyzna,2022-06-04_08h09.56.562,task,2021.1.4,MacIntel,60.0024001,628b806c463b948bc644b84f,629af719d1930bdf59e767e5,,,,,,,,,,,,,,,,,,,,,,,,,,,,,,,,,,,,,,,,,,,,,,,,,,,,,,,,,,,,,,,,,,,,,,,,,,,,,,,,,,,,,,,,,,,,,,,,,,,,,,,
,,"[""period""]",0,[0.27170000000018035],107,0,107,0,1,5d0f4380e0392a00170d8def,57,Mężczyzna,2022-06-04_08h09.56.562,task,2021.1.4,MacIntel,60.0024001,628b806c463b948bc644b84f,629af719d1930bdf59e767e5,,,,,,,,,,,,,,,,,,,,,,,,,,,,,,,,,,,,,,,,,,,,,,,,,,,,,,,,,,,,,,,,,,,,,,,,,,,,,,,,,,,,,,,,,,,,,,,,,,,,,,,
,,"[""period""]",0,[0.18829999999985603],108,0,108,0,1,5d0f4380e0392a00170d8def,57,Mężczyzna,2022-06-04_08h09.56.562,task,2021.1.4,MacIntel,60.0024001,628b806c463b948bc644b84f,629af719d1930bdf59e767e5,,,,,,,,,,,,,,,,,,,,,,,,,,,,,,,,,,,,,,,,,,,,,,,,,,,,,,,,,,,,,,,,,,,,,,,,,,,,,,,,,,,,,,,,,,,,,,,,,,,,,,,
,,"[""comma""]",0,[0.2815999999996279],109,0,109,0,1,5d0f4380e0392a00170d8def,57,Mężczyzna,2022-06-04_08h09.56.562,task,2021.1.4,MacIntel,60.0024001,628b806c463b948bc644b84f,629af719d1930bdf59e767e5,,,,,,,,,,,,,,,,,,,,,,,,,,,,,,,,,,,,,,,,,,,,,,,,,,,,,,,,,,,,,,,,,,,,,,,,,,,,,,,,,,,,,,,,,,,,,,,,,,,,,,,
,,"[""comma""]",0,[0.6330000000000382],110,0,110,0,1,5d0f4380e0392a00170d8def,57,Mężczyzna,2022-06-04_08h09.56.562,task,2021.1.4,MacIntel,60.0024001,628b806c463b948bc644b84f,629af719d1930bdf59e767e5,,,,,,,,,,,,,,,,,,,,,,,,,,,,,,,,,,,,,,,,,,,,,,,,,,,,,,,,,,,,,,,,,,,,,,,,,,,,,,,,,,,,,,,,,,,,,,,,,,,,,,,
,,"[""period""]",0,[0.583200000000204],111,0,111,0,1,5d0f4380e0392a00170d8def,57,Mężczyzna,2022-06-04_08h09.56.562,task,2021.1.4,MacIntel,60.0024001,628b806c463b948bc644b84f,629af719d1930bdf59e767e5,,,,,,,,,,,,,,,,,,,,,,,,,,,,,,,,,,,,,,,,,,,,,,,,,,,,,,,,,,,,,,,,,,,,,,,,,,,,,,,,,,,,,,,,,,,,,,,,,,,,,,,
,,"[""comma""]",0,[0.4038999999993962],112,0,112,0,1,5d0f4380e0392a00170d8def,57,Mężczyzna,2022-06-04_08h09.56.562,task,2021.1.4,MacIntel,60.0024001,628b806c463b948bc644b84f,629af719d1930bdf59e767e5,,,,,,,,,,,,,,,,,,,,,,,,,,,,,,,,,,,,,,,,,,,,,,,,,,,,,,,,,,,,,,,,,,,,,,,,,,,,,,,,,,,,,,,,,,,,,,,,,,,,,,,
,,"[""period""]",0,[0.29750000000001364],113,0,113,0,1,5d0f4380e0392a00170d8def,57,Mężczyzna,2022-06-04_08h09.56.562,task,2021.1.4,MacIntel,60.0024001,628b806c463b948bc644b84f,629af719d1930bdf59e767e5,,,,,,,,,,,,,,,,,,,,,,,,,,,,,,,,,,,,,,,,,,,,,,,,,,,,,,,,,,,,,,,,,,,,,,,,,,,,,,,,,,,,,,,,,,,,,,,,,,,,,,,
,,"[""period""]",0,[0.26870000000019445],114,0,114,0,1,5d0f4380e0392a00170d8def,57,Mężczyzna,2022-06-04_08h09.56.562,task,2021.1.4,MacIntel,60.0024001,628b806c463b948bc644b84f,629af719d1930bdf59e767e5,,,,,,,,,,,,,,,,,,,,,,,,,,,,,,,,,,,,,,,,,,,,,,,,,,,,,,,,,,,,,,,,,,,,,,,,,,,,,,,,,,,,,,,,,,,,,,,,,,,,,,,
,,"[""period""]",0,[0.01679999999987558],115,0,115,0,1,5d0f4380e0392a00170d8def,57,Mężczyzna,2022-06-04_08h09.56.562,task,2021.1.4,MacIntel,60.0024001,628b806c463b948bc644b84f,629af719d1930bdf59e767e5,,,,,,,,,,,,,,,,,,,,,,,,,,,,,,,,,,,,,,,,,,,,,,,,,,,,,,,,,,,,,,,,,,,,,,,,,,,,,,,,,,,,,,,,,,,,,,,,,,,,,,,
,,"[""comma""]",0,[0.3200999999995702],116,0,116,0,1,5d0f4380e0392a00170d8def,57,Mężczyzna,2022-06-04_08h09.56.562,task,2021.1.4,MacIntel,60.0024001,628b806c463b948bc644b84f,629af719d1930bdf59e767e5,,,,,,,,,,,,,,,,,,,,,,,,,,,,,,,,,,,,,,,,,,,,,,,,,,,,,,,,,,,,,,,,,,,,,,,,,,,,,,,,,,,,,,,,,,,,,,,,,,,,,,,
,,"[""comma""]",0,[0.25039999999944484],117,0,117,0,1,5d0f4380e0392a00170d8def,57,Mężczyzna,2022-06-04_08h09.56.562,task,2021.1.4,MacIntel,60.0024001,628b806c463b948bc644b84f,629af719d1930bdf59e767e5,,,,,,,,,,,,,,,,,,,,,,,,,,,,,,,,,,,,,,,,,,,,,,,,,,,,,,,,,,,,,,,,,,,,,,,,,,,,,,,,,,,,,,,,,,,,,,,,,,,,,,,
,,"[""comma""]",0,[0.02929999999980737],118,0,118,0,1,5d0f4380e0392a00170d8def,57,Mężczyzna,2022-06-04_08h09.56.562,task,2021.1.4,MacIntel,60.0024001,628b806c463b948bc644b84f,629af719d1930bdf59e767e5,,,,,,,,,,,,,,,,,,,,,,,,,,,,,,,,,,,,,,,,,,,,,,,,,,,,,,,,,,,,,,,,,,,,,,,,,,,,,,,,,,,,,,,,,,,,,,,,,,,,,,,
,,"[""period"",""period""]",0,"[0.24979999999982283,1.9352000000002363]",119,0,119,0,1,5d0f4380e0392a00170d8def,57,Mężczyzna,2022-06-04_08h09.56.562,task,2021.1.4,MacIntel,60.0024001,628b806c463b948bc644b84f,629af719d1930bdf59e767e5,,,,,,,,,,,,,,,,,,,,,,,,,,,,,,,,,,,,,,,,,,,,,,,,,,,,,,,,,,,,,,,,,,,,,,,,,,,,,,,,,,,,,,,,,,,,,,,,,,,,,,,
,,,,,,,,,,5d0f4380e0392a00170d8def,57,Mężczyzna,2022-06-04_08h09.56.562,task,2021.1.4,MacIntel,60.0024001,628b806c463b948bc644b84f,629af719d1930bdf59e767e5,space,73.7566,space,10.8925,0,0,0,0,1,X V Q F H G B L J M P D K C T S W R N Z,,,,,,,,,,,,,,,,,,,,,,,,,,,,,,,,,,,,,,,,,,,,,,,,,,,,,,,,,,,,,,,,,,,,,,,,,,,,,,,,,,,,,,,,,,,,,
,,,,,,,,,,5d0f4380e0392a00170d8def,57,Mężczyzna,2022-06-04_08h09.56.562,task,2021.1.4,MacIntel,60.0024001,628b806c463b948bc644b84f,629af719d1930bdf59e767e5,,,,,1,0,1,0,1,X V Q F H G B L J M P D K C T S W R N Z,,,,,,,,,,,,,,,,,,,,,,,,,,,,,,,,,,,,,,,,,,,,,,,,,,,,,,,,,,,,,,,,,,,,,,,,,,,,,,,,,,,,,,,,,,,,,
,,,,,,,,,,5d0f4380e0392a00170d8def,57,Mężczyzna,2022-06-04_08h09.56.562,task,2021.1.4,MacIntel,60.0024001,628b806c463b948bc644b84f,629af719d1930bdf59e767e5,,,,,,,,,,,zx,"[""z"",""x""]","[2.507299999999873,3.1522999999998547,6.9982000000002245]",1,ZX,0,0,0,0,1,,,,,,,,,,,,,,,,,,,,,,,,,,,,,,,,,,,,,,,,,,,,,,,,,,,,,,,,,,,,,,,,,,,,,,,,,,,,,,,,,,,
,,,,,,,,,,5d0f4380e0392a00170d8def,57,Mężczyzna,2022-06-04_08h09.56.562,task,2021.1.4,MacIntel,60.0024001,628b806c463b948bc644b84f,629af719d1930bdf59e767e5,,,,,0,0,0,0,1,X V Q F H G B L J M P D K C T S W R N Z,,,,,,,,,,,,,,,,,,,,,,,,,,,,,,,,,,,,,,,,,,,,,,,,,,,,,,,,,,,,,,,,,,,,,,,,,,,,,,,,,,,,,,,,,,,,,
,,,,,,,,,,5d0f4380e0392a00170d8def,57,Mężczyzna,2022-06-04_08h09.56.562,task,2021.1.4,MacIntel,60.0024001,628b806c463b948bc644b84f,629af719d1930bdf59e767e5,,,,,1,0,1,0,1,X V Q F H G B L J M P D K C T S W R N Z,,,,,,,,,,,,,,,,,,,,,,,,,,,,,,,,,,,,,,,,,,,,,,,,,,,,,,,,,,,,,,,,,,,,,,,,,,,,,,,,,,,,,,,,,,,,,
,,,,,,,,,,5d0f4380e0392a00170d8def,57,Mężczyzna,2022-06-04_08h09.56.562,task,2021.1.4,MacIntel,60.0024001,628b806c463b948bc644b84f,629af719d1930bdf59e767e5,,,,,,,,,,,xs,"[""x"",""s""]","[1.7751000000006343,2.2420000000000755,3.0821000000006507]",1,XS,1,0,1,0,1,,,,,,,,,,,,,,,,,,,,,,,,,,,,,,,,,,,,,,,,,,,,,,,,,,,,,,,,,,,,,,,,,,,,,,,,,,,,,,,,,,,
,,,,,,,,,,5d0f4380e0392a00170d8def,57,Mężczyzna,2022-06-04_08h09.56.562,task,2021.1.4,MacIntel,60.0024001,628b806c463b948bc644b84f,629af719d1930bdf59e767e5,,,,,0,0,0,0,1,X V Q F H G B L J M P D K C T S W R N Z,,,,,,,,,,,,,,,,,,,,,,,,,,,,,,,,,,,,,,,,,,,,,,,,,,,,,,,,,,,,,,,,,,,,,,,,,,,,,,,,,,,,,,,,,,,,,
,,,,,,,,,,5d0f4380e0392a00170d8def,57,Mężczyzna,2022-06-04_08h09.56.562,task,2021.1.4,MacIntel,60.0024001,628b806c463b948bc644b84f,629af719d1930bdf59e767e5,,,,,1,0,1,0,1,X V Q F H G B L J M P D K C T S W R N Z,,,,,,,,,,,,,,,,,,,,,,,,,,,,,,,,,,,,,,,,,,,,,,,,,,,,,,,,,,,,,,,,,,,,,,,,,,,,,,,,,,,,,,,,,,,,,
,,,,,,,,,,5d0f4380e0392a00170d8def,57,Mężczyzna,2022-06-04_08h09.56.562,task,2021.1.4,MacIntel,60.0024001,628b806c463b948bc644b84f,629af719d1930bdf59e767e5,,,,,2,0,2,0,1,X V Q F H G B L J M P D K C T S W R N Z,,,,,,,,,,,,,,,,,,,,,,,,,,,,,,,,,,,,,,,,,,,,,,,,,,,,,,,,,,,,,,,,,,,,,,,,,,,,,,,,,,,,,,,,,,,,,
,,,,,,,,,,5d0f4380e0392a00170d8def,57,Mężczyzna,2022-06-04_08h09.56.562,task,2021.1.4,MacIntel,60.0024001,628b806c463b948bc644b84f,629af719d1930bdf59e767e5,,,,,,,,,,,vbc,"[""v"",""b"",""c""]","[1.9504000000003998,2.5322000000002163,3.284200000000169,4.218000000000075]",1,VBC,2,0,2,0,1,,,,,,,,,,,,,,,,,,,,,,,,,,,,,,,,,,,,,,,,,,,,,,,,,,,,,,,,,,,,,,,,,,,,,,,,,,,,,,,,,,,
,,,,,,,,,,5d0f4380e0392a00170d8def,57,Mężczyzna,2022-06-04_08h09.56.562,task,2021.1.4,MacIntel,60.0024001,628b806c463b948bc644b84f,629af719d1930bdf59e767e5,,,,,0,0,0,0,1,X V Q F H G B L J M P D K C T S W R N Z,,,,,,,,,,,,,,,,,,,,,,,,,,,,,,,,,,,,,,,,,,,,,,,,,,,,,,,,,,,,,,,,,,,,,,,,,,,,,,,,,,,,,,,,,,,,,
,,,,,,,,,,5d0f4380e0392a00170d8def,57,Mężczyzna,2022-06-04_08h09.56.562,task,2021.1.4,MacIntel,60.0024001,628b806c463b948bc644b84f,629af719d1930bdf59e767e5,,,,,1,0,1,0,1,X V Q F H G B L J M P D K C T S W R N Z,,,,,,,,,,,,,,,,,,,,,,,,,,,,,,,,,,,,,,,,,,,,,,,,,,,,,,,,,,,,,,,,,,,,,,,,,,,,,,,,,,,,,,,,,,,,,
,,,,,,,,,,5d0f4380e0392a00170d8def,57,Mężczyzna,2022-06-04_08h09.56.562,task,2021.1.4,MacIntel,60.0024001,628b806c463b948bc644b84f,629af719d1930bdf59e767e5,,,,,2,0,2,0,1,X V Q F H G B L J M P D K C T S W R N Z,,,,,,,,,,,,,,,,,,,,,,,,,,,,,,,,,,,,,,,,,,,,,,,,,,,,,,,,,,,,,,,,,,,,,,,,,,,,,,,,,,,,,,,,,,,,,
,,,,,,,,,,5d0f4380e0392a00170d8def,57,Mężczyzna,2022-06-04_08h09.56.562,task,2021.1.4,MacIntel,60.0024001,628b806c463b948bc644b84f,629af719d1930bdf59e767e5,,,,,,,,,,,dpx,"[""d"",""p"",""x""]","[1.9834000000004153,2.7495999999996457,3.38359999999966,4.469000000000051]",1,DPX,3,0,3,0,1,,,,,,,,,,,,,,,,,,,,,,,,,,,,,,,,,,,,,,,,,,,,,,,,,,,,,,,,,,,,,,,,,,,,,,,,,,,,,,,,,,,
,,,,,,,,,,5d0f4380e0392a00170d8def,57,Mężczyzna,2022-06-04_08h09.56.562,task,2021.1.4,MacIntel,60.0024001,628b806c463b948bc644b84f,629af719d1930bdf59e767e5,,,,,0,0,0,0,1,X V Q F H G B L J M P D K C T S W R N Z,,,,,,,,,,,,,,,,,,,,,,,,,,,,,,,,,,,,,,,,,,,,,,,,,,,,,,,,,,,,,,,,,,,,,,,,,,,,,,,,,,,,,,,,,,,,,
,,,,,,,,,,5d0f4380e0392a00170d8def,57,Mężczyzna,2022-06-04_08h09.56.562,task,2021.1.4,MacIntel,60.0024001,628b806c463b948bc644b84f,629af719d1930bdf59e767e5,,,,,1,0,1,0,1,X V Q F H G B L J M P D K C T S W R N Z,,,,,,,,,,,,,,,,,,,,,,,,,,,,,,,,,,,,,,,,,,,,,,,,,,,,,,,,,,,,,,,,,,,,,,,,,,,,,,,,,,,,,,,,,,,,,
,,,,,,,,,,5d0f4380e0392a00170d8def,57,Mężczyzna,2022-06-04_08h09.56.562,task,2021.1.4,MacIntel,60.0024001,628b806c463b948bc644b84f,629af719d1930bdf59e767e5,,,,,2,0,2,0,1,X V Q F H G B L J M P D K C T S W R N Z,,,,,,,,,,,,,,,,,,,,,,,,,,,,,,,,,,,,,,,,,,,,,,,,,,,,,,,,,,,,,,,,,,,,,,,,,,,,,,,,,,,,,,,,,,,,,
,,,,,,,,,,5d0f4380e0392a00170d8def,57,Mężczyzna,2022-06-04_08h09.56.562,task,2021.1.4,MacIntel,60.0024001,628b806c463b948bc644b84f,629af719d1930bdf59e767e5,,,,,3,0,3,0,1,X V Q F H G B L J M P D K C T S W R N Z,,,,,,,,,,,,,,,,,,,,,,,,,,,,,,,,,,,,,,,,,,,,,,,,,,,,,,,,,,,,,,,,,,,,,,,,,,,,,,,,,,,,,,,,,,,,,
,,,,,,,,,,5d0f4380e0392a00170d8def,57,Mężczyzna,2022-06-04_08h09.56.562,task,2021.1.4,MacIntel,60.0024001,628b806c463b948bc644b84f,629af719d1930bdf59e767e5,,,,,,,,,,,qmvl,"[""q"",""m"",""v"",""l""]","[1.6829000000004726,2.3847999999998137,3.1994000000004235,4.198500000000081,5.18310000000065]",0,QMWL,4,0,4,0,1,,,,,,,,,,,,,,,,,,,,,,,,,,,,,,,,,,,,,,,,,,,,,,,,,,,,,,,,,,,,,,,,,,,,,,,,,,,,,,,,,,,
,,,,,,,,,,5d0f4380e0392a00170d8def,57,Mężczyzna,2022-06-04_08h09.56.562,task,2021.1.4,MacIntel,60.0024001,628b806c463b948bc644b84f,629af719d1930bdf59e767e5,,,,,0,0,0,0,1,X V Q F H G B L J M P D K C T S W R N Z,,,,,,,,,,,,,,,,,,,,,,,,,,,,,,,,,,,,,,,,,,,,,,,,,,,,,,,,,,,,,,,,,,,,,,,,,,,,,,,,,,,,,,,,,,,,,
,,,,,,,,,,5d0f4380e0392a00170d8def,57,Mężczyzna,2022-06-04_08h09.56.562,task,2021.1.4,MacIntel,60.0024001,628b806c463b948bc644b84f,629af719d1930bdf59e767e5,,,,,1,0,1,0,1,X V Q F H G B L J M P D K C T S W R N Z,,,,,,,,,,,,,,,,,,,,,,,,,,,,,,,,,,,,,,,,,,,,,,,,,,,,,,,,,,,,,,,,,,,,,,,,,,,,,,,,,,,,,,,,,,,,,
,,,,,,,,,,5d0f4380e0392a00170d8def,57,Mężczyzna,2022-06-04_08h09.56.562,task,2021.1.4,MacIntel,60.0024001,628b806c463b948bc644b84f,629af719d1930bdf59e767e5,,,,,2,0,2,0,1,X V Q F H G B L J M P D K C T S W R N Z,,,,,,,,,,,,,,,,,,,,,,,,,,,,,,,,,,,,,,,,,,,,,,,,,,,,,,,,,,,,,,,,,,,,,,,,,,,,,,,,,,,,,,,,,,,,,
,,,,,,,,,,5d0f4380e0392a00170d8def,57,Mężczyzna,2022-06-04_08h09.56.562,task,2021.1.4,MacIntel,60.0024001,628b806c463b948bc644b84f,629af719d1930bdf59e767e5,,,,,3,0,3,0,1,X V Q F H G B L J M P D K C T S W R N Z,,,,,,,,,,,,,,,,,,,,,,,,,,,,,,,,,,,,,,,,,,,,,,,,,,,,,,,,,,,,,,,,,,,,,,,,,,,,,,,,,,,,,,,,,,,,,
,,,,,,,,,,5d0f4380e0392a00170d8def,57,Mężczyzna,2022-06-04_08h09.56.562,task,2021.1.4,MacIntel,60.0024001,628b806c463b948bc644b84f,629af719d1930bdf59e767e5,,,,,,,,,,,lzdr,"[""l"",""z"",""d"",""r""]","[1.350999999999999,2.839700000000107,4.638599999999542,5.250400000000354,6.191599999999539]",1,LZDR,5,0,5,0,1,,,,,,,,,,,,,,,,,,,,,,,,,,,,,,,,,,,,,,,,,,,,,,,,,,,,,,,,,,,,,,,,,,,,,,,,,,,,,,,,,,,
,,,,,,,,,,5d0f4380e0392a00170d8def,57,Mężczyzna,2022-06-04_08h09.56.562,task,2021.1.4,MacIntel,60.0024001,628b806c463b948bc644b84f,629af719d1930bdf59e767e5,,,,,0,0,0,0,1,X V Q F H G B L J M P D K C T S W R N Z,,,,,,,,,,,,,,,,,,,,,,,,,,,,,,,,,,,,,,,,,,,,,,,,,,,,,,,,,,,,,,,,,,,,,,,,,,,,,,,,,,,,,,,,,,,,,
,,,,,,,,,,5d0f4380e0392a00170d8def,57,Mężczyzna,2022-06-04_08h09.56.562,task,2021.1.4,MacIntel,60.0024001,628b806c463b948bc644b84f,629af719d1930bdf59e767e5,,,,,1,0,1,0,1,X V Q F H G B L J M P D K C T S W R N Z,,,,,,,,,,,,,,,,,,,,,,,,,,,,,,,,,,,,,,,,,,,,,,,,,,,,,,,,,,,,,,,,,,,,,,,,,,,,,,,,,,,,,,,,,,,,,
,,,,,,,,,,5d0f4380e0392a00170d8def,57,Mężczyzna,2022-06-04_08h09.56.562,task,2021.1.4,MacIntel,60.0024001,628b806c463b948bc644b84f,629af719d1930bdf59e767e5,,,,,2,0,2,0,1,X V Q F H G B L J M P D K C T S W R N Z,,,,,,,,,,,,,,,,,,,,,,,,,,,,,,,,,,,,,,,,,,,,,,,,,,,,,,,,,,,,,,,,,,,,,,,,,,,,,,,,,,,,,,,,,,,,,
,,,,,,,,,,5d0f4380e0392a00170d8def,57,Mężczyzna,2022-06-04_08h09.56.562,task,2021.1.4,MacIntel,60.0024001,628b806c463b948bc644b84f,629af719d1930bdf59e767e5,,,,,3,0,3,0,1,X V Q F H G B L J M P D K C T S W R N Z,,,,,,,,,,,,,,,,,,,,,,,,,,,,,,,,,,,,,,,,,,,,,,,,,,,,,,,,,,,,,,,,,,,,,,,,,,,,,,,,,,,,,,,,,,,,,
,,,,,,,,,,5d0f4380e0392a00170d8def,57,Mężczyzna,2022-06-04_08h09.56.562,task,2021.1.4,MacIntel,60.0024001,628b806c463b948bc644b84f,629af719d1930bdf59e767e5,,,,,,,,,,,dclm,"[""d"",""c"",""l"",""m""]","[2.083899999999403,3.0481999999992695,3.6504999999999654,4.20479999999975,5.226699999999255]",1,DCLM,6,0,6,0,1,,,,,,,,,,,,,,,,,,,,,,,,,,,,,,,,,,,,,,,,,,,,,,,,,,,,,,,,,,,,,,,,,,,,,,,,,,,,,,,,,,,
,,,,,,,,,,5d0f4380e0392a00170d8def,57,Mężczyzna,2022-06-04_08h09.56.562,task,2021.1.4,MacIntel,60.0024001,628b806c463b948bc644b84f,629af719d1930bdf59e767e5,,,,,0,0,0,0,1,X V Q F H G B L J M P D K C T S W R N Z,,,,,,,,,,,,,,,,,,,,,,,,,,,,,,,,,,,,,,,,,,,,,,,,,,,,,,,,,,,,,,,,,,,,,,,,,,,,,,,,,,,,,,,,,,,,,
,,,,,,,,,,5d0f4380e0392a00170d8def,57,Mężczyzna,2022-06-04_08h09.56.562,task,2021.1.4,MacIntel,60.0024001,628b806c463b948bc644b84f,629af719d1930bdf59e767e5,,,,,1,0,1,0,1,X V Q F H G B L J M P D K C T S W R N Z,,,,,,,,,,,,,,,,,,,,,,,,,,,,,,,,,,,,,,,,,,,,,,,,,,,,,,,,,,,,,,,,,,,,,,,,,,,,,,,,,,,,,,,,,,,,,
,,,,,,,,,,5d0f4380e0392a00170d8def,57,Mężczyzna,2022-06-04_08h09.56.562,task,2021.1.4,MacIntel,60.0024001,628b806c463b948bc644b84f,629af719d1930bdf59e767e5,,,,,2,0,2,0,1,X V Q F H G B L J M P D K C T S W R N Z,,,,,,,,,,,,,,,,,,,,,,,,,,,,,,,,,,,,,,,,,,,,,,,,,,,,,,,,,,,,,,,,,,,,,,,,,,,,,,,,,,,,,,,,,,,,,
,,,,,,,,,,5d0f4380e0392a00170d8def,57,Mężczyzna,2022-06-04_08h09.56.562,task,2021.1.4,MacIntel,60.0024001,628b806c463b948bc644b84f,629af719d1930bdf59e767e5,,,,,3,0,3,0,1,X V Q F H G B L J M P D K C T S W R N Z,,,,,,,,,,,,,,,,,,,,,,,,,,,,,,,,,,,,,,,,,,,,,,,,,,,,,,,,,,,,,,,,,,,,,,,,,,,,,,,,,,,,,,,,,,,,,
,,,,,,,,,,5d0f4380e0392a00170d8def,57,Mężczyzna,2022-06-04_08h09.56.562,task,2021.1.4,MacIntel,60.0024001,628b806c463b948bc644b84f,629af719d1930bdf59e767e5,,,,,4,0,4,0,1,X V Q F H G B L J M P D K C T S W R N Z,,,,,,,,,,,,,,,,,,,,,,,,,,,,,,,,,,,,,,,,,,,,,,,,,,,,,,,,,,,,,,,,,,,,,,,,,,,,,,,,,,,,,,,,,,,,,
,,,,,,,,,,5d0f4380e0392a00170d8def,57,Mężczyzna,2022-06-04_08h09.56.562,task,2021.1.4,MacIntel,60.0024001,628b806c463b948bc644b84f,629af719d1930bdf59e767e5,,,,,,,,,,,dqkdq,"[""d"",""q"",""k"",""d"",""q""]","[1.877300000000787,2.885200000000168,3.8314000000003716,4.6684999999999945,5.901600000000599,7.64110000000062]",0,DQKTQ,7,0,7,0,1,,,,,,,,,,,,,,,,,,,,,,,,,,,,,,,,,,,,,,,,,,,,,,,,,,,,,,,,,,,,,,,,,,,,,,,,,,,,,,,,,,,
,,,,,,,,,,5d0f4380e0392a00170d8def,57,Mężczyzna,2022-06-04_08h09.56.562,task,2021.1.4,MacIntel,60.0024001,628b806c463b948bc644b84f,629af719d1930bdf59e767e5,,,,,0,0,0,0,1,X V Q F H G B L J M P D K C T S W R N Z,,,,,,,,,,,,,,,,,,,,,,,,,,,,,,,,,,,,,,,,,,,,,,,,,,,,,,,,,,,,,,,,,,,,,,,,,,,,,,,,,,,,,,,,,,,,,
,,,,,,,,,,5d0f4380e0392a00170d8def,57,Mężczyzna,2022-06-04_08h09.56.562,task,2021.1.4,MacIntel,60.0024001,628b806c463b948bc644b84f,629af719d1930bdf59e767e5,,,,,1,0,1,0,1,X V Q F H G B L J M P D K C T S W R N Z,,,,,,,,,,,,,,,,,,,,,,,,,,,,,,,,,,,,,,,,,,,,,,,,,,,,,,,,,,,,,,,,,,,,,,,,,,,,,,,,,,,,,,,,,,,,,
,,,,,,,,,,5d0f4380e0392a00170d8def,57,Mężczyzna,2022-06-04_08h09.56.562,task,2021.1.4,MacIntel,60.0024001,628b806c463b948bc644b84f,629af719d1930bdf59e767e5,,,,,2,0,2,0,1,X V Q F H G B L J M P D K C T S W R N Z,,,,,,,,,,,,,,,,,,,,,,,,,,,,,,,,,,,,,,,,,,,,,,,,,,,,,,,,,,,,,,,,,,,,,,,,,,,,,,,,,,,,,,,,,,,,,
,,,,,,,,,,5d0f4380e0392a00170d8def,57,Mężczyzna,2022-06-04_08h09.56.562,task,2021.1.4,MacIntel,60.0024001,628b806c463b948bc644b84f,629af719d1930bdf59e767e5,,,,,3,0,3,0,1,X V Q F H G B L J M P D K C T S W R N Z,,,,,,,,,,,,,,,,,,,,,,,,,,,,,,,,,,,,,,,,,,,,,,,,,,,,,,,,,,,,,,,,,,,,,,,,,,,,,,,,,,,,,,,,,,,,,
,,,,,,,,,,5d0f4380e0392a00170d8def,57,Mężczyzna,2022-06-04_08h09.56.562,task,2021.1.4,MacIntel,60.0024001,628b806c463b948bc644b84f,629af719d1930bdf59e767e5,,,,,4,0,4,0,1,X V Q F H G B L J M P D K C T S W R N Z,,,,,,,,,,,,,,,,,,,,,,,,,,,,,,,,,,,,,,,,,,,,,,,,,,,,,,,,,,,,,,,,,,,,,,,,,,,,,,,,,,,,,,,,,,,,,
,,,,,,,,,,5d0f4380e0392a00170d8def,57,Mężczyzna,2022-06-04_08h09.56.562,task,2021.1.4,MacIntel,60.0024001,628b806c463b948bc644b84f,629af719d1930bdf59e767e5,,,,,,,,,,,rfcpf,"[""r"",""f"",""c"",""p"",""f""]","[2.034700000000157,2.5247999999998,3.1319000000003143,4.294299999999794,5.317400000000362,6.848599999999578]",0,FRCPF,8,0,8,0,1,,,,,,,,,,,,,,,,,,,,,,,,,,,,,,,,,,,,,,,,,,,,,,,,,,,,,,,,,,,,,,,,,,,,,,,,,,,,,,,,,,,
,,,,,,,,,,5d0f4380e0392a00170d8def,57,Mężczyzna,2022-06-04_08h09.56.562,task,2021.1.4,MacIntel,60.0024001,628b806c463b948bc644b84f,629af719d1930bdf59e767e5,,,,,0,0,0,0,1,X V Q F H G B L J M P D K C T S W R N Z,,,,,,,,,,,,,,,,,,,,,,,,,,,,,,,,,,,,,,,,,,,,,,,,,,,,,,,,,,,,,,,,,,,,,,,,,,,,,,,,,,,,,,,,,,,,,
,,,,,,,,,,5d0f4380e0392a00170d8def,57,Mężczyzna,2022-06-04_08h09.56.562,task,2021.1.4,MacIntel,60.0024001,628b806c463b948bc644b84f,629af719d1930bdf59e767e5,,,,,1,0,1,0,1,X V Q F H G B L J M P D K C T S W R N Z,,,,,,,,,,,,,,,,,,,,,,,,,,,,,,,,,,,,,,,,,,,,,,,,,,,,,,,,,,,,,,,,,,,,,,,,,,,,,,,,,,,,,,,,,,,,,
,,,,,,,,,,5d0f4380e0392a00170d8def,57,Mężczyzna,2022-06-04_08h09.56.562,task,2021.1.4,MacIntel,60.0024001,628b806c463b948bc644b84f,629af719d1930bdf59e767e5,,,,,2,0,2,0,1,X V Q F H G B L J M P D K C T S W R N Z,,,,,,,,,,,,,,,,,,,,,,,,,,,,,,,,,,,,,,,,,,,,,,,,,,,,,,,,,,,,,,,,,,,,,,,,,,,,,,,,,,,,,,,,,,,,,
,,,,,,,,,,5d0f4380e0392a00170d8def,57,Mężczyzna,2022-06-04_08h09.56.562,task,2021.1.4,MacIntel,60.0024001,628b806c463b948bc644b84f,629af719d1930bdf59e767e5,,,,,3,0,3,0,1,X V Q F H G B L J M P D K C T S W R N Z,,,,,,,,,,,,,,,,,,,,,,,,,,,,,,,,,,,,,,,,,,,,,,,,,,,,,,,,,,,,,,,,,,,,,,,,,,,,,,,,,,,,,,,,,,,,,
,,,,,,,,,,5d0f4380e0392a00170d8def,57,Mężczyzna,2022-06-04_08h09.56.562,task,2021.1.4,MacIntel,60.0024001,628b806c463b948bc644b84f,629af719d1930bdf59e767e5,,,,,4,0,4,0,1,X V Q F H G B L J M P D K C T S W R N Z,,,,,,,,,,,,,,,,,,,,,,,,,,,,,,,,,,,,,,,,,,,,,,,,,,,,,,,,,,,,,,,,,,,,,,,,,,,,,,,,,,,,,,,,,,,,,
,,,,,,,,,,5d0f4380e0392a00170d8def,57,Mężczyzna,2022-06-04_08h09.56.562,task,2021.1.4,MacIntel,60.0024001,628b806c463b948bc644b84f,629af719d1930bdf59e767e5,,,,,,,,,,,tspph,"[""t"",""s"",""p"",""p"",""h""]","[1.4467000000001917,2.0499999999999545,2.732200000000148,3.066000000000031,3.6361000000006243,6.851100000000542]",1,TSPPH,9,0,9,0,1,,,,,,,,,,,,,,,,,,,,,,,,,,,,,,,,,,,,,,,,,,,,,,,,,,,,,,,,,,,,,,,,,,,,,,,,,,,,,,,,,,,
,,,,,,,,,,5d0f4380e0392a00170d8def,57,Mężczyzna,2022-06-04_08h09.56.562,task,2021.1.4,MacIntel,60.0024001,628b806c463b948bc644b84f,629af719d1930bdf59e767e5,,,,,0,0,0,0,1,X V Q F H G B L J M P D K C T S W R N Z,,,,,,,,,,,,,,,,,,,,,,,,,,,,,,,,,,,,,,,,,,,,,,,,,,,,,,,,,,,,,,,,,,,,,,,,,,,,,,,,,,,,,,,,,,,,,
,,,,,,,,,,5d0f4380e0392a00170d8def,57,Mężczyzna,2022-06-04_08h09.56.562,task,2021.1.4,MacIntel,60.0024001,628b806c463b948bc644b84f,629af719d1930bdf59e767e5,,,,,1,0,1,0,1,X V Q F H G B L J M P D K C T S W R N Z,,,,,,,,,,,,,,,,,,,,,,,,,,,,,,,,,,,,,,,,,,,,,,,,,,,,,,,,,,,,,,,,,,,,,,,,,,,,,,,,,,,,,,,,,,,,,
,,,,,,,,,,5d0f4380e0392a00170d8def,57,Mężczyzna,2022-06-04_08h09.56.562,task,2021.1.4,MacIntel,60.0024001,628b806c463b948bc644b84f,629af719d1930bdf59e767e5,,,,,2,0,2,0,1,X V Q F H G B L J M P D K C T S W R N Z,,,,,,,,,,,,,,,,,,,,,,,,,,,,,,,,,,,,,,,,,,,,,,,,,,,,,,,,,,,,,,,,,,,,,,,,,,,,,,,,,,,,,,,,,,,,,
,,,,,,,,,,5d0f4380e0392a00170d8def,57,Mężczyzna,2022-06-04_08h09.56.562,task,2021.1.4,MacIntel,60.0024001,628b806c463b948bc644b84f,629af719d1930bdf59e767e5,,,,,3,0,3,0,1,X V Q F H G B L J M P D K C T S W R N Z,,,,,,,,,,,,,,,,,,,,,,,,,,,,,,,,,,,,,,,,,,,,,,,,,,,,,,,,,,,,,,,,,,,,,,,,,,,,,,,,,,,,,,,,,,,,,
,,,,,,,,,,5d0f4380e0392a00170d8def,57,Mężczyzna,2022-06-04_08h09.56.562,task,2021.1.4,MacIntel,60.0024001,628b806c463b948bc644b84f,629af719d1930bdf59e767e5,,,,,4,0,4,0,1,X V Q F H G B L J M P D K C T S W R N Z,,,,,,,,,,,,,,,,,,,,,,,,,,,,,,,,,,,,,,,,,,,,,,,,,,,,,,,,,,,,,,,,,,,,,,,,,,,,,,,,,,,,,,,,,,,,,
,,,,,,,,,,5d0f4380e0392a00170d8def,57,Mężczyzna,2022-06-04_08h09.56.562,task,2021.1.4,MacIntel,60.0024001,628b806c463b948bc644b84f,629af719d1930bdf59e767e5,,,,,,,,,,,hzqp,"[""h"",""z"",""q"",""p""]","[2.3018000000007532,3.251200000000267,4.216200000000185,7.20150000000001,7.833500000000072]",0,HZQGZ,10,0,10,0,1,,,,,,,,,,,,,,,,,,,,,,,,,,,,,,,,,,,,,,,,,,,,,,,,,,,,,,,,,,,,,,,,,,,,,,,,,,,,,,,,,,,
,,,,,,,,,,5d0f4380e0392a00170d8def,57,Mężczyzna,2022-06-04_08h09.56.562,task,2021.1.4,MacIntel,60.0024001,628b806c463b948bc644b84f,629af719d1930bdf59e767e5,,,,,,,,,,,,,,,,,,,,,space,29.8758,8,"[""8""]",0,[15.146400000000313],[15.146400000000313],0,0,0,4,1,Practice,5,(2x6) - 8,4,,,,,,,,,,,,,,,,,,,,,,,,,,,,,,,,,,,,,,,,,,,,,,,,,,,,,,,,,,,,,,,,,,,
,,,,,,,,,,5d0f4380e0392a00170d8def,57,Mężczyzna,2022-06-04_08h09.56.562,task,2021.1.4,MacIntel,60.0024001,628b806c463b948bc644b84f,629af719d1930bdf59e767e5,,,,,,,,,,,,,,,,,,,,,,,0,"[""0""]",1,[4.120400000000359],"[15.146400000000313,4.120400000000359]",0,1,1,0,1,Practice,1,(3x3) -  9,0,,,,,,,,,,,,,,,,,,,,,,,,,,,,,,,,,,,,,,,,,,,,,,,,,,,,,,,,,,,,,,,,,,,
,,,,,,,,,,5d0f4380e0392a00170d8def,57,Mężczyzna,2022-06-04_08h09.56.562,task,2021.1.4,MacIntel,60.0024001,628b806c463b948bc644b84f,629af719d1930bdf59e767e5,,,,,,,,,,,,,,,,,,,,,,,3,"[""3""]",0,[7.133800000000747],"[15.146400000000313,4.120400000000359,7.133800000000747]",0,2,2,7,1,Practice,8,(5x5) - 18,7,,,,,,,,,,,,,,,,,,,,,,,,,,,,,,,,,,,,,,,,,,,,,,,,,,,,,,,,,,,,,,,,,,,
,,,,,,,,,,5d0f4380e0392a00170d8def,57,Mężczyzna,2022-06-04_08h09.56.562,task,2021.1.4,MacIntel,60.0024001,628b806c463b948bc644b84f,629af719d1930bdf59e767e5,,,,,,,,,,,,,,,,,,,,,,,2,"[""2""]",0,[24.693299999999795],"[15.146400000000313,4.120400000000359,7.133800000000747,24.693299999999795]",0,3,3,6,1,Practice,7,(25/5) + 1,6,,,,,,,,,,,,,,,,,,,,,,,,,,,,,,,,,,,,,,,,,,,,,,,,,,,,,,,,,,,,,,,,,,,
,,,,,,,,,,5d0f4380e0392a00170d8def,57,Mężczyzna,2022-06-04_08h09.56.562,task,2021.1.4,MacIntel,60.0024001,628b806c463b948bc644b84f,629af719d1930bdf59e767e5,,,,,,,,,,,,,,,,,,,,,,,1,"[""1""]",1,[5.769600000000651],"[15.146400000000313,4.120400000000359,7.133800000000747,24.693299999999795,5.769600000000651]",0,4,4,1,1,Practice,2,(4x4) - 15,1,,,,,,,,,,,,,,,,,,,,,,,,,,,,,,,,,,,,,,,,,,,,,,,,,,,,,,,,,,,,,,,,,,,
,,,,,,,,,,5d0f4380e0392a00170d8def,57,Mężczyzna,2022-06-04_08h09.56.562,task,2021.1.4,MacIntel,60.0024001,628b806c463b948bc644b84f,629af719d1930bdf59e767e5,,,,,,,,,,,,,,,,,,,,,,,2,"[""2""]",1,[3.8711999999992486],"[15.146400000000313,4.120400000000359,7.133800000000747,24.693299999999795,5.769600000000651,3.8711999999992486]",0,5,5,2,1,Practice,3,(4x4) - 14,2,,,,,,,,,,,,,,,,,,,,,,,,,,,,,,,,,,,,,,,,,,,,,,,,,,,,,,,,,,,,,,,,,,,
,,,,,,,,,,5d0f4380e0392a00170d8def,57,Mężczyzna,2022-06-04_08h09.56.562,task,2021.1.4,MacIntel,60.0024001,628b806c463b948bc644b84f,629af719d1930bdf59e767e5,,,,,,,,,,,,,,,,,,,,,,,7,"[""7""]",0,[6.56460000000061],"[15.146400000000313,4.120400000000359,7.133800000000747,24.693299999999795,5.769600000000651,3.8711999999992486,6.56460000000061]",0,6,6,9,1,Practice,10,(20/2) - 1,9,,,,,,,,,,,,,,,,,,,,,,,,,,,,,,,,,,,,,,,,,,,,,,,,,,,,,,,,,,,,,,,,,,,
,,,,,,,,,,5d0f4380e0392a00170d8def,57,Mężczyzna,2022-06-04_08h09.56.562,task,2021.1.4,MacIntel,60.0024001,628b806c463b948bc644b84f,629af719d1930bdf59e767e5,,,,,,,,,,,,,,,,,,,,,,,7,"[""7""]",0,[4.66809999999964],"[15.146400000000313,4.120400000000359,7.133800000000747,24.693299999999795,5.769600000000651,3.8711999999992486,6.56460000000061,4.66809999999964]",0,7,7,8,1,Practice,9,(3x3) - 1,8,,,,,,,,,,,,,,,,,,,,,,,,,,,,,,,,,,,,,,,,,,,,,,,,,,,,,,,,,,,,,,,,,,,
,,,,,,,,,,5d0f4380e0392a00170d8def,57,Mężczyzna,2022-06-04_08h09.56.562,task,2021.1.4,MacIntel,60.0024001,628b806c463b948bc644b84f,629af719d1930bdf59e767e5,,,,,,,,,,,,,,,,,,,,,,,7,"[""7""]",0,[53.884799999999814],"[15.146400000000313,4.120400000000359,7.133800000000747,24.693299999999795,5.769600000000651,3.8711999999992486,6.56460000000061,4.66809999999964,53.884799999999814]",0,8,8,5,1,Practice,6,(4/2) + 3,5,,,,,,,,,,,,,,,,,,,,,,,,,,,,,,,,,,,,,,,,,,,,,,,,,,,,,,,,,,,,,,,,,,,
,,,,,,,,,,5d0f4380e0392a00170d8def,57,Mężczyzna,2022-06-04_08h09.56.562,task,2021.1.4,MacIntel,60.0024001,628b806c463b948bc644b84f,629af719d1930bdf59e767e5,,,,,,,,,,,,,,,,,,,,,,,5,"[""5""]",0,[7.2342000000002145],"[15.146400000000313,4.120400000000359,7.133800000000747,24.693299999999795,5.769600000000651,3.8711999999992486,6.56460000000061,4.66809999999964,53.884799999999814,7.2342000000002145]",0,9,9,3,1,Practice,4,(8/4) + 1,3,,,,,,,,,,,,,,,,,,,,,,,,,,,,,,,,,,,,,,,,,,,,,,,,,,,,,,,,,,,,,,,,,,,
,,,,,,,,,,5d0f4380e0392a00170d8def,57,Mężczyzna,2022-06-04_08h09.56.562,task,2021.1.4,MacIntel,60.0024001,628b806c463b948bc644b84f,629af719d1930bdf59e767e5,,,,,,,,,,,,,,,,,,,,,,,,,,,,,,,,,,,,,133.0864,8.872426667,2401.707122,12.6536085,41.51873661,space,4.2962,0,0,0,0,1,,,,,,,,,,,,,,,,,,,,,,,,,,,,,,,,,,,,,,,,,,,,,,,,,,,,,,,
,,,,,,,,,,5d0f4380e0392a00170d8def,57,Mężczyzna,2022-06-04_08h09.56.562,task,2021.1.4,MacIntel,60.0024001,628b806c463b948bc644b84f,629af719d1930bdf59e767e5,,,,,,,,,,,,,,,,,,,,,,,6,"[""6""]",1,[55.017999999999915],"[15.146400000000313,4.120400000000359,7.133800000000747,24.693299999999795,5.769600000000651,3.8711999999992486,6.56460000000061,4.66809999999964,53.884799999999814,7.2342000000002145,55.017999999999915]",0,0,0,6,1,Practice,7,(25/5) + 1,6,,,,,,,,,,,,,,,,,,,,,,,,,,,,,,,,,,,,,,,,,,,,,,,,,,,,,,,,,,,,,,,,,,,
,,,,,,,,,,5d0f4380e0392a00170d8def,57,Mężczyzna,2022-06-04_08h09.56.562,task,2021.1.4,MacIntel,60.0024001,628b806c463b948bc644b84f,629af719d1930bdf59e767e5,,,,,,,,,,,,,,,,,,,,,,,1,"[""1""]",1,[3.2990999999997257],"[15.146400000000313,4.120400000000359,7.133800000000747,24.693299999999795,5.769600000000651,3.8711999999992486,6.56460000000061,4.66809999999964,53.884799999999814,7.2342000000002145,55.017999999999915,3.2990999999997257]",0,1,1,1,1,Practice,2,(4x4) - 15,1,,,,,,,,,,,,,,,,,,,,,,,,,,,,,,,,,,,,,,,,,,,,,,,,,,,,,,,,,,,,,,,,,,,
,,,,,,,,,,5d0f4380e0392a00170d8def,57,Mężczyzna,2022-06-04_08h09.56.562,task,2021.1.4,MacIntel,60.0024001,628b806c463b948bc644b84f,629af719d1930bdf59e767e5,,,,,,,,,,,,,,,,,,,,,,,0,"[""0""]",1,[2.7352999999998246],"[15.146400000000313,4.120400000000359,7.133800000000747,24.693299999999795,5.769600000000651,3.8711999999992486,6.56460000000061,4.66809999999964,53.884799999999814,7.2342000000002145,55.017999999999915,3.2990999999997257,2.7352999999998246]",0,2,2,0,1,Practice,1,(3x3) -  9,0,,,,,,,,,,,,,,,,,,,,,,,,,,,,,,,,,,,,,,,,,,,,,,,,,,,,,,,,,,,,,,,,,,,
,,,,,,,,,,5d0f4380e0392a00170d8def,57,Mężczyzna,2022-06-04_08h09.56.562,task,2021.1.4,MacIntel,60.0024001,628b806c463b948bc644b84f,629af719d1930bdf59e767e5,,,,,,,,,,,,,,,,,,,,,,,2,"[""2""]",1,[2.4260000000000446],"[15.146400000000313,4.120400000000359,7.133800000000747,24.693299999999795,5.769600000000651,3.8711999999992486,6.56460000000061,4.66809999999964,53.884799999999814,7.2342000000002145,55.017999999999915,3.2990999999997257,2.7352999999998246,2.4260000000000446]",0,3,3,2,1,Practice,3,(4x4) - 14,2,,,,,,,,,,,,,,,,,,,,,,,,,,,,,,,,,,,,,,,,,,,,,,,,,,,,,,,,,,,,,,,,,,,
,,,,,,,,,,5d0f4380e0392a00170d8def,57,Mężczyzna,2022-06-04_08h09.56.562,task,2021.1.4,MacIntel,60.0024001,628b806c463b948bc644b84f,629af719d1930bdf59e767e5,,,,,,,,,,,,,,,,,,,,,,,4,"[""4""]",1,[4.9632999999997764],"[15.146400000000313,4.120400000000359,7.133800000000747,24.693299999999795,5.769600000000651,3.8711999999992486,6.56460000000061,4.66809999999964,53.884799999999814,7.2342000000002145,55.017999999999915,3.2990999999997257,2.7352999999998246,2.4260000000000446,4.9632999999997764]",0,4,4,4,1,Practice,5,(2x6) - 8,4,,,,,,,,,,,,,,,,,,,,,,,,,,,,,,,,,,,,,,,,,,,,,,,,,,,,,,,,,,,,,,,,,,,
,,,,,,,,,,5d0f4380e0392a00170d8def,57,Mężczyzna,2022-06-04_08h09.56.562,task,2021.1.4,MacIntel,60.0024001,628b806c463b948bc644b84f,629af719d1930bdf59e767e5,,,,,,,,,,,,,,,,,,,,,,,9,"[""9""]",1,[17.201700000000187],"[15.146400000000313,4.120400000000359,7.133800000000747,24.693299999999795,5.769600000000651,3.8711999999992486,6.56460000000061,4.66809999999964,53.884799999999814,7.2342000000002145,55.017999999999915,3.2990999999997257,2.7352999999998246,2.4260000000000446,4.9632999999997764,17.201700000000187]",0,5,5,9,1,Practice,10,(20/2) - 1,9,,,,,,,,,,,,,,,,,,,,,,,,,,,,,,,,,,,,,,,,,,,,,,,,,,,,,,,,,,,,,,,,,,,
,,,,,,,,,,5d0f4380e0392a00170d8def,57,Mężczyzna,2022-06-04_08h09.56.562,task,2021.1.4,MacIntel,60.0024001,628b806c463b948bc644b84f,629af719d1930bdf59e767e5,,,,,,,,,,,,,,,,,,,,,,,7,"[""7""]",1,[17.38379999999995],"[15.146400000000313,4.120400000000359,7.133800000000747,24.693299999999795,5.769600000000651,3.8711999999992486,6.56460000000061,4.66809999999964,53.884799999999814,7.2342000000002145,55.017999999999915,3.2990999999997257,2.7352999999998246,2.4260000000000446,4.9632999999997764,17.201700000000187,17.38379999999995]",0,6,6,7,1,Practice,8,(5x5) - 18,7,,,,,,,,,,,,,,,,,,,,,,,,,,,,,,,,,,,,,,,,,,,,,,,,,,,,,,,,,,,,,,,,,,,
,,,,,,,,,,5d0f4380e0392a00170d8def,57,Mężczyzna,2022-06-04_08h09.56.562,task,2021.1.4,MacIntel,60.0024001,628b806c463b948bc644b84f,629af719d1930bdf59e767e5,,,,,,,,,,,,,,,,,,,,,,,3,"[""3""]",1,[14.917000000000144],"[15.146400000000313,4.120400000000359,7.133800000000747,24.693299999999795,5.769600000000651,3.8711999999992486,6.56460000000061,4.66809999999964,53.884799999999814,7.2342000000002145,55.017999999999915,3.2990999999997257,2.7352999999998246,2.4260000000000446,4.9632999999997764,17.201700000000187,17.38379999999995,14.917000000000144]",0,7,7,3,1,Practice,4,(8/4) + 1,3,,,,,,,,,,,,,,,,,,,,,,,,,,,,,,,,,,,,,,,,,,,,,,,,,,,,,,,,,,,,,,,,,,,
,,,,,,,,,,5d0f4380e0392a00170d8def,57,Mężczyzna,2022-06-04_08h09.56.562,task,2021.1.4,MacIntel,60.0024001,628b806c463b948bc644b84f,629af719d1930bdf59e767e5,,,,,,,,,,,,,,,,,,,,,,,5,"[""5""]",1,[15.14990000000057],"[15.146400000000313,4.120400000000359,7.133800000000747,24.693299999999795,5.769600000000651,3.8711999999992486,6.56460000000061,4.66809999999964,53.884799999999814,7.2342000000002145,55.017999999999915,3.2990999999997257,2.7352999999998246,2.4260000000000446,4.9632999999997764,17.201700000000187,17.38379999999995,14.917000000000144,15.14990000000057]",0,8,8,5,1,Practice,6,(4/2) + 3,5,,,,,,,,,,,,,,,,,,,,,,,,,,,,,,,,,,,,,,,,,,,,,,,,,,,,,,,,,,,,,,,,,,,
,,,,,,,,,,5d0f4380e0392a00170d8def,57,Mężczyzna,2022-06-04_08h09.56.562,task,2021.1.4,MacIntel,60.0024001,628b806c463b948bc644b84f,629af719d1930bdf59e767e5,,,,,,,,,,,,,,,,,,,,,,,8,"[""8""]",1,[3.0685999999996056],"[15.146400000000313,4.120400000000359,7.133800000000747,24.693299999999795,5.769600000000651,3.8711999999992486,6.56460000000061,4.66809999999964,53.884799999999814,7.2342000000002145,55.017999999999915,3.2990999999997257,2.7352999999998246,2.4260000000000446,4.9632999999997764,17.201700000000187,17.38379999999995,14.917000000000144,15.14990000000057,3.0685999999996056]",0,9,9,8,1,Practice,9,(3x3) - 1,8,,,,,,,,,,,,,,,,,,,,,,,,,,,,,,,,,,,,,,,,,,,,,,,,,,,,,,,,,,,,,,,,,,,
,,,,,,,,,,5d0f4380e0392a00170d8def,57,Mężczyzna,2022-06-04_08h09.56.562,task,2021.1.4,MacIntel,60.0024001,628b806c463b948bc644b84f,629af719d1930bdf59e767e5,,,,,,,,,,,,,,,,,,,,,,,,,,,,,,,,,,,,,402.3355,26.82236667,10458.21797,26.40482023,94.94680286,space,3.42,1,0,1,0,1,1,,,,,,,,,,,,,,,,,,,,,,,,,,,,,,,,,,,,,,,,,,,,,,,,,,,,,,
,,,,,,,,,,5d0f4380e0392a00170d8def,57,Mężczyzna,2022-06-04_08h09.56.562,task,2021.1.4,MacIntel,60.0024001,628b806c463b948bc644b84f,629af719d1930bdf59e767e5,,,,,,,,,,,,,,,,,,,,,,,5,,,,,,,,,,Practice,6,(4/2) + 3,5,,,,,,,,,,,,,,space,42.4877,"[""5""]",1,[7.428700000000163],1,0,0,0,5,1,,,,,,,,,,,,,,,,,,,,,,,,,,,,,,,,,,,,,,,,,,,
,,,,,,,,,,5d0f4380e0392a00170d8def,57,Mężczyzna,2022-06-04_08h09.56.562,task,2021.1.4,MacIntel,60.0024001,628b806c463b948bc644b84f,629af719d1930bdf59e767e5,,,,,,,,,,X V Q F H G B L J M P D K C T S W R N Z,,,,,,,,,,,,,,,,,,,,,,,,,,,,,,,,,,,,,,,,,,,,,,,,,,,0,0,0,0,1,,,,,,,,,,,,,,,,,,,,,,,,,,,,,,,,,,,,,,
,,,,,,,,,,5d0f4380e0392a00170d8def,57,Mężczyzna,2022-06-04_08h09.56.562,task,2021.1.4,MacIntel,60.0024001,628b806c463b948bc644b84f,629af719d1930bdf59e767e5,,,,,,,,,,,,,,,,,,,,,,,7,,,,,,,,,,Practice,8,(5x5) - 18,7,,,,,,,,,,,,,,,,"[""7""]",1,[8.065900000000283],1,0,0,0,7,1,,,,,,,,,,,,,,,,,,,,,,,,,,,,,,,,,,,,,,,,,,,
,,,,,,,,,,5d0f4380e0392a00170d8def,57,Mężczyzna,2022-06-04_08h09.56.562,task,2021.1.4,MacIntel,60.0024001,628b806c463b948bc644b84f,629af719d1930bdf59e767e5,,,,,,,,,,X V Q F H G B L J M P D K C T S W R N Z,,,,,,,,,,,,,,,,,,,,,,,,,,,,,,,,,,,,,,,,,,,,,,,,,,,1,0,1,0,1,,,,,,,,,,,,,,,,,,,,,,,,,,,,,,,,,,,,,,
,,,,,,,,,,5d0f4380e0392a00170d8def,57,Mężczyzna,2022-06-04_08h09.56.562,task,2021.1.4,MacIntel,60.0024001,628b806c463b948bc644b84f,629af719d1930bdf59e767e5,,,,,,,,,,,,,,,,,,,,,,,,,,,,,,,,,,,,,,,,,,,,,,,,,,,,,,,,,,,,,,,,,,zp,"[""z"",""p""]",0,"[7.075700000000097,7.798599999999624,8.8254000000004]",1,0,0,0,0,1,,,,,,,,,,,,,,,,,,,,,,,,,,,,
,,,,,,,,,,5d0f4380e0392a00170d8def,57,Mężczyzna,2022-06-04_08h09.56.562,task,2021.1.4,MacIntel,60.0024001,628b806c463b948bc644b84f,629af719d1930bdf59e767e5,,,,,,,,,,,,,,,,,,,,,,,8,,,,,,,,,,Practice,9,(3x3) - 1,8,,,,,,,,,,,,,,,,"[""8""]",1,[4.2582999999997355],1,0,0,0,8,1,,,,,,,,,,,,,,,,,,,,,,,,,,,,,,,,,,,,,,,,,,,
,,,,,,,,,,5d0f4380e0392a00170d8def,57,Mężczyzna,2022-06-04_08h09.56.562,task,2021.1.4,MacIntel,60.0024001,628b806c463b948bc644b84f,629af719d1930bdf59e767e5,,,,,,,,,,X V Q F H G B L J M P D K C T S W R N Z,,,,,,,,,,,,,,,,,,,,,,,,,,,,,,,,,,,,,,,,,,,,,,,,,,,0,0,0,0,1,,,,,,,,,,,,,,,,,,,,,,,,,,,,,,,,,,,,,,
,,,,,,,,,,5d0f4380e0392a00170d8def,57,Mężczyzna,2022-06-04_08h09.56.562,task,2021.1.4,MacIntel,60.0024001,628b806c463b948bc644b84f,629af719d1930bdf59e767e5,,,,,,,,,,,,,,,,,,,,,,,0,,,,,,,,,,Practice,1,(3x3) -  9,0,,,,,,,,,,,,,,,,"[""0""]",1,[2.5338999999994485],1,0,0,0,0,1,,,,,,,,,,,,,,,,,,,,,,,,,,,,,,,,,,,,,,,,,,,
,,,,,,,,,,5d0f4380e0392a00170d8def,57,Mężczyzna,2022-06-04_08h09.56.562,task,2021.1.4,MacIntel,60.0024001,628b806c463b948bc644b84f,629af719d1930bdf59e767e5,,,,,,,,,,X V Q F H G B L J M P D K C T S W R N Z,,,,,,,,,,,,,,,,,,,,,,,,,,,,,,,,,,,,,,,,,,,,,,,,,,,1,0,1,0,1,,,,,,,,,,,,,,,,,,,,,,,,,,,,,,,,,,,,,,
,,,,,,,,,,5d0f4380e0392a00170d8def,57,Mężczyzna,2022-06-04_08h09.56.562,task,2021.1.4,MacIntel,60.0024001,628b806c463b948bc644b84f,629af719d1930bdf59e767e5,,,,,,,,,,,,,,,,,,,,,,,,,,,,,,,,,,,,,,,,,,,,,,,,,,,,,,,,,,,,,,,,,,cm,"[""c"",""m""]",0,"[4.891500000000178,5.5047000000001844,6.4240000000002055]",1,1,0,1,0,1,,,,,,,,,,,,,,,,,,,,,,,,,,,,
,,,,,,,,,,5d0f4380e0392a00170d8def,57,Mężczyzna,2022-06-04_08h09.56.562,task,2021.1.4,MacIntel,60.0024001,628b806c463b948bc644b84f,629af719d1930bdf59e767e5,,,,,,,,,,,,,,,,,,,,,,,3,,,,,,,,,,Practice,4,(8/4) + 1,3,,,,,,,,,,,,,,,,"[""3""]",1,[8.36709999999971],1,0,0,0,3,1,,,,,,,,,,,,,,,,,,,,,,,,,,,,,,,,,,,,,,,,,,,
,,,,,,,,,,5d0f4380e0392a00170d8def,57,Mężczyzna,2022-06-04_08h09.56.562,task,2021.1.4,MacIntel,60.0024001,628b806c463b948bc644b84f,629af719d1930bdf59e767e5,,,,,,,,,,X V Q F H G B L J M P D K C T S W R N Z,,,,,,,,,,,,,,,,,,,,,,,,,,,,,,,,,,,,,,,,,,,,,,,,,,,0,0,0,0,1,,,,,,,,,,,,,,,,,,,,,,,,,,,,,,,,,,,,,,
,,,,,,,,,,5d0f4380e0392a00170d8def,57,Mężczyzna,2022-06-04_08h09.56.562,task,2021.1.4,MacIntel,60.0024001,628b806c463b948bc644b84f,629af719d1930bdf59e767e5,,,,,,,,,,,,,,,,,,,,,,,9,,,,,,,,,,Practice,10,(20/2) - 1,9,,,,,,,,,,,,,,,,"[""9""]",1,[9.91669999999931],1,0,0,0,9,1,,,,,,,,,,,,,,,,,,,,,,,,,,,,,,,,,,,,,,,,,,,
,,,,,,,,,,5d0f4380e0392a00170d8def,57,Mężczyzna,2022-06-04_08h09.56.562,task,2021.1.4,MacIntel,60.0024001,628b806c463b948bc644b84f,629af719d1930bdf59e767e5,,,,,,,,,,X V Q F H G B L J M P D K C T S W R N Z,,,,,,,,,,,,,,,,,,,,,,,,,,,,,,,,,,,,,,,,,,,,,,,,,,,1,0,1,0,1,,,,,,,,,,,,,,,,,,,,,,,,,,,,,,,,,,,,,,
,,,,,,,,,,5d0f4380e0392a00170d8def,57,Mężczyzna,2022-06-04_08h09.56.562,task,2021.1.4,MacIntel,60.0024001,628b806c463b948bc644b84f,629af719d1930bdf59e767e5,,,,,,,,,,,,,,,,,,,,,,,,,,,,,,,,,,,,,,,,,,,,,,,,,,,,,,,,,,,,,,,,,,xd,"[""x"",""d""]",0,"[3.339599999999791,3.736299999999801,4.569399999999405]",1,2,0,2,0,1,,,,,,,,,,,,,,,,,,,,,,,,,,,,
,,,,,,,,,,5d0f4380e0392a00170d8def,57,Mężczyzna,2022-06-04_08h09.56.562,task,2021.1.4,MacIntel,60.0024001,628b806c463b948bc644b84f,629af719d1930bdf59e767e5,,,,,,,,,,,,,,,,,,,,,,,2,,,,,,,,,,Task,10,(2x5) - 8,2,,,,,,,,,,,,,,,,,,,1,,,,,,,,,,,,,,,,,,,,,space,23.4613,"[""2""]",1,[5.6965000000000146],0,0,0,9,1,,,,,,,,,,,,,,,,,,
,,,,,,,,,,5d0f4380e0392a00170d8def,57,Mężczyzna,2022-06-04_08h09.56.562,task,2021.1.4,MacIntel,60.0024001,628b806c463b948bc644b84f,629af719d1930bdf59e767e5,,,,,,,,,,X V Q F H G B L J M P D K C T S W R N Z,,,,,,,,,,,,,,,,,,,,,,,,,,,,,,,,,,,,,,,,,,,,,,,,,,,,,,,,,,,,,,,,,,,,,,,,,,,,0,0,0,0,1,,,,,,,,,,,,,
,,,,,,,,,,5d0f4380e0392a00170d8def,57,Mężczyzna,2022-06-04_08h09.56.562,task,2021.1.4,MacIntel,60.0024001,628b806c463b948bc644b84f,629af719d1930bdf59e767e5,,,,,,,,,,,,,,,,,,,,,,,2,,,,,,,,,,Task,10,(2x5) - 8,2,,,,,,,,,,,,,,,,,,,1,,,,,,,,,,,,,,,,,,,,,,,"[""2""]",1,[7.313000000000102],0,0,0,9,1,,,,,,,,,,,,,,,,,,
,,,,,,,,,,5d0f4380e0392a00170d8def,57,Mężczyzna,2022-06-04_08h09.56.562,task,2021.1.4,MacIntel,60.0024001,628b806c463b948bc644b84f,629af719d1930bdf59e767e5,,,,,,,,,,X V Q F H G B L J M P D K C T S W R N Z,,,,,,,,,,,,,,,,,,,,,,,,,,,,,,,,,,,,,,,,,,,,,,,,,,,,,,,,,,,,,,,,,,,,,,,,,,,,1,0,1,0,1,,,,,,,,,,,,,
,,,,,,,,,,5d0f4380e0392a00170d8def,57,Mężczyzna,2022-06-04_08h09.56.562,task,2021.1.4,MacIntel,60.0024001,628b806c463b948bc644b84f,629af719d1930bdf59e767e5,,,,,,,,,,,,,,,,,,,,,,,,,,,,,,,,,,,,,,,,,,,,,,,,,,,,,,,,,,,,,,,,,,,,,,,,,,,,,,,,,,,,,,,,,,,zh,"[""z"",""h""]",0,"[3.2846999999992477,3.985799999999699,4.782199999999193]",1,ZH,0,0,0,0,1,,
,,,,,,,,,,5d0f4380e0392a00170d8def,57,Mężczyzna,2022-06-04_08h09.56.562,task,2021.1.4,MacIntel,60.0024001,628b806c463b948bc644b84f,629af719d1930bdf59e767e5,,,,,,,,,,,,,,,,,,,,,,,0,,,,,,,,,,Task,17,(2x3) - 6,0,,,,,,,,,,,,,,,,,,,1,,,,,,,,,,,,,,,,,,,,,,,"[""0""]",1,[2.4075000000000273],0,0,0,16,1,,,,,,,,,,,,,,,,,,
,,,,,,,,,,5d0f4380e0392a00170d8def,57,Mężczyzna,2022-06-04_08h09.56.562,task,2021.1.4,MacIntel,60.0024001,628b806c463b948bc644b84f,629af719d1930bdf59e767e5,,,,,,,,,,X V Q F H G B L J M P D K C T S W R N Z,,,,,,,,,,,,,,,,,,,,,,,,,,,,,,,,,,,,,,,,,,,,,,,,,,,,,,,,,,,,,,,,,,,,,,,,,,,,0,0,0,0,1,,,,,,,,,,,,,
,,,,,,,,,,5d0f4380e0392a00170d8def,57,Mężczyzna,2022-06-04_08h09.56.562,task,2021.1.4,MacIntel,60.0024001,628b806c463b948bc644b84f,629af719d1930bdf59e767e5,,,,,,,,,,,,,,,,,,,,,,,6,,,,,,,,,,Task,37,(3/3) + 5,6,,,,,,,,,,,,,,,,,,,1,,,,,,,,,,,,,,,,,,,,,,,"[""6""]",1,[17.367500000000064],0,0,0,36,1,,,,,,,,,,,,,,,,,,
,,,,,,,,,,5d0f4380e0392a00170d8def,57,Mężczyzna,2022-06-04_08h09.56.562,task,2021.1.4,MacIntel,60.0024001,628b806c463b948bc644b84f,629af719d1930bdf59e767e5,,,,,,,,,,X V Q F H G B L J M P D K C T S W R N Z,,,,,,,,,,,,,,,,,,,,,,,,,,,,,,,,,,,,,,,,,,,,,,,,,,,,,,,,,,,,,,,,,,,,,,,,,,,,1,0,1,0,1,,,,,,,,,,,,,
,,,,,,,,,,5d0f4380e0392a00170d8def,57,Mężczyzna,2022-06-04_08h09.56.562,task,2021.1.4,MacIntel,60.0024001,628b806c463b948bc644b84f,629af719d1930bdf59e767e5,,,,,,,,,,,,,,,,,,,,,,,4,,,,,,,,,,Task,28,(2x5) - 6,4,,,,,,,,,,,,,,,,,,,1,,,,,,,,,,,,,,,,,,,,,,,"[""4""]",1,[3.7377000000001317],0,0,0,27,1,,,,,,,,,,,,,,,,,,
,,,,,,,,,,5d0f4380e0392a00170d8def,57,Mężczyzna,2022-06-04_08h09.56.562,task,2021.1.4,MacIntel,60.0024001,628b806c463b948bc644b84f,629af719d1930bdf59e767e5,,,,,,,,,,X V Q F H G B L J M P D K C T S W R N Z,,,,,,,,,,,,,,,,,,,,,,,,,,,,,,,,,,,,,,,,,,,,,,,,,,,,,,,,,,,,,,,,,,,,,,,,,,,,2,0,2,0,1,,,,,,,,,,,,,
,,,,,,,,,,5d0f4380e0392a00170d8def,57,Mężczyzna,2022-06-04_08h09.56.562,task,2021.1.4,MacIntel,60.0024001,628b806c463b948bc644b84f,629af719d1930bdf59e767e5,,,,,,,,,,,,,,,,,,,,,,,,,,,,,,,,,,,,,,,,,,,,,,,,,,,,,,,,,,,,,,,,,,,,,,,,,,,,,,,,,,,,,,,,,,,stt,"[""s"",""t"",""t""]",0,"[3.4904000000003634,4.283700000000181,4.717000000000098,6.253700000000208]",1,STT,1,0,1,0,1,,
,,,,,,,,,,5d0f4380e0392a00170d8def,57,Mężczyzna,2022-06-04_08h09.56.562,task,2021.1.4,MacIntel,60.0024001,628b806c463b948bc644b84f,629af719d1930bdf59e767e5,,,,,,,,,,,,,,,,,,,,,,,8,,,,,,,,,,Task,15,(3x7) - 13,8,,,,,,,,,,,,,,,,,,,1,,,,,,,,,,,,,,,,,,,,,,,"[""8""]",1,[5.449900000000525],0,0,0,14,1,,,,,,,,,,,,,,,,,,
,,,,,,,,,,5d0f4380e0392a00170d8def,57,Mężczyzna,2022-06-04_08h09.56.562,task,2021.1.4,MacIntel,60.0024001,628b806c463b948bc644b84f,629af719d1930bdf59e767e5,,,,,,,,,,X V Q F H G B L J M P D K C T S W R N Z,,,,,,,,,,,,,,,,,,,,,,,,,,,,,,,,,,,,,,,,,,,,,,,,,,,,,,,,,,,,,,,,,,,,,,,,,,,,0,0,0,0,1,,,,,,,,,,,,,
,,,,,,,,,,5d0f4380e0392a00170d8def,57,Mężczyzna,2022-06-04_08h09.56.562,task,2021.1.4,MacIntel,60.0024001,628b806c463b948bc644b84f,629af719d1930bdf59e767e5,,,,,,,,,,,,,,,,,,,,,,,0,,,,,,,,,,Task,8,(1x5) - 5,0,,,,,,,,,,,,,,,,,,,1,,,,,,,,,,,,,,,,,,,,,,,"[""0""]",1,[3.283999999999878],0,0,0,7,1,,,,,,,,,,,,,,,,,,
,,,,,,,,,,5d0f4380e0392a00170d8def,57,Mężczyzna,2022-06-04_08h09.56.562,task,2021.1.4,MacIntel,60.0024001,628b806c463b948bc644b84f,629af719d1930bdf59e767e5,,,,,,,,,,X V Q F H G B L J M P D K C T S W R N Z,,,,,,,,,,,,,,,,,,,,,,,,,,,,,,,,,,,,,,,,,,,,,,,,,,,,,,,,,,,,,,,,,,,,,,,,,,,,1,0,1,0,1,,,,,,,,,,,,,
,,,,,,,,,,5d0f4380e0392a00170d8def,57,Mężczyzna,2022-06-04_08h09.56.562,task,2021.1.4,MacIntel,60.0024001,628b806c463b948bc644b84f,629af719d1930bdf59e767e5,,,,,,,,,,,,,,,,,,,,,,,7,,,,,,,,,,Task,6,(12/2) + 1,7,,,,,,,,,,,,,,,,,,,1,,,,,,,,,,,,,,,,,,,,,,,"[""7""]",1,[13.942800000000034],0,0,0,5,1,,,,,,,,,,,,,,,,,,
,,,,,,,,,,5d0f4380e0392a00170d8def,57,Mężczyzna,2022-06-04_08h09.56.562,task,2021.1.4,MacIntel,60.0024001,628b806c463b948bc644b84f,629af719d1930bdf59e767e5,,,,,,,,,,X V Q F H G B L J M P D K C T S W R N Z,,,,,,,,,,,,,,,,,,,,,,,,,,,,,,,,,,,,,,,,,,,,,,,,,,,,,,,,,,,,,,,,,,,,,,,,,,,,2,0,2,0,1,,,,,,,,,,,,,
,,,,,,,,,,5d0f4380e0392a00170d8def,57,Mężczyzna,2022-06-04_08h09.56.562,task,2021.1.4,MacIntel,60.0024001,628b806c463b948bc644b84f,629af719d1930bdf59e767e5,,,,,,,,,,,,,,,,,,,,,,,5,,,,,,,,,,Task,22,(3x1) + 2,5,,,,,,,,,,,,,,,,,,,1,,,,,,,,,,,,,,,,,,,,,,,"[""5""]",1,[3.7495000000001255],0,0,0,21,1,,,,,,,,,,,,,,,,,,
,,,,,,,,,,5d0f4380e0392a00170d8def,57,Mężczyzna,2022-06-04_08h09.56.562,task,2021.1.4,MacIntel,60.0024001,628b806c463b948bc644b84f,629af719d1930bdf59e767e5,,,,,,,,,,X V Q F H G B L J M P D K C T S W R N Z,,,,,,,,,,,,,,,,,,,,,,,,,,,,,,,,,,,,,,,,,,,,,,,,,,,,,,,,,,,,,,,,,,,,,,,,,,,,3,0,3,0,1,,,,,,,,,,,,,
,,,,,,,,,,5d0f4380e0392a00170d8def,57,Mężczyzna,2022-06-04_08h09.56.562,task,2021.1.4,MacIntel,60.0024001,628b806c463b948bc644b84f,629af719d1930bdf59e767e5,,,,,,,,,,,,,,,,,,,,,,,,,,,,,,,,,,,,,,,,,,,,,,,,,,,,,,,,,,,,,,,,,,,,,,,,,,,,,,,,,,,,,,,,,,,djts,"[""d"",""j"",""t"",""s""]",0,"[3.933400000000347,5.536200000000235,6.548700000000281,7.353800000000774,8.558400000000347]",1,DJTS,2,0,2,0,1,,
,,,,,,,,,,5d0f4380e0392a00170d8def,57,Mężczyzna,2022-06-04_08h09.56.562,task,2021.1.4,MacIntel,60.0024001,628b806c463b948bc644b84f,629af719d1930bdf59e767e5,,,,,,,,,,,,,,,,,,,,,,,3,,,,,,,,,,Task,20,(18/9) + 1,3,,,,,,,,,,,,,,,,,,,1,,,,,,,,,,,,,,,,,,,,,,,"[""3""]",1,[14.654600000000528],0,0,0,19,1,,,,,,,,,,,,,,,,,,
,,,,,,,,,,5d0f4380e0392a00170d8def,57,Mężczyzna,2022-06-04_08h09.56.562,task,2021.1.4,MacIntel,60.0024001,628b806c463b948bc644b84f,629af719d1930bdf59e767e5,,,,,,,,,,X V Q F H G B L J M P D K C T S W R N Z,,,,,,,,,,,,,,,,,,,,,,,,,,,,,,,,,,,,,,,,,,,,,,,,,,,,,,,,,,,,,,,,,,,,,,,,,,,,0,0,0,0,1,,,,,,,,,,,,,
,,,,,,,,,,5d0f4380e0392a00170d8def,57,Mężczyzna,2022-06-04_08h09.56.562,task,2021.1.4,MacIntel,60.0024001,628b806c463b948bc644b84f,629af719d1930bdf59e767e5,,,,,,,,,,,,,,,,,,,,,,,6,,,,,,,,,,Task,30,(6/3) + 4 ,6,,,,,,,,,,,,,,,,,,,1,,,,,,,,,,,,,,,,,,,,,,,"[""6""]",1,[15.813199999999142],0,0,0,29,1,,,,,,,,,,,,,,,,,,
,,,,,,,,,,5d0f4380e0392a00170d8def,57,Mężczyzna,2022-06-04_08h09.56.562,task,2021.1.4,MacIntel,60.0024001,628b806c463b948bc644b84f,629af719d1930bdf59e767e5,,,,,,,,,,X V Q F H G B L J M P D K C T S W R N Z,,,,,,,,,,,,,,,,,,,,,,,,,,,,,,,,,,,,,,,,,,,,,,,,,,,,,,,,,,,,,,,,,,,,,,,,,,,,1,0,1,0,1,,,,,,,,,,,,,
,,,,,,,,,,5d0f4380e0392a00170d8def,57,Mężczyzna,2022-06-04_08h09.56.562,task,2021.1.4,MacIntel,60.0024001,628b806c463b948bc644b84f,629af719d1930bdf59e767e5,,,,,,,,,,,,,,,,,,,,,,,9,,,,,,,,,,Task,7,(3x7) - 12,9,,,,,,,,,,,,,,,,,,,1,,,,,,,,,,,,,,,,,,,,,,,"[""9""]",1,[15.48779999999988],0,0,0,6,1,,,,,,,,,,,,,,,,,,
,,,,,,,,,,5d0f4380e0392a00170d8def,57,Mężczyzna,2022-06-04_08h09.56.562,task,2021.1.4,MacIntel,60.0024001,628b806c463b948bc644b84f,629af719d1930bdf59e767e5,,,,,,,,,,X V Q F H G B L J M P D K C T S W R N Z,,,,,,,,,,,,,,,,,,,,,,,,,,,,,,,,,,,,,,,,,,,,,,,,,,,,,,,,,,,,,,,,,,,,,,,,,,,,2,0,2,0,1,,,,,,,,,,,,,
,,,,,,,,,,5d0f4380e0392a00170d8def,57,Mężczyzna,2022-06-04_08h09.56.562,task,2021.1.4,MacIntel,60.0024001,628b806c463b948bc644b84f,629af719d1930bdf59e767e5,,,,,,,,,,,,,,,,,,,,,,,0,,,,,,,,,,Task,17,(2x3) - 6,0,,,,,,,,,,,,,,,,,,,1,,,,,,,,,,,,,,,,,,,,,,,"[""0""]",1,[2.1903000000006614],0,0,0,16,1,,,,,,,,,,,,,,,,,,
,,,,,,,,,,5d0f4380e0392a00170d8def,57,Mężczyzna,2022-06-04_08h09.56.562,task,2021.1.4,MacIntel,60.0024001,628b806c463b948bc644b84f,629af719d1930bdf59e767e5,,,,,,,,,,X V Q F H G B L J M P D K C T S W R N Z,,,,,,,,,,,,,,,,,,,,,,,,,,,,,,,,,,,,,,,,,,,,,,,,,,,,,,,,,,,,,,,,,,,,,,,,,,,,3,0,3,0,1,,,,,,,,,,,,,
,,,,,,,,,,5d0f4380e0392a00170d8def,57,Mężczyzna,2022-06-04_08h09.56.562,task,2021.1.4,MacIntel,60.0024001,628b806c463b948bc644b84f,629af719d1930bdf59e767e5,,,,,,,,,,,,,,,,,,,,,,,8,,,,,,,,,,Task,15,(3x7) - 13,8,,,,,,,,,,,,,,,,,,,1,,,,,,,,,,,,,,,,,,,,,,,"[""8""]",1,[11.066299999999956],0,0,0,14,1,,,,,,,,,,,,,,,,,,
,,,,,,,,,,5d0f4380e0392a00170d8def,57,Mężczyzna,2022-06-04_08h09.56.562,task,2021.1.4,MacIntel,60.0024001,628b806c463b948bc644b84f,629af719d1930bdf59e767e5,,,,,,,,,,X V Q F H G B L J M P D K C T S W R N Z,,,,,,,,,,,,,,,,,,,,,,,,,,,,,,,,,,,,,,,,,,,,,,,,,,,,,,,,,,,,,,,,,,,,,,,,,,,,4,0,4,0,1,,,,,,,,,,,,,
,,,,,,,,,,5d0f4380e0392a00170d8def,57,Mężczyzna,2022-06-04_08h09.56.562,task,2021.1.4,MacIntel,60.0024001,628b806c463b948bc644b84f,629af719d1930bdf59e767e5,,,,,,,,,,,,,,,,,,,,,,,,,,,,,,,,,,,,,,,,,,,,,,,,,,,,,,,,,,,,,,,,,,,,,,,,,,,,,,,,,,,,,,,,,,,vgpfj,"[""v"",""g"",""p"",""f"",""j""]",0,"[4.125700000000052,5.384400000000369,6.5212999999996555,8.60570000000007,10.488200000000006,11.404200000000174]",1,VGPFJ,3,0,3,0,1,,
,,,,,,,,,,5d0f4380e0392a00170d8def,57,Mężczyzna,2022-06-04_08h09.56.562,task,2021.1.4,MacIntel,60.0024001,628b806c463b948bc644b84f,629af719d1930bdf59e767e5,,,,,,,,,,,,,,,,,,,,,,,8,,,,,,,,,,Task,39,(5x3) - 7,8,,,,,,,,,,,,,,,,,,,1,,,,,,,,,,,,,,,,,,,,,,,"[""8""]",1,[10.256600000000617],0,0,0,38,1,,,,,,,,,,,,,,,,,,
,,,,,,,,,,5d0f4380e0392a00170d8def,57,Mężczyzna,2022-06-04_08h09.56.562,task,2021.1.4,MacIntel,60.0024001,628b806c463b948bc644b84f,629af719d1930bdf59e767e5,,,,,,,,,,X V Q F H G B L J M P D K C T S W R N Z,,,,,,,,,,,,,,,,,,,,,,,,,,,,,,,,,,,,,,,,,,,,,,,,,,,,,,,,,,,,,,,,,,,,,,,,,,,,0,0,0,0,1,,,,,,,,,,,,,
,,,,,,,,,,5d0f4380e0392a00170d8def,57,Mężczyzna,2022-06-04_08h09.56.562,task,2021.1.4,MacIntel,60.0024001,628b806c463b948bc644b84f,629af719d1930bdf59e767e5,,,,,,,,,,,,,,,,,,,,,,,1,,,,,,,,,,Task,34,(9/3) - 2,1,,,,,,,,,,,,,,,,,,,1,,,,,,,,,,,,,,,,,,,,,,,"[""1""]",1,[11.418499999999995],0,0,0,33,1,,,,,,,,,,,,,,,,,,
,,,,,,,,,,5d0f4380e0392a00170d8def,57,Mężczyzna,2022-06-04_08h09.56.562,task,2021.1.4,MacIntel,60.0024001,628b806c463b948bc644b84f,629af719d1930bdf59e767e5,,,,,,,,,,X V Q F H G B L J M P D K C T S W R N Z,,,,,,,,,,,,,,,,,,,,,,,,,,,,,,,,,,,,,,,,,,,,,,,,,,,,,,,,,,,,,,,,,,,,,,,,,,,,1,0,1,0,1,,,,,,,,,,,,,
,,,,,,,,,,5d0f4380e0392a00170d8def,57,Mężczyzna,2022-06-04_08h09.56.562,task,2021.1.4,MacIntel,60.0024001,628b806c463b948bc644b84f,629af719d1930bdf59e767e5,,,,,,,,,,,,,,,,,,,,,,,3,,,,,,,,,,Task,20,(18/9) + 1,3,,,,,,,,,,,,,,,,,,,1,,,,,,,,,,,,,,,,,,,,,,,"[""3""]",1,[13.287699999999177],0,0,0,19,1,,,,,,,,,,,,,,,,,,
,,,,,,,,,,5d0f4380e0392a00170d8def,57,Mężczyzna,2022-06-04_08h09.56.562,task,2021.1.4,MacIntel,60.0024001,628b806c463b948bc644b84f,629af719d1930bdf59e767e5,,,,,,,,,,X V Q F H G B L J M P D K C T S W R N Z,,,,,,,,,,,,,,,,,,,,,,,,,,,,,,,,,,,,,,,,,,,,,,,,,,,,,,,,,,,,,,,,,,,,,,,,,,,,2,0,2,0,1,,,,,,,,,,,,,
,,,,,,,,,,5d0f4380e0392a00170d8def,57,Mężczyzna,2022-06-04_08h09.56.562,task,2021.1.4,MacIntel,60.0024001,628b806c463b948bc644b84f,629af719d1930bdf59e767e5,,,,,,,,,,,,,,,,,,,,,,,5,,,,,,,,,,Task,22,(3x1) + 2,5,,,,,,,,,,,,,,,,,,,1,,,,,,,,,,,,,,,,,,,,,,,"[""5""]",1,[5.416299999999865],0,0,0,21,1,,,,,,,,,,,,,,,,,,
,,,,,,,,,,5d0f4380e0392a00170d8def,57,Mężczyzna,2022-06-04_08h09.56.562,task,2021.1.4,MacIntel,60.0024001,628b806c463b948bc644b84f,629af719d1930bdf59e767e5,,,,,,,,,,X V Q F H G B L J M P D K C T S W R N Z,,,,,,,,,,,,,,,,,,,,,,,,,,,,,,,,,,,,,,,,,,,,,,,,,,,,,,,,,,,,,,,,,,,,,,,,,,,,3,0,3,0,1,,,,,,,,,,,,,
,,,,,,,,,,5d0f4380e0392a00170d8def,57,Mężczyzna,2022-06-04_08h09.56.562,task,2021.1.4,MacIntel,60.0024001,628b806c463b948bc644b84f,629af719d1930bdf59e767e5,,,,,,,,,,,,,,,,,,,,,,,1,,,,,,,,,,Task,18,(16/4) - 3,1,,,,,,,,,,,,,,,,,,,1,,,,,,,,,,,,,,,,,,,,,,,"[""1""]",1,[9.39319999999907],0,0,0,17,1,,,,,,,,,,,,,,,,,,
,,,,,,,,,,5d0f4380e0392a00170d8def,57,Mężczyzna,2022-06-04_08h09.56.562,task,2021.1.4,MacIntel,60.0024001,628b806c463b948bc644b84f,629af719d1930bdf59e767e5,,,,,,,,,,X V Q F H G B L J M P D K C T S W R N Z,,,,,,,,,,,,,,,,,,,,,,,,,,,,,,,,,,,,,,,,,,,,,,,,,,,,,,,,,,,,,,,,,,,,,,,,,,,,4,0,4,0,1,,,,,,,,,,,,,
,,,,,,,,,,5d0f4380e0392a00170d8def,57,Mężczyzna,2022-06-04_08h09.56.562,task,2021.1.4,MacIntel,60.0024001,628b806c463b948bc644b84f,629af719d1930bdf59e767e5,,,,,,,,,,,,,,,,,,,,,,,6,,,,,,,,,,Task,30,(6/3) + 4 ,6,,,,,,,,,,,,,,,,,,,1,,,,,,,,,,,,,,,,,,,,,,,"[""6""]",1,[13.605499999999893],0,0,0,29,1,,,,,,,,,,,,,,,,,,
,,,,,,,,,,5d0f4380e0392a00170d8def,57,Mężczyzna,2022-06-04_08h09.56.562,task,2021.1.4,MacIntel,60.0024001,628b806c463b948bc644b84f,629af719d1930bdf59e767e5,,,,,,,,,,X V Q F H G B L J M P D K C T S W R N Z,,,,,,,,,,,,,,,,,,,,,,,,,,,,,,,,,,,,,,,,,,,,,,,,,,,,,,,,,,,,,,,,,,,,,,,,,,,,5,0,5,0,1,,,,,,,,,,,,,
,,,,,,,,,,5d0f4380e0392a00170d8def,57,Mężczyzna,2022-06-04_08h09.56.562,task,2021.1.4,MacIntel,60.0024001,628b806c463b948bc644b84f,629af719d1930bdf59e767e5,,,,,,,,,,,,,,,,,,,,,,,,,,,,,,,,,,,,,,,,,,,,,,,,,,,,,,,,,,,,,,,,,,,,,,,,,,,,,,,,,,,,,,,,,,,ckfxhx,"[""c"",""k"",""f"",""x"",""h"",""x""]",0,"[5.666900000000396,6.87710000000061,8.384200000000192,9.436299999999846,10.4849999999999,10.992900000000418,11.9849999999999]",1,CKFXHX,4,0,4,0,1,,
,,,,,,,,,,5d0f4380e0392a00170d8def,57,Mężczyzna,2022-06-04_08h09.56.562,task,2021.1.4,MacIntel,60.0024001,628b806c463b948bc644b84f,629af719d1930bdf59e767e5,,,,,,,,,,,,,,,,,,,,,,,8,,,,,,,,,,Task,15,(3x7) - 13,8,,,,,,,,,,,,,,,,,,,1,,,,,,,,,,,,,,,,,,,,,,,"[""8""]",1,[11.19180000000074],0,0,0,14,1,,,,,,,,,,,,,,,,,,
,,,,,,,,,,5d0f4380e0392a00170d8def,57,Mężczyzna,2022-06-04_08h09.56.562,task,2021.1.4,MacIntel,60.0024001,628b806c463b948bc644b84f,629af719d1930bdf59e767e5,,,,,,,,,,X V Q F H G B L J M P D K C T S W R N Z,,,,,,,,,,,,,,,,,,,,,,,,,,,,,,,,,,,,,,,,,,,,,,,,,,,,,,,,,,,,,,,,,,,,,,,,,,,,0,0,0,0,1,,,,,,,,,,,,,
,,,,,,,,,,5d0f4380e0392a00170d8def,57,Mężczyzna,2022-06-04_08h09.56.562,task,2021.1.4,MacIntel,60.0024001,628b806c463b948bc644b84f,629af719d1930bdf59e767e5,,,,,,,,,,,,,,,,,,,,,,,4,,,,,,,,,,Task,21,(10/2) - 1,4,,,,,,,,,,,,,,,,,,,1,,,,,,,,,,,,,,,,,,,,,,,"[""4""]",1,[10.300400000000309],0,0,0,20,1,,,,,,,,,,,,,,,,,,
,,,,,,,,,,5d0f4380e0392a00170d8def,57,Mężczyzna,2022-06-04_08h09.56.562,task,2021.1.4,MacIntel,60.0024001,628b806c463b948bc644b84f,629af719d1930bdf59e767e5,,,,,,,,,,X V Q F H G B L J M P D K C T S W R N Z,,,,,,,,,,,,,,,,,,,,,,,,,,,,,,,,,,,,,,,,,,,,,,,,,,,,,,,,,,,,,,,,,,,,,,,,,,,,1,0,1,0,1,,,,,,,,,,,,,
,,,,,,,,,,5d0f4380e0392a00170d8def,57,Mężczyzna,2022-06-04_08h09.56.562,task,2021.1.4,MacIntel,60.0024001,628b806c463b948bc644b84f,629af719d1930bdf59e767e5,,,,,,,,,,,,,,,,,,,,,,,2,,,,,,,,,,Task,19,(6/2) - 1,2,,,,,,,,,,,,,,,,,,,1,,,,,,,,,,,,,,,,,,,,,,,"[""2""]",1,[8.651499999999942],0,0,0,18,1,,,,,,,,,,,,,,,,,,
,,,,,,,,,,5d0f4380e0392a00170d8def,57,Mężczyzna,2022-06-04_08h09.56.562,task,2021.1.4,MacIntel,60.0024001,628b806c463b948bc644b84f,629af719d1930bdf59e767e5,,,,,,,,,,X V Q F H G B L J M P D K C T S W R N Z,,,,,,,,,,,,,,,,,,,,,,,,,,,,,,,,,,,,,,,,,,,,,,,,,,,,,,,,,,,,,,,,,,,,,,,,,,,,2,0,2,0,1,,,,,,,,,,,,,
,,,,,,,,,,5d0f4380e0392a00170d8def,57,Mężczyzna,2022-06-04_08h09.56.562,task,2021.1.4,MacIntel,60.0024001,628b806c463b948bc644b84f,629af719d1930bdf59e767e5,,,,,,,,,,,,,,,,,,,,,,,3,,,,,,,,,,Task,27,(3/3) + 2,3,,,,,,,,,,,,,,,,,,,1,,,,,,,,,,,,,,,,,,,,,,,"[""3""]",1,[12.468499999999949],0,0,0,26,1,,,,,,,,,,,,,,,,,,
,,,,,,,,,,5d0f4380e0392a00170d8def,57,Mężczyzna,2022-06-04_08h09.56.562,task,2021.1.4,MacIntel,60.0024001,628b806c463b948bc644b84f,629af719d1930bdf59e767e5,,,,,,,,,,X V Q F H G B L J M P D K C T S W R N Z,,,,,,,,,,,,,,,,,,,,,,,,,,,,,,,,,,,,,,,,,,,,,,,,,,,,,,,,,,,,,,,,,,,,,,,,,,,,3,0,3,0,1,,,,,,,,,,,,,
,,,,,,,,,,5d0f4380e0392a00170d8def,57,Mężczyzna,2022-06-04_08h09.56.562,task,2021.1.4,MacIntel,60.0024001,628b806c463b948bc644b84f,629af719d1930bdf59e767e5,,,,,,,,,,,,,,,,,,,,,,,9,,,,,,,,,,Task,7,(3x7) - 12,9,,,,,,,,,,,,,,,,,,,1,,,,,,,,,,,,,,,,,,,,,,,"[""9""]",1,[9.25140000000033],0,0,0,6,1,,,,,,,,,,,,,,,,,,
,,,,,,,,,,5d0f4380e0392a00170d8def,57,Mężczyzna,2022-06-04_08h09.56.562,task,2021.1.4,MacIntel,60.0024001,628b806c463b948bc644b84f,629af719d1930bdf59e767e5,,,,,,,,,,X V Q F H G B L J M P D K C T S W R N Z,,,,,,,,,,,,,,,,,,,,,,,,,,,,,,,,,,,,,,,,,,,,,,,,,,,,,,,,,,,,,,,,,,,,,,,,,,,,4,0,4,0,1,,,,,,,,,,,,,
,,,,,,,,,,5d0f4380e0392a00170d8def,57,Mężczyzna,2022-06-04_08h09.56.562,task,2021.1.4,MacIntel,60.0024001,628b806c463b948bc644b84f,629af719d1930bdf59e767e5,,,,,,,,,,,,,,,,,,,,,,,0,,,,,,,,,,Task,8,(1x5) - 5,0,,,,,,,,,,,,,,,,,,,1,,,,,,,,,,,,,,,,,,,,,,,"[""0""]",1,[2.235500000000002],0,0,0,7,1,,,,,,,,,,,,,,,,,,
,,,,,,,,,,5d0f4380e0392a00170d8def,57,Mężczyzna,2022-06-04_08h09.56.562,task,2021.1.4,MacIntel,60.0024001,628b806c463b948bc644b84f,629af719d1930bdf59e767e5,,,,,,,,,,X V Q F H G B L J M P D K C T S W R N Z,,,,,,,,,,,,,,,,,,,,,,,,,,,,,,,,,,,,,,,,,,,,,,,,,,,,,,,,,,,,,,,,,,,,,,,,,,,,5,0,5,0,1,,,,,,,,,,,,,
,,,,,,,,,,5d0f4380e0392a00170d8def,57,Mężczyzna,2022-06-04_08h09.56.562,task,2021.1.4,MacIntel,60.0024001,628b806c463b948bc644b84f,629af719d1930bdf59e767e5,,,,,,,,,,,,,,,,,,,,,,,7,,,,,,,,,,Task,38,(4x6) - 17,7,,,,,,,,,,,,,,,,,,,1,,,,,,,,,,,,,,,,,,,,,,,"[""7""]",1,[7.215199999999186],0,0,0,37,1,,,,,,,,,,,,,,,,,,
,,,,,,,,,,5d0f4380e0392a00170d8def,57,Mężczyzna,2022-06-04_08h09.56.562,task,2021.1.4,MacIntel,60.0024001,628b806c463b948bc644b84f,629af719d1930bdf59e767e5,,,,,,,,,,X V Q F H G B L J M P D K C T S W R N Z,,,,,,,,,,,,,,,,,,,,,,,,,,,,,,,,,,,,,,,,,,,,,,,,,,,,,,,,,,,,,,,,,,,,,,,,,,,,6,0,6,0,1,,,,,,,,,,,,,
,,,,,,,,,,5d0f4380e0392a00170d8def,57,Mężczyzna,2022-06-04_08h09.56.562,task,2021.1.4,MacIntel,60.0024001,628b806c463b948bc644b84f,629af719d1930bdf59e767e5,,,,,,,,,,,,,,,,,,,,,,,,,,,,,,,,,,,,,,,,,,,,,,,,,,,,,,,,,,,,,,,,,,,,,,,,,,,,,,,,,,,,,,,,,,,nbpxtvl,"[""n"",""b"",""p"",""x"",""t"",""v"",""l""]",0,"[5.689100000000508,6.591600000000653,8.169499999999971,9.695500000000038,10.97110000000066,11.772400000000289,12.955700000000206,13.843200000000252]",1,NBPXTVL,5,0,5,0,1,,
,,,,,,,,,,5d0f4380e0392a00170d8def,57,Mężczyzna,2022-06-04_08h09.56.562,task,2021.1.4,MacIntel,60.0024001,628b806c463b948bc644b84f,629af719d1930bdf59e767e5,,,,,,,,,,,,,,,,,,,,,,,3,,,,,,,,,,Task,27,(3/3) + 2,3,,,,,,,,,,,,,,,,,,,1,,,,,,,,,,,,,,,,,,,,,,,"[""3""]",1,[16.7320000000002],0,0,0,26,1,,,,,,,,,,,,,,,,,,
,,,,,,,,,,5d0f4380e0392a00170d8def,57,Mężczyzna,2022-06-04_08h09.56.562,task,2021.1.4,MacIntel,60.0024001,628b806c463b948bc644b84f,629af719d1930bdf59e767e5,,,,,,,,,,X V Q F H G B L J M P D K C T S W R N Z,,,,,,,,,,,,,,,,,,,,,,,,,,,,,,,,,,,,,,,,,,,,,,,,,,,,,,,,,,,,,,,,,,,,,,,,,,,,0,0,0,0,1,,,,,,,,,,,,,
,,,,,,,,,,5d0f4380e0392a00170d8def,57,Mężczyzna,2022-06-04_08h09.56.562,task,2021.1.4,MacIntel,60.0024001,628b806c463b948bc644b84f,629af719d1930bdf59e767e5,,,,,,,,,,,,,,,,,,,,,,,5,,,,,,,,,,Task,36,(8/4) + 3,5,,,,,,,,,,,,,,,,,,,1,,,,,,,,,,,,,,,,,,,,,,,"[""5""]",1,[11.11929999999984],0,0,0,35,1,,,,,,,,,,,,,,,,,,
,,,,,,,,,,5d0f4380e0392a00170d8def,57,Mężczyzna,2022-06-04_08h09.56.562,task,2021.1.4,MacIntel,60.0024001,628b806c463b948bc644b84f,629af719d1930bdf59e767e5,,,,,,,,,,X V Q F H G B L J M P D K C T S W R N Z,,,,,,,,,,,,,,,,,,,,,,,,,,,,,,,,,,,,,,,,,,,,,,,,,,,,,,,,,,,,,,,,,,,,,,,,,,,,1,0,1,0,1,,,,,,,,,,,,,
,,,,,,,,,,5d0f4380e0392a00170d8def,57,Mężczyzna,2022-06-04_08h09.56.562,task,2021.1.4,MacIntel,60.0024001,628b806c463b948bc644b84f,629af719d1930bdf59e767e5,,,,,,,,,,,,,,,,,,,,,,,0,,,,,,,,,,Task,8,(1x5) - 5,0,,,,,,,,,,,,,,,,,,,1,,,,,,,,,,,,,,,,,,,,,,,"[""0""]",1,[2.3592000000001008],0,0,0,7,1,,,,,,,,,,,,,,,,,,
,,,,,,,,,,5d0f4380e0392a00170d8def,57,Mężczyzna,2022-06-04_08h09.56.562,task,2021.1.4,MacIntel,60.0024001,628b806c463b948bc644b84f,629af719d1930bdf59e767e5,,,,,,,,,,X V Q F H G B L J M P D K C T S W R N Z,,,,,,,,,,,,,,,,,,,,,,,,,,,,,,,,,,,,,,,,,,,,,,,,,,,,,,,,,,,,,,,,,,,,,,,,,,,,2,0,2,0,1,,,,,,,,,,,,,
,,,,,,,,,,5d0f4380e0392a00170d8def,57,Mężczyzna,2022-06-04_08h09.56.562,task,2021.1.4,MacIntel,60.0024001,628b806c463b948bc644b84f,629af719d1930bdf59e767e5,,,,,,,,,,,,,,,,,,,,,,,3,,,,,,,,,,Task,3,(2x3) - 3,3,,,,,,,,,,,,,,,,,,,1,,,,,,,,,,,,,,,,,,,,,,,"[""3""]",1,[2.766600000000608],0,0,0,2,1,,,,,,,,,,,,,,,,,,
,,,,,,,,,,5d0f4380e0392a00170d8def,57,Mężczyzna,2022-06-04_08h09.56.562,task,2021.1.4,MacIntel,60.0024001,628b806c463b948bc644b84f,629af719d1930bdf59e767e5,,,,,,,,,,X V Q F H G B L J M P D K C T S W R N Z,,,,,,,,,,,,,,,,,,,,,,,,,,,,,,,,,,,,,,,,,,,,,,,,,,,,,,,,,,,,,,,,,,,,,,,,,,,,3,0,3,0,1,,,,,,,,,,,,,
,,,,,,,,,,5d0f4380e0392a00170d8def,57,Mężczyzna,2022-06-04_08h09.56.562,task,2021.1.4,MacIntel,60.0024001,628b806c463b948bc644b84f,629af719d1930bdf59e767e5,,,,,,,,,,,,,,,,,,,,,,,2,,,,,,,,,,Task,19,(6/2) - 1,2,,,,,,,,,,,,,,,,,,,1,,,,,,,,,,,,,,,,,,,,,,,"[""2""]",1,[12.001500000000078],0,0,0,18,1,,,,,,,,,,,,,,,,,,
,,,,,,,,,,5d0f4380e0392a00170d8def,57,Mężczyzna,2022-06-04_08h09.56.562,task,2021.1.4,MacIntel,60.0024001,628b806c463b948bc644b84f,629af719d1930bdf59e767e5,,,,,,,,,,X V Q F H G B L J M P D K C T S W R N Z,,,,,,,,,,,,,,,,,,,,,,,,,,,,,,,,,,,,,,,,,,,,,,,,,,,,,,,,,,,,,,,,,,,,,,,,,,,,4,0,4,0,1,,,,,,,,,,,,,
,,,,,,,,,,5d0f4380e0392a00170d8def,57,Mężczyzna,2022-06-04_08h09.56.562,task,2021.1.4,MacIntel,60.0024001,628b806c463b948bc644b84f,629af719d1930bdf59e767e5,,,,,,,,,,,,,,,,,,,,,,,5,,,,,,,,,,Task,22,(3x1) + 2,5,,,,,,,,,,,,,,,,,,,1,,,,,,,,,,,,,,,,,,,,,,,"[""5""]",1,[3.8313999999993484],0,0,0,21,1,,,,,,,,,,,,,,,,,,
,,,,,,,,,,5d0f4380e0392a00170d8def,57,Mężczyzna,2022-06-04_08h09.56.562,task,2021.1.4,MacIntel,60.0024001,628b806c463b948bc644b84f,629af719d1930bdf59e767e5,,,,,,,,,,X V Q F H G B L J M P D K C T S W R N Z,,,,,,,,,,,,,,,,,,,,,,,,,,,,,,,,,,,,,,,,,,,,,,,,,,,,,,,,,,,,,,,,,,,,,,,,,,,,5,0,5,0,1,,,,,,,,,,,,,
,,,,,,,,,,5d0f4380e0392a00170d8def,57,Mężczyzna,2022-06-04_08h09.56.562,task,2021.1.4,MacIntel,60.0024001,628b806c463b948bc644b84f,629af719d1930bdf59e767e5,,,,,,,,,,,,,,,,,,,,,,,3,,,,,,,,,,Task,35,(1x2) + 1,3,,,,,,,,,,,,,,,,,,,1,,,,,,,,,,,,,,,,,,,,,,,"[""3""]",1,[3.152099999999564],0,0,0,34,1,,,,,,,,,,,,,,,,,,
,,,,,,,,,,5d0f4380e0392a00170d8def,57,Mężczyzna,2022-06-04_08h09.56.562,task,2021.1.4,MacIntel,60.0024001,628b806c463b948bc644b84f,629af719d1930bdf59e767e5,,,,,,,,,,X V Q F H G B L J M P D K C T S W R N Z,,,,,,,,,,,,,,,,,,,,,,,,,,,,,,,,,,,,,,,,,,,,,,,,,,,,,,,,,,,,,,,,,,,,,,,,,,,,6,0,6,0,1,,,,,,,,,,,,,
,,,,,,,,,,5d0f4380e0392a00170d8def,57,Mężczyzna,2022-06-04_08h09.56.562,task,2021.1.4,MacIntel,60.0024001,628b806c463b948bc644b84f,629af719d1930bdf59e767e5,,,,,,,,,,,,,,,,,,,,,,,1,,,,,,,,,,Task,9,(3x7) - 20,1,,,,,,,,,,,,,,,,,,,1,,,,,,,,,,,,,,,,,,,,,,,"[""1""]",1,[3.735700000000179],0,0,0,8,1,,,,,,,,,,,,,,,,,,
,,,,,,,,,,5d0f4380e0392a00170d8def,57,Mężczyzna,2022-06-04_08h09.56.562,task,2021.1.4,MacIntel,60.0024001,628b806c463b948bc644b84f,629af719d1930bdf59e767e5,,,,,,,,,,X V Q F H G B L J M P D K C T S W R N Z,,,,,,,,,,,,,,,,,,,,,,,,,,,,,,,,,,,,,,,,,,,,,,,,,,,,,,,,,,,,,,,,,,,,,,,,,,,,7,0,7,0,1,,,,,,,,,,,,,
,,,,,,,,,,5d0f4380e0392a00170d8def,57,Mężczyzna,2022-06-04_08h09.56.562,task,2021.1.4,MacIntel,60.0024001,628b806c463b948bc644b84f,629af719d1930bdf59e767e5,,,,,,,,,,,,,,,,,,,,,,,,,,,,,,,,,,,,,,,,,,,,,,,,,,,,,,,,,,,,,,,,,,,,,,,,,,,,,,,,,,,,,,,,,,,xlzbccfr,"[""x"",""l"",""z"",""b"",""c"",""c"",""f"",""r""]",0,"[6.102100000000519,7.264200000000301,8.483700000000226,13.47700000000009,14.36770000000024,14.635999999999967,15.581000000000131,15.888600000000679,17.21029999999996]",1,XLZBCCFR,6,0,6,0,1,,
,,,,,,,,,,5d0f4380e0392a00170d8def,57,Mężczyzna,2022-06-04_08h09.56.562,task,2021.1.4,MacIntel,60.0024001,628b806c463b948bc644b84f,629af719d1930bdf59e767e5,,,,,,,,,,,,,,,,,,,,,,,2,,,,,,,,,,Task,2,(2x2) - 2,2,,,,,,,,,,,,,,,,,,,1,,,,,,,,,,,,,,,,,,,,,,,"[""2""]",1,[2.899899999999434],0,0,0,1,1,,,,,,,,,,,,,,,,,,
,,,,,,,,,,5d0f4380e0392a00170d8def,57,Mężczyzna,2022-06-04_08h09.56.562,task,2021.1.4,MacIntel,60.0024001,628b806c463b948bc644b84f,629af719d1930bdf59e767e5,,,,,,,,,,X V Q F H G B L J M P D K C T S W R N Z,,,,,,,,,,,,,,,,,,,,,,,,,,,,,,,,,,,,,,,,,,,,,,,,,,,,,,,,,,,,,,,,,,,,,,,,,,,,0,0,0,0,1,,,,,,,,,,,,,
,,,,,,,,,,5d0f4380e0392a00170d8def,57,Mężczyzna,2022-06-04_08h09.56.562,task,2021.1.4,MacIntel,60.0024001,628b806c463b948bc644b84f,629af719d1930bdf59e767e5,,,,,,,,,,,,,,,,,,,,,,,4,,,,,,,,,,Task,29,(3x8) - 19 ,5,,,,,,,,,,,,,,,,,,,0,,,,,,,,,,,,,,,,,,,,,,,"[""4""]",0,[34.91520000000037],0,0,0,28,1,,,,,,,,,,,,,,,,,,
,,,,,,,,,,5d0f4380e0392a00170d8def,57,Mężczyzna,2022-06-04_08h09.56.562,task,2021.1.4,MacIntel,60.0024001,628b806c463b948bc644b84f,629af719d1930bdf59e767e5,,,,,,,,,,,,,,,,,,,,,,,3,,,,,,,,,,Task,35,(1x2) + 1,3,,,,,,,,,,,,,,,,,,,1,,,,,,,,,,,,,,,,,,,,,,,"[""3""]",1,[5.412200000000212],0,1,1,34,1,,,,,,,,,,,,,,,,,,
,,,,,,,,,,5d0f4380e0392a00170d8def,57,Mężczyzna,2022-06-04_08h09.56.562,task,2021.1.4,MacIntel,60.0024001,628b806c463b948bc644b84f,629af719d1930bdf59e767e5,,,,,,,,,,X V Q F H G B L J M P D K C T S W R N Z,,,,,,,,,,,,,,,,,,,,,,,,,,,,,,,,,,,,,,,,,,,,,,,,,,,,,,,,,,,,,,,,,,,,,,,,,,,,1,0,1,0,1,,,,,,,,,,,,,
,,,,,,,,,,5d0f4380e0392a00170d8def,57,Mężczyzna,2022-06-04_08h09.56.562,task,2021.1.4,MacIntel,60.0024001,628b806c463b948bc644b84f,629af719d1930bdf59e767e5,,,,,,,,,,,,,,,,,,,,,,,8,,,,,,,,,,Task,15,(3x7) - 13,8,,,,,,,,,,,,,,,,,,,1,,,,,,,,,,,,,,,,,,,,,,,"[""8""]",1,[12.421700000000328],0,0,0,14,1,,,,,,,,,,,,,,,,,,
,,,,,,,,,,5d0f4380e0392a00170d8def,57,Mężczyzna,2022-06-04_08h09.56.562,task,2021.1.4,MacIntel,60.0024001,628b806c463b948bc644b84f,629af719d1930bdf59e767e5,,,,,,,,,,X V Q F H G B L J M P D K C T S W R N Z,,,,,,,,,,,,,,,,,,,,,,,,,,,,,,,,,,,,,,,,,,,,,,,,,,,,,,,,,,,,,,,,,,,,,,,,,,,,2,0,2,0,1,,,,,,,,,,,,,
,,,,,,,,,,5d0f4380e0392a00170d8def,57,Mężczyzna,2022-06-04_08h09.56.562,task,2021.1.4,MacIntel,60.0024001,628b806c463b948bc644b84f,629af719d1930bdf59e767e5,,,,,,,,,,,,,,,,,,,,,,,4,,,,,,,,,,Task,11,(18/3) - 2,4,,,,,,,,,,,,,,,,,,,1,,,,,,,,,,,,,,,,,,,,,,,"[""4""]",1,[10.5970999999995],0,0,0,10,1,,,,,,,,,,,,,,,,,,
,,,,,,,,,,5d0f4380e0392a00170d8def,57,Mężczyzna,2022-06-04_08h09.56.562,task,2021.1.4,MacIntel,60.0024001,628b806c463b948bc644b84f,629af719d1930bdf59e767e5,,,,,,,,,,X V Q F H G B L J M P D K C T S W R N Z,,,,,,,,,,,,,,,,,,,,,,,,,,,,,,,,,,,,,,,,,,,,,,,,,,,,,,,,,,,,,,,,,,,,,,,,,,,,3,0,3,0,1,,,,,,,,,,,,,
,,,,,,,,,,5d0f4380e0392a00170d8def,57,Mężczyzna,2022-06-04_08h09.56.562,task,2021.1.4,MacIntel,60.0024001,628b806c463b948bc644b84f,629af719d1930bdf59e767e5,,,,,,,,,,,,,,,,,,,,,,,0,,,,,,,,,,Task,17,(2x3) - 6,0,,,,,,,,,,,,,,,,,,,1,,,,,,,,,,,,,,,,,,,,,,,"[""0""]",1,[2.9329999999999927],0,0,0,16,1,,,,,,,,,,,,,,,,,,
,,,,,,,,,,5d0f4380e0392a00170d8def,57,Mężczyzna,2022-06-04_08h09.56.562,task,2021.1.4,MacIntel,60.0024001,628b806c463b948bc644b84f,629af719d1930bdf59e767e5,,,,,,,,,,X V Q F H G B L J M P D K C T S W R N Z,,,,,,,,,,,,,,,,,,,,,,,,,,,,,,,,,,,,,,,,,,,,,,,,,,,,,,,,,,,,,,,,,,,,,,,,,,,,4,0,4,0,1,,,,,,,,,,,,,
,,,,,,,,,,5d0f4380e0392a00170d8def,57,Mężczyzna,2022-06-04_08h09.56.562,task,2021.1.4,MacIntel,60.0024001,628b806c463b948bc644b84f,629af719d1930bdf59e767e5,,,,,,,,,,,,,,,,,,,,,,,9,,,,,,,,,,Task,16,(3x8) - 15,9,,,,,,,,,,,,,,,,,,,1,,,,,,,,,,,,,,,,,,,,,,,"[""9""]",1,[23.14940000000024],0,0,0,15,1,,,,,,,,,,,,,,,,,,
,,,,,,,,,,5d0f4380e0392a00170d8def,57,Mężczyzna,2022-06-04_08h09.56.562,task,2021.1.4,MacIntel,60.0024001,628b806c463b948bc644b84f,629af719d1930bdf59e767e5,,,,,,,,,,X V Q F H G B L J M P D K C T S W R N Z,,,,,,,,,,,,,,,,,,,,,,,,,,,,,,,,,,,,,,,,,,,,,,,,,,,,,,,,,,,,,,,,,,,,,,,,,,,,5,0,5,0,1,,,,,,,,,,,,,
,,,,,,,,,,5d0f4380e0392a00170d8def,57,Mężczyzna,2022-06-04_08h09.56.562,task,2021.1.4,MacIntel,60.0024001,628b806c463b948bc644b84f,629af719d1930bdf59e767e5,,,,,,,,,,,,,,,,,,,,,,,1,,,,,,,,,,Task,1,(12/6) - 1,1,,,,,,,,,,,,,,,,,,,1,,,,,,,,,,,,,,,,,,,,,,,"[""1""]",1,[10.419700000000375],0,0,0,0,1,,,,,,,,,,,,,,,,,,
