key_resp_15.keys,key_resp_15.rt,key_resp_13.keys,key_resp_13.corr,ranodm_loop.thisRepN,ranodm_loop.thisTrialN,ranodm_loop.thisN,ranodm_loop.thisIndex,ranodm_loop.ran,participant,Wiek*,Płeć,date,expName,psychopyVersion,OS,frameRate,study_id,session,key_resp_13.rt,key_resp_16.keys,key_resp_16.rt,key_resp_4.keys,key_resp_4.rt,next_letter.thisRepN,next_letter.thisTrialN,next_letter.thisN,next_letter.thisIndex,next_letter.ran,letter,simple_recall,key_resp_5.keys,key_resp_5.rt,simple_recall_corr,simple_recall_corrkeys,next_level.thisRepN,next_level.thisTrialN,next_level.thisN,next_level.thisIndex,next_level.ran,key_resp_2.keys,key_resp_2.rt,digit_answer,key_resp.keys,key_resp.corr,key_resp.rt,RT_list,next_equation.thisRepN,next_equation.thisTrialN,next_equation.thisN,next_equation.thisIndex,next_equation.ran,Task,Trial,Problem,Operation_answer,processing_score,sumRT,meanRT,sumdiff,sd,RT,key_resp_3.keys,key_resp_3.rt,repeat_practice.thisRepN,repeat_practice.thisTrialN,repeat_practice.thisN,repeat_practice.thisIndex,repeat_practice.ran,key_resp_6.keys,key_resp_6.rt,key_resp_11.keys,key_resp_11.corr,key_resp_11.rt,operation_correct,repeat_if_wrong_prac.thisRepN,repeat_if_wrong_prac.thisTrialN,repeat_if_wrong_prac.thisN,repeat_if_wrong_prac.thisIndex,repeat_if_wrong_prac.ran,span_size_prac.thisRepN,span_size_prac.thisTrialN,span_size_prac.thisN,span_size_prac.thisIndex,span_size_prac.ran,complex_recall_practice,key_resp_9.keys,key_resp_9.corr,key_resp_9.rt,complex_prac_corr,span_recall_prac.thisRepN,span_recall_prac.thisTrialN,span_recall_prac.thisN,span_recall_prac.thisIndex,span_recall_prac.ran,key_resp_10.keys,key_resp_10.rt,key_resp_7.keys,key_resp_7.corr,key_resp_7.rt,repeat_if_wrong.thisRepN,repeat_if_wrong.thisTrialN,repeat_if_wrong.thisN,repeat_if_wrong.thisIndex,repeat_if_wrong.ran,span_size.thisRepN,span_size.thisTrialN,span_size.thisN,span_size.thisIndex,span_size.ran,complex_recall,key_resp_8.keys,key_resp_8.corr,key_resp_8.rt,complex_recall_corr,complex_recall_corrkeys,span_recall.thisRepN,span_recall.thisTrialN,span_recall.thisN,span_recall.thisIndex,span_recall.ran,key_resp_12.keys,key_resp_12.rt
space,12.5323,,0,0,0,0,0,1,5d3739be575c6c000151d88f,25,Kobieta,2022-05-28_09h20.05.964,task,2021.1.4,Win32,59.91252771,628b806c463b948bc644b84f,6291ccdb1836baed11907b91,,,,,,,,,,,,,,,,,,,,,,,,,,,,,,,,,,,,,,,,,,,,,,,,,,,,,,,,,,,,,,,,,,,,,,,,,,,,,,,,,,,,,,,,,,,,,,,,,,,,,,,,
,,"[""period""]",0,1,0,1,0,1,5d3739be575c6c000151d88f,25,Kobieta,2022-05-28_09h20.05.964,task,2021.1.4,Win32,59.91252771,628b806c463b948bc644b84f,6291ccdb1836baed11907b91,[0.507800000190727],,,,,,,,,,,,,,,,,,,,,,,,,,,,,,,,,,,,,,,,,,,,,,,,,,,,,,,,,,,,,,,,,,,,,,,,,,,,,,,,,,,,,,,,,,,,,,,,,,,,,,,
,,"[""comma""]",0,2,0,2,0,1,5d3739be575c6c000151d88f,25,Kobieta,2022-05-28_09h20.05.964,task,2021.1.4,Win32,59.91252771,628b806c463b948bc644b84f,6291ccdb1836baed11907b91,[0.9367000002860948],,,,,,,,,,,,,,,,,,,,,,,,,,,,,,,,,,,,,,,,,,,,,,,,,,,,,,,,,,,,,,,,,,,,,,,,,,,,,,,,,,,,,,,,,,,,,,,,,,,,,,,
,,"[""period""]",0,3,0,3,0,1,5d3739be575c6c000151d88f,25,Kobieta,2022-05-28_09h20.05.964,task,2021.1.4,Win32,59.91252771,628b806c463b948bc644b84f,6291ccdb1836baed11907b91,[0.5017999997138958],,,,,,,,,,,,,,,,,,,,,,,,,,,,,,,,,,,,,,,,,,,,,,,,,,,,,,,,,,,,,,,,,,,,,,,,,,,,,,,,,,,,,,,,,,,,,,,,,,,,,,,
,,"[""period""]",0,4,0,4,0,1,5d3739be575c6c000151d88f,25,Kobieta,2022-05-28_09h20.05.964,task,2021.1.4,Win32,59.91252771,628b806c463b948bc644b84f,6291ccdb1836baed11907b91,[0.8990999999046352],,,,,,,,,,,,,,,,,,,,,,,,,,,,,,,,,,,,,,,,,,,,,,,,,,,,,,,,,,,,,,,,,,,,,,,,,,,,,,,,,,,,,,,,,,,,,,,,,,,,,,,
,,"[""period""]",0,5,0,5,0,1,5d3739be575c6c000151d88f,25,Kobieta,2022-05-28_09h20.05.964,task,2021.1.4,Win32,59.91252771,628b806c463b948bc644b84f,6291ccdb1836baed11907b91,[0.5128000001907225],,,,,,,,,,,,,,,,,,,,,,,,,,,,,,,,,,,,,,,,,,,,,,,,,,,,,,,,,,,,,,,,,,,,,,,,,,,,,,,,,,,,,,,,,,,,,,,,,,,,,,,
,,"[""comma""]",0,6,0,6,0,1,5d3739be575c6c000151d88f,25,Kobieta,2022-05-28_09h20.05.964,task,2021.1.4,Win32,59.91252771,628b806c463b948bc644b84f,6291ccdb1836baed11907b91,[0.572899999618528],,,,,,,,,,,,,,,,,,,,,,,,,,,,,,,,,,,,,,,,,,,,,,,,,,,,,,,,,,,,,,,,,,,,,,,,,,,,,,,,,,,,,,,,,,,,,,,,,,,,,,,
,,"[""comma""]",0,7,0,7,0,1,5d3739be575c6c000151d88f,25,Kobieta,2022-05-28_09h20.05.964,task,2021.1.4,Win32,59.91252771,628b806c463b948bc644b84f,6291ccdb1836baed11907b91,[0.5549999999999926],,,,,,,,,,,,,,,,,,,,,,,,,,,,,,,,,,,,,,,,,,,,,,,,,,,,,,,,,,,,,,,,,,,,,,,,,,,,,,,,,,,,,,,,,,,,,,,,,,,,,,,
,,"[""period""]",0,8,0,8,0,1,5d3739be575c6c000151d88f,25,Kobieta,2022-05-28_09h20.05.964,task,2021.1.4,Win32,59.91252771,628b806c463b948bc644b84f,6291ccdb1836baed11907b91,[0.4418000001907245],,,,,,,,,,,,,,,,,,,,,,,,,,,,,,,,,,,,,,,,,,,,,,,,,,,,,,,,,,,,,,,,,,,,,,,,,,,,,,,,,,,,,,,,,,,,,,,,,,,,,,,
,,"[""period""]",0,9,0,9,0,1,5d3739be575c6c000151d88f,25,Kobieta,2022-05-28_09h20.05.964,task,2021.1.4,Win32,59.91252771,628b806c463b948bc644b84f,6291ccdb1836baed11907b91,[0.4545999999046302],,,,,,,,,,,,,,,,,,,,,,,,,,,,,,,,,,,,,,,,,,,,,,,,,,,,,,,,,,,,,,,,,,,,,,,,,,,,,,,,,,,,,,,,,,,,,,,,,,,,,,,
,,"[""comma""]",0,10,0,10,0,1,5d3739be575c6c000151d88f,25,Kobieta,2022-05-28_09h20.05.964,task,2021.1.4,Win32,59.91252771,628b806c463b948bc644b84f,6291ccdb1836baed11907b91,[0.40399999999999636],,,,,,,,,,,,,,,,,,,,,,,,,,,,,,,,,,,,,,,,,,,,,,,,,,,,,,,,,,,,,,,,,,,,,,,,,,,,,,,,,,,,,,,,,,,,,,,,,,,,,,,
,,"[""period""]",0,11,0,11,0,1,5d3739be575c6c000151d88f,25,Kobieta,2022-05-28_09h20.05.964,task,2021.1.4,Win32,59.91252771,628b806c463b948bc644b84f,6291ccdb1836baed11907b91,[0.32009999990462745],,,,,,,,,,,,,,,,,,,,,,,,,,,,,,,,,,,,,,,,,,,,,,,,,,,,,,,,,,,,,,,,,,,,,,,,,,,,,,,,,,,,,,,,,,,,,,,,,,,,,,,
,,"[""comma""]",0,12,0,12,0,1,5d3739be575c6c000151d88f,25,Kobieta,2022-05-28_09h20.05.964,task,2021.1.4,Win32,59.91252771,628b806c463b948bc644b84f,6291ccdb1836baed11907b91,[0.6503000001907395],,,,,,,,,,,,,,,,,,,,,,,,,,,,,,,,,,,,,,,,,,,,,,,,,,,,,,,,,,,,,,,,,,,,,,,,,,,,,,,,,,,,,,,,,,,,,,,,,,,,,,,
,,"[""comma""]",0,13,0,13,0,1,5d3739be575c6c000151d88f,25,Kobieta,2022-05-28_09h20.05.964,task,2021.1.4,Win32,59.91252771,628b806c463b948bc644b84f,6291ccdb1836baed11907b91,[0.367200000286104],,,,,,,,,,,,,,,,,,,,,,,,,,,,,,,,,,,,,,,,,,,,,,,,,,,,,,,,,,,,,,,,,,,,,,,,,,,,,,,,,,,,,,,,,,,,,,,,,,,,,,,
,,"[""comma""]",0,14,0,14,0,1,5d3739be575c6c000151d88f,25,Kobieta,2022-05-28_09h20.05.964,task,2021.1.4,Win32,59.91252771,628b806c463b948bc644b84f,6291ccdb1836baed11907b91,[0.4159999999999968],,,,,,,,,,,,,,,,,,,,,,,,,,,,,,,,,,,,,,,,,,,,,,,,,,,,,,,,,,,,,,,,,,,,,,,,,,,,,,,,,,,,,,,,,,,,,,,,,,,,,,,
,,"[""period""]",0,15,0,15,0,1,5d3739be575c6c000151d88f,25,Kobieta,2022-05-28_09h20.05.964,task,2021.1.4,Win32,59.91252771,628b806c463b948bc644b84f,6291ccdb1836baed11907b91,[0.3696999998092565],,,,,,,,,,,,,,,,,,,,,,,,,,,,,,,,,,,,,,,,,,,,,,,,,,,,,,,,,,,,,,,,,,,,,,,,,,,,,,,,,,,,,,,,,,,,,,,,,,,,,,,
,,"[""period""]",0,16,0,16,0,1,5d3739be575c6c000151d88f,25,Kobieta,2022-05-28_09h20.05.964,task,2021.1.4,Win32,59.91252771,628b806c463b948bc644b84f,6291ccdb1836baed11907b91,[0.360200000286099],,,,,,,,,,,,,,,,,,,,,,,,,,,,,,,,,,,,,,,,,,,,,,,,,,,,,,,,,,,,,,,,,,,,,,,,,,,,,,,,,,,,,,,,,,,,,,,,,,,,,,,
,,"[""comma""]",0,17,0,17,0,1,5d3739be575c6c000151d88f,25,Kobieta,2022-05-28_09h20.05.964,task,2021.1.4,Win32,59.91252771,628b806c463b948bc644b84f,6291ccdb1836baed11907b91,[0.3478999996185337],,,,,,,,,,,,,,,,,,,,,,,,,,,,,,,,,,,,,,,,,,,,,,,,,,,,,,,,,,,,,,,,,,,,,,,,,,,,,,,,,,,,,,,,,,,,,,,,,,,,,,,
,,"[""comma""]",0,18,0,18,0,1,5d3739be575c6c000151d88f,25,Kobieta,2022-05-28_09h20.05.964,task,2021.1.4,Win32,59.91252771,628b806c463b948bc644b84f,6291ccdb1836baed11907b91,[0.46060000038147564],,,,,,,,,,,,,,,,,,,,,,,,,,,,,,,,,,,,,,,,,,,,,,,,,,,,,,,,,,,,,,,,,,,,,,,,,,,,,,,,,,,,,,,,,,,,,,,,,,,,,,,
,,"[""period""]",0,19,0,19,0,1,5d3739be575c6c000151d88f,25,Kobieta,2022-05-28_09h20.05.964,task,2021.1.4,Win32,59.91252771,628b806c463b948bc644b84f,6291ccdb1836baed11907b91,[0.47930000019073304],,,,,,,,,,,,,,,,,,,,,,,,,,,,,,,,,,,,,,,,,,,,,,,,,,,,,,,,,,,,,,,,,,,,,,,,,,,,,,,,,,,,,,,,,,,,,,,,,,,,,,,
,,"[""comma""]",0,20,0,20,0,1,5d3739be575c6c000151d88f,25,Kobieta,2022-05-28_09h20.05.964,task,2021.1.4,Win32,59.91252771,628b806c463b948bc644b84f,6291ccdb1836baed11907b91,[0.31669999980927344],,,,,,,,,,,,,,,,,,,,,,,,,,,,,,,,,,,,,,,,,,,,,,,,,,,,,,,,,,,,,,,,,,,,,,,,,,,,,,,,,,,,,,,,,,,,,,,,,,,,,,,
,,"[""period""]",0,21,0,21,0,1,5d3739be575c6c000151d88f,25,Kobieta,2022-05-28_09h20.05.964,task,2021.1.4,Win32,59.91252771,628b806c463b948bc644b84f,6291ccdb1836baed11907b91,[0.3455999999046213],,,,,,,,,,,,,,,,,,,,,,,,,,,,,,,,,,,,,,,,,,,,,,,,,,,,,,,,,,,,,,,,,,,,,,,,,,,,,,,,,,,,,,,,,,,,,,,,,,,,,,,
,,"[""period""]",0,22,0,22,0,1,5d3739be575c6c000151d88f,25,Kobieta,2022-05-28_09h20.05.964,task,2021.1.4,Win32,59.91252771,628b806c463b948bc644b84f,6291ccdb1836baed11907b91,[0.3201000003814727],,,,,,,,,,,,,,,,,,,,,,,,,,,,,,,,,,,,,,,,,,,,,,,,,,,,,,,,,,,,,,,,,,,,,,,,,,,,,,,,,,,,,,,,,,,,,,,,,,,,,,,
,,"[""period""]",0,23,0,23,0,1,5d3739be575c6c000151d88f,25,Kobieta,2022-05-28_09h20.05.964,task,2021.1.4,Win32,59.91252771,628b806c463b948bc644b84f,6291ccdb1836baed11907b91,[0.3199999999999932],,,,,,,,,,,,,,,,,,,,,,,,,,,,,,,,,,,,,,,,,,,,,,,,,,,,,,,,,,,,,,,,,,,,,,,,,,,,,,,,,,,,,,,,,,,,,,,,,,,,,,,
,,"[""comma""]",0,24,0,24,0,1,5d3739be575c6c000151d88f,25,Kobieta,2022-05-28_09h20.05.964,task,2021.1.4,Win32,59.91252771,628b806c463b948bc644b84f,6291ccdb1836baed11907b91,[0.3530999999046429],,,,,,,,,,,,,,,,,,,,,,,,,,,,,,,,,,,,,,,,,,,,,,,,,,,,,,,,,,,,,,,,,,,,,,,,,,,,,,,,,,,,,,,,,,,,,,,,,,,,,,,
,,"[""comma""]",0,25,0,25,0,1,5d3739be575c6c000151d88f,25,Kobieta,2022-05-28_09h20.05.964,task,2021.1.4,Win32,59.91252771,628b806c463b948bc644b84f,6291ccdb1836baed11907b91,[0.382799999713896],,,,,,,,,,,,,,,,,,,,,,,,,,,,,,,,,,,,,,,,,,,,,,,,,,,,,,,,,,,,,,,,,,,,,,,,,,,,,,,,,,,,,,,,,,,,,,,,,,,,,,,
,,"[""comma""]",0,26,0,26,0,1,5d3739be575c6c000151d88f,25,Kobieta,2022-05-28_09h20.05.964,task,2021.1.4,Win32,59.91252771,628b806c463b948bc644b84f,6291ccdb1836baed11907b91,[0.4599000000953595],,,,,,,,,,,,,,,,,,,,,,,,,,,,,,,,,,,,,,,,,,,,,,,,,,,,,,,,,,,,,,,,,,,,,,,,,,,,,,,,,,,,,,,,,,,,,,,,,,,,,,,
,,"[""period""]",0,27,0,27,0,1,5d3739be575c6c000151d88f,25,Kobieta,2022-05-28_09h20.05.964,task,2021.1.4,Win32,59.91252771,628b806c463b948bc644b84f,6291ccdb1836baed11907b91,[0.4694000000953622],,,,,,,,,,,,,,,,,,,,,,,,,,,,,,,,,,,,,,,,,,,,,,,,,,,,,,,,,,,,,,,,,,,,,,,,,,,,,,,,,,,,,,,,,,,,,,,,,,,,,,,
,,"[""comma""]",0,28,0,28,0,1,5d3739be575c6c000151d88f,25,Kobieta,2022-05-28_09h20.05.964,task,2021.1.4,Win32,59.91252771,628b806c463b948bc644b84f,6291ccdb1836baed11907b91,[0.37870000028610207],,,,,,,,,,,,,,,,,,,,,,,,,,,,,,,,,,,,,,,,,,,,,,,,,,,,,,,,,,,,,,,,,,,,,,,,,,,,,,,,,,,,,,,,,,,,,,,,,,,,,,,
,,"[""period""]",0,29,0,29,0,1,5d3739be575c6c000151d88f,25,Kobieta,2022-05-28_09h20.05.964,task,2021.1.4,Win32,59.91252771,628b806c463b948bc644b84f,6291ccdb1836baed11907b91,[0.715200000286103],,,,,,,,,,,,,,,,,,,,,,,,,,,,,,,,,,,,,,,,,,,,,,,,,,,,,,,,,,,,,,,,,,,,,,,,,,,,,,,,,,,,,,,,,,,,,,,,,,,,,,,
,,"[""comma""]",0,30,0,30,0,1,5d3739be575c6c000151d88f,25,Kobieta,2022-05-28_09h20.05.964,task,2021.1.4,Win32,59.91252771,628b806c463b948bc644b84f,6291ccdb1836baed11907b91,[0.8029000000953488],,,,,,,,,,,,,,,,,,,,,,,,,,,,,,,,,,,,,,,,,,,,,,,,,,,,,,,,,,,,,,,,,,,,,,,,,,,,,,,,,,,,,,,,,,,,,,,,,,,,,,,
,,"[""period""]",0,31,0,31,0,1,5d3739be575c6c000151d88f,25,Kobieta,2022-05-28_09h20.05.964,task,2021.1.4,Win32,59.91252771,628b806c463b948bc644b84f,6291ccdb1836baed11907b91,[0.4672000002861125],,,,,,,,,,,,,,,,,,,,,,,,,,,,,,,,,,,,,,,,,,,,,,,,,,,,,,,,,,,,,,,,,,,,,,,,,,,,,,,,,,,,,,,,,,,,,,,,,,,,,,,
,,"[""comma""]",0,32,0,32,0,1,5d3739be575c6c000151d88f,25,Kobieta,2022-05-28_09h20.05.964,task,2021.1.4,Win32,59.91252771,628b806c463b948bc644b84f,6291ccdb1836baed11907b91,[0.4151999998092606],,,,,,,,,,,,,,,,,,,,,,,,,,,,,,,,,,,,,,,,,,,,,,,,,,,,,,,,,,,,,,,,,,,,,,,,,,,,,,,,,,,,,,,,,,,,,,,,,,,,,,,
,,"[""period""]",0,33,0,33,0,1,5d3739be575c6c000151d88f,25,Kobieta,2022-05-28_09h20.05.964,task,2021.1.4,Win32,59.91252771,628b806c463b948bc644b84f,6291ccdb1836baed11907b91,[0.31969999980927355],,,,,,,,,,,,,,,,,,,,,,,,,,,,,,,,,,,,,,,,,,,,,,,,,,,,,,,,,,,,,,,,,,,,,,,,,,,,,,,,,,,,,,,,,,,,,,,,,,,,,,,
,,"[""period""]",0,34,0,34,0,1,5d3739be575c6c000151d88f,25,Kobieta,2022-05-28_09h20.05.964,task,2021.1.4,Win32,59.91252771,628b806c463b948bc644b84f,6291ccdb1836baed11907b91,[0.3343000001907228],,,,,,,,,,,,,,,,,,,,,,,,,,,,,,,,,,,,,,,,,,,,,,,,,,,,,,,,,,,,,,,,,,,,,,,,,,,,,,,,,,,,,,,,,,,,,,,,,,,,,,,
,,"[""period""]",0,35,0,35,0,1,5d3739be575c6c000151d88f,25,Kobieta,2022-05-28_09h20.05.964,task,2021.1.4,Win32,59.91252771,628b806c463b948bc644b84f,6291ccdb1836baed11907b91,[0.36740000009538676],,,,,,,,,,,,,,,,,,,,,,,,,,,,,,,,,,,,,,,,,,,,,,,,,,,,,,,,,,,,,,,,,,,,,,,,,,,,,,,,,,,,,,,,,,,,,,,,,,,,,,,
,,"[""comma""]",0,36,0,36,0,1,5d3739be575c6c000151d88f,25,Kobieta,2022-05-28_09h20.05.964,task,2021.1.4,Win32,59.91252771,628b806c463b948bc644b84f,6291ccdb1836baed11907b91,[0.32479999971388906],,,,,,,,,,,,,,,,,,,,,,,,,,,,,,,,,,,,,,,,,,,,,,,,,,,,,,,,,,,,,,,,,,,,,,,,,,,,,,,,,,,,,,,,,,,,,,,,,,,,,,,
,,"[""period""]",0,37,0,37,0,1,5d3739be575c6c000151d88f,25,Kobieta,2022-05-28_09h20.05.964,task,2021.1.4,Win32,59.91252771,628b806c463b948bc644b84f,6291ccdb1836baed11907b91,[0.45430000019072736],,,,,,,,,,,,,,,,,,,,,,,,,,,,,,,,,,,,,,,,,,,,,,,,,,,,,,,,,,,,,,,,,,,,,,,,,,,,,,,,,,,,,,,,,,,,,,,,,,,,,,,
,,"[""period""]",0,38,0,38,0,1,5d3739be575c6c000151d88f,25,Kobieta,2022-05-28_09h20.05.964,task,2021.1.4,Win32,59.91252771,628b806c463b948bc644b84f,6291ccdb1836baed11907b91,[0.53449999999998],,,,,,,,,,,,,,,,,,,,,,,,,,,,,,,,,,,,,,,,,,,,,,,,,,,,,,,,,,,,,,,,,,,,,,,,,,,,,,,,,,,,,,,,,,,,,,,,,,,,,,,
,,"[""period""]",0,39,0,39,0,1,5d3739be575c6c000151d88f,25,Kobieta,2022-05-28_09h20.05.964,task,2021.1.4,Win32,59.91252771,628b806c463b948bc644b84f,6291ccdb1836baed11907b91,[0.331400000095357],,,,,,,,,,,,,,,,,,,,,,,,,,,,,,,,,,,,,,,,,,,,,,,,,,,,,,,,,,,,,,,,,,,,,,,,,,,,,,,,,,,,,,,,,,,,,,,,,,,,,,,
,,"[""comma""]",0,40,0,40,0,1,5d3739be575c6c000151d88f,25,Kobieta,2022-05-28_09h20.05.964,task,2021.1.4,Win32,59.91252771,628b806c463b948bc644b84f,6291ccdb1836baed11907b91,[0.3042000002861016],,,,,,,,,,,,,,,,,,,,,,,,,,,,,,,,,,,,,,,,,,,,,,,,,,,,,,,,,,,,,,,,,,,,,,,,,,,,,,,,,,,,,,,,,,,,,,,,,,,,,,,
,,"[""comma""]",0,41,0,41,0,1,5d3739be575c6c000151d88f,25,Kobieta,2022-05-28_09h20.05.964,task,2021.1.4,Win32,59.91252771,628b806c463b948bc644b84f,6291ccdb1836baed11907b91,[0.8179000000953636],,,,,,,,,,,,,,,,,,,,,,,,,,,,,,,,,,,,,,,,,,,,,,,,,,,,,,,,,,,,,,,,,,,,,,,,,,,,,,,,,,,,,,,,,,,,,,,,,,,,,,,
,,"[""period""]",0,42,0,42,0,1,5d3739be575c6c000151d88f,25,Kobieta,2022-05-28_09h20.05.964,task,2021.1.4,Win32,59.91252771,628b806c463b948bc644b84f,6291ccdb1836baed11907b91,[1.3933000001907203],,,,,,,,,,,,,,,,,,,,,,,,,,,,,,,,,,,,,,,,,,,,,,,,,,,,,,,,,,,,,,,,,,,,,,,,,,,,,,,,,,,,,,,,,,,,,,,,,,,,,,,
,,"[""period""]",0,43,0,43,0,1,5d3739be575c6c000151d88f,25,Kobieta,2022-05-28_09h20.05.964,task,2021.1.4,Win32,59.91252771,628b806c463b948bc644b84f,6291ccdb1836baed11907b91,[0.6114000000953581],,,,,,,,,,,,,,,,,,,,,,,,,,,,,,,,,,,,,,,,,,,,,,,,,,,,,,,,,,,,,,,,,,,,,,,,,,,,,,,,,,,,,,,,,,,,,,,,,,,,,,,
,,"[""comma""]",0,44,0,44,0,1,5d3739be575c6c000151d88f,25,Kobieta,2022-05-28_09h20.05.964,task,2021.1.4,Win32,59.91252771,628b806c463b948bc644b84f,6291ccdb1836baed11907b91,[0.22030000019074691],,,,,,,,,,,,,,,,,,,,,,,,,,,,,,,,,,,,,,,,,,,,,,,,,,,,,,,,,,,,,,,,,,,,,,,,,,,,,,,,,,,,,,,,,,,,,,,,,,,,,,,
,,"[""period""]",0,45,0,45,0,1,5d3739be575c6c000151d88f,25,Kobieta,2022-05-28_09h20.05.964,task,2021.1.4,Win32,59.91252771,628b806c463b948bc644b84f,6291ccdb1836baed11907b91,[0.33430000019075123],,,,,,,,,,,,,,,,,,,,,,,,,,,,,,,,,,,,,,,,,,,,,,,,,,,,,,,,,,,,,,,,,,,,,,,,,,,,,,,,,,,,,,,,,,,,,,,,,,,,,,,
,,"[""period""]",0,46,0,46,0,1,5d3739be575c6c000151d88f,25,Kobieta,2022-05-28_09h20.05.964,task,2021.1.4,Win32,59.91252771,628b806c463b948bc644b84f,6291ccdb1836baed11907b91,[0.3587999997138809],,,,,,,,,,,,,,,,,,,,,,,,,,,,,,,,,,,,,,,,,,,,,,,,,,,,,,,,,,,,,,,,,,,,,,,,,,,,,,,,,,,,,,,,,,,,,,,,,,,,,,,
,,"[""comma""]",0,47,0,47,0,1,5d3739be575c6c000151d88f,25,Kobieta,2022-05-28_09h20.05.964,task,2021.1.4,Win32,59.91252771,628b806c463b948bc644b84f,6291ccdb1836baed11907b91,[0.30469999980925877],,,,,,,,,,,,,,,,,,,,,,,,,,,,,,,,,,,,,,,,,,,,,,,,,,,,,,,,,,,,,,,,,,,,,,,,,,,,,,,,,,,,,,,,,,,,,,,,,,,,,,,
,,"[""period""]",0,48,0,48,0,1,5d3739be575c6c000151d88f,25,Kobieta,2022-05-28_09h20.05.964,task,2021.1.4,Win32,59.91252771,628b806c463b948bc644b84f,6291ccdb1836baed11907b91,[0.5391999998092558],,,,,,,,,,,,,,,,,,,,,,,,,,,,,,,,,,,,,,,,,,,,,,,,,,,,,,,,,,,,,,,,,,,,,,,,,,,,,,,,,,,,,,,,,,,,,,,,,,,,,,,
,,"[""comma""]",0,49,0,49,0,1,5d3739be575c6c000151d88f,25,Kobieta,2022-05-28_09h20.05.964,task,2021.1.4,Win32,59.91252771,628b806c463b948bc644b84f,6291ccdb1836baed11907b91,[0.4594000000953429],,,,,,,,,,,,,,,,,,,,,,,,,,,,,,,,,,,,,,,,,,,,,,,,,,,,,,,,,,,,,,,,,,,,,,,,,,,,,,,,,,,,,,,,,,,,,,,,,,,,,,,
,,"[""period""]",0,50,0,50,0,1,5d3739be575c6c000151d88f,25,Kobieta,2022-05-28_09h20.05.964,task,2021.1.4,Win32,59.91252771,628b806c463b948bc644b84f,6291ccdb1836baed11907b91,[1.0249000000953572],,,,,,,,,,,,,,,,,,,,,,,,,,,,,,,,,,,,,,,,,,,,,,,,,,,,,,,,,,,,,,,,,,,,,,,,,,,,,,,,,,,,,,,,,,,,,,,,,,,,,,,
,,"[""period""]",0,51,0,51,0,1,5d3739be575c6c000151d88f,25,Kobieta,2022-05-28_09h20.05.964,task,2021.1.4,Win32,59.91252771,628b806c463b948bc644b84f,6291ccdb1836baed11907b91,[0.7567999997139054],,,,,,,,,,,,,,,,,,,,,,,,,,,,,,,,,,,,,,,,,,,,,,,,,,,,,,,,,,,,,,,,,,,,,,,,,,,,,,,,,,,,,,,,,,,,,,,,,,,,,,,
,,"[""period""]",0,52,0,52,0,1,5d3739be575c6c000151d88f,25,Kobieta,2022-05-28_09h20.05.964,task,2021.1.4,Win32,59.91252771,628b806c463b948bc644b84f,6291ccdb1836baed11907b91,[0.43200000000001637],,,,,,,,,,,,,,,,,,,,,,,,,,,,,,,,,,,,,,,,,,,,,,,,,,,,,,,,,,,,,,,,,,,,,,,,,,,,,,,,,,,,,,,,,,,,,,,,,,,,,,,
,,"[""comma""]",0,53,0,53,0,1,5d3739be575c6c000151d88f,25,Kobieta,2022-05-28_09h20.05.964,task,2021.1.4,Win32,59.91252771,628b806c463b948bc644b84f,6291ccdb1836baed11907b91,[0.9550000000000125],,,,,,,,,,,,,,,,,,,,,,,,,,,,,,,,,,,,,,,,,,,,,,,,,,,,,,,,,,,,,,,,,,,,,,,,,,,,,,,,,,,,,,,,,,,,,,,,,,,,,,,
,,"[""comma""]",0,54,0,54,0,1,5d3739be575c6c000151d88f,25,Kobieta,2022-05-28_09h20.05.964,task,2021.1.4,Win32,59.91252771,628b806c463b948bc644b84f,6291ccdb1836baed11907b91,[0.7017999997138986],,,,,,,,,,,,,,,,,,,,,,,,,,,,,,,,,,,,,,,,,,,,,,,,,,,,,,,,,,,,,,,,,,,,,,,,,,,,,,,,,,,,,,,,,,,,,,,,,,,,,,,
,,"[""comma""]",0,55,0,55,0,1,5d3739be575c6c000151d88f,25,Kobieta,2022-05-28_09h20.05.964,task,2021.1.4,Win32,59.91252771,628b806c463b948bc644b84f,6291ccdb1836baed11907b91,[0.43409999990461756],,,,,,,,,,,,,,,,,,,,,,,,,,,,,,,,,,,,,,,,,,,,,,,,,,,,,,,,,,,,,,,,,,,,,,,,,,,,,,,,,,,,,,,,,,,,,,,,,,,,,,,
,,"[""period""]",0,56,0,56,0,1,5d3739be575c6c000151d88f,25,Kobieta,2022-05-28_09h20.05.964,task,2021.1.4,Win32,59.91252771,628b806c463b948bc644b84f,6291ccdb1836baed11907b91,[0.2385999999046362],,,,,,,,,,,,,,,,,,,,,,,,,,,,,,,,,,,,,,,,,,,,,,,,,,,,,,,,,,,,,,,,,,,,,,,,,,,,,,,,,,,,,,,,,,,,,,,,,,,,,,,
,,"[""comma""]",0,57,0,57,0,1,5d3739be575c6c000151d88f,25,Kobieta,2022-05-28_09h20.05.964,task,2021.1.4,Win32,59.91252771,628b806c463b948bc644b84f,6291ccdb1836baed11907b91,[0.2424999999999784],,,,,,,,,,,,,,,,,,,,,,,,,,,,,,,,,,,,,,,,,,,,,,,,,,,,,,,,,,,,,,,,,,,,,,,,,,,,,,,,,,,,,,,,,,,,,,,,,,,,,,,
,,"[""comma""]",0,58,0,58,0,1,5d3739be575c6c000151d88f,25,Kobieta,2022-05-28_09h20.05.964,task,2021.1.4,Win32,59.91252771,628b806c463b948bc644b84f,6291ccdb1836baed11907b91,[0.05609999990463166],,,,,,,,,,,,,,,,,,,,,,,,,,,,,,,,,,,,,,,,,,,,,,,,,,,,,,,,,,,,,,,,,,,,,,,,,,,,,,,,,,,,,,,,,,,,,,,,,,,,,,,
,,"[""period""]",0,59,0,59,0,1,5d3739be575c6c000151d88f,25,Kobieta,2022-05-28_09h20.05.964,task,2021.1.4,Win32,59.91252771,628b806c463b948bc644b84f,6291ccdb1836baed11907b91,[0.2330000000000041],,,,,,,,,,,,,,,,,,,,,,,,,,,,,,,,,,,,,,,,,,,,,,,,,,,,,,,,,,,,,,,,,,,,,,,,,,,,,,,,,,,,,,,,,,,,,,,,,,,,,,,
,,"[""period""]",0,60,0,60,0,1,5d3739be575c6c000151d88f,25,Kobieta,2022-05-28_09h20.05.964,task,2021.1.4,Win32,59.91252771,628b806c463b948bc644b84f,6291ccdb1836baed11907b91,[0.3279000000953829],,,,,,,,,,,,,,,,,,,,,,,,,,,,,,,,,,,,,,,,,,,,,,,,,,,,,,,,,,,,,,,,,,,,,,,,,,,,,,,,,,,,,,,,,,,,,,,,,,,,,,,
,,"[""comma""]",0,61,0,61,0,1,5d3739be575c6c000151d88f,25,Kobieta,2022-05-28_09h20.05.964,task,2021.1.4,Win32,59.91252771,628b806c463b948bc644b84f,6291ccdb1836baed11907b91,[0.2617999997139009],,,,,,,,,,,,,,,,,,,,,,,,,,,,,,,,,,,,,,,,,,,,,,,,,,,,,,,,,,,,,,,,,,,,,,,,,,,,,,,,,,,,,,,,,,,,,,,,,,,,,,,
,,"[""comma""]",0,62,0,62,0,1,5d3739be575c6c000151d88f,25,Kobieta,2022-05-28_09h20.05.964,task,2021.1.4,Win32,59.91252771,628b806c463b948bc644b84f,6291ccdb1836baed11907b91,[0.32890000009535925],,,,,,,,,,,,,,,,,,,,,,,,,,,,,,,,,,,,,,,,,,,,,,,,,,,,,,,,,,,,,,,,,,,,,,,,,,,,,,,,,,,,,,,,,,,,,,,,,,,,,,,
,,"[""period""]",0,63,0,63,0,1,5d3739be575c6c000151d88f,25,Kobieta,2022-05-28_09h20.05.964,task,2021.1.4,Win32,59.91252771,628b806c463b948bc644b84f,6291ccdb1836baed11907b91,[0.2775000000000034],,,,,,,,,,,,,,,,,,,,,,,,,,,,,,,,,,,,,,,,,,,,,,,,,,,,,,,,,,,,,,,,,,,,,,,,,,,,,,,,,,,,,,,,,,,,,,,,,,,,,,,
,,"[""comma""]",0,64,0,64,0,1,5d3739be575c6c000151d88f,25,Kobieta,2022-05-28_09h20.05.964,task,2021.1.4,Win32,59.91252771,628b806c463b948bc644b84f,6291ccdb1836baed11907b91,[0.3196000003814561],,,,,,,,,,,,,,,,,,,,,,,,,,,,,,,,,,,,,,,,,,,,,,,,,,,,,,,,,,,,,,,,,,,,,,,,,,,,,,,,,,,,,,,,,,,,,,,,,,,,,,,
,,"[""period""]",0,65,0,65,0,1,5d3739be575c6c000151d88f,25,Kobieta,2022-05-28_09h20.05.964,task,2021.1.4,Win32,59.91252771,628b806c463b948bc644b84f,6291ccdb1836baed11907b91,[0.38810000038148473],,,,,,,,,,,,,,,,,,,,,,,,,,,,,,,,,,,,,,,,,,,,,,,,,,,,,,,,,,,,,,,,,,,,,,,,,,,,,,,,,,,,,,,,,,,,,,,,,,,,,,,
,,"[""period""]",0,66,0,66,0,1,5d3739be575c6c000151d88f,25,Kobieta,2022-05-28_09h20.05.964,task,2021.1.4,Win32,59.91252771,628b806c463b948bc644b84f,6291ccdb1836baed11907b91,[0.41459999990462393],,,,,,,,,,,,,,,,,,,,,,,,,,,,,,,,,,,,,,,,,,,,,,,,,,,,,,,,,,,,,,,,,,,,,,,,,,,,,,,,,,,,,,,,,,,,,,,,,,,,,,,
,,"[""comma""]",0,67,0,67,0,1,5d3739be575c6c000151d88f,25,Kobieta,2022-05-28_09h20.05.964,task,2021.1.4,Win32,59.91252771,628b806c463b948bc644b84f,6291ccdb1836baed11907b91,[0.3829000000953613],,,,,,,,,,,,,,,,,,,,,,,,,,,,,,,,,,,,,,,,,,,,,,,,,,,,,,,,,,,,,,,,,,,,,,,,,,,,,,,,,,,,,,,,,,,,,,,,,,,,,,,
,,"[""period""]",0,68,0,68,0,1,5d3739be575c6c000151d88f,25,Kobieta,2022-05-28_09h20.05.964,task,2021.1.4,Win32,59.91252771,628b806c463b948bc644b84f,6291ccdb1836baed11907b91,[0.3394999999999868],,,,,,,,,,,,,,,,,,,,,,,,,,,,,,,,,,,,,,,,,,,,,,,,,,,,,,,,,,,,,,,,,,,,,,,,,,,,,,,,,,,,,,,,,,,,,,,,,,,,,,,
,,"[""period""]",0,69,0,69,0,1,5d3739be575c6c000151d88f,25,Kobieta,2022-05-28_09h20.05.964,task,2021.1.4,Win32,59.91252771,628b806c463b948bc644b84f,6291ccdb1836baed11907b91,[0.44029999971388634],,,,,,,,,,,,,,,,,,,,,,,,,,,,,,,,,,,,,,,,,,,,,,,,,,,,,,,,,,,,,,,,,,,,,,,,,,,,,,,,,,,,,,,,,,,,,,,,,,,,,,,
,,"[""period""]",0,70,0,70,0,1,5d3739be575c6c000151d88f,25,Kobieta,2022-05-28_09h20.05.964,task,2021.1.4,Win32,59.91252771,628b806c463b948bc644b84f,6291ccdb1836baed11907b91,[0.2938000001907426],,,,,,,,,,,,,,,,,,,,,,,,,,,,,,,,,,,,,,,,,,,,,,,,,,,,,,,,,,,,,,,,,,,,,,,,,,,,,,,,,,,,,,,,,,,,,,,,,,,,,,,
,,"[""comma""]",0,71,0,71,0,1,5d3739be575c6c000151d88f,25,Kobieta,2022-05-28_09h20.05.964,task,2021.1.4,Win32,59.91252771,628b806c463b948bc644b84f,6291ccdb1836baed11907b91,[0.32330000019072713],,,,,,,,,,,,,,,,,,,,,,,,,,,,,,,,,,,,,,,,,,,,,,,,,,,,,,,,,,,,,,,,,,,,,,,,,,,,,,,,,,,,,,,,,,,,,,,,,,,,,,,
,,"[""period""]",0,72,0,72,0,1,5d3739be575c6c000151d88f,25,Kobieta,2022-05-28_09h20.05.964,task,2021.1.4,Win32,59.91252771,628b806c463b948bc644b84f,6291ccdb1836baed11907b91,[0.8400000000000034],,,,,,,,,,,,,,,,,,,,,,,,,,,,,,,,,,,,,,,,,,,,,,,,,,,,,,,,,,,,,,,,,,,,,,,,,,,,,,,,,,,,,,,,,,,,,,,,,,,,,,,
,,"[""comma""]",0,73,0,73,0,1,5d3739be575c6c000151d88f,25,Kobieta,2022-05-28_09h20.05.964,task,2021.1.4,Win32,59.91252771,628b806c463b948bc644b84f,6291ccdb1836baed11907b91,[0.42059999990462416],,,,,,,,,,,,,,,,,,,,,,,,,,,,,,,,,,,,,,,,,,,,,,,,,,,,,,,,,,,,,,,,,,,,,,,,,,,,,,,,,,,,,,,,,,,,,,,,,,,,,,,
,,"[""comma""]",0,74,0,74,0,1,5d3739be575c6c000151d88f,25,Kobieta,2022-05-28_09h20.05.964,task,2021.1.4,Win32,59.91252771,628b806c463b948bc644b84f,6291ccdb1836baed11907b91,[0.5229000000953477],,,,,,,,,,,,,,,,,,,,,,,,,,,,,,,,,,,,,,,,,,,,,,,,,,,,,,,,,,,,,,,,,,,,,,,,,,,,,,,,,,,,,,,,,,,,,,,,,,,,,,,
,,"[""period""]",0,75,0,75,0,1,5d3739be575c6c000151d88f,25,Kobieta,2022-05-28_09h20.05.964,task,2021.1.4,Win32,59.91252771,628b806c463b948bc644b84f,6291ccdb1836baed11907b91,[0.47349999999997294],,,,,,,,,,,,,,,,,,,,,,,,,,,,,,,,,,,,,,,,,,,,,,,,,,,,,,,,,,,,,,,,,,,,,,,,,,,,,,,,,,,,,,,,,,,,,,,,,,,,,,,
,,"[""period""]",0,76,0,76,0,1,5d3739be575c6c000151d88f,25,Kobieta,2022-05-28_09h20.05.964,task,2021.1.4,Win32,59.91252771,628b806c463b948bc644b84f,6291ccdb1836baed11907b91,[0.3761999998092449],,,,,,,,,,,,,,,,,,,,,,,,,,,,,,,,,,,,,,,,,,,,,,,,,,,,,,,,,,,,,,,,,,,,,,,,,,,,,,,,,,,,,,,,,,,,,,,,,,,,,,,
,,"[""comma""]",0,77,0,77,0,1,5d3739be575c6c000151d88f,25,Kobieta,2022-05-28_09h20.05.964,task,2021.1.4,Win32,59.91252771,628b806c463b948bc644b84f,6291ccdb1836baed11907b91,[0.2843999996185289],,,,,,,,,,,,,,,,,,,,,,,,,,,,,,,,,,,,,,,,,,,,,,,,,,,,,,,,,,,,,,,,,,,,,,,,,,,,,,,,,,,,,,,,,,,,,,,,,,,,,,,
,,"[""period""]",0,78,0,78,0,1,5d3739be575c6c000151d88f,25,Kobieta,2022-05-28_09h20.05.964,task,2021.1.4,Win32,59.91252771,628b806c463b948bc644b84f,6291ccdb1836baed11907b91,[0.3336000003814661],,,,,,,,,,,,,,,,,,,,,,,,,,,,,,,,,,,,,,,,,,,,,,,,,,,,,,,,,,,,,,,,,,,,,,,,,,,,,,,,,,,,,,,,,,,,,,,,,,,,,,,
,,"[""period""]",0,79,0,79,0,1,5d3739be575c6c000151d88f,25,Kobieta,2022-05-28_09h20.05.964,task,2021.1.4,Win32,59.91252771,628b806c463b948bc644b84f,6291ccdb1836baed11907b91,[0.2980000000000018],,,,,,,,,,,,,,,,,,,,,,,,,,,,,,,,,,,,,,,,,,,,,,,,,,,,,,,,,,,,,,,,,,,,,,,,,,,,,,,,,,,,,,,,,,,,,,,,,,,,,,,
,,"[""period""]",0,80,0,80,0,1,5d3739be575c6c000151d88f,25,Kobieta,2022-05-28_09h20.05.964,task,2021.1.4,Win32,59.91252771,628b806c463b948bc644b84f,6291ccdb1836baed11907b91,[0.31759999990464394],,,,,,,,,,,,,,,,,,,,,,,,,,,,,,,,,,,,,,,,,,,,,,,,,,,,,,,,,,,,,,,,,,,,,,,,,,,,,,,,,,,,,,,,,,,,,,,,,,,,,,,
,,"[""period""]",0,81,0,81,0,1,5d3739be575c6c000151d88f,25,Kobieta,2022-05-28_09h20.05.964,task,2021.1.4,Win32,59.91252771,628b806c463b948bc644b84f,6291ccdb1836baed11907b91,[0.3155000000000143],,,,,,,,,,,,,,,,,,,,,,,,,,,,,,,,,,,,,,,,,,,,,,,,,,,,,,,,,,,,,,,,,,,,,,,,,,,,,,,,,,,,,,,,,,,,,,,,,,,,,,,
,,"[""period""]",0,82,0,82,0,1,5d3739be575c6c000151d88f,25,Kobieta,2022-05-28_09h20.05.964,task,2021.1.4,Win32,59.91252771,628b806c463b948bc644b84f,6291ccdb1836baed11907b91,[0.18240000009535606],,,,,,,,,,,,,,,,,,,,,,,,,,,,,,,,,,,,,,,,,,,,,,,,,,,,,,,,,,,,,,,,,,,,,,,,,,,,,,,,,,,,,,,,,,,,,,,,,,,,,,,
,,"[""comma""]",0,83,0,83,0,1,5d3739be575c6c000151d88f,25,Kobieta,2022-05-28_09h20.05.964,task,2021.1.4,Win32,59.91252771,628b806c463b948bc644b84f,6291ccdb1836baed11907b91,[0.15540000009536925],,,,,,,,,,,,,,,,,,,,,,,,,,,,,,,,,,,,,,,,,,,,,,,,,,,,,,,,,,,,,,,,,,,,,,,,,,,,,,,,,,,,,,,,,,,,,,,,,,,,,,,
,,"[""period""]",0,84,0,84,0,1,5d3739be575c6c000151d88f,25,Kobieta,2022-05-28_09h20.05.964,task,2021.1.4,Win32,59.91252771,628b806c463b948bc644b84f,6291ccdb1836baed11907b91,[0.02509999990465417],,,,,,,,,,,,,,,,,,,,,,,,,,,,,,,,,,,,,,,,,,,,,,,,,,,,,,,,,,,,,,,,,,,,,,,,,,,,,,,,,,,,,,,,,,,,,,,,,,,,,,,
,,"[""period""]",0,85,0,85,0,1,5d3739be575c6c000151d88f,25,Kobieta,2022-05-28_09h20.05.964,task,2021.1.4,Win32,59.91252771,628b806c463b948bc644b84f,6291ccdb1836baed11907b91,[0.3912000002860907],,,,,,,,,,,,,,,,,,,,,,,,,,,,,,,,,,,,,,,,,,,,,,,,,,,,,,,,,,,,,,,,,,,,,,,,,,,,,,,,,,,,,,,,,,,,,,,,,,,,,,,
,,"[""period""]",0,86,0,86,0,1,5d3739be575c6c000151d88f,25,Kobieta,2022-05-28_09h20.05.964,task,2021.1.4,Win32,59.91252771,628b806c463b948bc644b84f,6291ccdb1836baed11907b91,[0.3088000001907574],,,,,,,,,,,,,,,,,,,,,,,,,,,,,,,,,,,,,,,,,,,,,,,,,,,,,,,,,,,,,,,,,,,,,,,,,,,,,,,,,,,,,,,,,,,,,,,,,,,,,,,
,,"[""comma""]",0,87,0,87,0,1,5d3739be575c6c000151d88f,25,Kobieta,2022-05-28_09h20.05.964,task,2021.1.4,Win32,59.91252771,628b806c463b948bc644b84f,6291ccdb1836baed11907b91,[0.0237000002861123],,,,,,,,,,,,,,,,,,,,,,,,,,,,,,,,,,,,,,,,,,,,,,,,,,,,,,,,,,,,,,,,,,,,,,,,,,,,,,,,,,,,,,,,,,,,,,,,,,,,,,,
,,"[""comma""]",0,88,0,88,0,1,5d3739be575c6c000151d88f,25,Kobieta,2022-05-28_09h20.05.964,task,2021.1.4,Win32,59.91252771,628b806c463b948bc644b84f,6291ccdb1836baed11907b91,[0.4532000002861025],,,,,,,,,,,,,,,,,,,,,,,,,,,,,,,,,,,,,,,,,,,,,,,,,,,,,,,,,,,,,,,,,,,,,,,,,,,,,,,,,,,,,,,,,,,,,,,,,,,,,,,
,,"[""period""]",0,89,0,89,0,1,5d3739be575c6c000151d88f,25,Kobieta,2022-05-28_09h20.05.964,task,2021.1.4,Win32,59.91252771,628b806c463b948bc644b84f,6291ccdb1836baed11907b91,[0.3504999999999825],,,,,,,,,,,,,,,,,,,,,,,,,,,,,,,,,,,,,,,,,,,,,,,,,,,,,,,,,,,,,,,,,,,,,,,,,,,,,,,,,,,,,,,,,,,,,,,,,,,,,,,
,,"[""period""]",0,90,0,90,0,1,5d3739be575c6c000151d88f,25,Kobieta,2022-05-28_09h20.05.964,task,2021.1.4,Win32,59.91252771,628b806c463b948bc644b84f,6291ccdb1836baed11907b91,[0.39530000019072986],,,,,,,,,,,,,,,,,,,,,,,,,,,,,,,,,,,,,,,,,,,,,,,,,,,,,,,,,,,,,,,,,,,,,,,,,,,,,,,,,,,,,,,,,,,,,,,,,,,,,,,
,,"[""period""]",0,91,0,91,0,1,5d3739be575c6c000151d88f,25,Kobieta,2022-05-28_09h20.05.964,task,2021.1.4,Win32,59.91252771,628b806c463b948bc644b84f,6291ccdb1836baed11907b91,[0.3273000001907178],,,,,,,,,,,,,,,,,,,,,,,,,,,,,,,,,,,,,,,,,,,,,,,,,,,,,,,,,,,,,,,,,,,,,,,,,,,,,,,,,,,,,,,,,,,,,,,,,,,,,,,
,,"[""comma""]",0,92,0,92,0,1,5d3739be575c6c000151d88f,25,Kobieta,2022-05-28_09h20.05.964,task,2021.1.4,Win32,59.91252771,628b806c463b948bc644b84f,6291ccdb1836baed11907b91,[0.3337999997139036],,,,,,,,,,,,,,,,,,,,,,,,,,,,,,,,,,,,,,,,,,,,,,,,,,,,,,,,,,,,,,,,,,,,,,,,,,,,,,,,,,,,,,,,,,,,,,,,,,,,,,,
,,"[""period""]",0,93,0,93,0,1,5d3739be575c6c000151d88f,25,Kobieta,2022-05-28_09h20.05.964,task,2021.1.4,Win32,59.91252771,628b806c463b948bc644b84f,6291ccdb1836baed11907b91,[0.3005999999046196],,,,,,,,,,,,,,,,,,,,,,,,,,,,,,,,,,,,,,,,,,,,,,,,,,,,,,,,,,,,,,,,,,,,,,,,,,,,,,,,,,,,,,,,,,,,,,,,,,,,,,,
,,"[""period""]",0,94,0,94,0,1,5d3739be575c6c000151d88f,25,Kobieta,2022-05-28_09h20.05.964,task,2021.1.4,Win32,59.91252771,628b806c463b948bc644b84f,6291ccdb1836baed11907b91,[0.34169999980929333],,,,,,,,,,,,,,,,,,,,,,,,,,,,,,,,,,,,,,,,,,,,,,,,,,,,,,,,,,,,,,,,,,,,,,,,,,,,,,,,,,,,,,,,,,,,,,,,,,,,,,,
,,"[""comma""]",0,95,0,95,0,1,5d3739be575c6c000151d88f,25,Kobieta,2022-05-28_09h20.05.964,task,2021.1.4,Win32,59.91252771,628b806c463b948bc644b84f,6291ccdb1836baed11907b91,[0.3542999997138736],,,,,,,,,,,,,,,,,,,,,,,,,,,,,,,,,,,,,,,,,,,,,,,,,,,,,,,,,,,,,,,,,,,,,,,,,,,,,,,,,,,,,,,,,,,,,,,,,,,,,,,
,,"[""comma""]",0,96,0,96,0,1,5d3739be575c6c000151d88f,25,Kobieta,2022-05-28_09h20.05.964,task,2021.1.4,Win32,59.91252771,628b806c463b948bc644b84f,6291ccdb1836baed11907b91,[0.3012000002860873],,,,,,,,,,,,,,,,,,,,,,,,,,,,,,,,,,,,,,,,,,,,,,,,,,,,,,,,,,,,,,,,,,,,,,,,,,,,,,,,,,,,,,,,,,,,,,,,,,,,,,,
,,,0,97,0,97,0,1,5d3739be575c6c000151d88f,25,Kobieta,2022-05-28_09h20.05.964,task,2021.1.4,Win32,59.91252771,628b806c463b948bc644b84f,6291ccdb1836baed11907b91,,,,,,,,,,,,,,,,,,,,,,,,,,,,,,,,,,,,,,,,,,,,,,,,,,,,,,,,,,,,,,,,,,,,,,,,,,,,,,,,,,,,,,,,,,,,,,,,,,,,,,,,
,,,0,98,0,98,0,1,5d3739be575c6c000151d88f,25,Kobieta,2022-05-28_09h20.05.964,task,2021.1.4,Win32,59.91252771,628b806c463b948bc644b84f,6291ccdb1836baed11907b91,,,,,,,,,,,,,,,,,,,,,,,,,,,,,,,,,,,,,,,,,,,,,,,,,,,,,,,,,,,,,,,,,,,,,,,,,,,,,,,,,,,,,,,,,,,,,,,,,,,,,,,,
,,"[""period""]",0,99,0,99,0,1,5d3739be575c6c000151d88f,25,Kobieta,2022-05-28_09h20.05.964,task,2021.1.4,Win32,59.91252771,628b806c463b948bc644b84f,6291ccdb1836baed11907b91,[0.0005999999046366611],,,,,,,,,,,,,,,,,,,,,,,,,,,,,,,,,,,,,,,,,,,,,,,,,,,,,,,,,,,,,,,,,,,,,,,,,,,,,,,,,,,,,,,,,,,,,,,,,,,,,,,
,,"[""comma""]",0,100,0,100,0,1,5d3739be575c6c000151d88f,25,Kobieta,2022-05-28_09h20.05.964,task,2021.1.4,Win32,59.91252771,628b806c463b948bc644b84f,6291ccdb1836baed11907b91,[0.4080999999046071],,,,,,,,,,,,,,,,,,,,,,,,,,,,,,,,,,,,,,,,,,,,,,,,,,,,,,,,,,,,,,,,,,,,,,,,,,,,,,,,,,,,,,,,,,,,,,,,,,,,,,,
,,"[""period""]",0,101,0,101,0,1,5d3739be575c6c000151d88f,25,Kobieta,2022-05-28_09h20.05.964,task,2021.1.4,Win32,59.91252771,628b806c463b948bc644b84f,6291ccdb1836baed11907b91,[0.40020000028607683],,,,,,,,,,,,,,,,,,,,,,,,,,,,,,,,,,,,,,,,,,,,,,,,,,,,,,,,,,,,,,,,,,,,,,,,,,,,,,,,,,,,,,,,,,,,,,,,,,,,,,,
,,"[""period""]",0,102,0,102,0,1,5d3739be575c6c000151d88f,25,Kobieta,2022-05-28_09h20.05.964,task,2021.1.4,Win32,59.91252771,628b806c463b948bc644b84f,6291ccdb1836baed11907b91,[0.3719000000953656],,,,,,,,,,,,,,,,,,,,,,,,,,,,,,,,,,,,,,,,,,,,,,,,,,,,,,,,,,,,,,,,,,,,,,,,,,,,,,,,,,,,,,,,,,,,,,,,,,,,,,,
,,"[""comma""]",0,103,0,103,0,1,5d3739be575c6c000151d88f,25,Kobieta,2022-05-28_09h20.05.964,task,2021.1.4,Win32,59.91252771,628b806c463b948bc644b84f,6291ccdb1836baed11907b91,[0.4437000002861282],,,,,,,,,,,,,,,,,,,,,,,,,,,,,,,,,,,,,,,,,,,,,,,,,,,,,,,,,,,,,,,,,,,,,,,,,,,,,,,,,,,,,,,,,,,,,,,,,,,,,,,
,,"[""period""]",0,104,0,104,0,1,5d3739be575c6c000151d88f,25,Kobieta,2022-05-28_09h20.05.964,task,2021.1.4,Win32,59.91252771,628b806c463b948bc644b84f,6291ccdb1836baed11907b91,[0.6397000002860977],,,,,,,,,,,,,,,,,,,,,,,,,,,,,,,,,,,,,,,,,,,,,,,,,,,,,,,,,,,,,,,,,,,,,,,,,,,,,,,,,,,,,,,,,,,,,,,,,,,,,,,
,,"[""period""]",0,105,0,105,0,1,5d3739be575c6c000151d88f,25,Kobieta,2022-05-28_09h20.05.964,task,2021.1.4,Win32,59.91252771,628b806c463b948bc644b84f,6291ccdb1836baed11907b91,[0.5240999999045926],,,,,,,,,,,,,,,,,,,,,,,,,,,,,,,,,,,,,,,,,,,,,,,,,,,,,,,,,,,,,,,,,,,,,,,,,,,,,,,,,,,,,,,,,,,,,,,,,,,,,,,
,,"[""comma""]",0,106,0,106,0,1,5d3739be575c6c000151d88f,25,Kobieta,2022-05-28_09h20.05.964,task,2021.1.4,Win32,59.91252771,628b806c463b948bc644b84f,6291ccdb1836baed11907b91,[0.34120000028610775],,,,,,,,,,,,,,,,,,,,,,,,,,,,,,,,,,,,,,,,,,,,,,,,,,,,,,,,,,,,,,,,,,,,,,,,,,,,,,,,,,,,,,,,,,,,,,,,,,,,,,,
,,"[""comma""]",0,107,0,107,0,1,5d3739be575c6c000151d88f,25,Kobieta,2022-05-28_09h20.05.964,task,2021.1.4,Win32,59.91252771,628b806c463b948bc644b84f,6291ccdb1836baed11907b91,[0.4391999998092615],,,,,,,,,,,,,,,,,,,,,,,,,,,,,,,,,,,,,,,,,,,,,,,,,,,,,,,,,,,,,,,,,,,,,,,,,,,,,,,,,,,,,,,,,,,,,,,,,,,,,,,
,,"[""period""]",0,108,0,108,0,1,5d3739be575c6c000151d88f,25,Kobieta,2022-05-28_09h20.05.964,task,2021.1.4,Win32,59.91252771,628b806c463b948bc644b84f,6291ccdb1836baed11907b91,[0.3234000000953756],,,,,,,,,,,,,,,,,,,,,,,,,,,,,,,,,,,,,,,,,,,,,,,,,,,,,,,,,,,,,,,,,,,,,,,,,,,,,,,,,,,,,,,,,,,,,,,,,,,,,,,
,,"[""period""]",0,109,0,109,0,1,5d3739be575c6c000151d88f,25,Kobieta,2022-05-28_09h20.05.964,task,2021.1.4,Win32,59.91252771,628b806c463b948bc644b84f,6291ccdb1836baed11907b91,[0.36780000019075487],,,,,,,,,,,,,,,,,,,,,,,,,,,,,,,,,,,,,,,,,,,,,,,,,,,,,,,,,,,,,,,,,,,,,,,,,,,,,,,,,,,,,,,,,,,,,,,,,,,,,,,
,,"[""comma""]",0,110,0,110,0,1,5d3739be575c6c000151d88f,25,Kobieta,2022-05-28_09h20.05.964,task,2021.1.4,Win32,59.91252771,628b806c463b948bc644b84f,6291ccdb1836baed11907b91,[0.35149999999998727],,,,,,,,,,,,,,,,,,,,,,,,,,,,,,,,,,,,,,,,,,,,,,,,,,,,,,,,,,,,,,,,,,,,,,,,,,,,,,,,,,,,,,,,,,,,,,,,,,,,,,,
,,"[""period""]",0,111,0,111,0,1,5d3739be575c6c000151d88f,25,Kobieta,2022-05-28_09h20.05.964,task,2021.1.4,Win32,59.91252771,628b806c463b948bc644b84f,6291ccdb1836baed11907b91,[0.3225999999046394],,,,,,,,,,,,,,,,,,,,,,,,,,,,,,,,,,,,,,,,,,,,,,,,,,,,,,,,,,,,,,,,,,,,,,,,,,,,,,,,,,,,,,,,,,,,,,,,,,,,,,,
,,"[""comma""]",0,112,0,112,0,1,5d3739be575c6c000151d88f,25,Kobieta,2022-05-28_09h20.05.964,task,2021.1.4,Win32,59.91252771,628b806c463b948bc644b84f,6291ccdb1836baed11907b91,[0.32759999990463484],,,,,,,,,,,,,,,,,,,,,,,,,,,,,,,,,,,,,,,,,,,,,,,,,,,,,,,,,,,,,,,,,,,,,,,,,,,,,,,,,,,,,,,,,,,,,,,,,,,,,,,
,,"[""period""]",0,113,0,113,0,1,5d3739be575c6c000151d88f,25,Kobieta,2022-05-28_09h20.05.964,task,2021.1.4,Win32,59.91252771,628b806c463b948bc644b84f,6291ccdb1836baed11907b91,[0.3600999999046621],,,,,,,,,,,,,,,,,,,,,,,,,,,,,,,,,,,,,,,,,,,,,,,,,,,,,,,,,,,,,,,,,,,,,,,,,,,,,,,,,,,,,,,,,,,,,,,,,,,,,,,
,,"[""comma""]",0,114,0,114,0,1,5d3739be575c6c000151d88f,25,Kobieta,2022-05-28_09h20.05.964,task,2021.1.4,Win32,59.91252771,628b806c463b948bc644b84f,6291ccdb1836baed11907b91,[0.3515000000000441],,,,,,,,,,,,,,,,,,,,,,,,,,,,,,,,,,,,,,,,,,,,,,,,,,,,,,,,,,,,,,,,,,,,,,,,,,,,,,,,,,,,,,,,,,,,,,,,,,,,,,,
,,"[""period""]",0,115,0,115,0,1,5d3739be575c6c000151d88f,25,Kobieta,2022-05-28_09h20.05.964,task,2021.1.4,Win32,59.91252771,628b806c463b948bc644b84f,6291ccdb1836baed11907b91,[0.367999999999995],,,,,,,,,,,,,,,,,,,,,,,,,,,,,,,,,,,,,,,,,,,,,,,,,,,,,,,,,,,,,,,,,,,,,,,,,,,,,,,,,,,,,,,,,,,,,,,,,,,,,,,
,,"[""period""]",0,116,0,116,0,1,5d3739be575c6c000151d88f,25,Kobieta,2022-05-28_09h20.05.964,task,2021.1.4,Win32,59.91252771,628b806c463b948bc644b84f,6291ccdb1836baed11907b91,[0.5336999998092438],,,,,,,,,,,,,,,,,,,,,,,,,,,,,,,,,,,,,,,,,,,,,,,,,,,,,,,,,,,,,,,,,,,,,,,,,,,,,,,,,,,,,,,,,,,,,,,,,,,,,,,
,,"[""period""]",0,117,0,117,0,1,5d3739be575c6c000151d88f,25,Kobieta,2022-05-28_09h20.05.964,task,2021.1.4,Win32,59.91252771,628b806c463b948bc644b84f,6291ccdb1836baed11907b91,[0.3943999996184857],,,,,,,,,,,,,,,,,,,,,,,,,,,,,,,,,,,,,,,,,,,,,,,,,,,,,,,,,,,,,,,,,,,,,,,,,,,,,,,,,,,,,,,,,,,,,,,,,,,,,,,
,,"[""comma""]",0,118,0,118,0,1,5d3739be575c6c000151d88f,25,Kobieta,2022-05-28_09h20.05.964,task,2021.1.4,Win32,59.91252771,628b806c463b948bc644b84f,6291ccdb1836baed11907b91,[0.3788999996185112],,,,,,,,,,,,,,,,,,,,,,,,,,,,,,,,,,,,,,,,,,,,,,,,,,,,,,,,,,,,,,,,,,,,,,,,,,,,,,,,,,,,,,,,,,,,,,,,,,,,,,,
,,"[""period""]",0,119,0,119,0,1,5d3739be575c6c000151d88f,25,Kobieta,2022-05-28_09h20.05.964,task,2021.1.4,Win32,59.91252771,628b806c463b948bc644b84f,6291ccdb1836baed11907b91,[0.3341999998092433],,,,,,,,,,,,,,,,,,,,,,,,,,,,,,,,,,,,,,,,,,,,,,,,,,,,,,,,,,,,,,,,,,,,,,,,,,,,,,,,,,,,,,,,,,,,,,,,,,,,,,,
,,,,,,,,,5d3739be575c6c000151d88f,25,Kobieta,2022-05-28_09h20.05.964,task,2021.1.4,Win32,59.91252771,628b806c463b948bc644b84f,6291ccdb1836baed11907b91,,space,11.2605,space,6.873,0,0,0,0,1,"X V Q F H G B L J M P D K C T S W R N Z
",,,,,,,,,,,,,,,,,,,,,,,,,,,,,,,,,,,,,,,,,,,,,,,,,,,,,,,,,,,,,,,,,,,,,,,,,,,,,,,,,,,,,,,,,,,,,
,,,,,,,,,5d3739be575c6c000151d88f,25,Kobieta,2022-05-28_09h20.05.964,task,2021.1.4,Win32,59.91252771,628b806c463b948bc644b84f,6291ccdb1836baed11907b91,,,,,,1,0,1,0,1,"X V Q F H G B L J M P D K C T S W R N Z
",,,,,,,,,,,,,,,,,,,,,,,,,,,,,,,,,,,,,,,,,,,,,,,,,,,,,,,,,,,,,,,,,,,,,,,,,,,,,,,,,,,,,,,,,,,,,
,,,,,,,,,5d3739be575c6c000151d88f,25,Kobieta,2022-05-28_09h20.05.964,task,2021.1.4,Win32,59.91252771,628b806c463b948bc644b84f,6291ccdb1836baed11907b91,,,,,,,,,,,,zf,"[""z"",""f""]","[2.305000000000007,3.2954000000954125,6.031000000000006]",1,ZF,0,0,0,0,1,,,,,,,,,,,,,,,,,,,,,,,,,,,,,,,,,,,,,,,,,,,,,,,,,,,,,,,,,,,,,,,,,,,,,,,,,,,,,,,,,,,
,,,,,,,,,5d3739be575c6c000151d88f,25,Kobieta,2022-05-28_09h20.05.964,task,2021.1.4,Win32,59.91252771,628b806c463b948bc644b84f,6291ccdb1836baed11907b91,,,,,,0,0,0,0,1,"X V Q F H G B L J M P D K C T S W R N Z
",,,,,,,,,,,,,,,,,,,,,,,,,,,,,,,,,,,,,,,,,,,,,,,,,,,,,,,,,,,,,,,,,,,,,,,,,,,,,,,,,,,,,,,,,,,,,
,,,,,,,,,5d3739be575c6c000151d88f,25,Kobieta,2022-05-28_09h20.05.964,task,2021.1.4,Win32,59.91252771,628b806c463b948bc644b84f,6291ccdb1836baed11907b91,,,,,,1,0,1,0,1,"X V Q F H G B L J M P D K C T S W R N Z
",,,,,,,,,,,,,,,,,,,,,,,,,,,,,,,,,,,,,,,,,,,,,,,,,,,,,,,,,,,,,,,,,,,,,,,,,,,,,,,,,,,,,,,,,,,,,
,,,,,,,,,5d3739be575c6c000151d88f,25,Kobieta,2022-05-28_09h20.05.964,task,2021.1.4,Win32,59.91252771,628b806c463b948bc644b84f,6291ccdb1836baed11907b91,,,,,,,,,,,,xd,"[""x"",""d""]","[1.3707000002860923,1.8267000002861096,2.7521000003814606]",1,XD,1,0,1,0,1,,,,,,,,,,,,,,,,,,,,,,,,,,,,,,,,,,,,,,,,,,,,,,,,,,,,,,,,,,,,,,,,,,,,,,,,,,,,,,,,,,,
,,,,,,,,,5d3739be575c6c000151d88f,25,Kobieta,2022-05-28_09h20.05.964,task,2021.1.4,Win32,59.91252771,628b806c463b948bc644b84f,6291ccdb1836baed11907b91,,,,,,0,0,0,0,1,"X V Q F H G B L J M P D K C T S W R N Z
",,,,,,,,,,,,,,,,,,,,,,,,,,,,,,,,,,,,,,,,,,,,,,,,,,,,,,,,,,,,,,,,,,,,,,,,,,,,,,,,,,,,,,,,,,,,,
,,,,,,,,,5d3739be575c6c000151d88f,25,Kobieta,2022-05-28_09h20.05.964,task,2021.1.4,Win32,59.91252771,628b806c463b948bc644b84f,6291ccdb1836baed11907b91,,,,,,1,0,1,0,1,"X V Q F H G B L J M P D K C T S W R N Z
",,,,,,,,,,,,,,,,,,,,,,,,,,,,,,,,,,,,,,,,,,,,,,,,,,,,,,,,,,,,,,,,,,,,,,,,,,,,,,,,,,,,,,,,,,,,,
,,,,,,,,,5d3739be575c6c000151d88f,25,Kobieta,2022-05-28_09h20.05.964,task,2021.1.4,Win32,59.91252771,628b806c463b948bc644b84f,6291ccdb1836baed11907b91,,,,,,2,0,2,0,1,"X V Q F H G B L J M P D K C T S W R N Z
",,,,,,,,,,,,,,,,,,,,,,,,,,,,,,,,,,,,,,,,,,,,,,,,,,,,,,,,,,,,,,,,,,,,,,,,,,,,,,,,,,,,,,,,,,,,,
,,,,,,,,,5d3739be575c6c000151d88f,25,Kobieta,2022-05-28_09h20.05.964,task,2021.1.4,Win32,59.91252771,628b806c463b948bc644b84f,6291ccdb1836baed11907b91,,,,,,,,,,,,zgl,"[""z"",""g"",""l""]","[1.301499999999976,1.758400000095321,2.600800000190702,3.606999999999971]",0,"Z
GL",2,0,2,0,1,,,,,,,,,,,,,,,,,,,,,,,,,,,,,,,,,,,,,,,,,,,,,,,,,,,,,,,,,,,,,,,,,,,,,,,,,,,,,,,,,,,
,,,,,,,,,5d3739be575c6c000151d88f,25,Kobieta,2022-05-28_09h20.05.964,task,2021.1.4,Win32,59.91252771,628b806c463b948bc644b84f,6291ccdb1836baed11907b91,,,,,,0,0,0,0,1,"X V Q F H G B L J M P D K C T S W R N Z
",,,,,,,,,,,,,,,,,,,,,,,,,,,,,,,,,,,,,,,,,,,,,,,,,,,,,,,,,,,,,,,,,,,,,,,,,,,,,,,,,,,,,,,,,,,,,
,,,,,,,,,5d3739be575c6c000151d88f,25,Kobieta,2022-05-28_09h20.05.964,task,2021.1.4,Win32,59.91252771,628b806c463b948bc644b84f,6291ccdb1836baed11907b91,,,,,,1,0,1,0,1,"X V Q F H G B L J M P D K C T S W R N Z
",,,,,,,,,,,,,,,,,,,,,,,,,,,,,,,,,,,,,,,,,,,,,,,,,,,,,,,,,,,,,,,,,,,,,,,,,,,,,,,,,,,,,,,,,,,,,
,,,,,,,,,5d3739be575c6c000151d88f,25,Kobieta,2022-05-28_09h20.05.964,task,2021.1.4,Win32,59.91252771,628b806c463b948bc644b84f,6291ccdb1836baed11907b91,,,,,,2,0,2,0,1,"X V Q F H G B L J M P D K C T S W R N Z
",,,,,,,,,,,,,,,,,,,,,,,,,,,,,,,,,,,,,,,,,,,,,,,,,,,,,,,,,,,,,,,,,,,,,,,,,,,,,,,,,,,,,,,,,,,,,
,,,,,,,,,5d3739be575c6c000151d88f,25,Kobieta,2022-05-28_09h20.05.964,task,2021.1.4,Win32,59.91252771,628b806c463b948bc644b84f,6291ccdb1836baed11907b91,,,,,,,,,,,,dvx,"[""d"",""v"",""x""]","[1.2790999999046448,2.483000000000004,3.0679999999999836,3.9890999999046244]",1,DVX,3,0,3,0,1,,,,,,,,,,,,,,,,,,,,,,,,,,,,,,,,,,,,,,,,,,,,,,,,,,,,,,,,,,,,,,,,,,,,,,,,,,,,,,,,,,,
,,,,,,,,,5d3739be575c6c000151d88f,25,Kobieta,2022-05-28_09h20.05.964,task,2021.1.4,Win32,59.91252771,628b806c463b948bc644b84f,6291ccdb1836baed11907b91,,,,,,0,0,0,0,1,"X V Q F H G B L J M P D K C T S W R N Z
",,,,,,,,,,,,,,,,,,,,,,,,,,,,,,,,,,,,,,,,,,,,,,,,,,,,,,,,,,,,,,,,,,,,,,,,,,,,,,,,,,,,,,,,,,,,,
,,,,,,,,,5d3739be575c6c000151d88f,25,Kobieta,2022-05-28_09h20.05.964,task,2021.1.4,Win32,59.91252771,628b806c463b948bc644b84f,6291ccdb1836baed11907b91,,,,,,1,0,1,0,1,"X V Q F H G B L J M P D K C T S W R N Z
",,,,,,,,,,,,,,,,,,,,,,,,,,,,,,,,,,,,,,,,,,,,,,,,,,,,,,,,,,,,,,,,,,,,,,,,,,,,,,,,,,,,,,,,,,,,,
,,,,,,,,,5d3739be575c6c000151d88f,25,Kobieta,2022-05-28_09h20.05.964,task,2021.1.4,Win32,59.91252771,628b806c463b948bc644b84f,6291ccdb1836baed11907b91,,,,,,2,0,2,0,1,"X V Q F H G B L J M P D K C T S W R N Z
",,,,,,,,,,,,,,,,,,,,,,,,,,,,,,,,,,,,,,,,,,,,,,,,,,,,,,,,,,,,,,,,,,,,,,,,,,,,,,,,,,,,,,,,,,,,,
,,,,,,,,,5d3739be575c6c000151d88f,25,Kobieta,2022-05-28_09h20.05.964,task,2021.1.4,Win32,59.91252771,628b806c463b948bc644b84f,6291ccdb1836baed11907b91,,,,,,,,,,,,jjw,"[""j"",""j"",""w""]","[0.8680999999046435,1.0289000000953479,1.7413000001907335,2.300599999904648]",1,JJW,4,0,4,0,1,,,,,,,,,,,,,,,,,,,,,,,,,,,,,,,,,,,,,,,,,,,,,,,,,,,,,,,,,,,,,,,,,,,,,,,,,,,,,,,,,,,
,,,,,,,,,5d3739be575c6c000151d88f,25,Kobieta,2022-05-28_09h20.05.964,task,2021.1.4,Win32,59.91252771,628b806c463b948bc644b84f,6291ccdb1836baed11907b91,,,,,,0,0,0,0,1,"X V Q F H G B L J M P D K C T S W R N Z
",,,,,,,,,,,,,,,,,,,,,,,,,,,,,,,,,,,,,,,,,,,,,,,,,,,,,,,,,,,,,,,,,,,,,,,,,,,,,,,,,,,,,,,,,,,,,
,,,,,,,,,5d3739be575c6c000151d88f,25,Kobieta,2022-05-28_09h20.05.964,task,2021.1.4,Win32,59.91252771,628b806c463b948bc644b84f,6291ccdb1836baed11907b91,,,,,,1,0,1,0,1,"X V Q F H G B L J M P D K C T S W R N Z
",,,,,,,,,,,,,,,,,,,,,,,,,,,,,,,,,,,,,,,,,,,,,,,,,,,,,,,,,,,,,,,,,,,,,,,,,,,,,,,,,,,,,,,,,,,,,
,,,,,,,,,5d3739be575c6c000151d88f,25,Kobieta,2022-05-28_09h20.05.964,task,2021.1.4,Win32,59.91252771,628b806c463b948bc644b84f,6291ccdb1836baed11907b91,,,,,,2,0,2,0,1,"X V Q F H G B L J M P D K C T S W R N Z
",,,,,,,,,,,,,,,,,,,,,,,,,,,,,,,,,,,,,,,,,,,,,,,,,,,,,,,,,,,,,,,,,,,,,,,,,,,,,,,,,,,,,,,,,,,,,
,,,,,,,,,5d3739be575c6c000151d88f,25,Kobieta,2022-05-28_09h20.05.964,task,2021.1.4,Win32,59.91252771,628b806c463b948bc644b84f,6291ccdb1836baed11907b91,,,,,,3,0,3,0,1,"X V Q F H G B L J M P D K C T S W R N Z
",,,,,,,,,,,,,,,,,,,,,,,,,,,,,,,,,,,,,,,,,,,,,,,,,,,,,,,,,,,,,,,,,,,,,,,,,,,,,,,,,,,,,,,,,,,,,
,,,,,,,,,5d3739be575c6c000151d88f,25,Kobieta,2022-05-28_09h20.05.964,task,2021.1.4,Win32,59.91252771,628b806c463b948bc644b84f,6291ccdb1836baed11907b91,,,,,,,,,,,,hfpq,"[""h"",""f"",""p"",""q""]","[0.20559999990462074,1.5439999999999827,2.3423999996185216,3.2728999996185166,4.371099999904629]",1,HFPQ,5,0,5,0,1,,,,,,,,,,,,,,,,,,,,,,,,,,,,,,,,,,,,,,,,,,,,,,,,,,,,,,,,,,,,,,,,,,,,,,,,,,,,,,,,,,,
,,,,,,,,,5d3739be575c6c000151d88f,25,Kobieta,2022-05-28_09h20.05.964,task,2021.1.4,Win32,59.91252771,628b806c463b948bc644b84f,6291ccdb1836baed11907b91,,,,,,0,0,0,0,1,"X V Q F H G B L J M P D K C T S W R N Z
",,,,,,,,,,,,,,,,,,,,,,,,,,,,,,,,,,,,,,,,,,,,,,,,,,,,,,,,,,,,,,,,,,,,,,,,,,,,,,,,,,,,,,,,,,,,,
,,,,,,,,,5d3739be575c6c000151d88f,25,Kobieta,2022-05-28_09h20.05.964,task,2021.1.4,Win32,59.91252771,628b806c463b948bc644b84f,6291ccdb1836baed11907b91,,,,,,1,0,1,0,1,"X V Q F H G B L J M P D K C T S W R N Z
",,,,,,,,,,,,,,,,,,,,,,,,,,,,,,,,,,,,,,,,,,,,,,,,,,,,,,,,,,,,,,,,,,,,,,,,,,,,,,,,,,,,,,,,,,,,,
,,,,,,,,,5d3739be575c6c000151d88f,25,Kobieta,2022-05-28_09h20.05.964,task,2021.1.4,Win32,59.91252771,628b806c463b948bc644b84f,6291ccdb1836baed11907b91,,,,,,2,0,2,0,1,"X V Q F H G B L J M P D K C T S W R N Z
",,,,,,,,,,,,,,,,,,,,,,,,,,,,,,,,,,,,,,,,,,,,,,,,,,,,,,,,,,,,,,,,,,,,,,,,,,,,,,,,,,,,,,,,,,,,,
,,,,,,,,,5d3739be575c6c000151d88f,25,Kobieta,2022-05-28_09h20.05.964,task,2021.1.4,Win32,59.91252771,628b806c463b948bc644b84f,6291ccdb1836baed11907b91,,,,,,3,0,3,0,1,"X V Q F H G B L J M P D K C T S W R N Z
",,,,,,,,,,,,,,,,,,,,,,,,,,,,,,,,,,,,,,,,,,,,,,,,,,,,,,,,,,,,,,,,,,,,,,,,,,,,,,,,,,,,,,,,,,,,,
,,,,,,,,,5d3739be575c6c000151d88f,25,Kobieta,2022-05-28_09h20.05.964,task,2021.1.4,Win32,59.91252771,628b806c463b948bc644b84f,6291ccdb1836baed11907b91,,,,,,,,,,,,khfr,"[""k"",""h"",""f"",""r""]","[0.9344000000953656,1.6170000000000186,2.070900000095378,2.3621999998092633,3.384599999904651]",1,KHFR,6,0,6,0,1,,,,,,,,,,,,,,,,,,,,,,,,,,,,,,,,,,,,,,,,,,,,,,,,,,,,,,,,,,,,,,,,,,,,,,,,,,,,,,,,,,,
,,,,,,,,,5d3739be575c6c000151d88f,25,Kobieta,2022-05-28_09h20.05.964,task,2021.1.4,Win32,59.91252771,628b806c463b948bc644b84f,6291ccdb1836baed11907b91,,,,,,0,0,0,0,1,"X V Q F H G B L J M P D K C T S W R N Z
",,,,,,,,,,,,,,,,,,,,,,,,,,,,,,,,,,,,,,,,,,,,,,,,,,,,,,,,,,,,,,,,,,,,,,,,,,,,,,,,,,,,,,,,,,,,,
,,,,,,,,,5d3739be575c6c000151d88f,25,Kobieta,2022-05-28_09h20.05.964,task,2021.1.4,Win32,59.91252771,628b806c463b948bc644b84f,6291ccdb1836baed11907b91,,,,,,1,0,1,0,1,"X V Q F H G B L J M P D K C T S W R N Z
",,,,,,,,,,,,,,,,,,,,,,,,,,,,,,,,,,,,,,,,,,,,,,,,,,,,,,,,,,,,,,,,,,,,,,,,,,,,,,,,,,,,,,,,,,,,,
,,,,,,,,,5d3739be575c6c000151d88f,25,Kobieta,2022-05-28_09h20.05.964,task,2021.1.4,Win32,59.91252771,628b806c463b948bc644b84f,6291ccdb1836baed11907b91,,,,,,2,0,2,0,1,"X V Q F H G B L J M P D K C T S W R N Z
",,,,,,,,,,,,,,,,,,,,,,,,,,,,,,,,,,,,,,,,,,,,,,,,,,,,,,,,,,,,,,,,,,,,,,,,,,,,,,,,,,,,,,,,,,,,,
,,,,,,,,,5d3739be575c6c000151d88f,25,Kobieta,2022-05-28_09h20.05.964,task,2021.1.4,Win32,59.91252771,628b806c463b948bc644b84f,6291ccdb1836baed11907b91,,,,,,3,0,3,0,1,"X V Q F H G B L J M P D K C T S W R N Z
",,,,,,,,,,,,,,,,,,,,,,,,,,,,,,,,,,,,,,,,,,,,,,,,,,,,,,,,,,,,,,,,,,,,,,,,,,,,,,,,,,,,,,,,,,,,,
,,,,,,,,,5d3739be575c6c000151d88f,25,Kobieta,2022-05-28_09h20.05.964,task,2021.1.4,Win32,59.91252771,628b806c463b948bc644b84f,6291ccdb1836baed11907b91,,,,,,4,0,4,0,1,"X V Q F H G B L J M P D K C T S W R N Z
",,,,,,,,,,,,,,,,,,,,,,,,,,,,,,,,,,,,,,,,,,,,,,,,,,,,,,,,,,,,,,,,,,,,,,,,,,,,,,,,,,,,,,,,,,,,,
,,,,,,,,,5d3739be575c6c000151d88f,25,Kobieta,2022-05-28_09h20.05.964,task,2021.1.4,Win32,59.91252771,628b806c463b948bc644b84f,6291ccdb1836baed11907b91,,,,,,,,,,,,xqrsj,"[""x"",""q"",""r"",""s"",""j""]","[2.2211999998092438,2.8898999996185353,3.8167999997139077,4.2360999999046385,5.135399999618528,5.989099999904624]",1,XQRSJ,7,0,7,0,1,,,,,,,,,,,,,,,,,,,,,,,,,,,,,,,,,,,,,,,,,,,,,,,,,,,,,,,,,,,,,,,,,,,,,,,,,,,,,,,,,,,
,,,,,,,,,5d3739be575c6c000151d88f,25,Kobieta,2022-05-28_09h20.05.964,task,2021.1.4,Win32,59.91252771,628b806c463b948bc644b84f,6291ccdb1836baed11907b91,,,,,,0,0,0,0,1,"X V Q F H G B L J M P D K C T S W R N Z
",,,,,,,,,,,,,,,,,,,,,,,,,,,,,,,,,,,,,,,,,,,,,,,,,,,,,,,,,,,,,,,,,,,,,,,,,,,,,,,,,,,,,,,,,,,,,
,,,,,,,,,5d3739be575c6c000151d88f,25,Kobieta,2022-05-28_09h20.05.964,task,2021.1.4,Win32,59.91252771,628b806c463b948bc644b84f,6291ccdb1836baed11907b91,,,,,,1,0,1,0,1,"X V Q F H G B L J M P D K C T S W R N Z
",,,,,,,,,,,,,,,,,,,,,,,,,,,,,,,,,,,,,,,,,,,,,,,,,,,,,,,,,,,,,,,,,,,,,,,,,,,,,,,,,,,,,,,,,,,,,
,,,,,,,,,5d3739be575c6c000151d88f,25,Kobieta,2022-05-28_09h20.05.964,task,2021.1.4,Win32,59.91252771,628b806c463b948bc644b84f,6291ccdb1836baed11907b91,,,,,,2,0,2,0,1,"X V Q F H G B L J M P D K C T S W R N Z
",,,,,,,,,,,,,,,,,,,,,,,,,,,,,,,,,,,,,,,,,,,,,,,,,,,,,,,,,,,,,,,,,,,,,,,,,,,,,,,,,,,,,,,,,,,,,
,,,,,,,,,5d3739be575c6c000151d88f,25,Kobieta,2022-05-28_09h20.05.964,task,2021.1.4,Win32,59.91252771,628b806c463b948bc644b84f,6291ccdb1836baed11907b91,,,,,,3,0,3,0,1,"X V Q F H G B L J M P D K C T S W R N Z
",,,,,,,,,,,,,,,,,,,,,,,,,,,,,,,,,,,,,,,,,,,,,,,,,,,,,,,,,,,,,,,,,,,,,,,,,,,,,,,,,,,,,,,,,,,,,
,,,,,,,,,5d3739be575c6c000151d88f,25,Kobieta,2022-05-28_09h20.05.964,task,2021.1.4,Win32,59.91252771,628b806c463b948bc644b84f,6291ccdb1836baed11907b91,,,,,,4,0,4,0,1,"X V Q F H G B L J M P D K C T S W R N Z
",,,,,,,,,,,,,,,,,,,,,,,,,,,,,,,,,,,,,,,,,,,,,,,,,,,,,,,,,,,,,,,,,,,,,,,,,,,,,,,,,,,,,,,,,,,,,
,,,,,,,,,5d3739be575c6c000151d88f,25,Kobieta,2022-05-28_09h20.05.964,task,2021.1.4,Win32,59.91252771,628b806c463b948bc644b84f,6291ccdb1836baed11907b91,,,,,,,,,,,,jbstx,"[""j"",""b"",""s"",""t"",""x""]","[1.4154000000953602,1.8379000000953738,2.6374999999999886,3.320900000095378,3.6478000001907276,4.657900000095367]",1,JBSTX,8,0,8,0,1,,,,,,,,,,,,,,,,,,,,,,,,,,,,,,,,,,,,,,,,,,,,,,,,,,,,,,,,,,,,,,,,,,,,,,,,,,,,,,,,,,,
,,,,,,,,,5d3739be575c6c000151d88f,25,Kobieta,2022-05-28_09h20.05.964,task,2021.1.4,Win32,59.91252771,628b806c463b948bc644b84f,6291ccdb1836baed11907b91,,,,,,0,0,0,0,1,"X V Q F H G B L J M P D K C T S W R N Z
",,,,,,,,,,,,,,,,,,,,,,,,,,,,,,,,,,,,,,,,,,,,,,,,,,,,,,,,,,,,,,,,,,,,,,,,,,,,,,,,,,,,,,,,,,,,,
,,,,,,,,,5d3739be575c6c000151d88f,25,Kobieta,2022-05-28_09h20.05.964,task,2021.1.4,Win32,59.91252771,628b806c463b948bc644b84f,6291ccdb1836baed11907b91,,,,,,1,0,1,0,1,"X V Q F H G B L J M P D K C T S W R N Z
",,,,,,,,,,,,,,,,,,,,,,,,,,,,,,,,,,,,,,,,,,,,,,,,,,,,,,,,,,,,,,,,,,,,,,,,,,,,,,,,,,,,,,,,,,,,,
,,,,,,,,,5d3739be575c6c000151d88f,25,Kobieta,2022-05-28_09h20.05.964,task,2021.1.4,Win32,59.91252771,628b806c463b948bc644b84f,6291ccdb1836baed11907b91,,,,,,2,0,2,0,1,"X V Q F H G B L J M P D K C T S W R N Z
",,,,,,,,,,,,,,,,,,,,,,,,,,,,,,,,,,,,,,,,,,,,,,,,,,,,,,,,,,,,,,,,,,,,,,,,,,,,,,,,,,,,,,,,,,,,,
,,,,,,,,,5d3739be575c6c000151d88f,25,Kobieta,2022-05-28_09h20.05.964,task,2021.1.4,Win32,59.91252771,628b806c463b948bc644b84f,6291ccdb1836baed11907b91,,,,,,3,0,3,0,1,"X V Q F H G B L J M P D K C T S W R N Z
",,,,,,,,,,,,,,,,,,,,,,,,,,,,,,,,,,,,,,,,,,,,,,,,,,,,,,,,,,,,,,,,,,,,,,,,,,,,,,,,,,,,,,,,,,,,,
,,,,,,,,,5d3739be575c6c000151d88f,25,Kobieta,2022-05-28_09h20.05.964,task,2021.1.4,Win32,59.91252771,628b806c463b948bc644b84f,6291ccdb1836baed11907b91,,,,,,4,0,4,0,1,"X V Q F H G B L J M P D K C T S W R N Z
",,,,,,,,,,,,,,,,,,,,,,,,,,,,,,,,,,,,,,,,,,,,,,,,,,,,,,,,,,,,,,,,,,,,,,,,,,,,,,,,,,,,,,,,,,,,,
,,,,,,,,,5d3739be575c6c000151d88f,25,Kobieta,2022-05-28_09h20.05.964,task,2021.1.4,Win32,59.91252771,628b806c463b948bc644b84f,6291ccdb1836baed11907b91,,,,,,5,0,5,0,1,"X V Q F H G B L J M P D K C T S W R N Z
",,,,,,,,,,,,,,,,,,,,,,,,,,,,,,,,,,,,,,,,,,,,,,,,,,,,,,,,,,,,,,,,,,,,,,,,,,,,,,,,,,,,,,,,,,,,,
,,,,,,,,,5d3739be575c6c000151d88f,25,Kobieta,2022-05-28_09h20.05.964,task,2021.1.4,Win32,59.91252771,628b806c463b948bc644b84f,6291ccdb1836baed11907b91,,,,,,,,,,,,dnclrm,"[""d"",""n"",""c"",""l"",""r"",""m""]","[1.0719000000953542,1.949400000095352,2.3360000000000127,2.9829000000953556,3.4158000001907567,4.300800000190748,5.138000000000034]",1,DNCLRM,9,0,9,0,1,,,,,,,,,,,,,,,,,,,,,,,,,,,,,,,,,,,,,,,,,,,,,,,,,,,,,,,,,,,,,,,,,,,,,,,,,,,,,,,,,,,
,,,,,,,,,5d3739be575c6c000151d88f,25,Kobieta,2022-05-28_09h20.05.964,task,2021.1.4,Win32,59.91252771,628b806c463b948bc644b84f,6291ccdb1836baed11907b91,,,,,,0,0,0,0,1,"X V Q F H G B L J M P D K C T S W R N Z
",,,,,,,,,,,,,,,,,,,,,,,,,,,,,,,,,,,,,,,,,,,,,,,,,,,,,,,,,,,,,,,,,,,,,,,,,,,,,,,,,,,,,,,,,,,,,
,,,,,,,,,5d3739be575c6c000151d88f,25,Kobieta,2022-05-28_09h20.05.964,task,2021.1.4,Win32,59.91252771,628b806c463b948bc644b84f,6291ccdb1836baed11907b91,,,,,,1,0,1,0,1,"X V Q F H G B L J M P D K C T S W R N Z
",,,,,,,,,,,,,,,,,,,,,,,,,,,,,,,,,,,,,,,,,,,,,,,,,,,,,,,,,,,,,,,,,,,,,,,,,,,,,,,,,,,,,,,,,,,,,
,,,,,,,,,5d3739be575c6c000151d88f,25,Kobieta,2022-05-28_09h20.05.964,task,2021.1.4,Win32,59.91252771,628b806c463b948bc644b84f,6291ccdb1836baed11907b91,,,,,,2,0,2,0,1,"X V Q F H G B L J M P D K C T S W R N Z
",,,,,,,,,,,,,,,,,,,,,,,,,,,,,,,,,,,,,,,,,,,,,,,,,,,,,,,,,,,,,,,,,,,,,,,,,,,,,,,,,,,,,,,,,,,,,
,,,,,,,,,5d3739be575c6c000151d88f,25,Kobieta,2022-05-28_09h20.05.964,task,2021.1.4,Win32,59.91252771,628b806c463b948bc644b84f,6291ccdb1836baed11907b91,,,,,,3,0,3,0,1,"X V Q F H G B L J M P D K C T S W R N Z
",,,,,,,,,,,,,,,,,,,,,,,,,,,,,,,,,,,,,,,,,,,,,,,,,,,,,,,,,,,,,,,,,,,,,,,,,,,,,,,,,,,,,,,,,,,,,
,,,,,,,,,5d3739be575c6c000151d88f,25,Kobieta,2022-05-28_09h20.05.964,task,2021.1.4,Win32,59.91252771,628b806c463b948bc644b84f,6291ccdb1836baed11907b91,,,,,,4,0,4,0,1,"X V Q F H G B L J M P D K C T S W R N Z
",,,,,,,,,,,,,,,,,,,,,,,,,,,,,,,,,,,,,,,,,,,,,,,,,,,,,,,,,,,,,,,,,,,,,,,,,,,,,,,,,,,,,,,,,,,,,
,,,,,,,,,5d3739be575c6c000151d88f,25,Kobieta,2022-05-28_09h20.05.964,task,2021.1.4,Win32,59.91252771,628b806c463b948bc644b84f,6291ccdb1836baed11907b91,,,,,,5,0,5,0,1,"X V Q F H G B L J M P D K C T S W R N Z
",,,,,,,,,,,,,,,,,,,,,,,,,,,,,,,,,,,,,,,,,,,,,,,,,,,,,,,,,,,,,,,,,,,,,,,,,,,,,,,,,,,,,,,,,,,,,
,,,,,,,,,5d3739be575c6c000151d88f,25,Kobieta,2022-05-28_09h20.05.964,task,2021.1.4,Win32,59.91252771,628b806c463b948bc644b84f,6291ccdb1836baed11907b91,,,,,,,,,,,,pczshw,"[""p"",""c"",""z"",""s"",""h"",""w""]","[1.009400000095411,1.9190999999046312,2.6600999999046735,3.1070000000000277,4.015800000190779,4.954200000286107,5.914400000095384]",0,"PCZ
SHV",10,0,10,0,1,,,,,,,,,,,,,,,,,,,,,,,,,,,,,,,,,,,,,,,,,,,,,,,,,,,,,,,,,,,,,,,,,,,,,,,,,,,,,,,,,,,
,,,,,,,,,5d3739be575c6c000151d88f,25,Kobieta,2022-05-28_09h20.05.964,task,2021.1.4,Win32,59.91252771,628b806c463b948bc644b84f,6291ccdb1836baed11907b91,,,,,,0,0,0,0,1,"X V Q F H G B L J M P D K C T S W R N Z
",,,,,,,,,,,,,,,,,,,,,,,,,,,,,,,,,,,,,,,,,,,,,,,,,,,,,,,,,,,,,,,,,,,,,,,,,,,,,,,,,,,,,,,,,,,,,
,,,,,,,,,5d3739be575c6c000151d88f,25,Kobieta,2022-05-28_09h20.05.964,task,2021.1.4,Win32,59.91252771,628b806c463b948bc644b84f,6291ccdb1836baed11907b91,,,,,,1,0,1,0,1,"X V Q F H G B L J M P D K C T S W R N Z
",,,,,,,,,,,,,,,,,,,,,,,,,,,,,,,,,,,,,,,,,,,,,,,,,,,,,,,,,,,,,,,,,,,,,,,,,,,,,,,,,,,,,,,,,,,,,
,,,,,,,,,5d3739be575c6c000151d88f,25,Kobieta,2022-05-28_09h20.05.964,task,2021.1.4,Win32,59.91252771,628b806c463b948bc644b84f,6291ccdb1836baed11907b91,,,,,,2,0,2,0,1,"X V Q F H G B L J M P D K C T S W R N Z
",,,,,,,,,,,,,,,,,,,,,,,,,,,,,,,,,,,,,,,,,,,,,,,,,,,,,,,,,,,,,,,,,,,,,,,,,,,,,,,,,,,,,,,,,,,,,
,,,,,,,,,5d3739be575c6c000151d88f,25,Kobieta,2022-05-28_09h20.05.964,task,2021.1.4,Win32,59.91252771,628b806c463b948bc644b84f,6291ccdb1836baed11907b91,,,,,,3,0,3,0,1,"X V Q F H G B L J M P D K C T S W R N Z
",,,,,,,,,,,,,,,,,,,,,,,,,,,,,,,,,,,,,,,,,,,,,,,,,,,,,,,,,,,,,,,,,,,,,,,,,,,,,,,,,,,,,,,,,,,,,
,,,,,,,,,5d3739be575c6c000151d88f,25,Kobieta,2022-05-28_09h20.05.964,task,2021.1.4,Win32,59.91252771,628b806c463b948bc644b84f,6291ccdb1836baed11907b91,,,,,,4,0,4,0,1,"X V Q F H G B L J M P D K C T S W R N Z
",,,,,,,,,,,,,,,,,,,,,,,,,,,,,,,,,,,,,,,,,,,,,,,,,,,,,,,,,,,,,,,,,,,,,,,,,,,,,,,,,,,,,,,,,,,,,
,,,,,,,,,5d3739be575c6c000151d88f,25,Kobieta,2022-05-28_09h20.05.964,task,2021.1.4,Win32,59.91252771,628b806c463b948bc644b84f,6291ccdb1836baed11907b91,,,,,,5,0,5,0,1,"X V Q F H G B L J M P D K C T S W R N Z
",,,,,,,,,,,,,,,,,,,,,,,,,,,,,,,,,,,,,,,,,,,,,,,,,,,,,,,,,,,,,,,,,,,,,,,,,,,,,,,,,,,,,,,,,,,,,
,,,,,,,,,5d3739be575c6c000151d88f,25,Kobieta,2022-05-28_09h20.05.964,task,2021.1.4,Win32,59.91252771,628b806c463b948bc644b84f,6291ccdb1836baed11907b91,,,,,,,,,,,,qpzrrj,"[""q"",""p"",""z"",""r"",""r"",""j""]","[0.6806999998092351,1.6301999998092356,2.5455999999045957,3.446299999713858,3.900599999904614,5.186599999904615,6.046599999904629]",0,"QPZ
RRJ",11,0,11,0,1,,,,,,,,,,,,,,,,,,,,,,,,,,,,,,,,,,,,,,,,,,,,,,,,,,,,,,,,,,,,,,,,,,,,,,,,,,,,,,,,,,,
,,,,,,,,,5d3739be575c6c000151d88f,25,Kobieta,2022-05-28_09h20.05.964,task,2021.1.4,Win32,59.91252771,628b806c463b948bc644b84f,6291ccdb1836baed11907b91,,,,,,0,0,0,0,1,"X V Q F H G B L J M P D K C T S W R N Z
",,,,,,,,,,,,,,,,,,,,,,,,,,,,,,,,,,,,,,,,,,,,,,,,,,,,,,,,,,,,,,,,,,,,,,,,,,,,,,,,,,,,,,,,,,,,,
,,,,,,,,,5d3739be575c6c000151d88f,25,Kobieta,2022-05-28_09h20.05.964,task,2021.1.4,Win32,59.91252771,628b806c463b948bc644b84f,6291ccdb1836baed11907b91,,,,,,1,0,1,0,1,"X V Q F H G B L J M P D K C T S W R N Z
",,,,,,,,,,,,,,,,,,,,,,,,,,,,,,,,,,,,,,,,,,,,,,,,,,,,,,,,,,,,,,,,,,,,,,,,,,,,,,,,,,,,,,,,,,,,,
,,,,,,,,,5d3739be575c6c000151d88f,25,Kobieta,2022-05-28_09h20.05.964,task,2021.1.4,Win32,59.91252771,628b806c463b948bc644b84f,6291ccdb1836baed11907b91,,,,,,2,0,2,0,1,"X V Q F H G B L J M P D K C T S W R N Z
",,,,,,,,,,,,,,,,,,,,,,,,,,,,,,,,,,,,,,,,,,,,,,,,,,,,,,,,,,,,,,,,,,,,,,,,,,,,,,,,,,,,,,,,,,,,,
,,,,,,,,,5d3739be575c6c000151d88f,25,Kobieta,2022-05-28_09h20.05.964,task,2021.1.4,Win32,59.91252771,628b806c463b948bc644b84f,6291ccdb1836baed11907b91,,,,,,3,0,3,0,1,"X V Q F H G B L J M P D K C T S W R N Z
",,,,,,,,,,,,,,,,,,,,,,,,,,,,,,,,,,,,,,,,,,,,,,,,,,,,,,,,,,,,,,,,,,,,,,,,,,,,,,,,,,,,,,,,,,,,,
,,,,,,,,,5d3739be575c6c000151d88f,25,Kobieta,2022-05-28_09h20.05.964,task,2021.1.4,Win32,59.91252771,628b806c463b948bc644b84f,6291ccdb1836baed11907b91,,,,,,4,0,4,0,1,"X V Q F H G B L J M P D K C T S W R N Z
",,,,,,,,,,,,,,,,,,,,,,,,,,,,,,,,,,,,,,,,,,,,,,,,,,,,,,,,,,,,,,,,,,,,,,,,,,,,,,,,,,,,,,,,,,,,,
,,,,,,,,,5d3739be575c6c000151d88f,25,Kobieta,2022-05-28_09h20.05.964,task,2021.1.4,Win32,59.91252771,628b806c463b948bc644b84f,6291ccdb1836baed11907b91,,,,,,5,0,5,0,1,"X V Q F H G B L J M P D K C T S W R N Z
",,,,,,,,,,,,,,,,,,,,,,,,,,,,,,,,,,,,,,,,,,,,,,,,,,,,,,,,,,,,,,,,,,,,,,,,,,,,,,,,,,,,,,,,,,,,,
,,,,,,,,,5d3739be575c6c000151d88f,25,Kobieta,2022-05-28_09h20.05.964,task,2021.1.4,Win32,59.91252771,628b806c463b948bc644b84f,6291ccdb1836baed11907b91,,,,,,,,,,,,tdbjrp,"[""t"",""d"",""b"",""j"",""r"",""p""]","[1.3969000000953429,2.3804999999999836,2.890599999904623,5.102499999999964,5.684599999904606,6.402099999904635,7.095900000095355]",1,TDBJRP,12,0,12,0,1,,,,,,,,,,,,,,,,,,,,,,,,,,,,,,,,,,,,,,,,,,,,,,,,,,,,,,,,,,,,,,,,,,,,,,,,,,,,,,,,,,,
,,,,,,,,,5d3739be575c6c000151d88f,25,Kobieta,2022-05-28_09h20.05.964,task,2021.1.4,Win32,59.91252771,628b806c463b948bc644b84f,6291ccdb1836baed11907b91,,,,,,0,0,0,0,1,"X V Q F H G B L J M P D K C T S W R N Z
",,,,,,,,,,,,,,,,,,,,,,,,,,,,,,,,,,,,,,,,,,,,,,,,,,,,,,,,,,,,,,,,,,,,,,,,,,,,,,,,,,,,,,,,,,,,,
,,,,,,,,,5d3739be575c6c000151d88f,25,Kobieta,2022-05-28_09h20.05.964,task,2021.1.4,Win32,59.91252771,628b806c463b948bc644b84f,6291ccdb1836baed11907b91,,,,,,1,0,1,0,1,"X V Q F H G B L J M P D K C T S W R N Z
",,,,,,,,,,,,,,,,,,,,,,,,,,,,,,,,,,,,,,,,,,,,,,,,,,,,,,,,,,,,,,,,,,,,,,,,,,,,,,,,,,,,,,,,,,,,,
,,,,,,,,,5d3739be575c6c000151d88f,25,Kobieta,2022-05-28_09h20.05.964,task,2021.1.4,Win32,59.91252771,628b806c463b948bc644b84f,6291ccdb1836baed11907b91,,,,,,2,0,2,0,1,"X V Q F H G B L J M P D K C T S W R N Z
",,,,,,,,,,,,,,,,,,,,,,,,,,,,,,,,,,,,,,,,,,,,,,,,,,,,,,,,,,,,,,,,,,,,,,,,,,,,,,,,,,,,,,,,,,,,,
,,,,,,,,,5d3739be575c6c000151d88f,25,Kobieta,2022-05-28_09h20.05.964,task,2021.1.4,Win32,59.91252771,628b806c463b948bc644b84f,6291ccdb1836baed11907b91,,,,,,3,0,3,0,1,"X V Q F H G B L J M P D K C T S W R N Z
",,,,,,,,,,,,,,,,,,,,,,,,,,,,,,,,,,,,,,,,,,,,,,,,,,,,,,,,,,,,,,,,,,,,,,,,,,,,,,,,,,,,,,,,,,,,,
,,,,,,,,,5d3739be575c6c000151d88f,25,Kobieta,2022-05-28_09h20.05.964,task,2021.1.4,Win32,59.91252771,628b806c463b948bc644b84f,6291ccdb1836baed11907b91,,,,,,4,0,4,0,1,"X V Q F H G B L J M P D K C T S W R N Z
",,,,,,,,,,,,,,,,,,,,,,,,,,,,,,,,,,,,,,,,,,,,,,,,,,,,,,,,,,,,,,,,,,,,,,,,,,,,,,,,,,,,,,,,,,,,,
,,,,,,,,,5d3739be575c6c000151d88f,25,Kobieta,2022-05-28_09h20.05.964,task,2021.1.4,Win32,59.91252771,628b806c463b948bc644b84f,6291ccdb1836baed11907b91,,,,,,5,0,5,0,1,"X V Q F H G B L J M P D K C T S W R N Z
",,,,,,,,,,,,,,,,,,,,,,,,,,,,,,,,,,,,,,,,,,,,,,,,,,,,,,,,,,,,,,,,,,,,,,,,,,,,,,,,,,,,,,,,,,,,,
,,,,,,,,,5d3739be575c6c000151d88f,25,Kobieta,2022-05-28_09h20.05.964,task,2021.1.4,Win32,59.91252771,628b806c463b948bc644b84f,6291ccdb1836baed11907b91,,,,,,6,0,6,0,1,"X V Q F H G B L J M P D K C T S W R N Z
",,,,,,,,,,,,,,,,,,,,,,,,,,,,,,,,,,,,,,,,,,,,,,,,,,,,,,,,,,,,,,,,,,,,,,,,,,,,,,,,,,,,,,,,,,,,,
,,,,,,,,,5d3739be575c6c000151d88f,25,Kobieta,2022-05-28_09h20.05.964,task,2021.1.4,Win32,59.91252771,628b806c463b948bc644b84f,6291ccdb1836baed11907b91,,,,,,,,,,,,pdrdlz,"[""p"",""d"",""r"",""d"",""l"",""z""]","[0.5055999999046321,1.4360000000000355,1.8307000002861287,3.8175000000000523,4.613200000286099,5.5627000002861,6.533400000095412]",0,"PDRDRLZ
",13,0,13,0,1,,,,,,,,,,,,,,,,,,,,,,,,,,,,,,,,,,,,,,,,,,,,,,,,,,,,,,,,,,,,,,,,,,,,,,,,,,,,,,,,,,,
,,,,,,,,,5d3739be575c6c000151d88f,25,Kobieta,2022-05-28_09h20.05.964,task,2021.1.4,Win32,59.91252771,628b806c463b948bc644b84f,6291ccdb1836baed11907b91,,,,,,0,0,0,0,1,"X V Q F H G B L J M P D K C T S W R N Z
",,,,,,,,,,,,,,,,,,,,,,,,,,,,,,,,,,,,,,,,,,,,,,,,,,,,,,,,,,,,,,,,,,,,,,,,,,,,,,,,,,,,,,,,,,,,,
,,,,,,,,,5d3739be575c6c000151d88f,25,Kobieta,2022-05-28_09h20.05.964,task,2021.1.4,Win32,59.91252771,628b806c463b948bc644b84f,6291ccdb1836baed11907b91,,,,,,1,0,1,0,1,"X V Q F H G B L J M P D K C T S W R N Z
",,,,,,,,,,,,,,,,,,,,,,,,,,,,,,,,,,,,,,,,,,,,,,,,,,,,,,,,,,,,,,,,,,,,,,,,,,,,,,,,,,,,,,,,,,,,,
,,,,,,,,,5d3739be575c6c000151d88f,25,Kobieta,2022-05-28_09h20.05.964,task,2021.1.4,Win32,59.91252771,628b806c463b948bc644b84f,6291ccdb1836baed11907b91,,,,,,2,0,2,0,1,"X V Q F H G B L J M P D K C T S W R N Z
",,,,,,,,,,,,,,,,,,,,,,,,,,,,,,,,,,,,,,,,,,,,,,,,,,,,,,,,,,,,,,,,,,,,,,,,,,,,,,,,,,,,,,,,,,,,,
,,,,,,,,,5d3739be575c6c000151d88f,25,Kobieta,2022-05-28_09h20.05.964,task,2021.1.4,Win32,59.91252771,628b806c463b948bc644b84f,6291ccdb1836baed11907b91,,,,,,3,0,3,0,1,"X V Q F H G B L J M P D K C T S W R N Z
",,,,,,,,,,,,,,,,,,,,,,,,,,,,,,,,,,,,,,,,,,,,,,,,,,,,,,,,,,,,,,,,,,,,,,,,,,,,,,,,,,,,,,,,,,,,,
,,,,,,,,,5d3739be575c6c000151d88f,25,Kobieta,2022-05-28_09h20.05.964,task,2021.1.4,Win32,59.91252771,628b806c463b948bc644b84f,6291ccdb1836baed11907b91,,,,,,4,0,4,0,1,"X V Q F H G B L J M P D K C T S W R N Z
",,,,,,,,,,,,,,,,,,,,,,,,,,,,,,,,,,,,,,,,,,,,,,,,,,,,,,,,,,,,,,,,,,,,,,,,,,,,,,,,,,,,,,,,,,,,,
,,,,,,,,,5d3739be575c6c000151d88f,25,Kobieta,2022-05-28_09h20.05.964,task,2021.1.4,Win32,59.91252771,628b806c463b948bc644b84f,6291ccdb1836baed11907b91,,,,,,5,0,5,0,1,"X V Q F H G B L J M P D K C T S W R N Z
",,,,,,,,,,,,,,,,,,,,,,,,,,,,,,,,,,,,,,,,,,,,,,,,,,,,,,,,,,,,,,,,,,,,,,,,,,,,,,,,,,,,,,,,,,,,,
,,,,,,,,,5d3739be575c6c000151d88f,25,Kobieta,2022-05-28_09h20.05.964,task,2021.1.4,Win32,59.91252771,628b806c463b948bc644b84f,6291ccdb1836baed11907b91,,,,,,6,0,6,0,1,"X V Q F H G B L J M P D K C T S W R N Z
",,,,,,,,,,,,,,,,,,,,,,,,,,,,,,,,,,,,,,,,,,,,,,,,,,,,,,,,,,,,,,,,,,,,,,,,,,,,,,,,,,,,,,,,,,,,,
,,,,,,,,,5d3739be575c6c000151d88f,25,Kobieta,2022-05-28_09h20.05.964,task,2021.1.4,Win32,59.91252771,628b806c463b948bc644b84f,6291ccdb1836baed11907b91,,,,,,,,,,,,flmvbz,"[""f"",""l"",""m"",""v"",""b"",""z""]","[0.9534000000953711,3.9475999999046394,4.878599999904623,8.486999999999966,9.494900000095356,10.279699999809225,12.311499999999967]",0,"FLFMBVZ
",14,0,14,0,1,,,,,,,,,,,,,,,,,,,,,,,,,,,,,,,,,,,,,,,,,,,,,,,,,,,,,,,,,,,,,,,,,,,,,,,,,,,,,,,,,,,
,,,,,,,,,5d3739be575c6c000151d88f,25,Kobieta,2022-05-28_09h20.05.964,task,2021.1.4,Win32,59.91252771,628b806c463b948bc644b84f,6291ccdb1836baed11907b91,,,,,,0,0,0,0,1,"X V Q F H G B L J M P D K C T S W R N Z
",,,,,,,,,,,,,,,,,,,,,,,,,,,,,,,,,,,,,,,,,,,,,,,,,,,,,,,,,,,,,,,,,,,,,,,,,,,,,,,,,,,,,,,,,,,,,
,,,,,,,,,5d3739be575c6c000151d88f,25,Kobieta,2022-05-28_09h20.05.964,task,2021.1.4,Win32,59.91252771,628b806c463b948bc644b84f,6291ccdb1836baed11907b91,,,,,,1,0,1,0,1,"X V Q F H G B L J M P D K C T S W R N Z
",,,,,,,,,,,,,,,,,,,,,,,,,,,,,,,,,,,,,,,,,,,,,,,,,,,,,,,,,,,,,,,,,,,,,,,,,,,,,,,,,,,,,,,,,,,,,
,,,,,,,,,5d3739be575c6c000151d88f,25,Kobieta,2022-05-28_09h20.05.964,task,2021.1.4,Win32,59.91252771,628b806c463b948bc644b84f,6291ccdb1836baed11907b91,,,,,,2,0,2,0,1,"X V Q F H G B L J M P D K C T S W R N Z
",,,,,,,,,,,,,,,,,,,,,,,,,,,,,,,,,,,,,,,,,,,,,,,,,,,,,,,,,,,,,,,,,,,,,,,,,,,,,,,,,,,,,,,,,,,,,
,,,,,,,,,5d3739be575c6c000151d88f,25,Kobieta,2022-05-28_09h20.05.964,task,2021.1.4,Win32,59.91252771,628b806c463b948bc644b84f,6291ccdb1836baed11907b91,,,,,,3,0,3,0,1,"X V Q F H G B L J M P D K C T S W R N Z
",,,,,,,,,,,,,,,,,,,,,,,,,,,,,,,,,,,,,,,,,,,,,,,,,,,,,,,,,,,,,,,,,,,,,,,,,,,,,,,,,,,,,,,,,,,,,
,,,,,,,,,5d3739be575c6c000151d88f,25,Kobieta,2022-05-28_09h20.05.964,task,2021.1.4,Win32,59.91252771,628b806c463b948bc644b84f,6291ccdb1836baed11907b91,,,,,,4,0,4,0,1,"X V Q F H G B L J M P D K C T S W R N Z
",,,,,,,,,,,,,,,,,,,,,,,,,,,,,,,,,,,,,,,,,,,,,,,,,,,,,,,,,,,,,,,,,,,,,,,,,,,,,,,,,,,,,,,,,,,,,
,,,,,,,,,5d3739be575c6c000151d88f,25,Kobieta,2022-05-28_09h20.05.964,task,2021.1.4,Win32,59.91252771,628b806c463b948bc644b84f,6291ccdb1836baed11907b91,,,,,,5,0,5,0,1,"X V Q F H G B L J M P D K C T S W R N Z
",,,,,,,,,,,,,,,,,,,,,,,,,,,,,,,,,,,,,,,,,,,,,,,,,,,,,,,,,,,,,,,,,,,,,,,,,,,,,,,,,,,,,,,,,,,,,
,,,,,,,,,5d3739be575c6c000151d88f,25,Kobieta,2022-05-28_09h20.05.964,task,2021.1.4,Win32,59.91252771,628b806c463b948bc644b84f,6291ccdb1836baed11907b91,,,,,,6,0,6,0,1,"X V Q F H G B L J M P D K C T S W R N Z
",,,,,,,,,,,,,,,,,,,,,,,,,,,,,,,,,,,,,,,,,,,,,,,,,,,,,,,,,,,,,,,,,,,,,,,,,,,,,,,,,,,,,,,,,,,,,
,,,,,,,,,5d3739be575c6c000151d88f,25,Kobieta,2022-05-28_09h20.05.964,task,2021.1.4,Win32,59.91252771,628b806c463b948bc644b84f,6291ccdb1836baed11907b91,,,,,,,,,,,,nzcxqm,"[""n"",""z"",""c"",""x"",""q"",""m""]","[1.039900000095372,4.600599999904659,5.980599999904655,9.654000000000053,11.76300000000009,12.536300000190806,13.252300000190814]",0,"NZ
XCXQM",15,0,15,0,1,,,,,,,,,,,,,,,,,,,,,,,,,,,,,,,,,,,,,,,,,,,,,,,,,,,,,,,,,,,,,,,,,,,,,,,,,,,,,,,,,,,
,,,,,,,,,5d3739be575c6c000151d88f,25,Kobieta,2022-05-28_09h20.05.964,task,2021.1.4,Win32,59.91252771,628b806c463b948bc644b84f,6291ccdb1836baed11907b91,,,,,,,,,,,,,,,,,,,,,,space,6.3829,4,"[""4""]",1,[6.990000000000009],[6.990000000000009],0,0,0,4,1,Practice,5,(2x6) - 8,4,,,,,,,,,,,,,,,,,,,,,,,,,,,,,,,,,,,,,,,,,,,,,,,,,,,,,,,,,,,,,,,,,,,
,,,,,,,,,5d3739be575c6c000151d88f,25,Kobieta,2022-05-28_09h20.05.964,task,2021.1.4,Win32,59.91252771,628b806c463b948bc644b84f,6291ccdb1836baed11907b91,,,,,,,,,,,,,,,,,,,,,,,,6,"[""6""]",1,[2.97199999999998],"[6.990000000000009,2.97199999999998]",0,1,1,6,1,Practice,7,(25/5) + 1,6,,,,,,,,,,,,,,,,,,,,,,,,,,,,,,,,,,,,,,,,,,,,,,,,,,,,,,,,,,,,,,,,,,,
,,,,,,,,,5d3739be575c6c000151d88f,25,Kobieta,2022-05-28_09h20.05.964,task,2021.1.4,Win32,59.91252771,628b806c463b948bc644b84f,6291ccdb1836baed11907b91,,,,,,,,,,,,,,,,,,,,,,,,5,"[""5""]",1,[4.255199999809292],"[6.990000000000009,2.97199999999998,4.255199999809292]",0,2,2,5,1,Practice,6,(4/2) + 3,5,,,,,,,,,,,,,,,,,,,,,,,,,,,,,,,,,,,,,,,,,,,,,,,,,,,,,,,,,,,,,,,,,,,
,,,,,,,,,5d3739be575c6c000151d88f,25,Kobieta,2022-05-28_09h20.05.964,task,2021.1.4,Win32,59.91252771,628b806c463b948bc644b84f,6291ccdb1836baed11907b91,,,,,,,,,,,,,,,,,,,,,,,,2,"[""2""]",1,[3.5022000002860523],"[6.990000000000009,2.97199999999998,4.255199999809292,3.5022000002860523]",0,3,3,2,1,Practice,3,(4x4) - 14,2,,,,,,,,,,,,,,,,,,,,,,,,,,,,,,,,,,,,,,,,,,,,,,,,,,,,,,,,,,,,,,,,,,,
,,,,,,,,,5d3739be575c6c000151d88f,25,Kobieta,2022-05-28_09h20.05.964,task,2021.1.4,Win32,59.91252771,628b806c463b948bc644b84f,6291ccdb1836baed11907b91,,,,,,,,,,,,,,,,,,,,,,,,7,"[""7""]",1,[3.034899999618574],"[6.990000000000009,2.97199999999998,4.255199999809292,3.5022000002860523,3.034899999618574]",0,4,4,7,1,Practice,8,(5x5) - 18,7,,,,,,,,,,,,,,,,,,,,,,,,,,,,,,,,,,,,,,,,,,,,,,,,,,,,,,,,,,,,,,,,,,,
,,,,,,,,,5d3739be575c6c000151d88f,25,Kobieta,2022-05-28_09h20.05.964,task,2021.1.4,Win32,59.91252771,628b806c463b948bc644b84f,6291ccdb1836baed11907b91,,,,,,,,,,,,,,,,,,,,,,,,0,"[""0""]",1,[3.167900000095301],"[6.990000000000009,2.97199999999998,4.255199999809292,3.5022000002860523,3.034899999618574,3.167900000095301]",0,5,5,0,1,Practice,1,(3x3) -  9,0,,,,,,,,,,,,,,,,,,,,,,,,,,,,,,,,,,,,,,,,,,,,,,,,,,,,,,,,,,,,,,,,,,,
,,,,,,,,,5d3739be575c6c000151d88f,25,Kobieta,2022-05-28_09h20.05.964,task,2021.1.4,Win32,59.91252771,628b806c463b948bc644b84f,6291ccdb1836baed11907b91,,,,,,,,,,,,,,,,,,,,,,,,8,"[""8""]",1,[2.802699999809306],"[6.990000000000009,2.97199999999998,4.255199999809292,3.5022000002860523,3.034899999618574,3.167900000095301,2.802699999809306]",0,6,6,8,1,Practice,9,(3x3) - 1,8,,,,,,,,,,,,,,,,,,,,,,,,,,,,,,,,,,,,,,,,,,,,,,,,,,,,,,,,,,,,,,,,,,,
,,,,,,,,,5d3739be575c6c000151d88f,25,Kobieta,2022-05-28_09h20.05.964,task,2021.1.4,Win32,59.91252771,628b806c463b948bc644b84f,6291ccdb1836baed11907b91,,,,,,,,,,,,,,,,,,,,,,,,9,"[""9""]",1,[3.400500000000079],"[6.990000000000009,2.97199999999998,4.255199999809292,3.5022000002860523,3.034899999618574,3.167900000095301,2.802699999809306,3.400500000000079]",0,7,7,9,1,Practice,10,(20/2) - 1,9,,,,,,,,,,,,,,,,,,,,,,,,,,,,,,,,,,,,,,,,,,,,,,,,,,,,,,,,,,,,,,,,,,,
,,,,,,,,,5d3739be575c6c000151d88f,25,Kobieta,2022-05-28_09h20.05.964,task,2021.1.4,Win32,59.91252771,628b806c463b948bc644b84f,6291ccdb1836baed11907b91,,,,,,,,,,,,,,,,,,,,,,,,1,"[""1""]",1,[2.529700000286084],"[6.990000000000009,2.97199999999998,4.255199999809292,3.5022000002860523,3.034899999618574,3.167900000095301,2.802699999809306,3.400500000000079,2.529700000286084]",0,8,8,1,1,Practice,2,(4x4) - 15,1,,,,,,,,,,,,,,,,,,,,,,,,,,,,,,,,,,,,,,,,,,,,,,,,,,,,,,,,,,,,,,,,,,,
,,,,,,,,,5d3739be575c6c000151d88f,25,Kobieta,2022-05-28_09h20.05.964,task,2021.1.4,Win32,59.91252771,628b806c463b948bc644b84f,6291ccdb1836baed11907b91,,,,,,,,,,,,,,,,,,,,,,,,3,"[""3""]",1,[3.35940000009532],"[6.990000000000009,2.97199999999998,4.255199999809292,3.5022000002860523,3.034899999618574,3.167900000095301,2.802699999809306,3.400500000000079,2.529700000286084,3.35940000009532]",0,9,9,3,1,Practice,4,(8/4) + 1,3,,,,,,,,,,,,,,,,,,,,,,,,,,,,,,,,,,,,,,,,,,,,,,,,,,,,,,,,,,,,,,,,,,,
,,,,,,,,,5d3739be575c6c000151d88f,25,Kobieta,2022-05-28_09h20.05.964,task,2021.1.4,Win32,59.91252771,628b806c463b948bc644b84f,6291ccdb1836baed11907b91,,,,,,,,,,,,,,,,,,,,,,,,,,,,,,,,,,,,,,1,36.0145,2.400966667,29.1218836,1.393362446,5.995841778,space,1.7167,0,0,0,0,1,,,,,,,,,,,,,,,,,,,,,,,,,,,,,,,,,,,,,,,,,,,,,,,,,,,,,,
,,,,,,,,,5d3739be575c6c000151d88f,25,Kobieta,2022-05-28_09h20.05.964,task,2021.1.4,Win32,59.91252771,628b806c463b948bc644b84f,6291ccdb1836baed11907b91,,,,,,,,,,,,,,,,,,,,,,,,5,,,,,,,,,,Practice,6,(4/2) + 3,5,,,,,,,,,,,,,,space,12.1332,"[""5""]",1,[3.187000000000012],1,0,0,0,5,1,,,,,,,,,,,,,,,,,,,,,,,,,,,,,,,,,,,,,,,,,,,
,,,,,,,,,5d3739be575c6c000151d88f,25,Kobieta,2022-05-28_09h20.05.964,task,2021.1.4,Win32,59.91252771,628b806c463b948bc644b84f,6291ccdb1836baed11907b91,,,,,,,,,,,"X V Q F H G B L J M P D K C T S W R N Z
",,,,,,,,,,,,,,,,,,,,,,,,,,,,,,,,,,,,,,,,,,,,,,,,,,,0,0,0,0,1,,,,,,,,,,,,,,,,,,,,,,,,,,,,,,,,,,,,,,
,,,,,,,,,5d3739be575c6c000151d88f,25,Kobieta,2022-05-28_09h20.05.964,task,2021.1.4,Win32,59.91252771,628b806c463b948bc644b84f,6291ccdb1836baed11907b91,,,,,,,,,,,,,,,,,,,,,,,,,,,,,,,,,,Practice,6,(4/2) + 3,5,,,,,,,,,,,,,,,,,0,,0,0,0,0,5,1,,,,,,,,,,,,,,,,,,,,,,,,,,,,,,,,,,,,,,,,,,,
,,,,,,,,,5d3739be575c6c000151d88f,25,Kobieta,2022-05-28_09h20.05.964,task,2021.1.4,Win32,59.91252771,628b806c463b948bc644b84f,6291ccdb1836baed11907b91,,,,,,,,,,,,,,,,,,,,,,,,0,,,,,,,,,,Practice,1,(3x3) -  9,0,,,,,,,,,,,,,,,,"[""0""]",1,[1.6096000003815334],1,0,1,1,0,1,,,,,,,,,,,,,,,,,,,,,,,,,,,,,,,,,,,,,,,,,,,
,,,,,,,,,5d3739be575c6c000151d88f,25,Kobieta,2022-05-28_09h20.05.964,task,2021.1.4,Win32,59.91252771,628b806c463b948bc644b84f,6291ccdb1836baed11907b91,,,,,,,,,,,"X V Q F H G B L J M P D K C T S W R N Z
",,,,,,,,,,,,,,,,,,,,,,,,,,,,,,,,,,,,,,,,,,,,,,,,,,,1,0,1,0,1,,,,,,,,,,,,,,,,,,,,,,,,,,,,,,,,,,,,,,
,,,,,,,,,5d3739be575c6c000151d88f,25,Kobieta,2022-05-28_09h20.05.964,task,2021.1.4,Win32,59.91252771,628b806c463b948bc644b84f,6291ccdb1836baed11907b91,,,,,,,,,,,,,,,,,,,,,,,,,,,,,,,,,,,,,,,,,,,,,,,,,,,,,,,,,,,,,,,,,,,zg,"[""z"",""g""]",0,"[2.6561000003815707,3.660000000000082,4.782700000286127]",1,0,0,0,0,1,,,,,,,,,,,,,,,,,,,,,,,,,,,,
,,,,,,,,,5d3739be575c6c000151d88f,25,Kobieta,2022-05-28_09h20.05.964,task,2021.1.4,Win32,59.91252771,628b806c463b948bc644b84f,6291ccdb1836baed11907b91,,,,,,,,,,,,,,,,,,,,,,,,1,,,,,,,,,,Practice,2,(4x4) - 15,1,,,,,,,,,,,,,,,,"[""1""]",1,[1.6783000001908022],1,0,0,0,1,1,,,,,,,,,,,,,,,,,,,,,,,,,,,,,,,,,,,,,,,,,,,
,,,,,,,,,5d3739be575c6c000151d88f,25,Kobieta,2022-05-28_09h20.05.964,task,2021.1.4,Win32,59.91252771,628b806c463b948bc644b84f,6291ccdb1836baed11907b91,,,,,,,,,,,"X V Q F H G B L J M P D K C T S W R N Z
",,,,,,,,,,,,,,,,,,,,,,,,,,,,,,,,,,,,,,,,,,,,,,,,,,,0,0,0,0,1,,,,,,,,,,,,,,,,,,,,,,,,,,,,,,,,,,,,,,
,,,,,,,,,5d3739be575c6c000151d88f,25,Kobieta,2022-05-28_09h20.05.964,task,2021.1.4,Win32,59.91252771,628b806c463b948bc644b84f,6291ccdb1836baed11907b91,,,,,,,,,,,,,,,,,,,,,,,,4,,,,,,,,,,Practice,5,(2x6) - 8,4,,,,,,,,,,,,,,,,"[""4""]",1,[3.237400000095363],1,0,0,0,4,1,,,,,,,,,,,,,,,,,,,,,,,,,,,,,,,,,,,,,,,,,,,
,,,,,,,,,5d3739be575c6c000151d88f,25,Kobieta,2022-05-28_09h20.05.964,task,2021.1.4,Win32,59.91252771,628b806c463b948bc644b84f,6291ccdb1836baed11907b91,,,,,,,,,,,"X V Q F H G B L J M P D K C T S W R N Z
",,,,,,,,,,,,,,,,,,,,,,,,,,,,,,,,,,,,,,,,,,,,,,,,,,,1,0,1,0,1,,,,,,,,,,,,,,,,,,,,,,,,,,,,,,,,,,,,,,
,,,,,,,,,5d3739be575c6c000151d88f,25,Kobieta,2022-05-28_09h20.05.964,task,2021.1.4,Win32,59.91252771,628b806c463b948bc644b84f,6291ccdb1836baed11907b91,,,,,,,,,,,,,,,,,,,,,,,,,,,,,,,,,,,,,,,,,,,,,,,,,,,,,,,,,,,,,,,,,,,gf,"[""g"",""f""]",0,"[2.566299999713806,2.9171999998092133,3.855400000095301]",0,1,0,1,0,1,,,,,,,,,,,,,,,,,,,,,,,,,,,,
,,,,,,,,,5d3739be575c6c000151d88f,25,Kobieta,2022-05-28_09h20.05.964,task,2021.1.4,Win32,59.91252771,628b806c463b948bc644b84f,6291ccdb1836baed11907b91,,,,,,,,,,,,,,,,,,,,,,,,7,,,,,,,,,,Practice,8,(5x5) - 18,7,,,,,,,,,,,,,,,,"[""7""]",1,[2.7159999999998945],1,0,0,0,7,1,,,,,,,,,,,,,,,,,,,,,,,,,,,,,,,,,,,,,,,,,,,
,,,,,,,,,5d3739be575c6c000151d88f,25,Kobieta,2022-05-28_09h20.05.964,task,2021.1.4,Win32,59.91252771,628b806c463b948bc644b84f,6291ccdb1836baed11907b91,,,,,,,,,,,"X V Q F H G B L J M P D K C T S W R N Z
",,,,,,,,,,,,,,,,,,,,,,,,,,,,,,,,,,,,,,,,,,,,,,,,,,,0,0,0,0,1,,,,,,,,,,,,,,,,,,,,,,,,,,,,,,,,,,,,,,
,,,,,,,,,5d3739be575c6c000151d88f,25,Kobieta,2022-05-28_09h20.05.964,task,2021.1.4,Win32,59.91252771,628b806c463b948bc644b84f,6291ccdb1836baed11907b91,,,,,,,,,,,,,,,,,,,,,,,,5,,,,,,,,,,Practice,6,(4/2) + 3,5,,,,,,,,,,,,,,,,"[""5""]",1,[1.5513000001907358],1,0,0,0,5,1,,,,,,,,,,,,,,,,,,,,,,,,,,,,,,,,,,,,,,,,,,,
,,,,,,,,,5d3739be575c6c000151d88f,25,Kobieta,2022-05-28_09h20.05.964,task,2021.1.4,Win32,59.91252771,628b806c463b948bc644b84f,6291ccdb1836baed11907b91,,,,,,,,,,,"X V Q F H G B L J M P D K C T S W R N Z
",,,,,,,,,,,,,,,,,,,,,,,,,,,,,,,,,,,,,,,,,,,,,,,,,,,1,0,1,0,1,,,,,,,,,,,,,,,,,,,,,,,,,,,,,,,,,,,,,,
,,,,,,,,,5d3739be575c6c000151d88f,25,Kobieta,2022-05-28_09h20.05.964,task,2021.1.4,Win32,59.91252771,628b806c463b948bc644b84f,6291ccdb1836baed11907b91,,,,,,,,,,,,,,,,,,,,,,,,,,,,,,,,,,,,,,,,,,,,,,,,,,,,,,,,,,,,,,,,,,,kx,"[""k"",""x""]",0,"[1.8507999997138995,2.7090999999046517,3.9738999996185385]",1,2,0,2,0,1,,,,,,,,,,,,,,,,,,,,,,,,,,,,
,,,,,,,,,5d3739be575c6c000151d88f,25,Kobieta,2022-05-28_09h20.05.964,task,2021.1.4,Win32,59.91252771,628b806c463b948bc644b84f,6291ccdb1836baed11907b91,,,,,,,,,,,,,,,,,,,,,,,,3,,,,,,,,,,Practice,4,(8/4) + 1,3,,,,,,,,,,,,,,,,"[""3""]",1,[2.373299999713822],1,0,0,0,3,1,,,,,,,,,,,,,,,,,,,,,,,,,,,,,,,,,,,,,,,,,,,
,,,,,,,,,5d3739be575c6c000151d88f,25,Kobieta,2022-05-28_09h20.05.964,task,2021.1.4,Win32,59.91252771,628b806c463b948bc644b84f,6291ccdb1836baed11907b91,,,,,,,,,,,"X V Q F H G B L J M P D K C T S W R N Z
",,,,,,,,,,,,,,,,,,,,,,,,,,,,,,,,,,,,,,,,,,,,,,,,,,,0,0,0,0,1,,,,,,,,,,,,,,,,,,,,,,,,,,,,,,,,,,,,,,
,,,,,,,,,5d3739be575c6c000151d88f,25,Kobieta,2022-05-28_09h20.05.964,task,2021.1.4,Win32,59.91252771,628b806c463b948bc644b84f,6291ccdb1836baed11907b91,,,,,,,,,,,,,,,,,,,,,,,,3,,,,,,,,,,Practice,4,(8/4) + 1,3,,,,,,,,,,,,,,,,"[""3""]",1,[1.9464000000953092],1,0,0,0,3,1,,,,,,,,,,,,,,,,,,,,,,,,,,,,,,,,,,,,,,,,,,,
,,,,,,,,,5d3739be575c6c000151d88f,25,Kobieta,2022-05-28_09h20.05.964,task,2021.1.4,Win32,59.91252771,628b806c463b948bc644b84f,6291ccdb1836baed11907b91,,,,,,,,,,,"X V Q F H G B L J M P D K C T S W R N Z
",,,,,,,,,,,,,,,,,,,,,,,,,,,,,,,,,,,,,,,,,,,,,,,,,,,1,0,1,0,1,,,,,,,,,,,,,,,,,,,,,,,,,,,,,,,,,,,,,,
,,,,,,,,,5d3739be575c6c000151d88f,25,Kobieta,2022-05-28_09h20.05.964,task,2021.1.4,Win32,59.91252771,628b806c463b948bc644b84f,6291ccdb1836baed11907b91,,,,,,,,,,,,,,,,,,,,,,,,,,,,,,,,,,,,,,,,,,,,,,,,,,,,,,,,,,,,,,,,,,,fv,"[""f"",""v""]",0,"[1.7663999996185566,2.6020999999046808,3.3572999997138595]",1,3,0,3,0,1,,,,,,,,,,,,,,,,,,,,,,,,,,,,
,,,,,,,,,5d3739be575c6c000151d88f,25,Kobieta,2022-05-28_09h20.05.964,task,2021.1.4,Win32,59.91252771,628b806c463b948bc644b84f,6291ccdb1836baed11907b91,,,,,,,,,,,,,,,,,,,,,,,,8,,,,,,,,,,Practice,9,(3x3) - 1,8,,,,,,,,,,,,,,,,"[""8""]",1,[1.4167000002861414],1,0,0,0,8,1,,,,,,,,,,,,,,,,,,,,,,,,,,,,,,,,,,,,,,,,,,,
,,,,,,,,,5d3739be575c6c000151d88f,25,Kobieta,2022-05-28_09h20.05.964,task,2021.1.4,Win32,59.91252771,628b806c463b948bc644b84f,6291ccdb1836baed11907b91,,,,,,,,,,,"X V Q F H G B L J M P D K C T S W R N Z
",,,,,,,,,,,,,,,,,,,,,,,,,,,,,,,,,,,,,,,,,,,,,,,,,,,0,0,0,0,1,,,,,,,,,,,,,,,,,,,,,,,,,,,,,,,,,,,,,,
,,,,,,,,,5d3739be575c6c000151d88f,25,Kobieta,2022-05-28_09h20.05.964,task,2021.1.4,Win32,59.91252771,628b806c463b948bc644b84f,6291ccdb1836baed11907b91,,,,,,,,,,,,,,,,,,,,,,,,7,,,,,,,,,,Practice,8,(5x5) - 18,7,,,,,,,,,,,,,,,,"[""7""]",1,[1.6885999999046817],1,0,0,0,7,1,,,,,,,,,,,,,,,,,,,,,,,,,,,,,,,,,,,,,,,,,,,
,,,,,,,,,5d3739be575c6c000151d88f,25,Kobieta,2022-05-28_09h20.05.964,task,2021.1.4,Win32,59.91252771,628b806c463b948bc644b84f,6291ccdb1836baed11907b91,,,,,,,,,,,"X V Q F H G B L J M P D K C T S W R N Z
",,,,,,,,,,,,,,,,,,,,,,,,,,,,,,,,,,,,,,,,,,,,,,,,,,,1,0,1,0,1,,,,,,,,,,,,,,,,,,,,,,,,,,,,,,,,,,,,,,
,,,,,,,,,5d3739be575c6c000151d88f,25,Kobieta,2022-05-28_09h20.05.964,task,2021.1.4,Win32,59.91252771,628b806c463b948bc644b84f,6291ccdb1836baed11907b91,,,,,,,,,,,,,,,,,,,,,,,,,,,,,,,,,,,,,,,,,,,,,,,,,,,,,,,,,,,,,,,,,,,jt,"[""j"",""t""]",0,"[1.6105999999045935,2.110500000000002,4.215599999904612]",1,4,0,4,0,1,,,,,,,,,,,,,,,,,,,,,,,,,,,,
,,,,,,,,,5d3739be575c6c000151d88f,25,Kobieta,2022-05-28_09h20.05.964,task,2021.1.4,Win32,59.91252771,628b806c463b948bc644b84f,6291ccdb1836baed11907b91,,,,,,,,,,,,,,,,,,,,,,,,0,,,,,,,,,,Task,2,(2x2) - 2,2,,,,,,,,,,,,,,,,,,,0,,,,,,,,,,,,,,,,,,,,,space,18.8281,"[""0""]",0,[1.6412999997138513],0,0,0,1,1,,,,,,,,,,,,,,,,,,
,,,,,,,,,5d3739be575c6c000151d88f,25,Kobieta,2022-05-28_09h20.05.964,task,2021.1.4,Win32,59.91252771,628b806c463b948bc644b84f,6291ccdb1836baed11907b91,,,,,,,,,,,,,,,,,,,,,,,,6,,,,,,,,,,Task,13,(3x4) - 6,6,,,,,,,,,,,,,,,,,,,1,,,,,,,,,,,,,,,,,,,,,,,"[""6""]",1,[3.4953000001906958],0,1,1,12,1,,,,,,,,,,,,,,,,,,
,,,,,,,,,5d3739be575c6c000151d88f,25,Kobieta,2022-05-28_09h20.05.964,task,2021.1.4,Win32,59.91252771,628b806c463b948bc644b84f,6291ccdb1836baed11907b91,,,,,,,,,,,"X V Q F H G B L J M P D K C T S W R N Z
",,,,,,,,,,,,,,,,,,,,,,,,,,,,,,,,,,,,,,,,,,,,,,,,,,,,,,,,,,,,,,,,,,,,,,,,,,,,0,0,0,0,1,,,,,,,,,,,,,
,,,,,,,,,5d3739be575c6c000151d88f,25,Kobieta,2022-05-28_09h20.05.964,task,2021.1.4,Win32,59.91252771,628b806c463b948bc644b84f,6291ccdb1836baed11907b91,,,,,,,,,,,,,,,,,,,,,,,,7,,,,,,,,,,Task,6,(12/2) + 1,7,,,,,,,,,,,,,,,,,,,1,,,,,,,,,,,,,,,,,,,,,,,"[""7""]",1,[1.990000000000009],0,0,0,5,1,,,,,,,,,,,,,,,,,,
,,,,,,,,,5d3739be575c6c000151d88f,25,Kobieta,2022-05-28_09h20.05.964,task,2021.1.4,Win32,59.91252771,628b806c463b948bc644b84f,6291ccdb1836baed11907b91,,,,,,,,,,,"X V Q F H G B L J M P D K C T S W R N Z
",,,,,,,,,,,,,,,,,,,,,,,,,,,,,,,,,,,,,,,,,,,,,,,,,,,,,,,,,,,,,,,,,,,,,,,,,,,,1,0,1,0,1,,,,,,,,,,,,,
,,,,,,,,,5d3739be575c6c000151d88f,25,Kobieta,2022-05-28_09h20.05.964,task,2021.1.4,Win32,59.91252771,628b806c463b948bc644b84f,6291ccdb1836baed11907b91,,,,,,,,,,,,,,,,,,,,,,,,,,,,,,,,,,,,,,,,,,,,,,,,,,,,,,,,,,,,,,,,,,,,,,,,,,,,,,,,,,,,,,,,,,,,zw,"[""z"",""w""]",0,"[1.5254999999999654,1.9209000000953438,3.259400000095411]",1,ZW,0,0,0,0,1,,
,,,,,,,,,5d3739be575c6c000151d88f,25,Kobieta,2022-05-28_09h20.05.964,task,2021.1.4,Win32,59.91252771,628b806c463b948bc644b84f,6291ccdb1836baed11907b91,,,,,,,,,,,,,,,,,,,,,,,,1,,,,,,,,,,Task,40,(7x2) - 5,9,,,,,,,,,,,,,,,,,,,0,,,,,,,,,,,,,,,,,,,,,,,"[""1""]",0,[4.013099999904625],0,0,0,39,1,,,,,,,,,,,,,,,,,,
,,,,,,,,,5d3739be575c6c000151d88f,25,Kobieta,2022-05-28_09h20.05.964,task,2021.1.4,Win32,59.91252771,628b806c463b948bc644b84f,6291ccdb1836baed11907b91,,,,,,,,,,,,,,,,,,,,,,,,2,,,,,,,,,,Task,26,(2x9) - 16,2,,,,,,,,,,,,,,,,,,,1,,,,,,,,,,,,,,,,,,,,,,,"[""2""]",1,[2.002599999904646],0,1,1,25,1,,,,,,,,,,,,,,,,,,
,,,,,,,,,5d3739be575c6c000151d88f,25,Kobieta,2022-05-28_09h20.05.964,task,2021.1.4,Win32,59.91252771,628b806c463b948bc644b84f,6291ccdb1836baed11907b91,,,,,,,,,,,"X V Q F H G B L J M P D K C T S W R N Z
",,,,,,,,,,,,,,,,,,,,,,,,,,,,,,,,,,,,,,,,,,,,,,,,,,,,,,,,,,,,,,,,,,,,,,,,,,,,0,0,0,0,1,,,,,,,,,,,,,
,,,,,,,,,5d3739be575c6c000151d88f,25,Kobieta,2022-05-28_09h20.05.964,task,2021.1.4,Win32,59.91252771,628b806c463b948bc644b84f,6291ccdb1836baed11907b91,,,,,,,,,,,,,,,,,,,,,,,,4,,,,,,,,,,Task,28,(2x5) - 6,4,,,,,,,,,,,,,,,,,,,1,,,,,,,,,,,,,,,,,,,,,,,"[""4""]",1,[2.5078999996185303],0,0,0,27,1,,,,,,,,,,,,,,,,,,
,,,,,,,,,5d3739be575c6c000151d88f,25,Kobieta,2022-05-28_09h20.05.964,task,2021.1.4,Win32,59.91252771,628b806c463b948bc644b84f,6291ccdb1836baed11907b91,,,,,,,,,,,"X V Q F H G B L J M P D K C T S W R N Z
",,,,,,,,,,,,,,,,,,,,,,,,,,,,,,,,,,,,,,,,,,,,,,,,,,,,,,,,,,,,,,,,,,,,,,,,,,,,1,0,1,0,1,,,,,,,,,,,,,
,,,,,,,,,5d3739be575c6c000151d88f,25,Kobieta,2022-05-28_09h20.05.964,task,2021.1.4,Win32,59.91252771,628b806c463b948bc644b84f,6291ccdb1836baed11907b91,,,,,,,,,,,,,,,,,,,,,,,,0,,,,,,,,,,Task,25,(10/5) - 2,0,,,,,,,,,,,,,,,,,,,1,,,,,,,,,,,,,,,,,,,,,,,"[""0""]",1,[4.082200000286093],0,0,0,24,1,,,,,,,,,,,,,,,,,,
,,,,,,,,,5d3739be575c6c000151d88f,25,Kobieta,2022-05-28_09h20.05.964,task,2021.1.4,Win32,59.91252771,628b806c463b948bc644b84f,6291ccdb1836baed11907b91,,,,,,,,,,,"X V Q F H G B L J M P D K C T S W R N Z
",,,,,,,,,,,,,,,,,,,,,,,,,,,,,,,,,,,,,,,,,,,,,,,,,,,,,,,,,,,,,,,,,,,,,,,,,,,,2,0,2,0,1,,,,,,,,,,,,,
,,,,,,,,,5d3739be575c6c000151d88f,25,Kobieta,2022-05-28_09h20.05.964,task,2021.1.4,Win32,59.91252771,628b806c463b948bc644b84f,6291ccdb1836baed11907b91,,,,,,,,,,,,,,,,,,,,,,,,,,,,,,,,,,,,,,,,,,,,,,,,,,,,,,,,,,,,,,,,,,,,,,,,,,,,,,,,,,,,,,,,,,,,mzf,"[""m"",""z"",""f""]",0,"[1.6814000000953229,2.4407999997138177,3.024000000000001,4.681500000000028]",0,"MZ
F",1,0,1,0,1,,
,,,,,,,,,5d3739be575c6c000151d88f,25,Kobieta,2022-05-28_09h20.05.964,task,2021.1.4,Win32,59.91252771,628b806c463b948bc644b84f,6291ccdb1836baed11907b91,,,,,,,,,,,,,,,,,,,,,,,,1,,,,,,,,,,Task,34,(9/3) - 2,1,,,,,,,,,,,,,,,,,,,1,,,,,,,,,,,,,,,,,,,,,,,"[""1""]",1,[2.69440000009547],0,0,0,33,1,,,,,,,,,,,,,,,,,,
,,,,,,,,,5d3739be575c6c000151d88f,25,Kobieta,2022-05-28_09h20.05.964,task,2021.1.4,Win32,59.91252771,628b806c463b948bc644b84f,6291ccdb1836baed11907b91,,,,,,,,,,,"X V Q F H G B L J M P D K C T S W R N Z
",,,,,,,,,,,,,,,,,,,,,,,,,,,,,,,,,,,,,,,,,,,,,,,,,,,,,,,,,,,,,,,,,,,,,,,,,,,,0,0,0,0,1,,,,,,,,,,,,,
,,,,,,,,,5d3739be575c6c000151d88f,25,Kobieta,2022-05-28_09h20.05.964,task,2021.1.4,Win32,59.91252771,628b806c463b948bc644b84f,6291ccdb1836baed11907b91,,,,,,,,,,,,,,,,,,,,,,,,5,,,,,,,,,,Task,22,(3x1) + 2,5,,,,,,,,,,,,,,,,,,,1,,,,,,,,,,,,,,,,,,,,,,,"[""5""]",1,[1.838599999904659],0,0,0,21,1,,,,,,,,,,,,,,,,,,
,,,,,,,,,5d3739be575c6c000151d88f,25,Kobieta,2022-05-28_09h20.05.964,task,2021.1.4,Win32,59.91252771,628b806c463b948bc644b84f,6291ccdb1836baed11907b91,,,,,,,,,,,"X V Q F H G B L J M P D K C T S W R N Z
",,,,,,,,,,,,,,,,,,,,,,,,,,,,,,,,,,,,,,,,,,,,,,,,,,,,,,,,,,,,,,,,,,,,,,,,,,,,1,0,1,0,1,,,,,,,,,,,,,
,,,,,,,,,5d3739be575c6c000151d88f,25,Kobieta,2022-05-28_09h20.05.964,task,2021.1.4,Win32,59.91252771,628b806c463b948bc644b84f,6291ccdb1836baed11907b91,,,,,,,,,,,,,,,,,,,,,,,,4,,,,,,,,,,Task,11,(18/3) - 2,4,,,,,,,,,,,,,,,,,,,1,,,,,,,,,,,,,,,,,,,,,,,"[""4""]",1,[3.920300000190764],0,0,0,10,1,,,,,,,,,,,,,,,,,,
,,,,,,,,,5d3739be575c6c000151d88f,25,Kobieta,2022-05-28_09h20.05.964,task,2021.1.4,Win32,59.91252771,628b806c463b948bc644b84f,6291ccdb1836baed11907b91,,,,,,,,,,,"X V Q F H G B L J M P D K C T S W R N Z
",,,,,,,,,,,,,,,,,,,,,,,,,,,,,,,,,,,,,,,,,,,,,,,,,,,,,,,,,,,,,,,,,,,,,,,,,,,,2,0,2,0,1,,,,,,,,,,,,,
,,,,,,,,,5d3739be575c6c000151d88f,25,Kobieta,2022-05-28_09h20.05.964,task,2021.1.4,Win32,59.91252771,628b806c463b948bc644b84f,6291ccdb1836baed11907b91,,,,,,,,,,,,,,,,,,,,,,,,,,,,,,,,,,,,,,,,,,,,,,,,,,,,,,,,,,,,,,,,,,,,,,,,,,,,,,,,,,,,,,,,,,,,krv,"[""k"",""r"",""v""]",0,"[2.4320000000000164,3.6314000000953683,4.247400000095354,4.946200000286126]",1,KRV,2,0,2,0,1,,
,,,,,,,,,5d3739be575c6c000151d88f,25,Kobieta,2022-05-28_09h20.05.964,task,2021.1.4,Win32,59.91252771,628b806c463b948bc644b84f,6291ccdb1836baed11907b91,,,,,,,,,,,,,,,,,,,,,,,,1,,,,,,,,,,Task,34,(9/3) - 2,1,,,,,,,,,,,,,,,,,,,1,,,,,,,,,,,,,,,,,,,,,,,"[""1""]",1,[2.2814999999999372],0,0,0,33,1,,,,,,,,,,,,,,,,,,
,,,,,,,,,5d3739be575c6c000151d88f,25,Kobieta,2022-05-28_09h20.05.964,task,2021.1.4,Win32,59.91252771,628b806c463b948bc644b84f,6291ccdb1836baed11907b91,,,,,,,,,,,"X V Q F H G B L J M P D K C T S W R N Z
",,,,,,,,,,,,,,,,,,,,,,,,,,,,,,,,,,,,,,,,,,,,,,,,,,,,,,,,,,,,,,,,,,,,,,,,,,,,0,0,0,0,1,,,,,,,,,,,,,
,,,,,,,,,5d3739be575c6c000151d88f,25,Kobieta,2022-05-28_09h20.05.964,task,2021.1.4,Win32,59.91252771,628b806c463b948bc644b84f,6291ccdb1836baed11907b91,,,,,,,,,,,,,,,,,,,,,,,,5,,,,,,,,,,Task,22,(3x1) + 2,5,,,,,,,,,,,,,,,,,,,1,,,,,,,,,,,,,,,,,,,,,,,"[""5""]",1,[2.0774000000953947],0,0,0,21,1,,,,,,,,,,,,,,,,,,
,,,,,,,,,5d3739be575c6c000151d88f,25,Kobieta,2022-05-28_09h20.05.964,task,2021.1.4,Win32,59.91252771,628b806c463b948bc644b84f,6291ccdb1836baed11907b91,,,,,,,,,,,"X V Q F H G B L J M P D K C T S W R N Z
",,,,,,,,,,,,,,,,,,,,,,,,,,,,,,,,,,,,,,,,,,,,,,,,,,,,,,,,,,,,,,,,,,,,,,,,,,,,1,0,1,0,1,,,,,,,,,,,,,
,,,,,,,,,5d3739be575c6c000151d88f,25,Kobieta,2022-05-28_09h20.05.964,task,2021.1.4,Win32,59.91252771,628b806c463b948bc644b84f,6291ccdb1836baed11907b91,,,,,,,,,,,,,,,,,,,,,,,,2,,,,,,,,,,Task,2,(2x2) - 2,2,,,,,,,,,,,,,,,,,,,1,,,,,,,,,,,,,,,,,,,,,,,"[""2""]",1,[2.2772999997139323],0,0,0,1,1,,,,,,,,,,,,,,,,,,
,,,,,,,,,5d3739be575c6c000151d88f,25,Kobieta,2022-05-28_09h20.05.964,task,2021.1.4,Win32,59.91252771,628b806c463b948bc644b84f,6291ccdb1836baed11907b91,,,,,,,,,,,"X V Q F H G B L J M P D K C T S W R N Z
",,,,,,,,,,,,,,,,,,,,,,,,,,,,,,,,,,,,,,,,,,,,,,,,,,,,,,,,,,,,,,,,,,,,,,,,,,,,2,0,2,0,1,,,,,,,,,,,,,
,,,,,,,,,5d3739be575c6c000151d88f,25,Kobieta,2022-05-28_09h20.05.964,task,2021.1.4,Win32,59.91252771,628b806c463b948bc644b84f,6291ccdb1836baed11907b91,,,,,,,,,,,,,,,,,,,,,,,,1,,,,,,,,,,Task,34,(9/3) - 2,1,,,,,,,,,,,,,,,,,,,1,,,,,,,,,,,,,,,,,,,,,,,"[""1""]",1,[3.417299999713805],0,0,0,33,1,,,,,,,,,,,,,,,,,,
,,,,,,,,,5d3739be575c6c000151d88f,25,Kobieta,2022-05-28_09h20.05.964,task,2021.1.4,Win32,59.91252771,628b806c463b948bc644b84f,6291ccdb1836baed11907b91,,,,,,,,,,,"X V Q F H G B L J M P D K C T S W R N Z
",,,,,,,,,,,,,,,,,,,,,,,,,,,,,,,,,,,,,,,,,,,,,,,,,,,,,,,,,,,,,,,,,,,,,,,,,,,,3,0,3,0,1,,,,,,,,,,,,,
,,,,,,,,,5d3739be575c6c000151d88f,25,Kobieta,2022-05-28_09h20.05.964,task,2021.1.4,Win32,59.91252771,628b806c463b948bc644b84f,6291ccdb1836baed11907b91,,,,,,,,,,,,,,,,,,,,,,,,,,,,,,,,,,,,,,,,,,,,,,,,,,,,,,,,,,,,,,,,,,,,,,,,,,,,,,,,,,,,,,,,,,,,xdps,"[""x"",""d"",""p"",""s""]",0,"[1.725999999999999,2.0819999999999936,2.80009999990466,4.203500000000076,5.18259999990471]",1,XDPS,3,0,3,0,1,,
,,,,,,,,,5d3739be575c6c000151d88f,25,Kobieta,2022-05-28_09h20.05.964,task,2021.1.4,Win32,59.91252771,628b806c463b948bc644b84f,6291ccdb1836baed11907b91,,,,,,,,,,,,,,,,,,,,,,,,4,,,,,,,,,,Task,11,(18/3) - 2,4,,,,,,,,,,,,,,,,,,,1,,,,,,,,,,,,,,,,,,,,,,,"[""4""]",1,[2.706900000095402],0,0,0,10,1,,,,,,,,,,,,,,,,,,
,,,,,,,,,5d3739be575c6c000151d88f,25,Kobieta,2022-05-28_09h20.05.964,task,2021.1.4,Win32,59.91252771,628b806c463b948bc644b84f,6291ccdb1836baed11907b91,,,,,,,,,,,"X V Q F H G B L J M P D K C T S W R N Z
",,,,,,,,,,,,,,,,,,,,,,,,,,,,,,,,,,,,,,,,,,,,,,,,,,,,,,,,,,,,,,,,,,,,,,,,,,,,0,0,0,0,1,,,,,,,,,,,,,
,,,,,,,,,5d3739be575c6c000151d88f,25,Kobieta,2022-05-28_09h20.05.964,task,2021.1.4,Win32,59.91252771,628b806c463b948bc644b84f,6291ccdb1836baed11907b91,,,,,,,,,,,,,,,,,,,,,,,,7,,,,,,,,,,Task,6,(12/2) + 1,7,,,,,,,,,,,,,,,,,,,1,,,,,,,,,,,,,,,,,,,,,,,"[""7""]",1,[1.717999999999961],0,0,0,5,1,,,,,,,,,,,,,,,,,,
,,,,,,,,,5d3739be575c6c000151d88f,25,Kobieta,2022-05-28_09h20.05.964,task,2021.1.4,Win32,59.91252771,628b806c463b948bc644b84f,6291ccdb1836baed11907b91,,,,,,,,,,,"X V Q F H G B L J M P D K C T S W R N Z
",,,,,,,,,,,,,,,,,,,,,,,,,,,,,,,,,,,,,,,,,,,,,,,,,,,,,,,,,,,,,,,,,,,,,,,,,,,,1,0,1,0,1,,,,,,,,,,,,,
,,,,,,,,,5d3739be575c6c000151d88f,25,Kobieta,2022-05-28_09h20.05.964,task,2021.1.4,Win32,59.91252771,628b806c463b948bc644b84f,6291ccdb1836baed11907b91,,,,,,,,,,,,,,,,,,,,,,,,6,,,,,,,,,,Task,5,(2x3) + 0,6,,,,,,,,,,,,,,,,,,,1,,,,,,,,,,,,,,,,,,,,,,,"[""6""]",1,[2.7184000000953574],0,0,0,4,1,,,,,,,,,,,,,,,,,,
,,,,,,,,,5d3739be575c6c000151d88f,25,Kobieta,2022-05-28_09h20.05.964,task,2021.1.4,Win32,59.91252771,628b806c463b948bc644b84f,6291ccdb1836baed11907b91,,,,,,,,,,,"X V Q F H G B L J M P D K C T S W R N Z
",,,,,,,,,,,,,,,,,,,,,,,,,,,,,,,,,,,,,,,,,,,,,,,,,,,,,,,,,,,,,,,,,,,,,,,,,,,,2,0,2,0,1,,,,,,,,,,,,,
,,,,,,,,,5d3739be575c6c000151d88f,25,Kobieta,2022-05-28_09h20.05.964,task,2021.1.4,Win32,59.91252771,628b806c463b948bc644b84f,6291ccdb1836baed11907b91,,,,,,,,,,,,,,,,,,,,,,,,2,,,,,,,,,,Task,2,(2x2) - 2,2,,,,,,,,,,,,,,,,,,,1,,,,,,,,,,,,,,,,,,,,,,,"[""2""]",1,[1.9165000000000418],0,0,0,1,1,,,,,,,,,,,,,,,,,,
,,,,,,,,,5d3739be575c6c000151d88f,25,Kobieta,2022-05-28_09h20.05.964,task,2021.1.4,Win32,59.91252771,628b806c463b948bc644b84f,6291ccdb1836baed11907b91,,,,,,,,,,,"X V Q F H G B L J M P D K C T S W R N Z
",,,,,,,,,,,,,,,,,,,,,,,,,,,,,,,,,,,,,,,,,,,,,,,,,,,,,,,,,,,,,,,,,,,,,,,,,,,,3,0,3,0,1,,,,,,,,,,,,,
,,,,,,,,,5d3739be575c6c000151d88f,25,Kobieta,2022-05-28_09h20.05.964,task,2021.1.4,Win32,59.91252771,628b806c463b948bc644b84f,6291ccdb1836baed11907b91,,,,,,,,,,,,,,,,,,,,,,,,2,,,,,,,,,,Task,19,(6/2) - 1,2,,,,,,,,,,,,,,,,,,,1,,,,,,,,,,,,,,,,,,,,,,,"[""2""]",1,[2.6957000002861378],0,0,0,18,1,,,,,,,,,,,,,,,,,,
,,,,,,,,,5d3739be575c6c000151d88f,25,Kobieta,2022-05-28_09h20.05.964,task,2021.1.4,Win32,59.91252771,628b806c463b948bc644b84f,6291ccdb1836baed11907b91,,,,,,,,,,,"X V Q F H G B L J M P D K C T S W R N Z
",,,,,,,,,,,,,,,,,,,,,,,,,,,,,,,,,,,,,,,,,,,,,,,,,,,,,,,,,,,,,,,,,,,,,,,,,,,,4,0,4,0,1,,,,,,,,,,,,,
,,,,,,,,,5d3739be575c6c000151d88f,25,Kobieta,2022-05-28_09h20.05.964,task,2021.1.4,Win32,59.91252771,628b806c463b948bc644b84f,6291ccdb1836baed11907b91,,,,,,,,,,,,,,,,,,,,,,,,,,,,,,,,,,,,,,,,,,,,,,,,,,,,,,,,,,,,,,,,,,,,,,,,,,,,,,,,,,,,,,,,,,,,vpdld,"[""v"",""p"",""d"",""l"",""d""]",0,"[1.6882999997138768,2.56740000009529,3.82709999990459,4.607400000095367,5.657799999713916,6.8122999997139]",1,VPDLD,4,0,4,0,1,,
,,,,,,,,,5d3739be575c6c000151d88f,25,Kobieta,2022-05-28_09h20.05.964,task,2021.1.4,Win32,59.91252771,628b806c463b948bc644b84f,6291ccdb1836baed11907b91,,,,,,,,,,,,,,,,,,,,,,,,3,,,,,,,,,,Task,20,(18/9) + 1,3,,,,,,,,,,,,,,,,,,,1,,,,,,,,,,,,,,,,,,,,,,,"[""3""]",1,[2.8652999997138977],0,0,0,19,1,,,,,,,,,,,,,,,,,,
,,,,,,,,,5d3739be575c6c000151d88f,25,Kobieta,2022-05-28_09h20.05.964,task,2021.1.4,Win32,59.91252771,628b806c463b948bc644b84f,6291ccdb1836baed11907b91,,,,,,,,,,,"X V Q F H G B L J M P D K C T S W R N Z
",,,,,,,,,,,,,,,,,,,,,,,,,,,,,,,,,,,,,,,,,,,,,,,,,,,,,,,,,,,,,,,,,,,,,,,,,,,,0,0,0,0,1,,,,,,,,,,,,,
,,,,,,,,,5d3739be575c6c000151d88f,25,Kobieta,2022-05-28_09h20.05.964,task,2021.1.4,Win32,59.91252771,628b806c463b948bc644b84f,6291ccdb1836baed11907b91,,,,,,,,,,,,,,,,,,,,,,,,6,,,,,,,,,,Task,13,(3x4) - 6,6,,,,,,,,,,,,,,,,,,,1,,,,,,,,,,,,,,,,,,,,,,,"[""6""]",1,[2.716900000095393],0,0,0,12,1,,,,,,,,,,,,,,,,,,
,,,,,,,,,5d3739be575c6c000151d88f,25,Kobieta,2022-05-28_09h20.05.964,task,2021.1.4,Win32,59.91252771,628b806c463b948bc644b84f,6291ccdb1836baed11907b91,,,,,,,,,,,"X V Q F H G B L J M P D K C T S W R N Z
",,,,,,,,,,,,,,,,,,,,,,,,,,,,,,,,,,,,,,,,,,,,,,,,,,,,,,,,,,,,,,,,,,,,,,,,,,,,1,0,1,0,1,,,,,,,,,,,,,
,,,,,,,,,5d3739be575c6c000151d88f,25,Kobieta,2022-05-28_09h20.05.964,task,2021.1.4,Win32,59.91252771,628b806c463b948bc644b84f,6291ccdb1836baed11907b91,,,,,,,,,,,,,,,,,,,,,,,,9,,,,,,,,,,Task,24,(2x2) + 5,9,,,,,,,,,,,,,,,,,,,1,,,,,,,,,,,,,,,,,,,,,,,"[""9""]",1,[1.6955999999046298],0,0,0,23,1,,,,,,,,,,,,,,,,,,
,,,,,,,,,5d3739be575c6c000151d88f,25,Kobieta,2022-05-28_09h20.05.964,task,2021.1.4,Win32,59.91252771,628b806c463b948bc644b84f,6291ccdb1836baed11907b91,,,,,,,,,,,"X V Q F H G B L J M P D K C T S W R N Z
",,,,,,,,,,,,,,,,,,,,,,,,,,,,,,,,,,,,,,,,,,,,,,,,,,,,,,,,,,,,,,,,,,,,,,,,,,,,2,0,2,0,1,,,,,,,,,,,,,
,,,,,,,,,5d3739be575c6c000151d88f,25,Kobieta,2022-05-28_09h20.05.964,task,2021.1.4,Win32,59.91252771,628b806c463b948bc644b84f,6291ccdb1836baed11907b91,,,,,,,,,,,,,,,,,,,,,,,,7,,,,,,,,,,Task,14,(2x2) + 3,7,,,,,,,,,,,,,,,,,,,1,,,,,,,,,,,,,,,,,,,,,,,"[""7""]",1,[2.2796000003814925],0,0,0,13,1,,,,,,,,,,,,,,,,,,
,,,,,,,,,5d3739be575c6c000151d88f,25,Kobieta,2022-05-28_09h20.05.964,task,2021.1.4,Win32,59.91252771,628b806c463b948bc644b84f,6291ccdb1836baed11907b91,,,,,,,,,,,"X V Q F H G B L J M P D K C T S W R N Z
",,,,,,,,,,,,,,,,,,,,,,,,,,,,,,,,,,,,,,,,,,,,,,,,,,,,,,,,,,,,,,,,,,,,,,,,,,,,3,0,3,0,1,,,,,,,,,,,,,
,,,,,,,,,5d3739be575c6c000151d88f,25,Kobieta,2022-05-28_09h20.05.964,task,2021.1.4,Win32,59.91252771,628b806c463b948bc644b84f,6291ccdb1836baed11907b91,,,,,,,,,,,,,,,,,,,,,,,,8,,,,,,,,,,Task,32,(8/2) + 4,8,,,,,,,,,,,,,,,,,,,1,,,,,,,,,,,,,,,,,,,,,,,"[""8""]",1,[2.620299999713893],0,0,0,31,1,,,,,,,,,,,,,,,,,,
,,,,,,,,,5d3739be575c6c000151d88f,25,Kobieta,2022-05-28_09h20.05.964,task,2021.1.4,Win32,59.91252771,628b806c463b948bc644b84f,6291ccdb1836baed11907b91,,,,,,,,,,,"X V Q F H G B L J M P D K C T S W R N Z
",,,,,,,,,,,,,,,,,,,,,,,,,,,,,,,,,,,,,,,,,,,,,,,,,,,,,,,,,,,,,,,,,,,,,,,,,,,,4,0,4,0,1,,,,,,,,,,,,,
,,,,,,,,,5d3739be575c6c000151d88f,25,Kobieta,2022-05-28_09h20.05.964,task,2021.1.4,Win32,59.91252771,628b806c463b948bc644b84f,6291ccdb1836baed11907b91,,,,,,,,,,,,,,,,,,,,,,,,,,,,,,,,,,Task,29,(3x8) - 19 ,5,,,,,,,,,,,,,,,,,,,0,,,,,,,,,,,,,,,,,,,,,,,,0,,0,0,0,28,1,,,,,,,,,,,,,,,,,,
,,,,,,,,,5d3739be575c6c000151d88f,25,Kobieta,2022-05-28_09h20.05.964,task,2021.1.4,Win32,59.91252771,628b806c463b948bc644b84f,6291ccdb1836baed11907b91,,,,,,,,,,,,,,,,,,,,,,,,2,,,,,,,,,,Task,2,(2x2) - 2,2,,,,,,,,,,,,,,,,,,,1,,,,,,,,,,,,,,,,,,,,,,,"[""2""]",1,[2.281300000190754],0,1,1,1,1,,,,,,,,,,,,,,,,,,
,,,,,,,,,5d3739be575c6c000151d88f,25,Kobieta,2022-05-28_09h20.05.964,task,2021.1.4,Win32,59.91252771,628b806c463b948bc644b84f,6291ccdb1836baed11907b91,,,,,,,,,,,"X V Q F H G B L J M P D K C T S W R N Z
",,,,,,,,,,,,,,,,,,,,,,,,,,,,,,,,,,,,,,,,,,,,,,,,,,,,,,,,,,,,,,,,,,,,,,,,,,,,5,0,5,0,1,,,,,,,,,,,,,
,,,,,,,,,5d3739be575c6c000151d88f,25,Kobieta,2022-05-28_09h20.05.964,task,2021.1.4,Win32,59.91252771,628b806c463b948bc644b84f,6291ccdb1836baed11907b91,,,,,,,,,,,,,,,,,,,,,,,,,,,,,,,,,,,,,,,,,,,,,,,,,,,,,,,,,,,,,,,,,,,,,,,,,,,,,,,,,,,,,,,,,,,,gpgc,"[""g"",""p"",""g"",""c""]",0,"[2.58459999990464,5.697400000095399,6.769499999999994,7.5867999997138895,8.937199999809309]",0,GPGWKC,5,0,5,0,1,,
,,,,,,,,,5d3739be575c6c000151d88f,25,Kobieta,2022-05-28_09h20.05.964,task,2021.1.4,Win32,59.91252771,628b806c463b948bc644b84f,6291ccdb1836baed11907b91,,,,,,,,,,,,,,,,,,,,,,,,2,,,,,,,,,,Task,26,(2x9) - 16,2,,,,,,,,,,,,,,,,,,,1,,,,,,,,,,,,,,,,,,,,,,,"[""2""]",1,[1.8094000000953656],0,0,0,25,1,,,,,,,,,,,,,,,,,,
,,,,,,,,,5d3739be575c6c000151d88f,25,Kobieta,2022-05-28_09h20.05.964,task,2021.1.4,Win32,59.91252771,628b806c463b948bc644b84f,6291ccdb1836baed11907b91,,,,,,,,,,,"X V Q F H G B L J M P D K C T S W R N Z
",,,,,,,,,,,,,,,,,,,,,,,,,,,,,,,,,,,,,,,,,,,,,,,,,,,,,,,,,,,,,,,,,,,,,,,,,,,,0,0,0,0,1,,,,,,,,,,,,,
,,,,,,,,,5d3739be575c6c000151d88f,25,Kobieta,2022-05-28_09h20.05.964,task,2021.1.4,Win32,59.91252771,628b806c463b948bc644b84f,6291ccdb1836baed11907b91,,,,,,,,,,,,,,,,,,,,,,,,0,,,,,,,,,,Task,17,(2x3) - 6,0,,,,,,,,,,,,,,,,,,,1,,,,,,,,,,,,,,,,,,,,,,,"[""0""]",1,[2.0151999998092833],0,0,0,16,1,,,,,,,,,,,,,,,,,,
,,,,,,,,,5d3739be575c6c000151d88f,25,Kobieta,2022-05-28_09h20.05.964,task,2021.1.4,Win32,59.91252771,628b806c463b948bc644b84f,6291ccdb1836baed11907b91,,,,,,,,,,,"X V Q F H G B L J M P D K C T S W R N Z
",,,,,,,,,,,,,,,,,,,,,,,,,,,,,,,,,,,,,,,,,,,,,,,,,,,,,,,,,,,,,,,,,,,,,,,,,,,,1,0,1,0,1,,,,,,,,,,,,,
,,,,,,,,,5d3739be575c6c000151d88f,25,Kobieta,2022-05-28_09h20.05.964,task,2021.1.4,Win32,59.91252771,628b806c463b948bc644b84f,6291ccdb1836baed11907b91,,,,,,,,,,,,,,,,,,,,,,,,6,,,,,,,,,,Task,30,(6/3) + 4 ,6,,,,,,,,,,,,,,,,,,,1,,,,,,,,,,,,,,,,,,,,,,,"[""6""]",1,[3.7131999998092624],0,0,0,29,1,,,,,,,,,,,,,,,,,,
,,,,,,,,,5d3739be575c6c000151d88f,25,Kobieta,2022-05-28_09h20.05.964,task,2021.1.4,Win32,59.91252771,628b806c463b948bc644b84f,6291ccdb1836baed11907b91,,,,,,,,,,,"X V Q F H G B L J M P D K C T S W R N Z
",,,,,,,,,,,,,,,,,,,,,,,,,,,,,,,,,,,,,,,,,,,,,,,,,,,,,,,,,,,,,,,,,,,,,,,,,,,,2,0,2,0,1,,,,,,,,,,,,,
,,,,,,,,,5d3739be575c6c000151d88f,25,Kobieta,2022-05-28_09h20.05.964,task,2021.1.4,Win32,59.91252771,628b806c463b948bc644b84f,6291ccdb1836baed11907b91,,,,,,,,,,,,,,,,,,,,,,,,1,,,,,,,,,,Task,1,(12/6) - 1,1,,,,,,,,,,,,,,,,,,,1,,,,,,,,,,,,,,,,,,,,,,,"[""1""]",1,[2.9400000000000546],0,0,0,0,1,,,,,,,,,,,,,,,,,,
,,,,,,,,,5d3739be575c6c000151d88f,25,Kobieta,2022-05-28_09h20.05.964,task,2021.1.4,Win32,59.91252771,628b806c463b948bc644b84f,6291ccdb1836baed11907b91,,,,,,,,,,,"X V Q F H G B L J M P D K C T S W R N Z
",,,,,,,,,,,,,,,,,,,,,,,,,,,,,,,,,,,,,,,,,,,,,,,,,,,,,,,,,,,,,,,,,,,,,,,,,,,,3,0,3,0,1,,,,,,,,,,,,,
,,,,,,,,,5d3739be575c6c000151d88f,25,Kobieta,2022-05-28_09h20.05.964,task,2021.1.4,Win32,59.91252771,628b806c463b948bc644b84f,6291ccdb1836baed11907b91,,,,,,,,,,,,,,,,,,,,,,,,4,,,,,,,,,,Task,21,(10/2) - 1,4,,,,,,,,,,,,,,,,,,,1,,,,,,,,,,,,,,,,,,,,,,,"[""4""]",1,[2.0294999999999845],0,0,0,20,1,,,,,,,,,,,,,,,,,,
,,,,,,,,,5d3739be575c6c000151d88f,25,Kobieta,2022-05-28_09h20.05.964,task,2021.1.4,Win32,59.91252771,628b806c463b948bc644b84f,6291ccdb1836baed11907b91,,,,,,,,,,,"X V Q F H G B L J M P D K C T S W R N Z
