key_resp_15.keys,key_resp_15.rt,key_resp_13.keys,key_resp_13.corr,ranodm_loop.thisRepN,ranodm_loop.thisTrialN,ranodm_loop.thisN,ranodm_loop.thisIndex,ranodm_loop.ran,participant,Wiek*,Płeć,date,expName,psychopyVersion,OS,frameRate,study_id,session,key_resp_13.rt,key_resp_16.keys,key_resp_16.rt,key_resp_4.keys,key_resp_4.rt,next_letter.thisRepN,next_letter.thisTrialN,next_letter.thisN,next_letter.thisIndex,next_letter.ran,letter,simple_recall,key_resp_5.keys,key_resp_5.rt,simple_recall_corr,simple_recall_corrkeys,next_level.thisRepN,next_level.thisTrialN,next_level.thisN,next_level.thisIndex,next_level.ran,key_resp_2.keys,key_resp_2.rt,digit_answer,key_resp.keys,key_resp.corr,key_resp.rt,RT_list,next_equation.thisRepN,next_equation.thisTrialN,next_equation.thisN,next_equation.thisIndex,next_equation.ran,Task,Trial,Problem,Operation_answer,processing_score,sumRT,meanRT,sumdiff,sd,RT,key_resp_3.keys,key_resp_3.rt,repeat_practice.thisRepN,repeat_practice.thisTrialN,repeat_practice.thisN,repeat_practice.thisIndex,repeat_practice.ran,key_resp_6.keys,key_resp_6.rt,key_resp_11.keys,key_resp_11.corr,key_resp_11.rt,operation_correct,repeat_if_wrong_prac.thisRepN,repeat_if_wrong_prac.thisTrialN,repeat_if_wrong_prac.thisN,repeat_if_wrong_prac.thisIndex,repeat_if_wrong_prac.ran,span_size_prac.thisRepN,span_size_prac.thisTrialN,span_size_prac.thisN,span_size_prac.thisIndex,span_size_prac.ran,complex_recall_practice,key_resp_9.keys,key_resp_9.corr,key_resp_9.rt,complex_prac_corr,span_recall_prac.thisRepN,span_recall_prac.thisTrialN,span_recall_prac.thisN,span_recall_prac.thisIndex,span_recall_prac.ran,key_resp_10.keys,key_resp_10.rt,key_resp_7.keys,key_resp_7.corr,key_resp_7.rt,repeat_if_wrong.thisRepN,repeat_if_wrong.thisTrialN,repeat_if_wrong.thisN,repeat_if_wrong.thisIndex,repeat_if_wrong.ran,span_size.thisRepN,span_size.thisTrialN,span_size.thisN,span_size.thisIndex,span_size.ran,complex_recall,key_resp_8.keys,key_resp_8.corr,key_resp_8.rt,complex_recall_corr,complex_recall_corrkeys,span_recall.thisRepN,span_recall.thisTrialN,span_recall.thisN,span_recall.thisIndex,span_recall.ran,key_resp_12.keys,key_resp_12.rt
space,36.3093,,0,0,0,0,0,1,5d39c0babc321100010a4526,31,Kobieta,2022-05-28_09h30.59.837,task,2021.1.4,Win32,60.15761295,628b806c463b948bc644b84f,6291cf9d9bf969ddb5b754fd,,,,,,,,,,,,,,,,,,,,,,,,,,,,,,,,,,,,,,,,,,,,,,,,,,,,,,,,,,,,,,,,,,,,,,,,,,,,,,,,,,,,,,,,,,,,,,,,,,,,,,,,
,,"[""period""]",0,1,0,1,0,1,5d39c0babc321100010a4526,31,Kobieta,2022-05-28_09h30.59.837,task,2021.1.4,Win32,60.15761295,628b806c463b948bc644b84f,6291cf9d9bf969ddb5b754fd,[0.2595999999940375],,,,,,,,,,,,,,,,,,,,,,,,,,,,,,,,,,,,,,,,,,,,,,,,,,,,,,,,,,,,,,,,,,,,,,,,,,,,,,,,,,,,,,,,,,,,,,,,,,,,,,,
,,"[""period""]",0,2,0,2,0,1,5d39c0babc321100010a4526,31,Kobieta,2022-05-28_09h30.59.837,task,2021.1.4,Win32,60.15761295,628b806c463b948bc644b84f,6291cf9d9bf969ddb5b754fd,[0.3094000000059509],,,,,,,,,,,,,,,,,,,,,,,,,,,,,,,,,,,,,,,,,,,,,,,,,,,,,,,,,,,,,,,,,,,,,,,,,,,,,,,,,,,,,,,,,,,,,,,,,,,,,,,
,,"[""comma""]",0,3,0,3,0,1,5d39c0babc321100010a4526,31,Kobieta,2022-05-28_09h30.59.837,task,2021.1.4,Win32,60.15761295,628b806c463b948bc644b84f,6291cf9d9bf969ddb5b754fd,[0.33659999999403567],,,,,,,,,,,,,,,,,,,,,,,,,,,,,,,,,,,,,,,,,,,,,,,,,,,,,,,,,,,,,,,,,,,,,,,,,,,,,,,,,,,,,,,,,,,,,,,,,,,,,,,
,,"[""period""]",0,4,0,4,0,1,5d39c0babc321100010a4526,31,Kobieta,2022-05-28_09h30.59.837,task,2021.1.4,Win32,60.15761295,628b806c463b948bc644b84f,6291cf9d9bf969ddb5b754fd,[0.25640000000596785],,,,,,,,,,,,,,,,,,,,,,,,,,,,,,,,,,,,,,,,,,,,,,,,,,,,,,,,,,,,,,,,,,,,,,,,,,,,,,,,,,,,,,,,,,,,,,,,,,,,,,,
,,"[""comma""]",0,5,0,5,0,1,5d39c0babc321100010a4526,31,Kobieta,2022-05-28_09h30.59.837,task,2021.1.4,Win32,60.15761295,628b806c463b948bc644b84f,6291cf9d9bf969ddb5b754fd,[0.27010000002384515],,,,,,,,,,,,,,,,,,,,,,,,,,,,,,,,,,,,,,,,,,,,,,,,,,,,,,,,,,,,,,,,,,,,,,,,,,,,,,,,,,,,,,,,,,,,,,,,,,,,,,,
,,"[""comma""]",0,6,0,6,0,1,5d39c0babc321100010a4526,31,Kobieta,2022-05-28_09h30.59.837,task,2021.1.4,Win32,60.15761295,628b806c463b948bc644b84f,6291cf9d9bf969ddb5b754fd,[0.2550999999940444],,,,,,,,,,,,,,,,,,,,,,,,,,,,,,,,,,,,,,,,,,,,,,,,,,,,,,,,,,,,,,,,,,,,,,,,,,,,,,,,,,,,,,,,,,,,,,,,,,,,,,,
,,"[""comma""]",0,7,0,7,0,1,5d39c0babc321100010a4526,31,Kobieta,2022-05-28_09h30.59.837,task,2021.1.4,Win32,60.15761295,628b806c463b948bc644b84f,6291cf9d9bf969ddb5b754fd,[0.2511000000238397],,,,,,,,,,,,,,,,,,,,,,,,,,,,,,,,,,,,,,,,,,,,,,,,,,,,,,,,,,,,,,,,,,,,,,,,,,,,,,,,,,,,,,,,,,,,,,,,,,,,,,,
,,"[""period""]",0,8,0,8,0,1,5d39c0babc321100010a4526,31,Kobieta,2022-05-28_09h30.59.837,task,2021.1.4,Win32,60.15761295,628b806c463b948bc644b84f,6291cf9d9bf969ddb5b754fd,[0.23819999998808328],,,,,,,,,,,,,,,,,,,,,,,,,,,,,,,,,,,,,,,,,,,,,,,,,,,,,,,,,,,,,,,,,,,,,,,,,,,,,,,,,,,,,,,,,,,,,,,,,,,,,,,
,,"[""comma""]",0,9,0,9,0,1,5d39c0babc321100010a4526,31,Kobieta,2022-05-28_09h30.59.837,task,2021.1.4,Win32,60.15761295,628b806c463b948bc644b84f,6291cf9d9bf969ddb5b754fd,[0.23319999998807361],,,,,,,,,,,,,,,,,,,,,,,,,,,,,,,,,,,,,,,,,,,,,,,,,,,,,,,,,,,,,,,,,,,,,,,,,,,,,,,,,,,,,,,,,,,,,,,,,,,,,,,
,,"[""period""]",0,10,0,10,0,1,5d39c0babc321100010a4526,31,Kobieta,2022-05-28_09h30.59.837,task,2021.1.4,Win32,60.15761295,628b806c463b948bc644b84f,6291cf9d9bf969ddb5b754fd,[0.21800000000000352],,,,,,,,,,,,,,,,,,,,,,,,,,,,,,,,,,,,,,,,,,,,,,,,,,,,,,,,,,,,,,,,,,,,,,,,,,,,,,,,,,,,,,,,,,,,,,,,,,,,,,,
,,"[""comma""]",0,11,0,11,0,1,5d39c0babc321100010a4526,31,Kobieta,2022-05-28_09h30.59.837,task,2021.1.4,Win32,60.15761295,628b806c463b948bc644b84f,6291cf9d9bf969ddb5b754fd,[0.2895999999940386],,,,,,,,,,,,,,,,,,,,,,,,,,,,,,,,,,,,,,,,,,,,,,,,,,,,,,,,,,,,,,,,,,,,,,,,,,,,,,,,,,,,,,,,,,,,,,,,,,,,,,,
,,"[""comma""]",0,12,0,12,0,1,5d39c0babc321100010a4526,31,Kobieta,2022-05-28_09h30.59.837,task,2021.1.4,Win32,60.15761295,628b806c463b948bc644b84f,6291cf9d9bf969ddb5b754fd,[0.2505000000000024],,,,,,,,,,,,,,,,,,,,,,,,,,,,,,,,,,,,,,,,,,,,,,,,,,,,,,,,,,,,,,,,,,,,,,,,,,,,,,,,,,,,,,,,,,,,,,,,,,,,,,,
,,"[""comma""]",0,13,0,13,0,1,5d39c0babc321100010a4526,31,Kobieta,2022-05-28_09h30.59.837,task,2021.1.4,Win32,60.15761295,628b806c463b948bc644b84f,6291cf9d9bf969ddb5b754fd,[0.2348000000119299],,,,,,,,,,,,,,,,,,,,,,,,,,,,,,,,,,,,,,,,,,,,,,,,,,,,,,,,,,,,,,,,,,,,,,,,,,,,,,,,,,,,,,,,,,,,,,,,,,,,,,,
,,"[""period""]",0,14,0,14,0,1,5d39c0babc321100010a4526,31,Kobieta,2022-05-28_09h30.59.837,task,2021.1.4,Win32,60.15761295,628b806c463b948bc644b84f,6291cf9d9bf969ddb5b754fd,[0.16699999999998738],,,,,,,,,,,,,,,,,,,,,,,,,,,,,,,,,,,,,,,,,,,,,,,,,,,,,,,,,,,,,,,,,,,,,,,,,,,,,,,,,,,,,,,,,,,,,,,,,,,,,,,
,,"[""period""]",0,15,0,15,0,1,5d39c0babc321100010a4526,31,Kobieta,2022-05-28_09h30.59.837,task,2021.1.4,Win32,60.15761295,628b806c463b948bc644b84f,6291cf9d9bf969ddb5b754fd,[0.20629999998212156],,,,,,,,,,,,,,,,,,,,,,,,,,,,,,,,,,,,,,,,,,,,,,,,,,,,,,,,,,,,,,,,,,,,,,,,,,,,,,,,,,,,,,,,,,,,,,,,,,,,,,,
,,"[""comma""]",0,16,0,16,0,1,5d39c0babc321100010a4526,31,Kobieta,2022-05-28_09h30.59.837,task,2021.1.4,Win32,60.15761295,628b806c463b948bc644b84f,6291cf9d9bf969ddb5b754fd,[0.22269999998808032],,,,,,,,,,,,,,,,,,,,,,,,,,,,,,,,,,,,,,,,,,,,,,,,,,,,,,,,,,,,,,,,,,,,,,,,,,,,,,,,,,,,,,,,,,,,,,,,,,,,,,,
,,"[""period""]",0,17,0,17,0,1,5d39c0babc321100010a4526,31,Kobieta,2022-05-28_09h30.59.837,task,2021.1.4,Win32,60.15761295,628b806c463b948bc644b84f,6291cf9d9bf969ddb5b754fd,[0.2404000000059625],,,,,,,,,,,,,,,,,,,,,,,,,,,,,,,,,,,,,,,,,,,,,,,,,,,,,,,,,,,,,,,,,,,,,,,,,,,,,,,,,,,,,,,,,,,,,,,,,,,,,,,
,,"[""comma""]",0,18,0,18,0,1,5d39c0babc321100010a4526,31,Kobieta,2022-05-28_09h30.59.837,task,2021.1.4,Win32,60.15761295,628b806c463b948bc644b84f,6291cf9d9bf969ddb5b754fd,[0.21750000000000114],,,,,,,,,,,,,,,,,,,,,,,,,,,,,,,,,,,,,,,,,,,,,,,,,,,,,,,,,,,,,,,,,,,,,,,,,,,,,,,,,,,,,,,,,,,,,,,,,,,,,,,
,,"[""period""]",0,19,0,19,0,1,5d39c0babc321100010a4526,31,Kobieta,2022-05-28_09h30.59.837,task,2021.1.4,Win32,60.15761295,628b806c463b948bc644b84f,6291cf9d9bf969ddb5b754fd,[0.13420000001788424],,,,,,,,,,,,,,,,,,,,,,,,,,,,,,,,,,,,,,,,,,,,,,,,,,,,,,,,,,,,,,,,,,,,,,,,,,,,,,,,,,,,,,,,,,,,,,,,,,,,,,,
,,"[""period""]",0,20,0,20,0,1,5d39c0babc321100010a4526,31,Kobieta,2022-05-28_09h30.59.837,task,2021.1.4,Win32,60.15761295,628b806c463b948bc644b84f,6291cf9d9bf969ddb5b754fd,[0.22889999997615007],,,,,,,,,,,,,,,,,,,,,,,,,,,,,,,,,,,,,,,,,,,,,,,,,,,,,,,,,,,,,,,,,,,,,,,,,,,,,,,,,,,,,,,,,,,,,,,,,,,,,,,
,,"[""period""]",0,21,0,21,0,1,5d39c0babc321100010a4526,31,Kobieta,2022-05-28_09h30.59.837,task,2021.1.4,Win32,60.15761295,628b806c463b948bc644b84f,6291cf9d9bf969ddb5b754fd,[0.2110999999940475],,,,,,,,,,,,,,,,,,,,,,,,,,,,,,,,,,,,,,,,,,,,,,,,,,,,,,,,,,,,,,,,,,,,,,,,,,,,,,,,,,,,,,,,,,,,,,,,,,,,,,,
,,"[""period""]",0,22,0,22,0,1,5d39c0babc321100010a4526,31,Kobieta,2022-05-28_09h30.59.837,task,2021.1.4,Win32,60.15761295,628b806c463b948bc644b84f,6291cf9d9bf969ddb5b754fd,[0.23919999998807384],,,,,,,,,,,,,,,,,,,,,,,,,,,,,,,,,,,,,,,,,,,,,,,,,,,,,,,,,,,,,,,,,,,,,,,,,,,,,,,,,,,,,,,,,,,,,,,,,,,,,,,
,,"[""comma"",""period""]",0,23,0,23,0,1,5d39c0babc321100010a4526,31,Kobieta,2022-05-28_09h30.59.837,task,2021.1.4,Win32,60.15761295,628b806c463b948bc644b84f,6291cf9d9bf969ddb5b754fd,"[0.3197000000178889,1.9340999999940323]",,,,,,,,,,,,,,,,,,,,,,,,,,,,,,,,,,,,,,,,,,,,,,,,,,,,,,,,,,,,,,,,,,,,,,,,,,,,,,,,,,,,,,,,,,,,,,,,,,,,,,,
,,"[""period""]",0,24,0,24,0,1,5d39c0babc321100010a4526,31,Kobieta,2022-05-28_09h30.59.837,task,2021.1.4,Win32,60.15761295,628b806c463b948bc644b84f,6291cf9d9bf969ddb5b754fd,[0.6167000000178859],,,,,,,,,,,,,,,,,,,,,,,,,,,,,,,,,,,,,,,,,,,,,,,,,,,,,,,,,,,,,,,,,,,,,,,,,,,,,,,,,,,,,,,,,,,,,,,,,,,,,,,
,,"[""period""]",0,25,0,25,0,1,5d39c0babc321100010a4526,31,Kobieta,2022-05-28_09h30.59.837,task,2021.1.4,Win32,60.15761295,628b806c463b948bc644b84f,6291cf9d9bf969ddb5b754fd,[0.25019999998809794],,,,,,,,,,,,,,,,,,,,,,,,,,,,,,,,,,,,,,,,,,,,,,,,,,,,,,,,,,,,,,,,,,,,,,,,,,,,,,,,,,,,,,,,,,,,,,,,,,,,,,,
,,"[""period""]",0,26,0,26,0,1,5d39c0babc321100010a4526,31,Kobieta,2022-05-28_09h30.59.837,task,2021.1.4,Win32,60.15761295,628b806c463b948bc644b84f,6291cf9d9bf969ddb5b754fd,[0.2777999999821077],,,,,,,,,,,,,,,,,,,,,,,,,,,,,,,,,,,,,,,,,,,,,,,,,,,,,,,,,,,,,,,,,,,,,,,,,,,,,,,,,,,,,,,,,,,,,,,,,,,,,,,
,,"[""comma""]",0,27,0,27,0,1,5d39c0babc321100010a4526,31,Kobieta,2022-05-28_09h30.59.837,task,2021.1.4,Win32,60.15761295,628b806c463b948bc644b84f,6291cf9d9bf969ddb5b754fd,[0.31800000000001205],,,,,,,,,,,,,,,,,,,,,,,,,,,,,,,,,,,,,,,,,,,,,,,,,,,,,,,,,,,,,,,,,,,,,,,,,,,,,,,,,,,,,,,,,,,,,,,,,,,,,,,
,,"[""comma""]",0,28,0,28,0,1,5d39c0babc321100010a4526,31,Kobieta,2022-05-28_09h30.59.837,task,2021.1.4,Win32,60.15761295,628b806c463b948bc644b84f,6291cf9d9bf969ddb5b754fd,[0.30100000000001614],,,,,,,,,,,,,,,,,,,,,,,,,,,,,,,,,,,,,,,,,,,,,,,,,,,,,,,,,,,,,,,,,,,,,,,,,,,,,,,,,,,,,,,,,,,,,,,,,,,,,,,
,,"[""comma""]",0,29,0,29,0,1,5d39c0babc321100010a4526,31,Kobieta,2022-05-28_09h30.59.837,task,2021.1.4,Win32,60.15761295,628b806c463b948bc644b84f,6291cf9d9bf969ddb5b754fd,[0.3306999999880986],,,,,,,,,,,,,,,,,,,,,,,,,,,,,,,,,,,,,,,,,,,,,,,,,,,,,,,,,,,,,,,,,,,,,,,,,,,,,,,,,,,,,,,,,,,,,,,,,,,,,,,
,,"[""period""]",0,30,0,30,0,1,5d39c0babc321100010a4526,31,Kobieta,2022-05-28_09h30.59.837,task,2021.1.4,Win32,60.15761295,628b806c463b948bc644b84f,6291cf9d9bf969ddb5b754fd,[0.3355999999940593],,,,,,,,,,,,,,,,,,,,,,,,,,,,,,,,,,,,,,,,,,,,,,,,,,,,,,,,,,,,,,,,,,,,,,,,,,,,,,,,,,,,,,,,,,,,,,,,,,,,,,,
,,"[""period""]",0,31,0,31,0,1,5d39c0babc321100010a4526,31,Kobieta,2022-05-28_09h30.59.837,task,2021.1.4,Win32,60.15761295,628b806c463b948bc644b84f,6291cf9d9bf969ddb5b754fd,[0.3266999999880795],,,,,,,,,,,,,,,,,,,,,,,,,,,,,,,,,,,,,,,,,,,,,,,,,,,,,,,,,,,,,,,,,,,,,,,,,,,,,,,,,,,,,,,,,,,,,,,,,,,,,,,
,,"[""comma""]",0,32,0,32,0,1,5d39c0babc321100010a4526,31,Kobieta,2022-05-28_09h30.59.837,task,2021.1.4,Win32,60.15761295,628b806c463b948bc644b84f,6291cf9d9bf969ddb5b754fd,[0.2514000000059582],,,,,,,,,,,,,,,,,,,,,,,,,,,,,,,,,,,,,,,,,,,,,,,,,,,,,,,,,,,,,,,,,,,,,,,,,,,,,,,,,,,,,,,,,,,,,,,,,,,,,,,
,,"[""period""]",0,33,0,33,0,1,5d39c0babc321100010a4526,31,Kobieta,2022-05-28_09h30.59.837,task,2021.1.4,Win32,60.15761295,628b806c463b948bc644b84f,6291cf9d9bf969ddb5b754fd,[0.23430000001192752],,,,,,,,,,,,,,,,,,,,,,,,,,,,,,,,,,,,,,,,,,,,,,,,,,,,,,,,,,,,,,,,,,,,,,,,,,,,,,,,,,,,,,,,,,,,,,,,,,,,,,,
,,"[""comma""]",0,34,0,34,0,1,5d39c0babc321100010a4526,31,Kobieta,2022-05-28_09h30.59.837,task,2021.1.4,Win32,60.15761295,628b806c463b948bc644b84f,6291cf9d9bf969ddb5b754fd,[0.3174000000059607],,,,,,,,,,,,,,,,,,,,,,,,,,,,,,,,,,,,,,,,,,,,,,,,,,,,,,,,,,,,,,,,,,,,,,,,,,,,,,,,,,,,,,,,,,,,,,,,,,,,,,,
,,"[""comma""]",0,35,0,35,0,1,5d39c0babc321100010a4526,31,Kobieta,2022-05-28_09h30.59.837,task,2021.1.4,Win32,60.15761295,628b806c463b948bc644b84f,6291cf9d9bf969ddb5b754fd,[0.4346000000238348],,,,,,,,,,,,,,,,,,,,,,,,,,,,,,,,,,,,,,,,,,,,,,,,,,,,,,,,,,,,,,,,,,,,,,,,,,,,,,,,,,,,,,,,,,,,,,,,,,,,,,,
,,"[""period""]",0,36,0,36,0,1,5d39c0babc321100010a4526,31,Kobieta,2022-05-28_09h30.59.837,task,2021.1.4,Win32,60.15761295,628b806c463b948bc644b84f,6291cf9d9bf969ddb5b754fd,[0.27009999999401657],,,,,,,,,,,,,,,,,,,,,,,,,,,,,,,,,,,,,,,,,,,,,,,,,,,,,,,,,,,,,,,,,,,,,,,,,,,,,,,,,,,,,,,,,,,,,,,,,,,,,,,
,,"[""comma""]",0,37,0,37,0,1,5d39c0babc321100010a4526,31,Kobieta,2022-05-28_09h30.59.837,task,2021.1.4,Win32,60.15761295,628b806c463b948bc644b84f,6291cf9d9bf969ddb5b754fd,[0.33430000001192184],,,,,,,,,,,,,,,,,,,,,,,,,,,,,,,,,,,,,,,,,,,,,,,,,,,,,,,,,,,,,,,,,,,,,,,,,,,,,,,,,,,,,,,,,,,,,,,,,,,,,,,
,,"[""period""]",0,38,0,38,0,1,5d39c0babc321100010a4526,31,Kobieta,2022-05-28_09h30.59.837,task,2021.1.4,Win32,60.15761295,628b806c463b948bc644b84f,6291cf9d9bf969ddb5b754fd,[0.26009999999402567],,,,,,,,,,,,,,,,,,,,,,,,,,,,,,,,,,,,,,,,,,,,,,,,,,,,,,,,,,,,,,,,,,,,,,,,,,,,,,,,,,,,,,,,,,,,,,,,,,,,,,,
,,"[""comma""]",0,39,0,39,0,1,5d39c0babc321100010a4526,31,Kobieta,2022-05-28_09h30.59.837,task,2021.1.4,Win32,60.15761295,628b806c463b948bc644b84f,6291cf9d9bf969ddb5b754fd,[0.2884999999999991],,,,,,,,,,,,,,,,,,,,,,,,,,,,,,,,,,,,,,,,,,,,,,,,,,,,,,,,,,,,,,,,,,,,,,,,,,,,,,,,,,,,,,,,,,,,,,,,,,,,,,,
,,"[""comma""]",0,40,0,40,0,1,5d39c0babc321100010a4526,31,Kobieta,2022-05-28_09h30.59.837,task,2021.1.4,Win32,60.15761295,628b806c463b948bc644b84f,6291cf9d9bf969ddb5b754fd,[0.2675000000000125],,,,,,,,,,,,,,,,,,,,,,,,,,,,,,,,,,,,,,,,,,,,,,,,,,,,,,,,,,,,,,,,,,,,,,,,,,,,,,,,,,,,,,,,,,,,,,,,,,,,,,,
,,"[""comma""]",0,41,0,41,0,1,5d39c0babc321100010a4526,31,Kobieta,2022-05-28_09h30.59.837,task,2021.1.4,Win32,60.15761295,628b806c463b948bc644b84f,6291cf9d9bf969ddb5b754fd,[0.2847000000178639],,,,,,,,,,,,,,,,,,,,,,,,,,,,,,,,,,,,,,,,,,,,,,,,,,,,,,,,,,,,,,,,,,,,,,,,,,,,,,,,,,,,,,,,,,,,,,,,,,,,,,,
,,"[""comma""]",0,42,0,42,0,1,5d39c0babc321100010a4526,31,Kobieta,2022-05-28_09h30.59.837,task,2021.1.4,Win32,60.15761295,628b806c463b948bc644b84f,6291cf9d9bf969ddb5b754fd,[0.3222000000178582],,,,,,,,,,,,,,,,,,,,,,,,,,,,,,,,,,,,,,,,,,,,,,,,,,,,,,,,,,,,,,,,,,,,,,,,,,,,,,,,,,,,,,,,,,,,,,,,,,,,,,,
,,"[""period""]",0,43,0,43,0,1,5d39c0babc321100010a4526,31,Kobieta,2022-05-28_09h30.59.837,task,2021.1.4,Win32,60.15761295,628b806c463b948bc644b84f,6291cf9d9bf969ddb5b754fd,[0.2539000000059559],,,,,,,,,,,,,,,,,,,,,,,,,,,,,,,,,,,,,,,,,,,,,,,,,,,,,,,,,,,,,,,,,,,,,,,,,,,,,,,,,,,,,,,,,,,,,,,,,,,,,,,
,,"[""comma""]",0,44,0,44,0,1,5d39c0babc321100010a4526,31,Kobieta,2022-05-28_09h30.59.837,task,2021.1.4,Win32,60.15761295,628b806c463b948bc644b84f,6291cf9d9bf969ddb5b754fd,[0.29530000001190615],,,,,,,,,,,,,,,,,,,,,,,,,,,,,,,,,,,,,,,,,,,,,,,,,,,,,,,,,,,,,,,,,,,,,,,,,,,,,,,,,,,,,,,,,,,,,,,,,,,,,,,
,,"[""comma""]",0,45,0,45,0,1,5d39c0babc321100010a4526,31,Kobieta,2022-05-28_09h30.59.837,task,2021.1.4,Win32,60.15761295,628b806c463b948bc644b84f,6291cf9d9bf969ddb5b754fd,[0.3505999999940457],,,,,,,,,,,,,,,,,,,,,,,,,,,,,,,,,,,,,,,,,,,,,,,,,,,,,,,,,,,,,,,,,,,,,,,,,,,,,,,,,,,,,,,,,,,,,,,,,,,,,,,
,,"[""comma""]",0,46,0,46,0,1,5d39c0babc321100010a4526,31,Kobieta,2022-05-28_09h30.59.837,task,2021.1.4,Win32,60.15761295,628b806c463b948bc644b84f,6291cf9d9bf969ddb5b754fd,[0.3342000000178871],,,,,,,,,,,,,,,,,,,,,,,,,,,,,,,,,,,,,,,,,,,,,,,,,,,,,,,,,,,,,,,,,,,,,,,,,,,,,,,,,,,,,,,,,,,,,,,,,,,,,,,
,,"[""period""]",0,47,0,47,0,1,5d39c0babc321100010a4526,31,Kobieta,2022-05-28_09h30.59.837,task,2021.1.4,Win32,60.15761295,628b806c463b948bc644b84f,6291cf9d9bf969ddb5b754fd,[0.27949999999998454],,,,,,,,,,,,,,,,,,,,,,,,,,,,,,,,,,,,,,,,,,,,,,,,,,,,,,,,,,,,,,,,,,,,,,,,,,,,,,,,,,,,,,,,,,,,,,,,,,,,,,,
,,"[""period""]",0,48,0,48,0,1,5d39c0babc321100010a4526,31,Kobieta,2022-05-28_09h30.59.837,task,2021.1.4,Win32,60.15761295,628b806c463b948bc644b84f,6291cf9d9bf969ddb5b754fd,[0.33430000001192184],,,,,,,,,,,,,,,,,,,,,,,,,,,,,,,,,,,,,,,,,,,,,,,,,,,,,,,,,,,,,,,,,,,,,,,,,,,,,,,,,,,,,,,,,,,,,,,,,,,,,,,
,,"[""period""]",0,49,0,49,0,1,5d39c0babc321100010a4526,31,Kobieta,2022-05-28_09h30.59.837,task,2021.1.4,Win32,60.15761295,628b806c463b948bc644b84f,6291cf9d9bf969ddb5b754fd,[0.3101999999880718],,,,,,,,,,,,,,,,,,,,,,,,,,,,,,,,,,,,,,,,,,,,,,,,,,,,,,,,,,,,,,,,,,,,,,,,,,,,,,,,,,,,,,,,,,,,,,,,,,,,,,,
,,"[""comma""]",0,50,0,50,0,1,5d39c0babc321100010a4526,31,Kobieta,2022-05-28_09h30.59.837,task,2021.1.4,Win32,60.15761295,628b806c463b948bc644b84f,6291cf9d9bf969ddb5b754fd,[0.3239000000059775],,,,,,,,,,,,,,,,,,,,,,,,,,,,,,,,,,,,,,,,,,,,,,,,,,,,,,,,,,,,,,,,,,,,,,,,,,,,,,,,,,,,,,,,,,,,,,,,,,,,,,,
,,"[""period""]",0,51,0,51,0,1,5d39c0babc321100010a4526,31,Kobieta,2022-05-28_09h30.59.837,task,2021.1.4,Win32,60.15761295,628b806c463b948bc644b84f,6291cf9d9bf969ddb5b754fd,[0.26220000001788435],,,,,,,,,,,,,,,,,,,,,,,,,,,,,,,,,,,,,,,,,,,,,,,,,,,,,,,,,,,,,,,,,,,,,,,,,,,,,,,,,,,,,,,,,,,,,,,,,,,,,,,
,,"[""comma""]",0,52,0,52,0,1,5d39c0babc321100010a4526,31,Kobieta,2022-05-28_09h30.59.837,task,2021.1.4,Win32,60.15761295,628b806c463b948bc644b84f,6291cf9d9bf969ddb5b754fd,[0.5373000000119248],,,,,,,,,,,,,,,,,,,,,,,,,,,,,,,,,,,,,,,,,,,,,,,,,,,,,,,,,,,,,,,,,,,,,,,,,,,,,,,,,,,,,,,,,,,,,,,,,,,,,,,
,,"[""period""]",0,53,0,53,0,1,5d39c0babc321100010a4526,31,Kobieta,2022-05-28_09h30.59.837,task,2021.1.4,Win32,60.15761295,628b806c463b948bc644b84f,6291cf9d9bf969ddb5b754fd,[0.23980000001193957],,,,,,,,,,,,,,,,,,,,,,,,,,,,,,,,,,,,,,,,,,,,,,,,,,,,,,,,,,,,,,,,,,,,,,,,,,,,,,,,,,,,,,,,,,,,,,,,,,,,,,,
,,"[""comma""]",0,54,0,54,0,1,5d39c0babc321100010a4526,31,Kobieta,2022-05-28_09h30.59.837,task,2021.1.4,Win32,60.15761295,628b806c463b948bc644b84f,6291cf9d9bf969ddb5b754fd,[0.3444000000059475],,,,,,,,,,,,,,,,,,,,,,,,,,,,,,,,,,,,,,,,,,,,,,,,,,,,,,,,,,,,,,,,,,,,,,,,,,,,,,,,,,,,,,,,,,,,,,,,,,,,,,,
,,"[""comma""]",0,55,0,55,0,1,5d39c0babc321100010a4526,31,Kobieta,2022-05-28_09h30.59.837,task,2021.1.4,Win32,60.15761295,628b806c463b948bc644b84f,6291cf9d9bf969ddb5b754fd,[0.3678000000119255],,,,,,,,,,,,,,,,,,,,,,,,,,,,,,,,,,,,,,,,,,,,,,,,,,,,,,,,,,,,,,,,,,,,,,,,,,,,,,,,,,,,,,,,,,,,,,,,,,,,,,,
,,"[""period""]",0,56,0,56,0,1,5d39c0babc321100010a4526,31,Kobieta,2022-05-28_09h30.59.837,task,2021.1.4,Win32,60.15761295,628b806c463b948bc644b84f,6291cf9d9bf969ddb5b754fd,[0.25090000000597],,,,,,,,,,,,,,,,,,,,,,,,,,,,,,,,,,,,,,,,,,,,,,,,,,,,,,,,,,,,,,,,,,,,,,,,,,,,,,,,,,,,,,,,,,,,,,,,,,,,,,,
,,"[""period""]",0,57,0,57,0,1,5d39c0babc321100010a4526,31,Kobieta,2022-05-28_09h30.59.837,task,2021.1.4,Win32,60.15761295,628b806c463b948bc644b84f,6291cf9d9bf969ddb5b754fd,[0.29999999999998295],,,,,,,,,,,,,,,,,,,,,,,,,,,,,,,,,,,,,,,,,,,,,,,,,,,,,,,,,,,,,,,,,,,,,,,,,,,,,,,,,,,,,,,,,,,,,,,,,,,,,,,
,,"[""comma""]",0,58,0,58,0,1,5d39c0babc321100010a4526,31,Kobieta,2022-05-28_09h30.59.837,task,2021.1.4,Win32,60.15761295,628b806c463b948bc644b84f,6291cf9d9bf969ddb5b754fd,[0.396000000000015],,,,,,,,,,,,,,,,,,,,,,,,,,,,,,,,,,,,,,,,,,,,,,,,,,,,,,,,,,,,,,,,,,,,,,,,,,,,,,,,,,,,,,,,,,,,,,,,,,,,,,,
,,"[""period""]",0,59,0,59,0,1,5d39c0babc321100010a4526,31,Kobieta,2022-05-28_09h30.59.837,task,2021.1.4,Win32,60.15761295,628b806c463b948bc644b84f,6291cf9d9bf969ddb5b754fd,[0.2677999999821168],,,,,,,,,,,,,,,,,,,,,,,,,,,,,,,,,,,,,,,,,,,,,,,,,,,,,,,,,,,,,,,,,,,,,,,,,,,,,,,,,,,,,,,,,,,,,,,,,,,,,,,
,,"[""period""]",0,60,0,60,0,1,5d39c0babc321100010a4526,31,Kobieta,2022-05-28_09h30.59.837,task,2021.1.4,Win32,60.15761295,628b806c463b948bc644b84f,6291cf9d9bf969ddb5b754fd,[0.30299999999999727],,,,,,,,,,,,,,,,,,,,,,,,,,,,,,,,,,,,,,,,,,,,,,,,,,,,,,,,,,,,,,,,,,,,,,,,,,,,,,,,,,,,,,,,,,,,,,,,,,,,,,,
,,"[""period""]",0,61,0,61,0,1,5d39c0babc321100010a4526,31,Kobieta,2022-05-28_09h30.59.837,task,2021.1.4,Win32,60.15761295,628b806c463b948bc644b84f,6291cf9d9bf969ddb5b754fd,[0.3340000000000032],,,,,,,,,,,,,,,,,,,,,,,,,,,,,,,,,,,,,,,,,,,,,,,,,,,,,,,,,,,,,,,,,,,,,,,,,,,,,,,,,,,,,,,,,,,,,,,,,,,,,,,
,,"[""comma""]",0,62,0,62,0,1,5d39c0babc321100010a4526,31,Kobieta,2022-05-28_09h30.59.837,task,2021.1.4,Win32,60.15761295,628b806c463b948bc644b84f,6291cf9d9bf969ddb5b754fd,[0.3731999999880884],,,,,,,,,,,,,,,,,,,,,,,,,,,,,,,,,,,,,,,,,,,,,,,,,,,,,,,,,,,,,,,,,,,,,,,,,,,,,,,,,,,,,,,,,,,,,,,,,,,,,,,
,,"[""comma""]",0,63,0,63,0,1,5d39c0babc321100010a4526,31,Kobieta,2022-05-28_09h30.59.837,task,2021.1.4,Win32,60.15761295,628b806c463b948bc644b84f,6291cf9d9bf969ddb5b754fd,[0.28999999999999204],,,,,,,,,,,,,,,,,,,,,,,,,,,,,,,,,,,,,,,,,,,,,,,,,,,,,,,,,,,,,,,,,,,,,,,,,,,,,,,,,,,,,,,,,,,,,,,,,,,,,,,
,,"[""period""]",0,64,0,64,0,1,5d39c0babc321100010a4526,31,Kobieta,2022-05-28_09h30.59.837,task,2021.1.4,Win32,60.15761295,628b806c463b948bc644b84f,6291cf9d9bf969ddb5b754fd,[0.2540000000000191],,,,,,,,,,,,,,,,,,,,,,,,,,,,,,,,,,,,,,,,,,,,,,,,,,,,,,,,,,,,,,,,,,,,,,,,,,,,,,,,,,,,,,,,,,,,,,,,,,,,,,,
,,"[""comma""]",0,65,0,65,0,1,5d39c0babc321100010a4526,31,Kobieta,2022-05-28_09h30.59.837,task,2021.1.4,Win32,60.15761295,628b806c463b948bc644b84f,6291cf9d9bf969ddb5b754fd,[0.2765999999940334],,,,,,,,,,,,,,,,,,,,,,,,,,,,,,,,,,,,,,,,,,,,,,,,,,,,,,,,,,,,,,,,,,,,,,,,,,,,,,,,,,,,,,,,,,,,,,,,,,,,,,,
,,"[""period""]",0,66,0,66,0,1,5d39c0babc321100010a4526,31,Kobieta,2022-05-28_09h30.59.837,task,2021.1.4,Win32,60.15761295,628b806c463b948bc644b84f,6291cf9d9bf969ddb5b754fd,[0.27780000001192207],,,,,,,,,,,,,,,,,,,,,,,,,,,,,,,,,,,,,,,,,,,,,,,,,,,,,,,,,,,,,,,,,,,,,,,,,,,,,,,,,,,,,,,,,,,,,,,,,,,,,,,
,,"[""period""]",0,67,0,67,0,1,5d39c0babc321100010a4526,31,Kobieta,2022-05-28_09h30.59.837,task,2021.1.4,Win32,60.15761295,628b806c463b948bc644b84f,6291cf9d9bf969ddb5b754fd,[0.34149999999999636],,,,,,,,,,,,,,,,,,,,,,,,,,,,,,,,,,,,,,,,,,,,,,,,,,,,,,,,,,,,,,,,,,,,,,,,,,,,,,,,,,,,,,,,,,,,,,,,,,,,,,,
,,"[""period""]",0,68,0,68,0,1,5d39c0babc321100010a4526,31,Kobieta,2022-05-28_09h30.59.837,task,2021.1.4,Win32,60.15761295,628b806c463b948bc644b84f,6291cf9d9bf969ddb5b754fd,[0.2834000000059689],,,,,,,,,,,,,,,,,,,,,,,,,,,,,,,,,,,,,,,,,,,,,,,,,,,,,,,,,,,,,,,,,,,,,,,,,,,,,,,,,,,,,,,,,,,,,,,,,,,,,,,
,,"[""comma""]",0,69,0,69,0,1,5d39c0babc321100010a4526,31,Kobieta,2022-05-28_09h30.59.837,task,2021.1.4,Win32,60.15761295,628b806c463b948bc644b84f,6291cf9d9bf969ddb5b754fd,[0.2861999999880709],,,,,,,,,,,,,,,,,,,,,,,,,,,,,,,,,,,,,,,,,,,,,,,,,,,,,,,,,,,,,,,,,,,,,,,,,,,,,,,,,,,,,,,,,,,,,,,,,,,,,,,
,,"[""period""]",0,70,0,70,0,1,5d39c0babc321100010a4526,31,Kobieta,2022-05-28_09h30.59.837,task,2021.1.4,Win32,60.15761295,628b806c463b948bc644b84f,6291cf9d9bf969ddb5b754fd,[0.23460000002384618],,,,,,,,,,,,,,,,,,,,,,,,,,,,,,,,,,,,,,,,,,,,,,,,,,,,,,,,,,,,,,,,,,,,,,,,,,,,,,,,,,,,,,,,,,,,,,,,,,,,,,,
,,"[""period""]",0,71,0,71,0,1,5d39c0babc321100010a4526,31,Kobieta,2022-05-28_09h30.59.837,task,2021.1.4,Win32,60.15761295,628b806c463b948bc644b84f,6291cf9d9bf969ddb5b754fd,[0.24310000002384413],,,,,,,,,,,,,,,,,,,,,,,,,,,,,,,,,,,,,,,,,,,,,,,,,,,,,,,,,,,,,,,,,,,,,,,,,,,,,,,,,,,,,,,,,,,,,,,,,,,,,,,
,,"[""comma""]",0,72,0,72,0,1,5d39c0babc321100010a4526,31,Kobieta,2022-05-28_09h30.59.837,task,2021.1.4,Win32,60.15761295,628b806c463b948bc644b84f,6291cf9d9bf969ddb5b754fd,[0.060800000011909106],,,,,,,,,,,,,,,,,,,,,,,,,,,,,,,,,,,,,,,,,,,,,,,,,,,,,,,,,,,,,,,,,,,,,,,,,,,,,,,,,,,,,,,,,,,,,,,,,,,,,,,
,,"[""comma""]",0,73,0,73,0,1,5d39c0babc321100010a4526,31,Kobieta,2022-05-28_09h30.59.837,task,2021.1.4,Win32,60.15761295,628b806c463b948bc644b84f,6291cf9d9bf969ddb5b754fd,[0.25409999999405386],,,,,,,,,,,,,,,,,,,,,,,,,,,,,,,,,,,,,,,,,,,,,,,,,,,,,,,,,,,,,,,,,,,,,,,,,,,,,,,,,,,,,,,,,,,,,,,,,,,,,,,
,,"[""comma""]",0,74,0,74,0,1,5d39c0babc321100010a4526,31,Kobieta,2022-05-28_09h30.59.837,task,2021.1.4,Win32,60.15761295,628b806c463b948bc644b84f,6291cf9d9bf969ddb5b754fd,[0.2512999999821375],,,,,,,,,,,,,,,,,,,,,,,,,,,,,,,,,,,,,,,,,,,,,,,,,,,,,,,,,,,,,,,,,,,,,,,,,,,,,,,,,,,,,,,,,,,,,,,,,,,,,,,
,,"[""period""]",0,75,0,75,0,1,5d39c0babc321100010a4526,31,Kobieta,2022-05-28_09h30.59.837,task,2021.1.4,Win32,60.15761295,628b806c463b948bc644b84f,6291cf9d9bf969ddb5b754fd,[0.27230000001191],,,,,,,,,,,,,,,,,,,,,,,,,,,,,,,,,,,,,,,,,,,,,,,,,,,,,,,,,,,,,,,,,,,,,,,,,,,,,,,,,,,,,,,,,,,,,,,,,,,,,,,
,,"[""comma""]",0,76,0,76,0,1,5d39c0babc321100010a4526,31,Kobieta,2022-05-28_09h30.59.837,task,2021.1.4,Win32,60.15761295,628b806c463b948bc644b84f,6291cf9d9bf969ddb5b754fd,[0.31749999999999545],,,,,,,,,,,,,,,,,,,,,,,,,,,,,,,,,,,,,,,,,,,,,,,,,,,,,,,,,,,,,,,,,,,,,,,,,,,,,,,,,,,,,,,,,,,,,,,,,,,,,,,
,,"[""period""]",0,77,0,77,0,1,5d39c0babc321100010a4526,31,Kobieta,2022-05-28_09h30.59.837,task,2021.1.4,Win32,60.15761295,628b806c463b948bc644b84f,6291cf9d9bf969ddb5b754fd,[0.3696999999880859],,,,,,,,,,,,,,,,,,,,,,,,,,,,,,,,,,,,,,,,,,,,,,,,,,,,,,,,,,,,,,,,,,,,,,,,,,,,,,,,,,,,,,,,,,,,,,,,,,,,,,,
,,"[""period""]",0,78,0,78,0,1,5d39c0babc321100010a4526,31,Kobieta,2022-05-28_09h30.59.837,task,2021.1.4,Win32,60.15761295,628b806c463b948bc644b84f,6291cf9d9bf969ddb5b754fd,[0.2367999999821393],,,,,,,,,,,,,,,,,,,,,,,,,,,,,,,,,,,,,,,,,,,,,,,,,,,,,,,,,,,,,,,,,,,,,,,,,,,,,,,,,,,,,,,,,,,,,,,,,,,,,,,
,,"[""comma""]",0,79,0,79,0,1,5d39c0babc321100010a4526,31,Kobieta,2022-05-28_09h30.59.837,task,2021.1.4,Win32,60.15761295,628b806c463b948bc644b84f,6291cf9d9bf969ddb5b754fd,[0.1504000000059591],,,,,,,,,,,,,,,,,,,,,,,,,,,,,,,,,,,,,,,,,,,,,,,,,,,,,,,,,,,,,,,,,,,,,,,,,,,,,,,,,,,,,,,,,,,,,,,,,,,,,,,
,,"[""comma""]",0,80,0,80,0,1,5d39c0babc321100010a4526,31,Kobieta,2022-05-28_09h30.59.837,task,2021.1.4,Win32,60.15761295,628b806c463b948bc644b84f,6291cf9d9bf969ddb5b754fd,[0.28549999999998477],,,,,,,,,,,,,,,,,,,,,,,,,,,,,,,,,,,,,,,,,,,,,,,,,,,,,,,,,,,,,,,,,,,,,,,,,,,,,,,,,,,,,,,,,,,,,,,,,,,,,,,
,,"[""period""]",0,81,0,81,0,1,5d39c0babc321100010a4526,31,Kobieta,2022-05-28_09h30.59.837,task,2021.1.4,Win32,60.15761295,628b806c463b948bc644b84f,6291cf9d9bf969ddb5b754fd,[0.309199999988067],,,,,,,,,,,,,,,,,,,,,,,,,,,,,,,,,,,,,,,,,,,,,,,,,,,,,,,,,,,,,,,,,,,,,,,,,,,,,,,,,,,,,,,,,,,,,,,,,,,,,,,
,,"[""period""]",0,82,0,82,0,1,5d39c0babc321100010a4526,31,Kobieta,2022-05-28_09h30.59.837,task,2021.1.4,Win32,60.15761295,628b806c463b948bc644b84f,6291cf9d9bf969ddb5b754fd,[0.3001999999880809],,,,,,,,,,,,,,,,,,,,,,,,,,,,,,,,,,,,,,,,,,,,,,,,,,,,,,,,,,,,,,,,,,,,,,,,,,,,,,,,,,,,,,,,,,,,,,,,,,,,,,,
,,"[""comma""]",0,83,0,83,0,1,5d39c0babc321100010a4526,31,Kobieta,2022-05-28_09h30.59.837,task,2021.1.4,Win32,60.15761295,628b806c463b948bc644b84f,6291cf9d9bf969ddb5b754fd,[0.36700000000001864],,,,,,,,,,,,,,,,,,,,,,,,,,,,,,,,,,,,,,,,,,,,,,,,,,,,,,,,,,,,,,,,,,,,,,,,,,,,,,,,,,,,,,,,,,,,,,,,,,,,,,,
,,"[""comma""]",0,84,0,84,0,1,5d39c0babc321100010a4526,31,Kobieta,2022-05-28_09h30.59.837,task,2021.1.4,Win32,60.15761295,628b806c463b948bc644b84f,6291cf9d9bf969ddb5b754fd,[0.32490000000595387],,,,,,,,,,,,,,,,,,,,,,,,,,,,,,,,,,,,,,,,,,,,,,,,,,,,,,,,,,,,,,,,,,,,,,,,,,,,,,,,,,,,,,,,,,,,,,,,,,,,,,,
,,"[""comma""]",0,85,0,85,0,1,5d39c0babc321100010a4526,31,Kobieta,2022-05-28_09h30.59.837,task,2021.1.4,Win32,60.15761295,628b806c463b948bc644b84f,6291cf9d9bf969ddb5b754fd,[0.25709999999403976],,,,,,,,,,,,,,,,,,,,,,,,,,,,,,,,,,,,,,,,,,,,,,,,,,,,,,,,,,,,,,,,,,,,,,,,,,,,,,,,,,,,,,,,,,,,,,,,,,,,,,,
,,"[""comma""]",0,86,0,86,0,1,5d39c0babc321100010a4526,31,Kobieta,2022-05-28_09h30.59.837,task,2021.1.4,Win32,60.15761295,628b806c463b948bc644b84f,6291cf9d9bf969ddb5b754fd,[0.24150000000003047],,,,,,,,,,,,,,,,,,,,,,,,,,,,,,,,,,,,,,,,,,,,,,,,,,,,,,,,,,,,,,,,,,,,,,,,,,,,,,,,,,,,,,,,,,,,,,,,,,,,,,,
,,"[""comma""]",0,87,0,87,0,1,5d39c0babc321100010a4526,31,Kobieta,2022-05-28_09h30.59.837,task,2021.1.4,Win32,60.15761295,628b806c463b948bc644b84f,6291cf9d9bf969ddb5b754fd,[0.2702000000178941],,,,,,,,,,,,,,,,,,,,,,,,,,,,,,,,,,,,,,,,,,,,,,,,,,,,,,,,,,,,,,,,,,,,,,,,,,,,,,,,,,,,,,,,,,,,,,,,,,,,,,,
,,"[""period""]",0,88,0,88,0,1,5d39c0babc321100010a4526,31,Kobieta,2022-05-28_09h30.59.837,task,2021.1.4,Win32,60.15761295,628b806c463b948bc644b84f,6291cf9d9bf969ddb5b754fd,[0.2507000000179005],,,,,,,,,,,,,,,,,,,,,,,,,,,,,,,,,,,,,,,,,,,,,,,,,,,,,,,,,,,,,,,,,,,,,,,,,,,,,,,,,,,,,,,,,,,,,,,,,,,,,,,
,,"[""comma""]",0,89,0,89,0,1,5d39c0babc321100010a4526,31,Kobieta,2022-05-28_09h30.59.837,task,2021.1.4,Win32,60.15761295,628b806c463b948bc644b84f,6291cf9d9bf969ddb5b754fd,[0.2755000000000223],,,,,,,,,,,,,,,,,,,,,,,,,,,,,,,,,,,,,,,,,,,,,,,,,,,,,,,,,,,,,,,,,,,,,,,,,,,,,,,,,,,,,,,,,,,,,,,,,,,,,,,
,,"[""comma""]",0,90,0,90,0,1,5d39c0babc321100010a4526,31,Kobieta,2022-05-28_09h30.59.837,task,2021.1.4,Win32,60.15761295,628b806c463b948bc644b84f,6291cf9d9bf969ddb5b754fd,[0.2504999999999882],,,,,,,,,,,,,,,,,,,,,,,,,,,,,,,,,,,,,,,,,,,,,,,,,,,,,,,,,,,,,,,,,,,,,,,,,,,,,,,,,,,,,,,,,,,,,,,,,,,,,,,
,,"[""comma""]",0,91,0,91,0,1,5d39c0babc321100010a4526,31,Kobieta,2022-05-28_09h30.59.837,task,2021.1.4,Win32,60.15761295,628b806c463b948bc644b84f,6291cf9d9bf969ddb5b754fd,[0.77619999998808],,,,,,,,,,,,,,,,,,,,,,,,,,,,,,,,,,,,,,,,,,,,,,,,,,,,,,,,,,,,,,,,,,,,,,,,,,,,,,,,,,,,,,,,,,,,,,,,,,,,,,,
,,"[""period""]",0,92,0,92,0,1,5d39c0babc321100010a4526,31,Kobieta,2022-05-28_09h30.59.837,task,2021.1.4,Win32,60.15761295,628b806c463b948bc644b84f,6291cf9d9bf969ddb5b754fd,[0.07100000000002638],,,,,,,,,,,,,,,,,,,,,,,,,,,,,,,,,,,,,,,,,,,,,,,,,,,,,,,,,,,,,,,,,,,,,,,,,,,,,,,,,,,,,,,,,,,,,,,,,,,,,,,
,,"[""comma""]",0,93,0,93,0,1,5d39c0babc321100010a4526,31,Kobieta,2022-05-28_09h30.59.837,task,2021.1.4,Win32,60.15761295,628b806c463b948bc644b84f,6291cf9d9bf969ddb5b754fd,[0.24180000001189228],,,,,,,,,,,,,,,,,,,,,,,,,,,,,,,,,,,,,,,,,,,,,,,,,,,,,,,,,,,,,,,,,,,,,,,,,,,,,,,,,,,,,,,,,,,,,,,,,,,,,,,
,,"[""period""]",0,94,0,94,0,1,5d39c0babc321100010a4526,31,Kobieta,2022-05-28_09h30.59.837,task,2021.1.4,Win32,60.15761295,628b806c463b948bc644b84f,6291cf9d9bf969ddb5b754fd,[0.277499999999975],,,,,,,,,,,,,,,,,,,,,,,,,,,,,,,,,,,,,,,,,,,,,,,,,,,,,,,,,,,,,,,,,,,,,,,,,,,,,,,,,,,,,,,,,,,,,,,,,,,,,,,
,,"[""comma""]",0,95,0,95,0,1,5d39c0babc321100010a4526,31,Kobieta,2022-05-28_09h30.59.837,task,2021.1.4,Win32,60.15761295,628b806c463b948bc644b84f,6291cf9d9bf969ddb5b754fd,[0.2199000000059641],,,,,,,,,,,,,,,,,,,,,,,,,,,,,,,,,,,,,,,,,,,,,,,,,,,,,,,,,,,,,,,,,,,,,,,,,,,,,,,,,,,,,,,,,,,,,,,,,,,,,,,
,,"[""period""]",0,96,0,96,0,1,5d39c0babc321100010a4526,31,Kobieta,2022-05-28_09h30.59.837,task,2021.1.4,Win32,60.15761295,628b806c463b948bc644b84f,6291cf9d9bf969ddb5b754fd,[0.23019999998803087],,,,,,,,,,,,,,,,,,,,,,,,,,,,,,,,,,,,,,,,,,,,,,,,,,,,,,,,,,,,,,,,,,,,,,,,,,,,,,,,,,,,,,,,,,,,,,,,,,,,,,,
,,"[""period""]",0,97,0,97,0,1,5d39c0babc321100010a4526,31,Kobieta,2022-05-28_09h30.59.837,task,2021.1.4,Win32,60.15761295,628b806c463b948bc644b84f,6291cf9d9bf969ddb5b754fd,[0.2417000000178291],,,,,,,,,,,,,,,,,,,,,,,,,,,,,,,,,,,,,,,,,,,,,,,,,,,,,,,,,,,,,,,,,,,,,,,,,,,,,,,,,,,,,,,,,,,,,,,,,,,,,,,
,,"[""comma""]",0,98,0,98,0,1,5d39c0babc321100010a4526,31,Kobieta,2022-05-28_09h30.59.837,task,2021.1.4,Win32,60.15761295,628b806c463b948bc644b84f,6291cf9d9bf969ddb5b754fd,[0.23399999999998045],,,,,,,,,,,,,,,,,,,,,,,,,,,,,,,,,,,,,,,,,,,,,,,,,,,,,,,,,,,,,,,,,,,,,,,,,,,,,,,,,,,,,,,,,,,,,,,,,,,,,,,
,,"[""comma""]",0,99,0,99,0,1,5d39c0babc321100010a4526,31,Kobieta,2022-05-28_09h30.59.837,task,2021.1.4,Win32,60.15761295,628b806c463b948bc644b84f,6291cf9d9bf969ddb5b754fd,[0.2712999999821477],,,,,,,,,,,,,,,,,,,,,,,,,,,,,,,,,,,,,,,,,,,,,,,,,,,,,,,,,,,,,,,,,,,,,,,,,,,,,,,,,,,,,,,,,,,,,,,,,,,,,,,
,,"[""comma""]",0,100,0,100,0,1,5d39c0babc321100010a4526,31,Kobieta,2022-05-28_09h30.59.837,task,2021.1.4,Win32,60.15761295,628b806c463b948bc644b84f,6291cf9d9bf969ddb5b754fd,[0.2523000000119282],,,,,,,,,,,,,,,,,,,,,,,,,,,,,,,,,,,,,,,,,,,,,,,,,,,,,,,,,,,,,,,,,,,,,,,,,,,,,,,,,,,,,,,,,,,,,,,,,,,,,,,
,,"[""period""]",0,101,0,101,0,1,5d39c0babc321100010a4526,31,Kobieta,2022-05-28_09h30.59.837,task,2021.1.4,Win32,60.15761295,628b806c463b948bc644b84f,6291cf9d9bf969ddb5b754fd,[0.2669999999999959],,,,,,,,,,,,,,,,,,,,,,,,,,,,,,,,,,,,,,,,,,,,,,,,,,,,,,,,,,,,,,,,,,,,,,,,,,,,,,,,,,,,,,,,,,,,,,,,,,,,,,,
,,"[""comma""]",0,102,0,102,0,1,5d39c0babc321100010a4526,31,Kobieta,2022-05-28_09h30.59.837,task,2021.1.4,Win32,60.15761295,628b806c463b948bc644b84f,6291cf9d9bf969ddb5b754fd,[0.26440000000599184],,,,,,,,,,,,,,,,,,,,,,,,,,,,,,,,,,,,,,,,,,,,,,,,,,,,,,,,,,,,,,,,,,,,,,,,,,,,,,,,,,,,,,,,,,,,,,,,,,,,,,,
,,"[""period""]",0,103,0,103,0,1,5d39c0babc321100010a4526,31,Kobieta,2022-05-28_09h30.59.837,task,2021.1.4,Win32,60.15761295,628b806c463b948bc644b84f,6291cf9d9bf969ddb5b754fd,[0.24689999997616496],,,,,,,,,,,,,,,,,,,,,,,,,,,,,,,,,,,,,,,,,,,,,,,,,,,,,,,,,,,,,,,,,,,,,,,,,,,,,,,,,,,,,,,,,,,,,,,,,,,,,,,
,,"[""comma""]",0,104,0,104,0,1,5d39c0babc321100010a4526,31,Kobieta,2022-05-28_09h30.59.837,task,2021.1.4,Win32,60.15761295,628b806c463b948bc644b84f,6291cf9d9bf969ddb5b754fd,[0.25059999999405136],,,,,,,,,,,,,,,,,,,,,,,,,,,,,,,,,,,,,,,,,,,,,,,,,,,,,,,,,,,,,,,,,,,,,,,,,,,,,,,,,,,,,,,,,,,,,,,,,,,,,,,
,,"[""period""]",0,105,0,105,0,1,5d39c0babc321100010a4526,31,Kobieta,2022-05-28_09h30.59.837,task,2021.1.4,Win32,60.15761295,628b806c463b948bc644b84f,6291cf9d9bf969ddb5b754fd,[0.18570000001784592],,,,,,,,,,,,,,,,,,,,,,,,,,,,,,,,,,,,,,,,,,,,,,,,,,,,,,,,,,,,,,,,,,,,,,,,,,,,,,,,,,,,,,,,,,,,,,,,,,,,,,,
,,"[""comma""]",0,106,0,106,0,1,5d39c0babc321100010a4526,31,Kobieta,2022-05-28_09h30.59.837,task,2021.1.4,Win32,60.15761295,628b806c463b948bc644b84f,6291cf9d9bf969ddb5b754fd,[0.2892000000178996],,,,,,,,,,,,,,,,,,,,,,,,,,,,,,,,,,,,,,,,,,,,,,,,,,,,,,,,,,,,,,,,,,,,,,,,,,,,,,,,,,,,,,,,,,,,,,,,,,,,,,,
,,"[""comma""]",0,107,0,107,0,1,5d39c0babc321100010a4526,31,Kobieta,2022-05-28_09h30.59.837,task,2021.1.4,Win32,60.15761295,628b806c463b948bc644b84f,6291cf9d9bf969ddb5b754fd,[0.24849999999997863],,,,,,,,,,,,,,,,,,,,,,,,,,,,,,,,,,,,,,,,,,,,,,,,,,,,,,,,,,,,,,,,,,,,,,,,,,,,,,,,,,,,,,,,,,,,,,,,,,,,,,,
,,"[""period""]",0,108,0,108,0,1,5d39c0babc321100010a4526,31,Kobieta,2022-05-28_09h30.59.837,task,2021.1.4,Win32,60.15761295,628b806c463b948bc644b84f,6291cf9d9bf969ddb5b754fd,[0.3143999999761604],,,,,,,,,,,,,,,,,,,,,,,,,,,,,,,,,,,,,,,,,,,,,,,,,,,,,,,,,,,,,,,,,,,,,,,,,,,,,,,,,,,,,,,,,,,,,,,,,,,,,,,
,,"[""period""]",0,109,0,109,0,1,5d39c0babc321100010a4526,31,Kobieta,2022-05-28_09h30.59.837,task,2021.1.4,Win32,60.15761295,628b806c463b948bc644b84f,6291cf9d9bf969ddb5b754fd,[0.33700000000004593],,,,,,,,,,,,,,,,,,,,,,,,,,,,,,,,,,,,,,,,,,,,,,,,,,,,,,,,,,,,,,,,,,,,,,,,,,,,,,,,,,,,,,,,,,,,,,,,,,,,,,,
,,"[""comma""]",0,110,0,110,0,1,5d39c0babc321100010a4526,31,Kobieta,2022-05-28_09h30.59.837,task,2021.1.4,Win32,60.15761295,628b806c463b948bc644b84f,6291cf9d9bf969ddb5b754fd,[0.3887000000178773],,,,,,,,,,,,,,,,,,,,,,,,,,,,,,,,,,,,,,,,,,,,,,,,,,,,,,,,,,,,,,,,,,,,,,,,,,,,,,,,,,,,,,,,,,,,,,,,,,,,,,,
,,"[""comma""]",0,111,0,111,0,1,5d39c0babc321100010a4526,31,Kobieta,2022-05-28_09h30.59.837,task,2021.1.4,Win32,60.15761295,628b806c463b948bc644b84f,6291cf9d9bf969ddb5b754fd,[0.30119999998805724],,,,,,,,,,,,,,,,,,,,,,,,,,,,,,,,,,,,,,,,,,,,,,,,,,,,,,,,,,,,,,,,,,,,,,,,,,,,,,,,,,,,,,,,,,,,,,,,,,,,,,,
,,"[""comma""]",0,112,0,112,0,1,5d39c0babc321100010a4526,31,Kobieta,2022-05-28_09h30.59.837,task,2021.1.4,Win32,60.15761295,628b806c463b948bc644b84f,6291cf9d9bf969ddb5b754fd,[0.22409999999399588],,,,,,,,,,,,,,,,,,,,,,,,,,,,,,,,,,,,,,,,,,,,,,,,,,,,,,,,,,,,,,,,,,,,,,,,,,,,,,,,,,,,,,,,,,,,,,,,,,,,,,,
,,"[""comma""]",0,113,0,113,0,1,5d39c0babc321100010a4526,31,Kobieta,2022-05-28_09h30.59.837,task,2021.1.4,Win32,60.15761295,628b806c463b948bc644b84f,6291cf9d9bf969ddb5b754fd,[0.2651999999880559],,,,,,,,,,,,,,,,,,,,,,,,,,,,,,,,,,,,,,,,,,,,,,,,,,,,,,,,,,,,,,,,,,,,,,,,,,,,,,,,,,,,,,,,,,,,,,,,,,,,,,,
,,"[""period""]",0,114,0,114,0,1,5d39c0babc321100010a4526,31,Kobieta,2022-05-28_09h30.59.837,task,2021.1.4,Win32,60.15761295,628b806c463b948bc644b84f,6291cf9d9bf969ddb5b754fd,[0.29880000001190865],,,,,,,,,,,,,,,,,,,,,,,,,,,,,,,,,,,,,,,,,,,,,,,,,,,,,,,,,,,,,,,,,,,,,,,,,,,,,,,,,,,,,,,,,,,,,,,,,,,,,,,
,,"[""period""]",0,115,0,115,0,1,5d39c0babc321100010a4526,31,Kobieta,2022-05-28_09h30.59.837,task,2021.1.4,Win32,60.15761295,628b806c463b948bc644b84f,6291cf9d9bf969ddb5b754fd,[0.22079999998214817],,,,,,,,,,,,,,,,,,,,,,,,,,,,,,,,,,,,,,,,,,,,,,,,,,,,,,,,,,,,,,,,,,,,,,,,,,,,,,,,,,,,,,,,,,,,,,,,,,,,,,,
,,"[""comma""]",0,116,0,116,0,1,5d39c0babc321100010a4526,31,Kobieta,2022-05-28_09h30.59.837,task,2021.1.4,Win32,60.15761295,628b806c463b948bc644b84f,6291cf9d9bf969ddb5b754fd,[0.24009999999407228],,,,,,,,,,,,,,,,,,,,,,,,,,,,,,,,,,,,,,,,,,,,,,,,,,,,,,,,,,,,,,,,,,,,,,,,,,,,,,,,,,,,,,,,,,,,,,,,,,,,,,,
,,"[""period""]",0,117,0,117,0,1,5d39c0babc321100010a4526,31,Kobieta,2022-05-28_09h30.59.837,task,2021.1.4,Win32,60.15761295,628b806c463b948bc644b84f,6291cf9d9bf969ddb5b754fd,[0.21809999999402407],,,,,,,,,,,,,,,,,,,,,,,,,,,,,,,,,,,,,,,,,,,,,,,,,,,,,,,,,,,,,,,,,,,,,,,,,,,,,,,,,,,,,,,,,,,,,,,,,,,,,,,
,,"[""period""]",0,118,0,118,0,1,5d39c0babc321100010a4526,31,Kobieta,2022-05-28_09h30.59.837,task,2021.1.4,Win32,60.15761295,628b806c463b948bc644b84f,6291cf9d9bf969ddb5b754fd,[0.21030000001195504],,,,,,,,,,,,,,,,,,,,,,,,,,,,,,,,,,,,,,,,,,,,,,,,,,,,,,,,,,,,,,,,,,,,,,,,,,,,,,,,,,,,,,,,,,,,,,,,,,,,,,,
,,"[""comma""]",0,119,0,119,0,1,5d39c0babc321100010a4526,31,Kobieta,2022-05-28_09h30.59.837,task,2021.1.4,Win32,60.15761295,628b806c463b948bc644b84f,6291cf9d9bf969ddb5b754fd,[0.28130000001192457],,,,,,,,,,,,,,,,,,,,,,,,,,,,,,,,,,,,,,,,,,,,,,,,,,,,,,,,,,,,,,,,,,,,,,,,,,,,,,,,,,,,,,,,,,,,,,,,,,,,,,,
,,,,,,,,,5d39c0babc321100010a4526,31,Kobieta,2022-05-28_09h30.59.837,task,2021.1.4,Win32,60.15761295,628b806c463b948bc644b84f,6291cf9d9bf969ddb5b754fd,,space,13.6609,space,4.7105,0,0,0,0,1,"X V Q F H G B L J M P D K C T S W R N Z
",,,,,,,,,,,,,,,,,,,,,,,,,,,,,,,,,,,,,,,,,,,,,,,,,,,,,,,,,,,,,,,,,,,,,,,,,,,,,,,,,,,,,,,,,,,,,
,,,,,,,,,5d39c0babc321100010a4526,31,Kobieta,2022-05-28_09h30.59.837,task,2021.1.4,Win32,60.15761295,628b806c463b948bc644b84f,6291cf9d9bf969ddb5b754fd,,,,,,1,0,1,0,1,"X V Q F H G B L J M P D K C T S W R N Z
",,,,,,,,,,,,,,,,,,,,,,,,,,,,,,,,,,,,,,,,,,,,,,,,,,,,,,,,,,,,,,,,,,,,,,,,,,,,,,,,,,,,,,,,,,,,,
,,,,,,,,,5d39c0babc321100010a4526,31,Kobieta,2022-05-28_09h30.59.837,task,2021.1.4,Win32,60.15761295,628b806c463b948bc644b84f,6291cf9d9bf969ddb5b754fd,,,,,,,,,,,,zc,"[""z"",""c""]","[1.9655999999940263,2.422699999988083,4.264999999999986]",1,ZC,0,0,0,0,1,,,,,,,,,,,,,,,,,,,,,,,,,,,,,,,,,,,,,,,,,,,,,,,,,,,,,,,,,,,,,,,,,,,,,,,,,,,,,,,,,,,
,,,,,,,,,5d39c0babc321100010a4526,31,Kobieta,2022-05-28_09h30.59.837,task,2021.1.4,Win32,60.15761295,628b806c463b948bc644b84f,6291cf9d9bf969ddb5b754fd,,,,,,0,0,0,0,1,"X V Q F H G B L J M P D K C T S W R N Z
",,,,,,,,,,,,,,,,,,,,,,,,,,,,,,,,,,,,,,,,,,,,,,,,,,,,,,,,,,,,,,,,,,,,,,,,,,,,,,,,,,,,,,,,,,,,,
,,,,,,,,,5d39c0babc321100010a4526,31,Kobieta,2022-05-28_09h30.59.837,task,2021.1.4,Win32,60.15761295,628b806c463b948bc644b84f,6291cf9d9bf969ddb5b754fd,,,,,,1,0,1,0,1,"X V Q F H G B L J M P D K C T S W R N Z
",,,,,,,,,,,,,,,,,,,,,,,,,,,,,,,,,,,,,,,,,,,,,,,,,,,,,,,,,,,,,,,,,,,,,,,,,,,,,,,,,,,,,,,,,,,,,
,,,,,,,,,5d39c0babc321100010a4526,31,Kobieta,2022-05-28_09h30.59.837,task,2021.1.4,Win32,60.15761295,628b806c463b948bc644b84f,6291cf9d9bf969ddb5b754fd,,,,,,,,,,,,fz,"[""f"",""z""]","[1.9710000000000036,2.629699999988077,3.281799999982127]",0,"FZ
",1,0,1,0,1,,,,,,,,,,,,,,,,,,,,,,,,,,,,,,,,,,,,,,,,,,,,,,,,,,,,,,,,,,,,,,,,,,,,,,,,,,,,,,,,,,,
,,,,,,,,,5d39c0babc321100010a4526,31,Kobieta,2022-05-28_09h30.59.837,task,2021.1.4,Win32,60.15761295,628b806c463b948bc644b84f,6291cf9d9bf969ddb5b754fd,,,,,,0,0,0,0,1,"X V Q F H G B L J M P D K C T S W R N Z
",,,,,,,,,,,,,,,,,,,,,,,,,,,,,,,,,,,,,,,,,,,,,,,,,,,,,,,,,,,,,,,,,,,,,,,,,,,,,,,,,,,,,,,,,,,,,
,,,,,,,,,5d39c0babc321100010a4526,31,Kobieta,2022-05-28_09h30.59.837,task,2021.1.4,Win32,60.15761295,628b806c463b948bc644b84f,6291cf9d9bf969ddb5b754fd,,,,,,1,0,1,0,1,"X V Q F H G B L J M P D K C T S W R N Z
",,,,,,,,,,,,,,,,,,,,,,,,,,,,,,,,,,,,,,,,,,,,,,,,,,,,,,,,,,,,,,,,,,,,,,,,,,,,,,,,,,,,,,,,,,,,,
,,,,,,,,,5d39c0babc321100010a4526,31,Kobieta,2022-05-28_09h30.59.837,task,2021.1.4,Win32,60.15761295,628b806c463b948bc644b84f,6291cf9d9bf969ddb5b754fd,,,,,,,,,,,,lv,"[""l"",""v""]","[1.4401999999880672,2.1221999999880836,2.740000000000009]",1,LV,2,0,2,0,1,,,,,,,,,,,,,,,,,,,,,,,,,,,,,,,,,,,,,,,,,,,,,,,,,,,,,,,,,,,,,,,,,,,,,,,,,,,,,,,,,,,
,,,,,,,,,5d39c0babc321100010a4526,31,Kobieta,2022-05-28_09h30.59.837,task,2021.1.4,Win32,60.15761295,628b806c463b948bc644b84f,6291cf9d9bf969ddb5b754fd,,,,,,0,0,0,0,1,"X V Q F H G B L J M P D K C T S W R N Z
",,,,,,,,,,,,,,,,,,,,,,,,,,,,,,,,,,,,,,,,,,,,,,,,,,,,,,,,,,,,,,,,,,,,,,,,,,,,,,,,,,,,,,,,,,,,,
,,,,,,,,,5d39c0babc321100010a4526,31,Kobieta,2022-05-28_09h30.59.837,task,2021.1.4,Win32,60.15761295,628b806c463b948bc644b84f,6291cf9d9bf969ddb5b754fd,,,,,,1,0,1,0,1,"X V Q F H G B L J M P D K C T S W R N Z
",,,,,,,,,,,,,,,,,,,,,,,,,,,,,,,,,,,,,,,,,,,,,,,,,,,,,,,,,,,,,,,,,,,,,,,,,,,,,,,,,,,,,,,,,,,,,
,,,,,,,,,5d39c0babc321100010a4526,31,Kobieta,2022-05-28_09h30.59.837,task,2021.1.4,Win32,60.15761295,628b806c463b948bc644b84f,6291cf9d9bf969ddb5b754fd,,,,,,2,0,2,0,1,"X V Q F H G B L J M P D K C T S W R N Z
",,,,,,,,,,,,,,,,,,,,,,,,,,,,,,,,,,,,,,,,,,,,,,,,,,,,,,,,,,,,,,,,,,,,,,,,,,,,,,,,,,,,,,,,,,,,,
,,,,,,,,,5d39c0babc321100010a4526,31,Kobieta,2022-05-28_09h30.59.837,task,2021.1.4,Win32,60.15761295,628b806c463b948bc644b84f,6291cf9d9bf969ddb5b754fd,,,,,,,,,,,,fjz,"[""f"",""j"",""z""]","[1.1652999999820963,1.6985999999940304,2.455699999988042,3.177500000000009]",0,"FJZ
",3,0,3,0,1,,,,,,,,,,,,,,,,,,,,,,,,,,,,,,,,,,,,,,,,,,,,,,,,,,,,,,,,,,,,,,,,,,,,,,,,,,,,,,,,,,,
,,,,,,,,,5d39c0babc321100010a4526,31,Kobieta,2022-05-28_09h30.59.837,task,2021.1.4,Win32,60.15761295,628b806c463b948bc644b84f,6291cf9d9bf969ddb5b754fd,,,,,,0,0,0,0,1,"X V Q F H G B L J M P D K C T S W R N Z
",,,,,,,,,,,,,,,,,,,,,,,,,,,,,,,,,,,,,,,,,,,,,,,,,,,,,,,,,,,,,,,,,,,,,,,,,,,,,,,,,,,,,,,,,,,,,
,,,,,,,,,5d39c0babc321100010a4526,31,Kobieta,2022-05-28_09h30.59.837,task,2021.1.4,Win32,60.15761295,628b806c463b948bc644b84f,6291cf9d9bf969ddb5b754fd,,,,,,1,0,1,0,1,"X V Q F H G B L J M P D K C T S W R N Z
",,,,,,,,,,,,,,,,,,,,,,,,,,,,,,,,,,,,,,,,,,,,,,,,,,,,,,,,,,,,,,,,,,,,,,,,,,,,,,,,,,,,,,,,,,,,,
,,,,,,,,,5d39c0babc321100010a4526,31,Kobieta,2022-05-28_09h30.59.837,task,2021.1.4,Win32,60.15761295,628b806c463b948bc644b84f,6291cf9d9bf969ddb5b754fd,,,,,,2,0,2,0,1,"X V Q F H G B L J M P D K C T S W R N Z
",,,,,,,,,,,,,,,,,,,,,,,,,,,,,,,,,,,,,,,,,,,,,,,,,,,,,,,,,,,,,,,,,,,,,,,,,,,,,,,,,,,,,,,,,,,,,
,,,,,,,,,5d39c0babc321100010a4526,31,Kobieta,2022-05-28_09h30.59.837,task,2021.1.4,Win32,60.15761295,628b806c463b948bc644b84f,6291cf9d9bf969ddb5b754fd,,,,,,,,,,,,lpk,"[""l"",""p"",""k""]","[0.582599999994045,0.7160000000000082,0.9790000000000418,1.7707999999821595]",1,LPK,4,0,4,0,1,,,,,,,,,,,,,,,,,,,,,,,,,,,,,,,,,,,,,,,,,,,,,,,,,,,,,,,,,,,,,,,,,,,,,,,,,,,,,,,,,,,
,,,,,,,,,5d39c0babc321100010a4526,31,Kobieta,2022-05-28_09h30.59.837,task,2021.1.4,Win32,60.15761295,628b806c463b948bc644b84f,6291cf9d9bf969ddb5b754fd,,,,,,0,0,0,0,1,"X V Q F H G B L J M P D K C T S W R N Z
",,,,,,,,,,,,,,,,,,,,,,,,,,,,,,,,,,,,,,,,,,,,,,,,,,,,,,,,,,,,,,,,,,,,,,,,,,,,,,,,,,,,,,,,,,,,,
,,,,,,,,,5d39c0babc321100010a4526,31,Kobieta,2022-05-28_09h30.59.837,task,2021.1.4,Win32,60.15761295,628b806c463b948bc644b84f,6291cf9d9bf969ddb5b754fd,,,,,,1,0,1,0,1,"X V Q F H G B L J M P D K C T S W R N Z
",,,,,,,,,,,,,,,,,,,,,,,,,,,,,,,,,,,,,,,,,,,,,,,,,,,,,,,,,,,,,,,,,,,,,,,,,,,,,,,,,,,,,,,,,,,,,
,,,,,,,,,5d39c0babc321100010a4526,31,Kobieta,2022-05-28_09h30.59.837,task,2021.1.4,Win32,60.15761295,628b806c463b948bc644b84f,6291cf9d9bf969ddb5b754fd,,,,,,2,0,2,0,1,"X V Q F H G B L J M P D K C T S W R N Z
",,,,,,,,,,,,,,,,,,,,,,,,,,,,,,,,,,,,,,,,,,,,,,,,,,,,,,,,,,,,,,,,,,,,,,,,,,,,,,,,,,,,,,,,,,,,,
,,,,,,,,,5d39c0babc321100010a4526,31,Kobieta,2022-05-28_09h30.59.837,task,2021.1.4,Win32,60.15761295,628b806c463b948bc644b84f,6291cf9d9bf969ddb5b754fd,,,,,,,,,,,,dqh,"[""d"",""q"",""h""]","[1.364500000000021,1.8834000000059632,2.9910000000000423,3.418400000005988]",1,DQH,5,0,5,0,1,,,,,,,,,,,,,,,,,,,,,,,,,,,,,,,,,,,,,,,,,,,,,,,,,,,,,,,,,,,,,,,,,,,,,,,,,,,,,,,,,,,
,,,,,,,,,5d39c0babc321100010a4526,31,Kobieta,2022-05-28_09h30.59.837,task,2021.1.4,Win32,60.15761295,628b806c463b948bc644b84f,6291cf9d9bf969ddb5b754fd,,,,,,0,0,0,0,1,"X V Q F H G B L J M P D K C T S W R N Z
",,,,,,,,,,,,,,,,,,,,,,,,,,,,,,,,,,,,,,,,,,,,,,,,,,,,,,,,,,,,,,,,,,,,,,,,,,,,,,,,,,,,,,,,,,,,,
,,,,,,,,,5d39c0babc321100010a4526,31,Kobieta,2022-05-28_09h30.59.837,task,2021.1.4,Win32,60.15761295,628b806c463b948bc644b84f,6291cf9d9bf969ddb5b754fd,,,,,,1,0,1,0,1,"X V Q F H G B L J M P D K C T S W R N Z
",,,,,,,,,,,,,,,,,,,,,,,,,,,,,,,,,,,,,,,,,,,,,,,,,,,,,,,,,,,,,,,,,,,,,,,,,,,,,,,,,,,,,,,,,,,,,
,,,,,,,,,5d39c0babc321100010a4526,31,Kobieta,2022-05-28_09h30.59.837,task,2021.1.4,Win32,60.15761295,628b806c463b948bc644b84f,6291cf9d9bf969ddb5b754fd,,,,,,2,0,2,0,1,"X V Q F H G B L J M P D K C T S W R N Z
",,,,,,,,,,,,,,,,,,,,,,,,,,,,,,,,,,,,,,,,,,,,,,,,,,,,,,,,,,,,,,,,,,,,,,,,,,,,,,,,,,,,,,,,,,,,,
,,,,,,,,,5d39c0babc321100010a4526,31,Kobieta,2022-05-28_09h30.59.837,task,2021.1.4,Win32,60.15761295,628b806c463b948bc644b84f,6291cf9d9bf969ddb5b754fd,,,,,,3,0,3,0,1,"X V Q F H G B L J M P D K C T S W R N Z
",,,,,,,,,,,,,,,,,,,,,,,,,,,,,,,,,,,,,,,,,,,,,,,,,,,,,,,,,,,,,,,,,,,,,,,,,,,,,,,,,,,,,,,,,,,,,
,,,,,,,,,5d39c0babc321100010a4526,31,Kobieta,2022-05-28_09h30.59.837,task,2021.1.4,Win32,60.15761295,628b806c463b948bc644b84f,6291cf9d9bf969ddb5b754fd,,,,,,,,,,,,bllj,"[""b"",""l"",""l"",""j""]","[0.9214999999999804,1.47380000001192,1.712400000005914,2.037700000017878,2.7314000000059195]",1,BLLJ,6,0,6,0,1,,,,,,,,,,,,,,,,,,,,,,,,,,,,,,,,,,,,,,,,,,,,,,,,,,,,,,,,,,,,,,,,,,,,,,,,,,,,,,,,,,,
,,,,,,,,,5d39c0babc321100010a4526,31,Kobieta,2022-05-28_09h30.59.837,task,2021.1.4,Win32,60.15761295,628b806c463b948bc644b84f,6291cf9d9bf969ddb5b754fd,,,,,,0,0,0,0,1,"X V Q F H G B L J M P D K C T S W R N Z
",,,,,,,,,,,,,,,,,,,,,,,,,,,,,,,,,,,,,,,,,,,,,,,,,,,,,,,,,,,,,,,,,,,,,,,,,,,,,,,,,,,,,,,,,,,,,
,,,,,,,,,5d39c0babc321100010a4526,31,Kobieta,2022-05-28_09h30.59.837,task,2021.1.4,Win32,60.15761295,628b806c463b948bc644b84f,6291cf9d9bf969ddb5b754fd,,,,,,1,0,1,0,1,"X V Q F H G B L J M P D K C T S W R N Z
",,,,,,,,,,,,,,,,,,,,,,,,,,,,,,,,,,,,,,,,,,,,,,,,,,,,,,,,,,,,,,,,,,,,,,,,,,,,,,,,,,,,,,,,,,,,,
,,,,,,,,,5d39c0babc321100010a4526,31,Kobieta,2022-05-28_09h30.59.837,task,2021.1.4,Win32,60.15761295,628b806c463b948bc644b84f,6291cf9d9bf969ddb5b754fd,,,,,,2,0,2,0,1,"X V Q F H G B L J M P D K C T S W R N Z
",,,,,,,,,,,,,,,,,,,,,,,,,,,,,,,,,,,,,,,,,,,,,,,,,,,,,,,,,,,,,,,,,,,,,,,,,,,,,,,,,,,,,,,,,,,,,
,,,,,,,,,5d39c0babc321100010a4526,31,Kobieta,2022-05-28_09h30.59.837,task,2021.1.4,Win32,60.15761295,628b806c463b948bc644b84f,6291cf9d9bf969ddb5b754fd,,,,,,3,0,3,0,1,"X V Q F H G B L J M P D K C T S W R N Z
",,,,,,,,,,,,,,,,,,,,,,,,,,,,,,,,,,,,,,,,,,,,,,,,,,,,,,,,,,,,,,,,,,,,,,,,,,,,,,,,,,,,,,,,,,,,,
,,,,,,,,,5d39c0babc321100010a4526,31,Kobieta,2022-05-28_09h30.59.837,task,2021.1.4,Win32,60.15761295,628b806c463b948bc644b84f,6291cf9d9bf969ddb5b754fd,,,,,,,,,,,,lgvh,"[""l"",""g"",""v"",""h""]","[1.1108000000119205,1.9025999999940382,2.273700000017868,2.8949000000059755,3.50270000001791]",0,JGVH,7,0,7,0,1,,,,,,,,,,,,,,,,,,,,,,,,,,,,,,,,,,,,,,,,,,,,,,,,,,,,,,,,,,,,,,,,,,,,,,,,,,,,,,,,,,,
,,,,,,,,,5d39c0babc321100010a4526,31,Kobieta,2022-05-28_09h30.59.837,task,2021.1.4,Win32,60.15761295,628b806c463b948bc644b84f,6291cf9d9bf969ddb5b754fd,,,,,,0,0,0,0,1,"X V Q F H G B L J M P D K C T S W R N Z
",,,,,,,,,,,,,,,,,,,,,,,,,,,,,,,,,,,,,,,,,,,,,,,,,,,,,,,,,,,,,,,,,,,,,,,,,,,,,,,,,,,,,,,,,,,,,
,,,,,,,,,5d39c0babc321100010a4526,31,Kobieta,2022-05-28_09h30.59.837,task,2021.1.4,Win32,60.15761295,628b806c463b948bc644b84f,6291cf9d9bf969ddb5b754fd,,,,,,1,0,1,0,1,"X V Q F H G B L J M P D K C T S W R N Z
",,,,,,,,,,,,,,,,,,,,,,,,,,,,,,,,,,,,,,,,,,,,,,,,,,,,,,,,,,,,,,,,,,,,,,,,,,,,,,,,,,,,,,,,,,,,,
,,,,,,,,,5d39c0babc321100010a4526,31,Kobieta,2022-05-28_09h30.59.837,task,2021.1.4,Win32,60.15761295,628b806c463b948bc644b84f,6291cf9d9bf969ddb5b754fd,,,,,,2,0,2,0,1,"X V Q F H G B L J M P D K C T S W R N Z
",,,,,,,,,,,,,,,,,,,,,,,,,,,,,,,,,,,,,,,,,,,,,,,,,,,,,,,,,,,,,,,,,,,,,,,,,,,,,,,,,,,,,,,,,,,,,
,,,,,,,,,5d39c0babc321100010a4526,31,Kobieta,2022-05-28_09h30.59.837,task,2021.1.4,Win32,60.15761295,628b806c463b948bc644b84f,6291cf9d9bf969ddb5b754fd,,,,,,3,0,3,0,1,"X V Q F H G B L J M P D K C T S W R N Z
",,,,,,,,,,,,,,,,,,,,,,,,,,,,,,,,,,,,,,,,,,,,,,,,,,,,,,,,,,,,,,,,,,,,,,,,,,,,,,,,,,,,,,,,,,,,,
,,,,,,,,,5d39c0babc321100010a4526,31,Kobieta,2022-05-28_09h30.59.837,task,2021.1.4,Win32,60.15761295,628b806c463b948bc644b84f,6291cf9d9bf969ddb5b754fd,,,,,,,,,,,,szlj,"[""s"",""z"",""l"",""j""]","[1.553400000005979,1.655199999988099,2.4126999999880923,2.7820999999940454,3.8285000000000196]",0,"SZ
LJ",8,0,8,0,1,,,,,,,,,,,,,,,,,,,,,,,,,,,,,,,,,,,,,,,,,,,,,,,,,,,,,,,,,,,,,,,,,,,,,,,,,,,,,,,,,,,
,,,,,,,,,5d39c0babc321100010a4526,31,Kobieta,2022-05-28_09h30.59.837,task,2021.1.4,Win32,60.15761295,628b806c463b948bc644b84f,6291cf9d9bf969ddb5b754fd,,,,,,0,0,0,0,1,"X V Q F H G B L J M P D K C T S W R N Z
",,,,,,,,,,,,,,,,,,,,,,,,,,,,,,,,,,,,,,,,,,,,,,,,,,,,,,,,,,,,,,,,,,,,,,,,,,,,,,,,,,,,,,,,,,,,,
,,,,,,,,,5d39c0babc321100010a4526,31,Kobieta,2022-05-28_09h30.59.837,task,2021.1.4,Win32,60.15761295,628b806c463b948bc644b84f,6291cf9d9bf969ddb5b754fd,,,,,,1,0,1,0,1,"X V Q F H G B L J M P D K C T S W R N Z
",,,,,,,,,,,,,,,,,,,,,,,,,,,,,,,,,,,,,,,,,,,,,,,,,,,,,,,,,,,,,,,,,,,,,,,,,,,,,,,,,,,,,,,,,,,,,
,,,,,,,,,5d39c0babc321100010a4526,31,Kobieta,2022-05-28_09h30.59.837,task,2021.1.4,Win32,60.15761295,628b806c463b948bc644b84f,6291cf9d9bf969ddb5b754fd,,,,,,2,0,2,0,1,"X V Q F H G B L J M P D K C T S W R N Z
",,,,,,,,,,,,,,,,,,,,,,,,,,,,,,,,,,,,,,,,,,,,,,,,,,,,,,,,,,,,,,,,,,,,,,,,,,,,,,,,,,,,,,,,,,,,,
,,,,,,,,,5d39c0babc321100010a4526,31,Kobieta,2022-05-28_09h30.59.837,task,2021.1.4,Win32,60.15761295,628b806c463b948bc644b84f,6291cf9d9bf969ddb5b754fd,,,,,,3,0,3,0,1,"X V Q F H G B L J M P D K C T S W R N Z
",,,,,,,,,,,,,,,,,,,,,,,,,,,,,,,,,,,,,,,,,,,,,,,,,,,,,,,,,,,,,,,,,,,,,,,,,,,,,,,,,,,,,,,,,,,,,
,,,,,,,,,5d39c0babc321100010a4526,31,Kobieta,2022-05-28_09h30.59.837,task,2021.1.4,Win32,60.15761295,628b806c463b948bc644b84f,6291cf9d9bf969ddb5b754fd,,,,,,,,,,,,lvtt,"[""l"",""v"",""t"",""t""]","[1.0638000000119519,1.6124000000059482,1.887300000011919,2.0519000000059577,2.84140000000599]",1,LVTT,9,0,9,0,1,,,,,,,,,,,,,,,,,,,,,,,,,,,,,,,,,,,,,,,,,,,,,,,,,,,,,,,,,,,,,,,,,,,,,,,,,,,,,,,,,,,
,,,,,,,,,5d39c0babc321100010a4526,31,Kobieta,2022-05-28_09h30.59.837,task,2021.1.4,Win32,60.15761295,628b806c463b948bc644b84f,6291cf9d9bf969ddb5b754fd,,,,,,0,0,0,0,1,"X V Q F H G B L J M P D K C T S W R N Z
",,,,,,,,,,,,,,,,,,,,,,,,,,,,,,,,,,,,,,,,,,,,,,,,,,,,,,,,,,,,,,,,,,,,,,,,,,,,,,,,,,,,,,,,,,,,,
,,,,,,,,,5d39c0babc321100010a4526,31,Kobieta,2022-05-28_09h30.59.837,task,2021.1.4,Win32,60.15761295,628b806c463b948bc644b84f,6291cf9d9bf969ddb5b754fd,,,,,,1,0,1,0,1,"X V Q F H G B L J M P D K C T S W R N Z
",,,,,,,,,,,,,,,,,,,,,,,,,,,,,,,,,,,,,,,,,,,,,,,,,,,,,,,,,,,,,,,,,,,,,,,,,,,,,,,,,,,,,,,,,,,,,
,,,,,,,,,5d39c0babc321100010a4526,31,Kobieta,2022-05-28_09h30.59.837,task,2021.1.4,Win32,60.15761295,628b806c463b948bc644b84f,6291cf9d9bf969ddb5b754fd,,,,,,2,0,2,0,1,"X V Q F H G B L J M P D K C T S W R N Z
",,,,,,,,,,,,,,,,,,,,,,,,,,,,,,,,,,,,,,,,,,,,,,,,,,,,,,,,,,,,,,,,,,,,,,,,,,,,,,,,,,,,,,,,,,,,,
,,,,,,,,,5d39c0babc321100010a4526,31,Kobieta,2022-05-28_09h30.59.837,task,2021.1.4,Win32,60.15761295,628b806c463b948bc644b84f,6291cf9d9bf969ddb5b754fd,,,,,,3,0,3,0,1,"X V Q F H G B L J M P D K C T S W R N Z
",,,,,,,,,,,,,,,,,,,,,,,,,,,,,,,,,,,,,,,,,,,,,,,,,,,,,,,,,,,,,,,,,,,,,,,,,,,,,,,,,,,,,,,,,,,,,
,,,,,,,,,5d39c0babc321100010a4526,31,Kobieta,2022-05-28_09h30.59.837,task,2021.1.4,Win32,60.15761295,628b806c463b948bc644b84f,6291cf9d9bf969ddb5b754fd,,,,,,4,0,4,0,1,"X V Q F H G B L J M P D K C T S W R N Z
",,,,,,,,,,,,,,,,,,,,,,,,,,,,,,,,,,,,,,,,,,,,,,,,,,,,,,,,,,,,,,,,,,,,,,,,,,,,,,,,,,,,,,,,,,,,,
,,,,,,,,,5d39c0babc321100010a4526,31,Kobieta,2022-05-28_09h30.59.837,task,2021.1.4,Win32,60.15761295,628b806c463b948bc644b84f,6291cf9d9bf969ddb5b754fd,,,,,,,,,,,,wqjqv,"[""w"",""q"",""j"",""q"",""v""]","[3.129400000006001,3.548900000005972,4.518000000000029,5.171400000005974,6.216900000005978,7.0482999999821345]",1,WQJQV,10,0,10,0,1,,,,,,,,,,,,,,,,,,,,,,,,,,,,,,,,,,,,,,,,,,,,,,,,,,,,,,,,,,,,,,,,,,,,,,,,,,,,,,,,,,,
,,,,,,,,,5d39c0babc321100010a4526,31,Kobieta,2022-05-28_09h30.59.837,task,2021.1.4,Win32,60.15761295,628b806c463b948bc644b84f,6291cf9d9bf969ddb5b754fd,,,,,,0,0,0,0,1,"X V Q F H G B L J M P D K C T S W R N Z
",,,,,,,,,,,,,,,,,,,,,,,,,,,,,,,,,,,,,,,,,,,,,,,,,,,,,,,,,,,,,,,,,,,,,,,,,,,,,,,,,,,,,,,,,,,,,
,,,,,,,,,5d39c0babc321100010a4526,31,Kobieta,2022-05-28_09h30.59.837,task,2021.1.4,Win32,60.15761295,628b806c463b948bc644b84f,6291cf9d9bf969ddb5b754fd,,,,,,1,0,1,0,1,"X V Q F H G B L J M P D K C T S W R N Z
",,,,,,,,,,,,,,,,,,,,,,,,,,,,,,,,,,,,,,,,,,,,,,,,,,,,,,,,,,,,,,,,,,,,,,,,,,,,,,,,,,,,,,,,,,,,,
,,,,,,,,,5d39c0babc321100010a4526,31,Kobieta,2022-05-28_09h30.59.837,task,2021.1.4,Win32,60.15761295,628b806c463b948bc644b84f,6291cf9d9bf969ddb5b754fd,,,,,,2,0,2,0,1,"X V Q F H G B L J M P D K C T S W R N Z
",,,,,,,,,,,,,,,,,,,,,,,,,,,,,,,,,,,,,,,,,,,,,,,,,,,,,,,,,,,,,,,,,,,,,,,,,,,,,,,,,,,,,,,,,,,,,
,,,,,,,,,5d39c0babc321100010a4526,31,Kobieta,2022-05-28_09h30.59.837,task,2021.1.4,Win32,60.15761295,628b806c463b948bc644b84f,6291cf9d9bf969ddb5b754fd,,,,,,3,0,3,0,1,"X V Q F H G B L J M P D K C T S W R N Z
",,,,,,,,,,,,,,,,,,,,,,,,,,,,,,,,,,,,,,,,,,,,,,,,,,,,,,,,,,,,,,,,,,,,,,,,,,,,,,,,,,,,,,,,,,,,,
,,,,,,,,,5d39c0babc321100010a4526,31,Kobieta,2022-05-28_09h30.59.837,task,2021.1.4,Win32,60.15761295,628b806c463b948bc644b84f,6291cf9d9bf969ddb5b754fd,,,,,,4,0,4,0,1,"X V Q F H G B L J M P D K C T S W R N Z
",,,,,,,,,,,,,,,,,,,,,,,,,,,,,,,,,,,,,,,,,,,,,,,,,,,,,,,,,,,,,,,,,,,,,,,,,,,,,,,,,,,,,,,,,,,,,
,,,,,,,,,5d39c0babc321100010a4526,31,Kobieta,2022-05-28_09h30.59.837,task,2021.1.4,Win32,60.15761295,628b806c463b948bc644b84f,6291cf9d9bf969ddb5b754fd,,,,,,,,,,,,xtjxh,"[""x"",""t"",""j"",""x"",""h""]","[1.8848000000119214,2.09790000000595,2.760499999999979,3.2895999999940386,3.8886999999880913,4.66519999998809]",1,XTJXH,11,0,11,0,1,,,,,,,,,,,,,,,,,,,,,,,,,,,,,,,,,,,,,,,,,,,,,,,,,,,,,,,,,,,,,,,,,,,,,,,,,,,,,,,,,,,
,,,,,,,,,5d39c0babc321100010a4526,31,Kobieta,2022-05-28_09h30.59.837,task,2021.1.4,Win32,60.15761295,628b806c463b948bc644b84f,6291cf9d9bf969ddb5b754fd,,,,,,0,0,0,0,1,"X V Q F H G B L J M P D K C T S W R N Z
",,,,,,,,,,,,,,,,,,,,,,,,,,,,,,,,,,,,,,,,,,,,,,,,,,,,,,,,,,,,,,,,,,,,,,,,,,,,,,,,,,,,,,,,,,,,,
,,,,,,,,,5d39c0babc321100010a4526,31,Kobieta,2022-05-28_09h30.59.837,task,2021.1.4,Win32,60.15761295,628b806c463b948bc644b84f,6291cf9d9bf969ddb5b754fd,,,,,,1,0,1,0,1,"X V Q F H G B L J M P D K C T S W R N Z
",,,,,,,,,,,,,,,,,,,,,,,,,,,,,,,,,,,,,,,,,,,,,,,,,,,,,,,,,,,,,,,,,,,,,,,,,,,,,,,,,,,,,,,,,,,,,
,,,,,,,,,5d39c0babc321100010a4526,31,Kobieta,2022-05-28_09h30.59.837,task,2021.1.4,Win32,60.15761295,628b806c463b948bc644b84f,6291cf9d9bf969ddb5b754fd,,,,,,2,0,2,0,1,"X V Q F H G B L J M P D K C T S W R N Z
",,,,,,,,,,,,,,,,,,,,,,,,,,,,,,,,,,,,,,,,,,,,,,,,,,,,,,,,,,,,,,,,,,,,,,,,,,,,,,,,,,,,,,,,,,,,,
,,,,,,,,,5d39c0babc321100010a4526,31,Kobieta,2022-05-28_09h30.59.837,task,2021.1.4,Win32,60.15761295,628b806c463b948bc644b84f,6291cf9d9bf969ddb5b754fd,,,,,,3,0,3,0,1,"X V Q F H G B L J M P D K C T S W R N Z
",,,,,,,,,,,,,,,,,,,,,,,,,,,,,,,,,,,,,,,,,,,,,,,,,,,,,,,,,,,,,,,,,,,,,,,,,,,,,,,,,,,,,,,,,,,,,
,,,,,,,,,5d39c0babc321100010a4526,31,Kobieta,2022-05-28_09h30.59.837,task,2021.1.4,Win32,60.15761295,628b806c463b948bc644b84f,6291cf9d9bf969ddb5b754fd,,,,,,4,0,4,0,1,"X V Q F H G B L J M P D K C T S W R N Z
",,,,,,,,,,,,,,,,,,,,,,,,,,,,,,,,,,,,,,,,,,,,,,,,,,,,,,,,,,,,,,,,,,,,,,,,,,,,,,,,,,,,,,,,,,,,,
,,,,,,,,,5d39c0babc321100010a4526,31,Kobieta,2022-05-28_09h30.59.837,task,2021.1.4,Win32,60.15761295,628b806c463b948bc644b84f,6291cf9d9bf969ddb5b754fd,,,,,,5,0,5,0,1,"X V Q F H G B L J M P D K C T S W R N Z
",,,,,,,,,,,,,,,,,,,,,,,,,,,,,,,,,,,,,,,,,,,,,,,,,,,,,,,,,,,,,,,,,,,,,,,,,,,,,,,,,,,,,,,,,,,,,
,,,,,,,,,5d39c0babc321100010a4526,31,Kobieta,2022-05-28_09h30.59.837,task,2021.1.4,Win32,60.15761295,628b806c463b948bc644b84f,6291cf9d9bf969ddb5b754fd,,,,,,,,,,,,kzd,"[""k"",""z"",""d""]","[1.261000000000024,1.7564000000059536,1.95420000001792,4.7309999999999945]",0,"KZ
DCFB",12,0,12,0,1,,,,,,,,,,,,,,,,,,,,,,,,,,,,,,,,,,,,,,,,,,,,,,,,,,,,,,,,,,,,,,,,,,,,,,,,,,,,,,,,,,,
,,,,,,,,,5d39c0babc321100010a4526,31,Kobieta,2022-05-28_09h30.59.837,task,2021.1.4,Win32,60.15761295,628b806c463b948bc644b84f,6291cf9d9bf969ddb5b754fd,,,,,,0,0,0,0,1,"X V Q F H G B L J M P D K C T S W R N Z
",,,,,,,,,,,,,,,,,,,,,,,,,,,,,,,,,,,,,,,,,,,,,,,,,,,,,,,,,,,,,,,,,,,,,,,,,,,,,,,,,,,,,,,,,,,,,
,,,,,,,,,5d39c0babc321100010a4526,31,Kobieta,2022-05-28_09h30.59.837,task,2021.1.4,Win32,60.15761295,628b806c463b948bc644b84f,6291cf9d9bf969ddb5b754fd,,,,,,1,0,1,0,1,"X V Q F H G B L J M P D K C T S W R N Z
",,,,,,,,,,,,,,,,,,,,,,,,,,,,,,,,,,,,,,,,,,,,,,,,,,,,,,,,,,,,,,,,,,,,,,,,,,,,,,,,,,,,,,,,,,,,,
,,,,,,,,,5d39c0babc321100010a4526,31,Kobieta,2022-05-28_09h30.59.837,task,2021.1.4,Win32,60.15761295,628b806c463b948bc644b84f,6291cf9d9bf969ddb5b754fd,,,,,,2,0,2,0,1,"X V Q F H G B L J M P D K C T S W R N Z
",,,,,,,,,,,,,,,,,,,,,,,,,,,,,,,,,,,,,,,,,,,,,,,,,,,,,,,,,,,,,,,,,,,,,,,,,,,,,,,,,,,,,,,,,,,,,
,,,,,,,,,5d39c0babc321100010a4526,31,Kobieta,2022-05-28_09h30.59.837,task,2021.1.4,Win32,60.15761295,628b806c463b948bc644b84f,6291cf9d9bf969ddb5b754fd,,,,,,3,0,3,0,1,"X V Q F H G B L J M P D K C T S W R N Z
",,,,,,,,,,,,,,,,,,,,,,,,,,,,,,,,,,,,,,,,,,,,,,,,,,,,,,,,,,,,,,,,,,,,,,,,,,,,,,,,,,,,,,,,,,,,,
,,,,,,,,,5d39c0babc321100010a4526,31,Kobieta,2022-05-28_09h30.59.837,task,2021.1.4,Win32,60.15761295,628b806c463b948bc644b84f,6291cf9d9bf969ddb5b754fd,,,,,,4,0,4,0,1,"X V Q F H G B L J M P D K C T S W R N Z
",,,,,,,,,,,,,,,,,,,,,,,,,,,,,,,,,,,,,,,,,,,,,,,,,,,,,,,,,,,,,,,,,,,,,,,,,,,,,,,,,,,,,,,,,,,,,
,,,,,,,,,5d39c0babc321100010a4526,31,Kobieta,2022-05-28_09h30.59.837,task,2021.1.4,Win32,60.15761295,628b806c463b948bc644b84f,6291cf9d9bf969ddb5b754fd,,,,,,5,0,5,0,1,"X V Q F H G B L J M P D K C T S W R N Z
",,,,,,,,,,,,,,,,,,,,,,,,,,,,,,,,,,,,,,,,,,,,,,,,,,,,,,,,,,,,,,,,,,,,,,,,,,,,,,,,,,,,,,,,,,,,,
,,,,,,,,,5d39c0babc321100010a4526,31,Kobieta,2022-05-28_09h30.59.837,task,2021.1.4,Win32,60.15761295,628b806c463b948bc644b84f,6291cf9d9bf969ddb5b754fd,,,,,,,,,,,,wsfvd,"[""w"",""s"",""f"",""v"",""d""]","[1.762700000017844,2.1553000000118914,2.987800000011873,3.797700000017869,4.431300000011902,5.011900000005937]",0,WSFVDH,13,0,13,0,1,,,,,,,,,,,,,,,,,,,,,,,,,,,,,,,,,,,,,,,,,,,,,,,,,,,,,,,,,,,,,,,,,,,,,,,,,,,,,,,,,,,
,,,,,,,,,5d39c0babc321100010a4526,31,Kobieta,2022-05-28_09h30.59.837,task,2021.1.4,Win32,60.15761295,628b806c463b948bc644b84f,6291cf9d9bf969ddb5b754fd,,,,,,0,0,0,0,1,"X V Q F H G B L J M P D K C T S W R N Z
",,,,,,,,,,,,,,,,,,,,,,,,,,,,,,,,,,,,,,,,,,,,,,,,,,,,,,,,,,,,,,,,,,,,,,,,,,,,,,,,,,,,,,,,,,,,,
,,,,,,,,,5d39c0babc321100010a4526,31,Kobieta,2022-05-28_09h30.59.837,task,2021.1.4,Win32,60.15761295,628b806c463b948bc644b84f,6291cf9d9bf969ddb5b754fd,,,,,,1,0,1,0,1,"X V Q F H G B L J M P D K C T S W R N Z
",,,,,,,,,,,,,,,,,,,,,,,,,,,,,,,,,,,,,,,,,,,,,,,,,,,,,,,,,,,,,,,,,,,,,,,,,,,,,,,,,,,,,,,,,,,,,
,,,,,,,,,5d39c0babc321100010a4526,31,Kobieta,2022-05-28_09h30.59.837,task,2021.1.4,Win32,60.15761295,628b806c463b948bc644b84f,6291cf9d9bf969ddb5b754fd,,,,,,2,0,2,0,1,"X V Q F H G B L J M P D K C T S W R N Z
",,,,,,,,,,,,,,,,,,,,,,,,,,,,,,,,,,,,,,,,,,,,,,,,,,,,,,,,,,,,,,,,,,,,,,,,,,,,,,,,,,,,,,,,,,,,,
,,,,,,,,,5d39c0babc321100010a4526,31,Kobieta,2022-05-28_09h30.59.837,task,2021.1.4,Win32,60.15761295,628b806c463b948bc644b84f,6291cf9d9bf969ddb5b754fd,,,,,,3,0,3,0,1,"X V Q F H G B L J M P D K C T S W R N Z
",,,,,,,,,,,,,,,,,,,,,,,,,,,,,,,,,,,,,,,,,,,,,,,,,,,,,,,,,,,,,,,,,,,,,,,,,,,,,,,,,,,,,,,,,,,,,
,,,,,,,,,5d39c0babc321100010a4526,31,Kobieta,2022-05-28_09h30.59.837,task,2021.1.4,Win32,60.15761295,628b806c463b948bc644b84f,6291cf9d9bf969ddb5b754fd,,,,,,4,0,4,0,1,"X V Q F H G B L J M P D K C T S W R N Z
",,,,,,,,,,,,,,,,,,,,,,,,,,,,,,,,,,,,,,,,,,,,,,,,,,,,,,,,,,,,,,,,,,,,,,,,,,,,,,,,,,,,,,,,,,,,,
,,,,,,,,,5d39c0babc321100010a4526,31,Kobieta,2022-05-28_09h30.59.837,task,2021.1.4,Win32,60.15761295,628b806c463b948bc644b84f,6291cf9d9bf969ddb5b754fd,,,,,,5,0,5,0,1,"X V Q F H G B L J M P D K C T S W R N Z
",,,,,,,,,,,,,,,,,,,,,,,,,,,,,,,,,,,,,,,,,,,,,,,,,,,,,,,,,,,,,,,,,,,,,,,,,,,,,,,,,,,,,,,,,,,,,
,,,,,,,,,5d39c0babc321100010a4526,31,Kobieta,2022-05-28_09h30.59.837,task,2021.1.4,Win32,60.15761295,628b806c463b948bc644b84f,6291cf9d9bf969ddb5b754fd,,,,,,,,,,,,fblmsv,"[""f"",""b"",""l"",""m"",""s"",""v""]","[2.1236000000238278,2.404200000017852,3.0491000000238273,3.271800000011865,3.71720000001784,4.489800000011883,5.300100000023804]",1,FBLMSV,14,0,14,0,1,,,,,,,,,,,,,,,,,,,,,,,,,,,,,,,,,,,,,,,,,,,,,,,,,,,,,,,,,,,,,,,,,,,,,,,,,,,,,,,,,,,
,,,,,,,,,5d39c0babc321100010a4526,31,Kobieta,2022-05-28_09h30.59.837,task,2021.1.4,Win32,60.15761295,628b806c463b948bc644b84f,6291cf9d9bf969ddb5b754fd,,,,,,0,0,0,0,1,"X V Q F H G B L J M P D K C T S W R N Z
",,,,,,,,,,,,,,,,,,,,,,,,,,,,,,,,,,,,,,,,,,,,,,,,,,,,,,,,,,,,,,,,,,,,,,,,,,,,,,,,,,,,,,,,,,,,,
,,,,,,,,,5d39c0babc321100010a4526,31,Kobieta,2022-05-28_09h30.59.837,task,2021.1.4,Win32,60.15761295,628b806c463b948bc644b84f,6291cf9d9bf969ddb5b754fd,,,,,,1,0,1,0,1,"X V Q F H G B L J M P D K C T S W R N Z
",,,,,,,,,,,,,,,,,,,,,,,,,,,,,,,,,,,,,,,,,,,,,,,,,,,,,,,,,,,,,,,,,,,,,,,,,,,,,,,,,,,,,,,,,,,,,
,,,,,,,,,5d39c0babc321100010a4526,31,Kobieta,2022-05-28_09h30.59.837,task,2021.1.4,Win32,60.15761295,628b806c463b948bc644b84f,6291cf9d9bf969ddb5b754fd,,,,,,2,0,2,0,1,"X V Q F H G B L J M P D K C T S W R N Z
",,,,,,,,,,,,,,,,,,,,,,,,,,,,,,,,,,,,,,,,,,,,,,,,,,,,,,,,,,,,,,,,,,,,,,,,,,,,,,,,,,,,,,,,,,,,,
,,,,,,,,,5d39c0babc321100010a4526,31,Kobieta,2022-05-28_09h30.59.837,task,2021.1.4,Win32,60.15761295,628b806c463b948bc644b84f,6291cf9d9bf969ddb5b754fd,,,,,,3,0,3,0,1,"X V Q F H G B L J M P D K C T S W R N Z
",,,,,,,,,,,,,,,,,,,,,,,,,,,,,,,,,,,,,,,,,,,,,,,,,,,,,,,,,,,,,,,,,,,,,,,,,,,,,,,,,,,,,,,,,,,,,
,,,,,,,,,5d39c0babc321100010a4526,31,Kobieta,2022-05-28_09h30.59.837,task,2021.1.4,Win32,60.15761295,628b806c463b948bc644b84f,6291cf9d9bf969ddb5b754fd,,,,,,4,0,4,0,1,"X V Q F H G B L J M P D K C T S W R N Z
",,,,,,,,,,,,,,,,,,,,,,,,,,,,,,,,,,,,,,,,,,,,,,,,,,,,,,,,,,,,,,,,,,,,,,,,,,,,,,,,,,,,,,,,,,,,,
,,,,,,,,,5d39c0babc321100010a4526,31,Kobieta,2022-05-28_09h30.59.837,task,2021.1.4,Win32,60.15761295,628b806c463b948bc644b84f,6291cf9d9bf969ddb5b754fd,,,,,,5,0,5,0,1,"X V Q F H G B L J M P D K C T S W R N Z
",,,,,,,,,,,,,,,,,,,,,,,,,,,,,,,,,,,,,,,,,,,,,,,,,,,,,,,,,,,,,,,,,,,,,,,,,,,,,,,,,,,,,,,,,,,,,
,,,,,,,,,5d39c0babc321100010a4526,31,Kobieta,2022-05-28_09h30.59.837,task,2021.1.4,Win32,60.15761295,628b806c463b948bc644b84f,6291cf9d9bf969ddb5b754fd,,,,,,,,,,,,njvcqh,"[""n"",""j"",""v"",""c"",""q"",""h""]","[1.7715999999940664,2.0234000000059496,2.4404000000059796,2.85359999999406,3.531000000000006,4.221300000011922,6.061900000005949]",1,NJVCQH,15,0,15,0,1,,,,,,,,,,,,,,,,,,,,,,,,,,,,,,,,,,,,,,,,,,,,,,,,,,,,,,,,,,,,,,,,,,,,,,,,,,,,,,,,,,,
,,,,,,,,,5d39c0babc321100010a4526,31,Kobieta,2022-05-28_09h30.59.837,task,2021.1.4,Win32,60.15761295,628b806c463b948bc644b84f,6291cf9d9bf969ddb5b754fd,,,,,,0,0,0,0,1,"X V Q F H G B L J M P D K C T S W R N Z
",,,,,,,,,,,,,,,,,,,,,,,,,,,,,,,,,,,,,,,,,,,,,,,,,,,,,,,,,,,,,,,,,,,,,,,,,,,,,,,,,,,,,,,,,,,,,
,,,,,,,,,5d39c0babc321100010a4526,31,Kobieta,2022-05-28_09h30.59.837,task,2021.1.4,Win32,60.15761295,628b806c463b948bc644b84f,6291cf9d9bf969ddb5b754fd,,,,,,1,0,1,0,1,"X V Q F H G B L J M P D K C T S W R N Z
",,,,,,,,,,,,,,,,,,,,,,,,,,,,,,,,,,,,,,,,,,,,,,,,,,,,,,,,,,,,,,,,,,,,,,,,,,,,,,,,,,,,,,,,,,,,,
,,,,,,,,,5d39c0babc321100010a4526,31,Kobieta,2022-05-28_09h30.59.837,task,2021.1.4,Win32,60.15761295,628b806c463b948bc644b84f,6291cf9d9bf969ddb5b754fd,,,,,,2,0,2,0,1,"X V Q F H G B L J M P D K C T S W R N Z
",,,,,,,,,,,,,,,,,,,,,,,,,,,,,,,,,,,,,,,,,,,,,,,,,,,,,,,,,,,,,,,,,,,,,,,,,,,,,,,,,,,,,,,,,,,,,
,,,,,,,,,5d39c0babc321100010a4526,31,Kobieta,2022-05-28_09h30.59.837,task,2021.1.4,Win32,60.15761295,628b806c463b948bc644b84f,6291cf9d9bf969ddb5b754fd,,,,,,3,0,3,0,1,"X V Q F H G B L J M P D K C T S W R N Z
",,,,,,,,,,,,,,,,,,,,,,,,,,,,,,,,,,,,,,,,,,,,,,,,,,,,,,,,,,,,,,,,,,,,,,,,,,,,,,,,,,,,,,,,,,,,,
,,,,,,,,,5d39c0babc321100010a4526,31,Kobieta,2022-05-28_09h30.59.837,task,2021.1.4,Win32,60.15761295,628b806c463b948bc644b84f,6291cf9d9bf969ddb5b754fd,,,,,,4,0,4,0,1,"X V Q F H G B L J M P D K C T S W R N Z
",,,,,,,,,,,,,,,,,,,,,,,,,,,,,,,,,,,,,,,,,,,,,,,,,,,,,,,,,,,,,,,,,,,,,,,,,,,,,,,,,,,,,,,,,,,,,
,,,,,,,,,5d39c0babc321100010a4526,31,Kobieta,2022-05-28_09h30.59.837,task,2021.1.4,Win32,60.15761295,628b806c463b948bc644b84f,6291cf9d9bf969ddb5b754fd,,,,,,5,0,5,0,1,"X V Q F H G B L J M P D K C T S W R N Z
",,,,,,,,,,,,,,,,,,,,,,,,,,,,,,,,,,,,,,,,,,,,,,,,,,,,,,,,,,,,,,,,,,,,,,,,,,,,,,,,,,,,,,,,,,,,,
,,,,,,,,,5d39c0babc321100010a4526,31,Kobieta,2022-05-28_09h30.59.837,task,2021.1.4,Win32,60.15761295,628b806c463b948bc644b84f,6291cf9d9bf969ddb5b754fd,,,,,,6,0,6,0,1,"X V Q F H G B L J M P D K C T S W R N Z
",,,,,,,,,,,,,,,,,,,,,,,,,,,,,,,,,,,,,,,,,,,,,,,,,,,,,,,,,,,,,,,,,,,,,,,,,,,,,,,,,,,,,,,,,,,,,
,,,,,,,,,5d39c0babc321100010a4526,31,Kobieta,2022-05-28_09h30.59.837,task,2021.1.4,Win32,60.15761295,628b806c463b948bc644b84f,6291cf9d9bf969ddb5b754fd,,,,,,,,,,,,vdlsvdp,"[""v"",""d"",""l"",""s"",""v"",""d"",""p""]","[1.7845999999940432,2.1132999999820754,2.632399999976144,3.240299999982085,5.08489999997613,5.59609999999401,6.02239999997613,6.479999999999961]",0,VDLSLQP,16,0,16,0,1,,,,,,,,,,,,,,,,,,,,,,,,,,,,,,,,,,,,,,,,,,,,,,,,,,,,,,,,,,,,,,,,,,,,,,,,,,,,,,,,,,,
,,,,,,,,,5d39c0babc321100010a4526,31,Kobieta,2022-05-28_09h30.59.837,task,2021.1.4,Win32,60.15761295,628b806c463b948bc644b84f,6291cf9d9bf969ddb5b754fd,,,,,,0,0,0,0,1,"X V Q F H G B L J M P D K C T S W R N Z
",,,,,,,,,,,,,,,,,,,,,,,,,,,,,,,,,,,,,,,,,,,,,,,,,,,,,,,,,,,,,,,,,,,,,,,,,,,,,,,,,,,,,,,,,,,,,
,,,,,,,,,5d39c0babc321100010a4526,31,Kobieta,2022-05-28_09h30.59.837,task,2021.1.4,Win32,60.15761295,628b806c463b948bc644b84f,6291cf9d9bf969ddb5b754fd,,,,,,1,0,1,0,1,"X V Q F H G B L J M P D K C T S W R N Z
",,,,,,,,,,,,,,,,,,,,,,,,,,,,,,,,,,,,,,,,,,,,,,,,,,,,,,,,,,,,,,,,,,,,,,,,,,,,,,,,,,,,,,,,,,,,,
,,,,,,,,,5d39c0babc321100010a4526,31,Kobieta,2022-05-28_09h30.59.837,task,2021.1.4,Win32,60.15761295,628b806c463b948bc644b84f,6291cf9d9bf969ddb5b754fd,,,,,,2,0,2,0,1,"X V Q F H G B L J M P D K C T S W R N Z
",,,,,,,,,,,,,,,,,,,,,,,,,,,,,,,,,,,,,,,,,,,,,,,,,,,,,,,,,,,,,,,,,,,,,,,,,,,,,,,,,,,,,,,,,,,,,
,,,,,,,,,5d39c0babc321100010a4526,31,Kobieta,2022-05-28_09h30.59.837,task,2021.1.4,Win32,60.15761295,628b806c463b948bc644b84f,6291cf9d9bf969ddb5b754fd,,,,,,3,0,3,0,1,"X V Q F H G B L J M P D K C T S W R N Z
",,,,,,,,,,,,,,,,,,,,,,,,,,,,,,,,,,,,,,,,,,,,,,,,,,,,,,,,,,,,,,,,,,,,,,,,,,,,,,,,,,,,,,,,,,,,,
,,,,,,,,,5d39c0babc321100010a4526,31,Kobieta,2022-05-28_09h30.59.837,task,2021.1.4,Win32,60.15761295,628b806c463b948bc644b84f,6291cf9d9bf969ddb5b754fd,,,,,,4,0,4,0,1,"X V Q F H G B L J M P D K C T S W R N Z
",,,,,,,,,,,,,,,,,,,,,,,,,,,,,,,,,,,,,,,,,,,,,,,,,,,,,,,,,,,,,,,,,,,,,,,,,,,,,,,,,,,,,,,,,,,,,
,,,,,,,,,5d39c0babc321100010a4526,31,Kobieta,2022-05-28_09h30.59.837,task,2021.1.4,Win32,60.15761295,628b806c463b948bc644b84f,6291cf9d9bf969ddb5b754fd,,,,,,5,0,5,0,1,"X V Q F H G B L J M P D K C T S W R N Z
",,,,,,,,,,,,,,,,,,,,,,,,,,,,,,,,,,,,,,,,,,,,,,,,,,,,,,,,,,,,,,,,,,,,,,,,,,,,,,,,,,,,,,,,,,,,,
,,,,,,,,,5d39c0babc321100010a4526,31,Kobieta,2022-05-28_09h30.59.837,task,2021.1.4,Win32,60.15761295,628b806c463b948bc644b84f,6291cf9d9bf969ddb5b754fd,,,,,,6,0,6,0,1,"X V Q F H G B L J M P D K C T S W R N Z
",,,,,,,,,,,,,,,,,,,,,,,,,,,,,,,,,,,,,,,,,,,,,,,,,,,,,,,,,,,,,,,,,,,,,,,,,,,,,,,,,,,,,,,,,,,,,
,,,,,,,,,5d39c0babc321100010a4526,31,Kobieta,2022-05-28_09h30.59.837,task,2021.1.4,Win32,60.15761295,628b806c463b948bc644b84f,6291cf9d9bf969ddb5b754fd,,,,,,,,,,,,kfwn,"[""k"",""f"",""w"",""n""]","[2.131599999994137,2.6150999999940723,4.955099999994104,5.898500000000013,6.19500000000005]",0,KFWNBHK,17,0,17,0,1,,,,,,,,,,,,,,,,,,,,,,,,,,,,,,,,,,,,,,,,,,,,,,,,,,,,,,,,,,,,,,,,,,,,,,,,,,,,,,,,,,,
,,,,,,,,,5d39c0babc321100010a4526,31,Kobieta,2022-05-28_09h30.59.837,task,2021.1.4,Win32,60.15761295,628b806c463b948bc644b84f,6291cf9d9bf969ddb5b754fd,,,,,,0,0,0,0,1,"X V Q F H G B L J M P D K C T S W R N Z
",,,,,,,,,,,,,,,,,,,,,,,,,,,,,,,,,,,,,,,,,,,,,,,,,,,,,,,,,,,,,,,,,,,,,,,,,,,,,,,,,,,,,,,,,,,,,
,,,,,,,,,5d39c0babc321100010a4526,31,Kobieta,2022-05-28_09h30.59.837,task,2021.1.4,Win32,60.15761295,628b806c463b948bc644b84f,6291cf9d9bf969ddb5b754fd,,,,,,1,0,1,0,1,"X V Q F H G B L J M P D K C T S W R N Z
",,,,,,,,,,,,,,,,,,,,,,,,,,,,,,,,,,,,,,,,,,,,,,,,,,,,,,,,,,,,,,,,,,,,,,,,,,,,,,,,,,,,,,,,,,,,,
,,,,,,,,,5d39c0babc321100010a4526,31,Kobieta,2022-05-28_09h30.59.837,task,2021.1.4,Win32,60.15761295,628b806c463b948bc644b84f,6291cf9d9bf969ddb5b754fd,,,,,,2,0,2,0,1,"X V Q F H G B L J M P D K C T S W R N Z
",,,,,,,,,,,,,,,,,,,,,,,,,,,,,,,,,,,,,,,,,,,,,,,,,,,,,,,,,,,,,,,,,,,,,,,,,,,,,,,,,,,,,,,,,,,,,
,,,,,,,,,5d39c0babc321100010a4526,31,Kobieta,2022-05-28_09h30.59.837,task,2021.1.4,Win32,60.15761295,628b806c463b948bc644b84f,6291cf9d9bf969ddb5b754fd,,,,,,3,0,3,0,1,"X V Q F H G B L J M P D K C T S W R N Z
",,,,,,,,,,,,,,,,,,,,,,,,,,,,,,,,,,,,,,,,,,,,,,,,,,,,,,,,,,,,,,,,,,,,,,,,,,,,,,,,,,,,,,,,,,,,,
,,,,,,,,,5d39c0babc321100010a4526,31,Kobieta,2022-05-28_09h30.59.837,task,2021.1.4,Win32,60.15761295,628b806c463b948bc644b84f,6291cf9d9bf969ddb5b754fd,,,,,,4,0,4,0,1,"X V Q F H G B L J M P D K C T S W R N Z
",,,,,,,,,,,,,,,,,,,,,,,,,,,,,,,,,,,,,,,,,,,,,,,,,,,,,,,,,,,,,,,,,,,,,,,,,,,,,,,,,,,,,,,,,,,,,
,,,,,,,,,5d39c0babc321100010a4526,31,Kobieta,2022-05-28_09h30.59.837,task,2021.1.4,Win32,60.15761295,628b806c463b948bc644b84f,6291cf9d9bf969ddb5b754fd,,,,,,5,0,5,0,1,"X V Q F H G B L J M P D K C T S W R N Z
",,,,,,,,,,,,,,,,,,,,,,,,,,,,,,,,,,,,,,,,,,,,,,,,,,,,,,,,,,,,,,,,,,,,,,,,,,,,,,,,,,,,,,,,,,,,,
,,,,,,,,,5d39c0babc321100010a4526,31,Kobieta,2022-05-28_09h30.59.837,task,2021.1.4,Win32,60.15761295,628b806c463b948bc644b84f,6291cf9d9bf969ddb5b754fd,,,,,,6,0,6,0,1,"X V Q F H G B L J M P D K C T S W R N Z
",,,,,,,,,,,,,,,,,,,,,,,,,,,,,,,,,,,,,,,,,,,,,,,,,,,,,,,,,,,,,,,,,,,,,,,,,,,,,,,,,,,,,,,,,,,,,
,,,,,,,,,5d39c0babc321100010a4526,31,Kobieta,2022-05-28_09h30.59.837,task,2021.1.4,Win32,60.15761295,628b806c463b948bc644b84f,6291cf9d9bf969ddb5b754fd,,,,,,,,,,,,bbf,"[""b"",""b"",""f""]","[6.611199999988003,6.844099999994,7.205199999988054,10.911799999982122]",0,BBFPBQF,18,0,18,0,1,,,,,,,,,,,,,,,,,,,,,,,,,,,,,,,,,,,,,,,,,,,,,,,,,,,,,,,,,,,,,,,,,,,,,,,,,,,,,,,,,,,
,,,,,,,,,5d39c0babc321100010a4526,31,Kobieta,2022-05-28_09h30.59.837,task,2021.1.4,Win32,60.15761295,628b806c463b948bc644b84f,6291cf9d9bf969ddb5b754fd,,,,,,,,,,,,,,,,,,,,,,space,9.4814,3,"[""3""]",1,[4.332399999976133],[4.332399999976133],0,0,0,3,1,Practice,4,(8/4) + 1,3,,,,,,,,,,,,,,,,,,,,,,,,,,,,,,,,,,,,,,,,,,,,,,,,,,,,,,,,,,,,,,,,,,,
,,,,,,,,,5d39c0babc321100010a4526,31,Kobieta,2022-05-28_09h30.59.837,task,2021.1.4,Win32,60.15761295,628b806c463b948bc644b84f,6291cf9d9bf969ddb5b754fd,,,,,,,,,,,,,,,,,,,,,,,,7,"[""7""]",1,[3.687100000023861],"[4.332399999976133,3.687100000023861]",0,1,1,7,1,Practice,8,(5x5) - 18,7,,,,,,,,,,,,,,,,,,,,,,,,,,,,,,,,,,,,,,,,,,,,,,,,,,,,,,,,,,,,,,,,,,,
,,,,,,,,,5d39c0babc321100010a4526,31,Kobieta,2022-05-28_09h30.59.837,task,2021.1.4,Win32,60.15761295,628b806c463b948bc644b84f,6291cf9d9bf969ddb5b754fd,,,,,,,,,,,,,,,,,,,,,,,,1,"[""1""]",1,[2.1080999999940104],"[4.332399999976133,3.687100000023861,2.1080999999940104]",0,2,2,1,1,Practice,2,(4x4) - 15,1,,,,,,,,,,,,,,,,,,,,,,,,,,,,,,,,,,,,,,,,,,,,,,,,,,,,,,,,,,,,,,,,,,,
,,,,,,,,,5d39c0babc321100010a4526,31,Kobieta,2022-05-28_09h30.59.837,task,2021.1.4,Win32,60.15761295,628b806c463b948bc644b84f,6291cf9d9bf969ddb5b754fd,,,,,,,,,,,,,,,,,,,,,,,,5,"[""5""]",1,[3.016599999994014],"[4.332399999976133,3.687100000023861,2.1080999999940104,3.016599999994014]",0,3,3,5,1,Practice,6,(4/2) + 3,5,,,,,,,,,,,,,,,,,,,,,,,,,,,,,,,,,,,,,,,,,,,,,,,,,,,,,,,,,,,,,,,,,,,
,,,,,,,,,5d39c0babc321100010a4526,31,Kobieta,2022-05-28_09h30.59.837,task,2021.1.4,Win32,60.15761295,628b806c463b948bc644b84f,6291cf9d9bf969ddb5b754fd,,,,,,,,,,,,,,,,,,,,,,,,8,"[""8""]",1,[1.9508000000118955],"[4.332399999976133,3.687100000023861,2.1080999999940104,3.016599999994014,1.9508000000118955]",0,4,4,8,1,Practice,9,(3x3) - 1,8,,,,,,,,,,,,,,,,,,,,,,,,,,,,,,,,,,,,,,,,,,,,,,,,,,,,,,,,,,,,,,,,,,,
,,,,,,,,,5d39c0babc321100010a4526,31,Kobieta,2022-05-28_09h30.59.837,task,2021.1.4,Win32,60.15761295,628b806c463b948bc644b84f,6291cf9d9bf969ddb5b754fd,,,,,,,,,,,,,,,,,,,,,,,,2,"[""2""]",1,[2.5170000000000528],"[4.332399999976133,3.687100000023861,2.1080999999940104,3.016599999994014,1.9508000000118955,2.5170000000000528]",0,5,5,2,1,Practice,3,(4x4) - 14,2,,,,,,,,,,,,,,,,,,,,,,,,,,,,,,,,,,,,,,,,,,,,,,,,,,,,,,,,,,,,,,,,,,,
,,,,,,,,,5d39c0babc321100010a4526,31,Kobieta,2022-05-28_09h30.59.837,task,2021.1.4,Win32,60.15761295,628b806c463b948bc644b84f,6291cf9d9bf969ddb5b754fd,,,,,,,,,,,,,,,,,,,,,,,,9,"[""9""]",1,[1.9724000000060187],"[4.332399999976133,3.687100000023861,2.1080999999940104,3.016599999994014,1.9508000000118955,2.5170000000000528,1.9724000000060187]",0,6,6,9,1,Practice,10,(20/2) - 1,9,,,,,,,,,,,,,,,,,,,,,,,,,,,,,,,,,,,,,,,,,,,,,,,,,,,,,,,,,,,,,,,,,,,
,,,,,,,,,5d39c0babc321100010a4526,31,Kobieta,2022-05-28_09h30.59.837,task,2021.1.4,Win32,60.15761295,628b806c463b948bc644b84f,6291cf9d9bf969ddb5b754fd,,,,,,,,,,,,,,,,,,,,,,,,0,"[""0""]",1,[1.8205000000000382],"[4.332399999976133,3.687100000023861,2.1080999999940104,3.016599999994014,1.9508000000118955,2.5170000000000528,1.9724000000060187,1.8205000000000382]",0,7,7,0,1,Practice,1,(3x3) -  9,0,,,,,,,,,,,,,,,,,,,,,,,,,,,,,,,,,,,,,,,,,,,,,,,,,,,,,,,,,,,,,,,,,,,
,,,,,,,,,5d39c0babc321100010a4526,31,Kobieta,2022-05-28_09h30.59.837,task,2021.1.4,Win32,60.15761295,628b806c463b948bc644b84f,6291cf9d9bf969ddb5b754fd,,,,,,,,,,,,,,,,,,,,,,,,6,"[""6""]",1,[2.3009000000059814],"[4.332399999976133,3.687100000023861,2.1080999999940104,3.016599999994014,1.9508000000118955,2.5170000000000528,1.9724000000060187,1.8205000000000382,2.3009000000059814]",0,8,8,6,1,Practice,7,(25/5) + 1,6,,,,,,,,,,,,,,,,,,,,,,,,,,,,,,,,,,,,,,,,,,,,,,,,,,,,,,,,,,,,,,,,,,,
,,,,,,,,,5d39c0babc321100010a4526,31,Kobieta,2022-05-28_09h30.59.837,task,2021.1.4,Win32,60.15761295,628b806c463b948bc644b84f,6291cf9d9bf969ddb5b754fd,,,,,,,,,,,,,,,,,,,,,,,,4,"[""4""]",1,[2.7161999999881346],"[4.332399999976133,3.687100000023861,2.1080999999940104,3.016599999994014,1.9508000000118955,2.5170000000000528,1.9724000000060187,1.8205000000000382,2.3009000000059814,2.7161999999881346]",0,9,9,4,1,Practice,5,(2x6) - 8,4,,,,,,,,,,,,,,,,,,,,,,,,,,,,,,,,,,,,,,,,,,,,,,,,,,,,,,,,,,,,,,,,,,,
,,,,,,,,,5d39c0babc321100010a4526,31,Kobieta,2022-05-28_09h30.59.837,task,2021.1.4,Win32,60.15761295,628b806c463b948bc644b84f,6291cf9d9bf969ddb5b754fd,,,,,,,,,,,,,,,,,,,,,,,,,,,,,,,,,,,,,,1,26.422,1.761466667,13.87043588,0.961611005,4.24242306,space,1.8842,0,0,0,0,1,,,,,,,,,,,,,,,,,,,,,,,,,,,,,,,,,,,,,,,,,,,,,,,,,,,,,,
,,,,,,,,,5d39c0babc321100010a4526,31,Kobieta,2022-05-28_09h30.59.837,task,2021.1.4,Win32,60.15761295,628b806c463b948bc644b84f,6291cf9d9bf969ddb5b754fd,,,,,,,,,,,,,,,,,,,,,,,,4,,,,,,,,,,Practice,5,(2x6) - 8,4,,,,,,,,,,,,,,space,14.5016,"[""4""]",1,[3.461900000005926],1,0,0,0,4,1,,,,,,,,,,,,,,,,,,,,,,,,,,,,,,,,,,,,,,,,,,,
,,,,,,,,,5d39c0babc321100010a4526,31,Kobieta,2022-05-28_09h30.59.837,task,2021.1.4,Win32,60.15761295,628b806c463b948bc644b84f,6291cf9d9bf969ddb5b754fd,,,,,,,,,,,"X V Q F H G B L J M P D K C T S W R N Z
",,,,,,,,,,,,,,,,,,,,,,,,,,,,,,,,,,,,,,,,,,,,,,,,,,,0,0,0,0,1,,,,,,,,,,,,,,,,,,,,,,,,,,,,,,,,,,,,,,
,,,,,,,,,5d39c0babc321100010a4526,31,Kobieta,2022-05-28_09h30.59.837,task,2021.1.4,Win32,60.15761295,628b806c463b948bc644b84f,6291cf9d9bf969ddb5b754fd,,,,,,,,,,,,,,,,,,,,,,,,4,,,,,,,,,,Practice,5,(2x6) - 8,4,,,,,,,,,,,,,,,,"[""4""]",1,[3.667400000005955],1,0,0,0,4,1,,,,,,,,,,,,,,,,,,,,,,,,,,,,,,,,,,,,,,,,,,,
,,,,,,,,,5d39c0babc321100010a4526,31,Kobieta,2022-05-28_09h30.59.837,task,2021.1.4,Win32,60.15761295,628b806c463b948bc644b84f,6291cf9d9bf969ddb5b754fd,,,,,,,,,,,"X V Q F H G B L J M P D K C T S W R N Z
",,,,,,,,,,,,,,,,,,,,,,,,,,,,,,,,,,,,,,,,,,,,,,,,,,,1,0,1,0,1,,,,,,,,,,,,,,,,,,,,,,,,,,,,,,,,,,,,,,
,,,,,,,,,5d39c0babc321100010a4526,31,Kobieta,2022-05-28_09h30.59.837,task,2021.1.4,Win32,60.15761295,628b806c463b948bc644b84f,6291cf9d9bf969ddb5b754fd,,,,,,,,,,,,,,,,,,,,,,,,,,,,,,,,,,,,,,,,,,,,,,,,,,,,,,,,,,,,,,,,,,,zw,"[""z"",""w""]",0,"[2.4548000000119146,2.6609999999999445,4.053700000017898]",1,0,0,0,0,1,,,,,,,,,,,,,,,,,,,,,,,,,,,,
,,,,,,,,,5d39c0babc321100010a4526,31,Kobieta,2022-05-28_09h30.59.837,task,2021.1.4,Win32,60.15761295,628b806c463b948bc644b84f,6291cf9d9bf969ddb5b754fd,,,,,,,,,,,,,,,,,,,,,,,,5,,,,,,,,,,Practice,6,(4/2) + 3,5,,,,,,,,,,,,,,,,"[""5""]",1,[2.530599999994024],1,0,0,0,5,1,,,,,,,,,,,,,,,,,,,,,,,,,,,,,,,,,,,,,,,,,,,
,,,,,,,,,5d39c0babc321100010a4526,31,Kobieta,2022-05-28_09h30.59.837,task,2021.1.4,Win32,60.15761295,628b806c463b948bc644b84f,6291cf9d9bf969ddb5b754fd,,,,,,,,,,,"X V Q F H G B L J M P D K C T S W R N Z
",,,,,,,,,,,,,,,,,,,,,,,,,,,,,,,,,,,,,,,,,,,,,,,,,,,0,0,0,0,1,,,,,,,,,,,,,,,,,,,,,,,,,,,,,,,,,,,,,,
,,,,,,,,,5d39c0babc321100010a4526,31,Kobieta,2022-05-28_09h30.59.837,task,2021.1.4,Win32,60.15761295,628b806c463b948bc644b84f,6291cf9d9bf969ddb5b754fd,,,,,,,,,,,,,,,,,,,,,,,,5,,,,,,,,,,Practice,6,(4/2) + 3,5,,,,,,,,,,,,,,,,"[""5""]",1,[2.1829000000060432],1,0,0,0,5,1,,,,,,,,,,,,,,,,,,,,,,,,,,,,,,,,,,,,,,,,,,,
,,,,,,,,,5d39c0babc321100010a4526,31,Kobieta,2022-05-28_09h30.59.837,task,2021.1.4,Win32,60.15761295,628b806c463b948bc644b84f,6291cf9d9bf969ddb5b754fd,,,,,,,,,,,"X V Q F H G B L J M P D K C T S W R N Z
",,,,,,,,,,,,,,,,,,,,,,,,,,,,,,,,,,,,,,,,,,,,,,,,,,,1,0,1,0,1,,,,,,,,,,,,,,,,,,,,,,,,,,,,,,,,,,,,,,
,,,,,,,,,5d39c0babc321100010a4526,31,Kobieta,2022-05-28_09h30.59.837,task,2021.1.4,Win32,60.15761295,628b806c463b948bc644b84f,6291cf9d9bf969ddb5b754fd,,,,,,,,,,,,,,,,,,,,,,,,,,,,,,,,,,,,,,,,,,,,,,,,,,,,,,,,,,,,,,,,,,,sd,"[""s"",""d""]",0,"[1.7009000000059586,1.9172000000178286,2.656900000005976]",1,1,0,1,0,1,,,,,,,,,,,,,,,,,,,,,,,,,,,,
,,,,,,,,,5d39c0babc321100010a4526,31,Kobieta,2022-05-28_09h30.59.837,task,2021.1.4,Win32,60.15761295,628b806c463b948bc644b84f,6291cf9d9bf969ddb5b754fd,,,,,,,,,,,,,,,,,,,,,,,,0,,,,,,,,,,Practice,1,(3x3) -  9,0,,,,,,,,,,,,,,,,"[""0""]",1,[1.8845000000000027],1,0,0,0,0,1,,,,,,,,,,,,,,,,,,,,,,,,,,,,,,,,,,,,,,,,,,,
,,,,,,,,,5d39c0babc321100010a4526,31,Kobieta,2022-05-28_09h30.59.837,task,2021.1.4,Win32,60.15761295,628b806c463b948bc644b84f,6291cf9d9bf969ddb5b754fd,,,,,,,,,,,"X V Q F H G B L J M P D K C T S W R N Z
",,,,,,,,,,,,,,,,,,,,,,,,,,,,,,,,,,,,,,,,,,,,,,,,,,,0,0,0,0,1,,,,,,,,,,,,,,,,,,,,,,,,,,,,,,,,,,,,,,
,,,,,,,,,5d39c0babc321100010a4526,31,Kobieta,2022-05-28_09h30.59.837,task,2021.1.4,Win32,60.15761295,628b806c463b948bc644b84f,6291cf9d9bf969ddb5b754fd,,,,,,,,,,,,,,,,,,,,,,,,2,,,,,,,,,,Practice,3,(4x4) - 14,2,,,,,,,,,,,,,,,,"[""2""]",1,[2.166899999976181],1,0,0,0,2,1,,,,,,,,,,,,,,,,,,,,,,,,,,,,,,,,,,,,,,,,,,,
,,,,,,,,,5d39c0babc321100010a4526,31,Kobieta,2022-05-28_09h30.59.837,task,2021.1.4,Win32,60.15761295,628b806c463b948bc644b84f,6291cf9d9bf969ddb5b754fd,,,,,,,,,,,"X V Q F H G B L J M P D K C T S W R N Z
",,,,,,,,,,,,,,,,,,,,,,,,,,,,,,,,,,,,,,,,,,,,,,,,,,,1,0,1,0,1,,,,,,,,,,,,,,,,,,,,,,,,,,,,,,,,,,,,,,
,,,,,,,,,5d39c0babc321100010a4526,31,Kobieta,2022-05-28_09h30.59.837,task,2021.1.4,Win32,60.15761295,628b806c463b948bc644b84f,6291cf9d9bf969ddb5b754fd,,,,,,,,,,,,,,,,,,,,,,,,,,,,,,,,,,,,,,,,,,,,,,,,,,,,,,,,,,,,,,,,,,,mx,"[""m"",""x""]",0,"[1.2511000000238255,1.7763000000119291,2.5976000000238173]",1,2,0,2,0,1,,,,,,,,,,,,,,,,,,,,,,,,,,,,
,,,,,,,,,5d39c0babc321100010a4526,31,Kobieta,2022-05-28_09h30.59.837,task,2021.1.4,Win32,60.15761295,628b806c463b948bc644b84f,6291cf9d9bf969ddb5b754fd,,,,,,,,,,,,,,,,,,,,,,,,2,,,,,,,,,,Task,19,(6/2) - 1,2,,,,,,,,,,,,,,,,,,,1,,,,,,,,,,,,,,,,,,,,,space,12.2641,"[""2""]",1,[2.866999999999962],0,0,0,18,1,,,,,,,,,,,,,,,,,,
,,,,,,,,,5d39c0babc321100010a4526,31,Kobieta,2022-05-28_09h30.59.837,task,2021.1.4,Win32,60.15761295,628b806c463b948bc644b84f,6291cf9d9bf969ddb5b754fd,,,,,,,,,,,"X V Q F H G B L J M P D K C T S W R N Z
",,,,,,,,,,,,,,,,,,,,,,,,,,,,,,,,,,,,,,,,,,,,,,,,,,,,,,,,,,,,,,,,,,,,,,,,,,,,0,0,0,0,1,,,,,,,,,,,,,
,,,,,,,,,5d39c0babc321100010a4526,31,Kobieta,2022-05-28_09h30.59.837,task,2021.1.4,Win32,60.15761295,628b806c463b948bc644b84f,6291cf9d9bf969ddb5b754fd,,,,,,,,,,,,,,,,,,,,,,,,1,,,,,,,,,,Task,34,(9/3) - 2,1,,,,,,,,,,,,,,,,,,,1,,,,,,,,,,,,,,,,,,,,,,,"[""1""]",1,[2.312000000000012],0,0,0,33,1,,,,,,,,,,,,,,,,,,
,,,,,,,,,5d39c0babc321100010a4526,31,Kobieta,2022-05-28_09h30.59.837,task,2021.1.4,Win32,60.15761295,628b806c463b948bc644b84f,6291cf9d9bf969ddb5b754fd,,,,,,,,,,,"X V Q F H G B L J M P D K C T S W R N Z
",,,,,,,,,,,,,,,,,,,,,,,,,,,,,,,,,,,,,,,,,,,,,,,,,,,,,,,,,,,,,,,,,,,,,,,,,,,,1,0,1,0,1,,,,,,,,,,,,,
,,,,,,,,,5d39c0babc321100010a4526,31,Kobieta,2022-05-28_09h30.59.837,task,2021.1.4,Win32,60.15761295,628b806c463b948bc644b84f,6291cf9d9bf969ddb5b754fd,,,,,,,,,,,,,,,,,,,,,,,,,,,,,,,,,,,,,,,,,,,,,,,,,,,,,,,,,,,,,,,,,,,,,,,,,,,,,,,,,,,,,,,,,,,,zp,"[""z"",""p""]",0,"[1.6605999999940195,2.25180000001194,2.9764999999999873]",1,ZP,0,0,0,0,1,,
,,,,,,,,,5d39c0babc321100010a4526,31,Kobieta,2022-05-28_09h30.59.837,task,2021.1.4,Win32,60.15761295,628b806c463b948bc644b84f,6291cf9d9bf969ddb5b754fd,,,,,,,,,,,,,,,,,,,,,,,,5,,,,,,,,,,Task,22,(3x1) + 2,5,,,,,,,,,,,,,,,,,,,1,,,,,,,,,,,,,,,,,,,,,,,"[""5""]",1,[2.332099999994057],0,0,0,21,1,,,,,,,,,,,,,,,,,,
,,,,,,,,,5d39c0babc321100010a4526,31,Kobieta,2022-05-28_09h30.59.837,task,2021.1.4,Win32,60.15761295,628b806c463b948bc644b84f,6291cf9d9bf969ddb5b754fd,,,,,,,,,,,"X V Q F H G B L J M P D K C T S W R N Z
",,,,,,,,,,,,,,,,,,,,,,,,,,,,,,,,,,,,,,,,,,,,,,,,,,,,,,,,,,,,,,,,,,,,,,,,,,,,0,0,0,0,1,,,,,,,,,,,,,
,,,,,,,,,5d39c0babc321100010a4526,31,Kobieta,2022-05-28_09h30.59.837,task,2021.1.4,Win32,60.15761295,628b806c463b948bc644b84f,6291cf9d9bf969ddb5b754fd,,,,,,,,,,,,,,,,,,,,,,,,4,,,,,,,,,,Task,11,(18/3) - 2,4,,,,,,,,,,,,,,,,,,,1,,,,,,,,,,,,,,,,,,,,,,,"[""4""]",1,[2.3620999999940295],0,0,0,10,1,,,,,,,,,,,,,,,,,,
,,,,,,,,,5d39c0babc321100010a4526,31,Kobieta,2022-05-28_09h30.59.837,task,2021.1.4,Win32,60.15761295,628b806c463b948bc644b84f,6291cf9d9bf969ddb5b754fd,,,,,,,,,,,"X V Q F H G B L J M P D K C T S W R N Z
",,,,,,,,,,,,,,,,,,,,,,,,,,,,,,,,,,,,,,,,,,,,,,,,,,,,,,,,,,,,,,,,,,,,,,,,,,,,1,0,1,0,1,,,,,,,,,,,,,
,,,,,,,,,5d39c0babc321100010a4526,31,Kobieta,2022-05-28_09h30.59.837,task,2021.1.4,Win32,60.15761295,628b806c463b948bc644b84f,6291cf9d9bf969ddb5b754fd,,,,,,,,,,,,,,,,,,,,,,,,0,,,,,,,,,,Task,8,(1x5) - 5,0,,,,,,,,,,,,,,,,,,,1,,,,,,,,,,,,,,,,,,,,,,,"[""0""]",1,[4.059499999999957],0,0,0,7,1,,,,,,,,,,,,,,,,,,
,,,,,,,,,5d39c0babc321100010a4526,31,Kobieta,2022-05-28_09h30.59.837,task,2021.1.4,Win32,60.15761295,628b806c463b948bc644b84f,6291cf9d9bf969ddb5b754fd,,,,,,,,,,,"X V Q F H G B L J M P D K C T S W R N Z
",,,,,,,,,,,,,,,,,,,,,,,,,,,,,,,,,,,,,,,,,,,,,,,,,,,,,,,,,,,,,,,,,,,,,,,,,,,,2,0,2,0,1,,,,,,,,,,,,,
,,,,,,,,,5d39c0babc321100010a4526,31,Kobieta,2022-05-28_09h30.59.837,task,2021.1.4,Win32,60.15761295,628b806c463b948bc644b84f,6291cf9d9bf969ddb5b754fd,,,,,,,,,,,,,,,,,,,,,,,,,,,,,,,,,,,,,,,,,,,,,,,,,,,,,,,,,,,,,,,,,,,,,,,,,,,,,,,,,,,,,,,,,,,,vtv,"[""v"",""t"",""v""]",0,"[2.141099999994026,2.4154000000060023,2.7261999999881255,3.553800000011961]",1,VTV,1,0,1,0,1,,
,,,,,,,,,5d39c0babc321100010a4526,31,Kobieta,2022-05-28_09h30.59.837,task,2021.1.4,Win32,60.15761295,628b806c463b948bc644b84f,6291cf9d9bf969ddb5b754fd,,,,,,,,,,,,,,,,,,,,,,,,6,,,,,,,,,,Task,30,(6/3) + 4 ,6,,,,,,,,,,,,,,,,,,,1,,,,,,,,,,,,,,,,,,,,,,,"[""6""]",1,[2.659999999999968],0,0,0,29,1,,,,,,,,,,,,,,,,,,
,,,,,,,,,5d39c0babc321100010a4526,31,Kobieta,2022-05-28_09h30.59.837,task,2021.1.4,Win32,60.15761295,628b806c463b948bc644b84f,6291cf9d9bf969ddb5b754fd,,,,,,,,,,,"X V Q F H G B L J M P D K C T S W R N Z
",,,,,,,,,,,,,,,,,,,,,,,,,,,,,,,,,,,,,,,,,,,,,,,,,,,,,,,,,,,,,,,,,,,,,,,,,,,,0,0,0,0,1,,,,,,,,,,,,,
,,,,,,,,,5d39c0babc321100010a4526,31,Kobieta,2022-05-28_09h30.59.837,task,2021.1.4,Win32,60.15761295,628b806c463b948bc644b84f,6291cf9d9bf969ddb5b754fd,,,,,,,,,,,,,,,,,,,,,,,,8,,,,,,,,,,Task,23,(2x3) + 2,8,,,,,,,,,,,,,,,,,,,1,,,,,,,,,,,,,,,,,,,,,,,"[""8""]",1,[2.127900000005866],0,0,0,22,1,,,,,,,,,,,,,,,,,,
,,,,,,,,,5d39c0babc321100010a4526,31,Kobieta,2022-05-28_09h30.59.837,task,2021.1.4,Win32,60.15761295,628b806c463b948bc644b84f,6291cf9d9bf969ddb5b754fd,,,,,,,,,,,"X V Q F H G B L J M P D K C T S W R N Z
",,,,,,,,,,,,,,,,,,,,,,,,,,,,,,,,,,,,,,,,,,,,,,,,,,,,,,,,,,,,,,,,,,,,,,,,,,,,1,0,1,0,1,,,,,,,,,,,,,
,,,,,,,,,5d39c0babc321100010a4526,31,Kobieta,2022-05-28_09h30.59.837,task,2021.1.4,Win32,60.15761295,628b806c463b948bc644b84f,6291cf9d9bf969ddb5b754fd,,,,,,,,,,,,,,,,,,,,,,,,5,,,,,,,,,,Task,12,(4x4) - 11,5,,,,,,,,,,,,,,,,,,,1,,,,,,,,,,,,,,,,,,,,,,,"[""5""]",1,[2.443499999999972],0,0,0,11,1,,,,,,,,,,,,,,,,,,
,,,,,,,,,5d39c0babc321100010a4526,31,Kobieta,2022-05-28_09h30.59.837,task,2021.1.4,Win32,60.15761295,628b806c463b948bc644b84f,6291cf9d9bf969ddb5b754fd,,,,,,,,,,,"X V Q F H G B L J M P D K C T S W R N Z
",,,,,,,,,,,,,,,,,,,,,,,,,,,,,,,,,,,,,,,,,,,,,,,,,,,,,,,,,,,,,,,,,,,,,,,,,,,,2,0,2,0,1,,,,,,,,,,,,,
,,,,,,,,,5d39c0babc321100010a4526,31,Kobieta,2022-05-28_09h30.59.837,task,2021.1.4,Win32,60.15761295,628b806c463b948bc644b84f,6291cf9d9bf969ddb5b754fd,,,,,,,,,,,,,,,,,,,,,,,,9,,,,,,,,,,Task,7,(3x7) - 12,9,,,,,,,,,,,,,,,,,,,1,,,,,,,,,,,,,,,,,,,,,,,"[""9""]",1,[2.6513999999760927],0,0,0,6,1,,,,,,,,,,,,,,,,,,
,,,,,,,,,5d39c0babc321100010a4526,31,Kobieta,2022-05-28_09h30.59.837,task,2021.1.4,Win32,60.15761295,628b806c463b948bc644b84f,6291cf9d9bf969ddb5b754fd,,,,,,,,,,,"X V Q F H G B L J M P D K C T S W R N Z
",,,,,,,,,,,,,,,,,,,,,,,,,,,,,,,,,,,,,,,,,,,,,,,,,,,,,,,,,,,,,,,,,,,,,,,,,,,,3,0,3,0,1,,,,,,,,,,,,,
,,,,,,,,,5d39c0babc321100010a4526,31,Kobieta,2022-05-28_09h30.59.837,task,2021.1.4,Win32,60.15761295,628b806c463b948bc644b84f,6291cf9d9bf969ddb5b754fd,,,,,,,,,,,,,,,,,,,,,,,,,,,,,,,,,,,,,,,,,,,,,,,,,,,,,,,,,,,,,,,,,,,,,,,,,,,,,,,,,,,,,,,,,,,,wzds,"[""w"",""z"",""d"",""s""]",0,"[1.9244999999999663,2.2509999999999764,2.5254000000059023,2.752999999999929,3.5724000000059277]",0,"WZ
DS",2,0,2,0,1,,
,,,,,,,,,5d39c0babc321100010a4526,31,Kobieta,2022-05-28_09h30.59.837,task,2021.1.4,Win32,60.15761295,628b806c463b948bc644b84f,6291cf9d9bf969ddb5b754fd,,,,,,,,,,,,,,,,,,,,,,,,,,,,,,,,,,Task,30,(6/3) + 4 ,6,,,,,,,,,,,,,,,,,,,0,,,,,,,,,,,,,,,,,,,,,,,,0,,0,0,0,29,1,,,,,,,,,,,,,,,,,,
,,,,,,,,,5d39c0babc321100010a4526,31,Kobieta,2022-05-28_09h30.59.837,task,2021.1.4,Win32,60.15761295,628b806c463b948bc644b84f,6291cf9d9bf969ddb5b754fd,,,,,,,,,,,,,,,,,,,,,,,,9,,,,,,,,,,Task,7,(3x7) - 12,9,,,,,,,,,,,,,,,,,,,1,,,,,,,,,,,,,,,,,,,,,,,"[""9""]",1,[2.234699999988152],0,1,1,6,1,,,,,,,,,,,,,,,,,,
,,,,,,,,,5d39c0babc321100010a4526,31,Kobieta,2022-05-28_09h30.59.837,task,2021.1.4,Win32,60.15761295,628b806c463b948bc644b84f,6291cf9d9bf969ddb5b754fd,,,,,,,,,,,"X V Q F H G B L J M P D K C T S W R N Z
",,,,,,,,,,,,,,,,,,,,,,,,,,,,,,,,,,,,,,,,,,,,,,,,,,,,,,,,,,,,,,,,,,,,,,,,,,,,0,0,0,0,1,,,,,,,,,,,,,
,,,,,,,,,5d39c0babc321100010a4526,31,Kobieta,2022-05-28_09h30.59.837,task,2021.1.4,Win32,60.15761295,628b806c463b948bc644b84f,6291cf9d9bf969ddb5b754fd,,,,,,,,,,,,,,,,,,,,,,,,5,,,,,,,,,,Task,29,(3x8) - 19 ,5,,,,,,,,,,,,,,,,,,,1,,,,,,,,,,,,,,,,,,,,,,,"[""5""]",1,[2.8835000000000264],0,0,0,28,1,,,,,,,,,,,,,,,,,,
,,,,,,,,,5d39c0babc321100010a4526,31,Kobieta,2022-05-28_09h30.59.837,task,2021.1.4,Win32,60.15761295,628b806c463b948bc644b84f,6291cf9d9bf969ddb5b754fd,,,,,,,,,,,"X V Q F H G B L J M P D K C T S W R N Z
",,,,,,,,,,,,,,,,,,,,,,,,,,,,,,,,,,,,,,,,,,,,,,,,,,,,,,,,,,,,,,,,,,,,,,,,,,,,1,0,1,0,1,,,,,,,,,,,,,
,,,,,,,,,5d39c0babc321100010a4526,31,Kobieta,2022-05-28_09h30.59.837,task,2021.1.4,Win32,60.15761295,628b806c463b948bc644b84f,6291cf9d9bf969ddb5b754fd,,,,,,,,,,,,,,,,,,,,,,,,9,,,,,,,,,,Task,7,(3x7) - 12,9,,,,,,,,,,,,,,,,,,,1,,,,,,,,,,,,,,,,,,,,,,,"[""9""]",1,[1.6004000000059477],0,0,0,6,1,,,,,,,,,,,,,,,,,,
,,,,,,,,,5d39c0babc321100010a4526,31,Kobieta,2022-05-28_09h30.59.837,task,2021.1.4,Win32,60.15761295,628b806c463b948bc644b84f,6291cf9d9bf969ddb5b754fd,,,,,,,,,,,"X V Q F H G B L J M P D K C T S W R N Z
",,,,,,,,,,,,,,,,,,,,,,,,,,,,,,,,,,,,,,,,,,,,,,,,,,,,,,,,,,,,,,,,,,,,,,,,,,,,2,0,2,0,1,,,,,,,,,,,,,
,,,,,,,,,5d39c0babc321100010a4526,31,Kobieta,2022-05-28_09h30.59.837,task,2021.1.4,Win32,60.15761295,628b806c463b948bc644b84f,6291cf9d9bf969ddb5b754fd,,,,,,,,,,,,,,,,,,,,,,,,4,,,,,,,,,,Task,21,(10/2) - 1,4,,,,,,,,,,,,,,,,,,,1,,,,,,,,,,,,,,,,,,,,,,,"[""4""]",1,[2.552500000000009],0,0,0,20,1,,,,,,,,,,,,,,,,,,
,,,,,,,,,5d39c0babc321100010a4526,31,Kobieta,2022-05-28_09h30.59.837,task,2021.1.4,Win32,60.15761295,628b806c463b948bc644b84f,6291cf9d9bf969ddb5b754fd,,,,,,,,,,,"X V Q F H G B L J M P D K C T S W R N Z
",,,,,,,,,,,,,,,,,,,,,,,,,,,,,,,,,,,,,,,,,,,,,,,,,,,,,,,,,,,,,,,,,,,,,,,,,,,,3,0,3,0,1,,,,,,,,,,,,,
,,,,,,,,,5d39c0babc321100010a4526,31,Kobieta,2022-05-28_09h30.59.837,task,2021.1.4,Win32,60.15761295,628b806c463b948bc644b84f,6291cf9d9bf969ddb5b754fd,,,,,,,,,,,,,,,,,,,,,,,,,,,,,,,,,,,,,,,,,,,,,,,,,,,,,,,,,,,,,,,,,,,,,,,,,,,,,,,,,,,,,,,,,,,,rths,"[""r"",""t"",""h"",""s""]",0,"[1.7742000000179132,2.278400000005945,2.7931000000238555,3.2598000000118645,4.166600000023777]",1,RTHS,3,0,3,0,1,,
,,,,,,,,,5d39c0babc321100010a4526,31,Kobieta,2022-05-28_09h30.59.837,task,2021.1.4,Win32,60.15761295,628b806c463b948bc644b84f,6291cf9d9bf969ddb5b754fd,,,,,,,,,,,,,,,,,,,,,,,,2,,,,,,,,,,Task,10,(2x5) - 8,2,,,,,,,,,,,,,,,,,,,1,,,,,,,,,,,,,,,,,,,,,,,"[""2""]",1,[1.9027999999821077],0,0,0,9,1,,,,,,,,,,,,,,,,,,
,,,,,,,,,5d39c0babc321100010a4526,31,Kobieta,2022-05-28_09h30.59.837,task,2021.1.4,Win32,60.15761295,628b806c463b948bc644b84f,6291cf9d9bf969ddb5b754fd,,,,,,,,,,,"X V Q F H G B L J M P D K C T S W R N Z
",,,,,,,,,,,,,,,,,,,,,,,,,,,,,,,,,,,,,,,,,,,,,,,,,,,,,,,,,,,,,,,,,,,,,,,,,,,,0,0,0,0,1,,,,,,,,,,,,,
,,,,,,,,,5d39c0babc321100010a4526,31,Kobieta,2022-05-28_09h30.59.837,task,2021.1.4,Win32,60.15761295,628b806c463b948bc644b84f,6291cf9d9bf969ddb5b754fd,,,,,,,,,,,,,,,,,,,,,,,,3,,,,,,,,,,Task,26,(2x9) - 16,2,,,,,,,,,,,,,,,,,,,0,,,,,,,,,,,,,,,,,,,,,,,"[""3""]",0,[1.9389999999999645],0,0,0,25,1,,,,,,,,,,,,,,,,,,
,,,,,,,,,5d39c0babc321100010a4526,31,Kobieta,2022-05-28_09h30.59.837,task,2021.1.4,Win32,60.15761295,628b806c463b948bc644b84f,6291cf9d9bf969ddb5b754fd,,,,,,,,,,,,,,,,,,,,,,,,7,,,,,,,,,,Task,31,(4/2) + 5,7,,,,,,,,,,,,,,,,,,,1,,,,,,,,,,,,,,,,,,,,,,,"[""7""]",1,[3.0151000000238355],0,1,1,30,1,,,,,,,,,,,,,,,,,,
,,,,,,,,,5d39c0babc321100010a4526,31,Kobieta,2022-05-28_09h30.59.837,task,2021.1.4,Win32,60.15761295,628b806c463b948bc644b84f,6291cf9d9bf969ddb5b754fd,,,,,,,,,,,"X V Q F H G B L J M P D K C T S W R N Z
",,,,,,,,,,,,,,,,,,,,,,,,,,,,,,,,,,,,,,,,,,,,,,,,,,,,,,,,,,,,,,,,,,,,,,,,,,,,1,0,1,0,1,,,,,,,,,,,,,
,,,,,,,,,5d39c0babc321100010a4526,31,Kobieta,2022-05-28_09h30.59.837,task,2021.1.4,Win32,60.15761295,628b806c463b948bc644b84f,6291cf9d9bf969ddb5b754fd,,,,,,,,,,,,,,,,,,,,,,,,6,,,,,,,,,,Task,5,(2x3) + 0,6,,,,,,,,,,,,,,,,,,,1,,,,,,,,,,,,,,,,,,,,,,,"[""6""]",1,[1.9299000000060005],0,0,0,4,1,,,,,,,,,,,,,,,,,,
,,,,,,,,,5d39c0babc321100010a4526,31,Kobieta,2022-05-28_09h30.59.837,task,2021.1.4,Win32,60.15761295,628b806c463b948bc644b84f,6291cf9d9bf969ddb5b754fd,,,,,,,,,,,"X V Q F H G B L J M P D K C T S W R N Z
",,,,,,,,,,,,,,,,,,,,,,,,,,,,,,,,,,,,,,,,,,,,,,,,,,,,,,,,,,,,,,,,,,,,,,,,,,,,2,0,2,0,1,,,,,,,,,,,,,
,,,,,,,,,5d39c0babc321100010a4526,31,Kobieta,2022-05-28_09h30.59.837,task,2021.1.4,Win32,60.15761295,628b806c463b948bc644b84f,6291cf9d9bf969ddb5b754fd,,,,,,,,,,,,,,,,,,,,,,,,9,,,,,,,,,,Task,40,(7x2) - 5,9,,,,,,,,,,,,,,,,,,,1,,,,,,,,,,,,,,,,,,,,,,,"[""9""]",1,[2.4382999999821777],0,0,0,39,1,,,,,,,,,,,,,,,,,,
,,,,,,,,,5d39c0babc321100010a4526,31,Kobieta,2022-05-28_09h30.59.837,task,2021.1.4,Win32,60.15761295,628b806c463b948bc644b84f,6291cf9d9bf969ddb5b754fd,,,,,,,,,,,"X V Q F H G B L J M P D K C T S W R N Z
",,,,,,,,,,,,,,,,,,,,,,,,,,,,,,,,,,,,,,,,,,,,,,,,,,,,,,,,,,,,,,,,,,,,,,,,,,,,3,0,3,0,1,,,,,,,,,,,,,
,,,,,,,,,5d39c0babc321100010a4526,31,Kobieta,2022-05-28_09h30.59.837,task,2021.1.4,Win32,60.15761295,628b806c463b948bc644b84f,6291cf9d9bf969ddb5b754fd,,,,,,,,,,,,,,,,,,,,,,,,6,,,,,,,,,,Task,5,(2x3) + 0,6,,,,,,,,,,,,,,,,,,,1,,,,,,,,,,,,,,,,,,,,,,,"[""6""]",1,[1.799399999976231],0,0,0,4,1,,,,,,,,,,,,,,,,,,
,,,,,,,,,5d39c0babc321100010a4526,31,Kobieta,2022-05-28_09h30.59.837,task,2021.1.4,Win32,60.15761295,628b806c463b948bc644b84f,6291cf9d9bf969ddb5b754fd,,,,,,,,,,,"X V Q F H G B L J M P D K C T S W R N Z
",,,,,,,,,,,,,,,,,,,,,,,,,,,,,,,,,,,,,,,,,,,,,,,,,,,,,,,,,,,,,,,,,,,,,,,,,,,,4,0,4,0,1,,,,,,,,,,,,,
,,,,,,,,,5d39c0babc321100010a4526,31,Kobieta,2022-05-28_09h30.59.837,task,2021.1.4,Win32,60.15761295,628b806c463b948bc644b84f,6291cf9d9bf969ddb5b754fd,,,,,,,,,,,,,,,,,,,,,,,,,,,,,,,,,,,,,,,,,,,,,,,,,,,,,,,,,,,,,,,,,,,,,,,,,,,,,,,,,,,,,,,,,,,,lghmr,"[""l"",""g"",""h"",""m"",""r""]",0,"[2.0045999999940705,2.5262000000179796,3.0664000000060696,3.557400000006055,4.067800000011971,4.929800000011937]",1,LGHMR,4,0,4,0,1,,
,,,,,,,,,5d39c0babc321100010a4526,31,Kobieta,2022-05-28_09h30.59.837,task,2021.1.4,Win32,60.15761295,628b806c463b948bc644b84f,6291cf9d9bf969ddb5b754fd,,,,,,,,,,,,,,,,,,,,,,,,7,,,,,,,,,,Task,38,(4x6) - 17,7,,,,,,,,,,,,,,,,,,,1,,,,,,,,,,,,,,,,,,,,,,,"[""7""]",1,[3.0374000000059596],0,0,0,37,1,,,,,,,,,,,,,,,,,,
,,,,,,,,,5d39c0babc321100010a4526,31,Kobieta,2022-05-28_09h30.59.837,task,2021.1.4,Win32,60.15761295,628b806c463b948bc644b84f,6291cf9d9bf969ddb5b754fd,,,,,,,,,,,"X V Q F H G B L J M P D K C T S W R N Z
",,,,,,,,,,,,,,,,,,,,,,,,,,,,,,,,,,,,,,,,,,,,,,,,,,,,,,,,,,,,,,,,,,,,,,,,,,,,0,0,0,0,1,,,,,,,,,,,,,
,,,,,,,,,5d39c0babc321100010a4526,31,Kobieta,2022-05-28_09h30.59.837,task,2021.1.4,Win32,60.15761295,628b806c463b948bc644b84f,6291cf9d9bf969ddb5b754fd,,,,,,,,,,,,,,,,,,,,,,,,1,,,,,,,,,,Task,1,(12/6) - 1,1,,,,,,,,,,,,,,,,,,,1,,,,,,,,,,,,,,,,,,,,,,,"[""1""]",1,[2.665300000011939],0,0,0,0,1,,,,,,,,,,,,,,,,,,
,,,,,,,,,5d39c0babc321100010a4526,31,Kobieta,2022-05-28_09h30.59.837,task,2021.1.4,Win32,60.15761295,628b806c463b948bc644b84f,6291cf9d9bf969ddb5b754fd,,,,,,,,,,,"X V Q F H G B L J M P D K C T S W R N Z
",,,,,,,,,,,,,,,,,,,,,,,,,,,,,,,,,,,,,,,,,,,,,,,,,,,,,,,,,,,,,,,,,,,,,,,,,,,,1,0,1,0,1,,,,,,,,,,,,,
,,,,,,,,,5d39c0babc321100010a4526,31,Kobieta,2022-05-28_09h30.59.837,task,2021.1.4,Win32,60.15761295,628b806c463b948bc644b84f,6291cf9d9bf969ddb5b754fd,,,,,,,,,,,,,,,,,,,,,,,,6,,,,,,,,,,Task,37,(3/3) + 5,6,,,,,,,,,,,,,,,,,,,1,,,,,,,,,,,,,,,,,,,,,,,"[""6""]",1,[2.109699999988038],0,0,0,36,1,,,,,,,,,,,,,,,,,,
,,,,,,,,,5d39c0babc321100010a4526,31,Kobieta,2022-05-28_09h30.59.837,task,2021.1.4,Win32,60.15761295,628b806c463b948bc644b84f,6291cf9d9bf969ddb5b754fd,,,,,,,,,,,"X V Q F H G B L J M P D K C T S W R N Z
",,,,,,,,,,,,,,,,,,,,,,,,,,,,,,,,,,,,,,,,,,,,,,,,,,,,,,,,,,,,,,,,,,,,,,,,,,,,2,0,2,0,1,,,,,,,,,,,,,
,,,,,,,,,5d39c0babc321100010a4526,31,Kobieta,2022-05-28_09h30.59.837,task,2021.1.4,Win32,60.15761295,628b806c463b948bc644b84f,6291cf9d9bf969ddb5b754fd,,,,,,,,,,,,,,,,,,,,,,,,9,,,,,,,,,,Task,7,(3x7) - 12,9,,,,,,,,,,,,,,,,,,,1,,,,,,,,,,,,,,,,,,,,,,,"[""9""]",1,[2.5185000000000173],0,0,0,6,1,,,,,,,,,,,,,,,,,,
,,,,,,,,,5d39c0babc321100010a4526,31,Kobieta,2022-05-28_09h30.59.837,task,2021.1.4,Win32,60.15761295,628b806c463b948bc644b84f,6291cf9d9bf969ddb5b754fd,,,,,,,,,,,"X V Q F H G B L J M P D K C T S W R N Z
",,,,,,,,,,,,,,,,,,,,,,,,,,,,,,,,,,,,,,,,,,,,,,,,,,,,,,,,,,,,,,,,,,,,,,,,,,,,3,0,3,0,1,,,,,,,,,,,,,
,,,,,,,,,5d39c0babc321100010a4526,31,Kobieta,2022-05-28_09h30.59.837,task,2021.1.4,Win32,60.15761295,628b806c463b948bc644b84f,6291cf9d9bf969ddb5b754fd,,,,,,,,,,,,,,,,,,,,,,,,9,,,,,,,,,,Task,40,(7x2) - 5,9,,,,,,,,,,,,,,,,,,,1,,,,,,,,,,,,,,,,,,,,,,,"[""9""]",1,[2.6963999999761654],0,0,0,39,1,,,,,,,,,,,,,,,,,,
,,,,,,,,,5d39c0babc321100010a4526,31,Kobieta,2022-05-28_09h30.59.837,task,2021.1.4,Win32,60.15761295,628b806c463b948bc644b84f,6291cf9d9bf969ddb5b754fd,,,,,,,,,,,"X V Q F H G B L J M P D K C T S W R N Z
",,,,,,,,,,,,,,,,,,,,,,,,,,,,,,,,,,,,,,,,,,,,,,,,,,,,,,,,,,,,,,,,,,,,,,,,,,,,4,0,4,0,1,,,,,,,,,,,,,
,,,,,,,,,5d39c0babc321100010a4526,31,Kobieta,2022-05-28_09h30.59.837,task,2021.1.4,Win32,60.15761295,628b806c463b948bc644b84f,6291cf9d9bf969ddb5b754fd,,,,,,,,,,,,,,,,,,,,,,,,1,,,,,,,,,,Task,9,(3x7) - 20,1,,,,,,,,,,,,,,,,,,,1,,,,,,,,,,,,,,,,,,,,,,,"[""1""]",1,[2.611499999999978],0,0,0,8,1,,,,,,,,,,,,,,,,,,
,,,,,,,,,5d39c0babc321100010a4526,31,Kobieta,2022-05-28_09h30.59.837,task,2021.1.4,Win32,60.15761295,628b806c463b948bc644b84f,6291cf9d9bf969ddb5b754fd,,,,,,,,,,,"X V Q F H G B L J M P D K C T S W R N Z
",,,,,,,,,,,,,,,,,,,,,,,,,,,,,,,,,,,,,,,,,,,,,,,,,,,,,,,,,,,,,,,,,,,,,,,,,,,,5,0,5,0,1,,,,,,,,,,,,,
,,,,,,,,,5d39c0babc321100010a4526,31,Kobieta,2022-05-28_09h30.59.837,task,2021.1.4,Win32,60.15761295,628b806c463b948bc644b84f,6291cf9d9bf969ddb5b754fd,,,,,,,,,,,,,,,,,,,,,,,,,,,,,,,,,,,,,,,,,,,,,,,,,,,,,,,,,,,,,,,,,,,,,,,,,,,,,,,,,,,,,,,,,,,,fpgsvc,"[""f"",""p"",""g"",""s"",""v"",""c""]",0,"[1.8891999999880227,2.6211999999881073,3.2165999999940595,3.794099999994046,4.48989999997616,4.966899999976135,6.121099999994044]",1,FPGSVC,5,0,5,0,1,,
,,,,,,,,,5d39c0babc321100010a4526,31,Kobieta,2022-05-28_09h30.59.837,task,2021.1.4,Win32,60.15761295,628b806c463b948bc644b84f,6291cf9d9bf969ddb5b754fd,,,,,,,,,,,,,,,,,,,,,,,,5,,,,,,,,,,Task,29,(3x8) - 19 ,5,,,,,,,,,,,,,,,,,,,1,,,,,,,,,,,,,,,,,,,,,,,"[""5""]",1,[2.9225000000000136],0,0,0,28,1,,,,,,,,,,,,,,,,,,
,,,,,,,,,5d39c0babc321100010a4526,31,Kobieta,2022-05-28_09h30.59.837,task,2021.1.4,Win32,60.15761295,628b806c463b948bc644b84f,6291cf9d9bf969ddb5b754fd,,,,,,,,,,,"X V Q F H G B L J M P D K C T S W R N Z
",,,,,,,,,,,,,,,,,,,,,,,,,,,,,,,,,,,,,,,,,,,,,,,,,,,,,,,,,,,,,,,,,,,,,,,,,,,,0,0,0,0,1,,,,,,,,,,,,,
,,,,,,,,,5d39c0babc321100010a4526,31,Kobieta,2022-05-28_09h30.59.837,task,2021.1.4,Win32,60.15761295,628b806c463b948bc644b84f,6291cf9d9bf969ddb5b754fd,,,,,,,,,,,,,,,,,,,,,,,,8,,,,,,,,,,Task,23,(2x3) + 2,8,,,,,,,,,,,,,,,,,,,1,,,,,,,,,,,,,,,,,,,,,,,"[""8""]",1,[1.6178000000119255],0,0,0,22,1,,,,,,,,,,,,,,,,,,
,,,,,,,,,5d39c0babc321100010a4526,31,Kobieta,2022-05-28_09h30.59.837,task,2021.1.4,Win32,60.15761295,628b806c463b948bc644b84f,6291cf9d9bf969ddb5b754fd,,,,,,,,,,,"X V Q F H G B L J M P D K C T S W R N Z
",,,,,,,,,,,,,,,,,,,,,,,,,,,,,,,,,,,,,,,,,,,,,,,,,,,,,,,,,,,,,,,,,,,,,,,,,,,,1,0,1,0,1,,,,,,,,,,,,,
,,,,,,,,,5d39c0babc321100010a4526,31,Kobieta,2022-05-28_09h30.59.837,task,2021.1.4,Win32,60.15761295,628b806c463b948bc644b84f,6291cf9d9bf969ddb5b754fd,,,,,,,,,,,,,,,,,,,,,,,,8,,,,,,,,,,Task,32,(8/2) + 4,8,,,,,,,,,,,,,,,,,,,1,,,,,,,,,,,,,,,,,,,,,,,"[""8""]",1,[2.0860000000000127],0,0,0,31,1,,,,,,,,,,,,,,,,,,
,,,,,,,,,5d39c0babc321100010a4526,31,Kobieta,2022-05-28_09h30.59.837,task,2021.1.4,Win32,60.15761295,628b806c463b948bc644b84f,6291cf9d9bf969ddb5b754fd,,,,,,,,,,,"X V Q F H G B L J M P D K C T S W R N Z
",,,,,,,,,,,,,,,,,,,,,,,,,,,,,,,,,,,,,,,,,,,,,,,,,,,,,,,,,,,,,,,,,,,,,,,,,,,,2,0,2,0,1,,,,,,,,,,,,,
