key_resp_15.keys,key_resp_15.rt,key_resp_13.keys,key_resp_13.corr,key_resp_13.rt,ranodm_loop.thisRepN,ranodm_loop.thisTrialN,ranodm_loop.thisN,ranodm_loop.thisIndex,ranodm_loop.ran,participant,Wiek*,Płeć,date,expName,psychopyVersion,OS,frameRate,study_id,session,key_resp_16.keys,key_resp_16.rt,key_resp_4.keys,key_resp_4.rt,next_letter.thisRepN,next_letter.thisTrialN,next_letter.thisN,next_letter.thisIndex,next_letter.ran,letter,simple_recall,key_resp_5.keys,key_resp_5.rt,simple_recall_corr,simple_recall_corrkeys,next_level.thisRepN,next_level.thisTrialN,next_level.thisN,next_level.thisIndex,next_level.ran,key_resp_2.keys,key_resp_2.rt,digit_answer,key_resp.keys,key_resp.corr,key_resp.rt,RT_list,next_equation.thisRepN,next_equation.thisTrialN,next_equation.thisN,next_equation.thisIndex,next_equation.ran,Task,Trial,Problem,Operation_answer,processing_score,sumRT,meanRT,sumdiff,sd,RT,key_resp_3.keys,key_resp_3.rt,repeat_practice.thisRepN,repeat_practice.thisTrialN,repeat_practice.thisN,repeat_practice.thisIndex,repeat_practice.ran,key_resp_6.keys,key_resp_6.rt,key_resp_11.keys,key_resp_11.corr,key_resp_11.rt,operation_correct,repeat_if_wrong_prac.thisRepN,repeat_if_wrong_prac.thisTrialN,repeat_if_wrong_prac.thisN,repeat_if_wrong_prac.thisIndex,repeat_if_wrong_prac.ran,span_size_prac.thisRepN,span_size_prac.thisTrialN,span_size_prac.thisN,span_size_prac.thisIndex,span_size_prac.ran,complex_recall_practice,key_resp_9.keys,key_resp_9.corr,key_resp_9.rt,complex_prac_corr,span_recall_prac.thisRepN,span_recall_prac.thisTrialN,span_recall_prac.thisN,span_recall_prac.thisIndex,span_recall_prac.ran,key_resp_10.keys,key_resp_10.rt,key_resp_7.keys,key_resp_7.corr,key_resp_7.rt,repeat_if_wrong.thisRepN,repeat_if_wrong.thisTrialN,repeat_if_wrong.thisN,repeat_if_wrong.thisIndex,repeat_if_wrong.ran,span_size.thisRepN,span_size.thisTrialN,span_size.thisN,span_size.thisIndex,span_size.ran,complex_recall,key_resp_8.keys,key_resp_8.corr,key_resp_8.rt,complex_recall_corr,complex_recall_corrkeys,span_recall.thisRepN,span_recall.thisTrialN,span_recall.thisN,span_recall.thisIndex,span_recall.ran,key_resp_12.keys,key_resp_12.rt
space,26.1801,"[""comma""]",0,[1.0441000000238319],0,0,0,0,1,5d40a12f4994c40001e4b80c,31,Kobieta,2022-06-04_08h19.50.230,task,2021.1.4,Win32,59.84440455,628b806c463b948bc644b84f,629af77bae94f13c1837811d,,,,,,,,,,,,,,,,,,,,,,,,,,,,,,,,,,,,,,,,,,,,,,,,,,,,,,,,,,,,,,,,,,,,,,,,,,,,,,,,,,,,,,,,,,,,,,,,,,,,,,,
,,"[""comma""]",0,[1.334100000023838],1,0,1,0,1,5d40a12f4994c40001e4b80c,31,Kobieta,2022-06-04_08h19.50.230,task,2021.1.4,Win32,59.84440455,628b806c463b948bc644b84f,629af77bae94f13c1837811d,,,,,,,,,,,,,,,,,,,,,,,,,,,,,,,,,,,,,,,,,,,,,,,,,,,,,,,,,,,,,,,,,,,,,,,,,,,,,,,,,,,,,,,,,,,,,,,,,,,,,,,
,,"[""period""]",0,[0.9495000000000005],2,0,2,0,1,5d40a12f4994c40001e4b80c,31,Kobieta,2022-06-04_08h19.50.230,task,2021.1.4,Win32,59.84440455,628b806c463b948bc644b84f,629af77bae94f13c1837811d,,,,,,,,,,,,,,,,,,,,,,,,,,,,,,,,,,,,,,,,,,,,,,,,,,,,,,,,,,,,,,,,,,,,,,,,,,,,,,,,,,,,,,,,,,,,,,,,,,,,,,,
,,"[""comma""]",0,[0.5360000000000014],3,0,3,0,1,5d40a12f4994c40001e4b80c,31,Kobieta,2022-06-04_08h19.50.230,task,2021.1.4,Win32,59.84440455,628b806c463b948bc644b84f,629af77bae94f13c1837811d,,,,,,,,,,,,,,,,,,,,,,,,,,,,,,,,,,,,,,,,,,,,,,,,,,,,,,,,,,,,,,,,,,,,,,,,,,,,,,,,,,,,,,,,,,,,,,,,,,,,,,,
,,"[""period""]",0,[0.6521999999284702],4,0,4,0,1,5d40a12f4994c40001e4b80c,31,Kobieta,2022-06-04_08h19.50.230,task,2021.1.4,Win32,59.84440455,628b806c463b948bc644b84f,629af77bae94f13c1837811d,,,,,,,,,,,,,,,,,,,,,,,,,,,,,,,,,,,,,,,,,,,,,,,,,,,,,,,,,,,,,,,,,,,,,,,,,,,,,,,,,,,,,,,,,,,,,,,,,,,,,,,
,,"[""comma""]",0,[0.5363999999761546],5,0,5,0,1,5d40a12f4994c40001e4b80c,31,Kobieta,2022-06-04_08h19.50.230,task,2021.1.4,Win32,59.84440455,628b806c463b948bc644b84f,629af77bae94f13c1837811d,,,,,,,,,,,,,,,,,,,,,,,,,,,,,,,,,,,,,,,,,,,,,,,,,,,,,,,,,,,,,,,,,,,,,,,,,,,,,,,,,,,,,,,,,,,,,,,,,,,,,,,
,,"[""comma""]",0,[0.5528999999761481],6,0,6,0,1,5d40a12f4994c40001e4b80c,31,Kobieta,2022-06-04_08h19.50.230,task,2021.1.4,Win32,59.84440455,628b806c463b948bc644b84f,629af77bae94f13c1837811d,,,,,,,,,,,,,,,,,,,,,,,,,,,,,,,,,,,,,,,,,,,,,,,,,,,,,,,,,,,,,,,,,,,,,,,,,,,,,,,,,,,,,,,,,,,,,,,,,,,,,,,
,,"[""comma""]",0,[0.46810000002383845],7,0,7,0,1,5d40a12f4994c40001e4b80c,31,Kobieta,2022-06-04_08h19.50.230,task,2021.1.4,Win32,59.84440455,628b806c463b948bc644b84f,629af77bae94f13c1837811d,,,,,,,,,,,,,,,,,,,,,,,,,,,,,,,,,,,,,,,,,,,,,,,,,,,,,,,,,,,,,,,,,,,,,,,,,,,,,,,,,,,,,,,,,,,,,,,,,,,,,,,
,,"[""period""]",0,[0.35520000004768804],8,0,8,0,1,5d40a12f4994c40001e4b80c,31,Kobieta,2022-06-04_08h19.50.230,task,2021.1.4,Win32,59.84440455,628b806c463b948bc644b84f,629af77bae94f13c1837811d,,,,,,,,,,,,,,,,,,,,,,,,,,,,,,,,,,,,,,,,,,,,,,,,,,,,,,,,,,,,,,,,,,,,,,,,,,,,,,,,,,,,,,,,,,,,,,,,,,,,,,,
,,"[""comma""]",0,[0.5352999999523149],9,0,9,0,1,5d40a12f4994c40001e4b80c,31,Kobieta,2022-06-04_08h19.50.230,task,2021.1.4,Win32,59.84440455,628b806c463b948bc644b84f,629af77bae94f13c1837811d,,,,,,,,,,,,,,,,,,,,,,,,,,,,,,,,,,,,,,,,,,,,,,,,,,,,,,,,,,,,,,,,,,,,,,,,,,,,,,,,,,,,,,,,,,,,,,,,,,,,,,,
,,"[""comma""]",0,[0.6343999999761678],10,0,10,0,1,5d40a12f4994c40001e4b80c,31,Kobieta,2022-06-04_08h19.50.230,task,2021.1.4,Win32,59.84440455,628b806c463b948bc644b84f,629af77bae94f13c1837811d,,,,,,,,,,,,,,,,,,,,,,,,,,,,,,,,,,,,,,,,,,,,,,,,,,,,,,,,,,,,,,,,,,,,,,,,,,,,,,,,,,,,,,,,,,,,,,,,,,,,,,,
,,"[""period""]",0,[0.4356000000238396],11,0,11,0,1,5d40a12f4994c40001e4b80c,31,Kobieta,2022-06-04_08h19.50.230,task,2021.1.4,Win32,59.84440455,628b806c463b948bc644b84f,629af77bae94f13c1837811d,,,,,,,,,,,,,,,,,,,,,,,,,,,,,,,,,,,,,,,,,,,,,,,,,,,,,,,,,,,,,,,,,,,,,,,,,,,,,,,,,,,,,,,,,,,,,,,,,,,,,,,
,,"[""comma""]",0,[0.48560000002385095],12,0,12,0,1,5d40a12f4994c40001e4b80c,31,Kobieta,2022-06-04_08h19.50.230,task,2021.1.4,Win32,59.84440455,628b806c463b948bc644b84f,629af77bae94f13c1837811d,,,,,,,,,,,,,,,,,,,,,,,,,,,,,,,,,,,,,,,,,,,,,,,,,,,,,,,,,,,,,,,,,,,,,,,,,,,,,,,,,,,,,,,,,,,,,,,,,,,,,,,
,,"[""period""]",0,[0.3073999999761554],13,0,13,0,1,5d40a12f4994c40001e4b80c,31,Kobieta,2022-06-04_08h19.50.230,task,2021.1.4,Win32,59.84440455,628b806c463b948bc644b84f,629af77bae94f13c1837811d,,,,,,,,,,,,,,,,,,,,,,,,,,,,,,,,,,,,,,,,,,,,,,,,,,,,,,,,,,,,,,,,,,,,,,,,,,,,,,,,,,,,,,,,,,,,,,,,,,,,,,,
,,"[""period""]",0,[0.3019999999999925],14,0,14,0,1,5d40a12f4994c40001e4b80c,31,Kobieta,2022-06-04_08h19.50.230,task,2021.1.4,Win32,59.84440455,628b806c463b948bc644b84f,629af77bae94f13c1837811d,,,,,,,,,,,,,,,,,,,,,,,,,,,,,,,,,,,,,,,,,,,,,,,,,,,,,,,,,,,,,,,,,,,,,,,,,,,,,,,,,,,,,,,,,,,,,,,,,,,,,,,
,,"[""comma""]",0,[0.4019999999999868],15,0,15,0,1,5d40a12f4994c40001e4b80c,31,Kobieta,2022-06-04_08h19.50.230,task,2021.1.4,Win32,59.84440455,628b806c463b948bc644b84f,629af77bae94f13c1837811d,,,,,,,,,,,,,,,,,,,,,,,,,,,,,,,,,,,,,,,,,,,,,,,,,,,,,,,,,,,,,,,,,,,,,,,,,,,,,,,,,,,,,,,,,,,,,,,,,,,,,,,
,,"[""comma""]",0,[0.28589999997618065],16,0,16,0,1,5d40a12f4994c40001e4b80c,31,Kobieta,2022-06-04_08h19.50.230,task,2021.1.4,Win32,59.84440455,628b806c463b948bc644b84f,629af77bae94f13c1837811d,,,,,,,,,,,,,,,,,,,,,,,,,,,,,,,,,,,,,,,,,,,,,,,,,,,,,,,,,,,,,,,,,,,,,,,,,,,,,,,,,,,,,,,,,,,,,,,,,,,,,,,
,,"[""comma""]",0,[0.4621000000238382],17,0,17,0,1,5d40a12f4994c40001e4b80c,31,Kobieta,2022-06-04_08h19.50.230,task,2021.1.4,Win32,59.84440455,628b806c463b948bc644b84f,629af77bae94f13c1837811d,,,,,,,,,,,,,,,,,,,,,,,,,,,,,,,,,,,,,,,,,,,,,,,,,,,,,,,,,,,,,,,,,,,,,,,,,,,,,,,,,,,,,,,,,,,,,,,,,,,,,,,
,,"[""period""]",0,[0.4023999999761543],18,0,18,0,1,5d40a12f4994c40001e4b80c,31,Kobieta,2022-06-04_08h19.50.230,task,2021.1.4,Win32,59.84440455,628b806c463b948bc644b84f,629af77bae94f13c1837811d,,,,,,,,,,,,,,,,,,,,,,,,,,,,,,,,,,,,,,,,,,,,,,,,,,,,,,,,,,,,,,,,,,,,,,,,,,,,,,,,,,,,,,,,,,,,,,,,,,,,,,,
,,"[""comma""]",0,[0.3372999999523074],19,0,19,0,1,5d40a12f4994c40001e4b80c,31,Kobieta,2022-06-04_08h19.50.230,task,2021.1.4,Win32,59.84440455,628b806c463b948bc644b84f,629af77bae94f13c1837811d,,,,,,,,,,,,,,,,,,,,,,,,,,,,,,,,,,,,,,,,,,,,,,,,,,,,,,,,,,,,,,,,,,,,,,,,,,,,,,,,,,,,,,,,,,,,,,,,,,,,,,,
,,"[""period""]",0,[0.32860000002384027],20,0,20,0,1,5d40a12f4994c40001e4b80c,31,Kobieta,2022-06-04_08h19.50.230,task,2021.1.4,Win32,59.84440455,628b806c463b948bc644b84f,629af77bae94f13c1837811d,,,,,,,,,,,,,,,,,,,,,,,,,,,,,,,,,,,,,,,,,,,,,,,,,,,,,,,,,,,,,,,,,,,,,,,,,,,,,,,,,,,,,,,,,,,,,,,,,,,,,,,
,,"[""period""]",0,[0.3780000000000143],21,0,21,0,1,5d40a12f4994c40001e4b80c,31,Kobieta,2022-06-04_08h19.50.230,task,2021.1.4,Win32,59.84440455,628b806c463b948bc644b84f,629af77bae94f13c1837811d,,,,,,,,,,,,,,,,,,,,,,,,,,,,,,,,,,,,,,,,,,,,,,,,,,,,,,,,,,,,,,,,,,,,,,,,,,,,,,,,,,,,,,,,,,,,,,,,,,,,,,,
,,"[""period""]",0,[0.2843999999761593],22,0,22,0,1,5d40a12f4994c40001e4b80c,31,Kobieta,2022-06-04_08h19.50.230,task,2021.1.4,Win32,59.84440455,628b806c463b948bc644b84f,629af77bae94f13c1837811d,,,,,,,,,,,,,,,,,,,,,,,,,,,,,,,,,,,,,,,,,,,,,,,,,,,,,,,,,,,,,,,,,,,,,,,,,,,,,,,,,,,,,,,,,,,,,,,,,,,,,,,
,,"[""comma""]",0,[0.23490000009536516],23,0,23,0,1,5d40a12f4994c40001e4b80c,31,Kobieta,2022-06-04_08h19.50.230,task,2021.1.4,Win32,59.84440455,628b806c463b948bc644b84f,629af77bae94f13c1837811d,,,,,,,,,,,,,,,,,,,,,,,,,,,,,,,,,,,,,,,,,,,,,,,,,,,,,,,,,,,,,,,,,,,,,,,,,,,,,,,,,,,,,,,,,,,,,,,,,,,,,,,
,,"[""comma""]",0,[0.49450000000001637],24,0,24,0,1,5d40a12f4994c40001e4b80c,31,Kobieta,2022-06-04_08h19.50.230,task,2021.1.4,Win32,59.84440455,628b806c463b948bc644b84f,629af77bae94f13c1837811d,,,,,,,,,,,,,,,,,,,,,,,,,,,,,,,,,,,,,,,,,,,,,,,,,,,,,,,,,,,,,,,,,,,,,,,,,,,,,,,,,,,,,,,,,,,,,,,,,,,,,,,
,,"[""period""]",0,[0.2505000000000166],25,0,25,0,1,5d40a12f4994c40001e4b80c,31,Kobieta,2022-06-04_08h19.50.230,task,2021.1.4,Win32,59.84440455,628b806c463b948bc644b84f,629af77bae94f13c1837811d,,,,,,,,,,,,,,,,,,,,,,,,,,,,,,,,,,,,,,,,,,,,,,,,,,,,,,,,,,,,,,,,,,,,,,,,,,,,,,,,,,,,,,,,,,,,,,,,,,,,,,,
,,"[""period"",""comma""]",0,"[0.24760000002382299,1.7383000000715185]",26,0,26,0,1,5d40a12f4994c40001e4b80c,31,Kobieta,2022-06-04_08h19.50.230,task,2021.1.4,Win32,59.84440455,628b806c463b948bc644b84f,629af77bae94f13c1837811d,,,,,,,,,,,,,,,,,,,,,,,,,,,,,,,,,,,,,,,,,,,,,,,,,,,,,,,,,,,,,,,,,,,,,,,,,,,,,,,,,,,,,,,,,,,,,,,,,,,,,,,
,,,0,,27,0,27,0,1,5d40a12f4994c40001e4b80c,31,Kobieta,2022-06-04_08h19.50.230,task,2021.1.4,Win32,59.84440455,628b806c463b948bc644b84f,629af77bae94f13c1837811d,,,,,,,,,,,,,,,,,,,,,,,,,,,,,,,,,,,,,,,,,,,,,,,,,,,,,,,,,,,,,,,,,,,,,,,,,,,,,,,,,,,,,,,,,,,,,,,,,,,,,,,
,,"[""period""]",0,[0.33569999992846533],28,0,28,0,1,5d40a12f4994c40001e4b80c,31,Kobieta,2022-06-04_08h19.50.230,task,2021.1.4,Win32,59.84440455,628b806c463b948bc644b84f,629af77bae94f13c1837811d,,,,,,,,,,,,,,,,,,,,,,,,,,,,,,,,,,,,,,,,,,,,,,,,,,,,,,,,,,,,,,,,,,,,,,,,,,,,,,,,,,,,,,,,,,,,,,,,,,,,,,,
,,"[""comma""]",0,[0.3015999999046528],29,0,29,0,1,5d40a12f4994c40001e4b80c,31,Kobieta,2022-06-04_08h19.50.230,task,2021.1.4,Win32,59.84440455,628b806c463b948bc644b84f,629af77bae94f13c1837811d,,,,,,,,,,,,,,,,,,,,,,,,,,,,,,,,,,,,,,,,,,,,,,,,,,,,,,,,,,,,,,,,,,,,,,,,,,,,,,,,,,,,,,,,,,,,,,,,,,,,,,,
,,"[""period""]",0,[0.3506999999284801],30,0,30,0,1,5d40a12f4994c40001e4b80c,31,Kobieta,2022-06-04_08h19.50.230,task,2021.1.4,Win32,59.84440455,628b806c463b948bc644b84f,629af77bae94f13c1837811d,,,,,,,,,,,,,,,,,,,,,,,,,,,,,,,,,,,,,,,,,,,,,,,,,,,,,,,,,,,,,,,,,,,,,,,,,,,,,,,,,,,,,,,,,,,,,,,,,,,,,,,
,,"[""period""]",0,[0.3271999999284958],31,0,31,0,1,5d40a12f4994c40001e4b80c,31,Kobieta,2022-06-04_08h19.50.230,task,2021.1.4,Win32,59.84440455,628b806c463b948bc644b84f,629af77bae94f13c1837811d,,,,,,,,,,,,,,,,,,,,,,,,,,,,,,,,,,,,,,,,,,,,,,,,,,,,,,,,,,,,,,,,,,,,,,,,,,,,,,,,,,,,,,,,,,,,,,,,,,,,,,,
,,"[""period""]",0,[0.27849999999997976],32,0,32,0,1,5d40a12f4994c40001e4b80c,31,Kobieta,2022-06-04_08h19.50.230,task,2021.1.4,Win32,59.84440455,628b806c463b948bc644b84f,629af77bae94f13c1837811d,,,,,,,,,,,,,,,,,,,,,,,,,,,,,,,,,,,,,,,,,,,,,,,,,,,,,,,,,,,,,,,,,,,,,,,,,,,,,,,,,,,,,,,,,,,,,,,,,,,,,,,
,,"[""comma""]",0,[0.4519999999999982],33,0,33,0,1,5d40a12f4994c40001e4b80c,31,Kobieta,2022-06-04_08h19.50.230,task,2021.1.4,Win32,59.84440455,628b806c463b948bc644b84f,629af77bae94f13c1837811d,,,,,,,,,,,,,,,,,,,,,,,,,,,,,,,,,,,,,,,,,,,,,,,,,,,,,,,,,,,,,,,,,,,,,,,,,,,,,,,,,,,,,,,,,,,,,,,,,,,,,,,
,,"[""comma""]",0,[0.4005999999046139],34,0,34,0,1,5d40a12f4994c40001e4b80c,31,Kobieta,2022-06-04_08h19.50.230,task,2021.1.4,Win32,59.84440455,628b806c463b948bc644b84f,629af77bae94f13c1837811d,,,,,,,,,,,,,,,,,,,,,,,,,,,,,,,,,,,,,,,,,,,,,,,,,,,,,,,,,,,,,,,,,,,,,,,,,,,,,,,,,,,,,,,,,,,,,,,,,,,,,,,
,,"[""period""]",0,[0.3180999999046321],35,0,35,0,1,5d40a12f4994c40001e4b80c,31,Kobieta,2022-06-04_08h19.50.230,task,2021.1.4,Win32,59.84440455,628b806c463b948bc644b84f,629af77bae94f13c1837811d,,,,,,,,,,,,,,,,,,,,,,,,,,,,,,,,,,,,,,,,,,,,,,,,,,,,,,,,,,,,,,,,,,,,,,,,,,,,,,,,,,,,,,,,,,,,,,,,,,,,,,,
,,"[""comma""]",0,[0.6021000000238246],36,0,36,0,1,5d40a12f4994c40001e4b80c,31,Kobieta,2022-06-04_08h19.50.230,task,2021.1.4,Win32,59.84440455,628b806c463b948bc644b84f,629af77bae94f13c1837811d,,,,,,,,,,,,,,,,,,,,,,,,,,,,,,,,,,,,,,,,,,,,,,,,,,,,,,,,,,,,,,,,,,,,,,,,,,,,,,,,,,,,,,,,,,,,,,,,,,,,,,,
,,"[""comma""]",0,[0.5689999999999884],37,0,37,0,1,5d40a12f4994c40001e4b80c,31,Kobieta,2022-06-04_08h19.50.230,task,2021.1.4,Win32,59.84440455,628b806c463b948bc644b84f,629af77bae94f13c1837811d,,,,,,,,,,,,,,,,,,,,,,,,,,,,,,,,,,,,,,,,,,,,,,,,,,,,,,,,,,,,,,,,,,,,,,,,,,,,,,,,,,,,,,,,,,,,,,,,,,,,,,,
,,"[""comma""]",0,[0.3172000000476771],38,0,38,0,1,5d40a12f4994c40001e4b80c,31,Kobieta,2022-06-04_08h19.50.230,task,2021.1.4,Win32,59.84440455,628b806c463b948bc644b84f,629af77bae94f13c1837811d,,,,,,,,,,,,,,,,,,,,,,,,,,,,,,,,,,,,,,,,,,,,,,,,,,,,,,,,,,,,,,,,,,,,,,,,,,,,,,,,,,,,,,,,,,,,,,,,,,,,,,,
,,"[""period""]",0,[0.3351000000238571],39,0,39,0,1,5d40a12f4994c40001e4b80c,31,Kobieta,2022-06-04_08h19.50.230,task,2021.1.4,Win32,59.84440455,628b806c463b948bc644b84f,629af77bae94f13c1837811d,,,,,,,,,,,,,,,,,,,,,,,,,,,,,,,,,,,,,,,,,,,,,,,,,,,,,,,,,,,,,,,,,,,,,,,,,,,,,,,,,,,,,,,,,,,,,,,,,,,,,,,
,,"[""comma""]",0,[0.28549999999998477],40,0,40,0,1,5d40a12f4994c40001e4b80c,31,Kobieta,2022-06-04_08h19.50.230,task,2021.1.4,Win32,59.84440455,628b806c463b948bc644b84f,629af77bae94f13c1837811d,,,,,,,,,,,,,,,,,,,,,,,,,,,,,,,,,,,,,,,,,,,,,,,,,,,,,,,,,,,,,,,,,,,,,,,,,,,,,,,,,,,,,,,,,,,,,,,,,,,,,,,
,,"[""period""]",0,[0.30160000002385345],41,0,41,0,1,5d40a12f4994c40001e4b80c,31,Kobieta,2022-06-04_08h19.50.230,task,2021.1.4,Win32,59.84440455,628b806c463b948bc644b84f,629af77bae94f13c1837811d,,,,,,,,,,,,,,,,,,,,,,,,,,,,,,,,,,,,,,,,,,,,,,,,,,,,,,,,,,,,,,,,,,,,,,,,,,,,,,,,,,,,,,,,,,,,,,,,,,,,,,,
,,"[""period""]",0,[0.3512999999523174],42,0,42,0,1,5d40a12f4994c40001e4b80c,31,Kobieta,2022-06-04_08h19.50.230,task,2021.1.4,Win32,59.84440455,628b806c463b948bc644b84f,629af77bae94f13c1837811d,,,,,,,,,,,,,,,,,,,,,,,,,,,,,,,,,,,,,,,,,,,,,,,,,,,,,,,,,,,,,,,,,,,,,,,,,,,,,,,,,,,,,,,,,,,,,,,,,,,,,,,
,,"[""comma""]",0,[0.4357999999523088],43,0,43,0,1,5d40a12f4994c40001e4b80c,31,Kobieta,2022-06-04_08h19.50.230,task,2021.1.4,Win32,59.84440455,628b806c463b948bc644b84f,629af77bae94f13c1837811d,,,,,,,,,,,,,,,,,,,,,,,,,,,,,,,,,,,,,,,,,,,,,,,,,,,,,,,,,,,,,,,,,,,,,,,,,,,,,,,,,,,,,,,,,,,,,,,,,,,,,,,
,,"[""comma""]",0,[0.36889999997615064],44,0,44,0,1,5d40a12f4994c40001e4b80c,31,Kobieta,2022-06-04_08h19.50.230,task,2021.1.4,Win32,59.84440455,628b806c463b948bc644b84f,629af77bae94f13c1837811d,,,,,,,,,,,,,,,,,,,,,,,,,,,,,,,,,,,,,,,,,,,,,,,,,,,,,,,,,,,,,,,,,,,,,,,,,,,,,,,,,,,,,,,,,,,,,,,,,,,,,,,
,,"[""comma""]",0,[0.41900000000001114],45,0,45,0,1,5d40a12f4994c40001e4b80c,31,Kobieta,2022-06-04_08h19.50.230,task,2021.1.4,Win32,59.84440455,628b806c463b948bc644b84f,629af77bae94f13c1837811d,,,,,,,,,,,,,,,,,,,,,,,,,,,,,,,,,,,,,,,,,,,,,,,,,,,,,,,,,,,,,,,,,,,,,,,,,,,,,,,,,,,,,,,,,,,,,,,,,,,,,,,
,,"[""period""]",0,[0.33389999997618247],46,0,46,0,1,5d40a12f4994c40001e4b80c,31,Kobieta,2022-06-04_08h19.50.230,task,2021.1.4,Win32,59.84440455,628b806c463b948bc644b84f,629af77bae94f13c1837811d,,,,,,,,,,,,,,,,,,,,,,,,,,,,,,,,,,,,,,,,,,,,,,,,,,,,,,,,,,,,,,,,,,,,,,,,,,,,,,,,,,,,,,,,,,,,,,,,,,,,,,,
,,"[""period""]",0,[0.4007999999523122],47,0,47,0,1,5d40a12f4994c40001e4b80c,31,Kobieta,2022-06-04_08h19.50.230,task,2021.1.4,Win32,59.84440455,628b806c463b948bc644b84f,629af77bae94f13c1837811d,,,,,,,,,,,,,,,,,,,,,,,,,,,,,,,,,,,,,,,,,,,,,,,,,,,,,,,,,,,,,,,,,,,,,,,,,,,,,,,,,,,,,,,,,,,,,,,,,,,,,,,
,,"[""comma""]",0,[0.36810000002384413],48,0,48,0,1,5d40a12f4994c40001e4b80c,31,Kobieta,2022-06-04_08h19.50.230,task,2021.1.4,Win32,59.84440455,628b806c463b948bc644b84f,629af77bae94f13c1837811d,,,,,,,,,,,,,,,,,,,,,,,,,,,,,,,,,,,,,,,,,,,,,,,,,,,,,,,,,,,,,,,,,,,,,,,,,,,,,,,,,,,,,,,,,,,,,,,,,,,,,,,
,,"[""period""]",0,[0.31939999997615587],49,0,49,0,1,5d40a12f4994c40001e4b80c,31,Kobieta,2022-06-04_08h19.50.230,task,2021.1.4,Win32,59.84440455,628b806c463b948bc644b84f,629af77bae94f13c1837811d,,,,,,,,,,,,,,,,,,,,,,,,,,,,,,,,,,,,,,,,,,,,,,,,,,,,,,,,,,,,,,,,,,,,,,,,,,,,,,,,,,,,,,,,,,,,,,,,,,,,,,,
,,"[""period""]",0,[0.302099999904641],50,0,50,0,1,5d40a12f4994c40001e4b80c,31,Kobieta,2022-06-04_08h19.50.230,task,2021.1.4,Win32,59.84440455,628b806c463b948bc644b84f,629af77bae94f13c1837811d,,,,,,,,,,,,,,,,,,,,,,,,,,,,,,,,,,,,,,,,,,,,,,,,,,,,,,,,,,,,,,,,,,,,,,,,,,,,,,,,,,,,,,,,,,,,,,,,,,,,,,,
,,"[""comma""]",0,[0.3170000000000073],51,0,51,0,1,5d40a12f4994c40001e4b80c,31,Kobieta,2022-06-04_08h19.50.230,task,2021.1.4,Win32,59.84440455,628b806c463b948bc644b84f,629af77bae94f13c1837811d,,,,,,,,,,,,,,,,,,,,,,,,,,,,,,,,,,,,,,,,,,,,,,,,,,,,,,,,,,,,,,,,,,,,,,,,,,,,,,,,,,,,,,,,,,,,,,,,,,,,,,,
,,"[""period""]",0,[0.28449999999998],52,0,52,0,1,5d40a12f4994c40001e4b80c,31,Kobieta,2022-06-04_08h19.50.230,task,2021.1.4,Win32,59.84440455,628b806c463b948bc644b84f,629af77bae94f13c1837811d,,,,,,,,,,,,,,,,,,,,,,,,,,,,,,,,,,,,,,,,,,,,,,,,,,,,,,,,,,,,,,,,,,,,,,,,,,,,,,,,,,,,,,,,,,,,,,,,,,,,,,,
,,"[""period""]",0,[0.4362000000476769],53,0,53,0,1,5d40a12f4994c40001e4b80c,31,Kobieta,2022-06-04_08h19.50.230,task,2021.1.4,Win32,59.84440455,628b806c463b948bc644b84f,629af77bae94f13c1837811d,,,,,,,,,,,,,,,,,,,,,,,,,,,,,,,,,,,,,,,,,,,,,,,,,,,,,,,,,,,,,,,,,,,,,,,,,,,,,,,,,,,,,,,,,,,,,,,,,,,,,,,
,,"[""period""]",0,[0.3177999999523422],54,0,54,0,1,5d40a12f4994c40001e4b80c,31,Kobieta,2022-06-04_08h19.50.230,task,2021.1.4,Win32,59.84440455,628b806c463b948bc644b84f,629af77bae94f13c1837811d,,,,,,,,,,,,,,,,,,,,,,,,,,,,,,,,,,,,,,,,,,,,,,,,,,,,,,,,,,,,,,,,,,,,,,,,,,,,,,,,,,,,,,,,,,,,,,,,,,,,,,,
,,"[""comma""]",0,[0.36820000004769327],55,0,55,0,1,5d40a12f4994c40001e4b80c,31,Kobieta,2022-06-04_08h19.50.230,task,2021.1.4,Win32,59.84440455,628b806c463b948bc644b84f,629af77bae94f13c1837811d,,,,,,,,,,,,,,,,,,,,,,,,,,,,,,,,,,,,,,,,,,,,,,,,,,,,,,,,,,,,,,,,,,,,,,,,,,,,,,,,,,,,,,,,,,,,,,,,,,,,,,,
,,"[""period""]",0,[0.3015000000000043],56,0,56,0,1,5d40a12f4994c40001e4b80c,31,Kobieta,2022-06-04_08h19.50.230,task,2021.1.4,Win32,59.84440455,628b806c463b948bc644b84f,629af77bae94f13c1837811d,,,,,,,,,,,,,,,,,,,,,,,,,,,,,,,,,,,,,,,,,,,,,,,,,,,,,,,,,,,,,,,,,,,,,,,,,,,,,,,,,,,,,,,,,,,,,,,,,,,,,,,
,,"[""comma""]",0,[0.3365000000000009],57,0,57,0,1,5d40a12f4994c40001e4b80c,31,Kobieta,2022-06-04_08h19.50.230,task,2021.1.4,Win32,59.84440455,628b806c463b948bc644b84f,629af77bae94f13c1837811d,,,,,,,,,,,,,,,,,,,,,,,,,,,,,,,,,,,,,,,,,,,,,,,,,,,,,,,,,,,,,,,,,,,,,,,,,,,,,,,,,,,,,,,,,,,,,,,,,,,,,,,
,,"[""comma""]",0,[0.30000000000001137],58,0,58,0,1,5d40a12f4994c40001e4b80c,31,Kobieta,2022-06-04_08h19.50.230,task,2021.1.4,Win32,59.84440455,628b806c463b948bc644b84f,629af77bae94f13c1837811d,,,,,,,,,,,,,,,,,,,,,,,,,,,,,,,,,,,,,,,,,,,,,,,,,,,,,,,,,,,,,,,,,,,,,,,,,,,,,,,,,,,,,,,,,,,,,,,,,,,,,,,
,,"[""comma""]",0,[0.2856999999284824],59,0,59,0,1,5d40a12f4994c40001e4b80c,31,Kobieta,2022-06-04_08h19.50.230,task,2021.1.4,Win32,59.84440455,628b806c463b948bc644b84f,629af77bae94f13c1837811d,,,,,,,,,,,,,,,,,,,,,,,,,,,,,,,,,,,,,,,,,,,,,,,,,,,,,,,,,,,,,,,,,,,,,,,,,,,,,,,,,,,,,,,,,,,,,,,,,,,,,,,
,,"[""period""]",0,[0.484100000023858],60,0,60,0,1,5d40a12f4994c40001e4b80c,31,Kobieta,2022-06-04_08h19.50.230,task,2021.1.4,Win32,59.84440455,628b806c463b948bc644b84f,629af77bae94f13c1837811d,,,,,,,,,,,,,,,,,,,,,,,,,,,,,,,,,,,,,,,,,,,,,,,,,,,,,,,,,,,,,,,,,,,,,,,,,,,,,,,,,,,,,,,,,,,,,,,,,,,,,,,
,,"[""comma""]",0,[0.18589999997615791],61,0,61,0,1,5d40a12f4994c40001e4b80c,31,Kobieta,2022-06-04_08h19.50.230,task,2021.1.4,Win32,59.84440455,628b806c463b948bc644b84f,629af77bae94f13c1837811d,,,,,,,,,,,,,,,,,,,,,,,,,,,,,,,,,,,,,,,,,,,,,,,,,,,,,,,,,,,,,,,,,,,,,,,,,,,,,,,,,,,,,,,,,,,,,,,,,,,,,,,
,,"[""comma""]",0,[0.4181000000238555],62,0,62,0,1,5d40a12f4994c40001e4b80c,31,Kobieta,2022-06-04_08h19.50.230,task,2021.1.4,Win32,59.84440455,628b806c463b948bc644b84f,629af77bae94f13c1837811d,,,,,,,,,,,,,,,,,,,,,,,,,,,,,,,,,,,,,,,,,,,,,,,,,,,,,,,,,,,,,,,,,,,,,,,,,,,,,,,,,,,,,,,,,,,,,,,,,,,,,,,
,,"[""period""]",0,[0.3015000000000043],63,0,63,0,1,5d40a12f4994c40001e4b80c,31,Kobieta,2022-06-04_08h19.50.230,task,2021.1.4,Win32,59.84440455,628b806c463b948bc644b84f,629af77bae94f13c1837811d,,,,,,,,,,,,,,,,,,,,,,,,,,,,,,,,,,,,,,,,,,,,,,,,,,,,,,,,,,,,,,,,,,,,,,,,,,,,,,,,,,,,,,,,,,,,,,,,,,,,,,,
,,"[""comma""]",0,[0.26980000007154104],64,0,64,0,1,5d40a12f4994c40001e4b80c,31,Kobieta,2022-06-04_08h19.50.230,task,2021.1.4,Win32,59.84440455,628b806c463b948bc644b84f,629af77bae94f13c1837811d,,,,,,,,,,,,,,,,,,,,,,,,,,,,,,,,,,,,,,,,,,,,,,,,,,,,,,,,,,,,,,,,,,,,,,,,,,,,,,,,,,,,,,,,,,,,,,,,,,,,,,,
,,"[""comma""]",0,[0.33500000000000796],65,0,65,0,1,5d40a12f4994c40001e4b80c,31,Kobieta,2022-06-04_08h19.50.230,task,2021.1.4,Win32,59.84440455,628b806c463b948bc644b84f,629af77bae94f13c1837811d,,,,,,,,,,,,,,,,,,,,,,,,,,,,,,,,,,,,,,,,,,,,,,,,,,,,,,,,,,,,,,,,,,,,,,,,,,,,,,,,,,,,,,,,,,,,,,,,,,,,,,,
,,"[""comma""]",0,[0.384399999976182],66,0,66,0,1,5d40a12f4994c40001e4b80c,31,Kobieta,2022-06-04_08h19.50.230,task,2021.1.4,Win32,59.84440455,628b806c463b948bc644b84f,629af77bae94f13c1837811d,,,,,,,,,,,,,,,,,,,,,,,,,,,,,,,,,,,,,,,,,,,,,,,,,,,,,,,,,,,,,,,,,,,,,,,,,,,,,,,,,,,,,,,,,,,,,,,,,,,,,,,
,,"[""comma""]",0,[0.4861999999284592],67,0,67,0,1,5d40a12f4994c40001e4b80c,31,Kobieta,2022-06-04_08h19.50.230,task,2021.1.4,Win32,59.84440455,628b806c463b948bc644b84f,629af77bae94f13c1837811d,,,,,,,,,,,,,,,,,,,,,,,,,,,,,,,,,,,,,,,,,,,,,,,,,,,,,,,,,,,,,,,,,,,,,,,,,,,,,,,,,,,,,,,,,,,,,,,,,,,,,,,
,,"[""period""]",0,[0.31860000002384936],68,0,68,0,1,5d40a12f4994c40001e4b80c,31,Kobieta,2022-06-04_08h19.50.230,task,2021.1.4,Win32,59.84440455,628b806c463b948bc644b84f,629af77bae94f13c1837811d,,,,,,,,,,,,,,,,,,,,,,,,,,,,,,,,,,,,,,,,,,,,,,,,,,,,,,,,,,,,,,,,,,,,,,,,,,,,,,,,,,,,,,,,,,,,,,,,,,,,,,,
,,"[""comma""]",0,[0.3688000000715306],69,0,69,0,1,5d40a12f4994c40001e4b80c,31,Kobieta,2022-06-04_08h19.50.230,task,2021.1.4,Win32,59.84440455,628b806c463b948bc644b84f,629af77bae94f13c1837811d,,,,,,,,,,,,,,,,,,,,,,,,,,,,,,,,,,,,,,,,,,,,,,,,,,,,,,,,,,,,,,,,,,,,,,,,,,,,,,,,,,,,,,,,,,,,,,,,,,,,,,,
,,"[""period""]",0,[0.6528999999761709],70,0,70,0,1,5d40a12f4994c40001e4b80c,31,Kobieta,2022-06-04_08h19.50.230,task,2021.1.4,Win32,59.84440455,628b806c463b948bc644b84f,629af77bae94f13c1837811d,,,,,,,,,,,,,,,,,,,,,,,,,,,,,,,,,,,,,,,,,,,,,,,,,,,,,,,,,,,,,,,,,,,,,,,,,,,,,,,,,,,,,,,,,,,,,,,,,,,,,,,
,,"[""period""]",0,[0.4526000000238355],71,0,71,0,1,5d40a12f4994c40001e4b80c,31,Kobieta,2022-06-04_08h19.50.230,task,2021.1.4,Win32,59.84440455,628b806c463b948bc644b84f,629af77bae94f13c1837811d,,,,,,,,,,,,,,,,,,,,,,,,,,,,,,,,,,,,,,,,,,,,,,,,,,,,,,,,,,,,,,,,,,,,,,,,,,,,,,,,,,,,,,,,,,,,,,,,,,,,,,,
,,"[""comma""]",0,[0.3506999999284517],72,0,72,0,1,5d40a12f4994c40001e4b80c,31,Kobieta,2022-06-04_08h19.50.230,task,2021.1.4,Win32,59.84440455,628b806c463b948bc644b84f,629af77bae94f13c1837811d,,,,,,,,,,,,,,,,,,,,,,,,,,,,,,,,,,,,,,,,,,,,,,,,,,,,,,,,,,,,,,,,,,,,,,,,,,,,,,,,,,,,,,,,,,,,,,,,,,,,,,,
,,"[""comma""]",0,[0.3018000000715233],73,0,73,0,1,5d40a12f4994c40001e4b80c,31,Kobieta,2022-06-04_08h19.50.230,task,2021.1.4,Win32,59.84440455,628b806c463b948bc644b84f,629af77bae94f13c1837811d,,,,,,,,,,,,,,,,,,,,,,,,,,,,,,,,,,,,,,,,,,,,,,,,,,,,,,,,,,,,,,,,,,,,,,,,,,,,,,,,,,,,,,,,,,,,,,,,,,,,,,,
,,"[""period""]",0,[0.30160000002382503],74,0,74,0,1,5d40a12f4994c40001e4b80c,31,Kobieta,2022-06-04_08h19.50.230,task,2021.1.4,Win32,59.84440455,628b806c463b948bc644b84f,629af77bae94f13c1837811d,,,,,,,,,,,,,,,,,,,,,,,,,,,,,,,,,,,,,,,,,,,,,,,,,,,,,,,,,,,,,,,,,,,,,,,,,,,,,,,,,,,,,,,,,,,,,,,,,,,,,,,
,,"[""period""]",0,[0.23499999999998522],75,0,75,0,1,5d40a12f4994c40001e4b80c,31,Kobieta,2022-06-04_08h19.50.230,task,2021.1.4,Win32,59.84440455,628b806c463b948bc644b84f,629af77bae94f13c1837811d,,,,,,,,,,,,,,,,,,,,,,,,,,,,,,,,,,,,,,,,,,,,,,,,,,,,,,,,,,,,,,,,,,,,,,,,,,,,,,,,,,,,,,,,,,,,,,,,,,,,,,,
,,"[""period""]",0,[0.1677999999523081],76,0,76,0,1,5d40a12f4994c40001e4b80c,31,Kobieta,2022-06-04_08h19.50.230,task,2021.1.4,Win32,59.84440455,628b806c463b948bc644b84f,629af77bae94f13c1837811d,,,,,,,,,,,,,,,,,,,,,,,,,,,,,,,,,,,,,,,,,,,,,,,,,,,,,,,,,,,,,,,,,,,,,,,,,,,,,,,,,,,,,,,,,,,,,,,,,,,,,,,
,,"[""comma""]",0,[0.38490000009539926],77,0,77,0,1,5d40a12f4994c40001e4b80c,31,Kobieta,2022-06-04_08h19.50.230,task,2021.1.4,Win32,59.84440455,628b806c463b948bc644b84f,629af77bae94f13c1837811d,,,,,,,,,,,,,,,,,,,,,,,,,,,,,,,,,,,,,,,,,,,,,,,,,,,,,,,,,,,,,,,,,,,,,,,,,,,,,,,,,,,,,,,,,,,,,,,,,,,,,,,
,,"[""period""]",0,[0.4855000000000018],78,0,78,0,1,5d40a12f4994c40001e4b80c,31,Kobieta,2022-06-04_08h19.50.230,task,2021.1.4,Win32,59.84440455,628b806c463b948bc644b84f,629af77bae94f13c1837811d,,,,,,,,,,,,,,,,,,,,,,,,,,,,,,,,,,,,,,,,,,,,,,,,,,,,,,,,,,,,,,,,,,,,,,,,,,,,,,,,,,,,,,,,,,,,,,,,,,,,,,,
,,"[""comma""]",0,[0.4521000000238473],79,0,79,0,1,5d40a12f4994c40001e4b80c,31,Kobieta,2022-06-04_08h19.50.230,task,2021.1.4,Win32,59.84440455,628b806c463b948bc644b84f,629af77bae94f13c1837811d,,,,,,,,,,,,,,,,,,,,,,,,,,,,,,,,,,,,,,,,,,,,,,,,,,,,,,,,,,,,,,,,,,,,,,,,,,,,,,,,,,,,,,,,,,,,,,,,,,,,,,,
,,"[""comma""]",0,[0.3691000000238205],80,0,80,0,1,5d40a12f4994c40001e4b80c,31,Kobieta,2022-06-04_08h19.50.230,task,2021.1.4,Win32,59.84440455,628b806c463b948bc644b84f,629af77bae94f13c1837811d,,,,,,,,,,,,,,,,,,,,,,,,,,,,,,,,,,,,,,,,,,,,,,,,,,,,,,,,,,,,,,,,,,,,,,,,,,,,,,,,,,,,,,,,,,,,,,,,,,,,,,,
,,"[""comma""]",0,[0.41849999999999454],81,0,81,0,1,5d40a12f4994c40001e4b80c,31,Kobieta,2022-06-04_08h19.50.230,task,2021.1.4,Win32,59.84440455,628b806c463b948bc644b84f,629af77bae94f13c1837811d,,,,,,,,,,,,,,,,,,,,,,,,,,,,,,,,,,,,,,,,,,,,,,,,,,,,,,,,,,,,,,,,,,,,,,,,,,,,,,,,,,,,,,,,,,,,,,,,,,,,,,,
,,"[""period""]",0,[0.33510000002382867],82,0,82,0,1,5d40a12f4994c40001e4b80c,31,Kobieta,2022-06-04_08h19.50.230,task,2021.1.4,Win32,59.84440455,628b806c463b948bc644b84f,629af77bae94f13c1837811d,,,,,,,,,,,,,,,,,,,,,,,,,,,,,,,,,,,,,,,,,,,,,,,,,,,,,,,,,,,,,,,,,,,,,,,,,,,,,,,,,,,,,,,,,,,,,,,,,,,,,,,
,,"[""period""]",0,[0.285000000000025],83,0,83,0,1,5d40a12f4994c40001e4b80c,31,Kobieta,2022-06-04_08h19.50.230,task,2021.1.4,Win32,59.84440455,628b806c463b948bc644b84f,629af77bae94f13c1837811d,,,,,,,,,,,,,,,,,,,,,,,,,,,,,,,,,,,,,,,,,,,,,,,,,,,,,,,,,,,,,,,,,,,,,,,,,,,,,,,,,,,,,,,,,,,,,,,,,,,,,,,
,,"[""comma""]",0,[0.26810000002387824],84,0,84,0,1,5d40a12f4994c40001e4b80c,31,Kobieta,2022-06-04_08h19.50.230,task,2021.1.4,Win32,59.84440455,628b806c463b948bc644b84f,629af77bae94f13c1837811d,,,,,,,,,,,,,,,,,,,,,,,,,,,,,,,,,,,,,,,,,,,,,,,,,,,,,,,,,,,,,,,,,,,,,,,,,,,,,,,,,,,,,,,,,,,,,,,,,,,,,,,
,,"[""period""]",0,[0.35250000000002046],85,0,85,0,1,5d40a12f4994c40001e4b80c,31,Kobieta,2022-06-04_08h19.50.230,task,2021.1.4,Win32,59.84440455,628b806c463b948bc644b84f,629af77bae94f13c1837811d,,,,,,,,,,,,,,,,,,,,,,,,,,,,,,,,,,,,,,,,,,,,,,,,,,,,,,,,,,,,,,,,,,,,,,,,,,,,,,,,,,,,,,,,,,,,,,,,,,,,,,,
,,"[""comma""]",0,[0.7864999999999895],86,0,86,0,1,5d40a12f4994c40001e4b80c,31,Kobieta,2022-06-04_08h19.50.230,task,2021.1.4,Win32,59.84440455,628b806c463b948bc644b84f,629af77bae94f13c1837811d,,,,,,,,,,,,,,,,,,,,,,,,,,,,,,,,,,,,,,,,,,,,,,,,,,,,,,,,,,,,,,,,,,,,,,,,,,,,,,,,,,,,,,,,,,,,,,,,,,,,,,,
,,"[""period""]",0,[1.0538999999761245],87,0,87,0,1,5d40a12f4994c40001e4b80c,31,Kobieta,2022-06-04_08h19.50.230,task,2021.1.4,Win32,59.84440455,628b806c463b948bc644b84f,629af77bae94f13c1837811d,,,,,,,,,,,,,,,,,,,,,,,,,,,,,,,,,,,,,,,,,,,,,,,,,,,,,,,,,,,,,,,,,,,,,,,,,,,,,,,,,,,,,,,,,,,,,,,,,,,,,,,
,,"[""period""]",0,[1.1536000000238573],88,0,88,0,1,5d40a12f4994c40001e4b80c,31,Kobieta,2022-06-04_08h19.50.230,task,2021.1.4,Win32,59.84440455,628b806c463b948bc644b84f,629af77bae94f13c1837811d,,,,,,,,,,,,,,,,,,,,,,,,,,,,,,,,,,,,,,,,,,,,,,,,,,,,,,,,,,,,,,,,,,,,,,,,,,,,,,,,,,,,,,,,,,,,,,,,,,,,,,,
,,"[""comma""]",0,[0.8192000000476582],89,0,89,0,1,5d40a12f4994c40001e4b80c,31,Kobieta,2022-06-04_08h19.50.230,task,2021.1.4,Win32,59.84440455,628b806c463b948bc644b84f,629af77bae94f13c1837811d,,,,,,,,,,,,,,,,,,,,,,,,,,,,,,,,,,,,,,,,,,,,,,,,,,,,,,,,,,,,,,,,,,,,,,,,,,,,,,,,,,,,,,,,,,,,,,,,,,,,,,,
,,"[""period""]",0,[0.4183000000714969],90,0,90,0,1,5d40a12f4994c40001e4b80c,31,Kobieta,2022-06-04_08h19.50.230,task,2021.1.4,Win32,59.84440455,628b806c463b948bc644b84f,629af77bae94f13c1837811d,,,,,,,,,,,,,,,,,,,,,,,,,,,,,,,,,,,,,,,,,,,,,,,,,,,,,,,,,,,,,,,,,,,,,,,,,,,,,,,,,,,,,,,,,,,,,,,,,,,,,,,
,,"[""comma""]",0,[0.2348999999761645],91,0,91,0,1,5d40a12f4994c40001e4b80c,31,Kobieta,2022-06-04_08h19.50.230,task,2021.1.4,Win32,59.84440455,628b806c463b948bc644b84f,629af77bae94f13c1837811d,,,,,,,,,,,,,,,,,,,,,,,,,,,,,,,,,,,,,,,,,,,,,,,,,,,,,,,,,,,,,,,,,,,,,,,,,,,,,,,,,,,,,,,,,,,,,,,,,,,,,,,
,,"[""period""]",0,[0.30299999999999727],92,0,92,0,1,5d40a12f4994c40001e4b80c,31,Kobieta,2022-06-04_08h19.50.230,task,2021.1.4,Win32,59.84440455,628b806c463b948bc644b84f,629af77bae94f13c1837811d,,,,,,,,,,,,,,,,,,,,,,,,,,,,,,,,,,,,,,,,,,,,,,,,,,,,,,,,,,,,,,,,,,,,,,,,,,,,,,,,,,,,,,,,,,,,,,,,,,,,,,,
,,"[""period""]",0,[0.8188999999761108],93,0,93,0,1,5d40a12f4994c40001e4b80c,31,Kobieta,2022-06-04_08h19.50.230,task,2021.1.4,Win32,59.84440455,628b806c463b948bc644b84f,629af77bae94f13c1837811d,,,,,,,,,,,,,,,,,,,,,,,,,,,,,,,,,,,,,,,,,,,,,,,,,,,,,,,,,,,,,,,,,,,,,,,,,,,,,,,,,,,,,,,,,,,,,,,,,,,,,,,
,,"[""comma""]",0,[0.801200000047686],94,0,94,0,1,5d40a12f4994c40001e4b80c,31,Kobieta,2022-06-04_08h19.50.230,task,2021.1.4,Win32,59.84440455,628b806c463b948bc644b84f,629af77bae94f13c1837811d,,,,,,,,,,,,,,,,,,,,,,,,,,,,,,,,,,,,,,,,,,,,,,,,,,,,,,,,,,,,,,,,,,,,,,,,,,,,,,,,,,,,,,,,,,,,,,,,,,,,,,,
,,"[""comma""]",0,[0.6187000000476814],95,0,95,0,1,5d40a12f4994c40001e4b80c,31,Kobieta,2022-06-04_08h19.50.230,task,2021.1.4,Win32,59.84440455,628b806c463b948bc644b84f,629af77bae94f13c1837811d,,,,,,,,,,,,,,,,,,,,,,,,,,,,,,,,,,,,,,,,,,,,,,,,,,,,,,,,,,,,,,,,,,,,,,,,,,,,,,,,,,,,,,,,,,,,,,,,,,,,,,,
,,"[""period""]",0,[0.4353999999761413],96,0,96,0,1,5d40a12f4994c40001e4b80c,31,Kobieta,2022-06-04_08h19.50.230,task,2021.1.4,Win32,59.84440455,628b806c463b948bc644b84f,629af77bae94f13c1837811d,,,,,,,,,,,,,,,,,,,,,,,,,,,,,,,,,,,,,,,,,,,,,,,,,,,,,,,,,,,,,,,,,,,,,,,,,,,,,,,,,,,,,,,,,,,,,,,,,,,,,,,
,,"[""period""]",0,[0.853600000023846],97,0,97,0,1,5d40a12f4994c40001e4b80c,31,Kobieta,2022-06-04_08h19.50.230,task,2021.1.4,Win32,59.84440455,628b806c463b948bc644b84f,629af77bae94f13c1837811d,,,,,,,,,,,,,,,,,,,,,,,,,,,,,,,,,,,,,,,,,,,,,,,,,,,,,,,,,,,,,,,,,,,,,,,,,,,,,,,,,,,,,,,,,,,,,,,,,,,,,,,
,,"[""period""]",0,[0.5023000000715001],98,0,98,0,1,5d40a12f4994c40001e4b80c,31,Kobieta,2022-06-04_08h19.50.230,task,2021.1.4,Win32,59.84440455,628b806c463b948bc644b84f,629af77bae94f13c1837811d,,,,,,,,,,,,,,,,,,,,,,,,,,,,,,,,,,,,,,,,,,,,,,,,,,,,,,,,,,,,,,,,,,,,,,,,,,,,,,,,,,,,,,,,,,,,,,,,,,,,,,,
,,"[""comma""]",0,[0.4687000000477042],99,0,99,0,1,5d40a12f4994c40001e4b80c,31,Kobieta,2022-06-04_08h19.50.230,task,2021.1.4,Win32,59.84440455,628b806c463b948bc644b84f,629af77bae94f13c1837811d,,,,,,,,,,,,,,,,,,,,,,,,,,,,,,,,,,,,,,,,,,,,,,,,,,,,,,,,,,,,,,,,,,,,,,,,,,,,,,,,,,,,,,,,,,,,,,,,,,,,,,,
,,"[""period""]",0,[0.6192000000476696],100,0,100,0,1,5d40a12f4994c40001e4b80c,31,Kobieta,2022-06-04_08h19.50.230,task,2021.1.4,Win32,59.84440455,628b806c463b948bc644b84f,629af77bae94f13c1837811d,,,,,,,,,,,,,,,,,,,,,,,,,,,,,,,,,,,,,,,,,,,,,,,,,,,,,,,,,,,,,,,,,,,,,,,,,,,,,,,,,,,,,,,,,,,,,,,,,,,,,,,
,,"[""comma""]",0,[0.5366000000238387],101,0,101,0,1,5d40a12f4994c40001e4b80c,31,Kobieta,2022-06-04_08h19.50.230,task,2021.1.4,Win32,59.84440455,628b806c463b948bc644b84f,629af77bae94f13c1837811d,,,,,,,,,,,,,,,,,,,,,,,,,,,,,,,,,,,,,,,,,,,,,,,,,,,,,,,,,,,,,,,,,,,,,,,,,,,,,,,,,,,,,,,,,,,,,,,,,,,,,,,
,,"[""period""]",0,[0.669200000047681],102,0,102,0,1,5d40a12f4994c40001e4b80c,31,Kobieta,2022-06-04_08h19.50.230,task,2021.1.4,Win32,59.84440455,628b806c463b948bc644b84f,629af77bae94f13c1837811d,,,,,,,,,,,,,,,,,,,,,,,,,,,,,,,,,,,,,,,,,,,,,,,,,,,,,,,,,,,,,,,,,,,,,,,,,,,,,,,,,,,,,,,,,,,,,,,,,,,,,,,
,,"[""period""]",0,[0.5686999999284694],103,0,103,0,1,5d40a12f4994c40001e4b80c,31,Kobieta,2022-06-04_08h19.50.230,task,2021.1.4,Win32,59.84440455,628b806c463b948bc644b84f,629af77bae94f13c1837811d,,,,,,,,,,,,,,,,,,,,,,,,,,,,,,,,,,,,,,,,,,,,,,,,,,,,,,,,,,,,,,,,,,,,,,,,,,,,,,,,,,,,,,,,,,,,,,,,,,,,,,,
,,"[""comma""]",0,[0.3686000000238323],104,0,104,0,1,5d40a12f4994c40001e4b80c,31,Kobieta,2022-06-04_08h19.50.230,task,2021.1.4,Win32,59.84440455,628b806c463b948bc644b84f,629af77bae94f13c1837811d,,,,,,,,,,,,,,,,,,,,,,,,,,,,,,,,,,,,,,,,,,,,,,,,,,,,,,,,,,,,,,,,,,,,,,,,,,,,,,,,,,,,,,,,,,,,,,,,,,,,,,,
,,"[""comma""]",0,[0.9367000000477219],105,0,105,0,1,5d40a12f4994c40001e4b80c,31,Kobieta,2022-06-04_08h19.50.230,task,2021.1.4,Win32,59.84440455,628b806c463b948bc644b84f,629af77bae94f13c1837811d,,,,,,,,,,,,,,,,,,,,,,,,,,,,,,,,,,,,,,,,,,,,,,,,,,,,,,,,,,,,,,,,,,,,,,,,,,,,,,,,,,,,,,,,,,,,,,,,,,,,,,,
,,"[""comma""]",0,[0.5854999999999677],106,0,106,0,1,5d40a12f4994c40001e4b80c,31,Kobieta,2022-06-04_08h19.50.230,task,2021.1.4,Win32,59.84440455,628b806c463b948bc644b84f,629af77bae94f13c1837811d,,,,,,,,,,,,,,,,,,,,,,,,,,,,,,,,,,,,,,,,,,,,,,,,,,,,,,,,,,,,,,,,,,,,,,,,,,,,,,,,,,,,,,,,,,,,,,,,,,,,,,,
,,"[""period""]",0,[0.3016999999284735],107,0,107,0,1,5d40a12f4994c40001e4b80c,31,Kobieta,2022-06-04_08h19.50.230,task,2021.1.4,Win32,59.84440455,628b806c463b948bc644b84f,629af77bae94f13c1837811d,,,,,,,,,,,,,,,,,,,,,,,,,,,,,,,,,,,,,,,,,,,,,,,,,,,,,,,,,,,,,,,,,,,,,,,,,,,,,,,,,,,,,,,,,,,,,,,,,,,,,,,
,,"[""period""]",0,[0.45259999990463484],108,0,108,0,1,5d40a12f4994c40001e4b80c,31,Kobieta,2022-06-04_08h19.50.230,task,2021.1.4,Win32,59.84440455,628b806c463b948bc644b84f,629af77bae94f13c1837811d,,,,,,,,,,,,,,,,,,,,,,,,,,,,,,,,,,,,,,,,,,,,,,,,,,,,,,,,,,,,,,,,,,,,,,,,,,,,,,,,,,,,,,,,,,,,,,,,,,,,,,,
,,"[""period""]",0,[0.4854000000954102],109,0,109,0,1,5d40a12f4994c40001e4b80c,31,Kobieta,2022-06-04_08h19.50.230,task,2021.1.4,Win32,59.84440455,628b806c463b948bc644b84f,629af77bae94f13c1837811d,,,,,,,,,,,,,,,,,,,,,,,,,,,,,,,,,,,,,,,,,,,,,,,,,,,,,,,,,,,,,,,,,,,,,,,,,,,,,,,,,,,,,,,,,,,,,,,,,,,,,,,
,,"[""comma""]",0,[0.33489999997618725],110,0,110,0,1,5d40a12f4994c40001e4b80c,31,Kobieta,2022-06-04_08h19.50.230,task,2021.1.4,Win32,59.84440455,628b806c463b948bc644b84f,629af77bae94f13c1837811d,,,,,,,,,,,,,,,,,,,,,,,,,,,,,,,,,,,,,,,,,,,,,,,,,,,,,,,,,,,,,,,,,,,,,,,,,,,,,,,,,,,,,,,,,,,,,,,,,,,,,,,
,,"[""comma""]",0,[0.919700000047726],111,0,111,0,1,5d40a12f4994c40001e4b80c,31,Kobieta,2022-06-04_08h19.50.230,task,2021.1.4,Win32,59.84440455,628b806c463b948bc644b84f,629af77bae94f13c1837811d,,,,,,,,,,,,,,,,,,,,,,,,,,,,,,,,,,,,,,,,,,,,,,,,,,,,,,,,,,,,,,,,,,,,,,,,,,,,,,,,,,,,,,,,,,,,,,,,,,,,,,,
,,"[""period""]",0,[0.9028999999761709],112,0,112,0,1,5d40a12f4994c40001e4b80c,31,Kobieta,2022-06-04_08h19.50.230,task,2021.1.4,Win32,59.84440455,628b806c463b948bc644b84f,629af77bae94f13c1837811d,,,,,,,,,,,,,,,,,,,,,,,,,,,,,,,,,,,,,,,,,,,,,,,,,,,,,,,,,,,,,,,,,,,,,,,,,,,,,,,,,,,,,,,,,,,,,,,,,,,,,,,
,,"[""comma""]",0,[0.5845000000000482],113,0,113,0,1,5d40a12f4994c40001e4b80c,31,Kobieta,2022-06-04_08h19.50.230,task,2021.1.4,Win32,59.84440455,628b806c463b948bc644b84f,629af77bae94f13c1837811d,,,,,,,,,,,,,,,,,,,,,,,,,,,,,,,,,,,,,,,,,,,,,,,,,,,,,,,,,,,,,,,,,,,,,,,,,,,,,,,,,,,,,,,,,,,,,,,,,,,,,,,
,,"[""comma""]",0,[0.584699999928489],114,0,114,0,1,5d40a12f4994c40001e4b80c,31,Kobieta,2022-06-04_08h19.50.230,task,2021.1.4,Win32,59.84440455,628b806c463b948bc644b84f,629af77bae94f13c1837811d,,,,,,,,,,,,,,,,,,,,,,,,,,,,,,,,,,,,,,,,,,,,,,,,,,,,,,,,,,,,,,,,,,,,,,,,,,,,,,,,,,,,,,,,,,,,,,,,,,,,,,,
,,"[""comma""]",0,[0.5198999999761327],115,0,115,0,1,5d40a12f4994c40001e4b80c,31,Kobieta,2022-06-04_08h19.50.230,task,2021.1.4,Win32,59.84440455,628b806c463b948bc644b84f,629af77bae94f13c1837811d,,,,,,,,,,,,,,,,,,,,,,,,,,,,,,,,,,,,,,,,,,,,,,,,,,,,,,,,,,,,,,,,,,,,,,,,,,,,,,,,,,,,,,,,,,,,,,,,,,,,,,,
,,"[""period""]",0,[0.4361000000238846],116,0,116,0,1,5d40a12f4994c40001e4b80c,31,Kobieta,2022-06-04_08h19.50.230,task,2021.1.4,Win32,59.84440455,628b806c463b948bc644b84f,629af77bae94f13c1837811d,,,,,,,,,,,,,,,,,,,,,,,,,,,,,,,,,,,,,,,,,,,,,,,,,,,,,,,,,,,,,,,,,,,,,,,,,,,,,,,,,,,,,,,,,,,,,,,,,,,,,,,
,,"[""period""]",0,[0.45160000002385914],117,0,117,0,1,5d40a12f4994c40001e4b80c,31,Kobieta,2022-06-04_08h19.50.230,task,2021.1.4,Win32,59.84440455,628b806c463b948bc644b84f,629af77bae94f13c1837811d,,,,,,,,,,,,,,,,,,,,,,,,,,,,,,,,,,,,,,,,,,,,,,,,,,,,,,,,,,,,,,,,,,,,,,,,,,,,,,,,,,,,,,,,,,,,,,,,,,,,,,,
,,"[""comma""]",0,[1.0020000000000095],118,0,118,0,1,5d40a12f4994c40001e4b80c,31,Kobieta,2022-06-04_08h19.50.230,task,2021.1.4,Win32,59.84440455,628b806c463b948bc644b84f,629af77bae94f13c1837811d,,,,,,,,,,,,,,,,,,,,,,,,,,,,,,,,,,,,,,,,,,,,,,,,,,,,,,,,,,,,,,,,,,,,,,,,,,,,,,,,,,,,,,,,,,,,,,,,,,,,,,,
,,"[""period""]",0,[1.018900000095357],119,0,119,0,1,5d40a12f4994c40001e4b80c,31,Kobieta,2022-06-04_08h19.50.230,task,2021.1.4,Win32,59.84440455,628b806c463b948bc644b84f,629af77bae94f13c1837811d,,,,,,,,,,,,,,,,,,,,,,,,,,,,,,,,,,,,,,,,,,,,,,,,,,,,,,,,,,,,,,,,,,,,,,,,,,,,,,,,,,,,,,,,,,,,,,,,,,,,,,,
,,,,,,,,,,5d40a12f4994c40001e4b80c,31,Kobieta,2022-06-04_08h19.50.230,task,2021.1.4,Win32,59.84440455,628b806c463b948bc644b84f,629af77bae94f13c1837811d,space,28.4847,space,8.6379,0,0,0,0,1,X V Q F H G B L J M P D K C T S W R N Z,,,,,,,,,,,,,,,,,,,,,,,,,,,,,,,,,,,,,,,,,,,,,,,,,,,,,,,,,,,,,,,,,,,,,,,,,,,,,,,,,,,,,,,,,,,,,
,,,,,,,,,,5d40a12f4994c40001e4b80c,31,Kobieta,2022-06-04_08h19.50.230,task,2021.1.4,Win32,59.84440455,628b806c463b948bc644b84f,629af77bae94f13c1837811d,,,,,1,0,1,0,1,X V Q F H G B L J M P D K C T S W R N Z,,,,,,,,,,,,,,,,,,,,,,,,,,,,,,,,,,,,,,,,,,,,,,,,,,,,,,,,,,,,,,,,,,,,,,,,,,,,,,,,,,,,,,,,,,,,,
,,,,,,,,,,5d40a12f4994c40001e4b80c,31,Kobieta,2022-06-04_08h19.50.230,task,2021.1.4,Win32,59.84440455,628b806c463b948bc644b84f,629af77bae94f13c1837811d,,,,,,,,,,,zp,"[""z"",""p""]","[1.8605000000000018,2.561899999976106,4.882899999976132]",1,ZP,0,0,0,0,1,,,,,,,,,,,,,,,,,,,,,,,,,,,,,,,,,,,,,,,,,,,,,,,,,,,,,,,,,,,,,,,,,,,,,,,,,,,,,,,,,,,
,,,,,,,,,,5d40a12f4994c40001e4b80c,31,Kobieta,2022-06-04_08h19.50.230,task,2021.1.4,Win32,59.84440455,628b806c463b948bc644b84f,629af77bae94f13c1837811d,,,,,0,0,0,0,1,X V Q F H G B L J M P D K C T S W R N Z,,,,,,,,,,,,,,,,,,,,,,,,,,,,,,,,,,,,,,,,,,,,,,,,,,,,,,,,,,,,,,,,,,,,,,,,,,,,,,,,,,,,,,,,,,,,,
,,,,,,,,,,5d40a12f4994c40001e4b80c,31,Kobieta,2022-06-04_08h19.50.230,task,2021.1.4,Win32,59.84440455,628b806c463b948bc644b84f,629af77bae94f13c1837811d,,,,,1,0,1,0,1,X V Q F H G B L J M P D K C T S W R N Z,,,,,,,,,,,,,,,,,,,,,,,,,,,,,,,,,,,,,,,,,,,,,,,,,,,,,,,,,,,,,,,,,,,,,,,,,,,,,,,,,,,,,,,,,,,,,
,,,,,,,,,,5d40a12f4994c40001e4b80c,31,Kobieta,2022-06-04_08h19.50.230,task,2021.1.4,Win32,59.84440455,628b806c463b948bc644b84f,629af77bae94f13c1837811d,,,,,,,,,,,gn,"[""g"",""n""]","[1.270600000023876,1.607500000000016,2.1608999999761522]",1,GN,1,0,1,0,1,,,,,,,,,,,,,,,,,,,,,,,,,,,,,,,,,,,,,,,,,,,,,,,,,,,,,,,,,,,,,,,,,,,,,,,,,,,,,,,,,,,
,,,,,,,,,,5d40a12f4994c40001e4b80c,31,Kobieta,2022-06-04_08h19.50.230,task,2021.1.4,Win32,59.84440455,628b806c463b948bc644b84f,629af77bae94f13c1837811d,,,,,0,0,0,0,1,X V Q F H G B L J M P D K C T S W R N Z,,,,,,,,,,,,,,,,,,,,,,,,,,,,,,,,,,,,,,,,,,,,,,,,,,,,,,,,,,,,,,,,,,,,,,,,,,,,,,,,,,,,,,,,,,,,,
,,,,,,,,,,5d40a12f4994c40001e4b80c,31,Kobieta,2022-06-04_08h19.50.230,task,2021.1.4,Win32,59.84440455,628b806c463b948bc644b84f,629af77bae94f13c1837811d,,,,,1,0,1,0,1,X V Q F H G B L J M P D K C T S W R N Z,,,,,,,,,,,,,,,,,,,,,,,,,,,,,,,,,,,,,,,,,,,,,,,,,,,,,,,,,,,,,,,,,,,,,,,,,,,,,,,,,,,,,,,,,,,,,
,,,,,,,,,,5d40a12f4994c40001e4b80c,31,Kobieta,2022-06-04_08h19.50.230,task,2021.1.4,Win32,59.84440455,628b806c463b948bc644b84f,629af77bae94f13c1837811d,,,,,2,0,2,0,1,X V Q F H G B L J M P D K C T S W R N Z,,,,,,,,,,,,,,,,,,,,,,,,,,,,,,,,,,,,,,,,,,,,,,,,,,,,,,,,,,,,,,,,,,,,,,,,,,,,,,,,,,,,,,,,,,,,,
,,,,,,,,,,5d40a12f4994c40001e4b80c,31,Kobieta,2022-06-04_08h19.50.230,task,2021.1.4,Win32,59.84440455,628b806c463b948bc644b84f,629af77bae94f13c1837811d,,,,,,,,,,,gmv,"[""g"",""m"",""v""]","[1.2515000000000214,1.6718999999761763,2.0933999999761568,2.8323999999761895]",1,GMV,2,0,2,0,1,,,,,,,,,,,,,,,,,,,,,,,,,,,,,,,,,,,,,,,,,,,,,,,,,,,,,,,,,,,,,,,,,,,,,,,,,,,,,,,,,,,
,,,,,,,,,,5d40a12f4994c40001e4b80c,31,Kobieta,2022-06-04_08h19.50.230,task,2021.1.4,Win32,59.84440455,628b806c463b948bc644b84f,629af77bae94f13c1837811d,,,,,0,0,0,0,1,X V Q F H G B L J M P D K C T S W R N Z,,,,,,,,,,,,,,,,,,,,,,,,,,,,,,,,,,,,,,,,,,,,,,,,,,,,,,,,,,,,,,,,,,,,,,,,,,,,,,,,,,,,,,,,,,,,,
,,,,,,,,,,5d40a12f4994c40001e4b80c,31,Kobieta,2022-06-04_08h19.50.230,task,2021.1.4,Win32,59.84440455,628b806c463b948bc644b84f,629af77bae94f13c1837811d,,,,,1,0,1,0,1,X V Q F H G B L J M P D K C T S W R N Z,,,,,,,,,,,,,,,,,,,,,,,,,,,,,,,,,,,,,,,,,,,,,,,,,,,,,,,,,,,,,,,,,,,,,,,,,,,,,,,,,,,,,,,,,,,,,
,,,,,,,,,,5d40a12f4994c40001e4b80c,31,Kobieta,2022-06-04_08h19.50.230,task,2021.1.4,Win32,59.84440455,628b806c463b948bc644b84f,629af77bae94f13c1837811d,,,,,2,0,2,0,1,X V Q F H G B L J M P D K C T S W R N Z,,,,,,,,,,,,,,,,,,,,,,,,,,,,,,,,,,,,,,,,,,,,,,,,,,,,,,,,,,,,,,,,,,,,,,,,,,,,,,,,,,,,,,,,,,,,,
,,,,,,,,,,5d40a12f4994c40001e4b80c,31,Kobieta,2022-06-04_08h19.50.230,task,2021.1.4,Win32,59.84440455,628b806c463b948bc644b84f,629af77bae94f13c1837811d,,,,,,,,,,,ksw,"[""k"",""s"",""w""]","[1.3360999999046044,1.8257999999523236,2.0093999999761536,2.755599999904632]",1,KSW,3,0,3,0,1,,,,,,,,,,,,,,,,,,,,,,,,,,,,,,,,,,,,,,,,,,,,,,,,,,,,,,,,,,,,,,,,,,,,,,,,,,,,,,,,,,,
,,,,,,,,,,5d40a12f4994c40001e4b80c,31,Kobieta,2022-06-04_08h19.50.230,task,2021.1.4,Win32,59.84440455,628b806c463b948bc644b84f,629af77bae94f13c1837811d,,,,,0,0,0,0,1,X V Q F H G B L J M P D K C T S W R N Z,,,,,,,,,,,,,,,,,,,,,,,,,,,,,,,,,,,,,,,,,,,,,,,,,,,,,,,,,,,,,,,,,,,,,,,,,,,,,,,,,,,,,,,,,,,,,
,,,,,,,,,,5d40a12f4994c40001e4b80c,31,Kobieta,2022-06-04_08h19.50.230,task,2021.1.4,Win32,59.84440455,628b806c463b948bc644b84f,629af77bae94f13c1837811d,,,,,1,0,1,0,1,X V Q F H G B L J M P D K C T S W R N Z,,,,,,,,,,,,,,,,,,,,,,,,,,,,,,,,,,,,,,,,,,,,,,,,,,,,,,,,,,,,,,,,,,,,,,,,,,,,,,,,,,,,,,,,,,,,,
,,,,,,,,,,5d40a12f4994c40001e4b80c,31,Kobieta,2022-06-04_08h19.50.230,task,2021.1.4,Win32,59.84440455,628b806c463b948bc644b84f,629af77bae94f13c1837811d,,,,,2,0,2,0,1,X V Q F H G B L J M P D K C T S W R N Z,,,,,,,,,,,,,,,,,,,,,,,,,,,,,,,,,,,,,,,,,,,,,,,,,,,,,,,,,,,,,,,,,,,,,,,,,,,,,,,,,,,,,,,,,,,,,
,,,,,,,,,,5d40a12f4994c40001e4b80c,31,Kobieta,2022-06-04_08h19.50.230,task,2021.1.4,Win32,59.84440455,628b806c463b948bc644b84f,629af77bae94f13c1837811d,,,,,3,0,3,0,1,X V Q F H G B L J M P D K C T S W R N Z,,,,,,,,,,,,,,,,,,,,,,,,,,,,,,,,,,,,,,,,,,,,,,,,,,,,,,,,,,,,,,,,,,,,,,,,,,,,,,,,,,,,,,,,,,,,,
,,,,,,,,,,5d40a12f4994c40001e4b80c,31,Kobieta,2022-06-04_08h19.50.230,task,2021.1.4,Win32,59.84440455,628b806c463b948bc644b84f,629af77bae94f13c1837811d,,,,,,,,,,,bkkb,"[""b"",""k"",""k"",""b""]","[1.1386000000238141,1.6498999999761281,1.8079999999999927,2.0981000000238055,2.8353999999761186]",1,BKKB,4,0,4,0,1,,,,,,,,,,,,,,,,,,,,,,,,,,,,,,,,,,,,,,,,,,,,,,,,,,,,,,,,,,,,,,,,,,,,,,,,,,,,,,,,,,,
,,,,,,,,,,5d40a12f4994c40001e4b80c,31,Kobieta,2022-06-04_08h19.50.230,task,2021.1.4,Win32,59.84440455,628b806c463b948bc644b84f,629af77bae94f13c1837811d,,,,,0,0,0,0,1,X V Q F H G B L J M P D K C T S W R N Z,,,,,,,,,,,,,,,,,,,,,,,,,,,,,,,,,,,,,,,,,,,,,,,,,,,,,,,,,,,,,,,,,,,,,,,,,,,,,,,,,,,,,,,,,,,,,
,,,,,,,,,,5d40a12f4994c40001e4b80c,31,Kobieta,2022-06-04_08h19.50.230,task,2021.1.4,Win32,59.84440455,628b806c463b948bc644b84f,629af77bae94f13c1837811d,,,,,1,0,1,0,1,X V Q F H G B L J M P D K C T S W R N Z,,,,,,,,,,,,,,,,,,,,,,,,,,,,,,,,,,,,,,,,,,,,,,,,,,,,,,,,,,,,,,,,,,,,,,,,,,,,,,,,,,,,,,,,,,,,,
,,,,,,,,,,5d40a12f4994c40001e4b80c,31,Kobieta,2022-06-04_08h19.50.230,task,2021.1.4,Win32,59.84440455,628b806c463b948bc644b84f,629af77bae94f13c1837811d,,,,,2,0,2,0,1,X V Q F H G B L J M P D K C T S W R N Z,,,,,,,,,,,,,,,,,,,,,,,,,,,,,,,,,,,,,,,,,,,,,,,,,,,,,,,,,,,,,,,,,,,,,,,,,,,,,,,,,,,,,,,,,,,,,
,,,,,,,,,,5d40a12f4994c40001e4b80c,31,Kobieta,2022-06-04_08h19.50.230,task,2021.1.4,Win32,59.84440455,628b806c463b948bc644b84f,629af77bae94f13c1837811d,,,,,3,0,3,0,1,X V Q F H G B L J M P D K C T S W R N Z,,,,,,,,,,,,,,,,,,,,,,,,,,,,,,,,,,,,,,,,,,,,,,,,,,,,,,,,,,,,,,,,,,,,,,,,,,,,,,,,,,,,,,,,,,,,,
,,,,,,,,,,5d40a12f4994c40001e4b80c,31,Kobieta,2022-06-04_08h19.50.230,task,2021.1.4,Win32,59.84440455,628b806c463b948bc644b84f,629af77bae94f13c1837811d,,,,,,,,,,,hxck,"[""h"",""x"",""c"",""k""]","[1.3896000000238473,1.839700000047685,2.1639999999999873,2.738200000047698,3.4597000000476896]",1,HXCK,5,0,5,0,1,,,,,,,,,,,,,,,,,,,,,,,,,,,,,,,,,,,,,,,,,,,,,,,,,,,,,,,,,,,,,,,,,,,,,,,,,,,,,,,,,,,
,,,,,,,,,,5d40a12f4994c40001e4b80c,31,Kobieta,2022-06-04_08h19.50.230,task,2021.1.4,Win32,59.84440455,628b806c463b948bc644b84f,629af77bae94f13c1837811d,,,,,0,0,0,0,1,X V Q F H G B L J M P D K C T S W R N Z,,,,,,,,,,,,,,,,,,,,,,,,,,,,,,,,,,,,,,,,,,,,,,,,,,,,,,,,,,,,,,,,,,,,,,,,,,,,,,,,,,,,,,,,,,,,,
,,,,,,,,,,5d40a12f4994c40001e4b80c,31,Kobieta,2022-06-04_08h19.50.230,task,2021.1.4,Win32,59.84440455,628b806c463b948bc644b84f,629af77bae94f13c1837811d,,,,,1,0,1,0,1,X V Q F H G B L J M P D K C T S W R N Z,,,,,,,,,,,,,,,,,,,,,,,,,,,,,,,,,,,,,,,,,,,,,,,,,,,,,,,,,,,,,,,,,,,,,,,,,,,,,,,,,,,,,,,,,,,,,
,,,,,,,,,,5d40a12f4994c40001e4b80c,31,Kobieta,2022-06-04_08h19.50.230,task,2021.1.4,Win32,59.84440455,628b806c463b948bc644b84f,629af77bae94f13c1837811d,,,,,2,0,2,0,1,X V Q F H G B L J M P D K C T S W R N Z,,,,,,,,,,,,,,,,,,,,,,,,,,,,,,,,,,,,,,,,,,,,,,,,,,,,,,,,,,,,,,,,,,,,,,,,,,,,,,,,,,,,,,,,,,,,,
,,,,,,,,,,5d40a12f4994c40001e4b80c,31,Kobieta,2022-06-04_08h19.50.230,task,2021.1.4,Win32,59.84440455,628b806c463b948bc644b84f,629af77bae94f13c1837811d,,,,,3,0,3,0,1,X V Q F H G B L J M P D K C T S W R N Z,,,,,,,,,,,,,,,,,,,,,,,,,,,,,,,,,,,,,,,,,,,,,,,,,,,,,,,,,,,,,,,,,,,,,,,,,,,,,,,,,,,,,,,,,,,,,
,,,,,,,,,,5d40a12f4994c40001e4b80c,31,Kobieta,2022-06-04_08h19.50.230,task,2021.1.4,Win32,59.84440455,628b806c463b948bc644b84f,629af77bae94f13c1837811d,,,,,4,0,4,0,1,X V Q F H G B L J M P D K C T S W R N Z,,,,,,,,,,,,,,,,,,,,,,,,,,,,,,,,,,,,,,,,,,,,,,,,,,,,,,,,,,,,,,,,,,,,,,,,,,,,,,,,,,,,,,,,,,,,,
,,,,,,,,,,5d40a12f4994c40001e4b80c,31,Kobieta,2022-06-04_08h19.50.230,task,2021.1.4,Win32,59.84440455,628b806c463b948bc644b84f,629af77bae94f13c1837811d,,,,,,,,,,,lffgj,"[""l"",""f"",""f"",""g"",""j""]","[0.8241000000238046,1.417799999952308,1.7523999999761486,2.0407999999522985,2.746899999976165,3.725399999976162]",1,LFFGJ,6,0,6,0,1,,,,,,,,,,,,,,,,,,,,,,,,,,,,,,,,,,,,,,,,,,,,,,,,,,,,,,,,,,,,,,,,,,,,,,,,,,,,,,,,,,,
,,,,,,,,,,5d40a12f4994c40001e4b80c,31,Kobieta,2022-06-04_08h19.50.230,task,2021.1.4,Win32,59.84440455,628b806c463b948bc644b84f,629af77bae94f13c1837811d,,,,,0,0,0,0,1,X V Q F H G B L J M P D K C T S W R N Z,,,,,,,,,,,,,,,,,,,,,,,,,,,,,,,,,,,,,,,,,,,,,,,,,,,,,,,,,,,,,,,,,,,,,,,,,,,,,,,,,,,,,,,,,,,,,
,,,,,,,,,,5d40a12f4994c40001e4b80c,31,Kobieta,2022-06-04_08h19.50.230,task,2021.1.4,Win32,59.84440455,628b806c463b948bc644b84f,629af77bae94f13c1837811d,,,,,1,0,1,0,1,X V Q F H G B L J M P D K C T S W R N Z,,,,,,,,,,,,,,,,,,,,,,,,,,,,,,,,,,,,,,,,,,,,,,,,,,,,,,,,,,,,,,,,,,,,,,,,,,,,,,,,,,,,,,,,,,,,,
,,,,,,,,,,5d40a12f4994c40001e4b80c,31,Kobieta,2022-06-04_08h19.50.230,task,2021.1.4,Win32,59.84440455,628b806c463b948bc644b84f,629af77bae94f13c1837811d,,,,,2,0,2,0,1,X V Q F H G B L J M P D K C T S W R N Z,,,,,,,,,,,,,,,,,,,,,,,,,,,,,,,,,,,,,,,,,,,,,,,,,,,,,,,,,,,,,,,,,,,,,,,,,,,,,,,,,,,,,,,,,,,,,
,,,,,,,,,,5d40a12f4994c40001e4b80c,31,Kobieta,2022-06-04_08h19.50.230,task,2021.1.4,Win32,59.84440455,628b806c463b948bc644b84f,629af77bae94f13c1837811d,,,,,3,0,3,0,1,X V Q F H G B L J M P D K C T S W R N Z,,,,,,,,,,,,,,,,,,,,,,,,,,,,,,,,,,,,,,,,,,,,,,,,,,,,,,,,,,,,,,,,,,,,,,,,,,,,,,,,,,,,,,,,,,,,,
,,,,,,,,,,5d40a12f4994c40001e4b80c,31,Kobieta,2022-06-04_08h19.50.230,task,2021.1.4,Win32,59.84440455,628b806c463b948bc644b84f,629af77bae94f13c1837811d,,,,,4,0,4,0,1,X V Q F H G B L J M P D K C T S W R N Z,,,,,,,,,,,,,,,,,,,,,,,,,,,,,,,,,,,,,,,,,,,,,,,,,,,,,,,,,,,,,,,,,,,,,,,,,,,,,,,,,,,,,,,,,,,,,
,,,,,,,,,,5d40a12f4994c40001e4b80c,31,Kobieta,2022-06-04_08h19.50.230,task,2021.1.4,Win32,59.84440455,628b806c463b948bc644b84f,629af77bae94f13c1837811d,,,,,,,,,,,nghpb,"[""n"",""g"",""h"",""p"",""b""]","[1.5203999999761777,1.8887999999523117,2.2379999999999995,2.840600000023869,4.025799999952312,4.85060000002386]",1,NGHPB,7,0,7,0,1,,,,,,,,,,,,,,,,,,,,,,,,,,,,,,,,,,,,,,,,,,,,,,,,,,,,,,,,,,,,,,,,,,,,,,,,,,,,,,,,,,,
,,,,,,,,,,5d40a12f4994c40001e4b80c,31,Kobieta,2022-06-04_08h19.50.230,task,2021.1.4,Win32,59.84440455,628b806c463b948bc644b84f,629af77bae94f13c1837811d,,,,,0,0,0,0,1,X V Q F H G B L J M P D K C T S W R N Z,,,,,,,,,,,,,,,,,,,,,,,,,,,,,,,,,,,,,,,,,,,,,,,,,,,,,,,,,,,,,,,,,,,,,,,,,,,,,,,,,,,,,,,,,,,,,
,,,,,,,,,,5d40a12f4994c40001e4b80c,31,Kobieta,2022-06-04_08h19.50.230,task,2021.1.4,Win32,59.84440455,628b806c463b948bc644b84f,629af77bae94f13c1837811d,,,,,1,0,1,0,1,X V Q F H G B L J M P D K C T S W R N Z,,,,,,,,,,,,,,,,,,,,,,,,,,,,,,,,,,,,,,,,,,,,,,,,,,,,,,,,,,,,,,,,,,,,,,,,,,,,,,,,,,,,,,,,,,,,,
,,,,,,,,,,5d40a12f4994c40001e4b80c,31,Kobieta,2022-06-04_08h19.50.230,task,2021.1.4,Win32,59.84440455,628b806c463b948bc644b84f,629af77bae94f13c1837811d,,,,,2,0,2,0,1,X V Q F H G B L J M P D K C T S W R N Z,,,,,,,,,,,,,,,,,,,,,,,,,,,,,,,,,,,,,,,,,,,,,,,,,,,,,,,,,,,,,,,,,,,,,,,,,,,,,,,,,,,,,,,,,,,,,
,,,,,,,,,,5d40a12f4994c40001e4b80c,31,Kobieta,2022-06-04_08h19.50.230,task,2021.1.4,Win32,59.84440455,628b806c463b948bc644b84f,629af77bae94f13c1837811d,,,,,3,0,3,0,1,X V Q F H G B L J M P D K C T S W R N Z,,,,,,,,,,,,,,,,,,,,,,,,,,,,,,,,,,,,,,,,,,,,,,,,,,,,,,,,,,,,,,,,,,,,,,,,,,,,,,,,,,,,,,,,,,,,,
,,,,,,,,,,5d40a12f4994c40001e4b80c,31,Kobieta,2022-06-04_08h19.50.230,task,2021.1.4,Win32,59.84440455,628b806c463b948bc644b84f,629af77bae94f13c1837811d,,,,,4,0,4,0,1,X V Q F H G B L J M P D K C T S W R N Z,,,,,,,,,,,,,,,,,,,,,,,,,,,,,,,,,,,,,,,,,,,,,,,,,,,,,,,,,,,,,,,,,,,,,,,,,,,,,,,,,,,,,,,,,,,,,
,,,,,,,,,,5d40a12f4994c40001e4b80c,31,Kobieta,2022-06-04_08h19.50.230,task,2021.1.4,Win32,59.84440455,628b806c463b948bc644b84f,629af77bae94f13c1837811d,,,,,5,0,5,0,1,X V Q F H G B L J M P D K C T S W R N Z,,,,,,,,,,,,,,,,,,,,,,,,,,,,,,,,,,,,,,,,,,,,,,,,,,,,,,,,,,,,,,,,,,,,,,,,,,,,,,,,,,,,,,,,,,,,,
,,,,,,,,,,5d40a12f4994c40001e4b80c,31,Kobieta,2022-06-04_08h19.50.230,task,2021.1.4,Win32,59.84440455,628b806c463b948bc644b84f,629af77bae94f13c1837811d,,,,,,,,,,,vhtjfn,"[""v"",""h"",""t"",""j"",""f"",""n""]","[1.186999999999955,1.8184999999999718,2.394999999999982,3.1192999999522613,3.7457999999522826,4.450799999952267,5.182299999952306]",1,VHTJFN,8,0,8,0,1,,,,,,,,,,,,,,,,,,,,,,,,,,,,,,,,,,,,,,,,,,,,,,,,,,,,,,,,,,,,,,,,,,,,,,,,,,,,,,,,,,,
,,,,,,,,,,5d40a12f4994c40001e4b80c,31,Kobieta,2022-06-04_08h19.50.230,task,2021.1.4,Win32,59.84440455,628b806c463b948bc644b84f,629af77bae94f13c1837811d,,,,,0,0,0,0,1,X V Q F H G B L J M P D K C T S W R N Z,,,,,,,,,,,,,,,,,,,,,,,,,,,,,,,,,,,,,,,,,,,,,,,,,,,,,,,,,,,,,,,,,,,,,,,,,,,,,,,,,,,,,,,,,,,,,
,,,,,,,,,,5d40a12f4994c40001e4b80c,31,Kobieta,2022-06-04_08h19.50.230,task,2021.1.4,Win32,59.84440455,628b806c463b948bc644b84f,629af77bae94f13c1837811d,,,,,1,0,1,0,1,X V Q F H G B L J M P D K C T S W R N Z,,,,,,,,,,,,,,,,,,,,,,,,,,,,,,,,,,,,,,,,,,,,,,,,,,,,,,,,,,,,,,,,,,,,,,,,,,,,,,,,,,,,,,,,,,,,,
,,,,,,,,,,5d40a12f4994c40001e4b80c,31,Kobieta,2022-06-04_08h19.50.230,task,2021.1.4,Win32,59.84440455,628b806c463b948bc644b84f,629af77bae94f13c1837811d,,,,,2,0,2,0,1,X V Q F H G B L J M P D K C T S W R N Z,,,,,,,,,,,,,,,,,,,,,,,,,,,,,,,,,,,,,,,,,,,,,,,,,,,,,,,,,,,,,,,,,,,,,,,,,,,,,,,,,,,,,,,,,,,,,
,,,,,,,,,,5d40a12f4994c40001e4b80c,31,Kobieta,2022-06-04_08h19.50.230,task,2021.1.4,Win32,59.84440455,628b806c463b948bc644b84f,629af77bae94f13c1837811d,,,,,3,0,3,0,1,X V Q F H G B L J M P D K C T S W R N Z,,,,,,,,,,,,,,,,,,,,,,,,,,,,,,,,,,,,,,,,,,,,,,,,,,,,,,,,,,,,,,,,,,,,,,,,,,,,,,,,,,,,,,,,,,,,,
,,,,,,,,,,5d40a12f4994c40001e4b80c,31,Kobieta,2022-06-04_08h19.50.230,task,2021.1.4,Win32,59.84440455,628b806c463b948bc644b84f,629af77bae94f13c1837811d,,,,,4,0,4,0,1,X V Q F H G B L J M P D K C T S W R N Z,,,,,,,,,,,,,,,,,,,,,,,,,,,,,,,,,,,,,,,,,,,,,,,,,,,,,,,,,,,,,,,,,,,,,,,,,,,,,,,,,,,,,,,,,,,,,
,,,,,,,,,,5d40a12f4994c40001e4b80c,31,Kobieta,2022-06-04_08h19.50.230,task,2021.1.4,Win32,59.84440455,628b806c463b948bc644b84f,629af77bae94f13c1837811d,,,,,5,0,5,0,1,X V Q F H G B L J M P D K C T S W R N Z,,,,,,,,,,,,,,,,,,,,,,,,,,,,,,,,,,,,,,,,,,,,,,,,,,,,,,,,,,,,,,,,,,,,,,,,,,,,,,,,,,,,,,,,,,,,,
,,,,,,,,,,5d40a12f4994c40001e4b80c,31,Kobieta,2022-06-04_08h19.50.230,task,2021.1.4,Win32,59.84440455,628b806c463b948bc644b84f,629af77bae94f13c1837811d,,,,,,,,,,,rsznsf,"[""r"",""s"",""z"",""n"",""s"",""f""]","[1.4519999999999982,1.8109999999999786,2.49019999992845,3.142100000023845,3.6247999999523017,4.1995000000000005,5.167899999976157]",1,RSZNSF,9,0,9,0,1,,,,,,,,,,,,,,,,,,,,,,,,,,,,,,,,,,,,,,,,,,,,,,,,,,,,,,,,,,,,,,,,,,,,,,,,,,,,,,,,,,,
,,,,,,,,,,5d40a12f4994c40001e4b80c,31,Kobieta,2022-06-04_08h19.50.230,task,2021.1.4,Win32,59.84440455,628b806c463b948bc644b84f,629af77bae94f13c1837811d,,,,,0,0,0,0,1,X V Q F H G B L J M P D K C T S W R N Z,,,,,,,,,,,,,,,,,,,,,,,,,,,,,,,,,,,,,,,,,,,,,,,,,,,,,,,,,,,,,,,,,,,,,,,,,,,,,,,,,,,,,,,,,,,,,
,,,,,,,,,,5d40a12f4994c40001e4b80c,31,Kobieta,2022-06-04_08h19.50.230,task,2021.1.4,Win32,59.84440455,628b806c463b948bc644b84f,629af77bae94f13c1837811d,,,,,1,0,1,0,1,X V Q F H G B L J M P D K C T S W R N Z,,,,,,,,,,,,,,,,,,,,,,,,,,,,,,,,,,,,,,,,,,,,,,,,,,,,,,,,,,,,,,,,,,,,,,,,,,,,,,,,,,,,,,,,,,,,,
,,,,,,,,,,5d40a12f4994c40001e4b80c,31,Kobieta,2022-06-04_08h19.50.230,task,2021.1.4,Win32,59.84440455,628b806c463b948bc644b84f,629af77bae94f13c1837811d,,,,,2,0,2,0,1,X V Q F H G B L J M P D K C T S W R N Z,,,,,,,,,,,,,,,,,,,,,,,,,,,,,,,,,,,,,,,,,,,,,,,,,,,,,,,,,,,,,,,,,,,,,,,,,,,,,,,,,,,,,,,,,,,,,
,,,,,,,,,,5d40a12f4994c40001e4b80c,31,Kobieta,2022-06-04_08h19.50.230,task,2021.1.4,Win32,59.84440455,628b806c463b948bc644b84f,629af77bae94f13c1837811d,,,,,3,0,3,0,1,X V Q F H G B L J M P D K C T S W R N Z,,,,,,,,,,,,,,,,,,,,,,,,,,,,,,,,,,,,,,,,,,,,,,,,,,,,,,,,,,,,,,,,,,,,,,,,,,,,,,,,,,,,,,,,,,,,,
,,,,,,,,,,5d40a12f4994c40001e4b80c,31,Kobieta,2022-06-04_08h19.50.230,task,2021.1.4,Win32,59.84440455,628b806c463b948bc644b84f,629af77bae94f13c1837811d,,,,,4,0,4,0,1,X V Q F H G B L J M P D K C T S W R N Z,,,,,,,,,,,,,,,,,,,,,,,,,,,,,,,,,,,,,,,,,,,,,,,,,,,,,,,,,,,,,,,,,,,,,,,,,,,,,,,,,,,,,,,,,,,,,
,,,,,,,,,,5d40a12f4994c40001e4b80c,31,Kobieta,2022-06-04_08h19.50.230,task,2021.1.4,Win32,59.84440455,628b806c463b948bc644b84f,629af77bae94f13c1837811d,,,,,5,0,5,0,1,X V Q F H G B L J M P D K C T S W R N Z,,,,,,,,,,,,,,,,,,,,,,,,,,,,,,,,,,,,,,,,,,,,,,,,,,,,,,,,,,,,,,,,,,,,,,,,,,,,,,,,,,,,,,,,,,,,,
,,,,,,,,,,5d40a12f4994c40001e4b80c,31,Kobieta,2022-06-04_08h19.50.230,task,2021.1.4,Win32,59.84440455,628b806c463b948bc644b84f,629af77bae94f13c1837811d,,,,,6,0,6,0,1,X V Q F H G B L J M P D K C T S W R N Z,,,,,,,,,,,,,,,,,,,,,,,,,,,,,,,,,,,,,,,,,,,,,,,,,,,,,,,,,,,,,,,,,,,,,,,,,,,,,,,,,,,,,,,,,,,,,
,,,,,,,,,,5d40a12f4994c40001e4b80c,31,Kobieta,2022-06-04_08h19.50.230,task,2021.1.4,Win32,59.84440455,628b806c463b948bc644b84f,629af77bae94f13c1837811d,,,,,,,,,,,jbfplzn,"[""j"",""b"",""f"",""p"",""l"",""z"",""n""]","[0.9847999999523154,2.1340000000000146,3.4231999999284994,4.391999999999996,4.626000000000033,5.735199999928511,6.356100000023844,7.164100000023836]",0,JBNPLZC,10,0,10,0,1,,,,,,,,,,,,,,,,,,,,,,,,,,,,,,,,,,,,,,,,,,,,,,,,,,,,,,,,,,,,,,,,,,,,,,,,,,,,,,,,,,,
,,,,,,,,,,5d40a12f4994c40001e4b80c,31,Kobieta,2022-06-04_08h19.50.230,task,2021.1.4,Win32,59.84440455,628b806c463b948bc644b84f,629af77bae94f13c1837811d,,,,,0,0,0,0,1,X V Q F H G B L J M P D K C T S W R N Z,,,,,,,,,,,,,,,,,,,,,,,,,,,,,,,,,,,,,,,,,,,,,,,,,,,,,,,,,,,,,,,,,,,,,,,,,,,,,,,,,,,,,,,,,,,,,
,,,,,,,,,,5d40a12f4994c40001e4b80c,31,Kobieta,2022-06-04_08h19.50.230,task,2021.1.4,Win32,59.84440455,628b806c463b948bc644b84f,629af77bae94f13c1837811d,,,,,1,0,1,0,1,X V Q F H G B L J M P D K C T S W R N Z,,,,,,,,,,,,,,,,,,,,,,,,,,,,,,,,,,,,,,,,,,,,,,,,,,,,,,,,,,,,,,,,,,,,,,,,,,,,,,,,,,,,,,,,,,,,,
,,,,,,,,,,5d40a12f4994c40001e4b80c,31,Kobieta,2022-06-04_08h19.50.230,task,2021.1.4,Win32,59.84440455,628b806c463b948bc644b84f,629af77bae94f13c1837811d,,,,,2,0,2,0,1,X V Q F H G B L J M P D K C T S W R N Z,,,,,,,,,,,,,,,,,,,,,,,,,,,,,,,,,,,,,,,,,,,,,,,,,,,,,,,,,,,,,,,,,,,,,,,,,,,,,,,,,,,,,,,,,,,,,
,,,,,,,,,,5d40a12f4994c40001e4b80c,31,Kobieta,2022-06-04_08h19.50.230,task,2021.1.4,Win32,59.84440455,628b806c463b948bc644b84f,629af77bae94f13c1837811d,,,,,3,0,3,0,1,X V Q F H G B L J M P D K C T S W R N Z,,,,,,,,,,,,,,,,,,,,,,,,,,,,,,,,,,,,,,,,,,,,,,,,,,,,,,,,,,,,,,,,,,,,,,,,,,,,,,,,,,,,,,,,,,,,,
,,,,,,,,,,5d40a12f4994c40001e4b80c,31,Kobieta,2022-06-04_08h19.50.230,task,2021.1.4,Win32,59.84440455,628b806c463b948bc644b84f,629af77bae94f13c1837811d,,,,,4,0,4,0,1,X V Q F H G B L J M P D K C T S W R N Z,,,,,,,,,,,,,,,,,,,,,,,,,,,,,,,,,,,,,,,,,,,,,,,,,,,,,,,,,,,,,,,,,,,,,,,,,,,,,,,,,,,,,,,,,,,,,
,,,,,,,,,,5d40a12f4994c40001e4b80c,31,Kobieta,2022-06-04_08h19.50.230,task,2021.1.4,Win32,59.84440455,628b806c463b948bc644b84f,629af77bae94f13c1837811d,,,,,5,0,5,0,1,X V Q F H G B L J M P D K C T S W R N Z,,,,,,,,,,,,,,,,,,,,,,,,,,,,,,,,,,,,,,,,,,,,,,,,,,,,,,,,,,,,,,,,,,,,,,,,,,,,,,,,,,,,,,,,,,,,,
,,,,,,,,,,5d40a12f4994c40001e4b80c,31,Kobieta,2022-06-04_08h19.50.230,task,2021.1.4,Win32,59.84440455,628b806c463b948bc644b84f,629af77bae94f13c1837811d,,,,,6,0,6,0,1,X V Q F H G B L J M P D K C T S W R N Z,,,,,,,,,,,,,,,,,,,,,,,,,,,,,,,,,,,,,,,,,,,,,,,,,,,,,,,,,,,,,,,,,,,,,,,,,,,,,,,,,,,,,,,,,,,,,
,,,,,,,,,,5d40a12f4994c40001e4b80c,31,Kobieta,2022-06-04_08h19.50.230,task,2021.1.4,Win32,59.84440455,628b806c463b948bc644b84f,629af77bae94f13c1837811d,,,,,,,,,,,bgmjrwt,"[""b"",""g"",""m"",""j"",""r"",""w"",""t""]","[1.9027999999523217,2.890099999904635,3.3026999999285067,3.885799999952326,4.322799999952338,4.664599999904681,5.117000000000019,5.912199999928475]",1,BGMJRWT,11,0,11,0,1,,,,,,,,,,,,,,,,,,,,,,,,,,,,,,,,,,,,,,,,,,,,,,,,,,,,,,,,,,,,,,,,,,,,,,,,,,,,,,,,,,,
,,,,,,,,,,5d40a12f4994c40001e4b80c,31,Kobieta,2022-06-04_08h19.50.230,task,2021.1.4,Win32,59.84440455,628b806c463b948bc644b84f,629af77bae94f13c1837811d,,,,,0,0,0,0,1,X V Q F H G B L J M P D K C T S W R N Z,,,,,,,,,,,,,,,,,,,,,,,,,,,,,,,,,,,,,,,,,,,,,,,,,,,,,,,,,,,,,,,,,,,,,,,,,,,,,,,,,,,,,,,,,,,,,
,,,,,,,,,,5d40a12f4994c40001e4b80c,31,Kobieta,2022-06-04_08h19.50.230,task,2021.1.4,Win32,59.84440455,628b806c463b948bc644b84f,629af77bae94f13c1837811d,,,,,1,0,1,0,1,X V Q F H G B L J M P D K C T S W R N Z,,,,,,,,,,,,,,,,,,,,,,,,,,,,,,,,,,,,,,,,,,,,,,,,,,,,,,,,,,,,,,,,,,,,,,,,,,,,,,,,,,,,,,,,,,,,,
,,,,,,,,,,5d40a12f4994c40001e4b80c,31,Kobieta,2022-06-04_08h19.50.230,task,2021.1.4,Win32,59.84440455,628b806c463b948bc644b84f,629af77bae94f13c1837811d,,,,,2,0,2,0,1,X V Q F H G B L J M P D K C T S W R N Z,,,,,,,,,,,,,,,,,,,,,,,,,,,,,,,,,,,,,,,,,,,,,,,,,,,,,,,,,,,,,,,,,,,,,,,,,,,,,,,,,,,,,,,,,,,,,
,,,,,,,,,,5d40a12f4994c40001e4b80c,31,Kobieta,2022-06-04_08h19.50.230,task,2021.1.4,Win32,59.84440455,628b806c463b948bc644b84f,629af77bae94f13c1837811d,,,,,3,0,3,0,1,X V Q F H G B L J M P D K C T S W R N Z,,,,,,,,,,,,,,,,,,,,,,,,,,,,,,,,,,,,,,,,,,,,,,,,,,,,,,,,,,,,,,,,,,,,,,,,,,,,,,,,,,,,,,,,,,,,,
,,,,,,,,,,5d40a12f4994c40001e4b80c,31,Kobieta,2022-06-04_08h19.50.230,task,2021.1.4,Win32,59.84440455,628b806c463b948bc644b84f,629af77bae94f13c1837811d,,,,,4,0,4,0,1,X V Q F H G B L J M P D K C T S W R N Z,,,,,,,,,,,,,,,,,,,,,,,,,,,,,,,,,,,,,,,,,,,,,,,,,,,,,,,,,,,,,,,,,,,,,,,,,,,,,,,,,,,,,,,,,,,,,
,,,,,,,,,,5d40a12f4994c40001e4b80c,31,Kobieta,2022-06-04_08h19.50.230,task,2021.1.4,Win32,59.84440455,628b806c463b948bc644b84f,629af77bae94f13c1837811d,,,,,5,0,5,0,1,X V Q F H G B L J M P D K C T S W R N Z,,,,,,,,,,,,,,,,,,,,,,,,,,,,,,,,,,,,,,,,,,,,,,,,,,,,,,,,,,,,,,,,,,,,,,,,,,,,,,,,,,,,,,,,,,,,,
,,,,,,,,,,5d40a12f4994c40001e4b80c,31,Kobieta,2022-06-04_08h19.50.230,task,2021.1.4,Win32,59.84440455,628b806c463b948bc644b84f,629af77bae94f13c1837811d,,,,,6,0,6,0,1,X V Q F H G B L J M P D K C T S W R N Z,,,,,,,,,,,,,,,,,,,,,,,,,,,,,,,,,,,,,,,,,,,,,,,,,,,,,,,,,,,,,,,,,,,,,,,,,,,,,,,,,,,,,,,,,,,,,
,,,,,,,,,,5d40a12f4994c40001e4b80c,31,Kobieta,2022-06-04_08h19.50.230,task,2021.1.4,Win32,59.84440455,628b806c463b948bc644b84f,629af77bae94f13c1837811d,,,,,,,,,,,lvggjvx,"[""l"",""v"",""g"",""g"",""j"",""v"",""x""]","[2.804599999904667,3.307599999904596,4.360000000000014,4.527099999904635,5.362199999928521,5.830799999952319,6.865099999904601,7.666699999928483]",0,LVGGRBX,12,0,12,0,1,,,,,,,,,,,,,,,,,,,,,,,,,,,,,,,,,,,,,,,,,,,,,,,,,,,,,,,,,,,,,,,,,,,,,,,,,,,,,,,,,,,
,,,,,,,,,,5d40a12f4994c40001e4b80c,31,Kobieta,2022-06-04_08h19.50.230,task,2021.1.4,Win32,59.84440455,628b806c463b948bc644b84f,629af77bae94f13c1837811d,,,,,0,0,0,0,1,X V Q F H G B L J M P D K C T S W R N Z,,,,,,,,,,,,,,,,,,,,,,,,,,,,,,,,,,,,,,,,,,,,,,,,,,,,,,,,,,,,,,,,,,,,,,,,,,,,,,,,,,,,,,,,,,,,,
,,,,,,,,,,5d40a12f4994c40001e4b80c,31,Kobieta,2022-06-04_08h19.50.230,task,2021.1.4,Win32,59.84440455,628b806c463b948bc644b84f,629af77bae94f13c1837811d,,,,,1,0,1,0,1,X V Q F H G B L J M P D K C T S W R N Z,,,,,,,,,,,,,,,,,,,,,,,,,,,,,,,,,,,,,,,,,,,,,,,,,,,,,,,,,,,,,,,,,,,,,,,,,,,,,,,,,,,,,,,,,,,,,
,,,,,,,,,,5d40a12f4994c40001e4b80c,31,Kobieta,2022-06-04_08h19.50.230,task,2021.1.4,Win32,59.84440455,628b806c463b948bc644b84f,629af77bae94f13c1837811d,,,,,2,0,2,0,1,X V Q F H G B L J M P D K C T S W R N Z,,,,,,,,,,,,,,,,,,,,,,,,,,,,,,,,,,,,,,,,,,,,,,,,,,,,,,,,,,,,,,,,,,,,,,,,,,,,,,,,,,,,,,,,,,,,,
,,,,,,,,,,5d40a12f4994c40001e4b80c,31,Kobieta,2022-06-04_08h19.50.230,task,2021.1.4,Win32,59.84440455,628b806c463b948bc644b84f,629af77bae94f13c1837811d,,,,,3,0,3,0,1,X V Q F H G B L J M P D K C T S W R N Z,,,,,,,,,,,,,,,,,,,,,,,,,,,,,,,,,,,,,,,,,,,,,,,,,,,,,,,,,,,,,,,,,,,,,,,,,,,,,,,,,,,,,,,,,,,,,
,,,,,,,,,,5d40a12f4994c40001e4b80c,31,Kobieta,2022-06-04_08h19.50.230,task,2021.1.4,Win32,59.84440455,628b806c463b948bc644b84f,629af77bae94f13c1837811d,,,,,4,0,4,0,1,X V Q F H G B L J M P D K C T S W R N Z,,,,,,,,,,,,,,,,,,,,,,,,,,,,,,,,,,,,,,,,,,,,,,,,,,,,,,,,,,,,,,,,,,,,,,,,,,,,,,,,,,,,,,,,,,,,,
,,,,,,,,,,5d40a12f4994c40001e4b80c,31,Kobieta,2022-06-04_08h19.50.230,task,2021.1.4,Win32,59.84440455,628b806c463b948bc644b84f,629af77bae94f13c1837811d,,,,,5,0,5,0,1,X V Q F H G B L J M P D K C T S W R N Z,,,,,,,,,,,,,,,,,,,,,,,,,,,,,,,,,,,,,,,,,,,,,,,,,,,,,,,,,,,,,,,,,,,,,,,,,,,,,,,,,,,,,,,,,,,,,
,,,,,,,,,,5d40a12f4994c40001e4b80c,31,Kobieta,2022-06-04_08h19.50.230,task,2021.1.4,Win32,59.84440455,628b806c463b948bc644b84f,629af77bae94f13c1837811d,,,,,6,0,6,0,1,X V Q F H G B L J M P D K C T S W R N Z,,,,,,,,,,,,,,,,,,,,,,,,,,,,,,,,,,,,,,,,,,,,,,,,,,,,,,,,,,,,,,,,,,,,,,,,,,,,,,,,,,,,,,,,,,,,,
,,,,,,,,,,5d40a12f4994c40001e4b80c,31,Kobieta,2022-06-04_08h19.50.230,task,2021.1.4,Win32,59.84440455,628b806c463b948bc644b84f,629af77bae94f13c1837811d,,,,,,,,,,,dvcqjpx,"[""d"",""v"",""c"",""q"",""j"",""p"",""x""]","[2.738200000047641,3.089600000023779,4.543400000095289,5.5802000000476255,6.983300000071495,8.035499999999956,13.282100000023775,14.182200000047601]",0,DPCQPHZ,13,0,13,0,1,,,,,,,,,,,,,,,,,,,,,,,,,,,,,,,,,,,,,,,,,,,,,,,,,,,,,,,,,,,,,,,,,,,,,,,,,,,,,,,,,,,
,,,,,,,,,,5d40a12f4994c40001e4b80c,31,Kobieta,2022-06-04_08h19.50.230,task,2021.1.4,Win32,59.84440455,628b806c463b948bc644b84f,629af77bae94f13c1837811d,,,,,,,,,,,,,,,,,,,,,space,7.8196,7,"[""7""]",1,[12.604000000000042],[12.604000000000042],0,0,0,7,1,Practice,8,(5x5) - 18,7,,,,,,,,,,,,,,,,,,,,,,,,,,,,,,,,,,,,,,,,,,,,,,,,,,,,,,,,,,,,,,,,,,,
,,,,,,,,,,5d40a12f4994c40001e4b80c,31,Kobieta,2022-06-04_08h19.50.230,task,2021.1.4,Win32,59.84440455,628b806c463b948bc644b84f,629af77bae94f13c1837811d,,,,,,,,,,,,,,,,,,,,,,,5,"[""5""]",1,[3.8912999999522526],"[12.604000000000042,3.8912999999522526]",0,1,1,5,1,Practice,6,(4/2) + 3,5,,,,,,,,,,,,,,,,,,,,,,,,,,,,,,,,,,,,,,,,,,,,,,,,,,,,,,,,,,,,,,,,,,,
,,,,,,,,,,5d40a12f4994c40001e4b80c,31,Kobieta,2022-06-04_08h19.50.230,task,2021.1.4,Win32,59.84440455,628b806c463b948bc644b84f,629af77bae94f13c1837811d,,,,,,,,,,,,,,,,,,,,,,,9,"[""9""]",1,[2.738999999999919],"[12.604000000000042,3.8912999999522526,2.738999999999919]",0,2,2,9,1,Practice,10,(20/2) - 1,9,,,,,,,,,,,,,,,,,,,,,,,,,,,,,,,,,,,,,,,,,,,,,,,,,,,,,,,,,,,,,,,,,,,
,,,,,,,,,,5d40a12f4994c40001e4b80c,31,Kobieta,2022-06-04_08h19.50.230,task,2021.1.4,Win32,59.84440455,628b806c463b948bc644b84f,629af77bae94f13c1837811d,,,,,,,,,,,,,,,,,,,,,,,4,"[""4""]",1,[2.4818999999762354],"[12.604000000000042,3.8912999999522526,2.738999999999919,2.4818999999762354]",0,3,3,4,1,Practice,5,(2x6) - 8,4,,,,,,,,,,,,,,,,,,,,,,,,,,,,,,,,,,,,,,,,,,,,,,,,,,,,,,,,,,,,,,,,,,,
,,,,,,,,,,5d40a12f4994c40001e4b80c,31,Kobieta,2022-06-04_08h19.50.230,task,2021.1.4,Win32,59.84440455,628b806c463b948bc644b84f,629af77bae94f13c1837811d,,,,,,,,,,,,,,,,,,,,,,,0,"[""0""]",1,[2.054600000023811],"[12.604000000000042,3.8912999999522526,2.738999999999919,2.4818999999762354,2.054600000023811]",0,4,4,0,1,Practice,1,(3x3) -  9,0,,,,,,,,,,,,,,,,,,,,,,,,,,,,,,,,,,,,,,,,,,,,,,,,,,,,,,,,,,,,,,,,,,,
,,,,,,,,,,5d40a12f4994c40001e4b80c,31,Kobieta,2022-06-04_08h19.50.230,task,2021.1.4,Win32,59.84440455,628b806c463b948bc644b84f,629af77bae94f13c1837811d,,,,,,,,,,,,,,,,,,,,,,,1,"[""1""]",1,[2.2897000000476737],"[12.604000000000042,3.8912999999522526,2.738999999999919,2.4818999999762354,2.054600000023811,2.2897000000476737]",0,5,5,1,1,Practice,2,(4x4) - 15,1,,,,,,,,,,,,,,,,,,,,,,,,,,,,,,,,,,,,,,,,,,,,,,,,,,,,,,,,,,,,,,,,,,,
,,,,,,,,,,5d40a12f4994c40001e4b80c,31,Kobieta,2022-06-04_08h19.50.230,task,2021.1.4,Win32,59.84440455,628b806c463b948bc644b84f,629af77bae94f13c1837811d,,,,,,,,,,,,,,,,,,,,,,,6,"[""6""]",1,[2.508299999952328],"[12.604000000000042,3.8912999999522526,2.738999999999919,2.4818999999762354,2.054600000023811,2.2897000000476737,2.508299999952328]",0,6,6,6,1,Practice,7,(25/5) + 1,6,,,,,,,,,,,,,,,,,,,,,,,,,,,,,,,,,,,,,,,,,,,,,,,,,,,,,,,,,,,,,,,,,,,
,,,,,,,,,,5d40a12f4994c40001e4b80c,31,Kobieta,2022-06-04_08h19.50.230,task,2021.1.4,Win32,59.84440455,628b806c463b948bc644b84f,629af77bae94f13c1837811d,,,,,,,,,,,,,,,,,,,,,,,3,"[""3""]",1,[2.1715000000000373],"[12.604000000000042,3.8912999999522526,2.738999999999919,2.4818999999762354,2.054600000023811,2.2897000000476737,2.508299999952328,2.1715000000000373]",0,7,7,3,1,Practice,4,(8/4) + 1,3,,,,,,,,,,,,,,,,,,,,,,,,,,,,,,,,,,,,,,,,,,,,,,,,,,,,,,,,,,,,,,,,,,,
,,,,,,,,,,5d40a12f4994c40001e4b80c,31,Kobieta,2022-06-04_08h19.50.230,task,2021.1.4,Win32,59.84440455,628b806c463b948bc644b84f,629af77bae94f13c1837811d,,,,,,,,,,,,,,,,,,,,,,,8,"[""8""]",1,[1.620300000071552],"[12.604000000000042,3.8912999999522526,2.738999999999919,2.4818999999762354,2.054600000023811,2.2897000000476737,2.508299999952328,2.1715000000000373,1.620300000071552]",0,8,8,8,1,Practice,9,(3x3) - 1,8,,,,,,,,,,,,,,,,,,,,,,,,,,,,,,,,,,,,,,,,,,,,,,,,,,,,,,,,,,,,,,,,,,,
,,,,,,,,,,5d40a12f4994c40001e4b80c,31,Kobieta,2022-06-04_08h19.50.230,task,2021.1.4,Win32,59.84440455,628b806c463b948bc644b84f,629af77bae94f13c1837811d,,,,,,,,,,,,,,,,,,,,,,,2,"[""2""]",1,[2.499500000000012],"[12.604000000000042,3.8912999999522526,2.738999999999919,2.4818999999762354,2.054600000023811,2.2897000000476737,2.508299999952328,2.1715000000000373,1.620300000071552,2.499500000000012]",0,9,9,2,1,Practice,3,(4x4) - 14,2,,,,,,,,,,,,,,,,,,,,,,,,,,,,,,,,,,,,,,,,,,,,,,,,,,,,,,,,,,,,,,,,,,,
,,,,,,,,,,5d40a12f4994c40001e4b80c,31,Kobieta,2022-06-04_08h19.50.230,task,2021.1.4,Win32,59.84440455,628b806c463b948bc644b84f,629af77bae94f13c1837811d,,,,,,,,,,,,,,,,,,,,,,,,,,,,,,,,,,,,,1,34.8601,2.324006667,108.9888013,2.695537068,9.278492303,space,2.3853,0,0,0,0,1,,,,,,,,,,,,,,,,,,,,,,,,,,,,,,,,,,,,,,,,,,,,,,,,,,,,,,
,,,,,,,,,,5d40a12f4994c40001e4b80c,31,Kobieta,2022-06-04_08h19.50.230,task,2021.1.4,Win32,59.84440455,628b806c463b948bc644b84f,629af77bae94f13c1837811d,,,,,,,,,,,,,,,,,,,,,,,4,,,,,,,,,,Practice,5,(2x6) - 8,4,,,,,,,,,,,,,,space,13.6649,"[""4""]",1,[3.468299999952251],1,0,0,0,4,1,,,,,,,,,,,,,,,,,,,,,,,,,,,,,,,,,,,,,,,,,,,
,,,,,,,,,,5d40a12f4994c40001e4b80c,31,Kobieta,2022-06-04_08h19.50.230,task,2021.1.4,Win32,59.84440455,628b806c463b948bc644b84f,629af77bae94f13c1837811d,,,,,,,,,,X V Q F H G B L J M P D K C T S W R N Z,,,,,,,,,,,,,,,,,,,,,,,,,,,,,,,,,,,,,,,,,,,,,,,,,,,0,0,0,0,1,,,,,,,,,,,,,,,,,,,,,,,,,,,,,,,,,,,,,,
,,,,,,,,,,5d40a12f4994c40001e4b80c,31,Kobieta,2022-06-04_08h19.50.230,task,2021.1.4,Win32,59.84440455,628b806c463b948bc644b84f,629af77bae94f13c1837811d,,,,,,,,,,,,,,,,,,,,,,,9,,,,,,,,,,Practice,10,(20/2) - 1,9,,,,,,,,,,,,,,,,"[""9""]",1,[7.86690000009537],1,0,0,0,9,1,,,,,,,,,,,,,,,,,,,,,,,,,,,,,,,,,,,,,,,,,,,
,,,,,,,,,,5d40a12f4994c40001e4b80c,31,Kobieta,2022-06-04_08h19.50.230,task,2021.1.4,Win32,59.84440455,628b806c463b948bc644b84f,629af77bae94f13c1837811d,,,,,,,,,,X V Q F H G B L J M P D K C T S W R N Z,,,,,,,,,,,,,,,,,,,,,,,,,,,,,,,,,,,,,,,,,,,,,,,,,,,1,0,1,0,1,,,,,,,,,,,,,,,,,,,,,,,,,,,,,,,,,,,,,,
,,,,,,,,,,5d40a12f4994c40001e4b80c,31,Kobieta,2022-06-04_08h19.50.230,task,2021.1.4,Win32,59.84440455,628b806c463b948bc644b84f,629af77bae94f13c1837811d,,,,,,,,,,,,,,,,,,,,,,,,,,,,,,,,,,,,,,,,,,,,,,,,,,,,,,,,,,,,,,,,,,zc,"[""z"",""c""]",0,"[2.4708999999761545,2.812000000000012,4.399399999976254]",1,0,0,0,0,1,,,,,,,,,,,,,,,,,,,,,,,,,,,,
,,,,,,,,,,5d40a12f4994c40001e4b80c,31,Kobieta,2022-06-04_08h19.50.230,task,2021.1.4,Win32,59.84440455,628b806c463b948bc644b84f,629af77bae94f13c1837811d,,,,,,,,,,,,,,,,,,,,,,,4,,,,,,,,,,Practice,5,(2x6) - 8,4,,,,,,,,,,,,,,,,"[""4""]",1,[4.345699999928456],1,0,0,0,4,1,,,,,,,,,,,,,,,,,,,,,,,,,,,,,,,,,,,,,,,,,,,
,,,,,,,,,,5d40a12f4994c40001e4b80c,31,Kobieta,2022-06-04_08h19.50.230,task,2021.1.4,Win32,59.84440455,628b806c463b948bc644b84f,629af77bae94f13c1837811d,,,,,,,,,,X V Q F H G B L J M P D K C T S W R N Z,,,,,,,,,,,,,,,,,,,,,,,,,,,,,,,,,,,,,,,,,,,,,,,,,,,0,0,0,0,1,,,,,,,,,,,,,,,,,,,,,,,,,,,,,,,,,,,,,,
,,,,,,,,,,5d40a12f4994c40001e4b80c,31,Kobieta,2022-06-04_08h19.50.230,task,2021.1.4,Win32,59.84440455,628b806c463b948bc644b84f,629af77bae94f13c1837811d,,,,,,,,,,,,,,,,,,,,,,,8,,,,,,,,,,Practice,9,(3x3) - 1,8,,,,,,,,,,,,,,,,"[""8""]",1,[2.0435000000001082],1,0,0,0,8,1,,,,,,,,,,,,,,,,,,,,,,,,,,,,,,,,,,,,,,,,,,,
,,,,,,,,,,5d40a12f4994c40001e4b80c,31,Kobieta,2022-06-04_08h19.50.230,task,2021.1.4,Win32,59.84440455,628b806c463b948bc644b84f,629af77bae94f13c1837811d,,,,,,,,,,X V Q F H G B L J M P D K C T S W R N Z,,,,,,,,,,,,,,,,,,,,,,,,,,,,,,,,,,,,,,,,,,,,,,,,,,,1,0,1,0,1,,,,,,,,,,,,,,,,,,,,,,,,,,,,,,,,,,,,,,
,,,,,,,,,,5d40a12f4994c40001e4b80c,31,Kobieta,2022-06-04_08h19.50.230,task,2021.1.4,Win32,59.84440455,628b806c463b948bc644b84f,629af77bae94f13c1837811d,,,,,,,,,,,,,,,,,,,,,,,,,,,,,,,,,,,,,,,,,,,,,,,,,,,,,,,,,,,,,,,,,,nz,"[""n"",""z""]",0,"[2.1752000000477665,2.639100000023859,3.416200000047752]",1,1,0,1,0,1,,,,,,,,,,,,,,,,,,,,,,,,,,,,
,,,,,,,,,,5d40a12f4994c40001e4b80c,31,Kobieta,2022-06-04_08h19.50.230,task,2021.1.4,Win32,59.84440455,628b806c463b948bc644b84f,629af77bae94f13c1837811d,,,,,,,,,,,,,,,,,,,,,,,9,,,,,,,,,,Practice,10,(20/2) - 1,9,,,,,,,,,,,,,,,,"[""9""]",1,[1.7180000000000746],1,0,0,0,9,1,,,,,,,,,,,,,,,,,,,,,,,,,,,,,,,,,,,,,,,,,,,
,,,,,,,,,,5d40a12f4994c40001e4b80c,31,Kobieta,2022-06-04_08h19.50.230,task,2021.1.4,Win32,59.84440455,628b806c463b948bc644b84f,629af77bae94f13c1837811d,,,,,,,,,,X V Q F H G B L J M P D K C T S W R N Z,,,,,,,,,,,,,,,,,,,,,,,,,,,,,,,,,,,,,,,,,,,,,,,,,,,0,0,0,0,1,,,,,,,,,,,,,,,,,,,,,,,,,,,,,,,,,,,,,,
,,,,,,,,,,5d40a12f4994c40001e4b80c,31,Kobieta,2022-06-04_08h19.50.230,task,2021.1.4,Win32,59.84440455,628b806c463b948bc644b84f,629af77bae94f13c1837811d,,,,,,,,,,,,,,,,,,,,,,,2,,,,,,,,,,Practice,3,(4x4) - 14,2,,,,,,,,,,,,,,,,"[""2""]",1,[2.4869999999999663],1,0,0,0,2,1,,,,,,,,,,,,,,,,,,,,,,,,,,,,,,,,,,,,,,,,,,,
,,,,,,,,,,5d40a12f4994c40001e4b80c,31,Kobieta,2022-06-04_08h19.50.230,task,2021.1.4,Win32,59.84440455,628b806c463b948bc644b84f,629af77bae94f13c1837811d,,,,,,,,,,X V Q F H G B L J M P D K C T S W R N Z,,,,,,,,,,,,,,,,,,,,,,,,,,,,,,,,,,,,,,,,,,,,,,,,,,,1,0,1,0,1,,,,,,,,,,,,,,,,,,,,,,,,,,,,,,,,,,,,,,
,,,,,,,,,,5d40a12f4994c40001e4b80c,31,Kobieta,2022-06-04_08h19.50.230,task,2021.1.4,Win32,59.84440455,628b806c463b948bc644b84f,629af77bae94f13c1837811d,,,,,,,,,,,,,,,,,,,,,,,,,,,,,,,,,,,,,,,,,,,,,,,,,,,,,,,,,,,,,,,,,,cm,"[""c"",""m""]",0,"[1.8563999999761336,2.2973999999761645,2.76760000002389]",1,2,0,2,0,1,,,,,,,,,,,,,,,,,,,,,,,,,,,,
,,,,,,,,,,5d40a12f4994c40001e4b80c,31,Kobieta,2022-06-04_08h19.50.230,task,2021.1.4,Win32,59.84440455,628b806c463b948bc644b84f,629af77bae94f13c1837811d,,,,,,,,,,,,,,,,,,,,,,,9,,,,,,,,,,Task,7,(3x7) - 12,9,,,,,,,,,,,,,,,,,,,1,,,,,,,,,,,,,,,,,,,,,space,49.7421,"[""9""]",1,[3.949999999999932],0,0,0,6,1,,,,,,,,,,,,,,,,,,
,,,,,,,,,,5d40a12f4994c40001e4b80c,31,Kobieta,2022-06-04_08h19.50.230,task,2021.1.4,Win32,59.84440455,628b806c463b948bc644b84f,629af77bae94f13c1837811d,,,,,,,,,,X V Q F H G B L J M P D K C T S W R N Z,,,,,,,,,,,,,,,,,,,,,,,,,,,,,,,,,,,,,,,,,,,,,,,,,,,,,,,,,,,,,,,,,,,,,,,,,,,,0,0,0,0,1,,,,,,,,,,,,,
,,,,,,,,,,5d40a12f4994c40001e4b80c,31,Kobieta,2022-06-04_08h19.50.230,task,2021.1.4,Win32,59.84440455,628b806c463b948bc644b84f,629af77bae94f13c1837811d,,,,,,,,,,,,,,,,,,,,,,,4,,,,,,,,,,Task,28,(2x5) - 6,4,,,,,,,,,,,,,,,,,,,1,,,,,,,,,,,,,,,,,,,,,,,"[""4""]",1,[2.832300000071541],0,0,0,27,1,,,,,,,,,,,,,,,,,,
,,,,,,,,,,5d40a12f4994c40001e4b80c,31,Kobieta,2022-06-04_08h19.50.230,task,2021.1.4,Win32,59.84440455,628b806c463b948bc644b84f,629af77bae94f13c1837811d,,,,,,,,,,X V Q F H G B L J M P D K C T S W R N Z,,,,,,,,,,,,,,,,,,,,,,,,,,,,,,,,,,,,,,,,,,,,,,,,,,,,,,,,,,,,,,,,,,,,,,,,,,,,1,0,1,0,1,,,,,,,,,,,,,
,,,,,,,,,,5d40a12f4994c40001e4b80c,31,Kobieta,2022-06-04_08h19.50.230,task,2021.1.4,Win32,59.84440455,628b806c463b948bc644b84f,629af77bae94f13c1837811d,,,,,,,,,,,,,,,,,,,,,,,,,,,,,,,,,,,,,,,,,,,,,,,,,,,,,,,,,,,,,,,,,,,,,,,,,,,,,,,,,,,,,,,,,,,zz,"[""z"",""z""]",0,"[1.88900000000001,2.0225000000000364,2.8404000000954284]",1,ZZ,0,0,0,0,1,,
,,,,,,,,,,5d40a12f4994c40001e4b80c,31,Kobieta,2022-06-04_08h19.50.230,task,2021.1.4,Win32,59.84440455,628b806c463b948bc644b84f,629af77bae94f13c1837811d,,,,,,,,,,,,,,,,,,,,,,,4,,,,,,,,,,Task,21,(10/2) - 1,4,,,,,,,,,,,,,,,,,,,1,,,,,,,,,,,,,,,,,,,,,,,"[""4""]",1,[3.2450000000000045],0,0,0,20,1,,,,,,,,,,,,,,,,,,
,,,,,,,,,,5d40a12f4994c40001e4b80c,31,Kobieta,2022-06-04_08h19.50.230,task,2021.1.4,Win32,59.84440455,628b806c463b948bc644b84f,629af77bae94f13c1837811d,,,,,,,,,,X V Q F H G B L J M P D K C T S W R N Z,,,,,,,,,,,,,,,,,,,,,,,,,,,,,,,,,,,,,,,,,,,,,,,,,,,,,,,,,,,,,,,,,,,,,,,,,,,,0,0,0,0,1,,,,,,,,,,,,,
,,,,,,,,,,5d40a12f4994c40001e4b80c,31,Kobieta,2022-06-04_08h19.50.230,task,2021.1.4,Win32,59.84440455,628b806c463b948bc644b84f,629af77bae94f13c1837811d,,,,,,,,,,,,,,,,,,,,,,,9,,,,,,,,,,Task,40,(7x2) - 5,9,,,,,,,,,,,,,,,,,,,1,,,,,,,,,,,,,,,,,,,,,,,"[""9""]",1,[3.2886000000238482],0,0,0,39,1,,,,,,,,,,,,,,,,,,
,,,,,,,,,,5d40a12f4994c40001e4b80c,31,Kobieta,2022-06-04_08h19.50.230,task,2021.1.4,Win32,59.84440455,628b806c463b948bc644b84f,629af77bae94f13c1837811d,,,,,,,,,,X V Q F H G B L J M P D K C T S W R N Z,,,,,,,,,,,,,,,,,,,,,,,,,,,,,,,,,,,,,,,,,,,,,,,,,,,,,,,,,,,,,,,,,,,,,,,,,,,,1,0,1,0,1,,,,,,,,,,,,,
,,,,,,,,,,5d40a12f4994c40001e4b80c,31,Kobieta,2022-06-04_08h19.50.230,task,2021.1.4,Win32,59.84440455,628b806c463b948bc644b84f,629af77bae94f13c1837811d,,,,,,,,,,,,,,,,,,,,,,,4,,,,,,,,,,Task,11,(18/3) - 2,4,,,,,,,,,,,,,,,,,,,1,,,,,,,,,,,,,,,,,,,,,,,"[""4""]",1,[3.707200000047692],0,0,0,10,1,,,,,,,,,,,,,,,,,,
,,,,,,,,,,5d40a12f4994c40001e4b80c,31,Kobieta,2022-06-04_08h19.50.230,task,2021.1.4,Win32,59.84440455,628b806c463b948bc644b84f,629af77bae94f13c1837811d,,,,,,,,,,X V Q F H G B L J M P D K C T S W R N Z,,,,,,,,,,,,,,,,,,,,,,,,,,,,,,,,,,,,,,,,,,,,,,,,,,,,,,,,,,,,,,,,,,,,,,,,,,,,2,0,2,0,1,,,,,,,,,,,,,
,,,,,,,,,,5d40a12f4994c40001e4b80c,31,Kobieta,2022-06-04_08h19.50.230,task,2021.1.4,Win32,59.84440455,628b806c463b948bc644b84f,629af77bae94f13c1837811d,,,,,,,,,,,,,,,,,,,,,,,,,,,,,,,,,,,,,,,,,,,,,,,,,,,,,,,,,,,,,,,,,,,,,,,,,,,,,,,,,,,,,,,,,,,gxv,"[""g"",""x"",""v""]",0,"[1.9058999999762136,2.740299999952299,4.005499999999984,4.916500000000042]",1,GXV,1,0,1,0,1,,
,,,,,,,,,,5d40a12f4994c40001e4b80c,31,Kobieta,2022-06-04_08h19.50.230,task,2021.1.4,Win32,59.84440455,628b806c463b948bc644b84f,629af77bae94f13c1837811d,,,,,,,,,,,,,,,,,,,,,,,3,,,,,,,,,,Task,3,(2x3) - 3,3,,,,,,,,,,,,,,,,,,,1,,,,,,,,,,,,,,,,,,,,,,,"[""3""]",1,[2.7023999999761372],0,0,0,2,1,,,,,,,,,,,,,,,,,,
,,,,,,,,,,5d40a12f4994c40001e4b80c,31,Kobieta,2022-06-04_08h19.50.230,task,2021.1.4,Win32,59.84440455,628b806c463b948bc644b84f,629af77bae94f13c1837811d,,,,,,,,,,X V Q F H G B L J M P D K C T S W R N Z,,,,,,,,,,,,,,,,,,,,,,,,,,,,,,,,,,,,,,,,,,,,,,,,,,,,,,,,,,,,,,,,,,,,,,,,,,,,0,0,0,0,1,,,,,,,,,,,,,
,,,,,,,,,,5d40a12f4994c40001e4b80c,31,Kobieta,2022-06-04_08h19.50.230,task,2021.1.4,Win32,59.84440455,628b806c463b948bc644b84f,629af77bae94f13c1837811d,,,,,,,,,,,,,,,,,,,,,,,3,,,,,,,,,,Task,3,(2x3) - 3,3,,,,,,,,,,,,,,,,,,,1,,,,,,,,,,,,,,,,,,,,,,,"[""3""]",1,[2.9414999999999054],0,0,0,2,1,,,,,,,,,,,,,,,,,,
,,,,,,,,,,5d40a12f4994c40001e4b80c,31,Kobieta,2022-06-04_08h19.50.230,task,2021.1.4,Win32,59.84440455,628b806c463b948bc644b84f,629af77bae94f13c1837811d,,,,,,,,,,X V Q F H G B L J M P D K C T S W R N Z,,,,,,,,,,,,,,,,,,,,,,,,,,,,,,,,,,,,,,,,,,,,,,,,,,,,,,,,,,,,,,,,,,,,,,,,,,,,1,0,1,0,1,,,,,,,,,,,,,
,,,,,,,,,,5d40a12f4994c40001e4b80c,31,Kobieta,2022-06-04_08h19.50.230,task,2021.1.4,Win32,59.84440455,628b806c463b948bc644b84f,629af77bae94f13c1837811d,,,,,,,,,,,,,,,,,,,,,,,3,,,,,,,,,,Task,35,(1x2) + 1,3,,,,,,,,,,,,,,,,,,,1,,,,,,,,,,,,,,,,,,,,,,,"[""3""]",1,[2.5042000000476037],0,0,0,34,1,,,,,,,,,,,,,,,,,,
,,,,,,,,,,5d40a12f4994c40001e4b80c,31,Kobieta,2022-06-04_08h19.50.230,task,2021.1.4,Win32,59.84440455,628b806c463b948bc644b84f,629af77bae94f13c1837811d,,,,,,,,,,X V Q F H G B L J M P D K C T S W R N Z,,,,,,,,,,,,,,,,,,,,,,,,,,,,,,,,,,,,,,,,,,,,,,,,,,,,,,,,,,,,,,,,,,,,,,,,,,,,2,0,2,0,1,,,,,,,,,,,,,
,,,,,,,,,,5d40a12f4994c40001e4b80c,31,Kobieta,2022-06-04_08h19.50.230,task,2021.1.4,Win32,59.84440455,628b806c463b948bc644b84f,629af77bae94f13c1837811d,,,,,,,,,,,,,,,,,,,,,,,3,,,,,,,,,,Task,35,(1x2) + 1,3,,,,,,,,,,,,,,,,,,,1,,,,,,,,,,,,,,,,,,,,,,,"[""3""]",1,[4.8856999999285335],0,0,0,34,1,,,,,,,,,,,,,,,,,,
,,,,,,,,,,5d40a12f4994c40001e4b80c,31,Kobieta,2022-06-04_08h19.50.230,task,2021.1.4,Win32,59.84440455,628b806c463b948bc644b84f,629af77bae94f13c1837811d,,,,,,,,,,X V Q F H G B L J M P D K C T S W R N Z,,,,,,,,,,,,,,,,,,,,,,,,,,,,,,,,,,,,,,,,,,,,,,,,,,,,,,,,,,,,,,,,,,,,,,,,,,,,3,0,3,0,1,,,,,,,,,,,,,
,,,,,,,,,,5d40a12f4994c40001e4b80c,31,Kobieta,2022-06-04_08h19.50.230,task,2021.1.4,Win32,59.84440455,628b806c463b948bc644b84f,629af77bae94f13c1837811d,,,,,,,,,,,,,,,,,,,,,,,,,,,,,,,,,,,,,,,,,,,,,,,,,,,,,,,,,,,,,,,,,,,,,,,,,,,,,,,,,,,,,,,,,,,lxxd,"[""l"",""x"",""x"",""d""]",0,"[1.4714000000952865,2.2324000000953674,2.3924999999999272,2.6151000000237445,3.425300000071502]",1,LXXD,2,0,2,0,1,,
,,,,,,,,,,5d40a12f4994c40001e4b80c,31,Kobieta,2022-06-04_08h19.50.230,task,2021.1.4,Win32,59.84440455,628b806c463b948bc644b84f,629af77bae94f13c1837811d,,,,,,,,,,,,,,,,,,,,,,,1,,,,,,,,,,Task,1,(12/6) - 1,1,,,,,,,,,,,,,,,,,,,1,,,,,,,,,,,,,,,,,,,,,,,"[""1""]",1,[5.736099999904582],0,0,0,0,1,,,,,,,,,,,,,,,,,,
,,,,,,,,,,5d40a12f4994c40001e4b80c,31,Kobieta,2022-06-04_08h19.50.230,task,2021.1.4,Win32,59.84440455,628b806c463b948bc644b84f,629af77bae94f13c1837811d,,,,,,,,,,X V Q F H G B L J M P D K C T S W R N Z,,,,,,,,,,,,,,,,,,,,,,,,,,,,,,,,,,,,,,,,,,,,,,,,,,,,,,,,,,,,,,,,,,,,,,,,,,,,0,0,0,0,1,,,,,,,,,,,,,
,,,,,,,,,,5d40a12f4994c40001e4b80c,31,Kobieta,2022-06-04_08h19.50.230,task,2021.1.4,Win32,59.84440455,628b806c463b948bc644b84f,629af77bae94f13c1837811d,,,,,,,,,,,,,,,,,,,,,,,5,,,,,,,,,,Task,22,(3x1) + 2,5,,,,,,,,,,,,,,,,,,,1,,,,,,,,,,,,,,,,,,,,,,,"[""5""]",1,[3.1121000000238155],0,0,0,21,1,,,,,,,,,,,,,,,,,,
,,,,,,,,,,5d40a12f4994c40001e4b80c,31,Kobieta,2022-06-04_08h19.50.230,task,2021.1.4,Win32,59.84440455,628b806c463b948bc644b84f,629af77bae94f13c1837811d,,,,,,,,,,X V Q F H G B L J M P D K C T S W R N Z,,,,,,,,,,,,,,,,,,,,,,,,,,,,,,,,,,,,,,,,,,,,,,,,,,,,,,,,,,,,,,,,,,,,,,,,,,,,1,0,1,0,1,,,,,,,,,,,,,
,,,,,,,,,,5d40a12f4994c40001e4b80c,31,Kobieta,2022-06-04_08h19.50.230,task,2021.1.4,Win32,59.84440455,628b806c463b948bc644b84f,629af77bae94f13c1837811d,,,,,,,,,,,,,,,,,,,,,,,5,,,,,,,,,,Task,12,(4x4) - 11,5,,,,,,,,,,,,,,,,,,,1,,,,,,,,,,,,,,,,,,,,,,,"[""5""]",1,[3.3082999999522826],0,0,0,11,1,,,,,,,,,,,,,,,,,,
,,,,,,,,,,5d40a12f4994c40001e4b80c,31,Kobieta,2022-06-04_08h19.50.230,task,2021.1.4,Win32,59.84440455,628b806c463b948bc644b84f,629af77bae94f13c1837811d,,,,,,,,,,X V Q F H G B L J M P D K C T S W R N Z,,,,,,,,,,,,,,,,,,,,,,,,,,,,,,,,,,,,,,,,,,,,,,,,,,,,,,,,,,,,,,,,,,,,,,,,,,,,2,0,2,0,1,,,,,,,,,,,,,
,,,,,,,,,,5d40a12f4994c40001e4b80c,31,Kobieta,2022-06-04_08h19.50.230,task,2021.1.4,Win32,59.84440455,628b806c463b948bc644b84f,629af77bae94f13c1837811d,,,,,,,,,,,,,,,,,,,,,,,4,,,,,,,,,,Task,4,(1x5) - 1,4,,,,,,,,,,,,,,,,,,,1,,,,,,,,,,,,,,,,,,,,,,,"[""4""]",1,[2.3374999999999773],0,0,0,3,1,,,,,,,,,,,,,,,,,,
,,,,,,,,,,5d40a12f4994c40001e4b80c,31,Kobieta,2022-06-04_08h19.50.230,task,2021.1.4,Win32,59.84440455,628b806c463b948bc644b84f,629af77bae94f13c1837811d,,,,,,,,,,X V Q F H G B L J M P D K C T S W R N Z,,,,,,,,,,,,,,,,,,,,,,,,,,,,,,,,,,,,,,,,,,,,,,,,,,,,,,,,,,,,,,,,,,,,,,,,,,,,3,0,3,0,1,,,,,,,,,,,,,
,,,,,,,,,,5d40a12f4994c40001e4b80c,31,Kobieta,2022-06-04_08h19.50.230,task,2021.1.4,Win32,59.84440455,628b806c463b948bc644b84f,629af77bae94f13c1837811d,,,,,,,,,,,,,,,,,,,,,,,8,,,,,,,,,,Task,39,(5x3) - 7,8,,,,,,,,,,,,,,,,,,,1,,,,,,,,,,,,,,,,,,,,,,,"[""8""]",1,[7.486100000023839],0,0,0,38,1,,,,,,,,,,,,,,,,,,
,,,,,,,,,,5d40a12f4994c40001e4b80c,31,Kobieta,2022-06-04_08h19.50.230,task,2021.1.4,Win32,59.84440455,628b806c463b948bc644b84f,629af77bae94f13c1837811d,,,,,,,,,,X V Q F H G B L J M P D K C T S W R N Z,,,,,,,,,,,,,,,,,,,,,,,,,,,,,,,,,,,,,,,,,,,,,,,,,,,,,,,,,,,,,,,,,,,,,,,,,,,,4,0,4,0,1,,,,,,,,,,,,,
,,,,,,,,,,5d40a12f4994c40001e4b80c,31,Kobieta,2022-06-04_08h19.50.230,task,2021.1.4,Win32,59.84440455,628b806c463b948bc644b84f,629af77bae94f13c1837811d,,,,,,,,,,,,,,,,,,,,,,,,,,,,,,,,,,,,,,,,,,,,,,,,,,,,,,,,,,,,,,,,,,,,,,,,,,,,,,,,,,,,,,,,,,,zrwfv,"[""z"",""r"",""w"",""f"",""v""]",0,"[1.7551000000238446,2.360800000071549,2.741000000000099,3.275000000000091,4.084500000000048,6.107500000000073]",1,ZRWFV,3,0,3,0,1,,
,,,,,,,,,,5d40a12f4994c40001e4b80c,31,Kobieta,2022-06-04_08h19.50.230,task,2021.1.4,Win32,59.84440455,628b806c463b948bc644b84f,629af77bae94f13c1837811d,,,,,,,,,,,,,,,,,,,,,,,0,,,,,,,,,,Task,33,(1/1) - 1,0,,,,,,,,,,,,,,,,,,,1,,,,,,,,,,,,,,,,,,,,,,,"[""0""]",1,[2.872000000000071],0,0,0,32,1,,,,,,,,,,,,,,,,,,
,,,,,,,,,,5d40a12f4994c40001e4b80c,31,Kobieta,2022-06-04_08h19.50.230,task,2021.1.4,Win32,59.84440455,628b806c463b948bc644b84f,629af77bae94f13c1837811d,,,,,,,,,,X V Q F H G B L J M P D K C T S W R N Z,,,,,,,,,,,,,,,,,,,,,,,,,,,,,,,,,,,,,,,,,,,,,,,,,,,,,,,,,,,,,,,,,,,,,,,,,,,,0,0,0,0,1,,,,,,,,,,,,,
,,,,,,,,,,5d40a12f4994c40001e4b80c,31,Kobieta,2022-06-04_08h19.50.230,task,2021.1.4,Win32,59.84440455,628b806c463b948bc644b84f,629af77bae94f13c1837811d,,,,,,,,,,,,,,,,,,,,,,,1,,,,,,,,,,Task,1,(12/6) - 1,1,,,,,,,,,,,,,,,,,,,1,,,,,,,,,,,,,,,,,,,,,,,"[""1""]",1,[3.12169999992841],0,0,0,0,1,,,,,,,,,,,,,,,,,,
,,,,,,,,,,5d40a12f4994c40001e4b80c,31,Kobieta,2022-06-04_08h19.50.230,task,2021.1.4,Win32,59.84440455,628b806c463b948bc644b84f,629af77bae94f13c1837811d,,,,,,,,,,X V Q F H G B L J M P D K C T S W R N Z,,,,,,,,,,,,,,,,,,,,,,,,,,,,,,,,,,,,,,,,,,,,,,,,,,,,,,,,,,,,,,,,,,,,,,,,,,,,1,0,1,0,1,,,,,,,,,,,,,
,,,,,,,,,,5d40a12f4994c40001e4b80c,31,Kobieta,2022-06-04_08h19.50.230,task,2021.1.4,Win32,59.84440455,628b806c463b948bc644b84f,629af77bae94f13c1837811d,,,,,,,,,,,,,,,,,,,,,,,5,,,,,,,,,,Task,36,(8/4) + 3,5,,,,,,,,,,,,,,,,,,,1,,,,,,,,,,,,,,,,,,,,,,,"[""5""]",1,[3.8923000000714865],0,0,0,35,1,,,,,,,,,,,,,,,,,,
,,,,,,,,,,5d40a12f4994c40001e4b80c,31,Kobieta,2022-06-04_08h19.50.230,task,2021.1.4,Win32,59.84440455,628b806c463b948bc644b84f,629af77bae94f13c1837811d,,,,,,,,,,X V Q F H G B L J M P D K C T S W R N Z,,,,,,,,,,,,,,,,,,,,,,,,,,,,,,,,,,,,,,,,,,,,,,,,,,,,,,,,,,,,,,,,,,,,,,,,,,,,2,0,2,0,1,,,,,,,,,,,,,
,,,,,,,,,,5d40a12f4994c40001e4b80c,31,Kobieta,2022-06-04_08h19.50.230,task,2021.1.4,Win32,59.84440455,628b806c463b948bc644b84f,629af77bae94f13c1837811d,,,,,,,,,,,,,,,,,,,,,,,3,,,,,,,,,,Task,3,(2x3) - 3,3,,,,,,,,,,,,,,,,,,,1,,,,,,,,,,,,,,,,,,,,,,,"[""3""]",1,[6.011999999999944],0,0,0,2,1,,,,,,,,,,,,,,,,,,
,,,,,,,,,,5d40a12f4994c40001e4b80c,31,Kobieta,2022-06-04_08h19.50.230,task,2021.1.4,Win32,59.84440455,628b806c463b948bc644b84f,629af77bae94f13c1837811d,,,,,,,,,,X V Q F H G B L J M P D K C T S W R N Z,,,,,,,,,,,,,,,,,,,,,,,,,,,,,,,,,,,,,,,,,,,,,,,,,,,,,,,,,,,,,,,,,,,,,,,,,,,,3,0,3,0,1,,,,,,,,,,,,,
,,,,,,,,,,5d40a12f4994c40001e4b80c,31,Kobieta,2022-06-04_08h19.50.230,task,2021.1.4,Win32,59.84440455,628b806c463b948bc644b84f,629af77bae94f13c1837811d,,,,,,,,,,,,,,,,,,,,,,,1,,,,,,,,,,Task,9,(3x7) - 20,1,,,,,,,,,,,,,,,,,,,1,,,,,,,,,,,,,,,,,,,,,,,"[""1""]",1,[4.606199999928549],0,0,0,8,1,,,,,,,,,,,,,,,,,,
,,,,,,,,,,5d40a12f4994c40001e4b80c,31,Kobieta,2022-06-04_08h19.50.230,task,2021.1.4,Win32,59.84440455,628b806c463b948bc644b84f,629af77bae94f13c1837811d,,,,,,,,,,X V Q F H G B L J M P D K C T S W R N Z,,,,,,,,,,,,,,,,,,,,,,,,,,,,,,,,,,,,,,,,,,,,,,,,,,,,,,,,,,,,,,,,,,,,,,,,,,,,4,0,4,0,1,,,,,,,,,,,,,
,,,,,,,,,,5d40a12f4994c40001e4b80c,31,Kobieta,2022-06-04_08h19.50.230,task,2021.1.4,Win32,59.84440455,628b806c463b948bc644b84f,629af77bae94f13c1837811d,,,,,,,,,,,,,,,,,,,,,,,4,,,,,,,,,,Task,28,(2x5) - 6,4,,,,,,,,,,,,,,,,,,,1,,,,,,,,,,,,,,,,,,,,,,,"[""4""]",1,[3.9914999999999736],0,0,0,27,1,,,,,,,,,,,,,,,,,,
,,,,,,,,,,5d40a12f4994c40001e4b80c,31,Kobieta,2022-06-04_08h19.50.230,task,2021.1.4,Win32,59.84440455,628b806c463b948bc644b84f,629af77bae94f13c1837811d,,,,,,,,,,X V Q F H G B L J M P D K C T S W R N Z,,,,,,,,,,,,,,,,,,,,,,,,,,,,,,,,,,,,,,,,,,,,,,,,,,,,,,,,,,,,,,,,,,,,,,,,,,,,5,0,5,0,1,,,,,,,,,,,,,
,,,,,,,,,,5d40a12f4994c40001e4b80c,31,Kobieta,2022-06-04_08h19.50.230,task,2021.1.4,Win32,59.84440455,628b806c463b948bc644b84f,629af77bae94f13c1837811d,,,,,,,,,,,,,,,,,,,,,,,,,,,,,,,,,,,,,,,,,,,,,,,,,,,,,,,,,,,,,,,,,,,,,,,,,,,,,,,,,,,,,,,,,,,fsxlkq,"[""f"",""s"",""x"",""l"",""k"",""q""]",0,"[2.5286000000238573,2.8738999999761745,3.1077999999523627,3.9106000000238055,4.143600000023866,4.8966000000237955,5.888000000000034]",1,FSXLKQ,4,0,4,0,1,,
,,,,,,,,,,5d40a12f4994c40001e4b80c,31,Kobieta,2022-06-04_08h19.50.230,task,2021.1.4,Win32,59.84440455,628b806c463b948bc644b84f,629af77bae94f13c1837811d,,,,,,,,,,,,,,,,,,,,,,,,,,,,,,,,,Task,29,(3x8) - 19 ,5,,,,,,,,,,,,,,,,,,,0,,,,,,,,,,,,,,,,,,,,,,,,0,,0,0,0,28,1,,,,,,,,,,,,,,,,,,
,,,,,,,,,,5d40a12f4994c40001e4b80c,31,Kobieta,2022-06-04_08h19.50.230,task,2021.1.4,Win32,59.84440455,628b806c463b948bc644b84f,629af77bae94f13c1837811d,,,,,,,,,,,,,,,,,,,,,,,4,,,,,,,,,,Task,4,(1x5) - 1,4,,,,,,,,,,,,,,,,,,,1,,,,,,,,,,,,,,,,,,,,,,,"[""4""]",1,[2.5066999999284008],0,1,1,3,1,,,,,,,,,,,,,,,,,,
,,,,,,,,,,5d40a12f4994c40001e4b80c,31,Kobieta,2022-06-04_08h19.50.230,task,2021.1.4,Win32,59.84440455,628b806c463b948bc644b84f,629af77bae94f13c1837811d,,,,,,,,,,X V Q F H G B L J M P D K C T S W R N Z,,,,,,,,,,,,,,,,,,,,,,,,,,,,,,,,,,,,,,,,,,,,,,,,,,,,,,,,,,,,,,,,,,,,,,,,,,,,0,0,0,0,1,,,,,,,,,,,,,
,,,,,,,,,,5d40a12f4994c40001e4b80c,31,Kobieta,2022-06-04_08h19.50.230,task,2021.1.4,Win32,59.84440455,628b806c463b948bc644b84f,629af77bae94f13c1837811d,,,,,,,,,,,,,,,,,,,,,,,0,,,,,,,,,,Task,25,(10/5) - 2,0,,,,,,,,,,,,,,,,,,,1,,,,,,,,,,,,,,,,,,,,,,,"[""0""]",1,[2.863199999928497],0,0,0,24,1,,,,,,,,,,,,,,,,,,
,,,,,,,,,,5d40a12f4994c40001e4b80c,31,Kobieta,2022-06-04_08h19.50.230,task,2021.1.4,Win32,59.84440455,628b806c463b948bc644b84f,629af77bae94f13c1837811d,,,,,,,,,,X V Q F H G B L J M P D K C T S W R N Z,,,,,,,,,,,,,,,,,,,,,,,,,,,,,,,,,,,,,,,,,,,,,,,,,,,,,,,,,,,,,,,,,,,,,,,,,,,,1,0,1,0,1,,,,,,,,,,,,,
,,,,,,,,,,5d40a12f4994c40001e4b80c,31,Kobieta,2022-06-04_08h19.50.230,task,2021.1.4,Win32,59.84440455,628b806c463b948bc644b84f,629af77bae94f13c1837811d,,,,,,,,,,,,,,,,,,,,,,,9,,,,,,,,,,Task,40,(7x2) - 5,9,,,,,,,,,,,,,,,,,,,1,,,,,,,,,,,,,,,,,,,,,,,"[""9""]",1,[2.076900000095293],0,0,0,39,1,,,,,,,,,,,,,,,,,,
,,,,,,,,,,5d40a12f4994c40001e4b80c,31,Kobieta,2022-06-04_08h19.50.230,task,2021.1.4,Win32,59.84440455,628b806c463b948bc644b84f,629af77bae94f13c1837811d,,,,,,,,,,X V Q F H G B L J M P D K C T S W R N Z,,,,,,,,,,,,,,,,,,,,,,,,,,,,,,,,,,,,,,,,,,,,,,,,,,,,,,,,,,,,,,,,,,,,,,,,,,,,2,0,2,0,1,,,,,,,,,,,,,
,,,,,,,,,,5d40a12f4994c40001e4b80c,31,Kobieta,2022-06-04_08h19.50.230,task,2021.1.4,Win32,59.84440455,628b806c463b948bc644b84f,629af77bae94f13c1837811d,,,,,,,,,,,,,,,,,,,,,,,7,,,,,,,,,,Task,38,(4x6) - 17,7,,,,,,,,,,,,,,,,,,,1,,,,,,,,,,,,,,,,,,,,,,,"[""7""]",1,[4.692399999976146],0,0,0,37,1,,,,,,,,,,,,,,,,,,
,,,,,,,,,,5d40a12f4994c40001e4b80c,31,Kobieta,2022-06-04_08h19.50.230,task,2021.1.4,Win32,59.84440455,628b806c463b948bc644b84f,629af77bae94f13c1837811d,,,,,,,,,,X V Q F H G B L J M P D K C T S W R N Z,,,,,,,,,,,,,,,,,,,,,,,,,,,,,,,,,,,,,,,,,,,,,,,,,,,,,,,,,,,,,,,,,,,,,,,,,,,,3,0,3,0,1,,,,,,,,,,,,,
,,,,,,,,,,5d40a12f4994c40001e4b80c,31,Kobieta,2022-06-04_08h19.50.230,task,2021.1.4,Win32,59.84440455,628b806c463b948bc644b84f,629af77bae94f13c1837811d,,,,,,,,,,,,,,,,,,,,,,,6,,,,,,,,,,Task,13,(3x4) - 6,6,,,,,,,,,,,,,,,,,,,1,,,,,,,,,,,,,,,,,,,,,,,"[""6""]",1,[3.6747000000476646],0,0,0,12,1,,,,,,,,,,,,,,,,,,
,,,,,,,,,,5d40a12f4994c40001e4b80c,31,Kobieta,2022-06-04_08h19.50.230,task,2021.1.4,Win32,59.84440455,628b806c463b948bc644b84f,629af77bae94f13c1837811d,,,,,,,,,,X V Q F H G B L J M P D K C T S W R N Z,,,,,,,,,,,,,,,,,,,,,,,,,,,,,,,,,,,,,,,,,,,,,,,,,,,,,,,,,,,,,,,,,,,,,,,,,,,,4,0,4,0,1,,,,,,,,,,,,,
,,,,,,,,,,5d40a12f4994c40001e4b80c,31,Kobieta,2022-06-04_08h19.50.230,task,2021.1.4,Win32,59.84440455,628b806c463b948bc644b84f,629af77bae94f13c1837811d,,,,,,,,,,,,,,,,,,,,,,,2,,,,,,,,,,Task,19,(6/2) - 1,2,,,,,,,,,,,,,,,,,,,1,,,,,,,,,,,,,,,,,,,,,,,"[""2""]",1,[3.3747999999523017],0,0,0,18,1,,,,,,,,,,,,,,,,,,
,,,,,,,,,,5d40a12f4994c40001e4b80c,31,Kobieta,2022-06-04_08h19.50.230,task,2021.1.4,Win32,59.84440455,628b806c463b948bc644b84f,629af77bae94f13c1837811d,,,,,,,,,,X V Q F H G B L J M P D K C T S W R N Z,,,,,,,,,,,,,,,,,,,,,,,,,,,,,,,,,,,,,,,,,,,,,,,,,,,,,,,,,,,,,,,,,,,,,,,,,,,,5,0,5,0,1,,,,,,,,,,,,,
,,,,,,,,,,5d40a12f4994c40001e4b80c,31,Kobieta,2022-06-04_08h19.50.230,task,2021.1.4,Win32,59.84440455,628b806c463b948bc644b84f,629af77bae94f13c1837811d,,,,,,,,,,,,,,,,,,,,,,,5,,,,,,,,,,Task,29,(3x8) - 19 ,5,,,,,,,,,,,,,,,,,,,1,,,,,,,,,,,,,,,,,,,,,,,"[""5""]",1,[3.3833999999761772],0,0,0,28,1,,,,,,,,,,,,,,,,,,
,,,,,,,,,,5d40a12f4994c40001e4b80c,31,Kobieta,2022-06-04_08h19.50.230,task,2021.1.4,Win32,59.84440455,628b806c463b948bc644b84f,629af77bae94f13c1837811d,,,,,,,,,,X V Q F H G B L J M P D K C T S W R N Z,,,,,,,,,,,,,,,,,,,,,,,,,,,,,,,,,,,,,,,,,,,,,,,,,,,,,,,,,,,,,,,,,,,,,,,,,,,,6,0,6,0,1,,,,,,,,,,,,,
,,,,,,,,,,5d40a12f4994c40001e4b80c,31,Kobieta,2022-06-04_08h19.50.230,task,2021.1.4,Win32,59.84440455,628b806c463b948bc644b84f,629af77bae94f13c1837811d,,,,,,,,,,,,,,,,,,,,,,,,,,,,,,,,,,,,,,,,,,,,,,,,,,,,,,,,,,,,,,,,,,,,,,,,,,,,,,,,,,,,,,,,,,,vvnptjs,"[""v"",""v"",""n"",""p"",""t"",""j"",""s""]",0,"[2.6097000000477237,2.7586000000238755,3.2238999999761973,3.781399999976202,4.273700000047711,4.660200000047666,5.078399999976114,5.815399999976194]",1,VVNPTJS,5,0,5,0,1,,
,,,,,,,,,,5d40a12f4994c40001e4b80c,31,Kobieta,2022-06-04_08h19.50.230,task,2021.1.4,Win32,59.84440455,628b806c463b948bc644b84f,629af77bae94f13c1837811d,,,,,,,,,,,,,,,,,,,,,,,6,,,,,,,,,,Task,5,(2x3) + 0,6,,,,,,,,,,,,,,,,,,,1,,,,,,,,,,,,,,,,,,,,,,,"[""6""]",1,[2.5223999999761872],0,0,0,4,1,,,,,,,,,,,,,,,,,,
,,,,,,,,,,5d40a12f4994c40001e4b80c,31,Kobieta,2022-06-04_08h19.50.230,task,2021.1.4,Win32,59.84440455,628b806c463b948bc644b84f,629af77bae94f13c1837811d,,,,,,,,,,X V Q F H G B L J M P D K C T S W R N Z,,,,,,,,,,,,,,,,,,,,,,,,,,,,,,,,,,,,,,,,,,,,,,,,,,,,,,,,,,,,,,,,,,,,,,,,,,,,0,0,0,0,1,,,,,,,,,,,,,
,,,,,,,,,,5d40a12f4994c40001e4b80c,31,Kobieta,2022-06-04_08h19.50.230,task,2021.1.4,Win32,59.84440455,628b806c463b948bc644b84f,629af77bae94f13c1837811d,,,,,,,,,,,,,,,,,,,,,,,2,,,,,,,,,,Task,26,(2x9) - 16,2,,,,,,,,,,,,,,,,,,,1,,,,,,,,,,,,,,,,,,,,,,,"[""2""]",1,[2.822100000023852],0,0,0,25,1,,,,,,,,,,,,,,,,,,
,,,,,,,,,,5d40a12f4994c40001e4b80c,31,Kobieta,2022-06-04_08h19.50.230,task,2021.1.4,Win32,59.84440455,628b806c463b948bc644b84f,629af77bae94f13c1837811d,,,,,,,,,,X V Q F H G B L J M P D K C T S W R N Z,,,,,,,,,,,,,,,,,,,,,,,,,,,,,,,,,,,,,,,,,,,,,,,,,,,,,,,,,,,,,,,,,,,,,,,,,,,,1,0,1,0,1,,,,,,,,,,,,,
,,,,,,,,,,5d40a12f4994c40001e4b80c,31,Kobieta,2022-06-04_08h19.50.230,task,2021.1.4,Win32,59.84440455,628b806c463b948bc644b84f,629af77bae94f13c1837811d,,,,,,,,,,,,,,,,,,,,,,,4,,,,,,,,,,Task,11,(18/3) - 2,4,,,,,,,,,,,,,,,,,,,1,,,,,,,,,,,,,,,,,,,,,,,"[""4""]",1,[2.506999999999948],0,0,0,10,1,,,,,,,,,,,,,,,,,,
,,,,,,,,,,5d40a12f4994c40001e4b80c,31,Kobieta,2022-06-04_08h19.50.230,task,2021.1.4,Win32,59.84440455,628b806c463b948bc644b84f,629af77bae94f13c1837811d,,,,,,,,,,X V Q F H G B L J M P D K C T S W R N Z,,,,,,,,,,,,,,,,,,,,,,,,,,,,,,,,,,,,,,,,,,,,,,,,,,,,,,,,,,,,,,,,,,,,,,,,,,,,2,0,2,0,1,,,,,,,,,,,,,
,,,,,,,,,,5d40a12f4994c40001e4b80c,31,Kobieta,2022-06-04_08h19.50.230,task,2021.1.4,Win32,59.84440455,628b806c463b948bc644b84f,629af77bae94f13c1837811d,,,,,,,,,,,,,,,,,,,,,,,0,,,,,,,,,,Task,33,(1/1) - 1,0,,,,,,,,,,,,,,,,,,,1,,,,,,,,,,,,,,,,,,,,,,,"[""0""]",1,[2.131399999976111],0,0,0,32,1,,,,,,,,,,,,,,,,,,
,,,,,,,,,,5d40a12f4994c40001e4b80c,31,Kobieta,2022-06-04_08h19.50.230,task,2021.1.4,Win32,59.84440455,628b806c463b948bc644b84f,629af77bae94f13c1837811d,,,,,,,,,,X V Q F H G B L J M P D K C T S W R N Z,,,,,,,,,,,,,,,,,,,,,,,,,,,,,,,,,,,,,,,,,,,,,,,,,,,,,,,,,,,,,,,,,,,,,,,,,,,,3,0,3,0,1,,,,,,,,,,,,,
,,,,,,,,,,5d40a12f4994c40001e4b80c,31,Kobieta,2022-06-04_08h19.50.230,task,2021.1.4,Win32,59.84440455,628b806c463b948bc644b84f,629af77bae94f13c1837811d,,,,,,,,,,,,,,,,,,,,,,,2,,,,,,,,,,Task,19,(6/2) - 1,2,,,,,,,,,,,,,,,,,,,1,,,,,,,,,,,,,,,,,,,,,,,"[""2""]",1,[2.503399999976182],0,0,0,18,1,,,,,,,,,,,,,,,,,,
,,,,,,,,,,5d40a12f4994c40001e4b80c,31,Kobieta,2022-06-04_08h19.50.230,task,2021.1.4,Win32,59.84440455,628b806c463b948bc644b84f,629af77bae94f13c1837811d,,,,,,,,,,X V Q F H G B L J M P D K C T S W R N Z,,,,,,,,,,,,,,,,,,,,,,,,,,,,,,,,,,,,,,,,,,,,,,,,,,,,,,,,,,,,,,,,,,,,,,,,,,,,4,0,4,0,1,,,,,,,,,,,,,
,,,,,,,,,,5d40a12f4994c40001e4b80c,31,Kobieta,2022-06-04_08h19.50.230,task,2021.1.4,Win32,59.84440455,628b806c463b948bc644b84f,629af77bae94f13c1837811d,,,,,,,,,,,,,,,,,,,,,,,8,,,,,,,,,,Task,15,(3x7) - 13,8,,,,,,,,,,,,,,,,,,,1,,,,,,,,,,,,,,,,,,,,,,,"[""8""]",1,[3.3558000000715538],0,0,0,14,1,,,,,,,,,,,,,,,,,,
,,,,,,,,,,5d40a12f4994c40001e4b80c,31,Kobieta,2022-06-04_08h19.50.230,task,2021.1.4,Win32,59.84440455,628b806c463b948bc644b84f,629af77bae94f13c1837811d,,,,,,,,,,X V Q F H G B L J M P D K C T S W R N Z,,,,,,,,,,,,,,,,,,,,,,,,,,,,,,,,,,,,,,,,,,,,,,,,,,,,,,,,,,,,,,,,,,,,,,,,,,,,5,0,5,0,1,,,,,,,,,,,,,
,,,,,,,,,,5d40a12f4994c40001e4b80c,31,Kobieta,2022-06-04_08h19.50.230,task,2021.1.4,Win32,59.84440455,628b806c463b948bc644b84f,629af77bae94f13c1837811d,,,,,,,,,,,,,,,,,,,,,,,1,,,,,,,,,,Task,1,(12/6) - 1,1,,,,,,,,,,,,,,,,,,,1,,,,,,,,,,,,,,,,,,,,,,,"[""1""]",1,[5.449000000000069],0,0,0,0,1,,,,,,,,,,,,,,,,,,
,,,,,,,,,,5d40a12f4994c40001e4b80c,31,Kobieta,2022-06-04_08h19.50.230,task,2021.1.4,Win32,59.84440455,628b806c463b948bc644b84f,629af77bae94f13c1837811d,,,,,,,,,,X V Q F H G B L J M P D K C T S W R N Z,,,,,,,,,,,,,,,,,,,,,,,,,,,,,,,,,,,,,,,,,,,,,,,,,,,,,,,,,,,,,,,,,,,,,,,,,,,,6,0,6,0,1,,,,,,,,,,,,,
,,,,,,,,,,5d40a12f4994c40001e4b80c,31,Kobieta,2022-06-04_08h19.50.230,task,2021.1.4,Win32,59.84440455,628b806c463b948bc644b84f,629af77bae94f13c1837811d,,,,,,,,,,,,,,,,,,,,,,,5,,,,,,,,,,Task,12,(4x4) - 11,5,,,,,,,,,,,,,,,,,,,1,,,,,,,,,,,,,,,,,,,,,,,"[""5""]",1,[2.2759999999999536],0,0,0,11,1,,,,,,,,,,,,,,,,,,
,,,,,,,,,,5d40a12f4994c40001e4b80c,31,Kobieta,2022-06-04_08h19.50.230,task,2021.1.4,Win32,59.84440455,628b806c463b948bc644b84f,629af77bae94f13c1837811d,,,,,,,,,,X V Q F H G B L J M P D K C T S W R N Z,,,,,,,,,,,,,,,,,,,,,,,,,,,,,,,,,,,,,,,,,,,,,,,,,,,,,,,,,,,,,,,,,,,,,,,,,,,,7,0,7,0,1,,,,,,,,,,,,,
,,,,,,,,,,5d40a12f4994c40001e4b80c,31,Kobieta,2022-06-04_08h19.50.230,task,2021.1.4,Win32,59.84440455,628b806c463b948bc644b84f,629af77bae94f13c1837811d,,,,,,,,,,,,,,,,,,,,,,,,,,,,,,,,,,,,,,,,,,,,,,,,,,,,,,,,,,,,,,,,,,,,,,,,,,,,,,,,,,,,,,,,,,,grgnbdh,"[""g"",""r"",""g"",""n"",""b"",""d"",""h""]",0,"[1.8138999999761154,2.09989999997606,2.4114999999999327,3.0734999999999673,3.6202999999522945,5.073100000023828,6.328299999952264,7.584799999952224]",0,GRGBNDHR,6,0,6,0,1,,
,,,,,,,,,,5d40a12f4994c40001e4b80c,31,Kobieta,2022-06-04_08h19.50.230,task,2021.1.4,Win32,59.84440455,628b806c463b948bc644b84f,629af77bae94f13c1837811d,,,,,,,,,,,,,,,,,,,,,,,9,,,,,,,,,,Task,40,(7x2) - 5,9,,,,,,,,,,,,,,,,,,,1,,,,,,,,,,,,,,,,,,,,,,,"[""9""]",1,[2.5736999999285217],0,0,0,39,1,,,,,,,,,,,,,,,,,,
,,,,,,,,,,5d40a12f4994c40001e4b80c,31,Kobieta,2022-06-04_08h19.50.230,task,2021.1.4,Win32,59.84440455,628b806c463b948bc644b84f,629af77bae94f13c1837811d,,,,,,,,,,X V Q F H G B L J M P D K C T S W R N Z,,,,,,,,,,,,,,,,,,,,,,,,,,,,,,,,,,,,,,,,,,,,,,,,,,,,,,,,,,,,,,,,,,,,,,,,,,,,0,0,0,0,1,,,,,,,,,,,,,
,,,,,,,,,,5d40a12f4994c40001e4b80c,31,Kobieta,2022-06-04_08h19.50.230,task,2021.1.4,Win32,59.84440455,628b806c463b948bc644b84f,629af77bae94f13c1837811d,,,,,,,,,,,,,,,,,,,,,,,6,,,,,,,,,,Task,13,(3x4) - 6,6,,,,,,,,,,,,,,,,,,,1,,,,,,,,,,,,,,,,,,,,,,,"[""6""]",1,[4.076699999928451],0,0,0,12,1,,,,,,,,,,,,,,,,,,
,,,,,,,,,,5d40a12f4994c40001e4b80c,31,Kobieta,2022-06-04_08h19.50.230,task,2021.1.4,Win32,59.84440455,628b806c463b948bc644b84f,629af77bae94f13c1837811d,,,,,,,,,,X V Q F H G B L J M P D K C T S W R N Z,,,,,,,,,,,,,,,,,,,,,,,,,,,,,,,,,,,,,,,,,,,,,,,,,,,,,,,,,,,,,,,,,,,,,,,,,,,,1,0,1,0,1,,,,,,,,,,,,,
,,,,,,,,,,5d40a12f4994c40001e4b80c,31,Kobieta,2022-06-04_08h19.50.230,task,2021.1.4,Win32,59.84440455,628b806c463b948bc644b84f,629af77bae94f13c1837811d,,,,,,,,,,,,,,,,,,,,,,,4,,,,,,,,,,Task,4,(1x5) - 1,4,,,,,,,,,,,,,,,,,,,1,,,,,,,,,,,,,,,,,,,,,,,"[""4""]",1,[4.508000000000038],0,0,0,3,1,,,,,,,,,,,,,,,,,,
,,,,,,,,,,5d40a12f4994c40001e4b80c,31,Kobieta,2022-06-04_08h19.50.230,task,2021.1.4,Win32,59.84440455,628b806c463b948bc644b84f,629af77bae94f13c1837811d,,,,,,,,,,X V Q F H G B L J M P D K C T S W R N Z,,,,,,,,,,,,,,,,,,,,,,,,,,,,,,,,,,,,,,,,,,,,,,,,,,,,,,,,,,,,,,,,,,,,,,,,,,,,2,0,2,0,1,,,,,,,,,,,,,
,,,,,,,,,,5d40a12f4994c40001e4b80c,31,Kobieta,2022-06-04_08h19.50.230,task,2021.1.4,Win32,59.84440455,628b806c463b948bc644b84f,629af77bae94f13c1837811d,,,,,,,,,,,,,,,,,,,,,,,6,,,,,,,,,,Task,13,(3x4) - 6,6,,,,,,,,,,,,,,,,,,,1,,,,,,,,,,,,,,,,,,,,,,,"[""6""]",1,[3.378800000071351],0,0,0,12,1,,,,,,,,,,,,,,,,,,
,,,,,,,,,,5d40a12f4994c40001e4b80c,31,Kobieta,2022-06-04_08h19.50.230,task,2021.1.4,Win32,59.84440455,628b806c463b948bc644b84f,629af77bae94f13c1837811d,,,,,,,,,,X V Q F H G B L J M P D K C T S W R N Z,,,,,,,,,,,,,,,,,,,,,,,,,,,,,,,,,,,,,,,,,,,,,,,,,,,,,,,,,,,,,,,,,,,,,,,,,,,,3,0,3,0,1,,,,,,,,,,,,,
