key_resp_15.keys,key_resp_15.rt,key_resp_13.keys,key_resp_13.corr,ranodm_loop.thisRepN,ranodm_loop.thisTrialN,ranodm_loop.thisN,ranodm_loop.thisIndex,ranodm_loop.ran,participant,Wiek*,Płeć,date,expName,psychopyVersion,OS,frameRate,study_id,session,key_resp_13.rt,key_resp_16.keys,key_resp_16.rt,key_resp_4.keys,key_resp_4.rt,next_letter.thisRepN,next_letter.thisTrialN,next_letter.thisN,next_letter.thisIndex,next_letter.ran,letter,simple_recall,key_resp_5.keys,key_resp_5.rt,simple_recall_corr,simple_recall_corrkeys,next_level.thisRepN,next_level.thisTrialN,next_level.thisN,next_level.thisIndex,next_level.ran,key_resp_2.keys,key_resp_2.rt,digit_answer,key_resp.keys,key_resp.corr,key_resp.rt,RT_list,next_equation.thisRepN,next_equation.thisTrialN,next_equation.thisN,next_equation.thisIndex,next_equation.ran,Task,Trial,Problem,Operation_answer,processing_score,sumRT,meanRT,sumdiff,sd,RT,key_resp_3.keys,key_resp_3.rt,repeat_practice.thisRepN,repeat_practice.thisTrialN,repeat_practice.thisN,repeat_practice.thisIndex,repeat_practice.ran,key_resp_6.keys,key_resp_6.rt,key_resp_11.keys,key_resp_11.corr,key_resp_11.rt,operation_correct,repeat_if_wrong_prac.thisRepN,repeat_if_wrong_prac.thisTrialN,repeat_if_wrong_prac.thisN,repeat_if_wrong_prac.thisIndex,repeat_if_wrong_prac.ran,span_size_prac.thisRepN,span_size_prac.thisTrialN,span_size_prac.thisN,span_size_prac.thisIndex,span_size_prac.ran,complex_recall_practice,key_resp_9.keys,key_resp_9.corr,key_resp_9.rt,complex_prac_corr,span_recall_prac.thisRepN,span_recall_prac.thisTrialN,span_recall_prac.thisN,span_recall_prac.thisIndex,span_recall_prac.ran,key_resp_10.keys,key_resp_10.rt,key_resp_7.keys,key_resp_7.corr,key_resp_7.rt,repeat_if_wrong.thisRepN,repeat_if_wrong.thisTrialN,repeat_if_wrong.thisN,repeat_if_wrong.thisIndex,repeat_if_wrong.ran,span_size.thisRepN,span_size.thisTrialN,span_size.thisN,span_size.thisIndex,span_size.ran,complex_recall,key_resp_8.keys,key_resp_8.corr,key_resp_8.rt,complex_recall_corr,complex_recall_corrkeys,span_recall.thisRepN,span_recall.thisTrialN,span_recall.thisN,span_recall.thisIndex,span_recall.ran,key_resp_12.keys,key_resp_12.rt
space,13.5314,,0,0,0,0,0,1,5d45c90c810cac00191bc1e0,37,Kobieta,2022-06-04_08h33.59.169,task,2021.1.4,Win32,62.61348695,628b806c463b948bc644b84f,629afabe60645cfcfc657b09,,,,,,,,,,,,,,,,,,,,,,,,,,,,,,,,,,,,,,,,,,,,,,,,,,,,,,,,,,,,,,,,,,,,,,,,,,,,,,,,,,,,,,,,,,,,,,,,,,,,,,,,
,,"[""comma""]",0,1,0,1,0,1,5d45c90c810cac00191bc1e0,37,Kobieta,2022-06-04_08h33.59.169,task,2021.1.4,Win32,62.61348695,628b806c463b948bc644b84f,629afabe60645cfcfc657b09,[0.5952000000000623],,,,,,,,,,,,,,,,,,,,,,,,,,,,,,,,,,,,,,,,,,,,,,,,,,,,,,,,,,,,,,,,,,,,,,,,,,,,,,,,,,,,,,,,,,,,,,,,,,,,,,,
,,"[""period"",""comma""]",0,2,0,2,0,1,5d45c90c810cac00191bc1e0,37,Kobieta,2022-06-04_08h33.59.169,task,2021.1.4,Win32,62.61348695,628b806c463b948bc644b84f,629afabe60645cfcfc657b09,"[0.11859999999995807,1.7014000000000067]",,,,,,,,,,,,,,,,,,,,,,,,,,,,,,,,,,,,,,,,,,,,,,,,,,,,,,,,,,,,,,,,,,,,,,,,,,,,,,,,,,,,,,,,,,,,,,,,,,,,,,,
,,"[""comma""]",0,3,0,3,0,1,5d45c90c810cac00191bc1e0,37,Kobieta,2022-06-04_08h33.59.169,task,2021.1.4,Win32,62.61348695,628b806c463b948bc644b84f,629afabe60645cfcfc657b09,[0.7317999999999074],,,,,,,,,,,,,,,,,,,,,,,,,,,,,,,,,,,,,,,,,,,,,,,,,,,,,,,,,,,,,,,,,,,,,,,,,,,,,,,,,,,,,,,,,,,,,,,,,,,,,,,
,,"[""period""]",0,4,0,4,0,1,5d45c90c810cac00191bc1e0,37,Kobieta,2022-06-04_08h33.59.169,task,2021.1.4,Win32,62.61348695,628b806c463b948bc644b84f,629afabe60645cfcfc657b09,[0.45999999999997954],,,,,,,,,,,,,,,,,,,,,,,,,,,,,,,,,,,,,,,,,,,,,,,,,,,,,,,,,,,,,,,,,,,,,,,,,,,,,,,,,,,,,,,,,,,,,,,,,,,,,,,
,,"[""comma""]",0,5,0,5,0,1,5d45c90c810cac00191bc1e0,37,Kobieta,2022-06-04_08h33.59.169,task,2021.1.4,Win32,62.61348695,628b806c463b948bc644b84f,629afabe60645cfcfc657b09,[0.42959999999999354],,,,,,,,,,,,,,,,,,,,,,,,,,,,,,,,,,,,,,,,,,,,,,,,,,,,,,,,,,,,,,,,,,,,,,,,,,,,,,,,,,,,,,,,,,,,,,,,,,,,,,,
,,"[""period""]",0,6,0,6,0,1,5d45c90c810cac00191bc1e0,37,Kobieta,2022-06-04_08h33.59.169,task,2021.1.4,Win32,62.61348695,628b806c463b948bc644b84f,629afabe60645cfcfc657b09,[0.4094000000000335],,,,,,,,,,,,,,,,,,,,,,,,,,,,,,,,,,,,,,,,,,,,,,,,,,,,,,,,,,,,,,,,,,,,,,,,,,,,,,,,,,,,,,,,,,,,,,,,,,,,,,,
,,"[""comma""]",0,7,0,7,0,1,5d45c90c810cac00191bc1e0,37,Kobieta,2022-06-04_08h33.59.169,task,2021.1.4,Win32,62.61348695,628b806c463b948bc644b84f,629afabe60645cfcfc657b09,[0.541499999999985],,,,,,,,,,,,,,,,,,,,,,,,,,,,,,,,,,,,,,,,,,,,,,,,,,,,,,,,,,,,,,,,,,,,,,,,,,,,,,,,,,,,,,,,,,,,,,,,,,,,,,,
,,"[""period""]",0,8,0,8,0,1,5d45c90c810cac00191bc1e0,37,Kobieta,2022-06-04_08h33.59.169,task,2021.1.4,Win32,62.61348695,628b806c463b948bc644b84f,629afabe60645cfcfc657b09,[0.37379999999993174],,,,,,,,,,,,,,,,,,,,,,,,,,,,,,,,,,,,,,,,,,,,,,,,,,,,,,,,,,,,,,,,,,,,,,,,,,,,,,,,,,,,,,,,,,,,,,,,,,,,,,,
,,"[""period""]",0,9,0,9,0,1,5d45c90c810cac00191bc1e0,37,Kobieta,2022-06-04_08h33.59.169,task,2021.1.4,Win32,62.61348695,628b806c463b948bc644b84f,629afabe60645cfcfc657b09,[0.29270000000005325],,,,,,,,,,,,,,,,,,,,,,,,,,,,,,,,,,,,,,,,,,,,,,,,,,,,,,,,,,,,,,,,,,,,,,,,,,,,,,,,,,,,,,,,,,,,,,,,,,,,,,,
,,"[""period""]",0,10,0,10,0,1,5d45c90c810cac00191bc1e0,37,Kobieta,2022-06-04_08h33.59.169,task,2021.1.4,Win32,62.61348695,628b806c463b948bc644b84f,629afabe60645cfcfc657b09,[0.26209999999997535],,,,,,,,,,,,,,,,,,,,,,,,,,,,,,,,,,,,,,,,,,,,,,,,,,,,,,,,,,,,,,,,,,,,,,,,,,,,,,,,,,,,,,,,,,,,,,,,,,,,,,,
,,"[""comma""]",0,11,0,11,0,1,5d45c90c810cac00191bc1e0,37,Kobieta,2022-06-04_08h33.59.169,task,2021.1.4,Win32,62.61348695,628b806c463b948bc644b84f,629afabe60645cfcfc657b09,[0.2915999999999599],,,,,,,,,,,,,,,,,,,,,,,,,,,,,,,,,,,,,,,,,,,,,,,,,,,,,,,,,,,,,,,,,,,,,,,,,,,,,,,,,,,,,,,,,,,,,,,,,,,,,,,
,,"[""period""]",0,12,0,12,0,1,5d45c90c810cac00191bc1e0,37,Kobieta,2022-06-04_08h33.59.169,task,2021.1.4,Win32,62.61348695,628b806c463b948bc644b84f,629afabe60645cfcfc657b09,[0.2612000000000876],,,,,,,,,,,,,,,,,,,,,,,,,,,,,,,,,,,,,,,,,,,,,,,,,,,,,,,,,,,,,,,,,,,,,,,,,,,,,,,,,,,,,,,,,,,,,,,,,,,,,,,
,,"[""comma""]",0,13,0,13,0,1,5d45c90c810cac00191bc1e0,37,Kobieta,2022-06-04_08h33.59.169,task,2021.1.4,Win32,62.61348695,628b806c463b948bc644b84f,629afabe60645cfcfc657b09,[0.2982999999999265],,,,,,,,,,,,,,,,,,,,,,,,,,,,,,,,,,,,,,,,,,,,,,,,,,,,,,,,,,,,,,,,,,,,,,,,,,,,,,,,,,,,,,,,,,,,,,,,,,,,,,,
,,"[""period""]",0,14,0,14,0,1,5d45c90c810cac00191bc1e0,37,Kobieta,2022-06-04_08h33.59.169,task,2021.1.4,Win32,62.61348695,628b806c463b948bc644b84f,629afabe60645cfcfc657b09,[0.26159999999995875],,,,,,,,,,,,,,,,,,,,,,,,,,,,,,,,,,,,,,,,,,,,,,,,,,,,,,,,,,,,,,,,,,,,,,,,,,,,,,,,,,,,,,,,,,,,,,,,,,,,,,,
,,"[""comma""]",0,15,0,15,0,1,5d45c90c810cac00191bc1e0,37,Kobieta,2022-06-04_08h33.59.169,task,2021.1.4,Win32,62.61348695,628b806c463b948bc644b84f,629afabe60645cfcfc657b09,[0.3274000000000399],,,,,,,,,,,,,,,,,,,,,,,,,,,,,,,,,,,,,,,,,,,,,,,,,,,,,,,,,,,,,,,,,,,,,,,,,,,,,,,,,,,,,,,,,,,,,,,,,,,,,,,
,,"[""comma""]",0,16,0,16,0,1,5d45c90c810cac00191bc1e0,37,Kobieta,2022-06-04_08h33.59.169,task,2021.1.4,Win32,62.61348695,628b806c463b948bc644b84f,629afabe60645cfcfc657b09,[0.3125],,,,,,,,,,,,,,,,,,,,,,,,,,,,,,,,,,,,,,,,,,,,,,,,,,,,,,,,,,,,,,,,,,,,,,,,,,,,,,,,,,,,,,,,,,,,,,,,,,,,,,,
,,"[""comma""]",0,17,0,17,0,1,5d45c90c810cac00191bc1e0,37,Kobieta,2022-06-04_08h33.59.169,task,2021.1.4,Win32,62.61348695,628b806c463b948bc644b84f,629afabe60645cfcfc657b09,[0.3241999999999621],,,,,,,,,,,,,,,,,,,,,,,,,,,,,,,,,,,,,,,,,,,,,,,,,,,,,,,,,,,,,,,,,,,,,,,,,,,,,,,,,,,,,,,,,,,,,,,,,,,,,,,
,,"[""period""]",0,18,0,18,0,1,5d45c90c810cac00191bc1e0,37,Kobieta,2022-06-04_08h33.59.169,task,2021.1.4,Win32,62.61348695,628b806c463b948bc644b84f,629afabe60645cfcfc657b09,[0.24370000000007508],,,,,,,,,,,,,,,,,,,,,,,,,,,,,,,,,,,,,,,,,,,,,,,,,,,,,,,,,,,,,,,,,,,,,,,,,,,,,,,,,,,,,,,,,,,,,,,,,,,,,,,
,,"[""comma""]",0,19,0,19,0,1,5d45c90c810cac00191bc1e0,37,Kobieta,2022-06-04_08h33.59.169,task,2021.1.4,Win32,62.61348695,628b806c463b948bc644b84f,629afabe60645cfcfc657b09,[0.3189000000000135],,,,,,,,,,,,,,,,,,,,,,,,,,,,,,,,,,,,,,,,,,,,,,,,,,,,,,,,,,,,,,,,,,,,,,,,,,,,,,,,,,,,,,,,,,,,,,,,,,,,,,,
,,"[""period""]",0,20,0,20,0,1,5d45c90c810cac00191bc1e0,37,Kobieta,2022-06-04_08h33.59.169,task,2021.1.4,Win32,62.61348695,628b806c463b948bc644b84f,629afabe60645cfcfc657b09,[0.2596000000000913],,,,,,,,,,,,,,,,,,,,,,,,,,,,,,,,,,,,,,,,,,,,,,,,,,,,,,,,,,,,,,,,,,,,,,,,,,,,,,,,,,,,,,,,,,,,,,,,,,,,,,,
,,"[""comma""]",0,21,0,21,0,1,5d45c90c810cac00191bc1e0,37,Kobieta,2022-06-04_08h33.59.169,task,2021.1.4,Win32,62.61348695,628b806c463b948bc644b84f,629afabe60645cfcfc657b09,[0.34230000000005134],,,,,,,,,,,,,,,,,,,,,,,,,,,,,,,,,,,,,,,,,,,,,,,,,,,,,,,,,,,,,,,,,,,,,,,,,,,,,,,,,,,,,,,,,,,,,,,,,,,,,,,
,,"[""period""]",0,22,0,22,0,1,5d45c90c810cac00191bc1e0,37,Kobieta,2022-06-04_08h33.59.169,task,2021.1.4,Win32,62.61348695,628b806c463b948bc644b84f,629afabe60645cfcfc657b09,[0.27619999999996026],,,,,,,,,,,,,,,,,,,,,,,,,,,,,,,,,,,,,,,,,,,,,,,,,,,,,,,,,,,,,,,,,,,,,,,,,,,,,,,,,,,,,,,,,,,,,,,,,,,,,,,
,,"[""comma""]",0,23,0,23,0,1,5d45c90c810cac00191bc1e0,37,Kobieta,2022-06-04_08h33.59.169,task,2021.1.4,Win32,62.61348695,628b806c463b948bc644b84f,629afabe60645cfcfc657b09,[0.27629999999993515],,,,,,,,,,,,,,,,,,,,,,,,,,,,,,,,,,,,,,,,,,,,,,,,,,,,,,,,,,,,,,,,,,,,,,,,,,,,,,,,,,,,,,,,,,,,,,,,,,,,,,,
,,"[""period"",""comma""]",0,24,0,24,0,1,5d45c90c810cac00191bc1e0,37,Kobieta,2022-06-04_08h33.59.169,task,2021.1.4,Win32,62.61348695,628b806c463b948bc644b84f,629afabe60645cfcfc657b09,"[0.04200000000000159,1.7534000000000276]",,,,,,,,,,,,,,,,,,,,,,,,,,,,,,,,,,,,,,,,,,,,,,,,,,,,,,,,,,,,,,,,,,,,,,,,,,,,,,,,,,,,,,,,,,,,,,,,,,,,,,,
,,,0,25,0,25,0,1,5d45c90c810cac00191bc1e0,37,Kobieta,2022-06-04_08h33.59.169,task,2021.1.4,Win32,62.61348695,628b806c463b948bc644b84f,629afabe60645cfcfc657b09,,,,,,,,,,,,,,,,,,,,,,,,,,,,,,,,,,,,,,,,,,,,,,,,,,,,,,,,,,,,,,,,,,,,,,,,,,,,,,,,,,,,,,,,,,,,,,,,,,,,,,,,
,,"[""period""]",0,26,0,26,0,1,5d45c90c810cac00191bc1e0,37,Kobieta,2022-06-04_08h33.59.169,task,2021.1.4,Win32,62.61348695,628b806c463b948bc644b84f,629afabe60645cfcfc657b09,[0.29750000000001364],,,,,,,,,,,,,,,,,,,,,,,,,,,,,,,,,,,,,,,,,,,,,,,,,,,,,,,,,,,,,,,,,,,,,,,,,,,,,,,,,,,,,,,,,,,,,,,,,,,,,,,
,,"[""period""]",0,27,0,27,0,1,5d45c90c810cac00191bc1e0,37,Kobieta,2022-06-04_08h33.59.169,task,2021.1.4,Win32,62.61348695,628b806c463b948bc644b84f,629afabe60645cfcfc657b09,[0.26269999999996685],,,,,,,,,,,,,,,,,,,,,,,,,,,,,,,,,,,,,,,,,,,,,,,,,,,,,,,,,,,,,,,,,,,,,,,,,,,,,,,,,,,,,,,,,,,,,,,,,,,,,,,
,,"[""comma""]",0,28,0,28,0,1,5d45c90c810cac00191bc1e0,37,Kobieta,2022-06-04_08h33.59.169,task,2021.1.4,Win32,62.61348695,628b806c463b948bc644b84f,629afabe60645cfcfc657b09,[0.24100000000001387],,,,,,,,,,,,,,,,,,,,,,,,,,,,,,,,,,,,,,,,,,,,,,,,,,,,,,,,,,,,,,,,,,,,,,,,,,,,,,,,,,,,,,,,,,,,,,,,,,,,,,,
,,"[""period"",""period""]",0,29,0,29,0,1,5d45c90c810cac00191bc1e0,37,Kobieta,2022-06-04_08h33.59.169,task,2021.1.4,Win32,62.61348695,628b806c463b948bc644b84f,629afabe60645cfcfc657b09,"[0.2921999999999514,1.944500000000005]",,,,,,,,,,,,,,,,,,,,,,,,,,,,,,,,,,,,,,,,,,,,,,,,,,,,,,,,,,,,,,,,,,,,,,,,,,,,,,,,,,,,,,,,,,,,,,,,,,,,,,,
,,"[""period""]",0,30,0,30,0,1,5d45c90c810cac00191bc1e0,37,Kobieta,2022-06-04_08h33.59.169,task,2021.1.4,Win32,62.61348695,628b806c463b948bc644b84f,629afabe60645cfcfc657b09,[0.23030000000002815],,,,,,,,,,,,,,,,,,,,,,,,,,,,,,,,,,,,,,,,,,,,,,,,,,,,,,,,,,,,,,,,,,,,,,,,,,,,,,,,,,,,,,,,,,,,,,,,,,,,,,,
,,"[""comma""]",0,31,0,31,0,1,5d45c90c810cac00191bc1e0,37,Kobieta,2022-06-04_08h33.59.169,task,2021.1.4,Win32,62.61348695,628b806c463b948bc644b84f,629afabe60645cfcfc657b09,[0.33540000000002124],,,,,,,,,,,,,,,,,,,,,,,,,,,,,,,,,,,,,,,,,,,,,,,,,,,,,,,,,,,,,,,,,,,,,,,,,,,,,,,,,,,,,,,,,,,,,,,,,,,,,,,
,,"[""period""]",0,32,0,32,0,1,5d45c90c810cac00191bc1e0,37,Kobieta,2022-06-04_08h33.59.169,task,2021.1.4,Win32,62.61348695,628b806c463b948bc644b84f,629afabe60645cfcfc657b09,[0.32519999999996685],,,,,,,,,,,,,,,,,,,,,,,,,,,,,,,,,,,,,,,,,,,,,,,,,,,,,,,,,,,,,,,,,,,,,,,,,,,,,,,,,,,,,,,,,,,,,,,,,,,,,,,
,,"[""period""]",0,33,0,33,0,1,5d45c90c810cac00191bc1e0,37,Kobieta,2022-06-04_08h33.59.169,task,2021.1.4,Win32,62.61348695,628b806c463b948bc644b84f,629afabe60645cfcfc657b09,[0.31960000000006517],,,,,,,,,,,,,,,,,,,,,,,,,,,,,,,,,,,,,,,,,,,,,,,,,,,,,,,,,,,,,,,,,,,,,,,,,,,,,,,,,,,,,,,,,,,,,,,,,,,,,,,
,,"[""comma""]",0,34,0,34,0,1,5d45c90c810cac00191bc1e0,37,Kobieta,2022-06-04_08h33.59.169,task,2021.1.4,Win32,62.61348695,628b806c463b948bc644b84f,629afabe60645cfcfc657b09,[0.35930000000004725],,,,,,,,,,,,,,,,,,,,,,,,,,,,,,,,,,,,,,,,,,,,,,,,,,,,,,,,,,,,,,,,,,,,,,,,,,,,,,,,,,,,,,,,,,,,,,,,,,,,,,,
,,"[""comma""]",0,35,0,35,0,1,5d45c90c810cac00191bc1e0,37,Kobieta,2022-06-04_08h33.59.169,task,2021.1.4,Win32,62.61348695,628b806c463b948bc644b84f,629afabe60645cfcfc657b09,[0.31069999999996867],,,,,,,,,,,,,,,,,,,,,,,,,,,,,,,,,,,,,,,,,,,,,,,,,,,,,,,,,,,,,,,,,,,,,,,,,,,,,,,,,,,,,,,,,,,,,,,,,,,,,,,
,,"[""period""]",0,36,0,36,0,1,5d45c90c810cac00191bc1e0,37,Kobieta,2022-06-04_08h33.59.169,task,2021.1.4,Win32,62.61348695,628b806c463b948bc644b84f,629afabe60645cfcfc657b09,[0.26159999999995875],,,,,,,,,,,,,,,,,,,,,,,,,,,,,,,,,,,,,,,,,,,,,,,,,,,,,,,,,,,,,,,,,,,,,,,,,,,,,,,,,,,,,,,,,,,,,,,,,,,,,,,
,,"[""period""]",0,37,0,37,0,1,5d45c90c810cac00191bc1e0,37,Kobieta,2022-06-04_08h33.59.169,task,2021.1.4,Win32,62.61348695,628b806c463b948bc644b84f,629afabe60645cfcfc657b09,[0.28930000000005407],,,,,,,,,,,,,,,,,,,,,,,,,,,,,,,,,,,,,,,,,,,,,,,,,,,,,,,,,,,,,,,,,,,,,,,,,,,,,,,,,,,,,,,,,,,,,,,,,,,,,,,
,,"[""comma""]",0,38,0,38,0,1,5d45c90c810cac00191bc1e0,37,Kobieta,2022-06-04_08h33.59.169,task,2021.1.4,Win32,62.61348695,628b806c463b948bc644b84f,629afabe60645cfcfc657b09,[0.33140000000000214],,,,,,,,,,,,,,,,,,,,,,,,,,,,,,,,,,,,,,,,,,,,,,,,,,,,,,,,,,,,,,,,,,,,,,,,,,,,,,,,,,,,,,,,,,,,,,,,,,,,,,,
,,"[""period""]",0,39,0,39,0,1,5d45c90c810cac00191bc1e0,37,Kobieta,2022-06-04_08h33.59.169,task,2021.1.4,Win32,62.61348695,628b806c463b948bc644b84f,629afabe60645cfcfc657b09,[0.2844000000000335],,,,,,,,,,,,,,,,,,,,,,,,,,,,,,,,,,,,,,,,,,,,,,,,,,,,,,,,,,,,,,,,,,,,,,,,,,,,,,,,,,,,,,,,,,,,,,,,,,,,,,,
,,"[""period""]",0,40,0,40,0,1,5d45c90c810cac00191bc1e0,37,Kobieta,2022-06-04_08h33.59.169,task,2021.1.4,Win32,62.61348695,628b806c463b948bc644b84f,629afabe60645cfcfc657b09,[0.3260999999999683],,,,,,,,,,,,,,,,,,,,,,,,,,,,,,,,,,,,,,,,,,,,,,,,,,,,,,,,,,,,,,,,,,,,,,,,,,,,,,,,,,,,,,,,,,,,,,,,,,,,,,,
,,"[""period""]",0,41,0,41,0,1,5d45c90c810cac00191bc1e0,37,Kobieta,2022-06-04_08h33.59.169,task,2021.1.4,Win32,62.61348695,628b806c463b948bc644b84f,629afabe60645cfcfc657b09,[0.30759999999997945],,,,,,,,,,,,,,,,,,,,,,,,,,,,,,,,,,,,,,,,,,,,,,,,,,,,,,,,,,,,,,,,,,,,,,,,,,,,,,,,,,,,,,,,,,,,,,,,,,,,,,,
,,"[""comma""]",0,42,0,42,0,1,5d45c90c810cac00191bc1e0,37,Kobieta,2022-06-04_08h33.59.169,task,2021.1.4,Win32,62.61348695,628b806c463b948bc644b84f,629afabe60645cfcfc657b09,[0.34220000000007644],,,,,,,,,,,,,,,,,,,,,,,,,,,,,,,,,,,,,,,,,,,,,,,,,,,,,,,,,,,,,,,,,,,,,,,,,,,,,,,,,,,,,,,,,,,,,,,,,,,,,,,
,,"[""comma""]",0,43,0,43,0,1,5d45c90c810cac00191bc1e0,37,Kobieta,2022-06-04_08h33.59.169,task,2021.1.4,Win32,62.61348695,628b806c463b948bc644b84f,629afabe60645cfcfc657b09,[0.30740000000002965],,,,,,,,,,,,,,,,,,,,,,,,,,,,,,,,,,,,,,,,,,,,,,,,,,,,,,,,,,,,,,,,,,,,,,,,,,,,,,,,,,,,,,,,,,,,,,,,,,,,,,,
,,"[""comma""]",0,44,0,44,0,1,5d45c90c810cac00191bc1e0,37,Kobieta,2022-06-04_08h33.59.169,task,2021.1.4,Win32,62.61348695,628b806c463b948bc644b84f,629afabe60645cfcfc657b09,[0.311800000000062],,,,,,,,,,,,,,,,,,,,,,,,,,,,,,,,,,,,,,,,,,,,,,,,,,,,,,,,,,,,,,,,,,,,,,,,,,,,,,,,,,,,,,,,,,,,,,,,,,,,,,,
,,"[""period""]",0,45,0,45,0,1,5d45c90c810cac00191bc1e0,37,Kobieta,2022-06-04_08h33.59.169,task,2021.1.4,Win32,62.61348695,628b806c463b948bc644b84f,629afabe60645cfcfc657b09,[0.09570000000007894],,,,,,,,,,,,,,,,,,,,,,,,,,,,,,,,,,,,,,,,,,,,,,,,,,,,,,,,,,,,,,,,,,,,,,,,,,,,,,,,,,,,,,,,,,,,,,,,,,,,,,,
,,"[""period""]",0,46,0,46,0,1,5d45c90c810cac00191bc1e0,37,Kobieta,2022-06-04_08h33.59.169,task,2021.1.4,Win32,62.61348695,628b806c463b948bc644b84f,629afabe60645cfcfc657b09,[0.2432999999999197],,,,,,,,,,,,,,,,,,,,,,,,,,,,,,,,,,,,,,,,,,,,,,,,,,,,,,,,,,,,,,,,,,,,,,,,,,,,,,,,,,,,,,,,,,,,,,,,,,,,,,,
,,"[""comma""]",0,47,0,47,0,1,5d45c90c810cac00191bc1e0,37,Kobieta,2022-06-04_08h33.59.169,task,2021.1.4,Win32,62.61348695,628b806c463b948bc644b84f,629afabe60645cfcfc657b09,[0.35300000000000864],,,,,,,,,,,,,,,,,,,,,,,,,,,,,,,,,,,,,,,,,,,,,,,,,,,,,,,,,,,,,,,,,,,,,,,,,,,,,,,,,,,,,,,,,,,,,,,,,,,,,,,
,,"[""comma""]",0,48,0,48,0,1,5d45c90c810cac00191bc1e0,37,Kobieta,2022-06-04_08h33.59.169,task,2021.1.4,Win32,62.61348695,628b806c463b948bc644b84f,629afabe60645cfcfc657b09,[0.28679999999994266],,,,,,,,,,,,,,,,,,,,,,,,,,,,,,,,,,,,,,,,,,,,,,,,,,,,,,,,,,,,,,,,,,,,,,,,,,,,,,,,,,,,,,,,,,,,,,,,,,,,,,,
,,"[""period""]",0,49,0,49,0,1,5d45c90c810cac00191bc1e0,37,Kobieta,2022-06-04_08h33.59.169,task,2021.1.4,Win32,62.61348695,628b806c463b948bc644b84f,629afabe60645cfcfc657b09,[0.2594999999999743],,,,,,,,,,,,,,,,,,,,,,,,,,,,,,,,,,,,,,,,,,,,,,,,,,,,,,,,,,,,,,,,,,,,,,,,,,,,,,,,,,,,,,,,,,,,,,,,,,,,,,,
,,"[""period""]",0,50,0,50,0,1,5d45c90c810cac00191bc1e0,37,Kobieta,2022-06-04_08h33.59.169,task,2021.1.4,Win32,62.61348695,628b806c463b948bc644b84f,629afabe60645cfcfc657b09,[0.27630000000004884],,,,,,,,,,,,,,,,,,,,,,,,,,,,,,,,,,,,,,,,,,,,,,,,,,,,,,,,,,,,,,,,,,,,,,,,,,,,,,,,,,,,,,,,,,,,,,,,,,,,,,,
,,"[""comma""]",0,51,0,51,0,1,5d45c90c810cac00191bc1e0,37,Kobieta,2022-06-04_08h33.59.169,task,2021.1.4,Win32,62.61348695,628b806c463b948bc644b84f,629afabe60645cfcfc657b09,[0.2917999999999097],,,,,,,,,,,,,,,,,,,,,,,,,,,,,,,,,,,,,,,,,,,,,,,,,,,,,,,,,,,,,,,,,,,,,,,,,,,,,,,,,,,,,,,,,,,,,,,,,,,,,,,
,,"[""period""]",0,52,0,52,0,1,5d45c90c810cac00191bc1e0,37,Kobieta,2022-06-04_08h33.59.169,task,2021.1.4,Win32,62.61348695,628b806c463b948bc644b84f,629afabe60645cfcfc657b09,[0.27350000000001273],,,,,,,,,,,,,,,,,,,,,,,,,,,,,,,,,,,,,,,,,,,,,,,,,,,,,,,,,,,,,,,,,,,,,,,,,,,,,,,,,,,,,,,,,,,,,,,,,,,,,,,
,,"[""comma""]",0,53,0,53,0,1,5d45c90c810cac00191bc1e0,37,Kobieta,2022-06-04_08h33.59.169,task,2021.1.4,Win32,62.61348695,628b806c463b948bc644b84f,629afabe60645cfcfc657b09,[0.30709999999999127],,,,,,,,,,,,,,,,,,,,,,,,,,,,,,,,,,,,,,,,,,,,,,,,,,,,,,,,,,,,,,,,,,,,,,,,,,,,,,,,,,,,,,,,,,,,,,,,,,,,,,,
,,"[""period""]",0,54,0,54,0,1,5d45c90c810cac00191bc1e0,37,Kobieta,2022-06-04_08h33.59.169,task,2021.1.4,Win32,62.61348695,628b806c463b948bc644b84f,629afabe60645cfcfc657b09,[0.2650000000000148],,,,,,,,,,,,,,,,,,,,,,,,,,,,,,,,,,,,,,,,,,,,,,,,,,,,,,,,,,,,,,,,,,,,,,,,,,,,,,,,,,,,,,,,,,,,,,,,,,,,,,,
,,"[""comma""]",0,55,0,55,0,1,5d45c90c810cac00191bc1e0,37,Kobieta,2022-06-04_08h33.59.169,task,2021.1.4,Win32,62.61348695,628b806c463b948bc644b84f,629afabe60645cfcfc657b09,[0.28019999999995093],,,,,,,,,,,,,,,,,,,,,,,,,,,,,,,,,,,,,,,,,,,,,,,,,,,,,,,,,,,,,,,,,,,,,,,,,,,,,,,,,,,,,,,,,,,,,,,,,,,,,,,
,,"[""period""]",0,56,0,56,0,1,5d45c90c810cac00191bc1e0,37,Kobieta,2022-06-04_08h33.59.169,task,2021.1.4,Win32,62.61348695,628b806c463b948bc644b84f,629afabe60645cfcfc657b09,[-0.011699999999962074],,,,,,,,,,,,,,,,,,,,,,,,,,,,,,,,,,,,,,,,,,,,,,,,,,,,,,,,,,,,,,,,,,,,,,,,,,,,,,,,,,,,,,,,,,,,,,,,,,,,,,,
,,"[""period""]",0,57,0,57,0,1,5d45c90c810cac00191bc1e0,37,Kobieta,2022-06-04_08h33.59.169,task,2021.1.4,Win32,62.61348695,628b806c463b948bc644b84f,629afabe60645cfcfc657b09,[0.23310000000009268],,,,,,,,,,,,,,,,,,,,,,,,,,,,,,,,,,,,,,,,,,,,,,,,,,,,,,,,,,,,,,,,,,,,,,,,,,,,,,,,,,,,,,,,,,,,,,,,,,,,,,,
,,"[""comma""]",0,58,0,58,0,1,5d45c90c810cac00191bc1e0,37,Kobieta,2022-06-04_08h33.59.169,task,2021.1.4,Win32,62.61348695,628b806c463b948bc644b84f,629afabe60645cfcfc657b09,[0.24440000000001305],,,,,,,,,,,,,,,,,,,,,,,,,,,,,,,,,,,,,,,,,,,,,,,,,,,,,,,,,,,,,,,,,,,,,,,,,,,,,,,,,,,,,,,,,,,,,,,,,,,,,,,
,,"[""comma""]",0,59,0,59,0,1,5d45c90c810cac00191bc1e0,37,Kobieta,2022-06-04_08h33.59.169,task,2021.1.4,Win32,62.61348695,628b806c463b948bc644b84f,629afabe60645cfcfc657b09,[0.22540000000003602],,,,,,,,,,,,,,,,,,,,,,,,,,,,,,,,,,,,,,,,,,,,,,,,,,,,,,,,,,,,,,,,,,,,,,,,,,,,,,,,,,,,,,,,,,,,,,,,,,,,,,,
,,"[""period""]",0,60,0,60,0,1,5d45c90c810cac00191bc1e0,37,Kobieta,2022-06-04_08h33.59.169,task,2021.1.4,Win32,62.61348695,628b806c463b948bc644b84f,629afabe60645cfcfc657b09,[0.2806000000001063],,,,,,,,,,,,,,,,,,,,,,,,,,,,,,,,,,,,,,,,,,,,,,,,,,,,,,,,,,,,,,,,,,,,,,,,,,,,,,,,,,,,,,,,,,,,,,,,,,,,,,,
,,"[""period""]",0,61,0,61,0,1,5d45c90c810cac00191bc1e0,37,Kobieta,2022-06-04_08h33.59.169,task,2021.1.4,Win32,62.61348695,628b806c463b948bc644b84f,629afabe60645cfcfc657b09,[0.2881999999999607],,,,,,,,,,,,,,,,,,,,,,,,,,,,,,,,,,,,,,,,,,,,,,,,,,,,,,,,,,,,,,,,,,,,,,,,,,,,,,,,,,,,,,,,,,,,,,,,,,,,,,,
,,"[""comma""]",0,62,0,62,0,1,5d45c90c810cac00191bc1e0,37,Kobieta,2022-06-04_08h33.59.169,task,2021.1.4,Win32,62.61348695,628b806c463b948bc644b84f,629afabe60645cfcfc657b09,[0.25809999999995625],,,,,,,,,,,,,,,,,,,,,,,,,,,,,,,,,,,,,,,,,,,,,,,,,,,,,,,,,,,,,,,,,,,,,,,,,,,,,,,,,,,,,,,,,,,,,,,,,,,,,,,
,,"[""period""]",0,63,0,63,0,1,5d45c90c810cac00191bc1e0,37,Kobieta,2022-06-04_08h33.59.169,task,2021.1.4,Win32,62.61348695,628b806c463b948bc644b84f,629afabe60645cfcfc657b09,[0.12820000000004939],,,,,,,,,,,,,,,,,,,,,,,,,,,,,,,,,,,,,,,,,,,,,,,,,,,,,,,,,,,,,,,,,,,,,,,,,,,,,,,,,,,,,,,,,,,,,,,,,,,,,,,
,,"[""period""]",0,64,0,64,0,1,5d45c90c810cac00191bc1e0,37,Kobieta,2022-06-04_08h33.59.169,task,2021.1.4,Win32,62.61348695,628b806c463b948bc644b84f,629afabe60645cfcfc657b09,[0.27560000000011087],,,,,,,,,,,,,,,,,,,,,,,,,,,,,,,,,,,,,,,,,,,,,,,,,,,,,,,,,,,,,,,,,,,,,,,,,,,,,,,,,,,,,,,,,,,,,,,,,,,,,,,
,,"[""period""]",0,65,0,65,0,1,5d45c90c810cac00191bc1e0,37,Kobieta,2022-06-04_08h33.59.169,task,2021.1.4,Win32,62.61348695,628b806c463b948bc644b84f,629afabe60645cfcfc657b09,[0.2779000000000451],,,,,,,,,,,,,,,,,,,,,,,,,,,,,,,,,,,,,,,,,,,,,,,,,,,,,,,,,,,,,,,,,,,,,,,,,,,,,,,,,,,,,,,,,,,,,,,,,,,,,,,
,,"[""comma""]",0,66,0,66,0,1,5d45c90c810cac00191bc1e0,37,Kobieta,2022-06-04_08h33.59.169,task,2021.1.4,Win32,62.61348695,628b806c463b948bc644b84f,629afabe60645cfcfc657b09,[0.007299999999929696],,,,,,,,,,,,,,,,,,,,,,,,,,,,,,,,,,,,,,,,,,,,,,,,,,,,,,,,,,,,,,,,,,,,,,,,,,,,,,,,,,,,,,,,,,,,,,,,,,,,,,,
,,"[""comma""]",0,67,0,67,0,1,5d45c90c810cac00191bc1e0,37,Kobieta,2022-06-04_08h33.59.169,task,2021.1.4,Win32,62.61348695,628b806c463b948bc644b84f,629afabe60645cfcfc657b09,[0.41459999999995034],,,,,,,,,,,,,,,,,,,,,,,,,,,,,,,,,,,,,,,,,,,,,,,,,,,,,,,,,,,,,,,,,,,,,,,,,,,,,,,,,,,,,,,,,,,,,,,,,,,,,,,
,,"[""comma""]",0,68,0,68,0,1,5d45c90c810cac00191bc1e0,37,Kobieta,2022-06-04_08h33.59.169,task,2021.1.4,Win32,62.61348695,628b806c463b948bc644b84f,629afabe60645cfcfc657b09,[0.34140000000002146],,,,,,,,,,,,,,,,,,,,,,,,,,,,,,,,,,,,,,,,,,,,,,,,,,,,,,,,,,,,,,,,,,,,,,,,,,,,,,,,,,,,,,,,,,,,,,,,,,,,,,,
,,"[""period""]",0,69,0,69,0,1,5d45c90c810cac00191bc1e0,37,Kobieta,2022-06-04_08h33.59.169,task,2021.1.4,Win32,62.61348695,628b806c463b948bc644b84f,629afabe60645cfcfc657b09,[0.27770000000003847],,,,,,,,,,,,,,,,,,,,,,,,,,,,,,,,,,,,,,,,,,,,,,,,,,,,,,,,,,,,,,,,,,,,,,,,,,,,,,,,,,,,,,,,,,,,,,,,,,,,,,,
,,"[""comma"",""period""]",0,70,0,70,0,1,5d45c90c810cac00191bc1e0,37,Kobieta,2022-06-04_08h33.59.169,task,2021.1.4,Win32,62.61348695,628b806c463b948bc644b84f,629afabe60645cfcfc657b09,"[0.09530000000000882,1.827600000000075]",,,,,,,,,,,,,,,,,,,,,,,,,,,,,,,,,,,,,,,,,,,,,,,,,,,,,,,,,,,,,,,,,,,,,,,,,,,,,,,,,,,,,,,,,,,,,,,,,,,,,,,
,,,0,71,0,71,0,1,5d45c90c810cac00191bc1e0,37,Kobieta,2022-06-04_08h33.59.169,task,2021.1.4,Win32,62.61348695,628b806c463b948bc644b84f,629afabe60645cfcfc657b09,,,,,,,,,,,,,,,,,,,,,,,,,,,,,,,,,,,,,,,,,,,,,,,,,,,,,,,,,,,,,,,,,,,,,,,,,,,,,,,,,,,,,,,,,,,,,,,,,,,,,,,,
,,"[""comma""]",0,72,0,72,0,1,5d45c90c810cac00191bc1e0,37,Kobieta,2022-06-04_08h33.59.169,task,2021.1.4,Win32,62.61348695,628b806c463b948bc644b84f,629afabe60645cfcfc657b09,[0.7271999999999821],,,,,,,,,,,,,,,,,,,,,,,,,,,,,,,,,,,,,,,,,,,,,,,,,,,,,,,,,,,,,,,,,,,,,,,,,,,,,,,,,,,,,,,,,,,,,,,,,,,,,,,
,,"[""period""]",0,73,0,73,0,1,5d45c90c810cac00191bc1e0,37,Kobieta,2022-06-04_08h33.59.169,task,2021.1.4,Win32,62.61348695,628b806c463b948bc644b84f,629afabe60645cfcfc657b09,[0.27899999999999636],,,,,,,,,,,,,,,,,,,,,,,,,,,,,,,,,,,,,,,,,,,,,,,,,,,,,,,,,,,,,,,,,,,,,,,,,,,,,,,,,,,,,,,,,,,,,,,,,,,,,,,
,,"[""period""]",0,74,0,74,0,1,5d45c90c810cac00191bc1e0,37,Kobieta,2022-06-04_08h33.59.169,task,2021.1.4,Win32,62.61348695,628b806c463b948bc644b84f,629afabe60645cfcfc657b09,[0.3080999999999676],,,,,,,,,,,,,,,,,,,,,,,,,,,,,,,,,,,,,,,,,,,,,,,,,,,,,,,,,,,,,,,,,,,,,,,,,,,,,,,,,,,,,,,,,,,,,,,,,,,,,,,
,,"[""comma""]",0,75,0,75,0,1,5d45c90c810cac00191bc1e0,37,Kobieta,2022-06-04_08h33.59.169,task,2021.1.4,Win32,62.61348695,628b806c463b948bc644b84f,629afabe60645cfcfc657b09,[0.34319999999996753],,,,,,,,,,,,,,,,,,,,,,,,,,,,,,,,,,,,,,,,,,,,,,,,,,,,,,,,,,,,,,,,,,,,,,,,,,,,,,,,,,,,,,,,,,,,,,,,,,,,,,,
,,"[""comma""]",0,76,0,76,0,1,5d45c90c810cac00191bc1e0,37,Kobieta,2022-06-04_08h33.59.169,task,2021.1.4,Win32,62.61348695,628b806c463b948bc644b84f,629afabe60645cfcfc657b09,[0.3130999999999631],,,,,,,,,,,,,,,,,,,,,,,,,,,,,,,,,,,,,,,,,,,,,,,,,,,,,,,,,,,,,,,,,,,,,,,,,,,,,,,,,,,,,,,,,,,,,,,,,,,,,,,
,,"[""comma""]",0,77,0,77,0,1,5d45c90c810cac00191bc1e0,37,Kobieta,2022-06-04_08h33.59.169,task,2021.1.4,Win32,62.61348695,628b806c463b948bc644b84f,629afabe60645cfcfc657b09,[0.3369999999999891],,,,,,,,,,,,,,,,,,,,,,,,,,,,,,,,,,,,,,,,,,,,,,,,,,,,,,,,,,,,,,,,,,,,,,,,,,,,,,,,,,,,,,,,,,,,,,,,,,,,,,,
,,"[""comma""]",0,78,0,78,0,1,5d45c90c810cac00191bc1e0,37,Kobieta,2022-06-04_08h33.59.169,task,2021.1.4,Win32,62.61348695,628b806c463b948bc644b84f,629afabe60645cfcfc657b09,[0.47689999999988686],,,,,,,,,,,,,,,,,,,,,,,,,,,,,,,,,,,,,,,,,,,,,,,,,,,,,,,,,,,,,,,,,,,,,,,,,,,,,,,,,,,,,,,,,,,,,,,,,,,,,,,
,,"[""period""]",0,79,0,79,0,1,5d45c90c810cac00191bc1e0,37,Kobieta,2022-06-04_08h33.59.169,task,2021.1.4,Win32,62.61348695,628b806c463b948bc644b84f,629afabe60645cfcfc657b09,[0.3154999999999859],,,,,,,,,,,,,,,,,,,,,,,,,,,,,,,,,,,,,,,,,,,,,,,,,,,,,,,,,,,,,,,,,,,,,,,,,,,,,,,,,,,,,,,,,,,,,,,,,,,,,,,
,,"[""period""]",0,80,0,80,0,1,5d45c90c810cac00191bc1e0,37,Kobieta,2022-06-04_08h33.59.169,task,2021.1.4,Win32,62.61348695,628b806c463b948bc644b84f,629afabe60645cfcfc657b09,[0.17619999999993752],,,,,,,,,,,,,,,,,,,,,,,,,,,,,,,,,,,,,,,,,,,,,,,,,,,,,,,,,,,,,,,,,,,,,,,,,,,,,,,,,,,,,,,,,,,,,,,,,,,,,,,
,,"[""comma""]",0,81,0,81,0,1,5d45c90c810cac00191bc1e0,37,Kobieta,2022-06-04_08h33.59.169,task,2021.1.4,Win32,62.61348695,628b806c463b948bc644b84f,629afabe60645cfcfc657b09,[0.11279999999993606],,,,,,,,,,,,,,,,,,,,,,,,,,,,,,,,,,,,,,,,,,,,,,,,,,,,,,,,,,,,,,,,,,,,,,,,,,,,,,,,,,,,,,,,,,,,,,,,,,,,,,,
,,"[""period""]",0,82,0,82,0,1,5d45c90c810cac00191bc1e0,37,Kobieta,2022-06-04_08h33.59.169,task,2021.1.4,Win32,62.61348695,628b806c463b948bc644b84f,629afabe60645cfcfc657b09,[0.24509999999997945],,,,,,,,,,,,,,,,,,,,,,,,,,,,,,,,,,,,,,,,,,,,,,,,,,,,,,,,,,,,,,,,,,,,,,,,,,,,,,,,,,,,,,,,,,,,,,,,,,,,,,,
,,"[""period""]",0,83,0,83,0,1,5d45c90c810cac00191bc1e0,37,Kobieta,2022-06-04_08h33.59.169,task,2021.1.4,Win32,62.61348695,628b806c463b948bc644b84f,629afabe60645cfcfc657b09,[0.29189999999999827],,,,,,,,,,,,,,,,,,,,,,,,,,,,,,,,,,,,,,,,,,,,,,,,,,,,,,,,,,,,,,,,,,,,,,,,,,,,,,,,,,,,,,,,,,,,,,,,,,,,,,,
,,"[""comma""]",0,84,0,84,0,1,5d45c90c810cac00191bc1e0,37,Kobieta,2022-06-04_08h33.59.169,task,2021.1.4,Win32,62.61348695,628b806c463b948bc644b84f,629afabe60645cfcfc657b09,[0.3091999999999757],,,,,,,,,,,,,,,,,,,,,,,,,,,,,,,,,,,,,,,,,,,,,,,,,,,,,,,,,,,,,,,,,,,,,,,,,,,,,,,,,,,,,,,,,,,,,,,,,,,,,,,
,,"[""period""]",0,85,0,85,0,1,5d45c90c810cac00191bc1e0,37,Kobieta,2022-06-04_08h33.59.169,task,2021.1.4,Win32,62.61348695,628b806c463b948bc644b84f,629afabe60645cfcfc657b09,[0.2416000000000622],,,,,,,,,,,,,,,,,,,,,,,,,,,,,,,,,,,,,,,,,,,,,,,,,,,,,,,,,,,,,,,,,,,,,,,,,,,,,,,,,,,,,,,,,,,,,,,,,,,,,,,
,,"[""period""]",0,86,0,86,0,1,5d45c90c810cac00191bc1e0,37,Kobieta,2022-06-04_08h33.59.169,task,2021.1.4,Win32,62.61348695,628b806c463b948bc644b84f,629afabe60645cfcfc657b09,[0.29029999999994516],,,,,,,,,,,,,,,,,,,,,,,,,,,,,,,,,,,,,,,,,,,,,,,,,,,,,,,,,,,,,,,,,,,,,,,,,,,,,,,,,,,,,,,,,,,,,,,,,,,,,,,
,,"[""comma""]",0,87,0,87,0,1,5d45c90c810cac00191bc1e0,37,Kobieta,2022-06-04_08h33.59.169,task,2021.1.4,Win32,62.61348695,628b806c463b948bc644b84f,629afabe60645cfcfc657b09,[0.3186000000000604],,,,,,,,,,,,,,,,,,,,,,,,,,,,,,,,,,,,,,,,,,,,,,,,,,,,,,,,,,,,,,,,,,,,,,,,,,,,,,,,,,,,,,,,,,,,,,,,,,,,,,,
,,"[""period""]",0,88,0,88,0,1,5d45c90c810cac00191bc1e0,37,Kobieta,2022-06-04_08h33.59.169,task,2021.1.4,Win32,62.61348695,628b806c463b948bc644b84f,629afabe60645cfcfc657b09,[0.24250000000000682],,,,,,,,,,,,,,,,,,,,,,,,,,,,,,,,,,,,,,,,,,,,,,,,,,,,,,,,,,,,,,,,,,,,,,,,,,,,,,,,,,,,,,,,,,,,,,,,,,,,,,,
,,"[""comma""]",0,89,0,89,0,1,5d45c90c810cac00191bc1e0,37,Kobieta,2022-06-04_08h33.59.169,task,2021.1.4,Win32,62.61348695,628b806c463b948bc644b84f,629afabe60645cfcfc657b09,[0.33299999999997],,,,,,,,,,,,,,,,,,,,,,,,,,,,,,,,,,,,,,,,,,,,,,,,,,,,,,,,,,,,,,,,,,,,,,,,,,,,,,,,,,,,,,,,,,,,,,,,,,,,,,,
,,"[""period""]",0,90,0,90,0,1,5d45c90c810cac00191bc1e0,37,Kobieta,2022-06-04_08h33.59.169,task,2021.1.4,Win32,62.61348695,628b806c463b948bc644b84f,629afabe60645cfcfc657b09,[0.27899999999999636],,,,,,,,,,,,,,,,,,,,,,,,,,,,,,,,,,,,,,,,,,,,,,,,,,,,,,,,,,,,,,,,,,,,,,,,,,,,,,,,,,,,,,,,,,,,,,,,,,,,,,,
,,"[""comma""]",0,91,0,91,0,1,5d45c90c810cac00191bc1e0,37,Kobieta,2022-06-04_08h33.59.169,task,2021.1.4,Win32,62.61348695,628b806c463b948bc644b84f,629afabe60645cfcfc657b09,[0.2469000000000392],,,,,,,,,,,,,,,,,,,,,,,,,,,,,,,,,,,,,,,,,,,,,,,,,,,,,,,,,,,,,,,,,,,,,,,,,,,,,,,,,,,,,,,,,,,,,,,,,,,,,,,
,,"[""comma""]",0,92,0,92,0,1,5d45c90c810cac00191bc1e0,37,Kobieta,2022-06-04_08h33.59.169,task,2021.1.4,Win32,62.61348695,628b806c463b948bc644b84f,629afabe60645cfcfc657b09,[0.30860000000001264],,,,,,,,,,,,,,,,,,,,,,,,,,,,,,,,,,,,,,,,,,,,,,,,,,,,,,,,,,,,,,,,,,,,,,,,,,,,,,,,,,,,,,,,,,,,,,,,,,,,,,,
,,"[""period""]",0,93,0,93,0,1,5d45c90c810cac00191bc1e0,37,Kobieta,2022-06-04_08h33.59.169,task,2021.1.4,Win32,62.61348695,628b806c463b948bc644b84f,629afabe60645cfcfc657b09,[0.3240999999999872],,,,,,,,,,,,,,,,,,,,,,,,,,,,,,,,,,,,,,,,,,,,,,,,,,,,,,,,,,,,,,,,,,,,,,,,,,,,,,,,,,,,,,,,,,,,,,,,,,,,,,,
,,"[""period""]",0,94,0,94,0,1,5d45c90c810cac00191bc1e0,37,Kobieta,2022-06-04_08h33.59.169,task,2021.1.4,Win32,62.61348695,628b806c463b948bc644b84f,629afabe60645cfcfc657b09,[-0.0049999999999954525],,,,,,,,,,,,,,,,,,,,,,,,,,,,,,,,,,,,,,,,,,,,,,,,,,,,,,,,,,,,,,,,,,,,,,,,,,,,,,,,,,,,,,,,,,,,,,,,,,,,,,,
,,"[""comma""]",0,95,0,95,0,1,5d45c90c810cac00191bc1e0,37,Kobieta,2022-06-04_08h33.59.169,task,2021.1.4,Win32,62.61348695,628b806c463b948bc644b84f,629afabe60645cfcfc657b09,[0.3096999999999639],,,,,,,,,,,,,,,,,,,,,,,,,,,,,,,,,,,,,,,,,,,,,,,,,,,,,,,,,,,,,,,,,,,,,,,,,,,,,,,,,,,,,,,,,,,,,,,,,,,,,,,
,,"[""period""]",0,96,0,96,0,1,5d45c90c810cac00191bc1e0,37,Kobieta,2022-06-04_08h33.59.169,task,2021.1.4,Win32,62.61348695,628b806c463b948bc644b84f,629afabe60645cfcfc657b09,[0.05860000000001264],,,,,,,,,,,,,,,,,,,,,,,,,,,,,,,,,,,,,,,,,,,,,,,,,,,,,,,,,,,,,,,,,,,,,,,,,,,,,,,,,,,,,,,,,,,,,,,,,,,,,,,
,,"[""period""]",0,97,0,97,0,1,5d45c90c810cac00191bc1e0,37,Kobieta,2022-06-04_08h33.59.169,task,2021.1.4,Win32,62.61348695,628b806c463b948bc644b84f,629afabe60645cfcfc657b09,[0.11229999999989104],,,,,,,,,,,,,,,,,,,,,,,,,,,,,,,,,,,,,,,,,,,,,,,,,,,,,,,,,,,,,,,,,,,,,,,,,,,,,,,,,,,,,,,,,,,,,,,,,,,,,,,
,,"[""comma""]",0,98,0,98,0,1,5d45c90c810cac00191bc1e0,37,Kobieta,2022-06-04_08h33.59.169,task,2021.1.4,Win32,62.61348695,628b806c463b948bc644b84f,629afabe60645cfcfc657b09,[0.30619999999993297],,,,,,,,,,,,,,,,,,,,,,,,,,,,,,,,,,,,,,,,,,,,,,,,,,,,,,,,,,,,,,,,,,,,,,,,,,,,,,,,,,,,,,,,,,,,,,,,,,,,,,,
,,"[""period"",""period""]",0,99,0,99,0,1,5d45c90c810cac00191bc1e0,37,Kobieta,2022-06-04_08h33.59.169,task,2021.1.4,Win32,62.61348695,628b806c463b948bc644b84f,629afabe60645cfcfc657b09,"[0.13519999999999754,1.921199999999999]",,,,,,,,,,,,,,,,,,,,,,,,,,,,,,,,,,,,,,,,,,,,,,,,,,,,,,,,,,,,,,,,,,,,,,,,,,,,,,,,,,,,,,,,,,,,,,,,,,,,,,,
,,,0,100,0,100,0,1,5d45c90c810cac00191bc1e0,37,Kobieta,2022-06-04_08h33.59.169,task,2021.1.4,Win32,62.61348695,628b806c463b948bc644b84f,629afabe60645cfcfc657b09,,,,,,,,,,,,,,,,,,,,,,,,,,,,,,,,,,,,,,,,,,,,,,,,,,,,,,,,,,,,,,,,,,,,,,,,,,,,,,,,,,,,,,,,,,,,,,,,,,,,,,,,
,,"[""comma""]",0,101,0,101,0,1,5d45c90c810cac00191bc1e0,37,Kobieta,2022-06-04_08h33.59.169,task,2021.1.4,Win32,62.61348695,628b806c463b948bc644b84f,629afabe60645cfcfc657b09,[0.27239999999989095],,,,,,,,,,,,,,,,,,,,,,,,,,,,,,,,,,,,,,,,,,,,,,,,,,,,,,,,,,,,,,,,,,,,,,,,,,,,,,,,,,,,,,,,,,,,,,,,,,,,,,,
,,"[""period""]",0,102,0,102,0,1,5d45c90c810cac00191bc1e0,37,Kobieta,2022-06-04_08h33.59.169,task,2021.1.4,Win32,62.61348695,628b806c463b948bc644b84f,629afabe60645cfcfc657b09,[0.2913000000000352],,,,,,,,,,,,,,,,,,,,,,,,,,,,,,,,,,,,,,,,,,,,,,,,,,,,,,,,,,,,,,,,,,,,,,,,,,,,,,,,,,,,,,,,,,,,,,,,,,,,,,,
,,"[""period""]",0,103,0,103,0,1,5d45c90c810cac00191bc1e0,37,Kobieta,2022-06-04_08h33.59.169,task,2021.1.4,Win32,62.61348695,628b806c463b948bc644b84f,629afabe60645cfcfc657b09,[-0.004699999999957072],,,,,,,,,,,,,,,,,,,,,,,,,,,,,,,,,,,,,,,,,,,,,,,,,,,,,,,,,,,,,,,,,,,,,,,,,,,,,,,,,,,,,,,,,,,,,,,,,,,,,,,
,,"[""comma""]",0,104,0,104,0,1,5d45c90c810cac00191bc1e0,37,Kobieta,2022-06-04_08h33.59.169,task,2021.1.4,Win32,62.61348695,628b806c463b948bc644b84f,629afabe60645cfcfc657b09,[0.3223000000000411],,,,,,,,,,,,,,,,,,,,,,,,,,,,,,,,,,,,,,,,,,,,,,,,,,,,,,,,,,,,,,,,,,,,,,,,,,,,,,,,,,,,,,,,,,,,,,,,,,,,,,,
,,"[""comma""]",0,105,0,105,0,1,5d45c90c810cac00191bc1e0,37,Kobieta,2022-06-04_08h33.59.169,task,2021.1.4,Win32,62.61348695,628b806c463b948bc644b84f,629afabe60645cfcfc657b09,[0.48119999999994434],,,,,,,,,,,,,,,,,,,,,,,,,,,,,,,,,,,,,,,,,,,,,,,,,,,,,,,,,,,,,,,,,,,,,,,,,,,,,,,,,,,,,,,,,,,,,,,,,,,,,,,
,,"[""comma""]",0,106,0,106,0,1,5d45c90c810cac00191bc1e0,37,Kobieta,2022-06-04_08h33.59.169,task,2021.1.4,Win32,62.61348695,628b806c463b948bc644b84f,629afabe60645cfcfc657b09,[0.41430000000002565],,,,,,,,,,,,,,,,,,,,,,,,,,,,,,,,,,,,,,,,,,,,,,,,,,,,,,,,,,,,,,,,,,,,,,,,,,,,,,,,,,,,,,,,,,,,,,,,,,,,,,,
,,"[""period""]",0,107,0,107,0,1,5d45c90c810cac00191bc1e0,37,Kobieta,2022-06-04_08h33.59.169,task,2021.1.4,Win32,62.61348695,628b806c463b948bc644b84f,629afabe60645cfcfc657b09,[0.3122999999999365],,,,,,,,,,,,,,,,,,,,,,,,,,,,,,,,,,,,,,,,,,,,,,,,,,,,,,,,,,,,,,,,,,,,,,,,,,,,,,,,,,,,,,,,,,,,,,,,,,,,,,,
,,"[""comma""]",0,108,0,108,0,1,5d45c90c810cac00191bc1e0,37,Kobieta,2022-06-04_08h33.59.169,task,2021.1.4,Win32,62.61348695,628b806c463b948bc644b84f,629afabe60645cfcfc657b09,[0.30730000000005475],,,,,,,,,,,,,,,,,,,,,,,,,,,,,,,,,,,,,,,,,,,,,,,,,,,,,,,,,,,,,,,,,,,,,,,,,,,,,,,,,,,,,,,,,,,,,,,,,,,,,,,
,,"[""period""]",0,109,0,109,0,1,5d45c90c810cac00191bc1e0,37,Kobieta,2022-06-04_08h33.59.169,task,2021.1.4,Win32,62.61348695,628b806c463b948bc644b84f,629afabe60645cfcfc657b09,[0.27909999999997126],,,,,,,,,,,,,,,,,,,,,,,,,,,,,,,,,,,,,,,,,,,,,,,,,,,,,,,,,,,,,,,,,,,,,,,,,,,,,,,,,,,,,,,,,,,,,,,,,,,,,,,
,,"[""comma""]",0,110,0,110,0,1,5d45c90c810cac00191bc1e0,37,Kobieta,2022-06-04_08h33.59.169,task,2021.1.4,Win32,62.61348695,628b806c463b948bc644b84f,629afabe60645cfcfc657b09,[0.02559999999999718],,,,,,,,,,,,,,,,,,,,,,,,,,,,,,,,,,,,,,,,,,,,,,,,,,,,,,,,,,,,,,,,,,,,,,,,,,,,,,,,,,,,,,,,,,,,,,,,,,,,,,,
,,"[""period""]",0,111,0,111,0,1,5d45c90c810cac00191bc1e0,37,Kobieta,2022-06-04_08h33.59.169,task,2021.1.4,Win32,62.61348695,628b806c463b948bc644b84f,629afabe60645cfcfc657b09,[0.31769999999994525],,,,,,,,,,,,,,,,,,,,,,,,,,,,,,,,,,,,,,,,,,,,,,,,,,,,,,,,,,,,,,,,,,,,,,,,,,,,,,,,,,,,,,,,,,,,,,,,,,,,,,,
,,"[""comma""]",0,112,0,112,0,1,5d45c90c810cac00191bc1e0,37,Kobieta,2022-06-04_08h33.59.169,task,2021.1.4,Win32,62.61348695,628b806c463b948bc644b84f,629afabe60645cfcfc657b09,[0.27769999999998163],,,,,,,,,,,,,,,,,,,,,,,,,,,,,,,,,,,,,,,,,,,,,,,,,,,,,,,,,,,,,,,,,,,,,,,,,,,,,,,,,,,,,,,,,,,,,,,,,,,,,,,
,,"[""period""]",0,113,0,113,0,1,5d45c90c810cac00191bc1e0,37,Kobieta,2022-06-04_08h33.59.169,task,2021.1.4,Win32,62.61348695,628b806c463b948bc644b84f,629afabe60645cfcfc657b09,[0.16219999999998436],,,,,,,,,,,,,,,,,,,,,,,,,,,,,,,,,,,,,,,,,,,,,,,,,,,,,,,,,,,,,,,,,,,,,,,,,,,,,,,,,,,,,,,,,,,,,,,,,,,,,,,
,,"[""period""]",0,114,0,114,0,1,5d45c90c810cac00191bc1e0,37,Kobieta,2022-06-04_08h33.59.169,task,2021.1.4,Win32,62.61348695,628b806c463b948bc644b84f,629afabe60645cfcfc657b09,[0.2808999999999173],,,,,,,,,,,,,,,,,,,,,,,,,,,,,,,,,,,,,,,,,,,,,,,,,,,,,,,,,,,,,,,,,,,,,,,,,,,,,,,,,,,,,,,,,,,,,,,,,,,,,,,
,,"[""comma""]",0,115,0,115,0,1,5d45c90c810cac00191bc1e0,37,Kobieta,2022-06-04_08h33.59.169,task,2021.1.4,Win32,62.61348695,628b806c463b948bc644b84f,629afabe60645cfcfc657b09,[0.3269999999999982],,,,,,,,,,,,,,,,,,,,,,,,,,,,,,,,,,,,,,,,,,,,,,,,,,,,,,,,,,,,,,,,,,,,,,,,,,,,,,,,,,,,,,,,,,,,,,,,,,,,,,,
,,"[""comma""]",0,116,0,116,0,1,5d45c90c810cac00191bc1e0,37,Kobieta,2022-06-04_08h33.59.169,task,2021.1.4,Win32,62.61348695,628b806c463b948bc644b84f,629afabe60645cfcfc657b09,[0.26200000000000045],,,,,,,,,,,,,,,,,,,,,,,,,,,,,,,,,,,,,,,,,,,,,,,,,,,,,,,,,,,,,,,,,,,,,,,,,,,,,,,,,,,,,,,,,,,,,,,,,,,,,,,
,,"[""period""]",0,117,0,117,0,1,5d45c90c810cac00191bc1e0,37,Kobieta,2022-06-04_08h33.59.169,task,2021.1.4,Win32,62.61348695,628b806c463b948bc644b84f,629afabe60645cfcfc657b09,[0.226099999999974],,,,,,,,,,,,,,,,,,,,,,,,,,,,,,,,,,,,,,,,,,,,,,,,,,,,,,,,,,,,,,,,,,,,,,,,,,,,,,,,,,,,,,,,,,,,,,,,,,,,,,,
,,"[""period""]",0,118,0,118,0,1,5d45c90c810cac00191bc1e0,37,Kobieta,2022-06-04_08h33.59.169,task,2021.1.4,Win32,62.61348695,628b806c463b948bc644b84f,629afabe60645cfcfc657b09,[0.23200000000002774],,,,,,,,,,,,,,,,,,,,,,,,,,,,,,,,,,,,,,,,,,,,,,,,,,,,,,,,,,,,,,,,,,,,,,,,,,,,,,,,,,,,,,,,,,,,,,,,,,,,,,,
,,"[""period""]",0,119,0,119,0,1,5d45c90c810cac00191bc1e0,37,Kobieta,2022-06-04_08h33.59.169,task,2021.1.4,Win32,62.61348695,628b806c463b948bc644b84f,629afabe60645cfcfc657b09,[0.2570999999999799],,,,,,,,,,,,,,,,,,,,,,,,,,,,,,,,,,,,,,,,,,,,,,,,,,,,,,,,,,,,,,,,,,,,,,,,,,,,,,,,,,,,,,,,,,,,,,,,,,,,,,,
,,,,,,,,,5d45c90c810cac00191bc1e0,37,Kobieta,2022-06-04_08h33.59.169,task,2021.1.4,Win32,62.61348695,628b806c463b948bc644b84f,629afabe60645cfcfc657b09,,space,17.0224,space,8.2889,0,0,0,0,1,X V Q F H G B L J M P D K C T S W R N Z,,,,,,,,,,,,,,,,,,,,,,,,,,,,,,,,,,,,,,,,,,,,,,,,,,,,,,,,,,,,,,,,,,,,,,,,,,,,,,,,,,,,,,,,,,,,,
,,,,,,,,,5d45c90c810cac00191bc1e0,37,Kobieta,2022-06-04_08h33.59.169,task,2021.1.4,Win32,62.61348695,628b806c463b948bc644b84f,629afabe60645cfcfc657b09,,,,,,1,0,1,0,1,X V Q F H G B L J M P D K C T S W R N Z,,,,,,,,,,,,,,,,,,,,,,,,,,,,,,,,,,,,,,,,,,,,,,,,,,,,,,,,,,,,,,,,,,,,,,,,,,,,,,,,,,,,,,,,,,,,,
,,,,,,,,,5d45c90c810cac00191bc1e0,37,Kobieta,2022-06-04_08h33.59.169,task,2021.1.4,Win32,62.61348695,628b806c463b948bc644b84f,629afabe60645cfcfc657b09,,,,,,,,,,,,zf,"[""z"",""f""]","[3.4022000000000503,4.206400000000031,6.162900000000036]",1,ZF,0,0,0,0,1,,,,,,,,,,,,,,,,,,,,,,,,,,,,,,,,,,,,,,,,,,,,,,,,,,,,,,,,,,,,,,,,,,,,,,,,,,,,,,,,,,,
,,,,,,,,,5d45c90c810cac00191bc1e0,37,Kobieta,2022-06-04_08h33.59.169,task,2021.1.4,Win32,62.61348695,628b806c463b948bc644b84f,629afabe60645cfcfc657b09,,,,,,0,0,0,0,1,X V Q F H G B L J M P D K C T S W R N Z,,,,,,,,,,,,,,,,,,,,,,,,,,,,,,,,,,,,,,,,,,,,,,,,,,,,,,,,,,,,,,,,,,,,,,,,,,,,,,,,,,,,,,,,,,,,,
,,,,,,,,,5d45c90c810cac00191bc1e0,37,Kobieta,2022-06-04_08h33.59.169,task,2021.1.4,Win32,62.61348695,628b806c463b948bc644b84f,629afabe60645cfcfc657b09,,,,,,1,0,1,0,1,X V Q F H G B L J M P D K C T S W R N Z,,,,,,,,,,,,,,,,,,,,,,,,,,,,,,,,,,,,,,,,,,,,,,,,,,,,,,,,,,,,,,,,,,,,,,,,,,,,,,,,,,,,,,,,,,,,,
,,,,,,,,,5d45c90c810cac00191bc1e0,37,Kobieta,2022-06-04_08h33.59.169,task,2021.1.4,Win32,62.61348695,628b806c463b948bc644b84f,629afabe60645cfcfc657b09,,,,,,,,,,,,tq,"[""t"",""q""]","[1.703700000000083,2.5089000000000397,3.0790000000000077]",1,TQ,1,0,1,0,1,,,,,,,,,,,,,,,,,,,,,,,,,,,,,,,,,,,,,,,,,,,,,,,,,,,,,,,,,,,,,,,,,,,,,,,,,,,,,,,,,,,
,,,,,,,,,5d45c90c810cac00191bc1e0,37,Kobieta,2022-06-04_08h33.59.169,task,2021.1.4,Win32,62.61348695,628b806c463b948bc644b84f,629afabe60645cfcfc657b09,,,,,,0,0,0,0,1,X V Q F H G B L J M P D K C T S W R N Z,,,,,,,,,,,,,,,,,,,,,,,,,,,,,,,,,,,,,,,,,,,,,,,,,,,,,,,,,,,,,,,,,,,,,,,,,,,,,,,,,,,,,,,,,,,,,
,,,,,,,,,5d45c90c810cac00191bc1e0,37,Kobieta,2022-06-04_08h33.59.169,task,2021.1.4,Win32,62.61348695,628b806c463b948bc644b84f,629afabe60645cfcfc657b09,,,,,,1,0,1,0,1,X V Q F H G B L J M P D K C T S W R N Z,,,,,,,,,,,,,,,,,,,,,,,,,,,,,,,,,,,,,,,,,,,,,,,,,,,,,,,,,,,,,,,,,,,,,,,,,,,,,,,,,,,,,,,,,,,,,
,,,,,,,,,5d45c90c810cac00191bc1e0,37,Kobieta,2022-06-04_08h33.59.169,task,2021.1.4,Win32,62.61348695,628b806c463b948bc644b84f,629afabe60645cfcfc657b09,,,,,,2,0,2,0,1,X V Q F H G B L J M P D K C T S W R N Z,,,,,,,,,,,,,,,,,,,,,,,,,,,,,,,,,,,,,,,,,,,,,,,,,,,,,,,,,,,,,,,,,,,,,,,,,,,,,,,,,,,,,,,,,,,,,
,,,,,,,,,5d45c90c810cac00191bc1e0,37,Kobieta,2022-06-04_08h33.59.169,task,2021.1.4,Win32,62.61348695,628b806c463b948bc644b84f,629afabe60645cfcfc657b09,,,,,,,,,,,,hmh,"[""h"",""m"",""h""]","[1.4685999999999808,1.8707999999999174,2.2101000000000113,3.2200000000000273]",1,HMH,2,0,2,0,1,,,,,,,,,,,,,,,,,,,,,,,,,,,,,,,,,,,,,,,,,,,,,,,,,,,,,,,,,,,,,,,,,,,,,,,,,,,,,,,,,,,
,,,,,,,,,5d45c90c810cac00191bc1e0,37,Kobieta,2022-06-04_08h33.59.169,task,2021.1.4,Win32,62.61348695,628b806c463b948bc644b84f,629afabe60645cfcfc657b09,,,,,,0,0,0,0,1,X V Q F H G B L J M P D K C T S W R N Z,,,,,,,,,,,,,,,,,,,,,,,,,,,,,,,,,,,,,,,,,,,,,,,,,,,,,,,,,,,,,,,,,,,,,,,,,,,,,,,,,,,,,,,,,,,,,
,,,,,,,,,5d45c90c810cac00191bc1e0,37,Kobieta,2022-06-04_08h33.59.169,task,2021.1.4,Win32,62.61348695,628b806c463b948bc644b84f,629afabe60645cfcfc657b09,,,,,,1,0,1,0,1,X V Q F H G B L J M P D K C T S W R N Z,,,,,,,,,,,,,,,,,,,,,,,,,,,,,,,,,,,,,,,,,,,,,,,,,,,,,,,,,,,,,,,,,,,,,,,,,,,,,,,,,,,,,,,,,,,,,
,,,,,,,,,5d45c90c810cac00191bc1e0,37,Kobieta,2022-06-04_08h33.59.169,task,2021.1.4,Win32,62.61348695,628b806c463b948bc644b84f,629afabe60645cfcfc657b09,,,,,,2,0,2,0,1,X V Q F H G B L J M P D K C T S W R N Z,,,,,,,,,,,,,,,,,,,,,,,,,,,,,,,,,,,,,,,,,,,,,,,,,,,,,,,,,,,,,,,,,,,,,,,,,,,,,,,,,,,,,,,,,,,,,
,,,,,,,,,5d45c90c810cac00191bc1e0,37,Kobieta,2022-06-04_08h33.59.169,task,2021.1.4,Win32,62.61348695,628b806c463b948bc644b84f,629afabe60645cfcfc657b09,,,,,,,,,,,,btq,"[""b"",""t"",""q""]","[1.344699999999989,1.6101999999999634,2.2560000000000286,2.885900000000049]",1,BTQ,3,0,3,0,1,,,,,,,,,,,,,,,,,,,,,,,,,,,,,,,,,,,,,,,,,,,,,,,,,,,,,,,,,,,,,,,,,,,,,,,,,,,,,,,,,,,
,,,,,,,,,5d45c90c810cac00191bc1e0,37,Kobieta,2022-06-04_08h33.59.169,task,2021.1.4,Win32,62.61348695,628b806c463b948bc644b84f,629afabe60645cfcfc657b09,,,,,,0,0,0,0,1,X V Q F H G B L J M P D K C T S W R N Z,,,,,,,,,,,,,,,,,,,,,,,,,,,,,,,,,,,,,,,,,,,,,,,,,,,,,,,,,,,,,,,,,,,,,,,,,,,,,,,,,,,,,,,,,,,,,
,,,,,,,,,5d45c90c810cac00191bc1e0,37,Kobieta,2022-06-04_08h33.59.169,task,2021.1.4,Win32,62.61348695,628b806c463b948bc644b84f,629afabe60645cfcfc657b09,,,,,,1,0,1,0,1,X V Q F H G B L J M P D K C T S W R N Z,,,,,,,,,,,,,,,,,,,,,,,,,,,,,,,,,,,,,,,,,,,,,,,,,,,,,,,,,,,,,,,,,,,,,,,,,,,,,,,,,,,,,,,,,,,,,
,,,,,,,,,5d45c90c810cac00191bc1e0,37,Kobieta,2022-06-04_08h33.59.169,task,2021.1.4,Win32,62.61348695,628b806c463b948bc644b84f,629afabe60645cfcfc657b09,,,,,,2,0,2,0,1,X V Q F H G B L J M P D K C T S W R N Z,,,,,,,,,,,,,,,,,,,,,,,,,,,,,,,,,,,,,,,,,,,,,,,,,,,,,,,,,,,,,,,,,,,,,,,,,,,,,,,,,,,,,,,,,,,,,
,,,,,,,,,5d45c90c810cac00191bc1e0,37,Kobieta,2022-06-04_08h33.59.169,task,2021.1.4,Win32,62.61348695,628b806c463b948bc644b84f,629afabe60645cfcfc657b09,,,,,,3,0,3,0,1,X V Q F H G B L J M P D K C T S W R N Z,,,,,,,,,,,,,,,,,,,,,,,,,,,,,,,,,,,,,,,,,,,,,,,,,,,,,,,,,,,,,,,,,,,,,,,,,,,,,,,,,,,,,,,,,,,,,
,,,,,,,,,5d45c90c810cac00191bc1e0,37,Kobieta,2022-06-04_08h33.59.169,task,2021.1.4,Win32,62.61348695,628b806c463b948bc644b84f,629afabe60645cfcfc657b09,,,,,,,,,,,,nglp,"[""n"",""g"",""l"",""p""]","[0.985300000000052,1.3887000000000285,1.7177000000000362,1.9870999999999412,2.6718999999999937]",1,NGLP,4,0,4,0,1,,,,,,,,,,,,,,,,,,,,,,,,,,,,,,,,,,,,,,,,,,,,,,,,,,,,,,,,,,,,,,,,,,,,,,,,,,,,,,,,,,,
,,,,,,,,,5d45c90c810cac00191bc1e0,37,Kobieta,2022-06-04_08h33.59.169,task,2021.1.4,Win32,62.61348695,628b806c463b948bc644b84f,629afabe60645cfcfc657b09,,,,,,0,0,0,0,1,X V Q F H G B L J M P D K C T S W R N Z,,,,,,,,,,,,,,,,,,,,,,,,,,,,,,,,,,,,,,,,,,,,,,,,,,,,,,,,,,,,,,,,,,,,,,,,,,,,,,,,,,,,,,,,,,,,,
,,,,,,,,,5d45c90c810cac00191bc1e0,37,Kobieta,2022-06-04_08h33.59.169,task,2021.1.4,Win32,62.61348695,628b806c463b948bc644b84f,629afabe60645cfcfc657b09,,,,,,1,0,1,0,1,X V Q F H G B L J M P D K C T S W R N Z,,,,,,,,,,,,,,,,,,,,,,,,,,,,,,,,,,,,,,,,,,,,,,,,,,,,,,,,,,,,,,,,,,,,,,,,,,,,,,,,,,,,,,,,,,,,,
,,,,,,,,,5d45c90c810cac00191bc1e0,37,Kobieta,2022-06-04_08h33.59.169,task,2021.1.4,Win32,62.61348695,628b806c463b948bc644b84f,629afabe60645cfcfc657b09,,,,,,2,0,2,0,1,X V Q F H G B L J M P D K C T S W R N Z,,,,,,,,,,,,,,,,,,,,,,,,,,,,,,,,,,,,,,,,,,,,,,,,,,,,,,,,,,,,,,,,,,,,,,,,,,,,,,,,,,,,,,,,,,,,,
,,,,,,,,,5d45c90c810cac00191bc1e0,37,Kobieta,2022-06-04_08h33.59.169,task,2021.1.4,Win32,62.61348695,628b806c463b948bc644b84f,629afabe60645cfcfc657b09,,,,,,3,0,3,0,1,X V Q F H G B L J M P D K C T S W R N Z,,,,,,,,,,,,,,,,,,,,,,,,,,,,,,,,,,,,,,,,,,,,,,,,,,,,,,,,,,,,,,,,,,,,,,,,,,,,,,,,,,,,,,,,,,,,,
,,,,,,,,,5d45c90c810cac00191bc1e0,37,Kobieta,2022-06-04_08h33.59.169,task,2021.1.4,Win32,62.61348695,628b806c463b948bc644b84f,629afabe60645cfcfc657b09,,,,,,,,,,,,gqph,"[""g"",""q"",""p"",""h""]","[1.4903999999999087,1.9020999999999617,2.3389999999999986,2.719199999999944,3.685299999999927]",1,GQPH,5,0,5,0,1,,,,,,,,,,,,,,,,,,,,,,,,,,,,,,,,,,,,,,,,,,,,,,,,,,,,,,,,,,,,,,,,,,,,,,,,,,,,,,,,,,,
,,,,,,,,,5d45c90c810cac00191bc1e0,37,Kobieta,2022-06-04_08h33.59.169,task,2021.1.4,Win32,62.61348695,628b806c463b948bc644b84f,629afabe60645cfcfc657b09,,,,,,0,0,0,0,1,X V Q F H G B L J M P D K C T S W R N Z,,,,,,,,,,,,,,,,,,,,,,,,,,,,,,,,,,,,,,,,,,,,,,,,,,,,,,,,,,,,,,,,,,,,,,,,,,,,,,,,,,,,,,,,,,,,,
,,,,,,,,,5d45c90c810cac00191bc1e0,37,Kobieta,2022-06-04_08h33.59.169,task,2021.1.4,Win32,62.61348695,628b806c463b948bc644b84f,629afabe60645cfcfc657b09,,,,,,1,0,1,0,1,X V Q F H G B L J M P D K C T S W R N Z,,,,,,,,,,,,,,,,,,,,,,,,,,,,,,,,,,,,,,,,,,,,,,,,,,,,,,,,,,,,,,,,,,,,,,,,,,,,,,,,,,,,,,,,,,,,,
,,,,,,,,,5d45c90c810cac00191bc1e0,37,Kobieta,2022-06-04_08h33.59.169,task,2021.1.4,Win32,62.61348695,628b806c463b948bc644b84f,629afabe60645cfcfc657b09,,,,,,2,0,2,0,1,X V Q F H G B L J M P D K C T S W R N Z,,,,,,,,,,,,,,,,,,,,,,,,,,,,,,,,,,,,,,,,,,,,,,,,,,,,,,,,,,,,,,,,,,,,,,,,,,,,,,,,,,,,,,,,,,,,,
,,,,,,,,,5d45c90c810cac00191bc1e0,37,Kobieta,2022-06-04_08h33.59.169,task,2021.1.4,Win32,62.61348695,628b806c463b948bc644b84f,629afabe60645cfcfc657b09,,,,,,3,0,3,0,1,X V Q F H G B L J M P D K C T S W R N Z,,,,,,,,,,,,,,,,,,,,,,,,,,,,,,,,,,,,,,,,,,,,,,,,,,,,,,,,,,,,,,,,,,,,,,,,,,,,,,,,,,,,,,,,,,,,,
,,,,,,,,,5d45c90c810cac00191bc1e0,37,Kobieta,2022-06-04_08h33.59.169,task,2021.1.4,Win32,62.61348695,628b806c463b948bc644b84f,629afabe60645cfcfc657b09,,,,,,4,0,4,0,1,X V Q F H G B L J M P D K C T S W R N Z,,,,,,,,,,,,,,,,,,,,,,,,,,,,,,,,,,,,,,,,,,,,,,,,,,,,,,,,,,,,,,,,,,,,,,,,,,,,,,,,,,,,,,,,,,,,,
,,,,,,,,,5d45c90c810cac00191bc1e0,37,Kobieta,2022-06-04_08h33.59.169,task,2021.1.4,Win32,62.61348695,628b806c463b948bc644b84f,629afabe60645cfcfc657b09,,,,,,,,,,,,ngqsg,"[""n"",""g"",""q"",""s"",""g""]","[1.043700000000058,1.5459999999999923,1.9906000000000859,2.3859999999999673,3.9902000000000726,4.6539000000000215]",1,NGQSG,6,0,6,0,1,,,,,,,,,,,,,,,,,,,,,,,,,,,,,,,,,,,,,,,,,,,,,,,,,,,,,,,,,,,,,,,,,,,,,,,,,,,,,,,,,,,
,,,,,,,,,5d45c90c810cac00191bc1e0,37,Kobieta,2022-06-04_08h33.59.169,task,2021.1.4,Win32,62.61348695,628b806c463b948bc644b84f,629afabe60645cfcfc657b09,,,,,,0,0,0,0,1,X V Q F H G B L J M P D K C T S W R N Z,,,,,,,,,,,,,,,,,,,,,,,,,,,,,,,,,,,,,,,,,,,,,,,,,,,,,,,,,,,,,,,,,,,,,,,,,,,,,,,,,,,,,,,,,,,,,
,,,,,,,,,5d45c90c810cac00191bc1e0,37,Kobieta,2022-06-04_08h33.59.169,task,2021.1.4,Win32,62.61348695,628b806c463b948bc644b84f,629afabe60645cfcfc657b09,,,,,,1,0,1,0,1,X V Q F H G B L J M P D K C T S W R N Z,,,,,,,,,,,,,,,,,,,,,,,,,,,,,,,,,,,,,,,,,,,,,,,,,,,,,,,,,,,,,,,,,,,,,,,,,,,,,,,,,,,,,,,,,,,,,
,,,,,,,,,5d45c90c810cac00191bc1e0,37,Kobieta,2022-06-04_08h33.59.169,task,2021.1.4,Win32,62.61348695,628b806c463b948bc644b84f,629afabe60645cfcfc657b09,,,,,,2,0,2,0,1,X V Q F H G B L J M P D K C T S W R N Z,,,,,,,,,,,,,,,,,,,,,,,,,,,,,,,,,,,,,,,,,,,,,,,,,,,,,,,,,,,,,,,,,,,,,,,,,,,,,,,,,,,,,,,,,,,,,
,,,,,,,,,5d45c90c810cac00191bc1e0,37,Kobieta,2022-06-04_08h33.59.169,task,2021.1.4,Win32,62.61348695,628b806c463b948bc644b84f,629afabe60645cfcfc657b09,,,,,,3,0,3,0,1,X V Q F H G B L J M P D K C T S W R N Z,,,,,,,,,,,,,,,,,,,,,,,,,,,,,,,,,,,,,,,,,,,,,,,,,,,,,,,,,,,,,,,,,,,,,,,,,,,,,,,,,,,,,,,,,,,,,
,,,,,,,,,5d45c90c810cac00191bc1e0,37,Kobieta,2022-06-04_08h33.59.169,task,2021.1.4,Win32,62.61348695,628b806c463b948bc644b84f,629afabe60645cfcfc657b09,,,,,,4,0,4,0,1,X V Q F H G B L J M P D K C T S W R N Z,,,,,,,,,,,,,,,,,,,,,,,,,,,,,,,,,,,,,,,,,,,,,,,,,,,,,,,,,,,,,,,,,,,,,,,,,,,,,,,,,,,,,,,,,,,,,
,,,,,,,,,5d45c90c810cac00191bc1e0,37,Kobieta,2022-06-04_08h33.59.169,task,2021.1.4,Win32,62.61348695,628b806c463b948bc644b84f,629afabe60645cfcfc657b09,,,,,,,,,,,,pgdqm,"[""p"",""g"",""d"",""q"",""m""]","[1.2560999999999467,1.7250999999999408,2.031000000000006,2.6468000000000416,3.0365999999999644,3.5579999999999927]",1,PGDQM,7,0,7,0,1,,,,,,,,,,,,,,,,,,,,,,,,,,,,,,,,,,,,,,,,,,,,,,,,,,,,,,,,,,,,,,,,,,,,,,,,,,,,,,,,,,,
,,,,,,,,,5d45c90c810cac00191bc1e0,37,Kobieta,2022-06-04_08h33.59.169,task,2021.1.4,Win32,62.61348695,628b806c463b948bc644b84f,629afabe60645cfcfc657b09,,,,,,0,0,0,0,1,X V Q F H G B L J M P D K C T S W R N Z,,,,,,,,,,,,,,,,,,,,,,,,,,,,,,,,,,,,,,,,,,,,,,,,,,,,,,,,,,,,,,,,,,,,,,,,,,,,,,,,,,,,,,,,,,,,,
,,,,,,,,,5d45c90c810cac00191bc1e0,37,Kobieta,2022-06-04_08h33.59.169,task,2021.1.4,Win32,62.61348695,628b806c463b948bc644b84f,629afabe60645cfcfc657b09,,,,,,1,0,1,0,1,X V Q F H G B L J M P D K C T S W R N Z,,,,,,,,,,,,,,,,,,,,,,,,,,,,,,,,,,,,,,,,,,,,,,,,,,,,,,,,,,,,,,,,,,,,,,,,,,,,,,,,,,,,,,,,,,,,,
,,,,,,,,,5d45c90c810cac00191bc1e0,37,Kobieta,2022-06-04_08h33.59.169,task,2021.1.4,Win32,62.61348695,628b806c463b948bc644b84f,629afabe60645cfcfc657b09,,,,,,2,0,2,0,1,X V Q F H G B L J M P D K C T S W R N Z,,,,,,,,,,,,,,,,,,,,,,,,,,,,,,,,,,,,,,,,,,,,,,,,,,,,,,,,,,,,,,,,,,,,,,,,,,,,,,,,,,,,,,,,,,,,,
,,,,,,,,,5d45c90c810cac00191bc1e0,37,Kobieta,2022-06-04_08h33.59.169,task,2021.1.4,Win32,62.61348695,628b806c463b948bc644b84f,629afabe60645cfcfc657b09,,,,,,3,0,3,0,1,X V Q F H G B L J M P D K C T S W R N Z,,,,,,,,,,,,,,,,,,,,,,,,,,,,,,,,,,,,,,,,,,,,,,,,,,,,,,,,,,,,,,,,,,,,,,,,,,,,,,,,,,,,,,,,,,,,,
,,,,,,,,,5d45c90c810cac00191bc1e0,37,Kobieta,2022-06-04_08h33.59.169,task,2021.1.4,Win32,62.61348695,628b806c463b948bc644b84f,629afabe60645cfcfc657b09,,,,,,4,0,4,0,1,X V Q F H G B L J M P D K C T S W R N Z,,,,,,,,,,,,,,,,,,,,,,,,,,,,,,,,,,,,,,,,,,,,,,,,,,,,,,,,,,,,,,,,,,,,,,,,,,,,,,,,,,,,,,,,,,,,,
,,,,,,,,,5d45c90c810cac00191bc1e0,37,Kobieta,2022-06-04_08h33.59.169,task,2021.1.4,Win32,62.61348695,628b806c463b948bc644b84f,629afabe60645cfcfc657b09,,,,,,5,0,5,0,1,X V Q F H G B L J M P D K C T S W R N Z,,,,,,,,,,,,,,,,,,,,,,,,,,,,,,,,,,,,,,,,,,,,,,,,,,,,,,,,,,,,,,,,,,,,,,,,,,,,,,,,,,,,,,,,,,,,,
,,,,,,,,,5d45c90c810cac00191bc1e0,37,Kobieta,2022-06-04_08h33.59.169,task,2021.1.4,Win32,62.61348695,628b806c463b948bc644b84f,629afabe60645cfcfc657b09,,,,,,,,,,,,wdtnjl,"[""w"",""d"",""t"",""n"",""j"",""l""]","[1.0942000000001144,1.3600000000000136,1.7257000000000744,2.0405000000000086,2.468200000000081,3.022600000000125,3.8341000000000918]",1,WDTNJL,8,0,8,0,1,,,,,,,,,,,,,,,,,,,,,,,,,,,,,,,,,,,,,,,,,,,,,,,,,,,,,,,,,,,,,,,,,,,,,,,,,,,,,,,,,,,
,,,,,,,,,5d45c90c810cac00191bc1e0,37,Kobieta,2022-06-04_08h33.59.169,task,2021.1.4,Win32,62.61348695,628b806c463b948bc644b84f,629afabe60645cfcfc657b09,,,,,,0,0,0,0,1,X V Q F H G B L J M P D K C T S W R N Z,,,,,,,,,,,,,,,,,,,,,,,,,,,,,,,,,,,,,,,,,,,,,,,,,,,,,,,,,,,,,,,,,,,,,,,,,,,,,,,,,,,,,,,,,,,,,
,,,,,,,,,5d45c90c810cac00191bc1e0,37,Kobieta,2022-06-04_08h33.59.169,task,2021.1.4,Win32,62.61348695,628b806c463b948bc644b84f,629afabe60645cfcfc657b09,,,,,,1,0,1,0,1,X V Q F H G B L J M P D K C T S W R N Z,,,,,,,,,,,,,,,,,,,,,,,,,,,,,,,,,,,,,,,,,,,,,,,,,,,,,,,,,,,,,,,,,,,,,,,,,,,,,,,,,,,,,,,,,,,,,
,,,,,,,,,5d45c90c810cac00191bc1e0,37,Kobieta,2022-06-04_08h33.59.169,task,2021.1.4,Win32,62.61348695,628b806c463b948bc644b84f,629afabe60645cfcfc657b09,,,,,,2,0,2,0,1,X V Q F H G B L J M P D K C T S W R N Z,,,,,,,,,,,,,,,,,,,,,,,,,,,,,,,,,,,,,,,,,,,,,,,,,,,,,,,,,,,,,,,,,,,,,,,,,,,,,,,,,,,,,,,,,,,,,
,,,,,,,,,5d45c90c810cac00191bc1e0,37,Kobieta,2022-06-04_08h33.59.169,task,2021.1.4,Win32,62.61348695,628b806c463b948bc644b84f,629afabe60645cfcfc657b09,,,,,,3,0,3,0,1,X V Q F H G B L J M P D K C T S W R N Z,,,,,,,,,,,,,,,,,,,,,,,,,,,,,,,,,,,,,,,,,,,,,,,,,,,,,,,,,,,,,,,,,,,,,,,,,,,,,,,,,,,,,,,,,,,,,
,,,,,,,,,5d45c90c810cac00191bc1e0,37,Kobieta,2022-06-04_08h33.59.169,task,2021.1.4,Win32,62.61348695,628b806c463b948bc644b84f,629afabe60645cfcfc657b09,,,,,,4,0,4,0,1,X V Q F H G B L J M P D K C T S W R N Z,,,,,,,,,,,,,,,,,,,,,,,,,,,,,,,,,,,,,,,,,,,,,,,,,,,,,,,,,,,,,,,,,,,,,,,,,,,,,,,,,,,,,,,,,,,,,
,,,,,,,,,5d45c90c810cac00191bc1e0,37,Kobieta,2022-06-04_08h33.59.169,task,2021.1.4,Win32,62.61348695,628b806c463b948bc644b84f,629afabe60645cfcfc657b09,,,,,,5,0,5,0,1,X V Q F H G B L J M P D K C T S W R N Z,,,,,,,,,,,,,,,,,,,,,,,,,,,,,,,,,,,,,,,,,,,,,,,,,,,,,,,,,,,,,,,,,,,,,,,,,,,,,,,,,,,,,,,,,,,,,
,,,,,,,,,5d45c90c810cac00191bc1e0,37,Kobieta,2022-06-04_08h33.59.169,task,2021.1.4,Win32,62.61348695,628b806c463b948bc644b84f,629afabe60645cfcfc657b09,,,,,,,,,,,,zzdcbs,"[""z"",""z"",""d"",""c"",""b"",""s""]","[1.1063000000000898,1.4524000000000683,1.790800000000047,2.745700000000113,3.0622000000000753,3.3385000000000105,4.88880000000006]",0,ZZDSBC,9,0,9,0,1,,,,,,,,,,,,,,,,,,,,,,,,,,,,,,,,,,,,,,,,,,,,,,,,,,,,,,,,,,,,,,,,,,,,,,,,,,,,,,,,,,,
,,,,,,,,,5d45c90c810cac00191bc1e0,37,Kobieta,2022-06-04_08h33.59.169,task,2021.1.4,Win32,62.61348695,628b806c463b948bc644b84f,629afabe60645cfcfc657b09,,,,,,0,0,0,0,1,X V Q F H G B L J M P D K C T S W R N Z,,,,,,,,,,,,,,,,,,,,,,,,,,,,,,,,,,,,,,,,,,,,,,,,,,,,,,,,,,,,,,,,,,,,,,,,,,,,,,,,,,,,,,,,,,,,,
,,,,,,,,,5d45c90c810cac00191bc1e0,37,Kobieta,2022-06-04_08h33.59.169,task,2021.1.4,Win32,62.61348695,628b806c463b948bc644b84f,629afabe60645cfcfc657b09,,,,,,1,0,1,0,1,X V Q F H G B L J M P D K C T S W R N Z,,,,,,,,,,,,,,,,,,,,,,,,,,,,,,,,,,,,,,,,,,,,,,,,,,,,,,,,,,,,,,,,,,,,,,,,,,,,,,,,,,,,,,,,,,,,,
,,,,,,,,,5d45c90c810cac00191bc1e0,37,Kobieta,2022-06-04_08h33.59.169,task,2021.1.4,Win32,62.61348695,628b806c463b948bc644b84f,629afabe60645cfcfc657b09,,,,,,2,0,2,0,1,X V Q F H G B L J M P D K C T S W R N Z,,,,,,,,,,,,,,,,,,,,,,,,,,,,,,,,,,,,,,,,,,,,,,,,,,,,,,,,,,,,,,,,,,,,,,,,,,,,,,,,,,,,,,,,,,,,,
,,,,,,,,,5d45c90c810cac00191bc1e0,37,Kobieta,2022-06-04_08h33.59.169,task,2021.1.4,Win32,62.61348695,628b806c463b948bc644b84f,629afabe60645cfcfc657b09,,,,,,3,0,3,0,1,X V Q F H G B L J M P D K C T S W R N Z,,,,,,,,,,,,,,,,,,,,,,,,,,,,,,,,,,,,,,,,,,,,,,,,,,,,,,,,,,,,,,,,,,,,,,,,,,,,,,,,,,,,,,,,,,,,,
,,,,,,,,,5d45c90c810cac00191bc1e0,37,Kobieta,2022-06-04_08h33.59.169,task,2021.1.4,Win32,62.61348695,628b806c463b948bc644b84f,629afabe60645cfcfc657b09,,,,,,4,0,4,0,1,X V Q F H G B L J M P D K C T S W R N Z,,,,,,,,,,,,,,,,,,,,,,,,,,,,,,,,,,,,,,,,,,,,,,,,,,,,,,,,,,,,,,,,,,,,,,,,,,,,,,,,,,,,,,,,,,,,,
,,,,,,,,,5d45c90c810cac00191bc1e0,37,Kobieta,2022-06-04_08h33.59.169,task,2021.1.4,Win32,62.61348695,628b806c463b948bc644b84f,629afabe60645cfcfc657b09,,,,,,5,0,5,0,1,X V Q F H G B L J M P D K C T S W R N Z,,,,,,,,,,,,,,,,,,,,,,,,,,,,,,,,,,,,,,,,,,,,,,,,,,,,,,,,,,,,,,,,,,,,,,,,,,,,,,,,,,,,,,,,,,,,,
,,,,,,,,,5d45c90c810cac00191bc1e0,37,Kobieta,2022-06-04_08h33.59.169,task,2021.1.4,Win32,62.61348695,628b806c463b948bc644b84f,629afabe60645cfcfc657b09,,,,,,,,,,,,bbgklh,"[""b"",""b"",""g"",""k"",""l"",""h""]","[1.2590999999999894,1.4535000000000196,1.8275000000000432,3.6760000000000446,4.205300000000079,5.009200000000078,5.754800000000046]",1,BBGKLH,10,0,10,0,1,,,,,,,,,,,,,,,,,,,,,,,,,,,,,,,,,,,,,,,,,,,,,,,,,,,,,,,,,,,,,,,,,,,,,,,,,,,,,,,,,,,
,,,,,,,,,5d45c90c810cac00191bc1e0,37,Kobieta,2022-06-04_08h33.59.169,task,2021.1.4,Win32,62.61348695,628b806c463b948bc644b84f,629afabe60645cfcfc657b09,,,,,,0,0,0,0,1,X V Q F H G B L J M P D K C T S W R N Z,,,,,,,,,,,,,,,,,,,,,,,,,,,,,,,,,,,,,,,,,,,,,,,,,,,,,,,,,,,,,,,,,,,,,,,,,,,,,,,,,,,,,,,,,,,,,
,,,,,,,,,5d45c90c810cac00191bc1e0,37,Kobieta,2022-06-04_08h33.59.169,task,2021.1.4,Win32,62.61348695,628b806c463b948bc644b84f,629afabe60645cfcfc657b09,,,,,,1,0,1,0,1,X V Q F H G B L J M P D K C T S W R N Z,,,,,,,,,,,,,,,,,,,,,,,,,,,,,,,,,,,,,,,,,,,,,,,,,,,,,,,,,,,,,,,,,,,,,,,,,,,,,,,,,,,,,,,,,,,,,
,,,,,,,,,5d45c90c810cac00191bc1e0,37,Kobieta,2022-06-04_08h33.59.169,task,2021.1.4,Win32,62.61348695,628b806c463b948bc644b84f,629afabe60645cfcfc657b09,,,,,,2,0,2,0,1,X V Q F H G B L J M P D K C T S W R N Z,,,,,,,,,,,,,,,,,,,,,,,,,,,,,,,,,,,,,,,,,,,,,,,,,,,,,,,,,,,,,,,,,,,,,,,,,,,,,,,,,,,,,,,,,,,,,
,,,,,,,,,5d45c90c810cac00191bc1e0,37,Kobieta,2022-06-04_08h33.59.169,task,2021.1.4,Win32,62.61348695,628b806c463b948bc644b84f,629afabe60645cfcfc657b09,,,,,,3,0,3,0,1,X V Q F H G B L J M P D K C T S W R N Z,,,,,,,,,,,,,,,,,,,,,,,,,,,,,,,,,,,,,,,,,,,,,,,,,,,,,,,,,,,,,,,,,,,,,,,,,,,,,,,,,,,,,,,,,,,,,
,,,,,,,,,5d45c90c810cac00191bc1e0,37,Kobieta,2022-06-04_08h33.59.169,task,2021.1.4,Win32,62.61348695,628b806c463b948bc644b84f,629afabe60645cfcfc657b09,,,,,,4,0,4,0,1,X V Q F H G B L J M P D K C T S W R N Z,,,,,,,,,,,,,,,,,,,,,,,,,,,,,,,,,,,,,,,,,,,,,,,,,,,,,,,,,,,,,,,,,,,,,,,,,,,,,,,,,,,,,,,,,,,,,
,,,,,,,,,5d45c90c810cac00191bc1e0,37,Kobieta,2022-06-04_08h33.59.169,task,2021.1.4,Win32,62.61348695,628b806c463b948bc644b84f,629afabe60645cfcfc657b09,,,,,,5,0,5,0,1,X V Q F H G B L J M P D K C T S W R N Z,,,,,,,,,,,,,,,,,,,,,,,,,,,,,,,,,,,,,,,,,,,,,,,,,,,,,,,,,,,,,,,,,,,,,,,,,,,,,,,,,,,,,,,,,,,,,
,,,,,,,,,5d45c90c810cac00191bc1e0,37,Kobieta,2022-06-04_08h33.59.169,task,2021.1.4,Win32,62.61348695,628b806c463b948bc644b84f,629afabe60645cfcfc657b09,,,,,,6,0,6,0,1,X V Q F H G B L J M P D K C T S W R N Z,,,,,,,,,,,,,,,,,,,,,,,,,,,,,,,,,,,,,,,,,,,,,,,,,,,,,,,,,,,,,,,,,,,,,,,,,,,,,,,,,,,,,,,,,,,,,
,,,,,,,,,5d45c90c810cac00191bc1e0,37,Kobieta,2022-06-04_08h33.59.169,task,2021.1.4,Win32,62.61348695,628b806c463b948bc644b84f,629afabe60645cfcfc657b09,,,,,,,,,,,,wdrgkjs,"[""w"",""d"",""r"",""g"",""k"",""j"",""s""]","[0.5869999999999891,0.9530999999999494,1.3570000000000277,1.7062999999999988,2.1052999999999997,2.4197000000000912,7.299800000000062,8.079499999999996]",0,WDRGKJZ,11,0,11,0,1,,,,,,,,,,,,,,,,,,,,,,,,,,,,,,,,,,,,,,,,,,,,,,,,,,,,,,,,,,,,,,,,,,,,,,,,,,,,,,,,,,,
,,,,,,,,,5d45c90c810cac00191bc1e0,37,Kobieta,2022-06-04_08h33.59.169,task,2021.1.4,Win32,62.61348695,628b806c463b948bc644b84f,629afabe60645cfcfc657b09,,,,,,0,0,0,0,1,X V Q F H G B L J M P D K C T S W R N Z,,,,,,,,,,,,,,,,,,,,,,,,,,,,,,,,,,,,,,,,,,,,,,,,,,,,,,,,,,,,,,,,,,,,,,,,,,,,,,,,,,,,,,,,,,,,,
,,,,,,,,,5d45c90c810cac00191bc1e0,37,Kobieta,2022-06-04_08h33.59.169,task,2021.1.4,Win32,62.61348695,628b806c463b948bc644b84f,629afabe60645cfcfc657b09,,,,,,1,0,1,0,1,X V Q F H G B L J M P D K C T S W R N Z,,,,,,,,,,,,,,,,,,,,,,,,,,,,,,,,,,,,,,,,,,,,,,,,,,,,,,,,,,,,,,,,,,,,,,,,,,,,,,,,,,,,,,,,,,,,,
,,,,,,,,,5d45c90c810cac00191bc1e0,37,Kobieta,2022-06-04_08h33.59.169,task,2021.1.4,Win32,62.61348695,628b806c463b948bc644b84f,629afabe60645cfcfc657b09,,,,,,2,0,2,0,1,X V Q F H G B L J M P D K C T S W R N Z,,,,,,,,,,,,,,,,,,,,,,,,,,,,,,,,,,,,,,,,,,,,,,,,,,,,,,,,,,,,,,,,,,,,,,,,,,,,,,,,,,,,,,,,,,,,,
,,,,,,,,,5d45c90c810cac00191bc1e0,37,Kobieta,2022-06-04_08h33.59.169,task,2021.1.4,Win32,62.61348695,628b806c463b948bc644b84f,629afabe60645cfcfc657b09,,,,,,3,0,3,0,1,X V Q F H G B L J M P D K C T S W R N Z,,,,,,,,,,,,,,,,,,,,,,,,,,,,,,,,,,,,,,,,,,,,,,,,,,,,,,,,,,,,,,,,,,,,,,,,,,,,,,,,,,,,,,,,,,,,,
,,,,,,,,,5d45c90c810cac00191bc1e0,37,Kobieta,2022-06-04_08h33.59.169,task,2021.1.4,Win32,62.61348695,628b806c463b948bc644b84f,629afabe60645cfcfc657b09,,,,,,4,0,4,0,1,X V Q F H G B L J M P D K C T S W R N Z,,,,,,,,,,,,,,,,,,,,,,,,,,,,,,,,,,,,,,,,,,,,,,,,,,,,,,,,,,,,,,,,,,,,,,,,,,,,,,,,,,,,,,,,,,,,,
,,,,,,,,,5d45c90c810cac00191bc1e0,37,Kobieta,2022-06-04_08h33.59.169,task,2021.1.4,Win32,62.61348695,628b806c463b948bc644b84f,629afabe60645cfcfc657b09,,,,,,5,0,5,0,1,X V Q F H G B L J M P D K C T S W R N Z,,,,,,,,,,,,,,,,,,,,,,,,,,,,,,,,,,,,,,,,,,,,,,,,,,,,,,,,,,,,,,,,,,,,,,,,,,,,,,,,,,,,,,,,,,,,,
,,,,,,,,,5d45c90c810cac00191bc1e0,37,Kobieta,2022-06-04_08h33.59.169,task,2021.1.4,Win32,62.61348695,628b806c463b948bc644b84f,629afabe60645cfcfc657b09,,,,,,6,0,6,0,1,X V Q F H G B L J M P D K C T S W R N Z,,,,,,,,,,,,,,,,,,,,,,,,,,,,,,,,,,,,,,,,,,,,,,,,,,,,,,,,,,,,,,,,,,,,,,,,,,,,,,,,,,,,,,,,,,,,,
,,,,,,,,,5d45c90c810cac00191bc1e0,37,Kobieta,2022-06-04_08h33.59.169,task,2021.1.4,Win32,62.61348695,628b806c463b948bc644b84f,629afabe60645cfcfc657b09,,,,,,,,,,,,zrxmcn,"[""z"",""r"",""x"",""m"",""c"",""n""]","[1.5863000000000511,2.276100000000156,6.923400000000015,9.165700000000129,9.9208000000001,11.736300000000028,13.003200000000106]",0,XRCRMFR,12,0,12,0,1,,,,,,,,,,,,,,,,,,,,,,,,,,,,,,,,,,,,,,,,,,,,,,,,,,,,,,,,,,,,,,,,,,,,,,,,,,,,,,,,,,,
,,,,,,,,,5d45c90c810cac00191bc1e0,37,Kobieta,2022-06-04_08h33.59.169,task,2021.1.4,Win32,62.61348695,628b806c463b948bc644b84f,629afabe60645cfcfc657b09,,,,,,0,0,0,0,1,X V Q F H G B L J M P D K C T S W R N Z,,,,,,,,,,,,,,,,,,,,,,,,,,,,,,,,,,,,,,,,,,,,,,,,,,,,,,,,,,,,,,,,,,,,,,,,,,,,,,,,,,,,,,,,,,,,,
,,,,,,,,,5d45c90c810cac00191bc1e0,37,Kobieta,2022-06-04_08h33.59.169,task,2021.1.4,Win32,62.61348695,628b806c463b948bc644b84f,629afabe60645cfcfc657b09,,,,,,1,0,1,0,1,X V Q F H G B L J M P D K C T S W R N Z,,,,,,,,,,,,,,,,,,,,,,,,,,,,,,,,,,,,,,,,,,,,,,,,,,,,,,,,,,,,,,,,,,,,,,,,,,,,,,,,,,,,,,,,,,,,,
,,,,,,,,,5d45c90c810cac00191bc1e0,37,Kobieta,2022-06-04_08h33.59.169,task,2021.1.4,Win32,62.61348695,628b806c463b948bc644b84f,629afabe60645cfcfc657b09,,,,,,2,0,2,0,1,X V Q F H G B L J M P D K C T S W R N Z,,,,,,,,,,,,,,,,,,,,,,,,,,,,,,,,,,,,,,,,,,,,,,,,,,,,,,,,,,,,,,,,,,,,,,,,,,,,,,,,,,,,,,,,,,,,,
,,,,,,,,,5d45c90c810cac00191bc1e0,37,Kobieta,2022-06-04_08h33.59.169,task,2021.1.4,Win32,62.61348695,628b806c463b948bc644b84f,629afabe60645cfcfc657b09,,,,,,3,0,3,0,1,X V Q F H G B L J M P D K C T S W R N Z,,,,,,,,,,,,,,,,,,,,,,,,,,,,,,,,,,,,,,,,,,,,,,,,,,,,,,,,,,,,,,,,,,,,,,,,,,,,,,,,,,,,,,,,,,,,,
,,,,,,,,,5d45c90c810cac00191bc1e0,37,Kobieta,2022-06-04_08h33.59.169,task,2021.1.4,Win32,62.61348695,628b806c463b948bc644b84f,629afabe60645cfcfc657b09,,,,,,4,0,4,0,1,X V Q F H G B L J M P D K C T S W R N Z,,,,,,,,,,,,,,,,,,,,,,,,,,,,,,,,,,,,,,,,,,,,,,,,,,,,,,,,,,,,,,,,,,,,,,,,,,,,,,,,,,,,,,,,,,,,,
,,,,,,,,,5d45c90c810cac00191bc1e0,37,Kobieta,2022-06-04_08h33.59.169,task,2021.1.4,Win32,62.61348695,628b806c463b948bc644b84f,629afabe60645cfcfc657b09,,,,,,5,0,5,0,1,X V Q F H G B L J M P D K C T S W R N Z,,,,,,,,,,,,,,,,,,,,,,,,,,,,,,,,,,,,,,,,,,,,,,,,,,,,,,,,,,,,,,,,,,,,,,,,,,,,,,,,,,,,,,,,,,,,,
,,,,,,,,,5d45c90c810cac00191bc1e0,37,Kobieta,2022-06-04_08h33.59.169,task,2021.1.4,Win32,62.61348695,628b806c463b948bc644b84f,629afabe60645cfcfc657b09,,,,,,6,0,6,0,1,X V Q F H G B L J M P D K C T S W R N Z,,,,,,,,,,,,,,,,,,,,,,,,,,,,,,,,,,,,,,,,,,,,,,,,,,,,,,,,,,,,,,,,,,,,,,,,,,,,,,,,,,,,,,,,,,,,,
,,,,,,,,,5d45c90c810cac00191bc1e0,37,Kobieta,2022-06-04_08h33.59.169,task,2021.1.4,Win32,62.61348695,628b806c463b948bc644b84f,629afabe60645cfcfc657b09,,,,,,,,,,,,lkkvpjb,"[""l"",""k"",""k"",""v"",""p"",""j"",""b""]","[1.8072000000000799,2.541500000000042,2.894300000000044,3.652200000000107,4.9732000000001335,5.3899000000000115,5.8243000000001075,6.1264999999999645]",1,LKKVPJB,13,0,13,0,1,,,,,,,,,,,,,,,,,,,,,,,,,,,,,,,,,,,,,,,,,,,,,,,,,,,,,,,,,,,,,,,,,,,,,,,,,,,,,,,,,,,
,,,,,,,,,5d45c90c810cac00191bc1e0,37,Kobieta,2022-06-04_08h33.59.169,task,2021.1.4,Win32,62.61348695,628b806c463b948bc644b84f,629afabe60645cfcfc657b09,,,,,,0,0,0,0,1,X V Q F H G B L J M P D K C T S W R N Z,,,,,,,,,,,,,,,,,,,,,,,,,,,,,,,,,,,,,,,,,,,,,,,,,,,,,,,,,,,,,,,,,,,,,,,,,,,,,,,,,,,,,,,,,,,,,
,,,,,,,,,5d45c90c810cac00191bc1e0,37,Kobieta,2022-06-04_08h33.59.169,task,2021.1.4,Win32,62.61348695,628b806c463b948bc644b84f,629afabe60645cfcfc657b09,,,,,,1,0,1,0,1,X V Q F H G B L J M P D K C T S W R N Z,,,,,,,,,,,,,,,,,,,,,,,,,,,,,,,,,,,,,,,,,,,,,,,,,,,,,,,,,,,,,,,,,,,,,,,,,,,,,,,,,,,,,,,,,,,,,
,,,,,,,,,5d45c90c810cac00191bc1e0,37,Kobieta,2022-06-04_08h33.59.169,task,2021.1.4,Win32,62.61348695,628b806c463b948bc644b84f,629afabe60645cfcfc657b09,,,,,,2,0,2,0,1,X V Q F H G B L J M P D K C T S W R N Z,,,,,,,,,,,,,,,,,,,,,,,,,,,,,,,,,,,,,,,,,,,,,,,,,,,,,,,,,,,,,,,,,,,,,,,,,,,,,,,,,,,,,,,,,,,,,
,,,,,,,,,5d45c90c810cac00191bc1e0,37,Kobieta,2022-06-04_08h33.59.169,task,2021.1.4,Win32,62.61348695,628b806c463b948bc644b84f,629afabe60645cfcfc657b09,,,,,,3,0,3,0,1,X V Q F H G B L J M P D K C T S W R N Z,,,,,,,,,,,,,,,,,,,,,,,,,,,,,,,,,,,,,,,,,,,,,,,,,,,,,,,,,,,,,,,,,,,,,,,,,,,,,,,,,,,,,,,,,,,,,
,,,,,,,,,5d45c90c810cac00191bc1e0,37,Kobieta,2022-06-04_08h33.59.169,task,2021.1.4,Win32,62.61348695,628b806c463b948bc644b84f,629afabe60645cfcfc657b09,,,,,,4,0,4,0,1,X V Q F H G B L J M P D K C T S W R N Z,,,,,,,,,,,,,,,,,,,,,,,,,,,,,,,,,,,,,,,,,,,,,,,,,,,,,,,,,,,,,,,,,,,,,,,,,,,,,,,,,,,,,,,,,,,,,
,,,,,,,,,5d45c90c810cac00191bc1e0,37,Kobieta,2022-06-04_08h33.59.169,task,2021.1.4,Win32,62.61348695,628b806c463b948bc644b84f,629afabe60645cfcfc657b09,,,,,,5,0,5,0,1,X V Q F H G B L J M P D K C T S W R N Z,,,,,,,,,,,,,,,,,,,,,,,,,,,,,,,,,,,,,,,,,,,,,,,,,,,,,,,,,,,,,,,,,,,,,,,,,,,,,,,,,,,,,,,,,,,,,
,,,,,,,,,5d45c90c810cac00191bc1e0,37,Kobieta,2022-06-04_08h33.59.169,task,2021.1.4,Win32,62.61348695,628b806c463b948bc644b84f,629afabe60645cfcfc657b09,,,,,,6,0,6,0,1,X V Q F H G B L J M P D K C T S W R N Z,,,,,,,,,,,,,,,,,,,,,,,,,,,,,,,,,,,,,,,,,,,,,,,,,,,,,,,,,,,,,,,,,,,,,,,,,,,,,,,,,,,,,,,,,,,,,
,,,,,,,,,5d45c90c810cac00191bc1e0,37,Kobieta,2022-06-04_08h33.59.169,task,2021.1.4,Win32,62.61348695,628b806c463b948bc644b84f,629afabe60645cfcfc657b09,,,,,,,,,,,,wjmlhsf,"[""w"",""j"",""m"",""l"",""h"",""s"",""f""]","[2.019999999999982,3.4029999999999063,4.456699999999955,5.05740000000003,5.945799999999963,6.499299999999948,9.001899999999978,10.213899999999967]",1,WJMLHSF,14,0,14,0,1,,,,,,,,,,,,,,,,,,,,,,,,,,,,,,,,,,,,,,,,,,,,,,,,,,,,,,,,,,,,,,,,,,,,,,,,,,,,,,,,,,,
,,,,,,,,,5d45c90c810cac00191bc1e0,37,Kobieta,2022-06-04_08h33.59.169,task,2021.1.4,Win32,62.61348695,628b806c463b948bc644b84f,629afabe60645cfcfc657b09,,,,,,0,0,0,0,1,X V Q F H G B L J M P D K C T S W R N Z,,,,,,,,,,,,,,,,,,,,,,,,,,,,,,,,,,,,,,,,,,,,,,,,,,,,,,,,,,,,,,,,,,,,,,,,,,,,,,,,,,,,,,,,,,,,,
,,,,,,,,,5d45c90c810cac00191bc1e0,37,Kobieta,2022-06-04_08h33.59.169,task,2021.1.4,Win32,62.61348695,628b806c463b948bc644b84f,629afabe60645cfcfc657b09,,,,,,1,0,1,0,1,X V Q F H G B L J M P D K C T S W R N Z,,,,,,,,,,,,,,,,,,,,,,,,,,,,,,,,,,,,,,,,,,,,,,,,,,,,,,,,,,,,,,,,,,,,,,,,,,,,,,,,,,,,,,,,,,,,,
,,,,,,,,,5d45c90c810cac00191bc1e0,37,Kobieta,2022-06-04_08h33.59.169,task,2021.1.4,Win32,62.61348695,628b806c463b948bc644b84f,629afabe60645cfcfc657b09,,,,,,2,0,2,0,1,X V Q F H G B L J M P D K C T S W R N Z,,,,,,,,,,,,,,,,,,,,,,,,,,,,,,,,,,,,,,,,,,,,,,,,,,,,,,,,,,,,,,,,,,,,,,,,,,,,,,,,,,,,,,,,,,,,,
,,,,,,,,,5d45c90c810cac00191bc1e0,37,Kobieta,2022-06-04_08h33.59.169,task,2021.1.4,Win32,62.61348695,628b806c463b948bc644b84f,629afabe60645cfcfc657b09,,,,,,3,0,3,0,1,X V Q F H G B L J M P D K C T S W R N Z,,,,,,,,,,,,,,,,,,,,,,,,,,,,,,,,,,,,,,,,,,,,,,,,,,,,,,,,,,,,,,,,,,,,,,,,,,,,,,,,,,,,,,,,,,,,,
,,,,,,,,,5d45c90c810cac00191bc1e0,37,Kobieta,2022-06-04_08h33.59.169,task,2021.1.4,Win32,62.61348695,628b806c463b948bc644b84f,629afabe60645cfcfc657b09,,,,,,4,0,4,0,1,X V Q F H G B L J M P D K C T S W R N Z,,,,,,,,,,,,,,,,,,,,,,,,,,,,,,,,,,,,,,,,,,,,,,,,,,,,,,,,,,,,,,,,,,,,,,,,,,,,,,,,,,,,,,,,,,,,,
,,,,,,,,,5d45c90c810cac00191bc1e0,37,Kobieta,2022-06-04_08h33.59.169,task,2021.1.4,Win32,62.61348695,628b806c463b948bc644b84f,629afabe60645cfcfc657b09,,,,,,5,0,5,0,1,X V Q F H G B L J M P D K C T S W R N Z,,,,,,,,,,,,,,,,,,,,,,,,,,,,,,,,,,,,,,,,,,,,,,,,,,,,,,,,,,,,,,,,,,,,,,,,,,,,,,,,,,,,,,,,,,,,,
,,,,,,,,,5d45c90c810cac00191bc1e0,37,Kobieta,2022-06-04_08h33.59.169,task,2021.1.4,Win32,62.61348695,628b806c463b948bc644b84f,629afabe60645cfcfc657b09,,,,,,6,0,6,0,1,X V Q F H G B L J M P D K C T S W R N Z,,,,,,,,,,,,,,,,,,,,,,,,,,,,,,,,,,,,,,,,,,,,,,,,,,,,,,,,,,,,,,,,,,,,,,,,,,,,,,,,,,,,,,,,,,,,,
,,,,,,,,,5d45c90c810cac00191bc1e0,37,Kobieta,2022-06-04_08h33.59.169,task,2021.1.4,Win32,62.61348695,628b806c463b948bc644b84f,629afabe60645cfcfc657b09,,,,,,7,0,7,0,1,X V Q F H G B L J M P D K C T S W R N Z,,,,,,,,,,,,,,,,,,,,,,,,,,,,,,,,,,,,,,,,,,,,,,,,,,,,,,,,,,,,,,,,,,,,,,,,,,,,,,,,,,,,,,,,,,,,,
,,,,,,,,,5d45c90c810cac00191bc1e0,37,Kobieta,2022-06-04_08h33.59.169,task,2021.1.4,Win32,62.61348695,628b806c463b948bc644b84f,629afabe60645cfcfc657b09,,,,,,,,,,,,wshgdbn,"[""w"",""s"",""h"",""g"",""d"",""b"",""n""]","[4.322900000000004,5.738899999999944,6.3655999999998585,7.2702999999999065,8.488299999999867,9.341000000000008,10.12279999999987,11.228599999999915]",0,ZCSHGDBN,15,0,15,0,1,,,,,,,,,,,,,,,,,,,,,,,,,,,,,,,,,,,,,,,,,,,,,,,,,,,,,,,,,,,,,,,,,,,,,,,,,,,,,,,,,,,
,,,,,,,,,5d45c90c810cac00191bc1e0,37,Kobieta,2022-06-04_08h33.59.169,task,2021.1.4,Win32,62.61348695,628b806c463b948bc644b84f,629afabe60645cfcfc657b09,,,,,,0,0,0,0,1,X V Q F H G B L J M P D K C T S W R N Z,,,,,,,,,,,,,,,,,,,,,,,,,,,,,,,,,,,,,,,,,,,,,,,,,,,,,,,,,,,,,,,,,,,,,,,,,,,,,,,,,,,,,,,,,,,,,
,,,,,,,,,5d45c90c810cac00191bc1e0,37,Kobieta,2022-06-04_08h33.59.169,task,2021.1.4,Win32,62.61348695,628b806c463b948bc644b84f,629afabe60645cfcfc657b09,,,,,,1,0,1,0,1,X V Q F H G B L J M P D K C T S W R N Z,,,,,,,,,,,,,,,,,,,,,,,,,,,,,,,,,,,,,,,,,,,,,,,,,,,,,,,,,,,,,,,,,,,,,,,,,,,,,,,,,,,,,,,,,,,,,
,,,,,,,,,5d45c90c810cac00191bc1e0,37,Kobieta,2022-06-04_08h33.59.169,task,2021.1.4,Win32,62.61348695,628b806c463b948bc644b84f,629afabe60645cfcfc657b09,,,,,,2,0,2,0,1,X V Q F H G B L J M P D K C T S W R N Z,,,,,,,,,,,,,,,,,,,,,,,,,,,,,,,,,,,,,,,,,,,,,,,,,,,,,,,,,,,,,,,,,,,,,,,,,,,,,,,,,,,,,,,,,,,,,
,,,,,,,,,5d45c90c810cac00191bc1e0,37,Kobieta,2022-06-04_08h33.59.169,task,2021.1.4,Win32,62.61348695,628b806c463b948bc644b84f,629afabe60645cfcfc657b09,,,,,,3,0,3,0,1,X V Q F H G B L J M P D K C T S W R N Z,,,,,,,,,,,,,,,,,,,,,,,,,,,,,,,,,,,,,,,,,,,,,,,,,,,,,,,,,,,,,,,,,,,,,,,,,,,,,,,,,,,,,,,,,,,,,
,,,,,,,,,5d45c90c810cac00191bc1e0,37,Kobieta,2022-06-04_08h33.59.169,task,2021.1.4,Win32,62.61348695,628b806c463b948bc644b84f,629afabe60645cfcfc657b09,,,,,,4,0,4,0,1,X V Q F H G B L J M P D K C T S W R N Z,,,,,,,,,,,,,,,,,,,,,,,,,,,,,,,,,,,,,,,,,,,,,,,,,,,,,,,,,,,,,,,,,,,,,,,,,,,,,,,,,,,,,,,,,,,,,
,,,,,,,,,5d45c90c810cac00191bc1e0,37,Kobieta,2022-06-04_08h33.59.169,task,2021.1.4,Win32,62.61348695,628b806c463b948bc644b84f,629afabe60645cfcfc657b09,,,,,,5,0,5,0,1,X V Q F H G B L J M P D K C T S W R N Z,,,,,,,,,,,,,,,,,,,,,,,,,,,,,,,,,,,,,,,,,,,,,,,,,,,,,,,,,,,,,,,,,,,,,,,,,,,,,,,,,,,,,,,,,,,,,
,,,,,,,,,5d45c90c810cac00191bc1e0,37,Kobieta,2022-06-04_08h33.59.169,task,2021.1.4,Win32,62.61348695,628b806c463b948bc644b84f,629afabe60645cfcfc657b09,,,,,,6,0,6,0,1,X V Q F H G B L J M P D K C T S W R N Z,,,,,,,,,,,,,,,,,,,,,,,,,,,,,,,,,,,,,,,,,,,,,,,,,,,,,,,,,,,,,,,,,,,,,,,,,,,,,,,,,,,,,,,,,,,,,
,,,,,,,,,5d45c90c810cac00191bc1e0,37,Kobieta,2022-06-04_08h33.59.169,task,2021.1.4,Win32,62.61348695,628b806c463b948bc644b84f,629afabe60645cfcfc657b09,,,,,,7,0,7,0,1,X V Q F H G B L J M P D K C T S W R N Z,,,,,,,,,,,,,,,,,,,,,,,,,,,,,,,,,,,,,,,,,,,,,,,,,,,,,,,,,,,,,,,,,,,,,,,,,,,,,,,,,,,,,,,,,,,,,
,,,,,,,,,5d45c90c810cac00191bc1e0,37,Kobieta,2022-06-04_08h33.59.169,task,2021.1.4,Win32,62.61348695,628b806c463b948bc644b84f,629afabe60645cfcfc657b09,,,,,,,,,,,,ghspkdbf,"[""g"",""h"",""s"",""p"",""k"",""d"",""b"",""f""]","[2.157400000000166,3.1106999999999516,4.121699999999919,4.8673,5.9996000000001,7.116100000000074,7.658400000000142,8.237799999999993,9.118699999999876]",0,GHPSKDBF,16,0,16,0,1,,,,,,,,,,,,,,,,,,,,,,,,,,,,,,,,,,,,,,,,,,,,,,,,,,,,,,,,,,,,,,,,,,,,,,,,,,,,,,,,,,,
,,,,,,,,,5d45c90c810cac00191bc1e0,37,Kobieta,2022-06-04_08h33.59.169,task,2021.1.4,Win32,62.61348695,628b806c463b948bc644b84f,629afabe60645cfcfc657b09,,,,,,0,0,0,0,1,X V Q F H G B L J M P D K C T S W R N Z,,,,,,,,,,,,,,,,,,,,,,,,,,,,,,,,,,,,,,,,,,,,,,,,,,,,,,,,,,,,,,,,,,,,,,,,,,,,,,,,,,,,,,,,,,,,,
,,,,,,,,,5d45c90c810cac00191bc1e0,37,Kobieta,2022-06-04_08h33.59.169,task,2021.1.4,Win32,62.61348695,628b806c463b948bc644b84f,629afabe60645cfcfc657b09,,,,,,1,0,1,0,1,X V Q F H G B L J M P D K C T S W R N Z,,,,,,,,,,,,,,,,,,,,,,,,,,,,,,,,,,,,,,,,,,,,,,,,,,,,,,,,,,,,,,,,,,,,,,,,,,,,,,,,,,,,,,,,,,,,,
,,,,,,,,,5d45c90c810cac00191bc1e0,37,Kobieta,2022-06-04_08h33.59.169,task,2021.1.4,Win32,62.61348695,628b806c463b948bc644b84f,629afabe60645cfcfc657b09,,,,,,2,0,2,0,1,X V Q F H G B L J M P D K C T S W R N Z,,,,,,,,,,,,,,,,,,,,,,,,,,,,,,,,,,,,,,,,,,,,,,,,,,,,,,,,,,,,,,,,,,,,,,,,,,,,,,,,,,,,,,,,,,,,,
,,,,,,,,,5d45c90c810cac00191bc1e0,37,Kobieta,2022-06-04_08h33.59.169,task,2021.1.4,Win32,62.61348695,628b806c463b948bc644b84f,629afabe60645cfcfc657b09,,,,,,3,0,3,0,1,X V Q F H G B L J M P D K C T S W R N Z,,,,,,,,,,,,,,,,,,,,,,,,,,,,,,,,,,,,,,,,,,,,,,,,,,,,,,,,,,,,,,,,,,,,,,,,,,,,,,,,,,,,,,,,,,,,,
,,,,,,,,,5d45c90c810cac00191bc1e0,37,Kobieta,2022-06-04_08h33.59.169,task,2021.1.4,Win32,62.61348695,628b806c463b948bc644b84f,629afabe60645cfcfc657b09,,,,,,4,0,4,0,1,X V Q F H G B L J M P D K C T S W R N Z,,,,,,,,,,,,,,,,,,,,,,,,,,,,,,,,,,,,,,,,,,,,,,,,,,,,,,,,,,,,,,,,,,,,,,,,,,,,,,,,,,,,,,,,,,,,,
,,,,,,,,,5d45c90c810cac00191bc1e0,37,Kobieta,2022-06-04_08h33.59.169,task,2021.1.4,Win32,62.61348695,628b806c463b948bc644b84f,629afabe60645cfcfc657b09,,,,,,5,0,5,0,1,X V Q F H G B L J M P D K C T S W R N Z,,,,,,,,,,,,,,,,,,,,,,,,,,,,,,,,,,,,,,,,,,,,,,,,,,,,,,,,,,,,,,,,,,,,,,,,,,,,,,,,,,,,,,,,,,,,,
,,,,,,,,,5d45c90c810cac00191bc1e0,37,Kobieta,2022-06-04_08h33.59.169,task,2021.1.4,Win32,62.61348695,628b806c463b948bc644b84f,629afabe60645cfcfc657b09,,,,,,6,0,6,0,1,X V Q F H G B L J M P D K C T S W R N Z,,,,,,,,,,,,,,,,,,,,,,,,,,,,,,,,,,,,,,,,,,,,,,,,,,,,,,,,,,,,,,,,,,,,,,,,,,,,,,,,,,,,,,,,,,,,,
,,,,,,,,,5d45c90c810cac00191bc1e0,37,Kobieta,2022-06-04_08h33.59.169,task,2021.1.4,Win32,62.61348695,628b806c463b948bc644b84f,629afabe60645cfcfc657b09,,,,,,7,0,7,0,1,X V Q F H G B L J M P D K C T S W R N Z,,,,,,,,,,,,,,,,,,,,,,,,,,,,,,,,,,,,,,,,,,,,,,,,,,,,,,,,,,,,,,,,,,,,,,,,,,,,,,,,,,,,,,,,,,,,,
,,,,,,,,,5d45c90c810cac00191bc1e0,37,Kobieta,2022-06-04_08h33.59.169,task,2021.1.4,Win32,62.61348695,628b806c463b948bc644b84f,629afabe60645cfcfc657b09,,,,,,,,,,,,czpwgjlt,"[""c"",""z"",""p"",""w"",""g"",""j"",""l"",""t""]","[1.2474999999999454,1.5779999999999745,2.0031999999999925,2.375,2.8257999999998447,3.3036999999999352,3.7930000000000064,4.306500000000028,5.5247999999998]",0,CZPGJWTL,17,0,17,0,1,,,,,,,,,,,,,,,,,,,,,,,,,,,,,,,,,,,,,,,,,,,,,,,,,,,,,,,,,,,,,,,,,,,,,,,,,,,,,,,,,,,
,,,,,,,,,5d45c90c810cac00191bc1e0,37,Kobieta,2022-06-04_08h33.59.169,task,2021.1.4,Win32,62.61348695,628b806c463b948bc644b84f,629afabe60645cfcfc657b09,,,,,,,,,,,,,,,,,,,,,,space,9.9049,6,"[""6""]",1,[5.548600000000079],[5.548600000000079],0,0,0,6,1,Practice,7,(25/5) + 1,6,,,,,,,,,,,,,,,,,,,,,,,,,,,,,,,,,,,,,,,,,,,,,,,,,,,,,,,,,,,,,,,,,,,
,,,,,,,,,5d45c90c810cac00191bc1e0,37,Kobieta,2022-06-04_08h33.59.169,task,2021.1.4,Win32,62.61348695,628b806c463b948bc644b84f,629afabe60645cfcfc657b09,,,,,,,,,,,,,,,,,,,,,,,,0,"[""0""]",1,[3.1257000000000517],"[5.548600000000079,3.1257000000000517]",0,1,1,0,1,Practice,1,(3x3) -  9,0,,,,,,,,,,,,,,,,,,,,,,,,,,,,,,,,,,,,,,,,,,,,,,,,,,,,,,,,,,,,,,,,,,,
,,,,,,,,,5d45c90c810cac00191bc1e0,37,Kobieta,2022-06-04_08h33.59.169,task,2021.1.4,Win32,62.61348695,628b806c463b948bc644b84f,629afabe60645cfcfc657b09,,,,,,,,,,,,,,,,,,,,,,,,7,"[""7""]",1,[16.991100000000074],"[5.548600000000079,3.1257000000000517,16.991100000000074]",0,2,2,7,1,Practice,8,(5x5) - 18,7,,,,,,,,,,,,,,,,,,,,,,,,,,,,,,,,,,,,,,,,,,,,,,,,,,,,,,,,,,,,,,,,,,,
,,,,,,,,,5d45c90c810cac00191bc1e0,37,Kobieta,2022-06-04_08h33.59.169,task,2021.1.4,Win32,62.61348695,628b806c463b948bc644b84f,629afabe60645cfcfc657b09,,,,,,,,,,,,,,,,,,,,,,,,4,"[""4""]",1,[3.4163999999999533],"[5.548600000000079,3.1257000000000517,16.991100000000074,3.4163999999999533]",0,3,3,4,1,Practice,5,(2x6) - 8,4,,,,,,,,,,,,,,,,,,,,,,,,,,,,,,,,,,,,,,,,,,,,,,,,,,,,,,,,,,,,,,,,,,,
,,,,,,,,,5d45c90c810cac00191bc1e0,37,Kobieta,2022-06-04_08h33.59.169,task,2021.1.4,Win32,62.61348695,628b806c463b948bc644b84f,629afabe60645cfcfc657b09,,,,,,,,,,,,,,,,,,,,,,,,2,"[""2""]",1,[2.1960999999998876],"[5.548600000000079,3.1257000000000517,16.991100000000074,3.4163999999999533,2.1960999999998876]",0,4,4,2,1,Practice,3,(4x4) - 14,2,,,,,,,,,,,,,,,,,,,,,,,,,,,,,,,,,,,,,,,,,,,,,,,,,,,,,,,,,,,,,,,,,,,
,,,,,,,,,5d45c90c810cac00191bc1e0,37,Kobieta,2022-06-04_08h33.59.169,task,2021.1.4,Win32,62.61348695,628b806c463b948bc644b84f,629afabe60645cfcfc657b09,,,,,,,,,,,,,,,,,,,,,,,,5,"[""5""]",1,[2.1351000000000795],"[5.548600000000079,3.1257000000000517,16.991100000000074,3.4163999999999533,2.1960999999998876,2.1351000000000795]",0,5,5,5,1,Practice,6,(4/2) + 3,5,,,,,,,,,,,,,,,,,,,,,,,,,,,,,,,,,,,,,,,,,,,,,,,,,,,,,,,,,,,,,,,,,,,
,,,,,,,,,5d45c90c810cac00191bc1e0,37,Kobieta,2022-06-04_08h33.59.169,task,2021.1.4,Win32,62.61348695,628b806c463b948bc644b84f,629afabe60645cfcfc657b09,,,,,,,,,,,,,,,,,,,,,,,,9,"[""9""]",1,[1.8858999999999924],"[5.548600000000079,3.1257000000000517,16.991100000000074,3.4163999999999533,2.1960999999998876,2.1351000000000795,1.8858999999999924]",0,6,6,9,1,Practice,10,(20/2) - 1,9,,,,,,,,,,,,,,,,,,,,,,,,,,,,,,,,,,,,,,,,,,,,,,,,,,,,,,,,,,,,,,,,,,,
,,,,,,,,,5d45c90c810cac00191bc1e0,37,Kobieta,2022-06-04_08h33.59.169,task,2021.1.4,Win32,62.61348695,628b806c463b948bc644b84f,629afabe60645cfcfc657b09,,,,,,,,,,,,,,,,,,,,,,,,8,"[""8""]",1,[1.7635000000000218],"[5.548600000000079,3.1257000000000517,16.991100000000074,3.4163999999999533,2.1960999999998876,2.1351000000000795,1.8858999999999924,1.7635000000000218]",0,7,7,8,1,Practice,9,(3x3) - 1,8,,,,,,,,,,,,,,,,,,,,,,,,,,,,,,,,,,,,,,,,,,,,,,,,,,,,,,,,,,,,,,,,,,,
,,,,,,,,,5d45c90c810cac00191bc1e0,37,Kobieta,2022-06-04_08h33.59.169,task,2021.1.4,Win32,62.61348695,628b806c463b948bc644b84f,629afabe60645cfcfc657b09,,,,,,,,,,,,,,,,,,,,,,,,3,"[""3""]",1,[2.359599999999773],"[5.548600000000079,3.1257000000000517,16.991100000000074,3.4163999999999533,2.1960999999998876,2.1351000000000795,1.8858999999999924,1.7635000000000218,2.359599999999773]",0,8,8,3,1,Practice,4,(8/4) + 1,3,,,,,,,,,,,,,,,,,,,,,,,,,,,,,,,,,,,,,,,,,,,,,,,,,,,,,,,,,,,,,,,,,,,
,,,,,,,,,5d45c90c810cac00191bc1e0,37,Kobieta,2022-06-04_08h33.59.169,task,2021.1.4,Win32,62.61348695,628b806c463b948bc644b84f,629afabe60645cfcfc657b09,,,,,,,,,,,,,,,,,,,,,,,,1,"[""1""]",1,[2.157000000000039],"[5.548600000000079,3.1257000000000517,16.991100000000074,3.4163999999999533,2.1960999999998876,2.1351000000000795,1.8858999999999924,1.7635000000000218,2.359599999999773,2.157000000000039]",0,9,9,1,1,Practice,2,(4x4) - 15,1,,,,,,,,,,,,,,,,,,,,,,,,,,,,,,,,,,,,,,,,,,,,,,,,,,,,,,,,,,,,,,,,,,,
,,,,,,,,,5d45c90c810cac00191bc1e0,37,Kobieta,2022-06-04_08h33.59.169,task,2021.1.4,Win32,62.61348695,628b806c463b948bc644b84f,629afabe60645cfcfc657b09,,,,,,,,,,,,,,,,,,,,,,,,,,,,,,,,,,,,,,1,41.579,2.771933333,213.522362,3.772906589,12.50603233,space,1.6946,0,0,0,0,1,,,,,,,,,,,,,,,,,,,,,,,,,,,,,,,,,,,,,,,,,,,,,,,,,,,,,,
,,,,,,,,,5d45c90c810cac00191bc1e0,37,Kobieta,2022-06-04_08h33.59.169,task,2021.1.4,Win32,62.61348695,628b806c463b948bc644b84f,629afabe60645cfcfc657b09,,,,,,,,,,,,,,,,,,,,,,,,6,,,,,,,,,,Practice,7,(25/5) + 1,6,,,,,,,,,,,,,,space,17.7112,"[""6""]",1,[3.4069999999999254],1,0,0,0,6,1,,,,,,,,,,,,,,,,,,,,,,,,,,,,,,,,,,,,,,,,,,,
,,,,,,,,,5d45c90c810cac00191bc1e0,37,Kobieta,2022-06-04_08h33.59.169,task,2021.1.4,Win32,62.61348695,628b806c463b948bc644b84f,629afabe60645cfcfc657b09,,,,,,,,,,,X V Q F H G B L J M P D K C T S W R N Z,,,,,,,,,,,,,,,,,,,,,,,,,,,,,,,,,,,,,,,,,,,,,,,,,,,0,0,0,0,1,,,,,,,,,,,,,,,,,,,,,,,,,,,,,,,,,,,,,,
,,,,,,,,,5d45c90c810cac00191bc1e0,37,Kobieta,2022-06-04_08h33.59.169,task,2021.1.4,Win32,62.61348695,628b806c463b948bc644b84f,629afabe60645cfcfc657b09,,,,,,,,,,,,,,,,,,,,,,,,0,,,,,,,,,,Practice,1,(3x3) -  9,0,,,,,,,,,,,,,,,,"[""0""]",1,[4.994699999999966],1,0,0,0,0,1,,,,,,,,,,,,,,,,,,,,,,,,,,,,,,,,,,,,,,,,,,,
,,,,,,,,,5d45c90c810cac00191bc1e0,37,Kobieta,2022-06-04_08h33.59.169,task,2021.1.4,Win32,62.61348695,628b806c463b948bc644b84f,629afabe60645cfcfc657b09,,,,,,,,,,,X V Q F H G B L J M P D K C T S W R N Z,,,,,,,,,,,,,,,,,,,,,,,,,,,,,,,,,,,,,,,,,,,,,,,,,,,1,0,1,0,1,,,,,,,,,,,,,,,,,,,,,,,,,,,,,,,,,,,,,,
,,,,,,,,,5d45c90c810cac00191bc1e0,37,Kobieta,2022-06-04_08h33.59.169,task,2021.1.4,Win32,62.61348695,628b806c463b948bc644b84f,629afabe60645cfcfc657b09,,,,,,,,,,,,,,,,,,,,,,,,,,,,,,,,,,,,,,,,,,,,,,,,,,,,,,,,,,,,,,,,,,,zw,"[""z"",""w""]",0,"[2.462600000000066,3.0049999999999955,3.9849000000001524]",1,0,0,0,0,1,,,,,,,,,,,,,,,,,,,,,,,,,,,,
,,,,,,,,,5d45c90c810cac00191bc1e0,37,Kobieta,2022-06-04_08h33.59.169,task,2021.1.4,Win32,62.61348695,628b806c463b948bc644b84f,629afabe60645cfcfc657b09,,,,,,,,,,,,,,,,,,,,,,,,0,,,,,,,,,,Practice,1,(3x3) -  9,0,,,,,,,,,,,,,,,,"[""0""]",1,[2.487399999999866],1,0,0,0,0,1,,,,,,,,,,,,,,,,,,,,,,,,,,,,,,,,,,,,,,,,,,,
,,,,,,,,,5d45c90c810cac00191bc1e0,37,Kobieta,2022-06-04_08h33.59.169,task,2021.1.4,Win32,62.61348695,628b806c463b948bc644b84f,629afabe60645cfcfc657b09,,,,,,,,,,,X V Q F H G B L J M P D K C T S W R N Z,,,,,,,,,,,,,,,,,,,,,,,,,,,,,,,,,,,,,,,,,,,,,,,,,,,0,0,0,0,1,,,,,,,,,,,,,,,,,,,,,,,,,,,,,,,,,,,,,,
,,,,,,,,,5d45c90c810cac00191bc1e0,37,Kobieta,2022-06-04_08h33.59.169,task,2021.1.4,Win32,62.61348695,628b806c463b948bc644b84f,629afabe60645cfcfc657b09,,,,,,,,,,,,,,,,,,,,,,,,0,,,,,,,,,,Practice,1,(3x3) -  9,0,,,,,,,,,,,,,,,,"[""0""]",1,[2.605299999999829],1,0,0,0,0,1,,,,,,,,,,,,,,,,,,,,,,,,,,,,,,,,,,,,,,,,,,,
,,,,,,,,,5d45c90c810cac00191bc1e0,37,Kobieta,2022-06-04_08h33.59.169,task,2021.1.4,Win32,62.61348695,628b806c463b948bc644b84f,629afabe60645cfcfc657b09,,,,,,,,,,,X V Q F H G B L J M P D K C T S W R N Z,,,,,,,,,,,,,,,,,,,,,,,,,,,,,,,,,,,,,,,,,,,,,,,,,,,1,0,1,0,1,,,,,,,,,,,,,,,,,,,,,,,,,,,,,,,,,,,,,,
,,,,,,,,,5d45c90c810cac00191bc1e0,37,Kobieta,2022-06-04_08h33.59.169,task,2021.1.4,Win32,62.61348695,628b806c463b948bc644b84f,629afabe60645cfcfc657b09,,,,,,,,,,,,,,,,,,,,,,,,,,,,,,,,,,,,,,,,,,,,,,,,,,,,,,,,,,,,,,,,,,,mw,"[""m"",""w""]",0,"[1.9162000000000035,2.3661999999999352,3.3833000000000766]",1,1,0,1,0,1,,,,,,,,,,,,,,,,,,,,,,,,,,,,
,,,,,,,,,5d45c90c810cac00191bc1e0,37,Kobieta,2022-06-04_08h33.59.169,task,2021.1.4,Win32,62.61348695,628b806c463b948bc644b84f,629afabe60645cfcfc657b09,,,,,,,,,,,,,,,,,,,,,,,,5,,,,,,,,,,Practice,6,(4/2) + 3,5,,,,,,,,,,,,,,,,"[""5""]",1,[2.405099999999834],1,0,0,0,5,1,,,,,,,,,,,,,,,,,,,,,,,,,,,,,,,,,,,,,,,,,,,
,,,,,,,,,5d45c90c810cac00191bc1e0,37,Kobieta,2022-06-04_08h33.59.169,task,2021.1.4,Win32,62.61348695,628b806c463b948bc644b84f,629afabe60645cfcfc657b09,,,,,,,,,,,X V Q F H G B L J M P D K C T S W R N Z,,,,,,,,,,,,,,,,,,,,,,,,,,,,,,,,,,,,,,,,,,,,,,,,,,,0,0,0,0,1,,,,,,,,,,,,,,,,,,,,,,,,,,,,,,,,,,,,,,
,,,,,,,,,5d45c90c810cac00191bc1e0,37,Kobieta,2022-06-04_08h33.59.169,task,2021.1.4,Win32,62.61348695,628b806c463b948bc644b84f,629afabe60645cfcfc657b09,,,,,,,,,,,,,,,,,,,,,,,,7,,,,,,,,,,Practice,8,(5x5) - 18,7,,,,,,,,,,,,,,,,"[""7""]",1,[2.7562000000000353],1,0,0,0,7,1,,,,,,,,,,,,,,,,,,,,,,,,,,,,,,,,,,,,,,,,,,,
,,,,,,,,,5d45c90c810cac00191bc1e0,37,Kobieta,2022-06-04_08h33.59.169,task,2021.1.4,Win32,62.61348695,628b806c463b948bc644b84f,629afabe60645cfcfc657b09,,,,,,,,,,,X V Q F H G B L J M P D K C T S W R N Z,,,,,,,,,,,,,,,,,,,,,,,,,,,,,,,,,,,,,,,,,,,,,,,,,,,1,0,1,0,1,,,,,,,,,,,,,,,,,,,,,,,,,,,,,,,,,,,,,,
,,,,,,,,,5d45c90c810cac00191bc1e0,37,Kobieta,2022-06-04_08h33.59.169,task,2021.1.4,Win32,62.61348695,628b806c463b948bc644b84f,629afabe60645cfcfc657b09,,,,,,,,,,,,,,,,,,,,,,,,,,,,,,,,,,,,,,,,,,,,,,,,,,,,,,,,,,,,,,,,,,,ms,"[""m"",""s""]",0,"[1.6050000000000182,2.105399999999918,2.7590000000000146]",1,2,0,2,0,1,,,,,,,,,,,,,,,,,,,,,,,,,,,,
,,,,,,,,,5d45c90c810cac00191bc1e0,37,Kobieta,2022-06-04_08h33.59.169,task,2021.1.4,Win32,62.61348695,628b806c463b948bc644b84f,629afabe60645cfcfc657b09,,,,,,,,,,,,,,,,,,,,,,,,7,,,,,,,,,,Task,23,(2x3) + 2,8,,,,,,,,,,,,,,,,,,,0,,,,,,,,,,,,,,,,,,,,,space,17.0844,"[""7""]",0,[2.780099999999834],0,0,0,22,1,,,,,,,,,,,,,,,,,,
,,,,,,,,,5d45c90c810cac00191bc1e0,37,Kobieta,2022-06-04_08h33.59.169,task,2021.1.4,Win32,62.61348695,628b806c463b948bc644b84f,629afabe60645cfcfc657b09,,,,,,,,,,,,,,,,,,,,,,,,7,,,,,,,,,,Task,6,(12/2) + 1,7,,,,,,,,,,,,,,,,,,,1,,,,,,,,,,,,,,,,,,,,,,,"[""7""]",1,[3.0409000000001924],0,1,1,5,1,,,,,,,,,,,,,,,,,,
,,,,,,,,,5d45c90c810cac00191bc1e0,37,Kobieta,2022-06-04_08h33.59.169,task,2021.1.4,Win32,62.61348695,628b806c463b948bc644b84f,629afabe60645cfcfc657b09,,,,,,,,,,,X V Q F H G B L J M P D K C T S W R N Z,,,,,,,,,,,,,,,,,,,,,,,,,,,,,,,,,,,,,,,,,,,,,,,,,,,,,,,,,,,,,,,,,,,,,,,,,,,,0,0,0,0,1,,,,,,,,,,,,,
,,,,,,,,,5d45c90c810cac00191bc1e0,37,Kobieta,2022-06-04_08h33.59.169,task,2021.1.4,Win32,62.61348695,628b806c463b948bc644b84f,629afabe60645cfcfc657b09,,,,,,,,,,,,,,,,,,,,,,,,5,,,,,,,,,,Task,37,(3/3) + 5,6,,,,,,,,,,,,,,,,,,,0,,,,,,,,,,,,,,,,,,,,,,,"[""5""]",0,[3.966199999999958],0,0,0,36,1,,,,,,,,,,,,,,,,,,
,,,,,,,,,5d45c90c810cac00191bc1e0,37,Kobieta,2022-06-04_08h33.59.169,task,2021.1.4,Win32,62.61348695,628b806c463b948bc644b84f,629afabe60645cfcfc657b09,,,,,,,,,,,,,,,,,,,,,,,,2,,,,,,,,,,Task,19,(6/2) - 1,2,,,,,,,,,,,,,,,,,,,1,,,,,,,,,,,,,,,,,,,,,,,"[""2""]",1,[6.004299999999944],0,1,1,18,1,,,,,,,,,,,,,,,,,,
,,,,,,,,,5d45c90c810cac00191bc1e0,37,Kobieta,2022-06-04_08h33.59.169,task,2021.1.4,Win32,62.61348695,628b806c463b948bc644b84f,629afabe60645cfcfc657b09,,,,,,,,,,,X V Q F H G B L J M P D K C T S W R N Z,,,,,,,,,,,,,,,,,,,,,,,,,,,,,,,,,,,,,,,,,,,,,,,,,,,,,,,,,,,,,,,,,,,,,,,,,,,,1,0,1,0,1,,,,,,,,,,,,,
,,,,,,,,,5d45c90c810cac00191bc1e0,37,Kobieta,2022-06-04_08h33.59.169,task,2021.1.4,Win32,62.61348695,628b806c463b948bc644b84f,629afabe60645cfcfc657b09,,,,,,,,,,,,,,,,,,,,,,,,,,,,,,,,,,,,,,,,,,,,,,,,,,,,,,,,,,,,,,,,,,,,,,,,,,,,,,,,,,,,,,,,,,,,zf,"[""z"",""f""]",0,"[1.4635000000000673,2.140800000000013,3.2525000000000546]",1,ZF,0,0,0,0,1,,
,,,,,,,,,5d45c90c810cac00191bc1e0,37,Kobieta,2022-06-04_08h33.59.169,task,2021.1.4,Win32,62.61348695,628b806c463b948bc644b84f,629afabe60645cfcfc657b09,,,,,,,,,,,,,,,,,,,,,,,,2,,,,,,,,,,Task,19,(6/2) - 1,2,,,,,,,,,,,,,,,,,,,1,,,,,,,,,,,,,,,,,,,,,,,"[""2""]",1,[2.375],0,0,0,18,1,,,,,,,,,,,,,,,,,,
,,,,,,,,,5d45c90c810cac00191bc1e0,37,Kobieta,2022-06-04_08h33.59.169,task,2021.1.4,Win32,62.61348695,628b806c463b948bc644b84f,629afabe60645cfcfc657b09,,,,,,,,,,,X V Q F H G B L J M P D K C T S W R N Z,,,,,,,,,,,,,,,,,,,,,,,,,,,,,,,,,,,,,,,,,,,,,,,,,,,,,,,,,,,,,,,,,,,,,,,,,,,,0,0,0,0,1,,,,,,,,,,,,,
,,,,,,,,,5d45c90c810cac00191bc1e0,37,Kobieta,2022-06-04_08h33.59.169,task,2021.1.4,Win32,62.61348695,628b806c463b948bc644b84f,629afabe60645cfcfc657b09,,,,,,,,,,,,,,,,,,,,,,,,1,,,,,,,,,,Task,18,(16/4) - 3,1,,,,,,,,,,,,,,,,,,,1,,,,,,,,,,,,,,,,,,,,,,,"[""1""]",1,[3.168199999999956],0,0,0,17,1,,,,,,,,,,,,,,,,,,
,,,,,,,,,5d45c90c810cac00191bc1e0,37,Kobieta,2022-06-04_08h33.59.169,task,2021.1.4,Win32,62.61348695,628b806c463b948bc644b84f,629afabe60645cfcfc657b09,,,,,,,,,,,X V Q F H G B L J M P D K C T S W R N Z,,,,,,,,,,,,,,,,,,,,,,,,,,,,,,,,,,,,,,,,,,,,,,,,,,,,,,,,,,,,,,,,,,,,,,,,,,,,1,0,1,0,1,,,,,,,,,,,,,
,,,,,,,,,5d45c90c810cac00191bc1e0,37,Kobieta,2022-06-04_08h33.59.169,task,2021.1.4,Win32,62.61348695,628b806c463b948bc644b84f,629afabe60645cfcfc657b09,,,,,,,,,,,,,,,,,,,,,,,,6,,,,,,,,,,Task,5,(2x3) + 0,6,,,,,,,,,,,,,,,,,,,1,,,,,,,,,,,,,,,,,,,,,,,"[""6""]",1,[5.51059999999984],0,0,0,4,1,,,,,,,,,,,,,,,,,,
,,,,,,,,,5d45c90c810cac00191bc1e0,37,Kobieta,2022-06-04_08h33.59.169,task,2021.1.4,Win32,62.61348695,628b806c463b948bc644b84f,629afabe60645cfcfc657b09,,,,,,,,,,,X V Q F H G B L J M P D K C T S W R N Z,,,,,,,,,,,,,,,,,,,,,,,,,,,,,,,,,,,,,,,,,,,,,,,,,,,,,,,,,,,,,,,,,,,,,,,,,,,,2,0,2,0,1,,,,,,,,,,,,,
,,,,,,,,,5d45c90c810cac00191bc1e0,37,Kobieta,2022-06-04_08h33.59.169,task,2021.1.4,Win32,62.61348695,628b806c463b948bc644b84f,629afabe60645cfcfc657b09,,,,,,,,,,,,,,,,,,,,,,,,,,,,,,,,,,,,,,,,,,,,,,,,,,,,,,,,,,,,,,,,,,,,,,,,,,,,,,,,,,,,,,,,,,,,hkv,"[""h"",""k"",""v""]",0,"[2.297599999999875,3.2838999999999032,3.7883000000000493,4.716499999999996]",1,HKV,1,0,1,0,1,,
,,,,,,,,,5d45c90c810cac00191bc1e0,37,Kobieta,2022-06-04_08h33.59.169,task,2021.1.4,Win32,62.61348695,628b806c463b948bc644b84f,629afabe60645cfcfc657b09,,,,,,,,,,,,,,,,,,,,,,,,8,,,,,,,,,,Task,23,(2x3) + 2,8,,,,,,,,,,,,,,,,,,,1,,,,,,,,,,,,,,,,,,,,,,,"[""8""]",1,[2.5945999999999003],0,0,0,22,1,,,,,,,,,,,,,,,,,,
,,,,,,,,,5d45c90c810cac00191bc1e0,37,Kobieta,2022-06-04_08h33.59.169,task,2021.1.4,Win32,62.61348695,628b806c463b948bc644b84f,629afabe60645cfcfc657b09,,,,,,,,,,,X V Q F H G B L J M P D K C T S W R N Z,,,,,,,,,,,,,,,,,,,,,,,,,,,,,,,,,,,,,,,,,,,,,,,,,,,,,,,,,,,,,,,,,,,,,,,,,,,,0,0,0,0,1,,,,,,,,,,,,,
,,,,,,,,,5d45c90c810cac00191bc1e0,37,Kobieta,2022-06-04_08h33.59.169,task,2021.1.4,Win32,62.61348695,628b806c463b948bc644b84f,629afabe60645cfcfc657b09,,,,,,,,,,,,,,,,,,,,,,,,3,,,,,,,,,,Task,20,(18/9) + 1,3,,,,,,,,,,,,,,,,,,,1,,,,,,,,,,,,,,,,,,,,,,,"[""3""]",1,[4.4502999999998565],0,0,0,19,1,,,,,,,,,,,,,,,,,,
,,,,,,,,,5d45c90c810cac00191bc1e0,37,Kobieta,2022-06-04_08h33.59.169,task,2021.1.4,Win32,62.61348695,628b806c463b948bc644b84f,629afabe60645cfcfc657b09,,,,,,,,,,,X V Q F H G B L J M P D K C T S W R N Z,,,,,,,,,,,,,,,,,,,,,,,,,,,,,,,,,,,,,,,,,,,,,,,,,,,,,,,,,,,,,,,,,,,,,,,,,,,,1,0,1,0,1,,,,,,,,,,,,,
,,,,,,,,,5d45c90c810cac00191bc1e0,37,Kobieta,2022-06-04_08h33.59.169,task,2021.1.4,Win32,62.61348695,628b806c463b948bc644b84f,629afabe60645cfcfc657b09,,,,,,,,,,,,,,,,,,,,,,,,1,,,,,,,,,,Task,34,(9/3) - 2,1,,,,,,,,,,,,,,,,,,,1,,,,,,,,,,,,,,,,,,,,,,,"[""1""]",1,[3.796000000000049],0,0,0,33,1,,,,,,,,,,,,,,,,,,
,,,,,,,,,5d45c90c810cac00191bc1e0,37,Kobieta,2022-06-04_08h33.59.169,task,2021.1.4,Win32,62.61348695,628b806c463b948bc644b84f,629afabe60645cfcfc657b09,,,,,,,,,,,X V Q F H G B L J M P D K C T S W R N Z,,,,,,,,,,,,,,,,,,,,,,,,,,,,,,,,,,,,,,,,,,,,,,,,,,,,,,,,,,,,,,,,,,,,,,,,,,,,2,0,2,0,1,,,,,,,,,,,,,
,,,,,,,,,5d45c90c810cac00191bc1e0,37,Kobieta,2022-06-04_08h33.59.169,task,2021.1.4,Win32,62.61348695,628b806c463b948bc644b84f,629afabe60645cfcfc657b09,,,,,,,,,,,,,,,,,,,,,,,,0,,,,,,,,,,Task,25,(10/5) - 2,0,,,,,,,,,,,,,,,,,,,1,,,,,,,,,,,,,,,,,,,,,,,"[""0""]",1,[2.523399999999924],0,0,0,24,1,,,,,,,,,,,,,,,,,,
,,,,,,,,,5d45c90c810cac00191bc1e0,37,Kobieta,2022-06-04_08h33.59.169,task,2021.1.4,Win32,62.61348695,628b806c463b948bc644b84f,629afabe60645cfcfc657b09,,,,,,,,,,,X V Q F H G B L J M P D K C T S W R N Z,,,,,,,,,,,,,,,,,,,,,,,,,,,,,,,,,,,,,,,,,,,,,,,,,,,,,,,,,,,,,,,,,,,,,,,,,,,,3,0,3,0,1,,,,,,,,,,,,,
,,,,,,,,,5d45c90c810cac00191bc1e0,37,Kobieta,2022-06-04_08h33.59.169,task,2021.1.4,Win32,62.61348695,628b806c463b948bc644b84f,629afabe60645cfcfc657b09,,,,,,,,,,,,,,,,,,,,,,,,,,,,,,,,,,,,,,,,,,,,,,,,,,,,,,,,,,,,,,,,,,,,,,,,,,,,,,,,,,,,,,,,,,,,qkqr,"[""q"",""k"",""q"",""r""]",0,"[2.528099999999881,4.423800000000028,5.253099999999904,7.032699999999977,7.937599999999861]",1,QKQR,2,0,2,0,1,,
,,,,,,,,,5d45c90c810cac00191bc1e0,37,Kobieta,2022-06-04_08h33.59.169,task,2021.1.4,Win32,62.61348695,628b806c463b948bc644b84f,629afabe60645cfcfc657b09,,,,,,,,,,,,,,,,,,,,,,,,0,,,,,,,,,,Task,25,(10/5) - 2,0,,,,,,,,,,,,,,,,,,,1,,,,,,,,,,,,,,,,,,,,,,,"[""0""]",1,[2.1130000000000564],0,0,0,24,1,,,,,,,,,,,,,,,,,,
,,,,,,,,,5d45c90c810cac00191bc1e0,37,Kobieta,2022-06-04_08h33.59.169,task,2021.1.4,Win32,62.61348695,628b806c463b948bc644b84f,629afabe60645cfcfc657b09,,,,,,,,,,,X V Q F H G B L J M P D K C T S W R N Z,,,,,,,,,,,,,,,,,,,,,,,,,,,,,,,,,,,,,,,,,,,,,,,,,,,,,,,,,,,,,,,,,,,,,,,,,,,,0,0,0,0,1,,,,,,,,,,,,,
,,,,,,,,,5d45c90c810cac00191bc1e0,37,Kobieta,2022-06-04_08h33.59.169,task,2021.1.4,Win32,62.61348695,628b806c463b948bc644b84f,629afabe60645cfcfc657b09,,,,,,,,,,,,,,,,,,,,,,,,9,,,,,,,,,,Task,24,(2x2) + 5,9,,,,,,,,,,,,,,,,,,,1,,,,,,,,,,,,,,,,,,,,,,,"[""9""]",1,[3.302400000000148],0,0,0,23,1,,,,,,,,,,,,,,,,,,
,,,,,,,,,5d45c90c810cac00191bc1e0,37,Kobieta,2022-06-04_08h33.59.169,task,2021.1.4,Win32,62.61348695,628b806c463b948bc644b84f,629afabe60645cfcfc657b09,,,,,,,,,,,X V Q F H G B L J M P D K C T S W R N Z,,,,,,,,,,,,,,,,,,,,,,,,,,,,,,,,,,,,,,,,,,,,,,,,,,,,,,,,,,,,,,,,,,,,,,,,,,,,1,0,1,0,1,,,,,,,,,,,,,
,,,,,,,,,5d45c90c810cac00191bc1e0,37,Kobieta,2022-06-04_08h33.59.169,task,2021.1.4,Win32,62.61348695,628b806c463b948bc644b84f,629afabe60645cfcfc657b09,,,,,,,,,,,,,,,,,,,,,,,,6,,,,,,,,,,Task,30,(6/3) + 4 ,6,,,,,,,,,,,,,,,,,,,1,,,,,,,,,,,,,,,,,,,,,,,"[""6""]",1,[3.5406999999999016],0,0,0,29,1,,,,,,,,,,,,,,,,,,
,,,,,,,,,5d45c90c810cac00191bc1e0,37,Kobieta,2022-06-04_08h33.59.169,task,2021.1.4,Win32,62.61348695,628b806c463b948bc644b84f,629afabe60645cfcfc657b09,,,,,,,,,,,X V Q F H G B L J M P D K C T S W R N Z,,,,,,,,,,,,,,,,,,,,,,,,,,,,,,,,,,,,,,,,,,,,,,,,,,,,,,,,,,,,,,,,,,,,,,,,,,,,2,0,2,0,1,,,,,,,,,,,,,
,,,,,,,,,5d45c90c810cac00191bc1e0,37,Kobieta,2022-06-04_08h33.59.169,task,2021.1.4,Win32,62.61348695,628b806c463b948bc644b84f,629afabe60645cfcfc657b09,,,,,,,,,,,,,,,,,,,,,,,,9,,,,,,,,,,Task,16,(3x8) - 15,9,,,,,,,,,,,,,,,,,,,1,,,,,,,,,,,,,,,,,,,,,,,"[""9""]",1,[7.54830000000004],0,0,0,15,1,,,,,,,,,,,,,,,,,,
,,,,,,,,,5d45c90c810cac00191bc1e0,37,Kobieta,2022-06-04_08h33.59.169,task,2021.1.4,Win32,62.61348695,628b806c463b948bc644b84f,629afabe60645cfcfc657b09,,,,,,,,,,,X V Q F H G B L J M P D K C T S W R N Z,,,,,,,,,,,,,,,,,,,,,,,,,,,,,,,,,,,,,,,,,,,,,,,,,,,,,,,,,,,,,,,,,,,,,,,,,,,,3,0,3,0,1,,,,,,,,,,,,,
,,,,,,,,,5d45c90c810cac00191bc1e0,37,Kobieta,2022-06-04_08h33.59.169,task,2021.1.4,Win32,62.61348695,628b806c463b948bc644b84f,629afabe60645cfcfc657b09,,,,,,,,,,,,,,,,,,,,,,,,7,,,,,,,,,,Task,38,(4x6) - 17,7,,,,,,,,,,,,,,,,,,,1,,,,,,,,,,,,,,,,,,,,,,,"[""7""]",1,[7.34030000000007],0,0,0,37,1,,,,,,,,,,,,,,,,,,
,,,,,,,,,5d45c90c810cac00191bc1e0,37,Kobieta,2022-06-04_08h33.59.169,task,2021.1.4,Win32,62.61348695,628b806c463b948bc644b84f,629afabe60645cfcfc657b09,,,,,,,,,,,X V Q F H G B L J M P D K C T S W R N Z,,,,,,,,,,,,,,,,,,,,,,,,,,,,,,,,,,,,,,,,,,,,,,,,,,,,,,,,,,,,,,,,,,,,,,,,,,,,4,0,4,0,1,,,,,,,,,,,,,
,,,,,,,,,5d45c90c810cac00191bc1e0,37,Kobieta,2022-06-04_08h33.59.169,task,2021.1.4,Win32,62.61348695,628b806c463b948bc644b84f,629afabe60645cfcfc657b09,,,,,,,,,,,,,,,,,,,,,,,,,,,,,,,,,,,,,,,,,,,,,,,,,,,,,,,,,,,,,,,,,,,,,,,,,,,,,,,,,,,,,,,,,,,,jtknx,"[""j"",""t"",""k"",""n"",""x""]",0,"[1.7795999999998457,2.210399999999936,2.9075000000000273,3.270799999999781,3.7027999999997974,4.652599999999893]",1,JTKNX,3,0,3,0,1,,
,,,,,,,,,5d45c90c810cac00191bc1e0,37,Kobieta,2022-06-04_08h33.59.169,task,2021.1.4,Win32,62.61348695,628b806c463b948bc644b84f,629afabe60645cfcfc657b09,,,,,,,,,,,,,,,,,,,,,,,,6,,,,,,,,,,Task,13,(3x4) - 6,6,,,,,,,,,,,,,,,,,,,1,,,,,,,,,,,,,,,,,,,,,,,"[""6""]",1,[2.2651000000001886],0,0,0,12,1,,,,,,,,,,,,,,,,,,
,,,,,,,,,5d45c90c810cac00191bc1e0,37,Kobieta,2022-06-04_08h33.59.169,task,2021.1.4,Win32,62.61348695,628b806c463b948bc644b84f,629afabe60645cfcfc657b09,,,,,,,,,,,X V Q F H G B L J M P D K C T S W R N Z,,,,,,,,,,,,,,,,,,,,,,,,,,,,,,,,,,,,,,,,,,,,,,,,,,,,,,,,,,,,,,,,,,,,,,,,,,,,0,0,0,0,1,,,,,,,,,,,,,
,,,,,,,,,5d45c90c810cac00191bc1e0,37,Kobieta,2022-06-04_08h33.59.169,task,2021.1.4,Win32,62.61348695,628b806c463b948bc644b84f,629afabe60645cfcfc657b09,,,,,,,,,,,,,,,,,,,,,,,,5,,,,,,,,,,Task,36,(8/4) + 3,5,,,,,,,,,,,,,,,,,,,1,,,,,,,,,,,,,,,,,,,,,,,"[""5""]",1,[2.4903000000000475],0,0,0,35,1,,,,,,,,,,,,,,,,,,
,,,,,,,,,5d45c90c810cac00191bc1e0,37,Kobieta,2022-06-04_08h33.59.169,task,2021.1.4,Win32,62.61348695,628b806c463b948bc644b84f,629afabe60645cfcfc657b09,,,,,,,,,,,X V Q F H G B L J M P D K C T S W R N Z,,,,,,,,,,,,,,,,,,,,,,,,,,,,,,,,,,,,,,,,,,,,,,,,,,,,,,,,,,,,,,,,,,,,,,,,,,,,1,0,1,0,1,,,,,,,,,,,,,
,,,,,,,,,5d45c90c810cac00191bc1e0,37,Kobieta,2022-06-04_08h33.59.169,task,2021.1.4,Win32,62.61348695,628b806c463b948bc644b84f,629afabe60645cfcfc657b09,,,,,,,,,,,,,,,,,,,,,,,,0,,,,,,,,,,Task,8,(1x5) - 5,0,,,,,,,,,,,,,,,,,,,1,,,,,,,,,,,,,,,,,,,,,,,"[""0""]",1,[2.29219999999998],0,0,0,7,1,,,,,,,,,,,,,,,,,,
,,,,,,,,,5d45c90c810cac00191bc1e0,37,Kobieta,2022-06-04_08h33.59.169,task,2021.1.4,Win32,62.61348695,628b806c463b948bc644b84f,629afabe60645cfcfc657b09,,,,,,,,,,,X V Q F H G B L J M P D K C T S W R N Z,,,,,,,,,,,,,,,,,,,,,,,,,,,,,,,,,,,,,,,,,,,,,,,,,,,,,,,,,,,,,,,,,,,,,,,,,,,,2,0,2,0,1,,,,,,,,,,,,,
,,,,,,,,,5d45c90c810cac00191bc1e0,37,Kobieta,2022-06-04_08h33.59.169,task,2021.1.4,Win32,62.61348695,628b806c463b948bc644b84f,629afabe60645cfcfc657b09,,,,,,,,,,,,,,,,,,,,,,,,4,,,,,,,,,,Task,21,(10/2) - 1,4,,,,,,,,,,,,,,,,,,,1,,,,,,,,,,,,,,,,,,,,,,,"[""4""]",1,[2.5679000000001224],0,0,0,20,1,,,,,,,,,,,,,,,,,,
,,,,,,,,,5d45c90c810cac00191bc1e0,37,Kobieta,2022-06-04_08h33.59.169,task,2021.1.4,Win32,62.61348695,628b806c463b948bc644b84f,629afabe60645cfcfc657b09,,,,,,,,,,,X V Q F H G B L J M P D K C T S W R N Z,,,,,,,,,,,,,,,,,,,,,,,,,,,,,,,,,,,,,,,,,,,,,,,,,,,,,,,,,,,,,,,,,,,,,,,,,,,,3,0,3,0,1,,,,,,,,,,,,,
,,,,,,,,,5d45c90c810cac00191bc1e0,37,Kobieta,2022-06-04_08h33.59.169,task,2021.1.4,Win32,62.61348695,628b806c463b948bc644b84f,629afabe60645cfcfc657b09,,,,,,,,,,,,,,,,,,,,,,,,3,,,,,,,,,,Task,35,(1x2) + 1,3,,,,,,,,,,,,,,,,,,,1,,,,,,,,,,,,,,,,,,,,,,,"[""3""]",1,[2.668399999999906],0,0,0,34,1,,,,,,,,,,,,,,,,,,
,,,,,,,,,5d45c90c810cac00191bc1e0,37,Kobieta,2022-06-04_08h33.59.169,task,2021.1.4,Win32,62.61348695,628b806c463b948bc644b84f,629afabe60645cfcfc657b09,,,,,,,,,,,X V Q F H G B L J M P D K C T S W R N Z,,,,,,,,,,,,,,,,,,,,,,,,,,,,,,,,,,,,,,,,,,,,,,,,,,,,,,,,,,,,,,,,,,,,,,,,,,,,4,0,4,0,1,,,,,,,,,,,,,
,,,,,,,,,5d45c90c810cac00191bc1e0,37,Kobieta,2022-06-04_08h33.59.169,task,2021.1.4,Win32,62.61348695,628b806c463b948bc644b84f,629afabe60645cfcfc657b09,,,,,,,,,,,,,,,,,,,,,,,,8,,,,,,,,,,Task,15,(3x7) - 13,8,,,,,,,,,,,,,,,,,,,1,,,,,,,,,,,,,,,,,,,,,,,"[""8""]",1,[6.300200000000132],0,0,0,14,1,,,,,,,,,,,,,,,,,,
,,,,,,,,,5d45c90c810cac00191bc1e0,37,Kobieta,2022-06-04_08h33.59.169,task,2021.1.4,Win32,62.61348695,628b806c463b948bc644b84f,629afabe60645cfcfc657b09,,,,,,,,,,,X V Q F H G B L J M P D K C T S W R N Z,,,,,,,,,,,,,,,,,,,,,,,,,,,,,,,,,,,,,,,,,,,,,,,,,,,,,,,,,,,,,,,,,,,,,,,,,,,,5,0,5,0,1,,,,,,,,,,,,,
,,,,,,,,,5d45c90c810cac00191bc1e0,37,Kobieta,2022-06-04_08h33.59.169,task,2021.1.4,Win32,62.61348695,628b806c463b948bc644b84f,629afabe60645cfcfc657b09,,,,,,,,,,,,,,,,,,,,,,,,,,,,,,,,,,,,,,,,,,,,,,,,,,,,,,,,,,,,,,,,,,,,,,,,,,,,,,,,,,,,,,,,,,,,thkmwq,"[""t"",""h"",""k"",""m"",""w"",""q""]",0,"[1.509599999999864,2.106800000000021,2.873399999999833,3.3233000000000175,3.894300000000044,4.719299999999976,6.741399999999885]",1,THKMWQ,4,0,4,0,1,,
,,,,,,,,,5d45c90c810cac00191bc1e0,37,Kobieta,2022-06-04_08h33.59.169,task,2021.1.4,Win32,62.61348695,628b806c463b948bc644b84f,629afabe60645cfcfc657b09,,,,,,,,,,,,,,,,,,,,,,,,4,,,,,,,,,,Task,21,(10/2) - 1,4,,,,,,,,,,,,,,,,,,,1,,,,,,,,,,,,,,,,,,,,,,,"[""4""]",1,[4.041399999999953],0,0,0,20,1,,,,,,,,,,,,,,,,,,
,,,,,,,,,5d45c90c810cac00191bc1e0,37,Kobieta,2022-06-04_08h33.59.169,task,2021.1.4,Win32,62.61348695,628b806c463b948bc644b84f,629afabe60645cfcfc657b09,,,,,,,,,,,X V Q F H G B L J M P D K C T S W R N Z,,,,,,,,,,,,,,,,,,,,,,,,,,,,,,,,,,,,,,,,,,,,,,,,,,,,,,,,,,,,,,,,,,,,,,,,,,,,0,0,0,0,1,,,,,,,,,,,,,
,,,,,,,,,5d45c90c810cac00191bc1e0,37,Kobieta,2022-06-04_08h33.59.169,task,2021.1.4,Win32,62.61348695,628b806c463b948bc644b84f,629afabe60645cfcfc657b09,,,,,,,,,,,,,,,,,,,,,,,,9,,,,,,,,,,Task,24,(2x2) + 5,9,,,,,,,,,,,,,,,,,,,1,,,,,,,,,,,,,,,,,,,,,,,"[""9""]",1,[2.7566000000000486],0,0,0,23,1,,,,,,,,,,,,,,,,,,
,,,,,,,,,5d45c90c810cac00191bc1e0,37,Kobieta,2022-06-04_08h33.59.169,task,2021.1.4,Win32,62.61348695,628b806c463b948bc644b84f,629afabe60645cfcfc657b09,,,,,,,,,,,X V Q F H G B L J M P D K C T S W R N Z,,,,,,,,,,,,,,,,,,,,,,,,,,,,,,,,,,,,,,,,,,,,,,,,,,,,,,,,,,,,,,,,,,,,,,,,,,,,1,0,1,0,1,,,,,,,,,,,,,
