key_resp_15.keys,key_resp_15.rt,key_resp_13.keys,key_resp_13.corr,key_resp_13.rt,ranodm_loop.thisRepN,ranodm_loop.thisTrialN,ranodm_loop.thisN,ranodm_loop.thisIndex,ranodm_loop.ran,participant,Wiek*,Płeć,date,expName,psychopyVersion,OS,frameRate,study_id,session,key_resp_16.keys,key_resp_16.rt,key_resp_4.keys,key_resp_4.rt,next_letter.thisRepN,next_letter.thisTrialN,next_letter.thisN,next_letter.thisIndex,next_letter.ran,letter,simple_recall,key_resp_5.keys,key_resp_5.rt,simple_recall_corr,simple_recall_corrkeys,next_level.thisRepN,next_level.thisTrialN,next_level.thisN,next_level.thisIndex,next_level.ran,key_resp_2.keys,key_resp_2.rt,digit_answer,key_resp.keys,key_resp.corr,key_resp.rt,RT_list,next_equation.thisRepN,next_equation.thisTrialN,next_equation.thisN,next_equation.thisIndex,next_equation.ran,Task,Trial,Problem,Operation_answer,processing_score,sumRT,meanRT,sumdiff,sd,RT,key_resp_3.keys,key_resp_3.rt,repeat_practice.thisRepN,repeat_practice.thisTrialN,repeat_practice.thisN,repeat_practice.thisIndex,repeat_practice.ran,key_resp_6.keys,key_resp_6.rt,key_resp_11.keys,key_resp_11.corr,key_resp_11.rt,operation_correct,repeat_if_wrong_prac.thisRepN,repeat_if_wrong_prac.thisTrialN,repeat_if_wrong_prac.thisN,repeat_if_wrong_prac.thisIndex,repeat_if_wrong_prac.ran,span_size_prac.thisRepN,span_size_prac.thisTrialN,span_size_prac.thisN,span_size_prac.thisIndex,span_size_prac.ran,complex_recall_practice,key_resp_9.keys,key_resp_9.corr,key_resp_9.rt,complex_prac_corr,span_recall_prac.thisRepN,span_recall_prac.thisTrialN,span_recall_prac.thisN,span_recall_prac.thisIndex,span_recall_prac.ran,key_resp_10.keys,key_resp_10.rt,key_resp_7.keys,key_resp_7.corr,key_resp_7.rt,repeat_if_wrong.thisRepN,repeat_if_wrong.thisTrialN,repeat_if_wrong.thisN,repeat_if_wrong.thisIndex,repeat_if_wrong.ran,span_size.thisRepN,span_size.thisTrialN,span_size.thisN,span_size.thisIndex,span_size.ran,complex_recall,key_resp_8.keys,key_resp_8.corr,key_resp_8.rt,complex_recall_corr,complex_recall_corrkeys,span_recall.thisRepN,span_recall.thisTrialN,span_recall.thisN,span_recall.thisIndex,span_recall.ran,key_resp_12.keys,key_resp_12.rt
space,10.084,"[""comma""]",0,[0.838000000000001],0,0,0,0,1,5d459d56cb2c450019293bd0,32,Kobieta,2022-05-28_09h14.03.215,task,2021.1.4,Win32,60.24096386,628b806c463b948bc644b84f,6291cbae9c35f59eb5bf6a62,,,,,,,,,,,,,,,,,,,,,,,,,,,,,,,,,,,,,,,,,,,,,,,,,,,,,,,,,,,,,,,,,,,,,,,,,,,,,,,,,,,,,,,,,,,,,,,,,,,,,,,
,,"[""comma""]",0,[0.8900000000000006],1,0,1,0,1,5d459d56cb2c450019293bd0,32,Kobieta,2022-05-28_09h14.03.215,task,2021.1.4,Win32,60.24096386,628b806c463b948bc644b84f,6291cbae9c35f59eb5bf6a62,,,,,,,,,,,,,,,,,,,,,,,,,,,,,,,,,,,,,,,,,,,,,,,,,,,,,,,,,,,,,,,,,,,,,,,,,,,,,,,,,,,,,,,,,,,,,,,,,,,,,,,
,,"[""period""]",0,[0.3860000000000099],2,0,2,0,1,5d459d56cb2c450019293bd0,32,Kobieta,2022-05-28_09h14.03.215,task,2021.1.4,Win32,60.24096386,628b806c463b948bc644b84f,6291cbae9c35f59eb5bf6a62,,,,,,,,,,,,,,,,,,,,,,,,,,,,,,,,,,,,,,,,,,,,,,,,,,,,,,,,,,,,,,,,,,,,,,,,,,,,,,,,,,,,,,,,,,,,,,,,,,,,,,,
,,"[""comma""]",0,[0.28700000000000614],3,0,3,0,1,5d459d56cb2c450019293bd0,32,Kobieta,2022-05-28_09h14.03.215,task,2021.1.4,Win32,60.24096386,628b806c463b948bc644b84f,6291cbae9c35f59eb5bf6a62,,,,,,,,,,,,,,,,,,,,,,,,,,,,,,,,,,,,,,,,,,,,,,,,,,,,,,,,,,,,,,,,,,,,,,,,,,,,,,,,,,,,,,,,,,,,,,,,,,,,,,,
,,"[""period""]",0,[0.8319999999999936],4,0,4,0,1,5d459d56cb2c450019293bd0,32,Kobieta,2022-05-28_09h14.03.215,task,2021.1.4,Win32,60.24096386,628b806c463b948bc644b84f,6291cbae9c35f59eb5bf6a62,,,,,,,,,,,,,,,,,,,,,,,,,,,,,,,,,,,,,,,,,,,,,,,,,,,,,,,,,,,,,,,,,,,,,,,,,,,,,,,,,,,,,,,,,,,,,,,,,,,,,,,
,,"[""comma""]",0,[0.3369999999999891],5,0,5,0,1,5d459d56cb2c450019293bd0,32,Kobieta,2022-05-28_09h14.03.215,task,2021.1.4,Win32,60.24096386,628b806c463b948bc644b84f,6291cbae9c35f59eb5bf6a62,,,,,,,,,,,,,,,,,,,,,,,,,,,,,,,,,,,,,,,,,,,,,,,,,,,,,,,,,,,,,,,,,,,,,,,,,,,,,,,,,,,,,,,,,,,,,,,,,,,,,,,
,,"[""period""]",0,[0.38700000000000045],6,0,6,0,1,5d459d56cb2c450019293bd0,32,Kobieta,2022-05-28_09h14.03.215,task,2021.1.4,Win32,60.24096386,628b806c463b948bc644b84f,6291cbae9c35f59eb5bf6a62,,,,,,,,,,,,,,,,,,,,,,,,,,,,,,,,,,,,,,,,,,,,,,,,,,,,,,,,,,,,,,,,,,,,,,,,,,,,,,,,,,,,,,,,,,,,,,,,,,,,,,,
,,"[""comma""]",0,[0.35300000000000864],7,0,7,0,1,5d459d56cb2c450019293bd0,32,Kobieta,2022-05-28_09h14.03.215,task,2021.1.4,Win32,60.24096386,628b806c463b948bc644b84f,6291cbae9c35f59eb5bf6a62,,,,,,,,,,,,,,,,,,,,,,,,,,,,,,,,,,,,,,,,,,,,,,,,,,,,,,,,,,,,,,,,,,,,,,,,,,,,,,,,,,,,,,,,,,,,,,,,,,,,,,,
,,"[""comma""]",0,[0.30400000000000205],8,0,8,0,1,5d459d56cb2c450019293bd0,32,Kobieta,2022-05-28_09h14.03.215,task,2021.1.4,Win32,60.24096386,628b806c463b948bc644b84f,6291cbae9c35f59eb5bf6a62,,,,,,,,,,,,,,,,,,,,,,,,,,,,,,,,,,,,,,,,,,,,,,,,,,,,,,,,,,,,,,,,,,,,,,,,,,,,,,,,,,,,,,,,,,,,,,,,,,,,,,,
,,"[""period""]",0,[0.36999999999999034],9,0,9,0,1,5d459d56cb2c450019293bd0,32,Kobieta,2022-05-28_09h14.03.215,task,2021.1.4,Win32,60.24096386,628b806c463b948bc644b84f,6291cbae9c35f59eb5bf6a62,,,,,,,,,,,,,,,,,,,,,,,,,,,,,,,,,,,,,,,,,,,,,,,,,,,,,,,,,,,,,,,,,,,,,,,,,,,,,,,,,,,,,,,,,,,,,,,,,,,,,,,
,,"[""comma""]",0,[0.35300000000000864],10,0,10,0,1,5d459d56cb2c450019293bd0,32,Kobieta,2022-05-28_09h14.03.215,task,2021.1.4,Win32,60.24096386,628b806c463b948bc644b84f,6291cbae9c35f59eb5bf6a62,,,,,,,,,,,,,,,,,,,,,,,,,,,,,,,,,,,,,,,,,,,,,,,,,,,,,,,,,,,,,,,,,,,,,,,,,,,,,,,,,,,,,,,,,,,,,,,,,,,,,,,
,,"[""comma""]",0,[0.27299999999999613],11,0,11,0,1,5d459d56cb2c450019293bd0,32,Kobieta,2022-05-28_09h14.03.215,task,2021.1.4,Win32,60.24096386,628b806c463b948bc644b84f,6291cbae9c35f59eb5bf6a62,,,,,,,,,,,,,,,,,,,,,,,,,,,,,,,,,,,,,,,,,,,,,,,,,,,,,,,,,,,,,,,,,,,,,,,,,,,,,,,,,,,,,,,,,,,,,,,,,,,,,,,
,,"[""period""]",0,[0.5379999999999967],12,0,12,0,1,5d459d56cb2c450019293bd0,32,Kobieta,2022-05-28_09h14.03.215,task,2021.1.4,Win32,60.24096386,628b806c463b948bc644b84f,6291cbae9c35f59eb5bf6a62,,,,,,,,,,,,,,,,,,,,,,,,,,,,,,,,,,,,,,,,,,,,,,,,,,,,,,,,,,,,,,,,,,,,,,,,,,,,,,,,,,,,,,,,,,,,,,,,,,,,,,,
,,"[""period""]",0,[0.35299999999999443],13,0,13,0,1,5d459d56cb2c450019293bd0,32,Kobieta,2022-05-28_09h14.03.215,task,2021.1.4,Win32,60.24096386,628b806c463b948bc644b84f,6291cbae9c35f59eb5bf6a62,,,,,,,,,,,,,,,,,,,,,,,,,,,,,,,,,,,,,,,,,,,,,,,,,,,,,,,,,,,,,,,,,,,,,,,,,,,,,,,,,,,,,,,,,,,,,,,,,,,,,,,
,,"[""comma""]",0,[0.3539999999999992],14,0,14,0,1,5d459d56cb2c450019293bd0,32,Kobieta,2022-05-28_09h14.03.215,task,2021.1.4,Win32,60.24096386,628b806c463b948bc644b84f,6291cbae9c35f59eb5bf6a62,,,,,,,,,,,,,,,,,,,,,,,,,,,,,,,,,,,,,,,,,,,,,,,,,,,,,,,,,,,,,,,,,,,,,,,,,,,,,,,,,,,,,,,,,,,,,,,,,,,,,,,
,,"[""period""]",0,[0.5859999999999985],15,0,15,0,1,5d459d56cb2c450019293bd0,32,Kobieta,2022-05-28_09h14.03.215,task,2021.1.4,Win32,60.24096386,628b806c463b948bc644b84f,6291cbae9c35f59eb5bf6a62,,,,,,,,,,,,,,,,,,,,,,,,,,,,,,,,,,,,,,,,,,,,,,,,,,,,,,,,,,,,,,,,,,,,,,,,,,,,,,,,,,,,,,,,,,,,,,,,,,,,,,,
,,"[""period""]",0,[0.32099999999999795],16,0,16,0,1,5d459d56cb2c450019293bd0,32,Kobieta,2022-05-28_09h14.03.215,task,2021.1.4,Win32,60.24096386,628b806c463b948bc644b84f,6291cbae9c35f59eb5bf6a62,,,,,,,,,,,,,,,,,,,,,,,,,,,,,,,,,,,,,,,,,,,,,,,,,,,,,,,,,,,,,,,,,,,,,,,,,,,,,,,,,,,,,,,,,,,,,,,,,,,,,,,
,,"[""period""]",0,[0.3219999999999885],17,0,17,0,1,5d459d56cb2c450019293bd0,32,Kobieta,2022-05-28_09h14.03.215,task,2021.1.4,Win32,60.24096386,628b806c463b948bc644b84f,6291cbae9c35f59eb5bf6a62,,,,,,,,,,,,,,,,,,,,,,,,,,,,,,,,,,,,,,,,,,,,,,,,,,,,,,,,,,,,,,,,,,,,,,,,,,,,,,,,,,,,,,,,,,,,,,,,,,,,,,,
,,"[""comma""]",0,[0.42200000000001125],18,0,18,0,1,5d459d56cb2c450019293bd0,32,Kobieta,2022-05-28_09h14.03.215,task,2021.1.4,Win32,60.24096386,628b806c463b948bc644b84f,6291cbae9c35f59eb5bf6a62,,,,,,,,,,,,,,,,,,,,,,,,,,,,,,,,,,,,,,,,,,,,,,,,,,,,,,,,,,,,,,,,,,,,,,,,,,,,,,,,,,,,,,,,,,,,,,,,,,,,,,,
,,"[""period""]",0,[0.42899999999998784],19,0,19,0,1,5d459d56cb2c450019293bd0,32,Kobieta,2022-05-28_09h14.03.215,task,2021.1.4,Win32,60.24096386,628b806c463b948bc644b84f,6291cbae9c35f59eb5bf6a62,,,,,,,,,,,,,,,,,,,,,,,,,,,,,,,,,,,,,,,,,,,,,,,,,,,,,,,,,,,,,,,,,,,,,,,,,,,,,,,,,,,,,,,,,,,,,,,,,,,,,,,
,,"[""comma""]",0,[0.37000000000000455],20,0,20,0,1,5d459d56cb2c450019293bd0,32,Kobieta,2022-05-28_09h14.03.215,task,2021.1.4,Win32,60.24096386,628b806c463b948bc644b84f,6291cbae9c35f59eb5bf6a62,,,,,,,,,,,,,,,,,,,,,,,,,,,,,,,,,,,,,,,,,,,,,,,,,,,,,,,,,,,,,,,,,,,,,,,,,,,,,,,,,,,,,,,,,,,,,,,,,,,,,,,
,,"[""comma""]",0,[0.27200000000000557],21,0,21,0,1,5d459d56cb2c450019293bd0,32,Kobieta,2022-05-28_09h14.03.215,task,2021.1.4,Win32,60.24096386,628b806c463b948bc644b84f,6291cbae9c35f59eb5bf6a62,,,,,,,,,,,,,,,,,,,,,,,,,,,,,,,,,,,,,,,,,,,,,,,,,,,,,,,,,,,,,,,,,,,,,,,,,,,,,,,,,,,,,,,,,,,,,,,,,,,,,,,
,,"[""comma""]",0,[0.7720000000000056],22,0,22,0,1,5d459d56cb2c450019293bd0,32,Kobieta,2022-05-28_09h14.03.215,task,2021.1.4,Win32,60.24096386,628b806c463b948bc644b84f,6291cbae9c35f59eb5bf6a62,,,,,,,,,,,,,,,,,,,,,,,,,,,,,,,,,,,,,,,,,,,,,,,,,,,,,,,,,,,,,,,,,,,,,,,,,,,,,,,,,,,,,,,,,,,,,,,,,,,,,,,
,,"[""comma""]",0,[0.5869999999999891],23,0,23,0,1,5d459d56cb2c450019293bd0,32,Kobieta,2022-05-28_09h14.03.215,task,2021.1.4,Win32,60.24096386,628b806c463b948bc644b84f,6291cbae9c35f59eb5bf6a62,,,,,,,,,,,,,,,,,,,,,,,,,,,,,,,,,,,,,,,,,,,,,,,,,,,,,,,,,,,,,,,,,,,,,,,,,,,,,,,,,,,,,,,,,,,,,,,,,,,,,,,
,,"[""period""]",0,[0.45300000000000296],24,0,24,0,1,5d459d56cb2c450019293bd0,32,Kobieta,2022-05-28_09h14.03.215,task,2021.1.4,Win32,60.24096386,628b806c463b948bc644b84f,6291cbae9c35f59eb5bf6a62,,,,,,,,,,,,,,,,,,,,,,,,,,,,,,,,,,,,,,,,,,,,,,,,,,,,,,,,,,,,,,,,,,,,,,,,,,,,,,,,,,,,,,,,,,,,,,,,,,,,,,,
,,"[""period""]",0,[0.7019999999999982],25,0,25,0,1,5d459d56cb2c450019293bd0,32,Kobieta,2022-05-28_09h14.03.215,task,2021.1.4,Win32,60.24096386,628b806c463b948bc644b84f,6291cbae9c35f59eb5bf6a62,,,,,,,,,,,,,,,,,,,,,,,,,,,,,,,,,,,,,,,,,,,,,,,,,,,,,,,,,,,,,,,,,,,,,,,,,,,,,,,,,,,,,,,,,,,,,,,,,,,,,,,
,,"[""comma""]",0,[0.46999999999999886],26,0,26,0,1,5d459d56cb2c450019293bd0,32,Kobieta,2022-05-28_09h14.03.215,task,2021.1.4,Win32,60.24096386,628b806c463b948bc644b84f,6291cbae9c35f59eb5bf6a62,,,,,,,,,,,,,,,,,,,,,,,,,,,,,,,,,,,,,,,,,,,,,,,,,,,,,,,,,,,,,,,,,,,,,,,,,,,,,,,,,,,,,,,,,,,,,,,,,,,,,,,
,,"[""period""]",0,[0.006000000000000227],27,0,27,0,1,5d459d56cb2c450019293bd0,32,Kobieta,2022-05-28_09h14.03.215,task,2021.1.4,Win32,60.24096386,628b806c463b948bc644b84f,6291cbae9c35f59eb5bf6a62,,,,,,,,,,,,,,,,,,,,,,,,,,,,,,,,,,,,,,,,,,,,,,,,,,,,,,,,,,,,,,,,,,,,,,,,,,,,,,,,,,,,,,,,,,,,,,,,,,,,,,,
,,"[""comma""]",0,[0.3369999999999891],28,0,28,0,1,5d459d56cb2c450019293bd0,32,Kobieta,2022-05-28_09h14.03.215,task,2021.1.4,Win32,60.24096386,628b806c463b948bc644b84f,6291cbae9c35f59eb5bf6a62,,,,,,,,,,,,,,,,,,,,,,,,,,,,,,,,,,,,,,,,,,,,,,,,,,,,,,,,,,,,,,,,,,,,,,,,,,,,,,,,,,,,,,,,,,,,,,,,,,,,,,,
,,"[""comma""]",0,[0.46699999999999875],29,0,29,0,1,5d459d56cb2c450019293bd0,32,Kobieta,2022-05-28_09h14.03.215,task,2021.1.4,Win32,60.24096386,628b806c463b948bc644b84f,6291cbae9c35f59eb5bf6a62,,,,,,,,,,,,,,,,,,,,,,,,,,,,,,,,,,,,,,,,,,,,,,,,,,,,,,,,,,,,,,,,,,,,,,,,,,,,,,,,,,,,,,,,,,,,,,,,,,,,,,,
,,"[""period""]",0,[0.35199999999998965],30,0,30,0,1,5d459d56cb2c450019293bd0,32,Kobieta,2022-05-28_09h14.03.215,task,2021.1.4,Win32,60.24096386,628b806c463b948bc644b84f,6291cbae9c35f59eb5bf6a62,,,,,,,,,,,,,,,,,,,,,,,,,,,,,,,,,,,,,,,,,,,,,,,,,,,,,,,,,,,,,,,,,,,,,,,,,,,,,,,,,,,,,,,,,,,,,,,,,,,,,,,
,,"[""comma""]",0,[0.3359999999999985],31,0,31,0,1,5d459d56cb2c450019293bd0,32,Kobieta,2022-05-28_09h14.03.215,task,2021.1.4,Win32,60.24096386,628b806c463b948bc644b84f,6291cbae9c35f59eb5bf6a62,,,,,,,,,,,,,,,,,,,,,,,,,,,,,,,,,,,,,,,,,,,,,,,,,,,,,,,,,,,,,,,,,,,,,,,,,,,,,,,,,,,,,,,,,,,,,,,,,,,,,,,
,,"[""comma""]",0,[0.35299999999999443],32,0,32,0,1,5d459d56cb2c450019293bd0,32,Kobieta,2022-05-28_09h14.03.215,task,2021.1.4,Win32,60.24096386,628b806c463b948bc644b84f,6291cbae9c35f59eb5bf6a62,,,,,,,,,,,,,,,,,,,,,,,,,,,,,,,,,,,,,,,,,,,,,,,,,,,,,,,,,,,,,,,,,,,,,,,,,,,,,,,,,,,,,,,,,,,,,,,,,,,,,,,
,,"[""comma""]",0,[0.46999999999999886],33,0,33,0,1,5d459d56cb2c450019293bd0,32,Kobieta,2022-05-28_09h14.03.215,task,2021.1.4,Win32,60.24096386,628b806c463b948bc644b84f,6291cbae9c35f59eb5bf6a62,,,,,,,,,,,,,,,,,,,,,,,,,,,,,,,,,,,,,,,,,,,,,,,,,,,,,,,,,,,,,,,,,,,,,,,,,,,,,,,,,,,,,,,,,,,,,,,,,,,,,,,
,,"[""period""]",0,[1.0190000000000055],34,0,34,0,1,5d459d56cb2c450019293bd0,32,Kobieta,2022-05-28_09h14.03.215,task,2021.1.4,Win32,60.24096386,628b806c463b948bc644b84f,6291cbae9c35f59eb5bf6a62,,,,,,,,,,,,,,,,,,,,,,,,,,,,,,,,,,,,,,,,,,,,,,,,,,,,,,,,,,,,,,,,,,,,,,,,,,,,,,,,,,,,,,,,,,,,,,,,,,,,,,,
,,"[""comma""]",0,[0.9710000000000036],35,0,35,0,1,5d459d56cb2c450019293bd0,32,Kobieta,2022-05-28_09h14.03.215,task,2021.1.4,Win32,60.24096386,628b806c463b948bc644b84f,6291cbae9c35f59eb5bf6a62,,,,,,,,,,,,,,,,,,,,,,,,,,,,,,,,,,,,,,,,,,,,,,,,,,,,,,,,,,,,,,,,,,,,,,,,,,,,,,,,,,,,,,,,,,,,,,,,,,,,,,,
,,"[""period""]",0,[0.9539999999999793],36,0,36,0,1,5d459d56cb2c450019293bd0,32,Kobieta,2022-05-28_09h14.03.215,task,2021.1.4,Win32,60.24096386,628b806c463b948bc644b84f,6291cbae9c35f59eb5bf6a62,,,,,,,,,,,,,,,,,,,,,,,,,,,,,,,,,,,,,,,,,,,,,,,,,,,,,,,,,,,,,,,,,,,,,,,,,,,,,,,,,,,,,,,,,,,,,,,,,,,,,,,
,,"[""period""]",0,[0.5020000000000095],37,0,37,0,1,5d459d56cb2c450019293bd0,32,Kobieta,2022-05-28_09h14.03.215,task,2021.1.4,Win32,60.24096386,628b806c463b948bc644b84f,6291cbae9c35f59eb5bf6a62,,,,,,,,,,,,,,,,,,,,,,,,,,,,,,,,,,,,,,,,,,,,,,,,,,,,,,,,,,,,,,,,,,,,,,,,,,,,,,,,,,,,,,,,,,,,,,,,,,,,,,,
,,"[""comma""]",0,[0.3199999999999932],38,0,38,0,1,5d459d56cb2c450019293bd0,32,Kobieta,2022-05-28_09h14.03.215,task,2021.1.4,Win32,60.24096386,628b806c463b948bc644b84f,6291cbae9c35f59eb5bf6a62,,,,,,,,,,,,,,,,,,,,,,,,,,,,,,,,,,,,,,,,,,,,,,,,,,,,,,,,,,,,,,,,,,,,,,,,,,,,,,,,,,,,,,,,,,,,,,,,,,,,,,,
,,"[""comma""]",0,[0.3509999999999991],39,0,39,0,1,5d459d56cb2c450019293bd0,32,Kobieta,2022-05-28_09h14.03.215,task,2021.1.4,Win32,60.24096386,628b806c463b948bc644b84f,6291cbae9c35f59eb5bf6a62,,,,,,,,,,,,,,,,,,,,,,,,,,,,,,,,,,,,,,,,,,,,,,,,,,,,,,,,,,,,,,,,,,,,,,,,,,,,,,,,,,,,,,,,,,,,,,,,,,,,,,,
,,"[""comma""]",0,[0.28700000000000614],40,0,40,0,1,5d459d56cb2c450019293bd0,32,Kobieta,2022-05-28_09h14.03.215,task,2021.1.4,Win32,60.24096386,628b806c463b948bc644b84f,6291cbae9c35f59eb5bf6a62,,,,,,,,,,,,,,,,,,,,,,,,,,,,,,,,,,,,,,,,,,,,,,,,,,,,,,,,,,,,,,,,,,,,,,,,,,,,,,,,,,,,,,,,,,,,,,,,,,,,,,,
,,"[""period""]",0,[0.3359999999999843],41,0,41,0,1,5d459d56cb2c450019293bd0,32,Kobieta,2022-05-28_09h14.03.215,task,2021.1.4,Win32,60.24096386,628b806c463b948bc644b84f,6291cbae9c35f59eb5bf6a62,,,,,,,,,,,,,,,,,,,,,,,,,,,,,,,,,,,,,,,,,,,,,,,,,,,,,,,,,,,,,,,,,,,,,,,,,,,,,,,,,,,,,,,,,,,,,,,,,,,,,,,
,,"[""comma""]",0,[0.33500000000000796],42,0,42,0,1,5d459d56cb2c450019293bd0,32,Kobieta,2022-05-28_09h14.03.215,task,2021.1.4,Win32,60.24096386,628b806c463b948bc644b84f,6291cbae9c35f59eb5bf6a62,,,,,,,,,,,,,,,,,,,,,,,,,,,,,,,,,,,,,,,,,,,,,,,,,,,,,,,,,,,,,,,,,,,,,,,,,,,,,,,,,,,,,,,,,,,,,,,,,,,,,,,
,,"[""period""]",0,[0.3569999999999993],43,0,43,0,1,5d459d56cb2c450019293bd0,32,Kobieta,2022-05-28_09h14.03.215,task,2021.1.4,Win32,60.24096386,628b806c463b948bc644b84f,6291cbae9c35f59eb5bf6a62,,,,,,,,,,,,,,,,,,,,,,,,,,,,,,,,,,,,,,,,,,,,,,,,,,,,,,,,,,,,,,,,,,,,,,,,,,,,,,,,,,,,,,,,,,,,,,,,,,,,,,,
,,"[""comma""]",0,[0.13900000000001],44,0,44,0,1,5d459d56cb2c450019293bd0,32,Kobieta,2022-05-28_09h14.03.215,task,2021.1.4,Win32,60.24096386,628b806c463b948bc644b84f,6291cbae9c35f59eb5bf6a62,,,,,,,,,,,,,,,,,,,,,,,,,,,,,,,,,,,,,,,,,,,,,,,,,,,,,,,,,,,,,,,,,,,,,,,,,,,,,,,,,,,,,,,,,,,,,,,,,,,,,,,
,,"[""period""]",0,[0.3879999999999768],45,0,45,0,1,5d459d56cb2c450019293bd0,32,Kobieta,2022-05-28_09h14.03.215,task,2021.1.4,Win32,60.24096386,628b806c463b948bc644b84f,6291cbae9c35f59eb5bf6a62,,,,,,,,,,,,,,,,,,,,,,,,,,,,,,,,,,,,,,,,,,,,,,,,,,,,,,,,,,,,,,,,,,,,,,,,,,,,,,,,,,,,,,,,,,,,,,,,,,,,,,,
,,"[""period""]",0,[0.5869999999999891],46,0,46,0,1,5d459d56cb2c450019293bd0,32,Kobieta,2022-05-28_09h14.03.215,task,2021.1.4,Win32,60.24096386,628b806c463b948bc644b84f,6291cbae9c35f59eb5bf6a62,,,,,,,,,,,,,,,,,,,,,,,,,,,,,,,,,,,,,,,,,,,,,,,,,,,,,,,,,,,,,,,,,,,,,,,,,,,,,,,,,,,,,,,,,,,,,,,,,,,,,,,
,,"[""comma""]",0,[1.4019999999999868],47,0,47,0,1,5d459d56cb2c450019293bd0,32,Kobieta,2022-05-28_09h14.03.215,task,2021.1.4,Win32,60.24096386,628b806c463b948bc644b84f,6291cbae9c35f59eb5bf6a62,,,,,,,,,,,,,,,,,,,,,,,,,,,,,,,,,,,,,,,,,,,,,,,,,,,,,,,,,,,,,,,,,,,,,,,,,,,,,,,,,,,,,,,,,,,,,,,,,,,,,,,
,,"[""comma""]",0,[1.1539999999999964],48,0,48,0,1,5d459d56cb2c450019293bd0,32,Kobieta,2022-05-28_09h14.03.215,task,2021.1.4,Win32,60.24096386,628b806c463b948bc644b84f,6291cbae9c35f59eb5bf6a62,,,,,,,,,,,,,,,,,,,,,,,,,,,,,,,,,,,,,,,,,,,,,,,,,,,,,,,,,,,,,,,,,,,,,,,,,,,,,,,,,,,,,,,,,,,,,,,,,,,,,,,
,,"[""comma""]",0,[0.8170000000000073],49,0,49,0,1,5d459d56cb2c450019293bd0,32,Kobieta,2022-05-28_09h14.03.215,task,2021.1.4,Win32,60.24096386,628b806c463b948bc644b84f,6291cbae9c35f59eb5bf6a62,,,,,,,,,,,,,,,,,,,,,,,,,,,,,,,,,,,,,,,,,,,,,,,,,,,,,,,,,,,,,,,,,,,,,,,,,,,,,,,,,,,,,,,,,,,,,,,,,,,,,,,
,,"[""period""]",0,[1.188999999999993],50,0,50,0,1,5d459d56cb2c450019293bd0,32,Kobieta,2022-05-28_09h14.03.215,task,2021.1.4,Win32,60.24096386,628b806c463b948bc644b84f,6291cbae9c35f59eb5bf6a62,,,,,,,,,,,,,,,,,,,,,,,,,,,,,,,,,,,,,,,,,,,,,,,,,,,,,,,,,,,,,,,,,,,,,,,,,,,,,,,,,,,,,,,,,,,,,,,,,,,,,,,
,,"[""period""]",0,[1.4540000000000077],51,0,51,0,1,5d459d56cb2c450019293bd0,32,Kobieta,2022-05-28_09h14.03.215,task,2021.1.4,Win32,60.24096386,628b806c463b948bc644b84f,6291cbae9c35f59eb5bf6a62,,,,,,,,,,,,,,,,,,,,,,,,,,,,,,,,,,,,,,,,,,,,,,,,,,,,,,,,,,,,,,,,,,,,,,,,,,,,,,,,,,,,,,,,,,,,,,,,,,,,,,,
,,"[""comma""]",0,[1.1829999999999927],52,0,52,0,1,5d459d56cb2c450019293bd0,32,Kobieta,2022-05-28_09h14.03.215,task,2021.1.4,Win32,60.24096386,628b806c463b948bc644b84f,6291cbae9c35f59eb5bf6a62,,,,,,,,,,,,,,,,,,,,,,,,,,,,,,,,,,,,,,,,,,,,,,,,,,,,,,,,,,,,,,,,,,,,,,,,,,,,,,,,,,,,,,,,,,,,,,,,,,,,,,,
,,"[""period""]",0,[0.9539999999999793],53,0,53,0,1,5d459d56cb2c450019293bd0,32,Kobieta,2022-05-28_09h14.03.215,task,2021.1.4,Win32,60.24096386,628b806c463b948bc644b84f,6291cbae9c35f59eb5bf6a62,,,,,,,,,,,,,,,,,,,,,,,,,,,,,,,,,,,,,,,,,,,,,,,,,,,,,,,,,,,,,,,,,,,,,,,,,,,,,,,,,,,,,,,,,,,,,,,,,,,,,,,
,,"[""comma""]",0,[0.38999999999998636],54,0,54,0,1,5d459d56cb2c450019293bd0,32,Kobieta,2022-05-28_09h14.03.215,task,2021.1.4,Win32,60.24096386,628b806c463b948bc644b84f,6291cbae9c35f59eb5bf6a62,,,,,,,,,,,,,,,,,,,,,,,,,,,,,,,,,,,,,,,,,,,,,,,,,,,,,,,,,,,,,,,,,,,,,,,,,,,,,,,,,,,,,,,,,,,,,,,,,,,,,,,
,,"[""comma"",""period""]",0,"[0.18600000000000705,1.6839999999999975]",55,0,55,0,1,5d459d56cb2c450019293bd0,32,Kobieta,2022-05-28_09h14.03.215,task,2021.1.4,Win32,60.24096386,628b806c463b948bc644b84f,6291cbae9c35f59eb5bf6a62,,,,,,,,,,,,,,,,,,,,,,,,,,,,,,,,,,,,,,,,,,,,,,,,,,,,,,,,,,,,,,,,,,,,,,,,,,,,,,,,,,,,,,,,,,,,,,,,,,,,,,,
,,,0,,56,0,56,0,1,5d459d56cb2c450019293bd0,32,Kobieta,2022-05-28_09h14.03.215,task,2021.1.4,Win32,60.24096386,628b806c463b948bc644b84f,6291cbae9c35f59eb5bf6a62,,,,,,,,,,,,,,,,,,,,,,,,,,,,,,,,,,,,,,,,,,,,,,,,,,,,,,,,,,,,,,,,,,,,,,,,,,,,,,,,,,,,,,,,,,,,,,,,,,,,,,,
,,"[""period""]",0,[0.25499999999999545],57,0,57,0,1,5d459d56cb2c450019293bd0,32,Kobieta,2022-05-28_09h14.03.215,task,2021.1.4,Win32,60.24096386,628b806c463b948bc644b84f,6291cbae9c35f59eb5bf6a62,,,,,,,,,,,,,,,,,,,,,,,,,,,,,,,,,,,,,,,,,,,,,,,,,,,,,,,,,,,,,,,,,,,,,,,,,,,,,,,,,,,,,,,,,,,,,,,,,,,,,,,
,,"[""comma""]",0,[1.8700000000000045],58,0,58,0,1,5d459d56cb2c450019293bd0,32,Kobieta,2022-05-28_09h14.03.215,task,2021.1.4,Win32,60.24096386,628b806c463b948bc644b84f,6291cbae9c35f59eb5bf6a62,,,,,,,,,,,,,,,,,,,,,,,,,,,,,,,,,,,,,,,,,,,,,,,,,,,,,,,,,,,,,,,,,,,,,,,,,,,,,,,,,,,,,,,,,,,,,,,,,,,,,,,
,,,0,,59,0,59,0,1,5d459d56cb2c450019293bd0,32,Kobieta,2022-05-28_09h14.03.215,task,2021.1.4,Win32,60.24096386,628b806c463b948bc644b84f,6291cbae9c35f59eb5bf6a62,,,,,,,,,,,,,,,,,,,,,,,,,,,,,,,,,,,,,,,,,,,,,,,,,,,,,,,,,,,,,,,,,,,,,,,,,,,,,,,,,,,,,,,,,,,,,,,,,,,,,,,
,,"[""period""]",0,[0.13700000000000045],60,0,60,0,1,5d459d56cb2c450019293bd0,32,Kobieta,2022-05-28_09h14.03.215,task,2021.1.4,Win32,60.24096386,628b806c463b948bc644b84f,6291cbae9c35f59eb5bf6a62,,,,,,,,,,,,,,,,,,,,,,,,,,,,,,,,,,,,,,,,,,,,,,,,,,,,,,,,,,,,,,,,,,,,,,,,,,,,,,,,,,,,,,,,,,,,,,,,,,,,,,,
,,"[""comma""]",0,[0.26899999999997704],61,0,61,0,1,5d459d56cb2c450019293bd0,32,Kobieta,2022-05-28_09h14.03.215,task,2021.1.4,Win32,60.24096386,628b806c463b948bc644b84f,6291cbae9c35f59eb5bf6a62,,,,,,,,,,,,,,,,,,,,,,,,,,,,,,,,,,,,,,,,,,,,,,,,,,,,,,,,,,,,,,,,,,,,,,,,,,,,,,,,,,,,,,,,,,,,,,,,,,,,,,,
,,,0,,62,0,62,0,1,5d459d56cb2c450019293bd0,32,Kobieta,2022-05-28_09h14.03.215,task,2021.1.4,Win32,60.24096386,628b806c463b948bc644b84f,6291cbae9c35f59eb5bf6a62,,,,,,,,,,,,,,,,,,,,,,,,,,,,,,,,,,,,,,,,,,,,,,,,,,,,,,,,,,,,,,,,,,,,,,,,,,,,,,,,,,,,,,,,,,,,,,,,,,,,,,,
,,"[""period""]",0,[0.554000000000002],63,0,63,0,1,5d459d56cb2c450019293bd0,32,Kobieta,2022-05-28_09h14.03.215,task,2021.1.4,Win32,60.24096386,628b806c463b948bc644b84f,6291cbae9c35f59eb5bf6a62,,,,,,,,,,,,,,,,,,,,,,,,,,,,,,,,,,,,,,,,,,,,,,,,,,,,,,,,,,,,,,,,,,,,,,,,,,,,,,,,,,,,,,,,,,,,,,,,,,,,,,,
,,"[""comma""]",0,[1.6350000000000193],64,0,64,0,1,5d459d56cb2c450019293bd0,32,Kobieta,2022-05-28_09h14.03.215,task,2021.1.4,Win32,60.24096386,628b806c463b948bc644b84f,6291cbae9c35f59eb5bf6a62,,,,,,,,,,,,,,,,,,,,,,,,,,,,,,,,,,,,,,,,,,,,,,,,,,,,,,,,,,,,,,,,,,,,,,,,,,,,,,,,,,,,,,,,,,,,,,,,,,,,,,,
,,,0,,65,0,65,0,1,5d459d56cb2c450019293bd0,32,Kobieta,2022-05-28_09h14.03.215,task,2021.1.4,Win32,60.24096386,628b806c463b948bc644b84f,6291cbae9c35f59eb5bf6a62,,,,,,,,,,,,,,,,,,,,,,,,,,,,,,,,,,,,,,,,,,,,,,,,,,,,,,,,,,,,,,,,,,,,,,,,,,,,,,,,,,,,,,,,,,,,,,,,,,,,,,,
,,"[""period""]",0,[0.33799999999999386],66,0,66,0,1,5d459d56cb2c450019293bd0,32,Kobieta,2022-05-28_09h14.03.215,task,2021.1.4,Win32,60.24096386,628b806c463b948bc644b84f,6291cbae9c35f59eb5bf6a62,,,,,,,,,,,,,,,,,,,,,,,,,,,,,,,,,,,,,,,,,,,,,,,,,,,,,,,,,,,,,,,,,,,,,,,,,,,,,,,,,,,,,,,,,,,,,,,,,,,,,,,
,,"[""comma""]",0,[0.004000000000019099],67,0,67,0,1,5d459d56cb2c450019293bd0,32,Kobieta,2022-05-28_09h14.03.215,task,2021.1.4,Win32,60.24096386,628b806c463b948bc644b84f,6291cbae9c35f59eb5bf6a62,,,,,,,,,,,,,,,,,,,,,,,,,,,,,,,,,,,,,,,,,,,,,,,,,,,,,,,,,,,,,,,,,,,,,,,,,,,,,,,,,,,,,,,,,,,,,,,,,,,,,,,
,,"[""comma""]",0,[0.15000000000000568],68,0,68,0,1,5d459d56cb2c450019293bd0,32,Kobieta,2022-05-28_09h14.03.215,task,2021.1.4,Win32,60.24096386,628b806c463b948bc644b84f,6291cbae9c35f59eb5bf6a62,,,,,,,,,,,,,,,,,,,,,,,,,,,,,,,,,,,,,,,,,,,,,,,,,,,,,,,,,,,,,,,,,,,,,,,,,,,,,,,,,,,,,,,,,,,,,,,,,,,,,,,
,,"[""period""]",0,[0.5360000000000014],69,0,69,0,1,5d459d56cb2c450019293bd0,32,Kobieta,2022-05-28_09h14.03.215,task,2021.1.4,Win32,60.24096386,628b806c463b948bc644b84f,6291cbae9c35f59eb5bf6a62,,,,,,,,,,,,,,,,,,,,,,,,,,,,,,,,,,,,,,,,,,,,,,,,,,,,,,,,,,,,,,,,,,,,,,,,,,,,,,,,,,,,,,,,,,,,,,,,,,,,,,,
,,"[""period""]",0,[0.5040000000000191],70,0,70,0,1,5d459d56cb2c450019293bd0,32,Kobieta,2022-05-28_09h14.03.215,task,2021.1.4,Win32,60.24096386,628b806c463b948bc644b84f,6291cbae9c35f59eb5bf6a62,,,,,,,,,,,,,,,,,,,,,,,,,,,,,,,,,,,,,,,,,,,,,,,,,,,,,,,,,,,,,,,,,,,,,,,,,,,,,,,,,,,,,,,,,,,,,,,,,,,,,,,
,,"[""period""]",0,[0.30400000000000205],71,0,71,0,1,5d459d56cb2c450019293bd0,32,Kobieta,2022-05-28_09h14.03.215,task,2021.1.4,Win32,60.24096386,628b806c463b948bc644b84f,6291cbae9c35f59eb5bf6a62,,,,,,,,,,,,,,,,,,,,,,,,,,,,,,,,,,,,,,,,,,,,,,,,,,,,,,,,,,,,,,,,,,,,,,,,,,,,,,,,,,,,,,,,,,,,,,,,,,,,,,,
,,"[""comma""]",0,[0.271000000000015],72,0,72,0,1,5d459d56cb2c450019293bd0,32,Kobieta,2022-05-28_09h14.03.215,task,2021.1.4,Win32,60.24096386,628b806c463b948bc644b84f,6291cbae9c35f59eb5bf6a62,,,,,,,,,,,,,,,,,,,,,,,,,,,,,,,,,,,,,,,,,,,,,,,,,,,,,,,,,,,,,,,,,,,,,,,,,,,,,,,,,,,,,,,,,,,,,,,,,,,,,,,
,,"[""comma""]",0,[0.45300000000000296],73,0,73,0,1,5d459d56cb2c450019293bd0,32,Kobieta,2022-05-28_09h14.03.215,task,2021.1.4,Win32,60.24096386,628b806c463b948bc644b84f,6291cbae9c35f59eb5bf6a62,,,,,,,,,,,,,,,,,,,,,,,,,,,,,,,,,,,,,,,,,,,,,,,,,,,,,,,,,,,,,,,,,,,,,,,,,,,,,,,,,,,,,,,,,,,,,,,,,,,,,,,
,,"[""period"",""comma""]",0,"[0.2540000000000191,1.920000000000016]",74,0,74,0,1,5d459d56cb2c450019293bd0,32,Kobieta,2022-05-28_09h14.03.215,task,2021.1.4,Win32,60.24096386,628b806c463b948bc644b84f,6291cbae9c35f59eb5bf6a62,,,,,,,,,,,,,,,,,,,,,,,,,,,,,,,,,,,,,,,,,,,,,,,,,,,,,,,,,,,,,,,,,,,,,,,,,,,,,,,,,,,,,,,,,,,,,,,,,,,,,,,
,,,0,,75,0,75,0,1,5d459d56cb2c450019293bd0,32,Kobieta,2022-05-28_09h14.03.215,task,2021.1.4,Win32,60.24096386,628b806c463b948bc644b84f,6291cbae9c35f59eb5bf6a62,,,,,,,,,,,,,,,,,,,,,,,,,,,,,,,,,,,,,,,,,,,,,,,,,,,,,,,,,,,,,,,,,,,,,,,,,,,,,,,,,,,,,,,,,,,,,,,,,,,,,,,
,,"[""period""]",0,[0.5049999999999955],76,0,76,0,1,5d459d56cb2c450019293bd0,32,Kobieta,2022-05-28_09h14.03.215,task,2021.1.4,Win32,60.24096386,628b806c463b948bc644b84f,6291cbae9c35f59eb5bf6a62,,,,,,,,,,,,,,,,,,,,,,,,,,,,,,,,,,,,,,,,,,,,,,,,,,,,,,,,,,,,,,,,,,,,,,,,,,,,,,,,,,,,,,,,,,,,,,,,,,,,,,,
,,"[""comma""]",0,[0.17000000000001592],77,0,77,0,1,5d459d56cb2c450019293bd0,32,Kobieta,2022-05-28_09h14.03.215,task,2021.1.4,Win32,60.24096386,628b806c463b948bc644b84f,6291cbae9c35f59eb5bf6a62,,,,,,,,,,,,,,,,,,,,,,,,,,,,,,,,,,,,,,,,,,,,,,,,,,,,,,,,,,,,,,,,,,,,,,,,,,,,,,,,,,,,,,,,,,,,,,,,,,,,,,,
,,"[""period"",""period""]",0,"[0.2709999999999866,1.953000000000003]",78,0,78,0,1,5d459d56cb2c450019293bd0,32,Kobieta,2022-05-28_09h14.03.215,task,2021.1.4,Win32,60.24096386,628b806c463b948bc644b84f,6291cbae9c35f59eb5bf6a62,,,,,,,,,,,,,,,,,,,,,,,,,,,,,,,,,,,,,,,,,,,,,,,,,,,,,,,,,,,,,,,,,,,,,,,,,,,,,,,,,,,,,,,,,,,,,,,,,,,,,,,
,,,0,,79,0,79,0,1,5d459d56cb2c450019293bd0,32,Kobieta,2022-05-28_09h14.03.215,task,2021.1.4,Win32,60.24096386,628b806c463b948bc644b84f,6291cbae9c35f59eb5bf6a62,,,,,,,,,,,,,,,,,,,,,,,,,,,,,,,,,,,,,,,,,,,,,,,,,,,,,,,,,,,,,,,,,,,,,,,,,,,,,,,,,,,,,,,,,,,,,,,,,,,,,,,
,,"[""comma""]",0,[0.18799999999998818],80,0,80,0,1,5d459d56cb2c450019293bd0,32,Kobieta,2022-05-28_09h14.03.215,task,2021.1.4,Win32,60.24096386,628b806c463b948bc644b84f,6291cbae9c35f59eb5bf6a62,,,,,,,,,,,,,,,,,,,,,,,,,,,,,,,,,,,,,,,,,,,,,,,,,,,,,,,,,,,,,,,,,,,,,,,,,,,,,,,,,,,,,,,,,,,,,,,,,,,,,,,
,,"[""comma""]",0,[0.2459999999999809],81,0,81,0,1,5d459d56cb2c450019293bd0,32,Kobieta,2022-05-28_09h14.03.215,task,2021.1.4,Win32,60.24096386,628b806c463b948bc644b84f,6291cbae9c35f59eb5bf6a62,,,,,,,,,,,,,,,,,,,,,,,,,,,,,,,,,,,,,,,,,,,,,,,,,,,,,,,,,,,,,,,,,,,,,,,,,,,,,,,,,,,,,,,,,,,,,,,,,,,,,,,
,,"[""comma""]",0,[0.35300000000000864],82,0,82,0,1,5d459d56cb2c450019293bd0,32,Kobieta,2022-05-28_09h14.03.215,task,2021.1.4,Win32,60.24096386,628b806c463b948bc644b84f,6291cbae9c35f59eb5bf6a62,,,,,,,,,,,,,,,,,,,,,,,,,,,,,,,,,,,,,,,,,,,,,,,,,,,,,,,,,,,,,,,,,,,,,,,,,,,,,,,,,,,,,,,,,,,,,,,,,,,,,,,
,,"[""period""]",0,[0.28600000000000136],83,0,83,0,1,5d459d56cb2c450019293bd0,32,Kobieta,2022-05-28_09h14.03.215,task,2021.1.4,Win32,60.24096386,628b806c463b948bc644b84f,6291cbae9c35f59eb5bf6a62,,,,,,,,,,,,,,,,,,,,,,,,,,,,,,,,,,,,,,,,,,,,,,,,,,,,,,,,,,,,,,,,,,,,,,,,,,,,,,,,,,,,,,,,,,,,,,,,,,,,,,,
,,"[""comma""]",0,[0.13599999999999568],84,0,84,0,1,5d459d56cb2c450019293bd0,32,Kobieta,2022-05-28_09h14.03.215,task,2021.1.4,Win32,60.24096386,628b806c463b948bc644b84f,6291cbae9c35f59eb5bf6a62,,,,,,,,,,,,,,,,,,,,,,,,,,,,,,,,,,,,,,,,,,,,,,,,,,,,,,,,,,,,,,,,,,,,,,,,,,,,,,,,,,,,,,,,,,,,,,,,,,,,,,,
,,"[""period""]",0,[0.271000000000015],85,0,85,0,1,5d459d56cb2c450019293bd0,32,Kobieta,2022-05-28_09h14.03.215,task,2021.1.4,Win32,60.24096386,628b806c463b948bc644b84f,6291cbae9c35f59eb5bf6a62,,,,,,,,,,,,,,,,,,,,,,,,,,,,,,,,,,,,,,,,,,,,,,,,,,,,,,,,,,,,,,,,,,,,,,,,,,,,,,,,,,,,,,,,,,,,,,,,,,,,,,,
,,"[""comma""]",0,[0.13599999999999568],86,0,86,0,1,5d459d56cb2c450019293bd0,32,Kobieta,2022-05-28_09h14.03.215,task,2021.1.4,Win32,60.24096386,628b806c463b948bc644b84f,6291cbae9c35f59eb5bf6a62,,,,,,,,,,,,,,,,,,,,,,,,,,,,,,,,,,,,,,,,,,,,,,,,,,,,,,,,,,,,,,,,,,,,,,,,,,,,,,,,,,,,,,,,,,,,,,,,,,,,,,,
,,"[""period""]",0,[0.08699999999998909],87,0,87,0,1,5d459d56cb2c450019293bd0,32,Kobieta,2022-05-28_09h14.03.215,task,2021.1.4,Win32,60.24096386,628b806c463b948bc644b84f,6291cbae9c35f59eb5bf6a62,,,,,,,,,,,,,,,,,,,,,,,,,,,,,,,,,,,,,,,,,,,,,,,,,,,,,,,,,,,,,,,,,,,,,,,,,,,,,,,,,,,,,,,,,,,,,,,,,,,,,,,
,,"[""comma""]",0,[0.28600000000000136],88,0,88,0,1,5d459d56cb2c450019293bd0,32,Kobieta,2022-05-28_09h14.03.215,task,2021.1.4,Win32,60.24096386,628b806c463b948bc644b84f,6291cbae9c35f59eb5bf6a62,,,,,,,,,,,,,,,,,,,,,,,,,,,,,,,,,,,,,,,,,,,,,,,,,,,,,,,,,,,,,,,,,,,,,,,,,,,,,,,,,,,,,,,,,,,,,,,,,,,,,,,
,,"[""period""]",0,[0.15399999999999636],89,0,89,0,1,5d459d56cb2c450019293bd0,32,Kobieta,2022-05-28_09h14.03.215,task,2021.1.4,Win32,60.24096386,628b806c463b948bc644b84f,6291cbae9c35f59eb5bf6a62,,,,,,,,,,,,,,,,,,,,,,,,,,,,,,,,,,,,,,,,,,,,,,,,,,,,,,,,,,,,,,,,,,,,,,,,,,,,,,,,,,,,,,,,,,,,,,,,,,,,,,,
,,"[""period""]",0,[0.28700000000000614],90,0,90,0,1,5d459d56cb2c450019293bd0,32,Kobieta,2022-05-28_09h14.03.215,task,2021.1.4,Win32,60.24096386,628b806c463b948bc644b84f,6291cbae9c35f59eb5bf6a62,,,,,,,,,,,,,,,,,,,,,,,,,,,,,,,,,,,,,,,,,,,,,,,,,,,,,,,,,,,,,,,,,,,,,,,,,,,,,,,,,,,,,,,,,,,,,,,,,,,,,,,
,,"[""comma""]",0,[0.4359999999999786],91,0,91,0,1,5d459d56cb2c450019293bd0,32,Kobieta,2022-05-28_09h14.03.215,task,2021.1.4,Win32,60.24096386,628b806c463b948bc644b84f,6291cbae9c35f59eb5bf6a62,,,,,,,,,,,,,,,,,,,,,,,,,,,,,,,,,,,,,,,,,,,,,,,,,,,,,,,,,,,,,,,,,,,,,,,,,,,,,,,,,,,,,,,,,,,,,,,,,,,,,,,
,,"[""period""]",0,[0.3199999999999932],92,0,92,0,1,5d459d56cb2c450019293bd0,32,Kobieta,2022-05-28_09h14.03.215,task,2021.1.4,Win32,60.24096386,628b806c463b948bc644b84f,6291cbae9c35f59eb5bf6a62,,,,,,,,,,,,,,,,,,,,,,,,,,,,,,,,,,,,,,,,,,,,,,,,,,,,,,,,,,,,,,,,,,,,,,,,,,,,,,,,,,,,,,,,,,,,,,,,,,,,,,,
,,"[""comma""]",0,[0.42099999999999227],93,0,93,0,1,5d459d56cb2c450019293bd0,32,Kobieta,2022-05-28_09h14.03.215,task,2021.1.4,Win32,60.24096386,628b806c463b948bc644b84f,6291cbae9c35f59eb5bf6a62,,,,,,,,,,,,,,,,,,,,,,,,,,,,,,,,,,,,,,,,,,,,,,,,,,,,,,,,,,,,,,,,,,,,,,,,,,,,,,,,,,,,,,,,,,,,,,,,,,,,,,,
,,"[""comma"",""period""]",0,"[0.2529999999999859,1.7019999999999982]",94,0,94,0,1,5d459d56cb2c450019293bd0,32,Kobieta,2022-05-28_09h14.03.215,task,2021.1.4,Win32,60.24096386,628b806c463b948bc644b84f,6291cbae9c35f59eb5bf6a62,,,,,,,,,,,,,,,,,,,,,,,,,,,,,,,,,,,,,,,,,,,,,,,,,,,,,,,,,,,,,,,,,,,,,,,,,,,,,,,,,,,,,,,,,,,,,,,,,,,,,,,
,,,0,,95,0,95,0,1,5d459d56cb2c450019293bd0,32,Kobieta,2022-05-28_09h14.03.215,task,2021.1.4,Win32,60.24096386,628b806c463b948bc644b84f,6291cbae9c35f59eb5bf6a62,,,,,,,,,,,,,,,,,,,,,,,,,,,,,,,,,,,,,,,,,,,,,,,,,,,,,,,,,,,,,,,,,,,,,,,,,,,,,,,,,,,,,,,,,,,,,,,,,,,,,,,
,,"[""period"",""comma""]",0,"[0.02600000000001046,1.8360000000000127]",96,0,96,0,1,5d459d56cb2c450019293bd0,32,Kobieta,2022-05-28_09h14.03.215,task,2021.1.4,Win32,60.24096386,628b806c463b948bc644b84f,6291cbae9c35f59eb5bf6a62,,,,,,,,,,,,,,,,,,,,,,,,,,,,,,,,,,,,,,,,,,,,,,,,,,,,,,,,,,,,,,,,,,,,,,,,,,,,,,,,,,,,,,,,,,,,,,,,,,,,,,,
,,,0,,97,0,97,0,1,5d459d56cb2c450019293bd0,32,Kobieta,2022-05-28_09h14.03.215,task,2021.1.4,Win32,60.24096386,628b806c463b948bc644b84f,6291cbae9c35f59eb5bf6a62,,,,,,,,,,,,,,,,,,,,,,,,,,,,,,,,,,,,,,,,,,,,,,,,,,,,,,,,,,,,,,,,,,,,,,,,,,,,,,,,,,,,,,,,,,,,,,,,,,,,,,,
,,"[""comma""]",0,[0.2880000000000109],98,0,98,0,1,5d459d56cb2c450019293bd0,32,Kobieta,2022-05-28_09h14.03.215,task,2021.1.4,Win32,60.24096386,628b806c463b948bc644b84f,6291cbae9c35f59eb5bf6a62,,,,,,,,,,,,,,,,,,,,,,,,,,,,,,,,,,,,,,,,,,,,,,,,,,,,,,,,,,,,,,,,,,,,,,,,,,,,,,,,,,,,,,,,,,,,,,,,,,,,,,,
,,"[""comma""]",0,[0.5060000000000286],99,0,99,0,1,5d459d56cb2c450019293bd0,32,Kobieta,2022-05-28_09h14.03.215,task,2021.1.4,Win32,60.24096386,628b806c463b948bc644b84f,6291cbae9c35f59eb5bf6a62,,,,,,,,,,,,,,,,,,,,,,,,,,,,,,,,,,,,,,,,,,,,,,,,,,,,,,,,,,,,,,,,,,,,,,,,,,,,,,,,,,,,,,,,,,,,,,,,,,,,,,,
,,"[""period""]",0,[1.3360000000000127],100,0,100,0,1,5d459d56cb2c450019293bd0,32,Kobieta,2022-05-28_09h14.03.215,task,2021.1.4,Win32,60.24096386,628b806c463b948bc644b84f,6291cbae9c35f59eb5bf6a62,,,,,,,,,,,,,,,,,,,,,,,,,,,,,,,,,,,,,,,,,,,,,,,,,,,,,,,,,,,,,,,,,,,,,,,,,,,,,,,,,,,,,,,,,,,,,,,,,,,,,,,
,,"[""period""]",0,[0.6689999999999827],101,0,101,0,1,5d459d56cb2c450019293bd0,32,Kobieta,2022-05-28_09h14.03.215,task,2021.1.4,Win32,60.24096386,628b806c463b948bc644b84f,6291cbae9c35f59eb5bf6a62,,,,,,,,,,,,,,,,,,,,,,,,,,,,,,,,,,,,,,,,,,,,,,,,,,,,,,,,,,,,,,,,,,,,,,,,,,,,,,,,,,,,,,,,,,,,,,,,,,,,,,,
,,"[""comma""]",0,[1.6030000000000086],102,0,102,0,1,5d459d56cb2c450019293bd0,32,Kobieta,2022-05-28_09h14.03.215,task,2021.1.4,Win32,60.24096386,628b806c463b948bc644b84f,6291cbae9c35f59eb5bf6a62,,,,,,,,,,,,,,,,,,,,,,,,,,,,,,,,,,,,,,,,,,,,,,,,,,,,,,,,,,,,,,,,,,,,,,,,,,,,,,,,,,,,,,,,,,,,,,,,,,,,,,,
,,,0,,103,0,103,0,1,5d459d56cb2c450019293bd0,32,Kobieta,2022-05-28_09h14.03.215,task,2021.1.4,Win32,60.24096386,628b806c463b948bc644b84f,6291cbae9c35f59eb5bf6a62,,,,,,,,,,,,,,,,,,,,,,,,,,,,,,,,,,,,,,,,,,,,,,,,,,,,,,,,,,,,,,,,,,,,,,,,,,,,,,,,,,,,,,,,,,,,,,,,,,,,,,,
,,"[""comma"",""period""]",0,"[0.23500000000001364,1.8129999999999882]",104,0,104,0,1,5d459d56cb2c450019293bd0,32,Kobieta,2022-05-28_09h14.03.215,task,2021.1.4,Win32,60.24096386,628b806c463b948bc644b84f,6291cbae9c35f59eb5bf6a62,,,,,,,,,,,,,,,,,,,,,,,,,,,,,,,,,,,,,,,,,,,,,,,,,,,,,,,,,,,,,,,,,,,,,,,,,,,,,,,,,,,,,,,,,,,,,,,,,,,,,,,
,,,0,,105,0,105,0,1,5d459d56cb2c450019293bd0,32,Kobieta,2022-05-28_09h14.03.215,task,2021.1.4,Win32,60.24096386,628b806c463b948bc644b84f,6291cbae9c35f59eb5bf6a62,,,,,,,,,,,,,,,,,,,,,,,,,,,,,,,,,,,,,,,,,,,,,,,,,,,,,,,,,,,,,,,,,,,,,,,,,,,,,,,,,,,,,,,,,,,,,,,,,,,,,,,
,,"[""comma""]",0,[0.3380000000000223],106,0,106,0,1,5d459d56cb2c450019293bd0,32,Kobieta,2022-05-28_09h14.03.215,task,2021.1.4,Win32,60.24096386,628b806c463b948bc644b84f,6291cbae9c35f59eb5bf6a62,,,,,,,,,,,,,,,,,,,,,,,,,,,,,,,,,,,,,,,,,,,,,,,,,,,,,,,,,,,,,,,,,,,,,,,,,,,,,,,,,,,,,,,,,,,,,,,,,,,,,,,
,,"[""period""]",0,[0.3520000000000323],107,0,107,0,1,5d459d56cb2c450019293bd0,32,Kobieta,2022-05-28_09h14.03.215,task,2021.1.4,Win32,60.24096386,628b806c463b948bc644b84f,6291cbae9c35f59eb5bf6a62,,,,,,,,,,,,,,,,,,,,,,,,,,,,,,,,,,,,,,,,,,,,,,,,,,,,,,,,,,,,,,,,,,,,,,,,,,,,,,,,,,,,,,,,,,,,,,,,,,,,,,,
,,"[""comma""]",0,[0.3660000000000423],108,0,108,0,1,5d459d56cb2c450019293bd0,32,Kobieta,2022-05-28_09h14.03.215,task,2021.1.4,Win32,60.24096386,628b806c463b948bc644b84f,6291cbae9c35f59eb5bf6a62,,,,,,,,,,,,,,,,,,,,,,,,,,,,,,,,,,,,,,,,,,,,,,,,,,,,,,,,,,,,,,,,,,,,,,,,,,,,,,,,,,,,,,,,,,,,,,,,,,,,,,,
,,"[""period""]",0,[0.5029999999999859],109,0,109,0,1,5d459d56cb2c450019293bd0,32,Kobieta,2022-05-28_09h14.03.215,task,2021.1.4,Win32,60.24096386,628b806c463b948bc644b84f,6291cbae9c35f59eb5bf6a62,,,,,,,,,,,,,,,,,,,,,,,,,,,,,,,,,,,,,,,,,,,,,,,,,,,,,,,,,,,,,,,,,,,,,,,,,,,,,,,,,,,,,,,,,,,,,,,,,,,,,,,
,,,0,,110,0,110,0,1,5d459d56cb2c450019293bd0,32,Kobieta,2022-05-28_09h14.03.215,task,2021.1.4,Win32,60.24096386,628b806c463b948bc644b84f,6291cbae9c35f59eb5bf6a62,,,,,,,,,,,,,,,,,,,,,,,,,,,,,,,,,,,,,,,,,,,,,,,,,,,,,,,,,,,,,,,,,,,,,,,,,,,,,,,,,,,,,,,,,,,,,,,,,,,,,,,
,,"[""comma""]",0,[0.5710000000000264],111,0,111,0,1,5d459d56cb2c450019293bd0,32,Kobieta,2022-05-28_09h14.03.215,task,2021.1.4,Win32,60.24096386,628b806c463b948bc644b84f,6291cbae9c35f59eb5bf6a62,,,,,,,,,,,,,,,,,,,,,,,,,,,,,,,,,,,,,,,,,,,,,,,,,,,,,,,,,,,,,,,,,,,,,,,,,,,,,,,,,,,,,,,,,,,,,,,,,,,,,,,
,,"[""period""]",0,[0.5989999999999895],112,0,112,0,1,5d459d56cb2c450019293bd0,32,Kobieta,2022-05-28_09h14.03.215,task,2021.1.4,Win32,60.24096386,628b806c463b948bc644b84f,6291cbae9c35f59eb5bf6a62,,,,,,,,,,,,,,,,,,,,,,,,,,,,,,,,,,,,,,,,,,,,,,,,,,,,,,,,,,,,,,,,,,,,,,,,,,,,,,,,,,,,,,,,,,,,,,,,,,,,,,,
,,,0,,113,0,113,0,1,5d459d56cb2c450019293bd0,32,Kobieta,2022-05-28_09h14.03.215,task,2021.1.4,Win32,60.24096386,628b806c463b948bc644b84f,6291cbae9c35f59eb5bf6a62,,,,,,,,,,,,,,,,,,,,,,,,,,,,,,,,,,,,,,,,,,,,,,,,,,,,,,,,,,,,,,,,,,,,,,,,,,,,,,,,,,,,,,,,,,,,,,,,,,,,,,,
,,,0,,114,0,114,0,1,5d459d56cb2c450019293bd0,32,Kobieta,2022-05-28_09h14.03.215,task,2021.1.4,Win32,60.24096386,628b806c463b948bc644b84f,6291cbae9c35f59eb5bf6a62,,,,,,,,,,,,,,,,,,,,,,,,,,,,,,,,,,,,,,,,,,,,,,,,,,,,,,,,,,,,,,,,,,,,,,,,,,,,,,,,,,,,,,,,,,,,,,,,,,,,,,,
,,"[""comma""]",0,[0.37000000000000455],115,0,115,0,1,5d459d56cb2c450019293bd0,32,Kobieta,2022-05-28_09h14.03.215,task,2021.1.4,Win32,60.24096386,628b806c463b948bc644b84f,6291cbae9c35f59eb5bf6a62,,,,,,,,,,,,,,,,,,,,,,,,,,,,,,,,,,,,,,,,,,,,,,,,,,,,,,,,,,,,,,,,,,,,,,,,,,,,,,,,,,,,,,,,,,,,,,,,,,,,,,,
,,"[""period""]",0,[0.45299999999997453],116,0,116,0,1,5d459d56cb2c450019293bd0,32,Kobieta,2022-05-28_09h14.03.215,task,2021.1.4,Win32,60.24096386,628b806c463b948bc644b84f,6291cbae9c35f59eb5bf6a62,,,,,,,,,,,,,,,,,,,,,,,,,,,,,,,,,,,,,,,,,,,,,,,,,,,,,,,,,,,,,,,,,,,,,,,,,,,,,,,,,,,,,,,,,,,,,,,,,,,,,,,
,,"[""comma"",""period""]",0,"[0.23599999999999,1.8700000000000045]",117,0,117,0,1,5d459d56cb2c450019293bd0,32,Kobieta,2022-05-28_09h14.03.215,task,2021.1.4,Win32,60.24096386,628b806c463b948bc644b84f,6291cbae9c35f59eb5bf6a62,,,,,,,,,,,,,,,,,,,,,,,,,,,,,,,,,,,,,,,,,,,,,,,,,,,,,,,,,,,,,,,,,,,,,,,,,,,,,,,,,,,,,,,,,,,,,,,,,,,,,,,
,,"[""comma""]",0,[1.6030000000000086],118,0,118,0,1,5d459d56cb2c450019293bd0,32,Kobieta,2022-05-28_09h14.03.215,task,2021.1.4,Win32,60.24096386,628b806c463b948bc644b84f,6291cbae9c35f59eb5bf6a62,,,,,,,,,,,,,,,,,,,,,,,,,,,,,,,,,,,,,,,,,,,,,,,,,,,,,,,,,,,,,,,,,,,,,,,,,,,,,,,,,,,,,,,,,,,,,,,,,,,,,,,
,,"[""comma""]",0,[1.3530000000000086],119,0,119,0,1,5d459d56cb2c450019293bd0,32,Kobieta,2022-05-28_09h14.03.215,task,2021.1.4,Win32,60.24096386,628b806c463b948bc644b84f,6291cbae9c35f59eb5bf6a62,,,,,,,,,,,,,,,,,,,,,,,,,,,,,,,,,,,,,,,,,,,,,,,,,,,,,,,,,,,,,,,,,,,,,,,,,,,,,,,,,,,,,,,,,,,,,,,,,,,,,,,
,,,,,,,,,,5d459d56cb2c450019293bd0,32,Kobieta,2022-05-28_09h14.03.215,task,2021.1.4,Win32,60.24096386,628b806c463b948bc644b84f,6291cbae9c35f59eb5bf6a62,space,59.114,space,5.849,0,0,0,0,1,"X V Q F H G B L J M P D K C T S W R N Z
",,,,,,,,,,,,,,,,,,,,,,,,,,,,,,,,,,,,,,,,,,,,,,,,,,,,,,,,,,,,,,,,,,,,,,,,,,,,,,,,,,,,,,,,,,,,,
,,,,,,,,,,5d459d56cb2c450019293bd0,32,Kobieta,2022-05-28_09h14.03.215,task,2021.1.4,Win32,60.24096386,628b806c463b948bc644b84f,6291cbae9c35f59eb5bf6a62,,,,,1,0,1,0,1,"X V Q F H G B L J M P D K C T S W R N Z
",,,,,,,,,,,,,,,,,,,,,,,,,,,,,,,,,,,,,,,,,,,,,,,,,,,,,,,,,,,,,,,,,,,,,,,,,,,,,,,,,,,,,,,,,,,,,
,,,,,,,,,,5d459d56cb2c450019293bd0,32,Kobieta,2022-05-28_09h14.03.215,task,2021.1.4,Win32,60.24096386,628b806c463b948bc644b84f,6291cbae9c35f59eb5bf6a62,,,,,,,,,,,zz,"[""z"",""z""]","[3.3310000000000173,3.562999999999988,4.014999999999986]",0,"ZZ
",0,0,0,0,1,,,,,,,,,,,,,,,,,,,,,,,,,,,,,,,,,,,,,,,,,,,,,,,,,,,,,,,,,,,,,,,,,,,,,,,,,,,,,,,,,,,
,,,,,,,,,,5d459d56cb2c450019293bd0,32,Kobieta,2022-05-28_09h14.03.215,task,2021.1.4,Win32,60.24096386,628b806c463b948bc644b84f,6291cbae9c35f59eb5bf6a62,,,,,0,0,0,0,1,"X V Q F H G B L J M P D K C T S W R N Z
",,,,,,,,,,,,,,,,,,,,,,,,,,,,,,,,,,,,,,,,,,,,,,,,,,,,,,,,,,,,,,,,,,,,,,,,,,,,,,,,,,,,,,,,,,,,,
,,,,,,,,,,5d459d56cb2c450019293bd0,32,Kobieta,2022-05-28_09h14.03.215,task,2021.1.4,Win32,60.24096386,628b806c463b948bc644b84f,6291cbae9c35f59eb5bf6a62,,,,,1,0,1,0,1,"X V Q F H G B L J M P D K C T S W R N Z
",,,,,,,,,,,,,,,,,,,,,,,,,,,,,,,,,,,,,,,,,,,,,,,,,,,,,,,,,,,,,,,,,,,,,,,,,,,,,,,,,,,,,,,,,,,,,
,,,,,,,,,,5d459d56cb2c450019293bd0,32,Kobieta,2022-05-28_09h14.03.215,task,2021.1.4,Win32,60.24096386,628b806c463b948bc644b84f,6291cbae9c35f59eb5bf6a62,,,,,,,,,,,vf,"[""v"",""f""]","[1.1329999999999814,1.483000000000004,1.9139999999999873]",1,VF,1,0,1,0,1,,,,,,,,,,,,,,,,,,,,,,,,,,,,,,,,,,,,,,,,,,,,,,,,,,,,,,,,,,,,,,,,,,,,,,,,,,,,,,,,,,,
,,,,,,,,,,5d459d56cb2c450019293bd0,32,Kobieta,2022-05-28_09h14.03.215,task,2021.1.4,Win32,60.24096386,628b806c463b948bc644b84f,6291cbae9c35f59eb5bf6a62,,,,,0,0,0,0,1,"X V Q F H G B L J M P D K C T S W R N Z
",,,,,,,,,,,,,,,,,,,,,,,,,,,,,,,,,,,,,,,,,,,,,,,,,,,,,,,,,,,,,,,,,,,,,,,,,,,,,,,,,,,,,,,,,,,,,
,,,,,,,,,,5d459d56cb2c450019293bd0,32,Kobieta,2022-05-28_09h14.03.215,task,2021.1.4,Win32,60.24096386,628b806c463b948bc644b84f,6291cbae9c35f59eb5bf6a62,,,,,1,0,1,0,1,"X V Q F H G B L J M P D K C T S W R N Z
",,,,,,,,,,,,,,,,,,,,,,,,,,,,,,,,,,,,,,,,,,,,,,,,,,,,,,,,,,,,,,,,,,,,,,,,,,,,,,,,,,,,,,,,,,,,,
,,,,,,,,,,5d459d56cb2c450019293bd0,32,Kobieta,2022-05-28_09h14.03.215,task,2021.1.4,Win32,60.24096386,628b806c463b948bc644b84f,6291cbae9c35f59eb5bf6a62,,,,,,,,,,,rp,"[""r"",""p""]","[1.2679999999999723,1.4850000000000136,2.5369999999999777]",1,RP,2,0,2,0,1,,,,,,,,,,,,,,,,,,,,,,,,,,,,,,,,,,,,,,,,,,,,,,,,,,,,,,,,,,,,,,,,,,,,,,,,,,,,,,,,,,,
,,,,,,,,,,5d459d56cb2c450019293bd0,32,Kobieta,2022-05-28_09h14.03.215,task,2021.1.4,Win32,60.24096386,628b806c463b948bc644b84f,6291cbae9c35f59eb5bf6a62,,,,,0,0,0,0,1,"X V Q F H G B L J M P D K C T S W R N Z
",,,,,,,,,,,,,,,,,,,,,,,,,,,,,,,,,,,,,,,,,,,,,,,,,,,,,,,,,,,,,,,,,,,,,,,,,,,,,,,,,,,,,,,,,,,,,
,,,,,,,,,,5d459d56cb2c450019293bd0,32,Kobieta,2022-05-28_09h14.03.215,task,2021.1.4,Win32,60.24096386,628b806c463b948bc644b84f,6291cbae9c35f59eb5bf6a62,,,,,1,0,1,0,1,"X V Q F H G B L J M P D K C T S W R N Z
",,,,,,,,,,,,,,,,,,,,,,,,,,,,,,,,,,,,,,,,,,,,,,,,,,,,,,,,,,,,,,,,,,,,,,,,,,,,,,,,,,,,,,,,,,,,,
,,,,,,,,,,5d459d56cb2c450019293bd0,32,Kobieta,2022-05-28_09h14.03.215,task,2021.1.4,Win32,60.24096386,628b806c463b948bc644b84f,6291cbae9c35f59eb5bf6a62,,,,,2,0,2,0,1,"X V Q F H G B L J M P D K C T S W R N Z
",,,,,,,,,,,,,,,,,,,,,,,,,,,,,,,,,,,,,,,,,,,,,,,,,,,,,,,,,,,,,,,,,,,,,,,,,,,,,,,,,,,,,,,,,,,,,
,,,,,,,,,,5d459d56cb2c450019293bd0,32,Kobieta,2022-05-28_09h14.03.215,task,2021.1.4,Win32,60.24096386,628b806c463b948bc644b84f,6291cbae9c35f59eb5bf6a62,,,,,,,,,,,rmr,"[""r"",""m"",""r""]","[0.7839999999999918,1.0330000000000155,1.3330000000000268,2.0670000000000073]",1,RMR,3,0,3,0,1,,,,,,,,,,,,,,,,,,,,,,,,,,,,,,,,,,,,,,,,,,,,,,,,,,,,,,,,,,,,,,,,,,,,,,,,,,,,,,,,,,,
,,,,,,,,,,5d459d56cb2c450019293bd0,32,Kobieta,2022-05-28_09h14.03.215,task,2021.1.4,Win32,60.24096386,628b806c463b948bc644b84f,6291cbae9c35f59eb5bf6a62,,,,,0,0,0,0,1,"X V Q F H G B L J M P D K C T S W R N Z
",,,,,,,,,,,,,,,,,,,,,,,,,,,,,,,,,,,,,,,,,,,,,,,,,,,,,,,,,,,,,,,,,,,,,,,,,,,,,,,,,,,,,,,,,,,,,
,,,,,,,,,,5d459d56cb2c450019293bd0,32,Kobieta,2022-05-28_09h14.03.215,task,2021.1.4,Win32,60.24096386,628b806c463b948bc644b84f,6291cbae9c35f59eb5bf6a62,,,,,1,0,1,0,1,"X V Q F H G B L J M P D K C T S W R N Z
",,,,,,,,,,,,,,,,,,,,,,,,,,,,,,,,,,,,,,,,,,,,,,,,,,,,,,,,,,,,,,,,,,,,,,,,,,,,,,,,,,,,,,,,,,,,,
,,,,,,,,,,5d459d56cb2c450019293bd0,32,Kobieta,2022-05-28_09h14.03.215,task,2021.1.4,Win32,60.24096386,628b806c463b948bc644b84f,6291cbae9c35f59eb5bf6a62,,,,,2,0,2,0,1,"X V Q F H G B L J M P D K C T S W R N Z
",,,,,,,,,,,,,,,,,,,,,,,,,,,,,,,,,,,,,,,,,,,,,,,,,,,,,,,,,,,,,,,,,,,,,,,,,,,,,,,,,,,,,,,,,,,,,
,,,,,,,,,,5d459d56cb2c450019293bd0,32,Kobieta,2022-05-28_09h14.03.215,task,2021.1.4,Win32,60.24096386,628b806c463b948bc644b84f,6291cbae9c35f59eb5bf6a62,,,,,,,,,,,xdc,"[""x"",""d"",""c""]","[0.75,1.0509999999999877,1.3009999999999877,1.816000000000031]",1,XDC,4,0,4,0,1,,,,,,,,,,,,,,,,,,,,,,,,,,,,,,,,,,,,,,,,,,,,,,,,,,,,,,,,,,,,,,,,,,,,,,,,,,,,,,,,,,,
,,,,,,,,,,5d459d56cb2c450019293bd0,32,Kobieta,2022-05-28_09h14.03.215,task,2021.1.4,Win32,60.24096386,628b806c463b948bc644b84f,6291cbae9c35f59eb5bf6a62,,,,,0,0,0,0,1,"X V Q F H G B L J M P D K C T S W R N Z
",,,,,,,,,,,,,,,,,,,,,,,,,,,,,,,,,,,,,,,,,,,,,,,,,,,,,,,,,,,,,,,,,,,,,,,,,,,,,,,,,,,,,,,,,,,,,
,,,,,,,,,,5d459d56cb2c450019293bd0,32,Kobieta,2022-05-28_09h14.03.215,task,2021.1.4,Win32,60.24096386,628b806c463b948bc644b84f,6291cbae9c35f59eb5bf6a62,,,,,1,0,1,0,1,"X V Q F H G B L J M P D K C T S W R N Z
",,,,,,,,,,,,,,,,,,,,,,,,,,,,,,,,,,,,,,,,,,,,,,,,,,,,,,,,,,,,,,,,,,,,,,,,,,,,,,,,,,,,,,,,,,,,,
,,,,,,,,,,5d459d56cb2c450019293bd0,32,Kobieta,2022-05-28_09h14.03.215,task,2021.1.4,Win32,60.24096386,628b806c463b948bc644b84f,6291cbae9c35f59eb5bf6a62,,,,,2,0,2,0,1,"X V Q F H G B L J M P D K C T S W R N Z
",,,,,,,,,,,,,,,,,,,,,,,,,,,,,,,,,,,,,,,,,,,,,,,,,,,,,,,,,,,,,,,,,,,,,,,,,,,,,,,,,,,,,,,,,,,,,
,,,,,,,,,,5d459d56cb2c450019293bd0,32,Kobieta,2022-05-28_09h14.03.215,task,2021.1.4,Win32,60.24096386,628b806c463b948bc644b84f,6291cbae9c35f59eb5bf6a62,,,,,3,0,3,0,1,"X V Q F H G B L J M P D K C T S W R N Z
",,,,,,,,,,,,,,,,,,,,,,,,,,,,,,,,,,,,,,,,,,,,,,,,,,,,,,,,,,,,,,,,,,,,,,,,,,,,,,,,,,,,,,,,,,,,,
,,,,,,,,,,5d459d56cb2c450019293bd0,32,Kobieta,2022-05-28_09h14.03.215,task,2021.1.4,Win32,60.24096386,628b806c463b948bc644b84f,6291cbae9c35f59eb5bf6a62,,,,,,,,,,,ghqb,"[""g"",""h"",""q"",""b""]","[2.0159999999999627,2.367999999999995,2.801999999999964,3.3069999999999595,4.046999999999969]",1,GHQB,5,0,5,0,1,,,,,,,,,,,,,,,,,,,,,,,,,,,,,,,,,,,,,,,,,,,,,,,,,,,,,,,,,,,,,,,,,,,,,,,,,,,,,,,,,,,
,,,,,,,,,,5d459d56cb2c450019293bd0,32,Kobieta,2022-05-28_09h14.03.215,task,2021.1.4,Win32,60.24096386,628b806c463b948bc644b84f,6291cbae9c35f59eb5bf6a62,,,,,0,0,0,0,1,"X V Q F H G B L J M P D K C T S W R N Z
",,,,,,,,,,,,,,,,,,,,,,,,,,,,,,,,,,,,,,,,,,,,,,,,,,,,,,,,,,,,,,,,,,,,,,,,,,,,,,,,,,,,,,,,,,,,,
,,,,,,,,,,5d459d56cb2c450019293bd0,32,Kobieta,2022-05-28_09h14.03.215,task,2021.1.4,Win32,60.24096386,628b806c463b948bc644b84f,6291cbae9c35f59eb5bf6a62,,,,,1,0,1,0,1,"X V Q F H G B L J M P D K C T S W R N Z
",,,,,,,,,,,,,,,,,,,,,,,,,,,,,,,,,,,,,,,,,,,,,,,,,,,,,,,,,,,,,,,,,,,,,,,,,,,,,,,,,,,,,,,,,,,,,
,,,,,,,,,,5d459d56cb2c450019293bd0,32,Kobieta,2022-05-28_09h14.03.215,task,2021.1.4,Win32,60.24096386,628b806c463b948bc644b84f,6291cbae9c35f59eb5bf6a62,,,,,2,0,2,0,1,"X V Q F H G B L J M P D K C T S W R N Z
",,,,,,,,,,,,,,,,,,,,,,,,,,,,,,,,,,,,,,,,,,,,,,,,,,,,,,,,,,,,,,,,,,,,,,,,,,,,,,,,,,,,,,,,,,,,,
,,,,,,,,,,5d459d56cb2c450019293bd0,32,Kobieta,2022-05-28_09h14.03.215,task,2021.1.4,Win32,60.24096386,628b806c463b948bc644b84f,6291cbae9c35f59eb5bf6a62,,,,,3,0,3,0,1,"X V Q F H G B L J M P D K C T S W R N Z
",,,,,,,,,,,,,,,,,,,,,,,,,,,,,,,,,,,,,,,,,,,,,,,,,,,,,,,,,,,,,,,,,,,,,,,,,,,,,,,,,,,,,,,,,,,,,
,,,,,,,,,,5d459d56cb2c450019293bd0,32,Kobieta,2022-05-28_09h14.03.215,task,2021.1.4,Win32,60.24096386,628b806c463b948bc644b84f,6291cbae9c35f59eb5bf6a62,,,,,,,,,,,chpn,"[""c"",""h"",""p"",""n""]","[0.8639999999999759,1.4510000000000218,1.8170000000000073,3.2660000000000196,4.316000000000031]",1,CHPN,6,0,6,0,1,,,,,,,,,,,,,,,,,,,,,,,,,,,,,,,,,,,,,,,,,,,,,,,,,,,,,,,,,,,,,,,,,,,,,,,,,,,,,,,,,,,
,,,,,,,,,,5d459d56cb2c450019293bd0,32,Kobieta,2022-05-28_09h14.03.215,task,2021.1.4,Win32,60.24096386,628b806c463b948bc644b84f,6291cbae9c35f59eb5bf6a62,,,,,0,0,0,0,1,"X V Q F H G B L J M P D K C T S W R N Z
",,,,,,,,,,,,,,,,,,,,,,,,,,,,,,,,,,,,,,,,,,,,,,,,,,,,,,,,,,,,,,,,,,,,,,,,,,,,,,,,,,,,,,,,,,,,,
,,,,,,,,,,5d459d56cb2c450019293bd0,32,Kobieta,2022-05-28_09h14.03.215,task,2021.1.4,Win32,60.24096386,628b806c463b948bc644b84f,6291cbae9c35f59eb5bf6a62,,,,,1,0,1,0,1,"X V Q F H G B L J M P D K C T S W R N Z
",,,,,,,,,,,,,,,,,,,,,,,,,,,,,,,,,,,,,,,,,,,,,,,,,,,,,,,,,,,,,,,,,,,,,,,,,,,,,,,,,,,,,,,,,,,,,
,,,,,,,,,,5d459d56cb2c450019293bd0,32,Kobieta,2022-05-28_09h14.03.215,task,2021.1.4,Win32,60.24096386,628b806c463b948bc644b84f,6291cbae9c35f59eb5bf6a62,,,,,2,0,2,0,1,"X V Q F H G B L J M P D K C T S W R N Z
",,,,,,,,,,,,,,,,,,,,,,,,,,,,,,,,,,,,,,,,,,,,,,,,,,,,,,,,,,,,,,,,,,,,,,,,,,,,,,,,,,,,,,,,,,,,,
,,,,,,,,,,5d459d56cb2c450019293bd0,32,Kobieta,2022-05-28_09h14.03.215,task,2021.1.4,Win32,60.24096386,628b806c463b948bc644b84f,6291cbae9c35f59eb5bf6a62,,,,,3,0,3,0,1,"X V Q F H G B L J M P D K C T S W R N Z
",,,,,,,,,,,,,,,,,,,,,,,,,,,,,,,,,,,,,,,,,,,,,,,,,,,,,,,,,,,,,,,,,,,,,,,,,,,,,,,,,,,,,,,,,,,,,
,,,,,,,,,,5d459d56cb2c450019293bd0,32,Kobieta,2022-05-28_09h14.03.215,task,2021.1.4,Win32,60.24096386,628b806c463b948bc644b84f,6291cbae9c35f59eb5bf6a62,,,,,4,0,4,0,1,"X V Q F H G B L J M P D K C T S W R N Z
",,,,,,,,,,,,,,,,,,,,,,,,,,,,,,,,,,,,,,,,,,,,,,,,,,,,,,,,,,,,,,,,,,,,,,,,,,,,,,,,,,,,,,,,,,,,,
,,,,,,,,,,5d459d56cb2c450019293bd0,32,Kobieta,2022-05-28_09h14.03.215,task,2021.1.4,Win32,60.24096386,628b806c463b948bc644b84f,6291cbae9c35f59eb5bf6a62,,,,,,,,,,,mmbpp,"[""m"",""m"",""b"",""p"",""p""]","[0.6349999999999909,0.8349999999999795,1.433999999999969,1.83299999999997,2.0020000000000095,2.4180000000000064]",1,MMBPP,7,0,7,0,1,,,,,,,,,,,,,,,,,,,,,,,,,,,,,,,,,,,,,,,,,,,,,,,,,,,,,,,,,,,,,,,,,,,,,,,,,,,,,,,,,,,
,,,,,,,,,,5d459d56cb2c450019293bd0,32,Kobieta,2022-05-28_09h14.03.215,task,2021.1.4,Win32,60.24096386,628b806c463b948bc644b84f,6291cbae9c35f59eb5bf6a62,,,,,0,0,0,0,1,"X V Q F H G B L J M P D K C T S W R N Z
",,,,,,,,,,,,,,,,,,,,,,,,,,,,,,,,,,,,,,,,,,,,,,,,,,,,,,,,,,,,,,,,,,,,,,,,,,,,,,,,,,,,,,,,,,,,,
,,,,,,,,,,5d459d56cb2c450019293bd0,32,Kobieta,2022-05-28_09h14.03.215,task,2021.1.4,Win32,60.24096386,628b806c463b948bc644b84f,6291cbae9c35f59eb5bf6a62,,,,,1,0,1,0,1,"X V Q F H G B L J M P D K C T S W R N Z
",,,,,,,,,,,,,,,,,,,,,,,,,,,,,,,,,,,,,,,,,,,,,,,,,,,,,,,,,,,,,,,,,,,,,,,,,,,,,,,,,,,,,,,,,,,,,
,,,,,,,,,,5d459d56cb2c450019293bd0,32,Kobieta,2022-05-28_09h14.03.215,task,2021.1.4,Win32,60.24096386,628b806c463b948bc644b84f,6291cbae9c35f59eb5bf6a62,,,,,2,0,2,0,1,"X V Q F H G B L J M P D K C T S W R N Z
",,,,,,,,,,,,,,,,,,,,,,,,,,,,,,,,,,,,,,,,,,,,,,,,,,,,,,,,,,,,,,,,,,,,,,,,,,,,,,,,,,,,,,,,,,,,,
,,,,,,,,,,5d459d56cb2c450019293bd0,32,Kobieta,2022-05-28_09h14.03.215,task,2021.1.4,Win32,60.24096386,628b806c463b948bc644b84f,6291cbae9c35f59eb5bf6a62,,,,,3,0,3,0,1,"X V Q F H G B L J M P D K C T S W R N Z
",,,,,,,,,,,,,,,,,,,,,,,,,,,,,,,,,,,,,,,,,,,,,,,,,,,,,,,,,,,,,,,,,,,,,,,,,,,,,,,,,,,,,,,,,,,,,
,,,,,,,,,,5d459d56cb2c450019293bd0,32,Kobieta,2022-05-28_09h14.03.215,task,2021.1.4,Win32,60.24096386,628b806c463b948bc644b84f,6291cbae9c35f59eb5bf6a62,,,,,4,0,4,0,1,"X V Q F H G B L J M P D K C T S W R N Z
",,,,,,,,,,,,,,,,,,,,,,,,,,,,,,,,,,,,,,,,,,,,,,,,,,,,,,,,,,,,,,,,,,,,,,,,,,,,,,,,,,,,,,,,,,,,,
,,,,,,,,,,5d459d56cb2c450019293bd0,32,Kobieta,2022-05-28_09h14.03.215,task,2021.1.4,Win32,60.24096386,628b806c463b948bc644b84f,6291cbae9c35f59eb5bf6a62,,,,,,,,,,,hjjbpw,"[""h"",""j"",""j"",""b"",""p"",""w""]","[0.8019999999999641,1.100999999999999,1.2839999999999918,1.6269999999999527,3.7829999999999586,5.079999999999984,5.481999999999971]",0,HJJBW,8,0,8,0,1,,,,,,,,,,,,,,,,,,,,,,,,,,,,,,,,,,,,,,,,,,,,,,,,,,,,,,,,,,,,,,,,,,,,,,,,,,,,,,,,,,,
,,,,,,,,,,5d459d56cb2c450019293bd0,32,Kobieta,2022-05-28_09h14.03.215,task,2021.1.4,Win32,60.24096386,628b806c463b948bc644b84f,6291cbae9c35f59eb5bf6a62,,,,,0,0,0,0,1,"X V Q F H G B L J M P D K C T S W R N Z
",,,,,,,,,,,,,,,,,,,,,,,,,,,,,,,,,,,,,,,,,,,,,,,,,,,,,,,,,,,,,,,,,,,,,,,,,,,,,,,,,,,,,,,,,,,,,
,,,,,,,,,,5d459d56cb2c450019293bd0,32,Kobieta,2022-05-28_09h14.03.215,task,2021.1.4,Win32,60.24096386,628b806c463b948bc644b84f,6291cbae9c35f59eb5bf6a62,,,,,1,0,1,0,1,"X V Q F H G B L J M P D K C T S W R N Z
",,,,,,,,,,,,,,,,,,,,,,,,,,,,,,,,,,,,,,,,,,,,,,,,,,,,,,,,,,,,,,,,,,,,,,,,,,,,,,,,,,,,,,,,,,,,,
,,,,,,,,,,5d459d56cb2c450019293bd0,32,Kobieta,2022-05-28_09h14.03.215,task,2021.1.4,Win32,60.24096386,628b806c463b948bc644b84f,6291cbae9c35f59eb5bf6a62,,,,,2,0,2,0,1,"X V Q F H G B L J M P D K C T S W R N Z
",,,,,,,,,,,,,,,,,,,,,,,,,,,,,,,,,,,,,,,,,,,,,,,,,,,,,,,,,,,,,,,,,,,,,,,,,,,,,,,,,,,,,,,,,,,,,
,,,,,,,,,,5d459d56cb2c450019293bd0,32,Kobieta,2022-05-28_09h14.03.215,task,2021.1.4,Win32,60.24096386,628b806c463b948bc644b84f,6291cbae9c35f59eb5bf6a62,,,,,3,0,3,0,1,"X V Q F H G B L J M P D K C T S W R N Z
",,,,,,,,,,,,,,,,,,,,,,,,,,,,,,,,,,,,,,,,,,,,,,,,,,,,,,,,,,,,,,,,,,,,,,,,,,,,,,,,,,,,,,,,,,,,,
,,,,,,,,,,5d459d56cb2c450019293bd0,32,Kobieta,2022-05-28_09h14.03.215,task,2021.1.4,Win32,60.24096386,628b806c463b948bc644b84f,6291cbae9c35f59eb5bf6a62,,,,,4,0,4,0,1,"X V Q F H G B L J M P D K C T S W R N Z
",,,,,,,,,,,,,,,,,,,,,,,,,,,,,,,,,,,,,,,,,,,,,,,,,,,,,,,,,,,,,,,,,,,,,,,,,,,,,,,,,,,,,,,,,,,,,
,,,,,,,,,,5d459d56cb2c450019293bd0,32,Kobieta,2022-05-28_09h14.03.215,task,2021.1.4,Win32,60.24096386,628b806c463b948bc644b84f,6291cbae9c35f59eb5bf6a62,,,,,,,,,,,rgjtp,"[""r"",""g"",""j"",""t"",""p""]","[1.450999999999965,3.6829999999999927,4.113999999999976,4.613999999999976,4.966000000000008,5.646000000000015]",1,RGJTP,9,0,9,0,1,,,,,,,,,,,,,,,,,,,,,,,,,,,,,,,,,,,,,,,,,,,,,,,,,,,,,,,,,,,,,,,,,,,,,,,,,,,,,,,,,,,
,,,,,,,,,,5d459d56cb2c450019293bd0,32,Kobieta,2022-05-28_09h14.03.215,task,2021.1.4,Win32,60.24096386,628b806c463b948bc644b84f,6291cbae9c35f59eb5bf6a62,,,,,0,0,0,0,1,"X V Q F H G B L J M P D K C T S W R N Z
",,,,,,,,,,,,,,,,,,,,,,,,,,,,,,,,,,,,,,,,,,,,,,,,,,,,,,,,,,,,,,,,,,,,,,,,,,,,,,,,,,,,,,,,,,,,,
,,,,,,,,,,5d459d56cb2c450019293bd0,32,Kobieta,2022-05-28_09h14.03.215,task,2021.1.4,Win32,60.24096386,628b806c463b948bc644b84f,6291cbae9c35f59eb5bf6a62,,,,,1,0,1,0,1,"X V Q F H G B L J M P D K C T S W R N Z
",,,,,,,,,,,,,,,,,,,,,,,,,,,,,,,,,,,,,,,,,,,,,,,,,,,,,,,,,,,,,,,,,,,,,,,,,,,,,,,,,,,,,,,,,,,,,
,,,,,,,,,,5d459d56cb2c450019293bd0,32,Kobieta,2022-05-28_09h14.03.215,task,2021.1.4,Win32,60.24096386,628b806c463b948bc644b84f,6291cbae9c35f59eb5bf6a62,,,,,2,0,2,0,1,"X V Q F H G B L J M P D K C T S W R N Z
",,,,,,,,,,,,,,,,,,,,,,,,,,,,,,,,,,,,,,,,,,,,,,,,,,,,,,,,,,,,,,,,,,,,,,,,,,,,,,,,,,,,,,,,,,,,,
,,,,,,,,,,5d459d56cb2c450019293bd0,32,Kobieta,2022-05-28_09h14.03.215,task,2021.1.4,Win32,60.24096386,628b806c463b948bc644b84f,6291cbae9c35f59eb5bf6a62,,,,,3,0,3,0,1,"X V Q F H G B L J M P D K C T S W R N Z
",,,,,,,,,,,,,,,,,,,,,,,,,,,,,,,,,,,,,,,,,,,,,,,,,,,,,,,,,,,,,,,,,,,,,,,,,,,,,,,,,,,,,,,,,,,,,
,,,,,,,,,,5d459d56cb2c450019293bd0,32,Kobieta,2022-05-28_09h14.03.215,task,2021.1.4,Win32,60.24096386,628b806c463b948bc644b84f,6291cbae9c35f59eb5bf6a62,,,,,4,0,4,0,1,"X V Q F H G B L J M P D K C T S W R N Z
",,,,,,,,,,,,,,,,,,,,,,,,,,,,,,,,,,,,,,,,,,,,,,,,,,,,,,,,,,,,,,,,,,,,,,,,,,,,,,,,,,,,,,,,,,,,,
,,,,,,,,,,5d459d56cb2c450019293bd0,32,Kobieta,2022-05-28_09h14.03.215,task,2021.1.4,Win32,60.24096386,628b806c463b948bc644b84f,6291cbae9c35f59eb5bf6a62,,,,,5,0,5,0,1,"X V Q F H G B L J M P D K C T S W R N Z
",,,,,,,,,,,,,,,,,,,,,,,,,,,,,,,,,,,,,,,,,,,,,,,,,,,,,,,,,,,,,,,,,,,,,,,,,,,,,,,,,,,,,,,,,,,,,
,,,,,,,,,,5d459d56cb2c450019293bd0,32,Kobieta,2022-05-28_09h14.03.215,task,2021.1.4,Win32,60.24096386,628b806c463b948bc644b84f,6291cbae9c35f59eb5bf6a62,,,,,,,,,,,rlqtx,"[""r"",""l"",""q"",""t"",""x""]","[1.2690000000000055,2.5300000000000296,3.4010000000000105,4.0160000000000196,6.979000000000042,8.095000000000027]",0,RLQTXK,10,0,10,0,1,,,,,,,,,,,,,,,,,,,,,,,,,,,,,,,,,,,,,,,,,,,,,,,,,,,,,,,,,,,,,,,,,,,,,,,,,,,,,,,,,,,
,,,,,,,,,,5d459d56cb2c450019293bd0,32,Kobieta,2022-05-28_09h14.03.215,task,2021.1.4,Win32,60.24096386,628b806c463b948bc644b84f,6291cbae9c35f59eb5bf6a62,,,,,0,0,0,0,1,"X V Q F H G B L J M P D K C T S W R N Z
",,,,,,,,,,,,,,,,,,,,,,,,,,,,,,,,,,,,,,,,,,,,,,,,,,,,,,,,,,,,,,,,,,,,,,,,,,,,,,,,,,,,,,,,,,,,,
,,,,,,,,,,5d459d56cb2c450019293bd0,32,Kobieta,2022-05-28_09h14.03.215,task,2021.1.4,Win32,60.24096386,628b806c463b948bc644b84f,6291cbae9c35f59eb5bf6a62,,,,,1,0,1,0,1,"X V Q F H G B L J M P D K C T S W R N Z
",,,,,,,,,,,,,,,,,,,,,,,,,,,,,,,,,,,,,,,,,,,,,,,,,,,,,,,,,,,,,,,,,,,,,,,,,,,,,,,,,,,,,,,,,,,,,
,,,,,,,,,,5d459d56cb2c450019293bd0,32,Kobieta,2022-05-28_09h14.03.215,task,2021.1.4,Win32,60.24096386,628b806c463b948bc644b84f,6291cbae9c35f59eb5bf6a62,,,,,2,0,2,0,1,"X V Q F H G B L J M P D K C T S W R N Z
",,,,,,,,,,,,,,,,,,,,,,,,,,,,,,,,,,,,,,,,,,,,,,,,,,,,,,,,,,,,,,,,,,,,,,,,,,,,,,,,,,,,,,,,,,,,,
,,,,,,,,,,5d459d56cb2c450019293bd0,32,Kobieta,2022-05-28_09h14.03.215,task,2021.1.4,Win32,60.24096386,628b806c463b948bc644b84f,6291cbae9c35f59eb5bf6a62,,,,,3,0,3,0,1,"X V Q F H G B L J M P D K C T S W R N Z
",,,,,,,,,,,,,,,,,,,,,,,,,,,,,,,,,,,,,,,,,,,,,,,,,,,,,,,,,,,,,,,,,,,,,,,,,,,,,,,,,,,,,,,,,,,,,
,,,,,,,,,,5d459d56cb2c450019293bd0,32,Kobieta,2022-05-28_09h14.03.215,task,2021.1.4,Win32,60.24096386,628b806c463b948bc644b84f,6291cbae9c35f59eb5bf6a62,,,,,4,0,4,0,1,"X V Q F H G B L J M P D K C T S W R N Z
",,,,,,,,,,,,,,,,,,,,,,,,,,,,,,,,,,,,,,,,,,,,,,,,,,,,,,,,,,,,,,,,,,,,,,,,,,,,,,,,,,,,,,,,,,,,,
,,,,,,,,,,5d459d56cb2c450019293bd0,32,Kobieta,2022-05-28_09h14.03.215,task,2021.1.4,Win32,60.24096386,628b806c463b948bc644b84f,6291cbae9c35f59eb5bf6a62,,,,,5,0,5,0,1,"X V Q F H G B L J M P D K C T S W R N Z
",,,,,,,,,,,,,,,,,,,,,,,,,,,,,,,,,,,,,,,,,,,,,,,,,,,,,,,,,,,,,,,,,,,,,,,,,,,,,,,,,,,,,,,,,,,,,
,,,,,,,,,,5d459d56cb2c450019293bd0,32,Kobieta,2022-05-28_09h14.03.215,task,2021.1.4,Win32,60.24096386,628b806c463b948bc644b84f,6291cbae9c35f59eb5bf6a62,,,,,,,,,,,hhtslq,"[""h"",""h"",""t"",""s"",""l"",""q""]","[1.6239999999999668,1.7919999999999732,2.0570000000000164,2.3039999999999736,2.690999999999974,2.920000000000016,3.4189999999999827]",1,HHTSLQ,11,0,11,0,1,,,,,,,,,,,,,,,,,,,,,,,,,,,,,,,,,,,,,,,,,,,,,,,,,,,,,,,,,,,,,,,,,,,,,,,,,,,,,,,,,,,
,,,,,,,,,,5d459d56cb2c450019293bd0,32,Kobieta,2022-05-28_09h14.03.215,task,2021.1.4,Win32,60.24096386,628b806c463b948bc644b84f,6291cbae9c35f59eb5bf6a62,,,,,0,0,0,0,1,"X V Q F H G B L J M P D K C T S W R N Z
",,,,,,,,,,,,,,,,,,,,,,,,,,,,,,,,,,,,,,,,,,,,,,,,,,,,,,,,,,,,,,,,,,,,,,,,,,,,,,,,,,,,,,,,,,,,,
,,,,,,,,,,5d459d56cb2c450019293bd0,32,Kobieta,2022-05-28_09h14.03.215,task,2021.1.4,Win32,60.24096386,628b806c463b948bc644b84f,6291cbae9c35f59eb5bf6a62,,,,,1,0,1,0,1,"X V Q F H G B L J M P D K C T S W R N Z
",,,,,,,,,,,,,,,,,,,,,,,,,,,,,,,,,,,,,,,,,,,,,,,,,,,,,,,,,,,,,,,,,,,,,,,,,,,,,,,,,,,,,,,,,,,,,
,,,,,,,,,,5d459d56cb2c450019293bd0,32,Kobieta,2022-05-28_09h14.03.215,task,2021.1.4,Win32,60.24096386,628b806c463b948bc644b84f,6291cbae9c35f59eb5bf6a62,,,,,2,0,2,0,1,"X V Q F H G B L J M P D K C T S W R N Z
",,,,,,,,,,,,,,,,,,,,,,,,,,,,,,,,,,,,,,,,,,,,,,,,,,,,,,,,,,,,,,,,,,,,,,,,,,,,,,,,,,,,,,,,,,,,,
,,,,,,,,,,5d459d56cb2c450019293bd0,32,Kobieta,2022-05-28_09h14.03.215,task,2021.1.4,Win32,60.24096386,628b806c463b948bc644b84f,6291cbae9c35f59eb5bf6a62,,,,,3,0,3,0,1,"X V Q F H G B L J M P D K C T S W R N Z
",,,,,,,,,,,,,,,,,,,,,,,,,,,,,,,,,,,,,,,,,,,,,,,,,,,,,,,,,,,,,,,,,,,,,,,,,,,,,,,,,,,,,,,,,,,,,
,,,,,,,,,,5d459d56cb2c450019293bd0,32,Kobieta,2022-05-28_09h14.03.215,task,2021.1.4,Win32,60.24096386,628b806c463b948bc644b84f,6291cbae9c35f59eb5bf6a62,,,,,4,0,4,0,1,"X V Q F H G B L J M P D K C T S W R N Z
",,,,,,,,,,,,,,,,,,,,,,,,,,,,,,,,,,,,,,,,,,,,,,,,,,,,,,,,,,,,,,,,,,,,,,,,,,,,,,,,,,,,,,,,,,,,,
,,,,,,,,,,5d459d56cb2c450019293bd0,32,Kobieta,2022-05-28_09h14.03.215,task,2021.1.4,Win32,60.24096386,628b806c463b948bc644b84f,6291cbae9c35f59eb5bf6a62,,,,,5,0,5,0,1,"X V Q F H G B L J M P D K C T S W R N Z
",,,,,,,,,,,,,,,,,,,,,,,,,,,,,,,,,,,,,,,,,,,,,,,,,,,,,,,,,,,,,,,,,,,,,,,,,,,,,,,,,,,,,,,,,,,,,
,,,,,,,,,,5d459d56cb2c450019293bd0,32,Kobieta,2022-05-28_09h14.03.215,task,2021.1.4,Win32,60.24096386,628b806c463b948bc644b84f,6291cbae9c35f59eb5bf6a62,,,,,,,,,,,,[],[5.4979999999999905],0,NRHGGD,12,0,12,0,1,,,,,,,,,,,,,,,,,,,,,,,,,,,,,,,,,,,,,,,,,,,,,,,,,,,,,,,,,,,,,,,,,,,,,,,,,,,,,,,,,,,
,,,,,,,,,,5d459d56cb2c450019293bd0,32,Kobieta,2022-05-28_09h14.03.215,task,2021.1.4,Win32,60.24096386,628b806c463b948bc644b84f,6291cbae9c35f59eb5bf6a62,,,,,0,0,0,0,1,"X V Q F H G B L J M P D K C T S W R N Z
",,,,,,,,,,,,,,,,,,,,,,,,,,,,,,,,,,,,,,,,,,,,,,,,,,,,,,,,,,,,,,,,,,,,,,,,,,,,,,,,,,,,,,,,,,,,,
,,,,,,,,,,5d459d56cb2c450019293bd0,32,Kobieta,2022-05-28_09h14.03.215,task,2021.1.4,Win32,60.24096386,628b806c463b948bc644b84f,6291cbae9c35f59eb5bf6a62,,,,,1,0,1,0,1,"X V Q F H G B L J M P D K C T S W R N Z
",,,,,,,,,,,,,,,,,,,,,,,,,,,,,,,,,,,,,,,,,,,,,,,,,,,,,,,,,,,,,,,,,,,,,,,,,,,,,,,,,,,,,,,,,,,,,
,,,,,,,,,,5d459d56cb2c450019293bd0,32,Kobieta,2022-05-28_09h14.03.215,task,2021.1.4,Win32,60.24096386,628b806c463b948bc644b84f,6291cbae9c35f59eb5bf6a62,,,,,2,0,2,0,1,"X V Q F H G B L J M P D K C T S W R N Z
",,,,,,,,,,,,,,,,,,,,,,,,,,,,,,,,,,,,,,,,,,,,,,,,,,,,,,,,,,,,,,,,,,,,,,,,,,,,,,,,,,,,,,,,,,,,,
,,,,,,,,,,5d459d56cb2c450019293bd0,32,Kobieta,2022-05-28_09h14.03.215,task,2021.1.4,Win32,60.24096386,628b806c463b948bc644b84f,6291cbae9c35f59eb5bf6a62,,,,,3,0,3,0,1,"X V Q F H G B L J M P D K C T S W R N Z
",,,,,,,,,,,,,,,,,,,,,,,,,,,,,,,,,,,,,,,,,,,,,,,,,,,,,,,,,,,,,,,,,,,,,,,,,,,,,,,,,,,,,,,,,,,,,
,,,,,,,,,,5d459d56cb2c450019293bd0,32,Kobieta,2022-05-28_09h14.03.215,task,2021.1.4,Win32,60.24096386,628b806c463b948bc644b84f,6291cbae9c35f59eb5bf6a62,,,,,4,0,4,0,1,"X V Q F H G B L J M P D K C T S W R N Z
",,,,,,,,,,,,,,,,,,,,,,,,,,,,,,,,,,,,,,,,,,,,,,,,,,,,,,,,,,,,,,,,,,,,,,,,,,,,,,,,,,,,,,,,,,,,,
,,,,,,,,,,5d459d56cb2c450019293bd0,32,Kobieta,2022-05-28_09h14.03.215,task,2021.1.4,Win32,60.24096386,628b806c463b948bc644b84f,6291cbae9c35f59eb5bf6a62,,,,,5,0,5,0,1,"X V Q F H G B L J M P D K C T S W R N Z
",,,,,,,,,,,,,,,,,,,,,,,,,,,,,,,,,,,,,,,,,,,,,,,,,,,,,,,,,,,,,,,,,,,,,,,,,,,,,,,,,,,,,,,,,,,,,
,,,,,,,,,,5d459d56cb2c450019293bd0,32,Kobieta,2022-05-28_09h14.03.215,task,2021.1.4,Win32,60.24096386,628b806c463b948bc644b84f,6291cbae9c35f59eb5bf6a62,,,,,,,,,,,xvczxvy,"[""x"",""v"",""c"",""z"",""x"",""v"",""y""]","[1.1169999999999618,1.4699999999999704,1.7349999999999568,2.116999999999962,3.3009999999999877,4.182999999999993,4.4669999999999845,4.764999999999986]",0,"XVCZ
VK",13,0,13,0,1,,,,,,,,,,,,,,,,,,,,,,,,,,,,,,,,,,,,,,,,,,,,,,,,,,,,,,,,,,,,,,,,,,,,,,,,,,,,,,,,,,,
,,,,,,,,,,5d459d56cb2c450019293bd0,32,Kobieta,2022-05-28_09h14.03.215,task,2021.1.4,Win32,60.24096386,628b806c463b948bc644b84f,6291cbae9c35f59eb5bf6a62,,,,,,,,,,,,,,,,,,,,,space,10.095,1,"[""1""]",1,[6.944000000000017],[6.944000000000017],0,0,0,1,1,Practice,2,(4x4) - 15,1,,,,,,,,,,,,,,,,,,,,,,,,,,,,,,,,,,,,,,,,,,,,,,,,,,,,,,,,,,,,,,,,,,,
,,,,,,,,,,5d459d56cb2c450019293bd0,32,Kobieta,2022-05-28_09h14.03.215,task,2021.1.4,Win32,60.24096386,628b806c463b948bc644b84f,6291cbae9c35f59eb5bf6a62,,,,,,,,,,,,,,,,,,,,,,,8,"[""8""]",1,[2.9670000000000982],"[6.944000000000017,2.9670000000000982]",0,1,1,8,1,Practice,9,(3x3) - 1,8,,,,,,,,,,,,,,,,,,,,,,,,,,,,,,,,,,,,,,,,,,,,,,,,,,,,,,,,,,,,,,,,,,,
,,,,,,,,,,5d459d56cb2c450019293bd0,32,Kobieta,2022-05-28_09h14.03.215,task,2021.1.4,Win32,60.24096386,628b806c463b948bc644b84f,6291cbae9c35f59eb5bf6a62,,,,,,,,,,,,,,,,,,,,,,,9,"[""9""]",1,[1.7850000000000819],"[6.944000000000017,2.9670000000000982,1.7850000000000819]",0,2,2,9,1,Practice,10,(20/2) - 1,9,,,,,,,,,,,,,,,,,,,,,,,,,,,,,,,,,,,,,,,,,,,,,,,,,,,,,,,,,,,,,,,,,,,
,,,,,,,,,,5d459d56cb2c450019293bd0,32,Kobieta,2022-05-28_09h14.03.215,task,2021.1.4,Win32,60.24096386,628b806c463b948bc644b84f,6291cbae9c35f59eb5bf6a62,,,,,,,,,,,,,,,,,,,,,,,7,"[""7""]",1,[3.3829999999999245],"[6.944000000000017,2.9670000000000982,1.7850000000000819,3.3829999999999245]",0,3,3,7,1,Practice,8,(5x5) - 18,7,,,,,,,,,,,,,,,,,,,,,,,,,,,,,,,,,,,,,,,,,,,,,,,,,,,,,,,,,,,,,,,,,,,
,,,,,,,,,,5d459d56cb2c450019293bd0,32,Kobieta,2022-05-28_09h14.03.215,task,2021.1.4,Win32,60.24096386,628b806c463b948bc644b84f,6291cbae9c35f59eb5bf6a62,,,,,,,,,,,,,,,,,,,,,,,2,"[""2""]",1,[1.586999999999989],"[6.944000000000017,2.9670000000000982,1.7850000000000819,3.3829999999999245,1.586999999999989]",0,4,4,2,1,Practice,3,(4x4) - 14,2,,,,,,,,,,,,,,,,,,,,,,,,,,,,,,,,,,,,,,,,,,,,,,,,,,,,,,,,,,,,,,,,,,,
,,,,,,,,,,5d459d56cb2c450019293bd0,32,Kobieta,2022-05-28_09h14.03.215,task,2021.1.4,Win32,60.24096386,628b806c463b948bc644b84f,6291cbae9c35f59eb5bf6a62,,,,,,,,,,,,,,,,,,,,,,,6,"[""6""]",1,[1.8319999999999936],"[6.944000000000017,2.9670000000000982,1.7850000000000819,3.3829999999999245,1.586999999999989,1.8319999999999936]",0,5,5,6,1,Practice,7,(25/5) + 1,6,,,,,,,,,,,,,,,,,,,,,,,,,,,,,,,,,,,,,,,,,,,,,,,,,,,,,,,,,,,,,,,,,,,
,,,,,,,,,,5d459d56cb2c450019293bd0,32,Kobieta,2022-05-28_09h14.03.215,task,2021.1.4,Win32,60.24096386,628b806c463b948bc644b84f,6291cbae9c35f59eb5bf6a62,,,,,,,,,,,,,,,,,,,,,,,0,"[""0""]",1,[1.447999999999979],"[6.944000000000017,2.9670000000000982,1.7850000000000819,3.3829999999999245,1.586999999999989,1.8319999999999936,1.447999999999979]",0,6,6,0,1,Practice,1,(3x3) -  9,0,,,,,,,,,,,,,,,,,,,,,,,,,,,,,,,,,,,,,,,,,,,,,,,,,,,,,,,,,,,,,,,,,,,
,,,,,,,,,,5d459d56cb2c450019293bd0,32,Kobieta,2022-05-28_09h14.03.215,task,2021.1.4,Win32,60.24096386,628b806c463b948bc644b84f,6291cbae9c35f59eb5bf6a62,,,,,,,,,,,,,,,,,,,,,,,4,"[""4""]",1,[3.4670000000000982],"[6.944000000000017,2.9670000000000982,1.7850000000000819,3.3829999999999245,1.586999999999989,1.8319999999999936,1.447999999999979,3.4670000000000982]",0,7,7,4,1,Practice,5,(2x6) - 8,4,,,,,,,,,,,,,,,,,,,,,,,,,,,,,,,,,,,,,,,,,,,,,,,,,,,,,,,,,,,,,,,,,,,
,,,,,,,,,,5d459d56cb2c450019293bd0,32,Kobieta,2022-05-28_09h14.03.215,task,2021.1.4,Win32,60.24096386,628b806c463b948bc644b84f,6291cbae9c35f59eb5bf6a62,,,,,,,,,,,,,,,,,,,,,,,3,"[""3""]",1,[2.266999999999939],"[6.944000000000017,2.9670000000000982,1.7850000000000819,3.3829999999999245,1.586999999999989,1.8319999999999936,1.447999999999979,3.4670000000000982,2.266999999999939]",0,8,8,3,1,Practice,4,(8/4) + 1,3,,,,,,,,,,,,,,,,,,,,,,,,,,,,,,,,,,,,,,,,,,,,,,,,,,,,,,,,,,,,,,,,,,,
,,,,,,,,,,5d459d56cb2c450019293bd0,32,Kobieta,2022-05-28_09h14.03.215,task,2021.1.4,Win32,60.24096386,628b806c463b948bc644b84f,6291cbae9c35f59eb5bf6a62,,,,,,,,,,,,,,,,,,,,,,,5,"[""5""]",1,[2.3799999999999955],"[6.944000000000017,2.9670000000000982,1.7850000000000819,3.3829999999999245,1.586999999999989,1.8319999999999936,1.447999999999979,3.4670000000000982,2.266999999999939,2.3799999999999955]",0,9,9,5,1,Practice,6,(4/2) + 3,5,,,,,,,,,,,,,,,,,,,,,,,,,,,,,,,,,,,,,,,,,,,,,,,,,,,,,,,,,,,,,,,,,,,
,,,,,,,,,,5d459d56cb2c450019293bd0,32,Kobieta,2022-05-28_09h14.03.215,task,2021.1.4,Win32,60.24096386,628b806c463b948bc644b84f,6291cbae9c35f59eb5bf6a62,,,,,,,,,,,,,,,,,,,,,,,,,,,,,,,,,,,,,1,28.06,1.870666667,32.46053844,1.471066245,5.666017578,space,2.237,0,0,0,0,1,,,,,,,,,,,,,,,,,,,,,,,,,,,,,,,,,,,,,,,,,,,,,,,,,,,,,,
,,,,,,,,,,5d459d56cb2c450019293bd0,32,Kobieta,2022-05-28_09h14.03.215,task,2021.1.4,Win32,60.24096386,628b806c463b948bc644b84f,6291cbae9c35f59eb5bf6a62,,,,,,,,,,,,,,,,,,,,,,,2,,,,,,,,,,Practice,3,(4x4) - 14,2,,,,,,,,,,,,,,space,17.889,"[""2""]",1,[2.9189999999999827],1,0,0,0,2,1,,,,,,,,,,,,,,,,,,,,,,,,,,,,,,,,,,,,,,,,,,,
,,,,,,,,,,5d459d56cb2c450019293bd0,32,Kobieta,2022-05-28_09h14.03.215,task,2021.1.4,Win32,60.24096386,628b806c463b948bc644b84f,6291cbae9c35f59eb5bf6a62,,,,,,,,,,"X V Q F H G B L J M P D K C T S W R N Z
",,,,,,,,,,,,,,,,,,,,,,,,,,,,,,,,,,,,,,,,,,,,,,,,,,,0,0,0,0,1,,,,,,,,,,,,,,,,,,,,,,,,,,,,,,,,,,,,,,
,,,,,,,,,,5d459d56cb2c450019293bd0,32,Kobieta,2022-05-28_09h14.03.215,task,2021.1.4,Win32,60.24096386,628b806c463b948bc644b84f,6291cbae9c35f59eb5bf6a62,,,,,,,,,,,,,,,,,,,,,,,3,,,,,,,,,,Practice,4,(8/4) + 1,3,,,,,,,,,,,,,,,,"[""3""]",1,[3.342999999999961],1,0,0,0,3,1,,,,,,,,,,,,,,,,,,,,,,,,,,,,,,,,,,,,,,,,,,,
,,,,,,,,,,5d459d56cb2c450019293bd0,32,Kobieta,2022-05-28_09h14.03.215,task,2021.1.4,Win32,60.24096386,628b806c463b948bc644b84f,6291cbae9c35f59eb5bf6a62,,,,,,,,,,"X V Q F H G B L J M P D K C T S W R N Z
",,,,,,,,,,,,,,,,,,,,,,,,,,,,,,,,,,,,,,,,,,,,,,,,,,,1,0,1,0,1,,,,,,,,,,,,,,,,,,,,,,,,,,,,,,,,,,,,,,
,,,,,,,,,,5d459d56cb2c450019293bd0,32,Kobieta,2022-05-28_09h14.03.215,task,2021.1.4,Win32,60.24096386,628b806c463b948bc644b84f,6291cbae9c35f59eb5bf6a62,,,,,,,,,,,,,,,,,,,,,,,,,,,,,,,,,,,,,,,,,,,,,,,,,,,,,,,,,,,,,,,,,,zn,"[""z"",""n""]",0,"[2.4360000000000355,2.56899999999996,3.336999999999989]",1,0,0,0,0,1,,,,,,,,,,,,,,,,,,,,,,,,,,,,
,,,,,,,,,,5d459d56cb2c450019293bd0,32,Kobieta,2022-05-28_09h14.03.215,task,2021.1.4,Win32,60.24096386,628b806c463b948bc644b84f,6291cbae9c35f59eb5bf6a62,,,,,,,,,,,,,,,,,,,,,,,4,,,,,,,,,,Practice,5,(2x6) - 8,4,,,,,,,,,,,,,,,,"[""4""]",1,[2.8419999999999845],1,0,0,0,4,1,,,,,,,,,,,,,,,,,,,,,,,,,,,,,,,,,,,,,,,,,,,
,,,,,,,,,,5d459d56cb2c450019293bd0,32,Kobieta,2022-05-28_09h14.03.215,task,2021.1.4,Win32,60.24096386,628b806c463b948bc644b84f,6291cbae9c35f59eb5bf6a62,,,,,,,,,,"X V Q F H G B L J M P D K C T S W R N Z
",,,,,,,,,,,,,,,,,,,,,,,,,,,,,,,,,,,,,,,,,,,,,,,,,,,0,0,0,0,1,,,,,,,,,,,,,,,,,,,,,,,,,,,,,,,,,,,,,,
,,,,,,,,,,5d459d56cb2c450019293bd0,32,Kobieta,2022-05-28_09h14.03.215,task,2021.1.4,Win32,60.24096386,628b806c463b948bc644b84f,6291cbae9c35f59eb5bf6a62,,,,,,,,,,,,,,,,,,,,,,,6,,,,,,,,,,Practice,7,(25/5) + 1,6,,,,,,,,,,,,,,,,"[""6""]",1,[1.4990000000000236],1,0,0,0,6,1,,,,,,,,,,,,,,,,,,,,,,,,,,,,,,,,,,,,,,,,,,,
,,,,,,,,,,5d459d56cb2c450019293bd0,32,Kobieta,2022-05-28_09h14.03.215,task,2021.1.4,Win32,60.24096386,628b806c463b948bc644b84f,6291cbae9c35f59eb5bf6a62,,,,,,,,,,"X V Q F H G B L J M P D K C T S W R N Z
",,,,,,,,,,,,,,,,,,,,,,,,,,,,,,,,,,,,,,,,,,,,,,,,,,,1,0,1,0,1,,,,,,,,,,,,,,,,,,,,,,,,,,,,,,,,,,,,,,
,,,,,,,,,,5d459d56cb2c450019293bd0,32,Kobieta,2022-05-28_09h14.03.215,task,2021.1.4,Win32,60.24096386,628b806c463b948bc644b84f,6291cbae9c35f59eb5bf6a62,,,,,,,,,,,,,,,,,,,,,,,,,,,,,,,,,,,,,,,,,,,,,,,,,,,,,,,,,,,,,,,,,,ks,"[""k"",""s""]",0,"[1.7210000000000036,1.8539999999999281,2.4029999999999063]",1,1,0,1,0,1,,,,,,,,,,,,,,,,,,,,,,,,,,,,
,,,,,,,,,,5d459d56cb2c450019293bd0,32,Kobieta,2022-05-28_09h14.03.215,task,2021.1.4,Win32,60.24096386,628b806c463b948bc644b84f,6291cbae9c35f59eb5bf6a62,,,,,,,,,,,,,,,,,,,,,,,1,,,,,,,,,,Practice,2,(4x4) - 15,1,,,,,,,,,,,,,,,,"[""1""]",1,[1.2959999999999354],1,0,0,0,1,1,,,,,,,,,,,,,,,,,,,,,,,,,,,,,,,,,,,,,,,,,,,
,,,,,,,,,,5d459d56cb2c450019293bd0,32,Kobieta,2022-05-28_09h14.03.215,task,2021.1.4,Win32,60.24096386,628b806c463b948bc644b84f,6291cbae9c35f59eb5bf6a62,,,,,,,,,,"X V Q F H G B L J M P D K C T S W R N Z
",,,,,,,,,,,,,,,,,,,,,,,,,,,,,,,,,,,,,,,,,,,,,,,,,,,0,0,0,0,1,,,,,,,,,,,,,,,,,,,,,,,,,,,,,,,,,,,,,,
,,,,,,,,,,5d459d56cb2c450019293bd0,32,Kobieta,2022-05-28_09h14.03.215,task,2021.1.4,Win32,60.24096386,628b806c463b948bc644b84f,6291cbae9c35f59eb5bf6a62,,,,,,,,,,,,,,,,,,,,,,,1,,,,,,,,,,Practice,2,(4x4) - 15,1,,,,,,,,,,,,,,,,"[""1""]",1,[1.572999999999979],1,0,0,0,1,1,,,,,,,,,,,,,,,,,,,,,,,,,,,,,,,,,,,,,,,,,,,
,,,,,,,,,,5d459d56cb2c450019293bd0,32,Kobieta,2022-05-28_09h14.03.215,task,2021.1.4,Win32,60.24096386,628b806c463b948bc644b84f,6291cbae9c35f59eb5bf6a62,,,,,,,,,,"X V Q F H G B L J M P D K C T S W R N Z
",,,,,,,,,,,,,,,,,,,,,,,,,,,,,,,,,,,,,,,,,,,,,,,,,,,1,0,1,0,1,,,,,,,,,,,,,,,,,,,,,,,,,,,,,,,,,,,,,,
,,,,,,,,,,5d459d56cb2c450019293bd0,32,Kobieta,2022-05-28_09h14.03.215,task,2021.1.4,Win32,60.24096386,628b806c463b948bc644b84f,6291cbae9c35f59eb5bf6a62,,,,,,,,,,,,,,,,,,,,,,,,,,,,,,,,,,,,,,,,,,,,,,,,,,,,,,,,,,,,,,,,,,ks,"[""k"",""s""]",0,"[1.4210000000000491,1.6359999999999673,2.2200000000000273]",1,2,0,2,0,1,,,,,,,,,,,,,,,,,,,,,,,,,,,,
,,,,,,,,,,5d459d56cb2c450019293bd0,32,Kobieta,2022-05-28_09h14.03.215,task,2021.1.4,Win32,60.24096386,628b806c463b948bc644b84f,6291cbae9c35f59eb5bf6a62,,,,,,,,,,,,,,,,,,,,,,,7,,,,,,,,,,Task,31,(4/2) + 5,7,,,,,,,,,,,,,,,,,,,1,,,,,,,,,,,,,,,,,,,,,space,14.026,"[""7""]",1,[2.5720000000000027],0,0,0,30,1,,,,,,,,,,,,,,,,,,
,,,,,,,,,,5d459d56cb2c450019293bd0,32,Kobieta,2022-05-28_09h14.03.215,task,2021.1.4,Win32,60.24096386,628b806c463b948bc644b84f,6291cbae9c35f59eb5bf6a62,,,,,,,,,,"X V Q F H G B L J M P D K C T S W R N Z
",,,,,,,,,,,,,,,,,,,,,,,,,,,,,,,,,,,,,,,,,,,,,,,,,,,,,,,,,,,,,,,,,,,,,,,,,,,,0,0,0,0,1,,,,,,,,,,,,,
,,,,,,,,,,5d459d56cb2c450019293bd0,32,Kobieta,2022-05-28_09h14.03.215,task,2021.1.4,Win32,60.24096386,628b806c463b948bc644b84f,6291cbae9c35f59eb5bf6a62,,,,,,,,,,,,,,,,,,,,,,,3,,,,,,,,,,Task,3,(2x3) - 3,3,,,,,,,,,,,,,,,,,,,1,,,,,,,,,,,,,,,,,,,,,,,"[""3""]",1,[2.0639999999999645],0,0,0,2,1,,,,,,,,,,,,,,,,,,
,,,,,,,,,,5d459d56cb2c450019293bd0,32,Kobieta,2022-05-28_09h14.03.215,task,2021.1.4,Win32,60.24096386,628b806c463b948bc644b84f,6291cbae9c35f59eb5bf6a62,,,,,,,,,,"X V Q F H G B L J M P D K C T S W R N Z
",,,,,,,,,,,,,,,,,,,,,,,,,,,,,,,,,,,,,,,,,,,,,,,,,,,,,,,,,,,,,,,,,,,,,,,,,,,,1,0,1,0,1,,,,,,,,,,,,,
,,,,,,,,,,5d459d56cb2c450019293bd0,32,Kobieta,2022-05-28_09h14.03.215,task,2021.1.4,Win32,60.24096386,628b806c463b948bc644b84f,6291cbae9c35f59eb5bf6a62,,,,,,,,,,,,,,,,,,,,,,,,,,,,,,,,,,,,,,,,,,,,,,,,,,,,,,,,,,,,,,,,,,,,,,,,,,,,,,,,,,,,,,,,,,,zp,"[""z"",""p""]",0,"[1.65199999999993,1.7859999999999445,2.4009999999999536]",1,ZP,0,0,0,0,1,,
,,,,,,,,,,5d459d56cb2c450019293bd0,32,Kobieta,2022-05-28_09h14.03.215,task,2021.1.4,Win32,60.24096386,628b806c463b948bc644b84f,6291cbae9c35f59eb5bf6a62,,,,,,,,,,,,,,,,,,,,,,,6,,,,,,,,,,Task,13,(3x4) - 6,6,,,,,,,,,,,,,,,,,,,1,,,,,,,,,,,,,,,,,,,,,,,"[""6""]",1,[2.3889999999998963],0,0,0,12,1,,,,,,,,,,,,,,,,,,
,,,,,,,,,,5d459d56cb2c450019293bd0,32,Kobieta,2022-05-28_09h14.03.215,task,2021.1.4,Win32,60.24096386,628b806c463b948bc644b84f,6291cbae9c35f59eb5bf6a62,,,,,,,,,,"X V Q F H G B L J M P D K C T S W R N Z
",,,,,,,,,,,,,,,,,,,,,,,,,,,,,,,,,,,,,,,,,,,,,,,,,,,,,,,,,,,,,,,,,,,,,,,,,,,,0,0,0,0,1,,,,,,,,,,,,,
,,,,,,,,,,5d459d56cb2c450019293bd0,32,Kobieta,2022-05-28_09h14.03.215,task,2021.1.4,Win32,60.24096386,628b806c463b948bc644b84f,6291cbae9c35f59eb5bf6a62,,,,,,,,,,,,,,,,,,,,,,,,,,,,,,,,,Task,16,(3x8) - 15,9,,,,,,,,,,,,,,,,,,,0,,,,,,,,,,,,,,,,,,,,,,,,0,,0,0,0,15,1,,,,,,,,,,,,,,,,,,
,,,,,,,,,,5d459d56cb2c450019293bd0,32,Kobieta,2022-05-28_09h14.03.215,task,2021.1.4,Win32,60.24096386,628b806c463b948bc644b84f,6291cbae9c35f59eb5bf6a62,,,,,,,,,,,,,,,,,,,,,,,5,,,,,,,,,,Task,22,(3x1) + 2,5,,,,,,,,,,,,,,,,,,,1,,,,,,,,,,,,,,,,,,,,,,,"[""5""]",1,[1.8179999999999836],0,1,1,21,1,,,,,,,,,,,,,,,,,,
,,,,,,,,,,5d459d56cb2c450019293bd0,32,Kobieta,2022-05-28_09h14.03.215,task,2021.1.4,Win32,60.24096386,628b806c463b948bc644b84f,6291cbae9c35f59eb5bf6a62,,,,,,,,,,"X V Q F H G B L J M P D K C T S W R N Z
",,,,,,,,,,,,,,,,,,,,,,,,,,,,,,,,,,,,,,,,,,,,,,,,,,,,,,,,,,,,,,,,,,,,,,,,,,,,1,0,1,0,1,,,,,,,,,,,,,
,,,,,,,,,,5d459d56cb2c450019293bd0,32,Kobieta,2022-05-28_09h14.03.215,task,2021.1.4,Win32,60.24096386,628b806c463b948bc644b84f,6291cbae9c35f59eb5bf6a62,,,,,,,,,,,,,,,,,,,,,,,3,,,,,,,,,,Task,3,(2x3) - 3,3,,,,,,,,,,,,,,,,,,,1,,,,,,,,,,,,,,,,,,,,,,,"[""3""]",1,[2.1509999999999536],0,0,0,2,1,,,,,,,,,,,,,,,,,,
,,,,,,,,,,5d459d56cb2c450019293bd0,32,Kobieta,2022-05-28_09h14.03.215,task,2021.1.4,Win32,60.24096386,628b806c463b948bc644b84f,6291cbae9c35f59eb5bf6a62,,,,,,,,,,"X V Q F H G B L J M P D K C T S W R N Z
",,,,,,,,,,,,,,,,,,,,,,,,,,,,,,,,,,,,,,,,,,,,,,,,,,,,,,,,,,,,,,,,,,,,,,,,,,,,2,0,2,0,1,,,,,,,,,,,,,
,,,,,,,,,,5d459d56cb2c450019293bd0,32,Kobieta,2022-05-28_09h14.03.215,task,2021.1.4,Win32,60.24096386,628b806c463b948bc644b84f,6291cbae9c35f59eb5bf6a62,,,,,,,,,,,,,,,,,,,,,,,,,,,,,,,,,,,,,,,,,,,,,,,,,,,,,,,,,,,,,,,,,,,,,,,,,,,,,,,,,,,,,,,,,,,zsn,"[""z"",""s"",""n""]",0,"[1.8199999999999363,2.0850000000000364,2.5539999999999736,3.5670000000000073]",0,WSN,1,0,1,0,1,,
,,,,,,,,,,5d459d56cb2c450019293bd0,32,Kobieta,2022-05-28_09h14.03.215,task,2021.1.4,Win32,60.24096386,628b806c463b948bc644b84f,6291cbae9c35f59eb5bf6a62,,,,,,,,,,,,,,,,,,,,,,,5,,,,,,,,,,Task,22,(3x1) + 2,5,,,,,,,,,,,,,,,,,,,1,,,,,,,,,,,,,,,,,,,,,,,"[""5""]",1,[1.8970000000000482],0,0,0,21,1,,,,,,,,,,,,,,,,,,
,,,,,,,,,,5d459d56cb2c450019293bd0,32,Kobieta,2022-05-28_09h14.03.215,task,2021.1.4,Win32,60.24096386,628b806c463b948bc644b84f,6291cbae9c35f59eb5bf6a62,,,,,,,,,,"X V Q F H G B L J M P D K C T S W R N Z
",,,,,,,,,,,,,,,,,,,,,,,,,,,,,,,,,,,,,,,,,,,,,,,,,,,,,,,,,,,,,,,,,,,,,,,,,,,,0,0,0,0,1,,,,,,,,,,,,,
,,,,,,,,,,5d459d56cb2c450019293bd0,32,Kobieta,2022-05-28_09h14.03.215,task,2021.1.4,Win32,60.24096386,628b806c463b948bc644b84f,6291cbae9c35f59eb5bf6a62,,,,,,,,,,,,,,,,,,,,,,,7,,,,,,,,,,Task,38,(4x6) - 17,7,,,,,,,,,,,,,,,,,,,1,,,,,,,,,,,,,,,,,,,,,,,"[""7""]",1,[3.7630000000000337],0,0,0,37,1,,,,,,,,,,,,,,,,,,
,,,,,,,,,,5d459d56cb2c450019293bd0,32,Kobieta,2022-05-28_09h14.03.215,task,2021.1.4,Win32,60.24096386,628b806c463b948bc644b84f,6291cbae9c35f59eb5bf6a62,,,,,,,,,,"X V Q F H G B L J M P D K C T S W R N Z
",,,,,,,,,,,,,,,,,,,,,,,,,,,,,,,,,,,,,,,,,,,,,,,,,,,,,,,,,,,,,,,,,,,,,,,,,,,,1,0,1,0,1,,,,,,,,,,,,,
,,,,,,,,,,5d459d56cb2c450019293bd0,32,Kobieta,2022-05-28_09h14.03.215,task,2021.1.4,Win32,60.24096386,628b806c463b948bc644b84f,6291cbae9c35f59eb5bf6a62,,,,,,,,,,,,,,,,,,,,,,,6,,,,,,,,,,Task,37,(3/3) + 5,6,,,,,,,,,,,,,,,,,,,1,,,,,,,,,,,,,,,,,,,,,,,"[""6""]",1,[2.5810000000000173],0,0,0,36,1,,,,,,,,,,,,,,,,,,
,,,,,,,,,,5d459d56cb2c450019293bd0,32,Kobieta,2022-05-28_09h14.03.215,task,2021.1.4,Win32,60.24096386,628b806c463b948bc644b84f,6291cbae9c35f59eb5bf6a62,,,,,,,,,,"X V Q F H G B L J M P D K C T S W R N Z
",,,,,,,,,,,,,,,,,,,,,,,,,,,,,,,,,,,,,,,,,,,,,,,,,,,,,,,,,,,,,,,,,,,,,,,,,,,,2,0,2,0,1,,,,,,,,,,,,,
,,,,,,,,,,5d459d56cb2c450019293bd0,32,Kobieta,2022-05-28_09h14.03.215,task,2021.1.4,Win32,60.24096386,628b806c463b948bc644b84f,6291cbae9c35f59eb5bf6a62,,,,,,,,,,,,,,,,,,,,,,,,,,,,,,,,,,,,,,,,,,,,,,,,,,,,,,,,,,,,,,,,,,,,,,,,,,,,,,,,,,,,,,,,,,,zmk,"[""z"",""m"",""k""]",0,"[1.606999999999971,1.8899999999999864,2.0230000000000246,2.95799999999997]",0,SMK,2,0,2,0,1,,
,,,,,,,,,,5d459d56cb2c450019293bd0,32,Kobieta,2022-05-28_09h14.03.215,task,2021.1.4,Win32,60.24096386,628b806c463b948bc644b84f,6291cbae9c35f59eb5bf6a62,,,,,,,,,,,,,,,,,,,,,,,,,,,,,,,,,,,,,,,,,,,,,,,,,,,,,,,,,,,,,,,,,,,,,,,,,,,,,,,,,,,,,,,,,,,,,,,,,,,,,,space,2.954
