key_resp_15.keys,key_resp_15.rt,key_resp_13.keys,key_resp_13.corr,key_resp_13.rt,ranodm_loop.thisRepN,ranodm_loop.thisTrialN,ranodm_loop.thisN,ranodm_loop.thisIndex,ranodm_loop.ran,participant,Wiek*,Płeć,date,expName,psychopyVersion,OS,frameRate,study_id,session,key_resp_16.keys,key_resp_16.rt,key_resp_4.keys,key_resp_4.rt,next_letter.thisRepN,next_letter.thisTrialN,next_letter.thisN,next_letter.thisIndex,next_letter.ran,letter,simple_recall,key_resp_5.keys,key_resp_5.rt,simple_recall_corr,simple_recall_corrkeys,next_level.thisRepN,next_level.thisTrialN,next_level.thisN,next_level.thisIndex,next_level.ran,key_resp_2.keys,key_resp_2.rt,digit_answer,key_resp.keys,key_resp.corr,key_resp.rt,RT_list,next_equation.thisRepN,next_equation.thisTrialN,next_equation.thisN,next_equation.thisIndex,next_equation.ran,Task,Trial,Problem,Operation_answer,processing_score,sumRT,meanRT,sumdiff,sd,RT,key_resp_3.keys,key_resp_3.rt,repeat_practice.thisRepN,repeat_practice.thisTrialN,repeat_practice.thisN,repeat_practice.thisIndex,repeat_practice.ran,key_resp_6.keys,key_resp_6.rt,key_resp_11.keys,key_resp_11.corr,key_resp_11.rt,operation_correct,repeat_if_wrong_prac.thisRepN,repeat_if_wrong_prac.thisTrialN,repeat_if_wrong_prac.thisN,repeat_if_wrong_prac.thisIndex,repeat_if_wrong_prac.ran,span_size_prac.thisRepN,span_size_prac.thisTrialN,span_size_prac.thisN,span_size_prac.thisIndex,span_size_prac.ran,complex_recall_practice,key_resp_9.keys,key_resp_9.corr,key_resp_9.rt,complex_prac_corr,span_recall_prac.thisRepN,span_recall_prac.thisTrialN,span_recall_prac.thisN,span_recall_prac.thisIndex,span_recall_prac.ran,key_resp_10.keys,key_resp_10.rt,key_resp_7.keys,key_resp_7.corr,key_resp_7.rt,repeat_if_wrong.thisRepN,repeat_if_wrong.thisTrialN,repeat_if_wrong.thisN,repeat_if_wrong.thisIndex,repeat_if_wrong.ran,span_size.thisRepN,span_size.thisTrialN,span_size.thisN,span_size.thisIndex,span_size.ran,complex_recall,key_resp_8.keys,key_resp_8.corr,key_resp_8.rt,complex_recall_corr,complex_recall_corrkeys,span_recall.thisRepN,span_recall.thisTrialN,span_recall.thisN,span_recall.thisIndex,span_recall.ran,key_resp_12.keys,key_resp_12.rt
space,24.6211,"[""comma""]",0,[1.0215000000000032],0,0,0,0,1,5d585e287d795e001788bf4c,41,Kobieta,2022-06-04_08h31.52.983,task,2021.1.4,Win32,59.78358343,628b806c463b948bc644b84f,629afc3715899a2e052afc57,,,,,,,,,,,,,,,,,,,,,,,,,,,,,,,,,,,,,,,,,,,,,,,,,,,,,,,,,,,,,,,,,,,,,,,,,,,,,,,,,,,,,,,,,,,,,,,,,,,,,,,
,,"[""period""]",0,[1.4717999999523101],1,0,1,0,1,5d585e287d795e001788bf4c,41,Kobieta,2022-06-04_08h31.52.983,task,2021.1.4,Win32,59.78358343,628b806c463b948bc644b84f,629afc3715899a2e052afc57,,,,,,,,,,,,,,,,,,,,,,,,,,,,,,,,,,,,,,,,,,,,,,,,,,,,,,,,,,,,,,,,,,,,,,,,,,,,,,,,,,,,,,,,,,,,,,,,,,,,,,,
,,,0,,2,0,2,0,1,5d585e287d795e001788bf4c,41,Kobieta,2022-06-04_08h31.52.983,task,2021.1.4,Win32,59.78358343,628b806c463b948bc644b84f,629afc3715899a2e052afc57,,,,,,,,,,,,,,,,,,,,,,,,,,,,,,,,,,,,,,,,,,,,,,,,,,,,,,,,,,,,,,,,,,,,,,,,,,,,,,,,,,,,,,,,,,,,,,,,,,,,,,,
,,"[""period""]",0,[0.38339999985694817],3,0,3,0,1,5d585e287d795e001788bf4c,41,Kobieta,2022-06-04_08h31.52.983,task,2021.1.4,Win32,59.78358343,628b806c463b948bc644b84f,629afc3715899a2e052afc57,,,,,,,,,,,,,,,,,,,,,,,,,,,,,,,,,,,,,,,,,,,,,,,,,,,,,,,,,,,,,,,,,,,,,,,,,,,,,,,,,,,,,,,,,,,,,,,,,,,,,,,
,,"[""comma""]",0,[0.8007999999523179],4,0,4,0,1,5d585e287d795e001788bf4c,41,Kobieta,2022-06-04_08h31.52.983,task,2021.1.4,Win32,59.78358343,628b806c463b948bc644b84f,629afc3715899a2e052afc57,,,,,,,,,,,,,,,,,,,,,,,,,,,,,,,,,,,,,,,,,,,,,,,,,,,,,,,,,,,,,,,,,,,,,,,,,,,,,,,,,,,,,,,,,,,,,,,,,,,,,,,
,,"[""period""]",0,[0.8157000000476842],5,0,5,0,1,5d585e287d795e001788bf4c,41,Kobieta,2022-06-04_08h31.52.983,task,2021.1.4,Win32,59.78358343,628b806c463b948bc644b84f,629afc3715899a2e052afc57,,,,,,,,,,,,,,,,,,,,,,,,,,,,,,,,,,,,,,,,,,,,,,,,,,,,,,,,,,,,,,,,,,,,,,,,,,,,,,,,,,,,,,,,,,,,,,,,,,,,,,,
,,"[""period""]",0,[0.6870000000000118],6,0,6,0,1,5d585e287d795e001788bf4c,41,Kobieta,2022-06-04_08h31.52.983,task,2021.1.4,Win32,59.78358343,628b806c463b948bc644b84f,629afc3715899a2e052afc57,,,,,,,,,,,,,,,,,,,,,,,,,,,,,,,,,,,,,,,,,,,,,,,,,,,,,,,,,,,,,,,,,,,,,,,,,,,,,,,,,,,,,,,,,,,,,,,,,,,,,,,
,,"[""period""]",0,[0.5753999998569554],7,0,7,0,1,5d585e287d795e001788bf4c,41,Kobieta,2022-06-04_08h31.52.983,task,2021.1.4,Win32,59.78358343,628b806c463b948bc644b84f,629afc3715899a2e052afc57,,,,,,,,,,,,,,,,,,,,,,,,,,,,,,,,,,,,,,,,,,,,,,,,,,,,,,,,,,,,,,,,,,,,,,,,,,,,,,,,,,,,,,,,,,,,,,,,,,,,,,,
,,"[""period""]",0,[0.7832999999523338],8,0,8,0,1,5d585e287d795e001788bf4c,41,Kobieta,2022-06-04_08h31.52.983,task,2021.1.4,Win32,59.78358343,628b806c463b948bc644b84f,629afc3715899a2e052afc57,,,,,,,,,,,,,,,,,,,,,,,,,,,,,,,,,,,,,,,,,,,,,,,,,,,,,,,,,,,,,,,,,,,,,,,,,,,,,,,,,,,,,,,,,,,,,,,,,,,,,,,
,,"[""comma""]",0,[0.5912999999523265],9,0,9,0,1,5d585e287d795e001788bf4c,41,Kobieta,2022-06-04_08h31.52.983,task,2021.1.4,Win32,59.78358343,628b806c463b948bc644b84f,629afc3715899a2e052afc57,,,,,,,,,,,,,,,,,,,,,,,,,,,,,,,,,,,,,,,,,,,,,,,,,,,,,,,,,,,,,,,,,,,,,,,,,,,,,,,,,,,,,,,,,,,,,,,,,,,,,,,
,,"[""comma""]",0,[0.5912999999523265],10,0,10,0,1,5d585e287d795e001788bf4c,41,Kobieta,2022-06-04_08h31.52.983,task,2021.1.4,Win32,59.78358343,628b806c463b948bc644b84f,629afc3715899a2e052afc57,,,,,,,,,,,,,,,,,,,,,,,,,,,,,,,,,,,,,,,,,,,,,,,,,,,,,,,,,,,,,,,,,,,,,,,,,,,,,,,,,,,,,,,,,,,,,,,,,,,,,,,
,,"[""period""]",0,[0.9464999999999861],11,0,11,0,1,5d585e287d795e001788bf4c,41,Kobieta,2022-06-04_08h31.52.983,task,2021.1.4,Win32,59.78358343,628b806c463b948bc644b84f,629afc3715899a2e052afc57,,,,,,,,,,,,,,,,,,,,,,,,,,,,,,,,,,,,,,,,,,,,,,,,,,,,,,,,,,,,,,,,,,,,,,,,,,,,,,,,,,,,,,,,,,,,,,,,,,,,,,,
,,"[""comma""]",0,[0.5339999999999918],12,0,12,0,1,5d585e287d795e001788bf4c,41,Kobieta,2022-06-04_08h31.52.983,task,2021.1.4,Win32,59.78358343,628b806c463b948bc644b84f,629afc3715899a2e052afc57,,,,,,,,,,,,,,,,,,,,,,,,,,,,,,,,,,,,,,,,,,,,,,,,,,,,,,,,,,,,,,,,,,,,,,,,,,,,,,,,,,,,,,,,,,,,,,,,,,,,,,,
,,"[""period""]",0,[0.7990999999046267],13,0,13,0,1,5d585e287d795e001788bf4c,41,Kobieta,2022-06-04_08h31.52.983,task,2021.1.4,Win32,59.78358343,628b806c463b948bc644b84f,629afc3715899a2e052afc57,,,,,,,,,,,,,,,,,,,,,,,,,,,,,,,,,,,,,,,,,,,,,,,,,,,,,,,,,,,,,,,,,,,,,,,,,,,,,,,,,,,,,,,,,,,,,,,,,,,,,,,
,,"[""comma""]",0,[0.6390999999046301],14,0,14,0,1,5d585e287d795e001788bf4c,41,Kobieta,2022-06-04_08h31.52.983,task,2021.1.4,Win32,59.78358343,628b806c463b948bc644b84f,629afc3715899a2e052afc57,,,,,,,,,,,,,,,,,,,,,,,,,,,,,,,,,,,,,,,,,,,,,,,,,,,,,,,,,,,,,,,,,,,,,,,,,,,,,,,,,,,,,,,,,,,,,,,,,,,,,,,
,,"[""comma""]",0,[0.4639000000953786],15,0,15,0,1,5d585e287d795e001788bf4c,41,Kobieta,2022-06-04_08h31.52.983,task,2021.1.4,Win32,59.78358343,628b806c463b948bc644b84f,629afc3715899a2e052afc57,,,,,,,,,,,,,,,,,,,,,,,,,,,,,,,,,,,,,,,,,,,,,,,,,,,,,,,,,,,,,,,,,,,,,,,,,,,,,,,,,,,,,,,,,,,,,,,,,,,,,,,
,,"[""comma""]",0,[0.5002000000476983],16,0,16,0,1,5d585e287d795e001788bf4c,41,Kobieta,2022-06-04_08h31.52.983,task,2021.1.4,Win32,59.78358343,628b806c463b948bc644b84f,629afc3715899a2e052afc57,,,,,,,,,,,,,,,,,,,,,,,,,,,,,,,,,,,,,,,,,,,,,,,,,,,,,,,,,,,,,,,,,,,,,,,,,,,,,,,,,,,,,,,,,,,,,,,,,,,,,,,
,,"[""period""]",0,[0.6234000000953586],17,0,17,0,1,5d585e287d795e001788bf4c,41,Kobieta,2022-06-04_08h31.52.983,task,2021.1.4,Win32,59.78358343,628b806c463b948bc644b84f,629afc3715899a2e052afc57,,,,,,,,,,,,,,,,,,,,,,,,,,,,,,,,,,,,,,,,,,,,,,,,,,,,,,,,,,,,,,,,,,,,,,,,,,,,,,,,,,,,,,,,,,,,,,,,,,,,,,,
,,"[""period""]",0,[0.5592999999523158],18,0,18,0,1,5d585e287d795e001788bf4c,41,Kobieta,2022-06-04_08h31.52.983,task,2021.1.4,Win32,59.78358343,628b806c463b948bc644b84f,629afc3715899a2e052afc57,,,,,,,,,,,,,,,,,,,,,,,,,,,,,,,,,,,,,,,,,,,,,,,,,,,,,,,,,,,,,,,,,,,,,,,,,,,,,,,,,,,,,,,,,,,,,,,,,,,,,,,
,,"[""comma""]",0,[0.5592999999523158],19,0,19,0,1,5d585e287d795e001788bf4c,41,Kobieta,2022-06-04_08h31.52.983,task,2021.1.4,Win32,59.78358343,628b806c463b948bc644b84f,629afc3715899a2e052afc57,,,,,,,,,,,,,,,,,,,,,,,,,,,,,,,,,,,,,,,,,,,,,,,,,,,,,,,,,,,,,,,,,,,,,,,,,,,,,,,,,,,,,,,,,,,,,,,,,,,,,,,
,,"[""comma""]",0,[0.4472000000476726],20,0,20,0,1,5d585e287d795e001788bf4c,41,Kobieta,2022-06-04_08h31.52.983,task,2021.1.4,Win32,59.78358343,628b806c463b948bc644b84f,629afc3715899a2e052afc57,,,,,,,,,,,,,,,,,,,,,,,,,,,,,,,,,,,,,,,,,,,,,,,,,,,,,,,,,,,,,,,,,,,,,,,,,,,,,,,,,,,,,,,,,,,,,,,,,,,,,,,
,,"[""period""]",0,[0.671100000143042],21,0,21,0,1,5d585e287d795e001788bf4c,41,Kobieta,2022-06-04_08h31.52.983,task,2021.1.4,Win32,59.78358343,628b806c463b948bc644b84f,629afc3715899a2e052afc57,,,,,,,,,,,,,,,,,,,,,,,,,,,,,,,,,,,,,,,,,,,,,,,,,,,,,,,,,,,,,,,,,,,,,,,,,,,,,,,,,,,,,,,,,,,,,,,,,,,,,,,
,,"[""period""]",0,[0.49679999995231583],22,0,22,0,1,5d585e287d795e001788bf4c,41,Kobieta,2022-06-04_08h31.52.983,task,2021.1.4,Win32,59.78358343,628b806c463b948bc644b84f,629afc3715899a2e052afc57,,,,,,,,,,,,,,,,,,,,,,,,,,,,,,,,,,,,,,,,,,,,,,,,,,,,,,,,,,,,,,,,,,,,,,,,,,,,,,,,,,,,,,,,,,,,,,,,,,,,,,,
,,"[""comma""]",0,[0.5004999999999882],23,0,23,0,1,5d585e287d795e001788bf4c,41,Kobieta,2022-06-04_08h31.52.983,task,2021.1.4,Win32,59.78358343,628b806c463b948bc644b84f,629afc3715899a2e052afc57,,,,,,,,,,,,,,,,,,,,,,,,,,,,,,,,,,,,,,,,,,,,,,,,,,,,,,,,,,,,,,,,,,,,,,,,,,,,,,,,,,,,,,,,,,,,,,,,,,,,,,,
,,"[""comma""]",0,[0.7990999999046267],24,0,24,0,1,5d585e287d795e001788bf4c,41,Kobieta,2022-06-04_08h31.52.983,task,2021.1.4,Win32,59.78358343,628b806c463b948bc644b84f,629afc3715899a2e052afc57,,,,,,,,,,,,,,,,,,,,,,,,,,,,,,,,,,,,,,,,,,,,,,,,,,,,,,,,,,,,,,,,,,,,,,,,,,,,,,,,,,,,,,,,,,,,,,,,,,,,,,,
,,"[""comma""]",0,[0.6232000000476887],25,0,25,0,1,5d585e287d795e001788bf4c,41,Kobieta,2022-06-04_08h31.52.983,task,2021.1.4,Win32,59.78358343,628b806c463b948bc644b84f,629afc3715899a2e052afc57,,,,,,,,,,,,,,,,,,,,,,,,,,,,,,,,,,,,,,,,,,,,,,,,,,,,,,,,,,,,,,,,,,,,,,,,,,,,,,,,,,,,,,,,,,,,,,,,,,,,,,,
,,"[""comma""]",0,[0.49670000004769577],26,0,26,0,1,5d585e287d795e001788bf4c,41,Kobieta,2022-06-04_08h31.52.983,task,2021.1.4,Win32,59.78358343,628b806c463b948bc644b84f,629afc3715899a2e052afc57,,,,,,,,,,,,,,,,,,,,,,,,,,,,,,,,,,,,,,,,,,,,,,,,,,,,,,,,,,,,,,,,,,,,,,,,,,,,,,,,,,,,,,,,,,,,,,,,,,,,,,,
,,"[""period""]",0,[0.4635999999046305],27,0,27,0,1,5d585e287d795e001788bf4c,41,Kobieta,2022-06-04_08h31.52.983,task,2021.1.4,Win32,59.78358343,628b806c463b948bc644b84f,629afc3715899a2e052afc57,,,,,,,,,,,,,,,,,,,,,,,,,,,,,,,,,,,,,,,,,,,,,,,,,,,,,,,,,,,,,,,,,,,,,,,,,,,,,,,,,,,,,,,,,,,,,,,,,,,,,,,
,,"[""period""]",0,[0.7192999999523124],28,0,28,0,1,5d585e287d795e001788bf4c,41,Kobieta,2022-06-04_08h31.52.983,task,2021.1.4,Win32,59.78358343,628b806c463b948bc644b84f,629afc3715899a2e052afc57,,,,,,,,,,,,,,,,,,,,,,,,,,,,,,,,,,,,,,,,,,,,,,,,,,,,,,,,,,,,,,,,,,,,,,,,,,,,,,,,,,,,,,,,,,,,,,,,,,,,,,,
,,"[""period""]",0,[0.6547999999523313],29,0,29,0,1,5d585e287d795e001788bf4c,41,Kobieta,2022-06-04_08h31.52.983,task,2021.1.4,Win32,59.78358343,628b806c463b948bc644b84f,629afc3715899a2e052afc57,,,,,,,,,,,,,,,,,,,,,,,,,,,,,,,,,,,,,,,,,,,,,,,,,,,,,,,,,,,,,,,,,,,,,,,,,,,,,,,,,,,,,,,,,,,,,,,,,,,,,,,
,,"[""period""]",0,[0.5752000000476869],30,0,30,0,1,5d585e287d795e001788bf4c,41,Kobieta,2022-06-04_08h31.52.983,task,2021.1.4,Win32,59.78358343,628b806c463b948bc644b84f,629afc3715899a2e052afc57,,,,,,,,,,,,,,,,,,,,,,,,,,,,,,,,,,,,,,,,,,,,,,,,,,,,,,,,,,,,,,,,,,,,,,,,,,,,,,,,,,,,,,,,,,,,,,,,,,,,,,,
,,"[""period""]",0,[0.6070999999046478],31,0,31,0,1,5d585e287d795e001788bf4c,41,Kobieta,2022-06-04_08h31.52.983,task,2021.1.4,Win32,59.78358343,628b806c463b948bc644b84f,629afc3715899a2e052afc57,,,,,,,,,,,,,,,,,,,,,,,,,,,,,,,,,,,,,,,,,,,,,,,,,,,,,,,,,,,,,,,,,,,,,,,,,,,,,,,,,,,,,,,,,,,,,,,,,,,,,,,
,,"[""comma""]",0,[0.5752999999523354],32,0,32,0,1,5d585e287d795e001788bf4c,41,Kobieta,2022-06-04_08h31.52.983,task,2021.1.4,Win32,59.78358343,628b806c463b948bc644b84f,629afc3715899a2e052afc57,,,,,,,,,,,,,,,,,,,,,,,,,,,,,,,,,,,,,,,,,,,,,,,,,,,,,,,,,,,,,,,,,,,,,,,,,,,,,,,,,,,,,,,,,,,,,,,,,,,,,,,
,,"[""comma""]",0,[0.6872999999523017],33,0,33,0,1,5d585e287d795e001788bf4c,41,Kobieta,2022-06-04_08h31.52.983,task,2021.1.4,Win32,59.78358343,628b806c463b948bc644b84f,629afc3715899a2e052afc57,,,,,,,,,,,,,,,,,,,,,,,,,,,,,,,,,,,,,,,,,,,,,,,,,,,,,,,,,,,,,,,,,,,,,,,,,,,,,,,,,,,,,,,,,,,,,,,,,,,,,,,
,,"[""comma""]",0,[0.735399999856952],34,0,34,0,1,5d585e287d795e001788bf4c,41,Kobieta,2022-06-04_08h31.52.983,task,2021.1.4,Win32,59.78358343,628b806c463b948bc644b84f,629afc3715899a2e052afc57,,,,,,,,,,,,,,,,,,,,,,,,,,,,,,,,,,,,,,,,,,,,,,,,,,,,,,,,,,,,,,,,,,,,,,,,,,,,,,,,,,,,,,,,,,,,,,,,,,,,,,,
,,"[""period""]",0,[0.4150999999046405],35,0,35,0,1,5d585e287d795e001788bf4c,41,Kobieta,2022-06-04_08h31.52.983,task,2021.1.4,Win32,59.78358343,628b806c463b948bc644b84f,629afc3715899a2e052afc57,,,,,,,,,,,,,,,,,,,,,,,,,,,,,,,,,,,,,,,,,,,,,,,,,,,,,,,,,,,,,,,,,,,,,,,,,,,,,,,,,,,,,,,,,,,,,,,,,,,,,,,
,,"[""period""]",0,[0.5132999999522951],36,0,36,0,1,5d585e287d795e001788bf4c,41,Kobieta,2022-06-04_08h31.52.983,task,2021.1.4,Win32,59.78358343,628b806c463b948bc644b84f,629afc3715899a2e052afc57,,,,,,,,,,,,,,,,,,,,,,,,,,,,,,,,,,,,,,,,,,,,,,,,,,,,,,,,,,,,,,,,,,,,,,,,,,,,,,,,,,,,,,,,,,,,,,,,,,,,,,,
,,"[""comma""]",0,[0.46349999999998204],37,0,37,0,1,5d585e287d795e001788bf4c,41,Kobieta,2022-06-04_08h31.52.983,task,2021.1.4,Win32,59.78358343,628b806c463b948bc644b84f,629afc3715899a2e052afc57,,,,,,,,,,,,,,,,,,,,,,,,,,,,,,,,,,,,,,,,,,,,,,,,,,,,,,,,,,,,,,,,,,,,,,,,,,,,,,,,,,,,,,,,,,,,,,,,,,,,,,,
,,"[""comma""]",0,[0.4977999999523206],38,0,38,0,1,5d585e287d795e001788bf4c,41,Kobieta,2022-06-04_08h31.52.983,task,2021.1.4,Win32,59.78358343,628b806c463b948bc644b84f,629afc3715899a2e052afc57,,,,,,,,,,,,,,,,,,,,,,,,,,,,,,,,,,,,,,,,,,,,,,,,,,,,,,,,,,,,,,,,,,,,,,,,,,,,,,,,,,,,,,,,,,,,,,,,,,,,,,,
,,"[""period""]",0,[0.4477000000476892],39,0,39,0,1,5d585e287d795e001788bf4c,41,Kobieta,2022-06-04_08h31.52.983,task,2021.1.4,Win32,59.78358343,628b806c463b948bc644b84f,629afc3715899a2e052afc57,,,,,,,,,,,,,,,,,,,,,,,,,,,,,,,,,,,,,,,,,,,,,,,,,,,,,,,,,,,,,,,,,,,,,,,,,,,,,,,,,,,,,,,,,,,,,,,,,,,,,,,
,,"[""comma""]",0,[0.39959999990463757],40,0,40,0,1,5d585e287d795e001788bf4c,41,Kobieta,2022-06-04_08h31.52.983,task,2021.1.4,Win32,59.78358343,628b806c463b948bc644b84f,629afc3715899a2e052afc57,,,,,,,,,,,,,,,,,,,,,,,,,,,,,,,,,,,,,,,,,,,,,,,,,,,,,,,,,,,,,,,,,,,,,,,,,,,,,,,,,,,,,,,,,,,,,,,,,,,,,,,
,,"[""period""]",0,[0.5591000001430473],41,0,41,0,1,5d585e287d795e001788bf4c,41,Kobieta,2022-06-04_08h31.52.983,task,2021.1.4,Win32,59.78358343,628b806c463b948bc644b84f,629afc3715899a2e052afc57,,,,,,,,,,,,,,,,,,,,,,,,,,,,,,,,,,,,,,,,,,,,,,,,,,,,,,,,,,,,,,,,,,,,,,,,,,,,,,,,,,,,,,,,,,,,,,,,,,,,,,,
,,"[""period""]",0,[0.5910999999046282],42,0,42,0,1,5d585e287d795e001788bf4c,41,Kobieta,2022-06-04_08h31.52.983,task,2021.1.4,Win32,59.78358343,628b806c463b948bc644b84f,629afc3715899a2e052afc57,,,,,,,,,,,,,,,,,,,,,,,,,,,,,,,,,,,,,,,,,,,,,,,,,,,,,,,,,,,,,,,,,,,,,,,,,,,,,,,,,,,,,,,,,,,,,,,,,,,,,,,
,,"[""period""]",0,[0.7350999999046337],43,0,43,0,1,5d585e287d795e001788bf4c,41,Kobieta,2022-06-04_08h31.52.983,task,2021.1.4,Win32,59.78358343,628b806c463b948bc644b84f,629afc3715899a2e052afc57,,,,,,,,,,,,,,,,,,,,,,,,,,,,,,,,,,,,,,,,,,,,,,,,,,,,,,,,,,,,,,,,,,,,,,,,,,,,,,,,,,,,,,,,,,,,,,,,,,,,,,,
,,"[""comma""]",0,[0.8962000000476849],44,0,44,0,1,5d585e287d795e001788bf4c,41,Kobieta,2022-06-04_08h31.52.983,task,2021.1.4,Win32,59.78358343,628b806c463b948bc644b84f,629afc3715899a2e052afc57,,,,,,,,,,,,,,,,,,,,,,,,,,,,,,,,,,,,,,,,,,,,,,,,,,,,,,,,,,,,,,,,,,,,,,,,,,,,,,,,,,,,,,,,,,,,,,,,,,,,,,,
,,"[""comma""]",0,[0.5632999999523349],45,0,45,0,1,5d585e287d795e001788bf4c,41,Kobieta,2022-06-04_08h31.52.983,task,2021.1.4,Win32,59.78358343,628b806c463b948bc644b84f,629afc3715899a2e052afc57,,,,,,,,,,,,,,,,,,,,,,,,,,,,,,,,,,,,,,,,,,,,,,,,,,,,,,,,,,,,,,,,,,,,,,,,,,,,,,,,,,,,,,,,,,,,,,,,,,,,,,,
,,"[""comma""]",0,[0.6713000001907403],46,0,46,0,1,5d585e287d795e001788bf4c,41,Kobieta,2022-06-04_08h31.52.983,task,2021.1.4,Win32,59.78358343,628b806c463b948bc644b84f,629afc3715899a2e052afc57,,,,,,,,,,,,,,,,,,,,,,,,,,,,,,,,,,,,,,,,,,,,,,,,,,,,,,,,,,,,,,,,,,,,,,,,,,,,,,,,,,,,,,,,,,,,,,,,,,,,,,,
,,"[""comma""]",0,[0.6709000000953722],47,0,47,0,1,5d585e287d795e001788bf4c,41,Kobieta,2022-06-04_08h31.52.983,task,2021.1.4,Win32,59.78358343,628b806c463b948bc644b84f,629afc3715899a2e052afc57,,,,,,,,,,,,,,,,,,,,,,,,,,,,,,,,,,,,,,,,,,,,,,,,,,,,,,,,,,,,,,,,,,,,,,,,,,,,,,,,,,,,,,,,,,,,,,,,,,,,,,,
,,"[""period""]",0,[0.6069999999999993],48,0,48,0,1,5d585e287d795e001788bf4c,41,Kobieta,2022-06-04_08h31.52.983,task,2021.1.4,Win32,59.78358343,628b806c463b948bc644b84f,629afc3715899a2e052afc57,,,,,,,,,,,,,,,,,,,,,,,,,,,,,,,,,,,,,,,,,,,,,,,,,,,,,,,,,,,,,,,,,,,,,,,,,,,,,,,,,,,,,,,,,,,,,,,,,,,,,,,
,,"[""period""]",0,[0.7188999998569443],49,0,49,0,1,5d585e287d795e001788bf4c,41,Kobieta,2022-06-04_08h31.52.983,task,2021.1.4,Win32,59.78358343,628b806c463b948bc644b84f,629afc3715899a2e052afc57,,,,,,,,,,,,,,,,,,,,,,,,,,,,,,,,,,,,,,,,,,,,,,,,,,,,,,,,,,,,,,,,,,,,,,,,,,,,,,,,,,,,,,,,,,,,,,,,,,,,,,,
,,"[""period""]",0,[0.6552999999523195],50,0,50,0,1,5d585e287d795e001788bf4c,41,Kobieta,2022-06-04_08h31.52.983,task,2021.1.4,Win32,59.78358343,628b806c463b948bc644b84f,629afc3715899a2e052afc57,,,,,,,,,,,,,,,,,,,,,,,,,,,,,,,,,,,,,,,,,,,,,,,,,,,,,,,,,,,,,,,,,,,,,,,,,,,,,,,,,,,,,,,,,,,,,,,,,,,,,,,
,,"[""period""]",0,[0.47940000009538153],51,0,51,0,1,5d585e287d795e001788bf4c,41,Kobieta,2022-06-04_08h31.52.983,task,2021.1.4,Win32,59.78358343,628b806c463b948bc644b84f,629afc3715899a2e052afc57,,,,,,,,,,,,,,,,,,,,,,,,,,,,,,,,,,,,,,,,,,,,,,,,,,,,,,,,,,,,,,,,,,,,,,,,,,,,,,,,,,,,,,,,,,,,,,,,,,,,,,,
,,"[""comma""]",0,[0.5336999998092438],52,0,52,0,1,5d585e287d795e001788bf4c,41,Kobieta,2022-06-04_08h31.52.983,task,2021.1.4,Win32,59.78358343,628b806c463b948bc644b84f,629afc3715899a2e052afc57,,,,,,,,,,,,,,,,,,,,,,,,,,,,,,,,,,,,,,,,,,,,,,,,,,,,,,,,,,,,,,,,,,,,,,,,,,,,,,,,,,,,,,,,,,,,,,,,,,,,,,,
,,"[""period""]",0,[0.4310000000000116],53,0,53,0,1,5d585e287d795e001788bf4c,41,Kobieta,2022-06-04_08h31.52.983,task,2021.1.4,Win32,59.78358343,628b806c463b948bc644b84f,629afc3715899a2e052afc57,,,,,,,,,,,,,,,,,,,,,,,,,,,,,,,,,,,,,,,,,,,,,,,,,,,,,,,,,,,,,,,,,,,,,,,,,,,,,,,,,,,,,,,,,,,,,,,,,,,,,,,
,,"[""comma""]",0,[0.5444999999999993],54,0,54,0,1,5d585e287d795e001788bf4c,41,Kobieta,2022-06-04_08h31.52.983,task,2021.1.4,Win32,59.78358343,628b806c463b948bc644b84f,629afc3715899a2e052afc57,,,,,,,,,,,,,,,,,,,,,,,,,,,,,,,,,,,,,,,,,,,,,,,,,,,,,,,,,,,,,,,,,,,,,,,,,,,,,,,,,,,,,,,,,,,,,,,,,,,,,,,
,,"[""comma""]",0,[0.5917999999523147],55,0,55,0,1,5d585e287d795e001788bf4c,41,Kobieta,2022-06-04_08h31.52.983,task,2021.1.4,Win32,59.78358343,628b806c463b948bc644b84f,629afc3715899a2e052afc57,,,,,,,,,,,,,,,,,,,,,,,,,,,,,,,,,,,,,,,,,,,,,,,,,,,,,,,,,,,,,,,,,,,,,,,,,,,,,,,,,,,,,,,,,,,,,,,,,,,,,,,
,,"[""period""]",0,[0.7035999999046396],56,0,56,0,1,5d585e287d795e001788bf4c,41,Kobieta,2022-06-04_08h31.52.983,task,2021.1.4,Win32,59.78358343,628b806c463b948bc644b84f,629afc3715899a2e052afc57,,,,,,,,,,,,,,,,,,,,,,,,,,,,,,,,,,,,,,,,,,,,,,,,,,,,,,,,,,,,,,,,,,,,,,,,,,,,,,,,,,,,,,,,,,,,,,,,,,,,,,,
,,"[""period""]",0,[0.6712000000476621],57,0,57,0,1,5d585e287d795e001788bf4c,41,Kobieta,2022-06-04_08h31.52.983,task,2021.1.4,Win32,59.78358343,628b806c463b948bc644b84f,629afc3715899a2e052afc57,,,,,,,,,,,,,,,,,,,,,,,,,,,,,,,,,,,,,,,,,,,,,,,,,,,,,,,,,,,,,,,,,,,,,,,,,,,,,,,,,,,,,,,,,,,,,,,,,,,,,,,
,,"[""period""]",0,[0.5592000000476673],58,0,58,0,1,5d585e287d795e001788bf4c,41,Kobieta,2022-06-04_08h31.52.983,task,2021.1.4,Win32,59.78358343,628b806c463b948bc644b84f,629afc3715899a2e052afc57,,,,,,,,,,,,,,,,,,,,,,,,,,,,,,,,,,,,,,,,,,,,,,,,,,,,,,,,,,,,,,,,,,,,,,,,,,,,,,,,,,,,,,,,,,,,,,,,,,,,,,,
,,"[""comma""]",0,[0.5134000000953449],59,0,59,0,1,5d585e287d795e001788bf4c,41,Kobieta,2022-06-04_08h31.52.983,task,2021.1.4,Win32,59.78358343,628b806c463b948bc644b84f,629afc3715899a2e052afc57,,,,,,,,,,,,,,,,,,,,,,,,,,,,,,,,,,,,,,,,,,,,,,,,,,,,,,,,,,,,,,,,,,,,,,,,,,,,,,,,,,,,,,,,,,,,,,,,,,,,,,,
,,"[""period""]",0,[0.5910999999046282],60,0,60,0,1,5d585e287d795e001788bf4c,41,Kobieta,2022-06-04_08h31.52.983,task,2021.1.4,Win32,59.78358343,628b806c463b948bc644b84f,629afc3715899a2e052afc57,,,,,,,,,,,,,,,,,,,,,,,,,,,,,,,,,,,,,,,,,,,,,,,,,,,,,,,,,,,,,,,,,,,,,,,,,,,,,,,,,,,,,,,,,,,,,,,,,,,,,,,
,,"[""comma""]",0,[0.6550999999046496],61,0,61,0,1,5d585e287d795e001788bf4c,41,Kobieta,2022-06-04_08h31.52.983,task,2021.1.4,Win32,59.78358343,628b806c463b948bc644b84f,629afc3715899a2e052afc57,,,,,,,,,,,,,,,,,,,,,,,,,,,,,,,,,,,,,,,,,,,,,,,,,,,,,,,,,,,,,,,,,,,,,,,,,,,,,,,,,,,,,,,,,,,,,,,,,,,,,,,
,,"[""period""]",0,[0.5752999999523354],62,0,62,0,1,5d585e287d795e001788bf4c,41,Kobieta,2022-06-04_08h31.52.983,task,2021.1.4,Win32,59.78358343,628b806c463b948bc644b84f,629afc3715899a2e052afc57,,,,,,,,,,,,,,,,,,,,,,,,,,,,,,,,,,,,,,,,,,,,,,,,,,,,,,,,,,,,,,,,,,,,,,,,,,,,,,,,,,,,,,,,,,,,,,,,,,,,,,,
,,"[""period""]",0,[0.6552000000476994],63,0,63,0,1,5d585e287d795e001788bf4c,41,Kobieta,2022-06-04_08h31.52.983,task,2021.1.4,Win32,59.78358343,628b806c463b948bc644b84f,629afc3715899a2e052afc57,,,,,,,,,,,,,,,,,,,,,,,,,,,,,,,,,,,,,,,,,,,,,,,,,,,,,,,,,,,,,,,,,,,,,,,,,,,,,,,,,,,,,,,,,,,,,,,,,,,,,,,
,,"[""period""]",0,[0.6069000000953508],64,0,64,0,1,5d585e287d795e001788bf4c,41,Kobieta,2022-06-04_08h31.52.983,task,2021.1.4,Win32,59.78358343,628b806c463b948bc644b84f,629afc3715899a2e052afc57,,,,,,,,,,,,,,,,,,,,,,,,,,,,,,,,,,,,,,,,,,,,,,,,,,,,,,,,,,,,,,,,,,,,,,,,,,,,,,,,,,,,,,,,,,,,,,,,,,,,,,,
,,"[""comma""]",0,[0.4796999998092417],65,0,65,0,1,5d585e287d795e001788bf4c,41,Kobieta,2022-06-04_08h31.52.983,task,2021.1.4,Win32,59.78358343,628b806c463b948bc644b84f,629afc3715899a2e052afc57,,,,,,,,,,,,,,,,,,,,,,,,,,,,,,,,,,,,,,,,,,,,,,,,,,,,,,,,,,,,,,,,,,,,,,,,,,,,,,,,,,,,,,,,,,,,,,,,,,,,,,,
,,"[""comma""]",0,[0.7189999999999941],66,0,66,0,1,5d585e287d795e001788bf4c,41,Kobieta,2022-06-04_08h31.52.983,task,2021.1.4,Win32,59.78358343,628b806c463b948bc644b84f,629afc3715899a2e052afc57,,,,,,,,,,,,,,,,,,,,,,,,,,,,,,,,,,,,,,,,,,,,,,,,,,,,,,,,,,,,,,,,,,,,,,,,,,,,,,,,,,,,,,,,,,,,,,,,,,,,,,,
,,"[""comma""]",0,[0.6872999999523017],67,0,67,0,1,5d585e287d795e001788bf4c,41,Kobieta,2022-06-04_08h31.52.983,task,2021.1.4,Win32,59.78358343,628b806c463b948bc644b84f,629afc3715899a2e052afc57,,,,,,,,,,,,,,,,,,,,,,,,,,,,,,,,,,,,,,,,,,,,,,,,,,,,,,,,,,,,,,,,,,,,,,,,,,,,,,,,,,,,,,,,,,,,,,,,,,,,,,,
,,"[""period""]",0,[0.5131000001430266],68,0,68,0,1,5d585e287d795e001788bf4c,41,Kobieta,2022-06-04_08h31.52.983,task,2021.1.4,Win32,59.78358343,628b806c463b948bc644b84f,629afc3715899a2e052afc57,,,,,,,,,,,,,,,,,,,,,,,,,,,,,,,,,,,,,,,,,,,,,,,,,,,,,,,,,,,,,,,,,,,,,,,,,,,,,,,,,,,,,,,,,,,,,,,,,,,,,,,
,,"[""period""]",0,[0.5135000000000218],69,0,69,0,1,5d585e287d795e001788bf4c,41,Kobieta,2022-06-04_08h31.52.983,task,2021.1.4,Win32,59.78358343,628b806c463b948bc644b84f,629afc3715899a2e052afc57,,,,,,,,,,,,,,,,,,,,,,,,,,,,,,,,,,,,,,,,,,,,,,,,,,,,,,,,,,,,,,,,,,,,,,,,,,,,,,,,,,,,,,,,,,,,,,,,,,,,,,,
,,"[""period""]",0,[0.5335999999045953],70,0,70,0,1,5d585e287d795e001788bf4c,41,Kobieta,2022-06-04_08h31.52.983,task,2021.1.4,Win32,59.78358343,628b806c463b948bc644b84f,629afc3715899a2e052afc57,,,,,,,,,,,,,,,,,,,,,,,,,,,,,,,,,,,,,,,,,,,,,,,,,,,,,,,,,,,,,,,,,,,,,,,,,,,,,,,,,,,,,,,,,,,,,,,,,,,,,,,
,,"[""period""]",0,[0.4309000000953347],71,0,71,0,1,5d585e287d795e001788bf4c,41,Kobieta,2022-06-04_08h31.52.983,task,2021.1.4,Win32,59.78358343,628b806c463b948bc644b84f,629afc3715899a2e052afc57,,,,,,,,,,,,,,,,,,,,,,,,,,,,,,,,,,,,,,,,,,,,,,,,,,,,,,,,,,,,,,,,,,,,,,,,,,,,,,,,,,,,,,,,,,,,,,,,,,,,,,,
,,"[""comma""]",0,[0.463400000095362],72,0,72,0,1,5d585e287d795e001788bf4c,41,Kobieta,2022-06-04_08h31.52.983,task,2021.1.4,Win32,59.78358343,628b806c463b948bc644b84f,629afc3715899a2e052afc57,,,,,,,,,,,,,,,,,,,,,,,,,,,,,,,,,,,,,,,,,,,,,,,,,,,,,,,,,,,,,,,,,,,,,,,,,,,,,,,,,,,,,,,,,,,,,,,,,,,,,,,
,,"[""comma""]",0,[0.6074000000953674],73,0,73,0,1,5d585e287d795e001788bf4c,41,Kobieta,2022-06-04_08h31.52.983,task,2021.1.4,Win32,59.78358343,628b806c463b948bc644b84f,629afc3715899a2e052afc57,,,,,,,,,,,,,,,,,,,,,,,,,,,,,,,,,,,,,,,,,,,,,,,,,,,,,,,,,,,,,,,,,,,,,,,,,,,,,,,,,,,,,,,,,,,,,,,,,,,,,,,
,,"[""comma""]",0,[0.5339000000953433],74,0,74,0,1,5d585e287d795e001788bf4c,41,Kobieta,2022-06-04_08h31.52.983,task,2021.1.4,Win32,59.78358343,628b806c463b948bc644b84f,629afc3715899a2e052afc57,,,,,,,,,,,,,,,,,,,,,,,,,,,,,,,,,,,,,,,,,,,,,,,,,,,,,,,,,,,,,,,,,,,,,,,,,,,,,,,,,,,,,,,,,,,,,,,,,,,,,,,
,,"[""period""]",0,[0.433200000047691],75,0,75,0,1,5d585e287d795e001788bf4c,41,Kobieta,2022-06-04_08h31.52.983,task,2021.1.4,Win32,59.78358343,628b806c463b948bc644b84f,629afc3715899a2e052afc57,,,,,,,,,,,,,,,,,,,,,,,,,,,,,,,,,,,,,,,,,,,,,,,,,,,,,,,,,,,,,,,,,,,,,,,,,,,,,,,,,,,,,,,,,,,,,,,,,,,,,,,
,,"[""period""]",0,[0.4635999999046021],76,0,76,0,1,5d585e287d795e001788bf4c,41,Kobieta,2022-06-04_08h31.52.983,task,2021.1.4,Win32,59.78358343,628b806c463b948bc644b84f,629afc3715899a2e052afc57,,,,,,,,,,,,,,,,,,,,,,,,,,,,,,,,,,,,,,,,,,,,,,,,,,,,,,,,,,,,,,,,,,,,,,,,,,,,,,,,,,,,,,,,,,,,,,,,,,,,,,,
,,"[""period""]",0,[0.6230999999046389],77,0,77,0,1,5d585e287d795e001788bf4c,41,Kobieta,2022-06-04_08h31.52.983,task,2021.1.4,Win32,59.78358343,628b806c463b948bc644b84f,629afc3715899a2e052afc57,,,,,,,,,,,,,,,,,,,,,,,,,,,,,,,,,,,,,,,,,,,,,,,,,,,,,,,,,,,,,,,,,,,,,,,,,,,,,,,,,,,,,,,,,,,,,,,,,,,,,,,
,,"[""comma""]",0,[0.5745999999046489],78,0,78,0,1,5d585e287d795e001788bf4c,41,Kobieta,2022-06-04_08h31.52.983,task,2021.1.4,Win32,59.78358343,628b806c463b948bc644b84f,629afc3715899a2e052afc57,,,,,,,,,,,,,,,,,,,,,,,,,,,,,,,,,,,,,,,,,,,,,,,,,,,,,,,,,,,,,,,,,,,,,,,,,,,,,,,,,,,,,,,,,,,,,,,,,,,,,,,
,,"[""period""]",0,[0.7192000000476924],79,0,79,0,1,5d585e287d795e001788bf4c,41,Kobieta,2022-06-04_08h31.52.983,task,2021.1.4,Win32,59.78358343,628b806c463b948bc644b84f,629afc3715899a2e052afc57,,,,,,,,,,,,,,,,,,,,,,,,,,,,,,,,,,,,,,,,,,,,,,,,,,,,,,,,,,,,,,,,,,,,,,,,,,,,,,,,,,,,,,,,,,,,,,,,,,,,,,,
,,"[""period""]",0,[0.6869000000953633],80,0,80,0,1,5d585e287d795e001788bf4c,41,Kobieta,2022-06-04_08h31.52.983,task,2021.1.4,Win32,59.78358343,628b806c463b948bc644b84f,629afc3715899a2e052afc57,,,,,,,,,,,,,,,,,,,,,,,,,,,,,,,,,,,,,,,,,,,,,,,,,,,,,,,,,,,,,,,,,,,,,,,,,,,,,,,,,,,,,,,,,,,,,,,,,,,,,,,
,,"[""period""]",0,[0.6068999998569211],81,0,81,0,1,5d585e287d795e001788bf4c,41,Kobieta,2022-06-04_08h31.52.983,task,2021.1.4,Win32,59.78358343,628b806c463b948bc644b84f,629afc3715899a2e052afc57,,,,,,,,,,,,,,,,,,,,,,,,,,,,,,,,,,,,,,,,,,,,,,,,,,,,,,,,,,,,,,,,,,,,,,,,,,,,,,,,,,,,,,,,,,,,,,,,,,,,,,,
,,"[""period""]",0,[0.63900000000001],82,0,82,0,1,5d585e287d795e001788bf4c,41,Kobieta,2022-06-04_08h31.52.983,task,2021.1.4,Win32,59.78358343,628b806c463b948bc644b84f,629afc3715899a2e052afc57,,,,,,,,,,,,,,,,,,,,,,,,,,,,,,,,,,,,,,,,,,,,,,,,,,,,,,,,,,,,,,,,,,,,,,,,,,,,,,,,,,,,,,,,,,,,,,,,,,,,,,,
,,"[""comma""]",0,[0.5593999998569643],83,0,83,0,1,5d585e287d795e001788bf4c,41,Kobieta,2022-06-04_08h31.52.983,task,2021.1.4,Win32,59.78358343,628b806c463b948bc644b84f,629afc3715899a2e052afc57,,,,,,,,,,,,,,,,,,,,,,,,,,,,,,,,,,,,,,,,,,,,,,,,,,,,,,,,,,,,,,,,,,,,,,,,,,,,,,,,,,,,,,,,,,,,,,,,,,,,,,,
,,"[""comma""]",0,[0.7352999999523036],84,0,84,0,1,5d585e287d795e001788bf4c,41,Kobieta,2022-06-04_08h31.52.983,task,2021.1.4,Win32,59.78358343,628b806c463b948bc644b84f,629afc3715899a2e052afc57,,,,,,,,,,,,,,,,,,,,,,,,,,,,,,,,,,,,,,,,,,,,,,,,,,,,,,,,,,,,,,,,,,,,,,,,,,,,,,,,,,,,,,,,,,,,,,,,,,,,,,,
,,"[""period""]",0,[0.7031000001430243],85,0,85,0,1,5d585e287d795e001788bf4c,41,Kobieta,2022-06-04_08h31.52.983,task,2021.1.4,Win32,59.78358343,628b806c463b948bc644b84f,629afc3715899a2e052afc57,,,,,,,,,,,,,,,,,,,,,,,,,,,,,,,,,,,,,,,,,,,,,,,,,,,,,,,,,,,,,,,,,,,,,,,,,,,,,,,,,,,,,,,,,,,,,,,,,,,,,,,
,,"[""comma""]",0,[0.7669999999999959],86,0,86,0,1,5d585e287d795e001788bf4c,41,Kobieta,2022-06-04_08h31.52.983,task,2021.1.4,Win32,59.78358343,628b806c463b948bc644b84f,629afc3715899a2e052afc57,,,,,,,,,,,,,,,,,,,,,,,,,,,,,,,,,,,,,,,,,,,,,,,,,,,,,,,,,,,,,,,,,,,,,,,,,,,,,,,,,,,,,,,,,,,,,,,,,,,,,,,
,,"[""comma""]",0,[0.9464000000953661],87,0,87,0,1,5d585e287d795e001788bf4c,41,Kobieta,2022-06-04_08h31.52.983,task,2021.1.4,Win32,59.78358343,628b806c463b948bc644b84f,629afc3715899a2e052afc57,,,,,,,,,,,,,,,,,,,,,,,,,,,,,,,,,,,,,,,,,,,,,,,,,,,,,,,,,,,,,,,,,,,,,,,,,,,,,,,,,,,,,,,,,,,,,,,,,,,,,,,
,,,0,,88,0,88,0,1,5d585e287d795e001788bf4c,41,Kobieta,2022-06-04_08h31.52.983,task,2021.1.4,Win32,59.78358343,628b806c463b948bc644b84f,629afc3715899a2e052afc57,,,,,,,,,,,,,,,,,,,,,,,,,,,,,,,,,,,,,,,,,,,,,,,,,,,,,,,,,,,,,,,,,,,,,,,,,,,,,,,,,,,,,,,,,,,,,,,,,,,,,,,
,,"[""comma""]",0,[0.4637000000476519],89,0,89,0,1,5d585e287d795e001788bf4c,41,Kobieta,2022-06-04_08h31.52.983,task,2021.1.4,Win32,59.78358343,628b806c463b948bc644b84f,629afc3715899a2e052afc57,,,,,,,,,,,,,,,,,,,,,,,,,,,,,,,,,,,,,,,,,,,,,,,,,,,,,,,,,,,,,,,,,,,,,,,,,,,,,,,,,,,,,,,,,,,,,,,,,,,,,,,
,,"[""period""]",0,[0.46379999995230037],90,0,90,0,1,5d585e287d795e001788bf4c,41,Kobieta,2022-06-04_08h31.52.983,task,2021.1.4,Win32,59.78358343,628b806c463b948bc644b84f,629afc3715899a2e052afc57,,,,,,,,,,,,,,,,,,,,,,,,,,,,,,,,,,,,,,,,,,,,,,,,,,,,,,,,,,,,,,,,,,,,,,,,,,,,,,,,,,,,,,,,,,,,,,,,,,,,,,,
,,"[""period""]",0,[0.43070000004769327],91,0,91,0,1,5d585e287d795e001788bf4c,41,Kobieta,2022-06-04_08h31.52.983,task,2021.1.4,Win32,59.78358343,628b806c463b948bc644b84f,629afc3715899a2e052afc57,,,,,,,,,,,,,,,,,,,,,,,,,,,,,,,,,,,,,,,,,,,,,,,,,,,,,,,,,,,,,,,,,,,,,,,,,,,,,,,,,,,,,,,,,,,,,,,,,,,,,,,
,,"[""comma""]",0,[0.5172000000476942],92,0,92,0,1,5d585e287d795e001788bf4c,41,Kobieta,2022-06-04_08h31.52.983,task,2021.1.4,Win32,59.78358343,628b806c463b948bc644b84f,629afc3715899a2e052afc57,,,,,,,,,,,,,,,,,,,,,,,,,,,,,,,,,,,,,,,,,,,,,,,,,,,,,,,,,,,,,,,,,,,,,,,,,,,,,,,,,,,,,,,,,,,,,,,,,,,,,,,
,,"[""comma""]",0,[0.5337999999522935],93,0,93,0,1,5d585e287d795e001788bf4c,41,Kobieta,2022-06-04_08h31.52.983,task,2021.1.4,Win32,59.78358343,628b806c463b948bc644b84f,629afc3715899a2e052afc57,,,,,,,,,,,,,,,,,,,,,,,,,,,,,,,,,,,,,,,,,,,,,,,,,,,,,,,,,,,,,,,,,,,,,,,,,,,,,,,,,,,,,,,,,,,,,,,,,,,,,,,
,,"[""comma""]",0,[0.5470999999046171],94,0,94,0,1,5d585e287d795e001788bf4c,41,Kobieta,2022-06-04_08h31.52.983,task,2021.1.4,Win32,59.78358343,628b806c463b948bc644b84f,629afc3715899a2e052afc57,,,,,,,,,,,,,,,,,,,,,,,,,,,,,,,,,,,,,,,,,,,,,,,,,,,,,,,,,,,,,,,,,,,,,,,,,,,,,,,,,,,,,,,,,,,,,,,,,,,,,,,
,,"[""comma""]",0,[0.5339999999999918],95,0,95,0,1,5d585e287d795e001788bf4c,41,Kobieta,2022-06-04_08h31.52.983,task,2021.1.4,Win32,59.78358343,628b806c463b948bc644b84f,629afc3715899a2e052afc57,,,,,,,,,,,,,,,,,,,,,,,,,,,,,,,,,,,,,,,,,,,,,,,,,,,,,,,,,,,,,,,,,,,,,,,,,,,,,,,,,,,,,,,,,,,,,,,,,,,,,,,
,,"[""comma""]",0,[0.3989000000953524],96,0,96,0,1,5d585e287d795e001788bf4c,41,Kobieta,2022-06-04_08h31.52.983,task,2021.1.4,Win32,59.78358343,628b806c463b948bc644b84f,629afc3715899a2e052afc57,,,,,,,,,,,,,,,,,,,,,,,,,,,,,,,,,,,,,,,,,,,,,,,,,,,,,,,,,,,,,,,,,,,,,,,,,,,,,,,,,,,,,,,,,,,,,,,,,,,,,,,
,,"[""comma""]",0,[0.43110000014303296],97,0,97,0,1,5d585e287d795e001788bf4c,41,Kobieta,2022-06-04_08h31.52.983,task,2021.1.4,Win32,59.78358343,628b806c463b948bc644b84f,629afc3715899a2e052afc57,,,,,,,,,,,,,,,,,,,,,,,,,,,,,,,,,,,,,,,,,,,,,,,,,,,,,,,,,,,,,,,,,,,,,,,,,,,,,,,,,,,,,,,,,,,,,,,,,,,,,,,
,,"[""comma""]",0,[0.4797999999523199],98,0,98,0,1,5d585e287d795e001788bf4c,41,Kobieta,2022-06-04_08h31.52.983,task,2021.1.4,Win32,59.78358343,628b806c463b948bc644b84f,629afc3715899a2e052afc57,,,,,,,,,,,,,,,,,,,,,,,,,,,,,,,,,,,,,,,,,,,,,,,,,,,,,,,,,,,,,,,,,,,,,,,,,,,,,,,,,,,,,,,,,,,,,,,,,,,,,,,
,,"[""period""]",0,[0.4307999999522849],99,0,99,0,1,5d585e287d795e001788bf4c,41,Kobieta,2022-06-04_08h31.52.983,task,2021.1.4,Win32,59.78358343,628b806c463b948bc644b84f,629afc3715899a2e052afc57,,,,,,,,,,,,,,,,,,,,,,,,,,,,,,,,,,,,,,,,,,,,,,,,,,,,,,,,,,,,,,,,,,,,,,,,,,,,,,,,,,,,,,,,,,,,,,,,,,,,,,,
,,"[""period""]",0,[0.5595000000000141],100,0,100,0,1,5d585e287d795e001788bf4c,41,Kobieta,2022-06-04_08h31.52.983,task,2021.1.4,Win32,59.78358343,628b806c463b948bc644b84f,629afc3715899a2e052afc57,,,,,,,,,,,,,,,,,,,,,,,,,,,,,,,,,,,,,,,,,,,,,,,,,,,,,,,,,,,,,,,,,,,,,,,,,,,,,,,,,,,,,,,,,,,,,,,,,,,,,,,
,,"[""period""]",0,[0.5337999999522935],101,0,101,0,1,5d585e287d795e001788bf4c,41,Kobieta,2022-06-04_08h31.52.983,task,2021.1.4,Win32,59.78358343,628b806c463b948bc644b84f,629afc3715899a2e052afc57,,,,,,,,,,,,,,,,,,,,,,,,,,,,,,,,,,,,,,,,,,,,,,,,,,,,,,,,,,,,,,,,,,,,,,,,,,,,,,,,,,,,,,,,,,,,,,,,,,,,,,,
,,"[""period""]",0,[0.46360000014306024],102,0,102,0,1,5d585e287d795e001788bf4c,41,Kobieta,2022-06-04_08h31.52.983,task,2021.1.4,Win32,59.78358343,628b806c463b948bc644b84f,629afc3715899a2e052afc57,,,,,,,,,,,,,,,,,,,,,,,,,,,,,,,,,,,,,,,,,,,,,,,,,,,,,,,,,,,,,,,,,,,,,,,,,,,,,,,,,,,,,,,,,,,,,,,,,,,,,,,
,,"[""period""]",0,[0.546900000095377],103,0,103,0,1,5d585e287d795e001788bf4c,41,Kobieta,2022-06-04_08h31.52.983,task,2021.1.4,Win32,59.78358343,628b806c463b948bc644b84f,629afc3715899a2e052afc57,,,,,,,,,,,,,,,,,,,,,,,,,,,,,,,,,,,,,,,,,,,,,,,,,,,,,,,,,,,,,,,,,,,,,,,,,,,,,,,,,,,,,,,,,,,,,,,,,,,,,,,
,,"[""period""]",0,[0.4633999998569607],104,0,104,0,1,5d585e287d795e001788bf4c,41,Kobieta,2022-06-04_08h31.52.983,task,2021.1.4,Win32,59.78358343,628b806c463b948bc644b84f,629afc3715899a2e052afc57,,,,,,,,,,,,,,,,,,,,,,,,,,,,,,,,,,,,,,,,,,,,,,,,,,,,,,,,,,,,,,,,,,,,,,,,,,,,,,,,,,,,,,,,,,,,,,,,,,,,,,,
,,"[""comma""]",0,[0.5912999999522981],105,0,105,0,1,5d585e287d795e001788bf4c,41,Kobieta,2022-06-04_08h31.52.983,task,2021.1.4,Win32,59.78358343,628b806c463b948bc644b84f,629afc3715899a2e052afc57,,,,,,,,,,,,,,,,,,,,,,,,,,,,,,,,,,,,,,,,,,,,,,,,,,,,,,,,,,,,,,,,,,,,,,,,,,,,,,,,,,,,,,,,,,,,,,,,,,,,,,,
,,"[""comma""]",0,[0.6066000001430325],106,0,106,0,1,5d585e287d795e001788bf4c,41,Kobieta,2022-06-04_08h31.52.983,task,2021.1.4,Win32,59.78358343,628b806c463b948bc644b84f,629afc3715899a2e052afc57,,,,,,,,,,,,,,,,,,,,,,,,,,,,,,,,,,,,,,,,,,,,,,,,,,,,,,,,,,,,,,,,,,,,,,,,,,,,,,,,,,,,,,,,,,,,,,,,,,,,,,,
,,"[""comma""]",0,[0.46359999990465894],107,0,107,0,1,5d585e287d795e001788bf4c,41,Kobieta,2022-06-04_08h31.52.983,task,2021.1.4,Win32,59.78358343,628b806c463b948bc644b84f,629afc3715899a2e052afc57,,,,,,,,,,,,,,,,,,,,,,,,,,,,,,,,,,,,,,,,,,,,,,,,,,,,,,,,,,,,,,,,,,,,,,,,,,,,,,,,,,,,,,,,,,,,,,,,,,,,,,,
,,"[""comma""]",0,[0.4799000000953697],108,0,108,0,1,5d585e287d795e001788bf4c,41,Kobieta,2022-06-04_08h31.52.983,task,2021.1.4,Win32,59.78358343,628b806c463b948bc644b84f,629afc3715899a2e052afc57,,,,,,,,,,,,,,,,,,,,,,,,,,,,,,,,,,,,,,,,,,,,,,,,,,,,,,,,,,,,,,,,,,,,,,,,,,,,,,,,,,,,,,,,,,,,,,,,,,,,,,,
,,"[""period""]",0,[0.4472999999523495],109,0,109,0,1,5d585e287d795e001788bf4c,41,Kobieta,2022-06-04_08h31.52.983,task,2021.1.4,Win32,59.78358343,628b806c463b948bc644b84f,629afc3715899a2e052afc57,,,,,,,,,,,,,,,,,,,,,,,,,,,,,,,,,,,,,,,,,,,,,,,,,,,,,,,,,,,,,,,,,,,,,,,,,,,,,,,,,,,,,,,,,,,,,,,,,,,,,,,
,,"[""period""]",0,[0.43070000004769327],110,0,110,0,1,5d585e287d795e001788bf4c,41,Kobieta,2022-06-04_08h31.52.983,task,2021.1.4,Win32,59.78358343,628b806c463b948bc644b84f,629afc3715899a2e052afc57,,,,,,,,,,,,,,,,,,,,,,,,,,,,,,,,,,,,,,,,,,,,,,,,,,,,,,,,,,,,,,,,,,,,,,,,,,,,,,,,,,,,,,,,,,,,,,,,,,,,,,,
,,"[""period""]",0,[0.4336000001430307],111,0,111,0,1,5d585e287d795e001788bf4c,41,Kobieta,2022-06-04_08h31.52.983,task,2021.1.4,Win32,59.78358343,628b806c463b948bc644b84f,629afc3715899a2e052afc57,,,,,,,,,,,,,,,,,,,,,,,,,,,,,,,,,,,,,,,,,,,,,,,,,,,,,,,,,,,,,,,,,,,,,,,,,,,,,,,,,,,,,,,,,,,,,,,,,,,,,,,
,,"[""period""]",0,[0.4147999999523222],112,0,112,0,1,5d585e287d795e001788bf4c,41,Kobieta,2022-06-04_08h31.52.983,task,2021.1.4,Win32,59.78358343,628b806c463b948bc644b84f,629afc3715899a2e052afc57,,,,,,,,,,,,,,,,,,,,,,,,,,,,,,,,,,,,,,,,,,,,,,,,,,,,,,,,,,,,,,,,,,,,,,,,,,,,,,,,,,,,,,,,,,,,,,,,,,,,,,,
,,"[""comma""]",0,[0.3990000000000009],113,0,113,0,1,5d585e287d795e001788bf4c,41,Kobieta,2022-06-04_08h31.52.983,task,2021.1.4,Win32,59.78358343,628b806c463b948bc644b84f,629afc3715899a2e052afc57,,,,,,,,,,,,,,,,,,,,,,,,,,,,,,,,,,,,,,,,,,,,,,,,,,,,,,,,,,,,,,,,,,,,,,,,,,,,,,,,,,,,,,,,,,,,,,,,,,,,,,,
,,"[""comma""]",0,[0.3669999999999618],114,0,114,0,1,5d585e287d795e001788bf4c,41,Kobieta,2022-06-04_08h31.52.983,task,2021.1.4,Win32,59.78358343,628b806c463b948bc644b84f,629afc3715899a2e052afc57,,,,,,,,,,,,,,,,,,,,,,,,,,,,,,,,,,,,,,,,,,,,,,,,,,,,,,,,,,,,,,,,,,,,,,,,,,,,,,,,,,,,,,,,,,,,,,,,,,,,,,,
,,"[""comma""]",0,[0.38299999999998136],115,0,115,0,1,5d585e287d795e001788bf4c,41,Kobieta,2022-06-04_08h31.52.983,task,2021.1.4,Win32,59.78358343,628b806c463b948bc644b84f,629afc3715899a2e052afc57,,,,,,,,,,,,,,,,,,,,,,,,,,,,,,,,,,,,,,,,,,,,,,,,,,,,,,,,,,,,,,,,,,,,,,,,,,,,,,,,,,,,,,,,,,,,,,,,,,,,,,,
,,"[""comma""]",0,[0.3827999999522831],116,0,116,0,1,5d585e287d795e001788bf4c,41,Kobieta,2022-06-04_08h31.52.983,task,2021.1.4,Win32,59.78358343,628b806c463b948bc644b84f,629afc3715899a2e052afc57,,,,,,,,,,,,,,,,,,,,,,,,,,,,,,,,,,,,,,,,,,,,,,,,,,,,,,,,,,,,,,,,,,,,,,,,,,,,,,,,,,,,,,,,,,,,,,,,,,,,,,,
,,"[""period""]",0,[0.33499999999997954],117,0,117,0,1,5d585e287d795e001788bf4c,41,Kobieta,2022-06-04_08h31.52.983,task,2021.1.4,Win32,59.78358343,628b806c463b948bc644b84f,629afc3715899a2e052afc57,,,,,,,,,,,,,,,,,,,,,,,,,,,,,,,,,,,,,,,,,,,,,,,,,,,,,,,,,,,,,,,,,,,,,,,,,,,,,,,,,,,,,,,,,,,,,,,,,,,,,,,
,,"[""period""]",0,[0.41710000014302295],118,0,118,0,1,5d585e287d795e001788bf4c,41,Kobieta,2022-06-04_08h31.52.983,task,2021.1.4,Win32,59.78358343,628b806c463b948bc644b84f,629afc3715899a2e052afc57,,,,,,,,,,,,,,,,,,,,,,,,,,,,,,,,,,,,,,,,,,,,,,,,,,,,,,,,,,,,,,,,,,,,,,,,,,,,,,,,,,,,,,,,,,,,,,,,,,,,,,,
,,"[""period""]",0,[0.36710000014306843],119,0,119,0,1,5d585e287d795e001788bf4c,41,Kobieta,2022-06-04_08h31.52.983,task,2021.1.4,Win32,59.78358343,628b806c463b948bc644b84f,629afc3715899a2e052afc57,,,,,,,,,,,,,,,,,,,,,,,,,,,,,,,,,,,,,,,,,,,,,,,,,,,,,,,,,,,,,,,,,,,,,,,,,,,,,,,,,,,,,,,,,,,,,,,,,,,,,,,
,,,,,,,,,,5d585e287d795e001788bf4c,41,Kobieta,2022-06-04_08h31.52.983,task,2021.1.4,Win32,59.78358343,628b806c463b948bc644b84f,629afc3715899a2e052afc57,space,37.473,space,9.2344,0,0,0,0,1,X V Q F H G B L J M P D K C T S W R N Z,,,,,,,,,,,,,,,,,,,,,,,,,,,,,,,,,,,,,,,,,,,,,,,,,,,,,,,,,,,,,,,,,,,,,,,,,,,,,,,,,,,,,,,,,,,,,
,,,,,,,,,,5d585e287d795e001788bf4c,41,Kobieta,2022-06-04_08h31.52.983,task,2021.1.4,Win32,59.78358343,628b806c463b948bc644b84f,629afc3715899a2e052afc57,,,,,1,0,1,0,1,X V Q F H G B L J M P D K C T S W R N Z,,,,,,,,,,,,,,,,,,,,,,,,,,,,,,,,,,,,,,,,,,,,,,,,,,,,,,,,,,,,,,,,,,,,,,,,,,,,,,,,,,,,,,,,,,,,,
,,,,,,,,,,5d585e287d795e001788bf4c,41,Kobieta,2022-06-04_08h31.52.983,task,2021.1.4,Win32,59.78358343,628b806c463b948bc644b84f,629afc3715899a2e052afc57,,,,,,,,,,,zj,"[""z"",""j""]","[3.8000000000000114,4.213199999809262,6.41729999995232]",1,ZJ,0,0,0,0,1,,,,,,,,,,,,,,,,,,,,,,,,,,,,,,,,,,,,,,,,,,,,,,,,,,,,,,,,,,,,,,,,,,,,,,,,,,,,,,,,,,,
,,,,,,,,,,5d585e287d795e001788bf4c,41,Kobieta,2022-06-04_08h31.52.983,task,2021.1.4,Win32,59.78358343,628b806c463b948bc644b84f,629afc3715899a2e052afc57,,,,,0,0,0,0,1,X V Q F H G B L J M P D K C T S W R N Z,,,,,,,,,,,,,,,,,,,,,,,,,,,,,,,,,,,,,,,,,,,,,,,,,,,,,,,,,,,,,,,,,,,,,,,,,,,,,,,,,,,,,,,,,,,,,
,,,,,,,,,,5d585e287d795e001788bf4c,41,Kobieta,2022-06-04_08h31.52.983,task,2021.1.4,Win32,59.78358343,628b806c463b948bc644b84f,629afc3715899a2e052afc57,,,,,1,0,1,0,1,X V Q F H G B L J M P D K C T S W R N Z,,,,,,,,,,,,,,,,,,,,,,,,,,,,,,,,,,,,,,,,,,,,,,,,,,,,,,,,,,,,,,,,,,,,,,,,,,,,,,,,,,,,,,,,,,,,,
,,,,,,,,,,5d585e287d795e001788bf4c,41,Kobieta,2022-06-04_08h31.52.983,task,2021.1.4,Win32,59.78358343,628b806c463b948bc644b84f,629afc3715899a2e052afc57,,,,,,,,,,,br,"[""b"",""r""]","[1.6572000000476805,2.073000000000036,3.4805000000000064]",1,BR,1,0,1,0,1,,,,,,,,,,,,,,,,,,,,,,,,,,,,,,,,,,,,,,,,,,,,,,,,,,,,,,,,,,,,,,,,,,,,,,,,,,,,,,,,,,,
,,,,,,,,,,5d585e287d795e001788bf4c,41,Kobieta,2022-06-04_08h31.52.983,task,2021.1.4,Win32,59.78358343,628b806c463b948bc644b84f,629afc3715899a2e052afc57,,,,,0,0,0,0,1,X V Q F H G B L J M P D K C T S W R N Z,,,,,,,,,,,,,,,,,,,,,,,,,,,,,,,,,,,,,,,,,,,,,,,,,,,,,,,,,,,,,,,,,,,,,,,,,,,,,,,,,,,,,,,,,,,,,
,,,,,,,,,,5d585e287d795e001788bf4c,41,Kobieta,2022-06-04_08h31.52.983,task,2021.1.4,Win32,59.78358343,628b806c463b948bc644b84f,629afc3715899a2e052afc57,,,,,1,0,1,0,1,X V Q F H G B L J M P D K C T S W R N Z,,,,,,,,,,,,,,,,,,,,,,,,,,,,,,,,,,,,,,,,,,,,,,,,,,,,,,,,,,,,,,,,,,,,,,,,,,,,,,,,,,,,,,,,,,,,,
,,,,,,,,,,5d585e287d795e001788bf4c,41,Kobieta,2022-06-04_08h31.52.983,task,2021.1.4,Win32,59.78358343,628b806c463b948bc644b84f,629afc3715899a2e052afc57,,,,,2,0,2,0,1,X V Q F H G B L J M P D K C T S W R N Z,,,,,,,,,,,,,,,,,,,,,,,,,,,,,,,,,,,,,,,,,,,,,,,,,,,,,,,,,,,,,,,,,,,,,,,,,,,,,,,,,,,,,,,,,,,,,
,,,,,,,,,,5d585e287d795e001788bf4c,41,Kobieta,2022-06-04_08h31.52.983,task,2021.1.4,Win32,59.78358343,628b806c463b948bc644b84f,629afc3715899a2e052afc57,,,,,,,,,,,jmh,"[""j"",""m"",""h""]","[1.8410999999045998,2.146599999904595,3.2007999999523236,4.513299999952324]",1,JMH,2,0,2,0,1,,,,,,,,,,,,,,,,,,,,,,,,,,,,,,,,,,,,,,,,,,,,,,,,,,,,,,,,,,,,,,,,,,,,,,,,,,,,,,,,,,,
,,,,,,,,,,5d585e287d795e001788bf4c,41,Kobieta,2022-06-04_08h31.52.983,task,2021.1.4,Win32,59.78358343,628b806c463b948bc644b84f,629afc3715899a2e052afc57,,,,,0,0,0,0,1,X V Q F H G B L J M P D K C T S W R N Z,,,,,,,,,,,,,,,,,,,,,,,,,,,,,,,,,,,,,,,,,,,,,,,,,,,,,,,,,,,,,,,,,,,,,,,,,,,,,,,,,,,,,,,,,,,,,
,,,,,,,,,,5d585e287d795e001788bf4c,41,Kobieta,2022-06-04_08h31.52.983,task,2021.1.4,Win32,59.78358343,628b806c463b948bc644b84f,629afc3715899a2e052afc57,,,,,1,0,1,0,1,X V Q F H G B L J M P D K C T S W R N Z,,,,,,,,,,,,,,,,,,,,,,,,,,,,,,,,,,,,,,,,,,,,,,,,,,,,,,,,,,,,,,,,,,,,,,,,,,,,,,,,,,,,,,,,,,,,,
,,,,,,,,,,5d585e287d795e001788bf4c,41,Kobieta,2022-06-04_08h31.52.983,task,2021.1.4,Win32,59.78358343,628b806c463b948bc644b84f,629afc3715899a2e052afc57,,,,,2,0,2,0,1,X V Q F H G B L J M P D K C T S W R N Z,,,,,,,,,,,,,,,,,,,,,,,,,,,,,,,,,,,,,,,,,,,,,,,,,,,,,,,,,,,,,,,,,,,,,,,,,,,,,,,,,,,,,,,,,,,,,
,,,,,,,,,,5d585e287d795e001788bf4c,41,Kobieta,2022-06-04_08h31.52.983,task,2021.1.4,Win32,59.78358343,628b806c463b948bc644b84f,629afc3715899a2e052afc57,,,,,,,,,,,qtq,"[""q"",""t"",""q""]","[1.5197999999522835,1.8398999998569252,2.064099999904613,3.313299999952278]",1,QTQ,3,0,3,0,1,,,,,,,,,,,,,,,,,,,,,,,,,,,,,,,,,,,,,,,,,,,,,,,,,,,,,,,,,,,,,,,,,,,,,,,,,,,,,,,,,,,
,,,,,,,,,,5d585e287d795e001788bf4c,41,Kobieta,2022-06-04_08h31.52.983,task,2021.1.4,Win32,59.78358343,628b806c463b948bc644b84f,629afc3715899a2e052afc57,,,,,0,0,0,0,1,X V Q F H G B L J M P D K C T S W R N Z,,,,,,,,,,,,,,,,,,,,,,,,,,,,,,,,,,,,,,,,,,,,,,,,,,,,,,,,,,,,,,,,,,,,,,,,,,,,,,,,,,,,,,,,,,,,,
,,,,,,,,,,5d585e287d795e001788bf4c,41,Kobieta,2022-06-04_08h31.52.983,task,2021.1.4,Win32,59.78358343,628b806c463b948bc644b84f,629afc3715899a2e052afc57,,,,,1,0,1,0,1,X V Q F H G B L J M P D K C T S W R N Z,,,,,,,,,,,,,,,,,,,,,,,,,,,,,,,,,,,,,,,,,,,,,,,,,,,,,,,,,,,,,,,,,,,,,,,,,,,,,,,,,,,,,,,,,,,,,
,,,,,,,,,,5d585e287d795e001788bf4c,41,Kobieta,2022-06-04_08h31.52.983,task,2021.1.4,Win32,59.78358343,628b806c463b948bc644b84f,629afc3715899a2e052afc57,,,,,2,0,2,0,1,X V Q F H G B L J M P D K C T S W R N Z,,,,,,,,,,,,,,,,,,,,,,,,,,,,,,,,,,,,,,,,,,,,,,,,,,,,,,,,,,,,,,,,,,,,,,,,,,,,,,,,,,,,,,,,,,,,,
,,,,,,,,,,5d585e287d795e001788bf4c,41,Kobieta,2022-06-04_08h31.52.983,task,2021.1.4,Win32,59.78358343,628b806c463b948bc644b84f,629afc3715899a2e052afc57,,,,,3,0,3,0,1,X V Q F H G B L J M P D K C T S W R N Z,,,,,,,,,,,,,,,,,,,,,,,,,,,,,,,,,,,,,,,,,,,,,,,,,,,,,,,,,,,,,,,,,,,,,,,,,,,,,,,,,,,,,,,,,,,,,
,,,,,,,,,,5d585e287d795e001788bf4c,41,Kobieta,2022-06-04_08h31.52.983,task,2021.1.4,Win32,59.78358343,628b806c463b948bc644b84f,629afc3715899a2e052afc57,,,,,,,,,,,rlsg,"[""r"",""l"",""s"",""g""]","[3.7065000000000055,4.347199999809277,4.746899999856964,5.3700000000000045,6.473699999809298]",0,LRSG,4,0,4,0,1,,,,,,,,,,,,,,,,,,,,,,,,,,,,,,,,,,,,,,,,,,,,,,,,,,,,,,,,,,,,,,,,,,,,,,,,,,,,,,,,,,,
,,,,,,,,,,5d585e287d795e001788bf4c,41,Kobieta,2022-06-04_08h31.52.983,task,2021.1.4,Win32,59.78358343,628b806c463b948bc644b84f,629afc3715899a2e052afc57,,,,,0,0,0,0,1,X V Q F H G B L J M P D K C T S W R N Z,,,,,,,,,,,,,,,,,,,,,,,,,,,,,,,,,,,,,,,,,,,,,,,,,,,,,,,,,,,,,,,,,,,,,,,,,,,,,,,,,,,,,,,,,,,,,
,,,,,,,,,,5d585e287d795e001788bf4c,41,Kobieta,2022-06-04_08h31.52.983,task,2021.1.4,Win32,59.78358343,628b806c463b948bc644b84f,629afc3715899a2e052afc57,,,,,1,0,1,0,1,X V Q F H G B L J M P D K C T S W R N Z,,,,,,,,,,,,,,,,,,,,,,,,,,,,,,,,,,,,,,,,,,,,,,,,,,,,,,,,,,,,,,,,,,,,,,,,,,,,,,,,,,,,,,,,,,,,,
,,,,,,,,,,5d585e287d795e001788bf4c,41,Kobieta,2022-06-04_08h31.52.983,task,2021.1.4,Win32,59.78358343,628b806c463b948bc644b84f,629afc3715899a2e052afc57,,,,,2,0,2,0,1,X V Q F H G B L J M P D K C T S W R N Z,,,,,,,,,,,,,,,,,,,,,,,,,,,,,,,,,,,,,,,,,,,,,,,,,,,,,,,,,,,,,,,,,,,,,,,,,,,,,,,,,,,,,,,,,,,,,
,,,,,,,,,,5d585e287d795e001788bf4c,41,Kobieta,2022-06-04_08h31.52.983,task,2021.1.4,Win32,59.78358343,628b806c463b948bc644b84f,629afc3715899a2e052afc57,,,,,3,0,3,0,1,X V Q F H G B L J M P D K C T S W R N Z,,,,,,,,,,,,,,,,,,,,,,,,,,,,,,,,,,,,,,,,,,,,,,,,,,,,,,,,,,,,,,,,,,,,,,,,,,,,,,,,,,,,,,,,,,,,,
,,,,,,,,,,5d585e287d795e001788bf4c,41,Kobieta,2022-06-04_08h31.52.983,task,2021.1.4,Win32,59.78358343,628b806c463b948bc644b84f,629afc3715899a2e052afc57,,,,,,,,,,,tclk,"[""t"",""c"",""l"",""k""]","[2.071200000047668,2.470700000047657,3.238999999999976,4.5349000000953765,6.5026000001430475]",1,TCLK,5,0,5,0,1,,,,,,,,,,,,,,,,,,,,,,,,,,,,,,,,,,,,,,,,,,,,,,,,,,,,,,,,,,,,,,,,,,,,,,,,,,,,,,,,,,,
,,,,,,,,,,5d585e287d795e001788bf4c,41,Kobieta,2022-06-04_08h31.52.983,task,2021.1.4,Win32,59.78358343,628b806c463b948bc644b84f,629afc3715899a2e052afc57,,,,,0,0,0,0,1,X V Q F H G B L J M P D K C T S W R N Z,,,,,,,,,,,,,,,,,,,,,,,,,,,,,,,,,,,,,,,,,,,,,,,,,,,,,,,,,,,,,,,,,,,,,,,,,,,,,,,,,,,,,,,,,,,,,
,,,,,,,,,,5d585e287d795e001788bf4c,41,Kobieta,2022-06-04_08h31.52.983,task,2021.1.4,Win32,59.78358343,628b806c463b948bc644b84f,629afc3715899a2e052afc57,,,,,1,0,1,0,1,X V Q F H G B L J M P D K C T S W R N Z,,,,,,,,,,,,,,,,,,,,,,,,,,,,,,,,,,,,,,,,,,,,,,,,,,,,,,,,,,,,,,,,,,,,,,,,,,,,,,,,,,,,,,,,,,,,,
,,,,,,,,,,5d585e287d795e001788bf4c,41,Kobieta,2022-06-04_08h31.52.983,task,2021.1.4,Win32,59.78358343,628b806c463b948bc644b84f,629afc3715899a2e052afc57,,,,,2,0,2,0,1,X V Q F H G B L J M P D K C T S W R N Z,,,,,,,,,,,,,,,,,,,,,,,,,,,,,,,,,,,,,,,,,,,,,,,,,,,,,,,,,,,,,,,,,,,,,,,,,,,,,,,,,,,,,,,,,,,,,
,,,,,,,,,,5d585e287d795e001788bf4c,41,Kobieta,2022-06-04_08h31.52.983,task,2021.1.4,Win32,59.78358343,628b806c463b948bc644b84f,629afc3715899a2e052afc57,,,,,3,0,3,0,1,X V Q F H G B L J M P D K C T S W R N Z,,,,,,,,,,,,,,,,,,,,,,,,,,,,,,,,,,,,,,,,,,,,,,,,,,,,,,,,,,,,,,,,,,,,,,,,,,,,,,,,,,,,,,,,,,,,,
,,,,,,,,,,5d585e287d795e001788bf4c,41,Kobieta,2022-06-04_08h31.52.983,task,2021.1.4,Win32,59.78358343,628b806c463b948bc644b84f,629afc3715899a2e052afc57,,,,,,,,,,,wpvx,"[""w"",""p"",""v"",""x""]","[1.8584999999999923,2.2900000000000205,3.7141999998092388,4.626299999952323,5.826199999809262]",1,WPVX,6,0,6,0,1,,,,,,,,,,,,,,,,,,,,,,,,,,,,,,,,,,,,,,,,,,,,,,,,,,,,,,,,,,,,,,,,,,,,,,,,,,,,,,,,,,,
,,,,,,,,,,5d585e287d795e001788bf4c,41,Kobieta,2022-06-04_08h31.52.983,task,2021.1.4,Win32,59.78358343,628b806c463b948bc644b84f,629afc3715899a2e052afc57,,,,,0,0,0,0,1,X V Q F H G B L J M P D K C T S W R N Z,,,,,,,,,,,,,,,,,,,,,,,,,,,,,,,,,,,,,,,,,,,,,,,,,,,,,,,,,,,,,,,,,,,,,,,,,,,,,,,,,,,,,,,,,,,,,
,,,,,,,,,,5d585e287d795e001788bf4c,41,Kobieta,2022-06-04_08h31.52.983,task,2021.1.4,Win32,59.78358343,628b806c463b948bc644b84f,629afc3715899a2e052afc57,,,,,1,0,1,0,1,X V Q F H G B L J M P D K C T S W R N Z,,,,,,,,,,,,,,,,,,,,,,,,,,,,,,,,,,,,,,,,,,,,,,,,,,,,,,,,,,,,,,,,,,,,,,,,,,,,,,,,,,,,,,,,,,,,,
,,,,,,,,,,5d585e287d795e001788bf4c,41,Kobieta,2022-06-04_08h31.52.983,task,2021.1.4,Win32,59.78358343,628b806c463b948bc644b84f,629afc3715899a2e052afc57,,,,,2,0,2,0,1,X V Q F H G B L J M P D K C T S W R N Z,,,,,,,,,,,,,,,,,,,,,,,,,,,,,,,,,,,,,,,,,,,,,,,,,,,,,,,,,,,,,,,,,,,,,,,,,,,,,,,,,,,,,,,,,,,,,
,,,,,,,,,,5d585e287d795e001788bf4c,41,Kobieta,2022-06-04_08h31.52.983,task,2021.1.4,Win32,59.78358343,628b806c463b948bc644b84f,629afc3715899a2e052afc57,,,,,3,0,3,0,1,X V Q F H G B L J M P D K C T S W R N Z,,,,,,,,,,,,,,,,,,,,,,,,,,,,,,,,,,,,,,,,,,,,,,,,,,,,,,,,,,,,,,,,,,,,,,,,,,,,,,,,,,,,,,,,,,,,,
,,,,,,,,,,5d585e287d795e001788bf4c,41,Kobieta,2022-06-04_08h31.52.983,task,2021.1.4,Win32,59.78358343,628b806c463b948bc644b84f,629afc3715899a2e052afc57,,,,,4,0,4,0,1,X V Q F H G B L J M P D K C T S W R N Z,,,,,,,,,,,,,,,,,,,,,,,,,,,,,,,,,,,,,,,,,,,,,,,,,,,,,,,,,,,,,,,,,,,,,,,,,,,,,,,,,,,,,,,,,,,,,
,,,,,,,,,,5d585e287d795e001788bf4c,41,Kobieta,2022-06-04_08h31.52.983,task,2021.1.4,Win32,59.78358343,628b806c463b948bc644b84f,629afc3715899a2e052afc57,,,,,,,,,,,cgrtl,"[""c"",""g"",""r"",""t"",""l""]","[3.12510000014305,3.7007999999522667,4.372900000095342,4.9487000000476655,5.524799999952279,6.596700000047633]",1,CGRTL,7,0,7,0,1,,,,,,,,,,,,,,,,,,,,,,,,,,,,,,,,,,,,,,,,,,,,,,,,,,,,,,,,,,,,,,,,,,,,,,,,,,,,,,,,,,,
,,,,,,,,,,5d585e287d795e001788bf4c,41,Kobieta,2022-06-04_08h31.52.983,task,2021.1.4,Win32,59.78358343,628b806c463b948bc644b84f,629afc3715899a2e052afc57,,,,,0,0,0,0,1,X V Q F H G B L J M P D K C T S W R N Z,,,,,,,,,,,,,,,,,,,,,,,,,,,,,,,,,,,,,,,,,,,,,,,,,,,,,,,,,,,,,,,,,,,,,,,,,,,,,,,,,,,,,,,,,,,,,
,,,,,,,,,,5d585e287d795e001788bf4c,41,Kobieta,2022-06-04_08h31.52.983,task,2021.1.4,Win32,59.78358343,628b806c463b948bc644b84f,629afc3715899a2e052afc57,,,,,1,0,1,0,1,X V Q F H G B L J M P D K C T S W R N Z,,,,,,,,,,,,,,,,,,,,,,,,,,,,,,,,,,,,,,,,,,,,,,,,,,,,,,,,,,,,,,,,,,,,,,,,,,,,,,,,,,,,,,,,,,,,,
,,,,,,,,,,5d585e287d795e001788bf4c,41,Kobieta,2022-06-04_08h31.52.983,task,2021.1.4,Win32,59.78358343,628b806c463b948bc644b84f,629afc3715899a2e052afc57,,,,,2,0,2,0,1,X V Q F H G B L J M P D K C T S W R N Z,,,,,,,,,,,,,,,,,,,,,,,,,,,,,,,,,,,,,,,,,,,,,,,,,,,,,,,,,,,,,,,,,,,,,,,,,,,,,,,,,,,,,,,,,,,,,
,,,,,,,,,,5d585e287d795e001788bf4c,41,Kobieta,2022-06-04_08h31.52.983,task,2021.1.4,Win32,59.78358343,628b806c463b948bc644b84f,629afc3715899a2e052afc57,,,,,3,0,3,0,1,X V Q F H G B L J M P D K C T S W R N Z,,,,,,,,,,,,,,,,,,,,,,,,,,,,,,,,,,,,,,,,,,,,,,,,,,,,,,,,,,,,,,,,,,,,,,,,,,,,,,,,,,,,,,,,,,,,,
,,,,,,,,,,5d585e287d795e001788bf4c,41,Kobieta,2022-06-04_08h31.52.983,task,2021.1.4,Win32,59.78358343,628b806c463b948bc644b84f,629afc3715899a2e052afc57,,,,,4,0,4,0,1,X V Q F H G B L J M P D K C T S W R N Z,,,,,,,,,,,,,,,,,,,,,,,,,,,,,,,,,,,,,,,,,,,,,,,,,,,,,,,,,,,,,,,,,,,,,,,,,,,,,,,,,,,,,,,,,,,,,
,,,,,,,,,,5d585e287d795e001788bf4c,41,Kobieta,2022-06-04_08h31.52.983,task,2021.1.4,Win32,59.78358343,628b806c463b948bc644b84f,629afc3715899a2e052afc57,,,,,,,,,,,zgbrk,"[""z"",""g"",""b"",""r"",""k""]","[3.9675000000000296,4.936500000000024,5.272600000143086,5.848300000190761,6.488500000000045,7.608200000047702]",1,ZGBRK,8,0,8,0,1,,,,,,,,,,,,,,,,,,,,,,,,,,,,,,,,,,,,,,,,,,,,,,,,,,,,,,,,,,,,,,,,,,,,,,,,,,,,,,,,,,,
,,,,,,,,,,5d585e287d795e001788bf4c,41,Kobieta,2022-06-04_08h31.52.983,task,2021.1.4,Win32,59.78358343,628b806c463b948bc644b84f,629afc3715899a2e052afc57,,,,,0,0,0,0,1,X V Q F H G B L J M P D K C T S W R N Z,,,,,,,,,,,,,,,,,,,,,,,,,,,,,,,,,,,,,,,,,,,,,,,,,,,,,,,,,,,,,,,,,,,,,,,,,,,,,,,,,,,,,,,,,,,,,
,,,,,,,,,,5d585e287d795e001788bf4c,41,Kobieta,2022-06-04_08h31.52.983,task,2021.1.4,Win32,59.78358343,628b806c463b948bc644b84f,629afc3715899a2e052afc57,,,,,1,0,1,0,1,X V Q F H G B L J M P D K C T S W R N Z,,,,,,,,,,,,,,,,,,,,,,,,,,,,,,,,,,,,,,,,,,,,,,,,,,,,,,,,,,,,,,,,,,,,,,,,,,,,,,,,,,,,,,,,,,,,,
,,,,,,,,,,5d585e287d795e001788bf4c,41,Kobieta,2022-06-04_08h31.52.983,task,2021.1.4,Win32,59.78358343,628b806c463b948bc644b84f,629afc3715899a2e052afc57,,,,,2,0,2,0,1,X V Q F H G B L J M P D K C T S W R N Z,,,,,,,,,,,,,,,,,,,,,,,,,,,,,,,,,,,,,,,,,,,,,,,,,,,,,,,,,,,,,,,,,,,,,,,,,,,,,,,,,,,,,,,,,,,,,
,,,,,,,,,,5d585e287d795e001788bf4c,41,Kobieta,2022-06-04_08h31.52.983,task,2021.1.4,Win32,59.78358343,628b806c463b948bc644b84f,629afc3715899a2e052afc57,,,,,3,0,3,0,1,X V Q F H G B L J M P D K C T S W R N Z,,,,,,,,,,,,,,,,,,,,,,,,,,,,,,,,,,,,,,,,,,,,,,,,,,,,,,,,,,,,,,,,,,,,,,,,,,,,,,,,,,,,,,,,,,,,,
,,,,,,,,,,5d585e287d795e001788bf4c,41,Kobieta,2022-06-04_08h31.52.983,task,2021.1.4,Win32,59.78358343,628b806c463b948bc644b84f,629afc3715899a2e052afc57,,,,,4,0,4,0,1,X V Q F H G B L J M P D K C T S W R N Z,,,,,,,,,,,,,,,,,,,,,,,,,,,,,,,,,,,,,,,,,,,,,,,,,,,,,,,,,,,,,,,,,,,,,,,,,,,,,,,,,,,,,,,,,,,,,
,,,,,,,,,,5d585e287d795e001788bf4c,41,Kobieta,2022-06-04_08h31.52.983,task,2021.1.4,Win32,59.78358343,628b806c463b948bc644b84f,629afc3715899a2e052afc57,,,,,5,0,5,0,1,X V Q F H G B L J M P D K C T S W R N Z,,,,,,,,,,,,,,,,,,,,,,,,,,,,,,,,,,,,,,,,,,,,,,,,,,,,,,,,,,,,,,,,,,,,,,,,,,,,,,,,,,,,,,,,,,,,,
,,,,,,,,,,5d585e287d795e001788bf4c,41,Kobieta,2022-06-04_08h31.52.983,task,2021.1.4,Win32,59.78358343,628b806c463b948bc644b84f,629afc3715899a2e052afc57,,,,,,,,,,,tvzkj,"[""t"",""v"",""z"",""k"",""j""]","[11.407899999856966,11.887799999952392,13.055499999999995,14.831599999904654,15.183699999809335,16.255399999856934]",0,KVKDMJ,9,0,9,0,1,,,,,,,,,,,,,,,,,,,,,,,,,,,,,,,,,,,,,,,,,,,,,,,,,,,,,,,,,,,,,,,,,,,,,,,,,,,,,,,,,,,
,,,,,,,,,,5d585e287d795e001788bf4c,41,Kobieta,2022-06-04_08h31.52.983,task,2021.1.4,Win32,59.78358343,628b806c463b948bc644b84f,629afc3715899a2e052afc57,,,,,0,0,0,0,1,X V Q F H G B L J M P D K C T S W R N Z,,,,,,,,,,,,,,,,,,,,,,,,,,,,,,,,,,,,,,,,,,,,,,,,,,,,,,,,,,,,,,,,,,,,,,,,,,,,,,,,,,,,,,,,,,,,,
,,,,,,,,,,5d585e287d795e001788bf4c,41,Kobieta,2022-06-04_08h31.52.983,task,2021.1.4,Win32,59.78358343,628b806c463b948bc644b84f,629afc3715899a2e052afc57,,,,,1,0,1,0,1,X V Q F H G B L J M P D K C T S W R N Z,,,,,,,,,,,,,,,,,,,,,,,,,,,,,,,,,,,,,,,,,,,,,,,,,,,,,,,,,,,,,,,,,,,,,,,,,,,,,,,,,,,,,,,,,,,,,
,,,,,,,,,,5d585e287d795e001788bf4c,41,Kobieta,2022-06-04_08h31.52.983,task,2021.1.4,Win32,59.78358343,628b806c463b948bc644b84f,629afc3715899a2e052afc57,,,,,2,0,2,0,1,X V Q F H G B L J M P D K C T S W R N Z,,,,,,,,,,,,,,,,,,,,,,,,,,,,,,,,,,,,,,,,,,,,,,,,,,,,,,,,,,,,,,,,,,,,,,,,,,,,,,,,,,,,,,,,,,,,,
,,,,,,,,,,5d585e287d795e001788bf4c,41,Kobieta,2022-06-04_08h31.52.983,task,2021.1.4,Win32,59.78358343,628b806c463b948bc644b84f,629afc3715899a2e052afc57,,,,,3,0,3,0,1,X V Q F H G B L J M P D K C T S W R N Z,,,,,,,,,,,,,,,,,,,,,,,,,,,,,,,,,,,,,,,,,,,,,,,,,,,,,,,,,,,,,,,,,,,,,,,,,,,,,,,,,,,,,,,,,,,,,
,,,,,,,,,,5d585e287d795e001788bf4c,41,Kobieta,2022-06-04_08h31.52.983,task,2021.1.4,Win32,59.78358343,628b806c463b948bc644b84f,629afc3715899a2e052afc57,,,,,4,0,4,0,1,X V Q F H G B L J M P D K C T S W R N Z,,,,,,,,,,,,,,,,,,,,,,,,,,,,,,,,,,,,,,,,,,,,,,,,,,,,,,,,,,,,,,,,,,,,,,,,,,,,,,,,,,,,,,,,,,,,,
,,,,,,,,,,5d585e287d795e001788bf4c,41,Kobieta,2022-06-04_08h31.52.983,task,2021.1.4,Win32,59.78358343,628b806c463b948bc644b84f,629afc3715899a2e052afc57,,,,,5,0,5,0,1,X V Q F H G B L J M P D K C T S W R N Z,,,,,,,,,,,,,,,,,,,,,,,,,,,,,,,,,,,,,,,,,,,,,,,,,,,,,,,,,,,,,,,,,,,,,,,,,,,,,,,,,,,,,,,,,,,,,
,,,,,,,,,,5d585e287d795e001788bf4c,41,Kobieta,2022-06-04_08h31.52.983,task,2021.1.4,Win32,59.78358343,628b806c463b948bc644b84f,629afc3715899a2e052afc57,,,,,,,,,,,qtvmk,"[""q"",""t"",""v"",""m"",""k""]","[2.28509999990456,3.836999999999989,5.404999999999973,6.484099999904629,8.14089999985697,10.220599999904607]",0,QPHMTV,10,0,10,0,1,,,,,,,,,,,,,,,,,,,,,,,,,,,,,,,,,,,,,,,,,,,,,,,,,,,,,,,,,,,,,,,,,,,,,,,,,,,,,,,,,,,
,,,,,,,,,,5d585e287d795e001788bf4c,41,Kobieta,2022-06-04_08h31.52.983,task,2021.1.4,Win32,59.78358343,628b806c463b948bc644b84f,629afc3715899a2e052afc57,,,,,0,0,0,0,1,X V Q F H G B L J M P D K C T S W R N Z,,,,,,,,,,,,,,,,,,,,,,,,,,,,,,,,,,,,,,,,,,,,,,,,,,,,,,,,,,,,,,,,,,,,,,,,,,,,,,,,,,,,,,,,,,,,,
,,,,,,,,,,5d585e287d795e001788bf4c,41,Kobieta,2022-06-04_08h31.52.983,task,2021.1.4,Win32,59.78358343,628b806c463b948bc644b84f,629afc3715899a2e052afc57,,,,,1,0,1,0,1,X V Q F H G B L J M P D K C T S W R N Z,,,,,,,,,,,,,,,,,,,,,,,,,,,,,,,,,,,,,,,,,,,,,,,,,,,,,,,,,,,,,,,,,,,,,,,,,,,,,,,,,,,,,,,,,,,,,
,,,,,,,,,,5d585e287d795e001788bf4c,41,Kobieta,2022-06-04_08h31.52.983,task,2021.1.4,Win32,59.78358343,628b806c463b948bc644b84f,629afc3715899a2e052afc57,,,,,2,0,2,0,1,X V Q F H G B L J M P D K C T S W R N Z,,,,,,,,,,,,,,,,,,,,,,,,,,,,,,,,,,,,,,,,,,,,,,,,,,,,,,,,,,,,,,,,,,,,,,,,,,,,,,,,,,,,,,,,,,,,,
,,,,,,,,,,5d585e287d795e001788bf4c,41,Kobieta,2022-06-04_08h31.52.983,task,2021.1.4,Win32,59.78358343,628b806c463b948bc644b84f,629afc3715899a2e052afc57,,,,,3,0,3,0,1,X V Q F H G B L J M P D K C T S W R N Z,,,,,,,,,,,,,,,,,,,,,,,,,,,,,,,,,,,,,,,,,,,,,,,,,,,,,,,,,,,,,,,,,,,,,,,,,,,,,,,,,,,,,,,,,,,,,
,,,,,,,,,,5d585e287d795e001788bf4c,41,Kobieta,2022-06-04_08h31.52.983,task,2021.1.4,Win32,59.78358343,628b806c463b948bc644b84f,629afc3715899a2e052afc57,,,,,4,0,4,0,1,X V Q F H G B L J M P D K C T S W R N Z,,,,,,,,,,,,,,,,,,,,,,,,,,,,,,,,,,,,,,,,,,,,,,,,,,,,,,,,,,,,,,,,,,,,,,,,,,,,,,,,,,,,,,,,,,,,,
,,,,,,,,,,5d585e287d795e001788bf4c,41,Kobieta,2022-06-04_08h31.52.983,task,2021.1.4,Win32,59.78358343,628b806c463b948bc644b84f,629afc3715899a2e052afc57,,,,,5,0,5,0,1,X V Q F H G B L J M P D K C T S W R N Z,,,,,,,,,,,,,,,,,,,,,,,,,,,,,,,,,,,,,,,,,,,,,,,,,,,,,,,,,,,,,,,,,,,,,,,,,,,,,,,,,,,,,,,,,,,,,
,,,,,,,,,,5d585e287d795e001788bf4c,41,Kobieta,2022-06-04_08h31.52.983,task,2021.1.4,Win32,59.78358343,628b806c463b948bc644b84f,629afc3715899a2e052afc57,,,,,,,,,,,qtmlc,"[""q"",""t"",""m"",""l"",""c""]","[12.203799999952253,13.27559999990467,14.347499999999968,16.235599999904593,16.817299999952297,19.419299999952273]",0,NBSTLM,11,0,11,0,1,,,,,,,,,,,,,,,,,,,,,,,,,,,,,,,,,,,,,,,,,,,,,,,,,,,,,,,,,,,,,,,,,,,,,,,,,,,,,,,,,,,
,,,,,,,,,,5d585e287d795e001788bf4c,41,Kobieta,2022-06-04_08h31.52.983,task,2021.1.4,Win32,59.78358343,628b806c463b948bc644b84f,629afc3715899a2e052afc57,,,,,,,,,,,,,,,,,,,,,space,27.4261,1,"[""1""]",1,[39.68399999999997],[39.68399999999997],0,0,0,1,1,Practice,2,(4x4) - 15,1,,,,,,,,,,,,,,,,,,,,,,,,,,,,,,,,,,,,,,,,,,,,,,,,,,,,,,,,,,,,,,,,,,,
,,,,,,,,,,5d585e287d795e001788bf4c,41,Kobieta,2022-06-04_08h31.52.983,task,2021.1.4,Win32,59.78358343,628b806c463b948bc644b84f,629afc3715899a2e052afc57,,,,,,,,,,,,,,,,,,,,,,,2,"[""2""]",1,[3.7542000000477174],"[39.68399999999997,3.7542000000477174]",0,1,1,2,1,Practice,3,(4x4) - 14,2,,,,,,,,,,,,,,,,,,,,,,,,,,,,,,,,,,,,,,,,,,,,,,,,,,,,,,,,,,,,,,,,,,,
,,,,,,,,,,5d585e287d795e001788bf4c,41,Kobieta,2022-06-04_08h31.52.983,task,2021.1.4,Win32,59.78358343,628b806c463b948bc644b84f,629afc3715899a2e052afc57,,,,,,,,,,,,,,,,,,,,,,,0,"[""0""]",1,[4.0674999999999955],"[39.68399999999997,3.7542000000477174,4.0674999999999955]",0,2,2,0,1,Practice,1,(3x3) -  9,0,,,,,,,,,,,,,,,,,,,,,,,,,,,,,,,,,,,,,,,,,,,,,,,,,,,,,,,,,,,,,,,,,,,
,,,,,,,,,,5d585e287d795e001788bf4c,41,Kobieta,2022-06-04_08h31.52.983,task,2021.1.4,Win32,59.78358343,628b806c463b948bc644b84f,629afc3715899a2e052afc57,,,,,,,,,,,,,,,,,,,,,,,4,"[""4""]",1,[4.253400000095439],"[39.68399999999997,3.7542000000477174,4.0674999999999955,4.253400000095439]",0,3,3,4,1,Practice,5,(2x6) - 8,4,,,,,,,,,,,,,,,,,,,,,,,,,,,,,,,,,,,,,,,,,,,,,,,,,,,,,,,,,,,,,,,,,,,
,,,,,,,,,,5d585e287d795e001788bf4c,41,Kobieta,2022-06-04_08h31.52.983,task,2021.1.4,Win32,59.78358343,628b806c463b948bc644b84f,629afc3715899a2e052afc57,,,,,,,,,,,,,,,,,,,,,,,3,"[""3""]",1,[3.7507000000476864],"[39.68399999999997,3.7542000000477174,4.0674999999999955,4.253400000095439,3.7507000000476864]",0,4,4,3,1,Practice,4,(8/4) + 1,3,,,,,,,,,,,,,,,,,,,,,,,,,,,,,,,,,,,,,,,,,,,,,,,,,,,,,,,,,,,,,,,,,,,
,,,,,,,,,,5d585e287d795e001788bf4c,41,Kobieta,2022-06-04_08h31.52.983,task,2021.1.4,Win32,59.78358343,628b806c463b948bc644b84f,629afc3715899a2e052afc57,,,,,,,,,,,,,,,,,,,,,,,6,"[""6""]",1,[2.9509000000953165],"[39.68399999999997,3.7542000000477174,4.0674999999999955,4.253400000095439,3.7507000000476864,2.9509000000953165]",0,5,5,6,1,Practice,7,(25/5) + 1,6,,,,,,,,,,,,,,,,,,,,,,,,,,,,,,,,,,,,,,,,,,,,,,,,,,,,,,,,,,,,,,,,,,,
,,,,,,,,,,5d585e287d795e001788bf4c,41,Kobieta,2022-06-04_08h31.52.983,task,2021.1.4,Win32,59.78358343,628b806c463b948bc644b84f,629afc3715899a2e052afc57,,,,,,,,,,,,,,,,,,,,,,,5,"[""5""]",1,[3.3950999999045735],"[39.68399999999997,3.7542000000477174,4.0674999999999955,4.253400000095439,3.7507000000476864,2.9509000000953165,3.3950999999045735]",0,6,6,5,1,Practice,6,(4/2) + 3,5,,,,,,,,,,,,,,,,,,,,,,,,,,,,,,,,,,,,,,,,,,,,,,,,,,,,,,,,,,,,,,,,,,,
,,,,,,,,,,5d585e287d795e001788bf4c,41,Kobieta,2022-06-04_08h31.52.983,task,2021.1.4,Win32,59.78358343,628b806c463b948bc644b84f,629afc3715899a2e052afc57,,,,,,,,,,,,,,,,,,,,,,,7,"[""7""]",1,[17.03440000009539],"[39.68399999999997,3.7542000000477174,4.0674999999999955,4.253400000095439,3.7507000000476864,2.9509000000953165,3.3950999999045735,17.03440000009539]",0,7,7,7,1,Practice,8,(5x5) - 18,7,,,,,,,,,,,,,,,,,,,,,,,,,,,,,,,,,,,,,,,,,,,,,,,,,,,,,,,,,,,,,,,,,,,
,,,,,,,,,,5d585e287d795e001788bf4c,41,Kobieta,2022-06-04_08h31.52.983,task,2021.1.4,Win32,59.78358343,628b806c463b948bc644b84f,629afc3715899a2e052afc57,,,,,,,,,,,,,,,,,,,,,,,9,"[""9""]",1,[2.95799999999997],"[39.68399999999997,3.7542000000477174,4.0674999999999955,4.253400000095439,3.7507000000476864,2.9509000000953165,3.3950999999045735,17.03440000009539,2.95799999999997]",0,8,8,9,1,Practice,10,(20/2) - 1,9,,,,,,,,,,,,,,,,,,,,,,,,,,,,,,,,,,,,,,,,,,,,,,,,,,,,,,,,,,,,,,,,,,,
,,,,,,,,,,5d585e287d795e001788bf4c,41,Kobieta,2022-06-04_08h31.52.983,task,2021.1.4,Win32,59.78358343,628b806c463b948bc644b84f,629afc3715899a2e052afc57,,,,,,,,,,,,,,,,,,,,,,,8,"[""8""]",1,[2.5509000000953392],"[39.68399999999997,3.7542000000477174,4.0674999999999955,4.253400000095439,3.7507000000476864,2.9509000000953165,3.3950999999045735,17.03440000009539,2.95799999999997,2.5509000000953392]",0,9,9,8,1,Practice,9,(3x3) - 1,8,,,,,,,,,,,,,,,,,,,,,,,,,,,,,,,,,,,,,,,,,,,,,,,,,,,,,,,,,,,,,,,,,,,
,,,,,,,,,,5d585e287d795e001788bf4c,41,Kobieta,2022-06-04_08h31.52.983,task,2021.1.4,Win32,59.78358343,628b806c463b948bc644b84f,629afc3715899a2e052afc57,,,,,,,,,,,,,,,,,,,,,,,,,,,,,,,,,,,,,1,84.3991,5.626606667,1330.105693,9.416672071,29.92162061,space,2.7346,0,0,0,0,1,,,,,,,,,,,,,,,,,,,,,,,,,,,,,,,,,,,,,,,,,,,,,,,,,,,,,,
,,,,,,,,,,5d585e287d795e001788bf4c,41,Kobieta,2022-06-04_08h31.52.983,task,2021.1.4,Win32,59.78358343,628b806c463b948bc644b84f,629afc3715899a2e052afc57,,,,,,,,,,,,,,,,,,,,,,,6,,,,,,,,,,Practice,7,(25/5) + 1,6,,,,,,,,,,,,,,space,47.2912,"[""6""]",1,[4.077400000095281],1,0,0,0,6,1,,,,,,,,,,,,,,,,,,,,,,,,,,,,,,,,,,,,,,,,,,,
,,,,,,,,,,5d585e287d795e001788bf4c,41,Kobieta,2022-06-04_08h31.52.983,task,2021.1.4,Win32,59.78358343,628b806c463b948bc644b84f,629afc3715899a2e052afc57,,,,,,,,,,X V Q F H G B L J M P D K C T S W R N Z,,,,,,,,,,,,,,,,,,,,,,,,,,,,,,,,,,,,,,,,,,,,,,,,,,,0,0,0,0,1,,,,,,,,,,,,,,,,,,,,,,,,,,,,,,,,,,,,,,
,,,,,,,,,,5d585e287d795e001788bf4c,41,Kobieta,2022-06-04_08h31.52.983,task,2021.1.4,Win32,59.78358343,628b806c463b948bc644b84f,629afc3715899a2e052afc57,,,,,,,,,,,,,,,,,,,,,,,9,,,,,,,,,,Practice,10,(20/2) - 1,9,,,,,,,,,,,,,,,,"[""9""]",1,[4.633599999904618],1,0,0,0,9,1,,,,,,,,,,,,,,,,,,,,,,,,,,,,,,,,,,,,,,,,,,,
,,,,,,,,,,5d585e287d795e001788bf4c,41,Kobieta,2022-06-04_08h31.52.983,task,2021.1.4,Win32,59.78358343,628b806c463b948bc644b84f,629afc3715899a2e052afc57,,,,,,,,,,X V Q F H G B L J M P D K C T S W R N Z,,,,,,,,,,,,,,,,,,,,,,,,,,,,,,,,,,,,,,,,,,,,,,,,,,,1,0,1,0,1,,,,,,,,,,,,,,,,,,,,,,,,,,,,,,,,,,,,,,
,,,,,,,,,,5d585e287d795e001788bf4c,41,Kobieta,2022-06-04_08h31.52.983,task,2021.1.4,Win32,59.78358343,628b806c463b948bc644b84f,629afc3715899a2e052afc57,,,,,,,,,,,,,,,,,,,,,,,,,,,,,,,,,,,,,,,,,,,,,,,,,,,,,,,,,,,,,,,,,,zf,"[""z"",""f""]",0,"[4.384799999952293,5.201000000000022,7.26459999990459]",1,0,0,0,0,1,,,,,,,,,,,,,,,,,,,,,,,,,,,,
,,,,,,,,,,5d585e287d795e001788bf4c,41,Kobieta,2022-06-04_08h31.52.983,task,2021.1.4,Win32,59.78358343,628b806c463b948bc644b84f,629afc3715899a2e052afc57,,,,,,,,,,,,,,,,,,,,,,,4,,,,,,,,,,Practice,5,(2x6) - 8,4,,,,,,,,,,,,,,,,"[""4""]",1,[4.986100000142983],1,0,0,0,4,1,,,,,,,,,,,,,,,,,,,,,,,,,,,,,,,,,,,,,,,,,,,
,,,,,,,,,,5d585e287d795e001788bf4c,41,Kobieta,2022-06-04_08h31.52.983,task,2021.1.4,Win32,59.78358343,628b806c463b948bc644b84f,629afc3715899a2e052afc57,,,,,,,,,,X V Q F H G B L J M P D K C T S W R N Z,,,,,,,,,,,,,,,,,,,,,,,,,,,,,,,,,,,,,,,,,,,,,,,,,,,0,0,0,0,1,,,,,,,,,,,,,,,,,,,,,,,,,,,,,,,,,,,,,,
,,,,,,,,,,5d585e287d795e001788bf4c,41,Kobieta,2022-06-04_08h31.52.983,task,2021.1.4,Win32,59.78358343,628b806c463b948bc644b84f,629afc3715899a2e052afc57,,,,,,,,,,,,,,,,,,,,,,,9,,,,,,,,,,Practice,10,(20/2) - 1,9,,,,,,,,,,,,,,,,"[""9""]",1,[2.7833000001907067],1,0,0,0,9,1,,,,,,,,,,,,,,,,,,,,,,,,,,,,,,,,,,,,,,,,,,,
,,,,,,,,,,5d585e287d795e001788bf4c,41,Kobieta,2022-06-04_08h31.52.983,task,2021.1.4,Win32,59.78358343,628b806c463b948bc644b84f,629afc3715899a2e052afc57,,,,,,,,,,X V Q F H G B L J M P D K C T S W R N Z,,,,,,,,,,,,,,,,,,,,,,,,,,,,,,,,,,,,,,,,,,,,,,,,,,,1,0,1,0,1,,,,,,,,,,,,,,,,,,,,,,,,,,,,,,,,,,,,,,
,,,,,,,,,,5d585e287d795e001788bf4c,41,Kobieta,2022-06-04_08h31.52.983,task,2021.1.4,Win32,59.78358343,628b806c463b948bc644b84f,629afc3715899a2e052afc57,,,,,,,,,,,,,,,,,,,,,,,,,,,,,,,,,,,,,,,,,,,,,,,,,,,,,,,,,,,,,,,,,,jq,"[""j"",""q""]",0,"[2.6761000001430375,3.380700000047682,4.483400000095344]",1,1,0,1,0,1,,,,,,,,,,,,,,,,,,,,,,,,,,,,
,,,,,,,,,,5d585e287d795e001788bf4c,41,Kobieta,2022-06-04_08h31.52.983,task,2021.1.4,Win32,59.78358343,628b806c463b948bc644b84f,629afc3715899a2e052afc57,,,,,,,,,,,,,,,,,,,,,,,2,,,,,,,,,,Practice,3,(4x4) - 14,2,,,,,,,,,,,,,,,,"[""2""]",1,[2.941000000000031],1,0,0,0,2,1,,,,,,,,,,,,,,,,,,,,,,,,,,,,,,,,,,,,,,,,,,,
,,,,,,,,,,5d585e287d795e001788bf4c,41,Kobieta,2022-06-04_08h31.52.983,task,2021.1.4,Win32,59.78358343,628b806c463b948bc644b84f,629afc3715899a2e052afc57,,,,,,,,,,X V Q F H G B L J M P D K C T S W R N Z,,,,,,,,,,,,,,,,,,,,,,,,,,,,,,,,,,,,,,,,,,,,,,,,,,,0,0,0,0,1,,,,,,,,,,,,,,,,,,,,,,,,,,,,,,,,,,,,,,
,,,,,,,,,,5d585e287d795e001788bf4c,41,Kobieta,2022-06-04_08h31.52.983,task,2021.1.4,Win32,59.78358343,628b806c463b948bc644b84f,629afc3715899a2e052afc57,,,,,,,,,,,,,,,,,,,,,,,4,,,,,,,,,,Practice,5,(2x6) - 8,4,,,,,,,,,,,,,,,,"[""4""]",1,[3.5002000000476983],1,0,0,0,4,1,,,,,,,,,,,,,,,,,,,,,,,,,,,,,,,,,,,,,,,,,,,
,,,,,,,,,,5d585e287d795e001788bf4c,41,Kobieta,2022-06-04_08h31.52.983,task,2021.1.4,Win32,59.78358343,628b806c463b948bc644b84f,629afc3715899a2e052afc57,,,,,,,,,,X V Q F H G B L J M P D K C T S W R N Z,,,,,,,,,,,,,,,,,,,,,,,,,,,,,,,,,,,,,,,,,,,,,,,,,,,1,0,1,0,1,,,,,,,,,,,,,,,,,,,,,,,,,,,,,,,,,,,,,,
,,,,,,,,,,5d585e287d795e001788bf4c,41,Kobieta,2022-06-04_08h31.52.983,task,2021.1.4,Win32,59.78358343,628b806c463b948bc644b84f,629afc3715899a2e052afc57,,,,,,,,,,,,,,,,,,,,,,,,,,,,,,,,,,,,,,,,,,,,,,,,,,,,,,,,,,,,,,,,,,cw,"[""c"",""w""]",0,"[4.38179999995225,5.181700000047613,6.5253999998569725]",1,2,0,2,0,1,,,,,,,,,,,,,,,,,,,,,,,,,,,,
,,,,,,,,,,5d585e287d795e001788bf4c,41,Kobieta,2022-06-04_08h31.52.983,task,2021.1.4,Win32,59.78358343,628b806c463b948bc644b84f,629afc3715899a2e052afc57,,,,,,,,,,,,,,,,,,,,,,,1,,,,,,,,,,Task,18,(16/4) - 3,1,,,,,,,,,,,,,,,,,,,1,,,,,,,,,,,,,,,,,,,,,space,31.2579,"[""1""]",1,[2.9484000000953756],0,0,0,17,1,,,,,,,,,,,,,,,,,,
,,,,,,,,,,5d585e287d795e001788bf4c,41,Kobieta,2022-06-04_08h31.52.983,task,2021.1.4,Win32,59.78358343,628b806c463b948bc644b84f,629afc3715899a2e052afc57,,,,,,,,,,X V Q F H G B L J M P D K C T S W R N Z,,,,,,,,,,,,,,,,,,,,,,,,,,,,,,,,,,,,,,,,,,,,,,,,,,,,,,,,,,,,,,,,,,,,,,,,,,,,0,0,0,0,1,,,,,,,,,,,,,
,,,,,,,,,,5d585e287d795e001788bf4c,41,Kobieta,2022-06-04_08h31.52.983,task,2021.1.4,Win32,59.78358343,628b806c463b948bc644b84f,629afc3715899a2e052afc57,,,,,,,,,,,,,,,,,,,,,,,4,,,,,,,,,,Task,4,(1x5) - 1,4,,,,,,,,,,,,,,,,,,,1,,,,,,,,,,,,,,,,,,,,,,,"[""4""]",1,[4.102599999904555],0,0,0,3,1,,,,,,,,,,,,,,,,,,
,,,,,,,,,,5d585e287d795e001788bf4c,41,Kobieta,2022-06-04_08h31.52.983,task,2021.1.4,Win32,59.78358343,628b806c463b948bc644b84f,629afc3715899a2e052afc57,,,,,,,,,,X V Q F H G B L J M P D K C T S W R N Z,,,,,,,,,,,,,,,,,,,,,,,,,,,,,,,,,,,,,,,,,,,,,,,,,,,,,,,,,,,,,,,,,,,,,,,,,,,,1,0,1,0,1,,,,,,,,,,,,,
,,,,,,,,,,5d585e287d795e001788bf4c,41,Kobieta,2022-06-04_08h31.52.983,task,2021.1.4,Win32,59.78358343,628b806c463b948bc644b84f,629afc3715899a2e052afc57,,,,,,,,,,,,,,,,,,,,,,,,,,,,,,,,,,,,,,,,,,,,,,,,,,,,,,,,,,,,,,,,,,,,,,,,,,,,,,,,,,,,,,,,,,,zl,"[""z"",""l""]",0,"[2.9180000000000064,3.3020999999046126,4.263500000000022]",1,ZL,0,0,0,0,1,,
,,,,,,,,,,5d585e287d795e001788bf4c,41,Kobieta,2022-06-04_08h31.52.983,task,2021.1.4,Win32,59.78358343,628b806c463b948bc644b84f,629afc3715899a2e052afc57,,,,,,,,,,,,,,,,,,,,,,,1,,,,,,,,,,Task,16,(3x8) - 15,9,,,,,,,,,,,,,,,,,,,0,,,,,,,,,,,,,,,,,,,,,,,"[""1""]",0,[4.27150000000006],0,0,0,15,1,,,,,,,,,,,,,,,,,,
,,,,,,,,,,5d585e287d795e001788bf4c,41,Kobieta,2022-06-04_08h31.52.983,task,2021.1.4,Win32,59.78358343,628b806c463b948bc644b84f,629afc3715899a2e052afc57,,,,,,,,,,,,,,,,,,,,,,,8,,,,,,,,,,Task,39,(5x3) - 7,8,,,,,,,,,,,,,,,,,,,1,,,,,,,,,,,,,,,,,,,,,,,"[""8""]",1,[6.51920000004759],0,1,1,38,1,,,,,,,,,,,,,,,,,,
,,,,,,,,,,5d585e287d795e001788bf4c,41,Kobieta,2022-06-04_08h31.52.983,task,2021.1.4,Win32,59.78358343,628b806c463b948bc644b84f,629afc3715899a2e052afc57,,,,,,,,,,X V Q F H G B L J M P D K C T S W R N Z,,,,,,,,,,,,,,,,,,,,,,,,,,,,,,,,,,,,,,,,,,,,,,,,,,,,,,,,,,,,,,,,,,,,,,,,,,,,0,0,0,0,1,,,,,,,,,,,,,
,,,,,,,,,,5d585e287d795e001788bf4c,41,Kobieta,2022-06-04_08h31.52.983,task,2021.1.4,Win32,59.78358343,628b806c463b948bc644b84f,629afc3715899a2e052afc57,,,,,,,,,,,,,,,,,,,,,,,2,,,,,,,,,,Task,10,(2x5) - 8,2,,,,,,,,,,,,,,,,,,,1,,,,,,,,,,,,,,,,,,,,,,,"[""2""]",1,[5.080900000095312],0,0,0,9,1,,,,,,,,,,,,,,,,,,
,,,,,,,,,,5d585e287d795e001788bf4c,41,Kobieta,2022-06-04_08h31.52.983,task,2021.1.4,Win32,59.78358343,628b806c463b948bc644b84f,629afc3715899a2e052afc57,,,,,,,,,,X V Q F H G B L J M P D K C T S W R N Z,,,,,,,,,,,,,,,,,,,,,,,,,,,,,,,,,,,,,,,,,,,,,,,,,,,,,,,,,,,,,,,,,,,,,,,,,,,,1,0,1,0,1,,,,,,,,,,,,,
,,,,,,,,,,5d585e287d795e001788bf4c,41,Kobieta,2022-06-04_08h31.52.983,task,2021.1.4,Win32,59.78358343,628b806c463b948bc644b84f,629afc3715899a2e052afc57,,,,,,,,,,,,,,,,,,,,,,,2,,,,,,,,,,Task,19,(6/2) - 1,2,,,,,,,,,,,,,,,,,,,1,,,,,,,,,,,,,,,,,,,,,,,"[""2""]",1,[6.931700000047613],0,0,0,18,1,,,,,,,,,,,,,,,,,,
,,,,,,,,,,5d585e287d795e001788bf4c,41,Kobieta,2022-06-04_08h31.52.983,task,2021.1.4,Win32,59.78358343,628b806c463b948bc644b84f,629afc3715899a2e052afc57,,,,,,,,,,X V Q F H G B L J M P D K C T S W R N Z,,,,,,,,,,,,,,,,,,,,,,,,,,,,,,,,,,,,,,,,,,,,,,,,,,,,,,,,,,,,,,,,,,,,,,,,,,,,2,0,2,0,1,,,,,,,,,,,,,
,,,,,,,,,,5d585e287d795e001788bf4c,41,Kobieta,2022-06-04_08h31.52.983,task,2021.1.4,Win32,59.78358343,628b806c463b948bc644b84f,629afc3715899a2e052afc57,,,,,,,,,,,,,,,,,,,,,,,,,,,,,,,,,,,,,,,,,,,,,,,,,,,,,,,,,,,,,,,,,,,,,,,,,,,,,,,,,,,,,,,,,,,qdd,"[""q"",""d"",""d""]",0,"[5.266799999952241,5.8267999999523,6.098400000095353,7.314299999952254]",1,QDD,1,0,1,0,1,,
,,,,,,,,,,5d585e287d795e001788bf4c,41,Kobieta,2022-06-04_08h31.52.983,task,2021.1.4,Win32,59.78358343,628b806c463b948bc644b84f,629afc3715899a2e052afc57,,,,,,,,,,,,,,,,,,,,,,,3,,,,,,,,,,Task,20,(18/9) + 1,3,,,,,,,,,,,,,,,,,,,1,,,,,,,,,,,,,,,,,,,,,,,"[""3""]",1,[7.071100000143019],0,0,0,19,1,,,,,,,,,,,,,,,,,,
,,,,,,,,,,5d585e287d795e001788bf4c,41,Kobieta,2022-06-04_08h31.52.983,task,2021.1.4,Win32,59.78358343,628b806c463b948bc644b84f,629afc3715899a2e052afc57,,,,,,,,,,X V Q F H G B L J M P D K C T S W R N Z,,,,,,,,,,,,,,,,,,,,,,,,,,,,,,,,,,,,,,,,,,,,,,,,,,,,,,,,,,,,,,,,,,,,,,,,,,,,0,0,0,0,1,,,,,,,,,,,,,
,,,,,,,,,,5d585e287d795e001788bf4c,41,Kobieta,2022-06-04_08h31.52.983,task,2021.1.4,Win32,59.78358343,628b806c463b948bc644b84f,629afc3715899a2e052afc57,,,,,,,,,,,,,,,,,,,,,,,5,,,,,,,,,,Task,22,(3x1) + 2,5,,,,,,,,,,,,,,,,,,,1,,,,,,,,,,,,,,,,,,,,,,,"[""5""]",1,[8.541500000000042],0,0,0,21,1,,,,,,,,,,,,,,,,,,
,,,,,,,,,,5d585e287d795e001788bf4c,41,Kobieta,2022-06-04_08h31.52.983,task,2021.1.4,Win32,59.78358343,628b806c463b948bc644b84f,629afc3715899a2e052afc57,,,,,,,,,,X V Q F H G B L J M P D K C T S W R N Z,,,,,,,,,,,,,,,,,,,,,,,,,,,,,,,,,,,,,,,,,,,,,,,,,,,,,,,,,,,,,,,,,,,,,,,,,,,,1,0,1,0,1,,,,,,,,,,,,,
,,,,,,,,,,5d585e287d795e001788bf4c,41,Kobieta,2022-06-04_08h31.52.983,task,2021.1.4,Win32,59.78358343,628b806c463b948bc644b84f,629afc3715899a2e052afc57,,,,,,,,,,,,,,,,,,,,,,,2,,,,,,,,,,Task,19,(6/2) - 1,2,,,,,,,,,,,,,,,,,,,1,,,,,,,,,,,,,,,,,,,,,,,"[""2""]",1,[7.9367999999523136],0,0,0,18,1,,,,,,,,,,,,,,,,,,
,,,,,,,,,,5d585e287d795e001788bf4c,41,Kobieta,2022-06-04_08h31.52.983,task,2021.1.4,Win32,59.78358343,628b806c463b948bc644b84f,629afc3715899a2e052afc57,,,,,,,,,,X V Q F H G B L J M P D K C T S W R N Z,,,,,,,,,,,,,,,,,,,,,,,,,,,,,,,,,,,,,,,,,,,,,,,,,,,,,,,,,,,,,,,,,,,,,,,,,,,,2,0,2,0,1,,,,,,,,,,,,,
,,,,,,,,,,5d585e287d795e001788bf4c,41,Kobieta,2022-06-04_08h31.52.983,task,2021.1.4,Win32,59.78358343,628b806c463b948bc644b84f,629afc3715899a2e052afc57,,,,,,,,,,,,,,,,,,,,,,,2,,,,,,,,,,Task,26,(2x9) - 16,2,,,,,,,,,,,,,,,,,,,1,,,,,,,,,,,,,,,,,,,,,,,"[""2""]",1,[5.739900000095304],0,0,0,25,1,,,,,,,,,,,,,,,,,,
,,,,,,,,,,5d585e287d795e001788bf4c,41,Kobieta,2022-06-04_08h31.52.983,task,2021.1.4,Win32,59.78358343,628b806c463b948bc644b84f,629afc3715899a2e052afc57,,,,,,,,,,X V Q F H G B L J M P D K C T S W R N Z,,,,,,,,,,,,,,,,,,,,,,,,,,,,,,,,,,,,,,,,,,,,,,,,,,,,,,,,,,,,,,,,,,,,,,,,,,,,3,0,3,0,1,,,,,,,,,,,,,
,,,,,,,,,,5d585e287d795e001788bf4c,41,Kobieta,2022-06-04_08h31.52.983,task,2021.1.4,Win32,59.78358343,628b806c463b948bc644b84f,629afc3715899a2e052afc57,,,,,,,,,,,,,,,,,,,,,,,,,,,,,,,,,,,,,,,,,,,,,,,,,,,,,,,,,,,,,,,,,,,,,,,,,,,,,,,,,,,,,,,,,,,dxzd,"[""d"",""x"",""z"",""d""]",0,"[6.301599999904624,7.402000000000044,7.828500000000076,8.201899999857005,9.369399999857023]",1,DXZD,2,0,2,0,1,,
,,,,,,,,,,5d585e287d795e001788bf4c,41,Kobieta,2022-06-04_08h31.52.983,task,2021.1.4,Win32,59.78358343,628b806c463b948bc644b84f,629afc3715899a2e052afc57,,,,,,,,,,,,,,,,,,,,,,,2,,,,,,,,,,Task,26,(2x9) - 16,2,,,,,,,,,,,,,,,,,,,1,,,,,,,,,,,,,,,,,,,,,,,"[""2""]",1,[2.6505999999046708],0,0,0,25,1,,,,,,,,,,,,,,,,,,
,,,,,,,,,,5d585e287d795e001788bf4c,41,Kobieta,2022-06-04_08h31.52.983,task,2021.1.4,Win32,59.78358343,628b806c463b948bc644b84f,629afc3715899a2e052afc57,,,,,,,,,,X V Q F H G B L J M P D K C T S W R N Z,,,,,,,,,,,,,,,,,,,,,,,,,,,,,,,,,,,,,,,,,,,,,,,,,,,,,,,,,,,,,,,,,,,,,,,,,,,,0,0,0,0,1,,,,,,,,,,,,,
,,,,,,,,,,5d585e287d795e001788bf4c,41,Kobieta,2022-06-04_08h31.52.983,task,2021.1.4,Win32,59.78358343,628b806c463b948bc644b84f,629afc3715899a2e052afc57,,,,,,,,,,,,,,,,,,,,,,,6,,,,,,,,,,Task,5,(2x3) + 0,6,,,,,,,,,,,,,,,,,,,1,,,,,,,,,,,,,,,,,,,,,,,"[""6""]",1,[5.70090000009543],0,0,0,4,1,,,,,,,,,,,,,,,,,,
,,,,,,,,,,5d585e287d795e001788bf4c,41,Kobieta,2022-06-04_08h31.52.983,task,2021.1.4,Win32,59.78358343,628b806c463b948bc644b84f,629afc3715899a2e052afc57,,,,,,,,,,X V Q F H G B L J M P D K C T S W R N Z,,,,,,,,,,,,,,,,,,,,,,,,,,,,,,,,,,,,,,,,,,,,,,,,,,,,,,,,,,,,,,,,,,,,,,,,,,,,1,0,1,0,1,,,,,,,,,,,,,
,,,,,,,,,,5d585e287d795e001788bf4c,41,Kobieta,2022-06-04_08h31.52.983,task,2021.1.4,Win32,59.78358343,628b806c463b948bc644b84f,629afc3715899a2e052afc57,,,,,,,,,,,,,,,,,,,,,,,0,,,,,,,,,,Task,17,(2x3) - 6,0,,,,,,,,,,,,,,,,,,,1,,,,,,,,,,,,,,,,,,,,,,,"[""0""]",1,[5.574099999904661],0,0,0,16,1,,,,,,,,,,,,,,,,,,
,,,,,,,,,,5d585e287d795e001788bf4c,41,Kobieta,2022-06-04_08h31.52.983,task,2021.1.4,Win32,59.78358343,628b806c463b948bc644b84f,629afc3715899a2e052afc57,,,,,,,,,,X V Q F H G B L J M P D K C T S W R N Z,,,,,,,,,,,,,,,,,,,,,,,,,,,,,,,,,,,,,,,,,,,,,,,,,,,,,,,,,,,,,,,,,,,,,,,,,,,,2,0,2,0,1,,,,,,,,,,,,,
,,,,,,,,,,5d585e287d795e001788bf4c,41,Kobieta,2022-06-04_08h31.52.983,task,2021.1.4,Win32,59.78358343,628b806c463b948bc644b84f,629afc3715899a2e052afc57,,,,,,,,,,,,,,,,,,,,,,,0,,,,,,,,,,Task,17,(2x3) - 6,0,,,,,,,,,,,,,,,,,,,1,,,,,,,,,,,,,,,,,,,,,,,"[""0""]",1,[5.350699999809308],0,0,0,16,1,,,,,,,,,,,,,,,,,,
,,,,,,,,,,5d585e287d795e001788bf4c,41,Kobieta,2022-06-04_08h31.52.983,task,2021.1.4,Win32,59.78358343,628b806c463b948bc644b84f,629afc3715899a2e052afc57,,,,,,,,,,X V Q F H G B L J M P D K C T S W R N Z,,,,,,,,,,,,,,,,,,,,,,,,,,,,,,,,,,,,,,,,,,,,,,,,,,,,,,,,,,,,,,,,,,,,,,,,,,,,3,0,3,0,1,,,,,,,,,,,,,
,,,,,,,,,,5d585e287d795e001788bf4c,41,Kobieta,2022-06-04_08h31.52.983,task,2021.1.4,Win32,59.78358343,628b806c463b948bc644b84f,629afc3715899a2e052afc57,,,,,,,,,,,,,,,,,,,,,,,1,,,,,,,,,,Task,9,(3x7) - 20,1,,,,,,,,,,,,,,,,,,,1,,,,,,,,,,,,,,,,,,,,,,,"[""1""]",1,[7.446700000047713],0,0,0,8,1,,,,,,,,,,,,,,,,,,
,,,,,,,,,,5d585e287d795e001788bf4c,41,Kobieta,2022-06-04_08h31.52.983,task,2021.1.4,Win32,59.78358343,628b806c463b948bc644b84f,629afc3715899a2e052afc57,,,,,,,,,,X V Q F H G B L J M P D K C T S W R N Z,,,,,,,,,,,,,,,,,,,,,,,,,,,,,,,,,,,,,,,,,,,,,,,,,,,,,,,,,,,,,,,,,,,,,,,,,,,,4,0,4,0,1,,,,,,,,,,,,,
,,,,,,,,,,5d585e287d795e001788bf4c,41,Kobieta,2022-06-04_08h31.52.983,task,2021.1.4,Win32,59.78358343,628b806c463b948bc644b84f,629afc3715899a2e052afc57,,,,,,,,,,,,,,,,,,,,,,,,,,,,,,,,,,,,,,,,,,,,,,,,,,,,,,,,,,,,,,,,,,,,,,,,,,,,,,,,,,,,,,,,,,,gcsz,"[""g"",""c"",""s"",""z""]",0,"[2.989200000047731,3.38900000000001,3.9330999999045844,4.749000000000024,6.204799999952343]",0,GCSSZ,3,0,3,0,1,,
,,,,,,,,,,5d585e287d795e001788bf4c,41,Kobieta,2022-06-04_08h31.52.983,task,2021.1.4,Win32,59.78358343,628b806c463b948bc644b84f,629afc3715899a2e052afc57,,,,,,,,,,,,,,,,,,,,,,,9,,,,,,,,,,Task,16,(3x8) - 15,9,,,,,,,,,,,,,,,,,,,1,,,,,,,,,,,,,,,,,,,,,,,"[""9""]",1,[15.00240000009535],0,0,0,15,1,,,,,,,,,,,,,,,,,,
,,,,,,,,,,5d585e287d795e001788bf4c,41,Kobieta,2022-06-04_08h31.52.983,task,2021.1.4,Win32,59.78358343,628b806c463b948bc644b84f,629afc3715899a2e052afc57,,,,,,,,,,X V Q F H G B L J M P D K C T S W R N Z,,,,,,,,,,,,,,,,,,,,,,,,,,,,,,,,,,,,,,,,,,,,,,,,,,,,,,,,,,,,,,,,,,,,,,,,,,,,0,0,0,0,1,,,,,,,,,,,,,
,,,,,,,,,,5d585e287d795e001788bf4c,41,Kobieta,2022-06-04_08h31.52.983,task,2021.1.4,Win32,59.78358343,628b806c463b948bc644b84f,629afc3715899a2e052afc57,,,,,,,,,,,,,,,,,,,,,,,1,,,,,,,,,,Task,34,(9/3) - 2,1,,,,,,,,,,,,,,,,,,,1,,,,,,,,,,,,,,,,,,,,,,,"[""1""]",1,[5.52989999985698],0,0,0,33,1,,,,,,,,,,,,,,,,,,
,,,,,,,,,,5d585e287d795e001788bf4c,41,Kobieta,2022-06-04_08h31.52.983,task,2021.1.4,Win32,59.78358343,628b806c463b948bc644b84f,629afc3715899a2e052afc57,,,,,,,,,,X V Q F H G B L J M P D K C T S W R N Z,,,,,,,,,,,,,,,,,,,,,,,,,,,,,,,,,,,,,,,,,,,,,,,,,,,,,,,,,,,,,,,,,,,,,,,,,,,,1,0,1,0,1,,,,,,,,,,,,,
,,,,,,,,,,5d585e287d795e001788bf4c,41,Kobieta,2022-06-04_08h31.52.983,task,2021.1.4,Win32,59.78358343,628b806c463b948bc644b84f,629afc3715899a2e052afc57,,,,,,,,,,,,,,,,,,,,,,,9,,,,,,,,,,Task,7,(3x7) - 12,9,,,,,,,,,,,,,,,,,,,1,,,,,,,,,,,,,,,,,,,,,,,"[""9""]",1,[8.650499999999965],0,0,0,6,1,,,,,,,,,,,,,,,,,,
,,,,,,,,,,5d585e287d795e001788bf4c,41,Kobieta,2022-06-04_08h31.52.983,task,2021.1.4,Win32,59.78358343,628b806c463b948bc644b84f,629afc3715899a2e052afc57,,,,,,,,,,X V Q F H G B L J M P D K C T S W R N Z,,,,,,,,,,,,,,,,,,,,,,,,,,,,,,,,,,,,,,,,,,,,,,,,,,,,,,,,,,,,,,,,,,,,,,,,,,,,2,0,2,0,1,,,,,,,,,,,,,
,,,,,,,,,,5d585e287d795e001788bf4c,41,Kobieta,2022-06-04_08h31.52.983,task,2021.1.4,Win32,59.78358343,628b806c463b948bc644b84f,629afc3715899a2e052afc57,,,,,,,,,,,,,,,,,,,,,,,7,,,,,,,,,,Task,14,(2x2) + 3,7,,,,,,,,,,,,,,,,,,,1,,,,,,,,,,,,,,,,,,,,,,,"[""7""]",1,[4.420200000047544],0,0,0,13,1,,,,,,,,,,,,,,,,,,
,,,,,,,,,,5d585e287d795e001788bf4c,41,Kobieta,2022-06-04_08h31.52.983,task,2021.1.4,Win32,59.78358343,628b806c463b948bc644b84f,629afc3715899a2e052afc57,,,,,,,,,,X V Q F H G B L J M P D K C T S W R N Z,,,,,,,,,,,,,,,,,,,,,,,,,,,,,,,,,,,,,,,,,,,,,,,,,,,,,,,,,,,,,,,,,,,,,,,,,,,,3,0,3,0,1,,,,,,,,,,,,,
,,,,,,,,,,5d585e287d795e001788bf4c,41,Kobieta,2022-06-04_08h31.52.983,task,2021.1.4,Win32,59.78358343,628b806c463b948bc644b84f,629afc3715899a2e052afc57,,,,,,,,,,,,,,,,,,,,,,,8,,,,,,,,,,Task,23,(2x3) + 2,8,,,,,,,,,,,,,,,,,,,1,,,,,,,,,,,,,,,,,,,,,,,"[""8""]",1,[3.7560000000000855],0,0,0,22,1,,,,,,,,,,,,,,,,,,
,,,,,,,,,,5d585e287d795e001788bf4c,41,Kobieta,2022-06-04_08h31.52.983,task,2021.1.4,Win32,59.78358343,628b806c463b948bc644b84f,629afc3715899a2e052afc57,,,,,,,,,,X V Q F H G B L J M P D K C T S W R N Z,,,,,,,,,,,,,,,,,,,,,,,,,,,,,,,,,,,,,,,,,,,,,,,,,,,,,,,,,,,,,,,,,,,,,,,,,,,,4,0,4,0,1,,,,,,,,,,,,,
,,,,,,,,,,5d585e287d795e001788bf4c,41,Kobieta,2022-06-04_08h31.52.983,task,2021.1.4,Win32,59.78358343,628b806c463b948bc644b84f,629afc3715899a2e052afc57,,,,,,,,,,,,,,,,,,,,,,,,,,,,,,,,,,,,,,,,,,,,,,,,,,,,,,,,,,,,,,,,,,,,,,,,,,,,,,,,,,,,,,,,,,,gtnbz,"[""g"",""t"",""n"",""b"",""z""]",0,"[2.5855000000001382,2.8579000000954693,3.568599999904791,4.649700000047687,5.065700000047855,6.10550000000012]",0,RTNBZ,4,0,4,0,1,,
,,,,,,,,,,5d585e287d795e001788bf4c,41,Kobieta,2022-06-04_08h31.52.983,task,2021.1.4,Win32,59.78358343,628b806c463b948bc644b84f,629afc3715899a2e052afc57,,,,,,,,,,,,,,,,,,,,,,,,,,,,,,,,,,,,,,,,,,,,,,,,,,,,,,,,,,,,,,,,,,,,,,,,,,,,,,,,,,,,,,,,,,,,,,,,,,,,,,space,2.1936
