key_resp_15.keys,key_resp_15.rt,key_resp_16.keys,key_resp_16.rt,key_resp_4.keys,key_resp_4.rt,next_letter.thisRepN,next_letter.thisTrialN,next_letter.thisN,next_letter.thisIndex,next_letter.ran,letter,participant,Wiek*,Płeć,date,expName,psychopyVersion,OS,frameRate,study_id,session,simple_recall,key_resp_5.keys,key_resp_5.rt,simple_recall_corr,simple_recall_corrkeys,next_level.thisRepN,next_level.thisTrialN,next_level.thisN,next_level.thisIndex,next_level.ran,key_resp_2.keys,key_resp_2.rt,digit_answer,key_resp.keys,key_resp.corr,key_resp.rt,RT_list,next_equation.thisRepN,next_equation.thisTrialN,next_equation.thisN,next_equation.thisIndex,next_equation.ran,Task,Trial,Problem,Operation_answer,processing_score,sumRT,meanRT,sumdiff,sd,RT,key_resp_3.keys,key_resp_3.rt,repeat_practice.thisRepN,repeat_practice.thisTrialN,repeat_practice.thisN,repeat_practice.thisIndex,repeat_practice.ran,key_resp_6.keys,key_resp_6.rt,key_resp_11.keys,key_resp_11.corr,key_resp_11.rt,operation_correct,repeat_if_wrong_prac.thisRepN,repeat_if_wrong_prac.thisTrialN,repeat_if_wrong_prac.thisN,repeat_if_wrong_prac.thisIndex,repeat_if_wrong_prac.ran,span_size_prac.thisRepN,span_size_prac.thisTrialN,span_size_prac.thisN,span_size_prac.thisIndex,span_size_prac.ran,complex_recall_practice,key_resp_9.keys,key_resp_9.corr,key_resp_9.rt,complex_prac_corr,span_recall_prac.thisRepN,span_recall_prac.thisTrialN,span_recall_prac.thisN,span_recall_prac.thisIndex,span_recall_prac.ran,key_resp_10.keys,key_resp_10.rt,key_resp_7.keys,key_resp_7.corr,repeat_if_wrong.thisRepN,repeat_if_wrong.thisTrialN,repeat_if_wrong.thisN,repeat_if_wrong.thisIndex,repeat_if_wrong.ran,key_resp_7.rt,span_size.thisRepN,span_size.thisTrialN,span_size.thisN,span_size.thisIndex,span_size.ran,complex_recall,key_resp_8.keys,key_resp_8.corr,key_resp_8.rt,complex_recall_corr,complex_recall_corrkeys,span_recall.thisRepN,span_recall.thisTrialN,span_recall.thisN,span_recall.thisIndex,span_recall.ran,key_resp_13.keys,key_resp_13.corr,key_resp_13.rt,random_loop.thisRepN,random_loop.thisTrialN,random_loop.thisN,random_loop.thisIndex,random_loop.ran,key_resp_12.keys,key_resp_12.rt
space,12.1234,space,23.2784,space,9.6192,0,0,0,0,1,X V Q F H G B L J M P D K C T S W R N Z,5dac841d79d2ea001600357e,22,Mężczyzna,2022-06-11_09h46.58.689,task,2021.1.4,Win32,70.57661091,6299f149e92ead563fba08ef,62a44720ef8a26acd8e10399,,,,,,,,,,,,,,,,,,,,,,,,,,,,,,,,,,,,,,,,,,,,,,,,,,,,,,,,,,,,,,,,,,,,,,,,,,,,,,,,,,,,,,,,,,,,,,,,,,,,,
,,,,,,1,0,1,0,1,X V Q F H G B L J M P D K C T S W R N Z,5dac841d79d2ea001600357e,22,Mężczyzna,2022-06-11_09h46.58.689,task,2021.1.4,Win32,70.57661091,6299f149e92ead563fba08ef,62a44720ef8a26acd8e10399,,,,,,,,,,,,,,,,,,,,,,,,,,,,,,,,,,,,,,,,,,,,,,,,,,,,,,,,,,,,,,,,,,,,,,,,,,,,,,,,,,,,,,,,,,,,,,,,,,,,,
,,,,,,,,,,,,5dac841d79d2ea001600357e,22,Mężczyzna,2022-06-11_09h46.58.689,task,2021.1.4,Win32,70.57661091,6299f149e92ead563fba08ef,62a44720ef8a26acd8e10399,zz,"[""z"",""z""]","[1.3597000000000108,1.5264000000000166,3.0395999999999717]",1,ZZ,0,0,0,0,1,,,,,,,,,,,,,,,,,,,,,,,,,,,,,,,,,,,,,,,,,,,,,,,,,,,,,,,,,,,,,,,,,,,,,,,,,,,,,,,,,,,,,,,,,,,
,,,,,,0,0,0,0,1,X V Q F H G B L J M P D K C T S W R N Z,5dac841d79d2ea001600357e,22,Mężczyzna,2022-06-11_09h46.58.689,task,2021.1.4,Win32,70.57661091,6299f149e92ead563fba08ef,62a44720ef8a26acd8e10399,,,,,,,,,,,,,,,,,,,,,,,,,,,,,,,,,,,,,,,,,,,,,,,,,,,,,,,,,,,,,,,,,,,,,,,,,,,,,,,,,,,,,,,,,,,,,,,,,,,,,
,,,,,,1,0,1,0,1,X V Q F H G B L J M P D K C T S W R N Z,5dac841d79d2ea001600357e,22,Mężczyzna,2022-06-11_09h46.58.689,task,2021.1.4,Win32,70.57661091,6299f149e92ead563fba08ef,62a44720ef8a26acd8e10399,,,,,,,,,,,,,,,,,,,,,,,,,,,,,,,,,,,,,,,,,,,,,,,,,,,,,,,,,,,,,,,,,,,,,,,,,,,,,,,,,,,,,,,,,,,,,,,,,,,,,
,,,,,,,,,,,,5dac841d79d2ea001600357e,22,Mężczyzna,2022-06-11_09h46.58.689,task,2021.1.4,Win32,70.57661091,6299f149e92ead563fba08ef,62a44720ef8a26acd8e10399,vt,"[""v"",""t""]","[0.9998000000000502,1.2271000000000356,1.9794000000000196]",1,VT,1,0,1,0,1,,,,,,,,,,,,,,,,,,,,,,,,,,,,,,,,,,,,,,,,,,,,,,,,,,,,,,,,,,,,,,,,,,,,,,,,,,,,,,,,,,,,,,,,,,,
,,,,,,0,0,0,0,1,X V Q F H G B L J M P D K C T S W R N Z,5dac841d79d2ea001600357e,22,Mężczyzna,2022-06-11_09h46.58.689,task,2021.1.4,Win32,70.57661091,6299f149e92ead563fba08ef,62a44720ef8a26acd8e10399,,,,,,,,,,,,,,,,,,,,,,,,,,,,,,,,,,,,,,,,,,,,,,,,,,,,,,,,,,,,,,,,,,,,,,,,,,,,,,,,,,,,,,,,,,,,,,,,,,,,,
,,,,,,1,0,1,0,1,X V Q F H G B L J M P D K C T S W R N Z,5dac841d79d2ea001600357e,22,Mężczyzna,2022-06-11_09h46.58.689,task,2021.1.4,Win32,70.57661091,6299f149e92ead563fba08ef,62a44720ef8a26acd8e10399,,,,,,,,,,,,,,,,,,,,,,,,,,,,,,,,,,,,,,,,,,,,,,,,,,,,,,,,,,,,,,,,,,,,,,,,,,,,,,,,,,,,,,,,,,,,,,,,,,,,,
,,,,,,2,0,2,0,1,X V Q F H G B L J M P D K C T S W R N Z,5dac841d79d2ea001600357e,22,Mężczyzna,2022-06-11_09h46.58.689,task,2021.1.4,Win32,70.57661091,6299f149e92ead563fba08ef,62a44720ef8a26acd8e10399,,,,,,,,,,,,,,,,,,,,,,,,,,,,,,,,,,,,,,,,,,,,,,,,,,,,,,,,,,,,,,,,,,,,,,,,,,,,,,,,,,,,,,,,,,,,,,,,,,,,,
,,,,,,,,,,,,5dac841d79d2ea001600357e,22,Mężczyzna,2022-06-11_09h46.58.689,task,2021.1.4,Win32,70.57661091,6299f149e92ead563fba08ef,62a44720ef8a26acd8e10399,zqm,"[""z"",""q"",""m""]","[0.4274000000000342,0.5649000000000228,0.7252000000000152,0.8847999999999985]",1,ZQM,2,0,2,0,1,,,,,,,,,,,,,,,,,,,,,,,,,,,,,,,,,,,,,,,,,,,,,,,,,,,,,,,,,,,,,,,,,,,,,,,,,,,,,,,,,,,,,,,,,,,
,,,,,,0,0,0,0,1,X V Q F H G B L J M P D K C T S W R N Z,5dac841d79d2ea001600357e,22,Mężczyzna,2022-06-11_09h46.58.689,task,2021.1.4,Win32,70.57661091,6299f149e92ead563fba08ef,62a44720ef8a26acd8e10399,,,,,,,,,,,,,,,,,,,,,,,,,,,,,,,,,,,,,,,,,,,,,,,,,,,,,,,,,,,,,,,,,,,,,,,,,,,,,,,,,,,,,,,,,,,,,,,,,,,,,
,,,,,,1,0,1,0,1,X V Q F H G B L J M P D K C T S W R N Z,5dac841d79d2ea001600357e,22,Mężczyzna,2022-06-11_09h46.58.689,task,2021.1.4,Win32,70.57661091,6299f149e92ead563fba08ef,62a44720ef8a26acd8e10399,,,,,,,,,,,,,,,,,,,,,,,,,,,,,,,,,,,,,,,,,,,,,,,,,,,,,,,,,,,,,,,,,,,,,,,,,,,,,,,,,,,,,,,,,,,,,,,,,,,,,
,,,,,,2,0,2,0,1,X V Q F H G B L J M P D K C T S W R N Z,5dac841d79d2ea001600357e,22,Mężczyzna,2022-06-11_09h46.58.689,task,2021.1.4,Win32,70.57661091,6299f149e92ead563fba08ef,62a44720ef8a26acd8e10399,,,,,,,,,,,,,,,,,,,,,,,,,,,,,,,,,,,,,,,,,,,,,,,,,,,,,,,,,,,,,,,,,,,,,,,,,,,,,,,,,,,,,,,,,,,,,,,,,,,,,
,,,,,,,,,,,,5dac841d79d2ea001600357e,22,Mężczyzna,2022-06-11_09h46.58.689,task,2021.1.4,Win32,70.57661091,6299f149e92ead563fba08ef,62a44720ef8a26acd8e10399,whs,"[""w"",""h"",""s""]","[0.2154000000000167,0.3474000000000217,0.5904000000000167,0.7917000000000058]",1,WHS,3,0,3,0,1,,,,,,,,,,,,,,,,,,,,,,,,,,,,,,,,,,,,,,,,,,,,,,,,,,,,,,,,,,,,,,,,,,,,,,,,,,,,,,,,,,,,,,,,,,,
,,,,,,0,0,0,0,1,X V Q F H G B L J M P D K C T S W R N Z,5dac841d79d2ea001600357e,22,Mężczyzna,2022-06-11_09h46.58.689,task,2021.1.4,Win32,70.57661091,6299f149e92ead563fba08ef,62a44720ef8a26acd8e10399,,,,,,,,,,,,,,,,,,,,,,,,,,,,,,,,,,,,,,,,,,,,,,,,,,,,,,,,,,,,,,,,,,,,,,,,,,,,,,,,,,,,,,,,,,,,,,,,,,,,,
,,,,,,1,0,1,0,1,X V Q F H G B L J M P D K C T S W R N Z,5dac841d79d2ea001600357e,22,Mężczyzna,2022-06-11_09h46.58.689,task,2021.1.4,Win32,70.57661091,6299f149e92ead563fba08ef,62a44720ef8a26acd8e10399,,,,,,,,,,,,,,,,,,,,,,,,,,,,,,,,,,,,,,,,,,,,,,,,,,,,,,,,,,,,,,,,,,,,,,,,,,,,,,,,,,,,,,,,,,,,,,,,,,,,,
,,,,,,2,0,2,0,1,X V Q F H G B L J M P D K C T S W R N Z,5dac841d79d2ea001600357e,22,Mężczyzna,2022-06-11_09h46.58.689,task,2021.1.4,Win32,70.57661091,6299f149e92ead563fba08ef,62a44720ef8a26acd8e10399,,,,,,,,,,,,,,,,,,,,,,,,,,,,,,,,,,,,,,,,,,,,,,,,,,,,,,,,,,,,,,,,,,,,,,,,,,,,,,,,,,,,,,,,,,,,,,,,,,,,,
,,,,,,3,0,3,0,1,X V Q F H G B L J M P D K C T S W R N Z,5dac841d79d2ea001600357e,22,Mężczyzna,2022-06-11_09h46.58.689,task,2021.1.4,Win32,70.57661091,6299f149e92ead563fba08ef,62a44720ef8a26acd8e10399,,,,,,,,,,,,,,,,,,,,,,,,,,,,,,,,,,,,,,,,,,,,,,,,,,,,,,,,,,,,,,,,,,,,,,,,,,,,,,,,,,,,,,,,,,,,,,,,,,,,,
,,,,,,,,,,,,5dac841d79d2ea001600357e,22,Mężczyzna,2022-06-11_09h46.58.689,task,2021.1.4,Win32,70.57661091,6299f149e92ead563fba08ef,62a44720ef8a26acd8e10399,ltzx,"[""l"",""t"",""z"",""x""]","[0.4177999999999997,0.625,1.0970000000000084,1.4858999999999725,1.6225999999999772]",1,LTZX,4,0,4,0,1,,,,,,,,,,,,,,,,,,,,,,,,,,,,,,,,,,,,,,,,,,,,,,,,,,,,,,,,,,,,,,,,,,,,,,,,,,,,,,,,,,,,,,,,,,,
,,,,,,0,0,0,0,1,X V Q F H G B L J M P D K C T S W R N Z,5dac841d79d2ea001600357e,22,Mężczyzna,2022-06-11_09h46.58.689,task,2021.1.4,Win32,70.57661091,6299f149e92ead563fba08ef,62a44720ef8a26acd8e10399,,,,,,,,,,,,,,,,,,,,,,,,,,,,,,,,,,,,,,,,,,,,,,,,,,,,,,,,,,,,,,,,,,,,,,,,,,,,,,,,,,,,,,,,,,,,,,,,,,,,,
,,,,,,1,0,1,0,1,X V Q F H G B L J M P D K C T S W R N Z,5dac841d79d2ea001600357e,22,Mężczyzna,2022-06-11_09h46.58.689,task,2021.1.4,Win32,70.57661091,6299f149e92ead563fba08ef,62a44720ef8a26acd8e10399,,,,,,,,,,,,,,,,,,,,,,,,,,,,,,,,,,,,,,,,,,,,,,,,,,,,,,,,,,,,,,,,,,,,,,,,,,,,,,,,,,,,,,,,,,,,,,,,,,,,,
,,,,,,2,0,2,0,1,X V Q F H G B L J M P D K C T S W R N Z,5dac841d79d2ea001600357e,22,Mężczyzna,2022-06-11_09h46.58.689,task,2021.1.4,Win32,70.57661091,6299f149e92ead563fba08ef,62a44720ef8a26acd8e10399,,,,,,,,,,,,,,,,,,,,,,,,,,,,,,,,,,,,,,,,,,,,,,,,,,,,,,,,,,,,,,,,,,,,,,,,,,,,,,,,,,,,,,,,,,,,,,,,,,,,,
,,,,,,3,0,3,0,1,X V Q F H G B L J M P D K C T S W R N Z,5dac841d79d2ea001600357e,22,Mężczyzna,2022-06-11_09h46.58.689,task,2021.1.4,Win32,70.57661091,6299f149e92ead563fba08ef,62a44720ef8a26acd8e10399,,,,,,,,,,,,,,,,,,,,,,,,,,,,,,,,,,,,,,,,,,,,,,,,,,,,,,,,,,,,,,,,,,,,,,,,,,,,,,,,,,,,,,,,,,,,,,,,,,,,,
,,,,,,,,,,,,5dac841d79d2ea001600357e,22,Mężczyzna,2022-06-11_09h46.58.689,task,2021.1.4,Win32,70.57661091,6299f149e92ead563fba08ef,62a44720ef8a26acd8e10399,hcnn,"[""h"",""c"",""n"",""n""]","[0.8252999999999986,1.2982000000000227,1.787900000000036,2.327299999999994,2.5885999999999854]",1,HCNN,5,0,5,0,1,,,,,,,,,,,,,,,,,,,,,,,,,,,,,,,,,,,,,,,,,,,,,,,,,,,,,,,,,,,,,,,,,,,,,,,,,,,,,,,,,,,,,,,,,,,
,,,,,,0,0,0,0,1,X V Q F H G B L J M P D K C T S W R N Z,5dac841d79d2ea001600357e,22,Mężczyzna,2022-06-11_09h46.58.689,task,2021.1.4,Win32,70.57661091,6299f149e92ead563fba08ef,62a44720ef8a26acd8e10399,,,,,,,,,,,,,,,,,,,,,,,,,,,,,,,,,,,,,,,,,,,,,,,,,,,,,,,,,,,,,,,,,,,,,,,,,,,,,,,,,,,,,,,,,,,,,,,,,,,,,
,,,,,,1,0,1,0,1,X V Q F H G B L J M P D K C T S W R N Z,5dac841d79d2ea001600357e,22,Mężczyzna,2022-06-11_09h46.58.689,task,2021.1.4,Win32,70.57661091,6299f149e92ead563fba08ef,62a44720ef8a26acd8e10399,,,,,,,,,,,,,,,,,,,,,,,,,,,,,,,,,,,,,,,,,,,,,,,,,,,,,,,,,,,,,,,,,,,,,,,,,,,,,,,,,,,,,,,,,,,,,,,,,,,,,
,,,,,,2,0,2,0,1,X V Q F H G B L J M P D K C T S W R N Z,5dac841d79d2ea001600357e,22,Mężczyzna,2022-06-11_09h46.58.689,task,2021.1.4,Win32,70.57661091,6299f149e92ead563fba08ef,62a44720ef8a26acd8e10399,,,,,,,,,,,,,,,,,,,,,,,,,,,,,,,,,,,,,,,,,,,,,,,,,,,,,,,,,,,,,,,,,,,,,,,,,,,,,,,,,,,,,,,,,,,,,,,,,,,,,
,,,,,,3,0,3,0,1,X V Q F H G B L J M P D K C T S W R N Z,5dac841d79d2ea001600357e,22,Mężczyzna,2022-06-11_09h46.58.689,task,2021.1.4,Win32,70.57661091,6299f149e92ead563fba08ef,62a44720ef8a26acd8e10399,,,,,,,,,,,,,,,,,,,,,,,,,,,,,,,,,,,,,,,,,,,,,,,,,,,,,,,,,,,,,,,,,,,,,,,,,,,,,,,,,,,,,,,,,,,,,,,,,,,,,
,,,,,,4,0,4,0,1,X V Q F H G B L J M P D K C T S W R N Z,5dac841d79d2ea001600357e,22,Mężczyzna,2022-06-11_09h46.58.689,task,2021.1.4,Win32,70.57661091,6299f149e92ead563fba08ef,62a44720ef8a26acd8e10399,,,,,,,,,,,,,,,,,,,,,,,,,,,,,,,,,,,,,,,,,,,,,,,,,,,,,,,,,,,,,,,,,,,,,,,,,,,,,,,,,,,,,,,,,,,,,,,,,,,,,
,,,,,,,,,,,,5dac841d79d2ea001600357e,22,Mężczyzna,2022-06-11_09h46.58.689,task,2021.1.4,Win32,70.57661091,6299f149e92ead563fba08ef,62a44720ef8a26acd8e10399,btwnl,"[""b"",""t"",""w"",""n"",""l""]","[0.528499999999994,0.902799999999985,1.2242999999999853,1.5005000000000024,2.3335999999999757,2.5692000000000093]",1,BTWNL,6,0,6,0,1,,,,,,,,,,,,,,,,,,,,,,,,,,,,,,,,,,,,,,,,,,,,,,,,,,,,,,,,,,,,,,,,,,,,,,,,,,,,,,,,,,,,,,,,,,,
,,,,,,0,0,0,0,1,X V Q F H G B L J M P D K C T S W R N Z,5dac841d79d2ea001600357e,22,Mężczyzna,2022-06-11_09h46.58.689,task,2021.1.4,Win32,70.57661091,6299f149e92ead563fba08ef,62a44720ef8a26acd8e10399,,,,,,,,,,,,,,,,,,,,,,,,,,,,,,,,,,,,,,,,,,,,,,,,,,,,,,,,,,,,,,,,,,,,,,,,,,,,,,,,,,,,,,,,,,,,,,,,,,,,,
,,,,,,1,0,1,0,1,X V Q F H G B L J M P D K C T S W R N Z,5dac841d79d2ea001600357e,22,Mężczyzna,2022-06-11_09h46.58.689,task,2021.1.4,Win32,70.57661091,6299f149e92ead563fba08ef,62a44720ef8a26acd8e10399,,,,,,,,,,,,,,,,,,,,,,,,,,,,,,,,,,,,,,,,,,,,,,,,,,,,,,,,,,,,,,,,,,,,,,,,,,,,,,,,,,,,,,,,,,,,,,,,,,,,,
,,,,,,2,0,2,0,1,X V Q F H G B L J M P D K C T S W R N Z,5dac841d79d2ea001600357e,22,Mężczyzna,2022-06-11_09h46.58.689,task,2021.1.4,Win32,70.57661091,6299f149e92ead563fba08ef,62a44720ef8a26acd8e10399,,,,,,,,,,,,,,,,,,,,,,,,,,,,,,,,,,,,,,,,,,,,,,,,,,,,,,,,,,,,,,,,,,,,,,,,,,,,,,,,,,,,,,,,,,,,,,,,,,,,,
,,,,,,3,0,3,0,1,X V Q F H G B L J M P D K C T S W R N Z,5dac841d79d2ea001600357e,22,Mężczyzna,2022-06-11_09h46.58.689,task,2021.1.4,Win32,70.57661091,6299f149e92ead563fba08ef,62a44720ef8a26acd8e10399,,,,,,,,,,,,,,,,,,,,,,,,,,,,,,,,,,,,,,,,,,,,,,,,,,,,,,,,,,,,,,,,,,,,,,,,,,,,,,,,,,,,,,,,,,,,,,,,,,,,,
,,,,,,4,0,4,0,1,X V Q F H G B L J M P D K C T S W R N Z,5dac841d79d2ea001600357e,22,Mężczyzna,2022-06-11_09h46.58.689,task,2021.1.4,Win32,70.57661091,6299f149e92ead563fba08ef,62a44720ef8a26acd8e10399,,,,,,,,,,,,,,,,,,,,,,,,,,,,,,,,,,,,,,,,,,,,,,,,,,,,,,,,,,,,,,,,,,,,,,,,,,,,,,,,,,,,,,,,,,,,,,,,,,,,,
,,,,,,,,,,,,5dac841d79d2ea001600357e,22,Mężczyzna,2022-06-11_09h46.58.689,task,2021.1.4,Win32,70.57661091,6299f149e92ead563fba08ef,62a44720ef8a26acd8e10399,fvbfx,"[""f"",""v"",""b"",""f"",""x""]","[0.23649999999999238,0.9106999999999488,1.2983999999999583,1.8666999999999518,2.271500000000003,2.674299999999988]",0,FVBFC,7,0,7,0,1,,,,,,,,,,,,,,,,,,,,,,,,,,,,,,,,,,,,,,,,,,,,,,,,,,,,,,,,,,,,,,,,,,,,,,,,,,,,,,,,,,,,,,,,,,,
,,,,,,0,0,0,0,1,X V Q F H G B L J M P D K C T S W R N Z,5dac841d79d2ea001600357e,22,Mężczyzna,2022-06-11_09h46.58.689,task,2021.1.4,Win32,70.57661091,6299f149e92ead563fba08ef,62a44720ef8a26acd8e10399,,,,,,,,,,,,,,,,,,,,,,,,,,,,,,,,,,,,,,,,,,,,,,,,,,,,,,,,,,,,,,,,,,,,,,,,,,,,,,,,,,,,,,,,,,,,,,,,,,,,,
,,,,,,1,0,1,0,1,X V Q F H G B L J M P D K C T S W R N Z,5dac841d79d2ea001600357e,22,Mężczyzna,2022-06-11_09h46.58.689,task,2021.1.4,Win32,70.57661091,6299f149e92ead563fba08ef,62a44720ef8a26acd8e10399,,,,,,,,,,,,,,,,,,,,,,,,,,,,,,,,,,,,,,,,,,,,,,,,,,,,,,,,,,,,,,,,,,,,,,,,,,,,,,,,,,,,,,,,,,,,,,,,,,,,,
,,,,,,2,0,2,0,1,X V Q F H G B L J M P D K C T S W R N Z,5dac841d79d2ea001600357e,22,Mężczyzna,2022-06-11_09h46.58.689,task,2021.1.4,Win32,70.57661091,6299f149e92ead563fba08ef,62a44720ef8a26acd8e10399,,,,,,,,,,,,,,,,,,,,,,,,,,,,,,,,,,,,,,,,,,,,,,,,,,,,,,,,,,,,,,,,,,,,,,,,,,,,,,,,,,,,,,,,,,,,,,,,,,,,,
,,,,,,3,0,3,0,1,X V Q F H G B L J M P D K C T S W R N Z,5dac841d79d2ea001600357e,22,Mężczyzna,2022-06-11_09h46.58.689,task,2021.1.4,Win32,70.57661091,6299f149e92ead563fba08ef,62a44720ef8a26acd8e10399,,,,,,,,,,,,,,,,,,,,,,,,,,,,,,,,,,,,,,,,,,,,,,,,,,,,,,,,,,,,,,,,,,,,,,,,,,,,,,,,,,,,,,,,,,,,,,,,,,,,,
,,,,,,4,0,4,0,1,X V Q F H G B L J M P D K C T S W R N Z,5dac841d79d2ea001600357e,22,Mężczyzna,2022-06-11_09h46.58.689,task,2021.1.4,Win32,70.57661091,6299f149e92ead563fba08ef,62a44720ef8a26acd8e10399,,,,,,,,,,,,,,,,,,,,,,,,,,,,,,,,,,,,,,,,,,,,,,,,,,,,,,,,,,,,,,,,,,,,,,,,,,,,,,,,,,,,,,,,,,,,,,,,,,,,,
,,,,,,,,,,,,5dac841d79d2ea001600357e,22,Mężczyzna,2022-06-11_09h46.58.689,task,2021.1.4,Win32,70.57661091,6299f149e92ead563fba08ef,62a44720ef8a26acd8e10399,,[],[1.4575000000000102],0,HKPSV,8,0,8,0,1,,,,,,,,,,,,,,,,,,,,,,,,,,,,,,,,,,,,,,,,,,,,,,,,,,,,,,,,,,,,,,,,,,,,,,,,,,,,,,,,,,,,,,,,,,,
,,,,,,0,0,0,0,1,X V Q F H G B L J M P D K C T S W R N Z,5dac841d79d2ea001600357e,22,Mężczyzna,2022-06-11_09h46.58.689,task,2021.1.4,Win32,70.57661091,6299f149e92ead563fba08ef,62a44720ef8a26acd8e10399,,,,,,,,,,,,,,,,,,,,,,,,,,,,,,,,,,,,,,,,,,,,,,,,,,,,,,,,,,,,,,,,,,,,,,,,,,,,,,,,,,,,,,,,,,,,,,,,,,,,,
,,,,,,1,0,1,0,1,X V Q F H G B L J M P D K C T S W R N Z,5dac841d79d2ea001600357e,22,Mężczyzna,2022-06-11_09h46.58.689,task,2021.1.4,Win32,70.57661091,6299f149e92ead563fba08ef,62a44720ef8a26acd8e10399,,,,,,,,,,,,,,,,,,,,,,,,,,,,,,,,,,,,,,,,,,,,,,,,,,,,,,,,,,,,,,,,,,,,,,,,,,,,,,,,,,,,,,,,,,,,,,,,,,,,,
,,,,,,2,0,2,0,1,X V Q F H G B L J M P D K C T S W R N Z,5dac841d79d2ea001600357e,22,Mężczyzna,2022-06-11_09h46.58.689,task,2021.1.4,Win32,70.57661091,6299f149e92ead563fba08ef,62a44720ef8a26acd8e10399,,,,,,,,,,,,,,,,,,,,,,,,,,,,,,,,,,,,,,,,,,,,,,,,,,,,,,,,,,,,,,,,,,,,,,,,,,,,,,,,,,,,,,,,,,,,,,,,,,,,,
,,,,,,3,0,3,0,1,X V Q F H G B L J M P D K C T S W R N Z,5dac841d79d2ea001600357e,22,Mężczyzna,2022-06-11_09h46.58.689,task,2021.1.4,Win32,70.57661091,6299f149e92ead563fba08ef,62a44720ef8a26acd8e10399,,,,,,,,,,,,,,,,,,,,,,,,,,,,,,,,,,,,,,,,,,,,,,,,,,,,,,,,,,,,,,,,,,,,,,,,,,,,,,,,,,,,,,,,,,,,,,,,,,,,,
,,,,,,4,0,4,0,1,X V Q F H G B L J M P D K C T S W R N Z,5dac841d79d2ea001600357e,22,Mężczyzna,2022-06-11_09h46.58.689,task,2021.1.4,Win32,70.57661091,6299f149e92ead563fba08ef,62a44720ef8a26acd8e10399,,,,,,,,,,,,,,,,,,,,,,,,,,,,,,,,,,,,,,,,,,,,,,,,,,,,,,,,,,,,,,,,,,,,,,,,,,,,,,,,,,,,,,,,,,,,,,,,,,,,,
,,,,,,,,,,,,5dac841d79d2ea001600357e,22,Mężczyzna,2022-06-11_09h46.58.689,task,2021.1.4,Win32,70.57661091,6299f149e92ead563fba08ef,62a44720ef8a26acd8e10399,mlvsz,"[""m"",""l"",""v"",""s"",""z""]","[0.5075999999999681,1.111199999999954,2.09039999999996,2.875799999999984,3.3337999999999823,4.090699999999941]",1,MLVSZ,9,0,9,0,1,,,,,,,,,,,,,,,,,,,,,,,,,,,,,,,,,,,,,,,,,,,,,,,,,,,,,,,,,,,,,,,,,,,,,,,,,,,,,,,,,,,,,,,,,,,
,,,,,,0,0,0,0,1,X V Q F H G B L J M P D K C T S W R N Z,5dac841d79d2ea001600357e,22,Mężczyzna,2022-06-11_09h46.58.689,task,2021.1.4,Win32,70.57661091,6299f149e92ead563fba08ef,62a44720ef8a26acd8e10399,,,,,,,,,,,,,,,,,,,,,,,,,,,,,,,,,,,,,,,,,,,,,,,,,,,,,,,,,,,,,,,,,,,,,,,,,,,,,,,,,,,,,,,,,,,,,,,,,,,,,
,,,,,,1,0,1,0,1,X V Q F H G B L J M P D K C T S W R N Z,5dac841d79d2ea001600357e,22,Mężczyzna,2022-06-11_09h46.58.689,task,2021.1.4,Win32,70.57661091,6299f149e92ead563fba08ef,62a44720ef8a26acd8e10399,,,,,,,,,,,,,,,,,,,,,,,,,,,,,,,,,,,,,,,,,,,,,,,,,,,,,,,,,,,,,,,,,,,,,,,,,,,,,,,,,,,,,,,,,,,,,,,,,,,,,
,,,,,,2,0,2,0,1,X V Q F H G B L J M P D K C T S W R N Z,5dac841d79d2ea001600357e,22,Mężczyzna,2022-06-11_09h46.58.689,task,2021.1.4,Win32,70.57661091,6299f149e92ead563fba08ef,62a44720ef8a26acd8e10399,,,,,,,,,,,,,,,,,,,,,,,,,,,,,,,,,,,,,,,,,,,,,,,,,,,,,,,,,,,,,,,,,,,,,,,,,,,,,,,,,,,,,,,,,,,,,,,,,,,,,
,,,,,,3,0,3,0,1,X V Q F H G B L J M P D K C T S W R N Z,5dac841d79d2ea001600357e,22,Mężczyzna,2022-06-11_09h46.58.689,task,2021.1.4,Win32,70.57661091,6299f149e92ead563fba08ef,62a44720ef8a26acd8e10399,,,,,,,,,,,,,,,,,,,,,,,,,,,,,,,,,,,,,,,,,,,,,,,,,,,,,,,,,,,,,,,,,,,,,,,,,,,,,,,,,,,,,,,,,,,,,,,,,,,,,
,,,,,,4,0,4,0,1,X V Q F H G B L J M P D K C T S W R N Z,5dac841d79d2ea001600357e,22,Mężczyzna,2022-06-11_09h46.58.689,task,2021.1.4,Win32,70.57661091,6299f149e92ead563fba08ef,62a44720ef8a26acd8e10399,,,,,,,,,,,,,,,,,,,,,,,,,,,,,,,,,,,,,,,,,,,,,,,,,,,,,,,,,,,,,,,,,,,,,,,,,,,,,,,,,,,,,,,,,,,,,,,,,,,,,
,,,,,,5,0,5,0,1,X V Q F H G B L J M P D K C T S W R N Z,5dac841d79d2ea001600357e,22,Mężczyzna,2022-06-11_09h46.58.689,task,2021.1.4,Win32,70.57661091,6299f149e92ead563fba08ef,62a44720ef8a26acd8e10399,,,,,,,,,,,,,,,,,,,,,,,,,,,,,,,,,,,,,,,,,,,,,,,,,,,,,,,,,,,,,,,,,,,,,,,,,,,,,,,,,,,,,,,,,,,,,,,,,,,,,
,,,,,,,,,,,,5dac841d79d2ea001600357e,22,Mężczyzna,2022-06-11_09h46.58.689,task,2021.1.4,Win32,70.57661091,6299f149e92ead563fba08ef,62a44720ef8a26acd8e10399,slcbbg,"[""s"",""l"",""c"",""b"",""b"",""g""]","[0.5722999999999843,8.837399999999946,9.479799999999983,10.070499999999981,10.229699999999951,10.465799999999973,11.117599999999953]",1,SLCBBG,10,0,10,0,1,,,,,,,,,,,,,,,,,,,,,,,,,,,,,,,,,,,,,,,,,,,,,,,,,,,,,,,,,,,,,,,,,,,,,,,,,,,,,,,,,,,,,,,,,,,
,,,,,,0,0,0,0,1,X V Q F H G B L J M P D K C T S W R N Z,5dac841d79d2ea001600357e,22,Mężczyzna,2022-06-11_09h46.58.689,task,2021.1.4,Win32,70.57661091,6299f149e92ead563fba08ef,62a44720ef8a26acd8e10399,,,,,,,,,,,,,,,,,,,,,,,,,,,,,,,,,,,,,,,,,,,,,,,,,,,,,,,,,,,,,,,,,,,,,,,,,,,,,,,,,,,,,,,,,,,,,,,,,,,,,
,,,,,,1,0,1,0,1,X V Q F H G B L J M P D K C T S W R N Z,5dac841d79d2ea001600357e,22,Mężczyzna,2022-06-11_09h46.58.689,task,2021.1.4,Win32,70.57661091,6299f149e92ead563fba08ef,62a44720ef8a26acd8e10399,,,,,,,,,,,,,,,,,,,,,,,,,,,,,,,,,,,,,,,,,,,,,,,,,,,,,,,,,,,,,,,,,,,,,,,,,,,,,,,,,,,,,,,,,,,,,,,,,,,,,
,,,,,,2,0,2,0,1,X V Q F H G B L J M P D K C T S W R N Z,5dac841d79d2ea001600357e,22,Mężczyzna,2022-06-11_09h46.58.689,task,2021.1.4,Win32,70.57661091,6299f149e92ead563fba08ef,62a44720ef8a26acd8e10399,,,,,,,,,,,,,,,,,,,,,,,,,,,,,,,,,,,,,,,,,,,,,,,,,,,,,,,,,,,,,,,,,,,,,,,,,,,,,,,,,,,,,,,,,,,,,,,,,,,,,
,,,,,,3,0,3,0,1,X V Q F H G B L J M P D K C T S W R N Z,5dac841d79d2ea001600357e,22,Mężczyzna,2022-06-11_09h46.58.689,task,2021.1.4,Win32,70.57661091,6299f149e92ead563fba08ef,62a44720ef8a26acd8e10399,,,,,,,,,,,,,,,,,,,,,,,,,,,,,,,,,,,,,,,,,,,,,,,,,,,,,,,,,,,,,,,,,,,,,,,,,,,,,,,,,,,,,,,,,,,,,,,,,,,,,
,,,,,,4,0,4,0,1,X V Q F H G B L J M P D K C T S W R N Z,5dac841d79d2ea001600357e,22,Mężczyzna,2022-06-11_09h46.58.689,task,2021.1.4,Win32,70.57661091,6299f149e92ead563fba08ef,62a44720ef8a26acd8e10399,,,,,,,,,,,,,,,,,,,,,,,,,,,,,,,,,,,,,,,,,,,,,,,,,,,,,,,,,,,,,,,,,,,,,,,,,,,,,,,,,,,,,,,,,,,,,,,,,,,,,
,,,,,,5,0,5,0,1,X V Q F H G B L J M P D K C T S W R N Z,5dac841d79d2ea001600357e,22,Mężczyzna,2022-06-11_09h46.58.689,task,2021.1.4,Win32,70.57661091,6299f149e92ead563fba08ef,62a44720ef8a26acd8e10399,,,,,,,,,,,,,,,,,,,,,,,,,,,,,,,,,,,,,,,,,,,,,,,,,,,,,,,,,,,,,,,,,,,,,,,,,,,,,,,,,,,,,,,,,,,,,,,,,,,,,
,,,,,,,,,,,,5dac841d79d2ea001600357e,22,Mężczyzna,2022-06-11_09h46.58.689,task,2021.1.4,Win32,70.57661091,6299f149e92ead563fba08ef,62a44720ef8a26acd8e10399,wdgjz,"[""w"",""d"",""g"",""j"",""z""]","[0.41749999999998977,0.7168999999999528,1.4037999999999897,1.6671999999999514,3.7347999999999786,4.278199999999941]",0,WDNJZN,11,0,11,0,1,,,,,,,,,,,,,,,,,,,,,,,,,,,,,,,,,,,,,,,,,,,,,,,,,,,,,,,,,,,,,,,,,,,,,,,,,,,,,,,,,,,,,,,,,,,
,,,,,,0,0,0,0,1,X V Q F H G B L J M P D K C T S W R N Z,5dac841d79d2ea001600357e,22,Mężczyzna,2022-06-11_09h46.58.689,task,2021.1.4,Win32,70.57661091,6299f149e92ead563fba08ef,62a44720ef8a26acd8e10399,,,,,,,,,,,,,,,,,,,,,,,,,,,,,,,,,,,,,,,,,,,,,,,,,,,,,,,,,,,,,,,,,,,,,,,,,,,,,,,,,,,,,,,,,,,,,,,,,,,,,
,,,,,,1,0,1,0,1,X V Q F H G B L J M P D K C T S W R N Z,5dac841d79d2ea001600357e,22,Mężczyzna,2022-06-11_09h46.58.689,task,2021.1.4,Win32,70.57661091,6299f149e92ead563fba08ef,62a44720ef8a26acd8e10399,,,,,,,,,,,,,,,,,,,,,,,,,,,,,,,,,,,,,,,,,,,,,,,,,,,,,,,,,,,,,,,,,,,,,,,,,,,,,,,,,,,,,,,,,,,,,,,,,,,,,
,,,,,,2,0,2,0,1,X V Q F H G B L J M P D K C T S W R N Z,5dac841d79d2ea001600357e,22,Mężczyzna,2022-06-11_09h46.58.689,task,2021.1.4,Win32,70.57661091,6299f149e92ead563fba08ef,62a44720ef8a26acd8e10399,,,,,,,,,,,,,,,,,,,,,,,,,,,,,,,,,,,,,,,,,,,,,,,,,,,,,,,,,,,,,,,,,,,,,,,,,,,,,,,,,,,,,,,,,,,,,,,,,,,,,
,,,,,,3,0,3,0,1,X V Q F H G B L J M P D K C T S W R N Z,5dac841d79d2ea001600357e,22,Mężczyzna,2022-06-11_09h46.58.689,task,2021.1.4,Win32,70.57661091,6299f149e92ead563fba08ef,62a44720ef8a26acd8e10399,,,,,,,,,,,,,,,,,,,,,,,,,,,,,,,,,,,,,,,,,,,,,,,,,,,,,,,,,,,,,,,,,,,,,,,,,,,,,,,,,,,,,,,,,,,,,,,,,,,,,
,,,,,,4,0,4,0,1,X V Q F H G B L J M P D K C T S W R N Z,5dac841d79d2ea001600357e,22,Mężczyzna,2022-06-11_09h46.58.689,task,2021.1.4,Win32,70.57661091,6299f149e92ead563fba08ef,62a44720ef8a26acd8e10399,,,,,,,,,,,,,,,,,,,,,,,,,,,,,,,,,,,,,,,,,,,,,,,,,,,,,,,,,,,,,,,,,,,,,,,,,,,,,,,,,,,,,,,,,,,,,,,,,,,,,
,,,,,,5,0,5,0,1,X V Q F H G B L J M P D K C T S W R N Z,5dac841d79d2ea001600357e,22,Mężczyzna,2022-06-11_09h46.58.689,task,2021.1.4,Win32,70.57661091,6299f149e92ead563fba08ef,62a44720ef8a26acd8e10399,,,,,,,,,,,,,,,,,,,,,,,,,,,,,,,,,,,,,,,,,,,,,,,,,,,,,,,,,,,,,,,,,,,,,,,,,,,,,,,,,,,,,,,,,,,,,,,,,,,,,
,,,,,,,,,,,,5dac841d79d2ea001600357e,22,Mężczyzna,2022-06-11_09h46.58.689,task,2021.1.4,Win32,70.57661091,6299f149e92ead563fba08ef,62a44720ef8a26acd8e10399,vprwv,"[""v"",""p"",""r"",""w"",""v""]","[0.0660000000000025,1.5284999999999798,2.3249000000000137,3.4523000000000366,4.290900000000022,5.054999999999978]",0,VPRBWV,12,0,12,0,1,,,,,,,,,,,,,,,,,,,,,,,,,,,,,,,,,,,,,,,,,,,,,,,,,,,,,,,,,,,,,,,,,,,,,,,,,,,,,,,,,,,,,,,,,,,
,,,,,,0,0,0,0,1,X V Q F H G B L J M P D K C T S W R N Z,5dac841d79d2ea001600357e,22,Mężczyzna,2022-06-11_09h46.58.689,task,2021.1.4,Win32,70.57661091,6299f149e92ead563fba08ef,62a44720ef8a26acd8e10399,,,,,,,,,,,,,,,,,,,,,,,,,,,,,,,,,,,,,,,,,,,,,,,,,,,,,,,,,,,,,,,,,,,,,,,,,,,,,,,,,,,,,,,,,,,,,,,,,,,,,
,,,,,,1,0,1,0,1,X V Q F H G B L J M P D K C T S W R N Z,5dac841d79d2ea001600357e,22,Mężczyzna,2022-06-11_09h46.58.689,task,2021.1.4,Win32,70.57661091,6299f149e92ead563fba08ef,62a44720ef8a26acd8e10399,,,,,,,,,,,,,,,,,,,,,,,,,,,,,,,,,,,,,,,,,,,,,,,,,,,,,,,,,,,,,,,,,,,,,,,,,,,,,,,,,,,,,,,,,,,,,,,,,,,,,
,,,,,,2,0,2,0,1,X V Q F H G B L J M P D K C T S W R N Z,5dac841d79d2ea001600357e,22,Mężczyzna,2022-06-11_09h46.58.689,task,2021.1.4,Win32,70.57661091,6299f149e92ead563fba08ef,62a44720ef8a26acd8e10399,,,,,,,,,,,,,,,,,,,,,,,,,,,,,,,,,,,,,,,,,,,,,,,,,,,,,,,,,,,,,,,,,,,,,,,,,,,,,,,,,,,,,,,,,,,,,,,,,,,,,
,,,,,,3,0,3,0,1,X V Q F H G B L J M P D K C T S W R N Z,5dac841d79d2ea001600357e,22,Mężczyzna,2022-06-11_09h46.58.689,task,2021.1.4,Win32,70.57661091,6299f149e92ead563fba08ef,62a44720ef8a26acd8e10399,,,,,,,,,,,,,,,,,,,,,,,,,,,,,,,,,,,,,,,,,,,,,,,,,,,,,,,,,,,,,,,,,,,,,,,,,,,,,,,,,,,,,,,,,,,,,,,,,,,,,
,,,,,,4,0,4,0,1,X V Q F H G B L J M P D K C T S W R N Z,5dac841d79d2ea001600357e,22,Mężczyzna,2022-06-11_09h46.58.689,task,2021.1.4,Win32,70.57661091,6299f149e92ead563fba08ef,62a44720ef8a26acd8e10399,,,,,,,,,,,,,,,,,,,,,,,,,,,,,,,,,,,,,,,,,,,,,,,,,,,,,,,,,,,,,,,,,,,,,,,,,,,,,,,,,,,,,,,,,,,,,,,,,,,,,
,,,,,,5,0,5,0,1,X V Q F H G B L J M P D K C T S W R N Z,5dac841d79d2ea001600357e,22,Mężczyzna,2022-06-11_09h46.58.689,task,2021.1.4,Win32,70.57661091,6299f149e92ead563fba08ef,62a44720ef8a26acd8e10399,,,,,,,,,,,,,,,,,,,,,,,,,,,,,,,,,,,,,,,,,,,,,,,,,,,,,,,,,,,,,,,,,,,,,,,,,,,,,,,,,,,,,,,,,,,,,,,,,,,,,
,,,,,,,,,,,,5dac841d79d2ea001600357e,22,Mężczyzna,2022-06-11_09h46.58.689,task,2021.1.4,Win32,70.57661091,6299f149e92ead563fba08ef,62a44720ef8a26acd8e10399,wpwlr,"[""w"",""p"",""w"",""l"",""r""]","[0.9227000000000203,1.3068000000000097,1.7788999999999646,2.4843999999999653,2.7992000000000132,3.284700000000015]",0,WPWLGW,13,0,13,0,1,,,,,,,,,,,,,,,,,,,,,,,,,,,,,,,,,,,,,,,,,,,,,,,,,,,,,,,,,,,,,,,,,,,,,,,,,,,,,,,,,,,,,,,,,,,
,,,,,,,,,,,,5dac841d79d2ea001600357e,22,Mężczyzna,2022-06-11_09h46.58.689,task,2021.1.4,Win32,70.57661091,6299f149e92ead563fba08ef,62a44720ef8a26acd8e10399,,,,,,,,,,,space,8.6457,4,"[""4""]",1,[3.9764000000000124],[3.9764000000000124],0,0,0,4,1,Practice,5,(2x6) - 8,4,,,,,,,,,,,,,,,,,,,,,,,,,,,,,,,,,,,,,,,,,,,,,,,,,,,,,,,,,,,,,,,,,,,,,,,,,,,
,,,,,,,,,,,,5dac841d79d2ea001600357e,22,Mężczyzna,2022-06-11_09h46.58.689,task,2021.1.4,Win32,70.57661091,6299f149e92ead563fba08ef,62a44720ef8a26acd8e10399,,,,,,,,,,,,,8,"[""8""]",1,[3.173599999999965],"[3.9764000000000124,3.173599999999965]",0,1,1,8,1,Practice,9,(3x3) - 1,8,,,,,,,,,,,,,,,,,,,,,,,,,,,,,,,,,,,,,,,,,,,,,,,,,,,,,,,,,,,,,,,,,,,,,,,,,,,
,,,,,,,,,,,,5dac841d79d2ea001600357e,22,Mężczyzna,2022-06-11_09h46.58.689,task,2021.1.4,Win32,70.57661091,6299f149e92ead563fba08ef,62a44720ef8a26acd8e10399,,,,,,,,,,,,,7,"[""7""]",1,[2.5227000000000146],"[3.9764000000000124,3.173599999999965,2.5227000000000146]",0,2,2,7,1,Practice,8,(5x5) - 18,7,,,,,,,,,,,,,,,,,,,,,,,,,,,,,,,,,,,,,,,,,,,,,,,,,,,,,,,,,,,,,,,,,,,,,,,,,,,
,,,,,,,,,,,,5dac841d79d2ea001600357e,22,Mężczyzna,2022-06-11_09h46.58.689,task,2021.1.4,Win32,70.57661091,6299f149e92ead563fba08ef,62a44720ef8a26acd8e10399,,,,,,,,,,,,,1,"[""1""]",1,[2.714100000000059],"[3.9764000000000124,3.173599999999965,2.5227000000000146,2.714100000000059]",0,3,3,1,1,Practice,2,(4x4) - 15,1,,,,,,,,,,,,,,,,,,,,,,,,,,,,,,,,,,,,,,,,,,,,,,,,,,,,,,,,,,,,,,,,,,,,,,,,,,,
,,,,,,,,,,,,5dac841d79d2ea001600357e,22,Mężczyzna,2022-06-11_09h46.58.689,task,2021.1.4,Win32,70.57661091,6299f149e92ead563fba08ef,62a44720ef8a26acd8e10399,,,,,,,,,,,,,6,"[""6""]",1,[2.5424999999999898],"[3.9764000000000124,3.173599999999965,2.5227000000000146,2.714100000000059,2.5424999999999898]",0,4,4,6,1,Practice,7,(25/5) + 1,6,,,,,,,,,,,,,,,,,,,,,,,,,,,,,,,,,,,,,,,,,,,,,,,,,,,,,,,,,,,,,,,,,,,,,,,,,,,
,,,,,,,,,,,,5dac841d79d2ea001600357e,22,Mężczyzna,2022-06-11_09h46.58.689,task,2021.1.4,Win32,70.57661091,6299f149e92ead563fba08ef,62a44720ef8a26acd8e10399,,,,,,,,,,,,,9,"[""9""]",1,[3.0631999999999664],"[3.9764000000000124,3.173599999999965,2.5227000000000146,2.714100000000059,2.5424999999999898,3.0631999999999664]",0,5,5,9,1,Practice,10,(20/2) - 1,9,,,,,,,,,,,,,,,,,,,,,,,,,,,,,,,,,,,,,,,,,,,,,,,,,,,,,,,,,,,,,,,,,,,,,,,,,,,
,,,,,,,,,,,,5dac841d79d2ea001600357e,22,Mężczyzna,2022-06-11_09h46.58.689,task,2021.1.4,Win32,70.57661091,6299f149e92ead563fba08ef,62a44720ef8a26acd8e10399,,,,,,,,,,,,,3,"[""3""]",1,[2.6422000000000025],"[3.9764000000000124,3.173599999999965,2.5227000000000146,2.714100000000059,2.5424999999999898,3.0631999999999664,2.6422000000000025]",0,6,6,3,1,Practice,4,(8/4) + 1,3,,,,,,,,,,,,,,,,,,,,,,,,,,,,,,,,,,,,,,,,,,,,,,,,,,,,,,,,,,,,,,,,,,,,,,,,,,,
,,,,,,,,,,,,5dac841d79d2ea001600357e,22,Mężczyzna,2022-06-11_09h46.58.689,task,2021.1.4,Win32,70.57661091,6299f149e92ead563fba08ef,62a44720ef8a26acd8e10399,,,,,,,,,,,,,2,"[""2""]",1,[1.7582999999999913],"[3.9764000000000124,3.173599999999965,2.5227000000000146,2.714100000000059,2.5424999999999898,3.0631999999999664,2.6422000000000025,1.7582999999999913]",0,7,7,2,1,Practice,3,(4x4) - 14,2,,,,,,,,,,,,,,,,,,,,,,,,,,,,,,,,,,,,,,,,,,,,,,,,,,,,,,,,,,,,,,,,,,,,,,,,,,,
,,,,,,,,,,,,5dac841d79d2ea001600357e,22,Mężczyzna,2022-06-11_09h46.58.689,task,2021.1.4,Win32,70.57661091,6299f149e92ead563fba08ef,62a44720ef8a26acd8e10399,,,,,,,,,,,,,5,"[""5""]",1,[1.828200000000038],"[3.9764000000000124,3.173599999999965,2.5227000000000146,2.714100000000059,2.5424999999999898,3.0631999999999664,2.6422000000000025,1.7582999999999913,1.828200000000038]",0,8,8,5,1,Practice,6,(4/2) + 3,5,,,,,,,,,,,,,,,,,,,,,,,,,,,,,,,,,,,,,,,,,,,,,,,,,,,,,,,,,,,,,,,,,,,,,,,,,,,
,,,,,,,,,,,,5dac841d79d2ea001600357e,22,Mężczyzna,2022-06-11_09h46.58.689,task,2021.1.4,Win32,70.57661091,6299f149e92ead563fba08ef,62a44720ef8a26acd8e10399,,,,,,,,,,,,,0,"[""0""]",1,[2.40319999999997],"[3.9764000000000124,3.173599999999965,2.5227000000000146,2.714100000000059,2.5424999999999898,3.0631999999999664,2.6422000000000025,1.7582999999999913,1.828200000000038,2.40319999999997]",0,9,9,0,1,Practice,1,(3x3) -  9,0,,,,,,,,,,,,,,,,,,,,,,,,,,,,,,,,,,,,,,,,,,,,,,,,,,,,,,,,,,,,,,,,,,,,,,,,,,,
,,,,,,,,,,,,5dac841d79d2ea001600357e,22,Mężczyzna,2022-06-11_09h46.58.689,task,2021.1.4,Win32,70.57661091,6299f149e92ead563fba08ef,62a44720ef8a26acd8e10399,,,,,,,,,,,,,,,,,,,,,,,,,,,1,26.6244,1.77496,11.64221369,0.880992383,4.047920349,space,0.987,0,0,0,0,1,,,,,,,,,,,,,,,,,,,,,,,,,,,,,,,,,,,,,,,,,,,,,,,,,,,,,,,,,,,,,,
,,,,,,,,,,,,5dac841d79d2ea001600357e,22,Mężczyzna,2022-06-11_09h46.58.689,task,2021.1.4,Win32,70.57661091,6299f149e92ead563fba08ef,62a44720ef8a26acd8e10399,,,,,,,,,,,,,4,,,,,,,,,,Practice,5,(2x6) - 8,4,,,,,,,,,,,,,,space,24.6047,"[""4""]",1,[2.9184000000000196],1,0,0,0,4,1,,,,,,,,,,,,,,,,,,,,,,,,,,,,,,,,,,,,,,,,,,,,,,,,,,,
,,,,,,,,,,,X V Q F H G B L J M P D K C T S W R N Z,5dac841d79d2ea001600357e,22,Mężczyzna,2022-06-11_09h46.58.689,task,2021.1.4,Win32,70.57661091,6299f149e92ead563fba08ef,62a44720ef8a26acd8e10399,,,,,,,,,,,,,,,,,,,,,,,,,,,,,,,,,,,,,,,,,,,,,,,,,,,0,0,0,0,1,,,,,,,,,,,,,,,,,,,,,,,,,,,,,,,,,,,,,,,,,,,,,,
,,,,,,,,,,,,5dac841d79d2ea001600357e,22,Mężczyzna,2022-06-11_09h46.58.689,task,2021.1.4,Win32,70.57661091,6299f149e92ead563fba08ef,62a44720ef8a26acd8e10399,,,,,,,,,,,,,1,,,,,,,,,,Practice,2,(4x4) - 15,1,,,,,,,,,,,,,,,,"[""1""]",1,[3.3281000000000063],1,0,0,0,1,1,,,,,,,,,,,,,,,,,,,,,,,,,,,,,,,,,,,,,,,,,,,,,,,,,,,
,,,,,,,,,,,X V Q F H G B L J M P D K C T S W R N Z,5dac841d79d2ea001600357e,22,Mężczyzna,2022-06-11_09h46.58.689,task,2021.1.4,Win32,70.57661091,6299f149e92ead563fba08ef,62a44720ef8a26acd8e10399,,,,,,,,,,,,,,,,,,,,,,,,,,,,,,,,,,,,,,,,,,,,,,,,,,,1,0,1,0,1,,,,,,,,,,,,,,,,,,,,,,,,,,,,,,,,,,,,,,,,,,,,,,
,,,,,,,,,,,,5dac841d79d2ea001600357e,22,Mężczyzna,2022-06-11_09h46.58.689,task,2021.1.4,Win32,70.57661091,6299f149e92ead563fba08ef,62a44720ef8a26acd8e10399,,,,,,,,,,,,,,,,,,,,,,,,,,,,,,,,,,,,,,,,,,,,,,,,,,,,,,,,zk,"[""z"",""k""]",0,"[2.292599999999993,2.680999999999983,4.090800000000058]",1,0,0,0,0,1,,,,,,,,,,,,,,,,,,,,,,,,,,,,,,,,,,,,
,,,,,,,,,,,,5dac841d79d2ea001600357e,22,Mężczyzna,2022-06-11_09h46.58.689,task,2021.1.4,Win32,70.57661091,6299f149e92ead563fba08ef,62a44720ef8a26acd8e10399,,,,,,,,,,,,,3,,,,,,,,,,Practice,6,(4/2) + 3,5,,,,,,,,,,,,,,,,"[""3""]",0,[3.0063999999999282],0,0,0,0,5,1,,,,,,,,,,,,,,,,,,,,,,,,,,,,,,,,,,,,,,,,,,,,,,,,,,,
,,,,,,,,,,,,5dac841d79d2ea001600357e,22,Mężczyzna,2022-06-11_09h46.58.689,task,2021.1.4,Win32,70.57661091,6299f149e92ead563fba08ef,62a44720ef8a26acd8e10399,,,,,,,,,,,,,1,,,,,,,,,,Practice,5,(2x6) - 8,4,,,,,,,,,,,,,,,,"[""1""]",0,[2.2794000000000096],0,0,1,1,4,1,,,,,,,,,,,,,,,,,,,,,,,,,,,,,,,,,,,,,,,,,,,,,,,,,,,
,,,,,,,,,,,,5dac841d79d2ea001600357e,22,Mężczyzna,2022-06-11_09h46.58.689,task,2021.1.4,Win32,70.57661091,6299f149e92ead563fba08ef,62a44720ef8a26acd8e10399,,,,,,,,,,,,,,,,,,,,,,,Practice,9,(3x3) - 1,8,,,,,,,,,,,,,,,,,0,,0,0,2,2,8,1,,,,,,,,,,,,,,,,,,,,,,,,,,,,,,,,,,,,,,,,,,,,,,,,,,,
,,,,,,,,,,,,5dac841d79d2ea001600357e,22,Mężczyzna,2022-06-11_09h46.58.689,task,2021.1.4,Win32,70.57661091,6299f149e92ead563fba08ef,62a44720ef8a26acd8e10399,,,,,,,,,,,,,6,,,,,,,,,,Practice,7,(25/5) + 1,6,,,,,,,,,,,,,,,,"[""6""]",1,[2.0926000000000045],1,0,3,3,6,1,,,,,,,,,,,,,,,,,,,,,,,,,,,,,,,,,,,,,,,,,,,,,,,,,,,
,,,,,,,,,,,X V Q F H G B L J M P D K C T S W R N Z,5dac841d79d2ea001600357e,22,Mężczyzna,2022-06-11_09h46.58.689,task,2021.1.4,Win32,70.57661091,6299f149e92ead563fba08ef,62a44720ef8a26acd8e10399,,,,,,,,,,,,,,,,,,,,,,,,,,,,,,,,,,,,,,,,,,,,,,,,,,,0,0,0,0,1,,,,,,,,,,,,,,,,,,,,,,,,,,,,,,,,,,,,,,,,,,,,,,
,,,,,,,,,,,,5dac841d79d2ea001600357e,22,Mężczyzna,2022-06-11_09h46.58.689,task,2021.1.4,Win32,70.57661091,6299f149e92ead563fba08ef,62a44720ef8a26acd8e10399,,,,,,,,,,,,,3,,,,,,,,,,Practice,4,(8/4) + 1,3,,,,,,,,,,,,,,,,"[""3""]",1,[3.4283000000000357],1,0,0,0,3,1,,,,,,,,,,,,,,,,,,,,,,,,,,,,,,,,,,,,,,,,,,,,,,,,,,,
,,,,,,,,,,,X V Q F H G B L J M P D K C T S W R N Z,5dac841d79d2ea001600357e,22,Mężczyzna,2022-06-11_09h46.58.689,task,2021.1.4,Win32,70.57661091,6299f149e92ead563fba08ef,62a44720ef8a26acd8e10399,,,,,,,,,,,,,,,,,,,,,,,,,,,,,,,,,,,,,,,,,,,,,,,,,,,1,0,1,0,1,,,,,,,,,,,,,,,,,,,,,,,,,,,,,,,,,,,,,,,,,,,,,,
,,,,,,,,,,,,5dac841d79d2ea001600357e,22,Mężczyzna,2022-06-11_09h46.58.689,task,2021.1.4,Win32,70.57661091,6299f149e92ead563fba08ef,62a44720ef8a26acd8e10399,,,,,,,,,,,,,,,,,,,,,,,,,,,,,,,,,,,,,,,,,,,,,,,,,,,,,,,,mp,"[""m"",""p""]",0,"[0.7241000000000213,1.1120000000000232,1.799000000000035]",1,1,0,1,0,1,,,,,,,,,,,,,,,,,,,,,,,,,,,,,,,,,,,,
,,,,,,,,,,,,5dac841d79d2ea001600357e,22,Mężczyzna,2022-06-11_09h46.58.689,task,2021.1.4,Win32,70.57661091,6299f149e92ead563fba08ef,62a44720ef8a26acd8e10399,,,,,,,,,,,,,1,,,,,,,,,,Practice,2,(4x4) - 15,1,,,,,,,,,,,,,,,,"[""1""]",1,[2.2875000000000227],1,0,0,0,1,1,,,,,,,,,,,,,,,,,,,,,,,,,,,,,,,,,,,,,,,,,,,,,,,,,,,
,,,,,,,,,,,X V Q F H G B L J M P D K C T S W R N Z,5dac841d79d2ea001600357e,22,Mężczyzna,2022-06-11_09h46.58.689,task,2021.1.4,Win32,70.57661091,6299f149e92ead563fba08ef,62a44720ef8a26acd8e10399,,,,,,,,,,,,,,,,,,,,,,,,,,,,,,,,,,,,,,,,,,,,,,,,,,,0,0,0,0,1,,,,,,,,,,,,,,,,,,,,,,,,,,,,,,,,,,,,,,,,,,,,,,
,,,,,,,,,,,,5dac841d79d2ea001600357e,22,Mężczyzna,2022-06-11_09h46.58.689,task,2021.1.4,Win32,70.57661091,6299f149e92ead563fba08ef,62a44720ef8a26acd8e10399,,,,,,,,,,,,,5,,,,,,,,,,Practice,6,(4/2) + 3,5,,,,,,,,,,,,,,,,"[""5""]",1,[2.2098000000000297],1,0,0,0,5,1,,,,,,,,,,,,,,,,,,,,,,,,,,,,,,,,,,,,,,,,,,,,,,,,,,,
,,,,,,,,,,,X V Q F H G B L J M P D K C T S W R N Z,5dac841d79d2ea001600357e,22,Mężczyzna,2022-06-11_09h46.58.689,task,2021.1.4,Win32,70.57661091,6299f149e92ead563fba08ef,62a44720ef8a26acd8e10399,,,,,,,,,,,,,,,,,,,,,,,,,,,,,,,,,,,,,,,,,,,,,,,,,,,1,0,1,0,1,,,,,,,,,,,,,,,,,,,,,,,,,,,,,,,,,,,,,,,,,,,,,,
,,,,,,,,,,,,5dac841d79d2ea001600357e,22,Mężczyzna,2022-06-11_09h46.58.689,task,2021.1.4,Win32,70.57661091,6299f149e92ead563fba08ef,62a44720ef8a26acd8e10399,,,,,,,,,,,,,,,,,,,,,,,,,,,,,,,,,,,,,,,,,,,,,,,,,,,,,,,,bpd,"[""b"",""p"",""d""]",0,"[1.0427999999999429,1.3839000000000397,1.750599999999963,2.223799999999926]",0,2,0,2,0,1,,,,,,,,,,,,,,,,,,,,,,,,,,,,,,,,,,,,
,,,,,,,,,,,,5dac841d79d2ea001600357e,22,Mężczyzna,2022-06-11_09h46.58.689,task,2021.1.4,Win32,70.57661091,6299f149e92ead563fba08ef,62a44720ef8a26acd8e10399,,,,,,,,,,,,,2,,,,,,,,,,Practice,3,(4x4) - 14,2,,,,,,,,,,,,,,,,"[""2""]",1,[2.369199999999921],1,0,0,0,2,1,,,,,,,,,,,,,,,,,,,,,,,,,,,,,,,,,,,,,,,,,,,,,,,,,,,
,,,,,,,,,,,X V Q F H G B L J M P D K C T S W R N Z,5dac841d79d2ea001600357e,22,Mężczyzna,2022-06-11_09h46.58.689,task,2021.1.4,Win32,70.57661091,6299f149e92ead563fba08ef,62a44720ef8a26acd8e10399,,,,,,,,,,,,,,,,,,,,,,,,,,,,,,,,,,,,,,,,,,,,,,,,,,,0,0,0,0,1,,,,,,,,,,,,,,,,,,,,,,,,,,,,,,,,,,,,,,,,,,,,,,
,,,,,,,,,,,,5dac841d79d2ea001600357e,22,Mężczyzna,2022-06-11_09h46.58.689,task,2021.1.4,Win32,70.57661091,6299f149e92ead563fba08ef,62a44720ef8a26acd8e10399,,,,,,,,,,,,,9,,,,,,,,,,Practice,10,(20/2) - 1,9,,,,,,,,,,,,,,,,"[""9""]",1,[3.445199999999943],1,0,0,0,9,1,,,,,,,,,,,,,,,,,,,,,,,,,,,,,,,,,,,,,,,,,,,,,,,,,,,
,,,,,,,,,,,X V Q F H G B L J M P D K C T S W R N Z,5dac841d79d2ea001600357e,22,Mężczyzna,2022-06-11_09h46.58.689,task,2021.1.4,Win32,70.57661091,6299f149e92ead563fba08ef,62a44720ef8a26acd8e10399,,,,,,,,,,,,,,,,,,,,,,,,,,,,,,,,,,,,,,,,,,,,,,,,,,,1,0,1,0,1,,,,,,,,,,,,,,,,,,,,,,,,,,,,,,,,,,,,,,,,,,,,,,
,,,,,,,,,,,,5dac841d79d2ea001600357e,22,Mężczyzna,2022-06-11_09h46.58.689,task,2021.1.4,Win32,70.57661091,6299f149e92ead563fba08ef,62a44720ef8a26acd8e10399,,,,,,,,,,,,,,,,,,,,,,,,,,,,,,,,,,,,,,,,,,,,,,,,,,,,,,,,,[],0,[2.278599999999983],0,3,0,3,0,1,,,,,,,,,,,,,,,,,,,,,,,,,,,,,,,,,,,,
,,,,,,,,,,,,5dac841d79d2ea001600357e,22,Mężczyzna,2022-06-11_09h46.58.689,task,2021.1.4,Win32,70.57661091,6299f149e92ead563fba08ef,62a44720ef8a26acd8e10399,,,,,,,,,,,,,8,,,,,,,,,,Practice,9,(3x3) - 1,8,,,,,,,,,,,,,,,,"[""8""]",1,[3.208500000000015],1,0,0,0,8,1,,,,,,,,,,,,,,,,,,,,,,,,,,,,,,,,,,,,,,,,,,,,,,,,,,,
,,,,,,,,,,,X V Q F H G B L J M P D K C T S W R N Z,5dac841d79d2ea001600357e,22,Mężczyzna,2022-06-11_09h46.58.689,task,2021.1.4,Win32,70.57661091,6299f149e92ead563fba08ef,62a44720ef8a26acd8e10399,,,,,,,,,,,,,,,,,,,,,,,,,,,,,,,,,,,,,,,,,,,,,,,,,,,0,0,0,0,1,,,,,,,,,,,,,,,,,,,,,,,,,,,,,,,,,,,,,,,,,,,,,,
,,,,,,,,,,,,5dac841d79d2ea001600357e,22,Mężczyzna,2022-06-11_09h46.58.689,task,2021.1.4,Win32,70.57661091,6299f149e92ead563fba08ef,62a44720ef8a26acd8e10399,,,,,,,,,,,,,7,,,,,,,,,,Practice,8,(5x5) - 18,7,,,,,,,,,,,,,,,,"[""7""]",1,[3.3203999999998928],1,0,0,0,7,1,,,,,,,,,,,,,,,,,,,,,,,,,,,,,,,,,,,,,,,,,,,,,,,,,,,
,,,,,,,,,,,X V Q F H G B L J M P D K C T S W R N Z,5dac841d79d2ea001600357e,22,Mężczyzna,2022-06-11_09h46.58.689,task,2021.1.4,Win32,70.57661091,6299f149e92ead563fba08ef,62a44720ef8a26acd8e10399,,,,,,,,,,,,,,,,,,,,,,,,,,,,,,,,,,,,,,,,,,,,,,,,,,,1,0,1,0,1,,,,,,,,,,,,,,,,,,,,,,,,,,,,,,,,,,,,,,,,,,,,,,
,,,,,,,,,,,,5dac841d79d2ea001600357e,22,Mężczyzna,2022-06-11_09h46.58.689,task,2021.1.4,Win32,70.57661091,6299f149e92ead563fba08ef,62a44720ef8a26acd8e10399,,,,,,,,,,,,,,,,,,,,,,,,,,,,,,,,,,,,,,,,,,,,,,,,,,,,,,,,dpw,"[""d"",""p"",""w""]",0,"[2.2443000000000666,2.8162000000000944,3.0424000000000433,4.1602000000000885]",0,4,0,4,0,1,,,,,,,,,,,,,,,,,,,,,,,,,,,,,,,,,,,,
,,,,,,,,,,,,5dac841d79d2ea001600357e,22,Mężczyzna,2022-06-11_09h46.58.689,task,2021.1.4,Win32,70.57661091,6299f149e92ead563fba08ef,62a44720ef8a26acd8e10399,,,,,,,,,,,,,5,,,,,,,,,,Practice,6,(4/2) + 3,5,,,,,,,,,,,,,,,,"[""5""]",1,[3.11910000000006],1,0,0,0,5,1,,,,,,,,,,,,,,,,,,,,,,,,,,,,,,,,,,,,,,,,,,,,,,,,,,,
,,,,,,,,,,,X V Q F H G B L J M P D K C T S W R N Z,5dac841d79d2ea001600357e,22,Mężczyzna,2022-06-11_09h46.58.689,task,2021.1.4,Win32,70.57661091,6299f149e92ead563fba08ef,62a44720ef8a26acd8e10399,,,,,,,,,,,,,,,,,,,,,,,,,,,,,,,,,,,,,,,,,,,,,,,,,,,0,0,0,0,1,,,,,,,,,,,,,,,,,,,,,,,,,,,,,,,,,,,,,,,,,,,,,,
,,,,,,,,,,,,5dac841d79d2ea001600357e,22,Mężczyzna,2022-06-11_09h46.58.689,task,2021.1.4,Win32,70.57661091,6299f149e92ead563fba08ef,62a44720ef8a26acd8e10399,,,,,,,,,,,,,7,,,,,,,,,,Practice,8,(5x5) - 18,7,,,,,,,,,,,,,,,,"[""7""]",1,[3.7998999999999796],1,0,0,0,7,1,,,,,,,,,,,,,,,,,,,,,,,,,,,,,,,,,,,,,,,,,,,,,,,,,,,
,,,,,,,,,,,X V Q F H G B L J M P D K C T S W R N Z,5dac841d79d2ea001600357e,22,Mężczyzna,2022-06-11_09h46.58.689,task,2021.1.4,Win32,70.57661091,6299f149e92ead563fba08ef,62a44720ef8a26acd8e10399,,,,,,,,,,,,,,,,,,,,,,,,,,,,,,,,,,,,,,,,,,,,,,,,,,,1,0,1,0,1,,,,,,,,,,,,,,,,,,,,,,,,,,,,,,,,,,,,,,,,,,,,,,
,,,,,,,,,,,,5dac841d79d2ea001600357e,22,Mężczyzna,2022-06-11_09h46.58.689,task,2021.1.4,Win32,70.57661091,6299f149e92ead563fba08ef,62a44720ef8a26acd8e10399,,,,,,,,,,,,,,,,,,,,,,,,,,,,,,,,,,,,,,,,,,,,,,,,,,,,,,,,sk,"[""s"",""k""]",0,"[1.675299999999936,2.0149999999999864,2.431299999999908]",1,5,0,5,0,1,,,,,,,,,,,,,,,,,,,,,,,,,,,,,,,,,,,,
,,,,,,,,,,,,5dac841d79d2ea001600357e,22,Mężczyzna,2022-06-11_09h46.58.689,task,2021.1.4,Win32,70.57661091,6299f149e92ead563fba08ef,62a44720ef8a26acd8e10399,,,,,,,,,,,,,2,,,,,,,,,,Practice,3,(4x4) - 14,2,,,,,,,,,,,,,,,,"[""2""]",1,[2.119899999999916],1,0,0,0,2,1,,,,,,,,,,,,,,,,,,,,,,,,,,,,,,,,,,,,,,,,,,,,,,,,,,,
,,,,,,,,,,,X V Q F H G B L J M P D K C T S W R N Z,5dac841d79d2ea001600357e,22,Mężczyzna,2022-06-11_09h46.58.689,task,2021.1.4,Win32,70.57661091,6299f149e92ead563fba08ef,62a44720ef8a26acd8e10399,,,,,,,,,,,,,,,,,,,,,,,,,,,,,,,,,,,,,,,,,,,,,,,,,,,0,0,0,0,1,,,,,,,,,,,,,,,,,,,,,,,,,,,,,,,,,,,,,,,,,,,,,,
,,,,,,,,,,,,5dac841d79d2ea001600357e,22,Mężczyzna,2022-06-11_09h46.58.689,task,2021.1.4,Win32,70.57661091,6299f149e92ead563fba08ef,62a44720ef8a26acd8e10399,,,,,,,,,,,,,9,,,,,,,,,,Practice,10,(20/2) - 1,9,,,,,,,,,,,,,,,,"[""9""]",1,[1.7369999999999663],1,0,0,0,9,1,,,,,,,,,,,,,,,,,,,,,,,,,,,,,,,,,,,,,,,,,,,,,,,,,,,
,,,,,,,,,,,X V Q F H G B L J M P D K C T S W R N Z,5dac841d79d2ea001600357e,22,Mężczyzna,2022-06-11_09h46.58.689,task,2021.1.4,Win32,70.57661091,6299f149e92ead563fba08ef,62a44720ef8a26acd8e10399,,,,,,,,,,,,,,,,,,,,,,,,,,,,,,,,,,,,,,,,,,,,,,,,,,,1,0,1,0,1,,,,,,,,,,,,,,,,,,,,,,,,,,,,,,,,,,,,,,,,,,,,,,
,,,,,,,,,,,,5dac841d79d2ea001600357e,22,Mężczyzna,2022-06-11_09h46.58.689,task,2021.1.4,Win32,70.57661091,6299f149e92ead563fba08ef,62a44720ef8a26acd8e10399,,,,,,,,,,,,,,,,,,,,,,,,,,,,,,,,,,,,,,,,,,,,,,,,,,,,,,,,bq,"[""b"",""q""]",0,"[1.126299999999958,1.278099999999995,1.7367999999999597]",1,6,0,6,0,1,,,,,,,,,,,,,,,,,,,,,,,,,,,,,,,,,,,,
,,,,,,,,,,,,5dac841d79d2ea001600357e,22,Mężczyzna,2022-06-11_09h46.58.689,task,2021.1.4,Win32,70.57661091,6299f149e92ead563fba08ef,62a44720ef8a26acd8e10399,,,,,,,,,,,,,5,,,,,,,,,,Practice,6,(4/2) + 3,5,,,,,,,,,,,,,,,,"[""5""]",1,[1.3626999999999612],1,0,0,0,5,1,,,,,,,,,,,,,,,,,,,,,,,,,,,,,,,,,,,,,,,,,,,,,,,,,,,
,,,,,,,,,,,X V Q F H G B L J M P D K C T S W R N Z,5dac841d79d2ea001600357e,22,Mężczyzna,2022-06-11_09h46.58.689,task,2021.1.4,Win32,70.57661091,6299f149e92ead563fba08ef,62a44720ef8a26acd8e10399,,,,,,,,,,,,,,,,,,,,,,,,,,,,,,,,,,,,,,,,,,,,,,,,,,,0,0,0,0,1,,,,,,,,,,,,,,,,,,,,,,,,,,,,,,,,,,,,,,,,,,,,,,
,,,,,,,,,,,,5dac841d79d2ea001600357e,22,Mężczyzna,2022-06-11_09h46.58.689,task,2021.1.4,Win32,70.57661091,6299f149e92ead563fba08ef,62a44720ef8a26acd8e10399,,,,,,,,,,,,,6,,,,,,,,,,Practice,7,(25/5) + 1,6,,,,,,,,,,,,,,,,"[""6""]",1,[1.8969999999999914],1,0,0,0,6,1,,,,,,,,,,,,,,,,,,,,,,,,,,,,,,,,,,,,,,,,,,,,,,,,,,,
,,,,,,,,,,,X V Q F H G B L J M P D K C T S W R N Z,5dac841d79d2ea001600357e,22,Mężczyzna,2022-06-11_09h46.58.689,task,2021.1.4,Win32,70.57661091,6299f149e92ead563fba08ef,62a44720ef8a26acd8e10399,,,,,,,,,,,,,,,,,,,,,,,,,,,,,,,,,,,,,,,,,,,,,,,,,,,1,0,1,0,1,,,,,,,,,,,,,,,,,,,,,,,,,,,,,,,,,,,,,,,,,,,,,,
,,,,,,,,,,,,5dac841d79d2ea001600357e,22,Mężczyzna,2022-06-11_09h46.58.689,task,2021.1.4,Win32,70.57661091,6299f149e92ead563fba08ef,62a44720ef8a26acd8e10399,,,,,,,,,,,,,,,,,,,,,,,,,,,,,,,,,,,,,,,,,,,,,,,,,,,,,,,,bqm,"[""b"",""q"",""m""]",0,"[4.201599999999985,4.708899999999915,5.396799999999928,5.97079999999994]",0,7,0,7,0,1,,,,,,,,,,,,,,,,,,,,,,,,,,,,,,,,,,,,
,,,,,,,,,,,,5dac841d79d2ea001600357e,22,Mężczyzna,2022-06-11_09h46.58.689,task,2021.1.4,Win32,70.57661091,6299f149e92ead563fba08ef,62a44720ef8a26acd8e10399,,,,,,,,,,,,,2,,,,,,,,,,Practice,3,(4x4) - 14,2,,,,,,,,,,,,,,,,"[""2""]",1,[3.3904000000000565],1,0,0,0,2,1,,,,,,,,,,,,,,,,,,,,,,,,,,,,,,,,,,,,,,,,,,,,,,,,,,,
,,,,,,,,,,,X V Q F H G B L J M P D K C T S W R N Z,5dac841d79d2ea001600357e,22,Mężczyzna,2022-06-11_09h46.58.689,task,2021.1.4,Win32,70.57661091,6299f149e92ead563fba08ef,62a44720ef8a26acd8e10399,,,,,,,,,,,,,,,,,,,,,,,,,,,,,,,,,,,,,,,,,,,,,,,,,,,0,0,0,0,1,,,,,,,,,,,,,,,,,,,,,,,,,,,,,,,,,,,,,,,,,,,,,,
,,,,,,,,,,,,5dac841d79d2ea001600357e,22,Mężczyzna,2022-06-11_09h46.58.689,task,2021.1.4,Win32,70.57661091,6299f149e92ead563fba08ef,62a44720ef8a26acd8e10399,,,,,,,,,,,,,4,,,,,,,,,,Practice,5,(2x6) - 8,4,,,,,,,,,,,,,,,,"[""4""]",1,[2.6111000000000786],1,0,0,0,4,1,,,,,,,,,,,,,,,,,,,,,,,,,,,,,,,,,,,,,,,,,,,,,,,,,,,
,,,,,,,,,,,X V Q F H G B L J M P D K C T S W R N Z,5dac841d79d2ea001600357e,22,Mężczyzna,2022-06-11_09h46.58.689,task,2021.1.4,Win32,70.57661091,6299f149e92ead563fba08ef,62a44720ef8a26acd8e10399,,,,,,,,,,,,,,,,,,,,,,,,,,,,,,,,,,,,,,,,,,,,,,,,,,,1,0,1,0,1,,,,,,,,,,,,,,,,,,,,,,,,,,,,,,,,,,,,,,,,,,,,,,
,,,,,,,,,,,,5dac841d79d2ea001600357e,22,Mężczyzna,2022-06-11_09h46.58.689,task,2021.1.4,Win32,70.57661091,6299f149e92ead563fba08ef,62a44720ef8a26acd8e10399,,,,,,,,,,,,,,,,,,,,,,,,,,,,,,,,,,,,,,,,,,,,,,,,,,,,,,,,rf,"[""r"",""f""]",0,"[1.4177999999999997,1.5493000000000166,2.2654999999999745]",1,8,0,8,0,1,,,,,,,,,,,,,,,,,,,,,,,,,,,,,,,,,,,,
,,,,,,,,,,,,5dac841d79d2ea001600357e,22,Mężczyzna,2022-06-11_09h46.58.689,task,2021.1.4,Win32,70.57661091,6299f149e92ead563fba08ef,62a44720ef8a26acd8e10399,,,,,,,,,,,,,7,,,,,,,,,,Practice,8,(5x5) - 18,7,,,,,,,,,,,,,,,,"[""7""]",1,[1.5223000000000297],1,0,0,0,7,1,,,,,,,,,,,,,,,,,,,,,,,,,,,,,,,,,,,,,,,,,,,,,,,,,,,
,,,,,,,,,,,X V Q F H G B L J M P D K C T S W R N Z,5dac841d79d2ea001600357e,22,Mężczyzna,2022-06-11_09h46.58.689,task,2021.1.4,Win32,70.57661091,6299f149e92ead563fba08ef,62a44720ef8a26acd8e10399,,,,,,,,,,,,,,,,,,,,,,,,,,,,,,,,,,,,,,,,,,,,,,,,,,,0,0,0,0,1,,,,,,,,,,,,,,,,,,,,,,,,,,,,,,,,,,,,,,,,,,,,,,
,,,,,,,,,,,,5dac841d79d2ea001600357e,22,Mężczyzna,2022-06-11_09h46.58.689,task,2021.1.4,Win32,70.57661091,6299f149e92ead563fba08ef,62a44720ef8a26acd8e10399,,,,,,,,,,,,,8,,,,,,,,,,Practice,9,(3x3) - 1,8,,,,,,,,,,,,,,,,"[""8""]",1,[2.9313000000000784],1,0,0,0,8,1,,,,,,,,,,,,,,,,,,,,,,,,,,,,,,,,,,,,,,,,,,,,,,,,,,,
,,,,,,,,,,,X V Q F H G B L J M P D K C T S W R N Z,5dac841d79d2ea001600357e,22,Mężczyzna,2022-06-11_09h46.58.689,task,2021.1.4,Win32,70.57661091,6299f149e92ead563fba08ef,62a44720ef8a26acd8e10399,,,,,,,,,,,,,,,,,,,,,,,,,,,,,,,,,,,,,,,,,,,,,,,,,,,1,0,1,0,1,,,,,,,,,,,,,,,,,,,,,,,,,,,,,,,,,,,,,,,,,,,,,,
,,,,,,,,,,,,5dac841d79d2ea001600357e,22,Mężczyzna,2022-06-11_09h46.58.689,task,2021.1.4,Win32,70.57661091,6299f149e92ead563fba08ef,62a44720ef8a26acd8e10399,,,,,,,,,,,,,,,,,,,,,,,,,,,,,,,,,,,,,,,,,,,,,,,,,,,,,,,,rr,"[""r"",""r""]",0,"[1.2296000000001186,1.388900000000035,1.7298000000000684]",1,9,0,9,0,1,,,,,,,,,,,,,,,,,,,,,,,,,,,,,,,,,,,,
,,,,,,,,,,,,5dac841d79d2ea001600357e,22,Mężczyzna,2022-06-11_09h46.58.689,task,2021.1.4,Win32,70.57661091,6299f149e92ead563fba08ef,62a44720ef8a26acd8e10399,,,,,,,,,,,,,5,,,,,,,,,,Practice,6,(4/2) + 3,5,,,,,,,,,,,,,,,,"[""5""]",1,[1.704499999999996],1,0,0,0,5,1,,,,,,,,,,,,,,,,,,,,,,,,,,,,,,,,,,,,,,,,,,,,,,,,,,,
,,,,,,,,,,,X V Q F H G B L J M P D K C T S W R N Z,5dac841d79d2ea001600357e,22,Mężczyzna,2022-06-11_09h46.58.689,task,2021.1.4,Win32,70.57661091,6299f149e92ead563fba08ef,62a44720ef8a26acd8e10399,,,,,,,,,,,,,,,,,,,,,,,,,,,,,,,,,,,,,,,,,,,,,,,,,,,0,0,0,0,1,,,,,,,,,,,,,,,,,,,,,,,,,,,,,,,,,,,,,,,,,,,,,,
,,,,,,,,,,,,5dac841d79d2ea001600357e,22,Mężczyzna,2022-06-11_09h46.58.689,task,2021.1.4,Win32,70.57661091,6299f149e92ead563fba08ef,62a44720ef8a26acd8e10399,,,,,,,,,,,,,6,,,,,,,,,,Practice,7,(25/5) + 1,6,,,,,,,,,,,,,,,,"[""6""]",1,[2.6335000000000264],1,0,0,0,6,1,,,,,,,,,,,,,,,,,,,,,,,,,,,,,,,,,,,,,,,,,,,,,,,,,,,
,,,,,,,,,,,X V Q F H G B L J M P D K C T S W R N Z,5dac841d79d2ea001600357e,22,Mężczyzna,2022-06-11_09h46.58.689,task,2021.1.4,Win32,70.57661091,6299f149e92ead563fba08ef,62a44720ef8a26acd8e10399,,,,,,,,,,,,,,,,,,,,,,,,,,,,,,,,,,,,,,,,,,,,,,,,,,,1,0,1,0,1,,,,,,,,,,,,,,,,,,,,,,,,,,,,,,,,,,,,,,,,,,,,,,
,,,,,,,,,,,,5dac841d79d2ea001600357e,22,Mężczyzna,2022-06-11_09h46.58.689,task,2021.1.4,Win32,70.57661091,6299f149e92ead563fba08ef,62a44720ef8a26acd8e10399,,,,,,,,,,,,,,,,,,,,,,,,,,,,,,,,,,,,,,,,,,,,,,,,,,,,,,,,hj,"[""h"",""j""]",0,"[1.147700000000043,1.2582000000000448,1.5564999999999714]",1,10,0,10,0,1,,,,,,,,,,,,,,,,,,,,,,,,,,,,,,,,,,,,
,,,,,,,,,,,,5dac841d79d2ea001600357e,22,Mężczyzna,2022-06-11_09h46.58.689,task,2021.1.4,Win32,70.57661091,6299f149e92ead563fba08ef,62a44720ef8a26acd8e10399,,,,,,,,,,,,,,,,,,,,,,,Task,25,(10/5) - 2,0,,,,,,,,,,,,,,,,,,,0,,,,,,,,,,,,,,,,,,,,,space,80.3115,,0,0,0,0,24,1,,,,,,,,,,,,,,,,,,,,,,,,,,,
,,,,,,,,,,,,5dac841d79d2ea001600357e,22,Mężczyzna,2022-06-11_09h46.58.689,task,2021.1.4,Win32,70.57661091,6299f149e92ead563fba08ef,62a44720ef8a26acd8e10399,,,,,,,,,,,,,0,,,,,,,,,,Task,33,(1/1) - 1,0,,,,,,,,,,,,,,,,,,,1,,,,,,,,,,,,,,,,,,,,,,,"[""0""]",1,0,1,1,32,1,[1.417699999999968],,,,,,,,,,,,,,,,,,,,,,,,,,
,,,,,,,,,,,X V Q F H G B L J M P D K C T S W R N Z,5dac841d79d2ea001600357e,22,Mężczyzna,2022-06-11_09h46.58.689,task,2021.1.4,Win32,70.57661091,6299f149e92ead563fba08ef,62a44720ef8a26acd8e10399,,,,,,,,,,,,,,,,,,,,,,,,,,,,,,,,,,,,,,,,,,,,,,,,,,,,,,,,,,,,,,,,,,,,,,,,,,,,0,0,0,0,1,,,,,,,,,,,,,,,,,,,,,
,,,,,,,,,,,,5dac841d79d2ea001600357e,22,Mężczyzna,2022-06-11_09h46.58.689,task,2021.1.4,Win32,70.57661091,6299f149e92ead563fba08ef,62a44720ef8a26acd8e10399,,,,,,,,,,,,,3,,,,,,,,,,Task,3,(2x3) - 3,3,,,,,,,,,,,,,,,,,,,1,,,,,,,,,,,,,,,,,,,,,,,"[""3""]",1,0,0,0,2,1,[2.973100000000045],,,,,,,,,,,,,,,,,,,,,,,,,,
,,,,,,,,,,,X V Q F H G B L J M P D K C T S W R N Z,5dac841d79d2ea001600357e,22,Mężczyzna,2022-06-11_09h46.58.689,task,2021.1.4,Win32,70.57661091,6299f149e92ead563fba08ef,62a44720ef8a26acd8e10399,,,,,,,,,,,,,,,,,,,,,,,,,,,,,,,,,,,,,,,,,,,,,,,,,,,,,,,,,,,,,,,,,,,,,,,,,,,,1,0,1,0,1,,,,,,,,,,,,,,,,,,,,,
,,,,,,,,,,,,5dac841d79d2ea001600357e,22,Mężczyzna,2022-06-11_09h46.58.689,task,2021.1.4,Win32,70.57661091,6299f149e92ead563fba08ef,62a44720ef8a26acd8e10399,,,,,,,,,,,,,,,,,,,,,,,,,,,,,,,,,,,,,,,,,,,,,,,,,,,,,,,,,,,,,,,,,,,,,,,,,,,,,,,,,zz,"[""z"",""z""]",0,"[0.9733999999999696,1.2227000000000317,1.4173999999999296]",1,ZZ,0,0,0,0,1,,,,,,,,,,
,,,,,,,,,,,,5dac841d79d2ea001600357e,22,Mężczyzna,2022-06-11_09h46.58.689,task,2021.1.4,Win32,70.57661091,6299f149e92ead563fba08ef,62a44720ef8a26acd8e10399,,,,,,,,,,,,,7,,,,,,,,,,Task,6,(12/2) + 1,7,,,,,,,,,,,,,,,,,,,1,,,,,,,,,,,,,,,,,,,,,,,"[""7""]",1,0,0,0,5,1,[3.5147000000001754],,,,,,,,,,,,,,,,,,,,,,,,,,
,,,,,,,,,,,X V Q F H G B L J M P D K C T S W R N Z,5dac841d79d2ea001600357e,22,Mężczyzna,2022-06-11_09h46.58.689,task,2021.1.4,Win32,70.57661091,6299f149e92ead563fba08ef,62a44720ef8a26acd8e10399,,,,,,,,,,,,,,,,,,,,,,,,,,,,,,,,,,,,,,,,,,,,,,,,,,,,,,,,,,,,,,,,,,,,,,,,,,,,0,0,0,0,1,,,,,,,,,,,,,,,,,,,,,
,,,,,,,,,,,,5dac841d79d2ea001600357e,22,Mężczyzna,2022-06-11_09h46.58.689,task,2021.1.4,Win32,70.57661091,6299f149e92ead563fba08ef,62a44720ef8a26acd8e10399,,,,,,,,,,,,,2,,,,,,,,,,Task,27,(3/3) + 2,3,,,,,,,,,,,,,,,,,,,0,,,,,,,,,,,,,,,,,,,,,,,"[""2""]",0,0,0,0,26,1,[4.008500000000026],,,,,,,,,,,,,,,,,,,,,,,,,,
,,,,,,,,,,,,5dac841d79d2ea001600357e,22,Mężczyzna,2022-06-11_09h46.58.689,task,2021.1.4,Win32,70.57661091,6299f149e92ead563fba08ef,62a44720ef8a26acd8e10399,,,,,,,,,,,,,1,,,,,,,,,,Task,18,(16/4) - 3,1,,,,,,,,,,,,,,,,,,,1,,,,,,,,,,,,,,,,,,,,,,,"[""1""]",1,0,1,1,17,1,[2.140100000000075],,,,,,,,,,,,,,,,,,,,,,,,,,
,,,,,,,,,,,X V Q F H G B L J M P D K C T S W R N Z,5dac841d79d2ea001600357e,22,Mężczyzna,2022-06-11_09h46.58.689,task,2021.1.4,Win32,70.57661091,6299f149e92ead563fba08ef,62a44720ef8a26acd8e10399,,,,,,,,,,,,,,,,,,,,,,,,,,,,,,,,,,,,,,,,,,,,,,,,,,,,,,,,,,,,,,,,,,,,,,,,,,,,1,0,1,0,1,,,,,,,,,,,,,,,,,,,,,
,,,,,,,,,,,,5dac841d79d2ea001600357e,22,Mężczyzna,2022-06-11_09h46.58.689,task,2021.1.4,Win32,70.57661091,6299f149e92ead563fba08ef,62a44720ef8a26acd8e10399,,,,,,,,,,,,,6,,,,,,,,,,Task,13,(3x4) - 6,6,,,,,,,,,,,,,,,,,,,1,,,,,,,,,,,,,,,,,,,,,,,"[""6""]",1,0,0,0,12,1,[3.2829000000000406],,,,,,,,,,,,,,,,,,,,,,,,,,
,,,,,,,,,,,X V Q F H G B L J M P D K C T S W R N Z,5dac841d79d2ea001600357e,22,Mężczyzna,2022-06-11_09h46.58.689,task,2021.1.4,Win32,70.57661091,6299f149e92ead563fba08ef,62a44720ef8a26acd8e10399,,,,,,,,,,,,,,,,,,,,,,,,,,,,,,,,,,,,,,,,,,,,,,,,,,,,,,,,,,,,,,,,,,,,,,,,,,,,2,0,2,0,1,,,,,,,,,,,,,,,,,,,,,
,,,,,,,,,,,,5dac841d79d2ea001600357e,22,Mężczyzna,2022-06-11_09h46.58.689,task,2021.1.4,Win32,70.57661091,6299f149e92ead563fba08ef,62a44720ef8a26acd8e10399,,,,,,,,,,,,,,,,,,,,,,,,,,,,,,,,,,,,,,,,,,,,,,,,,,,,,,,,,,,,,,,,,,,,,,,,,,,,,,,,,zcg,"[""z"",""c"",""g""]",0,"[1.322400000000016,1.9582000000000335,2.38919999999996,2.72930000000008]",0,GCG,1,0,1,0,1,,,,,,,,,,
,,,,,,,,,,,,5dac841d79d2ea001600357e,22,Mężczyzna,2022-06-11_09h46.58.689,task,2021.1.4,Win32,70.57661091,6299f149e92ead563fba08ef,62a44720ef8a26acd8e10399,,,,,,,,,,,,,1,,,,,,,,,,Task,18,(16/4) - 3,1,,,,,,,,,,,,,,,,,,,1,,,,,,,,,,,,,,,,,,,,,,,"[""1""]",1,0,0,0,17,1,[3.432600000000093],,,,,,,,,,,,,,,,,,,,,,,,,,
,,,,,,,,,,,X V Q F H G B L J M P D K C T S W R N Z,5dac841d79d2ea001600357e,22,Mężczyzna,2022-06-11_09h46.58.689,task,2021.1.4,Win32,70.57661091,6299f149e92ead563fba08ef,62a44720ef8a26acd8e10399,,,,,,,,,,,,,,,,,,,,,,,,,,,,,,,,,,,,,,,,,,,,,,,,,,,,,,,,,,,,,,,,,,,,,,,,,,,,0,0,0,0,1,,,,,,,,,,,,,,,,,,,,,
,,,,,,,,,,,,5dac841d79d2ea001600357e,22,Mężczyzna,2022-06-11_09h46.58.689,task,2021.1.4,Win32,70.57661091,6299f149e92ead563fba08ef,62a44720ef8a26acd8e10399,,,,,,,,,,,,,3,,,,,,,,,,Task,27,(3/3) + 2,3,,,,,,,,,,,,,,,,,,,1,,,,,,,,,,,,,,,,,,,,,,,"[""3""]",1,0,0,0,26,1,[2.214999999999918],,,,,,,,,,,,,,,,,,,,,,,,,,
,,,,,,,,,,,X V Q F H G B L J M P D K C T S W R N Z,5dac841d79d2ea001600357e,22,Mężczyzna,2022-06-11_09h46.58.689,task,2021.1.4,Win32,70.57661091,6299f149e92ead563fba08ef,62a44720ef8a26acd8e10399,,,,,,,,,,,,,,,,,,,,,,,,,,,,,,,,,,,,,,,,,,,,,,,,,,,,,,,,,,,,,,,,,,,,,,,,,,,,1,0,1,0,1,,,,,,,,,,,,,,,,,,,,,
,,,,,,,,,,,,5dac841d79d2ea001600357e,22,Mężczyzna,2022-06-11_09h46.58.689,task,2021.1.4,Win32,70.57661091,6299f149e92ead563fba08ef,62a44720ef8a26acd8e10399,,,,,,,,,,,,,3,,,,,,,,,,Task,3,(2x3) - 3,3,,,,,,,,,,,,,,,,,,,1,,,,,,,,,,,,,,,,,,,,,,,"[""3""]",1,0,0,0,2,1,[2.7596999999999525],,,,,,,,,,,,,,,,,,,,,,,,,,
,,,,,,,,,,,X V Q F H G B L J M P D K C T S W R N Z,5dac841d79d2ea001600357e,22,Mężczyzna,2022-06-11_09h46.58.689,task,2021.1.4,Win32,70.57661091,6299f149e92ead563fba08ef,62a44720ef8a26acd8e10399,,,,,,,,,,,,,,,,,,,,,,,,,,,,,,,,,,,,,,,,,,,,,,,,,,,,,,,,,,,,,,,,,,,,,,,,,,,,2,0,2,0,1,,,,,,,,,,,,,,,,,,,,,
,,,,,,,,,,,,5dac841d79d2ea001600357e,22,Mężczyzna,2022-06-11_09h46.58.689,task,2021.1.4,Win32,70.57661091,6299f149e92ead563fba08ef,62a44720ef8a26acd8e10399,,,,,,,,,,,,,,,,,,,,,,,,,,,,,,,,,,,,,,,,,,,,,,,,,,,,,,,,,,,,,,,,,,,,,,,,,,,,,,,,,wbt,"[""w"",""b"",""t""]",0,"[1.1053000000000566,1.4315000000000282,1.6744000000002188,2.2366000000001804]",1,WBT,2,0,2,0,1,,,,,,,,,,
,,,,,,,,,,,,5dac841d79d2ea001600357e,22,Mężczyzna,2022-06-11_09h46.58.689,task,2021.1.4,Win32,70.57661091,6299f149e92ead563fba08ef,62a44720ef8a26acd8e10399,,,,,,,,,,,,,,,,,,,,,,,Task,7,(3x7) - 12,9,,,,,,,,,,,,,,,,,,,0,,,,,,,,,,,,,,,,,,,,,,,,0,0,0,0,6,1,,,,,,,,,,,,,,,,,,,,,,,,,,,
,,,,,,,,,,,,5dac841d79d2ea001600357e,22,Mężczyzna,2022-06-11_09h46.58.689,task,2021.1.4,Win32,70.57661091,6299f149e92ead563fba08ef,62a44720ef8a26acd8e10399,,,,,,,,,,,,,8,,,,,,,,,,Task,15,(3x7) - 13,8,,,,,,,,,,,,,,,,,,,1,,,,,,,,,,,,,,,,,,,,,,,"[""8""]",1,0,1,1,14,1,[2.1991000000001577],,,,,,,,,,,,,,,,,,,,,,,,,,
,,,,,,,,,,,X V Q F H G B L J M P D K C T S W R N Z,5dac841d79d2ea001600357e,22,Mężczyzna,2022-06-11_09h46.58.689,task,2021.1.4,Win32,70.57661091,6299f149e92ead563fba08ef,62a44720ef8a26acd8e10399,,,,,,,,,,,,,,,,,,,,,,,,,,,,,,,,,,,,,,,,,,,,,,,,,,,,,,,,,,,,,,,,,,,,,,,,,,,,0,0,0,0,1,,,,,,,,,,,,,,,,,,,,,
,,,,,,,,,,,,5dac841d79d2ea001600357e,22,Mężczyzna,2022-06-11_09h46.58.689,task,2021.1.4,Win32,70.57661091,6299f149e92ead563fba08ef,62a44720ef8a26acd8e10399,,,,,,,,,,,,,,,,,,,,,,,Task,29,(3x8) - 19 ,5,,,,,,,,,,,,,,,,,,,0,,,,,,,,,,,,,,,,,,,,,,,,0,0,0,0,28,1,,,,,,,,,,,,,,,,,,,,,,,,,,,
,,,,,,,,,,,,5dac841d79d2ea001600357e,22,Mężczyzna,2022-06-11_09h46.58.689,task,2021.1.4,Win32,70.57661091,6299f149e92ead563fba08ef,62a44720ef8a26acd8e10399,,,,,,,,,,,,,,,,,,,,,,,Task,14,(2x2) + 3,7,,,,,,,,,,,,,,,,,,,0,,,,,,,,,,,,,,,,,,,,,,,,0,0,1,1,13,1,,,,,,,,,,,,,,,,,,,,,,,,,,,
,,,,,,,,,,,,5dac841d79d2ea001600357e,22,Mężczyzna,2022-06-11_09h46.58.689,task,2021.1.4,Win32,70.57661091,6299f149e92ead563fba08ef,62a44720ef8a26acd8e10399,,,,,,,,,,,,,,,,,,,,,,,Task,7,(3x7) - 12,9,,,,,,,,,,,,,,,,,,,0,,,,,,,,,,,,,,,,,,,,,,,,0,0,2,2,6,1,,,,,,,,,,,,,,,,,,,,,,,,,,,
,,,,,,,,,,,,5dac841d79d2ea001600357e,22,Mężczyzna,2022-06-11_09h46.58.689,task,2021.1.4,Win32,70.57661091,6299f149e92ead563fba08ef,62a44720ef8a26acd8e10399,,,,,,,,,,,,,,,,,,,,,,,Task,23,(2x3) + 2,8,,,,,,,,,,,,,,,,,,,0,,,,,,,,,,,,,,,,,,,,,,,,0,0,3,3,22,1,,,,,,,,,,,,,,,,,,,,,,,,,,,
,,,,,,,,,,,,5dac841d79d2ea001600357e,22,Mężczyzna,2022-06-11_09h46.58.689,task,2021.1.4,Win32,70.57661091,6299f149e92ead563fba08ef,62a44720ef8a26acd8e10399,,,,,,,,,,,,,2,,,,,,,,,,Task,2,(2x2) - 2,2,,,,,,,,,,,,,,,,,,,1,,,,,,,,,,,,,,,,,,,,,,,"[""2""]",1,0,4,4,1,1,[3.00669999999991],,,,,,,,,,,,,,,,,,,,,,,,,,
,,,,,,,,,,,X V Q F H G B L J M P D K C T S W R N Z,5dac841d79d2ea001600357e,22,Mężczyzna,2022-06-11_09h46.58.689,task,2021.1.4,Win32,70.57661091,6299f149e92ead563fba08ef,62a44720ef8a26acd8e10399,,,,,,,,,,,,,,,,,,,,,,,,,,,,,,,,,,,,,,,,,,,,,,,,,,,,,,,,,,,,,,,,,,,,,,,,,,,,1,0,1,0,1,,,,,,,,,,,,,,,,,,,,,
,,,,,,,,,,,,5dac841d79d2ea001600357e,22,Mężczyzna,2022-06-11_09h46.58.689,task,2021.1.4,Win32,70.57661091,6299f149e92ead563fba08ef,62a44720ef8a26acd8e10399,,,,,,,,,,,,,9,,,,,,,,,,Task,40,(7x2) - 5,9,,,,,,,,,,,,,,,,,,,1,,,,,,,,,,,,,,,,,,,,,,,"[""9""]",1,0,0,0,39,1,[2.72950000000003],,,,,,,,,,,,,,,,,,,,,,,,,,
,,,,,,,,,,,X V Q F H G B L J M P D K C T S W R N Z,5dac841d79d2ea001600357e,22,Mężczyzna,2022-06-11_09h46.58.689,task,2021.1.4,Win32,70.57661091,6299f149e92ead563fba08ef,62a44720ef8a26acd8e10399,,,,,,,,,,,,,,,,,,,,,,,,,,,,,,,,,,,,,,,,,,,,,,,,,,,,,,,,,,,,,,,,,,,,,,,,,,,,2,0,2,0,1,,,,,,,,,,,,,,,,,,,,,
,,,,,,,,,,,,5dac841d79d2ea001600357e,22,Mężczyzna,2022-06-11_09h46.58.689,task,2021.1.4,Win32,70.57661091,6299f149e92ead563fba08ef,62a44720ef8a26acd8e10399,,,,,,,,,,,,,7,,,,,,,,,,Task,36,(8/4) + 3,5,,,,,,,,,,,,,,,,,,,0,,,,,,,,,,,,,,,,,,,,,,,"[""7""]",0,0,0,0,35,1,[2.2610999999998285],,,,,,,,,,,,,,,,,,,,,,,,,,
,,,,,,,,,,,,5dac841d79d2ea001600357e,22,Mężczyzna,2022-06-11_09h46.58.689,task,2021.1.4,Win32,70.57661091,6299f149e92ead563fba08ef,62a44720ef8a26acd8e10399,,,,,,,,,,,,,1,,,,,,,,,,Task,18,(16/4) - 3,1,,,,,,,,,,,,,,,,,,,1,,,,,,,,,,,,,,,,,,,,,,,"[""1""]",1,0,1,1,17,1,[2.930099999999811],,,,,,,,,,,,,,,,,,,,,,,,,,
,,,,,,,,,,,X V Q F H G B L J M P D K C T S W R N Z,5dac841d79d2ea001600357e,22,Mężczyzna,2022-06-11_09h46.58.689,task,2021.1.4,Win32,70.57661091,6299f149e92ead563fba08ef,62a44720ef8a26acd8e10399,,,,,,,,,,,,,,,,,,,,,,,,,,,,,,,,,,,,,,,,,,,,,,,,,,,,,,,,,,,,,,,,,,,,,,,,,,,,3,0,3,0,1,,,,,,,,,,,,,,,,,,,,,
,,,,,,,,,,,,5dac841d79d2ea001600357e,22,Mężczyzna,2022-06-11_09h46.58.689,task,2021.1.4,Win32,70.57661091,6299f149e92ead563fba08ef,62a44720ef8a26acd8e10399,,,,,,,,,,,,,,,,,,,,,,,,,,,,,,,,,,,,,,,,,,,,,,,,,,,,,,,,,,,,,,,,,,,,,,,,,,,,,,,,,svdl,"[""s"",""v"",""d"",""l""]",0,"[1.1965000000000146,1.7373000000001184,2.125900000000229,2.3552000000001954,2.6743000000001302]",1,SVDL,3,0,3,0,1,,,,,,,,,,
,,,,,,,,,,,,5dac841d79d2ea001600357e,22,Mężczyzna,2022-06-11_09h46.58.689,task,2021.1.4,Win32,70.57661091,6299f149e92ead563fba08ef,62a44720ef8a26acd8e10399,,,,,,,,,,,,,1,,,,,,,,,,Task,34,(9/3) - 2,1,,,,,,,,,,,,,,,,,,,1,,,,,,,,,,,,,,,,,,,,,,,"[""1""]",1,0,0,0,33,1,[1.717300000000023],,,,,,,,,,,,,,,,,,,,,,,,,,
,,,,,,,,,,,X V Q F H G B L J M P D K C T S W R N Z,5dac841d79d2ea001600357e,22,Mężczyzna,2022-06-11_09h46.58.689,task,2021.1.4,Win32,70.57661091,6299f149e92ead563fba08ef,62a44720ef8a26acd8e10399,,,,,,,,,,,,,,,,,,,,,,,,,,,,,,,,,,,,,,,,,,,,,,,,,,,,,,,,,,,,,,,,,,,,,,,,,,,,0,0,0,0,1,,,,,,,,,,,,,,,,,,,,,
,,,,,,,,,,,,5dac841d79d2ea001600357e,22,Mężczyzna,2022-06-11_09h46.58.689,task,2021.1.4,Win32,70.57661091,6299f149e92ead563fba08ef,62a44720ef8a26acd8e10399,,,,,,,,,,,,,3,,,,,,,,,,Task,35,(1x2) + 1,3,,,,,,,,,,,,,,,,,,,1,,,,,,,,,,,,,,,,,,,,,,,"[""3""]",1,0,0,0,34,1,[2.0495999999999412],,,,,,,,,,,,,,,,,,,,,,,,,,
,,,,,,,,,,,X V Q F H G B L J M P D K C T S W R N Z,5dac841d79d2ea001600357e,22,Mężczyzna,2022-06-11_09h46.58.689,task,2021.1.4,Win32,70.57661091,6299f149e92ead563fba08ef,62a44720ef8a26acd8e10399,,,,,,,,,,,,,,,,,,,,,,,,,,,,,,,,,,,,,,,,,,,,,,,,,,,,,,,,,,,,,,,,,,,,,,,,,,,,1,0,1,0,1,,,,,,,,,,,,,,,,,,,,,
,,,,,,,,,,,,5dac841d79d2ea001600357e,22,Mężczyzna,2022-06-11_09h46.58.689,task,2021.1.4,Win32,70.57661091,6299f149e92ead563fba08ef,62a44720ef8a26acd8e10399,,,,,,,,,,,,,9,,,,,,,,,,Task,24,(2x2) + 5,9,,,,,,,,,,,,,,,,,,,1,,,,,,,,,,,,,,,,,,,,,,,"[""9""]",1,0,0,0,23,1,[3.7596000000000913],,,,,,,,,,,,,,,,,,,,,,,,,,
,,,,,,,,,,,X V Q F H G B L J M P D K C T S W R N Z,5dac841d79d2ea001600357e,22,Mężczyzna,2022-06-11_09h46.58.689,task,2021.1.4,Win32,70.57661091,6299f149e92ead563fba08ef,62a44720ef8a26acd8e10399,,,,,,,,,,,,,,,,,,,,,,,,,,,,,,,,,,,,,,,,,,,,,,,,,,,,,,,,,,,,,,,,,,,,,,,,,,,,2,0,2,0,1,,,,,,,,,,,,,,,,,,,,,
,,,,,,,,,,,,5dac841d79d2ea001600357e,22,Mężczyzna,2022-06-11_09h46.58.689,task,2021.1.4,Win32,70.57661091,6299f149e92ead563fba08ef,62a44720ef8a26acd8e10399,,,,,,,,,,,,,8,,,,,,,,,,Task,39,(5x3) - 7,8,,,,,,,,,,,,,,,,,,,1,,,,,,,,,,,,,,,,,,,,,,,"[""8""]",1,0,0,0,38,1,[3.133199999999988],,,,,,,,,,,,,,,,,,,,,,,,,,
,,,,,,,,,,,X V Q F H G B L J M P D K C T S W R N Z,5dac841d79d2ea001600357e,22,Mężczyzna,2022-06-11_09h46.58.689,task,2021.1.4,Win32,70.57661091,6299f149e92ead563fba08ef,62a44720ef8a26acd8e10399,,,,,,,,,,,,,,,,,,,,,,,,,,,,,,,,,,,,,,,,,,,,,,,,,,,,,,,,,,,,,,,,,,,,,,,,,,,,3,0,3,0,1,,,,,,,,,,,,,,,,,,,,,
,,,,,,,,,,,,5dac841d79d2ea001600357e,22,Mężczyzna,2022-06-11_09h46.58.689,task,2021.1.4,Win32,70.57661091,6299f149e92ead563fba08ef,62a44720ef8a26acd8e10399,,,,,,,,,,,,,9,,,,,,,,,,Task,40,(7x2) - 5,9,,,,,,,,,,,,,,,,,,,1,,,,,,,,,,,,,,,,,,,,,,,"[""9""]",1,0,0,0,39,1,[3.091699999999946],,,,,,,,,,,,,,,,,,,,,,,,,,
,,,,,,,,,,,X V Q F H G B L J M P D K C T S W R N Z,5dac841d79d2ea001600357e,22,Mężczyzna,2022-06-11_09h46.58.689,task,2021.1.4,Win32,70.57661091,6299f149e92ead563fba08ef,62a44720ef8a26acd8e10399,,,,,,,,,,,,,,,,,,,,,,,,,,,,,,,,,,,,,,,,,,,,,,,,,,,,,,,,,,,,,,,,,,,,,,,,,,,,4,0,4,0,1,,,,,,,,,,,,,,,,,,,,,
,,,,,,,,,,,,5dac841d79d2ea001600357e,22,Mężczyzna,2022-06-11_09h46.58.689,task,2021.1.4,Win32,70.57661091,6299f149e92ead563fba08ef,62a44720ef8a26acd8e10399,,,,,,,,,,,,,,,,,,,,,,,,,,,,,,,,,,,,,,,,,,,,,,,,,,,,,,,,,,,,,,,,,,,,,,,,,,,,,,,,,dfckx,"[""d"",""f"",""c"",""k"",""x""]",0,"[1.5633999999998878,1.8275999999998476,2.4385999999998376,2.70169999999996,3.091699999999946,28.162300000000073]",1,DFCKX,4,0,4,0,1,,,,,,,,,,
,,,,,,,,,,,,5dac841d79d2ea001600357e,22,Mężczyzna,2022-06-11_09h46.58.689,task,2021.1.4,Win32,70.57661091,6299f149e92ead563fba08ef,62a44720ef8a26acd8e10399,,,,,,,,,,,,,3,,,,,,,,,,Task,26,(2x9) - 16,2,,,,,,,,,,,,,,,,,,,0,,,,,,,,,,,,,,,,,,,,,,,"[""3""]",0,0,0,0,25,1,[2.58420000000001],,,,,,,,,,,,,,,,,,,,,,,,,,
,,,,,,,,,,,,5dac841d79d2ea001600357e,22,Mężczyzna,2022-06-11_09h46.58.689,task,2021.1.4,Win32,70.57661091,6299f149e92ead563fba08ef,62a44720ef8a26acd8e10399,,,,,,,,,,,,,1,,,,,,,,,,Task,9,(3x7) - 20,1,,,,,,,,,,,,,,,,,,,1,,,,,,,,,,,,,,,,,,,,,,,"[""1""]",1,0,1,1,8,1,[3.293900000000235],,,,,,,,,,,,,,,,,,,,,,,,,,
,,,,,,,,,,,X V Q F H G B L J M P D K C T S W R N Z,5dac841d79d2ea001600357e,22,Mężczyzna,2022-06-11_09h46.58.689,task,2021.1.4,Win32,70.57661091,6299f149e92ead563fba08ef,62a44720ef8a26acd8e10399,,,,,,,,,,,,,,,,,,,,,,,,,,,,,,,,,,,,,,,,,,,,,,,,,,,,,,,,,,,,,,,,,,,,,,,,,,,,0,0,0,0,1,,,,,,,,,,,,,,,,,,,,,
,,,,,,,,,,,,5dac841d79d2ea001600357e,22,Mężczyzna,2022-06-11_09h46.58.689,task,2021.1.4,Win32,70.57661091,6299f149e92ead563fba08ef,62a44720ef8a26acd8e10399,,,,,,,,,,,,,6,,,,,,,,,,Task,36,(8/4) + 3,5,,,,,,,,,,,,,,,,,,,0,,,,,,,,,,,,,,,,,,,,,,,"[""6""]",0,0,0,0,35,1,[3.458500000000072],,,,,,,,,,,,,,,,,,,,,,,,,,
,,,,,,,,,,,,5dac841d79d2ea001600357e,22,Mężczyzna,2022-06-11_09h46.58.689,task,2021.1.4,Win32,70.57661091,6299f149e92ead563fba08ef,62a44720ef8a26acd8e10399,,,,,,,,,,,,,2,,,,,,,,,,Task,25,(10/5) - 2,0,,,,,,,,,,,,,,,,,,,0,,,,,,,,,,,,,,,,,,,,,,,"[""2""]",0,0,1,1,24,1,[3.030300000000125],,,,,,,,,,,,,,,,,,,,,,,,,,
,,,,,,,,,,,,5dac841d79d2ea001600357e,22,Mężczyzna,2022-06-11_09h46.58.689,task,2021.1.4,Win32,70.57661091,6299f149e92ead563fba08ef,62a44720ef8a26acd8e10399,,,,,,,,,,,,,3,,,,,,,,,,Task,16,(3x8) - 15,9,,,,,,,,,,,,,,,,,,,0,,,,,,,,,,,,,,,,,,,,,,,"[""3""]",0,0,2,2,15,1,[2.6470999999999094],,,,,,,,,,,,,,,,,,,,,,,,,,
,,,,,,,,,,,,5dac841d79d2ea001600357e,22,Mężczyzna,2022-06-11_09h46.58.689,task,2021.1.4,Win32,70.57661091,6299f149e92ead563fba08ef,62a44720ef8a26acd8e10399,,,,,,,,,,,,,,,,,,,,,,,Task,40,(7x2) - 5,9,,,,,,,,,,,,,,,,,,,0,,,,,,,,,,,,,,,,,,,,,,,,0,0,3,3,39,1,,,,,,,,,,,,,,,,,,,,,,,,,,,
,,,,,,,,,,,,5dac841d79d2ea001600357e,22,Mężczyzna,2022-06-11_09h46.58.689,task,2021.1.4,Win32,70.57661091,6299f149e92ead563fba08ef,62a44720ef8a26acd8e10399,,,,,,,,,,,,,3,,,,,,,,,,Task,20,(18/9) + 1,3,,,,,,,,,,,,,,,,,,,1,,,,,,,,,,,,,,,,,,,,,,,"[""3""]",1,0,4,4,19,1,[1.7023000000000366],,,,,,,,,,,,,,,,,,,,,,,,,,
,,,,,,,,,,,X V Q F H G B L J M P D K C T S W R N Z,5dac841d79d2ea001600357e,22,Mężczyzna,2022-06-11_09h46.58.689,task,2021.1.4,Win32,70.57661091,6299f149e92ead563fba08ef,62a44720ef8a26acd8e10399,,,,,,,,,,,,,,,,,,,,,,,,,,,,,,,,,,,,,,,,,,,,,,,,,,,,,,,,,,,,,,,,,,,,,,,,,,,,1,0,1,0,1,,,,,,,,,,,,,,,,,,,,,
,,,,,,,,,,,,5dac841d79d2ea001600357e,22,Mężczyzna,2022-06-11_09h46.58.689,task,2021.1.4,Win32,70.57661091,6299f149e92ead563fba08ef,62a44720ef8a26acd8e10399,,,,,,,,,,,,,3,,,,,,,,,,Task,6,(12/2) + 1,7,,,,,,,,,,,,,,,,,,,0,,,,,,,,,,,,,,,,,,,,,,,"[""3""]",0,0,0,0,5,1,[3.597799999999779],,,,,,,,,,,,,,,,,,,,,,,,,,
,,,,,,,,,,,,5dac841d79d2ea001600357e,22,Mężczyzna,2022-06-11_09h46.58.689,task,2021.1.4,Win32,70.57661091,6299f149e92ead563fba08ef,62a44720ef8a26acd8e10399,,,,,,,,,,,,,0,,,,,,,,,,Task,17,(2x3) - 6,0,,,,,,,,,,,,,,,,,,,1,,,,,,,,,,,,,,,,,,,,,,,"[""0""]",1,0,1,1,16,1,[3.7431000000000267],,,,,,,,,,,,,,,,,,,,,,,,,,
,,,,,,,,,,,X V Q F H G B L J M P D K C T S W R N Z,5dac841d79d2ea001600357e,22,Mężczyzna,2022-06-11_09h46.58.689,task,2021.1.4,Win32,70.57661091,6299f149e92ead563fba08ef,62a44720ef8a26acd8e10399,,,,,,,,,,,,,,,,,,,,,,,,,,,,,,,,,,,,,,,,,,,,,,,,,,,,,,,,,,,,,,,,,,,,,,,,,,,,2,0,2,0,1,,,,,,,,,,,,,,,,,,,,,
,,,,,,,,,,,,5dac841d79d2ea001600357e,22,Mężczyzna,2022-06-11_09h46.58.689,task,2021.1.4,Win32,70.57661091,6299f149e92ead563fba08ef,62a44720ef8a26acd8e10399,,,,,,,,,,,,,,,,,,,,,,,Task,14,(2x2) + 3,7,,,,,,,,,,,,,,,,,,,0,,,,,,,,,,,,,,,,,,,,,,,,0,0,0,0,13,1,,,,,,,,,,,,,,,,,,,,,,,,,,,
,,,,,,,,,,,,5dac841d79d2ea001600357e,22,Mężczyzna,2022-06-11_09h46.58.689,task,2021.1.4,Win32,70.57661091,6299f149e92ead563fba08ef,62a44720ef8a26acd8e10399,,,,,,,,,,,,,3,,,,,,,,,,Task,27,(3/3) + 2,3,,,,,,,,,,,,,,,,,,,1,,,,,,,,,,,,,,,,,,,,,,,"[""3""]",1,0,1,1,26,1,[3.434599999999932],,,,,,,,,,,,,,,,,,,,,,,,,,
,,,,,,,,,,,X V Q F H G B L J M P D K C T S W R N Z,5dac841d79d2ea001600357e,22,Mężczyzna,2022-06-11_09h46.58.689,task,2021.1.4,Win32,70.57661091,6299f149e92ead563fba08ef,62a44720ef8a26acd8e10399,,,,,,,,,,,,,,,,,,,,,,,,,,,,,,,,,,,,,,,,,,,,,,,,,,,,,,,,,,,,,,,,,,,,,,,,,,,,3,0,3,0,1,,,,,,,,,,,,,,,,,,,,,
,,,,,,,,,,,,5dac841d79d2ea001600357e,22,Mężczyzna,2022-06-11_09h46.58.689,task,2021.1.4,Win32,70.57661091,6299f149e92ead563fba08ef,62a44720ef8a26acd8e10399,,,,,,,,,,,,,3,,,,,,,,,,Task,27,(3/3) + 2,3,,,,,,,,,,,,,,,,,,,1,,,,,,,,,,,,,,,,,,,,,,,"[""3""]",1,0,0,0,26,1,[3.35450000000003],,,,,,,,,,,,,,,,,,,,,,,,,,
,,,,,,,,,,,X V Q F H G B L J M P D K C T S W R N Z,5dac841d79d2ea001600357e,22,Mężczyzna,2022-06-11_09h46.58.689,task,2021.1.4,Win32,70.57661091,6299f149e92ead563fba08ef,62a44720ef8a26acd8e10399,,,,,,,,,,,,,,,,,,,,,,,,,,,,,,,,,,,,,,,,,,,,,,,,,,,,,,,,,,,,,,,,,,,,,,,,,,,,4,0,4,0,1,,,,,,,,,,,,,,,,,,,,,
,,,,,,,,,,,,5dac841d79d2ea001600357e,22,Mężczyzna,2022-06-11_09h46.58.689,task,2021.1.4,Win32,70.57661091,6299f149e92ead563fba08ef,62a44720ef8a26acd8e10399,,,,,,,,,,,,,5,,,,,,,,,,Task,22,(3x1) + 2,5,,,,,,,,,,,,,,,,,,,1,,,,,,,,,,,,,,,,,,,,,,,"[""5""]",1,0,0,0,21,1,[3.0436999999999443],,,,,,,,,,,,,,,,,,,,,,,,,,
,,,,,,,,,,,X V Q F H G B L J M P D K C T S W R N Z,5dac841d79d2ea001600357e,22,Mężczyzna,2022-06-11_09h46.58.689,task,2021.1.4,Win32,70.57661091,6299f149e92ead563fba08ef,62a44720ef8a26acd8e10399,,,,,,,,,,,,,,,,,,,,,,,,,,,,,,,,,,,,,,,,,,,,,,,,,,,,,,,,,,,,,,,,,,,,,,,,,,,,5,0,5,0,1,,,,,,,,,,,,,,,,,,,,,
,,,,,,,,,,,,5dac841d79d2ea001600357e,22,Mężczyzna,2022-06-11_09h46.58.689,task,2021.1.4,Win32,70.57661091,6299f149e92ead563fba08ef,62a44720ef8a26acd8e10399,,,,,,,,,,,,,,,,,,,,,,,,,,,,,,,,,,,,,,,,,,,,,,,,,,,,,,,,,,,,,,,,,,,,,,,,,,,,,,,,,qqlxz,"[""q"",""q"",""l"",""x"",""z""]",0,"[1.0843000000000984,1.3061999999999898,1.8348000000000866,2.667500000000018,3.015199999999936,3.5096999999999525]",0,QQLXGZ,5,0,5,0,1,,,,,,,,,,
,,,,,,,,,,,,5dac841d79d2ea001600357e,22,Mężczyzna,2022-06-11_09h46.58.689,task,2021.1.4,Win32,70.57661091,6299f149e92ead563fba08ef,62a44720ef8a26acd8e10399,,,,,,,,,,,,,,,,,,,,,,,Task,34,(9/3) - 2,1,,,,,,,,,,,,,,,,,,,0,,,,,,,,,,,,,,,,,,,,,,,,0,0,0,0,33,1,,,,,,,,,,,,,,,,,,,,,,,,,,,
,,,,,,,,,,,,5dac841d79d2ea001600357e,22,Mężczyzna,2022-06-11_09h46.58.689,task,2021.1.4,Win32,70.57661091,6299f149e92ead563fba08ef,62a44720ef8a26acd8e10399,,,,,,,,,,,,,2,,,,,,,,,,Task,26,(2x9) - 16,2,,,,,,,,,,,,,,,,,,,1,,,,,,,,,,,,,,,,,,,,,,,"[""2""]",1,0,1,1,25,1,[3.2491999999999734],,,,,,,,,,,,,,,,,,,,,,,,,,
,,,,,,,,,,,X V Q F H G B L J M P D K C T S W R N Z,5dac841d79d2ea001600357e,22,Mężczyzna,2022-06-11_09h46.58.689,task,2021.1.4,Win32,70.57661091,6299f149e92ead563fba08ef,62a44720ef8a26acd8e10399,,,,,,,,,,,,,,,,,,,,,,,,,,,,,,,,,,,,,,,,,,,,,,,,,,,,,,,,,,,,,,,,,,,,,,,,,,,,0,0,0,0,1,,,,,,,,,,,,,,,,,,,,,
,,,,,,,,,,,,5dac841d79d2ea001600357e,22,Mężczyzna,2022-06-11_09h46.58.689,task,2021.1.4,Win32,70.57661091,6299f149e92ead563fba08ef,62a44720ef8a26acd8e10399,,,,,,,,,,,,,3,,,,,,,,,,Task,4,(1x5) - 1,4,,,,,,,,,,,,,,,,,,,0,,,,,,,,,,,,,,,,,,,,,,,"[""3""]",0,0,0,0,3,1,[3.991999999999962],,,,,,,,,,,,,,,,,,,,,,,,,,
,,,,,,,,,,,,5dac841d79d2ea001600357e,22,Mężczyzna,2022-06-11_09h46.58.689,task,2021.1.4,Win32,70.57661091,6299f149e92ead563fba08ef,62a44720ef8a26acd8e10399,,,,,,,,,,,,,9,,,,,,,,,,Task,40,(7x2) - 5,9,,,,,,,,,,,,,,,,,,,1,,,,,,,,,,,,,,,,,,,,,,,"[""9""]",1,0,1,1,39,1,[2.0973000000000184],,,,,,,,,,,,,,,,,,,,,,,,,,
,,,,,,,,,,,X V Q F H G B L J M P D K C T S W R N Z,5dac841d79d2ea001600357e,22,Mężczyzna,2022-06-11_09h46.58.689,task,2021.1.4,Win32,70.57661091,6299f149e92ead563fba08ef,62a44720ef8a26acd8e10399,,,,,,,,,,,,,,,,,,,,,,,,,,,,,,,,,,,,,,,,,,,,,,,,,,,,,,,,,,,,,,,,,,,,,,,,,,,,1,0,1,0,1,,,,,,,,,,,,,,,,,,,,,
,,,,,,,,,,,,5dac841d79d2ea001600357e,22,Mężczyzna,2022-06-11_09h46.58.689,task,2021.1.4,Win32,70.57661091,6299f149e92ead563fba08ef,62a44720ef8a26acd8e10399,,,,,,,,,,,,,2,,,,,,,,,,Task,16,(3x8) - 15,9,,,,,,,,,,,,,,,,,,,0,,,,,,,,,,,,,,,,,,,,,,,"[""2""]",0,0,0,0,15,1,[3.4579000000001088],,,,,,,,,,,,,,,,,,,,,,,,,,
,,,,,,,,,,,,5dac841d79d2ea001600357e,22,Mężczyzna,2022-06-11_09h46.58.689,task,2021.1.4,Win32,70.57661091,6299f149e92ead563fba08ef,62a44720ef8a26acd8e10399,,,,,,,,,,,,,0,,,,,,,,,,Task,25,(10/5) - 2,0,,,,,,,,,,,,,,,,,,,1,,,,,,,,,,,,,,,,,,,,,,,"[""0""]",1,0,1,1,24,1,[3.946199999999976],,,,,,,,,,,,,,,,,,,,,,,,,,
,,,,,,,,,,,X V Q F H G B L J M P D K C T S W R N Z,5dac841d79d2ea001600357e,22,Mężczyzna,2022-06-11_09h46.58.689,task,2021.1.4,Win32,70.57661091,6299f149e92ead563fba08ef,62a44720ef8a26acd8e10399,,,,,,,,,,,,,,,,,,,,,,,,,,,,,,,,,,,,,,,,,,,,,,,,,,,,,,,,,,,,,,,,,,,,,,,,,,,,2,0,2,0,1,,,,,,,,,,,,,,,,,,,,,
,,,,,,,,,,,,5dac841d79d2ea001600357e,22,Mężczyzna,2022-06-11_09h46.58.689,task,2021.1.4,Win32,70.57661091,6299f149e92ead563fba08ef,62a44720ef8a26acd8e10399,,,,,,,,,,,,,7,,,,,,,,,,Task,15,(3x7) - 13,8,,,,,,,,,,,,,,,,,,,0,,,,,,,,,,,,,,,,,,,,,,,"[""7""]",0,0,0,0,14,1,[4.021199999999908],,,,,,,,,,,,,,,,,,,,,,,,,,
,,,,,,,,,,,,5dac841d79d2ea001600357e,22,Mężczyzna,2022-06-11_09h46.58.689,task,2021.1.4,Win32,70.57661091,6299f149e92ead563fba08ef,62a44720ef8a26acd8e10399,,,,,,,,,,,,,,,,,,,,,,,Task,26,(2x9) - 16,2,,,,,,,,,,,,,,,,,,,0,,,,,,,,,,,,,,,,,,,,,,,,0,0,1,1,25,1,,,,,,,,,,,,,,,,,,,,,,,,,,,
,,,,,,,,,,,,5dac841d79d2ea001600357e,22,Mężczyzna,2022-06-11_09h46.58.689,task,2021.1.4,Win32,70.57661091,6299f149e92ead563fba08ef,62a44720ef8a26acd8e10399,,,,,,,,,,,,,9,,,,,,,,,,Task,40,(7x2) - 5,9,,,,,,,,,,,,,,,,,,,1,,,,,,,,,,,,,,,,,,,,,,,"[""9""]",1,0,2,2,39,1,[2.771699999999896],,,,,,,,,,,,,,,,,,,,,,,,,,
,,,,,,,,,,,X V Q F H G B L J M P D K C T S W R N Z,5dac841d79d2ea001600357e,22,Mężczyzna,2022-06-11_09h46.58.689,task,2021.1.4,Win32,70.57661091,6299f149e92ead563fba08ef,62a44720ef8a26acd8e10399,,,,,,,,,,,,,,,,,,,,,,,,,,,,,,,,,,,,,,,,,,,,,,,,,,,,,,,,,,,,,,,,,,,,,,,,,,,,3,0,3,0,1,,,,,,,,,,,,,,,,,,,,,
,,,,,,,,,,,,5dac841d79d2ea001600357e,22,Mężczyzna,2022-06-11_09h46.58.689,task,2021.1.4,Win32,70.57661091,6299f149e92ead563fba08ef,62a44720ef8a26acd8e10399,,,,,,,,,,,,,8,,,,,,,,,,Task,39,(5x3) - 7,8,,,,,,,,,,,,,,,,,,,1,,,,,,,,,,,,,,,,,,,,,,,"[""8""]",1,0,0,0,38,1,[2.5254999999999654],,,,,,,,,,,,,,,,,,,,,,,,,,
,,,,,,,,,,,X V Q F H G B L J M P D K C T S W R N Z,5dac841d79d2ea001600357e,22,Mężczyzna,2022-06-11_09h46.58.689,task,2021.1.4,Win32,70.57661091,6299f149e92ead563fba08ef,62a44720ef8a26acd8e10399,,,,,,,,,,,,,,,,,,,,,,,,,,,,,,,,,,,,,,,,,,,,,,,,,,,,,,,,,,,,,,,,,,,,,,,,,,,,4,0,4,0,1,,,,,,,,,,,,,,,,,,,,,
,,,,,,,,,,,,5dac841d79d2ea001600357e,22,Mężczyzna,2022-06-11_09h46.58.689,task,2021.1.4,Win32,70.57661091,6299f149e92ead563fba08ef,62a44720ef8a26acd8e10399,,,,,,,,,,,,,,,,,,,,,,,Task,21,(10/2) - 1,4,,,,,,,,,,,,,,,,,,,0,,,,,,,,,,,,,,,,,,,,,,,,0,0,0,0,20,1,,,,,,,,,,,,,,,,,,,,,,,,,,,
,,,,,,,,,,,,5dac841d79d2ea001600357e,22,Mężczyzna,2022-06-11_09h46.58.689,task,2021.1.4,Win32,70.57661091,6299f149e92ead563fba08ef,62a44720ef8a26acd8e10399,,,,,,,,,,,,,8,,,,,,,,,,Task,39,(5x3) - 7,8,,,,,,,,,,,,,,,,,,,1,,,,,,,,,,,,,,,,,,,,,,,"[""8""]",1,0,1,1,38,1,[1.987700000000018],,,,,,,,,,,,,,,,,,,,,,,,,,
,,,,,,,,,,,X V Q F H G B L J M P D K C T S W R N Z,5dac841d79d2ea001600357e,22,Mężczyzna,2022-06-11_09h46.58.689,task,2021.1.4,Win32,70.57661091,6299f149e92ead563fba08ef,62a44720ef8a26acd8e10399,,,,,,,,,,,,,,,,,,,,,,,,,,,,,,,,,,,,,,,,,,,,,,,,,,,,,,,,,,,,,,,,,,,,,,,,,,,,5,0,5,0,1,,,,,,,,,,,,,,,,,,,,,
,,,,,,,,,,,,5dac841d79d2ea001600357e,22,Mężczyzna,2022-06-11_09h46.58.689,task,2021.1.4,Win32,70.57661091,6299f149e92ead563fba08ef,62a44720ef8a26acd8e10399,,,,,,,,,,,,,,,,,,,,,,,,,,,,,,,,,,,,,,,,,,,,,,,,,,,,,,,,,,,,,,,,,,,,,,,,,,,,,,,,,qlcgb,"[""q"",""l"",""c"",""g"",""b""]",0,"[1.8614000000002306,2.241600000000176,2.8757000000000517,3.186800000000062,3.4499000000001843,4.194400000000201]",0,NBDCCB,6,0,6,0,1,,,,,,,,,,
,,,,,,,,,,,,5dac841d79d2ea001600357e,22,Mężczyzna,2022-06-11_09h46.58.689,task,2021.1.4,Win32,70.57661091,6299f149e92ead563fba08ef,62a44720ef8a26acd8e10399,,,,,,,,,,,,,,,,,,,,,,,,,,,,,,,,,,,,,,,,,,,,,,,,,,,,,,,,,,,,,,,,,,,,,,,,,,,,,,,,,,,,,,,,,,,,"[""comma""]",0,[0.8714999999999691],0,0,0,0,1,,
,,,,,,,,,,,,5dac841d79d2ea001600357e,22,Mężczyzna,2022-06-11_09h46.58.689,task,2021.1.4,Win32,70.57661091,6299f149e92ead563fba08ef,62a44720ef8a26acd8e10399,,,,,,,,,,,,,,,,,,,,,,,,,,,,,,,,,,,,,,,,,,,,,,,,,,,,,,,,,,,,,,,,,,,,,,,,,,,,,,,,,,,,,,,,,,,,"[""comma""]",0,[1.1044000000000551],1,0,1,0,1,,
,,,,,,,,,,,,5dac841d79d2ea001600357e,22,Mężczyzna,2022-06-11_09h46.58.689,task,2021.1.4,Win32,70.57661091,6299f149e92ead563fba08ef,62a44720ef8a26acd8e10399,,,,,,,,,,,,,,,,,,,,,,,,,,,,,,,,,,,,,,,,,,,,,,,,,,,,,,,,,,,,,,,,,,,,,,,,,,,,,,,,,,,,,,,,,,,,"[""period""]",0,[1.2479999999999336],2,0,2,0,1,,
,,,,,,,,,,,,5dac841d79d2ea001600357e,22,Mężczyzna,2022-06-11_09h46.58.689,task,2021.1.4,Win32,70.57661091,6299f149e92ead563fba08ef,62a44720ef8a26acd8e10399,,,,,,,,,,,,,,,,,,,,,,,,,,,,,,,,,,,,,,,,,,,,,,,,,,,,,,,,,,,,,,,,,,,,,,,,,,,,,,,,,,,,,,,,,,,,"[""period""]",0,[0.5496000000001686],3,0,3,0,1,,
,,,,,,,,,,,,5dac841d79d2ea001600357e,22,Mężczyzna,2022-06-11_09h46.58.689,task,2021.1.4,Win32,70.57661091,6299f149e92ead563fba08ef,62a44720ef8a26acd8e10399,,,,,,,,,,,,,,,,,,,,,,,,,,,,,,,,,,,,,,,,,,,,,,,,,,,,,,,,,,,,,,,,,,,,,,,,,,,,,,,,,,,,,,,,,,,,"[""period""]",0,[0.020999999999958163],4,0,4,0,1,,
,,,,,,,,,,,,5dac841d79d2ea001600357e,22,Mężczyzna,2022-06-11_09h46.58.689,task,2021.1.4,Win32,70.57661091,6299f149e92ead563fba08ef,62a44720ef8a26acd8e10399,,,,,,,,,,,,,,,,,,,,,,,,,,,,,,,,,,,,,,,,,,,,,,,,,,,,,,,,,,,,,,,,,,,,,,,,,,,,,,,,,,,,,,,,,,,,"[""comma""]",0,[0.13999999999998636],5,0,5,0,1,,
,,,,,,,,,,,,5dac841d79d2ea001600357e,22,Mężczyzna,2022-06-11_09h46.58.689,task,2021.1.4,Win32,70.57661091,6299f149e92ead563fba08ef,62a44720ef8a26acd8e10399,,,,,,,,,,,,,,,,,,,,,,,,,,,,,,,,,,,,,,,,,,,,,,,,,,,,,,,,,,,,,,,,,,,,,,,,,,,,,,,,,,,,,,,,,,,,"[""period"",""comma""]",0,"[0.21610000000009677,1.7228999999998678]",6,0,6,0,1,,
,,,,,,,,,,,,5dac841d79d2ea001600357e,22,Mężczyzna,2022-06-11_09h46.58.689,task,2021.1.4,Win32,70.57661091,6299f149e92ead563fba08ef,62a44720ef8a26acd8e10399,,,,,,,,,,,,,,,,,,,,,,,,,,,,,,,,,,,,,,,,,,,,,,,,,,,,,,,,,,,,,,,,,,,,,,,,,,,,,,,,,,,,,,,,,,,,,0,,7,0,7,0,1,,
,,,,,,,,,,,,5dac841d79d2ea001600357e,22,Mężczyzna,2022-06-11_09h46.58.689,task,2021.1.4,Win32,70.57661091,6299f149e92ead563fba08ef,62a44720ef8a26acd8e10399,,,,,,,,,,,,,,,,,,,,,,,,,,,,,,,,,,,,,,,,,,,,,,,,,,,,,,,,,,,,,,,,,,,,,,,,,,,,,,,,,,,,,,,,,,,,"[""comma""]",0,[0.2766999999998916],8,0,8,0,1,,
,,,,,,,,,,,,5dac841d79d2ea001600357e,22,Mężczyzna,2022-06-11_09h46.58.689,task,2021.1.4,Win32,70.57661091,6299f149e92ead563fba08ef,62a44720ef8a26acd8e10399,,,,,,,,,,,,,,,,,,,,,,,,,,,,,,,,,,,,,,,,,,,,,,,,,,,,,,,,,,,,,,,,,,,,,,,,,,,,,,,,,,,,,,,,,,,,"[""period""]",0,[0.2378000000001066],9,0,9,0,1,,
,,,,,,,,,,,,5dac841d79d2ea001600357e,22,Mężczyzna,2022-06-11_09h46.58.689,task,2021.1.4,Win32,70.57661091,6299f149e92ead563fba08ef,62a44720ef8a26acd8e10399,,,,,,,,,,,,,,,,,,,,,,,,,,,,,,,,,,,,,,,,,,,,,,,,,,,,,,,,,,,,,,,,,,,,,,,,,,,,,,,,,,,,,,,,,,,,"[""period""]",0,[0.1934999999999718],10,0,10,0,1,,
,,,,,,,,,,,,5dac841d79d2ea001600357e,22,Mężczyzna,2022-06-11_09h46.58.689,task,2021.1.4,Win32,70.57661091,6299f149e92ead563fba08ef,62a44720ef8a26acd8e10399,,,,,,,,,,,,,,,,,,,,,,,,,,,,,,,,,,,,,,,,,,,,,,,,,,,,,,,,,,,,,,,,,,,,,,,,,,,,,,,,,,,,,,,,,,,,"[""comma""]",0,[0.31399999999996453],11,0,11,0,1,,
,,,,,,,,,,,,5dac841d79d2ea001600357e,22,Mężczyzna,2022-06-11_09h46.58.689,task,2021.1.4,Win32,70.57661091,6299f149e92ead563fba08ef,62a44720ef8a26acd8e10399,,,,,,,,,,,,,,,,,,,,,,,,,,,,,,,,,,,,,,,,,,,,,,,,,,,,,,,,,,,,,,,,,,,,,,,,,,,,,,,,,,,,,,,,,,,,"[""comma""]",0,[0.20239999999989777],12,0,12,0,1,,
,,,,,,,,,,,,5dac841d79d2ea001600357e,22,Mężczyzna,2022-06-11_09h46.58.689,task,2021.1.4,Win32,70.57661091,6299f149e92ead563fba08ef,62a44720ef8a26acd8e10399,,,,,,,,,,,,,,,,,,,,,,,,,,,,,,,,,,,,,,,,,,,,,,,,,,,,,,,,,,,,,,,,,,,,,,,,,,,,,,,,,,,,,,,,,,,,"[""period""]",0,[0.1596999999999298],13,0,13,0,1,,
,,,,,,,,,,,,5dac841d79d2ea001600357e,22,Mężczyzna,2022-06-11_09h46.58.689,task,2021.1.4,Win32,70.57661091,6299f149e92ead563fba08ef,62a44720ef8a26acd8e10399,,,,,,,,,,,,,,,,,,,,,,,,,,,,,,,,,,,,,,,,,,,,,,,,,,,,,,,,,,,,,,,,,,,,,,,,,,,,,,,,,,,,,,,,,,,,"[""comma""]",0,[0.15999999999996817],14,0,14,0,1,,
,,,,,,,,,,,,5dac841d79d2ea001600357e,22,Mężczyzna,2022-06-11_09h46.58.689,task,2021.1.4,Win32,70.57661091,6299f149e92ead563fba08ef,62a44720ef8a26acd8e10399,,,,,,,,,,,,,,,,,,,,,,,,,,,,,,,,,,,,,,,,,,,,,,,,,,,,,,,,,,,,,,,,,,,,,,,,,,,,,,,,,,,,,,,,,,,,"[""comma"",""comma""]",0,"[0.02860000000009677,1.8110000000000355]",15,0,15,0,1,,
,,,,,,,,,,,,5dac841d79d2ea001600357e,22,Mężczyzna,2022-06-11_09h46.58.689,task,2021.1.4,Win32,70.57661091,6299f149e92ead563fba08ef,62a44720ef8a26acd8e10399,,,,,,,,,,,,,,,,,,,,,,,,,,,,,,,,,,,,,,,,,,,,,,,,,,,,,,,,,,,,,,,,,,,,,,,,,,,,,,,,,,,,,,,,,,,,,0,,16,0,16,0,1,,
,,,,,,,,,,,,5dac841d79d2ea001600357e,22,Mężczyzna,2022-06-11_09h46.58.689,task,2021.1.4,Win32,70.57661091,6299f149e92ead563fba08ef,62a44720ef8a26acd8e10399,,,,,,,,,,,,,,,,,,,,,,,,,,,,,,,,,,,,,,,,,,,,,,,,,,,,,,,,,,,,,,,,,,,,,,,,,,,,,,,,,,,,,,,,,,,,"[""comma""]",0,[0.4176000000001068],17,0,17,0,1,,
,,,,,,,,,,,,5dac841d79d2ea001600357e,22,Mężczyzna,2022-06-11_09h46.58.689,task,2021.1.4,Win32,70.57661091,6299f149e92ead563fba08ef,62a44720ef8a26acd8e10399,,,,,,,,,,,,,,,,,,,,,,,,,,,,,,,,,,,,,,,,,,,,,,,,,,,,,,,,,,,,,,,,,,,,,,,,,,,,,,,,,,,,,,,,,,,,"[""period""]",0,[1.1739999999999782],18,0,18,0,1,,
,,,,,,,,,,,,5dac841d79d2ea001600357e,22,Mężczyzna,2022-06-11_09h46.58.689,task,2021.1.4,Win32,70.57661091,6299f149e92ead563fba08ef,62a44720ef8a26acd8e10399,,,,,,,,,,,,,,,,,,,,,,,,,,,,,,,,,,,,,,,,,,,,,,,,,,,,,,,,,,,,,,,,,,,,,,,,,,,,,,,,,,,,,,,,,,,,"[""comma""]",0,[1.0635999999998376],19,0,19,0,1,,
,,,,,,,,,,,,5dac841d79d2ea001600357e,22,Mężczyzna,2022-06-11_09h46.58.689,task,2021.1.4,Win32,70.57661091,6299f149e92ead563fba08ef,62a44720ef8a26acd8e10399,,,,,,,,,,,,,,,,,,,,,,,,,,,,,,,,,,,,,,,,,,,,,,,,,,,,,,,,,,,,,,,,,,,,,,,,,,,,,,,,,,,,,,,,,,,,,0,,20,0,20,0,1,,
,,,,,,,,,,,,5dac841d79d2ea001600357e,22,Mężczyzna,2022-06-11_09h46.58.689,task,2021.1.4,Win32,70.57661091,6299f149e92ead563fba08ef,62a44720ef8a26acd8e10399,,,,,,,,,,,,,,,,,,,,,,,,,,,,,,,,,,,,,,,,,,,,,,,,,,,,,,,,,,,,,,,,,,,,,,,,,,,,,,,,,,,,,,,,,,,,"[""comma""]",0,[0.29939999999987776],21,0,21,0,1,,
,,,,,,,,,,,,5dac841d79d2ea001600357e,22,Mężczyzna,2022-06-11_09h46.58.689,task,2021.1.4,Win32,70.57661091,6299f149e92ead563fba08ef,62a44720ef8a26acd8e10399,,,,,,,,,,,,,,,,,,,,,,,,,,,,,,,,,,,,,,,,,,,,,,,,,,,,,,,,,,,,,,,,,,,,,,,,,,,,,,,,,,,,,,,,,,,,"[""comma""]",0,[0.7020999999998594],22,0,22,0,1,,
,,,,,,,,,,,,5dac841d79d2ea001600357e,22,Mężczyzna,2022-06-11_09h46.58.689,task,2021.1.4,Win32,70.57661091,6299f149e92ead563fba08ef,62a44720ef8a26acd8e10399,,,,,,,,,,,,,,,,,,,,,,,,,,,,,,,,,,,,,,,,,,,,,,,,,,,,,,,,,,,,,,,,,,,,,,,,,,,,,,,,,,,,,,,,,,,,,0,,23,0,23,0,1,,
,,,,,,,,,,,,5dac841d79d2ea001600357e,22,Mężczyzna,2022-06-11_09h46.58.689,task,2021.1.4,Win32,70.57661091,6299f149e92ead563fba08ef,62a44720ef8a26acd8e10399,,,,,,,,,,,,,,,,,,,,,,,,,,,,,,,,,,,,,,,,,,,,,,,,,,,,,,,,,,,,,,,,,,,,,,,,,,,,,,,,,,,,,,,,,,,,"[""period""]",0,[1.3682000000000016],24,0,24,0,1,,
,,,,,,,,,,,,5dac841d79d2ea001600357e,22,Mężczyzna,2022-06-11_09h46.58.689,task,2021.1.4,Win32,70.57661091,6299f149e92ead563fba08ef,62a44720ef8a26acd8e10399,,,,,,,,,,,,,,,,,,,,,,,,,,,,,,,,,,,,,,,,,,,,,,,,,,,,,,,,,,,,,,,,,,,,,,,,,,,,,,,,,,,,,,,,,,,,"[""period""]",0,[0.28529999999989286],25,0,25,0,1,,
,,,,,,,,,,,,5dac841d79d2ea001600357e,22,Mężczyzna,2022-06-11_09h46.58.689,task,2021.1.4,Win32,70.57661091,6299f149e92ead563fba08ef,62a44720ef8a26acd8e10399,,,,,,,,,,,,,,,,,,,,,,,,,,,,,,,,,,,,,,,,,,,,,,,,,,,,,,,,,,,,,,,,,,,,,,,,,,,,,,,,,,,,,,,,,,,,"[""comma""]",0,[0.5349000000002206],26,0,26,0,1,,
,,,,,,,,,,,,5dac841d79d2ea001600357e,22,Mężczyzna,2022-06-11_09h46.58.689,task,2021.1.4,Win32,70.57661091,6299f149e92ead563fba08ef,62a44720ef8a26acd8e10399,,,,,,,,,,,,,,,,,,,,,,,,,,,,,,,,,,,,,,,,,,,,,,,,,,,,,,,,,,,,,,,,,,,,,,,,,,,,,,,,,,,,,,,,,,,,"[""period""]",0,[0.278400000000147],27,0,27,0,1,,
,,,,,,,,,,,,5dac841d79d2ea001600357e,22,Mężczyzna,2022-06-11_09h46.58.689,task,2021.1.4,Win32,70.57661091,6299f149e92ead563fba08ef,62a44720ef8a26acd8e10399,,,,,,,,,,,,,,,,,,,,,,,,,,,,,,,,,,,,,,,,,,,,,,,,,,,,,,,,,,,,,,,,,,,,,,,,,,,,,,,,,,,,,,,,,,,,"[""comma""]",0,[0.3908000000000129],28,0,28,0,1,,
,,,,,,,,,,,,5dac841d79d2ea001600357e,22,Mężczyzna,2022-06-11_09h46.58.689,task,2021.1.4,Win32,70.57661091,6299f149e92ead563fba08ef,62a44720ef8a26acd8e10399,,,,,,,,,,,,,,,,,,,,,,,,,,,,,,,,,,,,,,,,,,,,,,,,,,,,,,,,,,,,,,,,,,,,,,,,,,,,,,,,,,,,,,,,,,,,"[""period""]",0,[0.22889999999995325],29,0,29,0,1,,
,,,,,,,,,,,,5dac841d79d2ea001600357e,22,Mężczyzna,2022-06-11_09h46.58.689,task,2021.1.4,Win32,70.57661091,6299f149e92ead563fba08ef,62a44720ef8a26acd8e10399,,,,,,,,,,,,,,,,,,,,,,,,,,,,,,,,,,,,,,,,,,,,,,,,,,,,,,,,,,,,,,,,,,,,,,,,,,,,,,,,,,,,,,,,,,,,"[""comma""]",0,[0.23500000000001364],30,0,30,0,1,,
,,,,,,,,,,,,5dac841d79d2ea001600357e,22,Mężczyzna,2022-06-11_09h46.58.689,task,2021.1.4,Win32,70.57661091,6299f149e92ead563fba08ef,62a44720ef8a26acd8e10399,,,,,,,,,,,,,,,,,,,,,,,,,,,,,,,,,,,,,,,,,,,,,,,,,,,,,,,,,,,,,,,,,,,,,,,,,,,,,,,,,,,,,,,,,,,,"[""comma""]",0,[0.22320000000001983],31,0,31,0,1,,
,,,,,,,,,,,,5dac841d79d2ea001600357e,22,Mężczyzna,2022-06-11_09h46.58.689,task,2021.1.4,Win32,70.57661091,6299f149e92ead563fba08ef,62a44720ef8a26acd8e10399,,,,,,,,,,,,,,,,,,,,,,,,,,,,,,,,,,,,,,,,,,,,,,,,,,,,,,,,,,,,,,,,,,,,,,,,,,,,,,,,,,,,,,,,,,,,"[""period""]",0,[0.23740000000009331],32,0,32,0,1,,
,,,,,,,,,,,,5dac841d79d2ea001600357e,22,Mężczyzna,2022-06-11_09h46.58.689,task,2021.1.4,Win32,70.57661091,6299f149e92ead563fba08ef,62a44720ef8a26acd8e10399,,,,,,,,,,,,,,,,,,,,,,,,,,,,,,,,,,,,,,,,,,,,,,,,,,,,,,,,,,,,,,,,,,,,,,,,,,,,,,,,,,,,,,,,,,,,"[""comma""]",0,[0.22270000000003165],33,0,33,0,1,,
,,,,,,,,,,,,5dac841d79d2ea001600357e,22,Mężczyzna,2022-06-11_09h46.58.689,task,2021.1.4,Win32,70.57661091,6299f149e92ead563fba08ef,62a44720ef8a26acd8e10399,,,,,,,,,,,,,,,,,,,,,,,,,,,,,,,,,,,,,,,,,,,,,,,,,,,,,,,,,,,,,,,,,,,,,,,,,,,,,,,,,,,,,,,,,,,,"[""comma""]",0,[0.2568999999998596],34,0,34,0,1,,
,,,,,,,,,,,,5dac841d79d2ea001600357e,22,Mężczyzna,2022-06-11_09h46.58.689,task,2021.1.4,Win32,70.57661091,6299f149e92ead563fba08ef,62a44720ef8a26acd8e10399,,,,,,,,,,,,,,,,,,,,,,,,,,,,,,,,,,,,,,,,,,,,,,,,,,,,,,,,,,,,,,,,,,,,,,,,,,,,,,,,,,,,,,,,,,,,"[""period""]",0,[0.23069999999984248],35,0,35,0,1,,
,,,,,,,,,,,,5dac841d79d2ea001600357e,22,Mężczyzna,2022-06-11_09h46.58.689,task,2021.1.4,Win32,70.57661091,6299f149e92ead563fba08ef,62a44720ef8a26acd8e10399,,,,,,,,,,,,,,,,,,,,,,,,,,,,,,,,,,,,,,,,,,,,,,,,,,,,,,,,,,,,,,,,,,,,,,,,,,,,,,,,,,,,,,,,,,,,"[""comma""]",0,[0.25020000000017717],36,0,36,0,1,,
,,,,,,,,,,,,5dac841d79d2ea001600357e,22,Mężczyzna,2022-06-11_09h46.58.689,task,2021.1.4,Win32,70.57661091,6299f149e92ead563fba08ef,62a44720ef8a26acd8e10399,,,,,,,,,,,,,,,,,,,,,,,,,,,,,,,,,,,,,,,,,,,,,,,,,,,,,,,,,,,,,,,,,,,,,,,,,,,,,,,,,,,,,,,,,,,,"[""comma""]",0,[0.25930000000005293],37,0,37,0,1,,
,,,,,,,,,,,,5dac841d79d2ea001600357e,22,Mężczyzna,2022-06-11_09h46.58.689,task,2021.1.4,Win32,70.57661091,6299f149e92ead563fba08ef,62a44720ef8a26acd8e10399,,,,,,,,,,,,,,,,,,,,,,,,,,,,,,,,,,,,,,,,,,,,,,,,,,,,,,,,,,,,,,,,,,,,,,,,,,,,,,,,,,,,,,,,,,,,"[""period""]",0,[0.23030000000005657],38,0,38,0,1,,
,,,,,,,,,,,,5dac841d79d2ea001600357e,22,Mężczyzna,2022-06-11_09h46.58.689,task,2021.1.4,Win32,70.57661091,6299f149e92ead563fba08ef,62a44720ef8a26acd8e10399,,,,,,,,,,,,,,,,,,,,,,,,,,,,,,,,,,,,,,,,,,,,,,,,,,,,,,,,,,,,,,,,,,,,,,,,,,,,,,,,,,,,,,,,,,,,"[""comma""]",0,[0.23630000000002838],39,0,39,0,1,,
,,,,,,,,,,,,5dac841d79d2ea001600357e,22,Mężczyzna,2022-06-11_09h46.58.689,task,2021.1.4,Win32,70.57661091,6299f149e92ead563fba08ef,62a44720ef8a26acd8e10399,,,,,,,,,,,,,,,,,,,,,,,,,,,,,,,,,,,,,,,,,,,,,,,,,,,,,,,,,,,,,,,,,,,,,,,,,,,,,,,,,,,,,,,,,,,,"[""comma""]",0,[0.3557999999998174],40,0,40,0,1,,
,,,,,,,,,,,,5dac841d79d2ea001600357e,22,Mężczyzna,2022-06-11_09h46.58.689,task,2021.1.4,Win32,70.57661091,6299f149e92ead563fba08ef,62a44720ef8a26acd8e10399,,,,,,,,,,,,,,,,,,,,,,,,,,,,,,,,,,,,,,,,,,,,,,,,,,,,,,,,,,,,,,,,,,,,,,,,,,,,,,,,,,,,,,,,,,,,"[""period""]",0,[0.19539999999983593],41,0,41,0,1,,
,,,,,,,,,,,,5dac841d79d2ea001600357e,22,Mężczyzna,2022-06-11_09h46.58.689,task,2021.1.4,Win32,70.57661091,6299f149e92ead563fba08ef,62a44720ef8a26acd8e10399,,,,,,,,,,,,,,,,,,,,,,,,,,,,,,,,,,,,,,,,,,,,,,,,,,,,,,,,,,,,,,,,,,,,,,,,,,,,,,,,,,,,,,,,,,,,"[""comma"",""comma""]",0,"[0.2725999999998976,1.96650000000011]",42,0,42,0,1,,
,,,,,,,,,,,,5dac841d79d2ea001600357e,22,Mężczyzna,2022-06-11_09h46.58.689,task,2021.1.4,Win32,70.57661091,6299f149e92ead563fba08ef,62a44720ef8a26acd8e10399,,,,,,,,,,,,,,,,,,,,,,,,,,,,,,,,,,,,,,,,,,,,,,,,,,,,,,,,,,,,,,,,,,,,,,,,,,,,,,,,,,,,,,,,,,,,,0,,43,0,43,0,1,,
,,,,,,,,,,,,5dac841d79d2ea001600357e,22,Mężczyzna,2022-06-11_09h46.58.689,task,2021.1.4,Win32,70.57661091,6299f149e92ead563fba08ef,62a44720ef8a26acd8e10399,,,,,,,,,,,,,,,,,,,,,,,,,,,,,,,,,,,,,,,,,,,,,,,,,,,,,,,,,,,,,,,,,,,,,,,,,,,,,,,,,,,,,,,,,,,,"[""period""]",0,[0.42439999999987776],44,0,44,0,1,,
,,,,,,,,,,,,5dac841d79d2ea001600357e,22,Mężczyzna,2022-06-11_09h46.58.689,task,2021.1.4,Win32,70.57661091,6299f149e92ead563fba08ef,62a44720ef8a26acd8e10399,,,,,,,,,,,,,,,,,,,,,,,,,,,,,,,,,,,,,,,,,,,,,,,,,,,,,,,,,,,,,,,,,,,,,,,,,,,,,,,,,,,,,,,,,,,,"[""period""]",0,[0.29359999999985575],45,0,45,0,1,,
,,,,,,,,,,,,5dac841d79d2ea001600357e,22,Mężczyzna,2022-06-11_09h46.58.689,task,2021.1.4,Win32,70.57661091,6299f149e92ead563fba08ef,62a44720ef8a26acd8e10399,,,,,,,,,,,,,,,,,,,,,,,,,,,,,,,,,,,,,,,,,,,,,,,,,,,,,,,,,,,,,,,,,,,,,,,,,,,,,,,,,,,,,,,,,,,,"[""comma""]",0,[0.20259999999984757],46,0,46,0,1,,
,,,,,,,,,,,,5dac841d79d2ea001600357e,22,Mężczyzna,2022-06-11_09h46.58.689,task,2021.1.4,Win32,70.57661091,6299f149e92ead563fba08ef,62a44720ef8a26acd8e10399,,,,,,,,,,,,,,,,,,,,,,,,,,,,,,,,,,,,,,,,,,,,,,,,,,,,,,,,,,,,,,,,,,,,,,,,,,,,,,,,,,,,,,,,,,,,"[""comma""]",0,[0.278299999999831],47,0,47,0,1,,
,,,,,,,,,,,,5dac841d79d2ea001600357e,22,Mężczyzna,2022-06-11_09h46.58.689,task,2021.1.4,Win32,70.57661091,6299f149e92ead563fba08ef,62a44720ef8a26acd8e10399,,,,,,,,,,,,,,,,,,,,,,,,,,,,,,,,,,,,,,,,,,,,,,,,,,,,,,,,,,,,,,,,,,,,,,,,,,,,,,,,,,,,,,,,,,,,"[""period""]",0,[0.2925000000000182],48,0,48,0,1,,
,,,,,,,,,,,,5dac841d79d2ea001600357e,22,Mężczyzna,2022-06-11_09h46.58.689,task,2021.1.4,Win32,70.57661091,6299f149e92ead563fba08ef,62a44720ef8a26acd8e10399,,,,,,,,,,,,,,,,,,,,,,,,,,,,,,,,,,,,,,,,,,,,,,,,,,,,,,,,,,,,,,,,,,,,,,,,,,,,,,,,,,,,,,,,,,,,"[""comma""]",0,[0.20990000000006148],49,0,49,0,1,,
,,,,,,,,,,,,5dac841d79d2ea001600357e,22,Mężczyzna,2022-06-11_09h46.58.689,task,2021.1.4,Win32,70.57661091,6299f149e92ead563fba08ef,62a44720ef8a26acd8e10399,,,,,,,,,,,,,,,,,,,,,,,,,,,,,,,,,,,,,,,,,,,,,,,,,,,,,,,,,,,,,,,,,,,,,,,,,,,,,,,,,,,,,,,,,,,,"[""comma""]",0,[0.2574000000000751],50,0,50,0,1,,
,,,,,,,,,,,,5dac841d79d2ea001600357e,22,Mężczyzna,2022-06-11_09h46.58.689,task,2021.1.4,Win32,70.57661091,6299f149e92ead563fba08ef,62a44720ef8a26acd8e10399,,,,,,,,,,,,,,,,,,,,,,,,,,,,,,,,,,,,,,,,,,,,,,,,,,,,,,,,,,,,,,,,,,,,,,,,,,,,,,,,,,,,,,,,,,,,"[""comma""]",0,[0.035499999999956344],51,0,51,0,1,,
,,,,,,,,,,,,5dac841d79d2ea001600357e,22,Mężczyzna,2022-06-11_09h46.58.689,task,2021.1.4,Win32,70.57661091,6299f149e92ead563fba08ef,62a44720ef8a26acd8e10399,,,,,,,,,,,,,,,,,,,,,,,,,,,,,,,,,,,,,,,,,,,,,,,,,,,,,,,,,,,,,,,,,,,,,,,,,,,,,,,,,,,,,,,,,,,,"[""period""]",0,[0.24339999999995143],52,0,52,0,1,,
,,,,,,,,,,,,5dac841d79d2ea001600357e,22,Mężczyzna,2022-06-11_09h46.58.689,task,2021.1.4,Win32,70.57661091,6299f149e92ead563fba08ef,62a44720ef8a26acd8e10399,,,,,,,,,,,,,,,,,,,,,,,,,,,,,,,,,,,,,,,,,,,,,,,,,,,,,,,,,,,,,,,,,,,,,,,,,,,,,,,,,,,,,,,,,,,,"[""comma""]",0,[0.250299999999811],53,0,53,0,1,,
,,,,,,,,,,,,5dac841d79d2ea001600357e,22,Mężczyzna,2022-06-11_09h46.58.689,task,2021.1.4,Win32,70.57661091,6299f149e92ead563fba08ef,62a44720ef8a26acd8e10399,,,,,,,,,,,,,,,,,,,,,,,,,,,,,,,,,,,,,,,,,,,,,,,,,,,,,,,,,,,,,,,,,,,,,,,,,,,,,,,,,,,,,,,,,,,,"[""period""]",0,[0.1672000000000935],54,0,54,0,1,,
,,,,,,,,,,,,5dac841d79d2ea001600357e,22,Mężczyzna,2022-06-11_09h46.58.689,task,2021.1.4,Win32,70.57661091,6299f149e92ead563fba08ef,62a44720ef8a26acd8e10399,,,,,,,,,,,,,,,,,,,,,,,,,,,,,,,,,,,,,,,,,,,,,,,,,,,,,,,,,,,,,,,,,,,,,,,,,,,,,,,,,,,,,,,,,,,,"[""comma""]",0,[0.27169999999989614],55,0,55,0,1,,
,,,,,,,,,,,,5dac841d79d2ea001600357e,22,Mężczyzna,2022-06-11_09h46.58.689,task,2021.1.4,Win32,70.57661091,6299f149e92ead563fba08ef,62a44720ef8a26acd8e10399,,,,,,,,,,,,,,,,,,,,,,,,,,,,,,,,,,,,,,,,,,,,,,,,,,,,,,,,,,,,,,,,,,,,,,,,,,,,,,,,,,,,,,,,,,,,"[""period""]",0,[0.32000000000005],56,0,56,0,1,,
,,,,,,,,,,,,5dac841d79d2ea001600357e,22,Mężczyzna,2022-06-11_09h46.58.689,task,2021.1.4,Win32,70.57661091,6299f149e92ead563fba08ef,62a44720ef8a26acd8e10399,,,,,,,,,,,,,,,,,,,,,,,,,,,,,,,,,,,,,,,,,,,,,,,,,,,,,,,,,,,,,,,,,,,,,,,,,,,,,,,,,,,,,,,,,,,,"[""comma""]",0,[0.2512000000001535],57,0,57,0,1,,
,,,,,,,,,,,,5dac841d79d2ea001600357e,22,Mężczyzna,2022-06-11_09h46.58.689,task,2021.1.4,Win32,70.57661091,6299f149e92ead563fba08ef,62a44720ef8a26acd8e10399,,,,,,,,,,,,,,,,,,,,,,,,,,,,,,,,,,,,,,,,,,,,,,,,,,,,,,,,,,,,,,,,,,,,,,,,,,,,,,,,,,,,,,,,,,,,"[""period""]",0,[0.07039999999983593],58,0,58,0,1,,
,,,,,,,,,,,,5dac841d79d2ea001600357e,22,Mężczyzna,2022-06-11_09h46.58.689,task,2021.1.4,Win32,70.57661091,6299f149e92ead563fba08ef,62a44720ef8a26acd8e10399,,,,,,,,,,,,,,,,,,,,,,,,,,,,,,,,,,,,,,,,,,,,,,,,,,,,,,,,,,,,,,,,,,,,,,,,,,,,,,,,,,,,,,,,,,,,"[""comma"",""period""]",0,"[0.27159999999980755,1.974999999999909]",59,0,59,0,1,,
,,,,,,,,,,,,5dac841d79d2ea001600357e,22,Mężczyzna,2022-06-11_09h46.58.689,task,2021.1.4,Win32,70.57661091,6299f149e92ead563fba08ef,62a44720ef8a26acd8e10399,,,,,,,,,,,,,,,,,,,,,,,,,,,,,,,,,,,,,,,,,,,,,,,,,,,,,,,,,,,,,,,,,,,,,,,,,,,,,,,,,,,,,,,,,,,,"[""comma""]",0,[1.9027999999998428],60,0,60,0,1,,
,,,,,,,,,,,,5dac841d79d2ea001600357e,22,Mężczyzna,2022-06-11_09h46.58.689,task,2021.1.4,Win32,70.57661091,6299f149e92ead563fba08ef,62a44720ef8a26acd8e10399,,,,,,,,,,,,,,,,,,,,,,,,,,,,,,,,,,,,,,,,,,,,,,,,,,,,,,,,,,,,,,,,,,,,,,,,,,,,,,,,,,,,,,,,,,,,,0,,61,0,61,0,1,,
,,,,,,,,,,,,5dac841d79d2ea001600357e,22,Mężczyzna,2022-06-11_09h46.58.689,task,2021.1.4,Win32,70.57661091,6299f149e92ead563fba08ef,62a44720ef8a26acd8e10399,,,,,,,,,,,,,,,,,,,,,,,,,,,,,,,,,,,,,,,,,,,,,,,,,,,,,,,,,,,,,,,,,,,,,,,,,,,,,,,,,,,,,,,,,,,,"[""comma""]",0,[0.12459999999987303],62,0,62,0,1,,
,,,,,,,,,,,,5dac841d79d2ea001600357e,22,Mężczyzna,2022-06-11_09h46.58.689,task,2021.1.4,Win32,70.57661091,6299f149e92ead563fba08ef,62a44720ef8a26acd8e10399,,,,,,,,,,,,,,,,,,,,,,,,,,,,,,,,,,,,,,,,,,,,,,,,,,,,,,,,,,,,,,,,,,,,,,,,,,,,,,,,,,,,,,,,,,,,"[""period""]",0,[0.3143000000000029],63,0,63,0,1,,
,,,,,,,,,,,,5dac841d79d2ea001600357e,22,Mężczyzna,2022-06-11_09h46.58.689,task,2021.1.4,Win32,70.57661091,6299f149e92ead563fba08ef,62a44720ef8a26acd8e10399,,,,,,,,,,,,,,,,,,,,,,,,,,,,,,,,,,,,,,,,,,,,,,,,,,,,,,,,,,,,,,,,,,,,,,,,,,,,,,,,,,,,,,,,,,,,"[""period""]",0,[0.20750000000020918],64,0,64,0,1,,
,,,,,,,,,,,,5dac841d79d2ea001600357e,22,Mężczyzna,2022-06-11_09h46.58.689,task,2021.1.4,Win32,70.57661091,6299f149e92ead563fba08ef,62a44720ef8a26acd8e10399,,,,,,,,,,,,,,,,,,,,,,,,,,,,,,,,,,,,,,,,,,,,,,,,,,,,,,,,,,,,,,,,,,,,,,,,,,,,,,,,,,,,,,,,,,,,"[""period""]",0,[0.2798999999999978],65,0,65,0,1,,
,,,,,,,,,,,,5dac841d79d2ea001600357e,22,Mężczyzna,2022-06-11_09h46.58.689,task,2021.1.4,Win32,70.57661091,6299f149e92ead563fba08ef,62a44720ef8a26acd8e10399,,,,,,,,,,,,,,,,,,,,,,,,,,,,,,,,,,,,,,,,,,,,,,,,,,,,,,,,,,,,,,,,,,,,,,,,,,,,,,,,,,,,,,,,,,,,"[""comma"",""period""]",0,"[0.22729999999978645,1.9520999999997457]",66,0,66,0,1,,
,,,,,,,,,,,,5dac841d79d2ea001600357e,22,Mężczyzna,2022-06-11_09h46.58.689,task,2021.1.4,Win32,70.57661091,6299f149e92ead563fba08ef,62a44720ef8a26acd8e10399,,,,,,,,,,,,,,,,,,,,,,,,,,,,,,,,,,,,,,,,,,,,,,,,,,,,,,,,,,,,,,,,,,,,,,,,,,,,,,,,,,,,,,,,,,,,,0,,67,0,67,0,1,,
,,,,,,,,,,,,5dac841d79d2ea001600357e,22,Mężczyzna,2022-06-11_09h46.58.689,task,2021.1.4,Win32,70.57661091,6299f149e92ead563fba08ef,62a44720ef8a26acd8e10399,,,,,,,,,,,,,,,,,,,,,,,,,,,,,,,,,,,,,,,,,,,,,,,,,,,,,,,,,,,,,,,,,,,,,,,,,,,,,,,,,,,,,,,,,,,,"[""comma""]",0,[0.20229999999992287],68,0,68,0,1,,
,,,,,,,,,,,,5dac841d79d2ea001600357e,22,Mężczyzna,2022-06-11_09h46.58.689,task,2021.1.4,Win32,70.57661091,6299f149e92ead563fba08ef,62a44720ef8a26acd8e10399,,,,,,,,,,,,,,,,,,,,,,,,,,,,,,,,,,,,,,,,,,,,,,,,,,,,,,,,,,,,,,,,,,,,,,,,,,,,,,,,,,,,,,,,,,,,"[""period""]",0,[0.27150000000006],69,0,69,0,1,,
,,,,,,,,,,,,5dac841d79d2ea001600357e,22,Mężczyzna,2022-06-11_09h46.58.689,task,2021.1.4,Win32,70.57661091,6299f149e92ead563fba08ef,62a44720ef8a26acd8e10399,,,,,,,,,,,,,,,,,,,,,,,,,,,,,,,,,,,,,,,,,,,,,,,,,,,,,,,,,,,,,,,,,,,,,,,,,,,,,,,,,,,,,,,,,,,,"[""comma""]",0,[0.2420999999999367],70,0,70,0,1,,
,,,,,,,,,,,,5dac841d79d2ea001600357e,22,Mężczyzna,2022-06-11_09h46.58.689,task,2021.1.4,Win32,70.57661091,6299f149e92ead563fba08ef,62a44720ef8a26acd8e10399,,,,,,,,,,,,,,,,,,,,,,,,,,,,,,,,,,,,,,,,,,,,,,,,,,,,,,,,,,,,,,,,,,,,,,,,,,,,,,,,,,,,,,,,,,,,"[""period""]",0,[0.3129999999998745],71,0,71,0,1,,
,,,,,,,,,,,,5dac841d79d2ea001600357e,22,Mężczyzna,2022-06-11_09h46.58.689,task,2021.1.4,Win32,70.57661091,6299f149e92ead563fba08ef,62a44720ef8a26acd8e10399,,,,,,,,,,,,,,,,,,,,,,,,,,,,,,,,,,,,,,,,,,,,,,,,,,,,,,,,,,,,,,,,,,,,,,,,,,,,,,,,,,,,,,,,,,,,"[""comma""]",0,[0.27880000000004657],72,0,72,0,1,,
,,,,,,,,,,,,5dac841d79d2ea001600357e,22,Mężczyzna,2022-06-11_09h46.58.689,task,2021.1.4,Win32,70.57661091,6299f149e92ead563fba08ef,62a44720ef8a26acd8e10399,,,,,,,,,,,,,,,,,,,,,,,,,,,,,,,,,,,,,,,,,,,,,,,,,,,,,,,,,,,,,,,,,,,,,,,,,,,,,,,,,,,,,,,,,,,,"[""period""]",0,[0.3967000000000098],73,0,73,0,1,,
,,,,,,,,,,,,5dac841d79d2ea001600357e,22,Mężczyzna,2022-06-11_09h46.58.689,task,2021.1.4,Win32,70.57661091,6299f149e92ead563fba08ef,62a44720ef8a26acd8e10399,,,,,,,,,,,,,,,,,,,,,,,,,,,,,,,,,,,,,,,,,,,,,,,,,,,,,,,,,,,,,,,,,,,,,,,,,,,,,,,,,,,,,,,,,,,,"[""comma""]",0,[0.21579999999971733],74,0,74,0,1,,
,,,,,,,,,,,,5dac841d79d2ea001600357e,22,Mężczyzna,2022-06-11_09h46.58.689,task,2021.1.4,Win32,70.57661091,6299f149e92ead563fba08ef,62a44720ef8a26acd8e10399,,,,,,,,,,,,,,,,,,,,,,,,,,,,,,,,,,,,,,,,,,,,,,,,,,,,,,,,,,,,,,,,,,,,,,,,,,,,,,,,,,,,,,,,,,,,"[""period""]",0,[0.25060000000007676],75,0,75,0,1,,
,,,,,,,,,,,,5dac841d79d2ea001600357e,22,Mężczyzna,2022-06-11_09h46.58.689,task,2021.1.4,Win32,70.57661091,6299f149e92ead563fba08ef,62a44720ef8a26acd8e10399,,,,,,,,,,,,,,,,,,,,,,,,,,,,,,,,,,,,,,,,,,,,,,,,,,,,,,,,,,,,,,,,,,,,,,,,,,,,,,,,,,,,,,,,,,,,"[""comma""]",0,[0.08510000000001128],76,0,76,0,1,,
,,,,,,,,,,,,5dac841d79d2ea001600357e,22,Mężczyzna,2022-06-11_09h46.58.689,task,2021.1.4,Win32,70.57661091,6299f149e92ead563fba08ef,62a44720ef8a26acd8e10399,,,,,,,,,,,,,,,,,,,,,,,,,,,,,,,,,,,,,,,,,,,,,,,,,,,,,,,,,,,,,,,,,,,,,,,,,,,,,,,,,,,,,,,,,,,,"[""period""]",0,[0.20250000000010004],77,0,77,0,1,,
,,,,,,,,,,,,5dac841d79d2ea001600357e,22,Mężczyzna,2022-06-11_09h46.58.689,task,2021.1.4,Win32,70.57661091,6299f149e92ead563fba08ef,62a44720ef8a26acd8e10399,,,,,,,,,,,,,,,,,,,,,,,,,,,,,,,,,,,,,,,,,,,,,,,,,,,,,,,,,,,,,,,,,,,,,,,,,,,,,,,,,,,,,,,,,,,,"[""comma""]",0,[0.20959999999990941],78,0,78,0,1,,
,,,,,,,,,,,,5dac841d79d2ea001600357e,22,Mężczyzna,2022-06-11_09h46.58.689,task,2021.1.4,Win32,70.57661091,6299f149e92ead563fba08ef,62a44720ef8a26acd8e10399,,,,,,,,,,,,,,,,,,,,,,,,,,,,,,,,,,,,,,,,,,,,,,,,,,,,,,,,,,,,,,,,,,,,,,,,,,,,,,,,,,,,,,,,,,,,"[""period""]",0,[0.1893000000000029],79,0,79,0,1,,
,,,,,,,,,,,,5dac841d79d2ea001600357e,22,Mężczyzna,2022-06-11_09h46.58.689,task,2021.1.4,Win32,70.57661091,6299f149e92ead563fba08ef,62a44720ef8a26acd8e10399,,,,,,,,,,,,,,,,,,,,,,,,,,,,,,,,,,,,,,,,,,,,,,,,,,,,,,,,,,,,,,,,,,,,,,,,,,,,,,,,,,,,,,,,,,,,"[""comma""]",0,[0.13299999999981083],80,0,80,0,1,,
