key_resp_15.keys,key_resp_15.rt,key_resp_13.keys,key_resp_13.corr,key_resp_13.rt,ranodm_loop.thisRepN,ranodm_loop.thisTrialN,ranodm_loop.thisN,ranodm_loop.thisIndex,ranodm_loop.ran,participant,Wiek*,Płeć,date,expName,psychopyVersion,OS,frameRate,study_id,session,key_resp_16.keys,key_resp_16.rt,key_resp_4.keys,key_resp_4.rt,next_letter.thisRepN,next_letter.thisTrialN,next_letter.thisN,next_letter.thisIndex,next_letter.ran,letter,simple_recall,key_resp_5.keys,key_resp_5.rt,simple_recall_corr,simple_recall_corrkeys,next_level.thisRepN,next_level.thisTrialN,next_level.thisN,next_level.thisIndex,next_level.ran,key_resp_2.keys,key_resp_2.rt,digit_answer,key_resp.keys,key_resp.corr,key_resp.rt,RT_list,next_equation.thisRepN,next_equation.thisTrialN,next_equation.thisN,next_equation.thisIndex,next_equation.ran,Task,Trial,Problem,Operation_answer,processing_score,sumRT,meanRT,sumdiff,sd,RT,key_resp_3.keys,key_resp_3.rt,repeat_practice.thisRepN,repeat_practice.thisTrialN,repeat_practice.thisN,repeat_practice.thisIndex,repeat_practice.ran,key_resp_6.keys,key_resp_6.rt,key_resp_11.keys,key_resp_11.corr,key_resp_11.rt,operation_correct,repeat_if_wrong_prac.thisRepN,repeat_if_wrong_prac.thisTrialN,repeat_if_wrong_prac.thisN,repeat_if_wrong_prac.thisIndex,repeat_if_wrong_prac.ran,span_size_prac.thisRepN,span_size_prac.thisTrialN,span_size_prac.thisN,span_size_prac.thisIndex,span_size_prac.ran,complex_recall_practice,key_resp_9.keys,key_resp_9.corr,key_resp_9.rt,complex_prac_corr,span_recall_prac.thisRepN,span_recall_prac.thisTrialN,span_recall_prac.thisN,span_recall_prac.thisIndex,span_recall_prac.ran,key_resp_10.keys,key_resp_10.rt,key_resp_7.keys,key_resp_7.corr,key_resp_7.rt,repeat_if_wrong.thisRepN,repeat_if_wrong.thisTrialN,repeat_if_wrong.thisN,repeat_if_wrong.thisIndex,repeat_if_wrong.ran,span_size.thisRepN,span_size.thisTrialN,span_size.thisN,span_size.thisIndex,span_size.ran,complex_recall,key_resp_8.keys,key_resp_8.corr,key_resp_8.rt,complex_recall_corr,complex_recall_corrkeys,span_recall.thisRepN,span_recall.thisTrialN,span_recall.thisN,span_recall.thisIndex,span_recall.ran,key_resp_12.keys,key_resp_12.rt
space,62.149,"[""period""]",0,[1.7574000000953731],0,0,0,0,1,5dafea4de40355001651fa2f,27,Mężczyzna,2022-06-04_08h28.34.582,task,2021.1.4,Win32,59.91970759,628b806c463b948bc644b84f,629afaabfb1f66e5d01fab9e,,,,,,,,,,,,,,,,,,,,,,,,,,,,,,,,,,,,,,,,,,,,,,,,,,,,,,,,,,,,,,,,,,,,,,,,,,,,,,,,,,,,,,,,,,,,,,,,,,,,,,,
,,,0,,1,0,1,0,1,5dafea4de40355001651fa2f,27,Mężczyzna,2022-06-04_08h28.34.582,task,2021.1.4,Win32,59.91970759,628b806c463b948bc644b84f,629afaabfb1f66e5d01fab9e,,,,,,,,,,,,,,,,,,,,,,,,,,,,,,,,,,,,,,,,,,,,,,,,,,,,,,,,,,,,,,,,,,,,,,,,,,,,,,,,,,,,,,,,,,,,,,,,,,,,,,,
,,"[""period""]",0,[0.19110000014305228],2,0,2,0,1,5dafea4de40355001651fa2f,27,Mężczyzna,2022-06-04_08h28.34.582,task,2021.1.4,Win32,59.91970759,628b806c463b948bc644b84f,629afaabfb1f66e5d01fab9e,,,,,,,,,,,,,,,,,,,,,,,,,,,,,,,,,,,,,,,,,,,,,,,,,,,,,,,,,,,,,,,,,,,,,,,,,,,,,,,,,,,,,,,,,,,,,,,,,,,,,,,
,,"[""comma""]",0,[0.5518999998569427],3,0,3,0,1,5dafea4de40355001651fa2f,27,Mężczyzna,2022-06-04_08h28.34.582,task,2021.1.4,Win32,59.91970759,628b806c463b948bc644b84f,629afaabfb1f66e5d01fab9e,,,,,,,,,,,,,,,,,,,,,,,,,,,,,,,,,,,,,,,,,,,,,,,,,,,,,,,,,,,,,,,,,,,,,,,,,,,,,,,,,,,,,,,,,,,,,,,,,,,,,,,
,,"[""period""]",0,[0.41839999985694476],4,0,4,0,1,5dafea4de40355001651fa2f,27,Mężczyzna,2022-06-04_08h28.34.582,task,2021.1.4,Win32,59.91970759,628b806c463b948bc644b84f,629afaabfb1f66e5d01fab9e,,,,,,,,,,,,,,,,,,,,,,,,,,,,,,,,,,,,,,,,,,,,,,,,,,,,,,,,,,,,,,,,,,,,,,,,,,,,,,,,,,,,,,,,,,,,,,,,,,,,,,,
,,"[""period""]",0,[0.5001000001430498],5,0,5,0,1,5dafea4de40355001651fa2f,27,Mężczyzna,2022-06-04_08h28.34.582,task,2021.1.4,Win32,59.91970759,628b806c463b948bc644b84f,629afaabfb1f66e5d01fab9e,,,,,,,,,,,,,,,,,,,,,,,,,,,,,,,,,,,,,,,,,,,,,,,,,,,,,,,,,,,,,,,,,,,,,,,,,,,,,,,,,,,,,,,,,,,,,,,,,,,,,,,
,,"[""period""]",0,[0.4605999999046162],6,0,6,0,1,5dafea4de40355001651fa2f,27,Mężczyzna,2022-06-04_08h28.34.582,task,2021.1.4,Win32,59.91970759,628b806c463b948bc644b84f,629afaabfb1f66e5d01fab9e,,,,,,,,,,,,,,,,,,,,,,,,,,,,,,,,,,,,,,,,,,,,,,,,,,,,,,,,,,,,,,,,,,,,,,,,,,,,,,,,,,,,,,,,,,,,,,,,,,,,,,,
,,"[""comma""]",0,[0.3792000000476605],7,0,7,0,1,5dafea4de40355001651fa2f,27,Mężczyzna,2022-06-04_08h28.34.582,task,2021.1.4,Win32,59.91970759,628b806c463b948bc644b84f,629afaabfb1f66e5d01fab9e,,,,,,,,,,,,,,,,,,,,,,,,,,,,,,,,,,,,,,,,,,,,,,,,,,,,,,,,,,,,,,,,,,,,,,,,,,,,,,,,,,,,,,,,,,,,,,,,,,,,,,,
,,"[""comma""]",0,[0.3892999999522999],8,0,8,0,1,5dafea4de40355001651fa2f,27,Mężczyzna,2022-06-04_08h28.34.582,task,2021.1.4,Win32,59.91970759,628b806c463b948bc644b84f,629afaabfb1f66e5d01fab9e,,,,,,,,,,,,,,,,,,,,,,,,,,,,,,,,,,,,,,,,,,,,,,,,,,,,,,,,,,,,,,,,,,,,,,,,,,,,,,,,,,,,,,,,,,,,,,,,,,,,,,,
,,"[""period""]",0,[0.3431000001430675],9,0,9,0,1,5dafea4de40355001651fa2f,27,Mężczyzna,2022-06-04_08h28.34.582,task,2021.1.4,Win32,59.91970759,628b806c463b948bc644b84f,629afaabfb1f66e5d01fab9e,,,,,,,,,,,,,,,,,,,,,,,,,,,,,,,,,,,,,,,,,,,,,,,,,,,,,,,,,,,,,,,,,,,,,,,,,,,,,,,,,,,,,,,,,,,,,,,,,,,,,,,
,,"[""period""]",0,[0.407900000095367],10,0,10,0,1,5dafea4de40355001651fa2f,27,Mężczyzna,2022-06-04_08h28.34.582,task,2021.1.4,Win32,59.91970759,628b806c463b948bc644b84f,629afaabfb1f66e5d01fab9e,,,,,,,,,,,,,,,,,,,,,,,,,,,,,,,,,,,,,,,,,,,,,,,,,,,,,,,,,,,,,,,,,,,,,,,,,,,,,,,,,,,,,,,,,,,,,,,,,,,,,,,
,,"[""comma""]",0,[0.3791000001430689],11,0,11,0,1,5dafea4de40355001651fa2f,27,Mężczyzna,2022-06-04_08h28.34.582,task,2021.1.4,Win32,59.91970759,628b806c463b948bc644b84f,629afaabfb1f66e5d01fab9e,,,,,,,,,,,,,,,,,,,,,,,,,,,,,,,,,,,,,,,,,,,,,,,,,,,,,,,,,,,,,,,,,,,,,,,,,,,,,,,,,,,,,,,,,,,,,,,,,,,,,,,
,,"[""period""]",0,[0.3443000001907137],12,0,12,0,1,5dafea4de40355001651fa2f,27,Mężczyzna,2022-06-04_08h28.34.582,task,2021.1.4,Win32,59.91970759,628b806c463b948bc644b84f,629afaabfb1f66e5d01fab9e,,,,,,,,,,,,,,,,,,,,,,,,,,,,,,,,,,,,,,,,,,,,,,,,,,,,,,,,,,,,,,,,,,,,,,,,,,,,,,,,,,,,,,,,,,,,,,,,,,,,,,,
,,"[""comma""]",0,[0.3072999999523063],13,0,13,0,1,5dafea4de40355001651fa2f,27,Mężczyzna,2022-06-04_08h28.34.582,task,2021.1.4,Win32,59.91970759,628b806c463b948bc644b84f,629afaabfb1f66e5d01fab9e,,,,,,,,,,,,,,,,,,,,,,,,,,,,,,,,,,,,,,,,,,,,,,,,,,,,,,,,,,,,,,,,,,,,,,,,,,,,,,,,,,,,,,,,,,,,,,,,,,,,,,,
,,"[""period""]",0,[0.4202999999523058],14,0,14,0,1,5dafea4de40355001651fa2f,27,Mężczyzna,2022-06-04_08h28.34.582,task,2021.1.4,Win32,59.91970759,628b806c463b948bc644b84f,629afaabfb1f66e5d01fab9e,,,,,,,,,,,,,,,,,,,,,,,,,,,,,,,,,,,,,,,,,,,,,,,,,,,,,,,,,,,,,,,,,,,,,,,,,,,,,,,,,,,,,,,,,,,,,,,,,,,,,,,
,,"[""period""]",0,[0.5046000001430286],15,0,15,0,1,5dafea4de40355001651fa2f,27,Mężczyzna,2022-06-04_08h28.34.582,task,2021.1.4,Win32,59.91970759,628b806c463b948bc644b84f,629afaabfb1f66e5d01fab9e,,,,,,,,,,,,,,,,,,,,,,,,,,,,,,,,,,,,,,,,,,,,,,,,,,,,,,,,,,,,,,,,,,,,,,,,,,,,,,,,,,,,,,,,,,,,,,,,,,,,,,,
,,"[""period""]",0,[0.3374000000953572],16,0,16,0,1,5dafea4de40355001651fa2f,27,Mężczyzna,2022-06-04_08h28.34.582,task,2021.1.4,Win32,59.91970759,628b806c463b948bc644b84f,629afaabfb1f66e5d01fab9e,,,,,,,,,,,,,,,,,,,,,,,,,,,,,,,,,,,,,,,,,,,,,,,,,,,,,,,,,,,,,,,,,,,,,,,,,,,,,,,,,,,,,,,,,,,,,,,,,,,,,,,
,,"[""comma""]",0,[0.3156000001430641],17,0,17,0,1,5dafea4de40355001651fa2f,27,Mężczyzna,2022-06-04_08h28.34.582,task,2021.1.4,Win32,59.91970759,628b806c463b948bc644b84f,629afaabfb1f66e5d01fab9e,,,,,,,,,,,,,,,,,,,,,,,,,,,,,,,,,,,,,,,,,,,,,,,,,,,,,,,,,,,,,,,,,,,,,,,,,,,,,,,,,,,,,,,,,,,,,,,,,,,,,,,
,,"[""period""]",0,[0.2937000000476928],18,0,18,0,1,5dafea4de40355001651fa2f,27,Mężczyzna,2022-06-04_08h28.34.582,task,2021.1.4,Win32,59.91970759,628b806c463b948bc644b84f,629afaabfb1f66e5d01fab9e,,,,,,,,,,,,,,,,,,,,,,,,,,,,,,,,,,,,,,,,,,,,,,,,,,,,,,,,,,,,,,,,,,,,,,,,,,,,,,,,,,,,,,,,,,,,,,,,,,,,,,,
,,"[""period""]",0,[0.2954000000953556],19,0,19,0,1,5dafea4de40355001651fa2f,27,Mężczyzna,2022-06-04_08h28.34.582,task,2021.1.4,Win32,59.91970759,628b806c463b948bc644b84f,629afaabfb1f66e5d01fab9e,,,,,,,,,,,,,,,,,,,,,,,,,,,,,,,,,,,,,,,,,,,,,,,,,,,,,,,,,,,,,,,,,,,,,,,,,,,,,,,,,,,,,,,,,,,,,,,,,,,,,,,
,,"[""period""]",0,[0.29699999999999704],20,0,20,0,1,5dafea4de40355001651fa2f,27,Mężczyzna,2022-06-04_08h28.34.582,task,2021.1.4,Win32,59.91970759,628b806c463b948bc644b84f,629afaabfb1f66e5d01fab9e,,,,,,,,,,,,,,,,,,,,,,,,,,,,,,,,,,,,,,,,,,,,,,,,,,,,,,,,,,,,,,,,,,,,,,,,,,,,,,,,,,,,,,,,,,,,,,,,,,,,,,,
,,"[""comma""]",0,[0.46779999995231947],21,0,21,0,1,5dafea4de40355001651fa2f,27,Mężczyzna,2022-06-04_08h28.34.582,task,2021.1.4,Win32,59.91970759,628b806c463b948bc644b84f,629afaabfb1f66e5d01fab9e,,,,,,,,,,,,,,,,,,,,,,,,,,,,,,,,,,,,,,,,,,,,,,,,,,,,,,,,,,,,,,,,,,,,,,,,,,,,,,,,,,,,,,,,,,,,,,,,,,,,,,,
,,"[""comma""]",0,[0.4592999999523215],22,0,22,0,1,5dafea4de40355001651fa2f,27,Mężczyzna,2022-06-04_08h28.34.582,task,2021.1.4,Win32,59.91970759,628b806c463b948bc644b84f,629afaabfb1f66e5d01fab9e,,,,,,,,,,,,,,,,,,,,,,,,,,,,,,,,,,,,,,,,,,,,,,,,,,,,,,,,,,,,,,,,,,,,,,,,,,,,,,,,,,,,,,,,,,,,,,,,,,,,,,,
,,"[""comma""]",0,[0.5044000000953588],23,0,23,0,1,5dafea4de40355001651fa2f,27,Mężczyzna,2022-06-04_08h28.34.582,task,2021.1.4,Win32,59.91970759,628b806c463b948bc644b84f,629afaabfb1f66e5d01fab9e,,,,,,,,,,,,,,,,,,,,,,,,,,,,,,,,,,,,,,,,,,,,,,,,,,,,,,,,,,,,,,,,,,,,,,,,,,,,,,,,,,,,,,,,,,,,,,,,,,,,,,,
,,"[""comma""]",0,[0.33109999990463734],24,0,24,0,1,5dafea4de40355001651fa2f,27,Mężczyzna,2022-06-04_08h28.34.582,task,2021.1.4,Win32,59.91970759,628b806c463b948bc644b84f,629afaabfb1f66e5d01fab9e,,,,,,,,,,,,,,,,,,,,,,,,,,,,,,,,,,,,,,,,,,,,,,,,,,,,,,,,,,,,,,,,,,,,,,,,,,,,,,,,,,,,,,,,,,,,,,,,,,,,,,,
,,"[""period""]",0,[0.33879999995230037],25,0,25,0,1,5dafea4de40355001651fa2f,27,Mężczyzna,2022-06-04_08h28.34.582,task,2021.1.4,Win32,59.91970759,628b806c463b948bc644b84f,629afaabfb1f66e5d01fab9e,,,,,,,,,,,,,,,,,,,,,,,,,,,,,,,,,,,,,,,,,,,,,,,,,,,,,,,,,,,,,,,,,,,,,,,,,,,,,,,,,,,,,,,,,,,,,,,,,,,,,,,
,,"[""comma""]",0,[0.2667000000476776],26,0,26,0,1,5dafea4de40355001651fa2f,27,Mężczyzna,2022-06-04_08h28.34.582,task,2021.1.4,Win32,59.91970759,628b806c463b948bc644b84f,629afaabfb1f66e5d01fab9e,,,,,,,,,,,,,,,,,,,,,,,,,,,,,,,,,,,,,,,,,,,,,,,,,,,,,,,,,,,,,,,,,,,,,,,,,,,,,,,,,,,,,,,,,,,,,,,,,,,,,,,
,,"[""comma""]",0,[0.24970000004768167],27,0,27,0,1,5dafea4de40355001651fa2f,27,Mężczyzna,2022-06-04_08h28.34.582,task,2021.1.4,Win32,59.91970759,628b806c463b948bc644b84f,629afaabfb1f66e5d01fab9e,,,,,,,,,,,,,,,,,,,,,,,,,,,,,,,,,,,,,,,,,,,,,,,,,,,,,,,,,,,,,,,,,,,,,,,,,,,,,,,,,,,,,,,,,,,,,,,,,,,,,,,
,,"[""period""]",0,[0.26979999995231196],28,0,28,0,1,5dafea4de40355001651fa2f,27,Mężczyzna,2022-06-04_08h28.34.582,task,2021.1.4,Win32,59.91970759,628b806c463b948bc644b84f,629afaabfb1f66e5d01fab9e,,,,,,,,,,,,,,,,,,,,,,,,,,,,,,,,,,,,,,,,,,,,,,,,,,,,,,,,,,,,,,,,,,,,,,,,,,,,,,,,,,,,,,,,,,,,,,,,,,,,,,,
,,"[""period""]",0,[0.2295000000000016],29,0,29,0,1,5dafea4de40355001651fa2f,27,Mężczyzna,2022-06-04_08h28.34.582,task,2021.1.4,Win32,59.91970759,628b806c463b948bc644b84f,629afaabfb1f66e5d01fab9e,,,,,,,,,,,,,,,,,,,,,,,,,,,,,,,,,,,,,,,,,,,,,,,,,,,,,,,,,,,,,,,,,,,,,,,,,,,,,,,,,,,,,,,,,,,,,,,,,,,,,,,
,,"[""comma""]",0,[0.33679999995231924],30,0,30,0,1,5dafea4de40355001651fa2f,27,Mężczyzna,2022-06-04_08h28.34.582,task,2021.1.4,Win32,59.91970759,628b806c463b948bc644b84f,629afaabfb1f66e5d01fab9e,,,,,,,,,,,,,,,,,,,,,,,,,,,,,,,,,,,,,,,,,,,,,,,,,,,,,,,,,,,,,,,,,,,,,,,,,,,,,,,,,,,,,,,,,,,,,,,,,,,,,,,
,,"[""period""]",0,[0.3032999999523156],31,0,31,0,1,5dafea4de40355001651fa2f,27,Mężczyzna,2022-06-04_08h28.34.582,task,2021.1.4,Win32,59.91970759,628b806c463b948bc644b84f,629afaabfb1f66e5d01fab9e,,,,,,,,,,,,,,,,,,,,,,,,,,,,,,,,,,,,,,,,,,,,,,,,,,,,,,,,,,,,,,,,,,,,,,,,,,,,,,,,,,,,,,,,,,,,,,,,,,,,,,,
,,"[""period""]",0,[0.35550000000000637],32,0,32,0,1,5dafea4de40355001651fa2f,27,Mężczyzna,2022-06-04_08h28.34.582,task,2021.1.4,Win32,59.91970759,628b806c463b948bc644b84f,629afaabfb1f66e5d01fab9e,,,,,,,,,,,,,,,,,,,,,,,,,,,,,,,,,,,,,,,,,,,,,,,,,,,,,,,,,,,,,,,,,,,,,,,,,,,,,,,,,,,,,,,,,,,,,,,,,,,,,,,
,,"[""comma""]",0,[0.3188999998569386],33,0,33,0,1,5dafea4de40355001651fa2f,27,Mężczyzna,2022-06-04_08h28.34.582,task,2021.1.4,Win32,59.91970759,628b806c463b948bc644b84f,629afaabfb1f66e5d01fab9e,,,,,,,,,,,,,,,,,,,,,,,,,,,,,,,,,,,,,,,,,,,,,,,,,,,,,,,,,,,,,,,,,,,,,,,,,,,,,,,,,,,,,,,,,,,,,,,,,,,,,,,
,,"[""period""]",0,[0.3088999998569477],34,0,34,0,1,5dafea4de40355001651fa2f,27,Mężczyzna,2022-06-04_08h28.34.582,task,2021.1.4,Win32,59.91970759,628b806c463b948bc644b84f,629afaabfb1f66e5d01fab9e,,,,,,,,,,,,,,,,,,,,,,,,,,,,,,,,,,,,,,,,,,,,,,,,,,,,,,,,,,,,,,,,,,,,,,,,,,,,,,,,,,,,,,,,,,,,,,,,,,,,,,,
,,"[""comma""]",0,[0.31759999990464394],35,0,35,0,1,5dafea4de40355001651fa2f,27,Mężczyzna,2022-06-04_08h28.34.582,task,2021.1.4,Win32,59.91970759,628b806c463b948bc644b84f,629afaabfb1f66e5d01fab9e,,,,,,,,,,,,,,,,,,,,,,,,,,,,,,,,,,,,,,,,,,,,,,,,,,,,,,,,,,,,,,,,,,,,,,,,,,,,,,,,,,,,,,,,,,,,,,,,,,,,,,,
,,"[""period""]",0,[0.32749999999998636],36,0,36,0,1,5dafea4de40355001651fa2f,27,Mężczyzna,2022-06-04_08h28.34.582,task,2021.1.4,Win32,59.91970759,628b806c463b948bc644b84f,629afaabfb1f66e5d01fab9e,,,,,,,,,,,,,,,,,,,,,,,,,,,,,,,,,,,,,,,,,,,,,,,,,,,,,,,,,,,,,,,,,,,,,,,,,,,,,,,,,,,,,,,,,,,,,,,,,,,,,,,
,,"[""period""]",0,[0.26560000014305274],37,0,37,0,1,5dafea4de40355001651fa2f,27,Mężczyzna,2022-06-04_08h28.34.582,task,2021.1.4,Win32,59.91970759,628b806c463b948bc644b84f,629afaabfb1f66e5d01fab9e,,,,,,,,,,,,,,,,,,,,,,,,,,,,,,,,,,,,,,,,,,,,,,,,,,,,,,,,,,,,,,,,,,,,,,,,,,,,,,,,,,,,,,,,,,,,,,,,,,,,,,,
,,"[""period""]",0,[0.3304000000953522],38,0,38,0,1,5dafea4de40355001651fa2f,27,Mężczyzna,2022-06-04_08h28.34.582,task,2021.1.4,Win32,59.91970759,628b806c463b948bc644b84f,629afaabfb1f66e5d01fab9e,,,,,,,,,,,,,,,,,,,,,,,,,,,,,,,,,,,,,,,,,,,,,,,,,,,,,,,,,,,,,,,,,,,,,,,,,,,,,,,,,,,,,,,,,,,,,,,,,,,,,,,
,,"[""period""]",0,[0.3259000000953449],39,0,39,0,1,5dafea4de40355001651fa2f,27,Mężczyzna,2022-06-04_08h28.34.582,task,2021.1.4,Win32,59.91970759,628b806c463b948bc644b84f,629afaabfb1f66e5d01fab9e,,,,,,,,,,,,,,,,,,,,,,,,,,,,,,,,,,,,,,,,,,,,,,,,,,,,,,,,,,,,,,,,,,,,,,,,,,,,,,,,,,,,,,,,,,,,,,,,,,,,,,,
,,"[""comma""]",0,[0.24449999999998795],40,0,40,0,1,5dafea4de40355001651fa2f,27,Mężczyzna,2022-06-04_08h28.34.582,task,2021.1.4,Win32,59.91970759,628b806c463b948bc644b84f,629afaabfb1f66e5d01fab9e,,,,,,,,,,,,,,,,,,,,,,,,,,,,,,,,,,,,,,,,,,,,,,,,,,,,,,,,,,,,,,,,,,,,,,,,,,,,,,,,,,,,,,,,,,,,,,,,,,,,,,,
,,"[""comma""]",0,[0.29089999985697546],41,0,41,0,1,5dafea4de40355001651fa2f,27,Mężczyzna,2022-06-04_08h28.34.582,task,2021.1.4,Win32,59.91970759,628b806c463b948bc644b84f,629afaabfb1f66e5d01fab9e,,,,,,,,,,,,,,,,,,,,,,,,,,,,,,,,,,,,,,,,,,,,,,,,,,,,,,,,,,,,,,,,,,,,,,,,,,,,,,,,,,,,,,,,,,,,,,,,,,,,,,,
,,"[""period""]",0,[0.3849999999999909],42,0,42,0,1,5dafea4de40355001651fa2f,27,Mężczyzna,2022-06-04_08h28.34.582,task,2021.1.4,Win32,59.91970759,628b806c463b948bc644b84f,629afaabfb1f66e5d01fab9e,,,,,,,,,,,,,,,,,,,,,,,,,,,,,,,,,,,,,,,,,,,,,,,,,,,,,,,,,,,,,,,,,,,,,,,,,,,,,,,,,,,,,,,,,,,,,,,,,,,,,,,
,,"[""period""]",0,[0.4289999999999736],43,0,43,0,1,5dafea4de40355001651fa2f,27,Mężczyzna,2022-06-04_08h28.34.582,task,2021.1.4,Win32,59.91970759,628b806c463b948bc644b84f,629afaabfb1f66e5d01fab9e,,,,,,,,,,,,,,,,,,,,,,,,,,,,,,,,,,,,,,,,,,,,,,,,,,,,,,,,,,,,,,,,,,,,,,,,,,,,,,,,,,,,,,,,,,,,,,,,,,,,,,,
,,"[""comma""]",0,[1.0422000000476714],44,0,44,0,1,5dafea4de40355001651fa2f,27,Mężczyzna,2022-06-04_08h28.34.582,task,2021.1.4,Win32,59.91970759,628b806c463b948bc644b84f,629afaabfb1f66e5d01fab9e,,,,,,,,,,,,,,,,,,,,,,,,,,,,,,,,,,,,,,,,,,,,,,,,,,,,,,,,,,,,,,,,,,,,,,,,,,,,,,,,,,,,,,,,,,,,,,,,,,,,,,,
,,"[""comma""]",0,[0.77800000000002],45,0,45,0,1,5dafea4de40355001651fa2f,27,Mężczyzna,2022-06-04_08h28.34.582,task,2021.1.4,Win32,59.91970759,628b806c463b948bc644b84f,629afaabfb1f66e5d01fab9e,,,,,,,,,,,,,,,,,,,,,,,,,,,,,,,,,,,,,,,,,,,,,,,,,,,,,,,,,,,,,,,,,,,,,,,,,,,,,,,,,,,,,,,,,,,,,,,,,,,,,,,
,,"[""period""]",0,[0.3500999999046144],46,0,46,0,1,5dafea4de40355001651fa2f,27,Mężczyzna,2022-06-04_08h28.34.582,task,2021.1.4,Win32,59.91970759,628b806c463b948bc644b84f,629afaabfb1f66e5d01fab9e,,,,,,,,,,,,,,,,,,,,,,,,,,,,,,,,,,,,,,,,,,,,,,,,,,,,,,,,,,,,,,,,,,,,,,,,,,,,,,,,,,,,,,,,,,,,,,,,,,,,,,,
,,"[""comma""]",0,[0.35209999990462393],47,0,47,0,1,5dafea4de40355001651fa2f,27,Mężczyzna,2022-06-04_08h28.34.582,task,2021.1.4,Win32,59.91970759,628b806c463b948bc644b84f,629afaabfb1f66e5d01fab9e,,,,,,,,,,,,,,,,,,,,,,,,,,,,,,,,,,,,,,,,,,,,,,,,,,,,,,,,,,,,,,,,,,,,,,,,,,,,,,,,,,,,,,,,,,,,,,,,,,,,,,,
,,"[""period""]",0,[0.2672000000476942],48,0,48,0,1,5dafea4de40355001651fa2f,27,Mężczyzna,2022-06-04_08h28.34.582,task,2021.1.4,Win32,59.91970759,628b806c463b948bc644b84f,629afaabfb1f66e5d01fab9e,,,,,,,,,,,,,,,,,,,,,,,,,,,,,,,,,,,,,,,,,,,,,,,,,,,,,,,,,,,,,,,,,,,,,,,,,,,,,,,,,,,,,,,,,,,,,,,,,,,,,,,
,,"[""period""]",0,[0.3154999999999859],49,0,49,0,1,5dafea4de40355001651fa2f,27,Mężczyzna,2022-06-04_08h28.34.582,task,2021.1.4,Win32,59.91970759,628b806c463b948bc644b84f,629afaabfb1f66e5d01fab9e,,,,,,,,,,,,,,,,,,,,,,,,,,,,,,,,,,,,,,,,,,,,,,,,,,,,,,,,,,,,,,,,,,,,,,,,,,,,,,,,,,,,,,,,,,,,,,,,,,,,,,,
,,"[""comma""]",0,[0.25849999999996953],50,0,50,0,1,5dafea4de40355001651fa2f,27,Mężczyzna,2022-06-04_08h28.34.582,task,2021.1.4,Win32,59.91970759,628b806c463b948bc644b84f,629afaabfb1f66e5d01fab9e,,,,,,,,,,,,,,,,,,,,,,,,,,,,,,,,,,,,,,,,,,,,,,,,,,,,,,,,,,,,,,,,,,,,,,,,,,,,,,,,,,,,,,,,,,,,,,,,,,,,,,,
,,"[""period""]",0,[0.9109000000954097],51,0,51,0,1,5dafea4de40355001651fa2f,27,Mężczyzna,2022-06-04_08h28.34.582,task,2021.1.4,Win32,59.91970759,628b806c463b948bc644b84f,629afaabfb1f66e5d01fab9e,,,,,,,,,,,,,,,,,,,,,,,,,,,,,,,,,,,,,,,,,,,,,,,,,,,,,,,,,,,,,,,,,,,,,,,,,,,,,,,,,,,,,,,,,,,,,,,,,,,,,,,
,,"[""comma""]",0,[0.46399999999999864],52,0,52,0,1,5dafea4de40355001651fa2f,27,Mężczyzna,2022-06-04_08h28.34.582,task,2021.1.4,Win32,59.91970759,628b806c463b948bc644b84f,629afaabfb1f66e5d01fab9e,,,,,,,,,,,,,,,,,,,,,,,,,,,,,,,,,,,,,,,,,,,,,,,,,,,,,,,,,,,,,,,,,,,,,,,,,,,,,,,,,,,,,,,,,,,,,,,,,,,,,,,
,,"[""comma""]",0,[0.33419999980930015],53,0,53,0,1,5dafea4de40355001651fa2f,27,Mężczyzna,2022-06-04_08h28.34.582,task,2021.1.4,Win32,59.91970759,628b806c463b948bc644b84f,629afaabfb1f66e5d01fab9e,,,,,,,,,,,,,,,,,,,,,,,,,,,,,,,,,,,,,,,,,,,,,,,,,,,,,,,,,,,,,,,,,,,,,,,,,,,,,,,,,,,,,,,,,,,,,,,,,,,,,,,
,,"[""comma""]",0,[0.3207999999523281],54,0,54,0,1,5dafea4de40355001651fa2f,27,Mężczyzna,2022-06-04_08h28.34.582,task,2021.1.4,Win32,59.91970759,628b806c463b948bc644b84f,629afaabfb1f66e5d01fab9e,,,,,,,,,,,,,,,,,,,,,,,,,,,,,,,,,,,,,,,,,,,,,,,,,,,,,,,,,,,,,,,,,,,,,,,,,,,,,,,,,,,,,,,,,,,,,,,,,,,,,,,
,,"[""period""]",0,[0.19939999985695067],55,0,55,0,1,5dafea4de40355001651fa2f,27,Mężczyzna,2022-06-04_08h28.34.582,task,2021.1.4,Win32,59.91970759,628b806c463b948bc644b84f,629afaabfb1f66e5d01fab9e,,,,,,,,,,,,,,,,,,,,,,,,,,,,,,,,,,,,,,,,,,,,,,,,,,,,,,,,,,,,,,,,,,,,,,,,,,,,,,,,,,,,,,,,,,,,,,,,,,,,,,,
,,"[""comma""]",0,[0.2929000000954147],56,0,56,0,1,5dafea4de40355001651fa2f,27,Mężczyzna,2022-06-04_08h28.34.582,task,2021.1.4,Win32,59.91970759,628b806c463b948bc644b84f,629afaabfb1f66e5d01fab9e,,,,,,,,,,,,,,,,,,,,,,,,,,,,,,,,,,,,,,,,,,,,,,,,,,,,,,,,,,,,,,,,,,,,,,,,,,,,,,,,,,,,,,,,,,,,,,,,,,,,,,,
,,"[""period""]",0,[0.29700000000002547],57,0,57,0,1,5dafea4de40355001651fa2f,27,Mężczyzna,2022-06-04_08h28.34.582,task,2021.1.4,Win32,59.91970759,628b806c463b948bc644b84f,629afaabfb1f66e5d01fab9e,,,,,,,,,,,,,,,,,,,,,,,,,,,,,,,,,,,,,,,,,,,,,,,,,,,,,,,,,,,,,,,,,,,,,,,,,,,,,,,,,,,,,,,,,,,,,,,,,,,,,,,
,,"[""period""]",0,[0.28329999995230537],58,0,58,0,1,5dafea4de40355001651fa2f,27,Mężczyzna,2022-06-04_08h28.34.582,task,2021.1.4,Win32,59.91970759,628b806c463b948bc644b84f,629afaabfb1f66e5d01fab9e,,,,,,,,,,,,,,,,,,,,,,,,,,,,,,,,,,,,,,,,,,,,,,,,,,,,,,,,,,,,,,,,,,,,,,,,,,,,,,,,,,,,,,,,,,,,,,,,,,,,,,,
,,"[""period""]",0,[0.25200000000000955],59,0,59,0,1,5dafea4de40355001651fa2f,27,Mężczyzna,2022-06-04_08h28.34.582,task,2021.1.4,Win32,59.91970759,628b806c463b948bc644b84f,629afaabfb1f66e5d01fab9e,,,,,,,,,,,,,,,,,,,,,,,,,,,,,,,,,,,,,,,,,,,,,,,,,,,,,,,,,,,,,,,,,,,,,,,,,,,,,,,,,,,,,,,,,,,,,,,,,,,,,,,
,,"[""period""]",0,[0.2897999999523222],60,0,60,0,1,5dafea4de40355001651fa2f,27,Mężczyzna,2022-06-04_08h28.34.582,task,2021.1.4,Win32,59.91970759,628b806c463b948bc644b84f,629afaabfb1f66e5d01fab9e,,,,,,,,,,,,,,,,,,,,,,,,,,,,,,,,,,,,,,,,,,,,,,,,,,,,,,,,,,,,,,,,,,,,,,,,,,,,,,,,,,,,,,,,,,,,,,,,,,,,,,,
,,"[""comma""]",0,[0.13450000000000273],61,0,61,0,1,5dafea4de40355001651fa2f,27,Mężczyzna,2022-06-04_08h28.34.582,task,2021.1.4,Win32,59.91970759,628b806c463b948bc644b84f,629afaabfb1f66e5d01fab9e,,,,,,,,,,,,,,,,,,,,,,,,,,,,,,,,,,,,,,,,,,,,,,,,,,,,,,,,,,,,,,,,,,,,,,,,,,,,,,,,,,,,,,,,,,,,,,,,,,,,,,,
,,"[""period""]",0,[0.27019999980922194],62,0,62,0,1,5dafea4de40355001651fa2f,27,Mężczyzna,2022-06-04_08h28.34.582,task,2021.1.4,Win32,59.91970759,628b806c463b948bc644b84f,629afaabfb1f66e5d01fab9e,,,,,,,,,,,,,,,,,,,,,,,,,,,,,,,,,,,,,,,,,,,,,,,,,,,,,,,,,,,,,,,,,,,,,,,,,,,,,,,,,,,,,,,,,,,,,,,,,,,,,,,
,,"[""comma""]",0,[0.3008000001907476],63,0,63,0,1,5dafea4de40355001651fa2f,27,Mężczyzna,2022-06-04_08h28.34.582,task,2021.1.4,Win32,59.91970759,628b806c463b948bc644b84f,629afaabfb1f66e5d01fab9e,,,,,,,,,,,,,,,,,,,,,,,,,,,,,,,,,,,,,,,,,,,,,,,,,,,,,,,,,,,,,,,,,,,,,,,,,,,,,,,,,,,,,,,,,,,,,,,,,,,,,,,
,,"[""comma""]",0,[0.35740000009536743],64,0,64,0,1,5dafea4de40355001651fa2f,27,Mężczyzna,2022-06-04_08h28.34.582,task,2021.1.4,Win32,59.91970759,628b806c463b948bc644b84f,629afaabfb1f66e5d01fab9e,,,,,,,,,,,,,,,,,,,,,,,,,,,,,,,,,,,,,,,,,,,,,,,,,,,,,,,,,,,,,,,,,,,,,,,,,,,,,,,,,,,,,,,,,,,,,,,,,,,,,,,
,,"[""comma""]",0,[0.3397000000476851],65,0,65,0,1,5dafea4de40355001651fa2f,27,Mężczyzna,2022-06-04_08h28.34.582,task,2021.1.4,Win32,59.91970759,628b806c463b948bc644b84f,629afaabfb1f66e5d01fab9e,,,,,,,,,,,,,,,,,,,,,,,,,,,,,,,,,,,,,,,,,,,,,,,,,,,,,,,,,,,,,,,,,,,,,,,,,,,,,,,,,,,,,,,,,,,,,,,,,,,,,,,
,,"[""period""]",0,[0.26340000009537334],66,0,66,0,1,5dafea4de40355001651fa2f,27,Mężczyzna,2022-06-04_08h28.34.582,task,2021.1.4,Win32,59.91970759,628b806c463b948bc644b84f,629afaabfb1f66e5d01fab9e,,,,,,,,,,,,,,,,,,,,,,,,,,,,,,,,,,,,,,,,,,,,,,,,,,,,,,,,,,,,,,,,,,,,,,,,,,,,,,,,,,,,,,,,,,,,,,,,,,,,,,,
,,"[""comma""]",0,[0.3247000000476987],67,0,67,0,1,5dafea4de40355001651fa2f,27,Mężczyzna,2022-06-04_08h28.34.582,task,2021.1.4,Win32,59.91970759,628b806c463b948bc644b84f,629afaabfb1f66e5d01fab9e,,,,,,,,,,,,,,,,,,,,,,,,,,,,,,,,,,,,,,,,,,,,,,,,,,,,,,,,,,,,,,,,,,,,,,,,,,,,,,,,,,,,,,,,,,,,,,,,,,,,,,,
,,"[""comma""]",0,[0.27480000019073714],68,0,68,0,1,5dafea4de40355001651fa2f,27,Mężczyzna,2022-06-04_08h28.34.582,task,2021.1.4,Win32,59.91970759,628b806c463b948bc644b84f,629afaabfb1f66e5d01fab9e,,,,,,,,,,,,,,,,,,,,,,,,,,,,,,,,,,,,,,,,,,,,,,,,,,,,,,,,,,,,,,,,,,,,,,,,,,,,,,,,,,,,,,,,,,,,,,,,,,,,,,,
,,"[""period""]",0,[0.12329999995228036],69,0,69,0,1,5dafea4de40355001651fa2f,27,Mężczyzna,2022-06-04_08h28.34.582,task,2021.1.4,Win32,59.91970759,628b806c463b948bc644b84f,629afaabfb1f66e5d01fab9e,,,,,,,,,,,,,,,,,,,,,,,,,,,,,,,,,,,,,,,,,,,,,,,,,,,,,,,,,,,,,,,,,,,,,,,,,,,,,,,,,,,,,,,,,,,,,,,,,,,,,,,
,,"[""comma""]",0,[0.3369999999999891],70,0,70,0,1,5dafea4de40355001651fa2f,27,Mężczyzna,2022-06-04_08h28.34.582,task,2021.1.4,Win32,59.91970759,628b806c463b948bc644b84f,629afaabfb1f66e5d01fab9e,,,,,,,,,,,,,,,,,,,,,,,,,,,,,,,,,,,,,,,,,,,,,,,,,,,,,,,,,,,,,,,,,,,,,,,,,,,,,,,,,,,,,,,,,,,,,,,,,,,,,,,
,,"[""comma""]",0,[0.40550000000001774],71,0,71,0,1,5dafea4de40355001651fa2f,27,Mężczyzna,2022-06-04_08h28.34.582,task,2021.1.4,Win32,59.91970759,628b806c463b948bc644b84f,629afaabfb1f66e5d01fab9e,,,,,,,,,,,,,,,,,,,,,,,,,,,,,,,,,,,,,,,,,,,,,,,,,,,,,,,,,,,,,,,,,,,,,,,,,,,,,,,,,,,,,,,,,,,,,,,,,,,,,,,
,,"[""period""]",0,[0.332399999856932],72,0,72,0,1,5dafea4de40355001651fa2f,27,Mężczyzna,2022-06-04_08h28.34.582,task,2021.1.4,Win32,59.91970759,628b806c463b948bc644b84f,629afaabfb1f66e5d01fab9e,,,,,,,,,,,,,,,,,,,,,,,,,,,,,,,,,,,,,,,,,,,,,,,,,,,,,,,,,,,,,,,,,,,,,,,,,,,,,,,,,,,,,,,,,,,,,,,,,,,,,,,
,,"[""period""]",0,[0.2797000000476828],73,0,73,0,1,5dafea4de40355001651fa2f,27,Mężczyzna,2022-06-04_08h28.34.582,task,2021.1.4,Win32,59.91970759,628b806c463b948bc644b84f,629afaabfb1f66e5d01fab9e,,,,,,,,,,,,,,,,,,,,,,,,,,,,,,,,,,,,,,,,,,,,,,,,,,,,,,,,,,,,,,,,,,,,,,,,,,,,,,,,,,,,,,,,,,,,,,,,,,,,,,,
,,"[""period""]",0,[0.2750000000000341],74,0,74,0,1,5dafea4de40355001651fa2f,27,Mężczyzna,2022-06-04_08h28.34.582,task,2021.1.4,Win32,59.91970759,628b806c463b948bc644b84f,629afaabfb1f66e5d01fab9e,,,,,,,,,,,,,,,,,,,,,,,,,,,,,,,,,,,,,,,,,,,,,,,,,,,,,,,,,,,,,,,,,,,,,,,,,,,,,,,,,,,,,,,,,,,,,,,,,,,,,,,
,,"[""period""]",0,[1.1169000000953702],75,0,75,0,1,5dafea4de40355001651fa2f,27,Mężczyzna,2022-06-04_08h28.34.582,task,2021.1.4,Win32,59.91970759,628b806c463b948bc644b84f,629afaabfb1f66e5d01fab9e,,,,,,,,,,,,,,,,,,,,,,,,,,,,,,,,,,,,,,,,,,,,,,,,,,,,,,,,,,,,,,,,,,,,,,,,,,,,,,,,,,,,,,,,,,,,,,,,,,,,,,,
,,"[""period""]",0,[0.39959999990463757],76,0,76,0,1,5dafea4de40355001651fa2f,27,Mężczyzna,2022-06-04_08h28.34.582,task,2021.1.4,Win32,59.91970759,628b806c463b948bc644b84f,629afaabfb1f66e5d01fab9e,,,,,,,,,,,,,,,,,,,,,,,,,,,,,,,,,,,,,,,,,,,,,,,,,,,,,,,,,,,,,,,,,,,,,,,,,,,,,,,,,,,,,,,,,,,,,,,,,,,,,,,
,,"[""comma""]",0,[0.2827000000476687],77,0,77,0,1,5dafea4de40355001651fa2f,27,Mężczyzna,2022-06-04_08h28.34.582,task,2021.1.4,Win32,59.91970759,628b806c463b948bc644b84f,629afaabfb1f66e5d01fab9e,,,,,,,,,,,,,,,,,,,,,,,,,,,,,,,,,,,,,,,,,,,,,,,,,,,,,,,,,,,,,,,,,,,,,,,,,,,,,,,,,,,,,,,,,,,,,,,,,,,,,,,
,,"[""period""]",0,[0.2562000000476701],78,0,78,0,1,5dafea4de40355001651fa2f,27,Mężczyzna,2022-06-04_08h28.34.582,task,2021.1.4,Win32,59.91970759,628b806c463b948bc644b84f,629afaabfb1f66e5d01fab9e,,,,,,,,,,,,,,,,,,,,,,,,,,,,,,,,,,,,,,,,,,,,,,,,,,,,,,,,,,,,,,,,,,,,,,,,,,,,,,,,,,,,,,,,,,,,,,,,,,,,,,,
,,"[""comma""]",0,[0.28910000014303705],79,0,79,0,1,5dafea4de40355001651fa2f,27,Mężczyzna,2022-06-04_08h28.34.582,task,2021.1.4,Win32,59.91970759,628b806c463b948bc644b84f,629afaabfb1f66e5d01fab9e,,,,,,,,,,,,,,,,,,,,,,,,,,,,,,,,,,,,,,,,,,,,,,,,,,,,,,,,,,,,,,,,,,,,,,,,,,,,,,,,,,,,,,,,,,,,,,,,,,,,,,,
,,"[""comma""]",0,[0.33579999995231447],80,0,80,0,1,5dafea4de40355001651fa2f,27,Mężczyzna,2022-06-04_08h28.34.582,task,2021.1.4,Win32,59.91970759,628b806c463b948bc644b84f,629afaabfb1f66e5d01fab9e,,,,,,,,,,,,,,,,,,,,,,,,,,,,,,,,,,,,,,,,,,,,,,,,,,,,,,,,,,,,,,,,,,,,,,,,,,,,,,,,,,,,,,,,,,,,,,,,,,,,,,,
,,"[""period""]",0,[0.27520000004767553],81,0,81,0,1,5dafea4de40355001651fa2f,27,Mężczyzna,2022-06-04_08h28.34.582,task,2021.1.4,Win32,59.91970759,628b806c463b948bc644b84f,629afaabfb1f66e5d01fab9e,,,,,,,,,,,,,,,,,,,,,,,,,,,,,,,,,,,,,,,,,,,,,,,,,,,,,,,,,,,,,,,,,,,,,,,,,,,,,,,,,,,,,,,,,,,,,,,,,,,,,,,
,,"[""period""]",0,[0.27809999990461165],82,0,82,0,1,5dafea4de40355001651fa2f,27,Mężczyzna,2022-06-04_08h28.34.582,task,2021.1.4,Win32,59.91970759,628b806c463b948bc644b84f,629afaabfb1f66e5d01fab9e,,,,,,,,,,,,,,,,,,,,,,,,,,,,,,,,,,,,,,,,,,,,,,,,,,,,,,,,,,,,,,,,,,,,,,,,,,,,,,,,,,,,,,,,,,,,,,,,,,,,,,,
,,"[""comma"",""period""]",0,"[0.2797999999523313,1.948199999809276]",83,0,83,0,1,5dafea4de40355001651fa2f,27,Mężczyzna,2022-06-04_08h28.34.582,task,2021.1.4,Win32,59.91970759,628b806c463b948bc644b84f,629afaabfb1f66e5d01fab9e,,,,,,,,,,,,,,,,,,,,,,,,,,,,,,,,,,,,,,,,,,,,,,,,,,,,,,,,,,,,,,,,,,,,,,,,,,,,,,,,,,,,,,,,,,,,,,,,,,,,,,,
,,"[""comma""]",0,[1.939400000095361],84,0,84,0,1,5dafea4de40355001651fa2f,27,Mężczyzna,2022-06-04_08h28.34.582,task,2021.1.4,Win32,59.91970759,628b806c463b948bc644b84f,629afaabfb1f66e5d01fab9e,,,,,,,,,,,,,,,,,,,,,,,,,,,,,,,,,,,,,,,,,,,,,,,,,,,,,,,,,,,,,,,,,,,,,,,,,,,,,,,,,,,,,,,,,,,,,,,,,,,,,,,
,,,0,,85,0,85,0,1,5dafea4de40355001651fa2f,27,Mężczyzna,2022-06-04_08h28.34.582,task,2021.1.4,Win32,59.91970759,628b806c463b948bc644b84f,629afaabfb1f66e5d01fab9e,,,,,,,,,,,,,,,,,,,,,,,,,,,,,,,,,,,,,,,,,,,,,,,,,,,,,,,,,,,,,,,,,,,,,,,,,,,,,,,,,,,,,,,,,,,,,,,,,,,,,,,
,,"[""period""]",0,[0.19829999995232583],86,0,86,0,1,5dafea4de40355001651fa2f,27,Mężczyzna,2022-06-04_08h28.34.582,task,2021.1.4,Win32,59.91970759,628b806c463b948bc644b84f,629afaabfb1f66e5d01fab9e,,,,,,,,,,,,,,,,,,,,,,,,,,,,,,,,,,,,,,,,,,,,,,,,,,,,,,,,,,,,,,,,,,,,,,,,,,,,,,,,,,,,,,,,,,,,,,,,,,,,,,,
,,"[""comma""]",0,[0.31089999985692884],87,0,87,0,1,5dafea4de40355001651fa2f,27,Mężczyzna,2022-06-04_08h28.34.582,task,2021.1.4,Win32,59.91970759,628b806c463b948bc644b84f,629afaabfb1f66e5d01fab9e,,,,,,,,,,,,,,,,,,,,,,,,,,,,,,,,,,,,,,,,,,,,,,,,,,,,,,,,,,,,,,,,,,,,,,,,,,,,,,,,,,,,,,,,,,,,,,,,,,,,,,,
,,"[""comma""]",0,[0.34629999995229355],88,0,88,0,1,5dafea4de40355001651fa2f,27,Mężczyzna,2022-06-04_08h28.34.582,task,2021.1.4,Win32,59.91970759,628b806c463b948bc644b84f,629afaabfb1f66e5d01fab9e,,,,,,,,,,,,,,,,,,,,,,,,,,,,,,,,,,,,,,,,,,,,,,,,,,,,,,,,,,,,,,,,,,,,,,,,,,,,,,,,,,,,,,,,,,,,,,,,,,,,,,,
,,"[""comma""]",0,[0.2809000000953574],89,0,89,0,1,5dafea4de40355001651fa2f,27,Mężczyzna,2022-06-04_08h28.34.582,task,2021.1.4,Win32,59.91970759,628b806c463b948bc644b84f,629afaabfb1f66e5d01fab9e,,,,,,,,,,,,,,,,,,,,,,,,,,,,,,,,,,,,,,,,,,,,,,,,,,,,,,,,,,,,,,,,,,,,,,,,,,,,,,,,,,,,,,,,,,,,,,,,,,,,,,,
,,"[""comma""]",0,[0.28789999985696113],90,0,90,0,1,5dafea4de40355001651fa2f,27,Mężczyzna,2022-06-04_08h28.34.582,task,2021.1.4,Win32,59.91970759,628b806c463b948bc644b84f,629afaabfb1f66e5d01fab9e,,,,,,,,,,,,,,,,,,,,,,,,,,,,,,,,,,,,,,,,,,,,,,,,,,,,,,,,,,,,,,,,,,,,,,,,,,,,,,,,,,,,,,,,,,,,,,,,,,,,,,,
,,"[""comma"",""period""]",0,"[0.33420000004770145,1.9397999999523563]",91,0,91,0,1,5dafea4de40355001651fa2f,27,Mężczyzna,2022-06-04_08h28.34.582,task,2021.1.4,Win32,59.91970759,628b806c463b948bc644b84f,629afaabfb1f66e5d01fab9e,,,,,,,,,,,,,,,,,,,,,,,,,,,,,,,,,,,,,,,,,,,,,,,,,,,,,,,,,,,,,,,,,,,,,,,,,,,,,,,,,,,,,,,,,,,,,,,,,,,,,,,
,,"[""comma""]",0,[1.856999999999971],92,0,92,0,1,5dafea4de40355001651fa2f,27,Mężczyzna,2022-06-04_08h28.34.582,task,2021.1.4,Win32,59.91970759,628b806c463b948bc644b84f,629afaabfb1f66e5d01fab9e,,,,,,,,,,,,,,,,,,,,,,,,,,,,,,,,,,,,,,,,,,,,,,,,,,,,,,,,,,,,,,,,,,,,,,,,,,,,,,,,,,,,,,,,,,,,,,,,,,,,,,,
,,,0,,93,0,93,0,1,5dafea4de40355001651fa2f,27,Mężczyzna,2022-06-04_08h28.34.582,task,2021.1.4,Win32,59.91970759,628b806c463b948bc644b84f,629afaabfb1f66e5d01fab9e,,,,,,,,,,,,,,,,,,,,,,,,,,,,,,,,,,,,,,,,,,,,,,,,,,,,,,,,,,,,,,,,,,,,,,,,,,,,,,,,,,,,,,,,,,,,,,,,,,,,,,,
,,"[""comma""]",0,[0.26669999980924786],94,0,94,0,1,5dafea4de40355001651fa2f,27,Mężczyzna,2022-06-04_08h28.34.582,task,2021.1.4,Win32,59.91970759,628b806c463b948bc644b84f,629afaabfb1f66e5d01fab9e,,,,,,,,,,,,,,,,,,,,,,,,,,,,,,,,,,,,,,,,,,,,,,,,,,,,,,,,,,,,,,,,,,,,,,,,,,,,,,,,,,,,,,,,,,,,,,,,,,,,,,,
,,"[""period"",""period""]",0,"[0.2753000001907253,1.816500000000019]",95,0,95,0,1,5dafea4de40355001651fa2f,27,Mężczyzna,2022-06-04_08h28.34.582,task,2021.1.4,Win32,59.91970759,628b806c463b948bc644b84f,629afaabfb1f66e5d01fab9e,,,,,,,,,,,,,,,,,,,,,,,,,,,,,,,,,,,,,,,,,,,,,,,,,,,,,,,,,,,,,,,,,,,,,,,,,,,,,,,,,,,,,,,,,,,,,,,,,,,,,,,
,,"[""comma""]",0,[1.907299999952329],96,0,96,0,1,5dafea4de40355001651fa2f,27,Mężczyzna,2022-06-04_08h28.34.582,task,2021.1.4,Win32,59.91970759,628b806c463b948bc644b84f,629afaabfb1f66e5d01fab9e,,,,,,,,,,,,,,,,,,,,,,,,,,,,,,,,,,,,,,,,,,,,,,,,,,,,,,,,,,,,,,,,,,,,,,,,,,,,,,,,,,,,,,,,,,,,,,,,,,,,,,,
,,,0,,97,0,97,0,1,5dafea4de40355001651fa2f,27,Mężczyzna,2022-06-04_08h28.34.582,task,2021.1.4,Win32,59.91970759,628b806c463b948bc644b84f,629afaabfb1f66e5d01fab9e,,,,,,,,,,,,,,,,,,,,,,,,,,,,,,,,,,,,,,,,,,,,,,,,,,,,,,,,,,,,,,,,,,,,,,,,,,,,,,,,,,,,,,,,,,,,,,,,,,,,,,,
,,"[""comma"",""period""]",0,"[0.5467000000476787,1.8970000000000482]",98,0,98,0,1,5dafea4de40355001651fa2f,27,Mężczyzna,2022-06-04_08h28.34.582,task,2021.1.4,Win32,59.91970759,628b806c463b948bc644b84f,629afaabfb1f66e5d01fab9e,,,,,,,,,,,,,,,,,,,,,,,,,,,,,,,,,,,,,,,,,,,,,,,,,,,,,,,,,,,,,,,,,,,,,,,,,,,,,,,,,,,,,,,,,,,,,,,,,,,,,,,
,,"[""period""]",0,[1.6743000001907262],99,0,99,0,1,5dafea4de40355001651fa2f,27,Mężczyzna,2022-06-04_08h28.34.582,task,2021.1.4,Win32,59.91970759,628b806c463b948bc644b84f,629afaabfb1f66e5d01fab9e,,,,,,,,,,,,,,,,,,,,,,,,,,,,,,,,,,,,,,,,,,,,,,,,,,,,,,,,,,,,,,,,,,,,,,,,,,,,,,,,,,,,,,,,,,,,,,,,,,,,,,,
,,"[""comma""]",0,[1.3988999998569511],100,0,100,0,1,5dafea4de40355001651fa2f,27,Mężczyzna,2022-06-04_08h28.34.582,task,2021.1.4,Win32,59.91970759,628b806c463b948bc644b84f,629afaabfb1f66e5d01fab9e,,,,,,,,,,,,,,,,,,,,,,,,,,,,,,,,,,,,,,,,,,,,,,,,,,,,,,,,,,,,,,,,,,,,,,,,,,,,,,,,,,,,,,,,,,,,,,,,,,,,,,,
,,"[""period""]",0,[1.3821000001430548],101,0,101,0,1,5dafea4de40355001651fa2f,27,Mężczyzna,2022-06-04_08h28.34.582,task,2021.1.4,Win32,59.91970759,628b806c463b948bc644b84f,629afaabfb1f66e5d01fab9e,,,,,,,,,,,,,,,,,,,,,,,,,,,,,,,,,,,,,,,,,,,,,,,,,,,,,,,,,,,,,,,,,,,,,,,,,,,,,,,,,,,,,,,,,,,,,,,,,,,,,,,
,,"[""comma""]",0,[0.8051000001430566],102,0,102,0,1,5dafea4de40355001651fa2f,27,Mężczyzna,2022-06-04_08h28.34.582,task,2021.1.4,Win32,59.91970759,628b806c463b948bc644b84f,629afaabfb1f66e5d01fab9e,,,,,,,,,,,,,,,,,,,,,,,,,,,,,,,,,,,,,,,,,,,,,,,,,,,,,,,,,,,,,,,,,,,,,,,,,,,,,,,,,,,,,,,,,,,,,,,,,,,,,,,
,,"[""comma""]",0,[0.33319999980926696],103,0,103,0,1,5dafea4de40355001651fa2f,27,Mężczyzna,2022-06-04_08h28.34.582,task,2021.1.4,Win32,59.91970759,628b806c463b948bc644b84f,629afaabfb1f66e5d01fab9e,,,,,,,,,,,,,,,,,,,,,,,,,,,,,,,,,,,,,,,,,,,,,,,,,,,,,,,,,,,,,,,,,,,,,,,,,,,,,,,,,,,,,,,,,,,,,,,,,,,,,,,
,,"[""period""]",0,[0.3195999999046535],104,0,104,0,1,5dafea4de40355001651fa2f,27,Mężczyzna,2022-06-04_08h28.34.582,task,2021.1.4,Win32,59.91970759,628b806c463b948bc644b84f,629afaabfb1f66e5d01fab9e,,,,,,,,,,,,,,,,,,,,,,,,,,,,,,,,,,,,,,,,,,,,,,,,,,,,,,,,,,,,,,,,,,,,,,,,,,,,,,,,,,,,,,,,,,,,,,,,,,,,,,,
,,"[""period""]",0,[0.29349999999999454],105,0,105,0,1,5dafea4de40355001651fa2f,27,Mężczyzna,2022-06-04_08h28.34.582,task,2021.1.4,Win32,59.91970759,628b806c463b948bc644b84f,629afaabfb1f66e5d01fab9e,,,,,,,,,,,,,,,,,,,,,,,,,,,,,,,,,,,,,,,,,,,,,,,,,,,,,,,,,,,,,,,,,,,,,,,,,,,,,,,,,,,,,,,,,,,,,,,,,,,,,,,
,,"[""comma""]",0,[0.258599999904618],106,0,106,0,1,5dafea4de40355001651fa2f,27,Mężczyzna,2022-06-04_08h28.34.582,task,2021.1.4,Win32,59.91970759,628b806c463b948bc644b84f,629afaabfb1f66e5d01fab9e,,,,,,,,,,,,,,,,,,,,,,,,,,,,,,,,,,,,,,,,,,,,,,,,,,,,,,,,,,,,,,,,,,,,,,,,,,,,,,,,,,,,,,,,,,,,,,,,,,,,,,,
,,"[""comma""]",0,[0.30479999995230855],107,0,107,0,1,5dafea4de40355001651fa2f,27,Mężczyzna,2022-06-04_08h28.34.582,task,2021.1.4,Win32,59.91970759,628b806c463b948bc644b84f,629afaabfb1f66e5d01fab9e,,,,,,,,,,,,,,,,,,,,,,,,,,,,,,,,,,,,,,,,,,,,,,,,,,,,,,,,,,,,,,,,,,,,,,,,,,,,,,,,,,,,,,,,,,,,,,,,,,,,,,,
,,"[""period""]",0,[0.0008999998569834133],108,0,108,0,1,5dafea4de40355001651fa2f,27,Mężczyzna,2022-06-04_08h28.34.582,task,2021.1.4,Win32,59.91970759,628b806c463b948bc644b84f,629afaabfb1f66e5d01fab9e,,,,,,,,,,,,,,,,,,,,,,,,,,,,,,,,,,,,,,,,,,,,,,,,,,,,,,,,,,,,,,,,,,,,,,,,,,,,,,,,,,,,,,,,,,,,,,,,,,,,,,,
,,"[""comma""]",0,[0.25060000014303796],109,0,109,0,1,5dafea4de40355001651fa2f,27,Mężczyzna,2022-06-04_08h28.34.582,task,2021.1.4,Win32,59.91970759,628b806c463b948bc644b84f,629afaabfb1f66e5d01fab9e,,,,,,,,,,,,,,,,,,,,,,,,,,,,,,,,,,,,,,,,,,,,,,,,,,,,,,,,,,,,,,,,,,,,,,,,,,,,,,,,,,,,,,,,,,,,,,,,,,,,,,,
,,"[""period""]",0,[0.2787000000476496],110,0,110,0,1,5dafea4de40355001651fa2f,27,Mężczyzna,2022-06-04_08h28.34.582,task,2021.1.4,Win32,59.91970759,628b806c463b948bc644b84f,629afaabfb1f66e5d01fab9e,,,,,,,,,,,,,,,,,,,,,,,,,,,,,,,,,,,,,,,,,,,,,,,,,,,,,,,,,,,,,,,,,,,,,,,,,,,,,,,,,,,,,,,,,,,,,,,,,,,,,,,
,,"[""period""]",0,[0.1631000001430607],111,0,111,0,1,5dafea4de40355001651fa2f,27,Mężczyzna,2022-06-04_08h28.34.582,task,2021.1.4,Win32,59.91970759,628b806c463b948bc644b84f,629afaabfb1f66e5d01fab9e,,,,,,,,,,,,,,,,,,,,,,,,,,,,,,,,,,,,,,,,,,,,,,,,,,,,,,,,,,,,,,,,,,,,,,,,,,,,,,,,,,,,,,,,,,,,,,,,,,,,,,,
,,"[""period""]",0,[0.27459999990463757],112,0,112,0,1,5dafea4de40355001651fa2f,27,Mężczyzna,2022-06-04_08h28.34.582,task,2021.1.4,Win32,59.91970759,628b806c463b948bc644b84f,629afaabfb1f66e5d01fab9e,,,,,,,,,,,,,,,,,,,,,,,,,,,,,,,,,,,,,,,,,,,,,,,,,,,,,,,,,,,,,,,,,,,,,,,,,,,,,,,,,,,,,,,,,,,,,,,,,,,,,,,
,,"[""comma""]",0,[0.25459999990465576],113,0,113,0,1,5dafea4de40355001651fa2f,27,Mężczyzna,2022-06-04_08h28.34.582,task,2021.1.4,Win32,59.91970759,628b806c463b948bc644b84f,629afaabfb1f66e5d01fab9e,,,,,,,,,,,,,,,,,,,,,,,,,,,,,,,,,,,,,,,,,,,,,,,,,,,,,,,,,,,,,,,,,,,,,,,,,,,,,,,,,,,,,,,,,,,,,,,,,,,,,,,
,,"[""comma""]",0,[0.24420000004766962],114,0,114,0,1,5dafea4de40355001651fa2f,27,Mężczyzna,2022-06-04_08h28.34.582,task,2021.1.4,Win32,59.91970759,628b806c463b948bc644b84f,629afaabfb1f66e5d01fab9e,,,,,,,,,,,,,,,,,,,,,,,,,,,,,,,,,,,,,,,,,,,,,,,,,,,,,,,,,,,,,,,,,,,,,,,,,,,,,,,,,,,,,,,,,,,,,,,,,,,,,,,
,,"[""comma""]",0,[0.3533000001907567],115,0,115,0,1,5dafea4de40355001651fa2f,27,Mężczyzna,2022-06-04_08h28.34.582,task,2021.1.4,Win32,59.91970759,628b806c463b948bc644b84f,629afaabfb1f66e5d01fab9e,,,,,,,,,,,,,,,,,,,,,,,,,,,,,,,,,,,,,,,,,,,,,,,,,,,,,,,,,,,,,,,,,,,,,,,,,,,,,,,,,,,,,,,,,,,,,,,,,,,,,,,
,,"[""period""]",0,[0.2977000000477119],116,0,116,0,1,5dafea4de40355001651fa2f,27,Mężczyzna,2022-06-04_08h28.34.582,task,2021.1.4,Win32,59.91970759,628b806c463b948bc644b84f,629afaabfb1f66e5d01fab9e,,,,,,,,,,,,,,,,,,,,,,,,,,,,,,,,,,,,,,,,,,,,,,,,,,,,,,,,,,,,,,,,,,,,,,,,,,,,,,,,,,,,,,,,,,,,,,,,,,,,,,,
,,"[""comma""]",0,[0.35599999999999454],117,0,117,0,1,5dafea4de40355001651fa2f,27,Mężczyzna,2022-06-04_08h28.34.582,task,2021.1.4,Win32,59.91970759,628b806c463b948bc644b84f,629afaabfb1f66e5d01fab9e,,,,,,,,,,,,,,,,,,,,,,,,,,,,,,,,,,,,,,,,,,,,,,,,,,,,,,,,,,,,,,,,,,,,,,,,,,,,,,,,,,,,,,,,,,,,,,,,,,,,,,,
,,"[""period""]",0,[0.28440000009538835],118,0,118,0,1,5dafea4de40355001651fa2f,27,Mężczyzna,2022-06-04_08h28.34.582,task,2021.1.4,Win32,59.91970759,628b806c463b948bc644b84f,629afaabfb1f66e5d01fab9e,,,,,,,,,,,,,,,,,,,,,,,,,,,,,,,,,,,,,,,,,,,,,,,,,,,,,,,,,,,,,,,,,,,,,,,,,,,,,,,,,,,,,,,,,,,,,,,,,,,,,,,
,,"[""comma""]",0,[0.2696000001430434],119,0,119,0,1,5dafea4de40355001651fa2f,27,Mężczyzna,2022-06-04_08h28.34.582,task,2021.1.4,Win32,59.91970759,628b806c463b948bc644b84f,629afaabfb1f66e5d01fab9e,,,,,,,,,,,,,,,,,,,,,,,,,,,,,,,,,,,,,,,,,,,,,,,,,,,,,,,,,,,,,,,,,,,,,,,,,,,,,,,,,,,,,,,,,,,,,,,,,,,,,,,
,,,,,,,,,,5dafea4de40355001651fa2f,27,Mężczyzna,2022-06-04_08h28.34.582,task,2021.1.4,Win32,59.91970759,628b806c463b948bc644b84f,629afaabfb1f66e5d01fab9e,space,41.3775,space,7.0651,0,0,0,0,1,X V Q F H G B L J M P D K C T S W R N Z,,,,,,,,,,,,,,,,,,,,,,,,,,,,,,,,,,,,,,,,,,,,,,,,,,,,,,,,,,,,,,,,,,,,,,,,,,,,,,,,,,,,,,,,,,,,,
,,,,,,,,,,5dafea4de40355001651fa2f,27,Mężczyzna,2022-06-04_08h28.34.582,task,2021.1.4,Win32,59.91970759,628b806c463b948bc644b84f,629afaabfb1f66e5d01fab9e,,,,,1,0,1,0,1,X V Q F H G B L J M P D K C T S W R N Z,,,,,,,,,,,,,,,,,,,,,,,,,,,,,,,,,,,,,,,,,,,,,,,,,,,,,,,,,,,,,,,,,,,,,,,,,,,,,,,,,,,,,,,,,,,,,
,,,,,,,,,,5dafea4de40355001651fa2f,27,Mężczyzna,2022-06-04_08h28.34.582,task,2021.1.4,Win32,59.91970759,628b806c463b948bc644b84f,629afaabfb1f66e5d01fab9e,,,,,,,,,,,zv,"[""z"",""v""]","[4.2704000000953215,5.190800000190734,6.271100000143008]",1,ZV,0,0,0,0,1,,,,,,,,,,,,,,,,,,,,,,,,,,,,,,,,,,,,,,,,,,,,,,,,,,,,,,,,,,,,,,,,,,,,,,,,,,,,,,,,,,,
,,,,,,,,,,5dafea4de40355001651fa2f,27,Mężczyzna,2022-06-04_08h28.34.582,task,2021.1.4,Win32,59.91970759,628b806c463b948bc644b84f,629afaabfb1f66e5d01fab9e,,,,,0,0,0,0,1,X V Q F H G B L J M P D K C T S W R N Z,,,,,,,,,,,,,,,,,,,,,,,,,,,,,,,,,,,,,,,,,,,,,,,,,,,,,,,,,,,,,,,,,,,,,,,,,,,,,,,,,,,,,,,,,,,,,
,,,,,,,,,,5dafea4de40355001651fa2f,27,Mężczyzna,2022-06-04_08h28.34.582,task,2021.1.4,Win32,59.91970759,628b806c463b948bc644b84f,629afaabfb1f66e5d01fab9e,,,,,1,0,1,0,1,X V Q F H G B L J M P D K C T S W R N Z,,,,,,,,,,,,,,,,,,,,,,,,,,,,,,,,,,,,,,,,,,,,,,,,,,,,,,,,,,,,,,,,,,,,,,,,,,,,,,,,,,,,,,,,,,,,,
,,,,,,,,,,5dafea4de40355001651fa2f,27,Mężczyzna,2022-06-04_08h28.34.582,task,2021.1.4,Win32,59.91970759,628b806c463b948bc644b84f,629afaabfb1f66e5d01fab9e,,,,,,,,,,,st,"[""s"",""t""]","[1.905200000047671,2.322800000190739,2.6338000001907176]",1,ST,1,0,1,0,1,,,,,,,,,,,,,,,,,,,,,,,,,,,,,,,,,,,,,,,,,,,,,,,,,,,,,,,,,,,,,,,,,,,,,,,,,,,,,,,,,,,
,,,,,,,,,,5dafea4de40355001651fa2f,27,Mężczyzna,2022-06-04_08h28.34.582,task,2021.1.4,Win32,59.91970759,628b806c463b948bc644b84f,629afaabfb1f66e5d01fab9e,,,,,0,0,0,0,1,X V Q F H G B L J M P D K C T S W R N Z,,,,,,,,,,,,,,,,,,,,,,,,,,,,,,,,,,,,,,,,,,,,,,,,,,,,,,,,,,,,,,,,,,,,,,,,,,,,,,,,,,,,,,,,,,,,,
,,,,,,,,,,5dafea4de40355001651fa2f,27,Mężczyzna,2022-06-04_08h28.34.582,task,2021.1.4,Win32,59.91970759,628b806c463b948bc644b84f,629afaabfb1f66e5d01fab9e,,,,,1,0,1,0,1,X V Q F H G B L J M P D K C T S W R N Z,,,,,,,,,,,,,,,,,,,,,,,,,,,,,,,,,,,,,,,,,,,,,,,,,,,,,,,,,,,,,,,,,,,,,,,,,,,,,,,,,,,,,,,,,,,,,
,,,,,,,,,,5dafea4de40355001651fa2f,27,Mężczyzna,2022-06-04_08h28.34.582,task,2021.1.4,Win32,59.91970759,628b806c463b948bc644b84f,629afaabfb1f66e5d01fab9e,,,,,2,0,2,0,1,X V Q F H G B L J M P D K C T S W R N Z,,,,,,,,,,,,,,,,,,,,,,,,,,,,,,,,,,,,,,,,,,,,,,,,,,,,,,,,,,,,,,,,,,,,,,,,,,,,,,,,,,,,,,,,,,,,,
,,,,,,,,,,5dafea4de40355001651fa2f,27,Mężczyzna,2022-06-04_08h28.34.582,task,2021.1.4,Win32,59.91970759,628b806c463b948bc644b84f,629afaabfb1f66e5d01fab9e,,,,,,,,,,,qwd,"[""q"",""w"",""d""]","[1.2148000001907349,1.4808000001907544,1.7701000001430884,2.0887000000477087]",1,QWD,2,0,2,0,1,,,,,,,,,,,,,,,,,,,,,,,,,,,,,,,,,,,,,,,,,,,,,,,,,,,,,,,,,,,,,,,,,,,,,,,,,,,,,,,,,,,
,,,,,,,,,,5dafea4de40355001651fa2f,27,Mężczyzna,2022-06-04_08h28.34.582,task,2021.1.4,Win32,59.91970759,628b806c463b948bc644b84f,629afaabfb1f66e5d01fab9e,,,,,0,0,0,0,1,X V Q F H G B L J M P D K C T S W R N Z,,,,,,,,,,,,,,,,,,,,,,,,,,,,,,,,,,,,,,,,,,,,,,,,,,,,,,,,,,,,,,,,,,,,,,,,,,,,,,,,,,,,,,,,,,,,,
,,,,,,,,,,5dafea4de40355001651fa2f,27,Mężczyzna,2022-06-04_08h28.34.582,task,2021.1.4,Win32,59.91970759,628b806c463b948bc644b84f,629afaabfb1f66e5d01fab9e,,,,,1,0,1,0,1,X V Q F H G B L J M P D K C T S W R N Z,,,,,,,,,,,,,,,,,,,,,,,,,,,,,,,,,,,,,,,,,,,,,,,,,,,,,,,,,,,,,,,,,,,,,,,,,,,,,,,,,,,,,,,,,,,,,
,,,,,,,,,,5dafea4de40355001651fa2f,27,Mężczyzna,2022-06-04_08h28.34.582,task,2021.1.4,Win32,59.91970759,628b806c463b948bc644b84f,629afaabfb1f66e5d01fab9e,,,,,2,0,2,0,1,X V Q F H G B L J M P D K C T S W R N Z,,,,,,,,,,,,,,,,,,,,,,,,,,,,,,,,,,,,,,,,,,,,,,,,,,,,,,,,,,,,,,,,,,,,,,,,,,,,,,,,,,,,,,,,,,,,,
,,,,,,,,,,5dafea4de40355001651fa2f,27,Mężczyzna,2022-06-04_08h28.34.582,task,2021.1.4,Win32,59.91970759,628b806c463b948bc644b84f,629afaabfb1f66e5d01fab9e,,,,,,,,,,,hpv,"[""h"",""p"",""v""]","[0.92349999999999,1.478200000047707,2.2860000000000014,2.6259999999999764]",1,HPV,3,0,3,0,1,,,,,,,,,,,,,,,,,,,,,,,,,,,,,,,,,,,,,,,,,,,,,,,,,,,,,,,,,,,,,,,,,,,,,,,,,,,,,,,,,,,
,,,,,,,,,,5dafea4de40355001651fa2f,27,Mężczyzna,2022-06-04_08h28.34.582,task,2021.1.4,Win32,59.91970759,628b806c463b948bc644b84f,629afaabfb1f66e5d01fab9e,,,,,0,0,0,0,1,X V Q F H G B L J M P D K C T S W R N Z,,,,,,,,,,,,,,,,,,,,,,,,,,,,,,,,,,,,,,,,,,,,,,,,,,,,,,,,,,,,,,,,,,,,,,,,,,,,,,,,,,,,,,,,,,,,,
,,,,,,,,,,5dafea4de40355001651fa2f,27,Mężczyzna,2022-06-04_08h28.34.582,task,2021.1.4,Win32,59.91970759,628b806c463b948bc644b84f,629afaabfb1f66e5d01fab9e,,,,,1,0,1,0,1,X V Q F H G B L J M P D K C T S W R N Z,,,,,,,,,,,,,,,,,,,,,,,,,,,,,,,,,,,,,,,,,,,,,,,,,,,,,,,,,,,,,,,,,,,,,,,,,,,,,,,,,,,,,,,,,,,,,
,,,,,,,,,,5dafea4de40355001651fa2f,27,Mężczyzna,2022-06-04_08h28.34.582,task,2021.1.4,Win32,59.91970759,628b806c463b948bc644b84f,629afaabfb1f66e5d01fab9e,,,,,2,0,2,0,1,X V Q F H G B L J M P D K C T S W R N Z,,,,,,,,,,,,,,,,,,,,,,,,,,,,,,,,,,,,,,,,,,,,,,,,,,,,,,,,,,,,,,,,,,,,,,,,,,,,,,,,,,,,,,,,,,,,,
,,,,,,,,,,5dafea4de40355001651fa2f,27,Mężczyzna,2022-06-04_08h28.34.582,task,2021.1.4,Win32,59.91970759,628b806c463b948bc644b84f,629afaabfb1f66e5d01fab9e,,,,,3,0,3,0,1,X V Q F H G B L J M P D K C T S W R N Z,,,,,,,,,,,,,,,,,,,,,,,,,,,,,,,,,,,,,,,,,,,,,,,,,,,,,,,,,,,,,,,,,,,,,,,,,,,,,,,,,,,,,,,,,,,,,
,,,,,,,,,,5dafea4de40355001651fa2f,27,Mężczyzna,2022-06-04_08h28.34.582,task,2021.1.4,Win32,59.91970759,628b806c463b948bc644b84f,629afaabfb1f66e5d01fab9e,,,,,,,,,,,bfss,"[""b"",""f"",""s"",""s""]","[0.7817000000476924,1.3219000000953542,1.7486000001430853,1.929200000047672,2.457200000047692]",1,BFSS,4,0,4,0,1,,,,,,,,,,,,,,,,,,,,,,,,,,,,,,,,,,,,,,,,,,,,,,,,,,,,,,,,,,,,,,,,,,,,,,,,,,,,,,,,,,,
,,,,,,,,,,5dafea4de40355001651fa2f,27,Mężczyzna,2022-06-04_08h28.34.582,task,2021.1.4,Win32,59.91970759,628b806c463b948bc644b84f,629afaabfb1f66e5d01fab9e,,,,,0,0,0,0,1,X V Q F H G B L J M P D K C T S W R N Z,,,,,,,,,,,,,,,,,,,,,,,,,,,,,,,,,,,,,,,,,,,,,,,,,,,,,,,,,,,,,,,,,,,,,,,,,,,,,,,,,,,,,,,,,,,,,
,,,,,,,,,,5dafea4de40355001651fa2f,27,Mężczyzna,2022-06-04_08h28.34.582,task,2021.1.4,Win32,59.91970759,628b806c463b948bc644b84f,629afaabfb1f66e5d01fab9e,,,,,1,0,1,0,1,X V Q F H G B L J M P D K C T S W R N Z,,,,,,,,,,,,,,,,,,,,,,,,,,,,,,,,,,,,,,,,,,,,,,,,,,,,,,,,,,,,,,,,,,,,,,,,,,,,,,,,,,,,,,,,,,,,,
,,,,,,,,,,5dafea4de40355001651fa2f,27,Mężczyzna,2022-06-04_08h28.34.582,task,2021.1.4,Win32,59.91970759,628b806c463b948bc644b84f,629afaabfb1f66e5d01fab9e,,,,,2,0,2,0,1,X V Q F H G B L J M P D K C T S W R N Z,,,,,,,,,,,,,,,,,,,,,,,,,,,,,,,,,,,,,,,,,,,,,,,,,,,,,,,,,,,,,,,,,,,,,,,,,,,,,,,,,,,,,,,,,,,,,
,,,,,,,,,,5dafea4de40355001651fa2f,27,Mężczyzna,2022-06-04_08h28.34.582,task,2021.1.4,Win32,59.91970759,628b806c463b948bc644b84f,629afaabfb1f66e5d01fab9e,,,,,3,0,3,0,1,X V Q F H G B L J M P D K C T S W R N Z,,,,,,,,,,,,,,,,,,,,,,,,,,,,,,,,,,,,,,,,,,,,,,,,,,,,,,,,,,,,,,,,,,,,,,,,,,,,,,,,,,,,,,,,,,,,,
,,,,,,,,,,5dafea4de40355001651fa2f,27,Mężczyzna,2022-06-04_08h28.34.582,task,2021.1.4,Win32,59.91970759,628b806c463b948bc644b84f,629afaabfb1f66e5d01fab9e,,,,,,,,,,,thqt,"[""t"",""h"",""q"",""t""]","[0.8395999999046353,1.6262000000476746,2.621399999856976,3.097500000000025,3.381500000000017]",1,THQT,5,0,5,0,1,,,,,,,,,,,,,,,,,,,,,,,,,,,,,,,,,,,,,,,,,,,,,,,,,,,,,,,,,,,,,,,,,,,,,,,,,,,,,,,,,,,
,,,,,,,,,,5dafea4de40355001651fa2f,27,Mężczyzna,2022-06-04_08h28.34.582,task,2021.1.4,Win32,59.91970759,628b806c463b948bc644b84f,629afaabfb1f66e5d01fab9e,,,,,0,0,0,0,1,X V Q F H G B L J M P D K C T S W R N Z,,,,,,,,,,,,,,,,,,,,,,,,,,,,,,,,,,,,,,,,,,,,,,,,,,,,,,,,,,,,,,,,,,,,,,,,,,,,,,,,,,,,,,,,,,,,,
,,,,,,,,,,5dafea4de40355001651fa2f,27,Mężczyzna,2022-06-04_08h28.34.582,task,2021.1.4,Win32,59.91970759,628b806c463b948bc644b84f,629afaabfb1f66e5d01fab9e,,,,,1,0,1,0,1,X V Q F H G B L J M P D K C T S W R N Z,,,,,,,,,,,,,,,,,,,,,,,,,,,,,,,,,,,,,,,,,,,,,,,,,,,,,,,,,,,,,,,,,,,,,,,,,,,,,,,,,,,,,,,,,,,,,
,,,,,,,,,,5dafea4de40355001651fa2f,27,Mężczyzna,2022-06-04_08h28.34.582,task,2021.1.4,Win32,59.91970759,628b806c463b948bc644b84f,629afaabfb1f66e5d01fab9e,,,,,2,0,2,0,1,X V Q F H G B L J M P D K C T S W R N Z,,,,,,,,,,,,,,,,,,,,,,,,,,,,,,,,,,,,,,,,,,,,,,,,,,,,,,,,,,,,,,,,,,,,,,,,,,,,,,,,,,,,,,,,,,,,,
,,,,,,,,,,5dafea4de40355001651fa2f,27,Mężczyzna,2022-06-04_08h28.34.582,task,2021.1.4,Win32,59.91970759,628b806c463b948bc644b84f,629afaabfb1f66e5d01fab9e,,,,,3,0,3,0,1,X V Q F H G B L J M P D K C T S W R N Z,,,,,,,,,,,,,,,,,,,,,,,,,,,,,,,,,,,,,,,,,,,,,,,,,,,,,,,,,,,,,,,,,,,,,,,,,,,,,,,,,,,,,,,,,,,,,
,,,,,,,,,,5dafea4de40355001651fa2f,27,Mężczyzna,2022-06-04_08h28.34.582,task,2021.1.4,Win32,59.91970759,628b806c463b948bc644b84f,629afaabfb1f66e5d01fab9e,,,,,4,0,4,0,1,X V Q F H G B L J M P D K C T S W R N Z,,,,,,,,,,,,,,,,,,,,,,,,,,,,,,,,,,,,,,,,,,,,,,,,,,,,,,,,,,,,,,,,,,,,,,,,,,,,,,,,,,,,,,,,,,,,,
,,,,,,,,,,5dafea4de40355001651fa2f,27,Mężczyzna,2022-06-04_08h28.34.582,task,2021.1.4,Win32,59.91970759,628b806c463b948bc644b84f,629afaabfb1f66e5d01fab9e,,,,,,,,,,,dktbd,"[""d"",""k"",""t"",""b"",""d""]","[0.49620000004767917,1.1650000000000205,1.7477000000477005,2.4750000000000227,3.303299999952287,3.5710000000000264]",1,DKTBD,6,0,6,0,1,,,,,,,,,,,,,,,,,,,,,,,,,,,,,,,,,,,,,,,,,,,,,,,,,,,,,,,,,,,,,,,,,,,,,,,,,,,,,,,,,,,
,,,,,,,,,,5dafea4de40355001651fa2f,27,Mężczyzna,2022-06-04_08h28.34.582,task,2021.1.4,Win32,59.91970759,628b806c463b948bc644b84f,629afaabfb1f66e5d01fab9e,,,,,0,0,0,0,1,X V Q F H G B L J M P D K C T S W R N Z,,,,,,,,,,,,,,,,,,,,,,,,,,,,,,,,,,,,,,,,,,,,,,,,,,,,,,,,,,,,,,,,,,,,,,,,,,,,,,,,,,,,,,,,,,,,,
,,,,,,,,,,5dafea4de40355001651fa2f,27,Mężczyzna,2022-06-04_08h28.34.582,task,2021.1.4,Win32,59.91970759,628b806c463b948bc644b84f,629afaabfb1f66e5d01fab9e,,,,,1,0,1,0,1,X V Q F H G B L J M P D K C T S W R N Z,,,,,,,,,,,,,,,,,,,,,,,,,,,,,,,,,,,,,,,,,,,,,,,,,,,,,,,,,,,,,,,,,,,,,,,,,,,,,,,,,,,,,,,,,,,,,
,,,,,,,,,,5dafea4de40355001651fa2f,27,Mężczyzna,2022-06-04_08h28.34.582,task,2021.1.4,Win32,59.91970759,628b806c463b948bc644b84f,629afaabfb1f66e5d01fab9e,,,,,2,0,2,0,1,X V Q F H G B L J M P D K C T S W R N Z,,,,,,,,,,,,,,,,,,,,,,,,,,,,,,,,,,,,,,,,,,,,,,,,,,,,,,,,,,,,,,,,,,,,,,,,,,,,,,,,,,,,,,,,,,,,,
,,,,,,,,,,5dafea4de40355001651fa2f,27,Mężczyzna,2022-06-04_08h28.34.582,task,2021.1.4,Win32,59.91970759,628b806c463b948bc644b84f,629afaabfb1f66e5d01fab9e,,,,,3,0,3,0,1,X V Q F H G B L J M P D K C T S W R N Z,,,,,,,,,,,,,,,,,,,,,,,,,,,,,,,,,,,,,,,,,,,,,,,,,,,,,,,,,,,,,,,,,,,,,,,,,,,,,,,,,,,,,,,,,,,,,
,,,,,,,,,,5dafea4de40355001651fa2f,27,Mężczyzna,2022-06-04_08h28.34.582,task,2021.1.4,Win32,59.91970759,628b806c463b948bc644b84f,629afaabfb1f66e5d01fab9e,,,,,4,0,4,0,1,X V Q F H G B L J M P D K C T S W R N Z,,,,,,,,,,,,,,,,,,,,,,,,,,,,,,,,,,,,,,,,,,,,,,,,,,,,,,,,,,,,,,,,,,,,,,,,,,,,,,,,,,,,,,,,,,,,,
,,,,,,,,,,5dafea4de40355001651fa2f,27,Mężczyzna,2022-06-04_08h28.34.582,task,2021.1.4,Win32,59.91970759,628b806c463b948bc644b84f,629afaabfb1f66e5d01fab9e,,,,,,,,,,,whdhws,"[""w"",""h"",""d"",""h"",""w"",""s""]","[0.7753000001907822,1.2512000000476746,1.7488000001907267,2.3429000000953693,2.8266000001431166,3.0697000000476464,3.361800000190783]",0,WHDHS,7,0,7,0,1,,,,,,,,,,,,,,,,,,,,,,,,,,,,,,,,,,,,,,,,,,,,,,,,,,,,,,,,,,,,,,,,,,,,,,,,,,,,,,,,,,,
,,,,,,,,,,5dafea4de40355001651fa2f,27,Mężczyzna,2022-06-04_08h28.34.582,task,2021.1.4,Win32,59.91970759,628b806c463b948bc644b84f,629afaabfb1f66e5d01fab9e,,,,,0,0,0,0,1,X V Q F H G B L J M P D K C T S W R N Z,,,,,,,,,,,,,,,,,,,,,,,,,,,,,,,,,,,,,,,,,,,,,,,,,,,,,,,,,,,,,,,,,,,,,,,,,,,,,,,,,,,,,,,,,,,,,
,,,,,,,,,,5dafea4de40355001651fa2f,27,Mężczyzna,2022-06-04_08h28.34.582,task,2021.1.4,Win32,59.91970759,628b806c463b948bc644b84f,629afaabfb1f66e5d01fab9e,,,,,1,0,1,0,1,X V Q F H G B L J M P D K C T S W R N Z,,,,,,,,,,,,,,,,,,,,,,,,,,,,,,,,,,,,,,,,,,,,,,,,,,,,,,,,,,,,,,,,,,,,,,,,,,,,,,,,,,,,,,,,,,,,,
,,,,,,,,,,5dafea4de40355001651fa2f,27,Mężczyzna,2022-06-04_08h28.34.582,task,2021.1.4,Win32,59.91970759,628b806c463b948bc644b84f,629afaabfb1f66e5d01fab9e,,,,,2,0,2,0,1,X V Q F H G B L J M P D K C T S W R N Z,,,,,,,,,,,,,,,,,,,,,,,,,,,,,,,,,,,,,,,,,,,,,,,,,,,,,,,,,,,,,,,,,,,,,,,,,,,,,,,,,,,,,,,,,,,,,
,,,,,,,,,,5dafea4de40355001651fa2f,27,Mężczyzna,2022-06-04_08h28.34.582,task,2021.1.4,Win32,59.91970759,628b806c463b948bc644b84f,629afaabfb1f66e5d01fab9e,,,,,3,0,3,0,1,X V Q F H G B L J M P D K C T S W R N Z,,,,,,,,,,,,,,,,,,,,,,,,,,,,,,,,,,,,,,,,,,,,,,,,,,,,,,,,,,,,,,,,,,,,,,,,,,,,,,,,,,,,,,,,,,,,,
,,,,,,,,,,5dafea4de40355001651fa2f,27,Mężczyzna,2022-06-04_08h28.34.582,task,2021.1.4,Win32,59.91970759,628b806c463b948bc644b84f,629afaabfb1f66e5d01fab9e,,,,,4,0,4,0,1,X V Q F H G B L J M P D K C T S W R N Z,,,,,,,,,,,,,,,,,,,,,,,,,,,,,,,,,,,,,,,,,,,,,,,,,,,,,,,,,,,,,,,,,,,,,,,,,,,,,,,,,,,,,,,,,,,,,
,,,,,,,,,,5dafea4de40355001651fa2f,27,Mężczyzna,2022-06-04_08h28.34.582,task,2021.1.4,Win32,59.91970759,628b806c463b948bc644b84f,629afaabfb1f66e5d01fab9e,,,,,,,,,,,pmgbt,"[""p"",""m"",""g"",""b"",""t""]","[1.1464999999999463,1.616700000047672,2.514499999999998,2.7673999998569343,3.06870000004767,3.34670000004769]",1,PMGBT,8,0,8,0,1,,,,,,,,,,,,,,,,,,,,,,,,,,,,,,,,,,,,,,,,,,,,,,,,,,,,,,,,,,,,,,,,,,,,,,,,,,,,,,,,,,,
,,,,,,,,,,5dafea4de40355001651fa2f,27,Mężczyzna,2022-06-04_08h28.34.582,task,2021.1.4,Win32,59.91970759,628b806c463b948bc644b84f,629afaabfb1f66e5d01fab9e,,,,,0,0,0,0,1,X V Q F H G B L J M P D K C T S W R N Z,,,,,,,,,,,,,,,,,,,,,,,,,,,,,,,,,,,,,,,,,,,,,,,,,,,,,,,,,,,,,,,,,,,,,,,,,,,,,,,,,,,,,,,,,,,,,
,,,,,,,,,,5dafea4de40355001651fa2f,27,Mężczyzna,2022-06-04_08h28.34.582,task,2021.1.4,Win32,59.91970759,628b806c463b948bc644b84f,629afaabfb1f66e5d01fab9e,,,,,1,0,1,0,1,X V Q F H G B L J M P D K C T S W R N Z,,,,,,,,,,,,,,,,,,,,,,,,,,,,,,,,,,,,,,,,,,,,,,,,,,,,,,,,,,,,,,,,,,,,,,,,,,,,,,,,,,,,,,,,,,,,,
,,,,,,,,,,5dafea4de40355001651fa2f,27,Mężczyzna,2022-06-04_08h28.34.582,task,2021.1.4,Win32,59.91970759,628b806c463b948bc644b84f,629afaabfb1f66e5d01fab9e,,,,,2,0,2,0,1,X V Q F H G B L J M P D K C T S W R N Z,,,,,,,,,,,,,,,,,,,,,,,,,,,,,,,,,,,,,,,,,,,,,,,,,,,,,,,,,,,,,,,,,,,,,,,,,,,,,,,,,,,,,,,,,,,,,
,,,,,,,,,,5dafea4de40355001651fa2f,27,Mężczyzna,2022-06-04_08h28.34.582,task,2021.1.4,Win32,59.91970759,628b806c463b948bc644b84f,629afaabfb1f66e5d01fab9e,,,,,3,0,3,0,1,X V Q F H G B L J M P D K C T S W R N Z,,,,,,,,,,,,,,,,,,,,,,,,,,,,,,,,,,,,,,,,,,,,,,,,,,,,,,,,,,,,,,,,,,,,,,,,,,,,,,,,,,,,,,,,,,,,,
,,,,,,,,,,5dafea4de40355001651fa2f,27,Mężczyzna,2022-06-04_08h28.34.582,task,2021.1.4,Win32,59.91970759,628b806c463b948bc644b84f,629afaabfb1f66e5d01fab9e,,,,,4,0,4,0,1,X V Q F H G B L J M P D K C T S W R N Z,,,,,,,,,,,,,,,,,,,,,,,,,,,,,,,,,,,,,,,,,,,,,,,,,,,,,,,,,,,,,,,,,,,,,,,,,,,,,,,,,,,,,,,,,,,,,
,,,,,,,,,,5dafea4de40355001651fa2f,27,Mężczyzna,2022-06-04_08h28.34.582,task,2021.1.4,Win32,59.91970759,628b806c463b948bc644b84f,629afaabfb1f66e5d01fab9e,,,,,5,0,5,0,1,X V Q F H G B L J M P D K C T S W R N Z,,,,,,,,,,,,,,,,,,,,,,,,,,,,,,,,,,,,,,,,,,,,,,,,,,,,,,,,,,,,,,,,,,,,,,,,,,,,,,,,,,,,,,,,,,,,,
,,,,,,,,,,5dafea4de40355001651fa2f,27,Mężczyzna,2022-06-04_08h28.34.582,task,2021.1.4,Win32,59.91970759,628b806c463b948bc644b84f,629afaabfb1f66e5d01fab9e,,,,,,,,,,,qfxzfk,"[""q"",""f"",""x"",""z"",""f"",""k""]","[1.0744999999999436,1.8319000000952883,2.621299999952271,3.1099000000953083,4.5262999999522435,4.959200000047645,5.25679999995225]",0,QFXZSK,9,0,9,0,1,,,,,,,,,,,,,,,,,,,,,,,,,,,,,,,,,,,,,,,,,,,,,,,,,,,,,,,,,,,,,,,,,,,,,,,,,,,,,,,,,,,
,,,,,,,,,,5dafea4de40355001651fa2f,27,Mężczyzna,2022-06-04_08h28.34.582,task,2021.1.4,Win32,59.91970759,628b806c463b948bc644b84f,629afaabfb1f66e5d01fab9e,,,,,0,0,0,0,1,X V Q F H G B L J M P D K C T S W R N Z,,,,,,,,,,,,,,,,,,,,,,,,,,,,,,,,,,,,,,,,,,,,,,,,,,,,,,,,,,,,,,,,,,,,,,,,,,,,,,,,,,,,,,,,,,,,,
,,,,,,,,,,5dafea4de40355001651fa2f,27,Mężczyzna,2022-06-04_08h28.34.582,task,2021.1.4,Win32,59.91970759,628b806c463b948bc644b84f,629afaabfb1f66e5d01fab9e,,,,,1,0,1,0,1,X V Q F H G B L J M P D K C T S W R N Z,,,,,,,,,,,,,,,,,,,,,,,,,,,,,,,,,,,,,,,,,,,,,,,,,,,,,,,,,,,,,,,,,,,,,,,,,,,,,,,,,,,,,,,,,,,,,
,,,,,,,,,,5dafea4de40355001651fa2f,27,Mężczyzna,2022-06-04_08h28.34.582,task,2021.1.4,Win32,59.91970759,628b806c463b948bc644b84f,629afaabfb1f66e5d01fab9e,,,,,2,0,2,0,1,X V Q F H G B L J M P D K C T S W R N Z,,,,,,,,,,,,,,,,,,,,,,,,,,,,,,,,,,,,,,,,,,,,,,,,,,,,,,,,,,,,,,,,,,,,,,,,,,,,,,,,,,,,,,,,,,,,,
,,,,,,,,,,5dafea4de40355001651fa2f,27,Mężczyzna,2022-06-04_08h28.34.582,task,2021.1.4,Win32,59.91970759,628b806c463b948bc644b84f,629afaabfb1f66e5d01fab9e,,,,,3,0,3,0,1,X V Q F H G B L J M P D K C T S W R N Z,,,,,,,,,,,,,,,,,,,,,,,,,,,,,,,,,,,,,,,,,,,,,,,,,,,,,,,,,,,,,,,,,,,,,,,,,,,,,,,,,,,,,,,,,,,,,
,,,,,,,,,,5dafea4de40355001651fa2f,27,Mężczyzna,2022-06-04_08h28.34.582,task,2021.1.4,Win32,59.91970759,628b806c463b948bc644b84f,629afaabfb1f66e5d01fab9e,,,,,4,0,4,0,1,X V Q F H G B L J M P D K C T S W R N Z,,,,,,,,,,,,,,,,,,,,,,,,,,,,,,,,,,,,,,,,,,,,,,,,,,,,,,,,,,,,,,,,,,,,,,,,,,,,,,,,,,,,,,,,,,,,,
,,,,,,,,,,5dafea4de40355001651fa2f,27,Mężczyzna,2022-06-04_08h28.34.582,task,2021.1.4,Win32,59.91970759,628b806c463b948bc644b84f,629afaabfb1f66e5d01fab9e,,,,,5,0,5,0,1,X V Q F H G B L J M P D K C T S W R N Z,,,,,,,,,,,,,,,,,,,,,,,,,,,,,,,,,,,,,,,,,,,,,,,,,,,,,,,,,,,,,,,,,,,,,,,,,,,,,,,,,,,,,,,,,,,,,
,,,,,,,,,,5dafea4de40355001651fa2f,27,Mężczyzna,2022-06-04_08h28.34.582,task,2021.1.4,Win32,59.91970759,628b806c463b948bc644b84f,629afaabfb1f66e5d01fab9e,,,,,,,,,,,jwhhwfm,"[""j"",""w"",""h"",""h"",""w"",""f"",""m""]","[0.8597999999523154,1.7990999999045698,2.234499999999912,2.4774999999999636,3.8170000000000073,4.5846999998092315,4.948099999904571,5.172599999904605]",0,JWWHFM,10,0,10,0,1,,,,,,,,,,,,,,,,,,,,,,,,,,,,,,,,,,,,,,,,,,,,,,,,,,,,,,,,,,,,,,,,,,,,,,,,,,,,,,,,,,,
,,,,,,,,,,5dafea4de40355001651fa2f,27,Mężczyzna,2022-06-04_08h28.34.582,task,2021.1.4,Win32,59.91970759,628b806c463b948bc644b84f,629afaabfb1f66e5d01fab9e,,,,,0,0,0,0,1,X V Q F H G B L J M P D K C T S W R N Z,,,,,,,,,,,,,,,,,,,,,,,,,,,,,,,,,,,,,,,,,,,,,,,,,,,,,,,,,,,,,,,,,,,,,,,,,,,,,,,,,,,,,,,,,,,,,
,,,,,,,,,,5dafea4de40355001651fa2f,27,Mężczyzna,2022-06-04_08h28.34.582,task,2021.1.4,Win32,59.91970759,628b806c463b948bc644b84f,629afaabfb1f66e5d01fab9e,,,,,1,0,1,0,1,X V Q F H G B L J M P D K C T S W R N Z,,,,,,,,,,,,,,,,,,,,,,,,,,,,,,,,,,,,,,,,,,,,,,,,,,,,,,,,,,,,,,,,,,,,,,,,,,,,,,,,,,,,,,,,,,,,,
,,,,,,,,,,5dafea4de40355001651fa2f,27,Mężczyzna,2022-06-04_08h28.34.582,task,2021.1.4,Win32,59.91970759,628b806c463b948bc644b84f,629afaabfb1f66e5d01fab9e,,,,,2,0,2,0,1,X V Q F H G B L J M P D K C T S W R N Z,,,,,,,,,,,,,,,,,,,,,,,,,,,,,,,,,,,,,,,,,,,,,,,,,,,,,,,,,,,,,,,,,,,,,,,,,,,,,,,,,,,,,,,,,,,,,
,,,,,,,,,,5dafea4de40355001651fa2f,27,Mężczyzna,2022-06-04_08h28.34.582,task,2021.1.4,Win32,59.91970759,628b806c463b948bc644b84f,629afaabfb1f66e5d01fab9e,,,,,3,0,3,0,1,X V Q F H G B L J M P D K C T S W R N Z,,,,,,,,,,,,,,,,,,,,,,,,,,,,,,,,,,,,,,,,,,,,,,,,,,,,,,,,,,,,,,,,,,,,,,,,,,,,,,,,,,,,,,,,,,,,,
,,,,,,,,,,5dafea4de40355001651fa2f,27,Mężczyzna,2022-06-04_08h28.34.582,task,2021.1.4,Win32,59.91970759,628b806c463b948bc644b84f,629afaabfb1f66e5d01fab9e,,,,,4,0,4,0,1,X V Q F H G B L J M P D K C T S W R N Z,,,,,,,,,,,,,,,,,,,,,,,,,,,,,,,,,,,,,,,,,,,,,,,,,,,,,,,,,,,,,,,,,,,,,,,,,,,,,,,,,,,,,,,,,,,,,
,,,,,,,,,,5dafea4de40355001651fa2f,27,Mężczyzna,2022-06-04_08h28.34.582,task,2021.1.4,Win32,59.91970759,628b806c463b948bc644b84f,629afaabfb1f66e5d01fab9e,,,,,5,0,5,0,1,X V Q F H G B L J M P D K C T S W R N Z,,,,,,,,,,,,,,,,,,,,,,,,,,,,,,,,,,,,,,,,,,,,,,,,,,,,,,,,,,,,,,,,,,,,,,,,,,,,,,,,,,,,,,,,,,,,,
,,,,,,,,,,5dafea4de40355001651fa2f,27,Mężczyzna,2022-06-04_08h28.34.582,task,2021.1.4,Win32,59.91970759,628b806c463b948bc644b84f,629afaabfb1f66e5d01fab9e,,,,,,,,,,,klzrhrh,"[""k"",""l"",""z"",""r"",""h"",""r"",""h""]","[1.061400000095432,1.3371000001430957,2.0236000001431194,2.665200000047662,3.20090000009543,3.974400000095443,4.391299999952366,4.600799999952301]",0,KLRZRH,11,0,11,0,1,,,,,,,,,,,,,,,,,,,,,,,,,,,,,,,,,,,,,,,,,,,,,,,,,,,,,,,,,,,,,,,,,,,,,,,,,,,,,,,,,,,
,,,,,,,,,,5dafea4de40355001651fa2f,27,Mężczyzna,2022-06-04_08h28.34.582,task,2021.1.4,Win32,59.91970759,628b806c463b948bc644b84f,629afaabfb1f66e5d01fab9e,,,,,,,,,,,,,,,,,,,,,space,8.0074,4,"[""4""]",1,[8.484399999856919],[8.484399999856919],0,0,0,4,1,Practice,5,(2x6) - 8,4,,,,,,,,,,,,,,,,,,,,,,,,,,,,,,,,,,,,,,,,,,,,,,,,,,,,,,,,,,,,,,,,,,,
,,,,,,,,,,5dafea4de40355001651fa2f,27,Mężczyzna,2022-06-04_08h28.34.582,task,2021.1.4,Win32,59.91970759,628b806c463b948bc644b84f,629afaabfb1f66e5d01fab9e,,,,,,,,,,,,,,,,,,,,,,,0,"[""0""]",1,[3.2466000001430757],"[8.484399999856919,3.2466000001430757]",0,1,1,0,1,Practice,1,(3x3) -  9,0,,,,,,,,,,,,,,,,,,,,,,,,,,,,,,,,,,,,,,,,,,,,,,,,,,,,,,,,,,,,,,,,,,,
,,,,,,,,,,5dafea4de40355001651fa2f,27,Mężczyzna,2022-06-04_08h28.34.582,task,2021.1.4,Win32,59.91970759,628b806c463b948bc644b84f,629afaabfb1f66e5d01fab9e,,,,,,,,,,,,,,,,,,,,,,,3,"[""3""]",1,[2.2649999999999864],"[8.484399999856919,3.2466000001430757,2.2649999999999864]",0,2,2,3,1,Practice,4,(8/4) + 1,3,,,,,,,,,,,,,,,,,,,,,,,,,,,,,,,,,,,,,,,,,,,,,,,,,,,,,,,,,,,,,,,,,,,
,,,,,,,,,,5dafea4de40355001651fa2f,27,Mężczyzna,2022-06-04_08h28.34.582,task,2021.1.4,Win32,59.91970759,628b806c463b948bc644b84f,629afaabfb1f66e5d01fab9e,,,,,,,,,,,,,,,,,,,,,,,2,"[""2""]",1,[3.500300000190691],"[8.484399999856919,3.2466000001430757,2.2649999999999864,3.500300000190691]",0,3,3,2,1,Practice,3,(4x4) - 14,2,,,,,,,,,,,,,,,,,,,,,,,,,,,,,,,,,,,,,,,,,,,,,,,,,,,,,,,,,,,,,,,,,,,
,,,,,,,,,,5dafea4de40355001651fa2f,27,Mężczyzna,2022-06-04_08h28.34.582,task,2021.1.4,Win32,59.91970759,628b806c463b948bc644b84f,629afaabfb1f66e5d01fab9e,,,,,,,,,,,,,,,,,,,,,,,6,"[""6""]",1,[2.064200000047663],"[8.484399999856919,3.2466000001430757,2.2649999999999864,3.500300000190691,2.064200000047663]",0,4,4,6,1,Practice,7,(25/5) + 1,6,,,,,,,,,,,,,,,,,,,,,,,,,,,,,,,,,,,,,,,,,,,,,,,,,,,,,,,,,,,,,,,,,,,
,,,,,,,,,,5dafea4de40355001651fa2f,27,Mężczyzna,2022-06-04_08h28.34.582,task,2021.1.4,Win32,59.91970759,628b806c463b948bc644b84f,629afaabfb1f66e5d01fab9e,,,,,,,,,,,,,,,,,,,,,,,5,"[""5""]",1,[1.9893000001908376],"[8.484399999856919,3.2466000001430757,2.2649999999999864,3.500300000190691,2.064200000047663,1.9893000001908376]",0,5,5,5,1,Practice,6,(4/2) + 3,5,,,,,,,,,,,,,,,,,,,,,,,,,,,,,,,,,,,,,,,,,,,,,,,,,,,,,,,,,,,,,,,,,,,
,,,,,,,,,,5dafea4de40355001651fa2f,27,Mężczyzna,2022-06-04_08h28.34.582,task,2021.1.4,Win32,59.91970759,628b806c463b948bc644b84f,629afaabfb1f66e5d01fab9e,,,,,,,,,,,,,,,,,,,,,,,8,"[""8""]",1,[1.5921000001430912],"[8.484399999856919,3.2466000001430757,2.2649999999999864,3.500300000190691,2.064200000047663,1.9893000001908376,1.5921000001430912]",0,6,6,8,1,Practice,9,(3x3) - 1,8,,,,,,,,,,,,,,,,,,,,,,,,,,,,,,,,,,,,,,,,,,,,,,,,,,,,,,,,,,,,,,,,,,,
,,,,,,,,,,5dafea4de40355001651fa2f,27,Mężczyzna,2022-06-04_08h28.34.582,task,2021.1.4,Win32,59.91970759,628b806c463b948bc644b84f,629afaabfb1f66e5d01fab9e,,,,,,,,,,,,,,,,,,,,,,,7,"[""7""]",1,[2.338100000143072],"[8.484399999856919,3.2466000001430757,2.2649999999999864,3.500300000190691,2.064200000047663,1.9893000001908376,1.5921000001430912,2.338100000143072]",0,7,7,7,1,Practice,8,(5x5) - 18,7,,,,,,,,,,,,,,,,,,,,,,,,,,,,,,,,,,,,,,,,,,,,,,,,,,,,,,,,,,,,,,,,,,,
,,,,,,,,,,5dafea4de40355001651fa2f,27,Mężczyzna,2022-06-04_08h28.34.582,task,2021.1.4,Win32,59.91970759,628b806c463b948bc644b84f,629afaabfb1f66e5d01fab9e,,,,,,,,,,,,,,,,,,,,,,,1,"[""1""]",1,[1.9437999999523754],"[8.484399999856919,3.2466000001430757,2.2649999999999864,3.500300000190691,2.064200000047663,1.9893000001908376,1.5921000001430912,2.338100000143072,1.9437999999523754]",0,8,8,1,1,Practice,2,(4x4) - 15,1,,,,,,,,,,,,,,,,,,,,,,,,,,,,,,,,,,,,,,,,,,,,,,,,,,,,,,,,,,,,,,,,,,,
,,,,,,,,,,5dafea4de40355001651fa2f,27,Mężczyzna,2022-06-04_08h28.34.582,task,2021.1.4,Win32,59.91970759,628b806c463b948bc644b84f,629afaabfb1f66e5d01fab9e,,,,,,,,,,,,,,,,,,,,,,,9,"[""9""]",1,[2.23009999990461],"[8.484399999856919,3.2466000001430757,2.2649999999999864,3.500300000190691,2.064200000047663,1.9893000001908376,1.5921000001430912,2.338100000143072,1.9437999999523754,2.23009999990461]",0,9,9,9,1,Practice,10,(20/2) - 1,9,,,,,,,,,,,,,,,,,,,,,,,,,,,,,,,,,,,,,,,,,,,,,,,,,,,,,,,,,,,,,,,,,,,
,,,,,,,,,,5dafea4de40355001651fa2f,27,Mężczyzna,2022-06-04_08h28.34.582,task,2021.1.4,Win32,59.91970759,628b806c463b948bc644b84f,629afaabfb1f66e5d01fab9e,,,,,,,,,,,,,,,,,,,,,,,,,,,,,,,,,,,,,1,29.6539,1.976926667,46.7144337,1.764736689,6.529947323,space,1.9869,0,0,0,0,1,,,,,,,,,,,,,,,,,,,,,,,,,,,,,,,,,,,,,,,,,,,,,,,,,,,,,,
,,,,,,,,,,5dafea4de40355001651fa2f,27,Mężczyzna,2022-06-04_08h28.34.582,task,2021.1.4,Win32,59.91970759,628b806c463b948bc644b84f,629afaabfb1f66e5d01fab9e,,,,,,,,,,,,,,,,,,,,,,,7,,,,,,,,,,Practice,8,(5x5) - 18,7,,,,,,,,,,,,,,space,14.9842,"[""7""]",1,[3.753700000047729],1,0,0,0,7,1,,,,,,,,,,,,,,,,,,,,,,,,,,,,,,,,,,,,,,,,,,,
,,,,,,,,,,5dafea4de40355001651fa2f,27,Mężczyzna,2022-06-04_08h28.34.582,task,2021.1.4,Win32,59.91970759,628b806c463b948bc644b84f,629afaabfb1f66e5d01fab9e,,,,,,,,,,X V Q F H G B L J M P D K C T S W R N Z,,,,,,,,,,,,,,,,,,,,,,,,,,,,,,,,,,,,,,,,,,,,,,,,,,,0,0,0,0,1,,,,,,,,,,,,,,,,,,,,,,,,,,,,,,,,,,,,,,
,,,,,,,,,,5dafea4de40355001651fa2f,27,Mężczyzna,2022-06-04_08h28.34.582,task,2021.1.4,Win32,59.91970759,628b806c463b948bc644b84f,629afaabfb1f66e5d01fab9e,,,,,,,,,,,,,,,,,,,,,,,5,,,,,,,,,,Practice,6,(4/2) + 3,5,,,,,,,,,,,,,,,,"[""5""]",1,[2.3525000000000773],1,0,0,0,5,1,,,,,,,,,,,,,,,,,,,,,,,,,,,,,,,,,,,,,,,,,,,
,,,,,,,,,,5dafea4de40355001651fa2f,27,Mężczyzna,2022-06-04_08h28.34.582,task,2021.1.4,Win32,59.91970759,628b806c463b948bc644b84f,629afaabfb1f66e5d01fab9e,,,,,,,,,,X V Q F H G B L J M P D K C T S W R N Z,,,,,,,,,,,,,,,,,,,,,,,,,,,,,,,,,,,,,,,,,,,,,,,,,,,1,0,1,0,1,,,,,,,,,,,,,,,,,,,,,,,,,,,,,,,,,,,,,,
,,,,,,,,,,5dafea4de40355001651fa2f,27,Mężczyzna,2022-06-04_08h28.34.582,task,2021.1.4,Win32,59.91970759,628b806c463b948bc644b84f,629afaabfb1f66e5d01fab9e,,,,,,,,,,,,,,,,,,,,,,,,,,,,,,,,,,,,,,,,,,,,,,,,,,,,,,,,,,,,,,,,,,zz,"[""z"",""z""]",0,"[3.235200000047712,3.622100000143064,4.49350000000004]",1,0,0,0,0,1,,,,,,,,,,,,,,,,,,,,,,,,,,,,
,,,,,,,,,,5dafea4de40355001651fa2f,27,Mężczyzna,2022-06-04_08h28.34.582,task,2021.1.4,Win32,59.91970759,628b806c463b948bc644b84f,629afaabfb1f66e5d01fab9e,,,,,,,,,,,,,,,,,,,,,,,9,,,,,,,,,,Practice,10,(20/2) - 1,9,,,,,,,,,,,,,,,,"[""9""]",1,[2.3033000001906885],1,0,0,0,9,1,,,,,,,,,,,,,,,,,,,,,,,,,,,,,,,,,,,,,,,,,,,
,,,,,,,,,,5dafea4de40355001651fa2f,27,Mężczyzna,2022-06-04_08h28.34.582,task,2021.1.4,Win32,59.91970759,628b806c463b948bc644b84f,629afaabfb1f66e5d01fab9e,,,,,,,,,,X V Q F H G B L J M P D K C T S W R N Z,,,,,,,,,,,,,,,,,,,,,,,,,,,,,,,,,,,,,,,,,,,,,,,,,,,0,0,0,0,1,,,,,,,,,,,,,,,,,,,,,,,,,,,,,,,,,,,,,,
,,,,,,,,,,5dafea4de40355001651fa2f,27,Mężczyzna,2022-06-04_08h28.34.582,task,2021.1.4,Win32,59.91970759,628b806c463b948bc644b84f,629afaabfb1f66e5d01fab9e,,,,,,,,,,,,,,,,,,,,,,,2,,,,,,,,,,Practice,3,(4x4) - 14,2,,,,,,,,,,,,,,,,"[""2""]",1,[2.776299999952357],1,0,0,0,2,1,,,,,,,,,,,,,,,,,,,,,,,,,,,,,,,,,,,,,,,,,,,
,,,,,,,,,,5dafea4de40355001651fa2f,27,Mężczyzna,2022-06-04_08h28.34.582,task,2021.1.4,Win32,59.91970759,628b806c463b948bc644b84f,629afaabfb1f66e5d01fab9e,,,,,,,,,,X V Q F H G B L J M P D K C T S W R N Z,,,,,,,,,,,,,,,,,,,,,,,,,,,,,,,,,,,,,,,,,,,,,,,,,,,1,0,1,0,1,,,,,,,,,,,,,,,,,,,,,,,,,,,,,,,,,,,,,,
,,,,,,,,,,5dafea4de40355001651fa2f,27,Mężczyzna,2022-06-04_08h28.34.582,task,2021.1.4,Win32,59.91970759,628b806c463b948bc644b84f,629afaabfb1f66e5d01fab9e,,,,,,,,,,,,,,,,,,,,,,,,,,,,,,,,,,,,,,,,,,,,,,,,,,,,,,,,,,,,,,,,,,zj,"[""z"",""j""]",0,"[1.433999999999969,1.941500000000019,2.613599999904636]",1,1,0,1,0,1,,,,,,,,,,,,,,,,,,,,,,,,,,,,
,,,,,,,,,,5dafea4de40355001651fa2f,27,Mężczyzna,2022-06-04_08h28.34.582,task,2021.1.4,Win32,59.91970759,628b806c463b948bc644b84f,629afaabfb1f66e5d01fab9e,,,,,,,,,,,,,,,,,,,,,,,4,,,,,,,,,,Practice,5,(2x6) - 8,4,,,,,,,,,,,,,,,,"[""4""]",1,[3.6047000000477283],1,0,0,0,4,1,,,,,,,,,,,,,,,,,,,,,,,,,,,,,,,,,,,,,,,,,,,
,,,,,,,,,,5dafea4de40355001651fa2f,27,Mężczyzna,2022-06-04_08h28.34.582,task,2021.1.4,Win32,59.91970759,628b806c463b948bc644b84f,629afaabfb1f66e5d01fab9e,,,,,,,,,,X V Q F H G B L J M P D K C T S W R N Z,,,,,,,,,,,,,,,,,,,,,,,,,,,,,,,,,,,,,,,,,,,,,,,,,,,0,0,0,0,1,,,,,,,,,,,,,,,,,,,,,,,,,,,,,,,,,,,,,,
,,,,,,,,,,5dafea4de40355001651fa2f,27,Mężczyzna,2022-06-04_08h28.34.582,task,2021.1.4,Win32,59.91970759,628b806c463b948bc644b84f,629afaabfb1f66e5d01fab9e,,,,,,,,,,,,,,,,,,,,,,,4,,,,,,,,,,Practice,5,(2x6) - 8,4,,,,,,,,,,,,,,,,"[""4""]",1,[2.355900000095403],1,0,0,0,4,1,,,,,,,,,,,,,,,,,,,,,,,,,,,,,,,,,,,,,,,,,,,
,,,,,,,,,,5dafea4de40355001651fa2f,27,Mężczyzna,2022-06-04_08h28.34.582,task,2021.1.4,Win32,59.91970759,628b806c463b948bc644b84f,629afaabfb1f66e5d01fab9e,,,,,,,,,,X V Q F H G B L J M P D K C T S W R N Z,,,,,,,,,,,,,,,,,,,,,,,,,,,,,,,,,,,,,,,,,,,,,,,,,,,1,0,1,0,1,,,,,,,,,,,,,,,,,,,,,,,,,,,,,,,,,,,,,,
,,,,,,,,,,5dafea4de40355001651fa2f,27,Mężczyzna,2022-06-04_08h28.34.582,task,2021.1.4,Win32,59.91970759,628b806c463b948bc644b84f,629afaabfb1f66e5d01fab9e,,,,,,,,,,,,,,,,,,,,,,,,,,,,,,,,,,,,,,,,,,,,,,,,,,,,,,,,,,,,,,,,,,hg,"[""h"",""g""]",0,"[1.9233999998568834,2.3968999998569416,3.2023999998568797]",1,2,0,2,0,1,,,,,,,,,,,,,,,,,,,,,,,,,,,,
,,,,,,,,,,5dafea4de40355001651fa2f,27,Mężczyzna,2022-06-04_08h28.34.582,task,2021.1.4,Win32,59.91970759,628b806c463b948bc644b84f,629afaabfb1f66e5d01fab9e,,,,,,,,,,,,,,,,,,,,,,,3,,,,,,,,,,Task,27,(3/3) + 2,3,,,,,,,,,,,,,,,,,,,1,,,,,,,,,,,,,,,,,,,,,space,16.3044,"[""3""]",1,[3.336999999999989],0,0,0,26,1,,,,,,,,,,,,,,,,,,
,,,,,,,,,,5dafea4de40355001651fa2f,27,Mężczyzna,2022-06-04_08h28.34.582,task,2021.1.4,Win32,59.91970759,628b806c463b948bc644b84f,629afaabfb1f66e5d01fab9e,,,,,,,,,,X V Q F H G B L J M P D K C T S W R N Z,,,,,,,,,,,,,,,,,,,,,,,,,,,,,,,,,,,,,,,,,,,,,,,,,,,,,,,,,,,,,,,,,,,,,,,,,,,,0,0,0,0,1,,,,,,,,,,,,,
,,,,,,,,,,5dafea4de40355001651fa2f,27,Mężczyzna,2022-06-04_08h28.34.582,task,2021.1.4,Win32,59.91970759,628b806c463b948bc644b84f,629afaabfb1f66e5d01fab9e,,,,,,,,,,,,,,,,,,,,,,,1,,,,,,,,,,Task,1,(12/6) - 1,1,,,,,,,,,,,,,,,,,,,1,,,,,,,,,,,,,,,,,,,,,,,"[""1""]",1,[3.3906000001429675],0,0,0,0,1,,,,,,,,,,,,,,,,,,
,,,,,,,,,,5dafea4de40355001651fa2f,27,Mężczyzna,2022-06-04_08h28.34.582,task,2021.1.4,Win32,59.91970759,628b806c463b948bc644b84f,629afaabfb1f66e5d01fab9e,,,,,,,,,,X V Q F H G B L J M P D K C T S W R N Z,,,,,,,,,,,,,,,,,,,,,,,,,,,,,,,,,,,,,,,,,,,,,,,,,,,,,,,,,,,,,,,,,,,,,,,,,,,,1,0,1,0,1,,,,,,,,,,,,,
,,,,,,,,,,5dafea4de40355001651fa2f,27,Mężczyzna,2022-06-04_08h28.34.582,task,2021.1.4,Win32,59.91970759,628b806c463b948bc644b84f,629afaabfb1f66e5d01fab9e,,,,,,,,,,,,,,,,,,,,,,,,,,,,,,,,,,,,,,,,,,,,,,,,,,,,,,,,,,,,,,,,,,,,,,,,,,,,,,,,,,,,,,,,,,,zc,"[""z"",""c""]",0,"[1.6048999998569116,1.9293999998568552,2.7223999998568615]",1,ZC,0,0,0,0,1,,
,,,,,,,,,,5dafea4de40355001651fa2f,27,Mężczyzna,2022-06-04_08h28.34.582,task,2021.1.4,Win32,59.91970759,628b806c463b948bc644b84f,629afaabfb1f66e5d01fab9e,,,,,,,,,,,,,,,,,,,,,,,2,,,,,,,,,,Task,2,(2x2) - 2,2,,,,,,,,,,,,,,,,,,,1,,,,,,,,,,,,,,,,,,,,,,,"[""2""]",1,[2.6088000001907403],0,0,0,1,1,,,,,,,,,,,,,,,,,,
,,,,,,,,,,5dafea4de40355001651fa2f,27,Mężczyzna,2022-06-04_08h28.34.582,task,2021.1.4,Win32,59.91970759,628b806c463b948bc644b84f,629afaabfb1f66e5d01fab9e,,,,,,,,,,X V Q F H G B L J M P D K C T S W R N Z,,,,,,,,,,,,,,,,,,,,,,,,,,,,,,,,,,,,,,,,,,,,,,,,,,,,,,,,,,,,,,,,,,,,,,,,,,,,0,0,0,0,1,,,,,,,,,,,,,
,,,,,,,,,,5dafea4de40355001651fa2f,27,Mężczyzna,2022-06-04_08h28.34.582,task,2021.1.4,Win32,59.91970759,628b806c463b948bc644b84f,629afaabfb1f66e5d01fab9e,,,,,,,,,,,,,,,,,,,,,,,8,,,,,,,,,,Task,39,(5x3) - 7,8,,,,,,,,,,,,,,,,,,,1,,,,,,,,,,,,,,,,,,,,,,,"[""8""]",1,[5.401000000000067],0,0,0,38,1,,,,,,,,,,,,,,,,,,
,,,,,,,,,,5dafea4de40355001651fa2f,27,Mężczyzna,2022-06-04_08h28.34.582,task,2021.1.4,Win32,59.91970759,628b806c463b948bc644b84f,629afaabfb1f66e5d01fab9e,,,,,,,,,,X V Q F H G B L J M P D K C T S W R N Z,,,,,,,,,,,,,,,,,,,,,,,,,,,,,,,,,,,,,,,,,,,,,,,,,,,,,,,,,,,,,,,,,,,,,,,,,,,,1,0,1,0,1,,,,,,,,,,,,,
,,,,,,,,,,5dafea4de40355001651fa2f,27,Mężczyzna,2022-06-04_08h28.34.582,task,2021.1.4,Win32,59.91970759,628b806c463b948bc644b84f,629afaabfb1f66e5d01fab9e,,,,,,,,,,,,,,,,,,,,,,,1,,,,,,,,,,Task,9,(3x7) - 20,1,,,,,,,,,,,,,,,,,,,1,,,,,,,,,,,,,,,,,,,,,,,"[""1""]",1,[3.0285999999046],0,0,0,8,1,,,,,,,,,,,,,,,,,,
,,,,,,,,,,5dafea4de40355001651fa2f,27,Mężczyzna,2022-06-04_08h28.34.582,task,2021.1.4,Win32,59.91970759,628b806c463b948bc644b84f,629afaabfb1f66e5d01fab9e,,,,,,,,,,X V Q F H G B L J M P D K C T S W R N Z,,,,,,,,,,,,,,,,,,,,,,,,,,,,,,,,,,,,,,,,,,,,,,,,,,,,,,,,,,,,,,,,,,,,,,,,,,,,2,0,2,0,1,,,,,,,,,,,,,
,,,,,,,,,,5dafea4de40355001651fa2f,27,Mężczyzna,2022-06-04_08h28.34.582,task,2021.1.4,Win32,59.91970759,628b806c463b948bc644b84f,629afaabfb1f66e5d01fab9e,,,,,,,,,,,,,,,,,,,,,,,,,,,,,,,,,,,,,,,,,,,,,,,,,,,,,,,,,,,,,,,,,,,,,,,,,,,,,,,,,,,,,,,,,,,cjf,"[""c"",""j"",""f""]",0,"[1.5868999998569961,2.173000000000002,2.93909999990467,3.7307999999522963]",1,CJF,1,0,1,0,1,,
,,,,,,,,,,5dafea4de40355001651fa2f,27,Mężczyzna,2022-06-04_08h28.34.582,task,2021.1.4,Win32,59.91970759,628b806c463b948bc644b84f,629afaabfb1f66e5d01fab9e,,,,,,,,,,,,,,,,,,,,,,,3,,,,,,,,,,Task,35,(1x2) + 1,3,,,,,,,,,,,,,,,,,,,1,,,,,,,,,,,,,,,,,,,,,,,"[""3""]",1,[2.3877999999523354],0,0,0,34,1,,,,,,,,,,,,,,,,,,
,,,,,,,,,,5dafea4de40355001651fa2f,27,Mężczyzna,2022-06-04_08h28.34.582,task,2021.1.4,Win32,59.91970759,628b806c463b948bc644b84f,629afaabfb1f66e5d01fab9e,,,,,,,,,,X V Q F H G B L J M P D K C T S W R N Z,,,,,,,,,,,,,,,,,,,,,,,,,,,,,,,,,,,,,,,,,,,,,,,,,,,,,,,,,,,,,,,,,,,,,,,,,,,,0,0,0,0,1,,,,,,,,,,,,,
,,,,,,,,,,5dafea4de40355001651fa2f,27,Mężczyzna,2022-06-04_08h28.34.582,task,2021.1.4,Win32,59.91970759,628b806c463b948bc644b84f,629afaabfb1f66e5d01fab9e,,,,,,,,,,,,,,,,,,,,,,,,,,,,,,,,,Task,39,(5x3) - 7,8,,,,,,,,,,,,,,,,,,,0,,,,,,,,,,,,,,,,,,,,,,,,0,,0,0,0,38,1,,,,,,,,,,,,,,,,,,
,,,,,,,,,,5dafea4de40355001651fa2f,27,Mężczyzna,2022-06-04_08h28.34.582,task,2021.1.4,Win32,59.91970759,628b806c463b948bc644b84f,629afaabfb1f66e5d01fab9e,,,,,,,,,,,,,,,,,,,,,,,9,,,,,,,,,,Task,16,(3x8) - 15,9,,,,,,,,,,,,,,,,,,,1,,,,,,,,,,,,,,,,,,,,,,,"[""9""]",1,[2.605899999856888],0,1,1,15,1,,,,,,,,,,,,,,,,,,
,,,,,,,,,,5dafea4de40355001651fa2f,27,Mężczyzna,2022-06-04_08h28.34.582,task,2021.1.4,Win32,59.91970759,628b806c463b948bc644b84f,629afaabfb1f66e5d01fab9e,,,,,,,,,,X V Q F H G B L J M P D K C T S W R N Z,,,,,,,,,,,,,,,,,,,,,,,,,,,,,,,,,,,,,,,,,,,,,,,,,,,,,,,,,,,,,,,,,,,,,,,,,,,,1,0,1,0,1,,,,,,,,,,,,,
,,,,,,,,,,5dafea4de40355001651fa2f,27,Mężczyzna,2022-06-04_08h28.34.582,task,2021.1.4,Win32,59.91970759,628b806c463b948bc644b84f,629afaabfb1f66e5d01fab9e,,,,,,,,,,,,,,,,,,,,,,,4,,,,,,,,,,Task,28,(2x5) - 6,4,,,,,,,,,,,,,,,,,,,1,,,,,,,,,,,,,,,,,,,,,,,"[""4""]",1,[2.568200000047682],0,0,0,27,1,,,,,,,,,,,,,,,,,,
,,,,,,,,,,5dafea4de40355001651fa2f,27,Mężczyzna,2022-06-04_08h28.34.582,task,2021.1.4,Win32,59.91970759,628b806c463b948bc644b84f,629afaabfb1f66e5d01fab9e,,,,,,,,,,X V Q F H G B L J M P D K C T S W R N Z,,,,,,,,,,,,,,,,,,,,,,,,,,,,,,,,,,,,,,,,,,,,,,,,,,,,,,,,,,,,,,,,,,,,,,,,,,,,2,0,2,0,1,,,,,,,,,,,,,
,,,,,,,,,,5dafea4de40355001651fa2f,27,Mężczyzna,2022-06-04_08h28.34.582,task,2021.1.4,Win32,59.91970759,628b806c463b948bc644b84f,629afaabfb1f66e5d01fab9e,,,,,,,,,,,,,,,,,,,,,,,6,,,,,,,,,,Task,37,(3/3) + 5,6,,,,,,,,,,,,,,,,,,,1,,,,,,,,,,,,,,,,,,,,,,,"[""6""]",1,[2.484399999856919],0,0,0,36,1,,,,,,,,,,,,,,,,,,
,,,,,,,,,,5dafea4de40355001651fa2f,27,Mężczyzna,2022-06-04_08h28.34.582,task,2021.1.4,Win32,59.91970759,628b806c463b948bc644b84f,629afaabfb1f66e5d01fab9e,,,,,,,,,,X V Q F H G B L J M P D K C T S W R N Z,,,,,,,,,,,,,,,,,,,,,,,,,,,,,,,,,,,,,,,,,,,,,,,,,,,,,,,,,,,,,,,,,,,,,,,,,,,,3,0,3,0,1,,,,,,,,,,,,,
,,,,,,,,,,5dafea4de40355001651fa2f,27,Mężczyzna,2022-06-04_08h28.34.582,task,2021.1.4,Win32,59.91970759,628b806c463b948bc644b84f,629afaabfb1f66e5d01fab9e,,,,,,,,,,,,,,,,,,,,,,,,,,,,,,,,,,,,,,,,,,,,,,,,,,,,,,,,,,,,,,,,,,,,,,,,,,,,,,,,,,,,,,,,,,,jcqx,"[""j"",""c"",""q"",""x""]",0,"[1.5824999999999818,2.1670999999046217,2.907299999952329,3.339099999904647,3.8804999999999836]",1,JCQX,2,0,2,0,1,,
,,,,,,,,,,5dafea4de40355001651fa2f,27,Mężczyzna,2022-06-04_08h28.34.582,task,2021.1.4,Win32,59.91970759,628b806c463b948bc644b84f,629afaabfb1f66e5d01fab9e,,,,,,,,,,,,,,,,,,,,,,,8,,,,,,,,,,Task,23,(2x3) + 2,8,,,,,,,,,,,,,,,,,,,1,,,,,,,,,,,,,,,,,,,,,,,"[""8""]",1,[2.415099999904669],0,0,0,22,1,,,,,,,,,,,,,,,,,,
,,,,,,,,,,5dafea4de40355001651fa2f,27,Mężczyzna,2022-06-04_08h28.34.582,task,2021.1.4,Win32,59.91970759,628b806c463b948bc644b84f,629afaabfb1f66e5d01fab9e,,,,,,,,,,X V Q F H G B L J M P D K C T S W R N Z,,,,,,,,,,,,,,,,,,,,,,,,,,,,,,,,,,,,,,,,,,,,,,,,,,,,,,,,,,,,,,,,,,,,,,,,,,,,0,0,0,0,1,,,,,,,,,,,,,
,,,,,,,,,,5dafea4de40355001651fa2f,27,Mężczyzna,2022-06-04_08h28.34.582,task,2021.1.4,Win32,59.91970759,628b806c463b948bc644b84f,629afaabfb1f66e5d01fab9e,,,,,,,,,,,,,,,,,,,,,,,2,,,,,,,,,,Task,19,(6/2) - 1,2,,,,,,,,,,,,,,,,,,,1,,,,,,,,,,,,,,,,,,,,,,,"[""2""]",1,[1.9897999999523108],0,0,0,18,1,,,,,,,,,,,,,,,,,,
,,,,,,,,,,5dafea4de40355001651fa2f,27,Mężczyzna,2022-06-04_08h28.34.582,task,2021.1.4,Win32,59.91970759,628b806c463b948bc644b84f,629afaabfb1f66e5d01fab9e,,,,,,,,,,X V Q F H G B L J M P D K C T S W R N Z,,,,,,,,,,,,,,,,,,,,,,,,,,,,,,,,,,,,,,,,,,,,,,,,,,,,,,,,,,,,,,,,,,,,,,,,,,,,1,0,1,0,1,,,,,,,,,,,,,
,,,,,,,,,,5dafea4de40355001651fa2f,27,Mężczyzna,2022-06-04_08h28.34.582,task,2021.1.4,Win32,59.91970759,628b806c463b948bc644b84f,629afaabfb1f66e5d01fab9e,,,,,,,,,,,,,,,,,,,,,,,1,,,,,,,,,,Task,34,(9/3) - 2,1,,,,,,,,,,,,,,,,,,,1,,,,,,,,,,,,,,,,,,,,,,,"[""1""]",1,[2.101100000142992],0,0,0,33,1,,,,,,,,,,,,,,,,,,
,,,,,,,,,,5dafea4de40355001651fa2f,27,Mężczyzna,2022-06-04_08h28.34.582,task,2021.1.4,Win32,59.91970759,628b806c463b948bc644b84f,629afaabfb1f66e5d01fab9e,,,,,,,,,,X V Q F H G B L J M P D K C T S W R N Z,,,,,,,,,,,,,,,,,,,,,,,,,,,,,,,,,,,,,,,,,,,,,,,,,,,,,,,,,,,,,,,,,,,,,,,,,,,,2,0,2,0,1,,,,,,,,,,,,,
,,,,,,,,,,5dafea4de40355001651fa2f,27,Mężczyzna,2022-06-04_08h28.34.582,task,2021.1.4,Win32,59.91970759,628b806c463b948bc644b84f,629afaabfb1f66e5d01fab9e,,,,,,,,,,,,,,,,,,,,,,,2,,,,,,,,,,Task,19,(6/2) - 1,2,,,,,,,,,,,,,,,,,,,1,,,,,,,,,,,,,,,,,,,,,,,"[""2""]",1,[2.1747000000476646],0,0,0,18,1,,,,,,,,,,,,,,,,,,
,,,,,,,,,,5dafea4de40355001651fa2f,27,Mężczyzna,2022-06-04_08h28.34.582,task,2021.1.4,Win32,59.91970759,628b806c463b948bc644b84f,629afaabfb1f66e5d01fab9e,,,,,,,,,,X V Q F H G B L J M P D K C T S W R N Z,,,,,,,,,,,,,,,,,,,,,,,,,,,,,,,,,,,,,,,,,,,,,,,,,,,,,,,,,,,,,,,,,,,,,,,,,,,,3,0,3,0,1,,,,,,,,,,,,,
,,,,,,,,,,5dafea4de40355001651fa2f,27,Mężczyzna,2022-06-04_08h28.34.582,task,2021.1.4,Win32,59.91970759,628b806c463b948bc644b84f,629afaabfb1f66e5d01fab9e,,,,,,,,,,,,,,,,,,,,,,,9,,,,,,,,,,Task,15,(3x7) - 13,8,,,,,,,,,,,,,,,,,,,0,,,,,,,,,,,,,,,,,,,,,,,"[""9""]",0,[4.410300000190659],0,0,0,14,1,,,,,,,,,,,,,,,,,,
,,,,,,,,,,5dafea4de40355001651fa2f,27,Mężczyzna,2022-06-04_08h28.34.582,task,2021.1.4,Win32,59.91970759,628b806c463b948bc644b84f,629afaabfb1f66e5d01fab9e,,,,,,,,,,,,,,,,,,,,,,,9,,,,,,,,,,Task,24,(2x2) + 5,9,,,,,,,,,,,,,,,,,,,1,,,,,,,,,,,,,,,,,,,,,,,"[""9""]",1,[3.040899999856947],0,1,1,23,1,,,,,,,,,,,,,,,,,,
,,,,,,,,,,5dafea4de40355001651fa2f,27,Mężczyzna,2022-06-04_08h28.34.582,task,2021.1.4,Win32,59.91970759,628b806c463b948bc644b84f,629afaabfb1f66e5d01fab9e,,,,,,,,,,X V Q F H G B L J M P D K C T S W R N Z,,,,,,,,,,,,,,,,,,,,,,,,,,,,,,,,,,,,,,,,,,,,,,,,,,,,,,,,,,,,,,,,,,,,,,,,,,,,4,0,4,0,1,,,,,,,,,,,,,
,,,,,,,,,,5dafea4de40355001651fa2f,27,Mężczyzna,2022-06-04_08h28.34.582,task,2021.1.4,Win32,59.91970759,628b806c463b948bc644b84f,629afaabfb1f66e5d01fab9e,,,,,,,,,,,,,,,,,,,,,,,,,,,,,,,,,,,,,,,,,,,,,,,,,,,,,,,,,,,,,,,,,,,,,,,,,,,,,,,,,,,,,,,,,,,ngrl,"[""n"",""g"",""r"",""l""]",0,"[1.4745999999046262,2.0820999999045853,2.602999999999952,3.2339999999999236,3.5367999999522226]",0,NGRSL,3,0,3,0,1,,
,,,,,,,,,,5dafea4de40355001651fa2f,27,Mężczyzna,2022-06-04_08h28.34.582,task,2021.1.4,Win32,59.91970759,628b806c463b948bc644b84f,629afaabfb1f66e5d01fab9e,,,,,,,,,,,,,,,,,,,,,,,5,,,,,,,,,,Task,12,(4x4) - 11,5,,,,,,,,,,,,,,,,,,,1,,,,,,,,,,,,,,,,,,,,,,,"[""5""]",1,[2.1443000001906967],0,0,0,11,1,,,,,,,,,,,,,,,,,,
,,,,,,,,,,5dafea4de40355001651fa2f,27,Mężczyzna,2022-06-04_08h28.34.582,task,2021.1.4,Win32,59.91970759,628b806c463b948bc644b84f,629afaabfb1f66e5d01fab9e,,,,,,,,,,X V Q F H G B L J M P D K C T S W R N Z,,,,,,,,,,,,,,,,,,,,,,,,,,,,,,,,,,,,,,,,,,,,,,,,,,,,,,,,,,,,,,,,,,,,,,,,,,,,0,0,0,0,1,,,,,,,,,,,,,
,,,,,,,,,,5dafea4de40355001651fa2f,27,Mężczyzna,2022-06-04_08h28.34.582,task,2021.1.4,Win32,59.91970759,628b806c463b948bc644b84f,629afaabfb1f66e5d01fab9e,,,,,,,,,,,,,,,,,,,,,,,4,,,,,,,,,,Task,4,(1x5) - 1,4,,,,,,,,,,,,,,,,,,,1,,,,,,,,,,,,,,,,,,,,,,,"[""4""]",1,[1.6060999999045862],0,0,0,3,1,,,,,,,,,,,,,,,,,,
,,,,,,,,,,5dafea4de40355001651fa2f,27,Mężczyzna,2022-06-04_08h28.34.582,task,2021.1.4,Win32,59.91970759,628b806c463b948bc644b84f,629afaabfb1f66e5d01fab9e,,,,,,,,,,X V Q F H G B L J M P D K C T S W R N Z,,,,,,,,,,,,,,,,,,,,,,,,,,,,,,,,,,,,,,,,,,,,,,,,,,,,,,,,,,,,,,,,,,,,,,,,,,,,1,0,1,0,1,,,,,,,,,,,,,
,,,,,,,,,,5dafea4de40355001651fa2f,27,Mężczyzna,2022-06-04_08h28.34.582,task,2021.1.4,Win32,59.91970759,628b806c463b948bc644b84f,629afaabfb1f66e5d01fab9e,,,,,,,,,,,,,,,,,,,,,,,2,,,,,,,,,,Task,19,(6/2) - 1,2,,,,,,,,,,,,,,,,,,,1,,,,,,,,,,,,,,,,,,,,,,,"[""2""]",1,[1.585999999999899],0,0,0,18,1,,,,,,,,,,,,,,,,,,
,,,,,,,,,,5dafea4de40355001651fa2f,27,Mężczyzna,2022-06-04_08h28.34.582,task,2021.1.4,Win32,59.91970759,628b806c463b948bc644b84f,629afaabfb1f66e5d01fab9e,,,,,,,,,,X V Q F H G B L J M P D K C T S W R N Z,,,,,,,,,,,,,,,,,,,,,,,,,,,,,,,,,,,,,,,,,,,,,,,,,,,,,,,,,,,,,,,,,,,,,,,,,,,,2,0,2,0,1,,,,,,,,,,,,,
,,,,,,,,,,5dafea4de40355001651fa2f,27,Mężczyzna,2022-06-04_08h28.34.582,task,2021.1.4,Win32,59.91970759,628b806c463b948bc644b84f,629afaabfb1f66e5d01fab9e,,,,,,,,,,,,,,,,,,,,,,,8,,,,,,,,,,Task,23,(2x3) + 2,8,,,,,,,,,,,,,,,,,,,1,,,,,,,,,,,,,,,,,,,,,,,"[""8""]",1,[1.9542999999523545],0,0,0,22,1,,,,,,,,,,,,,,,,,,
,,,,,,,,,,5dafea4de40355001651fa2f,27,Mężczyzna,2022-06-04_08h28.34.582,task,2021.1.4,Win32,59.91970759,628b806c463b948bc644b84f,629afaabfb1f66e5d01fab9e,,,,,,,,,,X V Q F H G B L J M P D K C T S W R N Z,,,,,,,,,,,,,,,,,,,,,,,,,,,,,,,,,,,,,,,,,,,,,,,,,,,,,,,,,,,,,,,,,,,,,,,,,,,,3,0,3,0,1,,,,,,,,,,,,,
,,,,,,,,,,5dafea4de40355001651fa2f,27,Mężczyzna,2022-06-04_08h28.34.582,task,2021.1.4,Win32,59.91970759,628b806c463b948bc644b84f,629afaabfb1f66e5d01fab9e,,,,,,,,,,,,,,,,,,,,,,,9,,,,,,,,,,Task,16,(3x8) - 15,9,,,,,,,,,,,,,,,,,,,1,,,,,,,,,,,,,,,,,,,,,,,"[""9""]",1,[2.890900000095371],0,0,0,15,1,,,,,,,,,,,,,,,,,,
,,,,,,,,,,5dafea4de40355001651fa2f,27,Mężczyzna,2022-06-04_08h28.34.582,task,2021.1.4,Win32,59.91970759,628b806c463b948bc644b84f,629afaabfb1f66e5d01fab9e,,,,,,,,,,X V Q F H G B L J M P D K C T S W R N Z,,,,,,,,,,,,,,,,,,,,,,,,,,,,,,,,,,,,,,,,,,,,,,,,,,,,,,,,,,,,,,,,,,,,,,,,,,,,4,0,4,0,1,,,,,,,,,,,,,
,,,,,,,,,,5dafea4de40355001651fa2f,27,Mężczyzna,2022-06-04_08h28.34.582,task,2021.1.4,Win32,59.91970759,628b806c463b948bc644b84f,629afaabfb1f66e5d01fab9e,,,,,,,,,,,,,,,,,,,,,,,,,,,,,,,,,,,,,,,,,,,,,,,,,,,,,,,,,,,,,,,,,,,,,,,,,,,,,,,,,,,,,,,,,,,gddnv,"[""g"",""d"",""d"",""n"",""v""]",0,"[1.5580999999045844,2.087299999952279,2.2747000000476874,3.143000000000029,3.669999999999959,4.041399999856935]",1,GDDNV,4,0,4,0,1,,
,,,,,,,,,,5dafea4de40355001651fa2f,27,Mężczyzna,2022-06-04_08h28.34.582,task,2021.1.4,Win32,59.91970759,628b806c463b948bc644b84f,629afaabfb1f66e5d01fab9e,,,,,,,,,,,,,,,,,,,,,,,4,,,,,,,,,,Task,4,(1x5) - 1,4,,,,,,,,,,,,,,,,,,,1,,,,,,,,,,,,,,,,,,,,,,,"[""4""]",1,[1.7374000000953629],0,0,0,3,1,,,,,,,,,,,,,,,,,,
,,,,,,,,,,5dafea4de40355001651fa2f,27,Mężczyzna,2022-06-04_08h28.34.582,task,2021.1.4,Win32,59.91970759,628b806c463b948bc644b84f,629afaabfb1f66e5d01fab9e,,,,,,,,,,X V Q F H G B L J M P D K C T S W R N Z,,,,,,,,,,,,,,,,,,,,,,,,,,,,,,,,,,,,,,,,,,,,,,,,,,,,,,,,,,,,,,,,,,,,,,,,,,,,0,0,0,0,1,,,,,,,,,,,,,
,,,,,,,,,,5dafea4de40355001651fa2f,27,Mężczyzna,2022-06-04_08h28.34.582,task,2021.1.4,Win32,59.91970759,628b806c463b948bc644b84f,629afaabfb1f66e5d01fab9e,,,,,,,,,,,,,,,,,,,,,,,9,,,,,,,,,,Task,16,(3x8) - 15,9,,,,,,,,,,,,,,,,,,,1,,,,,,,,,,,,,,,,,,,,,,,"[""9""]",1,[2.0427000000477165],0,0,0,15,1,,,,,,,,,,,,,,,,,,
,,,,,,,,,,5dafea4de40355001651fa2f,27,Mężczyzna,2022-06-04_08h28.34.582,task,2021.1.4,Win32,59.91970759,628b806c463b948bc644b84f,629afaabfb1f66e5d01fab9e,,,,,,,,,,X V Q F H G B L J M P D K C T S W R N Z,,,,,,,,,,,,,,,,,,,,,,,,,,,,,,,,,,,,,,,,,,,,,,,,,,,,,,,,,,,,,,,,,,,,,,,,,,,,1,0,1,0,1,,,,,,,,,,,,,
,,,,,,,,,,5dafea4de40355001651fa2f,27,Mężczyzna,2022-06-04_08h28.34.582,task,2021.1.4,Win32,59.91970759,628b806c463b948bc644b84f,629afaabfb1f66e5d01fab9e,,,,,,,,,,,,,,,,,,,,,,,0,,,,,,,,,,Task,33,(1/1) - 1,0,,,,,,,,,,,,,,,,,,,1,,,,,,,,,,,,,,,,,,,,,,,"[""0""]",1,[2.2583000001907294],0,0,0,32,1,,,,,,,,,,,,,,,,,,
,,,,,,,,,,5dafea4de40355001651fa2f,27,Mężczyzna,2022-06-04_08h28.34.582,task,2021.1.4,Win32,59.91970759,628b806c463b948bc644b84f,629afaabfb1f66e5d01fab9e,,,,,,,,,,X V Q F H G B L J M P D K C T S W R N Z,,,,,,,,,,,,,,,,,,,,,,,,,,,,,,,,,,,,,,,,,,,,,,,,,,,,,,,,,,,,,,,,,,,,,,,,,,,,2,0,2,0,1,,,,,,,,,,,,,
,,,,,,,,,,5dafea4de40355001651fa2f,27,Mężczyzna,2022-06-04_08h28.34.582,task,2021.1.4,Win32,59.91970759,628b806c463b948bc644b84f,629afaabfb1f66e5d01fab9e,,,,,,,,,,,,,,,,,,,,,,,6,,,,,,,,,,Task,5,(2x3) + 0,6,,,,,,,,,,,,,,,,,,,1,,,,,,,,,,,,,,,,,,,,,,,"[""6""]",1,[2.613899999856926],0,0,0,4,1,,,,,,,,,,,,,,,,,,
,,,,,,,,,,5dafea4de40355001651fa2f,27,Mężczyzna,2022-06-04_08h28.34.582,task,2021.1.4,Win32,59.91970759,628b806c463b948bc644b84f,629afaabfb1f66e5d01fab9e,,,,,,,,,,X V Q F H G B L J M P D K C T S W R N Z,,,,,,,,,,,,,,,,,,,,,,,,,,,,,,,,,,,,,,,,,,,,,,,,,,,,,,,,,,,,,,,,,,,,,,,,,,,,3,0,3,0,1,,,,,,,,,,,,,
,,,,,,,,,,5dafea4de40355001651fa2f,27,Mężczyzna,2022-06-04_08h28.34.582,task,2021.1.4,Win32,59.91970759,628b806c463b948bc644b84f,629afaabfb1f66e5d01fab9e,,,,,,,,,,,,,,,,,,,,,,,7,,,,,,,,,,Task,11,(18/3) - 2,4,,,,,,,,,,,,,,,,,,,0,,,,,,,,,,,,,,,,,,,,,,,"[""7""]",0,[2.922099999904731],0,0,0,10,1,,,,,,,,,,,,,,,,,,
,,,,,,,,,,5dafea4de40355001651fa2f,27,Mężczyzna,2022-06-04_08h28.34.582,task,2021.1.4,Win32,59.91970759,628b806c463b948bc644b84f,629afaabfb1f66e5d01fab9e,,,,,,,,,,,,,,,,,,,,,,,5,,,,,,,,,,Task,12,(4x4) - 11,5,,,,,,,,,,,,,,,,,,,1,,,,,,,,,,,,,,,,,,,,,,,"[""5""]",1,[1.8736999998092188],0,1,1,11,1,,,,,,,,,,,,,,,,,,
,,,,,,,,,,5dafea4de40355001651fa2f,27,Mężczyzna,2022-06-04_08h28.34.582,task,2021.1.4,Win32,59.91970759,628b806c463b948bc644b84f,629afaabfb1f66e5d01fab9e,,,,,,,,,,X V Q F H G B L J M P D K C T S W R N Z,,,,,,,,,,,,,,,,,,,,,,,,,,,,,,,,,,,,,,,,,,,,,,,,,,,,,,,,,,,,,,,,,,,,,,,,,,,,4,0,4,0,1,,,,,,,,,,,,,
,,,,,,,,,,5dafea4de40355001651fa2f,27,Mężczyzna,2022-06-04_08h28.34.582,task,2021.1.4,Win32,59.91970759,628b806c463b948bc644b84f,629afaabfb1f66e5d01fab9e,,,,,,,,,,,,,,,,,,,,,,,7,,,,,,,,,,Task,14,(2x2) + 3,7,,,,,,,,,,,,,,,,,,,1,,,,,,,,,,,,,,,,,,,,,,,"[""7""]",1,[1.96550000000002],0,0,0,13,1,,,,,,,,,,,,,,,,,,
,,,,,,,,,,5dafea4de40355001651fa2f,27,Mężczyzna,2022-06-04_08h28.34.582,task,2021.1.4,Win32,59.91970759,628b806c463b948bc644b84f,629afaabfb1f66e5d01fab9e,,,,,,,,,,X V Q F H G B L J M P D K C T S W R N Z,,,,,,,,,,,,,,,,,,,,,,,,,,,,,,,,,,,,,,,,,,,,,,,,,,,,,,,,,,,,,,,,,,,,,,,,,,,,5,0,5,0,1,,,,,,,,,,,,,
,,,,,,,,,,5dafea4de40355001651fa2f,27,Mężczyzna,2022-06-04_08h28.34.582,task,2021.1.4,Win32,59.91970759,628b806c463b948bc644b84f,629afaabfb1f66e5d01fab9e,,,,,,,,,,,,,,,,,,,,,,,,,,,,,,,,,,,,,,,,,,,,,,,,,,,,,,,,,,,,,,,,,,,,,,,,,,,,,,,,,,,,,,,,,,,gxvfr,"[""g"",""x"",""v"",""f"",""r""]",0,"[1.547099999904617,2.4572999999522835,2.939400000095361,3.4405999999046344,4.2460999999045725,5.073299999952269]",0,GXVHFR,5,0,5,0,1,,
,,,,,,,,,,5dafea4de40355001651fa2f,27,Mężczyzna,2022-06-04_08h28.34.582,task,2021.1.4,Win32,59.91970759,628b806c463b948bc644b84f,629afaabfb1f66e5d01fab9e,,,,,,,,,,,,,,,,,,,,,,,9,,,,,,,,,,Task,16,(3x8) - 15,9,,,,,,,,,,,,,,,,,,,1,,,,,,,,,,,,,,,,,,,,,,,"[""9""]",1,[1.8203999998569316],0,0,0,15,1,,,,,,,,,,,,,,,,,,
,,,,,,,,,,5dafea4de40355001651fa2f,27,Mężczyzna,2022-06-04_08h28.34.582,task,2021.1.4,Win32,59.91970759,628b806c463b948bc644b84f,629afaabfb1f66e5d01fab9e,,,,,,,,,,X V Q F H G B L J M P D K C T S W R N Z,,,,,,,,,,,,,,,,,,,,,,,,,,,,,,,,,,,,,,,,,,,,,,,,,,,,,,,,,,,,,,,,,,,,,,,,,,,,0,0,0,0,1,,,,,,,,,,,,,
,,,,,,,,,,5dafea4de40355001651fa2f,27,Mężczyzna,2022-06-04_08h28.34.582,task,2021.1.4,Win32,59.91970759,628b806c463b948bc644b84f,629afaabfb1f66e5d01fab9e,,,,,,,,,,,,,,,,,,,,,,,6,,,,,,,,,,Task,5,(2x3) + 0,6,,,,,,,,,,,,,,,,,,,1,,,,,,,,,,,,,,,,,,,,,,,"[""6""]",1,[1.9595000000000482],0,0,0,4,1,,,,,,,,,,,,,,,,,,
,,,,,,,,,,5dafea4de40355001651fa2f,27,Mężczyzna,2022-06-04_08h28.34.582,task,2021.1.4,Win32,59.91970759,628b806c463b948bc644b84f,629afaabfb1f66e5d01fab9e,,,,,,,,,,X V Q F H G B L J M P D K C T S W R N Z,,,,,,,,,,,,,,,,,,,,,,,,,,,,,,,,,,,,,,,,,,,,,,,,,,,,,,,,,,,,,,,,,,,,,,,,,,,,1,0,1,0,1,,,,,,,,,,,,,
,,,,,,,,,,5dafea4de40355001651fa2f,27,Mężczyzna,2022-06-04_08h28.34.582,task,2021.1.4,Win32,59.91970759,628b806c463b948bc644b84f,629afaabfb1f66e5d01fab9e,,,,,,,,,,,,,,,,,,,,,,,5,,,,,,,,,,Task,29,(3x8) - 19 ,5,,,,,,,,,,,,,,,,,,,1,,,,,,,,,,,,,,,,,,,,,,,"[""5""]",1,[2.897299999952338],0,0,0,28,1,,,,,,,,,,,,,,,,,,
,,,,,,,,,,5dafea4de40355001651fa2f,27,Mężczyzna,2022-06-04_08h28.34.582,task,2021.1.4,Win32,59.91970759,628b806c463b948bc644b84f,629afaabfb1f66e5d01fab9e,,,,,,,,,,X V Q F H G B L J M P D K C T S W R N Z,,,,,,,,,,,,,,,,,,,,,,,,,,,,,,,,,,,,,,,,,,,,,,,,,,,,,,,,,,,,,,,,,,,,,,,,,,,,2,0,2,0,1,,,,,,,,,,,,,
,,,,,,,,,,5dafea4de40355001651fa2f,27,Mężczyzna,2022-06-04_08h28.34.582,task,2021.1.4,Win32,59.91970759,628b806c463b948bc644b84f,629afaabfb1f66e5d01fab9e,,,,,,,,,,,,,,,,,,,,,,,5,,,,,,,,,,Task,22,(3x1) + 2,5,,,,,,,,,,,,,,,,,,,1,,,,,,,,,,,,,,,,,,,,,,,"[""5""]",1,[2.012299999952347],0,0,0,21,1,,,,,,,,,,,,,,,,,,
,,,,,,,,,,5dafea4de40355001651fa2f,27,Mężczyzna,2022-06-04_08h28.34.582,task,2021.1.4,Win32,59.91970759,628b806c463b948bc644b84f,629afaabfb1f66e5d01fab9e,,,,,,,,,,X V Q F H G B L J M P D K C T S W R N Z,,,,,,,,,,,,,,,,,,,,,,,,,,,,,,,,,,,,,,,,,,,,,,,,,,,,,,,,,,,,,,,,,,,,,,,,,,,,3,0,3,0,1,,,,,,,,,,,,,
,,,,,,,,,,5dafea4de40355001651fa2f,27,Mężczyzna,2022-06-04_08h28.34.582,task,2021.1.4,Win32,59.91970759,628b806c463b948bc644b84f,629afaabfb1f66e5d01fab9e,,,,,,,,,,,,,,,,,,,,,,,8,,,,,,,,,,Task,15,(3x7) - 13,8,,,,,,,,,,,,,,,,,,,1,,,,,,,,,,,,,,,,,,,,,,,"[""8""]",1,[3.0189000000953],0,0,0,14,1,,,,,,,,,,,,,,,,,,
,,,,,,,,,,5dafea4de40355001651fa2f,27,Mężczyzna,2022-06-04_08h28.34.582,task,2021.1.4,Win32,59.91970759,628b806c463b948bc644b84f,629afaabfb1f66e5d01fab9e,,,,,,,,,,X V Q F H G B L J M P D K C T S W R N Z,,,,,,,,,,,,,,,,,,,,,,,,,,,,,,,,,,,,,,,,,,,,,,,,,,,,,,,,,,,,,,,,,,,,,,,,,,,,4,0,4,0,1,,,,,,,,,,,,,
,,,,,,,,,,5dafea4de40355001651fa2f,27,Mężczyzna,2022-06-04_08h28.34.582,task,2021.1.4,Win32,59.91970759,628b806c463b948bc644b84f,629afaabfb1f66e5d01fab9e,,,,,,,,,,,,,,,,,,,,,,,7,,,,,,,,,,Task,31,(4/2) + 5,7,,,,,,,,,,,,,,,,,,,1,,,,,,,,,,,,,,,,,,,,,,,"[""7""]",1,[2.107200000047669],0,0,0,30,1,,,,,,,,,,,,,,,,,,
,,,,,,,,,,5dafea4de40355001651fa2f,27,Mężczyzna,2022-06-04_08h28.34.582,task,2021.1.4,Win32,59.91970759,628b806c463b948bc644b84f,629afaabfb1f66e5d01fab9e,,,,,,,,,,X V Q F H G B L J M P D K C T S W R N Z,,,,,,,,,,,,,,,,,,,,,,,,,,,,,,,,,,,,,,,,,,,,,,,,,,,,,,,,,,,,,,,,,,,,,,,,,,,,5,0,5,0,1,,,,,,,,,,,,,
,,,,,,,,,,5dafea4de40355001651fa2f,27,Mężczyzna,2022-06-04_08h28.34.582,task,2021.1.4,Win32,59.91970759,628b806c463b948bc644b84f,629afaabfb1f66e5d01fab9e,,,,,,,,,,,,,,,,,,,,,,,,,,,,,,,,,,,,,,,,,,,,,,,,,,,,,,,,,,,,,,,,,,,,,,,,,,,,,,,,,,,,,,,,,,,vzxfc,"[""v"",""z"",""x"",""f"",""c""]",0,"[1.7019999999999982,2.091000000000008,3.0579999999999927,4.240499999999997,4.871200000047679,5.130400000095392]",0,HZKCLH,6,0,6,0,1,,
,,,,,,,,,,5dafea4de40355001651fa2f,27,Mężczyzna,2022-06-04_08h28.34.582,task,2021.1.4,Win32,59.91970759,628b806c463b948bc644b84f,629afaabfb1f66e5d01fab9e,,,,,,,,,,,,,,,,,,,,,,,,,,,,,,,,,,,,,,,,,,,,,,,,,,,,,,,,,,,,,,,,,,,,,,,,,,,,,,,,,,,,,,,,,,,,,,,,,,,,,,space,7.8161
