key_resp_15.keys,key_resp_15.rt,key_resp_13.keys,key_resp_13.corr,key_resp_13.rt,ranodm_loop.thisRepN,ranodm_loop.thisTrialN,ranodm_loop.thisN,ranodm_loop.thisIndex,ranodm_loop.ran,participant,Wiek*,Płeć,date,expName,psychopyVersion,OS,frameRate,study_id,session,key_resp_16.keys,key_resp_16.rt,key_resp_4.keys,key_resp_4.rt,next_letter.thisRepN,next_letter.thisTrialN,next_letter.thisN,next_letter.thisIndex,next_letter.ran,letter,simple_recall,key_resp_5.keys,key_resp_5.rt,simple_recall_corr,simple_recall_corrkeys,next_level.thisRepN,next_level.thisTrialN,next_level.thisN,next_level.thisIndex,next_level.ran,key_resp_2.keys,key_resp_2.rt,digit_answer,key_resp.keys,key_resp.corr,key_resp.rt,RT_list,next_equation.thisRepN,next_equation.thisTrialN,next_equation.thisN,next_equation.thisIndex,next_equation.ran,Task,Trial,Problem,Operation_answer,processing_score,sumRT,meanRT,sumdiff,sd,RT,key_resp_3.keys,key_resp_3.rt,repeat_practice.thisRepN,repeat_practice.thisTrialN,repeat_practice.thisN,repeat_practice.thisIndex,repeat_practice.ran,key_resp_6.keys,key_resp_6.rt,key_resp_11.keys,key_resp_11.corr,key_resp_11.rt,operation_correct,repeat_if_wrong_prac.thisRepN,repeat_if_wrong_prac.thisTrialN,repeat_if_wrong_prac.thisN,repeat_if_wrong_prac.thisIndex,repeat_if_wrong_prac.ran,span_size_prac.thisRepN,span_size_prac.thisTrialN,span_size_prac.thisN,span_size_prac.thisIndex,span_size_prac.ran,complex_recall_practice,key_resp_9.keys,key_resp_9.corr,key_resp_9.rt,complex_prac_corr,span_recall_prac.thisRepN,span_recall_prac.thisTrialN,span_recall_prac.thisN,span_recall_prac.thisIndex,span_recall_prac.ran,key_resp_10.keys,key_resp_10.rt,key_resp_7.keys,key_resp_7.corr,key_resp_7.rt,repeat_if_wrong.thisRepN,repeat_if_wrong.thisTrialN,repeat_if_wrong.thisN,repeat_if_wrong.thisIndex,repeat_if_wrong.ran,span_size.thisRepN,span_size.thisTrialN,span_size.thisN,span_size.thisIndex,span_size.ran,complex_recall,key_resp_8.keys,key_resp_8.corr,key_resp_8.rt,complex_recall_corr,complex_recall_corrkeys,span_recall.thisRepN,span_recall.thisTrialN,span_recall.thisN,span_recall.thisIndex,span_recall.ran,key_resp_12.keys,key_resp_12.rt
space,4.2886,"[""comma""]",0,[1.3390999999940334],0,0,0,0,1,5db1db20830742000a4470b4,40,Mężczyzna,2022-06-04_08h10.29.474,task,2021.1.4,Win32,58.99705015,628b806c463b948bc644b84f,629af728871db084a5397aaa,,,,,,,,,,,,,,,,,,,,,,,,,,,,,,,,,,,,,,,,,,,,,,,,,,,,,,,,,,,,,,,,,,,,,,,,,,,,,,,,,,,,,,,,,,,,,,,,,,,,,,,
,,"[""period""]",0,[0.9173000000119202],1,0,1,0,1,5db1db20830742000a4470b4,40,Mężczyzna,2022-06-04_08h10.29.474,task,2021.1.4,Win32,58.99705015,628b806c463b948bc644b84f,629af728871db084a5397aaa,,,,,,,,,,,,,,,,,,,,,,,,,,,,,,,,,,,,,,,,,,,,,,,,,,,,,,,,,,,,,,,,,,,,,,,,,,,,,,,,,,,,,,,,,,,,,,,,,,,,,,,
,,"[""period""]",0,[0.601100000008941],2,0,2,0,1,5db1db20830742000a4470b4,40,Mężczyzna,2022-06-04_08h10.29.474,task,2021.1.4,Win32,58.99705015,628b806c463b948bc644b84f,629af728871db084a5397aaa,,,,,,,,,,,,,,,,,,,,,,,,,,,,,,,,,,,,,,,,,,,,,,,,,,,,,,,,,,,,,,,,,,,,,,,,,,,,,,,,,,,,,,,,,,,,,,,,,,,,,,,
,,"[""comma""]",0,[0.5006000000089443],3,0,3,0,1,5db1db20830742000a4470b4,40,Mężczyzna,2022-06-04_08h10.29.474,task,2021.1.4,Win32,58.99705015,628b806c463b948bc644b84f,629af728871db084a5397aaa,,,,,,,,,,,,,,,,,,,,,,,,,,,,,,,,,,,,,,,,,,,,,,,,,,,,,,,,,,,,,,,,,,,,,,,,,,,,,,,,,,,,,,,,,,,,,,,,,,,,,,,
,,"[""comma"",""period""]",0,"[0.4344000000059651,0.7199000000059641]",4,0,4,0,1,5db1db20830742000a4470b4,40,Mężczyzna,2022-06-04_08h10.29.474,task,2021.1.4,Win32,58.99705015,628b806c463b948bc644b84f,629af728871db084a5397aaa,,,,,,,,,,,,,,,,,,,,,,,,,,,,,,,,,,,,,,,,,,,,,,,,,,,,,,,,,,,,,,,,,,,,,,,,,,,,,,,,,,,,,,,,,,,,,,,,,,,,,,,
,,"[""period""]",0,[0.5996999999880757],5,0,5,0,1,5db1db20830742000a4470b4,40,Mężczyzna,2022-06-04_08h10.29.474,task,2021.1.4,Win32,58.99705015,628b806c463b948bc644b84f,629af728871db084a5397aaa,,,,,,,,,,,,,,,,,,,,,,,,,,,,,,,,,,,,,,,,,,,,,,,,,,,,,,,,,,,,,,,,,,,,,,,,,,,,,,,,,,,,,,,,,,,,,,,,,,,,,,,
,,"[""comma""]",0,[0.444500000000005],6,0,6,0,1,5db1db20830742000a4470b4,40,Mężczyzna,2022-06-04_08h10.29.474,task,2021.1.4,Win32,58.99705015,628b806c463b948bc644b84f,629af728871db084a5397aaa,,,,,,,,,,,,,,,,,,,,,,,,,,,,,,,,,,,,,,,,,,,,,,,,,,,,,,,,,,,,,,,,,,,,,,,,,,,,,,,,,,,,,,,,,,,,,,,,,,,,,,,
,,"[""comma""]",0,[0.7509999999999906],7,0,7,0,1,5db1db20830742000a4470b4,40,Mężczyzna,2022-06-04_08h10.29.474,task,2021.1.4,Win32,58.99705015,628b806c463b948bc644b84f,629af728871db084a5397aaa,,,,,,,,,,,,,,,,,,,,,,,,,,,,,,,,,,,,,,,,,,,,,,,,,,,,,,,,,,,,,,,,,,,,,,,,,,,,,,,,,,,,,,,,,,,,,,,,,,,,,,,
,,"[""period""]",0,[0.38570000000297],8,0,8,0,1,5db1db20830742000a4470b4,40,Mężczyzna,2022-06-04_08h10.29.474,task,2021.1.4,Win32,58.99705015,628b806c463b948bc644b84f,629af728871db084a5397aaa,,,,,,,,,,,,,,,,,,,,,,,,,,,,,,,,,,,,,,,,,,,,,,,,,,,,,,,,,,,,,,,,,,,,,,,,,,,,,,,,,,,,,,,,,,,,,,,,,,,,,,,
,,"[""period""]",0,[0.5680999999940468],9,0,9,0,1,5db1db20830742000a4470b4,40,Mężczyzna,2022-06-04_08h10.29.474,task,2021.1.4,Win32,58.99705015,628b806c463b948bc644b84f,629af728871db084a5397aaa,,,,,,,,,,,,,,,,,,,,,,,,,,,,,,,,,,,,,,,,,,,,,,,,,,,,,,,,,,,,,,,,,,,,,,,,,,,,,,,,,,,,,,,,,,,,,,,,,,,,,,,
,,"[""period""]",0,[0.41799999999999216],10,0,10,0,1,5db1db20830742000a4470b4,40,Mężczyzna,2022-06-04_08h10.29.474,task,2021.1.4,Win32,58.99705015,628b806c463b948bc644b84f,629af728871db084a5397aaa,,,,,,,,,,,,,,,,,,,,,,,,,,,,,,,,,,,,,,,,,,,,,,,,,,,,,,,,,,,,,,,,,,,,,,,,,,,,,,,,,,,,,,,,,,,,,,,,,,,,,,,
,,"[""comma""]",0,[0.4191000000089531],11,0,11,0,1,5db1db20830742000a4470b4,40,Mężczyzna,2022-06-04_08h10.29.474,task,2021.1.4,Win32,58.99705015,628b806c463b948bc644b84f,629af728871db084a5397aaa,,,,,,,,,,,,,,,,,,,,,,,,,,,,,,,,,,,,,,,,,,,,,,,,,,,,,,,,,,,,,,,,,,,,,,,,,,,,,,,,,,,,,,,,,,,,,,,,,,,,,,,
,,"[""comma""]",0,[0.3647999999970324],12,0,12,0,1,5db1db20830742000a4470b4,40,Mężczyzna,2022-06-04_08h10.29.474,task,2021.1.4,Win32,58.99705015,628b806c463b948bc644b84f,629af728871db084a5397aaa,,,,,,,,,,,,,,,,,,,,,,,,,,,,,,,,,,,,,,,,,,,,,,,,,,,,,,,,,,,,,,,,,,,,,,,,,,,,,,,,,,,,,,,,,,,,,,,,,,,,,,,
,,"[""period""]",0,[0.4407999999970116],13,0,13,0,1,5db1db20830742000a4470b4,40,Mężczyzna,2022-06-04_08h10.29.474,task,2021.1.4,Win32,58.99705015,628b806c463b948bc644b84f,629af728871db084a5397aaa,,,,,,,,,,,,,,,,,,,,,,,,,,,,,,,,,,,,,,,,,,,,,,,,,,,,,,,,,,,,,,,,,,,,,,,,,,,,,,,,,,,,,,,,,,,,,,,,,,,,,,,
,,"[""period""]",0,[0.48429999999702034],14,0,14,0,1,5db1db20830742000a4470b4,40,Mężczyzna,2022-06-04_08h10.29.474,task,2021.1.4,Win32,58.99705015,628b806c463b948bc644b84f,629af728871db084a5397aaa,,,,,,,,,,,,,,,,,,,,,,,,,,,,,,,,,,,,,,,,,,,,,,,,,,,,,,,,,,,,,,,,,,,,,,,,,,,,,,,,,,,,,,,,,,,,,,,,,,,,,,,
,,"[""period""]",0,[0.6220999999940346],15,0,15,0,1,5db1db20830742000a4470b4,40,Mężczyzna,2022-06-04_08h10.29.474,task,2021.1.4,Win32,58.99705015,628b806c463b948bc644b84f,629af728871db084a5397aaa,,,,,,,,,,,,,,,,,,,,,,,,,,,,,,,,,,,,,,,,,,,,,,,,,,,,,,,,,,,,,,,,,,,,,,,,,,,,,,,,,,,,,,,,,,,,,,,,,,,,,,,
,,"[""comma""]",0,[0.8842000000029913],16,0,16,0,1,5db1db20830742000a4470b4,40,Mężczyzna,2022-06-04_08h10.29.474,task,2021.1.4,Win32,58.99705015,628b806c463b948bc644b84f,629af728871db084a5397aaa,,,,,,,,,,,,,,,,,,,,,,,,,,,,,,,,,,,,,,,,,,,,,,,,,,,,,,,,,,,,,,,,,,,,,,,,,,,,,,,,,,,,,,,,,,,,,,,,,,,,,,,
,,"[""period""]",0,[0.48420000000297136],17,0,17,0,1,5db1db20830742000a4470b4,40,Mężczyzna,2022-06-04_08h10.29.474,task,2021.1.4,Win32,58.99705015,628b806c463b948bc644b84f,629af728871db084a5397aaa,,,,,,,,,,,,,,,,,,,,,,,,,,,,,,,,,,,,,,,,,,,,,,,,,,,,,,,,,,,,,,,,,,,,,,,,,,,,,,,,,,,,,,,,,,,,,,,,,,,,,,,
,,"[""period""]",0,[0.5090000000000003],18,0,18,0,1,5db1db20830742000a4470b4,40,Mężczyzna,2022-06-04_08h10.29.474,task,2021.1.4,Win32,58.99705015,628b806c463b948bc644b84f,629af728871db084a5397aaa,,,,,,,,,,,,,,,,,,,,,,,,,,,,,,,,,,,,,,,,,,,,,,,,,,,,,,,,,,,,,,,,,,,,,,,,,,,,,,,,,,,,,,,,,,,,,,,,,,,,,,,
,,"[""comma""]",0,[0.2507000000029791],19,0,19,0,1,5db1db20830742000a4470b4,40,Mężczyzna,2022-06-04_08h10.29.474,task,2021.1.4,Win32,58.99705015,628b806c463b948bc644b84f,629af728871db084a5397aaa,,,,,,,,,,,,,,,,,,,,,,,,,,,,,,,,,,,,,,,,,,,,,,,,,,,,,,,,,,,,,,,,,,,,,,,,,,,,,,,,,,,,,,,,,,,,,,,,,,,,,,,
,,"[""comma""]",0,[0.18530000001192093],20,0,20,0,1,5db1db20830742000a4470b4,40,Mężczyzna,2022-06-04_08h10.29.474,task,2021.1.4,Win32,58.99705015,628b806c463b948bc644b84f,629af728871db084a5397aaa,,,,,,,,,,,,,,,,,,,,,,,,,,,,,,,,,,,,,,,,,,,,,,,,,,,,,,,,,,,,,,,,,,,,,,,,,,,,,,,,,,,,,,,,,,,,,,,,,,,,,,,
,,"[""period""]",0,[0.2838000000119223],21,0,21,0,1,5db1db20830742000a4470b4,40,Mężczyzna,2022-06-04_08h10.29.474,task,2021.1.4,Win32,58.99705015,628b806c463b948bc644b84f,629af728871db084a5397aaa,,,,,,,,,,,,,,,,,,,,,,,,,,,,,,,,,,,,,,,,,,,,,,,,,,,,,,,,,,,,,,,,,,,,,,,,,,,,,,,,,,,,,,,,,,,,,,,,,,,,,,,
,,"[""period""]",0,[0.33669999998808464],22,0,22,0,1,5db1db20830742000a4470b4,40,Mężczyzna,2022-06-04_08h10.29.474,task,2021.1.4,Win32,58.99705015,628b806c463b948bc644b84f,629af728871db084a5397aaa,,,,,,,,,,,,,,,,,,,,,,,,,,,,,,,,,,,,,,,,,,,,,,,,,,,,,,,,,,,,,,,,,,,,,,,,,,,,,,,,,,,,,,,,,,,,,,,,,,,,,,,
,,"[""comma""]",0,[0.30170000000298103],23,0,23,0,1,5db1db20830742000a4470b4,40,Mężczyzna,2022-06-04_08h10.29.474,task,2021.1.4,Win32,58.99705015,628b806c463b948bc644b84f,629af728871db084a5397aaa,,,,,,,,,,,,,,,,,,,,,,,,,,,,,,,,,,,,,,,,,,,,,,,,,,,,,,,,,,,,,,,,,,,,,,,,,,,,,,,,,,,,,,,,,,,,,,,,,,,,,,,
,,"[""period""]",0,[0.38460000000893046],24,0,24,0,1,5db1db20830742000a4470b4,40,Mężczyzna,2022-06-04_08h10.29.474,task,2021.1.4,Win32,58.99705015,628b806c463b948bc644b84f,629af728871db084a5397aaa,,,,,,,,,,,,,,,,,,,,,,,,,,,,,,,,,,,,,,,,,,,,,,,,,,,,,,,,,,,,,,,,,,,,,,,,,,,,,,,,,,,,,,,,,,,,,,,,,,,,,,,
,,"[""comma""]",0,[0.4344999999999999],25,0,25,0,1,5db1db20830742000a4470b4,40,Mężczyzna,2022-06-04_08h10.29.474,task,2021.1.4,Win32,58.99705015,628b806c463b948bc644b84f,629af728871db084a5397aaa,,,,,,,,,,,,,,,,,,,,,,,,,,,,,,,,,,,,,,,,,,,,,,,,,,,,,,,,,,,,,,,,,,,,,,,,,,,,,,,,,,,,,,,,,,,,,,,,,,,,,,,
,,"[""period""]",0,[0.37419999998807896],26,0,26,0,1,5db1db20830742000a4470b4,40,Mężczyzna,2022-06-04_08h10.29.474,task,2021.1.4,Win32,58.99705015,628b806c463b948bc644b84f,629af728871db084a5397aaa,,,,,,,,,,,,,,,,,,,,,,,,,,,,,,,,,,,,,,,,,,,,,,,,,,,,,,,,,,,,,,,,,,,,,,,,,,,,,,,,,,,,,,,,,,,,,,,,,,,,,,,
,,"[""comma""]",0,[0.40120000000298717],27,0,27,0,1,5db1db20830742000a4470b4,40,Mężczyzna,2022-06-04_08h10.29.474,task,2021.1.4,Win32,58.99705015,628b806c463b948bc644b84f,629af728871db084a5397aaa,,,,,,,,,,,,,,,,,,,,,,,,,,,,,,,,,,,,,,,,,,,,,,,,,,,,,,,,,,,,,,,,,,,,,,,,,,,,,,,,,,,,,,,,,,,,,,,,,,,,,,,
,,"[""period""]",0,[0.2917999999970249],28,0,28,0,1,5db1db20830742000a4470b4,40,Mężczyzna,2022-06-04_08h10.29.474,task,2021.1.4,Win32,58.99705015,628b806c463b948bc644b84f,629af728871db084a5397aaa,,,,,,,,,,,,,,,,,,,,,,,,,,,,,,,,,,,,,,,,,,,,,,,,,,,,,,,,,,,,,,,,,,,,,,,,,,,,,,,,,,,,,,,,,,,,,,,,,,,,,,,
,,"[""period""]",0,[0.3199999999999932],29,0,29,0,1,5db1db20830742000a4470b4,40,Mężczyzna,2022-06-04_08h10.29.474,task,2021.1.4,Win32,58.99705015,628b806c463b948bc644b84f,629af728871db084a5397aaa,,,,,,,,,,,,,,,,,,,,,,,,,,,,,,,,,,,,,,,,,,,,,,,,,,,,,,,,,,,,,,,,,,,,,,,,,,,,,,,,,,,,,,,,,,,,,,,,,,,,,,,
,,"[""comma""]",0,[0.2586999999880675],30,0,30,0,1,5db1db20830742000a4470b4,40,Mężczyzna,2022-06-04_08h10.29.474,task,2021.1.4,Win32,58.99705015,628b806c463b948bc644b84f,629af728871db084a5397aaa,,,,,,,,,,,,,,,,,,,,,,,,,,,,,,,,,,,,,,,,,,,,,,,,,,,,,,,,,,,,,,,,,,,,,,,,,,,,,,,,,,,,,,,,,,,,,,,,,,,,,,,
,,"[""comma""]",0,[0.35089999999107135],31,0,31,0,1,5db1db20830742000a4470b4,40,Mężczyzna,2022-06-04_08h10.29.474,task,2021.1.4,Win32,58.99705015,628b806c463b948bc644b84f,629af728871db084a5397aaa,,,,,,,,,,,,,,,,,,,,,,,,,,,,,,,,,,,,,,,,,,,,,,,,,,,,,,,,,,,,,,,,,,,,,,,,,,,,,,,,,,,,,,,,,,,,,,,,,,,,,,,
,,"[""comma""]",0,[0.4008999999910543],32,0,32,0,1,5db1db20830742000a4470b4,40,Mężczyzna,2022-06-04_08h10.29.474,task,2021.1.4,Win32,58.99705015,628b806c463b948bc644b84f,629af728871db084a5397aaa,,,,,,,,,,,,,,,,,,,,,,,,,,,,,,,,,,,,,,,,,,,,,,,,,,,,,,,,,,,,,,,,,,,,,,,,,,,,,,,,,,,,,,,,,,,,,,,,,,,,,,,
,,"[""period""]",0,[0.3276000000089425],33,0,33,0,1,5db1db20830742000a4470b4,40,Mężczyzna,2022-06-04_08h10.29.474,task,2021.1.4,Win32,58.99705015,628b806c463b948bc644b84f,629af728871db084a5397aaa,,,,,,,,,,,,,,,,,,,,,,,,,,,,,,,,,,,,,,,,,,,,,,,,,,,,,,,,,,,,,,,,,,,,,,,,,,,,,,,,,,,,,,,,,,,,,,,,,,,,,,,
,,"[""period""]",0,[0.33409999999403794],34,0,34,0,1,5db1db20830742000a4470b4,40,Mężczyzna,2022-06-04_08h10.29.474,task,2021.1.4,Win32,58.99705015,628b806c463b948bc644b84f,629af728871db084a5397aaa,,,,,,,,,,,,,,,,,,,,,,,,,,,,,,,,,,,,,,,,,,,,,,,,,,,,,,,,,,,,,,,,,,,,,,,,,,,,,,,,,,,,,,,,,,,,,,,,,,,,,,,
,,"[""period""]",0,[0.3556999999880759],35,0,35,0,1,5db1db20830742000a4470b4,40,Mężczyzna,2022-06-04_08h10.29.474,task,2021.1.4,Win32,58.99705015,628b806c463b948bc644b84f,629af728871db084a5397aaa,,,,,,,,,,,,,,,,,,,,,,,,,,,,,,,,,,,,,,,,,,,,,,,,,,,,,,,,,,,,,,,,,,,,,,,,,,,,,,,,,,,,,,,,,,,,,,,,,,,,,,,
,,"[""comma""]",0,[0.2845000000000084],36,0,36,0,1,5db1db20830742000a4470b4,40,Mężczyzna,2022-06-04_08h10.29.474,task,2021.1.4,Win32,58.99705015,628b806c463b948bc644b84f,629af728871db084a5397aaa,,,,,,,,,,,,,,,,,,,,,,,,,,,,,,,,,,,,,,,,,,,,,,,,,,,,,,,,,,,,,,,,,,,,,,,,,,,,,,,,,,,,,,,,,,,,,,,,,,,,,,,
,,"[""period""]",0,[0.22210000000896457],37,0,37,0,1,5db1db20830742000a4470b4,40,Mężczyzna,2022-06-04_08h10.29.474,task,2021.1.4,Win32,58.99705015,628b806c463b948bc644b84f,629af728871db084a5397aaa,,,,,,,,,,,,,,,,,,,,,,,,,,,,,,,,,,,,,,,,,,,,,,,,,,,,,,,,,,,,,,,,,,,,,,,,,,,,,,,,,,,,,,,,,,,,,,,,,,,,,,,
,,"[""comma""]",0,[0.38329999999700703],38,0,38,0,1,5db1db20830742000a4470b4,40,Mężczyzna,2022-06-04_08h10.29.474,task,2021.1.4,Win32,58.99705015,628b806c463b948bc644b84f,629af728871db084a5397aaa,,,,,,,,,,,,,,,,,,,,,,,,,,,,,,,,,,,,,,,,,,,,,,,,,,,,,,,,,,,,,,,,,,,,,,,,,,,,,,,,,,,,,,,,,,,,,,,,,,,,,,,
,,"[""comma""]",0,[0.4183999999910668],39,0,39,0,1,5db1db20830742000a4470b4,40,Mężczyzna,2022-06-04_08h10.29.474,task,2021.1.4,Win32,58.99705015,628b806c463b948bc644b84f,629af728871db084a5397aaa,,,,,,,,,,,,,,,,,,,,,,,,,,,,,,,,,,,,,,,,,,,,,,,,,,,,,,,,,,,,,,,,,,,,,,,,,,,,,,,,,,,,,,,,,,,,,,,,,,,,,,,
,,"[""period""]",0,[0.2695999999940284],40,0,40,0,1,5db1db20830742000a4470b4,40,Mężczyzna,2022-06-04_08h10.29.474,task,2021.1.4,Win32,58.99705015,628b806c463b948bc644b84f,629af728871db084a5397aaa,,,,,,,,,,,,,,,,,,,,,,,,,,,,,,,,,,,,,,,,,,,,,,,,,,,,,,,,,,,,,,,,,,,,,,,,,,,,,,,,,,,,,,,,,,,,,,,,,,,,,,,
,,"[""period""]",0,[0.33549999999999613],41,0,41,0,1,5db1db20830742000a4470b4,40,Mężczyzna,2022-06-04_08h10.29.474,task,2021.1.4,Win32,58.99705015,628b806c463b948bc644b84f,629af728871db084a5397aaa,,,,,,,,,,,,,,,,,,,,,,,,,,,,,,,,,,,,,,,,,,,,,,,,,,,,,,,,,,,,,,,,,,,,,,,,,,,,,,,,,,,,,,,,,,,,,,,,,,,,,,,
,,"[""comma""]",0,[0.2189999999999941],42,0,42,0,1,5db1db20830742000a4470b4,40,Mężczyzna,2022-06-04_08h10.29.474,task,2021.1.4,Win32,58.99705015,628b806c463b948bc644b84f,629af728871db084a5397aaa,,,,,,,,,,,,,,,,,,,,,,,,,,,,,,,,,,,,,,,,,,,,,,,,,,,,,,,,,,,,,,,,,,,,,,,,,,,,,,,,,,,,,,,,,,,,,,,,,,,,,,,
,,"[""comma"",""period""]",0,"[0.3009999999999877,1.884999999999991]",43,0,43,0,1,5db1db20830742000a4470b4,40,Mężczyzna,2022-06-04_08h10.29.474,task,2021.1.4,Win32,58.99705015,628b806c463b948bc644b84f,629af728871db084a5397aaa,,,,,,,,,,,,,,,,,,,,,,,,,,,,,,,,,,,,,,,,,,,,,,,,,,,,,,,,,,,,,,,,,,,,,,,,,,,,,,,,,,,,,,,,,,,,,,,,,,,,,,,
,,"[""period""]",0,[1.8174999999999955],44,0,44,0,1,5db1db20830742000a4470b4,40,Mężczyzna,2022-06-04_08h10.29.474,task,2021.1.4,Win32,58.99705015,628b806c463b948bc644b84f,629af728871db084a5397aaa,,,,,,,,,,,,,,,,,,,,,,,,,,,,,,,,,,,,,,,,,,,,,,,,,,,,,,,,,,,,,,,,,,,,,,,,,,,,,,,,,,,,,,,,,,,,,,,,,,,,,,,
,,,0,,45,0,45,0,1,5db1db20830742000a4470b4,40,Mężczyzna,2022-06-04_08h10.29.474,task,2021.1.4,Win32,58.99705015,628b806c463b948bc644b84f,629af728871db084a5397aaa,,,,,,,,,,,,,,,,,,,,,,,,,,,,,,,,,,,,,,,,,,,,,,,,,,,,,,,,,,,,,,,,,,,,,,,,,,,,,,,,,,,,,,,,,,,,,,,,,,,,,,,
,,"[""period""]",0,[0.36810000000892273],46,0,46,0,1,5db1db20830742000a4470b4,40,Mężczyzna,2022-06-04_08h10.29.474,task,2021.1.4,Win32,58.99705015,628b806c463b948bc644b84f,629af728871db084a5397aaa,,,,,,,,,,,,,,,,,,,,,,,,,,,,,,,,,,,,,,,,,,,,,,,,,,,,,,,,,,,,,,,,,,,,,,,,,,,,,,,,,,,,,,,,,,,,,,,,,,,,,,,
,,"[""comma""]",0,[0.3007999999970252],47,0,47,0,1,5db1db20830742000a4470b4,40,Mężczyzna,2022-06-04_08h10.29.474,task,2021.1.4,Win32,58.99705015,628b806c463b948bc644b84f,629af728871db084a5397aaa,,,,,,,,,,,,,,,,,,,,,,,,,,,,,,,,,,,,,,,,,,,,,,,,,,,,,,,,,,,,,,,,,,,,,,,,,,,,,,,,,,,,,,,,,,,,,,,,,,,,,,,
,,"[""period""]",0,[0.3411000000089359],48,0,48,0,1,5db1db20830742000a4470b4,40,Mężczyzna,2022-06-04_08h10.29.474,task,2021.1.4,Win32,58.99705015,628b806c463b948bc644b84f,629af728871db084a5397aaa,,,,,,,,,,,,,,,,,,,,,,,,,,,,,,,,,,,,,,,,,,,,,,,,,,,,,,,,,,,,,,,,,,,,,,,,,,,,,,,,,,,,,,,,,,,,,,,,,,,,,,,
,,"[""period""]",0,[0.32520000000297955],49,0,49,0,1,5db1db20830742000a4470b4,40,Mężczyzna,2022-06-04_08h10.29.474,task,2021.1.4,Win32,58.99705015,628b806c463b948bc644b84f,629af728871db084a5397aaa,,,,,,,,,,,,,,,,,,,,,,,,,,,,,,,,,,,,,,,,,,,,,,,,,,,,,,,,,,,,,,,,,,,,,,,,,,,,,,,,,,,,,,,,,,,,,,,,,,,,,,,
,,"[""comma""]",0,[0.31749999999999545],50,0,50,0,1,5db1db20830742000a4470b4,40,Mężczyzna,2022-06-04_08h10.29.474,task,2021.1.4,Win32,58.99705015,628b806c463b948bc644b84f,629af728871db084a5397aaa,,,,,,,,,,,,,,,,,,,,,,,,,,,,,,,,,,,,,,,,,,,,,,,,,,,,,,,,,,,,,,,,,,,,,,,,,,,,,,,,,,,,,,,,,,,,,,,,,,,,,,,
,,"[""comma""]",0,[0.45110000000894956],51,0,51,0,1,5db1db20830742000a4470b4,40,Mężczyzna,2022-06-04_08h10.29.474,task,2021.1.4,Win32,58.99705015,628b806c463b948bc644b84f,629af728871db084a5397aaa,,,,,,,,,,,,,,,,,,,,,,,,,,,,,,,,,,,,,,,,,,,,,,,,,,,,,,,,,,,,,,,,,,,,,,,,,,,,,,,,,,,,,,,,,,,,,,,,,,,,,,,
,,"[""period""]",0,[0.45609999999405204],52,0,52,0,1,5db1db20830742000a4470b4,40,Mężczyzna,2022-06-04_08h10.29.474,task,2021.1.4,Win32,58.99705015,628b806c463b948bc644b84f,629af728871db084a5397aaa,,,,,,,,,,,,,,,,,,,,,,,,,,,,,,,,,,,,,,,,,,,,,,,,,,,,,,,,,,,,,,,,,,,,,,,,,,,,,,,,,,,,,,,,,,,,,,,,,,,,,,,
,,"[""comma""]",0,[0.3572000000029618],53,0,53,0,1,5db1db20830742000a4470b4,40,Mężczyzna,2022-06-04_08h10.29.474,task,2021.1.4,Win32,58.99705015,628b806c463b948bc644b84f,629af728871db084a5397aaa,,,,,,,,,,,,,,,,,,,,,,,,,,,,,,,,,,,,,,,,,,,,,,,,,,,,,,,,,,,,,,,,,,,,,,,,,,,,,,,,,,,,,,,,,,,,,,,,,,,,,,,
,,"[""comma""]",0,[0.36860000000893933],54,0,54,0,1,5db1db20830742000a4470b4,40,Mężczyzna,2022-06-04_08h10.29.474,task,2021.1.4,Win32,58.99705015,628b806c463b948bc644b84f,629af728871db084a5397aaa,,,,,,,,,,,,,,,,,,,,,,,,,,,,,,,,,,,,,,,,,,,,,,,,,,,,,,,,,,,,,,,,,,,,,,,,,,,,,,,,,,,,,,,,,,,,,,,,,,,,,,,
,,"[""period""]",0,[0.367999999999995],55,0,55,0,1,5db1db20830742000a4470b4,40,Mężczyzna,2022-06-04_08h10.29.474,task,2021.1.4,Win32,58.99705015,628b806c463b948bc644b84f,629af728871db084a5397aaa,,,,,,,,,,,,,,,,,,,,,,,,,,,,,,,,,,,,,,,,,,,,,,,,,,,,,,,,,,,,,,,,,,,,,,,,,,,,,,,,,,,,,,,,,,,,,,,,,,,,,,,
,,"[""period""]",0,[0.5918999999910568],56,0,56,0,1,5db1db20830742000a4470b4,40,Mężczyzna,2022-06-04_08h10.29.474,task,2021.1.4,Win32,58.99705015,628b806c463b948bc644b84f,629af728871db084a5397aaa,,,,,,,,,,,,,,,,,,,,,,,,,,,,,,,,,,,,,,,,,,,,,,,,,,,,,,,,,,,,,,,,,,,,,,,,,,,,,,,,,,,,,,,,,,,,,,,,,,,,,,,
,,"[""comma""]",0,[1.017900000005966],57,0,57,0,1,5db1db20830742000a4470b4,40,Mężczyzna,2022-06-04_08h10.29.474,task,2021.1.4,Win32,58.99705015,628b806c463b948bc644b84f,629af728871db084a5397aaa,,,,,,,,,,,,,,,,,,,,,,,,,,,,,,,,,,,,,,,,,,,,,,,,,,,,,,,,,,,,,,,,,,,,,,,,,,,,,,,,,,,,,,,,,,,,,,,,,,,,,,,
,,"[""period""]",0,[0.9589000000059684],58,0,58,0,1,5db1db20830742000a4470b4,40,Mężczyzna,2022-06-04_08h10.29.474,task,2021.1.4,Win32,58.99705015,628b806c463b948bc644b84f,629af728871db084a5397aaa,,,,,,,,,,,,,,,,,,,,,,,,,,,,,,,,,,,,,,,,,,,,,,,,,,,,,,,,,,,,,,,,,,,,,,,,,,,,,,,,,,,,,,,,,,,,,,,,,,,,,,,
,,"[""period""]",0,[0.6012999999970248],59,0,59,0,1,5db1db20830742000a4470b4,40,Mężczyzna,2022-06-04_08h10.29.474,task,2021.1.4,Win32,58.99705015,628b806c463b948bc644b84f,629af728871db084a5397aaa,,,,,,,,,,,,,,,,,,,,,,,,,,,,,,,,,,,,,,,,,,,,,,,,,,,,,,,,,,,,,,,,,,,,,,,,,,,,,,,,,,,,,,,,,,,,,,,,,,,,,,,
,,"[""comma""]",0,[0.28439999999105225],60,0,60,0,1,5db1db20830742000a4470b4,40,Mężczyzna,2022-06-04_08h10.29.474,task,2021.1.4,Win32,58.99705015,628b806c463b948bc644b84f,629af728871db084a5397aaa,,,,,,,,,,,,,,,,,,,,,,,,,,,,,,,,,,,,,,,,,,,,,,,,,,,,,,,,,,,,,,,,,,,,,,,,,,,,,,,,,,,,,,,,,,,,,,,,,,,,,,,
,,"[""period""]",0,[0.45139999999105385],61,0,61,0,1,5db1db20830742000a4470b4,40,Mężczyzna,2022-06-04_08h10.29.474,task,2021.1.4,Win32,58.99705015,628b806c463b948bc644b84f,629af728871db084a5397aaa,,,,,,,,,,,,,,,,,,,,,,,,,,,,,,,,,,,,,,,,,,,,,,,,,,,,,,,,,,,,,,,,,,,,,,,,,,,,,,,,,,,,,,,,,,,,,,,,,,,,,,,
,,"[""period""]",0,[0.3007999999970252],62,0,62,0,1,5db1db20830742000a4470b4,40,Mężczyzna,2022-06-04_08h10.29.474,task,2021.1.4,Win32,58.99705015,628b806c463b948bc644b84f,629af728871db084a5397aaa,,,,,,,,,,,,,,,,,,,,,,,,,,,,,,,,,,,,,,,,,,,,,,,,,,,,,,,,,,,,,,,,,,,,,,,,,,,,,,,,,,,,,,,,,,,,,,,,,,,,,,,
,,"[""period""]",0,[0.27499999999997726],63,0,63,0,1,5db1db20830742000a4470b4,40,Mężczyzna,2022-06-04_08h10.29.474,task,2021.1.4,Win32,58.99705015,628b806c463b948bc644b84f,629af728871db084a5397aaa,,,,,,,,,,,,,,,,,,,,,,,,,,,,,,,,,,,,,,,,,,,,,,,,,,,,,,,,,,,,,,,,,,,,,,,,,,,,,,,,,,,,,,,,,,,,,,,,,,,,,,,
,,"[""comma""]",0,[0.31790000000594887],64,0,64,0,1,5db1db20830742000a4470b4,40,Mężczyzna,2022-06-04_08h10.29.474,task,2021.1.4,Win32,58.99705015,628b806c463b948bc644b84f,629af728871db084a5397aaa,,,,,,,,,,,,,,,,,,,,,,,,,,,,,,,,,,,,,,,,,,,,,,,,,,,,,,,,,,,,,,,,,,,,,,,,,,,,,,,,,,,,,,,,,,,,,,,,,,,,,,,
,,"[""period""]",0,[0.30870000000300024],65,0,65,0,1,5db1db20830742000a4470b4,40,Mężczyzna,2022-06-04_08h10.29.474,task,2021.1.4,Win32,58.99705015,628b806c463b948bc644b84f,629af728871db084a5397aaa,,,,,,,,,,,,,,,,,,,,,,,,,,,,,,,,,,,,,,,,,,,,,,,,,,,,,,,,,,,,,,,,,,,,,,,,,,,,,,,,,,,,,,,,,,,,,,,,,,,,,,,
,,"[""period""]",0,[0.35129999999702477],66,0,66,0,1,5db1db20830742000a4470b4,40,Mężczyzna,2022-06-04_08h10.29.474,task,2021.1.4,Win32,58.99705015,628b806c463b948bc644b84f,629af728871db084a5397aaa,,,,,,,,,,,,,,,,,,,,,,,,,,,,,,,,,,,,,,,,,,,,,,,,,,,,,,,,,,,,,,,,,,,,,,,,,,,,,,,,,,,,,,,,,,,,,,,,,,,,,,,
,,"[""period""]",0,[0.45140000000597524],67,0,67,0,1,5db1db20830742000a4470b4,40,Mężczyzna,2022-06-04_08h10.29.474,task,2021.1.4,Win32,58.99705015,628b806c463b948bc644b84f,629af728871db084a5397aaa,,,,,,,,,,,,,,,,,,,,,,,,,,,,,,,,,,,,,,,,,,,,,,,,,,,,,,,,,,,,,,,,,,,,,,,,,,,,,,,,,,,,,,,,,,,,,,,,,,,,,,,
,,"[""comma""]",0,[0.25529999999702113],68,0,68,0,1,5db1db20830742000a4470b4,40,Mężczyzna,2022-06-04_08h10.29.474,task,2021.1.4,Win32,58.99705015,628b806c463b948bc644b84f,629af728871db084a5397aaa,,,,,,,,,,,,,,,,,,,,,,,,,,,,,,,,,,,,,,,,,,,,,,,,,,,,,,,,,,,,,,,,,,,,,,,,,,,,,,,,,,,,,,,,,,,,,,,,,,,,,,,
,,"[""period""]",0,[0.35020000000298523],69,0,69,0,1,5db1db20830742000a4470b4,40,Mężczyzna,2022-06-04_08h10.29.474,task,2021.1.4,Win32,58.99705015,628b806c463b948bc644b84f,629af728871db084a5397aaa,,,,,,,,,,,,,,,,,,,,,,,,,,,,,,,,,,,,,,,,,,,,,,,,,,,,,,,,,,,,,,,,,,,,,,,,,,,,,,,,,,,,,,,,,,,,,,,,,,,,,,,
,,"[""period""]",0,[0.319500000000005],70,0,70,0,1,5db1db20830742000a4470b4,40,Mężczyzna,2022-06-04_08h10.29.474,task,2021.1.4,Win32,58.99705015,628b806c463b948bc644b84f,629af728871db084a5397aaa,,,,,,,,,,,,,,,,,,,,,,,,,,,,,,,,,,,,,,,,,,,,,,,,,,,,,,,,,,,,,,,,,,,,,,,,,,,,,,,,,,,,,,,,,,,,,,,,,,,,,,,
,,"[""period""]",0,[0.28970000000296636],71,0,71,0,1,5db1db20830742000a4470b4,40,Mężczyzna,2022-06-04_08h10.29.474,task,2021.1.4,Win32,58.99705015,628b806c463b948bc644b84f,629af728871db084a5397aaa,,,,,,,,,,,,,,,,,,,,,,,,,,,,,,,,,,,,,,,,,,,,,,,,,,,,,,,,,,,,,,,,,,,,,,,,,,,,,,,,,,,,,,,,,,,,,,,,,,,,,,,
,,"[""comma""]",0,[0.2728999999910684],72,0,72,0,1,5db1db20830742000a4470b4,40,Mężczyzna,2022-06-04_08h10.29.474,task,2021.1.4,Win32,58.99705015,628b806c463b948bc644b84f,629af728871db084a5397aaa,,,,,,,,,,,,,,,,,,,,,,,,,,,,,,,,,,,,,,,,,,,,,,,,,,,,,,,,,,,,,,,,,,,,,,,,,,,,,,,,,,,,,,,,,,,,,,,,,,,,,,,
,,"[""period""]",0,[0.2860999999940361],73,0,73,0,1,5db1db20830742000a4470b4,40,Mężczyzna,2022-06-04_08h10.29.474,task,2021.1.4,Win32,58.99705015,628b806c463b948bc644b84f,629af728871db084a5397aaa,,,,,,,,,,,,,,,,,,,,,,,,,,,,,,,,,,,,,,,,,,,,,,,,,,,,,,,,,,,,,,,,,,,,,,,,,,,,,,,,,,,,,,,,,,,,,,,,,,,,,,,
,,"[""comma""]",0,[0.2830999999940218],74,0,74,0,1,5db1db20830742000a4470b4,40,Mężczyzna,2022-06-04_08h10.29.474,task,2021.1.4,Win32,58.99705015,628b806c463b948bc644b84f,629af728871db084a5397aaa,,,,,,,,,,,,,,,,,,,,,,,,,,,,,,,,,,,,,,,,,,,,,,,,,,,,,,,,,,,,,,,,,,,,,,,,,,,,,,,,,,,,,,,,,,,,,,,,,,,,,,,
,,"[""period""]",0,[0.2702999999970075],75,0,75,0,1,5db1db20830742000a4470b4,40,Mężczyzna,2022-06-04_08h10.29.474,task,2021.1.4,Win32,58.99705015,628b806c463b948bc644b84f,629af728871db084a5397aaa,,,,,,,,,,,,,,,,,,,,,,,,,,,,,,,,,,,,,,,,,,,,,,,,,,,,,,,,,,,,,,,,,,,,,,,,,,,,,,,,,,,,,,,,,,,,,,,,,,,,,,,
,,"[""comma""]",0,[-0.01309999999403999],76,0,76,0,1,5db1db20830742000a4470b4,40,Mężczyzna,2022-06-04_08h10.29.474,task,2021.1.4,Win32,58.99705015,628b806c463b948bc644b84f,629af728871db084a5397aaa,,,,,,,,,,,,,,,,,,,,,,,,,,,,,,,,,,,,,,,,,,,,,,,,,,,,,,,,,,,,,,,,,,,,,,,,,,,,,,,,,,,,,,,,,,,,,,,,,,,,,,,
,,"[""period""]",0,[0.052200000002983415],77,0,77,0,1,5db1db20830742000a4470b4,40,Mężczyzna,2022-06-04_08h10.29.474,task,2021.1.4,Win32,58.99705015,628b806c463b948bc644b84f,629af728871db084a5397aaa,,,,,,,,,,,,,,,,,,,,,,,,,,,,,,,,,,,,,,,,,,,,,,,,,,,,,,,,,,,,,,,,,,,,,,,,,,,,,,,,,,,,,,,,,,,,,,,,,,,,,,,
,,"[""comma""]",0,[0.3505000000000109],78,0,78,0,1,5db1db20830742000a4470b4,40,Mężczyzna,2022-06-04_08h10.29.474,task,2021.1.4,Win32,58.99705015,628b806c463b948bc644b84f,629af728871db084a5397aaa,,,,,,,,,,,,,,,,,,,,,,,,,,,,,,,,,,,,,,,,,,,,,,,,,,,,,,,,,,,,,,,,,,,,,,,,,,,,,,,,,,,,,,,,,,,,,,,,,,,,,,,
,,"[""comma""]",0,[0.5187000000029798],79,0,79,0,1,5db1db20830742000a4470b4,40,Mężczyzna,2022-06-04_08h10.29.474,task,2021.1.4,Win32,58.99705015,628b806c463b948bc644b84f,629af728871db084a5397aaa,,,,,,,,,,,,,,,,,,,,,,,,,,,,,,,,,,,,,,,,,,,,,,,,,,,,,,,,,,,,,,,,,,,,,,,,,,,,,,,,,,,,,,,,,,,,,,,,,,,,,,,
,,"[""comma""]",0,[0.392700000002975],80,0,80,0,1,5db1db20830742000a4470b4,40,Mężczyzna,2022-06-04_08h10.29.474,task,2021.1.4,Win32,58.99705015,628b806c463b948bc644b84f,629af728871db084a5397aaa,,,,,,,,,,,,,,,,,,,,,,,,,,,,,,,,,,,,,,,,,,,,,,,,,,,,,,,,,,,,,,,,,,,,,,,,,,,,,,,,,,,,,,,,,,,,,,,,,,,,,,,
,,"[""period""]",0,[0.329299999997005],81,0,81,0,1,5db1db20830742000a4470b4,40,Mężczyzna,2022-06-04_08h10.29.474,task,2021.1.4,Win32,58.99705015,628b806c463b948bc644b84f,629af728871db084a5397aaa,,,,,,,,,,,,,,,,,,,,,,,,,,,,,,,,,,,,,,,,,,,,,,,,,,,,,,,,,,,,,,,,,,,,,,,,,,,,,,,,,,,,,,,,,,,,,,,,,,,,,,,
,,"[""comma""]",0,[0.31960000000896116],82,0,82,0,1,5db1db20830742000a4470b4,40,Mężczyzna,2022-06-04_08h10.29.474,task,2021.1.4,Win32,58.99705015,628b806c463b948bc644b84f,629af728871db084a5397aaa,,,,,,,,,,,,,,,,,,,,,,,,,,,,,,,,,,,,,,,,,,,,,,,,,,,,,,,,,,,,,,,,,,,,,,,,,,,,,,,,,,,,,,,,,,,,,,,,,,,,,,,
,,"[""comma""]",0,[0.3315999999940402],83,0,83,0,1,5db1db20830742000a4470b4,40,Mężczyzna,2022-06-04_08h10.29.474,task,2021.1.4,Win32,58.99705015,628b806c463b948bc644b84f,629af728871db084a5397aaa,,,,,,,,,,,,,,,,,,,,,,,,,,,,,,,,,,,,,,,,,,,,,,,,,,,,,,,,,,,,,,,,,,,,,,,,,,,,,,,,,,,,,,,,,,,,,,,,,,,,,,,
,,"[""period""]",0,[0.3176000000089516],84,0,84,0,1,5db1db20830742000a4470b4,40,Mężczyzna,2022-06-04_08h10.29.474,task,2021.1.4,Win32,58.99705015,628b806c463b948bc644b84f,629af728871db084a5397aaa,,,,,,,,,,,,,,,,,,,,,,,,,,,,,,,,,,,,,,,,,,,,,,,,,,,,,,,,,,,,,,,,,,,,,,,,,,,,,,,,,,,,,,,,,,,,,,,,,,,,,,,
,,"[""period""]",0,[0.34149999999999636],85,0,85,0,1,5db1db20830742000a4470b4,40,Mężczyzna,2022-06-04_08h10.29.474,task,2021.1.4,Win32,58.99705015,628b806c463b948bc644b84f,629af728871db084a5397aaa,,,,,,,,,,,,,,,,,,,,,,,,,,,,,,,,,,,,,,,,,,,,,,,,,,,,,,,,,,,,,,,,,,,,,,,,,,,,,,,,,,,,,,,,,,,,,,,,,,,,,,,
,,"[""period""]",0,[0.5177999999970382],86,0,86,0,1,5db1db20830742000a4470b4,40,Mężczyzna,2022-06-04_08h10.29.474,task,2021.1.4,Win32,58.99705015,628b806c463b948bc644b84f,629af728871db084a5397aaa,,,,,,,,,,,,,,,,,,,,,,,,,,,,,,,,,,,,,,,,,,,,,,,,,,,,,,,,,,,,,,,,,,,,,,,,,,,,,,,,,,,,,,,,,,,,,,,,,,,,,,,
,,"[""comma""]",0,[0.37409999999403],87,0,87,0,1,5db1db20830742000a4470b4,40,Mężczyzna,2022-06-04_08h10.29.474,task,2021.1.4,Win32,58.99705015,628b806c463b948bc644b84f,629af728871db084a5397aaa,,,,,,,,,,,,,,,,,,,,,,,,,,,,,,,,,,,,,,,,,,,,,,,,,,,,,,,,,,,,,,,,,,,,,,,,,,,,,,,,,,,,,,,,,,,,,,,,,,,,,,,
,,"[""period""]",0,[0.33620000000297523],88,0,88,0,1,5db1db20830742000a4470b4,40,Mężczyzna,2022-06-04_08h10.29.474,task,2021.1.4,Win32,58.99705015,628b806c463b948bc644b84f,629af728871db084a5397aaa,,,,,,,,,,,,,,,,,,,,,,,,,,,,,,,,,,,,,,,,,,,,,,,,,,,,,,,,,,,,,,,,,,,,,,,,,,,,,,,,,,,,,,,,,,,,,,,,,,,,,,,
,,"[""comma""]",0,[0.3682999999970207],89,0,89,0,1,5db1db20830742000a4470b4,40,Mężczyzna,2022-06-04_08h10.29.474,task,2021.1.4,Win32,58.99705015,628b806c463b948bc644b84f,629af728871db084a5397aaa,,,,,,,,,,,,,,,,,,,,,,,,,,,,,,,,,,,,,,,,,,,,,,,,,,,,,,,,,,,,,,,,,,,,,,,,,,,,,,,,,,,,,,,,,,,,,,,,,,,,,,,
,,"[""comma""]",0,[0.38450000000000273],90,0,90,0,1,5db1db20830742000a4470b4,40,Mężczyzna,2022-06-04_08h10.29.474,task,2021.1.4,Win32,58.99705015,628b806c463b948bc644b84f,629af728871db084a5397aaa,,,,,,,,,,,,,,,,,,,,,,,,,,,,,,,,,,,,,,,,,,,,,,,,,,,,,,,,,,,,,,,,,,,,,,,,,,,,,,,,,,,,,,,,,,,,,,,,,,,,,,,
,,"[""period""]",0,[0.31820000000297455],91,0,91,0,1,5db1db20830742000a4470b4,40,Mężczyzna,2022-06-04_08h10.29.474,task,2021.1.4,Win32,58.99705015,628b806c463b948bc644b84f,629af728871db084a5397aaa,,,,,,,,,,,,,,,,,,,,,,,,,,,,,,,,,,,,,,,,,,,,,,,,,,,,,,,,,,,,,,,,,,,,,,,,,,,,,,,,,,,,,,,,,,,,,,,,,,,,,,,
,,"[""comma""]",0,[0.23470000000298796],92,0,92,0,1,5db1db20830742000a4470b4,40,Mężczyzna,2022-06-04_08h10.29.474,task,2021.1.4,Win32,58.99705015,628b806c463b948bc644b84f,629af728871db084a5397aaa,,,,,,,,,,,,,,,,,,,,,,,,,,,,,,,,,,,,,,,,,,,,,,,,,,,,,,,,,,,,,,,,,,,,,,,,,,,,,,,,,,,,,,,,,,,,,,,,,,,,,,,
,,"[""period""]",0,[0.01790000000596592],93,0,93,0,1,5db1db20830742000a4470b4,40,Mężczyzna,2022-06-04_08h10.29.474,task,2021.1.4,Win32,58.99705015,628b806c463b948bc644b84f,629af728871db084a5397aaa,,,,,,,,,,,,,,,,,,,,,,,,,,,,,,,,,,,,,,,,,,,,,,,,,,,,,,,,,,,,,,,,,,,,,,,,,,,,,,,,,,,,,,,,,,,,,,,,,,,,,,,
,,"[""comma""]",0,[0.3204000000059182],94,0,94,0,1,5db1db20830742000a4470b4,40,Mężczyzna,2022-06-04_08h10.29.474,task,2021.1.4,Win32,58.99705015,628b806c463b948bc644b84f,629af728871db084a5397aaa,,,,,,,,,,,,,,,,,,,,,,,,,,,,,,,,,,,,,,,,,,,,,,,,,,,,,,,,,,,,,,,,,,,,,,,,,,,,,,,,,,,,,,,,,,,,,,,,,,,,,,,
,,"[""comma""]",0,[0.31890000000595364],95,0,95,0,1,5db1db20830742000a4470b4,40,Mężczyzna,2022-06-04_08h10.29.474,task,2021.1.4,Win32,58.99705015,628b806c463b948bc644b84f,629af728871db084a5397aaa,,,,,,,,,,,,,,,,,,,,,,,,,,,,,,,,,,,,,,,,,,,,,,,,,,,,,,,,,,,,,,,,,,,,,,,,,,,,,,,,,,,,,,,,,,,,,,,,,,,,,,,
,,"[""period""]",0,[0.2681000000089284],96,0,96,0,1,5db1db20830742000a4470b4,40,Mężczyzna,2022-06-04_08h10.29.474,task,2021.1.4,Win32,58.99705015,628b806c463b948bc644b84f,629af728871db084a5397aaa,,,,,,,,,,,,,,,,,,,,,,,,,,,,,,,,,,,,,,,,,,,,,,,,,,,,,,,,,,,,,,,,,,,,,,,,,,,,,,,,,,,,,,,,,,,,,,,,,,,,,,,
,,"[""comma""]",0,[0.28440000000597365],97,0,97,0,1,5db1db20830742000a4470b4,40,Mężczyzna,2022-06-04_08h10.29.474,task,2021.1.4,Win32,58.99705015,628b806c463b948bc644b84f,629af728871db084a5397aaa,,,,,,,,,,,,,,,,,,,,,,,,,,,,,,,,,,,,,,,,,,,,,,,,,,,,,,,,,,,,,,,,,,,,,,,,,,,,,,,,,,,,,,,,,,,,,,,,,,,,,,,
,,"[""period""]",0,[0.2912999999970225],98,0,98,0,1,5db1db20830742000a4470b4,40,Mężczyzna,2022-06-04_08h10.29.474,task,2021.1.4,Win32,58.99705015,628b806c463b948bc644b84f,629af728871db084a5397aaa,,,,,,,,,,,,,,,,,,,,,,,,,,,,,,,,,,,,,,,,,,,,,,,,,,,,,,,,,,,,,,,,,,,,,,,,,,,,,,,,,,,,,,,,,,,,,,,,,,,,,,,
,,"[""period""]",0,[0.26259999999399497],99,0,99,0,1,5db1db20830742000a4470b4,40,Mężczyzna,2022-06-04_08h10.29.474,task,2021.1.4,Win32,58.99705015,628b806c463b948bc644b84f,629af728871db084a5397aaa,,,,,,,,,,,,,,,,,,,,,,,,,,,,,,,,,,,,,,,,,,,,,,,,,,,,,,,,,,,,,,,,,,,,,,,,,,,,,,,,,,,,,,,,,,,,,,,,,,,,,,,
,,"[""comma""]",0,[0.2679000000059659],100,0,100,0,1,5db1db20830742000a4470b4,40,Mężczyzna,2022-06-04_08h10.29.474,task,2021.1.4,Win32,58.99705015,628b806c463b948bc644b84f,629af728871db084a5397aaa,,,,,,,,,,,,,,,,,,,,,,,,,,,,,,,,,,,,,,,,,,,,,,,,,,,,,,,,,,,,,,,,,,,,,,,,,,,,,,,,,,,,,,,,,,,,,,,,,,,,,,,
,,"[""period""]",0,[0.3509999999999991],101,0,101,0,1,5db1db20830742000a4470b4,40,Mężczyzna,2022-06-04_08h10.29.474,task,2021.1.4,Win32,58.99705015,628b806c463b948bc644b84f,629af728871db084a5397aaa,,,,,,,,,,,,,,,,,,,,,,,,,,,,,,,,,,,,,,,,,,,,,,,,,,,,,,,,,,,,,,,,,,,,,,,,,,,,,,,,,,,,,,,,,,,,,,,,,,,,,,,
,,"[""period""]",0,[0.3319000000059873],102,0,102,0,1,5db1db20830742000a4470b4,40,Mężczyzna,2022-06-04_08h10.29.474,task,2021.1.4,Win32,58.99705015,628b806c463b948bc644b84f,629af728871db084a5397aaa,,,,,,,,,,,,,,,,,,,,,,,,,,,,,,,,,,,,,,,,,,,,,,,,,,,,,,,,,,,,,,,,,,,,,,,,,,,,,,,,,,,,,,,,,,,,,,,,,,,,,,,
,,"[""comma""]",0,[0.3167999999970448],103,0,103,0,1,5db1db20830742000a4470b4,40,Mężczyzna,2022-06-04_08h10.29.474,task,2021.1.4,Win32,58.99705015,628b806c463b948bc644b84f,629af728871db084a5397aaa,,,,,,,,,,,,,,,,,,,,,,,,,,,,,,,,,,,,,,,,,,,,,,,,,,,,,,,,,,,,,,,,,,,,,,,,,,,,,,,,,,,,,,,,,,,,,,,,,,,,,,,
,,"[""comma""]",0,[0.5312999999969747],104,0,104,0,1,5db1db20830742000a4470b4,40,Mężczyzna,2022-06-04_08h10.29.474,task,2021.1.4,Win32,58.99705015,628b806c463b948bc644b84f,629af728871db084a5397aaa,,,,,,,,,,,,,,,,,,,,,,,,,,,,,,,,,,,,,,,,,,,,,,,,,,,,,,,,,,,,,,,,,,,,,,,,,,,,,,,,,,,,,,,,,,,,,,,,,,,,,,,
,,"[""period""]",0,[0.3010999999940509],105,0,105,0,1,5db1db20830742000a4470b4,40,Mężczyzna,2022-06-04_08h10.29.474,task,2021.1.4,Win32,58.99705015,628b806c463b948bc644b84f,629af728871db084a5397aaa,,,,,,,,,,,,,,,,,,,,,,,,,,,,,,,,,,,,,,,,,,,,,,,,,,,,,,,,,,,,,,,,,,,,,,,,,,,,,,,,,,,,,,,,,,,,,,,,,,,,,,,
,,"[""comma""]",0,[0.34320000000298023],106,0,106,0,1,5db1db20830742000a4470b4,40,Mężczyzna,2022-06-04_08h10.29.474,task,2021.1.4,Win32,58.99705015,628b806c463b948bc644b84f,629af728871db084a5397aaa,,,,,,,,,,,,,,,,,,,,,,,,,,,,,,,,,,,,,,,,,,,,,,,,,,,,,,,,,,,,,,,,,,,,,,,,,,,,,,,,,,,,,,,,,,,,,,,,,,,,,,,
,,"[""comma""]",0,[0.39090000000595637],107,0,107,0,1,5db1db20830742000a4470b4,40,Mężczyzna,2022-06-04_08h10.29.474,task,2021.1.4,Win32,58.99705015,628b806c463b948bc644b84f,629af728871db084a5397aaa,,,,,,,,,,,,,,,,,,,,,,,,,,,,,,,,,,,,,,,,,,,,,,,,,,,,,,,,,,,,,,,,,,,,,,,,,,,,,,,,,,,,,,,,,,,,,,,,,,,,,,,
,,"[""period""]",0,[0.33449999999999136],108,0,108,0,1,5db1db20830742000a4470b4,40,Mężczyzna,2022-06-04_08h10.29.474,task,2021.1.4,Win32,58.99705015,628b806c463b948bc644b84f,629af728871db084a5397aaa,,,,,,,,,,,,,,,,,,,,,,,,,,,,,,,,,,,,,,,,,,,,,,,,,,,,,,,,,,,,,,,,,,,,,,,,,,,,,,,,,,,,,,,,,,,,,,,,,,,,,,,
,,"[""period""]",0,[0.3215999999940209],109,0,109,0,1,5db1db20830742000a4470b4,40,Mężczyzna,2022-06-04_08h10.29.474,task,2021.1.4,Win32,58.99705015,628b806c463b948bc644b84f,629af728871db084a5397aaa,,,,,,,,,,,,,,,,,,,,,,,,,,,,,,,,,,,,,,,,,,,,,,,,,,,,,,,,,,,,,,,,,,,,,,,,,,,,,,,,,,,,,,,,,,,,,,,,,,,,,,,
,,"[""comma""]",0,[0.28720000000299706],110,0,110,0,1,5db1db20830742000a4470b4,40,Mężczyzna,2022-06-04_08h10.29.474,task,2021.1.4,Win32,58.99705015,628b806c463b948bc644b84f,629af728871db084a5397aaa,,,,,,,,,,,,,,,,,,,,,,,,,,,,,,,,,,,,,,,,,,,,,,,,,,,,,,,,,,,,,,,,,,,,,,,,,,,,,,,,,,,,,,,,,,,,,,,,,,,,,,,
,,"[""period""]",0,[0.2707999999970525],111,0,111,0,1,5db1db20830742000a4470b4,40,Mężczyzna,2022-06-04_08h10.29.474,task,2021.1.4,Win32,58.99705015,628b806c463b948bc644b84f,629af728871db084a5397aaa,,,,,,,,,,,,,,,,,,,,,,,,,,,,,,,,,,,,,,,,,,,,,,,,,,,,,,,,,,,,,,,,,,,,,,,,,,,,,,,,,,,,,,,,,,,,,,,,,,,,,,,
,,"[""period""]",0,[0.26809999999403544],112,0,112,0,1,5db1db20830742000a4470b4,40,Mężczyzna,2022-06-04_08h10.29.474,task,2021.1.4,Win32,58.99705015,628b806c463b948bc644b84f,629af728871db084a5397aaa,,,,,,,,,,,,,,,,,,,,,,,,,,,,,,,,,,,,,,,,,,,,,,,,,,,,,,,,,,,,,,,,,,,,,,,,,,,,,,,,,,,,,,,,,,,,,,,,,,,,,,,
,,"[""period""]",0,[0.25259999999400407],113,0,113,0,1,5db1db20830742000a4470b4,40,Mężczyzna,2022-06-04_08h10.29.474,task,2021.1.4,Win32,58.99705015,628b806c463b948bc644b84f,629af728871db084a5397aaa,,,,,,,,,,,,,,,,,,,,,,,,,,,,,,,,,,,,,,,,,,,,,,,,,,,,,,,,,,,,,,,,,,,,,,,,,,,,,,,,,,,,,,,,,,,,,,,,,,,,,,,
,,"[""period""]",0,[0.031700000002956585],114,0,114,0,1,5db1db20830742000a4470b4,40,Mężczyzna,2022-06-04_08h10.29.474,task,2021.1.4,Win32,58.99705015,628b806c463b948bc644b84f,629af728871db084a5397aaa,,,,,,,,,,,,,,,,,,,,,,,,,,,,,,,,,,,,,,,,,,,,,,,,,,,,,,,,,,,,,,,,,,,,,,,,,,,,,,,,,,,,,,,,,,,,,,,,,,,,,,,
,,"[""comma"",""comma""]",0,"[0.30509999999401316,1.934900000005939]",115,0,115,0,1,5db1db20830742000a4470b4,40,Mężczyzna,2022-06-04_08h10.29.474,task,2021.1.4,Win32,58.99705015,628b806c463b948bc644b84f,629af728871db084a5397aaa,,,,,,,,,,,,,,,,,,,,,,,,,,,,,,,,,,,,,,,,,,,,,,,,,,,,,,,,,,,,,,,,,,,,,,,,,,,,,,,,,,,,,,,,,,,,,,,,,,,,,,,
,,,0,,116,0,116,0,1,5db1db20830742000a4470b4,40,Mężczyzna,2022-06-04_08h10.29.474,task,2021.1.4,Win32,58.99705015,628b806c463b948bc644b84f,629af728871db084a5397aaa,,,,,,,,,,,,,,,,,,,,,,,,,,,,,,,,,,,,,,,,,,,,,,,,,,,,,,,,,,,,,,,,,,,,,,,,,,,,,,,,,,,,,,,,,,,,,,,,,,,,,,,
,,"[""period""]",0,[0.1584000000059973],117,0,117,0,1,5db1db20830742000a4470b4,40,Mężczyzna,2022-06-04_08h10.29.474,task,2021.1.4,Win32,58.99705015,628b806c463b948bc644b84f,629af728871db084a5397aaa,,,,,,,,,,,,,,,,,,,,,,,,,,,,,,,,,,,,,,,,,,,,,,,,,,,,,,,,,,,,,,,,,,,,,,,,,,,,,,,,,,,,,,,,,,,,,,,,,,,,,,,
,,"[""period""]",0,[0.3348999999910234],118,0,118,0,1,5db1db20830742000a4470b4,40,Mężczyzna,2022-06-04_08h10.29.474,task,2021.1.4,Win32,58.99705015,628b806c463b948bc644b84f,629af728871db084a5397aaa,,,,,,,,,,,,,,,,,,,,,,,,,,,,,,,,,,,,,,,,,,,,,,,,,,,,,,,,,,,,,,,,,,,,,,,,,,,,,,,,,,,,,,,,,,,,,,,,,,,,,,,
,,"[""comma""]",0,[0.33449999999999136],119,0,119,0,1,5db1db20830742000a4470b4,40,Mężczyzna,2022-06-04_08h10.29.474,task,2021.1.4,Win32,58.99705015,628b806c463b948bc644b84f,629af728871db084a5397aaa,,,,,,,,,,,,,,,,,,,,,,,,,,,,,,,,,,,,,,,,,,,,,,,,,,,,,,,,,,,,,,,,,,,,,,,,,,,,,,,,,,,,,,,,,,,,,,,,,,,,,,,
,,,,,,,,,,5db1db20830742000a4470b4,40,Mężczyzna,2022-06-04_08h10.29.474,task,2021.1.4,Win32,58.99705015,628b806c463b948bc644b84f,629af728871db084a5397aaa,space,30.7473,space,9.8922,0,0,0,0,1,X V Q F H G B L J M P D K C T S W R N Z,,,,,,,,,,,,,,,,,,,,,,,,,,,,,,,,,,,,,,,,,,,,,,,,,,,,,,,,,,,,,,,,,,,,,,,,,,,,,,,,,,,,,,,,,,,,,
,,,,,,,,,,5db1db20830742000a4470b4,40,Mężczyzna,2022-06-04_08h10.29.474,task,2021.1.4,Win32,58.99705015,628b806c463b948bc644b84f,629af728871db084a5397aaa,,,,,1,0,1,0,1,X V Q F H G B L J M P D K C T S W R N Z,,,,,,,,,,,,,,,,,,,,,,,,,,,,,,,,,,,,,,,,,,,,,,,,,,,,,,,,,,,,,,,,,,,,,,,,,,,,,,,,,,,,,,,,,,,,,
,,,,,,,,,,5db1db20830742000a4470b4,40,Mężczyzna,2022-06-04_08h10.29.474,task,2021.1.4,Win32,58.99705015,628b806c463b948bc644b84f,629af728871db084a5397aaa,,,,,,,,,,,zq,"[""z"",""q""]","[3.321599999994021,4.2642000000029725,8.26489999999103]",1,ZQ,0,0,0,0,1,,,,,,,,,,,,,,,,,,,,,,,,,,,,,,,,,,,,,,,,,,,,,,,,,,,,,,,,,,,,,,,,,,,,,,,,,,,,,,,,,,,
,,,,,,,,,,5db1db20830742000a4470b4,40,Mężczyzna,2022-06-04_08h10.29.474,task,2021.1.4,Win32,58.99705015,628b806c463b948bc644b84f,629af728871db084a5397aaa,,,,,0,0,0,0,1,X V Q F H G B L J M P D K C T S W R N Z,,,,,,,,,,,,,,,,,,,,,,,,,,,,,,,,,,,,,,,,,,,,,,,,,,,,,,,,,,,,,,,,,,,,,,,,,,,,,,,,,,,,,,,,,,,,,
,,,,,,,,,,5db1db20830742000a4470b4,40,Mężczyzna,2022-06-04_08h10.29.474,task,2021.1.4,Win32,58.99705015,628b806c463b948bc644b84f,629af728871db084a5397aaa,,,,,1,0,1,0,1,X V Q F H G B L J M P D K C T S W R N Z,,,,,,,,,,,,,,,,,,,,,,,,,,,,,,,,,,,,,,,,,,,,,,,,,,,,,,,,,,,,,,,,,,,,,,,,,,,,,,,,,,,,,,,,,,,,,
,,,,,,,,,,5db1db20830742000a4470b4,40,Mężczyzna,2022-06-04_08h10.29.474,task,2021.1.4,Win32,58.99705015,628b806c463b948bc644b84f,629af728871db084a5397aaa,,,,,,,,,,,fz,"[""f"",""z""]","[1.4160999999940032,1.9838999999910243,2.7372000000029857]",1,FZ,1,0,1,0,1,,,,,,,,,,,,,,,,,,,,,,,,,,,,,,,,,,,,,,,,,,,,,,,,,,,,,,,,,,,,,,,,,,,,,,,,,,,,,,,,,,,
,,,,,,,,,,5db1db20830742000a4470b4,40,Mężczyzna,2022-06-04_08h10.29.474,task,2021.1.4,Win32,58.99705015,628b806c463b948bc644b84f,629af728871db084a5397aaa,,,,,0,0,0,0,1,X V Q F H G B L J M P D K C T S W R N Z,,,,,,,,,,,,,,,,,,,,,,,,,,,,,,,,,,,,,,,,,,,,,,,,,,,,,,,,,,,,,,,,,,,,,,,,,,,,,,,,,,,,,,,,,,,,,
,,,,,,,,,,5db1db20830742000a4470b4,40,Mężczyzna,2022-06-04_08h10.29.474,task,2021.1.4,Win32,58.99705015,628b806c463b948bc644b84f,629af728871db084a5397aaa,,,,,1,0,1,0,1,X V Q F H G B L J M P D K C T S W R N Z,,,,,,,,,,,,,,,,,,,,,,,,,,,,,,,,,,,,,,,,,,,,,,,,,,,,,,,,,,,,,,,,,,,,,,,,,,,,,,,,,,,,,,,,,,,,,
,,,,,,,,,,5db1db20830742000a4470b4,40,Mężczyzna,2022-06-04_08h10.29.474,task,2021.1.4,Win32,58.99705015,628b806c463b948bc644b84f,629af728871db084a5397aaa,,,,,2,0,2,0,1,X V Q F H G B L J M P D K C T S W R N Z,,,,,,,,,,,,,,,,,,,,,,,,,,,,,,,,,,,,,,,,,,,,,,,,,,,,,,,,,,,,,,,,,,,,,,,,,,,,,,,,,,,,,,,,,,,,,
,,,,,,,,,,5db1db20830742000a4470b4,40,Mężczyzna,2022-06-04_08h10.29.474,task,2021.1.4,Win32,58.99705015,628b806c463b948bc644b84f,629af728871db084a5397aaa,,,,,,,,,,,kkt,"[""k"",""k"",""t""]","[1.0709999999999695,1.2536999999880436,1.7826999999880968,2.505699999988053]",1,KKT,2,0,2,0,1,,,,,,,,,,,,,,,,,,,,,,,,,,,,,,,,,,,,,,,,,,,,,,,,,,,,,,,,,,,,,,,,,,,,,,,,,,,,,,,,,,,
,,,,,,,,,,5db1db20830742000a4470b4,40,Mężczyzna,2022-06-04_08h10.29.474,task,2021.1.4,Win32,58.99705015,628b806c463b948bc644b84f,629af728871db084a5397aaa,,,,,0,0,0,0,1,X V Q F H G B L J M P D K C T S W R N Z,,,,,,,,,,,,,,,,,,,,,,,,,,,,,,,,,,,,,,,,,,,,,,,,,,,,,,,,,,,,,,,,,,,,,,,,,,,,,,,,,,,,,,,,,,,,,
,,,,,,,,,,5db1db20830742000a4470b4,40,Mężczyzna,2022-06-04_08h10.29.474,task,2021.1.4,Win32,58.99705015,628b806c463b948bc644b84f,629af728871db084a5397aaa,,,,,1,0,1,0,1,X V Q F H G B L J M P D K C T S W R N Z,,,,,,,,,,,,,,,,,,,,,,,,,,,,,,,,,,,,,,,,,,,,,,,,,,,,,,,,,,,,,,,,,,,,,,,,,,,,,,,,,,,,,,,,,,,,,
,,,,,,,,,,5db1db20830742000a4470b4,40,Mężczyzna,2022-06-04_08h10.29.474,task,2021.1.4,Win32,58.99705015,628b806c463b948bc644b84f,629af728871db084a5397aaa,,,,,2,0,2,0,1,X V Q F H G B L J M P D K C T S W R N Z,,,,,,,,,,,,,,,,,,,,,,,,,,,,,,,,,,,,,,,,,,,,,,,,,,,,,,,,,,,,,,,,,,,,,,,,,,,,,,,,,,,,,,,,,,,,,
,,,,,,,,,,5db1db20830742000a4470b4,40,Mężczyzna,2022-06-04_08h10.29.474,task,2021.1.4,Win32,58.99705015,628b806c463b948bc644b84f,629af728871db084a5397aaa,,,,,,,,,,,hnz,"[""h"",""n"",""z""]","[1.3828000000119118,2.3498000000118964,2.6847000000029766,3.541100000008953]",1,HNZ,3,0,3,0,1,,,,,,,,,,,,,,,,,,,,,,,,,,,,,,,,,,,,,,,,,,,,,,,,,,,,,,,,,,,,,,,,,,,,,,,,,,,,,,,,,,,
,,,,,,,,,,5db1db20830742000a4470b4,40,Mężczyzna,2022-06-04_08h10.29.474,task,2021.1.4,Win32,58.99705015,628b806c463b948bc644b84f,629af728871db084a5397aaa,,,,,0,0,0,0,1,X V Q F H G B L J M P D K C T S W R N Z,,,,,,,,,,,,,,,,,,,,,,,,,,,,,,,,,,,,,,,,,,,,,,,,,,,,,,,,,,,,,,,,,,,,,,,,,,,,,,,,,,,,,,,,,,,,,
,,,,,,,,,,5db1db20830742000a4470b4,40,Mężczyzna,2022-06-04_08h10.29.474,task,2021.1.4,Win32,58.99705015,628b806c463b948bc644b84f,629af728871db084a5397aaa,,,,,1,0,1,0,1,X V Q F H G B L J M P D K C T S W R N Z,,,,,,,,,,,,,,,,,,,,,,,,,,,,,,,,,,,,,,,,,,,,,,,,,,,,,,,,,,,,,,,,,,,,,,,,,,,,,,,,,,,,,,,,,,,,,
,,,,,,,,,,5db1db20830742000a4470b4,40,Mężczyzna,2022-06-04_08h10.29.474,task,2021.1.4,Win32,58.99705015,628b806c463b948bc644b84f,629af728871db084a5397aaa,,,,,2,0,2,0,1,X V Q F H G B L J M P D K C T S W R N Z,,,,,,,,,,,,,,,,,,,,,,,,,,,,,,,,,,,,,,,,,,,,,,,,,,,,,,,,,,,,,,,,,,,,,,,,,,,,,,,,,,,,,,,,,,,,,
,,,,,,,,,,5db1db20830742000a4470b4,40,Mężczyzna,2022-06-04_08h10.29.474,task,2021.1.4,Win32,58.99705015,628b806c463b948bc644b84f,629af728871db084a5397aaa,,,,,3,0,3,0,1,X V Q F H G B L J M P D K C T S W R N Z,,,,,,,,,,,,,,,,,,,,,,,,,,,,,,,,,,,,,,,,,,,,,,,,,,,,,,,,,,,,,,,,,,,,,,,,,,,,,,,,,,,,,,,,,,,,,
,,,,,,,,,,5db1db20830742000a4470b4,40,Mężczyzna,2022-06-04_08h10.29.474,task,2021.1.4,Win32,58.99705015,628b806c463b948bc644b84f,629af728871db084a5397aaa,,,,,,,,,,,xctn,"[""x"",""c"",""t"",""n""]","[2.1357999999970616,2.382899999991082,2.9395000000000095,3.683199999988119,4.144099999994069]",1,XCTN,4,0,4,0,1,,,,,,,,,,,,,,,,,,,,,,,,,,,,,,,,,,,,,,,,,,,,,,,,,,,,,,,,,,,,,,,,,,,,,,,,,,,,,,,,,,,
,,,,,,,,,,5db1db20830742000a4470b4,40,Mężczyzna,2022-06-04_08h10.29.474,task,2021.1.4,Win32,58.99705015,628b806c463b948bc644b84f,629af728871db084a5397aaa,,,,,0,0,0,0,1,X V Q F H G B L J M P D K C T S W R N Z,,,,,,,,,,,,,,,,,,,,,,,,,,,,,,,,,,,,,,,,,,,,,,,,,,,,,,,,,,,,,,,,,,,,,,,,,,,,,,,,,,,,,,,,,,,,,
,,,,,,,,,,5db1db20830742000a4470b4,40,Mężczyzna,2022-06-04_08h10.29.474,task,2021.1.4,Win32,58.99705015,628b806c463b948bc644b84f,629af728871db084a5397aaa,,,,,1,0,1,0,1,X V Q F H G B L J M P D K C T S W R N Z,,,,,,,,,,,,,,,,,,,,,,,,,,,,,,,,,,,,,,,,,,,,,,,,,,,,,,,,,,,,,,,,,,,,,,,,,,,,,,,,,,,,,,,,,,,,,
,,,,,,,,,,5db1db20830742000a4470b4,40,Mężczyzna,2022-06-04_08h10.29.474,task,2021.1.4,Win32,58.99705015,628b806c463b948bc644b84f,629af728871db084a5397aaa,,,,,2,0,2,0,1,X V Q F H G B L J M P D K C T S W R N Z,,,,,,,,,,,,,,,,,,,,,,,,,,,,,,,,,,,,,,,,,,,,,,,,,,,,,,,,,,,,,,,,,,,,,,,,,,,,,,,,,,,,,,,,,,,,,
,,,,,,,,,,5db1db20830742000a4470b4,40,Mężczyzna,2022-06-04_08h10.29.474,task,2021.1.4,Win32,58.99705015,628b806c463b948bc644b84f,629af728871db084a5397aaa,,,,,3,0,3,0,1,X V Q F H G B L J M P D K C T S W R N Z,,,,,,,,,,,,,,,,,,,,,,,,,,,,,,,,,,,,,,,,,,,,,,,,,,,,,,,,,,,,,,,,,,,,,,,,,,,,,,,,,,,,,,,,,,,,,
,,,,,,,,,,5db1db20830742000a4470b4,40,Mężczyzna,2022-06-04_08h10.29.474,task,2021.1.4,Win32,58.99705015,628b806c463b948bc644b84f,629af728871db084a5397aaa,,,,,,,,,,,kzjt,"[""k"",""z"",""j"",""t""]","[2.254400000006001,2.632799999997019,3.253099999994049,3.704099999994071,10.752299999997035]",1,KZJT,5,0,5,0,1,,,,,,,,,,,,,,,,,,,,,,,,,,,,,,,,,,,,,,,,,,,,,,,,,,,,,,,,,,,,,,,,,,,,,,,,,,,,,,,,,,,
,,,,,,,,,,5db1db20830742000a4470b4,40,Mężczyzna,2022-06-04_08h10.29.474,task,2021.1.4,Win32,58.99705015,628b806c463b948bc644b84f,629af728871db084a5397aaa,,,,,0,0,0,0,1,X V Q F H G B L J M P D K C T S W R N Z,,,,,,,,,,,,,,,,,,,,,,,,,,,,,,,,,,,,,,,,,,,,,,,,,,,,,,,,,,,,,,,,,,,,,,,,,,,,,,,,,,,,,,,,,,,,,
,,,,,,,,,,5db1db20830742000a4470b4,40,Mężczyzna,2022-06-04_08h10.29.474,task,2021.1.4,Win32,58.99705015,628b806c463b948bc644b84f,629af728871db084a5397aaa,,,,,1,0,1,0,1,X V Q F H G B L J M P D K C T S W R N Z,,,,,,,,,,,,,,,,,,,,,,,,,,,,,,,,,,,,,,,,,,,,,,,,,,,,,,,,,,,,,,,,,,,,,,,,,,,,,,,,,,,,,,,,,,,,,
,,,,,,,,,,5db1db20830742000a4470b4,40,Mężczyzna,2022-06-04_08h10.29.474,task,2021.1.4,Win32,58.99705015,628b806c463b948bc644b84f,629af728871db084a5397aaa,,,,,2,0,2,0,1,X V Q F H G B L J M P D K C T S W R N Z,,,,,,,,,,,,,,,,,,,,,,,,,,,,,,,,,,,,,,,,,,,,,,,,,,,,,,,,,,,,,,,,,,,,,,,,,,,,,,,,,,,,,,,,,,,,,
,,,,,,,,,,5db1db20830742000a4470b4,40,Mężczyzna,2022-06-04_08h10.29.474,task,2021.1.4,Win32,58.99705015,628b806c463b948bc644b84f,629af728871db084a5397aaa,,,,,3,0,3,0,1,X V Q F H G B L J M P D K C T S W R N Z,,,,,,,,,,,,,,,,,,,,,,,,,,,,,,,,,,,,,,,,,,,,,,,,,,,,,,,,,,,,,,,,,,,,,,,,,,,,,,,,,,,,,,,,,,,,,
,,,,,,,,,,5db1db20830742000a4470b4,40,Mężczyzna,2022-06-04_08h10.29.474,task,2021.1.4,Win32,58.99705015,628b806c463b948bc644b84f,629af728871db084a5397aaa,,,,,4,0,4,0,1,X V Q F H G B L J M P D K C T S W R N Z,,,,,,,,,,,,,,,,,,,,,,,,,,,,,,,,,,,,,,,,,,,,,,,,,,,,,,,,,,,,,,,,,,,,,,,,,,,,,,,,,,,,,,,,,,,,,
,,,,,,,,,,5db1db20830742000a4470b4,40,Mężczyzna,2022-06-04_08h10.29.474,task,2021.1.4,Win32,58.99705015,628b806c463b948bc644b84f,629af728871db084a5397aaa,,,,,,,,,,,jjhtw,"[""j"",""j"",""h"",""t"",""w""]","[1.8184000000059655,2.10450000000003,2.712000000000046,3.0387000000030184,3.8027999999970348,7.268200000002992]",1,JJHTW,6,0,6,0,1,,,,,,,,,,,,,,,,,,,,,,,,,,,,,,,,,,,,,,,,,,,,,,,,,,,,,,,,,,,,,,,,,,,,,,,,,,,,,,,,,,,
,,,,,,,,,,5db1db20830742000a4470b4,40,Mężczyzna,2022-06-04_08h10.29.474,task,2021.1.4,Win32,58.99705015,628b806c463b948bc644b84f,629af728871db084a5397aaa,,,,,0,0,0,0,1,X V Q F H G B L J M P D K C T S W R N Z,,,,,,,,,,,,,,,,,,,,,,,,,,,,,,,,,,,,,,,,,,,,,,,,,,,,,,,,,,,,,,,,,,,,,,,,,,,,,,,,,,,,,,,,,,,,,
,,,,,,,,,,5db1db20830742000a4470b4,40,Mężczyzna,2022-06-04_08h10.29.474,task,2021.1.4,Win32,58.99705015,628b806c463b948bc644b84f,629af728871db084a5397aaa,,,,,1,0,1,0,1,X V Q F H G B L J M P D K C T S W R N Z,,,,,,,,,,,,,,,,,,,,,,,,,,,,,,,,,,,,,,,,,,,,,,,,,,,,,,,,,,,,,,,,,,,,,,,,,,,,,,,,,,,,,,,,,,,,,
,,,,,,,,,,5db1db20830742000a4470b4,40,Mężczyzna,2022-06-04_08h10.29.474,task,2021.1.4,Win32,58.99705015,628b806c463b948bc644b84f,629af728871db084a5397aaa,,,,,2,0,2,0,1,X V Q F H G B L J M P D K C T S W R N Z,,,,,,,,,,,,,,,,,,,,,,,,,,,,,,,,,,,,,,,,,,,,,,,,,,,,,,,,,,,,,,,,,,,,,,,,,,,,,,,,,,,,,,,,,,,,,
,,,,,,,,,,5db1db20830742000a4470b4,40,Mężczyzna,2022-06-04_08h10.29.474,task,2021.1.4,Win32,58.99705015,628b806c463b948bc644b84f,629af728871db084a5397aaa,,,,,3,0,3,0,1,X V Q F H G B L J M P D K C T S W R N Z,,,,,,,,,,,,,,,,,,,,,,,,,,,,,,,,,,,,,,,,,,,,,,,,,,,,,,,,,,,,,,,,,,,,,,,,,,,,,,,,,,,,,,,,,,,,,
,,,,,,,,,,5db1db20830742000a4470b4,40,Mężczyzna,2022-06-04_08h10.29.474,task,2021.1.4,Win32,58.99705015,628b806c463b948bc644b84f,629af728871db084a5397aaa,,,,,4,0,4,0,1,X V Q F H G B L J M P D K C T S W R N Z,,,,,,,,,,,,,,,,,,,,,,,,,,,,,,,,,,,,,,,,,,,,,,,,,,,,,,,,,,,,,,,,,,,,,,,,,,,,,,,,,,,,,,,,,,,,,
,,,,,,,,,,5db1db20830742000a4470b4,40,Mężczyzna,2022-06-04_08h10.29.474,task,2021.1.4,Win32,58.99705015,628b806c463b948bc644b84f,629af728871db084a5397aaa,,,,,,,,,,,lzvxp,"[""l"",""z"",""v"",""x"",""p""]","[1.927000000000021,2.5269000000059805,3.6681000000089625,6.100600000008967,6.750200000003019,10.119000000000028]",1,LZVXP,7,0,7,0,1,,,,,,,,,,,,,,,,,,,,,,,,,,,,,,,,,,,,,,,,,,,,,,,,,,,,,,,,,,,,,,,,,,,,,,,,,,,,,,,,,,,
,,,,,,,,,,5db1db20830742000a4470b4,40,Mężczyzna,2022-06-04_08h10.29.474,task,2021.1.4,Win32,58.99705015,628b806c463b948bc644b84f,629af728871db084a5397aaa,,,,,0,0,0,0,1,X V Q F H G B L J M P D K C T S W R N Z,,,,,,,,,,,,,,,,,,,,,,,,,,,,,,,,,,,,,,,,,,,,,,,,,,,,,,,,,,,,,,,,,,,,,,,,,,,,,,,,,,,,,,,,,,,,,
,,,,,,,,,,5db1db20830742000a4470b4,40,Mężczyzna,2022-06-04_08h10.29.474,task,2021.1.4,Win32,58.99705015,628b806c463b948bc644b84f,629af728871db084a5397aaa,,,,,1,0,1,0,1,X V Q F H G B L J M P D K C T S W R N Z,,,,,,,,,,,,,,,,,,,,,,,,,,,,,,,,,,,,,,,,,,,,,,,,,,,,,,,,,,,,,,,,,,,,,,,,,,,,,,,,,,,,,,,,,,,,,
,,,,,,,,,,5db1db20830742000a4470b4,40,Mężczyzna,2022-06-04_08h10.29.474,task,2021.1.4,Win32,58.99705015,628b806c463b948bc644b84f,629af728871db084a5397aaa,,,,,2,0,2,0,1,X V Q F H G B L J M P D K C T S W R N Z,,,,,,,,,,,,,,,,,,,,,,,,,,,,,,,,,,,,,,,,,,,,,,,,,,,,,,,,,,,,,,,,,,,,,,,,,,,,,,,,,,,,,,,,,,,,,
,,,,,,,,,,5db1db20830742000a4470b4,40,Mężczyzna,2022-06-04_08h10.29.474,task,2021.1.4,Win32,58.99705015,628b806c463b948bc644b84f,629af728871db084a5397aaa,,,,,3,0,3,0,1,X V Q F H G B L J M P D K C T S W R N Z,,,,,,,,,,,,,,,,,,,,,,,,,,,,,,,,,,,,,,,,,,,,,,,,,,,,,,,,,,,,,,,,,,,,,,,,,,,,,,,,,,,,,,,,,,,,,
,,,,,,,,,,5db1db20830742000a4470b4,40,Mężczyzna,2022-06-04_08h10.29.474,task,2021.1.4,Win32,58.99705015,628b806c463b948bc644b84f,629af728871db084a5397aaa,,,,,4,0,4,0,1,X V Q F H G B L J M P D K C T S W R N Z,,,,,,,,,,,,,,,,,,,,,,,,,,,,,,,,,,,,,,,,,,,,,,,,,,,,,,,,,,,,,,,,,,,,,,,,,,,,,,,,,,,,,,,,,,,,,
,,,,,,,,,,5db1db20830742000a4470b4,40,Mężczyzna,2022-06-04_08h10.29.474,task,2021.1.4,Win32,58.99705015,628b806c463b948bc644b84f,629af728871db084a5397aaa,,,,,5,0,5,0,1,X V Q F H G B L J M P D K C T S W R N Z,,,,,,,,,,,,,,,,,,,,,,,,,,,,,,,,,,,,,,,,,,,,,,,,,,,,,,,,,,,,,,,,,,,,,,,,,,,,,,,,,,,,,,,,,,,,,
,,,,,,,,,,5db1db20830742000a4470b4,40,Mężczyzna,2022-06-04_08h10.29.474,task,2021.1.4,Win32,58.99705015,628b806c463b948bc644b84f,629af728871db084a5397aaa,,,,,,,,,,,tkktzw,"[""t"",""k"",""k"",""t"",""z"",""w""]","[2.664700000002995,3.433499999999981,3.7354000000059386,4.681700000002991,5.0330000000000155,5.352299999997001,8.316599999994025]",1,TKKTZW,8,0,8,0,1,,,,,,,,,,,,,,,,,,,,,,,,,,,,,,,,,,,,,,,,,,,,,,,,,,,,,,,,,,,,,,,,,,,,,,,,,,,,,,,,,,,
,,,,,,,,,,5db1db20830742000a4470b4,40,Mężczyzna,2022-06-04_08h10.29.474,task,2021.1.4,Win32,58.99705015,628b806c463b948bc644b84f,629af728871db084a5397aaa,,,,,0,0,0,0,1,X V Q F H G B L J M P D K C T S W R N Z,,,,,,,,,,,,,,,,,,,,,,,,,,,,,,,,,,,,,,,,,,,,,,,,,,,,,,,,,,,,,,,,,,,,,,,,,,,,,,,,,,,,,,,,,,,,,
,,,,,,,,,,5db1db20830742000a4470b4,40,Mężczyzna,2022-06-04_08h10.29.474,task,2021.1.4,Win32,58.99705015,628b806c463b948bc644b84f,629af728871db084a5397aaa,,,,,1,0,1,0,1,X V Q F H G B L J M P D K C T S W R N Z,,,,,,,,,,,,,,,,,,,,,,,,,,,,,,,,,,,,,,,,,,,,,,,,,,,,,,,,,,,,,,,,,,,,,,,,,,,,,,,,,,,,,,,,,,,,,
,,,,,,,,,,5db1db20830742000a4470b4,40,Mężczyzna,2022-06-04_08h10.29.474,task,2021.1.4,Win32,58.99705015,628b806c463b948bc644b84f,629af728871db084a5397aaa,,,,,2,0,2,0,1,X V Q F H G B L J M P D K C T S W R N Z,,,,,,,,,,,,,,,,,,,,,,,,,,,,,,,,,,,,,,,,,,,,,,,,,,,,,,,,,,,,,,,,,,,,,,,,,,,,,,,,,,,,,,,,,,,,,
,,,,,,,,,,5db1db20830742000a4470b4,40,Mężczyzna,2022-06-04_08h10.29.474,task,2021.1.4,Win32,58.99705015,628b806c463b948bc644b84f,629af728871db084a5397aaa,,,,,3,0,3,0,1,X V Q F H G B L J M P D K C T S W R N Z,,,,,,,,,,,,,,,,,,,,,,,,,,,,,,,,,,,,,,,,,,,,,,,,,,,,,,,,,,,,,,,,,,,,,,,,,,,,,,,,,,,,,,,,,,,,,
,,,,,,,,,,5db1db20830742000a4470b4,40,Mężczyzna,2022-06-04_08h10.29.474,task,2021.1.4,Win32,58.99705015,628b806c463b948bc644b84f,629af728871db084a5397aaa,,,,,4,0,4,0,1,X V Q F H G B L J M P D K C T S W R N Z,,,,,,,,,,,,,,,,,,,,,,,,,,,,,,,,,,,,,,,,,,,,,,,,,,,,,,,,,,,,,,,,,,,,,,,,,,,,,,,,,,,,,,,,,,,,,
,,,,,,,,,,5db1db20830742000a4470b4,40,Mężczyzna,2022-06-04_08h10.29.474,task,2021.1.4,Win32,58.99705015,628b806c463b948bc644b84f,629af728871db084a5397aaa,,,,,5,0,5,0,1,X V Q F H G B L J M P D K C T S W R N Z,,,,,,,,,,,,,,,,,,,,,,,,,,,,,,,,,,,,,,,,,,,,,,,,,,,,,,,,,,,,,,,,,,,,,,,,,,,,,,,,,,,,,,,,,,,,,
,,,,,,,,,,5db1db20830742000a4470b4,40,Mężczyzna,2022-06-04_08h10.29.474,task,2021.1.4,Win32,58.99705015,628b806c463b948bc644b84f,629af728871db084a5397aaa,,,,,,,,,,,ntfcns,"[""n"",""t"",""f"",""c"",""n"",""s""]","[4.61759999999407,5.297599999994077,5.629399999991051,7.240099999994072,7.488700000003007,7.956099999994024,9.93659999999403]",1,NTFCNS,9,0,9,0,1,,,,,,,,,,,,,,,,,,,,,,,,,,,,,,,,,,,,,,,,,,,,,,,,,,,,,,,,,,,,,,,,,,,,,,,,,,,,,,,,,,,
,,,,,,,,,,5db1db20830742000a4470b4,40,Mężczyzna,2022-06-04_08h10.29.474,task,2021.1.4,Win32,58.99705015,628b806c463b948bc644b84f,629af728871db084a5397aaa,,,,,0,0,0,0,1,X V Q F H G B L J M P D K C T S W R N Z,,,,,,,,,,,,,,,,,,,,,,,,,,,,,,,,,,,,,,,,,,,,,,,,,,,,,,,,,,,,,,,,,,,,,,,,,,,,,,,,,,,,,,,,,,,,,
,,,,,,,,,,5db1db20830742000a4470b4,40,Mężczyzna,2022-06-04_08h10.29.474,task,2021.1.4,Win32,58.99705015,628b806c463b948bc644b84f,629af728871db084a5397aaa,,,,,1,0,1,0,1,X V Q F H G B L J M P D K C T S W R N Z,,,,,,,,,,,,,,,,,,,,,,,,,,,,,,,,,,,,,,,,,,,,,,,,,,,,,,,,,,,,,,,,,,,,,,,,,,,,,,,,,,,,,,,,,,,,,
,,,,,,,,,,5db1db20830742000a4470b4,40,Mężczyzna,2022-06-04_08h10.29.474,task,2021.1.4,Win32,58.99705015,628b806c463b948bc644b84f,629af728871db084a5397aaa,,,,,2,0,2,0,1,X V Q F H G B L J M P D K C T S W R N Z,,,,,,,,,,,,,,,,,,,,,,,,,,,,,,,,,,,,,,,,,,,,,,,,,,,,,,,,,,,,,,,,,,,,,,,,,,,,,,,,,,,,,,,,,,,,,
,,,,,,,,,,5db1db20830742000a4470b4,40,Mężczyzna,2022-06-04_08h10.29.474,task,2021.1.4,Win32,58.99705015,628b806c463b948bc644b84f,629af728871db084a5397aaa,,,,,3,0,3,0,1,X V Q F H G B L J M P D K C T S W R N Z,,,,,,,,,,,,,,,,,,,,,,,,,,,,,,,,,,,,,,,,,,,,,,,,,,,,,,,,,,,,,,,,,,,,,,,,,,,,,,,,,,,,,,,,,,,,,
,,,,,,,,,,5db1db20830742000a4470b4,40,Mężczyzna,2022-06-04_08h10.29.474,task,2021.1.4,Win32,58.99705015,628b806c463b948bc644b84f,629af728871db084a5397aaa,,,,,4,0,4,0,1,X V Q F H G B L J M P D K C T S W R N Z,,,,,,,,,,,,,,,,,,,,,,,,,,,,,,,,,,,,,,,,,,,,,,,,,,,,,,,,,,,,,,,,,,,,,,,,,,,,,,,,,,,,,,,,,,,,,
,,,,,,,,,,5db1db20830742000a4470b4,40,Mężczyzna,2022-06-04_08h10.29.474,task,2021.1.4,Win32,58.99705015,628b806c463b948bc644b84f,629af728871db084a5397aaa,,,,,5,0,5,0,1,X V Q F H G B L J M P D K C T S W R N Z,,,,,,,,,,,,,,,,,,,,,,,,,,,,,,,,,,,,,,,,,,,,,,,,,,,,,,,,,,,,,,,,,,,,,,,,,,,,,,,,,,,,,,,,,,,,,
,,,,,,,,,,5db1db20830742000a4470b4,40,Mężczyzna,2022-06-04_08h10.29.474,task,2021.1.4,Win32,58.99705015,628b806c463b948bc644b84f,629af728871db084a5397aaa,,,,,6,0,6,0,1,X V Q F H G B L J M P D K C T S W R N Z,,,,,,,,,,,,,,,,,,,,,,,,,,,,,,,,,,,,,,,,,,,,,,,,,,,,,,,,,,,,,,,,,,,,,,,,,,,,,,,,,,,,,,,,,,,,,
,,,,,,,,,,5db1db20830742000a4470b4,40,Mężczyzna,2022-06-04_08h10.29.474,task,2021.1.4,Win32,58.99705015,628b806c463b948bc644b84f,629af728871db084a5397aaa,,,,,,,,,,,gmdgxm,"[""g"",""m"",""d"",""g"",""x"",""m""]","[3.130700000002946,3.797700000002976,4.263999999999953,6.452499999999986,7.097599999994031,7.447700000002953,9.61479999999699]",0,GMDGXXM,10,0,10,0,1,,,,,,,,,,,,,,,,,,,,,,,,,,,,,,,,,,,,,,,,,,,,,,,,,,,,,,,,,,,,,,,,,,,,,,,,,,,,,,,,,,,
,,,,,,,,,,5db1db20830742000a4470b4,40,Mężczyzna,2022-06-04_08h10.29.474,task,2021.1.4,Win32,58.99705015,628b806c463b948bc644b84f,629af728871db084a5397aaa,,,,,0,0,0,0,1,X V Q F H G B L J M P D K C T S W R N Z,,,,,,,,,,,,,,,,,,,,,,,,,,,,,,,,,,,,,,,,,,,,,,,,,,,,,,,,,,,,,,,,,,,,,,,,,,,,,,,,,,,,,,,,,,,,,
,,,,,,,,,,5db1db20830742000a4470b4,40,Mężczyzna,2022-06-04_08h10.29.474,task,2021.1.4,Win32,58.99705015,628b806c463b948bc644b84f,629af728871db084a5397aaa,,,,,1,0,1,0,1,X V Q F H G B L J M P D K C T S W R N Z,,,,,,,,,,,,,,,,,,,,,,,,,,,,,,,,,,,,,,,,,,,,,,,,,,,,,,,,,,,,,,,,,,,,,,,,,,,,,,,,,,,,,,,,,,,,,
,,,,,,,,,,5db1db20830742000a4470b4,40,Mężczyzna,2022-06-04_08h10.29.474,task,2021.1.4,Win32,58.99705015,628b806c463b948bc644b84f,629af728871db084a5397aaa,,,,,2,0,2,0,1,X V Q F H G B L J M P D K C T S W R N Z,,,,,,,,,,,,,,,,,,,,,,,,,,,,,,,,,,,,,,,,,,,,,,,,,,,,,,,,,,,,,,,,,,,,,,,,,,,,,,,,,,,,,,,,,,,,,
,,,,,,,,,,5db1db20830742000a4470b4,40,Mężczyzna,2022-06-04_08h10.29.474,task,2021.1.4,Win32,58.99705015,628b806c463b948bc644b84f,629af728871db084a5397aaa,,,,,3,0,3,0,1,X V Q F H G B L J M P D K C T S W R N Z,,,,,,,,,,,,,,,,,,,,,,,,,,,,,,,,,,,,,,,,,,,,,,,,,,,,,,,,,,,,,,,,,,,,,,,,,,,,,,,,,,,,,,,,,,,,,
,,,,,,,,,,5db1db20830742000a4470b4,40,Mężczyzna,2022-06-04_08h10.29.474,task,2021.1.4,Win32,58.99705015,628b806c463b948bc644b84f,629af728871db084a5397aaa,,,,,4,0,4,0,1,X V Q F H G B L J M P D K C T S W R N Z,,,,,,,,,,,,,,,,,,,,,,,,,,,,,,,,,,,,,,,,,,,,,,,,,,,,,,,,,,,,,,,,,,,,,,,,,,,,,,,,,,,,,,,,,,,,,
,,,,,,,,,,5db1db20830742000a4470b4,40,Mężczyzna,2022-06-04_08h10.29.474,task,2021.1.4,Win32,58.99705015,628b806c463b948bc644b84f,629af728871db084a5397aaa,,,,,5,0,5,0,1,X V Q F H G B L J M P D K C T S W R N Z,,,,,,,,,,,,,,,,,,,,,,,,,,,,,,,,,,,,,,,,,,,,,,,,,,,,,,,,,,,,,,,,,,,,,,,,,,,,,,,,,,,,,,,,,,,,,
,,,,,,,,,,5db1db20830742000a4470b4,40,Mężczyzna,2022-06-04_08h10.29.474,task,2021.1.4,Win32,58.99705015,628b806c463b948bc644b84f,629af728871db084a5397aaa,,,,,6,0,6,0,1,X V Q F H G B L J M P D K C T S W R N Z,,,,,,,,,,,,,,,,,,,,,,,,,,,,,,,,,,,,,,,,,,,,,,,,,,,,,,,,,,,,,,,,,,,,,,,,,,,,,,,,,,,,,,,,,,,,,
,,,,,,,,,,5db1db20830742000a4470b4,40,Mężczyzna,2022-06-04_08h10.29.474,task,2021.1.4,Win32,58.99705015,628b806c463b948bc644b84f,629af728871db084a5397aaa,,,,,,,,,,,mptmtvj,"[""m"",""p"",""t"",""m"",""t"",""v"",""j""]","[3.767499999999984,4.268299999996998,4.783200000002978,7.127999999999986,8.00160000000892,8.806799999996997,9.430600000008894,23.18690000000595]",1,MPTMTVJ,11,0,11,0,1,,,,,,,,,,,,,,,,,,,,,,,,,,,,,,,,,,,,,,,,,,,,,,,,,,,,,,,,,,,,,,,,,,,,,,,,,,,,,,,,,,,
,,,,,,,,,,5db1db20830742000a4470b4,40,Mężczyzna,2022-06-04_08h10.29.474,task,2021.1.4,Win32,58.99705015,628b806c463b948bc644b84f,629af728871db084a5397aaa,,,,,0,0,0,0,1,X V Q F H G B L J M P D K C T S W R N Z,,,,,,,,,,,,,,,,,,,,,,,,,,,,,,,,,,,,,,,,,,,,,,,,,,,,,,,,,,,,,,,,,,,,,,,,,,,,,,,,,,,,,,,,,,,,,
,,,,,,,,,,5db1db20830742000a4470b4,40,Mężczyzna,2022-06-04_08h10.29.474,task,2021.1.4,Win32,58.99705015,628b806c463b948bc644b84f,629af728871db084a5397aaa,,,,,1,0,1,0,1,X V Q F H G B L J M P D K C T S W R N Z,,,,,,,,,,,,,,,,,,,,,,,,,,,,,,,,,,,,,,,,,,,,,,,,,,,,,,,,,,,,,,,,,,,,,,,,,,,,,,,,,,,,,,,,,,,,,
,,,,,,,,,,5db1db20830742000a4470b4,40,Mężczyzna,2022-06-04_08h10.29.474,task,2021.1.4,Win32,58.99705015,628b806c463b948bc644b84f,629af728871db084a5397aaa,,,,,2,0,2,0,1,X V Q F H G B L J M P D K C T S W R N Z,,,,,,,,,,,,,,,,,,,,,,,,,,,,,,,,,,,,,,,,,,,,,,,,,,,,,,,,,,,,,,,,,,,,,,,,,,,,,,,,,,,,,,,,,,,,,
,,,,,,,,,,5db1db20830742000a4470b4,40,Mężczyzna,2022-06-04_08h10.29.474,task,2021.1.4,Win32,58.99705015,628b806c463b948bc644b84f,629af728871db084a5397aaa,,,,,3,0,3,0,1,X V Q F H G B L J M P D K C T S W R N Z,,,,,,,,,,,,,,,,,,,,,,,,,,,,,,,,,,,,,,,,,,,,,,,,,,,,,,,,,,,,,,,,,,,,,,,,,,,,,,,,,,,,,,,,,,,,,
,,,,,,,,,,5db1db20830742000a4470b4,40,Mężczyzna,2022-06-04_08h10.29.474,task,2021.1.4,Win32,58.99705015,628b806c463b948bc644b84f,629af728871db084a5397aaa,,,,,4,0,4,0,1,X V Q F H G B L J M P D K C T S W R N Z,,,,,,,,,,,,,,,,,,,,,,,,,,,,,,,,,,,,,,,,,,,,,,,,,,,,,,,,,,,,,,,,,,,,,,,,,,,,,,,,,,,,,,,,,,,,,
,,,,,,,,,,5db1db20830742000a4470b4,40,Mężczyzna,2022-06-04_08h10.29.474,task,2021.1.4,Win32,58.99705015,628b806c463b948bc644b84f,629af728871db084a5397aaa,,,,,5,0,5,0,1,X V Q F H G B L J M P D K C T S W R N Z,,,,,,,,,,,,,,,,,,,,,,,,,,,,,,,,,,,,,,,,,,,,,,,,,,,,,,,,,,,,,,,,,,,,,,,,,,,,,,,,,,,,,,,,,,,,,
,,,,,,,,,,5db1db20830742000a4470b4,40,Mężczyzna,2022-06-04_08h10.29.474,task,2021.1.4,Win32,58.99705015,628b806c463b948bc644b84f,629af728871db084a5397aaa,,,,,6,0,6,0,1,X V Q F H G B L J M P D K C T S W R N Z,,,,,,,,,,,,,,,,,,,,,,,,,,,,,,,,,,,,,,,,,,,,,,,,,,,,,,,,,,,,,,,,,,,,,,,,,,,,,,,,,,,,,,,,,,,,,
,,,,,,,,,,5db1db20830742000a4470b4,40,Mężczyzna,2022-06-04_08h10.29.474,task,2021.1.4,Win32,58.99705015,628b806c463b948bc644b84f,629af728871db084a5397aaa,,,,,,,,,,,msbxvr,"[""m"",""s"",""b"",""x"",""v"",""r""]","[3.3995999999940523,4.149899999991135,4.88609999999403,7.1881999999881145,8.488000000000056,8.97199999999998,12.102599999994027]",0,MSBXVKR,12,0,12,0,1,,,,,,,,,,,,,,,,,,,,,,,,,,,,,,,,,,,,,,,,,,,,,,,,,,,,,,,,,,,,,,,,,,,,,,,,,,,,,,,,,,,
,,,,,,,,,,5db1db20830742000a4470b4,40,Mężczyzna,2022-06-04_08h10.29.474,task,2021.1.4,Win32,58.99705015,628b806c463b948bc644b84f,629af728871db084a5397aaa,,,,,0,0,0,0,1,X V Q F H G B L J M P D K C T S W R N Z,,,,,,,,,,,,,,,,,,,,,,,,,,,,,,,,,,,,,,,,,,,,,,,,,,,,,,,,,,,,,,,,,,,,,,,,,,,,,,,,,,,,,,,,,,,,,
,,,,,,,,,,5db1db20830742000a4470b4,40,Mężczyzna,2022-06-04_08h10.29.474,task,2021.1.4,Win32,58.99705015,628b806c463b948bc644b84f,629af728871db084a5397aaa,,,,,1,0,1,0,1,X V Q F H G B L J M P D K C T S W R N Z,,,,,,,,,,,,,,,,,,,,,,,,,,,,,,,,,,,,,,,,,,,,,,,,,,,,,,,,,,,,,,,,,,,,,,,,,,,,,,,,,,,,,,,,,,,,,
,,,,,,,,,,5db1db20830742000a4470b4,40,Mężczyzna,2022-06-04_08h10.29.474,task,2021.1.4,Win32,58.99705015,628b806c463b948bc644b84f,629af728871db084a5397aaa,,,,,2,0,2,0,1,X V Q F H G B L J M P D K C T S W R N Z,,,,,,,,,,,,,,,,,,,,,,,,,,,,,,,,,,,,,,,,,,,,,,,,,,,,,,,,,,,,,,,,,,,,,,,,,,,,,,,,,,,,,,,,,,,,,
,,,,,,,,,,5db1db20830742000a4470b4,40,Mężczyzna,2022-06-04_08h10.29.474,task,2021.1.4,Win32,58.99705015,628b806c463b948bc644b84f,629af728871db084a5397aaa,,,,,3,0,3,0,1,X V Q F H G B L J M P D K C T S W R N Z,,,,,,,,,,,,,,,,,,,,,,,,,,,,,,,,,,,,,,,,,,,,,,,,,,,,,,,,,,,,,,,,,,,,,,,,,,,,,,,,,,,,,,,,,,,,,
,,,,,,,,,,5db1db20830742000a4470b4,40,Mężczyzna,2022-06-04_08h10.29.474,task,2021.1.4,Win32,58.99705015,628b806c463b948bc644b84f,629af728871db084a5397aaa,,,,,4,0,4,0,1,X V Q F H G B L J M P D K C T S W R N Z,,,,,,,,,,,,,,,,,,,,,,,,,,,,,,,,,,,,,,,,,,,,,,,,,,,,,,,,,,,,,,,,,,,,,,,,,,,,,,,,,,,,,,,,,,,,,
,,,,,,,,,,5db1db20830742000a4470b4,40,Mężczyzna,2022-06-04_08h10.29.474,task,2021.1.4,Win32,58.99705015,628b806c463b948bc644b84f,629af728871db084a5397aaa,,,,,5,0,5,0,1,X V Q F H G B L J M P D K C T S W R N Z,,,,,,,,,,,,,,,,,,,,,,,,,,,,,,,,,,,,,,,,,,,,,,,,,,,,,,,,,,,,,,,,,,,,,,,,,,,,,,,,,,,,,,,,,,,,,
,,,,,,,,,,5db1db20830742000a4470b4,40,Mężczyzna,2022-06-04_08h10.29.474,task,2021.1.4,Win32,58.99705015,628b806c463b948bc644b84f,629af728871db084a5397aaa,,,,,6,0,6,0,1,X V Q F H G B L J M P D K C T S W R N Z,,,,,,,,,,,,,,,,,,,,,,,,,,,,,,,,,,,,,,,,,,,,,,,,,,,,,,,,,,,,,,,,,,,,,,,,,,,,,,,,,,,,,,,,,,,,,
,,,,,,,,,,5db1db20830742000a4470b4,40,Mężczyzna,2022-06-04_08h10.29.474,task,2021.1.4,Win32,58.99705015,628b806c463b948bc644b84f,629af728871db084a5397aaa,,,,,,,,,,,dkkmqmz,"[""d"",""k"",""k"",""m"",""q"",""m"",""z""]","[3.2838000000118654,5.095800000011877,5.305499999999938,6.617900000005989,7.046800000011899,9.69690000000594,9.817499999999995,11.90300000000002]",1,DKKMQMZ,13,0,13,0,1,,,,,,,,,,,,,,,,,,,,,,,,,,,,,,,,,,,,,,,,,,,,,,,,,,,,,,,,,,,,,,,,,,,,,,,,,,,,,,,,,,,
,,,,,,,,,,5db1db20830742000a4470b4,40,Mężczyzna,2022-06-04_08h10.29.474,task,2021.1.4,Win32,58.99705015,628b806c463b948bc644b84f,629af728871db084a5397aaa,,,,,0,0,0,0,1,X V Q F H G B L J M P D K C T S W R N Z,,,,,,,,,,,,,,,,,,,,,,,,,,,,,,,,,,,,,,,,,,,,,,,,,,,,,,,,,,,,,,,,,,,,,,,,,,,,,,,,,,,,,,,,,,,,,
,,,,,,,,,,5db1db20830742000a4470b4,40,Mężczyzna,2022-06-04_08h10.29.474,task,2021.1.4,Win32,58.99705015,628b806c463b948bc644b84f,629af728871db084a5397aaa,,,,,1,0,1,0,1,X V Q F H G B L J M P D K C T S W R N Z,,,,,,,,,,,,,,,,,,,,,,,,,,,,,,,,,,,,,,,,,,,,,,,,,,,,,,,,,,,,,,,,,,,,,,,,,,,,,,,,,,,,,,,,,,,,,
,,,,,,,,,,5db1db20830742000a4470b4,40,Mężczyzna,2022-06-04_08h10.29.474,task,2021.1.4,Win32,58.99705015,628b806c463b948bc644b84f,629af728871db084a5397aaa,,,,,2,0,2,0,1,X V Q F H G B L J M P D K C T S W R N Z,,,,,,,,,,,,,,,,,,,,,,,,,,,,,,,,,,,,,,,,,,,,,,,,,,,,,,,,,,,,,,,,,,,,,,,,,,,,,,,,,,,,,,,,,,,,,
,,,,,,,,,,5db1db20830742000a4470b4,40,Mężczyzna,2022-06-04_08h10.29.474,task,2021.1.4,Win32,58.99705015,628b806c463b948bc644b84f,629af728871db084a5397aaa,,,,,3,0,3,0,1,X V Q F H G B L J M P D K C T S W R N Z,,,,,,,,,,,,,,,,,,,,,,,,,,,,,,,,,,,,,,,,,,,,,,,,,,,,,,,,,,,,,,,,,,,,,,,,,,,,,,,,,,,,,,,,,,,,,
,,,,,,,,,,5db1db20830742000a4470b4,40,Mężczyzna,2022-06-04_08h10.29.474,task,2021.1.4,Win32,58.99705015,628b806c463b948bc644b84f,629af728871db084a5397aaa,,,,,4,0,4,0,1,X V Q F H G B L J M P D K C T S W R N Z,,,,,,,,,,,,,,,,,,,,,,,,,,,,,,,,,,,,,,,,,,,,,,,,,,,,,,,,,,,,,,,,,,,,,,,,,,,,,,,,,,,,,,,,,,,,,
,,,,,,,,,,5db1db20830742000a4470b4,40,Mężczyzna,2022-06-04_08h10.29.474,task,2021.1.4,Win32,58.99705015,628b806c463b948bc644b84f,629af728871db084a5397aaa,,,,,5,0,5,0,1,X V Q F H G B L J M P D K C T S W R N Z,,,,,,,,,,,,,,,,,,,,,,,,,,,,,,,,,,,,,,,,,,,,,,,,,,,,,,,,,,,,,,,,,,,,,,,,,,,,,,,,,,,,,,,,,,,,,
,,,,,,,,,,5db1db20830742000a4470b4,40,Mężczyzna,2022-06-04_08h10.29.474,task,2021.1.4,Win32,58.99705015,628b806c463b948bc644b84f,629af728871db084a5397aaa,,,,,6,0,6,0,1,X V Q F H G B L J M P D K C T S W R N Z,,,,,,,,,,,,,,,,,,,,,,,,,,,,,,,,,,,,,,,,,,,,,,,,,,,,,,,,,,,,,,,,,,,,,,,,,,,,,,,,,,,,,,,,,,,,,
,,,,,,,,,,5db1db20830742000a4470b4,40,Mężczyzna,2022-06-04_08h10.29.474,task,2021.1.4,Win32,58.99705015,628b806c463b948bc644b84f,629af728871db084a5397aaa,,,,,7,0,7,0,1,X V Q F H G B L J M P D K C T S W R N Z,,,,,,,,,,,,,,,,,,,,,,,,,,,,,,,,,,,,,,,,,,,,,,,,,,,,,,,,,,,,,,,,,,,,,,,,,,,,,,,,,,,,,,,,,,,,,
,,,,,,,,,,5db1db20830742000a4470b4,40,Mężczyzna,2022-06-04_08h10.29.474,task,2021.1.4,Win32,58.99705015,628b806c463b948bc644b84f,629af728871db084a5397aaa,,,,,,,,,,,fhrhcvmk,"[""f"",""h"",""r"",""h"",""c"",""v"",""m"",""k""]","[4.550200000002974,5.405900000006,6.570200000002956,7.884100000008971,8.253799999997,10.496900000006008,11.185700000002953,12.442400000005932,15.820799999997007]",0,FHRHCVHK,14,0,14,0,1,,,,,,,,,,,,,,,,,,,,,,,,,,,,,,,,,,,,,,,,,,,,,,,,,,,,,,,,,,,,,,,,,,,,,,,,,,,,,,,,,,,
,,,,,,,,,,5db1db20830742000a4470b4,40,Mężczyzna,2022-06-04_08h10.29.474,task,2021.1.4,Win32,58.99705015,628b806c463b948bc644b84f,629af728871db084a5397aaa,,,,,0,0,0,0,1,X V Q F H G B L J M P D K C T S W R N Z,,,,,,,,,,,,,,,,,,,,,,,,,,,,,,,,,,,,,,,,,,,,,,,,,,,,,,,,,,,,,,,,,,,,,,,,,,,,,,,,,,,,,,,,,,,,,
,,,,,,,,,,5db1db20830742000a4470b4,40,Mężczyzna,2022-06-04_08h10.29.474,task,2021.1.4,Win32,58.99705015,628b806c463b948bc644b84f,629af728871db084a5397aaa,,,,,1,0,1,0,1,X V Q F H G B L J M P D K C T S W R N Z,,,,,,,,,,,,,,,,,,,,,,,,,,,,,,,,,,,,,,,,,,,,,,,,,,,,,,,,,,,,,,,,,,,,,,,,,,,,,,,,,,,,,,,,,,,,,
,,,,,,,,,,5db1db20830742000a4470b4,40,Mężczyzna,2022-06-04_08h10.29.474,task,2021.1.4,Win32,58.99705015,628b806c463b948bc644b84f,629af728871db084a5397aaa,,,,,2,0,2,0,1,X V Q F H G B L J M P D K C T S W R N Z,,,,,,,,,,,,,,,,,,,,,,,,,,,,,,,,,,,,,,,,,,,,,,,,,,,,,,,,,,,,,,,,,,,,,,,,,,,,,,,,,,,,,,,,,,,,,
,,,,,,,,,,5db1db20830742000a4470b4,40,Mężczyzna,2022-06-04_08h10.29.474,task,2021.1.4,Win32,58.99705015,628b806c463b948bc644b84f,629af728871db084a5397aaa,,,,,3,0,3,0,1,X V Q F H G B L J M P D K C T S W R N Z,,,,,,,,,,,,,,,,,,,,,,,,,,,,,,,,,,,,,,,,,,,,,,,,,,,,,,,,,,,,,,,,,,,,,,,,,,,,,,,,,,,,,,,,,,,,,
,,,,,,,,,,5db1db20830742000a4470b4,40,Mężczyzna,2022-06-04_08h10.29.474,task,2021.1.4,Win32,58.99705015,628b806c463b948bc644b84f,629af728871db084a5397aaa,,,,,4,0,4,0,1,X V Q F H G B L J M P D K C T S W R N Z,,,,,,,,,,,,,,,,,,,,,,,,,,,,,,,,,,,,,,,,,,,,,,,,,,,,,,,,,,,,,,,,,,,,,,,,,,,,,,,,,,,,,,,,,,,,,
,,,,,,,,,,5db1db20830742000a4470b4,40,Mężczyzna,2022-06-04_08h10.29.474,task,2021.1.4,Win32,58.99705015,628b806c463b948bc644b84f,629af728871db084a5397aaa,,,,,5,0,5,0,1,X V Q F H G B L J M P D K C T S W R N Z,,,,,,,,,,,,,,,,,,,,,,,,,,,,,,,,,,,,,,,,,,,,,,,,,,,,,,,,,,,,,,,,,,,,,,,,,,,,,,,,,,,,,,,,,,,,,
,,,,,,,,,,5db1db20830742000a4470b4,40,Mężczyzna,2022-06-04_08h10.29.474,task,2021.1.4,Win32,58.99705015,628b806c463b948bc644b84f,629af728871db084a5397aaa,,,,,6,0,6,0,1,X V Q F H G B L J M P D K C T S W R N Z,,,,,,,,,,,,,,,,,,,,,,,,,,,,,,,,,,,,,,,,,,,,,,,,,,,,,,,,,,,,,,,,,,,,,,,,,,,,,,,,,,,,,,,,,,,,,
,,,,,,,,,,5db1db20830742000a4470b4,40,Mężczyzna,2022-06-04_08h10.29.474,task,2021.1.4,Win32,58.99705015,628b806c463b948bc644b84f,629af728871db084a5397aaa,,,,,7,0,7,0,1,X V Q F H G B L J M P D K C T S W R N Z,,,,,,,,,,,,,,,,,,,,,,,,,,,,,,,,,,,,,,,,,,,,,,,,,,,,,,,,,,,,,,,,,,,,,,,,,,,,,,,,,,,,,,,,,,,,,
,,,,,,,,,,5db1db20830742000a4470b4,40,Mężczyzna,2022-06-04_08h10.29.474,task,2021.1.4,Win32,58.99705015,628b806c463b948bc644b84f,629af728871db084a5397aaa,,,,,,,,,,,zgdjkzh,"[""z"",""g"",""d"",""j"",""k"",""z"",""h""]","[5.353899999990972,5.599999999999909,9.628199999988055,10.100699999988024,12.537399999990953,13.62609999999404,14.364199999988045,16.68999999999994]",0,ZGBDJKZH,15,0,15,0,1,,,,,,,,,,,,,,,,,,,,,,,,,,,,,,,,,,,,,,,,,,,,,,,,,,,,,,,,,,,,,,,,,,,,,,,,,,,,,,,,,,,
,,,,,,,,,,5db1db20830742000a4470b4,40,Mężczyzna,2022-06-04_08h10.29.474,task,2021.1.4,Win32,58.99705015,628b806c463b948bc644b84f,629af728871db084a5397aaa,,,,,0,0,0,0,1,X V Q F H G B L J M P D K C T S W R N Z,,,,,,,,,,,,,,,,,,,,,,,,,,,,,,,,,,,,,,,,,,,,,,,,,,,,,,,,,,,,,,,,,,,,,,,,,,,,,,,,,,,,,,,,,,,,,
,,,,,,,,,,5db1db20830742000a4470b4,40,Mężczyzna,2022-06-04_08h10.29.474,task,2021.1.4,Win32,58.99705015,628b806c463b948bc644b84f,629af728871db084a5397aaa,,,,,1,0,1,0,1,X V Q F H G B L J M P D K C T S W R N Z,,,,,,,,,,,,,,,,,,,,,,,,,,,,,,,,,,,,,,,,,,,,,,,,,,,,,,,,,,,,,,,,,,,,,,,,,,,,,,,,,,,,,,,,,,,,,
,,,,,,,,,,5db1db20830742000a4470b4,40,Mężczyzna,2022-06-04_08h10.29.474,task,2021.1.4,Win32,58.99705015,628b806c463b948bc644b84f,629af728871db084a5397aaa,,,,,2,0,2,0,1,X V Q F H G B L J M P D K C T S W R N Z,,,,,,,,,,,,,,,,,,,,,,,,,,,,,,,,,,,,,,,,,,,,,,,,,,,,,,,,,,,,,,,,,,,,,,,,,,,,,,,,,,,,,,,,,,,,,
,,,,,,,,,,5db1db20830742000a4470b4,40,Mężczyzna,2022-06-04_08h10.29.474,task,2021.1.4,Win32,58.99705015,628b806c463b948bc644b84f,629af728871db084a5397aaa,,,,,3,0,3,0,1,X V Q F H G B L J M P D K C T S W R N Z,,,,,,,,,,,,,,,,,,,,,,,,,,,,,,,,,,,,,,,,,,,,,,,,,,,,,,,,,,,,,,,,,,,,,,,,,,,,,,,,,,,,,,,,,,,,,
,,,,,,,,,,5db1db20830742000a4470b4,40,Mężczyzna,2022-06-04_08h10.29.474,task,2021.1.4,Win32,58.99705015,628b806c463b948bc644b84f,629af728871db084a5397aaa,,,,,4,0,4,0,1,X V Q F H G B L J M P D K C T S W R N Z,,,,,,,,,,,,,,,,,,,,,,,,,,,,,,,,,,,,,,,,,,,,,,,,,,,,,,,,,,,,,,,,,,,,,,,,,,,,,,,,,,,,,,,,,,,,,
,,,,,,,,,,5db1db20830742000a4470b4,40,Mężczyzna,2022-06-04_08h10.29.474,task,2021.1.4,Win32,58.99705015,628b806c463b948bc644b84f,629af728871db084a5397aaa,,,,,5,0,5,0,1,X V Q F H G B L J M P D K C T S W R N Z,,,,,,,,,,,,,,,,,,,,,,,,,,,,,,,,,,,,,,,,,,,,,,,,,,,,,,,,,,,,,,,,,,,,,,,,,,,,,,,,,,,,,,,,,,,,,
,,,,,,,,,,5db1db20830742000a4470b4,40,Mężczyzna,2022-06-04_08h10.29.474,task,2021.1.4,Win32,58.99705015,628b806c463b948bc644b84f,629af728871db084a5397aaa,,,,,6,0,6,0,1,X V Q F H G B L J M P D K C T S W R N Z,,,,,,,,,,,,,,,,,,,,,,,,,,,,,,,,,,,,,,,,,,,,,,,,,,,,,,,,,,,,,,,,,,,,,,,,,,,,,,,,,,,,,,,,,,,,,
,,,,,,,,,,5db1db20830742000a4470b4,40,Mężczyzna,2022-06-04_08h10.29.474,task,2021.1.4,Win32,58.99705015,628b806c463b948bc644b84f,629af728871db084a5397aaa,,,,,7,0,7,0,1,X V Q F H G B L J M P D K C T S W R N Z,,,,,,,,,,,,,,,,,,,,,,,,,,,,,,,,,,,,,,,,,,,,,,,,,,,,,,,,,,,,,,,,,,,,,,,,,,,,,,,,,,,,,,,,,,,,,
,,,,,,,,,,5db1db20830742000a4470b4,40,Mężczyzna,2022-06-04_08h10.29.474,task,2021.1.4,Win32,58.99705015,628b806c463b948bc644b84f,629af728871db084a5397aaa,,,,,,,,,,,mldtgmcc,"[""m"",""l"",""d"",""t"",""g"",""m"",""c"",""c""]","[5.052599999994072,5.4874999999999545,6.350000000000023,6.566700000002925,9.25089999999102,9.675099999994018,10.684200000002988,11.617799999997033,13.368099999994001]",0,MLTDGMCC,16,0,16,0,1,,,,,,,,,,,,,,,,,,,,,,,,,,,,,,,,,,,,,,,,,,,,,,,,,,,,,,,,,,,,,,,,,,,,,,,,,,,,,,,,,,,
,,,,,,,,,,5db1db20830742000a4470b4,40,Mężczyzna,2022-06-04_08h10.29.474,task,2021.1.4,Win32,58.99705015,628b806c463b948bc644b84f,629af728871db084a5397aaa,,,,,,,,,,,,,,,,,,,,,space,13.445,6,"[""6""]",1,[12.848799999997027],[12.848799999997027],0,0,0,6,1,Practice,7,(25/5) + 1,6,,,,,,,,,,,,,,,,,,,,,,,,,,,,,,,,,,,,,,,,,,,,,,,,,,,,,,,,,,,,,,,,,,,
,,,,,,,,,,5db1db20830742000a4470b4,40,Mężczyzna,2022-06-04_08h10.29.474,task,2021.1.4,Win32,58.99705015,628b806c463b948bc644b84f,629af728871db084a5397aaa,,,,,,,,,,,,,,,,,,,,,,,9,"[""9""]",1,[2.433599999994044],"[12.848799999997027,2.433599999994044]",0,1,1,9,1,Practice,10,(20/2) - 1,9,,,,,,,,,,,,,,,,,,,,,,,,,,,,,,,,,,,,,,,,,,,,,,,,,,,,,,,,,,,,,,,,,,,
,,,,,,,,,,5db1db20830742000a4470b4,40,Mężczyzna,2022-06-04_08h10.29.474,task,2021.1.4,Win32,58.99705015,628b806c463b948bc644b84f,629af728871db084a5397aaa,,,,,,,,,,,,,,,,,,,,,,,3,"[""3""]",1,[2.7699000000059186],"[12.848799999997027,2.433599999994044,2.7699000000059186]",0,2,2,3,1,Practice,4,(8/4) + 1,3,,,,,,,,,,,,,,,,,,,,,,,,,,,,,,,,,,,,,,,,,,,,,,,,,,,,,,,,,,,,,,,,,,,
,,,,,,,,,,5db1db20830742000a4470b4,40,Mężczyzna,2022-06-04_08h10.29.474,task,2021.1.4,Win32,58.99705015,628b806c463b948bc644b84f,629af728871db084a5397aaa,,,,,,,,,,,,,,,,,,,,,,,4,"[""4""]",1,[2.5312999999970316],"[12.848799999997027,2.433599999994044,2.7699000000059186,2.5312999999970316]",0,3,3,4,1,Practice,5,(2x6) - 8,4,,,,,,,,,,,,,,,,,,,,,,,,,,,,,,,,,,,,,,,,,,,,,,,,,,,,,,,,,,,,,,,,,,,
,,,,,,,,,,5db1db20830742000a4470b4,40,Mężczyzna,2022-06-04_08h10.29.474,task,2021.1.4,Win32,58.99705015,628b806c463b948bc644b84f,629af728871db084a5397aaa,,,,,,,,,,,,,,,,,,,,,,,7,"[""7""]",1,[3.9767000000030066],"[12.848799999997027,2.433599999994044,2.7699000000059186,2.5312999999970316,3.9767000000030066]",0,4,4,7,1,Practice,8,(5x5) - 18,7,,,,,,,,,,,,,,,,,,,,,,,,,,,,,,,,,,,,,,,,,,,,,,,,,,,,,,,,,,,,,,,,,,,
,,,,,,,,,,5db1db20830742000a4470b4,40,Mężczyzna,2022-06-04_08h10.29.474,task,2021.1.4,Win32,58.99705015,628b806c463b948bc644b84f,629af728871db084a5397aaa,,,,,,,,,,,,,,,,,,,,,,,0,"[""0""]",1,[3.6177999999970325],"[12.848799999997027,2.433599999994044,2.7699000000059186,2.5312999999970316,3.9767000000030066,3.6177999999970325]",0,5,5,0,1,Practice,1,(3x3) -  9,0,,,,,,,,,,,,,,,,,,,,,,,,,,,,,,,,,,,,,,,,,,,,,,,,,,,,,,,,,,,,,,,,,,,
,,,,,,,,,,5db1db20830742000a4470b4,40,Mężczyzna,2022-06-04_08h10.29.474,task,2021.1.4,Win32,58.99705015,628b806c463b948bc644b84f,629af728871db084a5397aaa,,,,,,,,,,,,,,,,,,,,,,,8,"[""8""]",1,[2.100099999994086],"[12.848799999997027,2.433599999994044,2.7699000000059186,2.5312999999970316,3.9767000000030066,3.6177999999970325,2.100099999994086]",0,6,6,8,1,Practice,9,(3x3) - 1,8,,,,,,,,,,,,,,,,,,,,,,,,,,,,,,,,,,,,,,,,,,,,,,,,,,,,,,,,,,,,,,,,,,,
,,,,,,,,,,5db1db20830742000a4470b4,40,Mężczyzna,2022-06-04_08h10.29.474,task,2021.1.4,Win32,58.99705015,628b806c463b948bc644b84f,629af728871db084a5397aaa,,,,,,,,,,,,,,,,,,,,,,,5,"[""5""]",1,[2.1539999999999964],"[12.848799999997027,2.433599999994044,2.7699000000059186,2.5312999999970316,3.9767000000030066,3.6177999999970325,2.100099999994086,2.1539999999999964]",0,7,7,5,1,Practice,6,(4/2) + 3,5,,,,,,,,,,,,,,,,,,,,,,,,,,,,,,,,,,,,,,,,,,,,,,,,,,,,,,,,,,,,,,,,,,,
,,,,,,,,,,5db1db20830742000a4470b4,40,Mężczyzna,2022-06-04_08h10.29.474,task,2021.1.4,Win32,58.99705015,628b806c463b948bc644b84f,629af728871db084a5397aaa,,,,,,,,,,,,,,,,,,,,,,,1,"[""1""]",1,[2.201400000005947],"[12.848799999997027,2.433599999994044,2.7699000000059186,2.5312999999970316,3.9767000000030066,3.6177999999970325,2.100099999994086,2.1539999999999964,2.201400000005947]",0,8,8,1,1,Practice,2,(4x4) - 15,1,,,,,,,,,,,,,,,,,,,,,,,,,,,,,,,,,,,,,,,,,,,,,,,,,,,,,,,,,,,,,,,,,,,
,,,,,,,,,,5db1db20830742000a4470b4,40,Mężczyzna,2022-06-04_08h10.29.474,task,2021.1.4,Win32,58.99705015,628b806c463b948bc644b84f,629af728871db084a5397aaa,,,,,,,,,,,,,,,,,,,,,,,2,"[""2""]",1,[2.5337999999969725],"[12.848799999997027,2.433599999994044,2.7699000000059186,2.5312999999970316,3.9767000000030066,3.6177999999970325,2.100099999994086,2.1539999999999964,2.201400000005947,2.5337999999969725]",0,9,9,2,1,Practice,3,(4x4) - 14,2,,,,,,,,,,,,,,,,,,,,,,,,,,,,,,,,,,,,,,,,,,,,,,,,,,,,,,,,,,,,,,,,,,,
,,,,,,,,,,5db1db20830742000a4470b4,40,Mężczyzna,2022-06-04_08h10.29.474,task,2021.1.4,Win32,58.99705015,628b806c463b948bc644b84f,629af728871db084a5397aaa,,,,,,,,,,,,,,,,,,,,,,,,,,,,,,,,,,,,,1,37.1674,2.477826667,111.5204564,2.726664097,9.512620036,space,3.1234,0,0,0,0,1,,,,,,,,,,,,,,,,,,,,,,,,,,,,,,,,,,,,,,,,,,,,,,,,,,,,,,
,,,,,,,,,,5db1db20830742000a4470b4,40,Mężczyzna,2022-06-04_08h10.29.474,task,2021.1.4,Win32,58.99705015,628b806c463b948bc644b84f,629af728871db084a5397aaa,,,,,,,,,,,,,,,,,,,,,,,5,,,,,,,,,,Practice,6,(4/2) + 3,5,,,,,,,,,,,,,,space,23.0883,"[""5""]",1,[2.818700000002991],1,0,0,0,5,1,,,,,,,,,,,,,,,,,,,,,,,,,,,,,,,,,,,,,,,,,,,
,,,,,,,,,,5db1db20830742000a4470b4,40,Mężczyzna,2022-06-04_08h10.29.474,task,2021.1.4,Win32,58.99705015,628b806c463b948bc644b84f,629af728871db084a5397aaa,,,,,,,,,,X V Q F H G B L J M P D K C T S W R N Z,,,,,,,,,,,,,,,,,,,,,,,,,,,,,,,,,,,,,,,,,,,,,,,,,,,0,0,0,0,1,,,,,,,,,,,,,,,,,,,,,,,,,,,,,,,,,,,,,,
,,,,,,,,,,5db1db20830742000a4470b4,40,Mężczyzna,2022-06-04_08h10.29.474,task,2021.1.4,Win32,58.99705015,628b806c463b948bc644b84f,629af728871db084a5397aaa,,,,,,,,,,,,,,,,,,,,,,,8,,,,,,,,,,Practice,9,(3x3) - 1,8,,,,,,,,,,,,,,,,"[""8""]",1,[2.9347999999970398],1,0,0,0,8,1,,,,,,,,,,,,,,,,,,,,,,,,,,,,,,,,,,,,,,,,,,,
,,,,,,,,,,5db1db20830742000a4470b4,40,Mężczyzna,2022-06-04_08h10.29.474,task,2021.1.4,Win32,58.99705015,628b806c463b948bc644b84f,629af728871db084a5397aaa,,,,,,,,,,X V Q F H G B L J M P D K C T S W R N Z,,,,,,,,,,,,,,,,,,,,,,,,,,,,,,,,,,,,,,,,,,,,,,,,,,,1,0,1,0,1,,,,,,,,,,,,,,,,,,,,,,,,,,,,,,,,,,,,,,
,,,,,,,,,,5db1db20830742000a4470b4,40,Mężczyzna,2022-06-04_08h10.29.474,task,2021.1.4,Win32,58.99705015,628b806c463b948bc644b84f,629af728871db084a5397aaa,,,,,,,,,,,,,,,,,,,,,,,,,,,,,,,,,,,,,,,,,,,,,,,,,,,,,,,,,,,,,,,,,,zs,"[""z"",""s""]",0,"[5.035700000002976,5.319300000011822,7.019600000008836]",1,0,0,0,0,1,,,,,,,,,,,,,,,,,,,,,,,,,,,,
,,,,,,,,,,5db1db20830742000a4470b4,40,Mężczyzna,2022-06-04_08h10.29.474,task,2021.1.4,Win32,58.99705015,628b806c463b948bc644b84f,629af728871db084a5397aaa,,,,,,,,,,,,,,,,,,,,,,,8,,,,,,,,,,Practice,9,(3x3) - 1,8,,,,,,,,,,,,,,,,"[""8""]",1,[2.0018999999909965],1,0,0,0,8,1,,,,,,,,,,,,,,,,,,,,,,,,,,,,,,,,,,,,,,,,,,,
,,,,,,,,,,5db1db20830742000a4470b4,40,Mężczyzna,2022-06-04_08h10.29.474,task,2021.1.4,Win32,58.99705015,628b806c463b948bc644b84f,629af728871db084a5397aaa,,,,,,,,,,X V Q F H G B L J M P D K C T S W R N Z,,,,,,,,,,,,,,,,,,,,,,,,,,,,,,,,,,,,,,,,,,,,,,,,,,,0,0,0,0,1,,,,,,,,,,,,,,,,,,,,,,,,,,,,,,,,,,,,,,
,,,,,,,,,,5db1db20830742000a4470b4,40,Mężczyzna,2022-06-04_08h10.29.474,task,2021.1.4,Win32,58.99705015,628b806c463b948bc644b84f,629af728871db084a5397aaa,,,,,,,,,,,,,,,,,,,,,,,0,,,,,,,,,,Practice,1,(3x3) -  9,0,,,,,,,,,,,,,,,,"[""0""]",1,[1.8228999999911366],1,0,0,0,0,1,,,,,,,,,,,,,,,,,,,,,,,,,,,,,,,,,,,,,,,,,,,
,,,,,,,,,,5db1db20830742000a4470b4,40,Mężczyzna,2022-06-04_08h10.29.474,task,2021.1.4,Win32,58.99705015,628b806c463b948bc644b84f,629af728871db084a5397aaa,,,,,,,,,,X V Q F H G B L J M P D K C T S W R N Z,,,,,,,,,,,,,,,,,,,,,,,,,,,,,,,,,,,,,,,,,,,,,,,,,,,1,0,1,0,1,,,,,,,,,,,,,,,,,,,,,,,,,,,,,,,,,,,,,,
,,,,,,,,,,5db1db20830742000a4470b4,40,Mężczyzna,2022-06-04_08h10.29.474,task,2021.1.4,Win32,58.99705015,628b806c463b948bc644b84f,629af728871db084a5397aaa,,,,,,,,,,,,,,,,,,,,,,,,,,,,,,,,,,,,,,,,,,,,,,,,,,,,,,,,,,,,,,,,,,wt,"[""w"",""t""]",0,"[2.4712999999969725,2.6909999999999172,3.734499999999912]",1,1,0,1,0,1,,,,,,,,,,,,,,,,,,,,,,,,,,,,
,,,,,,,,,,5db1db20830742000a4470b4,40,Mężczyzna,2022-06-04_08h10.29.474,task,2021.1.4,Win32,58.99705015,628b806c463b948bc644b84f,629af728871db084a5397aaa,,,,,,,,,,,,,,,,,,,,,,,1,,,,,,,,,,Practice,2,(4x4) - 15,1,,,,,,,,,,,,,,,,"[""1""]",1,[2.0302999999969416],1,0,0,0,1,1,,,,,,,,,,,,,,,,,,,,,,,,,,,,,,,,,,,,,,,,,,,
,,,,,,,,,,5db1db20830742000a4470b4,40,Mężczyzna,2022-06-04_08h10.29.474,task,2021.1.4,Win32,58.99705015,628b806c463b948bc644b84f,629af728871db084a5397aaa,,,,,,,,,,X V Q F H G B L J M P D K C T S W R N Z,,,,,,,,,,,,,,,,,,,,,,,,,,,,,,,,,,,,,,,,,,,,,,,,,,,0,0,0,0,1,,,,,,,,,,,,,,,,,,,,,,,,,,,,,,,,,,,,,,
,,,,,,,,,,5db1db20830742000a4470b4,40,Mężczyzna,2022-06-04_08h10.29.474,task,2021.1.4,Win32,58.99705015,628b806c463b948bc644b84f,629af728871db084a5397aaa,,,,,,,,,,,,,,,,,,,,,,,3,,,,,,,,,,Practice,4,(8/4) + 1,3,,,,,,,,,,,,,,,,"[""3""]",1,[3.319499999999948],1,0,0,0,3,1,,,,,,,,,,,,,,,,,,,,,,,,,,,,,,,,,,,,,,,,,,,
,,,,,,,,,,5db1db20830742000a4470b4,40,Mężczyzna,2022-06-04_08h10.29.474,task,2021.1.4,Win32,58.99705015,628b806c463b948bc644b84f,629af728871db084a5397aaa,,,,,,,,,,X V Q F H G B L J M P D K C T S W R N Z,,,,,,,,,,,,,,,,,,,,,,,,,,,,,,,,,,,,,,,,,,,,,,,,,,,1,0,1,0,1,,,,,,,,,,,,,,,,,,,,,,,,,,,,,,,,,,,,,,
,,,,,,,,,,5db1db20830742000a4470b4,40,Mężczyzna,2022-06-04_08h10.29.474,task,2021.1.4,Win32,58.99705015,628b806c463b948bc644b84f,629af728871db084a5397aaa,,,,,,,,,,,,,,,,,,,,,,,,,,,,,,,,,,,,,,,,,,,,,,,,,,,,,,,,,,,,,,,,,,rn,"[""r"",""n""]",0,"[4.192000000000007,4.4867000000029975,6.019300000011867]",1,2,0,2,0,1,,,,,,,,,,,,,,,,,,,,,,,,,,,,
,,,,,,,,,,5db1db20830742000a4470b4,40,Mężczyzna,2022-06-04_08h10.29.474,task,2021.1.4,Win32,58.99705015,628b806c463b948bc644b84f,629af728871db084a5397aaa,,,,,,,,,,,,,,,,,,,,,,,6,,,,,,,,,,Task,5,(2x3) + 0,6,,,,,,,,,,,,,,,,,,,1,,,,,,,,,,,,,,,,,,,,,space,12.4245,"[""6""]",1,[3.6002000000029284],0,0,0,4,1,,,,,,,,,,,,,,,,,,
,,,,,,,,,,5db1db20830742000a4470b4,40,Mężczyzna,2022-06-04_08h10.29.474,task,2021.1.4,Win32,58.99705015,628b806c463b948bc644b84f,629af728871db084a5397aaa,,,,,,,,,,X V Q F H G B L J M P D K C T S W R N Z,,,,,,,,,,,,,,,,,,,,,,,,,,,,,,,,,,,,,,,,,,,,,,,,,,,,,,,,,,,,,,,,,,,,,,,,,,,,0,0,0,0,1,,,,,,,,,,,,,
,,,,,,,,,,5db1db20830742000a4470b4,40,Mężczyzna,2022-06-04_08h10.29.474,task,2021.1.4,Win32,58.99705015,628b806c463b948bc644b84f,629af728871db084a5397aaa,,,,,,,,,,,,,,,,,,,,,,,9,,,,,,,,,,Task,40,(7x2) - 5,9,,,,,,,,,,,,,,,,,,,1,,,,,,,,,,,,,,,,,,,,,,,"[""9""]",1,[4.103299999996921],0,0,0,39,1,,,,,,,,,,,,,,,,,,
,,,,,,,,,,5db1db20830742000a4470b4,40,Mężczyzna,2022-06-04_08h10.29.474,task,2021.1.4,Win32,58.99705015,628b806c463b948bc644b84f,629af728871db084a5397aaa,,,,,,,,,,X V Q F H G B L J M P D K C T S W R N Z,,,,,,,,,,,,,,,,,,,,,,,,,,,,,,,,,,,,,,,,,,,,,,,,,,,,,,,,,,,,,,,,,,,,,,,,,,,,1,0,1,0,1,,,,,,,,,,,,,
,,,,,,,,,,5db1db20830742000a4470b4,40,Mężczyzna,2022-06-04_08h10.29.474,task,2021.1.4,Win32,58.99705015,628b806c463b948bc644b84f,629af728871db084a5397aaa,,,,,,,,,,,,,,,,,,,,,,,,,,,,,,,,,,,,,,,,,,,,,,,,,,,,,,,,,,,,,,,,,,,,,,,,,,,,,,,,,,,,,,,,,,,zq,"[""z"",""q""]",0,"[3.136899999991101,4.695399999991082,6.0968999999911375]",1,ZQ,0,0,0,0,1,,
,,,,,,,,,,5db1db20830742000a4470b4,40,Mężczyzna,2022-06-04_08h10.29.474,task,2021.1.4,Win32,58.99705015,628b806c463b948bc644b84f,629af728871db084a5397aaa,,,,,,,,,,,,,,,,,,,,,,,7,,,,,,,,,,Task,38,(4x6) - 17,7,,,,,,,,,,,,,,,,,,,1,,,,,,,,,,,,,,,,,,,,,,,"[""7""]",1,[6.031099999994126],0,0,0,37,1,,,,,,,,,,,,,,,,,,
,,,,,,,,,,5db1db20830742000a4470b4,40,Mężczyzna,2022-06-04_08h10.29.474,task,2021.1.4,Win32,58.99705015,628b806c463b948bc644b84f,629af728871db084a5397aaa,,,,,,,,,,X V Q F H G B L J M P D K C T S W R N Z,,,,,,,,,,,,,,,,,,,,,,,,,,,,,,,,,,,,,,,,,,,,,,,,,,,,,,,,,,,,,,,,,,,,,,,,,,,,0,0,0,0,1,,,,,,,,,,,,,
,,,,,,,,,,5db1db20830742000a4470b4,40,Mężczyzna,2022-06-04_08h10.29.474,task,2021.1.4,Win32,58.99705015,628b806c463b948bc644b84f,629af728871db084a5397aaa,,,,,,,,,,,,,,,,,,,,,,,6,,,,,,,,,,Task,5,(2x3) + 0,6,,,,,,,,,,,,,,,,,,,1,,,,,,,,,,,,,,,,,,,,,,,"[""6""]",1,[3.0978000000119437],0,0,0,4,1,,,,,,,,,,,,,,,,,,
,,,,,,,,,,5db1db20830742000a4470b4,40,Mężczyzna,2022-06-04_08h10.29.474,task,2021.1.4,Win32,58.99705015,628b806c463b948bc644b84f,629af728871db084a5397aaa,,,,,,,,,,X V Q F H G B L J M P D K C T S W R N Z,,,,,,,,,,,,,,,,,,,,,,,,,,,,,,,,,,,,,,,,,,,,,,,,,,,,,,,,,,,,,,,,,,,,,,,,,,,,1,0,1,0,1,,,,,,,,,,,,,
,,,,,,,,,,5db1db20830742000a4470b4,40,Mężczyzna,2022-06-04_08h10.29.474,task,2021.1.4,Win32,58.99705015,628b806c463b948bc644b84f,629af728871db084a5397aaa,,,,,,,,,,,,,,,,,,,,,,,1,,,,,,,,,,Task,34,(9/3) - 2,1,,,,,,,,,,,,,,,,,,,1,,,,,,,,,,,,,,,,,,,,,,,"[""1""]",1,[2.5889000000059923],0,0,0,33,1,,,,,,,,,,,,,,,,,,
,,,,,,,,,,5db1db20830742000a4470b4,40,Mężczyzna,2022-06-04_08h10.29.474,task,2021.1.4,Win32,58.99705015,628b806c463b948bc644b84f,629af728871db084a5397aaa,,,,,,,,,,X V Q F H G B L J M P D K C T S W R N Z,,,,,,,,,,,,,,,,,,,,,,,,,,,,,,,,,,,,,,,,,,,,,,,,,,,,,,,,,,,,,,,,,,,,,,,,,,,,2,0,2,0,1,,,,,,,,,,,,,
,,,,,,,,,,5db1db20830742000a4470b4,40,Mężczyzna,2022-06-04_08h10.29.474,task,2021.1.4,Win32,58.99705015,628b806c463b948bc644b84f,629af728871db084a5397aaa,,,,,,,,,,,,,,,,,,,,,,,,,,,,,,,,,,,,,,,,,,,,,,,,,,,,,,,,,,,,,,,,,,,,,,,,,,,,,,,,,,,,,,,,,,,mpr,"[""m"",""p"",""r""]",0,"[2.0758999999910657,2.5883999999909975,2.9547000000029584,3.7980999999939513]",1,MPR,1,0,1,0,1,,
,,,,,,,,,,5db1db20830742000a4470b4,40,Mężczyzna,2022-06-04_08h10.29.474,task,2021.1.4,Win32,58.99705015,628b806c463b948bc644b84f,629af728871db084a5397aaa,,,,,,,,,,,,,,,,,,,,,,,6,,,,,,,,,,Task,30,(6/3) + 4 ,6,,,,,,,,,,,,,,,,,,,1,,,,,,,,,,,,,,,,,,,,,,,"[""6""]",1,[3.8897000000030175],0,0,0,29,1,,,,,,,,,,,,,,,,,,
,,,,,,,,,,5db1db20830742000a4470b4,40,Mężczyzna,2022-06-04_08h10.29.474,task,2021.1.4,Win32,58.99705015,628b806c463b948bc644b84f,629af728871db084a5397aaa,,,,,,,,,,X V Q F H G B L J M P D K C T S W R N Z,,,,,,,,,,,,,,,,,,,,,,,,,,,,,,,,,,,,,,,,,,,,,,,,,,,,,,,,,,,,,,,,,,,,,,,,,,,,0,0,0,0,1,,,,,,,,,,,,,
,,,,,,,,,,5db1db20830742000a4470b4,40,Mężczyzna,2022-06-04_08h10.29.474,task,2021.1.4,Win32,58.99705015,628b806c463b948bc644b84f,629af728871db084a5397aaa,,,,,,,,,,,,,,,,,,,,,,,3,,,,,,,,,,Task,27,(3/3) + 2,3,,,,,,,,,,,,,,,,,,,1,,,,,,,,,,,,,,,,,,,,,,,"[""3""]",1,[3.04930000001184],0,0,0,26,1,,,,,,,,,,,,,,,,,,
,,,,,,,,,,5db1db20830742000a4470b4,40,Mężczyzna,2022-06-04_08h10.29.474,task,2021.1.4,Win32,58.99705015,628b806c463b948bc644b84f,629af728871db084a5397aaa,,,,,,,,,,X V Q F H G B L J M P D K C T S W R N Z,,,,,,,,,,,,,,,,,,,,,,,,,,,,,,,,,,,,,,,,,,,,,,,,,,,,,,,,,,,,,,,,,,,,,,,,,,,,1,0,1,0,1,,,,,,,,,,,,,
,,,,,,,,,,5db1db20830742000a4470b4,40,Mężczyzna,2022-06-04_08h10.29.474,task,2021.1.4,Win32,58.99705015,628b806c463b948bc644b84f,629af728871db084a5397aaa,,,,,,,,,,,,,,,,,,,,,,,2,,,,,,,,,,Task,26,(2x9) - 16,2,,,,,,,,,,,,,,,,,,,1,,,,,,,,,,,,,,,,,,,,,,,"[""2""]",1,[3.2527000000029602],0,0,0,25,1,,,,,,,,,,,,,,,,,,
,,,,,,,,,,5db1db20830742000a4470b4,40,Mężczyzna,2022-06-04_08h10.29.474,task,2021.1.4,Win32,58.99705015,628b806c463b948bc644b84f,629af728871db084a5397aaa,,,,,,,,,,X V Q F H G B L J M P D K C T S W R N Z,,,,,,,,,,,,,,,,,,,,,,,,,,,,,,,,,,,,,,,,,,,,,,,,,,,,,,,,,,,,,,,,,,,,,,,,,,,,2,0,2,0,1,,,,,,,,,,,,,
,,,,,,,,,,5db1db20830742000a4470b4,40,Mężczyzna,2022-06-04_08h10.29.474,task,2021.1.4,Win32,58.99705015,628b806c463b948bc644b84f,629af728871db084a5397aaa,,,,,,,,,,,,,,,,,,,,,,,9,,,,,,,,,,Task,7,(3x7) - 12,9,,,,,,,,,,,,,,,,,,,1,,,,,,,,,,,,,,,,,,,,,,,"[""9""]",1,[4.519700000002899],0,0,0,6,1,,,,,,,,,,,,,,,,,,
,,,,,,,,,,5db1db20830742000a4470b4,40,Mężczyzna,2022-06-04_08h10.29.474,task,2021.1.4,Win32,58.99705015,628b806c463b948bc644b84f,629af728871db084a5397aaa,,,,,,,,,,X V Q F H G B L J M P D K C T S W R N Z,,,,,,,,,,,,,,,,,,,,,,,,,,,,,,,,,,,,,,,,,,,,,,,,,,,,,,,,,,,,,,,,,,,,,,,,,,,,3,0,3,0,1,,,,,,,,,,,,,
,,,,,,,,,,5db1db20830742000a4470b4,40,Mężczyzna,2022-06-04_08h10.29.474,task,2021.1.4,Win32,58.99705015,628b806c463b948bc644b84f,629af728871db084a5397aaa,,,,,,,,,,,,,,,,,,,,,,,,,,,,,,,,,,,,,,,,,,,,,,,,,,,,,,,,,,,,,,,,,,,,,,,,,,,,,,,,,,,,,,,,,,,rpnr,"[""r"",""p"",""n"",""r""]",0,"[4.268799999996986,4.869000000000028,5.3695999999940796,5.988200000002962,8.253000000000043]",1,RPNR,2,0,2,0,1,,
,,,,,,,,,,5db1db20830742000a4470b4,40,Mężczyzna,2022-06-04_08h10.29.474,task,2021.1.4,Win32,58.99705015,628b806c463b948bc644b84f,629af728871db084a5397aaa,,,,,,,,,,,,,,,,,,,,,,,2,,,,,,,,,,Task,19,(6/2) - 1,2,,,,,,,,,,,,,,,,,,,1,,,,,,,,,,,,,,,,,,,,,,,"[""2""]",1,[2.313299999996957],0,0,0,18,1,,,,,,,,,,,,,,,,,,
,,,,,,,,,,5db1db20830742000a4470b4,40,Mężczyzna,2022-06-04_08h10.29.474,task,2021.1.4,Win32,58.99705015,628b806c463b948bc644b84f,629af728871db084a5397aaa,,,,,,,,,,X V Q F H G B L J M P D K C T S W R N Z,,,,,,,,,,,,,,,,,,,,,,,,,,,,,,,,,,,,,,,,,,,,,,,,,,,,,,,,,,,,,,,,,,,,,,,,,,,,0,0,0,0,1,,,,,,,,,,,,,
,,,,,,,,,,5db1db20830742000a4470b4,40,Mężczyzna,2022-06-04_08h10.29.474,task,2021.1.4,Win32,58.99705015,628b806c463b948bc644b84f,629af728871db084a5397aaa,,,,,,,,,,,,,,,,,,,,,,,5,,,,,,,,,,Task,36,(8/4) + 3,5,,,,,,,,,,,,,,,,,,,1,,,,,,,,,,,,,,,,,,,,,,,"[""5""]",1,[2.2518999999909965],0,0,0,35,1,,,,,,,,,,,,,,,,,,
,,,,,,,,,,5db1db20830742000a4470b4,40,Mężczyzna,2022-06-04_08h10.29.474,task,2021.1.4,Win32,58.99705015,628b806c463b948bc644b84f,629af728871db084a5397aaa,,,,,,,,,,X V Q F H G B L J M P D K C T S W R N Z,,,,,,,,,,,,,,,,,,,,,,,,,,,,,,,,,,,,,,,,,,,,,,,,,,,,,,,,,,,,,,,,,,,,,,,,,,,,1,0,1,0,1,,,,,,,,,,,,,
,,,,,,,,,,5db1db20830742000a4470b4,40,Mężczyzna,2022-06-04_08h10.29.474,task,2021.1.4,Win32,58.99705015,628b806c463b948bc644b84f,629af728871db084a5397aaa,,,,,,,,,,,,,,,,,,,,,,,5,,,,,,,,,,Task,22,(3x1) + 2,5,,,,,,,,,,,,,,,,,,,1,,,,,,,,,,,,,,,,,,,,,,,"[""5""]",1,[2.13819999998816],0,0,0,21,1,,,,,,,,,,,,,,,,,,
,,,,,,,,,,5db1db20830742000a4470b4,40,Mężczyzna,2022-06-04_08h10.29.474,task,2021.1.4,Win32,58.99705015,628b806c463b948bc644b84f,629af728871db084a5397aaa,,,,,,,,,,X V Q F H G B L J M P D K C T S W R N Z,,,,,,,,,,,,,,,,,,,,,,,,,,,,,,,,,,,,,,,,,,,,,,,,,,,,,,,,,,,,,,,,,,,,,,,,,,,,2,0,2,0,1,,,,,,,,,,,,,
,,,,,,,,,,5db1db20830742000a4470b4,40,Mężczyzna,2022-06-04_08h10.29.474,task,2021.1.4,Win32,58.99705015,628b806c463b948bc644b84f,629af728871db084a5397aaa,,,,,,,,,,,,,,,,,,,,,,,6,,,,,,,,,,Task,13,(3x4) - 6,6,,,,,,,,,,,,,,,,,,,1,,,,,,,,,,,,,,,,,,,,,,,"[""6""]",1,[2.70239999999103],0,0,0,12,1,,,,,,,,,,,,,,,,,,
,,,,,,,,,,5db1db20830742000a4470b4,40,Mężczyzna,2022-06-04_08h10.29.474,task,2021.1.4,Win32,58.99705015,628b806c463b948bc644b84f,629af728871db084a5397aaa,,,,,,,,,,X V Q F H G B L J M P D K C T S W R N Z,,,,,,,,,,,,,,,,,,,,,,,,,,,,,,,,,,,,,,,,,,,,,,,,,,,,,,,,,,,,,,,,,,,,,,,,,,,,3,0,3,0,1,,,,,,,,,,,,,
,,,,,,,,,,5db1db20830742000a4470b4,40,Mężczyzna,2022-06-04_08h10.29.474,task,2021.1.4,Win32,58.99705015,628b806c463b948bc644b84f,629af728871db084a5397aaa,,,,,,,,,,,,,,,,,,,,,,,3,,,,,,,,,,Task,35,(1x2) + 1,3,,,,,,,,,,,,,,,,,,,1,,,,,,,,,,,,,,,,,,,,,,,"[""3""]",1,[1.8485000000000582],0,0,0,34,1,,,,,,,,,,,,,,,,,,
,,,,,,,,,,5db1db20830742000a4470b4,40,Mężczyzna,2022-06-04_08h10.29.474,task,2021.1.4,Win32,58.99705015,628b806c463b948bc644b84f,629af728871db084a5397aaa,,,,,,,,,,X V Q F H G B L J M P D K C T S W R N Z,,,,,,,,,,,,,,,,,,,,,,,,,,,,,,,,,,,,,,,,,,,,,,,,,,,,,,,,,,,,,,,,,,,,,,,,,,,,4,0,4,0,1,,,,,,,,,,,,,
,,,,,,,,,,5db1db20830742000a4470b4,40,Mężczyzna,2022-06-04_08h10.29.474,task,2021.1.4,Win32,58.99705015,628b806c463b948bc644b84f,629af728871db084a5397aaa,,,,,,,,,,,,,,,,,,,,,,,,,,,,,,,,,,,,,,,,,,,,,,,,,,,,,,,,,,,,,,,,,,,,,,,,,,,,,,,,,,,,,,,,,,,khwjl,"[""k"",""h"",""w"",""j"",""l""]",0,"[3.664400000006026,4.08400000000006,4.769599999994057,5.252400000005991,6.037599999994086,9.167400000005955]",1,KHWJL,3,0,3,0,1,,
,,,,,,,,,,5db1db20830742000a4470b4,40,Mężczyzna,2022-06-04_08h10.29.474,task,2021.1.4,Win32,58.99705015,628b806c463b948bc644b84f,629af728871db084a5397aaa,,,,,,,,,,,,,,,,,,,,,,,9,,,,,,,,,,Task,7,(3x7) - 12,9,,,,,,,,,,,,,,,,,,,1,,,,,,,,,,,,,,,,,,,,,,,"[""9""]",1,[3.4567999999969743],0,0,0,6,1,,,,,,,,,,,,,,,,,,
,,,,,,,,,,5db1db20830742000a4470b4,40,Mężczyzna,2022-06-04_08h10.29.474,task,2021.1.4,Win32,58.99705015,628b806c463b948bc644b84f,629af728871db084a5397aaa,,,,,,,,,,X V Q F H G B L J M P D K C T S W R N Z,,,,,,,,,,,,,,,,,,,,,,,,,,,,,,,,,,,,,,,,,,,,,,,,,,,,,,,,,,,,,,,,,,,,,,,,,,,,0,0,0,0,1,,,,,,,,,,,,,
,,,,,,,,,,5db1db20830742000a4470b4,40,Mężczyzna,2022-06-04_08h10.29.474,task,2021.1.4,Win32,58.99705015,628b806c463b948bc644b84f,629af728871db084a5397aaa,,,,,,,,,,,,,,,,,,,,,,,2,,,,,,,,,,Task,19,(6/2) - 1,2,,,,,,,,,,,,,,,,,,,1,,,,,,,,,,,,,,,,,,,,,,,"[""2""]",1,[2.6697999999969397],0,0,0,18,1,,,,,,,,,,,,,,,,,,
,,,,,,,,,,5db1db20830742000a4470b4,40,Mężczyzna,2022-06-04_08h10.29.474,task,2021.1.4,Win32,58.99705015,628b806c463b948bc644b84f,629af728871db084a5397aaa,,,,,,,,,,X V Q F H G B L J M P D K C T S W R N Z,,,,,,,,,,,,,,,,,,,,,,,,,,,,,,,,,,,,,,,,,,,,,,,,,,,,,,,,,,,,,,,,,,,,,,,,,,,,1,0,1,0,1,,,,,,,,,,,,,
,,,,,,,,,,5db1db20830742000a4470b4,40,Mężczyzna,2022-06-04_08h10.29.474,task,2021.1.4,Win32,58.99705015,628b806c463b948bc644b84f,629af728871db084a5397aaa,,,,,,,,,,,,,,,,,,,,,,,0,,,,,,,,,,Task,25,(10/5) - 2,0,,,,,,,,,,,,,,,,,,,1,,,,,,,,,,,,,,,,,,,,,,,"[""0""]",1,[2.068600000008928],0,0,0,24,1,,,,,,,,,,,,,,,,,,
,,,,,,,,,,5db1db20830742000a4470b4,40,Mężczyzna,2022-06-04_08h10.29.474,task,2021.1.4,Win32,58.99705015,628b806c463b948bc644b84f,629af728871db084a5397aaa,,,,,,,,,,X V Q F H G B L J M P D K C T S W R N Z,,,,,,,,,,,,,,,,,,,,,,,,,,,,,,,,,,,,,,,,,,,,,,,,,,,,,,,,,,,,,,,,,,,,,,,,,,,,2,0,2,0,1,,,,,,,,,,,,,
,,,,,,,,,,5db1db20830742000a4470b4,40,Mężczyzna,2022-06-04_08h10.29.474,task,2021.1.4,Win32,58.99705015,628b806c463b948bc644b84f,629af728871db084a5397aaa,,,,,,,,,,,,,,,,,,,,,,,4,,,,,,,,,,Task,4,(1x5) - 1,4,,,,,,,,,,,,,,,,,,,1,,,,,,,,,,,,,,,,,,,,,,,"[""4""]",1,[1.7362999999969588],0,0,0,3,1,,,,,,,,,,,,,,,,,,
,,,,,,,,,,5db1db20830742000a4470b4,40,Mężczyzna,2022-06-04_08h10.29.474,task,2021.1.4,Win32,58.99705015,628b806c463b948bc644b84f,629af728871db084a5397aaa,,,,,,,,,,X V Q F H G B L J M P D K C T S W R N Z,,,,,,,,,,,,,,,,,,,,,,,,,,,,,,,,,,,,,,,,,,,,,,,,,,,,,,,,,,,,,,,,,,,,,,,,,,,,3,0,3,0,1,,,,,,,,,,,,,
,,,,,,,,,,5db1db20830742000a4470b4,40,Mężczyzna,2022-06-04_08h10.29.474,task,2021.1.4,Win32,58.99705015,628b806c463b948bc644b84f,629af728871db084a5397aaa,,,,,,,,,,,,,,,,,,,,,,,2,,,,,,,,,,Task,26,(2x9) - 16,2,,,,,,,,,,,,,,,,,,,1,,,,,,,,,,,,,,,,,,,,,,,"[""2""]",1,[2.3449999999999136],0,0,0,25,1,,,,,,,,,,,,,,,,,,
,,,,,,,,,,5db1db20830742000a4470b4,40,Mężczyzna,2022-06-04_08h10.29.474,task,2021.1.4,Win32,58.99705015,628b806c463b948bc644b84f,629af728871db084a5397aaa,,,,,,,,,,X V Q F H G B L J M P D K C T S W R N Z,,,,,,,,,,,,,,,,,,,,,,,,,,,,,,,,,,,,,,,,,,,,,,,,,,,,,,,,,,,,,,,,,,,,,,,,,,,,4,0,4,0,1,,,,,,,,,,,,,
,,,,,,,,,,5db1db20830742000a4470b4,40,Mężczyzna,2022-06-04_08h10.29.474,task,2021.1.4,Win32,58.99705015,628b806c463b948bc644b84f,629af728871db084a5397aaa,,,,,,,,,,,,,,,,,,,,,,,4,,,,,,,,,,Task,28,(2x5) - 6,4,,,,,,,,,,,,,,,,,,,1,,,,,,,,,,,,,,,,,,,,,,,"[""4""]",1,[2.4207000000029666],0,0,0,27,1,,,,,,,,,,,,,,,,,,
,,,,,,,,,,5db1db20830742000a4470b4,40,Mężczyzna,2022-06-04_08h10.29.474,task,2021.1.4,Win32,58.99705015,628b806c463b948bc644b84f,629af728871db084a5397aaa,,,,,,,,,,X V Q F H G B L J M P D K C T S W R N Z,,,,,,,,,,,,,,,,,,,,,,,,,,,,,,,,,,,,,,,,,,,,,,,,,,,,,,,,,,,,,,,,,,,,,,,,,,,,5,0,5,0,1,,,,,,,,,,,,,
,,,,,,,,,,5db1db20830742000a4470b4,40,Mężczyzna,2022-06-04_08h10.29.474,task,2021.1.4,Win32,58.99705015,628b806c463b948bc644b84f,629af728871db084a5397aaa,,,,,,,,,,,,,,,,,,,,,,,,,,,,,,,,,,,,,,,,,,,,,,,,,,,,,,,,,,,,,,,,,,,,,,,,,,,,,,,,,,,,,,,,,,,vgrfjm,"[""v"",""g"",""r"",""f"",""j"",""m""]",0,"[3.8032000000030166,4.002299999997035,4.386200000002987,6.660099999994031,6.884700000003022,7.144299999997088,10.253399999991075]",1,VGRFJM,4,0,4,0,1,,
,,,,,,,,,,5db1db20830742000a4470b4,40,Mężczyzna,2022-06-04_08h10.29.474,task,2021.1.4,Win32,58.99705015,628b806c463b948bc644b84f,629af728871db084a5397aaa,,,,,,,,,,,,,,,,,,,,,,,2,,,,,,,,,,Task,26,(2x9) - 16,2,,,,,,,,,,,,,,,,,,,1,,,,,,,,,,,,,,,,,,,,,,,"[""2""]",1,[2.2232000000029757],0,0,0,25,1,,,,,,,,,,,,,,,,,,
,,,,,,,,,,5db1db20830742000a4470b4,40,Mężczyzna,2022-06-04_08h10.29.474,task,2021.1.4,Win32,58.99705015,628b806c463b948bc644b84f,629af728871db084a5397aaa,,,,,,,,,,X V Q F H G B L J M P D K C T S W R N Z,,,,,,,,,,,,,,,,,,,,,,,,,,,,,,,,,,,,,,,,,,,,,,,,,,,,,,,,,,,,,,,,,,,,,,,,,,,,0,0,0,0,1,,,,,,,,,,,,,
,,,,,,,,,,5db1db20830742000a4470b4,40,Mężczyzna,2022-06-04_08h10.29.474,task,2021.1.4,Win32,58.99705015,628b806c463b948bc644b84f,629af728871db084a5397aaa,,,,,,,,,,,,,,,,,,,,,,,5,,,,,,,,,,Task,29,(3x8) - 19 ,5,,,,,,,,,,,,,,,,,,,1,,,,,,,,,,,,,,,,,,,,,,,"[""5""]",1,[3.1704999999999472],0,0,0,28,1,,,,,,,,,,,,,,,,,,
,,,,,,,,,,5db1db20830742000a4470b4,40,Mężczyzna,2022-06-04_08h10.29.474,task,2021.1.4,Win32,58.99705015,628b806c463b948bc644b84f,629af728871db084a5397aaa,,,,,,,,,,X V Q F H G B L J M P D K C T S W R N Z,,,,,,,,,,,,,,,,,,,,,,,,,,,,,,,,,,,,,,,,,,,,,,,,,,,,,,,,,,,,,,,,,,,,,,,,,,,,1,0,1,0,1,,,,,,,,,,,,,
,,,,,,,,,,5db1db20830742000a4470b4,40,Mężczyzna,2022-06-04_08h10.29.474,task,2021.1.4,Win32,58.99705015,628b806c463b948bc644b84f,629af728871db084a5397aaa,,,,,,,,,,,,,,,,,,,,,,,8,,,,,,,,,,Task,39,(5x3) - 7,8,,,,,,,,,,,,,,,,,,,1,,,,,,,,,,,,,,,,,,,,,,,"[""8""]",1,[2.599200000002952],0,0,0,38,1,,,,,,,,,,,,,,,,,,
,,,,,,,,,,5db1db20830742000a4470b4,40,Mężczyzna,2022-06-04_08h10.29.474,task,2021.1.4,Win32,58.99705015,628b806c463b948bc644b84f,629af728871db084a5397aaa,,,,,,,,,,X V Q F H G B L J M P D K C T S W R N Z,,,,,,,,,,,,,,,,,,,,,,,,,,,,,,,,,,,,,,,,,,,,,,,,,,,,,,,,,,,,,,,,,,,,,,,,,,,,2,0,2,0,1,,,,,,,,,,,,,
,,,,,,,,,,5db1db20830742000a4470b4,40,Mężczyzna,2022-06-04_08h10.29.474,task,2021.1.4,Win32,58.99705015,628b806c463b948bc644b84f,629af728871db084a5397aaa,,,,,,,,,,,,,,,,,,,,,,,5,,,,,,,,,,Task,22,(3x1) + 2,5,,,,,,,,,,,,,,,,,,,1,,,,,,,,,,,,,,,,,,,,,,,"[""5""]",1,[1.8847000000029084],0,0,0,21,1,,,,,,,,,,,,,,,,,,
,,,,,,,,,,5db1db20830742000a4470b4,40,Mężczyzna,2022-06-04_08h10.29.474,task,2021.1.4,Win32,58.99705015,628b806c463b948bc644b84f,629af728871db084a5397aaa,,,,,,,,,,X V Q F H G B L J M P D K C T S W R N Z,,,,,,,,,,,,,,,,,,,,,,,,,,,,,,,,,,,,,,,,,,,,,,,,,,,,,,,,,,,,,,,,,,,,,,,,,,,,3,0,3,0,1,,,,,,,,,,,,,
,,,,,,,,,,5db1db20830742000a4470b4,40,Mężczyzna,2022-06-04_08h10.29.474,task,2021.1.4,Win32,58.99705015,628b806c463b948bc644b84f,629af728871db084a5397aaa,,,,,,,,,,,,,,,,,,,,,,,4,,,,,,,,,,Task,11,(18/3) - 2,4,,,,,,,,,,,,,,,,,,,1,,,,,,,,,,,,,,,,,,,,,,,"[""4""]",1,[5.827400000005923],0,0,0,10,1,,,,,,,,,,,,,,,,,,
,,,,,,,,,,5db1db20830742000a4470b4,40,Mężczyzna,2022-06-04_08h10.29.474,task,2021.1.4,Win32,58.99705015,628b806c463b948bc644b84f,629af728871db084a5397aaa,,,,,,,,,,X V Q F H G B L J M P D K C T S W R N Z,,,,,,,,,,,,,,,,,,,,,,,,,,,,,,,,,,,,,,,,,,,,,,,,,,,,,,,,,,,,,,,,,,,,,,,,,,,,4,0,4,0,1,,,,,,,,,,,,,
,,,,,,,,,,5db1db20830742000a4470b4,40,Mężczyzna,2022-06-04_08h10.29.474,task,2021.1.4,Win32,58.99705015,628b806c463b948bc644b84f,629af728871db084a5397aaa,,,,,,,,,,,,,,,,,,,,,,,6,,,,,,,,,,Task,30,(6/3) + 4 ,6,,,,,,,,,,,,,,,,,,,1,,,,,,,,,,,,,,,,,,,,,,,"[""6""]",1,[2.1566999999880636],0,0,0,29,1,,,,,,,,,,,,,,,,,,
