key_resp_15.keys,key_resp_15.rt,key_resp_16.keys,key_resp_16.rt,key_resp_4.keys,key_resp_4.rt,next_letter.thisRepN,next_letter.thisTrialN,next_letter.thisN,next_letter.thisIndex,next_letter.ran,letter,participant,Wiek*,Płeć,date,expName,psychopyVersion,OS,frameRate,study_id,session,simple_recall,key_resp_5.keys,key_resp_5.rt,simple_recall_corr,simple_recall_corrkeys,next_level.thisRepN,next_level.thisTrialN,next_level.thisN,next_level.thisIndex,next_level.ran,key_resp_2.keys,key_resp_2.rt,digit_answer,key_resp.keys,key_resp.corr,key_resp.rt,RT_list,next_equation.thisRepN,next_equation.thisTrialN,next_equation.thisN,next_equation.thisIndex,next_equation.ran,Task,Trial,Problem,Operation_answer,processing_score,sumRT,meanRT,sumdiff,sd,RT,key_resp_3.keys,key_resp_3.rt,repeat_practice.thisRepN,repeat_practice.thisTrialN,repeat_practice.thisN,repeat_practice.thisIndex,repeat_practice.ran,key_resp_6.keys,key_resp_6.rt,key_resp_11.keys,key_resp_11.corr,key_resp_11.rt,operation_correct,repeat_if_wrong_prac.thisRepN,repeat_if_wrong_prac.thisTrialN,repeat_if_wrong_prac.thisN,repeat_if_wrong_prac.thisIndex,repeat_if_wrong_prac.ran,span_size_prac.thisRepN,span_size_prac.thisTrialN,span_size_prac.thisN,span_size_prac.thisIndex,span_size_prac.ran,complex_recall_practice,key_resp_9.keys,key_resp_9.corr,key_resp_9.rt,complex_prac_corr,span_recall_prac.thisRepN,span_recall_prac.thisTrialN,span_recall_prac.thisN,span_recall_prac.thisIndex,span_recall_prac.ran,key_resp_10.keys,key_resp_10.rt,key_resp_7.keys,key_resp_7.corr,key_resp_7.rt,repeat_if_wrong.thisRepN,repeat_if_wrong.thisTrialN,repeat_if_wrong.thisN,repeat_if_wrong.thisIndex,repeat_if_wrong.ran,span_size.thisRepN,span_size.thisTrialN,span_size.thisN,span_size.thisIndex,span_size.ran,complex_recall,key_resp_8.keys,key_resp_8.corr,key_resp_8.rt,complex_recall_corr,complex_recall_corrkeys,span_recall.thisRepN,span_recall.thisTrialN,span_recall.thisN,span_recall.thisIndex,span_recall.ran,key_resp_13.keys,key_resp_13.corr,key_resp_13.rt,random_loop.thisRepN,random_loop.thisTrialN,random_loop.thisN,random_loop.thisIndex,random_loop.ran,key_resp_12.keys,key_resp_12.rt
space,74.9792,space,16.7549,space,9.3674,0,0,0,0,1,X V Q F H G B L J M P D K C T S W R N Z,5dc33f755cb36e260a5598c0,20,Mężczyzna,2022-06-11_09h08.40.462,task,2021.1.4,Linux x86_64,119.9616123,6299f149e92ead563fba08ef,62a43f58dccc56a313b11709,,,,,,,,,,,,,,,,,,,,,,,,,,,,,,,,,,,,,,,,,,,,,,,,,,,,,,,,,,,,,,,,,,,,,,,,,,,,,,,,,,,,,,,,,,,,,,,,,,,,,
,,,,,,1,0,1,0,1,X V Q F H G B L J M P D K C T S W R N Z,5dc33f755cb36e260a5598c0,20,Mężczyzna,2022-06-11_09h08.40.462,task,2021.1.4,Linux x86_64,119.9616123,6299f149e92ead563fba08ef,62a43f58dccc56a313b11709,,,,,,,,,,,,,,,,,,,,,,,,,,,,,,,,,,,,,,,,,,,,,,,,,,,,,,,,,,,,,,,,,,,,,,,,,,,,,,,,,,,,,,,,,,,,,,,,,,,,,
,,,,,,,,,,,,5dc33f755cb36e260a5598c0,20,Mężczyzna,2022-06-11_09h08.40.462,task,2021.1.4,Linux x86_64,119.9616123,6299f149e92ead563fba08ef,62a43f58dccc56a313b11709,zm,"[""z"",""m""]","[2.2936000000000547,2.6184000000000367,4.20210000000003]",1,ZM,0,0,0,0,1,,,,,,,,,,,,,,,,,,,,,,,,,,,,,,,,,,,,,,,,,,,,,,,,,,,,,,,,,,,,,,,,,,,,,,,,,,,,,,,,,,,,,,,,,,,
,,,,,,0,0,0,0,1,X V Q F H G B L J M P D K C T S W R N Z,5dc33f755cb36e260a5598c0,20,Mężczyzna,2022-06-11_09h08.40.462,task,2021.1.4,Linux x86_64,119.9616123,6299f149e92ead563fba08ef,62a43f58dccc56a313b11709,,,,,,,,,,,,,,,,,,,,,,,,,,,,,,,,,,,,,,,,,,,,,,,,,,,,,,,,,,,,,,,,,,,,,,,,,,,,,,,,,,,,,,,,,,,,,,,,,,,,,
,,,,,,1,0,1,0,1,X V Q F H G B L J M P D K C T S W R N Z,5dc33f755cb36e260a5598c0,20,Mężczyzna,2022-06-11_09h08.40.462,task,2021.1.4,Linux x86_64,119.9616123,6299f149e92ead563fba08ef,62a43f58dccc56a313b11709,,,,,,,,,,,,,,,,,,,,,,,,,,,,,,,,,,,,,,,,,,,,,,,,,,,,,,,,,,,,,,,,,,,,,,,,,,,,,,,,,,,,,,,,,,,,,,,,,,,,,
,,,,,,,,,,,,5dc33f755cb36e260a5598c0,20,Mężczyzna,2022-06-11_09h08.40.462,task,2021.1.4,Linux x86_64,119.9616123,6299f149e92ead563fba08ef,62a43f58dccc56a313b11709,kp,"[""k"",""p""]","[1.0278999999999598,1.977499999999992,2.2447999999999695]",1,KP,1,0,1,0,1,,,,,,,,,,,,,,,,,,,,,,,,,,,,,,,,,,,,,,,,,,,,,,,,,,,,,,,,,,,,,,,,,,,,,,,,,,,,,,,,,,,,,,,,,,,
,,,,,,0,0,0,0,1,X V Q F H G B L J M P D K C T S W R N Z,5dc33f755cb36e260a5598c0,20,Mężczyzna,2022-06-11_09h08.40.462,task,2021.1.4,Linux x86_64,119.9616123,6299f149e92ead563fba08ef,62a43f58dccc56a313b11709,,,,,,,,,,,,,,,,,,,,,,,,,,,,,,,,,,,,,,,,,,,,,,,,,,,,,,,,,,,,,,,,,,,,,,,,,,,,,,,,,,,,,,,,,,,,,,,,,,,,,
,,,,,,1,0,1,0,1,X V Q F H G B L J M P D K C T S W R N Z,5dc33f755cb36e260a5598c0,20,Mężczyzna,2022-06-11_09h08.40.462,task,2021.1.4,Linux x86_64,119.9616123,6299f149e92ead563fba08ef,62a43f58dccc56a313b11709,,,,,,,,,,,,,,,,,,,,,,,,,,,,,,,,,,,,,,,,,,,,,,,,,,,,,,,,,,,,,,,,,,,,,,,,,,,,,,,,,,,,,,,,,,,,,,,,,,,,,
,,,,,,2,0,2,0,1,X V Q F H G B L J M P D K C T S W R N Z,5dc33f755cb36e260a5598c0,20,Mężczyzna,2022-06-11_09h08.40.462,task,2021.1.4,Linux x86_64,119.9616123,6299f149e92ead563fba08ef,62a43f58dccc56a313b11709,,,,,,,,,,,,,,,,,,,,,,,,,,,,,,,,,,,,,,,,,,,,,,,,,,,,,,,,,,,,,,,,,,,,,,,,,,,,,,,,,,,,,,,,,,,,,,,,,,,,,
,,,,,,,,,,,,5dc33f755cb36e260a5598c0,20,Mężczyzna,2022-06-11_09h08.40.462,task,2021.1.4,Linux x86_64,119.9616123,6299f149e92ead563fba08ef,62a43f58dccc56a313b11709,rwm,"[""r"",""w"",""m""]","[1.0991000000000497,1.1970000000000027,1.3911000000000513,2.0444999999999993]",1,RWM,2,0,2,0,1,,,,,,,,,,,,,,,,,,,,,,,,,,,,,,,,,,,,,,,,,,,,,,,,,,,,,,,,,,,,,,,,,,,,,,,,,,,,,,,,,,,,,,,,,,,
,,,,,,0,0,0,0,1,X V Q F H G B L J M P D K C T S W R N Z,5dc33f755cb36e260a5598c0,20,Mężczyzna,2022-06-11_09h08.40.462,task,2021.1.4,Linux x86_64,119.9616123,6299f149e92ead563fba08ef,62a43f58dccc56a313b11709,,,,,,,,,,,,,,,,,,,,,,,,,,,,,,,,,,,,,,,,,,,,,,,,,,,,,,,,,,,,,,,,,,,,,,,,,,,,,,,,,,,,,,,,,,,,,,,,,,,,,
,,,,,,1,0,1,0,1,X V Q F H G B L J M P D K C T S W R N Z,5dc33f755cb36e260a5598c0,20,Mężczyzna,2022-06-11_09h08.40.462,task,2021.1.4,Linux x86_64,119.9616123,6299f149e92ead563fba08ef,62a43f58dccc56a313b11709,,,,,,,,,,,,,,,,,,,,,,,,,,,,,,,,,,,,,,,,,,,,,,,,,,,,,,,,,,,,,,,,,,,,,,,,,,,,,,,,,,,,,,,,,,,,,,,,,,,,,
,,,,,,2,0,2,0,1,X V Q F H G B L J M P D K C T S W R N Z,5dc33f755cb36e260a5598c0,20,Mężczyzna,2022-06-11_09h08.40.462,task,2021.1.4,Linux x86_64,119.9616123,6299f149e92ead563fba08ef,62a43f58dccc56a313b11709,,,,,,,,,,,,,,,,,,,,,,,,,,,,,,,,,,,,,,,,,,,,,,,,,,,,,,,,,,,,,,,,,,,,,,,,,,,,,,,,,,,,,,,,,,,,,,,,,,,,,
,,,,,,,,,,,,5dc33f755cb36e260a5598c0,20,Mężczyzna,2022-06-11_09h08.40.462,task,2021.1.4,Linux x86_64,119.9616123,6299f149e92ead563fba08ef,62a43f58dccc56a313b11709,bwk,"[""b"",""w"",""k""]","[2.3563000000000045,2.637400000000042,2.72829999999999,3.989100000000036]",1,BWK,3,0,3,0,1,,,,,,,,,,,,,,,,,,,,,,,,,,,,,,,,,,,,,,,,,,,,,,,,,,,,,,,,,,,,,,,,,,,,,,,,,,,,,,,,,,,,,,,,,,,
,,,,,,0,0,0,0,1,X V Q F H G B L J M P D K C T S W R N Z,5dc33f755cb36e260a5598c0,20,Mężczyzna,2022-06-11_09h08.40.462,task,2021.1.4,Linux x86_64,119.9616123,6299f149e92ead563fba08ef,62a43f58dccc56a313b11709,,,,,,,,,,,,,,,,,,,,,,,,,,,,,,,,,,,,,,,,,,,,,,,,,,,,,,,,,,,,,,,,,,,,,,,,,,,,,,,,,,,,,,,,,,,,,,,,,,,,,
,,,,,,1,0,1,0,1,X V Q F H G B L J M P D K C T S W R N Z,5dc33f755cb36e260a5598c0,20,Mężczyzna,2022-06-11_09h08.40.462,task,2021.1.4,Linux x86_64,119.9616123,6299f149e92ead563fba08ef,62a43f58dccc56a313b11709,,,,,,,,,,,,,,,,,,,,,,,,,,,,,,,,,,,,,,,,,,,,,,,,,,,,,,,,,,,,,,,,,,,,,,,,,,,,,,,,,,,,,,,,,,,,,,,,,,,,,
,,,,,,2,0,2,0,1,X V Q F H G B L J M P D K C T S W R N Z,5dc33f755cb36e260a5598c0,20,Mężczyzna,2022-06-11_09h08.40.462,task,2021.1.4,Linux x86_64,119.9616123,6299f149e92ead563fba08ef,62a43f58dccc56a313b11709,,,,,,,,,,,,,,,,,,,,,,,,,,,,,,,,,,,,,,,,,,,,,,,,,,,,,,,,,,,,,,,,,,,,,,,,,,,,,,,,,,,,,,,,,,,,,,,,,,,,,
,,,,,,3,0,3,0,1,X V Q F H G B L J M P D K C T S W R N Z,5dc33f755cb36e260a5598c0,20,Mężczyzna,2022-06-11_09h08.40.462,task,2021.1.4,Linux x86_64,119.9616123,6299f149e92ead563fba08ef,62a43f58dccc56a313b11709,,,,,,,,,,,,,,,,,,,,,,,,,,,,,,,,,,,,,,,,,,,,,,,,,,,,,,,,,,,,,,,,,,,,,,,,,,,,,,,,,,,,,,,,,,,,,,,,,,,,,
,,,,,,,,,,,,5dc33f755cb36e260a5598c0,20,Mężczyzna,2022-06-11_09h08.40.462,task,2021.1.4,Linux x86_64,119.9616123,6299f149e92ead563fba08ef,62a43f58dccc56a313b11709,vqjb,"[""v"",""q"",""j"",""b""]","[2.0774999999999864,3.202699999999993,3.7997000000000014,4.002300000000048,4.569300000000027]",1,VQJB,4,0,4,0,1,,,,,,,,,,,,,,,,,,,,,,,,,,,,,,,,,,,,,,,,,,,,,,,,,,,,,,,,,,,,,,,,,,,,,,,,,,,,,,,,,,,,,,,,,,,
,,,,,,0,0,0,0,1,X V Q F H G B L J M P D K C T S W R N Z,5dc33f755cb36e260a5598c0,20,Mężczyzna,2022-06-11_09h08.40.462,task,2021.1.4,Linux x86_64,119.9616123,6299f149e92ead563fba08ef,62a43f58dccc56a313b11709,,,,,,,,,,,,,,,,,,,,,,,,,,,,,,,,,,,,,,,,,,,,,,,,,,,,,,,,,,,,,,,,,,,,,,,,,,,,,,,,,,,,,,,,,,,,,,,,,,,,,
,,,,,,1,0,1,0,1,X V Q F H G B L J M P D K C T S W R N Z,5dc33f755cb36e260a5598c0,20,Mężczyzna,2022-06-11_09h08.40.462,task,2021.1.4,Linux x86_64,119.9616123,6299f149e92ead563fba08ef,62a43f58dccc56a313b11709,,,,,,,,,,,,,,,,,,,,,,,,,,,,,,,,,,,,,,,,,,,,,,,,,,,,,,,,,,,,,,,,,,,,,,,,,,,,,,,,,,,,,,,,,,,,,,,,,,,,,
,,,,,,2,0,2,0,1,X V Q F H G B L J M P D K C T S W R N Z,5dc33f755cb36e260a5598c0,20,Mężczyzna,2022-06-11_09h08.40.462,task,2021.1.4,Linux x86_64,119.9616123,6299f149e92ead563fba08ef,62a43f58dccc56a313b11709,,,,,,,,,,,,,,,,,,,,,,,,,,,,,,,,,,,,,,,,,,,,,,,,,,,,,,,,,,,,,,,,,,,,,,,,,,,,,,,,,,,,,,,,,,,,,,,,,,,,,
,,,,,,3,0,3,0,1,X V Q F H G B L J M P D K C T S W R N Z,5dc33f755cb36e260a5598c0,20,Mężczyzna,2022-06-11_09h08.40.462,task,2021.1.4,Linux x86_64,119.9616123,6299f149e92ead563fba08ef,62a43f58dccc56a313b11709,,,,,,,,,,,,,,,,,,,,,,,,,,,,,,,,,,,,,,,,,,,,,,,,,,,,,,,,,,,,,,,,,,,,,,,,,,,,,,,,,,,,,,,,,,,,,,,,,,,,,
,,,,,,,,,,,,5dc33f755cb36e260a5598c0,20,Mężczyzna,2022-06-11_09h08.40.462,task,2021.1.4,Linux x86_64,119.9616123,6299f149e92ead563fba08ef,62a43f58dccc56a313b11709,lclm,"[""l"",""c"",""l"",""m""]","[1.0692000000000235,1.4028000000000702,1.9609000000000378,2.1016000000000474,3.077800000000053]",1,LCLM,5,0,5,0,1,,,,,,,,,,,,,,,,,,,,,,,,,,,,,,,,,,,,,,,,,,,,,,,,,,,,,,,,,,,,,,,,,,,,,,,,,,,,,,,,,,,,,,,,,,,
,,,,,,0,0,0,0,1,X V Q F H G B L J M P D K C T S W R N Z,5dc33f755cb36e260a5598c0,20,Mężczyzna,2022-06-11_09h08.40.462,task,2021.1.4,Linux x86_64,119.9616123,6299f149e92ead563fba08ef,62a43f58dccc56a313b11709,,,,,,,,,,,,,,,,,,,,,,,,,,,,,,,,,,,,,,,,,,,,,,,,,,,,,,,,,,,,,,,,,,,,,,,,,,,,,,,,,,,,,,,,,,,,,,,,,,,,,
,,,,,,1,0,1,0,1,X V Q F H G B L J M P D K C T S W R N Z,5dc33f755cb36e260a5598c0,20,Mężczyzna,2022-06-11_09h08.40.462,task,2021.1.4,Linux x86_64,119.9616123,6299f149e92ead563fba08ef,62a43f58dccc56a313b11709,,,,,,,,,,,,,,,,,,,,,,,,,,,,,,,,,,,,,,,,,,,,,,,,,,,,,,,,,,,,,,,,,,,,,,,,,,,,,,,,,,,,,,,,,,,,,,,,,,,,,
,,,,,,2,0,2,0,1,X V Q F H G B L J M P D K C T S W R N Z,5dc33f755cb36e260a5598c0,20,Mężczyzna,2022-06-11_09h08.40.462,task,2021.1.4,Linux x86_64,119.9616123,6299f149e92ead563fba08ef,62a43f58dccc56a313b11709,,,,,,,,,,,,,,,,,,,,,,,,,,,,,,,,,,,,,,,,,,,,,,,,,,,,,,,,,,,,,,,,,,,,,,,,,,,,,,,,,,,,,,,,,,,,,,,,,,,,,
,,,,,,3,0,3,0,1,X V Q F H G B L J M P D K C T S W R N Z,5dc33f755cb36e260a5598c0,20,Mężczyzna,2022-06-11_09h08.40.462,task,2021.1.4,Linux x86_64,119.9616123,6299f149e92ead563fba08ef,62a43f58dccc56a313b11709,,,,,,,,,,,,,,,,,,,,,,,,,,,,,,,,,,,,,,,,,,,,,,,,,,,,,,,,,,,,,,,,,,,,,,,,,,,,,,,,,,,,,,,,,,,,,,,,,,,,,
,,,,,,4,0,4,0,1,X V Q F H G B L J M P D K C T S W R N Z,5dc33f755cb36e260a5598c0,20,Mężczyzna,2022-06-11_09h08.40.462,task,2021.1.4,Linux x86_64,119.9616123,6299f149e92ead563fba08ef,62a43f58dccc56a313b11709,,,,,,,,,,,,,,,,,,,,,,,,,,,,,,,,,,,,,,,,,,,,,,,,,,,,,,,,,,,,,,,,,,,,,,,,,,,,,,,,,,,,,,,,,,,,,,,,,,,,,
,,,,,,,,,,,,5dc33f755cb36e260a5598c0,20,Mężczyzna,2022-06-11_09h08.40.462,task,2021.1.4,Linux x86_64,119.9616123,6299f149e92ead563fba08ef,62a43f58dccc56a313b11709,rgnqw,"[""r"",""g"",""n"",""q"",""w""]","[1.434500000000014,2.0649999999999977,2.1890999999999963,2.793599999999998,3.877200000000016,4.449099999999987]",1,RGNQW,6,0,6,0,1,,,,,,,,,,,,,,,,,,,,,,,,,,,,,,,,,,,,,,,,,,,,,,,,,,,,,,,,,,,,,,,,,,,,,,,,,,,,,,,,,,,,,,,,,,,
,,,,,,0,0,0,0,1,X V Q F H G B L J M P D K C T S W R N Z,5dc33f755cb36e260a5598c0,20,Mężczyzna,2022-06-11_09h08.40.462,task,2021.1.4,Linux x86_64,119.9616123,6299f149e92ead563fba08ef,62a43f58dccc56a313b11709,,,,,,,,,,,,,,,,,,,,,,,,,,,,,,,,,,,,,,,,,,,,,,,,,,,,,,,,,,,,,,,,,,,,,,,,,,,,,,,,,,,,,,,,,,,,,,,,,,,,,
,,,,,,1,0,1,0,1,X V Q F H G B L J M P D K C T S W R N Z,5dc33f755cb36e260a5598c0,20,Mężczyzna,2022-06-11_09h08.40.462,task,2021.1.4,Linux x86_64,119.9616123,6299f149e92ead563fba08ef,62a43f58dccc56a313b11709,,,,,,,,,,,,,,,,,,,,,,,,,,,,,,,,,,,,,,,,,,,,,,,,,,,,,,,,,,,,,,,,,,,,,,,,,,,,,,,,,,,,,,,,,,,,,,,,,,,,,
,,,,,,2,0,2,0,1,X V Q F H G B L J M P D K C T S W R N Z,5dc33f755cb36e260a5598c0,20,Mężczyzna,2022-06-11_09h08.40.462,task,2021.1.4,Linux x86_64,119.9616123,6299f149e92ead563fba08ef,62a43f58dccc56a313b11709,,,,,,,,,,,,,,,,,,,,,,,,,,,,,,,,,,,,,,,,,,,,,,,,,,,,,,,,,,,,,,,,,,,,,,,,,,,,,,,,,,,,,,,,,,,,,,,,,,,,,
,,,,,,3,0,3,0,1,X V Q F H G B L J M P D K C T S W R N Z,5dc33f755cb36e260a5598c0,20,Mężczyzna,2022-06-11_09h08.40.462,task,2021.1.4,Linux x86_64,119.9616123,6299f149e92ead563fba08ef,62a43f58dccc56a313b11709,,,,,,,,,,,,,,,,,,,,,,,,,,,,,,,,,,,,,,,,,,,,,,,,,,,,,,,,,,,,,,,,,,,,,,,,,,,,,,,,,,,,,,,,,,,,,,,,,,,,,
,,,,,,4,0,4,0,1,X V Q F H G B L J M P D K C T S W R N Z,5dc33f755cb36e260a5598c0,20,Mężczyzna,2022-06-11_09h08.40.462,task,2021.1.4,Linux x86_64,119.9616123,6299f149e92ead563fba08ef,62a43f58dccc56a313b11709,,,,,,,,,,,,,,,,,,,,,,,,,,,,,,,,,,,,,,,,,,,,,,,,,,,,,,,,,,,,,,,,,,,,,,,,,,,,,,,,,,,,,,,,,,,,,,,,,,,,,
,,,,,,,,,,,,5dc33f755cb36e260a5598c0,20,Mężczyzna,2022-06-11_09h08.40.462,task,2021.1.4,Linux x86_64,119.9616123,6299f149e92ead563fba08ef,62a43f58dccc56a313b11709,nttcs,"[""n"",""t"",""t"",""c"",""s""]","[3.836500000000001,4.248099999999994,4.396999999999991,4.746599999999972,4.915900000000022,5.379099999999994]",0,NTCCS,7,0,7,0,1,,,,,,,,,,,,,,,,,,,,,,,,,,,,,,,,,,,,,,,,,,,,,,,,,,,,,,,,,,,,,,,,,,,,,,,,,,,,,,,,,,,,,,,,,,,
,,,,,,0,0,0,0,1,X V Q F H G B L J M P D K C T S W R N Z,5dc33f755cb36e260a5598c0,20,Mężczyzna,2022-06-11_09h08.40.462,task,2021.1.4,Linux x86_64,119.9616123,6299f149e92ead563fba08ef,62a43f58dccc56a313b11709,,,,,,,,,,,,,,,,,,,,,,,,,,,,,,,,,,,,,,,,,,,,,,,,,,,,,,,,,,,,,,,,,,,,,,,,,,,,,,,,,,,,,,,,,,,,,,,,,,,,,
,,,,,,1,0,1,0,1,X V Q F H G B L J M P D K C T S W R N Z,5dc33f755cb36e260a5598c0,20,Mężczyzna,2022-06-11_09h08.40.462,task,2021.1.4,Linux x86_64,119.9616123,6299f149e92ead563fba08ef,62a43f58dccc56a313b11709,,,,,,,,,,,,,,,,,,,,,,,,,,,,,,,,,,,,,,,,,,,,,,,,,,,,,,,,,,,,,,,,,,,,,,,,,,,,,,,,,,,,,,,,,,,,,,,,,,,,,
,,,,,,2,0,2,0,1,X V Q F H G B L J M P D K C T S W R N Z,5dc33f755cb36e260a5598c0,20,Mężczyzna,2022-06-11_09h08.40.462,task,2021.1.4,Linux x86_64,119.9616123,6299f149e92ead563fba08ef,62a43f58dccc56a313b11709,,,,,,,,,,,,,,,,,,,,,,,,,,,,,,,,,,,,,,,,,,,,,,,,,,,,,,,,,,,,,,,,,,,,,,,,,,,,,,,,,,,,,,,,,,,,,,,,,,,,,
,,,,,,3,0,3,0,1,X V Q F H G B L J M P D K C T S W R N Z,5dc33f755cb36e260a5598c0,20,Mężczyzna,2022-06-11_09h08.40.462,task,2021.1.4,Linux x86_64,119.9616123,6299f149e92ead563fba08ef,62a43f58dccc56a313b11709,,,,,,,,,,,,,,,,,,,,,,,,,,,,,,,,,,,,,,,,,,,,,,,,,,,,,,,,,,,,,,,,,,,,,,,,,,,,,,,,,,,,,,,,,,,,,,,,,,,,,
,,,,,,4,0,4,0,1,X V Q F H G B L J M P D K C T S W R N Z,5dc33f755cb36e260a5598c0,20,Mężczyzna,2022-06-11_09h08.40.462,task,2021.1.4,Linux x86_64,119.9616123,6299f149e92ead563fba08ef,62a43f58dccc56a313b11709,,,,,,,,,,,,,,,,,,,,,,,,,,,,,,,,,,,,,,,,,,,,,,,,,,,,,,,,,,,,,,,,,,,,,,,,,,,,,,,,,,,,,,,,,,,,,,,,,,,,,
,,,,,,,,,,,,5dc33f755cb36e260a5598c0,20,Mężczyzna,2022-06-11_09h08.40.462,task,2021.1.4,Linux x86_64,119.9616123,6299f149e92ead563fba08ef,62a43f58dccc56a313b11709,tbpvc,"[""t"",""b"",""p"",""v"",""c""]","[1.1619000000000312,1.4140000000000157,2.5871000000000492,2.7426000000000386,3.0740000000000123,3.8523000000000422]",1,TBPVC,8,0,8,0,1,,,,,,,,,,,,,,,,,,,,,,,,,,,,,,,,,,,,,,,,,,,,,,,,,,,,,,,,,,,,,,,,,,,,,,,,,,,,,,,,,,,,,,,,,,,
,,,,,,0,0,0,0,1,X V Q F H G B L J M P D K C T S W R N Z,5dc33f755cb36e260a5598c0,20,Mężczyzna,2022-06-11_09h08.40.462,task,2021.1.4,Linux x86_64,119.9616123,6299f149e92ead563fba08ef,62a43f58dccc56a313b11709,,,,,,,,,,,,,,,,,,,,,,,,,,,,,,,,,,,,,,,,,,,,,,,,,,,,,,,,,,,,,,,,,,,,,,,,,,,,,,,,,,,,,,,,,,,,,,,,,,,,,
,,,,,,1,0,1,0,1,X V Q F H G B L J M P D K C T S W R N Z,5dc33f755cb36e260a5598c0,20,Mężczyzna,2022-06-11_09h08.40.462,task,2021.1.4,Linux x86_64,119.9616123,6299f149e92ead563fba08ef,62a43f58dccc56a313b11709,,,,,,,,,,,,,,,,,,,,,,,,,,,,,,,,,,,,,,,,,,,,,,,,,,,,,,,,,,,,,,,,,,,,,,,,,,,,,,,,,,,,,,,,,,,,,,,,,,,,,
,,,,,,2,0,2,0,1,X V Q F H G B L J M P D K C T S W R N Z,5dc33f755cb36e260a5598c0,20,Mężczyzna,2022-06-11_09h08.40.462,task,2021.1.4,Linux x86_64,119.9616123,6299f149e92ead563fba08ef,62a43f58dccc56a313b11709,,,,,,,,,,,,,,,,,,,,,,,,,,,,,,,,,,,,,,,,,,,,,,,,,,,,,,,,,,,,,,,,,,,,,,,,,,,,,,,,,,,,,,,,,,,,,,,,,,,,,
,,,,,,3,0,3,0,1,X V Q F H G B L J M P D K C T S W R N Z,5dc33f755cb36e260a5598c0,20,Mężczyzna,2022-06-11_09h08.40.462,task,2021.1.4,Linux x86_64,119.9616123,6299f149e92ead563fba08ef,62a43f58dccc56a313b11709,,,,,,,,,,,,,,,,,,,,,,,,,,,,,,,,,,,,,,,,,,,,,,,,,,,,,,,,,,,,,,,,,,,,,,,,,,,,,,,,,,,,,,,,,,,,,,,,,,,,,
,,,,,,4,0,4,0,1,X V Q F H G B L J M P D K C T S W R N Z,5dc33f755cb36e260a5598c0,20,Mężczyzna,2022-06-11_09h08.40.462,task,2021.1.4,Linux x86_64,119.9616123,6299f149e92ead563fba08ef,62a43f58dccc56a313b11709,,,,,,,,,,,,,,,,,,,,,,,,,,,,,,,,,,,,,,,,,,,,,,,,,,,,,,,,,,,,,,,,,,,,,,,,,,,,,,,,,,,,,,,,,,,,,,,,,,,,,
,,,,,,5,0,5,0,1,X V Q F H G B L J M P D K C T S W R N Z,5dc33f755cb36e260a5598c0,20,Mężczyzna,2022-06-11_09h08.40.462,task,2021.1.4,Linux x86_64,119.9616123,6299f149e92ead563fba08ef,62a43f58dccc56a313b11709,,,,,,,,,,,,,,,,,,,,,,,,,,,,,,,,,,,,,,,,,,,,,,,,,,,,,,,,,,,,,,,,,,,,,,,,,,,,,,,,,,,,,,,,,,,,,,,,,,,,,
,,,,,,,,,,,,5dc33f755cb36e260a5598c0,20,Mężczyzna,2022-06-11_09h08.40.462,task,2021.1.4,Linux x86_64,119.9616123,6299f149e92ead563fba08ef,62a43f58dccc56a313b11709,zknjcv,"[""z"",""k"",""n"",""j"",""c"",""v""]","[2.1100999999999885,2.301799999999986,2.4950000000000045,3.1298999999999637,4.005500000000012,4.143899999999974,4.324799999999982]",1,ZKNJCV,9,0,9,0,1,,,,,,,,,,,,,,,,,,,,,,,,,,,,,,,,,,,,,,,,,,,,,,,,,,,,,,,,,,,,,,,,,,,,,,,,,,,,,,,,,,,,,,,,,,,
,,,,,,0,0,0,0,1,X V Q F H G B L J M P D K C T S W R N Z,5dc33f755cb36e260a5598c0,20,Mężczyzna,2022-06-11_09h08.40.462,task,2021.1.4,Linux x86_64,119.9616123,6299f149e92ead563fba08ef,62a43f58dccc56a313b11709,,,,,,,,,,,,,,,,,,,,,,,,,,,,,,,,,,,,,,,,,,,,,,,,,,,,,,,,,,,,,,,,,,,,,,,,,,,,,,,,,,,,,,,,,,,,,,,,,,,,,
,,,,,,1,0,1,0,1,X V Q F H G B L J M P D K C T S W R N Z,5dc33f755cb36e260a5598c0,20,Mężczyzna,2022-06-11_09h08.40.462,task,2021.1.4,Linux x86_64,119.9616123,6299f149e92ead563fba08ef,62a43f58dccc56a313b11709,,,,,,,,,,,,,,,,,,,,,,,,,,,,,,,,,,,,,,,,,,,,,,,,,,,,,,,,,,,,,,,,,,,,,,,,,,,,,,,,,,,,,,,,,,,,,,,,,,,,,
,,,,,,2,0,2,0,1,X V Q F H G B L J M P D K C T S W R N Z,5dc33f755cb36e260a5598c0,20,Mężczyzna,2022-06-11_09h08.40.462,task,2021.1.4,Linux x86_64,119.9616123,6299f149e92ead563fba08ef,62a43f58dccc56a313b11709,,,,,,,,,,,,,,,,,,,,,,,,,,,,,,,,,,,,,,,,,,,,,,,,,,,,,,,,,,,,,,,,,,,,,,,,,,,,,,,,,,,,,,,,,,,,,,,,,,,,,
,,,,,,3,0,3,0,1,X V Q F H G B L J M P D K C T S W R N Z,5dc33f755cb36e260a5598c0,20,Mężczyzna,2022-06-11_09h08.40.462,task,2021.1.4,Linux x86_64,119.9616123,6299f149e92ead563fba08ef,62a43f58dccc56a313b11709,,,,,,,,,,,,,,,,,,,,,,,,,,,,,,,,,,,,,,,,,,,,,,,,,,,,,,,,,,,,,,,,,,,,,,,,,,,,,,,,,,,,,,,,,,,,,,,,,,,,,
,,,,,,4,0,4,0,1,X V Q F H G B L J M P D K C T S W R N Z,5dc33f755cb36e260a5598c0,20,Mężczyzna,2022-06-11_09h08.40.462,task,2021.1.4,Linux x86_64,119.9616123,6299f149e92ead563fba08ef,62a43f58dccc56a313b11709,,,,,,,,,,,,,,,,,,,,,,,,,,,,,,,,,,,,,,,,,,,,,,,,,,,,,,,,,,,,,,,,,,,,,,,,,,,,,,,,,,,,,,,,,,,,,,,,,,,,,
,,,,,,5,0,5,0,1,X V Q F H G B L J M P D K C T S W R N Z,5dc33f755cb36e260a5598c0,20,Mężczyzna,2022-06-11_09h08.40.462,task,2021.1.4,Linux x86_64,119.9616123,6299f149e92ead563fba08ef,62a43f58dccc56a313b11709,,,,,,,,,,,,,,,,,,,,,,,,,,,,,,,,,,,,,,,,,,,,,,,,,,,,,,,,,,,,,,,,,,,,,,,,,,,,,,,,,,,,,,,,,,,,,,,,,,,,,
,,,,,,,,,,,,5dc33f755cb36e260a5598c0,20,Mężczyzna,2022-06-11_09h08.40.462,task,2021.1.4,Linux x86_64,119.9616123,6299f149e92ead563fba08ef,62a43f58dccc56a313b11709,rtplrl,"[""r"",""t"",""p"",""l"",""r"",""l""]","[4.568700000000007,4.993300000000033,5.168600000000026,5.748100000000022,6.334499999999991,8.186800000000034,9.153100000000023]",0,FPRLRL,10,0,10,0,1,,,,,,,,,,,,,,,,,,,,,,,,,,,,,,,,,,,,,,,,,,,,,,,,,,,,,,,,,,,,,,,,,,,,,,,,,,,,,,,,,,,,,,,,,,,
,,,,,,0,0,0,0,1,X V Q F H G B L J M P D K C T S W R N Z,5dc33f755cb36e260a5598c0,20,Mężczyzna,2022-06-11_09h08.40.462,task,2021.1.4,Linux x86_64,119.9616123,6299f149e92ead563fba08ef,62a43f58dccc56a313b11709,,,,,,,,,,,,,,,,,,,,,,,,,,,,,,,,,,,,,,,,,,,,,,,,,,,,,,,,,,,,,,,,,,,,,,,,,,,,,,,,,,,,,,,,,,,,,,,,,,,,,
,,,,,,1,0,1,0,1,X V Q F H G B L J M P D K C T S W R N Z,5dc33f755cb36e260a5598c0,20,Mężczyzna,2022-06-11_09h08.40.462,task,2021.1.4,Linux x86_64,119.9616123,6299f149e92ead563fba08ef,62a43f58dccc56a313b11709,,,,,,,,,,,,,,,,,,,,,,,,,,,,,,,,,,,,,,,,,,,,,,,,,,,,,,,,,,,,,,,,,,,,,,,,,,,,,,,,,,,,,,,,,,,,,,,,,,,,,
,,,,,,2,0,2,0,1,X V Q F H G B L J M P D K C T S W R N Z,5dc33f755cb36e260a5598c0,20,Mężczyzna,2022-06-11_09h08.40.462,task,2021.1.4,Linux x86_64,119.9616123,6299f149e92ead563fba08ef,62a43f58dccc56a313b11709,,,,,,,,,,,,,,,,,,,,,,,,,,,,,,,,,,,,,,,,,,,,,,,,,,,,,,,,,,,,,,,,,,,,,,,,,,,,,,,,,,,,,,,,,,,,,,,,,,,,,
,,,,,,3,0,3,0,1,X V Q F H G B L J M P D K C T S W R N Z,5dc33f755cb36e260a5598c0,20,Mężczyzna,2022-06-11_09h08.40.462,task,2021.1.4,Linux x86_64,119.9616123,6299f149e92ead563fba08ef,62a43f58dccc56a313b11709,,,,,,,,,,,,,,,,,,,,,,,,,,,,,,,,,,,,,,,,,,,,,,,,,,,,,,,,,,,,,,,,,,,,,,,,,,,,,,,,,,,,,,,,,,,,,,,,,,,,,
,,,,,,4,0,4,0,1,X V Q F H G B L J M P D K C T S W R N Z,5dc33f755cb36e260a5598c0,20,Mężczyzna,2022-06-11_09h08.40.462,task,2021.1.4,Linux x86_64,119.9616123,6299f149e92ead563fba08ef,62a43f58dccc56a313b11709,,,,,,,,,,,,,,,,,,,,,,,,,,,,,,,,,,,,,,,,,,,,,,,,,,,,,,,,,,,,,,,,,,,,,,,,,,,,,,,,,,,,,,,,,,,,,,,,,,,,,
,,,,,,5,0,5,0,1,X V Q F H G B L J M P D K C T S W R N Z,5dc33f755cb36e260a5598c0,20,Mężczyzna,2022-06-11_09h08.40.462,task,2021.1.4,Linux x86_64,119.9616123,6299f149e92ead563fba08ef,62a43f58dccc56a313b11709,,,,,,,,,,,,,,,,,,,,,,,,,,,,,,,,,,,,,,,,,,,,,,,,,,,,,,,,,,,,,,,,,,,,,,,,,,,,,,,,,,,,,,,,,,,,,,,,,,,,,
,,,,,,,,,,,,5dc33f755cb36e260a5598c0,20,Mężczyzna,2022-06-11_09h08.40.462,task,2021.1.4,Linux x86_64,119.9616123,6299f149e92ead563fba08ef,62a43f58dccc56a313b11709,ztxdzz,"[""z"",""t"",""x"",""d"",""z"",""z""]","[2.5428999999999746,2.8158999999999708,3.109499999999997,3.9403000000000077,4.3355999999999995,4.493899999999968,5.0190000000000055]",0,GCXDDZ,11,0,11,0,1,,,,,,,,,,,,,,,,,,,,,,,,,,,,,,,,,,,,,,,,,,,,,,,,,,,,,,,,,,,,,,,,,,,,,,,,,,,,,,,,,,,,,,,,,,,
,,,,,,0,0,0,0,1,X V Q F H G B L J M P D K C T S W R N Z,5dc33f755cb36e260a5598c0,20,Mężczyzna,2022-06-11_09h08.40.462,task,2021.1.4,Linux x86_64,119.9616123,6299f149e92ead563fba08ef,62a43f58dccc56a313b11709,,,,,,,,,,,,,,,,,,,,,,,,,,,,,,,,,,,,,,,,,,,,,,,,,,,,,,,,,,,,,,,,,,,,,,,,,,,,,,,,,,,,,,,,,,,,,,,,,,,,,
,,,,,,1,0,1,0,1,X V Q F H G B L J M P D K C T S W R N Z,5dc33f755cb36e260a5598c0,20,Mężczyzna,2022-06-11_09h08.40.462,task,2021.1.4,Linux x86_64,119.9616123,6299f149e92ead563fba08ef,62a43f58dccc56a313b11709,,,,,,,,,,,,,,,,,,,,,,,,,,,,,,,,,,,,,,,,,,,,,,,,,,,,,,,,,,,,,,,,,,,,,,,,,,,,,,,,,,,,,,,,,,,,,,,,,,,,,
,,,,,,2,0,2,0,1,X V Q F H G B L J M P D K C T S W R N Z,5dc33f755cb36e260a5598c0,20,Mężczyzna,2022-06-11_09h08.40.462,task,2021.1.4,Linux x86_64,119.9616123,6299f149e92ead563fba08ef,62a43f58dccc56a313b11709,,,,,,,,,,,,,,,,,,,,,,,,,,,,,,,,,,,,,,,,,,,,,,,,,,,,,,,,,,,,,,,,,,,,,,,,,,,,,,,,,,,,,,,,,,,,,,,,,,,,,
,,,,,,3,0,3,0,1,X V Q F H G B L J M P D K C T S W R N Z,5dc33f755cb36e260a5598c0,20,Mężczyzna,2022-06-11_09h08.40.462,task,2021.1.4,Linux x86_64,119.9616123,6299f149e92ead563fba08ef,62a43f58dccc56a313b11709,,,,,,,,,,,,,,,,,,,,,,,,,,,,,,,,,,,,,,,,,,,,,,,,,,,,,,,,,,,,,,,,,,,,,,,,,,,,,,,,,,,,,,,,,,,,,,,,,,,,,
,,,,,,4,0,4,0,1,X V Q F H G B L J M P D K C T S W R N Z,5dc33f755cb36e260a5598c0,20,Mężczyzna,2022-06-11_09h08.40.462,task,2021.1.4,Linux x86_64,119.9616123,6299f149e92ead563fba08ef,62a43f58dccc56a313b11709,,,,,,,,,,,,,,,,,,,,,,,,,,,,,,,,,,,,,,,,,,,,,,,,,,,,,,,,,,,,,,,,,,,,,,,,,,,,,,,,,,,,,,,,,,,,,,,,,,,,,
,,,,,,5,0,5,0,1,X V Q F H G B L J M P D K C T S W R N Z,5dc33f755cb36e260a5598c0,20,Mężczyzna,2022-06-11_09h08.40.462,task,2021.1.4,Linux x86_64,119.9616123,6299f149e92ead563fba08ef,62a43f58dccc56a313b11709,,,,,,,,,,,,,,,,,,,,,,,,,,,,,,,,,,,,,,,,,,,,,,,,,,,,,,,,,,,,,,,,,,,,,,,,,,,,,,,,,,,,,,,,,,,,,,,,,,,,,
,,,,,,,,,,,,5dc33f755cb36e260a5598c0,20,Mężczyzna,2022-06-11_09h08.40.462,task,2021.1.4,Linux x86_64,119.9616123,6299f149e92ead563fba08ef,62a43f58dccc56a313b11709,qglgvk,"[""q"",""g"",""l"",""g"",""v"",""k""]","[3.5189999999999486,3.940400000000011,4.151400000000024,5.725099999999998,6.0423999999999864,7.458499999999958,8.210299999999961]",1,QGLGVK,12,0,12,0,1,,,,,,,,,,,,,,,,,,,,,,,,,,,,,,,,,,,,,,,,,,,,,,,,,,,,,,,,,,,,,,,,,,,,,,,,,,,,,,,,,,,,,,,,,,,
,,,,,,0,0,0,0,1,X V Q F H G B L J M P D K C T S W R N Z,5dc33f755cb36e260a5598c0,20,Mężczyzna,2022-06-11_09h08.40.462,task,2021.1.4,Linux x86_64,119.9616123,6299f149e92ead563fba08ef,62a43f58dccc56a313b11709,,,,,,,,,,,,,,,,,,,,,,,,,,,,,,,,,,,,,,,,,,,,,,,,,,,,,,,,,,,,,,,,,,,,,,,,,,,,,,,,,,,,,,,,,,,,,,,,,,,,,
,,,,,,1,0,1,0,1,X V Q F H G B L J M P D K C T S W R N Z,5dc33f755cb36e260a5598c0,20,Mężczyzna,2022-06-11_09h08.40.462,task,2021.1.4,Linux x86_64,119.9616123,6299f149e92ead563fba08ef,62a43f58dccc56a313b11709,,,,,,,,,,,,,,,,,,,,,,,,,,,,,,,,,,,,,,,,,,,,,,,,,,,,,,,,,,,,,,,,,,,,,,,,,,,,,,,,,,,,,,,,,,,,,,,,,,,,,
,,,,,,2,0,2,0,1,X V Q F H G B L J M P D K C T S W R N Z,5dc33f755cb36e260a5598c0,20,Mężczyzna,2022-06-11_09h08.40.462,task,2021.1.4,Linux x86_64,119.9616123,6299f149e92ead563fba08ef,62a43f58dccc56a313b11709,,,,,,,,,,,,,,,,,,,,,,,,,,,,,,,,,,,,,,,,,,,,,,,,,,,,,,,,,,,,,,,,,,,,,,,,,,,,,,,,,,,,,,,,,,,,,,,,,,,,,
,,,,,,3,0,3,0,1,X V Q F H G B L J M P D K C T S W R N Z,5dc33f755cb36e260a5598c0,20,Mężczyzna,2022-06-11_09h08.40.462,task,2021.1.4,Linux x86_64,119.9616123,6299f149e92ead563fba08ef,62a43f58dccc56a313b11709,,,,,,,,,,,,,,,,,,,,,,,,,,,,,,,,,,,,,,,,,,,,,,,,,,,,,,,,,,,,,,,,,,,,,,,,,,,,,,,,,,,,,,,,,,,,,,,,,,,,,
,,,,,,4,0,4,0,1,X V Q F H G B L J M P D K C T S W R N Z,5dc33f755cb36e260a5598c0,20,Mężczyzna,2022-06-11_09h08.40.462,task,2021.1.4,Linux x86_64,119.9616123,6299f149e92ead563fba08ef,62a43f58dccc56a313b11709,,,,,,,,,,,,,,,,,,,,,,,,,,,,,,,,,,,,,,,,,,,,,,,,,,,,,,,,,,,,,,,,,,,,,,,,,,,,,,,,,,,,,,,,,,,,,,,,,,,,,
,,,,,,5,0,5,0,1,X V Q F H G B L J M P D K C T S W R N Z,5dc33f755cb36e260a5598c0,20,Mężczyzna,2022-06-11_09h08.40.462,task,2021.1.4,Linux x86_64,119.9616123,6299f149e92ead563fba08ef,62a43f58dccc56a313b11709,,,,,,,,,,,,,,,,,,,,,,,,,,,,,,,,,,,,,,,,,,,,,,,,,,,,,,,,,,,,,,,,,,,,,,,,,,,,,,,,,,,,,,,,,,,,,,,,,,,,,
,,,,,,6,0,6,0,1,X V Q F H G B L J M P D K C T S W R N Z,5dc33f755cb36e260a5598c0,20,Mężczyzna,2022-06-11_09h08.40.462,task,2021.1.4,Linux x86_64,119.9616123,6299f149e92ead563fba08ef,62a43f58dccc56a313b11709,,,,,,,,,,,,,,,,,,,,,,,,,,,,,,,,,,,,,,,,,,,,,,,,,,,,,,,,,,,,,,,,,,,,,,,,,,,,,,,,,,,,,,,,,,,,,,,,,,,,,
,,,,,,,,,,,,5dc33f755cb36e260a5598c0,20,Mężczyzna,2022-06-11_09h08.40.462,task,2021.1.4,Linux x86_64,119.9616123,6299f149e92ead563fba08ef,62a43f58dccc56a313b11709,rnxgvnk,"[""r"",""n"",""x"",""g"",""v"",""n"",""k""]","[1.2434000000000083,1.9536000000000513,3.044300000000021,3.3764999999999645,4.194100000000049,5.570600000000013,6.435200000000009,8.3519]",0,RXNGWHG,13,0,13,0,1,,,,,,,,,,,,,,,,,,,,,,,,,,,,,,,,,,,,,,,,,,,,,,,,,,,,,,,,,,,,,,,,,,,,,,,,,,,,,,,,,,,,,,,,,,,
,,,,,,0,0,0,0,1,X V Q F H G B L J M P D K C T S W R N Z,5dc33f755cb36e260a5598c0,20,Mężczyzna,2022-06-11_09h08.40.462,task,2021.1.4,Linux x86_64,119.9616123,6299f149e92ead563fba08ef,62a43f58dccc56a313b11709,,,,,,,,,,,,,,,,,,,,,,,,,,,,,,,,,,,,,,,,,,,,,,,,,,,,,,,,,,,,,,,,,,,,,,,,,,,,,,,,,,,,,,,,,,,,,,,,,,,,,
,,,,,,1,0,1,0,1,X V Q F H G B L J M P D K C T S W R N Z,5dc33f755cb36e260a5598c0,20,Mężczyzna,2022-06-11_09h08.40.462,task,2021.1.4,Linux x86_64,119.9616123,6299f149e92ead563fba08ef,62a43f58dccc56a313b11709,,,,,,,,,,,,,,,,,,,,,,,,,,,,,,,,,,,,,,,,,,,,,,,,,,,,,,,,,,,,,,,,,,,,,,,,,,,,,,,,,,,,,,,,,,,,,,,,,,,,,
,,,,,,2,0,2,0,1,X V Q F H G B L J M P D K C T S W R N Z,5dc33f755cb36e260a5598c0,20,Mężczyzna,2022-06-11_09h08.40.462,task,2021.1.4,Linux x86_64,119.9616123,6299f149e92ead563fba08ef,62a43f58dccc56a313b11709,,,,,,,,,,,,,,,,,,,,,,,,,,,,,,,,,,,,,,,,,,,,,,,,,,,,,,,,,,,,,,,,,,,,,,,,,,,,,,,,,,,,,,,,,,,,,,,,,,,,,
,,,,,,3,0,3,0,1,X V Q F H G B L J M P D K C T S W R N Z,5dc33f755cb36e260a5598c0,20,Mężczyzna,2022-06-11_09h08.40.462,task,2021.1.4,Linux x86_64,119.9616123,6299f149e92ead563fba08ef,62a43f58dccc56a313b11709,,,,,,,,,,,,,,,,,,,,,,,,,,,,,,,,,,,,,,,,,,,,,,,,,,,,,,,,,,,,,,,,,,,,,,,,,,,,,,,,,,,,,,,,,,,,,,,,,,,,,
,,,,,,4,0,4,0,1,X V Q F H G B L J M P D K C T S W R N Z,5dc33f755cb36e260a5598c0,20,Mężczyzna,2022-06-11_09h08.40.462,task,2021.1.4,Linux x86_64,119.9616123,6299f149e92ead563fba08ef,62a43f58dccc56a313b11709,,,,,,,,,,,,,,,,,,,,,,,,,,,,,,,,,,,,,,,,,,,,,,,,,,,,,,,,,,,,,,,,,,,,,,,,,,,,,,,,,,,,,,,,,,,,,,,,,,,,,
,,,,,,5,0,5,0,1,X V Q F H G B L J M P D K C T S W R N Z,5dc33f755cb36e260a5598c0,20,Mężczyzna,2022-06-11_09h08.40.462,task,2021.1.4,Linux x86_64,119.9616123,6299f149e92ead563fba08ef,62a43f58dccc56a313b11709,,,,,,,,,,,,,,,,,,,,,,,,,,,,,,,,,,,,,,,,,,,,,,,,,,,,,,,,,,,,,,,,,,,,,,,,,,,,,,,,,,,,,,,,,,,,,,,,,,,,,
,,,,,,6,0,6,0,1,X V Q F H G B L J M P D K C T S W R N Z,5dc33f755cb36e260a5598c0,20,Mężczyzna,2022-06-11_09h08.40.462,task,2021.1.4,Linux x86_64,119.9616123,6299f149e92ead563fba08ef,62a43f58dccc56a313b11709,,,,,,,,,,,,,,,,,,,,,,,,,,,,,,,,,,,,,,,,,,,,,,,,,,,,,,,,,,,,,,,,,,,,,,,,,,,,,,,,,,,,,,,,,,,,,,,,,,,,,
,,,,,,,,,,,,5dc33f755cb36e260a5598c0,20,Mężczyzna,2022-06-11_09h08.40.462,task,2021.1.4,Linux x86_64,119.9616123,6299f149e92ead563fba08ef,62a43f58dccc56a313b11709,rnggh,"[""r"",""n"",""g"",""g"",""h""]","[1.2519999999999527,1.5874000000000024,1.8782999999999674,5.369299999999953,5.660499999999956,6.370299999999986]",0,GXTQMHW,14,0,14,0,1,,,,,,,,,,,,,,,,,,,,,,,,,,,,,,,,,,,,,,,,,,,,,,,,,,,,,,,,,,,,,,,,,,,,,,,,,,,,,,,,,,,,,,,,,,,
,,,,,,0,0,0,0,1,X V Q F H G B L J M P D K C T S W R N Z,5dc33f755cb36e260a5598c0,20,Mężczyzna,2022-06-11_09h08.40.462,task,2021.1.4,Linux x86_64,119.9616123,6299f149e92ead563fba08ef,62a43f58dccc56a313b11709,,,,,,,,,,,,,,,,,,,,,,,,,,,,,,,,,,,,,,,,,,,,,,,,,,,,,,,,,,,,,,,,,,,,,,,,,,,,,,,,,,,,,,,,,,,,,,,,,,,,,
,,,,,,1,0,1,0,1,X V Q F H G B L J M P D K C T S W R N Z,5dc33f755cb36e260a5598c0,20,Mężczyzna,2022-06-11_09h08.40.462,task,2021.1.4,Linux x86_64,119.9616123,6299f149e92ead563fba08ef,62a43f58dccc56a313b11709,,,,,,,,,,,,,,,,,,,,,,,,,,,,,,,,,,,,,,,,,,,,,,,,,,,,,,,,,,,,,,,,,,,,,,,,,,,,,,,,,,,,,,,,,,,,,,,,,,,,,
,,,,,,2,0,2,0,1,X V Q F H G B L J M P D K C T S W R N Z,5dc33f755cb36e260a5598c0,20,Mężczyzna,2022-06-11_09h08.40.462,task,2021.1.4,Linux x86_64,119.9616123,6299f149e92ead563fba08ef,62a43f58dccc56a313b11709,,,,,,,,,,,,,,,,,,,,,,,,,,,,,,,,,,,,,,,,,,,,,,,,,,,,,,,,,,,,,,,,,,,,,,,,,,,,,,,,,,,,,,,,,,,,,,,,,,,,,
,,,,,,3,0,3,0,1,X V Q F H G B L J M P D K C T S W R N Z,5dc33f755cb36e260a5598c0,20,Mężczyzna,2022-06-11_09h08.40.462,task,2021.1.4,Linux x86_64,119.9616123,6299f149e92ead563fba08ef,62a43f58dccc56a313b11709,,,,,,,,,,,,,,,,,,,,,,,,,,,,,,,,,,,,,,,,,,,,,,,,,,,,,,,,,,,,,,,,,,,,,,,,,,,,,,,,,,,,,,,,,,,,,,,,,,,,,
,,,,,,4,0,4,0,1,X V Q F H G B L J M P D K C T S W R N Z,5dc33f755cb36e260a5598c0,20,Mężczyzna,2022-06-11_09h08.40.462,task,2021.1.4,Linux x86_64,119.9616123,6299f149e92ead563fba08ef,62a43f58dccc56a313b11709,,,,,,,,,,,,,,,,,,,,,,,,,,,,,,,,,,,,,,,,,,,,,,,,,,,,,,,,,,,,,,,,,,,,,,,,,,,,,,,,,,,,,,,,,,,,,,,,,,,,,
,,,,,,5,0,5,0,1,X V Q F H G B L J M P D K C T S W R N Z,5dc33f755cb36e260a5598c0,20,Mężczyzna,2022-06-11_09h08.40.462,task,2021.1.4,Linux x86_64,119.9616123,6299f149e92ead563fba08ef,62a43f58dccc56a313b11709,,,,,,,,,,,,,,,,,,,,,,,,,,,,,,,,,,,,,,,,,,,,,,,,,,,,,,,,,,,,,,,,,,,,,,,,,,,,,,,,,,,,,,,,,,,,,,,,,,,,,
,,,,,,6,0,6,0,1,X V Q F H G B L J M P D K C T S W R N Z,5dc33f755cb36e260a5598c0,20,Mężczyzna,2022-06-11_09h08.40.462,task,2021.1.4,Linux x86_64,119.9616123,6299f149e92ead563fba08ef,62a43f58dccc56a313b11709,,,,,,,,,,,,,,,,,,,,,,,,,,,,,,,,,,,,,,,,,,,,,,,,,,,,,,,,,,,,,,,,,,,,,,,,,,,,,,,,,,,,,,,,,,,,,,,,,,,,,
,,,,,,,,,,,,5dc33f755cb36e260a5598c0,20,Mężczyzna,2022-06-11_09h08.40.462,task,2021.1.4,Linux x86_64,119.9616123,6299f149e92ead563fba08ef,62a43f58dccc56a313b11709,lljpzq,"[""l"",""l"",""j"",""p"",""z"",""q""]","[1.3937999999999988,2.286899999999946,2.618599999999958,3.059599999999989,7.955099999999959,9.217899999999986,12.812799999999982]",0,LJJPZQG,15,0,15,0,1,,,,,,,,,,,,,,,,,,,,,,,,,,,,,,,,,,,,,,,,,,,,,,,,,,,,,,,,,,,,,,,,,,,,,,,,,,,,,,,,,,,,,,,,,,,
,,,,,,,,,,,,5dc33f755cb36e260a5598c0,20,Mężczyzna,2022-06-11_09h08.40.462,task,2021.1.4,Linux x86_64,119.9616123,6299f149e92ead563fba08ef,62a43f58dccc56a313b11709,,,,,,,,,,,space,13.9007,9,"[""9""]",1,[2.7586000000000013],[2.7586000000000013],0,0,0,9,1,Practice,10,(20/2) - 1,9,,,,,,,,,,,,,,,,,,,,,,,,,,,,,,,,,,,,,,,,,,,,,,,,,,,,,,,,,,,,,,,,,,,,,,,,,,,
,,,,,,,,,,,,5dc33f755cb36e260a5598c0,20,Mężczyzna,2022-06-11_09h08.40.462,task,2021.1.4,Linux x86_64,119.9616123,6299f149e92ead563fba08ef,62a43f58dccc56a313b11709,,,,,,,,,,,,,6,"[""6""]",1,[2.907100000000071],"[2.7586000000000013,2.907100000000071]",0,1,1,6,1,Practice,7,(25/5) + 1,6,,,,,,,,,,,,,,,,,,,,,,,,,,,,,,,,,,,,,,,,,,,,,,,,,,,,,,,,,,,,,,,,,,,,,,,,,,,
,,,,,,,,,,,,5dc33f755cb36e260a5598c0,20,Mężczyzna,2022-06-11_09h08.40.462,task,2021.1.4,Linux x86_64,119.9616123,6299f149e92ead563fba08ef,62a43f58dccc56a313b11709,,,,,,,,,,,,,3,"[""3""]",1,[5.206699999999955],"[2.7586000000000013,2.907100000000071,5.206699999999955]",0,2,2,3,1,Practice,4,(8/4) + 1,3,,,,,,,,,,,,,,,,,,,,,,,,,,,,,,,,,,,,,,,,,,,,,,,,,,,,,,,,,,,,,,,,,,,,,,,,,,,
,,,,,,,,,,,,5dc33f755cb36e260a5598c0,20,Mężczyzna,2022-06-11_09h08.40.462,task,2021.1.4,Linux x86_64,119.9616123,6299f149e92ead563fba08ef,62a43f58dccc56a313b11709,,,,,,,,,,,,,0,"[""0""]",1,[2.148300000000063],"[2.7586000000000013,2.907100000000071,5.206699999999955,2.148300000000063]",0,3,3,0,1,Practice,1,(3x3) -  9,0,,,,,,,,,,,,,,,,,,,,,,,,,,,,,,,,,,,,,,,,,,,,,,,,,,,,,,,,,,,,,,,,,,,,,,,,,,,
,,,,,,,,,,,,5dc33f755cb36e260a5598c0,20,Mężczyzna,2022-06-11_09h08.40.462,task,2021.1.4,Linux x86_64,119.9616123,6299f149e92ead563fba08ef,62a43f58dccc56a313b11709,,,,,,,,,,,,,5,"[""5""]",1,[2.672499999999957],"[2.7586000000000013,2.907100000000071,5.206699999999955,2.148300000000063,2.672499999999957]",0,4,4,5,1,Practice,6,(4/2) + 3,5,,,,,,,,,,,,,,,,,,,,,,,,,,,,,,,,,,,,,,,,,,,,,,,,,,,,,,,,,,,,,,,,,,,,,,,,,,,
,,,,,,,,,,,,5dc33f755cb36e260a5598c0,20,Mężczyzna,2022-06-11_09h08.40.462,task,2021.1.4,Linux x86_64,119.9616123,6299f149e92ead563fba08ef,62a43f58dccc56a313b11709,,,,,,,,,,,,,8,"[""8""]",1,[3.522399999999948],"[2.7586000000000013,2.907100000000071,5.206699999999955,2.148300000000063,2.672499999999957,3.522399999999948]",0,5,5,8,1,Practice,9,(3x3) - 1,8,,,,,,,,,,,,,,,,,,,,,,,,,,,,,,,,,,,,,,,,,,,,,,,,,,,,,,,,,,,,,,,,,,,,,,,,,,,
,,,,,,,,,,,,5dc33f755cb36e260a5598c0,20,Mężczyzna,2022-06-11_09h08.40.462,task,2021.1.4,Linux x86_64,119.9616123,6299f149e92ead563fba08ef,62a43f58dccc56a313b11709,,,,,,,,,,,,,4,"[""4""]",1,[3.726799999999912],"[2.7586000000000013,2.907100000000071,5.206699999999955,2.148300000000063,2.672499999999957,3.522399999999948,3.726799999999912]",0,6,6,4,1,Practice,5,(2x6) - 8,4,,,,,,,,,,,,,,,,,,,,,,,,,,,,,,,,,,,,,,,,,,,,,,,,,,,,,,,,,,,,,,,,,,,,,,,,,,,
,,,,,,,,,,,,5dc33f755cb36e260a5598c0,20,Mężczyzna,2022-06-11_09h08.40.462,task,2021.1.4,Linux x86_64,119.9616123,6299f149e92ead563fba08ef,62a43f58dccc56a313b11709,,,,,,,,,,,,,2,"[""2""]",1,[3.364300000000071],"[2.7586000000000013,2.907100000000071,5.206699999999955,2.148300000000063,2.672499999999957,3.522399999999948,3.726799999999912,3.364300000000071]",0,7,7,2,1,Practice,3,(4x4) - 14,2,,,,,,,,,,,,,,,,,,,,,,,,,,,,,,,,,,,,,,,,,,,,,,,,,,,,,,,,,,,,,,,,,,,,,,,,,,,
,,,,,,,,,,,,5dc33f755cb36e260a5598c0,20,Mężczyzna,2022-06-11_09h08.40.462,task,2021.1.4,Linux x86_64,119.9616123,6299f149e92ead563fba08ef,62a43f58dccc56a313b11709,,,,,,,,,,,,,1,"[""1""]",1,[2.192600000000084],"[2.7586000000000013,2.907100000000071,5.206699999999955,2.148300000000063,2.672499999999957,3.522399999999948,3.726799999999912,3.364300000000071,2.192600000000084]",0,8,8,1,1,Practice,2,(4x4) - 15,1,,,,,,,,,,,,,,,,,,,,,,,,,,,,,,,,,,,,,,,,,,,,,,,,,,,,,,,,,,,,,,,,,,,,,,,,,,,
,,,,,,,,,,,,5dc33f755cb36e260a5598c0,20,Mężczyzna,2022-06-11_09h08.40.462,task,2021.1.4,Linux x86_64,119.9616123,6299f149e92ead563fba08ef,62a43f58dccc56a313b11709,,,,,,,,,,,,,8,"[""8""]",0,[8.012200000000007],"[2.7586000000000013,2.907100000000071,5.206699999999955,2.148300000000063,2.672499999999957,3.522399999999948,3.726799999999912,3.364300000000071,2.192600000000084,8.012200000000007]",0,9,9,7,1,Practice,8,(5x5) - 18,7,,,,,,,,,,,,,,,,,,,,,,,,,,,,,,,,,,,,,,,,,,,,,,,,,,,,,,,,,,,,,,,,,,,,,,,,,,,
,,,,,,,,,,,,5dc33f755cb36e260a5598c0,20,Mężczyzna,2022-06-11_09h08.40.462,task,2021.1.4,Linux x86_64,119.9616123,6299f149e92ead563fba08ef,62a43f58dccc56a313b11709,,,,,,,,,,,,,,,,,,,,,,,,,,,0.9,36.5115,2.4341,43.04912029,1.694090125,6.804852523,space,2.7273,0,0,0,0,1,,,,,,,,,,,,,,,,,,,,,,,,,,,,,,,,,,,,,,,,,,,,,,,,,,,,,,,,,,,,,,
,,,,,,,,,,,,5dc33f755cb36e260a5598c0,20,Mężczyzna,2022-06-11_09h08.40.462,task,2021.1.4,Linux x86_64,119.9616123,6299f149e92ead563fba08ef,62a43f58dccc56a313b11709,,,,,,,,,,,,,9,,,,,,,,,,Practice,10,(20/2) - 1,9,,,,,,,,,,,,,,space,19.8156,"[""9""]",1,[5.36990000000003],1,0,0,0,9,1,,,,,,,,,,,,,,,,,,,,,,,,,,,,,,,,,,,,,,,,,,,,,,,,,,,
,,,,,,,,,,,X V Q F H G B L J M P D K C T S W R N Z,5dc33f755cb36e260a5598c0,20,Mężczyzna,2022-06-11_09h08.40.462,task,2021.1.4,Linux x86_64,119.9616123,6299f149e92ead563fba08ef,62a43f58dccc56a313b11709,,,,,,,,,,,,,,,,,,,,,,,,,,,,,,,,,,,,,,,,,,,,,,,,,,,0,0,0,0,1,,,,,,,,,,,,,,,,,,,,,,,,,,,,,,,,,,,,,,,,,,,,,,
,,,,,,,,,,,,5dc33f755cb36e260a5598c0,20,Mężczyzna,2022-06-11_09h08.40.462,task,2021.1.4,Linux x86_64,119.9616123,6299f149e92ead563fba08ef,62a43f58dccc56a313b11709,,,,,,,,,,,,,4,,,,,,,,,,Practice,5,(2x6) - 8,4,,,,,,,,,,,,,,,,"[""4""]",1,[4.836900000000014],1,0,0,0,4,1,,,,,,,,,,,,,,,,,,,,,,,,,,,,,,,,,,,,,,,,,,,,,,,,,,,
,,,,,,,,,,,X V Q F H G B L J M P D K C T S W R N Z,5dc33f755cb36e260a5598c0,20,Mężczyzna,2022-06-11_09h08.40.462,task,2021.1.4,Linux x86_64,119.9616123,6299f149e92ead563fba08ef,62a43f58dccc56a313b11709,,,,,,,,,,,,,,,,,,,,,,,,,,,,,,,,,,,,,,,,,,,,,,,,,,,1,0,1,0,1,,,,,,,,,,,,,,,,,,,,,,,,,,,,,,,,,,,,,,,,,,,,,,
,,,,,,,,,,,,5dc33f755cb36e260a5598c0,20,Mężczyzna,2022-06-11_09h08.40.462,task,2021.1.4,Linux x86_64,119.9616123,6299f149e92ead563fba08ef,62a43f58dccc56a313b11709,,,,,,,,,,,,,,,,,,,,,,,,,,,,,,,,,,,,,,,,,,,,,,,,,,,,,,,,zh,"[""z"",""h""]",0,"[2.298999999999978,2.4896999999999707,3.1440000000000055]",1,0,0,0,0,1,,,,,,,,,,,,,,,,,,,,,,,,,,,,,,,,,,,,
,,,,,,,,,,,,5dc33f755cb36e260a5598c0,20,Mężczyzna,2022-06-11_09h08.40.462,task,2021.1.4,Linux x86_64,119.9616123,6299f149e92ead563fba08ef,62a43f58dccc56a313b11709,,,,,,,,,,,,,5,,,,,,,,,,Practice,6,(4/2) + 3,5,,,,,,,,,,,,,,,,"[""5""]",1,[3.4203000000000543],1,0,0,0,5,1,,,,,,,,,,,,,,,,,,,,,,,,,,,,,,,,,,,,,,,,,,,,,,,,,,,
,,,,,,,,,,,X V Q F H G B L J M P D K C T S W R N Z,5dc33f755cb36e260a5598c0,20,Mężczyzna,2022-06-11_09h08.40.462,task,2021.1.4,Linux x86_64,119.9616123,6299f149e92ead563fba08ef,62a43f58dccc56a313b11709,,,,,,,,,,,,,,,,,,,,,,,,,,,,,,,,,,,,,,,,,,,,,,,,,,,0,0,0,0,1,,,,,,,,,,,,,,,,,,,,,,,,,,,,,,,,,,,,,,,,,,,,,,
,,,,,,,,,,,,5dc33f755cb36e260a5598c0,20,Mężczyzna,2022-06-11_09h08.40.462,task,2021.1.4,Linux x86_64,119.9616123,6299f149e92ead563fba08ef,62a43f58dccc56a313b11709,,,,,,,,,,,,,0,,,,,,,,,,Practice,1,(3x3) -  9,0,,,,,,,,,,,,,,,,"[""0""]",1,[1.7000999999999635],1,0,0,0,0,1,,,,,,,,,,,,,,,,,,,,,,,,,,,,,,,,,,,,,,,,,,,,,,,,,,,
,,,,,,,,,,,X V Q F H G B L J M P D K C T S W R N Z,5dc33f755cb36e260a5598c0,20,Mężczyzna,2022-06-11_09h08.40.462,task,2021.1.4,Linux x86_64,119.9616123,6299f149e92ead563fba08ef,62a43f58dccc56a313b11709,,,,,,,,,,,,,,,,,,,,,,,,,,,,,,,,,,,,,,,,,,,,,,,,,,,1,0,1,0,1,,,,,,,,,,,,,,,,,,,,,,,,,,,,,,,,,,,,,,,,,,,,,,
,,,,,,,,,,,,5dc33f755cb36e260a5598c0,20,Mężczyzna,2022-06-11_09h08.40.462,task,2021.1.4,Linux x86_64,119.9616123,6299f149e92ead563fba08ef,62a43f58dccc56a313b11709,,,,,,,,,,,,,,,,,,,,,,,,,,,,,,,,,,,,,,,,,,,,,,,,,,,,,,,,qv,"[""q"",""v""]",0,"[2.0919000000000096,2.4355999999999653,2.8752999999999247]",1,1,0,1,0,1,,,,,,,,,,,,,,,,,,,,,,,,,,,,,,,,,,,,
,,,,,,,,,,,,5dc33f755cb36e260a5598c0,20,Mężczyzna,2022-06-11_09h08.40.462,task,2021.1.4,Linux x86_64,119.9616123,6299f149e92ead563fba08ef,62a43f58dccc56a313b11709,,,,,,,,,,,,,1,,,,,,,,,,Practice,2,(4x4) - 15,1,,,,,,,,,,,,,,,,"[""1""]",1,[2.6153000000000475],1,0,0,0,1,1,,,,,,,,,,,,,,,,,,,,,,,,,,,,,,,,,,,,,,,,,,,,,,,,,,,
,,,,,,,,,,,X V Q F H G B L J M P D K C T S W R N Z,5dc33f755cb36e260a5598c0,20,Mężczyzna,2022-06-11_09h08.40.462,task,2021.1.4,Linux x86_64,119.9616123,6299f149e92ead563fba08ef,62a43f58dccc56a313b11709,,,,,,,,,,,,,,,,,,,,,,,,,,,,,,,,,,,,,,,,,,,,,,,,,,,0,0,0,0,1,,,,,,,,,,,,,,,,,,,,,,,,,,,,,,,,,,,,,,,,,,,,,,
,,,,,,,,,,,,5dc33f755cb36e260a5598c0,20,Mężczyzna,2022-06-11_09h08.40.462,task,2021.1.4,Linux x86_64,119.9616123,6299f149e92ead563fba08ef,62a43f58dccc56a313b11709,,,,,,,,,,,,,2,,,,,,,,,,Practice,3,(4x4) - 14,2,,,,,,,,,,,,,,,,"[""2""]",1,[2.9243000000000166],1,0,0,0,2,1,,,,,,,,,,,,,,,,,,,,,,,,,,,,,,,,,,,,,,,,,,,,,,,,,,,
,,,,,,,,,,,X V Q F H G B L J M P D K C T S W R N Z,5dc33f755cb36e260a5598c0,20,Mężczyzna,2022-06-11_09h08.40.462,task,2021.1.4,Linux x86_64,119.9616123,6299f149e92ead563fba08ef,62a43f58dccc56a313b11709,,,,,,,,,,,,,,,,,,,,,,,,,,,,,,,,,,,,,,,,,,,,,,,,,,,1,0,1,0,1,,,,,,,,,,,,,,,,,,,,,,,,,,,,,,,,,,,,,,,,,,,,,,
,,,,,,,,,,,,5dc33f755cb36e260a5598c0,20,Mężczyzna,2022-06-11_09h08.40.462,task,2021.1.4,Linux x86_64,119.9616123,6299f149e92ead563fba08ef,62a43f58dccc56a313b11709,,,,,,,,,,,,,,,,,,,,,,,,,,,,,,,,,,,,,,,,,,,,,,,,,,,,,,,,dn,"[""d"",""n""]",0,"[1.5885000000000105,1.6969000000000278,2.15259999999995]",1,2,0,2,0,1,,,,,,,,,,,,,,,,,,,,,,,,,,,,,,,,,,,,
,,,,,,,,,,,,5dc33f755cb36e260a5598c0,20,Mężczyzna,2022-06-11_09h08.40.462,task,2021.1.4,Linux x86_64,119.9616123,6299f149e92ead563fba08ef,62a43f58dccc56a313b11709,,,,,,,,,,,,,7,,,,,,,,,,Task,6,(12/2) + 1,7,,,,,,,,,,,,,,,,,,,1,,,,,,,,,,,,,,,,,,,,,space,18.4666,"[""7""]",1,[4.349800000000073],0,0,0,5,1,,,,,,,,,,,,,,,,,,,,,,,,,,
,,,,,,,,,,,X V Q F H G B L J M P D K C T S W R N Z,5dc33f755cb36e260a5598c0,20,Mężczyzna,2022-06-11_09h08.40.462,task,2021.1.4,Linux x86_64,119.9616123,6299f149e92ead563fba08ef,62a43f58dccc56a313b11709,,,,,,,,,,,,,,,,,,,,,,,,,,,,,,,,,,,,,,,,,,,,,,,,,,,,,,,,,,,,,,,,,,,,,,,,,,,,0,0,0,0,1,,,,,,,,,,,,,,,,,,,,,
,,,,,,,,,,,,5dc33f755cb36e260a5598c0,20,Mężczyzna,2022-06-11_09h08.40.462,task,2021.1.4,Linux x86_64,119.9616123,6299f149e92ead563fba08ef,62a43f58dccc56a313b11709,,,,,,,,,,,,,0,,,,,,,,,,Task,17,(2x3) - 6,0,,,,,,,,,,,,,,,,,,,1,,,,,,,,,,,,,,,,,,,,,,,"[""0""]",1,[5.19199999999995],0,0,0,16,1,,,,,,,,,,,,,,,,,,,,,,,,,,
,,,,,,,,,,,X V Q F H G B L J M P D K C T S W R N Z,5dc33f755cb36e260a5598c0,20,Mężczyzna,2022-06-11_09h08.40.462,task,2021.1.4,Linux x86_64,119.9616123,6299f149e92ead563fba08ef,62a43f58dccc56a313b11709,,,,,,,,,,,,,,,,,,,,,,,,,,,,,,,,,,,,,,,,,,,,,,,,,,,,,,,,,,,,,,,,,,,,,,,,,,,,1,0,1,0,1,,,,,,,,,,,,,,,,,,,,,
,,,,,,,,,,,,5dc33f755cb36e260a5598c0,20,Mężczyzna,2022-06-11_09h08.40.462,task,2021.1.4,Linux x86_64,119.9616123,6299f149e92ead563fba08ef,62a43f58dccc56a313b11709,,,,,,,,,,,,,,,,,,,,,,,,,,,,,,,,,,,,,,,,,,,,,,,,,,,,,,,,,,,,,,,,,,,,,,,,,,,,,,,,,zp,"[""z"",""p""]",0,"[1.606200000000058,1.6992000000000758,2.2169000000000096]",1,ZP,0,0,0,0,1,,,,,,,,,,
,,,,,,,,,,,,5dc33f755cb36e260a5598c0,20,Mężczyzna,2022-06-11_09h08.40.462,task,2021.1.4,Linux x86_64,119.9616123,6299f149e92ead563fba08ef,62a43f58dccc56a313b11709,,,,,,,,,,,,,,,,,,,,,,,Task,40,(7x2) - 5,9,,,,,,,,,,,,,,,,,,,0,,,,,,,,,,,,,,,,,,,,,,,,0,,0,0,0,39,1,,,,,,,,,,,,,,,,,,,,,,,,,,
,,,,,,,,,,,,5dc33f755cb36e260a5598c0,20,Mężczyzna,2022-06-11_09h08.40.462,task,2021.1.4,Linux x86_64,119.9616123,6299f149e92ead563fba08ef,62a43f58dccc56a313b11709,,,,,,,,,,,,,4,,,,,,,,,,Task,28,(2x5) - 6,4,,,,,,,,,,,,,,,,,,,1,,,,,,,,,,,,,,,,,,,,,,,"[""4""]",1,[3.4402999999998656],0,1,1,27,1,,,,,,,,,,,,,,,,,,,,,,,,,,
,,,,,,,,,,,X V Q F H G B L J M P D K C T S W R N Z,5dc33f755cb36e260a5598c0,20,Mężczyzna,2022-06-11_09h08.40.462,task,2021.1.4,Linux x86_64,119.9616123,6299f149e92ead563fba08ef,62a43f58dccc56a313b11709,,,,,,,,,,,,,,,,,,,,,,,,,,,,,,,,,,,,,,,,,,,,,,,,,,,,,,,,,,,,,,,,,,,,,,,,,,,,0,0,0,0,1,,,,,,,,,,,,,,,,,,,,,
,,,,,,,,,,,,5dc33f755cb36e260a5598c0,20,Mężczyzna,2022-06-11_09h08.40.462,task,2021.1.4,Linux x86_64,119.9616123,6299f149e92ead563fba08ef,62a43f58dccc56a313b11709,,,,,,,,,,,,,4,,,,,,,,,,Task,28,(2x5) - 6,4,,,,,,,,,,,,,,,,,,,1,,,,,,,,,,,,,,,,,,,,,,,"[""4""]",1,[2.808800000000133],0,0,0,27,1,,,,,,,,,,,,,,,,,,,,,,,,,,
,,,,,,,,,,,X V Q F H G B L J M P D K C T S W R N Z,5dc33f755cb36e260a5598c0,20,Mężczyzna,2022-06-11_09h08.40.462,task,2021.1.4,Linux x86_64,119.9616123,6299f149e92ead563fba08ef,62a43f58dccc56a313b11709,,,,,,,,,,,,,,,,,,,,,,,,,,,,,,,,,,,,,,,,,,,,,,,,,,,,,,,,,,,,,,,,,,,,,,,,,,,,1,0,1,0,1,,,,,,,,,,,,,,,,,,,,,
,,,,,,,,,,,,5dc33f755cb36e260a5598c0,20,Mężczyzna,2022-06-11_09h08.40.462,task,2021.1.4,Linux x86_64,119.9616123,6299f149e92ead563fba08ef,62a43f58dccc56a313b11709,,,,,,,,,,,,,7,,,,,,,,,,Task,6,(12/2) + 1,7,,,,,,,,,,,,,,,,,,,1,,,,,,,,,,,,,,,,,,,,,,,"[""7""]",1,[2.7853999999998678],0,0,0,5,1,,,,,,,,,,,,,,,,,,,,,,,,,,
,,,,,,,,,,,X V Q F H G B L J M P D K C T S W R N Z,5dc33f755cb36e260a5598c0,20,Mężczyzna,2022-06-11_09h08.40.462,task,2021.1.4,Linux x86_64,119.9616123,6299f149e92ead563fba08ef,62a43f58dccc56a313b11709,,,,,,,,,,,,,,,,,,,,,,,,,,,,,,,,,,,,,,,,,,,,,,,,,,,,,,,,,,,,,,,,,,,,,,,,,,,,2,0,2,0,1,,,,,,,,,,,,,,,,,,,,,
,,,,,,,,,,,,5dc33f755cb36e260a5598c0,20,Mężczyzna,2022-06-11_09h08.40.462,task,2021.1.4,Linux x86_64,119.9616123,6299f149e92ead563fba08ef,62a43f58dccc56a313b11709,,,,,,,,,,,,,,,,,,,,,,,,,,,,,,,,,,,,,,,,,,,,,,,,,,,,,,,,,,,,,,,,,,,,,,,,,,,,,,,,,tdh,"[""t"",""d"",""h""]",0,"[1.6754000000000815,1.9481999999999289,2.28570000000002,2.9501999999999953]",1,TDH,1,0,1,0,1,,,,,,,,,,
,,,,,,,,,,,,5dc33f755cb36e260a5598c0,20,Mężczyzna,2022-06-11_09h08.40.462,task,2021.1.4,Linux x86_64,119.9616123,6299f149e92ead563fba08ef,62a43f58dccc56a313b11709,,,,,,,,,,,,,3,,,,,,,,,,Task,3,(2x3) - 3,3,,,,,,,,,,,,,,,,,,,1,,,,,,,,,,,,,,,,,,,,,,,"[""3""]",1,[2.868600000000015],0,0,0,2,1,,,,,,,,,,,,,,,,,,,,,,,,,,
,,,,,,,,,,,X V Q F H G B L J M P D K C T S W R N Z,5dc33f755cb36e260a5598c0,20,Mężczyzna,2022-06-11_09h08.40.462,task,2021.1.4,Linux x86_64,119.9616123,6299f149e92ead563fba08ef,62a43f58dccc56a313b11709,,,,,,,,,,,,,,,,,,,,,,,,,,,,,,,,,,,,,,,,,,,,,,,,,,,,,,,,,,,,,,,,,,,,,,,,,,,,0,0,0,0,1,,,,,,,,,,,,,,,,,,,,,
,,,,,,,,,,,,5dc33f755cb36e260a5598c0,20,Mężczyzna,2022-06-11_09h08.40.462,task,2021.1.4,Linux x86_64,119.9616123,6299f149e92ead563fba08ef,62a43f58dccc56a313b11709,,,,,,,,,,,,,3,,,,,,,,,,Task,35,(1x2) + 1,3,,,,,,,,,,,,,,,,,,,1,,,,,,,,,,,,,,,,,,,,,,,"[""3""]",1,[2.719199999999887],0,0,0,34,1,,,,,,,,,,,,,,,,,,,,,,,,,,
,,,,,,,,,,,X V Q F H G B L J M P D K C T S W R N Z,5dc33f755cb36e260a5598c0,20,Mężczyzna,2022-06-11_09h08.40.462,task,2021.1.4,Linux x86_64,119.9616123,6299f149e92ead563fba08ef,62a43f58dccc56a313b11709,,,,,,,,,,,,,,,,,,,,,,,,,,,,,,,,,,,,,,,,,,,,,,,,,,,,,,,,,,,,,,,,,,,,,,,,,,,,1,0,1,0,1,,,,,,,,,,,,,,,,,,,,,
,,,,,,,,,,,,5dc33f755cb36e260a5598c0,20,Mężczyzna,2022-06-11_09h08.40.462,task,2021.1.4,Linux x86_64,119.9616123,6299f149e92ead563fba08ef,62a43f58dccc56a313b11709,,,,,,,,,,,,,3,,,,,,,,,,Task,26,(2x9) - 16,2,,,,,,,,,,,,,,,,,,,0,,,,,,,,,,,,,,,,,,,,,,,"[""3""]",0,[3.691599999999994],0,0,0,25,1,,,,,,,,,,,,,,,,,,,,,,,,,,
,,,,,,,,,,,,5dc33f755cb36e260a5598c0,20,Mężczyzna,2022-06-11_09h08.40.462,task,2021.1.4,Linux x86_64,119.9616123,6299f149e92ead563fba08ef,62a43f58dccc56a313b11709,,,,,,,,,,,,,2,,,,,,,,,,Task,19,(6/2) - 1,2,,,,,,,,,,,,,,,,,,,1,,,,,,,,,,,,,,,,,,,,,,,"[""2""]",1,[4.787799999999947],0,1,1,18,1,,,,,,,,,,,,,,,,,,,,,,,,,,
,,,,,,,,,,,X V Q F H G B L J M P D K C T S W R N Z,5dc33f755cb36e260a5598c0,20,Mężczyzna,2022-06-11_09h08.40.462,task,2021.1.4,Linux x86_64,119.9616123,6299f149e92ead563fba08ef,62a43f58dccc56a313b11709,,,,,,,,,,,,,,,,,,,,,,,,,,,,,,,,,,,,,,,,,,,,,,,,,,,,,,,,,,,,,,,,,,,,,,,,,,,,2,0,2,0,1,,,,,,,,,,,,,,,,,,,,,
,,,,,,,,,,,,5dc33f755cb36e260a5598c0,20,Mężczyzna,2022-06-11_09h08.40.462,task,2021.1.4,Linux x86_64,119.9616123,6299f149e92ead563fba08ef,62a43f58dccc56a313b11709,,,,,,,,,,,,,8,,,,,,,,,,Task,23,(2x3) + 2,8,,,,,,,,,,,,,,,,,,,1,,,,,,,,,,,,,,,,,,,,,,,"[""8""]",1,[4.738200000000006],0,0,0,22,1,,,,,,,,,,,,,,,,,,,,,,,,,,
,,,,,,,,,,,X V Q F H G B L J M P D K C T S W R N Z,5dc33f755cb36e260a5598c0,20,Mężczyzna,2022-06-11_09h08.40.462,task,2021.1.4,Linux x86_64,119.9616123,6299f149e92ead563fba08ef,62a43f58dccc56a313b11709,,,,,,,,,,,,,,,,,,,,,,,,,,,,,,,,,,,,,,,,,,,,,,,,,,,,,,,,,,,,,,,,,,,,,,,,,,,,3,0,3,0,1,,,,,,,,,,,,,,,,,,,,,
,,,,,,,,,,,,5dc33f755cb36e260a5598c0,20,Mężczyzna,2022-06-11_09h08.40.462,task,2021.1.4,Linux x86_64,119.9616123,6299f149e92ead563fba08ef,62a43f58dccc56a313b11709,,,,,,,,,,,,,,,,,,,,,,,,,,,,,,,,,,,,,,,,,,,,,,,,,,,,,,,,,,,,,,,,,,,,,,,,,,,,,,,,,tdrxv,"[""t"",""d"",""r"",""x"",""v""]",0,"[3.4729999999999563,3.856899999999996,4.171399999999949,4.518900000000031,4.875600000000077,5.725500000000011]",0,JRXV,2,0,2,0,1,,,,,,,,,,
,,,,,,,,,,,,5dc33f755cb36e260a5598c0,20,Mężczyzna,2022-06-11_09h08.40.462,task,2021.1.4,Linux x86_64,119.9616123,6299f149e92ead563fba08ef,62a43f58dccc56a313b11709,,,,,,,,,,,,,0,,,,,,,,,,Task,8,(1x5) - 5,0,,,,,,,,,,,,,,,,,,,1,,,,,,,,,,,,,,,,,,,,,,,"[""0""]",1,[2.744399999999928],0,0,0,7,1,,,,,,,,,,,,,,,,,,,,,,,,,,
,,,,,,,,,,,X V Q F H G B L J M P D K C T S W R N Z,5dc33f755cb36e260a5598c0,20,Mężczyzna,2022-06-11_09h08.40.462,task,2021.1.4,Linux x86_64,119.9616123,6299f149e92ead563fba08ef,62a43f58dccc56a313b11709,,,,,,,,,,,,,,,,,,,,,,,,,,,,,,,,,,,,,,,,,,,,,,,,,,,,,,,,,,,,,,,,,,,,,,,,,,,,0,0,0,0,1,,,,,,,,,,,,,,,,,,,,,
,,,,,,,,,,,,5dc33f755cb36e260a5598c0,20,Mężczyzna,2022-06-11_09h08.40.462,task,2021.1.4,Linux x86_64,119.9616123,6299f149e92ead563fba08ef,62a43f58dccc56a313b11709,,,,,,,,,,,,,6,,,,,,,,,,Task,37,(3/3) + 5,6,,,,,,,,,,,,,,,,,,,1,,,,,,,,,,,,,,,,,,,,,,,"[""6""]",1,[2.6557999999999993],0,0,0,36,1,,,,,,,,,,,,,,,,,,,,,,,,,,
,,,,,,,,,,,X V Q F H G B L J M P D K C T S W R N Z,5dc33f755cb36e260a5598c0,20,Mężczyzna,2022-06-11_09h08.40.462,task,2021.1.4,Linux x86_64,119.9616123,6299f149e92ead563fba08ef,62a43f58dccc56a313b11709,,,,,,,,,,,,,,,,,,,,,,,,,,,,,,,,,,,,,,,,,,,,,,,,,,,,,,,,,,,,,,,,,,,,,,,,,,,,1,0,1,0,1,,,,,,,,,,,,,,,,,,,,,
,,,,,,,,,,,,5dc33f755cb36e260a5598c0,20,Mężczyzna,2022-06-11_09h08.40.462,task,2021.1.4,Linux x86_64,119.9616123,6299f149e92ead563fba08ef,62a43f58dccc56a313b11709,,,,,,,,,,,,,4,,,,,,,,,,Task,4,(1x5) - 1,4,,,,,,,,,,,,,,,,,,,1,,,,,,,,,,,,,,,,,,,,,,,"[""4""]",1,[3.100900000000024],0,0,0,3,1,,,,,,,,,,,,,,,,,,,,,,,,,,
,,,,,,,,,,,X V Q F H G B L J M P D K C T S W R N Z,5dc33f755cb36e260a5598c0,20,Mężczyzna,2022-06-11_09h08.40.462,task,2021.1.4,Linux x86_64,119.9616123,6299f149e92ead563fba08ef,62a43f58dccc56a313b11709,,,,,,,,,,,,,,,,,,,,,,,,,,,,,,,,,,,,,,,,,,,,,,,,,,,,,,,,,,,,,,,,,,,,,,,,,,,,2,0,2,0,1,,,,,,,,,,,,,,,,,,,,,
,,,,,,,,,,,,5dc33f755cb36e260a5598c0,20,Mężczyzna,2022-06-11_09h08.40.462,task,2021.1.4,Linux x86_64,119.9616123,6299f149e92ead563fba08ef,62a43f58dccc56a313b11709,,,,,,,,,,,,,9,,,,,,,,,,Task,7,(3x7) - 12,9,,,,,,,,,,,,,,,,,,,1,,,,,,,,,,,,,,,,,,,,,,,"[""9""]",1,[6.224800000000073],0,0,0,6,1,,,,,,,,,,,,,,,,,,,,,,,,,,
,,,,,,,,,,,X V Q F H G B L J M P D K C T S W R N Z,5dc33f755cb36e260a5598c0,20,Mężczyzna,2022-06-11_09h08.40.462,task,2021.1.4,Linux x86_64,119.9616123,6299f149e92ead563fba08ef,62a43f58dccc56a313b11709,,,,,,,,,,,,,,,,,,,,,,,,,,,,,,,,,,,,,,,,,,,,,,,,,,,,,,,,,,,,,,,,,,,,,,,,,,,,3,0,3,0,1,,,,,,,,,,,,,,,,,,,,,
,,,,,,,,,,,,5dc33f755cb36e260a5598c0,20,Mężczyzna,2022-06-11_09h08.40.462,task,2021.1.4,Linux x86_64,119.9616123,6299f149e92ead563fba08ef,62a43f58dccc56a313b11709,,,,,,,,,,,,,,,,,,,,,,,,,,,,,,,,,,,,,,,,,,,,,,,,,,,,,,,,,,,,,,,,,,,,,,,,,,,,,,,,,czck,"[""c"",""z"",""c"",""k""]",0,"[1.6316000000000486,1.873199999999997,2.3215999999999894,2.478900000000067,3.2623000000000957]",1,CZCK,3,0,3,0,1,,,,,,,,,,
,,,,,,,,,,,,5dc33f755cb36e260a5598c0,20,Mężczyzna,2022-06-11_09h08.40.462,task,2021.1.4,Linux x86_64,119.9616123,6299f149e92ead563fba08ef,62a43f58dccc56a313b11709,,,,,,,,,,,,,3,,,,,,,,,,Task,3,(2x3) - 3,3,,,,,,,,,,,,,,,,,,,1,,,,,,,,,,,,,,,,,,,,,,,"[""3""]",1,[3.0395999999999503],0,0,0,2,1,,,,,,,,,,,,,,,,,,,,,,,,,,
,,,,,,,,,,,X V Q F H G B L J M P D K C T S W R N Z,5dc33f755cb36e260a5598c0,20,Mężczyzna,2022-06-11_09h08.40.462,task,2021.1.4,Linux x86_64,119.9616123,6299f149e92ead563fba08ef,62a43f58dccc56a313b11709,,,,,,,,,,,,,,,,,,,,,,,,,,,,,,,,,,,,,,,,,,,,,,,,,,,,,,,,,,,,,,,,,,,,,,,,,,,,0,0,0,0,1,,,,,,,,,,,,,,,,,,,,,
,,,,,,,,,,,,5dc33f755cb36e260a5598c0,20,Mężczyzna,2022-06-11_09h08.40.462,task,2021.1.4,Linux x86_64,119.9616123,6299f149e92ead563fba08ef,62a43f58dccc56a313b11709,,,,,,,,,,,,,1,,,,,,,,,,Task,1,(12/6) - 1,1,,,,,,,,,,,,,,,,,,,1,,,,,,,,,,,,,,,,,,,,,,,"[""1""]",1,[3.399400000000014],0,0,0,0,1,,,,,,,,,,,,,,,,,,,,,,,,,,
,,,,,,,,,,,X V Q F H G B L J M P D K C T S W R N Z,5dc33f755cb36e260a5598c0,20,Mężczyzna,2022-06-11_09h08.40.462,task,2021.1.4,Linux x86_64,119.9616123,6299f149e92ead563fba08ef,62a43f58dccc56a313b11709,,,,,,,,,,,,,,,,,,,,,,,,,,,,,,,,,,,,,,,,,,,,,,,,,,,,,,,,,,,,,,,,,,,,,,,,,,,,1,0,1,0,1,,,,,,,,,,,,,,,,,,,,,
,,,,,,,,,,,,5dc33f755cb36e260a5598c0,20,Mężczyzna,2022-06-11_09h08.40.462,task,2021.1.4,Linux x86_64,119.9616123,6299f149e92ead563fba08ef,62a43f58dccc56a313b11709,,,,,,,,,,,,,6,,,,,,,,,,Task,30,(6/3) + 4 ,6,,,,,,,,,,,,,,,,,,,1,,,,,,,,,,,,,,,,,,,,,,,"[""6""]",1,[3.1866999999999734],0,0,0,29,1,,,,,,,,,,,,,,,,,,,,,,,,,,
,,,,,,,,,,,X V Q F H G B L J M P D K C T S W R N Z,5dc33f755cb36e260a5598c0,20,Mężczyzna,2022-06-11_09h08.40.462,task,2021.1.4,Linux x86_64,119.9616123,6299f149e92ead563fba08ef,62a43f58dccc56a313b11709,,,,,,,,,,,,,,,,,,,,,,,,,,,,,,,,,,,,,,,,,,,,,,,,,,,,,,,,,,,,,,,,,,,,,,,,,,,,2,0,2,0,1,,,,,,,,,,,,,,,,,,,,,
,,,,,,,,,,,,5dc33f755cb36e260a5598c0,20,Mężczyzna,2022-06-11_09h08.40.462,task,2021.1.4,Linux x86_64,119.9616123,6299f149e92ead563fba08ef,62a43f58dccc56a313b11709,,,,,,,,,,,,,1,,,,,,,,,,Task,18,(16/4) - 3,1,,,,,,,,,,,,,,,,,,,1,,,,,,,,,,,,,,,,,,,,,,,"[""1""]",1,[3.1350000000001046],0,0,0,17,1,,,,,,,,,,,,,,,,,,,,,,,,,,
,,,,,,,,,,,X V Q F H G B L J M P D K C T S W R N Z,5dc33f755cb36e260a5598c0,20,Mężczyzna,2022-06-11_09h08.40.462,task,2021.1.4,Linux x86_64,119.9616123,6299f149e92ead563fba08ef,62a43f58dccc56a313b11709,,,,,,,,,,,,,,,,,,,,,,,,,,,,,,,,,,,,,,,,,,,,,,,,,,,,,,,,,,,,,,,,,,,,,,,,,,,,3,0,3,0,1,,,,,,,,,,,,,,,,,,,,,
,,,,,,,,,,,,5dc33f755cb36e260a5598c0,20,Mężczyzna,2022-06-11_09h08.40.462,task,2021.1.4,Linux x86_64,119.9616123,6299f149e92ead563fba08ef,62a43f58dccc56a313b11709,,,,,,,,,,,,,4,,,,,,,,,,Task,11,(18/3) - 2,4,,,,,,,,,,,,,,,,,,,1,,,,,,,,,,,,,,,,,,,,,,,"[""4""]",1,[4.54950000000008],0,0,0,10,1,,,,,,,,,,,,,,,,,,,,,,,,,,
,,,,,,,,,,,X V Q F H G B L J M P D K C T S W R N Z,5dc33f755cb36e260a5598c0,20,Mężczyzna,2022-06-11_09h08.40.462,task,2021.1.4,Linux x86_64,119.9616123,6299f149e92ead563fba08ef,62a43f58dccc56a313b11709,,,,,,,,,,,,,,,,,,,,,,,,,,,,,,,,,,,,,,,,,,,,,,,,,,,,,,,,,,,,,,,,,,,,,,,,,,,,4,0,4,0,1,,,,,,,,,,,,,,,,,,,,,
,,,,,,,,,,,,5dc33f755cb36e260a5598c0,20,Mężczyzna,2022-06-11_09h08.40.462,task,2021.1.4,Linux x86_64,119.9616123,6299f149e92ead563fba08ef,62a43f58dccc56a313b11709,,,,,,,,,,,,,,,,,,,,,,,,,,,,,,,,,,,,,,,,,,,,,,,,,,,,,,,,,,,,,,,,,,,,,,,,,,,,,,,,,tdtjvg,"[""t"",""d"",""t"",""j"",""v"",""g""]",0,"[1.6428999999999405,1.9205999999999221,3.3263999999999214,3.6854999999999336,3.906799999999862,4.168999999999983,5.000999999999976]",1,DTJVG,4,0,4,0,1,,,,,,,,,,
,,,,,,,,,,,,5dc33f755cb36e260a5598c0,20,Mężczyzna,2022-06-11_09h08.40.462,task,2021.1.4,Linux x86_64,119.9616123,6299f149e92ead563fba08ef,62a43f58dccc56a313b11709,,,,,,,,,,,,,3,,,,,,,,,,Task,27,(3/3) + 2,3,,,,,,,,,,,,,,,,,,,1,,,,,,,,,,,,,,,,,,,,,,,"[""3""]",1,[2.502700000000118],0,0,0,26,1,,,,,,,,,,,,,,,,,,,,,,,,,,
,,,,,,,,,,,X V Q F H G B L J M P D K C T S W R N Z,5dc33f755cb36e260a5598c0,20,Mężczyzna,2022-06-11_09h08.40.462,task,2021.1.4,Linux x86_64,119.9616123,6299f149e92ead563fba08ef,62a43f58dccc56a313b11709,,,,,,,,,,,,,,,,,,,,,,,,,,,,,,,,,,,,,,,,,,,,,,,,,,,,,,,,,,,,,,,,,,,,,,,,,,,,0,0,0,0,1,,,,,,,,,,,,,,,,,,,,,
,,,,,,,,,,,,5dc33f755cb36e260a5598c0,20,Mężczyzna,2022-06-11_09h08.40.462,task,2021.1.4,Linux x86_64,119.9616123,6299f149e92ead563fba08ef,62a43f58dccc56a313b11709,,,,,,,,,,,,,4,,,,,,,,,,Task,4,(1x5) - 1,4,,,,,,,,,,,,,,,,,,,1,,,,,,,,,,,,,,,,,,,,,,,"[""4""]",1,[2.29079999999999],0,0,0,3,1,,,,,,,,,,,,,,,,,,,,,,,,,,
,,,,,,,,,,,X V Q F H G B L J M P D K C T S W R N Z,5dc33f755cb36e260a5598c0,20,Mężczyzna,2022-06-11_09h08.40.462,task,2021.1.4,Linux x86_64,119.9616123,6299f149e92ead563fba08ef,62a43f58dccc56a313b11709,,,,,,,,,,,,,,,,,,,,,,,,,,,,,,,,,,,,,,,,,,,,,,,,,,,,,,,,,,,,,,,,,,,,,,,,,,,,1,0,1,0,1,,,,,,,,,,,,,,,,,,,,,
,,,,,,,,,,,,5dc33f755cb36e260a5598c0,20,Mężczyzna,2022-06-11_09h08.40.462,task,2021.1.4,Linux x86_64,119.9616123,6299f149e92ead563fba08ef,62a43f58dccc56a313b11709,,,,,,,,,,,,,7,,,,,,,,,,Task,6,(12/2) + 1,7,,,,,,,,,,,,,,,,,,,1,,,,,,,,,,,,,,,,,,,,,,,"[""7""]",1,[1.90949999999998],0,0,0,5,1,,,,,,,,,,,,,,,,,,,,,,,,,,
,,,,,,,,,,,X V Q F H G B L J M P D K C T S W R N Z,5dc33f755cb36e260a5598c0,20,Mężczyzna,2022-06-11_09h08.40.462,task,2021.1.4,Linux x86_64,119.9616123,6299f149e92ead563fba08ef,62a43f58dccc56a313b11709,,,,,,,,,,,,,,,,,,,,,,,,,,,,,,,,,,,,,,,,,,,,,,,,,,,,,,,,,,,,,,,,,,,,,,,,,,,,2,0,2,0,1,,,,,,,,,,,,,,,,,,,,,
,,,,,,,,,,,,5dc33f755cb36e260a5598c0,20,Mężczyzna,2022-06-11_09h08.40.462,task,2021.1.4,Linux x86_64,119.9616123,6299f149e92ead563fba08ef,62a43f58dccc56a313b11709,,,,,,,,,,,,,0,,,,,,,,,,Task,8,(1x5) - 5,0,,,,,,,,,,,,,,,,,,,1,,,,,,,,,,,,,,,,,,,,,,,"[""0""]",1,[1.7773999999999432],0,0,0,7,1,,,,,,,,,,,,,,,,,,,,,,,,,,
,,,,,,,,,,,X V Q F H G B L J M P D K C T S W R N Z,5dc33f755cb36e260a5598c0,20,Mężczyzna,2022-06-11_09h08.40.462,task,2021.1.4,Linux x86_64,119.9616123,6299f149e92ead563fba08ef,62a43f58dccc56a313b11709,,,,,,,,,,,,,,,,,,,,,,,,,,,,,,,,,,,,,,,,,,,,,,,,,,,,,,,,,,,,,,,,,,,,,,,,,,,,3,0,3,0,1,,,,,,,,,,,,,,,,,,,,,
,,,,,,,,,,,,5dc33f755cb36e260a5598c0,20,Mężczyzna,2022-06-11_09h08.40.462,task,2021.1.4,Linux x86_64,119.9616123,6299f149e92ead563fba08ef,62a43f58dccc56a313b11709,,,,,,,,,,,,,7,,,,,,,,,,Task,31,(4/2) + 5,7,,,,,,,,,,,,,,,,,,,1,,,,,,,,,,,,,,,,,,,,,,,"[""7""]",1,[5.556299999999965],0,0,0,30,1,,,,,,,,,,,,,,,,,,,,,,,,,,
,,,,,,,,,,,X V Q F H G B L J M P D K C T S W R N Z,5dc33f755cb36e260a5598c0,20,Mężczyzna,2022-06-11_09h08.40.462,task,2021.1.4,Linux x86_64,119.9616123,6299f149e92ead563fba08ef,62a43f58dccc56a313b11709,,,,,,,,,,,,,,,,,,,,,,,,,,,,,,,,,,,,,,,,,,,,,,,,,,,,,,,,,,,,,,,,,,,,,,,,,,,,4,0,4,0,1,,,,,,,,,,,,,,,,,,,,,
,,,,,,,,,,,,5dc33f755cb36e260a5598c0,20,Mężczyzna,2022-06-11_09h08.40.462,task,2021.1.4,Linux x86_64,119.9616123,6299f149e92ead563fba08ef,62a43f58dccc56a313b11709,,,,,,,,,,,,,5,,,,,,,,,,Task,36,(8/4) + 3,5,,,,,,,,,,,,,,,,,,,1,,,,,,,,,,,,,,,,,,,,,,,"[""5""]",1,[3.9262999999999693],0,0,0,35,1,,,,,,,,,,,,,,,,,,,,,,,,,,
,,,,,,,,,,,X V Q F H G B L J M P D K C T S W R N Z,5dc33f755cb36e260a5598c0,20,Mężczyzna,2022-06-11_09h08.40.462,task,2021.1.4,Linux x86_64,119.9616123,6299f149e92ead563fba08ef,62a43f58dccc56a313b11709,,,,,,,,,,,,,,,,,,,,,,,,,,,,,,,,,,,,,,,,,,,,,,,,,,,,,,,,,,,,,,,,,,,,,,,,,,,,5,0,5,0,1,,,,,,,,,,,,,,,,,,,,,
,,,,,,,,,,,,5dc33f755cb36e260a5598c0,20,Mężczyzna,2022-06-11_09h08.40.462,task,2021.1.4,Linux x86_64,119.9616123,6299f149e92ead563fba08ef,62a43f58dccc56a313b11709,,,,,,,,,,,,,,,,,,,,,,,,,,,,,,,,,,,,,,,,,,,,,,,,,,,,,,,,,,,,,,,,,,,,,,,,,,,,,,,,,zmvwpx,"[""z"",""m"",""v"",""w"",""p"",""x""]",0,"[1.5728000000000293,1.7685999999999922,2.096400000000017,2.6953000000000884,2.999900000000025,3.392300000000091,5.102700000000027]",1,ZMVWPX,5,0,5,0,1,,,,,,,,,,
,,,,,,,,,,,,5dc33f755cb36e260a5598c0,20,Mężczyzna,2022-06-11_09h08.40.462,task,2021.1.4,Linux x86_64,119.9616123,6299f149e92ead563fba08ef,62a43f58dccc56a313b11709,,,,,,,,,,,,,,,,,,,,,,,Task,29,(3x8) - 19 ,5,,,,,,,,,,,,,,,,,,,0,,,,,,,,,,,,,,,,,,,,,,,,0,,0,0,0,28,1,,,,,,,,,,,,,,,,,,,,,,,,,,
,,,,,,,,,,,,5dc33f755cb36e260a5598c0,20,Mężczyzna,2022-06-11_09h08.40.462,task,2021.1.4,Linux x86_64,119.9616123,6299f149e92ead563fba08ef,62a43f58dccc56a313b11709,,,,,,,,,,,,,4,,,,,,,,,,Task,28,(2x5) - 6,4,,,,,,,,,,,,,,,,,,,1,,,,,,,,,,,,,,,,,,,,,,,"[""4""]",1,[3.792500000000018],0,1,1,27,1,,,,,,,,,,,,,,,,,,,,,,,,,,
,,,,,,,,,,,X V Q F H G B L J M P D K C T S W R N Z,5dc33f755cb36e260a5598c0,20,Mężczyzna,2022-06-11_09h08.40.462,task,2021.1.4,Linux x86_64,119.9616123,6299f149e92ead563fba08ef,62a43f58dccc56a313b11709,,,,,,,,,,,,,,,,,,,,,,,,,,,,,,,,,,,,,,,,,,,,,,,,,,,,,,,,,,,,,,,,,,,,,,,,,,,,0,0,0,0,1,,,,,,,,,,,,,,,,,,,,,
,,,,,,,,,,,,5dc33f755cb36e260a5598c0,20,Mężczyzna,2022-06-11_09h08.40.462,task,2021.1.4,Linux x86_64,119.9616123,6299f149e92ead563fba08ef,62a43f58dccc56a313b11709,,,,,,,,,,,,,4,,,,,,,,,,Task,11,(18/3) - 2,4,,,,,,,,,,,,,,,,,,,1,,,,,,,,,,,,,,,,,,,,,,,"[""4""]",1,[4.610000000000014],0,0,0,10,1,,,,,,,,,,,,,,,,,,,,,,,,,,
,,,,,,,,,,,X V Q F H G B L J M P D K C T S W R N Z,5dc33f755cb36e260a5598c0,20,Mężczyzna,2022-06-11_09h08.40.462,task,2021.1.4,Linux x86_64,119.9616123,6299f149e92ead563fba08ef,62a43f58dccc56a313b11709,,,,,,,,,,,,,,,,,,,,,,,,,,,,,,,,,,,,,,,,,,,,,,,,,,,,,,,,,,,,,,,,,,,,,,,,,,,,1,0,1,0,1,,,,,,,,,,,,,,,,,,,,,
,,,,,,,,,,,,5dc33f755cb36e260a5598c0,20,Mężczyzna,2022-06-11_09h08.40.462,task,2021.1.4,Linux x86_64,119.9616123,6299f149e92ead563fba08ef,62a43f58dccc56a313b11709,,,,,,,,,,,,,2,,,,,,,,,,Task,10,(2x5) - 8,2,,,,,,,,,,,,,,,,,,,1,,,,,,,,,,,,,,,,,,,,,,,"[""2""]",1,[1.7565999999999349],0,0,0,9,1,,,,,,,,,,,,,,,,,,,,,,,,,,
,,,,,,,,,,,X V Q F H G B L J M P D K C T S W R N Z,5dc33f755cb36e260a5598c0,20,Mężczyzna,2022-06-11_09h08.40.462,task,2021.1.4,Linux x86_64,119.9616123,6299f149e92ead563fba08ef,62a43f58dccc56a313b11709,,,,,,,,,,,,,,,,,,,,,,,,,,,,,,,,,,,,,,,,,,,,,,,,,,,,,,,,,,,,,,,,,,,,,,,,,,,,2,0,2,0,1,,,,,,,,,,,,,,,,,,,,,
,,,,,,,,,,,,5dc33f755cb36e260a5598c0,20,Mężczyzna,2022-06-11_09h08.40.462,task,2021.1.4,Linux x86_64,119.9616123,6299f149e92ead563fba08ef,62a43f58dccc56a313b11709,,,,,,,,,,,,,7,,,,,,,,,,Task,31,(4/2) + 5,7,,,,,,,,,,,,,,,,,,,1,,,,,,,,,,,,,,,,,,,,,,,"[""7""]",1,[4.099199999999996],0,0,0,30,1,,,,,,,,,,,,,,,,,,,,,,,,,,
,,,,,,,,,,,X V Q F H G B L J M P D K C T S W R N Z,5dc33f755cb36e260a5598c0,20,Mężczyzna,2022-06-11_09h08.40.462,task,2021.1.4,Linux x86_64,119.9616123,6299f149e92ead563fba08ef,62a43f58dccc56a313b11709,,,,,,,,,,,,,,,,,,,,,,,,,,,,,,,,,,,,,,,,,,,,,,,,,,,,,,,,,,,,,,,,,,,,,,,,,,,,3,0,3,0,1,,,,,,,,,,,,,,,,,,,,,
,,,,,,,,,,,,5dc33f755cb36e260a5598c0,20,Mężczyzna,2022-06-11_09h08.40.462,task,2021.1.4,Linux x86_64,119.9616123,6299f149e92ead563fba08ef,62a43f58dccc56a313b11709,,,,,,,,,,,,,1,,,,,,,,,,Task,1,(12/6) - 1,1,,,,,,,,,,,,,,,,,,,1,,,,,,,,,,,,,,,,,,,,,,,"[""1""]",1,[4.616999999999962],0,0,0,0,1,,,,,,,,,,,,,,,,,,,,,,,,,,
,,,,,,,,,,,X V Q F H G B L J M P D K C T S W R N Z,5dc33f755cb36e260a5598c0,20,Mężczyzna,2022-06-11_09h08.40.462,task,2021.1.4,Linux x86_64,119.9616123,6299f149e92ead563fba08ef,62a43f58dccc56a313b11709,,,,,,,,,,,,,,,,,,,,,,,,,,,,,,,,,,,,,,,,,,,,,,,,,,,,,,,,,,,,,,,,,,,,,,,,,,,,4,0,4,0,1,,,,,,,,,,,,,,,,,,,,,
,,,,,,,,,,,,5dc33f755cb36e260a5598c0,20,Mężczyzna,2022-06-11_09h08.40.462,task,2021.1.4,Linux x86_64,119.9616123,6299f149e92ead563fba08ef,62a43f58dccc56a313b11709,,,,,,,,,,,,,2,,,,,,,,,,Task,2,(2x2) - 2,2,,,,,,,,,,,,,,,,,,,1,,,,,,,,,,,,,,,,,,,,,,,"[""2""]",1,[3.7144000000000688],0,0,0,1,1,,,,,,,,,,,,,,,,,,,,,,,,,,
,,,,,,,,,,,X V Q F H G B L J M P D K C T S W R N Z,5dc33f755cb36e260a5598c0,20,Mężczyzna,2022-06-11_09h08.40.462,task,2021.1.4,Linux x86_64,119.9616123,6299f149e92ead563fba08ef,62a43f58dccc56a313b11709,,,,,,,,,,,,,,,,,,,,,,,,,,,,,,,,,,,,,,,,,,,,,,,,,,,,,,,,,,,,,,,,,,,,,,,,,,,,5,0,5,0,1,,,,,,,,,,,,,,,,,,,,,
,,,,,,,,,,,,5dc33f755cb36e260a5598c0,20,Mężczyzna,2022-06-11_09h08.40.462,task,2021.1.4,Linux x86_64,119.9616123,6299f149e92ead563fba08ef,62a43f58dccc56a313b11709,,,,,,,,,,,,,2,,,,,,,,,,Task,10,(2x5) - 8,2,,,,,,,,,,,,,,,,,,,1,,,,,,,,,,,,,,,,,,,,,,,"[""2""]",1,[2.6154000000000224],0,0,0,9,1,,,,,,,,,,,,,,,,,,,,,,,,,,
,,,,,,,,,,,X V Q F H G B L J M P D K C T S W R N Z,5dc33f755cb36e260a5598c0,20,Mężczyzna,2022-06-11_09h08.40.462,task,2021.1.4,Linux x86_64,119.9616123,6299f149e92ead563fba08ef,62a43f58dccc56a313b11709,,,,,,,,,,,,,,,,,,,,,,,,,,,,,,,,,,,,,,,,,,,,,,,,,,,,,,,,,,,,,,,,,,,,,,,,,,,,6,0,6,0,1,,,,,,,,,,,,,,,,,,,,,
,,,,,,,,,,,,5dc33f755cb36e260a5598c0,20,Mężczyzna,2022-06-11_09h08.40.462,task,2021.1.4,Linux x86_64,119.9616123,6299f149e92ead563fba08ef,62a43f58dccc56a313b11709,,,,,,,,,,,,,,,,,,,,,,,,,,,,,,,,,,,,,,,,,,,,,,,,,,,,,,,,,,,,,,,,,,,,,,,,,,,,,,,,,blxlqrc,"[""b"",""l"",""x"",""l"",""q"",""r"",""c""]",0,"[1.8365999999999758,2.0655000000000427,2.3170000000000073,2.6054000000000315,3.1618000000000848,3.4179000000000315,3.6649999999999636,4.426800000000071]",1,BLXLQRC,6,0,6,0,1,,,,,,,,,,
,,,,,,,,,,,,5dc33f755cb36e260a5598c0,20,Mężczyzna,2022-06-11_09h08.40.462,task,2021.1.4,Linux x86_64,119.9616123,6299f149e92ead563fba08ef,62a43f58dccc56a313b11709,,,,,,,,,,,,,3,,,,,,,,,,Task,35,(1x2) + 1,3,,,,,,,,,,,,,,,,,,,1,,,,,,,,,,,,,,,,,,,,,,,"[""3""]",1,[4.030000000000086],0,0,0,34,1,,,,,,,,,,,,,,,,,,,,,,,,,,
,,,,,,,,,,,X V Q F H G B L J M P D K C T S W R N Z,5dc33f755cb36e260a5598c0,20,Mężczyzna,2022-06-11_09h08.40.462,task,2021.1.4,Linux x86_64,119.9616123,6299f149e92ead563fba08ef,62a43f58dccc56a313b11709,,,,,,,,,,,,,,,,,,,,,,,,,,,,,,,,,,,,,,,,,,,,,,,,,,,,,,,,,,,,,,,,,,,,,,,,,,,,0,0,0,0,1,,,,,,,,,,,,,,,,,,,,,
,,,,,,,,,,,,5dc33f755cb36e260a5598c0,20,Mężczyzna,2022-06-11_09h08.40.462,task,2021.1.4,Linux x86_64,119.9616123,6299f149e92ead563fba08ef,62a43f58dccc56a313b11709,,,,,,,,,,,,,2,,,,,,,,,,Task,26,(2x9) - 16,2,,,,,,,,,,,,,,,,,,,1,,,,,,,,,,,,,,,,,,,,,,,"[""2""]",1,[3.154899999999998],0,0,0,25,1,,,,,,,,,,,,,,,,,,,,,,,,,,
,,,,,,,,,,,X V Q F H G B L J M P D K C T S W R N Z,5dc33f755cb36e260a5598c0,20,Mężczyzna,2022-06-11_09h08.40.462,task,2021.1.4,Linux x86_64,119.9616123,6299f149e92ead563fba08ef,62a43f58dccc56a313b11709,,,,,,,,,,,,,,,,,,,,,,,,,,,,,,,,,,,,,,,,,,,,,,,,,,,,,,,,,,,,,,,,,,,,,,,,,,,,1,0,1,0,1,,,,,,,,,,,,,,,,,,,,,
,,,,,,,,,,,,5dc33f755cb36e260a5598c0,20,Mężczyzna,2022-06-11_09h08.40.462,task,2021.1.4,Linux x86_64,119.9616123,6299f149e92ead563fba08ef,62a43f58dccc56a313b11709,,,,,,,,,,,,,1,,,,,,,,,,Task,18,(16/4) - 3,1,,,,,,,,,,,,,,,,,,,1,,,,,,,,,,,,,,,,,,,,,,,"[""1""]",1,[3.887499999999932],0,0,0,17,1,,,,,,,,,,,,,,,,,,,,,,,,,,
,,,,,,,,,,,X V Q F H G B L J M P D K C T S W R N Z,5dc33f755cb36e260a5598c0,20,Mężczyzna,2022-06-11_09h08.40.462,task,2021.1.4,Linux x86_64,119.9616123,6299f149e92ead563fba08ef,62a43f58dccc56a313b11709,,,,,,,,,,,,,,,,,,,,,,,,,,,,,,,,,,,,,,,,,,,,,,,,,,,,,,,,,,,,,,,,,,,,,,,,,,,,2,0,2,0,1,,,,,,,,,,,,,,,,,,,,,
,,,,,,,,,,,,5dc33f755cb36e260a5598c0,20,Mężczyzna,2022-06-11_09h08.40.462,task,2021.1.4,Linux x86_64,119.9616123,6299f149e92ead563fba08ef,62a43f58dccc56a313b11709,,,,,,,,,,,,,8,,,,,,,,,,Task,32,(8/2) + 4,8,,,,,,,,,,,,,,,,,,,1,,,,,,,,,,,,,,,,,,,,,,,"[""8""]",1,[2.810799999999972],0,0,0,31,1,,,,,,,,,,,,,,,,,,,,,,,,,,
,,,,,,,,,,,X V Q F H G B L J M P D K C T S W R N Z,5dc33f755cb36e260a5598c0,20,Mężczyzna,2022-06-11_09h08.40.462,task,2021.1.4,Linux x86_64,119.9616123,6299f149e92ead563fba08ef,62a43f58dccc56a313b11709,,,,,,,,,,,,,,,,,,,,,,,,,,,,,,,,,,,,,,,,,,,,,,,,,,,,,,,,,,,,,,,,,,,,,,,,,,,,3,0,3,0,1,,,,,,,,,,,,,,,,,,,,,
,,,,,,,,,,,,5dc33f755cb36e260a5598c0,20,Mężczyzna,2022-06-11_09h08.40.462,task,2021.1.4,Linux x86_64,119.9616123,6299f149e92ead563fba08ef,62a43f58dccc56a313b11709,,,,,,,,,,,,,3,,,,,,,,,,Task,20,(18/9) + 1,3,,,,,,,,,,,,,,,,,,,1,,,,,,,,,,,,,,,,,,,,,,,"[""3""]",1,[2.393299999999954],0,0,0,19,1,,,,,,,,,,,,,,,,,,,,,,,,,,
,,,,,,,,,,,X V Q F H G B L J M P D K C T S W R N Z,5dc33f755cb36e260a5598c0,20,Mężczyzna,2022-06-11_09h08.40.462,task,2021.1.4,Linux x86_64,119.9616123,6299f149e92ead563fba08ef,62a43f58dccc56a313b11709,,,,,,,,,,,,,,,,,,,,,,,,,,,,,,,,,,,,,,,,,,,,,,,,,,,,,,,,,,,,,,,,,,,,,,,,,,,,4,0,4,0,1,,,,,,,,,,,,,,,,,,,,,
,,,,,,,,,,,,5dc33f755cb36e260a5598c0,20,Mężczyzna,2022-06-11_09h08.40.462,task,2021.1.4,Linux x86_64,119.9616123,6299f149e92ead563fba08ef,62a43f58dccc56a313b11709,,,,,,,,,,,,,0,,,,,,,,,,Task,25,(10/5) - 2,0,,,,,,,,,,,,,,,,,,,1,,,,,,,,,,,,,,,,,,,,,,,"[""0""]",1,[4.586800000000039],0,0,0,24,1,,,,,,,,,,,,,,,,,,,,,,,,,,
,,,,,,,,,,,X V Q F H G B L J M P D K C T S W R N Z,5dc33f755cb36e260a5598c0,20,Mężczyzna,2022-06-11_09h08.40.462,task,2021.1.4,Linux x86_64,119.9616123,6299f149e92ead563fba08ef,62a43f58dccc56a313b11709,,,,,,,,,,,,,,,,,,,,,,,,,,,,,,,,,,,,,,,,,,,,,,,,,,,,,,,,,,,,,,,,,,,,,,,,,,,,5,0,5,0,1,,,,,,,,,,,,,,,,,,,,,
,,,,,,,,,,,,5dc33f755cb36e260a5598c0,20,Mężczyzna,2022-06-11_09h08.40.462,task,2021.1.4,Linux x86_64,119.9616123,6299f149e92ead563fba08ef,62a43f58dccc56a313b11709,,,,,,,,,,,,,6,,,,,,,,,,Task,30,(6/3) + 4 ,6,,,,,,,,,,,,,,,,,,,1,,,,,,,,,,,,,,,,,,,,,,,"[""6""]",1,[4.772099999999909],0,0,0,29,1,,,,,,,,,,,,,,,,,,,,,,,,,,
,,,,,,,,,,,X V Q F H G B L J M P D K C T S W R N Z,5dc33f755cb36e260a5598c0,20,Mężczyzna,2022-06-11_09h08.40.462,task,2021.1.4,Linux x86_64,119.9616123,6299f149e92ead563fba08ef,62a43f58dccc56a313b11709,,,,,,,,,,,,,,,,,,,,,,,,,,,,,,,,,,,,,,,,,,,,,,,,,,,,,,,,,,,,,,,,,,,,,,,,,,,,6,0,6,0,1,,,,,,,,,,,,,,,,,,,,,
,,,,,,,,,,,,5dc33f755cb36e260a5598c0,20,Mężczyzna,2022-06-11_09h08.40.462,task,2021.1.4,Linux x86_64,119.9616123,6299f149e92ead563fba08ef,62a43f58dccc56a313b11709,,,,,,,,,,,,,1,,,,,,,,,,Task,18,(16/4) - 3,1,,,,,,,,,,,,,,,,,,,1,,,,,,,,,,,,,,,,,,,,,,,"[""1""]",1,[5.411199999999894],0,0,0,17,1,,,,,,,,,,,,,,,,,,,,,,,,,,
,,,,,,,,,,,X V Q F H G B L J M P D K C T S W R N Z,5dc33f755cb36e260a5598c0,20,Mężczyzna,2022-06-11_09h08.40.462,task,2021.1.4,Linux x86_64,119.9616123,6299f149e92ead563fba08ef,62a43f58dccc56a313b11709,,,,,,,,,,,,,,,,,,,,,,,,,,,,,,,,,,,,,,,,,,,,,,,,,,,,,,,,,,,,,,,,,,,,,,,,,,,,7,0,7,0,1,,,,,,,,,,,,,,,,,,,,,
,,,,,,,,,,,,5dc33f755cb36e260a5598c0,20,Mężczyzna,2022-06-11_09h08.40.462,task,2021.1.4,Linux x86_64,119.9616123,6299f149e92ead563fba08ef,62a43f58dccc56a313b11709,,,,,,,,,,,,,,,,,,,,,,,,,,,,,,,,,,,,,,,,,,,,,,,,,,,,,,,,,,,,,,,,,,,,,,,,,,,,,,,,,phxpmqhm,"[""p"",""h"",""x"",""p"",""m"",""q"",""h"",""m""]",0,"[1.9180000000000064,2.2543000000000575,2.8395000000000437,4.362700000000018,4.572099999999978,5.660200000000032,5.939099999999939,7.689899999999966,8.61480000000006]",0,PHQXPMHQ,7,0,7,0,1,,,,,,,,,,
,,,,,,,,,,,,5dc33f755cb36e260a5598c0,20,Mężczyzna,2022-06-11_09h08.40.462,task,2021.1.4,Linux x86_64,119.9616123,6299f149e92ead563fba08ef,62a43f58dccc56a313b11709,,,,,,,,,,,,,1,,,,,,,,,,Task,9,(3x7) - 20,1,,,,,,,,,,,,,,,,,,,1,,,,,,,,,,,,,,,,,,,,,,,"[""1""]",1,[3.745800000000031],0,0,0,8,1,,,,,,,,,,,,,,,,,,,,,,,,,,
,,,,,,,,,,,X V Q F H G B L J M P D K C T S W R N Z,5dc33f755cb36e260a5598c0,20,Mężczyzna,2022-06-11_09h08.40.462,task,2021.1.4,Linux x86_64,119.9616123,6299f149e92ead563fba08ef,62a43f58dccc56a313b11709,,,,,,,,,,,,,,,,,,,,,,,,,,,,,,,,,,,,,,,,,,,,,,,,,,,,,,,,,,,,,,,,,,,,,,,,,,,,0,0,0,0,1,,,,,,,,,,,,,,,,,,,,,
,,,,,,,,,,,,5dc33f755cb36e260a5598c0,20,Mężczyzna,2022-06-11_09h08.40.462,task,2021.1.4,Linux x86_64,119.9616123,6299f149e92ead563fba08ef,62a43f58dccc56a313b11709,,,,,,,,,,,,,0,,,,,,,,,,Task,25,(10/5) - 2,0,,,,,,,,,,,,,,,,,,,1,,,,,,,,,,,,,,,,,,,,,,,"[""0""]",1,[2.824000000000069],0,0,0,24,1,,,,,,,,,,,,,,,,,,,,,,,,,,
,,,,,,,,,,,X V Q F H G B L J M P D K C T S W R N Z,5dc33f755cb36e260a5598c0,20,Mężczyzna,2022-06-11_09h08.40.462,task,2021.1.4,Linux x86_64,119.9616123,6299f149e92ead563fba08ef,62a43f58dccc56a313b11709,,,,,,,,,,,,,,,,,,,,,,,,,,,,,,,,,,,,,,,,,,,,,,,,,,,,,,,,,,,,,,,,,,,,,,,,,,,,1,0,1,0,1,,,,,,,,,,,,,,,,,,,,,
,,,,,,,,,,,,5dc33f755cb36e260a5598c0,20,Mężczyzna,2022-06-11_09h08.40.462,task,2021.1.4,Linux x86_64,119.9616123,6299f149e92ead563fba08ef,62a43f58dccc56a313b11709,,,,,,,,,,,,,7,,,,,,,,,,Task,31,(4/2) + 5,7,,,,,,,,,,,,,,,,,,,1,,,,,,,,,,,,,,,,,,,,,,,"[""7""]",1,[5.710699999999974],0,0,0,30,1,,,,,,,,,,,,,,,,,,,,,,,,,,
,,,,,,,,,,,X V Q F H G B L J M P D K C T S W R N Z,5dc33f755cb36e260a5598c0,20,Mężczyzna,2022-06-11_09h08.40.462,task,2021.1.4,Linux x86_64,119.9616123,6299f149e92ead563fba08ef,62a43f58dccc56a313b11709,,,,,,,,,,,,,,,,,,,,,,,,,,,,,,,,,,,,,,,,,,,,,,,,,,,,,,,,,,,,,,,,,,,,,,,,,,,,2,0,2,0,1,,,,,,,,,,,,,,,,,,,,,
,,,,,,,,,,,,5dc33f755cb36e260a5598c0,20,Mężczyzna,2022-06-11_09h08.40.462,task,2021.1.4,Linux x86_64,119.9616123,6299f149e92ead563fba08ef,62a43f58dccc56a313b11709,,,,,,,,,,,,,1,,,,,,,,,,Task,18,(16/4) - 3,1,,,,,,,,,,,,,,,,,,,1,,,,,,,,,,,,,,,,,,,,,,,"[""1""]",1,[3.5311000000000377],0,0,0,17,1,,,,,,,,,,,,,,,,,,,,,,,,,,
,,,,,,,,,,,X V Q F H G B L J M P D K C T S W R N Z,5dc33f755cb36e260a5598c0,20,Mężczyzna,2022-06-11_09h08.40.462,task,2021.1.4,Linux x86_64,119.9616123,6299f149e92ead563fba08ef,62a43f58dccc56a313b11709,,,,,,,,,,,,,,,,,,,,,,,,,,,,,,,,,,,,,,,,,,,,,,,,,,,,,,,,,,,,,,,,,,,,,,,,,,,,3,0,3,0,1,,,,,,,,,,,,,,,,,,,,,
,,,,,,,,,,,,5dc33f755cb36e260a5598c0,20,Mężczyzna,2022-06-11_09h08.40.462,task,2021.1.4,Linux x86_64,119.9616123,6299f149e92ead563fba08ef,62a43f58dccc56a313b11709,,,,,,,,,,,,,6,,,,,,,,,,Task,5,(2x3) + 0,6,,,,,,,,,,,,,,,,,,,1,,,,,,,,,,,,,,,,,,,,,,,"[""6""]",1,[2.7485000000000355],0,0,0,4,1,,,,,,,,,,,,,,,,,,,,,,,,,,
,,,,,,,,,,,X V Q F H G B L J M P D K C T S W R N Z,5dc33f755cb36e260a5598c0,20,Mężczyzna,2022-06-11_09h08.40.462,task,2021.1.4,Linux x86_64,119.9616123,6299f149e92ead563fba08ef,62a43f58dccc56a313b11709,,,,,,,,,,,,,,,,,,,,,,,,,,,,,,,,,,,,,,,,,,,,,,,,,,,,,,,,,,,,,,,,,,,,,,,,,,,,4,0,4,0,1,,,,,,,,,,,,,,,,,,,,,
,,,,,,,,,,,,5dc33f755cb36e260a5598c0,20,Mężczyzna,2022-06-11_09h08.40.462,task,2021.1.4,Linux x86_64,119.9616123,6299f149e92ead563fba08ef,62a43f58dccc56a313b11709,,,,,,,,,,,,,9,,,,,,,,,,Task,7,(3x7) - 12,9,,,,,,,,,,,,,,,,,,,1,,,,,,,,,,,,,,,,,,,,,,,"[""9""]",1,[5.446099999999888],0,0,0,6,1,,,,,,,,,,,,,,,,,,,,,,,,,,
,,,,,,,,,,,X V Q F H G B L J M P D K C T S W R N Z,5dc33f755cb36e260a5598c0,20,Mężczyzna,2022-06-11_09h08.40.462,task,2021.1.4,Linux x86_64,119.9616123,6299f149e92ead563fba08ef,62a43f58dccc56a313b11709,,,,,,,,,,,,,,,,,,,,,,,,,,,,,,,,,,,,,,,,,,,,,,,,,,,,,,,,,,,,,,,,,,,,,,,,,,,,5,0,5,0,1,,,,,,,,,,,,,,,,,,,,,
,,,,,,,,,,,,5dc33f755cb36e260a5598c0,20,Mężczyzna,2022-06-11_09h08.40.462,task,2021.1.4,Linux x86_64,119.9616123,6299f149e92ead563fba08ef,62a43f58dccc56a313b11709,,,,,,,,,,,,,7,,,,,,,,,,Task,6,(12/2) + 1,7,,,,,,,,,,,,,,,,,,,1,,,,,,,,,,,,,,,,,,,,,,,"[""7""]",1,[4.541499999999928],0,0,0,5,1,,,,,,,,,,,,,,,,,,,,,,,,,,
,,,,,,,,,,,X V Q F H G B L J M P D K C T S W R N Z,5dc33f755cb36e260a5598c0,20,Mężczyzna,2022-06-11_09h08.40.462,task,2021.1.4,Linux x86_64,119.9616123,6299f149e92ead563fba08ef,62a43f58dccc56a313b11709,,,,,,,,,,,,,,,,,,,,,,,,,,,,,,,,,,,,,,,,,,,,,,,,,,,,,,,,,,,,,,,,,,,,,,,,,,,,6,0,6,0,1,,,,,,,,,,,,,,,,,,,,,
,,,,,,,,,,,,5dc33f755cb36e260a5598c0,20,Mężczyzna,2022-06-11_09h08.40.462,task,2021.1.4,Linux x86_64,119.9616123,6299f149e92ead563fba08ef,62a43f58dccc56a313b11709,,,,,,,,,,,,,1,,,,,,,,,,Task,19,(6/2) - 1,2,,,,,,,,,,,,,,,,,,,0,,,,,,,,,,,,,,,,,,,,,,,"[""1""]",0,[6.285099999999943],0,0,0,18,1,,,,,,,,,,,,,,,,,,,,,,,,,,
,,,,,,,,,,,,5dc33f755cb36e260a5598c0,20,Mężczyzna,2022-06-11_09h08.40.462,task,2021.1.4,Linux x86_64,119.9616123,6299f149e92ead563fba08ef,62a43f58dccc56a313b11709,,,,,,,,,,,,,2,,,,,,,,,,Task,2,(2x2) - 2,2,,,,,,,,,,,,,,,,,,,1,,,,,,,,,,,,,,,,,,,,,,,"[""2""]",1,[4.231300000000033],0,1,1,1,1,,,,,,,,,,,,,,,,,,,,,,,,,,
,,,,,,,,,,,X V Q F H G B L J M P D K C T S W R N Z,5dc33f755cb36e260a5598c0,20,Mężczyzna,2022-06-11_09h08.40.462,task,2021.1.4,Linux x86_64,119.9616123,6299f149e92ead563fba08ef,62a43f58dccc56a313b11709,,,,,,,,,,,,,,,,,,,,,,,,,,,,,,,,,,,,,,,,,,,,,,,,,,,,,,,,,,,,,,,,,,,,,,,,,,,,7,0,7,0,1,,,,,,,,,,,,,,,,,,,,,
,,,,,,,,,,,,5dc33f755cb36e260a5598c0,20,Mężczyzna,2022-06-11_09h08.40.462,task,2021.1.4,Linux x86_64,119.9616123,6299f149e92ead563fba08ef,62a43f58dccc56a313b11709,,,,,,,,,,,,,,,,,,,,,,,,,,,,,,,,,,,,,,,,,,,,,,,,,,,,,,,,,,,,,,,,,,,,,,,,,,,,,,,,,dsfbxxb,"[""d"",""s"",""f"",""b"",""x"",""x"",""b""]",0,"[1.8196000000001504,2.0748000000000957,3.034700000000157,3.5054000000000087,3.8256000000001222,3.985400000000027,5.26400000000001,5.336000000000013]",0,DSFBHXXD,8,0,8,0,1,,,,,,,,,,
,,,,,,,,,,,,5dc33f755cb36e260a5598c0,20,Mężczyzna,2022-06-11_09h08.40.462,task,2021.1.4,Linux x86_64,119.9616123,6299f149e92ead563fba08ef,62a43f58dccc56a313b11709,,,,,,,,,,,,,,,,,,,,,,,,,,,,,,,,,,,,,,,,,,,,,,,,,,,,,,,,,,,,,,,,,,,,,,,,,,,,,,,,,,,,,,,,,,,,"[""comma""]",0,[1.8588000000000875],0,0,0,0,1,,
,,,,,,,,,,,,5dc33f755cb36e260a5598c0,20,Mężczyzna,2022-06-11_09h08.40.462,task,2021.1.4,Linux x86_64,119.9616123,6299f149e92ead563fba08ef,62a43f58dccc56a313b11709,,,,,,,,,,,,,,,,,,,,,,,,,,,,,,,,,,,,,,,,,,,,,,,,,,,,,,,,,,,,,,,,,,,,,,,,,,,,,,,,,,,,,,,,,,,,"[""comma""]",0,[1.730600000000095],1,0,1,0,1,,
,,,,,,,,,,,,5dc33f755cb36e260a5598c0,20,Mężczyzna,2022-06-11_09h08.40.462,task,2021.1.4,Linux x86_64,119.9616123,6299f149e92ead563fba08ef,62a43f58dccc56a313b11709,,,,,,,,,,,,,,,,,,,,,,,,,,,,,,,,,,,,,,,,,,,,,,,,,,,,,,,,,,,,,,,,,,,,,,,,,,,,,,,,,,,,,,,,,,,,"[""comma""]",0,[1.2027000000000498],2,0,2,0,1,,
,,,,,,,,,,,,5dc33f755cb36e260a5598c0,20,Mężczyzna,2022-06-11_09h08.40.462,task,2021.1.4,Linux x86_64,119.9616123,6299f149e92ead563fba08ef,62a43f58dccc56a313b11709,,,,,,,,,,,,,,,,,,,,,,,,,,,,,,,,,,,,,,,,,,,,,,,,,,,,,,,,,,,,,,,,,,,,,,,,,,,,,,,,,,,,,,,,,,,,"[""comma""]",0,[0.5883999999999787],3,0,3,0,1,,
,,,,,,,,,,,,5dc33f755cb36e260a5598c0,20,Mężczyzna,2022-06-11_09h08.40.462,task,2021.1.4,Linux x86_64,119.9616123,6299f149e92ead563fba08ef,62a43f58dccc56a313b11709,,,,,,,,,,,,,,,,,,,,,,,,,,,,,,,,,,,,,,,,,,,,,,,,,,,,,,,,,,,,,,,,,,,,,,,,,,,,,,,,,,,,,,,,,,,,"[""comma""]",0,[0.5751000000001341],4,0,4,0,1,,
,,,,,,,,,,,,5dc33f755cb36e260a5598c0,20,Mężczyzna,2022-06-11_09h08.40.462,task,2021.1.4,Linux x86_64,119.9616123,6299f149e92ead563fba08ef,62a43f58dccc56a313b11709,,,,,,,,,,,,,,,,,,,,,,,,,,,,,,,,,,,,,,,,,,,,,,,,,,,,,,,,,,,,,,,,,,,,,,,,,,,,,,,,,,,,,,,,,,,,"[""period""]",0,[0.3125],5,0,5,0,1,,
,,,,,,,,,,,,5dc33f755cb36e260a5598c0,20,Mężczyzna,2022-06-11_09h08.40.462,task,2021.1.4,Linux x86_64,119.9616123,6299f149e92ead563fba08ef,62a43f58dccc56a313b11709,,,,,,,,,,,,,,,,,,,,,,,,,,,,,,,,,,,,,,,,,,,,,,,,,,,,,,,,,,,,,,,,,,,,,,,,,,,,,,,,,,,,,,,,,,,,"[""period""]",0,[0.32970000000000255],6,0,6,0,1,,
,,,,,,,,,,,,5dc33f755cb36e260a5598c0,20,Mężczyzna,2022-06-11_09h08.40.462,task,2021.1.4,Linux x86_64,119.9616123,6299f149e92ead563fba08ef,62a43f58dccc56a313b11709,,,,,,,,,,,,,,,,,,,,,,,,,,,,,,,,,,,,,,,,,,,,,,,,,,,,,,,,,,,,,,,,,,,,,,,,,,,,,,,,,,,,,,,,,,,,"[""comma""]",0,[0.155100000000175],7,0,7,0,1,,
,,,,,,,,,,,,5dc33f755cb36e260a5598c0,20,Mężczyzna,2022-06-11_09h08.40.462,task,2021.1.4,Linux x86_64,119.9616123,6299f149e92ead563fba08ef,62a43f58dccc56a313b11709,,,,,,,,,,,,,,,,,,,,,,,,,,,,,,,,,,,,,,,,,,,,,,,,,,,,,,,,,,,,,,,,,,,,,,,,,,,,,,,,,,,,,,,,,,,,"[""period""]",0,[0.26949999999999363],8,0,8,0,1,,
,,,,,,,,,,,,5dc33f755cb36e260a5598c0,20,Mężczyzna,2022-06-11_09h08.40.462,task,2021.1.4,Linux x86_64,119.9616123,6299f149e92ead563fba08ef,62a43f58dccc56a313b11709,,,,,,,,,,,,,,,,,,,,,,,,,,,,,,,,,,,,,,,,,,,,,,,,,,,,,,,,,,,,,,,,,,,,,,,,,,,,,,,,,,,,,,,,,,,,"[""comma""]",0,[0.2821999999999889],9,0,9,0,1,,
,,,,,,,,,,,,5dc33f755cb36e260a5598c0,20,Mężczyzna,2022-06-11_09h08.40.462,task,2021.1.4,Linux x86_64,119.9616123,6299f149e92ead563fba08ef,62a43f58dccc56a313b11709,,,,,,,,,,,,,,,,,,,,,,,,,,,,,,,,,,,,,,,,,,,,,,,,,,,,,,,,,,,,,,,,,,,,,,,,,,,,,,,,,,,,,,,,,,,,"[""period""]",0,[0.2561000000000604],10,0,10,0,1,,
,,,,,,,,,,,,5dc33f755cb36e260a5598c0,20,Mężczyzna,2022-06-11_09h08.40.462,task,2021.1.4,Linux x86_64,119.9616123,6299f149e92ead563fba08ef,62a43f58dccc56a313b11709,,,,,,,,,,,,,,,,,,,,,,,,,,,,,,,,,,,,,,,,,,,,,,,,,,,,,,,,,,,,,,,,,,,,,,,,,,,,,,,,,,,,,,,,,,,,"[""comma""]",0,[0.26109999999982847],11,0,11,0,1,,
,,,,,,,,,,,,5dc33f755cb36e260a5598c0,20,Mężczyzna,2022-06-11_09h08.40.462,task,2021.1.4,Linux x86_64,119.9616123,6299f149e92ead563fba08ef,62a43f58dccc56a313b11709,,,,,,,,,,,,,,,,,,,,,,,,,,,,,,,,,,,,,,,,,,,,,,,,,,,,,,,,,,,,,,,,,,,,,,,,,,,,,,,,,,,,,,,,,,,,"[""period""]",0,[0.2903000000001157],12,0,12,0,1,,
,,,,,,,,,,,,5dc33f755cb36e260a5598c0,20,Mężczyzna,2022-06-11_09h08.40.462,task,2021.1.4,Linux x86_64,119.9616123,6299f149e92ead563fba08ef,62a43f58dccc56a313b11709,,,,,,,,,,,,,,,,,,,,,,,,,,,,,,,,,,,,,,,,,,,,,,,,,,,,,,,,,,,,,,,,,,,,,,,,,,,,,,,,,,,,,,,,,,,,"[""comma""]",0,[0.29119999999988977],13,0,13,0,1,,
,,,,,,,,,,,,5dc33f755cb36e260a5598c0,20,Mężczyzna,2022-06-11_09h08.40.462,task,2021.1.4,Linux x86_64,119.9616123,6299f149e92ead563fba08ef,62a43f58dccc56a313b11709,,,,,,,,,,,,,,,,,,,,,,,,,,,,,,,,,,,,,,,,,,,,,,,,,,,,,,,,,,,,,,,,,,,,,,,,,,,,,,,,,,,,,,,,,,,,"[""period""]",0,[0.2725000000000364],14,0,14,0,1,,
,,,,,,,,,,,,5dc33f755cb36e260a5598c0,20,Mężczyzna,2022-06-11_09h08.40.462,task,2021.1.4,Linux x86_64,119.9616123,6299f149e92ead563fba08ef,62a43f58dccc56a313b11709,,,,,,,,,,,,,,,,,,,,,,,,,,,,,,,,,,,,,,,,,,,,,,,,,,,,,,,,,,,,,,,,,,,,,,,,,,,,,,,,,,,,,,,,,,,,"[""comma""]",0,[0.3124000000001388],15,0,15,0,1,,
,,,,,,,,,,,,5dc33f755cb36e260a5598c0,20,Mężczyzna,2022-06-11_09h08.40.462,task,2021.1.4,Linux x86_64,119.9616123,6299f149e92ead563fba08ef,62a43f58dccc56a313b11709,,,,,,,,,,,,,,,,,,,,,,,,,,,,,,,,,,,,,,,,,,,,,,,,,,,,,,,,,,,,,,,,,,,,,,,,,,,,,,,,,,,,,,,,,,,,"[""period""]",0,[0.31960000000003674],16,0,16,0,1,,
,,,,,,,,,,,,5dc33f755cb36e260a5598c0,20,Mężczyzna,2022-06-11_09h08.40.462,task,2021.1.4,Linux x86_64,119.9616123,6299f149e92ead563fba08ef,62a43f58dccc56a313b11709,,,,,,,,,,,,,,,,,,,,,,,,,,,,,,,,,,,,,,,,,,,,,,,,,,,,,,,,,,,,,,,,,,,,,,,,,,,,,,,,,,,,,,,,,,,,"[""comma""]",0,[0.3145000000000664],17,0,17,0,1,,
,,,,,,,,,,,,5dc33f755cb36e260a5598c0,20,Mężczyzna,2022-06-11_09h08.40.462,task,2021.1.4,Linux x86_64,119.9616123,6299f149e92ead563fba08ef,62a43f58dccc56a313b11709,,,,,,,,,,,,,,,,,,,,,,,,,,,,,,,,,,,,,,,,,,,,,,,,,,,,,,,,,,,,,,,,,,,,,,,,,,,,,,,,,,,,,,,,,,,,"[""period""]",0,[0.28090000000008786],18,0,18,0,1,,
,,,,,,,,,,,,5dc33f755cb36e260a5598c0,20,Mężczyzna,2022-06-11_09h08.40.462,task,2021.1.4,Linux x86_64,119.9616123,6299f149e92ead563fba08ef,62a43f58dccc56a313b11709,,,,,,,,,,,,,,,,,,,,,,,,,,,,,,,,,,,,,,,,,,,,,,,,,,,,,,,,,,,,,,,,,,,,,,,,,,,,,,,,,,,,,,,,,,,,"[""comma""]",0,[0.2585000000000264],19,0,19,0,1,,
,,,,,,,,,,,,5dc33f755cb36e260a5598c0,20,Mężczyzna,2022-06-11_09h08.40.462,task,2021.1.4,Linux x86_64,119.9616123,6299f149e92ead563fba08ef,62a43f58dccc56a313b11709,,,,,,,,,,,,,,,,,,,,,,,,,,,,,,,,,,,,,,,,,,,,,,,,,,,,,,,,,,,,,,,,,,,,,,,,,,,,,,,,,,,,,,,,,,,,"[""period""]",0,[0.29909999999995307],20,0,20,0,1,,
,,,,,,,,,,,,5dc33f755cb36e260a5598c0,20,Mężczyzna,2022-06-11_09h08.40.462,task,2021.1.4,Linux x86_64,119.9616123,6299f149e92ead563fba08ef,62a43f58dccc56a313b11709,,,,,,,,,,,,,,,,,,,,,,,,,,,,,,,,,,,,,,,,,,,,,,,,,,,,,,,,,,,,,,,,,,,,,,,,,,,,,,,,,,,,,,,,,,,,"[""comma""]",0,[0.27919999999994616],21,0,21,0,1,,
,,,,,,,,,,,,5dc33f755cb36e260a5598c0,20,Mężczyzna,2022-06-11_09h08.40.462,task,2021.1.4,Linux x86_64,119.9616123,6299f149e92ead563fba08ef,62a43f58dccc56a313b11709,,,,,,,,,,,,,,,,,,,,,,,,,,,,,,,,,,,,,,,,,,,,,,,,,,,,,,,,,,,,,,,,,,,,,,,,,,,,,,,,,,,,,,,,,,,,"[""period""]",0,[1.0838999999999714],22,0,22,0,1,,
,,,,,,,,,,,,5dc33f755cb36e260a5598c0,20,Mężczyzna,2022-06-11_09h08.40.462,task,2021.1.4,Linux x86_64,119.9616123,6299f149e92ead563fba08ef,62a43f58dccc56a313b11709,,,,,,,,,,,,,,,,,,,,,,,,,,,,,,,,,,,,,,,,,,,,,,,,,,,,,,,,,,,,,,,,,,,,,,,,,,,,,,,,,,,,,,,,,,,,"[""comma""]",0,[0.6927000000001726],23,0,23,0,1,,
,,,,,,,,,,,,5dc33f755cb36e260a5598c0,20,Mężczyzna,2022-06-11_09h08.40.462,task,2021.1.4,Linux x86_64,119.9616123,6299f149e92ead563fba08ef,62a43f58dccc56a313b11709,,,,,,,,,,,,,,,,,,,,,,,,,,,,,,,,,,,,,,,,,,,,,,,,,,,,,,,,,,,,,,,,,,,,,,,,,,,,,,,,,,,,,,,,,,,,"[""period""]",0,[0.7614000000000942],24,0,24,0,1,,
,,,,,,,,,,,,5dc33f755cb36e260a5598c0,20,Mężczyzna,2022-06-11_09h08.40.462,task,2021.1.4,Linux x86_64,119.9616123,6299f149e92ead563fba08ef,62a43f58dccc56a313b11709,,,,,,,,,,,,,,,,,,,,,,,,,,,,,,,,,,,,,,,,,,,,,,,,,,,,,,,,,,,,,,,,,,,,,,,,,,,,,,,,,,,,,,,,,,,,"[""comma""]",0,[0.6177999999999884],25,0,25,0,1,,
,,,,,,,,,,,,5dc33f755cb36e260a5598c0,20,Mężczyzna,2022-06-11_09h08.40.462,task,2021.1.4,Linux x86_64,119.9616123,6299f149e92ead563fba08ef,62a43f58dccc56a313b11709,,,,,,,,,,,,,,,,,,,,,,,,,,,,,,,,,,,,,,,,,,,,,,,,,,,,,,,,,,,,,,,,,,,,,,,,,,,,,,,,,,,,,,,,,,,,"[""period""]",0,[0.25729999999975917],26,0,26,0,1,,
,,,,,,,,,,,,5dc33f755cb36e260a5598c0,20,Mężczyzna,2022-06-11_09h08.40.462,task,2021.1.4,Linux x86_64,119.9616123,6299f149e92ead563fba08ef,62a43f58dccc56a313b11709,,,,,,,,,,,,,,,,,,,,,,,,,,,,,,,,,,,,,,,,,,,,,,,,,,,,,,,,,,,,,,,,,,,,,,,,,,,,,,,,,,,,,,,,,,,,"[""comma""]",0,[0.28389999999990323],27,0,27,0,1,,
,,,,,,,,,,,,5dc33f755cb36e260a5598c0,20,Mężczyzna,2022-06-11_09h08.40.462,task,2021.1.4,Linux x86_64,119.9616123,6299f149e92ead563fba08ef,62a43f58dccc56a313b11709,,,,,,,,,,,,,,,,,,,,,,,,,,,,,,,,,,,,,,,,,,,,,,,,,,,,,,,,,,,,,,,,,,,,,,,,,,,,,,,,,,,,,,,,,,,,"[""period""]",0,[0.2618000000001075],28,0,28,0,1,,
,,,,,,,,,,,,5dc33f755cb36e260a5598c0,20,Mężczyzna,2022-06-11_09h08.40.462,task,2021.1.4,Linux x86_64,119.9616123,6299f149e92ead563fba08ef,62a43f58dccc56a313b11709,,,,,,,,,,,,,,,,,,,,,,,,,,,,,,,,,,,,,,,,,,,,,,,,,,,,,,,,,,,,,,,,,,,,,,,,,,,,,,,,,,,,,,,,,,,,"[""comma""]",0,[0.3044000000002143],29,0,29,0,1,,
,,,,,,,,,,,,5dc33f755cb36e260a5598c0,20,Mężczyzna,2022-06-11_09h08.40.462,task,2021.1.4,Linux x86_64,119.9616123,6299f149e92ead563fba08ef,62a43f58dccc56a313b11709,,,,,,,,,,,,,,,,,,,,,,,,,,,,,,,,,,,,,,,,,,,,,,,,,,,,,,,,,,,,,,,,,,,,,,,,,,,,,,,,,,,,,,,,,,,,"[""period""]",0,[0.2981999999999516],30,0,30,0,1,,
,,,,,,,,,,,,5dc33f755cb36e260a5598c0,20,Mężczyzna,2022-06-11_09h08.40.462,task,2021.1.4,Linux x86_64,119.9616123,6299f149e92ead563fba08ef,62a43f58dccc56a313b11709,,,,,,,,,,,,,,,,,,,,,,,,,,,,,,,,,,,,,,,,,,,,,,,,,,,,,,,,,,,,,,,,,,,,,,,,,,,,,,,,,,,,,,,,,,,,"[""period"",""comma""]",0,"[0.34730000000001837,1.9420999999998685]",31,0,31,0,1,,
,,,,,,,,,,,,5dc33f755cb36e260a5598c0,20,Mężczyzna,2022-06-11_09h08.40.462,task,2021.1.4,Linux x86_64,119.9616123,6299f149e92ead563fba08ef,62a43f58dccc56a313b11709,,,,,,,,,,,,,,,,,,,,,,,,,,,,,,,,,,,,,,,,,,,,,,,,,,,,,,,,,,,,,,,,,,,,,,,,,,,,,,,,,,,,,,,,,,,,,0,,32,0,32,0,1,,
,,,,,,,,,,,,5dc33f755cb36e260a5598c0,20,Mężczyzna,2022-06-11_09h08.40.462,task,2021.1.4,Linux x86_64,119.9616123,6299f149e92ead563fba08ef,62a43f58dccc56a313b11709,,,,,,,,,,,,,,,,,,,,,,,,,,,,,,,,,,,,,,,,,,,,,,,,,,,,,,,,,,,,,,,,,,,,,,,,,,,,,,,,,,,,,,,,,,,,"[""period""]",0,[0.2732000000002017],33,0,33,0,1,,
,,,,,,,,,,,,5dc33f755cb36e260a5598c0,20,Mężczyzna,2022-06-11_09h08.40.462,task,2021.1.4,Linux x86_64,119.9616123,6299f149e92ead563fba08ef,62a43f58dccc56a313b11709,,,,,,,,,,,,,,,,,,,,,,,,,,,,,,,,,,,,,,,,,,,,,,,,,,,,,,,,,,,,,,,,,,,,,,,,,,,,,,,,,,,,,,,,,,,,"[""comma""]",0,[0.3033999999997832],34,0,34,0,1,,
,,,,,,,,,,,,5dc33f755cb36e260a5598c0,20,Mężczyzna,2022-06-11_09h08.40.462,task,2021.1.4,Linux x86_64,119.9616123,6299f149e92ead563fba08ef,62a43f58dccc56a313b11709,,,,,,,,,,,,,,,,,,,,,,,,,,,,,,,,,,,,,,,,,,,,,,,,,,,,,,,,,,,,,,,,,,,,,,,,,,,,,,,,,,,,,,,,,,,,"[""period""]",0,[0.3003999999998541],35,0,35,0,1,,
,,,,,,,,,,,,5dc33f755cb36e260a5598c0,20,Mężczyzna,2022-06-11_09h08.40.462,task,2021.1.4,Linux x86_64,119.9616123,6299f149e92ead563fba08ef,62a43f58dccc56a313b11709,,,,,,,,,,,,,,,,,,,,,,,,,,,,,,,,,,,,,,,,,,,,,,,,,,,,,,,,,,,,,,,,,,,,,,,,,,,,,,,,,,,,,,,,,,,,"[""comma""]",0,[0.30399999999985994],36,0,36,0,1,,
,,,,,,,,,,,,5dc33f755cb36e260a5598c0,20,Mężczyzna,2022-06-11_09h08.40.462,task,2021.1.4,Linux x86_64,119.9616123,6299f149e92ead563fba08ef,62a43f58dccc56a313b11709,,,,,,,,,,,,,,,,,,,,,,,,,,,,,,,,,,,,,,,,,,,,,,,,,,,,,,,,,,,,,,,,,,,,,,,,,,,,,,,,,,,,,,,,,,,,"[""period""]",0,[0.3036000000001877],37,0,37,0,1,,
,,,,,,,,,,,,5dc33f755cb36e260a5598c0,20,Mężczyzna,2022-06-11_09h08.40.462,task,2021.1.4,Linux x86_64,119.9616123,6299f149e92ead563fba08ef,62a43f58dccc56a313b11709,,,,,,,,,,,,,,,,,,,,,,,,,,,,,,,,,,,,,,,,,,,,,,,,,,,,,,,,,,,,,,,,,,,,,,,,,,,,,,,,,,,,,,,,,,,,"[""comma""]",0,[0.3023999999998068],38,0,38,0,1,,
,,,,,,,,,,,,5dc33f755cb36e260a5598c0,20,Mężczyzna,2022-06-11_09h08.40.462,task,2021.1.4,Linux x86_64,119.9616123,6299f149e92ead563fba08ef,62a43f58dccc56a313b11709,,,,,,,,,,,,,,,,,,,,,,,,,,,,,,,,,,,,,,,,,,,,,,,,,,,,,,,,,,,,,,,,,,,,,,,,,,,,,,,,,,,,,,,,,,,,"[""period""]",0,[0.2617000000000189],39,0,39,0,1,,
,,,,,,,,,,,,5dc33f755cb36e260a5598c0,20,Mężczyzna,2022-06-11_09h08.40.462,task,2021.1.4,Linux x86_64,119.9616123,6299f149e92ead563fba08ef,62a43f58dccc56a313b11709,,,,,,,,,,,,,,,,,,,,,,,,,,,,,,,,,,,,,,,,,,,,,,,,,,,,,,,,,,,,,,,,,,,,,,,,,,,,,,,,,,,,,,,,,,,,"[""comma""]",0,[0.31169999999997344],40,0,40,0,1,,
,,,,,,,,,,,,5dc33f755cb36e260a5598c0,20,Mężczyzna,2022-06-11_09h08.40.462,task,2021.1.4,Linux x86_64,119.9616123,6299f149e92ead563fba08ef,62a43f58dccc56a313b11709,,,,,,,,,,,,,,,,,,,,,,,,,,,,,,,,,,,,,,,,,,,,,,,,,,,,,,,,,,,,,,,,,,,,,,,,,,,,,,,,,,,,,,,,,,,,"[""period""]",0,[0.3444000000001779],41,0,41,0,1,,
,,,,,,,,,,,,5dc33f755cb36e260a5598c0,20,Mężczyzna,2022-06-11_09h08.40.462,task,2021.1.4,Linux x86_64,119.9616123,6299f149e92ead563fba08ef,62a43f58dccc56a313b11709,,,,,,,,,,,,,,,,,,,,,,,,,,,,,,,,,,,,,,,,,,,,,,,,,,,,,,,,,,,,,,,,,,,,,,,,,,,,,,,,,,,,,,,,,,,,"[""comma""]",0,[0.4900000000000091],42,0,42,0,1,,
,,,,,,,,,,,,5dc33f755cb36e260a5598c0,20,Mężczyzna,2022-06-11_09h08.40.462,task,2021.1.4,Linux x86_64,119.9616123,6299f149e92ead563fba08ef,62a43f58dccc56a313b11709,,,,,,,,,,,,,,,,,,,,,,,,,,,,,,,,,,,,,,,,,,,,,,,,,,,,,,,,,,,,,,,,,,,,,,,,,,,,,,,,,,,,,,,,,,,,"[""period""]",0,[0.6400000000001],43,0,43,0,1,,
,,,,,,,,,,,,5dc33f755cb36e260a5598c0,20,Mężczyzna,2022-06-11_09h08.40.462,task,2021.1.4,Linux x86_64,119.9616123,6299f149e92ead563fba08ef,62a43f58dccc56a313b11709,,,,,,,,,,,,,,,,,,,,,,,,,,,,,,,,,,,,,,,,,,,,,,,,,,,,,,,,,,,,,,,,,,,,,,,,,,,,,,,,,,,,,,,,,,,,"[""comma""]",0,[0.4466000000002168],44,0,44,0,1,,
,,,,,,,,,,,,5dc33f755cb36e260a5598c0,20,Mężczyzna,2022-06-11_09h08.40.462,task,2021.1.4,Linux x86_64,119.9616123,6299f149e92ead563fba08ef,62a43f58dccc56a313b11709,,,,,,,,,,,,,,,,,,,,,,,,,,,,,,,,,,,,,,,,,,,,,,,,,,,,,,,,,,,,,,,,,,,,,,,,,,,,,,,,,,,,,,,,,,,,"[""period""]",0,[0.3321000000000822],45,0,45,0,1,,
,,,,,,,,,,,,5dc33f755cb36e260a5598c0,20,Mężczyzna,2022-06-11_09h08.40.462,task,2021.1.4,Linux x86_64,119.9616123,6299f149e92ead563fba08ef,62a43f58dccc56a313b11709,,,,,,,,,,,,,,,,,,,,,,,,,,,,,,,,,,,,,,,,,,,,,,,,,,,,,,,,,,,,,,,,,,,,,,,,,,,,,,,,,,,,,,,,,,,,"[""comma""]",0,[0.1611000000000331],46,0,46,0,1,,
,,,,,,,,,,,,5dc33f755cb36e260a5598c0,20,Mężczyzna,2022-06-11_09h08.40.462,task,2021.1.4,Linux x86_64,119.9616123,6299f149e92ead563fba08ef,62a43f58dccc56a313b11709,,,,,,,,,,,,,,,,,,,,,,,,,,,,,,,,,,,,,,,,,,,,,,,,,,,,,,,,,,,,,,,,,,,,,,,,,,,,,,,,,,,,,,,,,,,,"[""period""]",0,[0.27209999999968204],47,0,47,0,1,,
,,,,,,,,,,,,5dc33f755cb36e260a5598c0,20,Mężczyzna,2022-06-11_09h08.40.462,task,2021.1.4,Linux x86_64,119.9616123,6299f149e92ead563fba08ef,62a43f58dccc56a313b11709,,,,,,,,,,,,,,,,,,,,,,,,,,,,,,,,,,,,,,,,,,,,,,,,,,,,,,,,,,,,,,,,,,,,,,,,,,,,,,,,,,,,,,,,,,,,"[""period""]",0,[0.2722999999998592],48,0,48,0,1,,
,,,,,,,,,,,,5dc33f755cb36e260a5598c0,20,Mężczyzna,2022-06-11_09h08.40.462,task,2021.1.4,Linux x86_64,119.9616123,6299f149e92ead563fba08ef,62a43f58dccc56a313b11709,,,,,,,,,,,,,,,,,,,,,,,,,,,,,,,,,,,,,,,,,,,,,,,,,,,,,,,,,,,,,,,,,,,,,,,,,,,,,,,,,,,,,,,,,,,,"[""comma""]",0,[0.27080000000000837],49,0,49,0,1,,
,,,,,,,,,,,,5dc33f755cb36e260a5598c0,20,Mężczyzna,2022-06-11_09h08.40.462,task,2021.1.4,Linux x86_64,119.9616123,6299f149e92ead563fba08ef,62a43f58dccc56a313b11709,,,,,,,,,,,,,,,,,,,,,,,,,,,,,,,,,,,,,,,,,,,,,,,,,,,,,,,,,,,,,,,,,,,,,,,,,,,,,,,,,,,,,,,,,,,,"[""period"",""comma""]",0,"[0.2781999999999698,1.934500000000071]",50,0,50,0,1,,
,,,,,,,,,,,,5dc33f755cb36e260a5598c0,20,Mężczyzna,2022-06-11_09h08.40.462,task,2021.1.4,Linux x86_64,119.9616123,6299f149e92ead563fba08ef,62a43f58dccc56a313b11709,,,,,,,,,,,,,,,,,,,,,,,,,,,,,,,,,,,,,,,,,,,,,,,,,,,,,,,,,,,,,,,,,,,,,,,,,,,,,,,,,,,,,,,,,,,,,0,,51,0,51,0,1,,
,,,,,,,,,,,,5dc33f755cb36e260a5598c0,20,Mężczyzna,2022-06-11_09h08.40.462,task,2021.1.4,Linux x86_64,119.9616123,6299f149e92ead563fba08ef,62a43f58dccc56a313b11709,,,,,,,,,,,,,,,,,,,,,,,,,,,,,,,,,,,,,,,,,,,,,,,,,,,,,,,,,,,,,,,,,,,,,,,,,,,,,,,,,,,,,,,,,,,,"[""period"",""comma""]",0,"[0.2536999999999807,1.9589000000000851]",52,0,52,0,1,,
,,,,,,,,,,,,5dc33f755cb36e260a5598c0,20,Mężczyzna,2022-06-11_09h08.40.462,task,2021.1.4,Linux x86_64,119.9616123,6299f149e92ead563fba08ef,62a43f58dccc56a313b11709,,,,,,,,,,,,,,,,,,,,,,,,,,,,,,,,,,,,,,,,,,,,,,,,,,,,,,,,,,,,,,,,,,,,,,,,,,,,,,,,,,,,,,,,,,,,,0,,53,0,53,0,1,,
,,,,,,,,,,,,5dc33f755cb36e260a5598c0,20,Mężczyzna,2022-06-11_09h08.40.462,task,2021.1.4,Linux x86_64,119.9616123,6299f149e92ead563fba08ef,62a43f58dccc56a313b11709,,,,,,,,,,,,,,,,,,,,,,,,,,,,,,,,,,,,,,,,,,,,,,,,,,,,,,,,,,,,,,,,,,,,,,,,,,,,,,,,,,,,,,,,,,,,"[""period""]",0,[0.24759999999992033],54,0,54,0,1,,
,,,,,,,,,,,,5dc33f755cb36e260a5598c0,20,Mężczyzna,2022-06-11_09h08.40.462,task,2021.1.4,Linux x86_64,119.9616123,6299f149e92ead563fba08ef,62a43f58dccc56a313b11709,,,,,,,,,,,,,,,,,,,,,,,,,,,,,,,,,,,,,,,,,,,,,,,,,,,,,,,,,,,,,,,,,,,,,,,,,,,,,,,,,,,,,,,,,,,,"[""comma""]",0,[0.29330000000004475],55,0,55,0,1,,
,,,,,,,,,,,,5dc33f755cb36e260a5598c0,20,Mężczyzna,2022-06-11_09h08.40.462,task,2021.1.4,Linux x86_64,119.9616123,6299f149e92ead563fba08ef,62a43f58dccc56a313b11709,,,,,,,,,,,,,,,,,,,,,,,,,,,,,,,,,,,,,,,,,,,,,,,,,,,,,,,,,,,,,,,,,,,,,,,,,,,,,,,,,,,,,,,,,,,,"[""period""]",0,[0.2829999999999018],56,0,56,0,1,,
,,,,,,,,,,,,5dc33f755cb36e260a5598c0,20,Mężczyzna,2022-06-11_09h08.40.462,task,2021.1.4,Linux x86_64,119.9616123,6299f149e92ead563fba08ef,62a43f58dccc56a313b11709,,,,,,,,,,,,,,,,,,,,,,,,,,,,,,,,,,,,,,,,,,,,,,,,,,,,,,,,,,,,,,,,,,,,,,,,,,,,,,,,,,,,,,,,,,,,"[""comma""]",0,[0.5824000000000069],57,0,57,0,1,,
,,,,,,,,,,,,5dc33f755cb36e260a5598c0,20,Mężczyzna,2022-06-11_09h08.40.462,task,2021.1.4,Linux x86_64,119.9616123,6299f149e92ead563fba08ef,62a43f58dccc56a313b11709,,,,,,,,,,,,,,,,,,,,,,,,,,,,,,,,,,,,,,,,,,,,,,,,,,,,,,,,,,,,,,,,,,,,,,,,,,,,,,,,,,,,,,,,,,,,"[""period""]",0,[0.698399999999765],58,0,58,0,1,,
,,,,,,,,,,,,5dc33f755cb36e260a5598c0,20,Mężczyzna,2022-06-11_09h08.40.462,task,2021.1.4,Linux x86_64,119.9616123,6299f149e92ead563fba08ef,62a43f58dccc56a313b11709,,,,,,,,,,,,,,,,,,,,,,,,,,,,,,,,,,,,,,,,,,,,,,,,,,,,,,,,,,,,,,,,,,,,,,,,,,,,,,,,,,,,,,,,,,,,"[""comma""]",0,[0.6844999999998436],59,0,59,0,1,,
,,,,,,,,,,,,5dc33f755cb36e260a5598c0,20,Mężczyzna,2022-06-11_09h08.40.462,task,2021.1.4,Linux x86_64,119.9616123,6299f149e92ead563fba08ef,62a43f58dccc56a313b11709,,,,,,,,,,,,,,,,,,,,,,,,,,,,,,,,,,,,,,,,,,,,,,,,,,,,,,,,,,,,,,,,,,,,,,,,,,,,,,,,,,,,,,,,,,,,"[""period""]",0,[0.6186000000000149],60,0,60,0,1,,
,,,,,,,,,,,,5dc33f755cb36e260a5598c0,20,Mężczyzna,2022-06-11_09h08.40.462,task,2021.1.4,Linux x86_64,119.9616123,6299f149e92ead563fba08ef,62a43f58dccc56a313b11709,,,,,,,,,,,,,,,,,,,,,,,,,,,,,,,,,,,,,,,,,,,,,,,,,,,,,,,,,,,,,,,,,,,,,,,,,,,,,,,,,,,,,,,,,,,,"[""comma""]",0,[0.6043000000001939],61,0,61,0,1,,
,,,,,,,,,,,,5dc33f755cb36e260a5598c0,20,Mężczyzna,2022-06-11_09h08.40.462,task,2021.1.4,Linux x86_64,119.9616123,6299f149e92ead563fba08ef,62a43f58dccc56a313b11709,,,,,,,,,,,,,,,,,,,,,,,,,,,,,,,,,,,,,,,,,,,,,,,,,,,,,,,,,,,,,,,,,,,,,,,,,,,,,,,,,,,,,,,,,,,,"[""period""]",0,[0.4082000000003063],62,0,62,0,1,,
,,,,,,,,,,,,5dc33f755cb36e260a5598c0,20,Mężczyzna,2022-06-11_09h08.40.462,task,2021.1.4,Linux x86_64,119.9616123,6299f149e92ead563fba08ef,62a43f58dccc56a313b11709,,,,,,,,,,,,,,,,,,,,,,,,,,,,,,,,,,,,,,,,,,,,,,,,,,,,,,,,,,,,,,,,,,,,,,,,,,,,,,,,,,,,,,,,,,,,"[""comma""]",0,[0.3342000000000098],63,0,63,0,1,,
,,,,,,,,,,,,5dc33f755cb36e260a5598c0,20,Mężczyzna,2022-06-11_09h08.40.462,task,2021.1.4,Linux x86_64,119.9616123,6299f149e92ead563fba08ef,62a43f58dccc56a313b11709,,,,,,,,,,,,,,,,,,,,,,,,,,,,,,,,,,,,,,,,,,,,,,,,,,,,,,,,,,,,,,,,,,,,,,,,,,,,,,,,,,,,,,,,,,,,"[""period""]",0,[0.3248999999998432],64,0,64,0,1,,
,,,,,,,,,,,,5dc33f755cb36e260a5598c0,20,Mężczyzna,2022-06-11_09h08.40.462,task,2021.1.4,Linux x86_64,119.9616123,6299f149e92ead563fba08ef,62a43f58dccc56a313b11709,,,,,,,,,,,,,,,,,,,,,,,,,,,,,,,,,,,,,,,,,,,,,,,,,,,,,,,,,,,,,,,,,,,,,,,,,,,,,,,,,,,,,,,,,,,,"[""comma""]",0,[0.282799999999952],65,0,65,0,1,,
,,,,,,,,,,,,5dc33f755cb36e260a5598c0,20,Mężczyzna,2022-06-11_09h08.40.462,task,2021.1.4,Linux x86_64,119.9616123,6299f149e92ead563fba08ef,62a43f58dccc56a313b11709,,,,,,,,,,,,,,,,,,,,,,,,,,,,,,,,,,,,,,,,,,,,,,,,,,,,,,,,,,,,,,,,,,,,,,,,,,,,,,,,,,,,,,,,,,,,"[""period""]",0,[0.31110000000012406],66,0,66,0,1,,
,,,,,,,,,,,,5dc33f755cb36e260a5598c0,20,Mężczyzna,2022-06-11_09h08.40.462,task,2021.1.4,Linux x86_64,119.9616123,6299f149e92ead563fba08ef,62a43f58dccc56a313b11709,,,,,,,,,,,,,,,,,,,,,,,,,,,,,,,,,,,,,,,,,,,,,,,,,,,,,,,,,,,,,,,,,,,,,,,,,,,,,,,,,,,,,,,,,,,,"[""comma""]",0,[0.28920000000016444],67,0,67,0,1,,
,,,,,,,,,,,,5dc33f755cb36e260a5598c0,20,Mężczyzna,2022-06-11_09h08.40.462,task,2021.1.4,Linux x86_64,119.9616123,6299f149e92ead563fba08ef,62a43f58dccc56a313b11709,,,,,,,,,,,,,,,,,,,,,,,,,,,,,,,,,,,,,,,,,,,,,,,,,,,,,,,,,,,,,,,,,,,,,,,,,,,,,,,,,,,,,,,,,,,,"[""period""]",0,[0.26979999999980464],68,0,68,0,1,,
,,,,,,,,,,,,5dc33f755cb36e260a5598c0,20,Mężczyzna,2022-06-11_09h08.40.462,task,2021.1.4,Linux x86_64,119.9616123,6299f149e92ead563fba08ef,62a43f58dccc56a313b11709,,,,,,,,,,,,,,,,,,,,,,,,,,,,,,,,,,,,,,,,,,,,,,,,,,,,,,,,,,,,,,,,,,,,,,,,,,,,,,,,,,,,,,,,,,,,"[""comma""]",0,[0.2695000000001073],69,0,69,0,1,,
,,,,,,,,,,,,5dc33f755cb36e260a5598c0,20,Mężczyzna,2022-06-11_09h08.40.462,task,2021.1.4,Linux x86_64,119.9616123,6299f149e92ead563fba08ef,62a43f58dccc56a313b11709,,,,,,,,,,,,,,,,,,,,,,,,,,,,,,,,,,,,,,,,,,,,,,,,,,,,,,,,,,,,,,,,,,,,,,,,,,,,,,,,,,,,,,,,,,,,"[""period""]",0,[0.2748999999998887],70,0,70,0,1,,
,,,,,,,,,,,,5dc33f755cb36e260a5598c0,20,Mężczyzna,2022-06-11_09h08.40.462,task,2021.1.4,Linux x86_64,119.9616123,6299f149e92ead563fba08ef,62a43f58dccc56a313b11709,,,,,,,,,,,,,,,,,,,,,,,,,,,,,,,,,,,,,,,,,,,,,,,,,,,,,,,,,,,,,,,,,,,,,,,,,,,,,,,,,,,,,,,,,,,,"[""comma""]",0,[0.31510000000025684],71,0,71,0,1,,
,,,,,,,,,,,,5dc33f755cb36e260a5598c0,20,Mężczyzna,2022-06-11_09h08.40.462,task,2021.1.4,Linux x86_64,119.9616123,6299f149e92ead563fba08ef,62a43f58dccc56a313b11709,,,,,,,,,,,,,,,,,,,,,,,,,,,,,,,,,,,,,,,,,,,,,,,,,,,,,,,,,,,,,,,,,,,,,,,,,,,,,,,,,,,,,,,,,,,,"[""comma""]",0,[0.3717999999996664],72,0,72,0,1,,
,,,,,,,,,,,,5dc33f755cb36e260a5598c0,20,Mężczyzna,2022-06-11_09h08.40.462,task,2021.1.4,Linux x86_64,119.9616123,6299f149e92ead563fba08ef,62a43f58dccc56a313b11709,,,,,,,,,,,,,,,,,,,,,,,,,,,,,,,,,,,,,,,,,,,,,,,,,,,,,,,,,,,,,,,,,,,,,,,,,,,,,,,,,,,,,,,,,,,,"[""period""]",0,[0.3128999999998996],73,0,73,0,1,,
,,,,,,,,,,,,5dc33f755cb36e260a5598c0,20,Mężczyzna,2022-06-11_09h08.40.462,task,2021.1.4,Linux x86_64,119.9616123,6299f149e92ead563fba08ef,62a43f58dccc56a313b11709,,,,,,,,,,,,,,,,,,,,,,,,,,,,,,,,,,,,,,,,,,,,,,,,,,,,,,,,,,,,,,,,,,,,,,,,,,,,,,,,,,,,,,,,,,,,"[""comma""]",0,[0.303599999999733],74,0,74,0,1,,
,,,,,,,,,,,,5dc33f755cb36e260a5598c0,20,Mężczyzna,2022-06-11_09h08.40.462,task,2021.1.4,Linux x86_64,119.9616123,6299f149e92ead563fba08ef,62a43f58dccc56a313b11709,,,,,,,,,,,,,,,,,,,,,,,,,,,,,,,,,,,,,,,,,,,,,,,,,,,,,,,,,,,,,,,,,,,,,,,,,,,,,,,,,,,,,,,,,,,,"[""period""]",0,[0.29680000000007567],75,0,75,0,1,,
