key_resp_15.keys,key_resp_15.rt,key_resp_16.keys,key_resp_16.rt,key_resp_4.keys,key_resp_4.rt,next_letter.thisRepN,next_letter.thisTrialN,next_letter.thisN,next_letter.thisIndex,next_letter.ran,letter,participant,Wiek*,Płeć,date,expName,psychopyVersion,OS,frameRate,study_id,session,simple_recall,key_resp_5.keys,key_resp_5.rt,simple_recall_corr,simple_recall_corrkeys,next_level.thisRepN,next_level.thisTrialN,next_level.thisN,next_level.thisIndex,next_level.ran,key_resp_2.keys,key_resp_2.rt,digit_answer,key_resp.keys,key_resp.corr,key_resp.rt,RT_list,next_equation.thisRepN,next_equation.thisTrialN,next_equation.thisN,next_equation.thisIndex,next_equation.ran,Task,Trial,Problem,Operation_answer,processing_score,sumRT,meanRT,sumdiff,sd,RT,key_resp_3.keys,key_resp_3.rt,repeat_practice.thisRepN,repeat_practice.thisTrialN,repeat_practice.thisN,repeat_practice.thisIndex,repeat_practice.ran,key_resp_6.keys,key_resp_6.rt,key_resp_11.keys,key_resp_11.corr,key_resp_11.rt,operation_correct,repeat_if_wrong_prac.thisRepN,repeat_if_wrong_prac.thisTrialN,repeat_if_wrong_prac.thisN,repeat_if_wrong_prac.thisIndex,repeat_if_wrong_prac.ran,span_size_prac.thisRepN,span_size_prac.thisTrialN,span_size_prac.thisN,span_size_prac.thisIndex,span_size_prac.ran,complex_recall_practice,key_resp_9.keys,key_resp_9.corr,key_resp_9.rt,complex_prac_corr,span_recall_prac.thisRepN,span_recall_prac.thisTrialN,span_recall_prac.thisN,span_recall_prac.thisIndex,span_recall_prac.ran,key_resp_10.keys,key_resp_10.rt,key_resp_7.keys,key_resp_7.corr,key_resp_7.rt,repeat_if_wrong.thisRepN,repeat_if_wrong.thisTrialN,repeat_if_wrong.thisN,repeat_if_wrong.thisIndex,repeat_if_wrong.ran,span_size.thisRepN,span_size.thisTrialN,span_size.thisN,span_size.thisIndex,span_size.ran,complex_recall,key_resp_8.keys,key_resp_8.corr,key_resp_8.rt,complex_recall_corr,complex_recall_corrkeys,span_recall.thisRepN,span_recall.thisTrialN,span_recall.thisN,span_recall.thisIndex,span_recall.ran,key_resp_13.keys,key_resp_13.corr,key_resp_13.rt,random_loop.thisRepN,random_loop.thisTrialN,random_loop.thisN,random_loop.thisIndex,random_loop.ran,key_resp_12.keys,key_resp_12.rt
space,5.1012,space,6.2945,space,9.3842,0,0,0,0,1,X V Q F H G B L J M P D K C T S W R N Z,5dcec3fa946f7c000b1b7c74,23,Mężczyzna,2022-06-11_09h29.30.503,task,2021.1.4,MacIntel,60.0024001,6299f149e92ead563fba08ef,62a44433d5e6554b473699c0,,,,,,,,,,,,,,,,,,,,,,,,,,,,,,,,,,,,,,,,,,,,,,,,,,,,,,,,,,,,,,,,,,,,,,,,,,,,,,,,,,,,,,,,,,,,,,,,,,,,,
,,,,,,1,0,1,0,1,X V Q F H G B L J M P D K C T S W R N Z,5dcec3fa946f7c000b1b7c74,23,Mężczyzna,2022-06-11_09h29.30.503,task,2021.1.4,MacIntel,60.0024001,6299f149e92ead563fba08ef,62a44433d5e6554b473699c0,,,,,,,,,,,,,,,,,,,,,,,,,,,,,,,,,,,,,,,,,,,,,,,,,,,,,,,,,,,,,,,,,,,,,,,,,,,,,,,,,,,,,,,,,,,,,,,,,,,,,
,,,,,,,,,,,,5dcec3fa946f7c000b1b7c74,23,Mężczyzna,2022-06-11_09h29.30.503,task,2021.1.4,MacIntel,60.0024001,6299f149e92ead563fba08ef,62a44433d5e6554b473699c0,zd,"[""z"",""d""]","[2.258100000001491,2.7678999999985123,4.882000000000005]",1,ZD,0,0,0,0,1,,,,,,,,,,,,,,,,,,,,,,,,,,,,,,,,,,,,,,,,,,,,,,,,,,,,,,,,,,,,,,,,,,,,,,,,,,,,,,,,,,,,,,,,,,,
,,,,,,0,0,0,0,1,X V Q F H G B L J M P D K C T S W R N Z,5dcec3fa946f7c000b1b7c74,23,Mężczyzna,2022-06-11_09h29.30.503,task,2021.1.4,MacIntel,60.0024001,6299f149e92ead563fba08ef,62a44433d5e6554b473699c0,,,,,,,,,,,,,,,,,,,,,,,,,,,,,,,,,,,,,,,,,,,,,,,,,,,,,,,,,,,,,,,,,,,,,,,,,,,,,,,,,,,,,,,,,,,,,,,,,,,,,
,,,,,,1,0,1,0,1,X V Q F H G B L J M P D K C T S W R N Z,5dcec3fa946f7c000b1b7c74,23,Mężczyzna,2022-06-11_09h29.30.503,task,2021.1.4,MacIntel,60.0024001,6299f149e92ead563fba08ef,62a44433d5e6554b473699c0,,,,,,,,,,,,,,,,,,,,,,,,,,,,,,,,,,,,,,,,,,,,,,,,,,,,,,,,,,,,,,,,,,,,,,,,,,,,,,,,,,,,,,,,,,,,,,,,,,,,,
,,,,,,,,,,,,5dcec3fa946f7c000b1b7c74,23,Mężczyzna,2022-06-11_09h29.30.503,task,2021.1.4,MacIntel,60.0024001,6299f149e92ead563fba08ef,62a44433d5e6554b473699c0,tr,"[""t"",""r""]","[1.4838999999985063,1.883899999998512,2.698200000002977]",1,TR,1,0,1,0,1,,,,,,,,,,,,,,,,,,,,,,,,,,,,,,,,,,,,,,,,,,,,,,,,,,,,,,,,,,,,,,,,,,,,,,,,,,,,,,,,,,,,,,,,,,,
,,,,,,0,0,0,0,1,X V Q F H G B L J M P D K C T S W R N Z,5dcec3fa946f7c000b1b7c74,23,Mężczyzna,2022-06-11_09h29.30.503,task,2021.1.4,MacIntel,60.0024001,6299f149e92ead563fba08ef,62a44433d5e6554b473699c0,,,,,,,,,,,,,,,,,,,,,,,,,,,,,,,,,,,,,,,,,,,,,,,,,,,,,,,,,,,,,,,,,,,,,,,,,,,,,,,,,,,,,,,,,,,,,,,,,,,,,
,,,,,,1,0,1,0,1,X V Q F H G B L J M P D K C T S W R N Z,5dcec3fa946f7c000b1b7c74,23,Mężczyzna,2022-06-11_09h29.30.503,task,2021.1.4,MacIntel,60.0024001,6299f149e92ead563fba08ef,62a44433d5e6554b473699c0,,,,,,,,,,,,,,,,,,,,,,,,,,,,,,,,,,,,,,,,,,,,,,,,,,,,,,,,,,,,,,,,,,,,,,,,,,,,,,,,,,,,,,,,,,,,,,,,,,,,,
,,,,,,2,0,2,0,1,X V Q F H G B L J M P D K C T S W R N Z,5dcec3fa946f7c000b1b7c74,23,Mężczyzna,2022-06-11_09h29.30.503,task,2021.1.4,MacIntel,60.0024001,6299f149e92ead563fba08ef,62a44433d5e6554b473699c0,,,,,,,,,,,,,,,,,,,,,,,,,,,,,,,,,,,,,,,,,,,,,,,,,,,,,,,,,,,,,,,,,,,,,,,,,,,,,,,,,,,,,,,,,,,,,,,,,,,,,
,,,,,,,,,,,,5dcec3fa946f7c000b1b7c74,23,Mężczyzna,2022-06-11_09h29.30.503,task,2021.1.4,MacIntel,60.0024001,6299f149e92ead563fba08ef,62a44433d5e6554b473699c0,wmg,"[""w"",""m"",""g""]","[1.267799999997024,1.5830000000000055,1.973000000000006,2.8728999999985163]",1,WMG,2,0,2,0,1,,,,,,,,,,,,,,,,,,,,,,,,,,,,,,,,,,,,,,,,,,,,,,,,,,,,,,,,,,,,,,,,,,,,,,,,,,,,,,,,,,,,,,,,,,,
,,,,,,0,0,0,0,1,X V Q F H G B L J M P D K C T S W R N Z,5dcec3fa946f7c000b1b7c74,23,Mężczyzna,2022-06-11_09h29.30.503,task,2021.1.4,MacIntel,60.0024001,6299f149e92ead563fba08ef,62a44433d5e6554b473699c0,,,,,,,,,,,,,,,,,,,,,,,,,,,,,,,,,,,,,,,,,,,,,,,,,,,,,,,,,,,,,,,,,,,,,,,,,,,,,,,,,,,,,,,,,,,,,,,,,,,,,
,,,,,,1,0,1,0,1,X V Q F H G B L J M P D K C T S W R N Z,5dcec3fa946f7c000b1b7c74,23,Mężczyzna,2022-06-11_09h29.30.503,task,2021.1.4,MacIntel,60.0024001,6299f149e92ead563fba08ef,62a44433d5e6554b473699c0,,,,,,,,,,,,,,,,,,,,,,,,,,,,,,,,,,,,,,,,,,,,,,,,,,,,,,,,,,,,,,,,,,,,,,,,,,,,,,,,,,,,,,,,,,,,,,,,,,,,,
,,,,,,2,0,2,0,1,X V Q F H G B L J M P D K C T S W R N Z,5dcec3fa946f7c000b1b7c74,23,Mężczyzna,2022-06-11_09h29.30.503,task,2021.1.4,MacIntel,60.0024001,6299f149e92ead563fba08ef,62a44433d5e6554b473699c0,,,,,,,,,,,,,,,,,,,,,,,,,,,,,,,,,,,,,,,,,,,,,,,,,,,,,,,,,,,,,,,,,,,,,,,,,,,,,,,,,,,,,,,,,,,,,,,,,,,,,
,,,,,,,,,,,,5dcec3fa946f7c000b1b7c74,23,Mężczyzna,2022-06-11_09h29.30.503,task,2021.1.4,MacIntel,60.0024001,6299f149e92ead563fba08ef,62a44433d5e6554b473699c0,pcx,"[""p"",""c"",""x""]","[1.036600000001492,1.5503000000044693,1.8012000000029786,2.550200000002981]",1,PCX,3,0,3,0,1,,,,,,,,,,,,,,,,,,,,,,,,,,,,,,,,,,,,,,,,,,,,,,,,,,,,,,,,,,,,,,,,,,,,,,,,,,,,,,,,,,,,,,,,,,,
,,,,,,0,0,0,0,1,X V Q F H G B L J M P D K C T S W R N Z,5dcec3fa946f7c000b1b7c74,23,Mężczyzna,2022-06-11_09h29.30.503,task,2021.1.4,MacIntel,60.0024001,6299f149e92ead563fba08ef,62a44433d5e6554b473699c0,,,,,,,,,,,,,,,,,,,,,,,,,,,,,,,,,,,,,,,,,,,,,,,,,,,,,,,,,,,,,,,,,,,,,,,,,,,,,,,,,,,,,,,,,,,,,,,,,,,,,
,,,,,,1,0,1,0,1,X V Q F H G B L J M P D K C T S W R N Z,5dcec3fa946f7c000b1b7c74,23,Mężczyzna,2022-06-11_09h29.30.503,task,2021.1.4,MacIntel,60.0024001,6299f149e92ead563fba08ef,62a44433d5e6554b473699c0,,,,,,,,,,,,,,,,,,,,,,,,,,,,,,,,,,,,,,,,,,,,,,,,,,,,,,,,,,,,,,,,,,,,,,,,,,,,,,,,,,,,,,,,,,,,,,,,,,,,,
,,,,,,2,0,2,0,1,X V Q F H G B L J M P D K C T S W R N Z,5dcec3fa946f7c000b1b7c74,23,Mężczyzna,2022-06-11_09h29.30.503,task,2021.1.4,MacIntel,60.0024001,6299f149e92ead563fba08ef,62a44433d5e6554b473699c0,,,,,,,,,,,,,,,,,,,,,,,,,,,,,,,,,,,,,,,,,,,,,,,,,,,,,,,,,,,,,,,,,,,,,,,,,,,,,,,,,,,,,,,,,,,,,,,,,,,,,
,,,,,,3,0,3,0,1,X V Q F H G B L J M P D K C T S W R N Z,5dcec3fa946f7c000b1b7c74,23,Mężczyzna,2022-06-11_09h29.30.503,task,2021.1.4,MacIntel,60.0024001,6299f149e92ead563fba08ef,62a44433d5e6554b473699c0,,,,,,,,,,,,,,,,,,,,,,,,,,,,,,,,,,,,,,,,,,,,,,,,,,,,,,,,,,,,,,,,,,,,,,,,,,,,,,,,,,,,,,,,,,,,,,,,,,,,,
,,,,,,,,,,,,5dcec3fa946f7c000b1b7c74,23,Mężczyzna,2022-06-11_09h29.30.503,task,2021.1.4,MacIntel,60.0024001,6299f149e92ead563fba08ef,62a44433d5e6554b473699c0,ncft,"[""n"",""c"",""f"",""t""]","[1.624200000002979,2.1194000000059603,2.3173000000044723,2.5064000000059607,3.264000000000003]",1,NCFT,4,0,4,0,1,,,,,,,,,,,,,,,,,,,,,,,,,,,,,,,,,,,,,,,,,,,,,,,,,,,,,,,,,,,,,,,,,,,,,,,,,,,,,,,,,,,,,,,,,,,
,,,,,,0,0,0,0,1,X V Q F H G B L J M P D K C T S W R N Z,5dcec3fa946f7c000b1b7c74,23,Mężczyzna,2022-06-11_09h29.30.503,task,2021.1.4,MacIntel,60.0024001,6299f149e92ead563fba08ef,62a44433d5e6554b473699c0,,,,,,,,,,,,,,,,,,,,,,,,,,,,,,,,,,,,,,,,,,,,,,,,,,,,,,,,,,,,,,,,,,,,,,,,,,,,,,,,,,,,,,,,,,,,,,,,,,,,,
,,,,,,1,0,1,0,1,X V Q F H G B L J M P D K C T S W R N Z,5dcec3fa946f7c000b1b7c74,23,Mężczyzna,2022-06-11_09h29.30.503,task,2021.1.4,MacIntel,60.0024001,6299f149e92ead563fba08ef,62a44433d5e6554b473699c0,,,,,,,,,,,,,,,,,,,,,,,,,,,,,,,,,,,,,,,,,,,,,,,,,,,,,,,,,,,,,,,,,,,,,,,,,,,,,,,,,,,,,,,,,,,,,,,,,,,,,
,,,,,,2,0,2,0,1,X V Q F H G B L J M P D K C T S W R N Z,5dcec3fa946f7c000b1b7c74,23,Mężczyzna,2022-06-11_09h29.30.503,task,2021.1.4,MacIntel,60.0024001,6299f149e92ead563fba08ef,62a44433d5e6554b473699c0,,,,,,,,,,,,,,,,,,,,,,,,,,,,,,,,,,,,,,,,,,,,,,,,,,,,,,,,,,,,,,,,,,,,,,,,,,,,,,,,,,,,,,,,,,,,,,,,,,,,,
,,,,,,3,0,3,0,1,X V Q F H G B L J M P D K C T S W R N Z,5dcec3fa946f7c000b1b7c74,23,Mężczyzna,2022-06-11_09h29.30.503,task,2021.1.4,MacIntel,60.0024001,6299f149e92ead563fba08ef,62a44433d5e6554b473699c0,,,,,,,,,,,,,,,,,,,,,,,,,,,,,,,,,,,,,,,,,,,,,,,,,,,,,,,,,,,,,,,,,,,,,,,,,,,,,,,,,,,,,,,,,,,,,,,,,,,,,
,,,,,,,,,,,,5dcec3fa946f7c000b1b7c74,23,Mężczyzna,2022-06-11_09h29.30.503,task,2021.1.4,MacIntel,60.0024001,6299f149e92ead563fba08ef,62a44433d5e6554b473699c0,xsrq,"[""x"",""s"",""r"",""q""]","[1.399499999999989,1.7999999999999972,2.183700000002972,2.6081000000014853,3.3354000000059614]",1,XSRQ,5,0,5,0,1,,,,,,,,,,,,,,,,,,,,,,,,,,,,,,,,,,,,,,,,,,,,,,,,,,,,,,,,,,,,,,,,,,,,,,,,,,,,,,,,,,,,,,,,,,,
,,,,,,0,0,0,0,1,X V Q F H G B L J M P D K C T S W R N Z,5dcec3fa946f7c000b1b7c74,23,Mężczyzna,2022-06-11_09h29.30.503,task,2021.1.4,MacIntel,60.0024001,6299f149e92ead563fba08ef,62a44433d5e6554b473699c0,,,,,,,,,,,,,,,,,,,,,,,,,,,,,,,,,,,,,,,,,,,,,,,,,,,,,,,,,,,,,,,,,,,,,,,,,,,,,,,,,,,,,,,,,,,,,,,,,,,,,
,,,,,,1,0,1,0,1,X V Q F H G B L J M P D K C T S W R N Z,5dcec3fa946f7c000b1b7c74,23,Mężczyzna,2022-06-11_09h29.30.503,task,2021.1.4,MacIntel,60.0024001,6299f149e92ead563fba08ef,62a44433d5e6554b473699c0,,,,,,,,,,,,,,,,,,,,,,,,,,,,,,,,,,,,,,,,,,,,,,,,,,,,,,,,,,,,,,,,,,,,,,,,,,,,,,,,,,,,,,,,,,,,,,,,,,,,,
,,,,,,2,0,2,0,1,X V Q F H G B L J M P D K C T S W R N Z,5dcec3fa946f7c000b1b7c74,23,Mężczyzna,2022-06-11_09h29.30.503,task,2021.1.4,MacIntel,60.0024001,6299f149e92ead563fba08ef,62a44433d5e6554b473699c0,,,,,,,,,,,,,,,,,,,,,,,,,,,,,,,,,,,,,,,,,,,,,,,,,,,,,,,,,,,,,,,,,,,,,,,,,,,,,,,,,,,,,,,,,,,,,,,,,,,,,
,,,,,,3,0,3,0,1,X V Q F H G B L J M P D K C T S W R N Z,5dcec3fa946f7c000b1b7c74,23,Mężczyzna,2022-06-11_09h29.30.503,task,2021.1.4,MacIntel,60.0024001,6299f149e92ead563fba08ef,62a44433d5e6554b473699c0,,,,,,,,,,,,,,,,,,,,,,,,,,,,,,,,,,,,,,,,,,,,,,,,,,,,,,,,,,,,,,,,,,,,,,,,,,,,,,,,,,,,,,,,,,,,,,,,,,,,,
,,,,,,4,0,4,0,1,X V Q F H G B L J M P D K C T S W R N Z,5dcec3fa946f7c000b1b7c74,23,Mężczyzna,2022-06-11_09h29.30.503,task,2021.1.4,MacIntel,60.0024001,6299f149e92ead563fba08ef,62a44433d5e6554b473699c0,,,,,,,,,,,,,,,,,,,,,,,,,,,,,,,,,,,,,,,,,,,,,,,,,,,,,,,,,,,,,,,,,,,,,,,,,,,,,,,,,,,,,,,,,,,,,,,,,,,,,
,,,,,,,,,,,,5dcec3fa946f7c000b1b7c74,23,Mężczyzna,2022-06-11_09h29.30.503,task,2021.1.4,MacIntel,60.0024001,6299f149e92ead563fba08ef,62a44433d5e6554b473699c0,tzhjt,"[""t"",""z"",""h"",""j"",""t""]","[1.3501000000014898,1.8167000000029816,2.6670000000000016,3.6329999999999956,4.352000000000004,5.307200000002979]",1,TZHJT,6,0,6,0,1,,,,,,,,,,,,,,,,,,,,,,,,,,,,,,,,,,,,,,,,,,,,,,,,,,,,,,,,,,,,,,,,,,,,,,,,,,,,,,,,,,,,,,,,,,,
,,,,,,0,0,0,0,1,X V Q F H G B L J M P D K C T S W R N Z,5dcec3fa946f7c000b1b7c74,23,Mężczyzna,2022-06-11_09h29.30.503,task,2021.1.4,MacIntel,60.0024001,6299f149e92ead563fba08ef,62a44433d5e6554b473699c0,,,,,,,,,,,,,,,,,,,,,,,,,,,,,,,,,,,,,,,,,,,,,,,,,,,,,,,,,,,,,,,,,,,,,,,,,,,,,,,,,,,,,,,,,,,,,,,,,,,,,
,,,,,,1,0,1,0,1,X V Q F H G B L J M P D K C T S W R N Z,5dcec3fa946f7c000b1b7c74,23,Mężczyzna,2022-06-11_09h29.30.503,task,2021.1.4,MacIntel,60.0024001,6299f149e92ead563fba08ef,62a44433d5e6554b473699c0,,,,,,,,,,,,,,,,,,,,,,,,,,,,,,,,,,,,,,,,,,,,,,,,,,,,,,,,,,,,,,,,,,,,,,,,,,,,,,,,,,,,,,,,,,,,,,,,,,,,,
,,,,,,2,0,2,0,1,X V Q F H G B L J M P D K C T S W R N Z,5dcec3fa946f7c000b1b7c74,23,Mężczyzna,2022-06-11_09h29.30.503,task,2021.1.4,MacIntel,60.0024001,6299f149e92ead563fba08ef,62a44433d5e6554b473699c0,,,,,,,,,,,,,,,,,,,,,,,,,,,,,,,,,,,,,,,,,,,,,,,,,,,,,,,,,,,,,,,,,,,,,,,,,,,,,,,,,,,,,,,,,,,,,,,,,,,,,
,,,,,,3,0,3,0,1,X V Q F H G B L J M P D K C T S W R N Z,5dcec3fa946f7c000b1b7c74,23,Mężczyzna,2022-06-11_09h29.30.503,task,2021.1.4,MacIntel,60.0024001,6299f149e92ead563fba08ef,62a44433d5e6554b473699c0,,,,,,,,,,,,,,,,,,,,,,,,,,,,,,,,,,,,,,,,,,,,,,,,,,,,,,,,,,,,,,,,,,,,,,,,,,,,,,,,,,,,,,,,,,,,,,,,,,,,,
,,,,,,4,0,4,0,1,X V Q F H G B L J M P D K C T S W R N Z,5dcec3fa946f7c000b1b7c74,23,Mężczyzna,2022-06-11_09h29.30.503,task,2021.1.4,MacIntel,60.0024001,6299f149e92ead563fba08ef,62a44433d5e6554b473699c0,,,,,,,,,,,,,,,,,,,,,,,,,,,,,,,,,,,,,,,,,,,,,,,,,,,,,,,,,,,,,,,,,,,,,,,,,,,,,,,,,,,,,,,,,,,,,,,,,,,,,
,,,,,,,,,,,,5dcec3fa946f7c000b1b7c74,23,Mężczyzna,2022-06-11_09h29.30.503,task,2021.1.4,MacIntel,60.0024001,6299f149e92ead563fba08ef,62a44433d5e6554b473699c0,vgjxb,"[""v"",""g"",""j"",""x"",""b""]","[0.8067999999970112,1.1853999999985092,1.6995999999940352,2.249299999997021,2.8722999999970114,3.899399999998508]",1,VGJXB,7,0,7,0,1,,,,,,,,,,,,,,,,,,,,,,,,,,,,,,,,,,,,,,,,,,,,,,,,,,,,,,,,,,,,,,,,,,,,,,,,,,,,,,,,,,,,,,,,,,,
,,,,,,0,0,0,0,1,X V Q F H G B L J M P D K C T S W R N Z,5dcec3fa946f7c000b1b7c74,23,Mężczyzna,2022-06-11_09h29.30.503,task,2021.1.4,MacIntel,60.0024001,6299f149e92ead563fba08ef,62a44433d5e6554b473699c0,,,,,,,,,,,,,,,,,,,,,,,,,,,,,,,,,,,,,,,,,,,,,,,,,,,,,,,,,,,,,,,,,,,,,,,,,,,,,,,,,,,,,,,,,,,,,,,,,,,,,
,,,,,,1,0,1,0,1,X V Q F H G B L J M P D K C T S W R N Z,5dcec3fa946f7c000b1b7c74,23,Mężczyzna,2022-06-11_09h29.30.503,task,2021.1.4,MacIntel,60.0024001,6299f149e92ead563fba08ef,62a44433d5e6554b473699c0,,,,,,,,,,,,,,,,,,,,,,,,,,,,,,,,,,,,,,,,,,,,,,,,,,,,,,,,,,,,,,,,,,,,,,,,,,,,,,,,,,,,,,,,,,,,,,,,,,,,,
,,,,,,2,0,2,0,1,X V Q F H G B L J M P D K C T S W R N Z,5dcec3fa946f7c000b1b7c74,23,Mężczyzna,2022-06-11_09h29.30.503,task,2021.1.4,MacIntel,60.0024001,6299f149e92ead563fba08ef,62a44433d5e6554b473699c0,,,,,,,,,,,,,,,,,,,,,,,,,,,,,,,,,,,,,,,,,,,,,,,,,,,,,,,,,,,,,,,,,,,,,,,,,,,,,,,,,,,,,,,,,,,,,,,,,,,,,
,,,,,,3,0,3,0,1,X V Q F H G B L J M P D K C T S W R N Z,5dcec3fa946f7c000b1b7c74,23,Mężczyzna,2022-06-11_09h29.30.503,task,2021.1.4,MacIntel,60.0024001,6299f149e92ead563fba08ef,62a44433d5e6554b473699c0,,,,,,,,,,,,,,,,,,,,,,,,,,,,,,,,,,,,,,,,,,,,,,,,,,,,,,,,,,,,,,,,,,,,,,,,,,,,,,,,,,,,,,,,,,,,,,,,,,,,,
,,,,,,4,0,4,0,1,X V Q F H G B L J M P D K C T S W R N Z,5dcec3fa946f7c000b1b7c74,23,Mężczyzna,2022-06-11_09h29.30.503,task,2021.1.4,MacIntel,60.0024001,6299f149e92ead563fba08ef,62a44433d5e6554b473699c0,,,,,,,,,,,,,,,,,,,,,,,,,,,,,,,,,,,,,,,,,,,,,,,,,,,,,,,,,,,,,,,,,,,,,,,,,,,,,,,,,,,,,,,,,,,,,,,,,,,,,
,,,,,,5,0,5,0,1,X V Q F H G B L J M P D K C T S W R N Z,5dcec3fa946f7c000b1b7c74,23,Mężczyzna,2022-06-11_09h29.30.503,task,2021.1.4,MacIntel,60.0024001,6299f149e92ead563fba08ef,62a44433d5e6554b473699c0,,,,,,,,,,,,,,,,,,,,,,,,,,,,,,,,,,,,,,,,,,,,,,,,,,,,,,,,,,,,,,,,,,,,,,,,,,,,,,,,,,,,,,,,,,,,,,,,,,,,,
,,,,,,,,,,,,5dcec3fa946f7c000b1b7c74,23,Mężczyzna,2022-06-11_09h29.30.503,task,2021.1.4,MacIntel,60.0024001,6299f149e92ead563fba08ef,62a44433d5e6554b473699c0,sdddql,"[""s"",""d"",""d"",""d"",""q"",""l""]","[0.9177999999970297,1.334799999997017,1.7670000000000101,2.3637999999970276,2.890500000000003,3.353199999995539,16.46769999999553]",1,SDDDQL,8,0,8,0,1,,,,,,,,,,,,,,,,,,,,,,,,,,,,,,,,,,,,,,,,,,,,,,,,,,,,,,,,,,,,,,,,,,,,,,,,,,,,,,,,,,,,,,,,,,,
,,,,,,0,0,0,0,1,X V Q F H G B L J M P D K C T S W R N Z,5dcec3fa946f7c000b1b7c74,23,Mężczyzna,2022-06-11_09h29.30.503,task,2021.1.4,MacIntel,60.0024001,6299f149e92ead563fba08ef,62a44433d5e6554b473699c0,,,,,,,,,,,,,,,,,,,,,,,,,,,,,,,,,,,,,,,,,,,,,,,,,,,,,,,,,,,,,,,,,,,,,,,,,,,,,,,,,,,,,,,,,,,,,,,,,,,,,
,,,,,,1,0,1,0,1,X V Q F H G B L J M P D K C T S W R N Z,5dcec3fa946f7c000b1b7c74,23,Mężczyzna,2022-06-11_09h29.30.503,task,2021.1.4,MacIntel,60.0024001,6299f149e92ead563fba08ef,62a44433d5e6554b473699c0,,,,,,,,,,,,,,,,,,,,,,,,,,,,,,,,,,,,,,,,,,,,,,,,,,,,,,,,,,,,,,,,,,,,,,,,,,,,,,,,,,,,,,,,,,,,,,,,,,,,,
,,,,,,2,0,2,0,1,X V Q F H G B L J M P D K C T S W R N Z,5dcec3fa946f7c000b1b7c74,23,Mężczyzna,2022-06-11_09h29.30.503,task,2021.1.4,MacIntel,60.0024001,6299f149e92ead563fba08ef,62a44433d5e6554b473699c0,,,,,,,,,,,,,,,,,,,,,,,,,,,,,,,,,,,,,,,,,,,,,,,,,,,,,,,,,,,,,,,,,,,,,,,,,,,,,,,,,,,,,,,,,,,,,,,,,,,,,
,,,,,,3,0,3,0,1,X V Q F H G B L J M P D K C T S W R N Z,5dcec3fa946f7c000b1b7c74,23,Mężczyzna,2022-06-11_09h29.30.503,task,2021.1.4,MacIntel,60.0024001,6299f149e92ead563fba08ef,62a44433d5e6554b473699c0,,,,,,,,,,,,,,,,,,,,,,,,,,,,,,,,,,,,,,,,,,,,,,,,,,,,,,,,,,,,,,,,,,,,,,,,,,,,,,,,,,,,,,,,,,,,,,,,,,,,,
,,,,,,4,0,4,0,1,X V Q F H G B L J M P D K C T S W R N Z,5dcec3fa946f7c000b1b7c74,23,Mężczyzna,2022-06-11_09h29.30.503,task,2021.1.4,MacIntel,60.0024001,6299f149e92ead563fba08ef,62a44433d5e6554b473699c0,,,,,,,,,,,,,,,,,,,,,,,,,,,,,,,,,,,,,,,,,,,,,,,,,,,,,,,,,,,,,,,,,,,,,,,,,,,,,,,,,,,,,,,,,,,,,,,,,,,,,
,,,,,,5,0,5,0,1,X V Q F H G B L J M P D K C T S W R N Z,5dcec3fa946f7c000b1b7c74,23,Mężczyzna,2022-06-11_09h29.30.503,task,2021.1.4,MacIntel,60.0024001,6299f149e92ead563fba08ef,62a44433d5e6554b473699c0,,,,,,,,,,,,,,,,,,,,,,,,,,,,,,,,,,,,,,,,,,,,,,,,,,,,,,,,,,,,,,,,,,,,,,,,,,,,,,,,,,,,,,,,,,,,,,,,,,,,,
,,,,,,,,,,,,5dcec3fa946f7c000b1b7c74,23,Mężczyzna,2022-06-11_09h29.30.503,task,2021.1.4,MacIntel,60.0024001,6299f149e92ead563fba08ef,62a44433d5e6554b473699c0,xmfxdk,"[""x"",""m"",""f"",""x"",""d"",""k""]","[3.834000000000003,4.950999999999993,6.103399999998516,7.433899999998516,8.735299999997011,10.034100000001473,12.0583999999985]",1,XMFXDK,9,0,9,0,1,,,,,,,,,,,,,,,,,,,,,,,,,,,,,,,,,,,,,,,,,,,,,,,,,,,,,,,,,,,,,,,,,,,,,,,,,,,,,,,,,,,,,,,,,,,
,,,,,,0,0,0,0,1,X V Q F H G B L J M P D K C T S W R N Z,5dcec3fa946f7c000b1b7c74,23,Mężczyzna,2022-06-11_09h29.30.503,task,2021.1.4,MacIntel,60.0024001,6299f149e92ead563fba08ef,62a44433d5e6554b473699c0,,,,,,,,,,,,,,,,,,,,,,,,,,,,,,,,,,,,,,,,,,,,,,,,,,,,,,,,,,,,,,,,,,,,,,,,,,,,,,,,,,,,,,,,,,,,,,,,,,,,,
,,,,,,1,0,1,0,1,X V Q F H G B L J M P D K C T S W R N Z,5dcec3fa946f7c000b1b7c74,23,Mężczyzna,2022-06-11_09h29.30.503,task,2021.1.4,MacIntel,60.0024001,6299f149e92ead563fba08ef,62a44433d5e6554b473699c0,,,,,,,,,,,,,,,,,,,,,,,,,,,,,,,,,,,,,,,,,,,,,,,,,,,,,,,,,,,,,,,,,,,,,,,,,,,,,,,,,,,,,,,,,,,,,,,,,,,,,
,,,,,,2,0,2,0,1,X V Q F H G B L J M P D K C T S W R N Z,5dcec3fa946f7c000b1b7c74,23,Mężczyzna,2022-06-11_09h29.30.503,task,2021.1.4,MacIntel,60.0024001,6299f149e92ead563fba08ef,62a44433d5e6554b473699c0,,,,,,,,,,,,,,,,,,,,,,,,,,,,,,,,,,,,,,,,,,,,,,,,,,,,,,,,,,,,,,,,,,,,,,,,,,,,,,,,,,,,,,,,,,,,,,,,,,,,,
,,,,,,3,0,3,0,1,X V Q F H G B L J M P D K C T S W R N Z,5dcec3fa946f7c000b1b7c74,23,Mężczyzna,2022-06-11_09h29.30.503,task,2021.1.4,MacIntel,60.0024001,6299f149e92ead563fba08ef,62a44433d5e6554b473699c0,,,,,,,,,,,,,,,,,,,,,,,,,,,,,,,,,,,,,,,,,,,,,,,,,,,,,,,,,,,,,,,,,,,,,,,,,,,,,,,,,,,,,,,,,,,,,,,,,,,,,
,,,,,,4,0,4,0,1,X V Q F H G B L J M P D K C T S W R N Z,5dcec3fa946f7c000b1b7c74,23,Mężczyzna,2022-06-11_09h29.30.503,task,2021.1.4,MacIntel,60.0024001,6299f149e92ead563fba08ef,62a44433d5e6554b473699c0,,,,,,,,,,,,,,,,,,,,,,,,,,,,,,,,,,,,,,,,,,,,,,,,,,,,,,,,,,,,,,,,,,,,,,,,,,,,,,,,,,,,,,,,,,,,,,,,,,,,,
,,,,,,5,0,5,0,1,X V Q F H G B L J M P D K C T S W R N Z,5dcec3fa946f7c000b1b7c74,23,Mężczyzna,2022-06-11_09h29.30.503,task,2021.1.4,MacIntel,60.0024001,6299f149e92ead563fba08ef,62a44433d5e6554b473699c0,,,,,,,,,,,,,,,,,,,,,,,,,,,,,,,,,,,,,,,,,,,,,,,,,,,,,,,,,,,,,,,,,,,,,,,,,,,,,,,,,,,,,,,,,,,,,,,,,,,,,
,,,,,,6,0,6,0,1,X V Q F H G B L J M P D K C T S W R N Z,5dcec3fa946f7c000b1b7c74,23,Mężczyzna,2022-06-11_09h29.30.503,task,2021.1.4,MacIntel,60.0024001,6299f149e92ead563fba08ef,62a44433d5e6554b473699c0,,,,,,,,,,,,,,,,,,,,,,,,,,,,,,,,,,,,,,,,,,,,,,,,,,,,,,,,,,,,,,,,,,,,,,,,,,,,,,,,,,,,,,,,,,,,,,,,,,,,,
,,,,,,,,,,,,5dcec3fa946f7c000b1b7c74,23,Mężczyzna,2022-06-11_09h29.30.503,task,2021.1.4,MacIntel,60.0024001,6299f149e92ead563fba08ef,62a44433d5e6554b473699c0,hwfgpk,"[""h"",""w"",""f"",""g"",""p"",""k""]","[1.2701000000014915,1.8242999999970095,2.2991999999955226,2.8246000000014817,3.3481000000014944,3.748899999998514,11.193199999995528]",0,HWPFGWK,10,0,10,0,1,,,,,,,,,,,,,,,,,,,,,,,,,,,,,,,,,,,,,,,,,,,,,,,,,,,,,,,,,,,,,,,,,,,,,,,,,,,,,,,,,,,,,,,,,,,
,,,,,,0,0,0,0,1,X V Q F H G B L J M P D K C T S W R N Z,5dcec3fa946f7c000b1b7c74,23,Mężczyzna,2022-06-11_09h29.30.503,task,2021.1.4,MacIntel,60.0024001,6299f149e92ead563fba08ef,62a44433d5e6554b473699c0,,,,,,,,,,,,,,,,,,,,,,,,,,,,,,,,,,,,,,,,,,,,,,,,,,,,,,,,,,,,,,,,,,,,,,,,,,,,,,,,,,,,,,,,,,,,,,,,,,,,,
,,,,,,1,0,1,0,1,X V Q F H G B L J M P D K C T S W R N Z,5dcec3fa946f7c000b1b7c74,23,Mężczyzna,2022-06-11_09h29.30.503,task,2021.1.4,MacIntel,60.0024001,6299f149e92ead563fba08ef,62a44433d5e6554b473699c0,,,,,,,,,,,,,,,,,,,,,,,,,,,,,,,,,,,,,,,,,,,,,,,,,,,,,,,,,,,,,,,,,,,,,,,,,,,,,,,,,,,,,,,,,,,,,,,,,,,,,
,,,,,,2,0,2,0,1,X V Q F H G B L J M P D K C T S W R N Z,5dcec3fa946f7c000b1b7c74,23,Mężczyzna,2022-06-11_09h29.30.503,task,2021.1.4,MacIntel,60.0024001,6299f149e92ead563fba08ef,62a44433d5e6554b473699c0,,,,,,,,,,,,,,,,,,,,,,,,,,,,,,,,,,,,,,,,,,,,,,,,,,,,,,,,,,,,,,,,,,,,,,,,,,,,,,,,,,,,,,,,,,,,,,,,,,,,,
,,,,,,3,0,3,0,1,X V Q F H G B L J M P D K C T S W R N Z,5dcec3fa946f7c000b1b7c74,23,Mężczyzna,2022-06-11_09h29.30.503,task,2021.1.4,MacIntel,60.0024001,6299f149e92ead563fba08ef,62a44433d5e6554b473699c0,,,,,,,,,,,,,,,,,,,,,,,,,,,,,,,,,,,,,,,,,,,,,,,,,,,,,,,,,,,,,,,,,,,,,,,,,,,,,,,,,,,,,,,,,,,,,,,,,,,,,
,,,,,,4,0,4,0,1,X V Q F H G B L J M P D K C T S W R N Z,5dcec3fa946f7c000b1b7c74,23,Mężczyzna,2022-06-11_09h29.30.503,task,2021.1.4,MacIntel,60.0024001,6299f149e92ead563fba08ef,62a44433d5e6554b473699c0,,,,,,,,,,,,,,,,,,,,,,,,,,,,,,,,,,,,,,,,,,,,,,,,,,,,,,,,,,,,,,,,,,,,,,,,,,,,,,,,,,,,,,,,,,,,,,,,,,,,,
,,,,,,5,0,5,0,1,X V Q F H G B L J M P D K C T S W R N Z,5dcec3fa946f7c000b1b7c74,23,Mężczyzna,2022-06-11_09h29.30.503,task,2021.1.4,MacIntel,60.0024001,6299f149e92ead563fba08ef,62a44433d5e6554b473699c0,,,,,,,,,,,,,,,,,,,,,,,,,,,,,,,,,,,,,,,,,,,,,,,,,,,,,,,,,,,,,,,,,,,,,,,,,,,,,,,,,,,,,,,,,,,,,,,,,,,,,
,,,,,,6,0,6,0,1,X V Q F H G B L J M P D K C T S W R N Z,5dcec3fa946f7c000b1b7c74,23,Mężczyzna,2022-06-11_09h29.30.503,task,2021.1.4,MacIntel,60.0024001,6299f149e92ead563fba08ef,62a44433d5e6554b473699c0,,,,,,,,,,,,,,,,,,,,,,,,,,,,,,,,,,,,,,,,,,,,,,,,,,,,,,,,,,,,,,,,,,,,,,,,,,,,,,,,,,,,,,,,,,,,,,,,,,,,,
,,,,,,,,,,,,5dcec3fa946f7c000b1b7c74,23,Mężczyzna,2022-06-11_09h29.30.503,task,2021.1.4,MacIntel,60.0024001,6299f149e92ead563fba08ef,62a44433d5e6554b473699c0,kvkdfss,"[""k"",""v"",""k"",""d"",""f"",""s"",""s""]","[25.133199999995526,26.20150000000001,27.60369999999554,28.782099999994045,30.136500000000012,31.42409999999404,32.589500000000015,40.289000000000016]",1,KVKDFSS,11,0,11,0,1,,,,,,,,,,,,,,,,,,,,,,,,,,,,,,,,,,,,,,,,,,,,,,,,,,,,,,,,,,,,,,,,,,,,,,,,,,,,,,,,,,,,,,,,,,,
,,,,,,0,0,0,0,1,X V Q F H G B L J M P D K C T S W R N Z,5dcec3fa946f7c000b1b7c74,23,Mężczyzna,2022-06-11_09h29.30.503,task,2021.1.4,MacIntel,60.0024001,6299f149e92ead563fba08ef,62a44433d5e6554b473699c0,,,,,,,,,,,,,,,,,,,,,,,,,,,,,,,,,,,,,,,,,,,,,,,,,,,,,,,,,,,,,,,,,,,,,,,,,,,,,,,,,,,,,,,,,,,,,,,,,,,,,
,,,,,,1,0,1,0,1,X V Q F H G B L J M P D K C T S W R N Z,5dcec3fa946f7c000b1b7c74,23,Mężczyzna,2022-06-11_09h29.30.503,task,2021.1.4,MacIntel,60.0024001,6299f149e92ead563fba08ef,62a44433d5e6554b473699c0,,,,,,,,,,,,,,,,,,,,,,,,,,,,,,,,,,,,,,,,,,,,,,,,,,,,,,,,,,,,,,,,,,,,,,,,,,,,,,,,,,,,,,,,,,,,,,,,,,,,,
,,,,,,2,0,2,0,1,X V Q F H G B L J M P D K C T S W R N Z,5dcec3fa946f7c000b1b7c74,23,Mężczyzna,2022-06-11_09h29.30.503,task,2021.1.4,MacIntel,60.0024001,6299f149e92ead563fba08ef,62a44433d5e6554b473699c0,,,,,,,,,,,,,,,,,,,,,,,,,,,,,,,,,,,,,,,,,,,,,,,,,,,,,,,,,,,,,,,,,,,,,,,,,,,,,,,,,,,,,,,,,,,,,,,,,,,,,
,,,,,,3,0,3,0,1,X V Q F H G B L J M P D K C T S W R N Z,5dcec3fa946f7c000b1b7c74,23,Mężczyzna,2022-06-11_09h29.30.503,task,2021.1.4,MacIntel,60.0024001,6299f149e92ead563fba08ef,62a44433d5e6554b473699c0,,,,,,,,,,,,,,,,,,,,,,,,,,,,,,,,,,,,,,,,,,,,,,,,,,,,,,,,,,,,,,,,,,,,,,,,,,,,,,,,,,,,,,,,,,,,,,,,,,,,,
,,,,,,4,0,4,0,1,X V Q F H G B L J M P D K C T S W R N Z,5dcec3fa946f7c000b1b7c74,23,Mężczyzna,2022-06-11_09h29.30.503,task,2021.1.4,MacIntel,60.0024001,6299f149e92ead563fba08ef,62a44433d5e6554b473699c0,,,,,,,,,,,,,,,,,,,,,,,,,,,,,,,,,,,,,,,,,,,,,,,,,,,,,,,,,,,,,,,,,,,,,,,,,,,,,,,,,,,,,,,,,,,,,,,,,,,,,
,,,,,,5,0,5,0,1,X V Q F H G B L J M P D K C T S W R N Z,5dcec3fa946f7c000b1b7c74,23,Mężczyzna,2022-06-11_09h29.30.503,task,2021.1.4,MacIntel,60.0024001,6299f149e92ead563fba08ef,62a44433d5e6554b473699c0,,,,,,,,,,,,,,,,,,,,,,,,,,,,,,,,,,,,,,,,,,,,,,,,,,,,,,,,,,,,,,,,,,,,,,,,,,,,,,,,,,,,,,,,,,,,,,,,,,,,,
,,,,,,6,0,6,0,1,X V Q F H G B L J M P D K C T S W R N Z,5dcec3fa946f7c000b1b7c74,23,Mężczyzna,2022-06-11_09h29.30.503,task,2021.1.4,MacIntel,60.0024001,6299f149e92ead563fba08ef,62a44433d5e6554b473699c0,,,,,,,,,,,,,,,,,,,,,,,,,,,,,,,,,,,,,,,,,,,,,,,,,,,,,,,,,,,,,,,,,,,,,,,,,,,,,,,,,,,,,,,,,,,,,,,,,,,,,
,,,,,,,,,,,,5dcec3fa946f7c000b1b7c74,23,Mężczyzna,2022-06-11_09h29.30.503,task,2021.1.4,MacIntel,60.0024001,6299f149e92ead563fba08ef,62a44433d5e6554b473699c0,hqcpmkj,"[""h"",""q"",""c"",""p"",""m"",""k"",""j""]","[3.93420000000296,4.166700000002976,5.016899999998486,6.59710000000149,7.78460000000149,9.01649999999998,10.33520000000297,15.218299999997015]",1,HQCPMKJ,12,0,12,0,1,,,,,,,,,,,,,,,,,,,,,,,,,,,,,,,,,,,,,,,,,,,,,,,,,,,,,,,,,,,,,,,,,,,,,,,,,,,,,,,,,,,,,,,,,,,
,,,,,,0,0,0,0,1,X V Q F H G B L J M P D K C T S W R N Z,5dcec3fa946f7c000b1b7c74,23,Mężczyzna,2022-06-11_09h29.30.503,task,2021.1.4,MacIntel,60.0024001,6299f149e92ead563fba08ef,62a44433d5e6554b473699c0,,,,,,,,,,,,,,,,,,,,,,,,,,,,,,,,,,,,,,,,,,,,,,,,,,,,,,,,,,,,,,,,,,,,,,,,,,,,,,,,,,,,,,,,,,,,,,,,,,,,,
,,,,,,1,0,1,0,1,X V Q F H G B L J M P D K C T S W R N Z,5dcec3fa946f7c000b1b7c74,23,Mężczyzna,2022-06-11_09h29.30.503,task,2021.1.4,MacIntel,60.0024001,6299f149e92ead563fba08ef,62a44433d5e6554b473699c0,,,,,,,,,,,,,,,,,,,,,,,,,,,,,,,,,,,,,,,,,,,,,,,,,,,,,,,,,,,,,,,,,,,,,,,,,,,,,,,,,,,,,,,,,,,,,,,,,,,,,
,,,,,,2,0,2,0,1,X V Q F H G B L J M P D K C T S W R N Z,5dcec3fa946f7c000b1b7c74,23,Mężczyzna,2022-06-11_09h29.30.503,task,2021.1.4,MacIntel,60.0024001,6299f149e92ead563fba08ef,62a44433d5e6554b473699c0,,,,,,,,,,,,,,,,,,,,,,,,,,,,,,,,,,,,,,,,,,,,,,,,,,,,,,,,,,,,,,,,,,,,,,,,,,,,,,,,,,,,,,,,,,,,,,,,,,,,,
,,,,,,3,0,3,0,1,X V Q F H G B L J M P D K C T S W R N Z,5dcec3fa946f7c000b1b7c74,23,Mężczyzna,2022-06-11_09h29.30.503,task,2021.1.4,MacIntel,60.0024001,6299f149e92ead563fba08ef,62a44433d5e6554b473699c0,,,,,,,,,,,,,,,,,,,,,,,,,,,,,,,,,,,,,,,,,,,,,,,,,,,,,,,,,,,,,,,,,,,,,,,,,,,,,,,,,,,,,,,,,,,,,,,,,,,,,
,,,,,,4,0,4,0,1,X V Q F H G B L J M P D K C T S W R N Z,5dcec3fa946f7c000b1b7c74,23,Mężczyzna,2022-06-11_09h29.30.503,task,2021.1.4,MacIntel,60.0024001,6299f149e92ead563fba08ef,62a44433d5e6554b473699c0,,,,,,,,,,,,,,,,,,,,,,,,,,,,,,,,,,,,,,,,,,,,,,,,,,,,,,,,,,,,,,,,,,,,,,,,,,,,,,,,,,,,,,,,,,,,,,,,,,,,,
,,,,,,5,0,5,0,1,X V Q F H G B L J M P D K C T S W R N Z,5dcec3fa946f7c000b1b7c74,23,Mężczyzna,2022-06-11_09h29.30.503,task,2021.1.4,MacIntel,60.0024001,6299f149e92ead563fba08ef,62a44433d5e6554b473699c0,,,,,,,,,,,,,,,,,,,,,,,,,,,,,,,,,,,,,,,,,,,,,,,,,,,,,,,,,,,,,,,,,,,,,,,,,,,,,,,,,,,,,,,,,,,,,,,,,,,,,
,,,,,,6,0,6,0,1,X V Q F H G B L J M P D K C T S W R N Z,5dcec3fa946f7c000b1b7c74,23,Mężczyzna,2022-06-11_09h29.30.503,task,2021.1.4,MacIntel,60.0024001,6299f149e92ead563fba08ef,62a44433d5e6554b473699c0,,,,,,,,,,,,,,,,,,,,,,,,,,,,,,,,,,,,,,,,,,,,,,,,,,,,,,,,,,,,,,,,,,,,,,,,,,,,,,,,,,,,,,,,,,,,,,,,,,,,,
,,,,,,7,0,7,0,1,X V Q F H G B L J M P D K C T S W R N Z,5dcec3fa946f7c000b1b7c74,23,Mężczyzna,2022-06-11_09h29.30.503,task,2021.1.4,MacIntel,60.0024001,6299f149e92ead563fba08ef,62a44433d5e6554b473699c0,,,,,,,,,,,,,,,,,,,,,,,,,,,,,,,,,,,,,,,,,,,,,,,,,,,,,,,,,,,,,,,,,,,,,,,,,,,,,,,,,,,,,,,,,,,,,,,,,,,,,
,,,,,,,,,,,,5dcec3fa946f7c000b1b7c74,23,Mężczyzna,2022-06-11_09h29.30.503,task,2021.1.4,MacIntel,60.0024001,6299f149e92ead563fba08ef,62a44433d5e6554b473699c0,whttjxxt,"[""w"",""h"",""t"",""t"",""j"",""x"",""x"",""t""]","[1.4882000000029905,2.100600000001492,2.482899999998523,2.8319999999999936,3.3088999999985163,3.999100000001505,4.548700000002981,6.683899999998516,15.26870000000298]",0,WHTTJXXZ,13,0,13,0,1,,,,,,,,,,,,,,,,,,,,,,,,,,,,,,,,,,,,,,,,,,,,,,,,,,,,,,,,,,,,,,,,,,,,,,,,,,,,,,,,,,,,,,,,,,,
,,,,,,0,0,0,0,1,X V Q F H G B L J M P D K C T S W R N Z,5dcec3fa946f7c000b1b7c74,23,Mężczyzna,2022-06-11_09h29.30.503,task,2021.1.4,MacIntel,60.0024001,6299f149e92ead563fba08ef,62a44433d5e6554b473699c0,,,,,,,,,,,,,,,,,,,,,,,,,,,,,,,,,,,,,,,,,,,,,,,,,,,,,,,,,,,,,,,,,,,,,,,,,,,,,,,,,,,,,,,,,,,,,,,,,,,,,
,,,,,,1,0,1,0,1,X V Q F H G B L J M P D K C T S W R N Z,5dcec3fa946f7c000b1b7c74,23,Mężczyzna,2022-06-11_09h29.30.503,task,2021.1.4,MacIntel,60.0024001,6299f149e92ead563fba08ef,62a44433d5e6554b473699c0,,,,,,,,,,,,,,,,,,,,,,,,,,,,,,,,,,,,,,,,,,,,,,,,,,,,,,,,,,,,,,,,,,,,,,,,,,,,,,,,,,,,,,,,,,,,,,,,,,,,,
,,,,,,2,0,2,0,1,X V Q F H G B L J M P D K C T S W R N Z,5dcec3fa946f7c000b1b7c74,23,Mężczyzna,2022-06-11_09h29.30.503,task,2021.1.4,MacIntel,60.0024001,6299f149e92ead563fba08ef,62a44433d5e6554b473699c0,,,,,,,,,,,,,,,,,,,,,,,,,,,,,,,,,,,,,,,,,,,,,,,,,,,,,,,,,,,,,,,,,,,,,,,,,,,,,,,,,,,,,,,,,,,,,,,,,,,,,
,,,,,,3,0,3,0,1,X V Q F H G B L J M P D K C T S W R N Z,5dcec3fa946f7c000b1b7c74,23,Mężczyzna,2022-06-11_09h29.30.503,task,2021.1.4,MacIntel,60.0024001,6299f149e92ead563fba08ef,62a44433d5e6554b473699c0,,,,,,,,,,,,,,,,,,,,,,,,,,,,,,,,,,,,,,,,,,,,,,,,,,,,,,,,,,,,,,,,,,,,,,,,,,,,,,,,,,,,,,,,,,,,,,,,,,,,,
,,,,,,4,0,4,0,1,X V Q F H G B L J M P D K C T S W R N Z,5dcec3fa946f7c000b1b7c74,23,Mężczyzna,2022-06-11_09h29.30.503,task,2021.1.4,MacIntel,60.0024001,6299f149e92ead563fba08ef,62a44433d5e6554b473699c0,,,,,,,,,,,,,,,,,,,,,,,,,,,,,,,,,,,,,,,,,,,,,,,,,,,,,,,,,,,,,,,,,,,,,,,,,,,,,,,,,,,,,,,,,,,,,,,,,,,,,
,,,,,,5,0,5,0,1,X V Q F H G B L J M P D K C T S W R N Z,5dcec3fa946f7c000b1b7c74,23,Mężczyzna,2022-06-11_09h29.30.503,task,2021.1.4,MacIntel,60.0024001,6299f149e92ead563fba08ef,62a44433d5e6554b473699c0,,,,,,,,,,,,,,,,,,,,,,,,,,,,,,,,,,,,,,,,,,,,,,,,,,,,,,,,,,,,,,,,,,,,,,,,,,,,,,,,,,,,,,,,,,,,,,,,,,,,,
,,,,,,6,0,6,0,1,X V Q F H G B L J M P D K C T S W R N Z,5dcec3fa946f7c000b1b7c74,23,Mężczyzna,2022-06-11_09h29.30.503,task,2021.1.4,MacIntel,60.0024001,6299f149e92ead563fba08ef,62a44433d5e6554b473699c0,,,,,,,,,,,,,,,,,,,,,,,,,,,,,,,,,,,,,,,,,,,,,,,,,,,,,,,,,,,,,,,,,,,,,,,,,,,,,,,,,,,,,,,,,,,,,,,,,,,,,
,,,,,,7,0,7,0,1,X V Q F H G B L J M P D K C T S W R N Z,5dcec3fa946f7c000b1b7c74,23,Mężczyzna,2022-06-11_09h29.30.503,task,2021.1.4,MacIntel,60.0024001,6299f149e92ead563fba08ef,62a44433d5e6554b473699c0,,,,,,,,,,,,,,,,,,,,,,,,,,,,,,,,,,,,,,,,,,,,,,,,,,,,,,,,,,,,,,,,,,,,,,,,,,,,,,,,,,,,,,,,,,,,,,,,,,,,,
,,,,,,,,,,,,5dcec3fa946f7c000b1b7c74,23,Mężczyzna,2022-06-11_09h29.30.503,task,2021.1.4,MacIntel,60.0024001,6299f149e92ead563fba08ef,62a44433d5e6554b473699c0,zlpmlmxl,"[""z"",""l"",""p"",""m"",""l"",""m"",""x"",""l""]","[2.942400000005989,4.183200000003012,5.342200000003004,6.500499999999988,7.767700000003003,9.122200000002977,10.568200000003003,11.768500000000017,21.977000000000032]",1,ZLPMLMXL,14,0,14,0,1,,,,,,,,,,,,,,,,,,,,,,,,,,,,,,,,,,,,,,,,,,,,,,,,,,,,,,,,,,,,,,,,,,,,,,,,,,,,,,,,,,,,,,,,,,,
,,,,,,0,0,0,0,1,X V Q F H G B L J M P D K C T S W R N Z,5dcec3fa946f7c000b1b7c74,23,Mężczyzna,2022-06-11_09h29.30.503,task,2021.1.4,MacIntel,60.0024001,6299f149e92ead563fba08ef,62a44433d5e6554b473699c0,,,,,,,,,,,,,,,,,,,,,,,,,,,,,,,,,,,,,,,,,,,,,,,,,,,,,,,,,,,,,,,,,,,,,,,,,,,,,,,,,,,,,,,,,,,,,,,,,,,,,
,,,,,,1,0,1,0,1,X V Q F H G B L J M P D K C T S W R N Z,5dcec3fa946f7c000b1b7c74,23,Mężczyzna,2022-06-11_09h29.30.503,task,2021.1.4,MacIntel,60.0024001,6299f149e92ead563fba08ef,62a44433d5e6554b473699c0,,,,,,,,,,,,,,,,,,,,,,,,,,,,,,,,,,,,,,,,,,,,,,,,,,,,,,,,,,,,,,,,,,,,,,,,,,,,,,,,,,,,,,,,,,,,,,,,,,,,,
,,,,,,2,0,2,0,1,X V Q F H G B L J M P D K C T S W R N Z,5dcec3fa946f7c000b1b7c74,23,Mężczyzna,2022-06-11_09h29.30.503,task,2021.1.4,MacIntel,60.0024001,6299f149e92ead563fba08ef,62a44433d5e6554b473699c0,,,,,,,,,,,,,,,,,,,,,,,,,,,,,,,,,,,,,,,,,,,,,,,,,,,,,,,,,,,,,,,,,,,,,,,,,,,,,,,,,,,,,,,,,,,,,,,,,,,,,
,,,,,,3,0,3,0,1,X V Q F H G B L J M P D K C T S W R N Z,5dcec3fa946f7c000b1b7c74,23,Mężczyzna,2022-06-11_09h29.30.503,task,2021.1.4,MacIntel,60.0024001,6299f149e92ead563fba08ef,62a44433d5e6554b473699c0,,,,,,,,,,,,,,,,,,,,,,,,,,,,,,,,,,,,,,,,,,,,,,,,,,,,,,,,,,,,,,,,,,,,,,,,,,,,,,,,,,,,,,,,,,,,,,,,,,,,,
,,,,,,4,0,4,0,1,X V Q F H G B L J M P D K C T S W R N Z,5dcec3fa946f7c000b1b7c74,23,Mężczyzna,2022-06-11_09h29.30.503,task,2021.1.4,MacIntel,60.0024001,6299f149e92ead563fba08ef,62a44433d5e6554b473699c0,,,,,,,,,,,,,,,,,,,,,,,,,,,,,,,,,,,,,,,,,,,,,,,,,,,,,,,,,,,,,,,,,,,,,,,,,,,,,,,,,,,,,,,,,,,,,,,,,,,,,
,,,,,,5,0,5,0,1,X V Q F H G B L J M P D K C T S W R N Z,5dcec3fa946f7c000b1b7c74,23,Mężczyzna,2022-06-11_09h29.30.503,task,2021.1.4,MacIntel,60.0024001,6299f149e92ead563fba08ef,62a44433d5e6554b473699c0,,,,,,,,,,,,,,,,,,,,,,,,,,,,,,,,,,,,,,,,,,,,,,,,,,,,,,,,,,,,,,,,,,,,,,,,,,,,,,,,,,,,,,,,,,,,,,,,,,,,,
,,,,,,6,0,6,0,1,X V Q F H G B L J M P D K C T S W R N Z,5dcec3fa946f7c000b1b7c74,23,Mężczyzna,2022-06-11_09h29.30.503,task,2021.1.4,MacIntel,60.0024001,6299f149e92ead563fba08ef,62a44433d5e6554b473699c0,,,,,,,,,,,,,,,,,,,,,,,,,,,,,,,,,,,,,,,,,,,,,,,,,,,,,,,,,,,,,,,,,,,,,,,,,,,,,,,,,,,,,,,,,,,,,,,,,,,,,
,,,,,,7,0,7,0,1,X V Q F H G B L J M P D K C T S W R N Z,5dcec3fa946f7c000b1b7c74,23,Mężczyzna,2022-06-11_09h29.30.503,task,2021.1.4,MacIntel,60.0024001,6299f149e92ead563fba08ef,62a44433d5e6554b473699c0,,,,,,,,,,,,,,,,,,,,,,,,,,,,,,,,,,,,,,,,,,,,,,,,,,,,,,,,,,,,,,,,,,,,,,,,,,,,,,,,,,,,,,,,,,,,,,,,,,,,,
,,,,,,,,,,,,5dcec3fa946f7c000b1b7c74,23,Mężczyzna,2022-06-11_09h29.30.503,task,2021.1.4,MacIntel,60.0024001,6299f149e92ead563fba08ef,62a44433d5e6554b473699c0,zrglmkft,"[""z"",""r"",""g"",""l"",""m"",""k"",""f"",""t""]","[2.6897999999969784,3.665200000002983,5.132799999997019,6.315600000001496,7.525299999997003,8.882100000001458,10.325399999998467,11.632600000001446,20.400399999998513]",1,ZRGLMKFT,15,0,15,0,1,,,,,,,,,,,,,,,,,,,,,,,,,,,,,,,,,,,,,,,,,,,,,,,,,,,,,,,,,,,,,,,,,,,,,,,,,,,,,,,,,,,,,,,,,,,
,,,,,,0,0,0,0,1,X V Q F H G B L J M P D K C T S W R N Z,5dcec3fa946f7c000b1b7c74,23,Mężczyzna,2022-06-11_09h29.30.503,task,2021.1.4,MacIntel,60.0024001,6299f149e92ead563fba08ef,62a44433d5e6554b473699c0,,,,,,,,,,,,,,,,,,,,,,,,,,,,,,,,,,,,,,,,,,,,,,,,,,,,,,,,,,,,,,,,,,,,,,,,,,,,,,,,,,,,,,,,,,,,,,,,,,,,,
,,,,,,1,0,1,0,1,X V Q F H G B L J M P D K C T S W R N Z,5dcec3fa946f7c000b1b7c74,23,Mężczyzna,2022-06-11_09h29.30.503,task,2021.1.4,MacIntel,60.0024001,6299f149e92ead563fba08ef,62a44433d5e6554b473699c0,,,,,,,,,,,,,,,,,,,,,,,,,,,,,,,,,,,,,,,,,,,,,,,,,,,,,,,,,,,,,,,,,,,,,,,,,,,,,,,,,,,,,,,,,,,,,,,,,,,,,
,,,,,,2,0,2,0,1,X V Q F H G B L J M P D K C T S W R N Z,5dcec3fa946f7c000b1b7c74,23,Mężczyzna,2022-06-11_09h29.30.503,task,2021.1.4,MacIntel,60.0024001,6299f149e92ead563fba08ef,62a44433d5e6554b473699c0,,,,,,,,,,,,,,,,,,,,,,,,,,,,,,,,,,,,,,,,,,,,,,,,,,,,,,,,,,,,,,,,,,,,,,,,,,,,,,,,,,,,,,,,,,,,,,,,,,,,,
,,,,,,3,0,3,0,1,X V Q F H G B L J M P D K C T S W R N Z,5dcec3fa946f7c000b1b7c74,23,Mężczyzna,2022-06-11_09h29.30.503,task,2021.1.4,MacIntel,60.0024001,6299f149e92ead563fba08ef,62a44433d5e6554b473699c0,,,,,,,,,,,,,,,,,,,,,,,,,,,,,,,,,,,,,,,,,,,,,,,,,,,,,,,,,,,,,,,,,,,,,,,,,,,,,,,,,,,,,,,,,,,,,,,,,,,,,
,,,,,,4,0,4,0,1,X V Q F H G B L J M P D K C T S W R N Z,5dcec3fa946f7c000b1b7c74,23,Mężczyzna,2022-06-11_09h29.30.503,task,2021.1.4,MacIntel,60.0024001,6299f149e92ead563fba08ef,62a44433d5e6554b473699c0,,,,,,,,,,,,,,,,,,,,,,,,,,,,,,,,,,,,,,,,,,,,,,,,,,,,,,,,,,,,,,,,,,,,,,,,,,,,,,,,,,,,,,,,,,,,,,,,,,,,,
,,,,,,5,0,5,0,1,X V Q F H G B L J M P D K C T S W R N Z,5dcec3fa946f7c000b1b7c74,23,Mężczyzna,2022-06-11_09h29.30.503,task,2021.1.4,MacIntel,60.0024001,6299f149e92ead563fba08ef,62a44433d5e6554b473699c0,,,,,,,,,,,,,,,,,,,,,,,,,,,,,,,,,,,,,,,,,,,,,,,,,,,,,,,,,,,,,,,,,,,,,,,,,,,,,,,,,,,,,,,,,,,,,,,,,,,,,
,,,,,,6,0,6,0,1,X V Q F H G B L J M P D K C T S W R N Z,5dcec3fa946f7c000b1b7c74,23,Mężczyzna,2022-06-11_09h29.30.503,task,2021.1.4,MacIntel,60.0024001,6299f149e92ead563fba08ef,62a44433d5e6554b473699c0,,,,,,,,,,,,,,,,,,,,,,,,,,,,,,,,,,,,,,,,,,,,,,,,,,,,,,,,,,,,,,,,,,,,,,,,,,,,,,,,,,,,,,,,,,,,,,,,,,,,,
,,,,,,7,0,7,0,1,X V Q F H G B L J M P D K C T S W R N Z,5dcec3fa946f7c000b1b7c74,23,Mężczyzna,2022-06-11_09h29.30.503,task,2021.1.4,MacIntel,60.0024001,6299f149e92ead563fba08ef,62a44433d5e6554b473699c0,,,,,,,,,,,,,,,,,,,,,,,,,,,,,,,,,,,,,,,,,,,,,,,,,,,,,,,,,,,,,,,,,,,,,,,,,,,,,,,,,,,,,,,,,,,,,,,,,,,,,
,,,,,,8,0,8,0,1,X V Q F H G B L J M P D K C T S W R N Z,5dcec3fa946f7c000b1b7c74,23,Mężczyzna,2022-06-11_09h29.30.503,task,2021.1.4,MacIntel,60.0024001,6299f149e92ead563fba08ef,62a44433d5e6554b473699c0,,,,,,,,,,,,,,,,,,,,,,,,,,,,,,,,,,,,,,,,,,,,,,,,,,,,,,,,,,,,,,,,,,,,,,,,,,,,,,,,,,,,,,,,,,,,,,,,,,,,,
,,,,,,,,,,,,5dcec3fa946f7c000b1b7c74,23,Mężczyzna,2022-06-11_09h29.30.503,task,2021.1.4,MacIntel,60.0024001,6299f149e92ead563fba08ef,62a44433d5e6554b473699c0,jwxpkqtmw,"[""j"",""w"",""x"",""p"",""k"",""q"",""t"",""m"",""w""]","[2.46739999999852,3.665899999998544,4.8004999999999995,6.200200000003008,7.43279999999703,8.852899999998556,10.15679999999702,11.333700000002978,12.670700000003023,22.735200000002976]",1,JWXPKQTMW,16,0,16,0,1,,,,,,,,,,,,,,,,,,,,,,,,,,,,,,,,,,,,,,,,,,,,,,,,,,,,,,,,,,,,,,,,,,,,,,,,,,,,,,,,,,,,,,,,,,,
,,,,,,0,0,0,0,1,X V Q F H G B L J M P D K C T S W R N Z,5dcec3fa946f7c000b1b7c74,23,Mężczyzna,2022-06-11_09h29.30.503,task,2021.1.4,MacIntel,60.0024001,6299f149e92ead563fba08ef,62a44433d5e6554b473699c0,,,,,,,,,,,,,,,,,,,,,,,,,,,,,,,,,,,,,,,,,,,,,,,,,,,,,,,,,,,,,,,,,,,,,,,,,,,,,,,,,,,,,,,,,,,,,,,,,,,,,
,,,,,,1,0,1,0,1,X V Q F H G B L J M P D K C T S W R N Z,5dcec3fa946f7c000b1b7c74,23,Mężczyzna,2022-06-11_09h29.30.503,task,2021.1.4,MacIntel,60.0024001,6299f149e92ead563fba08ef,62a44433d5e6554b473699c0,,,,,,,,,,,,,,,,,,,,,,,,,,,,,,,,,,,,,,,,,,,,,,,,,,,,,,,,,,,,,,,,,,,,,,,,,,,,,,,,,,,,,,,,,,,,,,,,,,,,,
,,,,,,2,0,2,0,1,X V Q F H G B L J M P D K C T S W R N Z,5dcec3fa946f7c000b1b7c74,23,Mężczyzna,2022-06-11_09h29.30.503,task,2021.1.4,MacIntel,60.0024001,6299f149e92ead563fba08ef,62a44433d5e6554b473699c0,,,,,,,,,,,,,,,,,,,,,,,,,,,,,,,,,,,,,,,,,,,,,,,,,,,,,,,,,,,,,,,,,,,,,,,,,,,,,,,,,,,,,,,,,,,,,,,,,,,,,
,,,,,,3,0,3,0,1,X V Q F H G B L J M P D K C T S W R N Z,5dcec3fa946f7c000b1b7c74,23,Mężczyzna,2022-06-11_09h29.30.503,task,2021.1.4,MacIntel,60.0024001,6299f149e92ead563fba08ef,62a44433d5e6554b473699c0,,,,,,,,,,,,,,,,,,,,,,,,,,,,,,,,,,,,,,,,,,,,,,,,,,,,,,,,,,,,,,,,,,,,,,,,,,,,,,,,,,,,,,,,,,,,,,,,,,,,,
,,,,,,4,0,4,0,1,X V Q F H G B L J M P D K C T S W R N Z,5dcec3fa946f7c000b1b7c74,23,Mężczyzna,2022-06-11_09h29.30.503,task,2021.1.4,MacIntel,60.0024001,6299f149e92ead563fba08ef,62a44433d5e6554b473699c0,,,,,,,,,,,,,,,,,,,,,,,,,,,,,,,,,,,,,,,,,,,,,,,,,,,,,,,,,,,,,,,,,,,,,,,,,,,,,,,,,,,,,,,,,,,,,,,,,,,,,
,,,,,,5,0,5,0,1,X V Q F H G B L J M P D K C T S W R N Z,5dcec3fa946f7c000b1b7c74,23,Mężczyzna,2022-06-11_09h29.30.503,task,2021.1.4,MacIntel,60.0024001,6299f149e92ead563fba08ef,62a44433d5e6554b473699c0,,,,,,,,,,,,,,,,,,,,,,,,,,,,,,,,,,,,,,,,,,,,,,,,,,,,,,,,,,,,,,,,,,,,,,,,,,,,,,,,,,,,,,,,,,,,,,,,,,,,,
,,,,,,6,0,6,0,1,X V Q F H G B L J M P D K C T S W R N Z,5dcec3fa946f7c000b1b7c74,23,Mężczyzna,2022-06-11_09h29.30.503,task,2021.1.4,MacIntel,60.0024001,6299f149e92ead563fba08ef,62a44433d5e6554b473699c0,,,,,,,,,,,,,,,,,,,,,,,,,,,,,,,,,,,,,,,,,,,,,,,,,,,,,,,,,,,,,,,,,,,,,,,,,,,,,,,,,,,,,,,,,,,,,,,,,,,,,
,,,,,,7,0,7,0,1,X V Q F H G B L J M P D K C T S W R N Z,5dcec3fa946f7c000b1b7c74,23,Mężczyzna,2022-06-11_09h29.30.503,task,2021.1.4,MacIntel,60.0024001,6299f149e92ead563fba08ef,62a44433d5e6554b473699c0,,,,,,,,,,,,,,,,,,,,,,,,,,,,,,,,,,,,,,,,,,,,,,,,,,,,,,,,,,,,,,,,,,,,,,,,,,,,,,,,,,,,,,,,,,,,,,,,,,,,,
,,,,,,8,0,8,0,1,X V Q F H G B L J M P D K C T S W R N Z,5dcec3fa946f7c000b1b7c74,23,Mężczyzna,2022-06-11_09h29.30.503,task,2021.1.4,MacIntel,60.0024001,6299f149e92ead563fba08ef,62a44433d5e6554b473699c0,,,,,,,,,,,,,,,,,,,,,,,,,,,,,,,,,,,,,,,,,,,,,,,,,,,,,,,,,,,,,,,,,,,,,,,,,,,,,,,,,,,,,,,,,,,,,,,,,,,,,
,,,,,,,,,,,,5dcec3fa946f7c000b1b7c74,23,Mężczyzna,2022-06-11_09h29.30.503,task,2021.1.4,MacIntel,60.0024001,6299f149e92ead563fba08ef,62a44433d5e6554b473699c0,hswqzwwzv,"[""h"",""s"",""w"",""q"",""z"",""w"",""w"",""z"",""v""]","[2.751100000001486,3.8657000000029598,4.949999999999989,6.468500000000006,7.681299999997009,8.815600000001496,10.000700000003008,11.322299999997028,13.000700000003008,21.33320000000299]",1,HSWQZWWZV,17,0,17,0,1,,,,,,,,,,,,,,,,,,,,,,,,,,,,,,,,,,,,,,,,,,,,,,,,,,,,,,,,,,,,,,,,,,,,,,,,,,,,,,,,,,,,,,,,,,,
,,,,,,0,0,0,0,1,X V Q F H G B L J M P D K C T S W R N Z,5dcec3fa946f7c000b1b7c74,23,Mężczyzna,2022-06-11_09h29.30.503,task,2021.1.4,MacIntel,60.0024001,6299f149e92ead563fba08ef,62a44433d5e6554b473699c0,,,,,,,,,,,,,,,,,,,,,,,,,,,,,,,,,,,,,,,,,,,,,,,,,,,,,,,,,,,,,,,,,,,,,,,,,,,,,,,,,,,,,,,,,,,,,,,,,,,,,
,,,,,,1,0,1,0,1,X V Q F H G B L J M P D K C T S W R N Z,5dcec3fa946f7c000b1b7c74,23,Mężczyzna,2022-06-11_09h29.30.503,task,2021.1.4,MacIntel,60.0024001,6299f149e92ead563fba08ef,62a44433d5e6554b473699c0,,,,,,,,,,,,,,,,,,,,,,,,,,,,,,,,,,,,,,,,,,,,,,,,,,,,,,,,,,,,,,,,,,,,,,,,,,,,,,,,,,,,,,,,,,,,,,,,,,,,,
,,,,,,2,0,2,0,1,X V Q F H G B L J M P D K C T S W R N Z,5dcec3fa946f7c000b1b7c74,23,Mężczyzna,2022-06-11_09h29.30.503,task,2021.1.4,MacIntel,60.0024001,6299f149e92ead563fba08ef,62a44433d5e6554b473699c0,,,,,,,,,,,,,,,,,,,,,,,,,,,,,,,,,,,,,,,,,,,,,,,,,,,,,,,,,,,,,,,,,,,,,,,,,,,,,,,,,,,,,,,,,,,,,,,,,,,,,
,,,,,,3,0,3,0,1,X V Q F H G B L J M P D K C T S W R N Z,5dcec3fa946f7c000b1b7c74,23,Mężczyzna,2022-06-11_09h29.30.503,task,2021.1.4,MacIntel,60.0024001,6299f149e92ead563fba08ef,62a44433d5e6554b473699c0,,,,,,,,,,,,,,,,,,,,,,,,,,,,,,,,,,,,,,,,,,,,,,,,,,,,,,,,,,,,,,,,,,,,,,,,,,,,,,,,,,,,,,,,,,,,,,,,,,,,,
,,,,,,4,0,4,0,1,X V Q F H G B L J M P D K C T S W R N Z,5dcec3fa946f7c000b1b7c74,23,Mężczyzna,2022-06-11_09h29.30.503,task,2021.1.4,MacIntel,60.0024001,6299f149e92ead563fba08ef,62a44433d5e6554b473699c0,,,,,,,,,,,,,,,,,,,,,,,,,,,,,,,,,,,,,,,,,,,,,,,,,,,,,,,,,,,,,,,,,,,,,,,,,,,,,,,,,,,,,,,,,,,,,,,,,,,,,
,,,,,,5,0,5,0,1,X V Q F H G B L J M P D K C T S W R N Z,5dcec3fa946f7c000b1b7c74,23,Mężczyzna,2022-06-11_09h29.30.503,task,2021.1.4,MacIntel,60.0024001,6299f149e92ead563fba08ef,62a44433d5e6554b473699c0,,,,,,,,,,,,,,,,,,,,,,,,,,,,,,,,,,,,,,,,,,,,,,,,,,,,,,,,,,,,,,,,,,,,,,,,,,,,,,,,,,,,,,,,,,,,,,,,,,,,,
,,,,,,6,0,6,0,1,X V Q F H G B L J M P D K C T S W R N Z,5dcec3fa946f7c000b1b7c74,23,Mężczyzna,2022-06-11_09h29.30.503,task,2021.1.4,MacIntel,60.0024001,6299f149e92ead563fba08ef,62a44433d5e6554b473699c0,,,,,,,,,,,,,,,,,,,,,,,,,,,,,,,,,,,,,,,,,,,,,,,,,,,,,,,,,,,,,,,,,,,,,,,,,,,,,,,,,,,,,,,,,,,,,,,,,,,,,
,,,,,,7,0,7,0,1,X V Q F H G B L J M P D K C T S W R N Z,5dcec3fa946f7c000b1b7c74,23,Mężczyzna,2022-06-11_09h29.30.503,task,2021.1.4,MacIntel,60.0024001,6299f149e92ead563fba08ef,62a44433d5e6554b473699c0,,,,,,,,,,,,,,,,,,,,,,,,,,,,,,,,,,,,,,,,,,,,,,,,,,,,,,,,,,,,,,,,,,,,,,,,,,,,,,,,,,,,,,,,,,,,,,,,,,,,,
,,,,,,8,0,8,0,1,X V Q F H G B L J M P D K C T S W R N Z,5dcec3fa946f7c000b1b7c74,23,Mężczyzna,2022-06-11_09h29.30.503,task,2021.1.4,MacIntel,60.0024001,6299f149e92ead563fba08ef,62a44433d5e6554b473699c0,,,,,,,,,,,,,,,,,,,,,,,,,,,,,,,,,,,,,,,,,,,,,,,,,,,,,,,,,,,,,,,,,,,,,,,,,,,,,,,,,,,,,,,,,,,,,,,,,,,,,
,,,,,,9,0,9,0,1,X V Q F H G B L J M P D K C T S W R N Z,5dcec3fa946f7c000b1b7c74,23,Mężczyzna,2022-06-11_09h29.30.503,task,2021.1.4,MacIntel,60.0024001,6299f149e92ead563fba08ef,62a44433d5e6554b473699c0,,,,,,,,,,,,,,,,,,,,,,,,,,,,,,,,,,,,,,,,,,,,,,,,,,,,,,,,,,,,,,,,,,,,,,,,,,,,,,,,,,,,,,,,,,,,,,,,,,,,,
,,,,,,,,,,,,5dcec3fa946f7c000b1b7c74,23,Mężczyzna,2022-06-11_09h29.30.503,task,2021.1.4,MacIntel,60.0024001,6299f149e92ead563fba08ef,62a44433d5e6554b473699c0,mkdpqvtgfj,"[""m"",""k"",""d"",""p"",""q"",""v"",""t"",""g"",""f"",""j""]","[2.5149999999999864,3.7420000000000186,5.148700000002975,6.323500000000024,7.634200000002977,8.934000000000026,10.417200000002993,11.549200000002998,12.835899999998503,14.086100000001522,23.05060000000151]",1,MKDPQVTGFJ,18,0,18,0,1,,,,,,,,,,,,,,,,,,,,,,,,,,,,,,,,,,,,,,,,,,,,,,,,,,,,,,,,,,,,,,,,,,,,,,,,,,,,,,,,,,,,,,,,,,,
,,,,,,0,0,0,0,1,X V Q F H G B L J M P D K C T S W R N Z,5dcec3fa946f7c000b1b7c74,23,Mężczyzna,2022-06-11_09h29.30.503,task,2021.1.4,MacIntel,60.0024001,6299f149e92ead563fba08ef,62a44433d5e6554b473699c0,,,,,,,,,,,,,,,,,,,,,,,,,,,,,,,,,,,,,,,,,,,,,,,,,,,,,,,,,,,,,,,,,,,,,,,,,,,,,,,,,,,,,,,,,,,,,,,,,,,,,
,,,,,,1,0,1,0,1,X V Q F H G B L J M P D K C T S W R N Z,5dcec3fa946f7c000b1b7c74,23,Mężczyzna,2022-06-11_09h29.30.503,task,2021.1.4,MacIntel,60.0024001,6299f149e92ead563fba08ef,62a44433d5e6554b473699c0,,,,,,,,,,,,,,,,,,,,,,,,,,,,,,,,,,,,,,,,,,,,,,,,,,,,,,,,,,,,,,,,,,,,,,,,,,,,,,,,,,,,,,,,,,,,,,,,,,,,,
,,,,,,2,0,2,0,1,X V Q F H G B L J M P D K C T S W R N Z,5dcec3fa946f7c000b1b7c74,23,Mężczyzna,2022-06-11_09h29.30.503,task,2021.1.4,MacIntel,60.0024001,6299f149e92ead563fba08ef,62a44433d5e6554b473699c0,,,,,,,,,,,,,,,,,,,,,,,,,,,,,,,,,,,,,,,,,,,,,,,,,,,,,,,,,,,,,,,,,,,,,,,,,,,,,,,,,,,,,,,,,,,,,,,,,,,,,
,,,,,,3,0,3,0,1,X V Q F H G B L J M P D K C T S W R N Z,5dcec3fa946f7c000b1b7c74,23,Mężczyzna,2022-06-11_09h29.30.503,task,2021.1.4,MacIntel,60.0024001,6299f149e92ead563fba08ef,62a44433d5e6554b473699c0,,,,,,,,,,,,,,,,,,,,,,,,,,,,,,,,,,,,,,,,,,,,,,,,,,,,,,,,,,,,,,,,,,,,,,,,,,,,,,,,,,,,,,,,,,,,,,,,,,,,,
,,,,,,4,0,4,0,1,X V Q F H G B L J M P D K C T S W R N Z,5dcec3fa946f7c000b1b7c74,23,Mężczyzna,2022-06-11_09h29.30.503,task,2021.1.4,MacIntel,60.0024001,6299f149e92ead563fba08ef,62a44433d5e6554b473699c0,,,,,,,,,,,,,,,,,,,,,,,,,,,,,,,,,,,,,,,,,,,,,,,,,,,,,,,,,,,,,,,,,,,,,,,,,,,,,,,,,,,,,,,,,,,,,,,,,,,,,
,,,,,,5,0,5,0,1,X V Q F H G B L J M P D K C T S W R N Z,5dcec3fa946f7c000b1b7c74,23,Mężczyzna,2022-06-11_09h29.30.503,task,2021.1.4,MacIntel,60.0024001,6299f149e92ead563fba08ef,62a44433d5e6554b473699c0,,,,,,,,,,,,,,,,,,,,,,,,,,,,,,,,,,,,,,,,,,,,,,,,,,,,,,,,,,,,,,,,,,,,,,,,,,,,,,,,,,,,,,,,,,,,,,,,,,,,,
,,,,,,6,0,6,0,1,X V Q F H G B L J M P D K C T S W R N Z,5dcec3fa946f7c000b1b7c74,23,Mężczyzna,2022-06-11_09h29.30.503,task,2021.1.4,MacIntel,60.0024001,6299f149e92ead563fba08ef,62a44433d5e6554b473699c0,,,,,,,,,,,,,,,,,,,,,,,,,,,,,,,,,,,,,,,,,,,,,,,,,,,,,,,,,,,,,,,,,,,,,,,,,,,,,,,,,,,,,,,,,,,,,,,,,,,,,
,,,,,,7,0,7,0,1,X V Q F H G B L J M P D K C T S W R N Z,5dcec3fa946f7c000b1b7c74,23,Mężczyzna,2022-06-11_09h29.30.503,task,2021.1.4,MacIntel,60.0024001,6299f149e92ead563fba08ef,62a44433d5e6554b473699c0,,,,,,,,,,,,,,,,,,,,,,,,,,,,,,,,,,,,,,,,,,,,,,,,,,,,,,,,,,,,,,,,,,,,,,,,,,,,,,,,,,,,,,,,,,,,,,,,,,,,,
,,,,,,8,0,8,0,1,X V Q F H G B L J M P D K C T S W R N Z,5dcec3fa946f7c000b1b7c74,23,Mężczyzna,2022-06-11_09h29.30.503,task,2021.1.4,MacIntel,60.0024001,6299f149e92ead563fba08ef,62a44433d5e6554b473699c0,,,,,,,,,,,,,,,,,,,,,,,,,,,,,,,,,,,,,,,,,,,,,,,,,,,,,,,,,,,,,,,,,,,,,,,,,,,,,,,,,,,,,,,,,,,,,,,,,,,,,
,,,,,,9,0,9,0,1,X V Q F H G B L J M P D K C T S W R N Z,5dcec3fa946f7c000b1b7c74,23,Mężczyzna,2022-06-11_09h29.30.503,task,2021.1.4,MacIntel,60.0024001,6299f149e92ead563fba08ef,62a44433d5e6554b473699c0,,,,,,,,,,,,,,,,,,,,,,,,,,,,,,,,,,,,,,,,,,,,,,,,,,,,,,,,,,,,,,,,,,,,,,,,,,,,,,,,,,,,,,,,,,,,,,,,,,,,,
,,,,,,,,,,,,5dcec3fa946f7c000b1b7c74,23,Mężczyzna,2022-06-11_09h29.30.503,task,2021.1.4,MacIntel,60.0024001,6299f149e92ead563fba08ef,62a44433d5e6554b473699c0,jzlvfdtqjw,"[""j"",""z"",""l"",""v"",""f"",""d"",""t"",""q"",""j"",""w""]","[2.573500000000024,3.6178999999984853,5.10439999999852,6.317399999998486,7.565499999999986,8.80229999999699,10.190199999995514,11.5176999999955,12.834600000001501,14.05589999999853,24.50329999999701]",1,JZLVFDTQJW,19,0,19,0,1,,,,,,,,,,,,,,,,,,,,,,,,,,,,,,,,,,,,,,,,,,,,,,,,,,,,,,,,,,,,,,,,,,,,,,,,,,,,,,,,,,,,,,,,,,,
,,,,,,0,0,0,0,1,X V Q F H G B L J M P D K C T S W R N Z,5dcec3fa946f7c000b1b7c74,23,Mężczyzna,2022-06-11_09h29.30.503,task,2021.1.4,MacIntel,60.0024001,6299f149e92ead563fba08ef,62a44433d5e6554b473699c0,,,,,,,,,,,,,,,,,,,,,,,,,,,,,,,,,,,,,,,,,,,,,,,,,,,,,,,,,,,,,,,,,,,,,,,,,,,,,,,,,,,,,,,,,,,,,,,,,,,,,
,,,,,,1,0,1,0,1,X V Q F H G B L J M P D K C T S W R N Z,5dcec3fa946f7c000b1b7c74,23,Mężczyzna,2022-06-11_09h29.30.503,task,2021.1.4,MacIntel,60.0024001,6299f149e92ead563fba08ef,62a44433d5e6554b473699c0,,,,,,,,,,,,,,,,,,,,,,,,,,,,,,,,,,,,,,,,,,,,,,,,,,,,,,,,,,,,,,,,,,,,,,,,,,,,,,,,,,,,,,,,,,,,,,,,,,,,,
,,,,,,2,0,2,0,1,X V Q F H G B L J M P D K C T S W R N Z,5dcec3fa946f7c000b1b7c74,23,Mężczyzna,2022-06-11_09h29.30.503,task,2021.1.4,MacIntel,60.0024001,6299f149e92ead563fba08ef,62a44433d5e6554b473699c0,,,,,,,,,,,,,,,,,,,,,,,,,,,,,,,,,,,,,,,,,,,,,,,,,,,,,,,,,,,,,,,,,,,,,,,,,,,,,,,,,,,,,,,,,,,,,,,,,,,,,
,,,,,,3,0,3,0,1,X V Q F H G B L J M P D K C T S W R N Z,5dcec3fa946f7c000b1b7c74,23,Mężczyzna,2022-06-11_09h29.30.503,task,2021.1.4,MacIntel,60.0024001,6299f149e92ead563fba08ef,62a44433d5e6554b473699c0,,,,,,,,,,,,,,,,,,,,,,,,,,,,,,,,,,,,,,,,,,,,,,,,,,,,,,,,,,,,,,,,,,,,,,,,,,,,,,,,,,,,,,,,,,,,,,,,,,,,,
,,,,,,4,0,4,0,1,X V Q F H G B L J M P D K C T S W R N Z,5dcec3fa946f7c000b1b7c74,23,Mężczyzna,2022-06-11_09h29.30.503,task,2021.1.4,MacIntel,60.0024001,6299f149e92ead563fba08ef,62a44433d5e6554b473699c0,,,,,,,,,,,,,,,,,,,,,,,,,,,,,,,,,,,,,,,,,,,,,,,,,,,,,,,,,,,,,,,,,,,,,,,,,,,,,,,,,,,,,,,,,,,,,,,,,,,,,
,,,,,,5,0,5,0,1,X V Q F H G B L J M P D K C T S W R N Z,5dcec3fa946f7c000b1b7c74,23,Mężczyzna,2022-06-11_09h29.30.503,task,2021.1.4,MacIntel,60.0024001,6299f149e92ead563fba08ef,62a44433d5e6554b473699c0,,,,,,,,,,,,,,,,,,,,,,,,,,,,,,,,,,,,,,,,,,,,,,,,,,,,,,,,,,,,,,,,,,,,,,,,,,,,,,,,,,,,,,,,,,,,,,,,,,,,,
,,,,,,6,0,6,0,1,X V Q F H G B L J M P D K C T S W R N Z,5dcec3fa946f7c000b1b7c74,23,Mężczyzna,2022-06-11_09h29.30.503,task,2021.1.4,MacIntel,60.0024001,6299f149e92ead563fba08ef,62a44433d5e6554b473699c0,,,,,,,,,,,,,,,,,,,,,,,,,,,,,,,,,,,,,,,,,,,,,,,,,,,,,,,,,,,,,,,,,,,,,,,,,,,,,,,,,,,,,,,,,,,,,,,,,,,,,
,,,,,,7,0,7,0,1,X V Q F H G B L J M P D K C T S W R N Z,5dcec3fa946f7c000b1b7c74,23,Mężczyzna,2022-06-11_09h29.30.503,task,2021.1.4,MacIntel,60.0024001,6299f149e92ead563fba08ef,62a44433d5e6554b473699c0,,,,,,,,,,,,,,,,,,,,,,,,,,,,,,,,,,,,,,,,,,,,,,,,,,,,,,,,,,,,,,,,,,,,,,,,,,,,,,,,,,,,,,,,,,,,,,,,,,,,,
,,,,,,8,0,8,0,1,X V Q F H G B L J M P D K C T S W R N Z,5dcec3fa946f7c000b1b7c74,23,Mężczyzna,2022-06-11_09h29.30.503,task,2021.1.4,MacIntel,60.0024001,6299f149e92ead563fba08ef,62a44433d5e6554b473699c0,,,,,,,,,,,,,,,,,,,,,,,,,,,,,,,,,,,,,,,,,,,,,,,,,,,,,,,,,,,,,,,,,,,,,,,,,,,,,,,,,,,,,,,,,,,,,,,,,,,,,
,,,,,,9,0,9,0,1,X V Q F H G B L J M P D K C T S W R N Z,5dcec3fa946f7c000b1b7c74,23,Mężczyzna,2022-06-11_09h29.30.503,task,2021.1.4,MacIntel,60.0024001,6299f149e92ead563fba08ef,62a44433d5e6554b473699c0,,,,,,,,,,,,,,,,,,,,,,,,,,,,,,,,,,,,,,,,,,,,,,,,,,,,,,,,,,,,,,,,,,,,,,,,,,,,,,,,,,,,,,,,,,,,,,,,,,,,,
,,,,,,10,0,10,0,1,X V Q F H G B L J M P D K C T S W R N Z,5dcec3fa946f7c000b1b7c74,23,Mężczyzna,2022-06-11_09h29.30.503,task,2021.1.4,MacIntel,60.0024001,6299f149e92ead563fba08ef,62a44433d5e6554b473699c0,,,,,,,,,,,,,,,,,,,,,,,,,,,,,,,,,,,,,,,,,,,,,,,,,,,,,,,,,,,,,,,,,,,,,,,,,,,,,,,,,,,,,,,,,,,,,,,,,,,,,
,,,,,,,,,,,,5dcec3fa946f7c000b1b7c74,23,Mężczyzna,2022-06-11_09h29.30.503,task,2021.1.4,MacIntel,60.0024001,6299f149e92ead563fba08ef,62a44433d5e6554b473699c0,npnfflwvcxn,"[""n"",""p"",""n"",""f"",""f"",""l"",""w"",""v"",""c"",""x"",""n""]","[2.617900000005932,3.867500000000007,5.11370000000295,6.367700000002969,7.4021000000014965,8.999900000005937,10.270900000005952,11.505900000005965,12.83930000000447,14.093400000005943,17.916800000004457,26.81710000000146]",1,NPNFFLWVCXN,20,0,20,0,1,,,,,,,,,,,,,,,,,,,,,,,,,,,,,,,,,,,,,,,,,,,,,,,,,,,,,,,,,,,,,,,,,,,,,,,,,,,,,,,,,,,,,,,,,,,
,,,,,,0,0,0,0,1,X V Q F H G B L J M P D K C T S W R N Z,5dcec3fa946f7c000b1b7c74,23,Mężczyzna,2022-06-11_09h29.30.503,task,2021.1.4,MacIntel,60.0024001,6299f149e92ead563fba08ef,62a44433d5e6554b473699c0,,,,,,,,,,,,,,,,,,,,,,,,,,,,,,,,,,,,,,,,,,,,,,,,,,,,,,,,,,,,,,,,,,,,,,,,,,,,,,,,,,,,,,,,,,,,,,,,,,,,,
,,,,,,1,0,1,0,1,X V Q F H G B L J M P D K C T S W R N Z,5dcec3fa946f7c000b1b7c74,23,Mężczyzna,2022-06-11_09h29.30.503,task,2021.1.4,MacIntel,60.0024001,6299f149e92ead563fba08ef,62a44433d5e6554b473699c0,,,,,,,,,,,,,,,,,,,,,,,,,,,,,,,,,,,,,,,,,,,,,,,,,,,,,,,,,,,,,,,,,,,,,,,,,,,,,,,,,,,,,,,,,,,,,,,,,,,,,
,,,,,,2,0,2,0,1,X V Q F H G B L J M P D K C T S W R N Z,5dcec3fa946f7c000b1b7c74,23,Mężczyzna,2022-06-11_09h29.30.503,task,2021.1.4,MacIntel,60.0024001,6299f149e92ead563fba08ef,62a44433d5e6554b473699c0,,,,,,,,,,,,,,,,,,,,,,,,,,,,,,,,,,,,,,,,,,,,,,,,,,,,,,,,,,,,,,,,,,,,,,,,,,,,,,,,,,,,,,,,,,,,,,,,,,,,,
,,,,,,3,0,3,0,1,X V Q F H G B L J M P D K C T S W R N Z,5dcec3fa946f7c000b1b7c74,23,Mężczyzna,2022-06-11_09h29.30.503,task,2021.1.4,MacIntel,60.0024001,6299f149e92ead563fba08ef,62a44433d5e6554b473699c0,,,,,,,,,,,,,,,,,,,,,,,,,,,,,,,,,,,,,,,,,,,,,,,,,,,,,,,,,,,,,,,,,,,,,,,,,,,,,,,,,,,,,,,,,,,,,,,,,,,,,
,,,,,,4,0,4,0,1,X V Q F H G B L J M P D K C T S W R N Z,5dcec3fa946f7c000b1b7c74,23,Mężczyzna,2022-06-11_09h29.30.503,task,2021.1.4,MacIntel,60.0024001,6299f149e92ead563fba08ef,62a44433d5e6554b473699c0,,,,,,,,,,,,,,,,,,,,,,,,,,,,,,,,,,,,,,,,,,,,,,,,,,,,,,,,,,,,,,,,,,,,,,,,,,,,,,,,,,,,,,,,,,,,,,,,,,,,,
,,,,,,5,0,5,0,1,X V Q F H G B L J M P D K C T S W R N Z,5dcec3fa946f7c000b1b7c74,23,Mężczyzna,2022-06-11_09h29.30.503,task,2021.1.4,MacIntel,60.0024001,6299f149e92ead563fba08ef,62a44433d5e6554b473699c0,,,,,,,,,,,,,,,,,,,,,,,,,,,,,,,,,,,,,,,,,,,,,,,,,,,,,,,,,,,,,,,,,,,,,,,,,,,,,,,,,,,,,,,,,,,,,,,,,,,,,
,,,,,,6,0,6,0,1,X V Q F H G B L J M P D K C T S W R N Z,5dcec3fa946f7c000b1b7c74,23,Mężczyzna,2022-06-11_09h29.30.503,task,2021.1.4,MacIntel,60.0024001,6299f149e92ead563fba08ef,62a44433d5e6554b473699c0,,,,,,,,,,,,,,,,,,,,,,,,,,,,,,,,,,,,,,,,,,,,,,,,,,,,,,,,,,,,,,,,,,,,,,,,,,,,,,,,,,,,,,,,,,,,,,,,,,,,,
,,,,,,7,0,7,0,1,X V Q F H G B L J M P D K C T S W R N Z,5dcec3fa946f7c000b1b7c74,23,Mężczyzna,2022-06-11_09h29.30.503,task,2021.1.4,MacIntel,60.0024001,6299f149e92ead563fba08ef,62a44433d5e6554b473699c0,,,,,,,,,,,,,,,,,,,,,,,,,,,,,,,,,,,,,,,,,,,,,,,,,,,,,,,,,,,,,,,,,,,,,,,,,,,,,,,,,,,,,,,,,,,,,,,,,,,,,
,,,,,,8,0,8,0,1,X V Q F H G B L J M P D K C T S W R N Z,5dcec3fa946f7c000b1b7c74,23,Mężczyzna,2022-06-11_09h29.30.503,task,2021.1.4,MacIntel,60.0024001,6299f149e92ead563fba08ef,62a44433d5e6554b473699c0,,,,,,,,,,,,,,,,,,,,,,,,,,,,,,,,,,,,,,,,,,,,,,,,,,,,,,,,,,,,,,,,,,,,,,,,,,,,,,,,,,,,,,,,,,,,,,,,,,,,,
,,,,,,9,0,9,0,1,X V Q F H G B L J M P D K C T S W R N Z,5dcec3fa946f7c000b1b7c74,23,Mężczyzna,2022-06-11_09h29.30.503,task,2021.1.4,MacIntel,60.0024001,6299f149e92ead563fba08ef,62a44433d5e6554b473699c0,,,,,,,,,,,,,,,,,,,,,,,,,,,,,,,,,,,,,,,,,,,,,,,,,,,,,,,,,,,,,,,,,,,,,,,,,,,,,,,,,,,,,,,,,,,,,,,,,,,,,
,,,,,,10,0,10,0,1,X V Q F H G B L J M P D K C T S W R N Z,5dcec3fa946f7c000b1b7c74,23,Mężczyzna,2022-06-11_09h29.30.503,task,2021.1.4,MacIntel,60.0024001,6299f149e92ead563fba08ef,62a44433d5e6554b473699c0,,,,,,,,,,,,,,,,,,,,,,,,,,,,,,,,,,,,,,,,,,,,,,,,,,,,,,,,,,,,,,,,,,,,,,,,,,,,,,,,,,,,,,,,,,,,,,,,,,,,,
,,,,,,,,,,,,5dcec3fa946f7c000b1b7c74,23,Mężczyzna,2022-06-11_09h29.30.503,task,2021.1.4,MacIntel,60.0024001,6299f149e92ead563fba08ef,62a44433d5e6554b473699c0,trbzecbvzwc,"[""t"",""r"",""b"",""z"",""e"",""c"",""b"",""v"",""z"",""w"",""c""]","[2.5993999999985817,3.584100000001513,4.992800000004536,6.1231000000015,7.666300000004526,8.8125,10.165600000001518,11.486399999998525,12.798899999998525,14.017500000000041,15.265500000000088,23.051700000003052]",0,TRBZTCBVZWC,21,0,21,0,1,,,,,,,,,,,,,,,,,,,,,,,,,,,,,,,,,,,,,,,,,,,,,,,,,,,,,,,,,,,,,,,,,,,,,,,,,,,,,,,,,,,,,,,,,,,
,,,,,,0,0,0,0,1,X V Q F H G B L J M P D K C T S W R N Z,5dcec3fa946f7c000b1b7c74,23,Mężczyzna,2022-06-11_09h29.30.503,task,2021.1.4,MacIntel,60.0024001,6299f149e92ead563fba08ef,62a44433d5e6554b473699c0,,,,,,,,,,,,,,,,,,,,,,,,,,,,,,,,,,,,,,,,,,,,,,,,,,,,,,,,,,,,,,,,,,,,,,,,,,,,,,,,,,,,,,,,,,,,,,,,,,,,,
,,,,,,1,0,1,0,1,X V Q F H G B L J M P D K C T S W R N Z,5dcec3fa946f7c000b1b7c74,23,Mężczyzna,2022-06-11_09h29.30.503,task,2021.1.4,MacIntel,60.0024001,6299f149e92ead563fba08ef,62a44433d5e6554b473699c0,,,,,,,,,,,,,,,,,,,,,,,,,,,,,,,,,,,,,,,,,,,,,,,,,,,,,,,,,,,,,,,,,,,,,,,,,,,,,,,,,,,,,,,,,,,,,,,,,,,,,
,,,,,,2,0,2,0,1,X V Q F H G B L J M P D K C T S W R N Z,5dcec3fa946f7c000b1b7c74,23,Mężczyzna,2022-06-11_09h29.30.503,task,2021.1.4,MacIntel,60.0024001,6299f149e92ead563fba08ef,62a44433d5e6554b473699c0,,,,,,,,,,,,,,,,,,,,,,,,,,,,,,,,,,,,,,,,,,,,,,,,,,,,,,,,,,,,,,,,,,,,,,,,,,,,,,,,,,,,,,,,,,,,,,,,,,,,,
,,,,,,3,0,3,0,1,X V Q F H G B L J M P D K C T S W R N Z,5dcec3fa946f7c000b1b7c74,23,Mężczyzna,2022-06-11_09h29.30.503,task,2021.1.4,MacIntel,60.0024001,6299f149e92ead563fba08ef,62a44433d5e6554b473699c0,,,,,,,,,,,,,,,,,,,,,,,,,,,,,,,,,,,,,,,,,,,,,,,,,,,,,,,,,,,,,,,,,,,,,,,,,,,,,,,,,,,,,,,,,,,,,,,,,,,,,
,,,,,,4,0,4,0,1,X V Q F H G B L J M P D K C T S W R N Z,5dcec3fa946f7c000b1b7c74,23,Mężczyzna,2022-06-11_09h29.30.503,task,2021.1.4,MacIntel,60.0024001,6299f149e92ead563fba08ef,62a44433d5e6554b473699c0,,,,,,,,,,,,,,,,,,,,,,,,,,,,,,,,,,,,,,,,,,,,,,,,,,,,,,,,,,,,,,,,,,,,,,,,,,,,,,,,,,,,,,,,,,,,,,,,,,,,,
,,,,,,5,0,5,0,1,X V Q F H G B L J M P D K C T S W R N Z,5dcec3fa946f7c000b1b7c74,23,Mężczyzna,2022-06-11_09h29.30.503,task,2021.1.4,MacIntel,60.0024001,6299f149e92ead563fba08ef,62a44433d5e6554b473699c0,,,,,,,,,,,,,,,,,,,,,,,,,,,,,,,,,,,,,,,,,,,,,,,,,,,,,,,,,,,,,,,,,,,,,,,,,,,,,,,,,,,,,,,,,,,,,,,,,,,,,
,,,,,,6,0,6,0,1,X V Q F H G B L J M P D K C T S W R N Z,5dcec3fa946f7c000b1b7c74,23,Mężczyzna,2022-06-11_09h29.30.503,task,2021.1.4,MacIntel,60.0024001,6299f149e92ead563fba08ef,62a44433d5e6554b473699c0,,,,,,,,,,,,,,,,,,,,,,,,,,,,,,,,,,,,,,,,,,,,,,,,,,,,,,,,,,,,,,,,,,,,,,,,,,,,,,,,,,,,,,,,,,,,,,,,,,,,,
,,,,,,7,0,7,0,1,X V Q F H G B L J M P D K C T S W R N Z,5dcec3fa946f7c000b1b7c74,23,Mężczyzna,2022-06-11_09h29.30.503,task,2021.1.4,MacIntel,60.0024001,6299f149e92ead563fba08ef,62a44433d5e6554b473699c0,,,,,,,,,,,,,,,,,,,,,,,,,,,,,,,,,,,,,,,,,,,,,,,,,,,,,,,,,,,,,,,,,,,,,,,,,,,,,,,,,,,,,,,,,,,,,,,,,,,,,
,,,,,,8,0,8,0,1,X V Q F H G B L J M P D K C T S W R N Z,5dcec3fa946f7c000b1b7c74,23,Mężczyzna,2022-06-11_09h29.30.503,task,2021.1.4,MacIntel,60.0024001,6299f149e92ead563fba08ef,62a44433d5e6554b473699c0,,,,,,,,,,,,,,,,,,,,,,,,,,,,,,,,,,,,,,,,,,,,,,,,,,,,,,,,,,,,,,,,,,,,,,,,,,,,,,,,,,,,,,,,,,,,,,,,,,,,,
,,,,,,9,0,9,0,1,X V Q F H G B L J M P D K C T S W R N Z,5dcec3fa946f7c000b1b7c74,23,Mężczyzna,2022-06-11_09h29.30.503,task,2021.1.4,MacIntel,60.0024001,6299f149e92ead563fba08ef,62a44433d5e6554b473699c0,,,,,,,,,,,,,,,,,,,,,,,,,,,,,,,,,,,,,,,,,,,,,,,,,,,,,,,,,,,,,,,,,,,,,,,,,,,,,,,,,,,,,,,,,,,,,,,,,,,,,
,,,,,,10,0,10,0,1,X V Q F H G B L J M P D K C T S W R N Z,5dcec3fa946f7c000b1b7c74,23,Mężczyzna,2022-06-11_09h29.30.503,task,2021.1.4,MacIntel,60.0024001,6299f149e92ead563fba08ef,62a44433d5e6554b473699c0,,,,,,,,,,,,,,,,,,,,,,,,,,,,,,,,,,,,,,,,,,,,,,,,,,,,,,,,,,,,,,,,,,,,,,,,,,,,,,,,,,,,,,,,,,,,,,,,,,,,,
,,,,,,,,,,,,5dcec3fa946f7c000b1b7c74,23,Mężczyzna,2022-06-11_09h29.30.503,task,2021.1.4,MacIntel,60.0024001,6299f149e92ead563fba08ef,62a44433d5e6554b473699c0,mjjlpvhhmht,"[""m"",""j"",""j"",""l"",""p"",""v"",""h"",""h"",""m"",""h"",""t""]","[2.6182000000029575,3.9157999999970343,4.915899999998487,6.318200000003003,7.617299999997044,9.101200000003018,10.432799999997087,11.716299999996977,12.901899999998477,14.293399999998542,15.534899999998515,24.268700000003037]",1,MJJLPVHHMHT,22,0,22,0,1,,,,,,,,,,,,,,,,,,,,,,,,,,,,,,,,,,,,,,,,,,,,,,,,,,,,,,,,,,,,,,,,,,,,,,,,,,,,,,,,,,,,,,,,,,,
,,,,,,0,0,0,0,1,X V Q F H G B L J M P D K C T S W R N Z,5dcec3fa946f7c000b1b7c74,23,Mężczyzna,2022-06-11_09h29.30.503,task,2021.1.4,MacIntel,60.0024001,6299f149e92ead563fba08ef,62a44433d5e6554b473699c0,,,,,,,,,,,,,,,,,,,,,,,,,,,,,,,,,,,,,,,,,,,,,,,,,,,,,,,,,,,,,,,,,,,,,,,,,,,,,,,,,,,,,,,,,,,,,,,,,,,,,
,,,,,,1,0,1,0,1,X V Q F H G B L J M P D K C T S W R N Z,5dcec3fa946f7c000b1b7c74,23,Mężczyzna,2022-06-11_09h29.30.503,task,2021.1.4,MacIntel,60.0024001,6299f149e92ead563fba08ef,62a44433d5e6554b473699c0,,,,,,,,,,,,,,,,,,,,,,,,,,,,,,,,,,,,,,,,,,,,,,,,,,,,,,,,,,,,,,,,,,,,,,,,,,,,,,,,,,,,,,,,,,,,,,,,,,,,,
,,,,,,2,0,2,0,1,X V Q F H G B L J M P D K C T S W R N Z,5dcec3fa946f7c000b1b7c74,23,Mężczyzna,2022-06-11_09h29.30.503,task,2021.1.4,MacIntel,60.0024001,6299f149e92ead563fba08ef,62a44433d5e6554b473699c0,,,,,,,,,,,,,,,,,,,,,,,,,,,,,,,,,,,,,,,,,,,,,,,,,,,,,,,,,,,,,,,,,,,,,,,,,,,,,,,,,,,,,,,,,,,,,,,,,,,,,
,,,,,,3,0,3,0,1,X V Q F H G B L J M P D K C T S W R N Z,5dcec3fa946f7c000b1b7c74,23,Mężczyzna,2022-06-11_09h29.30.503,task,2021.1.4,MacIntel,60.0024001,6299f149e92ead563fba08ef,62a44433d5e6554b473699c0,,,,,,,,,,,,,,,,,,,,,,,,,,,,,,,,,,,,,,,,,,,,,,,,,,,,,,,,,,,,,,,,,,,,,,,,,,,,,,,,,,,,,,,,,,,,,,,,,,,,,
,,,,,,4,0,4,0,1,X V Q F H G B L J M P D K C T S W R N Z,5dcec3fa946f7c000b1b7c74,23,Mężczyzna,2022-06-11_09h29.30.503,task,2021.1.4,MacIntel,60.0024001,6299f149e92ead563fba08ef,62a44433d5e6554b473699c0,,,,,,,,,,,,,,,,,,,,,,,,,,,,,,,,,,,,,,,,,,,,,,,,,,,,,,,,,,,,,,,,,,,,,,,,,,,,,,,,,,,,,,,,,,,,,,,,,,,,,
,,,,,,5,0,5,0,1,X V Q F H G B L J M P D K C T S W R N Z,5dcec3fa946f7c000b1b7c74,23,Mężczyzna,2022-06-11_09h29.30.503,task,2021.1.4,MacIntel,60.0024001,6299f149e92ead563fba08ef,62a44433d5e6554b473699c0,,,,,,,,,,,,,,,,,,,,,,,,,,,,,,,,,,,,,,,,,,,,,,,,,,,,,,,,,,,,,,,,,,,,,,,,,,,,,,,,,,,,,,,,,,,,,,,,,,,,,
,,,,,,6,0,6,0,1,X V Q F H G B L J M P D K C T S W R N Z,5dcec3fa946f7c000b1b7c74,23,Mężczyzna,2022-06-11_09h29.30.503,task,2021.1.4,MacIntel,60.0024001,6299f149e92ead563fba08ef,62a44433d5e6554b473699c0,,,,,,,,,,,,,,,,,,,,,,,,,,,,,,,,,,,,,,,,,,,,,,,,,,,,,,,,,,,,,,,,,,,,,,,,,,,,,,,,,,,,,,,,,,,,,,,,,,,,,
,,,,,,7,0,7,0,1,X V Q F H G B L J M P D K C T S W R N Z,5dcec3fa946f7c000b1b7c74,23,Mężczyzna,2022-06-11_09h29.30.503,task,2021.1.4,MacIntel,60.0024001,6299f149e92ead563fba08ef,62a44433d5e6554b473699c0,,,,,,,,,,,,,,,,,,,,,,,,,,,,,,,,,,,,,,,,,,,,,,,,,,,,,,,,,,,,,,,,,,,,,,,,,,,,,,,,,,,,,,,,,,,,,,,,,,,,,
,,,,,,8,0,8,0,1,X V Q F H G B L J M P D K C T S W R N Z,5dcec3fa946f7c000b1b7c74,23,Mężczyzna,2022-06-11_09h29.30.503,task,2021.1.4,MacIntel,60.0024001,6299f149e92ead563fba08ef,62a44433d5e6554b473699c0,,,,,,,,,,,,,,,,,,,,,,,,,,,,,,,,,,,,,,,,,,,,,,,,,,,,,,,,,,,,,,,,,,,,,,,,,,,,,,,,,,,,,,,,,,,,,,,,,,,,,
,,,,,,9,0,9,0,1,X V Q F H G B L J M P D K C T S W R N Z,5dcec3fa946f7c000b1b7c74,23,Mężczyzna,2022-06-11_09h29.30.503,task,2021.1.4,MacIntel,60.0024001,6299f149e92ead563fba08ef,62a44433d5e6554b473699c0,,,,,,,,,,,,,,,,,,,,,,,,,,,,,,,,,,,,,,,,,,,,,,,,,,,,,,,,,,,,,,,,,,,,,,,,,,,,,,,,,,,,,,,,,,,,,,,,,,,,,
,,,,,,10,0,10,0,1,X V Q F H G B L J M P D K C T S W R N Z,5dcec3fa946f7c000b1b7c74,23,Mężczyzna,2022-06-11_09h29.30.503,task,2021.1.4,MacIntel,60.0024001,6299f149e92ead563fba08ef,62a44433d5e6554b473699c0,,,,,,,,,,,,,,,,,,,,,,,,,,,,,,,,,,,,,,,,,,,,,,,,,,,,,,,,,,,,,,,,,,,,,,,,,,,,,,,,,,,,,,,,,,,,,,,,,,,,,
,,,,,,11,0,11,0,1,X V Q F H G B L J M P D K C T S W R N Z,5dcec3fa946f7c000b1b7c74,23,Mężczyzna,2022-06-11_09h29.30.503,task,2021.1.4,MacIntel,60.0024001,6299f149e92ead563fba08ef,62a44433d5e6554b473699c0,,,,,,,,,,,,,,,,,,,,,,,,,,,,,,,,,,,,,,,,,,,,,,,,,,,,,,,,,,,,,,,,,,,,,,,,,,,,,,,,,,,,,,,,,,,,,,,,,,,,,
,,,,,,,,,,,,5dcec3fa946f7c000b1b7c74,23,Mężczyzna,2022-06-11_09h29.30.503,task,2021.1.4,MacIntel,60.0024001,6299f149e92ead563fba08ef,62a44433d5e6554b473699c0,zvcgnzxknrfv,"[""z"",""v"",""c"",""g"",""n"",""z"",""x"",""k"",""n"",""r"",""f"",""v""]","[2.4500000000000455,3.668100000001573,4.768500000000017,6.009800000004475,7.4506000000014865,8.758800000004499,9.952200000003018,11.40050000000008,12.850000000000023,14.032100000001492,15.166400000005979,16.500900000006027,25.292900000006057]",0,ZVCGNZXKBRFV,23,0,23,0,1,,,,,,,,,,,,,,,,,,,,,,,,,,,,,,,,,,,,,,,,,,,,,,,,,,,,,,,,,,,,,,,,,,,,,,,,,,,,,,,,,,,,,,,,,,,
,,,,,,0,0,0,0,1,X V Q F H G B L J M P D K C T S W R N Z,5dcec3fa946f7c000b1b7c74,23,Mężczyzna,2022-06-11_09h29.30.503,task,2021.1.4,MacIntel,60.0024001,6299f149e92ead563fba08ef,62a44433d5e6554b473699c0,,,,,,,,,,,,,,,,,,,,,,,,,,,,,,,,,,,,,,,,,,,,,,,,,,,,,,,,,,,,,,,,,,,,,,,,,,,,,,,,,,,,,,,,,,,,,,,,,,,,,
,,,,,,1,0,1,0,1,X V Q F H G B L J M P D K C T S W R N Z,5dcec3fa946f7c000b1b7c74,23,Mężczyzna,2022-06-11_09h29.30.503,task,2021.1.4,MacIntel,60.0024001,6299f149e92ead563fba08ef,62a44433d5e6554b473699c0,,,,,,,,,,,,,,,,,,,,,,,,,,,,,,,,,,,,,,,,,,,,,,,,,,,,,,,,,,,,,,,,,,,,,,,,,,,,,,,,,,,,,,,,,,,,,,,,,,,,,
,,,,,,2,0,2,0,1,X V Q F H G B L J M P D K C T S W R N Z,5dcec3fa946f7c000b1b7c74,23,Mężczyzna,2022-06-11_09h29.30.503,task,2021.1.4,MacIntel,60.0024001,6299f149e92ead563fba08ef,62a44433d5e6554b473699c0,,,,,,,,,,,,,,,,,,,,,,,,,,,,,,,,,,,,,,,,,,,,,,,,,,,,,,,,,,,,,,,,,,,,,,,,,,,,,,,,,,,,,,,,,,,,,,,,,,,,,
,,,,,,3,0,3,0,1,X V Q F H G B L J M P D K C T S W R N Z,5dcec3fa946f7c000b1b7c74,23,Mężczyzna,2022-06-11_09h29.30.503,task,2021.1.4,MacIntel,60.0024001,6299f149e92ead563fba08ef,62a44433d5e6554b473699c0,,,,,,,,,,,,,,,,,,,,,,,,,,,,,,,,,,,,,,,,,,,,,,,,,,,,,,,,,,,,,,,,,,,,,,,,,,,,,,,,,,,,,,,,,,,,,,,,,,,,,
,,,,,,4,0,4,0,1,X V Q F H G B L J M P D K C T S W R N Z,5dcec3fa946f7c000b1b7c74,23,Mężczyzna,2022-06-11_09h29.30.503,task,2021.1.4,MacIntel,60.0024001,6299f149e92ead563fba08ef,62a44433d5e6554b473699c0,,,,,,,,,,,,,,,,,,,,,,,,,,,,,,,,,,,,,,,,,,,,,,,,,,,,,,,,,,,,,,,,,,,,,,,,,,,,,,,,,,,,,,,,,,,,,,,,,,,,,
,,,,,,5,0,5,0,1,X V Q F H G B L J M P D K C T S W R N Z,5dcec3fa946f7c000b1b7c74,23,Mężczyzna,2022-06-11_09h29.30.503,task,2021.1.4,MacIntel,60.0024001,6299f149e92ead563fba08ef,62a44433d5e6554b473699c0,,,,,,,,,,,,,,,,,,,,,,,,,,,,,,,,,,,,,,,,,,,,,,,,,,,,,,,,,,,,,,,,,,,,,,,,,,,,,,,,,,,,,,,,,,,,,,,,,,,,,
,,,,,,6,0,6,0,1,X V Q F H G B L J M P D K C T S W R N Z,5dcec3fa946f7c000b1b7c74,23,Mężczyzna,2022-06-11_09h29.30.503,task,2021.1.4,MacIntel,60.0024001,6299f149e92ead563fba08ef,62a44433d5e6554b473699c0,,,,,,,,,,,,,,,,,,,,,,,,,,,,,,,,,,,,,,,,,,,,,,,,,,,,,,,,,,,,,,,,,,,,,,,,,,,,,,,,,,,,,,,,,,,,,,,,,,,,,
,,,,,,7,0,7,0,1,X V Q F H G B L J M P D K C T S W R N Z,5dcec3fa946f7c000b1b7c74,23,Mężczyzna,2022-06-11_09h29.30.503,task,2021.1.4,MacIntel,60.0024001,6299f149e92ead563fba08ef,62a44433d5e6554b473699c0,,,,,,,,,,,,,,,,,,,,,,,,,,,,,,,,,,,,,,,,,,,,,,,,,,,,,,,,,,,,,,,,,,,,,,,,,,,,,,,,,,,,,,,,,,,,,,,,,,,,,
,,,,,,8,0,8,0,1,X V Q F H G B L J M P D K C T S W R N Z,5dcec3fa946f7c000b1b7c74,23,Mężczyzna,2022-06-11_09h29.30.503,task,2021.1.4,MacIntel,60.0024001,6299f149e92ead563fba08ef,62a44433d5e6554b473699c0,,,,,,,,,,,,,,,,,,,,,,,,,,,,,,,,,,,,,,,,,,,,,,,,,,,,,,,,,,,,,,,,,,,,,,,,,,,,,,,,,,,,,,,,,,,,,,,,,,,,,
,,,,,,9,0,9,0,1,X V Q F H G B L J M P D K C T S W R N Z,5dcec3fa946f7c000b1b7c74,23,Mężczyzna,2022-06-11_09h29.30.503,task,2021.1.4,MacIntel,60.0024001,6299f149e92ead563fba08ef,62a44433d5e6554b473699c0,,,,,,,,,,,,,,,,,,,,,,,,,,,,,,,,,,,,,,,,,,,,,,,,,,,,,,,,,,,,,,,,,,,,,,,,,,,,,,,,,,,,,,,,,,,,,,,,,,,,,
,,,,,,10,0,10,0,1,X V Q F H G B L J M P D K C T S W R N Z,5dcec3fa946f7c000b1b7c74,23,Mężczyzna,2022-06-11_09h29.30.503,task,2021.1.4,MacIntel,60.0024001,6299f149e92ead563fba08ef,62a44433d5e6554b473699c0,,,,,,,,,,,,,,,,,,,,,,,,,,,,,,,,,,,,,,,,,,,,,,,,,,,,,,,,,,,,,,,,,,,,,,,,,,,,,,,,,,,,,,,,,,,,,,,,,,,,,
,,,,,,11,0,11,0,1,X V Q F H G B L J M P D K C T S W R N Z,5dcec3fa946f7c000b1b7c74,23,Mężczyzna,2022-06-11_09h29.30.503,task,2021.1.4,MacIntel,60.0024001,6299f149e92ead563fba08ef,62a44433d5e6554b473699c0,,,,,,,,,,,,,,,,,,,,,,,,,,,,,,,,,,,,,,,,,,,,,,,,,,,,,,,,,,,,,,,,,,,,,,,,,,,,,,,,,,,,,,,,,,,,,,,,,,,,,
,,,,,,,,,,,,5dcec3fa946f7c000b1b7c74,23,Mężczyzna,2022-06-11_09h29.30.503,task,2021.1.4,MacIntel,60.0024001,6299f149e92ead563fba08ef,62a44433d5e6554b473699c0,bbxczwcjqfhz,"[""b"",""b"",""x"",""c"",""z"",""w"",""c"",""j"",""q"",""f"",""h"",""z""]","[2.488100000001509,3.2171000000014374,4.869700000002922,5.967300000004457,7.391300000004435,8.800499999999943,9.917500000000018,11.465900000005945,12.697200000002908,14.01400000000001,29.16030000000444,29.620600000001446,38.23320000000297]",0,BBXCZWCJQFKZ,24,0,24,0,1,,,,,,,,,,,,,,,,,,,,,,,,,,,,,,,,,,,,,,,,,,,,,,,,,,,,,,,,,,,,,,,,,,,,,,,,,,,,,,,,,,,,,,,,,,,
,,,,,,0,0,0,0,1,X V Q F H G B L J M P D K C T S W R N Z,5dcec3fa946f7c000b1b7c74,23,Mężczyzna,2022-06-11_09h29.30.503,task,2021.1.4,MacIntel,60.0024001,6299f149e92ead563fba08ef,62a44433d5e6554b473699c0,,,,,,,,,,,,,,,,,,,,,,,,,,,,,,,,,,,,,,,,,,,,,,,,,,,,,,,,,,,,,,,,,,,,,,,,,,,,,,,,,,,,,,,,,,,,,,,,,,,,,
,,,,,,1,0,1,0,1,X V Q F H G B L J M P D K C T S W R N Z,5dcec3fa946f7c000b1b7c74,23,Mężczyzna,2022-06-11_09h29.30.503,task,2021.1.4,MacIntel,60.0024001,6299f149e92ead563fba08ef,62a44433d5e6554b473699c0,,,,,,,,,,,,,,,,,,,,,,,,,,,,,,,,,,,,,,,,,,,,,,,,,,,,,,,,,,,,,,,,,,,,,,,,,,,,,,,,,,,,,,,,,,,,,,,,,,,,,
,,,,,,2,0,2,0,1,X V Q F H G B L J M P D K C T S W R N Z,5dcec3fa946f7c000b1b7c74,23,Mężczyzna,2022-06-11_09h29.30.503,task,2021.1.4,MacIntel,60.0024001,6299f149e92ead563fba08ef,62a44433d5e6554b473699c0,,,,,,,,,,,,,,,,,,,,,,,,,,,,,,,,,,,,,,,,,,,,,,,,,,,,,,,,,,,,,,,,,,,,,,,,,,,,,,,,,,,,,,,,,,,,,,,,,,,,,
,,,,,,3,0,3,0,1,X V Q F H G B L J M P D K C T S W R N Z,5dcec3fa946f7c000b1b7c74,23,Mężczyzna,2022-06-11_09h29.30.503,task,2021.1.4,MacIntel,60.0024001,6299f149e92ead563fba08ef,62a44433d5e6554b473699c0,,,,,,,,,,,,,,,,,,,,,,,,,,,,,,,,,,,,,,,,,,,,,,,,,,,,,,,,,,,,,,,,,,,,,,,,,,,,,,,,,,,,,,,,,,,,,,,,,,,,,
,,,,,,4,0,4,0,1,X V Q F H G B L J M P D K C T S W R N Z,5dcec3fa946f7c000b1b7c74,23,Mężczyzna,2022-06-11_09h29.30.503,task,2021.1.4,MacIntel,60.0024001,6299f149e92ead563fba08ef,62a44433d5e6554b473699c0,,,,,,,,,,,,,,,,,,,,,,,,,,,,,,,,,,,,,,,,,,,,,,,,,,,,,,,,,,,,,,,,,,,,,,,,,,,,,,,,,,,,,,,,,,,,,,,,,,,,,
,,,,,,5,0,5,0,1,X V Q F H G B L J M P D K C T S W R N Z,5dcec3fa946f7c000b1b7c74,23,Mężczyzna,2022-06-11_09h29.30.503,task,2021.1.4,MacIntel,60.0024001,6299f149e92ead563fba08ef,62a44433d5e6554b473699c0,,,,,,,,,,,,,,,,,,,,,,,,,,,,,,,,,,,,,,,,,,,,,,,,,,,,,,,,,,,,,,,,,,,,,,,,,,,,,,,,,,,,,,,,,,,,,,,,,,,,,
,,,,,,6,0,6,0,1,X V Q F H G B L J M P D K C T S W R N Z,5dcec3fa946f7c000b1b7c74,23,Mężczyzna,2022-06-11_09h29.30.503,task,2021.1.4,MacIntel,60.0024001,6299f149e92ead563fba08ef,62a44433d5e6554b473699c0,,,,,,,,,,,,,,,,,,,,,,,,,,,,,,,,,,,,,,,,,,,,,,,,,,,,,,,,,,,,,,,,,,,,,,,,,,,,,,,,,,,,,,,,,,,,,,,,,,,,,
,,,,,,7,0,7,0,1,X V Q F H G B L J M P D K C T S W R N Z,5dcec3fa946f7c000b1b7c74,23,Mężczyzna,2022-06-11_09h29.30.503,task,2021.1.4,MacIntel,60.0024001,6299f149e92ead563fba08ef,62a44433d5e6554b473699c0,,,,,,,,,,,,,,,,,,,,,,,,,,,,,,,,,,,,,,,,,,,,,,,,,,,,,,,,,,,,,,,,,,,,,,,,,,,,,,,,,,,,,,,,,,,,,,,,,,,,,
,,,,,,8,0,8,0,1,X V Q F H G B L J M P D K C T S W R N Z,5dcec3fa946f7c000b1b7c74,23,Mężczyzna,2022-06-11_09h29.30.503,task,2021.1.4,MacIntel,60.0024001,6299f149e92ead563fba08ef,62a44433d5e6554b473699c0,,,,,,,,,,,,,,,,,,,,,,,,,,,,,,,,,,,,,,,,,,,,,,,,,,,,,,,,,,,,,,,,,,,,,,,,,,,,,,,,,,,,,,,,,,,,,,,,,,,,,
,,,,,,9,0,9,0,1,X V Q F H G B L J M P D K C T S W R N Z,5dcec3fa946f7c000b1b7c74,23,Mężczyzna,2022-06-11_09h29.30.503,task,2021.1.4,MacIntel,60.0024001,6299f149e92ead563fba08ef,62a44433d5e6554b473699c0,,,,,,,,,,,,,,,,,,,,,,,,,,,,,,,,,,,,,,,,,,,,,,,,,,,,,,,,,,,,,,,,,,,,,,,,,,,,,,,,,,,,,,,,,,,,,,,,,,,,,
,,,,,,10,0,10,0,1,X V Q F H G B L J M P D K C T S W R N Z,5dcec3fa946f7c000b1b7c74,23,Mężczyzna,2022-06-11_09h29.30.503,task,2021.1.4,MacIntel,60.0024001,6299f149e92ead563fba08ef,62a44433d5e6554b473699c0,,,,,,,,,,,,,,,,,,,,,,,,,,,,,,,,,,,,,,,,,,,,,,,,,,,,,,,,,,,,,,,,,,,,,,,,,,,,,,,,,,,,,,,,,,,,,,,,,,,,,
,,,,,,11,0,11,0,1,X V Q F H G B L J M P D K C T S W R N Z,5dcec3fa946f7c000b1b7c74,23,Mężczyzna,2022-06-11_09h29.30.503,task,2021.1.4,MacIntel,60.0024001,6299f149e92ead563fba08ef,62a44433d5e6554b473699c0,,,,,,,,,,,,,,,,,,,,,,,,,,,,,,,,,,,,,,,,,,,,,,,,,,,,,,,,,,,,,,,,,,,,,,,,,,,,,,,,,,,,,,,,,,,,,,,,,,,,,
,,,,,,,,,,,,5dcec3fa946f7c000b1b7c74,23,Mężczyzna,2022-06-11_09h29.30.503,task,2021.1.4,MacIntel,60.0024001,6299f149e92ead563fba08ef,62a44433d5e6554b473699c0,psfjszvfzvbh,"[""p"",""s"",""f"",""j"",""s"",""z"",""v"",""f"",""z"",""v"",""b"",""h""]","[2.5539999999999736,3.768199999995545,4.946299999996995,6.356499999999983,7.556699999995544,8.816399999998566,10.135399999998526,11.449599999994007,12.61099999999999,14.25079999999707,15.34129999999709,17.365399999998544,25.80169999999555]",1,PSFJSZVFZVBH,25,0,25,0,1,,,,,,,,,,,,,,,,,,,,,,,,,,,,,,,,,,,,,,,,,,,,,,,,,,,,,,,,,,,,,,,,,,,,,,,,,,,,,,,,,,,,,,,,,,,
,,,,,,0,0,0,0,1,X V Q F H G B L J M P D K C T S W R N Z,5dcec3fa946f7c000b1b7c74,23,Mężczyzna,2022-06-11_09h29.30.503,task,2021.1.4,MacIntel,60.0024001,6299f149e92ead563fba08ef,62a44433d5e6554b473699c0,,,,,,,,,,,,,,,,,,,,,,,,,,,,,,,,,,,,,,,,,,,,,,,,,,,,,,,,,,,,,,,,,,,,,,,,,,,,,,,,,,,,,,,,,,,,,,,,,,,,,
,,,,,,1,0,1,0,1,X V Q F H G B L J M P D K C T S W R N Z,5dcec3fa946f7c000b1b7c74,23,Mężczyzna,2022-06-11_09h29.30.503,task,2021.1.4,MacIntel,60.0024001,6299f149e92ead563fba08ef,62a44433d5e6554b473699c0,,,,,,,,,,,,,,,,,,,,,,,,,,,,,,,,,,,,,,,,,,,,,,,,,,,,,,,,,,,,,,,,,,,,,,,,,,,,,,,,,,,,,,,,,,,,,,,,,,,,,
,,,,,,2,0,2,0,1,X V Q F H G B L J M P D K C T S W R N Z,5dcec3fa946f7c000b1b7c74,23,Mężczyzna,2022-06-11_09h29.30.503,task,2021.1.4,MacIntel,60.0024001,6299f149e92ead563fba08ef,62a44433d5e6554b473699c0,,,,,,,,,,,,,,,,,,,,,,,,,,,,,,,,,,,,,,,,,,,,,,,,,,,,,,,,,,,,,,,,,,,,,,,,,,,,,,,,,,,,,,,,,,,,,,,,,,,,,
,,,,,,3,0,3,0,1,X V Q F H G B L J M P D K C T S W R N Z,5dcec3fa946f7c000b1b7c74,23,Mężczyzna,2022-06-11_09h29.30.503,task,2021.1.4,MacIntel,60.0024001,6299f149e92ead563fba08ef,62a44433d5e6554b473699c0,,,,,,,,,,,,,,,,,,,,,,,,,,,,,,,,,,,,,,,,,,,,,,,,,,,,,,,,,,,,,,,,,,,,,,,,,,,,,,,,,,,,,,,,,,,,,,,,,,,,,
,,,,,,4,0,4,0,1,X V Q F H G B L J M P D K C T S W R N Z,5dcec3fa946f7c000b1b7c74,23,Mężczyzna,2022-06-11_09h29.30.503,task,2021.1.4,MacIntel,60.0024001,6299f149e92ead563fba08ef,62a44433d5e6554b473699c0,,,,,,,,,,,,,,,,,,,,,,,,,,,,,,,,,,,,,,,,,,,,,,,,,,,,,,,,,,,,,,,,,,,,,,,,,,,,,,,,,,,,,,,,,,,,,,,,,,,,,
,,,,,,5,0,5,0,1,X V Q F H G B L J M P D K C T S W R N Z,5dcec3fa946f7c000b1b7c74,23,Mężczyzna,2022-06-11_09h29.30.503,task,2021.1.4,MacIntel,60.0024001,6299f149e92ead563fba08ef,62a44433d5e6554b473699c0,,,,,,,,,,,,,,,,,,,,,,,,,,,,,,,,,,,,,,,,,,,,,,,,,,,,,,,,,,,,,,,,,,,,,,,,,,,,,,,,,,,,,,,,,,,,,,,,,,,,,
,,,,,,6,0,6,0,1,X V Q F H G B L J M P D K C T S W R N Z,5dcec3fa946f7c000b1b7c74,23,Mężczyzna,2022-06-11_09h29.30.503,task,2021.1.4,MacIntel,60.0024001,6299f149e92ead563fba08ef,62a44433d5e6554b473699c0,,,,,,,,,,,,,,,,,,,,,,,,,,,,,,,,,,,,,,,,,,,,,,,,,,,,,,,,,,,,,,,,,,,,,,,,,,,,,,,,,,,,,,,,,,,,,,,,,,,,,
,,,,,,7,0,7,0,1,X V Q F H G B L J M P D K C T S W R N Z,5dcec3fa946f7c000b1b7c74,23,Mężczyzna,2022-06-11_09h29.30.503,task,2021.1.4,MacIntel,60.0024001,6299f149e92ead563fba08ef,62a44433d5e6554b473699c0,,,,,,,,,,,,,,,,,,,,,,,,,,,,,,,,,,,,,,,,,,,,,,,,,,,,,,,,,,,,,,,,,,,,,,,,,,,,,,,,,,,,,,,,,,,,,,,,,,,,,
,,,,,,8,0,8,0,1,X V Q F H G B L J M P D K C T S W R N Z,5dcec3fa946f7c000b1b7c74,23,Mężczyzna,2022-06-11_09h29.30.503,task,2021.1.4,MacIntel,60.0024001,6299f149e92ead563fba08ef,62a44433d5e6554b473699c0,,,,,,,,,,,,,,,,,,,,,,,,,,,,,,,,,,,,,,,,,,,,,,,,,,,,,,,,,,,,,,,,,,,,,,,,,,,,,,,,,,,,,,,,,,,,,,,,,,,,,
,,,,,,9,0,9,0,1,X V Q F H G B L J M P D K C T S W R N Z,5dcec3fa946f7c000b1b7c74,23,Mężczyzna,2022-06-11_09h29.30.503,task,2021.1.4,MacIntel,60.0024001,6299f149e92ead563fba08ef,62a44433d5e6554b473699c0,,,,,,,,,,,,,,,,,,,,,,,,,,,,,,,,,,,,,,,,,,,,,,,,,,,,,,,,,,,,,,,,,,,,,,,,,,,,,,,,,,,,,,,,,,,,,,,,,,,,,
,,,,,,10,0,10,0,1,X V Q F H G B L J M P D K C T S W R N Z,5dcec3fa946f7c000b1b7c74,23,Mężczyzna,2022-06-11_09h29.30.503,task,2021.1.4,MacIntel,60.0024001,6299f149e92ead563fba08ef,62a44433d5e6554b473699c0,,,,,,,,,,,,,,,,,,,,,,,,,,,,,,,,,,,,,,,,,,,,,,,,,,,,,,,,,,,,,,,,,,,,,,,,,,,,,,,,,,,,,,,,,,,,,,,,,,,,,
,,,,,,11,0,11,0,1,X V Q F H G B L J M P D K C T S W R N Z,5dcec3fa946f7c000b1b7c74,23,Mężczyzna,2022-06-11_09h29.30.503,task,2021.1.4,MacIntel,60.0024001,6299f149e92ead563fba08ef,62a44433d5e6554b473699c0,,,,,,,,,,,,,,,,,,,,,,,,,,,,,,,,,,,,,,,,,,,,,,,,,,,,,,,,,,,,,,,,,,,,,,,,,,,,,,,,,,,,,,,,,,,,,,,,,,,,,
,,,,,,,,,,,,5dcec3fa946f7c000b1b7c74,23,Mężczyzna,2022-06-11_09h29.30.503,task,2021.1.4,MacIntel,60.0024001,6299f149e92ead563fba08ef,62a44433d5e6554b473699c0,qkmmdllnvbkn,"[""q"",""k"",""m"",""m"",""d"",""l"",""l"",""n"",""v"",""b"",""k"",""n""]","[2.5327000000030466,3.565800000004515,4.737600000001521,5.86850000000004,7.408200000003035,8.634300000004487,9.701600000001463,11.182800000004477,12.599600000001487,13.932000000000016,15.31730000000448,16.617600000001516,31.117300000004434]",1,QKMMDLLNVBKN,26,0,26,0,1,,,,,,,,,,,,,,,,,,,,,,,,,,,,,,,,,,,,,,,,,,,,,,,,,,,,,,,,,,,,,,,,,,,,,,,,,,,,,,,,,,,,,,,,,,,
,,,,,,0,0,0,0,1,X V Q F H G B L J M P D K C T S W R N Z,5dcec3fa946f7c000b1b7c74,23,Mężczyzna,2022-06-11_09h29.30.503,task,2021.1.4,MacIntel,60.0024001,6299f149e92ead563fba08ef,62a44433d5e6554b473699c0,,,,,,,,,,,,,,,,,,,,,,,,,,,,,,,,,,,,,,,,,,,,,,,,,,,,,,,,,,,,,,,,,,,,,,,,,,,,,,,,,,,,,,,,,,,,,,,,,,,,,
,,,,,,1,0,1,0,1,X V Q F H G B L J M P D K C T S W R N Z,5dcec3fa946f7c000b1b7c74,23,Mężczyzna,2022-06-11_09h29.30.503,task,2021.1.4,MacIntel,60.0024001,6299f149e92ead563fba08ef,62a44433d5e6554b473699c0,,,,,,,,,,,,,,,,,,,,,,,,,,,,,,,,,,,,,,,,,,,,,,,,,,,,,,,,,,,,,,,,,,,,,,,,,,,,,,,,,,,,,,,,,,,,,,,,,,,,,
,,,,,,2,0,2,0,1,X V Q F H G B L J M P D K C T S W R N Z,5dcec3fa946f7c000b1b7c74,23,Mężczyzna,2022-06-11_09h29.30.503,task,2021.1.4,MacIntel,60.0024001,6299f149e92ead563fba08ef,62a44433d5e6554b473699c0,,,,,,,,,,,,,,,,,,,,,,,,,,,,,,,,,,,,,,,,,,,,,,,,,,,,,,,,,,,,,,,,,,,,,,,,,,,,,,,,,,,,,,,,,,,,,,,,,,,,,
,,,,,,3,0,3,0,1,X V Q F H G B L J M P D K C T S W R N Z,5dcec3fa946f7c000b1b7c74,23,Mężczyzna,2022-06-11_09h29.30.503,task,2021.1.4,MacIntel,60.0024001,6299f149e92ead563fba08ef,62a44433d5e6554b473699c0,,,,,,,,,,,,,,,,,,,,,,,,,,,,,,,,,,,,,,,,,,,,,,,,,,,,,,,,,,,,,,,,,,,,,,,,,,,,,,,,,,,,,,,,,,,,,,,,,,,,,
,,,,,,4,0,4,0,1,X V Q F H G B L J M P D K C T S W R N Z,5dcec3fa946f7c000b1b7c74,23,Mężczyzna,2022-06-11_09h29.30.503,task,2021.1.4,MacIntel,60.0024001,6299f149e92ead563fba08ef,62a44433d5e6554b473699c0,,,,,,,,,,,,,,,,,,,,,,,,,,,,,,,,,,,,,,,,,,,,,,,,,,,,,,,,,,,,,,,,,,,,,,,,,,,,,,,,,,,,,,,,,,,,,,,,,,,,,
,,,,,,5,0,5,0,1,X V Q F H G B L J M P D K C T S W R N Z,5dcec3fa946f7c000b1b7c74,23,Mężczyzna,2022-06-11_09h29.30.503,task,2021.1.4,MacIntel,60.0024001,6299f149e92ead563fba08ef,62a44433d5e6554b473699c0,,,,,,,,,,,,,,,,,,,,,,,,,,,,,,,,,,,,,,,,,,,,,,,,,,,,,,,,,,,,,,,,,,,,,,,,,,,,,,,,,,,,,,,,,,,,,,,,,,,,,
,,,,,,6,0,6,0,1,X V Q F H G B L J M P D K C T S W R N Z,5dcec3fa946f7c000b1b7c74,23,Mężczyzna,2022-06-11_09h29.30.503,task,2021.1.4,MacIntel,60.0024001,6299f149e92ead563fba08ef,62a44433d5e6554b473699c0,,,,,,,,,,,,,,,,,,,,,,,,,,,,,,,,,,,,,,,,,,,,,,,,,,,,,,,,,,,,,,,,,,,,,,,,,,,,,,,,,,,,,,,,,,,,,,,,,,,,,
,,,,,,7,0,7,0,1,X V Q F H G B L J M P D K C T S W R N Z,5dcec3fa946f7c000b1b7c74,23,Mężczyzna,2022-06-11_09h29.30.503,task,2021.1.4,MacIntel,60.0024001,6299f149e92ead563fba08ef,62a44433d5e6554b473699c0,,,,,,,,,,,,,,,,,,,,,,,,,,,,,,,,,,,,,,,,,,,,,,,,,,,,,,,,,,,,,,,,,,,,,,,,,,,,,,,,,,,,,,,,,,,,,,,,,,,,,
,,,,,,8,0,8,0,1,X V Q F H G B L J M P D K C T S W R N Z,5dcec3fa946f7c000b1b7c74,23,Mężczyzna,2022-06-11_09h29.30.503,task,2021.1.4,MacIntel,60.0024001,6299f149e92ead563fba08ef,62a44433d5e6554b473699c0,,,,,,,,,,,,,,,,,,,,,,,,,,,,,,,,,,,,,,,,,,,,,,,,,,,,,,,,,,,,,,,,,,,,,,,,,,,,,,,,,,,,,,,,,,,,,,,,,,,,,
,,,,,,9,0,9,0,1,X V Q F H G B L J M P D K C T S W R N Z,5dcec3fa946f7c000b1b7c74,23,Mężczyzna,2022-06-11_09h29.30.503,task,2021.1.4,MacIntel,60.0024001,6299f149e92ead563fba08ef,62a44433d5e6554b473699c0,,,,,,,,,,,,,,,,,,,,,,,,,,,,,,,,,,,,,,,,,,,,,,,,,,,,,,,,,,,,,,,,,,,,,,,,,,,,,,,,,,,,,,,,,,,,,,,,,,,,,
,,,,,,10,0,10,0,1,X V Q F H G B L J M P D K C T S W R N Z,5dcec3fa946f7c000b1b7c74,23,Mężczyzna,2022-06-11_09h29.30.503,task,2021.1.4,MacIntel,60.0024001,6299f149e92ead563fba08ef,62a44433d5e6554b473699c0,,,,,,,,,,,,,,,,,,,,,,,,,,,,,,,,,,,,,,,,,,,,,,,,,,,,,,,,,,,,,,,,,,,,,,,,,,,,,,,,,,,,,,,,,,,,,,,,,,,,,
,,,,,,11,0,11,0,1,X V Q F H G B L J M P D K C T S W R N Z,5dcec3fa946f7c000b1b7c74,23,Mężczyzna,2022-06-11_09h29.30.503,task,2021.1.4,MacIntel,60.0024001,6299f149e92ead563fba08ef,62a44433d5e6554b473699c0,,,,,,,,,,,,,,,,,,,,,,,,,,,,,,,,,,,,,,,,,,,,,,,,,,,,,,,,,,,,,,,,,,,,,,,,,,,,,,,,,,,,,,,,,,,,,,,,,,,,,
,,,,,,12,0,12,0,1,X V Q F H G B L J M P D K C T S W R N Z,5dcec3fa946f7c000b1b7c74,23,Mężczyzna,2022-06-11_09h29.30.503,task,2021.1.4,MacIntel,60.0024001,6299f149e92ead563fba08ef,62a44433d5e6554b473699c0,,,,,,,,,,,,,,,,,,,,,,,,,,,,,,,,,,,,,,,,,,,,,,,,,,,,,,,,,,,,,,,,,,,,,,,,,,,,,,,,,,,,,,,,,,,,,,,,,,,,,
,,,,,,,,,,,,5dcec3fa946f7c000b1b7c74,23,Mężczyzna,2022-06-11_09h29.30.503,task,2021.1.4,MacIntel,60.0024001,6299f149e92ead563fba08ef,62a44433d5e6554b473699c0,jwhbfsrnzvzfg,"[""j"",""w"",""h"",""b"",""f"",""s"",""r"",""n"",""z"",""v"",""z"",""f"",""g""]","[2.473699999995574,3.756399999998621,4.933899999998516,6.302199999995537,7.5875999999940404,8.734000000000037,10.11929999999711,11.263000000000034,12.701199999995538,13.96759999999415,15.284000000000106,16.51509999999405,18.65359999999407,33.768199999995545]",1,JWHBFSRNZVZFG,27,0,27,0,1,,,,,,,,,,,,,,,,,,,,,,,,,,,,,,,,,,,,,,,,,,,,,,,,,,,,,,,,,,,,,,,,,,,,,,,,,,,,,,,,,,,,,,,,,,,
,,,,,,0,0,0,0,1,X V Q F H G B L J M P D K C T S W R N Z,5dcec3fa946f7c000b1b7c74,23,Mężczyzna,2022-06-11_09h29.30.503,task,2021.1.4,MacIntel,60.0024001,6299f149e92ead563fba08ef,62a44433d5e6554b473699c0,,,,,,,,,,,,,,,,,,,,,,,,,,,,,,,,,,,,,,,,,,,,,,,,,,,,,,,,,,,,,,,,,,,,,,,,,,,,,,,,,,,,,,,,,,,,,,,,,,,,,
,,,,,,1,0,1,0,1,X V Q F H G B L J M P D K C T S W R N Z,5dcec3fa946f7c000b1b7c74,23,Mężczyzna,2022-06-11_09h29.30.503,task,2021.1.4,MacIntel,60.0024001,6299f149e92ead563fba08ef,62a44433d5e6554b473699c0,,,,,,,,,,,,,,,,,,,,,,,,,,,,,,,,,,,,,,,,,,,,,,,,,,,,,,,,,,,,,,,,,,,,,,,,,,,,,,,,,,,,,,,,,,,,,,,,,,,,,
,,,,,,2,0,2,0,1,X V Q F H G B L J M P D K C T S W R N Z,5dcec3fa946f7c000b1b7c74,23,Mężczyzna,2022-06-11_09h29.30.503,task,2021.1.4,MacIntel,60.0024001,6299f149e92ead563fba08ef,62a44433d5e6554b473699c0,,,,,,,,,,,,,,,,,,,,,,,,,,,,,,,,,,,,,,,,,,,,,,,,,,,,,,,,,,,,,,,,,,,,,,,,,,,,,,,,,,,,,,,,,,,,,,,,,,,,,
,,,,,,3,0,3,0,1,X V Q F H G B L J M P D K C T S W R N Z,5dcec3fa946f7c000b1b7c74,23,Mężczyzna,2022-06-11_09h29.30.503,task,2021.1.4,MacIntel,60.0024001,6299f149e92ead563fba08ef,62a44433d5e6554b473699c0,,,,,,,,,,,,,,,,,,,,,,,,,,,,,,,,,,,,,,,,,,,,,,,,,,,,,,,,,,,,,,,,,,,,,,,,,,,,,,,,,,,,,,,,,,,,,,,,,,,,,
,,,,,,4,0,4,0,1,X V Q F H G B L J M P D K C T S W R N Z,5dcec3fa946f7c000b1b7c74,23,Mężczyzna,2022-06-11_09h29.30.503,task,2021.1.4,MacIntel,60.0024001,6299f149e92ead563fba08ef,62a44433d5e6554b473699c0,,,,,,,,,,,,,,,,,,,,,,,,,,,,,,,,,,,,,,,,,,,,,,,,,,,,,,,,,,,,,,,,,,,,,,,,,,,,,,,,,,,,,,,,,,,,,,,,,,,,,
,,,,,,5,0,5,0,1,X V Q F H G B L J M P D K C T S W R N Z,5dcec3fa946f7c000b1b7c74,23,Mężczyzna,2022-06-11_09h29.30.503,task,2021.1.4,MacIntel,60.0024001,6299f149e92ead563fba08ef,62a44433d5e6554b473699c0,,,,,,,,,,,,,,,,,,,,,,,,,,,,,,,,,,,,,,,,,,,,,,,,,,,,,,,,,,,,,,,,,,,,,,,,,,,,,,,,,,,,,,,,,,,,,,,,,,,,,
,,,,,,6,0,6,0,1,X V Q F H G B L J M P D K C T S W R N Z,5dcec3fa946f7c000b1b7c74,23,Mężczyzna,2022-06-11_09h29.30.503,task,2021.1.4,MacIntel,60.0024001,6299f149e92ead563fba08ef,62a44433d5e6554b473699c0,,,,,,,,,,,,,,,,,,,,,,,,,,,,,,,,,,,,,,,,,,,,,,,,,,,,,,,,,,,,,,,,,,,,,,,,,,,,,,,,,,,,,,,,,,,,,,,,,,,,,
,,,,,,7,0,7,0,1,X V Q F H G B L J M P D K C T S W R N Z,5dcec3fa946f7c000b1b7c74,23,Mężczyzna,2022-06-11_09h29.30.503,task,2021.1.4,MacIntel,60.0024001,6299f149e92ead563fba08ef,62a44433d5e6554b473699c0,,,,,,,,,,,,,,,,,,,,,,,,,,,,,,,,,,,,,,,,,,,,,,,,,,,,,,,,,,,,,,,,,,,,,,,,,,,,,,,,,,,,,,,,,,,,,,,,,,,,,
,,,,,,8,0,8,0,1,X V Q F H G B L J M P D K C T S W R N Z,5dcec3fa946f7c000b1b7c74,23,Mężczyzna,2022-06-11_09h29.30.503,task,2021.1.4,MacIntel,60.0024001,6299f149e92ead563fba08ef,62a44433d5e6554b473699c0,,,,,,,,,,,,,,,,,,,,,,,,,,,,,,,,,,,,,,,,,,,,,,,,,,,,,,,,,,,,,,,,,,,,,,,,,,,,,,,,,,,,,,,,,,,,,,,,,,,,,
,,,,,,9,0,9,0,1,X V Q F H G B L J M P D K C T S W R N Z,5dcec3fa946f7c000b1b7c74,23,Mężczyzna,2022-06-11_09h29.30.503,task,2021.1.4,MacIntel,60.0024001,6299f149e92ead563fba08ef,62a44433d5e6554b473699c0,,,,,,,,,,,,,,,,,,,,,,,,,,,,,,,,,,,,,,,,,,,,,,,,,,,,,,,,,,,,,,,,,,,,,,,,,,,,,,,,,,,,,,,,,,,,,,,,,,,,,
,,,,,,10,0,10,0,1,X V Q F H G B L J M P D K C T S W R N Z,5dcec3fa946f7c000b1b7c74,23,Mężczyzna,2022-06-11_09h29.30.503,task,2021.1.4,MacIntel,60.0024001,6299f149e92ead563fba08ef,62a44433d5e6554b473699c0,,,,,,,,,,,,,,,,,,,,,,,,,,,,,,,,,,,,,,,,,,,,,,,,,,,,,,,,,,,,,,,,,,,,,,,,,,,,,,,,,,,,,,,,,,,,,,,,,,,,,
,,,,,,11,0,11,0,1,X V Q F H G B L J M P D K C T S W R N Z,5dcec3fa946f7c000b1b7c74,23,Mężczyzna,2022-06-11_09h29.30.503,task,2021.1.4,MacIntel,60.0024001,6299f149e92ead563fba08ef,62a44433d5e6554b473699c0,,,,,,,,,,,,,,,,,,,,,,,,,,,,,,,,,,,,,,,,,,,,,,,,,,,,,,,,,,,,,,,,,,,,,,,,,,,,,,,,,,,,,,,,,,,,,,,,,,,,,
,,,,,,12,0,12,0,1,X V Q F H G B L J M P D K C T S W R N Z,5dcec3fa946f7c000b1b7c74,23,Mężczyzna,2022-06-11_09h29.30.503,task,2021.1.4,MacIntel,60.0024001,6299f149e92ead563fba08ef,62a44433d5e6554b473699c0,,,,,,,,,,,,,,,,,,,,,,,,,,,,,,,,,,,,,,,,,,,,,,,,,,,,,,,,,,,,,,,,,,,,,,,,,,,,,,,,,,,,,,,,,,,,,,,,,,,,,
,,,,,,,,,,,,5dcec3fa946f7c000b1b7c74,23,Mężczyzna,2022-06-11_09h29.30.503,task,2021.1.4,MacIntel,60.0024001,6299f149e92ead563fba08ef,62a44433d5e6554b473699c0,hlxwsfddcfhgr,"[""h"",""l"",""x"",""w"",""s"",""f"",""d"",""d"",""c"",""f"",""h"",""g"",""r""]","[2.56729999999709,3.7991000000015447,5.0493999999985135,6.218000000000075,7.533899999998539,8.789799999997058,10.121100000001547,11.350199999995539,12.92619999999556,14.091399999998544,15.851199999995629,17.543499999999995,18.867600000001516,27.130299999997078]",0,HLXWSFDDCVJKR,28,0,28,0,1,,,,,,,,,,,,,,,,,,,,,,,,,,,,,,,,,,,,,,,,,,,,,,,,,,,,,,,,,,,,,,,,,,,,,,,,,,,,,,,,,,,,,,,,,,,
,,,,,,0,0,0,0,1,X V Q F H G B L J M P D K C T S W R N Z,5dcec3fa946f7c000b1b7c74,23,Mężczyzna,2022-06-11_09h29.30.503,task,2021.1.4,MacIntel,60.0024001,6299f149e92ead563fba08ef,62a44433d5e6554b473699c0,,,,,,,,,,,,,,,,,,,,,,,,,,,,,,,,,,,,,,,,,,,,,,,,,,,,,,,,,,,,,,,,,,,,,,,,,,,,,,,,,,,,,,,,,,,,,,,,,,,,,
,,,,,,1,0,1,0,1,X V Q F H G B L J M P D K C T S W R N Z,5dcec3fa946f7c000b1b7c74,23,Mężczyzna,2022-06-11_09h29.30.503,task,2021.1.4,MacIntel,60.0024001,6299f149e92ead563fba08ef,62a44433d5e6554b473699c0,,,,,,,,,,,,,,,,,,,,,,,,,,,,,,,,,,,,,,,,,,,,,,,,,,,,,,,,,,,,,,,,,,,,,,,,,,,,,,,,,,,,,,,,,,,,,,,,,,,,,
,,,,,,2,0,2,0,1,X V Q F H G B L J M P D K C T S W R N Z,5dcec3fa946f7c000b1b7c74,23,Mężczyzna,2022-06-11_09h29.30.503,task,2021.1.4,MacIntel,60.0024001,6299f149e92ead563fba08ef,62a44433d5e6554b473699c0,,,,,,,,,,,,,,,,,,,,,,,,,,,,,,,,,,,,,,,,,,,,,,,,,,,,,,,,,,,,,,,,,,,,,,,,,,,,,,,,,,,,,,,,,,,,,,,,,,,,,
,,,,,,3,0,3,0,1,X V Q F H G B L J M P D K C T S W R N Z,5dcec3fa946f7c000b1b7c74,23,Mężczyzna,2022-06-11_09h29.30.503,task,2021.1.4,MacIntel,60.0024001,6299f149e92ead563fba08ef,62a44433d5e6554b473699c0,,,,,,,,,,,,,,,,,,,,,,,,,,,,,,,,,,,,,,,,,,,,,,,,,,,,,,,,,,,,,,,,,,,,,,,,,,,,,,,,,,,,,,,,,,,,,,,,,,,,,
,,,,,,4,0,4,0,1,X V Q F H G B L J M P D K C T S W R N Z,5dcec3fa946f7c000b1b7c74,23,Mężczyzna,2022-06-11_09h29.30.503,task,2021.1.4,MacIntel,60.0024001,6299f149e92ead563fba08ef,62a44433d5e6554b473699c0,,,,,,,,,,,,,,,,,,,,,,,,,,,,,,,,,,,,,,,,,,,,,,,,,,,,,,,,,,,,,,,,,,,,,,,,,,,,,,,,,,,,,,,,,,,,,,,,,,,,,
,,,,,,5,0,5,0,1,X V Q F H G B L J M P D K C T S W R N Z,5dcec3fa946f7c000b1b7c74,23,Mężczyzna,2022-06-11_09h29.30.503,task,2021.1.4,MacIntel,60.0024001,6299f149e92ead563fba08ef,62a44433d5e6554b473699c0,,,,,,,,,,,,,,,,,,,,,,,,,,,,,,,,,,,,,,,,,,,,,,,,,,,,,,,,,,,,,,,,,,,,,,,,,,,,,,,,,,,,,,,,,,,,,,,,,,,,,
,,,,,,6,0,6,0,1,X V Q F H G B L J M P D K C T S W R N Z,5dcec3fa946f7c000b1b7c74,23,Mężczyzna,2022-06-11_09h29.30.503,task,2021.1.4,MacIntel,60.0024001,6299f149e92ead563fba08ef,62a44433d5e6554b473699c0,,,,,,,,,,,,,,,,,,,,,,,,,,,,,,,,,,,,,,,,,,,,,,,,,,,,,,,,,,,,,,,,,,,,,,,,,,,,,,,,,,,,,,,,,,,,,,,,,,,,,
,,,,,,7,0,7,0,1,X V Q F H G B L J M P D K C T S W R N Z,5dcec3fa946f7c000b1b7c74,23,Mężczyzna,2022-06-11_09h29.30.503,task,2021.1.4,MacIntel,60.0024001,6299f149e92ead563fba08ef,62a44433d5e6554b473699c0,,,,,,,,,,,,,,,,,,,,,,,,,,,,,,,,,,,,,,,,,,,,,,,,,,,,,,,,,,,,,,,,,,,,,,,,,,,,,,,,,,,,,,,,,,,,,,,,,,,,,
,,,,,,8,0,8,0,1,X V Q F H G B L J M P D K C T S W R N Z,5dcec3fa946f7c000b1b7c74,23,Mężczyzna,2022-06-11_09h29.30.503,task,2021.1.4,MacIntel,60.0024001,6299f149e92ead563fba08ef,62a44433d5e6554b473699c0,,,,,,,,,,,,,,,,,,,,,,,,,,,,,,,,,,,,,,,,,,,,,,,,,,,,,,,,,,,,,,,,,,,,,,,,,,,,,,,,,,,,,,,,,,,,,,,,,,,,,
,,,,,,9,0,9,0,1,X V Q F H G B L J M P D K C T S W R N Z,5dcec3fa946f7c000b1b7c74,23,Mężczyzna,2022-06-11_09h29.30.503,task,2021.1.4,MacIntel,60.0024001,6299f149e92ead563fba08ef,62a44433d5e6554b473699c0,,,,,,,,,,,,,,,,,,,,,,,,,,,,,,,,,,,,,,,,,,,,,,,,,,,,,,,,,,,,,,,,,,,,,,,,,,,,,,,,,,,,,,,,,,,,,,,,,,,,,
,,,,,,10,0,10,0,1,X V Q F H G B L J M P D K C T S W R N Z,5dcec3fa946f7c000b1b7c74,23,Mężczyzna,2022-06-11_09h29.30.503,task,2021.1.4,MacIntel,60.0024001,6299f149e92ead563fba08ef,62a44433d5e6554b473699c0,,,,,,,,,,,,,,,,,,,,,,,,,,,,,,,,,,,,,,,,,,,,,,,,,,,,,,,,,,,,,,,,,,,,,,,,,,,,,,,,,,,,,,,,,,,,,,,,,,,,,
,,,,,,11,0,11,0,1,X V Q F H G B L J M P D K C T S W R N Z,5dcec3fa946f7c000b1b7c74,23,Mężczyzna,2022-06-11_09h29.30.503,task,2021.1.4,MacIntel,60.0024001,6299f149e92ead563fba08ef,62a44433d5e6554b473699c0,,,,,,,,,,,,,,,,,,,,,,,,,,,,,,,,,,,,,,,,,,,,,,,,,,,,,,,,,,,,,,,,,,,,,,,,,,,,,,,,,,,,,,,,,,,,,,,,,,,,,
,,,,,,12,0,12,0,1,X V Q F H G B L J M P D K C T S W R N Z,5dcec3fa946f7c000b1b7c74,23,Mężczyzna,2022-06-11_09h29.30.503,task,2021.1.4,MacIntel,60.0024001,6299f149e92ead563fba08ef,62a44433d5e6554b473699c0,,,,,,,,,,,,,,,,,,,,,,,,,,,,,,,,,,,,,,,,,,,,,,,,,,,,,,,,,,,,,,,,,,,,,,,,,,,,,,,,,,,,,,,,,,,,,,,,,,,,,
,,,,,,,,,,,,5dcec3fa946f7c000b1b7c74,23,Mężczyzna,2022-06-11_09h29.30.503,task,2021.1.4,MacIntel,60.0024001,6299f149e92ead563fba08ef,62a44433d5e6554b473699c0,bnjlxpclssdqk,"[""b"",""n"",""j"",""l"",""x"",""p"",""c"",""l"",""s"",""s"",""d"",""q"",""k""]","[2.7162000000030275,3.9693999999984726,5.099200000002952,6.47199999999998,7.683799999997063,9.135399999998526,10.367600000001516,11.63149999999996,12.880700000003003,14.373899999998457,15.616600000001426,16.61749999999995,18.236899999998514,28.916700000002947]",0,BNJLXPCLSGQKC,29,0,29,0,1,,,,,,,,,,,,,,,,,,,,,,,,,,,,,,,,,,,,,,,,,,,,,,,,,,,,,,,,,,,,,,,,,,,,,,,,,,,,,,,,,,,,,,,,,,,
,,,,,,0,0,0,0,1,X V Q F H G B L J M P D K C T S W R N Z,5dcec3fa946f7c000b1b7c74,23,Mężczyzna,2022-06-11_09h29.30.503,task,2021.1.4,MacIntel,60.0024001,6299f149e92ead563fba08ef,62a44433d5e6554b473699c0,,,,,,,,,,,,,,,,,,,,,,,,,,,,,,,,,,,,,,,,,,,,,,,,,,,,,,,,,,,,,,,,,,,,,,,,,,,,,,,,,,,,,,,,,,,,,,,,,,,,,
,,,,,,1,0,1,0,1,X V Q F H G B L J M P D K C T S W R N Z,5dcec3fa946f7c000b1b7c74,23,Mężczyzna,2022-06-11_09h29.30.503,task,2021.1.4,MacIntel,60.0024001,6299f149e92ead563fba08ef,62a44433d5e6554b473699c0,,,,,,,,,,,,,,,,,,,,,,,,,,,,,,,,,,,,,,,,,,,,,,,,,,,,,,,,,,,,,,,,,,,,,,,,,,,,,,,,,,,,,,,,,,,,,,,,,,,,,
,,,,,,2,0,2,0,1,X V Q F H G B L J M P D K C T S W R N Z,5dcec3fa946f7c000b1b7c74,23,Mężczyzna,2022-06-11_09h29.30.503,task,2021.1.4,MacIntel,60.0024001,6299f149e92ead563fba08ef,62a44433d5e6554b473699c0,,,,,,,,,,,,,,,,,,,,,,,,,,,,,,,,,,,,,,,,,,,,,,,,,,,,,,,,,,,,,,,,,,,,,,,,,,,,,,,,,,,,,,,,,,,,,,,,,,,,,
,,,,,,3,0,3,0,1,X V Q F H G B L J M P D K C T S W R N Z,5dcec3fa946f7c000b1b7c74,23,Mężczyzna,2022-06-11_09h29.30.503,task,2021.1.4,MacIntel,60.0024001,6299f149e92ead563fba08ef,62a44433d5e6554b473699c0,,,,,,,,,,,,,,,,,,,,,,,,,,,,,,,,,,,,,,,,,,,,,,,,,,,,,,,,,,,,,,,,,,,,,,,,,,,,,,,,,,,,,,,,,,,,,,,,,,,,,
,,,,,,4,0,4,0,1,X V Q F H G B L J M P D K C T S W R N Z,5dcec3fa946f7c000b1b7c74,23,Mężczyzna,2022-06-11_09h29.30.503,task,2021.1.4,MacIntel,60.0024001,6299f149e92ead563fba08ef,62a44433d5e6554b473699c0,,,,,,,,,,,,,,,,,,,,,,,,,,,,,,,,,,,,,,,,,,,,,,,,,,,,,,,,,,,,,,,,,,,,,,,,,,,,,,,,,,,,,,,,,,,,,,,,,,,,,
,,,,,,5,0,5,0,1,X V Q F H G B L J M P D K C T S W R N Z,5dcec3fa946f7c000b1b7c74,23,Mężczyzna,2022-06-11_09h29.30.503,task,2021.1.4,MacIntel,60.0024001,6299f149e92ead563fba08ef,62a44433d5e6554b473699c0,,,,,,,,,,,,,,,,,,,,,,,,,,,,,,,,,,,,,,,,,,,,,,,,,,,,,,,,,,,,,,,,,,,,,,,,,,,,,,,,,,,,,,,,,,,,,,,,,,,,,
,,,,,,6,0,6,0,1,X V Q F H G B L J M P D K C T S W R N Z,5dcec3fa946f7c000b1b7c74,23,Mężczyzna,2022-06-11_09h29.30.503,task,2021.1.4,MacIntel,60.0024001,6299f149e92ead563fba08ef,62a44433d5e6554b473699c0,,,,,,,,,,,,,,,,,,,,,,,,,,,,,,,,,,,,,,,,,,,,,,,,,,,,,,,,,,,,,,,,,,,,,,,,,,,,,,,,,,,,,,,,,,,,,,,,,,,,,
,,,,,,7,0,7,0,1,X V Q F H G B L J M P D K C T S W R N Z,5dcec3fa946f7c000b1b7c74,23,Mężczyzna,2022-06-11_09h29.30.503,task,2021.1.4,MacIntel,60.0024001,6299f149e92ead563fba08ef,62a44433d5e6554b473699c0,,,,,,,,,,,,,,,,,,,,,,,,,,,,,,,,,,,,,,,,,,,,,,,,,,,,,,,,,,,,,,,,,,,,,,,,,,,,,,,,,,,,,,,,,,,,,,,,,,,,,
,,,,,,8,0,8,0,1,X V Q F H G B L J M P D K C T S W R N Z,5dcec3fa946f7c000b1b7c74,23,Mężczyzna,2022-06-11_09h29.30.503,task,2021.1.4,MacIntel,60.0024001,6299f149e92ead563fba08ef,62a44433d5e6554b473699c0,,,,,,,,,,,,,,,,,,,,,,,,,,,,,,,,,,,,,,,,,,,,,,,,,,,,,,,,,,,,,,,,,,,,,,,,,,,,,,,,,,,,,,,,,,,,,,,,,,,,,
,,,,,,9,0,9,0,1,X V Q F H G B L J M P D K C T S W R N Z,5dcec3fa946f7c000b1b7c74,23,Mężczyzna,2022-06-11_09h29.30.503,task,2021.1.4,MacIntel,60.0024001,6299f149e92ead563fba08ef,62a44433d5e6554b473699c0,,,,,,,,,,,,,,,,,,,,,,,,,,,,,,,,,,,,,,,,,,,,,,,,,,,,,,,,,,,,,,,,,,,,,,,,,,,,,,,,,,,,,,,,,,,,,,,,,,,,,
,,,,,,10,0,10,0,1,X V Q F H G B L J M P D K C T S W R N Z,5dcec3fa946f7c000b1b7c74,23,Mężczyzna,2022-06-11_09h29.30.503,task,2021.1.4,MacIntel,60.0024001,6299f149e92ead563fba08ef,62a44433d5e6554b473699c0,,,,,,,,,,,,,,,,,,,,,,,,,,,,,,,,,,,,,,,,,,,,,,,,,,,,,,,,,,,,,,,,,,,,,,,,,,,,,,,,,,,,,,,,,,,,,,,,,,,,,
,,,,,,11,0,11,0,1,X V Q F H G B L J M P D K C T S W R N Z,5dcec3fa946f7c000b1b7c74,23,Mężczyzna,2022-06-11_09h29.30.503,task,2021.1.4,MacIntel,60.0024001,6299f149e92ead563fba08ef,62a44433d5e6554b473699c0,,,,,,,,,,,,,,,,,,,,,,,,,,,,,,,,,,,,,,,,,,,,,,,,,,,,,,,,,,,,,,,,,,,,,,,,,,,,,,,,,,,,,,,,,,,,,,,,,,,,,
,,,,,,12,0,12,0,1,X V Q F H G B L J M P D K C T S W R N Z,5dcec3fa946f7c000b1b7c74,23,Mężczyzna,2022-06-11_09h29.30.503,task,2021.1.4,MacIntel,60.0024001,6299f149e92ead563fba08ef,62a44433d5e6554b473699c0,,,,,,,,,,,,,,,,,,,,,,,,,,,,,,,,,,,,,,,,,,,,,,,,,,,,,,,,,,,,,,,,,,,,,,,,,,,,,,,,,,,,,,,,,,,,,,,,,,,,,
,,,,,,,,,,,,5dcec3fa946f7c000b1b7c74,23,Mężczyzna,2022-06-11_09h29.30.503,task,2021.1.4,MacIntel,60.0024001,6299f149e92ead563fba08ef,62a44433d5e6554b473699c0,hzgjhmtdvhgsx,"[""h"",""z"",""g"",""j"",""h"",""m"",""t"",""d"",""v"",""h"",""g"",""s"",""x""]","[2.6493999999985363,3.7341999999955533,5.017399999998474,6.21550000000002,7.652599999994095,8.80789999999854,10.250499999999988,11.423999999999978,12.785099999994031,14.684099999994032,15.415299999997046,17.33159999999407,18.332799999997064,26.016199999995592]",0,HZGJHMTDVBZGC,30,0,30,0,1,,,,,,,,,,,,,,,,,,,,,,,,,,,,,,,,,,,,,,,,,,,,,,,,,,,,,,,,,,,,,,,,,,,,,,,,,,,,,,,,,,,,,,,,,,,
,,,,,,,,,,,,5dcec3fa946f7c000b1b7c74,23,Mężczyzna,2022-06-11_09h29.30.503,task,2021.1.4,MacIntel,60.0024001,6299f149e92ead563fba08ef,62a44433d5e6554b473699c0,,,,,,,,,,,space,16.4053,1,"[""1""]",1,[6.894499999999994],[6.894499999999994],0,0,0,1,1,Practice,2,(4x4) - 15,1,,,,,,,,,,,,,,,,,,,,,,,,,,,,,,,,,,,,,,,,,,,,,,,,,,,,,,,,,,,,,,,,,,,,,,,,,,,
,,,,,,,,,,,,5dcec3fa946f7c000b1b7c74,23,Mężczyzna,2022-06-11_09h29.30.503,task,2021.1.4,MacIntel,60.0024001,6299f149e92ead563fba08ef,62a44433d5e6554b473699c0,,,,,,,,,,,,,5,"[""5""]",1,[3.838299999997048],"[6.894499999999994,3.838299999997048]",0,1,1,5,1,Practice,6,(4/2) + 3,5,,,,,,,,,,,,,,,,,,,,,,,,,,,,,,,,,,,,,,,,,,,,,,,,,,,,,,,,,,,,,,,,,,,,,,,,,,,
,,,,,,,,,,,,5dcec3fa946f7c000b1b7c74,23,Mężczyzna,2022-06-11_09h29.30.503,task,2021.1.4,MacIntel,60.0024001,6299f149e92ead563fba08ef,62a44433d5e6554b473699c0,,,,,,,,,,,,,0,"[""0""]",1,[2.3162000000029366],"[6.894499999999994,3.838299999997048,2.3162000000029366]",0,2,2,0,1,Practice,1,(3x3) -  9,0,,,,,,,,,,,,,,,,,,,,,,,,,,,,,,,,,,,,,,,,,,,,,,,,,,,,,,,,,,,,,,,,,,,,,,,,,,,
,,,,,,,,,,,,5dcec3fa946f7c000b1b7c74,23,Mężczyzna,2022-06-11_09h29.30.503,task,2021.1.4,MacIntel,60.0024001,6299f149e92ead563fba08ef,62a44433d5e6554b473699c0,,,,,,,,,,,,,6,"[""6""]",1,[2.9407999999970116],"[6.894499999999994,3.838299999997048,2.3162000000029366,2.9407999999970116]",0,3,3,6,1,Practice,7,(25/5) + 1,6,,,,,,,,,,,,,,,,,,,,,,,,,,,,,,,,,,,,,,,,,,,,,,,,,,,,,,,,,,,,,,,,,,,,,,,,,,,
,,,,,,,,,,,,5dcec3fa946f7c000b1b7c74,23,Mężczyzna,2022-06-11_09h29.30.503,task,2021.1.4,MacIntel,60.0024001,6299f149e92ead563fba08ef,62a44433d5e6554b473699c0,,,,,,,,,,,,,2,"[""2""]",1,[3.901899999998477],"[6.894499999999994,3.838299999997048,2.3162000000029366,2.9407999999970116,3.901899999998477]",0,4,4,2,1,Practice,3,(4x4) - 14,2,,,,,,,,,,,,,,,,,,,,,,,,,,,,,,,,,,,,,,,,,,,,,,,,,,,,,,,,,,,,,,,,,,,,,,,,,,,
,,,,,,,,,,,,5dcec3fa946f7c000b1b7c74,23,Mężczyzna,2022-06-11_09h29.30.503,task,2021.1.4,MacIntel,60.0024001,6299f149e92ead563fba08ef,62a44433d5e6554b473699c0,,,,,,,,,,,,,8,"[""8""]",1,[2.6096000000014783],"[6.894499999999994,3.838299999997048,2.3162000000029366,2.9407999999970116,3.901899999998477,2.6096000000014783]",0,5,5,8,1,Practice,9,(3x3) - 1,8,,,,,,,,,,,,,,,,,,,,,,,,,,,,,,,,,,,,,,,,,,,,,,,,,,,,,,,,,,,,,,,,,,,,,,,,,,,
,,,,,,,,,,,,5dcec3fa946f7c000b1b7c74,23,Mężczyzna,2022-06-11_09h29.30.503,task,2021.1.4,MacIntel,60.0024001,6299f149e92ead563fba08ef,62a44433d5e6554b473699c0,,,,,,,,,,,,,4,"[""4""]",1,[2.8759999999999764],"[6.894499999999994,3.838299999997048,2.3162000000029366,2.9407999999970116,3.901899999998477,2.6096000000014783,2.8759999999999764]",0,6,6,4,1,Practice,5,(2x6) - 8,4,,,,,,,,,,,,,,,,,,,,,,,,,,,,,,,,,,,,,,,,,,,,,,,,,,,,,,,,,,,,,,,,,,,,,,,,,,,
,,,,,,,,,,,,5dcec3fa946f7c000b1b7c74,23,Mężczyzna,2022-06-11_09h29.30.503,task,2021.1.4,MacIntel,60.0024001,6299f149e92ead563fba08ef,62a44433d5e6554b473699c0,,,,,,,,,,,,,3,"[""3""]",1,[2.449399999998491],"[6.894499999999994,3.838299999997048,2.3162000000029366,2.9407999999970116,3.901899999998477,2.6096000000014783,2.8759999999999764,2.449399999998491]",0,7,7,3,1,Practice,4,(8/4) + 1,3,,,,,,,,,,,,,,,,,,,,,,,,,,,,,,,,,,,,,,,,,,,,,,,,,,,,,,,,,,,,,,,,,,,,,,,,,,,
,,,,,,,,,,,,5dcec3fa946f7c000b1b7c74,23,Mężczyzna,2022-06-11_09h29.30.503,task,2021.1.4,MacIntel,60.0024001,6299f149e92ead563fba08ef,62a44433d5e6554b473699c0,,,,,,,,,,,,,9,"[""9""]",1,[1.9372999999969807],"[6.894499999999994,3.838299999997048,2.3162000000029366,2.9407999999970116,3.901899999998477,2.6096000000014783,2.8759999999999764,2.449399999998491,1.9372999999969807]",0,8,8,9,1,Practice,10,(20/2) - 1,9,,,,,,,,,,,,,,,,,,,,,,,,,,,,,,,,,,,,,,,,,,,,,,,,,,,,,,,,,,,,,,,,,,,,,,,,,,,
,,,,,,,,,,,,5dcec3fa946f7c000b1b7c74,23,Mężczyzna,2022-06-11_09h29.30.503,task,2021.1.4,MacIntel,60.0024001,6299f149e92ead563fba08ef,62a44433d5e6554b473699c0,,,,,,,,,,,,,7,"[""7""]",1,[4.383600000001593],"[6.894499999999994,3.838299999997048,2.3162000000029366,2.9407999999970116,3.901899999998477,2.6096000000014783,2.8759999999999764,2.449399999998491,1.9372999999969807,4.383600000001593]",0,9,9,7,1,Practice,8,(5x5) - 18,7,,,,,,,,,,,,,,,,,,,,,,,,,,,,,,,,,,,,,,,,,,,,,,,,,,,,,,,,,,,,,,,,,,,,,,,,,,,
