key_resp_15.keys,key_resp_15.rt,key_resp_16.keys,key_resp_16.rt,key_resp_4.keys,key_resp_4.rt,next_letter.thisRepN,next_letter.thisTrialN,next_letter.thisN,next_letter.thisIndex,next_letter.ran,letter,participant,Wiek*,Płeć,date,expName,psychopyVersion,OS,frameRate,study_id,session,simple_recall,key_resp_5.keys,key_resp_5.rt,simple_recall_corr,simple_recall_corrkeys,next_level.thisRepN,next_level.thisTrialN,next_level.thisN,next_level.thisIndex,next_level.ran,key_resp_2.keys,key_resp_2.rt,digit_answer,key_resp.keys,key_resp.corr,key_resp.rt,RT_list,next_equation.thisRepN,next_equation.thisTrialN,next_equation.thisN,next_equation.thisIndex,next_equation.ran,Task,Trial,Problem,Operation_answer,processing_score,sumRT,meanRT,sumdiff,sd,RT,key_resp_3.keys,key_resp_3.rt,repeat_practice.thisRepN,repeat_practice.thisTrialN,repeat_practice.thisN,repeat_practice.thisIndex,repeat_practice.ran,key_resp_6.keys,key_resp_6.rt,key_resp_11.keys,key_resp_11.corr,key_resp_11.rt,operation_correct,repeat_if_wrong_prac.thisRepN,repeat_if_wrong_prac.thisTrialN,repeat_if_wrong_prac.thisN,repeat_if_wrong_prac.thisIndex,repeat_if_wrong_prac.ran,span_size_prac.thisRepN,span_size_prac.thisTrialN,span_size_prac.thisN,span_size_prac.thisIndex,span_size_prac.ran,complex_recall_practice,key_resp_9.keys,key_resp_9.corr,key_resp_9.rt,complex_prac_corr,span_recall_prac.thisRepN,span_recall_prac.thisTrialN,span_recall_prac.thisN,span_recall_prac.thisIndex,span_recall_prac.ran,key_resp_10.keys,key_resp_10.rt,key_resp_7.keys,key_resp_7.corr,key_resp_7.rt,repeat_if_wrong.thisRepN,repeat_if_wrong.thisTrialN,repeat_if_wrong.thisN,repeat_if_wrong.thisIndex,repeat_if_wrong.ran,span_size.thisRepN,span_size.thisTrialN,span_size.thisN,span_size.thisIndex,span_size.ran,complex_recall,key_resp_8.keys,key_resp_8.corr,key_resp_8.rt,complex_recall_corr,complex_recall_corrkeys,span_recall.thisRepN,span_recall.thisTrialN,span_recall.thisN,span_recall.thisIndex,span_recall.ran,key_resp_13.keys,key_resp_13.corr,random_loop.thisRepN,random_loop.thisTrialN,random_loop.thisN,random_loop.thisIndex,random_loop.ran,key_resp_13.rt,key_resp_12.keys,key_resp_12.rt
space,17.058,space,14.4872,space,8.8082,0,0,0,0,1,X V Q F H G B L J M P D K C T S W R N Z,5de52f36a91be34a4ea35c71,27,Mężczyzna,2022-06-11_09h20.40.442,task,2021.1.4,Win32,143.020595,6299f149e92ead563fba08ef,62a441e9763199a518959d05,,,,,,,,,,,,,,,,,,,,,,,,,,,,,,,,,,,,,,,,,,,,,,,,,,,,,,,,,,,,,,,,,,,,,,,,,,,,,,,,,,,,,,,,,,,,,,,,,,,,,
,,,,,,1,0,1,0,1,X V Q F H G B L J M P D K C T S W R N Z,5de52f36a91be34a4ea35c71,27,Mężczyzna,2022-06-11_09h20.40.442,task,2021.1.4,Win32,143.020595,6299f149e92ead563fba08ef,62a441e9763199a518959d05,,,,,,,,,,,,,,,,,,,,,,,,,,,,,,,,,,,,,,,,,,,,,,,,,,,,,,,,,,,,,,,,,,,,,,,,,,,,,,,,,,,,,,,,,,,,,,,,,,,,,
,,,,,,,,,,,,5de52f36a91be34a4ea35c71,27,Mężczyzna,2022-06-11_09h20.40.442,task,2021.1.4,Win32,143.020595,6299f149e92ead563fba08ef,62a441e9763199a518959d05,zw,"[""z"",""w""]","[2.4642000000029824,2.6991000000014864,2.900299999997017]",1,ZW,0,0,0,0,1,,,,,,,,,,,,,,,,,,,,,,,,,,,,,,,,,,,,,,,,,,,,,,,,,,,,,,,,,,,,,,,,,,,,,,,,,,,,,,,,,,,,,,,,,,,
,,,,,,0,0,0,0,1,X V Q F H G B L J M P D K C T S W R N Z,5de52f36a91be34a4ea35c71,27,Mężczyzna,2022-06-11_09h20.40.442,task,2021.1.4,Win32,143.020595,6299f149e92ead563fba08ef,62a441e9763199a518959d05,,,,,,,,,,,,,,,,,,,,,,,,,,,,,,,,,,,,,,,,,,,,,,,,,,,,,,,,,,,,,,,,,,,,,,,,,,,,,,,,,,,,,,,,,,,,,,,,,,,,,
,,,,,,1,0,1,0,1,X V Q F H G B L J M P D K C T S W R N Z,5de52f36a91be34a4ea35c71,27,Mężczyzna,2022-06-11_09h20.40.442,task,2021.1.4,Win32,143.020595,6299f149e92ead563fba08ef,62a441e9763199a518959d05,,,,,,,,,,,,,,,,,,,,,,,,,,,,,,,,,,,,,,,,,,,,,,,,,,,,,,,,,,,,,,,,,,,,,,,,,,,,,,,,,,,,,,,,,,,,,,,,,,,,,
,,,,,,,,,,,,5de52f36a91be34a4ea35c71,27,Mężczyzna,2022-06-11_09h20.40.442,task,2021.1.4,Win32,143.020595,6299f149e92ead563fba08ef,62a441e9763199a518959d05,wt,"[""w"",""t""]","[0.9525999999940353,1.243399999998509,1.4616999999955311]",1,WT,1,0,1,0,1,,,,,,,,,,,,,,,,,,,,,,,,,,,,,,,,,,,,,,,,,,,,,,,,,,,,,,,,,,,,,,,,,,,,,,,,,,,,,,,,,,,,,,,,,,,
,,,,,,0,0,0,0,1,X V Q F H G B L J M P D K C T S W R N Z,5de52f36a91be34a4ea35c71,27,Mężczyzna,2022-06-11_09h20.40.442,task,2021.1.4,Win32,143.020595,6299f149e92ead563fba08ef,62a441e9763199a518959d05,,,,,,,,,,,,,,,,,,,,,,,,,,,,,,,,,,,,,,,,,,,,,,,,,,,,,,,,,,,,,,,,,,,,,,,,,,,,,,,,,,,,,,,,,,,,,,,,,,,,,
,,,,,,1,0,1,0,1,X V Q F H G B L J M P D K C T S W R N Z,5de52f36a91be34a4ea35c71,27,Mężczyzna,2022-06-11_09h20.40.442,task,2021.1.4,Win32,143.020595,6299f149e92ead563fba08ef,62a441e9763199a518959d05,,,,,,,,,,,,,,,,,,,,,,,,,,,,,,,,,,,,,,,,,,,,,,,,,,,,,,,,,,,,,,,,,,,,,,,,,,,,,,,,,,,,,,,,,,,,,,,,,,,,,
,,,,,,2,0,2,0,1,X V Q F H G B L J M P D K C T S W R N Z,5de52f36a91be34a4ea35c71,27,Mężczyzna,2022-06-11_09h20.40.442,task,2021.1.4,Win32,143.020595,6299f149e92ead563fba08ef,62a441e9763199a518959d05,,,,,,,,,,,,,,,,,,,,,,,,,,,,,,,,,,,,,,,,,,,,,,,,,,,,,,,,,,,,,,,,,,,,,,,,,,,,,,,,,,,,,,,,,,,,,,,,,,,,,
,,,,,,,,,,,,5de52f36a91be34a4ea35c71,27,Mężczyzna,2022-06-11_09h20.40.442,task,2021.1.4,Win32,143.020595,6299f149e92ead563fba08ef,62a441e9763199a518959d05,ggl,"[""g"",""g"",""l""]","[0.6045999999940435,0.7573999999985119,0.8477999999970223,1.7434999999999974]",1,GGL,2,0,2,0,1,,,,,,,,,,,,,,,,,,,,,,,,,,,,,,,,,,,,,,,,,,,,,,,,,,,,,,,,,,,,,,,,,,,,,,,,,,,,,,,,,,,,,,,,,,,
,,,,,,0,0,0,0,1,X V Q F H G B L J M P D K C T S W R N Z,5de52f36a91be34a4ea35c71,27,Mężczyzna,2022-06-11_09h20.40.442,task,2021.1.4,Win32,143.020595,6299f149e92ead563fba08ef,62a441e9763199a518959d05,,,,,,,,,,,,,,,,,,,,,,,,,,,,,,,,,,,,,,,,,,,,,,,,,,,,,,,,,,,,,,,,,,,,,,,,,,,,,,,,,,,,,,,,,,,,,,,,,,,,,
,,,,,,1,0,1,0,1,X V Q F H G B L J M P D K C T S W R N Z,5de52f36a91be34a4ea35c71,27,Mężczyzna,2022-06-11_09h20.40.442,task,2021.1.4,Win32,143.020595,6299f149e92ead563fba08ef,62a441e9763199a518959d05,,,,,,,,,,,,,,,,,,,,,,,,,,,,,,,,,,,,,,,,,,,,,,,,,,,,,,,,,,,,,,,,,,,,,,,,,,,,,,,,,,,,,,,,,,,,,,,,,,,,,
,,,,,,2,0,2,0,1,X V Q F H G B L J M P D K C T S W R N Z,5de52f36a91be34a4ea35c71,27,Mężczyzna,2022-06-11_09h20.40.442,task,2021.1.4,Win32,143.020595,6299f149e92ead563fba08ef,62a441e9763199a518959d05,,,,,,,,,,,,,,,,,,,,,,,,,,,,,,,,,,,,,,,,,,,,,,,,,,,,,,,,,,,,,,,,,,,,,,,,,,,,,,,,,,,,,,,,,,,,,,,,,,,,,
,,,,,,,,,,,,5de52f36a91be34a4ea35c71,27,Mężczyzna,2022-06-11_09h20.40.442,task,2021.1.4,Win32,143.020595,6299f149e92ead563fba08ef,62a441e9763199a518959d05,pcx,"[""p"",""c"",""x""]","[0.8893999999985027,1.0229999999999961,1.160299999997008,2.0352000000029733]",1,PCX,3,0,3,0,1,,,,,,,,,,,,,,,,,,,,,,,,,,,,,,,,,,,,,,,,,,,,,,,,,,,,,,,,,,,,,,,,,,,,,,,,,,,,,,,,,,,,,,,,,,,
,,,,,,0,0,0,0,1,X V Q F H G B L J M P D K C T S W R N Z,5de52f36a91be34a4ea35c71,27,Mężczyzna,2022-06-11_09h20.40.442,task,2021.1.4,Win32,143.020595,6299f149e92ead563fba08ef,62a441e9763199a518959d05,,,,,,,,,,,,,,,,,,,,,,,,,,,,,,,,,,,,,,,,,,,,,,,,,,,,,,,,,,,,,,,,,,,,,,,,,,,,,,,,,,,,,,,,,,,,,,,,,,,,,
,,,,,,1,0,1,0,1,X V Q F H G B L J M P D K C T S W R N Z,5de52f36a91be34a4ea35c71,27,Mężczyzna,2022-06-11_09h20.40.442,task,2021.1.4,Win32,143.020595,6299f149e92ead563fba08ef,62a441e9763199a518959d05,,,,,,,,,,,,,,,,,,,,,,,,,,,,,,,,,,,,,,,,,,,,,,,,,,,,,,,,,,,,,,,,,,,,,,,,,,,,,,,,,,,,,,,,,,,,,,,,,,,,,
,,,,,,2,0,2,0,1,X V Q F H G B L J M P D K C T S W R N Z,5de52f36a91be34a4ea35c71,27,Mężczyzna,2022-06-11_09h20.40.442,task,2021.1.4,Win32,143.020595,6299f149e92ead563fba08ef,62a441e9763199a518959d05,,,,,,,,,,,,,,,,,,,,,,,,,,,,,,,,,,,,,,,,,,,,,,,,,,,,,,,,,,,,,,,,,,,,,,,,,,,,,,,,,,,,,,,,,,,,,,,,,,,,,
,,,,,,3,0,3,0,1,X V Q F H G B L J M P D K C T S W R N Z,5de52f36a91be34a4ea35c71,27,Mężczyzna,2022-06-11_09h20.40.442,task,2021.1.4,Win32,143.020595,6299f149e92ead563fba08ef,62a441e9763199a518959d05,,,,,,,,,,,,,,,,,,,,,,,,,,,,,,,,,,,,,,,,,,,,,,,,,,,,,,,,,,,,,,,,,,,,,,,,,,,,,,,,,,,,,,,,,,,,,,,,,,,,,
,,,,,,,,,,,,5de52f36a91be34a4ea35c71,27,Mężczyzna,2022-06-11_09h20.40.442,task,2021.1.4,Win32,143.020595,6299f149e92ead563fba08ef,62a441e9763199a518959d05,mlqj,"[""m"",""l"",""q"",""j""]","[0.3754999999999882,0.41779999999701545,0.48660000000148784,0.6532999999970173,1.5073999999984977]",1,MLQJ,4,0,4,0,1,,,,,,,,,,,,,,,,,,,,,,,,,,,,,,,,,,,,,,,,,,,,,,,,,,,,,,,,,,,,,,,,,,,,,,,,,,,,,,,,,,,,,,,,,,,
,,,,,,0,0,0,0,1,X V Q F H G B L J M P D K C T S W R N Z,5de52f36a91be34a4ea35c71,27,Mężczyzna,2022-06-11_09h20.40.442,task,2021.1.4,Win32,143.020595,6299f149e92ead563fba08ef,62a441e9763199a518959d05,,,,,,,,,,,,,,,,,,,,,,,,,,,,,,,,,,,,,,,,,,,,,,,,,,,,,,,,,,,,,,,,,,,,,,,,,,,,,,,,,,,,,,,,,,,,,,,,,,,,,
,,,,,,1,0,1,0,1,X V Q F H G B L J M P D K C T S W R N Z,5de52f36a91be34a4ea35c71,27,Mężczyzna,2022-06-11_09h20.40.442,task,2021.1.4,Win32,143.020595,6299f149e92ead563fba08ef,62a441e9763199a518959d05,,,,,,,,,,,,,,,,,,,,,,,,,,,,,,,,,,,,,,,,,,,,,,,,,,,,,,,,,,,,,,,,,,,,,,,,,,,,,,,,,,,,,,,,,,,,,,,,,,,,,
,,,,,,2,0,2,0,1,X V Q F H G B L J M P D K C T S W R N Z,5de52f36a91be34a4ea35c71,27,Mężczyzna,2022-06-11_09h20.40.442,task,2021.1.4,Win32,143.020595,6299f149e92ead563fba08ef,62a441e9763199a518959d05,,,,,,,,,,,,,,,,,,,,,,,,,,,,,,,,,,,,,,,,,,,,,,,,,,,,,,,,,,,,,,,,,,,,,,,,,,,,,,,,,,,,,,,,,,,,,,,,,,,,,
,,,,,,3,0,3,0,1,X V Q F H G B L J M P D K C T S W R N Z,5de52f36a91be34a4ea35c71,27,Mężczyzna,2022-06-11_09h20.40.442,task,2021.1.4,Win32,143.020595,6299f149e92ead563fba08ef,62a441e9763199a518959d05,,,,,,,,,,,,,,,,,,,,,,,,,,,,,,,,,,,,,,,,,,,,,,,,,,,,,,,,,,,,,,,,,,,,,,,,,,,,,,,,,,,,,,,,,,,,,,,,,,,,,
,,,,,,,,,,,,5de52f36a91be34a4ea35c71,27,Mężczyzna,2022-06-11_09h20.40.442,task,2021.1.4,Win32,143.020595,6299f149e92ead563fba08ef,62a441e9763199a518959d05,bfxn,"[""b"",""f"",""x"",""n""]","[1.2922000000029783,1.5557000000029717,1.8337999999970123,3.5106000000014888,3.7088999999985077]",1,BFXN,5,0,5,0,1,,,,,,,,,,,,,,,,,,,,,,,,,,,,,,,,,,,,,,,,,,,,,,,,,,,,,,,,,,,,,,,,,,,,,,,,,,,,,,,,,,,,,,,,,,,
,,,,,,0,0,0,0,1,X V Q F H G B L J M P D K C T S W R N Z,5de52f36a91be34a4ea35c71,27,Mężczyzna,2022-06-11_09h20.40.442,task,2021.1.4,Win32,143.020595,6299f149e92ead563fba08ef,62a441e9763199a518959d05,,,,,,,,,,,,,,,,,,,,,,,,,,,,,,,,,,,,,,,,,,,,,,,,,,,,,,,,,,,,,,,,,,,,,,,,,,,,,,,,,,,,,,,,,,,,,,,,,,,,,
,,,,,,1,0,1,0,1,X V Q F H G B L J M P D K C T S W R N Z,5de52f36a91be34a4ea35c71,27,Mężczyzna,2022-06-11_09h20.40.442,task,2021.1.4,Win32,143.020595,6299f149e92ead563fba08ef,62a441e9763199a518959d05,,,,,,,,,,,,,,,,,,,,,,,,,,,,,,,,,,,,,,,,,,,,,,,,,,,,,,,,,,,,,,,,,,,,,,,,,,,,,,,,,,,,,,,,,,,,,,,,,,,,,
,,,,,,2,0,2,0,1,X V Q F H G B L J M P D K C T S W R N Z,5de52f36a91be34a4ea35c71,27,Mężczyzna,2022-06-11_09h20.40.442,task,2021.1.4,Win32,143.020595,6299f149e92ead563fba08ef,62a441e9763199a518959d05,,,,,,,,,,,,,,,,,,,,,,,,,,,,,,,,,,,,,,,,,,,,,,,,,,,,,,,,,,,,,,,,,,,,,,,,,,,,,,,,,,,,,,,,,,,,,,,,,,,,,
,,,,,,3,0,3,0,1,X V Q F H G B L J M P D K C T S W R N Z,5de52f36a91be34a4ea35c71,27,Mężczyzna,2022-06-11_09h20.40.442,task,2021.1.4,Win32,143.020595,6299f149e92ead563fba08ef,62a441e9763199a518959d05,,,,,,,,,,,,,,,,,,,,,,,,,,,,,,,,,,,,,,,,,,,,,,,,,,,,,,,,,,,,,,,,,,,,,,,,,,,,,,,,,,,,,,,,,,,,,,,,,,,,,
,,,,,,4,0,4,0,1,X V Q F H G B L J M P D K C T S W R N Z,5de52f36a91be34a4ea35c71,27,Mężczyzna,2022-06-11_09h20.40.442,task,2021.1.4,Win32,143.020595,6299f149e92ead563fba08ef,62a441e9763199a518959d05,,,,,,,,,,,,,,,,,,,,,,,,,,,,,,,,,,,,,,,,,,,,,,,,,,,,,,,,,,,,,,,,,,,,,,,,,,,,,,,,,,,,,,,,,,,,,,,,,,,,,
,,,,,,,,,,,,5de52f36a91be34a4ea35c71,27,Mężczyzna,2022-06-11_09h20.40.442,task,2021.1.4,Win32,143.020595,6299f149e92ead563fba08ef,62a441e9763199a518959d05,ckrbm,"[""c"",""k"",""r"",""b"",""m""]","[1.097600000001492,1.257399999998512,1.7297000000029783,2.0039999999999907,2.084000000000003,2.2099999999999937]",1,CKRBM,6,0,6,0,1,,,,,,,,,,,,,,,,,,,,,,,,,,,,,,,,,,,,,,,,,,,,,,,,,,,,,,,,,,,,,,,,,,,,,,,,,,,,,,,,,,,,,,,,,,,
,,,,,,0,0,0,0,1,X V Q F H G B L J M P D K C T S W R N Z,5de52f36a91be34a4ea35c71,27,Mężczyzna,2022-06-11_09h20.40.442,task,2021.1.4,Win32,143.020595,6299f149e92ead563fba08ef,62a441e9763199a518959d05,,,,,,,,,,,,,,,,,,,,,,,,,,,,,,,,,,,,,,,,,,,,,,,,,,,,,,,,,,,,,,,,,,,,,,,,,,,,,,,,,,,,,,,,,,,,,,,,,,,,,
,,,,,,1,0,1,0,1,X V Q F H G B L J M P D K C T S W R N Z,5de52f36a91be34a4ea35c71,27,Mężczyzna,2022-06-11_09h20.40.442,task,2021.1.4,Win32,143.020595,6299f149e92ead563fba08ef,62a441e9763199a518959d05,,,,,,,,,,,,,,,,,,,,,,,,,,,,,,,,,,,,,,,,,,,,,,,,,,,,,,,,,,,,,,,,,,,,,,,,,,,,,,,,,,,,,,,,,,,,,,,,,,,,,
,,,,,,2,0,2,0,1,X V Q F H G B L J M P D K C T S W R N Z,5de52f36a91be34a4ea35c71,27,Mężczyzna,2022-06-11_09h20.40.442,task,2021.1.4,Win32,143.020595,6299f149e92ead563fba08ef,62a441e9763199a518959d05,,,,,,,,,,,,,,,,,,,,,,,,,,,,,,,,,,,,,,,,,,,,,,,,,,,,,,,,,,,,,,,,,,,,,,,,,,,,,,,,,,,,,,,,,,,,,,,,,,,,,
,,,,,,3,0,3,0,1,X V Q F H G B L J M P D K C T S W R N Z,5de52f36a91be34a4ea35c71,27,Mężczyzna,2022-06-11_09h20.40.442,task,2021.1.4,Win32,143.020595,6299f149e92ead563fba08ef,62a441e9763199a518959d05,,,,,,,,,,,,,,,,,,,,,,,,,,,,,,,,,,,,,,,,,,,,,,,,,,,,,,,,,,,,,,,,,,,,,,,,,,,,,,,,,,,,,,,,,,,,,,,,,,,,,
,,,,,,4,0,4,0,1,X V Q F H G B L J M P D K C T S W R N Z,5de52f36a91be34a4ea35c71,27,Mężczyzna,2022-06-11_09h20.40.442,task,2021.1.4,Win32,143.020595,6299f149e92ead563fba08ef,62a441e9763199a518959d05,,,,,,,,,,,,,,,,,,,,,,,,,,,,,,,,,,,,,,,,,,,,,,,,,,,,,,,,,,,,,,,,,,,,,,,,,,,,,,,,,,,,,,,,,,,,,,,,,,,,,
,,,,,,,,,,,,5de52f36a91be34a4ea35c71,27,Mężczyzna,2022-06-11_09h20.40.442,task,2021.1.4,Win32,143.020595,6299f149e92ead563fba08ef,62a441e9763199a518959d05,pjrfx,"[""p"",""j"",""r"",""f"",""x""]","[1.5145000000000124,1.6088999999985134,2.0506999999955298,2.7850999999940456,2.9865999999940414,3.0975999999940456]",0,PJFRX,7,0,7,0,1,,,,,,,,,,,,,,,,,,,,,,,,,,,,,,,,,,,,,,,,,,,,,,,,,,,,,,,,,,,,,,,,,,,,,,,,,,,,,,,,,,,,,,,,,,,
,,,,,,0,0,0,0,1,X V Q F H G B L J M P D K C T S W R N Z,5de52f36a91be34a4ea35c71,27,Mężczyzna,2022-06-11_09h20.40.442,task,2021.1.4,Win32,143.020595,6299f149e92ead563fba08ef,62a441e9763199a518959d05,,,,,,,,,,,,,,,,,,,,,,,,,,,,,,,,,,,,,,,,,,,,,,,,,,,,,,,,,,,,,,,,,,,,,,,,,,,,,,,,,,,,,,,,,,,,,,,,,,,,,
,,,,,,1,0,1,0,1,X V Q F H G B L J M P D K C T S W R N Z,5de52f36a91be34a4ea35c71,27,Mężczyzna,2022-06-11_09h20.40.442,task,2021.1.4,Win32,143.020595,6299f149e92ead563fba08ef,62a441e9763199a518959d05,,,,,,,,,,,,,,,,,,,,,,,,,,,,,,,,,,,,,,,,,,,,,,,,,,,,,,,,,,,,,,,,,,,,,,,,,,,,,,,,,,,,,,,,,,,,,,,,,,,,,
,,,,,,2,0,2,0,1,X V Q F H G B L J M P D K C T S W R N Z,5de52f36a91be34a4ea35c71,27,Mężczyzna,2022-06-11_09h20.40.442,task,2021.1.4,Win32,143.020595,6299f149e92ead563fba08ef,62a441e9763199a518959d05,,,,,,,,,,,,,,,,,,,,,,,,,,,,,,,,,,,,,,,,,,,,,,,,,,,,,,,,,,,,,,,,,,,,,,,,,,,,,,,,,,,,,,,,,,,,,,,,,,,,,
,,,,,,3,0,3,0,1,X V Q F H G B L J M P D K C T S W R N Z,5de52f36a91be34a4ea35c71,27,Mężczyzna,2022-06-11_09h20.40.442,task,2021.1.4,Win32,143.020595,6299f149e92ead563fba08ef,62a441e9763199a518959d05,,,,,,,,,,,,,,,,,,,,,,,,,,,,,,,,,,,,,,,,,,,,,,,,,,,,,,,,,,,,,,,,,,,,,,,,,,,,,,,,,,,,,,,,,,,,,,,,,,,,,
,,,,,,4,0,4,0,1,X V Q F H G B L J M P D K C T S W R N Z,5de52f36a91be34a4ea35c71,27,Mężczyzna,2022-06-11_09h20.40.442,task,2021.1.4,Win32,143.020595,6299f149e92ead563fba08ef,62a441e9763199a518959d05,,,,,,,,,,,,,,,,,,,,,,,,,,,,,,,,,,,,,,,,,,,,,,,,,,,,,,,,,,,,,,,,,,,,,,,,,,,,,,,,,,,,,,,,,,,,,,,,,,,,,
,,,,,,,,,,,,5de52f36a91be34a4ea35c71,27,Mężczyzna,2022-06-11_09h20.40.442,task,2021.1.4,Win32,143.020595,6299f149e92ead563fba08ef,62a441e9763199a518959d05,rvmph,"[""r"",""v"",""m"",""p"",""h""]","[1.211500000000001,1.6252999999970257,1.944899999998512,2.125399999998521,2.3487000000029923,2.5435000000000088]",0,RVMBH,8,0,8,0,1,,,,,,,,,,,,,,,,,,,,,,,,,,,,,,,,,,,,,,,,,,,,,,,,,,,,,,,,,,,,,,,,,,,,,,,,,,,,,,,,,,,,,,,,,,,
,,,,,,0,0,0,0,1,X V Q F H G B L J M P D K C T S W R N Z,5de52f36a91be34a4ea35c71,27,Mężczyzna,2022-06-11_09h20.40.442,task,2021.1.4,Win32,143.020595,6299f149e92ead563fba08ef,62a441e9763199a518959d05,,,,,,,,,,,,,,,,,,,,,,,,,,,,,,,,,,,,,,,,,,,,,,,,,,,,,,,,,,,,,,,,,,,,,,,,,,,,,,,,,,,,,,,,,,,,,,,,,,,,,
,,,,,,1,0,1,0,1,X V Q F H G B L J M P D K C T S W R N Z,5de52f36a91be34a4ea35c71,27,Mężczyzna,2022-06-11_09h20.40.442,task,2021.1.4,Win32,143.020595,6299f149e92ead563fba08ef,62a441e9763199a518959d05,,,,,,,,,,,,,,,,,,,,,,,,,,,,,,,,,,,,,,,,,,,,,,,,,,,,,,,,,,,,,,,,,,,,,,,,,,,,,,,,,,,,,,,,,,,,,,,,,,,,,
,,,,,,2,0,2,0,1,X V Q F H G B L J M P D K C T S W R N Z,5de52f36a91be34a4ea35c71,27,Mężczyzna,2022-06-11_09h20.40.442,task,2021.1.4,Win32,143.020595,6299f149e92ead563fba08ef,62a441e9763199a518959d05,,,,,,,,,,,,,,,,,,,,,,,,,,,,,,,,,,,,,,,,,,,,,,,,,,,,,,,,,,,,,,,,,,,,,,,,,,,,,,,,,,,,,,,,,,,,,,,,,,,,,
,,,,,,3,0,3,0,1,X V Q F H G B L J M P D K C T S W R N Z,5de52f36a91be34a4ea35c71,27,Mężczyzna,2022-06-11_09h20.40.442,task,2021.1.4,Win32,143.020595,6299f149e92ead563fba08ef,62a441e9763199a518959d05,,,,,,,,,,,,,,,,,,,,,,,,,,,,,,,,,,,,,,,,,,,,,,,,,,,,,,,,,,,,,,,,,,,,,,,,,,,,,,,,,,,,,,,,,,,,,,,,,,,,,
,,,,,,4,0,4,0,1,X V Q F H G B L J M P D K C T S W R N Z,5de52f36a91be34a4ea35c71,27,Mężczyzna,2022-06-11_09h20.40.442,task,2021.1.4,Win32,143.020595,6299f149e92ead563fba08ef,62a441e9763199a518959d05,,,,,,,,,,,,,,,,,,,,,,,,,,,,,,,,,,,,,,,,,,,,,,,,,,,,,,,,,,,,,,,,,,,,,,,,,,,,,,,,,,,,,,,,,,,,,,,,,,,,,
,,,,,,,,,,,,5de52f36a91be34a4ea35c71,27,Mężczyzna,2022-06-11_09h20.40.442,task,2021.1.4,Win32,143.020595,6299f149e92ead563fba08ef,62a441e9763199a518959d05,khwzh,"[""k"",""h"",""w"",""z"",""h""]","[0.7921000000014828,1.0151999999955308,1.2048999999985028,1.396100000001482,1.550799999997011,2.210899999998503]",1,KHWZH,9,0,9,0,1,,,,,,,,,,,,,,,,,,,,,,,,,,,,,,,,,,,,,,,,,,,,,,,,,,,,,,,,,,,,,,,,,,,,,,,,,,,,,,,,,,,,,,,,,,,
,,,,,,0,0,0,0,1,X V Q F H G B L J M P D K C T S W R N Z,5de52f36a91be34a4ea35c71,27,Mężczyzna,2022-06-11_09h20.40.442,task,2021.1.4,Win32,143.020595,6299f149e92ead563fba08ef,62a441e9763199a518959d05,,,,,,,,,,,,,,,,,,,,,,,,,,,,,,,,,,,,,,,,,,,,,,,,,,,,,,,,,,,,,,,,,,,,,,,,,,,,,,,,,,,,,,,,,,,,,,,,,,,,,
,,,,,,1,0,1,0,1,X V Q F H G B L J M P D K C T S W R N Z,5de52f36a91be34a4ea35c71,27,Mężczyzna,2022-06-11_09h20.40.442,task,2021.1.4,Win32,143.020595,6299f149e92ead563fba08ef,62a441e9763199a518959d05,,,,,,,,,,,,,,,,,,,,,,,,,,,,,,,,,,,,,,,,,,,,,,,,,,,,,,,,,,,,,,,,,,,,,,,,,,,,,,,,,,,,,,,,,,,,,,,,,,,,,
,,,,,,2,0,2,0,1,X V Q F H G B L J M P D K C T S W R N Z,5de52f36a91be34a4ea35c71,27,Mężczyzna,2022-06-11_09h20.40.442,task,2021.1.4,Win32,143.020595,6299f149e92ead563fba08ef,62a441e9763199a518959d05,,,,,,,,,,,,,,,,,,,,,,,,,,,,,,,,,,,,,,,,,,,,,,,,,,,,,,,,,,,,,,,,,,,,,,,,,,,,,,,,,,,,,,,,,,,,,,,,,,,,,
,,,,,,3,0,3,0,1,X V Q F H G B L J M P D K C T S W R N Z,5de52f36a91be34a4ea35c71,27,Mężczyzna,2022-06-11_09h20.40.442,task,2021.1.4,Win32,143.020595,6299f149e92ead563fba08ef,62a441e9763199a518959d05,,,,,,,,,,,,,,,,,,,,,,,,,,,,,,,,,,,,,,,,,,,,,,,,,,,,,,,,,,,,,,,,,,,,,,,,,,,,,,,,,,,,,,,,,,,,,,,,,,,,,
,,,,,,4,0,4,0,1,X V Q F H G B L J M P D K C T S W R N Z,5de52f36a91be34a4ea35c71,27,Mężczyzna,2022-06-11_09h20.40.442,task,2021.1.4,Win32,143.020595,6299f149e92ead563fba08ef,62a441e9763199a518959d05,,,,,,,,,,,,,,,,,,,,,,,,,,,,,,,,,,,,,,,,,,,,,,,,,,,,,,,,,,,,,,,,,,,,,,,,,,,,,,,,,,,,,,,,,,,,,,,,,,,,,
,,,,,,5,0,5,0,1,X V Q F H G B L J M P D K C T S W R N Z,5de52f36a91be34a4ea35c71,27,Mężczyzna,2022-06-11_09h20.40.442,task,2021.1.4,Win32,143.020595,6299f149e92ead563fba08ef,62a441e9763199a518959d05,,,,,,,,,,,,,,,,,,,,,,,,,,,,,,,,,,,,,,,,,,,,,,,,,,,,,,,,,,,,,,,,,,,,,,,,,,,,,,,,,,,,,,,,,,,,,,,,,,,,,
,,,,,,,,,,,,5de52f36a91be34a4ea35c71,27,Mężczyzna,2022-06-11_09h20.40.442,task,2021.1.4,Win32,143.020595,6299f149e92ead563fba08ef,62a441e9763199a518959d05,cmgzs,"[""c"",""m"",""g"",""z"",""s""]","[0.48649999999997817,0.634799999997,0.9656000000014728,1.0931000000014706,1.5107999999970048,1.6739999999999782]",0,CNMGZS,10,0,10,0,1,,,,,,,,,,,,,,,,,,,,,,,,,,,,,,,,,,,,,,,,,,,,,,,,,,,,,,,,,,,,,,,,,,,,,,,,,,,,,,,,,,,,,,,,,,,
,,,,,,0,0,0,0,1,X V Q F H G B L J M P D K C T S W R N Z,5de52f36a91be34a4ea35c71,27,Mężczyzna,2022-06-11_09h20.40.442,task,2021.1.4,Win32,143.020595,6299f149e92ead563fba08ef,62a441e9763199a518959d05,,,,,,,,,,,,,,,,,,,,,,,,,,,,,,,,,,,,,,,,,,,,,,,,,,,,,,,,,,,,,,,,,,,,,,,,,,,,,,,,,,,,,,,,,,,,,,,,,,,,,
,,,,,,1,0,1,0,1,X V Q F H G B L J M P D K C T S W R N Z,5de52f36a91be34a4ea35c71,27,Mężczyzna,2022-06-11_09h20.40.442,task,2021.1.4,Win32,143.020595,6299f149e92ead563fba08ef,62a441e9763199a518959d05,,,,,,,,,,,,,,,,,,,,,,,,,,,,,,,,,,,,,,,,,,,,,,,,,,,,,,,,,,,,,,,,,,,,,,,,,,,,,,,,,,,,,,,,,,,,,,,,,,,,,
,,,,,,2,0,2,0,1,X V Q F H G B L J M P D K C T S W R N Z,5de52f36a91be34a4ea35c71,27,Mężczyzna,2022-06-11_09h20.40.442,task,2021.1.4,Win32,143.020595,6299f149e92ead563fba08ef,62a441e9763199a518959d05,,,,,,,,,,,,,,,,,,,,,,,,,,,,,,,,,,,,,,,,,,,,,,,,,,,,,,,,,,,,,,,,,,,,,,,,,,,,,,,,,,,,,,,,,,,,,,,,,,,,,
,,,,,,3,0,3,0,1,X V Q F H G B L J M P D K C T S W R N Z,5de52f36a91be34a4ea35c71,27,Mężczyzna,2022-06-11_09h20.40.442,task,2021.1.4,Win32,143.020595,6299f149e92ead563fba08ef,62a441e9763199a518959d05,,,,,,,,,,,,,,,,,,,,,,,,,,,,,,,,,,,,,,,,,,,,,,,,,,,,,,,,,,,,,,,,,,,,,,,,,,,,,,,,,,,,,,,,,,,,,,,,,,,,,
,,,,,,4,0,4,0,1,X V Q F H G B L J M P D K C T S W R N Z,5de52f36a91be34a4ea35c71,27,Mężczyzna,2022-06-11_09h20.40.442,task,2021.1.4,Win32,143.020595,6299f149e92ead563fba08ef,62a441e9763199a518959d05,,,,,,,,,,,,,,,,,,,,,,,,,,,,,,,,,,,,,,,,,,,,,,,,,,,,,,,,,,,,,,,,,,,,,,,,,,,,,,,,,,,,,,,,,,,,,,,,,,,,,
,,,,,,5,0,5,0,1,X V Q F H G B L J M P D K C T S W R N Z,5de52f36a91be34a4ea35c71,27,Mężczyzna,2022-06-11_09h20.40.442,task,2021.1.4,Win32,143.020595,6299f149e92ead563fba08ef,62a441e9763199a518959d05,,,,,,,,,,,,,,,,,,,,,,,,,,,,,,,,,,,,,,,,,,,,,,,,,,,,,,,,,,,,,,,,,,,,,,,,,,,,,,,,,,,,,,,,,,,,,,,,,,,,,
,,,,,,,,,,,,5de52f36a91be34a4ea35c71,27,Mężczyzna,2022-06-11_09h20.40.442,task,2021.1.4,Win32,143.020595,6299f149e92ead563fba08ef,62a441e9763199a518959d05,thchtzm,"[""t"",""h"",""c"",""h"",""t"",""z"",""m""]","[0.36570000000295977,0.5143000000044538,0.7517000000029554,1.3978000000044517,2.3823000000044487,2.6254000000059534,3.0376000000014756,3.3078000000044483]",0,THDCZM,11,0,11,0,1,,,,,,,,,,,,,,,,,,,,,,,,,,,,,,,,,,,,,,,,,,,,,,,,,,,,,,,,,,,,,,,,,,,,,,,,,,,,,,,,,,,,,,,,,,,
,,,,,,0,0,0,0,1,X V Q F H G B L J M P D K C T S W R N Z,5de52f36a91be34a4ea35c71,27,Mężczyzna,2022-06-11_09h20.40.442,task,2021.1.4,Win32,143.020595,6299f149e92ead563fba08ef,62a441e9763199a518959d05,,,,,,,,,,,,,,,,,,,,,,,,,,,,,,,,,,,,,,,,,,,,,,,,,,,,,,,,,,,,,,,,,,,,,,,,,,,,,,,,,,,,,,,,,,,,,,,,,,,,,
,,,,,,1,0,1,0,1,X V Q F H G B L J M P D K C T S W R N Z,5de52f36a91be34a4ea35c71,27,Mężczyzna,2022-06-11_09h20.40.442,task,2021.1.4,Win32,143.020595,6299f149e92ead563fba08ef,62a441e9763199a518959d05,,,,,,,,,,,,,,,,,,,,,,,,,,,,,,,,,,,,,,,,,,,,,,,,,,,,,,,,,,,,,,,,,,,,,,,,,,,,,,,,,,,,,,,,,,,,,,,,,,,,,
,,,,,,2,0,2,0,1,X V Q F H G B L J M P D K C T S W R N Z,5de52f36a91be34a4ea35c71,27,Mężczyzna,2022-06-11_09h20.40.442,task,2021.1.4,Win32,143.020595,6299f149e92ead563fba08ef,62a441e9763199a518959d05,,,,,,,,,,,,,,,,,,,,,,,,,,,,,,,,,,,,,,,,,,,,,,,,,,,,,,,,,,,,,,,,,,,,,,,,,,,,,,,,,,,,,,,,,,,,,,,,,,,,,
,,,,,,3,0,3,0,1,X V Q F H G B L J M P D K C T S W R N Z,5de52f36a91be34a4ea35c71,27,Mężczyzna,2022-06-11_09h20.40.442,task,2021.1.4,Win32,143.020595,6299f149e92ead563fba08ef,62a441e9763199a518959d05,,,,,,,,,,,,,,,,,,,,,,,,,,,,,,,,,,,,,,,,,,,,,,,,,,,,,,,,,,,,,,,,,,,,,,,,,,,,,,,,,,,,,,,,,,,,,,,,,,,,,
,,,,,,4,0,4,0,1,X V Q F H G B L J M P D K C T S W R N Z,5de52f36a91be34a4ea35c71,27,Mężczyzna,2022-06-11_09h20.40.442,task,2021.1.4,Win32,143.020595,6299f149e92ead563fba08ef,62a441e9763199a518959d05,,,,,,,,,,,,,,,,,,,,,,,,,,,,,,,,,,,,,,,,,,,,,,,,,,,,,,,,,,,,,,,,,,,,,,,,,,,,,,,,,,,,,,,,,,,,,,,,,,,,,
,,,,,,5,0,5,0,1,X V Q F H G B L J M P D K C T S W R N Z,5de52f36a91be34a4ea35c71,27,Mężczyzna,2022-06-11_09h20.40.442,task,2021.1.4,Win32,143.020595,6299f149e92ead563fba08ef,62a441e9763199a518959d05,,,,,,,,,,,,,,,,,,,,,,,,,,,,,,,,,,,,,,,,,,,,,,,,,,,,,,,,,,,,,,,,,,,,,,,,,,,,,,,,,,,,,,,,,,,,,,,,,,,,,
,,,,,,,,,,,,5de52f36a91be34a4ea35c71,27,Mężczyzna,2022-06-11_09h20.40.442,task,2021.1.4,Win32,143.020595,6299f149e92ead563fba08ef,62a441e9763199a518959d05,hlkkvv,"[""h"",""l"",""k"",""k"",""v"",""v""]","[1.1203999999985115,1.210199999995524,1.840299999997029,1.9261999999955322,2.2661999999955356,2.412199999995522,2.6807999999970207]",1,HLKKVV,12,0,12,0,1,,,,,,,,,,,,,,,,,,,,,,,,,,,,,,,,,,,,,,,,,,,,,,,,,,,,,,,,,,,,,,,,,,,,,,,,,,,,,,,,,,,,,,,,,,,
,,,,,,0,0,0,0,1,X V Q F H G B L J M P D K C T S W R N Z,5de52f36a91be34a4ea35c71,27,Mężczyzna,2022-06-11_09h20.40.442,task,2021.1.4,Win32,143.020595,6299f149e92ead563fba08ef,62a441e9763199a518959d05,,,,,,,,,,,,,,,,,,,,,,,,,,,,,,,,,,,,,,,,,,,,,,,,,,,,,,,,,,,,,,,,,,,,,,,,,,,,,,,,,,,,,,,,,,,,,,,,,,,,,
,,,,,,1,0,1,0,1,X V Q F H G B L J M P D K C T S W R N Z,5de52f36a91be34a4ea35c71,27,Mężczyzna,2022-06-11_09h20.40.442,task,2021.1.4,Win32,143.020595,6299f149e92ead563fba08ef,62a441e9763199a518959d05,,,,,,,,,,,,,,,,,,,,,,,,,,,,,,,,,,,,,,,,,,,,,,,,,,,,,,,,,,,,,,,,,,,,,,,,,,,,,,,,,,,,,,,,,,,,,,,,,,,,,
,,,,,,2,0,2,0,1,X V Q F H G B L J M P D K C T S W R N Z,5de52f36a91be34a4ea35c71,27,Mężczyzna,2022-06-11_09h20.40.442,task,2021.1.4,Win32,143.020595,6299f149e92ead563fba08ef,62a441e9763199a518959d05,,,,,,,,,,,,,,,,,,,,,,,,,,,,,,,,,,,,,,,,,,,,,,,,,,,,,,,,,,,,,,,,,,,,,,,,,,,,,,,,,,,,,,,,,,,,,,,,,,,,,
,,,,,,3,0,3,0,1,X V Q F H G B L J M P D K C T S W R N Z,5de52f36a91be34a4ea35c71,27,Mężczyzna,2022-06-11_09h20.40.442,task,2021.1.4,Win32,143.020595,6299f149e92ead563fba08ef,62a441e9763199a518959d05,,,,,,,,,,,,,,,,,,,,,,,,,,,,,,,,,,,,,,,,,,,,,,,,,,,,,,,,,,,,,,,,,,,,,,,,,,,,,,,,,,,,,,,,,,,,,,,,,,,,,
,,,,,,4,0,4,0,1,X V Q F H G B L J M P D K C T S W R N Z,5de52f36a91be34a4ea35c71,27,Mężczyzna,2022-06-11_09h20.40.442,task,2021.1.4,Win32,143.020595,6299f149e92ead563fba08ef,62a441e9763199a518959d05,,,,,,,,,,,,,,,,,,,,,,,,,,,,,,,,,,,,,,,,,,,,,,,,,,,,,,,,,,,,,,,,,,,,,,,,,,,,,,,,,,,,,,,,,,,,,,,,,,,,,
,,,,,,5,0,5,0,1,X V Q F H G B L J M P D K C T S W R N Z,5de52f36a91be34a4ea35c71,27,Mężczyzna,2022-06-11_09h20.40.442,task,2021.1.4,Win32,143.020595,6299f149e92ead563fba08ef,62a441e9763199a518959d05,,,,,,,,,,,,,,,,,,,,,,,,,,,,,,,,,,,,,,,,,,,,,,,,,,,,,,,,,,,,,,,,,,,,,,,,,,,,,,,,,,,,,,,,,,,,,,,,,,,,,
,,,,,,,,,,,,5de52f36a91be34a4ea35c71,27,Mężczyzna,2022-06-11_09h20.40.442,task,2021.1.4,Win32,143.020595,6299f149e92ead563fba08ef,62a441e9763199a518959d05,sktzdb,"[""s"",""k"",""t"",""z"",""d"",""b""]","[1.002399999998488,1.6461999999955026,2.0661999999955185,2.4795999999940364,4.070599999994016,4.258199999995526,5.153099999994026]",1,SKTZDB,13,0,13,0,1,,,,,,,,,,,,,,,,,,,,,,,,,,,,,,,,,,,,,,,,,,,,,,,,,,,,,,,,,,,,,,,,,,,,,,,,,,,,,,,,,,,,,,,,,,,
,,,,,,0,0,0,0,1,X V Q F H G B L J M P D K C T S W R N Z,5de52f36a91be34a4ea35c71,27,Mężczyzna,2022-06-11_09h20.40.442,task,2021.1.4,Win32,143.020595,6299f149e92ead563fba08ef,62a441e9763199a518959d05,,,,,,,,,,,,,,,,,,,,,,,,,,,,,,,,,,,,,,,,,,,,,,,,,,,,,,,,,,,,,,,,,,,,,,,,,,,,,,,,,,,,,,,,,,,,,,,,,,,,,
,,,,,,1,0,1,0,1,X V Q F H G B L J M P D K C T S W R N Z,5de52f36a91be34a4ea35c71,27,Mężczyzna,2022-06-11_09h20.40.442,task,2021.1.4,Win32,143.020595,6299f149e92ead563fba08ef,62a441e9763199a518959d05,,,,,,,,,,,,,,,,,,,,,,,,,,,,,,,,,,,,,,,,,,,,,,,,,,,,,,,,,,,,,,,,,,,,,,,,,,,,,,,,,,,,,,,,,,,,,,,,,,,,,
,,,,,,2,0,2,0,1,X V Q F H G B L J M P D K C T S W R N Z,5de52f36a91be34a4ea35c71,27,Mężczyzna,2022-06-11_09h20.40.442,task,2021.1.4,Win32,143.020595,6299f149e92ead563fba08ef,62a441e9763199a518959d05,,,,,,,,,,,,,,,,,,,,,,,,,,,,,,,,,,,,,,,,,,,,,,,,,,,,,,,,,,,,,,,,,,,,,,,,,,,,,,,,,,,,,,,,,,,,,,,,,,,,,
,,,,,,3,0,3,0,1,X V Q F H G B L J M P D K C T S W R N Z,5de52f36a91be34a4ea35c71,27,Mężczyzna,2022-06-11_09h20.40.442,task,2021.1.4,Win32,143.020595,6299f149e92ead563fba08ef,62a441e9763199a518959d05,,,,,,,,,,,,,,,,,,,,,,,,,,,,,,,,,,,,,,,,,,,,,,,,,,,,,,,,,,,,,,,,,,,,,,,,,,,,,,,,,,,,,,,,,,,,,,,,,,,,,
,,,,,,4,0,4,0,1,X V Q F H G B L J M P D K C T S W R N Z,5de52f36a91be34a4ea35c71,27,Mężczyzna,2022-06-11_09h20.40.442,task,2021.1.4,Win32,143.020595,6299f149e92ead563fba08ef,62a441e9763199a518959d05,,,,,,,,,,,,,,,,,,,,,,,,,,,,,,,,,,,,,,,,,,,,,,,,,,,,,,,,,,,,,,,,,,,,,,,,,,,,,,,,,,,,,,,,,,,,,,,,,,,,,
,,,,,,5,0,5,0,1,X V Q F H G B L J M P D K C T S W R N Z,5de52f36a91be34a4ea35c71,27,Mężczyzna,2022-06-11_09h20.40.442,task,2021.1.4,Win32,143.020595,6299f149e92ead563fba08ef,62a441e9763199a518959d05,,,,,,,,,,,,,,,,,,,,,,,,,,,,,,,,,,,,,,,,,,,,,,,,,,,,,,,,,,,,,,,,,,,,,,,,,,,,,,,,,,,,,,,,,,,,,,,,,,,,,
,,,,,,6,0,6,0,1,X V Q F H G B L J M P D K C T S W R N Z,5de52f36a91be34a4ea35c71,27,Mężczyzna,2022-06-11_09h20.40.442,task,2021.1.4,Win32,143.020595,6299f149e92ead563fba08ef,62a441e9763199a518959d05,,,,,,,,,,,,,,,,,,,,,,,,,,,,,,,,,,,,,,,,,,,,,,,,,,,,,,,,,,,,,,,,,,,,,,,,,,,,,,,,,,,,,,,,,,,,,,,,,,,,,
,,,,,,,,,,,,5de52f36a91be34a4ea35c71,27,Mężczyzna,2022-06-11_09h20.40.442,task,2021.1.4,Win32,143.020595,6299f149e92ead563fba08ef,62a441e9763199a518959d05,rtfrqrc,"[""r"",""t"",""f"",""r"",""q"",""r"",""c""]","[0.7227999999970223,0.8408999999984985,2.2572999999970307,3.062999999999988,3.4253999999985183,3.9413999999985094,4.194899999998512,4.368500000000012]",1,RTFRQRC,14,0,14,0,1,,,,,,,,,,,,,,,,,,,,,,,,,,,,,,,,,,,,,,,,,,,,,,,,,,,,,,,,,,,,,,,,,,,,,,,,,,,,,,,,,,,,,,,,,,,
,,,,,,0,0,0,0,1,X V Q F H G B L J M P D K C T S W R N Z,5de52f36a91be34a4ea35c71,27,Mężczyzna,2022-06-11_09h20.40.442,task,2021.1.4,Win32,143.020595,6299f149e92ead563fba08ef,62a441e9763199a518959d05,,,,,,,,,,,,,,,,,,,,,,,,,,,,,,,,,,,,,,,,,,,,,,,,,,,,,,,,,,,,,,,,,,,,,,,,,,,,,,,,,,,,,,,,,,,,,,,,,,,,,
,,,,,,1,0,1,0,1,X V Q F H G B L J M P D K C T S W R N Z,5de52f36a91be34a4ea35c71,27,Mężczyzna,2022-06-11_09h20.40.442,task,2021.1.4,Win32,143.020595,6299f149e92ead563fba08ef,62a441e9763199a518959d05,,,,,,,,,,,,,,,,,,,,,,,,,,,,,,,,,,,,,,,,,,,,,,,,,,,,,,,,,,,,,,,,,,,,,,,,,,,,,,,,,,,,,,,,,,,,,,,,,,,,,
,,,,,,2,0,2,0,1,X V Q F H G B L J M P D K C T S W R N Z,5de52f36a91be34a4ea35c71,27,Mężczyzna,2022-06-11_09h20.40.442,task,2021.1.4,Win32,143.020595,6299f149e92ead563fba08ef,62a441e9763199a518959d05,,,,,,,,,,,,,,,,,,,,,,,,,,,,,,,,,,,,,,,,,,,,,,,,,,,,,,,,,,,,,,,,,,,,,,,,,,,,,,,,,,,,,,,,,,,,,,,,,,,,,
,,,,,,3,0,3,0,1,X V Q F H G B L J M P D K C T S W R N Z,5de52f36a91be34a4ea35c71,27,Mężczyzna,2022-06-11_09h20.40.442,task,2021.1.4,Win32,143.020595,6299f149e92ead563fba08ef,62a441e9763199a518959d05,,,,,,,,,,,,,,,,,,,,,,,,,,,,,,,,,,,,,,,,,,,,,,,,,,,,,,,,,,,,,,,,,,,,,,,,,,,,,,,,,,,,,,,,,,,,,,,,,,,,,
,,,,,,4,0,4,0,1,X V Q F H G B L J M P D K C T S W R N Z,5de52f36a91be34a4ea35c71,27,Mężczyzna,2022-06-11_09h20.40.442,task,2021.1.4,Win32,143.020595,6299f149e92ead563fba08ef,62a441e9763199a518959d05,,,,,,,,,,,,,,,,,,,,,,,,,,,,,,,,,,,,,,,,,,,,,,,,,,,,,,,,,,,,,,,,,,,,,,,,,,,,,,,,,,,,,,,,,,,,,,,,,,,,,
,,,,,,5,0,5,0,1,X V Q F H G B L J M P D K C T S W R N Z,5de52f36a91be34a4ea35c71,27,Mężczyzna,2022-06-11_09h20.40.442,task,2021.1.4,Win32,143.020595,6299f149e92ead563fba08ef,62a441e9763199a518959d05,,,,,,,,,,,,,,,,,,,,,,,,,,,,,,,,,,,,,,,,,,,,,,,,,,,,,,,,,,,,,,,,,,,,,,,,,,,,,,,,,,,,,,,,,,,,,,,,,,,,,
,,,,,,6,0,6,0,1,X V Q F H G B L J M P D K C T S W R N Z,5de52f36a91be34a4ea35c71,27,Mężczyzna,2022-06-11_09h20.40.442,task,2021.1.4,Win32,143.020595,6299f149e92ead563fba08ef,62a441e9763199a518959d05,,,,,,,,,,,,,,,,,,,,,,,,,,,,,,,,,,,,,,,,,,,,,,,,,,,,,,,,,,,,,,,,,,,,,,,,,,,,,,,,,,,,,,,,,,,,,,,,,,,,,
,,,,,,,,,,,,5de52f36a91be34a4ea35c71,27,Mężczyzna,2022-06-11_09h20.40.442,task,2021.1.4,Win32,143.020595,6299f149e92ead563fba08ef,62a441e9763199a518959d05,nlbvgns,"[""n"",""l"",""b"",""v"",""g"",""n"",""s""]","[0.29210000000148284,0.3477000000029875,0.5072999999970023,1.0072999999970023,1.5790000000000077,1.9657000000029825,2.092799999997027,2.3407000000029825]",1,NLBVGNS,15,0,15,0,1,,,,,,,,,,,,,,,,,,,,,,,,,,,,,,,,,,,,,,,,,,,,,,,,,,,,,,,,,,,,,,,,,,,,,,,,,,,,,,,,,,,,,,,,,,,
,,,,,,0,0,0,0,1,X V Q F H G B L J M P D K C T S W R N Z,5de52f36a91be34a4ea35c71,27,Mężczyzna,2022-06-11_09h20.40.442,task,2021.1.4,Win32,143.020595,6299f149e92ead563fba08ef,62a441e9763199a518959d05,,,,,,,,,,,,,,,,,,,,,,,,,,,,,,,,,,,,,,,,,,,,,,,,,,,,,,,,,,,,,,,,,,,,,,,,,,,,,,,,,,,,,,,,,,,,,,,,,,,,,
,,,,,,1,0,1,0,1,X V Q F H G B L J M P D K C T S W R N Z,5de52f36a91be34a4ea35c71,27,Mężczyzna,2022-06-11_09h20.40.442,task,2021.1.4,Win32,143.020595,6299f149e92ead563fba08ef,62a441e9763199a518959d05,,,,,,,,,,,,,,,,,,,,,,,,,,,,,,,,,,,,,,,,,,,,,,,,,,,,,,,,,,,,,,,,,,,,,,,,,,,,,,,,,,,,,,,,,,,,,,,,,,,,,
,,,,,,2,0,2,0,1,X V Q F H G B L J M P D K C T S W R N Z,5de52f36a91be34a4ea35c71,27,Mężczyzna,2022-06-11_09h20.40.442,task,2021.1.4,Win32,143.020595,6299f149e92ead563fba08ef,62a441e9763199a518959d05,,,,,,,,,,,,,,,,,,,,,,,,,,,,,,,,,,,,,,,,,,,,,,,,,,,,,,,,,,,,,,,,,,,,,,,,,,,,,,,,,,,,,,,,,,,,,,,,,,,,,
,,,,,,3,0,3,0,1,X V Q F H G B L J M P D K C T S W R N Z,5de52f36a91be34a4ea35c71,27,Mężczyzna,2022-06-11_09h20.40.442,task,2021.1.4,Win32,143.020595,6299f149e92ead563fba08ef,62a441e9763199a518959d05,,,,,,,,,,,,,,,,,,,,,,,,,,,,,,,,,,,,,,,,,,,,,,,,,,,,,,,,,,,,,,,,,,,,,,,,,,,,,,,,,,,,,,,,,,,,,,,,,,,,,
,,,,,,4,0,4,0,1,X V Q F H G B L J M P D K C T S W R N Z,5de52f36a91be34a4ea35c71,27,Mężczyzna,2022-06-11_09h20.40.442,task,2021.1.4,Win32,143.020595,6299f149e92ead563fba08ef,62a441e9763199a518959d05,,,,,,,,,,,,,,,,,,,,,,,,,,,,,,,,,,,,,,,,,,,,,,,,,,,,,,,,,,,,,,,,,,,,,,,,,,,,,,,,,,,,,,,,,,,,,,,,,,,,,
,,,,,,5,0,5,0,1,X V Q F H G B L J M P D K C T S W R N Z,5de52f36a91be34a4ea35c71,27,Mężczyzna,2022-06-11_09h20.40.442,task,2021.1.4,Win32,143.020595,6299f149e92ead563fba08ef,62a441e9763199a518959d05,,,,,,,,,,,,,,,,,,,,,,,,,,,,,,,,,,,,,,,,,,,,,,,,,,,,,,,,,,,,,,,,,,,,,,,,,,,,,,,,,,,,,,,,,,,,,,,,,,,,,
,,,,,,6,0,6,0,1,X V Q F H G B L J M P D K C T S W R N Z,5de52f36a91be34a4ea35c71,27,Mężczyzna,2022-06-11_09h20.40.442,task,2021.1.4,Win32,143.020595,6299f149e92ead563fba08ef,62a441e9763199a518959d05,,,,,,,,,,,,,,,,,,,,,,,,,,,,,,,,,,,,,,,,,,,,,,,,,,,,,,,,,,,,,,,,,,,,,,,,,,,,,,,,,,,,,,,,,,,,,,,,,,,,,
,,,,,,7,0,7,0,1,X V Q F H G B L J M P D K C T S W R N Z,5de52f36a91be34a4ea35c71,27,Mężczyzna,2022-06-11_09h20.40.442,task,2021.1.4,Win32,143.020595,6299f149e92ead563fba08ef,62a441e9763199a518959d05,,,,,,,,,,,,,,,,,,,,,,,,,,,,,,,,,,,,,,,,,,,,,,,,,,,,,,,,,,,,,,,,,,,,,,,,,,,,,,,,,,,,,,,,,,,,,,,,,,,,,
,,,,,,,,,,,,5de52f36a91be34a4ea35c71,27,Mężczyzna,2022-06-11_09h20.40.442,task,2021.1.4,Win32,143.020595,6299f149e92ead563fba08ef,62a441e9763199a518959d05,xqclstqm,"[""x"",""q"",""c"",""l"",""s"",""t"",""q"",""m""]","[1.208699999995531,1.2920000000000016,1.5777999999970405,2.6670000000000016,2.9517999999970357,3.342199999995529,3.6757999999970252,3.9170000000000016,5.35629999999702]",1,XQCLSTQM,16,0,16,0,1,,,,,,,,,,,,,,,,,,,,,,,,,,,,,,,,,,,,,,,,,,,,,,,,,,,,,,,,,,,,,,,,,,,,,,,,,,,,,,,,,,,,,,,,,,,
,,,,,,0,0,0,0,1,X V Q F H G B L J M P D K C T S W R N Z,5de52f36a91be34a4ea35c71,27,Mężczyzna,2022-06-11_09h20.40.442,task,2021.1.4,Win32,143.020595,6299f149e92ead563fba08ef,62a441e9763199a518959d05,,,,,,,,,,,,,,,,,,,,,,,,,,,,,,,,,,,,,,,,,,,,,,,,,,,,,,,,,,,,,,,,,,,,,,,,,,,,,,,,,,,,,,,,,,,,,,,,,,,,,
,,,,,,1,0,1,0,1,X V Q F H G B L J M P D K C T S W R N Z,5de52f36a91be34a4ea35c71,27,Mężczyzna,2022-06-11_09h20.40.442,task,2021.1.4,Win32,143.020595,6299f149e92ead563fba08ef,62a441e9763199a518959d05,,,,,,,,,,,,,,,,,,,,,,,,,,,,,,,,,,,,,,,,,,,,,,,,,,,,,,,,,,,,,,,,,,,,,,,,,,,,,,,,,,,,,,,,,,,,,,,,,,,,,
,,,,,,2,0,2,0,1,X V Q F H G B L J M P D K C T S W R N Z,5de52f36a91be34a4ea35c71,27,Mężczyzna,2022-06-11_09h20.40.442,task,2021.1.4,Win32,143.020595,6299f149e92ead563fba08ef,62a441e9763199a518959d05,,,,,,,,,,,,,,,,,,,,,,,,,,,,,,,,,,,,,,,,,,,,,,,,,,,,,,,,,,,,,,,,,,,,,,,,,,,,,,,,,,,,,,,,,,,,,,,,,,,,,
,,,,,,3,0,3,0,1,X V Q F H G B L J M P D K C T S W R N Z,5de52f36a91be34a4ea35c71,27,Mężczyzna,2022-06-11_09h20.40.442,task,2021.1.4,Win32,143.020595,6299f149e92ead563fba08ef,62a441e9763199a518959d05,,,,,,,,,,,,,,,,,,,,,,,,,,,,,,,,,,,,,,,,,,,,,,,,,,,,,,,,,,,,,,,,,,,,,,,,,,,,,,,,,,,,,,,,,,,,,,,,,,,,,
,,,,,,4,0,4,0,1,X V Q F H G B L J M P D K C T S W R N Z,5de52f36a91be34a4ea35c71,27,Mężczyzna,2022-06-11_09h20.40.442,task,2021.1.4,Win32,143.020595,6299f149e92ead563fba08ef,62a441e9763199a518959d05,,,,,,,,,,,,,,,,,,,,,,,,,,,,,,,,,,,,,,,,,,,,,,,,,,,,,,,,,,,,,,,,,,,,,,,,,,,,,,,,,,,,,,,,,,,,,,,,,,,,,
,,,,,,5,0,5,0,1,X V Q F H G B L J M P D K C T S W R N Z,5de52f36a91be34a4ea35c71,27,Mężczyzna,2022-06-11_09h20.40.442,task,2021.1.4,Win32,143.020595,6299f149e92ead563fba08ef,62a441e9763199a518959d05,,,,,,,,,,,,,,,,,,,,,,,,,,,,,,,,,,,,,,,,,,,,,,,,,,,,,,,,,,,,,,,,,,,,,,,,,,,,,,,,,,,,,,,,,,,,,,,,,,,,,
,,,,,,6,0,6,0,1,X V Q F H G B L J M P D K C T S W R N Z,5de52f36a91be34a4ea35c71,27,Mężczyzna,2022-06-11_09h20.40.442,task,2021.1.4,Win32,143.020595,6299f149e92ead563fba08ef,62a441e9763199a518959d05,,,,,,,,,,,,,,,,,,,,,,,,,,,,,,,,,,,,,,,,,,,,,,,,,,,,,,,,,,,,,,,,,,,,,,,,,,,,,,,,,,,,,,,,,,,,,,,,,,,,,
,,,,,,7,0,7,0,1,X V Q F H G B L J M P D K C T S W R N Z,5de52f36a91be34a4ea35c71,27,Mężczyzna,2022-06-11_09h20.40.442,task,2021.1.4,Win32,143.020595,6299f149e92ead563fba08ef,62a441e9763199a518959d05,,,,,,,,,,,,,,,,,,,,,,,,,,,,,,,,,,,,,,,,,,,,,,,,,,,,,,,,,,,,,,,,,,,,,,,,,,,,,,,,,,,,,,,,,,,,,,,,,,,,,
,,,,,,,,,,,,5de52f36a91be34a4ea35c71,27,Mężczyzna,2022-06-11_09h20.40.442,task,2021.1.4,Win32,143.020595,6299f149e92ead563fba08ef,62a441e9763199a518959d05,flmlmpdw,"[""f"",""l"",""m"",""l"",""m"",""p"",""d"",""w""]","[1.1530999999940548,1.271199999995531,1.3206999999955542,2.5948999999985176,3.0005000000000166,3.722500000000025,4.378699999995547,4.833699999995531,5.24339999999853]",0,FMLMPDWJ,17,0,17,0,1,,,,,,,,,,,,,,,,,,,,,,,,,,,,,,,,,,,,,,,,,,,,,,,,,,,,,,,,,,,,,,,,,,,,,,,,,,,,,,,,,,,,,,,,,,,
,,,,,,0,0,0,0,1,X V Q F H G B L J M P D K C T S W R N Z,5de52f36a91be34a4ea35c71,27,Mężczyzna,2022-06-11_09h20.40.442,task,2021.1.4,Win32,143.020595,6299f149e92ead563fba08ef,62a441e9763199a518959d05,,,,,,,,,,,,,,,,,,,,,,,,,,,,,,,,,,,,,,,,,,,,,,,,,,,,,,,,,,,,,,,,,,,,,,,,,,,,,,,,,,,,,,,,,,,,,,,,,,,,,
,,,,,,1,0,1,0,1,X V Q F H G B L J M P D K C T S W R N Z,5de52f36a91be34a4ea35c71,27,Mężczyzna,2022-06-11_09h20.40.442,task,2021.1.4,Win32,143.020595,6299f149e92ead563fba08ef,62a441e9763199a518959d05,,,,,,,,,,,,,,,,,,,,,,,,,,,,,,,,,,,,,,,,,,,,,,,,,,,,,,,,,,,,,,,,,,,,,,,,,,,,,,,,,,,,,,,,,,,,,,,,,,,,,
,,,,,,2,0,2,0,1,X V Q F H G B L J M P D K C T S W R N Z,5de52f36a91be34a4ea35c71,27,Mężczyzna,2022-06-11_09h20.40.442,task,2021.1.4,Win32,143.020595,6299f149e92ead563fba08ef,62a441e9763199a518959d05,,,,,,,,,,,,,,,,,,,,,,,,,,,,,,,,,,,,,,,,,,,,,,,,,,,,,,,,,,,,,,,,,,,,,,,,,,,,,,,,,,,,,,,,,,,,,,,,,,,,,
,,,,,,3,0,3,0,1,X V Q F H G B L J M P D K C T S W R N Z,5de52f36a91be34a4ea35c71,27,Mężczyzna,2022-06-11_09h20.40.442,task,2021.1.4,Win32,143.020595,6299f149e92ead563fba08ef,62a441e9763199a518959d05,,,,,,,,,,,,,,,,,,,,,,,,,,,,,,,,,,,,,,,,,,,,,,,,,,,,,,,,,,,,,,,,,,,,,,,,,,,,,,,,,,,,,,,,,,,,,,,,,,,,,
,,,,,,4,0,4,0,1,X V Q F H G B L J M P D K C T S W R N Z,5de52f36a91be34a4ea35c71,27,Mężczyzna,2022-06-11_09h20.40.442,task,2021.1.4,Win32,143.020595,6299f149e92ead563fba08ef,62a441e9763199a518959d05,,,,,,,,,,,,,,,,,,,,,,,,,,,,,,,,,,,,,,,,,,,,,,,,,,,,,,,,,,,,,,,,,,,,,,,,,,,,,,,,,,,,,,,,,,,,,,,,,,,,,
,,,,,,5,0,5,0,1,X V Q F H G B L J M P D K C T S W R N Z,5de52f36a91be34a4ea35c71,27,Mężczyzna,2022-06-11_09h20.40.442,task,2021.1.4,Win32,143.020595,6299f149e92ead563fba08ef,62a441e9763199a518959d05,,,,,,,,,,,,,,,,,,,,,,,,,,,,,,,,,,,,,,,,,,,,,,,,,,,,,,,,,,,,,,,,,,,,,,,,,,,,,,,,,,,,,,,,,,,,,,,,,,,,,
,,,,,,6,0,6,0,1,X V Q F H G B L J M P D K C T S W R N Z,5de52f36a91be34a4ea35c71,27,Mężczyzna,2022-06-11_09h20.40.442,task,2021.1.4,Win32,143.020595,6299f149e92ead563fba08ef,62a441e9763199a518959d05,,,,,,,,,,,,,,,,,,,,,,,,,,,,,,,,,,,,,,,,,,,,,,,,,,,,,,,,,,,,,,,,,,,,,,,,,,,,,,,,,,,,,,,,,,,,,,,,,,,,,
,,,,,,7,0,7,0,1,X V Q F H G B L J M P D K C T S W R N Z,5de52f36a91be34a4ea35c71,27,Mężczyzna,2022-06-11_09h20.40.442,task,2021.1.4,Win32,143.020595,6299f149e92ead563fba08ef,62a441e9763199a518959d05,,,,,,,,,,,,,,,,,,,,,,,,,,,,,,,,,,,,,,,,,,,,,,,,,,,,,,,,,,,,,,,,,,,,,,,,,,,,,,,,,,,,,,,,,,,,,,,,,,,,,
,,,,,,,,,,,,5de52f36a91be34a4ea35c71,27,Mężczyzna,2022-06-11_09h20.40.442,task,2021.1.4,Win32,143.020595,6299f149e92ead563fba08ef,62a441e9763199a518959d05,hpwredjv,"[""h"",""p"",""w"",""r"",""e"",""d"",""j"",""v""]","[0.7646999999955142,0.9657999999970173,1.0559999999999832,1.9726999999955126,4.062999999999988,5.312899999998507,5.722600000001478,6.050600000001481,6.1548999999984915]",0,HPWDRJTV,18,0,18,0,1,,,,,,,,,,,,,,,,,,,,,,,,,,,,,,,,,,,,,,,,,,,,,,,,,,,,,,,,,,,,,,,,,,,,,,,,,,,,,,,,,,,,,,,,,,,
,,,,,,0,0,0,0,1,X V Q F H G B L J M P D K C T S W R N Z,5de52f36a91be34a4ea35c71,27,Mężczyzna,2022-06-11_09h20.40.442,task,2021.1.4,Win32,143.020595,6299f149e92ead563fba08ef,62a441e9763199a518959d05,,,,,,,,,,,,,,,,,,,,,,,,,,,,,,,,,,,,,,,,,,,,,,,,,,,,,,,,,,,,,,,,,,,,,,,,,,,,,,,,,,,,,,,,,,,,,,,,,,,,,
,,,,,,1,0,1,0,1,X V Q F H G B L J M P D K C T S W R N Z,5de52f36a91be34a4ea35c71,27,Mężczyzna,2022-06-11_09h20.40.442,task,2021.1.4,Win32,143.020595,6299f149e92ead563fba08ef,62a441e9763199a518959d05,,,,,,,,,,,,,,,,,,,,,,,,,,,,,,,,,,,,,,,,,,,,,,,,,,,,,,,,,,,,,,,,,,,,,,,,,,,,,,,,,,,,,,,,,,,,,,,,,,,,,
,,,,,,2,0,2,0,1,X V Q F H G B L J M P D K C T S W R N Z,5de52f36a91be34a4ea35c71,27,Mężczyzna,2022-06-11_09h20.40.442,task,2021.1.4,Win32,143.020595,6299f149e92ead563fba08ef,62a441e9763199a518959d05,,,,,,,,,,,,,,,,,,,,,,,,,,,,,,,,,,,,,,,,,,,,,,,,,,,,,,,,,,,,,,,,,,,,,,,,,,,,,,,,,,,,,,,,,,,,,,,,,,,,,
,,,,,,3,0,3,0,1,X V Q F H G B L J M P D K C T S W R N Z,5de52f36a91be34a4ea35c71,27,Mężczyzna,2022-06-11_09h20.40.442,task,2021.1.4,Win32,143.020595,6299f149e92ead563fba08ef,62a441e9763199a518959d05,,,,,,,,,,,,,,,,,,,,,,,,,,,,,,,,,,,,,,,,,,,,,,,,,,,,,,,,,,,,,,,,,,,,,,,,,,,,,,,,,,,,,,,,,,,,,,,,,,,,,
,,,,,,4,0,4,0,1,X V Q F H G B L J M P D K C T S W R N Z,5de52f36a91be34a4ea35c71,27,Mężczyzna,2022-06-11_09h20.40.442,task,2021.1.4,Win32,143.020595,6299f149e92ead563fba08ef,62a441e9763199a518959d05,,,,,,,,,,,,,,,,,,,,,,,,,,,,,,,,,,,,,,,,,,,,,,,,,,,,,,,,,,,,,,,,,,,,,,,,,,,,,,,,,,,,,,,,,,,,,,,,,,,,,
,,,,,,5,0,5,0,1,X V Q F H G B L J M P D K C T S W R N Z,5de52f36a91be34a4ea35c71,27,Mężczyzna,2022-06-11_09h20.40.442,task,2021.1.4,Win32,143.020595,6299f149e92ead563fba08ef,62a441e9763199a518959d05,,,,,,,,,,,,,,,,,,,,,,,,,,,,,,,,,,,,,,,,,,,,,,,,,,,,,,,,,,,,,,,,,,,,,,,,,,,,,,,,,,,,,,,,,,,,,,,,,,,,,
,,,,,,6,0,6,0,1,X V Q F H G B L J M P D K C T S W R N Z,5de52f36a91be34a4ea35c71,27,Mężczyzna,2022-06-11_09h20.40.442,task,2021.1.4,Win32,143.020595,6299f149e92ead563fba08ef,62a441e9763199a518959d05,,,,,,,,,,,,,,,,,,,,,,,,,,,,,,,,,,,,,,,,,,,,,,,,,,,,,,,,,,,,,,,,,,,,,,,,,,,,,,,,,,,,,,,,,,,,,,,,,,,,,
,,,,,,7,0,7,0,1,X V Q F H G B L J M P D K C T S W R N Z,5de52f36a91be34a4ea35c71,27,Mężczyzna,2022-06-11_09h20.40.442,task,2021.1.4,Win32,143.020595,6299f149e92ead563fba08ef,62a441e9763199a518959d05,,,,,,,,,,,,,,,,,,,,,,,,,,,,,,,,,,,,,,,,,,,,,,,,,,,,,,,,,,,,,,,,,,,,,,,,,,,,,,,,,,,,,,,,,,,,,,,,,,,,,
,,,,,,,,,,,,5de52f36a91be34a4ea35c71,27,Mężczyzna,2022-06-11_09h20.40.442,task,2021.1.4,Win32,143.020595,6299f149e92ead563fba08ef,62a441e9763199a518959d05,bhxqhccb,"[""b"",""h"",""x"",""q"",""h"",""c"",""c"",""b""]","[1.0420999999940364,1.1630999999940457,1.285199999995541,2.2015999999940448,2.7642999999970357,3.1392999999970357,3.278199999995536,3.74719999999553,4.410299999997022]",1,BHXQHCCB,19,0,19,0,1,,,,,,,,,,,,,,,,,,,,,,,,,,,,,,,,,,,,,,,,,,,,,,,,,,,,,,,,,,,,,,,,,,,,,,,,,,,,,,,,,,,,,,,,,,,
,,,,,,0,0,0,0,1,X V Q F H G B L J M P D K C T S W R N Z,5de52f36a91be34a4ea35c71,27,Mężczyzna,2022-06-11_09h20.40.442,task,2021.1.4,Win32,143.020595,6299f149e92ead563fba08ef,62a441e9763199a518959d05,,,,,,,,,,,,,,,,,,,,,,,,,,,,,,,,,,,,,,,,,,,,,,,,,,,,,,,,,,,,,,,,,,,,,,,,,,,,,,,,,,,,,,,,,,,,,,,,,,,,,
,,,,,,1,0,1,0,1,X V Q F H G B L J M P D K C T S W R N Z,5de52f36a91be34a4ea35c71,27,Mężczyzna,2022-06-11_09h20.40.442,task,2021.1.4,Win32,143.020595,6299f149e92ead563fba08ef,62a441e9763199a518959d05,,,,,,,,,,,,,,,,,,,,,,,,,,,,,,,,,,,,,,,,,,,,,,,,,,,,,,,,,,,,,,,,,,,,,,,,,,,,,,,,,,,,,,,,,,,,,,,,,,,,,
,,,,,,2,0,2,0,1,X V Q F H G B L J M P D K C T S W R N Z,5de52f36a91be34a4ea35c71,27,Mężczyzna,2022-06-11_09h20.40.442,task,2021.1.4,Win32,143.020595,6299f149e92ead563fba08ef,62a441e9763199a518959d05,,,,,,,,,,,,,,,,,,,,,,,,,,,,,,,,,,,,,,,,,,,,,,,,,,,,,,,,,,,,,,,,,,,,,,,,,,,,,,,,,,,,,,,,,,,,,,,,,,,,,
,,,,,,3,0,3,0,1,X V Q F H G B L J M P D K C T S W R N Z,5de52f36a91be34a4ea35c71,27,Mężczyzna,2022-06-11_09h20.40.442,task,2021.1.4,Win32,143.020595,6299f149e92ead563fba08ef,62a441e9763199a518959d05,,,,,,,,,,,,,,,,,,,,,,,,,,,,,,,,,,,,,,,,,,,,,,,,,,,,,,,,,,,,,,,,,,,,,,,,,,,,,,,,,,,,,,,,,,,,,,,,,,,,,
,,,,,,4,0,4,0,1,X V Q F H G B L J M P D K C T S W R N Z,5de52f36a91be34a4ea35c71,27,Mężczyzna,2022-06-11_09h20.40.442,task,2021.1.4,Win32,143.020595,6299f149e92ead563fba08ef,62a441e9763199a518959d05,,,,,,,,,,,,,,,,,,,,,,,,,,,,,,,,,,,,,,,,,,,,,,,,,,,,,,,,,,,,,,,,,,,,,,,,,,,,,,,,,,,,,,,,,,,,,,,,,,,,,
,,,,,,5,0,5,0,1,X V Q F H G B L J M P D K C T S W R N Z,5de52f36a91be34a4ea35c71,27,Mężczyzna,2022-06-11_09h20.40.442,task,2021.1.4,Win32,143.020595,6299f149e92ead563fba08ef,62a441e9763199a518959d05,,,,,,,,,,,,,,,,,,,,,,,,,,,,,,,,,,,,,,,,,,,,,,,,,,,,,,,,,,,,,,,,,,,,,,,,,,,,,,,,,,,,,,,,,,,,,,,,,,,,,
,,,,,,6,0,6,0,1,X V Q F H G B L J M P D K C T S W R N Z,5de52f36a91be34a4ea35c71,27,Mężczyzna,2022-06-11_09h20.40.442,task,2021.1.4,Win32,143.020595,6299f149e92ead563fba08ef,62a441e9763199a518959d05,,,,,,,,,,,,,,,,,,,,,,,,,,,,,,,,,,,,,,,,,,,,,,,,,,,,,,,,,,,,,,,,,,,,,,,,,,,,,,,,,,,,,,,,,,,,,,,,,,,,,
,,,,,,7,0,7,0,1,X V Q F H G B L J M P D K C T S W R N Z,5de52f36a91be34a4ea35c71,27,Mężczyzna,2022-06-11_09h20.40.442,task,2021.1.4,Win32,143.020595,6299f149e92ead563fba08ef,62a441e9763199a518959d05,,,,,,,,,,,,,,,,,,,,,,,,,,,,,,,,,,,,,,,,,,,,,,,,,,,,,,,,,,,,,,,,,,,,,,,,,,,,,,,,,,,,,,,,,,,,,,,,,,,,,
,,,,,,8,0,8,0,1,X V Q F H G B L J M P D K C T S W R N Z,5de52f36a91be34a4ea35c71,27,Mężczyzna,2022-06-11_09h20.40.442,task,2021.1.4,Win32,143.020595,6299f149e92ead563fba08ef,62a441e9763199a518959d05,,,,,,,,,,,,,,,,,,,,,,,,,,,,,,,,,,,,,,,,,,,,,,,,,,,,,,,,,,,,,,,,,,,,,,,,,,,,,,,,,,,,,,,,,,,,,,,,,,,,,
,,,,,,,,,,,,5de52f36a91be34a4ea35c71,27,Mężczyzna,2022-06-11_09h20.40.442,task,2021.1.4,Win32,143.020595,6299f149e92ead563fba08ef,62a441e9763199a518959d05,zpwrsbdw,"[""z"",""p"",""w"",""r"",""s"",""b"",""d"",""w""]","[0.9463999999985617,1.122000000000014,1.3128000000044722,2.2460000000000377,2.4460000000000264,3.201999999999998,3.6672000000029925,4.758399999998517,4.951800000004482]",0,PZWBSLRTB,20,0,20,0,1,,,,,,,,,,,,,,,,,,,,,,,,,,,,,,,,,,,,,,,,,,,,,,,,,,,,,,,,,,,,,,,,,,,,,,,,,,,,,,,,,,,,,,,,,,,
,,,,,,0,0,0,0,1,X V Q F H G B L J M P D K C T S W R N Z,5de52f36a91be34a4ea35c71,27,Mężczyzna,2022-06-11_09h20.40.442,task,2021.1.4,Win32,143.020595,6299f149e92ead563fba08ef,62a441e9763199a518959d05,,,,,,,,,,,,,,,,,,,,,,,,,,,,,,,,,,,,,,,,,,,,,,,,,,,,,,,,,,,,,,,,,,,,,,,,,,,,,,,,,,,,,,,,,,,,,,,,,,,,,
,,,,,,1,0,1,0,1,X V Q F H G B L J M P D K C T S W R N Z,5de52f36a91be34a4ea35c71,27,Mężczyzna,2022-06-11_09h20.40.442,task,2021.1.4,Win32,143.020595,6299f149e92ead563fba08ef,62a441e9763199a518959d05,,,,,,,,,,,,,,,,,,,,,,,,,,,,,,,,,,,,,,,,,,,,,,,,,,,,,,,,,,,,,,,,,,,,,,,,,,,,,,,,,,,,,,,,,,,,,,,,,,,,,
,,,,,,2,0,2,0,1,X V Q F H G B L J M P D K C T S W R N Z,5de52f36a91be34a4ea35c71,27,Mężczyzna,2022-06-11_09h20.40.442,task,2021.1.4,Win32,143.020595,6299f149e92ead563fba08ef,62a441e9763199a518959d05,,,,,,,,,,,,,,,,,,,,,,,,,,,,,,,,,,,,,,,,,,,,,,,,,,,,,,,,,,,,,,,,,,,,,,,,,,,,,,,,,,,,,,,,,,,,,,,,,,,,,
,,,,,,3,0,3,0,1,X V Q F H G B L J M P D K C T S W R N Z,5de52f36a91be34a4ea35c71,27,Mężczyzna,2022-06-11_09h20.40.442,task,2021.1.4,Win32,143.020595,6299f149e92ead563fba08ef,62a441e9763199a518959d05,,,,,,,,,,,,,,,,,,,,,,,,,,,,,,,,,,,,,,,,,,,,,,,,,,,,,,,,,,,,,,,,,,,,,,,,,,,,,,,,,,,,,,,,,,,,,,,,,,,,,
,,,,,,4,0,4,0,1,X V Q F H G B L J M P D K C T S W R N Z,5de52f36a91be34a4ea35c71,27,Mężczyzna,2022-06-11_09h20.40.442,task,2021.1.4,Win32,143.020595,6299f149e92ead563fba08ef,62a441e9763199a518959d05,,,,,,,,,,,,,,,,,,,,,,,,,,,,,,,,,,,,,,,,,,,,,,,,,,,,,,,,,,,,,,,,,,,,,,,,,,,,,,,,,,,,,,,,,,,,,,,,,,,,,
,,,,,,5,0,5,0,1,X V Q F H G B L J M P D K C T S W R N Z,5de52f36a91be34a4ea35c71,27,Mężczyzna,2022-06-11_09h20.40.442,task,2021.1.4,Win32,143.020595,6299f149e92ead563fba08ef,62a441e9763199a518959d05,,,,,,,,,,,,,,,,,,,,,,,,,,,,,,,,,,,,,,,,,,,,,,,,,,,,,,,,,,,,,,,,,,,,,,,,,,,,,,,,,,,,,,,,,,,,,,,,,,,,,
,,,,,,6,0,6,0,1,X V Q F H G B L J M P D K C T S W R N Z,5de52f36a91be34a4ea35c71,27,Mężczyzna,2022-06-11_09h20.40.442,task,2021.1.4,Win32,143.020595,6299f149e92ead563fba08ef,62a441e9763199a518959d05,,,,,,,,,,,,,,,,,,,,,,,,,,,,,,,,,,,,,,,,,,,,,,,,,,,,,,,,,,,,,,,,,,,,,,,,,,,,,,,,,,,,,,,,,,,,,,,,,,,,,
,,,,,,7,0,7,0,1,X V Q F H G B L J M P D K C T S W R N Z,5de52f36a91be34a4ea35c71,27,Mężczyzna,2022-06-11_09h20.40.442,task,2021.1.4,Win32,143.020595,6299f149e92ead563fba08ef,62a441e9763199a518959d05,,,,,,,,,,,,,,,,,,,,,,,,,,,,,,,,,,,,,,,,,,,,,,,,,,,,,,,,,,,,,,,,,,,,,,,,,,,,,,,,,,,,,,,,,,,,,,,,,,,,,
,,,,,,8,0,8,0,1,X V Q F H G B L J M P D K C T S W R N Z,5de52f36a91be34a4ea35c71,27,Mężczyzna,2022-06-11_09h20.40.442,task,2021.1.4,Win32,143.020595,6299f149e92ead563fba08ef,62a441e9763199a518959d05,,,,,,,,,,,,,,,,,,,,,,,,,,,,,,,,,,,,,,,,,,,,,,,,,,,,,,,,,,,,,,,,,,,,,,,,,,,,,,,,,,,,,,,,,,,,,,,,,,,,,
,,,,,,,,,,,,5de52f36a91be34a4ea35c71,27,Mężczyzna,2022-06-11_09h20.40.442,task,2021.1.4,Win32,143.020595,6299f149e92ead563fba08ef,62a441e9763199a518959d05,jsbjjmpvd,"[""j"",""s"",""b"",""j"",""j"",""m"",""p"",""v"",""d""]","[0.9830000000000041,1.1116000000014878,1.7503000000044722,1.9951000000015142,2.9727000000029875,3.8570000000000277,4.666800000004457,4.85439999999852,5.750499999999988,5.868300000004467]",0,JSBJMPFVN,21,0,21,0,1,,,,,,,,,,,,,,,,,,,,,,,,,,,,,,,,,,,,,,,,,,,,,,,,,,,,,,,,,,,,,,,,,,,,,,,,,,,,,,,,,,,,,,,,,,,
,,,,,,0,0,0,0,1,X V Q F H G B L J M P D K C T S W R N Z,5de52f36a91be34a4ea35c71,27,Mężczyzna,2022-06-11_09h20.40.442,task,2021.1.4,Win32,143.020595,6299f149e92ead563fba08ef,62a441e9763199a518959d05,,,,,,,,,,,,,,,,,,,,,,,,,,,,,,,,,,,,,,,,,,,,,,,,,,,,,,,,,,,,,,,,,,,,,,,,,,,,,,,,,,,,,,,,,,,,,,,,,,,,,
,,,,,,1,0,1,0,1,X V Q F H G B L J M P D K C T S W R N Z,5de52f36a91be34a4ea35c71,27,Mężczyzna,2022-06-11_09h20.40.442,task,2021.1.4,Win32,143.020595,6299f149e92ead563fba08ef,62a441e9763199a518959d05,,,,,,,,,,,,,,,,,,,,,,,,,,,,,,,,,,,,,,,,,,,,,,,,,,,,,,,,,,,,,,,,,,,,,,,,,,,,,,,,,,,,,,,,,,,,,,,,,,,,,
,,,,,,2,0,2,0,1,X V Q F H G B L J M P D K C T S W R N Z,5de52f36a91be34a4ea35c71,27,Mężczyzna,2022-06-11_09h20.40.442,task,2021.1.4,Win32,143.020595,6299f149e92ead563fba08ef,62a441e9763199a518959d05,,,,,,,,,,,,,,,,,,,,,,,,,,,,,,,,,,,,,,,,,,,,,,,,,,,,,,,,,,,,,,,,,,,,,,,,,,,,,,,,,,,,,,,,,,,,,,,,,,,,,
,,,,,,3,0,3,0,1,X V Q F H G B L J M P D K C T S W R N Z,5de52f36a91be34a4ea35c71,27,Mężczyzna,2022-06-11_09h20.40.442,task,2021.1.4,Win32,143.020595,6299f149e92ead563fba08ef,62a441e9763199a518959d05,,,,,,,,,,,,,,,,,,,,,,,,,,,,,,,,,,,,,,,,,,,,,,,,,,,,,,,,,,,,,,,,,,,,,,,,,,,,,,,,,,,,,,,,,,,,,,,,,,,,,
,,,,,,4,0,4,0,1,X V Q F H G B L J M P D K C T S W R N Z,5de52f36a91be34a4ea35c71,27,Mężczyzna,2022-06-11_09h20.40.442,task,2021.1.4,Win32,143.020595,6299f149e92ead563fba08ef,62a441e9763199a518959d05,,,,,,,,,,,,,,,,,,,,,,,,,,,,,,,,,,,,,,,,,,,,,,,,,,,,,,,,,,,,,,,,,,,,,,,,,,,,,,,,,,,,,,,,,,,,,,,,,,,,,
,,,,,,5,0,5,0,1,X V Q F H G B L J M P D K C T S W R N Z,5de52f36a91be34a4ea35c71,27,Mężczyzna,2022-06-11_09h20.40.442,task,2021.1.4,Win32,143.020595,6299f149e92ead563fba08ef,62a441e9763199a518959d05,,,,,,,,,,,,,,,,,,,,,,,,,,,,,,,,,,,,,,,,,,,,,,,,,,,,,,,,,,,,,,,,,,,,,,,,,,,,,,,,,,,,,,,,,,,,,,,,,,,,,
,,,,,,6,0,6,0,1,X V Q F H G B L J M P D K C T S W R N Z,5de52f36a91be34a4ea35c71,27,Mężczyzna,2022-06-11_09h20.40.442,task,2021.1.4,Win32,143.020595,6299f149e92ead563fba08ef,62a441e9763199a518959d05,,,,,,,,,,,,,,,,,,,,,,,,,,,,,,,,,,,,,,,,,,,,,,,,,,,,,,,,,,,,,,,,,,,,,,,,,,,,,,,,,,,,,,,,,,,,,,,,,,,,,
,,,,,,7,0,7,0,1,X V Q F H G B L J M P D K C T S W R N Z,5de52f36a91be34a4ea35c71,27,Mężczyzna,2022-06-11_09h20.40.442,task,2021.1.4,Win32,143.020595,6299f149e92ead563fba08ef,62a441e9763199a518959d05,,,,,,,,,,,,,,,,,,,,,,,,,,,,,,,,,,,,,,,,,,,,,,,,,,,,,,,,,,,,,,,,,,,,,,,,,,,,,,,,,,,,,,,,,,,,,,,,,,,,,
,,,,,,8,0,8,0,1,X V Q F H G B L J M P D K C T S W R N Z,5de52f36a91be34a4ea35c71,27,Mężczyzna,2022-06-11_09h20.40.442,task,2021.1.4,Win32,143.020595,6299f149e92ead563fba08ef,62a441e9763199a518959d05,,,,,,,,,,,,,,,,,,,,,,,,,,,,,,,,,,,,,,,,,,,,,,,,,,,,,,,,,,,,,,,,,,,,,,,,,,,,,,,,,,,,,,,,,,,,,,,,,,,,,
,,,,,,,,,,,,5de52f36a91be34a4ea35c71,27,Mężczyzna,2022-06-11_09h20.40.442,task,2021.1.4,Win32,143.020595,6299f149e92ead563fba08ef,62a441e9763199a518959d05,srmwdfdbt,"[""s"",""r"",""m"",""w"",""d"",""f"",""d"",""b"",""t""]","[0.3212000000029889,0.3837000000029889,0.5072000000030243,0.7851000000015347,1.0375000000000227,1.486500000000035,2.2338000000044644,2.563100000001498,3.687900000005982,4.559900000005996]",0,SRMWTFDBT,22,0,22,0,1,,,,,,,,,,,,,,,,,,,,,,,,,,,,,,,,,,,,,,,,,,,,,,,,,,,,,,,,,,,,,,,,,,,,,,,,,,,,,,,,,,,,,,,,,,,
,,,,,,,,,,,,5de52f36a91be34a4ea35c71,27,Mężczyzna,2022-06-11_09h20.40.442,task,2021.1.4,Win32,143.020595,6299f149e92ead563fba08ef,62a441e9763199a518959d05,,,,,,,,,,,space,7.1173,1,"[""1""]",1,[7.382600000001446],[7.382600000001446],0,0,0,1,1,Practice,2,(4x4) - 15,1,,,,,,,,,,,,,,,,,,,,,,,,,,,,,,,,,,,,,,,,,,,,,,,,,,,,,,,,,,,,,,,,,,,,,,,,,,,
,,,,,,,,,,,,5de52f36a91be34a4ea35c71,27,Mężczyzna,2022-06-11_09h20.40.442,task,2021.1.4,Win32,143.020595,6299f149e92ead563fba08ef,62a441e9763199a518959d05,,,,,,,,,,,,,2,"[""2""]",0,[3.130099999994002],"[7.382600000001446,3.130099999994002]",0,1,1,6,1,Practice,7,(25/5) + 1,6,,,,,,,,,,,,,,,,,,,,,,,,,,,,,,,,,,,,,,,,,,,,,,,,,,,,,,,,,,,,,,,,,,,,,,,,,,,
,,,,,,,,,,,,5de52f36a91be34a4ea35c71,27,Mężczyzna,2022-06-11_09h20.40.442,task,2021.1.4,Win32,143.020595,6299f149e92ead563fba08ef,62a441e9763199a518959d05,,,,,,,,,,,,,2,"[""2""]",1,[3.792299999996999],"[7.382600000001446,3.130099999994002,3.792299999996999]",0,2,2,2,1,Practice,3,(4x4) - 14,2,,,,,,,,,,,,,,,,,,,,,,,,,,,,,,,,,,,,,,,,,,,,,,,,,,,,,,,,,,,,,,,,,,,,,,,,,,,
,,,,,,,,,,,,5de52f36a91be34a4ea35c71,27,Mężczyzna,2022-06-11_09h20.40.442,task,2021.1.4,Win32,143.020595,6299f149e92ead563fba08ef,62a441e9763199a518959d05,,,,,,,,,,,,,4,"[""4""]",1,[5.920600000001514],"[7.382600000001446,3.130099999994002,3.792299999996999,5.920600000001514]",0,3,3,4,1,Practice,5,(2x6) - 8,4,,,,,,,,,,,,,,,,,,,,,,,,,,,,,,,,,,,,,,,,,,,,,,,,,,,,,,,,,,,,,,,,,,,,,,,,,,,
,,,,,,,,,,,,5de52f36a91be34a4ea35c71,27,Mężczyzna,2022-06-11_09h20.40.442,task,2021.1.4,Win32,143.020595,6299f149e92ead563fba08ef,62a441e9763199a518959d05,,,,,,,,,,,,,8,"[""8""]",1,[2.6680000000000064],"[7.382600000001446,3.130099999994002,3.792299999996999,5.920600000001514,2.6680000000000064]",0,4,4,8,1,Practice,9,(3x3) - 1,8,,,,,,,,,,,,,,,,,,,,,,,,,,,,,,,,,,,,,,,,,,,,,,,,,,,,,,,,,,,,,,,,,,,,,,,,,,,
,,,,,,,,,,,,5de52f36a91be34a4ea35c71,27,Mężczyzna,2022-06-11_09h20.40.442,task,2021.1.4,Win32,143.020595,6299f149e92ead563fba08ef,62a441e9763199a518959d05,,,,,,,,,,,,,5,"[""5""]",1,[2.427500000000009],"[7.382600000001446,3.130099999994002,3.792299999996999,5.920600000001514,2.6680000000000064,2.427500000000009]",0,5,5,5,1,Practice,6,(4/2) + 3,5,,,,,,,,,,,,,,,,,,,,,,,,,,,,,,,,,,,,,,,,,,,,,,,,,,,,,,,,,,,,,,,,,,,,,,,,,,,
,,,,,,,,,,,,5de52f36a91be34a4ea35c71,27,Mężczyzna,2022-06-11_09h20.40.442,task,2021.1.4,Win32,143.020595,6299f149e92ead563fba08ef,62a441e9763199a518959d05,,,,,,,,,,,,,8,"[""8""]",0,[3.388899999998557],"[7.382600000001446,3.130099999994002,3.792299999996999,5.920600000001514,2.6680000000000064,2.427500000000009,3.388899999998557]",0,6,6,7,1,Practice,8,(5x5) - 18,7,,,,,,,,,,,,,,,,,,,,,,,,,,,,,,,,,,,,,,,,,,,,,,,,,,,,,,,,,,,,,,,,,,,,,,,,,,,
,,,,,,,,,,,,5de52f36a91be34a4ea35c71,27,Mężczyzna,2022-06-11_09h20.40.442,task,2021.1.4,Win32,143.020595,6299f149e92ead563fba08ef,62a441e9763199a518959d05,,,,,,,,,,,,,3,"[""3""]",1,[5.617999999999995],"[7.382600000001446,3.130099999994002,3.792299999996999,5.920600000001514,2.6680000000000064,2.427500000000009,3.388899999998557,5.617999999999995]",0,7,7,3,1,Practice,4,(8/4) + 1,3,,,,,,,,,,,,,,,,,,,,,,,,,,,,,,,,,,,,,,,,,,,,,,,,,,,,,,,,,,,,,,,,,,,,,,,,,,,
,,,,,,,,,,,,5de52f36a91be34a4ea35c71,27,Mężczyzna,2022-06-11_09h20.40.442,task,2021.1.4,Win32,143.020595,6299f149e92ead563fba08ef,62a441e9763199a518959d05,,,,,,,,,,,,,9,"[""9""]",1,[3.189899999998545],"[7.382600000001446,3.130099999994002,3.792299999996999,5.920600000001514,2.6680000000000064,2.427500000000009,3.388899999998557,5.617999999999995,3.189899999998545]",0,8,8,9,1,Practice,10,(20/2) - 1,9,,,,,,,,,,,,,,,,,,,,,,,,,,,,,,,,,,,,,,,,,,,,,,,,,,,,,,,,,,,,,,,,,,,,,,,,,,,
,,,,,,,,,,,,5de52f36a91be34a4ea35c71,27,Mężczyzna,2022-06-11_09h20.40.442,task,2021.1.4,Win32,143.020595,6299f149e92ead563fba08ef,62a441e9763199a518959d05,,,,,,,,,,,,,0,"[""0""]",1,[1.5690000000000168],"[7.382600000001446,3.130099999994002,3.792299999996999,5.920600000001514,2.6680000000000064,2.427500000000009,3.388899999998557,5.617999999999995,3.189899999998545,1.5690000000000168]",0,9,9,0,1,Practice,1,(3x3) -  9,0,,,,,,,,,,,,,,,,,,,,,,,,,,,,,,,,,,,,,,,,,,,,,,,,,,,,,,,,,,,,,,,,,,,,,,,,,,,
,,,,,,,,,,,,5de52f36a91be34a4ea35c71,27,Mężczyzna,2022-06-11_09h20.40.442,task,2021.1.4,Win32,143.020595,6299f149e92ead563fba08ef,62a441e9763199a518959d05,,,,,,,,,,,,,,,,,,,,,,,,,,,0.8,39.0869,2.605793333,46.62694497,1.763083378,7.154548449,space,1.4522,0,0,0,0,1,,,,,,,,,,,,,,,,,,,,,,,,,,,,,,,,,,,,,,,,,,,,,,,,,,,,,,,,,,,,,,
,,,,,,,,,,,,5de52f36a91be34a4ea35c71,27,Mężczyzna,2022-06-11_09h20.40.442,task,2021.1.4,Win32,143.020595,6299f149e92ead563fba08ef,62a441e9763199a518959d05,,,,,,,,,,,,,2,,,,,,,,,,Practice,3,(4x4) - 14,2,,,,,,,,,,,,,,space,35.1496,"[""2""]",1,[4.081999999999994],1,0,0,0,2,1,,,,,,,,,,,,,,,,,,,,,,,,,,,,,,,,,,,,,,,,,,,,,,,,,,,
,,,,,,,,,,,X V Q F H G B L J M P D K C T S W R N Z,5de52f36a91be34a4ea35c71,27,Mężczyzna,2022-06-11_09h20.40.442,task,2021.1.4,Win32,143.020595,6299f149e92ead563fba08ef,62a441e9763199a518959d05,,,,,,,,,,,,,,,,,,,,,,,,,,,,,,,,,,,,,,,,,,,,,,,,,,,0,0,0,0,1,,,,,,,,,,,,,,,,,,,,,,,,,,,,,,,,,,,,,,,,,,,,,,
,,,,,,,,,,,,5de52f36a91be34a4ea35c71,27,Mężczyzna,2022-06-11_09h20.40.442,task,2021.1.4,Win32,143.020595,6299f149e92ead563fba08ef,62a441e9763199a518959d05,,,,,,,,,,,,,,,,,,,,,,,Practice,8,(5x5) - 18,7,,,,,,,,,,,,,,,,,0,,0,0,0,0,7,1,,,,,,,,,,,,,,,,,,,,,,,,,,,,,,,,,,,,,,,,,,,,,,,,,,,
,,,,,,,,,,,,5de52f36a91be34a4ea35c71,27,Mężczyzna,2022-06-11_09h20.40.442,task,2021.1.4,Win32,143.020595,6299f149e92ead563fba08ef,62a441e9763199a518959d05,,,,,,,,,,,,,2,,,,,,,,,,Practice,3,(4x4) - 14,2,,,,,,,,,,,,,,,,"[""2""]",1,[3.1112999999970157],1,0,1,1,2,1,,,,,,,,,,,,,,,,,,,,,,,,,,,,,,,,,,,,,,,,,,,,,,,,,,,
,,,,,,,,,,,X V Q F H G B L J M P D K C T S W R N Z,5de52f36a91be34a4ea35c71,27,Mężczyzna,2022-06-11_09h20.40.442,task,2021.1.4,Win32,143.020595,6299f149e92ead563fba08ef,62a441e9763199a518959d05,,,,,,,,,,,,,,,,,,,,,,,,,,,,,,,,,,,,,,,,,,,,,,,,,,,1,0,1,0,1,,,,,,,,,,,,,,,,,,,,,,,,,,,,,,,,,,,,,,,,,,,,,,
,,,,,,,,,,,,5de52f36a91be34a4ea35c71,27,Mężczyzna,2022-06-11_09h20.40.442,task,2021.1.4,Win32,143.020595,6299f149e92ead563fba08ef,62a441e9763199a518959d05,,,,,,,,,,,,,,,,,,,,,,,,,,,,,,,,,,,,,,,,,,,,,,,,,,,,,,,,zn,"[""z"",""n""]",0,"[1.5926999999955456,1.91700000000003,2.22950000000003]",1,0,0,0,0,1,,,,,,,,,,,,,,,,,,,,,,,,,,,,,,,,,,,,
,,,,,,,,,,,,5de52f36a91be34a4ea35c71,27,Mężczyzna,2022-06-11_09h20.40.442,task,2021.1.4,Win32,143.020595,6299f149e92ead563fba08ef,62a441e9763199a518959d05,,,,,,,,,,,,,9,,,,,,,,,,Practice,10,(20/2) - 1,9,,,,,,,,,,,,,,,,"[""9""]",1,[2.7577000000030125],1,0,0,0,9,1,,,,,,,,,,,,,,,,,,,,,,,,,,,,,,,,,,,,,,,,,,,,,,,,,,,
,,,,,,,,,,,X V Q F H G B L J M P D K C T S W R N Z,5de52f36a91be34a4ea35c71,27,Mężczyzna,2022-06-11_09h20.40.442,task,2021.1.4,Win32,143.020595,6299f149e92ead563fba08ef,62a441e9763199a518959d05,,,,,,,,,,,,,,,,,,,,,,,,,,,,,,,,,,,,,,,,,,,,,,,,,,,0,0,0,0,1,,,,,,,,,,,,,,,,,,,,,,,,,,,,,,,,,,,,,,,,,,,,,,
,,,,,,,,,,,,5de52f36a91be34a4ea35c71,27,Mężczyzna,2022-06-11_09h20.40.442,task,2021.1.4,Win32,143.020595,6299f149e92ead563fba08ef,62a441e9763199a518959d05,,,,,,,,,,,,,9,,,,,,,,,,Practice,10,(20/2) - 1,9,,,,,,,,,,,,,,,,"[""9""]",1,[2.077799999997012],1,0,0,0,9,1,,,,,,,,,,,,,,,,,,,,,,,,,,,,,,,,,,,,,,,,,,,,,,,,,,,
,,,,,,,,,,,X V Q F H G B L J M P D K C T S W R N Z,5de52f36a91be34a4ea35c71,27,Mężczyzna,2022-06-11_09h20.40.442,task,2021.1.4,Win32,143.020595,6299f149e92ead563fba08ef,62a441e9763199a518959d05,,,,,,,,,,,,,,,,,,,,,,,,,,,,,,,,,,,,,,,,,,,,,,,,,,,1,0,1,0,1,,,,,,,,,,,,,,,,,,,,,,,,,,,,,,,,,,,,,,,,,,,,,,
,,,,,,,,,,,,5de52f36a91be34a4ea35c71,27,Mężczyzna,2022-06-11_09h20.40.442,task,2021.1.4,Win32,143.020595,6299f149e92ead563fba08ef,62a441e9763199a518959d05,,,,,,,,,,,,,,,,,,,,,,,,,,,,,,,,,,,,,,,,,,,,,,,,,,,,,,,,pf,"[""p"",""f""]",0,"[1.7223000000044522,1.8061000000014928,1.9587000000029775]",1,1,0,1,0,1,,,,,,,,,,,,,,,,,,,,,,,,,,,,,,,,,,,,
,,,,,,,,,,,,5de52f36a91be34a4ea35c71,27,Mężczyzna,2022-06-11_09h20.40.442,task,2021.1.4,Win32,143.020595,6299f149e92ead563fba08ef,62a441e9763199a518959d05,,,,,,,,,,,,,9,,,,,,,,,,Practice,10,(20/2) - 1,9,,,,,,,,,,,,,,,,"[""9""]",1,[1.61380000000446],1,0,0,0,9,1,,,,,,,,,,,,,,,,,,,,,,,,,,,,,,,,,,,,,,,,,,,,,,,,,,,
,,,,,,,,,,,X V Q F H G B L J M P D K C T S W R N Z,5de52f36a91be34a4ea35c71,27,Mężczyzna,2022-06-11_09h20.40.442,task,2021.1.4,Win32,143.020595,6299f149e92ead563fba08ef,62a441e9763199a518959d05,,,,,,,,,,,,,,,,,,,,,,,,,,,,,,,,,,,,,,,,,,,,,,,,,,,0,0,0,0,1,,,,,,,,,,,,,,,,,,,,,,,,,,,,,,,,,,,,,,,,,,,,,,
,,,,,,,,,,,,5de52f36a91be34a4ea35c71,27,Mężczyzna,2022-06-11_09h20.40.442,task,2021.1.4,Win32,143.020595,6299f149e92ead563fba08ef,62a441e9763199a518959d05,,,,,,,,,,,,,8,,,,,,,,,,Practice,9,(3x3) - 1,8,,,,,,,,,,,,,,,,"[""8""]",1,[2.380899999998519],1,0,0,0,8,1,,,,,,,,,,,,,,,,,,,,,,,,,,,,,,,,,,,,,,,,,,,,,,,,,,,
,,,,,,,,,,,X V Q F H G B L J M P D K C T S W R N Z,5de52f36a91be34a4ea35c71,27,Mężczyzna,2022-06-11_09h20.40.442,task,2021.1.4,Win32,143.020595,6299f149e92ead563fba08ef,62a441e9763199a518959d05,,,,,,,,,,,,,,,,,,,,,,,,,,,,,,,,,,,,,,,,,,,,,,,,,,,1,0,1,0,1,,,,,,,,,,,,,,,,,,,,,,,,,,,,,,,,,,,,,,,,,,,,,,
,,,,,,,,,,,,5de52f36a91be34a4ea35c71,27,Mężczyzna,2022-06-11_09h20.40.442,task,2021.1.4,Win32,143.020595,6299f149e92ead563fba08ef,62a441e9763199a518959d05,,,,,,,,,,,,,,,,,,,,,,,,,,,,,,,,,,,,,,,,,,,,,,,,,,,,,,,,zr,"[""z"",""r""]",0,"[1.2892000000029498,1.4329999999999927,1.6268999999984999]",1,2,0,2,0,1,,,,,,,,,,,,,,,,,,,,,,,,,,,,,,,,,,,,
,,,,,,,,,,,,5de52f36a91be34a4ea35c71,27,Mężczyzna,2022-06-11_09h20.40.442,task,2021.1.4,Win32,143.020595,6299f149e92ead563fba08ef,62a441e9763199a518959d05,,,,,,,,,,,,,3,,,,,,,,,,Task,20,(18/9) + 1,3,,,,,,,,,,,,,,,,,,,1,,,,,,,,,,,,,,,,,,,,,space,10.6666,"[""3""]",1,[3.3727000000029648],0,0,0,19,1,,,,,,,,,,,,,,,,,,,,,,,,,,
,,,,,,,,,,,X V Q F H G B L J M P D K C T S W R N Z,5de52f36a91be34a4ea35c71,27,Mężczyzna,2022-06-11_09h20.40.442,task,2021.1.4,Win32,143.020595,6299f149e92ead563fba08ef,62a441e9763199a518959d05,,,,,,,,,,,,,,,,,,,,,,,,,,,,,,,,,,,,,,,,,,,,,,,,,,,,,,,,,,,,,,,,,,,,,,,,,,,,0,0,0,0,1,,,,,,,,,,,,,,,,,,,,,
,,,,,,,,,,,,5de52f36a91be34a4ea35c71,27,Mężczyzna,2022-06-11_09h20.40.442,task,2021.1.4,Win32,143.020595,6299f149e92ead563fba08ef,62a441e9763199a518959d05,,,,,,,,,,,,,1,,,,,,,,,,Task,18,(16/4) - 3,1,,,,,,,,,,,,,,,,,,,1,,,,,,,,,,,,,,,,,,,,,,,"[""1""]",1,[3.6492999999970266],0,0,0,17,1,,,,,,,,,,,,,,,,,,,,,,,,,,
,,,,,,,,,,,X V Q F H G B L J M P D K C T S W R N Z,5de52f36a91be34a4ea35c71,27,Mężczyzna,2022-06-11_09h20.40.442,task,2021.1.4,Win32,143.020595,6299f149e92ead563fba08ef,62a441e9763199a518959d05,,,,,,,,,,,,,,,,,,,,,,,,,,,,,,,,,,,,,,,,,,,,,,,,,,,,,,,,,,,,,,,,,,,,,,,,,,,,1,0,1,0,1,,,,,,,,,,,,,,,,,,,,,
,,,,,,,,,,,,5de52f36a91be34a4ea35c71,27,Mężczyzna,2022-06-11_09h20.40.442,task,2021.1.4,Win32,143.020595,6299f149e92ead563fba08ef,62a441e9763199a518959d05,,,,,,,,,,,,,,,,,,,,,,,,,,,,,,,,,,,,,,,,,,,,,,,,,,,,,,,,,,,,,,,,,,,,,,,,,,,,,,,,,zr,"[""z"",""r""]",0,"[1.209799999997017,1.3220000000000027,1.481899999998518]",1,ZR,0,0,0,0,1,,,,,,,,,,
,,,,,,,,,,,,5de52f36a91be34a4ea35c71,27,Mężczyzna,2022-06-11_09h20.40.442,task,2021.1.4,Win32,143.020595,6299f149e92ead563fba08ef,62a441e9763199a518959d05,,,,,,,,,,,,,2,,,,,,,,,,Task,2,(2x2) - 2,2,,,,,,,,,,,,,,,,,,,1,,,,,,,,,,,,,,,,,,,,,,,"[""2""]",1,[2.0977999999970507],0,0,0,1,1,,,,,,,,,,,,,,,,,,,,,,,,,,
,,,,,,,,,,,X V Q F H G B L J M P D K C T S W R N Z,5de52f36a91be34a4ea35c71,27,Mężczyzna,2022-06-11_09h20.40.442,task,2021.1.4,Win32,143.020595,6299f149e92ead563fba08ef,62a441e9763199a518959d05,,,,,,,,,,,,,,,,,,,,,,,,,,,,,,,,,,,,,,,,,,,,,,,,,,,,,,,,,,,,,,,,,,,,,,,,,,,,0,0,0,0,1,,,,,,,,,,,,,,,,,,,,,
,,,,,,,,,,,,5de52f36a91be34a4ea35c71,27,Mężczyzna,2022-06-11_09h20.40.442,task,2021.1.4,Win32,143.020595,6299f149e92ead563fba08ef,62a441e9763199a518959d05,,,,,,,,,,,,,1,,,,,,,,,,Task,18,(16/4) - 3,1,,,,,,,,,,,,,,,,,,,1,,,,,,,,,,,,,,,,,,,,,,,"[""1""]",1,[2.449899999998536],0,0,0,17,1,,,,,,,,,,,,,,,,,,,,,,,,,,
,,,,,,,,,,,X V Q F H G B L J M P D K C T S W R N Z,5de52f36a91be34a4ea35c71,27,Mężczyzna,2022-06-11_09h20.40.442,task,2021.1.4,Win32,143.020595,6299f149e92ead563fba08ef,62a441e9763199a518959d05,,,,,,,,,,,,,,,,,,,,,,,,,,,,,,,,,,,,,,,,,,,,,,,,,,,,,,,,,,,,,,,,,,,,,,,,,,,,1,0,1,0,1,,,,,,,,,,,,,,,,,,,,,
,,,,,,,,,,,,5de52f36a91be34a4ea35c71,27,Mężczyzna,2022-06-11_09h20.40.442,task,2021.1.4,Win32,143.020595,6299f149e92ead563fba08ef,62a441e9763199a518959d05,,,,,,,,,,,,,8,,,,,,,,,,Task,39,(5x3) - 7,8,,,,,,,,,,,,,,,,,,,1,,,,,,,,,,,,,,,,,,,,,,,"[""8""]",1,[5.125500000000045],0,0,0,38,1,,,,,,,,,,,,,,,,,,,,,,,,,,
,,,,,,,,,,,X V Q F H G B L J M P D K C T S W R N Z,5de52f36a91be34a4ea35c71,27,Mężczyzna,2022-06-11_09h20.40.442,task,2021.1.4,Win32,143.020595,6299f149e92ead563fba08ef,62a441e9763199a518959d05,,,,,,,,,,,,,,,,,,,,,,,,,,,,,,,,,,,,,,,,,,,,,,,,,,,,,,,,,,,,,,,,,,,,,,,,,,,,2,0,2,0,1,,,,,,,,,,,,,,,,,,,,,
,,,,,,,,,,,,5de52f36a91be34a4ea35c71,27,Mężczyzna,2022-06-11_09h20.40.442,task,2021.1.4,Win32,143.020595,6299f149e92ead563fba08ef,62a441e9763199a518959d05,,,,,,,,,,,,,,,,,,,,,,,,,,,,,,,,,,,,,,,,,,,,,,,,,,,,,,,,,,,,,,,,,,,,,,,,,,,,,,,,,vdg,"[""v"",""d"",""g""]",0,"[1.5562000000030025,1.6192000000029907,1.8132000000030075,2.0293999999985317]",1,VDG,1,0,1,0,1,,,,,,,,,,
,,,,,,,,,,,,5de52f36a91be34a4ea35c71,27,Mężczyzna,2022-06-11_09h20.40.442,task,2021.1.4,Win32,143.020595,6299f149e92ead563fba08ef,62a441e9763199a518959d05,,,,,,,,,,,,,5,,,,,,,,,,Task,36,(8/4) + 3,5,,,,,,,,,,,,,,,,,,,1,,,,,,,,,,,,,,,,,,,,,,,"[""5""]",1,[2.693899999998507],0,0,0,35,1,,,,,,,,,,,,,,,,,,,,,,,,,,
,,,,,,,,,,,X V Q F H G B L J M P D K C T S W R N Z,5de52f36a91be34a4ea35c71,27,Mężczyzna,2022-06-11_09h20.40.442,task,2021.1.4,Win32,143.020595,6299f149e92ead563fba08ef,62a441e9763199a518959d05,,,,,,,,,,,,,,,,,,,,,,,,,,,,,,,,,,,,,,,,,,,,,,,,,,,,,,,,,,,,,,,,,,,,,,,,,,,,0,0,0,0,1,,,,,,,,,,,,,,,,,,,,,
,,,,,,,,,,,,5de52f36a91be34a4ea35c71,27,Mężczyzna,2022-06-11_09h20.40.442,task,2021.1.4,Win32,143.020595,6299f149e92ead563fba08ef,62a441e9763199a518959d05,,,,,,,,,,,,,7,,,,,,,,,,Task,31,(4/2) + 5,7,,,,,,,,,,,,,,,,,,,1,,,,,,,,,,,,,,,,,,,,,,,"[""7""]",1,[3.131999999999948],0,0,0,30,1,,,,,,,,,,,,,,,,,,,,,,,,,,
,,,,,,,,,,,X V Q F H G B L J M P D K C T S W R N Z,5de52f36a91be34a4ea35c71,27,Mężczyzna,2022-06-11_09h20.40.442,task,2021.1.4,Win32,143.020595,6299f149e92ead563fba08ef,62a441e9763199a518959d05,,,,,,,,,,,,,,,,,,,,,,,,,,,,,,,,,,,,,,,,,,,,,,,,,,,,,,,,,,,,,,,,,,,,,,,,,,,,1,0,1,0,1,,,,,,,,,,,,,,,,,,,,,
,,,,,,,,,,,,5de52f36a91be34a4ea35c71,27,Mężczyzna,2022-06-11_09h20.40.442,task,2021.1.4,Win32,143.020595,6299f149e92ead563fba08ef,62a441e9763199a518959d05,,,,,,,,,,,,,2,,,,,,,,,,Task,10,(2x5) - 8,2,,,,,,,,,,,,,,,,,,,1,,,,,,,,,,,,,,,,,,,,,,,"[""2""]",1,[2.476100000001452],0,0,0,9,1,,,,,,,,,,,,,,,,,,,,,,,,,,
,,,,,,,,,,,X V Q F H G B L J M P D K C T S W R N Z,5de52f36a91be34a4ea35c71,27,Mężczyzna,2022-06-11_09h20.40.442,task,2021.1.4,Win32,143.020595,6299f149e92ead563fba08ef,62a441e9763199a518959d05,,,,,,,,,,,,,,,,,,,,,,,,,,,,,,,,,,,,,,,,,,,,,,,,,,,,,,,,,,,,,,,,,,,,,,,,,,,,2,0,2,0,1,,,,,,,,,,,,,,,,,,,,,
,,,,,,,,,,,,5de52f36a91be34a4ea35c71,27,Mężczyzna,2022-06-11_09h20.40.442,task,2021.1.4,Win32,143.020595,6299f149e92ead563fba08ef,62a441e9763199a518959d05,,,,,,,,,,,,,6,,,,,,,,,,Task,13,(3x4) - 6,6,,,,,,,,,,,,,,,,,,,1,,,,,,,,,,,,,,,,,,,,,,,"[""6""]",1,[6.573100000001432],0,0,0,12,1,,,,,,,,,,,,,,,,,,,,,,,,,,
,,,,,,,,,,,X V Q F H G B L J M P D K C T S W R N Z,5de52f36a91be34a4ea35c71,27,Mężczyzna,2022-06-11_09h20.40.442,task,2021.1.4,Win32,143.020595,6299f149e92ead563fba08ef,62a441e9763199a518959d05,,,,,,,,,,,,,,,,,,,,,,,,,,,,,,,,,,,,,,,,,,,,,,,,,,,,,,,,,,,,,,,,,,,,,,,,,,,,3,0,3,0,1,,,,,,,,,,,,,,,,,,,,,
,,,,,,,,,,,,5de52f36a91be34a4ea35c71,27,Mężczyzna,2022-06-11_09h20.40.442,task,2021.1.4,Win32,143.020595,6299f149e92ead563fba08ef,62a441e9763199a518959d05,,,,,,,,,,,,,,,,,,,,,,,,,,,,,,,,,,,,,,,,,,,,,,,,,,,,,,,,,,,,,,,,,,,,,,,,,,,,,,,,,szwk,"[""s"",""z"",""w"",""k""]",0,"[1.0903999999985672,1.347599999994145,1.5902999999971144,1.7581999999955542,2.056199999995556]",1,SZWK,2,0,2,0,1,,,,,,,,,,
,,,,,,,,,,,,5de52f36a91be34a4ea35c71,27,Mężczyzna,2022-06-11_09h20.40.442,task,2021.1.4,Win32,143.020595,6299f149e92ead563fba08ef,62a441e9763199a518959d05,,,,,,,,,,,,,6,,,,,,,,,,Task,5,(2x3) + 0,6,,,,,,,,,,,,,,,,,,,1,,,,,,,,,,,,,,,,,,,,,,,"[""6""]",1,[3.0937999999970316],0,0,0,4,1,,,,,,,,,,,,,,,,,,,,,,,,,,
,,,,,,,,,,,X V Q F H G B L J M P D K C T S W R N Z,5de52f36a91be34a4ea35c71,27,Mężczyzna,2022-06-11_09h20.40.442,task,2021.1.4,Win32,143.020595,6299f149e92ead563fba08ef,62a441e9763199a518959d05,,,,,,,,,,,,,,,,,,,,,,,,,,,,,,,,,,,,,,,,,,,,,,,,,,,,,,,,,,,,,,,,,,,,,,,,,,,,0,0,0,0,1,,,,,,,,,,,,,,,,,,,,,
,,,,,,,,,,,,5de52f36a91be34a4ea35c71,27,Mężczyzna,2022-06-11_09h20.40.442,task,2021.1.4,Win32,143.020595,6299f149e92ead563fba08ef,62a441e9763199a518959d05,,,,,,,,,,,,,7,,,,,,,,,,Task,24,(2x2) + 5,9,,,,,,,,,,,,,,,,,,,0,,,,,,,,,,,,,,,,,,,,,,,"[""7""]",0,[2.391999999999939],0,0,0,23,1,,,,,,,,,,,,,,,,,,,,,,,,,,
,,,,,,,,,,,,5de52f36a91be34a4ea35c71,27,Mężczyzna,2022-06-11_09h20.40.442,task,2021.1.4,Win32,143.020595,6299f149e92ead563fba08ef,62a441e9763199a518959d05,,,,,,,,,,,,,4,,,,,,,,,,Task,4,(1x5) - 1,4,,,,,,,,,,,,,,,,,,,1,,,,,,,,,,,,,,,,,,,,,,,"[""4""]",1,[2.19500000000005],0,1,1,3,1,,,,,,,,,,,,,,,,,,,,,,,,,,
,,,,,,,,,,,X V Q F H G B L J M P D K C T S W R N Z,5de52f36a91be34a4ea35c71,27,Mężczyzna,2022-06-11_09h20.40.442,task,2021.1.4,Win32,143.020595,6299f149e92ead563fba08ef,62a441e9763199a518959d05,,,,,,,,,,,,,,,,,,,,,,,,,,,,,,,,,,,,,,,,,,,,,,,,,,,,,,,,,,,,,,,,,,,,,,,,,,,,1,0,1,0,1,,,,,,,,,,,,,,,,,,,,,
,,,,,,,,,,,,5de52f36a91be34a4ea35c71,27,Mężczyzna,2022-06-11_09h20.40.442,task,2021.1.4,Win32,143.020595,6299f149e92ead563fba08ef,62a441e9763199a518959d05,,,,,,,,,,,,,8,,,,,,,,,,Task,23,(2x3) + 2,8,,,,,,,,,,,,,,,,,,,1,,,,,,,,,,,,,,,,,,,,,,,"[""8""]",1,[2.0908999999984417],0,0,0,22,1,,,,,,,,,,,,,,,,,,,,,,,,,,
,,,,,,,,,,,X V Q F H G B L J M P D K C T S W R N Z,5de52f36a91be34a4ea35c71,27,Mężczyzna,2022-06-11_09h20.40.442,task,2021.1.4,Win32,143.020595,6299f149e92ead563fba08ef,62a441e9763199a518959d05,,,,,,,,,,,,,,,,,,,,,,,,,,,,,,,,,,,,,,,,,,,,,,,,,,,,,,,,,,,,,,,,,,,,,,,,,,,,2,0,2,0,1,,,,,,,,,,,,,,,,,,,,,
,,,,,,,,,,,,5de52f36a91be34a4ea35c71,27,Mężczyzna,2022-06-11_09h20.40.442,task,2021.1.4,Win32,143.020595,6299f149e92ead563fba08ef,62a441e9763199a518959d05,,,,,,,,,,,,,8,,,,,,,,,,Task,39,(5x3) - 7,8,,,,,,,,,,,,,,,,,,,1,,,,,,,,,,,,,,,,,,,,,,,"[""8""]",1,[2.9323999999985517],0,0,0,38,1,,,,,,,,,,,,,,,,,,,,,,,,,,
,,,,,,,,,,,X V Q F H G B L J M P D K C T S W R N Z,5de52f36a91be34a4ea35c71,27,Mężczyzna,2022-06-11_09h20.40.442,task,2021.1.4,Win32,143.020595,6299f149e92ead563fba08ef,62a441e9763199a518959d05,,,,,,,,,,,,,,,,,,,,,,,,,,,,,,,,,,,,,,,,,,,,,,,,,,,,,,,,,,,,,,,,,,,,,,,,,,,,3,0,3,0,1,,,,,,,,,,,,,,,,,,,,,
,,,,,,,,,,,,5de52f36a91be34a4ea35c71,27,Mężczyzna,2022-06-11_09h20.40.442,task,2021.1.4,Win32,143.020595,6299f149e92ead563fba08ef,62a441e9763199a518959d05,,,,,,,,,,,,,3,,,,,,,,,,Task,35,(1x2) + 1,3,,,,,,,,,,,,,,,,,,,1,,,,,,,,,,,,,,,,,,,,,,,"[""3""]",1,[1.4763999999985344],0,0,0,34,1,,,,,,,,,,,,,,,,,,,,,,,,,,
,,,,,,,,,,,X V Q F H G B L J M P D K C T S W R N Z,5de52f36a91be34a4ea35c71,27,Mężczyzna,2022-06-11_09h20.40.442,task,2021.1.4,Win32,143.020595,6299f149e92ead563fba08ef,62a441e9763199a518959d05,,,,,,,,,,,,,,,,,,,,,,,,,,,,,,,,,,,,,,,,,,,,,,,,,,,,,,,,,,,,,,,,,,,,,,,,,,,,4,0,4,0,1,,,,,,,,,,,,,,,,,,,,,
,,,,,,,,,,,,5de52f36a91be34a4ea35c71,27,Mężczyzna,2022-06-11_09h20.40.442,task,2021.1.4,Win32,143.020595,6299f149e92ead563fba08ef,62a441e9763199a518959d05,,,,,,,,,,,,,,,,,,,,,,,,,,,,,,,,,,,,,,,,,,,,,,,,,,,,,,,,,,,,,,,,,,,,,,,,,,,,,,,,,wpvfs,"[""w"",""p"",""v"",""f"",""s""]",0,"[1.383899999998448,1.6393999999984317,2.259899999998538,2.7578999999984717,2.951799999996979,3.194699999995464]",1,WPVFS,3,0,3,0,1,,,,,,,,,,
,,,,,,,,,,,,5de52f36a91be34a4ea35c71,27,Mężczyzna,2022-06-11_09h20.40.442,task,2021.1.4,Win32,143.020595,6299f149e92ead563fba08ef,62a441e9763199a518959d05,,,,,,,,,,,,,1,,,,,,,,,,Task,34,(9/3) - 2,1,,,,,,,,,,,,,,,,,,,1,,,,,,,,,,,,,,,,,,,,,,,"[""1""]",1,[3.0976000000015347],0,0,0,33,1,,,,,,,,,,,,,,,,,,,,,,,,,,
,,,,,,,,,,,X V Q F H G B L J M P D K C T S W R N Z,5de52f36a91be34a4ea35c71,27,Mężczyzna,2022-06-11_09h20.40.442,task,2021.1.4,Win32,143.020595,6299f149e92ead563fba08ef,62a441e9763199a518959d05,,,,,,,,,,,,,,,,,,,,,,,,,,,,,,,,,,,,,,,,,,,,,,,,,,,,,,,,,,,,,,,,,,,,,,,,,,,,0,0,0,0,1,,,,,,,,,,,,,,,,,,,,,
,,,,,,,,,,,,5de52f36a91be34a4ea35c71,27,Mężczyzna,2022-06-11_09h20.40.442,task,2021.1.4,Win32,143.020595,6299f149e92ead563fba08ef,62a441e9763199a518959d05,,,,,,,,,,,,,8,,,,,,,,,,Task,39,(5x3) - 7,8,,,,,,,,,,,,,,,,,,,1,,,,,,,,,,,,,,,,,,,,,,,"[""8""]",1,[1.8500000000000227],0,0,0,38,1,,,,,,,,,,,,,,,,,,,,,,,,,,
,,,,,,,,,,,X V Q F H G B L J M P D K C T S W R N Z,5de52f36a91be34a4ea35c71,27,Mężczyzna,2022-06-11_09h20.40.442,task,2021.1.4,Win32,143.020595,6299f149e92ead563fba08ef,62a441e9763199a518959d05,,,,,,,,,,,,,,,,,,,,,,,,,,,,,,,,,,,,,,,,,,,,,,,,,,,,,,,,,,,,,,,,,,,,,,,,,,,,1,0,1,0,1,,,,,,,,,,,,,,,,,,,,,
,,,,,,,,,,,,5de52f36a91be34a4ea35c71,27,Mężczyzna,2022-06-11_09h20.40.442,task,2021.1.4,Win32,143.020595,6299f149e92ead563fba08ef,62a441e9763199a518959d05,,,,,,,,,,,,,7,,,,,,,,,,Task,31,(4/2) + 5,7,,,,,,,,,,,,,,,,,,,1,,,,,,,,,,,,,,,,,,,,,,,"[""7""]",1,[2.308200000003012],0,0,0,30,1,,,,,,,,,,,,,,,,,,,,,,,,,,
,,,,,,,,,,,X V Q F H G B L J M P D K C T S W R N Z,5de52f36a91be34a4ea35c71,27,Mężczyzna,2022-06-11_09h20.40.442,task,2021.1.4,Win32,143.020595,6299f149e92ead563fba08ef,62a441e9763199a518959d05,,,,,,,,,,,,,,,,,,,,,,,,,,,,,,,,,,,,,,,,,,,,,,,,,,,,,,,,,,,,,,,,,,,,,,,,,,,,2,0,2,0,1,,,,,,,,,,,,,,,,,,,,,
,,,,,,,,,,,,5de52f36a91be34a4ea35c71,27,Mężczyzna,2022-06-11_09h20.40.442,task,2021.1.4,Win32,143.020595,6299f149e92ead563fba08ef,62a441e9763199a518959d05,,,,,,,,,,,,,3,,,,,,,,,,Task,26,(2x9) - 16,2,,,,,,,,,,,,,,,,,,,0,,,,,,,,,,,,,,,,,,,,,,,"[""3""]",0,[2.4417000000030384],0,0,0,25,1,,,,,,,,,,,,,,,,,,,,,,,,,,
,,,,,,,,,,,,5de52f36a91be34a4ea35c71,27,Mężczyzna,2022-06-11_09h20.40.442,task,2021.1.4,Win32,143.020595,6299f149e92ead563fba08ef,62a441e9763199a518959d05,,,,,,,,,,,,,,,,,,,,,,,Task,16,(3x8) - 15,9,,,,,,,,,,,,,,,,,,,0,,,,,,,,,,,,,,,,,,,,,,,,0,,0,1,1,15,1,,,,,,,,,,,,,,,,,,,,,,,,,,
,,,,,,,,,,,,5de52f36a91be34a4ea35c71,27,Mężczyzna,2022-06-11_09h20.40.442,task,2021.1.4,Win32,143.020595,6299f149e92ead563fba08ef,62a441e9763199a518959d05,,,,,,,,,,,,,8,,,,,,,,,,Task,23,(2x3) + 2,8,,,,,,,,,,,,,,,,,,,1,,,,,,,,,,,,,,,,,,,,,,,"[""8""]",1,[2.49910000000159],0,2,2,22,1,,,,,,,,,,,,,,,,,,,,,,,,,,
,,,,,,,,,,,X V Q F H G B L J M P D K C T S W R N Z,5de52f36a91be34a4ea35c71,27,Mężczyzna,2022-06-11_09h20.40.442,task,2021.1.4,Win32,143.020595,6299f149e92ead563fba08ef,62a441e9763199a518959d05,,,,,,,,,,,,,,,,,,,,,,,,,,,,,,,,,,,,,,,,,,,,,,,,,,,,,,,,,,,,,,,,,,,,,,,,,,,,3,0,3,0,1,,,,,,,,,,,,,,,,,,,,,
,,,,,,,,,,,,5de52f36a91be34a4ea35c71,27,Mężczyzna,2022-06-11_09h20.40.442,task,2021.1.4,Win32,143.020595,6299f149e92ead563fba08ef,62a441e9763199a518959d05,,,,,,,,,,,,,0,,,,,,,,,,Task,25,(10/5) - 2,0,,,,,,,,,,,,,,,,,,,1,,,,,,,,,,,,,,,,,,,,,,,"[""0""]",1,[2.230700000002912],0,0,0,24,1,,,,,,,,,,,,,,,,,,,,,,,,,,
,,,,,,,,,,,X V Q F H G B L J M P D K C T S W R N Z,5de52f36a91be34a4ea35c71,27,Mężczyzna,2022-06-11_09h20.40.442,task,2021.1.4,Win32,143.020595,6299f149e92ead563fba08ef,62a441e9763199a518959d05,,,,,,,,,,,,,,,,,,,,,,,,,,,,,,,,,,,,,,,,,,,,,,,,,,,,,,,,,,,,,,,,,,,,,,,,,,,,4,0,4,0,1,,,,,,,,,,,,,,,,,,,,,
,,,,,,,,,,,,5de52f36a91be34a4ea35c71,27,Mężczyzna,2022-06-11_09h20.40.442,task,2021.1.4,Win32,143.020595,6299f149e92ead563fba08ef,62a441e9763199a518959d05,,,,,,,,,,,,,5,,,,,,,,,,Task,14,(2x2) + 3,7,,,,,,,,,,,,,,,,,,,0,,,,,,,,,,,,,,,,,,,,,,,"[""5""]",0,[3.327299999996967],0,0,0,13,1,,,,,,,,,,,,,,,,,,,,,,,,,,
,,,,,,,,,,,,5de52f36a91be34a4ea35c71,27,Mężczyzna,2022-06-11_09h20.40.442,task,2021.1.4,Win32,143.020595,6299f149e92ead563fba08ef,62a441e9763199a518959d05,,,,,,,,,,,,,0,,,,,,,,,,Task,33,(1/1) - 1,0,,,,,,,,,,,,,,,,,,,1,,,,,,,,,,,,,,,,,,,,,,,"[""0""]",1,[3.849299999997015],0,1,1,32,1,,,,,,,,,,,,,,,,,,,,,,,,,,
,,,,,,,,,,,X V Q F H G B L J M P D K C T S W R N Z,5de52f36a91be34a4ea35c71,27,Mężczyzna,2022-06-11_09h20.40.442,task,2021.1.4,Win32,143.020595,6299f149e92ead563fba08ef,62a441e9763199a518959d05,,,,,,,,,,,,,,,,,,,,,,,,,,,,,,,,,,,,,,,,,,,,,,,,,,,,,,,,,,,,,,,,,,,,,,,,,,,,5,0,5,0,1,,,,,,,,,,,,,,,,,,,,,
,,,,,,,,,,,,5de52f36a91be34a4ea35c71,27,Mężczyzna,2022-06-11_09h20.40.442,task,2021.1.4,Win32,143.020595,6299f149e92ead563fba08ef,62a441e9763199a518959d05,,,,,,,,,,,,,,,,,,,,,,,,,,,,,,,,,,,,,,,,,,,,,,,,,,,,,,,,,,,,,,,,,,,,,,,,,,,,,,,,,zqlqln,"[""z"",""q"",""l"",""q"",""l"",""n""]",0,"[1.7994999999999663,2.3015000000000327,3.1216000000015356,4.0212000000029775,4.729600000001483,4.961600000001454,6.181600000001481]",0,ZQLQBN,4,0,4,0,1,,,,,,,,,,
,,,,,,,,,,,,5de52f36a91be34a4ea35c71,27,Mężczyzna,2022-06-11_09h20.40.442,task,2021.1.4,Win32,143.020595,6299f149e92ead563fba08ef,62a441e9763199a518959d05,,,,,,,,,,,,,3,,,,,,,,,,Task,12,(4x4) - 11,5,,,,,,,,,,,,,,,,,,,0,,,,,,,,,,,,,,,,,,,,,,,"[""3""]",0,[4.11099999999999],0,0,0,11,1,,,,,,,,,,,,,,,,,,,,,,,,,,
,,,,,,,,,,,,5de52f36a91be34a4ea35c71,27,Mężczyzna,2022-06-11_09h20.40.442,task,2021.1.4,Win32,143.020595,6299f149e92ead563fba08ef,62a441e9763199a518959d05,,,,,,,,,,,,,2,,,,,,,,,,Task,19,(6/2) - 1,2,,,,,,,,,,,,,,,,,,,1,,,,,,,,,,,,,,,,,,,,,,,"[""2""]",1,[5.375299999996969],0,1,1,18,1,,,,,,,,,,,,,,,,,,,,,,,,,,
,,,,,,,,,,,X V Q F H G B L J M P D K C T S W R N Z,5de52f36a91be34a4ea35c71,27,Mężczyzna,2022-06-11_09h20.40.442,task,2021.1.4,Win32,143.020595,6299f149e92ead563fba08ef,62a441e9763199a518959d05,,,,,,,,,,,,,,,,,,,,,,,,,,,,,,,,,,,,,,,,,,,,,,,,,,,,,,,,,,,,,,,,,,,,,,,,,,,,0,0,0,0,1,,,,,,,,,,,,,,,,,,,,,
,,,,,,,,,,,,5de52f36a91be34a4ea35c71,27,Mężczyzna,2022-06-11_09h20.40.442,task,2021.1.4,Win32,143.020595,6299f149e92ead563fba08ef,62a441e9763199a518959d05,,,,,,,,,,,,,1,,,,,,,,,,Task,34,(9/3) - 2,1,,,,,,,,,,,,,,,,,,,1,,,,,,,,,,,,,,,,,,,,,,,"[""1""]",1,[3.157000000000039],0,0,0,33,1,,,,,,,,,,,,,,,,,,,,,,,,,,
,,,,,,,,,,,X V Q F H G B L J M P D K C T S W R N Z,5de52f36a91be34a4ea35c71,27,Mężczyzna,2022-06-11_09h20.40.442,task,2021.1.4,Win32,143.020595,6299f149e92ead563fba08ef,62a441e9763199a518959d05,,,,,,,,,,,,,,,,,,,,,,,,,,,,,,,,,,,,,,,,,,,,,,,,,,,,,,,,,,,,,,,,,,,,,,,,,,,,1,0,1,0,1,,,,,,,,,,,,,,,,,,,,,
,,,,,,,,,,,,5de52f36a91be34a4ea35c71,27,Mężczyzna,2022-06-11_09h20.40.442,task,2021.1.4,Win32,143.020595,6299f149e92ead563fba08ef,62a441e9763199a518959d05,,,,,,,,,,,,,7,,,,,,,,,,Task,14,(2x2) + 3,7,,,,,,,,,,,,,,,,,,,1,,,,,,,,,,,,,,,,,,,,,,,"[""7""]",1,[4.805499999999938],0,0,0,13,1,,,,,,,,,,,,,,,,,,,,,,,,,,
,,,,,,,,,,,X V Q F H G B L J M P D K C T S W R N Z,5de52f36a91be34a4ea35c71,27,Mężczyzna,2022-06-11_09h20.40.442,task,2021.1.4,Win32,143.020595,6299f149e92ead563fba08ef,62a441e9763199a518959d05,,,,,,,,,,,,,,,,,,,,,,,,,,,,,,,,,,,,,,,,,,,,,,,,,,,,,,,,,,,,,,,,,,,,,,,,,,,,2,0,2,0,1,,,,,,,,,,,,,,,,,,,,,
,,,,,,,,,,,,5de52f36a91be34a4ea35c71,27,Mężczyzna,2022-06-11_09h20.40.442,task,2021.1.4,Win32,143.020595,6299f149e92ead563fba08ef,62a441e9763199a518959d05,,,,,,,,,,,,,6,,,,,,,,,,Task,30,(6/3) + 4 ,6,,,,,,,,,,,,,,,,,,,1,,,,,,,,,,,,,,,,,,,,,,,"[""6""]",1,[6.938100000001441],0,0,0,29,1,,,,,,,,,,,,,,,,,,,,,,,,,,
,,,,,,,,,,,X V Q F H G B L J M P D K C T S W R N Z,5de52f36a91be34a4ea35c71,27,Mężczyzna,2022-06-11_09h20.40.442,task,2021.1.4,Win32,143.020595,6299f149e92ead563fba08ef,62a441e9763199a518959d05,,,,,,,,,,,,,,,,,,,,,,,,,,,,,,,,,,,,,,,,,,,,,,,,,,,,,,,,,,,,,,,,,,,,,,,,,,,,3,0,3,0,1,,,,,,,,,,,,,,,,,,,,,
,,,,,,,,,,,,5de52f36a91be34a4ea35c71,27,Mężczyzna,2022-06-11_09h20.40.442,task,2021.1.4,Win32,143.020595,6299f149e92ead563fba08ef,62a441e9763199a518959d05,,,,,,,,,,,,,5,,,,,,,,,,Task,29,(3x8) - 19 ,5,,,,,,,,,,,,,,,,,,,1,,,,,,,,,,,,,,,,,,,,,,,"[""5""]",1,[4.783500000000004],0,0,0,28,1,,,,,,,,,,,,,,,,,,,,,,,,,,
,,,,,,,,,,,X V Q F H G B L J M P D K C T S W R N Z,5de52f36a91be34a4ea35c71,27,Mężczyzna,2022-06-11_09h20.40.442,task,2021.1.4,Win32,143.020595,6299f149e92ead563fba08ef,62a441e9763199a518959d05,,,,,,,,,,,,,,,,,,,,,,,,,,,,,,,,,,,,,,,,,,,,,,,,,,,,,,,,,,,,,,,,,,,,,,,,,,,,4,0,4,0,1,,,,,,,,,,,,,,,,,,,,,
,,,,,,,,,,,,5de52f36a91be34a4ea35c71,27,Mężczyzna,2022-06-11_09h20.40.442,task,2021.1.4,Win32,143.020595,6299f149e92ead563fba08ef,62a441e9763199a518959d05,,,,,,,,,,,,,9,,,,,,,,,,Task,24,(2x2) + 5,9,,,,,,,,,,,,,,,,,,,1,,,,,,,,,,,,,,,,,,,,,,,"[""9""]",1,[4.923399999998537],0,0,0,23,1,,,,,,,,,,,,,,,,,,,,,,,,,,
,,,,,,,,,,,X V Q F H G B L J M P D K C T S W R N Z,5de52f36a91be34a4ea35c71,27,Mężczyzna,2022-06-11_09h20.40.442,task,2021.1.4,Win32,143.020595,6299f149e92ead563fba08ef,62a441e9763199a518959d05,,,,,,,,,,,,,,,,,,,,,,,,,,,,,,,,,,,,,,,,,,,,,,,,,,,,,,,,,,,,,,,,,,,,,,,,,,,,5,0,5,0,1,,,,,,,,,,,,,,,,,,,,,
,,,,,,,,,,,,5de52f36a91be34a4ea35c71,27,Mężczyzna,2022-06-11_09h20.40.442,task,2021.1.4,Win32,143.020595,6299f149e92ead563fba08ef,62a441e9763199a518959d05,,,,,,,,,,,,,,,,,,,,,,,,,,,,,,,,,,,,,,,,,,,,,,,,,,,,,,,,,,,,,,,,,,,,,,,,,,,,,,,,,mbhqww,"[""m"",""b"",""h"",""q"",""w"",""w""]",0,"[1.746800000004555,2.192600000001562,2.600500000000011,3.0843999999985954,3.4206000000015138,3.5643999999985,3.888899999998557]",1,MBHQWW,5,0,5,0,1,,,,,,,,,,
,,,,,,,,,,,,5de52f36a91be34a4ea35c71,27,Mężczyzna,2022-06-11_09h20.40.442,task,2021.1.4,Win32,143.020595,6299f149e92ead563fba08ef,62a441e9763199a518959d05,,,,,,,,,,,,,0,,,,,,,,,,Task,17,(2x3) - 6,0,,,,,,,,,,,,,,,,,,,1,,,,,,,,,,,,,,,,,,,,,,,"[""0""]",1,[1.5093000000044867],0,0,0,16,1,,,,,,,,,,,,,,,,,,,,,,,,,,
,,,,,,,,,,,X V Q F H G B L J M P D K C T S W R N Z,5de52f36a91be34a4ea35c71,27,Mężczyzna,2022-06-11_09h20.40.442,task,2021.1.4,Win32,143.020595,6299f149e92ead563fba08ef,62a441e9763199a518959d05,,,,,,,,,,,,,,,,,,,,,,,,,,,,,,,,,,,,,,,,,,,,,,,,,,,,,,,,,,,,,,,,,,,,,,,,,,,,0,0,0,0,1,,,,,,,,,,,,,,,,,,,,,
,,,,,,,,,,,,5de52f36a91be34a4ea35c71,27,Mężczyzna,2022-06-11_09h20.40.442,task,2021.1.4,Win32,143.020595,6299f149e92ead563fba08ef,62a441e9763199a518959d05,,,,,,,,,,,,,5,,,,,,,,,,Task,12,(4x4) - 11,5,,,,,,,,,,,,,,,,,,,1,,,,,,,,,,,,,,,,,,,,,,,"[""5""]",1,[4.154199999995512],0,0,0,11,1,,,,,,,,,,,,,,,,,,,,,,,,,,
,,,,,,,,,,,X V Q F H G B L J M P D K C T S W R N Z,5de52f36a91be34a4ea35c71,27,Mężczyzna,2022-06-11_09h20.40.442,task,2021.1.4,Win32,143.020595,6299f149e92ead563fba08ef,62a441e9763199a518959d05,,,,,,,,,,,,,,,,,,,,,,,,,,,,,,,,,,,,,,,,,,,,,,,,,,,,,,,,,,,,,,,,,,,,,,,,,,,,1,0,1,0,1,,,,,,,,,,,,,,,,,,,,,
,,,,,,,,,,,,5de52f36a91be34a4ea35c71,27,Mężczyzna,2022-06-11_09h20.40.442,task,2021.1.4,Win32,143.020595,6299f149e92ead563fba08ef,62a441e9763199a518959d05,,,,,,,,,,,,,9,,,,,,,,,,Task,40,(7x2) - 5,9,,,,,,,,,,,,,,,,,,,1,,,,,,,,,,,,,,,,,,,,,,,"[""9""]",1,[3.1820000000000164],0,0,0,39,1,,,,,,,,,,,,,,,,,,,,,,,,,,
,,,,,,,,,,,X V Q F H G B L J M P D K C T S W R N Z,5de52f36a91be34a4ea35c71,27,Mężczyzna,2022-06-11_09h20.40.442,task,2021.1.4,Win32,143.020595,6299f149e92ead563fba08ef,62a441e9763199a518959d05,,,,,,,,,,,,,,,,,,,,,,,,,,,,,,,,,,,,,,,,,,,,,,,,,,,,,,,,,,,,,,,,,,,,,,,,,,,,2,0,2,0,1,,,,,,,,,,,,,,,,,,,,,
,,,,,,,,,,,,5de52f36a91be34a4ea35c71,27,Mężczyzna,2022-06-11_09h20.40.442,task,2021.1.4,Win32,143.020595,6299f149e92ead563fba08ef,62a441e9763199a518959d05,,,,,,,,,,,,,8,,,,,,,,,,Task,23,(2x3) + 2,8,,,,,,,,,,,,,,,,,,,1,,,,,,,,,,,,,,,,,,,,,,,"[""8""]",1,[2.522899999998458],0,0,0,22,1,,,,,,,,,,,,,,,,,,,,,,,,,,
,,,,,,,,,,,X V Q F H G B L J M P D K C T S W R N Z,5de52f36a91be34a4ea35c71,27,Mężczyzna,2022-06-11_09h20.40.442,task,2021.1.4,Win32,143.020595,6299f149e92ead563fba08ef,62a441e9763199a518959d05,,,,,,,,,,,,,,,,,,,,,,,,,,,,,,,,,,,,,,,,,,,,,,,,,,,,,,,,,,,,,,,,,,,,,,,,,,,,3,0,3,0,1,,,,,,,,,,,,,,,,,,,,,
,,,,,,,,,,,,5de52f36a91be34a4ea35c71,27,Mężczyzna,2022-06-11_09h20.40.442,task,2021.1.4,Win32,143.020595,6299f149e92ead563fba08ef,62a441e9763199a518959d05,,,,,,,,,,,,,1,,,,,,,,,,Task,18,(16/4) - 3,1,,,,,,,,,,,,,,,,,,,1,,,,,,,,,,,,,,,,,,,,,,,"[""1""]",1,[2.1965000000000146],0,0,0,17,1,,,,,,,,,,,,,,,,,,,,,,,,,,
,,,,,,,,,,,X V Q F H G B L J M P D K C T S W R N Z,5de52f36a91be34a4ea35c71,27,Mężczyzna,2022-06-11_09h20.40.442,task,2021.1.4,Win32,143.020595,6299f149e92ead563fba08ef,62a441e9763199a518959d05,,,,,,,,,,,,,,,,,,,,,,,,,,,,,,,,,,,,,,,,,,,,,,,,,,,,,,,,,,,,,,,,,,,,,,,,,,,,4,0,4,0,1,,,,,,,,,,,,,,,,,,,,,
,,,,,,,,,,,,5de52f36a91be34a4ea35c71,27,Mężczyzna,2022-06-11_09h20.40.442,task,2021.1.4,Win32,143.020595,6299f149e92ead563fba08ef,62a441e9763199a518959d05,,,,,,,,,,,,,4,,,,,,,,,,Task,28,(2x5) - 6,4,,,,,,,,,,,,,,,,,,,1,,,,,,,,,,,,,,,,,,,,,,,"[""4""]",1,[3.9196000000014237],0,0,0,27,1,,,,,,,,,,,,,,,,,,,,,,,,,,
,,,,,,,,,,,X V Q F H G B L J M P D K C T S W R N Z,5de52f36a91be34a4ea35c71,27,Mężczyzna,2022-06-11_09h20.40.442,task,2021.1.4,Win32,143.020595,6299f149e92ead563fba08ef,62a441e9763199a518959d05,,,,,,,,,,,,,,,,,,,,,,,,,,,,,,,,,,,,,,,,,,,,,,,,,,,,,,,,,,,,,,,,,,,,,,,,,,,,5,0,5,0,1,,,,,,,,,,,,,,,,,,,,,
,,,,,,,,,,,,5de52f36a91be34a4ea35c71,27,Mężczyzna,2022-06-11_09h20.40.442,task,2021.1.4,Win32,143.020595,6299f149e92ead563fba08ef,62a441e9763199a518959d05,,,,,,,,,,,,,,,,,,,,,,,Task,7,(3x7) - 12,9,,,,,,,,,,,,,,,,,,,0,,,,,,,,,,,,,,,,,,,,,,,,0,,0,0,0,6,1,,,,,,,,,,,,,,,,,,,,,,,,,,
,,,,,,,,,,,,5de52f36a91be34a4ea35c71,27,Mężczyzna,2022-06-11_09h20.40.442,task,2021.1.4,Win32,143.020595,6299f149e92ead563fba08ef,62a441e9763199a518959d05,,,,,,,,,,,,,2,,,,,,,,,,Task,2,(2x2) - 2,2,,,,,,,,,,,,,,,,,,,1,,,,,,,,,,,,,,,,,,,,,,,"[""2""]",1,[1.6683999999985417],0,1,1,1,1,,,,,,,,,,,,,,,,,,,,,,,,,,
,,,,,,,,,,,X V Q F H G B L J M P D K C T S W R N Z,5de52f36a91be34a4ea35c71,27,Mężczyzna,2022-06-11_09h20.40.442,task,2021.1.4,Win32,143.020595,6299f149e92ead563fba08ef,62a441e9763199a518959d05,,,,,,,,,,,,,,,,,,,,,,,,,,,,,,,,,,,,,,,,,,,,,,,,,,,,,,,,,,,,,,,,,,,,,,,,,,,,6,0,6,0,1,,,,,,,,,,,,,,,,,,,,,
,,,,,,,,,,,,5de52f36a91be34a4ea35c71,27,Mężczyzna,2022-06-11_09h20.40.442,task,2021.1.4,Win32,143.020595,6299f149e92ead563fba08ef,62a441e9763199a518959d05,,,,,,,,,,,,,,,,,,,,,,,,,,,,,,,,,,,,,,,,,,,,,,,,,,,,,,,,,,,,,,,,,,,,,,,,,,,,,,,,,zkqvgskv,"[""z"",""k"",""q"",""v"",""g"",""s"",""k"",""v""]",0,"[1.361600000001431,1.8653999999985444,2.619299999996997,4.3617000000029975,4.736100000001443,5.173700000003009,5.911799999997015,6.607600000001526,7.257600000001503]",0,ZHQVGSV,6,0,6,0,1,,,,,,,,,,
,,,,,,,,,,,,5de52f36a91be34a4ea35c71,27,Mężczyzna,2022-06-11_09h20.40.442,task,2021.1.4,Win32,143.020595,6299f149e92ead563fba08ef,62a441e9763199a518959d05,,,,,,,,,,,,,6,,,,,,,,,,Task,37,(3/3) + 5,6,,,,,,,,,,,,,,,,,,,1,,,,,,,,,,,,,,,,,,,,,,,"[""6""]",1,[3.286199999995574],0,0,0,36,1,,,,,,,,,,,,,,,,,,,,,,,,,,
,,,,,,,,,,,X V Q F H G B L J M P D K C T S W R N Z,5de52f36a91be34a4ea35c71,27,Mężczyzna,2022-06-11_09h20.40.442,task,2021.1.4,Win32,143.020595,6299f149e92ead563fba08ef,62a441e9763199a518959d05,,,,,,,,,,,,,,,,,,,,,,,,,,,,,,,,,,,,,,,,,,,,,,,,,,,,,,,,,,,,,,,,,,,,,,,,,,,,0,0,0,0,1,,,,,,,,,,,,,,,,,,,,,
,,,,,,,,,,,,5de52f36a91be34a4ea35c71,27,Mężczyzna,2022-06-11_09h20.40.442,task,2021.1.4,Win32,143.020595,6299f149e92ead563fba08ef,62a441e9763199a518959d05,,,,,,,,,,,,,6,,,,,,,,,,Task,37,(3/3) + 5,6,,,,,,,,,,,,,,,,,,,1,,,,,,,,,,,,,,,,,,,,,,,"[""6""]",1,[2.0626000000015665],0,0,0,36,1,,,,,,,,,,,,,,,,,,,,,,,,,,
,,,,,,,,,,,X V Q F H G B L J M P D K C T S W R N Z,5de52f36a91be34a4ea35c71,27,Mężczyzna,2022-06-11_09h20.40.442,task,2021.1.4,Win32,143.020595,6299f149e92ead563fba08ef,62a441e9763199a518959d05,,,,,,,,,,,,,,,,,,,,,,,,,,,,,,,,,,,,,,,,,,,,,,,,,,,,,,,,,,,,,,,,,,,,,,,,,,,,1,0,1,0,1,,,,,,,,,,,,,,,,,,,,,
,,,,,,,,,,,,5de52f36a91be34a4ea35c71,27,Mężczyzna,2022-06-11_09h20.40.442,task,2021.1.4,Win32,143.020595,6299f149e92ead563fba08ef,62a441e9763199a518959d05,,,,,,,,,,,,,7,,,,,,,,,,Task,6,(12/2) + 1,7,,,,,,,,,,,,,,,,,,,1,,,,,,,,,,,,,,,,,,,,,,,"[""7""]",1,[2.4881999999954587],0,0,0,5,1,,,,,,,,,,,,,,,,,,,,,,,,,,
,,,,,,,,,,,X V Q F H G B L J M P D K C T S W R N Z,5de52f36a91be34a4ea35c71,27,Mężczyzna,2022-06-11_09h20.40.442,task,2021.1.4,Win32,143.020595,6299f149e92ead563fba08ef,62a441e9763199a518959d05,,,,,,,,,,,,,,,,,,,,,,,,,,,,,,,,,,,,,,,,,,,,,,,,,,,,,,,,,,,,,,,,,,,,,,,,,,,,2,0,2,0,1,,,,,,,,,,,,,,,,,,,,,
,,,,,,,,,,,,5de52f36a91be34a4ea35c71,27,Mężczyzna,2022-06-11_09h20.40.442,task,2021.1.4,Win32,143.020595,6299f149e92ead563fba08ef,62a441e9763199a518959d05,,,,,,,,,,,,,1,,,,,,,,,,Task,18,(16/4) - 3,1,,,,,,,,,,,,,,,,,,,1,,,,,,,,,,,,,,,,,,,,,,,"[""1""]",1,[1.4405999999939922],0,0,0,17,1,,,,,,,,,,,,,,,,,,,,,,,,,,
,,,,,,,,,,,X V Q F H G B L J M P D K C T S W R N Z,5de52f36a91be34a4ea35c71,27,Mężczyzna,2022-06-11_09h20.40.442,task,2021.1.4,Win32,143.020595,6299f149e92ead563fba08ef,62a441e9763199a518959d05,,,,,,,,,,,,,,,,,,,,,,,,,,,,,,,,,,,,,,,,,,,,,,,,,,,,,,,,,,,,,,,,,,,,,,,,,,,,3,0,3,0,1,,,,,,,,,,,,,,,,,,,,,
,,,,,,,,,,,,5de52f36a91be34a4ea35c71,27,Mężczyzna,2022-06-11_09h20.40.442,task,2021.1.4,Win32,143.020595,6299f149e92ead563fba08ef,62a441e9763199a518959d05,,,,,,,,,,,,,6,,,,,,,,,,Task,5,(2x3) + 0,6,,,,,,,,,,,,,,,,,,,1,,,,,,,,,,,,,,,,,,,,,,,"[""6""]",1,[3.493600000001493],0,0,0,4,1,,,,,,,,,,,,,,,,,,,,,,,,,,
,,,,,,,,,,,X V Q F H G B L J M P D K C T S W R N Z,5de52f36a91be34a4ea35c71,27,Mężczyzna,2022-06-11_09h20.40.442,task,2021.1.4,Win32,143.020595,6299f149e92ead563fba08ef,62a441e9763199a518959d05,,,,,,,,,,,,,,,,,,,,,,,,,,,,,,,,,,,,,,,,,,,,,,,,,,,,,,,,,,,,,,,,,,,,,,,,,,,,4,0,4,0,1,,,,,,,,,,,,,,,,,,,,,
,,,,,,,,,,,,5de52f36a91be34a4ea35c71,27,Mężczyzna,2022-06-11_09h20.40.442,task,2021.1.4,Win32,143.020595,6299f149e92ead563fba08ef,62a441e9763199a518959d05,,,,,,,,,,,,,0,,,,,,,,,,Task,8,(1x5) - 5,0,,,,,,,,,,,,,,,,,,,1,,,,,,,,,,,,,,,,,,,,,,,"[""0""]",1,[3.0766000000015765],0,0,0,7,1,,,,,,,,,,,,,,,,,,,,,,,,,,
,,,,,,,,,,,X V Q F H G B L J M P D K C T S W R N Z,5de52f36a91be34a4ea35c71,27,Mężczyzna,2022-06-11_09h20.40.442,task,2021.1.4,Win32,143.020595,6299f149e92ead563fba08ef,62a441e9763199a518959d05,,,,,,,,,,,,,,,,,,,,,,,,,,,,,,,,,,,,,,,,,,,,,,,,,,,,,,,,,,,,,,,,,,,,,,,,,,,,5,0,5,0,1,,,,,,,,,,,,,,,,,,,,,
,,,,,,,,,,,,5de52f36a91be34a4ea35c71,27,Mężczyzna,2022-06-11_09h20.40.442,task,2021.1.4,Win32,143.020595,6299f149e92ead563fba08ef,62a441e9763199a518959d05,,,,,,,,,,,,,1,,,,,,,,,,Task,11,(18/3) - 2,4,,,,,,,,,,,,,,,,,,,0,,,,,,,,,,,,,,,,,,,,,,,"[""1""]",0,[6.94580000000451],0,0,0,10,1,,,,,,,,,,,,,,,,,,,,,,,,,,
,,,,,,,,,,,,5de52f36a91be34a4ea35c71,27,Mężczyzna,2022-06-11_09h20.40.442,task,2021.1.4,Win32,143.020595,6299f149e92ead563fba08ef,62a441e9763199a518959d05,,,,,,,,,,,,,7,,,,,,,,,,Task,6,(12/2) + 1,7,,,,,,,,,,,,,,,,,,,1,,,,,,,,,,,,,,,,,,,,,,,"[""7""]",1,[2.0210999999940213],0,1,1,5,1,,,,,,,,,,,,,,,,,,,,,,,,,,
,,,,,,,,,,,X V Q F H G B L J M P D K C T S W R N Z,5de52f36a91be34a4ea35c71,27,Mężczyzna,2022-06-11_09h20.40.442,task,2021.1.4,Win32,143.020595,6299f149e92ead563fba08ef,62a441e9763199a518959d05,,,,,,,,,,,,,,,,,,,,,,,,,,,,,,,,,,,,,,,,,,,,,,,,,,,,,,,,,,,,,,,,,,,,,,,,,,,,6,0,6,0,1,,,,,,,,,,,,,,,,,,,,,
,,,,,,,,,,,,5de52f36a91be34a4ea35c71,27,Mężczyzna,2022-06-11_09h20.40.442,task,2021.1.4,Win32,143.020595,6299f149e92ead563fba08ef,62a441e9763199a518959d05,,,,,,,,,,,,,,,,,,,,,,,,,,,,,,,,,,,,,,,,,,,,,,,,,,,,,,,,,,,,,,,,,,,,,,,,,,,,,,,,,ntktrxq,"[""n"",""t"",""k"",""t"",""r"",""x"",""q""]",0,"[2.0003999999985353,2.2643999999985454,3.682100000001469,4.036200000002964,4.312899999998535,5.181100000001493,5.4528000000044585,5.972499999999968]",0,NTKRNXD,7,0,7,0,1,,,,,,,,,,
,,,,,,,,,,,,5de52f36a91be34a4ea35c71,27,Mężczyzna,2022-06-11_09h20.40.442,task,2021.1.4,Win32,143.020595,6299f149e92ead563fba08ef,62a441e9763199a518959d05,,,,,,,,,,,,,,,,,,,,,,,,,,,,,,,,,,,,,,,,,,,,,,,,,,,,,,,,,,,,,,,,,,,,,,,,,,,,,,,,,,,,,,,,,,,,,0,0,0,0,0,1,,,
,,,,,,,,,,,,5de52f36a91be34a4ea35c71,27,Mężczyzna,2022-06-11_09h20.40.442,task,2021.1.4,Win32,143.020595,6299f149e92ead563fba08ef,62a441e9763199a518959d05,,,,,,,,,,,,,,,,,,,,,,,,,,,,,,,,,,,,,,,,,,,,,,,,,,,,,,,,,,,,,,,,,,,,,,,,,,,,,,,,,,,,,,,,,,,,"[""comma""]",0,1,0,1,0,1,[1.0627000000030193],,
,,,,,,,,,,,,5de52f36a91be34a4ea35c71,27,Mężczyzna,2022-06-11_09h20.40.442,task,2021.1.4,Win32,143.020595,6299f149e92ead563fba08ef,62a441e9763199a518959d05,,,,,,,,,,,,,,,,,,,,,,,,,,,,,,,,,,,,,,,,,,,,,,,,,,,,,,,,,,,,,,,,,,,,,,,,,,,,,,,,,,,,,,,,,,,,"[""period""]",0,2,0,2,0,1,[0.3754999999999882],,
,,,,,,,,,,,,5de52f36a91be34a4ea35c71,27,Mężczyzna,2022-06-11_09h20.40.442,task,2021.1.4,Win32,143.020595,6299f149e92ead563fba08ef,62a441e9763199a518959d05,,,,,,,,,,,,,,,,,,,,,,,,,,,,,,,,,,,,,,,,,,,,,,,,,,,,,,,,,,,,,,,,,,,,,,,,,,,,,,,,,,,,,,,,,,,,"[""period""]",0,3,0,3,0,1,[0.4736999999955742],,
,,,,,,,,,,,,5de52f36a91be34a4ea35c71,27,Mężczyzna,2022-06-11_09h20.40.442,task,2021.1.4,Win32,143.020595,6299f149e92ead563fba08ef,62a441e9763199a518959d05,,,,,,,,,,,,,,,,,,,,,,,,,,,,,,,,,,,,,,,,,,,,,,,,,,,,,,,,,,,,,,,,,,,,,,,,,,,,,,,,,,,,,,,,,,,,"[""period""]",0,4,0,4,0,1,[0.2857999999969252],,
,,,,,,,,,,,,5de52f36a91be34a4ea35c71,27,Mężczyzna,2022-06-11_09h20.40.442,task,2021.1.4,Win32,143.020595,6299f149e92ead563fba08ef,62a441e9763199a518959d05,,,,,,,,,,,,,,,,,,,,,,,,,,,,,,,,,,,,,,,,,,,,,,,,,,,,,,,,,,,,,,,,,,,,,,,,,,,,,,,,,,,,,,,,,,,,"[""comma""]",0,5,0,5,0,1,[0.2573999999984835],,
,,,,,,,,,,,,5de52f36a91be34a4ea35c71,27,Mężczyzna,2022-06-11_09h20.40.442,task,2021.1.4,Win32,143.020595,6299f149e92ead563fba08ef,62a441e9763199a518959d05,,,,,,,,,,,,,,,,,,,,,,,,,,,,,,,,,,,,,,,,,,,,,,,,,,,,,,,,,,,,,,,,,,,,,,,,,,,,,,,,,,,,,,,,,,,,"[""comma""]",0,6,0,6,0,1,[0.22949999999991633],,
,,,,,,,,,,,,5de52f36a91be34a4ea35c71,27,Mężczyzna,2022-06-11_09h20.40.442,task,2021.1.4,Win32,143.020595,6299f149e92ead563fba08ef,62a441e9763199a518959d05,,,,,,,,,,,,,,,,,,,,,,,,,,,,,,,,,,,,,,,,,,,,,,,,,,,,,,,,,,,,,,,,,,,,,,,,,,,,,,,,,,,,,,,,,,,,"[""period""]",0,7,0,7,0,1,[0.22950000000003],,
,,,,,,,,,,,,5de52f36a91be34a4ea35c71,27,Mężczyzna,2022-06-11_09h20.40.442,task,2021.1.4,Win32,143.020595,6299f149e92ead563fba08ef,62a441e9763199a518959d05,,,,,,,,,,,,,,,,,,,,,,,,,,,,,,,,,,,,,,,,,,,,,,,,,,,,,,,,,,,,,,,,,,,,,,,,,,,,,,,,,,,,,,,,,,,,"[""period""]",0,8,0,8,0,1,[0.24760000000151194],,
,,,,,,,,,,,,5de52f36a91be34a4ea35c71,27,Mężczyzna,2022-06-11_09h20.40.442,task,2021.1.4,Win32,143.020595,6299f149e92ead563fba08ef,62a441e9763199a518959d05,,,,,,,,,,,,,,,,,,,,,,,,,,,,,,,,,,,,,,,,,,,,,,,,,,,,,,,,,,,,,,,,,,,,,,,,,,,,,,,,,,,,,,,,,,,,"[""comma""]",0,9,0,9,0,1,[0.19780000000446307],,
,,,,,,,,,,,,5de52f36a91be34a4ea35c71,27,Mężczyzna,2022-06-11_09h20.40.442,task,2021.1.4,Win32,143.020595,6299f149e92ead563fba08ef,62a441e9763199a518959d05,,,,,,,,,,,,,,,,,,,,,,,,,,,,,,,,,,,,,,,,,,,,,,,,,,,,,,,,,,,,,,,,,,,,,,,,,,,,,,,,,,,,,,,,,,,,"[""period""]",0,10,0,10,0,1,[0.3756999999955042],,
,,,,,,,,,,,,5de52f36a91be34a4ea35c71,27,Mężczyzna,2022-06-11_09h20.40.442,task,2021.1.4,Win32,143.020595,6299f149e92ead563fba08ef,62a441e9763199a518959d05,,,,,,,,,,,,,,,,,,,,,,,,,,,,,,,,,,,,,,,,,,,,,,,,,,,,,,,,,,,,,,,,,,,,,,,,,,,,,,,,,,,,,,,,,,,,"[""comma""]",0,11,0,11,0,1,[0.22950000000003],,
,,,,,,,,,,,,5de52f36a91be34a4ea35c71,27,Mężczyzna,2022-06-11_09h20.40.442,task,2021.1.4,Win32,143.020595,6299f149e92ead563fba08ef,62a441e9763199a518959d05,,,,,,,,,,,,,,,,,,,,,,,,,,,,,,,,,,,,,,,,,,,,,,,,,,,,,,,,,,,,,,,,,,,,,,,,,,,,,,,,,,,,,,,,,,,,"[""comma""]",0,12,0,12,0,1,[0.1975999999939404],,
,,,,,,,,,,,,5de52f36a91be34a4ea35c71,27,Mężczyzna,2022-06-11_09h20.40.442,task,2021.1.4,Win32,143.020595,6299f149e92ead563fba08ef,62a441e9763199a518959d05,,,,,,,,,,,,,,,,,,,,,,,,,,,,,,,,,,,,,,,,,,,,,,,,,,,,,,,,,,,,,,,,,,,,,,,,,,,,,,,,,,,,,,,,,,,,"[""period""]",0,13,0,13,0,1,[0.24370000000305936],,
,,,,,,,,,,,,5de52f36a91be34a4ea35c71,27,Mężczyzna,2022-06-11_09h20.40.442,task,2021.1.4,Win32,143.020595,6299f149e92ead563fba08ef,62a441e9763199a518959d05,,,,,,,,,,,,,,,,,,,,,,,,,,,,,,,,,,,,,,,,,,,,,,,,,,,,,,,,,,,,,,,,,,,,,,,,,,,,,,,,,,,,,,,,,,,,"[""comma""]",0,14,0,14,0,1,[0.1894000000060032],,
,,,,,,,,,,,,5de52f36a91be34a4ea35c71,27,Mężczyzna,2022-06-11_09h20.40.442,task,2021.1.4,Win32,143.020595,6299f149e92ead563fba08ef,62a441e9763199a518959d05,,,,,,,,,,,,,,,,,,,,,,,,,,,,,,,,,,,,,,,,,,,,,,,,,,,,,,,,,,,,,,,,,,,,,,,,,,,,,,,,,,,,,,,,,,,,"[""period""]",0,15,0,15,0,1,[0.14589999999850534],,
,,,,,,,,,,,,5de52f36a91be34a4ea35c71,27,Mężczyzna,2022-06-11_09h20.40.442,task,2021.1.4,Win32,143.020595,6299f149e92ead563fba08ef,62a441e9763199a518959d05,,,,,,,,,,,,,,,,,,,,,,,,,,,,,,,,,,,,,,,,,,,,,,,,,,,,,,,,,,,,,,,,,,,,,,,,,,,,,,,,,,,,,,,,,,,,"[""period""]",0,16,0,16,0,1,[0.09149999999999636],,
,,,,,,,,,,,,5de52f36a91be34a4ea35c71,27,Mężczyzna,2022-06-11_09h20.40.442,task,2021.1.4,Win32,143.020595,6299f149e92ead563fba08ef,62a441e9763199a518959d05,,,,,,,,,,,,,,,,,,,,,,,,,,,,,,,,,,,,,,,,,,,,,,,,,,,,,,,,,,,,,,,,,,,,,,,,,,,,,,,,,,,,,,,,,,,,"[""period"",""comma""]",0,17,0,17,0,1,"[0.19499999999993634,1.98139999999853]",,
,,,,,,,,,,,,5de52f36a91be34a4ea35c71,27,Mężczyzna,2022-06-11_09h20.40.442,task,2021.1.4,Win32,143.020595,6299f149e92ead563fba08ef,62a441e9763199a518959d05,,,,,,,,,,,,,,,,,,,,,,,,,,,,,,,,,,,,,,,,,,,,,,,,,,,,,,,,,,,,,,,,,,,,,,,,,,,,,,,,,,,,,,,,,,,,,0,18,0,18,0,1,,,
,,,,,,,,,,,,5de52f36a91be34a4ea35c71,27,Mężczyzna,2022-06-11_09h20.40.442,task,2021.1.4,Win32,143.020595,6299f149e92ead563fba08ef,62a441e9763199a518959d05,,,,,,,,,,,,,,,,,,,,,,,,,,,,,,,,,,,,,,,,,,,,,,,,,,,,,,,,,,,,,,,,,,,,,,,,,,,,,,,,,,,,,,,,,,,,"[""comma""]",0,19,0,19,0,1,[0.06520000000296022],,
,,,,,,,,,,,,5de52f36a91be34a4ea35c71,27,Mężczyzna,2022-06-11_09h20.40.442,task,2021.1.4,Win32,143.020595,6299f149e92ead563fba08ef,62a441e9763199a518959d05,,,,,,,,,,,,,,,,,,,,,,,,,,,,,,,,,,,,,,,,,,,,,,,,,,,,,,,,,,,,,,,,,,,,,,,,,,,,,,,,,,,,,,,,,,,,"[""comma""]",0,20,0,20,0,1,[0.2173999999985199],,
,,,,,,,,,,,,5de52f36a91be34a4ea35c71,27,Mężczyzna,2022-06-11_09h20.40.442,task,2021.1.4,Win32,143.020595,6299f149e92ead563fba08ef,62a441e9763199a518959d05,,,,,,,,,,,,,,,,,,,,,,,,,,,,,,,,,,,,,,,,,,,,,,,,,,,,,,,,,,,,,,,,,,,,,,,,,,,,,,,,,,,,,,,,,,,,"[""period""]",0,21,0,21,0,1,[0.027800000004390313],,
,,,,,,,,,,,,5de52f36a91be34a4ea35c71,27,Mężczyzna,2022-06-11_09h20.40.442,task,2021.1.4,Win32,143.020595,6299f149e92ead563fba08ef,62a441e9763199a518959d05,,,,,,,,,,,,,,,,,,,,,,,,,,,,,,,,,,,,,,,,,,,,,,,,,,,,,,,,,,,,,,,,,,,,,,,,,,,,,,,,,,,,,,,,,,,,"[""comma"",""period""]",0,22,0,22,0,1,"[0.21560000000158652,1.959400000005985]",,
,,,,,,,,,,,,5de52f36a91be34a4ea35c71,27,Mężczyzna,2022-06-11_09h20.40.442,task,2021.1.4,Win32,143.020595,6299f149e92ead563fba08ef,62a441e9763199a518959d05,,,,,,,,,,,,,,,,,,,,,,,,,,,,,,,,,,,,,,,,,,,,,,,,,,,,,,,,,,,,,,,,,,,,,,,,,,,,,,,,,,,,,,,,,,,,"[""period""]",0,23,0,23,0,1,[1.7159000000060587],,
,,,,,,,,,,,,5de52f36a91be34a4ea35c71,27,Mężczyzna,2022-06-11_09h20.40.442,task,2021.1.4,Win32,143.020595,6299f149e92ead563fba08ef,62a441e9763199a518959d05,,,,,,,,,,,,,,,,,,,,,,,,,,,,,,,,,,,,,,,,,,,,,,,,,,,,,,,,,,,,,,,,,,,,,,,,,,,,,,,,,,,,,,,,,,,,,0,24,0,24,0,1,,,
,,,,,,,,,,,,5de52f36a91be34a4ea35c71,27,Mężczyzna,2022-06-11_09h20.40.442,task,2021.1.4,Win32,143.020595,6299f149e92ead563fba08ef,62a441e9763199a518959d05,,,,,,,,,,,,,,,,,,,,,,,,,,,,,,,,,,,,,,,,,,,,,,,,,,,,,,,,,,,,,,,,,,,,,,,,,,,,,,,,,,,,,,,,,,,,"[""period""]",0,25,0,25,0,1,[0.0911999999955242],,
