key_resp_15.keys,key_resp_15.rt,key_resp_16.keys,key_resp_16.rt,key_resp_4.keys,key_resp_4.rt,next_letter.thisRepN,next_letter.thisTrialN,next_letter.thisN,next_letter.thisIndex,next_letter.ran,letter,participant,Wiek*,Płeć,date,expName,psychopyVersion,OS,frameRate,study_id,session,simple_recall,key_resp_5.keys,key_resp_5.rt,simple_recall_corr,simple_recall_corrkeys,next_level.thisRepN,next_level.thisTrialN,next_level.thisN,next_level.thisIndex,next_level.ran,key_resp_2.keys,key_resp_2.rt,digit_answer,key_resp.keys,key_resp.corr,key_resp.rt,RT_list,next_equation.thisRepN,next_equation.thisTrialN,next_equation.thisN,next_equation.thisIndex,next_equation.ran,Task,Trial,Problem,Operation_answer,processing_score,sumRT,meanRT,sumdiff,sd,RT,key_resp_3.keys,key_resp_3.rt,repeat_practice.thisRepN,repeat_practice.thisTrialN,repeat_practice.thisN,repeat_practice.thisIndex,repeat_practice.ran,key_resp_6.keys,key_resp_6.rt,key_resp_11.keys,key_resp_11.corr,key_resp_11.rt,operation_correct,repeat_if_wrong_prac.thisRepN,repeat_if_wrong_prac.thisTrialN,repeat_if_wrong_prac.thisN,repeat_if_wrong_prac.thisIndex,repeat_if_wrong_prac.ran,span_size_prac.thisRepN,span_size_prac.thisTrialN,span_size_prac.thisN,span_size_prac.thisIndex,span_size_prac.ran,complex_recall_practice,key_resp_9.keys,key_resp_9.corr,key_resp_9.rt,complex_prac_corr,span_recall_prac.thisRepN,span_recall_prac.thisTrialN,span_recall_prac.thisN,span_recall_prac.thisIndex,span_recall_prac.ran,key_resp_10.keys,key_resp_10.rt,key_resp_7.keys,key_resp_7.corr,key_resp_7.rt,repeat_if_wrong.thisRepN,repeat_if_wrong.thisTrialN,repeat_if_wrong.thisN,repeat_if_wrong.thisIndex,repeat_if_wrong.ran,span_size.thisRepN,span_size.thisTrialN,span_size.thisN,span_size.thisIndex,span_size.ran,complex_recall,key_resp_8.keys,key_resp_8.corr,key_resp_8.rt,complex_recall_corr,complex_recall_corrkeys,span_recall.thisRepN,span_recall.thisTrialN,span_recall.thisN,span_recall.thisIndex,span_recall.ran,key_resp_13.keys,key_resp_13.corr,key_resp_13.rt,random_loop.thisRepN,random_loop.thisTrialN,random_loop.thisN,random_loop.thisIndex,random_loop.ran,key_resp_12.keys,key_resp_12.rt
space,21.8205,space,14.9473,space,8.5517,0,0,0,0,1,X V Q F H G B L J M P D K C T S W R N Z,5dffb7505cc380bf9945baf6,39,Mężczyzna,2022-06-11_09h32.50.215,task,2021.1.4,Win32,143.8434983,6299f149e92ead563fba08ef,62a4446a62c49d4ad5076526,,,,,,,,,,,,,,,,,,,,,,,,,,,,,,,,,,,,,,,,,,,,,,,,,,,,,,,,,,,,,,,,,,,,,,,,,,,,,,,,,,,,,,,,,,,,,,,,,,,,,
,,,,,,1,0,1,0,1,X V Q F H G B L J M P D K C T S W R N Z,5dffb7505cc380bf9945baf6,39,Mężczyzna,2022-06-11_09h32.50.215,task,2021.1.4,Win32,143.8434983,6299f149e92ead563fba08ef,62a4446a62c49d4ad5076526,,,,,,,,,,,,,,,,,,,,,,,,,,,,,,,,,,,,,,,,,,,,,,,,,,,,,,,,,,,,,,,,,,,,,,,,,,,,,,,,,,,,,,,,,,,,,,,,,,,,,
,,,,,,,,,,,,5dffb7505cc380bf9945baf6,39,Mężczyzna,2022-06-11_09h32.50.215,task,2021.1.4,Win32,143.8434983,6299f149e92ead563fba08ef,62a4446a62c49d4ad5076526,zt,"[""z"",""t""]","[2.5035999999940444,2.83509999999405,4.092099999994055]",1,ZT,0,0,0,0,1,,,,,,,,,,,,,,,,,,,,,,,,,,,,,,,,,,,,,,,,,,,,,,,,,,,,,,,,,,,,,,,,,,,,,,,,,,,,,,,,,,,,,,,,,,,
,,,,,,0,0,0,0,1,X V Q F H G B L J M P D K C T S W R N Z,5dffb7505cc380bf9945baf6,39,Mężczyzna,2022-06-11_09h32.50.215,task,2021.1.4,Win32,143.8434983,6299f149e92ead563fba08ef,62a4446a62c49d4ad5076526,,,,,,,,,,,,,,,,,,,,,,,,,,,,,,,,,,,,,,,,,,,,,,,,,,,,,,,,,,,,,,,,,,,,,,,,,,,,,,,,,,,,,,,,,,,,,,,,,,,,,
,,,,,,1,0,1,0,1,X V Q F H G B L J M P D K C T S W R N Z,5dffb7505cc380bf9945baf6,39,Mężczyzna,2022-06-11_09h32.50.215,task,2021.1.4,Win32,143.8434983,6299f149e92ead563fba08ef,62a4446a62c49d4ad5076526,,,,,,,,,,,,,,,,,,,,,,,,,,,,,,,,,,,,,,,,,,,,,,,,,,,,,,,,,,,,,,,,,,,,,,,,,,,,,,,,,,,,,,,,,,,,,,,,,,,,,
,,,,,,,,,,,,5dffb7505cc380bf9945baf6,39,Mężczyzna,2022-06-11_09h32.50.215,task,2021.1.4,Win32,143.8434983,6299f149e92ead563fba08ef,62a4446a62c49d4ad5076526,bm,"[""b"",""m""]","[1.6117000000178763,1.8414999999999964,3.7734999999999985]",1,BM,1,0,1,0,1,,,,,,,,,,,,,,,,,,,,,,,,,,,,,,,,,,,,,,,,,,,,,,,,,,,,,,,,,,,,,,,,,,,,,,,,,,,,,,,,,,,,,,,,,,,
,,,,,,0,0,0,0,1,X V Q F H G B L J M P D K C T S W R N Z,5dffb7505cc380bf9945baf6,39,Mężczyzna,2022-06-11_09h32.50.215,task,2021.1.4,Win32,143.8434983,6299f149e92ead563fba08ef,62a4446a62c49d4ad5076526,,,,,,,,,,,,,,,,,,,,,,,,,,,,,,,,,,,,,,,,,,,,,,,,,,,,,,,,,,,,,,,,,,,,,,,,,,,,,,,,,,,,,,,,,,,,,,,,,,,,,
,,,,,,1,0,1,0,1,X V Q F H G B L J M P D K C T S W R N Z,5dffb7505cc380bf9945baf6,39,Mężczyzna,2022-06-11_09h32.50.215,task,2021.1.4,Win32,143.8434983,6299f149e92ead563fba08ef,62a4446a62c49d4ad5076526,,,,,,,,,,,,,,,,,,,,,,,,,,,,,,,,,,,,,,,,,,,,,,,,,,,,,,,,,,,,,,,,,,,,,,,,,,,,,,,,,,,,,,,,,,,,,,,,,,,,,
,,,,,,2,0,2,0,1,X V Q F H G B L J M P D K C T S W R N Z,5dffb7505cc380bf9945baf6,39,Mężczyzna,2022-06-11_09h32.50.215,task,2021.1.4,Win32,143.8434983,6299f149e92ead563fba08ef,62a4446a62c49d4ad5076526,,,,,,,,,,,,,,,,,,,,,,,,,,,,,,,,,,,,,,,,,,,,,,,,,,,,,,,,,,,,,,,,,,,,,,,,,,,,,,,,,,,,,,,,,,,,,,,,,,,,,
,,,,,,,,,,,,5dffb7505cc380bf9945baf6,39,Mężczyzna,2022-06-11_09h32.50.215,task,2021.1.4,Win32,143.8434983,6299f149e92ead563fba08ef,62a4446a62c49d4ad5076526,vhn,"[""v"",""h"",""n""]","[1.063300000011921,1.3576999999880854,1.6809999999999974,2.4586999999880845]",1,VHN,2,0,2,0,1,,,,,,,,,,,,,,,,,,,,,,,,,,,,,,,,,,,,,,,,,,,,,,,,,,,,,,,,,,,,,,,,,,,,,,,,,,,,,,,,,,,,,,,,,,,
,,,,,,0,0,0,0,1,X V Q F H G B L J M P D K C T S W R N Z,5dffb7505cc380bf9945baf6,39,Mężczyzna,2022-06-11_09h32.50.215,task,2021.1.4,Win32,143.8434983,6299f149e92ead563fba08ef,62a4446a62c49d4ad5076526,,,,,,,,,,,,,,,,,,,,,,,,,,,,,,,,,,,,,,,,,,,,,,,,,,,,,,,,,,,,,,,,,,,,,,,,,,,,,,,,,,,,,,,,,,,,,,,,,,,,,
,,,,,,1,0,1,0,1,X V Q F H G B L J M P D K C T S W R N Z,5dffb7505cc380bf9945baf6,39,Mężczyzna,2022-06-11_09h32.50.215,task,2021.1.4,Win32,143.8434983,6299f149e92ead563fba08ef,62a4446a62c49d4ad5076526,,,,,,,,,,,,,,,,,,,,,,,,,,,,,,,,,,,,,,,,,,,,,,,,,,,,,,,,,,,,,,,,,,,,,,,,,,,,,,,,,,,,,,,,,,,,,,,,,,,,,
,,,,,,2,0,2,0,1,X V Q F H G B L J M P D K C T S W R N Z,5dffb7505cc380bf9945baf6,39,Mężczyzna,2022-06-11_09h32.50.215,task,2021.1.4,Win32,143.8434983,6299f149e92ead563fba08ef,62a4446a62c49d4ad5076526,,,,,,,,,,,,,,,,,,,,,,,,,,,,,,,,,,,,,,,,,,,,,,,,,,,,,,,,,,,,,,,,,,,,,,,,,,,,,,,,,,,,,,,,,,,,,,,,,,,,,
,,,,,,,,,,,,5dffb7505cc380bf9945baf6,39,Mężczyzna,2022-06-11_09h32.50.215,task,2021.1.4,Win32,143.8434983,6299f149e92ead563fba08ef,62a4446a62c49d4ad5076526,djv,"[""d"",""j"",""v""]","[1.404400000005964,1.6334000000059632,1.9048000000119174,2.796200000017876]",1,DJV,3,0,3,0,1,,,,,,,,,,,,,,,,,,,,,,,,,,,,,,,,,,,,,,,,,,,,,,,,,,,,,,,,,,,,,,,,,,,,,,,,,,,,,,,,,,,,,,,,,,,
,,,,,,0,0,0,0,1,X V Q F H G B L J M P D K C T S W R N Z,5dffb7505cc380bf9945baf6,39,Mężczyzna,2022-06-11_09h32.50.215,task,2021.1.4,Win32,143.8434983,6299f149e92ead563fba08ef,62a4446a62c49d4ad5076526,,,,,,,,,,,,,,,,,,,,,,,,,,,,,,,,,,,,,,,,,,,,,,,,,,,,,,,,,,,,,,,,,,,,,,,,,,,,,,,,,,,,,,,,,,,,,,,,,,,,,
,,,,,,1,0,1,0,1,X V Q F H G B L J M P D K C T S W R N Z,5dffb7505cc380bf9945baf6,39,Mężczyzna,2022-06-11_09h32.50.215,task,2021.1.4,Win32,143.8434983,6299f149e92ead563fba08ef,62a4446a62c49d4ad5076526,,,,,,,,,,,,,,,,,,,,,,,,,,,,,,,,,,,,,,,,,,,,,,,,,,,,,,,,,,,,,,,,,,,,,,,,,,,,,,,,,,,,,,,,,,,,,,,,,,,,,
,,,,,,2,0,2,0,1,X V Q F H G B L J M P D K C T S W R N Z,5dffb7505cc380bf9945baf6,39,Mężczyzna,2022-06-11_09h32.50.215,task,2021.1.4,Win32,143.8434983,6299f149e92ead563fba08ef,62a4446a62c49d4ad5076526,,,,,,,,,,,,,,,,,,,,,,,,,,,,,,,,,,,,,,,,,,,,,,,,,,,,,,,,,,,,,,,,,,,,,,,,,,,,,,,,,,,,,,,,,,,,,,,,,,,,,
,,,,,,3,0,3,0,1,X V Q F H G B L J M P D K C T S W R N Z,5dffb7505cc380bf9945baf6,39,Mężczyzna,2022-06-11_09h32.50.215,task,2021.1.4,Win32,143.8434983,6299f149e92ead563fba08ef,62a4446a62c49d4ad5076526,,,,,,,,,,,,,,,,,,,,,,,,,,,,,,,,,,,,,,,,,,,,,,,,,,,,,,,,,,,,,,,,,,,,,,,,,,,,,,,,,,,,,,,,,,,,,,,,,,,,,
,,,,,,,,,,,,5dffb7505cc380bf9945baf6,39,Mężczyzna,2022-06-11_09h32.50.215,task,2021.1.4,Win32,143.8434983,6299f149e92ead563fba08ef,62a4446a62c49d4ad5076526,vlsp,"[""v"",""l"",""s"",""p""]","[0.9236999999880737,1.4030999999940406,1.9033000000119245,2.2111999999880823,2.951999999999998]",1,VLSP,4,0,4,0,1,,,,,,,,,,,,,,,,,,,,,,,,,,,,,,,,,,,,,,,,,,,,,,,,,,,,,,,,,,,,,,,,,,,,,,,,,,,,,,,,,,,,,,,,,,,
,,,,,,0,0,0,0,1,X V Q F H G B L J M P D K C T S W R N Z,5dffb7505cc380bf9945baf6,39,Mężczyzna,2022-06-11_09h32.50.215,task,2021.1.4,Win32,143.8434983,6299f149e92ead563fba08ef,62a4446a62c49d4ad5076526,,,,,,,,,,,,,,,,,,,,,,,,,,,,,,,,,,,,,,,,,,,,,,,,,,,,,,,,,,,,,,,,,,,,,,,,,,,,,,,,,,,,,,,,,,,,,,,,,,,,,
,,,,,,1,0,1,0,1,X V Q F H G B L J M P D K C T S W R N Z,5dffb7505cc380bf9945baf6,39,Mężczyzna,2022-06-11_09h32.50.215,task,2021.1.4,Win32,143.8434983,6299f149e92ead563fba08ef,62a4446a62c49d4ad5076526,,,,,,,,,,,,,,,,,,,,,,,,,,,,,,,,,,,,,,,,,,,,,,,,,,,,,,,,,,,,,,,,,,,,,,,,,,,,,,,,,,,,,,,,,,,,,,,,,,,,,
,,,,,,2,0,2,0,1,X V Q F H G B L J M P D K C T S W R N Z,5dffb7505cc380bf9945baf6,39,Mężczyzna,2022-06-11_09h32.50.215,task,2021.1.4,Win32,143.8434983,6299f149e92ead563fba08ef,62a4446a62c49d4ad5076526,,,,,,,,,,,,,,,,,,,,,,,,,,,,,,,,,,,,,,,,,,,,,,,,,,,,,,,,,,,,,,,,,,,,,,,,,,,,,,,,,,,,,,,,,,,,,,,,,,,,,
,,,,,,3,0,3,0,1,X V Q F H G B L J M P D K C T S W R N Z,5dffb7505cc380bf9945baf6,39,Mężczyzna,2022-06-11_09h32.50.215,task,2021.1.4,Win32,143.8434983,6299f149e92ead563fba08ef,62a4446a62c49d4ad5076526,,,,,,,,,,,,,,,,,,,,,,,,,,,,,,,,,,,,,,,,,,,,,,,,,,,,,,,,,,,,,,,,,,,,,,,,,,,,,,,,,,,,,,,,,,,,,,,,,,,,,
,,,,,,,,,,,,5dffb7505cc380bf9945baf6,39,Mężczyzna,2022-06-11_09h32.50.215,task,2021.1.4,Win32,143.8434983,6299f149e92ead563fba08ef,62a4446a62c49d4ad5076526,smhs,"[""s"",""m"",""h"",""s""]","[0.9722999999821269,1.3625000000000114,1.848099999994048,2.216799999982129,2.906699999988092]",1,SMHS,5,0,5,0,1,,,,,,,,,,,,,,,,,,,,,,,,,,,,,,,,,,,,,,,,,,,,,,,,,,,,,,,,,,,,,,,,,,,,,,,,,,,,,,,,,,,,,,,,,,,
,,,,,,0,0,0,0,1,X V Q F H G B L J M P D K C T S W R N Z,5dffb7505cc380bf9945baf6,39,Mężczyzna,2022-06-11_09h32.50.215,task,2021.1.4,Win32,143.8434983,6299f149e92ead563fba08ef,62a4446a62c49d4ad5076526,,,,,,,,,,,,,,,,,,,,,,,,,,,,,,,,,,,,,,,,,,,,,,,,,,,,,,,,,,,,,,,,,,,,,,,,,,,,,,,,,,,,,,,,,,,,,,,,,,,,,
,,,,,,1,0,1,0,1,X V Q F H G B L J M P D K C T S W R N Z,5dffb7505cc380bf9945baf6,39,Mężczyzna,2022-06-11_09h32.50.215,task,2021.1.4,Win32,143.8434983,6299f149e92ead563fba08ef,62a4446a62c49d4ad5076526,,,,,,,,,,,,,,,,,,,,,,,,,,,,,,,,,,,,,,,,,,,,,,,,,,,,,,,,,,,,,,,,,,,,,,,,,,,,,,,,,,,,,,,,,,,,,,,,,,,,,
,,,,,,2,0,2,0,1,X V Q F H G B L J M P D K C T S W R N Z,5dffb7505cc380bf9945baf6,39,Mężczyzna,2022-06-11_09h32.50.215,task,2021.1.4,Win32,143.8434983,6299f149e92ead563fba08ef,62a4446a62c49d4ad5076526,,,,,,,,,,,,,,,,,,,,,,,,,,,,,,,,,,,,,,,,,,,,,,,,,,,,,,,,,,,,,,,,,,,,,,,,,,,,,,,,,,,,,,,,,,,,,,,,,,,,,
,,,,,,3,0,3,0,1,X V Q F H G B L J M P D K C T S W R N Z,5dffb7505cc380bf9945baf6,39,Mężczyzna,2022-06-11_09h32.50.215,task,2021.1.4,Win32,143.8434983,6299f149e92ead563fba08ef,62a4446a62c49d4ad5076526,,,,,,,,,,,,,,,,,,,,,,,,,,,,,,,,,,,,,,,,,,,,,,,,,,,,,,,,,,,,,,,,,,,,,,,,,,,,,,,,,,,,,,,,,,,,,,,,,,,,,
,,,,,,4,0,4,0,1,X V Q F H G B L J M P D K C T S W R N Z,5dffb7505cc380bf9945baf6,39,Mężczyzna,2022-06-11_09h32.50.215,task,2021.1.4,Win32,143.8434983,6299f149e92ead563fba08ef,62a4446a62c49d4ad5076526,,,,,,,,,,,,,,,,,,,,,,,,,,,,,,,,,,,,,,,,,,,,,,,,,,,,,,,,,,,,,,,,,,,,,,,,,,,,,,,,,,,,,,,,,,,,,,,,,,,,,
,,,,,,,,,,,,5dffb7505cc380bf9945baf6,39,Mężczyzna,2022-06-11_09h32.50.215,task,2021.1.4,Win32,143.8434983,6299f149e92ead563fba08ef,62a4446a62c49d4ad5076526,sstnn,"[""s"",""s"",""t"",""n"",""n""]","[0.9260999999940367,1.1405999999940377,1.7245999999940267,2.0795999999940307,2.2379000000059506,2.966599999994031]",1,SSTNN,6,0,6,0,1,,,,,,,,,,,,,,,,,,,,,,,,,,,,,,,,,,,,,,,,,,,,,,,,,,,,,,,,,,,,,,,,,,,,,,,,,,,,,,,,,,,,,,,,,,,
,,,,,,0,0,0,0,1,X V Q F H G B L J M P D K C T S W R N Z,5dffb7505cc380bf9945baf6,39,Mężczyzna,2022-06-11_09h32.50.215,task,2021.1.4,Win32,143.8434983,6299f149e92ead563fba08ef,62a4446a62c49d4ad5076526,,,,,,,,,,,,,,,,,,,,,,,,,,,,,,,,,,,,,,,,,,,,,,,,,,,,,,,,,,,,,,,,,,,,,,,,,,,,,,,,,,,,,,,,,,,,,,,,,,,,,
,,,,,,1,0,1,0,1,X V Q F H G B L J M P D K C T S W R N Z,5dffb7505cc380bf9945baf6,39,Mężczyzna,2022-06-11_09h32.50.215,task,2021.1.4,Win32,143.8434983,6299f149e92ead563fba08ef,62a4446a62c49d4ad5076526,,,,,,,,,,,,,,,,,,,,,,,,,,,,,,,,,,,,,,,,,,,,,,,,,,,,,,,,,,,,,,,,,,,,,,,,,,,,,,,,,,,,,,,,,,,,,,,,,,,,,
,,,,,,2,0,2,0,1,X V Q F H G B L J M P D K C T S W R N Z,5dffb7505cc380bf9945baf6,39,Mężczyzna,2022-06-11_09h32.50.215,task,2021.1.4,Win32,143.8434983,6299f149e92ead563fba08ef,62a4446a62c49d4ad5076526,,,,,,,,,,,,,,,,,,,,,,,,,,,,,,,,,,,,,,,,,,,,,,,,,,,,,,,,,,,,,,,,,,,,,,,,,,,,,,,,,,,,,,,,,,,,,,,,,,,,,
,,,,,,3,0,3,0,1,X V Q F H G B L J M P D K C T S W R N Z,5dffb7505cc380bf9945baf6,39,Mężczyzna,2022-06-11_09h32.50.215,task,2021.1.4,Win32,143.8434983,6299f149e92ead563fba08ef,62a4446a62c49d4ad5076526,,,,,,,,,,,,,,,,,,,,,,,,,,,,,,,,,,,,,,,,,,,,,,,,,,,,,,,,,,,,,,,,,,,,,,,,,,,,,,,,,,,,,,,,,,,,,,,,,,,,,
,,,,,,4,0,4,0,1,X V Q F H G B L J M P D K C T S W R N Z,5dffb7505cc380bf9945baf6,39,Mężczyzna,2022-06-11_09h32.50.215,task,2021.1.4,Win32,143.8434983,6299f149e92ead563fba08ef,62a4446a62c49d4ad5076526,,,,,,,,,,,,,,,,,,,,,,,,,,,,,,,,,,,,,,,,,,,,,,,,,,,,,,,,,,,,,,,,,,,,,,,,,,,,,,,,,,,,,,,,,,,,,,,,,,,,,
,,,,,,,,,,,,5dffb7505cc380bf9945baf6,39,Mężczyzna,2022-06-11_09h32.50.215,task,2021.1.4,Win32,143.8434983,6299f149e92ead563fba08ef,62a4446a62c49d4ad5076526,sgtr,"[""s"",""g"",""t"",""r""]","[1.0083000000119142,1.383499999999998,1.7834000000059547,2.2311000000238295,2.737700000017881]",0,ZSGTR,7,0,7,0,1,,,,,,,,,,,,,,,,,,,,,,,,,,,,,,,,,,,,,,,,,,,,,,,,,,,,,,,,,,,,,,,,,,,,,,,,,,,,,,,,,,,,,,,,,,,
,,,,,,0,0,0,0,1,X V Q F H G B L J M P D K C T S W R N Z,5dffb7505cc380bf9945baf6,39,Mężczyzna,2022-06-11_09h32.50.215,task,2021.1.4,Win32,143.8434983,6299f149e92ead563fba08ef,62a4446a62c49d4ad5076526,,,,,,,,,,,,,,,,,,,,,,,,,,,,,,,,,,,,,,,,,,,,,,,,,,,,,,,,,,,,,,,,,,,,,,,,,,,,,,,,,,,,,,,,,,,,,,,,,,,,,
,,,,,,1,0,1,0,1,X V Q F H G B L J M P D K C T S W R N Z,5dffb7505cc380bf9945baf6,39,Mężczyzna,2022-06-11_09h32.50.215,task,2021.1.4,Win32,143.8434983,6299f149e92ead563fba08ef,62a4446a62c49d4ad5076526,,,,,,,,,,,,,,,,,,,,,,,,,,,,,,,,,,,,,,,,,,,,,,,,,,,,,,,,,,,,,,,,,,,,,,,,,,,,,,,,,,,,,,,,,,,,,,,,,,,,,
,,,,,,2,0,2,0,1,X V Q F H G B L J M P D K C T S W R N Z,5dffb7505cc380bf9945baf6,39,Mężczyzna,2022-06-11_09h32.50.215,task,2021.1.4,Win32,143.8434983,6299f149e92ead563fba08ef,62a4446a62c49d4ad5076526,,,,,,,,,,,,,,,,,,,,,,,,,,,,,,,,,,,,,,,,,,,,,,,,,,,,,,,,,,,,,,,,,,,,,,,,,,,,,,,,,,,,,,,,,,,,,,,,,,,,,
,,,,,,3,0,3,0,1,X V Q F H G B L J M P D K C T S W R N Z,5dffb7505cc380bf9945baf6,39,Mężczyzna,2022-06-11_09h32.50.215,task,2021.1.4,Win32,143.8434983,6299f149e92ead563fba08ef,62a4446a62c49d4ad5076526,,,,,,,,,,,,,,,,,,,,,,,,,,,,,,,,,,,,,,,,,,,,,,,,,,,,,,,,,,,,,,,,,,,,,,,,,,,,,,,,,,,,,,,,,,,,,,,,,,,,,
,,,,,,4,0,4,0,1,X V Q F H G B L J M P D K C T S W R N Z,5dffb7505cc380bf9945baf6,39,Mężczyzna,2022-06-11_09h32.50.215,task,2021.1.4,Win32,143.8434983,6299f149e92ead563fba08ef,62a4446a62c49d4ad5076526,,,,,,,,,,,,,,,,,,,,,,,,,,,,,,,,,,,,,,,,,,,,,,,,,,,,,,,,,,,,,,,,,,,,,,,,,,,,,,,,,,,,,,,,,,,,,,,,,,,,,
,,,,,,,,,,,,5dffb7505cc380bf9945baf6,39,Mężczyzna,2022-06-11_09h32.50.215,task,2021.1.4,Win32,143.8434983,6299f149e92ead563fba08ef,62a4446a62c49d4ad5076526,tktqr,"[""t"",""k"",""t"",""q"",""r""]","[1.0796999999880654,2.405099999994036,2.7804999999999893,3.3339000000059684,3.7719000000059566,4.488699999988086]",0,TKTQV,8,0,8,0,1,,,,,,,,,,,,,,,,,,,,,,,,,,,,,,,,,,,,,,,,,,,,,,,,,,,,,,,,,,,,,,,,,,,,,,,,,,,,,,,,,,,,,,,,,,,
,,,,,,0,0,0,0,1,X V Q F H G B L J M P D K C T S W R N Z,5dffb7505cc380bf9945baf6,39,Mężczyzna,2022-06-11_09h32.50.215,task,2021.1.4,Win32,143.8434983,6299f149e92ead563fba08ef,62a4446a62c49d4ad5076526,,,,,,,,,,,,,,,,,,,,,,,,,,,,,,,,,,,,,,,,,,,,,,,,,,,,,,,,,,,,,,,,,,,,,,,,,,,,,,,,,,,,,,,,,,,,,,,,,,,,,
,,,,,,1,0,1,0,1,X V Q F H G B L J M P D K C T S W R N Z,5dffb7505cc380bf9945baf6,39,Mężczyzna,2022-06-11_09h32.50.215,task,2021.1.4,Win32,143.8434983,6299f149e92ead563fba08ef,62a4446a62c49d4ad5076526,,,,,,,,,,,,,,,,,,,,,,,,,,,,,,,,,,,,,,,,,,,,,,,,,,,,,,,,,,,,,,,,,,,,,,,,,,,,,,,,,,,,,,,,,,,,,,,,,,,,,
,,,,,,2,0,2,0,1,X V Q F H G B L J M P D K C T S W R N Z,5dffb7505cc380bf9945baf6,39,Mężczyzna,2022-06-11_09h32.50.215,task,2021.1.4,Win32,143.8434983,6299f149e92ead563fba08ef,62a4446a62c49d4ad5076526,,,,,,,,,,,,,,,,,,,,,,,,,,,,,,,,,,,,,,,,,,,,,,,,,,,,,,,,,,,,,,,,,,,,,,,,,,,,,,,,,,,,,,,,,,,,,,,,,,,,,
,,,,,,3,0,3,0,1,X V Q F H G B L J M P D K C T S W R N Z,5dffb7505cc380bf9945baf6,39,Mężczyzna,2022-06-11_09h32.50.215,task,2021.1.4,Win32,143.8434983,6299f149e92ead563fba08ef,62a4446a62c49d4ad5076526,,,,,,,,,,,,,,,,,,,,,,,,,,,,,,,,,,,,,,,,,,,,,,,,,,,,,,,,,,,,,,,,,,,,,,,,,,,,,,,,,,,,,,,,,,,,,,,,,,,,,
,,,,,,4,0,4,0,1,X V Q F H G B L J M P D K C T S W R N Z,5dffb7505cc380bf9945baf6,39,Mężczyzna,2022-06-11_09h32.50.215,task,2021.1.4,Win32,143.8434983,6299f149e92ead563fba08ef,62a4446a62c49d4ad5076526,,,,,,,,,,,,,,,,,,,,,,,,,,,,,,,,,,,,,,,,,,,,,,,,,,,,,,,,,,,,,,,,,,,,,,,,,,,,,,,,,,,,,,,,,,,,,,,,,,,,,
,,,,,,,,,,,,5dffb7505cc380bf9945baf6,39,Mężczyzna,2022-06-11_09h32.50.215,task,2021.1.4,Win32,143.8434983,6299f149e92ead563fba08ef,62a4446a62c49d4ad5076526,snqhc,"[""s"",""n"",""q"",""h"",""c""]","[1.4877000000178668,2.0465999999940436,2.668300000011925,3.017499999999984,3.3698000000119066,4.1129999999999995]",1,SNQHC,9,0,9,0,1,,,,,,,,,,,,,,,,,,,,,,,,,,,,,,,,,,,,,,,,,,,,,,,,,,,,,,,,,,,,,,,,,,,,,,,,,,,,,,,,,,,,,,,,,,,
,,,,,,0,0,0,0,1,X V Q F H G B L J M P D K C T S W R N Z,5dffb7505cc380bf9945baf6,39,Mężczyzna,2022-06-11_09h32.50.215,task,2021.1.4,Win32,143.8434983,6299f149e92ead563fba08ef,62a4446a62c49d4ad5076526,,,,,,,,,,,,,,,,,,,,,,,,,,,,,,,,,,,,,,,,,,,,,,,,,,,,,,,,,,,,,,,,,,,,,,,,,,,,,,,,,,,,,,,,,,,,,,,,,,,,,
,,,,,,1,0,1,0,1,X V Q F H G B L J M P D K C T S W R N Z,5dffb7505cc380bf9945baf6,39,Mężczyzna,2022-06-11_09h32.50.215,task,2021.1.4,Win32,143.8434983,6299f149e92ead563fba08ef,62a4446a62c49d4ad5076526,,,,,,,,,,,,,,,,,,,,,,,,,,,,,,,,,,,,,,,,,,,,,,,,,,,,,,,,,,,,,,,,,,,,,,,,,,,,,,,,,,,,,,,,,,,,,,,,,,,,,
,,,,,,2,0,2,0,1,X V Q F H G B L J M P D K C T S W R N Z,5dffb7505cc380bf9945baf6,39,Mężczyzna,2022-06-11_09h32.50.215,task,2021.1.4,Win32,143.8434983,6299f149e92ead563fba08ef,62a4446a62c49d4ad5076526,,,,,,,,,,,,,,,,,,,,,,,,,,,,,,,,,,,,,,,,,,,,,,,,,,,,,,,,,,,,,,,,,,,,,,,,,,,,,,,,,,,,,,,,,,,,,,,,,,,,,
,,,,,,3,0,3,0,1,X V Q F H G B L J M P D K C T S W R N Z,5dffb7505cc380bf9945baf6,39,Mężczyzna,2022-06-11_09h32.50.215,task,2021.1.4,Win32,143.8434983,6299f149e92ead563fba08ef,62a4446a62c49d4ad5076526,,,,,,,,,,,,,,,,,,,,,,,,,,,,,,,,,,,,,,,,,,,,,,,,,,,,,,,,,,,,,,,,,,,,,,,,,,,,,,,,,,,,,,,,,,,,,,,,,,,,,
,,,,,,4,0,4,0,1,X V Q F H G B L J M P D K C T S W R N Z,5dffb7505cc380bf9945baf6,39,Mężczyzna,2022-06-11_09h32.50.215,task,2021.1.4,Win32,143.8434983,6299f149e92ead563fba08ef,62a4446a62c49d4ad5076526,,,,,,,,,,,,,,,,,,,,,,,,,,,,,,,,,,,,,,,,,,,,,,,,,,,,,,,,,,,,,,,,,,,,,,,,,,,,,,,,,,,,,,,,,,,,,,,,,,,,,
,,,,,,5,0,5,0,1,X V Q F H G B L J M P D K C T S W R N Z,5dffb7505cc380bf9945baf6,39,Mężczyzna,2022-06-11_09h32.50.215,task,2021.1.4,Win32,143.8434983,6299f149e92ead563fba08ef,62a4446a62c49d4ad5076526,,,,,,,,,,,,,,,,,,,,,,,,,,,,,,,,,,,,,,,,,,,,,,,,,,,,,,,,,,,,,,,,,,,,,,,,,,,,,,,,,,,,,,,,,,,,,,,,,,,,,
,,,,,,,,,,,,5dffb7505cc380bf9945baf6,39,Mężczyzna,2022-06-11_09h32.50.215,task,2021.1.4,Win32,143.8434983,6299f149e92ead563fba08ef,62a4446a62c49d4ad5076526,qzpms,"[""q"",""z"",""p"",""m"",""s""]","[2.5264999999999986,3.1030999999940434,3.693599999994035,4.118400000005948,5.651400000005964,5.943300000011931]",0,QZPMPD,10,0,10,0,1,,,,,,,,,,,,,,,,,,,,,,,,,,,,,,,,,,,,,,,,,,,,,,,,,,,,,,,,,,,,,,,,,,,,,,,,,,,,,,,,,,,,,,,,,,,
,,,,,,0,0,0,0,1,X V Q F H G B L J M P D K C T S W R N Z,5dffb7505cc380bf9945baf6,39,Mężczyzna,2022-06-11_09h32.50.215,task,2021.1.4,Win32,143.8434983,6299f149e92ead563fba08ef,62a4446a62c49d4ad5076526,,,,,,,,,,,,,,,,,,,,,,,,,,,,,,,,,,,,,,,,,,,,,,,,,,,,,,,,,,,,,,,,,,,,,,,,,,,,,,,,,,,,,,,,,,,,,,,,,,,,,
,,,,,,1,0,1,0,1,X V Q F H G B L J M P D K C T S W R N Z,5dffb7505cc380bf9945baf6,39,Mężczyzna,2022-06-11_09h32.50.215,task,2021.1.4,Win32,143.8434983,6299f149e92ead563fba08ef,62a4446a62c49d4ad5076526,,,,,,,,,,,,,,,,,,,,,,,,,,,,,,,,,,,,,,,,,,,,,,,,,,,,,,,,,,,,,,,,,,,,,,,,,,,,,,,,,,,,,,,,,,,,,,,,,,,,,
,,,,,,2,0,2,0,1,X V Q F H G B L J M P D K C T S W R N Z,5dffb7505cc380bf9945baf6,39,Mężczyzna,2022-06-11_09h32.50.215,task,2021.1.4,Win32,143.8434983,6299f149e92ead563fba08ef,62a4446a62c49d4ad5076526,,,,,,,,,,,,,,,,,,,,,,,,,,,,,,,,,,,,,,,,,,,,,,,,,,,,,,,,,,,,,,,,,,,,,,,,,,,,,,,,,,,,,,,,,,,,,,,,,,,,,
,,,,,,3,0,3,0,1,X V Q F H G B L J M P D K C T S W R N Z,5dffb7505cc380bf9945baf6,39,Mężczyzna,2022-06-11_09h32.50.215,task,2021.1.4,Win32,143.8434983,6299f149e92ead563fba08ef,62a4446a62c49d4ad5076526,,,,,,,,,,,,,,,,,,,,,,,,,,,,,,,,,,,,,,,,,,,,,,,,,,,,,,,,,,,,,,,,,,,,,,,,,,,,,,,,,,,,,,,,,,,,,,,,,,,,,
,,,,,,4,0,4,0,1,X V Q F H G B L J M P D K C T S W R N Z,5dffb7505cc380bf9945baf6,39,Mężczyzna,2022-06-11_09h32.50.215,task,2021.1.4,Win32,143.8434983,6299f149e92ead563fba08ef,62a4446a62c49d4ad5076526,,,,,,,,,,,,,,,,,,,,,,,,,,,,,,,,,,,,,,,,,,,,,,,,,,,,,,,,,,,,,,,,,,,,,,,,,,,,,,,,,,,,,,,,,,,,,,,,,,,,,
,,,,,,5,0,5,0,1,X V Q F H G B L J M P D K C T S W R N Z,5dffb7505cc380bf9945baf6,39,Mężczyzna,2022-06-11_09h32.50.215,task,2021.1.4,Win32,143.8434983,6299f149e92ead563fba08ef,62a4446a62c49d4ad5076526,,,,,,,,,,,,,,,,,,,,,,,,,,,,,,,,,,,,,,,,,,,,,,,,,,,,,,,,,,,,,,,,,,,,,,,,,,,,,,,,,,,,,,,,,,,,,,,,,,,,,
,,,,,,,,,,,,5dffb7505cc380bf9945baf6,39,Mężczyzna,2022-06-11_09h32.50.215,task,2021.1.4,Win32,143.8434983,6299f149e92ead563fba08ef,62a4446a62c49d4ad5076526,cgcckg,"[""c"",""g"",""c"",""c"",""k"",""g""]","[1.2542999999821234,1.8789999999999907,3.1985999999940304,3.4070999999940454,3.857199999988069,5.565199999988067,6.188899999976144]",0,CGCCKC,11,0,11,0,1,,,,,,,,,,,,,,,,,,,,,,,,,,,,,,,,,,,,,,,,,,,,,,,,,,,,,,,,,,,,,,,,,,,,,,,,,,,,,,,,,,,,,,,,,,,
,,,,,,0,0,0,0,1,X V Q F H G B L J M P D K C T S W R N Z,5dffb7505cc380bf9945baf6,39,Mężczyzna,2022-06-11_09h32.50.215,task,2021.1.4,Win32,143.8434983,6299f149e92ead563fba08ef,62a4446a62c49d4ad5076526,,,,,,,,,,,,,,,,,,,,,,,,,,,,,,,,,,,,,,,,,,,,,,,,,,,,,,,,,,,,,,,,,,,,,,,,,,,,,,,,,,,,,,,,,,,,,,,,,,,,,
,,,,,,1,0,1,0,1,X V Q F H G B L J M P D K C T S W R N Z,5dffb7505cc380bf9945baf6,39,Mężczyzna,2022-06-11_09h32.50.215,task,2021.1.4,Win32,143.8434983,6299f149e92ead563fba08ef,62a4446a62c49d4ad5076526,,,,,,,,,,,,,,,,,,,,,,,,,,,,,,,,,,,,,,,,,,,,,,,,,,,,,,,,,,,,,,,,,,,,,,,,,,,,,,,,,,,,,,,,,,,,,,,,,,,,,
,,,,,,2,0,2,0,1,X V Q F H G B L J M P D K C T S W R N Z,5dffb7505cc380bf9945baf6,39,Mężczyzna,2022-06-11_09h32.50.215,task,2021.1.4,Win32,143.8434983,6299f149e92ead563fba08ef,62a4446a62c49d4ad5076526,,,,,,,,,,,,,,,,,,,,,,,,,,,,,,,,,,,,,,,,,,,,,,,,,,,,,,,,,,,,,,,,,,,,,,,,,,,,,,,,,,,,,,,,,,,,,,,,,,,,,
,,,,,,3,0,3,0,1,X V Q F H G B L J M P D K C T S W R N Z,5dffb7505cc380bf9945baf6,39,Mężczyzna,2022-06-11_09h32.50.215,task,2021.1.4,Win32,143.8434983,6299f149e92ead563fba08ef,62a4446a62c49d4ad5076526,,,,,,,,,,,,,,,,,,,,,,,,,,,,,,,,,,,,,,,,,,,,,,,,,,,,,,,,,,,,,,,,,,,,,,,,,,,,,,,,,,,,,,,,,,,,,,,,,,,,,
,,,,,,4,0,4,0,1,X V Q F H G B L J M P D K C T S W R N Z,5dffb7505cc380bf9945baf6,39,Mężczyzna,2022-06-11_09h32.50.215,task,2021.1.4,Win32,143.8434983,6299f149e92ead563fba08ef,62a4446a62c49d4ad5076526,,,,,,,,,,,,,,,,,,,,,,,,,,,,,,,,,,,,,,,,,,,,,,,,,,,,,,,,,,,,,,,,,,,,,,,,,,,,,,,,,,,,,,,,,,,,,,,,,,,,,
,,,,,,5,0,5,0,1,X V Q F H G B L J M P D K C T S W R N Z,5dffb7505cc380bf9945baf6,39,Mężczyzna,2022-06-11_09h32.50.215,task,2021.1.4,Win32,143.8434983,6299f149e92ead563fba08ef,62a4446a62c49d4ad5076526,,,,,,,,,,,,,,,,,,,,,,,,,,,,,,,,,,,,,,,,,,,,,,,,,,,,,,,,,,,,,,,,,,,,,,,,,,,,,,,,,,,,,,,,,,,,,,,,,,,,,
,,,,,,,,,,,,5dffb7505cc380bf9945baf6,39,Mężczyzna,2022-06-11_09h32.50.215,task,2021.1.4,Win32,143.8434983,6299f149e92ead563fba08ef,62a4446a62c49d4ad5076526,rbhtsq,"[""r"",""b"",""h"",""t"",""s"",""q""]","[1.0559999999999832,1.5359000000059382,2.132499999999993,2.5426999999880593,3.003499999999974,3.4314000000059366,23.868599999994018]",0,RBHTSF,12,0,12,0,1,,,,,,,,,,,,,,,,,,,,,,,,,,,,,,,,,,,,,,,,,,,,,,,,,,,,,,,,,,,,,,,,,,,,,,,,,,,,,,,,,,,,,,,,,,,
,,,,,,,,,,,,5dffb7505cc380bf9945baf6,39,Mężczyzna,2022-06-11_09h32.50.215,task,2021.1.4,Win32,143.8434983,6299f149e92ead563fba08ef,62a4446a62c49d4ad5076526,,,,,,,,,,,space,8.0787,5,"[""5""]",1,[23.81230000001193],[23.81230000001193],0,0,0,5,1,Practice,6,(4/2) + 3,5,,,,,,,,,,,,,,,,,,,,,,,,,,,,,,,,,,,,,,,,,,,,,,,,,,,,,,,,,,,,,,,,,,,,,,,,,,,
,,,,,,,,,,,,5dffb7505cc380bf9945baf6,39,Mężczyzna,2022-06-11_09h32.50.215,task,2021.1.4,Win32,143.8434983,6299f149e92ead563fba08ef,62a4446a62c49d4ad5076526,,,,,,,,,,,,,0,"[""0""]",1,[3.5580999999940275],"[23.81230000001193,3.5580999999940275]",0,1,1,0,1,Practice,1,(3x3) -  9,0,,,,,,,,,,,,,,,,,,,,,,,,,,,,,,,,,,,,,,,,,,,,,,,,,,,,,,,,,,,,,,,,,,,,,,,,,,,
,,,,,,,,,,,,5dffb7505cc380bf9945baf6,39,Mężczyzna,2022-06-11_09h32.50.215,task,2021.1.4,Win32,143.8434983,6299f149e92ead563fba08ef,62a4446a62c49d4ad5076526,,,,,,,,,,,,,1,"[""1""]",1,[2.8957000000178823],"[23.81230000001193,3.5580999999940275,2.8957000000178823]",0,2,2,1,1,Practice,2,(4x4) - 15,1,,,,,,,,,,,,,,,,,,,,,,,,,,,,,,,,,,,,,,,,,,,,,,,,,,,,,,,,,,,,,,,,,,,,,,,,,,,
,,,,,,,,,,,,5dffb7505cc380bf9945baf6,39,Mężczyzna,2022-06-11_09h32.50.215,task,2021.1.4,Win32,143.8434983,6299f149e92ead563fba08ef,62a4446a62c49d4ad5076526,,,,,,,,,,,,,3,"[""3""]",1,[2.336799999982105],"[23.81230000001193,3.5580999999940275,2.8957000000178823,2.336799999982105]",0,3,3,3,1,Practice,4,(8/4) + 1,3,,,,,,,,,,,,,,,,,,,,,,,,,,,,,,,,,,,,,,,,,,,,,,,,,,,,,,,,,,,,,,,,,,,,,,,,,,,
,,,,,,,,,,,,5dffb7505cc380bf9945baf6,39,Mężczyzna,2022-06-11_09h32.50.215,task,2021.1.4,Win32,143.8434983,6299f149e92ead563fba08ef,62a4446a62c49d4ad5076526,,,,,,,,,,,,,6,"[""6""]",1,[5.187800000011862],"[23.81230000001193,3.5580999999940275,2.8957000000178823,2.336799999982105,5.187800000011862]",0,4,4,6,1,Practice,7,(25/5) + 1,6,,,,,,,,,,,,,,,,,,,,,,,,,,,,,,,,,,,,,,,,,,,,,,,,,,,,,,,,,,,,,,,,,,,,,,,,,,,
,,,,,,,,,,,,5dffb7505cc380bf9945baf6,39,Mężczyzna,2022-06-11_09h32.50.215,task,2021.1.4,Win32,143.8434983,6299f149e92ead563fba08ef,62a4446a62c49d4ad5076526,,,,,,,,,,,,,2,"[""2""]",1,[2.5495999999940295],"[23.81230000001193,3.5580999999940275,2.8957000000178823,2.336799999982105,5.187800000011862,2.5495999999940295]",0,5,5,2,1,Practice,3,(4x4) - 14,2,,,,,,,,,,,,,,,,,,,,,,,,,,,,,,,,,,,,,,,,,,,,,,,,,,,,,,,,,,,,,,,,,,,,,,,,,,,
,,,,,,,,,,,,5dffb7505cc380bf9945baf6,39,Mężczyzna,2022-06-11_09h32.50.215,task,2021.1.4,Win32,143.8434983,6299f149e92ead563fba08ef,62a4446a62c49d4ad5076526,,,,,,,,,,,,,8,"[""8""]",1,[2.372699999988072],"[23.81230000001193,3.5580999999940275,2.8957000000178823,2.336799999982105,5.187800000011862,2.5495999999940295,2.372699999988072]",0,6,6,8,1,Practice,9,(3x3) - 1,8,,,,,,,,,,,,,,,,,,,,,,,,,,,,,,,,,,,,,,,,,,,,,,,,,,,,,,,,,,,,,,,,,,,,,,,,,,,
,,,,,,,,,,,,5dffb7505cc380bf9945baf6,39,Mężczyzna,2022-06-11_09h32.50.215,task,2021.1.4,Win32,143.8434983,6299f149e92ead563fba08ef,62a4446a62c49d4ad5076526,,,,,,,,,,,,,4,"[""4""]",1,[3.966299999982084],"[23.81230000001193,3.5580999999940275,2.8957000000178823,2.336799999982105,5.187800000011862,2.5495999999940295,2.372699999988072,3.966299999982084]",0,7,7,4,1,Practice,5,(2x6) - 8,4,,,,,,,,,,,,,,,,,,,,,,,,,,,,,,,,,,,,,,,,,,,,,,,,,,,,,,,,,,,,,,,,,,,,,,,,,,,
,,,,,,,,,,,,5dffb7505cc380bf9945baf6,39,Mężczyzna,2022-06-11_09h32.50.215,task,2021.1.4,Win32,143.8434983,6299f149e92ead563fba08ef,62a4446a62c49d4ad5076526,,,,,,,,,,,,,9,"[""9""]",1,[2.43659999999403],"[23.81230000001193,3.5580999999940275,2.8957000000178823,2.336799999982105,5.187800000011862,2.5495999999940295,2.372699999988072,3.966299999982084,2.43659999999403]",0,8,8,9,1,Practice,10,(20/2) - 1,9,,,,,,,,,,,,,,,,,,,,,,,,,,,,,,,,,,,,,,,,,,,,,,,,,,,,,,,,,,,,,,,,,,,,,,,,,,,
,,,,,,,,,,,,5dffb7505cc380bf9945baf6,39,Mężczyzna,2022-06-11_09h32.50.215,task,2021.1.4,Win32,143.8434983,6299f149e92ead563fba08ef,62a4446a62c49d4ad5076526,,,,,,,,,,,,,7,"[""7""]",1,[2.9416999999880886],"[23.81230000001193,3.5580999999940275,2.8957000000178823,2.336799999982105,5.187800000011862,2.5495999999940295,2.372699999988072,3.966299999982084,2.43659999999403,2.9416999999880886]",0,9,9,7,1,Practice,8,(5x5) - 18,7,,,,,,,,,,,,,,,,,,,,,,,,,,,,,,,,,,,,,,,,,,,,,,,,,,,,,,,,,,,,,,,,,,,,,,,,,,,
,,,,,,,,,,,,5dffb7505cc380bf9945baf6,39,Mężczyzna,2022-06-11_09h32.50.215,task,2021.1.4,Win32,143.8434983,6299f149e92ead563fba08ef,62a4446a62c49d4ad5076526,,,,,,,,,,,,,,,,,,,,,,,,,,,1,52.0576,3.470506667,422.0086776,5.304141009,17.15519047,space,2.077,0,0,0,0,1,,,,,,,,,,,,,,,,,,,,,,,,,,,,,,,,,,,,,,,,,,,,,,,,,,,,,,,,,,,,,,
,,,,,,,,,,,,5dffb7505cc380bf9945baf6,39,Mężczyzna,2022-06-11_09h32.50.215,task,2021.1.4,Win32,143.8434983,6299f149e92ead563fba08ef,62a4446a62c49d4ad5076526,,,,,,,,,,,,,0,,,,,,,,,,Practice,1,(3x3) -  9,0,,,,,,,,,,,,,,space,32.7825,"[""0""]",1,[1.9206000000238532],1,0,0,0,0,1,,,,,,,,,,,,,,,,,,,,,,,,,,,,,,,,,,,,,,,,,,,,,,,,,,,
,,,,,,,,,,,X V Q F H G B L J M P D K C T S W R N Z,5dffb7505cc380bf9945baf6,39,Mężczyzna,2022-06-11_09h32.50.215,task,2021.1.4,Win32,143.8434983,6299f149e92ead563fba08ef,62a4446a62c49d4ad5076526,,,,,,,,,,,,,,,,,,,,,,,,,,,,,,,,,,,,,,,,,,,,,,,,,,,0,0,0,0,1,,,,,,,,,,,,,,,,,,,,,,,,,,,,,,,,,,,,,,,,,,,,,,
,,,,,,,,,,,,5dffb7505cc380bf9945baf6,39,Mężczyzna,2022-06-11_09h32.50.215,task,2021.1.4,Win32,143.8434983,6299f149e92ead563fba08ef,62a4446a62c49d4ad5076526,,,,,,,,,,,,,8,,,,,,,,,,Practice,9,(3x3) - 1,8,,,,,,,,,,,,,,,,"[""8""]",1,[4.103900000005979],1,0,0,0,8,1,,,,,,,,,,,,,,,,,,,,,,,,,,,,,,,,,,,,,,,,,,,,,,,,,,,
,,,,,,,,,,,X V Q F H G B L J M P D K C T S W R N Z,5dffb7505cc380bf9945baf6,39,Mężczyzna,2022-06-11_09h32.50.215,task,2021.1.4,Win32,143.8434983,6299f149e92ead563fba08ef,62a4446a62c49d4ad5076526,,,,,,,,,,,,,,,,,,,,,,,,,,,,,,,,,,,,,,,,,,,,,,,,,,,1,0,1,0,1,,,,,,,,,,,,,,,,,,,,,,,,,,,,,,,,,,,,,,,,,,,,,,
,,,,,,,,,,,,5dffb7505cc380bf9945baf6,39,Mężczyzna,2022-06-11_09h32.50.215,task,2021.1.4,Win32,143.8434983,6299f149e92ead563fba08ef,62a4446a62c49d4ad5076526,,,,,,,,,,,,,,,,,,,,,,,,,,,,,,,,,,,,,,,,,,,,,,,,,,,,,,,,zb,"[""z"",""b""]",0,"[3.189599999994016,3.8293000000118695,5.501900000005946]",1,0,0,0,0,1,,,,,,,,,,,,,,,,,,,,,,,,,,,,,,,,,,,,
,,,,,,,,,,,,5dffb7505cc380bf9945baf6,39,Mężczyzna,2022-06-11_09h32.50.215,task,2021.1.4,Win32,143.8434983,6299f149e92ead563fba08ef,62a4446a62c49d4ad5076526,,,,,,,,,,,,,8,,,,,,,,,,Practice,9,(3x3) - 1,8,,,,,,,,,,,,,,,,"[""8""]",1,[2.757900000005918],1,0,0,0,8,1,,,,,,,,,,,,,,,,,,,,,,,,,,,,,,,,,,,,,,,,,,,,,,,,,,,
,,,,,,,,,,,X V Q F H G B L J M P D K C T S W R N Z,5dffb7505cc380bf9945baf6,39,Mężczyzna,2022-06-11_09h32.50.215,task,2021.1.4,Win32,143.8434983,6299f149e92ead563fba08ef,62a4446a62c49d4ad5076526,,,,,,,,,,,,,,,,,,,,,,,,,,,,,,,,,,,,,,,,,,,,,,,,,,,0,0,0,0,1,,,,,,,,,,,,,,,,,,,,,,,,,,,,,,,,,,,,,,,,,,,,,,
,,,,,,,,,,,,5dffb7505cc380bf9945baf6,39,Mężczyzna,2022-06-11_09h32.50.215,task,2021.1.4,Win32,143.8434983,6299f149e92ead563fba08ef,62a4446a62c49d4ad5076526,,,,,,,,,,,,,7,,,,,,,,,,Practice,8,(5x5) - 18,7,,,,,,,,,,,,,,,,"[""7""]",1,[3.9059000000059427],1,0,0,0,7,1,,,,,,,,,,,,,,,,,,,,,,,,,,,,,,,,,,,,,,,,,,,,,,,,,,,
,,,,,,,,,,,X V Q F H G B L J M P D K C T S W R N Z,5dffb7505cc380bf9945baf6,39,Mężczyzna,2022-06-11_09h32.50.215,task,2021.1.4,Win32,143.8434983,6299f149e92ead563fba08ef,62a4446a62c49d4ad5076526,,,,,,,,,,,,,,,,,,,,,,,,,,,,,,,,,,,,,,,,,,,,,,,,,,,1,0,1,0,1,,,,,,,,,,,,,,,,,,,,,,,,,,,,,,,,,,,,,,,,,,,,,,
,,,,,,,,,,,,5dffb7505cc380bf9945baf6,39,Mężczyzna,2022-06-11_09h32.50.215,task,2021.1.4,Win32,143.8434983,6299f149e92ead563fba08ef,62a4446a62c49d4ad5076526,,,,,,,,,,,,,,,,,,,,,,,,,,,,,,,,,,,,,,,,,,,,,,,,,,,,,,,,bt,"[""b"",""t""]",0,"[3.633400000005963,3.9796999999880427,6.2086999999880845]",1,1,0,1,0,1,,,,,,,,,,,,,,,,,,,,,,,,,,,,,,,,,,,,
,,,,,,,,,,,,5dffb7505cc380bf9945baf6,39,Mężczyzna,2022-06-11_09h32.50.215,task,2021.1.4,Win32,143.8434983,6299f149e92ead563fba08ef,62a4446a62c49d4ad5076526,,,,,,,,,,,,,2,,,,,,,,,,Practice,3,(4x4) - 14,2,,,,,,,,,,,,,,,,"[""2""]",1,[2.165200000017876],1,0,0,0,2,1,,,,,,,,,,,,,,,,,,,,,,,,,,,,,,,,,,,,,,,,,,,,,,,,,,,
,,,,,,,,,,,X V Q F H G B L J M P D K C T S W R N Z,5dffb7505cc380bf9945baf6,39,Mężczyzna,2022-06-11_09h32.50.215,task,2021.1.4,Win32,143.8434983,6299f149e92ead563fba08ef,62a4446a62c49d4ad5076526,,,,,,,,,,,,,,,,,,,,,,,,,,,,,,,,,,,,,,,,,,,,,,,,,,,0,0,0,0,1,,,,,,,,,,,,,,,,,,,,,,,,,,,,,,,,,,,,,,,,,,,,,,
,,,,,,,,,,,,5dffb7505cc380bf9945baf6,39,Mężczyzna,2022-06-11_09h32.50.215,task,2021.1.4,Win32,143.8434983,6299f149e92ead563fba08ef,62a4446a62c49d4ad5076526,,,,,,,,,,,,,8,,,,,,,,,,Practice,9,(3x3) - 1,8,,,,,,,,,,,,,,,,"[""8""]",1,[3.0184999999999604],1,0,0,0,8,1,,,,,,,,,,,,,,,,,,,,,,,,,,,,,,,,,,,,,,,,,,,,,,,,,,,
,,,,,,,,,,,X V Q F H G B L J M P D K C T S W R N Z,5dffb7505cc380bf9945baf6,39,Mężczyzna,2022-06-11_09h32.50.215,task,2021.1.4,Win32,143.8434983,6299f149e92ead563fba08ef,62a4446a62c49d4ad5076526,,,,,,,,,,,,,,,,,,,,,,,,,,,,,,,,,,,,,,,,,,,,,,,,,,,1,0,1,0,1,,,,,,,,,,,,,,,,,,,,,,,,,,,,,,,,,,,,,,,,,,,,,,
,,,,,,,,,,,,5dffb7505cc380bf9945baf6,39,Mężczyzna,2022-06-11_09h32.50.215,task,2021.1.4,Win32,143.8434983,6299f149e92ead563fba08ef,62a4446a62c49d4ad5076526,,,,,,,,,,,,,,,,,,,,,,,,,,,,,,,,,,,,,,,,,,,,,,,,,,,,,,,,fn,"[""f"",""n""]",0,"[4.958599999994078,5.420400000005998,6.183400000005975]",1,2,0,2,0,1,,,,,,,,,,,,,,,,,,,,,,,,,,,,,,,,,,,,
,,,,,,,,,,,,5dffb7505cc380bf9945baf6,39,Mężczyzna,2022-06-11_09h32.50.215,task,2021.1.4,Win32,143.8434983,6299f149e92ead563fba08ef,62a4446a62c49d4ad5076526,,,,,,,,,,,,,3,,,,,,,,,,Task,3,(2x3) - 3,3,,,,,,,,,,,,,,,,,,,1,,,,,,,,,,,,,,,,,,,,,space,22.3273,"[""3""]",1,[2.312900000005982],0,0,0,2,1,,,,,,,,,,,,,,,,,,,,,,,,,,
,,,,,,,,,,,X V Q F H G B L J M P D K C T S W R N Z,5dffb7505cc380bf9945baf6,39,Mężczyzna,2022-06-11_09h32.50.215,task,2021.1.4,Win32,143.8434983,6299f149e92ead563fba08ef,62a4446a62c49d4ad5076526,,,,,,,,,,,,,,,,,,,,,,,,,,,,,,,,,,,,,,,,,,,,,,,,,,,,,,,,,,,,,,,,,,,,,,,,,,,,0,0,0,0,1,,,,,,,,,,,,,,,,,,,,,
,,,,,,,,,,,,5dffb7505cc380bf9945baf6,39,Mężczyzna,2022-06-11_09h32.50.215,task,2021.1.4,Win32,143.8434983,6299f149e92ead563fba08ef,62a4446a62c49d4ad5076526,,,,,,,,,,,,,1,,,,,,,,,,Task,1,(12/6) - 1,1,,,,,,,,,,,,,,,,,,,1,,,,,,,,,,,,,,,,,,,,,,,"[""1""]",1,[3.8720999999940204],0,0,0,0,1,,,,,,,,,,,,,,,,,,,,,,,,,,
,,,,,,,,,,,X V Q F H G B L J M P D K C T S W R N Z,5dffb7505cc380bf9945baf6,39,Mężczyzna,2022-06-11_09h32.50.215,task,2021.1.4,Win32,143.8434983,6299f149e92ead563fba08ef,62a4446a62c49d4ad5076526,,,,,,,,,,,,,,,,,,,,,,,,,,,,,,,,,,,,,,,,,,,,,,,,,,,,,,,,,,,,,,,,,,,,,,,,,,,,1,0,1,0,1,,,,,,,,,,,,,,,,,,,,,
,,,,,,,,,,,,5dffb7505cc380bf9945baf6,39,Mężczyzna,2022-06-11_09h32.50.215,task,2021.1.4,Win32,143.8434983,6299f149e92ead563fba08ef,62a4446a62c49d4ad5076526,,,,,,,,,,,,,,,,,,,,,,,,,,,,,,,,,,,,,,,,,,,,,,,,,,,,,,,,,,,,,,,,,,,,,,,,,,,,,,,,,zv,"[""z"",""v""]",0,"[2.5979999999999563,3.500900000005913,4.723300000011875]",1,ZV,0,0,0,0,1,,,,,,,,,,
,,,,,,,,,,,,5dffb7505cc380bf9945baf6,39,Mężczyzna,2022-06-11_09h32.50.215,task,2021.1.4,Win32,143.8434983,6299f149e92ead563fba08ef,62a4446a62c49d4ad5076526,,,,,,,,,,,,,2,,,,,,,,,,Task,19,(6/2) - 1,2,,,,,,,,,,,,,,,,,,,1,,,,,,,,,,,,,,,,,,,,,,,"[""2""]",1,[2.717699999988099],0,0,0,18,1,,,,,,,,,,,,,,,,,,,,,,,,,,
,,,,,,,,,,,X V Q F H G B L J M P D K C T S W R N Z,5dffb7505cc380bf9945baf6,39,Mężczyzna,2022-06-11_09h32.50.215,task,2021.1.4,Win32,143.8434983,6299f149e92ead563fba08ef,62a4446a62c49d4ad5076526,,,,,,,,,,,,,,,,,,,,,,,,,,,,,,,,,,,,,,,,,,,,,,,,,,,,,,,,,,,,,,,,,,,,,,,,,,,,0,0,0,0,1,,,,,,,,,,,,,,,,,,,,,
,,,,,,,,,,,,5dffb7505cc380bf9945baf6,39,Mężczyzna,2022-06-11_09h32.50.215,task,2021.1.4,Win32,143.8434983,6299f149e92ead563fba08ef,62a4446a62c49d4ad5076526,,,,,,,,,,,,,1,,,,,,,,,,Task,9,(3x7) - 20,1,,,,,,,,,,,,,,,,,,,1,,,,,,,,,,,,,,,,,,,,,,,"[""1""]",1,[3.380299999982128],0,0,0,8,1,,,,,,,,,,,,,,,,,,,,,,,,,,
,,,,,,,,,,,X V Q F H G B L J M P D K C T S W R N Z,5dffb7505cc380bf9945baf6,39,Mężczyzna,2022-06-11_09h32.50.215,task,2021.1.4,Win32,143.8434983,6299f149e92ead563fba08ef,62a4446a62c49d4ad5076526,,,,,,,,,,,,,,,,,,,,,,,,,,,,,,,,,,,,,,,,,,,,,,,,,,,,,,,,,,,,,,,,,,,,,,,,,,,,1,0,1,0,1,,,,,,,,,,,,,,,,,,,,,
,,,,,,,,,,,,5dffb7505cc380bf9945baf6,39,Mężczyzna,2022-06-11_09h32.50.215,task,2021.1.4,Win32,143.8434983,6299f149e92ead563fba08ef,62a4446a62c49d4ad5076526,,,,,,,,,,,,,1,,,,,,,,,,Task,18,(16/4) - 3,1,,,,,,,,,,,,,,,,,,,1,,,,,,,,,,,,,,,,,,,,,,,"[""1""]",1,[2.367900000005932],0,0,0,17,1,,,,,,,,,,,,,,,,,,,,,,,,,,
,,,,,,,,,,,X V Q F H G B L J M P D K C T S W R N Z,5dffb7505cc380bf9945baf6,39,Mężczyzna,2022-06-11_09h32.50.215,task,2021.1.4,Win32,143.8434983,6299f149e92ead563fba08ef,62a4446a62c49d4ad5076526,,,,,,,,,,,,,,,,,,,,,,,,,,,,,,,,,,,,,,,,,,,,,,,,,,,,,,,,,,,,,,,,,,,,,,,,,,,,2,0,2,0,1,,,,,,,,,,,,,,,,,,,,,
,,,,,,,,,,,,5dffb7505cc380bf9945baf6,39,Mężczyzna,2022-06-11_09h32.50.215,task,2021.1.4,Win32,143.8434983,6299f149e92ead563fba08ef,62a4446a62c49d4ad5076526,,,,,,,,,,,,,,,,,,,,,,,,,,,,,,,,,,,,,,,,,,,,,,,,,,,,,,,,,,,,,,,,,,,,,,,,,,,,,,,,,tmn,"[""t"",""m"",""n""]",0,"[2.56159999999403,3.3957000000178823,4.3127000000178555,6.610200000017869]",1,TMN,1,0,1,0,1,,,,,,,,,,
,,,,,,,,,,,,5dffb7505cc380bf9945baf6,39,Mężczyzna,2022-06-11_09h32.50.215,task,2021.1.4,Win32,143.8434983,6299f149e92ead563fba08ef,62a4446a62c49d4ad5076526,,,,,,,,,,,,,5,,,,,,,,,,Task,12,(4x4) - 11,5,,,,,,,,,,,,,,,,,,,1,,,,,,,,,,,,,,,,,,,,,,,"[""5""]",1,[7.887400000005982],0,0,0,11,1,,,,,,,,,,,,,,,,,,,,,,,,,,
,,,,,,,,,,,X V Q F H G B L J M P D K C T S W R N Z,5dffb7505cc380bf9945baf6,39,Mężczyzna,2022-06-11_09h32.50.215,task,2021.1.4,Win32,143.8434983,6299f149e92ead563fba08ef,62a4446a62c49d4ad5076526,,,,,,,,,,,,,,,,,,,,,,,,,,,,,,,,,,,,,,,,,,,,,,,,,,,,,,,,,,,,,,,,,,,,,,,,,,,,0,0,0,0,1,,,,,,,,,,,,,,,,,,,,,
,,,,,,,,,,,,5dffb7505cc380bf9945baf6,39,Mężczyzna,2022-06-11_09h32.50.215,task,2021.1.4,Win32,143.8434983,6299f149e92ead563fba08ef,62a4446a62c49d4ad5076526,,,,,,,,,,,,,8,,,,,,,,,,Task,23,(2x3) + 2,8,,,,,,,,,,,,,,,,,,,1,,,,,,,,,,,,,,,,,,,,,,,"[""8""]",1,[2.241999999999962],0,0,0,22,1,,,,,,,,,,,,,,,,,,,,,,,,,,
,,,,,,,,,,,X V Q F H G B L J M P D K C T S W R N Z,5dffb7505cc380bf9945baf6,39,Mężczyzna,2022-06-11_09h32.50.215,task,2021.1.4,Win32,143.8434983,6299f149e92ead563fba08ef,62a4446a62c49d4ad5076526,,,,,,,,,,,,,,,,,,,,,,,,,,,,,,,,,,,,,,,,,,,,,,,,,,,,,,,,,,,,,,,,,,,,,,,,,,,,1,0,1,0,1,,,,,,,,,,,,,,,,,,,,,
,,,,,,,,,,,,5dffb7505cc380bf9945baf6,39,Mężczyzna,2022-06-11_09h32.50.215,task,2021.1.4,Win32,143.8434983,6299f149e92ead563fba08ef,62a4446a62c49d4ad5076526,,,,,,,,,,,,,5,,,,,,,,,,Task,36,(8/4) + 3,5,,,,,,,,,,,,,,,,,,,1,,,,,,,,,,,,,,,,,,,,,,,"[""5""]",1,[2.5143000000119287],0,0,0,35,1,,,,,,,,,,,,,,,,,,,,,,,,,,
,,,,,,,,,,,X V Q F H G B L J M P D K C T S W R N Z,5dffb7505cc380bf9945baf6,39,Mężczyzna,2022-06-11_09h32.50.215,task,2021.1.4,Win32,143.8434983,6299f149e92ead563fba08ef,62a4446a62c49d4ad5076526,,,,,,,,,,,,,,,,,,,,,,,,,,,,,,,,,,,,,,,,,,,,,,,,,,,,,,,,,,,,,,,,,,,,,,,,,,,,2,0,2,0,1,,,,,,,,,,,,,,,,,,,,,
,,,,,,,,,,,,5dffb7505cc380bf9945baf6,39,Mężczyzna,2022-06-11_09h32.50.215,task,2021.1.4,Win32,143.8434983,6299f149e92ead563fba08ef,62a4446a62c49d4ad5076526,,,,,,,,,,,,,3,,,,,,,,,,Task,3,(2x3) - 3,3,,,,,,,,,,,,,,,,,,,1,,,,,,,,,,,,,,,,,,,,,,,"[""3""]",1,[2.1080999999940673],0,0,0,2,1,,,,,,,,,,,,,,,,,,,,,,,,,,
,,,,,,,,,,,X V Q F H G B L J M P D K C T S W R N Z,5dffb7505cc380bf9945baf6,39,Mężczyzna,2022-06-11_09h32.50.215,task,2021.1.4,Win32,143.8434983,6299f149e92ead563fba08ef,62a4446a62c49d4ad5076526,,,,,,,,,,,,,,,,,,,,,,,,,,,,,,,,,,,,,,,,,,,,,,,,,,,,,,,,,,,,,,,,,,,,,,,,,,,,3,0,3,0,1,,,,,,,,,,,,,,,,,,,,,
,,,,,,,,,,,,5dffb7505cc380bf9945baf6,39,Mężczyzna,2022-06-11_09h32.50.215,task,2021.1.4,Win32,143.8434983,6299f149e92ead563fba08ef,62a4446a62c49d4ad5076526,,,,,,,,,,,,,,,,,,,,,,,,,,,,,,,,,,,,,,,,,,,,,,,,,,,,,,,,,,,,,,,,,,,,,,,,,,,,,,,,,jmpr,"[""j"",""m"",""p"",""r""]",0,"[2.6668000000119036,3.4685999999940123,4.210300000011898,5.07650000000001,10.113800000011906]",1,JMPR,2,0,2,0,1,,,,,,,,,,
,,,,,,,,,,,,5dffb7505cc380bf9945baf6,39,Mężczyzna,2022-06-11_09h32.50.215,task,2021.1.4,Win32,143.8434983,6299f149e92ead563fba08ef,62a4446a62c49d4ad5076526,,,,,,,,,,,,,9,,,,,,,,,,Task,16,(3x8) - 15,9,,,,,,,,,,,,,,,,,,,1,,,,,,,,,,,,,,,,,,,,,,,"[""9""]",1,[2.6873000000119305],0,0,0,15,1,,,,,,,,,,,,,,,,,,,,,,,,,,
,,,,,,,,,,,X V Q F H G B L J M P D K C T S W R N Z,5dffb7505cc380bf9945baf6,39,Mężczyzna,2022-06-11_09h32.50.215,task,2021.1.4,Win32,143.8434983,6299f149e92ead563fba08ef,62a4446a62c49d4ad5076526,,,,,,,,,,,,,,,,,,,,,,,,,,,,,,,,,,,,,,,,,,,,,,,,,,,,,,,,,,,,,,,,,,,,,,,,,,,,0,0,0,0,1,,,,,,,,,,,,,,,,,,,,,
,,,,,,,,,,,,5dffb7505cc380bf9945baf6,39,Mężczyzna,2022-06-11_09h32.50.215,task,2021.1.4,Win32,143.8434983,6299f149e92ead563fba08ef,62a4446a62c49d4ad5076526,,,,,,,,,,,,,4,,,,,,,,,,Task,21,(10/2) - 1,4,,,,,,,,,,,,,,,,,,,1,,,,,,,,,,,,,,,,,,,,,,,"[""4""]",1,[2.699800000011919],0,0,0,20,1,,,,,,,,,,,,,,,,,,,,,,,,,,
,,,,,,,,,,,X V Q F H G B L J M P D K C T S W R N Z,5dffb7505cc380bf9945baf6,39,Mężczyzna,2022-06-11_09h32.50.215,task,2021.1.4,Win32,143.8434983,6299f149e92ead563fba08ef,62a4446a62c49d4ad5076526,,,,,,,,,,,,,,,,,,,,,,,,,,,,,,,,,,,,,,,,,,,,,,,,,,,,,,,,,,,,,,,,,,,,,,,,,,,,1,0,1,0,1,,,,,,,,,,,,,,,,,,,,,
,,,,,,,,,,,,5dffb7505cc380bf9945baf6,39,Mężczyzna,2022-06-11_09h32.50.215,task,2021.1.4,Win32,143.8434983,6299f149e92ead563fba08ef,62a4446a62c49d4ad5076526,,,,,,,,,,,,,5,,,,,,,,,,Task,4,(1x5) - 1,4,,,,,,,,,,,,,,,,,,,0,,,,,,,,,,,,,,,,,,,,,,,"[""5""]",0,[3.463199999988092],0,0,0,3,1,,,,,,,,,,,,,,,,,,,,,,,,,,
,,,,,,,,,,,,5dffb7505cc380bf9945baf6,39,Mężczyzna,2022-06-11_09h32.50.215,task,2021.1.4,Win32,143.8434983,6299f149e92ead563fba08ef,62a4446a62c49d4ad5076526,,,,,,,,,,,,,3,,,,,,,,,,Task,20,(18/9) + 1,3,,,,,,,,,,,,,,,,,,,1,,,,,,,,,,,,,,,,,,,,,,,"[""3""]",1,[5.498799999982111],0,1,1,19,1,,,,,,,,,,,,,,,,,,,,,,,,,,
,,,,,,,,,,,X V Q F H G B L J M P D K C T S W R N Z,5dffb7505cc380bf9945baf6,39,Mężczyzna,2022-06-11_09h32.50.215,task,2021.1.4,Win32,143.8434983,6299f149e92ead563fba08ef,62a4446a62c49d4ad5076526,,,,,,,,,,,,,,,,,,,,,,,,,,,,,,,,,,,,,,,,,,,,,,,,,,,,,,,,,,,,,,,,,,,,,,,,,,,,2,0,2,0,1,,,,,,,,,,,,,,,,,,,,,
,,,,,,,,,,,,5dffb7505cc380bf9945baf6,39,Mężczyzna,2022-06-11_09h32.50.215,task,2021.1.4,Win32,143.8434983,6299f149e92ead563fba08ef,62a4446a62c49d4ad5076526,,,,,,,,,,,,,4,,,,,,,,,,Task,21,(10/2) - 1,4,,,,,,,,,,,,,,,,,,,1,,,,,,,,,,,,,,,,,,,,,,,"[""4""]",1,[2.846099999994067],0,0,0,20,1,,,,,,,,,,,,,,,,,,,,,,,,,,
,,,,,,,,,,,X V Q F H G B L J M P D K C T S W R N Z,5dffb7505cc380bf9945baf6,39,Mężczyzna,2022-06-11_09h32.50.215,task,2021.1.4,Win32,143.8434983,6299f149e92ead563fba08ef,62a4446a62c49d4ad5076526,,,,,,,,,,,,,,,,,,,,,,,,,,,,,,,,,,,,,,,,,,,,,,,,,,,,,,,,,,,,,,,,,,,,,,,,,,,,3,0,3,0,1,,,,,,,,,,,,,,,,,,,,,
,,,,,,,,,,,,5dffb7505cc380bf9945baf6,39,Mężczyzna,2022-06-11_09h32.50.215,task,2021.1.4,Win32,143.8434983,6299f149e92ead563fba08ef,62a4446a62c49d4ad5076526,,,,,,,,,,,,,7,,,,,,,,,,Task,31,(4/2) + 5,7,,,,,,,,,,,,,,,,,,,1,,,,,,,,,,,,,,,,,,,,,,,"[""7""]",1,[2.603200000017864],0,0,0,30,1,,,,,,,,,,,,,,,,,,,,,,,,,,
,,,,,,,,,,,X V Q F H G B L J M P D K C T S W R N Z,5dffb7505cc380bf9945baf6,39,Mężczyzna,2022-06-11_09h32.50.215,task,2021.1.4,Win32,143.8434983,6299f149e92ead563fba08ef,62a4446a62c49d4ad5076526,,,,,,,,,,,,,,,,,,,,,,,,,,,,,,,,,,,,,,,,,,,,,,,,,,,,,,,,,,,,,,,,,,,,,,,,,,,,4,0,4,0,1,,,,,,,,,,,,,,,,,,,,,
,,,,,,,,,,,,5dffb7505cc380bf9945baf6,39,Mężczyzna,2022-06-11_09h32.50.215,task,2021.1.4,Win32,143.8434983,6299f149e92ead563fba08ef,62a4446a62c49d4ad5076526,,,,,,,,,,,,,,,,,,,,,,,,,,,,,,,,,,,,,,,,,,,,,,,,,,,,,,,,,,,,,,,,,,,,,,,,,,,,,,,,,kgsfd,"[""k"",""g"",""s"",""f"",""d""]",0,"[3.593099999994024,4.111400000005915,5.334299999982136,5.729400000005967,6.250499999999988,8.041599999993991]",1,KGSFD,3,0,3,0,1,,,,,,,,,,
,,,,,,,,,,,,5dffb7505cc380bf9945baf6,39,Mężczyzna,2022-06-11_09h32.50.215,task,2021.1.4,Win32,143.8434983,6299f149e92ead563fba08ef,62a4446a62c49d4ad5076526,,,,,,,,,,,,,0,,,,,,,,,,Task,8,(1x5) - 5,0,,,,,,,,,,,,,,,,,,,1,,,,,,,,,,,,,,,,,,,,,,,"[""0""]",1,[3.5131999999880463],0,0,0,7,1,,,,,,,,,,,,,,,,,,,,,,,,,,
,,,,,,,,,,,X V Q F H G B L J M P D K C T S W R N Z,5dffb7505cc380bf9945baf6,39,Mężczyzna,2022-06-11_09h32.50.215,task,2021.1.4,Win32,143.8434983,6299f149e92ead563fba08ef,62a4446a62c49d4ad5076526,,,,,,,,,,,,,,,,,,,,,,,,,,,,,,,,,,,,,,,,,,,,,,,,,,,,,,,,,,,,,,,,,,,,,,,,,,,,0,0,0,0,1,,,,,,,,,,,,,,,,,,,,,
,,,,,,,,,,,,5dffb7505cc380bf9945baf6,39,Mężczyzna,2022-06-11_09h32.50.215,task,2021.1.4,Win32,143.8434983,6299f149e92ead563fba08ef,62a4446a62c49d4ad5076526,,,,,,,,,,,,,3,,,,,,,,,,Task,3,(2x3) - 3,3,,,,,,,,,,,,,,,,,,,1,,,,,,,,,,,,,,,,,,,,,,,"[""3""]",1,[4.06149999999991],0,0,0,2,1,,,,,,,,,,,,,,,,,,,,,,,,,,
,,,,,,,,,,,X V Q F H G B L J M P D K C T S W R N Z,5dffb7505cc380bf9945baf6,39,Mężczyzna,2022-06-11_09h32.50.215,task,2021.1.4,Win32,143.8434983,6299f149e92ead563fba08ef,62a4446a62c49d4ad5076526,,,,,,,,,,,,,,,,,,,,,,,,,,,,,,,,,,,,,,,,,,,,,,,,,,,,,,,,,,,,,,,,,,,,,,,,,,,,1,0,1,0,1,,,,,,,,,,,,,,,,,,,,,
,,,,,,,,,,,,5dffb7505cc380bf9945baf6,39,Mężczyzna,2022-06-11_09h32.50.215,task,2021.1.4,Win32,143.8434983,6299f149e92ead563fba08ef,62a4446a62c49d4ad5076526,,,,,,,,,,,,,1,,,,,,,,,,Task,34,(9/3) - 2,1,,,,,,,,,,,,,,,,,,,1,,,,,,,,,,,,,,,,,,,,,,,"[""1""]",1,[2.2844000000060305],0,0,0,33,1,,,,,,,,,,,,,,,,,,,,,,,,,,
,,,,,,,,,,,X V Q F H G B L J M P D K C T S W R N Z,5dffb7505cc380bf9945baf6,39,Mężczyzna,2022-06-11_09h32.50.215,task,2021.1.4,Win32,143.8434983,6299f149e92ead563fba08ef,62a4446a62c49d4ad5076526,,,,,,,,,,,,,,,,,,,,,,,,,,,,,,,,,,,,,,,,,,,,,,,,,,,,,,,,,,,,,,,,,,,,,,,,,,,,2,0,2,0,1,,,,,,,,,,,,,,,,,,,,,
,,,,,,,,,,,,5dffb7505cc380bf9945baf6,39,Mężczyzna,2022-06-11_09h32.50.215,task,2021.1.4,Win32,143.8434983,6299f149e92ead563fba08ef,62a4446a62c49d4ad5076526,,,,,,,,,,,,,5,,,,,,,,,,Task,12,(4x4) - 11,5,,,,,,,,,,,,,,,,,,,1,,,,,,,,,,,,,,,,,,,,,,,"[""5""]",1,[2.886900000005994],0,0,0,11,1,,,,,,,,,,,,,,,,,,,,,,,,,,
,,,,,,,,,,,X V Q F H G B L J M P D K C T S W R N Z,5dffb7505cc380bf9945baf6,39,Mężczyzna,2022-06-11_09h32.50.215,task,2021.1.4,Win32,143.8434983,6299f149e92ead563fba08ef,62a4446a62c49d4ad5076526,,,,,,,,,,,,,,,,,,,,,,,,,,,,,,,,,,,,,,,,,,,,,,,,,,,,,,,,,,,,,,,,,,,,,,,,,,,,3,0,3,0,1,,,,,,,,,,,,,,,,,,,,,
,,,,,,,,,,,,5dffb7505cc380bf9945baf6,39,Mężczyzna,2022-06-11_09h32.50.215,task,2021.1.4,Win32,143.8434983,6299f149e92ead563fba08ef,62a4446a62c49d4ad5076526,,,,,,,,,,,,,0,,,,,,,,,,Task,17,(2x3) - 6,0,,,,,,,,,,,,,,,,,,,1,,,,,,,,,,,,,,,,,,,,,,,"[""0""]",1,[2.1816000000237636],0,0,0,16,1,,,,,,,,,,,,,,,,,,,,,,,,,,
,,,,,,,,,,,X V Q F H G B L J M P D K C T S W R N Z,5dffb7505cc380bf9945baf6,39,Mężczyzna,2022-06-11_09h32.50.215,task,2021.1.4,Win32,143.8434983,6299f149e92ead563fba08ef,62a4446a62c49d4ad5076526,,,,,,,,,,,,,,,,,,,,,,,,,,,,,,,,,,,,,,,,,,,,,,,,,,,,,,,,,,,,,,,,,,,,,,,,,,,,4,0,4,0,1,,,,,,,,,,,,,,,,,,,,,
,,,,,,,,,,,,5dffb7505cc380bf9945baf6,39,Mężczyzna,2022-06-11_09h32.50.215,task,2021.1.4,Win32,143.8434983,6299f149e92ead563fba08ef,62a4446a62c49d4ad5076526,,,,,,,,,,,,,0,,,,,,,,,,Task,33,(1/1) - 1,0,,,,,,,,,,,,,,,,,,,1,,,,,,,,,,,,,,,,,,,,,,,"[""0""]",1,[2.5606000000237827],0,0,0,32,1,,,,,,,,,,,,,,,,,,,,,,,,,,
,,,,,,,,,,,X V Q F H G B L J M P D K C T S W R N Z,5dffb7505cc380bf9945baf6,39,Mężczyzna,2022-06-11_09h32.50.215,task,2021.1.4,Win32,143.8434983,6299f149e92ead563fba08ef,62a4446a62c49d4ad5076526,,,,,,,,,,,,,,,,,,,,,,,,,,,,,,,,,,,,,,,,,,,,,,,,,,,,,,,,,,,,,,,,,,,,,,,,,,,,5,0,5,0,1,,,,,,,,,,,,,,,,,,,,,
,,,,,,,,,,,,5dffb7505cc380bf9945baf6,39,Mężczyzna,2022-06-11_09h32.50.215,task,2021.1.4,Win32,143.8434983,6299f149e92ead563fba08ef,62a4446a62c49d4ad5076526,,,,,,,,,,,,,,,,,,,,,,,,,,,,,,,,,,,,,,,,,,,,,,,,,,,,,,,,,,,,,,,,,,,,,,,,,,,,,,,,,frxmbm,"[""f"",""r"",""x"",""m"",""b"",""m""]",0,"[2.243400000005977,3.1958000000119,4.145999999999958,5.896300000011934,6.427199999988034,6.724400000005971,7.785400000006007]",1,FRXMBM,4,0,4,0,1,,,,,,,,,,
,,,,,,,,,,,,5dffb7505cc380bf9945baf6,39,Mężczyzna,2022-06-11_09h32.50.215,task,2021.1.4,Win32,143.8434983,6299f149e92ead563fba08ef,62a4446a62c49d4ad5076526,,,,,,,,,,,,,8,,,,,,,,,,Task,39,(5x3) - 7,8,,,,,,,,,,,,,,,,,,,1,,,,,,,,,,,,,,,,,,,,,,,"[""8""]",1,[3.202399999976251],0,0,0,38,1,,,,,,,,,,,,,,,,,,,,,,,,,,
,,,,,,,,,,,X V Q F H G B L J M P D K C T S W R N Z,5dffb7505cc380bf9945baf6,39,Mężczyzna,2022-06-11_09h32.50.215,task,2021.1.4,Win32,143.8434983,6299f149e92ead563fba08ef,62a4446a62c49d4ad5076526,,,,,,,,,,,,,,,,,,,,,,,,,,,,,,,,,,,,,,,,,,,,,,,,,,,,,,,,,,,,,,,,,,,,,,,,,,,,0,0,0,0,1,,,,,,,,,,,,,,,,,,,,,
,,,,,,,,,,,,5dffb7505cc380bf9945baf6,39,Mężczyzna,2022-06-11_09h32.50.215,task,2021.1.4,Win32,143.8434983,6299f149e92ead563fba08ef,62a4446a62c49d4ad5076526,,,,,,,,,,,,,1,,,,,,,,,,Task,34,(9/3) - 2,1,,,,,,,,,,,,,,,,,,,1,,,,,,,,,,,,,,,,,,,,,,,"[""1""]",1,[3.077599999993936],0,0,0,33,1,,,,,,,,,,,,,,,,,,,,,,,,,,
,,,,,,,,,,,X V Q F H G B L J M P D K C T S W R N Z,5dffb7505cc380bf9945baf6,39,Mężczyzna,2022-06-11_09h32.50.215,task,2021.1.4,Win32,143.8434983,6299f149e92ead563fba08ef,62a4446a62c49d4ad5076526,,,,,,,,,,,,,,,,,,,,,,,,,,,,,,,,,,,,,,,,,,,,,,,,,,,,,,,,,,,,,,,,,,,,,,,,,,,,1,0,1,0,1,,,,,,,,,,,,,,,,,,,,,
,,,,,,,,,,,,5dffb7505cc380bf9945baf6,39,Mężczyzna,2022-06-11_09h32.50.215,task,2021.1.4,Win32,143.8434983,6299f149e92ead563fba08ef,62a4446a62c49d4ad5076526,,,,,,,,,,,,,5,,,,,,,,,,Task,1,(12/6) - 1,1,,,,,,,,,,,,,,,,,,,0,,,,,,,,,,,,,,,,,,,,,,,"[""5""]",0,[2.455500000000029],0,0,0,0,1,,,,,,,,,,,,,,,,,,,,,,,,,,
,,,,,,,,,,,,5dffb7505cc380bf9945baf6,39,Mężczyzna,2022-06-11_09h32.50.215,task,2021.1.4,Win32,143.8434983,6299f149e92ead563fba08ef,62a4446a62c49d4ad5076526,,,,,,,,,,,,,8,,,,,,,,,,Task,39,(5x3) - 7,8,,,,,,,,,,,,,,,,,,,1,,,,,,,,,,,,,,,,,,,,,,,"[""8""]",1,[5.483200000017973],0,1,1,38,1,,,,,,,,,,,,,,,,,,,,,,,,,,
,,,,,,,,,,,X V Q F H G B L J M P D K C T S W R N Z,5dffb7505cc380bf9945baf6,39,Mężczyzna,2022-06-11_09h32.50.215,task,2021.1.4,Win32,143.8434983,6299f149e92ead563fba08ef,62a4446a62c49d4ad5076526,,,,,,,,,,,,,,,,,,,,,,,,,,,,,,,,,,,,,,,,,,,,,,,,,,,,,,,,,,,,,,,,,,,,,,,,,,,,2,0,2,0,1,,,,,,,,,,,,,,,,,,,,,
,,,,,,,,,,,,5dffb7505cc380bf9945baf6,39,Mężczyzna,2022-06-11_09h32.50.215,task,2021.1.4,Win32,143.8434983,6299f149e92ead563fba08ef,62a4446a62c49d4ad5076526,,,,,,,,,,,,,7,,,,,,,,,,Task,6,(12/2) + 1,7,,,,,,,,,,,,,,,,,,,1,,,,,,,,,,,,,,,,,,,,,,,"[""7""]",1,[2.3394000000059805],0,0,0,5,1,,,,,,,,,,,,,,,,,,,,,,,,,,
,,,,,,,,,,,X V Q F H G B L J M P D K C T S W R N Z,5dffb7505cc380bf9945baf6,39,Mężczyzna,2022-06-11_09h32.50.215,task,2021.1.4,Win32,143.8434983,6299f149e92ead563fba08ef,62a4446a62c49d4ad5076526,,,,,,,,,,,,,,,,,,,,,,,,,,,,,,,,,,,,,,,,,,,,,,,,,,,,,,,,,,,,,,,,,,,,,,,,,,,,3,0,3,0,1,,,,,,,,,,,,,,,,,,,,,
,,,,,,,,,,,,5dffb7505cc380bf9945baf6,39,Mężczyzna,2022-06-11_09h32.50.215,task,2021.1.4,Win32,143.8434983,6299f149e92ead563fba08ef,62a4446a62c49d4ad5076526,,,,,,,,,,,,,3,,,,,,,,,,Task,25,(10/5) - 2,0,,,,,,,,,,,,,,,,,,,0,,,,,,,,,,,,,,,,,,,,,,,"[""3""]",0,[2.450599999993983],0,0,0,24,1,,,,,,,,,,,,,,,,,,,,,,,,,,
,,,,,,,,,,,,5dffb7505cc380bf9945baf6,39,Mężczyzna,2022-06-11_09h32.50.215,task,2021.1.4,Win32,143.8434983,6299f149e92ead563fba08ef,62a4446a62c49d4ad5076526,,,,,,,,,,,,,6,,,,,,,,,,Task,30,(6/3) + 4 ,6,,,,,,,,,,,,,,,,,,,1,,,,,,,,,,,,,,,,,,,,,,,"[""6""]",1,[6.846099999994067],0,1,1,29,1,,,,,,,,,,,,,,,,,,,,,,,,,,
,,,,,,,,,,,X V Q F H G B L J M P D K C T S W R N Z,5dffb7505cc380bf9945baf6,39,Mężczyzna,2022-06-11_09h32.50.215,task,2021.1.4,Win32,143.8434983,6299f149e92ead563fba08ef,62a4446a62c49d4ad5076526,,,,,,,,,,,,,,,,,,,,,,,,,,,,,,,,,,,,,,,,,,,,,,,,,,,,,,,,,,,,,,,,,,,,,,,,,,,,4,0,4,0,1,,,,,,,,,,,,,,,,,,,,,
,,,,,,,,,,,,5dffb7505cc380bf9945baf6,39,Mężczyzna,2022-06-11_09h32.50.215,task,2021.1.4,Win32,143.8434983,6299f149e92ead563fba08ef,62a4446a62c49d4ad5076526,,,,,,,,,,,,,4,,,,,,,,,,Task,4,(1x5) - 1,4,,,,,,,,,,,,,,,,,,,1,,,,,,,,,,,,,,,,,,,,,,,"[""4""]",1,[3.319100000023809],0,0,0,3,1,,,,,,,,,,,,,,,,,,,,,,,,,,
,,,,,,,,,,,X V Q F H G B L J M P D K C T S W R N Z,5dffb7505cc380bf9945baf6,39,Mężczyzna,2022-06-11_09h32.50.215,task,2021.1.4,Win32,143.8434983,6299f149e92ead563fba08ef,62a4446a62c49d4ad5076526,,,,,,,,,,,,,,,,,,,,,,,,,,,,,,,,,,,,,,,,,,,,,,,,,,,,,,,,,,,,,,,,,,,,,,,,,,,,5,0,5,0,1,,,,,,,,,,,,,,,,,,,,,
,,,,,,,,,,,,5dffb7505cc380bf9945baf6,39,Mężczyzna,2022-06-11_09h32.50.215,task,2021.1.4,Win32,143.8434983,6299f149e92ead563fba08ef,62a4446a62c49d4ad5076526,,,,,,,,,,,,,9,,,,,,,,,,Task,40,(7x2) - 5,9,,,,,,,,,,,,,,,,,,,1,,,,,,,,,,,,,,,,,,,,,,,"[""9""]",1,[3.3067000000179405],0,0,0,39,1,,,,,,,,,,,,,,,,,,,,,,,,,,
,,,,,,,,,,,X V Q F H G B L J M P D K C T S W R N Z,5dffb7505cc380bf9945baf6,39,Mężczyzna,2022-06-11_09h32.50.215,task,2021.1.4,Win32,143.8434983,6299f149e92ead563fba08ef,62a4446a62c49d4ad5076526,,,,,,,,,,,,,,,,,,,,,,,,,,,,,,,,,,,,,,,,,,,,,,,,,,,,,,,,,,,,,,,,,,,,,,,,,,,,6,0,6,0,1,,,,,,,,,,,,,,,,,,,,,
,,,,,,,,,,,,5dffb7505cc380bf9945baf6,39,Mężczyzna,2022-06-11_09h32.50.215,task,2021.1.4,Win32,143.8434983,6299f149e92ead563fba08ef,62a4446a62c49d4ad5076526,,,,,,,,,,,,,,,,,,,,,,,,,,,,,,,,,,,,,,,,,,,,,,,,,,,,,,,,,,,,,,,,,,,,,,,,,,,,,,,,,sdfhwq,"[""s"",""d"",""f"",""h"",""w"",""q""]",0,"[2.7709000000060087,3.238300000011918,4.631099999994035,6.445599999994101,9.263599999994085,9.508099999994101,12.763400000005959]",0,SDFHKQW,5,0,5,0,1,,,,,,,,,,
,,,,,,,,,,,,5dffb7505cc380bf9945baf6,39,Mężczyzna,2022-06-11_09h32.50.215,task,2021.1.4,Win32,143.8434983,6299f149e92ead563fba08ef,62a4446a62c49d4ad5076526,,,,,,,,,,,,,3,,,,,,,,,,Task,20,(18/9) + 1,3,,,,,,,,,,,,,,,,,,,1,,,,,,,,,,,,,,,,,,,,,,,"[""3""]",1,[4.6950999999939995],0,0,0,19,1,,,,,,,,,,,,,,,,,,,,,,,,,,
,,,,,,,,,,,X V Q F H G B L J M P D K C T S W R N Z,5dffb7505cc380bf9945baf6,39,Mężczyzna,2022-06-11_09h32.50.215,task,2021.1.4,Win32,143.8434983,6299f149e92ead563fba08ef,62a4446a62c49d4ad5076526,,,,,,,,,,,,,,,,,,,,,,,,,,,,,,,,,,,,,,,,,,,,,,,,,,,,,,,,,,,,,,,,,,,,,,,,,,,,0,0,0,0,1,,,,,,,,,,,,,,,,,,,,,
,,,,,,,,,,,,5dffb7505cc380bf9945baf6,39,Mężczyzna,2022-06-11_09h32.50.215,task,2021.1.4,Win32,143.8434983,6299f149e92ead563fba08ef,62a4446a62c49d4ad5076526,,,,,,,,,,,,,4,,,,,,,,,,Task,28,(2x5) - 6,4,,,,,,,,,,,,,,,,,,,1,,,,,,,,,,,,,,,,,,,,,,,"[""4""]",1,[2.7802999999821623],0,0,0,27,1,,,,,,,,,,,,,,,,,,,,,,,,,,
,,,,,,,,,,,X V Q F H G B L J M P D K C T S W R N Z,5dffb7505cc380bf9945baf6,39,Mężczyzna,2022-06-11_09h32.50.215,task,2021.1.4,Win32,143.8434983,6299f149e92ead563fba08ef,62a4446a62c49d4ad5076526,,,,,,,,,,,,,,,,,,,,,,,,,,,,,,,,,,,,,,,,,,,,,,,,,,,,,,,,,,,,,,,,,,,,,,,,,,,,1,0,1,0,1,,,,,,,,,,,,,,,,,,,,,
,,,,,,,,,,,,5dffb7505cc380bf9945baf6,39,Mężczyzna,2022-06-11_09h32.50.215,task,2021.1.4,Win32,143.8434983,6299f149e92ead563fba08ef,62a4446a62c49d4ad5076526,,,,,,,,,,,,,8,,,,,,,,,,Task,15,(3x7) - 13,8,,,,,,,,,,,,,,,,,,,1,,,,,,,,,,,,,,,,,,,,,,,"[""8""]",1,[7.0837000000178705],0,0,0,14,1,,,,,,,,,,,,,,,,,,,,,,,,,,
,,,,,,,,,,,X V Q F H G B L J M P D K C T S W R N Z,5dffb7505cc380bf9945baf6,39,Mężczyzna,2022-06-11_09h32.50.215,task,2021.1.4,Win32,143.8434983,6299f149e92ead563fba08ef,62a4446a62c49d4ad5076526,,,,,,,,,,,,,,,,,,,,,,,,,,,,,,,,,,,,,,,,,,,,,,,,,,,,,,,,,,,,,,,,,,,,,,,,,,,,2,0,2,0,1,,,,,,,,,,,,,,,,,,,,,
,,,,,,,,,,,,5dffb7505cc380bf9945baf6,39,Mężczyzna,2022-06-11_09h32.50.215,task,2021.1.4,Win32,143.8434983,6299f149e92ead563fba08ef,62a4446a62c49d4ad5076526,,,,,,,,,,,,,9,,,,,,,,,,Task,40,(7x2) - 5,9,,,,,,,,,,,,,,,,,,,1,,,,,,,,,,,,,,,,,,,,,,,"[""9""]",1,[4.819800000011924],0,0,0,39,1,,,,,,,,,,,,,,,,,,,,,,,,,,
,,,,,,,,,,,X V Q F H G B L J M P D K C T S W R N Z,5dffb7505cc380bf9945baf6,39,Mężczyzna,2022-06-11_09h32.50.215,task,2021.1.4,Win32,143.8434983,6299f149e92ead563fba08ef,62a4446a62c49d4ad5076526,,,,,,,,,,,,,,,,,,,,,,,,,,,,,,,,,,,,,,,,,,,,,,,,,,,,,,,,,,,,,,,,,,,,,,,,,,,,3,0,3,0,1,,,,,,,,,,,,,,,,,,,,,
,,,,,,,,,,,,5dffb7505cc380bf9945baf6,39,Mężczyzna,2022-06-11_09h32.50.215,task,2021.1.4,Win32,143.8434983,6299f149e92ead563fba08ef,62a4446a62c49d4ad5076526,,,,,,,,,,,,,5,,,,,,,,,,Task,29,(3x8) - 19 ,5,,,,,,,,,,,,,,,,,,,1,,,,,,,,,,,,,,,,,,,,,,,"[""5""]",1,[4.117699999988076],0,0,0,28,1,,,,,,,,,,,,,,,,,,,,,,,,,,
,,,,,,,,,,,X V Q F H G B L J M P D K C T S W R N Z,5dffb7505cc380bf9945baf6,39,Mężczyzna,2022-06-11_09h32.50.215,task,2021.1.4,Win32,143.8434983,6299f149e92ead563fba08ef,62a4446a62c49d4ad5076526,,,,,,,,,,,,,,,,,,,,,,,,,,,,,,,,,,,,,,,,,,,,,,,,,,,,,,,,,,,,,,,,,,,,,,,,,,,,4,0,4,0,1,,,,,,,,,,,,,,,,,,,,,
,,,,,,,,,,,,5dffb7505cc380bf9945baf6,39,Mężczyzna,2022-06-11_09h32.50.215,task,2021.1.4,Win32,143.8434983,6299f149e92ead563fba08ef,62a4446a62c49d4ad5076526,,,,,,,,,,,,,2,,,,,,,,,,Task,19,(6/2) - 1,2,,,,,,,,,,,,,,,,,,,1,,,,,,,,,,,,,,,,,,,,,,,"[""2""]",1,[3.59699999999998],0,0,0,18,1,,,,,,,,,,,,,,,,,,,,,,,,,,
,,,,,,,,,,,X V Q F H G B L J M P D K C T S W R N Z,5dffb7505cc380bf9945baf6,39,Mężczyzna,2022-06-11_09h32.50.215,task,2021.1.4,Win32,143.8434983,6299f149e92ead563fba08ef,62a4446a62c49d4ad5076526,,,,,,,,,,,,,,,,,,,,,,,,,,,,,,,,,,,,,,,,,,,,,,,,,,,,,,,,,,,,,,,,,,,,,,,,,,,,5,0,5,0,1,,,,,,,,,,,,,,,,,,,,,
,,,,,,,,,,,,5dffb7505cc380bf9945baf6,39,Mężczyzna,2022-06-11_09h32.50.215,task,2021.1.4,Win32,143.8434983,6299f149e92ead563fba08ef,62a4446a62c49d4ad5076526,,,,,,,,,,,,,5,,,,,,,,,,Task,29,(3x8) - 19 ,5,,,,,,,,,,,,,,,,,,,1,,,,,,,,,,,,,,,,,,,,,,,"[""5""]",1,[2.3481999999880827],0,0,0,28,1,,,,,,,,,,,,,,,,,,,,,,,,,,
,,,,,,,,,,,X V Q F H G B L J M P D K C T S W R N Z,5dffb7505cc380bf9945baf6,39,Mężczyzna,2022-06-11_09h32.50.215,task,2021.1.4,Win32,143.8434983,6299f149e92ead563fba08ef,62a4446a62c49d4ad5076526,,,,,,,,,,,,,,,,,,,,,,,,,,,,,,,,,,,,,,,,,,,,,,,,,,,,,,,,,,,,,,,,,,,,,,,,,,,,6,0,6,0,1,,,,,,,,,,,,,,,,,,,,,
,,,,,,,,,,,,5dffb7505cc380bf9945baf6,39,Mężczyzna,2022-06-11_09h32.50.215,task,2021.1.4,Win32,143.8434983,6299f149e92ead563fba08ef,62a4446a62c49d4ad5076526,,,,,,,,,,,,,,,,,,,,,,,,,,,,,,,,,,,,,,,,,,,,,,,,,,,,,,,,,,,,,,,,,,,,,,,,,,,,,,,,,wgqnmgg,"[""w"",""g"",""q"",""n"",""m"",""g"",""g""]",0,"[4.406599999994,16.201999999999998,18.028799999982084,19.160299999982044,20.292599999993968,21.5926999999881,21.764999999999986,22.612299999982042]",0,WGNQMGG,6,0,6,0,1,,,,,,,,,,
,,,,,,,,,,,,5dffb7505cc380bf9945baf6,39,Mężczyzna,2022-06-11_09h32.50.215,task,2021.1.4,Win32,143.8434983,6299f149e92ead563fba08ef,62a4446a62c49d4ad5076526,,,,,,,,,,,,,,,,,,,,,,,,,,,,,,,,,,,,,,,,,,,,,,,,,,,,,,,,,,,,,,,,,,,,,,,,,,,,,,,,,,,,,,,,,,,,"[""comma""]",0,[0.849999999999909],0,0,0,0,1,,
,,,,,,,,,,,,5dffb7505cc380bf9945baf6,39,Mężczyzna,2022-06-11_09h32.50.215,task,2021.1.4,Win32,143.8434983,6299f149e92ead563fba08ef,62a4446a62c49d4ad5076526,,,,,,,,,,,,,,,,,,,,,,,,,,,,,,,,,,,,,,,,,,,,,,,,,,,,,,,,,,,,,,,,,,,,,,,,,,,,,,,,,,,,,,,,,,,,"[""comma""]",0,[0.9099999999999682],1,0,1,0,1,,
,,,,,,,,,,,,5dffb7505cc380bf9945baf6,39,Mężczyzna,2022-06-11_09h32.50.215,task,2021.1.4,Win32,143.8434983,6299f149e92ead563fba08ef,62a4446a62c49d4ad5076526,,,,,,,,,,,,,,,,,,,,,,,,,,,,,,,,,,,,,,,,,,,,,,,,,,,,,,,,,,,,,,,,,,,,,,,,,,,,,,,,,,,,,,,,,,,,"[""period""]",0,[0.7644000000060487],2,0,2,0,1,,
,,,,,,,,,,,,5dffb7505cc380bf9945baf6,39,Mężczyzna,2022-06-11_09h32.50.215,task,2021.1.4,Win32,143.8434983,6299f149e92ead563fba08ef,62a4446a62c49d4ad5076526,,,,,,,,,,,,,,,,,,,,,,,,,,,,,,,,,,,,,,,,,,,,,,,,,,,,,,,,,,,,,,,,,,,,,,,,,,,,,,,,,,,,,,,,,,,,"[""comma""]",0,[0.6433000000118909],3,0,3,0,1,,
,,,,,,,,,,,,5dffb7505cc380bf9945baf6,39,Mężczyzna,2022-06-11_09h32.50.215,task,2021.1.4,Win32,143.8434983,6299f149e92ead563fba08ef,62a4446a62c49d4ad5076526,,,,,,,,,,,,,,,,,,,,,,,,,,,,,,,,,,,,,,,,,,,,,,,,,,,,,,,,,,,,,,,,,,,,,,,,,,,,,,,,,,,,,,,,,,,,"[""comma""]",0,[0.45859999999402135],4,0,4,0,1,,
,,,,,,,,,,,,5dffb7505cc380bf9945baf6,39,Mężczyzna,2022-06-11_09h32.50.215,task,2021.1.4,Win32,143.8434983,6299f149e92ead563fba08ef,62a4446a62c49d4ad5076526,,,,,,,,,,,,,,,,,,,,,,,,,,,,,,,,,,,,,,,,,,,,,,,,,,,,,,,,,,,,,,,,,,,,,,,,,,,,,,,,,,,,,,,,,,,,"[""period""]",0,[0.3970999999939977],5,0,5,0,1,,
,,,,,,,,,,,,5dffb7505cc380bf9945baf6,39,Mężczyzna,2022-06-11_09h32.50.215,task,2021.1.4,Win32,143.8434983,6299f149e92ead563fba08ef,62a4446a62c49d4ad5076526,,,,,,,,,,,,,,,,,,,,,,,,,,,,,,,,,,,,,,,,,,,,,,,,,,,,,,,,,,,,,,,,,,,,,,,,,,,,,,,,,,,,,,,,,,,,"[""comma""]",0,[0.3129999999999882],6,0,6,0,1,,
,,,,,,,,,,,,5dffb7505cc380bf9945baf6,39,Mężczyzna,2022-06-11_09h32.50.215,task,2021.1.4,Win32,143.8434983,6299f149e92ead563fba08ef,62a4446a62c49d4ad5076526,,,,,,,,,,,,,,,,,,,,,,,,,,,,,,,,,,,,,,,,,,,,,,,,,,,,,,,,,,,,,,,,,,,,,,,,,,,,,,,,,,,,,,,,,,,,"[""period""]",0,[0.25059999999405136],7,0,7,0,1,,
,,,,,,,,,,,,5dffb7505cc380bf9945baf6,39,Mężczyzna,2022-06-11_09h32.50.215,task,2021.1.4,Win32,143.8434983,6299f149e92ead563fba08ef,62a4446a62c49d4ad5076526,,,,,,,,,,,,,,,,,,,,,,,,,,,,,,,,,,,,,,,,,,,,,,,,,,,,,,,,,,,,,,,,,,,,,,,,,,,,,,,,,,,,,,,,,,,,"[""period""]",0,[0.2787000000179205],8,0,8,0,1,,
,,,,,,,,,,,,5dffb7505cc380bf9945baf6,39,Mężczyzna,2022-06-11_09h32.50.215,task,2021.1.4,Win32,143.8434983,6299f149e92ead563fba08ef,62a4446a62c49d4ad5076526,,,,,,,,,,,,,,,,,,,,,,,,,,,,,,,,,,,,,,,,,,,,,,,,,,,,,,,,,,,,,,,,,,,,,,,,,,,,,,,,,,,,,,,,,,,,"[""period""]",0,[0.2115000000000009],9,0,9,0,1,,
,,,,,,,,,,,,5dffb7505cc380bf9945baf6,39,Mężczyzna,2022-06-11_09h32.50.215,task,2021.1.4,Win32,143.8434983,6299f149e92ead563fba08ef,62a4446a62c49d4ad5076526,,,,,,,,,,,,,,,,,,,,,,,,,,,,,,,,,,,,,,,,,,,,,,,,,,,,,,,,,,,,,,,,,,,,,,,,,,,,,,,,,,,,,,,,,,,,"[""comma""]",0,[0.2952000000178714],10,0,10,0,1,,
,,,,,,,,,,,,5dffb7505cc380bf9945baf6,39,Mężczyzna,2022-06-11_09h32.50.215,task,2021.1.4,Win32,143.8434983,6299f149e92ead563fba08ef,62a4446a62c49d4ad5076526,,,,,,,,,,,,,,,,,,,,,,,,,,,,,,,,,,,,,,,,,,,,,,,,,,,,,,,,,,,,,,,,,,,,,,,,,,,,,,,,,,,,,,,,,,,,"[""period""]",0,[0.2259999999999991],11,0,11,0,1,,
,,,,,,,,,,,,5dffb7505cc380bf9945baf6,39,Mężczyzna,2022-06-11_09h32.50.215,task,2021.1.4,Win32,143.8434983,6299f149e92ead563fba08ef,62a4446a62c49d4ad5076526,,,,,,,,,,,,,,,,,,,,,,,,,,,,,,,,,,,,,,,,,,,,,,,,,,,,,,,,,,,,,,,,,,,,,,,,,,,,,,,,,,,,,,,,,,,,"[""period""]",0,[0.2575999999939995],12,0,12,0,1,,
,,,,,,,,,,,,5dffb7505cc380bf9945baf6,39,Mężczyzna,2022-06-11_09h32.50.215,task,2021.1.4,Win32,143.8434983,6299f149e92ead563fba08ef,62a4446a62c49d4ad5076526,,,,,,,,,,,,,,,,,,,,,,,,,,,,,,,,,,,,,,,,,,,,,,,,,,,,,,,,,,,,,,,,,,,,,,,,,,,,,,,,,,,,,,,,,,,,"[""comma""]",0,[0.20180000001187182],13,0,13,0,1,,
,,,,,,,,,,,,5dffb7505cc380bf9945baf6,39,Mężczyzna,2022-06-11_09h32.50.215,task,2021.1.4,Win32,143.8434983,6299f149e92ead563fba08ef,62a4446a62c49d4ad5076526,,,,,,,,,,,,,,,,,,,,,,,,,,,,,,,,,,,,,,,,,,,,,,,,,,,,,,,,,,,,,,,,,,,,,,,,,,,,,,,,,,,,,,,,,,,,"[""period""]",0,[0.19530000001191183],14,0,14,0,1,,
,,,,,,,,,,,,5dffb7505cc380bf9945baf6,39,Mężczyzna,2022-06-11_09h32.50.215,task,2021.1.4,Win32,143.8434983,6299f149e92ead563fba08ef,62a4446a62c49d4ad5076526,,,,,,,,,,,,,,,,,,,,,,,,,,,,,,,,,,,,,,,,,,,,,,,,,,,,,,,,,,,,,,,,,,,,,,,,,,,,,,,,,,,,,,,,,,,,"[""comma"",""comma""]",0,"[0.1681000000238555,1.7997000000178787]",15,0,15,0,1,,
,,,,,,,,,,,,5dffb7505cc380bf9945baf6,39,Mężczyzna,2022-06-11_09h32.50.215,task,2021.1.4,Win32,143.8434983,6299f149e92ead563fba08ef,62a4446a62c49d4ad5076526,,,,,,,,,,,,,,,,,,,,,,,,,,,,,,,,,,,,,,,,,,,,,,,,,,,,,,,,,,,,,,,,,,,,,,,,,,,,,,,,,,,,,,,,,,,,,0,,16,0,16,0,1,,
,,,,,,,,,,,,5dffb7505cc380bf9945baf6,39,Mężczyzna,2022-06-11_09h32.50.215,task,2021.1.4,Win32,143.8434983,6299f149e92ead563fba08ef,62a4446a62c49d4ad5076526,,,,,,,,,,,,,,,,,,,,,,,,,,,,,,,,,,,,,,,,,,,,,,,,,,,,,,,,,,,,,,,,,,,,,,,,,,,,,,,,,,,,,,,,,,,,"[""comma""]",0,[0.22930000001201734],17,0,17,0,1,,
,,,,,,,,,,,,5dffb7505cc380bf9945baf6,39,Mężczyzna,2022-06-11_09h32.50.215,task,2021.1.4,Win32,143.8434983,6299f149e92ead563fba08ef,62a4446a62c49d4ad5076526,,,,,,,,,,,,,,,,,,,,,,,,,,,,,,,,,,,,,,,,,,,,,,,,,,,,,,,,,,,,,,,,,,,,,,,,,,,,,,,,,,,,,,,,,,,,"[""period""]",0,[0.20199999999999818],18,0,18,0,1,,
,,,,,,,,,,,,5dffb7505cc380bf9945baf6,39,Mężczyzna,2022-06-11_09h32.50.215,task,2021.1.4,Win32,143.8434983,6299f149e92ead563fba08ef,62a4446a62c49d4ad5076526,,,,,,,,,,,,,,,,,,,,,,,,,,,,,,,,,,,,,,,,,,,,,,,,,,,,,,,,,,,,,,,,,,,,,,,,,,,,,,,,,,,,,,,,,,,,"[""period""]",0,[0.16730000001189183],19,0,19,0,1,,
,,,,,,,,,,,,5dffb7505cc380bf9945baf6,39,Mężczyzna,2022-06-11_09h32.50.215,task,2021.1.4,Win32,143.8434983,6299f149e92ead563fba08ef,62a4446a62c49d4ad5076526,,,,,,,,,,,,,,,,,,,,,,,,,,,,,,,,,,,,,,,,,,,,,,,,,,,,,,,,,,,,,,,,,,,,,,,,,,,,,,,,,,,,,,,,,,,,"[""comma""]",0,[0.23550000000000182],20,0,20,0,1,,
,,,,,,,,,,,,5dffb7505cc380bf9945baf6,39,Mężczyzna,2022-06-11_09h32.50.215,task,2021.1.4,Win32,143.8434983,6299f149e92ead563fba08ef,62a4446a62c49d4ad5076526,,,,,,,,,,,,,,,,,,,,,,,,,,,,,,,,,,,,,,,,,,,,,,,,,,,,,,,,,,,,,,,,,,,,,,,,,,,,,,,,,,,,,,,,,,,,"[""comma""]",0,[0.04200000000003001],21,0,21,0,1,,
,,,,,,,,,,,,5dffb7505cc380bf9945baf6,39,Mężczyzna,2022-06-11_09h32.50.215,task,2021.1.4,Win32,143.8434983,6299f149e92ead563fba08ef,62a4446a62c49d4ad5076526,,,,,,,,,,,,,,,,,,,,,,,,,,,,,,,,,,,,,,,,,,,,,,,,,,,,,,,,,,,,,,,,,,,,,,,,,,,,,,,,,,,,,,,,,,,,"[""period""]",0,[0.28530000001183],22,0,22,0,1,,
,,,,,,,,,,,,5dffb7505cc380bf9945baf6,39,Mężczyzna,2022-06-11_09h32.50.215,task,2021.1.4,Win32,143.8434983,6299f149e92ead563fba08ef,62a4446a62c49d4ad5076526,,,,,,,,,,,,,,,,,,,,,,,,,,,,,,,,,,,,,,,,,,,,,,,,,,,,,,,,,,,,,,,,,,,,,,,,,,,,,,,,,,,,,,,,,,,,"[""comma""]",0,[0.23879999998212043],23,0,23,0,1,,
,,,,,,,,,,,,5dffb7505cc380bf9945baf6,39,Mężczyzna,2022-06-11_09h32.50.215,task,2021.1.4,Win32,143.8434983,6299f149e92ead563fba08ef,62a4446a62c49d4ad5076526,,,,,,,,,,,,,,,,,,,,,,,,,,,,,,,,,,,,,,,,,,,,,,,,,,,,,,,,,,,,,,,,,,,,,,,,,,,,,,,,,,,,,,,,,,,,"[""period"",""period""]",0,"[0.18280000001186636,1.9560000000000173]",24,0,24,0,1,,
,,,,,,,,,,,,5dffb7505cc380bf9945baf6,39,Mężczyzna,2022-06-11_09h32.50.215,task,2021.1.4,Win32,143.8434983,6299f149e92ead563fba08ef,62a4446a62c49d4ad5076526,,,,,,,,,,,,,,,,,,,,,,,,,,,,,,,,,,,,,,,,,,,,,,,,,,,,,,,,,,,,,,,,,,,,,,,,,,,,,,,,,,,,,,,,,,,,,0,,25,0,25,0,1,,
,,,,,,,,,,,,5dffb7505cc380bf9945baf6,39,Mężczyzna,2022-06-11_09h32.50.215,task,2021.1.4,Win32,143.8434983,6299f149e92ead563fba08ef,62a4446a62c49d4ad5076526,,,,,,,,,,,,,,,,,,,,,,,,,,,,,,,,,,,,,,,,,,,,,,,,,,,,,,,,,,,,,,,,,,,,,,,,,,,,,,,,,,,,,,,,,,,,"[""period""]",0,[0.07390000000589225],26,0,26,0,1,,
,,,,,,,,,,,,5dffb7505cc380bf9945baf6,39,Mężczyzna,2022-06-11_09h32.50.215,task,2021.1.4,Win32,143.8434983,6299f149e92ead563fba08ef,62a4446a62c49d4ad5076526,,,,,,,,,,,,,,,,,,,,,,,,,,,,,,,,,,,,,,,,,,,,,,,,,,,,,,,,,,,,,,,,,,,,,,,,,,,,,,,,,,,,,,,,,,,,"[""comma""]",0,[0.15359999999407137],27,0,27,0,1,,
,,,,,,,,,,,,5dffb7505cc380bf9945baf6,39,Mężczyzna,2022-06-11_09h32.50.215,task,2021.1.4,Win32,143.8434983,6299f149e92ead563fba08ef,62a4446a62c49d4ad5076526,,,,,,,,,,,,,,,,,,,,,,,,,,,,,,,,,,,,,,,,,,,,,,,,,,,,,,,,,,,,,,,,,,,,,,,,,,,,,,,,,,,,,,,,,,,,"[""period"",""comma""]",0,"[0.2095999999939977,1.9797000000178286]",28,0,28,0,1,,
,,,,,,,,,,,,5dffb7505cc380bf9945baf6,39,Mężczyzna,2022-06-11_09h32.50.215,task,2021.1.4,Win32,143.8434983,6299f149e92ead563fba08ef,62a4446a62c49d4ad5076526,,,,,,,,,,,,,,,,,,,,,,,,,,,,,,,,,,,,,,,,,,,,,,,,,,,,,,,,,,,,,,,,,,,,,,,,,,,,,,,,,,,,,,,,,,,,,0,,29,0,29,0,1,,
,,,,,,,,,,,,5dffb7505cc380bf9945baf6,39,Mężczyzna,2022-06-11_09h32.50.215,task,2021.1.4,Win32,143.8434983,6299f149e92ead563fba08ef,62a4446a62c49d4ad5076526,,,,,,,,,,,,,,,,,,,,,,,,,,,,,,,,,,,,,,,,,,,,,,,,,,,,,,,,,,,,,,,,,,,,,,,,,,,,,,,,,,,,,,,,,,,,"[""comma""]",0,[0.27930000001197186],30,0,30,0,1,,
,,,,,,,,,,,,5dffb7505cc380bf9945baf6,39,Mężczyzna,2022-06-11_09h32.50.215,task,2021.1.4,Win32,143.8434983,6299f149e92ead563fba08ef,62a4446a62c49d4ad5076526,,,,,,,,,,,,,,,,,,,,,,,,,,,,,,,,,,,,,,,,,,,,,,,,,,,,,,,,,,,,,,,,,,,,,,,,,,,,,,,,,,,,,,,,,,,,"[""period"",""comma""]",0,"[0.19740000000592772,1.8847000000178014]",31,0,31,0,1,,
,,,,,,,,,,,,5dffb7505cc380bf9945baf6,39,Mężczyzna,2022-06-11_09h32.50.215,task,2021.1.4,Win32,143.8434983,6299f149e92ead563fba08ef,62a4446a62c49d4ad5076526,,,,,,,,,,,,,,,,,,,,,,,,,,,,,,,,,,,,,,,,,,,,,,,,,,,,,,,,,,,,,,,,,,,,,,,,,,,,,,,,,,,,,,,,,,,,"[""comma""]",0,[1.7205999999940786],32,0,32,0,1,,
,,,,,,,,,,,,5dffb7505cc380bf9945baf6,39,Mężczyzna,2022-06-11_09h32.50.215,task,2021.1.4,Win32,143.8434983,6299f149e92ead563fba08ef,62a4446a62c49d4ad5076526,,,,,,,,,,,,,,,,,,,,,,,,,,,,,,,,,,,,,,,,,,,,,,,,,,,,,,,,,,,,,,,,,,,,,,,,,,,,,,,,,,,,,,,,,,,,"[""comma""]",0,[0.8064999999999145],33,0,33,0,1,,
,,,,,,,,,,,,5dffb7505cc380bf9945baf6,39,Mężczyzna,2022-06-11_09h32.50.215,task,2021.1.4,Win32,143.8434983,6299f149e92ead563fba08ef,62a4446a62c49d4ad5076526,,,,,,,,,,,,,,,,,,,,,,,,,,,,,,,,,,,,,,,,,,,,,,,,,,,,,,,,,,,,,,,,,,,,,,,,,,,,,,,,,,,,,,,,,,,,"[""period""]",0,[0.5632000000177868],34,0,34,0,1,,
,,,,,,,,,,,,5dffb7505cc380bf9945baf6,39,Mężczyzna,2022-06-11_09h32.50.215,task,2021.1.4,Win32,143.8434983,6299f149e92ead563fba08ef,62a4446a62c49d4ad5076526,,,,,,,,,,,,,,,,,,,,,,,,,,,,,,,,,,,,,,,,,,,,,,,,,,,,,,,,,,,,,,,,,,,,,,,,,,,,,,,,,,,,,,,,,,,,"[""comma""]",0,[0.6802999999820258],35,0,35,0,1,,
,,,,,,,,,,,,5dffb7505cc380bf9945baf6,39,Mężczyzna,2022-06-11_09h32.50.215,task,2021.1.4,Win32,143.8434983,6299f149e92ead563fba08ef,62a4446a62c49d4ad5076526,,,,,,,,,,,,,,,,,,,,,,,,,,,,,,,,,,,,,,,,,,,,,,,,,,,,,,,,,,,,,,,,,,,,,,,,,,,,,,,,,,,,,,,,,,,,"[""comma""]",0,[0.618900000005965],36,0,36,0,1,,
,,,,,,,,,,,,5dffb7505cc380bf9945baf6,39,Mężczyzna,2022-06-11_09h32.50.215,task,2021.1.4,Win32,143.8434983,6299f149e92ead563fba08ef,62a4446a62c49d4ad5076526,,,,,,,,,,,,,,,,,,,,,,,,,,,,,,,,,,,,,,,,,,,,,,,,,,,,,,,,,,,,,,,,,,,,,,,,,,,,,,,,,,,,,,,,,,,,"[""comma""]",0,[0.48619999998811636],37,0,37,0,1,,
,,,,,,,,,,,,5dffb7505cc380bf9945baf6,39,Mężczyzna,2022-06-11_09h32.50.215,task,2021.1.4,Win32,143.8434983,6299f149e92ead563fba08ef,62a4446a62c49d4ad5076526,,,,,,,,,,,,,,,,,,,,,,,,,,,,,,,,,,,,,,,,,,,,,,,,,,,,,,,,,,,,,,,,,,,,,,,,,,,,,,,,,,,,,,,,,,,,"[""period""]",0,[0.4599000000059732],38,0,38,0,1,,
,,,,,,,,,,,,5dffb7505cc380bf9945baf6,39,Mężczyzna,2022-06-11_09h32.50.215,task,2021.1.4,Win32,143.8434983,6299f149e92ead563fba08ef,62a4446a62c49d4ad5076526,,,,,,,,,,,,,,,,,,,,,,,,,,,,,,,,,,,,,,,,,,,,,,,,,,,,,,,,,,,,,,,,,,,,,,,,,,,,,,,,,,,,,,,,,,,,"[""comma""]",0,[0.28700000000003456],39,0,39,0,1,,
,,,,,,,,,,,,5dffb7505cc380bf9945baf6,39,Mężczyzna,2022-06-11_09h32.50.215,task,2021.1.4,Win32,143.8434983,6299f149e92ead563fba08ef,62a4446a62c49d4ad5076526,,,,,,,,,,,,,,,,,,,,,,,,,,,,,,,,,,,,,,,,,,,,,,,,,,,,,,,,,,,,,,,,,,,,,,,,,,,,,,,,,,,,,,,,,,,,"[""comma""]",0,[0.2580999999939877],40,0,40,0,1,,
,,,,,,,,,,,,5dffb7505cc380bf9945baf6,39,Mężczyzna,2022-06-11_09h32.50.215,task,2021.1.4,Win32,143.8434983,6299f149e92ead563fba08ef,62a4446a62c49d4ad5076526,,,,,,,,,,,,,,,,,,,,,,,,,,,,,,,,,,,,,,,,,,,,,,,,,,,,,,,,,,,,,,,,,,,,,,,,,,,,,,,,,,,,,,,,,,,,"[""period""]",0,[0.21490000000596865],41,0,41,0,1,,
,,,,,,,,,,,,5dffb7505cc380bf9945baf6,39,Mężczyzna,2022-06-11_09h32.50.215,task,2021.1.4,Win32,143.8434983,6299f149e92ead563fba08ef,62a4446a62c49d4ad5076526,,,,,,,,,,,,,,,,,,,,,,,,,,,,,,,,,,,,,,,,,,,,,,,,,,,,,,,,,,,,,,,,,,,,,,,,,,,,,,,,,,,,,,,,,,,,"[""comma""]",0,[0.22670000001789958],42,0,42,0,1,,
,,,,,,,,,,,,5dffb7505cc380bf9945baf6,39,Mężczyzna,2022-06-11_09h32.50.215,task,2021.1.4,Win32,143.8434983,6299f149e92ead563fba08ef,62a4446a62c49d4ad5076526,,,,,,,,,,,,,,,,,,,,,,,,,,,,,,,,,,,,,,,,,,,,,,,,,,,,,,,,,,,,,,,,,,,,,,,,,,,,,,,,,,,,,,,,,,,,"[""period""]",0,[0.27150000000006],43,0,43,0,1,,
,,,,,,,,,,,,5dffb7505cc380bf9945baf6,39,Mężczyzna,2022-06-11_09h32.50.215,task,2021.1.4,Win32,143.8434983,6299f149e92ead563fba08ef,62a4446a62c49d4ad5076526,,,,,,,,,,,,,,,,,,,,,,,,,,,,,,,,,,,,,,,,,,,,,,,,,,,,,,,,,,,,,,,,,,,,,,,,,,,,,,,,,,,,,,,,,,,,"[""period""]",0,[0.2090999999941232],44,0,44,0,1,,
,,,,,,,,,,,,5dffb7505cc380bf9945baf6,39,Mężczyzna,2022-06-11_09h32.50.215,task,2021.1.4,Win32,143.8434983,6299f149e92ead563fba08ef,62a4446a62c49d4ad5076526,,,,,,,,,,,,,,,,,,,,,,,,,,,,,,,,,,,,,,,,,,,,,,,,,,,,,,,,,,,,,,,,,,,,,,,,,,,,,,,,,,,,,,,,,,,,"[""period""]",0,[0.2792999999820722],45,0,45,0,1,,
,,,,,,,,,,,,5dffb7505cc380bf9945baf6,39,Mężczyzna,2022-06-11_09h32.50.215,task,2021.1.4,Win32,143.8434983,6299f149e92ead563fba08ef,62a4446a62c49d4ad5076526,,,,,,,,,,,,,,,,,,,,,,,,,,,,,,,,,,,,,,,,,,,,,,,,,,,,,,,,,,,,,,,,,,,,,,,,,,,,,,,,,,,,,,,,,,,,"[""comma""]",0,[0.25349999999991724],46,0,46,0,1,,
,,,,,,,,,,,,5dffb7505cc380bf9945baf6,39,Mężczyzna,2022-06-11_09h32.50.215,task,2021.1.4,Win32,143.8434983,6299f149e92ead563fba08ef,62a4446a62c49d4ad5076526,,,,,,,,,,,,,,,,,,,,,,,,,,,,,,,,,,,,,,,,,,,,,,,,,,,,,,,,,,,,,,,,,,,,,,,,,,,,,,,,,,,,,,,,,,,,"[""period""]",0,[0.21130000001187454],47,0,47,0,1,,
,,,,,,,,,,,,5dffb7505cc380bf9945baf6,39,Mężczyzna,2022-06-11_09h32.50.215,task,2021.1.4,Win32,143.8434983,6299f149e92ead563fba08ef,62a4446a62c49d4ad5076526,,,,,,,,,,,,,,,,,,,,,,,,,,,,,,,,,,,,,,,,,,,,,,,,,,,,,,,,,,,,,,,,,,,,,,,,,,,,,,,,,,,,,,,,,,,,"[""comma""]",0,[0.24639999997623363],48,0,48,0,1,,
,,,,,,,,,,,,5dffb7505cc380bf9945baf6,39,Mężczyzna,2022-06-11_09h32.50.215,task,2021.1.4,Win32,143.8434983,6299f149e92ead563fba08ef,62a4446a62c49d4ad5076526,,,,,,,,,,,,,,,,,,,,,,,,,,,,,,,,,,,,,,,,,,,,,,,,,,,,,,,,,,,,,,,,,,,,,,,,,,,,,,,,,,,,,,,,,,,,"[""comma""]",0,[0.24490000000594137],49,0,49,0,1,,
,,,,,,,,,,,,5dffb7505cc380bf9945baf6,39,Mężczyzna,2022-06-11_09h32.50.215,task,2021.1.4,Win32,143.8434983,6299f149e92ead563fba08ef,62a4446a62c49d4ad5076526,,,,,,,,,,,,,,,,,,,,,,,,,,,,,,,,,,,,,,,,,,,,,,,,,,,,,,,,,,,,,,,,,,,,,,,,,,,,,,,,,,,,,,,,,,,,"[""period""]",0,[0.25039999997613904],50,0,50,0,1,,
,,,,,,,,,,,,5dffb7505cc380bf9945baf6,39,Mężczyzna,2022-06-11_09h32.50.215,task,2021.1.4,Win32,143.8434983,6299f149e92ead563fba08ef,62a4446a62c49d4ad5076526,,,,,,,,,,,,,,,,,,,,,,,,,,,,,,,,,,,,,,,,,,,,,,,,,,,,,,,,,,,,,,,,,,,,,,,,,,,,,,,,,,,,,,,,,,,,"[""comma""]",0,[0.035900000005995025],51,0,51,0,1,,
,,,,,,,,,,,,5dffb7505cc380bf9945baf6,39,Mężczyzna,2022-06-11_09h32.50.215,task,2021.1.4,Win32,143.8434983,6299f149e92ead563fba08ef,62a4446a62c49d4ad5076526,,,,,,,,,,,,,,,,,,,,,,,,,,,,,,,,,,,,,,,,,,,,,,,,,,,,,,,,,,,,,,,,,,,,,,,,,,,,,,,,,,,,,,,,,,,,"[""comma""]",0,[0.21710000002383367],52,0,52,0,1,,
,,,,,,,,,,,,5dffb7505cc380bf9945baf6,39,Mężczyzna,2022-06-11_09h32.50.215,task,2021.1.4,Win32,143.8434983,6299f149e92ead563fba08ef,62a4446a62c49d4ad5076526,,,,,,,,,,,,,,,,,,,,,,,,,,,,,,,,,,,,,,,,,,,,,,,,,,,,,,,,,,,,,,,,,,,,,,,,,,,,,,,,,,,,,,,,,,,,"[""period""]",0,[0.2298000000120055],53,0,53,0,1,,
,,,,,,,,,,,,5dffb7505cc380bf9945baf6,39,Mężczyzna,2022-06-11_09h32.50.215,task,2021.1.4,Win32,143.8434983,6299f149e92ead563fba08ef,62a4446a62c49d4ad5076526,,,,,,,,,,,,,,,,,,,,,,,,,,,,,,,,,,,,,,,,,,,,,,,,,,,,,,,,,,,,,,,,,,,,,,,,,,,,,,,,,,,,,,,,,,,,"[""comma""]",0,[0.2779000000059568],54,0,54,0,1,,
,,,,,,,,,,,,5dffb7505cc380bf9945baf6,39,Mężczyzna,2022-06-11_09h32.50.215,task,2021.1.4,Win32,143.8434983,6299f149e92ead563fba08ef,62a4446a62c49d4ad5076526,,,,,,,,,,,,,,,,,,,,,,,,,,,,,,,,,,,,,,,,,,,,,,,,,,,,,,,,,,,,,,,,,,,,,,,,,,,,,,,,,,,,,,,,,,,,"[""comma""]",0,[0.22170000001790413],55,0,55,0,1,,
,,,,,,,,,,,,5dffb7505cc380bf9945baf6,39,Mężczyzna,2022-06-11_09h32.50.215,task,2021.1.4,Win32,143.8434983,6299f149e92ead563fba08ef,62a4446a62c49d4ad5076526,,,,,,,,,,,,,,,,,,,,,,,,,,,,,,,,,,,,,,,,,,,,,,,,,,,,,,,,,,,,,,,,,,,,,,,,,,,,,,,,,,,,,,,,,,,,"[""period""]",0,[0.20860000002392098],56,0,56,0,1,,
,,,,,,,,,,,,5dffb7505cc380bf9945baf6,39,Mężczyzna,2022-06-11_09h32.50.215,task,2021.1.4,Win32,143.8434983,6299f149e92ead563fba08ef,62a4446a62c49d4ad5076526,,,,,,,,,,,,,,,,,,,,,,,,,,,,,,,,,,,,,,,,,,,,,,,,,,,,,,,,,,,,,,,,,,,,,,,,,,,,,,,,,,,,,,,,,,,,"[""comma""]",0,[0.28549999999995634],57,0,57,0,1,,
,,,,,,,,,,,,5dffb7505cc380bf9945baf6,39,Mężczyzna,2022-06-11_09h32.50.215,task,2021.1.4,Win32,143.8434983,6299f149e92ead563fba08ef,62a4446a62c49d4ad5076526,,,,,,,,,,,,,,,,,,,,,,,,,,,,,,,,,,,,,,,,,,,,,,,,,,,,,,,,,,,,,,,,,,,,,,,,,,,,,,,,,,,,,,,,,,,,"[""comma"",""period""]",0,"[0.07679999998208586,1.83769999998799]",58,0,58,0,1,,
,,,,,,,,,,,,5dffb7505cc380bf9945baf6,39,Mężczyzna,2022-06-11_09h32.50.215,task,2021.1.4,Win32,143.8434983,6299f149e92ead563fba08ef,62a4446a62c49d4ad5076526,,,,,,,,,,,,,,,,,,,,,,,,,,,,,,,,,,,,,,,,,,,,,,,,,,,,,,,,,,,,,,,,,,,,,,,,,,,,,,,,,,,,,,,,,,,,"[""period""]",0,[1.4864000000060287],59,0,59,0,1,,
,,,,,,,,,,,,5dffb7505cc380bf9945baf6,39,Mężczyzna,2022-06-11_09h32.50.215,task,2021.1.4,Win32,143.8434983,6299f149e92ead563fba08ef,62a4446a62c49d4ad5076526,,,,,,,,,,,,,,,,,,,,,,,,,,,,,,,,,,,,,,,,,,,,,,,,,,,,,,,,,,,,,,,,,,,,,,,,,,,,,,,,,,,,,,,,,,,,,0,,60,0,60,0,1,,
,,,,,,,,,,,,5dffb7505cc380bf9945baf6,39,Mężczyzna,2022-06-11_09h32.50.215,task,2021.1.4,Win32,143.8434983,6299f149e92ead563fba08ef,62a4446a62c49d4ad5076526,,,,,,,,,,,,,,,,,,,,,,,,,,,,,,,,,,,,,,,,,,,,,,,,,,,,,,,,,,,,,,,,,,,,,,,,,,,,,,,,,,,,,,,,,,,,"[""period""]",0,[0.024999999999977263],61,0,61,0,1,,
,,,,,,,,,,,,5dffb7505cc380bf9945baf6,39,Mężczyzna,2022-06-11_09h32.50.215,task,2021.1.4,Win32,143.8434983,6299f149e92ead563fba08ef,62a4446a62c49d4ad5076526,,,,,,,,,,,,,,,,,,,,,,,,,,,,,,,,,,,,,,,,,,,,,,,,,,,,,,,,,,,,,,,,,,,,,,,,,,,,,,,,,,,,,,,,,,,,"[""comma""]",0,[0.1959000000059632],62,0,62,0,1,,
,,,,,,,,,,,,5dffb7505cc380bf9945baf6,39,Mężczyzna,2022-06-11_09h32.50.215,task,2021.1.4,Win32,143.8434983,6299f149e92ead563fba08ef,62a4446a62c49d4ad5076526,,,,,,,,,,,,,,,,,,,,,,,,,,,,,,,,,,,,,,,,,,,,,,,,,,,,,,,,,,,,,,,,,,,,,,,,,,,,,,,,,,,,,,,,,,,,"[""period""]",0,[0.27259999999409956],63,0,63,0,1,,
,,,,,,,,,,,,5dffb7505cc380bf9945baf6,39,Mężczyzna,2022-06-11_09h32.50.215,task,2021.1.4,Win32,143.8434983,6299f149e92ead563fba08ef,62a4446a62c49d4ad5076526,,,,,,,,,,,,,,,,,,,,,,,,,,,,,,,,,,,,,,,,,,,,,,,,,,,,,,,,,,,,,,,,,,,,,,,,,,,,,,,,,,,,,,,,,,,,"[""comma""]",0,[0.25059999999405136],64,0,64,0,1,,
,,,,,,,,,,,,5dffb7505cc380bf9945baf6,39,Mężczyzna,2022-06-11_09h32.50.215,task,2021.1.4,Win32,143.8434983,6299f149e92ead563fba08ef,62a4446a62c49d4ad5076526,,,,,,,,,,,,,,,,,,,,,,,,,,,,,,,,,,,,,,,,,,,,,,,,,,,,,,,,,,,,,,,,,,,,,,,,,,,,,,,,,,,,,,,,,,,,"[""comma""]",0,[0.23840000000598138],65,0,65,0,1,,
,,,,,,,,,,,,5dffb7505cc380bf9945baf6,39,Mężczyzna,2022-06-11_09h32.50.215,task,2021.1.4,Win32,143.8434983,6299f149e92ead563fba08ef,62a4446a62c49d4ad5076526,,,,,,,,,,,,,,,,,,,,,,,,,,,,,,,,,,,,,,,,,,,,,,,,,,,,,,,,,,,,,,,,,,,,,,,,,,,,,,,,,,,,,,,,,,,,"[""comma""]",0,[0.4171999999880427],66,0,66,0,1,,
,,,,,,,,,,,,5dffb7505cc380bf9945baf6,39,Mężczyzna,2022-06-11_09h32.50.215,task,2021.1.4,Win32,143.8434983,6299f149e92ead563fba08ef,62a4446a62c49d4ad5076526,,,,,,,,,,,,,,,,,,,,,,,,,,,,,,,,,,,,,,,,,,,,,,,,,,,,,,,,,,,,,,,,,,,,,,,,,,,,,,,,,,,,,,,,,,,,"[""period"",""period""]",0,"[0.09269999998809908,1.578199999988101]",67,0,67,0,1,,
,,,,,,,,,,,,5dffb7505cc380bf9945baf6,39,Mężczyzna,2022-06-11_09h32.50.215,task,2021.1.4,Win32,143.8434983,6299f149e92ead563fba08ef,62a4446a62c49d4ad5076526,,,,,,,,,,,,,,,,,,,,,,,,,,,,,,,,,,,,,,,,,,,,,,,,,,,,,,,,,,,,,,,,,,,,,,,,,,,,,,,,,,,,,,,,,,,,"[""comma""]",0,[1.5784999999999627],68,0,68,0,1,,
,,,,,,,,,,,,5dffb7505cc380bf9945baf6,39,Mężczyzna,2022-06-11_09h32.50.215,task,2021.1.4,Win32,143.8434983,6299f149e92ead563fba08ef,62a4446a62c49d4ad5076526,,,,,,,,,,,,,,,,,,,,,,,,,,,,,,,,,,,,,,,,,,,,,,,,,,,,,,,,,,,,,,,,,,,,,,,,,,,,,,,,,,,,,,,,,,,,"[""period""]",0,[1.937899999976139],69,0,69,0,1,,
,,,,,,,,,,,,5dffb7505cc380bf9945baf6,39,Mężczyzna,2022-06-11_09h32.50.215,task,2021.1.4,Win32,143.8434983,6299f149e92ead563fba08ef,62a4446a62c49d4ad5076526,,,,,,,,,,,,,,,,,,,,,,,,,,,,,,,,,,,,,,,,,,,,,,,,,,,,,,,,,,,,,,,,,,,,,,,,,,,,,,,,,,,,,,,,,,,,,0,,70,0,70,0,1,,
,,,,,,,,,,,,5dffb7505cc380bf9945baf6,39,Mężczyzna,2022-06-11_09h32.50.215,task,2021.1.4,Win32,143.8434983,6299f149e92ead563fba08ef,62a4446a62c49d4ad5076526,,,,,,,,,,,,,,,,,,,,,,,,,,,,,,,,,,,,,,,,,,,,,,,,,,,,,,,,,,,,,,,,,,,,,,,,,,,,,,,,,,,,,,,,,,,,"[""comma"",""period""]",0,"[0.2724999999999227,1.903400000005945]",71,0,71,0,1,,
,,,,,,,,,,,,5dffb7505cc380bf9945baf6,39,Mężczyzna,2022-06-11_09h32.50.215,task,2021.1.4,Win32,143.8434983,6299f149e92ead563fba08ef,62a4446a62c49d4ad5076526,,,,,,,,,,,,,,,,,,,,,,,,,,,,,,,,,,,,,,,,,,,,,,,,,,,,,,,,,,,,,,,,,,,,,,,,,,,,,,,,,,,,,,,,,,,,,0,,72,0,72,0,1,,
,,,,,,,,,,,,5dffb7505cc380bf9945baf6,39,Mężczyzna,2022-06-11_09h32.50.215,task,2021.1.4,Win32,143.8434983,6299f149e92ead563fba08ef,62a4446a62c49d4ad5076526,,,,,,,,,,,,,,,,,,,,,,,,,,,,,,,,,,,,,,,,,,,,,,,,,,,,,,,,,,,,,,,,,,,,,,,,,,,,,,,,,,,,,,,,,,,,"[""period""]",0,[0.23209999999403408],73,0,73,0,1,,
,,,,,,,,,,,,5dffb7505cc380bf9945baf6,39,Mężczyzna,2022-06-11_09h32.50.215,task,2021.1.4,Win32,143.8434983,6299f149e92ead563fba08ef,62a4446a62c49d4ad5076526,,,,,,,,,,,,,,,,,,,,,,,,,,,,,,,,,,,,,,,,,,,,,,,,,,,,,,,,,,,,,,,,,,,,,,,,,,,,,,,,,,,,,,,,,,,,"[""comma"",""period""]",0,"[0.03690000000597138,1.7225999999940314]",74,0,74,0,1,,
,,,,,,,,,,,,5dffb7505cc380bf9945baf6,39,Mężczyzna,2022-06-11_09h32.50.215,task,2021.1.4,Win32,143.8434983,6299f149e92ead563fba08ef,62a4446a62c49d4ad5076526,,,,,,,,,,,,,,,,,,,,,,,,,,,,,,,,,,,,,,,,,,,,,,,,,,,,,,,,,,,,,,,,,,,,,,,,,,,,,,,,,,,,,,,,,,,,,0,,75,0,75,0,1,,
,,,,,,,,,,,,5dffb7505cc380bf9945baf6,39,Mężczyzna,2022-06-11_09h32.50.215,task,2021.1.4,Win32,143.8434983,6299f149e92ead563fba08ef,62a4446a62c49d4ad5076526,,,,,,,,,,,,,,,,,,,,,,,,,,,,,,,,,,,,,,,,,,,,,,,,,,,,,,,,,,,,,,,,,,,,,,,,,,,,,,,,,,,,,,,,,,,,"[""comma""]",0,[0.2524999999999409],76,0,76,0,1,,
,,,,,,,,,,,,5dffb7505cc380bf9945baf6,39,Mężczyzna,2022-06-11_09h32.50.215,task,2021.1.4,Win32,143.8434983,6299f149e92ead563fba08ef,62a4446a62c49d4ad5076526,,,,,,,,,,,,,,,,,,,,,,,,,,,,,,,,,,,,,,,,,,,,,,,,,,,,,,,,,,,,,,,,,,,,,,,,,,,,,,,,,,,,,,,,,,,,"[""period""]",0,[0.26509999999404954],77,0,77,0,1,,
,,,,,,,,,,,,5dffb7505cc380bf9945baf6,39,Mężczyzna,2022-06-11_09h32.50.215,task,2021.1.4,Win32,143.8434983,6299f149e92ead563fba08ef,62a4446a62c49d4ad5076526,,,,,,,,,,,,,,,,,,,,,,,,,,,,,,,,,,,,,,,,,,,,,,,,,,,,,,,,,,,,,,,,,,,,,,,,,,,,,,,,,,,,,,,,,,,,"[""period""]",0,[0.2231999999880827],78,0,78,0,1,,
,,,,,,,,,,,,5dffb7505cc380bf9945baf6,39,Mężczyzna,2022-06-11_09h32.50.215,task,2021.1.4,Win32,143.8434983,6299f149e92ead563fba08ef,62a4446a62c49d4ad5076526,,,,,,,,,,,,,,,,,,,,,,,,,,,,,,,,,,,,,,,,,,,,,,,,,,,,,,,,,,,,,,,,,,,,,,,,,,,,,,,,,,,,,,,,,,,,"[""comma""]",0,[0.26459999999406136],79,0,79,0,1,,
,,,,,,,,,,,,5dffb7505cc380bf9945baf6,39,Mężczyzna,2022-06-11_09h32.50.215,task,2021.1.4,Win32,143.8434983,6299f149e92ead563fba08ef,62a4446a62c49d4ad5076526,,,,,,,,,,,,,,,,,,,,,,,,,,,,,,,,,,,,,,,,,,,,,,,,,,,,,,,,,,,,,,,,,,,,,,,,,,,,,,,,,,,,,,,,,,,,"[""comma""]",0,[0.25119999998798903],80,0,80,0,1,,
,,,,,,,,,,,,5dffb7505cc380bf9945baf6,39,Mężczyzna,2022-06-11_09h32.50.215,task,2021.1.4,Win32,143.8434983,6299f149e92ead563fba08ef,62a4446a62c49d4ad5076526,,,,,,,,,,,,,,,,,,,,,,,,,,,,,,,,,,,,,,,,,,,,,,,,,,,,,,,,,,,,,,,,,,,,,,,,,,,,,,,,,,,,,,,,,,,,"[""comma""]",0,[0.27049999999997],81,0,81,0,1,,
,,,,,,,,,,,,5dffb7505cc380bf9945baf6,39,Mężczyzna,2022-06-11_09h32.50.215,task,2021.1.4,Win32,143.8434983,6299f149e92ead563fba08ef,62a4446a62c49d4ad5076526,,,,,,,,,,,,,,,,,,,,,,,,,,,,,,,,,,,,,,,,,,,,,,,,,,,,,,,,,,,,,,,,,,,,,,,,,,,,,,,,,,,,,,,,,,,,"[""period""]",0,[0.2091999999880727],82,0,82,0,1,,
,,,,,,,,,,,,5dffb7505cc380bf9945baf6,39,Mężczyzna,2022-06-11_09h32.50.215,task,2021.1.4,Win32,143.8434983,6299f149e92ead563fba08ef,62a4446a62c49d4ad5076526,,,,,,,,,,,,,,,,,,,,,,,,,,,,,,,,,,,,,,,,,,,,,,,,,,,,,,,,,,,,,,,,,,,,,,,,,,,,,,,,,,,,,,,,,,,,"[""comma""]",0,[0.15350000000000819],83,0,83,0,1,,
,,,,,,,,,,,,5dffb7505cc380bf9945baf6,39,Mężczyzna,2022-06-11_09h32.50.215,task,2021.1.4,Win32,143.8434983,6299f149e92ead563fba08ef,62a4446a62c49d4ad5076526,,,,,,,,,,,,,,,,,,,,,,,,,,,,,,,,,,,,,,,,,,,,,,,,,,,,,,,,,,,,,,,,,,,,,,,,,,,,,,,,,,,,,,,,,,,,"[""comma""]",0,[0.264400000005935],84,0,84,0,1,,
,,,,,,,,,,,,5dffb7505cc380bf9945baf6,39,Mężczyzna,2022-06-11_09h32.50.215,task,2021.1.4,Win32,143.8434983,6299f149e92ead563fba08ef,62a4446a62c49d4ad5076526,,,,,,,,,,,,,,,,,,,,,,,,,,,,,,,,,,,,,,,,,,,,,,,,,,,,,,,,,,,,,,,,,,,,,,,,,,,,,,,,,,,,,,,,,,,,"[""comma""]",0,[0.3621999999880927],85,0,85,0,1,,
,,,,,,,,,,,,5dffb7505cc380bf9945baf6,39,Mężczyzna,2022-06-11_09h32.50.215,task,2021.1.4,Win32,143.8434983,6299f149e92ead563fba08ef,62a4446a62c49d4ad5076526,,,,,,,,,,,,,,,,,,,,,,,,,,,,,,,,,,,,,,,,,,,,,,,,,,,,,,,,,,,,,,,,,,,,,,,,,,,,,,,,,,,,,,,,,,,,"[""period""]",0,[0.08420000001797234],86,0,86,0,1,,
,,,,,,,,,,,,5dffb7505cc380bf9945baf6,39,Mężczyzna,2022-06-11_09h32.50.215,task,2021.1.4,Win32,143.8434983,6299f149e92ead563fba08ef,62a4446a62c49d4ad5076526,,,,,,,,,,,,,,,,,,,,,,,,,,,,,,,,,,,,,,,,,,,,,,,,,,,,,,,,,,,,,,,,,,,,,,,,,,,,,,,,,,,,,,,,,,,,"[""period"",""comma""]",0,"[0.13249999999993634,1.92349999999999]",87,0,87,0,1,,
,,,,,,,,,,,,5dffb7505cc380bf9945baf6,39,Mężczyzna,2022-06-11_09h32.50.215,task,2021.1.4,Win32,143.8434983,6299f149e92ead563fba08ef,62a4446a62c49d4ad5076526,,,,,,,,,,,,,,,,,,,,,,,,,,,,,,,,,,,,,,,,,,,,,,,,,,,,,,,,,,,,,,,,,,,,,,,,,,,,,,,,,,,,,,,,,,,,,0,,88,0,88,0,1,,
,,,,,,,,,,,,5dffb7505cc380bf9945baf6,39,Mężczyzna,2022-06-11_09h32.50.215,task,2021.1.4,Win32,143.8434983,6299f149e92ead563fba08ef,62a4446a62c49d4ad5076526,,,,,,,,,,,,,,,,,,,,,,,,,,,,,,,,,,,,,,,,,,,,,,,,,,,,,,,,,,,,,,,,,,,,,,,,,,,,,,,,,,,,,,,,,,,,"[""comma""]",0,[0.2447000000179287],89,0,89,0,1,,
,,,,,,,,,,,,5dffb7505cc380bf9945baf6,39,Mężczyzna,2022-06-11_09h32.50.215,task,2021.1.4,Win32,143.8434983,6299f149e92ead563fba08ef,62a4446a62c49d4ad5076526,,,,,,,,,,,,,,,,,,,,,,,,,,,,,,,,,,,,,,,,,,,,,,,,,,,,,,,,,,,,,,,,,,,,,,,,,,,,,,,,,,,,,,,,,,,,"[""period""]",0,[0.29960000002392917],90,0,90,0,1,,
,,,,,,,,,,,,5dffb7505cc380bf9945baf6,39,Mężczyzna,2022-06-11_09h32.50.215,task,2021.1.4,Win32,143.8434983,6299f149e92ead563fba08ef,62a4446a62c49d4ad5076526,,,,,,,,,,,,,,,,,,,,,,,,,,,,,,,,,,,,,,,,,,,,,,,,,,,,,,,,,,,,,,,,,,,,,,,,,,,,,,,,,,,,,,,,,,,,"[""comma""]",0,[0.5003000000118618],91,0,91,0,1,,
,,,,,,,,,,,,5dffb7505cc380bf9945baf6,39,Mężczyzna,2022-06-11_09h32.50.215,task,2021.1.4,Win32,143.8434983,6299f149e92ead563fba08ef,62a4446a62c49d4ad5076526,,,,,,,,,,,,,,,,,,,,,,,,,,,,,,,,,,,,,,,,,,,,,,,,,,,,,,,,,,,,,,,,,,,,,,,,,,,,,,,,,,,,,,,,,,,,"[""comma""]",0,[0.31370000001788867],92,0,92,0,1,,
,,,,,,,,,,,,5dffb7505cc380bf9945baf6,39,Mężczyzna,2022-06-11_09h32.50.215,task,2021.1.4,Win32,143.8434983,6299f149e92ead563fba08ef,62a4446a62c49d4ad5076526,,,,,,,,,,,,,,,,,,,,,,,,,,,,,,,,,,,,,,,,,,,,,,,,,,,,,,,,,,,,,,,,,,,,,,,,,,,,,,,,,,,,,,,,,,,,"[""period""]",0,[0.465900000005945],93,0,93,0,1,,
,,,,,,,,,,,,5dffb7505cc380bf9945baf6,39,Mężczyzna,2022-06-11_09h32.50.215,task,2021.1.4,Win32,143.8434983,6299f149e92ead563fba08ef,62a4446a62c49d4ad5076526,,,,,,,,,,,,,,,,,,,,,,,,,,,,,,,,,,,,,,,,,,,,,,,,,,,,,,,,,,,,,,,,,,,,,,,,,,,,,,,,,,,,,,,,,,,,"[""comma""]",0,[0.3851999999880036],94,0,94,0,1,,
,,,,,,,,,,,,5dffb7505cc380bf9945baf6,39,Mężczyzna,2022-06-11_09h32.50.215,task,2021.1.4,Win32,143.8434983,6299f149e92ead563fba08ef,62a4446a62c49d4ad5076526,,,,,,,,,,,,,,,,,,,,,,,,,,,,,,,,,,,,,,,,,,,,,,,,,,,,,,,,,,,,,,,,,,,,,,,,,,,,,,,,,,,,,,,,,,,,"[""period""]",0,[0.16319999998813728],95,0,95,0,1,,
,,,,,,,,,,,,5dffb7505cc380bf9945baf6,39,Mężczyzna,2022-06-11_09h32.50.215,task,2021.1.4,Win32,143.8434983,6299f149e92ead563fba08ef,62a4446a62c49d4ad5076526,,,,,,,,,,,,,,,,,,,,,,,,,,,,,,,,,,,,,,,,,,,,,,,,,,,,,,,,,,,,,,,,,,,,,,,,,,,,,,,,,,,,,,,,,,,,"[""period""]",0,[0.000599999994051359],96,0,96,0,1,,
,,,,,,,,,,,,5dffb7505cc380bf9945baf6,39,Mężczyzna,2022-06-11_09h32.50.215,task,2021.1.4,Win32,143.8434983,6299f149e92ead563fba08ef,62a4446a62c49d4ad5076526,,,,,,,,,,,,,,,,,,,,,,,,,,,,,,,,,,,,,,,,,,,,,,,,,,,,,,,,,,,,,,,,,,,,,,,,,,,,,,,,,,,,,,,,,,,,"[""period"",""comma""]",0,"[0.10070000001792323,1.6952000000179623]",97,0,97,0,1,,
,,,,,,,,,,,,5dffb7505cc380bf9945baf6,39,Mężczyzna,2022-06-11_09h32.50.215,task,2021.1.4,Win32,143.8434983,6299f149e92ead563fba08ef,62a4446a62c49d4ad5076526,,,,,,,,,,,,,,,,,,,,,,,,,,,,,,,,,,,,,,,,,,,,,,,,,,,,,,,,,,,,,,,,,,,,,,,,,,,,,,,,,,,,,,,,,,,,,0,,98,0,98,0,1,,
,,,,,,,,,,,,5dffb7505cc380bf9945baf6,39,Mężczyzna,2022-06-11_09h32.50.215,task,2021.1.4,Win32,143.8434983,6299f149e92ead563fba08ef,62a4446a62c49d4ad5076526,,,,,,,,,,,,,,,,,,,,,,,,,,,,,,,,,,,,,,,,,,,,,,,,,,,,,,,,,,,,,,,,,,,,,,,,,,,,,,,,,,,,,,,,,,,,"[""comma""]",0,[0.42440000000601685],99,0,99,0,1,,
,,,,,,,,,,,,5dffb7505cc380bf9945baf6,39,Mężczyzna,2022-06-11_09h32.50.215,task,2021.1.4,Win32,143.8434983,6299f149e92ead563fba08ef,62a4446a62c49d4ad5076526,,,,,,,,,,,,,,,,,,,,,,,,,,,,,,,,,,,,,,,,,,,,,,,,,,,,,,,,,,,,,,,,,,,,,,,,,,,,,,,,,,,,,,,,,,,,"[""period""]",0,[0.6322999999821377],100,0,100,0,1,,
,,,,,,,,,,,,5dffb7505cc380bf9945baf6,39,Mężczyzna,2022-06-11_09h32.50.215,task,2021.1.4,Win32,143.8434983,6299f149e92ead563fba08ef,62a4446a62c49d4ad5076526,,,,,,,,,,,,,,,,,,,,,,,,,,,,,,,,,,,,,,,,,,,,,,,,,,,,,,,,,,,,,,,,,,,,,,,,,,,,,,,,,,,,,,,,,,,,"[""period""]",0,[0.38280000001191183],101,0,101,0,1,,
,,,,,,,,,,,,5dffb7505cc380bf9945baf6,39,Mężczyzna,2022-06-11_09h32.50.215,task,2021.1.4,Win32,143.8434983,6299f149e92ead563fba08ef,62a4446a62c49d4ad5076526,,,,,,,,,,,,,,,,,,,,,,,,,,,,,,,,,,,,,,,,,,,,,,,,,,,,,,,,,,,,,,,,,,,,,,,,,,,,,,,,,,,,,,,,,,,,"[""period""]",0,[0.6124999999999545],102,0,102,0,1,,
,,,,,,,,,,,,5dffb7505cc380bf9945baf6,39,Mężczyzna,2022-06-11_09h32.50.215,task,2021.1.4,Win32,143.8434983,6299f149e92ead563fba08ef,62a4446a62c49d4ad5076526,,,,,,,,,,,,,,,,,,,,,,,,,,,,,,,,,,,,,,,,,,,,,,,,,,,,,,,,,,,,,,,,,,,,,,,,,,,,,,,,,,,,,,,,,,,,"[""comma""]",0,[0.41720000001782864],103,0,103,0,1,,
,,,,,,,,,,,,5dffb7505cc380bf9945baf6,39,Mężczyzna,2022-06-11_09h32.50.215,task,2021.1.4,Win32,143.8434983,6299f149e92ead563fba08ef,62a4446a62c49d4ad5076526,,,,,,,,,,,,,,,,,,,,,,,,,,,,,,,,,,,,,,,,,,,,,,,,,,,,,,,,,,,,,,,,,,,,,,,,,,,,,,,,,,,,,,,,,,,,"[""comma""]",0,[0.22459999999409774],104,0,104,0,1,,
,,,,,,,,,,,,5dffb7505cc380bf9945baf6,39,Mężczyzna,2022-06-11_09h32.50.215,task,2021.1.4,Win32,143.8434983,6299f149e92ead563fba08ef,62a4446a62c49d4ad5076526,,,,,,,,,,,,,,,,,,,,,,,,,,,,,,,,,,,,,,,,,,,,,,,,,,,,,,,,,,,,,,,,,,,,,,,,,,,,,,,,,,,,,,,,,,,,"[""period""]",0,[0.2440000000000282],105,0,105,0,1,,
,,,,,,,,,,,,5dffb7505cc380bf9945baf6,39,Mężczyzna,2022-06-11_09h32.50.215,task,2021.1.4,Win32,143.8434983,6299f149e92ead563fba08ef,62a4446a62c49d4ad5076526,,,,,,,,,,,,,,,,,,,,,,,,,,,,,,,,,,,,,,,,,,,,,,,,,,,,,,,,,,,,,,,,,,,,,,,,,,,,,,,,,,,,,,,,,,,,"[""comma""]",0,[0.26499999999998636],106,0,106,0,1,,
,,,,,,,,,,,,5dffb7505cc380bf9945baf6,39,Mężczyzna,2022-06-11_09h32.50.215,task,2021.1.4,Win32,143.8434983,6299f149e92ead563fba08ef,62a4446a62c49d4ad5076526,,,,,,,,,,,,,,,,,,,,,,,,,,,,,,,,,,,,,,,,,,,,,,,,,,,,,,,,,,,,,,,,,,,,,,,,,,,,,,,,,,,,,,,,,,,,"[""comma""]",0,[0.25050000000010186],107,0,107,0,1,,
,,,,,,,,,,,,5dffb7505cc380bf9945baf6,39,Mężczyzna,2022-06-11_09h32.50.215,task,2021.1.4,Win32,143.8434983,6299f149e92ead563fba08ef,62a4446a62c49d4ad5076526,,,,,,,,,,,,,,,,,,,,,,,,,,,,,,,,,,,,,,,,,,,,,,,,,,,,,,,,,,,,,,,,,,,,,,,,,,,,,,,,,,,,,,,,,,,,"[""period""]",0,[0.14809999999408774],108,0,108,0,1,,
,,,,,,,,,,,,5dffb7505cc380bf9945baf6,39,Mężczyzna,2022-06-11_09h32.50.215,task,2021.1.4,Win32,143.8434983,6299f149e92ead563fba08ef,62a4446a62c49d4ad5076526,,,,,,,,,,,,,,,,,,,,,,,,,,,,,,,,,,,,,,,,,,,,,,,,,,,,,,,,,,,,,,,,,,,,,,,,,,,,,,,,,,,,,,,,,,,,"[""period""]",0,[0.2580999999939877],109,0,109,0,1,,
,,,,,,,,,,,,5dffb7505cc380bf9945baf6,39,Mężczyzna,2022-06-11_09h32.50.215,task,2021.1.4,Win32,143.8434983,6299f149e92ead563fba08ef,62a4446a62c49d4ad5076526,,,,,,,,,,,,,,,,,,,,,,,,,,,,,,,,,,,,,,,,,,,,,,,,,,,,,,,,,,,,,,,,,,,,,,,,,,,,,,,,,,,,,,,,,,,,"[""comma""]",0,[0.31420000001787685],110,0,110,0,1,,
,,,,,,,,,,,,5dffb7505cc380bf9945baf6,39,Mężczyzna,2022-06-11_09h32.50.215,task,2021.1.4,Win32,143.8434983,6299f149e92ead563fba08ef,62a4446a62c49d4ad5076526,,,,,,,,,,,,,,,,,,,,,,,,,,,,,,,,,,,,,,,,,,,,,,,,,,,,,,,,,,,,,,,,,,,,,,,,,,,,,,,,,,,,,,,,,,,,"[""comma""]",0,[0.38979999998207404],111,0,111,0,1,,
,,,,,,,,,,,,5dffb7505cc380bf9945baf6,39,Mężczyzna,2022-06-11_09h32.50.215,task,2021.1.4,Win32,143.8434983,6299f149e92ead563fba08ef,62a4446a62c49d4ad5076526,,,,,,,,,,,,,,,,,,,,,,,,,,,,,,,,,,,,,,,,,,,,,,,,,,,,,,,,,,,,,,,,,,,,,,,,,,,,,,,,,,,,,,,,,,,,"[""period""]",0,[0.37799999999992906],112,0,112,0,1,,
,,,,,,,,,,,,5dffb7505cc380bf9945baf6,39,Mężczyzna,2022-06-11_09h32.50.215,task,2021.1.4,Win32,143.8434983,6299f149e92ead563fba08ef,62a4446a62c49d4ad5076526,,,,,,,,,,,,,,,,,,,,,,,,,,,,,,,,,,,,,,,,,,,,,,,,,,,,,,,,,,,,,,,,,,,,,,,,,,,,,,,,,,,,,,,,,,,,"[""comma""]",0,[0.3206999999880509],113,0,113,0,1,,
,,,,,,,,,,,,5dffb7505cc380bf9945baf6,39,Mężczyzna,2022-06-11_09h32.50.215,task,2021.1.4,Win32,143.8434983,6299f149e92ead563fba08ef,62a4446a62c49d4ad5076526,,,,,,,,,,,,,,,,,,,,,,,,,,,,,,,,,,,,,,,,,,,,,,,,,,,,,,,,,,,,,,,,,,,,,,,,,,,,,,,,,,,,,,,,,,,,"[""comma""]",0,[0.2599000000060414],114,0,114,0,1,,
,,,,,,,,,,,,5dffb7505cc380bf9945baf6,39,Mężczyzna,2022-06-11_09h32.50.215,task,2021.1.4,Win32,143.8434983,6299f149e92ead563fba08ef,62a4446a62c49d4ad5076526,,,,,,,,,,,,,,,,,,,,,,,,,,,,,,,,,,,,,,,,,,,,,,,,,,,,,,,,,,,,,,,,,,,,,,,,,,,,,,,,,,,,,,,,,,,,"[""comma""]",0,[0.3478999999761072],115,0,115,0,1,,
,,,,,,,,,,,,5dffb7505cc380bf9945baf6,39,Mężczyzna,2022-06-11_09h32.50.215,task,2021.1.4,Win32,143.8434983,6299f149e92ead563fba08ef,62a4446a62c49d4ad5076526,,,,,,,,,,,,,,,,,,,,,,,,,,,,,,,,,,,,,,,,,,,,,,,,,,,,,,,,,,,,,,,,,,,,,,,,,,,,,,,,,,,,,,,,,,,,"[""period""]",0,[0.243900000005965],116,0,116,0,1,,
,,,,,,,,,,,,5dffb7505cc380bf9945baf6,39,Mężczyzna,2022-06-11_09h32.50.215,task,2021.1.4,Win32,143.8434983,6299f149e92ead563fba08ef,62a4446a62c49d4ad5076526,,,,,,,,,,,,,,,,,,,,,,,,,,,,,,,,,,,,,,,,,,,,,,,,,,,,,,,,,,,,,,,,,,,,,,,,,,,,,,,,,,,,,,,,,,,,"[""comma""]",0,[0.4041999999881227],117,0,117,0,1,,
,,,,,,,,,,,,5dffb7505cc380bf9945baf6,39,Mężczyzna,2022-06-11_09h32.50.215,task,2021.1.4,Win32,143.8434983,6299f149e92ead563fba08ef,62a4446a62c49d4ad5076526,,,,,,,,,,,,,,,,,,,,,,,,,,,,,,,,,,,,,,,,,,,,,,,,,,,,,,,,,,,,,,,,,,,,,,,,,,,,,,,,,,,,,,,,,,,,"[""comma""]",0,[0.3125999999940632],118,0,118,0,1,,
,,,,,,,,,,,,5dffb7505cc380bf9945baf6,39,Mężczyzna,2022-06-11_09h32.50.215,task,2021.1.4,Win32,143.8434983,6299f149e92ead563fba08ef,62a4446a62c49d4ad5076526,,,,,,,,,,,,,,,,,,,,,,,,,,,,,,,,,,,,,,,,,,,,,,,,,,,,,,,,,,,,,,,,,,,,,,,,,,,,,,,,,,,,,,,,,,,,"[""comma"",""period""]",0,"[0.13969999998801086,1.7313000000118564]",119,0,119,0,1,,
,,,,,,,,,,,,5dffb7505cc380bf9945baf6,39,Mężczyzna,2022-06-11_09h32.50.215,task,2021.1.4,Win32,143.8434983,6299f149e92ead563fba08ef,62a4446a62c49d4ad5076526,,,,,,,,,,,,,,,,,,,,,,,,,,,,,,,,,,,,,,,,,,,,,,,,,,,,,,,,,,,,,,,,,,,,,,,,,,,,,,,,,,,,,,,,,,,,,,,,,,,,space,1.9122
