key_resp_15.keys,key_resp_15.rt,key_resp_13.keys,key_resp_13.corr,key_resp_13.rt,ranodm_loop.thisRepN,ranodm_loop.thisTrialN,ranodm_loop.thisN,ranodm_loop.thisIndex,ranodm_loop.ran,participant,Wiek*,Płeć,date,expName,psychopyVersion,OS,frameRate,study_id,session,key_resp_16.keys,key_resp_16.rt,key_resp_4.keys,key_resp_4.rt,next_letter.thisRepN,next_letter.thisTrialN,next_letter.thisN,next_letter.thisIndex,next_letter.ran,letter,simple_recall,key_resp_5.keys,key_resp_5.rt,simple_recall_corr,simple_recall_corrkeys,next_level.thisRepN,next_level.thisTrialN,next_level.thisN,next_level.thisIndex,next_level.ran,key_resp_2.keys,key_resp_2.rt,digit_answer,key_resp.keys,key_resp.corr,key_resp.rt,RT_list,next_equation.thisRepN,next_equation.thisTrialN,next_equation.thisN,next_equation.thisIndex,next_equation.ran,Task,Trial,Problem,Operation_answer,processing_score,sumRT,meanRT,sumdiff,sd,RT,key_resp_3.keys,key_resp_3.rt,repeat_practice.thisRepN,repeat_practice.thisTrialN,repeat_practice.thisN,repeat_practice.thisIndex,repeat_practice.ran,key_resp_6.keys,key_resp_6.rt,key_resp_11.keys,key_resp_11.corr,key_resp_11.rt,operation_correct,repeat_if_wrong_prac.thisRepN,repeat_if_wrong_prac.thisTrialN,repeat_if_wrong_prac.thisN,repeat_if_wrong_prac.thisIndex,repeat_if_wrong_prac.ran,span_size_prac.thisRepN,span_size_prac.thisTrialN,span_size_prac.thisN,span_size_prac.thisIndex,span_size_prac.ran,complex_recall_practice,key_resp_9.keys,key_resp_9.corr,key_resp_9.rt,complex_prac_corr,span_recall_prac.thisRepN,span_recall_prac.thisTrialN,span_recall_prac.thisN,span_recall_prac.thisIndex,span_recall_prac.ran,key_resp_10.keys,key_resp_10.rt,key_resp_7.keys,key_resp_7.corr,key_resp_7.rt,repeat_if_wrong.thisRepN,repeat_if_wrong.thisTrialN,repeat_if_wrong.thisN,repeat_if_wrong.thisIndex,repeat_if_wrong.ran,span_size.thisRepN,span_size.thisTrialN,span_size.thisN,span_size.thisIndex,span_size.ran,complex_recall,key_resp_8.keys,key_resp_8.corr,key_resp_8.rt,complex_recall_corr,complex_recall_corrkeys,span_recall.thisRepN,span_recall.thisTrialN,span_recall.thisN,span_recall.thisIndex,span_recall.ran,key_resp_12.keys,key_resp_12.rt
space,21.3205,"[""comma""]",0,[1.7970999999046313],0,0,0,0,1,5e04595a4fa02aefdb9c9ced,28,Kobieta,2022-06-04_08h18.26.770,task,2021.1.4,Win32,59.3753711,628b806c463b948bc644b84f,629af91444859c8d22c4ddfe,,,,,,,,,,,,,,,,,,,,,,,,,,,,,,,,,,,,,,,,,,,,,,,,,,,,,,,,,,,,,,,,,,,,,,,,,,,,,,,,,,,,,,,,,,,,,,,,,,,,,,,
,,"[""period""]",0,[1.441799999952309],1,0,1,0,1,5e04595a4fa02aefdb9c9ced,28,Kobieta,2022-06-04_08h18.26.770,task,2021.1.4,Win32,59.3753711,628b806c463b948bc644b84f,629af91444859c8d22c4ddfe,,,,,,,,,,,,,,,,,,,,,,,,,,,,,,,,,,,,,,,,,,,,,,,,,,,,,,,,,,,,,,,,,,,,,,,,,,,,,,,,,,,,,,,,,,,,,,,,,,,,,,,
,,"[""comma""]",0,[0.9627000000476897],2,0,2,0,1,5e04595a4fa02aefdb9c9ced,28,Kobieta,2022-06-04_08h18.26.770,task,2021.1.4,Win32,59.3753711,628b806c463b948bc644b84f,629af91444859c8d22c4ddfe,,,,,,,,,,,,,,,,,,,,,,,,,,,,,,,,,,,,,,,,,,,,,,,,,,,,,,,,,,,,,,,,,,,,,,,,,,,,,,,,,,,,,,,,,,,,,,,,,,,,,,,
,,"[""period""]",0,[0.44209999990464155],3,0,3,0,1,5e04595a4fa02aefdb9c9ced,28,Kobieta,2022-06-04_08h18.26.770,task,2021.1.4,Win32,59.3753711,628b806c463b948bc644b84f,629af91444859c8d22c4ddfe,,,,,,,,,,,,,,,,,,,,,,,,,,,,,,,,,,,,,,,,,,,,,,,,,,,,,,,,,,,,,,,,,,,,,,,,,,,,,,,,,,,,,,,,,,,,,,,,,,,,,,,
,,"[""comma""]",0,[0.39579999995231674],4,0,4,0,1,5e04595a4fa02aefdb9c9ced,28,Kobieta,2022-06-04_08h18.26.770,task,2021.1.4,Win32,59.3753711,628b806c463b948bc644b84f,629af91444859c8d22c4ddfe,,,,,,,,,,,,,,,,,,,,,,,,,,,,,,,,,,,,,,,,,,,,,,,,,,,,,,,,,,,,,,,,,,,,,,,,,,,,,,,,,,,,,,,,,,,,,,,,,,,,,,,
,,"[""period""]",0,[0.338100000023843],5,0,5,0,1,5e04595a4fa02aefdb9c9ced,28,Kobieta,2022-06-04_08h18.26.770,task,2021.1.4,Win32,59.3753711,628b806c463b948bc644b84f,629af91444859c8d22c4ddfe,,,,,,,,,,,,,,,,,,,,,,,,,,,,,,,,,,,,,,,,,,,,,,,,,,,,,,,,,,,,,,,,,,,,,,,,,,,,,,,,,,,,,,,,,,,,,,,,,,,,,,,
,,"[""comma""]",0,[0.3218999999761678],6,0,6,0,1,5e04595a4fa02aefdb9c9ced,28,Kobieta,2022-06-04_08h18.26.770,task,2021.1.4,Win32,59.3753711,628b806c463b948bc644b84f,629af91444859c8d22c4ddfe,,,,,,,,,,,,,,,,,,,,,,,,,,,,,,,,,,,,,,,,,,,,,,,,,,,,,,,,,,,,,,,,,,,,,,,,,,,,,,,,,,,,,,,,,,,,,,,,,,,,,,,
,,"[""period""]",0,[0.4545999999046302],7,0,7,0,1,5e04595a4fa02aefdb9c9ced,28,Kobieta,2022-06-04_08h18.26.770,task,2021.1.4,Win32,59.3753711,628b806c463b948bc644b84f,629af91444859c8d22c4ddfe,,,,,,,,,,,,,,,,,,,,,,,,,,,,,,,,,,,,,,,,,,,,,,,,,,,,,,,,,,,,,,,,,,,,,,,,,,,,,,,,,,,,,,,,,,,,,,,,,,,,,,,
,,"[""comma""]",0,[0.3912000000476894],8,0,8,0,1,5e04595a4fa02aefdb9c9ced,28,Kobieta,2022-06-04_08h18.26.770,task,2021.1.4,Win32,59.3753711,628b806c463b948bc644b84f,629af91444859c8d22c4ddfe,,,,,,,,,,,,,,,,,,,,,,,,,,,,,,,,,,,,,,,,,,,,,,,,,,,,,,,,,,,,,,,,,,,,,,,,,,,,,,,,,,,,,,,,,,,,,,,,,,,,,,,
,,"[""period""]",0,[0.3821999999284742],9,0,9,0,1,5e04595a4fa02aefdb9c9ced,28,Kobieta,2022-06-04_08h18.26.770,task,2021.1.4,Win32,59.3753711,628b806c463b948bc644b84f,629af91444859c8d22c4ddfe,,,,,,,,,,,,,,,,,,,,,,,,,,,,,,,,,,,,,,,,,,,,,,,,,,,,,,,,,,,,,,,,,,,,,,,,,,,,,,,,,,,,,,,,,,,,,,,,,,,,,,,
,,"[""comma""]",0,[0.3374999999999915],10,0,10,0,1,5e04595a4fa02aefdb9c9ced,28,Kobieta,2022-06-04_08h18.26.770,task,2021.1.4,Win32,59.3753711,628b806c463b948bc644b84f,629af91444859c8d22c4ddfe,,,,,,,,,,,,,,,,,,,,,,,,,,,,,,,,,,,,,,,,,,,,,,,,,,,,,,,,,,,,,,,,,,,,,,,,,,,,,,,,,,,,,,,,,,,,,,,,,,,,,,,
,,"[""period""]",0,[0.3539999999999992],11,0,11,0,1,5e04595a4fa02aefdb9c9ced,28,Kobieta,2022-06-04_08h18.26.770,task,2021.1.4,Win32,59.3753711,628b806c463b948bc644b84f,629af91444859c8d22c4ddfe,,,,,,,,,,,,,,,,,,,,,,,,,,,,,,,,,,,,,,,,,,,,,,,,,,,,,,,,,,,,,,,,,,,,,,,,,,,,,,,,,,,,,,,,,,,,,,,,,,,,,,,
,,"[""comma""]",0,[0.465999999999994],12,0,12,0,1,5e04595a4fa02aefdb9c9ced,28,Kobieta,2022-06-04_08h18.26.770,task,2021.1.4,Win32,59.3753711,628b806c463b948bc644b84f,629af91444859c8d22c4ddfe,,,,,,,,,,,,,,,,,,,,,,,,,,,,,,,,,,,,,,,,,,,,,,,,,,,,,,,,,,,,,,,,,,,,,,,,,,,,,,,,,,,,,,,,,,,,,,,,,,,,,,,
,,"[""period""]",0,[0.29879999995232254],13,0,13,0,1,5e04595a4fa02aefdb9c9ced,28,Kobieta,2022-06-04_08h18.26.770,task,2021.1.4,Win32,59.3753711,628b806c463b948bc644b84f,629af91444859c8d22c4ddfe,,,,,,,,,,,,,,,,,,,,,,,,,,,,,,,,,,,,,,,,,,,,,,,,,,,,,,,,,,,,,,,,,,,,,,,,,,,,,,,,,,,,,,,,,,,,,,,,,,,,,,,
,,"[""comma""]",0,[0.3209000000953637],14,0,14,0,1,5e04595a4fa02aefdb9c9ced,28,Kobieta,2022-06-04_08h18.26.770,task,2021.1.4,Win32,59.3753711,628b806c463b948bc644b84f,629af91444859c8d22c4ddfe,,,,,,,,,,,,,,,,,,,,,,,,,,,,,,,,,,,,,,,,,,,,,,,,,,,,,,,,,,,,,,,,,,,,,,,,,,,,,,,,,,,,,,,,,,,,,,,,,,,,,,,
,,"[""period""]",0,[0.3183999999761511],15,0,15,0,1,5e04595a4fa02aefdb9c9ced,28,Kobieta,2022-06-04_08h18.26.770,task,2021.1.4,Win32,59.3753711,628b806c463b948bc644b84f,629af91444859c8d22c4ddfe,,,,,,,,,,,,,,,,,,,,,,,,,,,,,,,,,,,,,,,,,,,,,,,,,,,,,,,,,,,,,,,,,,,,,,,,,,,,,,,,,,,,,,,,,,,,,,,,,,,,,,,
,,"[""comma""]",0,[0.379400000095373],16,0,16,0,1,5e04595a4fa02aefdb9c9ced,28,Kobieta,2022-06-04_08h18.26.770,task,2021.1.4,Win32,59.3753711,628b806c463b948bc644b84f,629af91444859c8d22c4ddfe,,,,,,,,,,,,,,,,,,,,,,,,,,,,,,,,,,,,,,,,,,,,,,,,,,,,,,,,,,,,,,,,,,,,,,,,,,,,,,,,,,,,,,,,,,,,,,,,,,,,,,,
,,"[""period""]",0,[0.3673000000715234],17,0,17,0,1,5e04595a4fa02aefdb9c9ced,28,Kobieta,2022-06-04_08h18.26.770,task,2021.1.4,Win32,59.3753711,628b806c463b948bc644b84f,629af91444859c8d22c4ddfe,,,,,,,,,,,,,,,,,,,,,,,,,,,,,,,,,,,,,,,,,,,,,,,,,,,,,,,,,,,,,,,,,,,,,,,,,,,,,,,,,,,,,,,,,,,,,,,,,,,,,,,
,,"[""comma""]",0,[0.30400000000000205],18,0,18,0,1,5e04595a4fa02aefdb9c9ced,28,Kobieta,2022-06-04_08h18.26.770,task,2021.1.4,Win32,59.3753711,628b806c463b948bc644b84f,629af91444859c8d22c4ddfe,,,,,,,,,,,,,,,,,,,,,,,,,,,,,,,,,,,,,,,,,,,,,,,,,,,,,,,,,,,,,,,,,,,,,,,,,,,,,,,,,,,,,,,,,,,,,,,,,,,,,,,
,,"[""period""]",0,[0.28429999995232436],19,0,19,0,1,5e04595a4fa02aefdb9c9ced,28,Kobieta,2022-06-04_08h18.26.770,task,2021.1.4,Win32,59.3753711,628b806c463b948bc644b84f,629af91444859c8d22c4ddfe,,,,,,,,,,,,,,,,,,,,,,,,,,,,,,,,,,,,,,,,,,,,,,,,,,,,,,,,,,,,,,,,,,,,,,,,,,,,,,,,,,,,,,,,,,,,,,,,,,,,,,,
,,"[""comma""]",0,[0.3032999999523298],20,0,20,0,1,5e04595a4fa02aefdb9c9ced,28,Kobieta,2022-06-04_08h18.26.770,task,2021.1.4,Win32,59.3753711,628b806c463b948bc644b84f,629af91444859c8d22c4ddfe,,,,,,,,,,,,,,,,,,,,,,,,,,,,,,,,,,,,,,,,,,,,,,,,,,,,,,,,,,,,,,,,,,,,,,,,,,,,,,,,,,,,,,,,,,,,,,,,,,,,,,,
,,"[""period""]",0,[0.304300000071521],21,0,21,0,1,5e04595a4fa02aefdb9c9ced,28,Kobieta,2022-06-04_08h18.26.770,task,2021.1.4,Win32,59.3753711,628b806c463b948bc644b84f,629af91444859c8d22c4ddfe,,,,,,,,,,,,,,,,,,,,,,,,,,,,,,,,,,,,,,,,,,,,,,,,,,,,,,,,,,,,,,,,,,,,,,,,,,,,,,,,,,,,,,,,,,,,,,,,,,,,,,,
,,"[""comma""]",0,[0.3534999999999968],22,0,22,0,1,5e04595a4fa02aefdb9c9ced,28,Kobieta,2022-06-04_08h18.26.770,task,2021.1.4,Win32,59.3753711,628b806c463b948bc644b84f,629af91444859c8d22c4ddfe,,,,,,,,,,,,,,,,,,,,,,,,,,,,,,,,,,,,,,,,,,,,,,,,,,,,,,,,,,,,,,,,,,,,,,,,,,,,,,,,,,,,,,,,,,,,,,,,,,,,,,,
,,"[""comma""]",0,[0.3632999999523179],23,0,23,0,1,5e04595a4fa02aefdb9c9ced,28,Kobieta,2022-06-04_08h18.26.770,task,2021.1.4,Win32,59.3753711,628b806c463b948bc644b84f,629af91444859c8d22c4ddfe,,,,,,,,,,,,,,,,,,,,,,,,,,,,,,,,,,,,,,,,,,,,,,,,,,,,,,,,,,,,,,,,,,,,,,,,,,,,,,,,,,,,,,,,,,,,,,,,,,,,,,,
,,"[""comma""]",0,[0.12360000002382776],24,0,24,0,1,5e04595a4fa02aefdb9c9ced,28,Kobieta,2022-06-04_08h18.26.770,task,2021.1.4,Win32,59.3753711,628b806c463b948bc644b84f,629af91444859c8d22c4ddfe,,,,,,,,,,,,,,,,,,,,,,,,,,,,,,,,,,,,,,,,,,,,,,,,,,,,,,,,,,,,,,,,,,,,,,,,,,,,,,,,,,,,,,,,,,,,,,,,,,,,,,,
,,"[""period""]",0,[0.3176000000238446],25,0,25,0,1,5e04595a4fa02aefdb9c9ced,28,Kobieta,2022-06-04_08h18.26.770,task,2021.1.4,Win32,59.3753711,628b806c463b948bc644b84f,629af91444859c8d22c4ddfe,,,,,,,,,,,,,,,,,,,,,,,,,,,,,,,,,,,,,,,,,,,,,,,,,,,,,,,,,,,,,,,,,,,,,,,,,,,,,,,,,,,,,,,,,,,,,,,,,,,,,,,
,,"[""period""]",0,[0.3001000000238605],26,0,26,0,1,5e04595a4fa02aefdb9c9ced,28,Kobieta,2022-06-04_08h18.26.770,task,2021.1.4,Win32,59.3753711,628b806c463b948bc644b84f,629af91444859c8d22c4ddfe,,,,,,,,,,,,,,,,,,,,,,,,,,,,,,,,,,,,,,,,,,,,,,,,,,,,,,,,,,,,,,,,,,,,,,,,,,,,,,,,,,,,,,,,,,,,,,,,,,,,,,,
,,"[""period""]",0,[0.3215999999046062],27,0,27,0,1,5e04595a4fa02aefdb9c9ced,28,Kobieta,2022-06-04_08h18.26.770,task,2021.1.4,Win32,59.3753711,628b806c463b948bc644b84f,629af91444859c8d22c4ddfe,,,,,,,,,,,,,,,,,,,,,,,,,,,,,,,,,,,,,,,,,,,,,,,,,,,,,,,,,,,,,,,,,,,,,,,,,,,,,,,,,,,,,,,,,,,,,,,,,,,,,,,
,,"[""comma""]",0,[0.39500000000001023],28,0,28,0,1,5e04595a4fa02aefdb9c9ced,28,Kobieta,2022-06-04_08h18.26.770,task,2021.1.4,Win32,59.3753711,628b806c463b948bc644b84f,629af91444859c8d22c4ddfe,,,,,,,,,,,,,,,,,,,,,,,,,,,,,,,,,,,,,,,,,,,,,,,,,,,,,,,,,,,,,,,,,,,,,,,,,,,,,,,,,,,,,,,,,,,,,,,,,,,,,,,
,,"[""period""]",0,[0.3170000000000073],29,0,29,0,1,5e04595a4fa02aefdb9c9ced,28,Kobieta,2022-06-04_08h18.26.770,task,2021.1.4,Win32,59.3753711,628b806c463b948bc644b84f,629af91444859c8d22c4ddfe,,,,,,,,,,,,,,,,,,,,,,,,,,,,,,,,,,,,,,,,,,,,,,,,,,,,,,,,,,,,,,,,,,,,,,,,,,,,,,,,,,,,,,,,,,,,,,,,,,,,,,,
,,"[""comma""]",0,[0.30579999995231333],30,0,30,0,1,5e04595a4fa02aefdb9c9ced,28,Kobieta,2022-06-04_08h18.26.770,task,2021.1.4,Win32,59.3753711,628b806c463b948bc644b84f,629af91444859c8d22c4ddfe,,,,,,,,,,,,,,,,,,,,,,,,,,,,,,,,,,,,,,,,,,,,,,,,,,,,,,,,,,,,,,,,,,,,,,,,,,,,,,,,,,,,,,,,,,,,,,,,,,,,,,,
,,"[""period""]",0,[0.33080000007151966],31,0,31,0,1,5e04595a4fa02aefdb9c9ced,28,Kobieta,2022-06-04_08h18.26.770,task,2021.1.4,Win32,59.3753711,628b806c463b948bc644b84f,629af91444859c8d22c4ddfe,,,,,,,,,,,,,,,,,,,,,,,,,,,,,,,,,,,,,,,,,,,,,,,,,,,,,,,,,,,,,,,,,,,,,,,,,,,,,,,,,,,,,,,,,,,,,,,,,,,,,,,
,,"[""comma""]",0,[0.36820000004769327],32,0,32,0,1,5e04595a4fa02aefdb9c9ced,28,Kobieta,2022-06-04_08h18.26.770,task,2021.1.4,Win32,59.3753711,628b806c463b948bc644b84f,629af91444859c8d22c4ddfe,,,,,,,,,,,,,,,,,,,,,,,,,,,,,,,,,,,,,,,,,,,,,,,,,,,,,,,,,,,,,,,,,,,,,,,,,,,,,,,,,,,,,,,,,,,,,,,,,,,,,,,
,,"[""comma""]",0,[0.35389999997613586],33,0,33,0,1,5e04595a4fa02aefdb9c9ced,28,Kobieta,2022-06-04_08h18.26.770,task,2021.1.4,Win32,59.3753711,628b806c463b948bc644b84f,629af91444859c8d22c4ddfe,,,,,,,,,,,,,,,,,,,,,,,,,,,,,,,,,,,,,,,,,,,,,,,,,,,,,,,,,,,,,,,,,,,,,,,,,,,,,,,,,,,,,,,,,,,,,,,,,,,,,,,
,,"[""comma""]",0,[0.2663000000715101],34,0,34,0,1,5e04595a4fa02aefdb9c9ced,28,Kobieta,2022-06-04_08h18.26.770,task,2021.1.4,Win32,59.3753711,628b806c463b948bc644b84f,629af91444859c8d22c4ddfe,,,,,,,,,,,,,,,,,,,,,,,,,,,,,,,,,,,,,,,,,,,,,,,,,,,,,,,,,,,,,,,,,,,,,,,,,,,,,,,,,,,,,,,,,,,,,,,,,,,,,,,
,,"[""period""]",0,[0.35139999997616655],35,0,35,0,1,5e04595a4fa02aefdb9c9ced,28,Kobieta,2022-06-04_08h18.26.770,task,2021.1.4,Win32,59.3753711,628b806c463b948bc644b84f,629af91444859c8d22c4ddfe,,,,,,,,,,,,,,,,,,,,,,,,,,,,,,,,,,,,,,,,,,,,,,,,,,,,,,,,,,,,,,,,,,,,,,,,,,,,,,,,,,,,,,,,,,,,,,,,,,,,,,,
,,"[""period""]",0,[0.06590000009535402],36,0,36,0,1,5e04595a4fa02aefdb9c9ced,28,Kobieta,2022-06-04_08h18.26.770,task,2021.1.4,Win32,59.3753711,628b806c463b948bc644b84f,629af91444859c8d22c4ddfe,,,,,,,,,,,,,,,,,,,,,,,,,,,,,,,,,,,,,,,,,,,,,,,,,,,,,,,,,,,,,,,,,,,,,,,,,,,,,,,,,,,,,,,,,,,,,,,,,,,,,,,
,,"[""period""]",0,[0.3011999999284569],37,0,37,0,1,5e04595a4fa02aefdb9c9ced,28,Kobieta,2022-06-04_08h18.26.770,task,2021.1.4,Win32,59.3753711,628b806c463b948bc644b84f,629af91444859c8d22c4ddfe,,,,,,,,,,,,,,,,,,,,,,,,,,,,,,,,,,,,,,,,,,,,,,,,,,,,,,,,,,,,,,,,,,,,,,,,,,,,,,,,,,,,,,,,,,,,,,,,,,,,,,,
,,"[""comma""]",0,[0.36289999997617883],38,0,38,0,1,5e04595a4fa02aefdb9c9ced,28,Kobieta,2022-06-04_08h18.26.770,task,2021.1.4,Win32,59.3753711,628b806c463b948bc644b84f,629af91444859c8d22c4ddfe,,,,,,,,,,,,,,,,,,,,,,,,,,,,,,,,,,,,,,,,,,,,,,,,,,,,,,,,,,,,,,,,,,,,,,,,,,,,,,,,,,,,,,,,,,,,,,,,,,,,,,,
,,"[""comma""]",0,[0.33310000002384754],39,0,39,0,1,5e04595a4fa02aefdb9c9ced,28,Kobieta,2022-06-04_08h18.26.770,task,2021.1.4,Win32,59.3753711,628b806c463b948bc644b84f,629af91444859c8d22c4ddfe,,,,,,,,,,,,,,,,,,,,,,,,,,,,,,,,,,,,,,,,,,,,,,,,,,,,,,,,,,,,,,,,,,,,,,,,,,,,,,,,,,,,,,,,,,,,,,,,,,,,,,,
,,"[""comma""]",0,[0.3172000000476771],40,0,40,0,1,5e04595a4fa02aefdb9c9ced,28,Kobieta,2022-06-04_08h18.26.770,task,2021.1.4,Win32,59.3753711,628b806c463b948bc644b84f,629af91444859c8d22c4ddfe,,,,,,,,,,,,,,,,,,,,,,,,,,,,,,,,,,,,,,,,,,,,,,,,,,,,,,,,,,,,,,,,,,,,,,,,,,,,,,,,,,,,,,,,,,,,,,,,,,,,,,,
,,"[""period""]",0,[0.2712999999523049],41,0,41,0,1,5e04595a4fa02aefdb9c9ced,28,Kobieta,2022-06-04_08h18.26.770,task,2021.1.4,Win32,59.3753711,628b806c463b948bc644b84f,629af91444859c8d22c4ddfe,,,,,,,,,,,,,,,,,,,,,,,,,,,,,,,,,,,,,,,,,,,,,,,,,,,,,,,,,,,,,,,,,,,,,,,,,,,,,,,,,,,,,,,,,,,,,,,,,,,,,,,
,,"[""period""]",0,[0.2753999999761447],42,0,42,0,1,5e04595a4fa02aefdb9c9ced,28,Kobieta,2022-06-04_08h18.26.770,task,2021.1.4,Win32,59.3753711,628b806c463b948bc644b84f,629af91444859c8d22c4ddfe,,,,,,,,,,,,,,,,,,,,,,,,,,,,,,,,,,,,,,,,,,,,,,,,,,,,,,,,,,,,,,,,,,,,,,,,,,,,,,,,,,,,,,,,,,,,,,,,,,,,,,,
,,"[""period""]",0,[0.33579999995231447],43,0,43,0,1,5e04595a4fa02aefdb9c9ced,28,Kobieta,2022-06-04_08h18.26.770,task,2021.1.4,Win32,59.3753711,628b806c463b948bc644b84f,629af91444859c8d22c4ddfe,,,,,,,,,,,,,,,,,,,,,,,,,,,,,,,,,,,,,,,,,,,,,,,,,,,,,,,,,,,,,,,,,,,,,,,,,,,,,,,,,,,,,,,,,,,,,,,,,,,,,,,
,,"[""comma""]",0,[0.29110000002384595],44,0,44,0,1,5e04595a4fa02aefdb9c9ced,28,Kobieta,2022-06-04_08h18.26.770,task,2021.1.4,Win32,59.3753711,628b806c463b948bc644b84f,629af91444859c8d22c4ddfe,,,,,,,,,,,,,,,,,,,,,,,,,,,,,,,,,,,,,,,,,,,,,,,,,,,,,,,,,,,,,,,,,,,,,,,,,,,,,,,,,,,,,,,,,,,,,,,,,,,,,,,
,,"[""period""]",0,[0.3490999999046096],45,0,45,0,1,5e04595a4fa02aefdb9c9ced,28,Kobieta,2022-06-04_08h18.26.770,task,2021.1.4,Win32,59.3753711,628b806c463b948bc644b84f,629af91444859c8d22c4ddfe,,,,,,,,,,,,,,,,,,,,,,,,,,,,,,,,,,,,,,,,,,,,,,,,,,,,,,,,,,,,,,,,,,,,,,,,,,,,,,,,,,,,,,,,,,,,,,,,,,,,,,,
,,"[""comma""]",0,[0.33849999999998204],46,0,46,0,1,5e04595a4fa02aefdb9c9ced,28,Kobieta,2022-06-04_08h18.26.770,task,2021.1.4,Win32,59.3753711,628b806c463b948bc644b84f,629af91444859c8d22c4ddfe,,,,,,,,,,,,,,,,,,,,,,,,,,,,,,,,,,,,,,,,,,,,,,,,,,,,,,,,,,,,,,,,,,,,,,,,,,,,,,,,,,,,,,,,,,,,,,,,,,,,,,,
,,"[""period""]",0,[0.9218999999761763],47,0,47,0,1,5e04595a4fa02aefdb9c9ced,28,Kobieta,2022-06-04_08h18.26.770,task,2021.1.4,Win32,59.3753711,628b806c463b948bc644b84f,629af91444859c8d22c4ddfe,,,,,,,,,,,,,,,,,,,,,,,,,,,,,,,,,,,,,,,,,,,,,,,,,,,,,,,,,,,,,,,,,,,,,,,,,,,,,,,,,,,,,,,,,,,,,,,,,,,,,,,
,,"[""comma""]",0,[0.44940000009535197],48,0,48,0,1,5e04595a4fa02aefdb9c9ced,28,Kobieta,2022-06-04_08h18.26.770,task,2021.1.4,Win32,59.3753711,628b806c463b948bc644b84f,629af91444859c8d22c4ddfe,,,,,,,,,,,,,,,,,,,,,,,,,,,,,,,,,,,,,,,,,,,,,,,,,,,,,,,,,,,,,,,,,,,,,,,,,,,,,,,,,,,,,,,,,,,,,,,,,,,,,,,
,,"[""period""]",0,[0.33529999995229787],49,0,49,0,1,5e04595a4fa02aefdb9c9ced,28,Kobieta,2022-06-04_08h18.26.770,task,2021.1.4,Win32,59.3753711,628b806c463b948bc644b84f,629af91444859c8d22c4ddfe,,,,,,,,,,,,,,,,,,,,,,,,,,,,,,,,,,,,,,,,,,,,,,,,,,,,,,,,,,,,,,,,,,,,,,,,,,,,,,,,,,,,,,,,,,,,,,,,,,,,,,,
,,"[""comma""]",0,[0.37889999997616997],50,0,50,0,1,5e04595a4fa02aefdb9c9ced,28,Kobieta,2022-06-04_08h18.26.770,task,2021.1.4,Win32,59.3753711,628b806c463b948bc644b84f,629af91444859c8d22c4ddfe,,,,,,,,,,,,,,,,,,,,,,,,,,,,,,,,,,,,,,,,,,,,,,,,,,,,,,,,,,,,,,,,,,,,,,,,,,,,,,,,,,,,,,,,,,,,,,,,,,,,,,,
,,"[""period""]",0,[0.31220000004768167],51,0,51,0,1,5e04595a4fa02aefdb9c9ced,28,Kobieta,2022-06-04_08h18.26.770,task,2021.1.4,Win32,59.3753711,628b806c463b948bc644b84f,629af91444859c8d22c4ddfe,,,,,,,,,,,,,,,,,,,,,,,,,,,,,,,,,,,,,,,,,,,,,,,,,,,,,,,,,,,,,,,,,,,,,,,,,,,,,,,,,,,,,,,,,,,,,,,,,,,,,,,
,,"[""comma""]",0,[0.3183999999761795],52,0,52,0,1,5e04595a4fa02aefdb9c9ced,28,Kobieta,2022-06-04_08h18.26.770,task,2021.1.4,Win32,59.3753711,628b806c463b948bc644b84f,629af91444859c8d22c4ddfe,,,,,,,,,,,,,,,,,,,,,,,,,,,,,,,,,,,,,,,,,,,,,,,,,,,,,,,,,,,,,,,,,,,,,,,,,,,,,,,,,,,,,,,,,,,,,,,,,,,,,,,
,,"[""period""]",0,[0.319500000000005],53,0,53,0,1,5e04595a4fa02aefdb9c9ced,28,Kobieta,2022-06-04_08h18.26.770,task,2021.1.4,Win32,59.3753711,628b806c463b948bc644b84f,629af91444859c8d22c4ddfe,,,,,,,,,,,,,,,,,,,,,,,,,,,,,,,,,,,,,,,,,,,,,,,,,,,,,,,,,,,,,,,,,,,,,,,,,,,,,,,,,,,,,,,,,,,,,,,,,,,,,,,
,,"[""period""]",0,[0.3464999999999918],54,0,54,0,1,5e04595a4fa02aefdb9c9ced,28,Kobieta,2022-06-04_08h18.26.770,task,2021.1.4,Win32,59.3753711,628b806c463b948bc644b84f,629af91444859c8d22c4ddfe,,,,,,,,,,,,,,,,,,,,,,,,,,,,,,,,,,,,,,,,,,,,,,,,,,,,,,,,,,,,,,,,,,,,,,,,,,,,,,,,,,,,,,,,,,,,,,,,,,,,,,,
,,"[""period""]",0,[0.25799999999998136],55,0,55,0,1,5e04595a4fa02aefdb9c9ced,28,Kobieta,2022-06-04_08h18.26.770,task,2021.1.4,Win32,59.3753711,628b806c463b948bc644b84f,629af91444859c8d22c4ddfe,,,,,,,,,,,,,,,,,,,,,,,,,,,,,,,,,,,,,,,,,,,,,,,,,,,,,,,,,,,,,,,,,,,,,,,,,,,,,,,,,,,,,,,,,,,,,,,,,,,,,,,
,,"[""period""]",0,[0.35499999999998977],56,0,56,0,1,5e04595a4fa02aefdb9c9ced,28,Kobieta,2022-06-04_08h18.26.770,task,2021.1.4,Win32,59.3753711,628b806c463b948bc644b84f,629af91444859c8d22c4ddfe,,,,,,,,,,,,,,,,,,,,,,,,,,,,,,,,,,,,,,,,,,,,,,,,,,,,,,,,,,,,,,,,,,,,,,,,,,,,,,,,,,,,,,,,,,,,,,,,,,,,,,,
,,"[""period""]",0,[0.37010000002382526],57,0,57,0,1,5e04595a4fa02aefdb9c9ced,28,Kobieta,2022-06-04_08h18.26.770,task,2021.1.4,Win32,59.3753711,628b806c463b948bc644b84f,629af91444859c8d22c4ddfe,,,,,,,,,,,,,,,,,,,,,,,,,,,,,,,,,,,,,,,,,,,,,,,,,,,,,,,,,,,,,,,,,,,,,,,,,,,,,,,,,,,,,,,,,,,,,,,,,,,,,,,
,,"[""period""]",0,[0.28839999997614996],58,0,58,0,1,5e04595a4fa02aefdb9c9ced,28,Kobieta,2022-06-04_08h18.26.770,task,2021.1.4,Win32,59.3753711,628b806c463b948bc644b84f,629af91444859c8d22c4ddfe,,,,,,,,,,,,,,,,,,,,,,,,,,,,,,,,,,,,,,,,,,,,,,,,,,,,,,,,,,,,,,,,,,,,,,,,,,,,,,,,,,,,,,,,,,,,,,,,,,,,,,,
,,"[""comma""]",0,[0.26729999995231424],59,0,59,0,1,5e04595a4fa02aefdb9c9ced,28,Kobieta,2022-06-04_08h18.26.770,task,2021.1.4,Win32,59.3753711,628b806c463b948bc644b84f,629af91444859c8d22c4ddfe,,,,,,,,,,,,,,,,,,,,,,,,,,,,,,,,,,,,,,,,,,,,,,,,,,,,,,,,,,,,,,,,,,,,,,,,,,,,,,,,,,,,,,,,,,,,,,,,,,,,,,,
,,"[""comma""]",0,[0.20069999992847443],60,0,60,0,1,5e04595a4fa02aefdb9c9ced,28,Kobieta,2022-06-04_08h18.26.770,task,2021.1.4,Win32,59.3753711,628b806c463b948bc644b84f,629af91444859c8d22c4ddfe,,,,,,,,,,,,,,,,,,,,,,,,,,,,,,,,,,,,,,,,,,,,,,,,,,,,,,,,,,,,,,,,,,,,,,,,,,,,,,,,,,,,,,,,,,,,,,,,,,,,,,,
,,"[""comma""]",0,[0.34549999999998704],61,0,61,0,1,5e04595a4fa02aefdb9c9ced,28,Kobieta,2022-06-04_08h18.26.770,task,2021.1.4,Win32,59.3753711,628b806c463b948bc644b84f,629af91444859c8d22c4ddfe,,,,,,,,,,,,,,,,,,,,,,,,,,,,,,,,,,,,,,,,,,,,,,,,,,,,,,,,,,,,,,,,,,,,,,,,,,,,,,,,,,,,,,,,,,,,,,,,,,,,,,,
,,"[""comma""]",0,[0.33119999992845806],62,0,62,0,1,5e04595a4fa02aefdb9c9ced,28,Kobieta,2022-06-04_08h18.26.770,task,2021.1.4,Win32,59.3753711,628b806c463b948bc644b84f,629af91444859c8d22c4ddfe,,,,,,,,,,,,,,,,,,,,,,,,,,,,,,,,,,,,,,,,,,,,,,,,,,,,,,,,,,,,,,,,,,,,,,,,,,,,,,,,,,,,,,,,,,,,,,,,,,,,,,,
,,"[""comma""]",0,[0.2647999999523165],63,0,63,0,1,5e04595a4fa02aefdb9c9ced,28,Kobieta,2022-06-04_08h18.26.770,task,2021.1.4,Win32,59.3753711,628b806c463b948bc644b84f,629af91444859c8d22c4ddfe,,,,,,,,,,,,,,,,,,,,,,,,,,,,,,,,,,,,,,,,,,,,,,,,,,,,,,,,,,,,,,,,,,,,,,,,,,,,,,,,,,,,,,,,,,,,,,,,,,,,,,,
,,"[""comma""]",0,[0.2901000000238412],64,0,64,0,1,5e04595a4fa02aefdb9c9ced,28,Kobieta,2022-06-04_08h18.26.770,task,2021.1.4,Win32,59.3753711,628b806c463b948bc644b84f,629af91444859c8d22c4ddfe,,,,,,,,,,,,,,,,,,,,,,,,,,,,,,,,,,,,,,,,,,,,,,,,,,,,,,,,,,,,,,,,,,,,,,,,,,,,,,,,,,,,,,,,,,,,,,,,,,,,,,,
,,"[""period""]",0,[0.3206000000238305],65,0,65,0,1,5e04595a4fa02aefdb9c9ced,28,Kobieta,2022-06-04_08h18.26.770,task,2021.1.4,Win32,59.3753711,628b806c463b948bc644b84f,629af91444859c8d22c4ddfe,,,,,,,,,,,,,,,,,,,,,,,,,,,,,,,,,,,,,,,,,,,,,,,,,,,,,,,,,,,,,,,,,,,,,,,,,,,,,,,,,,,,,,,,,,,,,,,,,,,,,,,
,,"[""comma""]",0,[0.32140000009536607],66,0,66,0,1,5e04595a4fa02aefdb9c9ced,28,Kobieta,2022-06-04_08h18.26.770,task,2021.1.4,Win32,59.3753711,628b806c463b948bc644b84f,629af91444859c8d22c4ddfe,,,,,,,,,,,,,,,,,,,,,,,,,,,,,,,,,,,,,,,,,,,,,,,,,,,,,,,,,,,,,,,,,,,,,,,,,,,,,,,,,,,,,,,,,,,,,,,,,,,,,,,
,,"[""period""]",0,[0.35200000000000387],67,0,67,0,1,5e04595a4fa02aefdb9c9ced,28,Kobieta,2022-06-04_08h18.26.770,task,2021.1.4,Win32,59.3753711,628b806c463b948bc644b84f,629af91444859c8d22c4ddfe,,,,,,,,,,,,,,,,,,,,,,,,,,,,,,,,,,,,,,,,,,,,,,,,,,,,,,,,,,,,,,,,,,,,,,,,,,,,,,,,,,,,,,,,,,,,,,,,,,,,,,,
,,"[""comma""]",0,[0.31709999990462734],68,0,68,0,1,5e04595a4fa02aefdb9c9ced,28,Kobieta,2022-06-04_08h18.26.770,task,2021.1.4,Win32,59.3753711,628b806c463b948bc644b84f,629af91444859c8d22c4ddfe,,,,,,,,,,,,,,,,,,,,,,,,,,,,,,,,,,,,,,,,,,,,,,,,,,,,,,,,,,,,,,,,,,,,,,,,,,,,,,,,,,,,,,,,,,,,,,,,,,,,,,,
,,"[""period""]",0,[0.4171999999284992],69,0,69,0,1,5e04595a4fa02aefdb9c9ced,28,Kobieta,2022-06-04_08h18.26.770,task,2021.1.4,Win32,59.3753711,628b806c463b948bc644b84f,629af91444859c8d22c4ddfe,,,,,,,,,,,,,,,,,,,,,,,,,,,,,,,,,,,,,,,,,,,,,,,,,,,,,,,,,,,,,,,,,,,,,,,,,,,,,,,,,,,,,,,,,,,,,,,,,,,,,,,
,,"[""comma""]",0,[0.32229999995232106],70,0,70,0,1,5e04595a4fa02aefdb9c9ced,28,Kobieta,2022-06-04_08h18.26.770,task,2021.1.4,Win32,59.3753711,628b806c463b948bc644b84f,629af91444859c8d22c4ddfe,,,,,,,,,,,,,,,,,,,,,,,,,,,,,,,,,,,,,,,,,,,,,,,,,,,,,,,,,,,,,,,,,,,,,,,,,,,,,,,,,,,,,,,,,,,,,,,,,,,,,,,
,,"[""period""]",0,[0.2827999999523172],71,0,71,0,1,5e04595a4fa02aefdb9c9ced,28,Kobieta,2022-06-04_08h18.26.770,task,2021.1.4,Win32,59.3753711,628b806c463b948bc644b84f,629af91444859c8d22c4ddfe,,,,,,,,,,,,,,,,,,,,,,,,,,,,,,,,,,,,,,,,,,,,,,,,,,,,,,,,,,,,,,,,,,,,,,,,,,,,,,,,,,,,,,,,,,,,,,,,,,,,,,,
,,"[""comma""]",0,[0.3528999999761595],72,0,72,0,1,5e04595a4fa02aefdb9c9ced,28,Kobieta,2022-06-04_08h18.26.770,task,2021.1.4,Win32,59.3753711,628b806c463b948bc644b84f,629af91444859c8d22c4ddfe,,,,,,,,,,,,,,,,,,,,,,,,,,,,,,,,,,,,,,,,,,,,,,,,,,,,,,,,,,,,,,,,,,,,,,,,,,,,,,,,,,,,,,,,,,,,,,,,,,,,,,,
,,"[""period""]",0,[0.4979000000953704],73,0,73,0,1,5e04595a4fa02aefdb9c9ced,28,Kobieta,2022-06-04_08h18.26.770,task,2021.1.4,Win32,59.3753711,628b806c463b948bc644b84f,629af91444859c8d22c4ddfe,,,,,,,,,,,,,,,,,,,,,,,,,,,,,,,,,,,,,,,,,,,,,,,,,,,,,,,,,,,,,,,,,,,,,,,,,,,,,,,,,,,,,,,,,,,,,,,,,,,,,,,
,,"[""comma""]",0,[0.3327000000476801],74,0,74,0,1,5e04595a4fa02aefdb9c9ced,28,Kobieta,2022-06-04_08h18.26.770,task,2021.1.4,Win32,59.3753711,628b806c463b948bc644b84f,629af91444859c8d22c4ddfe,,,,,,,,,,,,,,,,,,,,,,,,,,,,,,,,,,,,,,,,,,,,,,,,,,,,,,,,,,,,,,,,,,,,,,,,,,,,,,,,,,,,,,,,,,,,,,,,,,,,,,,
,,"[""period""]",0,[0.3686999999284808],75,0,75,0,1,5e04595a4fa02aefdb9c9ced,28,Kobieta,2022-06-04_08h18.26.770,task,2021.1.4,Win32,59.3753711,628b806c463b948bc644b84f,629af91444859c8d22c4ddfe,,,,,,,,,,,,,,,,,,,,,,,,,,,,,,,,,,,,,,,,,,,,,,,,,,,,,,,,,,,,,,,,,,,,,,,,,,,,,,,,,,,,,,,,,,,,,,,,,,,,,,,
,,"[""comma""]",0,[0.3935000000000173],76,0,76,0,1,5e04595a4fa02aefdb9c9ced,28,Kobieta,2022-06-04_08h18.26.770,task,2021.1.4,Win32,59.3753711,628b806c463b948bc644b84f,629af91444859c8d22c4ddfe,,,,,,,,,,,,,,,,,,,,,,,,,,,,,,,,,,,,,,,,,,,,,,,,,,,,,,,,,,,,,,,,,,,,,,,,,,,,,,,,,,,,,,,,,,,,,,,,,,,,,,,
,,"[""period""]",0,[0.3790000000000191],77,0,77,0,1,5e04595a4fa02aefdb9c9ced,28,Kobieta,2022-06-04_08h18.26.770,task,2021.1.4,Win32,59.3753711,628b806c463b948bc644b84f,629af91444859c8d22c4ddfe,,,,,,,,,,,,,,,,,,,,,,,,,,,,,,,,,,,,,,,,,,,,,,,,,,,,,,,,,,,,,,,,,,,,,,,,,,,,,,,,,,,,,,,,,,,,,,,,,,,,,,,
,,"[""period""]",0,[0.3526000000238412],78,0,78,0,1,5e04595a4fa02aefdb9c9ced,28,Kobieta,2022-06-04_08h18.26.770,task,2021.1.4,Win32,59.3753711,628b806c463b948bc644b84f,629af91444859c8d22c4ddfe,,,,,,,,,,,,,,,,,,,,,,,,,,,,,,,,,,,,,,,,,,,,,,,,,,,,,,,,,,,,,,,,,,,,,,,,,,,,,,,,,,,,,,,,,,,,,,,,,,,,,,,
,,"[""comma""]",0,[0.3007000000476978],79,0,79,0,1,5e04595a4fa02aefdb9c9ced,28,Kobieta,2022-06-04_08h18.26.770,task,2021.1.4,Win32,59.3753711,628b806c463b948bc644b84f,629af91444859c8d22c4ddfe,,,,,,,,,,,,,,,,,,,,,,,,,,,,,,,,,,,,,,,,,,,,,,,,,,,,,,,,,,,,,,,,,,,,,,,,,,,,,,,,,,,,,,,,,,,,,,,,,,,,,,,
,,"[""comma""]",0,[0.4166000000238341],80,0,80,0,1,5e04595a4fa02aefdb9c9ced,28,Kobieta,2022-06-04_08h18.26.770,task,2021.1.4,Win32,59.3753711,628b806c463b948bc644b84f,629af91444859c8d22c4ddfe,,,,,,,,,,,,,,,,,,,,,,,,,,,,,,,,,,,,,,,,,,,,,,,,,,,,,,,,,,,,,,,,,,,,,,,,,,,,,,,,,,,,,,,,,,,,,,,,,,,,,,,
,,"[""period""]",0,[0.3213999999761654],81,0,81,0,1,5e04595a4fa02aefdb9c9ced,28,Kobieta,2022-06-04_08h18.26.770,task,2021.1.4,Win32,59.3753711,628b806c463b948bc644b84f,629af91444859c8d22c4ddfe,,,,,,,,,,,,,,,,,,,,,,,,,,,,,,,,,,,,,,,,,,,,,,,,,,,,,,,,,,,,,,,,,,,,,,,,,,,,,,,,,,,,,,,,,,,,,,,,,,,,,,,
,,"[""comma""]",0,[0.4018999999761661],82,0,82,0,1,5e04595a4fa02aefdb9c9ced,28,Kobieta,2022-06-04_08h18.26.770,task,2021.1.4,Win32,59.3753711,628b806c463b948bc644b84f,629af91444859c8d22c4ddfe,,,,,,,,,,,,,,,,,,,,,,,,,,,,,,,,,,,,,,,,,,,,,,,,,,,,,,,,,,,,,,,,,,,,,,,,,,,,,,,,,,,,,,,,,,,,,,,,,,,,,,,
,,"[""period""]",0,[0.1657000000477069],83,0,83,0,1,5e04595a4fa02aefdb9c9ced,28,Kobieta,2022-06-04_08h18.26.770,task,2021.1.4,Win32,59.3753711,628b806c463b948bc644b84f,629af91444859c8d22c4ddfe,,,,,,,,,,,,,,,,,,,,,,,,,,,,,,,,,,,,,,,,,,,,,,,,,,,,,,,,,,,,,,,,,,,,,,,,,,,,,,,,,,,,,,,,,,,,,,,,,,,,,,,
,,"[""comma""]",0,[0.18210000002383708],84,0,84,0,1,5e04595a4fa02aefdb9c9ced,28,Kobieta,2022-06-04_08h18.26.770,task,2021.1.4,Win32,59.3753711,628b806c463b948bc644b84f,629af91444859c8d22c4ddfe,,,,,,,,,,,,,,,,,,,,,,,,,,,,,,,,,,,,,,,,,,,,,,,,,,,,,,,,,,,,,,,,,,,,,,,,,,,,,,,,,,,,,,,,,,,,,,,,,,,,,,,
,,"[""period""]",0,[0.30440000009537016],85,0,85,0,1,5e04595a4fa02aefdb9c9ced,28,Kobieta,2022-06-04_08h18.26.770,task,2021.1.4,Win32,59.3753711,628b806c463b948bc644b84f,629af91444859c8d22c4ddfe,,,,,,,,,,,,,,,,,,,,,,,,,,,,,,,,,,,,,,,,,,,,,,,,,,,,,,,,,,,,,,,,,,,,,,,,,,,,,,,,,,,,,,,,,,,,,,,,,,,,,,,
,,"[""period""]",0,[0.28879999995234584],86,0,86,0,1,5e04595a4fa02aefdb9c9ced,28,Kobieta,2022-06-04_08h18.26.770,task,2021.1.4,Win32,59.3753711,628b806c463b948bc644b84f,629af91444859c8d22c4ddfe,,,,,,,,,,,,,,,,,,,,,,,,,,,,,,,,,,,,,,,,,,,,,,,,,,,,,,,,,,,,,,,,,,,,,,,,,,,,,,,,,,,,,,,,,,,,,,,,,,,,,,,
,,"[""period""]",0,[0.36079999995229173],87,0,87,0,1,5e04595a4fa02aefdb9c9ced,28,Kobieta,2022-06-04_08h18.26.770,task,2021.1.4,Win32,59.3753711,628b806c463b948bc644b84f,629af91444859c8d22c4ddfe,,,,,,,,,,,,,,,,,,,,,,,,,,,,,,,,,,,,,,,,,,,,,,,,,,,,,,,,,,,,,,,,,,,,,,,,,,,,,,,,,,,,,,,,,,,,,,,,,,,,,,,
,,"[""comma""]",0,[0.40070000004772055],88,0,88,0,1,5e04595a4fa02aefdb9c9ced,28,Kobieta,2022-06-04_08h18.26.770,task,2021.1.4,Win32,59.3753711,628b806c463b948bc644b84f,629af91444859c8d22c4ddfe,,,,,,,,,,,,,,,,,,,,,,,,,,,,,,,,,,,,,,,,,,,,,,,,,,,,,,,,,,,,,,,,,,,,,,,,,,,,,,,,,,,,,,,,,,,,,,,,,,,,,,,
,,"[""comma""]",0,[0.3451000000238764],89,0,89,0,1,5e04595a4fa02aefdb9c9ced,28,Kobieta,2022-06-04_08h18.26.770,task,2021.1.4,Win32,59.3753711,628b806c463b948bc644b84f,629af91444859c8d22c4ddfe,,,,,,,,,,,,,,,,,,,,,,,,,,,,,,,,,,,,,,,,,,,,,,,,,,,,,,,,,,,,,,,,,,,,,,,,,,,,,,,,,,,,,,,,,,,,,,,,,,,,,,,
,,"[""comma""]",0,[0.32200000000000273],90,0,90,0,1,5e04595a4fa02aefdb9c9ced,28,Kobieta,2022-06-04_08h18.26.770,task,2021.1.4,Win32,59.3753711,628b806c463b948bc644b84f,629af91444859c8d22c4ddfe,,,,,,,,,,,,,,,,,,,,,,,,,,,,,,,,,,,,,,,,,,,,,,,,,,,,,,,,,,,,,,,,,,,,,,,,,,,,,,,,,,,,,,,,,,,,,,,,,,,,,,,
,,"[""period""]",0,[0.34369999992850353],91,0,91,0,1,5e04595a4fa02aefdb9c9ced,28,Kobieta,2022-06-04_08h18.26.770,task,2021.1.4,Win32,59.3753711,628b806c463b948bc644b84f,629af91444859c8d22c4ddfe,,,,,,,,,,,,,,,,,,,,,,,,,,,,,,,,,,,,,,,,,,,,,,,,,,,,,,,,,,,,,,,,,,,,,,,,,,,,,,,,,,,,,,,,,,,,,,,,,,,,,,,
,,"[""comma""]",0,[0.32830000007152194],92,0,92,0,1,5e04595a4fa02aefdb9c9ced,28,Kobieta,2022-06-04_08h18.26.770,task,2021.1.4,Win32,59.3753711,628b806c463b948bc644b84f,629af91444859c8d22c4ddfe,,,,,,,,,,,,,,,,,,,,,,,,,,,,,,,,,,,,,,,,,,,,,,,,,,,,,,,,,,,,,,,,,,,,,,,,,,,,,,,,,,,,,,,,,,,,,,,,,,,,,,,
,,"[""period""]",0,[0.3605000000000018],93,0,93,0,1,5e04595a4fa02aefdb9c9ced,28,Kobieta,2022-06-04_08h18.26.770,task,2021.1.4,Win32,59.3753711,628b806c463b948bc644b84f,629af91444859c8d22c4ddfe,,,,,,,,,,,,,,,,,,,,,,,,,,,,,,,,,,,,,,,,,,,,,,,,,,,,,,,,,,,,,,,,,,,,,,,,,,,,,,,,,,,,,,,,,,,,,,,,,,,,,,,
,,"[""comma""]",0,[0.3293999999761468],94,0,94,0,1,5e04595a4fa02aefdb9c9ced,28,Kobieta,2022-06-04_08h18.26.770,task,2021.1.4,Win32,59.3753711,628b806c463b948bc644b84f,629af91444859c8d22c4ddfe,,,,,,,,,,,,,,,,,,,,,,,,,,,,,,,,,,,,,,,,,,,,,,,,,,,,,,,,,,,,,,,,,,,,,,,,,,,,,,,,,,,,,,,,,,,,,,,,,,,,,,,
,,"[""period""]",0,[0.31749999999999545],95,0,95,0,1,5e04595a4fa02aefdb9c9ced,28,Kobieta,2022-06-04_08h18.26.770,task,2021.1.4,Win32,59.3753711,628b806c463b948bc644b84f,629af91444859c8d22c4ddfe,,,,,,,,,,,,,,,,,,,,,,,,,,,,,,,,,,,,,,,,,,,,,,,,,,,,,,,,,,,,,,,,,,,,,,,,,,,,,,,,,,,,,,,,,,,,,,,,,,,,,,,
,,"[""comma"",""comma""]",0,"[0.30320000004769554,1.8583000000715515]",96,0,96,0,1,5e04595a4fa02aefdb9c9ced,28,Kobieta,2022-06-04_08h18.26.770,task,2021.1.4,Win32,59.3753711,628b806c463b948bc644b84f,629af91444859c8d22c4ddfe,,,,,,,,,,,,,,,,,,,,,,,,,,,,,,,,,,,,,,,,,,,,,,,,,,,,,,,,,,,,,,,,,,,,,,,,,,,,,,,,,,,,,,,,,,,,,,,,,,,,,,,
,,,0,,97,0,97,0,1,5e04595a4fa02aefdb9c9ced,28,Kobieta,2022-06-04_08h18.26.770,task,2021.1.4,Win32,59.3753711,628b806c463b948bc644b84f,629af91444859c8d22c4ddfe,,,,,,,,,,,,,,,,,,,,,,,,,,,,,,,,,,,,,,,,,,,,,,,,,,,,,,,,,,,,,,,,,,,,,,,,,,,,,,,,,,,,,,,,,,,,,,,,,,,,,,,
,,"[""comma""]",0,[0.2572999999522949],98,0,98,0,1,5e04595a4fa02aefdb9c9ced,28,Kobieta,2022-06-04_08h18.26.770,task,2021.1.4,Win32,59.3753711,628b806c463b948bc644b84f,629af91444859c8d22c4ddfe,,,,,,,,,,,,,,,,,,,,,,,,,,,,,,,,,,,,,,,,,,,,,,,,,,,,,,,,,,,,,,,,,,,,,,,,,,,,,,,,,,,,,,,,,,,,,,,,,,,,,,,
,,"[""comma""]",0,[0.283300000071506],99,0,99,0,1,5e04595a4fa02aefdb9c9ced,28,Kobieta,2022-06-04_08h18.26.770,task,2021.1.4,Win32,59.3753711,628b806c463b948bc644b84f,629af91444859c8d22c4ddfe,,,,,,,,,,,,,,,,,,,,,,,,,,,,,,,,,,,,,,,,,,,,,,,,,,,,,,,,,,,,,,,,,,,,,,,,,,,,,,,,,,,,,,,,,,,,,,,,,,,,,,,
,,"[""comma""]",0,[0.35239999997617133],100,0,100,0,1,5e04595a4fa02aefdb9c9ced,28,Kobieta,2022-06-04_08h18.26.770,task,2021.1.4,Win32,59.3753711,628b806c463b948bc644b84f,629af91444859c8d22c4ddfe,,,,,,,,,,,,,,,,,,,,,,,,,,,,,,,,,,,,,,,,,,,,,,,,,,,,,,,,,,,,,,,,,,,,,,,,,,,,,,,,,,,,,,,,,,,,,,,,,,,,,,,
,,"[""comma""]",0,[0.32179999995230446],101,0,101,0,1,5e04595a4fa02aefdb9c9ced,28,Kobieta,2022-06-04_08h18.26.770,task,2021.1.4,Win32,59.3753711,628b806c463b948bc644b84f,629af91444859c8d22c4ddfe,,,,,,,,,,,,,,,,,,,,,,,,,,,,,,,,,,,,,,,,,,,,,,,,,,,,,,,,,,,,,,,,,,,,,,,,,,,,,,,,,,,,,,,,,,,,,,,,,,,,,,,
,,"[""period""]",0,[0.42560000002379184],102,0,102,0,1,5e04595a4fa02aefdb9c9ced,28,Kobieta,2022-06-04_08h18.26.770,task,2021.1.4,Win32,59.3753711,628b806c463b948bc644b84f,629af91444859c8d22c4ddfe,,,,,,,,,,,,,,,,,,,,,,,,,,,,,,,,,,,,,,,,,,,,,,,,,,,,,,,,,,,,,,,,,,,,,,,,,,,,,,,,,,,,,,,,,,,,,,,,,,,,,,,
,,"[""period""]",0,[0.32029999995233993],103,0,103,0,1,5e04595a4fa02aefdb9c9ced,28,Kobieta,2022-06-04_08h18.26.770,task,2021.1.4,Win32,59.3753711,628b806c463b948bc644b84f,629af91444859c8d22c4ddfe,,,,,,,,,,,,,,,,,,,,,,,,,,,,,,,,,,,,,,,,,,,,,,,,,,,,,,,,,,,,,,,,,,,,,,,,,,,,,,,,,,,,,,,,,,,,,,,,,,,,,,,
,,"[""period""]",0,[0.26969999992849125],104,0,104,0,1,5e04595a4fa02aefdb9c9ced,28,Kobieta,2022-06-04_08h18.26.770,task,2021.1.4,Win32,59.3753711,628b806c463b948bc644b84f,629af91444859c8d22c4ddfe,,,,,,,,,,,,,,,,,,,,,,,,,,,,,,,,,,,,,,,,,,,,,,,,,,,,,,,,,,,,,,,,,,,,,,,,,,,,,,,,,,,,,,,,,,,,,,,,,,,,,,,
,,"[""period""]",0,[0.2676999999284817],105,0,105,0,1,5e04595a4fa02aefdb9c9ced,28,Kobieta,2022-06-04_08h18.26.770,task,2021.1.4,Win32,59.3753711,628b806c463b948bc644b84f,629af91444859c8d22c4ddfe,,,,,,,,,,,,,,,,,,,,,,,,,,,,,,,,,,,,,,,,,,,,,,,,,,,,,,,,,,,,,,,,,,,,,,,,,,,,,,,,,,,,,,,,,,,,,,,,,,,,,,,
,,"[""period""]",0,[0.3201999999284908],106,0,106,0,1,5e04595a4fa02aefdb9c9ced,28,Kobieta,2022-06-04_08h18.26.770,task,2021.1.4,Win32,59.3753711,628b806c463b948bc644b84f,629af91444859c8d22c4ddfe,,,,,,,,,,,,,,,,,,,,,,,,,,,,,,,,,,,,,,,,,,,,,,,,,,,,,,,,,,,,,,,,,,,,,,,,,,,,,,,,,,,,,,,,,,,,,,,,,,,,,,,
,,"[""period""]",0,[0.28959999990462393],107,0,107,0,1,5e04595a4fa02aefdb9c9ced,28,Kobieta,2022-06-04_08h18.26.770,task,2021.1.4,Win32,59.3753711,628b806c463b948bc644b84f,629af91444859c8d22c4ddfe,,,,,,,,,,,,,,,,,,,,,,,,,,,,,,,,,,,,,,,,,,,,,,,,,,,,,,,,,,,,,,,,,,,,,,,,,,,,,,,,,,,,,,,,,,,,,,,,,,,,,,,
,,"[""comma""]",0,[0.31970000004770327],108,0,108,0,1,5e04595a4fa02aefdb9c9ced,28,Kobieta,2022-06-04_08h18.26.770,task,2021.1.4,Win32,59.3753711,628b806c463b948bc644b84f,629af91444859c8d22c4ddfe,,,,,,,,,,,,,,,,,,,,,,,,,,,,,,,,,,,,,,,,,,,,,,,,,,,,,,,,,,,,,,,,,,,,,,,,,,,,,,,,,,,,,,,,,,,,,,,,,,,,,,,
,,"[""period""]",0,[0.32230000007155013],109,0,109,0,1,5e04595a4fa02aefdb9c9ced,28,Kobieta,2022-06-04_08h18.26.770,task,2021.1.4,Win32,59.3753711,628b806c463b948bc644b84f,629af91444859c8d22c4ddfe,,,,,,,,,,,,,,,,,,,,,,,,,,,,,,,,,,,,,,,,,,,,,,,,,,,,,,,,,,,,,,,,,,,,,,,,,,,,,,,,,,,,,,,,,,,,,,,,,,,,,,,
,,"[""comma""]",0,[0.34460000002388824],110,0,110,0,1,5e04595a4fa02aefdb9c9ced,28,Kobieta,2022-06-04_08h18.26.770,task,2021.1.4,Win32,59.3753711,628b806c463b948bc644b84f,629af91444859c8d22c4ddfe,,,,,,,,,,,,,,,,,,,,,,,,,,,,,,,,,,,,,,,,,,,,,,,,,,,,,,,,,,,,,,,,,,,,,,,,,,,,,,,,,,,,,,,,,,,,,,,,,,,,,,,
,,"[""period""]",0,[0.2669999999999959],111,0,111,0,1,5e04595a4fa02aefdb9c9ced,28,Kobieta,2022-06-04_08h18.26.770,task,2021.1.4,Win32,59.3753711,628b806c463b948bc644b84f,629af91444859c8d22c4ddfe,,,,,,,,,,,,,,,,,,,,,,,,,,,,,,,,,,,,,,,,,,,,,,,,,,,,,,,,,,,,,,,,,,,,,,,,,,,,,,,,,,,,,,,,,,,,,,,,,,,,,,,
,,"[""comma""]",0,[0.3463000000714942],112,0,112,0,1,5e04595a4fa02aefdb9c9ced,28,Kobieta,2022-06-04_08h18.26.770,task,2021.1.4,Win32,59.3753711,628b806c463b948bc644b84f,629af91444859c8d22c4ddfe,,,,,,,,,,,,,,,,,,,,,,,,,,,,,,,,,,,,,,,,,,,,,,,,,,,,,,,,,,,,,,,,,,,,,,,,,,,,,,,,,,,,,,,,,,,,,,,,,,,,,,,
,,"[""period""]",0,[0.3268000000715574],113,0,113,0,1,5e04595a4fa02aefdb9c9ced,28,Kobieta,2022-06-04_08h18.26.770,task,2021.1.4,Win32,59.3753711,628b806c463b948bc644b84f,629af91444859c8d22c4ddfe,,,,,,,,,,,,,,,,,,,,,,,,,,,,,,,,,,,,,,,,,,,,,,,,,,,,,,,,,,,,,,,,,,,,,,,,,,,,,,,,,,,,,,,,,,,,,,,,,,,,,,,
,,"[""comma""]",0,[0.3293000000714983],114,0,114,0,1,5e04595a4fa02aefdb9c9ced,28,Kobieta,2022-06-04_08h18.26.770,task,2021.1.4,Win32,59.3753711,628b806c463b948bc644b84f,629af91444859c8d22c4ddfe,,,,,,,,,,,,,,,,,,,,,,,,,,,,,,,,,,,,,,,,,,,,,,,,,,,,,,,,,,,,,,,,,,,,,,,,,,,,,,,,,,,,,,,,,,,,,,,,,,,,,,,
,,"[""period""]",0,[0.29970000004772146],115,0,115,0,1,5e04595a4fa02aefdb9c9ced,28,Kobieta,2022-06-04_08h18.26.770,task,2021.1.4,Win32,59.3753711,628b806c463b948bc644b84f,629af91444859c8d22c4ddfe,,,,,,,,,,,,,,,,,,,,,,,,,,,,,,,,,,,,,,,,,,,,,,,,,,,,,,,,,,,,,,,,,,,,,,,,,,,,,,,,,,,,,,,,,,,,,,,,,,,,,,,
,,"[""comma""]",0,[0.3376999999284749],116,0,116,0,1,5e04595a4fa02aefdb9c9ced,28,Kobieta,2022-06-04_08h18.26.770,task,2021.1.4,Win32,59.3753711,628b806c463b948bc644b84f,629af91444859c8d22c4ddfe,,,,,,,,,,,,,,,,,,,,,,,,,,,,,,,,,,,,,,,,,,,,,,,,,,,,,,,,,,,,,,,,,,,,,,,,,,,,,,,,,,,,,,,,,,,,,,,,,,,,,,,
,,"[""period""]",0,[0.3617999999523249],117,0,117,0,1,5e04595a4fa02aefdb9c9ced,28,Kobieta,2022-06-04_08h18.26.770,task,2021.1.4,Win32,59.3753711,628b806c463b948bc644b84f,629af91444859c8d22c4ddfe,,,,,,,,,,,,,,,,,,,,,,,,,,,,,,,,,,,,,,,,,,,,,,,,,,,,,,,,,,,,,,,,,,,,,,,,,,,,,,,,,,,,,,,,,,,,,,,,,,,,,,,
,,"[""comma""]",0,[0.23310000002379638],118,0,118,0,1,5e04595a4fa02aefdb9c9ced,28,Kobieta,2022-06-04_08h18.26.770,task,2021.1.4,Win32,59.3753711,628b806c463b948bc644b84f,629af91444859c8d22c4ddfe,,,,,,,,,,,,,,,,,,,,,,,,,,,,,,,,,,,,,,,,,,,,,,,,,,,,,,,,,,,,,,,,,,,,,,,,,,,,,,,,,,,,,,,,,,,,,,,,,,,,,,,
,,"[""period""]",0,[0.3517999999522772],119,0,119,0,1,5e04595a4fa02aefdb9c9ced,28,Kobieta,2022-06-04_08h18.26.770,task,2021.1.4,Win32,59.3753711,628b806c463b948bc644b84f,629af91444859c8d22c4ddfe,,,,,,,,,,,,,,,,,,,,,,,,,,,,,,,,,,,,,,,,,,,,,,,,,,,,,,,,,,,,,,,,,,,,,,,,,,,,,,,,,,,,,,,,,,,,,,,,,,,,,,,
,,,,,,,,,,5e04595a4fa02aefdb9c9ced,28,Kobieta,2022-06-04_08h18.26.770,task,2021.1.4,Win32,59.3753711,628b806c463b948bc644b84f,629af91444859c8d22c4ddfe,space,28.247,space,6.1281,0,0,0,0,1,X V Q F H G B L J M P D K C T S W R N Z,,,,,,,,,,,,,,,,,,,,,,,,,,,,,,,,,,,,,,,,,,,,,,,,,,,,,,,,,,,,,,,,,,,,,,,,,,,,,,,,,,,,,,,,,,,,,
,,,,,,,,,,5e04595a4fa02aefdb9c9ced,28,Kobieta,2022-06-04_08h18.26.770,task,2021.1.4,Win32,59.3753711,628b806c463b948bc644b84f,629af91444859c8d22c4ddfe,,,,,1,0,1,0,1,X V Q F H G B L J M P D K C T S W R N Z,,,,,,,,,,,,,,,,,,,,,,,,,,,,,,,,,,,,,,,,,,,,,,,,,,,,,,,,,,,,,,,,,,,,,,,,,,,,,,,,,,,,,,,,,,,,,
,,,,,,,,,,5e04595a4fa02aefdb9c9ced,28,Kobieta,2022-06-04_08h18.26.770,task,2021.1.4,Win32,59.3753711,628b806c463b948bc644b84f,629af91444859c8d22c4ddfe,,,,,,,,,,,zz,"[""z"",""z""]","[2.290300000071568,2.7778000000715792,4.325600000023883]",1,ZZ,0,0,0,0,1,,,,,,,,,,,,,,,,,,,,,,,,,,,,,,,,,,,,,,,,,,,,,,,,,,,,,,,,,,,,,,,,,,,,,,,,,,,,,,,,,,,
,,,,,,,,,,5e04595a4fa02aefdb9c9ced,28,Kobieta,2022-06-04_08h18.26.770,task,2021.1.4,Win32,59.3753711,628b806c463b948bc644b84f,629af91444859c8d22c4ddfe,,,,,0,0,0,0,1,X V Q F H G B L J M P D K C T S W R N Z,,,,,,,,,,,,,,,,,,,,,,,,,,,,,,,,,,,,,,,,,,,,,,,,,,,,,,,,,,,,,,,,,,,,,,,,,,,,,,,,,,,,,,,,,,,,,
,,,,,,,,,,5e04595a4fa02aefdb9c9ced,28,Kobieta,2022-06-04_08h18.26.770,task,2021.1.4,Win32,59.3753711,628b806c463b948bc644b84f,629af91444859c8d22c4ddfe,,,,,1,0,1,0,1,X V Q F H G B L J M P D K C T S W R N Z,,,,,,,,,,,,,,,,,,,,,,,,,,,,,,,,,,,,,,,,,,,,,,,,,,,,,,,,,,,,,,,,,,,,,,,,,,,,,,,,,,,,,,,,,,,,,
,,,,,,,,,,5e04595a4fa02aefdb9c9ced,28,Kobieta,2022-06-04_08h18.26.770,task,2021.1.4,Win32,59.3753711,628b806c463b948bc644b84f,629af91444859c8d22c4ddfe,,,,,,,,,,,mg,"[""m"",""g""]","[1.477699999928518,1.8448999999761782,2.6210999999046294]",1,MG,1,0,1,0,1,,,,,,,,,,,,,,,,,,,,,,,,,,,,,,,,,,,,,,,,,,,,,,,,,,,,,,,,,,,,,,,,,,,,,,,,,,,,,,,,,,,
,,,,,,,,,,5e04595a4fa02aefdb9c9ced,28,Kobieta,2022-06-04_08h18.26.770,task,2021.1.4,Win32,59.3753711,628b806c463b948bc644b84f,629af91444859c8d22c4ddfe,,,,,0,0,0,0,1,X V Q F H G B L J M P D K C T S W R N Z,,,,,,,,,,,,,,,,,,,,,,,,,,,,,,,,,,,,,,,,,,,,,,,,,,,,,,,,,,,,,,,,,,,,,,,,,,,,,,,,,,,,,,,,,,,,,
,,,,,,,,,,5e04595a4fa02aefdb9c9ced,28,Kobieta,2022-06-04_08h18.26.770,task,2021.1.4,Win32,59.3753711,628b806c463b948bc644b84f,629af91444859c8d22c4ddfe,,,,,1,0,1,0,1,X V Q F H G B L J M P D K C T S W R N Z,,,,,,,,,,,,,,,,,,,,,,,,,,,,,,,,,,,,,,,,,,,,,,,,,,,,,,,,,,,,,,,,,,,,,,,,,,,,,,,,,,,,,,,,,,,,,
,,,,,,,,,,5e04595a4fa02aefdb9c9ced,28,Kobieta,2022-06-04_08h18.26.770,task,2021.1.4,Win32,59.3753711,628b806c463b948bc644b84f,629af91444859c8d22c4ddfe,,,,,2,0,2,0,1,X V Q F H G B L J M P D K C T S W R N Z,,,,,,,,,,,,,,,,,,,,,,,,,,,,,,,,,,,,,,,,,,,,,,,,,,,,,,,,,,,,,,,,,,,,,,,,,,,,,,,,,,,,,,,,,,,,,
,,,,,,,,,,5e04595a4fa02aefdb9c9ced,28,Kobieta,2022-06-04_08h18.26.770,task,2021.1.4,Win32,59.3753711,628b806c463b948bc644b84f,629af91444859c8d22c4ddfe,,,,,,,,,,,dsz,"[""d"",""s"",""z""]","[1.2398000000715115,1.6959999999999695,1.9519999999999982,3.3128000000714906]",1,DSZ,2,0,2,0,1,,,,,,,,,,,,,,,,,,,,,,,,,,,,,,,,,,,,,,,,,,,,,,,,,,,,,,,,,,,,,,,,,,,,,,,,,,,,,,,,,,,
,,,,,,,,,,5e04595a4fa02aefdb9c9ced,28,Kobieta,2022-06-04_08h18.26.770,task,2021.1.4,Win32,59.3753711,628b806c463b948bc644b84f,629af91444859c8d22c4ddfe,,,,,0,0,0,0,1,X V Q F H G B L J M P D K C T S W R N Z,,,,,,,,,,,,,,,,,,,,,,,,,,,,,,,,,,,,,,,,,,,,,,,,,,,,,,,,,,,,,,,,,,,,,,,,,,,,,,,,,,,,,,,,,,,,,
,,,,,,,,,,5e04595a4fa02aefdb9c9ced,28,Kobieta,2022-06-04_08h18.26.770,task,2021.1.4,Win32,59.3753711,628b806c463b948bc644b84f,629af91444859c8d22c4ddfe,,,,,1,0,1,0,1,X V Q F H G B L J M P D K C T S W R N Z,,,,,,,,,,,,,,,,,,,,,,,,,,,,,,,,,,,,,,,,,,,,,,,,,,,,,,,,,,,,,,,,,,,,,,,,,,,,,,,,,,,,,,,,,,,,,
,,,,,,,,,,5e04595a4fa02aefdb9c9ced,28,Kobieta,2022-06-04_08h18.26.770,task,2021.1.4,Win32,59.3753711,628b806c463b948bc644b84f,629af91444859c8d22c4ddfe,,,,,2,0,2,0,1,X V Q F H G B L J M P D K C T S W R N Z,,,,,,,,,,,,,,,,,,,,,,,,,,,,,,,,,,,,,,,,,,,,,,,,,,,,,,,,,,,,,,,,,,,,,,,,,,,,,,,,,,,,,,,,,,,,,
,,,,,,,,,,5e04595a4fa02aefdb9c9ced,28,Kobieta,2022-06-04_08h18.26.770,task,2021.1.4,Win32,59.3753711,628b806c463b948bc644b84f,629af91444859c8d22c4ddfe,,,,,,,,,,,fvn,"[""f"",""v"",""n""]","[1.2838999999761427,1.600100000023815,2.079600000023845,3.159600000023829]",1,FVN,3,0,3,0,1,,,,,,,,,,,,,,,,,,,,,,,,,,,,,,,,,,,,,,,,,,,,,,,,,,,,,,,,,,,,,,,,,,,,,,,,,,,,,,,,,,,
,,,,,,,,,,5e04595a4fa02aefdb9c9ced,28,Kobieta,2022-06-04_08h18.26.770,task,2021.1.4,Win32,59.3753711,628b806c463b948bc644b84f,629af91444859c8d22c4ddfe,,,,,0,0,0,0,1,X V Q F H G B L J M P D K C T S W R N Z,,,,,,,,,,,,,,,,,,,,,,,,,,,,,,,,,,,,,,,,,,,,,,,,,,,,,,,,,,,,,,,,,,,,,,,,,,,,,,,,,,,,,,,,,,,,,
,,,,,,,,,,5e04595a4fa02aefdb9c9ced,28,Kobieta,2022-06-04_08h18.26.770,task,2021.1.4,Win32,59.3753711,628b806c463b948bc644b84f,629af91444859c8d22c4ddfe,,,,,1,0,1,0,1,X V Q F H G B L J M P D K C T S W R N Z,,,,,,,,,,,,,,,,,,,,,,,,,,,,,,,,,,,,,,,,,,,,,,,,,,,,,,,,,,,,,,,,,,,,,,,,,,,,,,,,,,,,,,,,,,,,,
,,,,,,,,,,5e04595a4fa02aefdb9c9ced,28,Kobieta,2022-06-04_08h18.26.770,task,2021.1.4,Win32,59.3753711,628b806c463b948bc644b84f,629af91444859c8d22c4ddfe,,,,,2,0,2,0,1,X V Q F H G B L J M P D K C T S W R N Z,,,,,,,,,,,,,,,,,,,,,,,,,,,,,,,,,,,,,,,,,,,,,,,,,,,,,,,,,,,,,,,,,,,,,,,,,,,,,,,,,,,,,,,,,,,,,
,,,,,,,,,,5e04595a4fa02aefdb9c9ced,28,Kobieta,2022-06-04_08h18.26.770,task,2021.1.4,Win32,59.3753711,628b806c463b948bc644b84f,629af91444859c8d22c4ddfe,,,,,3,0,3,0,1,X V Q F H G B L J M P D K C T S W R N Z,,,,,,,,,,,,,,,,,,,,,,,,,,,,,,,,,,,,,,,,,,,,,,,,,,,,,,,,,,,,,,,,,,,,,,,,,,,,,,,,,,,,,,,,,,,,,
,,,,,,,,,,5e04595a4fa02aefdb9c9ced,28,Kobieta,2022-06-04_08h18.26.770,task,2021.1.4,Win32,59.3753711,628b806c463b948bc644b84f,629af91444859c8d22c4ddfe,,,,,,,,,,,jtgs,"[""j"",""t"",""g"",""s""]","[0.9120000000000346,1.144800000071541,1.3760000000000332,1.9281000000238464,2.6248999999762077]",1,JTGS,4,0,4,0,1,,,,,,,,,,,,,,,,,,,,,,,,,,,,,,,,,,,,,,,,,,,,,,,,,,,,,,,,,,,,,,,,,,,,,,,,,,,,,,,,,,,
,,,,,,,,,,5e04595a4fa02aefdb9c9ced,28,Kobieta,2022-06-04_08h18.26.770,task,2021.1.4,Win32,59.3753711,628b806c463b948bc644b84f,629af91444859c8d22c4ddfe,,,,,0,0,0,0,1,X V Q F H G B L J M P D K C T S W R N Z,,,,,,,,,,,,,,,,,,,,,,,,,,,,,,,,,,,,,,,,,,,,,,,,,,,,,,,,,,,,,,,,,,,,,,,,,,,,,,,,,,,,,,,,,,,,,
,,,,,,,,,,5e04595a4fa02aefdb9c9ced,28,Kobieta,2022-06-04_08h18.26.770,task,2021.1.4,Win32,59.3753711,628b806c463b948bc644b84f,629af91444859c8d22c4ddfe,,,,,1,0,1,0,1,X V Q F H G B L J M P D K C T S W R N Z,,,,,,,,,,,,,,,,,,,,,,,,,,,,,,,,,,,,,,,,,,,,,,,,,,,,,,,,,,,,,,,,,,,,,,,,,,,,,,,,,,,,,,,,,,,,,
,,,,,,,,,,5e04595a4fa02aefdb9c9ced,28,Kobieta,2022-06-04_08h18.26.770,task,2021.1.4,Win32,59.3753711,628b806c463b948bc644b84f,629af91444859c8d22c4ddfe,,,,,2,0,2,0,1,X V Q F H G B L J M P D K C T S W R N Z,,,,,,,,,,,,,,,,,,,,,,,,,,,,,,,,,,,,,,,,,,,,,,,,,,,,,,,,,,,,,,,,,,,,,,,,,,,,,,,,,,,,,,,,,,,,,
,,,,,,,,,,5e04595a4fa02aefdb9c9ced,28,Kobieta,2022-06-04_08h18.26.770,task,2021.1.4,Win32,59.3753711,628b806c463b948bc644b84f,629af91444859c8d22c4ddfe,,,,,3,0,3,0,1,X V Q F H G B L J M P D K C T S W R N Z,,,,,,,,,,,,,,,,,,,,,,,,,,,,,,,,,,,,,,,,,,,,,,,,,,,,,,,,,,,,,,,,,,,,,,,,,,,,,,,,,,,,,,,,,,,,,
,,,,,,,,,,5e04595a4fa02aefdb9c9ced,28,Kobieta,2022-06-04_08h18.26.770,task,2021.1.4,Win32,59.3753711,628b806c463b948bc644b84f,629af91444859c8d22c4ddfe,,,,,,,,,,,cqls,"[""c"",""q"",""l"",""s""]","[0.8174999999999955,1.1507999999523122,1.685699999928488,2.053699999928483,2.5819999999999936]",1,CQLS,5,0,5,0,1,,,,,,,,,,,,,,,,,,,,,,,,,,,,,,,,,,,,,,,,,,,,,,,,,,,,,,,,,,,,,,,,,,,,,,,,,,,,,,,,,,,
,,,,,,,,,,5e04595a4fa02aefdb9c9ced,28,Kobieta,2022-06-04_08h18.26.770,task,2021.1.4,Win32,59.3753711,628b806c463b948bc644b84f,629af91444859c8d22c4ddfe,,,,,0,0,0,0,1,X V Q F H G B L J M P D K C T S W R N Z,,,,,,,,,,,,,,,,,,,,,,,,,,,,,,,,,,,,,,,,,,,,,,,,,,,,,,,,,,,,,,,,,,,,,,,,,,,,,,,,,,,,,,,,,,,,,
,,,,,,,,,,5e04595a4fa02aefdb9c9ced,28,Kobieta,2022-06-04_08h18.26.770,task,2021.1.4,Win32,59.3753711,628b806c463b948bc644b84f,629af91444859c8d22c4ddfe,,,,,1,0,1,0,1,X V Q F H G B L J M P D K C T S W R N Z,,,,,,,,,,,,,,,,,,,,,,,,,,,,,,,,,,,,,,,,,,,,,,,,,,,,,,,,,,,,,,,,,,,,,,,,,,,,,,,,,,,,,,,,,,,,,
,,,,,,,,,,5e04595a4fa02aefdb9c9ced,28,Kobieta,2022-06-04_08h18.26.770,task,2021.1.4,Win32,59.3753711,628b806c463b948bc644b84f,629af91444859c8d22c4ddfe,,,,,2,0,2,0,1,X V Q F H G B L J M P D K C T S W R N Z,,,,,,,,,,,,,,,,,,,,,,,,,,,,,,,,,,,,,,,,,,,,,,,,,,,,,,,,,,,,,,,,,,,,,,,,,,,,,,,,,,,,,,,,,,,,,
,,,,,,,,,,5e04595a4fa02aefdb9c9ced,28,Kobieta,2022-06-04_08h18.26.770,task,2021.1.4,Win32,59.3753711,628b806c463b948bc644b84f,629af91444859c8d22c4ddfe,,,,,3,0,3,0,1,X V Q F H G B L J M P D K C T S W R N Z,,,,,,,,,,,,,,,,,,,,,,,,,,,,,,,,,,,,,,,,,,,,,,,,,,,,,,,,,,,,,,,,,,,,,,,,,,,,,,,,,,,,,,,,,,,,,
,,,,,,,,,,5e04595a4fa02aefdb9c9ced,28,Kobieta,2022-06-04_08h18.26.770,task,2021.1.4,Win32,59.3753711,628b806c463b948bc644b84f,629af91444859c8d22c4ddfe,,,,,4,0,4,0,1,X V Q F H G B L J M P D K C T S W R N Z,,,,,,,,,,,,,,,,,,,,,,,,,,,,,,,,,,,,,,,,,,,,,,,,,,,,,,,,,,,,,,,,,,,,,,,,,,,,,,,,,,,,,,,,,,,,,
,,,,,,,,,,5e04595a4fa02aefdb9c9ced,28,Kobieta,2022-06-04_08h18.26.770,task,2021.1.4,Win32,59.3753711,628b806c463b948bc644b84f,629af91444859c8d22c4ddfe,,,,,,,,,,,vbwcw,"[""v"",""b"",""w"",""c"",""w""]","[1.002999999999986,1.2753000000715247,1.6189999999999714,1.9539000000953592,2.258700000047668,3.2433000000715424]",1,VBWCW,6,0,6,0,1,,,,,,,,,,,,,,,,,,,,,,,,,,,,,,,,,,,,,,,,,,,,,,,,,,,,,,,,,,,,,,,,,,,,,,,,,,,,,,,,,,,
,,,,,,,,,,5e04595a4fa02aefdb9c9ced,28,Kobieta,2022-06-04_08h18.26.770,task,2021.1.4,Win32,59.3753711,628b806c463b948bc644b84f,629af91444859c8d22c4ddfe,,,,,0,0,0,0,1,X V Q F H G B L J M P D K C T S W R N Z,,,,,,,,,,,,,,,,,,,,,,,,,,,,,,,,,,,,,,,,,,,,,,,,,,,,,,,,,,,,,,,,,,,,,,,,,,,,,,,,,,,,,,,,,,,,,
,,,,,,,,,,5e04595a4fa02aefdb9c9ced,28,Kobieta,2022-06-04_08h18.26.770,task,2021.1.4,Win32,59.3753711,628b806c463b948bc644b84f,629af91444859c8d22c4ddfe,,,,,1,0,1,0,1,X V Q F H G B L J M P D K C T S W R N Z,,,,,,,,,,,,,,,,,,,,,,,,,,,,,,,,,,,,,,,,,,,,,,,,,,,,,,,,,,,,,,,,,,,,,,,,,,,,,,,,,,,,,,,,,,,,,
,,,,,,,,,,5e04595a4fa02aefdb9c9ced,28,Kobieta,2022-06-04_08h18.26.770,task,2021.1.4,Win32,59.3753711,628b806c463b948bc644b84f,629af91444859c8d22c4ddfe,,,,,2,0,2,0,1,X V Q F H G B L J M P D K C T S W R N Z,,,,,,,,,,,,,,,,,,,,,,,,,,,,,,,,,,,,,,,,,,,,,,,,,,,,,,,,,,,,,,,,,,,,,,,,,,,,,,,,,,,,,,,,,,,,,
,,,,,,,,,,5e04595a4fa02aefdb9c9ced,28,Kobieta,2022-06-04_08h18.26.770,task,2021.1.4,Win32,59.3753711,628b806c463b948bc644b84f,629af91444859c8d22c4ddfe,,,,,3,0,3,0,1,X V Q F H G B L J M P D K C T S W R N Z,,,,,,,,,,,,,,,,,,,,,,,,,,,,,,,,,,,,,,,,,,,,,,,,,,,,,,,,,,,,,,,,,,,,,,,,,,,,,,,,,,,,,,,,,,,,,
,,,,,,,,,,5e04595a4fa02aefdb9c9ced,28,Kobieta,2022-06-04_08h18.26.770,task,2021.1.4,Win32,59.3753711,628b806c463b948bc644b84f,629af91444859c8d22c4ddfe,,,,,4,0,4,0,1,X V Q F H G B L J M P D K C T S W R N Z,,,,,,,,,,,,,,,,,,,,,,,,,,,,,,,,,,,,,,,,,,,,,,,,,,,,,,,,,,,,,,,,,,,,,,,,,,,,,,,,,,,,,,,,,,,,,
,,,,,,,,,,5e04595a4fa02aefdb9c9ced,28,Kobieta,2022-06-04_08h18.26.770,task,2021.1.4,Win32,59.3753711,628b806c463b948bc644b84f,629af91444859c8d22c4ddfe,,,,,,,,,,,lpnhq,"[""l"",""p"",""n"",""h"",""q""]","[0.8758999999761272,1.1721000000238178,1.4768999999761263,1.9718999999761309,2.4528999999761254,3.6203999999761436]",1,LPNHQ,7,0,7,0,1,,,,,,,,,,,,,,,,,,,,,,,,,,,,,,,,,,,,,,,,,,,,,,,,,,,,,,,,,,,,,,,,,,,,,,,,,,,,,,,,,,,
,,,,,,,,,,5e04595a4fa02aefdb9c9ced,28,Kobieta,2022-06-04_08h18.26.770,task,2021.1.4,Win32,59.3753711,628b806c463b948bc644b84f,629af91444859c8d22c4ddfe,,,,,0,0,0,0,1,X V Q F H G B L J M P D K C T S W R N Z,,,,,,,,,,,,,,,,,,,,,,,,,,,,,,,,,,,,,,,,,,,,,,,,,,,,,,,,,,,,,,,,,,,,,,,,,,,,,,,,,,,,,,,,,,,,,
,,,,,,,,,,5e04595a4fa02aefdb9c9ced,28,Kobieta,2022-06-04_08h18.26.770,task,2021.1.4,Win32,59.3753711,628b806c463b948bc644b84f,629af91444859c8d22c4ddfe,,,,,1,0,1,0,1,X V Q F H G B L J M P D K C T S W R N Z,,,,,,,,,,,,,,,,,,,,,,,,,,,,,,,,,,,,,,,,,,,,,,,,,,,,,,,,,,,,,,,,,,,,,,,,,,,,,,,,,,,,,,,,,,,,,
,,,,,,,,,,5e04595a4fa02aefdb9c9ced,28,Kobieta,2022-06-04_08h18.26.770,task,2021.1.4,Win32,59.3753711,628b806c463b948bc644b84f,629af91444859c8d22c4ddfe,,,,,2,0,2,0,1,X V Q F H G B L J M P D K C T S W R N Z,,,,,,,,,,,,,,,,,,,,,,,,,,,,,,,,,,,,,,,,,,,,,,,,,,,,,,,,,,,,,,,,,,,,,,,,,,,,,,,,,,,,,,,,,,,,,
,,,,,,,,,,5e04595a4fa02aefdb9c9ced,28,Kobieta,2022-06-04_08h18.26.770,task,2021.1.4,Win32,59.3753711,628b806c463b948bc644b84f,629af91444859c8d22c4ddfe,,,,,3,0,3,0,1,X V Q F H G B L J M P D K C T S W R N Z,,,,,,,,,,,,,,,,,,,,,,,,,,,,,,,,,,,,,,,,,,,,,,,,,,,,,,,,,,,,,,,,,,,,,,,,,,,,,,,,,,,,,,,,,,,,,
,,,,,,,,,,5e04595a4fa02aefdb9c9ced,28,Kobieta,2022-06-04_08h18.26.770,task,2021.1.4,Win32,59.3753711,628b806c463b948bc644b84f,629af91444859c8d22c4ddfe,,,,,4,0,4,0,1,X V Q F H G B L J M P D K C T S W R N Z,,,,,,,,,,,,,,,,,,,,,,,,,,,,,,,,,,,,,,,,,,,,,,,,,,,,,,,,,,,,,,,,,,,,,,,,,,,,,,,,,,,,,,,,,,,,,
,,,,,,,,,,5e04595a4fa02aefdb9c9ced,28,Kobieta,2022-06-04_08h18.26.770,task,2021.1.4,Win32,59.3753711,628b806c463b948bc644b84f,629af91444859c8d22c4ddfe,,,,,5,0,5,0,1,X V Q F H G B L J M P D K C T S W R N Z,,,,,,,,,,,,,,,,,,,,,,,,,,,,,,,,,,,,,,,,,,,,,,,,,,,,,,,,,,,,,,,,,,,,,,,,,,,,,,,,,,,,,,,,,,,,,
,,,,,,,,,,5e04595a4fa02aefdb9c9ced,28,Kobieta,2022-06-04_08h18.26.770,task,2021.1.4,Win32,59.3753711,628b806c463b948bc644b84f,629af91444859c8d22c4ddfe,,,,,,,,,,,bqwbsw,"[""b"",""q"",""w"",""b"",""s"",""w""]","[0.65300000000002,1.0339999999999918,1.3488999999761973,2.4253999999761504,2.7777999999523217,3.0898999999761827,4.0171999999284935]",1,BQWBSW,8,0,8,0,1,,,,,,,,,,,,,,,,,,,,,,,,,,,,,,,,,,,,,,,,,,,,,,,,,,,,,,,,,,,,,,,,,,,,,,,,,,,,,,,,,,,
,,,,,,,,,,5e04595a4fa02aefdb9c9ced,28,Kobieta,2022-06-04_08h18.26.770,task,2021.1.4,Win32,59.3753711,628b806c463b948bc644b84f,629af91444859c8d22c4ddfe,,,,,0,0,0,0,1,X V Q F H G B L J M P D K C T S W R N Z,,,,,,,,,,,,,,,,,,,,,,,,,,,,,,,,,,,,,,,,,,,,,,,,,,,,,,,,,,,,,,,,,,,,,,,,,,,,,,,,,,,,,,,,,,,,,
,,,,,,,,,,5e04595a4fa02aefdb9c9ced,28,Kobieta,2022-06-04_08h18.26.770,task,2021.1.4,Win32,59.3753711,628b806c463b948bc644b84f,629af91444859c8d22c4ddfe,,,,,1,0,1,0,1,X V Q F H G B L J M P D K C T S W R N Z,,,,,,,,,,,,,,,,,,,,,,,,,,,,,,,,,,,,,,,,,,,,,,,,,,,,,,,,,,,,,,,,,,,,,,,,,,,,,,,,,,,,,,,,,,,,,
,,,,,,,,,,5e04595a4fa02aefdb9c9ced,28,Kobieta,2022-06-04_08h18.26.770,task,2021.1.4,Win32,59.3753711,628b806c463b948bc644b84f,629af91444859c8d22c4ddfe,,,,,2,0,2,0,1,X V Q F H G B L J M P D K C T S W R N Z,,,,,,,,,,,,,,,,,,,,,,,,,,,,,,,,,,,,,,,,,,,,,,,,,,,,,,,,,,,,,,,,,,,,,,,,,,,,,,,,,,,,,,,,,,,,,
,,,,,,,,,,5e04595a4fa02aefdb9c9ced,28,Kobieta,2022-06-04_08h18.26.770,task,2021.1.4,Win32,59.3753711,628b806c463b948bc644b84f,629af91444859c8d22c4ddfe,,,,,3,0,3,0,1,X V Q F H G B L J M P D K C T S W R N Z,,,,,,,,,,,,,,,,,,,,,,,,,,,,,,,,,,,,,,,,,,,,,,,,,,,,,,,,,,,,,,,,,,,,,,,,,,,,,,,,,,,,,,,,,,,,,
,,,,,,,,,,5e04595a4fa02aefdb9c9ced,28,Kobieta,2022-06-04_08h18.26.770,task,2021.1.4,Win32,59.3753711,628b806c463b948bc644b84f,629af91444859c8d22c4ddfe,,,,,4,0,4,0,1,X V Q F H G B L J M P D K C T S W R N Z,,,,,,,,,,,,,,,,,,,,,,,,,,,,,,,,,,,,,,,,,,,,,,,,,,,,,,,,,,,,,,,,,,,,,,,,,,,,,,,,,,,,,,,,,,,,,
,,,,,,,,,,5e04595a4fa02aefdb9c9ced,28,Kobieta,2022-06-04_08h18.26.770,task,2021.1.4,Win32,59.3753711,628b806c463b948bc644b84f,629af91444859c8d22c4ddfe,,,,,5,0,5,0,1,X V Q F H G B L J M P D K C T S W R N Z,,,,,,,,,,,,,,,,,,,,,,,,,,,,,,,,,,,,,,,,,,,,,,,,,,,,,,,,,,,,,,,,,,,,,,,,,,,,,,,,,,,,,,,,,,,,,
,,,,,,,,,,5e04595a4fa02aefdb9c9ced,28,Kobieta,2022-06-04_08h18.26.770,task,2021.1.4,Win32,59.3753711,628b806c463b948bc644b84f,629af91444859c8d22c4ddfe,,,,,,,,,,,pqdghv,"[""p"",""q"",""d"",""g"",""h"",""v""]","[0.6382000000477319,1.5425000000000182,1.8799999999999955,2.254000000000019,2.6152000000477074,2.8984000000953642,3.4987000000477337]",1,PQDGHV,9,0,9,0,1,,,,,,,,,,,,,,,,,,,,,,,,,,,,,,,,,,,,,,,,,,,,,,,,,,,,,,,,,,,,,,,,,,,,,,,,,,,,,,,,,,,
,,,,,,,,,,5e04595a4fa02aefdb9c9ced,28,Kobieta,2022-06-04_08h18.26.770,task,2021.1.4,Win32,59.3753711,628b806c463b948bc644b84f,629af91444859c8d22c4ddfe,,,,,0,0,0,0,1,X V Q F H G B L J M P D K C T S W R N Z,,,,,,,,,,,,,,,,,,,,,,,,,,,,,,,,,,,,,,,,,,,,,,,,,,,,,,,,,,,,,,,,,,,,,,,,,,,,,,,,,,,,,,,,,,,,,
,,,,,,,,,,5e04595a4fa02aefdb9c9ced,28,Kobieta,2022-06-04_08h18.26.770,task,2021.1.4,Win32,59.3753711,628b806c463b948bc644b84f,629af91444859c8d22c4ddfe,,,,,1,0,1,0,1,X V Q F H G B L J M P D K C T S W R N Z,,,,,,,,,,,,,,,,,,,,,,,,,,,,,,,,,,,,,,,,,,,,,,,,,,,,,,,,,,,,,,,,,,,,,,,,,,,,,,,,,,,,,,,,,,,,,
,,,,,,,,,,5e04595a4fa02aefdb9c9ced,28,Kobieta,2022-06-04_08h18.26.770,task,2021.1.4,Win32,59.3753711,628b806c463b948bc644b84f,629af91444859c8d22c4ddfe,,,,,2,0,2,0,1,X V Q F H G B L J M P D K C T S W R N Z,,,,,,,,,,,,,,,,,,,,,,,,,,,,,,,,,,,,,,,,,,,,,,,,,,,,,,,,,,,,,,,,,,,,,,,,,,,,,,,,,,,,,,,,,,,,,
,,,,,,,,,,5e04595a4fa02aefdb9c9ced,28,Kobieta,2022-06-04_08h18.26.770,task,2021.1.4,Win32,59.3753711,628b806c463b948bc644b84f,629af91444859c8d22c4ddfe,,,,,3,0,3,0,1,X V Q F H G B L J M P D K C T S W R N Z,,,,,,,,,,,,,,,,,,,,,,,,,,,,,,,,,,,,,,,,,,,,,,,,,,,,,,,,,,,,,,,,,,,,,,,,,,,,,,,,,,,,,,,,,,,,,
,,,,,,,,,,5e04595a4fa02aefdb9c9ced,28,Kobieta,2022-06-04_08h18.26.770,task,2021.1.4,Win32,59.3753711,628b806c463b948bc644b84f,629af91444859c8d22c4ddfe,,,,,4,0,4,0,1,X V Q F H G B L J M P D K C T S W R N Z,,,,,,,,,,,,,,,,,,,,,,,,,,,,,,,,,,,,,,,,,,,,,,,,,,,,,,,,,,,,,,,,,,,,,,,,,,,,,,,,,,,,,,,,,,,,,
,,,,,,,,,,5e04595a4fa02aefdb9c9ced,28,Kobieta,2022-06-04_08h18.26.770,task,2021.1.4,Win32,59.3753711,628b806c463b948bc644b84f,629af91444859c8d22c4ddfe,,,,,5,0,5,0,1,X V Q F H G B L J M P D K C T S W R N Z,,,,,,,,,,,,,,,,,,,,,,,,,,,,,,,,,,,,,,,,,,,,,,,,,,,,,,,,,,,,,,,,,,,,,,,,,,,,,,,,,,,,,,,,,,,,,
,,,,,,,,,,5e04595a4fa02aefdb9c9ced,28,Kobieta,2022-06-04_08h18.26.770,task,2021.1.4,Win32,59.3753711,628b806c463b948bc644b84f,629af91444859c8d22c4ddfe,,,,,6,0,6,0,1,X V Q F H G B L J M P D K C T S W R N Z,,,,,,,,,,,,,,,,,,,,,,,,,,,,,,,,,,,,,,,,,,,,,,,,,,,,,,,,,,,,,,,,,,,,,,,,,,,,,,,,,,,,,,,,,,,,,
,,,,,,,,,,5e04595a4fa02aefdb9c9ced,28,Kobieta,2022-06-04_08h18.26.770,task,2021.1.4,Win32,59.3753711,628b806c463b948bc644b84f,629af91444859c8d22c4ddfe,,,,,,,,,,,jfdjws,"[""j"",""f"",""d"",""j"",""w"",""s""]","[0.593899999976145,1.1776000000238582,1.4087999999522935,2.9769999999999754,3.2842999999523386,3.993100000023844,4.416899999976181]",0,JFDJWSJ,10,0,10,0,1,,,,,,,,,,,,,,,,,,,,,,,,,,,,,,,,,,,,,,,,,,,,,,,,,,,,,,,,,,,,,,,,,,,,,,,,,,,,,,,,,,,
,,,,,,,,,,5e04595a4fa02aefdb9c9ced,28,Kobieta,2022-06-04_08h18.26.770,task,2021.1.4,Win32,59.3753711,628b806c463b948bc644b84f,629af91444859c8d22c4ddfe,,,,,0,0,0,0,1,X V Q F H G B L J M P D K C T S W R N Z,,,,,,,,,,,,,,,,,,,,,,,,,,,,,,,,,,,,,,,,,,,,,,,,,,,,,,,,,,,,,,,,,,,,,,,,,,,,,,,,,,,,,,,,,,,,,
,,,,,,,,,,5e04595a4fa02aefdb9c9ced,28,Kobieta,2022-06-04_08h18.26.770,task,2021.1.4,Win32,59.3753711,628b806c463b948bc644b84f,629af91444859c8d22c4ddfe,,,,,1,0,1,0,1,X V Q F H G B L J M P D K C T S W R N Z,,,,,,,,,,,,,,,,,,,,,,,,,,,,,,,,,,,,,,,,,,,,,,,,,,,,,,,,,,,,,,,,,,,,,,,,,,,,,,,,,,,,,,,,,,,,,
,,,,,,,,,,5e04595a4fa02aefdb9c9ced,28,Kobieta,2022-06-04_08h18.26.770,task,2021.1.4,Win32,59.3753711,628b806c463b948bc644b84f,629af91444859c8d22c4ddfe,,,,,2,0,2,0,1,X V Q F H G B L J M P D K C T S W R N Z,,,,,,,,,,,,,,,,,,,,,,,,,,,,,,,,,,,,,,,,,,,,,,,,,,,,,,,,,,,,,,,,,,,,,,,,,,,,,,,,,,,,,,,,,,,,,
,,,,,,,,,,5e04595a4fa02aefdb9c9ced,28,Kobieta,2022-06-04_08h18.26.770,task,2021.1.4,Win32,59.3753711,628b806c463b948bc644b84f,629af91444859c8d22c4ddfe,,,,,3,0,3,0,1,X V Q F H G B L J M P D K C T S W R N Z,,,,,,,,,,,,,,,,,,,,,,,,,,,,,,,,,,,,,,,,,,,,,,,,,,,,,,,,,,,,,,,,,,,,,,,,,,,,,,,,,,,,,,,,,,,,,
,,,,,,,,,,5e04595a4fa02aefdb9c9ced,28,Kobieta,2022-06-04_08h18.26.770,task,2021.1.4,Win32,59.3753711,628b806c463b948bc644b84f,629af91444859c8d22c4ddfe,,,,,4,0,4,0,1,X V Q F H G B L J M P D K C T S W R N Z,,,,,,,,,,,,,,,,,,,,,,,,,,,,,,,,,,,,,,,,,,,,,,,,,,,,,,,,,,,,,,,,,,,,,,,,,,,,,,,,,,,,,,,,,,,,,
,,,,,,,,,,5e04595a4fa02aefdb9c9ced,28,Kobieta,2022-06-04_08h18.26.770,task,2021.1.4,Win32,59.3753711,628b806c463b948bc644b84f,629af91444859c8d22c4ddfe,,,,,5,0,5,0,1,X V Q F H G B L J M P D K C T S W R N Z,,,,,,,,,,,,,,,,,,,,,,,,,,,,,,,,,,,,,,,,,,,,,,,,,,,,,,,,,,,,,,,,,,,,,,,,,,,,,,,,,,,,,,,,,,,,,
,,,,,,,,,,5e04595a4fa02aefdb9c9ced,28,Kobieta,2022-06-04_08h18.26.770,task,2021.1.4,Win32,59.3753711,628b806c463b948bc644b84f,629af91444859c8d22c4ddfe,,,,,6,0,6,0,1,X V Q F H G B L J M P D K C T S W R N Z,,,,,,,,,,,,,,,,,,,,,,,,,,,,,,,,,,,,,,,,,,,,,,,,,,,,,,,,,,,,,,,,,,,,,,,,,,,,,,,,,,,,,,,,,,,,,
,,,,,,,,,,5e04595a4fa02aefdb9c9ced,28,Kobieta,2022-06-04_08h18.26.770,task,2021.1.4,Win32,59.3753711,628b806c463b948bc644b84f,629af91444859c8d22c4ddfe,,,,,,,,,,,lbdxjn,"[""l"",""b"",""d"",""x"",""j"",""n""]","[0.8202000000476914,1.0603000000715497,1.3076000000238537,2.1078000000715633,3.0357000000477115,4.067600000023845,4.534400000095388]",0,LBDXGNS,11,0,11,0,1,,,,,,,,,,,,,,,,,,,,,,,,,,,,,,,,,,,,,,,,,,,,,,,,,,,,,,,,,,,,,,,,,,,,,,,,,,,,,,,,,,,
,,,,,,,,,,5e04595a4fa02aefdb9c9ced,28,Kobieta,2022-06-04_08h18.26.770,task,2021.1.4,Win32,59.3753711,628b806c463b948bc644b84f,629af91444859c8d22c4ddfe,,,,,0,0,0,0,1,X V Q F H G B L J M P D K C T S W R N Z,,,,,,,,,,,,,,,,,,,,,,,,,,,,,,,,,,,,,,,,,,,,,,,,,,,,,,,,,,,,,,,,,,,,,,,,,,,,,,,,,,,,,,,,,,,,,
,,,,,,,,,,5e04595a4fa02aefdb9c9ced,28,Kobieta,2022-06-04_08h18.26.770,task,2021.1.4,Win32,59.3753711,628b806c463b948bc644b84f,629af91444859c8d22c4ddfe,,,,,1,0,1,0,1,X V Q F H G B L J M P D K C T S W R N Z,,,,,,,,,,,,,,,,,,,,,,,,,,,,,,,,,,,,,,,,,,,,,,,,,,,,,,,,,,,,,,,,,,,,,,,,,,,,,,,,,,,,,,,,,,,,,
,,,,,,,,,,5e04595a4fa02aefdb9c9ced,28,Kobieta,2022-06-04_08h18.26.770,task,2021.1.4,Win32,59.3753711,628b806c463b948bc644b84f,629af91444859c8d22c4ddfe,,,,,2,0,2,0,1,X V Q F H G B L J M P D K C T S W R N Z,,,,,,,,,,,,,,,,,,,,,,,,,,,,,,,,,,,,,,,,,,,,,,,,,,,,,,,,,,,,,,,,,,,,,,,,,,,,,,,,,,,,,,,,,,,,,
,,,,,,,,,,5e04595a4fa02aefdb9c9ced,28,Kobieta,2022-06-04_08h18.26.770,task,2021.1.4,Win32,59.3753711,628b806c463b948bc644b84f,629af91444859c8d22c4ddfe,,,,,3,0,3,0,1,X V Q F H G B L J M P D K C T S W R N Z,,,,,,,,,,,,,,,,,,,,,,,,,,,,,,,,,,,,,,,,,,,,,,,,,,,,,,,,,,,,,,,,,,,,,,,,,,,,,,,,,,,,,,,,,,,,,
,,,,,,,,,,5e04595a4fa02aefdb9c9ced,28,Kobieta,2022-06-04_08h18.26.770,task,2021.1.4,Win32,59.3753711,628b806c463b948bc644b84f,629af91444859c8d22c4ddfe,,,,,4,0,4,0,1,X V Q F H G B L J M P D K C T S W R N Z,,,,,,,,,,,,,,,,,,,,,,,,,,,,,,,,,,,,,,,,,,,,,,,,,,,,,,,,,,,,,,,,,,,,,,,,,,,,,,,,,,,,,,,,,,,,,
,,,,,,,,,,5e04595a4fa02aefdb9c9ced,28,Kobieta,2022-06-04_08h18.26.770,task,2021.1.4,Win32,59.3753711,628b806c463b948bc644b84f,629af91444859c8d22c4ddfe,,,,,5,0,5,0,1,X V Q F H G B L J M P D K C T S W R N Z,,,,,,,,,,,,,,,,,,,,,,,,,,,,,,,,,,,,,,,,,,,,,,,,,,,,,,,,,,,,,,,,,,,,,,,,,,,,,,,,,,,,,,,,,,,,,
,,,,,,,,,,5e04595a4fa02aefdb9c9ced,28,Kobieta,2022-06-04_08h18.26.770,task,2021.1.4,Win32,59.3753711,628b806c463b948bc644b84f,629af91444859c8d22c4ddfe,,,,,6,0,6,0,1,X V Q F H G B L J M P D K C T S W R N Z,,,,,,,,,,,,,,,,,,,,,,,,,,,,,,,,,,,,,,,,,,,,,,,,,,,,,,,,,,,,,,,,,,,,,,,,,,,,,,,,,,,,,,,,,,,,,
,,,,,,,,,,5e04595a4fa02aefdb9c9ced,28,Kobieta,2022-06-04_08h18.26.770,task,2021.1.4,Win32,59.3753711,628b806c463b948bc644b84f,629af91444859c8d22c4ddfe,,,,,,,,,,,wdtfvfp,"[""w"",""d"",""t"",""f"",""v"",""f"",""p""]","[0.9687999999522958,1.2567999999523067,1.504699999928448,2.120600000023842,2.4012999999523004,3.2566999999284576,3.440799999952276,5.000600000023837]",0,WDTFVPF,12,0,12,0,1,,,,,,,,,,,,,,,,,,,,,,,,,,,,,,,,,,,,,,,,,,,,,,,,,,,,,,,,,,,,,,,,,,,,,,,,,,,,,,,,,,,
,,,,,,,,,,5e04595a4fa02aefdb9c9ced,28,Kobieta,2022-06-04_08h18.26.770,task,2021.1.4,Win32,59.3753711,628b806c463b948bc644b84f,629af91444859c8d22c4ddfe,,,,,,,,,,,,,,,,,,,,,space,52.2937,7,"[""7""]",1,[5.407399999976178],[5.407399999976178],0,0,0,7,1,Practice,8,(5x5) - 18,7,,,,,,,,,,,,,,,,,,,,,,,,,,,,,,,,,,,,,,,,,,,,,,,,,,,,,,,,,,,,,,,,,,,
,,,,,,,,,,5e04595a4fa02aefdb9c9ced,28,Kobieta,2022-06-04_08h18.26.770,task,2021.1.4,Win32,59.3753711,628b806c463b948bc644b84f,629af91444859c8d22c4ddfe,,,,,,,,,,,,,,,,,,,,,,,8,"[""8""]",1,[1.9778999999761027],"[5.407399999976178,1.9778999999761027]",0,1,1,8,1,Practice,9,(3x3) - 1,8,,,,,,,,,,,,,,,,,,,,,,,,,,,,,,,,,,,,,,,,,,,,,,,,,,,,,,,,,,,,,,,,,,,
,,,,,,,,,,5e04595a4fa02aefdb9c9ced,28,Kobieta,2022-06-04_08h18.26.770,task,2021.1.4,Win32,59.3753711,628b806c463b948bc644b84f,629af91444859c8d22c4ddfe,,,,,,,,,,,,,,,,,,,,,,,6,"[""6""]",1,[2.0878999999761163],"[5.407399999976178,1.9778999999761027,2.0878999999761163]",0,2,2,6,1,Practice,7,(25/5) + 1,6,,,,,,,,,,,,,,,,,,,,,,,,,,,,,,,,,,,,,,,,,,,,,,,,,,,,,,,,,,,,,,,,,,,
,,,,,,,,,,5e04595a4fa02aefdb9c9ced,28,Kobieta,2022-06-04_08h18.26.770,task,2021.1.4,Win32,59.3753711,628b806c463b948bc644b84f,629af91444859c8d22c4ddfe,,,,,,,,,,,,,,,,,,,,,,,3,"[""3""]",1,[1.7069999999999936],"[5.407399999976178,1.9778999999761027,2.0878999999761163,1.7069999999999936]",0,3,3,3,1,Practice,4,(8/4) + 1,3,,,,,,,,,,,,,,,,,,,,,,,,,,,,,,,,,,,,,,,,,,,,,,,,,,,,,,,,,,,,,,,,,,,
,,,,,,,,,,5e04595a4fa02aefdb9c9ced,28,Kobieta,2022-06-04_08h18.26.770,task,2021.1.4,Win32,59.3753711,628b806c463b948bc644b84f,629af91444859c8d22c4ddfe,,,,,,,,,,,,,,,,,,,,,,,0,"[""0""]",1,[1.9152999999522535],"[5.407399999976178,1.9778999999761027,2.0878999999761163,1.7069999999999936,1.9152999999522535]",0,4,4,0,1,Practice,1,(3x3) -  9,0,,,,,,,,,,,,,,,,,,,,,,,,,,,,,,,,,,,,,,,,,,,,,,,,,,,,,,,,,,,,,,,,,,,
,,,,,,,,,,5e04595a4fa02aefdb9c9ced,28,Kobieta,2022-06-04_08h18.26.770,task,2021.1.4,Win32,59.3753711,628b806c463b948bc644b84f,629af91444859c8d22c4ddfe,,,,,,,,,,,,,,,,,,,,,,,1,"[""1""]",1,[1.8853000000715383],"[5.407399999976178,1.9778999999761027,2.0878999999761163,1.7069999999999936,1.9152999999522535,1.8853000000715383]",0,5,5,1,1,Practice,2,(4x4) - 15,1,,,,,,,,,,,,,,,,,,,,,,,,,,,,,,,,,,,,,,,,,,,,,,,,,,,,,,,,,,,,,,,,,,,
,,,,,,,,,,5e04595a4fa02aefdb9c9ced,28,Kobieta,2022-06-04_08h18.26.770,task,2021.1.4,Win32,59.3753711,628b806c463b948bc644b84f,629af91444859c8d22c4ddfe,,,,,,,,,,,,,,,,,,,,,,,4,"[""4""]",1,[2.850700000047709],"[5.407399999976178,1.9778999999761027,2.0878999999761163,1.7069999999999936,1.9152999999522535,1.8853000000715383,2.850700000047709]",0,6,6,4,1,Practice,5,(2x6) - 8,4,,,,,,,,,,,,,,,,,,,,,,,,,,,,,,,,,,,,,,,,,,,,,,,,,,,,,,,,,,,,,,,,,,,
,,,,,,,,,,5e04595a4fa02aefdb9c9ced,28,Kobieta,2022-06-04_08h18.26.770,task,2021.1.4,Win32,59.3753711,628b806c463b948bc644b84f,629af91444859c8d22c4ddfe,,,,,,,,,,,,,,,,,,,,,,,2,"[""2""]",1,[2.888100000023883],"[5.407399999976178,1.9778999999761027,2.0878999999761163,1.7069999999999936,1.9152999999522535,1.8853000000715383,2.850700000047709,2.888100000023883]",0,7,7,2,1,Practice,3,(4x4) - 14,2,,,,,,,,,,,,,,,,,,,,,,,,,,,,,,,,,,,,,,,,,,,,,,,,,,,,,,,,,,,,,,,,,,,
,,,,,,,,,,5e04595a4fa02aefdb9c9ced,28,Kobieta,2022-06-04_08h18.26.770,task,2021.1.4,Win32,59.3753711,628b806c463b948bc644b84f,629af91444859c8d22c4ddfe,,,,,,,,,,,,,,,,,,,,,,,5,"[""5""]",1,[2.636099999904559],"[5.407399999976178,1.9778999999761027,2.0878999999761163,1.7069999999999936,1.9152999999522535,1.8853000000715383,2.850700000047709,2.888100000023883,2.636099999904559]",0,8,8,5,1,Practice,6,(4/2) + 3,5,,,,,,,,,,,,,,,,,,,,,,,,,,,,,,,,,,,,,,,,,,,,,,,,,,,,,,,,,,,,,,,,,,,
,,,,,,,,,,5e04595a4fa02aefdb9c9ced,28,Kobieta,2022-06-04_08h18.26.770,task,2021.1.4,Win32,59.3753711,628b806c463b948bc644b84f,629af91444859c8d22c4ddfe,,,,,,,,,,,,,,,,,,,,,,,9,"[""9""]",1,[1.9125000000000227],"[5.407399999976178,1.9778999999761027,2.0878999999761163,1.7069999999999936,1.9152999999522535,1.8853000000715383,2.850700000047709,2.888100000023883,2.636099999904559,1.9125000000000227]",0,9,9,9,1,Practice,10,(20/2) - 1,9,,,,,,,,,,,,,,,,,,,,,,,,,,,,,,,,,,,,,,,,,,,,,,,,,,,,,,,,,,,,,,,,,,,
,,,,,,,,,,5e04595a4fa02aefdb9c9ced,28,Kobieta,2022-06-04_08h18.26.770,task,2021.1.4,Win32,59.3753711,628b806c463b948bc644b84f,629af91444859c8d22c4ddfe,,,,,,,,,,,,,,,,,,,,,,,,,,,,,,,,,,,,,1,25.2682,1.684546667,17.96831088,1.094480421,4.508306153,space,1.6199,0,0,0,0,1,,,,,,,,,,,,,,,,,,,,,,,,,,,,,,,,,,,,,,,,,,,,,,,,,,,,,,
,,,,,,,,,,5e04595a4fa02aefdb9c9ced,28,Kobieta,2022-06-04_08h18.26.770,task,2021.1.4,Win32,59.3753711,628b806c463b948bc644b84f,629af91444859c8d22c4ddfe,,,,,,,,,,,,,,,,,,,,,,,6,,,,,,,,,,Practice,7,(25/5) + 1,6,,,,,,,,,,,,,,space,13.845,"[""6""]",1,[3.3846999999284435],1,0,0,0,6,1,,,,,,,,,,,,,,,,,,,,,,,,,,,,,,,,,,,,,,,,,,,
,,,,,,,,,,5e04595a4fa02aefdb9c9ced,28,Kobieta,2022-06-04_08h18.26.770,task,2021.1.4,Win32,59.3753711,628b806c463b948bc644b84f,629af91444859c8d22c4ddfe,,,,,,,,,,X V Q F H G B L J M P D K C T S W R N Z,,,,,,,,,,,,,,,,,,,,,,,,,,,,,,,,,,,,,,,,,,,,,,,,,,,0,0,0,0,1,,,,,,,,,,,,,,,,,,,,,,,,,,,,,,,,,,,,,,
,,,,,,,,,,5e04595a4fa02aefdb9c9ced,28,Kobieta,2022-06-04_08h18.26.770,task,2021.1.4,Win32,59.3753711,628b806c463b948bc644b84f,629af91444859c8d22c4ddfe,,,,,,,,,,,,,,,,,,,,,,,2,,,,,,,,,,Practice,3,(4x4) - 14,2,,,,,,,,,,,,,,,,"[""2""]",1,[4.300199999928509],1,0,0,0,2,1,,,,,,,,,,,,,,,,,,,,,,,,,,,,,,,,,,,,,,,,,,,
,,,,,,,,,,5e04595a4fa02aefdb9c9ced,28,Kobieta,2022-06-04_08h18.26.770,task,2021.1.4,Win32,59.3753711,628b806c463b948bc644b84f,629af91444859c8d22c4ddfe,,,,,,,,,,X V Q F H G B L J M P D K C T S W R N Z,,,,,,,,,,,,,,,,,,,,,,,,,,,,,,,,,,,,,,,,,,,,,,,,,,,1,0,1,0,1,,,,,,,,,,,,,,,,,,,,,,,,,,,,,,,,,,,,,,
,,,,,,,,,,5e04595a4fa02aefdb9c9ced,28,Kobieta,2022-06-04_08h18.26.770,task,2021.1.4,Win32,59.3753711,628b806c463b948bc644b84f,629af91444859c8d22c4ddfe,,,,,,,,,,,,,,,,,,,,,,,,,,,,,,,,,,,,,,,,,,,,,,,,,,,,,,,,,,,,,,,,,,zg,"[""z"",""g""]",0,"[1.78550000000007,2.052500000000009,2.889199999928451]",1,0,0,0,0,1,,,,,,,,,,,,,,,,,,,,,,,,,,,,
,,,,,,,,,,5e04595a4fa02aefdb9c9ced,28,Kobieta,2022-06-04_08h18.26.770,task,2021.1.4,Win32,59.3753711,628b806c463b948bc644b84f,629af91444859c8d22c4ddfe,,,,,,,,,,,,,,,,,,,,,,,4,,,,,,,,,,Practice,5,(2x6) - 8,4,,,,,,,,,,,,,,,,"[""4""]",1,[4.010999999999967],1,0,0,0,4,1,,,,,,,,,,,,,,,,,,,,,,,,,,,,,,,,,,,,,,,,,,,
,,,,,,,,,,5e04595a4fa02aefdb9c9ced,28,Kobieta,2022-06-04_08h18.26.770,task,2021.1.4,Win32,59.3753711,628b806c463b948bc644b84f,629af91444859c8d22c4ddfe,,,,,,,,,,X V Q F H G B L J M P D K C T S W R N Z,,,,,,,,,,,,,,,,,,,,,,,,,,,,,,,,,,,,,,,,,,,,,,,,,,,0,0,0,0,1,,,,,,,,,,,,,,,,,,,,,,,,,,,,,,,,,,,,,,
,,,,,,,,,,5e04595a4fa02aefdb9c9ced,28,Kobieta,2022-06-04_08h18.26.770,task,2021.1.4,Win32,59.3753711,628b806c463b948bc644b84f,629af91444859c8d22c4ddfe,,,,,,,,,,,,,,,,,,,,,,,7,,,,,,,,,,Practice,8,(5x5) - 18,7,,,,,,,,,,,,,,,,"[""7""]",1,[3.5217000000476446],1,0,0,0,7,1,,,,,,,,,,,,,,,,,,,,,,,,,,,,,,,,,,,,,,,,,,,
,,,,,,,,,,5e04595a4fa02aefdb9c9ced,28,Kobieta,2022-06-04_08h18.26.770,task,2021.1.4,Win32,59.3753711,628b806c463b948bc644b84f,629af91444859c8d22c4ddfe,,,,,,,,,,X V Q F H G B L J M P D K C T S W R N Z,,,,,,,,,,,,,,,,,,,,,,,,,,,,,,,,,,,,,,,,,,,,,,,,,,,1,0,1,0,1,,,,,,,,,,,,,,,,,,,,,,,,,,,,,,,,,,,,,,
,,,,,,,,,,5e04595a4fa02aefdb9c9ced,28,Kobieta,2022-06-04_08h18.26.770,task,2021.1.4,Win32,59.3753711,628b806c463b948bc644b84f,629af91444859c8d22c4ddfe,,,,,,,,,,,,,,,,,,,,,,,,,,,,,,,,,,,,,,,,,,,,,,,,,,,,,,,,,,,,,,,,,,vv,"[""v"",""v""]",0,"[0.9695000000000391,1.1784999999999854,1.5293999999761354]",1,1,0,1,0,1,,,,,,,,,,,,,,,,,,,,,,,,,,,,
,,,,,,,,,,5e04595a4fa02aefdb9c9ced,28,Kobieta,2022-06-04_08h18.26.770,task,2021.1.4,Win32,59.3753711,628b806c463b948bc644b84f,629af91444859c8d22c4ddfe,,,,,,,,,,,,,,,,,,,,,,,0,,,,,,,,,,Practice,1,(3x3) -  9,0,,,,,,,,,,,,,,,,"[""0""]",1,[1.7371000000239292],1,0,0,0,0,1,,,,,,,,,,,,,,,,,,,,,,,,,,,,,,,,,,,,,,,,,,,
,,,,,,,,,,5e04595a4fa02aefdb9c9ced,28,Kobieta,2022-06-04_08h18.26.770,task,2021.1.4,Win32,59.3753711,628b806c463b948bc644b84f,629af91444859c8d22c4ddfe,,,,,,,,,,X V Q F H G B L J M P D K C T S W R N Z,,,,,,,,,,,,,,,,,,,,,,,,,,,,,,,,,,,,,,,,,,,,,,,,,,,0,0,0,0,1,,,,,,,,,,,,,,,,,,,,,,,,,,,,,,,,,,,,,,
,,,,,,,,,,5e04595a4fa02aefdb9c9ced,28,Kobieta,2022-06-04_08h18.26.770,task,2021.1.4,Win32,59.3753711,628b806c463b948bc644b84f,629af91444859c8d22c4ddfe,,,,,,,,,,,,,,,,,,,,,,,0,,,,,,,,,,Practice,1,(3x3) -  9,0,,,,,,,,,,,,,,,,"[""0""]",1,[1.8738999999761745],1,0,0,0,0,1,,,,,,,,,,,,,,,,,,,,,,,,,,,,,,,,,,,,,,,,,,,
,,,,,,,,,,5e04595a4fa02aefdb9c9ced,28,Kobieta,2022-06-04_08h18.26.770,task,2021.1.4,Win32,59.3753711,628b806c463b948bc644b84f,629af91444859c8d22c4ddfe,,,,,,,,,,X V Q F H G B L J M P D K C T S W R N Z,,,,,,,,,,,,,,,,,,,,,,,,,,,,,,,,,,,,,,,,,,,,,,,,,,,1,0,1,0,1,,,,,,,,,,,,,,,,,,,,,,,,,,,,,,,,,,,,,,
,,,,,,,,,,5e04595a4fa02aefdb9c9ced,28,Kobieta,2022-06-04_08h18.26.770,task,2021.1.4,Win32,59.3753711,628b806c463b948bc644b84f,629af91444859c8d22c4ddfe,,,,,,,,,,,,,,,,,,,,,,,,,,,,,,,,,,,,,,,,,,,,,,,,,,,,,,,,,,,,,,,,,,fc,"[""f"",""c""]",0,"[1.2232000000476546,1.575100000023781,2.0874999999999773]",1,2,0,2,0,1,,,,,,,,,,,,,,,,,,,,,,,,,,,,
,,,,,,,,,,5e04595a4fa02aefdb9c9ced,28,Kobieta,2022-06-04_08h18.26.770,task,2021.1.4,Win32,59.3753711,628b806c463b948bc644b84f,629af91444859c8d22c4ddfe,,,,,,,,,,,,,,,,,,,,,,,8,,,,,,,,,,Task,32,(8/2) + 4,8,,,,,,,,,,,,,,,,,,,1,,,,,,,,,,,,,,,,,,,,,space,12.3674,"[""8""]",1,[3.2106999999284653],0,0,0,31,1,,,,,,,,,,,,,,,,,,
,,,,,,,,,,5e04595a4fa02aefdb9c9ced,28,Kobieta,2022-06-04_08h18.26.770,task,2021.1.4,Win32,59.3753711,628b806c463b948bc644b84f,629af91444859c8d22c4ddfe,,,,,,,,,,X V Q F H G B L J M P D K C T S W R N Z,,,,,,,,,,,,,,,,,,,,,,,,,,,,,,,,,,,,,,,,,,,,,,,,,,,,,,,,,,,,,,,,,,,,,,,,,,,,0,0,0,0,1,,,,,,,,,,,,,
,,,,,,,,,,5e04595a4fa02aefdb9c9ced,28,Kobieta,2022-06-04_08h18.26.770,task,2021.1.4,Win32,59.3753711,628b806c463b948bc644b84f,629af91444859c8d22c4ddfe,,,,,,,,,,,,,,,,,,,,,,,2,,,,,,,,,,Task,26,(2x9) - 16,2,,,,,,,,,,,,,,,,,,,1,,,,,,,,,,,,,,,,,,,,,,,"[""2""]",1,[3.800600000023792],0,0,0,25,1,,,,,,,,,,,,,,,,,,
,,,,,,,,,,5e04595a4fa02aefdb9c9ced,28,Kobieta,2022-06-04_08h18.26.770,task,2021.1.4,Win32,59.3753711,628b806c463b948bc644b84f,629af91444859c8d22c4ddfe,,,,,,,,,,X V Q F H G B L J M P D K C T S W R N Z,,,,,,,,,,,,,,,,,,,,,,,,,,,,,,,,,,,,,,,,,,,,,,,,,,,,,,,,,,,,,,,,,,,,,,,,,,,,1,0,1,0,1,,,,,,,,,,,,,
,,,,,,,,,,5e04595a4fa02aefdb9c9ced,28,Kobieta,2022-06-04_08h18.26.770,task,2021.1.4,Win32,59.3753711,628b806c463b948bc644b84f,629af91444859c8d22c4ddfe,,,,,,,,,,,,,,,,,,,,,,,,,,,,,,,,,,,,,,,,,,,,,,,,,,,,,,,,,,,,,,,,,,,,,,,,,,,,,,,,,,,,,,,,,,,zz,"[""z"",""z""]",0,"[1.3731000000237827,1.5810000000000173,2.0529999999999973]",1,ZZ,0,0,0,0,1,,
,,,,,,,,,,5e04595a4fa02aefdb9c9ced,28,Kobieta,2022-06-04_08h18.26.770,task,2021.1.4,Win32,59.3753711,628b806c463b948bc644b84f,629af91444859c8d22c4ddfe,,,,,,,,,,,,,,,,,,,,,,,9,,,,,,,,,,Task,16,(3x8) - 15,9,,,,,,,,,,,,,,,,,,,1,,,,,,,,,,,,,,,,,,,,,,,"[""9""]",1,[4.333100000023933],0,0,0,15,1,,,,,,,,,,,,,,,,,,
,,,,,,,,,,5e04595a4fa02aefdb9c9ced,28,Kobieta,2022-06-04_08h18.26.770,task,2021.1.4,Win32,59.3753711,628b806c463b948bc644b84f,629af91444859c8d22c4ddfe,,,,,,,,,,X V Q F H G B L J M P D K C T S W R N Z,,,,,,,,,,,,,,,,,,,,,,,,,,,,,,,,,,,,,,,,,,,,,,,,,,,,,,,,,,,,,,,,,,,,,,,,,,,,0,0,0,0,1,,,,,,,,,,,,,
,,,,,,,,,,5e04595a4fa02aefdb9c9ced,28,Kobieta,2022-06-04_08h18.26.770,task,2021.1.4,Win32,59.3753711,628b806c463b948bc644b84f,629af91444859c8d22c4ddfe,,,,,,,,,,,,,,,,,,,,,,,1,,,,,,,,,,Task,18,(16/4) - 3,1,,,,,,,,,,,,,,,,,,,1,,,,,,,,,,,,,,,,,,,,,,,"[""1""]",1,[2.3372000000476874],0,0,0,17,1,,,,,,,,,,,,,,,,,,
,,,,,,,,,,5e04595a4fa02aefdb9c9ced,28,Kobieta,2022-06-04_08h18.26.770,task,2021.1.4,Win32,59.3753711,628b806c463b948bc644b84f,629af91444859c8d22c4ddfe,,,,,,,,,,X V Q F H G B L J M P D K C T S W R N Z,,,,,,,,,,,,,,,,,,,,,,,,,,,,,,,,,,,,,,,,,,,,,,,,,,,,,,,,,,,,,,,,,,,,,,,,,,,,1,0,1,0,1,,,,,,,,,,,,,
,,,,,,,,,,5e04595a4fa02aefdb9c9ced,28,Kobieta,2022-06-04_08h18.26.770,task,2021.1.4,Win32,59.3753711,628b806c463b948bc644b84f,629af91444859c8d22c4ddfe,,,,,,,,,,,,,,,,,,,,,,,3,,,,,,,,,,Task,27,(3/3) + 2,3,,,,,,,,,,,,,,,,,,,1,,,,,,,,,,,,,,,,,,,,,,,"[""3""]",1,[4.37470000004771],0,0,0,26,1,,,,,,,,,,,,,,,,,,
,,,,,,,,,,5e04595a4fa02aefdb9c9ced,28,Kobieta,2022-06-04_08h18.26.770,task,2021.1.4,Win32,59.3753711,628b806c463b948bc644b84f,629af91444859c8d22c4ddfe,,,,,,,,,,X V Q F H G B L J M P D K C T S W R N Z,,,,,,,,,,,,,,,,,,,,,,,,,,,,,,,,,,,,,,,,,,,,,,,,,,,,,,,,,,,,,,,,,,,,,,,,,,,,2,0,2,0,1,,,,,,,,,,,,,
,,,,,,,,,,5e04595a4fa02aefdb9c9ced,28,Kobieta,2022-06-04_08h18.26.770,task,2021.1.4,Win32,59.3753711,628b806c463b948bc644b84f,629af91444859c8d22c4ddfe,,,,,,,,,,,,,,,,,,,,,,,,,,,,,,,,,,,,,,,,,,,,,,,,,,,,,,,,,,,,,,,,,,,,,,,,,,,,,,,,,,,,,,,,,,,zqs,"[""z"",""q"",""s""]",0,"[1.3385000000000673,1.6023999999762282,1.8990999999047062,2.4738999999761973]",1,ZQS,1,0,1,0,1,,
,,,,,,,,,,5e04595a4fa02aefdb9c9ced,28,Kobieta,2022-06-04_08h18.26.770,task,2021.1.4,Win32,59.3753711,628b806c463b948bc644b84f,629af91444859c8d22c4ddfe,,,,,,,,,,,,,,,,,,,,,,,,,,,,,,,,,Task,38,(4x6) - 17,7,,,,,,,,,,,,,,,,,,,0,,,,,,,,,,,,,,,,,,,,,,,,0,,0,0,0,37,1,,,,,,,,,,,,,,,,,,
,,,,,,,,,,5e04595a4fa02aefdb9c9ced,28,Kobieta,2022-06-04_08h18.26.770,task,2021.1.4,Win32,59.3753711,628b806c463b948bc644b84f,629af91444859c8d22c4ddfe,,,,,,,,,,,,,,,,,,,,,,,1,,,,,,,,,,Task,9,(3x7) - 20,1,,,,,,,,,,,,,,,,,,,1,,,,,,,,,,,,,,,,,,,,,,,"[""1""]",1,[2.8457999999523054],0,1,1,8,1,,,,,,,,,,,,,,,,,,
,,,,,,,,,,5e04595a4fa02aefdb9c9ced,28,Kobieta,2022-06-04_08h18.26.770,task,2021.1.4,Win32,59.3753711,628b806c463b948bc644b84f,629af91444859c8d22c4ddfe,,,,,,,,,,X V Q F H G B L J M P D K C T S W R N Z,,,,,,,,,,,,,,,,,,,,,,,,,,,,,,,,,,,,,,,,,,,,,,,,,,,,,,,,,,,,,,,,,,,,,,,,,,,,0,0,0,0,1,,,,,,,,,,,,,
,,,,,,,,,,5e04595a4fa02aefdb9c9ced,28,Kobieta,2022-06-04_08h18.26.770,task,2021.1.4,Win32,59.3753711,628b806c463b948bc644b84f,629af91444859c8d22c4ddfe,,,,,,,,,,,,,,,,,,,,,,,9,,,,,,,,,,Task,24,(2x2) + 5,9,,,,,,,,,,,,,,,,,,,1,,,,,,,,,,,,,,,,,,,,,,,"[""9""]",1,[2.301600000023882],0,0,0,23,1,,,,,,,,,,,,,,,,,,
,,,,,,,,,,5e04595a4fa02aefdb9c9ced,28,Kobieta,2022-06-04_08h18.26.770,task,2021.1.4,Win32,59.3753711,628b806c463b948bc644b84f,629af91444859c8d22c4ddfe,,,,,,,,,,X V Q F H G B L J M P D K C T S W R N Z,,,,,,,,,,,,,,,,,,,,,,,,,,,,,,,,,,,,,,,,,,,,,,,,,,,,,,,,,,,,,,,,,,,,,,,,,,,,1,0,1,0,1,,,,,,,,,,,,,
,,,,,,,,,,5e04595a4fa02aefdb9c9ced,28,Kobieta,2022-06-04_08h18.26.770,task,2021.1.4,Win32,59.3753711,628b806c463b948bc644b84f,629af91444859c8d22c4ddfe,,,,,,,,,,,,,,,,,,,,,,,5,,,,,,,,,,Task,36,(8/4) + 3,5,,,,,,,,,,,,,,,,,,,1,,,,,,,,,,,,,,,,,,,,,,,"[""5""]",1,[2.6558999999761],0,0,0,35,1,,,,,,,,,,,,,,,,,,
,,,,,,,,,,5e04595a4fa02aefdb9c9ced,28,Kobieta,2022-06-04_08h18.26.770,task,2021.1.4,Win32,59.3753711,628b806c463b948bc644b84f,629af91444859c8d22c4ddfe,,,,,,,,,,X V Q F H G B L J M P D K C T S W R N Z,,,,,,,,,,,,,,,,,,,,,,,,,,,,,,,,,,,,,,,,,,,,,,,,,,,,,,,,,,,,,,,,,,,,,,,,,,,,2,0,2,0,1,,,,,,,,,,,,,
,,,,,,,,,,5e04595a4fa02aefdb9c9ced,28,Kobieta,2022-06-04_08h18.26.770,task,2021.1.4,Win32,59.3753711,628b806c463b948bc644b84f,629af91444859c8d22c4ddfe,,,,,,,,,,,,,,,,,,,,,,,9,,,,,,,,,,Task,7,(3x7) - 12,9,,,,,,,,,,,,,,,,,,,1,,,,,,,,,,,,,,,,,,,,,,,"[""9""]",1,[4.418800000071542],0,0,0,6,1,,,,,,,,,,,,,,,,,,
,,,,,,,,,,5e04595a4fa02aefdb9c9ced,28,Kobieta,2022-06-04_08h18.26.770,task,2021.1.4,Win32,59.3753711,628b806c463b948bc644b84f,629af91444859c8d22c4ddfe,,,,,,,,,,X V Q F H G B L J M P D K C T S W R N Z,,,,,,,,,,,,,,,,,,,,,,,,,,,,,,,,,,,,,,,,,,,,,,,,,,,,,,,,,,,,,,,,,,,,,,,,,,,,3,0,3,0,1,,,,,,,,,,,,,
,,,,,,,,,,5e04595a4fa02aefdb9c9ced,28,Kobieta,2022-06-04_08h18.26.770,task,2021.1.4,Win32,59.3753711,628b806c463b948bc644b84f,629af91444859c8d22c4ddfe,,,,,,,,,,,,,,,,,,,,,,,,,,,,,,,,,,,,,,,,,,,,,,,,,,,,,,,,,,,,,,,,,,,,,,,,,,,,,,,,,,,,,,,,,,,hcmh,"[""h"",""c"",""m"",""h""]",0,"[1.144299999952409,1.2703999999762345,1.457099999904699,1.83400000000006,2.4727999999523718]",1,HCMH,2,0,2,0,1,,
,,,,,,,,,,5e04595a4fa02aefdb9c9ced,28,Kobieta,2022-06-04_08h18.26.770,task,2021.1.4,Win32,59.3753711,628b806c463b948bc644b84f,629af91444859c8d22c4ddfe,,,,,,,,,,,,,,,,,,,,,,,7,,,,,,,,,,Task,38,(4x6) - 17,7,,,,,,,,,,,,,,,,,,,1,,,,,,,,,,,,,,,,,,,,,,,"[""7""]",1,[4.448699999928408],0,0,0,37,1,,,,,,,,,,,,,,,,,,
,,,,,,,,,,5e04595a4fa02aefdb9c9ced,28,Kobieta,2022-06-04_08h18.26.770,task,2021.1.4,Win32,59.3753711,628b806c463b948bc644b84f,629af91444859c8d22c4ddfe,,,,,,,,,,X V Q F H G B L J M P D K C T S W R N Z,,,,,,,,,,,,,,,,,,,,,,,,,,,,,,,,,,,,,,,,,,,,,,,,,,,,,,,,,,,,,,,,,,,,,,,,,,,,0,0,0,0,1,,,,,,,,,,,,,
,,,,,,,,,,5e04595a4fa02aefdb9c9ced,28,Kobieta,2022-06-04_08h18.26.770,task,2021.1.4,Win32,59.3753711,628b806c463b948bc644b84f,629af91444859c8d22c4ddfe,,,,,,,,,,,,,,,,,,,,,,,2,,,,,,,,,,Task,26,(2x9) - 16,2,,,,,,,,,,,,,,,,,,,1,,,,,,,,,,,,,,,,,,,,,,,"[""2""]",1,[2.7852000000476664],0,0,0,25,1,,,,,,,,,,,,,,,,,,
,,,,,,,,,,5e04595a4fa02aefdb9c9ced,28,Kobieta,2022-06-04_08h18.26.770,task,2021.1.4,Win32,59.3753711,628b806c463b948bc644b84f,629af91444859c8d22c4ddfe,,,,,,,,,,X V Q F H G B L J M P D K C T S W R N Z,,,,,,,,,,,,,,,,,,,,,,,,,,,,,,,,,,,,,,,,,,,,,,,,,,,,,,,,,,,,,,,,,,,,,,,,,,,,1,0,1,0,1,,,,,,,,,,,,,
,,,,,,,,,,5e04595a4fa02aefdb9c9ced,28,Kobieta,2022-06-04_08h18.26.770,task,2021.1.4,Win32,59.3753711,628b806c463b948bc644b84f,629af91444859c8d22c4ddfe,,,,,,,,,,,,,,,,,,,,,,,8,,,,,,,,,,Task,15,(3x7) - 13,8,,,,,,,,,,,,,,,,,,,1,,,,,,,,,,,,,,,,,,,,,,,"[""8""]",1,[3.861100000023839],0,0,0,14,1,,,,,,,,,,,,,,,,,,
,,,,,,,,,,5e04595a4fa02aefdb9c9ced,28,Kobieta,2022-06-04_08h18.26.770,task,2021.1.4,Win32,59.3753711,628b806c463b948bc644b84f,629af91444859c8d22c4ddfe,,,,,,,,,,X V Q F H G B L J M P D K C T S W R N Z,,,,,,,,,,,,,,,,,,,,,,,,,,,,,,,,,,,,,,,,,,,,,,,,,,,,,,,,,,,,,,,,,,,,,,,,,,,,2,0,2,0,1,,,,,,,,,,,,,
,,,,,,,,,,5e04595a4fa02aefdb9c9ced,28,Kobieta,2022-06-04_08h18.26.770,task,2021.1.4,Win32,59.3753711,628b806c463b948bc644b84f,629af91444859c8d22c4ddfe,,,,,,,,,,,,,,,,,,,,,,,2,,,,,,,,,,Task,26,(2x9) - 16,2,,,,,,,,,,,,,,,,,,,1,,,,,,,,,,,,,,,,,,,,,,,"[""2""]",1,[3.5181000000237646],0,0,0,25,1,,,,,,,,,,,,,,,,,,
,,,,,,,,,,5e04595a4fa02aefdb9c9ced,28,Kobieta,2022-06-04_08h18.26.770,task,2021.1.4,Win32,59.3753711,628b806c463b948bc644b84f,629af91444859c8d22c4ddfe,,,,,,,,,,X V Q F H G B L J M P D K C T S W R N Z,,,,,,,,,,,,,,,,,,,,,,,,,,,,,,,,,,,,,,,,,,,,,,,,,,,,,,,,,,,,,,,,,,,,,,,,,,,,3,0,3,0,1,,,,,,,,,,,,,
,,,,,,,,,,5e04595a4fa02aefdb9c9ced,28,Kobieta,2022-06-04_08h18.26.770,task,2021.1.4,Win32,59.3753711,628b806c463b948bc644b84f,629af91444859c8d22c4ddfe,,,,,,,,,,,,,,,,,,,,,,,,,,,,,,,,,Task,40,(7x2) - 5,9,,,,,,,,,,,,,,,,,,,0,,,,,,,,,,,,,,,,,,,,,,,,0,,0,0,0,39,1,,,,,,,,,,,,,,,,,,
,,,,,,,,,,5e04595a4fa02aefdb9c9ced,28,Kobieta,2022-06-04_08h18.26.770,task,2021.1.4,Win32,59.3753711,628b806c463b948bc644b84f,629af91444859c8d22c4ddfe,,,,,,,,,,,,,,,,,,,,,,,8,,,,,,,,,,Task,15,(3x7) - 13,8,,,,,,,,,,,,,,,,,,,1,,,,,,,,,,,,,,,,,,,,,,,"[""8""]",1,[3.1721999999284662],0,1,1,14,1,,,,,,,,,,,,,,,,,,
,,,,,,,,,,5e04595a4fa02aefdb9c9ced,28,Kobieta,2022-06-04_08h18.26.770,task,2021.1.4,Win32,59.3753711,628b806c463b948bc644b84f,629af91444859c8d22c4ddfe,,,,,,,,,,X V Q F H G B L J M P D K C T S W R N Z,,,,,,,,,,,,,,,,,,,,,,,,,,,,,,,,,,,,,,,,,,,,,,,,,,,,,,,,,,,,,,,,,,,,,,,,,,,,4,0,4,0,1,,,,,,,,,,,,,
,,,,,,,,,,5e04595a4fa02aefdb9c9ced,28,Kobieta,2022-06-04_08h18.26.770,task,2021.1.4,Win32,59.3753711,628b806c463b948bc644b84f,629af91444859c8d22c4ddfe,,,,,,,,,,,,,,,,,,,,,,,,,,,,,,,,,,,,,,,,,,,,,,,,,,,,,,,,,,,,,,,,,,,,,,,,,,,,,,,,,,,,,,,,,,,zqcqn,"[""z"",""q"",""c"",""q"",""n""]",0,"[1.0647000000477647,1.4225000000000136,1.7517000000477765,2.4683999999762136,3.0813000000715647,4.870399999976144]",1,ZQCQN,3,0,3,0,1,,
,,,,,,,,,,5e04595a4fa02aefdb9c9ced,28,Kobieta,2022-06-04_08h18.26.770,task,2021.1.4,Win32,59.3753711,628b806c463b948bc644b84f,629af91444859c8d22c4ddfe,,,,,,,,,,,,,,,,,,,,,,,1,,,,,,,,,,Task,9,(3x7) - 20,1,,,,,,,,,,,,,,,,,,,1,,,,,,,,,,,,,,,,,,,,,,,"[""1""]",1,[2.754000000000019],0,0,0,8,1,,,,,,,,,,,,,,,,,,
,,,,,,,,,,5e04595a4fa02aefdb9c9ced,28,Kobieta,2022-06-04_08h18.26.770,task,2021.1.4,Win32,59.3753711,628b806c463b948bc644b84f,629af91444859c8d22c4ddfe,,,,,,,,,,X V Q F H G B L J M P D K C T S W R N Z,,,,,,,,,,,,,,,,,,,,,,,,,,,,,,,,,,,,,,,,,,,,,,,,,,,,,,,,,,,,,,,,,,,,,,,,,,,,0,0,0,0,1,,,,,,,,,,,,,
,,,,,,,,,,5e04595a4fa02aefdb9c9ced,28,Kobieta,2022-06-04_08h18.26.770,task,2021.1.4,Win32,59.3753711,628b806c463b948bc644b84f,629af91444859c8d22c4ddfe,,,,,,,,,,,,,,,,,,,,,,,9,,,,,,,,,,Task,24,(2x2) + 5,9,,,,,,,,,,,,,,,,,,,1,,,,,,,,,,,,,,,,,,,,,,,"[""9""]",1,[2.2488999999761745],0,0,0,23,1,,,,,,,,,,,,,,,,,,
,,,,,,,,,,5e04595a4fa02aefdb9c9ced,28,Kobieta,2022-06-04_08h18.26.770,task,2021.1.4,Win32,59.3753711,628b806c463b948bc644b84f,629af91444859c8d22c4ddfe,,,,,,,,,,X V Q F H G B L J M P D K C T S W R N Z,,,,,,,,,,,,,,,,,,,,,,,,,,,,,,,,,,,,,,,,,,,,,,,,,,,,,,,,,,,,,,,,,,,,,,,,,,,,1,0,1,0,1,,,,,,,,,,,,,
,,,,,,,,,,5e04595a4fa02aefdb9c9ced,28,Kobieta,2022-06-04_08h18.26.770,task,2021.1.4,Win32,59.3753711,628b806c463b948bc644b84f,629af91444859c8d22c4ddfe,,,,,,,,,,,,,,,,,,,,,,,7,,,,,,,,,,Task,31,(4/2) + 5,7,,,,,,,,,,,,,,,,,,,1,,,,,,,,,,,,,,,,,,,,,,,"[""7""]",1,[2.120600000023842],0,0,0,30,1,,,,,,,,,,,,,,,,,,
,,,,,,,,,,5e04595a4fa02aefdb9c9ced,28,Kobieta,2022-06-04_08h18.26.770,task,2021.1.4,Win32,59.3753711,628b806c463b948bc644b84f,629af91444859c8d22c4ddfe,,,,,,,,,,X V Q F H G B L J M P D K C T S W R N Z,,,,,,,,,,,,,,,,,,,,,,,,,,,,,,,,,,,,,,,,,,,,,,,,,,,,,,,,,,,,,,,,,,,,,,,,,,,,2,0,2,0,1,,,,,,,,,,,,,
,,,,,,,,,,5e04595a4fa02aefdb9c9ced,28,Kobieta,2022-06-04_08h18.26.770,task,2021.1.4,Win32,59.3753711,628b806c463b948bc644b84f,629af91444859c8d22c4ddfe,,,,,,,,,,,,,,,,,,,,,,,2,,,,,,,,,,Task,26,(2x9) - 16,2,,,,,,,,,,,,,,,,,,,1,,,,,,,,,,,,,,,,,,,,,,,"[""2""]",1,[3.568499999999972],0,0,0,25,1,,,,,,,,,,,,,,,,,,
,,,,,,,,,,5e04595a4fa02aefdb9c9ced,28,Kobieta,2022-06-04_08h18.26.770,task,2021.1.4,Win32,59.3753711,628b806c463b948bc644b84f,629af91444859c8d22c4ddfe,,,,,,,,,,X V Q F H G B L J M P D K C T S W R N Z,,,,,,,,,,,,,,,,,,,,,,,,,,,,,,,,,,,,,,,,,,,,,,,,,,,,,,,,,,,,,,,,,,,,,,,,,,,,3,0,3,0,1,,,,,,,,,,,,,
,,,,,,,,,,5e04595a4fa02aefdb9c9ced,28,Kobieta,2022-06-04_08h18.26.770,task,2021.1.4,Win32,59.3753711,628b806c463b948bc644b84f,629af91444859c8d22c4ddfe,,,,,,,,,,,,,,,,,,,,,,,4,,,,,,,,,,Task,28,(2x5) - 6,4,,,,,,,,,,,,,,,,,,,1,,,,,,,,,,,,,,,,,,,,,,,"[""4""]",1,[2.77020000004768],0,0,0,27,1,,,,,,,,,,,,,,,,,,
,,,,,,,,,,5e04595a4fa02aefdb9c9ced,28,Kobieta,2022-06-04_08h18.26.770,task,2021.1.4,Win32,59.3753711,628b806c463b948bc644b84f,629af91444859c8d22c4ddfe,,,,,,,,,,X V Q F H G B L J M P D K C T S W R N Z,,,,,,,,,,,,,,,,,,,,,,,,,,,,,,,,,,,,,,,,,,,,,,,,,,,,,,,,,,,,,,,,,,,,,,,,,,,,4,0,4,0,1,,,,,,,,,,,,,
,,,,,,,,,,5e04595a4fa02aefdb9c9ced,28,Kobieta,2022-06-04_08h18.26.770,task,2021.1.4,Win32,59.3753711,628b806c463b948bc644b84f,629af91444859c8d22c4ddfe,,,,,,,,,,,,,,,,,,,,,,,5,,,,,,,,,,Task,36,(8/4) + 3,5,,,,,,,,,,,,,,,,,,,1,,,,,,,,,,,,,,,,,,,,,,,"[""5""]",1,[3.766900000095461],0,0,0,35,1,,,,,,,,,,,,,,,,,,
,,,,,,,,,,5e04595a4fa02aefdb9c9ced,28,Kobieta,2022-06-04_08h18.26.770,task,2021.1.4,Win32,59.3753711,628b806c463b948bc644b84f,629af91444859c8d22c4ddfe,,,,,,,,,,X V Q F H G B L J M P D K C T S W R N Z,,,,,,,,,,,,,,,,,,,,,,,,,,,,,,,,,,,,,,,,,,,,,,,,,,,,,,,,,,,,,,,,,,,,,,,,,,,,5,0,5,0,1,,,,,,,,,,,,,
,,,,,,,,,,5e04595a4fa02aefdb9c9ced,28,Kobieta,2022-06-04_08h18.26.770,task,2021.1.4,Win32,59.3753711,628b806c463b948bc644b84f,629af91444859c8d22c4ddfe,,,,,,,,,,,,,,,,,,,,,,,,,,,,,,,,,,,,,,,,,,,,,,,,,,,,,,,,,,,,,,,,,,,,,,,,,,,,,,,,,,,,,,,,,,,qdtrc,"[""q"",""d"",""t"",""r"",""c""]",0,"[1.2983999999761409,2.335599999904616,2.562899999976139,2.8715000000000828,3.34469999992848,4.583099999904675]",0,QDTRZC,4,0,4,0,1,,
,,,,,,,,,,5e04595a4fa02aefdb9c9ced,28,Kobieta,2022-06-04_08h18.26.770,task,2021.1.4,Win32,59.3753711,628b806c463b948bc644b84f,629af91444859c8d22c4ddfe,,,,,,,,,,,,,,,,,,,,,,,0,,,,,,,,,,Task,33,(1/1) - 1,0,,,,,,,,,,,,,,,,,,,1,,,,,,,,,,,,,,,,,,,,,,,"[""0""]",1,[2.28420000004769],0,0,0,32,1,,,,,,,,,,,,,,,,,,
,,,,,,,,,,5e04595a4fa02aefdb9c9ced,28,Kobieta,2022-06-04_08h18.26.770,task,2021.1.4,Win32,59.3753711,628b806c463b948bc644b84f,629af91444859c8d22c4ddfe,,,,,,,,,,X V Q F H G B L J M P D K C T S W R N Z,,,,,,,,,,,,,,,,,,,,,,,,,,,,,,,,,,,,,,,,,,,,,,,,,,,,,,,,,,,,,,,,,,,,,,,,,,,,0,0,0,0,1,,,,,,,,,,,,,
,,,,,,,,,,5e04595a4fa02aefdb9c9ced,28,Kobieta,2022-06-04_08h18.26.770,task,2021.1.4,Win32,59.3753711,628b806c463b948bc644b84f,629af91444859c8d22c4ddfe,,,,,,,,,,,,,,,,,,,,,,,6,,,,,,,,,,Task,30,(6/3) + 4 ,6,,,,,,,,,,,,,,,,,,,1,,,,,,,,,,,,,,,,,,,,,,,"[""6""]",1,[2.868899999976179],0,0,0,29,1,,,,,,,,,,,,,,,,,,
,,,,,,,,,,5e04595a4fa02aefdb9c9ced,28,Kobieta,2022-06-04_08h18.26.770,task,2021.1.4,Win32,59.3753711,628b806c463b948bc644b84f,629af91444859c8d22c4ddfe,,,,,,,,,,X V Q F H G B L J M P D K C T S W R N Z,,,,,,,,,,,,,,,,,,,,,,,,,,,,,,,,,,,,,,,,,,,,,,,,,,,,,,,,,,,,,,,,,,,,,,,,,,,,1,0,1,0,1,,,,,,,,,,,,,
,,,,,,,,,,5e04595a4fa02aefdb9c9ced,28,Kobieta,2022-06-04_08h18.26.770,task,2021.1.4,Win32,59.3753711,628b806c463b948bc644b84f,629af91444859c8d22c4ddfe,,,,,,,,,,,,,,,,,,,,,,,1,,,,,,,,,,Task,18,(16/4) - 3,1,,,,,,,,,,,,,,,,,,,1,,,,,,,,,,,,,,,,,,,,,,,"[""1""]",1,[1.8540000000000418],0,0,0,17,1,,,,,,,,,,,,,,,,,,
,,,,,,,,,,5e04595a4fa02aefdb9c9ced,28,Kobieta,2022-06-04_08h18.26.770,task,2021.1.4,Win32,59.3753711,628b806c463b948bc644b84f,629af91444859c8d22c4ddfe,,,,,,,,,,X V Q F H G B L J M P D K C T S W R N Z,,,,,,,,,,,,,,,,,,,,,,,,,,,,,,,,,,,,,,,,,,,,,,,,,,,,,,,,,,,,,,,,,,,,,,,,,,,,2,0,2,0,1,,,,,,,,,,,,,
,,,,,,,,,,5e04595a4fa02aefdb9c9ced,28,Kobieta,2022-06-04_08h18.26.770,task,2021.1.4,Win32,59.3753711,628b806c463b948bc644b84f,629af91444859c8d22c4ddfe,,,,,,,,,,,,,,,,,,,,,,,6,,,,,,,,,,Task,13,(3x4) - 6,6,,,,,,,,,,,,,,,,,,,1,,,,,,,,,,,,,,,,,,,,,,,"[""6""]",1,[2.8282999999522644],0,0,0,12,1,,,,,,,,,,,,,,,,,,
,,,,,,,,,,5e04595a4fa02aefdb9c9ced,28,Kobieta,2022-06-04_08h18.26.770,task,2021.1.4,Win32,59.3753711,628b806c463b948bc644b84f,629af91444859c8d22c4ddfe,,,,,,,,,,X V Q F H G B L J M P D K C T S W R N Z,,,,,,,,,,,,,,,,,,,,,,,,,,,,,,,,,,,,,,,,,,,,,,,,,,,,,,,,,,,,,,,,,,,,,,,,,,,,3,0,3,0,1,,,,,,,,,,,,,
,,,,,,,,,,5e04595a4fa02aefdb9c9ced,28,Kobieta,2022-06-04_08h18.26.770,task,2021.1.4,Win32,59.3753711,628b806c463b948bc644b84f,629af91444859c8d22c4ddfe,,,,,,,,,,,,,,,,,,,,,,,1,,,,,,,,,,Task,34,(9/3) - 2,1,,,,,,,,,,,,,,,,,,,1,,,,,,,,,,,,,,,,,,,,,,,"[""1""]",1,[2.785599999904548],0,0,0,33,1,,,,,,,,,,,,,,,,,,
,,,,,,,,,,5e04595a4fa02aefdb9c9ced,28,Kobieta,2022-06-04_08h18.26.770,task,2021.1.4,Win32,59.3753711,628b806c463b948bc644b84f,629af91444859c8d22c4ddfe,,,,,,,,,,X V Q F H G B L J M P D K C T S W R N Z,,,,,,,,,,,,,,,,,,,,,,,,,,,,,,,,,,,,,,,,,,,,,,,,,,,,,,,,,,,,,,,,,,,,,,,,,,,,4,0,4,0,1,,,,,,,,,,,,,
,,,,,,,,,,5e04595a4fa02aefdb9c9ced,28,Kobieta,2022-06-04_08h18.26.770,task,2021.1.4,Win32,59.3753711,628b806c463b948bc644b84f,629af91444859c8d22c4ddfe,,,,,,,,,,,,,,,,,,,,,,,5,,,,,,,,,,Task,29,(3x8) - 19 ,5,,,,,,,,,,,,,,,,,,,1,,,,,,,,,,,,,,,,,,,,,,,"[""5""]",1,[3.078700000047661],0,0,0,28,1,,,,,,,,,,,,,,,,,,
,,,,,,,,,,5e04595a4fa02aefdb9c9ced,28,Kobieta,2022-06-04_08h18.26.770,task,2021.1.4,Win32,59.3753711,628b806c463b948bc644b84f,629af91444859c8d22c4ddfe,,,,,,,,,,X V Q F H G B L J M P D K C T S W R N Z,,,,,,,,,,,,,,,,,,,,,,,,,,,,,,,,,,,,,,,,,,,,,,,,,,,,,,,,,,,,,,,,,,,,,,,,,,,,5,0,5,0,1,,,,,,,,,,,,,
,,,,,,,,,,5e04595a4fa02aefdb9c9ced,28,Kobieta,2022-06-04_08h18.26.770,task,2021.1.4,Win32,59.3753711,628b806c463b948bc644b84f,629af91444859c8d22c4ddfe,,,,,,,,,,,,,,,,,,,,,,,,,,,,,,,,,,,,,,,,,,,,,,,,,,,,,,,,,,,,,,,,,,,,,,,,,,,,,,,,,,,,,,,,,,,wsbwjc,"[""w"",""s"",""b"",""w"",""j"",""c""]",0,"[1.429300000071521,1.6168999999761127,1.985600000023851,2.2892000000476855,2.6413999999761018,2.9850000000000136,5.013300000071467]",1,WSBWJC,5,0,5,0,1,,
,,,,,,,,,,5e04595a4fa02aefdb9c9ced,28,Kobieta,2022-06-04_08h18.26.770,task,2021.1.4,Win32,59.3753711,628b806c463b948bc644b84f,629af91444859c8d22c4ddfe,,,,,,,,,,,,,,,,,,,,,,,5,,,,,,,,,,Task,12,(4x4) - 11,5,,,,,,,,,,,,,,,,,,,1,,,,,,,,,,,,,,,,,,,,,,,"[""5""]",1,[2.415199999928518],0,0,0,11,1,,,,,,,,,,,,,,,,,,
,,,,,,,,,,5e04595a4fa02aefdb9c9ced,28,Kobieta,2022-06-04_08h18.26.770,task,2021.1.4,Win32,59.3753711,628b806c463b948bc644b84f,629af91444859c8d22c4ddfe,,,,,,,,,,X V Q F H G B L J M P D K C T S W R N Z,,,,,,,,,,,,,,,,,,,,,,,,,,,,,,,,,,,,,,,,,,,,,,,,,,,,,,,,,,,,,,,,,,,,,,,,,,,,0,0,0,0,1,,,,,,,,,,,,,
,,,,,,,,,,5e04595a4fa02aefdb9c9ced,28,Kobieta,2022-06-04_08h18.26.770,task,2021.1.4,Win32,59.3753711,628b806c463b948bc644b84f,629af91444859c8d22c4ddfe,,,,,,,,,,,,,,,,,,,,,,,2,,,,,,,,,,Task,19,(6/2) - 1,2,,,,,,,,,,,,,,,,,,,1,,,,,,,,,,,,,,,,,,,,,,,"[""2""]",1,[2.047100000023761],0,0,0,18,1,,,,,,,,,,,,,,,,,,
,,,,,,,,,,5e04595a4fa02aefdb9c9ced,28,Kobieta,2022-06-04_08h18.26.770,task,2021.1.4,Win32,59.3753711,628b806c463b948bc644b84f,629af91444859c8d22c4ddfe,,,,,,,,,,X V Q F H G B L J M P D K C T S W R N Z,,,,,,,,,,,,,,,,,,,,,,,,,,,,,,,,,,,,,,,,,,,,,,,,,,,,,,,,,,,,,,,,,,,,,,,,,,,,1,0,1,0,1,,,,,,,,,,,,,
,,,,,,,,,,5e04595a4fa02aefdb9c9ced,28,Kobieta,2022-06-04_08h18.26.770,task,2021.1.4,Win32,59.3753711,628b806c463b948bc644b84f,629af91444859c8d22c4ddfe,,,,,,,,,,,,,,,,,,,,,,,5,,,,,,,,,,Task,29,(3x8) - 19 ,5,,,,,,,,,,,,,,,,,,,1,,,,,,,,,,,,,,,,,,,,,,,"[""5""]",1,[2.344800000071473],0,0,0,28,1,,,,,,,,,,,,,,,,,,
,,,,,,,,,,5e04595a4fa02aefdb9c9ced,28,Kobieta,2022-06-04_08h18.26.770,task,2021.1.4,Win32,59.3753711,628b806c463b948bc644b84f,629af91444859c8d22c4ddfe,,,,,,,,,,X V Q F H G B L J M P D K C T S W R N Z,,,,,,,,,,,,,,,,,,,,,,,,,,,,,,,,,,,,,,,,,,,,,,,,,,,,,,,,,,,,,,,,,,,,,,,,,,,,2,0,2,0,1,,,,,,,,,,,,,
,,,,,,,,,,5e04595a4fa02aefdb9c9ced,28,Kobieta,2022-06-04_08h18.26.770,task,2021.1.4,Win32,59.3753711,628b806c463b948bc644b84f,629af91444859c8d22c4ddfe,,,,,,,,,,,,,,,,,,,,,,,7,,,,,,,,,,Task,31,(4/2) + 5,7,,,,,,,,,,,,,,,,,,,1,,,,,,,,,,,,,,,,,,,,,,,"[""7""]",1,[2.536600000023782],0,0,0,30,1,,,,,,,,,,,,,,,,,,
,,,,,,,,,,5e04595a4fa02aefdb9c9ced,28,Kobieta,2022-06-04_08h18.26.770,task,2021.1.4,Win32,59.3753711,628b806c463b948bc644b84f,629af91444859c8d22c4ddfe,,,,,,,,,,X V Q F H G B L J M P D K C T S W R N Z,,,,,,,,,,,,,,,,,,,,,,,,,,,,,,,,,,,,,,,,,,,,,,,,,,,,,,,,,,,,,,,,,,,,,,,,,,,,3,0,3,0,1,,,,,,,,,,,,,
,,,,,,,,,,5e04595a4fa02aefdb9c9ced,28,Kobieta,2022-06-04_08h18.26.770,task,2021.1.4,Win32,59.3753711,628b806c463b948bc644b84f,629af91444859c8d22c4ddfe,,,,,,,,,,,,,,,,,,,,,,,9,,,,,,,,,,Task,24,(2x2) + 5,9,,,,,,,,,,,,,,,,,,,1,,,,,,,,,,,,,,,,,,,,,,,"[""9""]",1,[2.1983000000715265],0,0,0,23,1,,,,,,,,,,,,,,,,,,
,,,,,,,,,,5e04595a4fa02aefdb9c9ced,28,Kobieta,2022-06-04_08h18.26.770,task,2021.1.4,Win32,59.3753711,628b806c463b948bc644b84f,629af91444859c8d22c4ddfe,,,,,,,,,,X V Q F H G B L J M P D K C T S W R N Z,,,,,,,,,,,,,,,,,,,,,,,,,,,,,,,,,,,,,,,,,,,,,,,,,,,,,,,,,,,,,,,,,,,,,,,,,,,,4,0,4,0,1,,,,,,,,,,,,,
,,,,,,,,,,5e04595a4fa02aefdb9c9ced,28,Kobieta,2022-06-04_08h18.26.770,task,2021.1.4,Win32,59.3753711,628b806c463b948bc644b84f,629af91444859c8d22c4ddfe,,,,,,,,,,,,,,,,,,,,,,,7,,,,,,,,,,Task,14,(2x2) + 3,7,,,,,,,,,,,,,,,,,,,1,,,,,,,,,,,,,,,,,,,,,,,"[""7""]",1,[2.934100000023818],0,0,0,13,1,,,,,,,,,,,,,,,,,,
,,,,,,,,,,5e04595a4fa02aefdb9c9ced,28,Kobieta,2022-06-04_08h18.26.770,task,2021.1.4,Win32,59.3753711,628b806c463b948bc644b84f,629af91444859c8d22c4ddfe,,,,,,,,,,X V Q F H G B L J M P D K C T S W R N Z,,,,,,,,,,,,,,,,,,,,,,,,,,,,,,,,,,,,,,,,,,,,,,,,,,,,,,,,,,,,,,,,,,,,,,,,,,,,5,0,5,0,1,,,,,,,,,,,,,
,,,,,,,,,,5e04595a4fa02aefdb9c9ced,28,Kobieta,2022-06-04_08h18.26.770,task,2021.1.4,Win32,59.3753711,628b806c463b948bc644b84f,629af91444859c8d22c4ddfe,,,,,,,,,,,,,,,,,,,,,,,2,,,,,,,,,,Task,10,(2x5) - 8,2,,,,,,,,,,,,,,,,,,,1,,,,,,,,,,,,,,,,,,,,,,,"[""2""]",1,[3.564299999952368],0,0,0,9,1,,,,,,,,,,,,,,,,,,
,,,,,,,,,,5e04595a4fa02aefdb9c9ced,28,Kobieta,2022-06-04_08h18.26.770,task,2021.1.4,Win32,59.3753711,628b806c463b948bc644b84f,629af91444859c8d22c4ddfe,,,,,,,,,,X V Q F H G B L J M P D K C T S W R N Z,,,,,,,,,,,,,,,,,,,,,,,,,,,,,,,,,,,,,,,,,,,,,,,,,,,,,,,,,,,,,,,,,,,,,,,,,,,,6,0,6,0,1,,,,,,,,,,,,,
,,,,,,,,,,5e04595a4fa02aefdb9c9ced,28,Kobieta,2022-06-04_08h18.26.770,task,2021.1.4,Win32,59.3753711,628b806c463b948bc644b84f,629af91444859c8d22c4ddfe,,,,,,,,,,,,,,,,,,,,,,,,,,,,,,,,,,,,,,,,,,,,,,,,,,,,,,,,,,,,,,,,,,,,,,,,,,,,,,,,,,,,,,,,,,,wbjbdhj,"[""w"",""b"",""j"",""b"",""d"",""h"",""j""]",0,"[1.0883999999761045,1.3168999999761581,1.8328999999761209,3.0733000000715265,3.4484999999999673,4.0252000000476755,4.34439999997619,5.334300000071494]",0,BWJBDHJ,6,0,6,0,1,,
,,,,,,,,,,5e04595a4fa02aefdb9c9ced,28,Kobieta,2022-06-04_08h18.26.770,task,2021.1.4,Win32,59.3753711,628b806c463b948bc644b84f,629af91444859c8d22c4ddfe,,,,,,,,,,,,,,,,,,,,,,,8,,,,,,,,,,Task,32,(8/2) + 4,8,,,,,,,,,,,,,,,,,,,1,,,,,,,,,,,,,,,,,,,,,,,"[""8""]",1,[2.3850000000001046],0,0,0,31,1,,,,,,,,,,,,,,,,,,
,,,,,,,,,,5e04595a4fa02aefdb9c9ced,28,Kobieta,2022-06-04_08h18.26.770,task,2021.1.4,Win32,59.3753711,628b806c463b948bc644b84f,629af91444859c8d22c4ddfe,,,,,,,,,,X V Q F H G B L J M P D K C T S W R N Z,,,,,,,,,,,,,,,,,,,,,,,,,,,,,,,,,,,,,,,,,,,,,,,,,,,,,,,,,,,,,,,,,,,,,,,,,,,,0,0,0,0,1,,,,,,,,,,,,,
,,,,,,,,,,5e04595a4fa02aefdb9c9ced,28,Kobieta,2022-06-04_08h18.26.770,task,2021.1.4,Win32,59.3753711,628b806c463b948bc644b84f,629af91444859c8d22c4ddfe,,,,,,,,,,,,,,,,,,,,,,,4,,,,,,,,,,Task,21,(10/2) - 1,4,,,,,,,,,,,,,,,,,,,1,,,,,,,,,,,,,,,,,,,,,,,"[""4""]",1,[2.102700000047662],0,0,0,20,1,,,,,,,,,,,,,,,,,,
,,,,,,,,,,5e04595a4fa02aefdb9c9ced,28,Kobieta,2022-06-04_08h18.26.770,task,2021.1.4,Win32,59.3753711,628b806c463b948bc644b84f,629af91444859c8d22c4ddfe,,,,,,,,,,X V Q F H G B L J M P D K C T S W R N Z,,,,,,,,,,,,,,,,,,,,,,,,,,,,,,,,,,,,,,,,,,,,,,,,,,,,,,,,,,,,,,,,,,,,,,,,,,,,1,0,1,0,1,,,,,,,,,,,,,
,,,,,,,,,,5e04595a4fa02aefdb9c9ced,28,Kobieta,2022-06-04_08h18.26.770,task,2021.1.4,Win32,59.3753711,628b806c463b948bc644b84f,629af91444859c8d22c4ddfe,,,,,,,,,,,,,,,,,,,,,,,3,,,,,,,,,,Task,20,(18/9) + 1,3,,,,,,,,,,,,,,,,,,,1,,,,,,,,,,,,,,,,,,,,,,,"[""3""]",1,[1.8714000000953774],0,0,0,19,1,,,,,,,,,,,,,,,,,,
,,,,,,,,,,5e04595a4fa02aefdb9c9ced,28,Kobieta,2022-06-04_08h18.26.770,task,2021.1.4,Win32,59.3753711,628b806c463b948bc644b84f,629af91444859c8d22c4ddfe,,,,,,,,,,X V Q F H G B L J M P D K C T S W R N Z,,,,,,,,,,,,,,,,,,,,,,,,,,,,,,,,,,,,,,,,,,,,,,,,,,,,,,,,,,,,,,,,,,,,,,,,,,,,2,0,2,0,1,,,,,,,,,,,,,
,,,,,,,,,,5e04595a4fa02aefdb9c9ced,28,Kobieta,2022-06-04_08h18.26.770,task,2021.1.4,Win32,59.3753711,628b806c463b948bc644b84f,629af91444859c8d22c4ddfe,,,,,,,,,,,,,,,,,,,,,,,2,,,,,,,,,,Task,29,(3x8) - 19 ,5,,,,,,,,,,,,,,,,,,,0,,,,,,,,,,,,,,,,,,,,,,,"[""2""]",0,[3.1898999999760917],0,0,0,28,1,,,,,,,,,,,,,,,,,,
,,,,,,,,,,5e04595a4fa02aefdb9c9ced,28,Kobieta,2022-06-04_08h18.26.770,task,2021.1.4,Win32,59.3753711,628b806c463b948bc644b84f,629af91444859c8d22c4ddfe,,,,,,,,,,,,,,,,,,,,,,,0,,,,,,,,,,Task,33,(1/1) - 1,0,,,,,,,,,,,,,,,,,,,1,,,,,,,,,,,,,,,,,,,,,,,"[""0""]",1,[2.066899999976158],0,1,1,32,1,,,,,,,,,,,,,,,,,,
,,,,,,,,,,5e04595a4fa02aefdb9c9ced,28,Kobieta,2022-06-04_08h18.26.770,task,2021.1.4,Win32,59.3753711,628b806c463b948bc644b84f,629af91444859c8d22c4ddfe,,,,,,,,,,X V Q F H G B L J M P D K C T S W R N Z,,,,,,,,,,,,,,,,,,,,,,,,,,,,,,,,,,,,,,,,,,,,,,,,,,,,,,,,,,,,,,,,,,,,,,,,,,,,3,0,3,0,1,,,,,,,,,,,,,
,,,,,,,,,,5e04595a4fa02aefdb9c9ced,28,Kobieta,2022-06-04_08h18.26.770,task,2021.1.4,Win32,59.3753711,628b806c463b948bc644b84f,629af91444859c8d22c4ddfe,,,,,,,,,,,,,,,,,,,,,,,8,,,,,,,,,,Task,23,(2x3) + 2,8,,,,,,,,,,,,,,,,,,,1,,,,,,,,,,,,,,,,,,,,,,,"[""8""]",1,[2.18070000004775],0,0,0,22,1,,,,,,,,,,,,,,,,,,
,,,,,,,,,,5e04595a4fa02aefdb9c9ced,28,Kobieta,2022-06-04_08h18.26.770,task,2021.1.4,Win32,59.3753711,628b806c463b948bc644b84f,629af91444859c8d22c4ddfe,,,,,,,,,,X V Q F H G B L J M P D K C T S W R N Z,,,,,,,,,,,,,,,,,,,,,,,,,,,,,,,,,,,,,,,,,,,,,,,,,,,,,,,,,,,,,,,,,,,,,,,,,,,,4,0,4,0,1,,,,,,,,,,,,,
,,,,,,,,,,5e04595a4fa02aefdb9c9ced,28,Kobieta,2022-06-04_08h18.26.770,task,2021.1.4,Win32,59.3753711,628b806c463b948bc644b84f,629af91444859c8d22c4ddfe,,,,,,,,,,,,,,,,,,,,,,,9,,,,,,,,,,Task,16,(3x8) - 15,9,,,,,,,,,,,,,,,,,,,1,,,,,,,,,,,,,,,,,,,,,,,"[""9""]",1,[3.817400000095404],0,0,0,15,1,,,,,,,,,,,,,,,,,,
,,,,,,,,,,5e04595a4fa02aefdb9c9ced,28,Kobieta,2022-06-04_08h18.26.770,task,2021.1.4,Win32,59.3753711,628b806c463b948bc644b84f,629af91444859c8d22c4ddfe,,,,,,,,,,X V Q F H G B L J M P D K C T S W R N Z,,,,,,,,,,,,,,,,,,,,,,,,,,,,,,,,,,,,,,,,,,,,,,,,,,,,,,,,,,,,,,,,,,,,,,,,,,,,5,0,5,0,1,,,,,,,,,,,,,
,,,,,,,,,,5e04595a4fa02aefdb9c9ced,28,Kobieta,2022-06-04_08h18.26.770,task,2021.1.4,Win32,59.3753711,628b806c463b948bc644b84f,629af91444859c8d22c4ddfe,,,,,,,,,,,,,,,,,,,,,,,6,,,,,,,,,,Task,30,(6/3) + 4 ,6,,,,,,,,,,,,,,,,,,,1,,,,,,,,,,,,,,,,,,,,,,,"[""6""]",1,[2.868000000000052],0,0,0,29,1,,,,,,,,,,,,,,,,,,
,,,,,,,,,,5e04595a4fa02aefdb9c9ced,28,Kobieta,2022-06-04_08h18.26.770,task,2021.1.4,Win32,59.3753711,628b806c463b948bc644b84f,629af91444859c8d22c4ddfe,,,,,,,,,,X V Q F H G B L J M P D K C T S W R N Z,,,,,,,,,,,,,,,,,,,,,,,,,,,,,,,,,,,,,,,,,,,,,,,,,,,,,,,,,,,,,,,,,,,,,,,,,,,,6,0,6,0,1,,,,,,,,,,,,,
,,,,,,,,,,5e04595a4fa02aefdb9c9ced,28,Kobieta,2022-06-04_08h18.26.770,task,2021.1.4,Win32,59.3753711,628b806c463b948bc644b84f,629af91444859c8d22c4ddfe,,,,,,,,,,,,,,,,,,,,,,,,,,,,,,,,,,,,,,,,,,,,,,,,,,,,,,,,,,,,,,,,,,,,,,,,,,,,,,,,,,,,,,,,,,,hnhhjkv,"[""h"",""n"",""h"",""h"",""j"",""k"",""v""]",0,"[1.722899999976221,2.0031999999284835,2.6346999999284435,3.0661999999284717,3.532000000000039,4.082100000023843,4.4262999999523345,5.170100000023808]",0,HNNHHKV,7,0,7,0,1,,
,,,,,,,,,,5e04595a4fa02aefdb9c9ced,28,Kobieta,2022-06-04_08h18.26.770,task,2021.1.4,Win32,59.3753711,628b806c463b948bc644b84f,629af91444859c8d22c4ddfe,,,,,,,,,,,,,,,,,,,,,,,,,,,,,,,,,,,,,,,,,,,,,,,,,,,,,,,,,,,,,,,,,,,,,,,,,,,,,,,,,,,,,,,,,,,,,,,,,,,,,,space,2.0576
