key_resp_15.keys,key_resp_15.rt,key_resp_16.keys,key_resp_16.rt,key_resp_4.keys,key_resp_4.rt,next_letter.thisRepN,next_letter.thisTrialN,next_letter.thisN,next_letter.thisIndex,next_letter.ran,letter,participant,Wiek*,Płeć,date,expName,psychopyVersion,OS,frameRate,study_id,session,simple_recall,key_resp_5.keys,key_resp_5.rt,simple_recall_corr,simple_recall_corrkeys,next_level.thisRepN,next_level.thisTrialN,next_level.thisN,next_level.thisIndex,next_level.ran,key_resp_2.keys,key_resp_2.rt,digit_answer,key_resp.keys,key_resp.corr,key_resp.rt,RT_list,next_equation.thisRepN,next_equation.thisTrialN,next_equation.thisN,next_equation.thisIndex,next_equation.ran,Task,Trial,Problem,Operation_answer,processing_score,sumRT,meanRT,sumdiff,sd,RT,key_resp_3.keys,key_resp_3.rt,repeat_practice.thisRepN,repeat_practice.thisTrialN,repeat_practice.thisN,repeat_practice.thisIndex,repeat_practice.ran,key_resp_6.keys,key_resp_6.rt,key_resp_11.keys,key_resp_11.corr,key_resp_11.rt,operation_correct,repeat_if_wrong_prac.thisRepN,repeat_if_wrong_prac.thisTrialN,repeat_if_wrong_prac.thisN,repeat_if_wrong_prac.thisIndex,repeat_if_wrong_prac.ran,span_size_prac.thisRepN,span_size_prac.thisTrialN,span_size_prac.thisN,span_size_prac.thisIndex,span_size_prac.ran,complex_recall_practice,key_resp_9.keys,key_resp_9.corr,key_resp_9.rt,complex_prac_corr,span_recall_prac.thisRepN,span_recall_prac.thisTrialN,span_recall_prac.thisN,span_recall_prac.thisIndex,span_recall_prac.ran,key_resp_10.keys,key_resp_10.rt,key_resp_7.keys,key_resp_7.corr,key_resp_7.rt,repeat_if_wrong.thisRepN,repeat_if_wrong.thisTrialN,repeat_if_wrong.thisN,repeat_if_wrong.thisIndex,repeat_if_wrong.ran,span_size.thisRepN,span_size.thisTrialN,span_size.thisN,span_size.thisIndex,span_size.ran,complex_recall,key_resp_8.keys,key_resp_8.corr,key_resp_8.rt,complex_recall_corr,complex_recall_corrkeys,span_recall.thisRepN,span_recall.thisTrialN,span_recall.thisN,span_recall.thisIndex,span_recall.ran,key_resp_13.keys,key_resp_13.corr,key_resp_13.rt,random_loop.thisRepN,random_loop.thisTrialN,random_loop.thisN,random_loop.thisIndex,random_loop.ran,key_resp_12.keys,key_resp_12.rt
space,10.855,space,6.925,space,7.1191,0,0,0,0,1,X V Q F H G B L J M P D K C T S W R N Z,5e1647f6f52510000a7389b6,37,Mężczyzna,2022-06-11_09h11.42.432,task,2021.1.4,Win32,60.23370678,6299f149e92ead563fba08ef,62a4401eb39d04abc39ed1c6,,,,,,,,,,,,,,,,,,,,,,,,,,,,,,,,,,,,,,,,,,,,,,,,,,,,,,,,,,,,,,,,,,,,,,,,,,,,,,,,,,,,,,,,,,,,,,,,,,,,,
,,,,,,1,0,1,0,1,X V Q F H G B L J M P D K C T S W R N Z,5e1647f6f52510000a7389b6,37,Mężczyzna,2022-06-11_09h11.42.432,task,2021.1.4,Win32,60.23370678,6299f149e92ead563fba08ef,62a4401eb39d04abc39ed1c6,,,,,,,,,,,,,,,,,,,,,,,,,,,,,,,,,,,,,,,,,,,,,,,,,,,,,,,,,,,,,,,,,,,,,,,,,,,,,,,,,,,,,,,,,,,,,,,,,,,,,
,,,,,,,,,,,,5e1647f6f52510000a7389b6,37,Mężczyzna,2022-06-11_09h11.42.432,task,2021.1.4,Win32,60.23370678,6299f149e92ead563fba08ef,62a4401eb39d04abc39ed1c6,zp,"[""z"",""p""]","[2.254700000286107,3.3067000002861064,4.6791000003814744]",1,ZP,0,0,0,0,1,,,,,,,,,,,,,,,,,,,,,,,,,,,,,,,,,,,,,,,,,,,,,,,,,,,,,,,,,,,,,,,,,,,,,,,,,,,,,,,,,,,,,,,,,,,
,,,,,,0,0,0,0,1,X V Q F H G B L J M P D K C T S W R N Z,5e1647f6f52510000a7389b6,37,Mężczyzna,2022-06-11_09h11.42.432,task,2021.1.4,Win32,60.23370678,6299f149e92ead563fba08ef,62a4401eb39d04abc39ed1c6,,,,,,,,,,,,,,,,,,,,,,,,,,,,,,,,,,,,,,,,,,,,,,,,,,,,,,,,,,,,,,,,,,,,,,,,,,,,,,,,,,,,,,,,,,,,,,,,,,,,,
,,,,,,1,0,1,0,1,X V Q F H G B L J M P D K C T S W R N Z,5e1647f6f52510000a7389b6,37,Mężczyzna,2022-06-11_09h11.42.432,task,2021.1.4,Win32,60.23370678,6299f149e92ead563fba08ef,62a4401eb39d04abc39ed1c6,,,,,,,,,,,,,,,,,,,,,,,,,,,,,,,,,,,,,,,,,,,,,,,,,,,,,,,,,,,,,,,,,,,,,,,,,,,,,,,,,,,,,,,,,,,,,,,,,,,,,
,,,,,,,,,,,,5e1647f6f52510000a7389b6,37,Mężczyzna,2022-06-11_09h11.42.432,task,2021.1.4,Win32,60.23370678,6299f149e92ead563fba08ef,62a4401eb39d04abc39ed1c6,tb,"[""t"",""b""]","[1.8523000001907377,2.1215000000000046,2.8718000001907384]",1,TB,1,0,1,0,1,,,,,,,,,,,,,,,,,,,,,,,,,,,,,,,,,,,,,,,,,,,,,,,,,,,,,,,,,,,,,,,,,,,,,,,,,,,,,,,,,,,,,,,,,,,
,,,,,,0,0,0,0,1,X V Q F H G B L J M P D K C T S W R N Z,5e1647f6f52510000a7389b6,37,Mężczyzna,2022-06-11_09h11.42.432,task,2021.1.4,Win32,60.23370678,6299f149e92ead563fba08ef,62a4401eb39d04abc39ed1c6,,,,,,,,,,,,,,,,,,,,,,,,,,,,,,,,,,,,,,,,,,,,,,,,,,,,,,,,,,,,,,,,,,,,,,,,,,,,,,,,,,,,,,,,,,,,,,,,,,,,,
,,,,,,1,0,1,0,1,X V Q F H G B L J M P D K C T S W R N Z,5e1647f6f52510000a7389b6,37,Mężczyzna,2022-06-11_09h11.42.432,task,2021.1.4,Win32,60.23370678,6299f149e92ead563fba08ef,62a4401eb39d04abc39ed1c6,,,,,,,,,,,,,,,,,,,,,,,,,,,,,,,,,,,,,,,,,,,,,,,,,,,,,,,,,,,,,,,,,,,,,,,,,,,,,,,,,,,,,,,,,,,,,,,,,,,,,
,,,,,,2,0,2,0,1,X V Q F H G B L J M P D K C T S W R N Z,5e1647f6f52510000a7389b6,37,Mężczyzna,2022-06-11_09h11.42.432,task,2021.1.4,Win32,60.23370678,6299f149e92ead563fba08ef,62a4401eb39d04abc39ed1c6,,,,,,,,,,,,,,,,,,,,,,,,,,,,,,,,,,,,,,,,,,,,,,,,,,,,,,,,,,,,,,,,,,,,,,,,,,,,,,,,,,,,,,,,,,,,,,,,,,,,,
,,,,,,,,,,,,5e1647f6f52510000a7389b6,37,Mężczyzna,2022-06-11_09h11.42.432,task,2021.1.4,Win32,60.23370678,6299f149e92ead563fba08ef,62a4401eb39d04abc39ed1c6,gdh,"[""g"",""d"",""h""]","[1.2051000003814636,1.7523000001907292,2.2199000000953646,3.1732000002861014]",1,GDH,2,0,2,0,1,,,,,,,,,,,,,,,,,,,,,,,,,,,,,,,,,,,,,,,,,,,,,,,,,,,,,,,,,,,,,,,,,,,,,,,,,,,,,,,,,,,,,,,,,,,
,,,,,,0,0,0,0,1,X V Q F H G B L J M P D K C T S W R N Z,5e1647f6f52510000a7389b6,37,Mężczyzna,2022-06-11_09h11.42.432,task,2021.1.4,Win32,60.23370678,6299f149e92ead563fba08ef,62a4401eb39d04abc39ed1c6,,,,,,,,,,,,,,,,,,,,,,,,,,,,,,,,,,,,,,,,,,,,,,,,,,,,,,,,,,,,,,,,,,,,,,,,,,,,,,,,,,,,,,,,,,,,,,,,,,,,,
,,,,,,1,0,1,0,1,X V Q F H G B L J M P D K C T S W R N Z,5e1647f6f52510000a7389b6,37,Mężczyzna,2022-06-11_09h11.42.432,task,2021.1.4,Win32,60.23370678,6299f149e92ead563fba08ef,62a4401eb39d04abc39ed1c6,,,,,,,,,,,,,,,,,,,,,,,,,,,,,,,,,,,,,,,,,,,,,,,,,,,,,,,,,,,,,,,,,,,,,,,,,,,,,,,,,,,,,,,,,,,,,,,,,,,,,
,,,,,,2,0,2,0,1,X V Q F H G B L J M P D K C T S W R N Z,5e1647f6f52510000a7389b6,37,Mężczyzna,2022-06-11_09h11.42.432,task,2021.1.4,Win32,60.23370678,6299f149e92ead563fba08ef,62a4401eb39d04abc39ed1c6,,,,,,,,,,,,,,,,,,,,,,,,,,,,,,,,,,,,,,,,,,,,,,,,,,,,,,,,,,,,,,,,,,,,,,,,,,,,,,,,,,,,,,,,,,,,,,,,,,,,,
,,,,,,,,,,,,5e1647f6f52510000a7389b6,37,Mężczyzna,2022-06-11_09h11.42.432,task,2021.1.4,Win32,60.23370678,6299f149e92ead563fba08ef,62a4401eb39d04abc39ed1c6,xrq,"[""x"",""r"",""q""]","[0.5687000002860998,0.8515000000000015,2.102400000095372,3.101300000190726]",1,XRQ,3,0,3,0,1,,,,,,,,,,,,,,,,,,,,,,,,,,,,,,,,,,,,,,,,,,,,,,,,,,,,,,,,,,,,,,,,,,,,,,,,,,,,,,,,,,,,,,,,,,,
,,,,,,0,0,0,0,1,X V Q F H G B L J M P D K C T S W R N Z,5e1647f6f52510000a7389b6,37,Mężczyzna,2022-06-11_09h11.42.432,task,2021.1.4,Win32,60.23370678,6299f149e92ead563fba08ef,62a4401eb39d04abc39ed1c6,,,,,,,,,,,,,,,,,,,,,,,,,,,,,,,,,,,,,,,,,,,,,,,,,,,,,,,,,,,,,,,,,,,,,,,,,,,,,,,,,,,,,,,,,,,,,,,,,,,,,
,,,,,,1,0,1,0,1,X V Q F H G B L J M P D K C T S W R N Z,5e1647f6f52510000a7389b6,37,Mężczyzna,2022-06-11_09h11.42.432,task,2021.1.4,Win32,60.23370678,6299f149e92ead563fba08ef,62a4401eb39d04abc39ed1c6,,,,,,,,,,,,,,,,,,,,,,,,,,,,,,,,,,,,,,,,,,,,,,,,,,,,,,,,,,,,,,,,,,,,,,,,,,,,,,,,,,,,,,,,,,,,,,,,,,,,,
,,,,,,2,0,2,0,1,X V Q F H G B L J M P D K C T S W R N Z,5e1647f6f52510000a7389b6,37,Mężczyzna,2022-06-11_09h11.42.432,task,2021.1.4,Win32,60.23370678,6299f149e92ead563fba08ef,62a4401eb39d04abc39ed1c6,,,,,,,,,,,,,,,,,,,,,,,,,,,,,,,,,,,,,,,,,,,,,,,,,,,,,,,,,,,,,,,,,,,,,,,,,,,,,,,,,,,,,,,,,,,,,,,,,,,,,
,,,,,,3,0,3,0,1,X V Q F H G B L J M P D K C T S W R N Z,5e1647f6f52510000a7389b6,37,Mężczyzna,2022-06-11_09h11.42.432,task,2021.1.4,Win32,60.23370678,6299f149e92ead563fba08ef,62a4401eb39d04abc39ed1c6,,,,,,,,,,,,,,,,,,,,,,,,,,,,,,,,,,,,,,,,,,,,,,,,,,,,,,,,,,,,,,,,,,,,,,,,,,,,,,,,,,,,,,,,,,,,,,,,,,,,,
,,,,,,,,,,,,5e1647f6f52510000a7389b6,37,Mężczyzna,2022-06-11_09h11.42.432,task,2021.1.4,Win32,60.23370678,6299f149e92ead563fba08ef,62a4401eb39d04abc39ed1c6,rjnj,"[""r"",""j"",""n"",""j""]","[1.0480999999046219,1.465300000190723,1.7485999999046271,2.1817000002860993,2.8977000002860933]",1,RJNJ,4,0,4,0,1,,,,,,,,,,,,,,,,,,,,,,,,,,,,,,,,,,,,,,,,,,,,,,,,,,,,,,,,,,,,,,,,,,,,,,,,,,,,,,,,,,,,,,,,,,,
,,,,,,0,0,0,0,1,X V Q F H G B L J M P D K C T S W R N Z,5e1647f6f52510000a7389b6,37,Mężczyzna,2022-06-11_09h11.42.432,task,2021.1.4,Win32,60.23370678,6299f149e92ead563fba08ef,62a4401eb39d04abc39ed1c6,,,,,,,,,,,,,,,,,,,,,,,,,,,,,,,,,,,,,,,,,,,,,,,,,,,,,,,,,,,,,,,,,,,,,,,,,,,,,,,,,,,,,,,,,,,,,,,,,,,,,
,,,,,,1,0,1,0,1,X V Q F H G B L J M P D K C T S W R N Z,5e1647f6f52510000a7389b6,37,Mężczyzna,2022-06-11_09h11.42.432,task,2021.1.4,Win32,60.23370678,6299f149e92ead563fba08ef,62a4401eb39d04abc39ed1c6,,,,,,,,,,,,,,,,,,,,,,,,,,,,,,,,,,,,,,,,,,,,,,,,,,,,,,,,,,,,,,,,,,,,,,,,,,,,,,,,,,,,,,,,,,,,,,,,,,,,,
,,,,,,2,0,2,0,1,X V Q F H G B L J M P D K C T S W R N Z,5e1647f6f52510000a7389b6,37,Mężczyzna,2022-06-11_09h11.42.432,task,2021.1.4,Win32,60.23370678,6299f149e92ead563fba08ef,62a4401eb39d04abc39ed1c6,,,,,,,,,,,,,,,,,,,,,,,,,,,,,,,,,,,,,,,,,,,,,,,,,,,,,,,,,,,,,,,,,,,,,,,,,,,,,,,,,,,,,,,,,,,,,,,,,,,,,
,,,,,,3,0,3,0,1,X V Q F H G B L J M P D K C T S W R N Z,5e1647f6f52510000a7389b6,37,Mężczyzna,2022-06-11_09h11.42.432,task,2021.1.4,Win32,60.23370678,6299f149e92ead563fba08ef,62a4401eb39d04abc39ed1c6,,,,,,,,,,,,,,,,,,,,,,,,,,,,,,,,,,,,,,,,,,,,,,,,,,,,,,,,,,,,,,,,,,,,,,,,,,,,,,,,,,,,,,,,,,,,,,,,,,,,,
,,,,,,,,,,,,5e1647f6f52510000a7389b6,37,Mężczyzna,2022-06-11_09h11.42.432,task,2021.1.4,Win32,60.23370678,6299f149e92ead563fba08ef,62a4401eb39d04abc39ed1c6,jbpk,"[""j"",""b"",""p"",""k""]","[1.3522999997138925,1.6850999999046365,2.201899999618533,2.6517999997139015,3.3677999997138954]",1,JBPK,5,0,5,0,1,,,,,,,,,,,,,,,,,,,,,,,,,,,,,,,,,,,,,,,,,,,,,,,,,,,,,,,,,,,,,,,,,,,,,,,,,,,,,,,,,,,,,,,,,,,
,,,,,,0,0,0,0,1,X V Q F H G B L J M P D K C T S W R N Z,5e1647f6f52510000a7389b6,37,Mężczyzna,2022-06-11_09h11.42.432,task,2021.1.4,Win32,60.23370678,6299f149e92ead563fba08ef,62a4401eb39d04abc39ed1c6,,,,,,,,,,,,,,,,,,,,,,,,,,,,,,,,,,,,,,,,,,,,,,,,,,,,,,,,,,,,,,,,,,,,,,,,,,,,,,,,,,,,,,,,,,,,,,,,,,,,,
,,,,,,1,0,1,0,1,X V Q F H G B L J M P D K C T S W R N Z,5e1647f6f52510000a7389b6,37,Mężczyzna,2022-06-11_09h11.42.432,task,2021.1.4,Win32,60.23370678,6299f149e92ead563fba08ef,62a4401eb39d04abc39ed1c6,,,,,,,,,,,,,,,,,,,,,,,,,,,,,,,,,,,,,,,,,,,,,,,,,,,,,,,,,,,,,,,,,,,,,,,,,,,,,,,,,,,,,,,,,,,,,,,,,,,,,
,,,,,,2,0,2,0,1,X V Q F H G B L J M P D K C T S W R N Z,5e1647f6f52510000a7389b6,37,Mężczyzna,2022-06-11_09h11.42.432,task,2021.1.4,Win32,60.23370678,6299f149e92ead563fba08ef,62a4401eb39d04abc39ed1c6,,,,,,,,,,,,,,,,,,,,,,,,,,,,,,,,,,,,,,,,,,,,,,,,,,,,,,,,,,,,,,,,,,,,,,,,,,,,,,,,,,,,,,,,,,,,,,,,,,,,,
,,,,,,3,0,3,0,1,X V Q F H G B L J M P D K C T S W R N Z,5e1647f6f52510000a7389b6,37,Mężczyzna,2022-06-11_09h11.42.432,task,2021.1.4,Win32,60.23370678,6299f149e92ead563fba08ef,62a4401eb39d04abc39ed1c6,,,,,,,,,,,,,,,,,,,,,,,,,,,,,,,,,,,,,,,,,,,,,,,,,,,,,,,,,,,,,,,,,,,,,,,,,,,,,,,,,,,,,,,,,,,,,,,,,,,,,
,,,,,,4,0,4,0,1,X V Q F H G B L J M P D K C T S W R N Z,5e1647f6f52510000a7389b6,37,Mężczyzna,2022-06-11_09h11.42.432,task,2021.1.4,Win32,60.23370678,6299f149e92ead563fba08ef,62a4401eb39d04abc39ed1c6,,,,,,,,,,,,,,,,,,,,,,,,,,,,,,,,,,,,,,,,,,,,,,,,,,,,,,,,,,,,,,,,,,,,,,,,,,,,,,,,,,,,,,,,,,,,,,,,,,,,,
,,,,,,,,,,,,5e1647f6f52510000a7389b6,37,Mężczyzna,2022-06-11_09h11.42.432,task,2021.1.4,Win32,60.23370678,6299f149e92ead563fba08ef,62a4401eb39d04abc39ed1c6,fbrzw,"[""f"",""b"",""r"",""z"",""w""]","[1.382000000000005,1.7687000002861026,2.2317000002861107,2.6458000001907465,3.01700000000001,3.852700000286106]",1,FBRZW,6,0,6,0,1,,,,,,,,,,,,,,,,,,,,,,,,,,,,,,,,,,,,,,,,,,,,,,,,,,,,,,,,,,,,,,,,,,,,,,,,,,,,,,,,,,,,,,,,,,,
,,,,,,0,0,0,0,1,X V Q F H G B L J M P D K C T S W R N Z,5e1647f6f52510000a7389b6,37,Mężczyzna,2022-06-11_09h11.42.432,task,2021.1.4,Win32,60.23370678,6299f149e92ead563fba08ef,62a4401eb39d04abc39ed1c6,,,,,,,,,,,,,,,,,,,,,,,,,,,,,,,,,,,,,,,,,,,,,,,,,,,,,,,,,,,,,,,,,,,,,,,,,,,,,,,,,,,,,,,,,,,,,,,,,,,,,
,,,,,,1,0,1,0,1,X V Q F H G B L J M P D K C T S W R N Z,5e1647f6f52510000a7389b6,37,Mężczyzna,2022-06-11_09h11.42.432,task,2021.1.4,Win32,60.23370678,6299f149e92ead563fba08ef,62a4401eb39d04abc39ed1c6,,,,,,,,,,,,,,,,,,,,,,,,,,,,,,,,,,,,,,,,,,,,,,,,,,,,,,,,,,,,,,,,,,,,,,,,,,,,,,,,,,,,,,,,,,,,,,,,,,,,,
,,,,,,2,0,2,0,1,X V Q F H G B L J M P D K C T S W R N Z,5e1647f6f52510000a7389b6,37,Mężczyzna,2022-06-11_09h11.42.432,task,2021.1.4,Win32,60.23370678,6299f149e92ead563fba08ef,62a4401eb39d04abc39ed1c6,,,,,,,,,,,,,,,,,,,,,,,,,,,,,,,,,,,,,,,,,,,,,,,,,,,,,,,,,,,,,,,,,,,,,,,,,,,,,,,,,,,,,,,,,,,,,,,,,,,,,
,,,,,,3,0,3,0,1,X V Q F H G B L J M P D K C T S W R N Z,5e1647f6f52510000a7389b6,37,Mężczyzna,2022-06-11_09h11.42.432,task,2021.1.4,Win32,60.23370678,6299f149e92ead563fba08ef,62a4401eb39d04abc39ed1c6,,,,,,,,,,,,,,,,,,,,,,,,,,,,,,,,,,,,,,,,,,,,,,,,,,,,,,,,,,,,,,,,,,,,,,,,,,,,,,,,,,,,,,,,,,,,,,,,,,,,,
,,,,,,4,0,4,0,1,X V Q F H G B L J M P D K C T S W R N Z,5e1647f6f52510000a7389b6,37,Mężczyzna,2022-06-11_09h11.42.432,task,2021.1.4,Win32,60.23370678,6299f149e92ead563fba08ef,62a4401eb39d04abc39ed1c6,,,,,,,,,,,,,,,,,,,,,,,,,,,,,,,,,,,,,,,,,,,,,,,,,,,,,,,,,,,,,,,,,,,,,,,,,,,,,,,,,,,,,,,,,,,,,,,,,,,,,
,,,,,,,,,,,,5e1647f6f52510000a7389b6,37,Mężczyzna,2022-06-11_09h11.42.432,task,2021.1.4,Win32,60.23370678,6299f149e92ead563fba08ef,62a4401eb39d04abc39ed1c6,lgmxc,"[""l"",""g"",""m"",""x"",""c""]","[1.55140000009537,1.9364999999999952,2.085400000095376,2.6710000000000065,3.006599999904637,3.3523000001907377]",1,LGMXC,7,0,7,0,1,,,,,,,,,,,,,,,,,,,,,,,,,,,,,,,,,,,,,,,,,,,,,,,,,,,,,,,,,,,,,,,,,,,,,,,,,,,,,,,,,,,,,,,,,,,
,,,,,,0,0,0,0,1,X V Q F H G B L J M P D K C T S W R N Z,5e1647f6f52510000a7389b6,37,Mężczyzna,2022-06-11_09h11.42.432,task,2021.1.4,Win32,60.23370678,6299f149e92ead563fba08ef,62a4401eb39d04abc39ed1c6,,,,,,,,,,,,,,,,,,,,,,,,,,,,,,,,,,,,,,,,,,,,,,,,,,,,,,,,,,,,,,,,,,,,,,,,,,,,,,,,,,,,,,,,,,,,,,,,,,,,,
,,,,,,1,0,1,0,1,X V Q F H G B L J M P D K C T S W R N Z,5e1647f6f52510000a7389b6,37,Mężczyzna,2022-06-11_09h11.42.432,task,2021.1.4,Win32,60.23370678,6299f149e92ead563fba08ef,62a4401eb39d04abc39ed1c6,,,,,,,,,,,,,,,,,,,,,,,,,,,,,,,,,,,,,,,,,,,,,,,,,,,,,,,,,,,,,,,,,,,,,,,,,,,,,,,,,,,,,,,,,,,,,,,,,,,,,
,,,,,,2,0,2,0,1,X V Q F H G B L J M P D K C T S W R N Z,5e1647f6f52510000a7389b6,37,Mężczyzna,2022-06-11_09h11.42.432,task,2021.1.4,Win32,60.23370678,6299f149e92ead563fba08ef,62a4401eb39d04abc39ed1c6,,,,,,,,,,,,,,,,,,,,,,,,,,,,,,,,,,,,,,,,,,,,,,,,,,,,,,,,,,,,,,,,,,,,,,,,,,,,,,,,,,,,,,,,,,,,,,,,,,,,,
,,,,,,3,0,3,0,1,X V Q F H G B L J M P D K C T S W R N Z,5e1647f6f52510000a7389b6,37,Mężczyzna,2022-06-11_09h11.42.432,task,2021.1.4,Win32,60.23370678,6299f149e92ead563fba08ef,62a4401eb39d04abc39ed1c6,,,,,,,,,,,,,,,,,,,,,,,,,,,,,,,,,,,,,,,,,,,,,,,,,,,,,,,,,,,,,,,,,,,,,,,,,,,,,,,,,,,,,,,,,,,,,,,,,,,,,
,,,,,,4,0,4,0,1,X V Q F H G B L J M P D K C T S W R N Z,5e1647f6f52510000a7389b6,37,Mężczyzna,2022-06-11_09h11.42.432,task,2021.1.4,Win32,60.23370678,6299f149e92ead563fba08ef,62a4401eb39d04abc39ed1c6,,,,,,,,,,,,,,,,,,,,,,,,,,,,,,,,,,,,,,,,,,,,,,,,,,,,,,,,,,,,,,,,,,,,,,,,,,,,,,,,,,,,,,,,,,,,,,,,,,,,,
,,,,,,5,0,5,0,1,X V Q F H G B L J M P D K C T S W R N Z,5e1647f6f52510000a7389b6,37,Mężczyzna,2022-06-11_09h11.42.432,task,2021.1.4,Win32,60.23370678,6299f149e92ead563fba08ef,62a4401eb39d04abc39ed1c6,,,,,,,,,,,,,,,,,,,,,,,,,,,,,,,,,,,,,,,,,,,,,,,,,,,,,,,,,,,,,,,,,,,,,,,,,,,,,,,,,,,,,,,,,,,,,,,,,,,,,
,,,,,,,,,,,,5e1647f6f52510000a7389b6,37,Mężczyzna,2022-06-11_09h11.42.432,task,2021.1.4,Win32,60.23370678,6299f149e92ead563fba08ef,62a4401eb39d04abc39ed1c6,ggzxcs,"[""g"",""g"",""z"",""x"",""c"",""s""]","[1.5027000002860973,1.7014000000953615,2.21890000009536,2.553999999999988,2.92160000038146,3.2622000002861,4.535100000381462]",1,GGZXCS,8,0,8,0,1,,,,,,,,,,,,,,,,,,,,,,,,,,,,,,,,,,,,,,,,,,,,,,,,,,,,,,,,,,,,,,,,,,,,,,,,,,,,,,,,,,,,,,,,,,,
,,,,,,0,0,0,0,1,X V Q F H G B L J M P D K C T S W R N Z,5e1647f6f52510000a7389b6,37,Mężczyzna,2022-06-11_09h11.42.432,task,2021.1.4,Win32,60.23370678,6299f149e92ead563fba08ef,62a4401eb39d04abc39ed1c6,,,,,,,,,,,,,,,,,,,,,,,,,,,,,,,,,,,,,,,,,,,,,,,,,,,,,,,,,,,,,,,,,,,,,,,,,,,,,,,,,,,,,,,,,,,,,,,,,,,,,
,,,,,,1,0,1,0,1,X V Q F H G B L J M P D K C T S W R N Z,5e1647f6f52510000a7389b6,37,Mężczyzna,2022-06-11_09h11.42.432,task,2021.1.4,Win32,60.23370678,6299f149e92ead563fba08ef,62a4401eb39d04abc39ed1c6,,,,,,,,,,,,,,,,,,,,,,,,,,,,,,,,,,,,,,,,,,,,,,,,,,,,,,,,,,,,,,,,,,,,,,,,,,,,,,,,,,,,,,,,,,,,,,,,,,,,,
,,,,,,2,0,2,0,1,X V Q F H G B L J M P D K C T S W R N Z,5e1647f6f52510000a7389b6,37,Mężczyzna,2022-06-11_09h11.42.432,task,2021.1.4,Win32,60.23370678,6299f149e92ead563fba08ef,62a4401eb39d04abc39ed1c6,,,,,,,,,,,,,,,,,,,,,,,,,,,,,,,,,,,,,,,,,,,,,,,,,,,,,,,,,,,,,,,,,,,,,,,,,,,,,,,,,,,,,,,,,,,,,,,,,,,,,
,,,,,,3,0,3,0,1,X V Q F H G B L J M P D K C T S W R N Z,5e1647f6f52510000a7389b6,37,Mężczyzna,2022-06-11_09h11.42.432,task,2021.1.4,Win32,60.23370678,6299f149e92ead563fba08ef,62a4401eb39d04abc39ed1c6,,,,,,,,,,,,,,,,,,,,,,,,,,,,,,,,,,,,,,,,,,,,,,,,,,,,,,,,,,,,,,,,,,,,,,,,,,,,,,,,,,,,,,,,,,,,,,,,,,,,,
,,,,,,4,0,4,0,1,X V Q F H G B L J M P D K C T S W R N Z,5e1647f6f52510000a7389b6,37,Mężczyzna,2022-06-11_09h11.42.432,task,2021.1.4,Win32,60.23370678,6299f149e92ead563fba08ef,62a4401eb39d04abc39ed1c6,,,,,,,,,,,,,,,,,,,,,,,,,,,,,,,,,,,,,,,,,,,,,,,,,,,,,,,,,,,,,,,,,,,,,,,,,,,,,,,,,,,,,,,,,,,,,,,,,,,,,
,,,,,,5,0,5,0,1,X V Q F H G B L J M P D K C T S W R N Z,5e1647f6f52510000a7389b6,37,Mężczyzna,2022-06-11_09h11.42.432,task,2021.1.4,Win32,60.23370678,6299f149e92ead563fba08ef,62a4401eb39d04abc39ed1c6,,,,,,,,,,,,,,,,,,,,,,,,,,,,,,,,,,,,,,,,,,,,,,,,,,,,,,,,,,,,,,,,,,,,,,,,,,,,,,,,,,,,,,,,,,,,,,,,,,,,,
,,,,,,,,,,,,5e1647f6f52510000a7389b6,37,Mężczyzna,2022-06-11_09h11.42.432,task,2021.1.4,Win32,60.23370678,6299f149e92ead563fba08ef,62a4401eb39d04abc39ed1c6,hcdxmd,"[""h"",""c"",""d"",""x"",""m"",""d""]","[0.8351999998092623,1.1765000000000043,1.5375999999046286,2.8534000000953625,3.2365000000000066,5.619699999809271,6.352300000190738]",1,HCDXMD,9,0,9,0,1,,,,,,,,,,,,,,,,,,,,,,,,,,,,,,,,,,,,,,,,,,,,,,,,,,,,,,,,,,,,,,,,,,,,,,,,,,,,,,,,,,,,,,,,,,,
,,,,,,0,0,0,0,1,X V Q F H G B L J M P D K C T S W R N Z,5e1647f6f52510000a7389b6,37,Mężczyzna,2022-06-11_09h11.42.432,task,2021.1.4,Win32,60.23370678,6299f149e92ead563fba08ef,62a4401eb39d04abc39ed1c6,,,,,,,,,,,,,,,,,,,,,,,,,,,,,,,,,,,,,,,,,,,,,,,,,,,,,,,,,,,,,,,,,,,,,,,,,,,,,,,,,,,,,,,,,,,,,,,,,,,,,
,,,,,,1,0,1,0,1,X V Q F H G B L J M P D K C T S W R N Z,5e1647f6f52510000a7389b6,37,Mężczyzna,2022-06-11_09h11.42.432,task,2021.1.4,Win32,60.23370678,6299f149e92ead563fba08ef,62a4401eb39d04abc39ed1c6,,,,,,,,,,,,,,,,,,,,,,,,,,,,,,,,,,,,,,,,,,,,,,,,,,,,,,,,,,,,,,,,,,,,,,,,,,,,,,,,,,,,,,,,,,,,,,,,,,,,,
,,,,,,2,0,2,0,1,X V Q F H G B L J M P D K C T S W R N Z,5e1647f6f52510000a7389b6,37,Mężczyzna,2022-06-11_09h11.42.432,task,2021.1.4,Win32,60.23370678,6299f149e92ead563fba08ef,62a4401eb39d04abc39ed1c6,,,,,,,,,,,,,,,,,,,,,,,,,,,,,,,,,,,,,,,,,,,,,,,,,,,,,,,,,,,,,,,,,,,,,,,,,,,,,,,,,,,,,,,,,,,,,,,,,,,,,
,,,,,,3,0,3,0,1,X V Q F H G B L J M P D K C T S W R N Z,5e1647f6f52510000a7389b6,37,Mężczyzna,2022-06-11_09h11.42.432,task,2021.1.4,Win32,60.23370678,6299f149e92ead563fba08ef,62a4401eb39d04abc39ed1c6,,,,,,,,,,,,,,,,,,,,,,,,,,,,,,,,,,,,,,,,,,,,,,,,,,,,,,,,,,,,,,,,,,,,,,,,,,,,,,,,,,,,,,,,,,,,,,,,,,,,,
,,,,,,4,0,4,0,1,X V Q F H G B L J M P D K C T S W R N Z,5e1647f6f52510000a7389b6,37,Mężczyzna,2022-06-11_09h11.42.432,task,2021.1.4,Win32,60.23370678,6299f149e92ead563fba08ef,62a4401eb39d04abc39ed1c6,,,,,,,,,,,,,,,,,,,,,,,,,,,,,,,,,,,,,,,,,,,,,,,,,,,,,,,,,,,,,,,,,,,,,,,,,,,,,,,,,,,,,,,,,,,,,,,,,,,,,
,,,,,,5,0,5,0,1,X V Q F H G B L J M P D K C T S W R N Z,5e1647f6f52510000a7389b6,37,Mężczyzna,2022-06-11_09h11.42.432,task,2021.1.4,Win32,60.23370678,6299f149e92ead563fba08ef,62a4401eb39d04abc39ed1c6,,,,,,,,,,,,,,,,,,,,,,,,,,,,,,,,,,,,,,,,,,,,,,,,,,,,,,,,,,,,,,,,,,,,,,,,,,,,,,,,,,,,,,,,,,,,,,,,,,,,,
,,,,,,6,0,6,0,1,X V Q F H G B L J M P D K C T S W R N Z,5e1647f6f52510000a7389b6,37,Mężczyzna,2022-06-11_09h11.42.432,task,2021.1.4,Win32,60.23370678,6299f149e92ead563fba08ef,62a4401eb39d04abc39ed1c6,,,,,,,,,,,,,,,,,,,,,,,,,,,,,,,,,,,,,,,,,,,,,,,,,,,,,,,,,,,,,,,,,,,,,,,,,,,,,,,,,,,,,,,,,,,,,,,,,,,,,
,,,,,,,,,,,,5e1647f6f52510000a7389b6,37,Mężczyzna,2022-06-11_09h11.42.432,task,2021.1.4,Win32,60.23370678,6299f149e92ead563fba08ef,62a4401eb39d04abc39ed1c6,zlprgq,"[""z"",""l"",""p"",""r"",""g"",""q""]","[1.5180000000000007,8.600199999809263,8.672299999713886,9.91119999980927,10.6692999997139,11.30269999980925,12.23809999990462]",0,ZLPRGQZ,10,0,10,0,1,,,,,,,,,,,,,,,,,,,,,,,,,,,,,,,,,,,,,,,,,,,,,,,,,,,,,,,,,,,,,,,,,,,,,,,,,,,,,,,,,,,,,,,,,,,
,,,,,,0,0,0,0,1,X V Q F H G B L J M P D K C T S W R N Z,5e1647f6f52510000a7389b6,37,Mężczyzna,2022-06-11_09h11.42.432,task,2021.1.4,Win32,60.23370678,6299f149e92ead563fba08ef,62a4401eb39d04abc39ed1c6,,,,,,,,,,,,,,,,,,,,,,,,,,,,,,,,,,,,,,,,,,,,,,,,,,,,,,,,,,,,,,,,,,,,,,,,,,,,,,,,,,,,,,,,,,,,,,,,,,,,,
,,,,,,1,0,1,0,1,X V Q F H G B L J M P D K C T S W R N Z,5e1647f6f52510000a7389b6,37,Mężczyzna,2022-06-11_09h11.42.432,task,2021.1.4,Win32,60.23370678,6299f149e92ead563fba08ef,62a4401eb39d04abc39ed1c6,,,,,,,,,,,,,,,,,,,,,,,,,,,,,,,,,,,,,,,,,,,,,,,,,,,,,,,,,,,,,,,,,,,,,,,,,,,,,,,,,,,,,,,,,,,,,,,,,,,,,
,,,,,,2,0,2,0,1,X V Q F H G B L J M P D K C T S W R N Z,5e1647f6f52510000a7389b6,37,Mężczyzna,2022-06-11_09h11.42.432,task,2021.1.4,Win32,60.23370678,6299f149e92ead563fba08ef,62a4401eb39d04abc39ed1c6,,,,,,,,,,,,,,,,,,,,,,,,,,,,,,,,,,,,,,,,,,,,,,,,,,,,,,,,,,,,,,,,,,,,,,,,,,,,,,,,,,,,,,,,,,,,,,,,,,,,,
,,,,,,3,0,3,0,1,X V Q F H G B L J M P D K C T S W R N Z,5e1647f6f52510000a7389b6,37,Mężczyzna,2022-06-11_09h11.42.432,task,2021.1.4,Win32,60.23370678,6299f149e92ead563fba08ef,62a4401eb39d04abc39ed1c6,,,,,,,,,,,,,,,,,,,,,,,,,,,,,,,,,,,,,,,,,,,,,,,,,,,,,,,,,,,,,,,,,,,,,,,,,,,,,,,,,,,,,,,,,,,,,,,,,,,,,
,,,,,,4,0,4,0,1,X V Q F H G B L J M P D K C T S W R N Z,5e1647f6f52510000a7389b6,37,Mężczyzna,2022-06-11_09h11.42.432,task,2021.1.4,Win32,60.23370678,6299f149e92ead563fba08ef,62a4401eb39d04abc39ed1c6,,,,,,,,,,,,,,,,,,,,,,,,,,,,,,,,,,,,,,,,,,,,,,,,,,,,,,,,,,,,,,,,,,,,,,,,,,,,,,,,,,,,,,,,,,,,,,,,,,,,,
,,,,,,5,0,5,0,1,X V Q F H G B L J M P D K C T S W R N Z,5e1647f6f52510000a7389b6,37,Mężczyzna,2022-06-11_09h11.42.432,task,2021.1.4,Win32,60.23370678,6299f149e92ead563fba08ef,62a4401eb39d04abc39ed1c6,,,,,,,,,,,,,,,,,,,,,,,,,,,,,,,,,,,,,,,,,,,,,,,,,,,,,,,,,,,,,,,,,,,,,,,,,,,,,,,,,,,,,,,,,,,,,,,,,,,,,
,,,,,,6,0,6,0,1,X V Q F H G B L J M P D K C T S W R N Z,5e1647f6f52510000a7389b6,37,Mężczyzna,2022-06-11_09h11.42.432,task,2021.1.4,Win32,60.23370678,6299f149e92ead563fba08ef,62a4401eb39d04abc39ed1c6,,,,,,,,,,,,,,,,,,,,,,,,,,,,,,,,,,,,,,,,,,,,,,,,,,,,,,,,,,,,,,,,,,,,,,,,,,,,,,,,,,,,,,,,,,,,,,,,,,,,,
,,,,,,,,,,,,5e1647f6f52510000a7389b6,37,Mężczyzna,2022-06-11_09h11.42.432,task,2021.1.4,Win32,60.23370678,6299f149e92ead563fba08ef,62a4401eb39d04abc39ed1c6,ghzdlkd,"[""g"",""h"",""z"",""d"",""l"",""k"",""d""]","[1.3702999997138932,1.6017999997139043,2.0016999998092615,2.9362999997138957,5.268900000095357,5.4202999997139045,5.655699999809258,6.200199999809257]",0,GZHDKDL,11,0,11,0,1,,,,,,,,,,,,,,,,,,,,,,,,,,,,,,,,,,,,,,,,,,,,,,,,,,,,,,,,,,,,,,,,,,,,,,,,,,,,,,,,,,,,,,,,,,,
,,,,,,0,0,0,0,1,X V Q F H G B L J M P D K C T S W R N Z,5e1647f6f52510000a7389b6,37,Mężczyzna,2022-06-11_09h11.42.432,task,2021.1.4,Win32,60.23370678,6299f149e92ead563fba08ef,62a4401eb39d04abc39ed1c6,,,,,,,,,,,,,,,,,,,,,,,,,,,,,,,,,,,,,,,,,,,,,,,,,,,,,,,,,,,,,,,,,,,,,,,,,,,,,,,,,,,,,,,,,,,,,,,,,,,,,
,,,,,,1,0,1,0,1,X V Q F H G B L J M P D K C T S W R N Z,5e1647f6f52510000a7389b6,37,Mężczyzna,2022-06-11_09h11.42.432,task,2021.1.4,Win32,60.23370678,6299f149e92ead563fba08ef,62a4401eb39d04abc39ed1c6,,,,,,,,,,,,,,,,,,,,,,,,,,,,,,,,,,,,,,,,,,,,,,,,,,,,,,,,,,,,,,,,,,,,,,,,,,,,,,,,,,,,,,,,,,,,,,,,,,,,,
,,,,,,2,0,2,0,1,X V Q F H G B L J M P D K C T S W R N Z,5e1647f6f52510000a7389b6,37,Mężczyzna,2022-06-11_09h11.42.432,task,2021.1.4,Win32,60.23370678,6299f149e92ead563fba08ef,62a4401eb39d04abc39ed1c6,,,,,,,,,,,,,,,,,,,,,,,,,,,,,,,,,,,,,,,,,,,,,,,,,,,,,,,,,,,,,,,,,,,,,,,,,,,,,,,,,,,,,,,,,,,,,,,,,,,,,
,,,,,,3,0,3,0,1,X V Q F H G B L J M P D K C T S W R N Z,5e1647f6f52510000a7389b6,37,Mężczyzna,2022-06-11_09h11.42.432,task,2021.1.4,Win32,60.23370678,6299f149e92ead563fba08ef,62a4401eb39d04abc39ed1c6,,,,,,,,,,,,,,,,,,,,,,,,,,,,,,,,,,,,,,,,,,,,,,,,,,,,,,,,,,,,,,,,,,,,,,,,,,,,,,,,,,,,,,,,,,,,,,,,,,,,,
,,,,,,4,0,4,0,1,X V Q F H G B L J M P D K C T S W R N Z,5e1647f6f52510000a7389b6,37,Mężczyzna,2022-06-11_09h11.42.432,task,2021.1.4,Win32,60.23370678,6299f149e92ead563fba08ef,62a4401eb39d04abc39ed1c6,,,,,,,,,,,,,,,,,,,,,,,,,,,,,,,,,,,,,,,,,,,,,,,,,,,,,,,,,,,,,,,,,,,,,,,,,,,,,,,,,,,,,,,,,,,,,,,,,,,,,
,,,,,,5,0,5,0,1,X V Q F H G B L J M P D K C T S W R N Z,5e1647f6f52510000a7389b6,37,Mężczyzna,2022-06-11_09h11.42.432,task,2021.1.4,Win32,60.23370678,6299f149e92ead563fba08ef,62a4401eb39d04abc39ed1c6,,,,,,,,,,,,,,,,,,,,,,,,,,,,,,,,,,,,,,,,,,,,,,,,,,,,,,,,,,,,,,,,,,,,,,,,,,,,,,,,,,,,,,,,,,,,,,,,,,,,,
,,,,,,6,0,6,0,1,X V Q F H G B L J M P D K C T S W R N Z,5e1647f6f52510000a7389b6,37,Mężczyzna,2022-06-11_09h11.42.432,task,2021.1.4,Win32,60.23370678,6299f149e92ead563fba08ef,62a4401eb39d04abc39ed1c6,,,,,,,,,,,,,,,,,,,,,,,,,,,,,,,,,,,,,,,,,,,,,,,,,,,,,,,,,,,,,,,,,,,,,,,,,,,,,,,,,,,,,,,,,,,,,,,,,,,,,
,,,,,,,,,,,,5e1647f6f52510000a7389b6,37,Mężczyzna,2022-06-11_09h11.42.432,task,2021.1.4,Win32,60.23370678,6299f149e92ead563fba08ef,62a4401eb39d04abc39ed1c6,hztghl,"[""h"",""z"",""t"",""g"",""h"",""l""]","[2.383900000095366,2.5842000002861027,2.930499999999995,5.339900000095355,6.837800000190725,7.51440000009535,8.747300000190734]",0,HZTKGCF,12,0,12,0,1,,,,,,,,,,,,,,,,,,,,,,,,,,,,,,,,,,,,,,,,,,,,,,,,,,,,,,,,,,,,,,,,,,,,,,,,,,,,,,,,,,,,,,,,,,,
,,,,,,,,,,,,5e1647f6f52510000a7389b6,37,Mężczyzna,2022-06-11_09h11.42.432,task,2021.1.4,Win32,60.23370678,6299f149e92ead563fba08ef,62a4401eb39d04abc39ed1c6,,,,,,,,,,,space,10.921,0,"[""0""]",1,[5.545900000095372],[5.545900000095372],0,0,0,0,1,Practice,1,(3x3) -  9,0,,,,,,,,,,,,,,,,,,,,,,,,,,,,,,,,,,,,,,,,,,,,,,,,,,,,,,,,,,,,,,,,,,,,,,,,,,,
,,,,,,,,,,,,5e1647f6f52510000a7389b6,37,Mężczyzna,2022-06-11_09h11.42.432,task,2021.1.4,Win32,60.23370678,6299f149e92ead563fba08ef,62a4401eb39d04abc39ed1c6,,,,,,,,,,,,,1,"[""1""]",1,[3.8348000001907394],"[5.545900000095372,3.8348000001907394]",0,1,1,1,1,Practice,2,(4x4) - 15,1,,,,,,,,,,,,,,,,,,,,,,,,,,,,,,,,,,,,,,,,,,,,,,,,,,,,,,,,,,,,,,,,,,,,,,,,,,,
,,,,,,,,,,,,5e1647f6f52510000a7389b6,37,Mężczyzna,2022-06-11_09h11.42.432,task,2021.1.4,Win32,60.23370678,6299f149e92ead563fba08ef,62a4401eb39d04abc39ed1c6,,,,,,,,,,,,,2,"[""2""]",1,[1.5712999997138866],"[5.545900000095372,3.8348000001907394,1.5712999997138866]",0,2,2,2,1,Practice,3,(4x4) - 14,2,,,,,,,,,,,,,,,,,,,,,,,,,,,,,,,,,,,,,,,,,,,,,,,,,,,,,,,,,,,,,,,,,,,,,,,,,,,
,,,,,,,,,,,,5e1647f6f52510000a7389b6,37,Mężczyzna,2022-06-11_09h11.42.432,task,2021.1.4,Win32,60.23370678,6299f149e92ead563fba08ef,62a4401eb39d04abc39ed1c6,,,,,,,,,,,,,6,"[""6""]",1,[2.1170000000000186],"[5.545900000095372,3.8348000001907394,1.5712999997138866,2.1170000000000186]",0,3,3,6,1,Practice,7,(25/5) + 1,6,,,,,,,,,,,,,,,,,,,,,,,,,,,,,,,,,,,,,,,,,,,,,,,,,,,,,,,,,,,,,,,,,,,,,,,,,,,
,,,,,,,,,,,,5e1647f6f52510000a7389b6,37,Mężczyzna,2022-06-11_09h11.42.432,task,2021.1.4,Win32,60.23370678,6299f149e92ead563fba08ef,62a4401eb39d04abc39ed1c6,,,,,,,,,,,,,9,"[""9""]",1,[2.146500000000003],"[5.545900000095372,3.8348000001907394,1.5712999997138866,2.1170000000000186,2.146500000000003]",0,4,4,9,1,Practice,10,(20/2) - 1,9,,,,,,,,,,,,,,,,,,,,,,,,,,,,,,,,,,,,,,,,,,,,,,,,,,,,,,,,,,,,,,,,,,,,,,,,,,,
,,,,,,,,,,,,5e1647f6f52510000a7389b6,37,Mężczyzna,2022-06-11_09h11.42.432,task,2021.1.4,Win32,60.23370678,6299f149e92ead563fba08ef,62a4401eb39d04abc39ed1c6,,,,,,,,,,,,,5,"[""5""]",1,[3.2905000000000086],"[5.545900000095372,3.8348000001907394,1.5712999997138866,2.1170000000000186,2.146500000000003,3.2905000000000086]",0,5,5,5,1,Practice,6,(4/2) + 3,5,,,,,,,,,,,,,,,,,,,,,,,,,,,,,,,,,,,,,,,,,,,,,,,,,,,,,,,,,,,,,,,,,,,,,,,,,,,
,,,,,,,,,,,,5e1647f6f52510000a7389b6,37,Mężczyzna,2022-06-11_09h11.42.432,task,2021.1.4,Win32,60.23370678,6299f149e92ead563fba08ef,62a4401eb39d04abc39ed1c6,,,,,,,,,,,,,3,"[""3""]",1,[1.827699999809255],"[5.545900000095372,3.8348000001907394,1.5712999997138866,2.1170000000000186,2.146500000000003,3.2905000000000086,1.827699999809255]",0,6,6,3,1,Practice,4,(8/4) + 1,3,,,,,,,,,,,,,,,,,,,,,,,,,,,,,,,,,,,,,,,,,,,,,,,,,,,,,,,,,,,,,,,,,,,,,,,,,,,
,,,,,,,,,,,,5e1647f6f52510000a7389b6,37,Mężczyzna,2022-06-11_09h11.42.432,task,2021.1.4,Win32,60.23370678,6299f149e92ead563fba08ef,62a4401eb39d04abc39ed1c6,,,,,,,,,,,,,4,"[""4""]",1,[2.2220000000000084],"[5.545900000095372,3.8348000001907394,1.5712999997138866,2.1170000000000186,2.146500000000003,3.2905000000000086,1.827699999809255,2.2220000000000084]",0,7,7,4,1,Practice,5,(2x6) - 8,4,,,,,,,,,,,,,,,,,,,,,,,,,,,,,,,,,,,,,,,,,,,,,,,,,,,,,,,,,,,,,,,,,,,,,,,,,,,
,,,,,,,,,,,,5e1647f6f52510000a7389b6,37,Mężczyzna,2022-06-11_09h11.42.432,task,2021.1.4,Win32,60.23370678,6299f149e92ead563fba08ef,62a4401eb39d04abc39ed1c6,,,,,,,,,,,,,8,"[""8""]",1,[2.0075999999046417],"[5.545900000095372,3.8348000001907394,1.5712999997138866,2.1170000000000186,2.146500000000003,3.2905000000000086,1.827699999809255,2.2220000000000084,2.0075999999046417]",0,8,8,8,1,Practice,9,(3x3) - 1,8,,,,,,,,,,,,,,,,,,,,,,,,,,,,,,,,,,,,,,,,,,,,,,,,,,,,,,,,,,,,,,,,,,,,,,,,,,,
,,,,,,,,,,,,5e1647f6f52510000a7389b6,37,Mężczyzna,2022-06-11_09h11.42.432,task,2021.1.4,Win32,60.23370678,6299f149e92ead563fba08ef,62a4401eb39d04abc39ed1c6,,,,,,,,,,,,,7,"[""7""]",1,[2.815900000095354],"[5.545900000095372,3.8348000001907394,1.5712999997138866,2.1170000000000186,2.146500000000003,3.2905000000000086,1.827699999809255,2.2220000000000084,2.0075999999046417,2.815900000095354]",0,9,9,7,1,Practice,8,(5x5) - 18,7,,,,,,,,,,,,,,,,,,,,,,,,,,,,,,,,,,,,,,,,,,,,,,,,,,,,,,,,,,,,,,,,,,,,,,,,,,,
,,,,,,,,,,,,5e1647f6f52510000a7389b6,37,Mężczyzna,2022-06-11_09h11.42.432,task,2021.1.4,Win32,60.23370678,6299f149e92ead563fba08ef,62a4401eb39d04abc39ed1c6,,,,,,,,,,,,,,,,,,,,,,,,,,,1,27.3792,1.82528,21.45280333,1.195904214,4.910712872,space,1.7965,0,0,0,0,1,,,,,,,,,,,,,,,,,,,,,,,,,,,,,,,,,,,,,,,,,,,,,,,,,,,,,,,,,,,,,,
,,,,,,,,,,,,5e1647f6f52510000a7389b6,37,Mężczyzna,2022-06-11_09h11.42.432,task,2021.1.4,Win32,60.23370678,6299f149e92ead563fba08ef,62a4401eb39d04abc39ed1c6,,,,,,,,,,,,,2,,,,,,,,,,Practice,3,(4x4) - 14,2,,,,,,,,,,,,,,space,15.6726,"[""2""]",1,[1.9998000001907599],1,0,0,0,2,1,,,,,,,,,,,,,,,,,,,,,,,,,,,,,,,,,,,,,,,,,,,,,,,,,,,
,,,,,,,,,,,X V Q F H G B L J M P D K C T S W R N Z,5e1647f6f52510000a7389b6,37,Mężczyzna,2022-06-11_09h11.42.432,task,2021.1.4,Win32,60.23370678,6299f149e92ead563fba08ef,62a4401eb39d04abc39ed1c6,,,,,,,,,,,,,,,,,,,,,,,,,,,,,,,,,,,,,,,,,,,,,,,,,,,0,0,0,0,1,,,,,,,,,,,,,,,,,,,,,,,,,,,,,,,,,,,,,,,,,,,,,,
,,,,,,,,,,,,5e1647f6f52510000a7389b6,37,Mężczyzna,2022-06-11_09h11.42.432,task,2021.1.4,Win32,60.23370678,6299f149e92ead563fba08ef,62a4401eb39d04abc39ed1c6,,,,,,,,,,,,,0,,,,,,,,,,Practice,1,(3x3) -  9,0,,,,,,,,,,,,,,,,"[""0""]",1,[2.8136999998092733],1,0,0,0,0,1,,,,,,,,,,,,,,,,,,,,,,,,,,,,,,,,,,,,,,,,,,,,,,,,,,,
,,,,,,,,,,,X V Q F H G B L J M P D K C T S W R N Z,5e1647f6f52510000a7389b6,37,Mężczyzna,2022-06-11_09h11.42.432,task,2021.1.4,Win32,60.23370678,6299f149e92ead563fba08ef,62a4401eb39d04abc39ed1c6,,,,,,,,,,,,,,,,,,,,,,,,,,,,,,,,,,,,,,,,,,,,,,,,,,,1,0,1,0,1,,,,,,,,,,,,,,,,,,,,,,,,,,,,,,,,,,,,,,,,,,,,,,
,,,,,,,,,,,,5e1647f6f52510000a7389b6,37,Mężczyzna,2022-06-11_09h11.42.432,task,2021.1.4,Win32,60.23370678,6299f149e92ead563fba08ef,62a4401eb39d04abc39ed1c6,,,,,,,,,,,,,,,,,,,,,,,,,,,,,,,,,,,,,,,,,,,,,,,,,,,,,,,,zw,"[""z"",""w""]",0,"[1.8356000003814756,2.1179000000953465,2.7679999999999723]",1,0,0,0,0,1,,,,,,,,,,,,,,,,,,,,,,,,,,,,,,,,,,,,
,,,,,,,,,,,,5e1647f6f52510000a7389b6,37,Mężczyzna,2022-06-11_09h11.42.432,task,2021.1.4,Win32,60.23370678,6299f149e92ead563fba08ef,62a4401eb39d04abc39ed1c6,,,,,,,,,,,,,3,,,,,,,,,,Practice,4,(8/4) + 1,3,,,,,,,,,,,,,,,,"[""3""]",1,[2.0420999999046217],1,0,0,0,3,1,,,,,,,,,,,,,,,,,,,,,,,,,,,,,,,,,,,,,,,,,,,,,,,,,,,
,,,,,,,,,,,X V Q F H G B L J M P D K C T S W R N Z,5e1647f6f52510000a7389b6,37,Mężczyzna,2022-06-11_09h11.42.432,task,2021.1.4,Win32,60.23370678,6299f149e92ead563fba08ef,62a4401eb39d04abc39ed1c6,,,,,,,,,,,,,,,,,,,,,,,,,,,,,,,,,,,,,,,,,,,,,,,,,,,0,0,0,0,1,,,,,,,,,,,,,,,,,,,,,,,,,,,,,,,,,,,,,,,,,,,,,,
,,,,,,,,,,,,5e1647f6f52510000a7389b6,37,Mężczyzna,2022-06-11_09h11.42.432,task,2021.1.4,Win32,60.23370678,6299f149e92ead563fba08ef,62a4401eb39d04abc39ed1c6,,,,,,,,,,,,,2,,,,,,,,,,Practice,3,(4x4) - 14,2,,,,,,,,,,,,,,,,"[""2""]",1,[2.1985999999046157],1,0,0,0,2,1,,,,,,,,,,,,,,,,,,,,,,,,,,,,,,,,,,,,,,,,,,,,,,,,,,,
,,,,,,,,,,,X V Q F H G B L J M P D K C T S W R N Z,5e1647f6f52510000a7389b6,37,Mężczyzna,2022-06-11_09h11.42.432,task,2021.1.4,Win32,60.23370678,6299f149e92ead563fba08ef,62a4401eb39d04abc39ed1c6,,,,,,,,,,,,,,,,,,,,,,,,,,,,,,,,,,,,,,,,,,,,,,,,,,,1,0,1,0,1,,,,,,,,,,,,,,,,,,,,,,,,,,,,,,,,,,,,,,,,,,,,,,
,,,,,,,,,,,,5e1647f6f52510000a7389b6,37,Mężczyzna,2022-06-11_09h11.42.432,task,2021.1.4,Win32,60.23370678,6299f149e92ead563fba08ef,62a4401eb39d04abc39ed1c6,,,,,,,,,,,,,,,,,,,,,,,,,,,,,,,,,,,,,,,,,,,,,,,,,,,,,,,,bk,"[""b"",""k""]",0,"[1.6028000001907685,1.9540000000000077,2.314400000095361]",1,1,0,1,0,1,,,,,,,,,,,,,,,,,,,,,,,,,,,,,,,,,,,,
,,,,,,,,,,,,5e1647f6f52510000a7389b6,37,Mężczyzna,2022-06-11_09h11.42.432,task,2021.1.4,Win32,60.23370678,6299f149e92ead563fba08ef,62a4401eb39d04abc39ed1c6,,,,,,,,,,,,,7,,,,,,,,,,Practice,8,(5x5) - 18,7,,,,,,,,,,,,,,,,"[""7""]",1,[2.819800000190753],1,0,0,0,7,1,,,,,,,,,,,,,,,,,,,,,,,,,,,,,,,,,,,,,,,,,,,,,,,,,,,
,,,,,,,,,,,X V Q F H G B L J M P D K C T S W R N Z,5e1647f6f52510000a7389b6,37,Mężczyzna,2022-06-11_09h11.42.432,task,2021.1.4,Win32,60.23370678,6299f149e92ead563fba08ef,62a4401eb39d04abc39ed1c6,,,,,,,,,,,,,,,,,,,,,,,,,,,,,,,,,,,,,,,,,,,,,,,,,,,0,0,0,0,1,,,,,,,,,,,,,,,,,,,,,,,,,,,,,,,,,,,,,,,,,,,,,,
,,,,,,,,,,,,5e1647f6f52510000a7389b6,37,Mężczyzna,2022-06-11_09h11.42.432,task,2021.1.4,Win32,60.23370678,6299f149e92ead563fba08ef,62a4401eb39d04abc39ed1c6,,,,,,,,,,,,,5,,,,,,,,,,Practice,6,(4/2) + 3,5,,,,,,,,,,,,,,,,"[""5""]",1,[1.7770999999046353],1,0,0,0,5,1,,,,,,,,,,,,,,,,,,,,,,,,,,,,,,,,,,,,,,,,,,,,,,,,,,,
,,,,,,,,,,,X V Q F H G B L J M P D K C T S W R N Z,5e1647f6f52510000a7389b6,37,Mężczyzna,2022-06-11_09h11.42.432,task,2021.1.4,Win32,60.23370678,6299f149e92ead563fba08ef,62a4401eb39d04abc39ed1c6,,,,,,,,,,,,,,,,,,,,,,,,,,,,,,,,,,,,,,,,,,,,,,,,,,,1,0,1,0,1,,,,,,,,,,,,,,,,,,,,,,,,,,,,,,,,,,,,,,,,,,,,,,
,,,,,,,,,,,,5e1647f6f52510000a7389b6,37,Mężczyzna,2022-06-11_09h11.42.432,task,2021.1.4,Win32,60.23370678,6299f149e92ead563fba08ef,62a4401eb39d04abc39ed1c6,,,,,,,,,,,,,,,,,,,,,,,,,,,,,,,,,,,,,,,,,,,,,,,,,,,,,,,,tf,"[""t"",""f""]",0,"[1.9496999998092974,2.1834000000953893,2.883599999904675]",1,2,0,2,0,1,,,,,,,,,,,,,,,,,,,,,,,,,,,,,,,,,,,,
,,,,,,,,,,,,5e1647f6f52510000a7389b6,37,Mężczyzna,2022-06-11_09h11.42.432,task,2021.1.4,Win32,60.23370678,6299f149e92ead563fba08ef,62a4401eb39d04abc39ed1c6,,,,,,,,,,,,,5,,,,,,,,,,Task,36,(8/4) + 3,5,,,,,,,,,,,,,,,,,,,1,,,,,,,,,,,,,,,,,,,,,space,13.6004,"[""5""]",1,[2.618000000000052],0,0,0,35,1,,,,,,,,,,,,,,,,,,,,,,,,,,
,,,,,,,,,,,X V Q F H G B L J M P D K C T S W R N Z,5e1647f6f52510000a7389b6,37,Mężczyzna,2022-06-11_09h11.42.432,task,2021.1.4,Win32,60.23370678,6299f149e92ead563fba08ef,62a4401eb39d04abc39ed1c6,,,,,,,,,,,,,,,,,,,,,,,,,,,,,,,,,,,,,,,,,,,,,,,,,,,,,,,,,,,,,,,,,,,,,,,,,,,,0,0,0,0,1,,,,,,,,,,,,,,,,,,,,,
,,,,,,,,,,,,5e1647f6f52510000a7389b6,37,Mężczyzna,2022-06-11_09h11.42.432,task,2021.1.4,Win32,60.23370678,6299f149e92ead563fba08ef,62a4401eb39d04abc39ed1c6,,,,,,,,,,,,,8,,,,,,,,,,Task,39,(5x3) - 7,8,,,,,,,,,,,,,,,,,,,1,,,,,,,,,,,,,,,,,,,,,,,"[""8""]",1,[2.796900000095377],0,0,0,38,1,,,,,,,,,,,,,,,,,,,,,,,,,,
,,,,,,,,,,,X V Q F H G B L J M P D K C T S W R N Z,5e1647f6f52510000a7389b6,37,Mężczyzna,2022-06-11_09h11.42.432,task,2021.1.4,Win32,60.23370678,6299f149e92ead563fba08ef,62a4401eb39d04abc39ed1c6,,,,,,,,,,,,,,,,,,,,,,,,,,,,,,,,,,,,,,,,,,,,,,,,,,,,,,,,,,,,,,,,,,,,,,,,,,,,1,0,1,0,1,,,,,,,,,,,,,,,,,,,,,
,,,,,,,,,,,,5e1647f6f52510000a7389b6,37,Mężczyzna,2022-06-11_09h11.42.432,task,2021.1.4,Win32,60.23370678,6299f149e92ead563fba08ef,62a4401eb39d04abc39ed1c6,,,,,,,,,,,,,,,,,,,,,,,,,,,,,,,,,,,,,,,,,,,,,,,,,,,,,,,,,,,,,,,,,,,,,,,,,,,,,,,,,zv,"[""z"",""v""]",0,"[1.6690000000000396,2.03629999971389,2.8057999997139405]",1,ZV,0,0,0,0,1,,,,,,,,,,
,,,,,,,,,,,,5e1647f6f52510000a7389b6,37,Mężczyzna,2022-06-11_09h11.42.432,task,2021.1.4,Win32,60.23370678,6299f149e92ead563fba08ef,62a4401eb39d04abc39ed1c6,,,,,,,,,,,,,6,,,,,,,,,,Task,37,(3/3) + 5,6,,,,,,,,,,,,,,,,,,,1,,,,,,,,,,,,,,,,,,,,,,,"[""6""]",1,[2.3164000000953706],0,0,0,36,1,,,,,,,,,,,,,,,,,,,,,,,,,,
,,,,,,,,,,,X V Q F H G B L J M P D K C T S W R N Z,5e1647f6f52510000a7389b6,37,Mężczyzna,2022-06-11_09h11.42.432,task,2021.1.4,Win32,60.23370678,6299f149e92ead563fba08ef,62a4401eb39d04abc39ed1c6,,,,,,,,,,,,,,,,,,,,,,,,,,,,,,,,,,,,,,,,,,,,,,,,,,,,,,,,,,,,,,,,,,,,,,,,,,,,0,0,0,0,1,,,,,,,,,,,,,,,,,,,,,
,,,,,,,,,,,,5e1647f6f52510000a7389b6,37,Mężczyzna,2022-06-11_09h11.42.432,task,2021.1.4,Win32,60.23370678,6299f149e92ead563fba08ef,62a4401eb39d04abc39ed1c6,,,,,,,,,,,,,6,,,,,,,,,,Task,13,(3x4) - 6,6,,,,,,,,,,,,,,,,,,,1,,,,,,,,,,,,,,,,,,,,,,,"[""6""]",1,[1.9487000002861237],0,0,0,12,1,,,,,,,,,,,,,,,,,,,,,,,,,,
,,,,,,,,,,,X V Q F H G B L J M P D K C T S W R N Z,5e1647f6f52510000a7389b6,37,Mężczyzna,2022-06-11_09h11.42.432,task,2021.1.4,Win32,60.23370678,6299f149e92ead563fba08ef,62a4401eb39d04abc39ed1c6,,,,,,,,,,,,,,,,,,,,,,,,,,,,,,,,,,,,,,,,,,,,,,,,,,,,,,,,,,,,,,,,,,,,,,,,,,,,1,0,1,0,1,,,,,,,,,,,,,,,,,,,,,
,,,,,,,,,,,,5e1647f6f52510000a7389b6,37,Mężczyzna,2022-06-11_09h11.42.432,task,2021.1.4,Win32,60.23370678,6299f149e92ead563fba08ef,62a4401eb39d04abc39ed1c6,,,,,,,,,,,,,6,,,,,,,,,,Task,5,(2x3) + 0,6,,,,,,,,,,,,,,,,,,,1,,,,,,,,,,,,,,,,,,,,,,,"[""6""]",1,[2.2856999998092533],0,0,0,4,1,,,,,,,,,,,,,,,,,,,,,,,,,,
,,,,,,,,,,,X V Q F H G B L J M P D K C T S W R N Z,5e1647f6f52510000a7389b6,37,Mężczyzna,2022-06-11_09h11.42.432,task,2021.1.4,Win32,60.23370678,6299f149e92ead563fba08ef,62a4401eb39d04abc39ed1c6,,,,,,,,,,,,,,,,,,,,,,,,,,,,,,,,,,,,,,,,,,,,,,,,,,,,,,,,,,,,,,,,,,,,,,,,,,,,2,0,2,0,1,,,,,,,,,,,,,,,,,,,,,
,,,,,,,,,,,,5e1647f6f52510000a7389b6,37,Mężczyzna,2022-06-11_09h11.42.432,task,2021.1.4,Win32,60.23370678,6299f149e92ead563fba08ef,62a4401eb39d04abc39ed1c6,,,,,,,,,,,,,,,,,,,,,,,,,,,,,,,,,,,,,,,,,,,,,,,,,,,,,,,,,,,,,,,,,,,,,,,,,,,,,,,,,dqv,"[""d"",""q"",""v""]",0,"[1.202900000095326,1.6356999998092192,2.36929999971386,3.1179000000953465]",1,DQV,1,0,1,0,1,,,,,,,,,,
,,,,,,,,,,,,5e1647f6f52510000a7389b6,37,Mężczyzna,2022-06-11_09h11.42.432,task,2021.1.4,Win32,60.23370678,6299f149e92ead563fba08ef,62a4401eb39d04abc39ed1c6,,,,,,,,,,,,,,,,,,,,,,,Task,38,(4x6) - 17,7,,,,,,,,,,,,,,,,,,,0,,,,,,,,,,,,,,,,,,,,,,,,0,,0,0,0,37,1,,,,,,,,,,,,,,,,,,,,,,,,,,
,,,,,,,,,,,,5e1647f6f52510000a7389b6,37,Mężczyzna,2022-06-11_09h11.42.432,task,2021.1.4,Win32,60.23370678,6299f149e92ead563fba08ef,62a4401eb39d04abc39ed1c6,,,,,,,,,,,,,0,,,,,,,,,,Task,17,(2x3) - 6,0,,,,,,,,,,,,,,,,,,,1,,,,,,,,,,,,,,,,,,,,,,,"[""0""]",1,[2.2443000001907194],0,1,1,16,1,,,,,,,,,,,,,,,,,,,,,,,,,,
,,,,,,,,,,,X V Q F H G B L J M P D K C T S W R N Z,5e1647f6f52510000a7389b6,37,Mężczyzna,2022-06-11_09h11.42.432,task,2021.1.4,Win32,60.23370678,6299f149e92ead563fba08ef,62a4401eb39d04abc39ed1c6,,,,,,,,,,,,,,,,,,,,,,,,,,,,,,,,,,,,,,,,,,,,,,,,,,,,,,,,,,,,,,,,,,,,,,,,,,,,0,0,0,0,1,,,,,,,,,,,,,,,,,,,,,
,,,,,,,,,,,,5e1647f6f52510000a7389b6,37,Mężczyzna,2022-06-11_09h11.42.432,task,2021.1.4,Win32,60.23370678,6299f149e92ead563fba08ef,62a4401eb39d04abc39ed1c6,,,,,,,,,,,,,7,,,,,,,,,,Task,6,(12/2) + 1,7,,,,,,,,,,,,,,,,,,,1,,,,,,,,,,,,,,,,,,,,,,,"[""7""]",1,[1.6429000000953806],0,0,0,5,1,,,,,,,,,,,,,,,,,,,,,,,,,,
,,,,,,,,,,,X V Q F H G B L J M P D K C T S W R N Z,5e1647f6f52510000a7389b6,37,Mężczyzna,2022-06-11_09h11.42.432,task,2021.1.4,Win32,60.23370678,6299f149e92ead563fba08ef,62a4401eb39d04abc39ed1c6,,,,,,,,,,,,,,,,,,,,,,,,,,,,,,,,,,,,,,,,,,,,,,,,,,,,,,,,,,,,,,,,,,,,,,,,,,,,1,0,1,0,1,,,,,,,,,,,,,,,,,,,,,
,,,,,,,,,,,,5e1647f6f52510000a7389b6,37,Mężczyzna,2022-06-11_09h11.42.432,task,2021.1.4,Win32,60.23370678,6299f149e92ead563fba08ef,62a4401eb39d04abc39ed1c6,,,,,,,,,,,,,9,,,,,,,,,,Task,7,(3x7) - 12,9,,,,,,,,,,,,,,,,,,,1,,,,,,,,,,,,,,,,,,,,,,,"[""9""]",1,[2.1660999999046453],0,0,0,6,1,,,,,,,,,,,,,,,,,,,,,,,,,,
,,,,,,,,,,,X V Q F H G B L J M P D K C T S W R N Z,5e1647f6f52510000a7389b6,37,Mężczyzna,2022-06-11_09h11.42.432,task,2021.1.4,Win32,60.23370678,6299f149e92ead563fba08ef,62a4401eb39d04abc39ed1c6,,,,,,,,,,,,,,,,,,,,,,,,,,,,,,,,,,,,,,,,,,,,,,,,,,,,,,,,,,,,,,,,,,,,,,,,,,,,2,0,2,0,1,,,,,,,,,,,,,,,,,,,,,
,,,,,,,,,,,,5e1647f6f52510000a7389b6,37,Mężczyzna,2022-06-11_09h11.42.432,task,2021.1.4,Win32,60.23370678,6299f149e92ead563fba08ef,62a4401eb39d04abc39ed1c6,,,,,,,,,,,,,9,,,,,,,,,,Task,24,(2x2) + 5,9,,,,,,,,,,,,,,,,,,,1,,,,,,,,,,,,,,,,,,,,,,,"[""9""]",1,[1.6004000000953624],0,0,0,23,1,,,,,,,,,,,,,,,,,,,,,,,,,,
,,,,,,,,,,,X V Q F H G B L J M P D K C T S W R N Z,5e1647f6f52510000a7389b6,37,Mężczyzna,2022-06-11_09h11.42.432,task,2021.1.4,Win32,60.23370678,6299f149e92ead563fba08ef,62a4401eb39d04abc39ed1c6,,,,,,,,,,,,,,,,,,,,,,,,,,,,,,,,,,,,,,,,,,,,,,,,,,,,,,,,,,,,,,,,,,,,,,,,,,,,3,0,3,0,1,,,,,,,,,,,,,,,,,,,,,
,,,,,,,,,,,,5e1647f6f52510000a7389b6,37,Mężczyzna,2022-06-11_09h11.42.432,task,2021.1.4,Win32,60.23370678,6299f149e92ead563fba08ef,62a4401eb39d04abc39ed1c6,,,,,,,,,,,,,,,,,,,,,,,,,,,,,,,,,,,,,,,,,,,,,,,,,,,,,,,,,,,,,,,,,,,,,,,,,,,,,,,,,kpkh,"[""k"",""p"",""k"",""h""]",0,"[1.301699999809216,1.468699999809246,1.7191999998092342,2.4680999999046094,2.776099999904602]",1,KPKH,2,0,2,0,1,,,,,,,,,,
,,,,,,,,,,,,5e1647f6f52510000a7389b6,37,Mężczyzna,2022-06-11_09h11.42.432,task,2021.1.4,Win32,60.23370678,6299f149e92ead563fba08ef,62a4401eb39d04abc39ed1c6,,,,,,,,,,,,,2,,,,,,,,,,Task,10,(2x5) - 8,2,,,,,,,,,,,,,,,,,,,1,,,,,,,,,,,,,,,,,,,,,,,"[""2""]",1,[1.6169000000953702],0,0,0,9,1,,,,,,,,,,,,,,,,,,,,,,,,,,
,,,,,,,,,,,X V Q F H G B L J M P D K C T S W R N Z,5e1647f6f52510000a7389b6,37,Mężczyzna,2022-06-11_09h11.42.432,task,2021.1.4,Win32,60.23370678,6299f149e92ead563fba08ef,62a4401eb39d04abc39ed1c6,,,,,,,,,,,,,,,,,,,,,,,,,,,,,,,,,,,,,,,,,,,,,,,,,,,,,,,,,,,,,,,,,,,,,,,,,,,,0,0,0,0,1,,,,,,,,,,,,,,,,,,,,,
,,,,,,,,,,,,5e1647f6f52510000a7389b6,37,Mężczyzna,2022-06-11_09h11.42.432,task,2021.1.4,Win32,60.23370678,6299f149e92ead563fba08ef,62a4401eb39d04abc39ed1c6,,,,,,,,,,,,,2,,,,,,,,,,Task,19,(6/2) - 1,2,,,,,,,,,,,,,,,,,,,1,,,,,,,,,,,,,,,,,,,,,,,"[""2""]",1,[2.2613999996185044],0,0,0,18,1,,,,,,,,,,,,,,,,,,,,,,,,,,
,,,,,,,,,,,X V Q F H G B L J M P D K C T S W R N Z,5e1647f6f52510000a7389b6,37,Mężczyzna,2022-06-11_09h11.42.432,task,2021.1.4,Win32,60.23370678,6299f149e92ead563fba08ef,62a4401eb39d04abc39ed1c6,,,,,,,,,,,,,,,,,,,,,,,,,,,,,,,,,,,,,,,,,,,,,,,,,,,,,,,,,,,,,,,,,,,,,,,,,,,,1,0,1,0,1,,,,,,,,,,,,,,,,,,,,,
,,,,,,,,,,,,5e1647f6f52510000a7389b6,37,Mężczyzna,2022-06-11_09h11.42.432,task,2021.1.4,Win32,60.23370678,6299f149e92ead563fba08ef,62a4401eb39d04abc39ed1c6,,,,,,,,,,,,,2,,,,,,,,,,Task,2,(2x2) - 2,2,,,,,,,,,,,,,,,,,,,1,,,,,,,,,,,,,,,,,,,,,,,"[""2""]",1,[1.1810999999046317],0,0,0,1,1,,,,,,,,,,,,,,,,,,,,,,,,,,
,,,,,,,,,,,X V Q F H G B L J M P D K C T S W R N Z,5e1647f6f52510000a7389b6,37,Mężczyzna,2022-06-11_09h11.42.432,task,2021.1.4,Win32,60.23370678,6299f149e92ead563fba08ef,62a4401eb39d04abc39ed1c6,,,,,,,,,,,,,,,,,,,,,,,,,,,,,,,,,,,,,,,,,,,,,,,,,,,,,,,,,,,,,,,,,,,,,,,,,,,,2,0,2,0,1,,,,,,,,,,,,,,,,,,,,,
,,,,,,,,,,,,5e1647f6f52510000a7389b6,37,Mężczyzna,2022-06-11_09h11.42.432,task,2021.1.4,Win32,60.23370678,6299f149e92ead563fba08ef,62a4401eb39d04abc39ed1c6,,,,,,,,,,,,,2,,,,,,,,,,Task,26,(2x9) - 16,2,,,,,,,,,,,,,,,,,,,1,,,,,,,,,,,,,,,,,,,,,,,"[""2""]",1,[1.660700000286056],0,0,0,25,1,,,,,,,,,,,,,,,,,,,,,,,,,,
,,,,,,,,,,,X V Q F H G B L J M P D K C T S W R N Z,5e1647f6f52510000a7389b6,37,Mężczyzna,2022-06-11_09h11.42.432,task,2021.1.4,Win32,60.23370678,6299f149e92ead563fba08ef,62a4401eb39d04abc39ed1c6,,,,,,,,,,,,,,,,,,,,,,,,,,,,,,,,,,,,,,,,,,,,,,,,,,,,,,,,,,,,,,,,,,,,,,,,,,,,3,0,3,0,1,,,,,,,,,,,,,,,,,,,,,
,,,,,,,,,,,,5e1647f6f52510000a7389b6,37,Mężczyzna,2022-06-11_09h11.42.432,task,2021.1.4,Win32,60.23370678,6299f149e92ead563fba08ef,62a4401eb39d04abc39ed1c6,,,,,,,,,,,,,4,,,,,,,,,,Task,21,(10/2) - 1,4,,,,,,,,,,,,,,,,,,,1,,,,,,,,,,,,,,,,,,,,,,,"[""4""]",1,[1.4345999999046626],0,0,0,20,1,,,,,,,,,,,,,,,,,,,,,,,,,,
,,,,,,,,,,,X V Q F H G B L J M P D K C T S W R N Z,5e1647f6f52510000a7389b6,37,Mężczyzna,2022-06-11_09h11.42.432,task,2021.1.4,Win32,60.23370678,6299f149e92ead563fba08ef,62a4401eb39d04abc39ed1c6,,,,,,,,,,,,,,,,,,,,,,,,,,,,,,,,,,,,,,,,,,,,,,,,,,,,,,,,,,,,,,,,,,,,,,,,,,,,4,0,4,0,1,,,,,,,,,,,,,,,,,,,,,
,,,,,,,,,,,,5e1647f6f52510000a7389b6,37,Mężczyzna,2022-06-11_09h11.42.432,task,2021.1.4,Win32,60.23370678,6299f149e92ead563fba08ef,62a4401eb39d04abc39ed1c6,,,,,,,,,,,,,,,,,,,,,,,,,,,,,,,,,,,,,,,,,,,,,,,,,,,,,,,,,,,,,,,,,,,,,,,,,,,,,,,,,nqbbp,"[""n"",""q"",""b"",""b"",""p""]",0,"[0.9356000003814415,1.3523000001907235,1.6029000000953602,1.7539999999999623,2.546400000095332,2.885100000381442]",1,NQBBP,3,0,3,0,1,,,,,,,,,,
,,,,,,,,,,,,5e1647f6f52510000a7389b6,37,Mężczyzna,2022-06-11_09h11.42.432,task,2021.1.4,Win32,60.23370678,6299f149e92ead563fba08ef,62a4401eb39d04abc39ed1c6,,,,,,,,,,,,,3,,,,,,,,,,Task,27,(3/3) + 2,3,,,,,,,,,,,,,,,,,,,1,,,,,,,,,,,,,,,,,,,,,,,"[""3""]",1,[1.5106999998092192],0,0,0,26,1,,,,,,,,,,,,,,,,,,,,,,,,,,
,,,,,,,,,,,X V Q F H G B L J M P D K C T S W R N Z,5e1647f6f52510000a7389b6,37,Mężczyzna,2022-06-11_09h11.42.432,task,2021.1.4,Win32,60.23370678,6299f149e92ead563fba08ef,62a4401eb39d04abc39ed1c6,,,,,,,,,,,,,,,,,,,,,,,,,,,,,,,,,,,,,,,,,,,,,,,,,,,,,,,,,,,,,,,,,,,,,,,,,,,,0,0,0,0,1,,,,,,,,,,,,,,,,,,,,,
,,,,,,,,,,,,5e1647f6f52510000a7389b6,37,Mężczyzna,2022-06-11_09h11.42.432,task,2021.1.4,Win32,60.23370678,6299f149e92ead563fba08ef,62a4401eb39d04abc39ed1c6,,,,,,,,,,,,,9,,,,,,,,,,Task,40,(7x2) - 5,9,,,,,,,,,,,,,,,,,,,1,,,,,,,,,,,,,,,,,,,,,,,"[""9""]",1,[1.9177999997139068],0,0,0,39,1,,,,,,,,,,,,,,,,,,,,,,,,,,
,,,,,,,,,,,X V Q F H G B L J M P D K C T S W R N Z,5e1647f6f52510000a7389b6,37,Mężczyzna,2022-06-11_09h11.42.432,task,2021.1.4,Win32,60.23370678,6299f149e92ead563fba08ef,62a4401eb39d04abc39ed1c6,,,,,,,,,,,,,,,,,,,,,,,,,,,,,,,,,,,,,,,,,,,,,,,,,,,,,,,,,,,,,,,,,,,,,,,,,,,,1,0,1,0,1,,,,,,,,,,,,,,,,,,,,,
,,,,,,,,,,,,5e1647f6f52510000a7389b6,37,Mężczyzna,2022-06-11_09h11.42.432,task,2021.1.4,Win32,60.23370678,6299f149e92ead563fba08ef,62a4401eb39d04abc39ed1c6,,,,,,,,,,,,,0,,,,,,,,,,Task,17,(2x3) - 6,0,,,,,,,,,,,,,,,,,,,1,,,,,,,,,,,,,,,,,,,,,,,"[""0""]",1,[1.7199000000953788],0,0,0,16,1,,,,,,,,,,,,,,,,,,,,,,,,,,
,,,,,,,,,,,X V Q F H G B L J M P D K C T S W R N Z,5e1647f6f52510000a7389b6,37,Mężczyzna,2022-06-11_09h11.42.432,task,2021.1.4,Win32,60.23370678,6299f149e92ead563fba08ef,62a4401eb39d04abc39ed1c6,,,,,,,,,,,,,,,,,,,,,,,,,,,,,,,,,,,,,,,,,,,,,,,,,,,,,,,,,,,,,,,,,,,,,,,,,,,,2,0,2,0,1,,,,,,,,,,,,,,,,,,,,,
,,,,,,,,,,,,5e1647f6f52510000a7389b6,37,Mężczyzna,2022-06-11_09h11.42.432,task,2021.1.4,Win32,60.23370678,6299f149e92ead563fba08ef,62a4401eb39d04abc39ed1c6,,,,,,,,,,,,,3,,,,,,,,,,Task,27,(3/3) + 2,3,,,,,,,,,,,,,,,,,,,1,,,,,,,,,,,,,,,,,,,,,,,"[""3""]",1,[1.9474000000953993],0,0,0,26,1,,,,,,,,,,,,,,,,,,,,,,,,,,
,,,,,,,,,,,X V Q F H G B L J M P D K C T S W R N Z,5e1647f6f52510000a7389b6,37,Mężczyzna,2022-06-11_09h11.42.432,task,2021.1.4,Win32,60.23370678,6299f149e92ead563fba08ef,62a4401eb39d04abc39ed1c6,,,,,,,,,,,,,,,,,,,,,,,,,,,,,,,,,,,,,,,,,,,,,,,,,,,,,,,,,,,,,,,,,,,,,,,,,,,,3,0,3,0,1,,,,,,,,,,,,,,,,,,,,,
,,,,,,,,,,,,5e1647f6f52510000a7389b6,37,Mężczyzna,2022-06-11_09h11.42.432,task,2021.1.4,Win32,60.23370678,6299f149e92ead563fba08ef,62a4401eb39d04abc39ed1c6,,,,,,,,,,,,,2,,,,,,,,,,Task,10,(2x5) - 8,2,,,,,,,,,,,,,,,,,,,1,,,,,,,,,,,,,,,,,,,,,,,"[""2""]",1,[1.4258000001907476],0,0,0,9,1,,,,,,,,,,,,,,,,,,,,,,,,,,
,,,,,,,,,,,X V Q F H G B L J M P D K C T S W R N Z,5e1647f6f52510000a7389b6,37,Mężczyzna,2022-06-11_09h11.42.432,task,2021.1.4,Win32,60.23370678,6299f149e92ead563fba08ef,62a4401eb39d04abc39ed1c6,,,,,,,,,,,,,,,,,,,,,,,,,,,,,,,,,,,,,,,,,,,,,,,,,,,,,,,,,,,,,,,,,,,,,,,,,,,,4,0,4,0,1,,,,,,,,,,,,,,,,,,,,,
,,,,,,,,,,,,5e1647f6f52510000a7389b6,37,Mężczyzna,2022-06-11_09h11.42.432,task,2021.1.4,Win32,60.23370678,6299f149e92ead563fba08ef,62a4401eb39d04abc39ed1c6,,,,,,,,,,,,,3,,,,,,,,,,Task,3,(2x3) - 3,3,,,,,,,,,,,,,,,,,,,1,,,,,,,,,,,,,,,,,,,,,,,"[""3""]",1,[1.657599999904619],0,0,0,2,1,,,,,,,,,,,,,,,,,,,,,,,,,,
,,,,,,,,,,,X V Q F H G B L J M P D K C T S W R N Z,5e1647f6f52510000a7389b6,37,Mężczyzna,2022-06-11_09h11.42.432,task,2021.1.4,Win32,60.23370678,6299f149e92ead563fba08ef,62a4401eb39d04abc39ed1c6,,,,,,,,,,,,,,,,,,,,,,,,,,,,,,,,,,,,,,,,,,,,,,,,,,,,,,,,,,,,,,,,,,,,,,,,,,,,5,0,5,0,1,,,,,,,,,,,,,,,,,,,,,
,,,,,,,,,,,,5e1647f6f52510000a7389b6,37,Mężczyzna,2022-06-11_09h11.42.432,task,2021.1.4,Win32,60.23370678,6299f149e92ead563fba08ef,62a4401eb39d04abc39ed1c6,,,,,,,,,,,,,,,,,,,,,,,,,,,,,,,,,,,,,,,,,,,,,,,,,,,,,,,,,,,,,,,,,,,,,,,,,,,,,,,,,xfnjbb,"[""x"",""f"",""n"",""j"",""b"",""b""]",0,"[1.5065999999046085,1.9035000000000082,2.1917999997139077,2.3901999998092833,2.9150000000000205,3.0944999999999823,3.871399999618518]",1,XFNJBB,4,0,4,0,1,,,,,,,,,,
,,,,,,,,,,,,5e1647f6f52510000a7389b6,37,Mężczyzna,2022-06-11_09h11.42.432,task,2021.1.4,Win32,60.23370678,6299f149e92ead563fba08ef,62a4401eb39d04abc39ed1c6,,,,,,,,,,,,,3,,,,,,,,,,Task,3,(2x3) - 3,3,,,,,,,,,,,,,,,,,,,1,,,,,,,,,,,,,,,,,,,,,,,"[""3""]",1,[1.1861999998092756],0,0,0,2,1,,,,,,,,,,,,,,,,,,,,,,,,,,
,,,,,,,,,,,X V Q F H G B L J M P D K C T S W R N Z,5e1647f6f52510000a7389b6,37,Mężczyzna,2022-06-11_09h11.42.432,task,2021.1.4,Win32,60.23370678,6299f149e92ead563fba08ef,62a4401eb39d04abc39ed1c6,,,,,,,,,,,,,,,,,,,,,,,,,,,,,,,,,,,,,,,,,,,,,,,,,,,,,,,,,,,,,,,,,,,,,,,,,,,,0,0,0,0,1,,,,,,,,,,,,,,,,,,,,,
,,,,,,,,,,,,5e1647f6f52510000a7389b6,37,Mężczyzna,2022-06-11_09h11.42.432,task,2021.1.4,Win32,60.23370678,6299f149e92ead563fba08ef,62a4401eb39d04abc39ed1c6,,,,,,,,,,,,,7,,,,,,,,,,Task,36,(8/4) + 3,5,,,,,,,,,,,,,,,,,,,0,,,,,,,,,,,,,,,,,,,,,,,"[""7""]",0,[1.9190999999046312],0,0,0,35,1,,,,,,,,,,,,,,,,,,,,,,,,,,
,,,,,,,,,,,,5e1647f6f52510000a7389b6,37,Mężczyzna,2022-06-11_09h11.42.432,task,2021.1.4,Win32,60.23370678,6299f149e92ead563fba08ef,62a4401eb39d04abc39ed1c6,,,,,,,,,,,,,2,,,,,,,,,,Task,26,(2x9) - 16,2,,,,,,,,,,,,,,,,,,,1,,,,,,,,,,,,,,,,,,,,,,,"[""2""]",1,[1.2084999999999582],0,1,1,25,1,,,,,,,,,,,,,,,,,,,,,,,,,,
,,,,,,,,,,,X V Q F H G B L J M P D K C T S W R N Z,5e1647f6f52510000a7389b6,37,Mężczyzna,2022-06-11_09h11.42.432,task,2021.1.4,Win32,60.23370678,6299f149e92ead563fba08ef,62a4401eb39d04abc39ed1c6,,,,,,,,,,,,,,,,,,,,,,,,,,,,,,,,,,,,,,,,,,,,,,,,,,,,,,,,,,,,,,,,,,,,,,,,,,,,1,0,1,0,1,,,,,,,,,,,,,,,,,,,,,
,,,,,,,,,,,,5e1647f6f52510000a7389b6,37,Mężczyzna,2022-06-11_09h11.42.432,task,2021.1.4,Win32,60.23370678,6299f149e92ead563fba08ef,62a4401eb39d04abc39ed1c6,,,,,,,,,,,,,2,,,,,,,,,,Task,28,(2x5) - 6,4,,,,,,,,,,,,,,,,,,,0,,,,,,,,,,,,,,,,,,,,,,,"[""2""]",0,[2.836699999809298],0,0,0,27,1,,,,,,,,,,,,,,,,,,,,,,,,,,
,,,,,,,,,,,,5e1647f6f52510000a7389b6,37,Mężczyzna,2022-06-11_09h11.42.432,task,2021.1.4,Win32,60.23370678,6299f149e92ead563fba08ef,62a4401eb39d04abc39ed1c6,,,,,,,,,,,,,1,,,,,,,,,,Task,1,(12/6) - 1,1,,,,,,,,,,,,,,,,,,,1,,,,,,,,,,,,,,,,,,,,,,,"[""1""]",1,[3.463400000095362],0,1,1,0,1,,,,,,,,,,,,,,,,,,,,,,,,,,
,,,,,,,,,,,X V Q F H G B L J M P D K C T S W R N Z,5e1647f6f52510000a7389b6,37,Mężczyzna,2022-06-11_09h11.42.432,task,2021.1.4,Win32,60.23370678,6299f149e92ead563fba08ef,62a4401eb39d04abc39ed1c6,,,,,,,,,,,,,,,,,,,,,,,,,,,,,,,,,,,,,,,,,,,,,,,,,,,,,,,,,,,,,,,,,,,,,,,,,,,,2,0,2,0,1,,,,,,,,,,,,,,,,,,,,,
,,,,,,,,,,,,5e1647f6f52510000a7389b6,37,Mężczyzna,2022-06-11_09h11.42.432,task,2021.1.4,Win32,60.23370678,6299f149e92ead563fba08ef,62a4401eb39d04abc39ed1c6,,,,,,,,,,,,,0,,,,,,,,,,Task,8,(1x5) - 5,0,,,,,,,,,,,,,,,,,,,1,,,,,,,,,,,,,,,,,,,,,,,"[""0""]",1,[1.950999999999965],0,0,0,7,1,,,,,,,,,,,,,,,,,,,,,,,,,,
,,,,,,,,,,,X V Q F H G B L J M P D K C T S W R N Z,5e1647f6f52510000a7389b6,37,Mężczyzna,2022-06-11_09h11.42.432,task,2021.1.4,Win32,60.23370678,6299f149e92ead563fba08ef,62a4401eb39d04abc39ed1c6,,,,,,,,,,,,,,,,,,,,,,,,,,,,,,,,,,,,,,,,,,,,,,,,,,,,,,,,,,,,,,,,,,,,,,,,,,,,3,0,3,0,1,,,,,,,,,,,,,,,,,,,,,
,,,,,,,,,,,,5e1647f6f52510000a7389b6,37,Mężczyzna,2022-06-11_09h11.42.432,task,2021.1.4,Win32,60.23370678,6299f149e92ead563fba08ef,62a4401eb39d04abc39ed1c6,,,,,,,,,,,,,9,,,,,,,,,,Task,29,(3x8) - 19 ,5,,,,,,,,,,,,,,,,,,,0,,,,,,,,,,,,,,,,,,,,,,,"[""9""]",0,[3.914599999904624],0,0,0,28,1,,,,,,,,,,,,,,,,,,,,,,,,,,
,,,,,,,,,,,,5e1647f6f52510000a7389b6,37,Mężczyzna,2022-06-11_09h11.42.432,task,2021.1.4,Win32,60.23370678,6299f149e92ead563fba08ef,62a4401eb39d04abc39ed1c6,,,,,,,,,,,,,3,,,,,,,,,,Task,35,(1x2) + 1,3,,,,,,,,,,,,,,,,,,,1,,,,,,,,,,,,,,,,,,,,,,,"[""3""]",1,[2.569199999809257],0,1,1,34,1,,,,,,,,,,,,,,,,,,,,,,,,,,
,,,,,,,,,,,X V Q F H G B L J M P D K C T S W R N Z,5e1647f6f52510000a7389b6,37,Mężczyzna,2022-06-11_09h11.42.432,task,2021.1.4,Win32,60.23370678,6299f149e92ead563fba08ef,62a4401eb39d04abc39ed1c6,,,,,,,,,,,,,,,,,,,,,,,,,,,,,,,,,,,,,,,,,,,,,,,,,,,,,,,,,,,,,,,,,,,,,,,,,,,,4,0,4,0,1,,,,,,,,,,,,,,,,,,,,,
,,,,,,,,,,,,5e1647f6f52510000a7389b6,37,Mężczyzna,2022-06-11_09h11.42.432,task,2021.1.4,Win32,60.23370678,6299f149e92ead563fba08ef,62a4401eb39d04abc39ed1c6,,,,,,,,,,,,,2,,,,,,,,,,Task,10,(2x5) - 8,2,,,,,,,,,,,,,,,,,,,1,,,,,,,,,,,,,,,,,,,,,,,"[""2""]",1,[1.4757000002861105],0,0,0,9,1,,,,,,,,,,,,,,,,,,,,,,,,,,
,,,,,,,,,,,X V Q F H G B L J M P D K C T S W R N Z,5e1647f6f52510000a7389b6,37,Mężczyzna,2022-06-11_09h11.42.432,task,2021.1.4,Win32,60.23370678,6299f149e92ead563fba08ef,62a4401eb39d04abc39ed1c6,,,,,,,,,,,,,,,,,,,,,,,,,,,,,,,,,,,,,,,,,,,,,,,,,,,,,,,,,,,,,,,,,,,,,,,,,,,,5,0,5,0,1,,,,,,,,,,,,,,,,,,,,,
,,,,,,,,,,,,5e1647f6f52510000a7389b6,37,Mężczyzna,2022-06-11_09h11.42.432,task,2021.1.4,Win32,60.23370678,6299f149e92ead563fba08ef,62a4401eb39d04abc39ed1c6,,,,,,,,,,,,,1,,,,,,,,,,Task,34,(9/3) - 2,1,,,,,,,,,,,,,,,,,,,1,,,,,,,,,,,,,,,,,,,,,,,"[""1""]",1,[2.3485000000000014],0,0,0,33,1,,,,,,,,,,,,,,,,,,,,,,,,,,
,,,,,,,,,,,X V Q F H G B L J M P D K C T S W R N Z,5e1647f6f52510000a7389b6,37,Mężczyzna,2022-06-11_09h11.42.432,task,2021.1.4,Win32,60.23370678,6299f149e92ead563fba08ef,62a4401eb39d04abc39ed1c6,,,,,,,,,,,,,,,,,,,,,,,,,,,,,,,,,,,,,,,,,,,,,,,,,,,,,,,,,,,,,,,,,,,,,,,,,,,,6,0,6,0,1,,,,,,,,,,,,,,,,,,,,,
,,,,,,,,,,,,5e1647f6f52510000a7389b6,37,Mężczyzna,2022-06-11_09h11.42.432,task,2021.1.4,Win32,60.23370678,6299f149e92ead563fba08ef,62a4401eb39d04abc39ed1c6,,,,,,,,,,,,,,,,,,,,,,,,,,,,,,,,,,,,,,,,,,,,,,,,,,,,,,,,,,,,,,,,,,,,,,,,,,,,,,,,,bxgn,"[""b"",""x"",""g"",""n""]",0,"[3.719500000000039,4.07039999961853,4.487199999809263,4.659699999809277,6.419299999713928]",0,HLGWZDG,5,0,5,0,1,,,,,,,,,,
,,,,,,,,,,,,5e1647f6f52510000a7389b6,37,Mężczyzna,2022-06-11_09h11.42.432,task,2021.1.4,Win32,60.23370678,6299f149e92ead563fba08ef,62a4401eb39d04abc39ed1c6,,,,,,,,,,,,,1,,,,,,,,,,Task,19,(6/2) - 1,2,,,,,,,,,,,,,,,,,,,0,,,,,,,,,,,,,,,,,,,,,,,"[""1""]",0,[3.1555000000000177],0,0,0,18,1,,,,,,,,,,,,,,,,,,,,,,,,,,
,,,,,,,,,,,,5e1647f6f52510000a7389b6,37,Mężczyzna,2022-06-11_09h11.42.432,task,2021.1.4,Win32,60.23370678,6299f149e92ead563fba08ef,62a4401eb39d04abc39ed1c6,,,,,,,,,,,,,9,,,,,,,,,,Task,16,(3x8) - 15,9,,,,,,,,,,,,,,,,,,,1,,,,,,,,,,,,,,,,,,,,,,,"[""9""]",1,[3.080300000190732],0,1,1,15,1,,,,,,,,,,,,,,,,,,,,,,,,,,
,,,,,,,,,,,X V Q F H G B L J M P D K C T S W R N Z,5e1647f6f52510000a7389b6,37,Mężczyzna,2022-06-11_09h11.42.432,task,2021.1.4,Win32,60.23370678,6299f149e92ead563fba08ef,62a4401eb39d04abc39ed1c6,,,,,,,,,,,,,,,,,,,,,,,,,,,,,,,,,,,,,,,,,,,,,,,,,,,,,,,,,,,,,,,,,,,,,,,,,,,,0,0,0,0,1,,,,,,,,,,,,,,,,,,,,,
,,,,,,,,,,,,5e1647f6f52510000a7389b6,37,Mężczyzna,2022-06-11_09h11.42.432,task,2021.1.4,Win32,60.23370678,6299f149e92ead563fba08ef,62a4401eb39d04abc39ed1c6,,,,,,,,,,,,,6,,,,,,,,,,Task,30,(6/3) + 4 ,6,,,,,,,,,,,,,,,,,,,1,,,,,,,,,,,,,,,,,,,,,,,"[""6""]",1,[1.795000000000016],0,0,0,29,1,,,,,,,,,,,,,,,,,,,,,,,,,,
,,,,,,,,,,,X V Q F H G B L J M P D K C T S W R N Z,5e1647f6f52510000a7389b6,37,Mężczyzna,2022-06-11_09h11.42.432,task,2021.1.4,Win32,60.23370678,6299f149e92ead563fba08ef,62a4401eb39d04abc39ed1c6,,,,,,,,,,,,,,,,,,,,,,,,,,,,,,,,,,,,,,,,,,,,,,,,,,,,,,,,,,,,,,,,,,,,,,,,,,,,1,0,1,0,1,,,,,,,,,,,,,,,,,,,,,
,,,,,,,,,,,,5e1647f6f52510000a7389b6,37,Mężczyzna,2022-06-11_09h11.42.432,task,2021.1.4,Win32,60.23370678,6299f149e92ead563fba08ef,62a4401eb39d04abc39ed1c6,,,,,,,,,,,,,8,,,,,,,,,,Task,23,(2x3) + 2,8,,,,,,,,,,,,,,,,,,,1,,,,,,,,,,,,,,,,,,,,,,,"[""8""]",1,[1.7891999998092842],0,0,0,22,1,,,,,,,,,,,,,,,,,,,,,,,,,,
,,,,,,,,,,,X V Q F H G B L J M P D K C T S W R N Z,5e1647f6f52510000a7389b6,37,Mężczyzna,2022-06-11_09h11.42.432,task,2021.1.4,Win32,60.23370678,6299f149e92ead563fba08ef,62a4401eb39d04abc39ed1c6,,,,,,,,,,,,,,,,,,,,,,,,,,,,,,,,,,,,,,,,,,,,,,,,,,,,,,,,,,,,,,,,,,,,,,,,,,,,2,0,2,0,1,,,,,,,,,,,,,,,,,,,,,
,,,,,,,,,,,,5e1647f6f52510000a7389b6,37,Mężczyzna,2022-06-11_09h11.42.432,task,2021.1.4,Win32,60.23370678,6299f149e92ead563fba08ef,62a4401eb39d04abc39ed1c6,,,,,,,,,,,,,4,,,,,,,,,,Task,21,(10/2) - 1,4,,,,,,,,,,,,,,,,,,,1,,,,,,,,,,,,,,,,,,,,,,,"[""4""]",1,[1.3127999997138886],0,0,0,20,1,,,,,,,,,,,,,,,,,,,,,,,,,,
,,,,,,,,,,,X V Q F H G B L J M P D K C T S W R N Z,5e1647f6f52510000a7389b6,37,Mężczyzna,2022-06-11_09h11.42.432,task,2021.1.4,Win32,60.23370678,6299f149e92ead563fba08ef,62a4401eb39d04abc39ed1c6,,,,,,,,,,,,,,,,,,,,,,,,,,,,,,,,,,,,,,,,,,,,,,,,,,,,,,,,,,,,,,,,,,,,,,,,,,,,3,0,3,0,1,,,,,,,,,,,,,,,,,,,,,
,,,,,,,,,,,,5e1647f6f52510000a7389b6,37,Mężczyzna,2022-06-11_09h11.42.432,task,2021.1.4,Win32,60.23370678,6299f149e92ead563fba08ef,62a4401eb39d04abc39ed1c6,,,,,,,,,,,,,3,,,,,,,,,,Task,20,(18/9) + 1,3,,,,,,,,,,,,,,,,,,,1,,,,,,,,,,,,,,,,,,,,,,,"[""3""]",1,[1.6413000001907676],0,0,0,19,1,,,,,,,,,,,,,,,,,,,,,,,,,,
,,,,,,,,,,,X V Q F H G B L J M P D K C T S W R N Z,5e1647f6f52510000a7389b6,37,Mężczyzna,2022-06-11_09h11.42.432,task,2021.1.4,Win32,60.23370678,6299f149e92ead563fba08ef,62a4401eb39d04abc39ed1c6,,,,,,,,,,,,,,,,,,,,,,,,,,,,,,,,,,,,,,,,,,,,,,,,,,,,,,,,,,,,,,,,,,,,,,,,,,,,4,0,4,0,1,,,,,,,,,,,,,,,,,,,,,
,,,,,,,,,,,,5e1647f6f52510000a7389b6,37,Mężczyzna,2022-06-11_09h11.42.432,task,2021.1.4,Win32,60.23370678,6299f149e92ead563fba08ef,62a4401eb39d04abc39ed1c6,,,,,,,,,,,,,6,,,,,,,,,,Task,5,(2x3) + 0,6,,,,,,,,,,,,,,,,,,,1,,,,,,,,,,,,,,,,,,,,,,,"[""6""]",1,[1.5480000000000018],0,0,0,4,1,,,,,,,,,,,,,,,,,,,,,,,,,,
,,,,,,,,,,,X V Q F H G B L J M P D K C T S W R N Z,5e1647f6f52510000a7389b6,37,Mężczyzna,2022-06-11_09h11.42.432,task,2021.1.4,Win32,60.23370678,6299f149e92ead563fba08ef,62a4401eb39d04abc39ed1c6,,,,,,,,,,,,,,,,,,,,,,,,,,,,,,,,,,,,,,,,,,,,,,,,,,,,,,,,,,,,,,,,,,,,,,,,,,,,5,0,5,0,1,,,,,,,,,,,,,,,,,,,,,
,,,,,,,,,,,,5e1647f6f52510000a7389b6,37,Mężczyzna,2022-06-11_09h11.42.432,task,2021.1.4,Win32,60.23370678,6299f149e92ead563fba08ef,62a4401eb39d04abc39ed1c6,,,,,,,,,,,,,2,,,,,,,,,,Task,34,(9/3) - 2,1,,,,,,,,,,,,,,,,,,,0,,,,,,,,,,,,,,,,,,,,,,,"[""2""]",0,[2.5434999999999945],0,0,0,33,1,,,,,,,,,,,,,,,,,,,,,,,,,,
,,,,,,,,,,,,5e1647f6f52510000a7389b6,37,Mężczyzna,2022-06-11_09h11.42.432,task,2021.1.4,Win32,60.23370678,6299f149e92ead563fba08ef,62a4401eb39d04abc39ed1c6,,,,,,,,,,,,,4,,,,,,,,,,Task,4,(1x5) - 1,4,,,,,,,,,,,,,,,,,,,1,,,,,,,,,,,,,,,,,,,,,,,"[""4""]",1,[1.682900000095401],0,1,1,3,1,,,,,,,,,,,,,,,,,,,,,,,,,,
,,,,,,,,,,,X V Q F H G B L J M P D K C T S W R N Z,5e1647f6f52510000a7389b6,37,Mężczyzna,2022-06-11_09h11.42.432,task,2021.1.4,Win32,60.23370678,6299f149e92ead563fba08ef,62a4401eb39d04abc39ed1c6,,,,,,,,,,,,,,,,,,,,,,,,,,,,,,,,,,,,,,,,,,,,,,,,,,,,,,,,,,,,,,,,,,,,,,,,,,,,6,0,6,0,1,,,,,,,,,,,,,,,,,,,,,
,,,,,,,,,,,,5e1647f6f52510000a7389b6,37,Mężczyzna,2022-06-11_09h11.42.432,task,2021.1.4,Win32,60.23370678,6299f149e92ead563fba08ef,62a4401eb39d04abc39ed1c6,,,,,,,,,,,,,,,,,,,,,,,,,,,,,,,,,,,,,,,,,,,,,,,,,,,,,,,,,,,,,,,,,,,,,,,,,,,,,,,,,mmlxjpj,"[""m"",""m"",""l"",""x"",""j"",""p"",""j""]",0,"[1.2361999998091733,1.8004999999999427,2.2858999996184366,2.804899999618442,3.2532999997138177,3.5904999999999063,3.919899999618451,5.074499999999944]",0,MMLJXPJ,6,0,6,0,1,,,,,,,,,,
,,,,,,,,,,,,5e1647f6f52510000a7389b6,37,Mężczyzna,2022-06-11_09h11.42.432,task,2021.1.4,Win32,60.23370678,6299f149e92ead563fba08ef,62a4401eb39d04abc39ed1c6,,,,,,,,,,,,,,,,,,,,,,,,,,,,,,,,,,,,,,,,,,,,,,,,,,,,,,,,,,,,,,,,,,,,,,,,,,,,,,,,,,,,,,,,,,,,"[""comma""]",0,[0.991400000095382],0,0,0,0,1,,
,,,,,,,,,,,,5e1647f6f52510000a7389b6,37,Mężczyzna,2022-06-11_09h11.42.432,task,2021.1.4,Win32,60.23370678,6299f149e92ead563fba08ef,62a4401eb39d04abc39ed1c6,,,,,,,,,,,,,,,,,,,,,,,,,,,,,,,,,,,,,,,,,,,,,,,,,,,,,,,,,,,,,,,,,,,,,,,,,,,,,,,,,,,,,,,,,,,,"[""comma""]",0,[1.2845999999045716],1,0,1,0,1,,
,,,,,,,,,,,,5e1647f6f52510000a7389b6,37,Mężczyzna,2022-06-11_09h11.42.432,task,2021.1.4,Win32,60.23370678,6299f149e92ead563fba08ef,62a4401eb39d04abc39ed1c6,,,,,,,,,,,,,,,,,,,,,,,,,,,,,,,,,,,,,,,,,,,,,,,,,,,,,,,,,,,,,,,,,,,,,,,,,,,,,,,,,,,,,,,,,,,,"[""period""]",0,[0.5542000002860732],2,0,2,0,1,,
,,,,,,,,,,,,5e1647f6f52510000a7389b6,37,Mężczyzna,2022-06-11_09h11.42.432,task,2021.1.4,Win32,60.23370678,6299f149e92ead563fba08ef,62a4401eb39d04abc39ed1c6,,,,,,,,,,,,,,,,,,,,,,,,,,,,,,,,,,,,,,,,,,,,,,,,,,,,,,,,,,,,,,,,,,,,,,,,,,,,,,,,,,,,,,,,,,,,"[""comma""]",0,[0.616400000095382],3,0,3,0,1,,
,,,,,,,,,,,,5e1647f6f52510000a7389b6,37,Mężczyzna,2022-06-11_09h11.42.432,task,2021.1.4,Win32,60.23370678,6299f149e92ead563fba08ef,62a4401eb39d04abc39ed1c6,,,,,,,,,,,,,,,,,,,,,,,,,,,,,,,,,,,,,,,,,,,,,,,,,,,,,,,,,,,,,,,,,,,,,,,,,,,,,,,,,,,,,,,,,,,,"[""period""]",0,[0.43509999990453707],4,0,4,0,1,,
,,,,,,,,,,,,5e1647f6f52510000a7389b6,37,Mężczyzna,2022-06-11_09h11.42.432,task,2021.1.4,Win32,60.23370678,6299f149e92ead563fba08ef,62a4401eb39d04abc39ed1c6,,,,,,,,,,,,,,,,,,,,,,,,,,,,,,,,,,,,,,,,,,,,,,,,,,,,,,,,,,,,,,,,,,,,,,,,,,,,,,,,,,,,,,,,,,,,"[""comma""]",0,[0.7010999999046135],5,0,5,0,1,,
,,,,,,,,,,,,5e1647f6f52510000a7389b6,37,Mężczyzna,2022-06-11_09h11.42.432,task,2021.1.4,Win32,60.23370678,6299f149e92ead563fba08ef,62a4401eb39d04abc39ed1c6,,,,,,,,,,,,,,,,,,,,,,,,,,,,,,,,,,,,,,,,,,,,,,,,,,,,,,,,,,,,,,,,,,,,,,,,,,,,,,,,,,,,,,,,,,,,"[""period""]",0,[1.1842000002860686],6,0,6,0,1,,
,,,,,,,,,,,,5e1647f6f52510000a7389b6,37,Mężczyzna,2022-06-11_09h11.42.432,task,2021.1.4,Win32,60.23370678,6299f149e92ead563fba08ef,62a4401eb39d04abc39ed1c6,,,,,,,,,,,,,,,,,,,,,,,,,,,,,,,,,,,,,,,,,,,,,,,,,,,,,,,,,,,,,,,,,,,,,,,,,,,,,,,,,,,,,,,,,,,,"[""period""]",0,[0.9509000000954302],7,0,7,0,1,,
,,,,,,,,,,,,5e1647f6f52510000a7389b6,37,Mężczyzna,2022-06-11_09h11.42.432,task,2021.1.4,Win32,60.23370678,6299f149e92ead563fba08ef,62a4401eb39d04abc39ed1c6,,,,,,,,,,,,,,,,,,,,,,,,,,,,,,,,,,,,,,,,,,,,,,,,,,,,,,,,,,,,,,,,,,,,,,,,,,,,,,,,,,,,,,,,,,,,"[""comma""]",0,[0.6265000000000782],8,0,8,0,1,,
,,,,,,,,,,,,5e1647f6f52510000a7389b6,37,Mężczyzna,2022-06-11_09h11.42.432,task,2021.1.4,Win32,60.23370678,6299f149e92ead563fba08ef,62a4401eb39d04abc39ed1c6,,,,,,,,,,,,,,,,,,,,,,,,,,,,,,,,,,,,,,,,,,,,,,,,,,,,,,,,,,,,,,,,,,,,,,,,,,,,,,,,,,,,,,,,,,,,"[""comma""]",0,[0.7511999998092733],9,0,9,0,1,,
,,,,,,,,,,,,5e1647f6f52510000a7389b6,37,Mężczyzna,2022-06-11_09h11.42.432,task,2021.1.4,Win32,60.23370678,6299f149e92ead563fba08ef,62a4401eb39d04abc39ed1c6,,,,,,,,,,,,,,,,,,,,,,,,,,,,,,,,,,,,,,,,,,,,,,,,,,,,,,,,,,,,,,,,,,,,,,,,,,,,,,,,,,,,,,,,,,,,"[""period""]",0,[0.5840999999046517],10,0,10,0,1,,
,,,,,,,,,,,,5e1647f6f52510000a7389b6,37,Mężczyzna,2022-06-11_09h11.42.432,task,2021.1.4,Win32,60.23370678,6299f149e92ead563fba08ef,62a4401eb39d04abc39ed1c6,,,,,,,,,,,,,,,,,,,,,,,,,,,,,,,,,,,,,,,,,,,,,,,,,,,,,,,,,,,,,,,,,,,,,,,,,,,,,,,,,,,,,,,,,,,,"[""comma""]",0,[0.6585000000000036],11,0,11,0,1,,
,,,,,,,,,,,,5e1647f6f52510000a7389b6,37,Mężczyzna,2022-06-11_09h11.42.432,task,2021.1.4,Win32,60.23370678,6299f149e92ead563fba08ef,62a4401eb39d04abc39ed1c6,,,,,,,,,,,,,,,,,,,,,,,,,,,,,,,,,,,,,,,,,,,,,,,,,,,,,,,,,,,,,,,,,,,,,,,,,,,,,,,,,,,,,,,,,,,,"[""comma""]",0,[1.1195999999047217],12,0,12,0,1,,
,,,,,,,,,,,,5e1647f6f52510000a7389b6,37,Mężczyzna,2022-06-11_09h11.42.432,task,2021.1.4,Win32,60.23370678,6299f149e92ead563fba08ef,62a4401eb39d04abc39ed1c6,,,,,,,,,,,,,,,,,,,,,,,,,,,,,,,,,,,,,,,,,,,,,,,,,,,,,,,,,,,,,,,,,,,,,,,,,,,,,,,,,,,,,,,,,,,,"[""period""]",0,[1.3010999999046362],13,0,13,0,1,,
,,,,,,,,,,,,5e1647f6f52510000a7389b6,37,Mężczyzna,2022-06-11_09h11.42.432,task,2021.1.4,Win32,60.23370678,6299f149e92ead563fba08ef,62a4401eb39d04abc39ed1c6,,,,,,,,,,,,,,,,,,,,,,,,,,,,,,,,,,,,,,,,,,,,,,,,,,,,,,,,,,,,,,,,,,,,,,,,,,,,,,,,,,,,,,,,,,,,"[""period""]",0,[1.1884999999999764],14,0,14,0,1,,
,,,,,,,,,,,,5e1647f6f52510000a7389b6,37,Mężczyzna,2022-06-11_09h11.42.432,task,2021.1.4,Win32,60.23370678,6299f149e92ead563fba08ef,62a4401eb39d04abc39ed1c6,,,,,,,,,,,,,,,,,,,,,,,,,,,,,,,,,,,,,,,,,,,,,,,,,,,,,,,,,,,,,,,,,,,,,,,,,,,,,,,,,,,,,,,,,,,,"[""period""]",0,[1.2523999996185466],15,0,15,0,1,,
,,,,,,,,,,,,5e1647f6f52510000a7389b6,37,Mężczyzna,2022-06-11_09h11.42.432,task,2021.1.4,Win32,60.23370678,6299f149e92ead563fba08ef,62a4401eb39d04abc39ed1c6,,,,,,,,,,,,,,,,,,,,,,,,,,,,,,,,,,,,,,,,,,,,,,,,,,,,,,,,,,,,,,,,,,,,,,,,,,,,,,,,,,,,,,,,,,,,"[""comma""]",0,[0.817700000286095],16,0,16,0,1,,
,,,,,,,,,,,,5e1647f6f52510000a7389b6,37,Mężczyzna,2022-06-11_09h11.42.432,task,2021.1.4,Win32,60.23370678,6299f149e92ead563fba08ef,62a4401eb39d04abc39ed1c6,,,,,,,,,,,,,,,,,,,,,,,,,,,,,,,,,,,,,,,,,,,,,,,,,,,,,,,,,,,,,,,,,,,,,,,,,,,,,,,,,,,,,,,,,,,,"[""period""]",0,[0.7009000000954302],17,0,17,0,1,,
,,,,,,,,,,,,5e1647f6f52510000a7389b6,37,Mężczyzna,2022-06-11_09h11.42.432,task,2021.1.4,Win32,60.23370678,6299f149e92ead563fba08ef,62a4401eb39d04abc39ed1c6,,,,,,,,,,,,,,,,,,,,,,,,,,,,,,,,,,,,,,,,,,,,,,,,,,,,,,,,,,,,,,,,,,,,,,,,,,,,,,,,,,,,,,,,,,,,"[""comma""]",0,[0.6855999999046389],18,0,18,0,1,,
,,,,,,,,,,,,5e1647f6f52510000a7389b6,37,Mężczyzna,2022-06-11_09h11.42.432,task,2021.1.4,Win32,60.23370678,6299f149e92ead563fba08ef,62a4401eb39d04abc39ed1c6,,,,,,,,,,,,,,,,,,,,,,,,,,,,,,,,,,,,,,,,,,,,,,,,,,,,,,,,,,,,,,,,,,,,,,,,,,,,,,,,,,,,,,,,,,,,"[""comma""]",0,[1.301499999999919],19,0,19,0,1,,
,,,,,,,,,,,,5e1647f6f52510000a7389b6,37,Mężczyzna,2022-06-11_09h11.42.432,task,2021.1.4,Win32,60.23370678,6299f149e92ead563fba08ef,62a4401eb39d04abc39ed1c6,,,,,,,,,,,,,,,,,,,,,,,,,,,,,,,,,,,,,,,,,,,,,,,,,,,,,,,,,,,,,,,,,,,,,,,,,,,,,,,,,,,,,,,,,,,,"[""period""]",0,[1.2404999999999973],20,0,20,0,1,,
,,,,,,,,,,,,5e1647f6f52510000a7389b6,37,Mężczyzna,2022-06-11_09h11.42.432,task,2021.1.4,Win32,60.23370678,6299f149e92ead563fba08ef,62a4401eb39d04abc39ed1c6,,,,,,,,,,,,,,,,,,,,,,,,,,,,,,,,,,,,,,,,,,,,,,,,,,,,,,,,,,,,,,,,,,,,,,,,,,,,,,,,,,,,,,,,,,,,"[""comma""]",0,[1.2005000000000337],21,0,21,0,1,,
,,,,,,,,,,,,5e1647f6f52510000a7389b6,37,Mężczyzna,2022-06-11_09h11.42.432,task,2021.1.4,Win32,60.23370678,6299f149e92ead563fba08ef,62a4401eb39d04abc39ed1c6,,,,,,,,,,,,,,,,,,,,,,,,,,,,,,,,,,,,,,,,,,,,,,,,,,,,,,,,,,,,,,,,,,,,,,,,,,,,,,,,,,,,,,,,,,,,"[""comma""]",0,[1.1844999999999573],22,0,22,0,1,,
,,,,,,,,,,,,5e1647f6f52510000a7389b6,37,Mężczyzna,2022-06-11_09h11.42.432,task,2021.1.4,Win32,60.23370678,6299f149e92ead563fba08ef,62a4401eb39d04abc39ed1c6,,,,,,,,,,,,,,,,,,,,,,,,,,,,,,,,,,,,,,,,,,,,,,,,,,,,,,,,,,,,,,,,,,,,,,,,,,,,,,,,,,,,,,,,,,,,"[""comma""]",0,[1.1242000002861232],23,0,23,0,1,,
,,,,,,,,,,,,5e1647f6f52510000a7389b6,37,Mężczyzna,2022-06-11_09h11.42.432,task,2021.1.4,Win32,60.23370678,6299f149e92ead563fba08ef,62a4401eb39d04abc39ed1c6,,,,,,,,,,,,,,,,,,,,,,,,,,,,,,,,,,,,,,,,,,,,,,,,,,,,,,,,,,,,,,,,,,,,,,,,,,,,,,,,,,,,,,,,,,,,"[""period""]",0,[1.2229999999999563],24,0,24,0,1,,
,,,,,,,,,,,,5e1647f6f52510000a7389b6,37,Mężczyzna,2022-06-11_09h11.42.432,task,2021.1.4,Win32,60.23370678,6299f149e92ead563fba08ef,62a4401eb39d04abc39ed1c6,,,,,,,,,,,,,,,,,,,,,,,,,,,,,,,,,,,,,,,,,,,,,,,,,,,,,,,,,,,,,,,,,,,,,,,,,,,,,,,,,,,,,,,,,,,,"[""comma""]",0,[1.3679000000953465],25,0,25,0,1,,
,,,,,,,,,,,,5e1647f6f52510000a7389b6,37,Mężczyzna,2022-06-11_09h11.42.432,task,2021.1.4,Win32,60.23370678,6299f149e92ead563fba08ef,62a4401eb39d04abc39ed1c6,,,,,,,,,,,,,,,,,,,,,,,,,,,,,,,,,,,,,,,,,,,,,,,,,,,,,,,,,,,,,,,,,,,,,,,,,,,,,,,,,,,,,,,,,,,,"[""period""]",0,[1.1987999997138559],26,0,26,0,1,,
,,,,,,,,,,,,5e1647f6f52510000a7389b6,37,Mężczyzna,2022-06-11_09h11.42.432,task,2021.1.4,Win32,60.23370678,6299f149e92ead563fba08ef,62a4401eb39d04abc39ed1c6,,,,,,,,,,,,,,,,,,,,,,,,,,,,,,,,,,,,,,,,,,,,,,,,,,,,,,,,,,,,,,,,,,,,,,,,,,,,,,,,,,,,,,,,,,,,"[""comma""]",0,[1.3275999999046917],27,0,27,0,1,,
,,,,,,,,,,,,5e1647f6f52510000a7389b6,37,Mężczyzna,2022-06-11_09h11.42.432,task,2021.1.4,Win32,60.23370678,6299f149e92ead563fba08ef,62a4401eb39d04abc39ed1c6,,,,,,,,,,,,,,,,,,,,,,,,,,,,,,,,,,,,,,,,,,,,,,,,,,,,,,,,,,,,,,,,,,,,,,,,,,,,,,,,,,,,,,,,,,,,"[""period""]",0,[1.0813000001907085],28,0,28,0,1,,
,,,,,,,,,,,,5e1647f6f52510000a7389b6,37,Mężczyzna,2022-06-11_09h11.42.432,task,2021.1.4,Win32,60.23370678,6299f149e92ead563fba08ef,62a4401eb39d04abc39ed1c6,,,,,,,,,,,,,,,,,,,,,,,,,,,,,,,,,,,,,,,,,,,,,,,,,,,,,,,,,,,,,,,,,,,,,,,,,,,,,,,,,,,,,,,,,,,,"[""period""]",0,[1.2047999997139414],29,0,29,0,1,,
,,,,,,,,,,,,5e1647f6f52510000a7389b6,37,Mężczyzna,2022-06-11_09h11.42.432,task,2021.1.4,Win32,60.23370678,6299f149e92ead563fba08ef,62a4401eb39d04abc39ed1c6,,,,,,,,,,,,,,,,,,,,,,,,,,,,,,,,,,,,,,,,,,,,,,,,,,,,,,,,,,,,,,,,,,,,,,,,,,,,,,,,,,,,,,,,,,,,"[""comma""]",0,[1.5716999998093115],30,0,30,0,1,,
,,,,,,,,,,,,5e1647f6f52510000a7389b6,37,Mężczyzna,2022-06-11_09h11.42.432,task,2021.1.4,Win32,60.23370678,6299f149e92ead563fba08ef,62a4401eb39d04abc39ed1c6,,,,,,,,,,,,,,,,,,,,,,,,,,,,,,,,,,,,,,,,,,,,,,,,,,,,,,,,,,,,,,,,,,,,,,,,,,,,,,,,,,,,,,,,,,,,"[""period""]",0,[1.1200000000000045],31,0,31,0,1,,
,,,,,,,,,,,,5e1647f6f52510000a7389b6,37,Mężczyzna,2022-06-11_09h11.42.432,task,2021.1.4,Win32,60.23370678,6299f149e92ead563fba08ef,62a4401eb39d04abc39ed1c6,,,,,,,,,,,,,,,,,,,,,,,,,,,,,,,,,,,,,,,,,,,,,,,,,,,,,,,,,,,,,,,,,,,,,,,,,,,,,,,,,,,,,,,,,,,,"[""period""]",0,[1.2513000001906676],32,0,32,0,1,,
,,,,,,,,,,,,5e1647f6f52510000a7389b6,37,Mężczyzna,2022-06-11_09h11.42.432,task,2021.1.4,Win32,60.23370678,6299f149e92ead563fba08ef,62a4401eb39d04abc39ed1c6,,,,,,,,,,,,,,,,,,,,,,,,,,,,,,,,,,,,,,,,,,,,,,,,,,,,,,,,,,,,,,,,,,,,,,,,,,,,,,,,,,,,,,,,,,,,"[""comma""]",0,[1.1997000002860432],33,0,33,0,1,,
,,,,,,,,,,,,5e1647f6f52510000a7389b6,37,Mężczyzna,2022-06-11_09h11.42.432,task,2021.1.4,Win32,60.23370678,6299f149e92ead563fba08ef,62a4401eb39d04abc39ed1c6,,,,,,,,,,,,,,,,,,,,,,,,,,,,,,,,,,,,,,,,,,,,,,,,,,,,,,,,,,,,,,,,,,,,,,,,,,,,,,,,,,,,,,,,,,,,"[""comma""]",0,[1.245999999999981],34,0,34,0,1,,
,,,,,,,,,,,,5e1647f6f52510000a7389b6,37,Mężczyzna,2022-06-11_09h11.42.432,task,2021.1.4,Win32,60.23370678,6299f149e92ead563fba08ef,62a4401eb39d04abc39ed1c6,,,,,,,,,,,,,,,,,,,,,,,,,,,,,,,,,,,,,,,,,,,,,,,,,,,,,,,,,,,,,,,,,,,,,,,,,,,,,,,,,,,,,,,,,,,,"[""period""]",0,[1.2830000000000155],35,0,35,0,1,,
,,,,,,,,,,,,5e1647f6f52510000a7389b6,37,Mężczyzna,2022-06-11_09h11.42.432,task,2021.1.4,Win32,60.23370678,6299f149e92ead563fba08ef,62a4401eb39d04abc39ed1c6,,,,,,,,,,,,,,,,,,,,,,,,,,,,,,,,,,,,,,,,,,,,,,,,,,,,,,,,,,,,,,,,,,,,,,,,,,,,,,,,,,,,,,,,,,,,"[""period""]",0,[1.0652000002861541],36,0,36,0,1,,
,,,,,,,,,,,,5e1647f6f52510000a7389b6,37,Mężczyzna,2022-06-11_09h11.42.432,task,2021.1.4,Win32,60.23370678,6299f149e92ead563fba08ef,62a4401eb39d04abc39ed1c6,,,,,,,,,,,,,,,,,,,,,,,,,,,,,,,,,,,,,,,,,,,,,,,,,,,,,,,,,,,,,,,,,,,,,,,,,,,,,,,,,,,,,,,,,,,,"[""comma""]",0,[1.066199999809328],37,0,37,0,1,,
,,,,,,,,,,,,5e1647f6f52510000a7389b6,37,Mężczyzna,2022-06-11_09h11.42.432,task,2021.1.4,Win32,60.23370678,6299f149e92ead563fba08ef,62a4401eb39d04abc39ed1c6,,,,,,,,,,,,,,,,,,,,,,,,,,,,,,,,,,,,,,,,,,,,,,,,,,,,,,,,,,,,,,,,,,,,,,,,,,,,,,,,,,,,,,,,,,,,"[""comma""]",0,[1.0022999997138413],38,0,38,0,1,,
,,,,,,,,,,,,5e1647f6f52510000a7389b6,37,Mężczyzna,2022-06-11_09h11.42.432,task,2021.1.4,Win32,60.23370678,6299f149e92ead563fba08ef,62a4401eb39d04abc39ed1c6,,,,,,,,,,,,,,,,,,,,,,,,,,,,,,,,,,,,,,,,,,,,,,,,,,,,,,,,,,,,,,,,,,,,,,,,,,,,,,,,,,,,,,,,,,,,"[""comma""]",0,[1.4189000000952774],39,0,39,0,1,,
,,,,,,,,,,,,5e1647f6f52510000a7389b6,37,Mężczyzna,2022-06-11_09h11.42.432,task,2021.1.4,Win32,60.23370678,6299f149e92ead563fba08ef,62a4401eb39d04abc39ed1c6,,,,,,,,,,,,,,,,,,,,,,,,,,,,,,,,,,,,,,,,,,,,,,,,,,,,,,,,,,,,,,,,,,,,,,,,,,,,,,,,,,,,,,,,,,,,"[""period""]",0,[1.233699999809346],40,0,40,0,1,,
,,,,,,,,,,,,5e1647f6f52510000a7389b6,37,Mężczyzna,2022-06-11_09h11.42.432,task,2021.1.4,Win32,60.23370678,6299f149e92ead563fba08ef,62a4401eb39d04abc39ed1c6,,,,,,,,,,,,,,,,,,,,,,,,,,,,,,,,,,,,,,,,,,,,,,,,,,,,,,,,,,,,,,,,,,,,,,,,,,,,,,,,,,,,,,,,,,,,"[""comma""]",0,[1.3873000001907485],41,0,41,0,1,,
,,,,,,,,,,,,5e1647f6f52510000a7389b6,37,Mężczyzna,2022-06-11_09h11.42.432,task,2021.1.4,Win32,60.23370678,6299f149e92ead563fba08ef,62a4401eb39d04abc39ed1c6,,,,,,,,,,,,,,,,,,,,,,,,,,,,,,,,,,,,,,,,,,,,,,,,,,,,,,,,,,,,,,,,,,,,,,,,,,,,,,,,,,,,,,,,,,,,"[""period""]",0,[1.2724000000954447],42,0,42,0,1,,
,,,,,,,,,,,,5e1647f6f52510000a7389b6,37,Mężczyzna,2022-06-11_09h11.42.432,task,2021.1.4,Win32,60.23370678,6299f149e92ead563fba08ef,62a4401eb39d04abc39ed1c6,,,,,,,,,,,,,,,,,,,,,,,,,,,,,,,,,,,,,,,,,,,,,,,,,,,,,,,,,,,,,,,,,,,,,,,,,,,,,,,,,,,,,,,,,,,,"[""comma""]",0,[1.2572000002861614],43,0,43,0,1,,
,,,,,,,,,,,,5e1647f6f52510000a7389b6,37,Mężczyzna,2022-06-11_09h11.42.432,task,2021.1.4,Win32,60.23370678,6299f149e92ead563fba08ef,62a4401eb39d04abc39ed1c6,,,,,,,,,,,,,,,,,,,,,,,,,,,,,,,,,,,,,,,,,,,,,,,,,,,,,,,,,,,,,,,,,,,,,,,,,,,,,,,,,,,,,,,,,,,,,0,,44,0,44,0,1,,
,,,,,,,,,,,,5e1647f6f52510000a7389b6,37,Mężczyzna,2022-06-11_09h11.42.432,task,2021.1.4,Win32,60.23370678,6299f149e92ead563fba08ef,62a4401eb39d04abc39ed1c6,,,,,,,,,,,,,,,,,,,,,,,,,,,,,,,,,,,,,,,,,,,,,,,,,,,,,,,,,,,,,,,,,,,,,,,,,,,,,,,,,,,,,,,,,,,,"[""period""]",0,[0.005300000190800347],45,0,45,0,1,,
,,,,,,,,,,,,5e1647f6f52510000a7389b6,37,Mężczyzna,2022-06-11_09h11.42.432,task,2021.1.4,Win32,60.23370678,6299f149e92ead563fba08ef,62a4401eb39d04abc39ed1c6,,,,,,,,,,,,,,,,,,,,,,,,,,,,,,,,,,,,,,,,,,,,,,,,,,,,,,,,,,,,,,,,,,,,,,,,,,,,,,,,,,,,,,,,,,,,"[""period""]",0,[0.08379999971384677],46,0,46,0,1,,
,,,,,,,,,,,,5e1647f6f52510000a7389b6,37,Mężczyzna,2022-06-11_09h11.42.432,task,2021.1.4,Win32,60.23370678,6299f149e92ead563fba08ef,62a4401eb39d04abc39ed1c6,,,,,,,,,,,,,,,,,,,,,,,,,,,,,,,,,,,,,,,,,,,,,,,,,,,,,,,,,,,,,,,,,,,,,,,,,,,,,,,,,,,,,,,,,,,,"[""comma""]",0,[0.5174000000953356],47,0,47,0,1,,
,,,,,,,,,,,,5e1647f6f52510000a7389b6,37,Mężczyzna,2022-06-11_09h11.42.432,task,2021.1.4,Win32,60.23370678,6299f149e92ead563fba08ef,62a4401eb39d04abc39ed1c6,,,,,,,,,,,,,,,,,,,,,,,,,,,,,,,,,,,,,,,,,,,,,,,,,,,,,,,,,,,,,,,,,,,,,,,,,,,,,,,,,,,,,,,,,,,,"[""period""]",0,[0.6364000000953638],48,0,48,0,1,,
,,,,,,,,,,,,5e1647f6f52510000a7389b6,37,Mężczyzna,2022-06-11_09h11.42.432,task,2021.1.4,Win32,60.23370678,6299f149e92ead563fba08ef,62a4401eb39d04abc39ed1c6,,,,,,,,,,,,,,,,,,,,,,,,,,,,,,,,,,,,,,,,,,,,,,,,,,,,,,,,,,,,,,,,,,,,,,,,,,,,,,,,,,,,,,,,,,,,"[""period""]",0,[0.7333999996185412],49,0,49,0,1,,
,,,,,,,,,,,,5e1647f6f52510000a7389b6,37,Mężczyzna,2022-06-11_09h11.42.432,task,2021.1.4,Win32,60.23370678,6299f149e92ead563fba08ef,62a4401eb39d04abc39ed1c6,,,,,,,,,,,,,,,,,,,,,,,,,,,,,,,,,,,,,,,,,,,,,,,,,,,,,,,,,,,,,,,,,,,,,,,,,,,,,,,,,,,,,,,,,,,,"[""period""]",0,[0.9689000000953456],50,0,50,0,1,,
,,,,,,,,,,,,5e1647f6f52510000a7389b6,37,Mężczyzna,2022-06-11_09h11.42.432,task,2021.1.4,Win32,60.23370678,6299f149e92ead563fba08ef,62a4401eb39d04abc39ed1c6,,,,,,,,,,,,,,,,,,,,,,,,,,,,,,,,,,,,,,,,,,,,,,,,,,,,,,,,,,,,,,,,,,,,,,,,,,,,,,,,,,,,,,,,,,,,"[""comma""]",0,[0.6395999999045898],51,0,51,0,1,,
,,,,,,,,,,,,5e1647f6f52510000a7389b6,37,Mężczyzna,2022-06-11_09h11.42.432,task,2021.1.4,Win32,60.23370678,6299f149e92ead563fba08ef,62a4401eb39d04abc39ed1c6,,,,,,,,,,,,,,,,,,,,,,,,,,,,,,,,,,,,,,,,,,,,,,,,,,,,,,,,,,,,,,,,,,,,,,,,,,,,,,,,,,,,,,,,,,,,"[""comma""]",0,[0.4729000000953647],52,0,52,0,1,,
,,,,,,,,,,,,5e1647f6f52510000a7389b6,37,Mężczyzna,2022-06-11_09h11.42.432,task,2021.1.4,Win32,60.23370678,6299f149e92ead563fba08ef,62a4401eb39d04abc39ed1c6,,,,,,,,,,,,,,,,,,,,,,,,,,,,,,,,,,,,,,,,,,,,,,,,,,,,,,,,,,,,,,,,,,,,,,,,,,,,,,,,,,,,,,,,,,,,"[""period""]",0,[0.26840000009542564],53,0,53,0,1,,
,,,,,,,,,,,,5e1647f6f52510000a7389b6,37,Mężczyzna,2022-06-11_09h11.42.432,task,2021.1.4,Win32,60.23370678,6299f149e92ead563fba08ef,62a4401eb39d04abc39ed1c6,,,,,,,,,,,,,,,,,,,,,,,,,,,,,,,,,,,,,,,,,,,,,,,,,,,,,,,,,,,,,,,,,,,,,,,,,,,,,,,,,,,,,,,,,,,,"[""comma""]",0,[0.5352000002861814],54,0,54,0,1,,
,,,,,,,,,,,,5e1647f6f52510000a7389b6,37,Mężczyzna,2022-06-11_09h11.42.432,task,2021.1.4,Win32,60.23370678,6299f149e92ead563fba08ef,62a4401eb39d04abc39ed1c6,,,,,,,,,,,,,,,,,,,,,,,,,,,,,,,,,,,,,,,,,,,,,,,,,,,,,,,,,,,,,,,,,,,,,,,,,,,,,,,,,,,,,,,,,,,,"[""period""]",0,[0.45110000038141607],55,0,55,0,1,,
,,,,,,,,,,,,5e1647f6f52510000a7389b6,37,Mężczyzna,2022-06-11_09h11.42.432,task,2021.1.4,Win32,60.23370678,6299f149e92ead563fba08ef,62a4401eb39d04abc39ed1c6,,,,,,,,,,,,,,,,,,,,,,,,,,,,,,,,,,,,,,,,,,,,,,,,,,,,,,,,,,,,,,,,,,,,,,,,,,,,,,,,,,,,,,,,,,,,"[""comma""]",0,[0.6505999999046708],56,0,56,0,1,,
,,,,,,,,,,,,5e1647f6f52510000a7389b6,37,Mężczyzna,2022-06-11_09h11.42.432,task,2021.1.4,Win32,60.23370678,6299f149e92ead563fba08ef,62a4401eb39d04abc39ed1c6,,,,,,,,,,,,,,,,,,,,,,,,,,,,,,,,,,,,,,,,,,,,,,,,,,,,,,,,,,,,,,,,,,,,,,,,,,,,,,,,,,,,,,,,,,,,"[""period""]",0,[0.9990999999046153],57,0,57,0,1,,
,,,,,,,,,,,,5e1647f6f52510000a7389b6,37,Mężczyzna,2022-06-11_09h11.42.432,task,2021.1.4,Win32,60.23370678,6299f149e92ead563fba08ef,62a4401eb39d04abc39ed1c6,,,,,,,,,,,,,,,,,,,,,,,,,,,,,,,,,,,,,,,,,,,,,,,,,,,,,,,,,,,,,,,,,,,,,,,,,,,,,,,,,,,,,,,,,,,,"[""comma""]",0,[1.0339999999999918],58,0,58,0,1,,
,,,,,,,,,,,,5e1647f6f52510000a7389b6,37,Mężczyzna,2022-06-11_09h11.42.432,task,2021.1.4,Win32,60.23370678,6299f149e92ead563fba08ef,62a4401eb39d04abc39ed1c6,,,,,,,,,,,,,,,,,,,,,,,,,,,,,,,,,,,,,,,,,,,,,,,,,,,,,,,,,,,,,,,,,,,,,,,,,,,,,,,,,,,,,,,,,,,,"[""comma""]",0,[1.0509000000953392],59,0,59,0,1,,
,,,,,,,,,,,,5e1647f6f52510000a7389b6,37,Mężczyzna,2022-06-11_09h11.42.432,task,2021.1.4,Win32,60.23370678,6299f149e92ead563fba08ef,62a4401eb39d04abc39ed1c6,,,,,,,,,,,,,,,,,,,,,,,,,,,,,,,,,,,,,,,,,,,,,,,,,,,,,,,,,,,,,,,,,,,,,,,,,,,,,,,,,,,,,,,,,,,,"[""period""]",0,[1.3594000000954338],60,0,60,0,1,,
,,,,,,,,,,,,5e1647f6f52510000a7389b6,37,Mężczyzna,2022-06-11_09h11.42.432,task,2021.1.4,Win32,60.23370678,6299f149e92ead563fba08ef,62a4401eb39d04abc39ed1c6,,,,,,,,,,,,,,,,,,,,,,,,,,,,,,,,,,,,,,,,,,,,,,,,,,,,,,,,,,,,,,,,,,,,,,,,,,,,,,,,,,,,,,,,,,,,"[""comma""]",0,[1.0028999996185348],61,0,61,0,1,,
,,,,,,,,,,,,5e1647f6f52510000a7389b6,37,Mężczyzna,2022-06-11_09h11.42.432,task,2021.1.4,Win32,60.23370678,6299f149e92ead563fba08ef,62a4401eb39d04abc39ed1c6,,,,,,,,,,,,,,,,,,,,,,,,,,,,,,,,,,,,,,,,,,,,,,,,,,,,,,,,,,,,,,,,,,,,,,,,,,,,,,,,,,,,,,,,,,,,"[""comma""]",0,[1.6344000000952974],62,0,62,0,1,,
,,,,,,,,,,,,5e1647f6f52510000a7389b6,37,Mężczyzna,2022-06-11_09h11.42.432,task,2021.1.4,Win32,60.23370678,6299f149e92ead563fba08ef,62a4401eb39d04abc39ed1c6,,,,,,,,,,,,,,,,,,,,,,,,,,,,,,,,,,,,,,,,,,,,,,,,,,,,,,,,,,,,,,,,,,,,,,,,,,,,,,,,,,,,,,,,,,,,"[""period""]",0,[1.3006999998092397],63,0,63,0,1,,
,,,,,,,,,,,,5e1647f6f52510000a7389b6,37,Mężczyzna,2022-06-11_09h11.42.432,task,2021.1.4,Win32,60.23370678,6299f149e92ead563fba08ef,62a4401eb39d04abc39ed1c6,,,,,,,,,,,,,,,,,,,,,,,,,,,,,,,,,,,,,,,,,,,,,,,,,,,,,,,,,,,,,,,,,,,,,,,,,,,,,,,,,,,,,,,,,,,,"[""period""]",0,[0.8724000000953538],64,0,64,0,1,,
,,,,,,,,,,,,5e1647f6f52510000a7389b6,37,Mężczyzna,2022-06-11_09h11.42.432,task,2021.1.4,Win32,60.23370678,6299f149e92ead563fba08ef,62a4401eb39d04abc39ed1c6,,,,,,,,,,,,,,,,,,,,,,,,,,,,,,,,,,,,,,,,,,,,,,,,,,,,,,,,,,,,,,,,,,,,,,,,,,,,,,,,,,,,,,,,,,,,"[""period""]",0,[1.1432999997139177],65,0,65,0,1,,
,,,,,,,,,,,,5e1647f6f52510000a7389b6,37,Mężczyzna,2022-06-11_09h11.42.432,task,2021.1.4,Win32,60.23370678,6299f149e92ead563fba08ef,62a4401eb39d04abc39ed1c6,,,,,,,,,,,,,,,,,,,,,,,,,,,,,,,,,,,,,,,,,,,,,,,,,,,,,,,,,,,,,,,,,,,,,,,,,,,,,,,,,,,,,,,,,,,,"[""comma""]",0,[1.087500000000091],66,0,66,0,1,,
,,,,,,,,,,,,5e1647f6f52510000a7389b6,37,Mężczyzna,2022-06-11_09h11.42.432,task,2021.1.4,Win32,60.23370678,6299f149e92ead563fba08ef,62a4401eb39d04abc39ed1c6,,,,,,,,,,,,,,,,,,,,,,,,,,,,,,,,,,,,,,,,,,,,,,,,,,,,,,,,,,,,,,,,,,,,,,,,,,,,,,,,,,,,,,,,,,,,"[""comma""]",0,[1.435099999904537],67,0,67,0,1,,
,,,,,,,,,,,,5e1647f6f52510000a7389b6,37,Mężczyzna,2022-06-11_09h11.42.432,task,2021.1.4,Win32,60.23370678,6299f149e92ead563fba08ef,62a4401eb39d04abc39ed1c6,,,,,,,,,,,,,,,,,,,,,,,,,,,,,,,,,,,,,,,,,,,,,,,,,,,,,,,,,,,,,,,,,,,,,,,,,,,,,,,,,,,,,,,,,,,,"[""period""]",0,[1.284600000381488],68,0,68,0,1,,
,,,,,,,,,,,,5e1647f6f52510000a7389b6,37,Mężczyzna,2022-06-11_09h11.42.432,task,2021.1.4,Win32,60.23370678,6299f149e92ead563fba08ef,62a4401eb39d04abc39ed1c6,,,,,,,,,,,,,,,,,,,,,,,,,,,,,,,,,,,,,,,,,,,,,,,,,,,,,,,,,,,,,,,,,,,,,,,,,,,,,,,,,,,,,,,,,,,,"[""comma""]",0,[0.8554000000954147],69,0,69,0,1,,
,,,,,,,,,,,,5e1647f6f52510000a7389b6,37,Mężczyzna,2022-06-11_09h11.42.432,task,2021.1.4,Win32,60.23370678,6299f149e92ead563fba08ef,62a4401eb39d04abc39ed1c6,,,,,,,,,,,,,,,,,,,,,,,,,,,,,,,,,,,,,,,,,,,,,,,,,,,,,,,,,,,,,,,,,,,,,,,,,,,,,,,,,,,,,,,,,,,,"[""period""]",0,[1.1361999998092642],70,0,70,0,1,,
,,,,,,,,,,,,5e1647f6f52510000a7389b6,37,Mężczyzna,2022-06-11_09h11.42.432,task,2021.1.4,Win32,60.23370678,6299f149e92ead563fba08ef,62a4401eb39d04abc39ed1c6,,,,,,,,,,,,,,,,,,,,,,,,,,,,,,,,,,,,,,,,,,,,,,,,,,,,,,,,,,,,,,,,,,,,,,,,,,,,,,,,,,,,,,,,,,,,"[""comma""]",0,[1.469000000000051],71,0,71,0,1,,
,,,,,,,,,,,,5e1647f6f52510000a7389b6,37,Mężczyzna,2022-06-11_09h11.42.432,task,2021.1.4,Win32,60.23370678,6299f149e92ead563fba08ef,62a4401eb39d04abc39ed1c6,,,,,,,,,,,,,,,,,,,,,,,,,,,,,,,,,,,,,,,,,,,,,,,,,,,,,,,,,,,,,,,,,,,,,,,,,,,,,,,,,,,,,,,,,,,,"[""comma""]",0,[1.3875999999046371],72,0,72,0,1,,
,,,,,,,,,,,,5e1647f6f52510000a7389b6,37,Mężczyzna,2022-06-11_09h11.42.432,task,2021.1.4,Win32,60.23370678,6299f149e92ead563fba08ef,62a4401eb39d04abc39ed1c6,,,,,,,,,,,,,,,,,,,,,,,,,,,,,,,,,,,,,,,,,,,,,,,,,,,,,,,,,,,,,,,,,,,,,,,,,,,,,,,,,,,,,,,,,,,,"[""period""]",0,[1.088099999904557],73,0,73,0,1,,
,,,,,,,,,,,,5e1647f6f52510000a7389b6,37,Mężczyzna,2022-06-11_09h11.42.432,task,2021.1.4,Win32,60.23370678,6299f149e92ead563fba08ef,62a4401eb39d04abc39ed1c6,,,,,,,,,,,,,,,,,,,,,,,,,,,,,,,,,,,,,,,,,,,,,,,,,,,,,,,,,,,,,,,,,,,,,,,,,,,,,,,,,,,,,,,,,,,,"[""period""]",0,[1.2527999997138295],74,0,74,0,1,,
,,,,,,,,,,,,5e1647f6f52510000a7389b6,37,Mężczyzna,2022-06-11_09h11.42.432,task,2021.1.4,Win32,60.23370678,6299f149e92ead563fba08ef,62a4401eb39d04abc39ed1c6,,,,,,,,,,,,,,,,,,,,,,,,,,,,,,,,,,,,,,,,,,,,,,,,,,,,,,,,,,,,,,,,,,,,,,,,,,,,,,,,,,,,,,,,,,,,"[""comma""]",0,[1.540799999713954],75,0,75,0,1,,
,,,,,,,,,,,,5e1647f6f52510000a7389b6,37,Mężczyzna,2022-06-11_09h11.42.432,task,2021.1.4,Win32,60.23370678,6299f149e92ead563fba08ef,62a4401eb39d04abc39ed1c6,,,,,,,,,,,,,,,,,,,,,,,,,,,,,,,,,,,,,,,,,,,,,,,,,,,,,,,,,,,,,,,,,,,,,,,,,,,,,,,,,,,,,,,,,,,,"[""period""]",0,[1.9507000002861332],76,0,76,0,1,,
,,,,,,,,,,,,5e1647f6f52510000a7389b6,37,Mężczyzna,2022-06-11_09h11.42.432,task,2021.1.4,Win32,60.23370678,6299f149e92ead563fba08ef,62a4401eb39d04abc39ed1c6,,,,,,,,,,,,,,,,,,,,,,,,,,,,,,,,,,,,,,,,,,,,,,,,,,,,,,,,,,,,,,,,,,,,,,,,,,,,,,,,,,,,,,,,,,,,"[""comma""]",0,[1.745800000190684],77,0,77,0,1,,
,,,,,,,,,,,,5e1647f6f52510000a7389b6,37,Mężczyzna,2022-06-11_09h11.42.432,task,2021.1.4,Win32,60.23370678,6299f149e92ead563fba08ef,62a4401eb39d04abc39ed1c6,,,,,,,,,,,,,,,,,,,,,,,,,,,,,,,,,,,,,,,,,,,,,,,,,,,,,,,,,,,,,,,,,,,,,,,,,,,,,,,,,,,,,,,,,,,,"[""period""]",0,[1.3255999999046253],78,0,78,0,1,,
,,,,,,,,,,,,5e1647f6f52510000a7389b6,37,Mężczyzna,2022-06-11_09h11.42.432,task,2021.1.4,Win32,60.23370678,6299f149e92ead563fba08ef,62a4401eb39d04abc39ed1c6,,,,,,,,,,,,,,,,,,,,,,,,,,,,,,,,,,,,,,,,,,,,,,,,,,,,,,,,,,,,,,,,,,,,,,,,,,,,,,,,,,,,,,,,,,,,"[""period""]",0,[1.2003999996185257],79,0,79,0,1,,
,,,,,,,,,,,,5e1647f6f52510000a7389b6,37,Mężczyzna,2022-06-11_09h11.42.432,task,2021.1.4,Win32,60.23370678,6299f149e92ead563fba08ef,62a4401eb39d04abc39ed1c6,,,,,,,,,,,,,,,,,,,,,,,,,,,,,,,,,,,,,,,,,,,,,,,,,,,,,,,,,,,,,,,,,,,,,,,,,,,,,,,,,,,,,,,,,,,,"[""comma""]",0,[1.6342999997139032],80,0,80,0,1,,
,,,,,,,,,,,,5e1647f6f52510000a7389b6,37,Mężczyzna,2022-06-11_09h11.42.432,task,2021.1.4,Win32,60.23370678,6299f149e92ead563fba08ef,62a4401eb39d04abc39ed1c6,,,,,,,,,,,,,,,,,,,,,,,,,,,,,,,,,,,,,,,,,,,,,,,,,,,,,,,,,,,,,,,,,,,,,,,,,,,,,,,,,,,,,,,,,,,,"[""period""]",0,[1.1079999999999472],81,0,81,0,1,,
,,,,,,,,,,,,5e1647f6f52510000a7389b6,37,Mężczyzna,2022-06-11_09h11.42.432,task,2021.1.4,Win32,60.23370678,6299f149e92ead563fba08ef,62a4401eb39d04abc39ed1c6,,,,,,,,,,,,,,,,,,,,,,,,,,,,,,,,,,,,,,,,,,,,,,,,,,,,,,,,,,,,,,,,,,,,,,,,,,,,,,,,,,,,,,,,,,,,"[""period""]",0,[0.42109999990464075],82,0,82,0,1,,
,,,,,,,,,,,,5e1647f6f52510000a7389b6,37,Mężczyzna,2022-06-11_09h11.42.432,task,2021.1.4,Win32,60.23370678,6299f149e92ead563fba08ef,62a4401eb39d04abc39ed1c6,,,,,,,,,,,,,,,,,,,,,,,,,,,,,,,,,,,,,,,,,,,,,,,,,,,,,,,,,,,,,,,,,,,,,,,,,,,,,,,,,,,,,,,,,,,,"[""period""]",0,[0.418099999904598],83,0,83,0,1,,
,,,,,,,,,,,,5e1647f6f52510000a7389b6,37,Mężczyzna,2022-06-11_09h11.42.432,task,2021.1.4,Win32,60.23370678,6299f149e92ead563fba08ef,62a4401eb39d04abc39ed1c6,,,,,,,,,,,,,,,,,,,,,,,,,,,,,,,,,,,,,,,,,,,,,,,,,,,,,,,,,,,,,,,,,,,,,,,,,,,,,,,,,,,,,,,,,,,,"[""comma""]",0,[0.33779999971397956],84,0,84,0,1,,
,,,,,,,,,,,,5e1647f6f52510000a7389b6,37,Mężczyzna,2022-06-11_09h11.42.432,task,2021.1.4,Win32,60.23370678,6299f149e92ead563fba08ef,62a4401eb39d04abc39ed1c6,,,,,,,,,,,,,,,,,,,,,,,,,,,,,,,,,,,,,,,,,,,,,,,,,,,,,,,,,,,,,,,,,,,,,,,,,,,,,,,,,,,,,,,,,,,,"[""period""]",0,[0.6009999999999991],85,0,85,0,1,,
,,,,,,,,,,,,5e1647f6f52510000a7389b6,37,Mężczyzna,2022-06-11_09h11.42.432,task,2021.1.4,Win32,60.23370678,6299f149e92ead563fba08ef,62a4401eb39d04abc39ed1c6,,,,,,,,,,,,,,,,,,,,,,,,,,,,,,,,,,,,,,,,,,,,,,,,,,,,,,,,,,,,,,,,,,,,,,,,,,,,,,,,,,,,,,,,,,,,"[""comma""]",0,[0.31719999980930424],86,0,86,0,1,,
,,,,,,,,,,,,5e1647f6f52510000a7389b6,37,Mężczyzna,2022-06-11_09h11.42.432,task,2021.1.4,Win32,60.23370678,6299f149e92ead563fba08ef,62a4401eb39d04abc39ed1c6,,,,,,,,,,,,,,,,,,,,,,,,,,,,,,,,,,,,,,,,,,,,,,,,,,,,,,,,,,,,,,,,,,,,,,,,,,,,,,,,,,,,,,,,,,,,"[""comma""]",0,[0.40020000028607683],87,0,87,0,1,,
,,,,,,,,,,,,5e1647f6f52510000a7389b6,37,Mężczyzna,2022-06-11_09h11.42.432,task,2021.1.4,Win32,60.23370678,6299f149e92ead563fba08ef,62a4401eb39d04abc39ed1c6,,,,,,,,,,,,,,,,,,,,,,,,,,,,,,,,,,,,,,,,,,,,,,,,,,,,,,,,,,,,,,,,,,,,,,,,,,,,,,,,,,,,,,,,,,,,"[""comma""]",0,[0.9006999998092624],88,0,88,0,1,,
,,,,,,,,,,,,5e1647f6f52510000a7389b6,37,Mężczyzna,2022-06-11_09h11.42.432,task,2021.1.4,Win32,60.23370678,6299f149e92ead563fba08ef,62a4401eb39d04abc39ed1c6,,,,,,,,,,,,,,,,,,,,,,,,,,,,,,,,,,,,,,,,,,,,,,,,,,,,,,,,,,,,,,,,,,,,,,,,,,,,,,,,,,,,,,,,,,,,"[""period""]",0,[1.4888000001907358],89,0,89,0,1,,
,,,,,,,,,,,,5e1647f6f52510000a7389b6,37,Mężczyzna,2022-06-11_09h11.42.432,task,2021.1.4,Win32,60.23370678,6299f149e92ead563fba08ef,62a4401eb39d04abc39ed1c6,,,,,,,,,,,,,,,,,,,,,,,,,,,,,,,,,,,,,,,,,,,,,,,,,,,,,,,,,,,,,,,,,,,,,,,,,,,,,,,,,,,,,,,,,,,,"[""comma""]",0,[1.1342999997139032],90,0,90,0,1,,
,,,,,,,,,,,,5e1647f6f52510000a7389b6,37,Mężczyzna,2022-06-11_09h11.42.432,task,2021.1.4,Win32,60.23370678,6299f149e92ead563fba08ef,62a4401eb39d04abc39ed1c6,,,,,,,,,,,,,,,,,,,,,,,,,,,,,,,,,,,,,,,,,,,,,,,,,,,,,,,,,,,,,,,,,,,,,,,,,,,,,,,,,,,,,,,,,,,,"[""period""]",0,[0.619400000095311],91,0,91,0,1,,
,,,,,,,,,,,,5e1647f6f52510000a7389b6,37,Mężczyzna,2022-06-11_09h11.42.432,task,2021.1.4,Win32,60.23370678,6299f149e92ead563fba08ef,62a4401eb39d04abc39ed1c6,,,,,,,,,,,,,,,,,,,,,,,,,,,,,,,,,,,,,,,,,,,,,,,,,,,,,,,,,,,,,,,,,,,,,,,,,,,,,,,,,,,,,,,,,,,,"[""comma""]",0,[0.40080000019065665],92,0,92,0,1,,
,,,,,,,,,,,,5e1647f6f52510000a7389b6,37,Mężczyzna,2022-06-11_09h11.42.432,task,2021.1.4,Win32,60.23370678,6299f149e92ead563fba08ef,62a4401eb39d04abc39ed1c6,,,,,,,,,,,,,,,,,,,,,,,,,,,,,,,,,,,,,,,,,,,,,,,,,,,,,,,,,,,,,,,,,,,,,,,,,,,,,,,,,,,,,,,,,,,,"[""period""]",0,[-0.015599999904566175],93,0,93,0,1,,
,,,,,,,,,,,,5e1647f6f52510000a7389b6,37,Mężczyzna,2022-06-11_09h11.42.432,task,2021.1.4,Win32,60.23370678,6299f149e92ead563fba08ef,62a4401eb39d04abc39ed1c6,,,,,,,,,,,,,,,,,,,,,,,,,,,,,,,,,,,,,,,,,,,,,,,,,,,,,,,,,,,,,,,,,,,,,,,,,,,,,,,,,,,,,,,,,,,,"[""comma""]",0,[0.19069999980922603],94,0,94,0,1,,
,,,,,,,,,,,,5e1647f6f52510000a7389b6,37,Mężczyzna,2022-06-11_09h11.42.432,task,2021.1.4,Win32,60.23370678,6299f149e92ead563fba08ef,62a4401eb39d04abc39ed1c6,,,,,,,,,,,,,,,,,,,,,,,,,,,,,,,,,,,,,,,,,,,,,,,,,,,,,,,,,,,,,,,,,,,,,,,,,,,,,,,,,,,,,,,,,,,,"[""period""]",0,[0.08710000038138332],95,0,95,0,1,,
,,,,,,,,,,,,5e1647f6f52510000a7389b6,37,Mężczyzna,2022-06-11_09h11.42.432,task,2021.1.4,Win32,60.23370678,6299f149e92ead563fba08ef,62a4401eb39d04abc39ed1c6,,,,,,,,,,,,,,,,,,,,,,,,,,,,,,,,,,,,,,,,,,,,,,,,,,,,,,,,,,,,,,,,,,,,,,,,,,,,,,,,,,,,,,,,,,,,"[""comma"",""period""]",0,"[0.0004999999999881766,1.5604999999999336]",96,0,96,0,1,,
,,,,,,,,,,,,5e1647f6f52510000a7389b6,37,Mężczyzna,2022-06-11_09h11.42.432,task,2021.1.4,Win32,60.23370678,6299f149e92ead563fba08ef,62a4401eb39d04abc39ed1c6,,,,,,,,,,,,,,,,,,,,,,,,,,,,,,,,,,,,,,,,,,,,,,,,,,,,,,,,,,,,,,,,,,,,,,,,,,,,,,,,,,,,,,,,,,,,"[""comma""]",0,[1.0005999999045798],97,0,97,0,1,,
,,,,,,,,,,,,5e1647f6f52510000a7389b6,37,Mężczyzna,2022-06-11_09h11.42.432,task,2021.1.4,Win32,60.23370678,6299f149e92ead563fba08ef,62a4401eb39d04abc39ed1c6,,,,,,,,,,,,,,,,,,,,,,,,,,,,,,,,,,,,,,,,,,,,,,,,,,,,,,,,,,,,,,,,,,,,,,,,,,,,,,,,,,,,,,,,,,,,"[""period""]",0,[0.35349999999994],98,0,98,0,1,,
,,,,,,,,,,,,5e1647f6f52510000a7389b6,37,Mężczyzna,2022-06-11_09h11.42.432,task,2021.1.4,Win32,60.23370678,6299f149e92ead563fba08ef,62a4401eb39d04abc39ed1c6,,,,,,,,,,,,,,,,,,,,,,,,,,,,,,,,,,,,,,,,,,,,,,,,,,,,,,,,,,,,,,,,,,,,,,,,,,,,,,,,,,,,,,,,,,,,"[""comma"",""comma""]",0,"[0.05050000000005639,1.7008000001907249]",99,0,99,0,1,,
,,,,,,,,,,,,5e1647f6f52510000a7389b6,37,Mężczyzna,2022-06-11_09h11.42.432,task,2021.1.4,Win32,60.23370678,6299f149e92ead563fba08ef,62a4401eb39d04abc39ed1c6,,,,,,,,,,,,,,,,,,,,,,,,,,,,,,,,,,,,,,,,,,,,,,,,,,,,,,,,,,,,,,,,,,,,,,,,,,,,,,,,,,,,,,,,,,,,"[""comma""]",0,[1.5416999998092251],100,0,100,0,1,,
,,,,,,,,,,,,5e1647f6f52510000a7389b6,37,Mężczyzna,2022-06-11_09h11.42.432,task,2021.1.4,Win32,60.23370678,6299f149e92ead563fba08ef,62a4401eb39d04abc39ed1c6,,,,,,,,,,,,,,,,,,,,,,,,,,,,,,,,,,,,,,,,,,,,,,,,,,,,,,,,,,,,,,,,,,,,,,,,,,,,,,,,,,,,,,,,,,,,"[""period""]",0,[1.084100000381568],101,0,101,0,1,,
,,,,,,,,,,,,5e1647f6f52510000a7389b6,37,Mężczyzna,2022-06-11_09h11.42.432,task,2021.1.4,Win32,60.23370678,6299f149e92ead563fba08ef,62a4401eb39d04abc39ed1c6,,,,,,,,,,,,,,,,,,,,,,,,,,,,,,,,,,,,,,,,,,,,,,,,,,,,,,,,,,,,,,,,,,,,,,,,,,,,,,,,,,,,,,,,,,,,"[""comma""]",0,[1.3344000000954566],102,0,102,0,1,,
,,,,,,,,,,,,5e1647f6f52510000a7389b6,37,Mężczyzna,2022-06-11_09h11.42.432,task,2021.1.4,Win32,60.23370678,6299f149e92ead563fba08ef,62a4401eb39d04abc39ed1c6,,,,,,,,,,,,,,,,,,,,,,,,,,,,,,,,,,,,,,,,,,,,,,,,,,,,,,,,,,,,,,,,,,,,,,,,,,,,,,,,,,,,,,,,,,,,"[""period""]",0,[0.5843000001907512],103,0,103,0,1,,
,,,,,,,,,,,,5e1647f6f52510000a7389b6,37,Mężczyzna,2022-06-11_09h11.42.432,task,2021.1.4,Win32,60.23370678,6299f149e92ead563fba08ef,62a4401eb39d04abc39ed1c6,,,,,,,,,,,,,,,,,,,,,,,,,,,,,,,,,,,,,,,,,,,,,,,,,,,,,,,,,,,,,,,,,,,,,,,,,,,,,,,,,,,,,,,,,,,,"[""comma""]",0,[0.6009000000954074],104,0,104,0,1,,
,,,,,,,,,,,,5e1647f6f52510000a7389b6,37,Mężczyzna,2022-06-11_09h11.42.432,task,2021.1.4,Win32,60.23370678,6299f149e92ead563fba08ef,62a4401eb39d04abc39ed1c6,,,,,,,,,,,,,,,,,,,,,,,,,,,,,,,,,,,,,,,,,,,,,,,,,,,,,,,,,,,,,,,,,,,,,,,,,,,,,,,,,,,,,,,,,,,,"[""comma"",""period""]",0,"[0.33400000000006,1.8370999999046944]",105,0,105,0,1,,
,,,,,,,,,,,,5e1647f6f52510000a7389b6,37,Mężczyzna,2022-06-11_09h11.42.432,task,2021.1.4,Win32,60.23370678,6299f149e92ead563fba08ef,62a4401eb39d04abc39ed1c6,,,,,,,,,,,,,,,,,,,,,,,,,,,,,,,,,,,,,,,,,,,,,,,,,,,,,,,,,,,,,,,,,,,,,,,,,,,,,,,,,,,,,,,,,,,,"[""period""]",0,[1.7374999999999545],106,0,106,0,1,,
,,,,,,,,,,,,5e1647f6f52510000a7389b6,37,Mężczyzna,2022-06-11_09h11.42.432,task,2021.1.4,Win32,60.23370678,6299f149e92ead563fba08ef,62a4401eb39d04abc39ed1c6,,,,,,,,,,,,,,,,,,,,,,,,,,,,,,,,,,,,,,,,,,,,,,,,,,,,,,,,,,,,,,,,,,,,,,,,,,,,,,,,,,,,,,,,,,,,"[""comma""]",0,[1.2504999999999882],107,0,107,0,1,,
,,,,,,,,,,,,5e1647f6f52510000a7389b6,37,Mężczyzna,2022-06-11_09h11.42.432,task,2021.1.4,Win32,60.23370678,6299f149e92ead563fba08ef,62a4401eb39d04abc39ed1c6,,,,,,,,,,,,,,,,,,,,,,,,,,,,,,,,,,,,,,,,,,,,,,,,,,,,,,,,,,,,,,,,,,,,,,,,,,,,,,,,,,,,,,,,,,,,"[""comma""]",0,[1.0359000000953529],108,0,108,0,1,,
,,,,,,,,,,,,5e1647f6f52510000a7389b6,37,Mężczyzna,2022-06-11_09h11.42.432,task,2021.1.4,Win32,60.23370678,6299f149e92ead563fba08ef,62a4401eb39d04abc39ed1c6,,,,,,,,,,,,,,,,,,,,,,,,,,,,,,,,,,,,,,,,,,,,,,,,,,,,,,,,,,,,,,,,,,,,,,,,,,,,,,,,,,,,,,,,,,,,"[""comma""]",0,[1.11749999999995],109,0,109,0,1,,
,,,,,,,,,,,,5e1647f6f52510000a7389b6,37,Mężczyzna,2022-06-11_09h11.42.432,task,2021.1.4,Win32,60.23370678,6299f149e92ead563fba08ef,62a4401eb39d04abc39ed1c6,,,,,,,,,,,,,,,,,,,,,,,,,,,,,,,,,,,,,,,,,,,,,,,,,,,,,,,,,,,,,,,,,,,,,,,,,,,,,,,,,,,,,,,,,,,,"[""period""]",0,[1.1588000001908085],110,0,110,0,1,,
,,,,,,,,,,,,5e1647f6f52510000a7389b6,37,Mężczyzna,2022-06-11_09h11.42.432,task,2021.1.4,Win32,60.23370678,6299f149e92ead563fba08ef,62a4401eb39d04abc39ed1c6,,,,,,,,,,,,,,,,,,,,,,,,,,,,,,,,,,,,,,,,,,,,,,,,,,,,,,,,,,,,,,,,,,,,,,,,,,,,,,,,,,,,,,,,,,,,"[""period""]",0,[0.834299999713835],111,0,111,0,1,,
,,,,,,,,,,,,5e1647f6f52510000a7389b6,37,Mężczyzna,2022-06-11_09h11.42.432,task,2021.1.4,Win32,60.23370678,6299f149e92ead563fba08ef,62a4401eb39d04abc39ed1c6,,,,,,,,,,,,,,,,,,,,,,,,,,,,,,,,,,,,,,,,,,,,,,,,,,,,,,,,,,,,,,,,,,,,,,,,,,,,,,,,,,,,,,,,,,,,"[""period""]",0,[0.32410000038146336],112,0,112,0,1,,
,,,,,,,,,,,,5e1647f6f52510000a7389b6,37,Mężczyzna,2022-06-11_09h11.42.432,task,2021.1.4,Win32,60.23370678,6299f149e92ead563fba08ef,62a4401eb39d04abc39ed1c6,,,,,,,,,,,,,,,,,,,,,,,,,,,,,,,,,,,,,,,,,,,,,,,,,,,,,,,,,,,,,,,,,,,,,,,,,,,,,,,,,,,,,,,,,,,,"[""comma""]",0,[0.3187999997138604],113,0,113,0,1,,
,,,,,,,,,,,,5e1647f6f52510000a7389b6,37,Mężczyzna,2022-06-11_09h11.42.432,task,2021.1.4,Win32,60.23370678,6299f149e92ead563fba08ef,62a4401eb39d04abc39ed1c6,,,,,,,,,,,,,,,,,,,,,,,,,,,,,,,,,,,,,,,,,,,,,,,,,,,,,,,,,,,,,,,,,,,,,,,,,,,,,,,,,,,,,,,,,,,,"[""period""]",0,[0.2508000001906794],114,0,114,0,1,,
,,,,,,,,,,,,5e1647f6f52510000a7389b6,37,Mężczyzna,2022-06-11_09h11.42.432,task,2021.1.4,Win32,60.23370678,6299f149e92ead563fba08ef,62a4401eb39d04abc39ed1c6,,,,,,,,,,,,,,,,,,,,,,,,,,,,,,,,,,,,,,,,,,,,,,,,,,,,,,,,,,,,,,,,,,,,,,,,,,,,,,,,,,,,,,,,,,,,"[""comma""]",0,[0.2710999999046635],115,0,115,0,1,,
,,,,,,,,,,,,5e1647f6f52510000a7389b6,37,Mężczyzna,2022-06-11_09h11.42.432,task,2021.1.4,Win32,60.23370678,6299f149e92ead563fba08ef,62a4401eb39d04abc39ed1c6,,,,,,,,,,,,,,,,,,,,,,,,,,,,,,,,,,,,,,,,,,,,,,,,,,,,,,,,,,,,,,,,,,,,,,,,,,,,,,,,,,,,,,,,,,,,"[""period""]",0,[0.23360000038144335],116,0,116,0,1,,
,,,,,,,,,,,,5e1647f6f52510000a7389b6,37,Mężczyzna,2022-06-11_09h11.42.432,task,2021.1.4,Win32,60.23370678,6299f149e92ead563fba08ef,62a4401eb39d04abc39ed1c6,,,,,,,,,,,,,,,,,,,,,,,,,,,,,,,,,,,,,,,,,,,,,,,,,,,,,,,,,,,,,,,,,,,,,,,,,,,,,,,,,,,,,,,,,,,,"[""period""]",0,[0.7837999997140059],117,0,117,0,1,,
,,,,,,,,,,,,5e1647f6f52510000a7389b6,37,Mężczyzna,2022-06-11_09h11.42.432,task,2021.1.4,Win32,60.23370678,6299f149e92ead563fba08ef,62a4401eb39d04abc39ed1c6,,,,,,,,,,,,,,,,,,,,,,,,,,,,,,,,,,,,,,,,,,,,,,,,,,,,,,,,,,,,,,,,,,,,,,,,,,,,,,,,,,,,,,,,,,,,"[""comma""]",0,[0.5339999999999918],118,0,118,0,1,,
,,,,,,,,,,,,5e1647f6f52510000a7389b6,37,Mężczyzna,2022-06-11_09h11.42.432,task,2021.1.4,Win32,60.23370678,6299f149e92ead563fba08ef,62a4401eb39d04abc39ed1c6,,,,,,,,,,,,,,,,,,,,,,,,,,,,,,,,,,,,,,,,,,,,,,,,,,,,,,,,,,,,,,,,,,,,,,,,,,,,,,,,,,,,,,,,,,,,"[""period""]",0,[0.35399999999992815],119,0,119,0,1,,
,,,,,,,,,,,,5e1647f6f52510000a7389b6,37,Mężczyzna,2022-06-11_09h11.42.432,task,2021.1.4,Win32,60.23370678,6299f149e92ead563fba08ef,62a4401eb39d04abc39ed1c6,,,,,,,,,,,,,,,,,,,,,,,,,,,,,,,,,,,,,,,,,,,,,,,,,,,,,,,,,,,,,,,,,,,,,,,,,,,,,,,,,,,,,,,,,,,,,,,,,,,,space,2.0942
