key_resp_15.keys,key_resp_15.rt,key_resp_13.keys,key_resp_13.corr,key_resp_13.rt,ranodm_loop.thisRepN,ranodm_loop.thisTrialN,ranodm_loop.thisN,ranodm_loop.thisIndex,ranodm_loop.ran,participant,Wiek*,Płeć,date,expName,psychopyVersion,OS,frameRate,study_id,session,key_resp_16.keys,key_resp_16.rt,key_resp_4.keys,key_resp_4.rt,next_letter.thisRepN,next_letter.thisTrialN,next_letter.thisN,next_letter.thisIndex,next_letter.ran,letter,simple_recall,key_resp_5.keys,key_resp_5.rt,simple_recall_corr,simple_recall_corrkeys,next_level.thisRepN,next_level.thisTrialN,next_level.thisN,next_level.thisIndex,next_level.ran,key_resp_2.keys,key_resp_2.rt,digit_answer,key_resp.keys,key_resp.corr,key_resp.rt,RT_list,next_equation.thisRepN,next_equation.thisTrialN,next_equation.thisN,next_equation.thisIndex,next_equation.ran,Task,Trial,Problem,Operation_answer,processing_score,sumRT,meanRT,sumdiff,sd,RT,key_resp_3.keys,key_resp_3.rt,repeat_practice.thisRepN,repeat_practice.thisTrialN,repeat_practice.thisN,repeat_practice.thisIndex,repeat_practice.ran,key_resp_6.keys,key_resp_6.rt,key_resp_11.keys,key_resp_11.corr,key_resp_11.rt,operation_correct,repeat_if_wrong_prac.thisRepN,repeat_if_wrong_prac.thisTrialN,repeat_if_wrong_prac.thisN,repeat_if_wrong_prac.thisIndex,repeat_if_wrong_prac.ran,span_size_prac.thisRepN,span_size_prac.thisTrialN,span_size_prac.thisN,span_size_prac.thisIndex,span_size_prac.ran,complex_recall_practice,key_resp_9.keys,key_resp_9.corr,key_resp_9.rt,complex_prac_corr,span_recall_prac.thisRepN,span_recall_prac.thisTrialN,span_recall_prac.thisN,span_recall_prac.thisIndex,span_recall_prac.ran,key_resp_10.keys,key_resp_10.rt,key_resp_7.keys,key_resp_7.corr,key_resp_7.rt,repeat_if_wrong.thisRepN,repeat_if_wrong.thisTrialN,repeat_if_wrong.thisN,repeat_if_wrong.thisIndex,repeat_if_wrong.ran,span_size.thisRepN,span_size.thisTrialN,span_size.thisN,span_size.thisIndex,span_size.ran,complex_recall,key_resp_8.keys,key_resp_8.corr,key_resp_8.rt,complex_recall_corr,complex_recall_corrkeys,span_recall.thisRepN,span_recall.thisTrialN,span_recall.thisN,span_recall.thisIndex,span_recall.ran,key_resp_12.keys,key_resp_12.rt
space,11.0075,"[""comma""]",0,[1.036899999976157],0,0,0,0,1,5e1e198c99109f000b6196a5,33,Mężczyzna,2022-06-04_08h10.40.985,task,2021.1.4,Win32,59.94125757,628b806c463b948bc644b84f,629af76f7e442b838c515f25,,,,,,,,,,,,,,,,,,,,,,,,,,,,,,,,,,,,,,,,,,,,,,,,,,,,,,,,,,,,,,,,,,,,,,,,,,,,,,,,,,,,,,,,,,,,,,,,,,,,,,,
,,"[""period""]",0,[0.6838999999761484],1,0,1,0,1,5e1e198c99109f000b6196a5,33,Mężczyzna,2022-06-04_08h10.40.985,task,2021.1.4,Win32,59.94125757,628b806c463b948bc644b84f,629af76f7e442b838c515f25,,,,,,,,,,,,,,,,,,,,,,,,,,,,,,,,,,,,,,,,,,,,,,,,,,,,,,,,,,,,,,,,,,,,,,,,,,,,,,,,,,,,,,,,,,,,,,,,,,,,,,,
,,"[""comma""]",0,[0.33310000002384754],2,0,2,0,1,5e1e198c99109f000b6196a5,33,Mężczyzna,2022-06-04_08h10.40.985,task,2021.1.4,Win32,59.94125757,628b806c463b948bc644b84f,629af76f7e442b838c515f25,,,,,,,,,,,,,,,,,,,,,,,,,,,,,,,,,,,,,,,,,,,,,,,,,,,,,,,,,,,,,,,,,,,,,,,,,,,,,,,,,,,,,,,,,,,,,,,,,,,,,,,
,,"[""period""]",0,[0.3073000000119066],3,0,3,0,1,5e1e198c99109f000b6196a5,33,Mężczyzna,2022-06-04_08h10.40.985,task,2021.1.4,Win32,59.94125757,628b806c463b948bc644b84f,629af76f7e442b838c515f25,,,,,,,,,,,,,,,,,,,,,,,,,,,,,,,,,,,,,,,,,,,,,,,,,,,,,,,,,,,,,,,,,,,,,,,,,,,,,,,,,,,,,,,,,,,,,,,,,,,,,,,
,,"[""period""]",0,[0.2675999999642329],4,0,4,0,1,5e1e198c99109f000b6196a5,33,Mężczyzna,2022-06-04_08h10.40.985,task,2021.1.4,Win32,59.94125757,628b806c463b948bc644b84f,629af76f7e442b838c515f25,,,,,,,,,,,,,,,,,,,,,,,,,,,,,,,,,,,,,,,,,,,,,,,,,,,,,,,,,,,,,,,,,,,,,,,,,,,,,,,,,,,,,,,,,,,,,,,,,,,,,,,
,,"[""period""]",0,[0.28639999997616883],5,0,5,0,1,5e1e198c99109f000b6196a5,33,Mężczyzna,2022-06-04_08h10.40.985,task,2021.1.4,Win32,59.94125757,628b806c463b948bc644b84f,629af76f7e442b838c515f25,,,,,,,,,,,,,,,,,,,,,,,,,,,,,,,,,,,,,,,,,,,,,,,,,,,,,,,,,,,,,,,,,,,,,,,,,,,,,,,,,,,,,,,,,,,,,,,,,,,,,,,
,,"[""comma""]",0,[0.32109999996424676],6,0,6,0,1,5e1e198c99109f000b6196a5,33,Mężczyzna,2022-06-04_08h10.40.985,task,2021.1.4,Win32,59.94125757,628b806c463b948bc644b84f,629af76f7e442b838c515f25,,,,,,,,,,,,,,,,,,,,,,,,,,,,,,,,,,,,,,,,,,,,,,,,,,,,,,,,,,,,,,,,,,,,,,,,,,,,,,,,,,,,,,,,,,,,,,,,,,,,,,,
,,"[""comma""]",0,[0.3499999999999943],7,0,7,0,1,5e1e198c99109f000b6196a5,33,Mężczyzna,2022-06-04_08h10.40.985,task,2021.1.4,Win32,59.94125757,628b806c463b948bc644b84f,629af76f7e442b838c515f25,,,,,,,,,,,,,,,,,,,,,,,,,,,,,,,,,,,,,,,,,,,,,,,,,,,,,,,,,,,,,,,,,,,,,,,,,,,,,,,,,,,,,,,,,,,,,,,,,,,,,,,
,,"[""period""]",0,[0.3188000000119189],8,0,8,0,1,5e1e198c99109f000b6196a5,33,Mężczyzna,2022-06-04_08h10.40.985,task,2021.1.4,Win32,59.94125757,628b806c463b948bc644b84f,629af76f7e442b838c515f25,,,,,,,,,,,,,,,,,,,,,,,,,,,,,,,,,,,,,,,,,,,,,,,,,,,,,,,,,,,,,,,,,,,,,,,,,,,,,,,,,,,,,,,,,,,,,,,,,,,,,,,
,,"[""comma""]",0,[0.2996000000238439],9,0,9,0,1,5e1e198c99109f000b6196a5,33,Mężczyzna,2022-06-04_08h10.40.985,task,2021.1.4,Win32,59.94125757,628b806c463b948bc644b84f,629af76f7e442b838c515f25,,,,,,,,,,,,,,,,,,,,,,,,,,,,,,,,,,,,,,,,,,,,,,,,,,,,,,,,,,,,,,,,,,,,,,,,,,,,,,,,,,,,,,,,,,,,,,,,,,,,,,,
,,"[""comma""]",0,[0.3113000000119257],10,0,10,0,1,5e1e198c99109f000b6196a5,33,Mężczyzna,2022-06-04_08h10.40.985,task,2021.1.4,Win32,59.94125757,628b806c463b948bc644b84f,629af76f7e442b838c515f25,,,,,,,,,,,,,,,,,,,,,,,,,,,,,,,,,,,,,,,,,,,,,,,,,,,,,,,,,,,,,,,,,,,,,,,,,,,,,,,,,,,,,,,,,,,,,,,,,,,,,,,
,,"[""comma""]",0,[0.3165000000000191],11,0,11,0,1,5e1e198c99109f000b6196a5,33,Mężczyzna,2022-06-04_08h10.40.985,task,2021.1.4,Win32,59.94125757,628b806c463b948bc644b84f,629af76f7e442b838c515f25,,,,,,,,,,,,,,,,,,,,,,,,,,,,,,,,,,,,,,,,,,,,,,,,,,,,,,,,,,,,,,,,,,,,,,,,,,,,,,,,,,,,,,,,,,,,,,,,,,,,,,,
,,"[""comma""]",0,[0.2895000000000323],12,0,12,0,1,5e1e198c99109f000b6196a5,33,Mężczyzna,2022-06-04_08h10.40.985,task,2021.1.4,Win32,59.94125757,628b806c463b948bc644b84f,629af76f7e442b838c515f25,,,,,,,,,,,,,,,,,,,,,,,,,,,,,,,,,,,,,,,,,,,,,,,,,,,,,,,,,,,,,,,,,,,,,,,,,,,,,,,,,,,,,,,,,,,,,,,,,,,,,,,
,,"[""comma""]",0,[0.30539999997614586],13,0,13,0,1,5e1e198c99109f000b6196a5,33,Mężczyzna,2022-06-04_08h10.40.985,task,2021.1.4,Win32,59.94125757,628b806c463b948bc644b84f,629af76f7e442b838c515f25,,,,,,,,,,,,,,,,,,,,,,,,,,,,,,,,,,,,,,,,,,,,,,,,,,,,,,,,,,,,,,,,,,,,,,,,,,,,,,,,,,,,,,,,,,,,,,,,,,,,,,,
,,"[""period""]",0,[0.30260000002385823],14,0,14,0,1,5e1e198c99109f000b6196a5,33,Mężczyzna,2022-06-04_08h10.40.985,task,2021.1.4,Win32,59.94125757,628b806c463b948bc644b84f,629af76f7e442b838c515f25,,,,,,,,,,,,,,,,,,,,,,,,,,,,,,,,,,,,,,,,,,,,,,,,,,,,,,,,,,,,,,,,,,,,,,,,,,,,,,,,,,,,,,,,,,,,,,,,,,,,,,,
,,"[""comma""]",0,[0.31960000002385414],15,0,15,0,1,5e1e198c99109f000b6196a5,33,Mężczyzna,2022-06-04_08h10.40.985,task,2021.1.4,Win32,59.94125757,628b806c463b948bc644b84f,629af76f7e442b838c515f25,,,,,,,,,,,,,,,,,,,,,,,,,,,,,,,,,,,,,,,,,,,,,,,,,,,,,,,,,,,,,,,,,,,,,,,,,,,,,,,,,,,,,,,,,,,,,,,,,,,,,,,
,,"[""period""]",0,[0.40650000000005093],16,0,16,0,1,5e1e198c99109f000b6196a5,33,Mężczyzna,2022-06-04_08h10.40.985,task,2021.1.4,Win32,59.94125757,628b806c463b948bc644b84f,629af76f7e442b838c515f25,,,,,,,,,,,,,,,,,,,,,,,,,,,,,,,,,,,,,,,,,,,,,,,,,,,,,,,,,,,,,,,,,,,,,,,,,,,,,,,,,,,,,,,,,,,,,,,,,,,,,,,
,,"[""period""]",0,[0.29930000001195367],17,0,17,0,1,5e1e198c99109f000b6196a5,33,Mężczyzna,2022-06-04_08h10.40.985,task,2021.1.4,Win32,59.94125757,628b806c463b948bc644b84f,629af76f7e442b838c515f25,,,,,,,,,,,,,,,,,,,,,,,,,,,,,,,,,,,,,,,,,,,,,,,,,,,,,,,,,,,,,,,,,,,,,,,,,,,,,,,,,,,,,,,,,,,,,,,,,,,,,,,
,,"[""comma""]",0,[0.23919999998810226],18,0,18,0,1,5e1e198c99109f000b6196a5,33,Mężczyzna,2022-06-04_08h10.40.985,task,2021.1.4,Win32,59.94125757,628b806c463b948bc644b84f,629af76f7e442b838c515f25,,,,,,,,,,,,,,,,,,,,,,,,,,,,,,,,,,,,,,,,,,,,,,,,,,,,,,,,,,,,,,,,,,,,,,,,,,,,,,,,,,,,,,,,,,,,,,,,,,,,,,,
,,"[""comma""]",0,[0.3324999999999818],19,0,19,0,1,5e1e198c99109f000b6196a5,33,Mężczyzna,2022-06-04_08h10.40.985,task,2021.1.4,Win32,59.94125757,628b806c463b948bc644b84f,629af76f7e442b838c515f25,,,,,,,,,,,,,,,,,,,,,,,,,,,,,,,,,,,,,,,,,,,,,,,,,,,,,,,,,,,,,,,,,,,,,,,,,,,,,,,,,,,,,,,,,,,,,,,,,,,,,,,
,,"[""comma""]",0,[0.35619999998806406],20,0,20,0,1,5e1e198c99109f000b6196a5,33,Mężczyzna,2022-06-04_08h10.40.985,task,2021.1.4,Win32,59.94125757,628b806c463b948bc644b84f,629af76f7e442b838c515f25,,,,,,,,,,,,,,,,,,,,,,,,,,,,,,,,,,,,,,,,,,,,,,,,,,,,,,,,,,,,,,,,,,,,,,,,,,,,,,,,,,,,,,,,,,,,,,,,,,,,,,,
,,"[""period""]",0,[0.3012999999523345],21,0,21,0,1,5e1e198c99109f000b6196a5,33,Mężczyzna,2022-06-04_08h10.40.985,task,2021.1.4,Win32,59.94125757,628b806c463b948bc644b84f,629af76f7e442b838c515f25,,,,,,,,,,,,,,,,,,,,,,,,,,,,,,,,,,,,,,,,,,,,,,,,,,,,,,,,,,,,,,,,,,,,,,,,,,,,,,,,,,,,,,,,,,,,,,,,,,,,,,,
,,"[""comma""]",0,[0.07680000001192866],22,0,22,0,1,5e1e198c99109f000b6196a5,33,Mężczyzna,2022-06-04_08h10.40.985,task,2021.1.4,Win32,59.94125757,628b806c463b948bc644b84f,629af76f7e442b838c515f25,,,,,,,,,,,,,,,,,,,,,,,,,,,,,,,,,,,,,,,,,,,,,,,,,,,,,,,,,,,,,,,,,,,,,,,,,,,,,,,,,,,,,,,,,,,,,,,,,,,,,,,
,,"[""period""]",0,[0.31639999997616997],23,0,23,0,1,5e1e198c99109f000b6196a5,33,Mężczyzna,2022-06-04_08h10.40.985,task,2021.1.4,Win32,59.94125757,628b806c463b948bc644b84f,629af76f7e442b838c515f25,,,,,,,,,,,,,,,,,,,,,,,,,,,,,,,,,,,,,,,,,,,,,,,,,,,,,,,,,,,,,,,,,,,,,,,,,,,,,,,,,,,,,,,,,,,,,,,,,,,,,,,
,,"[""period""]",0,[0.3203000000119687],24,0,24,0,1,5e1e198c99109f000b6196a5,33,Mężczyzna,2022-06-04_08h10.40.985,task,2021.1.4,Win32,59.94125757,628b806c463b948bc644b84f,629af76f7e442b838c515f25,,,,,,,,,,,,,,,,,,,,,,,,,,,,,,,,,,,,,,,,,,,,,,,,,,,,,,,,,,,,,,,,,,,,,,,,,,,,,,,,,,,,,,,,,,,,,,,,,,,,,,,
,,"[""comma""]",0,[0.32450000000000045],25,0,25,0,1,5e1e198c99109f000b6196a5,33,Mężczyzna,2022-06-04_08h10.40.985,task,2021.1.4,Win32,59.94125757,628b806c463b948bc644b84f,629af76f7e442b838c515f25,,,,,,,,,,,,,,,,,,,,,,,,,,,,,,,,,,,,,,,,,,,,,,,,,,,,,,,,,,,,,,,,,,,,,,,,,,,,,,,,,,,,,,,,,,,,,,,,,,,,,,,
,,"[""period""]",0,[0.24910000002387278],26,0,26,0,1,5e1e198c99109f000b6196a5,33,Mężczyzna,2022-06-04_08h10.40.985,task,2021.1.4,Win32,59.94125757,628b806c463b948bc644b84f,629af76f7e442b838c515f25,,,,,,,,,,,,,,,,,,,,,,,,,,,,,,,,,,,,,,,,,,,,,,,,,,,,,,,,,,,,,,,,,,,,,,,,,,,,,,,,,,,,,,,,,,,,,,,,,,,,,,,
,,"[""comma""]",0,[0.32179999995230446],27,0,27,0,1,5e1e198c99109f000b6196a5,33,Mężczyzna,2022-06-04_08h10.40.985,task,2021.1.4,Win32,59.94125757,628b806c463b948bc644b84f,629af76f7e442b838c515f25,,,,,,,,,,,,,,,,,,,,,,,,,,,,,,,,,,,,,,,,,,,,,,,,,,,,,,,,,,,,,,,,,,,,,,,,,,,,,,,,,,,,,,,,,,,,,,,,,,,,,,,
,,"[""comma""]",0,[0.36650000000003047],28,0,28,0,1,5e1e198c99109f000b6196a5,33,Mężczyzna,2022-06-04_08h10.40.985,task,2021.1.4,Win32,59.94125757,628b806c463b948bc644b84f,629af76f7e442b838c515f25,,,,,,,,,,,,,,,,,,,,,,,,,,,,,,,,,,,,,,,,,,,,,,,,,,,,,,,,,,,,,,,,,,,,,,,,,,,,,,,,,,,,,,,,,,,,,,,,,,,,,,,
,,"[""comma""]",0,[0.3496999999881041],29,0,29,0,1,5e1e198c99109f000b6196a5,33,Mężczyzna,2022-06-04_08h10.40.985,task,2021.1.4,Win32,59.94125757,628b806c463b948bc644b84f,629af76f7e442b838c515f25,,,,,,,,,,,,,,,,,,,,,,,,,,,,,,,,,,,,,,,,,,,,,,,,,,,,,,,,,,,,,,,,,,,,,,,,,,,,,,,,,,,,,,,,,,,,,,,,,,,,,,,
,,"[""period""]",0,[0.30289999997614814],30,0,30,0,1,5e1e198c99109f000b6196a5,33,Mężczyzna,2022-06-04_08h10.40.985,task,2021.1.4,Win32,59.94125757,628b806c463b948bc644b84f,629af76f7e442b838c515f25,,,,,,,,,,,,,,,,,,,,,,,,,,,,,,,,,,,,,,,,,,,,,,,,,,,,,,,,,,,,,,,,,,,,,,,,,,,,,,,,,,,,,,,,,,,,,,,,,,,,,,,
,,"[""period""]",0,[0.28990000003574323],31,0,31,0,1,5e1e198c99109f000b6196a5,33,Mężczyzna,2022-06-04_08h10.40.985,task,2021.1.4,Win32,59.94125757,628b806c463b948bc644b84f,629af76f7e442b838c515f25,,,,,,,,,,,,,,,,,,,,,,,,,,,,,,,,,,,,,,,,,,,,,,,,,,,,,,,,,,,,,,,,,,,,,,,,,,,,,,,,,,,,,,,,,,,,,,,,,,,,,,,
,,"[""comma""]",0,[0.38830000001189546],32,0,32,0,1,5e1e198c99109f000b6196a5,33,Mężczyzna,2022-06-04_08h10.40.985,task,2021.1.4,Win32,59.94125757,628b806c463b948bc644b84f,629af76f7e442b838c515f25,,,,,,,,,,,,,,,,,,,,,,,,,,,,,,,,,,,,,,,,,,,,,,,,,,,,,,,,,,,,,,,,,,,,,,,,,,,,,,,,,,,,,,,,,,,,,,,,,,,,,,,
,,"[""comma""]",0,[0.46649999999999636],33,0,33,0,1,5e1e198c99109f000b6196a5,33,Mężczyzna,2022-06-04_08h10.40.985,task,2021.1.4,Win32,59.94125757,628b806c463b948bc644b84f,629af76f7e442b838c515f25,,,,,,,,,,,,,,,,,,,,,,,,,,,,,,,,,,,,,,,,,,,,,,,,,,,,,,,,,,,,,,,,,,,,,,,,,,,,,,,,,,,,,,,,,,,,,,,,,,,,,,,
,,"[""comma""]",0,[0.2873000000119532],34,0,34,0,1,5e1e198c99109f000b6196a5,33,Mężczyzna,2022-06-04_08h10.40.985,task,2021.1.4,Win32,59.94125757,628b806c463b948bc644b84f,629af76f7e442b838c515f25,,,,,,,,,,,,,,,,,,,,,,,,,,,,,,,,,,,,,,,,,,,,,,,,,,,,,,,,,,,,,,,,,,,,,,,,,,,,,,,,,,,,,,,,,,,,,,,,,,,,,,,
,,"[""comma"",""comma""]",0,"[0.37229999995236085,1.2082999999523167]",35,0,35,0,1,5e1e198c99109f000b6196a5,33,Mężczyzna,2022-06-04_08h10.40.985,task,2021.1.4,Win32,59.94125757,628b806c463b948bc644b84f,629af76f7e442b838c515f25,,,,,,,,,,,,,,,,,,,,,,,,,,,,,,,,,,,,,,,,,,,,,,,,,,,,,,,,,,,,,,,,,,,,,,,,,,,,,,,,,,,,,,,,,,,,,,,,,,,,,,,
,,"[""comma""]",0,[0.39930000001191956],36,0,36,0,1,5e1e198c99109f000b6196a5,33,Mężczyzna,2022-06-04_08h10.40.985,task,2021.1.4,Win32,59.94125757,628b806c463b948bc644b84f,629af76f7e442b838c515f25,,,,,,,,,,,,,,,,,,,,,,,,,,,,,,,,,,,,,,,,,,,,,,,,,,,,,,,,,,,,,,,,,,,,,,,,,,,,,,,,,,,,,,,,,,,,,,,,,,,,,,,
,,"[""period""]",0,[0.3668000000119491],37,0,37,0,1,5e1e198c99109f000b6196a5,33,Mężczyzna,2022-06-04_08h10.40.985,task,2021.1.4,Win32,59.94125757,628b806c463b948bc644b84f,629af76f7e442b838c515f25,,,,,,,,,,,,,,,,,,,,,,,,,,,,,,,,,,,,,,,,,,,,,,,,,,,,,,,,,,,,,,,,,,,,,,,,,,,,,,,,,,,,,,,,,,,,,,,,,,,,,,,
,,"[""comma""]",0,[0.3027000000476505],38,0,38,0,1,5e1e198c99109f000b6196a5,33,Mężczyzna,2022-06-04_08h10.40.985,task,2021.1.4,Win32,59.94125757,628b806c463b948bc644b84f,629af76f7e442b838c515f25,,,,,,,,,,,,,,,,,,,,,,,,,,,,,,,,,,,,,,,,,,,,,,,,,,,,,,,,,,,,,,,,,,,,,,,,,,,,,,,,,,,,,,,,,,,,,,,,,,,,,,,
,,"[""comma""]",0,[0.285900000035781],39,0,39,0,1,5e1e198c99109f000b6196a5,33,Mężczyzna,2022-06-04_08h10.40.985,task,2021.1.4,Win32,59.94125757,628b806c463b948bc644b84f,629af76f7e442b838c515f25,,,,,,,,,,,,,,,,,,,,,,,,,,,,,,,,,,,,,,,,,,,,,,,,,,,,,,,,,,,,,,,,,,,,,,,,,,,,,,,,,,,,,,,,,,,,,,,,,,,,,,,
,,"[""period""]",0,[0.35830000001192275],40,0,40,0,1,5e1e198c99109f000b6196a5,33,Mężczyzna,2022-06-04_08h10.40.985,task,2021.1.4,Win32,59.94125757,628b806c463b948bc644b84f,629af76f7e442b838c515f25,,,,,,,,,,,,,,,,,,,,,,,,,,,,,,,,,,,,,,,,,,,,,,,,,,,,,,,,,,,,,,,,,,,,,,,,,,,,,,,,,,,,,,,,,,,,,,,,,,,,,,,
,,"[""comma""]",0,[0.48359999996421266],41,0,41,0,1,5e1e198c99109f000b6196a5,33,Mężczyzna,2022-06-04_08h10.40.985,task,2021.1.4,Win32,59.94125757,628b806c463b948bc644b84f,629af76f7e442b838c515f25,,,,,,,,,,,,,,,,,,,,,,,,,,,,,,,,,,,,,,,,,,,,,,,,,,,,,,,,,,,,,,,,,,,,,,,,,,,,,,,,,,,,,,,,,,,,,,,,,,,,,,,
,,"[""period""]",0,[0.6568000000119127],42,0,42,0,1,5e1e198c99109f000b6196a5,33,Mężczyzna,2022-06-04_08h10.40.985,task,2021.1.4,Win32,59.94125757,628b806c463b948bc644b84f,629af76f7e442b838c515f25,,,,,,,,,,,,,,,,,,,,,,,,,,,,,,,,,,,,,,,,,,,,,,,,,,,,,,,,,,,,,,,,,,,,,,,,,,,,,,,,,,,,,,,,,,,,,,,,,,,,,,,
,,"[""period""]",0,[0.3725000000000023],43,0,43,0,1,5e1e198c99109f000b6196a5,33,Mężczyzna,2022-06-04_08h10.40.985,task,2021.1.4,Win32,59.94125757,628b806c463b948bc644b84f,629af76f7e442b838c515f25,,,,,,,,,,,,,,,,,,,,,,,,,,,,,,,,,,,,,,,,,,,,,,,,,,,,,,,,,,,,,,,,,,,,,,,,,,,,,,,,,,,,,,,,,,,,,,,,,,,,,,,
,,"[""period""]",0,[0.2995000000000232],44,0,44,0,1,5e1e198c99109f000b6196a5,33,Mężczyzna,2022-06-04_08h10.40.985,task,2021.1.4,Win32,59.94125757,628b806c463b948bc644b84f,629af76f7e442b838c515f25,,,,,,,,,,,,,,,,,,,,,,,,,,,,,,,,,,,,,,,,,,,,,,,,,,,,,,,,,,,,,,,,,,,,,,,,,,,,,,,,,,,,,,,,,,,,,,,,,,,,,,,
,,"[""comma""]",0,[0.318099999964204],45,0,45,0,1,5e1e198c99109f000b6196a5,33,Mężczyzna,2022-06-04_08h10.40.985,task,2021.1.4,Win32,59.94125757,628b806c463b948bc644b84f,629af76f7e442b838c515f25,,,,,,,,,,,,,,,,,,,,,,,,,,,,,,,,,,,,,,,,,,,,,,,,,,,,,,,,,,,,,,,,,,,,,,,,,,,,,,,,,,,,,,,,,,,,,,,,,,,,,,,
,,"[""period""]",0,[0.36950000000001637],46,0,46,0,1,5e1e198c99109f000b6196a5,33,Mężczyzna,2022-06-04_08h10.40.985,task,2021.1.4,Win32,59.94125757,628b806c463b948bc644b84f,629af76f7e442b838c515f25,,,,,,,,,,,,,,,,,,,,,,,,,,,,,,,,,,,,,,,,,,,,,,,,,,,,,,,,,,,,,,,,,,,,,,,,,,,,,,,,,,,,,,,,,,,,,,,,,,,,,,,
,,"[""comma""]",0,[0.6920000000000073],47,0,47,0,1,5e1e198c99109f000b6196a5,33,Mężczyzna,2022-06-04_08h10.40.985,task,2021.1.4,Win32,59.94125757,628b806c463b948bc644b84f,629af76f7e442b838c515f25,,,,,,,,,,,,,,,,,,,,,,,,,,,,,,,,,,,,,,,,,,,,,,,,,,,,,,,,,,,,,,,,,,,,,,,,,,,,,,,,,,,,,,,,,,,,,,,,,,,,,,,
,,"[""period""]",0,[0.43250000000000455],48,0,48,0,1,5e1e198c99109f000b6196a5,33,Mężczyzna,2022-06-04_08h10.40.985,task,2021.1.4,Win32,59.94125757,628b806c463b948bc644b84f,629af76f7e442b838c515f25,,,,,,,,,,,,,,,,,,,,,,,,,,,,,,,,,,,,,,,,,,,,,,,,,,,,,,,,,,,,,,,,,,,,,,,,,,,,,,,,,,,,,,,,,,,,,,,,,,,,,,,
,,"[""period""]",0,[0.4430000000000405],49,0,49,0,1,5e1e198c99109f000b6196a5,33,Mężczyzna,2022-06-04_08h10.40.985,task,2021.1.4,Win32,59.94125757,628b806c463b948bc644b84f,629af76f7e442b838c515f25,,,,,,,,,,,,,,,,,,,,,,,,,,,,,,,,,,,,,,,,,,,,,,,,,,,,,,,,,,,,,,,,,,,,,,,,,,,,,,,,,,,,,,,,,,,,,,,,,,,,,,,
,,"[""period""]",0,[0.3510999999642195],50,0,50,0,1,5e1e198c99109f000b6196a5,33,Mężczyzna,2022-06-04_08h10.40.985,task,2021.1.4,Win32,59.94125757,628b806c463b948bc644b84f,629af76f7e442b838c515f25,,,,,,,,,,,,,,,,,,,,,,,,,,,,,,,,,,,,,,,,,,,,,,,,,,,,,,,,,,,,,,,,,,,,,,,,,,,,,,,,,,,,,,,,,,,,,,,,,,,,,,,
,,"[""comma""]",0,[0.24369999998810954],51,0,51,0,1,5e1e198c99109f000b6196a5,33,Mężczyzna,2022-06-04_08h10.40.985,task,2021.1.4,Win32,59.94125757,628b806c463b948bc644b84f,629af76f7e442b838c515f25,,,,,,,,,,,,,,,,,,,,,,,,,,,,,,,,,,,,,,,,,,,,,,,,,,,,,,,,,,,,,,,,,,,,,,,,,,,,,,,,,,,,,,,,,,,,,,,,,,,,,,,
,,"[""period""]",0,[0.3661999999881118],52,0,52,0,1,5e1e198c99109f000b6196a5,33,Mężczyzna,2022-06-04_08h10.40.985,task,2021.1.4,Win32,59.94125757,628b806c463b948bc644b84f,629af76f7e442b838c515f25,,,,,,,,,,,,,,,,,,,,,,,,,,,,,,,,,,,,,,,,,,,,,,,,,,,,,,,,,,,,,,,,,,,,,,,,,,,,,,,,,,,,,,,,,,,,,,,,,,,,,,,
,,"[""period""]",0,[0.41630000001191547],53,0,53,0,1,5e1e198c99109f000b6196a5,33,Mężczyzna,2022-06-04_08h10.40.985,task,2021.1.4,Win32,59.94125757,628b806c463b948bc644b84f,629af76f7e442b838c515f25,,,,,,,,,,,,,,,,,,,,,,,,,,,,,,,,,,,,,,,,,,,,,,,,,,,,,,,,,,,,,,,,,,,,,,,,,,,,,,,,,,,,,,,,,,,,,,,,,,,,,,,
,,"[""comma""]",0,[0.391700000047706],54,0,54,0,1,5e1e198c99109f000b6196a5,33,Mężczyzna,2022-06-04_08h10.40.985,task,2021.1.4,Win32,59.94125757,628b806c463b948bc644b84f,629af76f7e442b838c515f25,,,,,,,,,,,,,,,,,,,,,,,,,,,,,,,,,,,,,,,,,,,,,,,,,,,,,,,,,,,,,,,,,,,,,,,,,,,,,,,,,,,,,,,,,,,,,,,,,,,,,,,
,,"[""period""]",0,[0.33890000003577825],55,0,55,0,1,5e1e198c99109f000b6196a5,33,Mężczyzna,2022-06-04_08h10.40.985,task,2021.1.4,Win32,59.94125757,628b806c463b948bc644b84f,629af76f7e442b838c515f25,,,,,,,,,,,,,,,,,,,,,,,,,,,,,,,,,,,,,,,,,,,,,,,,,,,,,,,,,,,,,,,,,,,,,,,,,,,,,,,,,,,,,,,,,,,,,,,,,,,,,,,
,,"[""comma""]",0,[0.5369999999999777],56,0,56,0,1,5e1e198c99109f000b6196a5,33,Mężczyzna,2022-06-04_08h10.40.985,task,2021.1.4,Win32,59.94125757,628b806c463b948bc644b84f,629af76f7e442b838c515f25,,,,,,,,,,,,,,,,,,,,,,,,,,,,,,,,,,,,,,,,,,,,,,,,,,,,,,,,,,,,,,,,,,,,,,,,,,,,,,,,,,,,,,,,,,,,,,,,,,,,,,,
,,"[""period""]",0,[0.6163999999761813],57,0,57,0,1,5e1e198c99109f000b6196a5,33,Mężczyzna,2022-06-04_08h10.40.985,task,2021.1.4,Win32,59.94125757,628b806c463b948bc644b84f,629af76f7e442b838c515f25,,,,,,,,,,,,,,,,,,,,,,,,,,,,,,,,,,,,,,,,,,,,,,,,,,,,,,,,,,,,,,,,,,,,,,,,,,,,,,,,,,,,,,,,,,,,,,,,,,,,,,,
,,"[""period""]",0,[0.4168000000119605],58,0,58,0,1,5e1e198c99109f000b6196a5,33,Mężczyzna,2022-06-04_08h10.40.985,task,2021.1.4,Win32,59.94125757,628b806c463b948bc644b84f,629af76f7e442b838c515f25,,,,,,,,,,,,,,,,,,,,,,,,,,,,,,,,,,,,,,,,,,,,,,,,,,,,,,,,,,,,,,,,,,,,,,,,,,,,,,,,,,,,,,,,,,,,,,,,,,,,,,,
,,"[""comma""]",0,[0.4356000000238396],59,0,59,0,1,5e1e198c99109f000b6196a5,33,Mężczyzna,2022-06-04_08h10.40.985,task,2021.1.4,Win32,59.94125757,628b806c463b948bc644b84f,629af76f7e442b838c515f25,,,,,,,,,,,,,,,,,,,,,,,,,,,,,,,,,,,,,,,,,,,,,,,,,,,,,,,,,,,,,,,,,,,,,,,,,,,,,,,,,,,,,,,,,,,,,,,,,,,,,,,
,,"[""comma""]",0,[0.6028000000118823],60,0,60,0,1,5e1e198c99109f000b6196a5,33,Mężczyzna,2022-06-04_08h10.40.985,task,2021.1.4,Win32,59.94125757,628b806c463b948bc644b84f,629af76f7e442b838c515f25,,,,,,,,,,,,,,,,,,,,,,,,,,,,,,,,,,,,,,,,,,,,,,,,,,,,,,,,,,,,,,,,,,,,,,,,,,,,,,,,,,,,,,,,,,,,,,,,,,,,,,,
,,"[""comma""]",0,[0.6746999999880359],61,0,61,0,1,5e1e198c99109f000b6196a5,33,Mężczyzna,2022-06-04_08h10.40.985,task,2021.1.4,Win32,59.94125757,628b806c463b948bc644b84f,629af76f7e442b838c515f25,,,,,,,,,,,,,,,,,,,,,,,,,,,,,,,,,,,,,,,,,,,,,,,,,,,,,,,,,,,,,,,,,,,,,,,,,,,,,,,,,,,,,,,,,,,,,,,,,,,,,,,
,,"[""comma""]",0,[0.8001000000238037],62,0,62,0,1,5e1e198c99109f000b6196a5,33,Mężczyzna,2022-06-04_08h10.40.985,task,2021.1.4,Win32,59.94125757,628b806c463b948bc644b84f,629af76f7e442b838c515f25,,,,,,,,,,,,,,,,,,,,,,,,,,,,,,,,,,,,,,,,,,,,,,,,,,,,,,,,,,,,,,,,,,,,,,,,,,,,,,,,,,,,,,,,,,,,,,,,,,,,,,,
,,"[""period""]",0,[0.39280000001190274],63,0,63,0,1,5e1e198c99109f000b6196a5,33,Mężczyzna,2022-06-04_08h10.40.985,task,2021.1.4,Win32,59.94125757,628b806c463b948bc644b84f,629af76f7e442b838c515f25,,,,,,,,,,,,,,,,,,,,,,,,,,,,,,,,,,,,,,,,,,,,,,,,,,,,,,,,,,,,,,,,,,,,,,,,,,,,,,,,,,,,,,,,,,,,,,,,,,,,,,,
,,"[""comma""]",0,[0.34019999998810135],64,0,64,0,1,5e1e198c99109f000b6196a5,33,Mężczyzna,2022-06-04_08h10.40.985,task,2021.1.4,Win32,59.94125757,628b806c463b948bc644b84f,629af76f7e442b838c515f25,,,,,,,,,,,,,,,,,,,,,,,,,,,,,,,,,,,,,,,,,,,,,,,,,,,,,,,,,,,,,,,,,,,,,,,,,,,,,,,,,,,,,,,,,,,,,,,,,,,,,,,
,,"[""period""]",0,[0.29150000000004184],65,0,65,0,1,5e1e198c99109f000b6196a5,33,Mężczyzna,2022-06-04_08h10.40.985,task,2021.1.4,Win32,59.94125757,628b806c463b948bc644b84f,629af76f7e442b838c515f25,,,,,,,,,,,,,,,,,,,,,,,,,,,,,,,,,,,,,,,,,,,,,,,,,,,,,,,,,,,,,,,,,,,,,,,,,,,,,,,,,,,,,,,,,,,,,,,,,,,,,,,
,,"[""comma"",""comma""]",0,"[0.02170000004770145,1.567300000011926]",66,0,66,0,1,5e1e198c99109f000b6196a5,33,Mężczyzna,2022-06-04_08h10.40.985,task,2021.1.4,Win32,59.94125757,628b806c463b948bc644b84f,629af76f7e442b838c515f25,,,,,,,,,,,,,,,,,,,,,,,,,,,,,,,,,,,,,,,,,,,,,,,,,,,,,,,,,,,,,,,,,,,,,,,,,,,,,,,,,,,,,,,,,,,,,,,,,,,,,,,
,,"[""comma""]",0,[1.2733000000119432],67,0,67,0,1,5e1e198c99109f000b6196a5,33,Mężczyzna,2022-06-04_08h10.40.985,task,2021.1.4,Win32,59.94125757,628b806c463b948bc644b84f,629af76f7e442b838c515f25,,,,,,,,,,,,,,,,,,,,,,,,,,,,,,,,,,,,,,,,,,,,,,,,,,,,,,,,,,,,,,,,,,,,,,,,,,,,,,,,,,,,,,,,,,,,,,,,,,,,,,,
,,"[""comma""]",0,[0.7023000000119737],68,0,68,0,1,5e1e198c99109f000b6196a5,33,Mężczyzna,2022-06-04_08h10.40.985,task,2021.1.4,Win32,59.94125757,628b806c463b948bc644b84f,629af76f7e442b838c515f25,,,,,,,,,,,,,,,,,,,,,,,,,,,,,,,,,,,,,,,,,,,,,,,,,,,,,,,,,,,,,,,,,,,,,,,,,,,,,,,,,,,,,,,,,,,,,,,,,,,,,,,
,,"[""period""]",0,[0.5539999999999736],69,0,69,0,1,5e1e198c99109f000b6196a5,33,Mężczyzna,2022-06-04_08h10.40.985,task,2021.1.4,Win32,59.94125757,628b806c463b948bc644b84f,629af76f7e442b838c515f25,,,,,,,,,,,,,,,,,,,,,,,,,,,,,,,,,,,,,,,,,,,,,,,,,,,,,,,,,,,,,,,,,,,,,,,,,,,,,,,,,,,,,,,,,,,,,,,,,,,,,,,
,,"[""period""]",0,[0.4277000000476505],70,0,70,0,1,5e1e198c99109f000b6196a5,33,Mężczyzna,2022-06-04_08h10.40.985,task,2021.1.4,Win32,59.94125757,628b806c463b948bc644b84f,629af76f7e442b838c515f25,,,,,,,,,,,,,,,,,,,,,,,,,,,,,,,,,,,,,,,,,,,,,,,,,,,,,,,,,,,,,,,,,,,,,,,,,,,,,,,,,,,,,,,,,,,,,,,,,,,,,,,
,,"[""comma""]",0,[0.5059999999999718],71,0,71,0,1,5e1e198c99109f000b6196a5,33,Mężczyzna,2022-06-04_08h10.40.985,task,2021.1.4,Win32,59.94125757,628b806c463b948bc644b84f,629af76f7e442b838c515f25,,,,,,,,,,,,,,,,,,,,,,,,,,,,,,,,,,,,,,,,,,,,,,,,,,,,,,,,,,,,,,,,,,,,,,,,,,,,,,,,,,,,,,,,,,,,,,,,,,,,,,,
,,"[""comma""]",0,[0.3824999999999932],72,0,72,0,1,5e1e198c99109f000b6196a5,33,Mężczyzna,2022-06-04_08h10.40.985,task,2021.1.4,Win32,59.94125757,628b806c463b948bc644b84f,629af76f7e442b838c515f25,,,,,,,,,,,,,,,,,,,,,,,,,,,,,,,,,,,,,,,,,,,,,,,,,,,,,,,,,,,,,,,,,,,,,,,,,,,,,,,,,,,,,,,,,,,,,,,,,,,,,,,
,,"[""period""]",0,[0.40550000000001774],73,0,73,0,1,5e1e198c99109f000b6196a5,33,Mężczyzna,2022-06-04_08h10.40.985,task,2021.1.4,Win32,59.94125757,628b806c463b948bc644b84f,629af76f7e442b838c515f25,,,,,,,,,,,,,,,,,,,,,,,,,,,,,,,,,,,,,,,,,,,,,,,,,,,,,,,,,,,,,,,,,,,,,,,,,,,,,,,,,,,,,,,,,,,,,,,,,,,,,,,
,,"[""period""]",0,[0.6668999999761809],74,0,74,0,1,5e1e198c99109f000b6196a5,33,Mężczyzna,2022-06-04_08h10.40.985,task,2021.1.4,Win32,59.94125757,628b806c463b948bc644b84f,629af76f7e442b838c515f25,,,,,,,,,,,,,,,,,,,,,,,,,,,,,,,,,,,,,,,,,,,,,,,,,,,,,,,,,,,,,,,,,,,,,,,,,,,,,,,,,,,,,,,,,,,,,,,,,,,,,,,
,,"[""period""]",0,[0.3658000000119159],75,0,75,0,1,5e1e198c99109f000b6196a5,33,Mężczyzna,2022-06-04_08h10.40.985,task,2021.1.4,Win32,59.94125757,628b806c463b948bc644b84f,629af76f7e442b838c515f25,,,,,,,,,,,,,,,,,,,,,,,,,,,,,,,,,,,,,,,,,,,,,,,,,,,,,,,,,,,,,,,,,,,,,,,,,,,,,,,,,,,,,,,,,,,,,,,,,,,,,,,
,,"[""comma""]",0,[0.3506000000238032],76,0,76,0,1,5e1e198c99109f000b6196a5,33,Mężczyzna,2022-06-04_08h10.40.985,task,2021.1.4,Win32,59.94125757,628b806c463b948bc644b84f,629af76f7e442b838c515f25,,,,,,,,,,,,,,,,,,,,,,,,,,,,,,,,,,,,,,,,,,,,,,,,,,,,,,,,,,,,,,,,,,,,,,,,,,,,,,,,,,,,,,,,,,,,,,,,,,,,,,,
,,"[""comma""]",0,[0.06639999997616997],77,0,77,0,1,5e1e198c99109f000b6196a5,33,Mężczyzna,2022-06-04_08h10.40.985,task,2021.1.4,Win32,59.94125757,628b806c463b948bc644b84f,629af76f7e442b838c515f25,,,,,,,,,,,,,,,,,,,,,,,,,,,,,,,,,,,,,,,,,,,,,,,,,,,,,,,,,,,,,,,,,,,,,,,,,,,,,,,,,,,,,,,,,,,,,,,,,,,,,,,
,,"[""comma""]",0,[0.44010000002384686],78,0,78,0,1,5e1e198c99109f000b6196a5,33,Mężczyzna,2022-06-04_08h10.40.985,task,2021.1.4,Win32,59.94125757,628b806c463b948bc644b84f,629af76f7e442b838c515f25,,,,,,,,,,,,,,,,,,,,,,,,,,,,,,,,,,,,,,,,,,,,,,,,,,,,,,,,,,,,,,,,,,,,,,,,,,,,,,,,,,,,,,,,,,,,,,,,,,,,,,,
,,"[""period""]",0,[0.5543000000118923],79,0,79,0,1,5e1e198c99109f000b6196a5,33,Mężczyzna,2022-06-04_08h10.40.985,task,2021.1.4,Win32,59.94125757,628b806c463b948bc644b84f,629af76f7e442b838c515f25,,,,,,,,,,,,,,,,,,,,,,,,,,,,,,,,,,,,,,,,,,,,,,,,,,,,,,,,,,,,,,,,,,,,,,,,,,,,,,,,,,,,,,,,,,,,,,,,,,,,,,,
,,"[""comma""]",0,[0.45080000001189546],80,0,80,0,1,5e1e198c99109f000b6196a5,33,Mężczyzna,2022-06-04_08h10.40.985,task,2021.1.4,Win32,59.94125757,628b806c463b948bc644b84f,629af76f7e442b838c515f25,,,,,,,,,,,,,,,,,,,,,,,,,,,,,,,,,,,,,,,,,,,,,,,,,,,,,,,,,,,,,,,,,,,,,,,,,,,,,,,,,,,,,,,,,,,,,,,,,,,,,,,
,,"[""period"",""comma""]",0,"[0.40639999997614495,1.9555999999642495]",81,0,81,0,1,5e1e198c99109f000b6196a5,33,Mężczyzna,2022-06-04_08h10.40.985,task,2021.1.4,Win32,59.94125757,628b806c463b948bc644b84f,629af76f7e442b838c515f25,,,,,,,,,,,,,,,,,,,,,,,,,,,,,,,,,,,,,,,,,,,,,,,,,,,,,,,,,,,,,,,,,,,,,,,,,,,,,,,,,,,,,,,,,,,,,,,,,,,,,,,
,,,0,,82,0,82,0,1,5e1e198c99109f000b6196a5,33,Mężczyzna,2022-06-04_08h10.40.985,task,2021.1.4,Win32,59.94125757,628b806c463b948bc644b84f,629af76f7e442b838c515f25,,,,,,,,,,,,,,,,,,,,,,,,,,,,,,,,,,,,,,,,,,,,,,,,,,,,,,,,,,,,,,,,,,,,,,,,,,,,,,,,,,,,,,,,,,,,,,,,,,,,,,,
,,"[""period""]",0,[0.32339999997617497],83,0,83,0,1,5e1e198c99109f000b6196a5,33,Mężczyzna,2022-06-04_08h10.40.985,task,2021.1.4,Win32,59.94125757,628b806c463b948bc644b84f,629af76f7e442b838c515f25,,,,,,,,,,,,,,,,,,,,,,,,,,,,,,,,,,,,,,,,,,,,,,,,,,,,,,,,,,,,,,,,,,,,,,,,,,,,,,,,,,,,,,,,,,,,,,,,,,,,,,,
,,"[""period""]",0,[0.4370000000000118],84,0,84,0,1,5e1e198c99109f000b6196a5,33,Mężczyzna,2022-06-04_08h10.40.985,task,2021.1.4,Win32,59.94125757,628b806c463b948bc644b84f,629af76f7e442b838c515f25,,,,,,,,,,,,,,,,,,,,,,,,,,,,,,,,,,,,,,,,,,,,,,,,,,,,,,,,,,,,,,,,,,,,,,,,,,,,,,,,,,,,,,,,,,,,,,,,,,,,,,,
,,"[""period""]",0,[0.8004000000357792],85,0,85,0,1,5e1e198c99109f000b6196a5,33,Mężczyzna,2022-06-04_08h10.40.985,task,2021.1.4,Win32,59.94125757,628b806c463b948bc644b84f,629af76f7e442b838c515f25,,,,,,,,,,,,,,,,,,,,,,,,,,,,,,,,,,,,,,,,,,,,,,,,,,,,,,,,,,,,,,,,,,,,,,,,,,,,,,,,,,,,,,,,,,,,,,,,,,,,,,,
,,"[""comma""]",0,[0.6536999999880777],86,0,86,0,1,5e1e198c99109f000b6196a5,33,Mężczyzna,2022-06-04_08h10.40.985,task,2021.1.4,Win32,59.94125757,628b806c463b948bc644b84f,629af76f7e442b838c515f25,,,,,,,,,,,,,,,,,,,,,,,,,,,,,,,,,,,,,,,,,,,,,,,,,,,,,,,,,,,,,,,,,,,,,,,,,,,,,,,,,,,,,,,,,,,,,,,,,,,,,,,
,,"[""comma""]",0,[0.5335000000000036],87,0,87,0,1,5e1e198c99109f000b6196a5,33,Mężczyzna,2022-06-04_08h10.40.985,task,2021.1.4,Win32,59.94125757,628b806c463b948bc644b84f,629af76f7e442b838c515f25,,,,,,,,,,,,,,,,,,,,,,,,,,,,,,,,,,,,,,,,,,,,,,,,,,,,,,,,,,,,,,,,,,,,,,,,,,,,,,,,,,,,,,,,,,,,,,,,,,,,,,,
,,"[""comma"",""period""]",0,"[0.40969999998810636,1.6488000000119314]",88,0,88,0,1,5e1e198c99109f000b6196a5,33,Mężczyzna,2022-06-04_08h10.40.985,task,2021.1.4,Win32,59.94125757,628b806c463b948bc644b84f,629af76f7e442b838c515f25,,,,,,,,,,,,,,,,,,,,,,,,,,,,,,,,,,,,,,,,,,,,,,,,,,,,,,,,,,,,,,,,,,,,,,,,,,,,,,,,,,,,,,,,,,,,,,,,,,,,,,,
,,"[""period""]",0,[1.6331000000238305],89,0,89,0,1,5e1e198c99109f000b6196a5,33,Mężczyzna,2022-06-04_08h10.40.985,task,2021.1.4,Win32,59.94125757,628b806c463b948bc644b84f,629af76f7e442b838c515f25,,,,,,,,,,,,,,,,,,,,,,,,,,,,,,,,,,,,,,,,,,,,,,,,,,,,,,,,,,,,,,,,,,,,,,,,,,,,,,,,,,,,,,,,,,,,,,,,,,,,,,,
,,,0,,90,0,90,0,1,5e1e198c99109f000b6196a5,33,Mężczyzna,2022-06-04_08h10.40.985,task,2021.1.4,Win32,59.94125757,628b806c463b948bc644b84f,629af76f7e442b838c515f25,,,,,,,,,,,,,,,,,,,,,,,,,,,,,,,,,,,,,,,,,,,,,,,,,,,,,,,,,,,,,,,,,,,,,,,,,,,,,,,,,,,,,,,,,,,,,,,,,,,,,,,
,,"[""period""]",0,[0.5869999999999891],91,0,91,0,1,5e1e198c99109f000b6196a5,33,Mężczyzna,2022-06-04_08h10.40.985,task,2021.1.4,Win32,59.94125757,628b806c463b948bc644b84f,629af76f7e442b838c515f25,,,,,,,,,,,,,,,,,,,,,,,,,,,,,,,,,,,,,,,,,,,,,,,,,,,,,,,,,,,,,,,,,,,,,,,,,,,,,,,,,,,,,,,,,,,,,,,,,,,,,,,
,,"[""period""]",0,[0.5989999999999895],92,0,92,0,1,5e1e198c99109f000b6196a5,33,Mężczyzna,2022-06-04_08h10.40.985,task,2021.1.4,Win32,59.94125757,628b806c463b948bc644b84f,629af76f7e442b838c515f25,,,,,,,,,,,,,,,,,,,,,,,,,,,,,,,,,,,,,,,,,,,,,,,,,,,,,,,,,,,,,,,,,,,,,,,,,,,,,,,,,,,,,,,,,,,,,,,,,,,,,,,
,,"[""comma""]",0,[0.03889999997613813],93,0,93,0,1,5e1e198c99109f000b6196a5,33,Mężczyzna,2022-06-04_08h10.40.985,task,2021.1.4,Win32,59.94125757,628b806c463b948bc644b84f,629af76f7e442b838c515f25,,,,,,,,,,,,,,,,,,,,,,,,,,,,,,,,,,,,,,,,,,,,,,,,,,,,,,,,,,,,,,,,,,,,,,,,,,,,,,,,,,,,,,,,,,,,,,,,,,,,,,,
,,"[""comma""]",0,[-0.010200000047689173],94,0,94,0,1,5e1e198c99109f000b6196a5,33,Mężczyzna,2022-06-04_08h10.40.985,task,2021.1.4,Win32,59.94125757,628b806c463b948bc644b84f,629af76f7e442b838c515f25,,,,,,,,,,,,,,,,,,,,,,,,,,,,,,,,,,,,,,,,,,,,,,,,,,,,,,,,,,,,,,,,,,,,,,,,,,,,,,,,,,,,,,,,,,,,,,,,,,,,,,,
,,"[""period""]",0,[0.32600000000002183],95,0,95,0,1,5e1e198c99109f000b6196a5,33,Mężczyzna,2022-06-04_08h10.40.985,task,2021.1.4,Win32,59.94125757,628b806c463b948bc644b84f,629af76f7e442b838c515f25,,,,,,,,,,,,,,,,,,,,,,,,,,,,,,,,,,,,,,,,,,,,,,,,,,,,,,,,,,,,,,,,,,,,,,,,,,,,,,,,,,,,,,,,,,,,,,,,,,,,,,,
,,"[""comma""]",0,[0.46500000000003183],96,0,96,0,1,5e1e198c99109f000b6196a5,33,Mężczyzna,2022-06-04_08h10.40.985,task,2021.1.4,Win32,59.94125757,628b806c463b948bc644b84f,629af76f7e442b838c515f25,,,,,,,,,,,,,,,,,,,,,,,,,,,,,,,,,,,,,,,,,,,,,,,,,,,,,,,,,,,,,,,,,,,,,,,,,,,,,,,,,,,,,,,,,,,,,,,,,,,,,,,
,,"[""comma""]",0,[0.41880000001197004],97,0,97,0,1,5e1e198c99109f000b6196a5,33,Mężczyzna,2022-06-04_08h10.40.985,task,2021.1.4,Win32,59.94125757,628b806c463b948bc644b84f,629af76f7e442b838c515f25,,,,,,,,,,,,,,,,,,,,,,,,,,,,,,,,,,,,,,,,,,,,,,,,,,,,,,,,,,,,,,,,,,,,,,,,,,,,,,,,,,,,,,,,,,,,,,,,,,,,,,,
,,"[""period""]",0,[0.6175999999642272],98,0,98,0,1,5e1e198c99109f000b6196a5,33,Mężczyzna,2022-06-04_08h10.40.985,task,2021.1.4,Win32,59.94125757,628b806c463b948bc644b84f,629af76f7e442b838c515f25,,,,,,,,,,,,,,,,,,,,,,,,,,,,,,,,,,,,,,,,,,,,,,,,,,,,,,,,,,,,,,,,,,,,,,,,,,,,,,,,,,,,,,,,,,,,,,,,,,,,,,,
,,"[""period""]",0,[0.83299999999997],99,0,99,0,1,5e1e198c99109f000b6196a5,33,Mężczyzna,2022-06-04_08h10.40.985,task,2021.1.4,Win32,59.94125757,628b806c463b948bc644b84f,629af76f7e442b838c515f25,,,,,,,,,,,,,,,,,,,,,,,,,,,,,,,,,,,,,,,,,,,,,,,,,,,,,,,,,,,,,,,,,,,,,,,,,,,,,,,,,,,,,,,,,,,,,,,,,,,,,,,
,,"[""period""]",0,[0.5830999999642472],100,0,100,0,1,5e1e198c99109f000b6196a5,33,Mężczyzna,2022-06-04_08h10.40.985,task,2021.1.4,Win32,59.94125757,628b806c463b948bc644b84f,629af76f7e442b838c515f25,,,,,,,,,,,,,,,,,,,,,,,,,,,,,,,,,,,,,,,,,,,,,,,,,,,,,,,,,,,,,,,,,,,,,,,,,,,,,,,,,,,,,,,,,,,,,,,,,,,,,,,
,,"[""period""]",0,[0.49919999998809317],101,0,101,0,1,5e1e198c99109f000b6196a5,33,Mężczyzna,2022-06-04_08h10.40.985,task,2021.1.4,Win32,59.94125757,628b806c463b948bc644b84f,629af76f7e442b838c515f25,,,,,,,,,,,,,,,,,,,,,,,,,,,,,,,,,,,,,,,,,,,,,,,,,,,,,,,,,,,,,,,,,,,,,,,,,,,,,,,,,,,,,,,,,,,,,,,,,,,,,,,
,,"[""period""]",0,[0.3585000000000491],102,0,102,0,1,5e1e198c99109f000b6196a5,33,Mężczyzna,2022-06-04_08h10.40.985,task,2021.1.4,Win32,59.94125757,628b806c463b948bc644b84f,629af76f7e442b838c515f25,,,,,,,,,,,,,,,,,,,,,,,,,,,,,,,,,,,,,,,,,,,,,,,,,,,,,,,,,,,,,,,,,,,,,,,,,,,,,,,,,,,,,,,,,,,,,,,,,,,,,,,
,,"[""period""]",0,[0.33369999998808453],103,0,103,0,1,5e1e198c99109f000b6196a5,33,Mężczyzna,2022-06-04_08h10.40.985,task,2021.1.4,Win32,59.94125757,628b806c463b948bc644b84f,629af76f7e442b838c515f25,,,,,,,,,,,,,,,,,,,,,,,,,,,,,,,,,,,,,,,,,,,,,,,,,,,,,,,,,,,,,,,,,,,,,,,,,,,,,,,,,,,,,,,,,,,,,,,,,,,,,,,
,,"[""comma""]",0,[0.2991000000238273],104,0,104,0,1,5e1e198c99109f000b6196a5,33,Mężczyzna,2022-06-04_08h10.40.985,task,2021.1.4,Win32,59.94125757,628b806c463b948bc644b84f,629af76f7e442b838c515f25,,,,,,,,,,,,,,,,,,,,,,,,,,,,,,,,,,,,,,,,,,,,,,,,,,,,,,,,,,,,,,,,,,,,,,,,,,,,,,,,,,,,,,,,,,,,,,,,,,,,,,,
,,"[""comma""]",0,[0.2832000000476569],105,0,105,0,1,5e1e198c99109f000b6196a5,33,Mężczyzna,2022-06-04_08h10.40.985,task,2021.1.4,Win32,59.94125757,628b806c463b948bc644b84f,629af76f7e442b838c515f25,,,,,,,,,,,,,,,,,,,,,,,,,,,,,,,,,,,,,,,,,,,,,,,,,,,,,,,,,,,,,,,,,,,,,,,,,,,,,,,,,,,,,,,,,,,,,,,,,,,,,,,
,,"[""period""]",0,[0.299800000011885],106,0,106,0,1,5e1e198c99109f000b6196a5,33,Mężczyzna,2022-06-04_08h10.40.985,task,2021.1.4,Win32,59.94125757,628b806c463b948bc644b84f,629af76f7e442b838c515f25,,,,,,,,,,,,,,,,,,,,,,,,,,,,,,,,,,,,,,,,,,,,,,,,,,,,,,,,,,,,,,,,,,,,,,,,,,,,,,,,,,,,,,,,,,,,,,,,,,,,,,,
,,"[""period""]",0,[0.3333000000119455],107,0,107,0,1,5e1e198c99109f000b6196a5,33,Mężczyzna,2022-06-04_08h10.40.985,task,2021.1.4,Win32,59.94125757,628b806c463b948bc644b84f,629af76f7e442b838c515f25,,,,,,,,,,,,,,,,,,,,,,,,,,,,,,,,,,,,,,,,,,,,,,,,,,,,,,,,,,,,,,,,,,,,,,,,,,,,,,,,,,,,,,,,,,,,,,,,,,,,,,,
,,"[""comma""]",0,[0.3831000000238305],108,0,108,0,1,5e1e198c99109f000b6196a5,33,Mężczyzna,2022-06-04_08h10.40.985,task,2021.1.4,Win32,59.94125757,628b806c463b948bc644b84f,629af76f7e442b838c515f25,,,,,,,,,,,,,,,,,,,,,,,,,,,,,,,,,,,,,,,,,,,,,,,,,,,,,,,,,,,,,,,,,,,,,,,,,,,,,,,,,,,,,,,,,,,,,,,,,,,,,,,
,,"[""period""]",0,[0.38769999998805815],109,0,109,0,1,5e1e198c99109f000b6196a5,33,Mężczyzna,2022-06-04_08h10.40.985,task,2021.1.4,Win32,59.94125757,628b806c463b948bc644b84f,629af76f7e442b838c515f25,,,,,,,,,,,,,,,,,,,,,,,,,,,,,,,,,,,,,,,,,,,,,,,,,,,,,,,,,,,,,,,,,,,,,,,,,,,,,,,,,,,,,,,,,,,,,,,,,,,,,,,
,,"[""comma""]",0,[0.3676000000237991],110,0,110,0,1,5e1e198c99109f000b6196a5,33,Mężczyzna,2022-06-04_08h10.40.985,task,2021.1.4,Win32,59.94125757,628b806c463b948bc644b84f,629af76f7e442b838c515f25,,,,,,,,,,,,,,,,,,,,,,,,,,,,,,,,,,,,,,,,,,,,,,,,,,,,,,,,,,,,,,,,,,,,,,,,,,,,,,,,,,,,,,,,,,,,,,,,,,,,,,,
,,"[""period""]",0,[0.5080999999642017],111,0,111,0,1,5e1e198c99109f000b6196a5,33,Mężczyzna,2022-06-04_08h10.40.985,task,2021.1.4,Win32,59.94125757,628b806c463b948bc644b84f,629af76f7e442b838c515f25,,,,,,,,,,,,,,,,,,,,,,,,,,,,,,,,,,,,,,,,,,,,,,,,,,,,,,,,,,,,,,,,,,,,,,,,,,,,,,,,,,,,,,,,,,,,,,,,,,,,,,,
,,"[""period""]",0,[0.3416000000238455],112,0,112,0,1,5e1e198c99109f000b6196a5,33,Mężczyzna,2022-06-04_08h10.40.985,task,2021.1.4,Win32,59.94125757,628b806c463b948bc644b84f,629af76f7e442b838c515f25,,,,,,,,,,,,,,,,,,,,,,,,,,,,,,,,,,,,,,,,,,,,,,,,,,,,,,,,,,,,,,,,,,,,,,,,,,,,,,,,,,,,,,,,,,,,,,,,,,,,,,,
,,"[""period""]",0,[0.26969999998806315],113,0,113,0,1,5e1e198c99109f000b6196a5,33,Mężczyzna,2022-06-04_08h10.40.985,task,2021.1.4,Win32,59.94125757,628b806c463b948bc644b84f,629af76f7e442b838c515f25,,,,,,,,,,,,,,,,,,,,,,,,,,,,,,,,,,,,,,,,,,,,,,,,,,,,,,,,,,,,,,,,,,,,,,,,,,,,,,,,,,,,,,,,,,,,,,,,,,,,,,,
,,"[""comma""]",0,[0.08409999996422357],114,0,114,0,1,5e1e198c99109f000b6196a5,33,Mężczyzna,2022-06-04_08h10.40.985,task,2021.1.4,Win32,59.94125757,628b806c463b948bc644b84f,629af76f7e442b838c515f25,,,,,,,,,,,,,,,,,,,,,,,,,,,,,,,,,,,,,,,,,,,,,,,,,,,,,,,,,,,,,,,,,,,,,,,,,,,,,,,,,,,,,,,,,,,,,,,,,,,,,,,
,,"[""comma""]",0,[0.2417000000476719],115,0,115,0,1,5e1e198c99109f000b6196a5,33,Mężczyzna,2022-06-04_08h10.40.985,task,2021.1.4,Win32,59.94125757,628b806c463b948bc644b84f,629af76f7e442b838c515f25,,,,,,,,,,,,,,,,,,,,,,,,,,,,,,,,,,,,,,,,,,,,,,,,,,,,,,,,,,,,,,,,,,,,,,,,,,,,,,,,,,,,,,,,,,,,,,,,,,,,,,,
,,"[""period""]",0,[0.39999999999997726],116,0,116,0,1,5e1e198c99109f000b6196a5,33,Mężczyzna,2022-06-04_08h10.40.985,task,2021.1.4,Win32,59.94125757,628b806c463b948bc644b84f,629af76f7e442b838c515f25,,,,,,,,,,,,,,,,,,,,,,,,,,,,,,,,,,,,,,,,,,,,,,,,,,,,,,,,,,,,,,,,,,,,,,,,,,,,,,,,,,,,,,,,,,,,,,,,,,,,,,,
,,"[""period""]",0,[1.3986999999880823],117,0,117,0,1,5e1e198c99109f000b6196a5,33,Mężczyzna,2022-06-04_08h10.40.985,task,2021.1.4,Win32,59.94125757,628b806c463b948bc644b84f,629af76f7e442b838c515f25,,,,,,,,,,,,,,,,,,,,,,,,,,,,,,,,,,,,,,,,,,,,,,,,,,,,,,,,,,,,,,,,,,,,,,,,,,,,,,,,,,,,,,,,,,,,,,,,,,,,,,,
,,"[""comma""]",0,[0.5163000000119382],118,0,118,0,1,5e1e198c99109f000b6196a5,33,Mężczyzna,2022-06-04_08h10.40.985,task,2021.1.4,Win32,59.94125757,628b806c463b948bc644b84f,629af76f7e442b838c515f25,,,,,,,,,,,,,,,,,,,,,,,,,,,,,,,,,,,,,,,,,,,,,,,,,,,,,,,,,,,,,,,,,,,,,,,,,,,,,,,,,,,,,,,,,,,,,,,,,,,,,,,
,,"[""period""]",0,[0.4166999999880545],119,0,119,0,1,5e1e198c99109f000b6196a5,33,Mężczyzna,2022-06-04_08h10.40.985,task,2021.1.4,Win32,59.94125757,628b806c463b948bc644b84f,629af76f7e442b838c515f25,,,,,,,,,,,,,,,,,,,,,,,,,,,,,,,,,,,,,,,,,,,,,,,,,,,,,,,,,,,,,,,,,,,,,,,,,,,,,,,,,,,,,,,,,,,,,,,,,,,,,,,
,,,,,,,,,,5e1e198c99109f000b6196a5,33,Mężczyzna,2022-06-04_08h10.40.985,task,2021.1.4,Win32,59.94125757,628b806c463b948bc644b84f,629af76f7e442b838c515f25,space,53.7143,space,7.4512,0,0,0,0,1,X V Q F H G B L J M P D K C T S W R N Z,,,,,,,,,,,,,,,,,,,,,,,,,,,,,,,,,,,,,,,,,,,,,,,,,,,,,,,,,,,,,,,,,,,,,,,,,,,,,,,,,,,,,,,,,,,,,
,,,,,,,,,,5e1e198c99109f000b6196a5,33,Mężczyzna,2022-06-04_08h10.40.985,task,2021.1.4,Win32,59.94125757,628b806c463b948bc644b84f,629af76f7e442b838c515f25,,,,,1,0,1,0,1,X V Q F H G B L J M P D K C T S W R N Z,,,,,,,,,,,,,,,,,,,,,,,,,,,,,,,,,,,,,,,,,,,,,,,,,,,,,,,,,,,,,,,,,,,,,,,,,,,,,,,,,,,,,,,,,,,,,
,,,,,,,,,,5e1e198c99109f000b6196a5,33,Mężczyzna,2022-06-04_08h10.40.985,task,2021.1.4,Win32,59.94125757,628b806c463b948bc644b84f,629af76f7e442b838c515f25,,,,,,,,,,,zv,"[""z"",""v""]","[9.097800000011944,10.192800000011857,12.043000000000006]",1,ZV,0,0,0,0,1,,,,,,,,,,,,,,,,,,,,,,,,,,,,,,,,,,,,,,,,,,,,,,,,,,,,,,,,,,,,,,,,,,,,,,,,,,,,,,,,,,,
,,,,,,,,,,5e1e198c99109f000b6196a5,33,Mężczyzna,2022-06-04_08h10.40.985,task,2021.1.4,Win32,59.94125757,628b806c463b948bc644b84f,629af76f7e442b838c515f25,,,,,0,0,0,0,1,X V Q F H G B L J M P D K C T S W R N Z,,,,,,,,,,,,,,,,,,,,,,,,,,,,,,,,,,,,,,,,,,,,,,,,,,,,,,,,,,,,,,,,,,,,,,,,,,,,,,,,,,,,,,,,,,,,,
,,,,,,,,,,5e1e198c99109f000b6196a5,33,Mężczyzna,2022-06-04_08h10.40.985,task,2021.1.4,Win32,59.94125757,628b806c463b948bc644b84f,629af76f7e442b838c515f25,,,,,1,0,1,0,1,X V Q F H G B L J M P D K C T S W R N Z,,,,,,,,,,,,,,,,,,,,,,,,,,,,,,,,,,,,,,,,,,,,,,,,,,,,,,,,,,,,,,,,,,,,,,,,,,,,,,,,,,,,,,,,,,,,,
,,,,,,,,,,5e1e198c99109f000b6196a5,33,Mężczyzna,2022-06-04_08h10.40.985,task,2021.1.4,Win32,59.94125757,628b806c463b948bc644b84f,629af76f7e442b838c515f25,,,,,,,,,,,px,"[""p"",""x""]","[1.4168999999761809,2.3998000000119646,2.876699999988091]",1,PX,1,0,1,0,1,,,,,,,,,,,,,,,,,,,,,,,,,,,,,,,,,,,,,,,,,,,,,,,,,,,,,,,,,,,,,,,,,,,,,,,,,,,,,,,,,,,
,,,,,,,,,,5e1e198c99109f000b6196a5,33,Mężczyzna,2022-06-04_08h10.40.985,task,2021.1.4,Win32,59.94125757,628b806c463b948bc644b84f,629af76f7e442b838c515f25,,,,,0,0,0,0,1,X V Q F H G B L J M P D K C T S W R N Z,,,,,,,,,,,,,,,,,,,,,,,,,,,,,,,,,,,,,,,,,,,,,,,,,,,,,,,,,,,,,,,,,,,,,,,,,,,,,,,,,,,,,,,,,,,,,
,,,,,,,,,,5e1e198c99109f000b6196a5,33,Mężczyzna,2022-06-04_08h10.40.985,task,2021.1.4,Win32,59.94125757,628b806c463b948bc644b84f,629af76f7e442b838c515f25,,,,,1,0,1,0,1,X V Q F H G B L J M P D K C T S W R N Z,,,,,,,,,,,,,,,,,,,,,,,,,,,,,,,,,,,,,,,,,,,,,,,,,,,,,,,,,,,,,,,,,,,,,,,,,,,,,,,,,,,,,,,,,,,,,
,,,,,,,,,,5e1e198c99109f000b6196a5,33,Mężczyzna,2022-06-04_08h10.40.985,task,2021.1.4,Win32,59.94125757,628b806c463b948bc644b84f,629af76f7e442b838c515f25,,,,,2,0,2,0,1,X V Q F H G B L J M P D K C T S W R N Z,,,,,,,,,,,,,,,,,,,,,,,,,,,,,,,,,,,,,,,,,,,,,,,,,,,,,,,,,,,,,,,,,,,,,,,,,,,,,,,,,,,,,,,,,,,,,
,,,,,,,,,,5e1e198c99109f000b6196a5,33,Mężczyzna,2022-06-04_08h10.40.985,task,2021.1.4,Win32,59.94125757,628b806c463b948bc644b84f,629af76f7e442b838c515f25,,,,,,,,,,,vzk,"[""v"",""z"",""k""]","[1.923899999976129,2.5321000000237746,3.1758999999760817,3.7718999999760854]",1,VZK,2,0,2,0,1,,,,,,,,,,,,,,,,,,,,,,,,,,,,,,,,,,,,,,,,,,,,,,,,,,,,,,,,,,,,,,,,,,,,,,,,,,,,,,,,,,,
,,,,,,,,,,5e1e198c99109f000b6196a5,33,Mężczyzna,2022-06-04_08h10.40.985,task,2021.1.4,Win32,59.94125757,628b806c463b948bc644b84f,629af76f7e442b838c515f25,,,,,0,0,0,0,1,X V Q F H G B L J M P D K C T S W R N Z,,,,,,,,,,,,,,,,,,,,,,,,,,,,,,,,,,,,,,,,,,,,,,,,,,,,,,,,,,,,,,,,,,,,,,,,,,,,,,,,,,,,,,,,,,,,,
,,,,,,,,,,5e1e198c99109f000b6196a5,33,Mężczyzna,2022-06-04_08h10.40.985,task,2021.1.4,Win32,59.94125757,628b806c463b948bc644b84f,629af76f7e442b838c515f25,,,,,1,0,1,0,1,X V Q F H G B L J M P D K C T S W R N Z,,,,,,,,,,,,,,,,,,,,,,,,,,,,,,,,,,,,,,,,,,,,,,,,,,,,,,,,,,,,,,,,,,,,,,,,,,,,,,,,,,,,,,,,,,,,,
,,,,,,,,,,5e1e198c99109f000b6196a5,33,Mężczyzna,2022-06-04_08h10.40.985,task,2021.1.4,Win32,59.94125757,628b806c463b948bc644b84f,629af76f7e442b838c515f25,,,,,2,0,2,0,1,X V Q F H G B L J M P D K C T S W R N Z,,,,,,,,,,,,,,,,,,,,,,,,,,,,,,,,,,,,,,,,,,,,,,,,,,,,,,,,,,,,,,,,,,,,,,,,,,,,,,,,,,,,,,,,,,,,,
,,,,,,,,,,5e1e198c99109f000b6196a5,33,Mężczyzna,2022-06-04_08h10.40.985,task,2021.1.4,Win32,59.94125757,628b806c463b948bc644b84f,629af76f7e442b838c515f25,,,,,,,,,,,kkq,"[""k"",""k"",""q""]","[1.59880000001192,1.8184000000358083,2.0146999999881245,2.498800000012011]",1,KKQ,3,0,3,0,1,,,,,,,,,,,,,,,,,,,,,,,,,,,,,,,,,,,,,,,,,,,,,,,,,,,,,,,,,,,,,,,,,,,,,,,,,,,,,,,,,,,
,,,,,,,,,,5e1e198c99109f000b6196a5,33,Mężczyzna,2022-06-04_08h10.40.985,task,2021.1.4,Win32,59.94125757,628b806c463b948bc644b84f,629af76f7e442b838c515f25,,,,,0,0,0,0,1,X V Q F H G B L J M P D K C T S W R N Z,,,,,,,,,,,,,,,,,,,,,,,,,,,,,,,,,,,,,,,,,,,,,,,,,,,,,,,,,,,,,,,,,,,,,,,,,,,,,,,,,,,,,,,,,,,,,
,,,,,,,,,,5e1e198c99109f000b6196a5,33,Mężczyzna,2022-06-04_08h10.40.985,task,2021.1.4,Win32,59.94125757,628b806c463b948bc644b84f,629af76f7e442b838c515f25,,,,,1,0,1,0,1,X V Q F H G B L J M P D K C T S W R N Z,,,,,,,,,,,,,,,,,,,,,,,,,,,,,,,,,,,,,,,,,,,,,,,,,,,,,,,,,,,,,,,,,,,,,,,,,,,,,,,,,,,,,,,,,,,,,
,,,,,,,,,,5e1e198c99109f000b6196a5,33,Mężczyzna,2022-06-04_08h10.40.985,task,2021.1.4,Win32,59.94125757,628b806c463b948bc644b84f,629af76f7e442b838c515f25,,,,,2,0,2,0,1,X V Q F H G B L J M P D K C T S W R N Z,,,,,,,,,,,,,,,,,,,,,,,,,,,,,,,,,,,,,,,,,,,,,,,,,,,,,,,,,,,,,,,,,,,,,,,,,,,,,,,,,,,,,,,,,,,,,
,,,,,,,,,,5e1e198c99109f000b6196a5,33,Mężczyzna,2022-06-04_08h10.40.985,task,2021.1.4,Win32,59.94125757,628b806c463b948bc644b84f,629af76f7e442b838c515f25,,,,,3,0,3,0,1,X V Q F H G B L J M P D K C T S W R N Z,,,,,,,,,,,,,,,,,,,,,,,,,,,,,,,,,,,,,,,,,,,,,,,,,,,,,,,,,,,,,,,,,,,,,,,,,,,,,,,,,,,,,,,,,,,,,
,,,,,,,,,,5e1e198c99109f000b6196a5,33,Mężczyzna,2022-06-04_08h10.40.985,task,2021.1.4,Win32,59.94125757,628b806c463b948bc644b84f,629af76f7e442b838c515f25,,,,,,,,,,,xrrb,"[""x"",""r"",""r"",""b""]","[1.3155000000000427,2.090899999976159,2.2888000000119746,3.332599999964259,3.535000000000082]",1,XRRB,4,0,4,0,1,,,,,,,,,,,,,,,,,,,,,,,,,,,,,,,,,,,,,,,,,,,,,,,,,,,,,,,,,,,,,,,,,,,,,,,,,,,,,,,,,,,
,,,,,,,,,,5e1e198c99109f000b6196a5,33,Mężczyzna,2022-06-04_08h10.40.985,task,2021.1.4,Win32,59.94125757,628b806c463b948bc644b84f,629af76f7e442b838c515f25,,,,,0,0,0,0,1,X V Q F H G B L J M P D K C T S W R N Z,,,,,,,,,,,,,,,,,,,,,,,,,,,,,,,,,,,,,,,,,,,,,,,,,,,,,,,,,,,,,,,,,,,,,,,,,,,,,,,,,,,,,,,,,,,,,
,,,,,,,,,,5e1e198c99109f000b6196a5,33,Mężczyzna,2022-06-04_08h10.40.985,task,2021.1.4,Win32,59.94125757,628b806c463b948bc644b84f,629af76f7e442b838c515f25,,,,,1,0,1,0,1,X V Q F H G B L J M P D K C T S W R N Z,,,,,,,,,,,,,,,,,,,,,,,,,,,,,,,,,,,,,,,,,,,,,,,,,,,,,,,,,,,,,,,,,,,,,,,,,,,,,,,,,,,,,,,,,,,,,
,,,,,,,,,,5e1e198c99109f000b6196a5,33,Mężczyzna,2022-06-04_08h10.40.985,task,2021.1.4,Win32,59.94125757,628b806c463b948bc644b84f,629af76f7e442b838c515f25,,,,,2,0,2,0,1,X V Q F H G B L J M P D K C T S W R N Z,,,,,,,,,,,,,,,,,,,,,,,,,,,,,,,,,,,,,,,,,,,,,,,,,,,,,,,,,,,,,,,,,,,,,,,,,,,,,,,,,,,,,,,,,,,,,
,,,,,,,,,,5e1e198c99109f000b6196a5,33,Mężczyzna,2022-06-04_08h10.40.985,task,2021.1.4,Win32,59.94125757,628b806c463b948bc644b84f,629af76f7e442b838c515f25,,,,,3,0,3,0,1,X V Q F H G B L J M P D K C T S W R N Z,,,,,,,,,,,,,,,,,,,,,,,,,,,,,,,,,,,,,,,,,,,,,,,,,,,,,,,,,,,,,,,,,,,,,,,,,,,,,,,,,,,,,,,,,,,,,
,,,,,,,,,,5e1e198c99109f000b6196a5,33,Mężczyzna,2022-06-04_08h10.40.985,task,2021.1.4,Win32,59.94125757,628b806c463b948bc644b84f,629af76f7e442b838c515f25,,,,,,,,,,,dpsd,"[""d"",""p"",""s"",""d""]","[1.7514999999999645,1.9350999999642227,2.1430999999641926,2.381999999999948,2.7832999999523054]",1,DPSD,5,0,5,0,1,,,,,,,,,,,,,,,,,,,,,,,,,,,,,,,,,,,,,,,,,,,,,,,,,,,,,,,,,,,,,,,,,,,,,,,,,,,,,,,,,,,
,,,,,,,,,,5e1e198c99109f000b6196a5,33,Mężczyzna,2022-06-04_08h10.40.985,task,2021.1.4,Win32,59.94125757,628b806c463b948bc644b84f,629af76f7e442b838c515f25,,,,,0,0,0,0,1,X V Q F H G B L J M P D K C T S W R N Z,,,,,,,,,,,,,,,,,,,,,,,,,,,,,,,,,,,,,,,,,,,,,,,,,,,,,,,,,,,,,,,,,,,,,,,,,,,,,,,,,,,,,,,,,,,,,
,,,,,,,,,,5e1e198c99109f000b6196a5,33,Mężczyzna,2022-06-04_08h10.40.985,task,2021.1.4,Win32,59.94125757,628b806c463b948bc644b84f,629af76f7e442b838c515f25,,,,,1,0,1,0,1,X V Q F H G B L J M P D K C T S W R N Z,,,,,,,,,,,,,,,,,,,,,,,,,,,,,,,,,,,,,,,,,,,,,,,,,,,,,,,,,,,,,,,,,,,,,,,,,,,,,,,,,,,,,,,,,,,,,
,,,,,,,,,,5e1e198c99109f000b6196a5,33,Mężczyzna,2022-06-04_08h10.40.985,task,2021.1.4,Win32,59.94125757,628b806c463b948bc644b84f,629af76f7e442b838c515f25,,,,,2,0,2,0,1,X V Q F H G B L J M P D K C T S W R N Z,,,,,,,,,,,,,,,,,,,,,,,,,,,,,,,,,,,,,,,,,,,,,,,,,,,,,,,,,,,,,,,,,,,,,,,,,,,,,,,,,,,,,,,,,,,,,
,,,,,,,,,,5e1e198c99109f000b6196a5,33,Mężczyzna,2022-06-04_08h10.40.985,task,2021.1.4,Win32,59.94125757,628b806c463b948bc644b84f,629af76f7e442b838c515f25,,,,,3,0,3,0,1,X V Q F H G B L J M P D K C T S W R N Z,,,,,,,,,,,,,,,,,,,,,,,,,,,,,,,,,,,,,,,,,,,,,,,,,,,,,,,,,,,,,,,,,,,,,,,,,,,,,,,,,,,,,,,,,,,,,
,,,,,,,,,,5e1e198c99109f000b6196a5,33,Mężczyzna,2022-06-04_08h10.40.985,task,2021.1.4,Win32,59.94125757,628b806c463b948bc644b84f,629af76f7e442b838c515f25,,,,,4,0,4,0,1,X V Q F H G B L J M P D K C T S W R N Z,,,,,,,,,,,,,,,,,,,,,,,,,,,,,,,,,,,,,,,,,,,,,,,,,,,,,,,,,,,,,,,,,,,,,,,,,,,,,,,,,,,,,,,,,,,,,
,,,,,,,,,,5e1e198c99109f000b6196a5,33,Mężczyzna,2022-06-04_08h10.40.985,task,2021.1.4,Win32,59.94125757,628b806c463b948bc644b84f,629af76f7e442b838c515f25,,,,,,,,,,,ddjjm,"[""d"",""d"",""j"",""j"",""m""]","[0.7883000000118727,1.0003000000118618,1.2103000000118982,1.4054000000356837,3.3421000000238337,3.885600000023828]",1,DDJJM,6,0,6,0,1,,,,,,,,,,,,,,,,,,,,,,,,,,,,,,,,,,,,,,,,,,,,,,,,,,,,,,,,,,,,,,,,,,,,,,,,,,,,,,,,,,,
,,,,,,,,,,5e1e198c99109f000b6196a5,33,Mężczyzna,2022-06-04_08h10.40.985,task,2021.1.4,Win32,59.94125757,628b806c463b948bc644b84f,629af76f7e442b838c515f25,,,,,0,0,0,0,1,X V Q F H G B L J M P D K C T S W R N Z,,,,,,,,,,,,,,,,,,,,,,,,,,,,,,,,,,,,,,,,,,,,,,,,,,,,,,,,,,,,,,,,,,,,,,,,,,,,,,,,,,,,,,,,,,,,,
,,,,,,,,,,5e1e198c99109f000b6196a5,33,Mężczyzna,2022-06-04_08h10.40.985,task,2021.1.4,Win32,59.94125757,628b806c463b948bc644b84f,629af76f7e442b838c515f25,,,,,1,0,1,0,1,X V Q F H G B L J M P D K C T S W R N Z,,,,,,,,,,,,,,,,,,,,,,,,,,,,,,,,,,,,,,,,,,,,,,,,,,,,,,,,,,,,,,,,,,,,,,,,,,,,,,,,,,,,,,,,,,,,,
,,,,,,,,,,5e1e198c99109f000b6196a5,33,Mężczyzna,2022-06-04_08h10.40.985,task,2021.1.4,Win32,59.94125757,628b806c463b948bc644b84f,629af76f7e442b838c515f25,,,,,2,0,2,0,1,X V Q F H G B L J M P D K C T S W R N Z,,,,,,,,,,,,,,,,,,,,,,,,,,,,,,,,,,,,,,,,,,,,,,,,,,,,,,,,,,,,,,,,,,,,,,,,,,,,,,,,,,,,,,,,,,,,,
,,,,,,,,,,5e1e198c99109f000b6196a5,33,Mężczyzna,2022-06-04_08h10.40.985,task,2021.1.4,Win32,59.94125757,628b806c463b948bc644b84f,629af76f7e442b838c515f25,,,,,3,0,3,0,1,X V Q F H G B L J M P D K C T S W R N Z,,,,,,,,,,,,,,,,,,,,,,,,,,,,,,,,,,,,,,,,,,,,,,,,,,,,,,,,,,,,,,,,,,,,,,,,,,,,,,,,,,,,,,,,,,,,,
,,,,,,,,,,5e1e198c99109f000b6196a5,33,Mężczyzna,2022-06-04_08h10.40.985,task,2021.1.4,Win32,59.94125757,628b806c463b948bc644b84f,629af76f7e442b838c515f25,,,,,4,0,4,0,1,X V Q F H G B L J M P D K C T S W R N Z,,,,,,,,,,,,,,,,,,,,,,,,,,,,,,,,,,,,,,,,,,,,,,,,,,,,,,,,,,,,,,,,,,,,,,,,,,,,,,,,,,,,,,,,,,,,,
,,,,,,,,,,5e1e198c99109f000b6196a5,33,Mężczyzna,2022-06-04_08h10.40.985,task,2021.1.4,Win32,59.94125757,628b806c463b948bc644b84f,629af76f7e442b838c515f25,,,,,,,,,,,scxgh,"[""s"",""c"",""x"",""g"",""h""]","[1.726900000035812,1.9500000000000455,10.07400000000007,10.451000000000022,10.656000000000063,11.168100000023856]",1,SCXGH,7,0,7,0,1,,,,,,,,,,,,,,,,,,,,,,,,,,,,,,,,,,,,,,,,,,,,,,,,,,,,,,,,,,,,,,,,,,,,,,,,,,,,,,,,,,,
,,,,,,,,,,5e1e198c99109f000b6196a5,33,Mężczyzna,2022-06-04_08h10.40.985,task,2021.1.4,Win32,59.94125757,628b806c463b948bc644b84f,629af76f7e442b838c515f25,,,,,0,0,0,0,1,X V Q F H G B L J M P D K C T S W R N Z,,,,,,,,,,,,,,,,,,,,,,,,,,,,,,,,,,,,,,,,,,,,,,,,,,,,,,,,,,,,,,,,,,,,,,,,,,,,,,,,,,,,,,,,,,,,,
,,,,,,,,,,5e1e198c99109f000b6196a5,33,Mężczyzna,2022-06-04_08h10.40.985,task,2021.1.4,Win32,59.94125757,628b806c463b948bc644b84f,629af76f7e442b838c515f25,,,,,1,0,1,0,1,X V Q F H G B L J M P D K C T S W R N Z,,,,,,,,,,,,,,,,,,,,,,,,,,,,,,,,,,,,,,,,,,,,,,,,,,,,,,,,,,,,,,,,,,,,,,,,,,,,,,,,,,,,,,,,,,,,,
,,,,,,,,,,5e1e198c99109f000b6196a5,33,Mężczyzna,2022-06-04_08h10.40.985,task,2021.1.4,Win32,59.94125757,628b806c463b948bc644b84f,629af76f7e442b838c515f25,,,,,2,0,2,0,1,X V Q F H G B L J M P D K C T S W R N Z,,,,,,,,,,,,,,,,,,,,,,,,,,,,,,,,,,,,,,,,,,,,,,,,,,,,,,,,,,,,,,,,,,,,,,,,,,,,,,,,,,,,,,,,,,,,,
,,,,,,,,,,5e1e198c99109f000b6196a5,33,Mężczyzna,2022-06-04_08h10.40.985,task,2021.1.4,Win32,59.94125757,628b806c463b948bc644b84f,629af76f7e442b838c515f25,,,,,3,0,3,0,1,X V Q F H G B L J M P D K C T S W R N Z,,,,,,,,,,,,,,,,,,,,,,,,,,,,,,,,,,,,,,,,,,,,,,,,,,,,,,,,,,,,,,,,,,,,,,,,,,,,,,,,,,,,,,,,,,,,,
,,,,,,,,,,5e1e198c99109f000b6196a5,33,Mężczyzna,2022-06-04_08h10.40.985,task,2021.1.4,Win32,59.94125757,628b806c463b948bc644b84f,629af76f7e442b838c515f25,,,,,4,0,4,0,1,X V Q F H G B L J M P D K C T S W R N Z,,,,,,,,,,,,,,,,,,,,,,,,,,,,,,,,,,,,,,,,,,,,,,,,,,,,,,,,,,,,,,,,,,,,,,,,,,,,,,,,,,,,,,,,,,,,,
,,,,,,,,,,5e1e198c99109f000b6196a5,33,Mężczyzna,2022-06-04_08h10.40.985,task,2021.1.4,Win32,59.94125757,628b806c463b948bc644b84f,629af76f7e442b838c515f25,,,,,5,0,5,0,1,X V Q F H G B L J M P D K C T S W R N Z,,,,,,,,,,,,,,,,,,,,,,,,,,,,,,,,,,,,,,,,,,,,,,,,,,,,,,,,,,,,,,,,,,,,,,,,,,,,,,,,,,,,,,,,,,,,,
,,,,,,,,,,5e1e198c99109f000b6196a5,33,Mężczyzna,2022-06-04_08h10.40.985,task,2021.1.4,Win32,59.94125757,628b806c463b948bc644b84f,629af76f7e442b838c515f25,,,,,,,,,,,vckjrg,"[""v"",""c"",""k"",""j"",""r"",""g""]","[1.7154000000357428,2.666900000035753,3.143700000047602,3.604800000011892,3.9549000000357637,4.301900000035744,4.718800000011925]",1,VCKJRG,8,0,8,0,1,,,,,,,,,,,,,,,,,,,,,,,,,,,,,,,,,,,,,,,,,,,,,,,,,,,,,,,,,,,,,,,,,,,,,,,,,,,,,,,,,,,
,,,,,,,,,,5e1e198c99109f000b6196a5,33,Mężczyzna,2022-06-04_08h10.40.985,task,2021.1.4,Win32,59.94125757,628b806c463b948bc644b84f,629af76f7e442b838c515f25,,,,,0,0,0,0,1,X V Q F H G B L J M P D K C T S W R N Z,,,,,,,,,,,,,,,,,,,,,,,,,,,,,,,,,,,,,,,,,,,,,,,,,,,,,,,,,,,,,,,,,,,,,,,,,,,,,,,,,,,,,,,,,,,,,
,,,,,,,,,,5e1e198c99109f000b6196a5,33,Mężczyzna,2022-06-04_08h10.40.985,task,2021.1.4,Win32,59.94125757,628b806c463b948bc644b84f,629af76f7e442b838c515f25,,,,,1,0,1,0,1,X V Q F H G B L J M P D K C T S W R N Z,,,,,,,,,,,,,,,,,,,,,,,,,,,,,,,,,,,,,,,,,,,,,,,,,,,,,,,,,,,,,,,,,,,,,,,,,,,,,,,,,,,,,,,,,,,,,
,,,,,,,,,,5e1e198c99109f000b6196a5,33,Mężczyzna,2022-06-04_08h10.40.985,task,2021.1.4,Win32,59.94125757,628b806c463b948bc644b84f,629af76f7e442b838c515f25,,,,,2,0,2,0,1,X V Q F H G B L J M P D K C T S W R N Z,,,,,,,,,,,,,,,,,,,,,,,,,,,,,,,,,,,,,,,,,,,,,,,,,,,,,,,,,,,,,,,,,,,,,,,,,,,,,,,,,,,,,,,,,,,,,
,,,,,,,,,,5e1e198c99109f000b6196a5,33,Mężczyzna,2022-06-04_08h10.40.985,task,2021.1.4,Win32,59.94125757,628b806c463b948bc644b84f,629af76f7e442b838c515f25,,,,,3,0,3,0,1,X V Q F H G B L J M P D K C T S W R N Z,,,,,,,,,,,,,,,,,,,,,,,,,,,,,,,,,,,,,,,,,,,,,,,,,,,,,,,,,,,,,,,,,,,,,,,,,,,,,,,,,,,,,,,,,,,,,
,,,,,,,,,,5e1e198c99109f000b6196a5,33,Mężczyzna,2022-06-04_08h10.40.985,task,2021.1.4,Win32,59.94125757,628b806c463b948bc644b84f,629af76f7e442b838c515f25,,,,,4,0,4,0,1,X V Q F H G B L J M P D K C T S W R N Z,,,,,,,,,,,,,,,,,,,,,,,,,,,,,,,,,,,,,,,,,,,,,,,,,,,,,,,,,,,,,,,,,,,,,,,,,,,,,,,,,,,,,,,,,,,,,
,,,,,,,,,,5e1e198c99109f000b6196a5,33,Mężczyzna,2022-06-04_08h10.40.985,task,2021.1.4,Win32,59.94125757,628b806c463b948bc644b84f,629af76f7e442b838c515f25,,,,,5,0,5,0,1,X V Q F H G B L J M P D K C T S W R N Z,,,,,,,,,,,,,,,,,,,,,,,,,,,,,,,,,,,,,,,,,,,,,,,,,,,,,,,,,,,,,,,,,,,,,,,,,,,,,,,,,,,,,,,,,,,,,
,,,,,,,,,,5e1e198c99109f000b6196a5,33,Mężczyzna,2022-06-04_08h10.40.985,task,2021.1.4,Win32,59.94125757,628b806c463b948bc644b84f,629af76f7e442b838c515f25,,,,,,,,,,,lvqjhd,"[""l"",""v"",""q"",""j"",""h"",""d""]","[1.3237000000477792,2.0676000000238446,3.6843000000119446,5.256500000000074,6.869700000047715,7.74970000004771,7.9173000000120055]",0,LVHQJC,9,0,9,0,1,,,,,,,,,,,,,,,,,,,,,,,,,,,,,,,,,,,,,,,,,,,,,,,,,,,,,,,,,,,,,,,,,,,,,,,,,,,,,,,,,,,
,,,,,,,,,,5e1e198c99109f000b6196a5,33,Mężczyzna,2022-06-04_08h10.40.985,task,2021.1.4,Win32,59.94125757,628b806c463b948bc644b84f,629af76f7e442b838c515f25,,,,,0,0,0,0,1,X V Q F H G B L J M P D K C T S W R N Z,,,,,,,,,,,,,,,,,,,,,,,,,,,,,,,,,,,,,,,,,,,,,,,,,,,,,,,,,,,,,,,,,,,,,,,,,,,,,,,,,,,,,,,,,,,,,
,,,,,,,,,,5e1e198c99109f000b6196a5,33,Mężczyzna,2022-06-04_08h10.40.985,task,2021.1.4,Win32,59.94125757,628b806c463b948bc644b84f,629af76f7e442b838c515f25,,,,,1,0,1,0,1,X V Q F H G B L J M P D K C T S W R N Z,,,,,,,,,,,,,,,,,,,,,,,,,,,,,,,,,,,,,,,,,,,,,,,,,,,,,,,,,,,,,,,,,,,,,,,,,,,,,,,,,,,,,,,,,,,,,
,,,,,,,,,,5e1e198c99109f000b6196a5,33,Mężczyzna,2022-06-04_08h10.40.985,task,2021.1.4,Win32,59.94125757,628b806c463b948bc644b84f,629af76f7e442b838c515f25,,,,,2,0,2,0,1,X V Q F H G B L J M P D K C T S W R N Z,,,,,,,,,,,,,,,,,,,,,,,,,,,,,,,,,,,,,,,,,,,,,,,,,,,,,,,,,,,,,,,,,,,,,,,,,,,,,,,,,,,,,,,,,,,,,
,,,,,,,,,,5e1e198c99109f000b6196a5,33,Mężczyzna,2022-06-04_08h10.40.985,task,2021.1.4,Win32,59.94125757,628b806c463b948bc644b84f,629af76f7e442b838c515f25,,,,,3,0,3,0,1,X V Q F H G B L J M P D K C T S W R N Z,,,,,,,,,,,,,,,,,,,,,,,,,,,,,,,,,,,,,,,,,,,,,,,,,,,,,,,,,,,,,,,,,,,,,,,,,,,,,,,,,,,,,,,,,,,,,
,,,,,,,,,,5e1e198c99109f000b6196a5,33,Mężczyzna,2022-06-04_08h10.40.985,task,2021.1.4,Win32,59.94125757,628b806c463b948bc644b84f,629af76f7e442b838c515f25,,,,,4,0,4,0,1,X V Q F H G B L J M P D K C T S W R N Z,,,,,,,,,,,,,,,,,,,,,,,,,,,,,,,,,,,,,,,,,,,,,,,,,,,,,,,,,,,,,,,,,,,,,,,,,,,,,,,,,,,,,,,,,,,,,
,,,,,,,,,,5e1e198c99109f000b6196a5,33,Mężczyzna,2022-06-04_08h10.40.985,task,2021.1.4,Win32,59.94125757,628b806c463b948bc644b84f,629af76f7e442b838c515f25,,,,,5,0,5,0,1,X V Q F H G B L J M P D K C T S W R N Z,,,,,,,,,,,,,,,,,,,,,,,,,,,,,,,,,,,,,,,,,,,,,,,,,,,,,,,,,,,,,,,,,,,,,,,,,,,,,,,,,,,,,,,,,,,,,
,,,,,,,,,,5e1e198c99109f000b6196a5,33,Mężczyzna,2022-06-04_08h10.40.985,task,2021.1.4,Win32,59.94125757,628b806c463b948bc644b84f,629af76f7e442b838c515f25,,,,,,,,,,,sxtcbp,"[""s"",""x"",""t"",""c"",""b"",""p""]","[2.999500000000012,3.3161999999881573,4.76789999997618,5.2905000000000655,6.810699999988174,7.027800000012007,7.660800000011932]",1,SXTCBP,10,0,10,0,1,,,,,,,,,,,,,,,,,,,,,,,,,,,,,,,,,,,,,,,,,,,,,,,,,,,,,,,,,,,,,,,,,,,,,,,,,,,,,,,,,,,
,,,,,,,,,,5e1e198c99109f000b6196a5,33,Mężczyzna,2022-06-04_08h10.40.985,task,2021.1.4,Win32,59.94125757,628b806c463b948bc644b84f,629af76f7e442b838c515f25,,,,,0,0,0,0,1,X V Q F H G B L J M P D K C T S W R N Z,,,,,,,,,,,,,,,,,,,,,,,,,,,,,,,,,,,,,,,,,,,,,,,,,,,,,,,,,,,,,,,,,,,,,,,,,,,,,,,,,,,,,,,,,,,,,
,,,,,,,,,,5e1e198c99109f000b6196a5,33,Mężczyzna,2022-06-04_08h10.40.985,task,2021.1.4,Win32,59.94125757,628b806c463b948bc644b84f,629af76f7e442b838c515f25,,,,,1,0,1,0,1,X V Q F H G B L J M P D K C T S W R N Z,,,,,,,,,,,,,,,,,,,,,,,,,,,,,,,,,,,,,,,,,,,,,,,,,,,,,,,,,,,,,,,,,,,,,,,,,,,,,,,,,,,,,,,,,,,,,
,,,,,,,,,,5e1e198c99109f000b6196a5,33,Mężczyzna,2022-06-04_08h10.40.985,task,2021.1.4,Win32,59.94125757,628b806c463b948bc644b84f,629af76f7e442b838c515f25,,,,,2,0,2,0,1,X V Q F H G B L J M P D K C T S W R N Z,,,,,,,,,,,,,,,,,,,,,,,,,,,,,,,,,,,,,,,,,,,,,,,,,,,,,,,,,,,,,,,,,,,,,,,,,,,,,,,,,,,,,,,,,,,,,
,,,,,,,,,,5e1e198c99109f000b6196a5,33,Mężczyzna,2022-06-04_08h10.40.985,task,2021.1.4,Win32,59.94125757,628b806c463b948bc644b84f,629af76f7e442b838c515f25,,,,,3,0,3,0,1,X V Q F H G B L J M P D K C T S W R N Z,,,,,,,,,,,,,,,,,,,,,,,,,,,,,,,,,,,,,,,,,,,,,,,,,,,,,,,,,,,,,,,,,,,,,,,,,,,,,,,,,,,,,,,,,,,,,
,,,,,,,,,,5e1e198c99109f000b6196a5,33,Mężczyzna,2022-06-04_08h10.40.985,task,2021.1.4,Win32,59.94125757,628b806c463b948bc644b84f,629af76f7e442b838c515f25,,,,,4,0,4,0,1,X V Q F H G B L J M P D K C T S W R N Z,,,,,,,,,,,,,,,,,,,,,,,,,,,,,,,,,,,,,,,,,,,,,,,,,,,,,,,,,,,,,,,,,,,,,,,,,,,,,,,,,,,,,,,,,,,,,
,,,,,,,,,,5e1e198c99109f000b6196a5,33,Mężczyzna,2022-06-04_08h10.40.985,task,2021.1.4,Win32,59.94125757,628b806c463b948bc644b84f,629af76f7e442b838c515f25,,,,,5,0,5,0,1,X V Q F H G B L J M P D K C T S W R N Z,,,,,,,,,,,,,,,,,,,,,,,,,,,,,,,,,,,,,,,,,,,,,,,,,,,,,,,,,,,,,,,,,,,,,,,,,,,,,,,,,,,,,,,,,,,,,
,,,,,,,,,,5e1e198c99109f000b6196a5,33,Mężczyzna,2022-06-04_08h10.40.985,task,2021.1.4,Win32,59.94125757,628b806c463b948bc644b84f,629af76f7e442b838c515f25,,,,,6,0,6,0,1,X V Q F H G B L J M P D K C T S W R N Z,,,,,,,,,,,,,,,,,,,,,,,,,,,,,,,,,,,,,,,,,,,,,,,,,,,,,,,,,,,,,,,,,,,,,,,,,,,,,,,,,,,,,,,,,,,,,
,,,,,,,,,,5e1e198c99109f000b6196a5,33,Mężczyzna,2022-06-04_08h10.40.985,task,2021.1.4,Win32,59.94125757,628b806c463b948bc644b84f,629af76f7e442b838c515f25,,,,,,,,,,,jskjbb,"[""j"",""s"",""k"",""j"",""b"",""b""]","[3.606400000035819,3.909100000023841,5.917199999988043,8.434600000023806,8.793999999999983,8.966699999988123,10.916400000035765]",0,JSKJXBB,11,0,11,0,1,,,,,,,,,,,,,,,,,,,,,,,,,,,,,,,,,,,,,,,,,,,,,,,,,,,,,,,,,,,,,,,,,,,,,,,,,,,,,,,,,,,
,,,,,,,,,,5e1e198c99109f000b6196a5,33,Mężczyzna,2022-06-04_08h10.40.985,task,2021.1.4,Win32,59.94125757,628b806c463b948bc644b84f,629af76f7e442b838c515f25,,,,,0,0,0,0,1,X V Q F H G B L J M P D K C T S W R N Z,,,,,,,,,,,,,,,,,,,,,,,,,,,,,,,,,,,,,,,,,,,,,,,,,,,,,,,,,,,,,,,,,,,,,,,,,,,,,,,,,,,,,,,,,,,,,
,,,,,,,,,,5e1e198c99109f000b6196a5,33,Mężczyzna,2022-06-04_08h10.40.985,task,2021.1.4,Win32,59.94125757,628b806c463b948bc644b84f,629af76f7e442b838c515f25,,,,,1,0,1,0,1,X V Q F H G B L J M P D K C T S W R N Z,,,,,,,,,,,,,,,,,,,,,,,,,,,,,,,,,,,,,,,,,,,,,,,,,,,,,,,,,,,,,,,,,,,,,,,,,,,,,,,,,,,,,,,,,,,,,
,,,,,,,,,,5e1e198c99109f000b6196a5,33,Mężczyzna,2022-06-04_08h10.40.985,task,2021.1.4,Win32,59.94125757,628b806c463b948bc644b84f,629af76f7e442b838c515f25,,,,,2,0,2,0,1,X V Q F H G B L J M P D K C T S W R N Z,,,,,,,,,,,,,,,,,,,,,,,,,,,,,,,,,,,,,,,,,,,,,,,,,,,,,,,,,,,,,,,,,,,,,,,,,,,,,,,,,,,,,,,,,,,,,
,,,,,,,,,,5e1e198c99109f000b6196a5,33,Mężczyzna,2022-06-04_08h10.40.985,task,2021.1.4,Win32,59.94125757,628b806c463b948bc644b84f,629af76f7e442b838c515f25,,,,,3,0,3,0,1,X V Q F H G B L J M P D K C T S W R N Z,,,,,,,,,,,,,,,,,,,,,,,,,,,,,,,,,,,,,,,,,,,,,,,,,,,,,,,,,,,,,,,,,,,,,,,,,,,,,,,,,,,,,,,,,,,,,
,,,,,,,,,,5e1e198c99109f000b6196a5,33,Mężczyzna,2022-06-04_08h10.40.985,task,2021.1.4,Win32,59.94125757,628b806c463b948bc644b84f,629af76f7e442b838c515f25,,,,,4,0,4,0,1,X V Q F H G B L J M P D K C T S W R N Z,,,,,,,,,,,,,,,,,,,,,,,,,,,,,,,,,,,,,,,,,,,,,,,,,,,,,,,,,,,,,,,,,,,,,,,,,,,,,,,,,,,,,,,,,,,,,
,,,,,,,,,,5e1e198c99109f000b6196a5,33,Mężczyzna,2022-06-04_08h10.40.985,task,2021.1.4,Win32,59.94125757,628b806c463b948bc644b84f,629af76f7e442b838c515f25,,,,,5,0,5,0,1,X V Q F H G B L J M P D K C T S W R N Z,,,,,,,,,,,,,,,,,,,,,,,,,,,,,,,,,,,,,,,,,,,,,,,,,,,,,,,,,,,,,,,,,,,,,,,,,,,,,,,,,,,,,,,,,,,,,
,,,,,,,,,,5e1e198c99109f000b6196a5,33,Mężczyzna,2022-06-04_08h10.40.985,task,2021.1.4,Win32,59.94125757,628b806c463b948bc644b84f,629af76f7e442b838c515f25,,,,,6,0,6,0,1,X V Q F H G B L J M P D K C T S W R N Z,,,,,,,,,,,,,,,,,,,,,,,,,,,,,,,,,,,,,,,,,,,,,,,,,,,,,,,,,,,,,,,,,,,,,,,,,,,,,,,,,,,,,,,,,,,,,
,,,,,,,,,,5e1e198c99109f000b6196a5,33,Mężczyzna,2022-06-04_08h10.40.985,task,2021.1.4,Win32,59.94125757,628b806c463b948bc644b84f,629af76f7e442b838c515f25,,,,,,,,,,,gcncnsx,"[""g"",""c"",""n"",""c"",""n"",""s"",""x""]","[3.842099999964148,4.137699999988058,4.423699999988003,4.650699999987978,8.716299999952298,9.19129999995232,11.166599999964205,12.132499999999936]",0,GNCNNJX,12,0,12,0,1,,,,,,,,,,,,,,,,,,,,,,,,,,,,,,,,,,,,,,,,,,,,,,,,,,,,,,,,,,,,,,,,,,,,,,,,,,,,,,,,,,,
,,,,,,,,,,5e1e198c99109f000b6196a5,33,Mężczyzna,2022-06-04_08h10.40.985,task,2021.1.4,Win32,59.94125757,628b806c463b948bc644b84f,629af76f7e442b838c515f25,,,,,0,0,0,0,1,X V Q F H G B L J M P D K C T S W R N Z,,,,,,,,,,,,,,,,,,,,,,,,,,,,,,,,,,,,,,,,,,,,,,,,,,,,,,,,,,,,,,,,,,,,,,,,,,,,,,,,,,,,,,,,,,,,,
,,,,,,,,,,5e1e198c99109f000b6196a5,33,Mężczyzna,2022-06-04_08h10.40.985,task,2021.1.4,Win32,59.94125757,628b806c463b948bc644b84f,629af76f7e442b838c515f25,,,,,1,0,1,0,1,X V Q F H G B L J M P D K C T S W R N Z,,,,,,,,,,,,,,,,,,,,,,,,,,,,,,,,,,,,,,,,,,,,,,,,,,,,,,,,,,,,,,,,,,,,,,,,,,,,,,,,,,,,,,,,,,,,,
,,,,,,,,,,5e1e198c99109f000b6196a5,33,Mężczyzna,2022-06-04_08h10.40.985,task,2021.1.4,Win32,59.94125757,628b806c463b948bc644b84f,629af76f7e442b838c515f25,,,,,2,0,2,0,1,X V Q F H G B L J M P D K C T S W R N Z,,,,,,,,,,,,,,,,,,,,,,,,,,,,,,,,,,,,,,,,,,,,,,,,,,,,,,,,,,,,,,,,,,,,,,,,,,,,,,,,,,,,,,,,,,,,,
,,,,,,,,,,5e1e198c99109f000b6196a5,33,Mężczyzna,2022-06-04_08h10.40.985,task,2021.1.4,Win32,59.94125757,628b806c463b948bc644b84f,629af76f7e442b838c515f25,,,,,3,0,3,0,1,X V Q F H G B L J M P D K C T S W R N Z,,,,,,,,,,,,,,,,,,,,,,,,,,,,,,,,,,,,,,,,,,,,,,,,,,,,,,,,,,,,,,,,,,,,,,,,,,,,,,,,,,,,,,,,,,,,,
,,,,,,,,,,5e1e198c99109f000b6196a5,33,Mężczyzna,2022-06-04_08h10.40.985,task,2021.1.4,Win32,59.94125757,628b806c463b948bc644b84f,629af76f7e442b838c515f25,,,,,4,0,4,0,1,X V Q F H G B L J M P D K C T S W R N Z,,,,,,,,,,,,,,,,,,,,,,,,,,,,,,,,,,,,,,,,,,,,,,,,,,,,,,,,,,,,,,,,,,,,,,,,,,,,,,,,,,,,,,,,,,,,,
,,,,,,,,,,5e1e198c99109f000b6196a5,33,Mężczyzna,2022-06-04_08h10.40.985,task,2021.1.4,Win32,59.94125757,628b806c463b948bc644b84f,629af76f7e442b838c515f25,,,,,5,0,5,0,1,X V Q F H G B L J M P D K C T S W R N Z,,,,,,,,,,,,,,,,,,,,,,,,,,,,,,,,,,,,,,,,,,,,,,,,,,,,,,,,,,,,,,,,,,,,,,,,,,,,,,,,,,,,,,,,,,,,,
,,,,,,,,,,5e1e198c99109f000b6196a5,33,Mężczyzna,2022-06-04_08h10.40.985,task,2021.1.4,Win32,59.94125757,628b806c463b948bc644b84f,629af76f7e442b838c515f25,,,,,6,0,6,0,1,X V Q F H G B L J M P D K C T S W R N Z,,,,,,,,,,,,,,,,,,,,,,,,,,,,,,,,,,,,,,,,,,,,,,,,,,,,,,,,,,,,,,,,,,,,,,,,,,,,,,,,,,,,,,,,,,,,,
,,,,,,,,,,5e1e198c99109f000b6196a5,33,Mężczyzna,2022-06-04_08h10.40.985,task,2021.1.4,Win32,59.94125757,628b806c463b948bc644b84f,629af76f7e442b838c515f25,,,,,,,,,,,nmskbtq,"[""n"",""m"",""s"",""k"",""b"",""t"",""q""]","[2.8768999999762173,3.0988999999761973,6.082800000011957,6.683399999976132,9.716000000000008,10.016199999988089,10.65130000001193,12.46759999996425]",1,NMSKBTQ,13,0,13,0,1,,,,,,,,,,,,,,,,,,,,,,,,,,,,,,,,,,,,,,,,,,,,,,,,,,,,,,,,,,,,,,,,,,,,,,,,,,,,,,,,,,,
,,,,,,,,,,5e1e198c99109f000b6196a5,33,Mężczyzna,2022-06-04_08h10.40.985,task,2021.1.4,Win32,59.94125757,628b806c463b948bc644b84f,629af76f7e442b838c515f25,,,,,0,0,0,0,1,X V Q F H G B L J M P D K C T S W R N Z,,,,,,,,,,,,,,,,,,,,,,,,,,,,,,,,,,,,,,,,,,,,,,,,,,,,,,,,,,,,,,,,,,,,,,,,,,,,,,,,,,,,,,,,,,,,,
,,,,,,,,,,5e1e198c99109f000b6196a5,33,Mężczyzna,2022-06-04_08h10.40.985,task,2021.1.4,Win32,59.94125757,628b806c463b948bc644b84f,629af76f7e442b838c515f25,,,,,1,0,1,0,1,X V Q F H G B L J M P D K C T S W R N Z,,,,,,,,,,,,,,,,,,,,,,,,,,,,,,,,,,,,,,,,,,,,,,,,,,,,,,,,,,,,,,,,,,,,,,,,,,,,,,,,,,,,,,,,,,,,,
,,,,,,,,,,5e1e198c99109f000b6196a5,33,Mężczyzna,2022-06-04_08h10.40.985,task,2021.1.4,Win32,59.94125757,628b806c463b948bc644b84f,629af76f7e442b838c515f25,,,,,2,0,2,0,1,X V Q F H G B L J M P D K C T S W R N Z,,,,,,,,,,,,,,,,,,,,,,,,,,,,,,,,,,,,,,,,,,,,,,,,,,,,,,,,,,,,,,,,,,,,,,,,,,,,,,,,,,,,,,,,,,,,,
,,,,,,,,,,5e1e198c99109f000b6196a5,33,Mężczyzna,2022-06-04_08h10.40.985,task,2021.1.4,Win32,59.94125757,628b806c463b948bc644b84f,629af76f7e442b838c515f25,,,,,3,0,3,0,1,X V Q F H G B L J M P D K C T S W R N Z,,,,,,,,,,,,,,,,,,,,,,,,,,,,,,,,,,,,,,,,,,,,,,,,,,,,,,,,,,,,,,,,,,,,,,,,,,,,,,,,,,,,,,,,,,,,,
,,,,,,,,,,5e1e198c99109f000b6196a5,33,Mężczyzna,2022-06-04_08h10.40.985,task,2021.1.4,Win32,59.94125757,628b806c463b948bc644b84f,629af76f7e442b838c515f25,,,,,4,0,4,0,1,X V Q F H G B L J M P D K C T S W R N Z,,,,,,,,,,,,,,,,,,,,,,,,,,,,,,,,,,,,,,,,,,,,,,,,,,,,,,,,,,,,,,,,,,,,,,,,,,,,,,,,,,,,,,,,,,,,,
,,,,,,,,,,5e1e198c99109f000b6196a5,33,Mężczyzna,2022-06-04_08h10.40.985,task,2021.1.4,Win32,59.94125757,628b806c463b948bc644b84f,629af76f7e442b838c515f25,,,,,5,0,5,0,1,X V Q F H G B L J M P D K C T S W R N Z,,,,,,,,,,,,,,,,,,,,,,,,,,,,,,,,,,,,,,,,,,,,,,,,,,,,,,,,,,,,,,,,,,,,,,,,,,,,,,,,,,,,,,,,,,,,,
,,,,,,,,,,5e1e198c99109f000b6196a5,33,Mężczyzna,2022-06-04_08h10.40.985,task,2021.1.4,Win32,59.94125757,628b806c463b948bc644b84f,629af76f7e442b838c515f25,,,,,6,0,6,0,1,X V Q F H G B L J M P D K C T S W R N Z,,,,,,,,,,,,,,,,,,,,,,,,,,,,,,,,,,,,,,,,,,,,,,,,,,,,,,,,,,,,,,,,,,,,,,,,,,,,,,,,,,,,,,,,,,,,,
,,,,,,,,,,5e1e198c99109f000b6196a5,33,Mężczyzna,2022-06-04_08h10.40.985,task,2021.1.4,Win32,59.94125757,628b806c463b948bc644b84f,629af76f7e442b838c515f25,,,,,,,,,,,lmttqkf,"[""l"",""m"",""t"",""t"",""q"",""k"",""f""]","[2.5265000000000555,2.726900000035812,3.32000000000005,4.505200000047694,5.122300000011933,9.716400000035833,10.142100000023902,10.718000000000075]",1,LMTTQKF,14,0,14,0,1,,,,,,,,,,,,,,,,,,,,,,,,,,,,,,,,,,,,,,,,,,,,,,,,,,,,,,,,,,,,,,,,,,,,,,,,,,,,,,,,,,,
,,,,,,,,,,5e1e198c99109f000b6196a5,33,Mężczyzna,2022-06-04_08h10.40.985,task,2021.1.4,Win32,59.94125757,628b806c463b948bc644b84f,629af76f7e442b838c515f25,,,,,0,0,0,0,1,X V Q F H G B L J M P D K C T S W R N Z,,,,,,,,,,,,,,,,,,,,,,,,,,,,,,,,,,,,,,,,,,,,,,,,,,,,,,,,,,,,,,,,,,,,,,,,,,,,,,,,,,,,,,,,,,,,,
,,,,,,,,,,5e1e198c99109f000b6196a5,33,Mężczyzna,2022-06-04_08h10.40.985,task,2021.1.4,Win32,59.94125757,628b806c463b948bc644b84f,629af76f7e442b838c515f25,,,,,1,0,1,0,1,X V Q F H G B L J M P D K C T S W R N Z,,,,,,,,,,,,,,,,,,,,,,,,,,,,,,,,,,,,,,,,,,,,,,,,,,,,,,,,,,,,,,,,,,,,,,,,,,,,,,,,,,,,,,,,,,,,,
,,,,,,,,,,5e1e198c99109f000b6196a5,33,Mężczyzna,2022-06-04_08h10.40.985,task,2021.1.4,Win32,59.94125757,628b806c463b948bc644b84f,629af76f7e442b838c515f25,,,,,2,0,2,0,1,X V Q F H G B L J M P D K C T S W R N Z,,,,,,,,,,,,,,,,,,,,,,,,,,,,,,,,,,,,,,,,,,,,,,,,,,,,,,,,,,,,,,,,,,,,,,,,,,,,,,,,,,,,,,,,,,,,,
,,,,,,,,,,5e1e198c99109f000b6196a5,33,Mężczyzna,2022-06-04_08h10.40.985,task,2021.1.4,Win32,59.94125757,628b806c463b948bc644b84f,629af76f7e442b838c515f25,,,,,3,0,3,0,1,X V Q F H G B L J M P D K C T S W R N Z,,,,,,,,,,,,,,,,,,,,,,,,,,,,,,,,,,,,,,,,,,,,,,,,,,,,,,,,,,,,,,,,,,,,,,,,,,,,,,,,,,,,,,,,,,,,,
,,,,,,,,,,5e1e198c99109f000b6196a5,33,Mężczyzna,2022-06-04_08h10.40.985,task,2021.1.4,Win32,59.94125757,628b806c463b948bc644b84f,629af76f7e442b838c515f25,,,,,4,0,4,0,1,X V Q F H G B L J M P D K C T S W R N Z,,,,,,,,,,,,,,,,,,,,,,,,,,,,,,,,,,,,,,,,,,,,,,,,,,,,,,,,,,,,,,,,,,,,,,,,,,,,,,,,,,,,,,,,,,,,,
,,,,,,,,,,5e1e198c99109f000b6196a5,33,Mężczyzna,2022-06-04_08h10.40.985,task,2021.1.4,Win32,59.94125757,628b806c463b948bc644b84f,629af76f7e442b838c515f25,,,,,5,0,5,0,1,X V Q F H G B L J M P D K C T S W R N Z,,,,,,,,,,,,,,,,,,,,,,,,,,,,,,,,,,,,,,,,,,,,,,,,,,,,,,,,,,,,,,,,,,,,,,,,,,,,,,,,,,,,,,,,,,,,,
,,,,,,,,,,5e1e198c99109f000b6196a5,33,Mężczyzna,2022-06-04_08h10.40.985,task,2021.1.4,Win32,59.94125757,628b806c463b948bc644b84f,629af76f7e442b838c515f25,,,,,6,0,6,0,1,X V Q F H G B L J M P D K C T S W R N Z,,,,,,,,,,,,,,,,,,,,,,,,,,,,,,,,,,,,,,,,,,,,,,,,,,,,,,,,,,,,,,,,,,,,,,,,,,,,,,,,,,,,,,,,,,,,,
,,,,,,,,,,5e1e198c99109f000b6196a5,33,Mężczyzna,2022-06-04_08h10.40.985,task,2021.1.4,Win32,59.94125757,628b806c463b948bc644b84f,629af76f7e442b838c515f25,,,,,7,0,7,0,1,X V Q F H G B L J M P D K C T S W R N Z,,,,,,,,,,,,,,,,,,,,,,,,,,,,,,,,,,,,,,,,,,,,,,,,,,,,,,,,,,,,,,,,,,,,,,,,,,,,,,,,,,,,,,,,,,,,,
,,,,,,,,,,5e1e198c99109f000b6196a5,33,Mężczyzna,2022-06-04_08h10.40.985,task,2021.1.4,Win32,59.94125757,628b806c463b948bc644b84f,629af76f7e442b838c515f25,,,,,,,,,,,qwsqmwwq,"[""q"",""w"",""s"",""q"",""m"",""w"",""w"",""q""]","[2.5196000000238428,2.722899999976221,3.8391000000239046,4.3318999999761445,4.989300000012008,8.053600000023835,8.282300000011901,9.000800000011964,10.082499999999982]",0,QWSQMWVQ,15,0,15,0,1,,,,,,,,,,,,,,,,,,,,,,,,,,,,,,,,,,,,,,,,,,,,,,,,,,,,,,,,,,,,,,,,,,,,,,,,,,,,,,,,,,,
,,,,,,,,,,5e1e198c99109f000b6196a5,33,Mężczyzna,2022-06-04_08h10.40.985,task,2021.1.4,Win32,59.94125757,628b806c463b948bc644b84f,629af76f7e442b838c515f25,,,,,0,0,0,0,1,X V Q F H G B L J M P D K C T S W R N Z,,,,,,,,,,,,,,,,,,,,,,,,,,,,,,,,,,,,,,,,,,,,,,,,,,,,,,,,,,,,,,,,,,,,,,,,,,,,,,,,,,,,,,,,,,,,,
,,,,,,,,,,5e1e198c99109f000b6196a5,33,Mężczyzna,2022-06-04_08h10.40.985,task,2021.1.4,Win32,59.94125757,628b806c463b948bc644b84f,629af76f7e442b838c515f25,,,,,1,0,1,0,1,X V Q F H G B L J M P D K C T S W R N Z,,,,,,,,,,,,,,,,,,,,,,,,,,,,,,,,,,,,,,,,,,,,,,,,,,,,,,,,,,,,,,,,,,,,,,,,,,,,,,,,,,,,,,,,,,,,,
,,,,,,,,,,5e1e198c99109f000b6196a5,33,Mężczyzna,2022-06-04_08h10.40.985,task,2021.1.4,Win32,59.94125757,628b806c463b948bc644b84f,629af76f7e442b838c515f25,,,,,2,0,2,0,1,X V Q F H G B L J M P D K C T S W R N Z,,,,,,,,,,,,,,,,,,,,,,,,,,,,,,,,,,,,,,,,,,,,,,,,,,,,,,,,,,,,,,,,,,,,,,,,,,,,,,,,,,,,,,,,,,,,,
,,,,,,,,,,5e1e198c99109f000b6196a5,33,Mężczyzna,2022-06-04_08h10.40.985,task,2021.1.4,Win32,59.94125757,628b806c463b948bc644b84f,629af76f7e442b838c515f25,,,,,3,0,3,0,1,X V Q F H G B L J M P D K C T S W R N Z,,,,,,,,,,,,,,,,,,,,,,,,,,,,,,,,,,,,,,,,,,,,,,,,,,,,,,,,,,,,,,,,,,,,,,,,,,,,,,,,,,,,,,,,,,,,,
,,,,,,,,,,5e1e198c99109f000b6196a5,33,Mężczyzna,2022-06-04_08h10.40.985,task,2021.1.4,Win32,59.94125757,628b806c463b948bc644b84f,629af76f7e442b838c515f25,,,,,4,0,4,0,1,X V Q F H G B L J M P D K C T S W R N Z,,,,,,,,,,,,,,,,,,,,,,,,,,,,,,,,,,,,,,,,,,,,,,,,,,,,,,,,,,,,,,,,,,,,,,,,,,,,,,,,,,,,,,,,,,,,,
,,,,,,,,,,5e1e198c99109f000b6196a5,33,Mężczyzna,2022-06-04_08h10.40.985,task,2021.1.4,Win32,59.94125757,628b806c463b948bc644b84f,629af76f7e442b838c515f25,,,,,5,0,5,0,1,X V Q F H G B L J M P D K C T S W R N Z,,,,,,,,,,,,,,,,,,,,,,,,,,,,,,,,,,,,,,,,,,,,,,,,,,,,,,,,,,,,,,,,,,,,,,,,,,,,,,,,,,,,,,,,,,,,,
,,,,,,,,,,5e1e198c99109f000b6196a5,33,Mężczyzna,2022-06-04_08h10.40.985,task,2021.1.4,Win32,59.94125757,628b806c463b948bc644b84f,629af76f7e442b838c515f25,,,,,6,0,6,0,1,X V Q F H G B L J M P D K C T S W R N Z,,,,,,,,,,,,,,,,,,,,,,,,,,,,,,,,,,,,,,,,,,,,,,,,,,,,,,,,,,,,,,,,,,,,,,,,,,,,,,,,,,,,,,,,,,,,,
,,,,,,,,,,5e1e198c99109f000b6196a5,33,Mężczyzna,2022-06-04_08h10.40.985,task,2021.1.4,Win32,59.94125757,628b806c463b948bc644b84f,629af76f7e442b838c515f25,,,,,7,0,7,0,1,X V Q F H G B L J M P D K C T S W R N Z,,,,,,,,,,,,,,,,,,,,,,,,,,,,,,,,,,,,,,,,,,,,,,,,,,,,,,,,,,,,,,,,,,,,,,,,,,,,,,,,,,,,,,,,,,,,,
,,,,,,,,,,5e1e198c99109f000b6196a5,33,Mężczyzna,2022-06-04_08h10.40.985,task,2021.1.4,Win32,59.94125757,628b806c463b948bc644b84f,629af76f7e442b838c515f25,,,,,,,,,,,rgtcwhzf,"[""r"",""g"",""t"",""c"",""w"",""h"",""z"",""f""]","[6.285399999976221,6.516300000011938,6.74919999998815,7.182399999976155,10.577699999988113,11.573600000023816,15.032699999988154,15.567100000023856,17.687800000011975]",1,RGTCWHZF,16,0,16,0,1,,,,,,,,,,,,,,,,,,,,,,,,,,,,,,,,,,,,,,,,,,,,,,,,,,,,,,,,,,,,,,,,,,,,,,,,,,,,,,,,,,,
,,,,,,,,,,5e1e198c99109f000b6196a5,33,Mężczyzna,2022-06-04_08h10.40.985,task,2021.1.4,Win32,59.94125757,628b806c463b948bc644b84f,629af76f7e442b838c515f25,,,,,0,0,0,0,1,X V Q F H G B L J M P D K C T S W R N Z,,,,,,,,,,,,,,,,,,,,,,,,,,,,,,,,,,,,,,,,,,,,,,,,,,,,,,,,,,,,,,,,,,,,,,,,,,,,,,,,,,,,,,,,,,,,,
,,,,,,,,,,5e1e198c99109f000b6196a5,33,Mężczyzna,2022-06-04_08h10.40.985,task,2021.1.4,Win32,59.94125757,628b806c463b948bc644b84f,629af76f7e442b838c515f25,,,,,1,0,1,0,1,X V Q F H G B L J M P D K C T S W R N Z,,,,,,,,,,,,,,,,,,,,,,,,,,,,,,,,,,,,,,,,,,,,,,,,,,,,,,,,,,,,,,,,,,,,,,,,,,,,,,,,,,,,,,,,,,,,,
,,,,,,,,,,5e1e198c99109f000b6196a5,33,Mężczyzna,2022-06-04_08h10.40.985,task,2021.1.4,Win32,59.94125757,628b806c463b948bc644b84f,629af76f7e442b838c515f25,,,,,2,0,2,0,1,X V Q F H G B L J M P D K C T S W R N Z,,,,,,,,,,,,,,,,,,,,,,,,,,,,,,,,,,,,,,,,,,,,,,,,,,,,,,,,,,,,,,,,,,,,,,,,,,,,,,,,,,,,,,,,,,,,,
,,,,,,,,,,5e1e198c99109f000b6196a5,33,Mężczyzna,2022-06-04_08h10.40.985,task,2021.1.4,Win32,59.94125757,628b806c463b948bc644b84f,629af76f7e442b838c515f25,,,,,3,0,3,0,1,X V Q F H G B L J M P D K C T S W R N Z,,,,,,,,,,,,,,,,,,,,,,,,,,,,,,,,,,,,,,,,,,,,,,,,,,,,,,,,,,,,,,,,,,,,,,,,,,,,,,,,,,,,,,,,,,,,,
,,,,,,,,,,5e1e198c99109f000b6196a5,33,Mężczyzna,2022-06-04_08h10.40.985,task,2021.1.4,Win32,59.94125757,628b806c463b948bc644b84f,629af76f7e442b838c515f25,,,,,4,0,4,0,1,X V Q F H G B L J M P D K C T S W R N Z,,,,,,,,,,,,,,,,,,,,,,,,,,,,,,,,,,,,,,,,,,,,,,,,,,,,,,,,,,,,,,,,,,,,,,,,,,,,,,,,,,,,,,,,,,,,,
,,,,,,,,,,5e1e198c99109f000b6196a5,33,Mężczyzna,2022-06-04_08h10.40.985,task,2021.1.4,Win32,59.94125757,628b806c463b948bc644b84f,629af76f7e442b838c515f25,,,,,5,0,5,0,1,X V Q F H G B L J M P D K C T S W R N Z,,,,,,,,,,,,,,,,,,,,,,,,,,,,,,,,,,,,,,,,,,,,,,,,,,,,,,,,,,,,,,,,,,,,,,,,,,,,,,,,,,,,,,,,,,,,,
,,,,,,,,,,5e1e198c99109f000b6196a5,33,Mężczyzna,2022-06-04_08h10.40.985,task,2021.1.4,Win32,59.94125757,628b806c463b948bc644b84f,629af76f7e442b838c515f25,,,,,6,0,6,0,1,X V Q F H G B L J M P D K C T S W R N Z,,,,,,,,,,,,,,,,,,,,,,,,,,,,,,,,,,,,,,,,,,,,,,,,,,,,,,,,,,,,,,,,,,,,,,,,,,,,,,,,,,,,,,,,,,,,,
,,,,,,,,,,5e1e198c99109f000b6196a5,33,Mężczyzna,2022-06-04_08h10.40.985,task,2021.1.4,Win32,59.94125757,628b806c463b948bc644b84f,629af76f7e442b838c515f25,,,,,7,0,7,0,1,X V Q F H G B L J M P D K C T S W R N Z,,,,,,,,,,,,,,,,,,,,,,,,,,,,,,,,,,,,,,,,,,,,,,,,,,,,,,,,,,,,,,,,,,,,,,,,,,,,,,,,,,,,,,,,,,,,,
,,,,,,,,,,5e1e198c99109f000b6196a5,33,Mężczyzna,2022-06-04_08h10.40.985,task,2021.1.4,Win32,59.94125757,628b806c463b948bc644b84f,629af76f7e442b838c515f25,,,,,,,,,,,zkphhqbn,"[""z"",""k"",""p"",""h"",""h"",""q"",""b"",""n""]","[3.439600000023802,5.987199999988093,6.216199999988021,8.099400000035757,8.271499999999946,10.006699999988086,12.766999999999939,12.949800000011919,13.117100000023811]",1,ZKPHHQBN,17,0,17,0,1,,,,,,,,,,,,,,,,,,,,,,,,,,,,,,,,,,,,,,,,,,,,,,,,,,,,,,,,,,,,,,,,,,,,,,,,,,,,,,,,,,,
,,,,,,,,,,5e1e198c99109f000b6196a5,33,Mężczyzna,2022-06-04_08h10.40.985,task,2021.1.4,Win32,59.94125757,628b806c463b948bc644b84f,629af76f7e442b838c515f25,,,,,0,0,0,0,1,X V Q F H G B L J M P D K C T S W R N Z,,,,,,,,,,,,,,,,,,,,,,,,,,,,,,,,,,,,,,,,,,,,,,,,,,,,,,,,,,,,,,,,,,,,,,,,,,,,,,,,,,,,,,,,,,,,,
,,,,,,,,,,5e1e198c99109f000b6196a5,33,Mężczyzna,2022-06-04_08h10.40.985,task,2021.1.4,Win32,59.94125757,628b806c463b948bc644b84f,629af76f7e442b838c515f25,,,,,1,0,1,0,1,X V Q F H G B L J M P D K C T S W R N Z,,,,,,,,,,,,,,,,,,,,,,,,,,,,,,,,,,,,,,,,,,,,,,,,,,,,,,,,,,,,,,,,,,,,,,,,,,,,,,,,,,,,,,,,,,,,,
,,,,,,,,,,5e1e198c99109f000b6196a5,33,Mężczyzna,2022-06-04_08h10.40.985,task,2021.1.4,Win32,59.94125757,628b806c463b948bc644b84f,629af76f7e442b838c515f25,,,,,2,0,2,0,1,X V Q F H G B L J M P D K C T S W R N Z,,,,,,,,,,,,,,,,,,,,,,,,,,,,,,,,,,,,,,,,,,,,,,,,,,,,,,,,,,,,,,,,,,,,,,,,,,,,,,,,,,,,,,,,,,,,,
,,,,,,,,,,5e1e198c99109f000b6196a5,33,Mężczyzna,2022-06-04_08h10.40.985,task,2021.1.4,Win32,59.94125757,628b806c463b948bc644b84f,629af76f7e442b838c515f25,,,,,3,0,3,0,1,X V Q F H G B L J M P D K C T S W R N Z,,,,,,,,,,,,,,,,,,,,,,,,,,,,,,,,,,,,,,,,,,,,,,,,,,,,,,,,,,,,,,,,,,,,,,,,,,,,,,,,,,,,,,,,,,,,,
,,,,,,,,,,5e1e198c99109f000b6196a5,33,Mężczyzna,2022-06-04_08h10.40.985,task,2021.1.4,Win32,59.94125757,628b806c463b948bc644b84f,629af76f7e442b838c515f25,,,,,4,0,4,0,1,X V Q F H G B L J M P D K C T S W R N Z,,,,,,,,,,,,,,,,,,,,,,,,,,,,,,,,,,,,,,,,,,,,,,,,,,,,,,,,,,,,,,,,,,,,,,,,,,,,,,,,,,,,,,,,,,,,,
,,,,,,,,,,5e1e198c99109f000b6196a5,33,Mężczyzna,2022-06-04_08h10.40.985,task,2021.1.4,Win32,59.94125757,628b806c463b948bc644b84f,629af76f7e442b838c515f25,,,,,5,0,5,0,1,X V Q F H G B L J M P D K C T S W R N Z,,,,,,,,,,,,,,,,,,,,,,,,,,,,,,,,,,,,,,,,,,,,,,,,,,,,,,,,,,,,,,,,,,,,,,,,,,,,,,,,,,,,,,,,,,,,,
,,,,,,,,,,5e1e198c99109f000b6196a5,33,Mężczyzna,2022-06-04_08h10.40.985,task,2021.1.4,Win32,59.94125757,628b806c463b948bc644b84f,629af76f7e442b838c515f25,,,,,6,0,6,0,1,X V Q F H G B L J M P D K C T S W R N Z,,,,,,,,,,,,,,,,,,,,,,,,,,,,,,,,,,,,,,,,,,,,,,,,,,,,,,,,,,,,,,,,,,,,,,,,,,,,,,,,,,,,,,,,,,,,,
,,,,,,,,,,5e1e198c99109f000b6196a5,33,Mężczyzna,2022-06-04_08h10.40.985,task,2021.1.4,Win32,59.94125757,628b806c463b948bc644b84f,629af76f7e442b838c515f25,,,,,7,0,7,0,1,X V Q F H G B L J M P D K C T S W R N Z,,,,,,,,,,,,,,,,,,,,,,,,,,,,,,,,,,,,,,,,,,,,,,,,,,,,,,,,,,,,,,,,,,,,,,,,,,,,,,,,,,,,,,,,,,,,,
,,,,,,,,,,5e1e198c99109f000b6196a5,33,Mężczyzna,2022-06-04_08h10.40.985,task,2021.1.4,Win32,59.94125757,628b806c463b948bc644b84f,629af76f7e442b838c515f25,,,,,8,0,8,0,1,X V Q F H G B L J M P D K C T S W R N Z,,,,,,,,,,,,,,,,,,,,,,,,,,,,,,,,,,,,,,,,,,,,,,,,,,,,,,,,,,,,,,,,,,,,,,,,,,,,,,,,,,,,,,,,,,,,,
,,,,,,,,,,5e1e198c99109f000b6196a5,33,Mężczyzna,2022-06-04_08h10.40.985,task,2021.1.4,Win32,59.94125757,628b806c463b948bc644b84f,629af76f7e442b838c515f25,,,,,,,,,,,tzxjkxjfb,"[""t"",""z"",""x"",""j"",""k"",""x"",""j"",""f"",""b""]","[6.37110000002383,6.635700000047677,8.35280000001194,8.624900000035723,11.876300000011952,12.199600000023793,22.19930000001193,22.486600000023827,23.019700000047692,23.465800000011882]",1,TZXJKXJFB,18,0,18,0,1,,,,,,,,,,,,,,,,,,,,,,,,,,,,,,,,,,,,,,,,,,,,,,,,,,,,,,,,,,,,,,,,,,,,,,,,,,,,,,,,,,,
,,,,,,,,,,5e1e198c99109f000b6196a5,33,Mężczyzna,2022-06-04_08h10.40.985,task,2021.1.4,Win32,59.94125757,628b806c463b948bc644b84f,629af76f7e442b838c515f25,,,,,0,0,0,0,1,X V Q F H G B L J M P D K C T S W R N Z,,,,,,,,,,,,,,,,,,,,,,,,,,,,,,,,,,,,,,,,,,,,,,,,,,,,,,,,,,,,,,,,,,,,,,,,,,,,,,,,,,,,,,,,,,,,,
,,,,,,,,,,5e1e198c99109f000b6196a5,33,Mężczyzna,2022-06-04_08h10.40.985,task,2021.1.4,Win32,59.94125757,628b806c463b948bc644b84f,629af76f7e442b838c515f25,,,,,1,0,1,0,1,X V Q F H G B L J M P D K C T S W R N Z,,,,,,,,,,,,,,,,,,,,,,,,,,,,,,,,,,,,,,,,,,,,,,,,,,,,,,,,,,,,,,,,,,,,,,,,,,,,,,,,,,,,,,,,,,,,,
,,,,,,,,,,5e1e198c99109f000b6196a5,33,Mężczyzna,2022-06-04_08h10.40.985,task,2021.1.4,Win32,59.94125757,628b806c463b948bc644b84f,629af76f7e442b838c515f25,,,,,2,0,2,0,1,X V Q F H G B L J M P D K C T S W R N Z,,,,,,,,,,,,,,,,,,,,,,,,,,,,,,,,,,,,,,,,,,,,,,,,,,,,,,,,,,,,,,,,,,,,,,,,,,,,,,,,,,,,,,,,,,,,,
,,,,,,,,,,5e1e198c99109f000b6196a5,33,Mężczyzna,2022-06-04_08h10.40.985,task,2021.1.4,Win32,59.94125757,628b806c463b948bc644b84f,629af76f7e442b838c515f25,,,,,3,0,3,0,1,X V Q F H G B L J M P D K C T S W R N Z,,,,,,,,,,,,,,,,,,,,,,,,,,,,,,,,,,,,,,,,,,,,,,,,,,,,,,,,,,,,,,,,,,,,,,,,,,,,,,,,,,,,,,,,,,,,,
,,,,,,,,,,5e1e198c99109f000b6196a5,33,Mężczyzna,2022-06-04_08h10.40.985,task,2021.1.4,Win32,59.94125757,628b806c463b948bc644b84f,629af76f7e442b838c515f25,,,,,4,0,4,0,1,X V Q F H G B L J M P D K C T S W R N Z,,,,,,,,,,,,,,,,,,,,,,,,,,,,,,,,,,,,,,,,,,,,,,,,,,,,,,,,,,,,,,,,,,,,,,,,,,,,,,,,,,,,,,,,,,,,,
,,,,,,,,,,5e1e198c99109f000b6196a5,33,Mężczyzna,2022-06-04_08h10.40.985,task,2021.1.4,Win32,59.94125757,628b806c463b948bc644b84f,629af76f7e442b838c515f25,,,,,5,0,5,0,1,X V Q F H G B L J M P D K C T S W R N Z,,,,,,,,,,,,,,,,,,,,,,,,,,,,,,,,,,,,,,,,,,,,,,,,,,,,,,,,,,,,,,,,,,,,,,,,,,,,,,,,,,,,,,,,,,,,,
,,,,,,,,,,5e1e198c99109f000b6196a5,33,Mężczyzna,2022-06-04_08h10.40.985,task,2021.1.4,Win32,59.94125757,628b806c463b948bc644b84f,629af76f7e442b838c515f25,,,,,6,0,6,0,1,X V Q F H G B L J M P D K C T S W R N Z,,,,,,,,,,,,,,,,,,,,,,,,,,,,,,,,,,,,,,,,,,,,,,,,,,,,,,,,,,,,,,,,,,,,,,,,,,,,,,,,,,,,,,,,,,,,,
,,,,,,,,,,5e1e198c99109f000b6196a5,33,Mężczyzna,2022-06-04_08h10.40.985,task,2021.1.4,Win32,59.94125757,628b806c463b948bc644b84f,629af76f7e442b838c515f25,,,,,7,0,7,0,1,X V Q F H G B L J M P D K C T S W R N Z,,,,,,,,,,,,,,,,,,,,,,,,,,,,,,,,,,,,,,,,,,,,,,,,,,,,,,,,,,,,,,,,,,,,,,,,,,,,,,,,,,,,,,,,,,,,,
,,,,,,,,,,5e1e198c99109f000b6196a5,33,Mężczyzna,2022-06-04_08h10.40.985,task,2021.1.4,Win32,59.94125757,628b806c463b948bc644b84f,629af76f7e442b838c515f25,,,,,8,0,8,0,1,X V Q F H G B L J M P D K C T S W R N Z,,,,,,,,,,,,,,,,,,,,,,,,,,,,,,,,,,,,,,,,,,,,,,,,,,,,,,,,,,,,,,,,,,,,,,,,,,,,,,,,,,,,,,,,,,,,,
,,,,,,,,,,5e1e198c99109f000b6196a5,33,Mężczyzna,2022-06-04_08h10.40.985,task,2021.1.4,Win32,59.94125757,628b806c463b948bc644b84f,629af76f7e442b838c515f25,,,,,,,,,,,shntgtszh,"[""s"",""h"",""n"",""t"",""g"",""t"",""s"",""z"",""h""]","[5.027399999976069,5.449999999999932,5.767300000011915,7.482999999999947,7.784300000011854,8.100500000000011,9.634500000000003,9.872499999999945,11.049800000011828,11.399699999988002]",1,SHNTGTSZH,19,0,19,0,1,,,,,,,,,,,,,,,,,,,,,,,,,,,,,,,,,,,,,,,,,,,,,,,,,,,,,,,,,,,,,,,,,,,,,,,,,,,,,,,,,,,
,,,,,,,,,,5e1e198c99109f000b6196a5,33,Mężczyzna,2022-06-04_08h10.40.985,task,2021.1.4,Win32,59.94125757,628b806c463b948bc644b84f,629af76f7e442b838c515f25,,,,,0,0,0,0,1,X V Q F H G B L J M P D K C T S W R N Z,,,,,,,,,,,,,,,,,,,,,,,,,,,,,,,,,,,,,,,,,,,,,,,,,,,,,,,,,,,,,,,,,,,,,,,,,,,,,,,,,,,,,,,,,,,,,
,,,,,,,,,,5e1e198c99109f000b6196a5,33,Mężczyzna,2022-06-04_08h10.40.985,task,2021.1.4,Win32,59.94125757,628b806c463b948bc644b84f,629af76f7e442b838c515f25,,,,,1,0,1,0,1,X V Q F H G B L J M P D K C T S W R N Z,,,,,,,,,,,,,,,,,,,,,,,,,,,,,,,,,,,,,,,,,,,,,,,,,,,,,,,,,,,,,,,,,,,,,,,,,,,,,,,,,,,,,,,,,,,,,
,,,,,,,,,,5e1e198c99109f000b6196a5,33,Mężczyzna,2022-06-04_08h10.40.985,task,2021.1.4,Win32,59.94125757,628b806c463b948bc644b84f,629af76f7e442b838c515f25,,,,,2,0,2,0,1,X V Q F H G B L J M P D K C T S W R N Z,,,,,,,,,,,,,,,,,,,,,,,,,,,,,,,,,,,,,,,,,,,,,,,,,,,,,,,,,,,,,,,,,,,,,,,,,,,,,,,,,,,,,,,,,,,,,
,,,,,,,,,,5e1e198c99109f000b6196a5,33,Mężczyzna,2022-06-04_08h10.40.985,task,2021.1.4,Win32,59.94125757,628b806c463b948bc644b84f,629af76f7e442b838c515f25,,,,,3,0,3,0,1,X V Q F H G B L J M P D K C T S W R N Z,,,,,,,,,,,,,,,,,,,,,,,,,,,,,,,,,,,,,,,,,,,,,,,,,,,,,,,,,,,,,,,,,,,,,,,,,,,,,,,,,,,,,,,,,,,,,
,,,,,,,,,,5e1e198c99109f000b6196a5,33,Mężczyzna,2022-06-04_08h10.40.985,task,2021.1.4,Win32,59.94125757,628b806c463b948bc644b84f,629af76f7e442b838c515f25,,,,,4,0,4,0,1,X V Q F H G B L J M P D K C T S W R N Z,,,,,,,,,,,,,,,,,,,,,,,,,,,,,,,,,,,,,,,,,,,,,,,,,,,,,,,,,,,,,,,,,,,,,,,,,,,,,,,,,,,,,,,,,,,,,
,,,,,,,,,,5e1e198c99109f000b6196a5,33,Mężczyzna,2022-06-04_08h10.40.985,task,2021.1.4,Win32,59.94125757,628b806c463b948bc644b84f,629af76f7e442b838c515f25,,,,,5,0,5,0,1,X V Q F H G B L J M P D K C T S W R N Z,,,,,,,,,,,,,,,,,,,,,,,,,,,,,,,,,,,,,,,,,,,,,,,,,,,,,,,,,,,,,,,,,,,,,,,,,,,,,,,,,,,,,,,,,,,,,
,,,,,,,,,,5e1e198c99109f000b6196a5,33,Mężczyzna,2022-06-04_08h10.40.985,task,2021.1.4,Win32,59.94125757,628b806c463b948bc644b84f,629af76f7e442b838c515f25,,,,,6,0,6,0,1,X V Q F H G B L J M P D K C T S W R N Z,,,,,,,,,,,,,,,,,,,,,,,,,,,,,,,,,,,,,,,,,,,,,,,,,,,,,,,,,,,,,,,,,,,,,,,,,,,,,,,,,,,,,,,,,,,,,
,,,,,,,,,,5e1e198c99109f000b6196a5,33,Mężczyzna,2022-06-04_08h10.40.985,task,2021.1.4,Win32,59.94125757,628b806c463b948bc644b84f,629af76f7e442b838c515f25,,,,,7,0,7,0,1,X V Q F H G B L J M P D K C T S W R N Z,,,,,,,,,,,,,,,,,,,,,,,,,,,,,,,,,,,,,,,,,,,,,,,,,,,,,,,,,,,,,,,,,,,,,,,,,,,,,,,,,,,,,,,,,,,,,
,,,,,,,,,,5e1e198c99109f000b6196a5,33,Mężczyzna,2022-06-04_08h10.40.985,task,2021.1.4,Win32,59.94125757,628b806c463b948bc644b84f,629af76f7e442b838c515f25,,,,,8,0,8,0,1,X V Q F H G B L J M P D K C T S W R N Z,,,,,,,,,,,,,,,,,,,,,,,,,,,,,,,,,,,,,,,,,,,,,,,,,,,,,,,,,,,,,,,,,,,,,,,,,,,,,,,,,,,,,,,,,,,,,
,,,,,,,,,,5e1e198c99109f000b6196a5,33,Mężczyzna,2022-06-04_08h10.40.985,task,2021.1.4,Win32,59.94125757,628b806c463b948bc644b84f,629af76f7e442b838c515f25,,,,,9,0,9,0,1,X V Q F H G B L J M P D K C T S W R N Z,,,,,,,,,,,,,,,,,,,,,,,,,,,,,,,,,,,,,,,,,,,,,,,,,,,,,,,,,,,,,,,,,,,,,,,,,,,,,,,,,,,,,,,,,,,,,
,,,,,,,,,,5e1e198c99109f000b6196a5,33,Mężczyzna,2022-06-04_08h10.40.985,task,2021.1.4,Win32,59.94125757,628b806c463b948bc644b84f,629af76f7e442b838c515f25,,,,,,,,,,,dbsqmzklzw,"[""d"",""b"",""s"",""q"",""m"",""z"",""k"",""l"",""z"",""w""]","[5.467900000035797,5.699500000000057,6.248800000011897,6.53449999999998,8.756700000047658,9.074800000011919,9.400800000011941,11.370100000023854,11.793300000011982,12.082800000011957,13.958400000035795]",0,DBSQMKZLZH,20,0,20,0,1,,,,,,,,,,,,,,,,,,,,,,,,,,,,,,,,,,,,,,,,,,,,,,,,,,,,,,,,,,,,,,,,,,,,,,,,,,,,,,,,,,,
,,,,,,,,,,5e1e198c99109f000b6196a5,33,Mężczyzna,2022-06-04_08h10.40.985,task,2021.1.4,Win32,59.94125757,628b806c463b948bc644b84f,629af76f7e442b838c515f25,,,,,0,0,0,0,1,X V Q F H G B L J M P D K C T S W R N Z,,,,,,,,,,,,,,,,,,,,,,,,,,,,,,,,,,,,,,,,,,,,,,,,,,,,,,,,,,,,,,,,,,,,,,,,,,,,,,,,,,,,,,,,,,,,,
,,,,,,,,,,5e1e198c99109f000b6196a5,33,Mężczyzna,2022-06-04_08h10.40.985,task,2021.1.4,Win32,59.94125757,628b806c463b948bc644b84f,629af76f7e442b838c515f25,,,,,1,0,1,0,1,X V Q F H G B L J M P D K C T S W R N Z,,,,,,,,,,,,,,,,,,,,,,,,,,,,,,,,,,,,,,,,,,,,,,,,,,,,,,,,,,,,,,,,,,,,,,,,,,,,,,,,,,,,,,,,,,,,,
,,,,,,,,,,5e1e198c99109f000b6196a5,33,Mężczyzna,2022-06-04_08h10.40.985,task,2021.1.4,Win32,59.94125757,628b806c463b948bc644b84f,629af76f7e442b838c515f25,,,,,2,0,2,0,1,X V Q F H G B L J M P D K C T S W R N Z,,,,,,,,,,,,,,,,,,,,,,,,,,,,,,,,,,,,,,,,,,,,,,,,,,,,,,,,,,,,,,,,,,,,,,,,,,,,,,,,,,,,,,,,,,,,,
,,,,,,,,,,5e1e198c99109f000b6196a5,33,Mężczyzna,2022-06-04_08h10.40.985,task,2021.1.4,Win32,59.94125757,628b806c463b948bc644b84f,629af76f7e442b838c515f25,,,,,3,0,3,0,1,X V Q F H G B L J M P D K C T S W R N Z,,,,,,,,,,,,,,,,,,,,,,,,,,,,,,,,,,,,,,,,,,,,,,,,,,,,,,,,,,,,,,,,,,,,,,,,,,,,,,,,,,,,,,,,,,,,,
,,,,,,,,,,5e1e198c99109f000b6196a5,33,Mężczyzna,2022-06-04_08h10.40.985,task,2021.1.4,Win32,59.94125757,628b806c463b948bc644b84f,629af76f7e442b838c515f25,,,,,4,0,4,0,1,X V Q F H G B L J M P D K C T S W R N Z,,,,,,,,,,,,,,,,,,,,,,,,,,,,,,,,,,,,,,,,,,,,,,,,,,,,,,,,,,,,,,,,,,,,,,,,,,,,,,,,,,,,,,,,,,,,,
,,,,,,,,,,5e1e198c99109f000b6196a5,33,Mężczyzna,2022-06-04_08h10.40.985,task,2021.1.4,Win32,59.94125757,628b806c463b948bc644b84f,629af76f7e442b838c515f25,,,,,5,0,5,0,1,X V Q F H G B L J M P D K C T S W R N Z,,,,,,,,,,,,,,,,,,,,,,,,,,,,,,,,,,,,,,,,,,,,,,,,,,,,,,,,,,,,,,,,,,,,,,,,,,,,,,,,,,,,,,,,,,,,,
,,,,,,,,,,5e1e198c99109f000b6196a5,33,Mężczyzna,2022-06-04_08h10.40.985,task,2021.1.4,Win32,59.94125757,628b806c463b948bc644b84f,629af76f7e442b838c515f25,,,,,6,0,6,0,1,X V Q F H G B L J M P D K C T S W R N Z,,,,,,,,,,,,,,,,,,,,,,,,,,,,,,,,,,,,,,,,,,,,,,,,,,,,,,,,,,,,,,,,,,,,,,,,,,,,,,,,,,,,,,,,,,,,,
,,,,,,,,,,5e1e198c99109f000b6196a5,33,Mężczyzna,2022-06-04_08h10.40.985,task,2021.1.4,Win32,59.94125757,628b806c463b948bc644b84f,629af76f7e442b838c515f25,,,,,7,0,7,0,1,X V Q F H G B L J M P D K C T S W R N Z,,,,,,,,,,,,,,,,,,,,,,,,,,,,,,,,,,,,,,,,,,,,,,,,,,,,,,,,,,,,,,,,,,,,,,,,,,,,,,,,,,,,,,,,,,,,,
,,,,,,,,,,5e1e198c99109f000b6196a5,33,Mężczyzna,2022-06-04_08h10.40.985,task,2021.1.4,Win32,59.94125757,628b806c463b948bc644b84f,629af76f7e442b838c515f25,,,,,8,0,8,0,1,X V Q F H G B L J M P D K C T S W R N Z,,,,,,,,,,,,,,,,,,,,,,,,,,,,,,,,,,,,,,,,,,,,,,,,,,,,,,,,,,,,,,,,,,,,,,,,,,,,,,,,,,,,,,,,,,,,,
,,,,,,,,,,5e1e198c99109f000b6196a5,33,Mężczyzna,2022-06-04_08h10.40.985,task,2021.1.4,Win32,59.94125757,628b806c463b948bc644b84f,629af76f7e442b838c515f25,,,,,9,0,9,0,1,X V Q F H G B L J M P D K C T S W R N Z,,,,,,,,,,,,,,,,,,,,,,,,,,,,,,,,,,,,,,,,,,,,,,,,,,,,,,,,,,,,,,,,,,,,,,,,,,,,,,,,,,,,,,,,,,,,,
,,,,,,,,,,5e1e198c99109f000b6196a5,33,Mężczyzna,2022-06-04_08h10.40.985,task,2021.1.4,Win32,59.94125757,628b806c463b948bc644b84f,629af76f7e442b838c515f25,,,,,,,,,,,lfvghwhwzk,"[""l"",""f"",""v"",""g"",""h"",""w"",""h"",""w"",""z"",""k""]","[2.8066999999881546,3.237300000011942,3.5553000000119255,6.499699999988138,7.6658999999762045,9.999699999988138,10.81819999998811,11.075300000012021,12.54960000002393,12.901000000000067,13.72560000002386]",0,LFVGHWHVZK,21,0,21,0,1,,,,,,,,,,,,,,,,,,,,,,,,,,,,,,,,,,,,,,,,,,,,,,,,,,,,,,,,,,,,,,,,,,,,,,,,,,,,,,,,,,,
,,,,,,,,,,5e1e198c99109f000b6196a5,33,Mężczyzna,2022-06-04_08h10.40.985,task,2021.1.4,Win32,59.94125757,628b806c463b948bc644b84f,629af76f7e442b838c515f25,,,,,0,0,0,0,1,X V Q F H G B L J M P D K C T S W R N Z,,,,,,,,,,,,,,,,,,,,,,,,,,,,,,,,,,,,,,,,,,,,,,,,,,,,,,,,,,,,,,,,,,,,,,,,,,,,,,,,,,,,,,,,,,,,,
,,,,,,,,,,5e1e198c99109f000b6196a5,33,Mężczyzna,2022-06-04_08h10.40.985,task,2021.1.4,Win32,59.94125757,628b806c463b948bc644b84f,629af76f7e442b838c515f25,,,,,1,0,1,0,1,X V Q F H G B L J M P D K C T S W R N Z,,,,,,,,,,,,,,,,,,,,,,,,,,,,,,,,,,,,,,,,,,,,,,,,,,,,,,,,,,,,,,,,,,,,,,,,,,,,,,,,,,,,,,,,,,,,,
,,,,,,,,,,5e1e198c99109f000b6196a5,33,Mężczyzna,2022-06-04_08h10.40.985,task,2021.1.4,Win32,59.94125757,628b806c463b948bc644b84f,629af76f7e442b838c515f25,,,,,2,0,2,0,1,X V Q F H G B L J M P D K C T S W R N Z,,,,,,,,,,,,,,,,,,,,,,,,,,,,,,,,,,,,,,,,,,,,,,,,,,,,,,,,,,,,,,,,,,,,,,,,,,,,,,,,,,,,,,,,,,,,,
,,,,,,,,,,5e1e198c99109f000b6196a5,33,Mężczyzna,2022-06-04_08h10.40.985,task,2021.1.4,Win32,59.94125757,628b806c463b948bc644b84f,629af76f7e442b838c515f25,,,,,3,0,3,0,1,X V Q F H G B L J M P D K C T S W R N Z,,,,,,,,,,,,,,,,,,,,,,,,,,,,,,,,,,,,,,,,,,,,,,,,,,,,,,,,,,,,,,,,,,,,,,,,,,,,,,,,,,,,,,,,,,,,,
,,,,,,,,,,5e1e198c99109f000b6196a5,33,Mężczyzna,2022-06-04_08h10.40.985,task,2021.1.4,Win32,59.94125757,628b806c463b948bc644b84f,629af76f7e442b838c515f25,,,,,4,0,4,0,1,X V Q F H G B L J M P D K C T S W R N Z,,,,,,,,,,,,,,,,,,,,,,,,,,,,,,,,,,,,,,,,,,,,,,,,,,,,,,,,,,,,,,,,,,,,,,,,,,,,,,,,,,,,,,,,,,,,,
,,,,,,,,,,5e1e198c99109f000b6196a5,33,Mężczyzna,2022-06-04_08h10.40.985,task,2021.1.4,Win32,59.94125757,628b806c463b948bc644b84f,629af76f7e442b838c515f25,,,,,5,0,5,0,1,X V Q F H G B L J M P D K C T S W R N Z,,,,,,,,,,,,,,,,,,,,,,,,,,,,,,,,,,,,,,,,,,,,,,,,,,,,,,,,,,,,,,,,,,,,,,,,,,,,,,,,,,,,,,,,,,,,,
,,,,,,,,,,5e1e198c99109f000b6196a5,33,Mężczyzna,2022-06-04_08h10.40.985,task,2021.1.4,Win32,59.94125757,628b806c463b948bc644b84f,629af76f7e442b838c515f25,,,,,6,0,6,0,1,X V Q F H G B L J M P D K C T S W R N Z,,,,,,,,,,,,,,,,,,,,,,,,,,,,,,,,,,,,,,,,,,,,,,,,,,,,,,,,,,,,,,,,,,,,,,,,,,,,,,,,,,,,,,,,,,,,,
,,,,,,,,,,5e1e198c99109f000b6196a5,33,Mężczyzna,2022-06-04_08h10.40.985,task,2021.1.4,Win32,59.94125757,628b806c463b948bc644b84f,629af76f7e442b838c515f25,,,,,7,0,7,0,1,X V Q F H G B L J M P D K C T S W R N Z,,,,,,,,,,,,,,,,,,,,,,,,,,,,,,,,,,,,,,,,,,,,,,,,,,,,,,,,,,,,,,,,,,,,,,,,,,,,,,,,,,,,,,,,,,,,,
,,,,,,,,,,5e1e198c99109f000b6196a5,33,Mężczyzna,2022-06-04_08h10.40.985,task,2021.1.4,Win32,59.94125757,628b806c463b948bc644b84f,629af76f7e442b838c515f25,,,,,8,0,8,0,1,X V Q F H G B L J M P D K C T S W R N Z,,,,,,,,,,,,,,,,,,,,,,,,,,,,,,,,,,,,,,,,,,,,,,,,,,,,,,,,,,,,,,,,,,,,,,,,,,,,,,,,,,,,,,,,,,,,,
,,,,,,,,,,5e1e198c99109f000b6196a5,33,Mężczyzna,2022-06-04_08h10.40.985,task,2021.1.4,Win32,59.94125757,628b806c463b948bc644b84f,629af76f7e442b838c515f25,,,,,9,0,9,0,1,X V Q F H G B L J M P D K C T S W R N Z,,,,,,,,,,,,,,,,,,,,,,,,,,,,,,,,,,,,,,,,,,,,,,,,,,,,,,,,,,,,,,,,,,,,,,,,,,,,,,,,,,,,,,,,,,,,,
,,,,,,,,,,5e1e198c99109f000b6196a5,33,Mężczyzna,2022-06-04_08h10.40.985,task,2021.1.4,Win32,59.94125757,628b806c463b948bc644b84f,629af76f7e442b838c515f25,,,,,,,,,,,lqhprfqbb,"[""l"",""q"",""h"",""p"",""r"",""f"",""q"",""b"",""b""]","[3.75260000002379,3.988199999988069,4.758500000000026,7.383000000000038,7.773699999988025,10.350000000000023,12.516300000011938,13.241600000023823,13.416399999976193,13.66689999997618]",0,LQHPRNFQBB,22,0,22,0,1,,,,,,,,,,,,,,,,,,,,,,,,,,,,,,,,,,,,,,,,,,,,,,,,,,,,,,,,,,,,,,,,,,,,,,,,,,,,,,,,,,,
,,,,,,,,,,5e1e198c99109f000b6196a5,33,Mężczyzna,2022-06-04_08h10.40.985,task,2021.1.4,Win32,59.94125757,628b806c463b948bc644b84f,629af76f7e442b838c515f25,,,,,,,,,,,,,,,,,,,,,space,14.1039,8,"[""8""]",1,[8.758699999988039],[8.758699999988039],0,0,0,8,1,Practice,9,(3x3) - 1,8,,,,,,,,,,,,,,,,,,,,,,,,,,,,,,,,,,,,,,,,,,,,,,,,,,,,,,,,,,,,,,,,,,,
,,,,,,,,,,5e1e198c99109f000b6196a5,33,Mężczyzna,2022-06-04_08h10.40.985,task,2021.1.4,Win32,59.94125757,628b806c463b948bc644b84f,629af76f7e442b838c515f25,,,,,,,,,,,,,,,,,,,,,,,2,"[""2""]",1,[4.2851999999880945],"[8.758699999988039,4.2851999999880945]",0,1,1,2,1,Practice,3,(4x4) - 14,2,,,,,,,,,,,,,,,,,,,,,,,,,,,,,,,,,,,,,,,,,,,,,,,,,,,,,,,,,,,,,,,,,,,
,,,,,,,,,,5e1e198c99109f000b6196a5,33,Mężczyzna,2022-06-04_08h10.40.985,task,2021.1.4,Win32,59.94125757,628b806c463b948bc644b84f,629af76f7e442b838c515f25,,,,,,,,,,,,,,,,,,,,,,,3,"[""3""]",1,[5.050000000000068],"[8.758699999988039,4.2851999999880945,5.050000000000068]",0,2,2,3,1,Practice,4,(8/4) + 1,3,,,,,,,,,,,,,,,,,,,,,,,,,,,,,,,,,,,,,,,,,,,,,,,,,,,,,,,,,,,,,,,,,,,
,,,,,,,,,,5e1e198c99109f000b6196a5,33,Mężczyzna,2022-06-04_08h10.40.985,task,2021.1.4,Win32,59.94125757,628b806c463b948bc644b84f,629af76f7e442b838c515f25,,,,,,,,,,,,,,,,,,,,,,,7,"[""7""]",1,[4.200600000023883],"[8.758699999988039,4.2851999999880945,5.050000000000068,4.200600000023883]",0,3,3,7,1,Practice,8,(5x5) - 18,7,,,,,,,,,,,,,,,,,,,,,,,,,,,,,,,,,,,,,,,,,,,,,,,,,,,,,,,,,,,,,,,,,,,
,,,,,,,,,,5e1e198c99109f000b6196a5,33,Mężczyzna,2022-06-04_08h10.40.985,task,2021.1.4,Win32,59.94125757,628b806c463b948bc644b84f,629af76f7e442b838c515f25,,,,,,,,,,,,,,,,,,,,,,,1,"[""1""]",1,[2.450099999964209],"[8.758699999988039,4.2851999999880945,5.050000000000068,4.200600000023883,2.450099999964209]",0,4,4,1,1,Practice,2,(4x4) - 15,1,,,,,,,,,,,,,,,,,,,,,,,,,,,,,,,,,,,,,,,,,,,,,,,,,,,,,,,,,,,,,,,,,,,
,,,,,,,,,,5e1e198c99109f000b6196a5,33,Mężczyzna,2022-06-04_08h10.40.985,task,2021.1.4,Win32,59.94125757,628b806c463b948bc644b84f,629af76f7e442b838c515f25,,,,,,,,,,,,,,,,,,,,,,,0,"[""0""]",1,[6.650199999988104],"[8.758699999988039,4.2851999999880945,5.050000000000068,4.200600000023883,2.450099999964209,6.650199999988104]",0,5,5,0,1,Practice,1,(3x3) -  9,0,,,,,,,,,,,,,,,,,,,,,,,,,,,,,,,,,,,,,,,,,,,,,,,,,,,,,,,,,,,,,,,,,,,
,,,,,,,,,,5e1e198c99109f000b6196a5,33,Mężczyzna,2022-06-04_08h10.40.985,task,2021.1.4,Win32,59.94125757,628b806c463b948bc644b84f,629af76f7e442b838c515f25,,,,,,,,,,,,,,,,,,,,,,,9,"[""9""]",1,[2.8664999999999736],"[8.758699999988039,4.2851999999880945,5.050000000000068,4.200600000023883,2.450099999964209,6.650199999988104,2.8664999999999736]",0,6,6,9,1,Practice,10,(20/2) - 1,9,,,,,,,,,,,,,,,,,,,,,,,,,,,,,,,,,,,,,,,,,,,,,,,,,,,,,,,,,,,,,,,,,,,
,,,,,,,,,,5e1e198c99109f000b6196a5,33,Mężczyzna,2022-06-04_08h10.40.985,task,2021.1.4,Win32,59.94125757,628b806c463b948bc644b84f,629af76f7e442b838c515f25,,,,,,,,,,,,,,,,,,,,,,,6,"[""6""]",1,[2.7163999999761472],"[8.758699999988039,4.2851999999880945,5.050000000000068,4.200600000023883,2.450099999964209,6.650199999988104,2.8664999999999736,2.7163999999761472]",0,7,7,6,1,Practice,7,(25/5) + 1,6,,,,,,,,,,,,,,,,,,,,,,,,,,,,,,,,,,,,,,,,,,,,,,,,,,,,,,,,,,,,,,,,,,,
,,,,,,,,,,5e1e198c99109f000b6196a5,33,Mężczyzna,2022-06-04_08h10.40.985,task,2021.1.4,Win32,59.94125757,628b806c463b948bc644b84f,629af76f7e442b838c515f25,,,,,,,,,,,,,,,,,,,,,,,5,"[""5""]",1,[7.383399999976177],"[8.758699999988039,4.2851999999880945,5.050000000000068,4.200600000023883,2.450099999964209,6.650199999988104,2.8664999999999736,2.7163999999761472,7.383399999976177]",0,8,8,5,1,Practice,6,(4/2) + 3,5,,,,,,,,,,,,,,,,,,,,,,,,,,,,,,,,,,,,,,,,,,,,,,,,,,,,,,,,,,,,,,,,,,,
,,,,,,,,,,5e1e198c99109f000b6196a5,33,Mężczyzna,2022-06-04_08h10.40.985,task,2021.1.4,Win32,59.94125757,628b806c463b948bc644b84f,629af76f7e442b838c515f25,,,,,,,,,,,,,,,,,,,,,,,4,"[""4""]",1,[4.369899999976042],"[8.758699999988039,4.2851999999880945,5.050000000000068,4.200600000023883,2.450099999964209,6.650199999988104,2.8664999999999736,2.7163999999761472,7.383399999976177,4.369899999976042]",0,9,9,4,1,Practice,5,(2x6) - 8,4,,,,,,,,,,,,,,,,,,,,,,,,,,,,,,,,,,,,,,,,,,,,,,,,,,,,,,,,,,,,,,,,,,,
,,,,,,,,,,5e1e198c99109f000b6196a5,33,Mężczyzna,2022-06-04_08h10.40.985,task,2021.1.4,Win32,59.94125757,628b806c463b948bc644b84f,629af76f7e442b838c515f25,,,,,,,,,,,,,,,,,,,,,,,,,,,,,,,,,,,,,1,48.731,3.248733333,66.5743625,2.106725144,8.684084205,space,1.9503,0,0,0,0,1,,,,,,,,,,,,,,,,,,,,,,,,,,,,,,,,,,,,,,,,,,,,,,,,,,,,,,
,,,,,,,,,,5e1e198c99109f000b6196a5,33,Mężczyzna,2022-06-04_08h10.40.985,task,2021.1.4,Win32,59.94125757,628b806c463b948bc644b84f,629af76f7e442b838c515f25,,,,,,,,,,,,,,,,,,,,,,,3,,,,,,,,,,Practice,4,(8/4) + 1,3,,,,,,,,,,,,,,space,20.4682,"[""3""]",1,[7.633200000047509],1,0,0,0,3,1,,,,,,,,,,,,,,,,,,,,,,,,,,,,,,,,,,,,,,,,,,,
,,,,,,,,,,5e1e198c99109f000b6196a5,33,Mężczyzna,2022-06-04_08h10.40.985,task,2021.1.4,Win32,59.94125757,628b806c463b948bc644b84f,629af76f7e442b838c515f25,,,,,,,,,,X V Q F H G B L J M P D K C T S W R N Z,,,,,,,,,,,,,,,,,,,,,,,,,,,,,,,,,,,,,,,,,,,,,,,,,,,0,0,0,0,1,,,,,,,,,,,,,,,,,,,,,,,,,,,,,,,,,,,,,,
,,,,,,,,,,5e1e198c99109f000b6196a5,33,Mężczyzna,2022-06-04_08h10.40.985,task,2021.1.4,Win32,59.94125757,628b806c463b948bc644b84f,629af76f7e442b838c515f25,,,,,,,,,,,,,,,,,,,,,,,,,,,,,,,,,Practice,4,(8/4) + 1,3,,,,,,,,,,,,,,,,,0,,0,0,0,0,3,1,,,,,,,,,,,,,,,,,,,,,,,,,,,,,,,,,,,,,,,,,,,
,,,,,,,,,,5e1e198c99109f000b6196a5,33,Mężczyzna,2022-06-04_08h10.40.985,task,2021.1.4,Win32,59.94125757,628b806c463b948bc644b84f,629af76f7e442b838c515f25,,,,,,,,,,,,,,,,,,,,,,,7,,,,,,,,,,Practice,8,(5x5) - 18,7,,,,,,,,,,,,,,,,"[""7""]",1,[4.716400000035719],1,0,1,1,7,1,,,,,,,,,,,,,,,,,,,,,,,,,,,,,,,,,,,,,,,,,,,
,,,,,,,,,,5e1e198c99109f000b6196a5,33,Mężczyzna,2022-06-04_08h10.40.985,task,2021.1.4,Win32,59.94125757,628b806c463b948bc644b84f,629af76f7e442b838c515f25,,,,,,,,,,X V Q F H G B L J M P D K C T S W R N Z,,,,,,,,,,,,,,,,,,,,,,,,,,,,,,,,,,,,,,,,,,,,,,,,,,,1,0,1,0,1,,,,,,,,,,,,,,,,,,,,,,,,,,,,,,,,,,,,,,
,,,,,,,,,,5e1e198c99109f000b6196a5,33,Mężczyzna,2022-06-04_08h10.40.985,task,2021.1.4,Win32,59.94125757,628b806c463b948bc644b84f,629af76f7e442b838c515f25,,,,,,,,,,,,,,,,,,,,,,,,,,,,,,,,,,,,,,,,,,,,,,,,,,,,,,,,,,,,,,,,,,zq,"[""z"",""q""]",0,"[7.3353000000117845,8.16589999997609,10.333999999999833]",1,0,0,0,0,1,,,,,,,,,,,,,,,,,,,,,,,,,,,,
,,,,,,,,,,5e1e198c99109f000b6196a5,33,Mężczyzna,2022-06-04_08h10.40.985,task,2021.1.4,Win32,59.94125757,628b806c463b948bc644b84f,629af76f7e442b838c515f25,,,,,,,,,,,,,,,,,,,,,,,3,,,,,,,,,,Practice,4,(8/4) + 1,3,,,,,,,,,,,,,,,,"[""3""]",1,[3.727000000000089],1,0,0,0,3,1,,,,,,,,,,,,,,,,,,,,,,,,,,,,,,,,,,,,,,,,,,,
,,,,,,,,,,5e1e198c99109f000b6196a5,33,Mężczyzna,2022-06-04_08h10.40.985,task,2021.1.4,Win32,59.94125757,628b806c463b948bc644b84f,629af76f7e442b838c515f25,,,,,,,,,,X V Q F H G B L J M P D K C T S W R N Z,,,,,,,,,,,,,,,,,,,,,,,,,,,,,,,,,,,,,,,,,,,,,,,,,,,0,0,0,0,1,,,,,,,,,,,,,,,,,,,,,,,,,,,,,,,,,,,,,,
,,,,,,,,,,5e1e198c99109f000b6196a5,33,Mężczyzna,2022-06-04_08h10.40.985,task,2021.1.4,Win32,59.94125757,628b806c463b948bc644b84f,629af76f7e442b838c515f25,,,,,,,,,,,,,,,,,,,,,,,8,,,,,,,,,,Practice,9,(3x3) - 1,8,,,,,,,,,,,,,,,,"[""8""]",1,[2.6978999999762436],1,0,0,0,8,1,,,,,,,,,,,,,,,,,,,,,,,,,,,,,,,,,,,,,,,,,,,
