key_resp_15.keys,key_resp_15.rt,key_resp_16.keys,key_resp_16.rt,key_resp_4.keys,key_resp_4.rt,next_letter.thisRepN,next_letter.thisTrialN,next_letter.thisN,next_letter.thisIndex,next_letter.ran,letter,participant,Wiek*,Płeć,date,expName,psychopyVersion,OS,frameRate,study_id,session,simple_recall,key_resp_5.keys,key_resp_5.rt,simple_recall_corr,simple_recall_corrkeys,next_level.thisRepN,next_level.thisTrialN,next_level.thisN,next_level.thisIndex,next_level.ran,key_resp_2.keys,key_resp_2.rt,digit_answer,key_resp.keys,key_resp.corr,key_resp.rt,RT_list,next_equation.thisRepN,next_equation.thisTrialN,next_equation.thisN,next_equation.thisIndex,next_equation.ran,Task,Trial,Problem,Operation_answer,processing_score,sumRT,meanRT,sumdiff,sd,RT,key_resp_3.keys,key_resp_3.rt,repeat_practice.thisRepN,repeat_practice.thisTrialN,repeat_practice.thisN,repeat_practice.thisIndex,repeat_practice.ran,key_resp_6.keys,key_resp_6.rt,key_resp_11.keys,key_resp_11.corr,key_resp_11.rt,operation_correct,repeat_if_wrong_prac.thisRepN,repeat_if_wrong_prac.thisTrialN,repeat_if_wrong_prac.thisN,repeat_if_wrong_prac.thisIndex,repeat_if_wrong_prac.ran,span_size_prac.thisRepN,span_size_prac.thisTrialN,span_size_prac.thisN,span_size_prac.thisIndex,span_size_prac.ran,complex_recall_practice,key_resp_9.keys,key_resp_9.corr,key_resp_9.rt,complex_prac_corr,span_recall_prac.thisRepN,span_recall_prac.thisTrialN,span_recall_prac.thisN,span_recall_prac.thisIndex,span_recall_prac.ran,key_resp_10.keys,key_resp_10.rt,key_resp_7.keys,key_resp_7.corr,key_resp_7.rt,repeat_if_wrong.thisRepN,repeat_if_wrong.thisTrialN,repeat_if_wrong.thisN,repeat_if_wrong.thisIndex,repeat_if_wrong.ran,span_size.thisRepN,span_size.thisTrialN,span_size.thisN,span_size.thisIndex,span_size.ran,complex_recall,key_resp_8.keys,key_resp_8.corr,key_resp_8.rt,complex_recall_corr,complex_recall_corrkeys,span_recall.thisRepN,span_recall.thisTrialN,span_recall.thisN,span_recall.thisIndex,span_recall.ran,key_resp_13.keys,key_resp_13.corr,key_resp_13.rt,random_loop.thisRepN,random_loop.thisTrialN,random_loop.thisN,random_loop.thisIndex,random_loop.ran,key_resp_12.keys,key_resp_12.rt
space,11.5067,space,14.4151,space,5.8328,0,0,0,0,1,X V Q F H G B L J M P D K C T S W R N Z,5e2d7770d70e4e367b8a6498,22,Mężczyzna,2022-06-11_09h29.26.951,task,2021.1.4,Win32,59.98440405,6299f149e92ead563fba08ef,62a442923c5b4b57e7b99e69,,,,,,,,,,,,,,,,,,,,,,,,,,,,,,,,,,,,,,,,,,,,,,,,,,,,,,,,,,,,,,,,,,,,,,,,,,,,,,,,,,,,,,,,,,,,,,,,,,,,,
,,,,,,1,0,1,0,1,X V Q F H G B L J M P D K C T S W R N Z,5e2d7770d70e4e367b8a6498,22,Mężczyzna,2022-06-11_09h29.26.951,task,2021.1.4,Win32,59.98440405,6299f149e92ead563fba08ef,62a442923c5b4b57e7b99e69,,,,,,,,,,,,,,,,,,,,,,,,,,,,,,,,,,,,,,,,,,,,,,,,,,,,,,,,,,,,,,,,,,,,,,,,,,,,,,,,,,,,,,,,,,,,,,,,,,,,,
,,,,,,,,,,,,5e2d7770d70e4e367b8a6498,22,Mężczyzna,2022-06-11_09h29.26.951,task,2021.1.4,Win32,59.98440405,6299f149e92ead563fba08ef,62a442923c5b4b57e7b99e69,zn,"[""z"",""n""]","[1.9004999999999654,2.2174999999999727,3.3841000001430643]",1,ZN,0,0,0,0,1,,,,,,,,,,,,,,,,,,,,,,,,,,,,,,,,,,,,,,,,,,,,,,,,,,,,,,,,,,,,,,,,,,,,,,,,,,,,,,,,,,,,,,,,,,,
,,,,,,0,0,0,0,1,X V Q F H G B L J M P D K C T S W R N Z,5e2d7770d70e4e367b8a6498,22,Mężczyzna,2022-06-11_09h29.26.951,task,2021.1.4,Win32,59.98440405,6299f149e92ead563fba08ef,62a442923c5b4b57e7b99e69,,,,,,,,,,,,,,,,,,,,,,,,,,,,,,,,,,,,,,,,,,,,,,,,,,,,,,,,,,,,,,,,,,,,,,,,,,,,,,,,,,,,,,,,,,,,,,,,,,,,,
,,,,,,1,0,1,0,1,X V Q F H G B L J M P D K C T S W R N Z,5e2d7770d70e4e367b8a6498,22,Mężczyzna,2022-06-11_09h29.26.951,task,2021.1.4,Win32,59.98440405,6299f149e92ead563fba08ef,62a442923c5b4b57e7b99e69,,,,,,,,,,,,,,,,,,,,,,,,,,,,,,,,,,,,,,,,,,,,,,,,,,,,,,,,,,,,,,,,,,,,,,,,,,,,,,,,,,,,,,,,,,,,,,,,,,,,,
,,,,,,,,,,,,5e2d7770d70e4e367b8a6498,22,Mężczyzna,2022-06-11_09h29.26.951,task,2021.1.4,Win32,59.98440405,6299f149e92ead563fba08ef,62a442923c5b4b57e7b99e69,pg,"[""p"",""g""]","[1.2149000000953833,1.4317000000476696,1.6814999999999714]",1,PG,1,0,1,0,1,,,,,,,,,,,,,,,,,,,,,,,,,,,,,,,,,,,,,,,,,,,,,,,,,,,,,,,,,,,,,,,,,,,,,,,,,,,,,,,,,,,,,,,,,,,
,,,,,,0,0,0,0,1,X V Q F H G B L J M P D K C T S W R N Z,5e2d7770d70e4e367b8a6498,22,Mężczyzna,2022-06-11_09h29.26.951,task,2021.1.4,Win32,59.98440405,6299f149e92ead563fba08ef,62a442923c5b4b57e7b99e69,,,,,,,,,,,,,,,,,,,,,,,,,,,,,,,,,,,,,,,,,,,,,,,,,,,,,,,,,,,,,,,,,,,,,,,,,,,,,,,,,,,,,,,,,,,,,,,,,,,,,
,,,,,,1,0,1,0,1,X V Q F H G B L J M P D K C T S W R N Z,5e2d7770d70e4e367b8a6498,22,Mężczyzna,2022-06-11_09h29.26.951,task,2021.1.4,Win32,59.98440405,6299f149e92ead563fba08ef,62a442923c5b4b57e7b99e69,,,,,,,,,,,,,,,,,,,,,,,,,,,,,,,,,,,,,,,,,,,,,,,,,,,,,,,,,,,,,,,,,,,,,,,,,,,,,,,,,,,,,,,,,,,,,,,,,,,,,
,,,,,,2,0,2,0,1,X V Q F H G B L J M P D K C T S W R N Z,5e2d7770d70e4e367b8a6498,22,Mężczyzna,2022-06-11_09h29.26.951,task,2021.1.4,Win32,59.98440405,6299f149e92ead563fba08ef,62a442923c5b4b57e7b99e69,,,,,,,,,,,,,,,,,,,,,,,,,,,,,,,,,,,,,,,,,,,,,,,,,,,,,,,,,,,,,,,,,,,,,,,,,,,,,,,,,,,,,,,,,,,,,,,,,,,,,
,,,,,,,,,,,,5e2d7770d70e4e367b8a6498,22,Mężczyzna,2022-06-11_09h29.26.951,task,2021.1.4,Win32,59.98440405,6299f149e92ead563fba08ef,62a442923c5b4b57e7b99e69,grk,"[""g"",""r"",""k""]","[1.148099999904673,1.2515000000000214,1.581400000095357,1.8482000000477115]",1,GRK,2,0,2,0,1,,,,,,,,,,,,,,,,,,,,,,,,,,,,,,,,,,,,,,,,,,,,,,,,,,,,,,,,,,,,,,,,,,,,,,,,,,,,,,,,,,,,,,,,,,,
,,,,,,0,0,0,0,1,X V Q F H G B L J M P D K C T S W R N Z,5e2d7770d70e4e367b8a6498,22,Mężczyzna,2022-06-11_09h29.26.951,task,2021.1.4,Win32,59.98440405,6299f149e92ead563fba08ef,62a442923c5b4b57e7b99e69,,,,,,,,,,,,,,,,,,,,,,,,,,,,,,,,,,,,,,,,,,,,,,,,,,,,,,,,,,,,,,,,,,,,,,,,,,,,,,,,,,,,,,,,,,,,,,,,,,,,,
,,,,,,1,0,1,0,1,X V Q F H G B L J M P D K C T S W R N Z,5e2d7770d70e4e367b8a6498,22,Mężczyzna,2022-06-11_09h29.26.951,task,2021.1.4,Win32,59.98440405,6299f149e92ead563fba08ef,62a442923c5b4b57e7b99e69,,,,,,,,,,,,,,,,,,,,,,,,,,,,,,,,,,,,,,,,,,,,,,,,,,,,,,,,,,,,,,,,,,,,,,,,,,,,,,,,,,,,,,,,,,,,,,,,,,,,,
,,,,,,2,0,2,0,1,X V Q F H G B L J M P D K C T S W R N Z,5e2d7770d70e4e367b8a6498,22,Mężczyzna,2022-06-11_09h29.26.951,task,2021.1.4,Win32,59.98440405,6299f149e92ead563fba08ef,62a442923c5b4b57e7b99e69,,,,,,,,,,,,,,,,,,,,,,,,,,,,,,,,,,,,,,,,,,,,,,,,,,,,,,,,,,,,,,,,,,,,,,,,,,,,,,,,,,,,,,,,,,,,,,,,,,,,,
,,,,,,,,,,,,5e2d7770d70e4e367b8a6498,22,Mężczyzna,2022-06-11_09h29.26.951,task,2021.1.4,Win32,59.98440405,6299f149e92ead563fba08ef,62a442923c5b4b57e7b99e69,vpf,"[""v"",""p"",""f""]","[0.9172000000476714,1.1650000000000205,1.481700000047681,1.7817000000476924]",1,VPF,3,0,3,0,1,,,,,,,,,,,,,,,,,,,,,,,,,,,,,,,,,,,,,,,,,,,,,,,,,,,,,,,,,,,,,,,,,,,,,,,,,,,,,,,,,,,,,,,,,,,
,,,,,,0,0,0,0,1,X V Q F H G B L J M P D K C T S W R N Z,5e2d7770d70e4e367b8a6498,22,Mężczyzna,2022-06-11_09h29.26.951,task,2021.1.4,Win32,59.98440405,6299f149e92ead563fba08ef,62a442923c5b4b57e7b99e69,,,,,,,,,,,,,,,,,,,,,,,,,,,,,,,,,,,,,,,,,,,,,,,,,,,,,,,,,,,,,,,,,,,,,,,,,,,,,,,,,,,,,,,,,,,,,,,,,,,,,
,,,,,,1,0,1,0,1,X V Q F H G B L J M P D K C T S W R N Z,5e2d7770d70e4e367b8a6498,22,Mężczyzna,2022-06-11_09h29.26.951,task,2021.1.4,Win32,59.98440405,6299f149e92ead563fba08ef,62a442923c5b4b57e7b99e69,,,,,,,,,,,,,,,,,,,,,,,,,,,,,,,,,,,,,,,,,,,,,,,,,,,,,,,,,,,,,,,,,,,,,,,,,,,,,,,,,,,,,,,,,,,,,,,,,,,,,
,,,,,,2,0,2,0,1,X V Q F H G B L J M P D K C T S W R N Z,5e2d7770d70e4e367b8a6498,22,Mężczyzna,2022-06-11_09h29.26.951,task,2021.1.4,Win32,59.98440405,6299f149e92ead563fba08ef,62a442923c5b4b57e7b99e69,,,,,,,,,,,,,,,,,,,,,,,,,,,,,,,,,,,,,,,,,,,,,,,,,,,,,,,,,,,,,,,,,,,,,,,,,,,,,,,,,,,,,,,,,,,,,,,,,,,,,
,,,,,,3,0,3,0,1,X V Q F H G B L J M P D K C T S W R N Z,5e2d7770d70e4e367b8a6498,22,Mężczyzna,2022-06-11_09h29.26.951,task,2021.1.4,Win32,59.98440405,6299f149e92ead563fba08ef,62a442923c5b4b57e7b99e69,,,,,,,,,,,,,,,,,,,,,,,,,,,,,,,,,,,,,,,,,,,,,,,,,,,,,,,,,,,,,,,,,,,,,,,,,,,,,,,,,,,,,,,,,,,,,,,,,,,,,
,,,,,,,,,,,,5e2d7770d70e4e367b8a6498,22,Mężczyzna,2022-06-11_09h29.26.951,task,2021.1.4,Win32,59.98440405,6299f149e92ead563fba08ef,62a442923c5b4b57e7b99e69,grkk,"[""g"",""r"",""k"",""k""]","[1.0528999998569475,1.1325999999045848,1.4169999999999732,1.548199999809242,1.831599999904654]",1,GRKK,4,0,4,0,1,,,,,,,,,,,,,,,,,,,,,,,,,,,,,,,,,,,,,,,,,,,,,,,,,,,,,,,,,,,,,,,,,,,,,,,,,,,,,,,,,,,,,,,,,,,
,,,,,,0,0,0,0,1,X V Q F H G B L J M P D K C T S W R N Z,5e2d7770d70e4e367b8a6498,22,Mężczyzna,2022-06-11_09h29.26.951,task,2021.1.4,Win32,59.98440405,6299f149e92ead563fba08ef,62a442923c5b4b57e7b99e69,,,,,,,,,,,,,,,,,,,,,,,,,,,,,,,,,,,,,,,,,,,,,,,,,,,,,,,,,,,,,,,,,,,,,,,,,,,,,,,,,,,,,,,,,,,,,,,,,,,,,
,,,,,,1,0,1,0,1,X V Q F H G B L J M P D K C T S W R N Z,5e2d7770d70e4e367b8a6498,22,Mężczyzna,2022-06-11_09h29.26.951,task,2021.1.4,Win32,59.98440405,6299f149e92ead563fba08ef,62a442923c5b4b57e7b99e69,,,,,,,,,,,,,,,,,,,,,,,,,,,,,,,,,,,,,,,,,,,,,,,,,,,,,,,,,,,,,,,,,,,,,,,,,,,,,,,,,,,,,,,,,,,,,,,,,,,,,
,,,,,,2,0,2,0,1,X V Q F H G B L J M P D K C T S W R N Z,5e2d7770d70e4e367b8a6498,22,Mężczyzna,2022-06-11_09h29.26.951,task,2021.1.4,Win32,59.98440405,6299f149e92ead563fba08ef,62a442923c5b4b57e7b99e69,,,,,,,,,,,,,,,,,,,,,,,,,,,,,,,,,,,,,,,,,,,,,,,,,,,,,,,,,,,,,,,,,,,,,,,,,,,,,,,,,,,,,,,,,,,,,,,,,,,,,
,,,,,,3,0,3,0,1,X V Q F H G B L J M P D K C T S W R N Z,5e2d7770d70e4e367b8a6498,22,Mężczyzna,2022-06-11_09h29.26.951,task,2021.1.4,Win32,59.98440405,6299f149e92ead563fba08ef,62a442923c5b4b57e7b99e69,,,,,,,,,,,,,,,,,,,,,,,,,,,,,,,,,,,,,,,,,,,,,,,,,,,,,,,,,,,,,,,,,,,,,,,,,,,,,,,,,,,,,,,,,,,,,,,,,,,,,
,,,,,,,,,,,,5e2d7770d70e4e367b8a6498,22,Mężczyzna,2022-06-11_09h29.26.951,task,2021.1.4,Win32,59.98440405,6299f149e92ead563fba08ef,62a442923c5b4b57e7b99e69,xjbk,"[""x"",""j"",""b"",""k""]","[0.9315999999046198,1.1982000000476773,1.564700000047651,1.731599999904688,2.1149000000954175]",1,XJBK,5,0,5,0,1,,,,,,,,,,,,,,,,,,,,,,,,,,,,,,,,,,,,,,,,,,,,,,,,,,,,,,,,,,,,,,,,,,,,,,,,,,,,,,,,,,,,,,,,,,,
,,,,,,0,0,0,0,1,X V Q F H G B L J M P D K C T S W R N Z,5e2d7770d70e4e367b8a6498,22,Mężczyzna,2022-06-11_09h29.26.951,task,2021.1.4,Win32,59.98440405,6299f149e92ead563fba08ef,62a442923c5b4b57e7b99e69,,,,,,,,,,,,,,,,,,,,,,,,,,,,,,,,,,,,,,,,,,,,,,,,,,,,,,,,,,,,,,,,,,,,,,,,,,,,,,,,,,,,,,,,,,,,,,,,,,,,,
,,,,,,1,0,1,0,1,X V Q F H G B L J M P D K C T S W R N Z,5e2d7770d70e4e367b8a6498,22,Mężczyzna,2022-06-11_09h29.26.951,task,2021.1.4,Win32,59.98440405,6299f149e92ead563fba08ef,62a442923c5b4b57e7b99e69,,,,,,,,,,,,,,,,,,,,,,,,,,,,,,,,,,,,,,,,,,,,,,,,,,,,,,,,,,,,,,,,,,,,,,,,,,,,,,,,,,,,,,,,,,,,,,,,,,,,,
,,,,,,2,0,2,0,1,X V Q F H G B L J M P D K C T S W R N Z,5e2d7770d70e4e367b8a6498,22,Mężczyzna,2022-06-11_09h29.26.951,task,2021.1.4,Win32,59.98440405,6299f149e92ead563fba08ef,62a442923c5b4b57e7b99e69,,,,,,,,,,,,,,,,,,,,,,,,,,,,,,,,,,,,,,,,,,,,,,,,,,,,,,,,,,,,,,,,,,,,,,,,,,,,,,,,,,,,,,,,,,,,,,,,,,,,,
,,,,,,3,0,3,0,1,X V Q F H G B L J M P D K C T S W R N Z,5e2d7770d70e4e367b8a6498,22,Mężczyzna,2022-06-11_09h29.26.951,task,2021.1.4,Win32,59.98440405,6299f149e92ead563fba08ef,62a442923c5b4b57e7b99e69,,,,,,,,,,,,,,,,,,,,,,,,,,,,,,,,,,,,,,,,,,,,,,,,,,,,,,,,,,,,,,,,,,,,,,,,,,,,,,,,,,,,,,,,,,,,,,,,,,,,,
,,,,,,4,0,4,0,1,X V Q F H G B L J M P D K C T S W R N Z,5e2d7770d70e4e367b8a6498,22,Mężczyzna,2022-06-11_09h29.26.951,task,2021.1.4,Win32,59.98440405,6299f149e92ead563fba08ef,62a442923c5b4b57e7b99e69,,,,,,,,,,,,,,,,,,,,,,,,,,,,,,,,,,,,,,,,,,,,,,,,,,,,,,,,,,,,,,,,,,,,,,,,,,,,,,,,,,,,,,,,,,,,,,,,,,,,,
,,,,,,,,,,,,5e2d7770d70e4e367b8a6498,22,Mężczyzna,2022-06-11_09h29.26.951,task,2021.1.4,Win32,59.98440405,6299f149e92ead563fba08ef,62a442923c5b4b57e7b99e69,gtvmd,"[""g"",""t"",""v"",""m"",""d""]","[0.9993000001907149,1.26299999999992,1.629400000095302,3.4816000001429757,3.663100000143004,3.9349999999999454]",0,GTVDP,6,0,6,0,1,,,,,,,,,,,,,,,,,,,,,,,,,,,,,,,,,,,,,,,,,,,,,,,,,,,,,,,,,,,,,,,,,,,,,,,,,,,,,,,,,,,,,,,,,,,
,,,,,,0,0,0,0,1,X V Q F H G B L J M P D K C T S W R N Z,5e2d7770d70e4e367b8a6498,22,Mężczyzna,2022-06-11_09h29.26.951,task,2021.1.4,Win32,59.98440405,6299f149e92ead563fba08ef,62a442923c5b4b57e7b99e69,,,,,,,,,,,,,,,,,,,,,,,,,,,,,,,,,,,,,,,,,,,,,,,,,,,,,,,,,,,,,,,,,,,,,,,,,,,,,,,,,,,,,,,,,,,,,,,,,,,,,
,,,,,,1,0,1,0,1,X V Q F H G B L J M P D K C T S W R N Z,5e2d7770d70e4e367b8a6498,22,Mężczyzna,2022-06-11_09h29.26.951,task,2021.1.4,Win32,59.98440405,6299f149e92ead563fba08ef,62a442923c5b4b57e7b99e69,,,,,,,,,,,,,,,,,,,,,,,,,,,,,,,,,,,,,,,,,,,,,,,,,,,,,,,,,,,,,,,,,,,,,,,,,,,,,,,,,,,,,,,,,,,,,,,,,,,,,
,,,,,,2,0,2,0,1,X V Q F H G B L J M P D K C T S W R N Z,5e2d7770d70e4e367b8a6498,22,Mężczyzna,2022-06-11_09h29.26.951,task,2021.1.4,Win32,59.98440405,6299f149e92ead563fba08ef,62a442923c5b4b57e7b99e69,,,,,,,,,,,,,,,,,,,,,,,,,,,,,,,,,,,,,,,,,,,,,,,,,,,,,,,,,,,,,,,,,,,,,,,,,,,,,,,,,,,,,,,,,,,,,,,,,,,,,
,,,,,,3,0,3,0,1,X V Q F H G B L J M P D K C T S W R N Z,5e2d7770d70e4e367b8a6498,22,Mężczyzna,2022-06-11_09h29.26.951,task,2021.1.4,Win32,59.98440405,6299f149e92ead563fba08ef,62a442923c5b4b57e7b99e69,,,,,,,,,,,,,,,,,,,,,,,,,,,,,,,,,,,,,,,,,,,,,,,,,,,,,,,,,,,,,,,,,,,,,,,,,,,,,,,,,,,,,,,,,,,,,,,,,,,,,
,,,,,,4,0,4,0,1,X V Q F H G B L J M P D K C T S W R N Z,5e2d7770d70e4e367b8a6498,22,Mężczyzna,2022-06-11_09h29.26.951,task,2021.1.4,Win32,59.98440405,6299f149e92ead563fba08ef,62a442923c5b4b57e7b99e69,,,,,,,,,,,,,,,,,,,,,,,,,,,,,,,,,,,,,,,,,,,,,,,,,,,,,,,,,,,,,,,,,,,,,,,,,,,,,,,,,,,,,,,,,,,,,,,,,,,,,
,,,,,,,,,,,,5e2d7770d70e4e367b8a6498,22,Mężczyzna,2022-06-11_09h29.26.951,task,2021.1.4,Win32,59.98440405,6299f149e92ead563fba08ef,62a442923c5b4b57e7b99e69,pdqxn,"[""p"",""d"",""q"",""x"",""n""]","[0.9993000001907149,1.2338000001907403,2.181500000000028,2.717200000047683,2.881800000190765,3.31899999999996]",1,PDQXN,7,0,7,0,1,,,,,,,,,,,,,,,,,,,,,,,,,,,,,,,,,,,,,,,,,,,,,,,,,,,,,,,,,,,,,,,,,,,,,,,,,,,,,,,,,,,,,,,,,,,
,,,,,,0,0,0,0,1,X V Q F H G B L J M P D K C T S W R N Z,5e2d7770d70e4e367b8a6498,22,Mężczyzna,2022-06-11_09h29.26.951,task,2021.1.4,Win32,59.98440405,6299f149e92ead563fba08ef,62a442923c5b4b57e7b99e69,,,,,,,,,,,,,,,,,,,,,,,,,,,,,,,,,,,,,,,,,,,,,,,,,,,,,,,,,,,,,,,,,,,,,,,,,,,,,,,,,,,,,,,,,,,,,,,,,,,,,
,,,,,,1,0,1,0,1,X V Q F H G B L J M P D K C T S W R N Z,5e2d7770d70e4e367b8a6498,22,Mężczyzna,2022-06-11_09h29.26.951,task,2021.1.4,Win32,59.98440405,6299f149e92ead563fba08ef,62a442923c5b4b57e7b99e69,,,,,,,,,,,,,,,,,,,,,,,,,,,,,,,,,,,,,,,,,,,,,,,,,,,,,,,,,,,,,,,,,,,,,,,,,,,,,,,,,,,,,,,,,,,,,,,,,,,,,
,,,,,,2,0,2,0,1,X V Q F H G B L J M P D K C T S W R N Z,5e2d7770d70e4e367b8a6498,22,Mężczyzna,2022-06-11_09h29.26.951,task,2021.1.4,Win32,59.98440405,6299f149e92ead563fba08ef,62a442923c5b4b57e7b99e69,,,,,,,,,,,,,,,,,,,,,,,,,,,,,,,,,,,,,,,,,,,,,,,,,,,,,,,,,,,,,,,,,,,,,,,,,,,,,,,,,,,,,,,,,,,,,,,,,,,,,
,,,,,,3,0,3,0,1,X V Q F H G B L J M P D K C T S W R N Z,5e2d7770d70e4e367b8a6498,22,Mężczyzna,2022-06-11_09h29.26.951,task,2021.1.4,Win32,59.98440405,6299f149e92ead563fba08ef,62a442923c5b4b57e7b99e69,,,,,,,,,,,,,,,,,,,,,,,,,,,,,,,,,,,,,,,,,,,,,,,,,,,,,,,,,,,,,,,,,,,,,,,,,,,,,,,,,,,,,,,,,,,,,,,,,,,,,
,,,,,,4,0,4,0,1,X V Q F H G B L J M P D K C T S W R N Z,5e2d7770d70e4e367b8a6498,22,Mężczyzna,2022-06-11_09h29.26.951,task,2021.1.4,Win32,59.98440405,6299f149e92ead563fba08ef,62a442923c5b4b57e7b99e69,,,,,,,,,,,,,,,,,,,,,,,,,,,,,,,,,,,,,,,,,,,,,,,,,,,,,,,,,,,,,,,,,,,,,,,,,,,,,,,,,,,,,,,,,,,,,,,,,,,,,
,,,,,,,,,,,,5e2d7770d70e4e367b8a6498,22,Mężczyzna,2022-06-11_09h29.26.951,task,2021.1.4,Win32,59.98440405,6299f149e92ead563fba08ef,62a442923c5b4b57e7b99e69,lmwjp,"[""l"",""m"",""w"",""j"",""p""]","[0.9335999999045725,1.183499999999981,1.6374999999999318,2.1013999998568806,2.450399999856927,2.8670999999045534]",1,LMWJP,8,0,8,0,1,,,,,,,,,,,,,,,,,,,,,,,,,,,,,,,,,,,,,,,,,,,,,,,,,,,,,,,,,,,,,,,,,,,,,,,,,,,,,,,,,,,,,,,,,,,
,,,,,,0,0,0,0,1,X V Q F H G B L J M P D K C T S W R N Z,5e2d7770d70e4e367b8a6498,22,Mężczyzna,2022-06-11_09h29.26.951,task,2021.1.4,Win32,59.98440405,6299f149e92ead563fba08ef,62a442923c5b4b57e7b99e69,,,,,,,,,,,,,,,,,,,,,,,,,,,,,,,,,,,,,,,,,,,,,,,,,,,,,,,,,,,,,,,,,,,,,,,,,,,,,,,,,,,,,,,,,,,,,,,,,,,,,
,,,,,,1,0,1,0,1,X V Q F H G B L J M P D K C T S W R N Z,5e2d7770d70e4e367b8a6498,22,Mężczyzna,2022-06-11_09h29.26.951,task,2021.1.4,Win32,59.98440405,6299f149e92ead563fba08ef,62a442923c5b4b57e7b99e69,,,,,,,,,,,,,,,,,,,,,,,,,,,,,,,,,,,,,,,,,,,,,,,,,,,,,,,,,,,,,,,,,,,,,,,,,,,,,,,,,,,,,,,,,,,,,,,,,,,,,
,,,,,,2,0,2,0,1,X V Q F H G B L J M P D K C T S W R N Z,5e2d7770d70e4e367b8a6498,22,Mężczyzna,2022-06-11_09h29.26.951,task,2021.1.4,Win32,59.98440405,6299f149e92ead563fba08ef,62a442923c5b4b57e7b99e69,,,,,,,,,,,,,,,,,,,,,,,,,,,,,,,,,,,,,,,,,,,,,,,,,,,,,,,,,,,,,,,,,,,,,,,,,,,,,,,,,,,,,,,,,,,,,,,,,,,,,
,,,,,,3,0,3,0,1,X V Q F H G B L J M P D K C T S W R N Z,5e2d7770d70e4e367b8a6498,22,Mężczyzna,2022-06-11_09h29.26.951,task,2021.1.4,Win32,59.98440405,6299f149e92ead563fba08ef,62a442923c5b4b57e7b99e69,,,,,,,,,,,,,,,,,,,,,,,,,,,,,,,,,,,,,,,,,,,,,,,,,,,,,,,,,,,,,,,,,,,,,,,,,,,,,,,,,,,,,,,,,,,,,,,,,,,,,
,,,,,,4,0,4,0,1,X V Q F H G B L J M P D K C T S W R N Z,5e2d7770d70e4e367b8a6498,22,Mężczyzna,2022-06-11_09h29.26.951,task,2021.1.4,Win32,59.98440405,6299f149e92ead563fba08ef,62a442923c5b4b57e7b99e69,,,,,,,,,,,,,,,,,,,,,,,,,,,,,,,,,,,,,,,,,,,,,,,,,,,,,,,,,,,,,,,,,,,,,,,,,,,,,,,,,,,,,,,,,,,,,,,,,,,,,
,,,,,,5,0,5,0,1,X V Q F H G B L J M P D K C T S W R N Z,5e2d7770d70e4e367b8a6498,22,Mężczyzna,2022-06-11_09h29.26.951,task,2021.1.4,Win32,59.98440405,6299f149e92ead563fba08ef,62a442923c5b4b57e7b99e69,,,,,,,,,,,,,,,,,,,,,,,,,,,,,,,,,,,,,,,,,,,,,,,,,,,,,,,,,,,,,,,,,,,,,,,,,,,,,,,,,,,,,,,,,,,,,,,,,,,,,
,,,,,,,,,,,,5e2d7770d70e4e367b8a6498,22,Mężczyzna,2022-06-11_09h29.26.951,task,2021.1.4,Win32,59.98440405,6299f149e92ead563fba08ef,62a442923c5b4b57e7b99e69,kbksgr,"[""k"",""b"",""k"",""s"",""g"",""r""]","[0.7482000000477456,0.983600000143042,1.1650000000000773,1.5171000001430457,1.6650000000000773,1.948500000000081,2.248400000095444]",1,KBKSGR,9,0,9,0,1,,,,,,,,,,,,,,,,,,,,,,,,,,,,,,,,,,,,,,,,,,,,,,,,,,,,,,,,,,,,,,,,,,,,,,,,,,,,,,,,,,,,,,,,,,,
,,,,,,0,0,0,0,1,X V Q F H G B L J M P D K C T S W R N Z,5e2d7770d70e4e367b8a6498,22,Mężczyzna,2022-06-11_09h29.26.951,task,2021.1.4,Win32,59.98440405,6299f149e92ead563fba08ef,62a442923c5b4b57e7b99e69,,,,,,,,,,,,,,,,,,,,,,,,,,,,,,,,,,,,,,,,,,,,,,,,,,,,,,,,,,,,,,,,,,,,,,,,,,,,,,,,,,,,,,,,,,,,,,,,,,,,,
,,,,,,1,0,1,0,1,X V Q F H G B L J M P D K C T S W R N Z,5e2d7770d70e4e367b8a6498,22,Mężczyzna,2022-06-11_09h29.26.951,task,2021.1.4,Win32,59.98440405,6299f149e92ead563fba08ef,62a442923c5b4b57e7b99e69,,,,,,,,,,,,,,,,,,,,,,,,,,,,,,,,,,,,,,,,,,,,,,,,,,,,,,,,,,,,,,,,,,,,,,,,,,,,,,,,,,,,,,,,,,,,,,,,,,,,,
,,,,,,2,0,2,0,1,X V Q F H G B L J M P D K C T S W R N Z,5e2d7770d70e4e367b8a6498,22,Mężczyzna,2022-06-11_09h29.26.951,task,2021.1.4,Win32,59.98440405,6299f149e92ead563fba08ef,62a442923c5b4b57e7b99e69,,,,,,,,,,,,,,,,,,,,,,,,,,,,,,,,,,,,,,,,,,,,,,,,,,,,,,,,,,,,,,,,,,,,,,,,,,,,,,,,,,,,,,,,,,,,,,,,,,,,,
,,,,,,3,0,3,0,1,X V Q F H G B L J M P D K C T S W R N Z,5e2d7770d70e4e367b8a6498,22,Mężczyzna,2022-06-11_09h29.26.951,task,2021.1.4,Win32,59.98440405,6299f149e92ead563fba08ef,62a442923c5b4b57e7b99e69,,,,,,,,,,,,,,,,,,,,,,,,,,,,,,,,,,,,,,,,,,,,,,,,,,,,,,,,,,,,,,,,,,,,,,,,,,,,,,,,,,,,,,,,,,,,,,,,,,,,,
,,,,,,4,0,4,0,1,X V Q F H G B L J M P D K C T S W R N Z,5e2d7770d70e4e367b8a6498,22,Mężczyzna,2022-06-11_09h29.26.951,task,2021.1.4,Win32,59.98440405,6299f149e92ead563fba08ef,62a442923c5b4b57e7b99e69,,,,,,,,,,,,,,,,,,,,,,,,,,,,,,,,,,,,,,,,,,,,,,,,,,,,,,,,,,,,,,,,,,,,,,,,,,,,,,,,,,,,,,,,,,,,,,,,,,,,,
,,,,,,5,0,5,0,1,X V Q F H G B L J M P D K C T S W R N Z,5e2d7770d70e4e367b8a6498,22,Mężczyzna,2022-06-11_09h29.26.951,task,2021.1.4,Win32,59.98440405,6299f149e92ead563fba08ef,62a442923c5b4b57e7b99e69,,,,,,,,,,,,,,,,,,,,,,,,,,,,,,,,,,,,,,,,,,,,,,,,,,,,,,,,,,,,,,,,,,,,,,,,,,,,,,,,,,,,,,,,,,,,,,,,,,,,,
,,,,,,,,,,,,5e2d7770d70e4e367b8a6498,22,Mężczyzna,2022-06-11_09h29.26.951,task,2021.1.4,Win32,59.98440405,6299f149e92ead563fba08ef,62a442923c5b4b57e7b99e69,gvfskl,"[""g"",""v"",""f"",""s"",""k"",""l""]","[1.1834000000953893,2.081599999904597,2.398200000047723,2.7150999999046235,2.967099999904576,3.248299999952337,3.6484000000953074]",1,GVFSKL,10,0,10,0,1,,,,,,,,,,,,,,,,,,,,,,,,,,,,,,,,,,,,,,,,,,,,,,,,,,,,,,,,,,,,,,,,,,,,,,,,,,,,,,,,,,,,,,,,,,,
,,,,,,0,0,0,0,1,X V Q F H G B L J M P D K C T S W R N Z,5e2d7770d70e4e367b8a6498,22,Mężczyzna,2022-06-11_09h29.26.951,task,2021.1.4,Win32,59.98440405,6299f149e92ead563fba08ef,62a442923c5b4b57e7b99e69,,,,,,,,,,,,,,,,,,,,,,,,,,,,,,,,,,,,,,,,,,,,,,,,,,,,,,,,,,,,,,,,,,,,,,,,,,,,,,,,,,,,,,,,,,,,,,,,,,,,,
,,,,,,1,0,1,0,1,X V Q F H G B L J M P D K C T S W R N Z,5e2d7770d70e4e367b8a6498,22,Mężczyzna,2022-06-11_09h29.26.951,task,2021.1.4,Win32,59.98440405,6299f149e92ead563fba08ef,62a442923c5b4b57e7b99e69,,,,,,,,,,,,,,,,,,,,,,,,,,,,,,,,,,,,,,,,,,,,,,,,,,,,,,,,,,,,,,,,,,,,,,,,,,,,,,,,,,,,,,,,,,,,,,,,,,,,,
,,,,,,2,0,2,0,1,X V Q F H G B L J M P D K C T S W R N Z,5e2d7770d70e4e367b8a6498,22,Mężczyzna,2022-06-11_09h29.26.951,task,2021.1.4,Win32,59.98440405,6299f149e92ead563fba08ef,62a442923c5b4b57e7b99e69,,,,,,,,,,,,,,,,,,,,,,,,,,,,,,,,,,,,,,,,,,,,,,,,,,,,,,,,,,,,,,,,,,,,,,,,,,,,,,,,,,,,,,,,,,,,,,,,,,,,,
,,,,,,3,0,3,0,1,X V Q F H G B L J M P D K C T S W R N Z,5e2d7770d70e4e367b8a6498,22,Mężczyzna,2022-06-11_09h29.26.951,task,2021.1.4,Win32,59.98440405,6299f149e92ead563fba08ef,62a442923c5b4b57e7b99e69,,,,,,,,,,,,,,,,,,,,,,,,,,,,,,,,,,,,,,,,,,,,,,,,,,,,,,,,,,,,,,,,,,,,,,,,,,,,,,,,,,,,,,,,,,,,,,,,,,,,,
,,,,,,4,0,4,0,1,X V Q F H G B L J M P D K C T S W R N Z,5e2d7770d70e4e367b8a6498,22,Mężczyzna,2022-06-11_09h29.26.951,task,2021.1.4,Win32,59.98440405,6299f149e92ead563fba08ef,62a442923c5b4b57e7b99e69,,,,,,,,,,,,,,,,,,,,,,,,,,,,,,,,,,,,,,,,,,,,,,,,,,,,,,,,,,,,,,,,,,,,,,,,,,,,,,,,,,,,,,,,,,,,,,,,,,,,,
,,,,,,5,0,5,0,1,X V Q F H G B L J M P D K C T S W R N Z,5e2d7770d70e4e367b8a6498,22,Mężczyzna,2022-06-11_09h29.26.951,task,2021.1.4,Win32,59.98440405,6299f149e92ead563fba08ef,62a442923c5b4b57e7b99e69,,,,,,,,,,,,,,,,,,,,,,,,,,,,,,,,,,,,,,,,,,,,,,,,,,,,,,,,,,,,,,,,,,,,,,,,,,,,,,,,,,,,,,,,,,,,,,,,,,,,,
,,,,,,6,0,6,0,1,X V Q F H G B L J M P D K C T S W R N Z,5e2d7770d70e4e367b8a6498,22,Mężczyzna,2022-06-11_09h29.26.951,task,2021.1.4,Win32,59.98440405,6299f149e92ead563fba08ef,62a442923c5b4b57e7b99e69,,,,,,,,,,,,,,,,,,,,,,,,,,,,,,,,,,,,,,,,,,,,,,,,,,,,,,,,,,,,,,,,,,,,,,,,,,,,,,,,,,,,,,,,,,,,,,,,,,,,,
,,,,,,,,,,,,5e2d7770d70e4e367b8a6498,22,Mężczyzna,2022-06-11_09h29.26.951,task,2021.1.4,Win32,59.98440405,6299f149e92ead563fba08ef,62a442923c5b4b57e7b99e69,bfmrqzv,"[""b"",""f"",""m"",""r"",""q"",""z"",""v""]","[1.1525999999046235,1.4483999998569743,1.767199999809236,2.0671999998093042,2.4322999999523063,2.83400000000006,3.5841999998092433,3.8815999999046653]",1,BFMRQZV,11,0,11,0,1,,,,,,,,,,,,,,,,,,,,,,,,,,,,,,,,,,,,,,,,,,,,,,,,,,,,,,,,,,,,,,,,,,,,,,,,,,,,,,,,,,,,,,,,,,,
,,,,,,0,0,0,0,1,X V Q F H G B L J M P D K C T S W R N Z,5e2d7770d70e4e367b8a6498,22,Mężczyzna,2022-06-11_09h29.26.951,task,2021.1.4,Win32,59.98440405,6299f149e92ead563fba08ef,62a442923c5b4b57e7b99e69,,,,,,,,,,,,,,,,,,,,,,,,,,,,,,,,,,,,,,,,,,,,,,,,,,,,,,,,,,,,,,,,,,,,,,,,,,,,,,,,,,,,,,,,,,,,,,,,,,,,,
,,,,,,1,0,1,0,1,X V Q F H G B L J M P D K C T S W R N Z,5e2d7770d70e4e367b8a6498,22,Mężczyzna,2022-06-11_09h29.26.951,task,2021.1.4,Win32,59.98440405,6299f149e92ead563fba08ef,62a442923c5b4b57e7b99e69,,,,,,,,,,,,,,,,,,,,,,,,,,,,,,,,,,,,,,,,,,,,,,,,,,,,,,,,,,,,,,,,,,,,,,,,,,,,,,,,,,,,,,,,,,,,,,,,,,,,,
,,,,,,2,0,2,0,1,X V Q F H G B L J M P D K C T S W R N Z,5e2d7770d70e4e367b8a6498,22,Mężczyzna,2022-06-11_09h29.26.951,task,2021.1.4,Win32,59.98440405,6299f149e92ead563fba08ef,62a442923c5b4b57e7b99e69,,,,,,,,,,,,,,,,,,,,,,,,,,,,,,,,,,,,,,,,,,,,,,,,,,,,,,,,,,,,,,,,,,,,,,,,,,,,,,,,,,,,,,,,,,,,,,,,,,,,,
,,,,,,3,0,3,0,1,X V Q F H G B L J M P D K C T S W R N Z,5e2d7770d70e4e367b8a6498,22,Mężczyzna,2022-06-11_09h29.26.951,task,2021.1.4,Win32,59.98440405,6299f149e92ead563fba08ef,62a442923c5b4b57e7b99e69,,,,,,,,,,,,,,,,,,,,,,,,,,,,,,,,,,,,,,,,,,,,,,,,,,,,,,,,,,,,,,,,,,,,,,,,,,,,,,,,,,,,,,,,,,,,,,,,,,,,,
,,,,,,4,0,4,0,1,X V Q F H G B L J M P D K C T S W R N Z,5e2d7770d70e4e367b8a6498,22,Mężczyzna,2022-06-11_09h29.26.951,task,2021.1.4,Win32,59.98440405,6299f149e92ead563fba08ef,62a442923c5b4b57e7b99e69,,,,,,,,,,,,,,,,,,,,,,,,,,,,,,,,,,,,,,,,,,,,,,,,,,,,,,,,,,,,,,,,,,,,,,,,,,,,,,,,,,,,,,,,,,,,,,,,,,,,,
,,,,,,5,0,5,0,1,X V Q F H G B L J M P D K C T S W R N Z,5e2d7770d70e4e367b8a6498,22,Mężczyzna,2022-06-11_09h29.26.951,task,2021.1.4,Win32,59.98440405,6299f149e92ead563fba08ef,62a442923c5b4b57e7b99e69,,,,,,,,,,,,,,,,,,,,,,,,,,,,,,,,,,,,,,,,,,,,,,,,,,,,,,,,,,,,,,,,,,,,,,,,,,,,,,,,,,,,,,,,,,,,,,,,,,,,,
,,,,,,6,0,6,0,1,X V Q F H G B L J M P D K C T S W R N Z,5e2d7770d70e4e367b8a6498,22,Mężczyzna,2022-06-11_09h29.26.951,task,2021.1.4,Win32,59.98440405,6299f149e92ead563fba08ef,62a442923c5b4b57e7b99e69,,,,,,,,,,,,,,,,,,,,,,,,,,,,,,,,,,,,,,,,,,,,,,,,,,,,,,,,,,,,,,,,,,,,,,,,,,,,,,,,,,,,,,,,,,,,,,,,,,,,,
,,,,,,,,,,,,5e2d7770d70e4e367b8a6498,22,Mężczyzna,2022-06-11_09h29.26.951,task,2021.1.4,Win32,59.98440405,6299f149e92ead563fba08ef,62a442923c5b4b57e7b99e69,sfpvnj,"[""s"",""f"",""p"",""v"",""n"",""j""]","[0.7363000001906812,1.8319999999999936,2.1521000001430366,2.9483000001906703,3.832300000190685,4.2817000000476355,4.715100000143025]",0,SPVNPJQ,12,0,12,0,1,,,,,,,,,,,,,,,,,,,,,,,,,,,,,,,,,,,,,,,,,,,,,,,,,,,,,,,,,,,,,,,,,,,,,,,,,,,,,,,,,,,,,,,,,,,
,,,,,,0,0,0,0,1,X V Q F H G B L J M P D K C T S W R N Z,5e2d7770d70e4e367b8a6498,22,Mężczyzna,2022-06-11_09h29.26.951,task,2021.1.4,Win32,59.98440405,6299f149e92ead563fba08ef,62a442923c5b4b57e7b99e69,,,,,,,,,,,,,,,,,,,,,,,,,,,,,,,,,,,,,,,,,,,,,,,,,,,,,,,,,,,,,,,,,,,,,,,,,,,,,,,,,,,,,,,,,,,,,,,,,,,,,
,,,,,,1,0,1,0,1,X V Q F H G B L J M P D K C T S W R N Z,5e2d7770d70e4e367b8a6498,22,Mężczyzna,2022-06-11_09h29.26.951,task,2021.1.4,Win32,59.98440405,6299f149e92ead563fba08ef,62a442923c5b4b57e7b99e69,,,,,,,,,,,,,,,,,,,,,,,,,,,,,,,,,,,,,,,,,,,,,,,,,,,,,,,,,,,,,,,,,,,,,,,,,,,,,,,,,,,,,,,,,,,,,,,,,,,,,
,,,,,,2,0,2,0,1,X V Q F H G B L J M P D K C T S W R N Z,5e2d7770d70e4e367b8a6498,22,Mężczyzna,2022-06-11_09h29.26.951,task,2021.1.4,Win32,59.98440405,6299f149e92ead563fba08ef,62a442923c5b4b57e7b99e69,,,,,,,,,,,,,,,,,,,,,,,,,,,,,,,,,,,,,,,,,,,,,,,,,,,,,,,,,,,,,,,,,,,,,,,,,,,,,,,,,,,,,,,,,,,,,,,,,,,,,
,,,,,,3,0,3,0,1,X V Q F H G B L J M P D K C T S W R N Z,5e2d7770d70e4e367b8a6498,22,Mężczyzna,2022-06-11_09h29.26.951,task,2021.1.4,Win32,59.98440405,6299f149e92ead563fba08ef,62a442923c5b4b57e7b99e69,,,,,,,,,,,,,,,,,,,,,,,,,,,,,,,,,,,,,,,,,,,,,,,,,,,,,,,,,,,,,,,,,,,,,,,,,,,,,,,,,,,,,,,,,,,,,,,,,,,,,
,,,,,,4,0,4,0,1,X V Q F H G B L J M P D K C T S W R N Z,5e2d7770d70e4e367b8a6498,22,Mężczyzna,2022-06-11_09h29.26.951,task,2021.1.4,Win32,59.98440405,6299f149e92ead563fba08ef,62a442923c5b4b57e7b99e69,,,,,,,,,,,,,,,,,,,,,,,,,,,,,,,,,,,,,,,,,,,,,,,,,,,,,,,,,,,,,,,,,,,,,,,,,,,,,,,,,,,,,,,,,,,,,,,,,,,,,
,,,,,,5,0,5,0,1,X V Q F H G B L J M P D K C T S W R N Z,5e2d7770d70e4e367b8a6498,22,Mężczyzna,2022-06-11_09h29.26.951,task,2021.1.4,Win32,59.98440405,6299f149e92ead563fba08ef,62a442923c5b4b57e7b99e69,,,,,,,,,,,,,,,,,,,,,,,,,,,,,,,,,,,,,,,,,,,,,,,,,,,,,,,,,,,,,,,,,,,,,,,,,,,,,,,,,,,,,,,,,,,,,,,,,,,,,
,,,,,,6,0,6,0,1,X V Q F H G B L J M P D K C T S W R N Z,5e2d7770d70e4e367b8a6498,22,Mężczyzna,2022-06-11_09h29.26.951,task,2021.1.4,Win32,59.98440405,6299f149e92ead563fba08ef,62a442923c5b4b57e7b99e69,,,,,,,,,,,,,,,,,,,,,,,,,,,,,,,,,,,,,,,,,,,,,,,,,,,,,,,,,,,,,,,,,,,,,,,,,,,,,,,,,,,,,,,,,,,,,,,,,,,,,
,,,,,,,,,,,,5e2d7770d70e4e367b8a6498,22,Mężczyzna,2022-06-11_09h29.26.951,task,2021.1.4,Win32,59.98440405,6299f149e92ead563fba08ef,62a442923c5b4b57e7b99e69,tfhxvhp,"[""t"",""f"",""h"",""x"",""v"",""h"",""p""]","[1.087300000190794,1.6672000000477283,2.04849999999999,2.467100000143091,3.6672000000477283,4.298600000143097,5.032000000000039,5.36660000014308]",0,TFVXHVP,13,0,13,0,1,,,,,,,,,,,,,,,,,,,,,,,,,,,,,,,,,,,,,,,,,,,,,,,,,,,,,,,,,,,,,,,,,,,,,,,,,,,,,,,,,,,,,,,,,,,
,,,,,,0,0,0,0,1,X V Q F H G B L J M P D K C T S W R N Z,5e2d7770d70e4e367b8a6498,22,Mężczyzna,2022-06-11_09h29.26.951,task,2021.1.4,Win32,59.98440405,6299f149e92ead563fba08ef,62a442923c5b4b57e7b99e69,,,,,,,,,,,,,,,,,,,,,,,,,,,,,,,,,,,,,,,,,,,,,,,,,,,,,,,,,,,,,,,,,,,,,,,,,,,,,,,,,,,,,,,,,,,,,,,,,,,,,
,,,,,,1,0,1,0,1,X V Q F H G B L J M P D K C T S W R N Z,5e2d7770d70e4e367b8a6498,22,Mężczyzna,2022-06-11_09h29.26.951,task,2021.1.4,Win32,59.98440405,6299f149e92ead563fba08ef,62a442923c5b4b57e7b99e69,,,,,,,,,,,,,,,,,,,,,,,,,,,,,,,,,,,,,,,,,,,,,,,,,,,,,,,,,,,,,,,,,,,,,,,,,,,,,,,,,,,,,,,,,,,,,,,,,,,,,
,,,,,,2,0,2,0,1,X V Q F H G B L J M P D K C T S W R N Z,5e2d7770d70e4e367b8a6498,22,Mężczyzna,2022-06-11_09h29.26.951,task,2021.1.4,Win32,59.98440405,6299f149e92ead563fba08ef,62a442923c5b4b57e7b99e69,,,,,,,,,,,,,,,,,,,,,,,,,,,,,,,,,,,,,,,,,,,,,,,,,,,,,,,,,,,,,,,,,,,,,,,,,,,,,,,,,,,,,,,,,,,,,,,,,,,,,
,,,,,,3,0,3,0,1,X V Q F H G B L J M P D K C T S W R N Z,5e2d7770d70e4e367b8a6498,22,Mężczyzna,2022-06-11_09h29.26.951,task,2021.1.4,Win32,59.98440405,6299f149e92ead563fba08ef,62a442923c5b4b57e7b99e69,,,,,,,,,,,,,,,,,,,,,,,,,,,,,,,,,,,,,,,,,,,,,,,,,,,,,,,,,,,,,,,,,,,,,,,,,,,,,,,,,,,,,,,,,,,,,,,,,,,,,
,,,,,,4,0,4,0,1,X V Q F H G B L J M P D K C T S W R N Z,5e2d7770d70e4e367b8a6498,22,Mężczyzna,2022-06-11_09h29.26.951,task,2021.1.4,Win32,59.98440405,6299f149e92ead563fba08ef,62a442923c5b4b57e7b99e69,,,,,,,,,,,,,,,,,,,,,,,,,,,,,,,,,,,,,,,,,,,,,,,,,,,,,,,,,,,,,,,,,,,,,,,,,,,,,,,,,,,,,,,,,,,,,,,,,,,,,
,,,,,,5,0,5,0,1,X V Q F H G B L J M P D K C T S W R N Z,5e2d7770d70e4e367b8a6498,22,Mężczyzna,2022-06-11_09h29.26.951,task,2021.1.4,Win32,59.98440405,6299f149e92ead563fba08ef,62a442923c5b4b57e7b99e69,,,,,,,,,,,,,,,,,,,,,,,,,,,,,,,,,,,,,,,,,,,,,,,,,,,,,,,,,,,,,,,,,,,,,,,,,,,,,,,,,,,,,,,,,,,,,,,,,,,,,
,,,,,,6,0,6,0,1,X V Q F H G B L J M P D K C T S W R N Z,5e2d7770d70e4e367b8a6498,22,Mężczyzna,2022-06-11_09h29.26.951,task,2021.1.4,Win32,59.98440405,6299f149e92ead563fba08ef,62a442923c5b4b57e7b99e69,,,,,,,,,,,,,,,,,,,,,,,,,,,,,,,,,,,,,,,,,,,,,,,,,,,,,,,,,,,,,,,,,,,,,,,,,,,,,,,,,,,,,,,,,,,,,,,,,,,,,
,,,,,,,,,,,,5e2d7770d70e4e367b8a6498,22,Mężczyzna,2022-06-11_09h29.26.951,task,2021.1.4,Win32,59.98440405,6299f149e92ead563fba08ef,62a442923c5b4b57e7b99e69,hxrmjdr,"[""h"",""x"",""r"",""m"",""j"",""d"",""r""]","[1.2002999999522217,1.50029999995229,2.314999999999941,2.5869000000952838,2.9484000000953756,3.567200000047592,3.802900000095292,4.150600000142958]",0,HXRMJDB,14,0,14,0,1,,,,,,,,,,,,,,,,,,,,,,,,,,,,,,,,,,,,,,,,,,,,,,,,,,,,,,,,,,,,,,,,,,,,,,,,,,,,,,,,,,,,,,,,,,,
,,,,,,,,,,,,5e2d7770d70e4e367b8a6498,22,Mężczyzna,2022-06-11_09h29.26.951,task,2021.1.4,Win32,59.98440405,6299f149e92ead563fba08ef,62a442923c5b4b57e7b99e69,,,,,,,,,,,space,114.6695,7,"[""7""]",1,[4.586000000000013],[4.586000000000013],0,0,0,7,1,Practice,8,(5x5) - 18,7,,,,,,,,,,,,,,,,,,,,,,,,,,,,,,,,,,,,,,,,,,,,,,,,,,,,,,,,,,,,,,,,,,,,,,,,,,,
,,,,,,,,,,,,5e2d7770d70e4e367b8a6498,22,Mężczyzna,2022-06-11_09h29.26.951,task,2021.1.4,Win32,59.98440405,6299f149e92ead563fba08ef,62a442923c5b4b57e7b99e69,,,,,,,,,,,,,1,"[""1""]",1,[1.8504000000953056],"[4.586000000000013,1.8504000000953056]",0,1,1,1,1,Practice,2,(4x4) - 15,1,,,,,,,,,,,,,,,,,,,,,,,,,,,,,,,,,,,,,,,,,,,,,,,,,,,,,,,,,,,,,,,,,,,,,,,,,,,
,,,,,,,,,,,,5e2d7770d70e4e367b8a6498,22,Mężczyzna,2022-06-11_09h29.26.951,task,2021.1.4,Win32,59.98440405,6299f149e92ead563fba08ef,62a442923c5b4b57e7b99e69,,,,,,,,,,,,,4,"[""4""]",1,[3.2503999998569952],"[4.586000000000013,1.8504000000953056,3.2503999998569952]",0,2,2,4,1,Practice,5,(2x6) - 8,4,,,,,,,,,,,,,,,,,,,,,,,,,,,,,,,,,,,,,,,,,,,,,,,,,,,,,,,,,,,,,,,,,,,,,,,,,,,
,,,,,,,,,,,,5e2d7770d70e4e367b8a6498,22,Mężczyzna,2022-06-11_09h29.26.951,task,2021.1.4,Win32,59.98440405,6299f149e92ead563fba08ef,62a442923c5b4b57e7b99e69,,,,,,,,,,,,,8,"[""8""]",1,[2.16700000000003],"[4.586000000000013,1.8504000000953056,3.2503999998569952,2.16700000000003]",0,3,3,8,1,Practice,9,(3x3) - 1,8,,,,,,,,,,,,,,,,,,,,,,,,,,,,,,,,,,,,,,,,,,,,,,,,,,,,,,,,,,,,,,,,,,,,,,,,,,,
,,,,,,,,,,,,5e2d7770d70e4e367b8a6498,22,Mężczyzna,2022-06-11_09h29.26.951,task,2021.1.4,Win32,59.98440405,6299f149e92ead563fba08ef,62a442923c5b4b57e7b99e69,,,,,,,,,,,,,5,"[""5""]",1,[4.22010000014302],"[4.586000000000013,1.8504000000953056,3.2503999998569952,2.16700000000003,4.22010000014302]",0,4,4,5,1,Practice,6,(4/2) + 3,5,,,,,,,,,,,,,,,,,,,,,,,,,,,,,,,,,,,,,,,,,,,,,,,,,,,,,,,,,,,,,,,,,,,,,,,,,,,
,,,,,,,,,,,,5e2d7770d70e4e367b8a6498,22,Mężczyzna,2022-06-11_09h29.26.951,task,2021.1.4,Win32,59.98440405,6299f149e92ead563fba08ef,62a442923c5b4b57e7b99e69,,,,,,,,,,,,,9,"[""9""]",1,[1.9505000000000337],"[4.586000000000013,1.8504000000953056,3.2503999998569952,2.16700000000003,4.22010000014302,1.9505000000000337]",0,5,5,9,1,Practice,10,(20/2) - 1,9,,,,,,,,,,,,,,,,,,,,,,,,,,,,,,,,,,,,,,,,,,,,,,,,,,,,,,,,,,,,,,,,,,,,,,,,,,,
,,,,,,,,,,,,5e2d7770d70e4e367b8a6498,22,Mężczyzna,2022-06-11_09h29.26.951,task,2021.1.4,Win32,59.98440405,6299f149e92ead563fba08ef,62a442923c5b4b57e7b99e69,,,,,,,,,,,,,0,"[""0""]",1,[1.433499999999981],"[4.586000000000013,1.8504000000953056,3.2503999998569952,2.16700000000003,4.22010000014302,1.9505000000000337,1.433499999999981]",0,6,6,0,1,Practice,1,(3x3) -  9,0,,,,,,,,,,,,,,,,,,,,,,,,,,,,,,,,,,,,,,,,,,,,,,,,,,,,,,,,,,,,,,,,,,,,,,,,,,,
,,,,,,,,,,,,5e2d7770d70e4e367b8a6498,22,Mężczyzna,2022-06-11_09h29.26.951,task,2021.1.4,Win32,59.98440405,6299f149e92ead563fba08ef,62a442923c5b4b57e7b99e69,,,,,,,,,,,,,0,"[""0""]",0,[2.7835999999045953],"[4.586000000000013,1.8504000000953056,3.2503999998569952,2.16700000000003,4.22010000014302,1.9505000000000337,1.433499999999981,2.7835999999045953]",0,7,7,2,1,Practice,3,(4x4) - 14,2,,,,,,,,,,,,,,,,,,,,,,,,,,,,,,,,,,,,,,,,,,,,,,,,,,,,,,,,,,,,,,,,,,,,,,,,,,,
,,,,,,,,,,,,5e2d7770d70e4e367b8a6498,22,Mężczyzna,2022-06-11_09h29.26.951,task,2021.1.4,Win32,59.98440405,6299f149e92ead563fba08ef,62a442923c5b4b57e7b99e69,,,,,,,,,,,,,6,"[""6""]",1,[3.3837000000477246],"[4.586000000000013,1.8504000000953056,3.2503999998569952,2.16700000000003,4.22010000014302,1.9505000000000337,1.433499999999981,2.7835999999045953,3.3837000000477246]",0,8,8,6,1,Practice,7,(25/5) + 1,6,,,,,,,,,,,,,,,,,,,,,,,,,,,,,,,,,,,,,,,,,,,,,,,,,,,,,,,,,,,,,,,,,,,,,,,,,,,
,,,,,,,,,,,,5e2d7770d70e4e367b8a6498,22,Mężczyzna,2022-06-11_09h29.26.951,task,2021.1.4,Win32,59.98440405,6299f149e92ead563fba08ef,62a442923c5b4b57e7b99e69,,,,,,,,,,,,,3,"[""3""]",1,[1.8837999999523163],"[4.586000000000013,1.8504000000953056,3.2503999998569952,2.16700000000003,4.22010000014302,1.9505000000000337,1.433499999999981,2.7835999999045953,3.3837000000477246,1.8837999999523163]",0,9,9,3,1,Practice,4,(8/4) + 1,3,,,,,,,,,,,,,,,,,,,,,,,,,,,,,,,,,,,,,,,,,,,,,,,,,,,,,,,,,,,,,,,,,,,,,,,,,,,
,,,,,,,,,,,,5e2d7770d70e4e367b8a6498,22,Mężczyzna,2022-06-11_09h29.26.951,task,2021.1.4,Win32,59.98440405,6299f149e92ead563fba08ef,62a442923c5b4b57e7b99e69,,,,,,,,,,,,,,,,,,,,,,,,,,,0.9,27.509,1.833933333,18.8653095,1.121466584,4.727317121,space,1.3497,0,0,0,0,1,,,,,,,,,,,,,,,,,,,,,,,,,,,,,,,,,,,,,,,,,,,,,,,,,,,,,,,,,,,,,,
,,,,,,,,,,,,5e2d7770d70e4e367b8a6498,22,Mężczyzna,2022-06-11_09h29.26.951,task,2021.1.4,Win32,59.98440405,6299f149e92ead563fba08ef,62a442923c5b4b57e7b99e69,,,,,,,,,,,,,5,,,,,,,,,,Practice,6,(4/2) + 3,5,,,,,,,,,,,,,,space,13.6694,"[""5""]",1,[2.0310000000000628],1,0,0,0,5,1,,,,,,,,,,,,,,,,,,,,,,,,,,,,,,,,,,,,,,,,,,,,,,,,,,,
,,,,,,,,,,,X V Q F H G B L J M P D K C T S W R N Z,5e2d7770d70e4e367b8a6498,22,Mężczyzna,2022-06-11_09h29.26.951,task,2021.1.4,Win32,59.98440405,6299f149e92ead563fba08ef,62a442923c5b4b57e7b99e69,,,,,,,,,,,,,,,,,,,,,,,,,,,,,,,,,,,,,,,,,,,,,,,,,,,0,0,0,0,1,,,,,,,,,,,,,,,,,,,,,,,,,,,,,,,,,,,,,,,,,,,,,,
,,,,,,,,,,,,5e2d7770d70e4e367b8a6498,22,Mężczyzna,2022-06-11_09h29.26.951,task,2021.1.4,Win32,59.98440405,6299f149e92ead563fba08ef,62a442923c5b4b57e7b99e69,,,,,,,,,,,,,5,,,,,,,,,,Practice,6,(4/2) + 3,5,,,,,,,,,,,,,,,,"[""5""]",1,[4.1653000001907685],1,0,0,0,5,1,,,,,,,,,,,,,,,,,,,,,,,,,,,,,,,,,,,,,,,,,,,,,,,,,,,
,,,,,,,,,,,X V Q F H G B L J M P D K C T S W R N Z,5e2d7770d70e4e367b8a6498,22,Mężczyzna,2022-06-11_09h29.26.951,task,2021.1.4,Win32,59.98440405,6299f149e92ead563fba08ef,62a442923c5b4b57e7b99e69,,,,,,,,,,,,,,,,,,,,,,,,,,,,,,,,,,,,,,,,,,,,,,,,,,,1,0,1,0,1,,,,,,,,,,,,,,,,,,,,,,,,,,,,,,,,,,,,,,,,,,,,,,
,,,,,,,,,,,,5e2d7770d70e4e367b8a6498,22,Mężczyzna,2022-06-11_09h29.26.951,task,2021.1.4,Win32,59.98440405,6299f149e92ead563fba08ef,62a442923c5b4b57e7b99e69,,,,,,,,,,,,,,,,,,,,,,,,,,,,,,,,,,,,,,,,,,,,,,,,,,,,,,,,zt,"[""z"",""t""]",0,"[1.866099999904577,2.267500000000041,3.0821999998092906]",1,0,0,0,0,1,,,,,,,,,,,,,,,,,,,,,,,,,,,,,,,,,,,,
,,,,,,,,,,,,5e2d7770d70e4e367b8a6498,22,Mężczyzna,2022-06-11_09h29.26.951,task,2021.1.4,Win32,59.98440405,6299f149e92ead563fba08ef,62a442923c5b4b57e7b99e69,,,,,,,,,,,,,1,,,,,,,,,,Practice,2,(4x4) - 15,1,,,,,,,,,,,,,,,,"[""1""]",1,[1.9832999999522372],1,0,0,0,1,1,,,,,,,,,,,,,,,,,,,,,,,,,,,,,,,,,,,,,,,,,,,,,,,,,,,
,,,,,,,,,,,X V Q F H G B L J M P D K C T S W R N Z,5e2d7770d70e4e367b8a6498,22,Mężczyzna,2022-06-11_09h29.26.951,task,2021.1.4,Win32,59.98440405,6299f149e92ead563fba08ef,62a442923c5b4b57e7b99e69,,,,,,,,,,,,,,,,,,,,,,,,,,,,,,,,,,,,,,,,,,,,,,,,,,,0,0,0,0,1,,,,,,,,,,,,,,,,,,,,,,,,,,,,,,,,,,,,,,,,,,,,,,
,,,,,,,,,,,,5e2d7770d70e4e367b8a6498,22,Mężczyzna,2022-06-11_09h29.26.951,task,2021.1.4,Win32,59.98440405,6299f149e92ead563fba08ef,62a442923c5b4b57e7b99e69,,,,,,,,,,,,,3,,,,,,,,,,Practice,4,(8/4) + 1,3,,,,,,,,,,,,,,,,"[""3""]",1,[1.766999999999939],1,0,0,0,3,1,,,,,,,,,,,,,,,,,,,,,,,,,,,,,,,,,,,,,,,,,,,,,,,,,,,
,,,,,,,,,,,X V Q F H G B L J M P D K C T S W R N Z,5e2d7770d70e4e367b8a6498,22,Mężczyzna,2022-06-11_09h29.26.951,task,2021.1.4,Win32,59.98440405,6299f149e92ead563fba08ef,62a442923c5b4b57e7b99e69,,,,,,,,,,,,,,,,,,,,,,,,,,,,,,,,,,,,,,,,,,,,,,,,,,,1,0,1,0,1,,,,,,,,,,,,,,,,,,,,,,,,,,,,,,,,,,,,,,,,,,,,,,
,,,,,,,,,,,,5e2d7770d70e4e367b8a6498,22,Mężczyzna,2022-06-11_09h29.26.951,task,2021.1.4,Win32,59.98440405,6299f149e92ead563fba08ef,62a442923c5b4b57e7b99e69,,,,,,,,,,,,,,,,,,,,,,,,,,,,,,,,,,,,,,,,,,,,,,,,,,,,,,,,bp,"[""b"",""p""]",0,"[1.6319999999999482,1.79879999995228,2.486699999809275]",1,1,0,1,0,1,,,,,,,,,,,,,,,,,,,,,,,,,,,,,,,,,,,,
,,,,,,,,,,,,5e2d7770d70e4e367b8a6498,22,Mężczyzna,2022-06-11_09h29.26.951,task,2021.1.4,Win32,59.98440405,6299f149e92ead563fba08ef,62a442923c5b4b57e7b99e69,,,,,,,,,,,,,6,,,,,,,,,,Practice,7,(25/5) + 1,6,,,,,,,,,,,,,,,,"[""6""]",1,[3.2835000000000036],1,0,0,0,6,1,,,,,,,,,,,,,,,,,,,,,,,,,,,,,,,,,,,,,,,,,,,,,,,,,,,
,,,,,,,,,,,X V Q F H G B L J M P D K C T S W R N Z,5e2d7770d70e4e367b8a6498,22,Mężczyzna,2022-06-11_09h29.26.951,task,2021.1.4,Win32,59.98440405,6299f149e92ead563fba08ef,62a442923c5b4b57e7b99e69,,,,,,,,,,,,,,,,,,,,,,,,,,,,,,,,,,,,,,,,,,,,,,,,,,,0,0,0,0,1,,,,,,,,,,,,,,,,,,,,,,,,,,,,,,,,,,,,,,,,,,,,,,
,,,,,,,,,,,,5e2d7770d70e4e367b8a6498,22,Mężczyzna,2022-06-11_09h29.26.951,task,2021.1.4,Win32,59.98440405,6299f149e92ead563fba08ef,62a442923c5b4b57e7b99e69,,,,,,,,,,,,,0,,,,,,,,,,Practice,1,(3x3) -  9,0,,,,,,,,,,,,,,,,"[""0""]",1,[1.866700000047672],1,0,0,0,0,1,,,,,,,,,,,,,,,,,,,,,,,,,,,,,,,,,,,,,,,,,,,,,,,,,,,
,,,,,,,,,,,X V Q F H G B L J M P D K C T S W R N Z,5e2d7770d70e4e367b8a6498,22,Mężczyzna,2022-06-11_09h29.26.951,task,2021.1.4,Win32,59.98440405,6299f149e92ead563fba08ef,62a442923c5b4b57e7b99e69,,,,,,,,,,,,,,,,,,,,,,,,,,,,,,,,,,,,,,,,,,,,,,,,,,,1,0,1,0,1,,,,,,,,,,,,,,,,,,,,,,,,,,,,,,,,,,,,,,,,,,,,,,
,,,,,,,,,,,,5e2d7770d70e4e367b8a6498,22,Mężczyzna,2022-06-11_09h29.26.951,task,2021.1.4,Win32,59.98440405,6299f149e92ead563fba08ef,62a442923c5b4b57e7b99e69,,,,,,,,,,,,,,,,,,,,,,,,,,,,,,,,,,,,,,,,,,,,,,,,,,,,,,,,kr,"[""k"",""r""]",0,"[1.1003999998569043,1.2672000000476373,1.6838999998569761]",1,2,0,2,0,1,,,,,,,,,,,,,,,,,,,,,,,,,,,,,,,,,,,,
,,,,,,,,,,,,5e2d7770d70e4e367b8a6498,22,Mężczyzna,2022-06-11_09h29.26.951,task,2021.1.4,Win32,59.98440405,6299f149e92ead563fba08ef,62a442923c5b4b57e7b99e69,,,,,,,,,,,,,7,,,,,,,,,,Task,14,(2x2) + 3,7,,,,,,,,,,,,,,,,,,,1,,,,,,,,,,,,,,,,,,,,,space,47.3345,"[""7""]",1,[2.383100000143031],0,0,0,13,1,,,,,,,,,,,,,,,,,,,,,,,,,,
,,,,,,,,,,,X V Q F H G B L J M P D K C T S W R N Z,5e2d7770d70e4e367b8a6498,22,Mężczyzna,2022-06-11_09h29.26.951,task,2021.1.4,Win32,59.98440405,6299f149e92ead563fba08ef,62a442923c5b4b57e7b99e69,,,,,,,,,,,,,,,,,,,,,,,,,,,,,,,,,,,,,,,,,,,,,,,,,,,,,,,,,,,,,,,,,,,,,,,,,,,,0,0,0,0,1,,,,,,,,,,,,,,,,,,,,,
,,,,,,,,,,,,5e2d7770d70e4e367b8a6498,22,Mężczyzna,2022-06-11_09h29.26.951,task,2021.1.4,Win32,59.98440405,6299f149e92ead563fba08ef,62a442923c5b4b57e7b99e69,,,,,,,,,,,,,1,,,,,,,,,,Task,1,(12/6) - 1,1,,,,,,,,,,,,,,,,,,,1,,,,,,,,,,,,,,,,,,,,,,,"[""1""]",1,[2.0485999999046953],0,0,0,0,1,,,,,,,,,,,,,,,,,,,,,,,,,,
,,,,,,,,,,,X V Q F H G B L J M P D K C T S W R N Z,5e2d7770d70e4e367b8a6498,22,Mężczyzna,2022-06-11_09h29.26.951,task,2021.1.4,Win32,59.98440405,6299f149e92ead563fba08ef,62a442923c5b4b57e7b99e69,,,,,,,,,,,,,,,,,,,,,,,,,,,,,,,,,,,,,,,,,,,,,,,,,,,,,,,,,,,,,,,,,,,,,,,,,,,,1,0,1,0,1,,,,,,,,,,,,,,,,,,,,,
,,,,,,,,,,,,5e2d7770d70e4e367b8a6498,22,Mężczyzna,2022-06-11_09h29.26.951,task,2021.1.4,Win32,59.98440405,6299f149e92ead563fba08ef,62a442923c5b4b57e7b99e69,,,,,,,,,,,,,,,,,,,,,,,,,,,,,,,,,,,,,,,,,,,,,,,,,,,,,,,,,,,,,,,,,,,,,,,,,,,,,,,,,zt,"[""z"",""t""]",0,"[1.1320000000000618,1.5007999999523918,1.767500000000041]",1,ZT,0,0,0,0,1,,,,,,,,,,
,,,,,,,,,,,,5e2d7770d70e4e367b8a6498,22,Mężczyzna,2022-06-11_09h29.26.951,task,2021.1.4,Win32,59.98440405,6299f149e92ead563fba08ef,62a442923c5b4b57e7b99e69,,,,,,,,,,,,,8,,,,,,,,,,Task,32,(8/2) + 4,8,,,,,,,,,,,,,,,,,,,1,,,,,,,,,,,,,,,,,,,,,,,"[""8""]",1,[3.4502000000477437],0,0,0,31,1,,,,,,,,,,,,,,,,,,,,,,,,,,
,,,,,,,,,,,X V Q F H G B L J M P D K C T S W R N Z,5e2d7770d70e4e367b8a6498,22,Mężczyzna,2022-06-11_09h29.26.951,task,2021.1.4,Win32,59.98440405,6299f149e92ead563fba08ef,62a442923c5b4b57e7b99e69,,,,,,,,,,,,,,,,,,,,,,,,,,,,,,,,,,,,,,,,,,,,,,,,,,,,,,,,,,,,,,,,,,,,,,,,,,,,0,0,0,0,1,,,,,,,,,,,,,,,,,,,,,
,,,,,,,,,,,,5e2d7770d70e4e367b8a6498,22,Mężczyzna,2022-06-11_09h29.26.951,task,2021.1.4,Win32,59.98440405,6299f149e92ead563fba08ef,62a442923c5b4b57e7b99e69,,,,,,,,,,,,,6,,,,,,,,,,Task,37,(3/3) + 5,6,,,,,,,,,,,,,,,,,,,1,,,,,,,,,,,,,,,,,,,,,,,"[""6""]",1,[2.5314000000953456],0,0,0,36,1,,,,,,,,,,,,,,,,,,,,,,,,,,
,,,,,,,,,,,X V Q F H G B L J M P D K C T S W R N Z,5e2d7770d70e4e367b8a6498,22,Mężczyzna,2022-06-11_09h29.26.951,task,2021.1.4,Win32,59.98440405,6299f149e92ead563fba08ef,62a442923c5b4b57e7b99e69,,,,,,,,,,,,,,,,,,,,,,,,,,,,,,,,,,,,,,,,,,,,,,,,,,,,,,,,,,,,,,,,,,,,,,,,,,,,1,0,1,0,1,,,,,,,,,,,,,,,,,,,,,
,,,,,,,,,,,,5e2d7770d70e4e367b8a6498,22,Mężczyzna,2022-06-11_09h29.26.951,task,2021.1.4,Win32,59.98440405,6299f149e92ead563fba08ef,62a442923c5b4b57e7b99e69,,,,,,,,,,,,,8,,,,,,,,,,Task,15,(3x7) - 13,8,,,,,,,,,,,,,,,,,,,1,,,,,,,,,,,,,,,,,,,,,,,"[""8""]",1,[3.233400000095344],0,0,0,14,1,,,,,,,,,,,,,,,,,,,,,,,,,,
,,,,,,,,,,,X V Q F H G B L J M P D K C T S W R N Z,5e2d7770d70e4e367b8a6498,22,Mężczyzna,2022-06-11_09h29.26.951,task,2021.1.4,Win32,59.98440405,6299f149e92ead563fba08ef,62a442923c5b4b57e7b99e69,,,,,,,,,,,,,,,,,,,,,,,,,,,,,,,,,,,,,,,,,,,,,,,,,,,,,,,,,,,,,,,,,,,,,,,,,,,,2,0,2,0,1,,,,,,,,,,,,,,,,,,,,,
,,,,,,,,,,,,5e2d7770d70e4e367b8a6498,22,Mężczyzna,2022-06-11_09h29.26.951,task,2021.1.4,Win32,59.98440405,6299f149e92ead563fba08ef,62a442923c5b4b57e7b99e69,,,,,,,,,,,,,,,,,,,,,,,,,,,,,,,,,,,,,,,,,,,,,,,,,,,,,,,,,,,,,,,,,,,,,,,,,,,,,,,,,frr,"[""f"",""r"",""r""]",0,"[0.9518999998570052,1.1838999998569761,1.3485999999046498,1.6818999998569097]",1,FRR,1,0,1,0,1,,,,,,,,,,
,,,,,,,,,,,,5e2d7770d70e4e367b8a6498,22,Mężczyzna,2022-06-11_09h29.26.951,task,2021.1.4,Win32,59.98440405,6299f149e92ead563fba08ef,62a442923c5b4b57e7b99e69,,,,,,,,,,,,,3,,,,,,,,,,Task,27,(3/3) + 2,3,,,,,,,,,,,,,,,,,,,1,,,,,,,,,,,,,,,,,,,,,,,"[""3""]",1,[1.931900000095311],0,0,0,26,1,,,,,,,,,,,,,,,,,,,,,,,,,,
,,,,,,,,,,,X V Q F H G B L J M P D K C T S W R N Z,5e2d7770d70e4e367b8a6498,22,Mężczyzna,2022-06-11_09h29.26.951,task,2021.1.4,Win32,59.98440405,6299f149e92ead563fba08ef,62a442923c5b4b57e7b99e69,,,,,,,,,,,,,,,,,,,,,,,,,,,,,,,,,,,,,,,,,,,,,,,,,,,,,,,,,,,,,,,,,,,,,,,,,,,,0,0,0,0,1,,,,,,,,,,,,,,,,,,,,,
,,,,,,,,,,,,5e2d7770d70e4e367b8a6498,22,Mężczyzna,2022-06-11_09h29.26.951,task,2021.1.4,Win32,59.98440405,6299f149e92ead563fba08ef,62a442923c5b4b57e7b99e69,,,,,,,,,,,,,8,,,,,,,,,,Task,15,(3x7) - 13,8,,,,,,,,,,,,,,,,,,,1,,,,,,,,,,,,,,,,,,,,,,,"[""8""]",1,[2.1981000001430857],0,0,0,14,1,,,,,,,,,,,,,,,,,,,,,,,,,,
,,,,,,,,,,,X V Q F H G B L J M P D K C T S W R N Z,5e2d7770d70e4e367b8a6498,22,Mężczyzna,2022-06-11_09h29.26.951,task,2021.1.4,Win32,59.98440405,6299f149e92ead563fba08ef,62a442923c5b4b57e7b99e69,,,,,,,,,,,,,,,,,,,,,,,,,,,,,,,,,,,,,,,,,,,,,,,,,,,,,,,,,,,,,,,,,,,,,,,,,,,,1,0,1,0,1,,,,,,,,,,,,,,,,,,,,,
,,,,,,,,,,,,5e2d7770d70e4e367b8a6498,22,Mężczyzna,2022-06-11_09h29.26.951,task,2021.1.4,Win32,59.98440405,6299f149e92ead563fba08ef,62a442923c5b4b57e7b99e69,,,,,,,,,,,,,1,,,,,,,,,,Task,34,(9/3) - 2,1,,,,,,,,,,,,,,,,,,,1,,,,,,,,,,,,,,,,,,,,,,,"[""1""]",1,[1.5985000000000582],0,0,0,33,1,,,,,,,,,,,,,,,,,,,,,,,,,,
,,,,,,,,,,,X V Q F H G B L J M P D K C T S W R N Z,5e2d7770d70e4e367b8a6498,22,Mężczyzna,2022-06-11_09h29.26.951,task,2021.1.4,Win32,59.98440405,6299f149e92ead563fba08ef,62a442923c5b4b57e7b99e69,,,,,,,,,,,,,,,,,,,,,,,,,,,,,,,,,,,,,,,,,,,,,,,,,,,,,,,,,,,,,,,,,,,,,,,,,,,,2,0,2,0,1,,,,,,,,,,,,,,,,,,,,,
,,,,,,,,,,,,5e2d7770d70e4e367b8a6498,22,Mężczyzna,2022-06-11_09h29.26.951,task,2021.1.4,Win32,59.98440405,6299f149e92ead563fba08ef,62a442923c5b4b57e7b99e69,,,,,,,,,,,,,,,,,,,,,,,Task,40,(7x2) - 5,9,,,,,,,,,,,,,,,,,,,0,,,,,,,,,,,,,,,,,,,,,,,,0,,0,0,0,39,1,,,,,,,,,,,,,,,,,,,,,,,,,,
,,,,,,,,,,,,5e2d7770d70e4e367b8a6498,22,Mężczyzna,2022-06-11_09h29.26.951,task,2021.1.4,Win32,59.98440405,6299f149e92ead563fba08ef,62a442923c5b4b57e7b99e69,,,,,,,,,,,,,1,,,,,,,,,,Task,9,(3x7) - 20,1,,,,,,,,,,,,,,,,,,,1,,,,,,,,,,,,,,,,,,,,,,,"[""1""]",1,[2.569199999809257],0,1,1,8,1,,,,,,,,,,,,,,,,,,,,,,,,,,
,,,,,,,,,,,X V Q F H G B L J M P D K C T S W R N Z,5e2d7770d70e4e367b8a6498,22,Mężczyzna,2022-06-11_09h29.26.951,task,2021.1.4,Win32,59.98440405,6299f149e92ead563fba08ef,62a442923c5b4b57e7b99e69,,,,,,,,,,,,,,,,,,,,,,,,,,,,,,,,,,,,,,,,,,,,,,,,,,,,,,,,,,,,,,,,,,,,,,,,,,,,3,0,3,0,1,,,,,,,,,,,,,,,,,,,,,
,,,,,,,,,,,,5e2d7770d70e4e367b8a6498,22,Mężczyzna,2022-06-11_09h29.26.951,task,2021.1.4,Win32,59.98440405,6299f149e92ead563fba08ef,62a442923c5b4b57e7b99e69,,,,,,,,,,,,,,,,,,,,,,,,,,,,,,,,,,,,,,,,,,,,,,,,,,,,,,,,,,,,,,,,,,,,,,,,,,,,,,,,,pgrp,"[""p"",""g"",""r"",""p""]",0,"[1.0151999998092833,1.1693999998568643,1.2819999999999254,1.4986999998092188,1.9154999999999518]",1,PGRP,2,0,2,0,1,,,,,,,,,,
,,,,,,,,,,,,5e2d7770d70e4e367b8a6498,22,Mężczyzna,2022-06-11_09h29.26.951,task,2021.1.4,Win32,59.98440405,6299f149e92ead563fba08ef,62a442923c5b4b57e7b99e69,,,,,,,,,,,,,3,,,,,,,,,,Task,3,(2x3) - 3,3,,,,,,,,,,,,,,,,,,,1,,,,,,,,,,,,,,,,,,,,,,,"[""3""]",1,[3.0185000000000173],0,0,0,2,1,,,,,,,,,,,,,,,,,,,,,,,,,,
,,,,,,,,,,,X V Q F H G B L J M P D K C T S W R N Z,5e2d7770d70e4e367b8a6498,22,Mężczyzna,2022-06-11_09h29.26.951,task,2021.1.4,Win32,59.98440405,6299f149e92ead563fba08ef,62a442923c5b4b57e7b99e69,,,,,,,,,,,,,,,,,,,,,,,,,,,,,,,,,,,,,,,,,,,,,,,,,,,,,,,,,,,,,,,,,,,,,,,,,,,,0,0,0,0,1,,,,,,,,,,,,,,,,,,,,,
,,,,,,,,,,,,5e2d7770d70e4e367b8a6498,22,Mężczyzna,2022-06-11_09h29.26.951,task,2021.1.4,Win32,59.98440405,6299f149e92ead563fba08ef,62a442923c5b4b57e7b99e69,,,,,,,,,,,,,4,,,,,,,,,,Task,28,(2x5) - 6,4,,,,,,,,,,,,,,,,,,,1,,,,,,,,,,,,,,,,,,,,,,,"[""4""]",1,[2.183499999999981],0,0,0,27,1,,,,,,,,,,,,,,,,,,,,,,,,,,
,,,,,,,,,,,X V Q F H G B L J M P D K C T S W R N Z,5e2d7770d70e4e367b8a6498,22,Mężczyzna,2022-06-11_09h29.26.951,task,2021.1.4,Win32,59.98440405,6299f149e92ead563fba08ef,62a442923c5b4b57e7b99e69,,,,,,,,,,,,,,,,,,,,,,,,,,,,,,,,,,,,,,,,,,,,,,,,,,,,,,,,,,,,,,,,,,,,,,,,,,,,1,0,1,0,1,,,,,,,,,,,,,,,,,,,,,
,,,,,,,,,,,,5e2d7770d70e4e367b8a6498,22,Mężczyzna,2022-06-11_09h29.26.951,task,2021.1.4,Win32,59.98440405,6299f149e92ead563fba08ef,62a442923c5b4b57e7b99e69,,,,,,,,,,,,,7,,,,,,,,,,Task,31,(4/2) + 5,7,,,,,,,,,,,,,,,,,,,1,,,,,,,,,,,,,,,,,,,,,,,"[""7""]",1,[2.198100000142972],0,0,0,30,1,,,,,,,,,,,,,,,,,,,,,,,,,,
,,,,,,,,,,,X V Q F H G B L J M P D K C T S W R N Z,5e2d7770d70e4e367b8a6498,22,Mężczyzna,2022-06-11_09h29.26.951,task,2021.1.4,Win32,59.98440405,6299f149e92ead563fba08ef,62a442923c5b4b57e7b99e69,,,,,,,,,,,,,,,,,,,,,,,,,,,,,,,,,,,,,,,,,,,,,,,,,,,,,,,,,,,,,,,,,,,,,,,,,,,,2,0,2,0,1,,,,,,,,,,,,,,,,,,,,,
,,,,,,,,,,,,5e2d7770d70e4e367b8a6498,22,Mężczyzna,2022-06-11_09h29.26.951,task,2021.1.4,Win32,59.98440405,6299f149e92ead563fba08ef,62a442923c5b4b57e7b99e69,,,,,,,,,,,,,9,,,,,,,,,,Task,7,(3x7) - 12,9,,,,,,,,,,,,,,,,,,,1,,,,,,,,,,,,,,,,,,,,,,,"[""9""]",1,[2.6170999999045534],0,0,0,6,1,,,,,,,,,,,,,,,,,,,,,,,,,,
,,,,,,,,,,,X V Q F H G B L J M P D K C T S W R N Z,5e2d7770d70e4e367b8a6498,22,Mężczyzna,2022-06-11_09h29.26.951,task,2021.1.4,Win32,59.98440405,6299f149e92ead563fba08ef,62a442923c5b4b57e7b99e69,,,,,,,,,,,,,,,,,,,,,,,,,,,,,,,,,,,,,,,,,,,,,,,,,,,,,,,,,,,,,,,,,,,,,,,,,,,,3,0,3,0,1,,,,,,,,,,,,,,,,,,,,,
,,,,,,,,,,,,5e2d7770d70e4e367b8a6498,22,Mężczyzna,2022-06-11_09h29.26.951,task,2021.1.4,Win32,59.98440405,6299f149e92ead563fba08ef,62a442923c5b4b57e7b99e69,,,,,,,,,,,,,2,,,,,,,,,,Task,2,(2x2) - 2,2,,,,,,,,,,,,,,,,,,,1,,,,,,,,,,,,,,,,,,,,,,,"[""2""]",1,[1.3335999999046635],0,0,0,1,1,,,,,,,,,,,,,,,,,,,,,,,,,,
,,,,,,,,,,,X V Q F H G B L J M P D K C T S W R N Z,5e2d7770d70e4e367b8a6498,22,Mężczyzna,2022-06-11_09h29.26.951,task,2021.1.4,Win32,59.98440405,6299f149e92ead563fba08ef,62a442923c5b4b57e7b99e69,,,,,,,,,,,,,,,,,,,,,,,,,,,,,,,,,,,,,,,,,,,,,,,,,,,,,,,,,,,,,,,,,,,,,,,,,,,,4,0,4,0,1,,,,,,,,,,,,,,,,,,,,,
,,,,,,,,,,,,5e2d7770d70e4e367b8a6498,22,Mężczyzna,2022-06-11_09h29.26.951,task,2021.1.4,Win32,59.98440405,6299f149e92ead563fba08ef,62a442923c5b4b57e7b99e69,,,,,,,,,,,,,,,,,,,,,,,,,,,,,,,,,,,,,,,,,,,,,,,,,,,,,,,,,,,,,,,,,,,,,,,,,,,,,,,,,cjzks,"[""c"",""j"",""z"",""k"",""s""]",0,"[0.8677000000476482,1.0985999999046498,1.4357000000477456,1.7320999999046762,2.2152999999523217,2.6177000000476482]",1,CJZKS,3,0,3,0,1,,,,,,,,,,
,,,,,,,,,,,,5e2d7770d70e4e367b8a6498,22,Mężczyzna,2022-06-11_09h29.26.951,task,2021.1.4,Win32,59.98440405,6299f149e92ead563fba08ef,62a442923c5b4b57e7b99e69,,,,,,,,,,,,,6,,,,,,,,,,Task,30,(6/3) + 4 ,6,,,,,,,,,,,,,,,,,,,1,,,,,,,,,,,,,,,,,,,,,,,"[""6""]",1,[2.8174999999999955],0,0,0,29,1,,,,,,,,,,,,,,,,,,,,,,,,,,
,,,,,,,,,,,X V Q F H G B L J M P D K C T S W R N Z,5e2d7770d70e4e367b8a6498,22,Mężczyzna,2022-06-11_09h29.26.951,task,2021.1.4,Win32,59.98440405,6299f149e92ead563fba08ef,62a442923c5b4b57e7b99e69,,,,,,,,,,,,,,,,,,,,,,,,,,,,,,,,,,,,,,,,,,,,,,,,,,,,,,,,,,,,,,,,,,,,,,,,,,,,0,0,0,0,1,,,,,,,,,,,,,,,,,,,,,
,,,,,,,,,,,,5e2d7770d70e4e367b8a6498,22,Mężczyzna,2022-06-11_09h29.26.951,task,2021.1.4,Win32,59.98440405,6299f149e92ead563fba08ef,62a442923c5b4b57e7b99e69,,,,,,,,,,,,,1,,,,,,,,,,Task,1,(12/6) - 1,1,,,,,,,,,,,,,,,,,,,1,,,,,,,,,,,,,,,,,,,,,,,"[""1""]",1,[1.8351000001430293],0,0,0,0,1,,,,,,,,,,,,,,,,,,,,,,,,,,
,,,,,,,,,,,X V Q F H G B L J M P D K C T S W R N Z,5e2d7770d70e4e367b8a6498,22,Mężczyzna,2022-06-11_09h29.26.951,task,2021.1.4,Win32,59.98440405,6299f149e92ead563fba08ef,62a442923c5b4b57e7b99e69,,,,,,,,,,,,,,,,,,,,,,,,,,,,,,,,,,,,,,,,,,,,,,,,,,,,,,,,,,,,,,,,,,,,,,,,,,,,1,0,1,0,1,,,,,,,,,,,,,,,,,,,,,
,,,,,,,,,,,,5e2d7770d70e4e367b8a6498,22,Mężczyzna,2022-06-11_09h29.26.951,task,2021.1.4,Win32,59.98440405,6299f149e92ead563fba08ef,62a442923c5b4b57e7b99e69,,,,,,,,,,,,,0,,,,,,,,,,Task,8,(1x5) - 5,0,,,,,,,,,,,,,,,,,,,1,,,,,,,,,,,,,,,,,,,,,,,"[""0""]",1,[1.7814999999999372],0,0,0,7,1,,,,,,,,,,,,,,,,,,,,,,,,,,
,,,,,,,,,,,X V Q F H G B L J M P D K C T S W R N Z,5e2d7770d70e4e367b8a6498,22,Mężczyzna,2022-06-11_09h29.26.951,task,2021.1.4,Win32,59.98440405,6299f149e92ead563fba08ef,62a442923c5b4b57e7b99e69,,,,,,,,,,,,,,,,,,,,,,,,,,,,,,,,,,,,,,,,,,,,,,,,,,,,,,,,,,,,,,,,,,,,,,,,,,,,2,0,2,0,1,,,,,,,,,,,,,,,,,,,,,
,,,,,,,,,,,,5e2d7770d70e4e367b8a6498,22,Mężczyzna,2022-06-11_09h29.26.951,task,2021.1.4,Win32,59.98440405,6299f149e92ead563fba08ef,62a442923c5b4b57e7b99e69,,,,,,,,,,,,,4,,,,,,,,,,Task,28,(2x5) - 6,4,,,,,,,,,,,,,,,,,,,1,,,,,,,,,,,,,,,,,,,,,,,"[""4""]",1,[1.8483000001907612],0,0,0,27,1,,,,,,,,,,,,,,,,,,,,,,,,,,
,,,,,,,,,,,X V Q F H G B L J M P D K C T S W R N Z,5e2d7770d70e4e367b8a6498,22,Mężczyzna,2022-06-11_09h29.26.951,task,2021.1.4,Win32,59.98440405,6299f149e92ead563fba08ef,62a442923c5b4b57e7b99e69,,,,,,,,,,,,,,,,,,,,,,,,,,,,,,,,,,,,,,,,,,,,,,,,,,,,,,,,,,,,,,,,,,,,,,,,,,,,3,0,3,0,1,,,,,,,,,,,,,,,,,,,,,
,,,,,,,,,,,,5e2d7770d70e4e367b8a6498,22,Mężczyzna,2022-06-11_09h29.26.951,task,2021.1.4,Win32,59.98440405,6299f149e92ead563fba08ef,62a442923c5b4b57e7b99e69,,,,,,,,,,,,,7,,,,,,,,,,Task,38,(4x6) - 17,7,,,,,,,,,,,,,,,,,,,1,,,,,,,,,,,,,,,,,,,,,,,"[""7""]",1,[3.665499999999952],0,0,0,37,1,,,,,,,,,,,,,,,,,,,,,,,,,,
,,,,,,,,,,,X V Q F H G B L J M P D K C T S W R N Z,5e2d7770d70e4e367b8a6498,22,Mężczyzna,2022-06-11_09h29.26.951,task,2021.1.4,Win32,59.98440405,6299f149e92ead563fba08ef,62a442923c5b4b57e7b99e69,,,,,,,,,,,,,,,,,,,,,,,,,,,,,,,,,,,,,,,,,,,,,,,,,,,,,,,,,,,,,,,,,,,,,,,,,,,,4,0,4,0,1,,,,,,,,,,,,,,,,,,,,,
,,,,,,,,,,,,5e2d7770d70e4e367b8a6498,22,Mężczyzna,2022-06-11_09h29.26.951,task,2021.1.4,Win32,59.98440405,6299f149e92ead563fba08ef,62a442923c5b4b57e7b99e69,,,,,,,,,,,,,0,,,,,,,,,,Task,17,(2x3) - 6,0,,,,,,,,,,,,,,,,,,,1,,,,,,,,,,,,,,,,,,,,,,,"[""0""]",1,[1.7002000000477437],0,0,0,16,1,,,,,,,,,,,,,,,,,,,,,,,,,,
,,,,,,,,,,,X V Q F H G B L J M P D K C T S W R N Z,5e2d7770d70e4e367b8a6498,22,Mężczyzna,2022-06-11_09h29.26.951,task,2021.1.4,Win32,59.98440405,6299f149e92ead563fba08ef,62a442923c5b4b57e7b99e69,,,,,,,,,,,,,,,,,,,,,,,,,,,,,,,,,,,,,,,,,,,,,,,,,,,,,,,,,,,,,,,,,,,,,,,,,,,,5,0,5,0,1,,,,,,,,,,,,,,,,,,,,,
,,,,,,,,,,,,5e2d7770d70e4e367b8a6498,22,Mężczyzna,2022-06-11_09h29.26.951,task,2021.1.4,Win32,59.98440405,6299f149e92ead563fba08ef,62a442923c5b4b57e7b99e69,,,,,,,,,,,,,,,,,,,,,,,,,,,,,,,,,,,,,,,,,,,,,,,,,,,,,,,,,,,,,,,,,,,,,,,,,,,,,,,,,fnqzdb,"[""f"",""n"",""q"",""z"",""d"",""b""]",0,"[1.3379999999999654,1.8652000000475937,2.234099999904629,2.601799999952277,3.0017999999522544,3.5537000000476837,4.03420000004769]",1,FNQZDB,4,0,4,0,1,,,,,,,,,,
,,,,,,,,,,,,5e2d7770d70e4e367b8a6498,22,Mężczyzna,2022-06-11_09h29.26.951,task,2021.1.4,Win32,59.98440405,6299f149e92ead563fba08ef,62a442923c5b4b57e7b99e69,,,,,,,,,,,,,1,,,,,,,,,,Task,1,(12/6) - 1,1,,,,,,,,,,,,,,,,,,,1,,,,,,,,,,,,,,,,,,,,,,,"[""1""]",1,[2.9834999999999354],0,0,0,0,1,,,,,,,,,,,,,,,,,,,,,,,,,,
,,,,,,,,,,,X V Q F H G B L J M P D K C T S W R N Z,5e2d7770d70e4e367b8a6498,22,Mężczyzna,2022-06-11_09h29.26.951,task,2021.1.4,Win32,59.98440405,6299f149e92ead563fba08ef,62a442923c5b4b57e7b99e69,,,,,,,,,,,,,,,,,,,,,,,,,,,,,,,,,,,,,,,,,,,,,,,,,,,,,,,,,,,,,,,,,,,,,,,,,,,,0,0,0,0,1,,,,,,,,,,,,,,,,,,,,,
,,,,,,,,,,,,5e2d7770d70e4e367b8a6498,22,Mężczyzna,2022-06-11_09h29.26.951,task,2021.1.4,Win32,59.98440405,6299f149e92ead563fba08ef,62a442923c5b4b57e7b99e69,,,,,,,,,,,,,8,,,,,,,,,,Task,39,(5x3) - 7,8,,,,,,,,,,,,,,,,,,,1,,,,,,,,,,,,,,,,,,,,,,,"[""8""]",1,[1.6828999998569998],0,0,0,38,1,,,,,,,,,,,,,,,,,,,,,,,,,,
,,,,,,,,,,,X V Q F H G B L J M P D K C T S W R N Z,5e2d7770d70e4e367b8a6498,22,Mężczyzna,2022-06-11_09h29.26.951,task,2021.1.4,Win32,59.98440405,6299f149e92ead563fba08ef,62a442923c5b4b57e7b99e69,,,,,,,,,,,,,,,,,,,,,,,,,,,,,,,,,,,,,,,,,,,,,,,,,,,,,,,,,,,,,,,,,,,,,,,,,,,,1,0,1,0,1,,,,,,,,,,,,,,,,,,,,,
,,,,,,,,,,,,5e2d7770d70e4e367b8a6498,22,Mężczyzna,2022-06-11_09h29.26.951,task,2021.1.4,Win32,59.98440405,6299f149e92ead563fba08ef,62a442923c5b4b57e7b99e69,,,,,,,,,,,,,2,,,,,,,,,,Task,2,(2x2) - 2,2,,,,,,,,,,,,,,,,,,,1,,,,,,,,,,,,,,,,,,,,,,,"[""2""]",1,[1.2664999999999509],0,0,0,1,1,,,,,,,,,,,,,,,,,,,,,,,,,,
,,,,,,,,,,,X V Q F H G B L J M P D K C T S W R N Z,5e2d7770d70e4e367b8a6498,22,Mężczyzna,2022-06-11_09h29.26.951,task,2021.1.4,Win32,59.98440405,6299f149e92ead563fba08ef,62a442923c5b4b57e7b99e69,,,,,,,,,,,,,,,,,,,,,,,,,,,,,,,,,,,,,,,,,,,,,,,,,,,,,,,,,,,,,,,,,,,,,,,,,,,,2,0,2,0,1,,,,,,,,,,,,,,,,,,,,,
,,,,,,,,,,,,5e2d7770d70e4e367b8a6498,22,Mężczyzna,2022-06-11_09h29.26.951,task,2021.1.4,Win32,59.98440405,6299f149e92ead563fba08ef,62a442923c5b4b57e7b99e69,,,,,,,,,,,,,0,,,,,,,,,,Task,25,(10/5) - 2,0,,,,,,,,,,,,,,,,,,,1,,,,,,,,,,,,,,,,,,,,,,,"[""0""]",1,[2.035000000000082],0,0,0,24,1,,,,,,,,,,,,,,,,,,,,,,,,,,
,,,,,,,,,,,X V Q F H G B L J M P D K C T S W R N Z,5e2d7770d70e4e367b8a6498,22,Mężczyzna,2022-06-11_09h29.26.951,task,2021.1.4,Win32,59.98440405,6299f149e92ead563fba08ef,62a442923c5b4b57e7b99e69,,,,,,,,,,,,,,,,,,,,,,,,,,,,,,,,,,,,,,,,,,,,,,,,,,,,,,,,,,,,,,,,,,,,,,,,,,,,3,0,3,0,1,,,,,,,,,,,,,,,,,,,,,
,,,,,,,,,,,,5e2d7770d70e4e367b8a6498,22,Mężczyzna,2022-06-11_09h29.26.951,task,2021.1.4,Win32,59.98440405,6299f149e92ead563fba08ef,62a442923c5b4b57e7b99e69,,,,,,,,,,,,,1,,,,,,,,,,Task,18,(16/4) - 3,1,,,,,,,,,,,,,,,,,,,1,,,,,,,,,,,,,,,,,,,,,,,"[""1""]",1,[2.4667999999521726],0,0,0,17,1,,,,,,,,,,,,,,,,,,,,,,,,,,
,,,,,,,,,,,X V Q F H G B L J M P D K C T S W R N Z,5e2d7770d70e4e367b8a6498,22,Mężczyzna,2022-06-11_09h29.26.951,task,2021.1.4,Win32,59.98440405,6299f149e92ead563fba08ef,62a442923c5b4b57e7b99e69,,,,,,,,,,,,,,,,,,,,,,,,,,,,,,,,,,,,,,,,,,,,,,,,,,,,,,,,,,,,,,,,,,,,,,,,,,,,4,0,4,0,1,,,,,,,,,,,,,,,,,,,,,
,,,,,,,,,,,,5e2d7770d70e4e367b8a6498,22,Mężczyzna,2022-06-11_09h29.26.951,task,2021.1.4,Win32,59.98440405,6299f149e92ead563fba08ef,62a442923c5b4b57e7b99e69,,,,,,,,,,,,,8,,,,,,,,,,Task,32,(8/2) + 4,8,,,,,,,,,,,,,,,,,,,1,,,,,,,,,,,,,,,,,,,,,,,"[""8""]",1,[3.2350000000001273],0,0,0,31,1,,,,,,,,,,,,,,,,,,,,,,,,,,
,,,,,,,,,,,X V Q F H G B L J M P D K C T S W R N Z,5e2d7770d70e4e367b8a6498,22,Mężczyzna,2022-06-11_09h29.26.951,task,2021.1.4,Win32,59.98440405,6299f149e92ead563fba08ef,62a442923c5b4b57e7b99e69,,,,,,,,,,,,,,,,,,,,,,,,,,,,,,,,,,,,,,,,,,,,,,,,,,,,,,,,,,,,,,,,,,,,,,,,,,,,5,0,5,0,1,,,,,,,,,,,,,,,,,,,,,
,,,,,,,,,,,,5e2d7770d70e4e367b8a6498,22,Mężczyzna,2022-06-11_09h29.26.951,task,2021.1.4,Win32,59.98440405,6299f149e92ead563fba08ef,62a442923c5b4b57e7b99e69,,,,,,,,,,,,,4,,,,,,,,,,Task,11,(18/3) - 2,4,,,,,,,,,,,,,,,,,,,1,,,,,,,,,,,,,,,,,,,,,,,"[""4""]",1,[3.2649000000953947],0,0,0,10,1,,,,,,,,,,,,,,,,,,,,,,,,,,
,,,,,,,,,,,X V Q F H G B L J M P D K C T S W R N Z,5e2d7770d70e4e367b8a6498,22,Mężczyzna,2022-06-11_09h29.26.951,task,2021.1.4,Win32,59.98440405,6299f149e92ead563fba08ef,62a442923c5b4b57e7b99e69,,,,,,,,,,,,,,,,,,,,,,,,,,,,,,,,,,,,,,,,,,,,,,,,,,,,,,,,,,,,,,,,,,,,,,,,,,,,6,0,6,0,1,,,,,,,,,,,,,,,,,,,,,
,,,,,,,,,,,,5e2d7770d70e4e367b8a6498,22,Mężczyzna,2022-06-11_09h29.26.951,task,2021.1.4,Win32,59.98440405,6299f149e92ead563fba08ef,62a442923c5b4b57e7b99e69,,,,,,,,,,,,,,,,,,,,,,,,,,,,,,,,,,,,,,,,,,,,,,,,,,,,,,,,,,,,,,,,,,,,,,,,,,,,,,,,,cgtvnk,"[""c"",""g"",""t"",""v"",""n"",""k""]",0,"[1.2358999998568834,1.6318999998568415,1.8678999998569452,2.3007999999522326,2.5487000000475746,2.867899999856945,3.9322999999521926]",0,CGTVNVK,5,0,5,0,1,,,,,,,,,,
,,,,,,,,,,,,5e2d7770d70e4e367b8a6498,22,Mężczyzna,2022-06-11_09h29.26.951,task,2021.1.4,Win32,59.98440405,6299f149e92ead563fba08ef,62a442923c5b4b57e7b99e69,,,,,,,,,,,,,0,,,,,,,,,,Task,17,(2x3) - 6,0,,,,,,,,,,,,,,,,,,,1,,,,,,,,,,,,,,,,,,,,,,,"[""0""]",1,[1.917200000047842],0,0,0,16,1,,,,,,,,,,,,,,,,,,,,,,,,,,
,,,,,,,,,,,X V Q F H G B L J M P D K C T S W R N Z,5e2d7770d70e4e367b8a6498,22,Mężczyzna,2022-06-11_09h29.26.951,task,2021.1.4,Win32,59.98440405,6299f149e92ead563fba08ef,62a442923c5b4b57e7b99e69,,,,,,,,,,,,,,,,,,,,,,,,,,,,,,,,,,,,,,,,,,,,,,,,,,,,,,,,,,,,,,,,,,,,,,,,,,,,0,0,0,0,1,,,,,,,,,,,,,,,,,,,,,
,,,,,,,,,,,,5e2d7770d70e4e367b8a6498,22,Mężczyzna,2022-06-11_09h29.26.951,task,2021.1.4,Win32,59.98440405,6299f149e92ead563fba08ef,62a442923c5b4b57e7b99e69,,,,,,,,,,,,,3,,,,,,,,,,Task,20,(18/9) + 1,3,,,,,,,,,,,,,,,,,,,1,,,,,,,,,,,,,,,,,,,,,,,"[""3""]",1,[1.60420000004774],0,0,0,19,1,,,,,,,,,,,,,,,,,,,,,,,,,,
,,,,,,,,,,,X V Q F H G B L J M P D K C T S W R N Z,5e2d7770d70e4e367b8a6498,22,Mężczyzna,2022-06-11_09h29.26.951,task,2021.1.4,Win32,59.98440405,6299f149e92ead563fba08ef,62a442923c5b4b57e7b99e69,,,,,,,,,,,,,,,,,,,,,,,,,,,,,,,,,,,,,,,,,,,,,,,,,,,,,,,,,,,,,,,,,,,,,,,,,,,,1,0,1,0,1,,,,,,,,,,,,,,,,,,,,,
,,,,,,,,,,,,5e2d7770d70e4e367b8a6498,22,Mężczyzna,2022-06-11_09h29.26.951,task,2021.1.4,Win32,59.98440405,6299f149e92ead563fba08ef,62a442923c5b4b57e7b99e69,,,,,,,,,,,,,2,,,,,,,,,,Task,26,(2x9) - 16,2,,,,,,,,,,,,,,,,,,,1,,,,,,,,,,,,,,,,,,,,,,,"[""2""]",1,[3.3031999998092942],0,0,0,25,1,,,,,,,,,,,,,,,,,,,,,,,,,,
,,,,,,,,,,,X V Q F H G B L J M P D K C T S W R N Z,5e2d7770d70e4e367b8a6498,22,Mężczyzna,2022-06-11_09h29.26.951,task,2021.1.4,Win32,59.98440405,6299f149e92ead563fba08ef,62a442923c5b4b57e7b99e69,,,,,,,,,,,,,,,,,,,,,,,,,,,,,,,,,,,,,,,,,,,,,,,,,,,,,,,,,,,,,,,,,,,,,,,,,,,,2,0,2,0,1,,,,,,,,,,,,,,,,,,,,,
,,,,,,,,,,,,5e2d7770d70e4e367b8a6498,22,Mężczyzna,2022-06-11_09h29.26.951,task,2021.1.4,Win32,59.98440405,6299f149e92ead563fba08ef,62a442923c5b4b57e7b99e69,,,,,,,,,,,,,,,,,,,,,,,Task,38,(4x6) - 17,7,,,,,,,,,,,,,,,,,,,0,,,,,,,,,,,,,,,,,,,,,,,,0,,0,0,0,37,1,,,,,,,,,,,,,,,,,,,,,,,,,,
,,,,,,,,,,,,5e2d7770d70e4e367b8a6498,22,Mężczyzna,2022-06-11_09h29.26.951,task,2021.1.4,Win32,59.98440405,6299f149e92ead563fba08ef,62a442923c5b4b57e7b99e69,,,,,,,,,,,,,0,,,,,,,,,,Task,33,(1/1) - 1,0,,,,,,,,,,,,,,,,,,,1,,,,,,,,,,,,,,,,,,,,,,,"[""0""]",1,[1.9171999998090996],0,1,1,32,1,,,,,,,,,,,,,,,,,,,,,,,,,,
,,,,,,,,,,,X V Q F H G B L J M P D K C T S W R N Z,5e2d7770d70e4e367b8a6498,22,Mężczyzna,2022-06-11_09h29.26.951,task,2021.1.4,Win32,59.98440405,6299f149e92ead563fba08ef,62a442923c5b4b57e7b99e69,,,,,,,,,,,,,,,,,,,,,,,,,,,,,,,,,,,,,,,,,,,,,,,,,,,,,,,,,,,,,,,,,,,,,,,,,,,,3,0,3,0,1,,,,,,,,,,,,,,,,,,,,,
,,,,,,,,,,,,5e2d7770d70e4e367b8a6498,22,Mężczyzna,2022-06-11_09h29.26.951,task,2021.1.4,Win32,59.98440405,6299f149e92ead563fba08ef,62a442923c5b4b57e7b99e69,,,,,,,,,,,,,8,,,,,,,,,,Task,32,(8/2) + 4,8,,,,,,,,,,,,,,,,,,,1,,,,,,,,,,,,,,,,,,,,,,,"[""8""]",1,[1.9479999999998654],0,0,0,31,1,,,,,,,,,,,,,,,,,,,,,,,,,,
,,,,,,,,,,,X V Q F H G B L J M P D K C T S W R N Z,5e2d7770d70e4e367b8a6498,22,Mężczyzna,2022-06-11_09h29.26.951,task,2021.1.4,Win32,59.98440405,6299f149e92ead563fba08ef,62a442923c5b4b57e7b99e69,,,,,,,,,,,,,,,,,,,,,,,,,,,,,,,,,,,,,,,,,,,,,,,,,,,,,,,,,,,,,,,,,,,,,,,,,,,,4,0,4,0,1,,,,,,,,,,,,,,,,,,,,,
,,,,,,,,,,,,5e2d7770d70e4e367b8a6498,22,Mężczyzna,2022-06-11_09h29.26.951,task,2021.1.4,Win32,59.98440405,6299f149e92ead563fba08ef,62a442923c5b4b57e7b99e69,,,,,,,,,,,,,3,,,,,,,,,,Task,27,(3/3) + 2,3,,,,,,,,,,,,,,,,,,,1,,,,,,,,,,,,,,,,,,,,,,,"[""3""]",1,[2.981400000095391],0,0,0,26,1,,,,,,,,,,,,,,,,,,,,,,,,,,
,,,,,,,,,,,X V Q F H G B L J M P D K C T S W R N Z,5e2d7770d70e4e367b8a6498,22,Mężczyzna,2022-06-11_09h29.26.951,task,2021.1.4,Win32,59.98440405,6299f149e92ead563fba08ef,62a442923c5b4b57e7b99e69,,,,,,,,,,,,,,,,,,,,,,,,,,,,,,,,,,,,,,,,,,,,,,,,,,,,,,,,,,,,,,,,,,,,,,,,,,,,5,0,5,0,1,,,,,,,,,,,,,,,,,,,,,
,,,,,,,,,,,,5e2d7770d70e4e367b8a6498,22,Mężczyzna,2022-06-11_09h29.26.951,task,2021.1.4,Win32,59.98440405,6299f149e92ead563fba08ef,62a442923c5b4b57e7b99e69,,,,,,,,,,,,,2,,,,,,,,,,Task,34,(9/3) - 2,1,,,,,,,,,,,,,,,,,,,0,,,,,,,,,,,,,,,,,,,,,,,"[""2""]",0,[2.6315000000001874],0,0,0,33,1,,,,,,,,,,,,,,,,,,,,,,,,,,
,,,,,,,,,,,,5e2d7770d70e4e367b8a6498,22,Mężczyzna,2022-06-11_09h29.26.951,task,2021.1.4,Win32,59.98440405,6299f149e92ead563fba08ef,62a442923c5b4b57e7b99e69,,,,,,,,,,,,,1,,,,,,,,,,Task,18,(16/4) - 3,1,,,,,,,,,,,,,,,,,,,1,,,,,,,,,,,,,,,,,,,,,,,"[""1""]",1,[2.0698999998569434],0,1,1,17,1,,,,,,,,,,,,,,,,,,,,,,,,,,
,,,,,,,,,,,X V Q F H G B L J M P D K C T S W R N Z,5e2d7770d70e4e367b8a6498,22,Mężczyzna,2022-06-11_09h29.26.951,task,2021.1.4,Win32,59.98440405,6299f149e92ead563fba08ef,62a442923c5b4b57e7b99e69,,,,,,,,,,,,,,,,,,,,,,,,,,,,,,,,,,,,,,,,,,,,,,,,,,,,,,,,,,,,,,,,,,,,,,,,,,,,6,0,6,0,1,,,,,,,,,,,,,,,,,,,,,
,,,,,,,,,,,,5e2d7770d70e4e367b8a6498,22,Mężczyzna,2022-06-11_09h29.26.951,task,2021.1.4,Win32,59.98440405,6299f149e92ead563fba08ef,62a442923c5b4b57e7b99e69,,,,,,,,,,,,,,,,,,,,,,,,,,,,,,,,,,,,,,,,,,,,,,,,,,,,,,,,,,,,,,,,,,,,,,,,,,,,,,,,,ctfznkm,"[""c"",""t"",""f"",""z"",""n"",""k"",""m""]",0,"[0.9982999999522235,1.4172000000476146,1.6817000000476128,2.0672999999521835,2.398799999952189,2.918900000095391,3.315299999952231,3.7154000000953147]",0,CTFZTZM,6,0,6,0,1,,,,,,,,,,
,,,,,,,,,,,,5e2d7770d70e4e367b8a6498,22,Mężczyzna,2022-06-11_09h29.26.951,task,2021.1.4,Win32,59.98440405,6299f149e92ead563fba08ef,62a442923c5b4b57e7b99e69,,,,,,,,,,,,,,,,,,,,,,,,,,,,,,,,,,,,,,,,,,,,,,,,,,,,,,,,,,,,,,,,,,,,,,,,,,,,,,,,,,,,,,,,,,,,"[""comma""]",0,[1.2335000000000491],0,0,0,0,1,,
,,,,,,,,,,,,5e2d7770d70e4e367b8a6498,22,Mężczyzna,2022-06-11_09h29.26.951,task,2021.1.4,Win32,59.98440405,6299f149e92ead563fba08ef,62a442923c5b4b57e7b99e69,,,,,,,,,,,,,,,,,,,,,,,,,,,,,,,,,,,,,,,,,,,,,,,,,,,,,,,,,,,,,,,,,,,,,,,,,,,,,,,,,,,,,,,,,,,,"[""period""]",0,[1.050400000095351],1,0,1,0,1,,
,,,,,,,,,,,,5e2d7770d70e4e367b8a6498,22,Mężczyzna,2022-06-11_09h29.26.951,task,2021.1.4,Win32,59.98440405,6299f149e92ead563fba08ef,62a442923c5b4b57e7b99e69,,,,,,,,,,,,,,,,,,,,,,,,,,,,,,,,,,,,,,,,,,,,,,,,,,,,,,,,,,,,,,,,,,,,,,,,,,,,,,,,,,,,,,,,,,,,"[""period""]",0,[0.9334999999998672],2,0,2,0,1,,
,,,,,,,,,,,,5e2d7770d70e4e367b8a6498,22,Mężczyzna,2022-06-11_09h29.26.951,task,2021.1.4,Win32,59.98440405,6299f149e92ead563fba08ef,62a442923c5b4b57e7b99e69,,,,,,,,,,,,,,,,,,,,,,,,,,,,,,,,,,,,,,,,,,,,,,,,,,,,,,,,,,,,,,,,,,,,,,,,,,,,,,,,,,,,,,,,,,,,"[""period""]",0,[0.5172000000475236],3,0,3,0,1,,
,,,,,,,,,,,,5e2d7770d70e4e367b8a6498,22,Mężczyzna,2022-06-11_09h29.26.951,task,2021.1.4,Win32,59.98440405,6299f149e92ead563fba08ef,62a442923c5b4b57e7b99e69,,,,,,,,,,,,,,,,,,,,,,,,,,,,,,,,,,,,,,,,,,,,,,,,,,,,,,,,,,,,,,,,,,,,,,,,,,,,,,,,,,,,,,,,,,,,"[""comma""]",0,[0.43279999995229446],4,0,4,0,1,,
,,,,,,,,,,,,5e2d7770d70e4e367b8a6498,22,Mężczyzna,2022-06-11_09h29.26.951,task,2021.1.4,Win32,59.98440405,6299f149e92ead563fba08ef,62a442923c5b4b57e7b99e69,,,,,,,,,,,,,,,,,,,,,,,,,,,,,,,,,,,,,,,,,,,,,,,,,,,,,,,,,,,,,,,,,,,,,,,,,,,,,,,,,,,,,,,,,,,,"[""period""]",0,[0.4172999999523199],5,0,5,0,1,,
,,,,,,,,,,,,5e2d7770d70e4e367b8a6498,22,Mężczyzna,2022-06-11_09h29.26.951,task,2021.1.4,Win32,59.98440405,6299f149e92ead563fba08ef,62a442923c5b4b57e7b99e69,,,,,,,,,,,,,,,,,,,,,,,,,,,,,,,,,,,,,,,,,,,,,,,,,,,,,,,,,,,,,,,,,,,,,,,,,,,,,,,,,,,,,,,,,,,,"[""period""]",0,[0.5007999999522781],6,0,6,0,1,,
,,,,,,,,,,,,5e2d7770d70e4e367b8a6498,22,Mężczyzna,2022-06-11_09h29.26.951,task,2021.1.4,Win32,59.98440405,6299f149e92ead563fba08ef,62a442923c5b4b57e7b99e69,,,,,,,,,,,,,,,,,,,,,,,,,,,,,,,,,,,,,,,,,,,,,,,,,,,,,,,,,,,,,,,,,,,,,,,,,,,,,,,,,,,,,,,,,,,,"[""comma""]",0,[0.48409999990462893],7,0,7,0,1,,
,,,,,,,,,,,,5e2d7770d70e4e367b8a6498,22,Mężczyzna,2022-06-11_09h29.26.951,task,2021.1.4,Win32,59.98440405,6299f149e92ead563fba08ef,62a442923c5b4b57e7b99e69,,,,,,,,,,,,,,,,,,,,,,,,,,,,,,,,,,,,,,,,,,,,,,,,,,,,,,,,,,,,,,,,,,,,,,,,,,,,,,,,,,,,,,,,,,,,"[""comma""]",0,[1.4004000000954875],8,0,8,0,1,,
,,,,,,,,,,,,5e2d7770d70e4e367b8a6498,22,Mężczyzna,2022-06-11_09h29.26.951,task,2021.1.4,Win32,59.98440405,6299f149e92ead563fba08ef,62a442923c5b4b57e7b99e69,,,,,,,,,,,,,,,,,,,,,,,,,,,,,,,,,,,,,,,,,,,,,,,,,,,,,,,,,,,,,,,,,,,,,,,,,,,,,,,,,,,,,,,,,,,,,0,,9,0,9,0,1,,
,,,,,,,,,,,,5e2d7770d70e4e367b8a6498,22,Mężczyzna,2022-06-11_09h29.26.951,task,2021.1.4,Win32,59.98440405,6299f149e92ead563fba08ef,62a442923c5b4b57e7b99e69,,,,,,,,,,,,,,,,,,,,,,,,,,,,,,,,,,,,,,,,,,,,,,,,,,,,,,,,,,,,,,,,,,,,,,,,,,,,,,,,,,,,,,,,,,,,"[""comma""]",0,[0.17129999995222533],10,0,10,0,1,,
,,,,,,,,,,,,5e2d7770d70e4e367b8a6498,22,Mężczyzna,2022-06-11_09h29.26.951,task,2021.1.4,Win32,59.98440405,6299f149e92ead563fba08ef,62a442923c5b4b57e7b99e69,,,,,,,,,,,,,,,,,,,,,,,,,,,,,,,,,,,,,,,,,,,,,,,,,,,,,,,,,,,,,,,,,,,,,,,,,,,,,,,,,,,,,,,,,,,,"[""period""]",0,[0.2999000000952492],11,0,11,0,1,,
,,,,,,,,,,,,5e2d7770d70e4e367b8a6498,22,Mężczyzna,2022-06-11_09h29.26.951,task,2021.1.4,Win32,59.98440405,6299f149e92ead563fba08ef,62a442923c5b4b57e7b99e69,,,,,,,,,,,,,,,,,,,,,,,,,,,,,,,,,,,,,,,,,,,,,,,,,,,,,,,,,,,,,,,,,,,,,,,,,,,,,,,,,,,,,,,,,,,,"[""period""]",0,[0.40089999985707436],12,0,12,0,1,,
,,,,,,,,,,,,5e2d7770d70e4e367b8a6498,22,Mężczyzna,2022-06-11_09h29.26.951,task,2021.1.4,Win32,59.98440405,6299f149e92ead563fba08ef,62a442923c5b4b57e7b99e69,,,,,,,,,,,,,,,,,,,,,,,,,,,,,,,,,,,,,,,,,,,,,,,,,,,,,,,,,,,,,,,,,,,,,,,,,,,,,,,,,,,,,,,,,,,,"[""comma""]",0,[0.38570000004756366],13,0,13,0,1,,
,,,,,,,,,,,,5e2d7770d70e4e367b8a6498,22,Mężczyzna,2022-06-11_09h29.26.951,task,2021.1.4,Win32,59.98440405,6299f149e92ead563fba08ef,62a442923c5b4b57e7b99e69,,,,,,,,,,,,,,,,,,,,,,,,,,,,,,,,,,,,,,,,,,,,,,,,,,,,,,,,,,,,,,,,,,,,,,,,,,,,,,,,,,,,,,,,,,,,"[""comma""]",0,[0.38290000009533287],14,0,14,0,1,,
,,,,,,,,,,,,5e2d7770d70e4e367b8a6498,22,Mężczyzna,2022-06-11_09h29.26.951,task,2021.1.4,Win32,59.98440405,6299f149e92ead563fba08ef,62a442923c5b4b57e7b99e69,,,,,,,,,,,,,,,,,,,,,,,,,,,,,,,,,,,,,,,,,,,,,,,,,,,,,,,,,,,,,,,,,,,,,,,,,,,,,,,,,,,,,,,,,,,,"[""period""]",0,[0.3369999999999891],15,0,15,0,1,,
,,,,,,,,,,,,5e2d7770d70e4e367b8a6498,22,Mężczyzna,2022-06-11_09h29.26.951,task,2021.1.4,Win32,59.98440405,6299f149e92ead563fba08ef,62a442923c5b4b57e7b99e69,,,,,,,,,,,,,,,,,,,,,,,,,,,,,,,,,,,,,,,,,,,,,,,,,,,,,,,,,,,,,,,,,,,,,,,,,,,,,,,,,,,,,,,,,,,,"[""comma""]",0,[0.2497000000475964],16,0,16,0,1,,
,,,,,,,,,,,,5e2d7770d70e4e367b8a6498,22,Mężczyzna,2022-06-11_09h29.26.951,task,2021.1.4,Win32,59.98440405,6299f149e92ead563fba08ef,62a442923c5b4b57e7b99e69,,,,,,,,,,,,,,,,,,,,,,,,,,,,,,,,,,,,,,,,,,,,,,,,,,,,,,,,,,,,,,,,,,,,,,,,,,,,,,,,,,,,,,,,,,,,"[""period""]",0,[0.3162000000475018],17,0,17,0,1,,
,,,,,,,,,,,,5e2d7770d70e4e367b8a6498,22,Mężczyzna,2022-06-11_09h29.26.951,task,2021.1.4,Win32,59.98440405,6299f149e92ead563fba08ef,62a442923c5b4b57e7b99e69,,,,,,,,,,,,,,,,,,,,,,,,,,,,,,,,,,,,,,,,,,,,,,,,,,,,,,,,,,,,,,,,,,,,,,,,,,,,,,,,,,,,,,,,,,,,"[""period""]",0,[0.36879999995221624],18,0,18,0,1,,
,,,,,,,,,,,,5e2d7770d70e4e367b8a6498,22,Mężczyzna,2022-06-11_09h29.26.951,task,2021.1.4,Win32,59.98440405,6299f149e92ead563fba08ef,62a442923c5b4b57e7b99e69,,,,,,,,,,,,,,,,,,,,,,,,,,,,,,,,,,,,,,,,,,,,,,,,,,,,,,,,,,,,,,,,,,,,,,,,,,,,,,,,,,,,,,,,,,,,"[""period""]",0,[0.48360000014304205],19,0,19,0,1,,
,,,,,,,,,,,,5e2d7770d70e4e367b8a6498,22,Mężczyzna,2022-06-11_09h29.26.951,task,2021.1.4,Win32,59.98440405,6299f149e92ead563fba08ef,62a442923c5b4b57e7b99e69,,,,,,,,,,,,,,,,,,,,,,,,,,,,,,,,,,,,,,,,,,,,,,,,,,,,,,,,,,,,,,,,,,,,,,,,,,,,,,,,,,,,,,,,,,,,"[""period""]",0,[0.4172000000476146],20,0,20,0,1,,
,,,,,,,,,,,,5e2d7770d70e4e367b8a6498,22,Mężczyzna,2022-06-11_09h29.26.951,task,2021.1.4,Win32,59.98440405,6299f149e92ead563fba08ef,62a442923c5b4b57e7b99e69,,,,,,,,,,,,,,,,,,,,,,,,,,,,,,,,,,,,,,,,,,,,,,,,,,,,,,,,,,,,,,,,,,,,,,,,,,,,,,,,,,,,,,,,,,,,"[""comma""]",0,[0.2171999998092815],21,0,21,0,1,,
,,,,,,,,,,,,5e2d7770d70e4e367b8a6498,22,Mężczyzna,2022-06-11_09h29.26.951,task,2021.1.4,Win32,59.98440405,6299f149e92ead563fba08ef,62a442923c5b4b57e7b99e69,,,,,,,,,,,,,,,,,,,,,,,,,,,,,,,,,,,,,,,,,,,,,,,,,,,,,,,,,,,,,,,,,,,,,,,,,,,,,,,,,,,,,,,,,,,,"[""comma""]",0,[0.16969999980938155],22,0,22,0,1,,
,,,,,,,,,,,,5e2d7770d70e4e367b8a6498,22,Mężczyzna,2022-06-11_09h29.26.951,task,2021.1.4,Win32,59.98440405,6299f149e92ead563fba08ef,62a442923c5b4b57e7b99e69,,,,,,,,,,,,,,,,,,,,,,,,,,,,,,,,,,,,,,,,,,,,,,,,,,,,,,,,,,,,,,,,,,,,,,,,,,,,,,,,,,,,,,,,,,,,"[""period""]",0,[0.15029999995226717],23,0,23,0,1,,
,,,,,,,,,,,,5e2d7770d70e4e367b8a6498,22,Mężczyzna,2022-06-11_09h29.26.951,task,2021.1.4,Win32,59.98440405,6299f149e92ead563fba08ef,62a442923c5b4b57e7b99e69,,,,,,,,,,,,,,,,,,,,,,,,,,,,,,,,,,,,,,,,,,,,,,,,,,,,,,,,,,,,,,,,,,,,,,,,,,,,,,,,,,,,,,,,,,,,"[""comma""]",0,[0.1330000000000382],24,0,24,0,1,,
,,,,,,,,,,,,5e2d7770d70e4e367b8a6498,22,Mężczyzna,2022-06-11_09h29.26.951,task,2021.1.4,Win32,59.98440405,6299f149e92ead563fba08ef,62a442923c5b4b57e7b99e69,,,,,,,,,,,,,,,,,,,,,,,,,,,,,,,,,,,,,,,,,,,,,,,,,,,,,,,,,,,,,,,,,,,,,,,,,,,,,,,,,,,,,,,,,,,,"[""comma""]",0,[0.26549999999997453],25,0,25,0,1,,
,,,,,,,,,,,,5e2d7770d70e4e367b8a6498,22,Mężczyzna,2022-06-11_09h29.26.951,task,2021.1.4,Win32,59.98440405,6299f149e92ead563fba08ef,62a442923c5b4b57e7b99e69,,,,,,,,,,,,,,,,,,,,,,,,,,,,,,,,,,,,,,,,,,,,,,,,,,,,,,,,,,,,,,,,,,,,,,,,,,,,,,,,,,,,,,,,,,,,"[""period""]",0,[0.06709999990448523],26,0,26,0,1,,
,,,,,,,,,,,,5e2d7770d70e4e367b8a6498,22,Mężczyzna,2022-06-11_09h29.26.951,task,2021.1.4,Win32,59.98440405,6299f149e92ead563fba08ef,62a442923c5b4b57e7b99e69,,,,,,,,,,,,,,,,,,,,,,,,,,,,,,,,,,,,,,,,,,,,,,,,,,,,,,,,,,,,,,,,,,,,,,,,,,,,,,,,,,,,,,,,,,,,"[""period""]",0,[0.16650000000004184],27,0,27,0,1,,
,,,,,,,,,,,,5e2d7770d70e4e367b8a6498,22,Mężczyzna,2022-06-11_09h29.26.951,task,2021.1.4,Win32,59.98440405,6299f149e92ead563fba08ef,62a442923c5b4b57e7b99e69,,,,,,,,,,,,,,,,,,,,,,,,,,,,,,,,,,,,,,,,,,,,,,,,,,,,,,,,,,,,,,,,,,,,,,,,,,,,,,,,,,,,,,,,,,,,"[""comma""]",0,[0.23359999990452707],28,0,28,0,1,,
,,,,,,,,,,,,5e2d7770d70e4e367b8a6498,22,Mężczyzna,2022-06-11_09h29.26.951,task,2021.1.4,Win32,59.98440405,6299f149e92ead563fba08ef,62a442923c5b4b57e7b99e69,,,,,,,,,,,,,,,,,,,,,,,,,,,,,,,,,,,,,,,,,,,,,,,,,,,,,,,,,,,,,,,,,,,,,,,,,,,,,,,,,,,,,,,,,,,,"[""comma""]",0,[0.2504999999998745],29,0,29,0,1,,
,,,,,,,,,,,,5e2d7770d70e4e367b8a6498,22,Mężczyzna,2022-06-11_09h29.26.951,task,2021.1.4,Win32,59.98440405,6299f149e92ead563fba08ef,62a442923c5b4b57e7b99e69,,,,,,,,,,,,,,,,,,,,,,,,,,,,,,,,,,,,,,,,,,,,,,,,,,,,,,,,,,,,,,,,,,,,,,,,,,,,,,,,,,,,,,,,,,,,"[""comma""]",0,[0.3526999998091469],30,0,30,0,1,,
,,,,,,,,,,,,5e2d7770d70e4e367b8a6498,22,Mężczyzna,2022-06-11_09h29.26.951,task,2021.1.4,Win32,59.98440405,6299f149e92ead563fba08ef,62a442923c5b4b57e7b99e69,,,,,,,,,,,,,,,,,,,,,,,,,,,,,,,,,,,,,,,,,,,,,,,,,,,,,,,,,,,,,,,,,,,,,,,,,,,,,,,,,,,,,,,,,,,,"[""comma""]",0,[0.2676000001429202],31,0,31,0,1,,
,,,,,,,,,,,,5e2d7770d70e4e367b8a6498,22,Mężczyzna,2022-06-11_09h29.26.951,task,2021.1.4,Win32,59.98440405,6299f149e92ead563fba08ef,62a442923c5b4b57e7b99e69,,,,,,,,,,,,,,,,,,,,,,,,,,,,,,,,,,,,,,,,,,,,,,,,,,,,,,,,,,,,,,,,,,,,,,,,,,,,,,,,,,,,,,,,,,,,"[""comma""]",0,[0.2670999999045307],32,0,32,0,1,,
,,,,,,,,,,,,5e2d7770d70e4e367b8a6498,22,Mężczyzna,2022-06-11_09h29.26.951,task,2021.1.4,Win32,59.98440405,6299f149e92ead563fba08ef,62a442923c5b4b57e7b99e69,,,,,,,,,,,,,,,,,,,,,,,,,,,,,,,,,,,,,,,,,,,,,,,,,,,,,,,,,,,,,,,,,,,,,,,,,,,,,,,,,,,,,,,,,,,,"[""comma""]",0,[0.3507000000477092],33,0,33,0,1,,
,,,,,,,,,,,,5e2d7770d70e4e367b8a6498,22,Mężczyzna,2022-06-11_09h29.26.951,task,2021.1.4,Win32,59.98440405,6299f149e92ead563fba08ef,62a442923c5b4b57e7b99e69,,,,,,,,,,,,,,,,,,,,,,,,,,,,,,,,,,,,,,,,,,,,,,,,,,,,,,,,,,,,,,,,,,,,,,,,,,,,,,,,,,,,,,,,,,,,"[""period""]",0,[0.46679999995239996],34,0,34,0,1,,
,,,,,,,,,,,,5e2d7770d70e4e367b8a6498,22,Mężczyzna,2022-06-11_09h29.26.951,task,2021.1.4,Win32,59.98440405,6299f149e92ead563fba08ef,62a442923c5b4b57e7b99e69,,,,,,,,,,,,,,,,,,,,,,,,,,,,,,,,,,,,,,,,,,,,,,,,,,,,,,,,,,,,,,,,,,,,,,,,,,,,,,,,,,,,,,,,,,,,"[""comma""]",0,[0.35040000009553296],35,0,35,0,1,,
,,,,,,,,,,,,5e2d7770d70e4e367b8a6498,22,Mężczyzna,2022-06-11_09h29.26.951,task,2021.1.4,Win32,59.98440405,6299f149e92ead563fba08ef,62a442923c5b4b57e7b99e69,,,,,,,,,,,,,,,,,,,,,,,,,,,,,,,,,,,,,,,,,,,,,,,,,,,,,,,,,,,,,,,,,,,,,,,,,,,,,,,,,,,,,,,,,,,,"[""period""]",0,[0.26670000004764916],36,0,36,0,1,,
,,,,,,,,,,,,5e2d7770d70e4e367b8a6498,22,Mężczyzna,2022-06-11_09h29.26.951,task,2021.1.4,Win32,59.98440405,6299f149e92ead563fba08ef,62a442923c5b4b57e7b99e69,,,,,,,,,,,,,,,,,,,,,,,,,,,,,,,,,,,,,,,,,,,,,,,,,,,,,,,,,,,,,,,,,,,,,,,,,,,,,,,,,,,,,,,,,,,,"[""comma""]",0,[0.2665999999046562],37,0,37,0,1,,
,,,,,,,,,,,,5e2d7770d70e4e367b8a6498,22,Mężczyzna,2022-06-11_09h29.26.951,task,2021.1.4,Win32,59.98440405,6299f149e92ead563fba08ef,62a442923c5b4b57e7b99e69,,,,,,,,,,,,,,,,,,,,,,,,,,,,,,,,,,,,,,,,,,,,,,,,,,,,,,,,,,,,,,,,,,,,,,,,,,,,,,,,,,,,,,,,,,,,"[""period""]",0,[0.21700000000009823],38,0,38,0,1,,
,,,,,,,,,,,,5e2d7770d70e4e367b8a6498,22,Mężczyzna,2022-06-11_09h29.26.951,task,2021.1.4,Win32,59.98440405,6299f149e92ead563fba08ef,62a442923c5b4b57e7b99e69,,,,,,,,,,,,,,,,,,,,,,,,,,,,,,,,,,,,,,,,,,,,,,,,,,,,,,,,,,,,,,,,,,,,,,,,,,,,,,,,,,,,,,,,,,,,"[""period""]",0,[0.21720000004756912],39,0,39,0,1,,
,,,,,,,,,,,,5e2d7770d70e4e367b8a6498,22,Mężczyzna,2022-06-11_09h29.26.951,task,2021.1.4,Win32,59.98440405,6299f149e92ead563fba08ef,62a442923c5b4b57e7b99e69,,,,,,,,,,,,,,,,,,,,,,,,,,,,,,,,,,,,,,,,,,,,,,,,,,,,,,,,,,,,,,,,,,,,,,,,,,,,,,,,,,,,,,,,,,,,"[""comma""]",0,[0.28379999995240723],40,0,40,0,1,,
,,,,,,,,,,,,5e2d7770d70e4e367b8a6498,22,Mężczyzna,2022-06-11_09h29.26.951,task,2021.1.4,Win32,59.98440405,6299f149e92ead563fba08ef,62a442923c5b4b57e7b99e69,,,,,,,,,,,,,,,,,,,,,,,,,,,,,,,,,,,,,,,,,,,,,,,,,,,,,,,,,,,,,,,,,,,,,,,,,,,,,,,,,,,,,,,,,,,,"[""comma""]",0,[0.1835000000000946],41,0,41,0,1,,
,,,,,,,,,,,,5e2d7770d70e4e367b8a6498,22,Mężczyzna,2022-06-11_09h29.26.951,task,2021.1.4,Win32,59.98440405,6299f149e92ead563fba08ef,62a442923c5b4b57e7b99e69,,,,,,,,,,,,,,,,,,,,,,,,,,,,,,,,,,,,,,,,,,,,,,,,,,,,,,,,,,,,,,,,,,,,,,,,,,,,,,,,,,,,,,,,,,,,"[""period""]",0,[0.08199999999987995],42,0,42,0,1,,
,,,,,,,,,,,,5e2d7770d70e4e367b8a6498,22,Mężczyzna,2022-06-11_09h29.26.951,task,2021.1.4,Win32,59.98440405,6299f149e92ead563fba08ef,62a442923c5b4b57e7b99e69,,,,,,,,,,,,,,,,,,,,,,,,,,,,,,,,,,,,,,,,,,,,,,,,,,,,,,,,,,,,,,,,,,,,,,,,,,,,,,,,,,,,,,,,,,,,"[""period""]",0,[0.1668999998569234],43,0,43,0,1,,
,,,,,,,,,,,,5e2d7770d70e4e367b8a6498,22,Mężczyzna,2022-06-11_09h29.26.951,task,2021.1.4,Win32,59.98440405,6299f149e92ead563fba08ef,62a442923c5b4b57e7b99e69,,,,,,,,,,,,,,,,,,,,,,,,,,,,,,,,,,,,,,,,,,,,,,,,,,,,,,,,,,,,,,,,,,,,,,,,,,,,,,,,,,,,,,,,,,,,"[""period""]",0,[0.18369999980927787],44,0,44,0,1,,
,,,,,,,,,,,,5e2d7770d70e4e367b8a6498,22,Mężczyzna,2022-06-11_09h29.26.951,task,2021.1.4,Win32,59.98440405,6299f149e92ead563fba08ef,62a442923c5b4b57e7b99e69,,,,,,,,,,,,,,,,,,,,,,,,,,,,,,,,,,,,,,,,,,,,,,,,,,,,,,,,,,,,,,,,,,,,,,,,,,,,,,,,,,,,,,,,,,,,"[""comma""]",0,[0.3335999999046635],45,0,45,0,1,,
,,,,,,,,,,,,5e2d7770d70e4e367b8a6498,22,Mężczyzna,2022-06-11_09h29.26.951,task,2021.1.4,Win32,59.98440405,6299f149e92ead563fba08ef,62a442923c5b4b57e7b99e69,,,,,,,,,,,,,,,,,,,,,,,,,,,,,,,,,,,,,,,,,,,,,,,,,,,,,,,,,,,,,,,,,,,,,,,,,,,,,,,,,,,,,,,,,,,,"[""period""]",0,[0.2840000000001055],46,0,46,0,1,,
,,,,,,,,,,,,5e2d7770d70e4e367b8a6498,22,Mężczyzna,2022-06-11_09h29.26.951,task,2021.1.4,Win32,59.98440405,6299f149e92ead563fba08ef,62a442923c5b4b57e7b99e69,,,,,,,,,,,,,,,,,,,,,,,,,,,,,,,,,,,,,,,,,,,,,,,,,,,,,,,,,,,,,,,,,,,,,,,,,,,,,,,,,,,,,,,,,,,,"[""comma""]",0,[0.30040000009535106],47,0,47,0,1,,
,,,,,,,,,,,,5e2d7770d70e4e367b8a6498,22,Mężczyzna,2022-06-11_09h29.26.951,task,2021.1.4,Win32,59.98440405,6299f149e92ead563fba08ef,62a442923c5b4b57e7b99e69,,,,,,,,,,,,,,,,,,,,,,,,,,,,,,,,,,,,,,,,,,,,,,,,,,,,,,,,,,,,,,,,,,,,,,,,,,,,,,,,,,,,,,,,,,,,"[""comma""]",0,[0.282299999952329],48,0,48,0,1,,
,,,,,,,,,,,,5e2d7770d70e4e367b8a6498,22,Mężczyzna,2022-06-11_09h29.26.951,task,2021.1.4,Win32,59.98440405,6299f149e92ead563fba08ef,62a442923c5b4b57e7b99e69,,,,,,,,,,,,,,,,,,,,,,,,,,,,,,,,,,,,,,,,,,,,,,,,,,,,,,,,,,,,,,,,,,,,,,,,,,,,,,,,,,,,,,,,,,,,"[""comma""]",0,[0.32089999985691975],49,0,49,0,1,,
,,,,,,,,,,,,5e2d7770d70e4e367b8a6498,22,Mężczyzna,2022-06-11_09h29.26.951,task,2021.1.4,Win32,59.98440405,6299f149e92ead563fba08ef,62a442923c5b4b57e7b99e69,,,,,,,,,,,,,,,,,,,,,,,,,,,,,,,,,,,,,,,,,,,,,,,,,,,,,,,,,,,,,,,,,,,,,,,,,,,,,,,,,,,,,,,,,,,,"[""period""]",0,[0.3042000000475582],50,0,50,0,1,,
,,,,,,,,,,,,5e2d7770d70e4e367b8a6498,22,Mężczyzna,2022-06-11_09h29.26.951,task,2021.1.4,Win32,59.98440405,6299f149e92ead563fba08ef,62a442923c5b4b57e7b99e69,,,,,,,,,,,,,,,,,,,,,,,,,,,,,,,,,,,,,,,,,,,,,,,,,,,,,,,,,,,,,,,,,,,,,,,,,,,,,,,,,,,,,,,,,,,,"[""period""]",0,[0.31690000009530195],51,0,51,0,1,,
,,,,,,,,,,,,5e2d7770d70e4e367b8a6498,22,Mężczyzna,2022-06-11_09h29.26.951,task,2021.1.4,Win32,59.98440405,6299f149e92ead563fba08ef,62a442923c5b4b57e7b99e69,,,,,,,,,,,,,,,,,,,,,,,,,,,,,,,,,,,,,,,,,,,,,,,,,,,,,,,,,,,,,,,,,,,,,,,,,,,,,,,,,,,,,,,,,,,,"[""comma""]",0,[0.2837000000477019],52,0,52,0,1,,
,,,,,,,,,,,,5e2d7770d70e4e367b8a6498,22,Mężczyzna,2022-06-11_09h29.26.951,task,2021.1.4,Win32,59.98440405,6299f149e92ead563fba08ef,62a442923c5b4b57e7b99e69,,,,,,,,,,,,,,,,,,,,,,,,,,,,,,,,,,,,,,,,,,,,,,,,,,,,,,,,,,,,,,,,,,,,,,,,,,,,,,,,,,,,,,,,,,,,"[""period""]",0,[0.26749999999992724],53,0,53,0,1,,
,,,,,,,,,,,,5e2d7770d70e4e367b8a6498,22,Mężczyzna,2022-06-11_09h29.26.951,task,2021.1.4,Win32,59.98440405,6299f149e92ead563fba08ef,62a442923c5b4b57e7b99e69,,,,,,,,,,,,,,,,,,,,,,,,,,,,,,,,,,,,,,,,,,,,,,,,,,,,,,,,,,,,,,,,,,,,,,,,,,,,,,,,,,,,,,,,,,,,"[""period""]",0,[0.2670999999045307],54,0,54,0,1,,
,,,,,,,,,,,,5e2d7770d70e4e367b8a6498,22,Mężczyzna,2022-06-11_09h29.26.951,task,2021.1.4,Win32,59.98440405,6299f149e92ead563fba08ef,62a442923c5b4b57e7b99e69,,,,,,,,,,,,,,,,,,,,,,,,,,,,,,,,,,,,,,,,,,,,,,,,,,,,,,,,,,,,,,,,,,,,,,,,,,,,,,,,,,,,,,,,,,,,"[""period""]",0,[0.3005000000000564],55,0,55,0,1,,
,,,,,,,,,,,,5e2d7770d70e4e367b8a6498,22,Mężczyzna,2022-06-11_09h29.26.951,task,2021.1.4,Win32,59.98440405,6299f149e92ead563fba08ef,62a442923c5b4b57e7b99e69,,,,,,,,,,,,,,,,,,,,,,,,,,,,,,,,,,,,,,,,,,,,,,,,,,,,,,,,,,,,,,,,,,,,,,,,,,,,,,,,,,,,,,,,,,,,"[""comma""]",0,[0.30040000009535106],56,0,56,0,1,,
,,,,,,,,,,,,5e2d7770d70e4e367b8a6498,22,Mężczyzna,2022-06-11_09h29.26.951,task,2021.1.4,Win32,59.98440405,6299f149e92ead563fba08ef,62a442923c5b4b57e7b99e69,,,,,,,,,,,,,,,,,,,,,,,,,,,,,,,,,,,,,,,,,,,,,,,,,,,,,,,,,,,,,,,,,,,,,,,,,,,,,,,,,,,,,,,,,,,,"[""comma""]",0,[0.31690000009530195],57,0,57,0,1,,
,,,,,,,,,,,,5e2d7770d70e4e367b8a6498,22,Mężczyzna,2022-06-11_09h29.26.951,task,2021.1.4,Win32,59.98440405,6299f149e92ead563fba08ef,62a442923c5b4b57e7b99e69,,,,,,,,,,,,,,,,,,,,,,,,,,,,,,,,,,,,,,,,,,,,,,,,,,,,,,,,,,,,,,,,,,,,,,,,,,,,,,,,,,,,,,,,,,,,"[""period""]",0,[0.06700000000000728],58,0,58,0,1,,
,,,,,,,,,,,,5e2d7770d70e4e367b8a6498,22,Mężczyzna,2022-06-11_09h29.26.951,task,2021.1.4,Win32,59.98440405,6299f149e92ead563fba08ef,62a442923c5b4b57e7b99e69,,,,,,,,,,,,,,,,,,,,,,,,,,,,,,,,,,,,,,,,,,,,,,,,,,,,,,,,,,,,,,,,,,,,,,,,,,,,,,,,,,,,,,,,,,,,"[""period""]",0,[0.06700000000000728],59,0,59,0,1,,
,,,,,,,,,,,,5e2d7770d70e4e367b8a6498,22,Mężczyzna,2022-06-11_09h29.26.951,task,2021.1.4,Win32,59.98440405,6299f149e92ead563fba08ef,62a442923c5b4b57e7b99e69,,,,,,,,,,,,,,,,,,,,,,,,,,,,,,,,,,,,,,,,,,,,,,,,,,,,,,,,,,,,,,,,,,,,,,,,,,,,,,,,,,,,,,,,,,,,"[""period""]",0,[0.200400000095442],60,0,60,0,1,,
,,,,,,,,,,,,5e2d7770d70e4e367b8a6498,22,Mężczyzna,2022-06-11_09h29.26.951,task,2021.1.4,Win32,59.98440405,6299f149e92ead563fba08ef,62a442923c5b4b57e7b99e69,,,,,,,,,,,,,,,,,,,,,,,,,,,,,,,,,,,,,,,,,,,,,,,,,,,,,,,,,,,,,,,,,,,,,,,,,,,,,,,,,,,,,,,,,,,,"[""period""]",0,[0.2508000001905657],61,0,61,0,1,,
,,,,,,,,,,,,5e2d7770d70e4e367b8a6498,22,Mężczyzna,2022-06-11_09h29.26.951,task,2021.1.4,Win32,59.98440405,6299f149e92ead563fba08ef,62a442923c5b4b57e7b99e69,,,,,,,,,,,,,,,,,,,,,,,,,,,,,,,,,,,,,,,,,,,,,,,,,,,,,,,,,,,,,,,,,,,,,,,,,,,,,,,,,,,,,,,,,,,,"[""comma""]",0,[0.2837000000477019],62,0,62,0,1,,
,,,,,,,,,,,,5e2d7770d70e4e367b8a6498,22,Mężczyzna,2022-06-11_09h29.26.951,task,2021.1.4,Win32,59.98440405,6299f149e92ead563fba08ef,62a442923c5b4b57e7b99e69,,,,,,,,,,,,,,,,,,,,,,,,,,,,,,,,,,,,,,,,,,,,,,,,,,,,,,,,,,,,,,,,,,,,,,,,,,,,,,,,,,,,,,,,,,,,"[""comma""]",0,[0.300499999999829],63,0,63,0,1,,
,,,,,,,,,,,,5e2d7770d70e4e367b8a6498,22,Mężczyzna,2022-06-11_09h29.26.951,task,2021.1.4,Win32,59.98440405,6299f149e92ead563fba08ef,62a442923c5b4b57e7b99e69,,,,,,,,,,,,,,,,,,,,,,,,,,,,,,,,,,,,,,,,,,,,,,,,,,,,,,,,,,,,,,,,,,,,,,,,,,,,,,,,,,,,,,,,,,,,"[""comma""]",0,[0.28410000014287107],64,0,64,0,1,,
,,,,,,,,,,,,5e2d7770d70e4e367b8a6498,22,Mężczyzna,2022-06-11_09h29.26.951,task,2021.1.4,Win32,59.98440405,6299f149e92ead563fba08ef,62a442923c5b4b57e7b99e69,,,,,,,,,,,,,,,,,,,,,,,,,,,,,,,,,,,,,,,,,,,,,,,,,,,,,,,,,,,,,,,,,,,,,,,,,,,,,,,,,,,,,,,,,,,,"[""comma""]",0,[0.450399999856927],65,0,65,0,1,,
,,,,,,,,,,,,5e2d7770d70e4e367b8a6498,22,Mężczyzna,2022-06-11_09h29.26.951,task,2021.1.4,Win32,59.98440405,6299f149e92ead563fba08ef,62a442923c5b4b57e7b99e69,,,,,,,,,,,,,,,,,,,,,,,,,,,,,,,,,,,,,,,,,,,,,,,,,,,,,,,,,,,,,,,,,,,,,,,,,,,,,,,,,,,,,,,,,,,,"[""period""]",0,[0.18379999995249818],66,0,66,0,1,,
,,,,,,,,,,,,5e2d7770d70e4e367b8a6498,22,Mężczyzna,2022-06-11_09h29.26.951,task,2021.1.4,Win32,59.98440405,6299f149e92ead563fba08ef,62a442923c5b4b57e7b99e69,,,,,,,,,,,,,,,,,,,,,,,,,,,,,,,,,,,,,,,,,,,,,,,,,,,,,,,,,,,,,,,,,,,,,,,,,,,,,,,,,,,,,,,,,,,,"[""period""]",0,[0.2664999999999509],67,0,67,0,1,,
,,,,,,,,,,,,5e2d7770d70e4e367b8a6498,22,Mężczyzna,2022-06-11_09h29.26.951,task,2021.1.4,Win32,59.98440405,6299f149e92ead563fba08ef,62a442923c5b4b57e7b99e69,,,,,,,,,,,,,,,,,,,,,,,,,,,,,,,,,,,,,,,,,,,,,,,,,,,,,,,,,,,,,,,,,,,,,,,,,,,,,,,,,,,,,,,,,,,,"[""period""]",0,[0.33579999995231447],68,0,68,0,1,,
,,,,,,,,,,,,5e2d7770d70e4e367b8a6498,22,Mężczyzna,2022-06-11_09h29.26.951,task,2021.1.4,Win32,59.98440405,6299f149e92ead563fba08ef,62a442923c5b4b57e7b99e69,,,,,,,,,,,,,,,,,,,,,,,,,,,,,,,,,,,,,,,,,,,,,,,,,,,,,,,,,,,,,,,,,,,,,,,,,,,,,,,,,,,,,,,,,,,,"[""period""]",0,[0.15020000004756184],69,0,69,0,1,,
,,,,,,,,,,,,5e2d7770d70e4e367b8a6498,22,Mężczyzna,2022-06-11_09h29.26.951,task,2021.1.4,Win32,59.98440405,6299f149e92ead563fba08ef,62a442923c5b4b57e7b99e69,,,,,,,,,,,,,,,,,,,,,,,,,,,,,,,,,,,,,,,,,,,,,,,,,,,,,,,,,,,,,,,,,,,,,,,,,,,,,,,,,,,,,,,,,,,,"[""comma""]",0,[-0.03259999990450524],70,0,70,0,1,,
,,,,,,,,,,,,5e2d7770d70e4e367b8a6498,22,Mężczyzna,2022-06-11_09h29.26.951,task,2021.1.4,Win32,59.98440405,6299f149e92ead563fba08ef,62a442923c5b4b57e7b99e69,,,,,,,,,,,,,,,,,,,,,,,,,,,,,,,,,,,,,,,,,,,,,,,,,,,,,,,,,,,,,,,,,,,,,,,,,,,,,,,,,,,,,,,,,,,,"[""period""]",0,[0.30060000014304933],71,0,71,0,1,,
,,,,,,,,,,,,5e2d7770d70e4e367b8a6498,22,Mężczyzna,2022-06-11_09h29.26.951,task,2021.1.4,Win32,59.98440405,6299f149e92ead563fba08ef,62a442923c5b4b57e7b99e69,,,,,,,,,,,,,,,,,,,,,,,,,,,,,,,,,,,,,,,,,,,,,,,,,,,,,,,,,,,,,,,,,,,,,,,,,,,,,,,,,,,,,,,,,,,,"[""period""]",0,[0.3498999998569161],72,0,72,0,1,,
,,,,,,,,,,,,5e2d7770d70e4e367b8a6498,22,Mężczyzna,2022-06-11_09h29.26.951,task,2021.1.4,Win32,59.98440405,6299f149e92ead563fba08ef,62a442923c5b4b57e7b99e69,,,,,,,,,,,,,,,,,,,,,,,,,,,,,,,,,,,,,,,,,,,,,,,,,,,,,,,,,,,,,,,,,,,,,,,,,,,,,,,,,,,,,,,,,,,,"[""comma""]",0,[0.16709999990484903],73,0,73,0,1,,
,,,,,,,,,,,,5e2d7770d70e4e367b8a6498,22,Mężczyzna,2022-06-11_09h29.26.951,task,2021.1.4,Win32,59.98440405,6299f149e92ead563fba08ef,62a442923c5b4b57e7b99e69,,,,,,,,,,,,,,,,,,,,,,,,,,,,,,,,,,,,,,,,,,,,,,,,,,,,,,,,,,,,,,,,,,,,,,,,,,,,,,,,,,,,,,,,,,,,"[""period""]",0,[0.1172999999523654],74,0,74,0,1,,
,,,,,,,,,,,,5e2d7770d70e4e367b8a6498,22,Mężczyzna,2022-06-11_09h29.26.951,task,2021.1.4,Win32,59.98440405,6299f149e92ead563fba08ef,62a442923c5b4b57e7b99e69,,,,,,,,,,,,,,,,,,,,,,,,,,,,,,,,,,,,,,,,,,,,,,,,,,,,,,,,,,,,,,,,,,,,,,,,,,,,,,,,,,,,,,,,,,,,"[""period""]",0,[0.18429999995237267],75,0,75,0,1,,
,,,,,,,,,,,,5e2d7770d70e4e367b8a6498,22,Mężczyzna,2022-06-11_09h29.26.951,task,2021.1.4,Win32,59.98440405,6299f149e92ead563fba08ef,62a442923c5b4b57e7b99e69,,,,,,,,,,,,,,,,,,,,,,,,,,,,,,,,,,,,,,,,,,,,,,,,,,,,,,,,,,,,,,,,,,,,,,,,,,,,,,,,,,,,,,,,,,,,"[""comma""]",0,[0.38369999980932334],76,0,76,0,1,,
,,,,,,,,,,,,5e2d7770d70e4e367b8a6498,22,Mężczyzna,2022-06-11_09h29.26.951,task,2021.1.4,Win32,59.98440405,6299f149e92ead563fba08ef,62a442923c5b4b57e7b99e69,,,,,,,,,,,,,,,,,,,,,,,,,,,,,,,,,,,,,,,,,,,,,,,,,,,,,,,,,,,,,,,,,,,,,,,,,,,,,,,,,,,,,,,,,,,,"[""period""]",0,[0.28329999995230537],77,0,77,0,1,,
,,,,,,,,,,,,5e2d7770d70e4e367b8a6498,22,Mężczyzna,2022-06-11_09h29.26.951,task,2021.1.4,Win32,59.98440405,6299f149e92ead563fba08ef,62a442923c5b4b57e7b99e69,,,,,,,,,,,,,,,,,,,,,,,,,,,,,,,,,,,,,,,,,,,,,,,,,,,,,,,,,,,,,,,,,,,,,,,,,,,,,,,,,,,,,,,,,,,,"[""comma""]",0,[0.26669999980936154],78,0,78,0,1,,
,,,,,,,,,,,,5e2d7770d70e4e367b8a6498,22,Mężczyzna,2022-06-11_09h29.26.951,task,2021.1.4,Win32,59.98440405,6299f149e92ead563fba08ef,62a442923c5b4b57e7b99e69,,,,,,,,,,,,,,,,,,,,,,,,,,,,,,,,,,,,,,,,,,,,,,,,,,,,,,,,,,,,,,,,,,,,,,,,,,,,,,,,,,,,,,,,,,,,"[""comma""]",0,[0.40020000004756184],79,0,79,0,1,,
,,,,,,,,,,,,5e2d7770d70e4e367b8a6498,22,Mężczyzna,2022-06-11_09h29.26.951,task,2021.1.4,Win32,59.98440405,6299f149e92ead563fba08ef,62a442923c5b4b57e7b99e69,,,,,,,,,,,,,,,,,,,,,,,,,,,,,,,,,,,,,,,,,,,,,,,,,,,,,,,,,,,,,,,,,,,,,,,,,,,,,,,,,,,,,,,,,,,,"[""period""]",0,[0.31689999985701434],80,0,80,0,1,,
,,,,,,,,,,,,5e2d7770d70e4e367b8a6498,22,Mężczyzna,2022-06-11_09h29.26.951,task,2021.1.4,Win32,59.98440405,6299f149e92ead563fba08ef,62a442923c5b4b57e7b99e69,,,,,,,,,,,,,,,,,,,,,,,,,,,,,,,,,,,,,,,,,,,,,,,,,,,,,,,,,,,,,,,,,,,,,,,,,,,,,,,,,,,,,,,,,,,,"[""period""]",0,[0.33370000004765643],81,0,81,0,1,,
,,,,,,,,,,,,5e2d7770d70e4e367b8a6498,22,Mężczyzna,2022-06-11_09h29.26.951,task,2021.1.4,Win32,59.98440405,6299f149e92ead563fba08ef,62a442923c5b4b57e7b99e69,,,,,,,,,,,,,,,,,,,,,,,,,,,,,,,,,,,,,,,,,,,,,,,,,,,,,,,,,,,,,,,,,,,,,,,,,,,,,,,,,,,,,,,,,,,,"[""comma""]",0,[0.06700000000000728],82,0,82,0,1,,
,,,,,,,,,,,,5e2d7770d70e4e367b8a6498,22,Mężczyzna,2022-06-11_09h29.26.951,task,2021.1.4,Win32,59.98440405,6299f149e92ead563fba08ef,62a442923c5b4b57e7b99e69,,,,,,,,,,,,,,,,,,,,,,,,,,,,,,,,,,,,,,,,,,,,,,,,,,,,,,,,,,,,,,,,,,,,,,,,,,,,,,,,,,,,,,,,,,,,"[""period""]",0,[0.0003999998571089236],83,0,83,0,1,,
,,,,,,,,,,,,5e2d7770d70e4e367b8a6498,22,Mężczyzna,2022-06-11_09h29.26.951,task,2021.1.4,Win32,59.98440405,6299f149e92ead563fba08ef,62a442923c5b4b57e7b99e69,,,,,,,,,,,,,,,,,,,,,,,,,,,,,,,,,,,,,,,,,,,,,,,,,,,,,,,,,,,,,,,,,,,,,,,,,,,,,,,,,,,,,,,,,,,,"[""period""]",0,[0.23330000019063846],84,0,84,0,1,,
,,,,,,,,,,,,5e2d7770d70e4e367b8a6498,22,Mężczyzna,2022-06-11_09h29.26.951,task,2021.1.4,Win32,59.98440405,6299f149e92ead563fba08ef,62a442923c5b4b57e7b99e69,,,,,,,,,,,,,,,,,,,,,,,,,,,,,,,,,,,,,,,,,,,,,,,,,,,,,,,,,,,,,,,,,,,,,,,,,,,,,,,,,,,,,,,,,,,,"[""comma""]",0,[0.3005000000000564],85,0,85,0,1,,
,,,,,,,,,,,,5e2d7770d70e4e367b8a6498,22,Mężczyzna,2022-06-11_09h29.26.951,task,2021.1.4,Win32,59.98440405,6299f149e92ead563fba08ef,62a442923c5b4b57e7b99e69,,,,,,,,,,,,,,,,,,,,,,,,,,,,,,,,,,,,,,,,,,,,,,,,,,,,,,,,,,,,,,,,,,,,,,,,,,,,,,,,,,,,,,,,,,,,"[""comma""]",0,[0.2331000001429402],86,0,86,0,1,,
,,,,,,,,,,,,5e2d7770d70e4e367b8a6498,22,Mężczyzna,2022-06-11_09h29.26.951,task,2021.1.4,Win32,59.98440405,6299f149e92ead563fba08ef,62a442923c5b4b57e7b99e69,,,,,,,,,,,,,,,,,,,,,,,,,,,,,,,,,,,,,,,,,,,,,,,,,,,,,,,,,,,,,,,,,,,,,,,,,,,,,,,,,,,,,,,,,,,,"[""comma""]",0,[0.10020000004760732],87,0,87,0,1,,
,,,,,,,,,,,,5e2d7770d70e4e367b8a6498,22,Mężczyzna,2022-06-11_09h29.26.951,task,2021.1.4,Win32,59.98440405,6299f149e92ead563fba08ef,62a442923c5b4b57e7b99e69,,,,,,,,,,,,,,,,,,,,,,,,,,,,,,,,,,,,,,,,,,,,,,,,,,,,,,,,,,,,,,,,,,,,,,,,,,,,,,,,,,,,,,,,,,,,"[""comma"",""period""]",0,"[-0.01700000000005275,1.7829999999999018]",88,0,88,0,1,,
,,,,,,,,,,,,5e2d7770d70e4e367b8a6498,22,Mężczyzna,2022-06-11_09h29.26.951,task,2021.1.4,Win32,59.98440405,6299f149e92ead563fba08ef,62a442923c5b4b57e7b99e69,,,,,,,,,,,,,,,,,,,,,,,,,,,,,,,,,,,,,,,,,,,,,,,,,,,,,,,,,,,,,,,,,,,,,,,,,,,,,,,,,,,,,,,,,,,,,0,,89,0,89,0,1,,
,,,,,,,,,,,,5e2d7770d70e4e367b8a6498,22,Mężczyzna,2022-06-11_09h29.26.951,task,2021.1.4,Win32,59.98440405,6299f149e92ead563fba08ef,62a442923c5b4b57e7b99e69,,,,,,,,,,,,,,,,,,,,,,,,,,,,,,,,,,,,,,,,,,,,,,,,,,,,,,,,,,,,,,,,,,,,,,,,,,,,,,,,,,,,,,,,,,,,"[""comma""]",0,[0.26689999985683244],90,0,90,0,1,,
,,,,,,,,,,,,5e2d7770d70e4e367b8a6498,22,Mężczyzna,2022-06-11_09h29.26.951,task,2021.1.4,Win32,59.98440405,6299f149e92ead563fba08ef,62a442923c5b4b57e7b99e69,,,,,,,,,,,,,,,,,,,,,,,,,,,,,,,,,,,,,,,,,,,,,,,,,,,,,,,,,,,,,,,,,,,,,,,,,,,,,,,,,,,,,,,,,,,,"[""period""]",0,[0.2834000000952983],91,0,91,0,1,,
,,,,,,,,,,,,5e2d7770d70e4e367b8a6498,22,Mężczyzna,2022-06-11_09h29.26.951,task,2021.1.4,Win32,59.98440405,6299f149e92ead563fba08ef,62a442923c5b4b57e7b99e69,,,,,,,,,,,,,,,,,,,,,,,,,,,,,,,,,,,,,,,,,,,,,,,,,,,,,,,,,,,,,,,,,,,,,,,,,,,,,,,,,,,,,,,,,,,,"[""period""]",0,[0.31859999990456345],92,0,92,0,1,,
,,,,,,,,,,,,5e2d7770d70e4e367b8a6498,22,Mężczyzna,2022-06-11_09h29.26.951,task,2021.1.4,Win32,59.98440405,6299f149e92ead563fba08ef,62a442923c5b4b57e7b99e69,,,,,,,,,,,,,,,,,,,,,,,,,,,,,,,,,,,,,,,,,,,,,,,,,,,,,,,,,,,,,,,,,,,,,,,,,,,,,,,,,,,,,,,,,,,,"[""period""]",0,[0.35149999999998727],93,0,93,0,1,,
,,,,,,,,,,,,5e2d7770d70e4e367b8a6498,22,Mężczyzna,2022-06-11_09h29.26.951,task,2021.1.4,Win32,59.98440405,6299f149e92ead563fba08ef,62a442923c5b4b57e7b99e69,,,,,,,,,,,,,,,,,,,,,,,,,,,,,,,,,,,,,,,,,,,,,,,,,,,,,,,,,,,,,,,,,,,,,,,,,,,,,,,,,,,,,,,,,,,,"[""period""]",0,[0.417199999809327],94,0,94,0,1,,
,,,,,,,,,,,,5e2d7770d70e4e367b8a6498,22,Mężczyzna,2022-06-11_09h29.26.951,task,2021.1.4,Win32,59.98440405,6299f149e92ead563fba08ef,62a442923c5b4b57e7b99e69,,,,,,,,,,,,,,,,,,,,,,,,,,,,,,,,,,,,,,,,,,,,,,,,,,,,,,,,,,,,,,,,,,,,,,,,,,,,,,,,,,,,,,,,,,,,"[""comma""]",0,[0.3195999999047672],95,0,95,0,1,,
,,,,,,,,,,,,5e2d7770d70e4e367b8a6498,22,Mężczyzna,2022-06-11_09h29.26.951,task,2021.1.4,Win32,59.98440405,6299f149e92ead563fba08ef,62a442923c5b4b57e7b99e69,,,,,,,,,,,,,,,,,,,,,,,,,,,,,,,,,,,,,,,,,,,,,,,,,,,,,,,,,,,,,,,,,,,,,,,,,,,,,,,,,,,,,,,,,,,,"[""period""]",0,[0.3002999999523581],96,0,96,0,1,,
,,,,,,,,,,,,5e2d7770d70e4e367b8a6498,22,Mężczyzna,2022-06-11_09h29.26.951,task,2021.1.4,Win32,59.98440405,6299f149e92ead563fba08ef,62a442923c5b4b57e7b99e69,,,,,,,,,,,,,,,,,,,,,,,,,,,,,,,,,,,,,,,,,,,,,,,,,,,,,,,,,,,,,,,,,,,,,,,,,,,,,,,,,,,,,,,,,,,,"[""period""]",0,[0.2839999999998781],97,0,97,0,1,,
,,,,,,,,,,,,5e2d7770d70e4e367b8a6498,22,Mężczyzna,2022-06-11_09h29.26.951,task,2021.1.4,Win32,59.98440405,6299f149e92ead563fba08ef,62a442923c5b4b57e7b99e69,,,,,,,,,,,,,,,,,,,,,,,,,,,,,,,,,,,,,,,,,,,,,,,,,,,,,,,,,,,,,,,,,,,,,,,,,,,,,,,,,,,,,,,,,,,,"[""comma""]",0,[0.3337999999521344],98,0,98,0,1,,
,,,,,,,,,,,,5e2d7770d70e4e367b8a6498,22,Mężczyzna,2022-06-11_09h29.26.951,task,2021.1.4,Win32,59.98440405,6299f149e92ead563fba08ef,62a442923c5b4b57e7b99e69,,,,,,,,,,,,,,,,,,,,,,,,,,,,,,,,,,,,,,,,,,,,,,,,,,,,,,,,,,,,,,,,,,,,,,,,,,,,,,,,,,,,,,,,,,,,"[""comma"",""period""]",0,"[0.399899999857098,1.9515000000001237]",99,0,99,0,1,,
,,,,,,,,,,,,5e2d7770d70e4e367b8a6498,22,Mężczyzna,2022-06-11_09h29.26.951,task,2021.1.4,Win32,59.98440405,6299f149e92ead563fba08ef,62a442923c5b4b57e7b99e69,,,,,,,,,,,,,,,,,,,,,,,,,,,,,,,,,,,,,,,,,,,,,,,,,,,,,,,,,,,,,,,,,,,,,,,,,,,,,,,,,,,,,,,,,,,,,0,,100,0,100,0,1,,
,,,,,,,,,,,,5e2d7770d70e4e367b8a6498,22,Mężczyzna,2022-06-11_09h29.26.951,task,2021.1.4,Win32,59.98440405,6299f149e92ead563fba08ef,62a442923c5b4b57e7b99e69,,,,,,,,,,,,,,,,,,,,,,,,,,,,,,,,,,,,,,,,,,,,,,,,,,,,,,,,,,,,,,,,,,,,,,,,,,,,,,,,,,,,,,,,,,,,"[""comma""]",0,[0.21620000004759277],101,0,101,0,1,,
,,,,,,,,,,,,5e2d7770d70e4e367b8a6498,22,Mężczyzna,2022-06-11_09h29.26.951,task,2021.1.4,Win32,59.98440405,6299f149e92ead563fba08ef,62a442923c5b4b57e7b99e69,,,,,,,,,,,,,,,,,,,,,,,,,,,,,,,,,,,,,,,,,,,,,,,,,,,,,,,,,,,,,,,,,,,,,,,,,,,,,,,,,,,,,,,,,,,,"[""comma""]",0,[0.4341000001431894],102,0,102,0,1,,
,,,,,,,,,,,,5e2d7770d70e4e367b8a6498,22,Mężczyzna,2022-06-11_09h29.26.951,task,2021.1.4,Win32,59.98440405,6299f149e92ead563fba08ef,62a442923c5b4b57e7b99e69,,,,,,,,,,,,,,,,,,,,,,,,,,,,,,,,,,,,,,,,,,,,,,,,,,,,,,,,,,,,,,,,,,,,,,,,,,,,,,,,,,,,,,,,,,,,"[""period"",""period""]",0,"[0.36520000004770736,0.41620000004763824]",103,0,103,0,1,,
,,,,,,,,,,,,5e2d7770d70e4e367b8a6498,22,Mężczyzna,2022-06-11_09h29.26.951,task,2021.1.4,Win32,59.98440405,6299f149e92ead563fba08ef,62a442923c5b4b57e7b99e69,,,,,,,,,,,,,,,,,,,,,,,,,,,,,,,,,,,,,,,,,,,,,,,,,,,,,,,,,,,,,,,,,,,,,,,,,,,,,,,,,,,,,,,,,,,,"[""comma""]",0,[0.400800000190884],104,0,104,0,1,,
,,,,,,,,,,,,5e2d7770d70e4e367b8a6498,22,Mężczyzna,2022-06-11_09h29.26.951,task,2021.1.4,Win32,59.98440405,6299f149e92ead563fba08ef,62a442923c5b4b57e7b99e69,,,,,,,,,,,,,,,,,,,,,,,,,,,,,,,,,,,,,,,,,,,,,,,,,,,,,,,,,,,,,,,,,,,,,,,,,,,,,,,,,,,,,,,,,,,,"[""comma""]",0,[0.41679999995221806],105,0,105,0,1,,
,,,,,,,,,,,,5e2d7770d70e4e367b8a6498,22,Mężczyzna,2022-06-11_09h29.26.951,task,2021.1.4,Win32,59.98440405,6299f149e92ead563fba08ef,62a442923c5b4b57e7b99e69,,,,,,,,,,,,,,,,,,,,,,,,,,,,,,,,,,,,,,,,,,,,,,,,,,,,,,,,,,,,,,,,,,,,,,,,,,,,,,,,,,,,,,,,,,,,"[""comma""]",0,[0.40000000000009095],106,0,106,0,1,,
,,,,,,,,,,,,5e2d7770d70e4e367b8a6498,22,Mężczyzna,2022-06-11_09h29.26.951,task,2021.1.4,Win32,59.98440405,6299f149e92ead563fba08ef,62a442923c5b4b57e7b99e69,,,,,,,,,,,,,,,,,,,,,,,,,,,,,,,,,,,,,,,,,,,,,,,,,,,,,,,,,,,,,,,,,,,,,,,,,,,,,,,,,,,,,,,,,,,,"[""comma""]",0,[0.36649999999985994],107,0,107,0,1,,
,,,,,,,,,,,,5e2d7770d70e4e367b8a6498,22,Mężczyzna,2022-06-11_09h29.26.951,task,2021.1.4,Win32,59.98440405,6299f149e92ead563fba08ef,62a442923c5b4b57e7b99e69,,,,,,,,,,,,,,,,,,,,,,,,,,,,,,,,,,,,,,,,,,,,,,,,,,,,,,,,,,,,,,,,,,,,,,,,,,,,,,,,,,,,,,,,,,,,"[""period""]",0,[0.2990999999046835],108,0,108,0,1,,
,,,,,,,,,,,,5e2d7770d70e4e367b8a6498,22,Mężczyzna,2022-06-11_09h29.26.951,task,2021.1.4,Win32,59.98440405,6299f149e92ead563fba08ef,62a442923c5b4b57e7b99e69,,,,,,,,,,,,,,,,,,,,,,,,,,,,,,,,,,,,,,,,,,,,,,,,,,,,,,,,,,,,,,,,,,,,,,,,,,,,,,,,,,,,,,,,,,,,"[""period""]",0,[0.316799999952309],109,0,109,0,1,,
,,,,,,,,,,,,5e2d7770d70e4e367b8a6498,22,Mężczyzna,2022-06-11_09h29.26.951,task,2021.1.4,Win32,59.98440405,6299f149e92ead563fba08ef,62a442923c5b4b57e7b99e69,,,,,,,,,,,,,,,,,,,,,,,,,,,,,,,,,,,,,,,,,,,,,,,,,,,,,,,,,,,,,,,,,,,,,,,,,,,,,,,,,,,,,,,,,,,,"[""period""]",0,[0.4337999999522708],110,0,110,0,1,,
,,,,,,,,,,,,5e2d7770d70e4e367b8a6498,22,Mężczyzna,2022-06-11_09h29.26.951,task,2021.1.4,Win32,59.98440405,6299f149e92ead563fba08ef,62a442923c5b4b57e7b99e69,,,,,,,,,,,,,,,,,,,,,,,,,,,,,,,,,,,,,,,,,,,,,,,,,,,,,,,,,,,,,,,,,,,,,,,,,,,,,,,,,,,,,,,,,,,,"[""comma""]",0,[0.3510000000001128],111,0,111,0,1,,
,,,,,,,,,,,,5e2d7770d70e4e367b8a6498,22,Mężczyzna,2022-06-11_09h29.26.951,task,2021.1.4,Win32,59.98440405,6299f149e92ead563fba08ef,62a442923c5b4b57e7b99e69,,,,,,,,,,,,,,,,,,,,,,,,,,,,,,,,,,,,,,,,,,,,,,,,,,,,,,,,,,,,,,,,,,,,,,,,,,,,,,,,,,,,,,,,,,,,"[""period""]",0,[0.08370000004765643],112,0,112,0,1,,
,,,,,,,,,,,,5e2d7770d70e4e367b8a6498,22,Mężczyzna,2022-06-11_09h29.26.951,task,2021.1.4,Win32,59.98440405,6299f149e92ead563fba08ef,62a442923c5b4b57e7b99e69,,,,,,,,,,,,,,,,,,,,,,,,,,,,,,,,,,,,,,,,,,,,,,,,,,,,,,,,,,,,,,,,,,,,,,,,,,,,,,,,,,,,,,,,,,,,"[""period""]",0,[0.31690000009530195],113,0,113,0,1,,
,,,,,,,,,,,,5e2d7770d70e4e367b8a6498,22,Mężczyzna,2022-06-11_09h29.26.951,task,2021.1.4,Win32,59.98440405,6299f149e92ead563fba08ef,62a442923c5b4b57e7b99e69,,,,,,,,,,,,,,,,,,,,,,,,,,,,,,,,,,,,,,,,,,,,,,,,,,,,,,,,,,,,,,,,,,,,,,,,,,,,,,,,,,,,,,,,,,,,"[""comma""]",0,[0.033499999999776264],114,0,114,0,1,,
,,,,,,,,,,,,5e2d7770d70e4e367b8a6498,22,Mężczyzna,2022-06-11_09h29.26.951,task,2021.1.4,Win32,59.98440405,6299f149e92ead563fba08ef,62a442923c5b4b57e7b99e69,,,,,,,,,,,,,,,,,,,,,,,,,,,,,,,,,,,,,,,,,,,,,,,,,,,,,,,,,,,,,,,,,,,,,,,,,,,,,,,,,,,,,,,,,,,,"[""comma""]",0,[0.3504000000953056],115,0,115,0,1,,
,,,,,,,,,,,,5e2d7770d70e4e367b8a6498,22,Mężczyzna,2022-06-11_09h29.26.951,task,2021.1.4,Win32,59.98440405,6299f149e92ead563fba08ef,62a442923c5b4b57e7b99e69,,,,,,,,,,,,,,,,,,,,,,,,,,,,,,,,,,,,,,,,,,,,,,,,,,,,,,,,,,,,,,,,,,,,,,,,,,,,,,,,,,,,,,,,,,,,"[""comma""]",0,[0.3500999999046144],116,0,116,0,1,,
,,,,,,,,,,,,5e2d7770d70e4e367b8a6498,22,Mężczyzna,2022-06-11_09h29.26.951,task,2021.1.4,Win32,59.98440405,6299f149e92ead563fba08ef,62a442923c5b4b57e7b99e69,,,,,,,,,,,,,,,,,,,,,,,,,,,,,,,,,,,,,,,,,,,,,,,,,,,,,,,,,,,,,,,,,,,,,,,,,,,,,,,,,,,,,,,,,,,,"[""period""]",0,[0.03279999995220351],117,0,117,0,1,,
,,,,,,,,,,,,5e2d7770d70e4e367b8a6498,22,Mężczyzna,2022-06-11_09h29.26.951,task,2021.1.4,Win32,59.98440405,6299f149e92ead563fba08ef,62a442923c5b4b57e7b99e69,,,,,,,,,,,,,,,,,,,,,,,,,,,,,,,,,,,,,,,,,,,,,,,,,,,,,,,,,,,,,,,,,,,,,,,,,,,,,,,,,,,,,,,,,,,,"[""period""]",0,[0.28320000004760004],118,0,118,0,1,,
