key_resp_15.keys,key_resp_15.rt,key_resp_13.keys,key_resp_13.corr,key_resp_13.rt,ranodm_loop.thisRepN,ranodm_loop.thisTrialN,ranodm_loop.thisN,ranodm_loop.thisIndex,ranodm_loop.ran,participant,Wiek*,Płeć,date,expName,psychopyVersion,OS,frameRate,study_id,session,key_resp_16.keys,key_resp_16.rt,key_resp_4.keys,key_resp_4.rt,next_letter.thisRepN,next_letter.thisTrialN,next_letter.thisN,next_letter.thisIndex,next_letter.ran,letter,simple_recall,key_resp_5.keys,key_resp_5.rt,simple_recall_corr,simple_recall_corrkeys,next_level.thisRepN,next_level.thisTrialN,next_level.thisN,next_level.thisIndex,next_level.ran,key_resp_2.keys,key_resp_2.rt,digit_answer,key_resp.keys,key_resp.corr,key_resp.rt,RT_list,next_equation.thisRepN,next_equation.thisTrialN,next_equation.thisN,next_equation.thisIndex,next_equation.ran,Task,Trial,Problem,Operation_answer,processing_score,sumRT,meanRT,sumdiff,sd,RT,key_resp_3.keys,key_resp_3.rt,repeat_practice.thisRepN,repeat_practice.thisTrialN,repeat_practice.thisN,repeat_practice.thisIndex,repeat_practice.ran,key_resp_6.keys,key_resp_6.rt,key_resp_11.keys,key_resp_11.corr,key_resp_11.rt,operation_correct,repeat_if_wrong_prac.thisRepN,repeat_if_wrong_prac.thisTrialN,repeat_if_wrong_prac.thisN,repeat_if_wrong_prac.thisIndex,repeat_if_wrong_prac.ran,span_size_prac.thisRepN,span_size_prac.thisTrialN,span_size_prac.thisN,span_size_prac.thisIndex,span_size_prac.ran,complex_recall_practice,key_resp_9.keys,key_resp_9.corr,key_resp_9.rt,complex_prac_corr,span_recall_prac.thisRepN,span_recall_prac.thisTrialN,span_recall_prac.thisN,span_recall_prac.thisIndex,span_recall_prac.ran,key_resp_10.keys,key_resp_10.rt,key_resp_7.keys,key_resp_7.corr,key_resp_7.rt,repeat_if_wrong.thisRepN,repeat_if_wrong.thisTrialN,repeat_if_wrong.thisN,repeat_if_wrong.thisIndex,repeat_if_wrong.ran,span_size.thisRepN,span_size.thisTrialN,span_size.thisN,span_size.thisIndex,span_size.ran,complex_recall,key_resp_8.keys,key_resp_8.corr,key_resp_8.rt,complex_recall_corr,complex_recall_corrkeys,span_recall.thisRepN,span_recall.thisTrialN,span_recall.thisN,span_recall.thisIndex,span_recall.ran,key_resp_12.keys,key_resp_12.rt
space,15.4401,"[""comma""]",0,[0.8140999999996268],0,0,0,0,1,5e2f448d3d8aa150310b677b,28,Kobieta,2022-05-28_09h33.29.971,task,2021.1.4,Win32,58.91710364,628b806c463b948bc644b84f,6291d0224a3f7530e7a4a143,,,,,,,,,,,,,,,,,,,,,,,,,,,,,,,,,,,,,,,,,,,,,,,,,,,,,,,,,,,,,,,,,,,,,,,,,,,,,,,,,,,,,,,,,,,,,,,,,,,,,,,
,,"[""period""]",0,[0.6297000000001844],1,0,1,0,1,5e2f448d3d8aa150310b677b,28,Kobieta,2022-05-28_09h33.29.971,task,2021.1.4,Win32,58.91710364,628b806c463b948bc644b84f,6291d0224a3f7530e7a4a143,,,,,,,,,,,,,,,,,,,,,,,,,,,,,,,,,,,,,,,,,,,,,,,,,,,,,,,,,,,,,,,,,,,,,,,,,,,,,,,,,,,,,,,,,,,,,,,,,,,,,,,
,,"[""period""]",0,[0.4873999999994396],2,0,2,0,1,5e2f448d3d8aa150310b677b,28,Kobieta,2022-05-28_09h33.29.971,task,2021.1.4,Win32,58.91710364,628b806c463b948bc644b84f,6291d0224a3f7530e7a4a143,,,,,,,,,,,,,,,,,,,,,,,,,,,,,,,,,,,,,,,,,,,,,,,,,,,,,,,,,,,,,,,,,,,,,,,,,,,,,,,,,,,,,,,,,,,,,,,,,,,,,,,
,,"[""period""]",0,[0.3878999999994619],3,0,3,0,1,5e2f448d3d8aa150310b677b,28,Kobieta,2022-05-28_09h33.29.971,task,2021.1.4,Win32,58.91710364,628b806c463b948bc644b84f,6291d0224a3f7530e7a4a143,,,,,,,,,,,,,,,,,,,,,,,,,,,,,,,,,,,,,,,,,,,,,,,,,,,,,,,,,,,,,,,,,,,,,,,,,,,,,,,,,,,,,,,,,,,,,,,,,,,,,,,
,,"[""comma""]",0,[0.36520000000018626],4,0,4,0,1,5e2f448d3d8aa150310b677b,28,Kobieta,2022-05-28_09h33.29.971,task,2021.1.4,Win32,58.91710364,628b806c463b948bc644b84f,6291d0224a3f7530e7a4a143,,,,,,,,,,,,,,,,,,,,,,,,,,,,,,,,,,,,,,,,,,,,,,,,,,,,,,,,,,,,,,,,,,,,,,,,,,,,,,,,,,,,,,,,,,,,,,,,,,,,,,,
,,"[""period""]",0,[0.46859999999963975],5,0,5,0,1,5e2f448d3d8aa150310b677b,28,Kobieta,2022-05-28_09h33.29.971,task,2021.1.4,Win32,58.91710364,628b806c463b948bc644b84f,6291d0224a3f7530e7a4a143,,,,,,,,,,,,,,,,,,,,,,,,,,,,,,,,,,,,,,,,,,,,,,,,,,,,,,,,,,,,,,,,,,,,,,,,,,,,,,,,,,,,,,,,,,,,,,,,,,,,,,,
,,"[""comma""]",0,[0.4250999999996168],6,0,6,0,1,5e2f448d3d8aa150310b677b,28,Kobieta,2022-05-28_09h33.29.971,task,2021.1.4,Win32,58.91710364,628b806c463b948bc644b84f,6291d0224a3f7530e7a4a143,,,,,,,,,,,,,,,,,,,,,,,,,,,,,,,,,,,,,,,,,,,,,,,,,,,,,,,,,,,,,,,,,,,,,,,,,,,,,,,,,,,,,,,,,,,,,,,,,,,,,,,
,,"[""comma""]",0,[0.38379999999980896],7,0,7,0,1,5e2f448d3d8aa150310b677b,28,Kobieta,2022-05-28_09h33.29.971,task,2021.1.4,Win32,58.91710364,628b806c463b948bc644b84f,6291d0224a3f7530e7a4a143,,,,,,,,,,,,,,,,,,,,,,,,,,,,,,,,,,,,,,,,,,,,,,,,,,,,,,,,,,,,,,,,,,,,,,,,,,,,,,,,,,,,,,,,,,,,,,,,,,,,,,,
,,"[""period""]",0,[0.4730000000000132],8,0,8,0,1,5e2f448d3d8aa150310b677b,28,Kobieta,2022-05-28_09h33.29.971,task,2021.1.4,Win32,58.91710364,628b806c463b948bc644b84f,6291d0224a3f7530e7a4a143,,,,,,,,,,,,,,,,,,,,,,,,,,,,,,,,,,,,,,,,,,,,,,,,,,,,,,,,,,,,,,,,,,,,,,,,,,,,,,,,,,,,,,,,,,,,,,,,,,,,,,,
,,"[""comma""]",0,[0.3870999999996343],9,0,9,0,1,5e2f448d3d8aa150310b677b,28,Kobieta,2022-05-28_09h33.29.971,task,2021.1.4,Win32,58.91710364,628b806c463b948bc644b84f,6291d0224a3f7530e7a4a143,,,,,,,,,,,,,,,,,,,,,,,,,,,,,,,,,,,,,,,,,,,,,,,,,,,,,,,,,,,,,,,,,,,,,,,,,,,,,,,,,,,,,,,,,,,,,,,,,,,,,,,
,,"[""period""]",0,[0.43200000000001637],10,0,10,0,1,5e2f448d3d8aa150310b677b,28,Kobieta,2022-05-28_09h33.29.971,task,2021.1.4,Win32,58.91710364,628b806c463b948bc644b84f,6291d0224a3f7530e7a4a143,,,,,,,,,,,,,,,,,,,,,,,,,,,,,,,,,,,,,,,,,,,,,,,,,,,,,,,,,,,,,,,,,,,,,,,,,,,,,,,,,,,,,,,,,,,,,,,,,,,,,,,
,,"[""comma""]",0,[0.33749999999997726],11,0,11,0,1,5e2f448d3d8aa150310b677b,28,Kobieta,2022-05-28_09h33.29.971,task,2021.1.4,Win32,58.91710364,628b806c463b948bc644b84f,6291d0224a3f7530e7a4a143,,,,,,,,,,,,,,,,,,,,,,,,,,,,,,,,,,,,,,,,,,,,,,,,,,,,,,,,,,,,,,,,,,,,,,,,,,,,,,,,,,,,,,,,,,,,,,,,,,,,,,,
,,"[""comma""]",0,[0.40889999999942006],12,0,12,0,1,5e2f448d3d8aa150310b677b,28,Kobieta,2022-05-28_09h33.29.971,task,2021.1.4,Win32,58.91710364,628b806c463b948bc644b84f,6291d0224a3f7530e7a4a143,,,,,,,,,,,,,,,,,,,,,,,,,,,,,,,,,,,,,,,,,,,,,,,,,,,,,,,,,,,,,,,,,,,,,,,,,,,,,,,,,,,,,,,,,,,,,,,,,,,,,,,
,,"[""period""]",0,[0.29239999999944644],13,0,13,0,1,5e2f448d3d8aa150310b677b,28,Kobieta,2022-05-28_09h33.29.971,task,2021.1.4,Win32,58.91710364,628b806c463b948bc644b84f,6291d0224a3f7530e7a4a143,,,,,,,,,,,,,,,,,,,,,,,,,,,,,,,,,,,,,,,,,,,,,,,,,,,,,,,,,,,,,,,,,,,,,,,,,,,,,,,,,,,,,,,,,,,,,,,,,,,,,,,
,,"[""comma""]",0,[0.335899999999441],14,0,14,0,1,5e2f448d3d8aa150310b677b,28,Kobieta,2022-05-28_09h33.29.971,task,2021.1.4,Win32,58.91710364,628b806c463b948bc644b84f,6291d0224a3f7530e7a4a143,,,,,,,,,,,,,,,,,,,,,,,,,,,,,,,,,,,,,,,,,,,,,,,,,,,,,,,,,,,,,,,,,,,,,,,,,,,,,,,,,,,,,,,,,,,,,,,,,,,,,,,
,,"[""comma""]",0,[0.33549999999999613],15,0,15,0,1,5e2f448d3d8aa150310b677b,28,Kobieta,2022-05-28_09h33.29.971,task,2021.1.4,Win32,58.91710364,628b806c463b948bc644b84f,6291d0224a3f7530e7a4a143,,,,,,,,,,,,,,,,,,,,,,,,,,,,,,,,,,,,,,,,,,,,,,,,,,,,,,,,,,,,,,,,,,,,,,,,,,,,,,,,,,,,,,,,,,,,,,,,,,,,,,,
,,"[""comma""]",0,[0.28140000000036025],16,0,16,0,1,5e2f448d3d8aa150310b677b,28,Kobieta,2022-05-28_09h33.29.971,task,2021.1.4,Win32,58.91710364,628b806c463b948bc644b84f,6291d0224a3f7530e7a4a143,,,,,,,,,,,,,,,,,,,,,,,,,,,,,,,,,,,,,,,,,,,,,,,,,,,,,,,,,,,,,,,,,,,,,,,,,,,,,,,,,,,,,,,,,,,,,,,,,,,,,,,
,,"[""period""]",0,[0.28649999999998954],17,0,17,0,1,5e2f448d3d8aa150310b677b,28,Kobieta,2022-05-28_09h33.29.971,task,2021.1.4,Win32,58.91710364,628b806c463b948bc644b84f,6291d0224a3f7530e7a4a143,,,,,,,,,,,,,,,,,,,,,,,,,,,,,,,,,,,,,,,,,,,,,,,,,,,,,,,,,,,,,,,,,,,,,,,,,,,,,,,,,,,,,,,,,,,,,,,,,,,,,,,
,,"[""comma""]",0,[0.3183999999994569],18,0,18,0,1,5e2f448d3d8aa150310b677b,28,Kobieta,2022-05-28_09h33.29.971,task,2021.1.4,Win32,58.91710364,628b806c463b948bc644b84f,6291d0224a3f7530e7a4a143,,,,,,,,,,,,,,,,,,,,,,,,,,,,,,,,,,,,,,,,,,,,,,,,,,,,,,,,,,,,,,,,,,,,,,,,,,,,,,,,,,,,,,,,,,,,,,,,,,,,,,,
,,"[""period""]",0,[0.36870000000018877],19,0,19,0,1,5e2f448d3d8aa150310b677b,28,Kobieta,2022-05-28_09h33.29.971,task,2021.1.4,Win32,58.91710364,628b806c463b948bc644b84f,6291d0224a3f7530e7a4a143,,,,,,,,,,,,,,,,,,,,,,,,,,,,,,,,,,,,,,,,,,,,,,,,,,,,,,,,,,,,,,,,,,,,,,,,,,,,,,,,,,,,,,,,,,,,,,,,,,,,,,,
,,"[""period""]",0,[0.2845000000000084],20,0,20,0,1,5e2f448d3d8aa150310b677b,28,Kobieta,2022-05-28_09h33.29.971,task,2021.1.4,Win32,58.91710364,628b806c463b948bc644b84f,6291d0224a3f7530e7a4a143,,,,,,,,,,,,,,,,,,,,,,,,,,,,,,,,,,,,,,,,,,,,,,,,,,,,,,,,,,,,,,,,,,,,,,,,,,,,,,,,,,,,,,,,,,,,,,,,,,,,,,,
,,"[""comma""]",0,[0.3319000000003882],21,0,21,0,1,5e2f448d3d8aa150310b677b,28,Kobieta,2022-05-28_09h33.29.971,task,2021.1.4,Win32,58.91710364,628b806c463b948bc644b84f,6291d0224a3f7530e7a4a143,,,,,,,,,,,,,,,,,,,,,,,,,,,,,,,,,,,,,,,,,,,,,,,,,,,,,,,,,,,,,,,,,,,,,,,,,,,,,,,,,,,,,,,,,,,,,,,,,,,,,,,
,,"[""period""]",0,[0.37240000000036844],22,0,22,0,1,5e2f448d3d8aa150310b677b,28,Kobieta,2022-05-28_09h33.29.971,task,2021.1.4,Win32,58.91710364,628b806c463b948bc644b84f,6291d0224a3f7530e7a4a143,,,,,,,,,,,,,,,,,,,,,,,,,,,,,,,,,,,,,,,,,,,,,,,,,,,,,,,,,,,,,,,,,,,,,,,,,,,,,,,,,,,,,,,,,,,,,,,,,,,,,,,
,,"[""comma""]",0,[0.24070000000017444],23,0,23,0,1,5e2f448d3d8aa150310b677b,28,Kobieta,2022-05-28_09h33.29.971,task,2021.1.4,Win32,58.91710364,628b806c463b948bc644b84f,6291d0224a3f7530e7a4a143,,,,,,,,,,,,,,,,,,,,,,,,,,,,,,,,,,,,,,,,,,,,,,,,,,,,,,,,,,,,,,,,,,,,,,,,,,,,,,,,,,,,,,,,,,,,,,,,,,,,,,,
,,"[""comma""]",0,[0.21479999999979782],24,0,24,0,1,5e2f448d3d8aa150310b677b,28,Kobieta,2022-05-28_09h33.29.971,task,2021.1.4,Win32,58.91710364,628b806c463b948bc644b84f,6291d0224a3f7530e7a4a143,,,,,,,,,,,,,,,,,,,,,,,,,,,,,,,,,,,,,,,,,,,,,,,,,,,,,,,,,,,,,,,,,,,,,,,,,,,,,,,,,,,,,,,,,,,,,,,,,,,,,,,
,,"[""comma""]",0,[0.3177000000001726],25,0,25,0,1,5e2f448d3d8aa150310b677b,28,Kobieta,2022-05-28_09h33.29.971,task,2021.1.4,Win32,58.91710364,628b806c463b948bc644b84f,6291d0224a3f7530e7a4a143,,,,,,,,,,,,,,,,,,,,,,,,,,,,,,,,,,,,,,,,,,,,,,,,,,,,,,,,,,,,,,,,,,,,,,,,,,,,,,,,,,,,,,,,,,,,,,,,,,,,,,,
,,"[""comma""]",0,[0.5905999999996254],26,0,26,0,1,5e2f448d3d8aa150310b677b,28,Kobieta,2022-05-28_09h33.29.971,task,2021.1.4,Win32,58.91710364,628b806c463b948bc644b84f,6291d0224a3f7530e7a4a143,,,,,,,,,,,,,,,,,,,,,,,,,,,,,,,,,,,,,,,,,,,,,,,,,,,,,,,,,,,,,,,,,,,,,,,,,,,,,,,,,,,,,,,,,,,,,,,,,,,,,,,
,,"[""period""]",0,[0.40559999999962315],27,0,27,0,1,5e2f448d3d8aa150310b677b,28,Kobieta,2022-05-28_09h33.29.971,task,2021.1.4,Win32,58.91710364,628b806c463b948bc644b84f,6291d0224a3f7530e7a4a143,,,,,,,,,,,,,,,,,,,,,,,,,,,,,,,,,,,,,,,,,,,,,,,,,,,,,,,,,,,,,,,,,,,,,,,,,,,,,,,,,,,,,,,,,,,,,,,,,,,,,,,
,,"[""comma""]",0,[0.3574999999999875],28,0,28,0,1,5e2f448d3d8aa150310b677b,28,Kobieta,2022-05-28_09h33.29.971,task,2021.1.4,Win32,58.91710364,628b806c463b948bc644b84f,6291d0224a3f7530e7a4a143,,,,,,,,,,,,,,,,,,,,,,,,,,,,,,,,,,,,,,,,,,,,,,,,,,,,,,,,,,,,,,,,,,,,,,,,,,,,,,,,,,,,,,,,,,,,,,,,,,,,,,,
,,"[""period""]",0,[0.3727999999998133],29,0,29,0,1,5e2f448d3d8aa150310b677b,28,Kobieta,2022-05-28_09h33.29.971,task,2021.1.4,Win32,58.91710364,628b806c463b948bc644b84f,6291d0224a3f7530e7a4a143,,,,,,,,,,,,,,,,,,,,,,,,,,,,,,,,,,,,,,,,,,,,,,,,,,,,,,,,,,,,,,,,,,,,,,,,,,,,,,,,,,,,,,,,,,,,,,,,,,,,,,,
,,"[""period""]",0,[0.31639999999944735],30,0,30,0,1,5e2f448d3d8aa150310b677b,28,Kobieta,2022-05-28_09h33.29.971,task,2021.1.4,Win32,58.91710364,628b806c463b948bc644b84f,6291d0224a3f7530e7a4a143,,,,,,,,,,,,,,,,,,,,,,,,,,,,,,,,,,,,,,,,,,,,,,,,,,,,,,,,,,,,,,,,,,,,,,,,,,,,,,,,,,,,,,,,,,,,,,,,,,,,,,,
,,"[""period""]",0,[0.3235999999996295],31,0,31,0,1,5e2f448d3d8aa150310b677b,28,Kobieta,2022-05-28_09h33.29.971,task,2021.1.4,Win32,58.91710364,628b806c463b948bc644b84f,6291d0224a3f7530e7a4a143,,,,,,,,,,,,,,,,,,,,,,,,,,,,,,,,,,,,,,,,,,,,,,,,,,,,,,,,,,,,,,,,,,,,,,,,,,,,,,,,,,,,,,,,,,,,,,,,,,,,,,,
,,"[""comma""]",0,[0.3817999999997994],32,0,32,0,1,5e2f448d3d8aa150310b677b,28,Kobieta,2022-05-28_09h33.29.971,task,2021.1.4,Win32,58.91710364,628b806c463b948bc644b84f,6291d0224a3f7530e7a4a143,,,,,,,,,,,,,,,,,,,,,,,,,,,,,,,,,,,,,,,,,,,,,,,,,,,,,,,,,,,,,,,,,,,,,,,,,,,,,,,,,,,,,,,,,,,,,,,,,,,,,,,
,,"[""period""]",0,[0.39859999999961815],33,0,33,0,1,5e2f448d3d8aa150310b677b,28,Kobieta,2022-05-28_09h33.29.971,task,2021.1.4,Win32,58.91710364,628b806c463b948bc644b84f,6291d0224a3f7530e7a4a143,,,,,,,,,,,,,,,,,,,,,,,,,,,,,,,,,,,,,,,,,,,,,,,,,,,,,,,,,,,,,,,,,,,,,,,,,,,,,,,,,,,,,,,,,,,,,,,,,,,,,,,
,,"[""comma""]",0,[0.5057000000001892],34,0,34,0,1,5e2f448d3d8aa150310b677b,28,Kobieta,2022-05-28_09h33.29.971,task,2021.1.4,Win32,58.91710364,628b806c463b948bc644b84f,6291d0224a3f7530e7a4a143,,,,,,,,,,,,,,,,,,,,,,,,,,,,,,,,,,,,,,,,,,,,,,,,,,,,,,,,,,,,,,,,,,,,,,,,,,,,,,,,,,,,,,,,,,,,,,,,,,,,,,,
,,"[""period""]",0,[0.31940000000037116],35,0,35,0,1,5e2f448d3d8aa150310b677b,28,Kobieta,2022-05-28_09h33.29.971,task,2021.1.4,Win32,58.91710364,628b806c463b948bc644b84f,6291d0224a3f7530e7a4a143,,,,,,,,,,,,,,,,,,,,,,,,,,,,,,,,,,,,,,,,,,,,,,,,,,,,,,,,,,,,,,,,,,,,,,,,,,,,,,,,,,,,,,,,,,,,,,,,,,,,,,,
,,"[""comma""]",0,[0.21579999999983102],36,0,36,0,1,5e2f448d3d8aa150310b677b,28,Kobieta,2022-05-28_09h33.29.971,task,2021.1.4,Win32,58.91710364,628b806c463b948bc644b84f,6291d0224a3f7530e7a4a143,,,,,,,,,,,,,,,,,,,,,,,,,,,,,,,,,,,,,,,,,,,,,,,,,,,,,,,,,,,,,,,,,,,,,,,,,,,,,,,,,,,,,,,,,,,,,,,,,,,,,,,
,,"[""period""]",0,[0.7147000000001924],37,0,37,0,1,5e2f448d3d8aa150310b677b,28,Kobieta,2022-05-28_09h33.29.971,task,2021.1.4,Win32,58.91710364,628b806c463b948bc644b84f,6291d0224a3f7530e7a4a143,,,,,,,,,,,,,,,,,,,,,,,,,,,,,,,,,,,,,,,,,,,,,,,,,,,,,,,,,,,,,,,,,,,,,,,,,,,,,,,,,,,,,,,,,,,,,,,,,,,,,,,
,,"[""period""]",0,[0.4076000000005706],38,0,38,0,1,5e2f448d3d8aa150310b677b,28,Kobieta,2022-05-28_09h33.29.971,task,2021.1.4,Win32,58.91710364,628b806c463b948bc644b84f,6291d0224a3f7530e7a4a143,,,,,,,,,,,,,,,,,,,,,,,,,,,,,,,,,,,,,,,,,,,,,,,,,,,,,,,,,,,,,,,,,,,,,,,,,,,,,,,,,,,,,,,,,,,,,,,,,,,,,,,
,,"[""comma""]",0,[0.3850000000000193],39,0,39,0,1,5e2f448d3d8aa150310b677b,28,Kobieta,2022-05-28_09h33.29.971,task,2021.1.4,Win32,58.91710364,628b806c463b948bc644b84f,6291d0224a3f7530e7a4a143,,,,,,,,,,,,,,,,,,,,,,,,,,,,,,,,,,,,,,,,,,,,,,,,,,,,,,,,,,,,,,,,,,,,,,,,,,,,,,,,,,,,,,,,,,,,,,,,,,,,,,,
,,"[""period""]",0,[0.3587999999998033],40,0,40,0,1,5e2f448d3d8aa150310b677b,28,Kobieta,2022-05-28_09h33.29.971,task,2021.1.4,Win32,58.91710364,628b806c463b948bc644b84f,6291d0224a3f7530e7a4a143,,,,,,,,,,,,,,,,,,,,,,,,,,,,,,,,,,,,,,,,,,,,,,,,,,,,,,,,,,,,,,,,,,,,,,,,,,,,,,,,,,,,,,,,,,,,,,,,,,,,,,,
,,"[""comma""]",0,[0.2820000000000107],41,0,41,0,1,5e2f448d3d8aa150310b677b,28,Kobieta,2022-05-28_09h33.29.971,task,2021.1.4,Win32,58.91710364,628b806c463b948bc644b84f,6291d0224a3f7530e7a4a143,,,,,,,,,,,,,,,,,,,,,,,,,,,,,,,,,,,,,,,,,,,,,,,,,,,,,,,,,,,,,,,,,,,,,,,,,,,,,,,,,,,,,,,,,,,,,,,,,,,,,,,
,,"[""period""]",0,[0.33149999999997704],42,0,42,0,1,5e2f448d3d8aa150310b677b,28,Kobieta,2022-05-28_09h33.29.971,task,2021.1.4,Win32,58.91710364,628b806c463b948bc644b84f,6291d0224a3f7530e7a4a143,,,,,,,,,,,,,,,,,,,,,,,,,,,,,,,,,,,,,,,,,,,,,,,,,,,,,,,,,,,,,,,,,,,,,,,,,,,,,,,,,,,,,,,,,,,,,,,,,,,,,,,
,,"[""comma""]",0,[0.5031999999992536],43,0,43,0,1,5e2f448d3d8aa150310b677b,28,Kobieta,2022-05-28_09h33.29.971,task,2021.1.4,Win32,58.91710364,628b806c463b948bc644b84f,6291d0224a3f7530e7a4a143,,,,,,,,,,,,,,,,,,,,,,,,,,,,,,,,,,,,,,,,,,,,,,,,,,,,,,,,,,,,,,,,,,,,,,,,,,,,,,,,,,,,,,,,,,,,,,,,,,,,,,,
,,"[""comma""]",0,[0.39099999999999113],44,0,44,0,1,5e2f448d3d8aa150310b677b,28,Kobieta,2022-05-28_09h33.29.971,task,2021.1.4,Win32,58.91710364,628b806c463b948bc644b84f,6291d0224a3f7530e7a4a143,,,,,,,,,,,,,,,,,,,,,,,,,,,,,,,,,,,,,,,,,,,,,,,,,,,,,,,,,,,,,,,,,,,,,,,,,,,,,,,,,,,,,,,,,,,,,,,,,,,,,,,
,,"[""comma""]",0,[0.4994999999999834],45,0,45,0,1,5e2f448d3d8aa150310b677b,28,Kobieta,2022-05-28_09h33.29.971,task,2021.1.4,Win32,58.91710364,628b806c463b948bc644b84f,6291d0224a3f7530e7a4a143,,,,,,,,,,,,,,,,,,,,,,,,,,,,,,,,,,,,,,,,,,,,,,,,,,,,,,,,,,,,,,,,,,,,,,,,,,,,,,,,,,,,,,,,,,,,,,,,,,,,,,,
,,"[""period""]",0,[0.35890000000037503],46,0,46,0,1,5e2f448d3d8aa150310b677b,28,Kobieta,2022-05-28_09h33.29.971,task,2021.1.4,Win32,58.91710364,628b806c463b948bc644b84f,6291d0224a3f7530e7a4a143,,,,,,,,,,,,,,,,,,,,,,,,,,,,,,,,,,,,,,,,,,,,,,,,,,,,,,,,,,,,,,,,,,,,,,,,,,,,,,,,,,,,,,,,,,,,,,,,,,,,,,,
,,"[""comma""]",0,[0.34089999999946485],47,0,47,0,1,5e2f448d3d8aa150310b677b,28,Kobieta,2022-05-28_09h33.29.971,task,2021.1.4,Win32,58.91710364,628b806c463b948bc644b84f,6291d0224a3f7530e7a4a143,,,,,,,,,,,,,,,,,,,,,,,,,,,,,,,,,,,,,,,,,,,,,,,,,,,,,,,,,,,,,,,,,,,,,,,,,,,,,,,,,,,,,,,,,,,,,,,,,,,,,,,
,,"[""period""]",0,[0.3332000000001756],48,0,48,0,1,5e2f448d3d8aa150310b677b,28,Kobieta,2022-05-28_09h33.29.971,task,2021.1.4,Win32,58.91710364,628b806c463b948bc644b84f,6291d0224a3f7530e7a4a143,,,,,,,,,,,,,,,,,,,,,,,,,,,,,,,,,,,,,,,,,,,,,,,,,,,,,,,,,,,,,,,,,,,,,,,,,,,,,,,,,,,,,,,,,,,,,,,,,,,,,,,
,,"[""comma""]",0,[0.282100000000554],49,0,49,0,1,5e2f448d3d8aa150310b677b,28,Kobieta,2022-05-28_09h33.29.971,task,2021.1.4,Win32,58.91710364,628b806c463b948bc644b84f,6291d0224a3f7530e7a4a143,,,,,,,,,,,,,,,,,,,,,,,,,,,,,,,,,,,,,,,,,,,,,,,,,,,,,,,,,,,,,,,,,,,,,,,,,,,,,,,,,,,,,,,,,,,,,,,,,,,,,,,
,,"[""period"",""comma""]",0,"[0.024499999999989086,1.7650000000000148]",50,0,50,0,1,5e2f448d3d8aa150310b677b,28,Kobieta,2022-05-28_09h33.29.971,task,2021.1.4,Win32,58.91710364,628b806c463b948bc644b84f,6291d0224a3f7530e7a4a143,,,,,,,,,,,,,,,,,,,,,,,,,,,,,,,,,,,,,,,,,,,,,,,,,,,,,,,,,,,,,,,,,,,,,,,,,,,,,,,,,,,,,,,,,,,,,,,,,,,,,,,
,,"[""comma""]",0,[1.6871000000005552],51,0,51,0,1,5e2f448d3d8aa150310b677b,28,Kobieta,2022-05-28_09h33.29.971,task,2021.1.4,Win32,58.91710364,628b806c463b948bc644b84f,6291d0224a3f7530e7a4a143,,,,,,,,,,,,,,,,,,,,,,,,,,,,,,,,,,,,,,,,,,,,,,,,,,,,,,,,,,,,,,,,,,,,,,,,,,,,,,,,,,,,,,,,,,,,,,,,,,,,,,,
,,"[""period""]",0,[1.14809999999963],52,0,52,0,1,5e2f448d3d8aa150310b677b,28,Kobieta,2022-05-28_09h33.29.971,task,2021.1.4,Win32,58.91710364,628b806c463b948bc644b84f,6291d0224a3f7530e7a4a143,,,,,,,,,,,,,,,,,,,,,,,,,,,,,,,,,,,,,,,,,,,,,,,,,,,,,,,,,,,,,,,,,,,,,,,,,,,,,,,,,,,,,,,,,,,,,,,,,,,,,,,
,,"[""comma""]",0,[0.6661000000005686],53,0,53,0,1,5e2f448d3d8aa150310b677b,28,Kobieta,2022-05-28_09h33.29.971,task,2021.1.4,Win32,58.91710364,628b806c463b948bc644b84f,6291d0224a3f7530e7a4a143,,,,,,,,,,,,,,,,,,,,,,,,,,,,,,,,,,,,,,,,,,,,,,,,,,,,,,,,,,,,,,,,,,,,,,,,,,,,,,,,,,,,,,,,,,,,,,,,,,,,,,,
,,"[""period""]",0,[0.32209999999963657],54,0,54,0,1,5e2f448d3d8aa150310b677b,28,Kobieta,2022-05-28_09h33.29.971,task,2021.1.4,Win32,58.91710364,628b806c463b948bc644b84f,6291d0224a3f7530e7a4a143,,,,,,,,,,,,,,,,,,,,,,,,,,,,,,,,,,,,,,,,,,,,,,,,,,,,,,,,,,,,,,,,,,,,,,,,,,,,,,,,,,,,,,,,,,,,,,,,,,,,,,,
,,"[""period""]",0,[0.24039999999945394],55,0,55,0,1,5e2f448d3d8aa150310b677b,28,Kobieta,2022-05-28_09h33.29.971,task,2021.1.4,Win32,58.91710364,628b806c463b948bc644b84f,6291d0224a3f7530e7a4a143,,,,,,,,,,,,,,,,,,,,,,,,,,,,,,,,,,,,,,,,,,,,,,,,,,,,,,,,,,,,,,,,,,,,,,,,,,,,,,,,,,,,,,,,,,,,,,,,,,,,,,,
,,"[""period""]",0,[0.2658999999994194],56,0,56,0,1,5e2f448d3d8aa150310b677b,28,Kobieta,2022-05-28_09h33.29.971,task,2021.1.4,Win32,58.91710364,628b806c463b948bc644b84f,6291d0224a3f7530e7a4a143,,,,,,,,,,,,,,,,,,,,,,,,,,,,,,,,,,,,,,,,,,,,,,,,,,,,,,,,,,,,,,,,,,,,,,,,,,,,,,,,,,,,,,,,,,,,,,,,,,,,,,,
,,"[""period""]",0,[0.15899999999999181],57,0,57,0,1,5e2f448d3d8aa150310b677b,28,Kobieta,2022-05-28_09h33.29.971,task,2021.1.4,Win32,58.91710364,628b806c463b948bc644b84f,6291d0224a3f7530e7a4a143,,,,,,,,,,,,,,,,,,,,,,,,,,,,,,,,,,,,,,,,,,,,,,,,,,,,,,,,,,,,,,,,,,,,,,,,,,,,,,,,,,,,,,,,,,,,,,,,,,,,,,,
,,"[""comma""]",0,[0.27490000000037185],58,0,58,0,1,5e2f448d3d8aa150310b677b,28,Kobieta,2022-05-28_09h33.29.971,task,2021.1.4,Win32,58.91710364,628b806c463b948bc644b84f,6291d0224a3f7530e7a4a143,,,,,,,,,,,,,,,,,,,,,,,,,,,,,,,,,,,,,,,,,,,,,,,,,,,,,,,,,,,,,,,,,,,,,,,,,,,,,,,,,,,,,,,,,,,,,,,,,,,,,,,
,,"[""comma""]",0,[0.4392999999998324],59,0,59,0,1,5e2f448d3d8aa150310b677b,28,Kobieta,2022-05-28_09h33.29.971,task,2021.1.4,Win32,58.91710364,628b806c463b948bc644b84f,6291d0224a3f7530e7a4a143,,,,,,,,,,,,,,,,,,,,,,,,,,,,,,,,,,,,,,,,,,,,,,,,,,,,,,,,,,,,,,,,,,,,,,,,,,,,,,,,,,,,,,,,,,,,,,,,,,,,,,,
,,"[""period""]",0,[0.320099999999627],60,0,60,0,1,5e2f448d3d8aa150310b677b,28,Kobieta,2022-05-28_09h33.29.971,task,2021.1.4,Win32,58.91710364,628b806c463b948bc644b84f,6291d0224a3f7530e7a4a143,,,,,,,,,,,,,,,,,,,,,,,,,,,,,,,,,,,,,,,,,,,,,,,,,,,,,,,,,,,,,,,,,,,,,,,,,,,,,,,,,,,,,,,,,,,,,,,,,,,,,,,
,,"[""comma""]",0,[0.35949999999999704],61,0,61,0,1,5e2f448d3d8aa150310b677b,28,Kobieta,2022-05-28_09h33.29.971,task,2021.1.4,Win32,58.91710364,628b806c463b948bc644b84f,6291d0224a3f7530e7a4a143,,,,,,,,,,,,,,,,,,,,,,,,,,,,,,,,,,,,,,,,,,,,,,,,,,,,,,,,,,,,,,,,,,,,,,,,,,,,,,,,,,,,,,,,,,,,,,,,,,,,,,,
,,"[""period""]",0,[0.28009999999960655],62,0,62,0,1,5e2f448d3d8aa150310b677b,28,Kobieta,2022-05-28_09h33.29.971,task,2021.1.4,Win32,58.91710364,628b806c463b948bc644b84f,6291d0224a3f7530e7a4a143,,,,,,,,,,,,,,,,,,,,,,,,,,,,,,,,,,,,,,,,,,,,,,,,,,,,,,,,,,,,,,,,,,,,,,,,,,,,,,,,,,,,,,,,,,,,,,,,,,,,,,,
,,"[""period""]",0,[0.18790000000035434],63,0,63,0,1,5e2f448d3d8aa150310b677b,28,Kobieta,2022-05-28_09h33.29.971,task,2021.1.4,Win32,58.91710364,628b806c463b948bc644b84f,6291d0224a3f7530e7a4a143,,,,,,,,,,,,,,,,,,,,,,,,,,,,,,,,,,,,,,,,,,,,,,,,,,,,,,,,,,,,,,,,,,,,,,,,,,,,,,,,,,,,,,,,,,,,,,,,,,,,,,,
,,"[""comma""]",0,[0.60450000000003],64,0,64,0,1,5e2f448d3d8aa150310b677b,28,Kobieta,2022-05-28_09h33.29.971,task,2021.1.4,Win32,58.91710364,628b806c463b948bc644b84f,6291d0224a3f7530e7a4a143,,,,,,,,,,,,,,,,,,,,,,,,,,,,,,,,,,,,,,,,,,,,,,,,,,,,,,,,,,,,,,,,,,,,,,,,,,,,,,,,,,,,,,,,,,,,,,,,,,,,,,,
,,"[""comma""]",0,[0.5222999999998024],65,0,65,0,1,5e2f448d3d8aa150310b677b,28,Kobieta,2022-05-28_09h33.29.971,task,2021.1.4,Win32,58.91710364,628b806c463b948bc644b84f,6291d0224a3f7530e7a4a143,,,,,,,,,,,,,,,,,,,,,,,,,,,,,,,,,,,,,,,,,,,,,,,,,,,,,,,,,,,,,,,,,,,,,,,,,,,,,,,,,,,,,,,,,,,,,,,,,,,,,,,
,,"[""period""]",0,[0.3909000000003857],66,0,66,0,1,5e2f448d3d8aa150310b677b,28,Kobieta,2022-05-28_09h33.29.971,task,2021.1.4,Win32,58.91710364,628b806c463b948bc644b84f,6291d0224a3f7530e7a4a143,,,,,,,,,,,,,,,,,,,,,,,,,,,,,,,,,,,,,,,,,,,,,,,,,,,,,,,,,,,,,,,,,,,,,,,,,,,,,,,,,,,,,,,,,,,,,,,,,,,,,,,
,,"[""comma""]",0,[0.35020000000014306],67,0,67,0,1,5e2f448d3d8aa150310b677b,28,Kobieta,2022-05-28_09h33.29.971,task,2021.1.4,Win32,58.91710364,628b806c463b948bc644b84f,6291d0224a3f7530e7a4a143,,,,,,,,,,,,,,,,,,,,,,,,,,,,,,,,,,,,,,,,,,,,,,,,,,,,,,,,,,,,,,,,,,,,,,,,,,,,,,,,,,,,,,,,,,,,,,,,,,,,,,,
,,"[""period""]",0,[0.2715000000000032],68,0,68,0,1,5e2f448d3d8aa150310b677b,28,Kobieta,2022-05-28_09h33.29.971,task,2021.1.4,Win32,58.91710364,628b806c463b948bc644b84f,6291d0224a3f7530e7a4a143,,,,,,,,,,,,,,,,,,,,,,,,,,,,,,,,,,,,,,,,,,,,,,,,,,,,,,,,,,,,,,,,,,,,,,,,,,,,,,,,,,,,,,,,,,,,,,,,,,,,,,,
,,"[""comma"",""period""]",0,"[0.2026000000005297,1.7332000000001813]",69,0,69,0,1,5e2f448d3d8aa150310b677b,28,Kobieta,2022-05-28_09h33.29.971,task,2021.1.4,Win32,58.91710364,628b806c463b948bc644b84f,6291d0224a3f7530e7a4a143,,,,,,,,,,,,,,,,,,,,,,,,,,,,,,,,,,,,,,,,,,,,,,,,,,,,,,,,,,,,,,,,,,,,,,,,,,,,,,,,,,,,,,,,,,,,,,,,,,,,,,,
,,,0,,70,0,70,0,1,5e2f448d3d8aa150310b677b,28,Kobieta,2022-05-28_09h33.29.971,task,2021.1.4,Win32,58.91710364,628b806c463b948bc644b84f,6291d0224a3f7530e7a4a143,,,,,,,,,,,,,,,,,,,,,,,,,,,,,,,,,,,,,,,,,,,,,,,,,,,,,,,,,,,,,,,,,,,,,,,,,,,,,,,,,,,,,,,,,,,,,,,,,,,,,,,
,,"[""period""]",0,[0.3224999999999909],71,0,71,0,1,5e2f448d3d8aa150310b677b,28,Kobieta,2022-05-28_09h33.29.971,task,2021.1.4,Win32,58.91710364,628b806c463b948bc644b84f,6291d0224a3f7530e7a4a143,,,,,,,,,,,,,,,,,,,,,,,,,,,,,,,,,,,,,,,,,,,,,,,,,,,,,,,,,,,,,,,,,,,,,,,,,,,,,,,,,,,,,,,,,,,,,,,,,,,,,,,
,,"[""comma""]",0,[0.3492999999998574],72,0,72,0,1,5e2f448d3d8aa150310b677b,28,Kobieta,2022-05-28_09h33.29.971,task,2021.1.4,Win32,58.91710364,628b806c463b948bc644b84f,6291d0224a3f7530e7a4a143,,,,,,,,,,,,,,,,,,,,,,,,,,,,,,,,,,,,,,,,,,,,,,,,,,,,,,,,,,,,,,,,,,,,,,,,,,,,,,,,,,,,,,,,,,,,,,,,,,,,,,,
,,"[""comma""]",0,[0.44990000000041164],73,0,73,0,1,5e2f448d3d8aa150310b677b,28,Kobieta,2022-05-28_09h33.29.971,task,2021.1.4,Win32,58.91710364,628b806c463b948bc644b84f,6291d0224a3f7530e7a4a143,,,,,,,,,,,,,,,,,,,,,,,,,,,,,,,,,,,,,,,,,,,,,,,,,,,,,,,,,,,,,,,,,,,,,,,,,,,,,,,,,,,,,,,,,,,,,,,,,,,,,,,
,,"[""period""]",0,[0.2822999999998501],74,0,74,0,1,5e2f448d3d8aa150310b677b,28,Kobieta,2022-05-28_09h33.29.971,task,2021.1.4,Win32,58.91710364,628b806c463b948bc644b84f,6291d0224a3f7530e7a4a143,,,,,,,,,,,,,,,,,,,,,,,,,,,,,,,,,,,,,,,,,,,,,,,,,,,,,,,,,,,,,,,,,,,,,,,,,,,,,,,,,,,,,,,,,,,,,,,,,,,,,,,
,,"[""comma""]",0,[0.2750999999996111],75,0,75,0,1,5e2f448d3d8aa150310b677b,28,Kobieta,2022-05-28_09h33.29.971,task,2021.1.4,Win32,58.91710364,628b806c463b948bc644b84f,6291d0224a3f7530e7a4a143,,,,,,,,,,,,,,,,,,,,,,,,,,,,,,,,,,,,,,,,,,,,,,,,,,,,,,,,,,,,,,,,,,,,,,,,,,,,,,,,,,,,,,,,,,,,,,,,,,,,,,,
,,"[""period""]",0,[0.31559999999961974],76,0,76,0,1,5e2f448d3d8aa150310b677b,28,Kobieta,2022-05-28_09h33.29.971,task,2021.1.4,Win32,58.91710364,628b806c463b948bc644b84f,6291d0224a3f7530e7a4a143,,,,,,,,,,,,,,,,,,,,,,,,,,,,,,,,,,,,,,,,,,,,,,,,,,,,,,,,,,,,,,,,,,,,,,,,,,,,,,,,,,,,,,,,,,,,,,,,,,,,,,,
,,"[""comma""]",0,[0.34829999999976735],77,0,77,0,1,5e2f448d3d8aa150310b677b,28,Kobieta,2022-05-28_09h33.29.971,task,2021.1.4,Win32,58.91710364,628b806c463b948bc644b84f,6291d0224a3f7530e7a4a143,,,,,,,,,,,,,,,,,,,,,,,,,,,,,,,,,,,,,,,,,,,,,,,,,,,,,,,,,,,,,,,,,,,,,,,,,,,,,,,,,,,,,,,,,,,,,,,,,,,,,,,
,,"[""period""]",0,[0.24910000000056698],78,0,78,0,1,5e2f448d3d8aa150310b677b,28,Kobieta,2022-05-28_09h33.29.971,task,2021.1.4,Win32,58.91710364,628b806c463b948bc644b84f,6291d0224a3f7530e7a4a143,,,,,,,,,,,,,,,,,,,,,,,,,,,,,,,,,,,,,,,,,,,,,,,,,,,,,,,,,,,,,,,,,,,,,,,,,,,,,,,,,,,,,,,,,,,,,,,,,,,,,,,
,,"[""period""]",0,[0.30510000000055015],79,0,79,0,1,5e2f448d3d8aa150310b677b,28,Kobieta,2022-05-28_09h33.29.971,task,2021.1.4,Win32,58.91710364,628b806c463b948bc644b84f,6291d0224a3f7530e7a4a143,,,,,,,,,,,,,,,,,,,,,,,,,,,,,,,,,,,,,,,,,,,,,,,,,,,,,,,,,,,,,,,,,,,,,,,,,,,,,,,,,,,,,,,,,,,,,,,,,,,,,,,
,,"[""comma""]",0,[0.2986000000005333],80,0,80,0,1,5e2f448d3d8aa150310b677b,28,Kobieta,2022-05-28_09h33.29.971,task,2021.1.4,Win32,58.91710364,628b806c463b948bc644b84f,6291d0224a3f7530e7a4a143,,,,,,,,,,,,,,,,,,,,,,,,,,,,,,,,,,,,,,,,,,,,,,,,,,,,,,,,,,,,,,,,,,,,,,,,,,,,,,,,,,,,,,,,,,,,,,,,,,,,,,,
,,"[""comma""]",0,[0.4660000000000082],81,0,81,0,1,5e2f448d3d8aa150310b677b,28,Kobieta,2022-05-28_09h33.29.971,task,2021.1.4,Win32,58.91710364,628b806c463b948bc644b84f,6291d0224a3f7530e7a4a143,,,,,,,,,,,,,,,,,,,,,,,,,,,,,,,,,,,,,,,,,,,,,,,,,,,,,,,,,,,,,,,,,,,,,,,,,,,,,,,,,,,,,,,,,,,,,,,,,,,,,,,
,,"[""period""]",0,[0.3173000000007278],82,0,82,0,1,5e2f448d3d8aa150310b677b,28,Kobieta,2022-05-28_09h33.29.971,task,2021.1.4,Win32,58.91710364,628b806c463b948bc644b84f,6291d0224a3f7530e7a4a143,,,,,,,,,,,,,,,,,,,,,,,,,,,,,,,,,,,,,,,,,,,,,,,,,,,,,,,,,,,,,,,,,,,,,,,,,,,,,,,,,,,,,,,,,,,,,,,,,,,,,,,
,,"[""period""]",0,[0.3328999999994835],83,0,83,0,1,5e2f448d3d8aa150310b677b,28,Kobieta,2022-05-28_09h33.29.971,task,2021.1.4,Win32,58.91710364,628b806c463b948bc644b84f,6291d0224a3f7530e7a4a143,,,,,,,,,,,,,,,,,,,,,,,,,,,,,,,,,,,,,,,,,,,,,,,,,,,,,,,,,,,,,,,,,,,,,,,,,,,,,,,,,,,,,,,,,,,,,,,,,,,,,,,
,,"[""period""]",0,[0.36549999999999727],84,0,84,0,1,5e2f448d3d8aa150310b677b,28,Kobieta,2022-05-28_09h33.29.971,task,2021.1.4,Win32,58.91710364,628b806c463b948bc644b84f,6291d0224a3f7530e7a4a143,,,,,,,,,,,,,,,,,,,,,,,,,,,,,,,,,,,,,,,,,,,,,,,,,,,,,,,,,,,,,,,,,,,,,,,,,,,,,,,,,,,,,,,,,,,,,,,,,,,,,,,
,,"[""comma""]",0,[0.21509999999966567],85,0,85,0,1,5e2f448d3d8aa150310b677b,28,Kobieta,2022-05-28_09h33.29.971,task,2021.1.4,Win32,58.91710364,628b806c463b948bc644b84f,6291d0224a3f7530e7a4a143,,,,,,,,,,,,,,,,,,,,,,,,,,,,,,,,,,,,,,,,,,,,,,,,,,,,,,,,,,,,,,,,,,,,,,,,,,,,,,,,,,,,,,,,,,,,,,,,,,,,,,,
,,"[""period""]",0,[0.32509999999962247],86,0,86,0,1,5e2f448d3d8aa150310b677b,28,Kobieta,2022-05-28_09h33.29.971,task,2021.1.4,Win32,58.91710364,628b806c463b948bc644b84f,6291d0224a3f7530e7a4a143,,,,,,,,,,,,,,,,,,,,,,,,,,,,,,,,,,,,,,,,,,,,,,,,,,,,,,,,,,,,,,,,,,,,,,,,,,,,,,,,,,,,,,,,,,,,,,,,,,,,,,,
,,"[""comma""]",0,[0.4172999999997842],87,0,87,0,1,5e2f448d3d8aa150310b677b,28,Kobieta,2022-05-28_09h33.29.971,task,2021.1.4,Win32,58.91710364,628b806c463b948bc644b84f,6291d0224a3f7530e7a4a143,,,,,,,,,,,,,,,,,,,,,,,,,,,,,,,,,,,,,,,,,,,,,,,,,,,,,,,,,,,,,,,,,,,,,,,,,,,,,,,,,,,,,,,,,,,,,,,,,,,,,,,
,,"[""comma""]",0,[0.4185999999996284],88,0,88,0,1,5e2f448d3d8aa150310b677b,28,Kobieta,2022-05-28_09h33.29.971,task,2021.1.4,Win32,58.91710364,628b806c463b948bc644b84f,6291d0224a3f7530e7a4a143,,,,,,,,,,,,,,,,,,,,,,,,,,,,,,,,,,,,,,,,,,,,,,,,,,,,,,,,,,,,,,,,,,,,,,,,,,,,,,,,,,,,,,,,,,,,,,,,,,,,,,,
,,"[""period""]",0,[0.3407000000001972],89,0,89,0,1,5e2f448d3d8aa150310b677b,28,Kobieta,2022-05-28_09h33.29.971,task,2021.1.4,Win32,58.91710364,628b806c463b948bc644b84f,6291d0224a3f7530e7a4a143,,,,,,,,,,,,,,,,,,,,,,,,,,,,,,,,,,,,,,,,,,,,,,,,,,,,,,,,,,,,,,,,,,,,,,,,,,,,,,,,,,,,,,,,,,,,,,,,,,,,,,,
,,"[""comma"",""period""]",0,"[0.21539999999947668,1.9713999999994485]",90,0,90,0,1,5e2f448d3d8aa150310b677b,28,Kobieta,2022-05-28_09h33.29.971,task,2021.1.4,Win32,58.91710364,628b806c463b948bc644b84f,6291d0224a3f7530e7a4a143,,,,,,,,,,,,,,,,,,,,,,,,,,,,,,,,,,,,,,,,,,,,,,,,,,,,,,,,,,,,,,,,,,,,,,,,,,,,,,,,,,,,,,,,,,,,,,,,,,,,,,,
,,,0,,91,0,91,0,1,5e2f448d3d8aa150310b677b,28,Kobieta,2022-05-28_09h33.29.971,task,2021.1.4,Win32,58.91710364,628b806c463b948bc644b84f,6291d0224a3f7530e7a4a143,,,,,,,,,,,,,,,,,,,,,,,,,,,,,,,,,,,,,,,,,,,,,,,,,,,,,,,,,,,,,,,,,,,,,,,,,,,,,,,,,,,,,,,,,,,,,,,,,,,,,,,
,,"[""comma"",""period""]",0,"[0.047400000000379805,1.8841000000005579]",92,0,92,0,1,5e2f448d3d8aa150310b677b,28,Kobieta,2022-05-28_09h33.29.971,task,2021.1.4,Win32,58.91710364,628b806c463b948bc644b84f,6291d0224a3f7530e7a4a143,,,,,,,,,,,,,,,,,,,,,,,,,,,,,,,,,,,,,,,,,,,,,,,,,,,,,,,,,,,,,,,,,,,,,,,,,,,,,,,,,,,,,,,,,,,,,,,,,,,,,,,
,,"[""comma""]",0,[1.7830999999995925],93,0,93,0,1,5e2f448d3d8aa150310b677b,28,Kobieta,2022-05-28_09h33.29.971,task,2021.1.4,Win32,58.91710364,628b806c463b948bc644b84f,6291d0224a3f7530e7a4a143,,,,,,,,,,,,,,,,,,,,,,,,,,,,,,,,,,,,,,,,,,,,,,,,,,,,,,,,,,,,,,,,,,,,,,,,,,,,,,,,,,,,,,,,,,,,,,,,,,,,,,,
,,,0,,94,0,94,0,1,5e2f448d3d8aa150310b677b,28,Kobieta,2022-05-28_09h33.29.971,task,2021.1.4,Win32,58.91710364,628b806c463b948bc644b84f,6291d0224a3f7530e7a4a143,,,,,,,,,,,,,,,,,,,,,,,,,,,,,,,,,,,,,,,,,,,,,,,,,,,,,,,,,,,,,,,,,,,,,,,,,,,,,,,,,,,,,,,,,,,,,,,,,,,,,,,
,,"[""period""]",0,[0.11519999999927677],95,0,95,0,1,5e2f448d3d8aa150310b677b,28,Kobieta,2022-05-28_09h33.29.971,task,2021.1.4,Win32,58.91710364,628b806c463b948bc644b84f,6291d0224a3f7530e7a4a143,,,,,,,,,,,,,,,,,,,,,,,,,,,,,,,,,,,,,,,,,,,,,,,,,,,,,,,,,,,,,,,,,,,,,,,,,,,,,,,,,,,,,,,,,,,,,,,,,,,,,,,
,,"[""comma"",""comma""]",0,"[-0.01809999999966294,1.3479000000003794]",96,0,96,0,1,5e2f448d3d8aa150310b677b,28,Kobieta,2022-05-28_09h33.29.971,task,2021.1.4,Win32,58.91710364,628b806c463b948bc644b84f,6291d0224a3f7530e7a4a143,,,,,,,,,,,,,,,,,,,,,,,,,,,,,,,,,,,,,,,,,,,,,,,,,,,,,,,,,,,,,,,,,,,,,,,,,,,,,,,,,,,,,,,,,,,,,,,,,,,,,,,
,,"[""comma""]",0,[0.8149999999999977],97,0,97,0,1,5e2f448d3d8aa150310b677b,28,Kobieta,2022-05-28_09h33.29.971,task,2021.1.4,Win32,58.91710364,628b806c463b948bc644b84f,6291d0224a3f7530e7a4a143,,,,,,,,,,,,,,,,,,,,,,,,,,,,,,,,,,,,,,,,,,,,,,,,,,,,,,,,,,,,,,,,,,,,,,,,,,,,,,,,,,,,,,,,,,,,,,,,,,,,,,,
,,"[""period""]",0,[0.5034000000003402],98,0,98,0,1,5e2f448d3d8aa150310b677b,28,Kobieta,2022-05-28_09h33.29.971,task,2021.1.4,Win32,58.91710364,628b806c463b948bc644b84f,6291d0224a3f7530e7a4a143,,,,,,,,,,,,,,,,,,,,,,,,,,,,,,,,,,,,,,,,,,,,,,,,,,,,,,,,,,,,,,,,,,,,,,,,,,,,,,,,,,,,,,,,,,,,,,,,,,,,,,,
,,"[""period"",""comma""]",0,"[0.3556000000005497,1.8192999999998278]",99,0,99,0,1,5e2f448d3d8aa150310b677b,28,Kobieta,2022-05-28_09h33.29.971,task,2021.1.4,Win32,58.91710364,628b806c463b948bc644b84f,6291d0224a3f7530e7a4a143,,,,,,,,,,,,,,,,,,,,,,,,,,,,,,,,,,,,,,,,,,,,,,,,,,,,,,,,,,,,,,,,,,,,,,,,,,,,,,,,,,,,,,,,,,,,,,,,,,,,,,,
,,"[""period""]",0,[1.3104999999999905],100,0,100,0,1,5e2f448d3d8aa150310b677b,28,Kobieta,2022-05-28_09h33.29.971,task,2021.1.4,Win32,58.91710364,628b806c463b948bc644b84f,6291d0224a3f7530e7a4a143,,,,,,,,,,,,,,,,,,,,,,,,,,,,,,,,,,,,,,,,,,,,,,,,,,,,,,,,,,,,,,,,,,,,,,,,,,,,,,,,,,,,,,,,,,,,,,,,,,,,,,,
,,"[""comma""]",0,[1.488999999999976],101,0,101,0,1,5e2f448d3d8aa150310b677b,28,Kobieta,2022-05-28_09h33.29.971,task,2021.1.4,Win32,58.91710364,628b806c463b948bc644b84f,6291d0224a3f7530e7a4a143,,,,,,,,,,,,,,,,,,,,,,,,,,,,,,,,,,,,,,,,,,,,,,,,,,,,,,,,,,,,,,,,,,,,,,,,,,,,,,,,,,,,,,,,,,,,,,,,,,,,,,,
,,"[""period""]",0,[1.3234999999999673],102,0,102,0,1,5e2f448d3d8aa150310b677b,28,Kobieta,2022-05-28_09h33.29.971,task,2021.1.4,Win32,58.91710364,628b806c463b948bc644b84f,6291d0224a3f7530e7a4a143,,,,,,,,,,,,,,,,,,,,,,,,,,,,,,,,,,,,,,,,,,,,,,,,,,,,,,,,,,,,,,,,,,,,,,,,,,,,,,,,,,,,,,,,,,,,,,,,,,,,,,,
,,"[""comma""]",0,[1.0924999999999727],103,0,103,0,1,5e2f448d3d8aa150310b677b,28,Kobieta,2022-05-28_09h33.29.971,task,2021.1.4,Win32,58.91710364,628b806c463b948bc644b84f,6291d0224a3f7530e7a4a143,,,,,,,,,,,,,,,,,,,,,,,,,,,,,,,,,,,,,,,,,,,,,,,,,,,,,,,,,,,,,,,,,,,,,,,,,,,,,,,,,,,,,,,,,,,,,,,,,,,,,,,
,,"[""comma""]",0,[1.0220999999996252],104,0,104,0,1,5e2f448d3d8aa150310b677b,28,Kobieta,2022-05-28_09h33.29.971,task,2021.1.4,Win32,58.91710364,628b806c463b948bc644b84f,6291d0224a3f7530e7a4a143,,,,,,,,,,,,,,,,,,,,,,,,,,,,,,,,,,,,,,,,,,,,,,,,,,,,,,,,,,,,,,,,,,,,,,,,,,,,,,,,,,,,,,,,,,,,,,,,,,,,,,,
,,"[""period""]",0,[1.4020999999996206],105,0,105,0,1,5e2f448d3d8aa150310b677b,28,Kobieta,2022-05-28_09h33.29.971,task,2021.1.4,Win32,58.91710364,628b806c463b948bc644b84f,6291d0224a3f7530e7a4a143,,,,,,,,,,,,,,,,,,,,,,,,,,,,,,,,,,,,,,,,,,,,,,,,,,,,,,,,,,,,,,,,,,,,,,,,,,,,,,,,,,,,,,,,,,,,,,,,,,,,,,,
,,"[""period""]",0,[1.149000000000001],106,0,106,0,1,5e2f448d3d8aa150310b677b,28,Kobieta,2022-05-28_09h33.29.971,task,2021.1.4,Win32,58.91710364,628b806c463b948bc644b84f,6291d0224a3f7530e7a4a143,,,,,,,,,,,,,,,,,,,,,,,,,,,,,,,,,,,,,,,,,,,,,,,,,,,,,,,,,,,,,,,,,,,,,,,,,,,,,,,,,,,,,,,,,,,,,,,,,,,,,,,
,,"[""period""]",0,[1.146099999999592],107,0,107,0,1,5e2f448d3d8aa150310b677b,28,Kobieta,2022-05-28_09h33.29.971,task,2021.1.4,Win32,58.91710364,628b806c463b948bc644b84f,6291d0224a3f7530e7a4a143,,,,,,,,,,,,,,,,,,,,,,,,,,,,,,,,,,,,,,,,,,,,,,,,,,,,,,,,,,,,,,,,,,,,,,,,,,,,,,,,,,,,,,,,,,,,,,,,,,,,,,,
,,"[""comma""]",0,[1.3239000000003784],108,0,108,0,1,5e2f448d3d8aa150310b677b,28,Kobieta,2022-05-28_09h33.29.971,task,2021.1.4,Win32,58.91710364,628b806c463b948bc644b84f,6291d0224a3f7530e7a4a143,,,,,,,,,,,,,,,,,,,,,,,,,,,,,,,,,,,,,,,,,,,,,,,,,,,,,,,,,,,,,,,,,,,,,,,,,,,,,,,,,,,,,,,,,,,,,,,,,,,,,,,
,,"[""period""]",0,[0.9254000000003657],109,0,109,0,1,5e2f448d3d8aa150310b677b,28,Kobieta,2022-05-28_09h33.29.971,task,2021.1.4,Win32,58.91710364,628b806c463b948bc644b84f,6291d0224a3f7530e7a4a143,,,,,,,,,,,,,,,,,,,,,,,,,,,,,,,,,,,,,,,,,,,,,,,,,,,,,,,,,,,,,,,,,,,,,,,,,,,,,,,,,,,,,,,,,,,,,,,,,,,,,,,
,,"[""comma"",""period""]",0,"[0.6235999999996125,1.9432999999998515]",110,0,110,0,1,5e2f448d3d8aa150310b677b,28,Kobieta,2022-05-28_09h33.29.971,task,2021.1.4,Win32,58.91710364,628b806c463b948bc644b84f,6291d0224a3f7530e7a4a143,,,,,,,,,,,,,,,,,,,,,,,,,,,,,,,,,,,,,,,,,,,,,,,,,,,,,,,,,,,,,,,,,,,,,,,,,,,,,,,,,,,,,,,,,,,,,,,,,,,,,,,
,,"[""comma""]",0,[1.504099999999596],111,0,111,0,1,5e2f448d3d8aa150310b677b,28,Kobieta,2022-05-28_09h33.29.971,task,2021.1.4,Win32,58.91710364,628b806c463b948bc644b84f,6291d0224a3f7530e7a4a143,,,,,,,,,,,,,,,,,,,,,,,,,,,,,,,,,,,,,,,,,,,,,,,,,,,,,,,,,,,,,,,,,,,,,,,,,,,,,,,,,,,,,,,,,,,,,,,,,,,,,,,
,,"[""comma"",""period""]",0,"[0.7839999999999918,1.8816000000005602]",112,0,112,0,1,5e2f448d3d8aa150310b677b,28,Kobieta,2022-05-28_09h33.29.971,task,2021.1.4,Win32,58.91710364,628b806c463b948bc644b84f,6291d0224a3f7530e7a4a143,,,,,,,,,,,,,,,,,,,,,,,,,,,,,,,,,,,,,,,,,,,,,,,,,,,,,,,,,,,,,,,,,,,,,,,,,,,,,,,,,,,,,,,,,,,,,,,,,,,,,,,
,,"[""comma""]",0,[1.344099999999628],113,0,113,0,1,5e2f448d3d8aa150310b677b,28,Kobieta,2022-05-28_09h33.29.971,task,2021.1.4,Win32,58.91710364,628b806c463b948bc644b84f,6291d0224a3f7530e7a4a143,,,,,,,,,,,,,,,,,,,,,,,,,,,,,,,,,,,,,,,,,,,,,,,,,,,,,,,,,,,,,,,,,,,,,,,,,,,,,,,,,,,,,,,,,,,,,,,,,,,,,,,
,,"[""period""]",0,[0.8978999999994812],114,0,114,0,1,5e2f448d3d8aa150310b677b,28,Kobieta,2022-05-28_09h33.29.971,task,2021.1.4,Win32,58.91710364,628b806c463b948bc644b84f,6291d0224a3f7530e7a4a143,,,,,,,,,,,,,,,,,,,,,,,,,,,,,,,,,,,,,,,,,,,,,,,,,,,,,,,,,,,,,,,,,,,,,,,,,,,,,,,,,,,,,,,,,,,,,,,,,,,,,,,
,,"[""comma"",""comma""]",0,"[0.20079999999984466,1.7761999999992781]",115,0,115,0,1,5e2f448d3d8aa150310b677b,28,Kobieta,2022-05-28_09h33.29.971,task,2021.1.4,Win32,58.91710364,628b806c463b948bc644b84f,6291d0224a3f7530e7a4a143,,,,,,,,,,,,,,,,,,,,,,,,,,,,,,,,,,,,,,,,,,,,,,,,,,,,,,,,,,,,,,,,,,,,,,,,,,,,,,,,,,,,,,,,,,,,,,,,,,,,,,,
,,"[""comma""]",0,[1.39870000000019],116,0,116,0,1,5e2f448d3d8aa150310b677b,28,Kobieta,2022-05-28_09h33.29.971,task,2021.1.4,Win32,58.91710364,628b806c463b948bc644b84f,6291d0224a3f7530e7a4a143,,,,,,,,,,,,,,,,,,,,,,,,,,,,,,,,,,,,,,,,,,,,,,,,,,,,,,,,,,,,,,,,,,,,,,,,,,,,,,,,,,,,,,,,,,,,,,,,,,,,,,,
,,"[""period""]",0,[0.8653000000007296],117,0,117,0,1,5e2f448d3d8aa150310b677b,28,Kobieta,2022-05-28_09h33.29.971,task,2021.1.4,Win32,58.91710364,628b806c463b948bc644b84f,6291d0224a3f7530e7a4a143,,,,,,,,,,,,,,,,,,,,,,,,,,,,,,,,,,,,,,,,,,,,,,,,,,,,,,,,,,,,,,,,,,,,,,,,,,,,,,,,,,,,,,,,,,,,,,,,,,,,,,,
,,"[""period""]",0,[0.3552999999998292],118,0,118,0,1,5e2f448d3d8aa150310b677b,28,Kobieta,2022-05-28_09h33.29.971,task,2021.1.4,Win32,58.91710364,628b806c463b948bc644b84f,6291d0224a3f7530e7a4a143,,,,,,,,,,,,,,,,,,,,,,,,,,,,,,,,,,,,,,,,,,,,,,,,,,,,,,,,,,,,,,,,,,,,,,,,,,,,,,,,,,,,,,,,,,,,,,,,,,,,,,,
,,"[""comma"",""comma""]",0,"[0.19889999999946895,1.5453999999994608]",119,0,119,0,1,5e2f448d3d8aa150310b677b,28,Kobieta,2022-05-28_09h33.29.971,task,2021.1.4,Win32,58.91710364,628b806c463b948bc644b84f,6291d0224a3f7530e7a4a143,,,,,,,,,,,,,,,,,,,,,,,,,,,,,,,,,,,,,,,,,,,,,,,,,,,,,,,,,,,,,,,,,,,,,,,,,,,,,,,,,,,,,,,,,,,,,,,,,,,,,,,
,,,,,,,,,,5e2f448d3d8aa150310b677b,28,Kobieta,2022-05-28_09h33.29.971,task,2021.1.4,Win32,58.91710364,628b806c463b948bc644b84f,6291d0224a3f7530e7a4a143,space,22.1353,space,19.2964,0,0,0,0,1,"X V Q F H G B L J M P D K C T S W R N Z
",,,,,,,,,,,,,,,,,,,,,,,,,,,,,,,,,,,,,,,,,,,,,,,,,,,,,,,,,,,,,,,,,,,,,,,,,,,,,,,,,,,,,,,,,,,,,
,,,,,,,,,,5e2f448d3d8aa150310b677b,28,Kobieta,2022-05-28_09h33.29.971,task,2021.1.4,Win32,58.91710364,628b806c463b948bc644b84f,6291d0224a3f7530e7a4a143,,,,,1,0,1,0,1,"X V Q F H G B L J M P D K C T S W R N Z
",,,,,,,,,,,,,,,,,,,,,,,,,,,,,,,,,,,,,,,,,,,,,,,,,,,,,,,,,,,,,,,,,,,,,,,,,,,,,,,,,,,,,,,,,,,,,
,,,,,,,,,,5e2f448d3d8aa150310b677b,28,Kobieta,2022-05-28_09h33.29.971,task,2021.1.4,Win32,58.91710364,628b806c463b948bc644b84f,6291d0224a3f7530e7a4a143,,,,,,,,,,,zp,"[""z"",""p""]","[2.135799999999847,2.61099999999999,4.150500000000022]",1,ZP,0,0,0,0,1,,,,,,,,,,,,,,,,,,,,,,,,,,,,,,,,,,,,,,,,,,,,,,,,,,,,,,,,,,,,,,,,,,,,,,,,,,,,,,,,,,,
,,,,,,,,,,5e2f448d3d8aa150310b677b,28,Kobieta,2022-05-28_09h33.29.971,task,2021.1.4,Win32,58.91710364,628b806c463b948bc644b84f,6291d0224a3f7530e7a4a143,,,,,0,0,0,0,1,"X V Q F H G B L J M P D K C T S W R N Z
",,,,,,,,,,,,,,,,,,,,,,,,,,,,,,,,,,,,,,,,,,,,,,,,,,,,,,,,,,,,,,,,,,,,,,,,,,,,,,,,,,,,,,,,,,,,,
,,,,,,,,,,5e2f448d3d8aa150310b677b,28,Kobieta,2022-05-28_09h33.29.971,task,2021.1.4,Win32,58.91710364,628b806c463b948bc644b84f,6291d0224a3f7530e7a4a143,,,,,1,0,1,0,1,"X V Q F H G B L J M P D K C T S W R N Z
",,,,,,,,,,,,,,,,,,,,,,,,,,,,,,,,,,,,,,,,,,,,,,,,,,,,,,,,,,,,,,,,,,,,,,,,,,,,,,,,,,,,,,,,,,,,,
,,,,,,,,,,5e2f448d3d8aa150310b677b,28,Kobieta,2022-05-28_09h33.29.971,task,2021.1.4,Win32,58.91710364,628b806c463b948bc644b84f,6291d0224a3f7530e7a4a143,,,,,,,,,,,fp,"[""f"",""p""]","[0.8972000000001685,1.144600000000537,3.7452000000001817]",1,FP,1,0,1,0,1,,,,,,,,,,,,,,,,,,,,,,,,,,,,,,,,,,,,,,,,,,,,,,,,,,,,,,,,,,,,,,,,,,,,,,,,,,,,,,,,,,,
,,,,,,,,,,5e2f448d3d8aa150310b677b,28,Kobieta,2022-05-28_09h33.29.971,task,2021.1.4,Win32,58.91710364,628b806c463b948bc644b84f,6291d0224a3f7530e7a4a143,,,,,0,0,0,0,1,"X V Q F H G B L J M P D K C T S W R N Z
",,,,,,,,,,,,,,,,,,,,,,,,,,,,,,,,,,,,,,,,,,,,,,,,,,,,,,,,,,,,,,,,,,,,,,,,,,,,,,,,,,,,,,,,,,,,,
,,,,,,,,,,5e2f448d3d8aa150310b677b,28,Kobieta,2022-05-28_09h33.29.971,task,2021.1.4,Win32,58.91710364,628b806c463b948bc644b84f,6291d0224a3f7530e7a4a143,,,,,1,0,1,0,1,"X V Q F H G B L J M P D K C T S W R N Z
",,,,,,,,,,,,,,,,,,,,,,,,,,,,,,,,,,,,,,,,,,,,,,,,,,,,,,,,,,,,,,,,,,,,,,,,,,,,,,,,,,,,,,,,,,,,,
,,,,,,,,,,5e2f448d3d8aa150310b677b,28,Kobieta,2022-05-28_09h33.29.971,task,2021.1.4,Win32,58.91710364,628b806c463b948bc644b84f,6291d0224a3f7530e7a4a143,,,,,2,0,2,0,1,"X V Q F H G B L J M P D K C T S W R N Z
",,,,,,,,,,,,,,,,,,,,,,,,,,,,,,,,,,,,,,,,,,,,,,,,,,,,,,,,,,,,,,,,,,,,,,,,,,,,,,,,,,,,,,,,,,,,,
,,,,,,,,,,5e2f448d3d8aa150310b677b,28,Kobieta,2022-05-28_09h33.29.971,task,2021.1.4,Win32,58.91710364,628b806c463b948bc644b84f,6291d0224a3f7530e7a4a143,,,,,,,,,,,nsb,"[""n"",""s"",""b""]","[1.2022999999998092,1.7309000000003607,2.194999999999993,3.8924000000003502]",1,NSB,2,0,2,0,1,,,,,,,,,,,,,,,,,,,,,,,,,,,,,,,,,,,,,,,,,,,,,,,,,,,,,,,,,,,,,,,,,,,,,,,,,,,,,,,,,,,
,,,,,,,,,,5e2f448d3d8aa150310b677b,28,Kobieta,2022-05-28_09h33.29.971,task,2021.1.4,Win32,58.91710364,628b806c463b948bc644b84f,6291d0224a3f7530e7a4a143,,,,,0,0,0,0,1,"X V Q F H G B L J M P D K C T S W R N Z
",,,,,,,,,,,,,,,,,,,,,,,,,,,,,,,,,,,,,,,,,,,,,,,,,,,,,,,,,,,,,,,,,,,,,,,,,,,,,,,,,,,,,,,,,,,,,
,,,,,,,,,,5e2f448d3d8aa150310b677b,28,Kobieta,2022-05-28_09h33.29.971,task,2021.1.4,Win32,58.91710364,628b806c463b948bc644b84f,6291d0224a3f7530e7a4a143,,,,,1,0,1,0,1,"X V Q F H G B L J M P D K C T S W R N Z
",,,,,,,,,,,,,,,,,,,,,,,,,,,,,,,,,,,,,,,,,,,,,,,,,,,,,,,,,,,,,,,,,,,,,,,,,,,,,,,,,,,,,,,,,,,,,
,,,,,,,,,,5e2f448d3d8aa150310b677b,28,Kobieta,2022-05-28_09h33.29.971,task,2021.1.4,Win32,58.91710364,628b806c463b948bc644b84f,6291d0224a3f7530e7a4a143,,,,,2,0,2,0,1,"X V Q F H G B L J M P D K C T S W R N Z
",,,,,,,,,,,,,,,,,,,,,,,,,,,,,,,,,,,,,,,,,,,,,,,,,,,,,,,,,,,,,,,,,,,,,,,,,,,,,,,,,,,,,,,,,,,,,
,,,,,,,,,,5e2f448d3d8aa150310b677b,28,Kobieta,2022-05-28_09h33.29.971,task,2021.1.4,Win32,58.91710364,628b806c463b948bc644b84f,6291d0224a3f7530e7a4a143,,,,,,,,,,,kbq,"[""k"",""b"",""q""]","[1.0814000000003716,1.4517000000001872,1.9793000000007055,2.95690000000036]",1,KBQ,3,0,3,0,1,,,,,,,,,,,,,,,,,,,,,,,,,,,,,,,,,,,,,,,,,,,,,,,,,,,,,,,,,,,,,,,,,,,,,,,,,,,,,,,,,,,
,,,,,,,,,,5e2f448d3d8aa150310b677b,28,Kobieta,2022-05-28_09h33.29.971,task,2021.1.4,Win32,58.91710364,628b806c463b948bc644b84f,6291d0224a3f7530e7a4a143,,,,,0,0,0,0,1,"X V Q F H G B L J M P D K C T S W R N Z
",,,,,,,,,,,,,,,,,,,,,,,,,,,,,,,,,,,,,,,,,,,,,,,,,,,,,,,,,,,,,,,,,,,,,,,,,,,,,,,,,,,,,,,,,,,,,
,,,,,,,,,,5e2f448d3d8aa150310b677b,28,Kobieta,2022-05-28_09h33.29.971,task,2021.1.4,Win32,58.91710364,628b806c463b948bc644b84f,6291d0224a3f7530e7a4a143,,,,,1,0,1,0,1,"X V Q F H G B L J M P D K C T S W R N Z
",,,,,,,,,,,,,,,,,,,,,,,,,,,,,,,,,,,,,,,,,,,,,,,,,,,,,,,,,,,,,,,,,,,,,,,,,,,,,,,,,,,,,,,,,,,,,
,,,,,,,,,,5e2f448d3d8aa150310b677b,28,Kobieta,2022-05-28_09h33.29.971,task,2021.1.4,Win32,58.91710364,628b806c463b948bc644b84f,6291d0224a3f7530e7a4a143,,,,,2,0,2,0,1,"X V Q F H G B L J M P D K C T S W R N Z
",,,,,,,,,,,,,,,,,,,,,,,,,,,,,,,,,,,,,,,,,,,,,,,,,,,,,,,,,,,,,,,,,,,,,,,,,,,,,,,,,,,,,,,,,,,,,
,,,,,,,,,,5e2f448d3d8aa150310b677b,28,Kobieta,2022-05-28_09h33.29.971,task,2021.1.4,Win32,58.91710364,628b806c463b948bc644b84f,6291d0224a3f7530e7a4a143,,,,,3,0,3,0,1,"X V Q F H G B L J M P D K C T S W R N Z
",,,,,,,,,,,,,,,,,,,,,,,,,,,,,,,,,,,,,,,,,,,,,,,,,,,,,,,,,,,,,,,,,,,,,,,,,,,,,,,,,,,,,,,,,,,,,
,,,,,,,,,,5e2f448d3d8aa150310b677b,28,Kobieta,2022-05-28_09h33.29.971,task,2021.1.4,Win32,58.91710364,628b806c463b948bc644b84f,6291d0224a3f7530e7a4a143,,,,,,,,,,,ptnj,"[""p"",""t"",""n"",""j""]","[1.0147999999998092,1.5120999999996343,1.9475999999996247,2.3147000000001867,5.101099999999633]",1,PTNJ,4,0,4,0,1,,,,,,,,,,,,,,,,,,,,,,,,,,,,,,,,,,,,,,,,,,,,,,,,,,,,,,,,,,,,,,,,,,,,,,,,,,,,,,,,,,,
,,,,,,,,,,5e2f448d3d8aa150310b677b,28,Kobieta,2022-05-28_09h33.29.971,task,2021.1.4,Win32,58.91710364,628b806c463b948bc644b84f,6291d0224a3f7530e7a4a143,,,,,0,0,0,0,1,"X V Q F H G B L J M P D K C T S W R N Z
",,,,,,,,,,,,,,,,,,,,,,,,,,,,,,,,,,,,,,,,,,,,,,,,,,,,,,,,,,,,,,,,,,,,,,,,,,,,,,,,,,,,,,,,,,,,,
,,,,,,,,,,5e2f448d3d8aa150310b677b,28,Kobieta,2022-05-28_09h33.29.971,task,2021.1.4,Win32,58.91710364,628b806c463b948bc644b84f,6291d0224a3f7530e7a4a143,,,,,1,0,1,0,1,"X V Q F H G B L J M P D K C T S W R N Z
",,,,,,,,,,,,,,,,,,,,,,,,,,,,,,,,,,,,,,,,,,,,,,,,,,,,,,,,,,,,,,,,,,,,,,,,,,,,,,,,,,,,,,,,,,,,,
,,,,,,,,,,5e2f448d3d8aa150310b677b,28,Kobieta,2022-05-28_09h33.29.971,task,2021.1.4,Win32,58.91710364,628b806c463b948bc644b84f,6291d0224a3f7530e7a4a143,,,,,2,0,2,0,1,"X V Q F H G B L J M P D K C T S W R N Z
",,,,,,,,,,,,,,,,,,,,,,,,,,,,,,,,,,,,,,,,,,,,,,,,,,,,,,,,,,,,,,,,,,,,,,,,,,,,,,,,,,,,,,,,,,,,,
,,,,,,,,,,5e2f448d3d8aa150310b677b,28,Kobieta,2022-05-28_09h33.29.971,task,2021.1.4,Win32,58.91710364,628b806c463b948bc644b84f,6291d0224a3f7530e7a4a143,,,,,3,0,3,0,1,"X V Q F H G B L J M P D K C T S W R N Z
",,,,,,,,,,,,,,,,,,,,,,,,,,,,,,,,,,,,,,,,,,,,,,,,,,,,,,,,,,,,,,,,,,,,,,,,,,,,,,,,,,,,,,,,,,,,,
,,,,,,,,,,5e2f448d3d8aa150310b677b,28,Kobieta,2022-05-28_09h33.29.971,task,2021.1.4,Win32,58.91710364,628b806c463b948bc644b84f,6291d0224a3f7530e7a4a143,,,,,,,,,,,tmkp,"[""t"",""m"",""k"",""p""]","[3.286800000000767,3.763900000000376,4.312700000000234,4.717300000000762,5.55830000000077]",1,TMKP,5,0,5,0,1,,,,,,,,,,,,,,,,,,,,,,,,,,,,,,,,,,,,,,,,,,,,,,,,,,,,,,,,,,,,,,,,,,,,,,,,,,,,,,,,,,,
,,,,,,,,,,5e2f448d3d8aa150310b677b,28,Kobieta,2022-05-28_09h33.29.971,task,2021.1.4,Win32,58.91710364,628b806c463b948bc644b84f,6291d0224a3f7530e7a4a143,,,,,0,0,0,0,1,"X V Q F H G B L J M P D K C T S W R N Z
",,,,,,,,,,,,,,,,,,,,,,,,,,,,,,,,,,,,,,,,,,,,,,,,,,,,,,,,,,,,,,,,,,,,,,,,,,,,,,,,,,,,,,,,,,,,,
,,,,,,,,,,5e2f448d3d8aa150310b677b,28,Kobieta,2022-05-28_09h33.29.971,task,2021.1.4,Win32,58.91710364,628b806c463b948bc644b84f,6291d0224a3f7530e7a4a143,,,,,1,0,1,0,1,"X V Q F H G B L J M P D K C T S W R N Z
",,,,,,,,,,,,,,,,,,,,,,,,,,,,,,,,,,,,,,,,,,,,,,,,,,,,,,,,,,,,,,,,,,,,,,,,,,,,,,,,,,,,,,,,,,,,,
,,,,,,,,,,5e2f448d3d8aa150310b677b,28,Kobieta,2022-05-28_09h33.29.971,task,2021.1.4,Win32,58.91710364,628b806c463b948bc644b84f,6291d0224a3f7530e7a4a143,,,,,2,0,2,0,1,"X V Q F H G B L J M P D K C T S W R N Z
",,,,,,,,,,,,,,,,,,,,,,,,,,,,,,,,,,,,,,,,,,,,,,,,,,,,,,,,,,,,,,,,,,,,,,,,,,,,,,,,,,,,,,,,,,,,,
,,,,,,,,,,5e2f448d3d8aa150310b677b,28,Kobieta,2022-05-28_09h33.29.971,task,2021.1.4,Win32,58.91710364,628b806c463b948bc644b84f,6291d0224a3f7530e7a4a143,,,,,3,0,3,0,1,"X V Q F H G B L J M P D K C T S W R N Z
",,,,,,,,,,,,,,,,,,,,,,,,,,,,,,,,,,,,,,,,,,,,,,,,,,,,,,,,,,,,,,,,,,,,,,,,,,,,,,,,,,,,,,,,,,,,,
,,,,,,,,,,5e2f448d3d8aa150310b677b,28,Kobieta,2022-05-28_09h33.29.971,task,2021.1.4,Win32,58.91710364,628b806c463b948bc644b84f,6291d0224a3f7530e7a4a143,,,,,4,0,4,0,1,"X V Q F H G B L J M P D K C T S W R N Z
",,,,,,,,,,,,,,,,,,,,,,,,,,,,,,,,,,,,,,,,,,,,,,,,,,,,,,,,,,,,,,,,,,,,,,,,,,,,,,,,,,,,,,,,,,,,,
,,,,,,,,,,5e2f448d3d8aa150310b677b,28,Kobieta,2022-05-28_09h33.29.971,task,2021.1.4,Win32,58.91710364,628b806c463b948bc644b84f,6291d0224a3f7530e7a4a143,,,,,,,,,,,dphds,"[""d"",""p"",""h"",""d"",""s""]","[1.948799999999835,2.3872000000001776,4.076400000000376,5.620499999999993,6.202200000000175,9.066200000000208]",1,DPHDS,6,0,6,0,1,,,,,,,,,,,,,,,,,,,,,,,,,,,,,,,,,,,,,,,,,,,,,,,,,,,,,,,,,,,,,,,,,,,,,,,,,,,,,,,,,,,
,,,,,,,,,,5e2f448d3d8aa150310b677b,28,Kobieta,2022-05-28_09h33.29.971,task,2021.1.4,Win32,58.91710364,628b806c463b948bc644b84f,6291d0224a3f7530e7a4a143,,,,,0,0,0,0,1,"X V Q F H G B L J M P D K C T S W R N Z
",,,,,,,,,,,,,,,,,,,,,,,,,,,,,,,,,,,,,,,,,,,,,,,,,,,,,,,,,,,,,,,,,,,,,,,,,,,,,,,,,,,,,,,,,,,,,
,,,,,,,,,,5e2f448d3d8aa150310b677b,28,Kobieta,2022-05-28_09h33.29.971,task,2021.1.4,Win32,58.91710364,628b806c463b948bc644b84f,6291d0224a3f7530e7a4a143,,,,,1,0,1,0,1,"X V Q F H G B L J M P D K C T S W R N Z
",,,,,,,,,,,,,,,,,,,,,,,,,,,,,,,,,,,,,,,,,,,,,,,,,,,,,,,,,,,,,,,,,,,,,,,,,,,,,,,,,,,,,,,,,,,,,
,,,,,,,,,,5e2f448d3d8aa150310b677b,28,Kobieta,2022-05-28_09h33.29.971,task,2021.1.4,Win32,58.91710364,628b806c463b948bc644b84f,6291d0224a3f7530e7a4a143,,,,,2,0,2,0,1,"X V Q F H G B L J M P D K C T S W R N Z
",,,,,,,,,,,,,,,,,,,,,,,,,,,,,,,,,,,,,,,,,,,,,,,,,,,,,,,,,,,,,,,,,,,,,,,,,,,,,,,,,,,,,,,,,,,,,
,,,,,,,,,,5e2f448d3d8aa150310b677b,28,Kobieta,2022-05-28_09h33.29.971,task,2021.1.4,Win32,58.91710364,628b806c463b948bc644b84f,6291d0224a3f7530e7a4a143,,,,,3,0,3,0,1,"X V Q F H G B L J M P D K C T S W R N Z
",,,,,,,,,,,,,,,,,,,,,,,,,,,,,,,,,,,,,,,,,,,,,,,,,,,,,,,,,,,,,,,,,,,,,,,,,,,,,,,,,,,,,,,,,,,,,
,,,,,,,,,,5e2f448d3d8aa150310b677b,28,Kobieta,2022-05-28_09h33.29.971,task,2021.1.4,Win32,58.91710364,628b806c463b948bc644b84f,6291d0224a3f7530e7a4a143,,,,,4,0,4,0,1,"X V Q F H G B L J M P D K C T S W R N Z
",,,,,,,,,,,,,,,,,,,,,,,,,,,,,,,,,,,,,,,,,,,,,,,,,,,,,,,,,,,,,,,,,,,,,,,,,,,,,,,,,,,,,,,,,,,,,
,,,,,,,,,,5e2f448d3d8aa150310b677b,28,Kobieta,2022-05-28_09h33.29.971,task,2021.1.4,Win32,58.91710364,628b806c463b948bc644b84f,6291d0224a3f7530e7a4a143,,,,,,,,,,,gjxhk,"[""g"",""j"",""x"",""h"",""k""]","[1.6447999999998046,2.2932999999998174,2.7792000000001735,3.511000000000024,4.613200000000177,6.141200000000197]",1,GJXHK,7,0,7,0,1,,,,,,,,,,,,,,,,,,,,,,,,,,,,,,,,,,,,,,,,,,,,,,,,,,,,,,,,,,,,,,,,,,,,,,,,,,,,,,,,,,,
,,,,,,,,,,5e2f448d3d8aa150310b677b,28,Kobieta,2022-05-28_09h33.29.971,task,2021.1.4,Win32,58.91710364,628b806c463b948bc644b84f,6291d0224a3f7530e7a4a143,,,,,0,0,0,0,1,"X V Q F H G B L J M P D K C T S W R N Z
",,,,,,,,,,,,,,,,,,,,,,,,,,,,,,,,,,,,,,,,,,,,,,,,,,,,,,,,,,,,,,,,,,,,,,,,,,,,,,,,,,,,,,,,,,,,,
,,,,,,,,,,5e2f448d3d8aa150310b677b,28,Kobieta,2022-05-28_09h33.29.971,task,2021.1.4,Win32,58.91710364,628b806c463b948bc644b84f,6291d0224a3f7530e7a4a143,,,,,1,0,1,0,1,"X V Q F H G B L J M P D K C T S W R N Z
",,,,,,,,,,,,,,,,,,,,,,,,,,,,,,,,,,,,,,,,,,,,,,,,,,,,,,,,,,,,,,,,,,,,,,,,,,,,,,,,,,,,,,,,,,,,,
,,,,,,,,,,5e2f448d3d8aa150310b677b,28,Kobieta,2022-05-28_09h33.29.971,task,2021.1.4,Win32,58.91710364,628b806c463b948bc644b84f,6291d0224a3f7530e7a4a143,,,,,2,0,2,0,1,"X V Q F H G B L J M P D K C T S W R N Z
",,,,,,,,,,,,,,,,,,,,,,,,,,,,,,,,,,,,,,,,,,,,,,,,,,,,,,,,,,,,,,,,,,,,,,,,,,,,,,,,,,,,,,,,,,,,,
,,,,,,,,,,5e2f448d3d8aa150310b677b,28,Kobieta,2022-05-28_09h33.29.971,task,2021.1.4,Win32,58.91710364,628b806c463b948bc644b84f,6291d0224a3f7530e7a4a143,,,,,3,0,3,0,1,"X V Q F H G B L J M P D K C T S W R N Z
",,,,,,,,,,,,,,,,,,,,,,,,,,,,,,,,,,,,,,,,,,,,,,,,,,,,,,,,,,,,,,,,,,,,,,,,,,,,,,,,,,,,,,,,,,,,,
,,,,,,,,,,5e2f448d3d8aa150310b677b,28,Kobieta,2022-05-28_09h33.29.971,task,2021.1.4,Win32,58.91710364,628b806c463b948bc644b84f,6291d0224a3f7530e7a4a143,,,,,4,0,4,0,1,"X V Q F H G B L J M P D K C T S W R N Z
",,,,,,,,,,,,,,,,,,,,,,,,,,,,,,,,,,,,,,,,,,,,,,,,,,,,,,,,,,,,,,,,,,,,,,,,,,,,,,,,,,,,,,,,,,,,,
,,,,,,,,,,5e2f448d3d8aa150310b677b,28,Kobieta,2022-05-28_09h33.29.971,task,2021.1.4,Win32,58.91710364,628b806c463b948bc644b84f,6291d0224a3f7530e7a4a143,,,,,5,0,5,0,1,"X V Q F H G B L J M P D K C T S W R N Z
",,,,,,,,,,,,,,,,,,,,,,,,,,,,,,,,,,,,,,,,,,,,,,,,,,,,,,,,,,,,,,,,,,,,,,,,,,,,,,,,,,,,,,,,,,,,,
,,,,,,,,,,5e2f448d3d8aa150310b677b,28,Kobieta,2022-05-28_09h33.29.971,task,2021.1.4,Win32,58.91710364,628b806c463b948bc644b84f,6291d0224a3f7530e7a4a143,,,,,,,,,,,thkjrs,"[""t"",""h"",""k"",""j"",""r"",""s""]","[1.5112000000002013,1.9950000000000045,2.4309000000003493,3.494099999999605,4.210900000000379,5.39549999999997,13.024000000000001]",1,THKJRS,8,0,8,0,1,,,,,,,,,,,,,,,,,,,,,,,,,,,,,,,,,,,,,,,,,,,,,,,,,,,,,,,,,,,,,,,,,,,,,,,,,,,,,,,,,,,
,,,,,,,,,,5e2f448d3d8aa150310b677b,28,Kobieta,2022-05-28_09h33.29.971,task,2021.1.4,Win32,58.91710364,628b806c463b948bc644b84f,6291d0224a3f7530e7a4a143,,,,,0,0,0,0,1,"X V Q F H G B L J M P D K C T S W R N Z
",,,,,,,,,,,,,,,,,,,,,,,,,,,,,,,,,,,,,,,,,,,,,,,,,,,,,,,,,,,,,,,,,,,,,,,,,,,,,,,,,,,,,,,,,,,,,
,,,,,,,,,,5e2f448d3d8aa150310b677b,28,Kobieta,2022-05-28_09h33.29.971,task,2021.1.4,Win32,58.91710364,628b806c463b948bc644b84f,6291d0224a3f7530e7a4a143,,,,,1,0,1,0,1,"X V Q F H G B L J M P D K C T S W R N Z
",,,,,,,,,,,,,,,,,,,,,,,,,,,,,,,,,,,,,,,,,,,,,,,,,,,,,,,,,,,,,,,,,,,,,,,,,,,,,,,,,,,,,,,,,,,,,
,,,,,,,,,,5e2f448d3d8aa150310b677b,28,Kobieta,2022-05-28_09h33.29.971,task,2021.1.4,Win32,58.91710364,628b806c463b948bc644b84f,6291d0224a3f7530e7a4a143,,,,,2,0,2,0,1,"X V Q F H G B L J M P D K C T S W R N Z
",,,,,,,,,,,,,,,,,,,,,,,,,,,,,,,,,,,,,,,,,,,,,,,,,,,,,,,,,,,,,,,,,,,,,,,,,,,,,,,,,,,,,,,,,,,,,
,,,,,,,,,,5e2f448d3d8aa150310b677b,28,Kobieta,2022-05-28_09h33.29.971,task,2021.1.4,Win32,58.91710364,628b806c463b948bc644b84f,6291d0224a3f7530e7a4a143,,,,,3,0,3,0,1,"X V Q F H G B L J M P D K C T S W R N Z
",,,,,,,,,,,,,,,,,,,,,,,,,,,,,,,,,,,,,,,,,,,,,,,,,,,,,,,,,,,,,,,,,,,,,,,,,,,,,,,,,,,,,,,,,,,,,
,,,,,,,,,,5e2f448d3d8aa150310b677b,28,Kobieta,2022-05-28_09h33.29.971,task,2021.1.4,Win32,58.91710364,628b806c463b948bc644b84f,6291d0224a3f7530e7a4a143,,,,,4,0,4,0,1,"X V Q F H G B L J M P D K C T S W R N Z
",,,,,,,,,,,,,,,,,,,,,,,,,,,,,,,,,,,,,,,,,,,,,,,,,,,,,,,,,,,,,,,,,,,,,,,,,,,,,,,,,,,,,,,,,,,,,
,,,,,,,,,,5e2f448d3d8aa150310b677b,28,Kobieta,2022-05-28_09h33.29.971,task,2021.1.4,Win32,58.91710364,628b806c463b948bc644b84f,6291d0224a3f7530e7a4a143,,,,,5,0,5,0,1,"X V Q F H G B L J M P D K C T S W R N Z
",,,,,,,,,,,,,,,,,,,,,,,,,,,,,,,,,,,,,,,,,,,,,,,,,,,,,,,,,,,,,,,,,,,,,,,,,,,,,,,,,,,,,,,,,,,,,
,,,,,,,,,,5e2f448d3d8aa150310b677b,28,Kobieta,2022-05-28_09h33.29.971,task,2021.1.4,Win32,58.91710364,628b806c463b948bc644b84f,6291d0224a3f7530e7a4a143,,,,,,,,,,,bpgqjz,"[""b"",""p"",""g"",""q"",""j"",""z""]","[2.1162000000001626,3.964299999999753,5.239099999999553,9.85209999999961,10.334299999999757,10.72629999999981,13.05820000000017]",0,"BPGQZ
J",9,0,9,0,1,,,,,,,,,,,,,,,,,,,,,,,,,,,,,,,,,,,,,,,,,,,,,,,,,,,,,,,,,,,,,,,,,,,,,,,,,,,,,,,,,,,
,,,,,,,,,,5e2f448d3d8aa150310b677b,28,Kobieta,2022-05-28_09h33.29.971,task,2021.1.4,Win32,58.91710364,628b806c463b948bc644b84f,6291d0224a3f7530e7a4a143,,,,,0,0,0,0,1,"X V Q F H G B L J M P D K C T S W R N Z
",,,,,,,,,,,,,,,,,,,,,,,,,,,,,,,,,,,,,,,,,,,,,,,,,,,,,,,,,,,,,,,,,,,,,,,,,,,,,,,,,,,,,,,,,,,,,
,,,,,,,,,,5e2f448d3d8aa150310b677b,28,Kobieta,2022-05-28_09h33.29.971,task,2021.1.4,Win32,58.91710364,628b806c463b948bc644b84f,6291d0224a3f7530e7a4a143,,,,,1,0,1,0,1,"X V Q F H G B L J M P D K C T S W R N Z
",,,,,,,,,,,,,,,,,,,,,,,,,,,,,,,,,,,,,,,,,,,,,,,,,,,,,,,,,,,,,,,,,,,,,,,,,,,,,,,,,,,,,,,,,,,,,
,,,,,,,,,,5e2f448d3d8aa150310b677b,28,Kobieta,2022-05-28_09h33.29.971,task,2021.1.4,Win32,58.91710364,628b806c463b948bc644b84f,6291d0224a3f7530e7a4a143,,,,,2,0,2,0,1,"X V Q F H G B L J M P D K C T S W R N Z
",,,,,,,,,,,,,,,,,,,,,,,,,,,,,,,,,,,,,,,,,,,,,,,,,,,,,,,,,,,,,,,,,,,,,,,,,,,,,,,,,,,,,,,,,,,,,
,,,,,,,,,,5e2f448d3d8aa150310b677b,28,Kobieta,2022-05-28_09h33.29.971,task,2021.1.4,Win32,58.91710364,628b806c463b948bc644b84f,6291d0224a3f7530e7a4a143,,,,,3,0,3,0,1,"X V Q F H G B L J M P D K C T S W R N Z
",,,,,,,,,,,,,,,,,,,,,,,,,,,,,,,,,,,,,,,,,,,,,,,,,,,,,,,,,,,,,,,,,,,,,,,,,,,,,,,,,,,,,,,,,,,,,
,,,,,,,,,,5e2f448d3d8aa150310b677b,28,Kobieta,2022-05-28_09h33.29.971,task,2021.1.4,Win32,58.91710364,628b806c463b948bc644b84f,6291d0224a3f7530e7a4a143,,,,,4,0,4,0,1,"X V Q F H G B L J M P D K C T S W R N Z
",,,,,,,,,,,,,,,,,,,,,,,,,,,,,,,,,,,,,,,,,,,,,,,,,,,,,,,,,,,,,,,,,,,,,,,,,,,,,,,,,,,,,,,,,,,,,
,,,,,,,,,,5e2f448d3d8aa150310b677b,28,Kobieta,2022-05-28_09h33.29.971,task,2021.1.4,Win32,58.91710364,628b806c463b948bc644b84f,6291d0224a3f7530e7a4a143,,,,,5,0,5,0,1,"X V Q F H G B L J M P D K C T S W R N Z
",,,,,,,,,,,,,,,,,,,,,,,,,,,,,,,,,,,,,,,,,,,,,,,,,,,,,,,,,,,,,,,,,,,,,,,,,,,,,,,,,,,,,,,,,,,,,
,,,,,,,,,,5e2f448d3d8aa150310b677b,28,Kobieta,2022-05-28_09h33.29.971,task,2021.1.4,Win32,58.91710364,628b806c463b948bc644b84f,6291d0224a3f7530e7a4a143,,,,,,,,,,,sgjmdz,"[""s"",""g"",""j"",""m"",""d"",""z""]","[2.6269999999999527,3.2100999999995565,4.56689999999935,5.558999999999969,6.101799999999798,6.709699999999202,10.11539999999934]",0,"SGDMDZ
",10,0,10,0,1,,,,,,,,,,,,,,,,,,,,,,,,,,,,,,,,,,,,,,,,,,,,,,,,,,,,,,,,,,,,,,,,,,,,,,,,,,,,,,,,,,,
,,,,,,,,,,5e2f448d3d8aa150310b677b,28,Kobieta,2022-05-28_09h33.29.971,task,2021.1.4,Win32,58.91710364,628b806c463b948bc644b84f,6291d0224a3f7530e7a4a143,,,,,0,0,0,0,1,"X V Q F H G B L J M P D K C T S W R N Z
",,,,,,,,,,,,,,,,,,,,,,,,,,,,,,,,,,,,,,,,,,,,,,,,,,,,,,,,,,,,,,,,,,,,,,,,,,,,,,,,,,,,,,,,,,,,,
,,,,,,,,,,5e2f448d3d8aa150310b677b,28,Kobieta,2022-05-28_09h33.29.971,task,2021.1.4,Win32,58.91710364,628b806c463b948bc644b84f,6291d0224a3f7530e7a4a143,,,,,1,0,1,0,1,"X V Q F H G B L J M P D K C T S W R N Z
",,,,,,,,,,,,,,,,,,,,,,,,,,,,,,,,,,,,,,,,,,,,,,,,,,,,,,,,,,,,,,,,,,,,,,,,,,,,,,,,,,,,,,,,,,,,,
,,,,,,,,,,5e2f448d3d8aa150310b677b,28,Kobieta,2022-05-28_09h33.29.971,task,2021.1.4,Win32,58.91710364,628b806c463b948bc644b84f,6291d0224a3f7530e7a4a143,,,,,2,0,2,0,1,"X V Q F H G B L J M P D K C T S W R N Z
",,,,,,,,,,,,,,,,,,,,,,,,,,,,,,,,,,,,,,,,,,,,,,,,,,,,,,,,,,,,,,,,,,,,,,,,,,,,,,,,,,,,,,,,,,,,,
,,,,,,,,,,5e2f448d3d8aa150310b677b,28,Kobieta,2022-05-28_09h33.29.971,task,2021.1.4,Win32,58.91710364,628b806c463b948bc644b84f,6291d0224a3f7530e7a4a143,,,,,3,0,3,0,1,"X V Q F H G B L J M P D K C T S W R N Z
",,,,,,,,,,,,,,,,,,,,,,,,,,,,,,,,,,,,,,,,,,,,,,,,,,,,,,,,,,,,,,,,,,,,,,,,,,,,,,,,,,,,,,,,,,,,,
,,,,,,,,,,5e2f448d3d8aa150310b677b,28,Kobieta,2022-05-28_09h33.29.971,task,2021.1.4,Win32,58.91710364,628b806c463b948bc644b84f,6291d0224a3f7530e7a4a143,,,,,4,0,4,0,1,"X V Q F H G B L J M P D K C T S W R N Z
",,,,,,,,,,,,,,,,,,,,,,,,,,,,,,,,,,,,,,,,,,,,,,,,,,,,,,,,,,,,,,,,,,,,,,,,,,,,,,,,,,,,,,,,,,,,,
,,,,,,,,,,5e2f448d3d8aa150310b677b,28,Kobieta,2022-05-28_09h33.29.971,task,2021.1.4,Win32,58.91710364,628b806c463b948bc644b84f,6291d0224a3f7530e7a4a143,,,,,5,0,5,0,1,"X V Q F H G B L J M P D K C T S W R N Z
",,,,,,,,,,,,,,,,,,,,,,,,,,,,,,,,,,,,,,,,,,,,,,,,,,,,,,,,,,,,,,,,,,,,,,,,,,,,,,,,,,,,,,,,,,,,,
,,,,,,,,,,5e2f448d3d8aa150310b677b,28,Kobieta,2022-05-28_09h33.29.971,task,2021.1.4,Win32,58.91710364,628b806c463b948bc644b84f,6291d0224a3f7530e7a4a143,,,,,,,,,,,nmjsxv,"[""n"",""m"",""j"",""s"",""x"",""v""]","[2.197999999999979,4.0263999999993985,5.450599999999554,5.9187999999998056,8.827799999999797,9.110599999999636,10.527899999999363]",0,NPSKXV,11,0,11,0,1,,,,,,,,,,,,,,,,,,,,,,,,,,,,,,,,,,,,,,,,,,,,,,,,,,,,,,,,,,,,,,,,,,,,,,,,,,,,,,,,,,,
,,,,,,,,,,5e2f448d3d8aa150310b677b,28,Kobieta,2022-05-28_09h33.29.971,task,2021.1.4,Win32,58.91710364,628b806c463b948bc644b84f,6291d0224a3f7530e7a4a143,,,,,,,,,,,,,,,,,,,,,space,44.1182,8,"[""8""]",1,[7.917399999999475],[7.917399999999475],0,0,0,8,1,Practice,9,(3x3) - 1,8,,,,,,,,,,,,,,,,,,,,,,,,,,,,,,,,,,,,,,,,,,,,,,,,,,,,,,,,,,,,,,,,,,,
,,,,,,,,,,5e2f448d3d8aa150310b677b,28,Kobieta,2022-05-28_09h33.29.971,task,2021.1.4,Win32,58.91710364,628b806c463b948bc644b84f,6291d0224a3f7530e7a4a143,,,,,,,,,,,,,,,,,,,,,,,7,"[""7""]",1,[19.493700000000104],"[7.917399999999475,19.493700000000104]",0,1,1,7,1,Practice,8,(5x5) - 18,7,,,,,,,,,,,,,,,,,,,,,,,,,,,,,,,,,,,,,,,,,,,,,,,,,,,,,,,,,,,,,,,,,,,
,,,,,,,,,,5e2f448d3d8aa150310b677b,28,Kobieta,2022-05-28_09h33.29.971,task,2021.1.4,Win32,58.91710364,628b806c463b948bc644b84f,6291d0224a3f7530e7a4a143,,,,,,,,,,,,,,,,,,,,,,,3,"[""3""]",1,[3.7019000000003643],"[7.917399999999475,19.493700000000104,3.7019000000003643]",0,2,2,3,1,Practice,4,(8/4) + 1,3,,,,,,,,,,,,,,,,,,,,,,,,,,,,,,,,,,,,,,,,,,,,,,,,,,,,,,,,,,,,,,,,,,,
,,,,,,,,,,5e2f448d3d8aa150310b677b,28,Kobieta,2022-05-28_09h33.29.971,task,2021.1.4,Win32,58.91710364,628b806c463b948bc644b84f,6291d0224a3f7530e7a4a143,,,,,,,,,,,,,,,,,,,,,,,4,"[""4""]",1,[5.068299999999795],"[7.917399999999475,19.493700000000104,3.7019000000003643,5.068299999999795]",0,3,3,4,1,Practice,5,(2x6) - 8,4,,,,,,,,,,,,,,,,,,,,,,,,,,,,,,,,,,,,,,,,,,,,,,,,,,,,,,,,,,,,,,,,,,,
,,,,,,,,,,5e2f448d3d8aa150310b677b,28,Kobieta,2022-05-28_09h33.29.971,task,2021.1.4,Win32,58.91710364,628b806c463b948bc644b84f,6291d0224a3f7530e7a4a143,,,,,,,,,,,,,,,,,,,,,,,5,"[""5""]",1,[3.1936999999992395],"[7.917399999999475,19.493700000000104,3.7019000000003643,5.068299999999795,3.1936999999992395]",0,4,4,5,1,Practice,6,(4/2) + 3,5,,,,,,,,,,,,,,,,,,,,,,,,,,,,,,,,,,,,,,,,,,,,,,,,,,,,,,,,,,,,,,,,,,,
,,,,,,,,,,5e2f448d3d8aa150310b677b,28,Kobieta,2022-05-28_09h33.29.971,task,2021.1.4,Win32,58.91710364,628b806c463b948bc644b84f,6291d0224a3f7530e7a4a143,,,,,,,,,,,,,,,,,,,,,,,1,"[""1""]",1,[2.18100000000004],"[7.917399999999475,19.493700000000104,3.7019000000003643,5.068299999999795,3.1936999999992395,2.18100000000004]",0,5,5,1,1,Practice,2,(4x4) - 15,1,,,,,,,,,,,,,,,,,,,,,,,,,,,,,,,,,,,,,,,,,,,,,,,,,,,,,,,,,,,,,,,,,,,
,,,,,,,,,,5e2f448d3d8aa150310b677b,28,Kobieta,2022-05-28_09h33.29.971,task,2021.1.4,Win32,58.91710364,628b806c463b948bc644b84f,6291d0224a3f7530e7a4a143,,,,,,,,,,,,,,,,,,,,,,,0,"[""0""]",1,[2.5259000000004335],"[7.917399999999475,19.493700000000104,3.7019000000003643,5.068299999999795,3.1936999999992395,2.18100000000004,2.5259000000004335]",0,6,6,0,1,Practice,1,(3x3) -  9,0,,,,,,,,,,,,,,,,,,,,,,,,,,,,,,,,,,,,,,,,,,,,,,,,,,,,,,,,,,,,,,,,,,,
,,,,,,,,,,5e2f448d3d8aa150310b677b,28,Kobieta,2022-05-28_09h33.29.971,task,2021.1.4,Win32,58.91710364,628b806c463b948bc644b84f,6291d0224a3f7530e7a4a143,,,,,,,,,,,,,,,,,,,,,,,6,"[""6""]",1,[2.0375000000000227],"[7.917399999999475,19.493700000000104,3.7019000000003643,5.068299999999795,3.1936999999992395,2.18100000000004,2.5259000000004335,2.0375000000000227]",0,7,7,6,1,Practice,7,(25/5) + 1,6,,,,,,,,,,,,,,,,,,,,,,,,,,,,,,,,,,,,,,,,,,,,,,,,,,,,,,,,,,,,,,,,,,,
,,,,,,,,,,5e2f448d3d8aa150310b677b,28,Kobieta,2022-05-28_09h33.29.971,task,2021.1.4,Win32,58.91710364,628b806c463b948bc644b84f,6291d0224a3f7530e7a4a143,,,,,,,,,,,,,,,,,,,,,,,2,"[""2""]",1,[2.193900000000326],"[7.917399999999475,19.493700000000104,3.7019000000003643,5.068299999999795,3.1936999999992395,2.18100000000004,2.5259000000004335,2.0375000000000227,2.193900000000326]",0,8,8,2,1,Practice,3,(4x4) - 14,2,,,,,,,,,,,,,,,,,,,,,,,,,,,,,,,,,,,,,,,,,,,,,,,,,,,,,,,,,,,,,,,,,,,
,,,,,,,,,,5e2f448d3d8aa150310b677b,28,Kobieta,2022-05-28_09h33.29.971,task,2021.1.4,Win32,58.91710364,628b806c463b948bc644b84f,6291d0224a3f7530e7a4a143,,,,,,,,,,,,,,,,,,,,,,,9,"[""9""]",1,[1.9712999999998146],"[7.917399999999475,19.493700000000104,3.7019000000003643,5.068299999999795,3.1936999999992395,2.18100000000004,2.5259000000004335,2.0375000000000227,2.193900000000326,1.9712999999998146]",0,9,9,9,1,Practice,10,(20/2) - 1,9,,,,,,,,,,,,,,,,,,,,,,,,,,,,,,,,,,,,,,,,,,,,,,,,,,,,,,,,,,,,,,,,,,,
,,,,,,,,,,5e2f448d3d8aa150310b677b,28,Kobieta,2022-05-28_09h33.29.971,task,2021.1.4,Win32,58.91710364,628b806c463b948bc644b84f,6291d0224a3f7530e7a4a143,,,,,,,,,,,,,,,,,,,,,,,,,,,,,,,,,,,,,1,50.2846,3.352306667,291.5093699,4.408396306,14.72596914,space,6.9328,0,0,0,0,1,,,,,,,,,,,,,,,,,,,,,,,,,,,,,,,,,,,,,,,,,,,,,,,,,,,,,,
,,,,,,,,,,5e2f448d3d8aa150310b677b,28,Kobieta,2022-05-28_09h33.29.971,task,2021.1.4,Win32,58.91710364,628b806c463b948bc644b84f,6291d0224a3f7530e7a4a143,,,,,,,,,,,,,,,,,,,,,,,6,,,,,,,,,,Practice,7,(25/5) + 1,6,,,,,,,,,,,,,,space,20.4175,"[""6""]",1,[4.00430000000074],1,0,0,0,6,1,,,,,,,,,,,,,,,,,,,,,,,,,,,,,,,,,,,,,,,,,,,
,,,,,,,,,,5e2f448d3d8aa150310b677b,28,Kobieta,2022-05-28_09h33.29.971,task,2021.1.4,Win32,58.91710364,628b806c463b948bc644b84f,6291d0224a3f7530e7a4a143,,,,,,,,,,"X V Q F H G B L J M P D K C T S W R N Z
",,,,,,,,,,,,,,,,,,,,,,,,,,,,,,,,,,,,,,,,,,,,,,,,,,,0,0,0,0,1,,,,,,,,,,,,,,,,,,,,,,,,,,,,,,,,,,,,,,
,,,,,,,,,,5e2f448d3d8aa150310b677b,28,Kobieta,2022-05-28_09h33.29.971,task,2021.1.4,Win32,58.91710364,628b806c463b948bc644b84f,6291d0224a3f7530e7a4a143,,,,,,,,,,,,,,,,,,,,,,,4,,,,,,,,,,Practice,8,(5x5) - 18,7,,,,,,,,,,,,,,,,"[""4""]",0,[5.575700000000211],0,0,0,0,7,1,,,,,,,,,,,,,,,,,,,,,,,,,,,,,,,,,,,,,,,,,,,
,,,,,,,,,,5e2f448d3d8aa150310b677b,28,Kobieta,2022-05-28_09h33.29.971,task,2021.1.4,Win32,58.91710364,628b806c463b948bc644b84f,6291d0224a3f7530e7a4a143,,,,,,,,,,,,,,,,,,,,,,,0,,,,,,,,,,Practice,1,(3x3) -  9,0,,,,,,,,,,,,,,,,"[""0""]",1,[2.616999999999962],1,0,1,1,0,1,,,,,,,,,,,,,,,,,,,,,,,,,,,,,,,,,,,,,,,,,,,
,,,,,,,,,,5e2f448d3d8aa150310b677b,28,Kobieta,2022-05-28_09h33.29.971,task,2021.1.4,Win32,58.91710364,628b806c463b948bc644b84f,6291d0224a3f7530e7a4a143,,,,,,,,,,"X V Q F H G B L J M P D K C T S W R N Z
",,,,,,,,,,,,,,,,,,,,,,,,,,,,,,,,,,,,,,,,,,,,,,,,,,,1,0,1,0,1,,,,,,,,,,,,,,,,,,,,,,,,,,,,,,,,,,,,,,
,,,,,,,,,,5e2f448d3d8aa150310b677b,28,Kobieta,2022-05-28_09h33.29.971,task,2021.1.4,Win32,58.91710364,628b806c463b948bc644b84f,6291d0224a3f7530e7a4a143,,,,,,,,,,,,,,,,,,,,,,,,,,,,,,,,,,,,,,,,,,,,,,,,,,,,,,,,,,,,,,,,,,zg,"[""z"",""g""]",0,"[2.3855999999997266,2.837799999999902,3.5049999999999955]",1,0,0,0,0,1,,,,,,,,,,,,,,,,,,,,,,,,,,,,
,,,,,,,,,,5e2f448d3d8aa150310b677b,28,Kobieta,2022-05-28_09h33.29.971,task,2021.1.4,Win32,58.91710364,628b806c463b948bc644b84f,6291d0224a3f7530e7a4a143,,,,,,,,,,,,,,,,,,,,,,,6,,,,,,,,,,Practice,7,(25/5) + 1,6,,,,,,,,,,,,,,,,"[""6""]",1,[2.3767999999997755],1,0,0,0,6,1,,,,,,,,,,,,,,,,,,,,,,,,,,,,,,,,,,,,,,,,,,,
,,,,,,,,,,5e2f448d3d8aa150310b677b,28,Kobieta,2022-05-28_09h33.29.971,task,2021.1.4,Win32,58.91710364,628b806c463b948bc644b84f,6291d0224a3f7530e7a4a143,,,,,,,,,,"X V Q F H G B L J M P D K C T S W R N Z
",,,,,,,,,,,,,,,,,,,,,,,,,,,,,,,,,,,,,,,,,,,,,,,,,,,0,0,0,0,1,,,,,,,,,,,,,,,,,,,,,,,,,,,,,,,,,,,,,,
,,,,,,,,,,5e2f448d3d8aa150310b677b,28,Kobieta,2022-05-28_09h33.29.971,task,2021.1.4,Win32,58.91710364,628b806c463b948bc644b84f,6291d0224a3f7530e7a4a143,,,,,,,,,,,,,,,,,,,,,,,8,,,,,,,,,,Practice,9,(3x3) - 1,8,,,,,,,,,,,,,,,,"[""8""]",1,[6.425999999999931],1,0,0,0,8,1,,,,,,,,,,,,,,,,,,,,,,,,,,,,,,,,,,,,,,,,,,,
,,,,,,,,,,5e2f448d3d8aa150310b677b,28,Kobieta,2022-05-28_09h33.29.971,task,2021.1.4,Win32,58.91710364,628b806c463b948bc644b84f,6291d0224a3f7530e7a4a143,,,,,,,,,,"X V Q F H G B L J M P D K C T S W R N Z
",,,,,,,,,,,,,,,,,,,,,,,,,,,,,,,,,,,,,,,,,,,,,,,,,,,1,0,1,0,1,,,,,,,,,,,,,,,,,,,,,,,,,,,,,,,,,,,,,,
,,,,,,,,,,5e2f448d3d8aa150310b677b,28,Kobieta,2022-05-28_09h33.29.971,task,2021.1.4,Win32,58.91710364,628b806c463b948bc644b84f,6291d0224a3f7530e7a4a143,,,,,,,,,,,,,,,,,,,,,,,,,,,,,,,,,,,,,,,,,,,,,,,,,,,,,,,,,,,,,,,,,,vm,"[""v"",""m""]",0,"[2.1814000000003944,2.582200000000171,3.330500000000029]",1,1,0,1,0,1,,,,,,,,,,,,,,,,,,,,,,,,,,,,
,,,,,,,,,,5e2f448d3d8aa150310b677b,28,Kobieta,2022-05-28_09h33.29.971,task,2021.1.4,Win32,58.91710364,628b806c463b948bc644b84f,6291d0224a3f7530e7a4a143,,,,,,,,,,,,,,,,,,,,,,,0,,,,,,,,,,Practice,1,(3x3) -  9,0,,,,,,,,,,,,,,,,"[""0""]",1,[1.6223000000006778],1,0,0,0,0,1,,,,,,,,,,,,,,,,,,,,,,,,,,,,,,,,,,,,,,,,,,,
,,,,,,,,,,5e2f448d3d8aa150310b677b,28,Kobieta,2022-05-28_09h33.29.971,task,2021.1.4,Win32,58.91710364,628b806c463b948bc644b84f,6291d0224a3f7530e7a4a143,,,,,,,,,,"X V Q F H G B L J M P D K C T S W R N Z
",,,,,,,,,,,,,,,,,,,,,,,,,,,,,,,,,,,,,,,,,,,,,,,,,,,0,0,0,0,1,,,,,,,,,,,,,,,,,,,,,,,,,,,,,,,,,,,,,,
,,,,,,,,,,5e2f448d3d8aa150310b677b,28,Kobieta,2022-05-28_09h33.29.971,task,2021.1.4,Win32,58.91710364,628b806c463b948bc644b84f,6291d0224a3f7530e7a4a143,,,,,,,,,,,,,,,,,,,,,,,9,,,,,,,,,,Practice,10,(20/2) - 1,9,,,,,,,,,,,,,,,,"[""9""]",1,[1.7351999999991676],1,0,0,0,9,1,,,,,,,,,,,,,,,,,,,,,,,,,,,,,,,,,,,,,,,,,,,
,,,,,,,,,,5e2f448d3d8aa150310b677b,28,Kobieta,2022-05-28_09h33.29.971,task,2021.1.4,Win32,58.91710364,628b806c463b948bc644b84f,6291d0224a3f7530e7a4a143,,,,,,,,,,"X V Q F H G B L J M P D K C T S W R N Z
",,,,,,,,,,,,,,,,,,,,,,,,,,,,,,,,,,,,,,,,,,,,,,,,,,,1,0,1,0,1,,,,,,,,,,,,,,,,,,,,,,,,,,,,,,,,,,,,,,
,,,,,,,,,,5e2f448d3d8aa150310b677b,28,Kobieta,2022-05-28_09h33.29.971,task,2021.1.4,Win32,58.91710364,628b806c463b948bc644b84f,6291d0224a3f7530e7a4a143,,,,,,,,,,,,,,,,,,,,,,,,,,,,,,,,,,,,,,,,,,,,,,,,,,,,,,,,,,,,,,,,,,mp,"[""m"",""p""]",0,"[1.2982999999998128,1.6084000000003016,2.153200000000197]",1,2,0,2,0,1,,,,,,,,,,,,,,,,,,,,,,,,,,,,
,,,,,,,,,,5e2f448d3d8aa150310b677b,28,Kobieta,2022-05-28_09h33.29.971,task,2021.1.4,Win32,58.91710364,628b806c463b948bc644b84f,6291d0224a3f7530e7a4a143,,,,,,,,,,,,,,,,,,,,,,,7,,,,,,,,,,Task,38,(4x6) - 17,7,,,,,,,,,,,,,,,,,,,1,,,,,,,,,,,,,,,,,,,,,space,21.4906,"[""7""]",1,[6.943199999999251],0,0,0,37,1,,,,,,,,,,,,,,,,,,
,,,,,,,,,,5e2f448d3d8aa150310b677b,28,Kobieta,2022-05-28_09h33.29.971,task,2021.1.4,Win32,58.91710364,628b806c463b948bc644b84f,6291d0224a3f7530e7a4a143,,,,,,,,,,"X V Q F H G B L J M P D K C T S W R N Z
",,,,,,,,,,,,,,,,,,,,,,,,,,,,,,,,,,,,,,,,,,,,,,,,,,,,,,,,,,,,,,,,,,,,,,,,,,,,0,0,0,0,1,,,,,,,,,,,,,
,,,,,,,,,,5e2f448d3d8aa150310b677b,28,Kobieta,2022-05-28_09h33.29.971,task,2021.1.4,Win32,58.91710364,628b806c463b948bc644b84f,6291d0224a3f7530e7a4a143,,,,,,,,,,,,,,,,,,,,,,,0,,,,,,,,,,Task,33,(1/1) - 1,0,,,,,,,,,,,,,,,,,,,1,,,,,,,,,,,,,,,,,,,,,,,"[""0""]",1,[2.5119000000004235],0,0,0,32,1,,,,,,,,,,,,,,,,,,
,,,,,,,,,,5e2f448d3d8aa150310b677b,28,Kobieta,2022-05-28_09h33.29.971,task,2021.1.4,Win32,58.91710364,628b806c463b948bc644b84f,6291d0224a3f7530e7a4a143,,,,,,,,,,"X V Q F H G B L J M P D K C T S W R N Z
",,,,,,,,,,,,,,,,,,,,,,,,,,,,,,,,,,,,,,,,,,,,,,,,,,,,,,,,,,,,,,,,,,,,,,,,,,,,1,0,1,0,1,,,,,,,,,,,,,
,,,,,,,,,,5e2f448d3d8aa150310b677b,28,Kobieta,2022-05-28_09h33.29.971,task,2021.1.4,Win32,58.91710364,628b806c463b948bc644b84f,6291d0224a3f7530e7a4a143,,,,,,,,,,,,,,,,,,,,,,,,,,,,,,,,,,,,,,,,,,,,,,,,,,,,,,,,,,,,,,,,,,,,,,,,,,,,,,,,,,,,,,,,,,,zw,"[""z"",""w""]",0,"[1.7049999999999272,1.9420999999996411,2.765900000000329]",1,ZW,0,0,0,0,1,,
,,,,,,,,,,5e2f448d3d8aa150310b677b,28,Kobieta,2022-05-28_09h33.29.971,task,2021.1.4,Win32,58.91710364,628b806c463b948bc644b84f,6291d0224a3f7530e7a4a143,,,,,,,,,,,,,,,,,,,,,,,1,,,,,,,,,,Task,34,(9/3) - 2,1,,,,,,,,,,,,,,,,,,,1,,,,,,,,,,,,,,,,,,,,,,,"[""1""]",1,[3.3328999999994267],0,0,0,33,1,,,,,,,,,,,,,,,,,,
,,,,,,,,,,5e2f448d3d8aa150310b677b,28,Kobieta,2022-05-28_09h33.29.971,task,2021.1.4,Win32,58.91710364,628b806c463b948bc644b84f,6291d0224a3f7530e7a4a143,,,,,,,,,,"X V Q F H G B L J M P D K C T S W R N Z
",,,,,,,,,,,,,,,,,,,,,,,,,,,,,,,,,,,,,,,,,,,,,,,,,,,,,,,,,,,,,,,,,,,,,,,,,,,,0,0,0,0,1,,,,,,,,,,,,,
,,,,,,,,,,5e2f448d3d8aa150310b677b,28,Kobieta,2022-05-28_09h33.29.971,task,2021.1.4,Win32,58.91710364,628b806c463b948bc644b84f,6291d0224a3f7530e7a4a143,,,,,,,,,,,,,,,,,,,,,,,1,,,,,,,,,,Task,34,(9/3) - 2,1,,,,,,,,,,,,,,,,,,,1,,,,,,,,,,,,,,,,,,,,,,,"[""1""]",1,[4.141799999999762],0,0,0,33,1,,,,,,,,,,,,,,,,,,
,,,,,,,,,,5e2f448d3d8aa150310b677b,28,Kobieta,2022-05-28_09h33.29.971,task,2021.1.4,Win32,58.91710364,628b806c463b948bc644b84f,6291d0224a3f7530e7a4a143,,,,,,,,,,"X V Q F H G B L J M P D K C T S W R N Z
",,,,,,,,,,,,,,,,,,,,,,,,,,,,,,,,,,,,,,,,,,,,,,,,,,,,,,,,,,,,,,,,,,,,,,,,,,,,1,0,1,0,1,,,,,,,,,,,,,
,,,,,,,,,,5e2f448d3d8aa150310b677b,28,Kobieta,2022-05-28_09h33.29.971,task,2021.1.4,Win32,58.91710364,628b806c463b948bc644b84f,6291d0224a3f7530e7a4a143,,,,,,,,,,,,,,,,,,,,,,,1,,,,,,,,,,Task,18,(16/4) - 3,1,,,,,,,,,,,,,,,,,,,1,,,,,,,,,,,,,,,,,,,,,,,"[""1""]",1,[2.0776000000005297],0,0,0,17,1,,,,,,,,,,,,,,,,,,
,,,,,,,,,,5e2f448d3d8aa150310b677b,28,Kobieta,2022-05-28_09h33.29.971,task,2021.1.4,Win32,58.91710364,628b806c463b948bc644b84f,6291d0224a3f7530e7a4a143,,,,,,,,,,"X V Q F H G B L J M P D K C T S W R N Z
",,,,,,,,,,,,,,,,,,,,,,,,,,,,,,,,,,,,,,,,,,,,,,,,,,,,,,,,,,,,,,,,,,,,,,,,,,,,2,0,2,0,1,,,,,,,,,,,,,
,,,,,,,,,,5e2f448d3d8aa150310b677b,28,Kobieta,2022-05-28_09h33.29.971,task,2021.1.4,Win32,58.91710364,628b806c463b948bc644b84f,6291d0224a3f7530e7a4a143,,,,,,,,,,,,,,,,,,,,,,,,,,,,,,,,,,,,,,,,,,,,,,,,,,,,,,,,,,,,,,,,,,,,,,,,,,,,,,,,,,,,,,,,,,,wpj,"[""w"",""p"",""j""]",0,"[1.5922999999997955,2.357499999999959,2.667500000000018,3.4151999999992313]",0,BPJ,1,0,1,0,1,,
,,,,,,,,,,5e2f448d3d8aa150310b677b,28,Kobieta,2022-05-28_09h33.29.971,task,2021.1.4,Win32,58.91710364,628b806c463b948bc644b84f,6291d0224a3f7530e7a4a143,,,,,,,,,,,,,,,,,,,,,,,3,,,,,,,,,,Task,3,(2x3) - 3,3,,,,,,,,,,,,,,,,,,,1,,,,,,,,,,,,,,,,,,,,,,,"[""3""]",1,[4.860700000000179],0,0,0,2,1,,,,,,,,,,,,,,,,,,
,,,,,,,,,,5e2f448d3d8aa150310b677b,28,Kobieta,2022-05-28_09h33.29.971,task,2021.1.4,Win32,58.91710364,628b806c463b948bc644b84f,6291d0224a3f7530e7a4a143,,,,,,,,,,"X V Q F H G B L J M P D K C T S W R N Z
",,,,,,,,,,,,,,,,,,,,,,,,,,,,,,,,,,,,,,,,,,,,,,,,,,,,,,,,,,,,,,,,,,,,,,,,,,,,0,0,0,0,1,,,,,,,,,,,,,
,,,,,,,,,,5e2f448d3d8aa150310b677b,28,Kobieta,2022-05-28_09h33.29.971,task,2021.1.4,Win32,58.91710364,628b806c463b948bc644b84f,6291d0224a3f7530e7a4a143,,,,,,,,,,,,,,,,,,,,,,,8,,,,,,,,,,Task,39,(5x3) - 7,8,,,,,,,,,,,,,,,,,,,1,,,,,,,,,,,,,,,,,,,,,,,"[""8""]",1,[6.780299999999897],0,0,0,38,1,,,,,,,,,,,,,,,,,,
,,,,,,,,,,5e2f448d3d8aa150310b677b,28,Kobieta,2022-05-28_09h33.29.971,task,2021.1.4,Win32,58.91710364,628b806c463b948bc644b84f,6291d0224a3f7530e7a4a143,,,,,,,,,,"X V Q F H G B L J M P D K C T S W R N Z
",,,,,,,,,,,,,,,,,,,,,,,,,,,,,,,,,,,,,,,,,,,,,,,,,,,,,,,,,,,,,,,,,,,,,,,,,,,,1,0,1,0,1,,,,,,,,,,,,,
,,,,,,,,,,5e2f448d3d8aa150310b677b,28,Kobieta,2022-05-28_09h33.29.971,task,2021.1.4,Win32,58.91710364,628b806c463b948bc644b84f,6291d0224a3f7530e7a4a143,,,,,,,,,,,,,,,,,,,,,,,6,,,,,,,,,,Task,30,(6/3) + 4 ,6,,,,,,,,,,,,,,,,,,,1,,,,,,,,,,,,,,,,,,,,,,,"[""6""]",1,[8.54200000000003],0,0,0,29,1,,,,,,,,,,,,,,,,,,
,,,,,,,,,,5e2f448d3d8aa150310b677b,28,Kobieta,2022-05-28_09h33.29.971,task,2021.1.4,Win32,58.91710364,628b806c463b948bc644b84f,6291d0224a3f7530e7a4a143,,,,,,,,,,"X V Q F H G B L J M P D K C T S W R N Z
",,,,,,,,,,,,,,,,,,,,,,,,,,,,,,,,,,,,,,,,,,,,,,,,,,,,,,,,,,,,,,,,,,,,,,,,,,,,2,0,2,0,1,,,,,,,,,,,,,
,,,,,,,,,,5e2f448d3d8aa150310b677b,28,Kobieta,2022-05-28_09h33.29.971,task,2021.1.4,Win32,58.91710364,628b806c463b948bc644b84f,6291d0224a3f7530e7a4a143,,,,,,,,,,,,,,,,,,,,,,,,,,,,,,,,,,,,,,,,,,,,,,,,,,,,,,,,,,,,,,,,,,,,,,,,,,,,,,,,,,,,,,,,,,,wpj,"[""w"",""p"",""j""]",0,"[1.889599999999632,2.4825000000000728,3.0997999999998456,3.822499999999991]",0,FXJ,2,0,2,0,1,,
,,,,,,,,,,5e2f448d3d8aa150310b677b,28,Kobieta,2022-05-28_09h33.29.971,task,2021.1.4,Win32,58.91710364,628b806c463b948bc644b84f,6291d0224a3f7530e7a4a143,,,,,,,,,,,,,,,,,,,,,,,,,,,,,,,,,,,,,,,,,,,,,,,,,,,,,,,,,,,,,,,,,,,,,,,,,,,,,,,,,,,,,,,,,,,,,,,,,,,,,,space,5.0959
