key_resp_15.keys,key_resp_15.rt,key_resp_13.keys,key_resp_13.corr,key_resp_13.rt,ranodm_loop.thisRepN,ranodm_loop.thisTrialN,ranodm_loop.thisN,ranodm_loop.thisIndex,ranodm_loop.ran,participant,Wiek*,Płeć,date,expName,psychopyVersion,OS,frameRate,study_id,session,key_resp_16.keys,key_resp_16.rt,key_resp_4.keys,key_resp_4.rt,next_letter.thisRepN,next_letter.thisTrialN,next_letter.thisN,next_letter.thisIndex,next_letter.ran,letter,simple_recall,key_resp_5.keys,key_resp_5.rt,simple_recall_corr,simple_recall_corrkeys,next_level.thisRepN,next_level.thisTrialN,next_level.thisN,next_level.thisIndex,next_level.ran,key_resp_2.keys,key_resp_2.rt,digit_answer,key_resp.keys,key_resp.corr,key_resp.rt,RT_list,next_equation.thisRepN,next_equation.thisTrialN,next_equation.thisN,next_equation.thisIndex,next_equation.ran,Task,Trial,Problem,Operation_answer,processing_score,sumRT,meanRT,sumdiff,sd,RT,key_resp_3.keys,key_resp_3.rt,repeat_practice.thisRepN,repeat_practice.thisTrialN,repeat_practice.thisN,repeat_practice.thisIndex,repeat_practice.ran,key_resp_6.keys,key_resp_6.rt,key_resp_11.keys,key_resp_11.corr,key_resp_11.rt,operation_correct,repeat_if_wrong_prac.thisRepN,repeat_if_wrong_prac.thisTrialN,repeat_if_wrong_prac.thisN,repeat_if_wrong_prac.thisIndex,repeat_if_wrong_prac.ran,span_size_prac.thisRepN,span_size_prac.thisTrialN,span_size_prac.thisN,span_size_prac.thisIndex,span_size_prac.ran,complex_recall_practice,key_resp_9.keys,key_resp_9.corr,key_resp_9.rt,complex_prac_corr,span_recall_prac.thisRepN,span_recall_prac.thisTrialN,span_recall_prac.thisN,span_recall_prac.thisIndex,span_recall_prac.ran,key_resp_10.keys,key_resp_10.rt,key_resp_7.keys,key_resp_7.corr,key_resp_7.rt,repeat_if_wrong.thisRepN,repeat_if_wrong.thisTrialN,repeat_if_wrong.thisN,repeat_if_wrong.thisIndex,repeat_if_wrong.ran,span_size.thisRepN,span_size.thisTrialN,span_size.thisN,span_size.thisIndex,span_size.ran,complex_recall,key_resp_8.keys,key_resp_8.corr,key_resp_8.rt,complex_recall_corr,complex_recall_corrkeys,span_recall.thisRepN,span_recall.thisTrialN,span_recall.thisN,span_recall.thisIndex,span_recall.ran,key_resp_12.keys,key_resp_12.rt
space,14.8528,"[""comma""]",0,[1.169400000095365],0,0,0,0,1,5e370958fbc3bf68f59c8998,29,Kobieta,2022-06-04_08h08.36.729,task,2021.1.4,Win32,59.89099838,628b806c463b948bc644b84f,629af6c58f2ef90f657ac409,,,,,,,,,,,,,,,,,,,,,,,,,,,,,,,,,,,,,,,,,,,,,,,,,,,,,,,,,,,,,,,,,,,,,,,,,,,,,,,,,,,,,,,,,,,,,,,,,,,,,,,
,,"[""period""]",0,[0.6274000000953635],1,0,1,0,1,5e370958fbc3bf68f59c8998,29,Kobieta,2022-06-04_08h08.36.729,task,2021.1.4,Win32,59.89099838,628b806c463b948bc644b84f,629af6c58f2ef90f657ac409,,,,,,,,,,,,,,,,,,,,,,,,,,,,,,,,,,,,,,,,,,,,,,,,,,,,,,,,,,,,,,,,,,,,,,,,,,,,,,,,,,,,,,,,,,,,,,,,,,,,,,,
,,"[""period""]",0,[0.4562000000476871],2,0,2,0,1,5e370958fbc3bf68f59c8998,29,Kobieta,2022-06-04_08h08.36.729,task,2021.1.4,Win32,59.89099838,628b806c463b948bc644b84f,629af6c58f2ef90f657ac409,,,,,,,,,,,,,,,,,,,,,,,,,,,,,,,,,,,,,,,,,,,,,,,,,,,,,,,,,,,,,,,,,,,,,,,,,,,,,,,,,,,,,,,,,,,,,,,,,,,,,,,
,,"[""comma""]",0,[0.43420000004768156],3,0,3,0,1,5e370958fbc3bf68f59c8998,29,Kobieta,2022-06-04_08h08.36.729,task,2021.1.4,Win32,59.89099838,628b806c463b948bc644b84f,629af6c58f2ef90f657ac409,,,,,,,,,,,,,,,,,,,,,,,,,,,,,,,,,,,,,,,,,,,,,,,,,,,,,,,,,,,,,,,,,,,,,,,,,,,,,,,,,,,,,,,,,,,,,,,,,,,,,,,
,,"[""comma""]",0,[0.5660000000000025],4,0,4,0,1,5e370958fbc3bf68f59c8998,29,Kobieta,2022-06-04_08h08.36.729,task,2021.1.4,Win32,59.89099838,628b806c463b948bc644b84f,629af6c58f2ef90f657ac409,,,,,,,,,,,,,,,,,,,,,,,,,,,,,,,,,,,,,,,,,,,,,,,,,,,,,,,,,,,,,,,,,,,,,,,,,,,,,,,,,,,,,,,,,,,,,,,,,,,,,,,
,,"[""period""]",0,[0.3430999999046236],5,0,5,0,1,5e370958fbc3bf68f59c8998,29,Kobieta,2022-06-04_08h08.36.729,task,2021.1.4,Win32,59.89099838,628b806c463b948bc644b84f,629af6c58f2ef90f657ac409,,,,,,,,,,,,,,,,,,,,,,,,,,,,,,,,,,,,,,,,,,,,,,,,,,,,,,,,,,,,,,,,,,,,,,,,,,,,,,,,,,,,,,,,,,,,,,,,,,,,,,,
,,"[""period""]",0,[0.3869000000953662],6,0,6,0,1,5e370958fbc3bf68f59c8998,29,Kobieta,2022-06-04_08h08.36.729,task,2021.1.4,Win32,59.89099838,628b806c463b948bc644b84f,629af6c58f2ef90f657ac409,,,,,,,,,,,,,,,,,,,,,,,,,,,,,,,,,,,,,,,,,,,,,,,,,,,,,,,,,,,,,,,,,,,,,,,,,,,,,,,,,,,,,,,,,,,,,,,,,,,,,,,
,,"[""period""]",0,[0.45000000000000284],7,0,7,0,1,5e370958fbc3bf68f59c8998,29,Kobieta,2022-06-04_08h08.36.729,task,2021.1.4,Win32,59.89099838,628b806c463b948bc644b84f,629af6c58f2ef90f657ac409,,,,,,,,,,,,,,,,,,,,,,,,,,,,,,,,,,,,,,,,,,,,,,,,,,,,,,,,,,,,,,,,,,,,,,,,,,,,,,,,,,,,,,,,,,,,,,,,,,,,,,,
,,"[""comma""]",0,[0.30870000004767917],8,0,8,0,1,5e370958fbc3bf68f59c8998,29,Kobieta,2022-06-04_08h08.36.729,task,2021.1.4,Win32,59.89099838,628b806c463b948bc644b84f,629af6c58f2ef90f657ac409,,,,,,,,,,,,,,,,,,,,,,,,,,,,,,,,,,,,,,,,,,,,,,,,,,,,,,,,,,,,,,,,,,,,,,,,,,,,,,,,,,,,,,,,,,,,,,,,,,,,,,,
,,"[""period""]",0,[0.4367000000476793],9,0,9,0,1,5e370958fbc3bf68f59c8998,29,Kobieta,2022-06-04_08h08.36.729,task,2021.1.4,Win32,59.89099838,628b806c463b948bc644b84f,629af6c58f2ef90f657ac409,,,,,,,,,,,,,,,,,,,,,,,,,,,,,,,,,,,,,,,,,,,,,,,,,,,,,,,,,,,,,,,,,,,,,,,,,,,,,,,,,,,,,,,,,,,,,,,,,,,,,,,
,,"[""comma""]",0,[0.42149999999999466],10,0,10,0,1,5e370958fbc3bf68f59c8998,29,Kobieta,2022-06-04_08h08.36.729,task,2021.1.4,Win32,59.89099838,628b806c463b948bc644b84f,629af6c58f2ef90f657ac409,,,,,,,,,,,,,,,,,,,,,,,,,,,,,,,,,,,,,,,,,,,,,,,,,,,,,,,,,,,,,,,,,,,,,,,,,,,,,,,,,,,,,,,,,,,,,,,,,,,,,,,
,,"[""comma""]",0,[0.3530999999046429],11,0,11,0,1,5e370958fbc3bf68f59c8998,29,Kobieta,2022-06-04_08h08.36.729,task,2021.1.4,Win32,59.89099838,628b806c463b948bc644b84f,629af6c58f2ef90f657ac409,,,,,,,,,,,,,,,,,,,,,,,,,,,,,,,,,,,,,,,,,,,,,,,,,,,,,,,,,,,,,,,,,,,,,,,,,,,,,,,,,,,,,,,,,,,,,,,,,,,,,,,
,,"[""period""]",0,[0.46000000000000796],12,0,12,0,1,5e370958fbc3bf68f59c8998,29,Kobieta,2022-06-04_08h08.36.729,task,2021.1.4,Win32,59.89099838,628b806c463b948bc644b84f,629af6c58f2ef90f657ac409,,,,,,,,,,,,,,,,,,,,,,,,,,,,,,,,,,,,,,,,,,,,,,,,,,,,,,,,,,,,,,,,,,,,,,,,,,,,,,,,,,,,,,,,,,,,,,,,,,,,,,,
,,"[""comma""]",0,[0.3021000001430423],13,0,13,0,1,5e370958fbc3bf68f59c8998,29,Kobieta,2022-06-04_08h08.36.729,task,2021.1.4,Win32,59.89099838,628b806c463b948bc644b84f,629af6c58f2ef90f657ac409,,,,,,,,,,,,,,,,,,,,,,,,,,,,,,,,,,,,,,,,,,,,,,,,,,,,,,,,,,,,,,,,,,,,,,,,,,,,,,,,,,,,,,,,,,,,,,,,,,,,,,,
,,"[""period""]",0,[0.383700000047682],14,0,14,0,1,5e370958fbc3bf68f59c8998,29,Kobieta,2022-06-04_08h08.36.729,task,2021.1.4,Win32,59.89099838,628b806c463b948bc644b84f,629af6c58f2ef90f657ac409,,,,,,,,,,,,,,,,,,,,,,,,,,,,,,,,,,,,,,,,,,,,,,,,,,,,,,,,,,,,,,,,,,,,,,,,,,,,,,,,,,,,,,,,,,,,,,,,,,,,,,,
,,"[""comma""]",0,[0.3894000000953781],15,0,15,0,1,5e370958fbc3bf68f59c8998,29,Kobieta,2022-06-04_08h08.36.729,task,2021.1.4,Win32,59.89099838,628b806c463b948bc644b84f,629af6c58f2ef90f657ac409,,,,,,,,,,,,,,,,,,,,,,,,,,,,,,,,,,,,,,,,,,,,,,,,,,,,,,,,,,,,,,,,,,,,,,,,,,,,,,,,,,,,,,,,,,,,,,,,,,,,,,,
,,"[""comma""]",0,[0.3884999999999934],16,0,16,0,1,5e370958fbc3bf68f59c8998,29,Kobieta,2022-06-04_08h08.36.729,task,2021.1.4,Win32,59.89099838,628b806c463b948bc644b84f,629af6c58f2ef90f657ac409,,,,,,,,,,,,,,,,,,,,,,,,,,,,,,,,,,,,,,,,,,,,,,,,,,,,,,,,,,,,,,,,,,,,,,,,,,,,,,,,,,,,,,,,,,,,,,,,,,,,,,,
,,"[""comma""]",0,[0.30910000014303307],17,0,17,0,1,5e370958fbc3bf68f59c8998,29,Kobieta,2022-06-04_08h08.36.729,task,2021.1.4,Win32,59.89099838,628b806c463b948bc644b84f,629af6c58f2ef90f657ac409,,,,,,,,,,,,,,,,,,,,,,,,,,,,,,,,,,,,,,,,,,,,,,,,,,,,,,,,,,,,,,,,,,,,,,,,,,,,,,,,,,,,,,,,,,,,,,,,,,,,,,,
,,"[""period""]",0,[0.2869000000953861],18,0,18,0,1,5e370958fbc3bf68f59c8998,29,Kobieta,2022-06-04_08h08.36.729,task,2021.1.4,Win32,59.89099838,628b806c463b948bc644b84f,629af6c58f2ef90f657ac409,,,,,,,,,,,,,,,,,,,,,,,,,,,,,,,,,,,,,,,,,,,,,,,,,,,,,,,,,,,,,,,,,,,,,,,,,,,,,,,,,,,,,,,,,,,,,,,,,,,,,,,
,,"[""period""]",0,[0.2689000000953854],19,0,19,0,1,5e370958fbc3bf68f59c8998,29,Kobieta,2022-06-04_08h08.36.729,task,2021.1.4,Win32,59.89099838,628b806c463b948bc644b84f,629af6c58f2ef90f657ac409,,,,,,,,,,,,,,,,,,,,,,,,,,,,,,,,,,,,,,,,,,,,,,,,,,,,,,,,,,,,,,,,,,,,,,,,,,,,,,,,,,,,,,,,,,,,,,,,,,,,,,,
,,"[""comma""]",0,[0.2889000000953672],20,0,20,0,1,5e370958fbc3bf68f59c8998,29,Kobieta,2022-06-04_08h08.36.729,task,2021.1.4,Win32,59.89099838,628b806c463b948bc644b84f,629af6c58f2ef90f657ac409,,,,,,,,,,,,,,,,,,,,,,,,,,,,,,,,,,,,,,,,,,,,,,,,,,,,,,,,,,,,,,,,,,,,,,,,,,,,,,,,,,,,,,,,,,,,,,,,,,,,,,,
,,"[""period""]",0,[0.27520000004770395],21,0,21,0,1,5e370958fbc3bf68f59c8998,29,Kobieta,2022-06-04_08h08.36.729,task,2021.1.4,Win32,59.89099838,628b806c463b948bc644b84f,629af6c58f2ef90f657ac409,,,,,,,,,,,,,,,,,,,,,,,,,,,,,,,,,,,,,,,,,,,,,,,,,,,,,,,,,,,,,,,,,,,,,,,,,,,,,,,,,,,,,,,,,,,,,,,,,,,,,,,
,,"[""period""]",0,[0.2688999998569557],22,0,22,0,1,5e370958fbc3bf68f59c8998,29,Kobieta,2022-06-04_08h08.36.729,task,2021.1.4,Win32,59.89099838,628b806c463b948bc644b84f,629af6c58f2ef90f657ac409,,,,,,,,,,,,,,,,,,,,,,,,,,,,,,,,,,,,,,,,,,,,,,,,,,,,,,,,,,,,,,,,,,,,,,,,,,,,,,,,,,,,,,,,,,,,,,,,,,,,,,,
,,"[""comma""]",0,[0.25789999985696],23,0,23,0,1,5e370958fbc3bf68f59c8998,29,Kobieta,2022-06-04_08h08.36.729,task,2021.1.4,Win32,59.89099838,628b806c463b948bc644b84f,629af6c58f2ef90f657ac409,,,,,,,,,,,,,,,,,,,,,,,,,,,,,,,,,,,,,,,,,,,,,,,,,,,,,,,,,,,,,,,,,,,,,,,,,,,,,,,,,,,,,,,,,,,,,,,,,,,,,,,
,,"[""comma""]",0,[0.29959999990461483],24,0,24,0,1,5e370958fbc3bf68f59c8998,29,Kobieta,2022-06-04_08h08.36.729,task,2021.1.4,Win32,59.89099838,628b806c463b948bc644b84f,629af6c58f2ef90f657ac409,,,,,,,,,,,,,,,,,,,,,,,,,,,,,,,,,,,,,,,,,,,,,,,,,,,,,,,,,,,,,,,,,,,,,,,,,,,,,,,,,,,,,,,,,,,,,,,,,,,,,,,
,,"[""period""]",0,[0.289299999952334],25,0,25,0,1,5e370958fbc3bf68f59c8998,29,Kobieta,2022-06-04_08h08.36.729,task,2021.1.4,Win32,59.89099838,628b806c463b948bc644b84f,629af6c58f2ef90f657ac409,,,,,,,,,,,,,,,,,,,,,,,,,,,,,,,,,,,,,,,,,,,,,,,,,,,,,,,,,,,,,,,,,,,,,,,,,,,,,,,,,,,,,,,,,,,,,,,,,,,,,,,
,,"[""comma""]",0,[0.28770000004766416],26,0,26,0,1,5e370958fbc3bf68f59c8998,29,Kobieta,2022-06-04_08h08.36.729,task,2021.1.4,Win32,59.89099838,628b806c463b948bc644b84f,629af6c58f2ef90f657ac409,,,,,,,,,,,,,,,,,,,,,,,,,,,,,,,,,,,,,,,,,,,,,,,,,,,,,,,,,,,,,,,,,,,,,,,,,,,,,,,,,,,,,,,,,,,,,,,,,,,,,,,
,,"[""period""]",0,[0.25729999995232333],27,0,27,0,1,5e370958fbc3bf68f59c8998,29,Kobieta,2022-06-04_08h08.36.729,task,2021.1.4,Win32,59.89099838,628b806c463b948bc644b84f,629af6c58f2ef90f657ac409,,,,,,,,,,,,,,,,,,,,,,,,,,,,,,,,,,,,,,,,,,,,,,,,,,,,,,,,,,,,,,,,,,,,,,,,,,,,,,,,,,,,,,,,,,,,,,,,,,,,,,,
,,"[""period""]",0,[0.27260000014305774],28,0,28,0,1,5e370958fbc3bf68f59c8998,29,Kobieta,2022-06-04_08h08.36.729,task,2021.1.4,Win32,59.89099838,628b806c463b948bc644b84f,629af6c58f2ef90f657ac409,,,,,,,,,,,,,,,,,,,,,,,,,,,,,,,,,,,,,,,,,,,,,,,,,,,,,,,,,,,,,,,,,,,,,,,,,,,,,,,,,,,,,,,,,,,,,,,,,,,,,,,
,,"[""comma""]",0,[0.28379999995232197],29,0,29,0,1,5e370958fbc3bf68f59c8998,29,Kobieta,2022-06-04_08h08.36.729,task,2021.1.4,Win32,59.89099838,628b806c463b948bc644b84f,629af6c58f2ef90f657ac409,,,,,,,,,,,,,,,,,,,,,,,,,,,,,,,,,,,,,,,,,,,,,,,,,,,,,,,,,,,,,,,,,,,,,,,,,,,,,,,,,,,,,,,,,,,,,,,,,,,,,,,
,,"[""period""]",0,[0.24760000014305206],30,0,30,0,1,5e370958fbc3bf68f59c8998,29,Kobieta,2022-06-04_08h08.36.729,task,2021.1.4,Win32,59.89099838,628b806c463b948bc644b84f,629af6c58f2ef90f657ac409,,,,,,,,,,,,,,,,,,,,,,,,,,,,,,,,,,,,,,,,,,,,,,,,,,,,,,,,,,,,,,,,,,,,,,,,,,,,,,,,,,,,,,,,,,,,,,,,,,,,,,,
,,"[""period""]",0,[0.32550000000000523],31,0,31,0,1,5e370958fbc3bf68f59c8998,29,Kobieta,2022-06-04_08h08.36.729,task,2021.1.4,Win32,59.89099838,628b806c463b948bc644b84f,629af6c58f2ef90f657ac409,,,,,,,,,,,,,,,,,,,,,,,,,,,,,,,,,,,,,,,,,,,,,,,,,,,,,,,,,,,,,,,,,,,,,,,,,,,,,,,,,,,,,,,,,,,,,,,,,,,,,,,
,,"[""comma""]",0,[0.33279999995230014],32,0,32,0,1,5e370958fbc3bf68f59c8998,29,Kobieta,2022-06-04_08h08.36.729,task,2021.1.4,Win32,59.89099838,628b806c463b948bc644b84f,629af6c58f2ef90f657ac409,,,,,,,,,,,,,,,,,,,,,,,,,,,,,,,,,,,,,,,,,,,,,,,,,,,,,,,,,,,,,,,,,,,,,,,,,,,,,,,,,,,,,,,,,,,,,,,,,,,,,,,
,,"[""comma""]",0,[0.27820000004768985],33,0,33,0,1,5e370958fbc3bf68f59c8998,29,Kobieta,2022-06-04_08h08.36.729,task,2021.1.4,Win32,59.89099838,628b806c463b948bc644b84f,629af6c58f2ef90f657ac409,,,,,,,,,,,,,,,,,,,,,,,,,,,,,,,,,,,,,,,,,,,,,,,,,,,,,,,,,,,,,,,,,,,,,,,,,,,,,,,,,,,,,,,,,,,,,,,,,,,,,,,
,,"[""period""]",0,[0.2704000000953499],34,0,34,0,1,5e370958fbc3bf68f59c8998,29,Kobieta,2022-06-04_08h08.36.729,task,2021.1.4,Win32,59.89099838,628b806c463b948bc644b84f,629af6c58f2ef90f657ac409,,,,,,,,,,,,,,,,,,,,,,,,,,,,,,,,,,,,,,,,,,,,,,,,,,,,,,,,,,,,,,,,,,,,,,,,,,,,,,,,,,,,,,,,,,,,,,,,,,,,,,,
,,"[""comma""]",0,[0.2775999999046235],35,0,35,0,1,5e370958fbc3bf68f59c8998,29,Kobieta,2022-06-04_08h08.36.729,task,2021.1.4,Win32,59.89099838,628b806c463b948bc644b84f,629af6c58f2ef90f657ac409,,,,,,,,,,,,,,,,,,,,,,,,,,,,,,,,,,,,,,,,,,,,,,,,,,,,,,,,,,,,,,,,,,,,,,,,,,,,,,,,,,,,,,,,,,,,,,,,,,,,,,,
,,"[""period""]",0,[0.3182000000476819],36,0,36,0,1,5e370958fbc3bf68f59c8998,29,Kobieta,2022-06-04_08h08.36.729,task,2021.1.4,Win32,59.89099838,628b806c463b948bc644b84f,629af6c58f2ef90f657ac409,,,,,,,,,,,,,,,,,,,,,,,,,,,,,,,,,,,,,,,,,,,,,,,,,,,,,,,,,,,,,,,,,,,,,,,,,,,,,,,,,,,,,,,,,,,,,,,,,,,,,,,
,,"[""period""]",0,[0.2845999999046285],37,0,37,0,1,5e370958fbc3bf68f59c8998,29,Kobieta,2022-06-04_08h08.36.729,task,2021.1.4,Win32,59.89099838,628b806c463b948bc644b84f,629af6c58f2ef90f657ac409,,,,,,,,,,,,,,,,,,,,,,,,,,,,,,,,,,,,,,,,,,,,,,,,,,,,,,,,,,,,,,,,,,,,,,,,,,,,,,,,,,,,,,,,,,,,,,,,,,,,,,,
,,"[""period""]",0,[0.2910999999046453],38,0,38,0,1,5e370958fbc3bf68f59c8998,29,Kobieta,2022-06-04_08h08.36.729,task,2021.1.4,Win32,59.89099838,628b806c463b948bc644b84f,629af6c58f2ef90f657ac409,,,,,,,,,,,,,,,,,,,,,,,,,,,,,,,,,,,,,,,,,,,,,,,,,,,,,,,,,,,,,,,,,,,,,,,,,,,,,,,,,,,,,,,,,,,,,,,,,,,,,,,
,,"[""comma""]",0,[0.3103000001907219],39,0,39,0,1,5e370958fbc3bf68f59c8998,29,Kobieta,2022-06-04_08h08.36.729,task,2021.1.4,Win32,59.89099838,628b806c463b948bc644b84f,629af6c58f2ef90f657ac409,,,,,,,,,,,,,,,,,,,,,,,,,,,,,,,,,,,,,,,,,,,,,,,,,,,,,,,,,,,,,,,,,,,,,,,,,,,,,,,,,,,,,,,,,,,,,,,,,,,,,,,
,,"[""period""]",0,[0.2671000001430457],40,0,40,0,1,5e370958fbc3bf68f59c8998,29,Kobieta,2022-06-04_08h08.36.729,task,2021.1.4,Win32,59.89099838,628b806c463b948bc644b84f,629af6c58f2ef90f657ac409,,,,,,,,,,,,,,,,,,,,,,,,,,,,,,,,,,,,,,,,,,,,,,,,,,,,,,,,,,,,,,,,,,,,,,,,,,,,,,,,,,,,,,,,,,,,,,,,,,,,,,,
,,"[""comma""]",0,[0.23320000004767394],41,0,41,0,1,5e370958fbc3bf68f59c8998,29,Kobieta,2022-06-04_08h08.36.729,task,2021.1.4,Win32,59.89099838,628b806c463b948bc644b84f,629af6c58f2ef90f657ac409,,,,,,,,,,,,,,,,,,,,,,,,,,,,,,,,,,,,,,,,,,,,,,,,,,,,,,,,,,,,,,,,,,,,,,,,,,,,,,,,,,,,,,,,,,,,,,,,,,,,,,,
,,"[""comma""]",0,[0.31049999999999045],42,0,42,0,1,5e370958fbc3bf68f59c8998,29,Kobieta,2022-06-04_08h08.36.729,task,2021.1.4,Win32,59.89099838,628b806c463b948bc644b84f,629af6c58f2ef90f657ac409,,,,,,,,,,,,,,,,,,,,,,,,,,,,,,,,,,,,,,,,,,,,,,,,,,,,,,,,,,,,,,,,,,,,,,,,,,,,,,,,,,,,,,,,,,,,,,,,,,,,,,,
,,"[""period""]",0,[0.29789999985695204],43,0,43,0,1,5e370958fbc3bf68f59c8998,29,Kobieta,2022-06-04_08h08.36.729,task,2021.1.4,Win32,59.89099838,628b806c463b948bc644b84f,629af6c58f2ef90f657ac409,,,,,,,,,,,,,,,,,,,,,,,,,,,,,,,,,,,,,,,,,,,,,,,,,,,,,,,,,,,,,,,,,,,,,,,,,,,,,,,,,,,,,,,,,,,,,,,,,,,,,,,
,,"[""period""]",0,[0.2679000000953806],44,0,44,0,1,5e370958fbc3bf68f59c8998,29,Kobieta,2022-06-04_08h08.36.729,task,2021.1.4,Win32,59.89099838,628b806c463b948bc644b84f,629af6c58f2ef90f657ac409,,,,,,,,,,,,,,,,,,,,,,,,,,,,,,,,,,,,,,,,,,,,,,,,,,,,,,,,,,,,,,,,,,,,,,,,,,,,,,,,,,,,,,,,,,,,,,,,,,,,,,,
,,"[""comma""]",0,[0.2731999998092647],45,0,45,0,1,5e370958fbc3bf68f59c8998,29,Kobieta,2022-06-04_08h08.36.729,task,2021.1.4,Win32,59.89099838,628b806c463b948bc644b84f,629af6c58f2ef90f657ac409,,,,,,,,,,,,,,,,,,,,,,,,,,,,,,,,,,,,,,,,,,,,,,,,,,,,,,,,,,,,,,,,,,,,,,,,,,,,,,,,,,,,,,,,,,,,,,,,,,,,,,,
,,"[""period""]",0,[0.2686999998092574],46,0,46,0,1,5e370958fbc3bf68f59c8998,29,Kobieta,2022-06-04_08h08.36.729,task,2021.1.4,Win32,59.89099838,628b806c463b948bc644b84f,629af6c58f2ef90f657ac409,,,,,,,,,,,,,,,,,,,,,,,,,,,,,,,,,,,,,,,,,,,,,,,,,,,,,,,,,,,,,,,,,,,,,,,,,,,,,,,,,,,,,,,,,,,,,,,,,,,,,,,
,,"[""comma""]",0,[0.29139999985696363],47,0,47,0,1,5e370958fbc3bf68f59c8998,29,Kobieta,2022-06-04_08h08.36.729,task,2021.1.4,Win32,59.89099838,628b806c463b948bc644b84f,629af6c58f2ef90f657ac409,,,,,,,,,,,,,,,,,,,,,,,,,,,,,,,,,,,,,,,,,,,,,,,,,,,,,,,,,,,,,,,,,,,,,,,,,,,,,,,,,,,,,,,,,,,,,,,,,,,,,,,
,,"[""period""]",0,[0.3269000000953497],48,0,48,0,1,5e370958fbc3bf68f59c8998,29,Kobieta,2022-06-04_08h08.36.729,task,2021.1.4,Win32,59.89099838,628b806c463b948bc644b84f,629af6c58f2ef90f657ac409,,,,,,,,,,,,,,,,,,,,,,,,,,,,,,,,,,,,,,,,,,,,,,,,,,,,,,,,,,,,,,,,,,,,,,,,,,,,,,,,,,,,,,,,,,,,,,,,,,,,,,,
,,"[""period""]",0,[0.2877000000476926],49,0,49,0,1,5e370958fbc3bf68f59c8998,29,Kobieta,2022-06-04_08h08.36.729,task,2021.1.4,Win32,59.89099838,628b806c463b948bc644b84f,629af6c58f2ef90f657ac409,,,,,,,,,,,,,,,,,,,,,,,,,,,,,,,,,,,,,,,,,,,,,,,,,,,,,,,,,,,,,,,,,,,,,,,,,,,,,,,,,,,,,,,,,,,,,,,,,,,,,,,
,,"[""comma""]",0,[0.2940999999046312],50,0,50,0,1,5e370958fbc3bf68f59c8998,29,Kobieta,2022-06-04_08h08.36.729,task,2021.1.4,Win32,59.89099838,628b806c463b948bc644b84f,629af6c58f2ef90f657ac409,,,,,,,,,,,,,,,,,,,,,,,,,,,,,,,,,,,,,,,,,,,,,,,,,,,,,,,,,,,,,,,,,,,,,,,,,,,,,,,,,,,,,,,,,,,,,,,,,,,,,,,
,,"[""period""]",0,[0.23999999999998067],51,0,51,0,1,5e370958fbc3bf68f59c8998,29,Kobieta,2022-06-04_08h08.36.729,task,2021.1.4,Win32,59.89099838,628b806c463b948bc644b84f,629af6c58f2ef90f657ac409,,,,,,,,,,,,,,,,,,,,,,,,,,,,,,,,,,,,,,,,,,,,,,,,,,,,,,,,,,,,,,,,,,,,,,,,,,,,,,,,,,,,,,,,,,,,,,,,,,,,,,,
,,"[""comma""]",0,[0.2661000001430409],52,0,52,0,1,5e370958fbc3bf68f59c8998,29,Kobieta,2022-06-04_08h08.36.729,task,2021.1.4,Win32,59.89099838,628b806c463b948bc644b84f,629af6c58f2ef90f657ac409,,,,,,,,,,,,,,,,,,,,,,,,,,,,,,,,,,,,,,,,,,,,,,,,,,,,,,,,,,,,,,,,,,,,,,,,,,,,,,,,,,,,,,,,,,,,,,,,,,,,,,,
,,"[""comma""]",0,[0.2730999999046162],53,0,53,0,1,5e370958fbc3bf68f59c8998,29,Kobieta,2022-06-04_08h08.36.729,task,2021.1.4,Win32,59.89099838,628b806c463b948bc644b84f,629af6c58f2ef90f657ac409,,,,,,,,,,,,,,,,,,,,,,,,,,,,,,,,,,,,,,,,,,,,,,,,,,,,,,,,,,,,,,,,,,,,,,,,,,,,,,,,,,,,,,,,,,,,,,,,,,,,,,,
,,"[""period""]",0,[0.4657999999523099],54,0,54,0,1,5e370958fbc3bf68f59c8998,29,Kobieta,2022-06-04_08h08.36.729,task,2021.1.4,Win32,59.89099838,628b806c463b948bc644b84f,629af6c58f2ef90f657ac409,,,,,,,,,,,,,,,,,,,,,,,,,,,,,,,,,,,,,,,,,,,,,,,,,,,,,,,,,,,,,,,,,,,,,,,,,,,,,,,,,,,,,,,,,,,,,,,,,,,,,,,
,,"[""comma""]",0,[0.32620000004766325],55,0,55,0,1,5e370958fbc3bf68f59c8998,29,Kobieta,2022-06-04_08h08.36.729,task,2021.1.4,Win32,59.89099838,628b806c463b948bc644b84f,629af6c58f2ef90f657ac409,,,,,,,,,,,,,,,,,,,,,,,,,,,,,,,,,,,,,,,,,,,,,,,,,,,,,,,,,,,,,,,,,,,,,,,,,,,,,,,,,,,,,,,,,,,,,,,,,,,,,,,
,,"[""comma""]",0,[0.32640000009538994],56,0,56,0,1,5e370958fbc3bf68f59c8998,29,Kobieta,2022-06-04_08h08.36.729,task,2021.1.4,Win32,59.89099838,628b806c463b948bc644b84f,629af6c58f2ef90f657ac409,,,,,,,,,,,,,,,,,,,,,,,,,,,,,,,,,,,,,,,,,,,,,,,,,,,,,,,,,,,,,,,,,,,,,,,,,,,,,,,,,,,,,,,,,,,,,,,,,,,,,,,
,,"[""period""]",0,[0.33399999999997476],57,0,57,0,1,5e370958fbc3bf68f59c8998,29,Kobieta,2022-06-04_08h08.36.729,task,2021.1.4,Win32,59.89099838,628b806c463b948bc644b84f,629af6c58f2ef90f657ac409,,,,,,,,,,,,,,,,,,,,,,,,,,,,,,,,,,,,,,,,,,,,,,,,,,,,,,,,,,,,,,,,,,,,,,,,,,,,,,,,,,,,,,,,,,,,,,,,,,,,,,,
,,"[""period""]",0,[0.29249999999998977],58,0,58,0,1,5e370958fbc3bf68f59c8998,29,Kobieta,2022-06-04_08h08.36.729,task,2021.1.4,Win32,59.89099838,628b806c463b948bc644b84f,629af6c58f2ef90f657ac409,,,,,,,,,,,,,,,,,,,,,,,,,,,,,,,,,,,,,,,,,,,,,,,,,,,,,,,,,,,,,,,,,,,,,,,,,,,,,,,,,,,,,,,,,,,,,,,,,,,,,,,
,,"[""period""]",0,[0.26200000000000045],59,0,59,0,1,5e370958fbc3bf68f59c8998,29,Kobieta,2022-06-04_08h08.36.729,task,2021.1.4,Win32,59.89099838,628b806c463b948bc644b84f,629af6c58f2ef90f657ac409,,,,,,,,,,,,,,,,,,,,,,,,,,,,,,,,,,,,,,,,,,,,,,,,,,,,,,,,,,,,,,,,,,,,,,,,,,,,,,,,,,,,,,,,,,,,,,,,,,,,,,,
,,"[""comma""]",0,[0.3013999998569261],60,0,60,0,1,5e370958fbc3bf68f59c8998,29,Kobieta,2022-06-04_08h08.36.729,task,2021.1.4,Win32,59.89099838,628b806c463b948bc644b84f,629af6c58f2ef90f657ac409,,,,,,,,,,,,,,,,,,,,,,,,,,,,,,,,,,,,,,,,,,,,,,,,,,,,,,,,,,,,,,,,,,,,,,,,,,,,,,,,,,,,,,,,,,,,,,,,,,,,,,,
,,"[""period""]",0,[0.2915999999046335],61,0,61,0,1,5e370958fbc3bf68f59c8998,29,Kobieta,2022-06-04_08h08.36.729,task,2021.1.4,Win32,59.89099838,628b806c463b948bc644b84f,629af6c58f2ef90f657ac409,,,,,,,,,,,,,,,,,,,,,,,,,,,,,,,,,,,,,,,,,,,,,,,,,,,,,,,,,,,,,,,,,,,,,,,,,,,,,,,,,,,,,,,,,,,,,,,,,,,,,,,
,,"[""period""]",0,[0.2370000000000232],62,0,62,0,1,5e370958fbc3bf68f59c8998,29,Kobieta,2022-06-04_08h08.36.729,task,2021.1.4,Win32,59.89099838,628b806c463b948bc644b84f,629af6c58f2ef90f657ac409,,,,,,,,,,,,,,,,,,,,,,,,,,,,,,,,,,,,,,,,,,,,,,,,,,,,,,,,,,,,,,,,,,,,,,,,,,,,,,,,,,,,,,,,,,,,,,,,,,,,,,,
,,"[""comma""]",0,[0.2601000001430691],63,0,63,0,1,5e370958fbc3bf68f59c8998,29,Kobieta,2022-06-04_08h08.36.729,task,2021.1.4,Win32,59.89099838,628b806c463b948bc644b84f,629af6c58f2ef90f657ac409,,,,,,,,,,,,,,,,,,,,,,,,,,,,,,,,,,,,,,,,,,,,,,,,,,,,,,,,,,,,,,,,,,,,,,,,,,,,,,,,,,,,,,,,,,,,,,,,,,,,,,,
,,"[""comma""]",0,[0.25079999995233493],64,0,64,0,1,5e370958fbc3bf68f59c8998,29,Kobieta,2022-06-04_08h08.36.729,task,2021.1.4,Win32,59.89099838,628b806c463b948bc644b84f,629af6c58f2ef90f657ac409,,,,,,,,,,,,,,,,,,,,,,,,,,,,,,,,,,,,,,,,,,,,,,,,,,,,,,,,,,,,,,,,,,,,,,,,,,,,,,,,,,,,,,,,,,,,,,,,,,,,,,,
,,"[""period""]",0,[0.27350000000001273],65,0,65,0,1,5e370958fbc3bf68f59c8998,29,Kobieta,2022-06-04_08h08.36.729,task,2021.1.4,Win32,59.89099838,628b806c463b948bc644b84f,629af6c58f2ef90f657ac409,,,,,,,,,,,,,,,,,,,,,,,,,,,,,,,,,,,,,,,,,,,,,,,,,,,,,,,,,,,,,,,,,,,,,,,,,,,,,,,,,,,,,,,,,,,,,,,,,,,,,,,
,,"[""comma""]",0,[0.26820000004769895],66,0,66,0,1,5e370958fbc3bf68f59c8998,29,Kobieta,2022-06-04_08h08.36.729,task,2021.1.4,Win32,59.89099838,628b806c463b948bc644b84f,629af6c58f2ef90f657ac409,,,,,,,,,,,,,,,,,,,,,,,,,,,,,,,,,,,,,,,,,,,,,,,,,,,,,,,,,,,,,,,,,,,,,,,,,,,,,,,,,,,,,,,,,,,,,,,,,,,,,,,
,,"[""period""]",0,[0.2814000000953456],67,0,67,0,1,5e370958fbc3bf68f59c8998,29,Kobieta,2022-06-04_08h08.36.729,task,2021.1.4,Win32,59.89099838,628b806c463b948bc644b84f,629af6c58f2ef90f657ac409,,,,,,,,,,,,,,,,,,,,,,,,,,,,,,,,,,,,,,,,,,,,,,,,,,,,,,,,,,,,,,,,,,,,,,,,,,,,,,,,,,,,,,,,,,,,,,,,,,,,,,,
,,"[""comma""]",0,[0.2661000001430409],68,0,68,0,1,5e370958fbc3bf68f59c8998,29,Kobieta,2022-06-04_08h08.36.729,task,2021.1.4,Win32,59.89099838,628b806c463b948bc644b84f,629af6c58f2ef90f657ac409,,,,,,,,,,,,,,,,,,,,,,,,,,,,,,,,,,,,,,,,,,,,,,,,,,,,,,,,,,,,,,,,,,,,,,,,,,,,,,,,,,,,,,,,,,,,,,,,,,,,,,,
,,"[""period""]",0,[0.2724000000953595],69,0,69,0,1,5e370958fbc3bf68f59c8998,29,Kobieta,2022-06-04_08h08.36.729,task,2021.1.4,Win32,59.89099838,628b806c463b948bc644b84f,629af6c58f2ef90f657ac409,,,,,,,,,,,,,,,,,,,,,,,,,,,,,,,,,,,,,,,,,,,,,,,,,,,,,,,,,,,,,,,,,,,,,,,,,,,,,,,,,,,,,,,,,,,,,,,,,,,,,,,
,,"[""period""]",0,[0.25709999990462507],70,0,70,0,1,5e370958fbc3bf68f59c8998,29,Kobieta,2022-06-04_08h08.36.729,task,2021.1.4,Win32,59.89099838,628b806c463b948bc644b84f,629af6c58f2ef90f657ac409,,,,,,,,,,,,,,,,,,,,,,,,,,,,,,,,,,,,,,,,,,,,,,,,,,,,,,,,,,,,,,,,,,,,,,,,,,,,,,,,,,,,,,,,,,,,,,,,,,,,,,,
,,"[""comma""]",0,[0.2775000000000034],71,0,71,0,1,5e370958fbc3bf68f59c8998,29,Kobieta,2022-06-04_08h08.36.729,task,2021.1.4,Win32,59.89099838,628b806c463b948bc644b84f,629af6c58f2ef90f657ac409,,,,,,,,,,,,,,,,,,,,,,,,,,,,,,,,,,,,,,,,,,,,,,,,,,,,,,,,,,,,,,,,,,,,,,,,,,,,,,,,,,,,,,,,,,,,,,,,,,,,,,,
,,"[""comma""]",0,[0.29790000009538176],72,0,72,0,1,5e370958fbc3bf68f59c8998,29,Kobieta,2022-06-04_08h08.36.729,task,2021.1.4,Win32,59.89099838,628b806c463b948bc644b84f,629af6c58f2ef90f657ac409,,,,,,,,,,,,,,,,,,,,,,,,,,,,,,,,,,,,,,,,,,,,,,,,,,,,,,,,,,,,,,,,,,,,,,,,,,,,,,,,,,,,,,,,,,,,,,,,,,,,,,,
,,"[""period""]",0,[0.28270000004769713],73,0,73,0,1,5e370958fbc3bf68f59c8998,29,Kobieta,2022-06-04_08h08.36.729,task,2021.1.4,Win32,59.89099838,628b806c463b948bc644b84f,629af6c58f2ef90f657ac409,,,,,,,,,,,,,,,,,,,,,,,,,,,,,,,,,,,,,,,,,,,,,,,,,,,,,,,,,,,,,,,,,,,,,,,,,,,,,,,,,,,,,,,,,,,,,,,,,,,,,,,
,,"[""comma""]",0,[0.30170000004767417],74,0,74,0,1,5e370958fbc3bf68f59c8998,29,Kobieta,2022-06-04_08h08.36.729,task,2021.1.4,Win32,59.89099838,628b806c463b948bc644b84f,629af6c58f2ef90f657ac409,,,,,,,,,,,,,,,,,,,,,,,,,,,,,,,,,,,,,,,,,,,,,,,,,,,,,,,,,,,,,,,,,,,,,,,,,,,,,,,,,,,,,,,,,,,,,,,,,,,,,,,
,,"[""comma""]",0,[0.3161000001430523],75,0,75,0,1,5e370958fbc3bf68f59c8998,29,Kobieta,2022-06-04_08h08.36.729,task,2021.1.4,Win32,59.89099838,628b806c463b948bc644b84f,629af6c58f2ef90f657ac409,,,,,,,,,,,,,,,,,,,,,,,,,,,,,,,,,,,,,,,,,,,,,,,,,,,,,,,,,,,,,,,,,,,,,,,,,,,,,,,,,,,,,,,,,,,,,,,,,,,,,,,
,,"[""period""]",0,[0.3064000000953513],76,0,76,0,1,5e370958fbc3bf68f59c8998,29,Kobieta,2022-06-04_08h08.36.729,task,2021.1.4,Win32,59.89099838,628b806c463b948bc644b84f,629af6c58f2ef90f657ac409,,,,,,,,,,,,,,,,,,,,,,,,,,,,,,,,,,,,,,,,,,,,,,,,,,,,,,,,,,,,,,,,,,,,,,,,,,,,,,,,,,,,,,,,,,,,,,,,,,,,,,,
,,"[""comma""]",0,[0.3687999999523015],77,0,77,0,1,5e370958fbc3bf68f59c8998,29,Kobieta,2022-06-04_08h08.36.729,task,2021.1.4,Win32,59.89099838,628b806c463b948bc644b84f,629af6c58f2ef90f657ac409,,,,,,,,,,,,,,,,,,,,,,,,,,,,,,,,,,,,,,,,,,,,,,,,,,,,,,,,,,,,,,,,,,,,,,,,,,,,,,,,,,,,,,,,,,,,,,,,,,,,,,,
,,"[""period""]",0,[0.23840000009536766],78,0,78,0,1,5e370958fbc3bf68f59c8998,29,Kobieta,2022-06-04_08h08.36.729,task,2021.1.4,Win32,59.89099838,628b806c463b948bc644b84f,629af6c58f2ef90f657ac409,,,,,,,,,,,,,,,,,,,,,,,,,,,,,,,,,,,,,,,,,,,,,,,,,,,,,,,,,,,,,,,,,,,,,,,,,,,,,,,,,,,,,,,,,,,,,,,,,,,,,,,
,,"[""period""]",0,[0.27379999995233106],79,0,79,0,1,5e370958fbc3bf68f59c8998,29,Kobieta,2022-06-04_08h08.36.729,task,2021.1.4,Win32,59.89099838,628b806c463b948bc644b84f,629af6c58f2ef90f657ac409,,,,,,,,,,,,,,,,,,,,,,,,,,,,,,,,,,,,,,,,,,,,,,,,,,,,,,,,,,,,,,,,,,,,,,,,,,,,,,,,,,,,,,,,,,,,,,,,,,,,,,,
,,"[""comma""]",0,[0.2931999998092749],80,0,80,0,1,5e370958fbc3bf68f59c8998,29,Kobieta,2022-06-04_08h08.36.729,task,2021.1.4,Win32,59.89099838,628b806c463b948bc644b84f,629af6c58f2ef90f657ac409,,,,,,,,,,,,,,,,,,,,,,,,,,,,,,,,,,,,,,,,,,,,,,,,,,,,,,,,,,,,,,,,,,,,,,,,,,,,,,,,,,,,,,,,,,,,,,,,,,,,,,,
,,"[""comma""]",0,[0.3188000001907483],81,0,81,0,1,5e370958fbc3bf68f59c8998,29,Kobieta,2022-06-04_08h08.36.729,task,2021.1.4,Win32,59.89099838,628b806c463b948bc644b84f,629af6c58f2ef90f657ac409,,,,,,,,,,,,,,,,,,,,,,,,,,,,,,,,,,,,,,,,,,,,,,,,,,,,,,,,,,,,,,,,,,,,,,,,,,,,,,,,,,,,,,,,,,,,,,,,,,,,,,,
,,"[""period""]",0,[0.2403999998569475],82,0,82,0,1,5e370958fbc3bf68f59c8998,29,Kobieta,2022-06-04_08h08.36.729,task,2021.1.4,Win32,59.89099838,628b806c463b948bc644b84f,629af6c58f2ef90f657ac409,,,,,,,,,,,,,,,,,,,,,,,,,,,,,,,,,,,,,,,,,,,,,,,,,,,,,,,,,,,,,,,,,,,,,,,,,,,,,,,,,,,,,,,,,,,,,,,,,,,,,,,
,,"[""comma""]",0,[0.25230000019070076],83,0,83,0,1,5e370958fbc3bf68f59c8998,29,Kobieta,2022-06-04_08h08.36.729,task,2021.1.4,Win32,59.89099838,628b806c463b948bc644b84f,629af6c58f2ef90f657ac409,,,,,,,,,,,,,,,,,,,,,,,,,,,,,,,,,,,,,,,,,,,,,,,,,,,,,,,,,,,,,,,,,,,,,,,,,,,,,,,,,,,,,,,,,,,,,,,,,,,,,,,
,,"[""period""]",0,[0.27109999990460665],84,0,84,0,1,5e370958fbc3bf68f59c8998,29,Kobieta,2022-06-04_08h08.36.729,task,2021.1.4,Win32,59.89099838,628b806c463b948bc644b84f,629af6c58f2ef90f657ac409,,,,,,,,,,,,,,,,,,,,,,,,,,,,,,,,,,,,,,,,,,,,,,,,,,,,,,,,,,,,,,,,,,,,,,,,,,,,,,,,,,,,,,,,,,,,,,,,,,,,,,,
,,"[""comma""]",0,[0.2846000001430298],85,0,85,0,1,5e370958fbc3bf68f59c8998,29,Kobieta,2022-06-04_08h08.36.729,task,2021.1.4,Win32,59.89099838,628b806c463b948bc644b84f,629af6c58f2ef90f657ac409,,,,,,,,,,,,,,,,,,,,,,,,,,,,,,,,,,,,,,,,,,,,,,,,,,,,,,,,,,,,,,,,,,,,,,,,,,,,,,,,,,,,,,,,,,,,,,,,,,,,,,,
,,"[""period""]",0,[0.26030000019073896],86,0,86,0,1,5e370958fbc3bf68f59c8998,29,Kobieta,2022-06-04_08h08.36.729,task,2021.1.4,Win32,59.89099838,628b806c463b948bc644b84f,629af6c58f2ef90f657ac409,,,,,,,,,,,,,,,,,,,,,,,,,,,,,,,,,,,,,,,,,,,,,,,,,,,,,,,,,,,,,,,,,,,,,,,,,,,,,,,,,,,,,,,,,,,,,,,,,,,,,,,
,,"[""period""]",0,[0.2356999998092988],87,0,87,0,1,5e370958fbc3bf68f59c8998,29,Kobieta,2022-06-04_08h08.36.729,task,2021.1.4,Win32,59.89099838,628b806c463b948bc644b84f,629af6c58f2ef90f657ac409,,,,,,,,,,,,,,,,,,,,,,,,,,,,,,,,,,,,,,,,,,,,,,,,,,,,,,,,,,,,,,,,,,,,,,,,,,,,,,,,,,,,,,,,,,,,,,,,,,,,,,,
,,"[""comma""]",0,[0.2741000001430507],88,0,88,0,1,5e370958fbc3bf68f59c8998,29,Kobieta,2022-06-04_08h08.36.729,task,2021.1.4,Win32,59.89099838,628b806c463b948bc644b84f,629af6c58f2ef90f657ac409,,,,,,,,,,,,,,,,,,,,,,,,,,,,,,,,,,,,,,,,,,,,,,,,,,,,,,,,,,,,,,,,,,,,,,,,,,,,,,,,,,,,,,,,,,,,,,,,,,,,,,,
,,"[""comma""]",0,[0.26820000004772737],89,0,89,0,1,5e370958fbc3bf68f59c8998,29,Kobieta,2022-06-04_08h08.36.729,task,2021.1.4,Win32,59.89099838,628b806c463b948bc644b84f,629af6c58f2ef90f657ac409,,,,,,,,,,,,,,,,,,,,,,,,,,,,,,,,,,,,,,,,,,,,,,,,,,,,,,,,,,,,,,,,,,,,,,,,,,,,,,,,,,,,,,,,,,,,,,,,,,,,,,,
,,"[""period""]",0,[0.25479999995235403],90,0,90,0,1,5e370958fbc3bf68f59c8998,29,Kobieta,2022-06-04_08h08.36.729,task,2021.1.4,Win32,59.89099838,628b806c463b948bc644b84f,629af6c58f2ef90f657ac409,,,,,,,,,,,,,,,,,,,,,,,,,,,,,,,,,,,,,,,,,,,,,,,,,,,,,,,,,,,,,,,,,,,,,,,,,,,,,,,,,,,,,,,,,,,,,,,,,,,,,,,
,,"[""comma""]",0,[0.21549999999996317],91,0,91,0,1,5e370958fbc3bf68f59c8998,29,Kobieta,2022-06-04_08h08.36.729,task,2021.1.4,Win32,59.89099838,628b806c463b948bc644b84f,629af6c58f2ef90f657ac409,,,,,,,,,,,,,,,,,,,,,,,,,,,,,,,,,,,,,,,,,,,,,,,,,,,,,,,,,,,,,,,,,,,,,,,,,,,,,,,,,,,,,,,,,,,,,,,,,,,,,,,
,,"[""period""]",0,[0.2562000000476701],92,0,92,0,1,5e370958fbc3bf68f59c8998,29,Kobieta,2022-06-04_08h08.36.729,task,2021.1.4,Win32,59.89099838,628b806c463b948bc644b84f,629af6c58f2ef90f657ac409,,,,,,,,,,,,,,,,,,,,,,,,,,,,,,,,,,,,,,,,,,,,,,,,,,,,,,,,,,,,,,,,,,,,,,,,,,,,,,,,,,,,,,,,,,,,,,,,,,,,,,,
,,"[""comma""]",0,[0.259700000047701],93,0,93,0,1,5e370958fbc3bf68f59c8998,29,Kobieta,2022-06-04_08h08.36.729,task,2021.1.4,Win32,59.89099838,628b806c463b948bc644b84f,629af6c58f2ef90f657ac409,,,,,,,,,,,,,,,,,,,,,,,,,,,,,,,,,,,,,,,,,,,,,,,,,,,,,,,,,,,,,,,,,,,,,,,,,,,,,,,,,,,,,,,,,,,,,,,,,,,,,,,
,,"[""period""]",0,[0.28560000014306297],94,0,94,0,1,5e370958fbc3bf68f59c8998,29,Kobieta,2022-06-04_08h08.36.729,task,2021.1.4,Win32,59.89099838,628b806c463b948bc644b84f,629af6c58f2ef90f657ac409,,,,,,,,,,,,,,,,,,,,,,,,,,,,,,,,,,,,,,,,,,,,,,,,,,,,,,,,,,,,,,,,,,,,,,,,,,,,,,,,,,,,,,,,,,,,,,,,,,,,,,,
,,"[""period""]",0,[0.2514000000953729],95,0,95,0,1,5e370958fbc3bf68f59c8998,29,Kobieta,2022-06-04_08h08.36.729,task,2021.1.4,Win32,59.89099838,628b806c463b948bc644b84f,629af6c58f2ef90f657ac409,,,,,,,,,,,,,,,,,,,,,,,,,,,,,,,,,,,,,,,,,,,,,,,,,,,,,,,,,,,,,,,,,,,,,,,,,,,,,,,,,,,,,,,,,,,,,,,,,,,,,,,
,,"[""period""]",0,[0.2587000000476678],96,0,96,0,1,5e370958fbc3bf68f59c8998,29,Kobieta,2022-06-04_08h08.36.729,task,2021.1.4,Win32,59.89099838,628b806c463b948bc644b84f,629af6c58f2ef90f657ac409,,,,,,,,,,,,,,,,,,,,,,,,,,,,,,,,,,,,,,,,,,,,,,,,,,,,,,,,,,,,,,,,,,,,,,,,,,,,,,,,,,,,,,,,,,,,,,,,,,,,,,,
,,"[""comma""]",0,[0.26070000004767735],97,0,97,0,1,5e370958fbc3bf68f59c8998,29,Kobieta,2022-06-04_08h08.36.729,task,2021.1.4,Win32,59.89099838,628b806c463b948bc644b84f,629af6c58f2ef90f657ac409,,,,,,,,,,,,,,,,,,,,,,,,,,,,,,,,,,,,,,,,,,,,,,,,,,,,,,,,,,,,,,,,,,,,,,,,,,,,,,,,,,,,,,,,,,,,,,,,,,,,,,,
,,"[""period""]",0,[0.2885999999046476],98,0,98,0,1,5e370958fbc3bf68f59c8998,29,Kobieta,2022-06-04_08h08.36.729,task,2021.1.4,Win32,59.89099838,628b806c463b948bc644b84f,629af6c58f2ef90f657ac409,,,,,,,,,,,,,,,,,,,,,,,,,,,,,,,,,,,,,,,,,,,,,,,,,,,,,,,,,,,,,,,,,,,,,,,,,,,,,,,,,,,,,,,,,,,,,,,,,,,,,,,
,,"[""comma""]",0,[0.11659999990462211],99,0,99,0,1,5e370958fbc3bf68f59c8998,29,Kobieta,2022-06-04_08h08.36.729,task,2021.1.4,Win32,59.89099838,628b806c463b948bc644b84f,629af6c58f2ef90f657ac409,,,,,,,,,,,,,,,,,,,,,,,,,,,,,,,,,,,,,,,,,,,,,,,,,,,,,,,,,,,,,,,,,,,,,,,,,,,,,,,,,,,,,,,,,,,,,,,,,,,,,,,
,,"[""period""]",0,[0.30210000014301386],100,0,100,0,1,5e370958fbc3bf68f59c8998,29,Kobieta,2022-06-04_08h08.36.729,task,2021.1.4,Win32,59.89099838,628b806c463b948bc644b84f,629af6c58f2ef90f657ac409,,,,,,,,,,,,,,,,,,,,,,,,,,,,,,,,,,,,,,,,,,,,,,,,,,,,,,,,,,,,,,,,,,,,,,,,,,,,,,,,,,,,,,,,,,,,,,,,,,,,,,,
,,"[""period""]",0,[0.25540000009533514],101,0,101,0,1,5e370958fbc3bf68f59c8998,29,Kobieta,2022-06-04_08h08.36.729,task,2021.1.4,Win32,59.89099838,628b806c463b948bc644b84f,629af6c58f2ef90f657ac409,,,,,,,,,,,,,,,,,,,,,,,,,,,,,,,,,,,,,,,,,,,,,,,,,,,,,,,,,,,,,,,,,,,,,,,,,,,,,,,,,,,,,,,,,,,,,,,,,,,,,,,
,,"[""comma""]",0,[0.23960000014301386],102,0,102,0,1,5e370958fbc3bf68f59c8998,29,Kobieta,2022-06-04_08h08.36.729,task,2021.1.4,Win32,59.89099838,628b806c463b948bc644b84f,629af6c58f2ef90f657ac409,,,,,,,,,,,,,,,,,,,,,,,,,,,,,,,,,,,,,,,,,,,,,,,,,,,,,,,,,,,,,,,,,,,,,,,,,,,,,,,,,,,,,,,,,,,,,,,,,,,,,,,
,,"[""comma""]",0,[0.23579999995234857],103,0,103,0,1,5e370958fbc3bf68f59c8998,29,Kobieta,2022-06-04_08h08.36.729,task,2021.1.4,Win32,59.89099838,628b806c463b948bc644b84f,629af6c58f2ef90f657ac409,,,,,,,,,,,,,,,,,,,,,,,,,,,,,,,,,,,,,,,,,,,,,,,,,,,,,,,,,,,,,,,,,,,,,,,,,,,,,,,,,,,,,,,,,,,,,,,,,,,,,,,
,,"[""comma""]",0,[0.2992999999522681],104,0,104,0,1,5e370958fbc3bf68f59c8998,29,Kobieta,2022-06-04_08h08.36.729,task,2021.1.4,Win32,59.89099838,628b806c463b948bc644b84f,629af6c58f2ef90f657ac409,,,,,,,,,,,,,,,,,,,,,,,,,,,,,,,,,,,,,,,,,,,,,,,,,,,,,,,,,,,,,,,,,,,,,,,,,,,,,,,,,,,,,,,,,,,,,,,,,,,,,,,
,,"[""period""]",0,[0.29920000004767644],105,0,105,0,1,5e370958fbc3bf68f59c8998,29,Kobieta,2022-06-04_08h08.36.729,task,2021.1.4,Win32,59.89099838,628b806c463b948bc644b84f,629af6c58f2ef90f657ac409,,,,,,,,,,,,,,,,,,,,,,,,,,,,,,,,,,,,,,,,,,,,,,,,,,,,,,,,,,,,,,,,,,,,,,,,,,,,,,,,,,,,,,,,,,,,,,,,,,,,,,,
,,"[""comma""]",0,[0.2924000000953697],106,0,106,0,1,5e370958fbc3bf68f59c8998,29,Kobieta,2022-06-04_08h08.36.729,task,2021.1.4,Win32,59.89099838,628b806c463b948bc644b84f,629af6c58f2ef90f657ac409,,,,,,,,,,,,,,,,,,,,,,,,,,,,,,,,,,,,,,,,,,,,,,,,,,,,,,,,,,,,,,,,,,,,,,,,,,,,,,,,,,,,,,,,,,,,,,,,,,,,,,,
,,"[""comma""]",0,[0.2756999998092624],107,0,107,0,1,5e370958fbc3bf68f59c8998,29,Kobieta,2022-06-04_08h08.36.729,task,2021.1.4,Win32,59.89099838,628b806c463b948bc644b84f,629af6c58f2ef90f657ac409,,,,,,,,,,,,,,,,,,,,,,,,,,,,,,,,,,,,,,,,,,,,,,,,,,,,,,,,,,,,,,,,,,,,,,,,,,,,,,,,,,,,,,,,,,,,,,,,,,,,,,,
,,"[""period""]",0,[0.27849999999995134],108,0,108,0,1,5e370958fbc3bf68f59c8998,29,Kobieta,2022-06-04_08h08.36.729,task,2021.1.4,Win32,59.89099838,628b806c463b948bc644b84f,629af6c58f2ef90f657ac409,,,,,,,,,,,,,,,,,,,,,,,,,,,,,,,,,,,,,,,,,,,,,,,,,,,,,,,,,,,,,,,,,,,,,,,,,,,,,,,,,,,,,,,,,,,,,,,,,,,,,,,
,,"[""comma""]",0,[0.31819999980922375],109,0,109,0,1,5e370958fbc3bf68f59c8998,29,Kobieta,2022-06-04_08h08.36.729,task,2021.1.4,Win32,59.89099838,628b806c463b948bc644b84f,629af6c58f2ef90f657ac409,,,,,,,,,,,,,,,,,,,,,,,,,,,,,,,,,,,,,,,,,,,,,,,,,,,,,,,,,,,,,,,,,,,,,,,,,,,,,,,,,,,,,,,,,,,,,,,,,,,,,,,
,,"[""period""]",0,[0.2515000000000214],110,0,110,0,1,5e370958fbc3bf68f59c8998,29,Kobieta,2022-06-04_08h08.36.729,task,2021.1.4,Win32,59.89099838,628b806c463b948bc644b84f,629af6c58f2ef90f657ac409,,,,,,,,,,,,,,,,,,,,,,,,,,,,,,,,,,,,,,,,,,,,,,,,,,,,,,,,,,,,,,,,,,,,,,,,,,,,,,,,,,,,,,,,,,,,,,,,,,,,,,,
,,"[""period""]",0,[0.3145999999046012],111,0,111,0,1,5e370958fbc3bf68f59c8998,29,Kobieta,2022-06-04_08h08.36.729,task,2021.1.4,Win32,59.89099838,628b806c463b948bc644b84f,629af6c58f2ef90f657ac409,,,,,,,,,,,,,,,,,,,,,,,,,,,,,,,,,,,,,,,,,,,,,,,,,,,,,,,,,,,,,,,,,,,,,,,,,,,,,,,,,,,,,,,,,,,,,,,,,,,,,,,
,,"[""comma""]",0,[0.2759000000954188],112,0,112,0,1,5e370958fbc3bf68f59c8998,29,Kobieta,2022-06-04_08h08.36.729,task,2021.1.4,Win32,59.89099838,628b806c463b948bc644b84f,629af6c58f2ef90f657ac409,,,,,,,,,,,,,,,,,,,,,,,,,,,,,,,,,,,,,,,,,,,,,,,,,,,,,,,,,,,,,,,,,,,,,,,,,,,,,,,,,,,,,,,,,,,,,,,,,,,,,,,
,,"[""comma""]",0,[0.25499999999999545],113,0,113,0,1,5e370958fbc3bf68f59c8998,29,Kobieta,2022-06-04_08h08.36.729,task,2021.1.4,Win32,59.89099838,628b806c463b948bc644b84f,629af6c58f2ef90f657ac409,,,,,,,,,,,,,,,,,,,,,,,,,,,,,,,,,,,,,,,,,,,,,,,,,,,,,,,,,,,,,,,,,,,,,,,,,,,,,,,,,,,,,,,,,,,,,,,,,,,,,,,
,,"[""period""]",0,[-0.0174000000953356],114,0,114,0,1,5e370958fbc3bf68f59c8998,29,Kobieta,2022-06-04_08h08.36.729,task,2021.1.4,Win32,59.89099838,628b806c463b948bc644b84f,629af6c58f2ef90f657ac409,,,,,,,,,,,,,,,,,,,,,,,,,,,,,,,,,,,,,,,,,,,,,,,,,,,,,,,,,,,,,,,,,,,,,,,,,,,,,,,,,,,,,,,,,,,,,,,,,,,,,,,
,,"[""period""]",0,[0.3025000000000091],115,0,115,0,1,5e370958fbc3bf68f59c8998,29,Kobieta,2022-06-04_08h08.36.729,task,2021.1.4,Win32,59.89099838,628b806c463b948bc644b84f,629af6c58f2ef90f657ac409,,,,,,,,,,,,,,,,,,,,,,,,,,,,,,,,,,,,,,,,,,,,,,,,,,,,,,,,,,,,,,,,,,,,,,,,,,,,,,,,,,,,,,,,,,,,,,,,,,,,,,,
,,"[""comma""]",0,[0.27079999995231674],116,0,116,0,1,5e370958fbc3bf68f59c8998,29,Kobieta,2022-06-04_08h08.36.729,task,2021.1.4,Win32,59.89099838,628b806c463b948bc644b84f,629af6c58f2ef90f657ac409,,,,,,,,,,,,,,,,,,,,,,,,,,,,,,,,,,,,,,,,,,,,,,,,,,,,,,,,,,,,,,,,,,,,,,,,,,,,,,,,,,,,,,,,,,,,,,,,,,,,,,,
,,"[""period""]",0,[0.2644999999999982],117,0,117,0,1,5e370958fbc3bf68f59c8998,29,Kobieta,2022-06-04_08h08.36.729,task,2021.1.4,Win32,59.89099838,628b806c463b948bc644b84f,629af6c58f2ef90f657ac409,,,,,,,,,,,,,,,,,,,,,,,,,,,,,,,,,,,,,,,,,,,,,,,,,,,,,,,,,,,,,,,,,,,,,,,,,,,,,,,,,,,,,,,,,,,,,,,,,,,,,,,
,,"[""comma""]",0,[0.3014000000953274],118,0,118,0,1,5e370958fbc3bf68f59c8998,29,Kobieta,2022-06-04_08h08.36.729,task,2021.1.4,Win32,59.89099838,628b806c463b948bc644b84f,629af6c58f2ef90f657ac409,,,,,,,,,,,,,,,,,,,,,,,,,,,,,,,,,,,,,,,,,,,,,,,,,,,,,,,,,,,,,,,,,,,,,,,,,,,,,,,,,,,,,,,,,,,,,,,,,,,,,,,
,,"[""period""]",0,[0.39449999999999363],119,0,119,0,1,5e370958fbc3bf68f59c8998,29,Kobieta,2022-06-04_08h08.36.729,task,2021.1.4,Win32,59.89099838,628b806c463b948bc644b84f,629af6c58f2ef90f657ac409,,,,,,,,,,,,,,,,,,,,,,,,,,,,,,,,,,,,,,,,,,,,,,,,,,,,,,,,,,,,,,,,,,,,,,,,,,,,,,,,,,,,,,,,,,,,,,,,,,,,,,,
,,,,,,,,,,5e370958fbc3bf68f59c8998,29,Kobieta,2022-06-04_08h08.36.729,task,2021.1.4,Win32,59.89099838,628b806c463b948bc644b84f,629af6c58f2ef90f657ac409,space,78.958,space,8.2279,0,0,0,0,1,X V Q F H G B L J M P D K C T S W R N Z,,,,,,,,,,,,,,,,,,,,,,,,,,,,,,,,,,,,,,,,,,,,,,,,,,,,,,,,,,,,,,,,,,,,,,,,,,,,,,,,,,,,,,,,,,,,,
,,,,,,,,,,5e370958fbc3bf68f59c8998,29,Kobieta,2022-06-04_08h08.36.729,task,2021.1.4,Win32,59.89099838,628b806c463b948bc644b84f,629af6c58f2ef90f657ac409,,,,,1,0,1,0,1,X V Q F H G B L J M P D K C T S W R N Z,,,,,,,,,,,,,,,,,,,,,,,,,,,,,,,,,,,,,,,,,,,,,,,,,,,,,,,,,,,,,,,,,,,,,,,,,,,,,,,,,,,,,,,,,,,,,
,,,,,,,,,,5e370958fbc3bf68f59c8998,29,Kobieta,2022-06-04_08h08.36.729,task,2021.1.4,Win32,59.89099838,628b806c463b948bc644b84f,629af6c58f2ef90f657ac409,,,,,,,,,,,zk,"[""z"",""k""]","[4.007100000143055,4.329999999999984,5.199700000047642]",1,ZK,0,0,0,0,1,,,,,,,,,,,,,,,,,,,,,,,,,,,,,,,,,,,,,,,,,,,,,,,,,,,,,,,,,,,,,,,,,,,,,,,,,,,,,,,,,,,
,,,,,,,,,,5e370958fbc3bf68f59c8998,29,Kobieta,2022-06-04_08h08.36.729,task,2021.1.4,Win32,59.89099838,628b806c463b948bc644b84f,629af6c58f2ef90f657ac409,,,,,0,0,0,0,1,X V Q F H G B L J M P D K C T S W R N Z,,,,,,,,,,,,,,,,,,,,,,,,,,,,,,,,,,,,,,,,,,,,,,,,,,,,,,,,,,,,,,,,,,,,,,,,,,,,,,,,,,,,,,,,,,,,,
,,,,,,,,,,5e370958fbc3bf68f59c8998,29,Kobieta,2022-06-04_08h08.36.729,task,2021.1.4,Win32,59.89099838,628b806c463b948bc644b84f,629af6c58f2ef90f657ac409,,,,,1,0,1,0,1,X V Q F H G B L J M P D K C T S W R N Z,,,,,,,,,,,,,,,,,,,,,,,,,,,,,,,,,,,,,,,,,,,,,,,,,,,,,,,,,,,,,,,,,,,,,,,,,,,,,,,,,,,,,,,,,,,,,
,,,,,,,,,,5e370958fbc3bf68f59c8998,29,Kobieta,2022-06-04_08h08.36.729,task,2021.1.4,Win32,59.89099838,628b806c463b948bc644b84f,629af6c58f2ef90f657ac409,,,,,,,,,,,px,"[""p"",""x""]","[2.1529000000953715,2.275100000143084,4.166000000000054]",1,PX,1,0,1,0,1,,,,,,,,,,,,,,,,,,,,,,,,,,,,,,,,,,,,,,,,,,,,,,,,,,,,,,,,,,,,,,,,,,,,,,,,,,,,,,,,,,,
,,,,,,,,,,5e370958fbc3bf68f59c8998,29,Kobieta,2022-06-04_08h08.36.729,task,2021.1.4,Win32,59.89099838,628b806c463b948bc644b84f,629af6c58f2ef90f657ac409,,,,,0,0,0,0,1,X V Q F H G B L J M P D K C T S W R N Z,,,,,,,,,,,,,,,,,,,,,,,,,,,,,,,,,,,,,,,,,,,,,,,,,,,,,,,,,,,,,,,,,,,,,,,,,,,,,,,,,,,,,,,,,,,,,
,,,,,,,,,,5e370958fbc3bf68f59c8998,29,Kobieta,2022-06-04_08h08.36.729,task,2021.1.4,Win32,59.89099838,628b806c463b948bc644b84f,629af6c58f2ef90f657ac409,,,,,1,0,1,0,1,X V Q F H G B L J M P D K C T S W R N Z,,,,,,,,,,,,,,,,,,,,,,,,,,,,,,,,,,,,,,,,,,,,,,,,,,,,,,,,,,,,,,,,,,,,,,,,,,,,,,,,,,,,,,,,,,,,,
,,,,,,,,,,5e370958fbc3bf68f59c8998,29,Kobieta,2022-06-04_08h08.36.729,task,2021.1.4,Win32,59.89099838,628b806c463b948bc644b84f,629af6c58f2ef90f657ac409,,,,,2,0,2,0,1,X V Q F H G B L J M P D K C T S W R N Z,,,,,,,,,,,,,,,,,,,,,,,,,,,,,,,,,,,,,,,,,,,,,,,,,,,,,,,,,,,,,,,,,,,,,,,,,,,,,,,,,,,,,,,,,,,,,
,,,,,,,,,,5e370958fbc3bf68f59c8998,29,Kobieta,2022-06-04_08h08.36.729,task,2021.1.4,Win32,59.89099838,628b806c463b948bc644b84f,629af6c58f2ef90f657ac409,,,,,,,,,,,ntk,"[""n"",""t"",""k""]","[2.0712999999523163,2.8885999999046135,3.0062999999522617,3.849200000047631]",1,NTK,2,0,2,0,1,,,,,,,,,,,,,,,,,,,,,,,,,,,,,,,,,,,,,,,,,,,,,,,,,,,,,,,,,,,,,,,,,,,,,,,,,,,,,,,,,,,
,,,,,,,,,,5e370958fbc3bf68f59c8998,29,Kobieta,2022-06-04_08h08.36.729,task,2021.1.4,Win32,59.89099838,628b806c463b948bc644b84f,629af6c58f2ef90f657ac409,,,,,0,0,0,0,1,X V Q F H G B L J M P D K C T S W R N Z,,,,,,,,,,,,,,,,,,,,,,,,,,,,,,,,,,,,,,,,,,,,,,,,,,,,,,,,,,,,,,,,,,,,,,,,,,,,,,,,,,,,,,,,,,,,,
,,,,,,,,,,5e370958fbc3bf68f59c8998,29,Kobieta,2022-06-04_08h08.36.729,task,2021.1.4,Win32,59.89099838,628b806c463b948bc644b84f,629af6c58f2ef90f657ac409,,,,,1,0,1,0,1,X V Q F H G B L J M P D K C T S W R N Z,,,,,,,,,,,,,,,,,,,,,,,,,,,,,,,,,,,,,,,,,,,,,,,,,,,,,,,,,,,,,,,,,,,,,,,,,,,,,,,,,,,,,,,,,,,,,
,,,,,,,,,,5e370958fbc3bf68f59c8998,29,Kobieta,2022-06-04_08h08.36.729,task,2021.1.4,Win32,59.89099838,628b806c463b948bc644b84f,629af6c58f2ef90f657ac409,,,,,2,0,2,0,1,X V Q F H G B L J M P D K C T S W R N Z,,,,,,,,,,,,,,,,,,,,,,,,,,,,,,,,,,,,,,,,,,,,,,,,,,,,,,,,,,,,,,,,,,,,,,,,,,,,,,,,,,,,,,,,,,,,,
,,,,,,,,,,5e370958fbc3bf68f59c8998,29,Kobieta,2022-06-04_08h08.36.729,task,2021.1.4,Win32,59.89099838,628b806c463b948bc644b84f,629af6c58f2ef90f657ac409,,,,,,,,,,,tqw,"[""t"",""q"",""w""]","[2.2139999999999986,2.3197000000477033,2.46550000000002,3.6497000000476874]",1,TQW,3,0,3,0,1,,,,,,,,,,,,,,,,,,,,,,,,,,,,,,,,,,,,,,,,,,,,,,,,,,,,,,,,,,,,,,,,,,,,,,,,,,,,,,,,,,,
,,,,,,,,,,5e370958fbc3bf68f59c8998,29,Kobieta,2022-06-04_08h08.36.729,task,2021.1.4,Win32,59.89099838,628b806c463b948bc644b84f,629af6c58f2ef90f657ac409,,,,,0,0,0,0,1,X V Q F H G B L J M P D K C T S W R N Z,,,,,,,,,,,,,,,,,,,,,,,,,,,,,,,,,,,,,,,,,,,,,,,,,,,,,,,,,,,,,,,,,,,,,,,,,,,,,,,,,,,,,,,,,,,,,
,,,,,,,,,,5e370958fbc3bf68f59c8998,29,Kobieta,2022-06-04_08h08.36.729,task,2021.1.4,Win32,59.89099838,628b806c463b948bc644b84f,629af6c58f2ef90f657ac409,,,,,1,0,1,0,1,X V Q F H G B L J M P D K C T S W R N Z,,,,,,,,,,,,,,,,,,,,,,,,,,,,,,,,,,,,,,,,,,,,,,,,,,,,,,,,,,,,,,,,,,,,,,,,,,,,,,,,,,,,,,,,,,,,,
,,,,,,,,,,5e370958fbc3bf68f59c8998,29,Kobieta,2022-06-04_08h08.36.729,task,2021.1.4,Win32,59.89099838,628b806c463b948bc644b84f,629af6c58f2ef90f657ac409,,,,,2,0,2,0,1,X V Q F H G B L J M P D K C T S W R N Z,,,,,,,,,,,,,,,,,,,,,,,,,,,,,,,,,,,,,,,,,,,,,,,,,,,,,,,,,,,,,,,,,,,,,,,,,,,,,,,,,,,,,,,,,,,,,
,,,,,,,,,,5e370958fbc3bf68f59c8998,29,Kobieta,2022-06-04_08h08.36.729,task,2021.1.4,Win32,59.89099838,628b806c463b948bc644b84f,629af6c58f2ef90f657ac409,,,,,3,0,3,0,1,X V Q F H G B L J M P D K C T S W R N Z,,,,,,,,,,,,,,,,,,,,,,,,,,,,,,,,,,,,,,,,,,,,,,,,,,,,,,,,,,,,,,,,,,,,,,,,,,,,,,,,,,,,,,,,,,,,,
,,,,,,,,,,5e370958fbc3bf68f59c8998,29,Kobieta,2022-06-04_08h08.36.729,task,2021.1.4,Win32,59.89099838,628b806c463b948bc644b84f,629af6c58f2ef90f657ac409,,,,,,,,,,,lcmr,"[""l"",""c"",""m"",""r""]","[1.5159999999999627,1.9159999999999968,2.216000000000008,2.5372999999523245,3.453399999856913]",1,LCMR,4,0,4,0,1,,,,,,,,,,,,,,,,,,,,,,,,,,,,,,,,,,,,,,,,,,,,,,,,,,,,,,,,,,,,,,,,,,,,,,,,,,,,,,,,,,,
,,,,,,,,,,5e370958fbc3bf68f59c8998,29,Kobieta,2022-06-04_08h08.36.729,task,2021.1.4,Win32,59.89099838,628b806c463b948bc644b84f,629af6c58f2ef90f657ac409,,,,,0,0,0,0,1,X V Q F H G B L J M P D K C T S W R N Z,,,,,,,,,,,,,,,,,,,,,,,,,,,,,,,,,,,,,,,,,,,,,,,,,,,,,,,,,,,,,,,,,,,,,,,,,,,,,,,,,,,,,,,,,,,,,
,,,,,,,,,,5e370958fbc3bf68f59c8998,29,Kobieta,2022-06-04_08h08.36.729,task,2021.1.4,Win32,59.89099838,628b806c463b948bc644b84f,629af6c58f2ef90f657ac409,,,,,1,0,1,0,1,X V Q F H G B L J M P D K C T S W R N Z,,,,,,,,,,,,,,,,,,,,,,,,,,,,,,,,,,,,,,,,,,,,,,,,,,,,,,,,,,,,,,,,,,,,,,,,,,,,,,,,,,,,,,,,,,,,,
,,,,,,,,,,5e370958fbc3bf68f59c8998,29,Kobieta,2022-06-04_08h08.36.729,task,2021.1.4,Win32,59.89099838,628b806c463b948bc644b84f,629af6c58f2ef90f657ac409,,,,,2,0,2,0,1,X V Q F H G B L J M P D K C T S W R N Z,,,,,,,,,,,,,,,,,,,,,,,,,,,,,,,,,,,,,,,,,,,,,,,,,,,,,,,,,,,,,,,,,,,,,,,,,,,,,,,,,,,,,,,,,,,,,
,,,,,,,,,,5e370958fbc3bf68f59c8998,29,Kobieta,2022-06-04_08h08.36.729,task,2021.1.4,Win32,59.89099838,628b806c463b948bc644b84f,629af6c58f2ef90f657ac409,,,,,3,0,3,0,1,X V Q F H G B L J M P D K C T S W R N Z,,,,,,,,,,,,,,,,,,,,,,,,,,,,,,,,,,,,,,,,,,,,,,,,,,,,,,,,,,,,,,,,,,,,,,,,,,,,,,,,,,,,,,,,,,,,,
,,,,,,,,,,5e370958fbc3bf68f59c8998,29,Kobieta,2022-06-04_08h08.36.729,task,2021.1.4,Win32,59.89099838,628b806c463b948bc644b84f,629af6c58f2ef90f657ac409,,,,,,,,,,,wfsm,"[""w"",""f"",""s"",""m""]","[1.2524999999999977,1.743300000190743,2.0339000000954,2.2658000001907226,3.627999999999986]",1,WFSM,5,0,5,0,1,,,,,,,,,,,,,,,,,,,,,,,,,,,,,,,,,,,,,,,,,,,,,,,,,,,,,,,,,,,,,,,,,,,,,,,,,,,,,,,,,,,
,,,,,,,,,,5e370958fbc3bf68f59c8998,29,Kobieta,2022-06-04_08h08.36.729,task,2021.1.4,Win32,59.89099838,628b806c463b948bc644b84f,629af6c58f2ef90f657ac409,,,,,0,0,0,0,1,X V Q F H G B L J M P D K C T S W R N Z,,,,,,,,,,,,,,,,,,,,,,,,,,,,,,,,,,,,,,,,,,,,,,,,,,,,,,,,,,,,,,,,,,,,,,,,,,,,,,,,,,,,,,,,,,,,,
,,,,,,,,,,5e370958fbc3bf68f59c8998,29,Kobieta,2022-06-04_08h08.36.729,task,2021.1.4,Win32,59.89099838,628b806c463b948bc644b84f,629af6c58f2ef90f657ac409,,,,,1,0,1,0,1,X V Q F H G B L J M P D K C T S W R N Z,,,,,,,,,,,,,,,,,,,,,,,,,,,,,,,,,,,,,,,,,,,,,,,,,,,,,,,,,,,,,,,,,,,,,,,,,,,,,,,,,,,,,,,,,,,,,
,,,,,,,,,,5e370958fbc3bf68f59c8998,29,Kobieta,2022-06-04_08h08.36.729,task,2021.1.4,Win32,59.89099838,628b806c463b948bc644b84f,629af6c58f2ef90f657ac409,,,,,2,0,2,0,1,X V Q F H G B L J M P D K C T S W R N Z,,,,,,,,,,,,,,,,,,,,,,,,,,,,,,,,,,,,,,,,,,,,,,,,,,,,,,,,,,,,,,,,,,,,,,,,,,,,,,,,,,,,,,,,,,,,,
,,,,,,,,,,5e370958fbc3bf68f59c8998,29,Kobieta,2022-06-04_08h08.36.729,task,2021.1.4,Win32,59.89099838,628b806c463b948bc644b84f,629af6c58f2ef90f657ac409,,,,,3,0,3,0,1,X V Q F H G B L J M P D K C T S W R N Z,,,,,,,,,,,,,,,,,,,,,,,,,,,,,,,,,,,,,,,,,,,,,,,,,,,,,,,,,,,,,,,,,,,,,,,,,,,,,,,,,,,,,,,,,,,,,
,,,,,,,,,,5e370958fbc3bf68f59c8998,29,Kobieta,2022-06-04_08h08.36.729,task,2021.1.4,Win32,59.89099838,628b806c463b948bc644b84f,629af6c58f2ef90f657ac409,,,,,4,0,4,0,1,X V Q F H G B L J M P D K C T S W R N Z,,,,,,,,,,,,,,,,,,,,,,,,,,,,,,,,,,,,,,,,,,,,,,,,,,,,,,,,,,,,,,,,,,,,,,,,,,,,,,,,,,,,,,,,,,,,,
,,,,,,,,,,5e370958fbc3bf68f59c8998,29,Kobieta,2022-06-04_08h08.36.729,task,2021.1.4,Win32,59.89099838,628b806c463b948bc644b84f,629af6c58f2ef90f657ac409,,,,,,,,,,,cgnns,"[""c"",""g"",""n"",""n"",""s""]","[1.4950000000000045,1.8840000000000146,2.9994000000953633,3.2928000001907094,3.5583000001907408,4.500800000190736]",1,CGNNS,6,0,6,0,1,,,,,,,,,,,,,,,,,,,,,,,,,,,,,,,,,,,,,,,,,,,,,,,,,,,,,,,,,,,,,,,,,,,,,,,,,,,,,,,,,,,
,,,,,,,,,,5e370958fbc3bf68f59c8998,29,Kobieta,2022-06-04_08h08.36.729,task,2021.1.4,Win32,59.89099838,628b806c463b948bc644b84f,629af6c58f2ef90f657ac409,,,,,0,0,0,0,1,X V Q F H G B L J M P D K C T S W R N Z,,,,,,,,,,,,,,,,,,,,,,,,,,,,,,,,,,,,,,,,,,,,,,,,,,,,,,,,,,,,,,,,,,,,,,,,,,,,,,,,,,,,,,,,,,,,,
,,,,,,,,,,5e370958fbc3bf68f59c8998,29,Kobieta,2022-06-04_08h08.36.729,task,2021.1.4,Win32,59.89099838,628b806c463b948bc644b84f,629af6c58f2ef90f657ac409,,,,,1,0,1,0,1,X V Q F H G B L J M P D K C T S W R N Z,,,,,,,,,,,,,,,,,,,,,,,,,,,,,,,,,,,,,,,,,,,,,,,,,,,,,,,,,,,,,,,,,,,,,,,,,,,,,,,,,,,,,,,,,,,,,
,,,,,,,,,,5e370958fbc3bf68f59c8998,29,Kobieta,2022-06-04_08h08.36.729,task,2021.1.4,Win32,59.89099838,628b806c463b948bc644b84f,629af6c58f2ef90f657ac409,,,,,2,0,2,0,1,X V Q F H G B L J M P D K C T S W R N Z,,,,,,,,,,,,,,,,,,,,,,,,,,,,,,,,,,,,,,,,,,,,,,,,,,,,,,,,,,,,,,,,,,,,,,,,,,,,,,,,,,,,,,,,,,,,,
,,,,,,,,,,5e370958fbc3bf68f59c8998,29,Kobieta,2022-06-04_08h08.36.729,task,2021.1.4,Win32,59.89099838,628b806c463b948bc644b84f,629af6c58f2ef90f657ac409,,,,,3,0,3,0,1,X V Q F H G B L J M P D K C T S W R N Z,,,,,,,,,,,,,,,,,,,,,,,,,,,,,,,,,,,,,,,,,,,,,,,,,,,,,,,,,,,,,,,,,,,,,,,,,,,,,,,,,,,,,,,,,,,,,
,,,,,,,,,,5e370958fbc3bf68f59c8998,29,Kobieta,2022-06-04_08h08.36.729,task,2021.1.4,Win32,59.89099838,628b806c463b948bc644b84f,629af6c58f2ef90f657ac409,,,,,4,0,4,0,1,X V Q F H G B L J M P D K C T S W R N Z,,,,,,,,,,,,,,,,,,,,,,,,,,,,,,,,,,,,,,,,,,,,,,,,,,,,,,,,,,,,,,,,,,,,,,,,,,,,,,,,,,,,,,,,,,,,,
,,,,,,,,,,5e370958fbc3bf68f59c8998,29,Kobieta,2022-06-04_08h08.36.729,task,2021.1.4,Win32,59.89099838,628b806c463b948bc644b84f,629af6c58f2ef90f657ac409,,,,,,,,,,,stzhk,"[""s"",""t"",""z"",""h"",""k""]","[1.2992000000476764,1.6647999999523222,2.085899999856963,3.3233999998569175,3.4532999999523213,4.35279999995231]",1,STZHK,7,0,7,0,1,,,,,,,,,,,,,,,,,,,,,,,,,,,,,,,,,,,,,,,,,,,,,,,,,,,,,,,,,,,,,,,,,,,,,,,,,,,,,,,,,,,
,,,,,,,,,,5e370958fbc3bf68f59c8998,29,Kobieta,2022-06-04_08h08.36.729,task,2021.1.4,Win32,59.89099838,628b806c463b948bc644b84f,629af6c58f2ef90f657ac409,,,,,0,0,0,0,1,X V Q F H G B L J M P D K C T S W R N Z,,,,,,,,,,,,,,,,,,,,,,,,,,,,,,,,,,,,,,,,,,,,,,,,,,,,,,,,,,,,,,,,,,,,,,,,,,,,,,,,,,,,,,,,,,,,,
,,,,,,,,,,5e370958fbc3bf68f59c8998,29,Kobieta,2022-06-04_08h08.36.729,task,2021.1.4,Win32,59.89099838,628b806c463b948bc644b84f,629af6c58f2ef90f657ac409,,,,,1,0,1,0,1,X V Q F H G B L J M P D K C T S W R N Z,,,,,,,,,,,,,,,,,,,,,,,,,,,,,,,,,,,,,,,,,,,,,,,,,,,,,,,,,,,,,,,,,,,,,,,,,,,,,,,,,,,,,,,,,,,,,
,,,,,,,,,,5e370958fbc3bf68f59c8998,29,Kobieta,2022-06-04_08h08.36.729,task,2021.1.4,Win32,59.89099838,628b806c463b948bc644b84f,629af6c58f2ef90f657ac409,,,,,2,0,2,0,1,X V Q F H G B L J M P D K C T S W R N Z,,,,,,,,,,,,,,,,,,,,,,,,,,,,,,,,,,,,,,,,,,,,,,,,,,,,,,,,,,,,,,,,,,,,,,,,,,,,,,,,,,,,,,,,,,,,,
,,,,,,,,,,5e370958fbc3bf68f59c8998,29,Kobieta,2022-06-04_08h08.36.729,task,2021.1.4,Win32,59.89099838,628b806c463b948bc644b84f,629af6c58f2ef90f657ac409,,,,,3,0,3,0,1,X V Q F H G B L J M P D K C T S W R N Z,,,,,,,,,,,,,,,,,,,,,,,,,,,,,,,,,,,,,,,,,,,,,,,,,,,,,,,,,,,,,,,,,,,,,,,,,,,,,,,,,,,,,,,,,,,,,
,,,,,,,,,,5e370958fbc3bf68f59c8998,29,Kobieta,2022-06-04_08h08.36.729,task,2021.1.4,Win32,59.89099838,628b806c463b948bc644b84f,629af6c58f2ef90f657ac409,,,,,4,0,4,0,1,X V Q F H G B L J M P D K C T S W R N Z,,,,,,,,,,,,,,,,,,,,,,,,,,,,,,,,,,,,,,,,,,,,,,,,,,,,,,,,,,,,,,,,,,,,,,,,,,,,,,,,,,,,,,,,,,,,,
,,,,,,,,,,5e370958fbc3bf68f59c8998,29,Kobieta,2022-06-04_08h08.36.729,task,2021.1.4,Win32,59.89099838,628b806c463b948bc644b84f,629af6c58f2ef90f657ac409,,,,,5,0,5,0,1,X V Q F H G B L J M P D K C T S W R N Z,,,,,,,,,,,,,,,,,,,,,,,,,,,,,,,,,,,,,,,,,,,,,,,,,,,,,,,,,,,,,,,,,,,,,,,,,,,,,,,,,,,,,,,,,,,,,
,,,,,,,,,,5e370958fbc3bf68f59c8998,29,Kobieta,2022-06-04_08h08.36.729,task,2021.1.4,Win32,59.89099838,628b806c463b948bc644b84f,629af6c58f2ef90f657ac409,,,,,,,,,,,zgwvbm,"[""z"",""g"",""w"",""v"",""b"",""m""]","[1.7037999999523095,2.216900000095336,3.160900000095353,3.969900000095322,4.622700000047644,5.1599000000953765,6.277999999999963]",1,ZGWVBM,8,0,8,0,1,,,,,,,,,,,,,,,,,,,,,,,,,,,,,,,,,,,,,,,,,,,,,,,,,,,,,,,,,,,,,,,,,,,,,,,,,,,,,,,,,,,
,,,,,,,,,,5e370958fbc3bf68f59c8998,29,Kobieta,2022-06-04_08h08.36.729,task,2021.1.4,Win32,59.89099838,628b806c463b948bc644b84f,629af6c58f2ef90f657ac409,,,,,0,0,0,0,1,X V Q F H G B L J M P D K C T S W R N Z,,,,,,,,,,,,,,,,,,,,,,,,,,,,,,,,,,,,,,,,,,,,,,,,,,,,,,,,,,,,,,,,,,,,,,,,,,,,,,,,,,,,,,,,,,,,,
,,,,,,,,,,5e370958fbc3bf68f59c8998,29,Kobieta,2022-06-04_08h08.36.729,task,2021.1.4,Win32,59.89099838,628b806c463b948bc644b84f,629af6c58f2ef90f657ac409,,,,,1,0,1,0,1,X V Q F H G B L J M P D K C T S W R N Z,,,,,,,,,,,,,,,,,,,,,,,,,,,,,,,,,,,,,,,,,,,,,,,,,,,,,,,,,,,,,,,,,,,,,,,,,,,,,,,,,,,,,,,,,,,,,
,,,,,,,,,,5e370958fbc3bf68f59c8998,29,Kobieta,2022-06-04_08h08.36.729,task,2021.1.4,Win32,59.89099838,628b806c463b948bc644b84f,629af6c58f2ef90f657ac409,,,,,2,0,2,0,1,X V Q F H G B L J M P D K C T S W R N Z,,,,,,,,,,,,,,,,,,,,,,,,,,,,,,,,,,,,,,,,,,,,,,,,,,,,,,,,,,,,,,,,,,,,,,,,,,,,,,,,,,,,,,,,,,,,,
,,,,,,,,,,5e370958fbc3bf68f59c8998,29,Kobieta,2022-06-04_08h08.36.729,task,2021.1.4,Win32,59.89099838,628b806c463b948bc644b84f,629af6c58f2ef90f657ac409,,,,,3,0,3,0,1,X V Q F H G B L J M P D K C T S W R N Z,,,,,,,,,,,,,,,,,,,,,,,,,,,,,,,,,,,,,,,,,,,,,,,,,,,,,,,,,,,,,,,,,,,,,,,,,,,,,,,,,,,,,,,,,,,,,
,,,,,,,,,,5e370958fbc3bf68f59c8998,29,Kobieta,2022-06-04_08h08.36.729,task,2021.1.4,Win32,59.89099838,628b806c463b948bc644b84f,629af6c58f2ef90f657ac409,,,,,4,0,4,0,1,X V Q F H G B L J M P D K C T S W R N Z,,,,,,,,,,,,,,,,,,,,,,,,,,,,,,,,,,,,,,,,,,,,,,,,,,,,,,,,,,,,,,,,,,,,,,,,,,,,,,,,,,,,,,,,,,,,,
,,,,,,,,,,5e370958fbc3bf68f59c8998,29,Kobieta,2022-06-04_08h08.36.729,task,2021.1.4,Win32,59.89099838,628b806c463b948bc644b84f,629af6c58f2ef90f657ac409,,,,,5,0,5,0,1,X V Q F H G B L J M P D K C T S W R N Z,,,,,,,,,,,,,,,,,,,,,,,,,,,,,,,,,,,,,,,,,,,,,,,,,,,,,,,,,,,,,,,,,,,,,,,,,,,,,,,,,,,,,,,,,,,,,
,,,,,,,,,,5e370958fbc3bf68f59c8998,29,Kobieta,2022-06-04_08h08.36.729,task,2021.1.4,Win32,59.89099838,628b806c463b948bc644b84f,629af6c58f2ef90f657ac409,,,,,,,,,,,jfcfsn,"[""j"",""f"",""c"",""f"",""s"",""n""]","[4.443400000095437,5.277100000143093,5.900800000190827,11.291600000143092,12.40040000009543,16.528300000190768,16.933900000095434]",1,JFCFSN,9,0,9,0,1,,,,,,,,,,,,,,,,,,,,,,,,,,,,,,,,,,,,,,,,,,,,,,,,,,,,,,,,,,,,,,,,,,,,,,,,,,,,,,,,,,,
,,,,,,,,,,5e370958fbc3bf68f59c8998,29,Kobieta,2022-06-04_08h08.36.729,task,2021.1.4,Win32,59.89099838,628b806c463b948bc644b84f,629af6c58f2ef90f657ac409,,,,,0,0,0,0,1,X V Q F H G B L J M P D K C T S W R N Z,,,,,,,,,,,,,,,,,,,,,,,,,,,,,,,,,,,,,,,,,,,,,,,,,,,,,,,,,,,,,,,,,,,,,,,,,,,,,,,,,,,,,,,,,,,,,
,,,,,,,,,,5e370958fbc3bf68f59c8998,29,Kobieta,2022-06-04_08h08.36.729,task,2021.1.4,Win32,59.89099838,628b806c463b948bc644b84f,629af6c58f2ef90f657ac409,,,,,1,0,1,0,1,X V Q F H G B L J M P D K C T S W R N Z,,,,,,,,,,,,,,,,,,,,,,,,,,,,,,,,,,,,,,,,,,,,,,,,,,,,,,,,,,,,,,,,,,,,,,,,,,,,,,,,,,,,,,,,,,,,,
,,,,,,,,,,5e370958fbc3bf68f59c8998,29,Kobieta,2022-06-04_08h08.36.729,task,2021.1.4,Win32,59.89099838,628b806c463b948bc644b84f,629af6c58f2ef90f657ac409,,,,,2,0,2,0,1,X V Q F H G B L J M P D K C T S W R N Z,,,,,,,,,,,,,,,,,,,,,,,,,,,,,,,,,,,,,,,,,,,,,,,,,,,,,,,,,,,,,,,,,,,,,,,,,,,,,,,,,,,,,,,,,,,,,
,,,,,,,,,,5e370958fbc3bf68f59c8998,29,Kobieta,2022-06-04_08h08.36.729,task,2021.1.4,Win32,59.89099838,628b806c463b948bc644b84f,629af6c58f2ef90f657ac409,,,,,3,0,3,0,1,X V Q F H G B L J M P D K C T S W R N Z,,,,,,,,,,,,,,,,,,,,,,,,,,,,,,,,,,,,,,,,,,,,,,,,,,,,,,,,,,,,,,,,,,,,,,,,,,,,,,,,,,,,,,,,,,,,,
,,,,,,,,,,5e370958fbc3bf68f59c8998,29,Kobieta,2022-06-04_08h08.36.729,task,2021.1.4,Win32,59.89099838,628b806c463b948bc644b84f,629af6c58f2ef90f657ac409,,,,,4,0,4,0,1,X V Q F H G B L J M P D K C T S W R N Z,,,,,,,,,,,,,,,,,,,,,,,,,,,,,,,,,,,,,,,,,,,,,,,,,,,,,,,,,,,,,,,,,,,,,,,,,,,,,,,,,,,,,,,,,,,,,
,,,,,,,,,,5e370958fbc3bf68f59c8998,29,Kobieta,2022-06-04_08h08.36.729,task,2021.1.4,Win32,59.89099838,628b806c463b948bc644b84f,629af6c58f2ef90f657ac409,,,,,5,0,5,0,1,X V Q F H G B L J M P D K C T S W R N Z,,,,,,,,,,,,,,,,,,,,,,,,,,,,,,,,,,,,,,,,,,,,,,,,,,,,,,,,,,,,,,,,,,,,,,,,,,,,,,,,,,,,,,,,,,,,,
,,,,,,,,,,5e370958fbc3bf68f59c8998,29,Kobieta,2022-06-04_08h08.36.729,task,2021.1.4,Win32,59.89099838,628b806c463b948bc644b84f,629af6c58f2ef90f657ac409,,,,,6,0,6,0,1,X V Q F H G B L J M P D K C T S W R N Z,,,,,,,,,,,,,,,,,,,,,,,,,,,,,,,,,,,,,,,,,,,,,,,,,,,,,,,,,,,,,,,,,,,,,,,,,,,,,,,,,,,,,,,,,,,,,
,,,,,,,,,,5e370958fbc3bf68f59c8998,29,Kobieta,2022-06-04_08h08.36.729,task,2021.1.4,Win32,59.89099838,628b806c463b948bc644b84f,629af6c58f2ef90f657ac409,,,,,,,,,,,sstwmcs,"[""s"",""s"",""t"",""w"",""m"",""c"",""s""]","[1.9825999999045507,2.1535999999046,2.6047000000476146,2.969799999952329,3.8077999999522945,4.032099999904631,4.252700000047639,9.999000000000024]",0,SSTWMCF,10,0,10,0,1,,,,,,,,,,,,,,,,,,,,,,,,,,,,,,,,,,,,,,,,,,,,,,,,,,,,,,,,,,,,,,,,,,,,,,,,,,,,,,,,,,,
,,,,,,,,,,5e370958fbc3bf68f59c8998,29,Kobieta,2022-06-04_08h08.36.729,task,2021.1.4,Win32,59.89099838,628b806c463b948bc644b84f,629af6c58f2ef90f657ac409,,,,,0,0,0,0,1,X V Q F H G B L J M P D K C T S W R N Z,,,,,,,,,,,,,,,,,,,,,,,,,,,,,,,,,,,,,,,,,,,,,,,,,,,,,,,,,,,,,,,,,,,,,,,,,,,,,,,,,,,,,,,,,,,,,
,,,,,,,,,,5e370958fbc3bf68f59c8998,29,Kobieta,2022-06-04_08h08.36.729,task,2021.1.4,Win32,59.89099838,628b806c463b948bc644b84f,629af6c58f2ef90f657ac409,,,,,1,0,1,0,1,X V Q F H G B L J M P D K C T S W R N Z,,,,,,,,,,,,,,,,,,,,,,,,,,,,,,,,,,,,,,,,,,,,,,,,,,,,,,,,,,,,,,,,,,,,,,,,,,,,,,,,,,,,,,,,,,,,,
,,,,,,,,,,5e370958fbc3bf68f59c8998,29,Kobieta,2022-06-04_08h08.36.729,task,2021.1.4,Win32,59.89099838,628b806c463b948bc644b84f,629af6c58f2ef90f657ac409,,,,,2,0,2,0,1,X V Q F H G B L J M P D K C T S W R N Z,,,,,,,,,,,,,,,,,,,,,,,,,,,,,,,,,,,,,,,,,,,,,,,,,,,,,,,,,,,,,,,,,,,,,,,,,,,,,,,,,,,,,,,,,,,,,
,,,,,,,,,,5e370958fbc3bf68f59c8998,29,Kobieta,2022-06-04_08h08.36.729,task,2021.1.4,Win32,59.89099838,628b806c463b948bc644b84f,629af6c58f2ef90f657ac409,,,,,3,0,3,0,1,X V Q F H G B L J M P D K C T S W R N Z,,,,,,,,,,,,,,,,,,,,,,,,,,,,,,,,,,,,,,,,,,,,,,,,,,,,,,,,,,,,,,,,,,,,,,,,,,,,,,,,,,,,,,,,,,,,,
,,,,,,,,,,5e370958fbc3bf68f59c8998,29,Kobieta,2022-06-04_08h08.36.729,task,2021.1.4,Win32,59.89099838,628b806c463b948bc644b84f,629af6c58f2ef90f657ac409,,,,,4,0,4,0,1,X V Q F H G B L J M P D K C T S W R N Z,,,,,,,,,,,,,,,,,,,,,,,,,,,,,,,,,,,,,,,,,,,,,,,,,,,,,,,,,,,,,,,,,,,,,,,,,,,,,,,,,,,,,,,,,,,,,
,,,,,,,,,,5e370958fbc3bf68f59c8998,29,Kobieta,2022-06-04_08h08.36.729,task,2021.1.4,Win32,59.89099838,628b806c463b948bc644b84f,629af6c58f2ef90f657ac409,,,,,5,0,5,0,1,X V Q F H G B L J M P D K C T S W R N Z,,,,,,,,,,,,,,,,,,,,,,,,,,,,,,,,,,,,,,,,,,,,,,,,,,,,,,,,,,,,,,,,,,,,,,,,,,,,,,,,,,,,,,,,,,,,,
,,,,,,,,,,5e370958fbc3bf68f59c8998,29,Kobieta,2022-06-04_08h08.36.729,task,2021.1.4,Win32,59.89099838,628b806c463b948bc644b84f,629af6c58f2ef90f657ac409,,,,,6,0,6,0,1,X V Q F H G B L J M P D K C T S W R N Z,,,,,,,,,,,,,,,,,,,,,,,,,,,,,,,,,,,,,,,,,,,,,,,,,,,,,,,,,,,,,,,,,,,,,,,,,,,,,,,,,,,,,,,,,,,,,
,,,,,,,,,,5e370958fbc3bf68f59c8998,29,Kobieta,2022-06-04_08h08.36.729,task,2021.1.4,Win32,59.89099838,628b806c463b948bc644b84f,629af6c58f2ef90f657ac409,,,,,,,,,,,xgxcsbh,"[""x"",""g"",""x"",""c"",""s"",""b"",""h""]","[3.1006000001431175,3.3334000000953665,3.466600000143103,4.372500000000059,5.366700000047672,5.888800000190827,6.200200000047744,8.850000000000023]",1,XGXCSBH,11,0,11,0,1,,,,,,,,,,,,,,,,,,,,,,,,,,,,,,,,,,,,,,,,,,,,,,,,,,,,,,,,,,,,,,,,,,,,,,,,,,,,,,,,,,,
,,,,,,,,,,5e370958fbc3bf68f59c8998,29,Kobieta,2022-06-04_08h08.36.729,task,2021.1.4,Win32,59.89099838,628b806c463b948bc644b84f,629af6c58f2ef90f657ac409,,,,,0,0,0,0,1,X V Q F H G B L J M P D K C T S W R N Z,,,,,,,,,,,,,,,,,,,,,,,,,,,,,,,,,,,,,,,,,,,,,,,,,,,,,,,,,,,,,,,,,,,,,,,,,,,,,,,,,,,,,,,,,,,,,
,,,,,,,,,,5e370958fbc3bf68f59c8998,29,Kobieta,2022-06-04_08h08.36.729,task,2021.1.4,Win32,59.89099838,628b806c463b948bc644b84f,629af6c58f2ef90f657ac409,,,,,1,0,1,0,1,X V Q F H G B L J M P D K C T S W R N Z,,,,,,,,,,,,,,,,,,,,,,,,,,,,,,,,,,,,,,,,,,,,,,,,,,,,,,,,,,,,,,,,,,,,,,,,,,,,,,,,,,,,,,,,,,,,,
,,,,,,,,,,5e370958fbc3bf68f59c8998,29,Kobieta,2022-06-04_08h08.36.729,task,2021.1.4,Win32,59.89099838,628b806c463b948bc644b84f,629af6c58f2ef90f657ac409,,,,,2,0,2,0,1,X V Q F H G B L J M P D K C T S W R N Z,,,,,,,,,,,,,,,,,,,,,,,,,,,,,,,,,,,,,,,,,,,,,,,,,,,,,,,,,,,,,,,,,,,,,,,,,,,,,,,,,,,,,,,,,,,,,
,,,,,,,,,,5e370958fbc3bf68f59c8998,29,Kobieta,2022-06-04_08h08.36.729,task,2021.1.4,Win32,59.89099838,628b806c463b948bc644b84f,629af6c58f2ef90f657ac409,,,,,3,0,3,0,1,X V Q F H G B L J M P D K C T S W R N Z,,,,,,,,,,,,,,,,,,,,,,,,,,,,,,,,,,,,,,,,,,,,,,,,,,,,,,,,,,,,,,,,,,,,,,,,,,,,,,,,,,,,,,,,,,,,,
,,,,,,,,,,5e370958fbc3bf68f59c8998,29,Kobieta,2022-06-04_08h08.36.729,task,2021.1.4,Win32,59.89099838,628b806c463b948bc644b84f,629af6c58f2ef90f657ac409,,,,,4,0,4,0,1,X V Q F H G B L J M P D K C T S W R N Z,,,,,,,,,,,,,,,,,,,,,,,,,,,,,,,,,,,,,,,,,,,,,,,,,,,,,,,,,,,,,,,,,,,,,,,,,,,,,,,,,,,,,,,,,,,,,
,,,,,,,,,,5e370958fbc3bf68f59c8998,29,Kobieta,2022-06-04_08h08.36.729,task,2021.1.4,Win32,59.89099838,628b806c463b948bc644b84f,629af6c58f2ef90f657ac409,,,,,5,0,5,0,1,X V Q F H G B L J M P D K C T S W R N Z,,,,,,,,,,,,,,,,,,,,,,,,,,,,,,,,,,,,,,,,,,,,,,,,,,,,,,,,,,,,,,,,,,,,,,,,,,,,,,,,,,,,,,,,,,,,,
,,,,,,,,,,5e370958fbc3bf68f59c8998,29,Kobieta,2022-06-04_08h08.36.729,task,2021.1.4,Win32,59.89099838,628b806c463b948bc644b84f,629af6c58f2ef90f657ac409,,,,,6,0,6,0,1,X V Q F H G B L J M P D K C T S W R N Z,,,,,,,,,,,,,,,,,,,,,,,,,,,,,,,,,,,,,,,,,,,,,,,,,,,,,,,,,,,,,,,,,,,,,,,,,,,,,,,,,,,,,,,,,,,,,
,,,,,,,,,,5e370958fbc3bf68f59c8998,29,Kobieta,2022-06-04_08h08.36.729,task,2021.1.4,Win32,59.89099838,628b806c463b948bc644b84f,629af6c58f2ef90f657ac409,,,,,,,,,,,snfjhjm,"[""s"",""n"",""f"",""j"",""h"",""j"",""m""]","[1.6855000000000473,2.371200000047679,2.9042000000476946,3.359299999952327,5.378700000047729,7.052200000047719,7.117600000143057,7.58400000000006]",0,SNFHJFM,12,0,12,0,1,,,,,,,,,,,,,,,,,,,,,,,,,,,,,,,,,,,,,,,,,,,,,,,,,,,,,,,,,,,,,,,,,,,,,,,,,,,,,,,,,,,
,,,,,,,,,,5e370958fbc3bf68f59c8998,29,Kobieta,2022-06-04_08h08.36.729,task,2021.1.4,Win32,59.89099838,628b806c463b948bc644b84f,629af6c58f2ef90f657ac409,,,,,0,0,0,0,1,X V Q F H G B L J M P D K C T S W R N Z,,,,,,,,,,,,,,,,,,,,,,,,,,,,,,,,,,,,,,,,,,,,,,,,,,,,,,,,,,,,,,,,,,,,,,,,,,,,,,,,,,,,,,,,,,,,,
,,,,,,,,,,5e370958fbc3bf68f59c8998,29,Kobieta,2022-06-04_08h08.36.729,task,2021.1.4,Win32,59.89099838,628b806c463b948bc644b84f,629af6c58f2ef90f657ac409,,,,,1,0,1,0,1,X V Q F H G B L J M P D K C T S W R N Z,,,,,,,,,,,,,,,,,,,,,,,,,,,,,,,,,,,,,,,,,,,,,,,,,,,,,,,,,,,,,,,,,,,,,,,,,,,,,,,,,,,,,,,,,,,,,
,,,,,,,,,,5e370958fbc3bf68f59c8998,29,Kobieta,2022-06-04_08h08.36.729,task,2021.1.4,Win32,59.89099838,628b806c463b948bc644b84f,629af6c58f2ef90f657ac409,,,,,2,0,2,0,1,X V Q F H G B L J M P D K C T S W R N Z,,,,,,,,,,,,,,,,,,,,,,,,,,,,,,,,,,,,,,,,,,,,,,,,,,,,,,,,,,,,,,,,,,,,,,,,,,,,,,,,,,,,,,,,,,,,,
,,,,,,,,,,5e370958fbc3bf68f59c8998,29,Kobieta,2022-06-04_08h08.36.729,task,2021.1.4,Win32,59.89099838,628b806c463b948bc644b84f,629af6c58f2ef90f657ac409,,,,,3,0,3,0,1,X V Q F H G B L J M P D K C T S W R N Z,,,,,,,,,,,,,,,,,,,,,,,,,,,,,,,,,,,,,,,,,,,,,,,,,,,,,,,,,,,,,,,,,,,,,,,,,,,,,,,,,,,,,,,,,,,,,
,,,,,,,,,,5e370958fbc3bf68f59c8998,29,Kobieta,2022-06-04_08h08.36.729,task,2021.1.4,Win32,59.89099838,628b806c463b948bc644b84f,629af6c58f2ef90f657ac409,,,,,4,0,4,0,1,X V Q F H G B L J M P D K C T S W R N Z,,,,,,,,,,,,,,,,,,,,,,,,,,,,,,,,,,,,,,,,,,,,,,,,,,,,,,,,,,,,,,,,,,,,,,,,,,,,,,,,,,,,,,,,,,,,,
,,,,,,,,,,5e370958fbc3bf68f59c8998,29,Kobieta,2022-06-04_08h08.36.729,task,2021.1.4,Win32,59.89099838,628b806c463b948bc644b84f,629af6c58f2ef90f657ac409,,,,,5,0,5,0,1,X V Q F H G B L J M P D K C T S W R N Z,,,,,,,,,,,,,,,,,,,,,,,,,,,,,,,,,,,,,,,,,,,,,,,,,,,,,,,,,,,,,,,,,,,,,,,,,,,,,,,,,,,,,,,,,,,,,
,,,,,,,,,,5e370958fbc3bf68f59c8998,29,Kobieta,2022-06-04_08h08.36.729,task,2021.1.4,Win32,59.89099838,628b806c463b948bc644b84f,629af6c58f2ef90f657ac409,,,,,6,0,6,0,1,X V Q F H G B L J M P D K C T S W R N Z,,,,,,,,,,,,,,,,,,,,,,,,,,,,,,,,,,,,,,,,,,,,,,,,,,,,,,,,,,,,,,,,,,,,,,,,,,,,,,,,,,,,,,,,,,,,,
,,,,,,,,,,5e370958fbc3bf68f59c8998,29,Kobieta,2022-06-04_08h08.36.729,task,2021.1.4,Win32,59.89099838,628b806c463b948bc644b84f,629af6c58f2ef90f657ac409,,,,,,,,,,,dxxzhhd,"[""d"",""x"",""x"",""z"",""h"",""h"",""d""]","[7.735000000000014,9.000599999904694,9.776699999809239,10.399999999999977,10.876099999904682,13.166799999952332,15.252399999856948,15.700399999856927]",0,DXXZKKH,13,0,13,0,1,,,,,,,,,,,,,,,,,,,,,,,,,,,,,,,,,,,,,,,,,,,,,,,,,,,,,,,,,,,,,,,,,,,,,,,,,,,,,,,,,,,
,,,,,,,,,,5e370958fbc3bf68f59c8998,29,Kobieta,2022-06-04_08h08.36.729,task,2021.1.4,Win32,59.89099838,628b806c463b948bc644b84f,629af6c58f2ef90f657ac409,,,,,,,,,,,,,,,,,,,,,space,7.7265,5,"[""5""]",1,[7.8174999999999955],[7.8174999999999955],0,0,0,5,1,Practice,6,(4/2) + 3,5,,,,,,,,,,,,,,,,,,,,,,,,,,,,,,,,,,,,,,,,,,,,,,,,,,,,,,,,,,,,,,,,,,,
,,,,,,,,,,5e370958fbc3bf68f59c8998,29,Kobieta,2022-06-04_08h08.36.729,task,2021.1.4,Win32,59.89099838,628b806c463b948bc644b84f,629af6c58f2ef90f657ac409,,,,,,,,,,,,,,,,,,,,,,,6,"[""6""]",1,[2.86040000009541],"[7.8174999999999955,2.86040000009541]",0,1,1,6,1,Practice,7,(25/5) + 1,6,,,,,,,,,,,,,,,,,,,,,,,,,,,,,,,,,,,,,,,,,,,,,,,,,,,,,,,,,,,,,,,,,,,
,,,,,,,,,,5e370958fbc3bf68f59c8998,29,Kobieta,2022-06-04_08h08.36.729,task,2021.1.4,Win32,59.89099838,628b806c463b948bc644b84f,629af6c58f2ef90f657ac409,,,,,,,,,,,,,,,,,,,,,,,3,"[""3""]",1,[2.9889000000953274],"[7.8174999999999955,2.86040000009541,2.9889000000953274]",0,2,2,3,1,Practice,4,(8/4) + 1,3,,,,,,,,,,,,,,,,,,,,,,,,,,,,,,,,,,,,,,,,,,,,,,,,,,,,,,,,,,,,,,,,,,,
,,,,,,,,,,5e370958fbc3bf68f59c8998,29,Kobieta,2022-06-04_08h08.36.729,task,2021.1.4,Win32,59.89099838,628b806c463b948bc644b84f,629af6c58f2ef90f657ac409,,,,,,,,,,,,,,,,,,,,,,,8,"[""8""]",1,[3.504000000000019],"[7.8174999999999955,2.86040000009541,2.9889000000953274,3.504000000000019]",0,3,3,8,1,Practice,9,(3x3) - 1,8,,,,,,,,,,,,,,,,,,,,,,,,,,,,,,,,,,,,,,,,,,,,,,,,,,,,,,,,,,,,,,,,,,,
,,,,,,,,,,5e370958fbc3bf68f59c8998,29,Kobieta,2022-06-04_08h08.36.729,task,2021.1.4,Win32,59.89099838,628b806c463b948bc644b84f,629af6c58f2ef90f657ac409,,,,,,,,,,,,,,,,,,,,,,,1,"[""1""]",1,[2.976799999952277],"[7.8174999999999955,2.86040000009541,2.9889000000953274,3.504000000000019,2.976799999952277]",0,4,4,1,1,Practice,2,(4x4) - 15,1,,,,,,,,,,,,,,,,,,,,,,,,,,,,,,,,,,,,,,,,,,,,,,,,,,,,,,,,,,,,,,,,,,,
,,,,,,,,,,5e370958fbc3bf68f59c8998,29,Kobieta,2022-06-04_08h08.36.729,task,2021.1.4,Win32,59.89099838,628b806c463b948bc644b84f,629af6c58f2ef90f657ac409,,,,,,,,,,,,,,,,,,,,,,,7,"[""7""]",1,[10.670900000095344],"[7.8174999999999955,2.86040000009541,2.9889000000953274,3.504000000000019,2.976799999952277,10.670900000095344]",0,5,5,7,1,Practice,8,(5x5) - 18,7,,,,,,,,,,,,,,,,,,,,,,,,,,,,,,,,,,,,,,,,,,,,,,,,,,,,,,,,,,,,,,,,,,,
,,,,,,,,,,5e370958fbc3bf68f59c8998,29,Kobieta,2022-06-04_08h08.36.729,task,2021.1.4,Win32,59.89099838,628b806c463b948bc644b84f,629af6c58f2ef90f657ac409,,,,,,,,,,,,,,,,,,,,,,,0,"[""0""]",1,[3.3391000001430484],"[7.8174999999999955,2.86040000009541,2.9889000000953274,3.504000000000019,2.976799999952277,10.670900000095344,3.3391000001430484]",0,6,6,0,1,Practice,1,(3x3) -  9,0,,,,,,,,,,,,,,,,,,,,,,,,,,,,,,,,,,,,,,,,,,,,,,,,,,,,,,,,,,,,,,,,,,,
,,,,,,,,,,5e370958fbc3bf68f59c8998,29,Kobieta,2022-06-04_08h08.36.729,task,2021.1.4,Win32,59.89099838,628b806c463b948bc644b84f,629af6c58f2ef90f657ac409,,,,,,,,,,,,,,,,,,,,,,,2,"[""2""]",1,[2.257199999809245],"[7.8174999999999955,2.86040000009541,2.9889000000953274,3.504000000000019,2.976799999952277,10.670900000095344,3.3391000001430484,2.257199999809245]",0,7,7,2,1,Practice,3,(4x4) - 14,2,,,,,,,,,,,,,,,,,,,,,,,,,,,,,,,,,,,,,,,,,,,,,,,,,,,,,,,,,,,,,,,,,,,
,,,,,,,,,,5e370958fbc3bf68f59c8998,29,Kobieta,2022-06-04_08h08.36.729,task,2021.1.4,Win32,59.89099838,628b806c463b948bc644b84f,629af6c58f2ef90f657ac409,,,,,,,,,,,,,,,,,,,,,,,4,"[""4""]",1,[4.9951000001429975],"[7.8174999999999955,2.86040000009541,2.9889000000953274,3.504000000000019,2.976799999952277,10.670900000095344,3.3391000001430484,2.257199999809245,4.9951000001429975]",0,8,8,4,1,Practice,5,(2x6) - 8,4,,,,,,,,,,,,,,,,,,,,,,,,,,,,,,,,,,,,,,,,,,,,,,,,,,,,,,,,,,,,,,,,,,,
,,,,,,,,,,5e370958fbc3bf68f59c8998,29,Kobieta,2022-06-04_08h08.36.729,task,2021.1.4,Win32,59.89099838,628b806c463b948bc644b84f,629af6c58f2ef90f657ac409,,,,,,,,,,,,,,,,,,,,,,,9,"[""9""]",1,[2.3658999998569925],"[7.8174999999999955,2.86040000009541,2.9889000000953274,3.504000000000019,2.976799999952277,10.670900000095344,3.3391000001430484,2.257199999809245,4.9951000001429975,2.3658999998569925]",0,9,9,9,1,Practice,10,(20/2) - 1,9,,,,,,,,,,,,,,,,,,,,,,,,,,,,,,,,,,,,,,,,,,,,,,,,,,,,,,,,,,,,,,,,,,,
,,,,,,,,,,5e370958fbc3bf68f59c8998,29,Kobieta,2022-06-04_08h08.36.729,task,2021.1.4,Win32,59.89099838,628b806c463b948bc644b84f,629af6c58f2ef90f657ac409,,,,,,,,,,,,,,,,,,,,,,,,,,,,,,,,,,,,,1,43.7758,2.918386667,89.68961142,2.445262241,9.227163249,space,8.7077,0,0,0,0,1,,,,,,,,,,,,,,,,,,,,,,,,,,,,,,,,,,,,,,,,,,,,,,,,,,,,,,
,,,,,,,,,,5e370958fbc3bf68f59c8998,29,Kobieta,2022-06-04_08h08.36.729,task,2021.1.4,Win32,59.89099838,628b806c463b948bc644b84f,629af6c58f2ef90f657ac409,,,,,,,,,,,,,,,,,,,,,,,8,,,,,,,,,,Practice,9,(3x3) - 1,8,,,,,,,,,,,,,,space,15.973,"[""8""]",1,[3.81959999990454],1,0,0,0,8,1,,,,,,,,,,,,,,,,,,,,,,,,,,,,,,,,,,,,,,,,,,,
,,,,,,,,,,5e370958fbc3bf68f59c8998,29,Kobieta,2022-06-04_08h08.36.729,task,2021.1.4,Win32,59.89099838,628b806c463b948bc644b84f,629af6c58f2ef90f657ac409,,,,,,,,,,X V Q F H G B L J M P D K C T S W R N Z,,,,,,,,,,,,,,,,,,,,,,,,,,,,,,,,,,,,,,,,,,,,,,,,,,,0,0,0,0,1,,,,,,,,,,,,,,,,,,,,,,,,,,,,,,,,,,,,,,
,,,,,,,,,,5e370958fbc3bf68f59c8998,29,Kobieta,2022-06-04_08h08.36.729,task,2021.1.4,Win32,59.89099838,628b806c463b948bc644b84f,629af6c58f2ef90f657ac409,,,,,,,,,,,,,,,,,,,,,,,8,,,,,,,,,,Practice,5,(2x6) - 8,4,,,,,,,,,,,,,,,,"[""8""]",0,[3.289600000143082],0,0,0,0,4,1,,,,,,,,,,,,,,,,,,,,,,,,,,,,,,,,,,,,,,,,,,,
,,,,,,,,,,5e370958fbc3bf68f59c8998,29,Kobieta,2022-06-04_08h08.36.729,task,2021.1.4,Win32,59.89099838,628b806c463b948bc644b84f,629af6c58f2ef90f657ac409,,,,,,,,,,,,,,,,,,,,,,,6,,,,,,,,,,Practice,7,(25/5) + 1,6,,,,,,,,,,,,,,,,"[""6""]",1,[6.296599999904629],1,0,1,1,6,1,,,,,,,,,,,,,,,,,,,,,,,,,,,,,,,,,,,,,,,,,,,
,,,,,,,,,,5e370958fbc3bf68f59c8998,29,Kobieta,2022-06-04_08h08.36.729,task,2021.1.4,Win32,59.89099838,628b806c463b948bc644b84f,629af6c58f2ef90f657ac409,,,,,,,,,,X V Q F H G B L J M P D K C T S W R N Z,,,,,,,,,,,,,,,,,,,,,,,,,,,,,,,,,,,,,,,,,,,,,,,,,,,1,0,1,0,1,,,,,,,,,,,,,,,,,,,,,,,,,,,,,,,,,,,,,,
,,,,,,,,,,5e370958fbc3bf68f59c8998,29,Kobieta,2022-06-04_08h08.36.729,task,2021.1.4,Win32,59.89099838,628b806c463b948bc644b84f,629af6c58f2ef90f657ac409,,,,,,,,,,,,,,,,,,,,,,,,,,,,,,,,,,,,,,,,,,,,,,,,,,,,,,,,,,,,,,,,,,zl,"[""z"",""l""]",0,"[3.0912000000477065,3.183499999999981,4.083799999952362]",1,0,0,0,0,1,,,,,,,,,,,,,,,,,,,,,,,,,,,,
,,,,,,,,,,5e370958fbc3bf68f59c8998,29,Kobieta,2022-06-04_08h08.36.729,task,2021.1.4,Win32,59.89099838,628b806c463b948bc644b84f,629af6c58f2ef90f657ac409,,,,,,,,,,,,,,,,,,,,,,,5,,,,,,,,,,Practice,6,(4/2) + 3,5,,,,,,,,,,,,,,,,"[""5""]",1,[4.775700000047777],1,0,0,0,5,1,,,,,,,,,,,,,,,,,,,,,,,,,,,,,,,,,,,,,,,,,,,
,,,,,,,,,,5e370958fbc3bf68f59c8998,29,Kobieta,2022-06-04_08h08.36.729,task,2021.1.4,Win32,59.89099838,628b806c463b948bc644b84f,629af6c58f2ef90f657ac409,,,,,,,,,,X V Q F H G B L J M P D K C T S W R N Z,,,,,,,,,,,,,,,,,,,,,,,,,,,,,,,,,,,,,,,,,,,,,,,,,,,0,0,0,0,1,,,,,,,,,,,,,,,,,,,,,,,,,,,,,,,,,,,,,,
,,,,,,,,,,5e370958fbc3bf68f59c8998,29,Kobieta,2022-06-04_08h08.36.729,task,2021.1.4,Win32,59.89099838,628b806c463b948bc644b84f,629af6c58f2ef90f657ac409,,,,,,,,,,,,,,,,,,,,,,,0,,,,,,,,,,Practice,1,(3x3) -  9,0,,,,,,,,,,,,,,,,"[""0""]",1,[2.789299999952277],1,0,0,0,0,1,,,,,,,,,,,,,,,,,,,,,,,,,,,,,,,,,,,,,,,,,,,
,,,,,,,,,,5e370958fbc3bf68f59c8998,29,Kobieta,2022-06-04_08h08.36.729,task,2021.1.4,Win32,59.89099838,628b806c463b948bc644b84f,629af6c58f2ef90f657ac409,,,,,,,,,,X V Q F H G B L J M P D K C T S W R N Z,,,,,,,,,,,,,,,,,,,,,,,,,,,,,,,,,,,,,,,,,,,,,,,,,,,1,0,1,0,1,,,,,,,,,,,,,,,,,,,,,,,,,,,,,,,,,,,,,,
,,,,,,,,,,5e370958fbc3bf68f59c8998,29,Kobieta,2022-06-04_08h08.36.729,task,2021.1.4,Win32,59.89099838,628b806c463b948bc644b84f,629af6c58f2ef90f657ac409,,,,,,,,,,,,,,,,,,,,,,,,,,,,,,,,,,,,,,,,,,,,,,,,,,,,,,,,,,,,,,,,,,ks,"[""k"",""s""]",0,"[2.1743999998569734,2.2770999999046353,3.2347999999523154]",1,1,0,1,0,1,,,,,,,,,,,,,,,,,,,,,,,,,,,,
,,,,,,,,,,5e370958fbc3bf68f59c8998,29,Kobieta,2022-06-04_08h08.36.729,task,2021.1.4,Win32,59.89099838,628b806c463b948bc644b84f,629af6c58f2ef90f657ac409,,,,,,,,,,,,,,,,,,,,,,,5,,,,,,,,,,Practice,6,(4/2) + 3,5,,,,,,,,,,,,,,,,"[""5""]",1,[3.2592999999523045],1,0,0,0,5,1,,,,,,,,,,,,,,,,,,,,,,,,,,,,,,,,,,,,,,,,,,,
,,,,,,,,,,5e370958fbc3bf68f59c8998,29,Kobieta,2022-06-04_08h08.36.729,task,2021.1.4,Win32,59.89099838,628b806c463b948bc644b84f,629af6c58f2ef90f657ac409,,,,,,,,,,X V Q F H G B L J M P D K C T S W R N Z,,,,,,,,,,,,,,,,,,,,,,,,,,,,,,,,,,,,,,,,,,,,,,,,,,,0,0,0,0,1,,,,,,,,,,,,,,,,,,,,,,,,,,,,,,,,,,,,,,
,,,,,,,,,,5e370958fbc3bf68f59c8998,29,Kobieta,2022-06-04_08h08.36.729,task,2021.1.4,Win32,59.89099838,628b806c463b948bc644b84f,629af6c58f2ef90f657ac409,,,,,,,,,,,,,,,,,,,,,,,,,,,,,,,,,Practice,5,(2x6) - 8,4,,,,,,,,,,,,,,,,,0,,0,0,0,0,4,1,,,,,,,,,,,,,,,,,,,,,,,,,,,,,,,,,,,,,,,,,,,
,,,,,,,,,,5e370958fbc3bf68f59c8998,29,Kobieta,2022-06-04_08h08.36.729,task,2021.1.4,Win32,59.89099838,628b806c463b948bc644b84f,629af6c58f2ef90f657ac409,,,,,,,,,,,,,,,,,,,,,,,8,,,,,,,,,,Practice,9,(3x3) - 1,8,,,,,,,,,,,,,,,,"[""8""]",1,[1.7172000000476828],1,0,1,1,8,1,,,,,,,,,,,,,,,,,,,,,,,,,,,,,,,,,,,,,,,,,,,
,,,,,,,,,,5e370958fbc3bf68f59c8998,29,Kobieta,2022-06-04_08h08.36.729,task,2021.1.4,Win32,59.89099838,628b806c463b948bc644b84f,629af6c58f2ef90f657ac409,,,,,,,,,,X V Q F H G B L J M P D K C T S W R N Z,,,,,,,,,,,,,,,,,,,,,,,,,,,,,,,,,,,,,,,,,,,,,,,,,,,1,0,1,0,1,,,,,,,,,,,,,,,,,,,,,,,,,,,,,,,,,,,,,,
,,,,,,,,,,5e370958fbc3bf68f59c8998,29,Kobieta,2022-06-04_08h08.36.729,task,2021.1.4,Win32,59.89099838,628b806c463b948bc644b84f,629af6c58f2ef90f657ac409,,,,,,,,,,,,,,,,,,,,,,,,,,,,,,,,,,,,,,,,,,,,,,,,,,,,,,,,,,,,,,,,,,jx,"[""j"",""x""]",0,"[2.052299999952311,2.1660999999046453,2.608900000095332]",1,2,0,2,0,1,,,,,,,,,,,,,,,,,,,,,,,,,,,,
,,,,,,,,,,5e370958fbc3bf68f59c8998,29,Kobieta,2022-06-04_08h08.36.729,task,2021.1.4,Win32,59.89099838,628b806c463b948bc644b84f,629af6c58f2ef90f657ac409,,,,,,,,,,,,,,,,,,,,,,,8,,,,,,,,,,Task,15,(3x7) - 13,8,,,,,,,,,,,,,,,,,,,1,,,,,,,,,,,,,,,,,,,,,space,13.0151,"[""8""]",1,[7.790599999904657],0,0,0,14,1,,,,,,,,,,,,,,,,,,
,,,,,,,,,,5e370958fbc3bf68f59c8998,29,Kobieta,2022-06-04_08h08.36.729,task,2021.1.4,Win32,59.89099838,628b806c463b948bc644b84f,629af6c58f2ef90f657ac409,,,,,,,,,,X V Q F H G B L J M P D K C T S W R N Z,,,,,,,,,,,,,,,,,,,,,,,,,,,,,,,,,,,,,,,,,,,,,,,,,,,,,,,,,,,,,,,,,,,,,,,,,,,,0,0,0,0,1,,,,,,,,,,,,,
,,,,,,,,,,5e370958fbc3bf68f59c8998,29,Kobieta,2022-06-04_08h08.36.729,task,2021.1.4,Win32,59.89099838,628b806c463b948bc644b84f,629af6c58f2ef90f657ac409,,,,,,,,,,,,,,,,,,,,,,,9,,,,,,,,,,Task,24,(2x2) + 5,9,,,,,,,,,,,,,,,,,,,1,,,,,,,,,,,,,,,,,,,,,,,"[""9""]",1,[2.23629999995228],0,0,0,23,1,,,,,,,,,,,,,,,,,,
,,,,,,,,,,5e370958fbc3bf68f59c8998,29,Kobieta,2022-06-04_08h08.36.729,task,2021.1.4,Win32,59.89099838,628b806c463b948bc644b84f,629af6c58f2ef90f657ac409,,,,,,,,,,X V Q F H G B L J M P D K C T S W R N Z,,,,,,,,,,,,,,,,,,,,,,,,,,,,,,,,,,,,,,,,,,,,,,,,,,,,,,,,,,,,,,,,,,,,,,,,,,,,1,0,1,0,1,,,,,,,,,,,,,
,,,,,,,,,,5e370958fbc3bf68f59c8998,29,Kobieta,2022-06-04_08h08.36.729,task,2021.1.4,Win32,59.89099838,628b806c463b948bc644b84f,629af6c58f2ef90f657ac409,,,,,,,,,,,,,,,,,,,,,,,,,,,,,,,,,,,,,,,,,,,,,,,,,,,,,,,,,,,,,,,,,,,,,,,,,,,,,,,,,,,,,,,,,,,zz,"[""z"",""z""]",0,"[2.0397000000476737,2.1660000000000537,3.254799999952411]",1,ZZ,0,0,0,0,1,,
,,,,,,,,,,5e370958fbc3bf68f59c8998,29,Kobieta,2022-06-04_08h08.36.729,task,2021.1.4,Win32,59.89099838,628b806c463b948bc644b84f,629af6c58f2ef90f657ac409,,,,,,,,,,,,,,,,,,,,,,,4,,,,,,,,,,Task,21,(10/2) - 1,4,,,,,,,,,,,,,,,,,,,1,,,,,,,,,,,,,,,,,,,,,,,"[""4""]",1,[2.983600000143042],0,0,0,20,1,,,,,,,,,,,,,,,,,,
,,,,,,,,,,5e370958fbc3bf68f59c8998,29,Kobieta,2022-06-04_08h08.36.729,task,2021.1.4,Win32,59.89099838,628b806c463b948bc644b84f,629af6c58f2ef90f657ac409,,,,,,,,,,X V Q F H G B L J M P D K C T S W R N Z,,,,,,,,,,,,,,,,,,,,,,,,,,,,,,,,,,,,,,,,,,,,,,,,,,,,,,,,,,,,,,,,,,,,,,,,,,,,0,0,0,0,1,,,,,,,,,,,,,
,,,,,,,,,,5e370958fbc3bf68f59c8998,29,Kobieta,2022-06-04_08h08.36.729,task,2021.1.4,Win32,59.89099838,628b806c463b948bc644b84f,629af6c58f2ef90f657ac409,,,,,,,,,,,,,,,,,,,,,,,5,,,,,,,,,,Task,12,(4x4) - 11,5,,,,,,,,,,,,,,,,,,,1,,,,,,,,,,,,,,,,,,,,,,,"[""5""]",1,[3.824000000000069],0,0,0,11,1,,,,,,,,,,,,,,,,,,
,,,,,,,,,,5e370958fbc3bf68f59c8998,29,Kobieta,2022-06-04_08h08.36.729,task,2021.1.4,Win32,59.89099838,628b806c463b948bc644b84f,629af6c58f2ef90f657ac409,,,,,,,,,,X V Q F H G B L J M P D K C T S W R N Z,,,,,,,,,,,,,,,,,,,,,,,,,,,,,,,,,,,,,,,,,,,,,,,,,,,,,,,,,,,,,,,,,,,,,,,,,,,,1,0,1,0,1,,,,,,,,,,,,,
,,,,,,,,,,5e370958fbc3bf68f59c8998,29,Kobieta,2022-06-04_08h08.36.729,task,2021.1.4,Win32,59.89099838,628b806c463b948bc644b84f,629af6c58f2ef90f657ac409,,,,,,,,,,,,,,,,,,,,,,,8,,,,,,,,,,Task,15,(3x7) - 13,8,,,,,,,,,,,,,,,,,,,1,,,,,,,,,,,,,,,,,,,,,,,"[""8""]",1,[6.688399999856983],0,0,0,14,1,,,,,,,,,,,,,,,,,,
,,,,,,,,,,5e370958fbc3bf68f59c8998,29,Kobieta,2022-06-04_08h08.36.729,task,2021.1.4,Win32,59.89099838,628b806c463b948bc644b84f,629af6c58f2ef90f657ac409,,,,,,,,,,X V Q F H G B L J M P D K C T S W R N Z,,,,,,,,,,,,,,,,,,,,,,,,,,,,,,,,,,,,,,,,,,,,,,,,,,,,,,,,,,,,,,,,,,,,,,,,,,,,2,0,2,0,1,,,,,,,,,,,,,
,,,,,,,,,,5e370958fbc3bf68f59c8998,29,Kobieta,2022-06-04_08h08.36.729,task,2021.1.4,Win32,59.89099838,628b806c463b948bc644b84f,629af6c58f2ef90f657ac409,,,,,,,,,,,,,,,,,,,,,,,,,,,,,,,,,,,,,,,,,,,,,,,,,,,,,,,,,,,,,,,,,,,,,,,,,,,,,,,,,,,,,,,,,,,whv,"[""w"",""h"",""v""]",0,"[2.070400000095333,2.7325999999045507,3.359299999952327,4.24279999995224]",1,WHV,1,0,1,0,1,,
,,,,,,,,,,5e370958fbc3bf68f59c8998,29,Kobieta,2022-06-04_08h08.36.729,task,2021.1.4,Win32,59.89099838,628b806c463b948bc644b84f,629af6c58f2ef90f657ac409,,,,,,,,,,,,,,,,,,,,,,,9,,,,,,,,,,Task,24,(2x2) + 5,9,,,,,,,,,,,,,,,,,,,1,,,,,,,,,,,,,,,,,,,,,,,"[""9""]",1,[3.055200000047762],0,0,0,23,1,,,,,,,,,,,,,,,,,,
,,,,,,,,,,5e370958fbc3bf68f59c8998,29,Kobieta,2022-06-04_08h08.36.729,task,2021.1.4,Win32,59.89099838,628b806c463b948bc644b84f,629af6c58f2ef90f657ac409,,,,,,,,,,X V Q F H G B L J M P D K C T S W R N Z,,,,,,,,,,,,,,,,,,,,,,,,,,,,,,,,,,,,,,,,,,,,,,,,,,,,,,,,,,,,,,,,,,,,,,,,,,,,0,0,0,0,1,,,,,,,,,,,,,
,,,,,,,,,,5e370958fbc3bf68f59c8998,29,Kobieta,2022-06-04_08h08.36.729,task,2021.1.4,Win32,59.89099838,628b806c463b948bc644b84f,629af6c58f2ef90f657ac409,,,,,,,,,,,,,,,,,,,,,,,3,,,,,,,,,,Task,35,(1x2) + 1,3,,,,,,,,,,,,,,,,,,,1,,,,,,,,,,,,,,,,,,,,,,,"[""3""]",1,[2.3758999998569834],0,0,0,34,1,,,,,,,,,,,,,,,,,,
,,,,,,,,,,5e370958fbc3bf68f59c8998,29,Kobieta,2022-06-04_08h08.36.729,task,2021.1.4,Win32,59.89099838,628b806c463b948bc644b84f,629af6c58f2ef90f657ac409,,,,,,,,,,X V Q F H G B L J M P D K C T S W R N Z,,,,,,,,,,,,,,,,,,,,,,,,,,,,,,,,,,,,,,,,,,,,,,,,,,,,,,,,,,,,,,,,,,,,,,,,,,,,1,0,1,0,1,,,,,,,,,,,,,
,,,,,,,,,,5e370958fbc3bf68f59c8998,29,Kobieta,2022-06-04_08h08.36.729,task,2021.1.4,Win32,59.89099838,628b806c463b948bc644b84f,629af6c58f2ef90f657ac409,,,,,,,,,,,,,,,,,,,,,,,1,,,,,,,,,,Task,34,(9/3) - 2,1,,,,,,,,,,,,,,,,,,,1,,,,,,,,,,,,,,,,,,,,,,,"[""1""]",1,[4.846800000190683],0,0,0,33,1,,,,,,,,,,,,,,,,,,
,,,,,,,,,,5e370958fbc3bf68f59c8998,29,Kobieta,2022-06-04_08h08.36.729,task,2021.1.4,Win32,59.89099838,628b806c463b948bc644b84f,629af6c58f2ef90f657ac409,,,,,,,,,,X V Q F H G B L J M P D K C T S W R N Z,,,,,,,,,,,,,,,,,,,,,,,,,,,,,,,,,,,,,,,,,,,,,,,,,,,,,,,,,,,,,,,,,,,,,,,,,,,,2,0,2,0,1,,,,,,,,,,,,,
,,,,,,,,,,5e370958fbc3bf68f59c8998,29,Kobieta,2022-06-04_08h08.36.729,task,2021.1.4,Win32,59.89099838,628b806c463b948bc644b84f,629af6c58f2ef90f657ac409,,,,,,,,,,,,,,,,,,,,,,,6,,,,,,,,,,Task,37,(3/3) + 5,6,,,,,,,,,,,,,,,,,,,1,,,,,,,,,,,,,,,,,,,,,,,"[""6""]",1,[3.5364999999999327],0,0,0,36,1,,,,,,,,,,,,,,,,,,
,,,,,,,,,,5e370958fbc3bf68f59c8998,29,Kobieta,2022-06-04_08h08.36.729,task,2021.1.4,Win32,59.89099838,628b806c463b948bc644b84f,629af6c58f2ef90f657ac409,,,,,,,,,,X V Q F H G B L J M P D K C T S W R N Z,,,,,,,,,,,,,,,,,,,,,,,,,,,,,,,,,,,,,,,,,,,,,,,,,,,,,,,,,,,,,,,,,,,,,,,,,,,,3,0,3,0,1,,,,,,,,,,,,,
,,,,,,,,,,5e370958fbc3bf68f59c8998,29,Kobieta,2022-06-04_08h08.36.729,task,2021.1.4,Win32,59.89099838,628b806c463b948bc644b84f,629af6c58f2ef90f657ac409,,,,,,,,,,,,,,,,,,,,,,,,,,,,,,,,,,,,,,,,,,,,,,,,,,,,,,,,,,,,,,,,,,,,,,,,,,,,,,,,,,,,,,,,,,,dhtj,"[""d"",""h"",""t"",""j""]",0,"[2.1107999999522917,2.434500000000071,2.8276999998092833,3.0892999999523454,3.7835999999045953]",1,DHTJ,2,0,2,0,1,,
,,,,,,,,,,5e370958fbc3bf68f59c8998,29,Kobieta,2022-06-04_08h08.36.729,task,2021.1.4,Win32,59.89099838,628b806c463b948bc644b84f,629af6c58f2ef90f657ac409,,,,,,,,,,,,,,,,,,,,,,,3,,,,,,,,,,Task,20,(18/9) + 1,3,,,,,,,,,,,,,,,,,,,1,,,,,,,,,,,,,,,,,,,,,,,"[""3""]",1,[3.819799999952238],0,0,0,19,1,,,,,,,,,,,,,,,,,,
,,,,,,,,,,5e370958fbc3bf68f59c8998,29,Kobieta,2022-06-04_08h08.36.729,task,2021.1.4,Win32,59.89099838,628b806c463b948bc644b84f,629af6c58f2ef90f657ac409,,,,,,,,,,X V Q F H G B L J M P D K C T S W R N Z,,,,,,,,,,,,,,,,,,,,,,,,,,,,,,,,,,,,,,,,,,,,,,,,,,,,,,,,,,,,,,,,,,,,,,,,,,,,0,0,0,0,1,,,,,,,,,,,,,
,,,,,,,,,,5e370958fbc3bf68f59c8998,29,Kobieta,2022-06-04_08h08.36.729,task,2021.1.4,Win32,59.89099838,628b806c463b948bc644b84f,629af6c58f2ef90f657ac409,,,,,,,,,,,,,,,,,,,,,,,8,,,,,,,,,,Task,32,(8/2) + 4,8,,,,,,,,,,,,,,,,,,,1,,,,,,,,,,,,,,,,,,,,,,,"[""8""]",1,[1.9575000000000955],0,0,0,31,1,,,,,,,,,,,,,,,,,,
,,,,,,,,,,5e370958fbc3bf68f59c8998,29,Kobieta,2022-06-04_08h08.36.729,task,2021.1.4,Win32,59.89099838,628b806c463b948bc644b84f,629af6c58f2ef90f657ac409,,,,,,,,,,X V Q F H G B L J M P D K C T S W R N Z,,,,,,,,,,,,,,,,,,,,,,,,,,,,,,,,,,,,,,,,,,,,,,,,,,,,,,,,,,,,,,,,,,,,,,,,,,,,1,0,1,0,1,,,,,,,,,,,,,
,,,,,,,,,,5e370958fbc3bf68f59c8998,29,Kobieta,2022-06-04_08h08.36.729,task,2021.1.4,Win32,59.89099838,628b806c463b948bc644b84f,629af6c58f2ef90f657ac409,,,,,,,,,,,,,,,,,,,,,,,8,,,,,,,,,,Task,39,(5x3) - 7,8,,,,,,,,,,,,,,,,,,,1,,,,,,,,,,,,,,,,,,,,,,,"[""8""]",1,[5.100099999904614],0,0,0,38,1,,,,,,,,,,,,,,,,,,
,,,,,,,,,,5e370958fbc3bf68f59c8998,29,Kobieta,2022-06-04_08h08.36.729,task,2021.1.4,Win32,59.89099838,628b806c463b948bc644b84f,629af6c58f2ef90f657ac409,,,,,,,,,,X V Q F H G B L J M P D K C T S W R N Z,,,,,,,,,,,,,,,,,,,,,,,,,,,,,,,,,,,,,,,,,,,,,,,,,,,,,,,,,,,,,,,,,,,,,,,,,,,,2,0,2,0,1,,,,,,,,,,,,,
,,,,,,,,,,5e370958fbc3bf68f59c8998,29,Kobieta,2022-06-04_08h08.36.729,task,2021.1.4,Win32,59.89099838,628b806c463b948bc644b84f,629af6c58f2ef90f657ac409,,,,,,,,,,,,,,,,,,,,,,,2,,,,,,,,,,Task,26,(2x9) - 16,2,,,,,,,,,,,,,,,,,,,1,,,,,,,,,,,,,,,,,,,,,,,"[""2""]",1,[3.9903999998570043],0,0,0,25,1,,,,,,,,,,,,,,,,,,
,,,,,,,,,,5e370958fbc3bf68f59c8998,29,Kobieta,2022-06-04_08h08.36.729,task,2021.1.4,Win32,59.89099838,628b806c463b948bc644b84f,629af6c58f2ef90f657ac409,,,,,,,,,,X V Q F H G B L J M P D K C T S W R N Z,,,,,,,,,,,,,,,,,,,,,,,,,,,,,,,,,,,,,,,,,,,,,,,,,,,,,,,,,,,,,,,,,,,,,,,,,,,,3,0,3,0,1,,,,,,,,,,,,,
,,,,,,,,,,5e370958fbc3bf68f59c8998,29,Kobieta,2022-06-04_08h08.36.729,task,2021.1.4,Win32,59.89099838,628b806c463b948bc644b84f,629af6c58f2ef90f657ac409,,,,,,,,,,,,,,,,,,,,,,,2,,,,,,,,,,Task,26,(2x9) - 16,2,,,,,,,,,,,,,,,,,,,1,,,,,,,,,,,,,,,,,,,,,,,"[""2""]",1,[5.458900000095355],0,0,0,25,1,,,,,,,,,,,,,,,,,,
,,,,,,,,,,5e370958fbc3bf68f59c8998,29,Kobieta,2022-06-04_08h08.36.729,task,2021.1.4,Win32,59.89099838,628b806c463b948bc644b84f,629af6c58f2ef90f657ac409,,,,,,,,,,X V Q F H G B L J M P D K C T S W R N Z,,,,,,,,,,,,,,,,,,,,,,,,,,,,,,,,,,,,,,,,,,,,,,,,,,,,,,,,,,,,,,,,,,,,,,,,,,,,4,0,4,0,1,,,,,,,,,,,,,
,,,,,,,,,,5e370958fbc3bf68f59c8998,29,Kobieta,2022-06-04_08h08.36.729,task,2021.1.4,Win32,59.89099838,628b806c463b948bc644b84f,629af6c58f2ef90f657ac409,,,,,,,,,,,,,,,,,,,,,,,,,,,,,,,,,,,,,,,,,,,,,,,,,,,,,,,,,,,,,,,,,,,,,,,,,,,,,,,,,,,,,,,,,,,lgcfq,"[""l"",""g"",""c"",""f"",""q""]",0,"[2.3833000001907294,2.9848000001908304,3.4398000001907576,3.7388000001907358,3.950400000095442,4.987100000143073]",1,LGCFQ,3,0,3,0,1,,
,,,,,,,,,,5e370958fbc3bf68f59c8998,29,Kobieta,2022-06-04_08h08.36.729,task,2021.1.4,Win32,59.89099838,628b806c463b948bc644b84f,629af6c58f2ef90f657ac409,,,,,,,,,,,,,,,,,,,,,,,6,,,,,,,,,,Task,5,(2x3) + 0,6,,,,,,,,,,,,,,,,,,,1,,,,,,,,,,,,,,,,,,,,,,,"[""6""]",1,[5.984799999952315],0,0,0,4,1,,,,,,,,,,,,,,,,,,
,,,,,,,,,,5e370958fbc3bf68f59c8998,29,Kobieta,2022-06-04_08h08.36.729,task,2021.1.4,Win32,59.89099838,628b806c463b948bc644b84f,629af6c58f2ef90f657ac409,,,,,,,,,,X V Q F H G B L J M P D K C T S W R N Z,,,,,,,,,,,,,,,,,,,,,,,,,,,,,,,,,,,,,,,,,,,,,,,,,,,,,,,,,,,,,,,,,,,,,,,,,,,,0,0,0,0,1,,,,,,,,,,,,,
,,,,,,,,,,5e370958fbc3bf68f59c8998,29,Kobieta,2022-06-04_08h08.36.729,task,2021.1.4,Win32,59.89099838,628b806c463b948bc644b84f,629af6c58f2ef90f657ac409,,,,,,,,,,,,,,,,,,,,,,,9,,,,,,,,,,Task,7,(3x7) - 12,9,,,,,,,,,,,,,,,,,,,1,,,,,,,,,,,,,,,,,,,,,,,"[""9""]",1,[4.932999999999993],0,0,0,6,1,,,,,,,,,,,,,,,,,,
,,,,,,,,,,5e370958fbc3bf68f59c8998,29,Kobieta,2022-06-04_08h08.36.729,task,2021.1.4,Win32,59.89099838,628b806c463b948bc644b84f,629af6c58f2ef90f657ac409,,,,,,,,,,X V Q F H G B L J M P D K C T S W R N Z,,,,,,,,,,,,,,,,,,,,,,,,,,,,,,,,,,,,,,,,,,,,,,,,,,,,,,,,,,,,,,,,,,,,,,,,,,,,1,0,1,0,1,,,,,,,,,,,,,
,,,,,,,,,,5e370958fbc3bf68f59c8998,29,Kobieta,2022-06-04_08h08.36.729,task,2021.1.4,Win32,59.89099838,628b806c463b948bc644b84f,629af6c58f2ef90f657ac409,,,,,,,,,,,,,,,,,,,,,,,6,,,,,,,,,,Task,37,(3/3) + 5,6,,,,,,,,,,,,,,,,,,,1,,,,,,,,,,,,,,,,,,,,,,,"[""6""]",1,[2.522200000047633],0,0,0,36,1,,,,,,,,,,,,,,,,,,
,,,,,,,,,,5e370958fbc3bf68f59c8998,29,Kobieta,2022-06-04_08h08.36.729,task,2021.1.4,Win32,59.89099838,628b806c463b948bc644b84f,629af6c58f2ef90f657ac409,,,,,,,,,,X V Q F H G B L J M P D K C T S W R N Z,,,,,,,,,,,,,,,,,,,,,,,,,,,,,,,,,,,,,,,,,,,,,,,,,,,,,,,,,,,,,,,,,,,,,,,,,,,,2,0,2,0,1,,,,,,,,,,,,,
,,,,,,,,,,5e370958fbc3bf68f59c8998,29,Kobieta,2022-06-04_08h08.36.729,task,2021.1.4,Win32,59.89099838,628b806c463b948bc644b84f,629af6c58f2ef90f657ac409,,,,,,,,,,,,,,,,,,,,,,,8,,,,,,,,,,Task,32,(8/2) + 4,8,,,,,,,,,,,,,,,,,,,1,,,,,,,,,,,,,,,,,,,,,,,"[""8""]",1,[2.1502000000476755],0,0,0,31,1,,,,,,,,,,,,,,,,,,
,,,,,,,,,,5e370958fbc3bf68f59c8998,29,Kobieta,2022-06-04_08h08.36.729,task,2021.1.4,Win32,59.89099838,628b806c463b948bc644b84f,629af6c58f2ef90f657ac409,,,,,,,,,,X V Q F H G B L J M P D K C T S W R N Z,,,,,,,,,,,,,,,,,,,,,,,,,,,,,,,,,,,,,,,,,,,,,,,,,,,,,,,,,,,,,,,,,,,,,,,,,,,,3,0,3,0,1,,,,,,,,,,,,,
,,,,,,,,,,5e370958fbc3bf68f59c8998,29,Kobieta,2022-06-04_08h08.36.729,task,2021.1.4,Win32,59.89099838,628b806c463b948bc644b84f,629af6c58f2ef90f657ac409,,,,,,,,,,,,,,,,,,,,,,,,,,,,,,,,,Task,38,(4x6) - 17,7,,,,,,,,,,,,,,,,,,,0,,,,,,,,,,,,,,,,,,,,,,,,0,,0,0,0,37,1,,,,,,,,,,,,,,,,,,
,,,,,,,,,,5e370958fbc3bf68f59c8998,29,Kobieta,2022-06-04_08h08.36.729,task,2021.1.4,Win32,59.89099838,628b806c463b948bc644b84f,629af6c58f2ef90f657ac409,,,,,,,,,,,,,,,,,,,,,,,5,,,,,,,,,,Task,22,(3x1) + 2,5,,,,,,,,,,,,,,,,,,,1,,,,,,,,,,,,,,,,,,,,,,,"[""5""]",1,[4.19960000014305],0,1,1,21,1,,,,,,,,,,,,,,,,,,
,,,,,,,,,,5e370958fbc3bf68f59c8998,29,Kobieta,2022-06-04_08h08.36.729,task,2021.1.4,Win32,59.89099838,628b806c463b948bc644b84f,629af6c58f2ef90f657ac409,,,,,,,,,,X V Q F H G B L J M P D K C T S W R N Z,,,,,,,,,,,,,,,,,,,,,,,,,,,,,,,,,,,,,,,,,,,,,,,,,,,,,,,,,,,,,,,,,,,,,,,,,,,,4,0,4,0,1,,,,,,,,,,,,,
,,,,,,,,,,5e370958fbc3bf68f59c8998,29,Kobieta,2022-06-04_08h08.36.729,task,2021.1.4,Win32,59.89099838,628b806c463b948bc644b84f,629af6c58f2ef90f657ac409,,,,,,,,,,,,,,,,,,,,,,,,,,,,,,,,,Task,29,(3x8) - 19 ,5,,,,,,,,,,,,,,,,,,,0,,,,,,,,,,,,,,,,,,,,,,,,0,,0,0,0,28,1,,,,,,,,,,,,,,,,,,
,,,,,,,,,,5e370958fbc3bf68f59c8998,29,Kobieta,2022-06-04_08h08.36.729,task,2021.1.4,Win32,59.89099838,628b806c463b948bc644b84f,629af6c58f2ef90f657ac409,,,,,,,,,,,,,,,,,,,,,,,4,,,,,,,,,,Task,11,(18/3) - 2,4,,,,,,,,,,,,,,,,,,,1,,,,,,,,,,,,,,,,,,,,,,,"[""4""]",1,[7.326300000190827],0,1,1,10,1,,,,,,,,,,,,,,,,,,
,,,,,,,,,,5e370958fbc3bf68f59c8998,29,Kobieta,2022-06-04_08h08.36.729,task,2021.1.4,Win32,59.89099838,628b806c463b948bc644b84f,629af6c58f2ef90f657ac409,,,,,,,,,,X V Q F H G B L J M P D K C T S W R N Z,,,,,,,,,,,,,,,,,,,,,,,,,,,,,,,,,,,,,,,,,,,,,,,,,,,,,,,,,,,,,,,,,,,,,,,,,,,,5,0,5,0,1,,,,,,,,,,,,,
,,,,,,,,,,5e370958fbc3bf68f59c8998,29,Kobieta,2022-06-04_08h08.36.729,task,2021.1.4,Win32,59.89099838,628b806c463b948bc644b84f,629af6c58f2ef90f657ac409,,,,,,,,,,,,,,,,,,,,,,,,,,,,,,,,,,,,,,,,,,,,,,,,,,,,,,,,,,,,,,,,,,,,,,,,,,,,,,,,,,,,,,,,,,,fpctfb,"[""f"",""p"",""c"",""t"",""f"",""b""]",0,"[2.400299999952267,3.844400000095334,4.208900000095355,4.733900000095332,5.222100000143087,5.793200000047705,13.66970000004767]",1,FPCTFB,4,0,4,0,1,,
,,,,,,,,,,5e370958fbc3bf68f59c8998,29,Kobieta,2022-06-04_08h08.36.729,task,2021.1.4,Win32,59.89099838,628b806c463b948bc644b84f,629af6c58f2ef90f657ac409,,,,,,,,,,,,,,,,,,,,,,,2,,,,,,,,,,Task,10,(2x5) - 8,2,,,,,,,,,,,,,,,,,,,1,,,,,,,,,,,,,,,,,,,,,,,"[""2""]",1,[3.426800000190724],0,0,0,9,1,,,,,,,,,,,,,,,,,,
,,,,,,,,,,5e370958fbc3bf68f59c8998,29,Kobieta,2022-06-04_08h08.36.729,task,2021.1.4,Win32,59.89099838,628b806c463b948bc644b84f,629af6c58f2ef90f657ac409,,,,,,,,,,X V Q F H G B L J M P D K C T S W R N Z,,,,,,,,,,,,,,,,,,,,,,,,,,,,,,,,,,,,,,,,,,,,,,,,,,,,,,,,,,,,,,,,,,,,,,,,,,,,0,0,0,0,1,,,,,,,,,,,,,
,,,,,,,,,,5e370958fbc3bf68f59c8998,29,Kobieta,2022-06-04_08h08.36.729,task,2021.1.4,Win32,59.89099838,628b806c463b948bc644b84f,629af6c58f2ef90f657ac409,,,,,,,,,,,,,,,,,,,,,,,2,,,,,,,,,,Task,3,(2x3) - 3,3,,,,,,,,,,,,,,,,,,,0,,,,,,,,,,,,,,,,,,,,,,,"[""2""]",0,[5.593799999952353],0,0,0,2,1,,,,,,,,,,,,,,,,,,
,,,,,,,,,,5e370958fbc3bf68f59c8998,29,Kobieta,2022-06-04_08h08.36.729,task,2021.1.4,Win32,59.89099838,628b806c463b948bc644b84f,629af6c58f2ef90f657ac409,,,,,,,,,,,,,,,,,,,,,,,2,,,,,,,,,,Task,26,(2x9) - 16,2,,,,,,,,,,,,,,,,,,,1,,,,,,,,,,,,,,,,,,,,,,,"[""2""]",1,[3.63770000004763],0,1,1,25,1,,,,,,,,,,,,,,,,,,
,,,,,,,,,,5e370958fbc3bf68f59c8998,29,Kobieta,2022-06-04_08h08.36.729,task,2021.1.4,Win32,59.89099838,628b806c463b948bc644b84f,629af6c58f2ef90f657ac409,,,,,,,,,,X V Q F H G B L J M P D K C T S W R N Z,,,,,,,,,,,,,,,,,,,,,,,,,,,,,,,,,,,,,,,,,,,,,,,,,,,,,,,,,,,,,,,,,,,,,,,,,,,,1,0,1,0,1,,,,,,,,,,,,,
,,,,,,,,,,5e370958fbc3bf68f59c8998,29,Kobieta,2022-06-04_08h08.36.729,task,2021.1.4,Win32,59.89099838,628b806c463b948bc644b84f,629af6c58f2ef90f657ac409,,,,,,,,,,,,,,,,,,,,,,,2,,,,,,,,,,Task,26,(2x9) - 16,2,,,,,,,,,,,,,,,,,,,1,,,,,,,,,,,,,,,,,,,,,,,"[""2""]",1,[2.4675999999045644],0,0,0,25,1,,,,,,,,,,,,,,,,,,
,,,,,,,,,,5e370958fbc3bf68f59c8998,29,Kobieta,2022-06-04_08h08.36.729,task,2021.1.4,Win32,59.89099838,628b806c463b948bc644b84f,629af6c58f2ef90f657ac409,,,,,,,,,,X V Q F H G B L J M P D K C T S W R N Z,,,,,,,,,,,,,,,,,,,,,,,,,,,,,,,,,,,,,,,,,,,,,,,,,,,,,,,,,,,,,,,,,,,,,,,,,,,,2,0,2,0,1,,,,,,,,,,,,,
,,,,,,,,,,5e370958fbc3bf68f59c8998,29,Kobieta,2022-06-04_08h08.36.729,task,2021.1.4,Win32,59.89099838,628b806c463b948bc644b84f,629af6c58f2ef90f657ac409,,,,,,,,,,,,,,,,,,,,,,,1,,,,,,,,,,Task,34,(9/3) - 2,1,,,,,,,,,,,,,,,,,,,1,,,,,,,,,,,,,,,,,,,,,,,"[""1""]",1,[2.1667000000476264],0,0,0,33,1,,,,,,,,,,,,,,,,,,
,,,,,,,,,,5e370958fbc3bf68f59c8998,29,Kobieta,2022-06-04_08h08.36.729,task,2021.1.4,Win32,59.89099838,628b806c463b948bc644b84f,629af6c58f2ef90f657ac409,,,,,,,,,,X V Q F H G B L J M P D K C T S W R N Z,,,,,,,,,,,,,,,,,,,,,,,,,,,,,,,,,,,,,,,,,,,,,,,,,,,,,,,,,,,,,,,,,,,,,,,,,,,,3,0,3,0,1,,,,,,,,,,,,,
,,,,,,,,,,5e370958fbc3bf68f59c8998,29,Kobieta,2022-06-04_08h08.36.729,task,2021.1.4,Win32,59.89099838,628b806c463b948bc644b84f,629af6c58f2ef90f657ac409,,,,,,,,,,,,,,,,,,,,,,,5,,,,,,,,,,Task,12,(4x4) - 11,5,,,,,,,,,,,,,,,,,,,1,,,,,,,,,,,,,,,,,,,,,,,"[""5""]",1,[4.120200000047589],0,0,0,11,1,,,,,,,,,,,,,,,,,,
,,,,,,,,,,5e370958fbc3bf68f59c8998,29,Kobieta,2022-06-04_08h08.36.729,task,2021.1.4,Win32,59.89099838,628b806c463b948bc644b84f,629af6c58f2ef90f657ac409,,,,,,,,,,X V Q F H G B L J M P D K C T S W R N Z,,,,,,,,,,,,,,,,,,,,,,,,,,,,,,,,,,,,,,,,,,,,,,,,,,,,,,,,,,,,,,,,,,,,,,,,,,,,4,0,4,0,1,,,,,,,,,,,,,
,,,,,,,,,,5e370958fbc3bf68f59c8998,29,Kobieta,2022-06-04_08h08.36.729,task,2021.1.4,Win32,59.89099838,628b806c463b948bc644b84f,629af6c58f2ef90f657ac409,,,,,,,,,,,,,,,,,,,,,,,2,,,,,,,,,,Task,2,(2x2) - 2,2,,,,,,,,,,,,,,,,,,,1,,,,,,,,,,,,,,,,,,,,,,,"[""2""]",1,[3.7298000001906075],0,0,0,1,1,,,,,,,,,,,,,,,,,,
,,,,,,,,,,5e370958fbc3bf68f59c8998,29,Kobieta,2022-06-04_08h08.36.729,task,2021.1.4,Win32,59.89099838,628b806c463b948bc644b84f,629af6c58f2ef90f657ac409,,,,,,,,,,X V Q F H G B L J M P D K C T S W R N Z,,,,,,,,,,,,,,,,,,,,,,,,,,,,,,,,,,,,,,,,,,,,,,,,,,,,,,,,,,,,,,,,,,,,,,,,,,,,5,0,5,0,1,,,,,,,,,,,,,
,,,,,,,,,,5e370958fbc3bf68f59c8998,29,Kobieta,2022-06-04_08h08.36.729,task,2021.1.4,Win32,59.89099838,628b806c463b948bc644b84f,629af6c58f2ef90f657ac409,,,,,,,,,,,,,,,,,,,,,,,8,,,,,,,,,,Task,23,(2x3) + 2,8,,,,,,,,,,,,,,,,,,,1,,,,,,,,,,,,,,,,,,,,,,,"[""8""]",1,[6.230599999904825],0,0,0,22,1,,,,,,,,,,,,,,,,,,
,,,,,,,,,,5e370958fbc3bf68f59c8998,29,Kobieta,2022-06-04_08h08.36.729,task,2021.1.4,Win32,59.89099838,628b806c463b948bc644b84f,629af6c58f2ef90f657ac409,,,,,,,,,,X V Q F H G B L J M P D K C T S W R N Z,,,,,,,,,,,,,,,,,,,,,,,,,,,,,,,,,,,,,,,,,,,,,,,,,,,,,,,,,,,,,,,,,,,,,,,,,,,,6,0,6,0,1,,,,,,,,,,,,,
,,,,,,,,,,5e370958fbc3bf68f59c8998,29,Kobieta,2022-06-04_08h08.36.729,task,2021.1.4,Win32,59.89099838,628b806c463b948bc644b84f,629af6c58f2ef90f657ac409,,,,,,,,,,,,,,,,,,,,,,,,,,,,,,,,,,,,,,,,,,,,,,,,,,,,,,,,,,,,,,,,,,,,,,,,,,,,,,,,,,,,,,,,,,,vwxdqrb,"[""v"",""w"",""x"",""d"",""q"",""r"",""b""]",0,"[2.7337999999522253,3.2024999999998727,5.1503999998569725,6.367999999999938,7.774199999809298,8.484299999952327,8.917099999904622,10.041099999904645]",1,VWXDQRB,5,0,5,0,1,,
,,,,,,,,,,5e370958fbc3bf68f59c8998,29,Kobieta,2022-06-04_08h08.36.729,task,2021.1.4,Win32,59.89099838,628b806c463b948bc644b84f,629af6c58f2ef90f657ac409,,,,,,,,,,,,,,,,,,,,,,,5,,,,,,,,,,Task,12,(4x4) - 11,5,,,,,,,,,,,,,,,,,,,1,,,,,,,,,,,,,,,,,,,,,,,"[""5""]",1,[2.6527999999523217],0,0,0,11,1,,,,,,,,,,,,,,,,,,
,,,,,,,,,,5e370958fbc3bf68f59c8998,29,Kobieta,2022-06-04_08h08.36.729,task,2021.1.4,Win32,59.89099838,628b806c463b948bc644b84f,629af6c58f2ef90f657ac409,,,,,,,,,,X V Q F H G B L J M P D K C T S W R N Z,,,,,,,,,,,,,,,,,,,,,,,,,,,,,,,,,,,,,,,,,,,,,,,,,,,,,,,,,,,,,,,,,,,,,,,,,,,,0,0,0,0,1,,,,,,,,,,,,,
,,,,,,,,,,5e370958fbc3bf68f59c8998,29,Kobieta,2022-06-04_08h08.36.729,task,2021.1.4,Win32,59.89099838,628b806c463b948bc644b84f,629af6c58f2ef90f657ac409,,,,,,,,,,,,,,,,,,,,,,,0,,,,,,,,,,Task,8,(1x5) - 5,0,,,,,,,,,,,,,,,,,,,1,,,,,,,,,,,,,,,,,,,,,,,"[""0""]",1,[3.04229999995232],0,0,0,7,1,,,,,,,,,,,,,,,,,,
,,,,,,,,,,5e370958fbc3bf68f59c8998,29,Kobieta,2022-06-04_08h08.36.729,task,2021.1.4,Win32,59.89099838,628b806c463b948bc644b84f,629af6c58f2ef90f657ac409,,,,,,,,,,X V Q F H G B L J M P D K C T S W R N Z,,,,,,,,,,,,,,,,,,,,,,,,,,,,,,,,,,,,,,,,,,,,,,,,,,,,,,,,,,,,,,,,,,,,,,,,,,,,1,0,1,0,1,,,,,,,,,,,,,
,,,,,,,,,,5e370958fbc3bf68f59c8998,29,Kobieta,2022-06-04_08h08.36.729,task,2021.1.4,Win32,59.89099838,628b806c463b948bc644b84f,629af6c58f2ef90f657ac409,,,,,,,,,,,,,,,,,,,,,,,7,,,,,,,,,,Task,31,(4/2) + 5,7,,,,,,,,,,,,,,,,,,,1,,,,,,,,,,,,,,,,,,,,,,,"[""7""]",1,[3.3159000000953256],0,0,0,30,1,,,,,,,,,,,,,,,,,,
,,,,,,,,,,5e370958fbc3bf68f59c8998,29,Kobieta,2022-06-04_08h08.36.729,task,2021.1.4,Win32,59.89099838,628b806c463b948bc644b84f,629af6c58f2ef90f657ac409,,,,,,,,,,X V Q F H G B L J M P D K C T S W R N Z,,,,,,,,,,,,,,,,,,,,,,,,,,,,,,,,,,,,,,,,,,,,,,,,,,,,,,,,,,,,,,,,,,,,,,,,,,,,2,0,2,0,1,,,,,,,,,,,,,
,,,,,,,,,,5e370958fbc3bf68f59c8998,29,Kobieta,2022-06-04_08h08.36.729,task,2021.1.4,Win32,59.89099838,628b806c463b948bc644b84f,629af6c58f2ef90f657ac409,,,,,,,,,,,,,,,,,,,,,,,7,,,,,,,,,,Task,6,(12/2) + 1,7,,,,,,,,,,,,,,,,,,,1,,,,,,,,,,,,,,,,,,,,,,,"[""7""]",1,[2.3862000000476655],0,0,0,5,1,,,,,,,,,,,,,,,,,,
,,,,,,,,,,5e370958fbc3bf68f59c8998,29,Kobieta,2022-06-04_08h08.36.729,task,2021.1.4,Win32,59.89099838,628b806c463b948bc644b84f,629af6c58f2ef90f657ac409,,,,,,,,,,X V Q F H G B L J M P D K C T S W R N Z,,,,,,,,,,,,,,,,,,,,,,,,,,,,,,,,,,,,,,,,,,,,,,,,,,,,,,,,,,,,,,,,,,,,,,,,,,,,3,0,3,0,1,,,,,,,,,,,,,
,,,,,,,,,,5e370958fbc3bf68f59c8998,29,Kobieta,2022-06-04_08h08.36.729,task,2021.1.4,Win32,59.89099838,628b806c463b948bc644b84f,629af6c58f2ef90f657ac409,,,,,,,,,,,,,,,,,,,,,,,5,,,,,,,,,,Task,29,(3x8) - 19 ,5,,,,,,,,,,,,,,,,,,,1,,,,,,,,,,,,,,,,,,,,,,,"[""5""]",1,[6.241599999904793],0,0,0,28,1,,,,,,,,,,,,,,,,,,
,,,,,,,,,,5e370958fbc3bf68f59c8998,29,Kobieta,2022-06-04_08h08.36.729,task,2021.1.4,Win32,59.89099838,628b806c463b948bc644b84f,629af6c58f2ef90f657ac409,,,,,,,,,,X V Q F H G B L J M P D K C T S W R N Z,,,,,,,,,,,,,,,,,,,,,,,,,,,,,,,,,,,,,,,,,,,,,,,,,,,,,,,,,,,,,,,,,,,,,,,,,,,,4,0,4,0,1,,,,,,,,,,,,,
,,,,,,,,,,5e370958fbc3bf68f59c8998,29,Kobieta,2022-06-04_08h08.36.729,task,2021.1.4,Win32,59.89099838,628b806c463b948bc644b84f,629af6c58f2ef90f657ac409,,,,,,,,,,,,,,,,,,,,,,,3,,,,,,,,,,Task,27,(3/3) + 2,3,,,,,,,,,,,,,,,,,,,1,,,,,,,,,,,,,,,,,,,,,,,"[""3""]",1,[2.1883999998569834],0,0,0,26,1,,,,,,,,,,,,,,,,,,
,,,,,,,,,,5e370958fbc3bf68f59c8998,29,Kobieta,2022-06-04_08h08.36.729,task,2021.1.4,Win32,59.89099838,628b806c463b948bc644b84f,629af6c58f2ef90f657ac409,,,,,,,,,,X V Q F H G B L J M P D K C T S W R N Z,,,,,,,,,,,,,,,,,,,,,,,,,,,,,,,,,,,,,,,,,,,,,,,,,,,,,,,,,,,,,,,,,,,,,,,,,,,,5,0,5,0,1,,,,,,,,,,,,,
,,,,,,,,,,5e370958fbc3bf68f59c8998,29,Kobieta,2022-06-04_08h08.36.729,task,2021.1.4,Win32,59.89099838,628b806c463b948bc644b84f,629af6c58f2ef90f657ac409,,,,,,,,,,,,,,,,,,,,,,,9,,,,,,,,,,Task,24,(2x2) + 5,9,,,,,,,,,,,,,,,,,,,1,,,,,,,,,,,,,,,,,,,,,,,"[""9""]",1,[3.2894999999998618],0,0,0,23,1,,,,,,,,,,,,,,,,,,
,,,,,,,,,,5e370958fbc3bf68f59c8998,29,Kobieta,2022-06-04_08h08.36.729,task,2021.1.4,Win32,59.89099838,628b806c463b948bc644b84f,629af6c58f2ef90f657ac409,,,,,,,,,,X V Q F H G B L J M P D K C T S W R N Z,,,,,,,,,,,,,,,,,,,,,,,,,,,,,,,,,,,,,,,,,,,,,,,,,,,,,,,,,,,,,,,,,,,,,,,,,,,,6,0,6,0,1,,,,,,,,,,,,,
,,,,,,,,,,5e370958fbc3bf68f59c8998,29,Kobieta,2022-06-04_08h08.36.729,task,2021.1.4,Win32,59.89099838,628b806c463b948bc644b84f,629af6c58f2ef90f657ac409,,,,,,,,,,,,,,,,,,,,,,,0,,,,,,,,,,Task,33,(1/1) - 1,0,,,,,,,,,,,,,,,,,,,1,,,,,,,,,,,,,,,,,,,,,,,"[""0""]",1,[2.8094999999998436],0,0,0,32,1,,,,,,,,,,,,,,,,,,
,,,,,,,,,,5e370958fbc3bf68f59c8998,29,Kobieta,2022-06-04_08h08.36.729,task,2021.1.4,Win32,59.89099838,628b806c463b948bc644b84f,629af6c58f2ef90f657ac409,,,,,,,,,,X V Q F H G B L J M P D K C T S W R N Z,,,,,,,,,,,,,,,,,,,,,,,,,,,,,,,,,,,,,,,,,,,,,,,,,,,,,,,,,,,,,,,,,,,,,,,,,,,,7,0,7,0,1,,,,,,,,,,,,,
,,,,,,,,,,5e370958fbc3bf68f59c8998,29,Kobieta,2022-06-04_08h08.36.729,task,2021.1.4,Win32,59.89099838,628b806c463b948bc644b84f,629af6c58f2ef90f657ac409,,,,,,,,,,,,,,,,,,,,,,,,,,,,,,,,,,,,,,,,,,,,,,,,,,,,,,,,,,,,,,,,,,,,,,,,,,,,,,,,,,,,,,,,,,,jdrggctf,"[""j"",""d"",""r"",""g"",""g"",""c"",""t"",""f""]",0,"[3.02740000009544,3.9589000000953547,5.237900000095351,7.117500000000064,7.3258000001908385,8.259100000143235,9.283400000095526,9.886200000047666,10.90830000019082]",0,JDRRGCTF,6,0,6,0,1,,
,,,,,,,,,,5e370958fbc3bf68f59c8998,29,Kobieta,2022-06-04_08h08.36.729,task,2021.1.4,Win32,59.89099838,628b806c463b948bc644b84f,629af6c58f2ef90f657ac409,,,,,,,,,,,,,,,,,,,,,,,2,,,,,,,,,,Task,26,(2x9) - 16,2,,,,,,,,,,,,,,,,,,,1,,,,,,,,,,,,,,,,,,,,,,,"[""2""]",1,[3.877300000190644],0,0,0,25,1,,,,,,,,,,,,,,,,,,
,,,,,,,,,,5e370958fbc3bf68f59c8998,29,Kobieta,2022-06-04_08h08.36.729,task,2021.1.4,Win32,59.89099838,628b806c463b948bc644b84f,629af6c58f2ef90f657ac409,,,,,,,,,,X V Q F H G B L J M P D K C T S W R N Z,,,,,,,,,,,,,,,,,,,,,,,,,,,,,,,,,,,,,,,,,,,,,,,,,,,,,,,,,,,,,,,,,,,,,,,,,,,,0,0,0,0,1,,,,,,,,,,,,,
,,,,,,,,,,5e370958fbc3bf68f59c8998,29,Kobieta,2022-06-04_08h08.36.729,task,2021.1.4,Win32,59.89099838,628b806c463b948bc644b84f,629af6c58f2ef90f657ac409,,,,,,,,,,,,,,,,,,,,,,,5,,,,,,,,,,Task,29,(3x8) - 19 ,5,,,,,,,,,,,,,,,,,,,1,,,,,,,,,,,,,,,,,,,,,,,"[""5""]",1,[3.5637000000476746],0,0,0,28,1,,,,,,,,,,,,,,,,,,
,,,,,,,,,,5e370958fbc3bf68f59c8998,29,Kobieta,2022-06-04_08h08.36.729,task,2021.1.4,Win32,59.89099838,628b806c463b948bc644b84f,629af6c58f2ef90f657ac409,,,,,,,,,,X V Q F H G B L J M P D K C T S W R N Z,,,,,,,,,,,,,,,,,,,,,,,,,,,,,,,,,,,,,,,,,,,,,,,,,,,,,,,,,,,,,,,,,,,,,,,,,,,,1,0,1,0,1,,,,,,,,,,,,,
