key_resp_15.keys,key_resp_15.rt,key_resp_16.keys,key_resp_16.rt,key_resp_4.keys,key_resp_4.rt,next_letter.thisRepN,next_letter.thisTrialN,next_letter.thisN,next_letter.thisIndex,next_letter.ran,letter,participant,Wiek*,Płeć,date,expName,psychopyVersion,OS,frameRate,study_id,session,simple_recall,key_resp_5.keys,key_resp_5.rt,simple_recall_corr,simple_recall_corrkeys,next_level.thisRepN,next_level.thisTrialN,next_level.thisN,next_level.thisIndex,next_level.ran,key_resp_2.keys,key_resp_2.rt,digit_answer,key_resp.keys,key_resp.corr,key_resp.rt,RT_list,next_equation.thisRepN,next_equation.thisTrialN,next_equation.thisN,next_equation.thisIndex,next_equation.ran,Task,Trial,Problem,Operation_answer,processing_score,sumRT,meanRT,sumdiff,sd,RT,key_resp_3.keys,key_resp_3.rt,repeat_practice.thisRepN,repeat_practice.thisTrialN,repeat_practice.thisN,repeat_practice.thisIndex,repeat_practice.ran,key_resp_6.keys,key_resp_6.rt,key_resp_11.keys,key_resp_11.corr,key_resp_11.rt,operation_correct,repeat_if_wrong_prac.thisRepN,repeat_if_wrong_prac.thisTrialN,repeat_if_wrong_prac.thisN,repeat_if_wrong_prac.thisIndex,repeat_if_wrong_prac.ran,span_size_prac.thisRepN,span_size_prac.thisTrialN,span_size_prac.thisN,span_size_prac.thisIndex,span_size_prac.ran,complex_recall_practice,key_resp_9.keys,key_resp_9.corr,key_resp_9.rt,complex_prac_corr,span_recall_prac.thisRepN,span_recall_prac.thisTrialN,span_recall_prac.thisN,span_recall_prac.thisIndex,span_recall_prac.ran,key_resp_10.keys,key_resp_10.rt,key_resp_7.keys,key_resp_7.corr,key_resp_7.rt,repeat_if_wrong.thisRepN,repeat_if_wrong.thisTrialN,repeat_if_wrong.thisN,repeat_if_wrong.thisIndex,repeat_if_wrong.ran,span_size.thisRepN,span_size.thisTrialN,span_size.thisN,span_size.thisIndex,span_size.ran,complex_recall,key_resp_8.keys,key_resp_8.corr,key_resp_8.rt,complex_recall_corr,complex_recall_corrkeys,span_recall.thisRepN,span_recall.thisTrialN,span_recall.thisN,span_recall.thisIndex,span_recall.ran,key_resp_13.keys,key_resp_13.corr,random_loop.thisRepN,random_loop.thisTrialN,random_loop.thisN,random_loop.thisIndex,random_loop.ran,key_resp_13.rt,key_resp_12.keys,key_resp_12.rt
space,17.5341,space,39.0724,space,7.2244,0,0,0,0,1,X V Q F H G B L J M P D K C T S W R N Z,5e383a78d03ec6000bb04919,22,Kobieta,2022-06-11_09h14.28.638,task,2021.1.4,Win32,59.89099838,6299f149e92ead563fba08ef,62a440c31be75f39da88f0d3,,,,,,,,,,,,,,,,,,,,,,,,,,,,,,,,,,,,,,,,,,,,,,,,,,,,,,,,,,,,,,,,,,,,,,,,,,,,,,,,,,,,,,,,,,,,,,,,,,,,,
,,,,,,1,0,1,0,1,X V Q F H G B L J M P D K C T S W R N Z,5e383a78d03ec6000bb04919,22,Kobieta,2022-06-11_09h14.28.638,task,2021.1.4,Win32,59.89099838,6299f149e92ead563fba08ef,62a440c31be75f39da88f0d3,,,,,,,,,,,,,,,,,,,,,,,,,,,,,,,,,,,,,,,,,,,,,,,,,,,,,,,,,,,,,,,,,,,,,,,,,,,,,,,,,,,,,,,,,,,,,,,,,,,,,
,,,,,,,,,,,,5e383a78d03ec6000bb04919,22,Kobieta,2022-06-11_09h14.28.638,task,2021.1.4,Win32,59.89099838,6299f149e92ead563fba08ef,62a440c31be75f39da88f0d3,zr,"[""z"",""r""]","[2.4566000000238404,3.378100000023835,4.555499999999995]",1,ZR,0,0,0,0,1,,,,,,,,,,,,,,,,,,,,,,,,,,,,,,,,,,,,,,,,,,,,,,,,,,,,,,,,,,,,,,,,,,,,,,,,,,,,,,,,,,,,,,,,,,,
,,,,,,0,0,0,0,1,X V Q F H G B L J M P D K C T S W R N Z,5e383a78d03ec6000bb04919,22,Kobieta,2022-06-11_09h14.28.638,task,2021.1.4,Win32,59.89099838,6299f149e92ead563fba08ef,62a440c31be75f39da88f0d3,,,,,,,,,,,,,,,,,,,,,,,,,,,,,,,,,,,,,,,,,,,,,,,,,,,,,,,,,,,,,,,,,,,,,,,,,,,,,,,,,,,,,,,,,,,,,,,,,,,,,
,,,,,,1,0,1,0,1,X V Q F H G B L J M P D K C T S W R N Z,5e383a78d03ec6000bb04919,22,Kobieta,2022-06-11_09h14.28.638,task,2021.1.4,Win32,59.89099838,6299f149e92ead563fba08ef,62a440c31be75f39da88f0d3,,,,,,,,,,,,,,,,,,,,,,,,,,,,,,,,,,,,,,,,,,,,,,,,,,,,,,,,,,,,,,,,,,,,,,,,,,,,,,,,,,,,,,,,,,,,,,,,,,,,,
,,,,,,,,,,,,5e383a78d03ec6000bb04919,22,Kobieta,2022-06-11_09h14.28.638,task,2021.1.4,Win32,59.89099838,6299f149e92ead563fba08ef,62a440c31be75f39da88f0d3,ds,"[""d"",""s""]","[1.0643000000715261,1.292800000071523,2.941999999999993]",1,DS,1,0,1,0,1,,,,,,,,,,,,,,,,,,,,,,,,,,,,,,,,,,,,,,,,,,,,,,,,,,,,,,,,,,,,,,,,,,,,,,,,,,,,,,,,,,,,,,,,,,,
,,,,,,0,0,0,0,1,X V Q F H G B L J M P D K C T S W R N Z,5e383a78d03ec6000bb04919,22,Kobieta,2022-06-11_09h14.28.638,task,2021.1.4,Win32,59.89099838,6299f149e92ead563fba08ef,62a440c31be75f39da88f0d3,,,,,,,,,,,,,,,,,,,,,,,,,,,,,,,,,,,,,,,,,,,,,,,,,,,,,,,,,,,,,,,,,,,,,,,,,,,,,,,,,,,,,,,,,,,,,,,,,,,,,
,,,,,,1,0,1,0,1,X V Q F H G B L J M P D K C T S W R N Z,5e383a78d03ec6000bb04919,22,Kobieta,2022-06-11_09h14.28.638,task,2021.1.4,Win32,59.89099838,6299f149e92ead563fba08ef,62a440c31be75f39da88f0d3,,,,,,,,,,,,,,,,,,,,,,,,,,,,,,,,,,,,,,,,,,,,,,,,,,,,,,,,,,,,,,,,,,,,,,,,,,,,,,,,,,,,,,,,,,,,,,,,,,,,,
,,,,,,2,0,2,0,1,X V Q F H G B L J M P D K C T S W R N Z,5e383a78d03ec6000bb04919,22,Kobieta,2022-06-11_09h14.28.638,task,2021.1.4,Win32,59.89099838,6299f149e92ead563fba08ef,62a440c31be75f39da88f0d3,,,,,,,,,,,,,,,,,,,,,,,,,,,,,,,,,,,,,,,,,,,,,,,,,,,,,,,,,,,,,,,,,,,,,,,,,,,,,,,,,,,,,,,,,,,,,,,,,,,,,
,,,,,,,,,,,,5e383a78d03ec6000bb04919,22,Kobieta,2022-06-11_09h14.28.638,task,2021.1.4,Win32,59.89099838,6299f149e92ead563fba08ef,62a440c31be75f39da88f0d3,sjn,"[""s"",""j"",""n""]","[0.7037000000476752,1.3153000000715167,1.6314999999999884,2.0646000000238303]",1,SJN,2,0,2,0,1,,,,,,,,,,,,,,,,,,,,,,,,,,,,,,,,,,,,,,,,,,,,,,,,,,,,,,,,,,,,,,,,,,,,,,,,,,,,,,,,,,,,,,,,,,,
,,,,,,0,0,0,0,1,X V Q F H G B L J M P D K C T S W R N Z,5e383a78d03ec6000bb04919,22,Kobieta,2022-06-11_09h14.28.638,task,2021.1.4,Win32,59.89099838,6299f149e92ead563fba08ef,62a440c31be75f39da88f0d3,,,,,,,,,,,,,,,,,,,,,,,,,,,,,,,,,,,,,,,,,,,,,,,,,,,,,,,,,,,,,,,,,,,,,,,,,,,,,,,,,,,,,,,,,,,,,,,,,,,,,
,,,,,,1,0,1,0,1,X V Q F H G B L J M P D K C T S W R N Z,5e383a78d03ec6000bb04919,22,Kobieta,2022-06-11_09h14.28.638,task,2021.1.4,Win32,59.89099838,6299f149e92ead563fba08ef,62a440c31be75f39da88f0d3,,,,,,,,,,,,,,,,,,,,,,,,,,,,,,,,,,,,,,,,,,,,,,,,,,,,,,,,,,,,,,,,,,,,,,,,,,,,,,,,,,,,,,,,,,,,,,,,,,,,,
,,,,,,2,0,2,0,1,X V Q F H G B L J M P D K C T S W R N Z,5e383a78d03ec6000bb04919,22,Kobieta,2022-06-11_09h14.28.638,task,2021.1.4,Win32,59.89099838,6299f149e92ead563fba08ef,62a440c31be75f39da88f0d3,,,,,,,,,,,,,,,,,,,,,,,,,,,,,,,,,,,,,,,,,,,,,,,,,,,,,,,,,,,,,,,,,,,,,,,,,,,,,,,,,,,,,,,,,,,,,,,,,,,,,
,,,,,,,,,,,,5e383a78d03ec6000bb04919,22,Kobieta,2022-06-11_09h14.28.638,task,2021.1.4,Win32,59.89099838,6299f149e92ead563fba08ef,62a440c31be75f39da88f0d3,xwk,"[""x"",""w"",""k""]","[0.5339000000953575,0.9849000000953652,1.5528000000715139,1.7838000000715226]",1,XWK,3,0,3,0,1,,,,,,,,,,,,,,,,,,,,,,,,,,,,,,,,,,,,,,,,,,,,,,,,,,,,,,,,,,,,,,,,,,,,,,,,,,,,,,,,,,,,,,,,,,,
,,,,,,0,0,0,0,1,X V Q F H G B L J M P D K C T S W R N Z,5e383a78d03ec6000bb04919,22,Kobieta,2022-06-11_09h14.28.638,task,2021.1.4,Win32,59.89099838,6299f149e92ead563fba08ef,62a440c31be75f39da88f0d3,,,,,,,,,,,,,,,,,,,,,,,,,,,,,,,,,,,,,,,,,,,,,,,,,,,,,,,,,,,,,,,,,,,,,,,,,,,,,,,,,,,,,,,,,,,,,,,,,,,,,
,,,,,,1,0,1,0,1,X V Q F H G B L J M P D K C T S W R N Z,5e383a78d03ec6000bb04919,22,Kobieta,2022-06-11_09h14.28.638,task,2021.1.4,Win32,59.89099838,6299f149e92ead563fba08ef,62a440c31be75f39da88f0d3,,,,,,,,,,,,,,,,,,,,,,,,,,,,,,,,,,,,,,,,,,,,,,,,,,,,,,,,,,,,,,,,,,,,,,,,,,,,,,,,,,,,,,,,,,,,,,,,,,,,,
,,,,,,2,0,2,0,1,X V Q F H G B L J M P D K C T S W R N Z,5e383a78d03ec6000bb04919,22,Kobieta,2022-06-11_09h14.28.638,task,2021.1.4,Win32,59.89099838,6299f149e92ead563fba08ef,62a440c31be75f39da88f0d3,,,,,,,,,,,,,,,,,,,,,,,,,,,,,,,,,,,,,,,,,,,,,,,,,,,,,,,,,,,,,,,,,,,,,,,,,,,,,,,,,,,,,,,,,,,,,,,,,,,,,
,,,,,,3,0,3,0,1,X V Q F H G B L J M P D K C T S W R N Z,5e383a78d03ec6000bb04919,22,Kobieta,2022-06-11_09h14.28.638,task,2021.1.4,Win32,59.89099838,6299f149e92ead563fba08ef,62a440c31be75f39da88f0d3,,,,,,,,,,,,,,,,,,,,,,,,,,,,,,,,,,,,,,,,,,,,,,,,,,,,,,,,,,,,,,,,,,,,,,,,,,,,,,,,,,,,,,,,,,,,,,,,,,,,,
,,,,,,,,,,,,5e383a78d03ec6000bb04919,22,Kobieta,2022-06-11_09h14.28.638,task,2021.1.4,Win32,59.89099838,6299f149e92ead563fba08ef,62a440c31be75f39da88f0d3,sgtx,"[""s"",""g"",""t"",""x""]","[0.7161000000238431,1.0883999999761613,1.3856000000238424,2.0020000000000095,2.4236999999284734]",1,SGTX,4,0,4,0,1,,,,,,,,,,,,,,,,,,,,,,,,,,,,,,,,,,,,,,,,,,,,,,,,,,,,,,,,,,,,,,,,,,,,,,,,,,,,,,,,,,,,,,,,,,,
,,,,,,0,0,0,0,1,X V Q F H G B L J M P D K C T S W R N Z,5e383a78d03ec6000bb04919,22,Kobieta,2022-06-11_09h14.28.638,task,2021.1.4,Win32,59.89099838,6299f149e92ead563fba08ef,62a440c31be75f39da88f0d3,,,,,,,,,,,,,,,,,,,,,,,,,,,,,,,,,,,,,,,,,,,,,,,,,,,,,,,,,,,,,,,,,,,,,,,,,,,,,,,,,,,,,,,,,,,,,,,,,,,,,
,,,,,,1,0,1,0,1,X V Q F H G B L J M P D K C T S W R N Z,5e383a78d03ec6000bb04919,22,Kobieta,2022-06-11_09h14.28.638,task,2021.1.4,Win32,59.89099838,6299f149e92ead563fba08ef,62a440c31be75f39da88f0d3,,,,,,,,,,,,,,,,,,,,,,,,,,,,,,,,,,,,,,,,,,,,,,,,,,,,,,,,,,,,,,,,,,,,,,,,,,,,,,,,,,,,,,,,,,,,,,,,,,,,,
,,,,,,2,0,2,0,1,X V Q F H G B L J M P D K C T S W R N Z,5e383a78d03ec6000bb04919,22,Kobieta,2022-06-11_09h14.28.638,task,2021.1.4,Win32,59.89099838,6299f149e92ead563fba08ef,62a440c31be75f39da88f0d3,,,,,,,,,,,,,,,,,,,,,,,,,,,,,,,,,,,,,,,,,,,,,,,,,,,,,,,,,,,,,,,,,,,,,,,,,,,,,,,,,,,,,,,,,,,,,,,,,,,,,
,,,,,,3,0,3,0,1,X V Q F H G B L J M P D K C T S W R N Z,5e383a78d03ec6000bb04919,22,Kobieta,2022-06-11_09h14.28.638,task,2021.1.4,Win32,59.89099838,6299f149e92ead563fba08ef,62a440c31be75f39da88f0d3,,,,,,,,,,,,,,,,,,,,,,,,,,,,,,,,,,,,,,,,,,,,,,,,,,,,,,,,,,,,,,,,,,,,,,,,,,,,,,,,,,,,,,,,,,,,,,,,,,,,,
,,,,,,,,,,,,5e383a78d03ec6000bb04919,22,Kobieta,2022-06-11_09h14.28.638,task,2021.1.4,Win32,59.89099838,6299f149e92ead563fba08ef,62a440c31be75f39da88f0d3,lklk,"[""l"",""k"",""l"",""k""]","[0.9714000000953718,1.5534999999999997,1.8206000000238447,2.0872000000476874,2.5347000000476783]",1,LKLK,5,0,5,0,1,,,,,,,,,,,,,,,,,,,,,,,,,,,,,,,,,,,,,,,,,,,,,,,,,,,,,,,,,,,,,,,,,,,,,,,,,,,,,,,,,,,,,,,,,,,
,,,,,,0,0,0,0,1,X V Q F H G B L J M P D K C T S W R N Z,5e383a78d03ec6000bb04919,22,Kobieta,2022-06-11_09h14.28.638,task,2021.1.4,Win32,59.89099838,6299f149e92ead563fba08ef,62a440c31be75f39da88f0d3,,,,,,,,,,,,,,,,,,,,,,,,,,,,,,,,,,,,,,,,,,,,,,,,,,,,,,,,,,,,,,,,,,,,,,,,,,,,,,,,,,,,,,,,,,,,,,,,,,,,,
,,,,,,1,0,1,0,1,X V Q F H G B L J M P D K C T S W R N Z,5e383a78d03ec6000bb04919,22,Kobieta,2022-06-11_09h14.28.638,task,2021.1.4,Win32,59.89099838,6299f149e92ead563fba08ef,62a440c31be75f39da88f0d3,,,,,,,,,,,,,,,,,,,,,,,,,,,,,,,,,,,,,,,,,,,,,,,,,,,,,,,,,,,,,,,,,,,,,,,,,,,,,,,,,,,,,,,,,,,,,,,,,,,,,
,,,,,,2,0,2,0,1,X V Q F H G B L J M P D K C T S W R N Z,5e383a78d03ec6000bb04919,22,Kobieta,2022-06-11_09h14.28.638,task,2021.1.4,Win32,59.89099838,6299f149e92ead563fba08ef,62a440c31be75f39da88f0d3,,,,,,,,,,,,,,,,,,,,,,,,,,,,,,,,,,,,,,,,,,,,,,,,,,,,,,,,,,,,,,,,,,,,,,,,,,,,,,,,,,,,,,,,,,,,,,,,,,,,,
,,,,,,3,0,3,0,1,X V Q F H G B L J M P D K C T S W R N Z,5e383a78d03ec6000bb04919,22,Kobieta,2022-06-11_09h14.28.638,task,2021.1.4,Win32,59.89099838,6299f149e92ead563fba08ef,62a440c31be75f39da88f0d3,,,,,,,,,,,,,,,,,,,,,,,,,,,,,,,,,,,,,,,,,,,,,,,,,,,,,,,,,,,,,,,,,,,,,,,,,,,,,,,,,,,,,,,,,,,,,,,,,,,,,
,,,,,,4,0,4,0,1,X V Q F H G B L J M P D K C T S W R N Z,5e383a78d03ec6000bb04919,22,Kobieta,2022-06-11_09h14.28.638,task,2021.1.4,Win32,59.89099838,6299f149e92ead563fba08ef,62a440c31be75f39da88f0d3,,,,,,,,,,,,,,,,,,,,,,,,,,,,,,,,,,,,,,,,,,,,,,,,,,,,,,,,,,,,,,,,,,,,,,,,,,,,,,,,,,,,,,,,,,,,,,,,,,,,,
,,,,,,,,,,,,5e383a78d03ec6000bb04919,22,Kobieta,2022-06-11_09h14.28.638,task,2021.1.4,Win32,59.89099838,6299f149e92ead563fba08ef,62a440c31be75f39da88f0d3,sxwcb,"[""s"",""x"",""w"",""c"",""b""]","[1.5351000000238315,2.234499999999997,2.718699999928475,3.0702999999523115,3.453000000000003,3.701899999976149]",1,SXWCB,6,0,6,0,1,,,,,,,,,,,,,,,,,,,,,,,,,,,,,,,,,,,,,,,,,,,,,,,,,,,,,,,,,,,,,,,,,,,,,,,,,,,,,,,,,,,,,,,,,,,
,,,,,,0,0,0,0,1,X V Q F H G B L J M P D K C T S W R N Z,5e383a78d03ec6000bb04919,22,Kobieta,2022-06-11_09h14.28.638,task,2021.1.4,Win32,59.89099838,6299f149e92ead563fba08ef,62a440c31be75f39da88f0d3,,,,,,,,,,,,,,,,,,,,,,,,,,,,,,,,,,,,,,,,,,,,,,,,,,,,,,,,,,,,,,,,,,,,,,,,,,,,,,,,,,,,,,,,,,,,,,,,,,,,,
,,,,,,1,0,1,0,1,X V Q F H G B L J M P D K C T S W R N Z,5e383a78d03ec6000bb04919,22,Kobieta,2022-06-11_09h14.28.638,task,2021.1.4,Win32,59.89099838,6299f149e92ead563fba08ef,62a440c31be75f39da88f0d3,,,,,,,,,,,,,,,,,,,,,,,,,,,,,,,,,,,,,,,,,,,,,,,,,,,,,,,,,,,,,,,,,,,,,,,,,,,,,,,,,,,,,,,,,,,,,,,,,,,,,
,,,,,,2,0,2,0,1,X V Q F H G B L J M P D K C T S W R N Z,5e383a78d03ec6000bb04919,22,Kobieta,2022-06-11_09h14.28.638,task,2021.1.4,Win32,59.89099838,6299f149e92ead563fba08ef,62a440c31be75f39da88f0d3,,,,,,,,,,,,,,,,,,,,,,,,,,,,,,,,,,,,,,,,,,,,,,,,,,,,,,,,,,,,,,,,,,,,,,,,,,,,,,,,,,,,,,,,,,,,,,,,,,,,,
,,,,,,3,0,3,0,1,X V Q F H G B L J M P D K C T S W R N Z,5e383a78d03ec6000bb04919,22,Kobieta,2022-06-11_09h14.28.638,task,2021.1.4,Win32,59.89099838,6299f149e92ead563fba08ef,62a440c31be75f39da88f0d3,,,,,,,,,,,,,,,,,,,,,,,,,,,,,,,,,,,,,,,,,,,,,,,,,,,,,,,,,,,,,,,,,,,,,,,,,,,,,,,,,,,,,,,,,,,,,,,,,,,,,
,,,,,,4,0,4,0,1,X V Q F H G B L J M P D K C T S W R N Z,5e383a78d03ec6000bb04919,22,Kobieta,2022-06-11_09h14.28.638,task,2021.1.4,Win32,59.89099838,6299f149e92ead563fba08ef,62a440c31be75f39da88f0d3,,,,,,,,,,,,,,,,,,,,,,,,,,,,,,,,,,,,,,,,,,,,,,,,,,,,,,,,,,,,,,,,,,,,,,,,,,,,,,,,,,,,,,,,,,,,,,,,,,,,,
,,,,,,,,,,,,5e383a78d03ec6000bb04919,22,Kobieta,2022-06-11_09h14.28.638,task,2021.1.4,Win32,59.89099838,6299f149e92ead563fba08ef,62a440c31be75f39da88f0d3,rrhvl,"[""r"",""r"",""h"",""v"",""l""]","[1.039299999952334,1.301200000047686,1.7898999999761713,2.668399999976174,3.2183999999761568,3.568100000023861]",1,RRHVL,7,0,7,0,1,,,,,,,,,,,,,,,,,,,,,,,,,,,,,,,,,,,,,,,,,,,,,,,,,,,,,,,,,,,,,,,,,,,,,,,,,,,,,,,,,,,,,,,,,,,
,,,,,,0,0,0,0,1,X V Q F H G B L J M P D K C T S W R N Z,5e383a78d03ec6000bb04919,22,Kobieta,2022-06-11_09h14.28.638,task,2021.1.4,Win32,59.89099838,6299f149e92ead563fba08ef,62a440c31be75f39da88f0d3,,,,,,,,,,,,,,,,,,,,,,,,,,,,,,,,,,,,,,,,,,,,,,,,,,,,,,,,,,,,,,,,,,,,,,,,,,,,,,,,,,,,,,,,,,,,,,,,,,,,,
,,,,,,1,0,1,0,1,X V Q F H G B L J M P D K C T S W R N Z,5e383a78d03ec6000bb04919,22,Kobieta,2022-06-11_09h14.28.638,task,2021.1.4,Win32,59.89099838,6299f149e92ead563fba08ef,62a440c31be75f39da88f0d3,,,,,,,,,,,,,,,,,,,,,,,,,,,,,,,,,,,,,,,,,,,,,,,,,,,,,,,,,,,,,,,,,,,,,,,,,,,,,,,,,,,,,,,,,,,,,,,,,,,,,
,,,,,,2,0,2,0,1,X V Q F H G B L J M P D K C T S W R N Z,5e383a78d03ec6000bb04919,22,Kobieta,2022-06-11_09h14.28.638,task,2021.1.4,Win32,59.89099838,6299f149e92ead563fba08ef,62a440c31be75f39da88f0d3,,,,,,,,,,,,,,,,,,,,,,,,,,,,,,,,,,,,,,,,,,,,,,,,,,,,,,,,,,,,,,,,,,,,,,,,,,,,,,,,,,,,,,,,,,,,,,,,,,,,,
,,,,,,3,0,3,0,1,X V Q F H G B L J M P D K C T S W R N Z,5e383a78d03ec6000bb04919,22,Kobieta,2022-06-11_09h14.28.638,task,2021.1.4,Win32,59.89099838,6299f149e92ead563fba08ef,62a440c31be75f39da88f0d3,,,,,,,,,,,,,,,,,,,,,,,,,,,,,,,,,,,,,,,,,,,,,,,,,,,,,,,,,,,,,,,,,,,,,,,,,,,,,,,,,,,,,,,,,,,,,,,,,,,,,
,,,,,,4,0,4,0,1,X V Q F H G B L J M P D K C T S W R N Z,5e383a78d03ec6000bb04919,22,Kobieta,2022-06-11_09h14.28.638,task,2021.1.4,Win32,59.89099838,6299f149e92ead563fba08ef,62a440c31be75f39da88f0d3,,,,,,,,,,,,,,,,,,,,,,,,,,,,,,,,,,,,,,,,,,,,,,,,,,,,,,,,,,,,,,,,,,,,,,,,,,,,,,,,,,,,,,,,,,,,,,,,,,,,,
,,,,,,5,0,5,0,1,X V Q F H G B L J M P D K C T S W R N Z,5e383a78d03ec6000bb04919,22,Kobieta,2022-06-11_09h14.28.638,task,2021.1.4,Win32,59.89099838,6299f149e92ead563fba08ef,62a440c31be75f39da88f0d3,,,,,,,,,,,,,,,,,,,,,,,,,,,,,,,,,,,,,,,,,,,,,,,,,,,,,,,,,,,,,,,,,,,,,,,,,,,,,,,,,,,,,,,,,,,,,,,,,,,,,
,,,,,,,,,,,,5e383a78d03ec6000bb04919,22,Kobieta,2022-06-11_09h14.28.638,task,2021.1.4,Win32,59.89099838,6299f149e92ead563fba08ef,62a440c31be75f39da88f0d3,frptcb,"[""f"",""r"",""p"",""t"",""c"",""b""]","[1.1018000000715347,1.501600000023842,3.6863999999761745,4.3016000000238535,4.636200000047694,4.921500000000009,5.134100000023864]",1,FRPTCB,8,0,8,0,1,,,,,,,,,,,,,,,,,,,,,,,,,,,,,,,,,,,,,,,,,,,,,,,,,,,,,,,,,,,,,,,,,,,,,,,,,,,,,,,,,,,,,,,,,,,
,,,,,,0,0,0,0,1,X V Q F H G B L J M P D K C T S W R N Z,5e383a78d03ec6000bb04919,22,Kobieta,2022-06-11_09h14.28.638,task,2021.1.4,Win32,59.89099838,6299f149e92ead563fba08ef,62a440c31be75f39da88f0d3,,,,,,,,,,,,,,,,,,,,,,,,,,,,,,,,,,,,,,,,,,,,,,,,,,,,,,,,,,,,,,,,,,,,,,,,,,,,,,,,,,,,,,,,,,,,,,,,,,,,,
,,,,,,1,0,1,0,1,X V Q F H G B L J M P D K C T S W R N Z,5e383a78d03ec6000bb04919,22,Kobieta,2022-06-11_09h14.28.638,task,2021.1.4,Win32,59.89099838,6299f149e92ead563fba08ef,62a440c31be75f39da88f0d3,,,,,,,,,,,,,,,,,,,,,,,,,,,,,,,,,,,,,,,,,,,,,,,,,,,,,,,,,,,,,,,,,,,,,,,,,,,,,,,,,,,,,,,,,,,,,,,,,,,,,
,,,,,,2,0,2,0,1,X V Q F H G B L J M P D K C T S W R N Z,5e383a78d03ec6000bb04919,22,Kobieta,2022-06-11_09h14.28.638,task,2021.1.4,Win32,59.89099838,6299f149e92ead563fba08ef,62a440c31be75f39da88f0d3,,,,,,,,,,,,,,,,,,,,,,,,,,,,,,,,,,,,,,,,,,,,,,,,,,,,,,,,,,,,,,,,,,,,,,,,,,,,,,,,,,,,,,,,,,,,,,,,,,,,,
,,,,,,3,0,3,0,1,X V Q F H G B L J M P D K C T S W R N Z,5e383a78d03ec6000bb04919,22,Kobieta,2022-06-11_09h14.28.638,task,2021.1.4,Win32,59.89099838,6299f149e92ead563fba08ef,62a440c31be75f39da88f0d3,,,,,,,,,,,,,,,,,,,,,,,,,,,,,,,,,,,,,,,,,,,,,,,,,,,,,,,,,,,,,,,,,,,,,,,,,,,,,,,,,,,,,,,,,,,,,,,,,,,,,
,,,,,,4,0,4,0,1,X V Q F H G B L J M P D K C T S W R N Z,5e383a78d03ec6000bb04919,22,Kobieta,2022-06-11_09h14.28.638,task,2021.1.4,Win32,59.89099838,6299f149e92ead563fba08ef,62a440c31be75f39da88f0d3,,,,,,,,,,,,,,,,,,,,,,,,,,,,,,,,,,,,,,,,,,,,,,,,,,,,,,,,,,,,,,,,,,,,,,,,,,,,,,,,,,,,,,,,,,,,,,,,,,,,,
,,,,,,5,0,5,0,1,X V Q F H G B L J M P D K C T S W R N Z,5e383a78d03ec6000bb04919,22,Kobieta,2022-06-11_09h14.28.638,task,2021.1.4,Win32,59.89099838,6299f149e92ead563fba08ef,62a440c31be75f39da88f0d3,,,,,,,,,,,,,,,,,,,,,,,,,,,,,,,,,,,,,,,,,,,,,,,,,,,,,,,,,,,,,,,,,,,,,,,,,,,,,,,,,,,,,,,,,,,,,,,,,,,,,
,,,,,,,,,,,,5e383a78d03ec6000bb04919,22,Kobieta,2022-06-11_09h14.28.638,task,2021.1.4,Win32,59.89099838,6299f149e92ead563fba08ef,62a440c31be75f39da88f0d3,vppbnc,"[""v"",""p"",""p"",""b"",""n"",""c""]","[0.9855000000000018,1.3858999999761465,1.7357000000476717,2.602399999976143,2.979899999976169,3.219999999999999,3.4997999999523017]",1,VPPBNC,9,0,9,0,1,,,,,,,,,,,,,,,,,,,,,,,,,,,,,,,,,,,,,,,,,,,,,,,,,,,,,,,,,,,,,,,,,,,,,,,,,,,,,,,,,,,,,,,,,,,
,,,,,,0,0,0,0,1,X V Q F H G B L J M P D K C T S W R N Z,5e383a78d03ec6000bb04919,22,Kobieta,2022-06-11_09h14.28.638,task,2021.1.4,Win32,59.89099838,6299f149e92ead563fba08ef,62a440c31be75f39da88f0d3,,,,,,,,,,,,,,,,,,,,,,,,,,,,,,,,,,,,,,,,,,,,,,,,,,,,,,,,,,,,,,,,,,,,,,,,,,,,,,,,,,,,,,,,,,,,,,,,,,,,,
,,,,,,1,0,1,0,1,X V Q F H G B L J M P D K C T S W R N Z,5e383a78d03ec6000bb04919,22,Kobieta,2022-06-11_09h14.28.638,task,2021.1.4,Win32,59.89099838,6299f149e92ead563fba08ef,62a440c31be75f39da88f0d3,,,,,,,,,,,,,,,,,,,,,,,,,,,,,,,,,,,,,,,,,,,,,,,,,,,,,,,,,,,,,,,,,,,,,,,,,,,,,,,,,,,,,,,,,,,,,,,,,,,,,
,,,,,,2,0,2,0,1,X V Q F H G B L J M P D K C T S W R N Z,5e383a78d03ec6000bb04919,22,Kobieta,2022-06-11_09h14.28.638,task,2021.1.4,Win32,59.89099838,6299f149e92ead563fba08ef,62a440c31be75f39da88f0d3,,,,,,,,,,,,,,,,,,,,,,,,,,,,,,,,,,,,,,,,,,,,,,,,,,,,,,,,,,,,,,,,,,,,,,,,,,,,,,,,,,,,,,,,,,,,,,,,,,,,,
,,,,,,3,0,3,0,1,X V Q F H G B L J M P D K C T S W R N Z,5e383a78d03ec6000bb04919,22,Kobieta,2022-06-11_09h14.28.638,task,2021.1.4,Win32,59.89099838,6299f149e92ead563fba08ef,62a440c31be75f39da88f0d3,,,,,,,,,,,,,,,,,,,,,,,,,,,,,,,,,,,,,,,,,,,,,,,,,,,,,,,,,,,,,,,,,,,,,,,,,,,,,,,,,,,,,,,,,,,,,,,,,,,,,
,,,,,,4,0,4,0,1,X V Q F H G B L J M P D K C T S W R N Z,5e383a78d03ec6000bb04919,22,Kobieta,2022-06-11_09h14.28.638,task,2021.1.4,Win32,59.89099838,6299f149e92ead563fba08ef,62a440c31be75f39da88f0d3,,,,,,,,,,,,,,,,,,,,,,,,,,,,,,,,,,,,,,,,,,,,,,,,,,,,,,,,,,,,,,,,,,,,,,,,,,,,,,,,,,,,,,,,,,,,,,,,,,,,,
,,,,,,5,0,5,0,1,X V Q F H G B L J M P D K C T S W R N Z,5e383a78d03ec6000bb04919,22,Kobieta,2022-06-11_09h14.28.638,task,2021.1.4,Win32,59.89099838,6299f149e92ead563fba08ef,62a440c31be75f39da88f0d3,,,,,,,,,,,,,,,,,,,,,,,,,,,,,,,,,,,,,,,,,,,,,,,,,,,,,,,,,,,,,,,,,,,,,,,,,,,,,,,,,,,,,,,,,,,,,,,,,,,,,
,,,,,,6,0,6,0,1,X V Q F H G B L J M P D K C T S W R N Z,5e383a78d03ec6000bb04919,22,Kobieta,2022-06-11_09h14.28.638,task,2021.1.4,Win32,59.89099838,6299f149e92ead563fba08ef,62a440c31be75f39da88f0d3,,,,,,,,,,,,,,,,,,,,,,,,,,,,,,,,,,,,,,,,,,,,,,,,,,,,,,,,,,,,,,,,,,,,,,,,,,,,,,,,,,,,,,,,,,,,,,,,,,,,,
,,,,,,,,,,,,5e383a78d03ec6000bb04919,22,Kobieta,2022-06-11_09h14.28.638,task,2021.1.4,Win32,59.89099838,6299f149e92ead563fba08ef,62a440c31be75f39da88f0d3,zdvrnvb,"[""z"",""d"",""v"",""r"",""n"",""v"",""b""]","[1.3006000000238203,1.7175000000000011,2.5342000000476617,3.701999999999998,4.151600000023819,4.902300000071506,5.318800000071519,5.7184999999999775]",0,ZDVRNVG,10,0,10,0,1,,,,,,,,,,,,,,,,,,,,,,,,,,,,,,,,,,,,,,,,,,,,,,,,,,,,,,,,,,,,,,,,,,,,,,,,,,,,,,,,,,,,,,,,,,,
,,,,,,0,0,0,0,1,X V Q F H G B L J M P D K C T S W R N Z,5e383a78d03ec6000bb04919,22,Kobieta,2022-06-11_09h14.28.638,task,2021.1.4,Win32,59.89099838,6299f149e92ead563fba08ef,62a440c31be75f39da88f0d3,,,,,,,,,,,,,,,,,,,,,,,,,,,,,,,,,,,,,,,,,,,,,,,,,,,,,,,,,,,,,,,,,,,,,,,,,,,,,,,,,,,,,,,,,,,,,,,,,,,,,
,,,,,,1,0,1,0,1,X V Q F H G B L J M P D K C T S W R N Z,5e383a78d03ec6000bb04919,22,Kobieta,2022-06-11_09h14.28.638,task,2021.1.4,Win32,59.89099838,6299f149e92ead563fba08ef,62a440c31be75f39da88f0d3,,,,,,,,,,,,,,,,,,,,,,,,,,,,,,,,,,,,,,,,,,,,,,,,,,,,,,,,,,,,,,,,,,,,,,,,,,,,,,,,,,,,,,,,,,,,,,,,,,,,,
,,,,,,2,0,2,0,1,X V Q F H G B L J M P D K C T S W R N Z,5e383a78d03ec6000bb04919,22,Kobieta,2022-06-11_09h14.28.638,task,2021.1.4,Win32,59.89099838,6299f149e92ead563fba08ef,62a440c31be75f39da88f0d3,,,,,,,,,,,,,,,,,,,,,,,,,,,,,,,,,,,,,,,,,,,,,,,,,,,,,,,,,,,,,,,,,,,,,,,,,,,,,,,,,,,,,,,,,,,,,,,,,,,,,
,,,,,,3,0,3,0,1,X V Q F H G B L J M P D K C T S W R N Z,5e383a78d03ec6000bb04919,22,Kobieta,2022-06-11_09h14.28.638,task,2021.1.4,Win32,59.89099838,6299f149e92ead563fba08ef,62a440c31be75f39da88f0d3,,,,,,,,,,,,,,,,,,,,,,,,,,,,,,,,,,,,,,,,,,,,,,,,,,,,,,,,,,,,,,,,,,,,,,,,,,,,,,,,,,,,,,,,,,,,,,,,,,,,,
,,,,,,4,0,4,0,1,X V Q F H G B L J M P D K C T S W R N Z,5e383a78d03ec6000bb04919,22,Kobieta,2022-06-11_09h14.28.638,task,2021.1.4,Win32,59.89099838,6299f149e92ead563fba08ef,62a440c31be75f39da88f0d3,,,,,,,,,,,,,,,,,,,,,,,,,,,,,,,,,,,,,,,,,,,,,,,,,,,,,,,,,,,,,,,,,,,,,,,,,,,,,,,,,,,,,,,,,,,,,,,,,,,,,
,,,,,,5,0,5,0,1,X V Q F H G B L J M P D K C T S W R N Z,5e383a78d03ec6000bb04919,22,Kobieta,2022-06-11_09h14.28.638,task,2021.1.4,Win32,59.89099838,6299f149e92ead563fba08ef,62a440c31be75f39da88f0d3,,,,,,,,,,,,,,,,,,,,,,,,,,,,,,,,,,,,,,,,,,,,,,,,,,,,,,,,,,,,,,,,,,,,,,,,,,,,,,,,,,,,,,,,,,,,,,,,,,,,,
,,,,,,6,0,6,0,1,X V Q F H G B L J M P D K C T S W R N Z,5e383a78d03ec6000bb04919,22,Kobieta,2022-06-11_09h14.28.638,task,2021.1.4,Win32,59.89099838,6299f149e92ead563fba08ef,62a440c31be75f39da88f0d3,,,,,,,,,,,,,,,,,,,,,,,,,,,,,,,,,,,,,,,,,,,,,,,,,,,,,,,,,,,,,,,,,,,,,,,,,,,,,,,,,,,,,,,,,,,,,,,,,,,,,
,,,,,,,,,,,,5e383a78d03ec6000bb04919,22,Kobieta,2022-06-11_09h14.28.638,task,2021.1.4,Win32,59.89099838,6299f149e92ead563fba08ef,62a440c31be75f39da88f0d3,dqhwhgf,"[""d"",""q"",""h"",""w"",""h"",""g"",""f""]","[0.7181999999284585,1.0671999999284765,3.3346999999284606,3.867799999952325,4.3516999999284565,5.734799999952315,7.034999999999997,7.101899999976155]",1,DQHWHGF,11,0,11,0,1,,,,,,,,,,,,,,,,,,,,,,,,,,,,,,,,,,,,,,,,,,,,,,,,,,,,,,,,,,,,,,,,,,,,,,,,,,,,,,,,,,,,,,,,,,,
,,,,,,0,0,0,0,1,X V Q F H G B L J M P D K C T S W R N Z,5e383a78d03ec6000bb04919,22,Kobieta,2022-06-11_09h14.28.638,task,2021.1.4,Win32,59.89099838,6299f149e92ead563fba08ef,62a440c31be75f39da88f0d3,,,,,,,,,,,,,,,,,,,,,,,,,,,,,,,,,,,,,,,,,,,,,,,,,,,,,,,,,,,,,,,,,,,,,,,,,,,,,,,,,,,,,,,,,,,,,,,,,,,,,
,,,,,,1,0,1,0,1,X V Q F H G B L J M P D K C T S W R N Z,5e383a78d03ec6000bb04919,22,Kobieta,2022-06-11_09h14.28.638,task,2021.1.4,Win32,59.89099838,6299f149e92ead563fba08ef,62a440c31be75f39da88f0d3,,,,,,,,,,,,,,,,,,,,,,,,,,,,,,,,,,,,,,,,,,,,,,,,,,,,,,,,,,,,,,,,,,,,,,,,,,,,,,,,,,,,,,,,,,,,,,,,,,,,,
,,,,,,2,0,2,0,1,X V Q F H G B L J M P D K C T S W R N Z,5e383a78d03ec6000bb04919,22,Kobieta,2022-06-11_09h14.28.638,task,2021.1.4,Win32,59.89099838,6299f149e92ead563fba08ef,62a440c31be75f39da88f0d3,,,,,,,,,,,,,,,,,,,,,,,,,,,,,,,,,,,,,,,,,,,,,,,,,,,,,,,,,,,,,,,,,,,,,,,,,,,,,,,,,,,,,,,,,,,,,,,,,,,,,
,,,,,,3,0,3,0,1,X V Q F H G B L J M P D K C T S W R N Z,5e383a78d03ec6000bb04919,22,Kobieta,2022-06-11_09h14.28.638,task,2021.1.4,Win32,59.89099838,6299f149e92ead563fba08ef,62a440c31be75f39da88f0d3,,,,,,,,,,,,,,,,,,,,,,,,,,,,,,,,,,,,,,,,,,,,,,,,,,,,,,,,,,,,,,,,,,,,,,,,,,,,,,,,,,,,,,,,,,,,,,,,,,,,,
,,,,,,4,0,4,0,1,X V Q F H G B L J M P D K C T S W R N Z,5e383a78d03ec6000bb04919,22,Kobieta,2022-06-11_09h14.28.638,task,2021.1.4,Win32,59.89099838,6299f149e92ead563fba08ef,62a440c31be75f39da88f0d3,,,,,,,,,,,,,,,,,,,,,,,,,,,,,,,,,,,,,,,,,,,,,,,,,,,,,,,,,,,,,,,,,,,,,,,,,,,,,,,,,,,,,,,,,,,,,,,,,,,,,
,,,,,,5,0,5,0,1,X V Q F H G B L J M P D K C T S W R N Z,5e383a78d03ec6000bb04919,22,Kobieta,2022-06-11_09h14.28.638,task,2021.1.4,Win32,59.89099838,6299f149e92ead563fba08ef,62a440c31be75f39da88f0d3,,,,,,,,,,,,,,,,,,,,,,,,,,,,,,,,,,,,,,,,,,,,,,,,,,,,,,,,,,,,,,,,,,,,,,,,,,,,,,,,,,,,,,,,,,,,,,,,,,,,,
,,,,,,6,0,6,0,1,X V Q F H G B L J M P D K C T S W R N Z,5e383a78d03ec6000bb04919,22,Kobieta,2022-06-11_09h14.28.638,task,2021.1.4,Win32,59.89099838,6299f149e92ead563fba08ef,62a440c31be75f39da88f0d3,,,,,,,,,,,,,,,,,,,,,,,,,,,,,,,,,,,,,,,,,,,,,,,,,,,,,,,,,,,,,,,,,,,,,,,,,,,,,,,,,,,,,,,,,,,,,,,,,,,,,
,,,,,,,,,,,,5e383a78d03ec6000bb04919,22,Kobieta,2022-06-11_09h14.28.638,task,2021.1.4,Win32,59.89099838,6299f149e92ead563fba08ef,62a440c31be75f39da88f0d3,dggcgnr,"[""d"",""g"",""g"",""c"",""g"",""n"",""r""]","[2.1517000000476685,2.5859000000953642,4.053400000095365,4.519300000071524,5.636600000023833,6.486600000023827,7.136600000023833,7.285600000023834]",0,DGGCGFN,12,0,12,0,1,,,,,,,,,,,,,,,,,,,,,,,,,,,,,,,,,,,,,,,,,,,,,,,,,,,,,,,,,,,,,,,,,,,,,,,,,,,,,,,,,,,,,,,,,,,
,,,,,,0,0,0,0,1,X V Q F H G B L J M P D K C T S W R N Z,5e383a78d03ec6000bb04919,22,Kobieta,2022-06-11_09h14.28.638,task,2021.1.4,Win32,59.89099838,6299f149e92ead563fba08ef,62a440c31be75f39da88f0d3,,,,,,,,,,,,,,,,,,,,,,,,,,,,,,,,,,,,,,,,,,,,,,,,,,,,,,,,,,,,,,,,,,,,,,,,,,,,,,,,,,,,,,,,,,,,,,,,,,,,,
,,,,,,1,0,1,0,1,X V Q F H G B L J M P D K C T S W R N Z,5e383a78d03ec6000bb04919,22,Kobieta,2022-06-11_09h14.28.638,task,2021.1.4,Win32,59.89099838,6299f149e92ead563fba08ef,62a440c31be75f39da88f0d3,,,,,,,,,,,,,,,,,,,,,,,,,,,,,,,,,,,,,,,,,,,,,,,,,,,,,,,,,,,,,,,,,,,,,,,,,,,,,,,,,,,,,,,,,,,,,,,,,,,,,
,,,,,,2,0,2,0,1,X V Q F H G B L J M P D K C T S W R N Z,5e383a78d03ec6000bb04919,22,Kobieta,2022-06-11_09h14.28.638,task,2021.1.4,Win32,59.89099838,6299f149e92ead563fba08ef,62a440c31be75f39da88f0d3,,,,,,,,,,,,,,,,,,,,,,,,,,,,,,,,,,,,,,,,,,,,,,,,,,,,,,,,,,,,,,,,,,,,,,,,,,,,,,,,,,,,,,,,,,,,,,,,,,,,,
,,,,,,3,0,3,0,1,X V Q F H G B L J M P D K C T S W R N Z,5e383a78d03ec6000bb04919,22,Kobieta,2022-06-11_09h14.28.638,task,2021.1.4,Win32,59.89099838,6299f149e92ead563fba08ef,62a440c31be75f39da88f0d3,,,,,,,,,,,,,,,,,,,,,,,,,,,,,,,,,,,,,,,,,,,,,,,,,,,,,,,,,,,,,,,,,,,,,,,,,,,,,,,,,,,,,,,,,,,,,,,,,,,,,
,,,,,,4,0,4,0,1,X V Q F H G B L J M P D K C T S W R N Z,5e383a78d03ec6000bb04919,22,Kobieta,2022-06-11_09h14.28.638,task,2021.1.4,Win32,59.89099838,6299f149e92ead563fba08ef,62a440c31be75f39da88f0d3,,,,,,,,,,,,,,,,,,,,,,,,,,,,,,,,,,,,,,,,,,,,,,,,,,,,,,,,,,,,,,,,,,,,,,,,,,,,,,,,,,,,,,,,,,,,,,,,,,,,,
,,,,,,5,0,5,0,1,X V Q F H G B L J M P D K C T S W R N Z,5e383a78d03ec6000bb04919,22,Kobieta,2022-06-11_09h14.28.638,task,2021.1.4,Win32,59.89099838,6299f149e92ead563fba08ef,62a440c31be75f39da88f0d3,,,,,,,,,,,,,,,,,,,,,,,,,,,,,,,,,,,,,,,,,,,,,,,,,,,,,,,,,,,,,,,,,,,,,,,,,,,,,,,,,,,,,,,,,,,,,,,,,,,,,
,,,,,,6,0,6,0,1,X V Q F H G B L J M P D K C T S W R N Z,5e383a78d03ec6000bb04919,22,Kobieta,2022-06-11_09h14.28.638,task,2021.1.4,Win32,59.89099838,6299f149e92ead563fba08ef,62a440c31be75f39da88f0d3,,,,,,,,,,,,,,,,,,,,,,,,,,,,,,,,,,,,,,,,,,,,,,,,,,,,,,,,,,,,,,,,,,,,,,,,,,,,,,,,,,,,,,,,,,,,,,,,,,,,,
,,,,,,,,,,,,5e383a78d03ec6000bb04919,22,Kobieta,2022-06-11_09h14.28.638,task,2021.1.4,Win32,59.89099838,6299f149e92ead563fba08ef,62a440c31be75f39da88f0d3,bxfjmgb,"[""b"",""x"",""f"",""j"",""m"",""g"",""b""]","[1.7175000000000011,2.101699999928485,3.261399999976163,3.9186000000238437,4.18539999997617,4.6751000000238605,5.252699999928495,5.551799999952323]",1,BXFJMGB,13,0,13,0,1,,,,,,,,,,,,,,,,,,,,,,,,,,,,,,,,,,,,,,,,,,,,,,,,,,,,,,,,,,,,,,,,,,,,,,,,,,,,,,,,,,,,,,,,,,,
,,,,,,0,0,0,0,1,X V Q F H G B L J M P D K C T S W R N Z,5e383a78d03ec6000bb04919,22,Kobieta,2022-06-11_09h14.28.638,task,2021.1.4,Win32,59.89099838,6299f149e92ead563fba08ef,62a440c31be75f39da88f0d3,,,,,,,,,,,,,,,,,,,,,,,,,,,,,,,,,,,,,,,,,,,,,,,,,,,,,,,,,,,,,,,,,,,,,,,,,,,,,,,,,,,,,,,,,,,,,,,,,,,,,
,,,,,,1,0,1,0,1,X V Q F H G B L J M P D K C T S W R N Z,5e383a78d03ec6000bb04919,22,Kobieta,2022-06-11_09h14.28.638,task,2021.1.4,Win32,59.89099838,6299f149e92ead563fba08ef,62a440c31be75f39da88f0d3,,,,,,,,,,,,,,,,,,,,,,,,,,,,,,,,,,,,,,,,,,,,,,,,,,,,,,,,,,,,,,,,,,,,,,,,,,,,,,,,,,,,,,,,,,,,,,,,,,,,,
,,,,,,2,0,2,0,1,X V Q F H G B L J M P D K C T S W R N Z,5e383a78d03ec6000bb04919,22,Kobieta,2022-06-11_09h14.28.638,task,2021.1.4,Win32,59.89099838,6299f149e92ead563fba08ef,62a440c31be75f39da88f0d3,,,,,,,,,,,,,,,,,,,,,,,,,,,,,,,,,,,,,,,,,,,,,,,,,,,,,,,,,,,,,,,,,,,,,,,,,,,,,,,,,,,,,,,,,,,,,,,,,,,,,
,,,,,,3,0,3,0,1,X V Q F H G B L J M P D K C T S W R N Z,5e383a78d03ec6000bb04919,22,Kobieta,2022-06-11_09h14.28.638,task,2021.1.4,Win32,59.89099838,6299f149e92ead563fba08ef,62a440c31be75f39da88f0d3,,,,,,,,,,,,,,,,,,,,,,,,,,,,,,,,,,,,,,,,,,,,,,,,,,,,,,,,,,,,,,,,,,,,,,,,,,,,,,,,,,,,,,,,,,,,,,,,,,,,,
,,,,,,4,0,4,0,1,X V Q F H G B L J M P D K C T S W R N Z,5e383a78d03ec6000bb04919,22,Kobieta,2022-06-11_09h14.28.638,task,2021.1.4,Win32,59.89099838,6299f149e92ead563fba08ef,62a440c31be75f39da88f0d3,,,,,,,,,,,,,,,,,,,,,,,,,,,,,,,,,,,,,,,,,,,,,,,,,,,,,,,,,,,,,,,,,,,,,,,,,,,,,,,,,,,,,,,,,,,,,,,,,,,,,
,,,,,,5,0,5,0,1,X V Q F H G B L J M P D K C T S W R N Z,5e383a78d03ec6000bb04919,22,Kobieta,2022-06-11_09h14.28.638,task,2021.1.4,Win32,59.89099838,6299f149e92ead563fba08ef,62a440c31be75f39da88f0d3,,,,,,,,,,,,,,,,,,,,,,,,,,,,,,,,,,,,,,,,,,,,,,,,,,,,,,,,,,,,,,,,,,,,,,,,,,,,,,,,,,,,,,,,,,,,,,,,,,,,,
,,,,,,6,0,6,0,1,X V Q F H G B L J M P D K C T S W R N Z,5e383a78d03ec6000bb04919,22,Kobieta,2022-06-11_09h14.28.638,task,2021.1.4,Win32,59.89099838,6299f149e92ead563fba08ef,62a440c31be75f39da88f0d3,,,,,,,,,,,,,,,,,,,,,,,,,,,,,,,,,,,,,,,,,,,,,,,,,,,,,,,,,,,,,,,,,,,,,,,,,,,,,,,,,,,,,,,,,,,,,,,,,,,,,
,,,,,,7,0,7,0,1,X V Q F H G B L J M P D K C T S W R N Z,5e383a78d03ec6000bb04919,22,Kobieta,2022-06-11_09h14.28.638,task,2021.1.4,Win32,59.89099838,6299f149e92ead563fba08ef,62a440c31be75f39da88f0d3,,,,,,,,,,,,,,,,,,,,,,,,,,,,,,,,,,,,,,,,,,,,,,,,,,,,,,,,,,,,,,,,,,,,,,,,,,,,,,,,,,,,,,,,,,,,,,,,,,,,,
,,,,,,,,,,,,5e383a78d03ec6000bb04919,22,Kobieta,2022-06-11_09h14.28.638,task,2021.1.4,Win32,59.89099838,6299f149e92ead563fba08ef,62a440c31be75f39da88f0d3,mcbnmhg,"[""m"",""c"",""b"",""n"",""m"",""h"",""g""]","[0.8348000000715103,1.1668999999761525,2.067600000023816,2.400999999999982,3.585899999976135,4.367899999976146,5.194300000071507,6.033100000023836]",0,MCBNTHGZ,14,0,14,0,1,,,,,,,,,,,,,,,,,,,,,,,,,,,,,,,,,,,,,,,,,,,,,,,,,,,,,,,,,,,,,,,,,,,,,,,,,,,,,,,,,,,,,,,,,,,
,,,,,,0,0,0,0,1,X V Q F H G B L J M P D K C T S W R N Z,5e383a78d03ec6000bb04919,22,Kobieta,2022-06-11_09h14.28.638,task,2021.1.4,Win32,59.89099838,6299f149e92ead563fba08ef,62a440c31be75f39da88f0d3,,,,,,,,,,,,,,,,,,,,,,,,,,,,,,,,,,,,,,,,,,,,,,,,,,,,,,,,,,,,,,,,,,,,,,,,,,,,,,,,,,,,,,,,,,,,,,,,,,,,,
,,,,,,1,0,1,0,1,X V Q F H G B L J M P D K C T S W R N Z,5e383a78d03ec6000bb04919,22,Kobieta,2022-06-11_09h14.28.638,task,2021.1.4,Win32,59.89099838,6299f149e92ead563fba08ef,62a440c31be75f39da88f0d3,,,,,,,,,,,,,,,,,,,,,,,,,,,,,,,,,,,,,,,,,,,,,,,,,,,,,,,,,,,,,,,,,,,,,,,,,,,,,,,,,,,,,,,,,,,,,,,,,,,,,
,,,,,,2,0,2,0,1,X V Q F H G B L J M P D K C T S W R N Z,5e383a78d03ec6000bb04919,22,Kobieta,2022-06-11_09h14.28.638,task,2021.1.4,Win32,59.89099838,6299f149e92ead563fba08ef,62a440c31be75f39da88f0d3,,,,,,,,,,,,,,,,,,,,,,,,,,,,,,,,,,,,,,,,,,,,,,,,,,,,,,,,,,,,,,,,,,,,,,,,,,,,,,,,,,,,,,,,,,,,,,,,,,,,,
,,,,,,3,0,3,0,1,X V Q F H G B L J M P D K C T S W R N Z,5e383a78d03ec6000bb04919,22,Kobieta,2022-06-11_09h14.28.638,task,2021.1.4,Win32,59.89099838,6299f149e92ead563fba08ef,62a440c31be75f39da88f0d3,,,,,,,,,,,,,,,,,,,,,,,,,,,,,,,,,,,,,,,,,,,,,,,,,,,,,,,,,,,,,,,,,,,,,,,,,,,,,,,,,,,,,,,,,,,,,,,,,,,,,
,,,,,,4,0,4,0,1,X V Q F H G B L J M P D K C T S W R N Z,5e383a78d03ec6000bb04919,22,Kobieta,2022-06-11_09h14.28.638,task,2021.1.4,Win32,59.89099838,6299f149e92ead563fba08ef,62a440c31be75f39da88f0d3,,,,,,,,,,,,,,,,,,,,,,,,,,,,,,,,,,,,,,,,,,,,,,,,,,,,,,,,,,,,,,,,,,,,,,,,,,,,,,,,,,,,,,,,,,,,,,,,,,,,,
,,,,,,5,0,5,0,1,X V Q F H G B L J M P D K C T S W R N Z,5e383a78d03ec6000bb04919,22,Kobieta,2022-06-11_09h14.28.638,task,2021.1.4,Win32,59.89099838,6299f149e92ead563fba08ef,62a440c31be75f39da88f0d3,,,,,,,,,,,,,,,,,,,,,,,,,,,,,,,,,,,,,,,,,,,,,,,,,,,,,,,,,,,,,,,,,,,,,,,,,,,,,,,,,,,,,,,,,,,,,,,,,,,,,
,,,,,,6,0,6,0,1,X V Q F H G B L J M P D K C T S W R N Z,5e383a78d03ec6000bb04919,22,Kobieta,2022-06-11_09h14.28.638,task,2021.1.4,Win32,59.89099838,6299f149e92ead563fba08ef,62a440c31be75f39da88f0d3,,,,,,,,,,,,,,,,,,,,,,,,,,,,,,,,,,,,,,,,,,,,,,,,,,,,,,,,,,,,,,,,,,,,,,,,,,,,,,,,,,,,,,,,,,,,,,,,,,,,,
,,,,,,7,0,7,0,1,X V Q F H G B L J M P D K C T S W R N Z,5e383a78d03ec6000bb04919,22,Kobieta,2022-06-11_09h14.28.638,task,2021.1.4,Win32,59.89099838,6299f149e92ead563fba08ef,62a440c31be75f39da88f0d3,,,,,,,,,,,,,,,,,,,,,,,,,,,,,,,,,,,,,,,,,,,,,,,,,,,,,,,,,,,,,,,,,,,,,,,,,,,,,,,,,,,,,,,,,,,,,,,,,,,,,
,,,,,,,,,,,,5e383a78d03ec6000bb04919,22,Kobieta,2022-06-11_09h14.28.638,task,2021.1.4,Win32,59.89099838,6299f149e92ead563fba08ef,62a440c31be75f39da88f0d3,fxdtcjvc,"[""f"",""x"",""d"",""t"",""c"",""j"",""v"",""c""]","[1.0516000000238535,1.6513000000715294,3.8899000000953663,4.39110000002384,4.8358000000715435,5.285600000023834,5.851900000095355,6.236300000071509,6.550200000047681]",1,FXDTCJVC,15,0,15,0,1,,,,,,,,,,,,,,,,,,,,,,,,,,,,,,,,,,,,,,,,,,,,,,,,,,,,,,,,,,,,,,,,,,,,,,,,,,,,,,,,,,,,,,,,,,,
,,,,,,0,0,0,0,1,X V Q F H G B L J M P D K C T S W R N Z,5e383a78d03ec6000bb04919,22,Kobieta,2022-06-11_09h14.28.638,task,2021.1.4,Win32,59.89099838,6299f149e92ead563fba08ef,62a440c31be75f39da88f0d3,,,,,,,,,,,,,,,,,,,,,,,,,,,,,,,,,,,,,,,,,,,,,,,,,,,,,,,,,,,,,,,,,,,,,,,,,,,,,,,,,,,,,,,,,,,,,,,,,,,,,
,,,,,,1,0,1,0,1,X V Q F H G B L J M P D K C T S W R N Z,5e383a78d03ec6000bb04919,22,Kobieta,2022-06-11_09h14.28.638,task,2021.1.4,Win32,59.89099838,6299f149e92ead563fba08ef,62a440c31be75f39da88f0d3,,,,,,,,,,,,,,,,,,,,,,,,,,,,,,,,,,,,,,,,,,,,,,,,,,,,,,,,,,,,,,,,,,,,,,,,,,,,,,,,,,,,,,,,,,,,,,,,,,,,,
,,,,,,2,0,2,0,1,X V Q F H G B L J M P D K C T S W R N Z,5e383a78d03ec6000bb04919,22,Kobieta,2022-06-11_09h14.28.638,task,2021.1.4,Win32,59.89099838,6299f149e92ead563fba08ef,62a440c31be75f39da88f0d3,,,,,,,,,,,,,,,,,,,,,,,,,,,,,,,,,,,,,,,,,,,,,,,,,,,,,,,,,,,,,,,,,,,,,,,,,,,,,,,,,,,,,,,,,,,,,,,,,,,,,
,,,,,,3,0,3,0,1,X V Q F H G B L J M P D K C T S W R N Z,5e383a78d03ec6000bb04919,22,Kobieta,2022-06-11_09h14.28.638,task,2021.1.4,Win32,59.89099838,6299f149e92ead563fba08ef,62a440c31be75f39da88f0d3,,,,,,,,,,,,,,,,,,,,,,,,,,,,,,,,,,,,,,,,,,,,,,,,,,,,,,,,,,,,,,,,,,,,,,,,,,,,,,,,,,,,,,,,,,,,,,,,,,,,,
,,,,,,4,0,4,0,1,X V Q F H G B L J M P D K C T S W R N Z,5e383a78d03ec6000bb04919,22,Kobieta,2022-06-11_09h14.28.638,task,2021.1.4,Win32,59.89099838,6299f149e92ead563fba08ef,62a440c31be75f39da88f0d3,,,,,,,,,,,,,,,,,,,,,,,,,,,,,,,,,,,,,,,,,,,,,,,,,,,,,,,,,,,,,,,,,,,,,,,,,,,,,,,,,,,,,,,,,,,,,,,,,,,,,
,,,,,,5,0,5,0,1,X V Q F H G B L J M P D K C T S W R N Z,5e383a78d03ec6000bb04919,22,Kobieta,2022-06-11_09h14.28.638,task,2021.1.4,Win32,59.89099838,6299f149e92ead563fba08ef,62a440c31be75f39da88f0d3,,,,,,,,,,,,,,,,,,,,,,,,,,,,,,,,,,,,,,,,,,,,,,,,,,,,,,,,,,,,,,,,,,,,,,,,,,,,,,,,,,,,,,,,,,,,,,,,,,,,,
,,,,,,6,0,6,0,1,X V Q F H G B L J M P D K C T S W R N Z,5e383a78d03ec6000bb04919,22,Kobieta,2022-06-11_09h14.28.638,task,2021.1.4,Win32,59.89099838,6299f149e92ead563fba08ef,62a440c31be75f39da88f0d3,,,,,,,,,,,,,,,,,,,,,,,,,,,,,,,,,,,,,,,,,,,,,,,,,,,,,,,,,,,,,,,,,,,,,,,,,,,,,,,,,,,,,,,,,,,,,,,,,,,,,
,,,,,,7,0,7,0,1,X V Q F H G B L J M P D K C T S W R N Z,5e383a78d03ec6000bb04919,22,Kobieta,2022-06-11_09h14.28.638,task,2021.1.4,Win32,59.89099838,6299f149e92ead563fba08ef,62a440c31be75f39da88f0d3,,,,,,,,,,,,,,,,,,,,,,,,,,,,,,,,,,,,,,,,,,,,,,,,,,,,,,,,,,,,,,,,,,,,,,,,,,,,,,,,,,,,,,,,,,,,,,,,,,,,,
,,,,,,,,,,,,5e383a78d03ec6000bb04919,22,Kobieta,2022-06-11_09h14.28.638,task,2021.1.4,Win32,59.89099838,6299f149e92ead563fba08ef,62a440c31be75f39da88f0d3,hdblrjrw,"[""h"",""d"",""b"",""l"",""r"",""j"",""r"",""w""]","[1.4345999999046057,1.6902999999522876,2.4909999999999854,2.951999999999998,3.451399999976161,3.8021999999284617,4.402199999928484,4.835599999904616,5.234699999928466]",1,HDBLRJRW,16,0,16,0,1,,,,,,,,,,,,,,,,,,,,,,,,,,,,,,,,,,,,,,,,,,,,,,,,,,,,,,,,,,,,,,,,,,,,,,,,,,,,,,,,,,,,,,,,,,,
,,,,,,0,0,0,0,1,X V Q F H G B L J M P D K C T S W R N Z,5e383a78d03ec6000bb04919,22,Kobieta,2022-06-11_09h14.28.638,task,2021.1.4,Win32,59.89099838,6299f149e92ead563fba08ef,62a440c31be75f39da88f0d3,,,,,,,,,,,,,,,,,,,,,,,,,,,,,,,,,,,,,,,,,,,,,,,,,,,,,,,,,,,,,,,,,,,,,,,,,,,,,,,,,,,,,,,,,,,,,,,,,,,,,
,,,,,,1,0,1,0,1,X V Q F H G B L J M P D K C T S W R N Z,5e383a78d03ec6000bb04919,22,Kobieta,2022-06-11_09h14.28.638,task,2021.1.4,Win32,59.89099838,6299f149e92ead563fba08ef,62a440c31be75f39da88f0d3,,,,,,,,,,,,,,,,,,,,,,,,,,,,,,,,,,,,,,,,,,,,,,,,,,,,,,,,,,,,,,,,,,,,,,,,,,,,,,,,,,,,,,,,,,,,,,,,,,,,,
,,,,,,2,0,2,0,1,X V Q F H G B L J M P D K C T S W R N Z,5e383a78d03ec6000bb04919,22,Kobieta,2022-06-11_09h14.28.638,task,2021.1.4,Win32,59.89099838,6299f149e92ead563fba08ef,62a440c31be75f39da88f0d3,,,,,,,,,,,,,,,,,,,,,,,,,,,,,,,,,,,,,,,,,,,,,,,,,,,,,,,,,,,,,,,,,,,,,,,,,,,,,,,,,,,,,,,,,,,,,,,,,,,,,
,,,,,,3,0,3,0,1,X V Q F H G B L J M P D K C T S W R N Z,5e383a78d03ec6000bb04919,22,Kobieta,2022-06-11_09h14.28.638,task,2021.1.4,Win32,59.89099838,6299f149e92ead563fba08ef,62a440c31be75f39da88f0d3,,,,,,,,,,,,,,,,,,,,,,,,,,,,,,,,,,,,,,,,,,,,,,,,,,,,,,,,,,,,,,,,,,,,,,,,,,,,,,,,,,,,,,,,,,,,,,,,,,,,,
,,,,,,4,0,4,0,1,X V Q F H G B L J M P D K C T S W R N Z,5e383a78d03ec6000bb04919,22,Kobieta,2022-06-11_09h14.28.638,task,2021.1.4,Win32,59.89099838,6299f149e92ead563fba08ef,62a440c31be75f39da88f0d3,,,,,,,,,,,,,,,,,,,,,,,,,,,,,,,,,,,,,,,,,,,,,,,,,,,,,,,,,,,,,,,,,,,,,,,,,,,,,,,,,,,,,,,,,,,,,,,,,,,,,
,,,,,,5,0,5,0,1,X V Q F H G B L J M P D K C T S W R N Z,5e383a78d03ec6000bb04919,22,Kobieta,2022-06-11_09h14.28.638,task,2021.1.4,Win32,59.89099838,6299f149e92ead563fba08ef,62a440c31be75f39da88f0d3,,,,,,,,,,,,,,,,,,,,,,,,,,,,,,,,,,,,,,,,,,,,,,,,,,,,,,,,,,,,,,,,,,,,,,,,,,,,,,,,,,,,,,,,,,,,,,,,,,,,,
,,,,,,6,0,6,0,1,X V Q F H G B L J M P D K C T S W R N Z,5e383a78d03ec6000bb04919,22,Kobieta,2022-06-11_09h14.28.638,task,2021.1.4,Win32,59.89099838,6299f149e92ead563fba08ef,62a440c31be75f39da88f0d3,,,,,,,,,,,,,,,,,,,,,,,,,,,,,,,,,,,,,,,,,,,,,,,,,,,,,,,,,,,,,,,,,,,,,,,,,,,,,,,,,,,,,,,,,,,,,,,,,,,,,
,,,,,,7,0,7,0,1,X V Q F H G B L J M P D K C T S W R N Z,5e383a78d03ec6000bb04919,22,Kobieta,2022-06-11_09h14.28.638,task,2021.1.4,Win32,59.89099838,6299f149e92ead563fba08ef,62a440c31be75f39da88f0d3,,,,,,,,,,,,,,,,,,,,,,,,,,,,,,,,,,,,,,,,,,,,,,,,,,,,,,,,,,,,,,,,,,,,,,,,,,,,,,,,,,,,,,,,,,,,,,,,,,,,,
,,,,,,8,0,8,0,1,X V Q F H G B L J M P D K C T S W R N Z,5e383a78d03ec6000bb04919,22,Kobieta,2022-06-11_09h14.28.638,task,2021.1.4,Win32,59.89099838,6299f149e92ead563fba08ef,62a440c31be75f39da88f0d3,,,,,,,,,,,,,,,,,,,,,,,,,,,,,,,,,,,,,,,,,,,,,,,,,,,,,,,,,,,,,,,,,,,,,,,,,,,,,,,,,,,,,,,,,,,,,,,,,,,,,
,,,,,,,,,,,,5e383a78d03ec6000bb04919,22,Kobieta,2022-06-11_09h14.28.638,task,2021.1.4,Win32,59.89099838,6299f149e92ead563fba08ef,62a440c31be75f39da88f0d3,zqfhgrfq,"[""z"",""q"",""f"",""h"",""g"",""r"",""f"",""q""]","[0.5323999999761782,0.9246000000238723,2.809500000000014,3.2257999999523577,3.500500000000045,3.867200000047717,5.150600000023871,5.883399999976177,6.115899999976193]",0,ZQHLQKRHP,17,0,17,0,1,,,,,,,,,,,,,,,,,,,,,,,,,,,,,,,,,,,,,,,,,,,,,,,,,,,,,,,,,,,,,,,,,,,,,,,,,,,,,,,,,,,,,,,,,,,
,,,,,,0,0,0,0,1,X V Q F H G B L J M P D K C T S W R N Z,5e383a78d03ec6000bb04919,22,Kobieta,2022-06-11_09h14.28.638,task,2021.1.4,Win32,59.89099838,6299f149e92ead563fba08ef,62a440c31be75f39da88f0d3,,,,,,,,,,,,,,,,,,,,,,,,,,,,,,,,,,,,,,,,,,,,,,,,,,,,,,,,,,,,,,,,,,,,,,,,,,,,,,,,,,,,,,,,,,,,,,,,,,,,,
,,,,,,1,0,1,0,1,X V Q F H G B L J M P D K C T S W R N Z,5e383a78d03ec6000bb04919,22,Kobieta,2022-06-11_09h14.28.638,task,2021.1.4,Win32,59.89099838,6299f149e92ead563fba08ef,62a440c31be75f39da88f0d3,,,,,,,,,,,,,,,,,,,,,,,,,,,,,,,,,,,,,,,,,,,,,,,,,,,,,,,,,,,,,,,,,,,,,,,,,,,,,,,,,,,,,,,,,,,,,,,,,,,,,
,,,,,,2,0,2,0,1,X V Q F H G B L J M P D K C T S W R N Z,5e383a78d03ec6000bb04919,22,Kobieta,2022-06-11_09h14.28.638,task,2021.1.4,Win32,59.89099838,6299f149e92ead563fba08ef,62a440c31be75f39da88f0d3,,,,,,,,,,,,,,,,,,,,,,,,,,,,,,,,,,,,,,,,,,,,,,,,,,,,,,,,,,,,,,,,,,,,,,,,,,,,,,,,,,,,,,,,,,,,,,,,,,,,,
,,,,,,3,0,3,0,1,X V Q F H G B L J M P D K C T S W R N Z,5e383a78d03ec6000bb04919,22,Kobieta,2022-06-11_09h14.28.638,task,2021.1.4,Win32,59.89099838,6299f149e92ead563fba08ef,62a440c31be75f39da88f0d3,,,,,,,,,,,,,,,,,,,,,,,,,,,,,,,,,,,,,,,,,,,,,,,,,,,,,,,,,,,,,,,,,,,,,,,,,,,,,,,,,,,,,,,,,,,,,,,,,,,,,
,,,,,,4,0,4,0,1,X V Q F H G B L J M P D K C T S W R N Z,5e383a78d03ec6000bb04919,22,Kobieta,2022-06-11_09h14.28.638,task,2021.1.4,Win32,59.89099838,6299f149e92ead563fba08ef,62a440c31be75f39da88f0d3,,,,,,,,,,,,,,,,,,,,,,,,,,,,,,,,,,,,,,,,,,,,,,,,,,,,,,,,,,,,,,,,,,,,,,,,,,,,,,,,,,,,,,,,,,,,,,,,,,,,,
,,,,,,5,0,5,0,1,X V Q F H G B L J M P D K C T S W R N Z,5e383a78d03ec6000bb04919,22,Kobieta,2022-06-11_09h14.28.638,task,2021.1.4,Win32,59.89099838,6299f149e92ead563fba08ef,62a440c31be75f39da88f0d3,,,,,,,,,,,,,,,,,,,,,,,,,,,,,,,,,,,,,,,,,,,,,,,,,,,,,,,,,,,,,,,,,,,,,,,,,,,,,,,,,,,,,,,,,,,,,,,,,,,,,
,,,,,,6,0,6,0,1,X V Q F H G B L J M P D K C T S W R N Z,5e383a78d03ec6000bb04919,22,Kobieta,2022-06-11_09h14.28.638,task,2021.1.4,Win32,59.89099838,6299f149e92ead563fba08ef,62a440c31be75f39da88f0d3,,,,,,,,,,,,,,,,,,,,,,,,,,,,,,,,,,,,,,,,,,,,,,,,,,,,,,,,,,,,,,,,,,,,,,,,,,,,,,,,,,,,,,,,,,,,,,,,,,,,,
,,,,,,7,0,7,0,1,X V Q F H G B L J M P D K C T S W R N Z,5e383a78d03ec6000bb04919,22,Kobieta,2022-06-11_09h14.28.638,task,2021.1.4,Win32,59.89099838,6299f149e92ead563fba08ef,62a440c31be75f39da88f0d3,,,,,,,,,,,,,,,,,,,,,,,,,,,,,,,,,,,,,,,,,,,,,,,,,,,,,,,,,,,,,,,,,,,,,,,,,,,,,,,,,,,,,,,,,,,,,,,,,,,,,
,,,,,,8,0,8,0,1,X V Q F H G B L J M P D K C T S W R N Z,5e383a78d03ec6000bb04919,22,Kobieta,2022-06-11_09h14.28.638,task,2021.1.4,Win32,59.89099838,6299f149e92ead563fba08ef,62a440c31be75f39da88f0d3,,,,,,,,,,,,,,,,,,,,,,,,,,,,,,,,,,,,,,,,,,,,,,,,,,,,,,,,,,,,,,,,,,,,,,,,,,,,,,,,,,,,,,,,,,,,,,,,,,,,,
,,,,,,,,,,,,5e383a78d03ec6000bb04919,22,Kobieta,2022-06-11_09h14.28.638,task,2021.1.4,Win32,59.89099838,6299f149e92ead563fba08ef,62a440c31be75f39da88f0d3,kltlfzjjj,"[""k"",""l"",""t"",""l"",""f"",""z"",""j"",""j"",""j""]","[1.1628999999761618,1.385899999976175,2.5628000000715474,3.9283999999761363,4.561600000023873,5.061600000023873,5.686100000023828,5.878700000047672,6.196300000071517,6.595700000047714]",1,KLTLFZJJJ,18,0,18,0,1,,,,,,,,,,,,,,,,,,,,,,,,,,,,,,,,,,,,,,,,,,,,,,,,,,,,,,,,,,,,,,,,,,,,,,,,,,,,,,,,,,,,,,,,,,,
,,,,,,0,0,0,0,1,X V Q F H G B L J M P D K C T S W R N Z,5e383a78d03ec6000bb04919,22,Kobieta,2022-06-11_09h14.28.638,task,2021.1.4,Win32,59.89099838,6299f149e92ead563fba08ef,62a440c31be75f39da88f0d3,,,,,,,,,,,,,,,,,,,,,,,,,,,,,,,,,,,,,,,,,,,,,,,,,,,,,,,,,,,,,,,,,,,,,,,,,,,,,,,,,,,,,,,,,,,,,,,,,,,,,
,,,,,,1,0,1,0,1,X V Q F H G B L J M P D K C T S W R N Z,5e383a78d03ec6000bb04919,22,Kobieta,2022-06-11_09h14.28.638,task,2021.1.4,Win32,59.89099838,6299f149e92ead563fba08ef,62a440c31be75f39da88f0d3,,,,,,,,,,,,,,,,,,,,,,,,,,,,,,,,,,,,,,,,,,,,,,,,,,,,,,,,,,,,,,,,,,,,,,,,,,,,,,,,,,,,,,,,,,,,,,,,,,,,,
,,,,,,2,0,2,0,1,X V Q F H G B L J M P D K C T S W R N Z,5e383a78d03ec6000bb04919,22,Kobieta,2022-06-11_09h14.28.638,task,2021.1.4,Win32,59.89099838,6299f149e92ead563fba08ef,62a440c31be75f39da88f0d3,,,,,,,,,,,,,,,,,,,,,,,,,,,,,,,,,,,,,,,,,,,,,,,,,,,,,,,,,,,,,,,,,,,,,,,,,,,,,,,,,,,,,,,,,,,,,,,,,,,,,
,,,,,,3,0,3,0,1,X V Q F H G B L J M P D K C T S W R N Z,5e383a78d03ec6000bb04919,22,Kobieta,2022-06-11_09h14.28.638,task,2021.1.4,Win32,59.89099838,6299f149e92ead563fba08ef,62a440c31be75f39da88f0d3,,,,,,,,,,,,,,,,,,,,,,,,,,,,,,,,,,,,,,,,,,,,,,,,,,,,,,,,,,,,,,,,,,,,,,,,,,,,,,,,,,,,,,,,,,,,,,,,,,,,,
,,,,,,4,0,4,0,1,X V Q F H G B L J M P D K C T S W R N Z,5e383a78d03ec6000bb04919,22,Kobieta,2022-06-11_09h14.28.638,task,2021.1.4,Win32,59.89099838,6299f149e92ead563fba08ef,62a440c31be75f39da88f0d3,,,,,,,,,,,,,,,,,,,,,,,,,,,,,,,,,,,,,,,,,,,,,,,,,,,,,,,,,,,,,,,,,,,,,,,,,,,,,,,,,,,,,,,,,,,,,,,,,,,,,
,,,,,,5,0,5,0,1,X V Q F H G B L J M P D K C T S W R N Z,5e383a78d03ec6000bb04919,22,Kobieta,2022-06-11_09h14.28.638,task,2021.1.4,Win32,59.89099838,6299f149e92ead563fba08ef,62a440c31be75f39da88f0d3,,,,,,,,,,,,,,,,,,,,,,,,,,,,,,,,,,,,,,,,,,,,,,,,,,,,,,,,,,,,,,,,,,,,,,,,,,,,,,,,,,,,,,,,,,,,,,,,,,,,,
,,,,,,6,0,6,0,1,X V Q F H G B L J M P D K C T S W R N Z,5e383a78d03ec6000bb04919,22,Kobieta,2022-06-11_09h14.28.638,task,2021.1.4,Win32,59.89099838,6299f149e92ead563fba08ef,62a440c31be75f39da88f0d3,,,,,,,,,,,,,,,,,,,,,,,,,,,,,,,,,,,,,,,,,,,,,,,,,,,,,,,,,,,,,,,,,,,,,,,,,,,,,,,,,,,,,,,,,,,,,,,,,,,,,
,,,,,,7,0,7,0,1,X V Q F H G B L J M P D K C T S W R N Z,5e383a78d03ec6000bb04919,22,Kobieta,2022-06-11_09h14.28.638,task,2021.1.4,Win32,59.89099838,6299f149e92ead563fba08ef,62a440c31be75f39da88f0d3,,,,,,,,,,,,,,,,,,,,,,,,,,,,,,,,,,,,,,,,,,,,,,,,,,,,,,,,,,,,,,,,,,,,,,,,,,,,,,,,,,,,,,,,,,,,,,,,,,,,,
,,,,,,8,0,8,0,1,X V Q F H G B L J M P D K C T S W R N Z,5e383a78d03ec6000bb04919,22,Kobieta,2022-06-11_09h14.28.638,task,2021.1.4,Win32,59.89099838,6299f149e92ead563fba08ef,62a440c31be75f39da88f0d3,,,,,,,,,,,,,,,,,,,,,,,,,,,,,,,,,,,,,,,,,,,,,,,,,,,,,,,,,,,,,,,,,,,,,,,,,,,,,,,,,,,,,,,,,,,,,,,,,,,,,
,,,,,,,,,,,,5e383a78d03ec6000bb04919,22,Kobieta,2022-06-11_09h14.28.638,task,2021.1.4,Win32,59.89099838,6299f149e92ead563fba08ef,62a440c31be75f39da88f0d3,zvtlpzjg,"[""z"",""v"",""t"",""l"",""p"",""z"",""j"",""g""]","[0.5781000000238805,1.02800000000002,2.0928999999761686,2.595299999952317,3.379000000000019,3.976399999976195,4.427799999952356,5.072000000000003,5.266500000000008]",0,ZVTDGMPJZ,19,0,19,0,1,,,,,,,,,,,,,,,,,,,,,,,,,,,,,,,,,,,,,,,,,,,,,,,,,,,,,,,,,,,,,,,,,,,,,,,,,,,,,,,,,,,,,,,,,,,
,,,,,,0,0,0,0,1,X V Q F H G B L J M P D K C T S W R N Z,5e383a78d03ec6000bb04919,22,Kobieta,2022-06-11_09h14.28.638,task,2021.1.4,Win32,59.89099838,6299f149e92ead563fba08ef,62a440c31be75f39da88f0d3,,,,,,,,,,,,,,,,,,,,,,,,,,,,,,,,,,,,,,,,,,,,,,,,,,,,,,,,,,,,,,,,,,,,,,,,,,,,,,,,,,,,,,,,,,,,,,,,,,,,,
,,,,,,1,0,1,0,1,X V Q F H G B L J M P D K C T S W R N Z,5e383a78d03ec6000bb04919,22,Kobieta,2022-06-11_09h14.28.638,task,2021.1.4,Win32,59.89099838,6299f149e92ead563fba08ef,62a440c31be75f39da88f0d3,,,,,,,,,,,,,,,,,,,,,,,,,,,,,,,,,,,,,,,,,,,,,,,,,,,,,,,,,,,,,,,,,,,,,,,,,,,,,,,,,,,,,,,,,,,,,,,,,,,,,
,,,,,,2,0,2,0,1,X V Q F H G B L J M P D K C T S W R N Z,5e383a78d03ec6000bb04919,22,Kobieta,2022-06-11_09h14.28.638,task,2021.1.4,Win32,59.89099838,6299f149e92ead563fba08ef,62a440c31be75f39da88f0d3,,,,,,,,,,,,,,,,,,,,,,,,,,,,,,,,,,,,,,,,,,,,,,,,,,,,,,,,,,,,,,,,,,,,,,,,,,,,,,,,,,,,,,,,,,,,,,,,,,,,,
,,,,,,3,0,3,0,1,X V Q F H G B L J M P D K C T S W R N Z,5e383a78d03ec6000bb04919,22,Kobieta,2022-06-11_09h14.28.638,task,2021.1.4,Win32,59.89099838,6299f149e92ead563fba08ef,62a440c31be75f39da88f0d3,,,,,,,,,,,,,,,,,,,,,,,,,,,,,,,,,,,,,,,,,,,,,,,,,,,,,,,,,,,,,,,,,,,,,,,,,,,,,,,,,,,,,,,,,,,,,,,,,,,,,
,,,,,,4,0,4,0,1,X V Q F H G B L J M P D K C T S W R N Z,5e383a78d03ec6000bb04919,22,Kobieta,2022-06-11_09h14.28.638,task,2021.1.4,Win32,59.89099838,6299f149e92ead563fba08ef,62a440c31be75f39da88f0d3,,,,,,,,,,,,,,,,,,,,,,,,,,,,,,,,,,,,,,,,,,,,,,,,,,,,,,,,,,,,,,,,,,,,,,,,,,,,,,,,,,,,,,,,,,,,,,,,,,,,,
,,,,,,5,0,5,0,1,X V Q F H G B L J M P D K C T S W R N Z,5e383a78d03ec6000bb04919,22,Kobieta,2022-06-11_09h14.28.638,task,2021.1.4,Win32,59.89099838,6299f149e92ead563fba08ef,62a440c31be75f39da88f0d3,,,,,,,,,,,,,,,,,,,,,,,,,,,,,,,,,,,,,,,,,,,,,,,,,,,,,,,,,,,,,,,,,,,,,,,,,,,,,,,,,,,,,,,,,,,,,,,,,,,,,
,,,,,,6,0,6,0,1,X V Q F H G B L J M P D K C T S W R N Z,5e383a78d03ec6000bb04919,22,Kobieta,2022-06-11_09h14.28.638,task,2021.1.4,Win32,59.89099838,6299f149e92ead563fba08ef,62a440c31be75f39da88f0d3,,,,,,,,,,,,,,,,,,,,,,,,,,,,,,,,,,,,,,,,,,,,,,,,,,,,,,,,,,,,,,,,,,,,,,,,,,,,,,,,,,,,,,,,,,,,,,,,,,,,,
,,,,,,7,0,7,0,1,X V Q F H G B L J M P D K C T S W R N Z,5e383a78d03ec6000bb04919,22,Kobieta,2022-06-11_09h14.28.638,task,2021.1.4,Win32,59.89099838,6299f149e92ead563fba08ef,62a440c31be75f39da88f0d3,,,,,,,,,,,,,,,,,,,,,,,,,,,,,,,,,,,,,,,,,,,,,,,,,,,,,,,,,,,,,,,,,,,,,,,,,,,,,,,,,,,,,,,,,,,,,,,,,,,,,
,,,,,,8,0,8,0,1,X V Q F H G B L J M P D K C T S W R N Z,5e383a78d03ec6000bb04919,22,Kobieta,2022-06-11_09h14.28.638,task,2021.1.4,Win32,59.89099838,6299f149e92ead563fba08ef,62a440c31be75f39da88f0d3,,,,,,,,,,,,,,,,,,,,,,,,,,,,,,,,,,,,,,,,,,,,,,,,,,,,,,,,,,,,,,,,,,,,,,,,,,,,,,,,,,,,,,,,,,,,,,,,,,,,,
,,,,,,,,,,,,5e383a78d03ec6000bb04919,22,Kobieta,2022-06-11_09h14.28.638,task,2021.1.4,Win32,59.89099838,6299f149e92ead563fba08ef,62a440c31be75f39da88f0d3,tnsbdmxwj,"[""t"",""n"",""s"",""b"",""d"",""m"",""x"",""w"",""j""]","[1.010899999976175,1.2458000000715401,2.2786000000238573,2.6618999999761854,3.128200000047684,3.5948000000715297,5.0291000000238455,6.195800000071529,6.633500000000026,6.825200000047687]",0,TNSBDMXWZ,20,0,20,0,1,,,,,,,,,,,,,,,,,,,,,,,,,,,,,,,,,,,,,,,,,,,,,,,,,,,,,,,,,,,,,,,,,,,,,,,,,,,,,,,,,,,,,,,,,,,
,,,,,,,,,,,,5e383a78d03ec6000bb04919,22,Kobieta,2022-06-11_09h14.28.638,task,2021.1.4,Win32,59.89099838,6299f149e92ead563fba08ef,62a440c31be75f39da88f0d3,,,,,,,,,,,space,4.7179,5,"[""5""]",1,[5.499699999928453],[5.499699999928453],0,0,0,5,1,Practice,6,(4/2) + 3,5,,,,,,,,,,,,,,,,,,,,,,,,,,,,,,,,,,,,,,,,,,,,,,,,,,,,,,,,,,,,,,,,,,,,,,,,,,,
,,,,,,,,,,,,5e383a78d03ec6000bb04919,22,Kobieta,2022-06-11_09h14.28.638,task,2021.1.4,Win32,59.89099838,6299f149e92ead563fba08ef,62a440c31be75f39da88f0d3,,,,,,,,,,,,,0,"[""0""]",1,[2.2028999999761254],"[5.499699999928453,2.2028999999761254]",0,1,1,0,1,Practice,1,(3x3) -  9,0,,,,,,,,,,,,,,,,,,,,,,,,,,,,,,,,,,,,,,,,,,,,,,,,,,,,,,,,,,,,,,,,,,,,,,,,,,,
,,,,,,,,,,,,5e383a78d03ec6000bb04919,22,Kobieta,2022-06-11_09h14.28.638,task,2021.1.4,Win32,59.89099838,6299f149e92ead563fba08ef,62a440c31be75f39da88f0d3,,,,,,,,,,,,,1,"[""1""]",1,[1.9207000000477024],"[5.499699999928453,2.2028999999761254,1.9207000000477024]",0,2,2,1,1,Practice,2,(4x4) - 15,1,,,,,,,,,,,,,,,,,,,,,,,,,,,,,,,,,,,,,,,,,,,,,,,,,,,,,,,,,,,,,,,,,,,,,,,,,,,
,,,,,,,,,,,,5e383a78d03ec6000bb04919,22,Kobieta,2022-06-11_09h14.28.638,task,2021.1.4,Win32,59.89099838,6299f149e92ead563fba08ef,62a440c31be75f39da88f0d3,,,,,,,,,,,,,2,"[""2""]",1,[1.8852000000476892],"[5.499699999928453,2.2028999999761254,1.9207000000477024,1.8852000000476892]",0,3,3,2,1,Practice,3,(4x4) - 14,2,,,,,,,,,,,,,,,,,,,,,,,,,,,,,,,,,,,,,,,,,,,,,,,,,,,,,,,,,,,,,,,,,,,,,,,,,,,
,,,,,,,,,,,,5e383a78d03ec6000bb04919,22,Kobieta,2022-06-11_09h14.28.638,task,2021.1.4,Win32,59.89099838,6299f149e92ead563fba08ef,62a440c31be75f39da88f0d3,,,,,,,,,,,,,4,"[""4""]",1,[2.1012000000476974],"[5.499699999928453,2.2028999999761254,1.9207000000477024,1.8852000000476892,2.1012000000476974]",0,4,4,4,1,Practice,5,(2x6) - 8,4,,,,,,,,,,,,,,,,,,,,,,,,,,,,,,,,,,,,,,,,,,,,,,,,,,,,,,,,,,,,,,,,,,,,,,,,,,,
,,,,,,,,,,,,5e383a78d03ec6000bb04919,22,Kobieta,2022-06-11_09h14.28.638,task,2021.1.4,Win32,59.89099838,6299f149e92ead563fba08ef,62a440c31be75f39da88f0d3,,,,,,,,,,,,,9,"[""9""]",1,[2.285000000000025],"[5.499699999928453,2.2028999999761254,1.9207000000477024,1.8852000000476892,2.1012000000476974,2.285000000000025]",0,5,5,9,1,Practice,10,(20/2) - 1,9,,,,,,,,,,,,,,,,,,,,,,,,,,,,,,,,,,,,,,,,,,,,,,,,,,,,,,,,,,,,,,,,,,,,,,,,,,,
,,,,,,,,,,,,5e383a78d03ec6000bb04919,22,Kobieta,2022-06-11_09h14.28.638,task,2021.1.4,Win32,59.89099838,6299f149e92ead563fba08ef,62a440c31be75f39da88f0d3,,,,,,,,,,,,,8,"[""8""]",1,[1.950200000047687],"[5.499699999928453,2.2028999999761254,1.9207000000477024,1.8852000000476892,2.1012000000476974,2.285000000000025,1.950200000047687]",0,6,6,8,1,Practice,9,(3x3) - 1,8,,,,,,,,,,,,,,,,,,,,,,,,,,,,,,,,,,,,,,,,,,,,,,,,,,,,,,,,,,,,,,,,,,,,,,,,,,,
,,,,,,,,,,,,5e383a78d03ec6000bb04919,22,Kobieta,2022-06-11_09h14.28.638,task,2021.1.4,Win32,59.89099838,6299f149e92ead563fba08ef,62a440c31be75f39da88f0d3,,,,,,,,,,,,,6,"[""6""]",1,[1.934500000000014],"[5.499699999928453,2.2028999999761254,1.9207000000477024,1.8852000000476892,2.1012000000476974,2.285000000000025,1.950200000047687,1.934500000000014]",0,7,7,6,1,Practice,7,(25/5) + 1,6,,,,,,,,,,,,,,,,,,,,,,,,,,,,,,,,,,,,,,,,,,,,,,,,,,,,,,,,,,,,,,,,,,,,,,,,,,,
,,,,,,,,,,,,5e383a78d03ec6000bb04919,22,Kobieta,2022-06-11_09h14.28.638,task,2021.1.4,Win32,59.89099838,6299f149e92ead563fba08ef,62a440c31be75f39da88f0d3,,,,,,,,,,,,,3,"[""3""]",1,[1.9078999999761663],"[5.499699999928453,2.2028999999761254,1.9207000000477024,1.8852000000476892,2.1012000000476974,2.285000000000025,1.950200000047687,1.934500000000014,1.9078999999761663]",0,8,8,3,1,Practice,4,(8/4) + 1,3,,,,,,,,,,,,,,,,,,,,,,,,,,,,,,,,,,,,,,,,,,,,,,,,,,,,,,,,,,,,,,,,,,,,,,,,,,,
,,,,,,,,,,,,5e383a78d03ec6000bb04919,22,Kobieta,2022-06-11_09h14.28.638,task,2021.1.4,Win32,59.89099838,6299f149e92ead563fba08ef,62a440c31be75f39da88f0d3,,,,,,,,,,,,,7,"[""7""]",1,[3.2682000000477274],"[5.499699999928453,2.2028999999761254,1.9207000000477024,1.8852000000476892,2.1012000000476974,2.285000000000025,1.950200000047687,1.934500000000014,1.9078999999761663,3.2682000000477274]",0,9,9,7,1,Practice,8,(5x5) - 18,7,,,,,,,,,,,,,,,,,,,,,,,,,,,,,,,,,,,,,,,,,,,,,,,,,,,,,,,,,,,,,,,,,,,,,,,,,,,
,,,,,,,,,,,,5e383a78d03ec6000bb04919,22,Kobieta,2022-06-11_09h14.28.638,task,2021.1.4,Win32,59.89099838,6299f149e92ead563fba08ef,62a440c31be75f39da88f0d3,,,,,,,,,,,,,,,,,,,,,,,,,,,1,24.9555,1.6637,18.48763261,1.110184147,4.5279751,space,1.1369,0,0,0,0,1,,,,,,,,,,,,,,,,,,,,,,,,,,,,,,,,,,,,,,,,,,,,,,,,,,,,,,,,,,,,,,
,,,,,,,,,,,,5e383a78d03ec6000bb04919,22,Kobieta,2022-06-11_09h14.28.638,task,2021.1.4,Win32,59.89099838,6299f149e92ead563fba08ef,62a440c31be75f39da88f0d3,,,,,,,,,,,,,5,,,,,,,,,,Practice,6,(4/2) + 3,5,,,,,,,,,,,,,,space,19.5089,"[""5""]",1,[2.9803000000715656],1,0,0,0,5,1,,,,,,,,,,,,,,,,,,,,,,,,,,,,,,,,,,,,,,,,,,,,,,,,,,,
,,,,,,,,,,,X V Q F H G B L J M P D K C T S W R N Z,5e383a78d03ec6000bb04919,22,Kobieta,2022-06-11_09h14.28.638,task,2021.1.4,Win32,59.89099838,6299f149e92ead563fba08ef,62a440c31be75f39da88f0d3,,,,,,,,,,,,,,,,,,,,,,,,,,,,,,,,,,,,,,,,,,,,,,,,,,,0,0,0,0,1,,,,,,,,,,,,,,,,,,,,,,,,,,,,,,,,,,,,,,,,,,,,,,
,,,,,,,,,,,,5e383a78d03ec6000bb04919,22,Kobieta,2022-06-11_09h14.28.638,task,2021.1.4,Win32,59.89099838,6299f149e92ead563fba08ef,62a440c31be75f39da88f0d3,,,,,,,,,,,,,2,,,,,,,,,,Practice,3,(4x4) - 14,2,,,,,,,,,,,,,,,,"[""2""]",1,[2.6683999999761454],1,0,0,0,2,1,,,,,,,,,,,,,,,,,,,,,,,,,,,,,,,,,,,,,,,,,,,,,,,,,,,
,,,,,,,,,,,X V Q F H G B L J M P D K C T S W R N Z,5e383a78d03ec6000bb04919,22,Kobieta,2022-06-11_09h14.28.638,task,2021.1.4,Win32,59.89099838,6299f149e92ead563fba08ef,62a440c31be75f39da88f0d3,,,,,,,,,,,,,,,,,,,,,,,,,,,,,,,,,,,,,,,,,,,,,,,,,,,1,0,1,0,1,,,,,,,,,,,,,,,,,,,,,,,,,,,,,,,,,,,,,,,,,,,,,,
,,,,,,,,,,,,5e383a78d03ec6000bb04919,22,Kobieta,2022-06-11_09h14.28.638,task,2021.1.4,Win32,59.89099838,6299f149e92ead563fba08ef,62a440c31be75f39da88f0d3,,,,,,,,,,,,,,,,,,,,,,,,,,,,,,,,,,,,,,,,,,,,,,,,,,,,,,,,zn,"[""z"",""n""]",0,"[2.1857000000476887,2.652600000023824,3.0181000000238214]",1,0,0,0,0,1,,,,,,,,,,,,,,,,,,,,,,,,,,,,,,,,,,,,
,,,,,,,,,,,,5e383a78d03ec6000bb04919,22,Kobieta,2022-06-11_09h14.28.638,task,2021.1.4,Win32,59.89099838,6299f149e92ead563fba08ef,62a440c31be75f39da88f0d3,,,,,,,,,,,,,1,,,,,,,,,,Practice,2,(4x4) - 15,1,,,,,,,,,,,,,,,,"[""1""]",1,[1.4631000000238146],1,0,0,0,1,1,,,,,,,,,,,,,,,,,,,,,,,,,,,,,,,,,,,,,,,,,,,,,,,,,,,
,,,,,,,,,,,X V Q F H G B L J M P D K C T S W R N Z,5e383a78d03ec6000bb04919,22,Kobieta,2022-06-11_09h14.28.638,task,2021.1.4,Win32,59.89099838,6299f149e92ead563fba08ef,62a440c31be75f39da88f0d3,,,,,,,,,,,,,,,,,,,,,,,,,,,,,,,,,,,,,,,,,,,,,,,,,,,0,0,0,0,1,,,,,,,,,,,,,,,,,,,,,,,,,,,,,,,,,,,,,,,,,,,,,,
,,,,,,,,,,,,5e383a78d03ec6000bb04919,22,Kobieta,2022-06-11_09h14.28.638,task,2021.1.4,Win32,59.89099838,6299f149e92ead563fba08ef,62a440c31be75f39da88f0d3,,,,,,,,,,,,,8,,,,,,,,,,Practice,9,(3x3) - 1,8,,,,,,,,,,,,,,,,"[""8""]",1,[1.6753999999761504],1,0,0,0,8,1,,,,,,,,,,,,,,,,,,,,,,,,,,,,,,,,,,,,,,,,,,,,,,,,,,,
,,,,,,,,,,,X V Q F H G B L J M P D K C T S W R N Z,5e383a78d03ec6000bb04919,22,Kobieta,2022-06-11_09h14.28.638,task,2021.1.4,Win32,59.89099838,6299f149e92ead563fba08ef,62a440c31be75f39da88f0d3,,,,,,,,,,,,,,,,,,,,,,,,,,,,,,,,,,,,,,,,,,,,,,,,,,,1,0,1,0,1,,,,,,,,,,,,,,,,,,,,,,,,,,,,,,,,,,,,,,,,,,,,,,
,,,,,,,,,,,,5e383a78d03ec6000bb04919,22,Kobieta,2022-06-11_09h14.28.638,task,2021.1.4,Win32,59.89099838,6299f149e92ead563fba08ef,62a440c31be75f39da88f0d3,,,,,,,,,,,,,,,,,,,,,,,,,,,,,,,,,,,,,,,,,,,,,,,,,,,,,,,,mq,"[""m"",""q""]",0,"[1.8035000000000423,2.236500000000035,2.5510000000000446]",1,1,0,1,0,1,,,,,,,,,,,,,,,,,,,,,,,,,,,,,,,,,,,,
,,,,,,,,,,,,5e383a78d03ec6000bb04919,22,Kobieta,2022-06-11_09h14.28.638,task,2021.1.4,Win32,59.89099838,6299f149e92ead563fba08ef,62a440c31be75f39da88f0d3,,,,,,,,,,,,,3,,,,,,,,,,Practice,4,(8/4) + 1,3,,,,,,,,,,,,,,,,"[""3""]",1,[2.1016000000238364],1,0,0,0,3,1,,,,,,,,,,,,,,,,,,,,,,,,,,,,,,,,,,,,,,,,,,,,,,,,,,,
,,,,,,,,,,,X V Q F H G B L J M P D K C T S W R N Z,5e383a78d03ec6000bb04919,22,Kobieta,2022-06-11_09h14.28.638,task,2021.1.4,Win32,59.89099838,6299f149e92ead563fba08ef,62a440c31be75f39da88f0d3,,,,,,,,,,,,,,,,,,,,,,,,,,,,,,,,,,,,,,,,,,,,,,,,,,,0,0,0,0,1,,,,,,,,,,,,,,,,,,,,,,,,,,,,,,,,,,,,,,,,,,,,,,
,,,,,,,,,,,,5e383a78d03ec6000bb04919,22,Kobieta,2022-06-11_09h14.28.638,task,2021.1.4,Win32,59.89099838,6299f149e92ead563fba08ef,62a440c31be75f39da88f0d3,,,,,,,,,,,,,4,,,,,,,,,,Practice,5,(2x6) - 8,4,,,,,,,,,,,,,,,,"[""4""]",1,[3.101799999952334],1,0,0,0,4,1,,,,,,,,,,,,,,,,,,,,,,,,,,,,,,,,,,,,,,,,,,,,,,,,,,,
,,,,,,,,,,,X V Q F H G B L J M P D K C T S W R N Z,5e383a78d03ec6000bb04919,22,Kobieta,2022-06-11_09h14.28.638,task,2021.1.4,Win32,59.89099838,6299f149e92ead563fba08ef,62a440c31be75f39da88f0d3,,,,,,,,,,,,,,,,,,,,,,,,,,,,,,,,,,,,,,,,,,,,,,,,,,,1,0,1,0,1,,,,,,,,,,,,,,,,,,,,,,,,,,,,,,,,,,,,,,,,,,,,,,
,,,,,,,,,,,,5e383a78d03ec6000bb04919,22,Kobieta,2022-06-11_09h14.28.638,task,2021.1.4,Win32,59.89099838,6299f149e92ead563fba08ef,62a440c31be75f39da88f0d3,,,,,,,,,,,,,,,,,,,,,,,,,,,,,,,,,,,,,,,,,,,,,,,,,,,,,,,,tn,"[""t"",""n""]",0,"[1.9191999999284235,2.0691999999284576,2.3519999999999754]",1,2,0,2,0,1,,,,,,,,,,,,,,,,,,,,,,,,,,,,,,,,,,,,
,,,,,,,,,,,,5e383a78d03ec6000bb04919,22,Kobieta,2022-06-11_09h14.28.638,task,2021.1.4,Win32,59.89099838,6299f149e92ead563fba08ef,62a440c31be75f39da88f0d3,,,,,,,,,,,,,8,,,,,,,,,,Task,32,(8/2) + 4,8,,,,,,,,,,,,,,,,,,,1,,,,,,,,,,,,,,,,,,,,,space,13.0225,"[""8""]",1,[2.242100000023811],0,0,0,31,1,,,,,,,,,,,,,,,,,,,,,,,,,,
,,,,,,,,,,,X V Q F H G B L J M P D K C T S W R N Z,5e383a78d03ec6000bb04919,22,Kobieta,2022-06-11_09h14.28.638,task,2021.1.4,Win32,59.89099838,6299f149e92ead563fba08ef,62a440c31be75f39da88f0d3,,,,,,,,,,,,,,,,,,,,,,,,,,,,,,,,,,,,,,,,,,,,,,,,,,,,,,,,,,,,,,,,,,,,,,,,,,,,0,0,0,0,1,,,,,,,,,,,,,,,,,,,,,
,,,,,,,,,,,,5e383a78d03ec6000bb04919,22,Kobieta,2022-06-11_09h14.28.638,task,2021.1.4,Win32,59.89099838,6299f149e92ead563fba08ef,62a440c31be75f39da88f0d3,,,,,,,,,,,,,6,,,,,,,,,,Task,13,(3x4) - 6,6,,,,,,,,,,,,,,,,,,,1,,,,,,,,,,,,,,,,,,,,,,,"[""6""]",1,[4.257600000023842],0,0,0,12,1,,,,,,,,,,,,,,,,,,,,,,,,,,
,,,,,,,,,,,X V Q F H G B L J M P D K C T S W R N Z,5e383a78d03ec6000bb04919,22,Kobieta,2022-06-11_09h14.28.638,task,2021.1.4,Win32,59.89099838,6299f149e92ead563fba08ef,62a440c31be75f39da88f0d3,,,,,,,,,,,,,,,,,,,,,,,,,,,,,,,,,,,,,,,,,,,,,,,,,,,,,,,,,,,,,,,,,,,,,,,,,,,,1,0,1,0,1,,,,,,,,,,,,,,,,,,,,,
,,,,,,,,,,,,5e383a78d03ec6000bb04919,22,Kobieta,2022-06-11_09h14.28.638,task,2021.1.4,Win32,59.89099838,6299f149e92ead563fba08ef,62a440c31be75f39da88f0d3,,,,,,,,,,,,,,,,,,,,,,,,,,,,,,,,,,,,,,,,,,,,,,,,,,,,,,,,,,,,,,,,,,,,,,,,,,,,,,,,,zx,"[""z"",""x""]",0,"[1.39910000002385,1.6486000000238619,1.9921000000238678]",1,ZX,0,0,0,0,1,,,,,,,,,,
,,,,,,,,,,,,5e383a78d03ec6000bb04919,22,Kobieta,2022-06-11_09h14.28.638,task,2021.1.4,Win32,59.89099838,6299f149e92ead563fba08ef,62a440c31be75f39da88f0d3,,,,,,,,,,,,,4,,,,,,,,,,Task,11,(18/3) - 2,4,,,,,,,,,,,,,,,,,,,1,,,,,,,,,,,,,,,,,,,,,,,"[""4""]",1,[2.247299999952304],0,0,0,10,1,,,,,,,,,,,,,,,,,,,,,,,,,,
,,,,,,,,,,,X V Q F H G B L J M P D K C T S W R N Z,5e383a78d03ec6000bb04919,22,Kobieta,2022-06-11_09h14.28.638,task,2021.1.4,Win32,59.89099838,6299f149e92ead563fba08ef,62a440c31be75f39da88f0d3,,,,,,,,,,,,,,,,,,,,,,,,,,,,,,,,,,,,,,,,,,,,,,,,,,,,,,,,,,,,,,,,,,,,,,,,,,,,0,0,0,0,1,,,,,,,,,,,,,,,,,,,,,
,,,,,,,,,,,,5e383a78d03ec6000bb04919,22,Kobieta,2022-06-11_09h14.28.638,task,2021.1.4,Win32,59.89099838,6299f149e92ead563fba08ef,62a440c31be75f39da88f0d3,,,,,,,,,,,,,,,,,,,,,,,Task,16,(3x8) - 15,9,,,,,,,,,,,,,,,,,,,0,,,,,,,,,,,,,,,,,,,,,,,,0,,0,0,0,15,1,,,,,,,,,,,,,,,,,,,,,,,,,,
,,,,,,,,,,,,5e383a78d03ec6000bb04919,22,Kobieta,2022-06-11_09h14.28.638,task,2021.1.4,Win32,59.89099838,6299f149e92ead563fba08ef,62a440c31be75f39da88f0d3,,,,,,,,,,,,,8,,,,,,,,,,Task,39,(5x3) - 7,8,,,,,,,,,,,,,,,,,,,1,,,,,,,,,,,,,,,,,,,,,,,"[""8""]",1,[2.8799999999999955],0,1,1,38,1,,,,,,,,,,,,,,,,,,,,,,,,,,
,,,,,,,,,,,X V Q F H G B L J M P D K C T S W R N Z,5e383a78d03ec6000bb04919,22,Kobieta,2022-06-11_09h14.28.638,task,2021.1.4,Win32,59.89099838,6299f149e92ead563fba08ef,62a440c31be75f39da88f0d3,,,,,,,,,,,,,,,,,,,,,,,,,,,,,,,,,,,,,,,,,,,,,,,,,,,,,,,,,,,,,,,,,,,,,,,,,,,,1,0,1,0,1,,,,,,,,,,,,,,,,,,,,,
,,,,,,,,,,,,5e383a78d03ec6000bb04919,22,Kobieta,2022-06-11_09h14.28.638,task,2021.1.4,Win32,59.89099838,6299f149e92ead563fba08ef,62a440c31be75f39da88f0d3,,,,,,,,,,,,,1,,,,,,,,,,Task,34,(9/3) - 2,1,,,,,,,,,,,,,,,,,,,1,,,,,,,,,,,,,,,,,,,,,,,"[""1""]",1,[3.477700000047662],0,0,0,33,1,,,,,,,,,,,,,,,,,,,,,,,,,,
,,,,,,,,,,,X V Q F H G B L J M P D K C T S W R N Z,5e383a78d03ec6000bb04919,22,Kobieta,2022-06-11_09h14.28.638,task,2021.1.4,Win32,59.89099838,6299f149e92ead563fba08ef,62a440c31be75f39da88f0d3,,,,,,,,,,,,,,,,,,,,,,,,,,,,,,,,,,,,,,,,,,,,,,,,,,,,,,,,,,,,,,,,,,,,,,,,,,,,2,0,2,0,1,,,,,,,,,,,,,,,,,,,,,
,,,,,,,,,,,,5e383a78d03ec6000bb04919,22,Kobieta,2022-06-11_09h14.28.638,task,2021.1.4,Win32,59.89099838,6299f149e92ead563fba08ef,62a440c31be75f39da88f0d3,,,,,,,,,,,,,,,,,,,,,,,,,,,,,,,,,,,,,,,,,,,,,,,,,,,,,,,,,,,,,,,,,,,,,,,,,,,,,,,,,zj,"[""z"",""j""]",0,"[1.7878999999761618,1.9507999999523236,2.237199999928521]",0,ZZJ,1,0,1,0,1,,,,,,,,,,
,,,,,,,,,,,,5e383a78d03ec6000bb04919,22,Kobieta,2022-06-11_09h14.28.638,task,2021.1.4,Win32,59.89099838,6299f149e92ead563fba08ef,62a440c31be75f39da88f0d3,,,,,,,,,,,,,1,,,,,,,,,,Task,18,(16/4) - 3,1,,,,,,,,,,,,,,,,,,,1,,,,,,,,,,,,,,,,,,,,,,,"[""1""]",1,[1.8065000000000282],0,0,0,17,1,,,,,,,,,,,,,,,,,,,,,,,,,,
,,,,,,,,,,,X V Q F H G B L J M P D K C T S W R N Z,5e383a78d03ec6000bb04919,22,Kobieta,2022-06-11_09h14.28.638,task,2021.1.4,Win32,59.89099838,6299f149e92ead563fba08ef,62a440c31be75f39da88f0d3,,,,,,,,,,,,,,,,,,,,,,,,,,,,,,,,,,,,,,,,,,,,,,,,,,,,,,,,,,,,,,,,,,,,,,,,,,,,0,0,0,0,1,,,,,,,,,,,,,,,,,,,,,
,,,,,,,,,,,,5e383a78d03ec6000bb04919,22,Kobieta,2022-06-11_09h14.28.638,task,2021.1.4,Win32,59.89099838,6299f149e92ead563fba08ef,62a440c31be75f39da88f0d3,,,,,,,,,,,,,2,,,,,,,,,,Task,10,(2x5) - 8,2,,,,,,,,,,,,,,,,,,,1,,,,,,,,,,,,,,,,,,,,,,,"[""2""]",1,[2.2690000000000055],0,0,0,9,1,,,,,,,,,,,,,,,,,,,,,,,,,,
,,,,,,,,,,,X V Q F H G B L J M P D K C T S W R N Z,5e383a78d03ec6000bb04919,22,Kobieta,2022-06-11_09h14.28.638,task,2021.1.4,Win32,59.89099838,6299f149e92ead563fba08ef,62a440c31be75f39da88f0d3,,,,,,,,,,,,,,,,,,,,,,,,,,,,,,,,,,,,,,,,,,,,,,,,,,,,,,,,,,,,,,,,,,,,,,,,,,,,1,0,1,0,1,,,,,,,,,,,,,,,,,,,,,
,,,,,,,,,,,,5e383a78d03ec6000bb04919,22,Kobieta,2022-06-11_09h14.28.638,task,2021.1.4,Win32,59.89099838,6299f149e92ead563fba08ef,62a440c31be75f39da88f0d3,,,,,,,,,,,,,6,,,,,,,,,,Task,29,(3x8) - 19 ,5,,,,,,,,,,,,,,,,,,,0,,,,,,,,,,,,,,,,,,,,,,,"[""6""]",0,[3.024600000023838],0,0,0,28,1,,,,,,,,,,,,,,,,,,,,,,,,,,
,,,,,,,,,,,,5e383a78d03ec6000bb04919,22,Kobieta,2022-06-11_09h14.28.638,task,2021.1.4,Win32,59.89099838,6299f149e92ead563fba08ef,62a440c31be75f39da88f0d3,,,,,,,,,,,,,0,,,,,,,,,,Task,17,(2x3) - 6,0,,,,,,,,,,,,,,,,,,,1,,,,,,,,,,,,,,,,,,,,,,,"[""0""]",1,[3.1061999999284353],0,1,1,16,1,,,,,,,,,,,,,,,,,,,,,,,,,,
,,,,,,,,,,,X V Q F H G B L J M P D K C T S W R N Z,5e383a78d03ec6000bb04919,22,Kobieta,2022-06-11_09h14.28.638,task,2021.1.4,Win32,59.89099838,6299f149e92ead563fba08ef,62a440c31be75f39da88f0d3,,,,,,,,,,,,,,,,,,,,,,,,,,,,,,,,,,,,,,,,,,,,,,,,,,,,,,,,,,,,,,,,,,,,,,,,,,,,2,0,2,0,1,,,,,,,,,,,,,,,,,,,,,
,,,,,,,,,,,,5e383a78d03ec6000bb04919,22,Kobieta,2022-06-11_09h14.28.638,task,2021.1.4,Win32,59.89099838,6299f149e92ead563fba08ef,62a440c31be75f39da88f0d3,,,,,,,,,,,,,,,,,,,,,,,,,,,,,,,,,,,,,,,,,,,,,,,,,,,,,,,,,,,,,,,,,,,,,,,,,,,,,,,,,knm,"[""k"",""n"",""m""]",0,"[1.2197000000477374,1.4524999999999864,1.6195000000000164,1.868100000023901]",1,KNM,2,0,2,0,1,,,,,,,,,,
,,,,,,,,,,,,5e383a78d03ec6000bb04919,22,Kobieta,2022-06-11_09h14.28.638,task,2021.1.4,Win32,59.89099838,6299f149e92ead563fba08ef,62a440c31be75f39da88f0d3,,,,,,,,,,,,,1,,,,,,,,,,Task,1,(12/6) - 1,1,,,,,,,,,,,,,,,,,,,1,,,,,,,,,,,,,,,,,,,,,,,"[""1""]",1,[2.19429999995225],0,0,0,0,1,,,,,,,,,,,,,,,,,,,,,,,,,,
,,,,,,,,,,,X V Q F H G B L J M P D K C T S W R N Z,5e383a78d03ec6000bb04919,22,Kobieta,2022-06-11_09h14.28.638,task,2021.1.4,Win32,59.89099838,6299f149e92ead563fba08ef,62a440c31be75f39da88f0d3,,,,,,,,,,,,,,,,,,,,,,,,,,,,,,,,,,,,,,,,,,,,,,,,,,,,,,,,,,,,,,,,,,,,,,,,,,,,0,0,0,0,1,,,,,,,,,,,,,,,,,,,,,
,,,,,,,,,,,,5e383a78d03ec6000bb04919,22,Kobieta,2022-06-11_09h14.28.638,task,2021.1.4,Win32,59.89099838,6299f149e92ead563fba08ef,62a440c31be75f39da88f0d3,,,,,,,,,,,,,4,,,,,,,,,,Task,4,(1x5) - 1,4,,,,,,,,,,,,,,,,,,,1,,,,,,,,,,,,,,,,,,,,,,,"[""4""]",1,[2.2307000000477046],0,0,0,3,1,,,,,,,,,,,,,,,,,,,,,,,,,,
,,,,,,,,,,,X V Q F H G B L J M P D K C T S W R N Z,5e383a78d03ec6000bb04919,22,Kobieta,2022-06-11_09h14.28.638,task,2021.1.4,Win32,59.89099838,6299f149e92ead563fba08ef,62a440c31be75f39da88f0d3,,,,,,,,,,,,,,,,,,,,,,,,,,,,,,,,,,,,,,,,,,,,,,,,,,,,,,,,,,,,,,,,,,,,,,,,,,,,1,0,1,0,1,,,,,,,,,,,,,,,,,,,,,
,,,,,,,,,,,,5e383a78d03ec6000bb04919,22,Kobieta,2022-06-11_09h14.28.638,task,2021.1.4,Win32,59.89099838,6299f149e92ead563fba08ef,62a440c31be75f39da88f0d3,,,,,,,,,,,,,5,,,,,,,,,,Task,22,(3x1) + 2,5,,,,,,,,,,,,,,,,,,,1,,,,,,,,,,,,,,,,,,,,,,,"[""5""]",1,[3.367800000071611],0,0,0,21,1,,,,,,,,,,,,,,,,,,,,,,,,,,
,,,,,,,,,,,X V Q F H G B L J M P D K C T S W R N Z,5e383a78d03ec6000bb04919,22,Kobieta,2022-06-11_09h14.28.638,task,2021.1.4,Win32,59.89099838,6299f149e92ead563fba08ef,62a440c31be75f39da88f0d3,,,,,,,,,,,,,,,,,,,,,,,,,,,,,,,,,,,,,,,,,,,,,,,,,,,,,,,,,,,,,,,,,,,,,,,,,,,,2,0,2,0,1,,,,,,,,,,,,,,,,,,,,,
,,,,,,,,,,,,5e383a78d03ec6000bb04919,22,Kobieta,2022-06-11_09h14.28.638,task,2021.1.4,Win32,59.89099838,6299f149e92ead563fba08ef,62a440c31be75f39da88f0d3,,,,,,,,,,,,,3,,,,,,,,,,Task,3,(2x3) - 3,3,,,,,,,,,,,,,,,,,,,1,,,,,,,,,,,,,,,,,,,,,,,"[""3""]",1,[2.7865000000000464],0,0,0,2,1,,,,,,,,,,,,,,,,,,,,,,,,,,
,,,,,,,,,,,X V Q F H G B L J M P D K C T S W R N Z,5e383a78d03ec6000bb04919,22,Kobieta,2022-06-11_09h14.28.638,task,2021.1.4,Win32,59.89099838,6299f149e92ead563fba08ef,62a440c31be75f39da88f0d3,,,,,,,,,,,,,,,,,,,,,,,,,,,,,,,,,,,,,,,,,,,,,,,,,,,,,,,,,,,,,,,,,,,,,,,,,,,,3,0,3,0,1,,,,,,,,,,,,,,,,,,,,,
,,,,,,,,,,,,5e383a78d03ec6000bb04919,22,Kobieta,2022-06-11_09h14.28.638,task,2021.1.4,Win32,59.89099838,6299f149e92ead563fba08ef,62a440c31be75f39da88f0d3,,,,,,,,,,,,,,,,,,,,,,,,,,,,,,,,,,,,,,,,,,,,,,,,,,,,,,,,,,,,,,,,,,,,,,,,,,,,,,,,,blzf,"[""b"",""l"",""z"",""f""]",0,"[2.2690000000000055,2.519400000095402,2.8590000000000373,3.2359000000953984,3.5526000000238582]",1,BLZF,3,0,3,0,1,,,,,,,,,,
,,,,,,,,,,,,5e383a78d03ec6000bb04919,22,Kobieta,2022-06-11_09h14.28.638,task,2021.1.4,Win32,59.89099838,6299f149e92ead563fba08ef,62a440c31be75f39da88f0d3,,,,,,,,,,,,,8,,,,,,,,,,Task,15,(3x7) - 13,8,,,,,,,,,,,,,,,,,,,1,,,,,,,,,,,,,,,,,,,,,,,"[""8""]",1,[3.5791999999285053],0,0,0,14,1,,,,,,,,,,,,,,,,,,,,,,,,,,
,,,,,,,,,,,X V Q F H G B L J M P D K C T S W R N Z,5e383a78d03ec6000bb04919,22,Kobieta,2022-06-11_09h14.28.638,task,2021.1.4,Win32,59.89099838,6299f149e92ead563fba08ef,62a440c31be75f39da88f0d3,,,,,,,,,,,,,,,,,,,,,,,,,,,,,,,,,,,,,,,,,,,,,,,,,,,,,,,,,,,,,,,,,,,,,,,,,,,,0,0,0,0,1,,,,,,,,,,,,,,,,,,,,,
,,,,,,,,,,,,5e383a78d03ec6000bb04919,22,Kobieta,2022-06-11_09h14.28.638,task,2021.1.4,Win32,59.89099838,6299f149e92ead563fba08ef,62a440c31be75f39da88f0d3,,,,,,,,,,,,,9,,,,,,,,,,Task,24,(2x2) + 5,9,,,,,,,,,,,,,,,,,,,1,,,,,,,,,,,,,,,,,,,,,,,"[""9""]",1,[1.8436000000237982],0,0,0,23,1,,,,,,,,,,,,,,,,,,,,,,,,,,
,,,,,,,,,,,X V Q F H G B L J M P D K C T S W R N Z,5e383a78d03ec6000bb04919,22,Kobieta,2022-06-11_09h14.28.638,task,2021.1.4,Win32,59.89099838,6299f149e92ead563fba08ef,62a440c31be75f39da88f0d3,,,,,,,,,,,,,,,,,,,,,,,,,,,,,,,,,,,,,,,,,,,,,,,,,,,,,,,,,,,,,,,,,,,,,,,,,,,,1,0,1,0,1,,,,,,,,,,,,,,,,,,,,,
,,,,,,,,,,,,5e383a78d03ec6000bb04919,22,Kobieta,2022-06-11_09h14.28.638,task,2021.1.4,Win32,59.89099838,6299f149e92ead563fba08ef,62a440c31be75f39da88f0d3,,,,,,,,,,,,,5,,,,,,,,,,Task,36,(8/4) + 3,5,,,,,,,,,,,,,,,,,,,1,,,,,,,,,,,,,,,,,,,,,,,"[""5""]",1,[1.8351000000238855],0,0,0,35,1,,,,,,,,,,,,,,,,,,,,,,,,,,
,,,,,,,,,,,X V Q F H G B L J M P D K C T S W R N Z,5e383a78d03ec6000bb04919,22,Kobieta,2022-06-11_09h14.28.638,task,2021.1.4,Win32,59.89099838,6299f149e92ead563fba08ef,62a440c31be75f39da88f0d3,,,,,,,,,,,,,,,,,,,,,,,,,,,,,,,,,,,,,,,,,,,,,,,,,,,,,,,,,,,,,,,,,,,,,,,,,,,,2,0,2,0,1,,,,,,,,,,,,,,,,,,,,,
,,,,,,,,,,,,5e383a78d03ec6000bb04919,22,Kobieta,2022-06-11_09h14.28.638,task,2021.1.4,Win32,59.89099838,6299f149e92ead563fba08ef,62a440c31be75f39da88f0d3,,,,,,,,,,,,,6,,,,,,,,,,Task,29,(3x8) - 19 ,5,,,,,,,,,,,,,,,,,,,0,,,,,,,,,,,,,,,,,,,,,,,"[""6""]",0,[2.12010000002374],0,0,0,28,1,,,,,,,,,,,,,,,,,,,,,,,,,,
,,,,,,,,,,,,5e383a78d03ec6000bb04919,22,Kobieta,2022-06-11_09h14.28.638,task,2021.1.4,Win32,59.89099838,6299f149e92ead563fba08ef,62a440c31be75f39da88f0d3,,,,,,,,,,,,,2,,,,,,,,,,Task,26,(2x9) - 16,2,,,,,,,,,,,,,,,,,,,1,,,,,,,,,,,,,,,,,,,,,,,"[""2""]",1,[2.669200000047681],0,1,1,25,1,,,,,,,,,,,,,,,,,,,,,,,,,,
,,,,,,,,,,,X V Q F H G B L J M P D K C T S W R N Z,5e383a78d03ec6000bb04919,22,Kobieta,2022-06-11_09h14.28.638,task,2021.1.4,Win32,59.89099838,6299f149e92ead563fba08ef,62a440c31be75f39da88f0d3,,,,,,,,,,,,,,,,,,,,,,,,,,,,,,,,,,,,,,,,,,,,,,,,,,,,,,,,,,,,,,,,,,,,,,,,,,,,3,0,3,0,1,,,,,,,,,,,,,,,,,,,,,
,,,,,,,,,,,,5e383a78d03ec6000bb04919,22,Kobieta,2022-06-11_09h14.28.638,task,2021.1.4,Win32,59.89099838,6299f149e92ead563fba08ef,62a440c31be75f39da88f0d3,,,,,,,,,,,,,2,,,,,,,,,,Task,19,(6/2) - 1,2,,,,,,,,,,,,,,,,,,,1,,,,,,,,,,,,,,,,,,,,,,,"[""2""]",1,[3.0253999999761163],0,0,0,18,1,,,,,,,,,,,,,,,,,,,,,,,,,,
,,,,,,,,,,,X V Q F H G B L J M P D K C T S W R N Z,5e383a78d03ec6000bb04919,22,Kobieta,2022-06-11_09h14.28.638,task,2021.1.4,Win32,59.89099838,6299f149e92ead563fba08ef,62a440c31be75f39da88f0d3,,,,,,,,,,,,,,,,,,,,,,,,,,,,,,,,,,,,,,,,,,,,,,,,,,,,,,,,,,,,,,,,,,,,,,,,,,,,4,0,4,0,1,,,,,,,,,,,,,,,,,,,,,
,,,,,,,,,,,,5e383a78d03ec6000bb04919,22,Kobieta,2022-06-11_09h14.28.638,task,2021.1.4,Win32,59.89099838,6299f149e92ead563fba08ef,62a440c31be75f39da88f0d3,,,,,,,,,,,,,,,,,,,,,,,,,,,,,,,,,,,,,,,,,,,,,,,,,,,,,,,,,,,,,,,,,,,,,,,,,,,,,,,,,sfxcm,"[""s"",""f"",""x"",""c"",""m""]",0,"[1.5425000000000182,1.9527000000476846,2.485500000000002,2.919700000047669,3.91670000004774,4.187899999976139]",1,SFXCM,4,0,4,0,1,,,,,,,,,,
,,,,,,,,,,,,5e383a78d03ec6000bb04919,22,Kobieta,2022-06-11_09h14.28.638,task,2021.1.4,Win32,59.89099838,6299f149e92ead563fba08ef,62a440c31be75f39da88f0d3,,,,,,,,,,,,,2,,,,,,,,,,Task,10,(2x5) - 8,2,,,,,,,,,,,,,,,,,,,1,,,,,,,,,,,,,,,,,,,,,,,"[""2""]",1,[1.6867000000476082],0,0,0,9,1,,,,,,,,,,,,,,,,,,,,,,,,,,
,,,,,,,,,,,X V Q F H G B L J M P D K C T S W R N Z,5e383a78d03ec6000bb04919,22,Kobieta,2022-06-11_09h14.28.638,task,2021.1.4,Win32,59.89099838,6299f149e92ead563fba08ef,62a440c31be75f39da88f0d3,,,,,,,,,,,,,,,,,,,,,,,,,,,,,,,,,,,,,,,,,,,,,,,,,,,,,,,,,,,,,,,,,,,,,,,,,,,,0,0,0,0,1,,,,,,,,,,,,,,,,,,,,,
,,,,,,,,,,,,5e383a78d03ec6000bb04919,22,Kobieta,2022-06-11_09h14.28.638,task,2021.1.4,Win32,59.89099838,6299f149e92ead563fba08ef,62a440c31be75f39da88f0d3,,,,,,,,,,,,,1,,,,,,,,,,Task,9,(3x7) - 20,1,,,,,,,,,,,,,,,,,,,1,,,,,,,,,,,,,,,,,,,,,,,"[""1""]",1,[1.715899999976159],0,0,0,8,1,,,,,,,,,,,,,,,,,,,,,,,,,,
,,,,,,,,,,,X V Q F H G B L J M P D K C T S W R N Z,5e383a78d03ec6000bb04919,22,Kobieta,2022-06-11_09h14.28.638,task,2021.1.4,Win32,59.89099838,6299f149e92ead563fba08ef,62a440c31be75f39da88f0d3,,,,,,,,,,,,,,,,,,,,,,,,,,,,,,,,,,,,,,,,,,,,,,,,,,,,,,,,,,,,,,,,,,,,,,,,,,,,1,0,1,0,1,,,,,,,,,,,,,,,,,,,,,
,,,,,,,,,,,,5e383a78d03ec6000bb04919,22,Kobieta,2022-06-11_09h14.28.638,task,2021.1.4,Win32,59.89099838,6299f149e92ead563fba08ef,62a440c31be75f39da88f0d3,,,,,,,,,,,,,8,,,,,,,,,,Task,39,(5x3) - 7,8,,,,,,,,,,,,,,,,,,,1,,,,,,,,,,,,,,,,,,,,,,,"[""8""]",1,[2.3698999999761554],0,0,0,38,1,,,,,,,,,,,,,,,,,,,,,,,,,,
,,,,,,,,,,,X V Q F H G B L J M P D K C T S W R N Z,5e383a78d03ec6000bb04919,22,Kobieta,2022-06-11_09h14.28.638,task,2021.1.4,Win32,59.89099838,6299f149e92ead563fba08ef,62a440c31be75f39da88f0d3,,,,,,,,,,,,,,,,,,,,,,,,,,,,,,,,,,,,,,,,,,,,,,,,,,,,,,,,,,,,,,,,,,,,,,,,,,,,2,0,2,0,1,,,,,,,,,,,,,,,,,,,,,
,,,,,,,,,,,,5e383a78d03ec6000bb04919,22,Kobieta,2022-06-11_09h14.28.638,task,2021.1.4,Win32,59.89099838,6299f149e92ead563fba08ef,62a440c31be75f39da88f0d3,,,,,,,,,,,,,5,,,,,,,,,,Task,36,(8/4) + 3,5,,,,,,,,,,,,,,,,,,,1,,,,,,,,,,,,,,,,,,,,,,,"[""5""]",1,[2.5185000000000173],0,0,0,35,1,,,,,,,,,,,,,,,,,,,,,,,,,,
,,,,,,,,,,,X V Q F H G B L J M P D K C T S W R N Z,5e383a78d03ec6000bb04919,22,Kobieta,2022-06-11_09h14.28.638,task,2021.1.4,Win32,59.89099838,6299f149e92ead563fba08ef,62a440c31be75f39da88f0d3,,,,,,,,,,,,,,,,,,,,,,,,,,,,,,,,,,,,,,,,,,,,,,,,,,,,,,,,,,,,,,,,,,,,,,,,,,,,3,0,3,0,1,,,,,,,,,,,,,,,,,,,,,
,,,,,,,,,,,,5e383a78d03ec6000bb04919,22,Kobieta,2022-06-11_09h14.28.638,task,2021.1.4,Win32,59.89099838,6299f149e92ead563fba08ef,62a440c31be75f39da88f0d3,,,,,,,,,,,,,9,,,,,,,,,,Task,24,(2x2) + 5,9,,,,,,,,,,,,,,,,,,,1,,,,,,,,,,,,,,,,,,,,,,,"[""9""]",1,[2.3857000000476773],0,0,0,23,1,,,,,,,,,,,,,,,,,,,,,,,,,,
,,,,,,,,,,,X V Q F H G B L J M P D K C T S W R N Z,5e383a78d03ec6000bb04919,22,Kobieta,2022-06-11_09h14.28.638,task,2021.1.4,Win32,59.89099838,6299f149e92ead563fba08ef,62a440c31be75f39da88f0d3,,,,,,,,,,,,,,,,,,,,,,,,,,,,,,,,,,,,,,,,,,,,,,,,,,,,,,,,,,,,,,,,,,,,,,,,,,,,4,0,4,0,1,,,,,,,,,,,,,,,,,,,,,
,,,,,,,,,,,,5e383a78d03ec6000bb04919,22,Kobieta,2022-06-11_09h14.28.638,task,2021.1.4,Win32,59.89099838,6299f149e92ead563fba08ef,62a440c31be75f39da88f0d3,,,,,,,,,,,,,0,,,,,,,,,,Task,33,(1/1) - 1,0,,,,,,,,,,,,,,,,,,,1,,,,,,,,,,,,,,,,,,,,,,,"[""0""]",1,[4.022700000047621],0,0,0,32,1,,,,,,,,,,,,,,,,,,,,,,,,,,
,,,,,,,,,,,X V Q F H G B L J M P D K C T S W R N Z,5e383a78d03ec6000bb04919,22,Kobieta,2022-06-11_09h14.28.638,task,2021.1.4,Win32,59.89099838,6299f149e92ead563fba08ef,62a440c31be75f39da88f0d3,,,,,,,,,,,,,,,,,,,,,,,,,,,,,,,,,,,,,,,,,,,,,,,,,,,,,,,,,,,,,,,,,,,,,,,,,,,,5,0,5,0,1,,,,,,,,,,,,,,,,,,,,,
,,,,,,,,,,,,5e383a78d03ec6000bb04919,22,Kobieta,2022-06-11_09h14.28.638,task,2021.1.4,Win32,59.89099838,6299f149e92ead563fba08ef,62a440c31be75f39da88f0d3,,,,,,,,,,,,,,,,,,,,,,,,,,,,,,,,,,,,,,,,,,,,,,,,,,,,,,,,,,,,,,,,,,,,,,,,,,,,,,,,,jxgthc,"[""j"",""x"",""g"",""t"",""h"",""c""]",0,"[1.4528000000715338,2.002499999999941,2.518300000071463,2.75260000002379,3.8052000000476482,4.052900000095292,4.352499999999964]",1,JXGTHC,5,0,5,0,1,,,,,,,,,,
,,,,,,,,,,,,5e383a78d03ec6000bb04919,22,Kobieta,2022-06-11_09h14.28.638,task,2021.1.4,Win32,59.89099838,6299f149e92ead563fba08ef,62a440c31be75f39da88f0d3,,,,,,,,,,,,,8,,,,,,,,,,Task,38,(4x6) - 17,7,,,,,,,,,,,,,,,,,,,0,,,,,,,,,,,,,,,,,,,,,,,"[""8""]",0,[3.624100000023873],0,0,0,37,1,,,,,,,,,,,,,,,,,,,,,,,,,,
,,,,,,,,,,,,5e383a78d03ec6000bb04919,22,Kobieta,2022-06-11_09h14.28.638,task,2021.1.4,Win32,59.89099838,6299f149e92ead563fba08ef,62a440c31be75f39da88f0d3,,,,,,,,,,,,,8,,,,,,,,,,Task,39,(5x3) - 7,8,,,,,,,,,,,,,,,,,,,1,,,,,,,,,,,,,,,,,,,,,,,"[""8""]",1,[3.4692000000476355],0,1,1,38,1,,,,,,,,,,,,,,,,,,,,,,,,,,
,,,,,,,,,,,X V Q F H G B L J M P D K C T S W R N Z,5e383a78d03ec6000bb04919,22,Kobieta,2022-06-11_09h14.28.638,task,2021.1.4,Win32,59.89099838,6299f149e92ead563fba08ef,62a440c31be75f39da88f0d3,,,,,,,,,,,,,,,,,,,,,,,,,,,,,,,,,,,,,,,,,,,,,,,,,,,,,,,,,,,,,,,,,,,,,,,,,,,,0,0,0,0,1,,,,,,,,,,,,,,,,,,,,,
,,,,,,,,,,,,5e383a78d03ec6000bb04919,22,Kobieta,2022-06-11_09h14.28.638,task,2021.1.4,Win32,59.89099838,6299f149e92ead563fba08ef,62a440c31be75f39da88f0d3,,,,,,,,,,,,,0,,,,,,,,,,Task,25,(10/5) - 2,0,,,,,,,,,,,,,,,,,,,1,,,,,,,,,,,,,,,,,,,,,,,"[""0""]",1,[1.84439999997619],0,0,0,24,1,,,,,,,,,,,,,,,,,,,,,,,,,,
,,,,,,,,,,,X V Q F H G B L J M P D K C T S W R N Z,5e383a78d03ec6000bb04919,22,Kobieta,2022-06-11_09h14.28.638,task,2021.1.4,Win32,59.89099838,6299f149e92ead563fba08ef,62a440c31be75f39da88f0d3,,,,,,,,,,,,,,,,,,,,,,,,,,,,,,,,,,,,,,,,,,,,,,,,,,,,,,,,,,,,,,,,,,,,,,,,,,,,1,0,1,0,1,,,,,,,,,,,,,,,,,,,,,
,,,,,,,,,,,,5e383a78d03ec6000bb04919,22,Kobieta,2022-06-11_09h14.28.638,task,2021.1.4,Win32,59.89099838,6299f149e92ead563fba08ef,62a440c31be75f39da88f0d3,,,,,,,,,,,,,1,,,,,,,,,,Task,1,(12/6) - 1,1,,,,,,,,,,,,,,,,,,,1,,,,,,,,,,,,,,,,,,,,,,,"[""1""]",1,[1.6518999999760808],0,0,0,0,1,,,,,,,,,,,,,,,,,,,,,,,,,,
,,,,,,,,,,,X V Q F H G B L J M P D K C T S W R N Z,5e383a78d03ec6000bb04919,22,Kobieta,2022-06-11_09h14.28.638,task,2021.1.4,Win32,59.89099838,6299f149e92ead563fba08ef,62a440c31be75f39da88f0d3,,,,,,,,,,,,,,,,,,,,,,,,,,,,,,,,,,,,,,,,,,,,,,,,,,,,,,,,,,,,,,,,,,,,,,,,,,,,2,0,2,0,1,,,,,,,,,,,,,,,,,,,,,
,,,,,,,,,,,,5e383a78d03ec6000bb04919,22,Kobieta,2022-06-11_09h14.28.638,task,2021.1.4,Win32,59.89099838,6299f149e92ead563fba08ef,62a440c31be75f39da88f0d3,,,,,,,,,,,,,3,,,,,,,,,,Task,35,(1x2) + 1,3,,,,,,,,,,,,,,,,,,,1,,,,,,,,,,,,,,,,,,,,,,,"[""3""]",1,[2.6517999999523454],0,0,0,34,1,,,,,,,,,,,,,,,,,,,,,,,,,,
,,,,,,,,,,,X V Q F H G B L J M P D K C T S W R N Z,5e383a78d03ec6000bb04919,22,Kobieta,2022-06-11_09h14.28.638,task,2021.1.4,Win32,59.89099838,6299f149e92ead563fba08ef,62a440c31be75f39da88f0d3,,,,,,,,,,,,,,,,,,,,,,,,,,,,,,,,,,,,,,,,,,,,,,,,,,,,,,,,,,,,,,,,,,,,,,,,,,,,3,0,3,0,1,,,,,,,,,,,,,,,,,,,,,
,,,,,,,,,,,,5e383a78d03ec6000bb04919,22,Kobieta,2022-06-11_09h14.28.638,task,2021.1.4,Win32,59.89099838,6299f149e92ead563fba08ef,62a440c31be75f39da88f0d3,,,,,,,,,,,,,5,,,,,,,,,,Task,12,(4x4) - 11,5,,,,,,,,,,,,,,,,,,,1,,,,,,,,,,,,,,,,,,,,,,,"[""5""]",1,[1.9618000000715483],0,0,0,11,1,,,,,,,,,,,,,,,,,,,,,,,,,,
,,,,,,,,,,,X V Q F H G B L J M P D K C T S W R N Z,5e383a78d03ec6000bb04919,22,Kobieta,2022-06-11_09h14.28.638,task,2021.1.4,Win32,59.89099838,6299f149e92ead563fba08ef,62a440c31be75f39da88f0d3,,,,,,,,,,,,,,,,,,,,,,,,,,,,,,,,,,,,,,,,,,,,,,,,,,,,,,,,,,,,,,,,,,,,,,,,,,,,4,0,4,0,1,,,,,,,,,,,,,,,,,,,,,
,,,,,,,,,,,,5e383a78d03ec6000bb04919,22,Kobieta,2022-06-11_09h14.28.638,task,2021.1.4,Win32,59.89099838,6299f149e92ead563fba08ef,62a440c31be75f39da88f0d3,,,,,,,,,,,,,7,,,,,,,,,,Task,38,(4x6) - 17,7,,,,,,,,,,,,,,,,,,,1,,,,,,,,,,,,,,,,,,,,,,,"[""7""]",1,[3.3132000000476864],0,0,0,37,1,,,,,,,,,,,,,,,,,,,,,,,,,,
,,,,,,,,,,,X V Q F H G B L J M P D K C T S W R N Z,5e383a78d03ec6000bb04919,22,Kobieta,2022-06-11_09h14.28.638,task,2021.1.4,Win32,59.89099838,6299f149e92ead563fba08ef,62a440c31be75f39da88f0d3,,,,,,,,,,,,,,,,,,,,,,,,,,,,,,,,,,,,,,,,,,,,,,,,,,,,,,,,,,,,,,,,,,,,,,,,,,,,5,0,5,0,1,,,,,,,,,,,,,,,,,,,,,
,,,,,,,,,,,,5e383a78d03ec6000bb04919,22,Kobieta,2022-06-11_09h14.28.638,task,2021.1.4,Win32,59.89099838,6299f149e92ead563fba08ef,62a440c31be75f39da88f0d3,,,,,,,,,,,,,6,,,,,,,,,,Task,30,(6/3) + 4 ,6,,,,,,,,,,,,,,,,,,,1,,,,,,,,,,,,,,,,,,,,,,,"[""6""]",1,[2.7651000000238355],0,0,0,29,1,,,,,,,,,,,,,,,,,,,,,,,,,,
,,,,,,,,,,,X V Q F H G B L J M P D K C T S W R N Z,5e383a78d03ec6000bb04919,22,Kobieta,2022-06-11_09h14.28.638,task,2021.1.4,Win32,59.89099838,6299f149e92ead563fba08ef,62a440c31be75f39da88f0d3,,,,,,,,,,,,,,,,,,,,,,,,,,,,,,,,,,,,,,,,,,,,,,,,,,,,,,,,,,,,,,,,,,,,,,,,,,,,6,0,6,0,1,,,,,,,,,,,,,,,,,,,,,
,,,,,,,,,,,,5e383a78d03ec6000bb04919,22,Kobieta,2022-06-11_09h14.28.638,task,2021.1.4,Win32,59.89099838,6299f149e92ead563fba08ef,62a440c31be75f39da88f0d3,,,,,,,,,,,,,,,,,,,,,,,,,,,,,,,,,,,,,,,,,,,,,,,,,,,,,,,,,,,,,,,,,,,,,,,,,,,,,,,,,khxxwwm,"[""k"",""h"",""x"",""x"",""w"",""w"",""m""]",0,"[2.0988999999761973,2.4850000000000136,3.0515000000000327,3.2847000000476783,3.6016000000238364,3.7681000000238782,4.019499999999994,4.385200000047689]",1,KHXXWWM,6,0,6,0,1,,,,,,,,,,
,,,,,,,,,,,,5e383a78d03ec6000bb04919,22,Kobieta,2022-06-11_09h14.28.638,task,2021.1.4,Win32,59.89099838,6299f149e92ead563fba08ef,62a440c31be75f39da88f0d3,,,,,,,,,,,,,6,,,,,,,,,,Task,5,(2x3) + 0,6,,,,,,,,,,,,,,,,,,,1,,,,,,,,,,,,,,,,,,,,,,,"[""6""]",1,[1.8880999999046253],0,0,0,4,1,,,,,,,,,,,,,,,,,,,,,,,,,,
,,,,,,,,,,,X V Q F H G B L J M P D K C T S W R N Z,5e383a78d03ec6000bb04919,22,Kobieta,2022-06-11_09h14.28.638,task,2021.1.4,Win32,59.89099838,6299f149e92ead563fba08ef,62a440c31be75f39da88f0d3,,,,,,,,,,,,,,,,,,,,,,,,,,,,,,,,,,,,,,,,,,,,,,,,,,,,,,,,,,,,,,,,,,,,,,,,,,,,0,0,0,0,1,,,,,,,,,,,,,,,,,,,,,
,,,,,,,,,,,,5e383a78d03ec6000bb04919,22,Kobieta,2022-06-11_09h14.28.638,task,2021.1.4,Win32,59.89099838,6299f149e92ead563fba08ef,62a440c31be75f39da88f0d3,,,,,,,,,,,,,4,,,,,,,,,,Task,4,(1x5) - 1,4,,,,,,,,,,,,,,,,,,,1,,,,,,,,,,,,,,,,,,,,,,,"[""4""]",1,[1.56220000004771],0,0,0,3,1,,,,,,,,,,,,,,,,,,,,,,,,,,
,,,,,,,,,,,X V Q F H G B L J M P D K C T S W R N Z,5e383a78d03ec6000bb04919,22,Kobieta,2022-06-11_09h14.28.638,task,2021.1.4,Win32,59.89099838,6299f149e92ead563fba08ef,62a440c31be75f39da88f0d3,,,,,,,,,,,,,,,,,,,,,,,,,,,,,,,,,,,,,,,,,,,,,,,,,,,,,,,,,,,,,,,,,,,,,,,,,,,,1,0,1,0,1,,,,,,,,,,,,,,,,,,,,,
,,,,,,,,,,,,5e383a78d03ec6000bb04919,22,Kobieta,2022-06-11_09h14.28.638,task,2021.1.4,Win32,59.89099838,6299f149e92ead563fba08ef,62a440c31be75f39da88f0d3,,,,,,,,,,,,,9,,,,,,,,,,Task,24,(2x2) + 5,9,,,,,,,,,,,,,,,,,,,1,,,,,,,,,,,,,,,,,,,,,,,"[""9""]",1,[2.6329999999999245],0,0,0,23,1,,,,,,,,,,,,,,,,,,,,,,,,,,
,,,,,,,,,,,X V Q F H G B L J M P D K C T S W R N Z,5e383a78d03ec6000bb04919,22,Kobieta,2022-06-11_09h14.28.638,task,2021.1.4,Win32,59.89099838,6299f149e92ead563fba08ef,62a440c31be75f39da88f0d3,,,,,,,,,,,,,,,,,,,,,,,,,,,,,,,,,,,,,,,,,,,,,,,,,,,,,,,,,,,,,,,,,,,,,,,,,,,,2,0,2,0,1,,,,,,,,,,,,,,,,,,,,,
,,,,,,,,,,,,5e383a78d03ec6000bb04919,22,Kobieta,2022-06-11_09h14.28.638,task,2021.1.4,Win32,59.89099838,6299f149e92ead563fba08ef,62a440c31be75f39da88f0d3,,,,,,,,,,,,,8,,,,,,,,,,Task,15,(3x7) - 13,8,,,,,,,,,,,,,,,,,,,1,,,,,,,,,,,,,,,,,,,,,,,"[""8""]",1,[2.4682999999523645],0,0,0,14,1,,,,,,,,,,,,,,,,,,,,,,,,,,
,,,,,,,,,,,X V Q F H G B L J M P D K C T S W R N Z,5e383a78d03ec6000bb04919,22,Kobieta,2022-06-11_09h14.28.638,task,2021.1.4,Win32,59.89099838,6299f149e92ead563fba08ef,62a440c31be75f39da88f0d3,,,,,,,,,,,,,,,,,,,,,,,,,,,,,,,,,,,,,,,,,,,,,,,,,,,,,,,,,,,,,,,,,,,,,,,,,,,,3,0,3,0,1,,,,,,,,,,,,,,,,,,,,,
,,,,,,,,,,,,5e383a78d03ec6000bb04919,22,Kobieta,2022-06-11_09h14.28.638,task,2021.1.4,Win32,59.89099838,6299f149e92ead563fba08ef,62a440c31be75f39da88f0d3,,,,,,,,,,,,,4,,,,,,,,,,Task,4,(1x5) - 1,4,,,,,,,,,,,,,,,,,,,1,,,,,,,,,,,,,,,,,,,,,,,"[""4""]",1,[2.4428999999761345],0,0,0,3,1,,,,,,,,,,,,,,,,,,,,,,,,,,
,,,,,,,,,,,X V Q F H G B L J M P D K C T S W R N Z,5e383a78d03ec6000bb04919,22,Kobieta,2022-06-11_09h14.28.638,task,2021.1.4,Win32,59.89099838,6299f149e92ead563fba08ef,62a440c31be75f39da88f0d3,,,,,,,,,,,,,,,,,,,,,,,,,,,,,,,,,,,,,,,,,,,,,,,,,,,,,,,,,,,,,,,,,,,,,,,,,,,,4,0,4,0,1,,,,,,,,,,,,,,,,,,,,,
,,,,,,,,,,,,5e383a78d03ec6000bb04919,22,Kobieta,2022-06-11_09h14.28.638,task,2021.1.4,Win32,59.89099838,6299f149e92ead563fba08ef,62a440c31be75f39da88f0d3,,,,,,,,,,,,,8,,,,,,,,,,Task,23,(2x3) + 2,8,,,,,,,,,,,,,,,,,,,1,,,,,,,,,,,,,,,,,,,,,,,"[""8""]",1,[4.112799999952358],0,0,0,22,1,,,,,,,,,,,,,,,,,,,,,,,,,,
,,,,,,,,,,,X V Q F H G B L J M P D K C T S W R N Z,5e383a78d03ec6000bb04919,22,Kobieta,2022-06-11_09h14.28.638,task,2021.1.4,Win32,59.89099838,6299f149e92ead563fba08ef,62a440c31be75f39da88f0d3,,,,,,,,,,,,,,,,,,,,,,,,,,,,,,,,,,,,,,,,,,,,,,,,,,,,,,,,,,,,,,,,,,,,,,,,,,,,5,0,5,0,1,,,,,,,,,,,,,,,,,,,,,
,,,,,,,,,,,,5e383a78d03ec6000bb04919,22,Kobieta,2022-06-11_09h14.28.638,task,2021.1.4,Win32,59.89099838,6299f149e92ead563fba08ef,62a440c31be75f39da88f0d3,,,,,,,,,,,,,3,,,,,,,,,,Task,35,(1x2) + 1,3,,,,,,,,,,,,,,,,,,,1,,,,,,,,,,,,,,,,,,,,,,,"[""3""]",1,[1.7344999999999118],0,0,0,34,1,,,,,,,,,,,,,,,,,,,,,,,,,,
,,,,,,,,,,,X V Q F H G B L J M P D K C T S W R N Z,5e383a78d03ec6000bb04919,22,Kobieta,2022-06-11_09h14.28.638,task,2021.1.4,Win32,59.89099838,6299f149e92ead563fba08ef,62a440c31be75f39da88f0d3,,,,,,,,,,,,,,,,,,,,,,,,,,,,,,,,,,,,,,,,,,,,,,,,,,,,,,,,,,,,,,,,,,,,,,,,,,,,6,0,6,0,1,,,,,,,,,,,,,,,,,,,,,
,,,,,,,,,,,,5e383a78d03ec6000bb04919,22,Kobieta,2022-06-11_09h14.28.638,task,2021.1.4,Win32,59.89099838,6299f149e92ead563fba08ef,62a440c31be75f39da88f0d3,,,,,,,,,,,,,5,,,,,,,,,,Task,36,(8/4) + 3,5,,,,,,,,,,,,,,,,,,,1,,,,,,,,,,,,,,,,,,,,,,,"[""5""]",1,[2.9983999999761863],0,0,0,35,1,,,,,,,,,,,,,,,,,,,,,,,,,,
,,,,,,,,,,,X V Q F H G B L J M P D K C T S W R N Z,5e383a78d03ec6000bb04919,22,Kobieta,2022-06-11_09h14.28.638,task,2021.1.4,Win32,59.89099838,6299f149e92ead563fba08ef,62a440c31be75f39da88f0d3,,,,,,,,,,,,,,,,,,,,,,,,,,,,,,,,,,,,,,,,,,,,,,,,,,,,,,,,,,,,,,,,,,,,,,,,,,,,7,0,7,0,1,,,,,,,,,,,,,,,,,,,,,
,,,,,,,,,,,,5e383a78d03ec6000bb04919,22,Kobieta,2022-06-11_09h14.28.638,task,2021.1.4,Win32,59.89099838,6299f149e92ead563fba08ef,62a440c31be75f39da88f0d3,,,,,,,,,,,,,,,,,,,,,,,,,,,,,,,,,,,,,,,,,,,,,,,,,,,,,,,,,,,,,,,,,,,,,,,,,,,,,,,,,xskktxm,"[""x"",""s"",""k"",""k"",""t"",""x"",""m""]",0,"[2.2011999999284626,2.7215999999045835,3.0843999999760854,3.23369999992849,3.7998999999761054,5.534599999904572,6.651499999999942,6.920899999976086]",0,KSKKTXDK,7,0,7,0,1,,,,,,,,,,
,,,,,,,,,,,,5e383a78d03ec6000bb04919,22,Kobieta,2022-06-11_09h14.28.638,task,2021.1.4,Win32,59.89099838,6299f149e92ead563fba08ef,62a440c31be75f39da88f0d3,,,,,,,,,,,,,0,,,,,,,,,,Task,17,(2x3) - 6,0,,,,,,,,,,,,,,,,,,,1,,,,,,,,,,,,,,,,,,,,,,,"[""0""]",1,[2.5357999999522463],0,0,0,16,1,,,,,,,,,,,,,,,,,,,,,,,,,,
,,,,,,,,,,,X V Q F H G B L J M P D K C T S W R N Z,5e383a78d03ec6000bb04919,22,Kobieta,2022-06-11_09h14.28.638,task,2021.1.4,Win32,59.89099838,6299f149e92ead563fba08ef,62a440c31be75f39da88f0d3,,,,,,,,,,,,,,,,,,,,,,,,,,,,,,,,,,,,,,,,,,,,,,,,,,,,,,,,,,,,,,,,,,,,,,,,,,,,0,0,0,0,1,,,,,,,,,,,,,,,,,,,,,
,,,,,,,,,,,,5e383a78d03ec6000bb04919,22,Kobieta,2022-06-11_09h14.28.638,task,2021.1.4,Win32,59.89099838,6299f149e92ead563fba08ef,62a440c31be75f39da88f0d3,,,,,,,,,,,,,3,,,,,,,,,,Task,35,(1x2) + 1,3,,,,,,,,,,,,,,,,,,,1,,,,,,,,,,,,,,,,,,,,,,,"[""3""]",1,[1.8833999999761772],0,0,0,34,1,,,,,,,,,,,,,,,,,,,,,,,,,,
,,,,,,,,,,,X V Q F H G B L J M P D K C T S W R N Z,5e383a78d03ec6000bb04919,22,Kobieta,2022-06-11_09h14.28.638,task,2021.1.4,Win32,59.89099838,6299f149e92ead563fba08ef,62a440c31be75f39da88f0d3,,,,,,,,,,,,,,,,,,,,,,,,,,,,,,,,,,,,,,,,,,,,,,,,,,,,,,,,,,,,,,,,,,,,,,,,,,,,1,0,1,0,1,,,,,,,,,,,,,,,,,,,,,
,,,,,,,,,,,,5e383a78d03ec6000bb04919,22,Kobieta,2022-06-11_09h14.28.638,task,2021.1.4,Win32,59.89099838,6299f149e92ead563fba08ef,62a440c31be75f39da88f0d3,,,,,,,,,,,,,7,,,,,,,,,,Task,14,(2x2) + 3,7,,,,,,,,,,,,,,,,,,,1,,,,,,,,,,,,,,,,,,,,,,,"[""7""]",1,[2.8987999999523026],0,0,0,13,1,,,,,,,,,,,,,,,,,,,,,,,,,,
,,,,,,,,,,,X V Q F H G B L J M P D K C T S W R N Z,5e383a78d03ec6000bb04919,22,Kobieta,2022-06-11_09h14.28.638,task,2021.1.4,Win32,59.89099838,6299f149e92ead563fba08ef,62a440c31be75f39da88f0d3,,,,,,,,,,,,,,,,,,,,,,,,,,,,,,,,,,,,,,,,,,,,,,,,,,,,,,,,,,,,,,,,,,,,,,,,,,,,2,0,2,0,1,,,,,,,,,,,,,,,,,,,,,
,,,,,,,,,,,,5e383a78d03ec6000bb04919,22,Kobieta,2022-06-11_09h14.28.638,task,2021.1.4,Win32,59.89099838,6299f149e92ead563fba08ef,62a440c31be75f39da88f0d3,,,,,,,,,,,,,4,,,,,,,,,,Task,28,(2x5) - 6,4,,,,,,,,,,,,,,,,,,,1,,,,,,,,,,,,,,,,,,,,,,,"[""4""]",1,[2.527500000000032],0,0,0,27,1,,,,,,,,,,,,,,,,,,,,,,,,,,
,,,,,,,,,,,X V Q F H G B L J M P D K C T S W R N Z,5e383a78d03ec6000bb04919,22,Kobieta,2022-06-11_09h14.28.638,task,2021.1.4,Win32,59.89099838,6299f149e92ead563fba08ef,62a440c31be75f39da88f0d3,,,,,,,,,,,,,,,,,,,,,,,,,,,,,,,,,,,,,,,,,,,,,,,,,,,,,,,,,,,,,,,,,,,,,,,,,,,,3,0,3,0,1,,,,,,,,,,,,,,,,,,,,,
,,,,,,,,,,,,5e383a78d03ec6000bb04919,22,Kobieta,2022-06-11_09h14.28.638,task,2021.1.4,Win32,59.89099838,6299f149e92ead563fba08ef,62a440c31be75f39da88f0d3,,,,,,,,,,,,,2,,,,,,,,,,Task,2,(2x2) - 2,2,,,,,,,,,,,,,,,,,,,1,,,,,,,,,,,,,,,,,,,,,,,"[""2""]",1,[3.269099999904711],0,0,0,1,1,,,,,,,,,,,,,,,,,,,,,,,,,,
,,,,,,,,,,,X V Q F H G B L J M P D K C T S W R N Z,5e383a78d03ec6000bb04919,22,Kobieta,2022-06-11_09h14.28.638,task,2021.1.4,Win32,59.89099838,6299f149e92ead563fba08ef,62a440c31be75f39da88f0d3,,,,,,,,,,,,,,,,,,,,,,,,,,,,,,,,,,,,,,,,,,,,,,,,,,,,,,,,,,,,,,,,,,,,,,,,,,,,4,0,4,0,1,,,,,,,,,,,,,,,,,,,,,
,,,,,,,,,,,,5e383a78d03ec6000bb04919,22,Kobieta,2022-06-11_09h14.28.638,task,2021.1.4,Win32,59.89099838,6299f149e92ead563fba08ef,62a440c31be75f39da88f0d3,,,,,,,,,,,,,5,,,,,,,,,,Task,22,(3x1) + 2,5,,,,,,,,,,,,,,,,,,,1,,,,,,,,,,,,,,,,,,,,,,,"[""5""]",1,[1.7462000000476792],0,0,0,21,1,,,,,,,,,,,,,,,,,,,,,,,,,,
,,,,,,,,,,,X V Q F H G B L J M P D K C T S W R N Z,5e383a78d03ec6000bb04919,22,Kobieta,2022-06-11_09h14.28.638,task,2021.1.4,Win32,59.89099838,6299f149e92ead563fba08ef,62a440c31be75f39da88f0d3,,,,,,,,,,,,,,,,,,,,,,,,,,,,,,,,,,,,,,,,,,,,,,,,,,,,,,,,,,,,,,,,,,,,,,,,,,,,5,0,5,0,1,,,,,,,,,,,,,,,,,,,,,
,,,,,,,,,,,,5e383a78d03ec6000bb04919,22,Kobieta,2022-06-11_09h14.28.638,task,2021.1.4,Win32,59.89099838,6299f149e92ead563fba08ef,62a440c31be75f39da88f0d3,,,,,,,,,,,,,5,,,,,,,,,,Task,12,(4x4) - 11,5,,,,,,,,,,,,,,,,,,,1,,,,,,,,,,,,,,,,,,,,,,,"[""5""]",1,[1.6236000000238846],0,0,0,11,1,,,,,,,,,,,,,,,,,,,,,,,,,,
,,,,,,,,,,,X V Q F H G B L J M P D K C T S W R N Z,5e383a78d03ec6000bb04919,22,Kobieta,2022-06-11_09h14.28.638,task,2021.1.4,Win32,59.89099838,6299f149e92ead563fba08ef,62a440c31be75f39da88f0d3,,,,,,,,,,,,,,,,,,,,,,,,,,,,,,,,,,,,,,,,,,,,,,,,,,,,,,,,,,,,,,,,,,,,,,,,,,,,6,0,6,0,1,,,,,,,,,,,,,,,,,,,,,
,,,,,,,,,,,,5e383a78d03ec6000bb04919,22,Kobieta,2022-06-11_09h14.28.638,task,2021.1.4,Win32,59.89099838,6299f149e92ead563fba08ef,62a440c31be75f39da88f0d3,,,,,,,,,,,,,9,,,,,,,,,,Task,7,(3x7) - 12,9,,,,,,,,,,,,,,,,,,,1,,,,,,,,,,,,,,,,,,,,,,,"[""9""]",1,[3.126799999952368],0,0,0,6,1,,,,,,,,,,,,,,,,,,,,,,,,,,
,,,,,,,,,,,X V Q F H G B L J M P D K C T S W R N Z,5e383a78d03ec6000bb04919,22,Kobieta,2022-06-11_09h14.28.638,task,2021.1.4,Win32,59.89099838,6299f149e92ead563fba08ef,62a440c31be75f39da88f0d3,,,,,,,,,,,,,,,,,,,,,,,,,,,,,,,,,,,,,,,,,,,,,,,,,,,,,,,,,,,,,,,,,,,,,,,,,,,,7,0,7,0,1,,,,,,,,,,,,,,,,,,,,,
,,,,,,,,,,,,5e383a78d03ec6000bb04919,22,Kobieta,2022-06-11_09h14.28.638,task,2021.1.4,Win32,59.89099838,6299f149e92ead563fba08ef,62a440c31be75f39da88f0d3,,,,,,,,,,,,,,,,,,,,,,,,,,,,,,,,,,,,,,,,,,,,,,,,,,,,,,,,,,,,,,,,,,,,,,,,,,,,,,,,,dmclvqbp,"[""d"",""m"",""c"",""l"",""v"",""q"",""b"",""p""]",0,"[1.6693000000715301,1.8382000000476637,2.088300000071513,2.5519000000953156,3.110600000023851,3.9019000000953383,4.4522000000476964,4.972900000095365,5.384600000023852]",1,DMCLVQBP,8,0,8,0,1,,,,,,,,,,
,,,,,,,,,,,,5e383a78d03ec6000bb04919,22,Kobieta,2022-06-11_09h14.28.638,task,2021.1.4,Win32,59.89099838,6299f149e92ead563fba08ef,62a440c31be75f39da88f0d3,,,,,,,,,,,,,9,,,,,,,,,,Task,16,(3x8) - 15,9,,,,,,,,,,,,,,,,,,,1,,,,,,,,,,,,,,,,,,,,,,,"[""9""]",1,[2.0181000000237646],0,0,0,15,1,,,,,,,,,,,,,,,,,,,,,,,,,,
,,,,,,,,,,,X V Q F H G B L J M P D K C T S W R N Z,5e383a78d03ec6000bb04919,22,Kobieta,2022-06-11_09h14.28.638,task,2021.1.4,Win32,59.89099838,6299f149e92ead563fba08ef,62a440c31be75f39da88f0d3,,,,,,,,,,,,,,,,,,,,,,,,,,,,,,,,,,,,,,,,,,,,,,,,,,,,,,,,,,,,,,,,,,,,,,,,,,,,0,0,0,0,1,,,,,,,,,,,,,,,,,,,,,
,,,,,,,,,,,,5e383a78d03ec6000bb04919,22,Kobieta,2022-06-11_09h14.28.638,task,2021.1.4,Win32,59.89099838,6299f149e92ead563fba08ef,62a440c31be75f39da88f0d3,,,,,,,,,,,,,9,,,,,,,,,,Task,24,(2x2) + 5,9,,,,,,,,,,,,,,,,,,,1,,,,,,,,,,,,,,,,,,,,,,,"[""9""]",1,[1.3152999999523445],0,0,0,23,1,,,,,,,,,,,,,,,,,,,,,,,,,,
,,,,,,,,,,,X V Q F H G B L J M P D K C T S W R N Z,5e383a78d03ec6000bb04919,22,Kobieta,2022-06-11_09h14.28.638,task,2021.1.4,Win32,59.89099838,6299f149e92ead563fba08ef,62a440c31be75f39da88f0d3,,,,,,,,,,,,,,,,,,,,,,,,,,,,,,,,,,,,,,,,,,,,,,,,,,,,,,,,,,,,,,,,,,,,,,,,,,,,1,0,1,0,1,,,,,,,,,,,,,,,,,,,,,
,,,,,,,,,,,,5e383a78d03ec6000bb04919,22,Kobieta,2022-06-11_09h14.28.638,task,2021.1.4,Win32,59.89099838,6299f149e92ead563fba08ef,62a440c31be75f39da88f0d3,,,,,,,,,,,,,5,,,,,,,,,,Task,22,(3x1) + 2,5,,,,,,,,,,,,,,,,,,,1,,,,,,,,,,,,,,,,,,,,,,,"[""5""]",1,[1.7690000000000055],0,0,0,21,1,,,,,,,,,,,,,,,,,,,,,,,,,,
,,,,,,,,,,,X V Q F H G B L J M P D K C T S W R N Z,5e383a78d03ec6000bb04919,22,Kobieta,2022-06-11_09h14.28.638,task,2021.1.4,Win32,59.89099838,6299f149e92ead563fba08ef,62a440c31be75f39da88f0d3,,,,,,,,,,,,,,,,,,,,,,,,,,,,,,,,,,,,,,,,,,,,,,,,,,,,,,,,,,,,,,,,,,,,,,,,,,,,2,0,2,0,1,,,,,,,,,,,,,,,,,,,,,
,,,,,,,,,,,,5e383a78d03ec6000bb04919,22,Kobieta,2022-06-11_09h14.28.638,task,2021.1.4,Win32,59.89099838,6299f149e92ead563fba08ef,62a440c31be75f39da88f0d3,,,,,,,,,,,,,0,,,,,,,,,,Task,8,(1x5) - 5,0,,,,,,,,,,,,,,,,,,,1,,,,,,,,,,,,,,,,,,,,,,,"[""0""]",1,[2.4663000000715556],0,0,0,7,1,,,,,,,,,,,,,,,,,,,,,,,,,,
,,,,,,,,,,,X V Q F H G B L J M P D K C T S W R N Z,5e383a78d03ec6000bb04919,22,Kobieta,2022-06-11_09h14.28.638,task,2021.1.4,Win32,59.89099838,6299f149e92ead563fba08ef,62a440c31be75f39da88f0d3,,,,,,,,,,,,,,,,,,,,,,,,,,,,,,,,,,,,,,,,,,,,,,,,,,,,,,,,,,,,,,,,,,,,,,,,,,,,3,0,3,0,1,,,,,,,,,,,,,,,,,,,,,
,,,,,,,,,,,,5e383a78d03ec6000bb04919,22,Kobieta,2022-06-11_09h14.28.638,task,2021.1.4,Win32,59.89099838,6299f149e92ead563fba08ef,62a440c31be75f39da88f0d3,,,,,,,,,,,,,8,,,,,,,,,,Task,23,(2x3) + 2,8,,,,,,,,,,,,,,,,,,,1,,,,,,,,,,,,,,,,,,,,,,,"[""8""]",1,[2.1718999999761763],0,0,0,22,1,,,,,,,,,,,,,,,,,,,,,,,,,,
,,,,,,,,,,,X V Q F H G B L J M P D K C T S W R N Z,5e383a78d03ec6000bb04919,22,Kobieta,2022-06-11_09h14.28.638,task,2021.1.4,Win32,59.89099838,6299f149e92ead563fba08ef,62a440c31be75f39da88f0d3,,,,,,,,,,,,,,,,,,,,,,,,,,,,,,,,,,,,,,,,,,,,,,,,,,,,,,,,,,,,,,,,,,,,,,,,,,,,4,0,4,0,1,,,,,,,,,,,,,,,,,,,,,
,,,,,,,,,,,,5e383a78d03ec6000bb04919,22,Kobieta,2022-06-11_09h14.28.638,task,2021.1.4,Win32,59.89099838,6299f149e92ead563fba08ef,62a440c31be75f39da88f0d3,,,,,,,,,,,,,,,,,,,,,,,Task,7,(3x7) - 12,9,,,,,,,,,,,,,,,,,,,0,,,,,,,,,,,,,,,,,,,,,,,,0,,0,0,0,6,1,,,,,,,,,,,,,,,,,,,,,,,,,,
,,,,,,,,,,,,5e383a78d03ec6000bb04919,22,Kobieta,2022-06-11_09h14.28.638,task,2021.1.4,Win32,59.89099838,6299f149e92ead563fba08ef,62a440c31be75f39da88f0d3,,,,,,,,,,,,,2,,,,,,,,,,Task,19,(6/2) - 1,2,,,,,,,,,,,,,,,,,,,1,,,,,,,,,,,,,,,,,,,,,,,"[""2""]",1,[2.384600000023852],0,1,1,18,1,,,,,,,,,,,,,,,,,,,,,,,,,,
,,,,,,,,,,,X V Q F H G B L J M P D K C T S W R N Z,5e383a78d03ec6000bb04919,22,Kobieta,2022-06-11_09h14.28.638,task,2021.1.4,Win32,59.89099838,6299f149e92ead563fba08ef,62a440c31be75f39da88f0d3,,,,,,,,,,,,,,,,,,,,,,,,,,,,,,,,,,,,,,,,,,,,,,,,,,,,,,,,,,,,,,,,,,,,,,,,,,,,5,0,5,0,1,,,,,,,,,,,,,,,,,,,,,
,,,,,,,,,,,,5e383a78d03ec6000bb04919,22,Kobieta,2022-06-11_09h14.28.638,task,2021.1.4,Win32,59.89099838,6299f149e92ead563fba08ef,62a440c31be75f39da88f0d3,,,,,,,,,,,,,3,,,,,,,,,,Task,20,(18/9) + 1,3,,,,,,,,,,,,,,,,,,,1,,,,,,,,,,,,,,,,,,,,,,,"[""3""]",1,[1.6761000000238937],0,0,0,19,1,,,,,,,,,,,,,,,,,,,,,,,,,,
,,,,,,,,,,,X V Q F H G B L J M P D K C T S W R N Z,5e383a78d03ec6000bb04919,22,Kobieta,2022-06-11_09h14.28.638,task,2021.1.4,Win32,59.89099838,6299f149e92ead563fba08ef,62a440c31be75f39da88f0d3,,,,,,,,,,,,,,,,,,,,,,,,,,,,,,,,,,,,,,,,,,,,,,,,,,,,,,,,,,,,,,,,,,,,,,,,,,,,6,0,6,0,1,,,,,,,,,,,,,,,,,,,,,
,,,,,,,,,,,,5e383a78d03ec6000bb04919,22,Kobieta,2022-06-11_09h14.28.638,task,2021.1.4,Win32,59.89099838,6299f149e92ead563fba08ef,62a440c31be75f39da88f0d3,,,,,,,,,,,,,9,,,,,,,,,,Task,40,(7x2) - 5,9,,,,,,,,,,,,,,,,,,,1,,,,,,,,,,,,,,,,,,,,,,,"[""9""]",1,[3.318899999976111],0,0,0,39,1,,,,,,,,,,,,,,,,,,,,,,,,,,
,,,,,,,,,,,X V Q F H G B L J M P D K C T S W R N Z,5e383a78d03ec6000bb04919,22,Kobieta,2022-06-11_09h14.28.638,task,2021.1.4,Win32,59.89099838,6299f149e92ead563fba08ef,62a440c31be75f39da88f0d3,,,,,,,,,,,,,,,,,,,,,,,,,,,,,,,,,,,,,,,,,,,,,,,,,,,,,,,,,,,,,,,,,,,,,,,,,,,,7,0,7,0,1,,,,,,,,,,,,,,,,,,,,,
,,,,,,,,,,,,5e383a78d03ec6000bb04919,22,Kobieta,2022-06-11_09h14.28.638,task,2021.1.4,Win32,59.89099838,6299f149e92ead563fba08ef,62a440c31be75f39da88f0d3,,,,,,,,,,,,,6,,,,,,,,,,Task,5,(2x3) + 0,6,,,,,,,,,,,,,,,,,,,1,,,,,,,,,,,,,,,,,,,,,,,"[""6""]",1,[2.52800000000002],0,0,0,4,1,,,,,,,,,,,,,,,,,,,,,,,,,,
,,,,,,,,,,,X V Q F H G B L J M P D K C T S W R N Z,5e383a78d03ec6000bb04919,22,Kobieta,2022-06-11_09h14.28.638,task,2021.1.4,Win32,59.89099838,6299f149e92ead563fba08ef,62a440c31be75f39da88f0d3,,,,,,,,,,,,,,,,,,,,,,,,,,,,,,,,,,,,,,,,,,,,,,,,,,,,,,,,,,,,,,,,,,,,,,,,,,,,8,0,8,0,1,,,,,,,,,,,,,,,,,,,,,
,,,,,,,,,,,,5e383a78d03ec6000bb04919,22,Kobieta,2022-06-11_09h14.28.638,task,2021.1.4,Win32,59.89099838,6299f149e92ead563fba08ef,62a440c31be75f39da88f0d3,,,,,,,,,,,,,,,,,,,,,,,,,,,,,,,,,,,,,,,,,,,,,,,,,,,,,,,,,,,,,,,,,,,,,,,,,,,,,,,,,qlcfcfcpw,"[""q"",""l"",""c"",""f"",""c"",""f"",""c"",""p"",""w""]",0,"[2.418699999928549,2.8361999999284535,3.986899999976231,4.342599999904678,5.053399999976136,6.420699999928502,7.800899999976195,11.571899999976154,11.837499999999977,12.319799999952352]",0,QFCFCMRBD,9,0,9,0,1,,,,,,,,,,
,,,,,,,,,,,,5e383a78d03ec6000bb04919,22,Kobieta,2022-06-11_09h14.28.638,task,2021.1.4,Win32,59.89099838,6299f149e92ead563fba08ef,62a440c31be75f39da88f0d3,,,,,,,,,,,,,9,,,,,,,,,,Task,24,(2x2) + 5,9,,,,,,,,,,,,,,,,,,,1,,,,,,,,,,,,,,,,,,,,,,,"[""9""]",1,[1.4023999999761827],0,0,0,23,1,,,,,,,,,,,,,,,,,,,,,,,,,,
,,,,,,,,,,,X V Q F H G B L J M P D K C T S W R N Z,5e383a78d03ec6000bb04919,22,Kobieta,2022-06-11_09h14.28.638,task,2021.1.4,Win32,59.89099838,6299f149e92ead563fba08ef,62a440c31be75f39da88f0d3,,,,,,,,,,,,,,,,,,,,,,,,,,,,,,,,,,,,,,,,,,,,,,,,,,,,,,,,,,,,,,,,,,,,,,,,,,,,0,0,0,0,1,,,,,,,,,,,,,,,,,,,,,
,,,,,,,,,,,,5e383a78d03ec6000bb04919,22,Kobieta,2022-06-11_09h14.28.638,task,2021.1.4,Win32,59.89099838,6299f149e92ead563fba08ef,62a440c31be75f39da88f0d3,,,,,,,,,,,,,1,,,,,,,,,,Task,9,(3x7) - 20,1,,,,,,,,,,,,,,,,,,,1,,,,,,,,,,,,,,,,,,,,,,,"[""1""]",1,[1.4061999999285035],0,0,0,8,1,,,,,,,,,,,,,,,,,,,,,,,,,,
,,,,,,,,,,,X V Q F H G B L J M P D K C T S W R N Z,5e383a78d03ec6000bb04919,22,Kobieta,2022-06-11_09h14.28.638,task,2021.1.4,Win32,59.89099838,6299f149e92ead563fba08ef,62a440c31be75f39da88f0d3,,,,,,,,,,,,,,,,,,,,,,,,,,,,,,,,,,,,,,,,,,,,,,,,,,,,,,,,,,,,,,,,,,,,,,,,,,,,1,0,1,0,1,,,,,,,,,,,,,,,,,,,,,
,,,,,,,,,,,,5e383a78d03ec6000bb04919,22,Kobieta,2022-06-11_09h14.28.638,task,2021.1.4,Win32,59.89099838,6299f149e92ead563fba08ef,62a440c31be75f39da88f0d3,,,,,,,,,,,,,4,,,,,,,,,,Task,4,(1x5) - 1,4,,,,,,,,,,,,,,,,,,,1,,,,,,,,,,,,,,,,,,,,,,,"[""4""]",1,[1.95900000000006],0,0,0,3,1,,,,,,,,,,,,,,,,,,,,,,,,,,
,,,,,,,,,,,X V Q F H G B L J M P D K C T S W R N Z,5e383a78d03ec6000bb04919,22,Kobieta,2022-06-11_09h14.28.638,task,2021.1.4,Win32,59.89099838,6299f149e92ead563fba08ef,62a440c31be75f39da88f0d3,,,,,,,,,,,,,,,,,,,,,,,,,,,,,,,,,,,,,,,,,,,,,,,,,,,,,,,,,,,,,,,,,,,,,,,,,,,,2,0,2,0,1,,,,,,,,,,,,,,,,,,,,,
