key_resp_15.keys,key_resp_15.rt,key_resp_13.keys,key_resp_13.corr,ranodm_loop.thisRepN,ranodm_loop.thisTrialN,ranodm_loop.thisN,ranodm_loop.thisIndex,ranodm_loop.ran,participant,Wiek*,Płeć,date,expName,psychopyVersion,OS,frameRate,study_id,session,key_resp_13.rt,key_resp_16.keys,key_resp_16.rt,key_resp_4.keys,key_resp_4.rt,next_letter.thisRepN,next_letter.thisTrialN,next_letter.thisN,next_letter.thisIndex,next_letter.ran,letter,simple_recall,key_resp_5.keys,key_resp_5.rt,simple_recall_corr,simple_recall_corrkeys,next_level.thisRepN,next_level.thisTrialN,next_level.thisN,next_level.thisIndex,next_level.ran,key_resp_2.keys,key_resp_2.rt,digit_answer,key_resp.keys,key_resp.corr,key_resp.rt,RT_list,next_equation.thisRepN,next_equation.thisTrialN,next_equation.thisN,next_equation.thisIndex,next_equation.ran,Task,Trial,Problem,Operation_answer,processing_score,sumRT,meanRT,sumdiff,sd,RT,key_resp_3.keys,key_resp_3.rt,repeat_practice.thisRepN,repeat_practice.thisTrialN,repeat_practice.thisN,repeat_practice.thisIndex,repeat_practice.ran,key_resp_6.keys,key_resp_6.rt,key_resp_11.keys,key_resp_11.corr,key_resp_11.rt,operation_correct,repeat_if_wrong_prac.thisRepN,repeat_if_wrong_prac.thisTrialN,repeat_if_wrong_prac.thisN,repeat_if_wrong_prac.thisIndex,repeat_if_wrong_prac.ran,span_size_prac.thisRepN,span_size_prac.thisTrialN,span_size_prac.thisN,span_size_prac.thisIndex,span_size_prac.ran,complex_recall_practice,key_resp_9.keys,key_resp_9.corr,key_resp_9.rt,complex_prac_corr,span_recall_prac.thisRepN,span_recall_prac.thisTrialN,span_recall_prac.thisN,span_recall_prac.thisIndex,span_recall_prac.ran,key_resp_10.keys,key_resp_10.rt,key_resp_7.keys,key_resp_7.corr,key_resp_7.rt,repeat_if_wrong.thisRepN,repeat_if_wrong.thisTrialN,repeat_if_wrong.thisN,repeat_if_wrong.thisIndex,repeat_if_wrong.ran,span_size.thisRepN,span_size.thisTrialN,span_size.thisN,span_size.thisIndex,span_size.ran,complex_recall,key_resp_8.keys,key_resp_8.corr,key_resp_8.rt,complex_recall_corr,complex_recall_corrkeys,span_recall.thisRepN,span_recall.thisTrialN,span_recall.thisN,span_recall.thisIndex,span_recall.ran,key_resp_12.keys,key_resp_12.rt
space,27.1411,,0,0,0,0,0,1,5e404b1dd9609428b4a352c6,41,Kobieta,2022-05-28_08h42.39.621,task,2021.1.4,Win32,59.69792848,628b806c463b948bc644b84f,6291cf7c010c414183a4420b,,,,,,,,,,,,,,,,,,,,,,,,,,,,,,,,,,,,,,,,,,,,,,,,,,,,,,,,,,,,,,,,,,,,,,,,,,,,,,,,,,,,,,,,,,,,,,,,,,,,,,,,
,,"[""comma"",""period""]",0,1,0,1,0,1,5e404b1dd9609428b4a352c6,41,Kobieta,2022-05-28_08h42.39.621,task,2021.1.4,Win32,59.69792848,628b806c463b948bc644b84f,6291cf7c010c414183a4420b,"[0.3495999999046262,0.9222999999523722]",,,,,,,,,,,,,,,,,,,,,,,,,,,,,,,,,,,,,,,,,,,,,,,,,,,,,,,,,,,,,,,,,,,,,,,,,,,,,,,,,,,,,,,,,,,,,,,,,,,,,,,
,,"[""comma""]",0,2,0,2,0,1,5e404b1dd9609428b4a352c6,41,Kobieta,2022-05-28_08h42.39.621,task,2021.1.4,Win32,59.69792848,628b806c463b948bc644b84f,6291cf7c010c414183a4420b,[0.8091999999285804],,,,,,,,,,,,,,,,,,,,,,,,,,,,,,,,,,,,,,,,,,,,,,,,,,,,,,,,,,,,,,,,,,,,,,,,,,,,,,,,,,,,,,,,,,,,,,,,,,,,,,,
,,"[""period""]",0,3,0,3,0,1,5e404b1dd9609428b4a352c6,41,Kobieta,2022-05-28_08h42.39.621,task,2021.1.4,Win32,59.69792848,628b806c463b948bc644b84f,6291cf7c010c414183a4420b,[0.5223999999760736],,,,,,,,,,,,,,,,,,,,,,,,,,,,,,,,,,,,,,,,,,,,,,,,,,,,,,,,,,,,,,,,,,,,,,,,,,,,,,,,,,,,,,,,,,,,,,,,,,,,,,,
,,"[""period""]",0,4,0,4,0,1,5e404b1dd9609428b4a352c6,41,Kobieta,2022-05-28_08h42.39.621,task,2021.1.4,Win32,59.69792848,628b806c463b948bc644b84f,6291cf7c010c414183a4420b,[1.1411000000238118],,,,,,,,,,,,,,,,,,,,,,,,,,,,,,,,,,,,,,,,,,,,,,,,,,,,,,,,,,,,,,,,,,,,,,,,,,,,,,,,,,,,,,,,,,,,,,,,,,,,,,,
,,"[""comma""]",0,5,0,5,0,1,5e404b1dd9609428b4a352c6,41,Kobieta,2022-05-28_08h42.39.621,task,2021.1.4,Win32,59.69792848,628b806c463b948bc644b84f,6291cf7c010c414183a4420b,[0.4351999999283862],,,,,,,,,,,,,,,,,,,,,,,,,,,,,,,,,,,,,,,,,,,,,,,,,,,,,,,,,,,,,,,,,,,,,,,,,,,,,,,,,,,,,,,,,,,,,,,,,,,,,,,
,,"[""period""]",0,6,0,6,0,1,5e404b1dd9609428b4a352c6,41,Kobieta,2022-05-28_08h42.39.621,task,2021.1.4,Win32,59.69792848,628b806c463b948bc644b84f,6291cf7c010c414183a4420b,[0.3933000000714628],,,,,,,,,,,,,,,,,,,,,,,,,,,,,,,,,,,,,,,,,,,,,,,,,,,,,,,,,,,,,,,,,,,,,,,,,,,,,,,,,,,,,,,,,,,,,,,,,,,,,,,
,,"[""comma""]",0,7,0,7,0,1,5e404b1dd9609428b4a352c6,41,Kobieta,2022-05-28_08h42.39.621,task,2021.1.4,Win32,59.69792848,628b806c463b948bc644b84f,6291cf7c010c414183a4420b,[0.34119999992856265],,,,,,,,,,,,,,,,,,,,,,,,,,,,,,,,,,,,,,,,,,,,,,,,,,,,,,,,,,,,,,,,,,,,,,,,,,,,,,,,,,,,,,,,,,,,,,,,,,,,,,,
,,"[""comma""]",0,8,0,8,0,1,5e404b1dd9609428b4a352c6,41,Kobieta,2022-05-28_08h42.39.621,task,2021.1.4,Win32,59.69792848,628b806c463b948bc644b84f,6291cf7c010c414183a4420b,[0.35740000009536743],,,,,,,,,,,,,,,,,,,,,,,,,,,,,,,,,,,,,,,,,,,,,,,,,,,,,,,,,,,,,,,,,,,,,,,,,,,,,,,,,,,,,,,,,,,,,,,,,,,,,,,
,,"[""period""]",0,9,0,9,0,1,5e404b1dd9609428b4a352c6,41,Kobieta,2022-05-28_08h42.39.621,task,2021.1.4,Win32,59.69792848,628b806c463b948bc644b84f,6291cf7c010c414183a4420b,[0.3527000000476619],,,,,,,,,,,,,,,,,,,,,,,,,,,,,,,,,,,,,,,,,,,,,,,,,,,,,,,,,,,,,,,,,,,,,,,,,,,,,,,,,,,,,,,,,,,,,,,,,,,,,,,
,,"[""period""]",0,10,0,10,0,1,5e404b1dd9609428b4a352c6,41,Kobieta,2022-05-28_08h42.39.621,task,2021.1.4,Win32,59.69792848,628b806c463b948bc644b84f,6291cf7c010c414183a4420b,[0.25270000004775284],,,,,,,,,,,,,,,,,,,,,,,,,,,,,,,,,,,,,,,,,,,,,,,,,,,,,,,,,,,,,,,,,,,,,,,,,,,,,,,,,,,,,,,,,,,,,,,,,,,,,,,
,,"[""comma""]",0,11,0,11,0,1,5e404b1dd9609428b4a352c6,41,Kobieta,2022-05-28_08h42.39.621,task,2021.1.4,Win32,59.69792848,628b806c463b948bc644b84f,6291cf7c010c414183a4420b,[0.26869999992845806],,,,,,,,,,,,,,,,,,,,,,,,,,,,,,,,,,,,,,,,,,,,,,,,,,,,,,,,,,,,,,,,,,,,,,,,,,,,,,,,,,,,,,,,,,,,,,,,,,,,,,,
,,"[""period""]",0,12,0,12,0,1,5e404b1dd9609428b4a352c6,41,Kobieta,2022-05-28_08h42.39.621,task,2021.1.4,Win32,59.69792848,628b806c463b948bc644b84f,6291cf7c010c414183a4420b,[0.3581999999285017],,,,,,,,,,,,,,,,,,,,,,,,,,,,,,,,,,,,,,,,,,,,,,,,,,,,,,,,,,,,,,,,,,,,,,,,,,,,,,,,,,,,,,,,,,,,,,,,,,,,,,,
,,"[""comma""]",0,13,0,13,0,1,5e404b1dd9609428b4a352c6,41,Kobieta,2022-05-28_08h42.39.621,task,2021.1.4,Win32,59.69792848,628b806c463b948bc644b84f,6291cf7c010c414183a4420b,[0.2980000000000018],,,,,,,,,,,,,,,,,,,,,,,,,,,,,,,,,,,,,,,,,,,,,,,,,,,,,,,,,,,,,,,,,,,,,,,,,,,,,,,,,,,,,,,,,,,,,,,,,,,,,,,
,,"[""period""]",0,14,0,14,0,1,5e404b1dd9609428b4a352c6,41,Kobieta,2022-05-28_08h42.39.621,task,2021.1.4,Win32,59.69792848,628b806c463b948bc644b84f,6291cf7c010c414183a4420b,[0.6167000000476719],,,,,,,,,,,,,,,,,,,,,,,,,,,,,,,,,,,,,,,,,,,,,,,,,,,,,,,,,,,,,,,,,,,,,,,,,,,,,,,,,,,,,,,,,,,,,,,,,,,,,,,
,,"[""period""]",0,15,0,15,0,1,5e404b1dd9609428b4a352c6,41,Kobieta,2022-05-28_08h42.39.621,task,2021.1.4,Win32,59.69792848,628b806c463b948bc644b84f,6291cf7c010c414183a4420b,[0.39830000007145827],,,,,,,,,,,,,,,,,,,,,,,,,,,,,,,,,,,,,,,,,,,,,,,,,,,,,,,,,,,,,,,,,,,,,,,,,,,,,,,,,,,,,,,,,,,,,,,,,,,,,,,
,,"[""period""]",0,16,0,16,0,1,5e404b1dd9609428b4a352c6,41,Kobieta,2022-05-28_08h42.39.621,task,2021.1.4,Win32,59.69792848,628b806c463b948bc644b84f,6291cf7c010c414183a4420b,[0.5192000000477037],,,,,,,,,,,,,,,,,,,,,,,,,,,,,,,,,,,,,,,,,,,,,,,,,,,,,,,,,,,,,,,,,,,,,,,,,,,,,,,,,,,,,,,,,,,,,,,,,,,,,,,
,,"[""comma""]",0,17,0,17,0,1,5e404b1dd9609428b4a352c6,41,Kobieta,2022-05-28_08h42.39.621,task,2021.1.4,Win32,59.69792848,628b806c463b948bc644b84f,6291cf7c010c414183a4420b,[0.5517000000476173],,,,,,,,,,,,,,,,,,,,,,,,,,,,,,,,,,,,,,,,,,,,,,,,,,,,,,,,,,,,,,,,,,,,,,,,,,,,,,,,,,,,,,,,,,,,,,,,,,,,,,,
,,"[""period""]",0,18,0,18,0,1,5e404b1dd9609428b4a352c6,41,Kobieta,2022-05-28_08h42.39.621,task,2021.1.4,Win32,59.69792848,628b806c463b948bc644b84f,6291cf7c010c414183a4420b,[0.36889999997617906],,,,,,,,,,,,,,,,,,,,,,,,,,,,,,,,,,,,,,,,,,,,,,,,,,,,,,,,,,,,,,,,,,,,,,,,,,,,,,,,,,,,,,,,,,,,,,,,,,,,,,,
,,"[""comma""]",0,19,0,19,0,1,5e404b1dd9609428b4a352c6,41,Kobieta,2022-05-28_08h42.39.621,task,2021.1.4,Win32,59.69792848,628b806c463b948bc644b84f,6291cf7c010c414183a4420b,[0.41210000002377],,,,,,,,,,,,,,,,,,,,,,,,,,,,,,,,,,,,,,,,,,,,,,,,,,,,,,,,,,,,,,,,,,,,,,,,,,,,,,,,,,,,,,,,,,,,,,,,,,,,,,,
,,"[""comma""]",0,20,0,20,0,1,5e404b1dd9609428b4a352c6,41,Kobieta,2022-05-28_08h42.39.621,task,2021.1.4,Win32,59.69792848,628b806c463b948bc644b84f,6291cf7c010c414183a4420b,[0.22479999995221078],,,,,,,,,,,,,,,,,,,,,,,,,,,,,,,,,,,,,,,,,,,,,,,,,,,,,,,,,,,,,,,,,,,,,,,,,,,,,,,,,,,,,,,,,,,,,,,,,,,,,,,
,,"[""period""]",0,21,0,21,0,1,5e404b1dd9609428b4a352c6,41,Kobieta,2022-05-28_08h42.39.621,task,2021.1.4,Win32,59.69792848,628b806c463b948bc644b84f,6291cf7c010c414183a4420b,[0.27220000004774647],,,,,,,,,,,,,,,,,,,,,,,,,,,,,,,,,,,,,,,,,,,,,,,,,,,,,,,,,,,,,,,,,,,,,,,,,,,,,,,,,,,,,,,,,,,,,,,,,,,,,,,
,,"[""period"",""comma""]",0,22,0,22,0,1,5e404b1dd9609428b4a352c6,41,Kobieta,2022-05-28_08h42.39.621,task,2021.1.4,Win32,59.69792848,628b806c463b948bc644b84f,6291cf7c010c414183a4420b,"[0.11779999995223989,1.8331000000238191]",,,,,,,,,,,,,,,,,,,,,,,,,,,,,,,,,,,,,,,,,,,,,,,,,,,,,,,,,,,,,,,,,,,,,,,,,,,,,,,,,,,,,,,,,,,,,,,,,,,,,,,
,,,0,23,0,23,0,1,5e404b1dd9609428b4a352c6,41,Kobieta,2022-05-28_08h42.39.621,task,2021.1.4,Win32,59.69792848,628b806c463b948bc644b84f,6291cf7c010c414183a4420b,,,,,,,,,,,,,,,,,,,,,,,,,,,,,,,,,,,,,,,,,,,,,,,,,,,,,,,,,,,,,,,,,,,,,,,,,,,,,,,,,,,,,,,,,,,,,,,,,,,,,,,,
,,"[""comma""]",0,24,0,24,0,1,5e404b1dd9609428b4a352c6,41,Kobieta,2022-05-28_08h42.39.621,task,2021.1.4,Win32,59.69792848,628b806c463b948bc644b84f,6291cf7c010c414183a4420b,[0.33979999995233356],,,,,,,,,,,,,,,,,,,,,,,,,,,,,,,,,,,,,,,,,,,,,,,,,,,,,,,,,,,,,,,,,,,,,,,,,,,,,,,,,,,,,,,,,,,,,,,,,,,,,,,
,,"[""period""]",0,25,0,25,0,1,5e404b1dd9609428b4a352c6,41,Kobieta,2022-05-28_08h42.39.621,task,2021.1.4,Win32,59.69792848,628b806c463b948bc644b84f,6291cf7c010c414183a4420b,[0.3908000000716356],,,,,,,,,,,,,,,,,,,,,,,,,,,,,,,,,,,,,,,,,,,,,,,,,,,,,,,,,,,,,,,,,,,,,,,,,,,,,,,,,,,,,,,,,,,,,,,,,,,,,,,
,,"[""period""]",0,26,0,26,0,1,5e404b1dd9609428b4a352c6,41,Kobieta,2022-05-28_08h42.39.621,task,2021.1.4,Win32,59.69792848,628b806c463b948bc644b84f,6291cf7c010c414183a4420b,[0.4021000000237791],,,,,,,,,,,,,,,,,,,,,,,,,,,,,,,,,,,,,,,,,,,,,,,,,,,,,,,,,,,,,,,,,,,,,,,,,,,,,,,,,,,,,,,,,,,,,,,,,,,,,,,
,,"[""comma"",""period""]",0,27,0,27,0,1,5e404b1dd9609428b4a352c6,41,Kobieta,2022-05-28_08h42.39.621,task,2021.1.4,Win32,59.69792848,628b806c463b948bc644b84f,6291cf7c010c414183a4420b,"[0.27330000007157196,1.9558000000715765]",,,,,,,,,,,,,,,,,,,,,,,,,,,,,,,,,,,,,,,,,,,,,,,,,,,,,,,,,,,,,,,,,,,,,,,,,,,,,,,,,,,,,,,,,,,,,,,,,,,,,,,
,,,0,28,0,28,0,1,5e404b1dd9609428b4a352c6,41,Kobieta,2022-05-28_08h42.39.621,task,2021.1.4,Win32,59.69792848,628b806c463b948bc644b84f,6291cf7c010c414183a4420b,,,,,,,,,,,,,,,,,,,,,,,,,,,,,,,,,,,,,,,,,,,,,,,,,,,,,,,,,,,,,,,,,,,,,,,,,,,,,,,,,,,,,,,,,,,,,,,,,,,,,,,,
,,"[""comma""]",0,29,0,29,0,1,5e404b1dd9609428b4a352c6,41,Kobieta,2022-05-28_08h42.39.621,task,2021.1.4,Win32,59.69792848,628b806c463b948bc644b84f,6291cf7c010c414183a4420b,[0.29439999997612176],,,,,,,,,,,,,,,,,,,,,,,,,,,,,,,,,,,,,,,,,,,,,,,,,,,,,,,,,,,,,,,,,,,,,,,,,,,,,,,,,,,,,,,,,,,,,,,,,,,,,,,
,,"[""period""]",0,30,0,30,0,1,5e404b1dd9609428b4a352c6,41,Kobieta,2022-05-28_08h42.39.621,task,2021.1.4,Win32,59.69792848,628b806c463b948bc644b84f,6291cf7c010c414183a4420b,[0.24179999995226353],,,,,,,,,,,,,,,,,,,,,,,,,,,,,,,,,,,,,,,,,,,,,,,,,,,,,,,,,,,,,,,,,,,,,,,,,,,,,,,,,,,,,,,,,,,,,,,,,,,,,,,
,,"[""comma""]",0,31,0,31,0,1,5e404b1dd9609428b4a352c6,41,Kobieta,2022-05-28_08h42.39.621,task,2021.1.4,Win32,59.69792848,628b806c463b948bc644b84f,6291cf7c010c414183a4420b,[0.2242999999523363],,,,,,,,,,,,,,,,,,,,,,,,,,,,,,,,,,,,,,,,,,,,,,,,,,,,,,,,,,,,,,,,,,,,,,,,,,,,,,,,,,,,,,,,,,,,,,,,,,,,,,,
,,"[""comma""]",0,32,0,32,0,1,5e404b1dd9609428b4a352c6,41,Kobieta,2022-05-28_08h42.39.621,task,2021.1.4,Win32,59.69792848,628b806c463b948bc644b84f,6291cf7c010c414183a4420b,[0.15120000004776557],,,,,,,,,,,,,,,,,,,,,,,,,,,,,,,,,,,,,,,,,,,,,,,,,,,,,,,,,,,,,,,,,,,,,,,,,,,,,,,,,,,,,,,,,,,,,,,,,,,,,,,
,,"[""period""]",0,33,0,33,0,1,5e404b1dd9609428b4a352c6,41,Kobieta,2022-05-28_08h42.39.621,task,2021.1.4,Win32,59.69792848,628b806c463b948bc644b84f,6291cf7c010c414183a4420b,[0.14910000002385004],,,,,,,,,,,,,,,,,,,,,,,,,,,,,,,,,,,,,,,,,,,,,,,,,,,,,,,,,,,,,,,,,,,,,,,,,,,,,,,,,,,,,,,,,,,,,,,,,,,,,,,
,,"[""period""]",0,34,0,34,0,1,5e404b1dd9609428b4a352c6,41,Kobieta,2022-05-28_08h42.39.621,task,2021.1.4,Win32,59.69792848,628b806c463b948bc644b84f,6291cf7c010c414183a4420b,[0.17190000009532014],,,,,,,,,,,,,,,,,,,,,,,,,,,,,,,,,,,,,,,,,,,,,,,,,,,,,,,,,,,,,,,,,,,,,,,,,,,,,,,,,,,,,,,,,,,,,,,,,,,,,,,
,,"[""comma""]",0,35,0,35,0,1,5e404b1dd9609428b4a352c6,41,Kobieta,2022-05-28_08h42.39.621,task,2021.1.4,Win32,59.69792848,628b806c463b948bc644b84f,6291cf7c010c414183a4420b,[0.384700000047701],,,,,,,,,,,,,,,,,,,,,,,,,,,,,,,,,,,,,,,,,,,,,,,,,,,,,,,,,,,,,,,,,,,,,,,,,,,,,,,,,,,,,,,,,,,,,,,,,,,,,,,
,,"[""period""]",0,36,0,36,0,1,5e404b1dd9609428b4a352c6,41,Kobieta,2022-05-28_08h42.39.621,task,2021.1.4,Win32,59.69792848,628b806c463b948bc644b84f,6291cf7c010c414183a4420b,[0.324800000071491],,,,,,,,,,,,,,,,,,,,,,,,,,,,,,,,,,,,,,,,,,,,,,,,,,,,,,,,,,,,,,,,,,,,,,,,,,,,,,,,,,,,,,,,,,,,,,,,,,,,,,,
,,"[""period""]",0,37,0,37,0,1,5e404b1dd9609428b4a352c6,41,Kobieta,2022-05-28_08h42.39.621,task,2021.1.4,Win32,59.69792848,628b806c463b948bc644b84f,6291cf7c010c414183a4420b,[0.3166999999284599],,,,,,,,,,,,,,,,,,,,,,,,,,,,,,,,,,,,,,,,,,,,,,,,,,,,,,,,,,,,,,,,,,,,,,,,,,,,,,,,,,,,,,,,,,,,,,,,,,,,,,,
,,"[""period""]",0,38,0,38,0,1,5e404b1dd9609428b4a352c6,41,Kobieta,2022-05-28_08h42.39.621,task,2021.1.4,Win32,59.69792848,628b806c463b948bc644b84f,6291cf7c010c414183a4420b,[0.3258999999761727],,,,,,,,,,,,,,,,,,,,,,,,,,,,,,,,,,,,,,,,,,,,,,,,,,,,,,,,,,,,,,,,,,,,,,,,,,,,,,,,,,,,,,,,,,,,,,,,,,,,,,,
,,"[""comma"",""comma""]",0,39,0,39,0,1,5e404b1dd9609428b4a352c6,41,Kobieta,2022-05-28_08h42.39.621,task,2021.1.4,Win32,59.69792848,628b806c463b948bc644b84f,6291cf7c010c414183a4420b,"[0.2788000000714419,1.9468000000714483]",,,,,,,,,,,,,,,,,,,,,,,,,,,,,,,,,,,,,,,,,,,,,,,,,,,,,,,,,,,,,,,,,,,,,,,,,,,,,,,,,,,,,,,,,,,,,,,,,,,,,,,
,,,0,40,0,40,0,1,5e404b1dd9609428b4a352c6,41,Kobieta,2022-05-28_08h42.39.621,task,2021.1.4,Win32,59.69792848,628b806c463b948bc644b84f,6291cf7c010c414183a4420b,,,,,,,,,,,,,,,,,,,,,,,,,,,,,,,,,,,,,,,,,,,,,,,,,,,,,,,,,,,,,,,,,,,,,,,,,,,,,,,,,,,,,,,,,,,,,,,,,,,,,,,,
,,"[""period""]",0,41,0,41,0,1,5e404b1dd9609428b4a352c6,41,Kobieta,2022-05-28_08h42.39.621,task,2021.1.4,Win32,59.69792848,628b806c463b948bc644b84f,6291cf7c010c414183a4420b,[0.24870000004762005],,,,,,,,,,,,,,,,,,,,,,,,,,,,,,,,,,,,,,,,,,,,,,,,,,,,,,,,,,,,,,,,,,,,,,,,,,,,,,,,,,,,,,,,,,,,,,,,,,,,,,,
,,"[""period"",""comma""]",0,42,0,42,0,1,5e404b1dd9609428b4a352c6,41,Kobieta,2022-05-28_08h42.39.621,task,2021.1.4,Win32,59.69792848,628b806c463b948bc644b84f,6291cf7c010c414183a4420b,"[0.003300000071476461,1.797100000023761]",,,,,,,,,,,,,,,,,,,,,,,,,,,,,,,,,,,,,,,,,,,,,,,,,,,,,,,,,,,,,,,,,,,,,,,,,,,,,,,,,,,,,,,,,,,,,,,,,,,,,,,
,,,0,43,0,43,0,1,5e404b1dd9609428b4a352c6,41,Kobieta,2022-05-28_08h42.39.621,task,2021.1.4,Win32,59.69792848,628b806c463b948bc644b84f,6291cf7c010c414183a4420b,,,,,,,,,,,,,,,,,,,,,,,,,,,,,,,,,,,,,,,,,,,,,,,,,,,,,,,,,,,,,,,,,,,,,,,,,,,,,,,,,,,,,,,,,,,,,,,,,,,,,,,,
,,"[""period""]",0,44,0,44,0,1,5e404b1dd9609428b4a352c6,41,Kobieta,2022-05-28_08h42.39.621,task,2021.1.4,Win32,59.69792848,628b806c463b948bc644b84f,6291cf7c010c414183a4420b,[0.2833999999761545],,,,,,,,,,,,,,,,,,,,,,,,,,,,,,,,,,,,,,,,,,,,,,,,,,,,,,,,,,,,,,,,,,,,,,,,,,,,,,,,,,,,,,,,,,,,,,,,,,,,,,,
,,"[""comma""]",0,45,0,45,0,1,5e404b1dd9609428b4a352c6,41,Kobieta,2022-05-28_08h42.39.621,task,2021.1.4,Win32,59.69792848,628b806c463b948bc644b84f,6291cf7c010c414183a4420b,[0.3938000000715647],,,,,,,,,,,,,,,,,,,,,,,,,,,,,,,,,,,,,,,,,,,,,,,,,,,,,,,,,,,,,,,,,,,,,,,,,,,,,,,,,,,,,,,,,,,,,,,,,,,,,,,
,,"[""period""]",0,46,0,46,0,1,5e404b1dd9609428b4a352c6,41,Kobieta,2022-05-28_08h42.39.621,task,2021.1.4,Win32,59.69792848,628b806c463b948bc644b84f,6291cf7c010c414183a4420b,[0.39830000007157196],,,,,,,,,,,,,,,,,,,,,,,,,,,,,,,,,,,,,,,,,,,,,,,,,,,,,,,,,,,,,,,,,,,,,,,,,,,,,,,,,,,,,,,,,,,,,,,,,,,,,,,
,,"[""period""]",0,47,0,47,0,1,5e404b1dd9609428b4a352c6,41,Kobieta,2022-05-28_08h42.39.621,task,2021.1.4,Win32,59.69792848,628b806c463b948bc644b84f,6291cf7c010c414183a4420b,[0.3623999999762191],,,,,,,,,,,,,,,,,,,,,,,,,,,,,,,,,,,,,,,,,,,,,,,,,,,,,,,,,,,,,,,,,,,,,,,,,,,,,,,,,,,,,,,,,,,,,,,,,,,,,,,
,,"[""period""]",0,48,0,48,0,1,5e404b1dd9609428b4a352c6,41,Kobieta,2022-05-28_08h42.39.621,task,2021.1.4,Win32,59.69792848,628b806c463b948bc644b84f,6291cf7c010c414183a4420b,[0.32749999999998636],,,,,,,,,,,,,,,,,,,,,,,,,,,,,,,,,,,,,,,,,,,,,,,,,,,,,,,,,,,,,,,,,,,,,,,,,,,,,,,,,,,,,,,,,,,,,,,,,,,,,,,
,,"[""period""]",0,49,0,49,0,1,5e404b1dd9609428b4a352c6,41,Kobieta,2022-05-28_08h42.39.621,task,2021.1.4,Win32,59.69792848,628b806c463b948bc644b84f,6291cf7c010c414183a4420b,[0.35770000004765734],,,,,,,,,,,,,,,,,,,,,,,,,,,,,,,,,,,,,,,,,,,,,,,,,,,,,,,,,,,,,,,,,,,,,,,,,,,,,,,,,,,,,,,,,,,,,,,,,,,,,,,
,,"[""comma""]",0,50,0,50,0,1,5e404b1dd9609428b4a352c6,41,Kobieta,2022-05-28_08h42.39.621,task,2021.1.4,Win32,59.69792848,628b806c463b948bc644b84f,6291cf7c010c414183a4420b,[0.3498000000714683],,,,,,,,,,,,,,,,,,,,,,,,,,,,,,,,,,,,,,,,,,,,,,,,,,,,,,,,,,,,,,,,,,,,,,,,,,,,,,,,,,,,,,,,,,,,,,,,,,,,,,,
,,"[""comma""]",0,51,0,51,0,1,5e404b1dd9609428b4a352c6,41,Kobieta,2022-05-28_08h42.39.621,task,2021.1.4,Win32,59.69792848,628b806c463b948bc644b84f,6291cf7c010c414183a4420b,[0.31780000007142917],,,,,,,,,,,,,,,,,,,,,,,,,,,,,,,,,,,,,,,,,,,,,,,,,,,,,,,,,,,,,,,,,,,,,,,,,,,,,,,,,,,,,,,,,,,,,,,,,,,,,,,
,,"[""comma""]",0,52,0,52,0,1,5e404b1dd9609428b4a352c6,41,Kobieta,2022-05-28_08h42.39.621,task,2021.1.4,Win32,59.69792848,628b806c463b948bc644b84f,6291cf7c010c414183a4420b,[0.35489999997616906],,,,,,,,,,,,,,,,,,,,,,,,,,,,,,,,,,,,,,,,,,,,,,,,,,,,,,,,,,,,,,,,,,,,,,,,,,,,,,,,,,,,,,,,,,,,,,,,,,,,,,,
,,"[""comma""]",0,53,0,53,0,1,5e404b1dd9609428b4a352c6,41,Kobieta,2022-05-28_08h42.39.621,task,2021.1.4,Win32,59.69792848,628b806c463b948bc644b84f,6291cf7c010c414183a4420b,[0.3105000000000473],,,,,,,,,,,,,,,,,,,,,,,,,,,,,,,,,,,,,,,,,,,,,,,,,,,,,,,,,,,,,,,,,,,,,,,,,,,,,,,,,,,,,,,,,,,,,,,,,,,,,,,
,,"[""period""]",0,54,0,54,0,1,5e404b1dd9609428b4a352c6,41,Kobieta,2022-05-28_08h42.39.621,task,2021.1.4,Win32,59.69792848,628b806c463b948bc644b84f,6291cf7c010c414183a4420b,[0.2707999999522599],,,,,,,,,,,,,,,,,,,,,,,,,,,,,,,,,,,,,,,,,,,,,,,,,,,,,,,,,,,,,,,,,,,,,,,,,,,,,,,,,,,,,,,,,,,,,,,,,,,,,,,
,,"[""period""]",0,55,0,55,0,1,5e404b1dd9609428b4a352c6,41,Kobieta,2022-05-28_08h42.39.621,task,2021.1.4,Win32,59.69792848,628b806c463b948bc644b84f,6291cf7c010c414183a4420b,[0.2953999999762118],,,,,,,,,,,,,,,,,,,,,,,,,,,,,,,,,,,,,,,,,,,,,,,,,,,,,,,,,,,,,,,,,,,,,,,,,,,,,,,,,,,,,,,,,,,,,,,,,,,,,,,
,,"[""period""]",0,56,0,56,0,1,5e404b1dd9609428b4a352c6,41,Kobieta,2022-05-28_08h42.39.621,task,2021.1.4,Win32,59.69792848,628b806c463b948bc644b84f,6291cf7c010c414183a4420b,[0.34050000000002],,,,,,,,,,,,,,,,,,,,,,,,,,,,,,,,,,,,,,,,,,,,,,,,,,,,,,,,,,,,,,,,,,,,,,,,,,,,,,,,,,,,,,,,,,,,,,,,,,,,,,,
,,"[""comma"",""period""]",0,57,0,57,0,1,5e404b1dd9609428b4a352c6,41,Kobieta,2022-05-28_08h42.39.621,task,2021.1.4,Win32,59.69792848,628b806c463b948bc644b84f,6291cf7c010c414183a4420b,"[0.25610000002382094,1.9565000000000055]",,,,,,,,,,,,,,,,,,,,,,,,,,,,,,,,,,,,,,,,,,,,,,,,,,,,,,,,,,,,,,,,,,,,,,,,,,,,,,,,,,,,,,,,,,,,,,,,,,,,,,,
,,,0,58,0,58,0,1,5e404b1dd9609428b4a352c6,41,Kobieta,2022-05-28_08h42.39.621,task,2021.1.4,Win32,59.69792848,628b806c463b948bc644b84f,6291cf7c010c414183a4420b,,,,,,,,,,,,,,,,,,,,,,,,,,,,,,,,,,,,,,,,,,,,,,,,,,,,,,,,,,,,,,,,,,,,,,,,,,,,,,,,,,,,,,,,,,,,,,,,,,,,,,,,
,,"[""comma""]",0,59,0,59,0,1,5e404b1dd9609428b4a352c6,41,Kobieta,2022-05-28_08h42.39.621,task,2021.1.4,Win32,59.69792848,628b806c463b948bc644b84f,6291cf7c010c414183a4420b,[0.2848999999762327],,,,,,,,,,,,,,,,,,,,,,,,,,,,,,,,,,,,,,,,,,,,,,,,,,,,,,,,,,,,,,,,,,,,,,,,,,,,,,,,,,,,,,,,,,,,,,,,,,,,,,,
,,"[""period""]",0,60,0,60,0,1,5e404b1dd9609428b4a352c6,41,Kobieta,2022-05-28_08h42.39.621,task,2021.1.4,Win32,59.69792848,628b806c463b948bc644b84f,6291cf7c010c414183a4420b,[0.1754999999999427],,,,,,,,,,,,,,,,,,,,,,,,,,,,,,,,,,,,,,,,,,,,,,,,,,,,,,,,,,,,,,,,,,,,,,,,,,,,,,,,,,,,,,,,,,,,,,,,,,,,,,,
,,"[""comma""]",0,61,0,61,0,1,5e404b1dd9609428b4a352c6,41,Kobieta,2022-05-28_08h42.39.621,task,2021.1.4,Win32,59.69792848,628b806c463b948bc644b84f,6291cf7c010c414183a4420b,[0.4195000000000846],,,,,,,,,,,,,,,,,,,,,,,,,,,,,,,,,,,,,,,,,,,,,,,,,,,,,,,,,,,,,,,,,,,,,,,,,,,,,,,,,,,,,,,,,,,,,,,,,,,,,,,
,,"[""period""]",0,62,0,62,0,1,5e404b1dd9609428b4a352c6,41,Kobieta,2022-05-28_08h42.39.621,task,2021.1.4,Win32,59.69792848,628b806c463b948bc644b84f,6291cf7c010c414183a4420b,[0.10629999995228445],,,,,,,,,,,,,,,,,,,,,,,,,,,,,,,,,,,,,,,,,,,,,,,,,,,,,,,,,,,,,,,,,,,,,,,,,,,,,,,,,,,,,,,,,,,,,,,,,,,,,,,
,,"[""comma"",""period""]",0,63,0,63,0,1,5e404b1dd9609428b4a352c6,41,Kobieta,2022-05-28_08h42.39.621,task,2021.1.4,Win32,59.69792848,628b806c463b948bc644b84f,6291cf7c010c414183a4420b,"[0.07439999997609448,1.691799999952309]",,,,,,,,,,,,,,,,,,,,,,,,,,,,,,,,,,,,,,,,,,,,,,,,,,,,,,,,,,,,,,,,,,,,,,,,,,,,,,,,,,,,,,,,,,,,,,,,,,,,,,,
,,,0,64,0,64,0,1,5e404b1dd9609428b4a352c6,41,Kobieta,2022-05-28_08h42.39.621,task,2021.1.4,Win32,59.69792848,628b806c463b948bc644b84f,6291cf7c010c414183a4420b,,,,,,,,,,,,,,,,,,,,,,,,,,,,,,,,,,,,,,,,,,,,,,,,,,,,,,,,,,,,,,,,,,,,,,,,,,,,,,,,,,,,,,,,,,,,,,,,,,,,,,,,
,,"[""comma""]",0,65,0,65,0,1,5e404b1dd9609428b4a352c6,41,Kobieta,2022-05-28_08h42.39.621,task,2021.1.4,Win32,59.69792848,628b806c463b948bc644b84f,6291cf7c010c414183a4420b,[0.319600000023911],,,,,,,,,,,,,,,,,,,,,,,,,,,,,,,,,,,,,,,,,,,,,,,,,,,,,,,,,,,,,,,,,,,,,,,,,,,,,,,,,,,,,,,,,,,,,,,,,,,,,,,
,,"[""comma""]",0,66,0,66,0,1,5e404b1dd9609428b4a352c6,41,Kobieta,2022-05-28_08h42.39.621,task,2021.1.4,Win32,59.69792848,628b806c463b948bc644b84f,6291cf7c010c414183a4420b,[0.0006000000238373104],,,,,,,,,,,,,,,,,,,,,,,,,,,,,,,,,,,,,,,,,,,,,,,,,,,,,,,,,,,,,,,,,,,,,,,,,,,,,,,,,,,,,,,,,,,,,,,,,,,,,,,
,,"[""comma""]",0,67,0,67,0,1,5e404b1dd9609428b4a352c6,41,Kobieta,2022-05-28_08h42.39.621,task,2021.1.4,Win32,59.69792848,628b806c463b948bc644b84f,6291cf7c010c414183a4420b,[0.06030000007160652],,,,,,,,,,,,,,,,,,,,,,,,,,,,,,,,,,,,,,,,,,,,,,,,,,,,,,,,,,,,,,,,,,,,,,,,,,,,,,,,,,,,,,,,,,,,,,,,,,,,,,,
,,"[""period""]",0,68,0,68,0,1,5e404b1dd9609428b4a352c6,41,Kobieta,2022-05-28_08h42.39.621,task,2021.1.4,Win32,59.69792848,628b806c463b948bc644b84f,6291cf7c010c414183a4420b,[0.26780000007147464],,,,,,,,,,,,,,,,,,,,,,,,,,,,,,,,,,,,,,,,,,,,,,,,,,,,,,,,,,,,,,,,,,,,,,,,,,,,,,,,,,,,,,,,,,,,,,,,,,,,,,,
,,"[""period""]",0,69,0,69,0,1,5e404b1dd9609428b4a352c6,41,Kobieta,2022-05-28_08h42.39.621,task,2021.1.4,Win32,59.69792848,628b806c463b948bc644b84f,6291cf7c010c414183a4420b,[0.33010000002389006],,,,,,,,,,,,,,,,,,,,,,,,,,,,,,,,,,,,,,,,,,,,,,,,,,,,,,,,,,,,,,,,,,,,,,,,,,,,,,,,,,,,,,,,,,,,,,,,,,,,,,,
,,"[""period""]",0,70,0,70,0,1,5e404b1dd9609428b4a352c6,41,Kobieta,2022-05-28_08h42.39.621,task,2021.1.4,Win32,59.69792848,628b806c463b948bc644b84f,6291cf7c010c414183a4420b,[0.3421999999284253],,,,,,,,,,,,,,,,,,,,,,,,,,,,,,,,,,,,,,,,,,,,,,,,,,,,,,,,,,,,,,,,,,,,,,,,,,,,,,,,,,,,,,,,,,,,,,,,,,,,,,,
,,"[""comma""]",0,71,0,71,0,1,5e404b1dd9609428b4a352c6,41,Kobieta,2022-05-28_08h42.39.621,task,2021.1.4,Win32,59.69792848,628b806c463b948bc644b84f,6291cf7c010c414183a4420b,[0.3177000000476937],,,,,,,,,,,,,,,,,,,,,,,,,,,,,,,,,,,,,,,,,,,,,,,,,,,,,,,,,,,,,,,,,,,,,,,,,,,,,,,,,,,,,,,,,,,,,,,,,,,,,,,
,,"[""comma""]",0,72,0,72,0,1,5e404b1dd9609428b4a352c6,41,Kobieta,2022-05-28_08h42.39.621,task,2021.1.4,Win32,59.69792848,628b806c463b948bc644b84f,6291cf7c010c414183a4420b,[0.24149999999997362],,,,,,,,,,,,,,,,,,,,,,,,,,,,,,,,,,,,,,,,,,,,,,,,,,,,,,,,,,,,,,,,,,,,,,,,,,,,,,,,,,,,,,,,,,,,,,,,,,,,,,,
,,"[""comma"",""period""]",0,73,0,73,0,1,5e404b1dd9609428b4a352c6,41,Kobieta,2022-05-28_08h42.39.621,task,2021.1.4,Win32,59.69792848,628b806c463b948bc644b84f,6291cf7c010c414183a4420b,"[0.034899999976119034,1.6871999999284526]",,,,,,,,,,,,,,,,,,,,,,,,,,,,,,,,,,,,,,,,,,,,,,,,,,,,,,,,,,,,,,,,,,,,,,,,,,,,,,,,,,,,,,,,,,,,,,,,,,,,,,,
,,"[""period""]",0,74,0,74,0,1,5e404b1dd9609428b4a352c6,41,Kobieta,2022-05-28_08h42.39.621,task,2021.1.4,Win32,59.69792848,628b806c463b948bc644b84f,6291cf7c010c414183a4420b,[1.58560000002376],,,,,,,,,,,,,,,,,,,,,,,,,,,,,,,,,,,,,,,,,,,,,,,,,,,,,,,,,,,,,,,,,,,,,,,,,,,,,,,,,,,,,,,,,,,,,,,,,,,,,,,
,,,0,75,0,75,0,1,5e404b1dd9609428b4a352c6,41,Kobieta,2022-05-28_08h42.39.621,task,2021.1.4,Win32,59.69792848,628b806c463b948bc644b84f,6291cf7c010c414183a4420b,,,,,,,,,,,,,,,,,,,,,,,,,,,,,,,,,,,,,,,,,,,,,,,,,,,,,,,,,,,,,,,,,,,,,,,,,,,,,,,,,,,,,,,,,,,,,,,,,,,,,,,,
,,"[""period""]",0,76,0,76,0,1,5e404b1dd9609428b4a352c6,41,Kobieta,2022-05-28_08h42.39.621,task,2021.1.4,Win32,59.69792848,628b806c463b948bc644b84f,6291cf7c010c414183a4420b,[0.1404000000953829],,,,,,,,,,,,,,,,,,,,,,,,,,,,,,,,,,,,,,,,,,,,,,,,,,,,,,,,,,,,,,,,,,,,,,,,,,,,,,,,,,,,,,,,,,,,,,,,,,,,,,,
,,"[""comma""]",0,77,0,77,0,1,5e404b1dd9609428b4a352c6,41,Kobieta,2022-05-28_08h42.39.621,task,2021.1.4,Win32,59.69792848,628b806c463b948bc644b84f,6291cf7c010c414183a4420b,[0.3092999999523727],,,,,,,,,,,,,,,,,,,,,,,,,,,,,,,,,,,,,,,,,,,,,,,,,,,,,,,,,,,,,,,,,,,,,,,,,,,,,,,,,,,,,,,,,,,,,,,,,,,,,,,
,,"[""period""]",0,78,0,78,0,1,5e404b1dd9609428b4a352c6,41,Kobieta,2022-05-28_08h42.39.621,task,2021.1.4,Win32,59.69792848,628b806c463b948bc644b84f,6291cf7c010c414183a4420b,[0.4606000000238737],,,,,,,,,,,,,,,,,,,,,,,,,,,,,,,,,,,,,,,,,,,,,,,,,,,,,,,,,,,,,,,,,,,,,,,,,,,,,,,,,,,,,,,,,,,,,,,,,,,,,,,
,,"[""comma""]",0,79,0,79,0,1,5e404b1dd9609428b4a352c6,41,Kobieta,2022-05-28_08h42.39.621,task,2021.1.4,Win32,59.69792848,628b806c463b948bc644b84f,6291cf7c010c414183a4420b,[0.40370000004759277],,,,,,,,,,,,,,,,,,,,,,,,,,,,,,,,,,,,,,,,,,,,,,,,,,,,,,,,,,,,,,,,,,,,,,,,,,,,,,,,,,,,,,,,,,,,,,,,,,,,,,,
,,"[""period""]",0,80,0,80,0,1,5e404b1dd9609428b4a352c6,41,Kobieta,2022-05-28_08h42.39.621,task,2021.1.4,Win32,59.69792848,628b806c463b948bc644b84f,6291cf7c010c414183a4420b,[0.9515999999047153],,,,,,,,,,,,,,,,,,,,,,,,,,,,,,,,,,,,,,,,,,,,,,,,,,,,,,,,,,,,,,,,,,,,,,,,,,,,,,,,,,,,,,,,,,,,,,,,,,,,,,,
,,"[""comma""]",0,81,0,81,0,1,5e404b1dd9609428b4a352c6,41,Kobieta,2022-05-28_08h42.39.621,task,2021.1.4,Win32,59.69792848,628b806c463b948bc644b84f,6291cf7c010c414183a4420b,[0.9100000000000819],,,,,,,,,,,,,,,,,,,,,,,,,,,,,,,,,,,,,,,,,,,,,,,,,,,,,,,,,,,,,,,,,,,,,,,,,,,,,,,,,,,,,,,,,,,,,,,,,,,,,,,
,,"[""period""]",0,82,0,82,0,1,5e404b1dd9609428b4a352c6,41,Kobieta,2022-05-28_08h42.39.621,task,2021.1.4,Win32,59.69792848,628b806c463b948bc644b84f,6291cf7c010c414183a4420b,[0.5677999999522854],,,,,,,,,,,,,,,,,,,,,,,,,,,,,,,,,,,,,,,,,,,,,,,,,,,,,,,,,,,,,,,,,,,,,,,,,,,,,,,,,,,,,,,,,,,,,,,,,,,,,,,
,,"[""period""]",0,83,0,83,0,1,5e404b1dd9609428b4a352c6,41,Kobieta,2022-05-28_08h42.39.621,task,2021.1.4,Win32,59.69792848,628b806c463b948bc644b84f,6291cf7c010c414183a4420b,[1.6027000000476619],,,,,,,,,,,,,,,,,,,,,,,,,,,,,,,,,,,,,,,,,,,,,,,,,,,,,,,,,,,,,,,,,,,,,,,,,,,,,,,,,,,,,,,,,,,,,,,,,,,,,,,
,,,0,84,0,84,0,1,5e404b1dd9609428b4a352c6,41,Kobieta,2022-05-28_08h42.39.621,task,2021.1.4,Win32,59.69792848,628b806c463b948bc644b84f,6291cf7c010c414183a4420b,,,,,,,,,,,,,,,,,,,,,,,,,,,,,,,,,,,,,,,,,,,,,,,,,,,,,,,,,,,,,,,,,,,,,,,,,,,,,,,,,,,,,,,,,,,,,,,,,,,,,,,,
,,"[""period""]",0,85,0,85,0,1,5e404b1dd9609428b4a352c6,41,Kobieta,2022-05-28_08h42.39.621,task,2021.1.4,Win32,59.69792848,628b806c463b948bc644b84f,6291cf7c010c414183a4420b,[0.2202999999523172],,,,,,,,,,,,,,,,,,,,,,,,,,,,,,,,,,,,,,,,,,,,,,,,,,,,,,,,,,,,,,,,,,,,,,,,,,,,,,,,,,,,,,,,,,,,,,,,,,,,,,,
,,"[""period""]",0,86,0,86,0,1,5e404b1dd9609428b4a352c6,41,Kobieta,2022-05-28_08h42.39.621,task,2021.1.4,Win32,59.69792848,628b806c463b948bc644b84f,6291cf7c010c414183a4420b,[0.45479999995234266],,,,,,,,,,,,,,,,,,,,,,,,,,,,,,,,,,,,,,,,,,,,,,,,,,,,,,,,,,,,,,,,,,,,,,,,,,,,,,,,,,,,,,,,,,,,,,,,,,,,,,,
,,"[""comma""]",0,87,0,87,0,1,5e404b1dd9609428b4a352c6,41,Kobieta,2022-05-28_08h42.39.621,task,2021.1.4,Win32,59.69792848,628b806c463b948bc644b84f,6291cf7c010c414183a4420b,[0.23449999999991178],,,,,,,,,,,,,,,,,,,,,,,,,,,,,,,,,,,,,,,,,,,,,,,,,,,,,,,,,,,,,,,,,,,,,,,,,,,,,,,,,,,,,,,,,,,,,,,,,,,,,,,
,,"[""comma""]",0,88,0,88,0,1,5e404b1dd9609428b4a352c6,41,Kobieta,2022-05-28_08h42.39.621,task,2021.1.4,Win32,59.69792848,628b806c463b948bc644b84f,6291cf7c010c414183a4420b,[0.26329999995232356],,,,,,,,,,,,,,,,,,,,,,,,,,,,,,,,,,,,,,,,,,,,,,,,,,,,,,,,,,,,,,,,,,,,,,,,,,,,,,,,,,,,,,,,,,,,,,,,,,,,,,,
,,"[""comma""]",0,89,0,89,0,1,5e404b1dd9609428b4a352c6,41,Kobieta,2022-05-28_08h42.39.621,task,2021.1.4,Win32,59.69792848,628b806c463b948bc644b84f,6291cf7c010c414183a4420b,[0.37999999999999545],,,,,,,,,,,,,,,,,,,,,,,,,,,,,,,,,,,,,,,,,,,,,,,,,,,,,,,,,,,,,,,,,,,,,,,,,,,,,,,,,,,,,,,,,,,,,,,,,,,,,,,
,,"[""period""]",0,90,0,90,0,1,5e404b1dd9609428b4a352c6,41,Kobieta,2022-05-28_08h42.39.621,task,2021.1.4,Win32,59.69792848,628b806c463b948bc644b84f,6291cf7c010c414183a4420b,[0.35339999997609084],,,,,,,,,,,,,,,,,,,,,,,,,,,,,,,,,,,,,,,,,,,,,,,,,,,,,,,,,,,,,,,,,,,,,,,,,,,,,,,,,,,,,,,,,,,,,,,,,,,,,,,
,,"[""period""]",0,91,0,91,0,1,5e404b1dd9609428b4a352c6,41,Kobieta,2022-05-28_08h42.39.621,task,2021.1.4,Win32,59.69792848,628b806c463b948bc644b84f,6291cf7c010c414183a4420b,[0.3846999999284435],,,,,,,,,,,,,,,,,,,,,,,,,,,,,,,,,,,,,,,,,,,,,,,,,,,,,,,,,,,,,,,,,,,,,,,,,,,,,,,,,,,,,,,,,,,,,,,,,,,,,,,
,,"[""period""]",0,92,0,92,0,1,5e404b1dd9609428b4a352c6,41,Kobieta,2022-05-28_08h42.39.621,task,2021.1.4,Win32,59.69792848,628b806c463b948bc644b84f,6291cf7c010c414183a4420b,[0.41770000004771646],,,,,,,,,,,,,,,,,,,,,,,,,,,,,,,,,,,,,,,,,,,,,,,,,,,,,,,,,,,,,,,,,,,,,,,,,,,,,,,,,,,,,,,,,,,,,,,,,,,,,,,
,,"[""comma""]",0,93,0,93,0,1,5e404b1dd9609428b4a352c6,41,Kobieta,2022-05-28_08h42.39.621,task,2021.1.4,Win32,59.69792848,628b806c463b948bc644b84f,6291cf7c010c414183a4420b,[0.1426999999284817],,,,,,,,,,,,,,,,,,,,,,,,,,,,,,,,,,,,,,,,,,,,,,,,,,,,,,,,,,,,,,,,,,,,,,,,,,,,,,,,,,,,,,,,,,,,,,,,,,,,,,,
,,"[""comma""]",0,94,0,94,0,1,5e404b1dd9609428b4a352c6,41,Kobieta,2022-05-28_08h42.39.621,task,2021.1.4,Win32,59.69792848,628b806c463b948bc644b84f,6291cf7c010c414183a4420b,[0.2776999999284726],,,,,,,,,,,,,,,,,,,,,,,,,,,,,,,,,,,,,,,,,,,,,,,,,,,,,,,,,,,,,,,,,,,,,,,,,,,,,,,,,,,,,,,,,,,,,,,,,,,,,,,
,,"[""comma""]",0,95,0,95,0,1,5e404b1dd9609428b4a352c6,41,Kobieta,2022-05-28_08h42.39.621,task,2021.1.4,Win32,59.69792848,628b806c463b948bc644b84f,6291cf7c010c414183a4420b,[0.418699999928549],,,,,,,,,,,,,,,,,,,,,,,,,,,,,,,,,,,,,,,,,,,,,,,,,,,,,,,,,,,,,,,,,,,,,,,,,,,,,,,,,,,,,,,,,,,,,,,,,,,,,,,
,,"[""period""]",0,96,0,96,0,1,5e404b1dd9609428b4a352c6,41,Kobieta,2022-05-28_08h42.39.621,task,2021.1.4,Win32,59.69792848,628b806c463b948bc644b84f,6291cf7c010c414183a4420b,[0.39369999992845806],,,,,,,,,,,,,,,,,,,,,,,,,,,,,,,,,,,,,,,,,,,,,,,,,,,,,,,,,,,,,,,,,,,,,,,,,,,,,,,,,,,,,,,,,,,,,,,,,,,,,,,
,,"[""comma""]",0,97,0,97,0,1,5e404b1dd9609428b4a352c6,41,Kobieta,2022-05-28_08h42.39.621,task,2021.1.4,Win32,59.69792848,628b806c463b948bc644b84f,6291cf7c010c414183a4420b,[0.38889999997616087],,,,,,,,,,,,,,,,,,,,,,,,,,,,,,,,,,,,,,,,,,,,,,,,,,,,,,,,,,,,,,,,,,,,,,,,,,,,,,,,,,,,,,,,,,,,,,,,,,,,,,,
,,"[""period""]",0,98,0,98,0,1,5e404b1dd9609428b4a352c6,41,Kobieta,2022-05-28_08h42.39.621,task,2021.1.4,Win32,59.69792848,628b806c463b948bc644b84f,6291cf7c010c414183a4420b,[0.30599999999992633],,,,,,,,,,,,,,,,,,,,,,,,,,,,,,,,,,,,,,,,,,,,,,,,,,,,,,,,,,,,,,,,,,,,,,,,,,,,,,,,,,,,,,,,,,,,,,,,,,,,,,,
,,"[""comma""]",0,99,0,99,0,1,5e404b1dd9609428b4a352c6,41,Kobieta,2022-05-28_08h42.39.621,task,2021.1.4,Win32,59.69792848,628b806c463b948bc644b84f,6291cf7c010c414183a4420b,[0.3369999999999891],,,,,,,,,,,,,,,,,,,,,,,,,,,,,,,,,,,,,,,,,,,,,,,,,,,,,,,,,,,,,,,,,,,,,,,,,,,,,,,,,,,,,,,,,,,,,,,,,,,,,,,
,,"[""period""]",0,100,0,100,0,1,5e404b1dd9609428b4a352c6,41,Kobieta,2022-05-28_08h42.39.621,task,2021.1.4,Win32,59.69792848,628b806c463b948bc644b84f,6291cf7c010c414183a4420b,[0.3233999999762318],,,,,,,,,,,,,,,,,,,,,,,,,,,,,,,,,,,,,,,,,,,,,,,,,,,,,,,,,,,,,,,,,,,,,,,,,,,,,,,,,,,,,,,,,,,,,,,,,,,,,,,
,,"[""comma""]",0,101,0,101,0,1,5e404b1dd9609428b4a352c6,41,Kobieta,2022-05-28_08h42.39.621,task,2021.1.4,Win32,59.69792848,628b806c463b948bc644b84f,6291cf7c010c414183a4420b,[0.21970000004773738],,,,,,,,,,,,,,,,,,,,,,,,,,,,,,,,,,,,,,,,,,,,,,,,,,,,,,,,,,,,,,,,,,,,,,,,,,,,,,,,,,,,,,,,,,,,,,,,,,,,,,,
,,"[""period""]",0,102,0,102,0,1,5e404b1dd9609428b4a352c6,41,Kobieta,2022-05-28_08h42.39.621,task,2021.1.4,Win32,59.69792848,628b806c463b948bc644b84f,6291cf7c010c414183a4420b,[0.36079999995229173],,,,,,,,,,,,,,,,,,,,,,,,,,,,,,,,,,,,,,,,,,,,,,,,,,,,,,,,,,,,,,,,,,,,,,,,,,,,,,,,,,,,,,,,,,,,,,,,,,,,,,,
,,"[""comma""]",0,103,0,103,0,1,5e404b1dd9609428b4a352c6,41,Kobieta,2022-05-28_08h42.39.621,task,2021.1.4,Win32,59.69792848,628b806c463b948bc644b84f,6291cf7c010c414183a4420b,[0.24280000007149738],,,,,,,,,,,,,,,,,,,,,,,,,,,,,,,,,,,,,,,,,,,,,,,,,,,,,,,,,,,,,,,,,,,,,,,,,,,,,,,,,,,,,,,,,,,,,,,,,,,,,,,
,,"[""period""]",0,104,0,104,0,1,5e404b1dd9609428b4a352c6,41,Kobieta,2022-05-28_08h42.39.621,task,2021.1.4,Win32,59.69792848,628b806c463b948bc644b84f,6291cf7c010c414183a4420b,[0.3677999999522399],,,,,,,,,,,,,,,,,,,,,,,,,,,,,,,,,,,,,,,,,,,,,,,,,,,,,,,,,,,,,,,,,,,,,,,,,,,,,,,,,,,,,,,,,,,,,,,,,,,,,,,
,,"[""period""]",0,105,0,105,0,1,5e404b1dd9609428b4a352c6,41,Kobieta,2022-05-28_08h42.39.621,task,2021.1.4,Win32,59.69792848,628b806c463b948bc644b84f,6291cf7c010c414183a4420b,[0.37860000002388006],,,,,,,,,,,,,,,,,,,,,,,,,,,,,,,,,,,,,,,,,,,,,,,,,,,,,,,,,,,,,,,,,,,,,,,,,,,,,,,,,,,,,,,,,,,,,,,,,,,,,,,
,,"[""period""]",0,106,0,106,0,1,5e404b1dd9609428b4a352c6,41,Kobieta,2022-05-28_08h42.39.621,task,2021.1.4,Win32,59.69792848,628b806c463b948bc644b84f,6291cf7c010c414183a4420b,[0.4251999999283953],,,,,,,,,,,,,,,,,,,,,,,,,,,,,,,,,,,,,,,,,,,,,,,,,,,,,,,,,,,,,,,,,,,,,,,,,,,,,,,,,,,,,,,,,,,,,,,,,,,,,,,
,,"[""period""]",0,107,0,107,0,1,5e404b1dd9609428b4a352c6,41,Kobieta,2022-05-28_08h42.39.621,task,2021.1.4,Win32,59.69792848,628b806c463b948bc644b84f,6291cf7c010c414183a4420b,[0.21129999995230264],,,,,,,,,,,,,,,,,,,,,,,,,,,,,,,,,,,,,,,,,,,,,,,,,,,,,,,,,,,,,,,,,,,,,,,,,,,,,,,,,,,,,,,,,,,,,,,,,,,,,,,
,,"[""period""]",0,108,0,108,0,1,5e404b1dd9609428b4a352c6,41,Kobieta,2022-05-28_08h42.39.621,task,2021.1.4,Win32,59.69792848,628b806c463b948bc644b84f,6291cf7c010c414183a4420b,[0.4113000000714919],,,,,,,,,,,,,,,,,,,,,,,,,,,,,,,,,,,,,,,,,,,,,,,,,,,,,,,,,,,,,,,,,,,,,,,,,,,,,,,,,,,,,,,,,,,,,,,,,,,,,,,
,,"[""comma""]",0,109,0,109,0,1,5e404b1dd9609428b4a352c6,41,Kobieta,2022-05-28_08h42.39.621,task,2021.1.4,Win32,59.69792848,628b806c463b948bc644b84f,6291cf7c010c414183a4420b,[0.3267999999524136],,,,,,,,,,,,,,,,,,,,,,,,,,,,,,,,,,,,,,,,,,,,,,,,,,,,,,,,,,,,,,,,,,,,,,,,,,,,,,,,,,,,,,,,,,,,,,,,,,,,,,,
,,"[""comma"",""comma""]",0,110,0,110,0,1,5e404b1dd9609428b4a352c6,41,Kobieta,2022-05-28_08h42.39.621,task,2021.1.4,Win32,59.69792848,628b806c463b948bc644b84f,6291cf7c010c414183a4420b,"[0.4230000000000018,1.96939999997619]",,,,,,,,,,,,,,,,,,,,,,,,,,,,,,,,,,,,,,,,,,,,,,,,,,,,,,,,,,,,,,,,,,,,,,,,,,,,,,,,,,,,,,,,,,,,,,,,,,,,,,,
,,,0,111,0,111,0,1,5e404b1dd9609428b4a352c6,41,Kobieta,2022-05-28_08h42.39.621,task,2021.1.4,Win32,59.69792848,628b806c463b948bc644b84f,6291cf7c010c414183a4420b,,,,,,,,,,,,,,,,,,,,,,,,,,,,,,,,,,,,,,,,,,,,,,,,,,,,,,,,,,,,,,,,,,,,,,,,,,,,,,,,,,,,,,,,,,,,,,,,,,,,,,,,
,,"[""comma""]",0,112,0,112,0,1,5e404b1dd9609428b4a352c6,41,Kobieta,2022-05-28_08h42.39.621,task,2021.1.4,Win32,59.69792848,628b806c463b948bc644b84f,6291cf7c010c414183a4420b,[0.3204999999999245],,,,,,,,,,,,,,,,,,,,,,,,,,,,,,,,,,,,,,,,,,,,,,,,,,,,,,,,,,,,,,,,,,,,,,,,,,,,,,,,,,,,,,,,,,,,,,,,,,,,,,,
,,"[""comma"",""period""]",0,113,0,113,0,1,5e404b1dd9609428b4a352c6,41,Kobieta,2022-05-28_08h42.39.621,task,2021.1.4,Win32,59.69792848,628b806c463b948bc644b84f,6291cf7c010c414183a4420b,"[0.31429999995225444,1.9470999999045944]",,,,,,,,,,,,,,,,,,,,,,,,,,,,,,,,,,,,,,,,,,,,,,,,,,,,,,,,,,,,,,,,,,,,,,,,,,,,,,,,,,,,,,,,,,,,,,,,,,,,,,,
,,,0,114,0,114,0,1,5e404b1dd9609428b4a352c6,41,Kobieta,2022-05-28_08h42.39.621,task,2021.1.4,Win32,59.69792848,628b806c463b948bc644b84f,6291cf7c010c414183a4420b,,,,,,,,,,,,,,,,,,,,,,,,,,,,,,,,,,,,,,,,,,,,,,,,,,,,,,,,,,,,,,,,,,,,,,,,,,,,,,,,,,,,,,,,,,,,,,,,,,,,,,,,
,,"[""period""]",0,115,0,115,0,1,5e404b1dd9609428b4a352c6,41,Kobieta,2022-05-28_08h42.39.621,task,2021.1.4,Win32,59.69792848,628b806c463b948bc644b84f,6291cf7c010c414183a4420b,[0.27720000004762824],,,,,,,,,,,,,,,,,,,,,,,,,,,,,,,,,,,,,,,,,,,,,,,,,,,,,,,,,,,,,,,,,,,,,,,,,,,,,,,,,,,,,,,,,,,,,,,,,,,,,,,
,,"[""period""]",0,116,0,116,0,1,5e404b1dd9609428b4a352c6,41,Kobieta,2022-05-28_08h42.39.621,task,2021.1.4,Win32,59.69792848,628b806c463b948bc644b84f,6291cf7c010c414183a4420b,[0.3608000000715492],,,,,,,,,,,,,,,,,,,,,,,,,,,,,,,,,,,,,,,,,,,,,,,,,,,,,,,,,,,,,,,,,,,,,,,,,,,,,,,,,,,,,,,,,,,,,,,,,,,,,,,
,,"[""period""]",0,117,0,117,0,1,5e404b1dd9609428b4a352c6,41,Kobieta,2022-05-28_08h42.39.621,task,2021.1.4,Win32,59.69792848,628b806c463b948bc644b84f,6291cf7c010c414183a4420b,[0.36319999992849716],,,,,,,,,,,,,,,,,,,,,,,,,,,,,,,,,,,,,,,,,,,,,,,,,,,,,,,,,,,,,,,,,,,,,,,,,,,,,,,,,,,,,,,,,,,,,,,,,,,,,,,
,,"[""period""]",0,118,0,118,0,1,5e404b1dd9609428b4a352c6,41,Kobieta,2022-05-28_08h42.39.621,task,2021.1.4,Win32,59.69792848,628b806c463b948bc644b84f,6291cf7c010c414183a4420b,[0.3556000000238555],,,,,,,,,,,,,,,,,,,,,,,,,,,,,,,,,,,,,,,,,,,,,,,,,,,,,,,,,,,,,,,,,,,,,,,,,,,,,,,,,,,,,,,,,,,,,,,,,,,,,,,
,,"[""period""]",0,119,0,119,0,1,5e404b1dd9609428b4a352c6,41,Kobieta,2022-05-28_08h42.39.621,task,2021.1.4,Win32,59.69792848,628b806c463b948bc644b84f,6291cf7c010c414183a4420b,[0.48329999995235084],,,,,,,,,,,,,,,,,,,,,,,,,,,,,,,,,,,,,,,,,,,,,,,,,,,,,,,,,,,,,,,,,,,,,,,,,,,,,,,,,,,,,,,,,,,,,,,,,,,,,,,
,,,,,,,,,5e404b1dd9609428b4a352c6,41,Kobieta,2022-05-28_08h42.39.621,task,2021.1.4,Win32,59.69792848,628b806c463b948bc644b84f,6291cf7c010c414183a4420b,,space,53.7923,space,32.8648,0,0,0,0,1,"X V Q F H G B L J M P D K C T S W R N Z
",,,,,,,,,,,,,,,,,,,,,,,,,,,,,,,,,,,,,,,,,,,,,,,,,,,,,,,,,,,,,,,,,,,,,,,,,,,,,,,,,,,,,,,,,,,,,
,,,,,,,,,5e404b1dd9609428b4a352c6,41,Kobieta,2022-05-28_08h42.39.621,task,2021.1.4,Win32,59.69792848,628b806c463b948bc644b84f,6291cf7c010c414183a4420b,,,,,,1,0,1,0,1,"X V Q F H G B L J M P D K C T S W R N Z
",,,,,,,,,,,,,,,,,,,,,,,,,,,,,,,,,,,,,,,,,,,,,,,,,,,,,,,,,,,,,,,,,,,,,,,,,,,,,,,,,,,,,,,,,,,,,
,,,,,,,,,5e404b1dd9609428b4a352c6,41,Kobieta,2022-05-28_08h42.39.621,task,2021.1.4,Win32,59.69792848,628b806c463b948bc644b84f,6291cf7c010c414183a4420b,,,,,,,,,,,,zk,"[""z"",""k""]","[3.156100000023912,3.7347000000477237,11.207100000023843]",1,ZK,0,0,0,0,1,,,,,,,,,,,,,,,,,,,,,,,,,,,,,,,,,,,,,,,,,,,,,,,,,,,,,,,,,,,,,,,,,,,,,,,,,,,,,,,,,,,
,,,,,,,,,5e404b1dd9609428b4a352c6,41,Kobieta,2022-05-28_08h42.39.621,task,2021.1.4,Win32,59.69792848,628b806c463b948bc644b84f,6291cf7c010c414183a4420b,,,,,,0,0,0,0,1,"X V Q F H G B L J M P D K C T S W R N Z
",,,,,,,,,,,,,,,,,,,,,,,,,,,,,,,,,,,,,,,,,,,,,,,,,,,,,,,,,,,,,,,,,,,,,,,,,,,,,,,,,,,,,,,,,,,,,
,,,,,,,,,5e404b1dd9609428b4a352c6,41,Kobieta,2022-05-28_08h42.39.621,task,2021.1.4,Win32,59.69792848,628b806c463b948bc644b84f,6291cf7c010c414183a4420b,,,,,,1,0,1,0,1,"X V Q F H G B L J M P D K C T S W R N Z
",,,,,,,,,,,,,,,,,,,,,,,,,,,,,,,,,,,,,,,,,,,,,,,,,,,,,,,,,,,,,,,,,,,,,,,,,,,,,,,,,,,,,,,,,,,,,
,,,,,,,,,5e404b1dd9609428b4a352c6,41,Kobieta,2022-05-28_08h42.39.621,task,2021.1.4,Win32,59.69792848,628b806c463b948bc644b84f,6291cf7c010c414183a4420b,,,,,,,,,,,,bf,"[""b"",""f""]","[1.9547999999523427,2.372799999952349,4.563499999999976]",1,BF,1,0,1,0,1,,,,,,,,,,,,,,,,,,,,,,,,,,,,,,,,,,,,,,,,,,,,,,,,,,,,,,,,,,,,,,,,,,,,,,,,,,,,,,,,,,,
,,,,,,,,,5e404b1dd9609428b4a352c6,41,Kobieta,2022-05-28_08h42.39.621,task,2021.1.4,Win32,59.69792848,628b806c463b948bc644b84f,6291cf7c010c414183a4420b,,,,,,0,0,0,0,1,"X V Q F H G B L J M P D K C T S W R N Z
",,,,,,,,,,,,,,,,,,,,,,,,,,,,,,,,,,,,,,,,,,,,,,,,,,,,,,,,,,,,,,,,,,,,,,,,,,,,,,,,,,,,,,,,,,,,,
,,,,,,,,,5e404b1dd9609428b4a352c6,41,Kobieta,2022-05-28_08h42.39.621,task,2021.1.4,Win32,59.69792848,628b806c463b948bc644b84f,6291cf7c010c414183a4420b,,,,,,1,0,1,0,1,"X V Q F H G B L J M P D K C T S W R N Z
",,,,,,,,,,,,,,,,,,,,,,,,,,,,,,,,,,,,,,,,,,,,,,,,,,,,,,,,,,,,,,,,,,,,,,,,,,,,,,,,,,,,,,,,,,,,,
,,,,,,,,,5e404b1dd9609428b4a352c6,41,Kobieta,2022-05-28_08h42.39.621,task,2021.1.4,Win32,59.69792848,628b806c463b948bc644b84f,6291cf7c010c414183a4420b,,,,,,2,0,2,0,1,"X V Q F H G B L J M P D K C T S W R N Z
",,,,,,,,,,,,,,,,,,,,,,,,,,,,,,,,,,,,,,,,,,,,,,,,,,,,,,,,,,,,,,,,,,,,,,,,,,,,,,,,,,,,,,,,,,,,,
,,,,,,,,,5e404b1dd9609428b4a352c6,41,Kobieta,2022-05-28_08h42.39.621,task,2021.1.4,Win32,59.69792848,628b806c463b948bc644b84f,6291cf7c010c414183a4420b,,,,,,,,,,,,lpk,"[""l"",""p"",""k""]","[1.1262000000476746,1.6330000000000382,2.2508000000715356,3.9532000000477865]",1,LPK,2,0,2,0,1,,,,,,,,,,,,,,,,,,,,,,,,,,,,,,,,,,,,,,,,,,,,,,,,,,,,,,,,,,,,,,,,,,,,,,,,,,,,,,,,,,,
,,,,,,,,,5e404b1dd9609428b4a352c6,41,Kobieta,2022-05-28_08h42.39.621,task,2021.1.4,Win32,59.69792848,628b806c463b948bc644b84f,6291cf7c010c414183a4420b,,,,,,0,0,0,0,1,"X V Q F H G B L J M P D K C T S W R N Z
",,,,,,,,,,,,,,,,,,,,,,,,,,,,,,,,,,,,,,,,,,,,,,,,,,,,,,,,,,,,,,,,,,,,,,,,,,,,,,,,,,,,,,,,,,,,,
,,,,,,,,,5e404b1dd9609428b4a352c6,41,Kobieta,2022-05-28_08h42.39.621,task,2021.1.4,Win32,59.69792848,628b806c463b948bc644b84f,6291cf7c010c414183a4420b,,,,,,1,0,1,0,1,"X V Q F H G B L J M P D K C T S W R N Z
",,,,,,,,,,,,,,,,,,,,,,,,,,,,,,,,,,,,,,,,,,,,,,,,,,,,,,,,,,,,,,,,,,,,,,,,,,,,,,,,,,,,,,,,,,,,,
,,,,,,,,,5e404b1dd9609428b4a352c6,41,Kobieta,2022-05-28_08h42.39.621,task,2021.1.4,Win32,59.69792848,628b806c463b948bc644b84f,6291cf7c010c414183a4420b,,,,,,2,0,2,0,1,"X V Q F H G B L J M P D K C T S W R N Z
",,,,,,,,,,,,,,,,,,,,,,,,,,,,,,,,,,,,,,,,,,,,,,,,,,,,,,,,,,,,,,,,,,,,,,,,,,,,,,,,,,,,,,,,,,,,,
,,,,,,,,,5e404b1dd9609428b4a352c6,41,Kobieta,2022-05-28_08h42.39.621,task,2021.1.4,Win32,59.69792848,628b806c463b948bc644b84f,6291cf7c010c414183a4420b,,,,,,,,,,,,wmt,"[""w"",""m"",""t""]","[1.4175999999046098,1.83689999997614,2.5960999999045953,3.8325999999045735]",1,WMT,3,0,3,0,1,,,,,,,,,,,,,,,,,,,,,,,,,,,,,,,,,,,,,,,,,,,,,,,,,,,,,,,,,,,,,,,,,,,,,,,,,,,,,,,,,,,
,,,,,,,,,5e404b1dd9609428b4a352c6,41,Kobieta,2022-05-28_08h42.39.621,task,2021.1.4,Win32,59.69792848,628b806c463b948bc644b84f,6291cf7c010c414183a4420b,,,,,,0,0,0,0,1,"X V Q F H G B L J M P D K C T S W R N Z
",,,,,,,,,,,,,,,,,,,,,,,,,,,,,,,,,,,,,,,,,,,,,,,,,,,,,,,,,,,,,,,,,,,,,,,,,,,,,,,,,,,,,,,,,,,,,
,,,,,,,,,5e404b1dd9609428b4a352c6,41,Kobieta,2022-05-28_08h42.39.621,task,2021.1.4,Win32,59.69792848,628b806c463b948bc644b84f,6291cf7c010c414183a4420b,,,,,,1,0,1,0,1,"X V Q F H G B L J M P D K C T S W R N Z
",,,,,,,,,,,,,,,,,,,,,,,,,,,,,,,,,,,,,,,,,,,,,,,,,,,,,,,,,,,,,,,,,,,,,,,,,,,,,,,,,,,,,,,,,,,,,
,,,,,,,,,5e404b1dd9609428b4a352c6,41,Kobieta,2022-05-28_08h42.39.621,task,2021.1.4,Win32,59.69792848,628b806c463b948bc644b84f,6291cf7c010c414183a4420b,,,,,,2,0,2,0,1,"X V Q F H G B L J M P D K C T S W R N Z
",,,,,,,,,,,,,,,,,,,,,,,,,,,,,,,,,,,,,,,,,,,,,,,,,,,,,,,,,,,,,,,,,,,,,,,,,,,,,,,,,,,,,,,,,,,,,
,,,,,,,,,5e404b1dd9609428b4a352c6,41,Kobieta,2022-05-28_08h42.39.621,task,2021.1.4,Win32,59.69792848,628b806c463b948bc644b84f,6291cf7c010c414183a4420b,,,,,,3,0,3,0,1,"X V Q F H G B L J M P D K C T S W R N Z
",,,,,,,,,,,,,,,,,,,,,,,,,,,,,,,,,,,,,,,,,,,,,,,,,,,,,,,,,,,,,,,,,,,,,,,,,,,,,,,,,,,,,,,,,,,,,
,,,,,,,,,5e404b1dd9609428b4a352c6,41,Kobieta,2022-05-28_08h42.39.621,task,2021.1.4,Win32,59.69792848,628b806c463b948bc644b84f,6291cf7c010c414183a4420b,,,,,,,,,,,,nwwm,"[""n"",""w"",""w"",""m""]","[1.0009999999999764,1.4386999999285308,1.566000000000031,1.9061000000237982,4.884500000000003]",1,NWWM,4,0,4,0,1,,,,,,,,,,,,,,,,,,,,,,,,,,,,,,,,,,,,,,,,,,,,,,,,,,,,,,,,,,,,,,,,,,,,,,,,,,,,,,,,,,,
,,,,,,,,,5e404b1dd9609428b4a352c6,41,Kobieta,2022-05-28_08h42.39.621,task,2021.1.4,Win32,59.69792848,628b806c463b948bc644b84f,6291cf7c010c414183a4420b,,,,,,0,0,0,0,1,"X V Q F H G B L J M P D K C T S W R N Z
",,,,,,,,,,,,,,,,,,,,,,,,,,,,,,,,,,,,,,,,,,,,,,,,,,,,,,,,,,,,,,,,,,,,,,,,,,,,,,,,,,,,,,,,,,,,,
,,,,,,,,,5e404b1dd9609428b4a352c6,41,Kobieta,2022-05-28_08h42.39.621,task,2021.1.4,Win32,59.69792848,628b806c463b948bc644b84f,6291cf7c010c414183a4420b,,,,,,1,0,1,0,1,"X V Q F H G B L J M P D K C T S W R N Z
",,,,,,,,,,,,,,,,,,,,,,,,,,,,,,,,,,,,,,,,,,,,,,,,,,,,,,,,,,,,,,,,,,,,,,,,,,,,,,,,,,,,,,,,,,,,,
,,,,,,,,,5e404b1dd9609428b4a352c6,41,Kobieta,2022-05-28_08h42.39.621,task,2021.1.4,Win32,59.69792848,628b806c463b948bc644b84f,6291cf7c010c414183a4420b,,,,,,2,0,2,0,1,"X V Q F H G B L J M P D K C T S W R N Z
",,,,,,,,,,,,,,,,,,,,,,,,,,,,,,,,,,,,,,,,,,,,,,,,,,,,,,,,,,,,,,,,,,,,,,,,,,,,,,,,,,,,,,,,,,,,,
,,,,,,,,,5e404b1dd9609428b4a352c6,41,Kobieta,2022-05-28_08h42.39.621,task,2021.1.4,Win32,59.69792848,628b806c463b948bc644b84f,6291cf7c010c414183a4420b,,,,,,3,0,3,0,1,"X V Q F H G B L J M P D K C T S W R N Z
",,,,,,,,,,,,,,,,,,,,,,,,,,,,,,,,,,,,,,,,,,,,,,,,,,,,,,,,,,,,,,,,,,,,,,,,,,,,,,,,,,,,,,,,,,,,,
,,,,,,,,,5e404b1dd9609428b4a352c6,41,Kobieta,2022-05-28_08h42.39.621,task,2021.1.4,Win32,59.69792848,628b806c463b948bc644b84f,6291cf7c010c414183a4420b,,,,,,,,,,,,wrkl,"[""w"",""r"",""k"",""l""]","[0.9347999999523608,2.2561999999285263,2.6856000000238964,2.8975000000000364,4.649000000000001]",1,WRKL,5,0,5,0,1,,,,,,,,,,,,,,,,,,,,,,,,,,,,,,,,,,,,,,,,,,,,,,,,,,,,,,,,,,,,,,,,,,,,,,,,,,,,,,,,,,,
,,,,,,,,,5e404b1dd9609428b4a352c6,41,Kobieta,2022-05-28_08h42.39.621,task,2021.1.4,Win32,59.69792848,628b806c463b948bc644b84f,6291cf7c010c414183a4420b,,,,,,0,0,0,0,1,"X V Q F H G B L J M P D K C T S W R N Z
",,,,,,,,,,,,,,,,,,,,,,,,,,,,,,,,,,,,,,,,,,,,,,,,,,,,,,,,,,,,,,,,,,,,,,,,,,,,,,,,,,,,,,,,,,,,,
,,,,,,,,,5e404b1dd9609428b4a352c6,41,Kobieta,2022-05-28_08h42.39.621,task,2021.1.4,Win32,59.69792848,628b806c463b948bc644b84f,6291cf7c010c414183a4420b,,,,,,1,0,1,0,1,"X V Q F H G B L J M P D K C T S W R N Z
",,,,,,,,,,,,,,,,,,,,,,,,,,,,,,,,,,,,,,,,,,,,,,,,,,,,,,,,,,,,,,,,,,,,,,,,,,,,,,,,,,,,,,,,,,,,,
,,,,,,,,,5e404b1dd9609428b4a352c6,41,Kobieta,2022-05-28_08h42.39.621,task,2021.1.4,Win32,59.69792848,628b806c463b948bc644b84f,6291cf7c010c414183a4420b,,,,,,2,0,2,0,1,"X V Q F H G B L J M P D K C T S W R N Z
",,,,,,,,,,,,,,,,,,,,,,,,,,,,,,,,,,,,,,,,,,,,,,,,,,,,,,,,,,,,,,,,,,,,,,,,,,,,,,,,,,,,,,,,,,,,,
,,,,,,,,,5e404b1dd9609428b4a352c6,41,Kobieta,2022-05-28_08h42.39.621,task,2021.1.4,Win32,59.69792848,628b806c463b948bc644b84f,6291cf7c010c414183a4420b,,,,,,3,0,3,0,1,"X V Q F H G B L J M P D K C T S W R N Z
",,,,,,,,,,,,,,,,,,,,,,,,,,,,,,,,,,,,,,,,,,,,,,,,,,,,,,,,,,,,,,,,,,,,,,,,,,,,,,,,,,,,,,,,,,,,,
,,,,,,,,,5e404b1dd9609428b4a352c6,41,Kobieta,2022-05-28_08h42.39.621,task,2021.1.4,Win32,59.69792848,628b806c463b948bc644b84f,6291cf7c010c414183a4420b,,,,,,4,0,4,0,1,"X V Q F H G B L J M P D K C T S W R N Z
",,,,,,,,,,,,,,,,,,,,,,,,,,,,,,,,,,,,,,,,,,,,,,,,,,,,,,,,,,,,,,,,,,,,,,,,,,,,,,,,,,,,,,,,,,,,,
,,,,,,,,,5e404b1dd9609428b4a352c6,41,Kobieta,2022-05-28_08h42.39.621,task,2021.1.4,Win32,59.69792848,628b806c463b948bc644b84f,6291cf7c010c414183a4420b,,,,,,,,,,,,wgvkv,"[""w"",""g"",""v"",""k"",""v""]","[15.187800000071547,17.047399999976165,17.851700000047686,18.151800000071603,18.639399999976263,21.596100000023853]",0,WGVPV,6,0,6,0,1,,,,,,,,,,,,,,,,,,,,,,,,,,,,,,,,,,,,,,,,,,,,,,,,,,,,,,,,,,,,,,,,,,,,,,,,,,,,,,,,,,,
,,,,,,,,,5e404b1dd9609428b4a352c6,41,Kobieta,2022-05-28_08h42.39.621,task,2021.1.4,Win32,59.69792848,628b806c463b948bc644b84f,6291cf7c010c414183a4420b,,,,,,0,0,0,0,1,"X V Q F H G B L J M P D K C T S W R N Z
",,,,,,,,,,,,,,,,,,,,,,,,,,,,,,,,,,,,,,,,,,,,,,,,,,,,,,,,,,,,,,,,,,,,,,,,,,,,,,,,,,,,,,,,,,,,,
,,,,,,,,,5e404b1dd9609428b4a352c6,41,Kobieta,2022-05-28_08h42.39.621,task,2021.1.4,Win32,59.69792848,628b806c463b948bc644b84f,6291cf7c010c414183a4420b,,,,,,1,0,1,0,1,"X V Q F H G B L J M P D K C T S W R N Z
",,,,,,,,,,,,,,,,,,,,,,,,,,,,,,,,,,,,,,,,,,,,,,,,,,,,,,,,,,,,,,,,,,,,,,,,,,,,,,,,,,,,,,,,,,,,,
,,,,,,,,,5e404b1dd9609428b4a352c6,41,Kobieta,2022-05-28_08h42.39.621,task,2021.1.4,Win32,59.69792848,628b806c463b948bc644b84f,6291cf7c010c414183a4420b,,,,,,2,0,2,0,1,"X V Q F H G B L J M P D K C T S W R N Z
",,,,,,,,,,,,,,,,,,,,,,,,,,,,,,,,,,,,,,,,,,,,,,,,,,,,,,,,,,,,,,,,,,,,,,,,,,,,,,,,,,,,,,,,,,,,,
,,,,,,,,,5e404b1dd9609428b4a352c6,41,Kobieta,2022-05-28_08h42.39.621,task,2021.1.4,Win32,59.69792848,628b806c463b948bc644b84f,6291cf7c010c414183a4420b,,,,,,3,0,3,0,1,"X V Q F H G B L J M P D K C T S W R N Z
",,,,,,,,,,,,,,,,,,,,,,,,,,,,,,,,,,,,,,,,,,,,,,,,,,,,,,,,,,,,,,,,,,,,,,,,,,,,,,,,,,,,,,,,,,,,,
,,,,,,,,,5e404b1dd9609428b4a352c6,41,Kobieta,2022-05-28_08h42.39.621,task,2021.1.4,Win32,59.69792848,628b806c463b948bc644b84f,6291cf7c010c414183a4420b,,,,,,4,0,4,0,1,"X V Q F H G B L J M P D K C T S W R N Z
",,,,,,,,,,,,,,,,,,,,,,,,,,,,,,,,,,,,,,,,,,,,,,,,,,,,,,,,,,,,,,,,,,,,,,,,,,,,,,,,,,,,,,,,,,,,,
,,,,,,,,,5e404b1dd9609428b4a352c6,41,Kobieta,2022-05-28_08h42.39.621,task,2021.1.4,Win32,59.69792848,628b806c463b948bc644b84f,6291cf7c010c414183a4420b,,,,,,,,,,,,qwws,"[""q"",""w"",""w"",""s""]","[1.3508000000714446,1.6502000000476755,1.791399999976079,2.3579999999999472,12.304100000023823]",0,QWWSG,7,0,7,0,1,,,,,,,,,,,,,,,,,,,,,,,,,,,,,,,,,,,,,,,,,,,,,,,,,,,,,,,,,,,,,,,,,,,,,,,,,,,,,,,,,,,
,,,,,,,,,5e404b1dd9609428b4a352c6,41,Kobieta,2022-05-28_08h42.39.621,task,2021.1.4,Win32,59.69792848,628b806c463b948bc644b84f,6291cf7c010c414183a4420b,,,,,,0,0,0,0,1,"X V Q F H G B L J M P D K C T S W R N Z
",,,,,,,,,,,,,,,,,,,,,,,,,,,,,,,,,,,,,,,,,,,,,,,,,,,,,,,,,,,,,,,,,,,,,,,,,,,,,,,,,,,,,,,,,,,,,
,,,,,,,,,5e404b1dd9609428b4a352c6,41,Kobieta,2022-05-28_08h42.39.621,task,2021.1.4,Win32,59.69792848,628b806c463b948bc644b84f,6291cf7c010c414183a4420b,,,,,,1,0,1,0,1,"X V Q F H G B L J M P D K C T S W R N Z
",,,,,,,,,,,,,,,,,,,,,,,,,,,,,,,,,,,,,,,,,,,,,,,,,,,,,,,,,,,,,,,,,,,,,,,,,,,,,,,,,,,,,,,,,,,,,
,,,,,,,,,5e404b1dd9609428b4a352c6,41,Kobieta,2022-05-28_08h42.39.621,task,2021.1.4,Win32,59.69792848,628b806c463b948bc644b84f,6291cf7c010c414183a4420b,,,,,,2,0,2,0,1,"X V Q F H G B L J M P D K C T S W R N Z
",,,,,,,,,,,,,,,,,,,,,,,,,,,,,,,,,,,,,,,,,,,,,,,,,,,,,,,,,,,,,,,,,,,,,,,,,,,,,,,,,,,,,,,,,,,,,
,,,,,,,,,5e404b1dd9609428b4a352c6,41,Kobieta,2022-05-28_08h42.39.621,task,2021.1.4,Win32,59.69792848,628b806c463b948bc644b84f,6291cf7c010c414183a4420b,,,,,,3,0,3,0,1,"X V Q F H G B L J M P D K C T S W R N Z
",,,,,,,,,,,,,,,,,,,,,,,,,,,,,,,,,,,,,,,,,,,,,,,,,,,,,,,,,,,,,,,,,,,,,,,,,,,,,,,,,,,,,,,,,,,,,
,,,,,,,,,5e404b1dd9609428b4a352c6,41,Kobieta,2022-05-28_08h42.39.621,task,2021.1.4,Win32,59.69792848,628b806c463b948bc644b84f,6291cf7c010c414183a4420b,,,,,,4,0,4,0,1,"X V Q F H G B L J M P D K C T S W R N Z
",,,,,,,,,,,,,,,,,,,,,,,,,,,,,,,,,,,,,,,,,,,,,,,,,,,,,,,,,,,,,,,,,,,,,,,,,,,,,,,,,,,,,,,,,,,,,
,,,,,,,,,5e404b1dd9609428b4a352c6,41,Kobieta,2022-05-28_08h42.39.621,task,2021.1.4,Win32,59.69792848,628b806c463b948bc644b84f,6291cf7c010c414183a4420b,,,,,,,,,,,,htrkg,"[""h"",""t"",""r"",""k"",""g""]","[0.92349999999999,3.4016000000239046,3.63220000004776,4.553600000023835,5.047200000047724,10.050100000023917]",0,HTRKD,8,0,8,0,1,,,,,,,,,,,,,,,,,,,,,,,,,,,,,,,,,,,,,,,,,,,,,,,,,,,,,,,,,,,,,,,,,,,,,,,,,,,,,,,,,,,
,,,,,,,,,5e404b1dd9609428b4a352c6,41,Kobieta,2022-05-28_08h42.39.621,task,2021.1.4,Win32,59.69792848,628b806c463b948bc644b84f,6291cf7c010c414183a4420b,,,,,,,,,,,,,,,,,,,,,,space,15.0365,4,"[""4""]",1,[68.01939999997603],[68.01939999997603],0,0,0,4,1,Practice,5,(2x6) - 8,4,,,,,,,,,,,,,,,,,,,,,,,,,,,,,,,,,,,,,,,,,,,,,,,,,,,,,,,,,,,,,,,,,,,
,,,,,,,,,5e404b1dd9609428b4a352c6,41,Kobieta,2022-05-28_08h42.39.621,task,2021.1.4,Win32,59.69792848,628b806c463b948bc644b84f,6291cf7c010c414183a4420b,,,,,,,,,,,,,,,,,,,,,,,,3,"[""3""]",1,[39.21849999999995],"[68.01939999997603,39.21849999999995]",0,1,1,3,1,Practice,4,(8/4) + 1,3,,,,,,,,,,,,,,,,,,,,,,,,,,,,,,,,,,,,,,,,,,,,,,,,,,,,,,,,,,,,,,,,,,,
,,,,,,,,,5e404b1dd9609428b4a352c6,41,Kobieta,2022-05-28_08h42.39.621,task,2021.1.4,Win32,59.69792848,628b806c463b948bc644b84f,6291cf7c010c414183a4420b,,,,,,,,,,,,,,,,,,,,,,,,9,"[""9""]",1,[4.2322999999523745],"[68.01939999997603,39.21849999999995,4.2322999999523745]",0,2,2,9,1,Practice,10,(20/2) - 1,9,,,,,,,,,,,,,,,,,,,,,,,,,,,,,,,,,,,,,,,,,,,,,,,,,,,,,,,,,,,,,,,,,,,
,,,,,,,,,5e404b1dd9609428b4a352c6,41,Kobieta,2022-05-28_08h42.39.621,task,2021.1.4,Win32,59.69792848,628b806c463b948bc644b84f,6291cf7c010c414183a4420b,,,,,,,,,,,,,,,,,,,,,,,,6,"[""6""]",1,[4.160300000071629],"[68.01939999997603,39.21849999999995,4.2322999999523745,4.160300000071629]",0,3,3,6,1,Practice,7,(25/5) + 1,6,,,,,,,,,,,,,,,,,,,,,,,,,,,,,,,,,,,,,,,,,,,,,,,,,,,,,,,,,,,,,,,,,,,
,,,,,,,,,5e404b1dd9609428b4a352c6,41,Kobieta,2022-05-28_08h42.39.621,task,2021.1.4,Win32,59.69792848,628b806c463b948bc644b84f,6291cf7c010c414183a4420b,,,,,,,,,,,,,,,,,,,,,,,,1,"[""1""]",1,[5.66150000000016],"[68.01939999997603,39.21849999999995,4.2322999999523745,4.160300000071629,5.66150000000016]",0,4,4,1,1,Practice,2,(4x4) - 15,1,,,,,,,,,,,,,,,,,,,,,,,,,,,,,,,,,,,,,,,,,,,,,,,,,,,,,,,,,,,,,,,,,,,
,,,,,,,,,5e404b1dd9609428b4a352c6,41,Kobieta,2022-05-28_08h42.39.621,task,2021.1.4,Win32,59.69792848,628b806c463b948bc644b84f,6291cf7c010c414183a4420b,,,,,,,,,,,,,,,,,,,,,,,,0,"[""0""]",1,[4.271700000047758],"[68.01939999997603,39.21849999999995,4.2322999999523745,4.160300000071629,5.66150000000016,4.271700000047758]",0,5,5,0,1,Practice,1,(3x3) -  9,0,,,,,,,,,,,,,,,,,,,,,,,,,,,,,,,,,,,,,,,,,,,,,,,,,,,,,,,,,,,,,,,,,,,
,,,,,,,,,5e404b1dd9609428b4a352c6,41,Kobieta,2022-05-28_08h42.39.621,task,2021.1.4,Win32,59.69792848,628b806c463b948bc644b84f,6291cf7c010c414183a4420b,,,,,,,,,,,,,,,,,,,,,,,,2,"[""2""]",1,[14.069199999928514],"[68.01939999997603,39.21849999999995,4.2322999999523745,4.160300000071629,5.66150000000016,4.271700000047758,14.069199999928514]",0,6,6,2,1,Practice,3,(4x4) - 14,2,,,,,,,,,,,,,,,,,,,,,,,,,,,,,,,,,,,,,,,,,,,,,,,,,,,,,,,,,,,,,,,,,,,
,,,,,,,,,5e404b1dd9609428b4a352c6,41,Kobieta,2022-05-28_08h42.39.621,task,2021.1.4,Win32,59.69792848,628b806c463b948bc644b84f,6291cf7c010c414183a4420b,,,,,,,,,,,,,,,,,,,,,,,,8,"[""8""]",1,[3.795200000047771],"[68.01939999997603,39.21849999999995,4.2322999999523745,4.160300000071629,5.66150000000016,4.271700000047758,14.069199999928514,3.795200000047771]",0,7,7,8,1,Practice,9,(3x3) - 1,8,,,,,,,,,,,,,,,,,,,,,,,,,,,,,,,,,,,,,,,,,,,,,,,,,,,,,,,,,,,,,,,,,,,
,,,,,,,,,5e404b1dd9609428b4a352c6,41,Kobieta,2022-05-28_08h42.39.621,task,2021.1.4,Win32,59.69792848,628b806c463b948bc644b84f,6291cf7c010c414183a4420b,,,,,,,,,,,,,,,,,,,,,,,,7,"[""7""]",1,[6.41470000004756],"[68.01939999997603,39.21849999999995,4.2322999999523745,4.160300000071629,5.66150000000016,4.271700000047758,14.069199999928514,3.795200000047771,6.41470000004756]",0,8,8,7,1,Practice,8,(5x5) - 18,7,,,,,,,,,,,,,,,,,,,,,,,,,,,,,,,,,,,,,,,,,,,,,,,,,,,,,,,,,,,,,,,,,,,
,,,,,,,,,5e404b1dd9609428b4a352c6,41,Kobieta,2022-05-28_08h42.39.621,task,2021.1.4,Win32,59.69792848,628b806c463b948bc644b84f,6291cf7c010c414183a4420b,,,,,,,,,,,,,,,,,,,,,,,,5,"[""5""]",1,[4.637700000047744],"[68.01939999997603,39.21849999999995,4.2322999999523745,4.160300000071629,5.66150000000016,4.271700000047758,14.069199999928514,3.795200000047771,6.41470000004756,4.637700000047744]",0,9,9,5,1,Practice,6,(4/2) + 3,5,,,,,,,,,,,,,,,,,,,,,,,,,,,,,,,,,,,,,,,,,,,,,,,,,,,,,,,,,,,,,,,,,,,
,,,,,,,,,5e404b1dd9609428b4a352c6,41,Kobieta,2022-05-28_08h42.39.621,task,2021.1.4,Win32,59.69792848,628b806c463b948bc644b84f,6291cf7c010c414183a4420b,,,,,,,,,,,,,,,,,,,,,,,,,,,,,,,,,,,,,,1,154.4805,10.2987,4403.988116,17.13473687,54.50632114,space,3.0586,0,0,0,0,1,,,,,,,,,,,,,,,,,,,,,,,,,,,,,,,,,,,,,,,,,,,,,,,,,,,,,,
,,,,,,,,,5e404b1dd9609428b4a352c6,41,Kobieta,2022-05-28_08h42.39.621,task,2021.1.4,Win32,59.69792848,628b806c463b948bc644b84f,6291cf7c010c414183a4420b,,,,,,,,,,,,,,,,,,,,,,,,2,,,,,,,,,,Practice,3,(4x4) - 14,2,,,,,,,,,,,,,,space,55.9534,"[""2""]",1,[9.761899999976094],1,0,0,0,2,1,,,,,,,,,,,,,,,,,,,,,,,,,,,,,,,,,,,,,,,,,,,
,,,,,,,,,5e404b1dd9609428b4a352c6,41,Kobieta,2022-05-28_08h42.39.621,task,2021.1.4,Win32,59.69792848,628b806c463b948bc644b84f,6291cf7c010c414183a4420b,,,,,,,,,,,"X V Q F H G B L J M P D K C T S W R N Z
",,,,,,,,,,,,,,,,,,,,,,,,,,,,,,,,,,,,,,,,,,,,,,,,,,,0,0,0,0,1,,,,,,,,,,,,,,,,,,,,,,,,,,,,,,,,,,,,,,
,,,,,,,,,5e404b1dd9609428b4a352c6,41,Kobieta,2022-05-28_08h42.39.621,task,2021.1.4,Win32,59.69792848,628b806c463b948bc644b84f,6291cf7c010c414183a4420b,,,,,,,,,,,,,,,,,,,,,,,,9,,,,,,,,,,Practice,10,(20/2) - 1,9,,,,,,,,,,,,,,,,"[""9""]",1,[20.470799999952305],1,0,0,0,9,1,,,,,,,,,,,,,,,,,,,,,,,,,,,,,,,,,,,,,,,,,,,
,,,,,,,,,5e404b1dd9609428b4a352c6,41,Kobieta,2022-05-28_08h42.39.621,task,2021.1.4,Win32,59.69792848,628b806c463b948bc644b84f,6291cf7c010c414183a4420b,,,,,,,,,,,"X V Q F H G B L J M P D K C T S W R N Z
",,,,,,,,,,,,,,,,,,,,,,,,,,,,,,,,,,,,,,,,,,,,,,,,,,,1,0,1,0,1,,,,,,,,,,,,,,,,,,,,,,,,,,,,,,,,,,,,,,
,,,,,,,,,5e404b1dd9609428b4a352c6,41,Kobieta,2022-05-28_08h42.39.621,task,2021.1.4,Win32,59.69792848,628b806c463b948bc644b84f,6291cf7c010c414183a4420b,,,,,,,,,,,,,,,,,,,,,,,,,,,,,,,,,,,,,,,,,,,,,,,,,,,,,,,,,,,,,,,,,,,zm,"[""z"",""m""]",0,"[5.239399999976058,5.751799999952254,8.447799999952167]",1,0,0,0,0,1,,,,,,,,,,,,,,,,,,,,,,,,,,,,
,,,,,,,,,5e404b1dd9609428b4a352c6,41,Kobieta,2022-05-28_08h42.39.621,task,2021.1.4,Win32,59.69792848,628b806c463b948bc644b84f,6291cf7c010c414183a4420b,,,,,,,,,,,,,,,,,,,,,,,,4,,,,,,,,,,Practice,5,(2x6) - 8,4,,,,,,,,,,,,,,,,"[""4""]",1,[18.112299999952256],1,0,0,0,4,1,,,,,,,,,,,,,,,,,,,,,,,,,,,,,,,,,,,,,,,,,,,
,,,,,,,,,5e404b1dd9609428b4a352c6,41,Kobieta,2022-05-28_08h42.39.621,task,2021.1.4,Win32,59.69792848,628b806c463b948bc644b84f,6291cf7c010c414183a4420b,,,,,,,,,,,"X V Q F H G B L J M P D K C T S W R N Z
",,,,,,,,,,,,,,,,,,,,,,,,,,,,,,,,,,,,,,,,,,,,,,,,,,,0,0,0,0,1,,,,,,,,,,,,,,,,,,,,,,,,,,,,,,,,,,,,,,
,,,,,,,,,5e404b1dd9609428b4a352c6,41,Kobieta,2022-05-28_08h42.39.621,task,2021.1.4,Win32,59.69792848,628b806c463b948bc644b84f,6291cf7c010c414183a4420b,,,,,,,,,,,,,,,,,,,,,,,,3,,,,,,,,,,Practice,4,(8/4) + 1,3,,,,,,,,,,,,,,,,"[""3""]",1,[7.594499999999925],1,0,0,0,3,1,,,,,,,,,,,,,,,,,,,,,,,,,,,,,,,,,,,,,,,,,,,
,,,,,,,,,5e404b1dd9609428b4a352c6,41,Kobieta,2022-05-28_08h42.39.621,task,2021.1.4,Win32,59.69792848,628b806c463b948bc644b84f,6291cf7c010c414183a4420b,,,,,,,,,,,"X V Q F H G B L J M P D K C T S W R N Z
",,,,,,,,,,,,,,,,,,,,,,,,,,,,,,,,,,,,,,,,,,,,,,,,,,,1,0,1,0,1,,,,,,,,,,,,,,,,,,,,,,,,,,,,,,,,,,,,,,
,,,,,,,,,5e404b1dd9609428b4a352c6,41,Kobieta,2022-05-28_08h42.39.621,task,2021.1.4,Win32,59.69792848,628b806c463b948bc644b84f,6291cf7c010c414183a4420b,,,,,,,,,,,,,,,,,,,,,,,,,,,,,,,,,,,,,,,,,,,,,,,,,,,,,,,,,,,,,,,,,,,dr,"[""d"",""r""]",0,"[1.6140000000000327,1.9967999999523727,3.6626999999284635]",1,1,0,1,0,1,,,,,,,,,,,,,,,,,,,,,,,,,,,,
,,,,,,,,,5e404b1dd9609428b4a352c6,41,Kobieta,2022-05-28_08h42.39.621,task,2021.1.4,Win32,59.69792848,628b806c463b948bc644b84f,6291cf7c010c414183a4420b,,,,,,,,,,,,,,,,,,,,,,,,1,,,,,,,,,,Practice,2,(4x4) - 15,1,,,,,,,,,,,,,,,,"[""1""]",1,[6.639300000071444],1,0,0,0,1,1,,,,,,,,,,,,,,,,,,,,,,,,,,,,,,,,,,,,,,,,,,,
,,,,,,,,,5e404b1dd9609428b4a352c6,41,Kobieta,2022-05-28_08h42.39.621,task,2021.1.4,Win32,59.69792848,628b806c463b948bc644b84f,6291cf7c010c414183a4420b,,,,,,,,,,,"X V Q F H G B L J M P D K C T S W R N Z
",,,,,,,,,,,,,,,,,,,,,,,,,,,,,,,,,,,,,,,,,,,,,,,,,,,0,0,0,0,1,,,,,,,,,,,,,,,,,,,,,,,,,,,,,,,,,,,,,,
,,,,,,,,,5e404b1dd9609428b4a352c6,41,Kobieta,2022-05-28_08h42.39.621,task,2021.1.4,Win32,59.69792848,628b806c463b948bc644b84f,6291cf7c010c414183a4420b,,,,,,,,,,,,,,,,,,,,,,,,0,,,,,,,,,,Practice,1,(3x3) -  9,0,,,,,,,,,,,,,,,,"[""0""]",1,[5.025000000000091],1,0,0,0,0,1,,,,,,,,,,,,,,,,,,,,,,,,,,,,,,,,,,,,,,,,,,,
,,,,,,,,,5e404b1dd9609428b4a352c6,41,Kobieta,2022-05-28_08h42.39.621,task,2021.1.4,Win32,59.69792848,628b806c463b948bc644b84f,6291cf7c010c414183a4420b,,,,,,,,,,,"X V Q F H G B L J M P D K C T S W R N Z
",,,,,,,,,,,,,,,,,,,,,,,,,,,,,,,,,,,,,,,,,,,,,,,,,,,1,0,1,0,1,,,,,,,,,,,,,,,,,,,,,,,,,,,,,,,,,,,,,,
,,,,,,,,,5e404b1dd9609428b4a352c6,41,Kobieta,2022-05-28_08h42.39.621,task,2021.1.4,Win32,59.69792848,628b806c463b948bc644b84f,6291cf7c010c414183a4420b,,,,,,,,,,,,,,,,,,,,,,,,,,,,,,,,,,,,,,,,,,,,,,,,,,,,,,,,,,,,,,,,,,,xk,"[""x"",""k""]",0,"[2.940299999952231,3.7067000000477037,6.4402000000475255]",1,2,0,2,0,1,,,,,,,,,,,,,,,,,,,,,,,,,,,,
,,,,,,,,,5e404b1dd9609428b4a352c6,41,Kobieta,2022-05-28_08h42.39.621,task,2021.1.4,Win32,59.69792848,628b806c463b948bc644b84f,6291cf7c010c414183a4420b,,,,,,,,,,,,,,,,,,,,,,,,2,,,,,,,,,,Task,26,(2x9) - 16,2,,,,,,,,,,,,,,,,,,,1,,,,,,,,,,,,,,,,,,,,,space,24.6519,"[""2""]",1,[8.631200000047556],0,0,0,25,1,,,,,,,,,,,,,,,,,,
,,,,,,,,,5e404b1dd9609428b4a352c6,41,Kobieta,2022-05-28_08h42.39.621,task,2021.1.4,Win32,59.69792848,628b806c463b948bc644b84f,6291cf7c010c414183a4420b,,,,,,,,,,,"X V Q F H G B L J M P D K C T S W R N Z
",,,,,,,,,,,,,,,,,,,,,,,,,,,,,,,,,,,,,,,,,,,,,,,,,,,,,,,,,,,,,,,,,,,,,,,,,,,,0,0,0,0,1,,,,,,,,,,,,,
,,,,,,,,,5e404b1dd9609428b4a352c6,41,Kobieta,2022-05-28_08h42.39.621,task,2021.1.4,Win32,59.69792848,628b806c463b948bc644b84f,6291cf7c010c414183a4420b,,,,,,,,,,,,,,,,,,,,,,,,7,,,,,,,,,,Task,31,(4/2) + 5,7,,,,,,,,,,,,,,,,,,,1,,,,,,,,,,,,,,,,,,,,,,,"[""7""]",1,[7.411299999952234],0,0,0,30,1,,,,,,,,,,,,,,,,,,
,,,,,,,,,5e404b1dd9609428b4a352c6,41,Kobieta,2022-05-28_08h42.39.621,task,2021.1.4,Win32,59.69792848,628b806c463b948bc644b84f,6291cf7c010c414183a4420b,,,,,,,,,,,"X V Q F H G B L J M P D K C T S W R N Z
",,,,,,,,,,,,,,,,,,,,,,,,,,,,,,,,,,,,,,,,,,,,,,,,,,,,,,,,,,,,,,,,,,,,,,,,,,,,1,0,1,0,1,,,,,,,,,,,,,
,,,,,,,,,5e404b1dd9609428b4a352c6,41,Kobieta,2022-05-28_08h42.39.621,task,2021.1.4,Win32,59.69792848,628b806c463b948bc644b84f,6291cf7c010c414183a4420b,,,,,,,,,,,,,,,,,,,,,,,,,,,,,,,,,,,,,,,,,,,,,,,,,,,,,,,,,,,,,,,,,,,,,,,,,,,,,,,,,,,,,,,,,,,,zb,"[""z"",""b""]",0,"[3.342600000023822,3.9667000000476946,6.292600000023867]",1,ZB,0,0,0,0,1,,
,,,,,,,,,5e404b1dd9609428b4a352c6,41,Kobieta,2022-05-28_08h42.39.621,task,2021.1.4,Win32,59.69792848,628b806c463b948bc644b84f,6291cf7c010c414183a4420b,,,,,,,,,,,,,,,,,,,,,,,,9,,,,,,,,,,Task,7,(3x7) - 12,9,,,,,,,,,,,,,,,,,,,1,,,,,,,,,,,,,,,,,,,,,,,"[""9""]",1,[18.238600000024007],0,0,0,6,1,,,,,,,,,,,,,,,,,,
,,,,,,,,,5e404b1dd9609428b4a352c6,41,Kobieta,2022-05-28_08h42.39.621,task,2021.1.4,Win32,59.69792848,628b806c463b948bc644b84f,6291cf7c010c414183a4420b,,,,,,,,,,,"X V Q F H G B L J M P D K C T S W R N Z
",,,,,,,,,,,,,,,,,,,,,,,,,,,,,,,,,,,,,,,,,,,,,,,,,,,,,,,,,,,,,,,,,,,,,,,,,,,,0,0,0,0,1,,,,,,,,,,,,,
,,,,,,,,,5e404b1dd9609428b4a352c6,41,Kobieta,2022-05-28_08h42.39.621,task,2021.1.4,Win32,59.69792848,628b806c463b948bc644b84f,6291cf7c010c414183a4420b,,,,,,,,,,,,,,,,,,,,,,,,8,,,,,,,,,,Task,15,(3x7) - 13,8,,,,,,,,,,,,,,,,,,,1,,,,,,,,,,,,,,,,,,,,,,,"[""8""]",1,[10.093800000071496],0,0,0,14,1,,,,,,,,,,,,,,,,,,
,,,,,,,,,5e404b1dd9609428b4a352c6,41,Kobieta,2022-05-28_08h42.39.621,task,2021.1.4,Win32,59.69792848,628b806c463b948bc644b84f,6291cf7c010c414183a4420b,,,,,,,,,,,"X V Q F H G B L J M P D K C T S W R N Z
",,,,,,,,,,,,,,,,,,,,,,,,,,,,,,,,,,,,,,,,,,,,,,,,,,,,,,,,,,,,,,,,,,,,,,,,,,,,1,0,1,0,1,,,,,,,,,,,,,
,,,,,,,,,5e404b1dd9609428b4a352c6,41,Kobieta,2022-05-28_08h42.39.621,task,2021.1.4,Win32,59.69792848,628b806c463b948bc644b84f,6291cf7c010c414183a4420b,,,,,,,,,,,,,,,,,,,,,,,,0,,,,,,,,,,Task,33,(1/1) - 1,0,,,,,,,,,,,,,,,,,,,1,,,,,,,,,,,,,,,,,,,,,,,"[""0""]",1,[11.45469999992838],0,0,0,32,1,,,,,,,,,,,,,,,,,,
,,,,,,,,,5e404b1dd9609428b4a352c6,41,Kobieta,2022-05-28_08h42.39.621,task,2021.1.4,Win32,59.69792848,628b806c463b948bc644b84f,6291cf7c010c414183a4420b,,,,,,,,,,,"X V Q F H G B L J M P D K C T S W R N Z
",,,,,,,,,,,,,,,,,,,,,,,,,,,,,,,,,,,,,,,,,,,,,,,,,,,,,,,,,,,,,,,,,,,,,,,,,,,,2,0,2,0,1,,,,,,,,,,,,,
,,,,,,,,,5e404b1dd9609428b4a352c6,41,Kobieta,2022-05-28_08h42.39.621,task,2021.1.4,Win32,59.69792848,628b806c463b948bc644b84f,6291cf7c010c414183a4420b,,,,,,,,,,,,,,,,,,,,,,,,,,,,,,,,,,,,,,,,,,,,,,,,,,,,,,,,,,,,,,,,,,,,,,,,,,,,,,,,,,,,,,,,,,,,shr,"[""s"",""h"",""r""]",0,"[2.3593999999761763,2.862100000023929,3.278100000023869,6.1030000000000655]",1,SHR,1,0,1,0,1,,
,,,,,,,,,5e404b1dd9609428b4a352c6,41,Kobieta,2022-05-28_08h42.39.621,task,2021.1.4,Win32,59.69792848,628b806c463b948bc644b84f,6291cf7c010c414183a4420b,,,,,,,,,,,,,,,,,,,,,,,,2,,,,,,,,,,Task,10,(2x5) - 8,2,,,,,,,,,,,,,,,,,,,1,,,,,,,,,,,,,,,,,,,,,,,"[""2""]",1,[4.019900000095504],0,0,0,9,1,,,,,,,,,,,,,,,,,,
,,,,,,,,,5e404b1dd9609428b4a352c6,41,Kobieta,2022-05-28_08h42.39.621,task,2021.1.4,Win32,59.69792848,628b806c463b948bc644b84f,6291cf7c010c414183a4420b,,,,,,,,,,,"X V Q F H G B L J M P D K C T S W R N Z
",,,,,,,,,,,,,,,,,,,,,,,,,,,,,,,,,,,,,,,,,,,,,,,,,,,,,,,,,,,,,,,,,,,,,,,,,,,,0,0,0,0,1,,,,,,,,,,,,,
,,,,,,,,,5e404b1dd9609428b4a352c6,41,Kobieta,2022-05-28_08h42.39.621,task,2021.1.4,Win32,59.69792848,628b806c463b948bc644b84f,6291cf7c010c414183a4420b,,,,,,,,,,,,,,,,,,,,,,,,6,,,,,,,,,,Task,37,(3/3) + 5,6,,,,,,,,,,,,,,,,,,,1,,,,,,,,,,,,,,,,,,,,,,,"[""6""]",1,[4.557999999999993],0,0,0,36,1,,,,,,,,,,,,,,,,,,
,,,,,,,,,5e404b1dd9609428b4a352c6,41,Kobieta,2022-05-28_08h42.39.621,task,2021.1.4,Win32,59.69792848,628b806c463b948bc644b84f,6291cf7c010c414183a4420b,,,,,,,,,,,"X V Q F H G B L J M P D K C T S W R N Z
",,,,,,,,,,,,,,,,,,,,,,,,,,,,,,,,,,,,,,,,,,,,,,,,,,,,,,,,,,,,,,,,,,,,,,,,,,,,1,0,1,0,1,,,,,,,,,,,,,
,,,,,,,,,5e404b1dd9609428b4a352c6,41,Kobieta,2022-05-28_08h42.39.621,task,2021.1.4,Win32,59.69792848,628b806c463b948bc644b84f,6291cf7c010c414183a4420b,,,,,,,,,,,,,,,,,,,,,,,,2,,,,,,,,,,Task,10,(2x5) - 8,2,,,,,,,,,,,,,,,,,,,1,,,,,,,,,,,,,,,,,,,,,,,"[""2""]",1,[8.049299999952382],0,0,0,9,1,,,,,,,,,,,,,,,,,,
,,,,,,,,,5e404b1dd9609428b4a352c6,41,Kobieta,2022-05-28_08h42.39.621,task,2021.1.4,Win32,59.69792848,628b806c463b948bc644b84f,6291cf7c010c414183a4420b,,,,,,,,,,,"X V Q F H G B L J M P D K C T S W R N Z
",,,,,,,,,,,,,,,,,,,,,,,,,,,,,,,,,,,,,,,,,,,,,,,,,,,,,,,,,,,,,,,,,,,,,,,,,,,,2,0,2,0,1,,,,,,,,,,,,,
,,,,,,,,,5e404b1dd9609428b4a352c6,41,Kobieta,2022-05-28_08h42.39.621,task,2021.1.4,Win32,59.69792848,628b806c463b948bc644b84f,6291cf7c010c414183a4420b,,,,,,,,,,,,,,,,,,,,,,,,9,,,,,,,,,,Task,24,(2x2) + 5,9,,,,,,,,,,,,,,,,,,,1,,,,,,,,,,,,,,,,,,,,,,,"[""9""]",1,[14.027699999928473],0,0,0,23,1,,,,,,,,,,,,,,,,,,
,,,,,,,,,5e404b1dd9609428b4a352c6,41,Kobieta,2022-05-28_08h42.39.621,task,2021.1.4,Win32,59.69792848,628b806c463b948bc644b84f,6291cf7c010c414183a4420b,,,,,,,,,,,"X V Q F H G B L J M P D K C T S W R N Z
",,,,,,,,,,,,,,,,,,,,,,,,,,,,,,,,,,,,,,,,,,,,,,,,,,,,,,,,,,,,,,,,,,,,,,,,,,,,3,0,3,0,1,,,,,,,,,,,,,
,,,,,,,,,5e404b1dd9609428b4a352c6,41,Kobieta,2022-05-28_08h42.39.621,task,2021.1.4,Win32,59.69792848,628b806c463b948bc644b84f,6291cf7c010c414183a4420b,,,,,,,,,,,,,,,,,,,,,,,,,,,,,,,,,,,,,,,,,,,,,,,,,,,,,,,,,,,,,,,,,,,,,,,,,,,,,,,,,,,,,,,,,,,,dlbh,"[""d"",""l"",""b"",""h""]",0,"[2.4543999999762036,3.4896000000239837,4.123600000023998,4.673100000023851,8.581700000047704]",1,DLBH,2,0,2,0,1,,
,,,,,,,,,5e404b1dd9609428b4a352c6,41,Kobieta,2022-05-28_08h42.39.621,task,2021.1.4,Win32,59.69792848,628b806c463b948bc644b84f,6291cf7c010c414183a4420b,,,,,,,,,,,,,,,,,,,,,,,,1,,,,,,,,,,Task,1,(12/6) - 1,1,,,,,,,,,,,,,,,,,,,1,,,,,,,,,,,,,,,,,,,,,,,"[""1""]",1,[3.2035000000000764],0,0,0,0,1,,,,,,,,,,,,,,,,,,
,,,,,,,,,5e404b1dd9609428b4a352c6,41,Kobieta,2022-05-28_08h42.39.621,task,2021.1.4,Win32,59.69792848,628b806c463b948bc644b84f,6291cf7c010c414183a4420b,,,,,,,,,,,"X V Q F H G B L J M P D K C T S W R N Z
",,,,,,,,,,,,,,,,,,,,,,,,,,,,,,,,,,,,,,,,,,,,,,,,,,,,,,,,,,,,,,,,,,,,,,,,,,,,0,0,0,0,1,,,,,,,,,,,,,
,,,,,,,,,5e404b1dd9609428b4a352c6,41,Kobieta,2022-05-28_08h42.39.621,task,2021.1.4,Win32,59.69792848,628b806c463b948bc644b84f,6291cf7c010c414183a4420b,,,,,,,,,,,,,,,,,,,,,,,,4,,,,,,,,,,Task,4,(1x5) - 1,4,,,,,,,,,,,,,,,,,,,1,,,,,,,,,,,,,,,,,,,,,,,"[""4""]",1,[4.223899999976084],0,0,0,3,1,,,,,,,,,,,,,,,,,,
,,,,,,,,,5e404b1dd9609428b4a352c6,41,Kobieta,2022-05-28_08h42.39.621,task,2021.1.4,Win32,59.69792848,628b806c463b948bc644b84f,6291cf7c010c414183a4420b,,,,,,,,,,,"X V Q F H G B L J M P D K C T S W R N Z
",,,,,,,,,,,,,,,,,,,,,,,,,,,,,,,,,,,,,,,,,,,,,,,,,,,,,,,,,,,,,,,,,,,,,,,,,,,,1,0,1,0,1,,,,,,,,,,,,,
,,,,,,,,,5e404b1dd9609428b4a352c6,41,Kobieta,2022-05-28_08h42.39.621,task,2021.1.4,Win32,59.69792848,628b806c463b948bc644b84f,6291cf7c010c414183a4420b,,,,,,,,,,,,,,,,,,,,,,,,2,,,,,,,,,,Task,26,(2x9) - 16,2,,,,,,,,,,,,,,,,,,,1,,,,,,,,,,,,,,,,,,,,,,,"[""2""]",1,[15.344399999976076],0,0,0,25,1,,,,,,,,,,,,,,,,,,
,,,,,,,,,5e404b1dd9609428b4a352c6,41,Kobieta,2022-05-28_08h42.39.621,task,2021.1.4,Win32,59.69792848,628b806c463b948bc644b84f,6291cf7c010c414183a4420b,,,,,,,,,,,"X V Q F H G B L J M P D K C T S W R N Z
",,,,,,,,,,,,,,,,,,,,,,,,,,,,,,,,,,,,,,,,,,,,,,,,,,,,,,,,,,,,,,,,,,,,,,,,,,,,2,0,2,0,1,,,,,,,,,,,,,
,,,,,,,,,5e404b1dd9609428b4a352c6,41,Kobieta,2022-05-28_08h42.39.621,task,2021.1.4,Win32,59.69792848,628b806c463b948bc644b84f,6291cf7c010c414183a4420b,,,,,,,,,,,,,,,,,,,,,,,,9,,,,,,,,,,Task,40,(7x2) - 5,9,,,,,,,,,,,,,,,,,,,1,,,,,,,,,,,,,,,,,,,,,,,"[""9""]",1,[5.53520000004778],0,0,0,39,1,,,,,,,,,,,,,,,,,,
,,,,,,,,,5e404b1dd9609428b4a352c6,41,Kobieta,2022-05-28_08h42.39.621,task,2021.1.4,Win32,59.69792848,628b806c463b948bc644b84f,6291cf7c010c414183a4420b,,,,,,,,,,,"X V Q F H G B L J M P D K C T S W R N Z
",,,,,,,,,,,,,,,,,,,,,,,,,,,,,,,,,,,,,,,,,,,,,,,,,,,,,,,,,,,,,,,,,,,,,,,,,,,,3,0,3,0,1,,,,,,,,,,,,,
,,,,,,,,,5e404b1dd9609428b4a352c6,41,Kobieta,2022-05-28_08h42.39.621,task,2021.1.4,Win32,59.69792848,628b806c463b948bc644b84f,6291cf7c010c414183a4420b,,,,,,,,,,,,,,,,,,,,,,,,8,,,,,,,,,,Task,32,(8/2) + 4,8,,,,,,,,,,,,,,,,,,,1,,,,,,,,,,,,,,,,,,,,,,,"[""8""]",1,[6.125700000047573],0,0,0,31,1,,,,,,,,,,,,,,,,,,
,,,,,,,,,5e404b1dd9609428b4a352c6,41,Kobieta,2022-05-28_08h42.39.621,task,2021.1.4,Win32,59.69792848,628b806c463b948bc644b84f,6291cf7c010c414183a4420b,,,,,,,,,,,"X V Q F H G B L J M P D K C T S W R N Z
",,,,,,,,,,,,,,,,,,,,,,,,,,,,,,,,,,,,,,,,,,,,,,,,,,,,,,,,,,,,,,,,,,,,,,,,,,,,4,0,4,0,1,,,,,,,,,,,,,
,,,,,,,,,5e404b1dd9609428b4a352c6,41,Kobieta,2022-05-28_08h42.39.621,task,2021.1.4,Win32,59.69792848,628b806c463b948bc644b84f,6291cf7c010c414183a4420b,,,,,,,,,,,,,,,,,,,,,,,,,,,,,,,,,,,,,,,,,,,,,,,,,,,,,,,,,,,,,,,,,,,,,,,,,,,,,,,,,,,,,,,,,,,,szwbh,"[""s"",""z"",""w"",""b"",""h""]",0,"[3.631399999976338,4.621300000071642,11.390300000071647,12.02160000002391,12.352399999976342,16.065000000000055]",0,"SZ
WHB",3,0,3,0,1,,
,,,,,,,,,5e404b1dd9609428b4a352c6,41,Kobieta,2022-05-28_08h42.39.621,task,2021.1.4,Win32,59.69792848,628b806c463b948bc644b84f,6291cf7c010c414183a4420b,,,,,,,,,,,,,,,,,,,,,,,,3,,,,,,,,,,Task,3,(2x3) - 3,3,,,,,,,,,,,,,,,,,,,1,,,,,,,,,,,,,,,,,,,,,,,"[""3""]",1,[10.966899999976249],0,0,0,2,1,,,,,,,,,,,,,,,,,,
,,,,,,,,,5e404b1dd9609428b4a352c6,41,Kobieta,2022-05-28_08h42.39.621,task,2021.1.4,Win32,59.69792848,628b806c463b948bc644b84f,6291cf7c010c414183a4420b,,,,,,,,,,,"X V Q F H G B L J M P D K C T S W R N Z
",,,,,,,,,,,,,,,,,,,,,,,,,,,,,,,,,,,,,,,,,,,,,,,,,,,,,,,,,,,,,,,,,,,,,,,,,,,,0,0,0,0,1,,,,,,,,,,,,,
,,,,,,,,,5e404b1dd9609428b4a352c6,41,Kobieta,2022-05-28_08h42.39.621,task,2021.1.4,Win32,59.69792848,628b806c463b948bc644b84f,6291cf7c010c414183a4420b,,,,,,,,,,,,,,,,,,,,,,,,4,,,,,,,,,,Task,4,(1x5) - 1,4,,,,,,,,,,,,,,,,,,,1,,,,,,,,,,,,,,,,,,,,,,,"[""4""]",1,[36.330100000024004],0,0,0,3,1,,,,,,,,,,,,,,,,,,
,,,,,,,,,5e404b1dd9609428b4a352c6,41,Kobieta,2022-05-28_08h42.39.621,task,2021.1.4,Win32,59.69792848,628b806c463b948bc644b84f,6291cf7c010c414183a4420b,,,,,,,,,,,"X V Q F H G B L J M P D K C T S W R N Z
",,,,,,,,,,,,,,,,,,,,,,,,,,,,,,,,,,,,,,,,,,,,,,,,,,,,,,,,,,,,,,,,,,,,,,,,,,,,1,0,1,0,1,,,,,,,,,,,,,
,,,,,,,,,5e404b1dd9609428b4a352c6,41,Kobieta,2022-05-28_08h42.39.621,task,2021.1.4,Win32,59.69792848,628b806c463b948bc644b84f,6291cf7c010c414183a4420b,,,,,,,,,,,,,,,,,,,,,,,,5,,,,,,,,,,Task,22,(3x1) + 2,5,,,,,,,,,,,,,,,,,,,1,,,,,,,,,,,,,,,,,,,,,,,"[""5""]",1,[16.814999999999827],0,0,0,21,1,,,,,,,,,,,,,,,,,,
,,,,,,,,,5e404b1dd9609428b4a352c6,41,Kobieta,2022-05-28_08h42.39.621,task,2021.1.4,Win32,59.69792848,628b806c463b948bc644b84f,6291cf7c010c414183a4420b,,,,,,,,,,,"X V Q F H G B L J M P D K C T S W R N Z
",,,,,,,,,,,,,,,,,,,,,,,,,,,,,,,,,,,,,,,,,,,,,,,,,,,,,,,,,,,,,,,,,,,,,,,,,,,,2,0,2,0,1,,,,,,,,,,,,,
,,,,,,,,,5e404b1dd9609428b4a352c6,41,Kobieta,2022-05-28_08h42.39.621,task,2021.1.4,Win32,59.69792848,628b806c463b948bc644b84f,6291cf7c010c414183a4420b,,,,,,,,,,,,,,,,,,,,,,,,6,,,,,,,,,,Task,13,(3x4) - 6,6,,,,,,,,,,,,,,,,,,,1,,,,,,,,,,,,,,,,,,,,,,,"[""6""]",1,[8.53880000007166],0,0,0,12,1,,,,,,,,,,,,,,,,,,
,,,,,,,,,5e404b1dd9609428b4a352c6,41,Kobieta,2022-05-28_08h42.39.621,task,2021.1.4,Win32,59.69792848,628b806c463b948bc644b84f,6291cf7c010c414183a4420b,,,,,,,,,,,"X V Q F H G B L J M P D K C T S W R N Z
",,,,,,,,,,,,,,,,,,,,,,,,,,,,,,,,,,,,,,,,,,,,,,,,,,,,,,,,,,,,,,,,,,,,,,,,,,,,3,0,3,0,1,,,,,,,,,,,,,
,,,,,,,,,5e404b1dd9609428b4a352c6,41,Kobieta,2022-05-28_08h42.39.621,task,2021.1.4,Win32,59.69792848,628b806c463b948bc644b84f,6291cf7c010c414183a4420b,,,,,,,,,,,,,,,,,,,,,,,,3,,,,,,,,,,Task,35,(1x2) + 1,3,,,,,,,,,,,,,,,,,,,1,,,,,,,,,,,,,,,,,,,,,,,"[""3""]",1,[6.669300000071416],0,0,0,34,1,,,,,,,,,,,,,,,,,,
,,,,,,,,,5e404b1dd9609428b4a352c6,41,Kobieta,2022-05-28_08h42.39.621,task,2021.1.4,Win32,59.69792848,628b806c463b948bc644b84f,6291cf7c010c414183a4420b,,,,,,,,,,,"X V Q F H G B L J M P D K C T S W R N Z
",,,,,,,,,,,,,,,,,,,,,,,,,,,,,,,,,,,,,,,,,,,,,,,,,,,,,,,,,,,,,,,,,,,,,,,,,,,,4,0,4,0,1,,,,,,,,,,,,,
,,,,,,,,,5e404b1dd9609428b4a352c6,41,Kobieta,2022-05-28_08h42.39.621,task,2021.1.4,Win32,59.69792848,628b806c463b948bc644b84f,6291cf7c010c414183a4420b,,,,,,,,,,,,,,,,,,,,,,,,,,,,,,,,,,,,,,,,,,,,,,,,,,,,,,,,,,,,,,,,,,,,,,,,,,,,,,,,,,,,,,,,,,,,gphfm,"[""g"",""p"",""h"",""f"",""m""]",0,"[2.7941000000239455,3.4312000000477383,4.1733999999762545,4.793600000023844,5.1928999999761345,6.8689999999999145]",1,GPHFM,4,0,4,0,1,,
,,,,,,,,,5e404b1dd9609428b4a352c6,41,Kobieta,2022-05-28_08h42.39.621,task,2021.1.4,Win32,59.69792848,628b806c463b948bc644b84f,6291cf7c010c414183a4420b,,,,,,,,,,,,,,,,,,,,,,,,5,,,,,,,,,,Task,29,(3x8) - 19 ,5,,,,,,,,,,,,,,,,,,,1,,,,,,,,,,,,,,,,,,,,,,,"[""5""]",1,[11.03279999995243],0,0,0,28,1,,,,,,,,,,,,,,,,,,
,,,,,,,,,5e404b1dd9609428b4a352c6,41,Kobieta,2022-05-28_08h42.39.621,task,2021.1.4,Win32,59.69792848,628b806c463b948bc644b84f,6291cf7c010c414183a4420b,,,,,,,,,,,"X V Q F H G B L J M P D K C T S W R N Z
",,,,,,,,,,,,,,,,,,,,,,,,,,,,,,,,,,,,,,,,,,,,,,,,,,,,,,,,,,,,,,,,,,,,,,,,,,,,0,0,0,0,1,,,,,,,,,,,,,
,,,,,,,,,5e404b1dd9609428b4a352c6,41,Kobieta,2022-05-28_08h42.39.621,task,2021.1.4,Win32,59.69792848,628b806c463b948bc644b84f,6291cf7c010c414183a4420b,,,,,,,,,,,,,,,,,,,,,,,,6,,,,,,,,,,Task,37,(3/3) + 5,6,,,,,,,,,,,,,,,,,,,1,,,,,,,,,,,,,,,,,,,,,,,"[""6""]",1,[4.262899999976071],0,0,0,36,1,,,,,,,,,,,,,,,,,,
,,,,,,,,,5e404b1dd9609428b4a352c6,41,Kobieta,2022-05-28_08h42.39.621,task,2021.1.4,Win32,59.69792848,628b806c463b948bc644b84f,6291cf7c010c414183a4420b,,,,,,,,,,,"X V Q F H G B L J M P D K C T S W R N Z
",,,,,,,,,,,,,,,,,,,,,,,,,,,,,,,,,,,,,,,,,,,,,,,,,,,,,,,,,,,,,,,,,,,,,,,,,,,,1,0,1,0,1,,,,,,,,,,,,,
,,,,,,,,,5e404b1dd9609428b4a352c6,41,Kobieta,2022-05-28_08h42.39.621,task,2021.1.4,Win32,59.69792848,628b806c463b948bc644b84f,6291cf7c010c414183a4420b,,,,,,,,,,,,,,,,,,,,,,,,2,,,,,,,,,,Task,19,(6/2) - 1,2,,,,,,,,,,,,,,,,,,,1,,,,,,,,,,,,,,,,,,,,,,,"[""2""]",1,[17.331500000000005],0,0,0,18,1,,,,,,,,,,,,,,,,,,
,,,,,,,,,5e404b1dd9609428b4a352c6,41,Kobieta,2022-05-28_08h42.39.621,task,2021.1.4,Win32,59.69792848,628b806c463b948bc644b84f,6291cf7c010c414183a4420b,,,,,,,,,,,"X V Q F H G B L J M P D K C T S W R N Z
",,,,,,,,,,,,,,,,,,,,,,,,,,,,,,,,,,,,,,,,,,,,,,,,,,,,,,,,,,,,,,,,,,,,,,,,,,,,2,0,2,0,1,,,,,,,,,,,,,
,,,,,,,,,5e404b1dd9609428b4a352c6,41,Kobieta,2022-05-28_08h42.39.621,task,2021.1.4,Win32,59.69792848,628b806c463b948bc644b84f,6291cf7c010c414183a4420b,,,,,,,,,,,,,,,,,,,,,,,,1,,,,,,,,,,Task,9,(3x7) - 20,1,,,,,,,,,,,,,,,,,,,1,,,,,,,,,,,,,,,,,,,,,,,"[""1""]",1,[16.721299999952407],0,0,0,8,1,,,,,,,,,,,,,,,,,,
,,,,,,,,,5e404b1dd9609428b4a352c6,41,Kobieta,2022-05-28_08h42.39.621,task,2021.1.4,Win32,59.69792848,628b806c463b948bc644b84f,6291cf7c010c414183a4420b,,,,,,,,,,,"X V Q F H G B L J M P D K C T S W R N Z
",,,,,,,,,,,,,,,,,,,,,,,,,,,,,,,,,,,,,,,,,,,,,,,,,,,,,,,,,,,,,,,,,,,,,,,,,,,,3,0,3,0,1,,,,,,,,,,,,,
,,,,,,,,,5e404b1dd9609428b4a352c6,41,Kobieta,2022-05-28_08h42.39.621,task,2021.1.4,Win32,59.69792848,628b806c463b948bc644b84f,6291cf7c010c414183a4420b,,,,,,,,,,,,,,,,,,,,,,,,4,,,,,,,,,,Task,28,(2x5) - 6,4,,,,,,,,,,,,,,,,,,,1,,,,,,,,,,,,,,,,,,,,,,,"[""4""]",1,[5.164999999999964],0,0,0,27,1,,,,,,,,,,,,,,,,,,
,,,,,,,,,5e404b1dd9609428b4a352c6,41,Kobieta,2022-05-28_08h42.39.621,task,2021.1.4,Win32,59.69792848,628b806c463b948bc644b84f,6291cf7c010c414183a4420b,,,,,,,,,,,"X V Q F H G B L J M P D K C T S W R N Z
",,,,,,,,,,,,,,,,,,,,,,,,,,,,,,,,,,,,,,,,,,,,,,,,,,,,,,,,,,,,,,,,,,,,,,,,,,,,4,0,4,0,1,,,,,,,,,,,,,
,,,,,,,,,5e404b1dd9609428b4a352c6,41,Kobieta,2022-05-28_08h42.39.621,task,2021.1.4,Win32,59.69792848,628b806c463b948bc644b84f,6291cf7c010c414183a4420b,,,,,,,,,,,,,,,,,,,,,,,,7,,,,,,,,,,Task,31,(4/2) + 5,7,,,,,,,,,,,,,,,,,,,1,,,,,,,,,,,,,,,,,,,,,,,"[""7""]",1,[13.69830000007164],0,0,0,30,1,,,,,,,,,,,,,,,,,,
,,,,,,,,,5e404b1dd9609428b4a352c6,41,Kobieta,2022-05-28_08h42.39.621,task,2021.1.4,Win32,59.69792848,628b806c463b948bc644b84f,6291cf7c010c414183a4420b,,,,,,,,,,,"X V Q F H G B L J M P D K C T S W R N Z
",,,,,,,,,,,,,,,,,,,,,,,,,,,,,,,,,,,,,,,,,,,,,,,,,,,,,,,,,,,,,,,,,,,,,,,,,,,,5,0,5,0,1,,,,,,,,,,,,,
,,,,,,,,,5e404b1dd9609428b4a352c6,41,Kobieta,2022-05-28_08h42.39.621,task,2021.1.4,Win32,59.69792848,628b806c463b948bc644b84f,6291cf7c010c414183a4420b,,,,,,,,,,,,,,,,,,,,,,,,,,,,,,,,,,,,,,,,,,,,,,,,,,,,,,,,,,,,,,,,,,,,,,,,,,,,,,,,,,,,,,,,,,,,lxsnnv,"[""l"",""x"",""s"",""n"",""n"",""v""]",0,"[2.6884999999999764,3.733599999904527,4.165199999928518,4.656899999976076,4.805399999976089,5.300599999904534,9.671499999999924]",1,LXSNNV,5,0,5,0,1,,
,,,,,,,,,5e404b1dd9609428b4a352c6,41,Kobieta,2022-05-28_08h42.39.621,task,2021.1.4,Win32,59.69792848,628b806c463b948bc644b84f,6291cf7c010c414183a4420b,,,,,,,,,,,,,,,,,,,,,,,,4,,,,,,,,,,Task,28,(2x5) - 6,4,,,,,,,,,,,,,,,,,,,1,,,,,,,,,,,,,,,,,,,,,,,"[""4""]",1,[6.826299999952198],0,0,0,27,1,,,,,,,,,,,,,,,,,,
,,,,,,,,,5e404b1dd9609428b4a352c6,41,Kobieta,2022-05-28_08h42.39.621,task,2021.1.4,Win32,59.69792848,628b806c463b948bc644b84f,6291cf7c010c414183a4420b,,,,,,,,,,,"X V Q F H G B L J M P D K C T S W R N Z
",,,,,,,,,,,,,,,,,,,,,,,,,,,,,,,,,,,,,,,,,,,,,,,,,,,,,,,,,,,,,,,,,,,,,,,,,,,,0,0,0,0,1,,,,,,,,,,,,,
,,,,,,,,,5e404b1dd9609428b4a352c6,41,Kobieta,2022-05-28_08h42.39.621,task,2021.1.4,Win32,59.69792848,628b806c463b948bc644b84f,6291cf7c010c414183a4420b,,,,,,,,,,,,,,,,,,,,,,,,7,,,,,,,,,,Task,30,(6/3) + 4 ,6,,,,,,,,,,,,,,,,,,,0,,,,,,,,,,,,,,,,,,,,,,,"[""7""]",0,[5.82490000009534],0,0,0,29,1,,,,,,,,,,,,,,,,,,
,,,,,,,,,5e404b1dd9609428b4a352c6,41,Kobieta,2022-05-28_08h42.39.621,task,2021.1.4,Win32,59.69792848,628b806c463b948bc644b84f,6291cf7c010c414183a4420b,,,,,,,,,,,,,,,,,,,,,,,,0,,,,,,,,,,Task,25,(10/5) - 2,0,,,,,,,,,,,,,,,,,,,1,,,,,,,,,,,,,,,,,,,,,,,"[""0""]",1,[10.612200000047551],0,1,1,24,1,,,,,,,,,,,,,,,,,,
,,,,,,,,,5e404b1dd9609428b4a352c6,41,Kobieta,2022-05-28_08h42.39.621,task,2021.1.4,Win32,59.69792848,628b806c463b948bc644b84f,6291cf7c010c414183a4420b,,,,,,,,,,,"X V Q F H G B L J M P D K C T S W R N Z
",,,,,,,,,,,,,,,,,,,,,,,,,,,,,,,,,,,,,,,,,,,,,,,,,,,,,,,,,,,,,,,,,,,,,,,,,,,,1,0,1,0,1,,,,,,,,,,,,,
,,,,,,,,,5e404b1dd9609428b4a352c6,41,Kobieta,2022-05-28_08h42.39.621,task,2021.1.4,Win32,59.69792848,628b806c463b948bc644b84f,6291cf7c010c414183a4420b,,,,,,,,,,,,,,,,,,,,,,,,7,,,,,,,,,,Task,38,(4x6) - 17,7,,,,,,,,,,,,,,,,,,,1,,,,,,,,,,,,,,,,,,,,,,,"[""7""]",1,[39.14079999995215],0,0,0,37,1,,,,,,,,,,,,,,,,,,
,,,,,,,,,5e404b1dd9609428b4a352c6,41,Kobieta,2022-05-28_08h42.39.621,task,2021.1.4,Win32,59.69792848,628b806c463b948bc644b84f,6291cf7c010c414183a4420b,,,,,,,,,,,"X V Q F H G B L J M P D K C T S W R N Z
",,,,,,,,,,,,,,,,,,,,,,,,,,,,,,,,,,,,,,,,,,,,,,,,,,,,,,,,,,,,,,,,,,,,,,,,,,,,2,0,2,0,1,,,,,,,,,,,,,
,,,,,,,,,5e404b1dd9609428b4a352c6,41,Kobieta,2022-05-28_08h42.39.621,task,2021.1.4,Win32,59.69792848,628b806c463b948bc644b84f,6291cf7c010c414183a4420b,,,,,,,,,,,,,,,,,,,,,,,,0,,,,,,,,,,Task,8,(1x5) - 5,0,,,,,,,,,,,,,,,,,,,1,,,,,,,,,,,,,,,,,,,,,,,"[""0""]",1,[5.891099999904554],0,0,0,7,1,,,,,,,,,,,,,,,,,,
,,,,,,,,,5e404b1dd9609428b4a352c6,41,Kobieta,2022-05-28_08h42.39.621,task,2021.1.4,Win32,59.69792848,628b806c463b948bc644b84f,6291cf7c010c414183a4420b,,,,,,,,,,,"X V Q F H G B L J M P D K C T S W R N Z
",,,,,,,,,,,,,,,,,,,,,,,,,,,,,,,,,,,,,,,,,,,,,,,,,,,,,,,,,,,,,,,,,,,,,,,,,,,,3,0,3,0,1,,,,,,,,,,,,,
,,,,,,,,,5e404b1dd9609428b4a352c6,41,Kobieta,2022-05-28_08h42.39.621,task,2021.1.4,Win32,59.69792848,628b806c463b948bc644b84f,6291cf7c010c414183a4420b,,,,,,,,,,,,,,,,,,,,,,,,4,,,,,,,,,,Task,28,(2x5) - 6,4,,,,,,,,,,,,,,,,,,,1,,,,,,,,,,,,,,,,,,,,,,,"[""4""]",1,[6.191399999976056],0,0,0,27,1,,,,,,,,,,,,,,,,,,
,,,,,,,,,5e404b1dd9609428b4a352c6,41,Kobieta,2022-05-28_08h42.39.621,task,2021.1.4,Win32,59.69792848,628b806c463b948bc644b84f,6291cf7c010c414183a4420b,,,,,,,,,,,"X V Q F H G B L J M P D K C T S W R N Z
",,,,,,,,,,,,,,,,,,,,,,,,,,,,,,,,,,,,,,,,,,,,,,,,,,,,,,,,,,,,,,,,,,,,,,,,,,,,4,0,4,0,1,,,,,,,,,,,,,
,,,,,,,,,5e404b1dd9609428b4a352c6,41,Kobieta,2022-05-28_08h42.39.621,task,2021.1.4,Win32,59.69792848,628b806c463b948bc644b84f,6291cf7c010c414183a4420b,,,,,,,,,,,,,,,,,,,,,,,,8,,,,,,,,,,Task,23,(2x3) + 2,8,,,,,,,,,,,,,,,,,,,1,,,,,,,,,,,,,,,,,,,,,,,"[""8""]",1,[9.16009999990456],0,0,0,22,1,,,,,,,,,,,,,,,,,,
,,,,,,,,,5e404b1dd9609428b4a352c6,41,Kobieta,2022-05-28_08h42.39.621,task,2021.1.4,Win32,59.69792848,628b806c463b948bc644b84f,6291cf7c010c414183a4420b,,,,,,,,,,,"X V Q F H G B L J M P D K C T S W R N Z
",,,,,,,,,,,,,,,,,,,,,,,,,,,,,,,,,,,,,,,,,,,,,,,,,,,,,,,,,,,,,,,,,,,,,,,,,,,,5,0,5,0,1,,,,,,,,,,,,,
,,,,,,,,,5e404b1dd9609428b4a352c6,41,Kobieta,2022-05-28_08h42.39.621,task,2021.1.4,Win32,59.69792848,628b806c463b948bc644b84f,6291cf7c010c414183a4420b,,,,,,,,,,,,,,,,,,,,,,,,8,,,,,,,,,,Task,23,(2x3) + 2,8,,,,,,,,,,,,,,,,,,,1,,,,,,,,,,,,,,,,,,,,,,,"[""8""]",1,[11.84050000000002],0,0,0,22,1,,,,,,,,,,,,,,,,,,
,,,,,,,,,5e404b1dd9609428b4a352c6,41,Kobieta,2022-05-28_08h42.39.621,task,2021.1.4,Win32,59.69792848,628b806c463b948bc644b84f,6291cf7c010c414183a4420b,,,,,,,,,,,"X V Q F H G B L J M P D K C T S W R N Z
",,,,,,,,,,,,,,,,,,,,,,,,,,,,,,,,,,,,,,,,,,,,,,,,,,,,,,,,,,,,,,,,,,,,,,,,,,,,6,0,6,0,1,,,,,,,,,,,,,
,,,,,,,,,5e404b1dd9609428b4a352c6,41,Kobieta,2022-05-28_08h42.39.621,task,2021.1.4,Win32,59.69792848,628b806c463b948bc644b84f,6291cf7c010c414183a4420b,,,,,,,,,,,,,,,,,,,,,,,,,,,,,,,,,,,,,,,,,,,,,,,,,,,,,,,,,,,,,,,,,,,,,,,,,,,,,,,,,,,,,,,,,,,,pcwrjbv,"[""p"",""c"",""w"",""r"",""j"",""b"",""v""]",0,"[2.790799999952469,6.115200000047707,6.583799999952362,7.5608999999763,8.587399999976242,10.574499999999944,19.326700000047822,21.07899999999995]",0,PCWRJBK,6,0,6,0,1,,
,,,,,,,,,5e404b1dd9609428b4a352c6,41,Kobieta,2022-05-28_08h42.39.621,task,2021.1.4,Win32,59.69792848,628b806c463b948bc644b84f,6291cf7c010c414183a4420b,,,,,,,,,,,,,,,,,,,,,,,,0,,,,,,,,,,Task,33,(1/1) - 1,0,,,,,,,,,,,,,,,,,,,1,,,,,,,,,,,,,,,,,,,,,,,"[""0""]",1,[6.103799999952344],0,0,0,32,1,,,,,,,,,,,,,,,,,,
,,,,,,,,,5e404b1dd9609428b4a352c6,41,Kobieta,2022-05-28_08h42.39.621,task,2021.1.4,Win32,59.69792848,628b806c463b948bc644b84f,6291cf7c010c414183a4420b,,,,,,,,,,,"X V Q F H G B L J M P D K C T S W R N Z
",,,,,,,,,,,,,,,,,,,,,,,,,,,,,,,,,,,,,,,,,,,,,,,,,,,,,,,,,,,,,,,,,,,,,,,,,,,,0,0,0,0,1,,,,,,,,,,,,,
,,,,,,,,,5e404b1dd9609428b4a352c6,41,Kobieta,2022-05-28_08h42.39.621,task,2021.1.4,Win32,59.69792848,628b806c463b948bc644b84f,6291cf7c010c414183a4420b,,,,,,,,,,,,,,,,,,,,,,,,2,,,,,,,,,,Task,19,(6/2) - 1,2,,,,,,,,,,,,,,,,,,,1,,,,,,,,,,,,,,,,,,,,,,,"[""2""]",1,[11.873199999928374],0,0,0,18,1,,,,,,,,,,,,,,,,,,
,,,,,,,,,5e404b1dd9609428b4a352c6,41,Kobieta,2022-05-28_08h42.39.621,task,2021.1.4,Win32,59.69792848,628b806c463b948bc644b84f,6291cf7c010c414183a4420b,,,,,,,,,,,"X V Q F H G B L J M P D K C T S W R N Z
",,,,,,,,,,,,,,,,,,,,,,,,,,,,,,,,,,,,,,,,,,,,,,,,,,,,,,,,,,,,,,,,,,,,,,,,,,,,1,0,1,0,1,,,,,,,,,,,,,
,,,,,,,,,5e404b1dd9609428b4a352c6,41,Kobieta,2022-05-28_08h42.39.621,task,2021.1.4,Win32,59.69792848,628b806c463b948bc644b84f,6291cf7c010c414183a4420b,,,,,,,,,,,,,,,,,,,,,,,,6,,,,,,,,,,Task,5,(2x3) + 0,6,,,,,,,,,,,,,,,,,,,1,,,,,,,,,,,,,,,,,,,,,,,"[""6""]",1,[13.551899999976285],0,0,0,4,1,,,,,,,,,,,,,,,,,,
,,,,,,,,,5e404b1dd9609428b4a352c6,41,Kobieta,2022-05-28_08h42.39.621,task,2021.1.4,Win32,59.69792848,628b806c463b948bc644b84f,6291cf7c010c414183a4420b,,,,,,,,,,,"X V Q F H G B L J M P D K C T S W R N Z
",,,,,,,,,,,,,,,,,,,,,,,,,,,,,,,,,,,,,,,,,,,,,,,,,,,,,,,,,,,,,,,,,,,,,,,,,,,,2,0,2,0,1,,,,,,,,,,,,,
,,,,,,,,,5e404b1dd9609428b4a352c6,41,Kobieta,2022-05-28_08h42.39.621,task,2021.1.4,Win32,59.69792848,628b806c463b948bc644b84f,6291cf7c010c414183a4420b,,,,,,,,,,,,,,,,,,,,,,,,9,,,,,,,,,,Task,16,(3x8) - 15,9,,,,,,,,,,,,,,,,,,,1,,,,,,,,,,,,,,,,,,,,,,,"[""9""]",1,[20.689600000023802],0,0,0,15,1,,,,,,,,,,,,,,,,,,
,,,,,,,,,5e404b1dd9609428b4a352c6,41,Kobieta,2022-05-28_08h42.39.621,task,2021.1.4,Win32,59.69792848,628b806c463b948bc644b84f,6291cf7c010c414183a4420b,,,,,,,,,,,"X V Q F H G B L J M P D K C T S W R N Z
",,,,,,,,,,,,,,,,,,,,,,,,,,,,,,,,,,,,,,,,,,,,,,,,,,,,,,,,,,,,,,,,,,,,,,,,,,,,3,0,3,0,1,,,,,,,,,,,,,
,,,,,,,,,5e404b1dd9609428b4a352c6,41,Kobieta,2022-05-28_08h42.39.621,task,2021.1.4,Win32,59.69792848,628b806c463b948bc644b84f,6291cf7c010c414183a4420b,,,,,,,,,,,,,,,,,,,,,,,,6,,,,,,,,,,Task,30,(6/3) + 4 ,6,,,,,,,,,,,,,,,,,,,1,,,,,,,,,,,,,,,,,,,,,,,"[""6""]",1,[18.06749999999988],0,0,0,29,1,,,,,,,,,,,,,,,,,,
,,,,,,,,,5e404b1dd9609428b4a352c6,41,Kobieta,2022-05-28_08h42.39.621,task,2021.1.4,Win32,59.69792848,628b806c463b948bc644b84f,6291cf7c010c414183a4420b,,,,,,,,,,,"X V Q F H G B L J M P D K C T S W R N Z
",,,,,,,,,,,,,,,,,,,,,,,,,,,,,,,,,,,,,,,,,,,,,,,,,,,,,,,,,,,,,,,,,,,,,,,,,,,,4,0,4,0,1,,,,,,,,,,,,,
,,,,,,,,,5e404b1dd9609428b4a352c6,41,Kobieta,2022-05-28_08h42.39.621,task,2021.1.4,Win32,59.69792848,628b806c463b948bc644b84f,6291cf7c010c414183a4420b,,,,,,,,,,,,,,,,,,,,,,,,4,,,,,,,,,,Task,21,(10/2) - 1,4,,,,,,,,,,,,,,,,,,,1,,,,,,,,,,,,,,,,,,,,,,,"[""4""]",1,[20.26619999992863],0,0,0,20,1,,,,,,,,,,,,,,,,,,
,,,,,,,,,5e404b1dd9609428b4a352c6,41,Kobieta,2022-05-28_08h42.39.621,task,2021.1.4,Win32,59.69792848,628b806c463b948bc644b84f,6291cf7c010c414183a4420b,,,,,,,,,,,"X V Q F H G B L J M P D K C T S W R N Z
",,,,,,,,,,,,,,,,,,,,,,,,,,,,,,,,,,,,,,,,,,,,,,,,,,,,,,,,,,,,,,,,,,,,,,,,,,,,5,0,5,0,1,,,,,,,,,,,,,
,,,,,,,,,5e404b1dd9609428b4a352c6,41,Kobieta,2022-05-28_08h42.39.621,task,2021.1.4,Win32,59.69792848,628b806c463b948bc644b84f,6291cf7c010c414183a4420b,,,,,,,,,,,,,,,,,,,,,,,,6,,,,,,,,,,Task,5,(2x3) + 0,6,,,,,,,,,,,,,,,,,,,1,,,,,,,,,,,,,,,,,,,,,,,"[""6""]",1,[20.778999999999996],0,0,0,4,1,,,,,,,,,,,,,,,,,,
,,,,,,,,,5e404b1dd9609428b4a352c6,41,Kobieta,2022-05-28_08h42.39.621,task,2021.1.4,Win32,59.69792848,628b806c463b948bc644b84f,6291cf7c010c414183a4420b,,,,,,,,,,,"X V Q F H G B L J M P D K C T S W R N Z
",,,,,,,,,,,,,,,,,,,,,,,,,,,,,,,,,,,,,,,,,,,,,,,,,,,,,,,,,,,,,,,,,,,,,,,,,,,,6,0,6,0,1,,,,,,,,,,,,,
,,,,,,,,,5e404b1dd9609428b4a352c6,41,Kobieta,2022-05-28_08h42.39.621,task,2021.1.4,Win32,59.69792848,628b806c463b948bc644b84f,6291cf7c010c414183a4420b,,,,,,,,,,,,,,,,,,,,,,,,,,,,,,,,,,,,,,,,,,,,,,,,,,,,,,,,,,,,,,,,,,,,,,,,,,,,,,,,,,,,,,,,,,,,bdhskjg,"[""b"",""d"",""h"",""s"",""k"",""j"",""g""]",0,"[5.602899999976216,6.882000000000062,7.551199999928485,8.522500000000036,9.458399999976109,11.229000000000042,12.311099999904627,17.31659999990461]",1,BDHSKJG,7,0,7,0,1,,
,,,,,,,,,5e404b1dd9609428b4a352c6,41,Kobieta,2022-05-28_08h42.39.621,task,2021.1.4,Win32,59.69792848,628b806c463b948bc644b84f,6291cf7c010c414183a4420b,,,,,,,,,,,,,,,,,,,,,,,,0,,,,,,,,,,Task,33,(1/1) - 1,0,,,,,,,,,,,,,,,,,,,1,,,,,,,,,,,,,,,,,,,,,,,"[""0""]",1,[7.141000000000076],0,0,0,32,1,,,,,,,,,,,,,,,,,,
,,,,,,,,,5e404b1dd9609428b4a352c6,41,Kobieta,2022-05-28_08h42.39.621,task,2021.1.4,Win32,59.69792848,628b806c463b948bc644b84f,6291cf7c010c414183a4420b,,,,,,,,,,,"X V Q F H G B L J M P D K C T S W R N Z
",,,,,,,,,,,,,,,,,,,,,,,,,,,,,,,,,,,,,,,,,,,,,,,,,,,,,,,,,,,,,,,,,,,,,,,,,,,,0,0,0,0,1,,,,,,,,,,,,,
,,,,,,,,,5e404b1dd9609428b4a352c6,41,Kobieta,2022-05-28_08h42.39.621,task,2021.1.4,Win32,59.69792848,628b806c463b948bc644b84f,6291cf7c010c414183a4420b,,,,,,,,,,,,,,,,,,,,,,,,4,,,,,,,,,,Task,28,(2x5) - 6,4,,,,,,,,,,,,,,,,,,,1,,,,,,,,,,,,,,,,,,,,,,,"[""4""]",1,[9.426500000000033],0,0,0,27,1,,,,,,,,,,,,,,,,,,
,,,,,,,,,5e404b1dd9609428b4a352c6,41,Kobieta,2022-05-28_08h42.39.621,task,2021.1.4,Win32,59.69792848,628b806c463b948bc644b84f,6291cf7c010c414183a4420b,,,,,,,,,,,"X V Q F H G B L J M P D K C T S W R N Z
",,,,,,,,,,,,,,,,,,,,,,,,,,,,,,,,,,,,,,,,,,,,,,,,,,,,,,,,,,,,,,,,,,,,,,,,,,,,1,0,1,0,1,,,,,,,,,,,,,
,,,,,,,,,5e404b1dd9609428b4a352c6,41,Kobieta,2022-05-28_08h42.39.621,task,2021.1.4,Win32,59.69792848,628b806c463b948bc644b84f,6291cf7c010c414183a4420b,,,,,,,,,,,,,,,,,,,,,,,,7,,,,,,,,,,Task,31,(4/2) + 5,7,,,,,,,,,,,,,,,,,,,1,,,,,,,,,,,,,,,,,,,,,,,"[""7""]",1,[12.057799999952067],0,0,0,30,1,,,,,,,,,,,,,,,,,,
,,,,,,,,,5e404b1dd9609428b4a352c6,41,Kobieta,2022-05-28_08h42.39.621,task,2021.1.4,Win32,59.69792848,628b806c463b948bc644b84f,6291cf7c010c414183a4420b,,,,,,,,,,,"X V Q F H G B L J M P D K C T S W R N Z
",,,,,,,,,,,,,,,,,,,,,,,,,,,,,,,,,,,,,,,,,,,,,,,,,,,,,,,,,,,,,,,,,,,,,,,,,,,,2,0,2,0,1,,,,,,,,,,,,,
,,,,,,,,,5e404b1dd9609428b4a352c6,41,Kobieta,2022-05-28_08h42.39.621,task,2021.1.4,Win32,59.69792848,628b806c463b948bc644b84f,6291cf7c010c414183a4420b,,,,,,,,,,,,,,,,,,,,,,,,3,,,,,,,,,,Task,35,(1x2) + 1,3,,,,,,,,,,,,,,,,,,,1,,,,,,,,,,,,,,,,,,,,,,,"[""3""]",1,[11.05120000004763],0,0,0,34,1,,,,,,,,,,,,,,,,,,
,,,,,,,,,5e404b1dd9609428b4a352c6,41,Kobieta,2022-05-28_08h42.39.621,task,2021.1.4,Win32,59.69792848,628b806c463b948bc644b84f,6291cf7c010c414183a4420b,,,,,,,,,,,"X V Q F H G B L J M P D K C T S W R N Z
",,,,,,,,,,,,,,,,,,,,,,,,,,,,,,,,,,,,,,,,,,,,,,,,,,,,,,,,,,,,,,,,,,,,,,,,,,,,3,0,3,0,1,,,,,,,,,,,,,
,,,,,,,,,5e404b1dd9609428b4a352c6,41,Kobieta,2022-05-28_08h42.39.621,task,2021.1.4,Win32,59.69792848,628b806c463b948bc644b84f,6291cf7c010c414183a4420b,,,,,,,,,,,,,,,,,,,,,,,,1,,,,,,,,,,Task,34,(9/3) - 2,1,,,,,,,,,,,,,,,,,,,1,,,,,,,,,,,,,,,,,,,,,,,"[""1""]",1,[8.274499999999989],0,0,0,33,1,,,,,,,,,,,,,,,,,,
,,,,,,,,,5e404b1dd9609428b4a352c6,41,Kobieta,2022-05-28_08h42.39.621,task,2021.1.4,Win32,59.69792848,628b806c463b948bc644b84f,6291cf7c010c414183a4420b,,,,,,,,,,,"X V Q F H G B L J M P D K C T S W R N Z
",,,,,,,,,,,,,,,,,,,,,,,,,,,,,,,,,,,,,,,,,,,,,,,,,,,,,,,,,,,,,,,,,,,,,,,,,,,,4,0,4,0,1,,,,,,,,,,,,,
,,,,,,,,,5e404b1dd9609428b4a352c6,41,Kobieta,2022-05-28_08h42.39.621,task,2021.1.4,Win32,59.69792848,628b806c463b948bc644b84f,6291cf7c010c414183a4420b,,,,,,,,,,,,,,,,,,,,,,,,7,,,,,,,,,,Task,6,(12/2) + 1,7,,,,,,,,,,,,,,,,,,,1,,,,,,,,,,,,,,,,,,,,,,,"[""7""]",1,[20.38739999997597],0,0,0,5,1,,,,,,,,,,,,,,,,,,
,,,,,,,,,5e404b1dd9609428b4a352c6,41,Kobieta,2022-05-28_08h42.39.621,task,2021.1.4,Win32,59.69792848,628b806c463b948bc644b84f,6291cf7c010c414183a4420b,,,,,,,,,,,"X V Q F H G B L J M P D K C T S W R N Z
",,,,,,,,,,,,,,,,,,,,,,,,,,,,,,,,,,,,,,,,,,,,,,,,,,,,,,,,,,,,,,,,,,,,,,,,,,,,5,0,5,0,1,,,,,,,,,,,,,
,,,,,,,,,5e404b1dd9609428b4a352c6,41,Kobieta,2022-05-28_08h42.39.621,task,2021.1.4,Win32,59.69792848,628b806c463b948bc644b84f,6291cf7c010c414183a4420b,,,,,,,,,,,,,,,,,,,,,,,,6,,,,,,,,,,Task,5,(2x3) + 0,6,,,,,,,,,,,,,,,,,,,1,,,,,,,,,,,,,,,,,,,,,,,"[""6""]",1,[19.603999999999814],0,0,0,4,1,,,,,,,,,,,,,,,,,,
,,,,,,,,,5e404b1dd9609428b4a352c6,41,Kobieta,2022-05-28_08h42.39.621,task,2021.1.4,Win32,59.69792848,628b806c463b948bc644b84f,6291cf7c010c414183a4420b,,,,,,,,,,,"X V Q F H G B L J M P D K C T S W R N Z
",,,,,,,,,,,,,,,,,,,,,,,,,,,,,,,,,,,,,,,,,,,,,,,,,,,,,,,,,,,,,,,,,,,,,,,,,,,,6,0,6,0,1,,,,,,,,,,,,,
,,,,,,,,,5e404b1dd9609428b4a352c6,41,Kobieta,2022-05-28_08h42.39.621,task,2021.1.4,Win32,59.69792848,628b806c463b948bc644b84f,6291cf7c010c414183a4420b,,,,,,,,,,,,,,,,,,,,,,,,5,,,,,,,,,,Task,22,(3x1) + 2,5,,,,,,,,,,,,,,,,,,,1,,,,,,,,,,,,,,,,,,,,,,,"[""5""]",1,[16.330700000047727],0,0,0,21,1,,,,,,,,,,,,,,,,,,
,,,,,,,,,5e404b1dd9609428b4a352c6,41,Kobieta,2022-05-28_08h42.39.621,task,2021.1.4,Win32,59.69792848,628b806c463b948bc644b84f,6291cf7c010c414183a4420b,,,,,,,,,,,"X V Q F H G B L J M P D K C T S W R N Z
",,,,,,,,,,,,,,,,,,,,,,,,,,,,,,,,,,,,,,,,,,,,,,,,,,,,,,,,,,,,,,,,,,,,,,,,,,,,7,0,7,0,1,,,,,,,,,,,,,
,,,,,,,,,5e404b1dd9609428b4a352c6,41,Kobieta,2022-05-28_08h42.39.621,task,2021.1.4,Win32,59.69792848,628b806c463b948bc644b84f,6291cf7c010c414183a4420b,,,,,,,,,,,,,,,,,,,,,,,,,,,,,,,,,,,,,,,,,,,,,,,,,,,,,,,,,,,,,,,,,,,,,,,,,,,,,,,,,,,,,,,,,,,,wnrhcgdq,"[""w"",""n"",""r"",""h"",""c"",""g"",""d"",""q""]",0,"[2.6213999999758926,4.631700000047658,6.813600000023598,8.764300000071216,10.642300000071373,14.498800000071242,16.422899999975925,24.82549999999992,26.369100000023536]",0,WNRCHGDQ,8,0,8,0,1,,
,,,,,,,,,5e404b1dd9609428b4a352c6,41,Kobieta,2022-05-28_08h42.39.621,task,2021.1.4,Win32,59.69792848,628b806c463b948bc644b84f,6291cf7c010c414183a4420b,,,,,,,,,,,,,,,,,,,,,,,,,,,,,,,,,,Task,10,(2x5) - 8,2,,,,,,,,,,,,,,,,,,,0,,,,,,,,,,,,,,,,,,,,,,,,0,,0,0,0,9,1,,,,,,,,,,,,,,,,,,
,,,,,,,,,5e404b1dd9609428b4a352c6,41,Kobieta,2022-05-28_08h42.39.621,task,2021.1.4,Win32,59.69792848,628b806c463b948bc644b84f,6291cf7c010c414183a4420b,,,,,,,,,,,,,,,,,,,,,,,,4,,,,,,,,,,Task,21,(10/2) - 1,4,,,,,,,,,,,,,,,,,,,1,,,,,,,,,,,,,,,,,,,,,,,"[""4""]",1,[12.19819999992842],0,1,1,20,1,,,,,,,,,,,,,,,,,,
,,,,,,,,,5e404b1dd9609428b4a352c6,41,Kobieta,2022-05-28_08h42.39.621,task,2021.1.4,Win32,59.69792848,628b806c463b948bc644b84f,6291cf7c010c414183a4420b,,,,,,,,,,,"X V Q F H G B L J M P D K C T S W R N Z
",,,,,,,,,,,,,,,,,,,,,,,,,,,,,,,,,,,,,,,,,,,,,,,,,,,,,,,,,,,,,,,,,,,,,,,,,,,,0,0,0,0,1,,,,,,,,,,,,,
,,,,,,,,,5e404b1dd9609428b4a352c6,41,Kobieta,2022-05-28_08h42.39.621,task,2021.1.4,Win32,59.69792848,628b806c463b948bc644b84f,6291cf7c010c414183a4420b,,,,,,,,,,,,,,,,,,,,,,,,6,,,,,,,,,,Task,37,(3/3) + 5,6,,,,,,,,,,,,,,,,,,,1,,,,,,,,,,,,,,,,,,,,,,,"[""6""]",1,[5.474499999999807],0,0,0,36,1,,,,,,,,,,,,,,,,,,
,,,,,,,,,5e404b1dd9609428b4a352c6,41,Kobieta,2022-05-28_08h42.39.621,task,2021.1.4,Win32,59.69792848,628b806c463b948bc644b84f,6291cf7c010c414183a4420b,,,,,,,,,,,"X V Q F H G B L J M P D K C T S W R N Z
",,,,,,,,,,,,,,,,,,,,,,,,,,,,,,,,,,,,,,,,,,,,,,,,,,,,,,,,,,,,,,,,,,,,,,,,,,,,1,0,1,0,1,,,,,,,,,,,,,
,,,,,,,,,5e404b1dd9609428b4a352c6,41,Kobieta,2022-05-28_08h42.39.621,task,2021.1.4,Win32,59.69792848,628b806c463b948bc644b84f,6291cf7c010c414183a4420b,,,,,,,,,,,,,,,,,,,,,,,,2,,,,,,,,,,Task,10,(2x5) - 8,2,,,,,,,,,,,,,,,,,,,1,,,,,,,,,,,,,,,,,,,,,,,"[""2""]",1,[12.415199999928518],0,0,0,9,1,,,,,,,,,,,,,,,,,,
,,,,,,,,,5e404b1dd9609428b4a352c6,41,Kobieta,2022-05-28_08h42.39.621,task,2021.1.4,Win32,59.69792848,628b806c463b948bc644b84f,6291cf7c010c414183a4420b,,,,,,,,,,,"X V Q F H G B L J M P D K C T S W R N Z
",,,,,,,,,,,,,,,,,,,,,,,,,,,,,,,,,,,,,,,,,,,,,,,,,,,,,,,,,,,,,,,,,,,,,,,,,,,,2,0,2,0,1,,,,,,,,,,,,,
,,,,,,,,,5e404b1dd9609428b4a352c6,41,Kobieta,2022-05-28_08h42.39.621,task,2021.1.4,Win32,59.69792848,628b806c463b948bc644b84f,6291cf7c010c414183a4420b,,,,,,,,,,,,,,,,,,,,,,,,6,,,,,,,,,,Task,30,(6/3) + 4 ,6,,,,,,,,,,,,,,,,,,,1,,,,,,,,,,,,,,,,,,,,,,,"[""6""]",1,[6.311100000023998],0,0,0,29,1,,,,,,,,,,,,,,,,,,
,,,,,,,,,5e404b1dd9609428b4a352c6,41,Kobieta,2022-05-28_08h42.39.621,task,2021.1.4,Win32,59.69792848,628b806c463b948bc644b84f,6291cf7c010c414183a4420b,,,,,,,,,,,"X V Q F H G B L J M P D K C T S W R N Z
",,,,,,,,,,,,,,,,,,,,,,,,,,,,,,,,,,,,,,,,,,,,,,,,,,,,,,,,,,,,,,,,,,,,,,,,,,,,3,0,3,0,1,,,,,,,,,,,,,
,,,,,,,,,5e404b1dd9609428b4a352c6,41,Kobieta,2022-05-28_08h42.39.621,task,2021.1.4,Win32,59.69792848,628b806c463b948bc644b84f,6291cf7c010c414183a4420b,,,,,,,,,,,,,,,,,,,,,,,,8,,,,,,,,,,Task,32,(8/2) + 4,8,,,,,,,,,,,,,,,,,,,1,,,,,,,,,,,,,,,,,,,,,,,"[""8""]",1,[27.6558999999761],0,0,0,31,1,,,,,,,,,,,,,,,,,,
,,,,,,,,,5e404b1dd9609428b4a352c6,41,Kobieta,2022-05-28_08h42.39.621,task,2021.1.4,Win32,59.69792848,628b806c463b948bc644b84f,6291cf7c010c414183a4420b,,,,,,,,,,,"X V Q F H G B L J M P D K C T S W R N Z
",,,,,,,,,,,,,,,,,,,,,,,,,,,,,,,,,,,,,,,,,,,,,,,,,,,,,,,,,,,,,,,,,,,,,,,,,,,,4,0,4,0,1,,,,,,,,,,,,,
,,,,,,,,,5e404b1dd9609428b4a352c6,41,Kobieta,2022-05-28_08h42.39.621,task,2021.1.4,Win32,59.69792848,628b806c463b948bc644b84f,6291cf7c010c414183a4420b,,,,,,,,,,,,,,,,,,,,,,,,3,,,,,,,,,,Task,20,(18/9) + 1,3,,,,,,,,,,,,,,,,,,,1,,,,,,,,,,,,,,,,,,,,,,,"[""3""]",1,[20.787300000071355],0,0,0,19,1,,,,,,,,,,,,,,,,,,
,,,,,,,,,5e404b1dd9609428b4a352c6,41,Kobieta,2022-05-28_08h42.39.621,task,2021.1.4,Win32,59.69792848,628b806c463b948bc644b84f,6291cf7c010c414183a4420b,,,,,,,,,,,"X V Q F H G B L J M P D K C T S W R N Z
",,,,,,,,,,,,,,,,,,,,,,,,,,,,,,,,,,,,,,,,,,,,,,,,,,,,,,,,,,,,,,,,,,,,,,,,,,,,5,0,5,0,1,,,,,,,,,,,,,
,,,,,,,,,5e404b1dd9609428b4a352c6,41,Kobieta,2022-05-28_08h42.39.621,task,2021.1.4,Win32,59.69792848,628b806c463b948bc644b84f,6291cf7c010c414183a4420b,,,,,,,,,,,,,,,,,,,,,,,,5,,,,,,,,,,Task,22,(3x1) + 2,5,,,,,,,,,,,,,,,,,,,1,,,,,,,,,,,,,,,,,,,,,,,"[""5""]",1,[5.521500000000287],0,0,0,21,1,,,,,,,,,,,,,,,,,,
,,,,,,,,,5e404b1dd9609428b4a352c6,41,Kobieta,2022-05-28_08h42.39.621,task,2021.1.4,Win32,59.69792848,628b806c463b948bc644b84f,6291cf7c010c414183a4420b,,,,,,,,,,,"X V Q F H G B L J M P D K C T S W R N Z
",,,,,,,,,,,,,,,,,,,,,,,,,,,,,,,,,,,,,,,,,,,,,,,,,,,,,,,,,,,,,,,,,,,,,,,,,,,,6,0,6,0,1,,,,,,,,,,,,,
,,,,,,,,,5e404b1dd9609428b4a352c6,41,Kobieta,2022-05-28_08h42.39.621,task,2021.1.4,Win32,59.69792848,628b806c463b948bc644b84f,6291cf7c010c414183a4420b,,,,,,,,,,,,,,,,,,,,,,,,6,,,,,,,,,,Task,5,(2x3) + 0,6,,,,,,,,,,,,,,,,,,,1,,,,,,,,,,,,,,,,,,,,,,,"[""6""]",1,[10.0324999999998],0,0,0,4,1,,,,,,,,,,,,,,,,,,
,,,,,,,,,5e404b1dd9609428b4a352c6,41,Kobieta,2022-05-28_08h42.39.621,task,2021.1.4,Win32,59.69792848,628b806c463b948bc644b84f,6291cf7c010c414183a4420b,,,,,,,,,,,"X V Q F H G B L J M P D K C T S W R N Z
",,,,,,,,,,,,,,,,,,,,,,,,,,,,,,,,,,,,,,,,,,,,,,,,,,,,,,,,,,,,,,,,,,,,,,,,,,,,7,0,7,0,1,,,,,,,,,,,,,
,,,,,,,,,5e404b1dd9609428b4a352c6,41,Kobieta,2022-05-28_08h42.39.621,task,2021.1.4,Win32,59.69792848,628b806c463b948bc644b84f,6291cf7c010c414183a4420b,,,,,,,,,,,,,,,,,,,,,,,,,,,,,,,,,,,,,,,,,,,,,,,,,,,,,,,,,,,,,,,,,,,,,,,,,,,,,,,,,,,,,,,,,,,,qpmnxpvp,"[""q"",""p"",""m"",""n"",""x"",""p"",""v"",""p""]",0,"[2.246300000071642,3.4221000000238746,4.407600000024104,14.536399999976311,17.10699999999997,19.334899999976187,20.39189999997643,20.919200000048022,25.4058999999761]",1,QPMNXPVP,9,0,9,0,1,,
,,,,,,,,,5e404b1dd9609428b4a352c6,41,Kobieta,2022-05-28_08h42.39.621,task,2021.1.4,Win32,59.69792848,628b806c463b948bc644b84f,6291cf7c010c414183a4420b,,,,,,,,,,,,,,,,,,,,,,,,4,,,,,,,,,,Task,28,(2x5) - 6,4,,,,,,,,,,,,,,,,,,,1,,,,,,,,,,,,,,,,,,,,,,,"[""4""]",1,[12.223799999952462],0,0,0,27,1,,,,,,,,,,,,,,,,,,
,,,,,,,,,5e404b1dd9609428b4a352c6,41,Kobieta,2022-05-28_08h42.39.621,task,2021.1.4,Win32,59.69792848,628b806c463b948bc644b84f,6291cf7c010c414183a4420b,,,,,,,,,,,"X V Q F H G B L J M P D K C T S W R N Z
",,,,,,,,,,,,,,,,,,,,,,,,,,,,,,,,,,,,,,,,,,,,,,,,,,,,,,,,,,,,,,,,,,,,,,,,,,,,0,0,0,0,1,,,,,,,,,,,,,
,,,,,,,,,5e404b1dd9609428b4a352c6,41,Kobieta,2022-05-28_08h42.39.621,task,2021.1.4,Win32,59.69792848,628b806c463b948bc644b84f,6291cf7c010c414183a4420b,,,,,,,,,,,,,,,,,,,,,,,,6,,,,,,,,,,Task,13,(3x4) - 6,6,,,,,,,,,,,,,,,,,,,1,,,,,,,,,,,,,,,,,,,,,,,"[""6""]",1,[26.32900000000018],0,0,0,12,1,,,,,,,,,,,,,,,,,,
,,,,,,,,,5e404b1dd9609428b4a352c6,41,Kobieta,2022-05-28_08h42.39.621,task,2021.1.4,Win32,59.69792848,628b806c463b948bc644b84f,6291cf7c010c414183a4420b,,,,,,,,,,,"X V Q F H G B L J M P D K C T S W R N Z
