key_resp_15.keys,key_resp_15.rt,key_resp_13.keys,key_resp_13.corr,key_resp_13.rt,ranodm_loop.thisRepN,ranodm_loop.thisTrialN,ranodm_loop.thisN,ranodm_loop.thisIndex,ranodm_loop.ran,participant,Wiek*,Płeć,date,expName,psychopyVersion,OS,frameRate,study_id,session,key_resp_16.keys,key_resp_16.rt,key_resp_4.keys,key_resp_4.rt,next_letter.thisRepN,next_letter.thisTrialN,next_letter.thisN,next_letter.thisIndex,next_letter.ran,letter,simple_recall,key_resp_5.keys,key_resp_5.rt,simple_recall_corr,simple_recall_corrkeys,next_level.thisRepN,next_level.thisTrialN,next_level.thisN,next_level.thisIndex,next_level.ran,key_resp_2.keys,key_resp_2.rt,digit_answer,key_resp.keys,key_resp.corr,key_resp.rt,RT_list,next_equation.thisRepN,next_equation.thisTrialN,next_equation.thisN,next_equation.thisIndex,next_equation.ran,Task,Trial,Problem,Operation_answer,processing_score,sumRT,meanRT,sumdiff,sd,RT,key_resp_3.keys,key_resp_3.rt,repeat_practice.thisRepN,repeat_practice.thisTrialN,repeat_practice.thisN,repeat_practice.thisIndex,repeat_practice.ran,key_resp_6.keys,key_resp_6.rt,key_resp_11.keys,key_resp_11.corr,key_resp_11.rt,operation_correct,repeat_if_wrong_prac.thisRepN,repeat_if_wrong_prac.thisTrialN,repeat_if_wrong_prac.thisN,repeat_if_wrong_prac.thisIndex,repeat_if_wrong_prac.ran,span_size_prac.thisRepN,span_size_prac.thisTrialN,span_size_prac.thisN,span_size_prac.thisIndex,span_size_prac.ran,complex_recall_practice,key_resp_9.keys,key_resp_9.corr,key_resp_9.rt,complex_prac_corr,span_recall_prac.thisRepN,span_recall_prac.thisTrialN,span_recall_prac.thisN,span_recall_prac.thisIndex,span_recall_prac.ran,key_resp_10.keys,key_resp_10.rt,key_resp_7.keys,key_resp_7.corr,key_resp_7.rt,repeat_if_wrong.thisRepN,repeat_if_wrong.thisTrialN,repeat_if_wrong.thisN,repeat_if_wrong.thisIndex,repeat_if_wrong.ran,span_size.thisRepN,span_size.thisTrialN,span_size.thisN,span_size.thisIndex,span_size.ran,complex_recall,key_resp_8.keys,key_resp_8.corr,key_resp_8.rt,complex_recall_corr,complex_recall_corrkeys,span_recall.thisRepN,span_recall.thisTrialN,span_recall.thisN,span_recall.thisIndex,span_recall.ran,key_resp_12.keys,key_resp_12.rt
space,31.1146,"[""comma""]",0,[1.1878000000715332],0,0,0,0,1,5e41325ffce14d35e6da5bb6,19,Mężczyzna,2022-05-28_09h27.31.283,task,2021.1.4,Win32,60.0060006,628b806c463b948bc644b84f,6291ce3eda0c0bbeb55cb6d0,,,,,,,,,,,,,,,,,,,,,,,,,,,,,,,,,,,,,,,,,,,,,,,,,,,,,,,,,,,,,,,,,,,,,,,,,,,,,,,,,,,,,,,,,,,,,,,,,,,,,,,
,,"[""period""]",0,[1.1132000000476836],1,0,1,0,1,5e41325ffce14d35e6da5bb6,19,Mężczyzna,2022-05-28_09h27.31.283,task,2021.1.4,Win32,60.0060006,628b806c463b948bc644b84f,6291ce3eda0c0bbeb55cb6d0,,,,,,,,,,,,,,,,,,,,,,,,,,,,,,,,,,,,,,,,,,,,,,,,,,,,,,,,,,,,,,,,,,,,,,,,,,,,,,,,,,,,,,,,,,,,,,,,,,,,,,,
,,"[""comma""]",0,[0.9805000000000064],2,0,2,0,1,5e41325ffce14d35e6da5bb6,19,Mężczyzna,2022-05-28_09h27.31.283,task,2021.1.4,Win32,60.0060006,628b806c463b948bc644b84f,6291ce3eda0c0bbeb55cb6d0,,,,,,,,,,,,,,,,,,,,,,,,,,,,,,,,,,,,,,,,,,,,,,,,,,,,,,,,,,,,,,,,,,,,,,,,,,,,,,,,,,,,,,,,,,,,,,,,,,,,,,,
,,"[""comma""]",0,[1.0294999999999845],3,0,3,0,1,5e41325ffce14d35e6da5bb6,19,Mężczyzna,2022-05-28_09h27.31.283,task,2021.1.4,Win32,60.0060006,628b806c463b948bc644b84f,6291ce3eda0c0bbeb55cb6d0,,,,,,,,,,,,,,,,,,,,,,,,,,,,,,,,,,,,,,,,,,,,,,,,,,,,,,,,,,,,,,,,,,,,,,,,,,,,,,,,,,,,,,,,,,,,,,,,,,,,,,,
,,"[""period""]",0,[1.0434999999999945],4,0,4,0,1,5e41325ffce14d35e6da5bb6,19,Mężczyzna,2022-05-28_09h27.31.283,task,2021.1.4,Win32,60.0060006,628b806c463b948bc644b84f,6291ce3eda0c0bbeb55cb6d0,,,,,,,,,,,,,,,,,,,,,,,,,,,,,,,,,,,,,,,,,,,,,,,,,,,,,,,,,,,,,,,,,,,,,,,,,,,,,,,,,,,,,,,,,,,,,,,,,,,,,,,
,,"[""period""]",0,[1.0101000000238685],5,0,5,0,1,5e41325ffce14d35e6da5bb6,19,Mężczyzna,2022-05-28_09h27.31.283,task,2021.1.4,Win32,60.0060006,628b806c463b948bc644b84f,6291ce3eda0c0bbeb55cb6d0,,,,,,,,,,,,,,,,,,,,,,,,,,,,,,,,,,,,,,,,,,,,,,,,,,,,,,,,,,,,,,,,,,,,,,,,,,,,,,,,,,,,,,,,,,,,,,,,,,,,,,,
,,"[""period""]",0,[1.0875999999046257],6,0,6,0,1,5e41325ffce14d35e6da5bb6,19,Mężczyzna,2022-05-28_09h27.31.283,task,2021.1.4,Win32,60.0060006,628b806c463b948bc644b84f,6291ce3eda0c0bbeb55cb6d0,,,,,,,,,,,,,,,,,,,,,,,,,,,,,,,,,,,,,,,,,,,,,,,,,,,,,,,,,,,,,,,,,,,,,,,,,,,,,,,,,,,,,,,,,,,,,,,,,,,,,,,
,,"[""comma""]",0,[1.1073000000715183],7,0,7,0,1,5e41325ffce14d35e6da5bb6,19,Mężczyzna,2022-05-28_09h27.31.283,task,2021.1.4,Win32,60.0060006,628b806c463b948bc644b84f,6291ce3eda0c0bbeb55cb6d0,,,,,,,,,,,,,,,,,,,,,,,,,,,,,,,,,,,,,,,,,,,,,,,,,,,,,,,,,,,,,,,,,,,,,,,,,,,,,,,,,,,,,,,,,,,,,,,,,,,,,,,
,,"[""period""]",0,[1.037200000047676],8,0,8,0,1,5e41325ffce14d35e6da5bb6,19,Mężczyzna,2022-05-28_09h27.31.283,task,2021.1.4,Win32,60.0060006,628b806c463b948bc644b84f,6291ce3eda0c0bbeb55cb6d0,,,,,,,,,,,,,,,,,,,,,,,,,,,,,,,,,,,,,,,,,,,,,,,,,,,,,,,,,,,,,,,,,,,,,,,,,,,,,,,,,,,,,,,,,,,,,,,,,,,,,,,
,,"[""period""]",0,[1.073800000071543],9,0,9,0,1,5e41325ffce14d35e6da5bb6,19,Mężczyzna,2022-05-28_09h27.31.283,task,2021.1.4,Win32,60.0060006,628b806c463b948bc644b84f,6291ce3eda0c0bbeb55cb6d0,,,,,,,,,,,,,,,,,,,,,,,,,,,,,,,,,,,,,,,,,,,,,,,,,,,,,,,,,,,,,,,,,,,,,,,,,,,,,,,,,,,,,,,,,,,,,,,,,,,,,,,
,,"[""comma""]",0,[1.0515000000000043],10,0,10,0,1,5e41325ffce14d35e6da5bb6,19,Mężczyzna,2022-05-28_09h27.31.283,task,2021.1.4,Win32,60.0060006,628b806c463b948bc644b84f,6291ce3eda0c0bbeb55cb6d0,,,,,,,,,,,,,,,,,,,,,,,,,,,,,,,,,,,,,,,,,,,,,,,,,,,,,,,,,,,,,,,,,,,,,,,,,,,,,,,,,,,,,,,,,,,,,,,,,,,,,,,
,,"[""comma""]",0,[1.0392000000476855],11,0,11,0,1,5e41325ffce14d35e6da5bb6,19,Mężczyzna,2022-05-28_09h27.31.283,task,2021.1.4,Win32,60.0060006,628b806c463b948bc644b84f,6291ce3eda0c0bbeb55cb6d0,,,,,,,,,,,,,,,,,,,,,,,,,,,,,,,,,,,,,,,,,,,,,,,,,,,,,,,,,,,,,,,,,,,,,,,,,,,,,,,,,,,,,,,,,,,,,,,,,,,,,,,
,,"[""comma""]",0,[1.0026000000238469],12,0,12,0,1,5e41325ffce14d35e6da5bb6,19,Mężczyzna,2022-05-28_09h27.31.283,task,2021.1.4,Win32,60.0060006,628b806c463b948bc644b84f,6291ce3eda0c0bbeb55cb6d0,,,,,,,,,,,,,,,,,,,,,,,,,,,,,,,,,,,,,,,,,,,,,,,,,,,,,,,,,,,,,,,,,,,,,,,,,,,,,,,,,,,,,,,,,,,,,,,,,,,,,,,
,,"[""comma""]",0,[1.0416000000238625],13,0,13,0,1,5e41325ffce14d35e6da5bb6,19,Mężczyzna,2022-05-28_09h27.31.283,task,2021.1.4,Win32,60.0060006,628b806c463b948bc644b84f,6291ce3eda0c0bbeb55cb6d0,,,,,,,,,,,,,,,,,,,,,,,,,,,,,,,,,,,,,,,,,,,,,,,,,,,,,,,,,,,,,,,,,,,,,,,,,,,,,,,,,,,,,,,,,,,,,,,,,,,,,,,
,,"[""period""]",0,[1.0347000000477067],14,0,14,0,1,5e41325ffce14d35e6da5bb6,19,Mężczyzna,2022-05-28_09h27.31.283,task,2021.1.4,Win32,60.0060006,628b806c463b948bc644b84f,6291ce3eda0c0bbeb55cb6d0,,,,,,,,,,,,,,,,,,,,,,,,,,,,,,,,,,,,,,,,,,,,,,,,,,,,,,,,,,,,,,,,,,,,,,,,,,,,,,,,,,,,,,,,,,,,,,,,,,,,,,,
,,"[""comma""]",0,[1.0281000000238407],15,0,15,0,1,5e41325ffce14d35e6da5bb6,19,Mężczyzna,2022-05-28_09h27.31.283,task,2021.1.4,Win32,60.0060006,628b806c463b948bc644b84f,6291ce3eda0c0bbeb55cb6d0,,,,,,,,,,,,,,,,,,,,,,,,,,,,,,,,,,,,,,,,,,,,,,,,,,,,,,,,,,,,,,,,,,,,,,,,,,,,,,,,,,,,,,,,,,,,,,,,,,,,,,,
,,"[""period""]",0,[1.0601000000238514],16,0,16,0,1,5e41325ffce14d35e6da5bb6,19,Mężczyzna,2022-05-28_09h27.31.283,task,2021.1.4,Win32,60.0060006,628b806c463b948bc644b84f,6291ce3eda0c0bbeb55cb6d0,,,,,,,,,,,,,,,,,,,,,,,,,,,,,,,,,,,,,,,,,,,,,,,,,,,,,,,,,,,,,,,,,,,,,,,,,,,,,,,,,,,,,,,,,,,,,,,,,,,,,,,
,,"[""period""]",0,[1.044200000047681],17,0,17,0,1,5e41325ffce14d35e6da5bb6,19,Mężczyzna,2022-05-28_09h27.31.283,task,2021.1.4,Win32,60.0060006,628b806c463b948bc644b84f,6291ce3eda0c0bbeb55cb6d0,,,,,,,,,,,,,,,,,,,,,,,,,,,,,,,,,,,,,,,,,,,,,,,,,,,,,,,,,,,,,,,,,,,,,,,,,,,,,,,,,,,,,,,,,,,,,,,,,,,,,,,
,,"[""period""]",0,[0.9958999999761602],18,0,18,0,1,5e41325ffce14d35e6da5bb6,19,Mężczyzna,2022-05-28_09h27.31.283,task,2021.1.4,Win32,60.0060006,628b806c463b948bc644b84f,6291ce3eda0c0bbeb55cb6d0,,,,,,,,,,,,,,,,,,,,,,,,,,,,,,,,,,,,,,,,,,,,,,,,,,,,,,,,,,,,,,,,,,,,,,,,,,,,,,,,,,,,,,,,,,,,,,,,,,,,,,,
,,"[""comma""]",0,[1.0616999999284644],19,0,19,0,1,5e41325ffce14d35e6da5bb6,19,Mężczyzna,2022-05-28_09h27.31.283,task,2021.1.4,Win32,60.0060006,628b806c463b948bc644b84f,6291ce3eda0c0bbeb55cb6d0,,,,,,,,,,,,,,,,,,,,,,,,,,,,,,,,,,,,,,,,,,,,,,,,,,,,,,,,,,,,,,,,,,,,,,,,,,,,,,,,,,,,,,,,,,,,,,,,,,,,,,,
,,"[""comma""]",0,[1.0863000000715033],20,0,20,0,1,5e41325ffce14d35e6da5bb6,19,Mężczyzna,2022-05-28_09h27.31.283,task,2021.1.4,Win32,60.0060006,628b806c463b948bc644b84f,6291ce3eda0c0bbeb55cb6d0,,,,,,,,,,,,,,,,,,,,,,,,,,,,,,,,,,,,,,,,,,,,,,,,,,,,,,,,,,,,,,,,,,,,,,,,,,,,,,,,,,,,,,,,,,,,,,,,,,,,,,,
,,"[""comma""]",0,[1.0517999999522942],21,0,21,0,1,5e41325ffce14d35e6da5bb6,19,Mężczyzna,2022-05-28_09h27.31.283,task,2021.1.4,Win32,60.0060006,628b806c463b948bc644b84f,6291ce3eda0c0bbeb55cb6d0,,,,,,,,,,,,,,,,,,,,,,,,,,,,,,,,,,,,,,,,,,,,,,,,,,,,,,,,,,,,,,,,,,,,,,,,,,,,,,,,,,,,,,,,,,,,,,,,,,,,,,,
,,"[""period""]",0,[1.0477999999523036],22,0,22,0,1,5e41325ffce14d35e6da5bb6,19,Mężczyzna,2022-05-28_09h27.31.283,task,2021.1.4,Win32,60.0060006,628b806c463b948bc644b84f,6291ce3eda0c0bbeb55cb6d0,,,,,,,,,,,,,,,,,,,,,,,,,,,,,,,,,,,,,,,,,,,,,,,,,,,,,,,,,,,,,,,,,,,,,,,,,,,,,,,,,,,,,,,,,,,,,,,,,,,,,,,
,,"[""period""]",0,[1.044200000047681],23,0,23,0,1,5e41325ffce14d35e6da5bb6,19,Mężczyzna,2022-05-28_09h27.31.283,task,2021.1.4,Win32,60.0060006,628b806c463b948bc644b84f,6291ce3eda0c0bbeb55cb6d0,,,,,,,,,,,,,,,,,,,,,,,,,,,,,,,,,,,,,,,,,,,,,,,,,,,,,,,,,,,,,,,,,,,,,,,,,,,,,,,,,,,,,,,,,,,,,,,,,,,,,,,
,,"[""period""]",0,[0.9344999999999857],24,0,24,0,1,5e41325ffce14d35e6da5bb6,19,Mężczyzna,2022-05-28_09h27.31.283,task,2021.1.4,Win32,60.0060006,628b806c463b948bc644b84f,6291ce3eda0c0bbeb55cb6d0,,,,,,,,,,,,,,,,,,,,,,,,,,,,,,,,,,,,,,,,,,,,,,,,,,,,,,,,,,,,,,,,,,,,,,,,,,,,,,,,,,,,,,,,,,,,,,,,,,,,,,,
,,"[""period""]",0,[1.008600000023847],25,0,25,0,1,5e41325ffce14d35e6da5bb6,19,Mężczyzna,2022-05-28_09h27.31.283,task,2021.1.4,Win32,60.0060006,628b806c463b948bc644b84f,6291ce3eda0c0bbeb55cb6d0,,,,,,,,,,,,,,,,,,,,,,,,,,,,,,,,,,,,,,,,,,,,,,,,,,,,,,,,,,,,,,,,,,,,,,,,,,,,,,,,,,,,,,,,,,,,,,,,,,,,,,,
,,"[""comma""]",0,[1.0824999999999818],26,0,26,0,1,5e41325ffce14d35e6da5bb6,19,Mężczyzna,2022-05-28_09h27.31.283,task,2021.1.4,Win32,60.0060006,628b806c463b948bc644b84f,6291ce3eda0c0bbeb55cb6d0,,,,,,,,,,,,,,,,,,,,,,,,,,,,,,,,,,,,,,,,,,,,,,,,,,,,,,,,,,,,,,,,,,,,,,,,,,,,,,,,,,,,,,,,,,,,,,,,,,,,,,,
,,"[""comma""]",0,[1.0657000000476842],27,0,27,0,1,5e41325ffce14d35e6da5bb6,19,Mężczyzna,2022-05-28_09h27.31.283,task,2021.1.4,Win32,60.0060006,628b806c463b948bc644b84f,6291ce3eda0c0bbeb55cb6d0,,,,,,,,,,,,,,,,,,,,,,,,,,,,,,,,,,,,,,,,,,,,,,,,,,,,,,,,,,,,,,,,,,,,,,,,,,,,,,,,,,,,,,,,,,,,,,,,,,,,,,,
,,"[""period""]",0,[1.082299999952312],28,0,28,0,1,5e41325ffce14d35e6da5bb6,19,Mężczyzna,2022-05-28_09h27.31.283,task,2021.1.4,Win32,60.0060006,628b806c463b948bc644b84f,6291ce3eda0c0bbeb55cb6d0,,,,,,,,,,,,,,,,,,,,,,,,,,,,,,,,,,,,,,,,,,,,,,,,,,,,,,,,,,,,,,,,,,,,,,,,,,,,,,,,,,,,,,,,,,,,,,,,,,,,,,,
,,"[""period""]",0,[1.070600000023859],29,0,29,0,1,5e41325ffce14d35e6da5bb6,19,Mężczyzna,2022-05-28_09h27.31.283,task,2021.1.4,Win32,60.0060006,628b806c463b948bc644b84f,6291ce3eda0c0bbeb55cb6d0,,,,,,,,,,,,,,,,,,,,,,,,,,,,,,,,,,,,,,,,,,,,,,,,,,,,,,,,,,,,,,,,,,,,,,,,,,,,,,,,,,,,,,,,,,,,,,,,,,,,,,,
,,"[""comma""]",0,[1.026399999976178],30,0,30,0,1,5e41325ffce14d35e6da5bb6,19,Mężczyzna,2022-05-28_09h27.31.283,task,2021.1.4,Win32,60.0060006,628b806c463b948bc644b84f,6291ce3eda0c0bbeb55cb6d0,,,,,,,,,,,,,,,,,,,,,,,,,,,,,,,,,,,,,,,,,,,,,,,,,,,,,,,,,,,,,,,,,,,,,,,,,,,,,,,,,,,,,,,,,,,,,,,,,,,,,,,
,,"[""period""]",0,[1.0637000000476746],31,0,31,0,1,5e41325ffce14d35e6da5bb6,19,Mężczyzna,2022-05-28_09h27.31.283,task,2021.1.4,Win32,60.0060006,628b806c463b948bc644b84f,6291ce3eda0c0bbeb55cb6d0,,,,,,,,,,,,,,,,,,,,,,,,,,,,,,,,,,,,,,,,,,,,,,,,,,,,,,,,,,,,,,,,,,,,,,,,,,,,,,,,,,,,,,,,,,,,,,,,,,,,,,,
,,"[""period""]",0,[1.0242000000476708],32,0,32,0,1,5e41325ffce14d35e6da5bb6,19,Mężczyzna,2022-05-28_09h27.31.283,task,2021.1.4,Win32,60.0060006,628b806c463b948bc644b84f,6291ce3eda0c0bbeb55cb6d0,,,,,,,,,,,,,,,,,,,,,,,,,,,,,,,,,,,,,,,,,,,,,,,,,,,,,,,,,,,,,,,,,,,,,,,,,,,,,,,,,,,,,,,,,,,,,,,,,,,,,,,
,,"[""period""]",0,[1.061000000000007],33,0,33,0,1,5e41325ffce14d35e6da5bb6,19,Mężczyzna,2022-05-28_09h27.31.283,task,2021.1.4,Win32,60.0060006,628b806c463b948bc644b84f,6291ce3eda0c0bbeb55cb6d0,,,,,,,,,,,,,,,,,,,,,,,,,,,,,,,,,,,,,,,,,,,,,,,,,,,,,,,,,,,,,,,,,,,,,,,,,,,,,,,,,,,,,,,,,,,,,,,,,,,,,,,
,,"[""comma""]",0,[1.0420000000000016],34,0,34,0,1,5e41325ffce14d35e6da5bb6,19,Mężczyzna,2022-05-28_09h27.31.283,task,2021.1.4,Win32,60.0060006,628b806c463b948bc644b84f,6291ce3eda0c0bbeb55cb6d0,,,,,,,,,,,,,,,,,,,,,,,,,,,,,,,,,,,,,,,,,,,,,,,,,,,,,,,,,,,,,,,,,,,,,,,,,,,,,,,,,,,,,,,,,,,,,,,,,,,,,,,
,,"[""comma""]",0,[1.1151999999284499],35,0,35,0,1,5e41325ffce14d35e6da5bb6,19,Mężczyzna,2022-05-28_09h27.31.283,task,2021.1.4,Win32,60.0060006,628b806c463b948bc644b84f,6291ce3eda0c0bbeb55cb6d0,,,,,,,,,,,,,,,,,,,,,,,,,,,,,,,,,,,,,,,,,,,,,,,,,,,,,,,,,,,,,,,,,,,,,,,,,,,,,,,,,,,,,,,,,,,,,,,,,,,,,,,
,,"[""period""]",0,[1.1011999999284683],36,0,36,0,1,5e41325ffce14d35e6da5bb6,19,Mężczyzna,2022-05-28_09h27.31.283,task,2021.1.4,Win32,60.0060006,628b806c463b948bc644b84f,6291ce3eda0c0bbeb55cb6d0,,,,,,,,,,,,,,,,,,,,,,,,,,,,,,,,,,,,,,,,,,,,,,,,,,,,,,,,,,,,,,,,,,,,,,,,,,,,,,,,,,,,,,,,,,,,,,,,,,,,,,,
,,"[""period""]",0,[1.0631000000238657],37,0,37,0,1,5e41325ffce14d35e6da5bb6,19,Mężczyzna,2022-05-28_09h27.31.283,task,2021.1.4,Win32,60.0060006,628b806c463b948bc644b84f,6291ce3eda0c0bbeb55cb6d0,,,,,,,,,,,,,,,,,,,,,,,,,,,,,,,,,,,,,,,,,,,,,,,,,,,,,,,,,,,,,,,,,,,,,,,,,,,,,,,,,,,,,,,,,,,,,,,,,,,,,,,
,,"[""comma""]",0,[1.085100000023857],38,0,38,0,1,5e41325ffce14d35e6da5bb6,19,Mężczyzna,2022-05-28_09h27.31.283,task,2021.1.4,Win32,60.0060006,628b806c463b948bc644b84f,6291ce3eda0c0bbeb55cb6d0,,,,,,,,,,,,,,,,,,,,,,,,,,,,,,,,,,,,,,,,,,,,,,,,,,,,,,,,,,,,,,,,,,,,,,,,,,,,,,,,,,,,,,,,,,,,,,,,,,,,,,,
,,"[""comma""]",0,[1.0531000000238464],39,0,39,0,1,5e41325ffce14d35e6da5bb6,19,Mężczyzna,2022-05-28_09h27.31.283,task,2021.1.4,Win32,60.0060006,628b806c463b948bc644b84f,6291ce3eda0c0bbeb55cb6d0,,,,,,,,,,,,,,,,,,,,,,,,,,,,,,,,,,,,,,,,,,,,,,,,,,,,,,,,,,,,,,,,,,,,,,,,,,,,,,,,,,,,,,,,,,,,,,,,,,,,,,,
,,"[""comma""]",0,[1.0536000000238346],40,0,40,0,1,5e41325ffce14d35e6da5bb6,19,Mężczyzna,2022-05-28_09h27.31.283,task,2021.1.4,Win32,60.0060006,628b806c463b948bc644b84f,6291ce3eda0c0bbeb55cb6d0,,,,,,,,,,,,,,,,,,,,,,,,,,,,,,,,,,,,,,,,,,,,,,,,,,,,,,,,,,,,,,,,,,,,,,,,,,,,,,,,,,,,,,,,,,,,,,,,,,,,,,,
,,"[""comma""]",0,[1.008899999976137],41,0,41,0,1,5e41325ffce14d35e6da5bb6,19,Mężczyzna,2022-05-28_09h27.31.283,task,2021.1.4,Win32,60.0060006,628b806c463b948bc644b84f,6291ce3eda0c0bbeb55cb6d0,,,,,,,,,,,,,,,,,,,,,,,,,,,,,,,,,,,,,,,,,,,,,,,,,,,,,,,,,,,,,,,,,,,,,,,,,,,,,,,,,,,,,,,,,,,,,,,,,,,,,,,
,,"[""period""]",0,[0.9628000000715247],42,0,42,0,1,5e41325ffce14d35e6da5bb6,19,Mężczyzna,2022-05-28_09h27.31.283,task,2021.1.4,Win32,60.0060006,628b806c463b948bc644b84f,6291ce3eda0c0bbeb55cb6d0,,,,,,,,,,,,,,,,,,,,,,,,,,,,,,,,,,,,,,,,,,,,,,,,,,,,,,,,,,,,,,,,,,,,,,,,,,,,,,,,,,,,,,,,,,,,,,,,,,,,,,,
,,"[""comma""]",0,[1.0872999999523358],43,0,43,0,1,5e41325ffce14d35e6da5bb6,19,Mężczyzna,2022-05-28_09h27.31.283,task,2021.1.4,Win32,60.0060006,628b806c463b948bc644b84f,6291ce3eda0c0bbeb55cb6d0,,,,,,,,,,,,,,,,,,,,,,,,,,,,,,,,,,,,,,,,,,,,,,,,,,,,,,,,,,,,,,,,,,,,,,,,,,,,,,,,,,,,,,,,,,,,,,,,,,,,,,,
,,"[""period""]",0,[1.0333000000715344],44,0,44,0,1,5e41325ffce14d35e6da5bb6,19,Mężczyzna,2022-05-28_09h27.31.283,task,2021.1.4,Win32,60.0060006,628b806c463b948bc644b84f,6291ce3eda0c0bbeb55cb6d0,,,,,,,,,,,,,,,,,,,,,,,,,,,,,,,,,,,,,,,,,,,,,,,,,,,,,,,,,,,,,,,,,,,,,,,,,,,,,,,,,,,,,,,,,,,,,,,,,,,,,,,
,,"[""comma""]",0,[1.0696999999284742],45,0,45,0,1,5e41325ffce14d35e6da5bb6,19,Mężczyzna,2022-05-28_09h27.31.283,task,2021.1.4,Win32,60.0060006,628b806c463b948bc644b84f,6291ce3eda0c0bbeb55cb6d0,,,,,,,,,,,,,,,,,,,,,,,,,,,,,,,,,,,,,,,,,,,,,,,,,,,,,,,,,,,,,,,,,,,,,,,,,,,,,,,,,,,,,,,,,,,,,,,,,,,,,,,
,,"[""comma""]",0,[1.0778000000715338],46,0,46,0,1,5e41325ffce14d35e6da5bb6,19,Mężczyzna,2022-05-28_09h27.31.283,task,2021.1.4,Win32,60.0060006,628b806c463b948bc644b84f,6291ce3eda0c0bbeb55cb6d0,,,,,,,,,,,,,,,,,,,,,,,,,,,,,,,,,,,,,,,,,,,,,,,,,,,,,,,,,,,,,,,,,,,,,,,,,,,,,,,,,,,,,,,,,,,,,,,,,,,,,,,
,,"[""period""]",0,[1.0335000000000036],47,0,47,0,1,5e41325ffce14d35e6da5bb6,19,Mężczyzna,2022-05-28_09h27.31.283,task,2021.1.4,Win32,60.0060006,628b806c463b948bc644b84f,6291ce3eda0c0bbeb55cb6d0,,,,,,,,,,,,,,,,,,,,,,,,,,,,,,,,,,,,,,,,,,,,,,,,,,,,,,,,,,,,,,,,,,,,,,,,,,,,,,,,,,,,,,,,,,,,,,,,,,,,,,,
,,"[""period""]",0,[1.1153999999761766],48,0,48,0,1,5e41325ffce14d35e6da5bb6,19,Mężczyzna,2022-05-28_09h27.31.283,task,2021.1.4,Win32,60.0060006,628b806c463b948bc644b84f,6291ce3eda0c0bbeb55cb6d0,,,,,,,,,,,,,,,,,,,,,,,,,,,,,,,,,,,,,,,,,,,,,,,,,,,,,,,,,,,,,,,,,,,,,,,,,,,,,,,,,,,,,,,,,,,,,,,,,,,,,,,
,,"[""period""]",0,[1.0463999999761597],49,0,49,0,1,5e41325ffce14d35e6da5bb6,19,Mężczyzna,2022-05-28_09h27.31.283,task,2021.1.4,Win32,60.0060006,628b806c463b948bc644b84f,6291ce3eda0c0bbeb55cb6d0,,,,,,,,,,,,,,,,,,,,,,,,,,,,,,,,,,,,,,,,,,,,,,,,,,,,,,,,,,,,,,,,,,,,,,,,,,,,,,,,,,,,,,,,,,,,,,,,,,,,,,,
,,"[""period""]",0,[1.0560000000000116],50,0,50,0,1,5e41325ffce14d35e6da5bb6,19,Mężczyzna,2022-05-28_09h27.31.283,task,2021.1.4,Win32,60.0060006,628b806c463b948bc644b84f,6291ce3eda0c0bbeb55cb6d0,,,,,,,,,,,,,,,,,,,,,,,,,,,,,,,,,,,,,,,,,,,,,,,,,,,,,,,,,,,,,,,,,,,,,,,,,,,,,,,,,,,,,,,,,,,,,,,,,,,,,,,
,,"[""comma""]",0,[1.0558000000715424],51,0,51,0,1,5e41325ffce14d35e6da5bb6,19,Mężczyzna,2022-05-28_09h27.31.283,task,2021.1.4,Win32,60.0060006,628b806c463b948bc644b84f,6291ce3eda0c0bbeb55cb6d0,,,,,,,,,,,,,,,,,,,,,,,,,,,,,,,,,,,,,,,,,,,,,,,,,,,,,,,,,,,,,,,,,,,,,,,,,,,,,,,,,,,,,,,,,,,,,,,,,,,,,,,
,,"[""comma""]",0,[1.0848999999761588],52,0,52,0,1,5e41325ffce14d35e6da5bb6,19,Mężczyzna,2022-05-28_09h27.31.283,task,2021.1.4,Win32,60.0060006,628b806c463b948bc644b84f,6291ce3eda0c0bbeb55cb6d0,,,,,,,,,,,,,,,,,,,,,,,,,,,,,,,,,,,,,,,,,,,,,,,,,,,,,,,,,,,,,,,,,,,,,,,,,,,,,,,,,,,,,,,,,,,,,,,,,,,,,,,
,,"[""comma""]",0,[1.0961000000238244],53,0,53,0,1,5e41325ffce14d35e6da5bb6,19,Mężczyzna,2022-05-28_09h27.31.283,task,2021.1.4,Win32,60.0060006,628b806c463b948bc644b84f,6291ce3eda0c0bbeb55cb6d0,,,,,,,,,,,,,,,,,,,,,,,,,,,,,,,,,,,,,,,,,,,,,,,,,,,,,,,,,,,,,,,,,,,,,,,,,,,,,,,,,,,,,,,,,,,,,,,,,,,,,,,
,,"[""period""]",0,[0.980499999999978],54,0,54,0,1,5e41325ffce14d35e6da5bb6,19,Mężczyzna,2022-05-28_09h27.31.283,task,2021.1.4,Win32,60.0060006,628b806c463b948bc644b84f,6291ce3eda0c0bbeb55cb6d0,,,,,,,,,,,,,,,,,,,,,,,,,,,,,,,,,,,,,,,,,,,,,,,,,,,,,,,,,,,,,,,,,,,,,,,,,,,,,,,,,,,,,,,,,,,,,,,,,,,,,,,
,,"[""period""]",0,[0.9708999999761545],55,0,55,0,1,5e41325ffce14d35e6da5bb6,19,Mężczyzna,2022-05-28_09h27.31.283,task,2021.1.4,Win32,60.0060006,628b806c463b948bc644b84f,6291ce3eda0c0bbeb55cb6d0,,,,,,,,,,,,,,,,,,,,,,,,,,,,,,,,,,,,,,,,,,,,,,,,,,,,,,,,,,,,,,,,,,,,,,,,,,,,,,,,,,,,,,,,,,,,,,,,,,,,,,,
,,"[""comma""]",0,[1.0242999999523192],56,0,56,0,1,5e41325ffce14d35e6da5bb6,19,Mężczyzna,2022-05-28_09h27.31.283,task,2021.1.4,Win32,60.0060006,628b806c463b948bc644b84f,6291ce3eda0c0bbeb55cb6d0,,,,,,,,,,,,,,,,,,,,,,,,,,,,,,,,,,,,,,,,,,,,,,,,,,,,,,,,,,,,,,,,,,,,,,,,,,,,,,,,,,,,,,,,,,,,,,,,,,,,,,,
,,"[""comma""]",0,[0.983299999952294],57,0,57,0,1,5e41325ffce14d35e6da5bb6,19,Mężczyzna,2022-05-28_09h27.31.283,task,2021.1.4,Win32,60.0060006,628b806c463b948bc644b84f,6291ce3eda0c0bbeb55cb6d0,,,,,,,,,,,,,,,,,,,,,,,,,,,,,,,,,,,,,,,,,,,,,,,,,,,,,,,,,,,,,,,,,,,,,,,,,,,,,,,,,,,,,,,,,,,,,,,,,,,,,,,
,,"[""comma""]",0,[1.0732000000476773],58,0,58,0,1,5e41325ffce14d35e6da5bb6,19,Mężczyzna,2022-05-28_09h27.31.283,task,2021.1.4,Win32,60.0060006,628b806c463b948bc644b84f,6291ce3eda0c0bbeb55cb6d0,,,,,,,,,,,,,,,,,,,,,,,,,,,,,,,,,,,,,,,,,,,,,,,,,,,,,,,,,,,,,,,,,,,,,,,,,,,,,,,,,,,,,,,,,,,,,,,,,,,,,,,
,,"[""period""]",0,[1.0194999999999936],59,0,59,0,1,5e41325ffce14d35e6da5bb6,19,Mężczyzna,2022-05-28_09h27.31.283,task,2021.1.4,Win32,60.0060006,628b806c463b948bc644b84f,6291ce3eda0c0bbeb55cb6d0,,,,,,,,,,,,,,,,,,,,,,,,,,,,,,,,,,,,,,,,,,,,,,,,,,,,,,,,,,,,,,,,,,,,,,,,,,,,,,,,,,,,,,,,,,,,,,,,,,,,,,,
,,"[""comma""]",0,[1.025999999999982],60,0,60,0,1,5e41325ffce14d35e6da5bb6,19,Mężczyzna,2022-05-28_09h27.31.283,task,2021.1.4,Win32,60.0060006,628b806c463b948bc644b84f,6291ce3eda0c0bbeb55cb6d0,,,,,,,,,,,,,,,,,,,,,,,,,,,,,,,,,,,,,,,,,,,,,,,,,,,,,,,,,,,,,,,,,,,,,,,,,,,,,,,,,,,,,,,,,,,,,,,,,,,,,,,
,,"[""comma""]",0,[1.0818000000715244],61,0,61,0,1,5e41325ffce14d35e6da5bb6,19,Mężczyzna,2022-05-28_09h27.31.283,task,2021.1.4,Win32,60.0060006,628b806c463b948bc644b84f,6291ce3eda0c0bbeb55cb6d0,,,,,,,,,,,,,,,,,,,,,,,,,,,,,,,,,,,,,,,,,,,,,,,,,,,,,,,,,,,,,,,,,,,,,,,,,,,,,,,,,,,,,,,,,,,,,,,,,,,,,,,
,,"[""period""]",0,[1.027100000023836],62,0,62,0,1,5e41325ffce14d35e6da5bb6,19,Mężczyzna,2022-05-28_09h27.31.283,task,2021.1.4,Win32,60.0060006,628b806c463b948bc644b84f,6291ce3eda0c0bbeb55cb6d0,,,,,,,,,,,,,,,,,,,,,,,,,,,,,,,,,,,,,,,,,,,,,,,,,,,,,,,,,,,,,,,,,,,,,,,,,,,,,,,,,,,,,,,,,,,,,,,,,,,,,,,
,,"[""period""]",0,[1.023200000047666],63,0,63,0,1,5e41325ffce14d35e6da5bb6,19,Mężczyzna,2022-05-28_09h27.31.283,task,2021.1.4,Win32,60.0060006,628b806c463b948bc644b84f,6291ce3eda0c0bbeb55cb6d0,,,,,,,,,,,,,,,,,,,,,,,,,,,,,,,,,,,,,,,,,,,,,,,,,,,,,,,,,,,,,,,,,,,,,,,,,,,,,,,,,,,,,,,,,,,,,,,,,,,,,,,
,,"[""period""]",0,[1.065499999999986],64,0,64,0,1,5e41325ffce14d35e6da5bb6,19,Mężczyzna,2022-05-28_09h27.31.283,task,2021.1.4,Win32,60.0060006,628b806c463b948bc644b84f,6291ce3eda0c0bbeb55cb6d0,,,,,,,,,,,,,,,,,,,,,,,,,,,,,,,,,,,,,,,,,,,,,,,,,,,,,,,,,,,,,,,,,,,,,,,,,,,,,,,,,,,,,,,,,,,,,,,,,,,,,,,
,,"[""period""]",0,[1.0279999999999916],65,0,65,0,1,5e41325ffce14d35e6da5bb6,19,Mężczyzna,2022-05-28_09h27.31.283,task,2021.1.4,Win32,60.0060006,628b806c463b948bc644b84f,6291ce3eda0c0bbeb55cb6d0,,,,,,,,,,,,,,,,,,,,,,,,,,,,,,,,,,,,,,,,,,,,,,,,,,,,,,,,,,,,,,,,,,,,,,,,,,,,,,,,,,,,,,,,,,,,,,,,,,,,,,,
,,"[""period""]",0,[1.0502000000476812],66,0,66,0,1,5e41325ffce14d35e6da5bb6,19,Mężczyzna,2022-05-28_09h27.31.283,task,2021.1.4,Win32,60.0060006,628b806c463b948bc644b84f,6291ce3eda0c0bbeb55cb6d0,,,,,,,,,,,,,,,,,,,,,,,,,,,,,,,,,,,,,,,,,,,,,,,,,,,,,,,,,,,,,,,,,,,,,,,,,,,,,,,,,,,,,,,,,,,,,,,,,,,,,,,
,,"[""comma""]",0,[1.0828999999761777],67,0,67,0,1,5e41325ffce14d35e6da5bb6,19,Mężczyzna,2022-05-28_09h27.31.283,task,2021.1.4,Win32,60.0060006,628b806c463b948bc644b84f,6291ce3eda0c0bbeb55cb6d0,,,,,,,,,,,,,,,,,,,,,,,,,,,,,,,,,,,,,,,,,,,,,,,,,,,,,,,,,,,,,,,,,,,,,,,,,,,,,,,,,,,,,,,,,,,,,,,,,,,,,,,
,,"[""comma""]",0,[1.01039999997613],68,0,68,0,1,5e41325ffce14d35e6da5bb6,19,Mężczyzna,2022-05-28_09h27.31.283,task,2021.1.4,Win32,60.0060006,628b806c463b948bc644b84f,6291ce3eda0c0bbeb55cb6d0,,,,,,,,,,,,,,,,,,,,,,,,,,,,,,,,,,,,,,,,,,,,,,,,,,,,,,,,,,,,,,,,,,,,,,,,,,,,,,,,,,,,,,,,,,,,,,,,,,,,,,,
,,"[""period""]",0,[0.9733000000715037],69,0,69,0,1,5e41325ffce14d35e6da5bb6,19,Mężczyzna,2022-05-28_09h27.31.283,task,2021.1.4,Win32,60.0060006,628b806c463b948bc644b84f,6291ce3eda0c0bbeb55cb6d0,,,,,,,,,,,,,,,,,,,,,,,,,,,,,,,,,,,,,,,,,,,,,,,,,,,,,,,,,,,,,,,,,,,,,,,,,,,,,,,,,,,,,,,,,,,,,,,,,,,,,,,
,,"[""comma""]",0,[1.0227000000476778],70,0,70,0,1,5e41325ffce14d35e6da5bb6,19,Mężczyzna,2022-05-28_09h27.31.283,task,2021.1.4,Win32,60.0060006,628b806c463b948bc644b84f,6291ce3eda0c0bbeb55cb6d0,,,,,,,,,,,,,,,,,,,,,,,,,,,,,,,,,,,,,,,,,,,,,,,,,,,,,,,,,,,,,,,,,,,,,,,,,,,,,,,,,,,,,,,,,,,,,,,,,,,,,,,
,,"[""comma""]",0,[1.031000000000006],71,0,71,0,1,5e41325ffce14d35e6da5bb6,19,Mężczyzna,2022-05-28_09h27.31.283,task,2021.1.4,Win32,60.0060006,628b806c463b948bc644b84f,6291ce3eda0c0bbeb55cb6d0,,,,,,,,,,,,,,,,,,,,,,,,,,,,,,,,,,,,,,,,,,,,,,,,,,,,,,,,,,,,,,,,,,,,,,,,,,,,,,,,,,,,,,,,,,,,,,,,,,,,,,,
,,"[""comma""]",0,[1.0463999999761313],72,0,72,0,1,5e41325ffce14d35e6da5bb6,19,Mężczyzna,2022-05-28_09h27.31.283,task,2021.1.4,Win32,60.0060006,628b806c463b948bc644b84f,6291ce3eda0c0bbeb55cb6d0,,,,,,,,,,,,,,,,,,,,,,,,,,,,,,,,,,,,,,,,,,,,,,,,,,,,,,,,,,,,,,,,,,,,,,,,,,,,,,,,,,,,,,,,,,,,,,,,,,,,,,,
,,"[""period""]",0,[1.0229999999999677],73,0,73,0,1,5e41325ffce14d35e6da5bb6,19,Mężczyzna,2022-05-28_09h27.31.283,task,2021.1.4,Win32,60.0060006,628b806c463b948bc644b84f,6291ce3eda0c0bbeb55cb6d0,,,,,,,,,,,,,,,,,,,,,,,,,,,,,,,,,,,,,,,,,,,,,,,,,,,,,,,,,,,,,,,,,,,,,,,,,,,,,,,,,,,,,,,,,,,,,,,,,,,,,,,
,,"[""comma""]",0,[0.9652999999522649],74,0,74,0,1,5e41325ffce14d35e6da5bb6,19,Mężczyzna,2022-05-28_09h27.31.283,task,2021.1.4,Win32,60.0060006,628b806c463b948bc644b84f,6291ce3eda0c0bbeb55cb6d0,,,,,,,,,,,,,,,,,,,,,,,,,,,,,,,,,,,,,,,,,,,,,,,,,,,,,,,,,,,,,,,,,,,,,,,,,,,,,,,,,,,,,,,,,,,,,,,,,,,,,,,
,,"[""comma""]",0,[0.9230000000000018],75,0,75,0,1,5e41325ffce14d35e6da5bb6,19,Mężczyzna,2022-05-28_09h27.31.283,task,2021.1.4,Win32,60.0060006,628b806c463b948bc644b84f,6291ce3eda0c0bbeb55cb6d0,,,,,,,,,,,,,,,,,,,,,,,,,,,,,,,,,,,,,,,,,,,,,,,,,,,,,,,,,,,,,,,,,,,,,,,,,,,,,,,,,,,,,,,,,,,,,,,,,,,,,,,
,,"[""period""]",0,[0.9096999999284776],76,0,76,0,1,5e41325ffce14d35e6da5bb6,19,Mężczyzna,2022-05-28_09h27.31.283,task,2021.1.4,Win32,60.0060006,628b806c463b948bc644b84f,6291ce3eda0c0bbeb55cb6d0,,,,,,,,,,,,,,,,,,,,,,,,,,,,,,,,,,,,,,,,,,,,,,,,,,,,,,,,,,,,,,,,,,,,,,,,,,,,,,,,,,,,,,,,,,,,,,,,,,,,,,,
,,"[""period""]",0,[1.0739000000953638],77,0,77,0,1,5e41325ffce14d35e6da5bb6,19,Mężczyzna,2022-05-28_09h27.31.283,task,2021.1.4,Win32,60.0060006,628b806c463b948bc644b84f,6291ce3eda0c0bbeb55cb6d0,,,,,,,,,,,,,,,,,,,,,,,,,,,,,,,,,,,,,,,,,,,,,,,,,,,,,,,,,,,,,,,,,,,,,,,,,,,,,,,,,,,,,,,,,,,,,,,,,,,,,,,
,,"[""period""]",0,[1.0856000000238168],78,0,78,0,1,5e41325ffce14d35e6da5bb6,19,Mężczyzna,2022-05-28_09h27.31.283,task,2021.1.4,Win32,60.0060006,628b806c463b948bc644b84f,6291ce3eda0c0bbeb55cb6d0,,,,,,,,,,,,,,,,,,,,,,,,,,,,,,,,,,,,,,,,,,,,,,,,,,,,,,,,,,,,,,,,,,,,,,,,,,,,,,,,,,,,,,,,,,,,,,,,,,,,,,,
,,"[""comma""]",0,[1.0673999999762032],79,0,79,0,1,5e41325ffce14d35e6da5bb6,19,Mężczyzna,2022-05-28_09h27.31.283,task,2021.1.4,Win32,60.0060006,628b806c463b948bc644b84f,6291ce3eda0c0bbeb55cb6d0,,,,,,,,,,,,,,,,,,,,,,,,,,,,,,,,,,,,,,,,,,,,,,,,,,,,,,,,,,,,,,,,,,,,,,,,,,,,,,,,,,,,,,,,,,,,,,,,,,,,,,,
,,"[""comma""]",0,[0.9904999999999973],80,0,80,0,1,5e41325ffce14d35e6da5bb6,19,Mężczyzna,2022-05-28_09h27.31.283,task,2021.1.4,Win32,60.0060006,628b806c463b948bc644b84f,6291ce3eda0c0bbeb55cb6d0,,,,,,,,,,,,,,,,,,,,,,,,,,,,,,,,,,,,,,,,,,,,,,,,,,,,,,,,,,,,,,,,,,,,,,,,,,,,,,,,,,,,,,,,,,,,,,,,,,,,,,,
,,"[""period""]",0,[1.063699999928474],81,0,81,0,1,5e41325ffce14d35e6da5bb6,19,Mężczyzna,2022-05-28_09h27.31.283,task,2021.1.4,Win32,60.0060006,628b806c463b948bc644b84f,6291ce3eda0c0bbeb55cb6d0,,,,,,,,,,,,,,,,,,,,,,,,,,,,,,,,,,,,,,,,,,,,,,,,,,,,,,,,,,,,,,,,,,,,,,,,,,,,,,,,,,,,,,,,,,,,,,,,,,,,,,,
,,"[""period""]",0,[1.0574999999999477],82,0,82,0,1,5e41325ffce14d35e6da5bb6,19,Mężczyzna,2022-05-28_09h27.31.283,task,2021.1.4,Win32,60.0060006,628b806c463b948bc644b84f,6291ce3eda0c0bbeb55cb6d0,,,,,,,,,,,,,,,,,,,,,,,,,,,,,,,,,,,,,,,,,,,,,,,,,,,,,,,,,,,,,,,,,,,,,,,,,,,,,,,,,,,,,,,,,,,,,,,,,,,,,,,
,,"[""period""]",0,[1.0441999999284803],83,0,83,0,1,5e41325ffce14d35e6da5bb6,19,Mężczyzna,2022-05-28_09h27.31.283,task,2021.1.4,Win32,60.0060006,628b806c463b948bc644b84f,6291ce3eda0c0bbeb55cb6d0,,,,,,,,,,,,,,,,,,,,,,,,,,,,,,,,,,,,,,,,,,,,,,,,,,,,,,,,,,,,,,,,,,,,,,,,,,,,,,,,,,,,,,,,,,,,,,,,,,,,,,,
,,"[""period""]",0,[1.0770999999045898],84,0,84,0,1,5e41325ffce14d35e6da5bb6,19,Mężczyzna,2022-05-28_09h27.31.283,task,2021.1.4,Win32,60.0060006,628b806c463b948bc644b84f,6291ce3eda0c0bbeb55cb6d0,,,,,,,,,,,,,,,,,,,,,,,,,,,,,,,,,,,,,,,,,,,,,,,,,,,,,,,,,,,,,,,,,,,,,,,,,,,,,,,,,,,,,,,,,,,,,,,,,,,,,,,
,,"[""period""]",0,[0.8922000000476373],85,0,85,0,1,5e41325ffce14d35e6da5bb6,19,Mężczyzna,2022-05-28_09h27.31.283,task,2021.1.4,Win32,60.0060006,628b806c463b948bc644b84f,6291ce3eda0c0bbeb55cb6d0,,,,,,,,,,,,,,,,,,,,,,,,,,,,,,,,,,,,,,,,,,,,,,,,,,,,,,,,,,,,,,,,,,,,,,,,,,,,,,,,,,,,,,,,,,,,,,,,,,,,,,,
,,"[""comma""]",0,[1.0576999999284453],86,0,86,0,1,5e41325ffce14d35e6da5bb6,19,Mężczyzna,2022-05-28_09h27.31.283,task,2021.1.4,Win32,60.0060006,628b806c463b948bc644b84f,6291ce3eda0c0bbeb55cb6d0,,,,,,,,,,,,,,,,,,,,,,,,,,,,,,,,,,,,,,,,,,,,,,,,,,,,,,,,,,,,,,,,,,,,,,,,,,,,,,,,,,,,,,,,,,,,,,,,,,,,,,,
,,"[""comma""]",0,[1.0832999999523167],87,0,87,0,1,5e41325ffce14d35e6da5bb6,19,Mężczyzna,2022-05-28_09h27.31.283,task,2021.1.4,Win32,60.0060006,628b806c463b948bc644b84f,6291ce3eda0c0bbeb55cb6d0,,,,,,,,,,,,,,,,,,,,,,,,,,,,,,,,,,,,,,,,,,,,,,,,,,,,,,,,,,,,,,,,,,,,,,,,,,,,,,,,,,,,,,,,,,,,,,,,,,,,,,,
,,"[""comma""]",0,[1.0752999999522785],88,0,88,0,1,5e41325ffce14d35e6da5bb6,19,Mężczyzna,2022-05-28_09h27.31.283,task,2021.1.4,Win32,60.0060006,628b806c463b948bc644b84f,6291ce3eda0c0bbeb55cb6d0,,,,,,,,,,,,,,,,,,,,,,,,,,,,,,,,,,,,,,,,,,,,,,,,,,,,,,,,,,,,,,,,,,,,,,,,,,,,,,,,,,,,,,,,,,,,,,,,,,,,,,,
,,"[""comma""]",0,[1.0920000000000414],89,0,89,0,1,5e41325ffce14d35e6da5bb6,19,Mężczyzna,2022-05-28_09h27.31.283,task,2021.1.4,Win32,60.0060006,628b806c463b948bc644b84f,6291ce3eda0c0bbeb55cb6d0,,,,,,,,,,,,,,,,,,,,,,,,,,,,,,,,,,,,,,,,,,,,,,,,,,,,,,,,,,,,,,,,,,,,,,,,,,,,,,,,,,,,,,,,,,,,,,,,,,,,,,,
,,"[""period""]",0,[1.0436000000238437],90,0,90,0,1,5e41325ffce14d35e6da5bb6,19,Mężczyzna,2022-05-28_09h27.31.283,task,2021.1.4,Win32,60.0060006,628b806c463b948bc644b84f,6291ce3eda0c0bbeb55cb6d0,,,,,,,,,,,,,,,,,,,,,,,,,,,,,,,,,,,,,,,,,,,,,,,,,,,,,,,,,,,,,,,,,,,,,,,,,,,,,,,,,,,,,,,,,,,,,,,,,,,,,,,
,,"[""comma""]",0,[1.0848999999761304],91,0,91,0,1,5e41325ffce14d35e6da5bb6,19,Mężczyzna,2022-05-28_09h27.31.283,task,2021.1.4,Win32,60.0060006,628b806c463b948bc644b84f,6291ce3eda0c0bbeb55cb6d0,,,,,,,,,,,,,,,,,,,,,,,,,,,,,,,,,,,,,,,,,,,,,,,,,,,,,,,,,,,,,,,,,,,,,,,,,,,,,,,,,,,,,,,,,,,,,,,,,,,,,,,
,,"[""period""]",0,[1.0585999999046294],92,0,92,0,1,5e41325ffce14d35e6da5bb6,19,Mężczyzna,2022-05-28_09h27.31.283,task,2021.1.4,Win32,60.0060006,628b806c463b948bc644b84f,6291ce3eda0c0bbeb55cb6d0,,,,,,,,,,,,,,,,,,,,,,,,,,,,,,,,,,,,,,,,,,,,,,,,,,,,,,,,,,,,,,,,,,,,,,,,,,,,,,,,,,,,,,,,,,,,,,,,,,,,,,,
,,"[""period""]",0,[1.0388999999761381],93,0,93,0,1,5e41325ffce14d35e6da5bb6,19,Mężczyzna,2022-05-28_09h27.31.283,task,2021.1.4,Win32,60.0060006,628b806c463b948bc644b84f,6291ce3eda0c0bbeb55cb6d0,,,,,,,,,,,,,,,,,,,,,,,,,,,,,,,,,,,,,,,,,,,,,,,,,,,,,,,,,,,,,,,,,,,,,,,,,,,,,,,,,,,,,,,,,,,,,,,,,,,,,,,
,,"[""comma""]",0,[1.1526000000238241],94,0,94,0,1,5e41325ffce14d35e6da5bb6,19,Mężczyzna,2022-05-28_09h27.31.283,task,2021.1.4,Win32,60.0060006,628b806c463b948bc644b84f,6291ce3eda0c0bbeb55cb6d0,,,,,,,,,,,,,,,,,,,,,,,,,,,,,,,,,,,,,,,,,,,,,,,,,,,,,,,,,,,,,,,,,,,,,,,,,,,,,,,,,,,,,,,,,,,,,,,,,,,,,,,
,,"[""comma""]",0,[1.0343999999761309],95,0,95,0,1,5e41325ffce14d35e6da5bb6,19,Mężczyzna,2022-05-28_09h27.31.283,task,2021.1.4,Win32,60.0060006,628b806c463b948bc644b84f,6291ce3eda0c0bbeb55cb6d0,,,,,,,,,,,,,,,,,,,,,,,,,,,,,,,,,,,,,,,,,,,,,,,,,,,,,,,,,,,,,,,,,,,,,,,,,,,,,,,,,,,,,,,,,,,,,,,,,,,,,,,
,,"[""period""]",0,[0.9843999999761763],96,0,96,0,1,5e41325ffce14d35e6da5bb6,19,Mężczyzna,2022-05-28_09h27.31.283,task,2021.1.4,Win32,60.0060006,628b806c463b948bc644b84f,6291ce3eda0c0bbeb55cb6d0,,,,,,,,,,,,,,,,,,,,,,,,,,,,,,,,,,,,,,,,,,,,,,,,,,,,,,,,,,,,,,,,,,,,,,,,,,,,,,,,,,,,,,,,,,,,,,,,,,,,,,,
,,"[""period""]",0,[1.0772000000476964],97,0,97,0,1,5e41325ffce14d35e6da5bb6,19,Mężczyzna,2022-05-28_09h27.31.283,task,2021.1.4,Win32,60.0060006,628b806c463b948bc644b84f,6291ce3eda0c0bbeb55cb6d0,,,,,,,,,,,,,,,,,,,,,,,,,,,,,,,,,,,,,,,,,,,,,,,,,,,,,,,,,,,,,,,,,,,,,,,,,,,,,,,,,,,,,,,,,,,,,,,,,,,,,,,
,,"[""period""]",0,[1.1274999999999977],98,0,98,0,1,5e41325ffce14d35e6da5bb6,19,Mężczyzna,2022-05-28_09h27.31.283,task,2021.1.4,Win32,60.0060006,628b806c463b948bc644b84f,6291ce3eda0c0bbeb55cb6d0,,,,,,,,,,,,,,,,,,,,,,,,,,,,,,,,,,,,,,,,,,,,,,,,,,,,,,,,,,,,,,,,,,,,,,,,,,,,,,,,,,,,,,,,,,,,,,,,,,,,,,,
,,"[""comma""]",0,[1.049799999952313],99,0,99,0,1,5e41325ffce14d35e6da5bb6,19,Mężczyzna,2022-05-28_09h27.31.283,task,2021.1.4,Win32,60.0060006,628b806c463b948bc644b84f,6291ce3eda0c0bbeb55cb6d0,,,,,,,,,,,,,,,,,,,,,,,,,,,,,,,,,,,,,,,,,,,,,,,,,,,,,,,,,,,,,,,,,,,,,,,,,,,,,,,,,,,,,,,,,,,,,,,,,,,,,,,
,,"[""period""]",0,[1.1215999999046176],100,0,100,0,1,5e41325ffce14d35e6da5bb6,19,Mężczyzna,2022-05-28_09h27.31.283,task,2021.1.4,Win32,60.0060006,628b806c463b948bc644b84f,6291ce3eda0c0bbeb55cb6d0,,,,,,,,,,,,,,,,,,,,,,,,,,,,,,,,,,,,,,,,,,,,,,,,,,,,,,,,,,,,,,,,,,,,,,,,,,,,,,,,,,,,,,,,,,,,,,,,,,,,,,,
,,"[""period""]",0,[1.1051000000238673],101,0,101,0,1,5e41325ffce14d35e6da5bb6,19,Mężczyzna,2022-05-28_09h27.31.283,task,2021.1.4,Win32,60.0060006,628b806c463b948bc644b84f,6291ce3eda0c0bbeb55cb6d0,,,,,,,,,,,,,,,,,,,,,,,,,,,,,,,,,,,,,,,,,,,,,,,,,,,,,,,,,,,,,,,,,,,,,,,,,,,,,,,,,,,,,,,,,,,,,,,,,,,,,,,
,,"[""period""]",0,[1.1001999999284635],102,0,102,0,1,5e41325ffce14d35e6da5bb6,19,Mężczyzna,2022-05-28_09h27.31.283,task,2021.1.4,Win32,60.0060006,628b806c463b948bc644b84f,6291ce3eda0c0bbeb55cb6d0,,,,,,,,,,,,,,,,,,,,,,,,,,,,,,,,,,,,,,,,,,,,,,,,,,,,,,,,,,,,,,,,,,,,,,,,,,,,,,,,,,,,,,,,,,,,,,,,,,,,,,,
,,"[""comma""]",0,[1.1073000000715183],103,0,103,0,1,5e41325ffce14d35e6da5bb6,19,Mężczyzna,2022-05-28_09h27.31.283,task,2021.1.4,Win32,60.0060006,628b806c463b948bc644b84f,6291ce3eda0c0bbeb55cb6d0,,,,,,,,,,,,,,,,,,,,,,,,,,,,,,,,,,,,,,,,,,,,,,,,,,,,,,,,,,,,,,,,,,,,,,,,,,,,,,,,,,,,,,,,,,,,,,,,,,,,,,,
,,"[""comma""]",0,[1.1403999999761822],104,0,104,0,1,5e41325ffce14d35e6da5bb6,19,Mężczyzna,2022-05-28_09h27.31.283,task,2021.1.4,Win32,60.0060006,628b806c463b948bc644b84f,6291ce3eda0c0bbeb55cb6d0,,,,,,,,,,,,,,,,,,,,,,,,,,,,,,,,,,,,,,,,,,,,,,,,,,,,,,,,,,,,,,,,,,,,,,,,,,,,,,,,,,,,,,,,,,,,,,,,,,,,,,,
,,"[""comma""]",0,[1.0787999999523663],105,0,105,0,1,5e41325ffce14d35e6da5bb6,19,Mężczyzna,2022-05-28_09h27.31.283,task,2021.1.4,Win32,60.0060006,628b806c463b948bc644b84f,6291ce3eda0c0bbeb55cb6d0,,,,,,,,,,,,,,,,,,,,,,,,,,,,,,,,,,,,,,,,,,,,,,,,,,,,,,,,,,,,,,,,,,,,,,,,,,,,,,,,,,,,,,,,,,,,,,,,,,,,,,,
,,"[""comma""]",0,[1.0997999999523245],106,0,106,0,1,5e41325ffce14d35e6da5bb6,19,Mężczyzna,2022-05-28_09h27.31.283,task,2021.1.4,Win32,60.0060006,628b806c463b948bc644b84f,6291ce3eda0c0bbeb55cb6d0,,,,,,,,,,,,,,,,,,,,,,,,,,,,,,,,,,,,,,,,,,,,,,,,,,,,,,,,,,,,,,,,,,,,,,,,,,,,,,,,,,,,,,,,,,,,,,,,,,,,,,,
,,"[""comma""]",0,[1.0409999999999968],107,0,107,0,1,5e41325ffce14d35e6da5bb6,19,Mężczyzna,2022-05-28_09h27.31.283,task,2021.1.4,Win32,60.0060006,628b806c463b948bc644b84f,6291ce3eda0c0bbeb55cb6d0,,,,,,,,,,,,,,,,,,,,,,,,,,,,,,,,,,,,,,,,,,,,,,,,,,,,,,,,,,,,,,,,,,,,,,,,,,,,,,,,,,,,,,,,,,,,,,,,,,,,,,,
,,"[""period""]",0,[1.1022999999523222],108,0,108,0,1,5e41325ffce14d35e6da5bb6,19,Mężczyzna,2022-05-28_09h27.31.283,task,2021.1.4,Win32,60.0060006,628b806c463b948bc644b84f,6291ce3eda0c0bbeb55cb6d0,,,,,,,,,,,,,,,,,,,,,,,,,,,,,,,,,,,,,,,,,,,,,,,,,,,,,,,,,,,,,,,,,,,,,,,,,,,,,,,,,,,,,,,,,,,,,,,,,,,,,,,
,,"[""period""]",0,[1.1363000000715147],109,0,109,0,1,5e41325ffce14d35e6da5bb6,19,Mężczyzna,2022-05-28_09h27.31.283,task,2021.1.4,Win32,60.0060006,628b806c463b948bc644b84f,6291ce3eda0c0bbeb55cb6d0,,,,,,,,,,,,,,,,,,,,,,,,,,,,,,,,,,,,,,,,,,,,,,,,,,,,,,,,,,,,,,,,,,,,,,,,,,,,,,,,,,,,,,,,,,,,,,,,,,,,,,,
,,"[""comma""]",0,[1.1151000000238582],110,0,110,0,1,5e41325ffce14d35e6da5bb6,19,Mężczyzna,2022-05-28_09h27.31.283,task,2021.1.4,Win32,60.0060006,628b806c463b948bc644b84f,6291ce3eda0c0bbeb55cb6d0,,,,,,,,,,,,,,,,,,,,,,,,,,,,,,,,,,,,,,,,,,,,,,,,,,,,,,,,,,,,,,,,,,,,,,,,,,,,,,,,,,,,,,,,,,,,,,,,,,,,,,,
,,"[""period""]",0,[1.1304999999999836],111,0,111,0,1,5e41325ffce14d35e6da5bb6,19,Mężczyzna,2022-05-28_09h27.31.283,task,2021.1.4,Win32,60.0060006,628b806c463b948bc644b84f,6291ce3eda0c0bbeb55cb6d0,,,,,,,,,,,,,,,,,,,,,,,,,,,,,,,,,,,,,,,,,,,,,,,,,,,,,,,,,,,,,,,,,,,,,,,,,,,,,,,,,,,,,,,,,,,,,,,,,,,,,,,
,,"[""period""]",0,[1.0391000000238932],112,0,112,0,1,5e41325ffce14d35e6da5bb6,19,Mężczyzna,2022-05-28_09h27.31.283,task,2021.1.4,Win32,60.0060006,628b806c463b948bc644b84f,6291ce3eda0c0bbeb55cb6d0,,,,,,,,,,,,,,,,,,,,,,,,,,,,,,,,,,,,,,,,,,,,,,,,,,,,,,,,,,,,,,,,,,,,,,,,,,,,,,,,,,,,,,,,,,,,,,,,,,,,,,,
,,"[""period""]",0,[1.1034000000954052],113,0,113,0,1,5e41325ffce14d35e6da5bb6,19,Mężczyzna,2022-05-28_09h27.31.283,task,2021.1.4,Win32,60.0060006,628b806c463b948bc644b84f,6291ce3eda0c0bbeb55cb6d0,,,,,,,,,,,,,,,,,,,,,,,,,,,,,,,,,,,,,,,,,,,,,,,,,,,,,,,,,,,,,,,,,,,,,,,,,,,,,,,,,,,,,,,,,,,,,,,,,,,,,,,
,,"[""comma""]",0,[1.0565000000000282],114,0,114,0,1,5e41325ffce14d35e6da5bb6,19,Mężczyzna,2022-05-28_09h27.31.283,task,2021.1.4,Win32,60.0060006,628b806c463b948bc644b84f,6291ce3eda0c0bbeb55cb6d0,,,,,,,,,,,,,,,,,,,,,,,,,,,,,,,,,,,,,,,,,,,,,,,,,,,,,,,,,,,,,,,,,,,,,,,,,,,,,,,,,,,,,,,,,,,,,,,,,,,,,,,
,,"[""period""]",0,[0.7572999999522949],115,0,115,0,1,5e41325ffce14d35e6da5bb6,19,Mężczyzna,2022-05-28_09h27.31.283,task,2021.1.4,Win32,60.0060006,628b806c463b948bc644b84f,6291ce3eda0c0bbeb55cb6d0,,,,,,,,,,,,,,,,,,,,,,,,,,,,,,,,,,,,,,,,,,,,,,,,,,,,,,,,,,,,,,,,,,,,,,,,,,,,,,,,,,,,,,,,,,,,,,,,,,,,,,,
,,"[""comma""]",0,[1.1542000000476378],116,0,116,0,1,5e41325ffce14d35e6da5bb6,19,Mężczyzna,2022-05-28_09h27.31.283,task,2021.1.4,Win32,60.0060006,628b806c463b948bc644b84f,6291ce3eda0c0bbeb55cb6d0,,,,,,,,,,,,,,,,,,,,,,,,,,,,,,,,,,,,,,,,,,,,,,,,,,,,,,,,,,,,,,,,,,,,,,,,,,,,,,,,,,,,,,,,,,,,,,,,,,,,,,,
,,"[""period""]",0,[1.1433999999761681],117,0,117,0,1,5e41325ffce14d35e6da5bb6,19,Mężczyzna,2022-05-28_09h27.31.283,task,2021.1.4,Win32,60.0060006,628b806c463b948bc644b84f,6291ce3eda0c0bbeb55cb6d0,,,,,,,,,,,,,,,,,,,,,,,,,,,,,,,,,,,,,,,,,,,,,,,,,,,,,,,,,,,,,,,,,,,,,,,,,,,,,,,,,,,,,,,,,,,,,,,,,,,,,,,
,,"[""period""]",0,[1.1788000000715328],118,0,118,0,1,5e41325ffce14d35e6da5bb6,19,Mężczyzna,2022-05-28_09h27.31.283,task,2021.1.4,Win32,60.0060006,628b806c463b948bc644b84f,6291ce3eda0c0bbeb55cb6d0,,,,,,,,,,,,,,,,,,,,,,,,,,,,,,,,,,,,,,,,,,,,,,,,,,,,,,,,,,,,,,,,,,,,,,,,,,,,,,,,,,,,,,,,,,,,,,,,,,,,,,,
,,"[""period""]",0,[1.1388000000715692],119,0,119,0,1,5e41325ffce14d35e6da5bb6,19,Mężczyzna,2022-05-28_09h27.31.283,task,2021.1.4,Win32,60.0060006,628b806c463b948bc644b84f,6291ce3eda0c0bbeb55cb6d0,,,,,,,,,,,,,,,,,,,,,,,,,,,,,,,,,,,,,,,,,,,,,,,,,,,,,,,,,,,,,,,,,,,,,,,,,,,,,,,,,,,,,,,,,,,,,,,,,,,,,,,
,,,,,,,,,,5e41325ffce14d35e6da5bb6,19,Mężczyzna,2022-05-28_09h27.31.283,task,2021.1.4,Win32,60.0060006,628b806c463b948bc644b84f,6291ce3eda0c0bbeb55cb6d0,space,15.5236,space,6.1716,0,0,0,0,1,"X V Q F H G B L J M P D K C T S W R N Z
",,,,,,,,,,,,,,,,,,,,,,,,,,,,,,,,,,,,,,,,,,,,,,,,,,,,,,,,,,,,,,,,,,,,,,,,,,,,,,,,,,,,,,,,,,,,,
,,,,,,,,,,5e41325ffce14d35e6da5bb6,19,Mężczyzna,2022-05-28_09h27.31.283,task,2021.1.4,Win32,60.0060006,628b806c463b948bc644b84f,6291ce3eda0c0bbeb55cb6d0,,,,,1,0,1,0,1,"X V Q F H G B L J M P D K C T S W R N Z
",,,,,,,,,,,,,,,,,,,,,,,,,,,,,,,,,,,,,,,,,,,,,,,,,,,,,,,,,,,,,,,,,,,,,,,,,,,,,,,,,,,,,,,,,,,,,
,,,,,,,,,,5e41325ffce14d35e6da5bb6,19,Mężczyzna,2022-05-28_09h27.31.283,task,2021.1.4,Win32,60.0060006,628b806c463b948bc644b84f,6291ce3eda0c0bbeb55cb6d0,,,,,,,,,,,zr,"[""z"",""r""]","[1.4676000000238218,1.875,3.498700000047677]",1,ZR,0,0,0,0,1,,,,,,,,,,,,,,,,,,,,,,,,,,,,,,,,,,,,,,,,,,,,,,,,,,,,,,,,,,,,,,,,,,,,,,,,,,,,,,,,,,,
,,,,,,,,,,5e41325ffce14d35e6da5bb6,19,Mężczyzna,2022-05-28_09h27.31.283,task,2021.1.4,Win32,60.0060006,628b806c463b948bc644b84f,6291ce3eda0c0bbeb55cb6d0,,,,,0,0,0,0,1,"X V Q F H G B L J M P D K C T S W R N Z
",,,,,,,,,,,,,,,,,,,,,,,,,,,,,,,,,,,,,,,,,,,,,,,,,,,,,,,,,,,,,,,,,,,,,,,,,,,,,,,,,,,,,,,,,,,,,
,,,,,,,,,,5e41325ffce14d35e6da5bb6,19,Mężczyzna,2022-05-28_09h27.31.283,task,2021.1.4,Win32,60.0060006,628b806c463b948bc644b84f,6291ce3eda0c0bbeb55cb6d0,,,,,1,0,1,0,1,"X V Q F H G B L J M P D K C T S W R N Z
",,,,,,,,,,,,,,,,,,,,,,,,,,,,,,,,,,,,,,,,,,,,,,,,,,,,,,,,,,,,,,,,,,,,,,,,,,,,,,,,,,,,,,,,,,,,,
,,,,,,,,,,5e41325ffce14d35e6da5bb6,19,Mężczyzna,2022-05-28_09h27.31.283,task,2021.1.4,Win32,60.0060006,628b806c463b948bc644b84f,6291ce3eda0c0bbeb55cb6d0,,,,,,,,,,,rd,"[""r"",""d""]","[1.0803000000715315,1.3668999999761695,2.1168999999761695]",1,RD,1,0,1,0,1,,,,,,,,,,,,,,,,,,,,,,,,,,,,,,,,,,,,,,,,,,,,,,,,,,,,,,,,,,,,,,,,,,,,,,,,,,,,,,,,,,,
,,,,,,,,,,5e41325ffce14d35e6da5bb6,19,Mężczyzna,2022-05-28_09h27.31.283,task,2021.1.4,Win32,60.0060006,628b806c463b948bc644b84f,6291ce3eda0c0bbeb55cb6d0,,,,,0,0,0,0,1,"X V Q F H G B L J M P D K C T S W R N Z
",,,,,,,,,,,,,,,,,,,,,,,,,,,,,,,,,,,,,,,,,,,,,,,,,,,,,,,,,,,,,,,,,,,,,,,,,,,,,,,,,,,,,,,,,,,,,
,,,,,,,,,,5e41325ffce14d35e6da5bb6,19,Mężczyzna,2022-05-28_09h27.31.283,task,2021.1.4,Win32,60.0060006,628b806c463b948bc644b84f,6291ce3eda0c0bbeb55cb6d0,,,,,1,0,1,0,1,"X V Q F H G B L J M P D K C T S W R N Z
",,,,,,,,,,,,,,,,,,,,,,,,,,,,,,,,,,,,,,,,,,,,,,,,,,,,,,,,,,,,,,,,,,,,,,,,,,,,,,,,,,,,,,,,,,,,,
,,,,,,,,,,5e41325ffce14d35e6da5bb6,19,Mężczyzna,2022-05-28_09h27.31.283,task,2021.1.4,Win32,60.0060006,628b806c463b948bc644b84f,6291ce3eda0c0bbeb55cb6d0,,,,,2,0,2,0,1,"X V Q F H G B L J M P D K C T S W R N Z
",,,,,,,,,,,,,,,,,,,,,,,,,,,,,,,,,,,,,,,,,,,,,,,,,,,,,,,,,,,,,,,,,,,,,,,,,,,,,,,,,,,,,,,,,,,,,
,,,,,,,,,,5e41325ffce14d35e6da5bb6,19,Mężczyzna,2022-05-28_09h27.31.283,task,2021.1.4,Win32,60.0060006,628b806c463b948bc644b84f,6291ce3eda0c0bbeb55cb6d0,,,,,,,,,,,pjr,"[""p"",""j"",""r""]","[1.0910000000000082,1.4007999999523122,1.7654999999999745,2.5963999999761427]",1,PJR,2,0,2,0,1,,,,,,,,,,,,,,,,,,,,,,,,,,,,,,,,,,,,,,,,,,,,,,,,,,,,,,,,,,,,,,,,,,,,,,,,,,,,,,,,,,,
,,,,,,,,,,5e41325ffce14d35e6da5bb6,19,Mężczyzna,2022-05-28_09h27.31.283,task,2021.1.4,Win32,60.0060006,628b806c463b948bc644b84f,6291ce3eda0c0bbeb55cb6d0,,,,,0,0,0,0,1,"X V Q F H G B L J M P D K C T S W R N Z
",,,,,,,,,,,,,,,,,,,,,,,,,,,,,,,,,,,,,,,,,,,,,,,,,,,,,,,,,,,,,,,,,,,,,,,,,,,,,,,,,,,,,,,,,,,,,
,,,,,,,,,,5e41325ffce14d35e6da5bb6,19,Mężczyzna,2022-05-28_09h27.31.283,task,2021.1.4,Win32,60.0060006,628b806c463b948bc644b84f,6291ce3eda0c0bbeb55cb6d0,,,,,1,0,1,0,1,"X V Q F H G B L J M P D K C T S W R N Z
",,,,,,,,,,,,,,,,,,,,,,,,,,,,,,,,,,,,,,,,,,,,,,,,,,,,,,,,,,,,,,,,,,,,,,,,,,,,,,,,,,,,,,,,,,,,,
,,,,,,,,,,5e41325ffce14d35e6da5bb6,19,Mężczyzna,2022-05-28_09h27.31.283,task,2021.1.4,Win32,60.0060006,628b806c463b948bc644b84f,6291ce3eda0c0bbeb55cb6d0,,,,,2,0,2,0,1,"X V Q F H G B L J M P D K C T S W R N Z
",,,,,,,,,,,,,,,,,,,,,,,,,,,,,,,,,,,,,,,,,,,,,,,,,,,,,,,,,,,,,,,,,,,,,,,,,,,,,,,,,,,,,,,,,,,,,
,,,,,,,,,,5e41325ffce14d35e6da5bb6,19,Mężczyzna,2022-05-28_09h27.31.283,task,2021.1.4,Win32,60.0060006,628b806c463b948bc644b84f,6291ce3eda0c0bbeb55cb6d0,,,,,,,,,,,rlk,"[""r"",""l"",""k""]","[1.0486000000238391,1.634600000023795,1.87529999995229,2.3221999999284435]",1,RLK,3,0,3,0,1,,,,,,,,,,,,,,,,,,,,,,,,,,,,,,,,,,,,,,,,,,,,,,,,,,,,,,,,,,,,,,,,,,,,,,,,,,,,,,,,,,,
,,,,,,,,,,5e41325ffce14d35e6da5bb6,19,Mężczyzna,2022-05-28_09h27.31.283,task,2021.1.4,Win32,60.0060006,628b806c463b948bc644b84f,6291ce3eda0c0bbeb55cb6d0,,,,,0,0,0,0,1,"X V Q F H G B L J M P D K C T S W R N Z
",,,,,,,,,,,,,,,,,,,,,,,,,,,,,,,,,,,,,,,,,,,,,,,,,,,,,,,,,,,,,,,,,,,,,,,,,,,,,,,,,,,,,,,,,,,,,
,,,,,,,,,,5e41325ffce14d35e6da5bb6,19,Mężczyzna,2022-05-28_09h27.31.283,task,2021.1.4,Win32,60.0060006,628b806c463b948bc644b84f,6291ce3eda0c0bbeb55cb6d0,,,,,1,0,1,0,1,"X V Q F H G B L J M P D K C T S W R N Z
",,,,,,,,,,,,,,,,,,,,,,,,,,,,,,,,,,,,,,,,,,,,,,,,,,,,,,,,,,,,,,,,,,,,,,,,,,,,,,,,,,,,,,,,,,,,,
,,,,,,,,,,5e41325ffce14d35e6da5bb6,19,Mężczyzna,2022-05-28_09h27.31.283,task,2021.1.4,Win32,60.0060006,628b806c463b948bc644b84f,6291ce3eda0c0bbeb55cb6d0,,,,,2,0,2,0,1,"X V Q F H G B L J M P D K C T S W R N Z
",,,,,,,,,,,,,,,,,,,,,,,,,,,,,,,,,,,,,,,,,,,,,,,,,,,,,,,,,,,,,,,,,,,,,,,,,,,,,,,,,,,,,,,,,,,,,
,,,,,,,,,,5e41325ffce14d35e6da5bb6,19,Mężczyzna,2022-05-28_09h27.31.283,task,2021.1.4,Win32,60.0060006,628b806c463b948bc644b84f,6291ce3eda0c0bbeb55cb6d0,,,,,3,0,3,0,1,"X V Q F H G B L J M P D K C T S W R N Z
",,,,,,,,,,,,,,,,,,,,,,,,,,,,,,,,,,,,,,,,,,,,,,,,,,,,,,,,,,,,,,,,,,,,,,,,,,,,,,,,,,,,,,,,,,,,,
,,,,,,,,,,5e41325ffce14d35e6da5bb6,19,Mężczyzna,2022-05-28_09h27.31.283,task,2021.1.4,Win32,60.0060006,628b806c463b948bc644b84f,6291ce3eda0c0bbeb55cb6d0,,,,,,,,,,,rcml,"[""r"",""c"",""m"",""l""]","[1.0655999999046344,1.9205999999046526,2.460599999904673,2.778500000000008,3.1901999999284953]",1,RCML,4,0,4,0,1,,,,,,,,,,,,,,,,,,,,,,,,,,,,,,,,,,,,,,,,,,,,,,,,,,,,,,,,,,,,,,,,,,,,,,,,,,,,,,,,,,,
,,,,,,,,,,5e41325ffce14d35e6da5bb6,19,Mężczyzna,2022-05-28_09h27.31.283,task,2021.1.4,Win32,60.0060006,628b806c463b948bc644b84f,6291ce3eda0c0bbeb55cb6d0,,,,,0,0,0,0,1,"X V Q F H G B L J M P D K C T S W R N Z
",,,,,,,,,,,,,,,,,,,,,,,,,,,,,,,,,,,,,,,,,,,,,,,,,,,,,,,,,,,,,,,,,,,,,,,,,,,,,,,,,,,,,,,,,,,,,
,,,,,,,,,,5e41325ffce14d35e6da5bb6,19,Mężczyzna,2022-05-28_09h27.31.283,task,2021.1.4,Win32,60.0060006,628b806c463b948bc644b84f,6291ce3eda0c0bbeb55cb6d0,,,,,1,0,1,0,1,"X V Q F H G B L J M P D K C T S W R N Z
",,,,,,,,,,,,,,,,,,,,,,,,,,,,,,,,,,,,,,,,,,,,,,,,,,,,,,,,,,,,,,,,,,,,,,,,,,,,,,,,,,,,,,,,,,,,,
,,,,,,,,,,5e41325ffce14d35e6da5bb6,19,Mężczyzna,2022-05-28_09h27.31.283,task,2021.1.4,Win32,60.0060006,628b806c463b948bc644b84f,6291ce3eda0c0bbeb55cb6d0,,,,,2,0,2,0,1,"X V Q F H G B L J M P D K C T S W R N Z
",,,,,,,,,,,,,,,,,,,,,,,,,,,,,,,,,,,,,,,,,,,,,,,,,,,,,,,,,,,,,,,,,,,,,,,,,,,,,,,,,,,,,,,,,,,,,
,,,,,,,,,,5e41325ffce14d35e6da5bb6,19,Mężczyzna,2022-05-28_09h27.31.283,task,2021.1.4,Win32,60.0060006,628b806c463b948bc644b84f,6291ce3eda0c0bbeb55cb6d0,,,,,3,0,3,0,1,"X V Q F H G B L J M P D K C T S W R N Z
",,,,,,,,,,,,,,,,,,,,,,,,,,,,,,,,,,,,,,,,,,,,,,,,,,,,,,,,,,,,,,,,,,,,,,,,,,,,,,,,,,,,,,,,,,,,,
,,,,,,,,,,5e41325ffce14d35e6da5bb6,19,Mężczyzna,2022-05-28_09h27.31.283,task,2021.1.4,Win32,60.0060006,628b806c463b948bc644b84f,6291ce3eda0c0bbeb55cb6d0,,,,,,,,,,,vjcl,"[""v"",""j"",""c"",""l""]","[1.9440000000000168,2.4427999999522854,2.7667999999522976,3.3253999999761277,3.695299999952283]",0,VJLF,5,0,5,0,1,,,,,,,,,,,,,,,,,,,,,,,,,,,,,,,,,,,,,,,,,,,,,,,,,,,,,,,,,,,,,,,,,,,,,,,,,,,,,,,,,,,
,,,,,,,,,,5e41325ffce14d35e6da5bb6,19,Mężczyzna,2022-05-28_09h27.31.283,task,2021.1.4,Win32,60.0060006,628b806c463b948bc644b84f,6291ce3eda0c0bbeb55cb6d0,,,,,0,0,0,0,1,"X V Q F H G B L J M P D K C T S W R N Z
",,,,,,,,,,,,,,,,,,,,,,,,,,,,,,,,,,,,,,,,,,,,,,,,,,,,,,,,,,,,,,,,,,,,,,,,,,,,,,,,,,,,,,,,,,,,,
,,,,,,,,,,5e41325ffce14d35e6da5bb6,19,Mężczyzna,2022-05-28_09h27.31.283,task,2021.1.4,Win32,60.0060006,628b806c463b948bc644b84f,6291ce3eda0c0bbeb55cb6d0,,,,,1,0,1,0,1,"X V Q F H G B L J M P D K C T S W R N Z
",,,,,,,,,,,,,,,,,,,,,,,,,,,,,,,,,,,,,,,,,,,,,,,,,,,,,,,,,,,,,,,,,,,,,,,,,,,,,,,,,,,,,,,,,,,,,
,,,,,,,,,,5e41325ffce14d35e6da5bb6,19,Mężczyzna,2022-05-28_09h27.31.283,task,2021.1.4,Win32,60.0060006,628b806c463b948bc644b84f,6291ce3eda0c0bbeb55cb6d0,,,,,2,0,2,0,1,"X V Q F H G B L J M P D K C T S W R N Z
",,,,,,,,,,,,,,,,,,,,,,,,,,,,,,,,,,,,,,,,,,,,,,,,,,,,,,,,,,,,,,,,,,,,,,,,,,,,,,,,,,,,,,,,,,,,,
,,,,,,,,,,5e41325ffce14d35e6da5bb6,19,Mężczyzna,2022-05-28_09h27.31.283,task,2021.1.4,Win32,60.0060006,628b806c463b948bc644b84f,6291ce3eda0c0bbeb55cb6d0,,,,,3,0,3,0,1,"X V Q F H G B L J M P D K C T S W R N Z
",,,,,,,,,,,,,,,,,,,,,,,,,,,,,,,,,,,,,,,,,,,,,,,,,,,,,,,,,,,,,,,,,,,,,,,,,,,,,,,,,,,,,,,,,,,,,
,,,,,,,,,,5e41325ffce14d35e6da5bb6,19,Mężczyzna,2022-05-28_09h27.31.283,task,2021.1.4,Win32,60.0060006,628b806c463b948bc644b84f,6291ce3eda0c0bbeb55cb6d0,,,,,,,,,,,wpss,"[""w"",""p"",""s"",""s""]","[0.9771000000238246,1.5713999999761654,2.048899999976186,2.2546000000238564,3.0048999999761463]",1,WPSS,6,0,6,0,1,,,,,,,,,,,,,,,,,,,,,,,,,,,,,,,,,,,,,,,,,,,,,,,,,,,,,,,,,,,,,,,,,,,,,,,,,,,,,,,,,,,
,,,,,,,,,,5e41325ffce14d35e6da5bb6,19,Mężczyzna,2022-05-28_09h27.31.283,task,2021.1.4,Win32,60.0060006,628b806c463b948bc644b84f,6291ce3eda0c0bbeb55cb6d0,,,,,0,0,0,0,1,"X V Q F H G B L J M P D K C T S W R N Z
",,,,,,,,,,,,,,,,,,,,,,,,,,,,,,,,,,,,,,,,,,,,,,,,,,,,,,,,,,,,,,,,,,,,,,,,,,,,,,,,,,,,,,,,,,,,,
,,,,,,,,,,5e41325ffce14d35e6da5bb6,19,Mężczyzna,2022-05-28_09h27.31.283,task,2021.1.4,Win32,60.0060006,628b806c463b948bc644b84f,6291ce3eda0c0bbeb55cb6d0,,,,,1,0,1,0,1,"X V Q F H G B L J M P D K C T S W R N Z
",,,,,,,,,,,,,,,,,,,,,,,,,,,,,,,,,,,,,,,,,,,,,,,,,,,,,,,,,,,,,,,,,,,,,,,,,,,,,,,,,,,,,,,,,,,,,
,,,,,,,,,,5e41325ffce14d35e6da5bb6,19,Mężczyzna,2022-05-28_09h27.31.283,task,2021.1.4,Win32,60.0060006,628b806c463b948bc644b84f,6291ce3eda0c0bbeb55cb6d0,,,,,2,0,2,0,1,"X V Q F H G B L J M P D K C T S W R N Z
",,,,,,,,,,,,,,,,,,,,,,,,,,,,,,,,,,,,,,,,,,,,,,,,,,,,,,,,,,,,,,,,,,,,,,,,,,,,,,,,,,,,,,,,,,,,,
,,,,,,,,,,5e41325ffce14d35e6da5bb6,19,Mężczyzna,2022-05-28_09h27.31.283,task,2021.1.4,Win32,60.0060006,628b806c463b948bc644b84f,6291ce3eda0c0bbeb55cb6d0,,,,,3,0,3,0,1,"X V Q F H G B L J M P D K C T S W R N Z
",,,,,,,,,,,,,,,,,,,,,,,,,,,,,,,,,,,,,,,,,,,,,,,,,,,,,,,,,,,,,,,,,,,,,,,,,,,,,,,,,,,,,,,,,,,,,
,,,,,,,,,,5e41325ffce14d35e6da5bb6,19,Mężczyzna,2022-05-28_09h27.31.283,task,2021.1.4,Win32,60.0060006,628b806c463b948bc644b84f,6291ce3eda0c0bbeb55cb6d0,,,,,4,0,4,0,1,"X V Q F H G B L J M P D K C T S W R N Z
",,,,,,,,,,,,,,,,,,,,,,,,,,,,,,,,,,,,,,,,,,,,,,,,,,,,,,,,,,,,,,,,,,,,,,,,,,,,,,,,,,,,,,,,,,,,,
,,,,,,,,,,5e41325ffce14d35e6da5bb6,19,Mężczyzna,2022-05-28_09h27.31.283,task,2021.1.4,Win32,60.0060006,628b806c463b948bc644b84f,6291ce3eda0c0bbeb55cb6d0,,,,,,,,,,,bzmwk,"[""b"",""z"",""m"",""w"",""k""]","[1.2113999999761518,1.616300000071476,2.0946000000238314,2.576899999976149,3.066399999976113,3.4867000000476764]",0,"BZ
MWK",7,0,7,0,1,,,,,,,,,,,,,,,,,,,,,,,,,,,,,,,,,,,,,,,,,,,,,,,,,,,,,,,,,,,,,,,,,,,,,,,,,,,,,,,,,,,
,,,,,,,,,,5e41325ffce14d35e6da5bb6,19,Mężczyzna,2022-05-28_09h27.31.283,task,2021.1.4,Win32,60.0060006,628b806c463b948bc644b84f,6291ce3eda0c0bbeb55cb6d0,,,,,0,0,0,0,1,"X V Q F H G B L J M P D K C T S W R N Z
",,,,,,,,,,,,,,,,,,,,,,,,,,,,,,,,,,,,,,,,,,,,,,,,,,,,,,,,,,,,,,,,,,,,,,,,,,,,,,,,,,,,,,,,,,,,,
,,,,,,,,,,5e41325ffce14d35e6da5bb6,19,Mężczyzna,2022-05-28_09h27.31.283,task,2021.1.4,Win32,60.0060006,628b806c463b948bc644b84f,6291ce3eda0c0bbeb55cb6d0,,,,,1,0,1,0,1,"X V Q F H G B L J M P D K C T S W R N Z
",,,,,,,,,,,,,,,,,,,,,,,,,,,,,,,,,,,,,,,,,,,,,,,,,,,,,,,,,,,,,,,,,,,,,,,,,,,,,,,,,,,,,,,,,,,,,
,,,,,,,,,,5e41325ffce14d35e6da5bb6,19,Mężczyzna,2022-05-28_09h27.31.283,task,2021.1.4,Win32,60.0060006,628b806c463b948bc644b84f,6291ce3eda0c0bbeb55cb6d0,,,,,2,0,2,0,1,"X V Q F H G B L J M P D K C T S W R N Z
",,,,,,,,,,,,,,,,,,,,,,,,,,,,,,,,,,,,,,,,,,,,,,,,,,,,,,,,,,,,,,,,,,,,,,,,,,,,,,,,,,,,,,,,,,,,,
,,,,,,,,,,5e41325ffce14d35e6da5bb6,19,Mężczyzna,2022-05-28_09h27.31.283,task,2021.1.4,Win32,60.0060006,628b806c463b948bc644b84f,6291ce3eda0c0bbeb55cb6d0,,,,,3,0,3,0,1,"X V Q F H G B L J M P D K C T S W R N Z
",,,,,,,,,,,,,,,,,,,,,,,,,,,,,,,,,,,,,,,,,,,,,,,,,,,,,,,,,,,,,,,,,,,,,,,,,,,,,,,,,,,,,,,,,,,,,
,,,,,,,,,,5e41325ffce14d35e6da5bb6,19,Mężczyzna,2022-05-28_09h27.31.283,task,2021.1.4,Win32,60.0060006,628b806c463b948bc644b84f,6291ce3eda0c0bbeb55cb6d0,,,,,4,0,4,0,1,"X V Q F H G B L J M P D K C T S W R N Z
",,,,,,,,,,,,,,,,,,,,,,,,,,,,,,,,,,,,,,,,,,,,,,,,,,,,,,,,,,,,,,,,,,,,,,,,,,,,,,,,,,,,,,,,,,,,,
,,,,,,,,,,5e41325ffce14d35e6da5bb6,19,Mężczyzna,2022-05-28_09h27.31.283,task,2021.1.4,Win32,60.0060006,628b806c463b948bc644b84f,6291ce3eda0c0bbeb55cb6d0,,,,,,,,,,,hwlqn,"[""h"",""w"",""l"",""q"",""n""]","[1.0917000000476946,1.530499999999961,2.152600000023824,3.0464999999999804,3.6553999999761686,4.385700000047677]",1,HWLQN,8,0,8,0,1,,,,,,,,,,,,,,,,,,,,,,,,,,,,,,,,,,,,,,,,,,,,,,,,,,,,,,,,,,,,,,,,,,,,,,,,,,,,,,,,,,,
,,,,,,,,,,5e41325ffce14d35e6da5bb6,19,Mężczyzna,2022-05-28_09h27.31.283,task,2021.1.4,Win32,60.0060006,628b806c463b948bc644b84f,6291ce3eda0c0bbeb55cb6d0,,,,,0,0,0,0,1,"X V Q F H G B L J M P D K C T S W R N Z
",,,,,,,,,,,,,,,,,,,,,,,,,,,,,,,,,,,,,,,,,,,,,,,,,,,,,,,,,,,,,,,,,,,,,,,,,,,,,,,,,,,,,,,,,,,,,
,,,,,,,,,,5e41325ffce14d35e6da5bb6,19,Mężczyzna,2022-05-28_09h27.31.283,task,2021.1.4,Win32,60.0060006,628b806c463b948bc644b84f,6291ce3eda0c0bbeb55cb6d0,,,,,1,0,1,0,1,"X V Q F H G B L J M P D K C T S W R N Z
",,,,,,,,,,,,,,,,,,,,,,,,,,,,,,,,,,,,,,,,,,,,,,,,,,,,,,,,,,,,,,,,,,,,,,,,,,,,,,,,,,,,,,,,,,,,,
,,,,,,,,,,5e41325ffce14d35e6da5bb6,19,Mężczyzna,2022-05-28_09h27.31.283,task,2021.1.4,Win32,60.0060006,628b806c463b948bc644b84f,6291ce3eda0c0bbeb55cb6d0,,,,,2,0,2,0,1,"X V Q F H G B L J M P D K C T S W R N Z
",,,,,,,,,,,,,,,,,,,,,,,,,,,,,,,,,,,,,,,,,,,,,,,,,,,,,,,,,,,,,,,,,,,,,,,,,,,,,,,,,,,,,,,,,,,,,
,,,,,,,,,,5e41325ffce14d35e6da5bb6,19,Mężczyzna,2022-05-28_09h27.31.283,task,2021.1.4,Win32,60.0060006,628b806c463b948bc644b84f,6291ce3eda0c0bbeb55cb6d0,,,,,3,0,3,0,1,"X V Q F H G B L J M P D K C T S W R N Z
",,,,,,,,,,,,,,,,,,,,,,,,,,,,,,,,,,,,,,,,,,,,,,,,,,,,,,,,,,,,,,,,,,,,,,,,,,,,,,,,,,,,,,,,,,,,,
,,,,,,,,,,5e41325ffce14d35e6da5bb6,19,Mężczyzna,2022-05-28_09h27.31.283,task,2021.1.4,Win32,60.0060006,628b806c463b948bc644b84f,6291ce3eda0c0bbeb55cb6d0,,,,,4,0,4,0,1,"X V Q F H G B L J M P D K C T S W R N Z
",,,,,,,,,,,,,,,,,,,,,,,,,,,,,,,,,,,,,,,,,,,,,,,,,,,,,,,,,,,,,,,,,,,,,,,,,,,,,,,,,,,,,,,,,,,,,
,,,,,,,,,,5e41325ffce14d35e6da5bb6,19,Mężczyzna,2022-05-28_09h27.31.283,task,2021.1.4,Win32,60.0060006,628b806c463b948bc644b84f,6291ce3eda0c0bbeb55cb6d0,,,,,,,,,,,gbmxf,"[""g"",""b"",""m"",""x"",""f""]","[0.9729999999999563,1.5983999999761522,1.9496999999284412,2.4275999999046007,2.6085999999046408,3.3086999999284785]",1,GBMXF,9,0,9,0,1,,,,,,,,,,,,,,,,,,,,,,,,,,,,,,,,,,,,,,,,,,,,,,,,,,,,,,,,,,,,,,,,,,,,,,,,,,,,,,,,,,,
,,,,,,,,,,5e41325ffce14d35e6da5bb6,19,Mężczyzna,2022-05-28_09h27.31.283,task,2021.1.4,Win32,60.0060006,628b806c463b948bc644b84f,6291ce3eda0c0bbeb55cb6d0,,,,,0,0,0,0,1,"X V Q F H G B L J M P D K C T S W R N Z
",,,,,,,,,,,,,,,,,,,,,,,,,,,,,,,,,,,,,,,,,,,,,,,,,,,,,,,,,,,,,,,,,,,,,,,,,,,,,,,,,,,,,,,,,,,,,
,,,,,,,,,,5e41325ffce14d35e6da5bb6,19,Mężczyzna,2022-05-28_09h27.31.283,task,2021.1.4,Win32,60.0060006,628b806c463b948bc644b84f,6291ce3eda0c0bbeb55cb6d0,,,,,1,0,1,0,1,"X V Q F H G B L J M P D K C T S W R N Z
",,,,,,,,,,,,,,,,,,,,,,,,,,,,,,,,,,,,,,,,,,,,,,,,,,,,,,,,,,,,,,,,,,,,,,,,,,,,,,,,,,,,,,,,,,,,,
,,,,,,,,,,5e41325ffce14d35e6da5bb6,19,Mężczyzna,2022-05-28_09h27.31.283,task,2021.1.4,Win32,60.0060006,628b806c463b948bc644b84f,6291ce3eda0c0bbeb55cb6d0,,,,,2,0,2,0,1,"X V Q F H G B L J M P D K C T S W R N Z
",,,,,,,,,,,,,,,,,,,,,,,,,,,,,,,,,,,,,,,,,,,,,,,,,,,,,,,,,,,,,,,,,,,,,,,,,,,,,,,,,,,,,,,,,,,,,
,,,,,,,,,,5e41325ffce14d35e6da5bb6,19,Mężczyzna,2022-05-28_09h27.31.283,task,2021.1.4,Win32,60.0060006,628b806c463b948bc644b84f,6291ce3eda0c0bbeb55cb6d0,,,,,3,0,3,0,1,"X V Q F H G B L J M P D K C T S W R N Z
",,,,,,,,,,,,,,,,,,,,,,,,,,,,,,,,,,,,,,,,,,,,,,,,,,,,,,,,,,,,,,,,,,,,,,,,,,,,,,,,,,,,,,,,,,,,,
,,,,,,,,,,5e41325ffce14d35e6da5bb6,19,Mężczyzna,2022-05-28_09h27.31.283,task,2021.1.4,Win32,60.0060006,628b806c463b948bc644b84f,6291ce3eda0c0bbeb55cb6d0,,,,,4,0,4,0,1,"X V Q F H G B L J M P D K C T S W R N Z
",,,,,,,,,,,,,,,,,,,,,,,,,,,,,,,,,,,,,,,,,,,,,,,,,,,,,,,,,,,,,,,,,,,,,,,,,,,,,,,,,,,,,,,,,,,,,
,,,,,,,,,,5e41325ffce14d35e6da5bb6,19,Mężczyzna,2022-05-28_09h27.31.283,task,2021.1.4,Win32,60.0060006,628b806c463b948bc644b84f,6291ce3eda0c0bbeb55cb6d0,,,,,5,0,5,0,1,"X V Q F H G B L J M P D K C T S W R N Z
",,,,,,,,,,,,,,,,,,,,,,,,,,,,,,,,,,,,,,,,,,,,,,,,,,,,,,,,,,,,,,,,,,,,,,,,,,,,,,,,,,,,,,,,,,,,,
,,,,,,,,,,5e41325ffce14d35e6da5bb6,19,Mężczyzna,2022-05-28_09h27.31.283,task,2021.1.4,Win32,60.0060006,628b806c463b948bc644b84f,6291ce3eda0c0bbeb55cb6d0,,,,,,,,,,,lmhnsq,"[""l"",""m"",""h"",""n"",""s"",""q""]","[1.0158999999761704,1.2770999999046353,1.5581999999284903,1.919499999999971,2.3855999999046276,2.7665000000000077,3.712399999976185]",1,LMHNSQ,10,0,10,0,1,,,,,,,,,,,,,,,,,,,,,,,,,,,,,,,,,,,,,,,,,,,,,,,,,,,,,,,,,,,,,,,,,,,,,,,,,,,,,,,,,,,
,,,,,,,,,,5e41325ffce14d35e6da5bb6,19,Mężczyzna,2022-05-28_09h27.31.283,task,2021.1.4,Win32,60.0060006,628b806c463b948bc644b84f,6291ce3eda0c0bbeb55cb6d0,,,,,0,0,0,0,1,"X V Q F H G B L J M P D K C T S W R N Z
",,,,,,,,,,,,,,,,,,,,,,,,,,,,,,,,,,,,,,,,,,,,,,,,,,,,,,,,,,,,,,,,,,,,,,,,,,,,,,,,,,,,,,,,,,,,,
,,,,,,,,,,5e41325ffce14d35e6da5bb6,19,Mężczyzna,2022-05-28_09h27.31.283,task,2021.1.4,Win32,60.0060006,628b806c463b948bc644b84f,6291ce3eda0c0bbeb55cb6d0,,,,,1,0,1,0,1,"X V Q F H G B L J M P D K C T S W R N Z
",,,,,,,,,,,,,,,,,,,,,,,,,,,,,,,,,,,,,,,,,,,,,,,,,,,,,,,,,,,,,,,,,,,,,,,,,,,,,,,,,,,,,,,,,,,,,
,,,,,,,,,,5e41325ffce14d35e6da5bb6,19,Mężczyzna,2022-05-28_09h27.31.283,task,2021.1.4,Win32,60.0060006,628b806c463b948bc644b84f,6291ce3eda0c0bbeb55cb6d0,,,,,2,0,2,0,1,"X V Q F H G B L J M P D K C T S W R N Z
",,,,,,,,,,,,,,,,,,,,,,,,,,,,,,,,,,,,,,,,,,,,,,,,,,,,,,,,,,,,,,,,,,,,,,,,,,,,,,,,,,,,,,,,,,,,,
,,,,,,,,,,5e41325ffce14d35e6da5bb6,19,Mężczyzna,2022-05-28_09h27.31.283,task,2021.1.4,Win32,60.0060006,628b806c463b948bc644b84f,6291ce3eda0c0bbeb55cb6d0,,,,,3,0,3,0,1,"X V Q F H G B L J M P D K C T S W R N Z
",,,,,,,,,,,,,,,,,,,,,,,,,,,,,,,,,,,,,,,,,,,,,,,,,,,,,,,,,,,,,,,,,,,,,,,,,,,,,,,,,,,,,,,,,,,,,
,,,,,,,,,,5e41325ffce14d35e6da5bb6,19,Mężczyzna,2022-05-28_09h27.31.283,task,2021.1.4,Win32,60.0060006,628b806c463b948bc644b84f,6291ce3eda0c0bbeb55cb6d0,,,,,4,0,4,0,1,"X V Q F H G B L J M P D K C T S W R N Z
",,,,,,,,,,,,,,,,,,,,,,,,,,,,,,,,,,,,,,,,,,,,,,,,,,,,,,,,,,,,,,,,,,,,,,,,,,,,,,,,,,,,,,,,,,,,,
,,,,,,,,,,5e41325ffce14d35e6da5bb6,19,Mężczyzna,2022-05-28_09h27.31.283,task,2021.1.4,Win32,60.0060006,628b806c463b948bc644b84f,6291ce3eda0c0bbeb55cb6d0,,,,,5,0,5,0,1,"X V Q F H G B L J M P D K C T S W R N Z
",,,,,,,,,,,,,,,,,,,,,,,,,,,,,,,,,,,,,,,,,,,,,,,,,,,,,,,,,,,,,,,,,,,,,,,,,,,,,,,,,,,,,,,,,,,,,
,,,,,,,,,,5e41325ffce14d35e6da5bb6,19,Mężczyzna,2022-05-28_09h27.31.283,task,2021.1.4,Win32,60.0060006,628b806c463b948bc644b84f,6291ce3eda0c0bbeb55cb6d0,,,,,,,,,,,vsfcrl,"[""v"",""s"",""f"",""c"",""r"",""l""]","[1.3471000000238291,1.7666000000238,2.120999999999981,2.4049000000953242,2.6636000000237914,3.1979000000953306,3.6388000000715124]",1,VSFCRL,11,0,11,0,1,,,,,,,,,,,,,,,,,,,,,,,,,,,,,,,,,,,,,,,,,,,,,,,,,,,,,,,,,,,,,,,,,,,,,,,,,,,,,,,,,,,
,,,,,,,,,,5e41325ffce14d35e6da5bb6,19,Mężczyzna,2022-05-28_09h27.31.283,task,2021.1.4,Win32,60.0060006,628b806c463b948bc644b84f,6291ce3eda0c0bbeb55cb6d0,,,,,0,0,0,0,1,"X V Q F H G B L J M P D K C T S W R N Z
",,,,,,,,,,,,,,,,,,,,,,,,,,,,,,,,,,,,,,,,,,,,,,,,,,,,,,,,,,,,,,,,,,,,,,,,,,,,,,,,,,,,,,,,,,,,,
,,,,,,,,,,5e41325ffce14d35e6da5bb6,19,Mężczyzna,2022-05-28_09h27.31.283,task,2021.1.4,Win32,60.0060006,628b806c463b948bc644b84f,6291ce3eda0c0bbeb55cb6d0,,,,,1,0,1,0,1,"X V Q F H G B L J M P D K C T S W R N Z
",,,,,,,,,,,,,,,,,,,,,,,,,,,,,,,,,,,,,,,,,,,,,,,,,,,,,,,,,,,,,,,,,,,,,,,,,,,,,,,,,,,,,,,,,,,,,
,,,,,,,,,,5e41325ffce14d35e6da5bb6,19,Mężczyzna,2022-05-28_09h27.31.283,task,2021.1.4,Win32,60.0060006,628b806c463b948bc644b84f,6291ce3eda0c0bbeb55cb6d0,,,,,2,0,2,0,1,"X V Q F H G B L J M P D K C T S W R N Z
",,,,,,,,,,,,,,,,,,,,,,,,,,,,,,,,,,,,,,,,,,,,,,,,,,,,,,,,,,,,,,,,,,,,,,,,,,,,,,,,,,,,,,,,,,,,,
,,,,,,,,,,5e41325ffce14d35e6da5bb6,19,Mężczyzna,2022-05-28_09h27.31.283,task,2021.1.4,Win32,60.0060006,628b806c463b948bc644b84f,6291ce3eda0c0bbeb55cb6d0,,,,,3,0,3,0,1,"X V Q F H G B L J M P D K C T S W R N Z
",,,,,,,,,,,,,,,,,,,,,,,,,,,,,,,,,,,,,,,,,,,,,,,,,,,,,,,,,,,,,,,,,,,,,,,,,,,,,,,,,,,,,,,,,,,,,
,,,,,,,,,,5e41325ffce14d35e6da5bb6,19,Mężczyzna,2022-05-28_09h27.31.283,task,2021.1.4,Win32,60.0060006,628b806c463b948bc644b84f,6291ce3eda0c0bbeb55cb6d0,,,,,4,0,4,0,1,"X V Q F H G B L J M P D K C T S W R N Z
",,,,,,,,,,,,,,,,,,,,,,,,,,,,,,,,,,,,,,,,,,,,,,,,,,,,,,,,,,,,,,,,,,,,,,,,,,,,,,,,,,,,,,,,,,,,,
,,,,,,,,,,5e41325ffce14d35e6da5bb6,19,Mężczyzna,2022-05-28_09h27.31.283,task,2021.1.4,Win32,60.0060006,628b806c463b948bc644b84f,6291ce3eda0c0bbeb55cb6d0,,,,,5,0,5,0,1,"X V Q F H G B L J M P D K C T S W R N Z
",,,,,,,,,,,,,,,,,,,,,,,,,,,,,,,,,,,,,,,,,,,,,,,,,,,,,,,,,,,,,,,,,,,,,,,,,,,,,,,,,,,,,,,,,,,,,
,,,,,,,,,,5e41325ffce14d35e6da5bb6,19,Mężczyzna,2022-05-28_09h27.31.283,task,2021.1.4,Win32,60.0060006,628b806c463b948bc644b84f,6291ce3eda0c0bbeb55cb6d0,,,,,6,0,6,0,1,"X V Q F H G B L J M P D K C T S W R N Z
",,,,,,,,,,,,,,,,,,,,,,,,,,,,,,,,,,,,,,,,,,,,,,,,,,,,,,,,,,,,,,,,,,,,,,,,,,,,,,,,,,,,,,,,,,,,,
,,,,,,,,,,5e41325ffce14d35e6da5bb6,19,Mężczyzna,2022-05-28_09h27.31.283,task,2021.1.4,Win32,60.0060006,628b806c463b948bc644b84f,6291ce3eda0c0bbeb55cb6d0,,,,,,,,,,,qfwmxxz,"[""q"",""f"",""w"",""m"",""x"",""x"",""z""]","[1.5913000000715556,2.514100000023859,2.8593999999761763,3.436700000047722,3.877700000047696,4.103800000071544,7.475999999999999,8.463999999999999]",0,"QFWMXXZ
",12,0,12,0,1,,,,,,,,,,,,,,,,,,,,,,,,,,,,,,,,,,,,,,,,,,,,,,,,,,,,,,,,,,,,,,,,,,,,,,,,,,,,,,,,,,,
,,,,,,,,,,5e41325ffce14d35e6da5bb6,19,Mężczyzna,2022-05-28_09h27.31.283,task,2021.1.4,Win32,60.0060006,628b806c463b948bc644b84f,6291ce3eda0c0bbeb55cb6d0,,,,,0,0,0,0,1,"X V Q F H G B L J M P D K C T S W R N Z
",,,,,,,,,,,,,,,,,,,,,,,,,,,,,,,,,,,,,,,,,,,,,,,,,,,,,,,,,,,,,,,,,,,,,,,,,,,,,,,,,,,,,,,,,,,,,
,,,,,,,,,,5e41325ffce14d35e6da5bb6,19,Mężczyzna,2022-05-28_09h27.31.283,task,2021.1.4,Win32,60.0060006,628b806c463b948bc644b84f,6291ce3eda0c0bbeb55cb6d0,,,,,1,0,1,0,1,"X V Q F H G B L J M P D K C T S W R N Z
",,,,,,,,,,,,,,,,,,,,,,,,,,,,,,,,,,,,,,,,,,,,,,,,,,,,,,,,,,,,,,,,,,,,,,,,,,,,,,,,,,,,,,,,,,,,,
,,,,,,,,,,5e41325ffce14d35e6da5bb6,19,Mężczyzna,2022-05-28_09h27.31.283,task,2021.1.4,Win32,60.0060006,628b806c463b948bc644b84f,6291ce3eda0c0bbeb55cb6d0,,,,,2,0,2,0,1,"X V Q F H G B L J M P D K C T S W R N Z
",,,,,,,,,,,,,,,,,,,,,,,,,,,,,,,,,,,,,,,,,,,,,,,,,,,,,,,,,,,,,,,,,,,,,,,,,,,,,,,,,,,,,,,,,,,,,
,,,,,,,,,,5e41325ffce14d35e6da5bb6,19,Mężczyzna,2022-05-28_09h27.31.283,task,2021.1.4,Win32,60.0060006,628b806c463b948bc644b84f,6291ce3eda0c0bbeb55cb6d0,,,,,3,0,3,0,1,"X V Q F H G B L J M P D K C T S W R N Z
",,,,,,,,,,,,,,,,,,,,,,,,,,,,,,,,,,,,,,,,,,,,,,,,,,,,,,,,,,,,,,,,,,,,,,,,,,,,,,,,,,,,,,,,,,,,,
,,,,,,,,,,5e41325ffce14d35e6da5bb6,19,Mężczyzna,2022-05-28_09h27.31.283,task,2021.1.4,Win32,60.0060006,628b806c463b948bc644b84f,6291ce3eda0c0bbeb55cb6d0,,,,,4,0,4,0,1,"X V Q F H G B L J M P D K C T S W R N Z
",,,,,,,,,,,,,,,,,,,,,,,,,,,,,,,,,,,,,,,,,,,,,,,,,,,,,,,,,,,,,,,,,,,,,,,,,,,,,,,,,,,,,,,,,,,,,
,,,,,,,,,,5e41325ffce14d35e6da5bb6,19,Mężczyzna,2022-05-28_09h27.31.283,task,2021.1.4,Win32,60.0060006,628b806c463b948bc644b84f,6291ce3eda0c0bbeb55cb6d0,,,,,5,0,5,0,1,"X V Q F H G B L J M P D K C T S W R N Z
",,,,,,,,,,,,,,,,,,,,,,,,,,,,,,,,,,,,,,,,,,,,,,,,,,,,,,,,,,,,,,,,,,,,,,,,,,,,,,,,,,,,,,,,,,,,,
,,,,,,,,,,5e41325ffce14d35e6da5bb6,19,Mężczyzna,2022-05-28_09h27.31.283,task,2021.1.4,Win32,60.0060006,628b806c463b948bc644b84f,6291ce3eda0c0bbeb55cb6d0,,,,,6,0,6,0,1,"X V Q F H G B L J M P D K C T S W R N Z
",,,,,,,,,,,,,,,,,,,,,,,,,,,,,,,,,,,,,,,,,,,,,,,,,,,,,,,,,,,,,,,,,,,,,,,,,,,,,,,,,,,,,,,,,,,,,
,,,,,,,,,,5e41325ffce14d35e6da5bb6,19,Mężczyzna,2022-05-28_09h27.31.283,task,2021.1.4,Win32,60.0060006,628b806c463b948bc644b84f,6291ce3eda0c0bbeb55cb6d0,,,,,,,,,,,bdkgrlv,"[""b"",""d"",""k"",""g"",""r"",""l"",""v""]","[1.1617999999523363,1.5678999999761345,2.2977999999523036,2.6947999999523518,3.056399999976179,3.6662999999523436,4.119399999976167,4.8132000000476864]",1,BDKGRLV,13,0,13,0,1,,,,,,,,,,,,,,,,,,,,,,,,,,,,,,,,,,,,,,,,,,,,,,,,,,,,,,,,,,,,,,,,,,,,,,,,,,,,,,,,,,,
,,,,,,,,,,5e41325ffce14d35e6da5bb6,19,Mężczyzna,2022-05-28_09h27.31.283,task,2021.1.4,Win32,60.0060006,628b806c463b948bc644b84f,6291ce3eda0c0bbeb55cb6d0,,,,,0,0,0,0,1,"X V Q F H G B L J M P D K C T S W R N Z
",,,,,,,,,,,,,,,,,,,,,,,,,,,,,,,,,,,,,,,,,,,,,,,,,,,,,,,,,,,,,,,,,,,,,,,,,,,,,,,,,,,,,,,,,,,,,
,,,,,,,,,,5e41325ffce14d35e6da5bb6,19,Mężczyzna,2022-05-28_09h27.31.283,task,2021.1.4,Win32,60.0060006,628b806c463b948bc644b84f,6291ce3eda0c0bbeb55cb6d0,,,,,1,0,1,0,1,"X V Q F H G B L J M P D K C T S W R N Z
",,,,,,,,,,,,,,,,,,,,,,,,,,,,,,,,,,,,,,,,,,,,,,,,,,,,,,,,,,,,,,,,,,,,,,,,,,,,,,,,,,,,,,,,,,,,,
,,,,,,,,,,5e41325ffce14d35e6da5bb6,19,Mężczyzna,2022-05-28_09h27.31.283,task,2021.1.4,Win32,60.0060006,628b806c463b948bc644b84f,6291ce3eda0c0bbeb55cb6d0,,,,,2,0,2,0,1,"X V Q F H G B L J M P D K C T S W R N Z
",,,,,,,,,,,,,,,,,,,,,,,,,,,,,,,,,,,,,,,,,,,,,,,,,,,,,,,,,,,,,,,,,,,,,,,,,,,,,,,,,,,,,,,,,,,,,
,,,,,,,,,,5e41325ffce14d35e6da5bb6,19,Mężczyzna,2022-05-28_09h27.31.283,task,2021.1.4,Win32,60.0060006,628b806c463b948bc644b84f,6291ce3eda0c0bbeb55cb6d0,,,,,3,0,3,0,1,"X V Q F H G B L J M P D K C T S W R N Z
",,,,,,,,,,,,,,,,,,,,,,,,,,,,,,,,,,,,,,,,,,,,,,,,,,,,,,,,,,,,,,,,,,,,,,,,,,,,,,,,,,,,,,,,,,,,,
,,,,,,,,,,5e41325ffce14d35e6da5bb6,19,Mężczyzna,2022-05-28_09h27.31.283,task,2021.1.4,Win32,60.0060006,628b806c463b948bc644b84f,6291ce3eda0c0bbeb55cb6d0,,,,,4,0,4,0,1,"X V Q F H G B L J M P D K C T S W R N Z
",,,,,,,,,,,,,,,,,,,,,,,,,,,,,,,,,,,,,,,,,,,,,,,,,,,,,,,,,,,,,,,,,,,,,,,,,,,,,,,,,,,,,,,,,,,,,
,,,,,,,,,,5e41325ffce14d35e6da5bb6,19,Mężczyzna,2022-05-28_09h27.31.283,task,2021.1.4,Win32,60.0060006,628b806c463b948bc644b84f,6291ce3eda0c0bbeb55cb6d0,,,,,5,0,5,0,1,"X V Q F H G B L J M P D K C T S W R N Z
",,,,,,,,,,,,,,,,,,,,,,,,,,,,,,,,,,,,,,,,,,,,,,,,,,,,,,,,,,,,,,,,,,,,,,,,,,,,,,,,,,,,,,,,,,,,,
,,,,,,,,,,5e41325ffce14d35e6da5bb6,19,Mężczyzna,2022-05-28_09h27.31.283,task,2021.1.4,Win32,60.0060006,628b806c463b948bc644b84f,6291ce3eda0c0bbeb55cb6d0,,,,,6,0,6,0,1,"X V Q F H G B L J M P D K C T S W R N Z
",,,,,,,,,,,,,,,,,,,,,,,,,,,,,,,,,,,,,,,,,,,,,,,,,,,,,,,,,,,,,,,,,,,,,,,,,,,,,,,,,,,,,,,,,,,,,
,,,,,,,,,,5e41325ffce14d35e6da5bb6,19,Mężczyzna,2022-05-28_09h27.31.283,task,2021.1.4,Win32,60.0060006,628b806c463b948bc644b84f,6291ce3eda0c0bbeb55cb6d0,,,,,,,,,,,svttndr,"[""s"",""v"",""t"",""t"",""n"",""d"",""r""]","[2.4042999999522863,3.091299999952298,3.6962999999523163,3.870999999999981,4.364000000000033,4.836999999999989,5.745999999999981,6.4155000000000655]",0,SVTTNDV,14,0,14,0,1,,,,,,,,,,,,,,,,,,,,,,,,,,,,,,,,,,,,,,,,,,,,,,,,,,,,,,,,,,,,,,,,,,,,,,,,,,,,,,,,,,,
,,,,,,,,,,5e41325ffce14d35e6da5bb6,19,Mężczyzna,2022-05-28_09h27.31.283,task,2021.1.4,Win32,60.0060006,628b806c463b948bc644b84f,6291ce3eda0c0bbeb55cb6d0,,,,,0,0,0,0,1,"X V Q F H G B L J M P D K C T S W R N Z
",,,,,,,,,,,,,,,,,,,,,,,,,,,,,,,,,,,,,,,,,,,,,,,,,,,,,,,,,,,,,,,,,,,,,,,,,,,,,,,,,,,,,,,,,,,,,
,,,,,,,,,,5e41325ffce14d35e6da5bb6,19,Mężczyzna,2022-05-28_09h27.31.283,task,2021.1.4,Win32,60.0060006,628b806c463b948bc644b84f,6291ce3eda0c0bbeb55cb6d0,,,,,1,0,1,0,1,"X V Q F H G B L J M P D K C T S W R N Z
",,,,,,,,,,,,,,,,,,,,,,,,,,,,,,,,,,,,,,,,,,,,,,,,,,,,,,,,,,,,,,,,,,,,,,,,,,,,,,,,,,,,,,,,,,,,,
,,,,,,,,,,5e41325ffce14d35e6da5bb6,19,Mężczyzna,2022-05-28_09h27.31.283,task,2021.1.4,Win32,60.0060006,628b806c463b948bc644b84f,6291ce3eda0c0bbeb55cb6d0,,,,,2,0,2,0,1,"X V Q F H G B L J M P D K C T S W R N Z
",,,,,,,,,,,,,,,,,,,,,,,,,,,,,,,,,,,,,,,,,,,,,,,,,,,,,,,,,,,,,,,,,,,,,,,,,,,,,,,,,,,,,,,,,,,,,
,,,,,,,,,,5e41325ffce14d35e6da5bb6,19,Mężczyzna,2022-05-28_09h27.31.283,task,2021.1.4,Win32,60.0060006,628b806c463b948bc644b84f,6291ce3eda0c0bbeb55cb6d0,,,,,3,0,3,0,1,"X V Q F H G B L J M P D K C T S W R N Z
",,,,,,,,,,,,,,,,,,,,,,,,,,,,,,,,,,,,,,,,,,,,,,,,,,,,,,,,,,,,,,,,,,,,,,,,,,,,,,,,,,,,,,,,,,,,,
,,,,,,,,,,5e41325ffce14d35e6da5bb6,19,Mężczyzna,2022-05-28_09h27.31.283,task,2021.1.4,Win32,60.0060006,628b806c463b948bc644b84f,6291ce3eda0c0bbeb55cb6d0,,,,,4,0,4,0,1,"X V Q F H G B L J M P D K C T S W R N Z
",,,,,,,,,,,,,,,,,,,,,,,,,,,,,,,,,,,,,,,,,,,,,,,,,,,,,,,,,,,,,,,,,,,,,,,,,,,,,,,,,,,,,,,,,,,,,
,,,,,,,,,,5e41325ffce14d35e6da5bb6,19,Mężczyzna,2022-05-28_09h27.31.283,task,2021.1.4,Win32,60.0060006,628b806c463b948bc644b84f,6291ce3eda0c0bbeb55cb6d0,,,,,5,0,5,0,1,"X V Q F H G B L J M P D K C T S W R N Z
",,,,,,,,,,,,,,,,,,,,,,,,,,,,,,,,,,,,,,,,,,,,,,,,,,,,,,,,,,,,,,,,,,,,,,,,,,,,,,,,,,,,,,,,,,,,,
,,,,,,,,,,5e41325ffce14d35e6da5bb6,19,Mężczyzna,2022-05-28_09h27.31.283,task,2021.1.4,Win32,60.0060006,628b806c463b948bc644b84f,6291ce3eda0c0bbeb55cb6d0,,,,,6,0,6,0,1,"X V Q F H G B L J M P D K C T S W R N Z
",,,,,,,,,,,,,,,,,,,,,,,,,,,,,,,,,,,,,,,,,,,,,,,,,,,,,,,,,,,,,,,,,,,,,,,,,,,,,,,,,,,,,,,,,,,,,
,,,,,,,,,,5e41325ffce14d35e6da5bb6,19,Mężczyzna,2022-05-28_09h27.31.283,task,2021.1.4,Win32,60.0060006,628b806c463b948bc644b84f,6291ce3eda0c0bbeb55cb6d0,,,,,,,,,,,rdnkmgm,"[""r"",""d"",""n"",""k"",""m"",""g"",""m""]","[1.5593000000715165,1.7984000000953984,2.342600000023822,2.9983000000715947,3.2232000000476546,3.5331000000238646,3.9587000000476564,4.348600000023907]",1,RDNKMGM,15,0,15,0,1,,,,,,,,,,,,,,,,,,,,,,,,,,,,,,,,,,,,,,,,,,,,,,,,,,,,,,,,,,,,,,,,,,,,,,,,,,,,,,,,,,,
,,,,,,,,,,5e41325ffce14d35e6da5bb6,19,Mężczyzna,2022-05-28_09h27.31.283,task,2021.1.4,Win32,60.0060006,628b806c463b948bc644b84f,6291ce3eda0c0bbeb55cb6d0,,,,,0,0,0,0,1,"X V Q F H G B L J M P D K C T S W R N Z
",,,,,,,,,,,,,,,,,,,,,,,,,,,,,,,,,,,,,,,,,,,,,,,,,,,,,,,,,,,,,,,,,,,,,,,,,,,,,,,,,,,,,,,,,,,,,
,,,,,,,,,,5e41325ffce14d35e6da5bb6,19,Mężczyzna,2022-05-28_09h27.31.283,task,2021.1.4,Win32,60.0060006,628b806c463b948bc644b84f,6291ce3eda0c0bbeb55cb6d0,,,,,1,0,1,0,1,"X V Q F H G B L J M P D K C T S W R N Z
",,,,,,,,,,,,,,,,,,,,,,,,,,,,,,,,,,,,,,,,,,,,,,,,,,,,,,,,,,,,,,,,,,,,,,,,,,,,,,,,,,,,,,,,,,,,,
,,,,,,,,,,5e41325ffce14d35e6da5bb6,19,Mężczyzna,2022-05-28_09h27.31.283,task,2021.1.4,Win32,60.0060006,628b806c463b948bc644b84f,6291ce3eda0c0bbeb55cb6d0,,,,,2,0,2,0,1,"X V Q F H G B L J M P D K C T S W R N Z
",,,,,,,,,,,,,,,,,,,,,,,,,,,,,,,,,,,,,,,,,,,,,,,,,,,,,,,,,,,,,,,,,,,,,,,,,,,,,,,,,,,,,,,,,,,,,
,,,,,,,,,,5e41325ffce14d35e6da5bb6,19,Mężczyzna,2022-05-28_09h27.31.283,task,2021.1.4,Win32,60.0060006,628b806c463b948bc644b84f,6291ce3eda0c0bbeb55cb6d0,,,,,3,0,3,0,1,"X V Q F H G B L J M P D K C T S W R N Z
",,,,,,,,,,,,,,,,,,,,,,,,,,,,,,,,,,,,,,,,,,,,,,,,,,,,,,,,,,,,,,,,,,,,,,,,,,,,,,,,,,,,,,,,,,,,,
,,,,,,,,,,5e41325ffce14d35e6da5bb6,19,Mężczyzna,2022-05-28_09h27.31.283,task,2021.1.4,Win32,60.0060006,628b806c463b948bc644b84f,6291ce3eda0c0bbeb55cb6d0,,,,,4,0,4,0,1,"X V Q F H G B L J M P D K C T S W R N Z
",,,,,,,,,,,,,,,,,,,,,,,,,,,,,,,,,,,,,,,,,,,,,,,,,,,,,,,,,,,,,,,,,,,,,,,,,,,,,,,,,,,,,,,,,,,,,
,,,,,,,,,,5e41325ffce14d35e6da5bb6,19,Mężczyzna,2022-05-28_09h27.31.283,task,2021.1.4,Win32,60.0060006,628b806c463b948bc644b84f,6291ce3eda0c0bbeb55cb6d0,,,,,5,0,5,0,1,"X V Q F H G B L J M P D K C T S W R N Z
",,,,,,,,,,,,,,,,,,,,,,,,,,,,,,,,,,,,,,,,,,,,,,,,,,,,,,,,,,,,,,,,,,,,,,,,,,,,,,,,,,,,,,,,,,,,,
,,,,,,,,,,5e41325ffce14d35e6da5bb6,19,Mężczyzna,2022-05-28_09h27.31.283,task,2021.1.4,Win32,60.0060006,628b806c463b948bc644b84f,6291ce3eda0c0bbeb55cb6d0,,,,,6,0,6,0,1,"X V Q F H G B L J M P D K C T S W R N Z
",,,,,,,,,,,,,,,,,,,,,,,,,,,,,,,,,,,,,,,,,,,,,,,,,,,,,,,,,,,,,,,,,,,,,,,,,,,,,,,,,,,,,,,,,,,,,
,,,,,,,,,,5e41325ffce14d35e6da5bb6,19,Mężczyzna,2022-05-28_09h27.31.283,task,2021.1.4,Win32,60.0060006,628b806c463b948bc644b84f,6291ce3eda0c0bbeb55cb6d0,,,,,7,0,7,0,1,"X V Q F H G B L J M P D K C T S W R N Z
",,,,,,,,,,,,,,,,,,,,,,,,,,,,,,,,,,,,,,,,,,,,,,,,,,,,,,,,,,,,,,,,,,,,,,,,,,,,,,,,,,,,,,,,,,,,,
,,,,,,,,,,5e41325ffce14d35e6da5bb6,19,Mężczyzna,2022-05-28_09h27.31.283,task,2021.1.4,Win32,60.0060006,628b806c463b948bc644b84f,6291ce3eda0c0bbeb55cb6d0,,,,,,,,,,,nvhqpshm,"[""n"",""v"",""h"",""q"",""p"",""s"",""h"",""m""]","[0.9858999999761409,1.3170000000000073,1.5849999999999227,9.92379999995228,10.71049999999991,11.184699999928398,12.342199999928425,12.632499999999936,13.788899999976138]",0,NVHRPSBK,16,0,16,0,1,,,,,,,,,,,,,,,,,,,,,,,,,,,,,,,,,,,,,,,,,,,,,,,,,,,,,,,,,,,,,,,,,,,,,,,,,,,,,,,,,,,
,,,,,,,,,,5e41325ffce14d35e6da5bb6,19,Mężczyzna,2022-05-28_09h27.31.283,task,2021.1.4,Win32,60.0060006,628b806c463b948bc644b84f,6291ce3eda0c0bbeb55cb6d0,,,,,0,0,0,0,1,"X V Q F H G B L J M P D K C T S W R N Z
",,,,,,,,,,,,,,,,,,,,,,,,,,,,,,,,,,,,,,,,,,,,,,,,,,,,,,,,,,,,,,,,,,,,,,,,,,,,,,,,,,,,,,,,,,,,,
,,,,,,,,,,5e41325ffce14d35e6da5bb6,19,Mężczyzna,2022-05-28_09h27.31.283,task,2021.1.4,Win32,60.0060006,628b806c463b948bc644b84f,6291ce3eda0c0bbeb55cb6d0,,,,,1,0,1,0,1,"X V Q F H G B L J M P D K C T S W R N Z
",,,,,,,,,,,,,,,,,,,,,,,,,,,,,,,,,,,,,,,,,,,,,,,,,,,,,,,,,,,,,,,,,,,,,,,,,,,,,,,,,,,,,,,,,,,,,
,,,,,,,,,,5e41325ffce14d35e6da5bb6,19,Mężczyzna,2022-05-28_09h27.31.283,task,2021.1.4,Win32,60.0060006,628b806c463b948bc644b84f,6291ce3eda0c0bbeb55cb6d0,,,,,2,0,2,0,1,"X V Q F H G B L J M P D K C T S W R N Z
",,,,,,,,,,,,,,,,,,,,,,,,,,,,,,,,,,,,,,,,,,,,,,,,,,,,,,,,,,,,,,,,,,,,,,,,,,,,,,,,,,,,,,,,,,,,,
,,,,,,,,,,5e41325ffce14d35e6da5bb6,19,Mężczyzna,2022-05-28_09h27.31.283,task,2021.1.4,Win32,60.0060006,628b806c463b948bc644b84f,6291ce3eda0c0bbeb55cb6d0,,,,,3,0,3,0,1,"X V Q F H G B L J M P D K C T S W R N Z
",,,,,,,,,,,,,,,,,,,,,,,,,,,,,,,,,,,,,,,,,,,,,,,,,,,,,,,,,,,,,,,,,,,,,,,,,,,,,,,,,,,,,,,,,,,,,
,,,,,,,,,,5e41325ffce14d35e6da5bb6,19,Mężczyzna,2022-05-28_09h27.31.283,task,2021.1.4,Win32,60.0060006,628b806c463b948bc644b84f,6291ce3eda0c0bbeb55cb6d0,,,,,4,0,4,0,1,"X V Q F H G B L J M P D K C T S W R N Z
",,,,,,,,,,,,,,,,,,,,,,,,,,,,,,,,,,,,,,,,,,,,,,,,,,,,,,,,,,,,,,,,,,,,,,,,,,,,,,,,,,,,,,,,,,,,,
,,,,,,,,,,5e41325ffce14d35e6da5bb6,19,Mężczyzna,2022-05-28_09h27.31.283,task,2021.1.4,Win32,60.0060006,628b806c463b948bc644b84f,6291ce3eda0c0bbeb55cb6d0,,,,,5,0,5,0,1,"X V Q F H G B L J M P D K C T S W R N Z
",,,,,,,,,,,,,,,,,,,,,,,,,,,,,,,,,,,,,,,,,,,,,,,,,,,,,,,,,,,,,,,,,,,,,,,,,,,,,,,,,,,,,,,,,,,,,
,,,,,,,,,,5e41325ffce14d35e6da5bb6,19,Mężczyzna,2022-05-28_09h27.31.283,task,2021.1.4,Win32,60.0060006,628b806c463b948bc644b84f,6291ce3eda0c0bbeb55cb6d0,,,,,6,0,6,0,1,"X V Q F H G B L J M P D K C T S W R N Z
",,,,,,,,,,,,,,,,,,,,,,,,,,,,,,,,,,,,,,,,,,,,,,,,,,,,,,,,,,,,,,,,,,,,,,,,,,,,,,,,,,,,,,,,,,,,,
,,,,,,,,,,5e41325ffce14d35e6da5bb6,19,Mężczyzna,2022-05-28_09h27.31.283,task,2021.1.4,Win32,60.0060006,628b806c463b948bc644b84f,6291ce3eda0c0bbeb55cb6d0,,,,,7,0,7,0,1,"X V Q F H G B L J M P D K C T S W R N Z
",,,,,,,,,,,,,,,,,,,,,,,,,,,,,,,,,,,,,,,,,,,,,,,,,,,,,,,,,,,,,,,,,,,,,,,,,,,,,,,,,,,,,,,,,,,,,
,,,,,,,,,,5e41325ffce14d35e6da5bb6,19,Mężczyzna,2022-05-28_09h27.31.283,task,2021.1.4,Win32,60.0060006,628b806c463b948bc644b84f,6291ce3eda0c0bbeb55cb6d0,,,,,,,,,,,qkcscmm,"[""q"",""k"",""c"",""s"",""c"",""m"",""m""]","[1.6311999999285263,2.1698999999762236,2.633699999928467,3.306699999928469,3.6716000000238864,6.977500000000077,8.67869999992854,9.819600000023911]",0,QKCSCGGM,17,0,17,0,1,,,,,,,,,,,,,,,,,,,,,,,,,,,,,,,,,,,,,,,,,,,,,,,,,,,,,,,,,,,,,,,,,,,,,,,,,,,,,,,,,,,
,,,,,,,,,,5e41325ffce14d35e6da5bb6,19,Mężczyzna,2022-05-28_09h27.31.283,task,2021.1.4,Win32,60.0060006,628b806c463b948bc644b84f,6291ce3eda0c0bbeb55cb6d0,,,,,0,0,0,0,1,"X V Q F H G B L J M P D K C T S W R N Z
",,,,,,,,,,,,,,,,,,,,,,,,,,,,,,,,,,,,,,,,,,,,,,,,,,,,,,,,,,,,,,,,,,,,,,,,,,,,,,,,,,,,,,,,,,,,,
,,,,,,,,,,5e41325ffce14d35e6da5bb6,19,Mężczyzna,2022-05-28_09h27.31.283,task,2021.1.4,Win32,60.0060006,628b806c463b948bc644b84f,6291ce3eda0c0bbeb55cb6d0,,,,,1,0,1,0,1,"X V Q F H G B L J M P D K C T S W R N Z
",,,,,,,,,,,,,,,,,,,,,,,,,,,,,,,,,,,,,,,,,,,,,,,,,,,,,,,,,,,,,,,,,,,,,,,,,,,,,,,,,,,,,,,,,,,,,
,,,,,,,,,,5e41325ffce14d35e6da5bb6,19,Mężczyzna,2022-05-28_09h27.31.283,task,2021.1.4,Win32,60.0060006,628b806c463b948bc644b84f,6291ce3eda0c0bbeb55cb6d0,,,,,2,0,2,0,1,"X V Q F H G B L J M P D K C T S W R N Z
",,,,,,,,,,,,,,,,,,,,,,,,,,,,,,,,,,,,,,,,,,,,,,,,,,,,,,,,,,,,,,,,,,,,,,,,,,,,,,,,,,,,,,,,,,,,,
,,,,,,,,,,5e41325ffce14d35e6da5bb6,19,Mężczyzna,2022-05-28_09h27.31.283,task,2021.1.4,Win32,60.0060006,628b806c463b948bc644b84f,6291ce3eda0c0bbeb55cb6d0,,,,,3,0,3,0,1,"X V Q F H G B L J M P D K C T S W R N Z
",,,,,,,,,,,,,,,,,,,,,,,,,,,,,,,,,,,,,,,,,,,,,,,,,,,,,,,,,,,,,,,,,,,,,,,,,,,,,,,,,,,,,,,,,,,,,
,,,,,,,,,,5e41325ffce14d35e6da5bb6,19,Mężczyzna,2022-05-28_09h27.31.283,task,2021.1.4,Win32,60.0060006,628b806c463b948bc644b84f,6291ce3eda0c0bbeb55cb6d0,,,,,4,0,4,0,1,"X V Q F H G B L J M P D K C T S W R N Z
",,,,,,,,,,,,,,,,,,,,,,,,,,,,,,,,,,,,,,,,,,,,,,,,,,,,,,,,,,,,,,,,,,,,,,,,,,,,,,,,,,,,,,,,,,,,,
,,,,,,,,,,5e41325ffce14d35e6da5bb6,19,Mężczyzna,2022-05-28_09h27.31.283,task,2021.1.4,Win32,60.0060006,628b806c463b948bc644b84f,6291ce3eda0c0bbeb55cb6d0,,,,,5,0,5,0,1,"X V Q F H G B L J M P D K C T S W R N Z
",,,,,,,,,,,,,,,,,,,,,,,,,,,,,,,,,,,,,,,,,,,,,,,,,,,,,,,,,,,,,,,,,,,,,,,,,,,,,,,,,,,,,,,,,,,,,
,,,,,,,,,,5e41325ffce14d35e6da5bb6,19,Mężczyzna,2022-05-28_09h27.31.283,task,2021.1.4,Win32,60.0060006,628b806c463b948bc644b84f,6291ce3eda0c0bbeb55cb6d0,,,,,6,0,6,0,1,"X V Q F H G B L J M P D K C T S W R N Z
",,,,,,,,,,,,,,,,,,,,,,,,,,,,,,,,,,,,,,,,,,,,,,,,,,,,,,,,,,,,,,,,,,,,,,,,,,,,,,,,,,,,,,,,,,,,,
,,,,,,,,,,5e41325ffce14d35e6da5bb6,19,Mężczyzna,2022-05-28_09h27.31.283,task,2021.1.4,Win32,60.0060006,628b806c463b948bc644b84f,6291ce3eda0c0bbeb55cb6d0,,,,,7,0,7,0,1,"X V Q F H G B L J M P D K C T S W R N Z
",,,,,,,,,,,,,,,,,,,,,,,,,,,,,,,,,,,,,,,,,,,,,,,,,,,,,,,,,,,,,,,,,,,,,,,,,,,,,,,,,,,,,,,,,,,,,
,,,,,,,,,,5e41325ffce14d35e6da5bb6,19,Mężczyzna,2022-05-28_09h27.31.283,task,2021.1.4,Win32,60.0060006,628b806c463b948bc644b84f,6291ce3eda0c0bbeb55cb6d0,,,,,,,,,,,mqjvcb,"[""m"",""q"",""j"",""v"",""c"",""b""]","[1.7444999999999027,2.114100000023768,2.435400000095342,3.0279000000953147,3.4757000000475955,10.2589999999999,11.08530000007147]",0,MQJBCWCP,18,0,18,0,1,,,,,,,,,,,,,,,,,,,,,,,,,,,,,,,,,,,,,,,,,,,,,,,,,,,,,,,,,,,,,,,,,,,,,,,,,,,,,,,,,,,
,,,,,,,,,,5e41325ffce14d35e6da5bb6,19,Mężczyzna,2022-05-28_09h27.31.283,task,2021.1.4,Win32,60.0060006,628b806c463b948bc644b84f,6291ce3eda0c0bbeb55cb6d0,,,,,,,,,,,,,,,,,,,,,space,25.4479,4,"[""4""]",1,[5.81970000004776],[5.81970000004776],0,0,0,4,1,Practice,5,(2x6) - 8,4,,,,,,,,,,,,,,,,,,,,,,,,,,,,,,,,,,,,,,,,,,,,,,,,,,,,,,,,,,,,,,,,,,,
,,,,,,,,,,5e41325ffce14d35e6da5bb6,19,Mężczyzna,2022-05-28_09h27.31.283,task,2021.1.4,Win32,60.0060006,628b806c463b948bc644b84f,6291ce3eda0c0bbeb55cb6d0,,,,,,,,,,,,,,,,,,,,,,,5,"[""5""]",1,[3.4878999999762073],"[5.81970000004776,3.4878999999762073]",0,1,1,5,1,Practice,6,(4/2) + 3,5,,,,,,,,,,,,,,,,,,,,,,,,,,,,,,,,,,,,,,,,,,,,,,,,,,,,,,,,,,,,,,,,,,,
,,,,,,,,,,5e41325ffce14d35e6da5bb6,19,Mężczyzna,2022-05-28_09h27.31.283,task,2021.1.4,Win32,60.0060006,628b806c463b948bc644b84f,6291ce3eda0c0bbeb55cb6d0,,,,,,,,,,,,,,,,,,,,,,,0,"[""0""]",1,[2.5087000000477246],"[5.81970000004776,3.4878999999762073,2.5087000000477246]",0,2,2,0,1,Practice,1,(3x3) -  9,0,,,,,,,,,,,,,,,,,,,,,,,,,,,,,,,,,,,,,,,,,,,,,,,,,,,,,,,,,,,,,,,,,,,
,,,,,,,,,,5e41325ffce14d35e6da5bb6,19,Mężczyzna,2022-05-28_09h27.31.283,task,2021.1.4,Win32,60.0060006,628b806c463b948bc644b84f,6291ce3eda0c0bbeb55cb6d0,,,,,,,,,,,,,,,,,,,,,,,7,"[""7""]",1,[4.232200000047669],"[5.81970000004776,3.4878999999762073,2.5087000000477246,4.232200000047669]",0,3,3,7,1,Practice,8,(5x5) - 18,7,,,,,,,,,,,,,,,,,,,,,,,,,,,,,,,,,,,,,,,,,,,,,,,,,,,,,,,,,,,,,,,,,,,
,,,,,,,,,,5e41325ffce14d35e6da5bb6,19,Mężczyzna,2022-05-28_09h27.31.283,task,2021.1.4,Win32,60.0060006,628b806c463b948bc644b84f,6291ce3eda0c0bbeb55cb6d0,,,,,,,,,,,,,,,,,,,,,,,9,"[""9""]",1,[2.5526999999285636],"[5.81970000004776,3.4878999999762073,2.5087000000477246,4.232200000047669,2.5526999999285636]",0,4,4,9,1,Practice,10,(20/2) - 1,9,,,,,,,,,,,,,,,,,,,,,,,,,,,,,,,,,,,,,,,,,,,,,,,,,,,,,,,,,,,,,,,,,,,
,,,,,,,,,,5e41325ffce14d35e6da5bb6,19,Mężczyzna,2022-05-28_09h27.31.283,task,2021.1.4,Win32,60.0060006,628b806c463b948bc644b84f,6291ce3eda0c0bbeb55cb6d0,,,,,,,,,,,,,,,,,,,,,,,8,"[""8""]",1,[1.7688999999761563],"[5.81970000004776,3.4878999999762073,2.5087000000477246,4.232200000047669,2.5526999999285636,1.7688999999761563]",0,5,5,8,1,Practice,9,(3x3) - 1,8,,,,,,,,,,,,,,,,,,,,,,,,,,,,,,,,,,,,,,,,,,,,,,,,,,,,,,,,,,,,,,,,,,,
,,,,,,,,,,5e41325ffce14d35e6da5bb6,19,Mężczyzna,2022-05-28_09h27.31.283,task,2021.1.4,Win32,60.0060006,628b806c463b948bc644b84f,6291ce3eda0c0bbeb55cb6d0,,,,,,,,,,,,,,,,,,,,,,,3,"[""3""]",1,[3.699099999904547],"[5.81970000004776,3.4878999999762073,2.5087000000477246,4.232200000047669,2.5526999999285636,1.7688999999761563,3.699099999904547]",0,6,6,3,1,Practice,4,(8/4) + 1,3,,,,,,,,,,,,,,,,,,,,,,,,,,,,,,,,,,,,,,,,,,,,,,,,,,,,,,,,,,,,,,,,,,,
,,,,,,,,,,5e41325ffce14d35e6da5bb6,19,Mężczyzna,2022-05-28_09h27.31.283,task,2021.1.4,Win32,60.0060006,628b806c463b948bc644b84f,6291ce3eda0c0bbeb55cb6d0,,,,,,,,,,,,,,,,,,,,,,,1,"[""1""]",1,[2.374899999976151],"[5.81970000004776,3.4878999999762073,2.5087000000477246,4.232200000047669,2.5526999999285636,1.7688999999761563,3.699099999904547,2.374899999976151]",0,7,7,1,1,Practice,2,(4x4) - 15,1,,,,,,,,,,,,,,,,,,,,,,,,,,,,,,,,,,,,,,,,,,,,,,,,,,,,,,,,,,,,,,,,,,,
,,,,,,,,,,5e41325ffce14d35e6da5bb6,19,Mężczyzna,2022-05-28_09h27.31.283,task,2021.1.4,Win32,60.0060006,628b806c463b948bc644b84f,6291ce3eda0c0bbeb55cb6d0,,,,,,,,,,,,,,,,,,,,,,,6,"[""6""]",1,[10.079699999928494],"[5.81970000004776,3.4878999999762073,2.5087000000477246,4.232200000047669,2.5526999999285636,1.7688999999761563,3.699099999904547,2.374899999976151,10.079699999928494]",0,8,8,6,1,Practice,7,(25/5) + 1,6,,,,,,,,,,,,,,,,,,,,,,,,,,,,,,,,,,,,,,,,,,,,,,,,,,,,,,,,,,,,,,,,,,,
,,,,,,,,,,5e41325ffce14d35e6da5bb6,19,Mężczyzna,2022-05-28_09h27.31.283,task,2021.1.4,Win32,60.0060006,628b806c463b948bc644b84f,6291ce3eda0c0bbeb55cb6d0,,,,,,,,,,,,,,,,,,,,,,,2,"[""2""]",1,[2.2270999999046808],"[5.81970000004776,3.4878999999762073,2.5087000000477246,4.232200000047669,2.5526999999285636,1.7688999999761563,3.699099999904547,2.374899999976151,10.079699999928494,2.2270999999046808]",0,9,9,2,1,Practice,3,(4x4) - 14,2,,,,,,,,,,,,,,,,,,,,,,,,,,,,,,,,,,,,,,,,,,,,,,,,,,,,,,,,,,,,,,,,,,,
,,,,,,,,,,5e41325ffce14d35e6da5bb6,19,Mężczyzna,2022-05-28_09h27.31.283,task,2021.1.4,Win32,60.0060006,628b806c463b948bc644b84f,6291ce3eda0c0bbeb55cb6d0,,,,,,,,,,,,,,,,,,,,,,,,,,,,,,,,,,,,,1,38.7509,2.583393333,72.29012656,2.195299927,8.247267145,space,2.3245,0,0,0,0,1,,,,,,,,,,,,,,,,,,,,,,,,,,,,,,,,,,,,,,,,,,,,,,,,,,,,,,
,,,,,,,,,,5e41325ffce14d35e6da5bb6,19,Mężczyzna,2022-05-28_09h27.31.283,task,2021.1.4,Win32,60.0060006,628b806c463b948bc644b84f,6291ce3eda0c0bbeb55cb6d0,,,,,,,,,,,,,,,,,,,,,,,7,,,,,,,,,,Practice,8,(5x5) - 18,7,,,,,,,,,,,,,,space,15.5332,"[""7""]",1,[3.1462999999523618],1,0,0,0,7,1,,,,,,,,,,,,,,,,,,,,,,,,,,,,,,,,,,,,,,,,,,,
,,,,,,,,,,5e41325ffce14d35e6da5bb6,19,Mężczyzna,2022-05-28_09h27.31.283,task,2021.1.4,Win32,60.0060006,628b806c463b948bc644b84f,6291ce3eda0c0bbeb55cb6d0,,,,,,,,,,"X V Q F H G B L J M P D K C T S W R N Z
",,,,,,,,,,,,,,,,,,,,,,,,,,,,,,,,,,,,,,,,,,,,,,,,,,,0,0,0,0,1,,,,,,,,,,,,,,,,,,,,,,,,,,,,,,,,,,,,,,
,,,,,,,,,,5e41325ffce14d35e6da5bb6,19,Mężczyzna,2022-05-28_09h27.31.283,task,2021.1.4,Win32,60.0060006,628b806c463b948bc644b84f,6291ce3eda0c0bbeb55cb6d0,,,,,,,,,,,,,,,,,,,,,,,8,,,,,,,,,,Practice,9,(3x3) - 1,8,,,,,,,,,,,,,,,,"[""8""]",1,[4.2608000000715265],1,0,0,0,8,1,,,,,,,,,,,,,,,,,,,,,,,,,,,,,,,,,,,,,,,,,,,
,,,,,,,,,,5e41325ffce14d35e6da5bb6,19,Mężczyzna,2022-05-28_09h27.31.283,task,2021.1.4,Win32,60.0060006,628b806c463b948bc644b84f,6291ce3eda0c0bbeb55cb6d0,,,,,,,,,,"X V Q F H G B L J M P D K C T S W R N Z
",,,,,,,,,,,,,,,,,,,,,,,,,,,,,,,,,,,,,,,,,,,,,,,,,,,1,0,1,0,1,,,,,,,,,,,,,,,,,,,,,,,,,,,,,,,,,,,,,,
,,,,,,,,,,5e41325ffce14d35e6da5bb6,19,Mężczyzna,2022-05-28_09h27.31.283,task,2021.1.4,Win32,60.0060006,628b806c463b948bc644b84f,6291ce3eda0c0bbeb55cb6d0,,,,,,,,,,,,,,,,,,,,,,,,,,,,,,,,,,,,,,,,,,,,,,,,,,,,,,,,,,,,,,,,,,zv,"[""z"",""v""]",0,"[2.2356000000237373,2.802799999952299,4.7654999999999745]",1,0,0,0,0,1,,,,,,,,,,,,,,,,,,,,,,,,,,,,
,,,,,,,,,,5e41325ffce14d35e6da5bb6,19,Mężczyzna,2022-05-28_09h27.31.283,task,2021.1.4,Win32,60.0060006,628b806c463b948bc644b84f,6291ce3eda0c0bbeb55cb6d0,,,,,,,,,,,,,,,,,,,,,,,9,,,,,,,,,,Practice,10,(20/2) - 1,9,,,,,,,,,,,,,,,,"[""9""]",1,[2.427899999976148],1,0,0,0,9,1,,,,,,,,,,,,,,,,,,,,,,,,,,,,,,,,,,,,,,,,,,,
,,,,,,,,,,5e41325ffce14d35e6da5bb6,19,Mężczyzna,2022-05-28_09h27.31.283,task,2021.1.4,Win32,60.0060006,628b806c463b948bc644b84f,6291ce3eda0c0bbeb55cb6d0,,,,,,,,,,"X V Q F H G B L J M P D K C T S W R N Z
",,,,,,,,,,,,,,,,,,,,,,,,,,,,,,,,,,,,,,,,,,,,,,,,,,,0,0,0,0,1,,,,,,,,,,,,,,,,,,,,,,,,,,,,,,,,,,,,,,
,,,,,,,,,,5e41325ffce14d35e6da5bb6,19,Mężczyzna,2022-05-28_09h27.31.283,task,2021.1.4,Win32,60.0060006,628b806c463b948bc644b84f,6291ce3eda0c0bbeb55cb6d0,,,,,,,,,,,,,,,,,,,,,,,9,,,,,,,,,,Practice,10,(20/2) - 1,9,,,,,,,,,,,,,,,,"[""9""]",1,[2.702699999928427],1,0,0,0,9,1,,,,,,,,,,,,,,,,,,,,,,,,,,,,,,,,,,,,,,,,,,,
,,,,,,,,,,5e41325ffce14d35e6da5bb6,19,Mężczyzna,2022-05-28_09h27.31.283,task,2021.1.4,Win32,60.0060006,628b806c463b948bc644b84f,6291ce3eda0c0bbeb55cb6d0,,,,,,,,,,"X V Q F H G B L J M P D K C T S W R N Z
",,,,,,,,,,,,,,,,,,,,,,,,,,,,,,,,,,,,,,,,,,,,,,,,,,,1,0,1,0,1,,,,,,,,,,,,,,,,,,,,,,,,,,,,,,,,,,,,,,
,,,,,,,,,,5e41325ffce14d35e6da5bb6,19,Mężczyzna,2022-05-28_09h27.31.283,task,2021.1.4,Win32,60.0060006,628b806c463b948bc644b84f,6291ce3eda0c0bbeb55cb6d0,,,,,,,,,,,,,,,,,,,,,,,,,,,,,,,,,,,,,,,,,,,,,,,,,,,,,,,,,,,,,,,,,,qc,"[""q"",""c""]",0,"[2.2073999999761327,2.645999999999958,3.3418999999761354]",1,1,0,1,0,1,,,,,,,,,,,,,,,,,,,,,,,,,,,,
,,,,,,,,,,5e41325ffce14d35e6da5bb6,19,Mężczyzna,2022-05-28_09h27.31.283,task,2021.1.4,Win32,60.0060006,628b806c463b948bc644b84f,6291ce3eda0c0bbeb55cb6d0,,,,,,,,,,,,,,,,,,,,,,,8,,,,,,,,,,Practice,9,(3x3) - 1,8,,,,,,,,,,,,,,,,"[""8""]",1,[2.721899999976131],1,0,0,0,8,1,,,,,,,,,,,,,,,,,,,,,,,,,,,,,,,,,,,,,,,,,,,
,,,,,,,,,,5e41325ffce14d35e6da5bb6,19,Mężczyzna,2022-05-28_09h27.31.283,task,2021.1.4,Win32,60.0060006,628b806c463b948bc644b84f,6291ce3eda0c0bbeb55cb6d0,,,,,,,,,,"X V Q F H G B L J M P D K C T S W R N Z
",,,,,,,,,,,,,,,,,,,,,,,,,,,,,,,,,,,,,,,,,,,,,,,,,,,0,0,0,0,1,,,,,,,,,,,,,,,,,,,,,,,,,,,,,,,,,,,,,,
,,,,,,,,,,5e41325ffce14d35e6da5bb6,19,Mężczyzna,2022-05-28_09h27.31.283,task,2021.1.4,Win32,60.0060006,628b806c463b948bc644b84f,6291ce3eda0c0bbeb55cb6d0,,,,,,,,,,,,,,,,,,,,,,,0,,,,,,,,,,Practice,1,(3x3) -  9,0,,,,,,,,,,,,,,,,"[""0""]",1,[1.8226999999285454],1,0,0,0,0,1,,,,,,,,,,,,,,,,,,,,,,,,,,,,,,,,,,,,,,,,,,,
,,,,,,,,,,5e41325ffce14d35e6da5bb6,19,Mężczyzna,2022-05-28_09h27.31.283,task,2021.1.4,Win32,60.0060006,628b806c463b948bc644b84f,6291ce3eda0c0bbeb55cb6d0,,,,,,,,,,"X V Q F H G B L J M P D K C T S W R N Z
",,,,,,,,,,,,,,,,,,,,,,,,,,,,,,,,,,,,,,,,,,,,,,,,,,,1,0,1,0,1,,,,,,,,,,,,,,,,,,,,,,,,,,,,,,,,,,,,,,
,,,,,,,,,,5e41325ffce14d35e6da5bb6,19,Mężczyzna,2022-05-28_09h27.31.283,task,2021.1.4,Win32,60.0060006,628b806c463b948bc644b84f,6291ce3eda0c0bbeb55cb6d0,,,,,,,,,,,,,,,,,,,,,,,,,,,,,,,,,,,,,,,,,,,,,,,,,,,,,,,,,,,,,,,,,,tz,"[""t"",""z""]",0,"[1.7446000000238655,2.1118000000715256,4.422600000023863]",0,2,0,2,0,1,,,,,,,,,,,,,,,,,,,,,,,,,,,,
,,,,,,,,,,5e41325ffce14d35e6da5bb6,19,Mężczyzna,2022-05-28_09h27.31.283,task,2021.1.4,Win32,60.0060006,628b806c463b948bc644b84f,6291ce3eda0c0bbeb55cb6d0,,,,,,,,,,,,,,,,,,,,,,,1,,,,,,,,,,Practice,2,(4x4) - 15,1,,,,,,,,,,,,,,,,"[""1""]",1,[3.793400000095289],1,0,0,0,1,1,,,,,,,,,,,,,,,,,,,,,,,,,,,,,,,,,,,,,,,,,,,
,,,,,,,,,,5e41325ffce14d35e6da5bb6,19,Mężczyzna,2022-05-28_09h27.31.283,task,2021.1.4,Win32,60.0060006,628b806c463b948bc644b84f,6291ce3eda0c0bbeb55cb6d0,,,,,,,,,,"X V Q F H G B L J M P D K C T S W R N Z
",,,,,,,,,,,,,,,,,,,,,,,,,,,,,,,,,,,,,,,,,,,,,,,,,,,0,0,0,0,1,,,,,,,,,,,,,,,,,,,,,,,,,,,,,,,,,,,,,,
,,,,,,,,,,5e41325ffce14d35e6da5bb6,19,Mężczyzna,2022-05-28_09h27.31.283,task,2021.1.4,Win32,60.0060006,628b806c463b948bc644b84f,6291ce3eda0c0bbeb55cb6d0,,,,,,,,,,,,,,,,,,,,,,,6,,,,,,,,,,Practice,7,(25/5) + 1,6,,,,,,,,,,,,,,,,"[""6""]",1,[5.064399999976104],1,0,0,0,6,1,,,,,,,,,,,,,,,,,,,,,,,,,,,,,,,,,,,,,,,,,,,
,,,,,,,,,,5e41325ffce14d35e6da5bb6,19,Mężczyzna,2022-05-28_09h27.31.283,task,2021.1.4,Win32,60.0060006,628b806c463b948bc644b84f,6291ce3eda0c0bbeb55cb6d0,,,,,,,,,,"X V Q F H G B L J M P D K C T S W R N Z
",,,,,,,,,,,,,,,,,,,,,,,,,,,,,,,,,,,,,,,,,,,,,,,,,,,1,0,1,0,1,,,,,,,,,,,,,,,,,,,,,,,,,,,,,,,,,,,,,,
,,,,,,,,,,5e41325ffce14d35e6da5bb6,19,Mężczyzna,2022-05-28_09h27.31.283,task,2021.1.4,Win32,60.0060006,628b806c463b948bc644b84f,6291ce3eda0c0bbeb55cb6d0,,,,,,,,,,,,,,,,,,,,,,,,,,,,,,,,,,,,,,,,,,,,,,,,,,,,,,,,,,,,,,,,,,ww,"[""w"",""w""]",0,"[1.6133999999761954,1.7933999999761454,2.61259999990466]",1,3,0,3,0,1,,,,,,,,,,,,,,,,,,,,,,,,,,,,
,,,,,,,,,,5e41325ffce14d35e6da5bb6,19,Mężczyzna,2022-05-28_09h27.31.283,task,2021.1.4,Win32,60.0060006,628b806c463b948bc644b84f,6291ce3eda0c0bbeb55cb6d0,,,,,,,,,,,,,,,,,,,,,,,6,,,,,,,,,,Practice,7,(25/5) + 1,6,,,,,,,,,,,,,,,,"[""6""]",1,[2.2598999999761418],1,0,0,0,6,1,,,,,,,,,,,,,,,,,,,,,,,,,,,,,,,,,,,,,,,,,,,
,,,,,,,,,,5e41325ffce14d35e6da5bb6,19,Mężczyzna,2022-05-28_09h27.31.283,task,2021.1.4,Win32,60.0060006,628b806c463b948bc644b84f,6291ce3eda0c0bbeb55cb6d0,,,,,,,,,,"X V Q F H G B L J M P D K C T S W R N Z
",,,,,,,,,,,,,,,,,,,,,,,,,,,,,,,,,,,,,,,,,,,,,,,,,,,0,0,0,0,1,,,,,,,,,,,,,,,,,,,,,,,,,,,,,,,,,,,,,,
,,,,,,,,,,5e41325ffce14d35e6da5bb6,19,Mężczyzna,2022-05-28_09h27.31.283,task,2021.1.4,Win32,60.0060006,628b806c463b948bc644b84f,6291ce3eda0c0bbeb55cb6d0,,,,,,,,,,,,,,,,,,,,,,,3,,,,,,,,,,Practice,4,(8/4) + 1,3,,,,,,,,,,,,,,,,"[""3""]",1,[1.919999999999959],1,0,0,0,3,1,,,,,,,,,,,,,,,,,,,,,,,,,,,,,,,,,,,,,,,,,,,
,,,,,,,,,,5e41325ffce14d35e6da5bb6,19,Mężczyzna,2022-05-28_09h27.31.283,task,2021.1.4,Win32,60.0060006,628b806c463b948bc644b84f,6291ce3eda0c0bbeb55cb6d0,,,,,,,,,,"X V Q F H G B L J M P D K C T S W R N Z
",,,,,,,,,,,,,,,,,,,,,,,,,,,,,,,,,,,,,,,,,,,,,,,,,,,1,0,1,0,1,,,,,,,,,,,,,,,,,,,,,,,,,,,,,,,,,,,,,,
,,,,,,,,,,5e41325ffce14d35e6da5bb6,19,Mężczyzna,2022-05-28_09h27.31.283,task,2021.1.4,Win32,60.0060006,628b806c463b948bc644b84f,6291ce3eda0c0bbeb55cb6d0,,,,,,,,,,,,,,,,,,,,,,,,,,,,,,,,,,,,,,,,,,,,,,,,,,,,,,,,,,,,,,,,,,dc,"[""d"",""c""]",0,"[1.67739999997616,1.9162000000476382,2.6464999999999463]",1,4,0,4,0,1,,,,,,,,,,,,,,,,,,,,,,,,,,,,
,,,,,,,,,,5e41325ffce14d35e6da5bb6,19,Mężczyzna,2022-05-28_09h27.31.283,task,2021.1.4,Win32,60.0060006,628b806c463b948bc644b84f,6291ce3eda0c0bbeb55cb6d0,,,,,,,,,,,,,,,,,,,,,,,1,,,,,,,,,,Practice,2,(4x4) - 15,1,,,,,,,,,,,,,,,,"[""1""]",1,[2.2503999999762527],1,0,0,0,1,1,,,,,,,,,,,,,,,,,,,,,,,,,,,,,,,,,,,,,,,,,,,
,,,,,,,,,,5e41325ffce14d35e6da5bb6,19,Mężczyzna,2022-05-28_09h27.31.283,task,2021.1.4,Win32,60.0060006,628b806c463b948bc644b84f,6291ce3eda0c0bbeb55cb6d0,,,,,,,,,,"X V Q F H G B L J M P D K C T S W R N Z
",,,,,,,,,,,,,,,,,,,,,,,,,,,,,,,,,,,,,,,,,,,,,,,,,,,0,0,0,0,1,,,,,,,,,,,,,,,,,,,,,,,,,,,,,,,,,,,,,,
,,,,,,,,,,5e41325ffce14d35e6da5bb6,19,Mężczyzna,2022-05-28_09h27.31.283,task,2021.1.4,Win32,60.0060006,628b806c463b948bc644b84f,6291ce3eda0c0bbeb55cb6d0,,,,,,,,,,,,,,,,,,,,,,,7,,,,,,,,,,Practice,8,(5x5) - 18,7,,,,,,,,,,,,,,,,"[""7""]",1,[5.7521000000239155],1,0,0,0,7,1,,,,,,,,,,,,,,,,,,,,,,,,,,,,,,,,,,,,,,,,,,,
,,,,,,,,,,5e41325ffce14d35e6da5bb6,19,Mężczyzna,2022-05-28_09h27.31.283,task,2021.1.4,Win32,60.0060006,628b806c463b948bc644b84f,6291ce3eda0c0bbeb55cb6d0,,,,,,,,,,"X V Q F H G B L J M P D K C T S W R N Z
",,,,,,,,,,,,,,,,,,,,,,,,,,,,,,,,,,,,,,,,,,,,,,,,,,,1,0,1,0,1,,,,,,,,,,,,,,,,,,,,,,,,,,,,,,,,,,,,,,
,,,,,,,,,,5e41325ffce14d35e6da5bb6,19,Mężczyzna,2022-05-28_09h27.31.283,task,2021.1.4,Win32,60.0060006,628b806c463b948bc644b84f,6291ce3eda0c0bbeb55cb6d0,,,,,,,,,,,,,,,,,,,,,,,,,,,,,,,,,,,,,,,,,,,,,,,,,,,,,,,,,,,,,,,,,,rs,"[""r"",""s""]",0,"[1.7566000000238091,2.096200000047588,2.8726000000237946]",1,5,0,5,0,1,,,,,,,,,,,,,,,,,,,,,,,,,,,,
,,,,,,,,,,5e41325ffce14d35e6da5bb6,19,Mężczyzna,2022-05-28_09h27.31.283,task,2021.1.4,Win32,60.0060006,628b806c463b948bc644b84f,6291ce3eda0c0bbeb55cb6d0,,,,,,,,,,,,,,,,,,,,,,,4,,,,,,,,,,Task,28,(2x5) - 6,4,,,,,,,,,,,,,,,,,,,1,,,,,,,,,,,,,,,,,,,,,space,16.4538,"[""4""]",1,[2.5138000000714555],0,0,0,27,1,,,,,,,,,,,,,,,,,,
,,,,,,,,,,5e41325ffce14d35e6da5bb6,19,Mężczyzna,2022-05-28_09h27.31.283,task,2021.1.4,Win32,60.0060006,628b806c463b948bc644b84f,6291ce3eda0c0bbeb55cb6d0,,,,,,,,,,"X V Q F H G B L J M P D K C T S W R N Z
",,,,,,,,,,,,,,,,,,,,,,,,,,,,,,,,,,,,,,,,,,,,,,,,,,,,,,,,,,,,,,,,,,,,,,,,,,,,0,0,0,0,1,,,,,,,,,,,,,
,,,,,,,,,,5e41325ffce14d35e6da5bb6,19,Mężczyzna,2022-05-28_09h27.31.283,task,2021.1.4,Win32,60.0060006,628b806c463b948bc644b84f,6291ce3eda0c0bbeb55cb6d0,,,,,,,,,,,,,,,,,,,,,,,7,,,,,,,,,,Task,14,(2x2) + 3,7,,,,,,,,,,,,,,,,,,,1,,,,,,,,,,,,,,,,,,,,,,,"[""7""]",1,[3.7760000000000673],0,0,0,13,1,,,,,,,,,,,,,,,,,,
,,,,,,,,,,5e41325ffce14d35e6da5bb6,19,Mężczyzna,2022-05-28_09h27.31.283,task,2021.1.4,Win32,60.0060006,628b806c463b948bc644b84f,6291ce3eda0c0bbeb55cb6d0,,,,,,,,,,"X V Q F H G B L J M P D K C T S W R N Z
",,,,,,,,,,,,,,,,,,,,,,,,,,,,,,,,,,,,,,,,,,,,,,,,,,,,,,,,,,,,,,,,,,,,,,,,,,,,1,0,1,0,1,,,,,,,,,,,,,
,,,,,,,,,,5e41325ffce14d35e6da5bb6,19,Mężczyzna,2022-05-28_09h27.31.283,task,2021.1.4,Win32,60.0060006,628b806c463b948bc644b84f,6291ce3eda0c0bbeb55cb6d0,,,,,,,,,,,,,,,,,,,,,,,,,,,,,,,,,,,,,,,,,,,,,,,,,,,,,,,,,,,,,,,,,,,,,,,,,,,,,,,,,,,,,,,,,,,zd,"[""z"",""d""]",0,"[1.8712999999522708,2.2185999999045407,2.9853999999761527]",1,ZD,0,0,0,0,1,,
,,,,,,,,,,5e41325ffce14d35e6da5bb6,19,Mężczyzna,2022-05-28_09h27.31.283,task,2021.1.4,Win32,60.0060006,628b806c463b948bc644b84f,6291ce3eda0c0bbeb55cb6d0,,,,,,,,,,,,,,,,,,,,,,,9,,,,,,,,,,Task,16,(3x8) - 15,9,,,,,,,,,,,,,,,,,,,1,,,,,,,,,,,,,,,,,,,,,,,"[""9""]",1,[6.786799999952336],0,0,0,15,1,,,,,,,,,,,,,,,,,,
,,,,,,,,,,5e41325ffce14d35e6da5bb6,19,Mężczyzna,2022-05-28_09h27.31.283,task,2021.1.4,Win32,60.0060006,628b806c463b948bc644b84f,6291ce3eda0c0bbeb55cb6d0,,,,,,,,,,"X V Q F H G B L J M P D K C T S W R N Z
",,,,,,,,,,,,,,,,,,,,,,,,,,,,,,,,,,,,,,,,,,,,,,,,,,,,,,,,,,,,,,,,,,,,,,,,,,,,0,0,0,0,1,,,,,,,,,,,,,
,,,,,,,,,,5e41325ffce14d35e6da5bb6,19,Mężczyzna,2022-05-28_09h27.31.283,task,2021.1.4,Win32,60.0060006,628b806c463b948bc644b84f,6291ce3eda0c0bbeb55cb6d0,,,,,,,,,,,,,,,,,,,,,,,2,,,,,,,,,,Task,19,(6/2) - 1,2,,,,,,,,,,,,,,,,,,,1,,,,,,,,,,,,,,,,,,,,,,,"[""2""]",1,[2.378799999952321],0,0,0,18,1,,,,,,,,,,,,,,,,,,
,,,,,,,,,,5e41325ffce14d35e6da5bb6,19,Mężczyzna,2022-05-28_09h27.31.283,task,2021.1.4,Win32,60.0060006,628b806c463b948bc644b84f,6291ce3eda0c0bbeb55cb6d0,,,,,,,,,,"X V Q F H G B L J M P D K C T S W R N Z
",,,,,,,,,,,,,,,,,,,,,,,,,,,,,,,,,,,,,,,,,,,,,,,,,,,,,,,,,,,,,,,,,,,,,,,,,,,,1,0,1,0,1,,,,,,,,,,,,,
,,,,,,,,,,5e41325ffce14d35e6da5bb6,19,Mężczyzna,2022-05-28_09h27.31.283,task,2021.1.4,Win32,60.0060006,628b806c463b948bc644b84f,6291ce3eda0c0bbeb55cb6d0,,,,,,,,,,,,,,,,,,,,,,,4,,,,,,,,,,Task,28,(2x5) - 6,4,,,,,,,,,,,,,,,,,,,1,,,,,,,,,,,,,,,,,,,,,,,"[""4""]",1,[2.219899999976178],0,0,0,27,1,,,,,,,,,,,,,,,,,,
,,,,,,,,,,5e41325ffce14d35e6da5bb6,19,Mężczyzna,2022-05-28_09h27.31.283,task,2021.1.4,Win32,60.0060006,628b806c463b948bc644b84f,6291ce3eda0c0bbeb55cb6d0,,,,,,,,,,"X V Q F H G B L J M P D K C T S W R N Z
",,,,,,,,,,,,,,,,,,,,,,,,,,,,,,,,,,,,,,,,,,,,,,,,,,,,,,,,,,,,,,,,,,,,,,,,,,,,2,0,2,0,1,,,,,,,,,,,,,
,,,,,,,,,,5e41325ffce14d35e6da5bb6,19,Mężczyzna,2022-05-28_09h27.31.283,task,2021.1.4,Win32,60.0060006,628b806c463b948bc644b84f,6291ce3eda0c0bbeb55cb6d0,,,,,,,,,,,,,,,,,,,,,,,,,,,,,,,,,,,,,,,,,,,,,,,,,,,,,,,,,,,,,,,,,,,,,,,,,,,,,,,,,,,,,,,,,,,pbq,"[""p"",""b"",""q""]",0,"[1.5568999999761672,1.9548000000716002,2.3848999999761418,3.535399999976221]",1,PBQ,1,0,1,0,1,,
,,,,,,,,,,5e41325ffce14d35e6da5bb6,19,Mężczyzna,2022-05-28_09h27.31.283,task,2021.1.4,Win32,60.0060006,628b806c463b948bc644b84f,6291ce3eda0c0bbeb55cb6d0,,,,,,,,,,,,,,,,,,,,,,,0,,,,,,,,,,Task,8,(1x5) - 5,0,,,,,,,,,,,,,,,,,,,1,,,,,,,,,,,,,,,,,,,,,,,"[""0""]",1,[2.1538999999761472],0,0,0,7,1,,,,,,,,,,,,,,,,,,
,,,,,,,,,,5e41325ffce14d35e6da5bb6,19,Mężczyzna,2022-05-28_09h27.31.283,task,2021.1.4,Win32,60.0060006,628b806c463b948bc644b84f,6291ce3eda0c0bbeb55cb6d0,,,,,,,,,,"X V Q F H G B L J M P D K C T S W R N Z
",,,,,,,,,,,,,,,,,,,,,,,,,,,,,,,,,,,,,,,,,,,,,,,,,,,,,,,,,,,,,,,,,,,,,,,,,,,,0,0,0,0,1,,,,,,,,,,,,,
,,,,,,,,,,5e41325ffce14d35e6da5bb6,19,Mężczyzna,2022-05-28_09h27.31.283,task,2021.1.4,Win32,60.0060006,628b806c463b948bc644b84f,6291ce3eda0c0bbeb55cb6d0,,,,,,,,,,,,,,,,,,,,,,,3,,,,,,,,,,Task,20,(18/9) + 1,3,,,,,,,,,,,,,,,,,,,1,,,,,,,,,,,,,,,,,,,,,,,"[""3""]",1,[2.507899999976189],0,0,0,19,1,,,,,,,,,,,,,,,,,,
,,,,,,,,,,5e41325ffce14d35e6da5bb6,19,Mężczyzna,2022-05-28_09h27.31.283,task,2021.1.4,Win32,60.0060006,628b806c463b948bc644b84f,6291ce3eda0c0bbeb55cb6d0,,,,,,,,,,"X V Q F H G B L J M P D K C T S W R N Z
",,,,,,,,,,,,,,,,,,,,,,,,,,,,,,,,,,,,,,,,,,,,,,,,,,,,,,,,,,,,,,,,,,,,,,,,,,,,1,0,1,0,1,,,,,,,,,,,,,
,,,,,,,,,,5e41325ffce14d35e6da5bb6,19,Mężczyzna,2022-05-28_09h27.31.283,task,2021.1.4,Win32,60.0060006,628b806c463b948bc644b84f,6291ce3eda0c0bbeb55cb6d0,,,,,,,,,,,,,,,,,,,,,,,8,,,,,,,,,,Task,23,(2x3) + 2,8,,,,,,,,,,,,,,,,,,,1,,,,,,,,,,,,,,,,,,,,,,,"[""8""]",1,[2.9133000000714446],0,0,0,22,1,,,,,,,,,,,,,,,,,,
,,,,,,,,,,5e41325ffce14d35e6da5bb6,19,Mężczyzna,2022-05-28_09h27.31.283,task,2021.1.4,Win32,60.0060006,628b806c463b948bc644b84f,6291ce3eda0c0bbeb55cb6d0,,,,,,,,,,"X V Q F H G B L J M P D K C T S W R N Z
",,,,,,,,,,,,,,,,,,,,,,,,,,,,,,,,,,,,,,,,,,,,,,,,,,,,,,,,,,,,,,,,,,,,,,,,,,,,2,0,2,0,1,,,,,,,,,,,,,
,,,,,,,,,,5e41325ffce14d35e6da5bb6,19,Mężczyzna,2022-05-28_09h27.31.283,task,2021.1.4,Win32,60.0060006,628b806c463b948bc644b84f,6291ce3eda0c0bbeb55cb6d0,,,,,,,,,,,,,,,,,,,,,,,6,,,,,,,,,,Task,37,(3/3) + 5,6,,,,,,,,,,,,,,,,,,,1,,,,,,,,,,,,,,,,,,,,,,,"[""6""]",1,[4.6299999999999955],0,0,0,36,1,,,,,,,,,,,,,,,,,,
,,,,,,,,,,5e41325ffce14d35e6da5bb6,19,Mężczyzna,2022-05-28_09h27.31.283,task,2021.1.4,Win32,60.0060006,628b806c463b948bc644b84f,6291ce3eda0c0bbeb55cb6d0,,,,,,,,,,"X V Q F H G B L J M P D K C T S W R N Z
",,,,,,,,,,,,,,,,,,,,,,,,,,,,,,,,,,,,,,,,,,,,,,,,,,,,,,,,,,,,,,,,,,,,,,,,,,,,3,0,3,0,1,,,,,,,,,,,,,
,,,,,,,,,,5e41325ffce14d35e6da5bb6,19,Mężczyzna,2022-05-28_09h27.31.283,task,2021.1.4,Win32,60.0060006,628b806c463b948bc644b84f,6291ce3eda0c0bbeb55cb6d0,,,,,,,,,,,,,,,,,,,,,,,,,,,,,,,,,,,,,,,,,,,,,,,,,,,,,,,,,,,,,,,,,,,,,,,,,,,,,,,,,,,,,,,,,,,hqnz,"[""h"",""q"",""n"",""z""]",0,"[1.9325000000000045,2.428400000095394,2.99350000000004,3.4287000000476837,4.400500000000079]",0,"HQNZ
",2,0,2,0,1,,
,,,,,,,,,,5e41325ffce14d35e6da5bb6,19,Mężczyzna,2022-05-28_09h27.31.283,task,2021.1.4,Win32,60.0060006,628b806c463b948bc644b84f,6291ce3eda0c0bbeb55cb6d0,,,,,,,,,,,,,,,,,,,,,,,7,,,,,,,,,,Task,38,(4x6) - 17,7,,,,,,,,,,,,,,,,,,,1,,,,,,,,,,,,,,,,,,,,,,,"[""7""]",1,[5.561299999952325],0,0,0,37,1,,,,,,,,,,,,,,,,,,
,,,,,,,,,,5e41325ffce14d35e6da5bb6,19,Mężczyzna,2022-05-28_09h27.31.283,task,2021.1.4,Win32,60.0060006,628b806c463b948bc644b84f,6291ce3eda0c0bbeb55cb6d0,,,,,,,,,,"X V Q F H G B L J M P D K C T S W R N Z
",,,,,,,,,,,,,,,,,,,,,,,,,,,,,,,,,,,,,,,,,,,,,,,,,,,,,,,,,,,,,,,,,,,,,,,,,,,,0,0,0,0,1,,,,,,,,,,,,,
,,,,,,,,,,5e41325ffce14d35e6da5bb6,19,Mężczyzna,2022-05-28_09h27.31.283,task,2021.1.4,Win32,60.0060006,628b806c463b948bc644b84f,6291ce3eda0c0bbeb55cb6d0,,,,,,,,,,,,,,,,,,,,,,,9,,,,,,,,,,Task,24,(2x2) + 5,9,,,,,,,,,,,,,,,,,,,1,,,,,,,,,,,,,,,,,,,,,,,"[""9""]",1,[3.44789999997613],0,0,0,23,1,,,,,,,,,,,,,,,,,,
,,,,,,,,,,5e41325ffce14d35e6da5bb6,19,Mężczyzna,2022-05-28_09h27.31.283,task,2021.1.4,Win32,60.0060006,628b806c463b948bc644b84f,6291ce3eda0c0bbeb55cb6d0,,,,,,,,,,"X V Q F H G B L J M P D K C T S W R N Z
",,,,,,,,,,,,,,,,,,,,,,,,,,,,,,,,,,,,,,,,,,,,,,,,,,,,,,,,,,,,,,,,,,,,,,,,,,,,1,0,1,0,1,,,,,,,,,,,,,
,,,,,,,,,,5e41325ffce14d35e6da5bb6,19,Mężczyzna,2022-05-28_09h27.31.283,task,2021.1.4,Win32,60.0060006,628b806c463b948bc644b84f,6291ce3eda0c0bbeb55cb6d0,,,,,,,,,,,,,,,,,,,,,,,2,,,,,,,,,,Task,2,(2x2) - 2,2,,,,,,,,,,,,,,,,,,,1,,,,,,,,,,,,,,,,,,,,,,,"[""2""]",1,[2.5115999999046608],0,0,0,1,1,,,,,,,,,,,,,,,,,,
,,,,,,,,,,5e41325ffce14d35e6da5bb6,19,Mężczyzna,2022-05-28_09h27.31.283,task,2021.1.4,Win32,60.0060006,628b806c463b948bc644b84f,6291ce3eda0c0bbeb55cb6d0,,,,,,,,,,"X V Q F H G B L J M P D K C T S W R N Z
",,,,,,,,,,,,,,,,,,,,,,,,,,,,,,,,,,,,,,,,,,,,,,,,,,,,,,,,,,,,,,,,,,,,,,,,,,,,2,0,2,0,1,,,,,,,,,,,,,
,,,,,,,,,,5e41325ffce14d35e6da5bb6,19,Mężczyzna,2022-05-28_09h27.31.283,task,2021.1.4,Win32,60.0060006,628b806c463b948bc644b84f,6291ce3eda0c0bbeb55cb6d0,,,,,,,,,,,,,,,,,,,,,,,3,,,,,,,,,,Task,27,(3/3) + 2,3,,,,,,,,,,,,,,,,,,,1,,,,,,,,,,,,,,,,,,,,,,,"[""3""]",1,[3.4818999999761218],0,0,0,26,1,,,,,,,,,,,,,,,,,,
,,,,,,,,,,5e41325ffce14d35e6da5bb6,19,Mężczyzna,2022-05-28_09h27.31.283,task,2021.1.4,Win32,60.0060006,628b806c463b948bc644b84f,6291ce3eda0c0bbeb55cb6d0,,,,,,,,,,"X V Q F H G B L J M P D K C T S W R N Z
",,,,,,,,,,,,,,,,,,,,,,,,,,,,,,,,,,,,,,,,,,,,,,,,,,,,,,,,,,,,,,,,,,,,,,,,,,,,3,0,3,0,1,,,,,,,,,,,,,
,,,,,,,,,,5e41325ffce14d35e6da5bb6,19,Mężczyzna,2022-05-28_09h27.31.283,task,2021.1.4,Win32,60.0060006,628b806c463b948bc644b84f,6291ce3eda0c0bbeb55cb6d0,,,,,,,,,,,,,,,,,,,,,,,,,,,,,,,,,,,,,,,,,,,,,,,,,,,,,,,,,,,,,,,,,,,,,,,,,,,,,,,,,,,,,,,,,,,qlpl,"[""q"",""l"",""p"",""l""]",0,"[2.4152999999522535,3.0555999999046435,3.4787999999523436,3.752099999904658,4.126299999952266]",1,QLPL,3,0,3,0,1,,
