key_resp_15.keys,key_resp_15.rt,key_resp_16.keys,key_resp_16.rt,key_resp_4.keys,key_resp_4.rt,next_letter.thisRepN,next_letter.thisTrialN,next_letter.thisN,next_letter.thisIndex,next_letter.ran,letter,participant,Wiek*,Płeć,date,expName,psychopyVersion,OS,frameRate,study_id,session,simple_recall,key_resp_5.keys,key_resp_5.rt,simple_recall_corr,simple_recall_corrkeys,next_level.thisRepN,next_level.thisTrialN,next_level.thisN,next_level.thisIndex,next_level.ran,key_resp_2.keys,key_resp_2.rt,digit_answer,key_resp.keys,key_resp.corr,key_resp.rt,RT_list,next_equation.thisRepN,next_equation.thisTrialN,next_equation.thisN,next_equation.thisIndex,next_equation.ran,Task,Trial,Problem,Operation_answer,processing_score,sumRT,meanRT,sumdiff,sd,RT,key_resp_3.keys,key_resp_3.rt,repeat_practice.thisRepN,repeat_practice.thisTrialN,repeat_practice.thisN,repeat_practice.thisIndex,repeat_practice.ran,key_resp_6.keys,key_resp_6.rt,key_resp_11.keys,key_resp_11.corr,key_resp_11.rt,operation_correct,repeat_if_wrong_prac.thisRepN,repeat_if_wrong_prac.thisTrialN,repeat_if_wrong_prac.thisN,repeat_if_wrong_prac.thisIndex,repeat_if_wrong_prac.ran,span_size_prac.thisRepN,span_size_prac.thisTrialN,span_size_prac.thisN,span_size_prac.thisIndex,span_size_prac.ran,complex_recall_practice,key_resp_9.keys,key_resp_9.corr,key_resp_9.rt,complex_prac_corr,span_recall_prac.thisRepN,span_recall_prac.thisTrialN,span_recall_prac.thisN,span_recall_prac.thisIndex,span_recall_prac.ran,key_resp_10.keys,key_resp_10.rt,key_resp_7.keys,key_resp_7.corr,key_resp_7.rt,repeat_if_wrong.thisRepN,repeat_if_wrong.thisTrialN,repeat_if_wrong.thisN,repeat_if_wrong.thisIndex,repeat_if_wrong.ran,span_size.thisRepN,span_size.thisTrialN,span_size.thisN,span_size.thisIndex,span_size.ran,complex_recall,key_resp_8.keys,key_resp_8.corr,key_resp_8.rt,complex_recall_corr,complex_recall_corrkeys,span_recall.thisRepN,span_recall.thisTrialN,span_recall.thisN,span_recall.thisIndex,span_recall.ran,key_resp_13.keys,key_resp_13.corr,key_resp_13.rt,random_loop.thisRepN,random_loop.thisTrialN,random_loop.thisN,random_loop.thisIndex,random_loop.ran,key_resp_12.keys,key_resp_12.rt
space,141.381,space,8.668,space,4.108,0,0,0,0,1,X V Q F H G B L J M P D K C T S W R N Z,5e4b2a1a6a0c8403b9f8938e,24,Mężczyzna,2022-06-11_09h18.44.143,task,2021.1.4,Win32,59.95203837,6299f149e92ead563fba08ef,62a440f686fb395618cd2ccc,,,,,,,,,,,,,,,,,,,,,,,,,,,,,,,,,,,,,,,,,,,,,,,,,,,,,,,,,,,,,,,,,,,,,,,,,,,,,,,,,,,,,,,,,,,,,,,,,,,,,
,,,,,,1,0,1,0,1,X V Q F H G B L J M P D K C T S W R N Z,5e4b2a1a6a0c8403b9f8938e,24,Mężczyzna,2022-06-11_09h18.44.143,task,2021.1.4,Win32,59.95203837,6299f149e92ead563fba08ef,62a440f686fb395618cd2ccc,,,,,,,,,,,,,,,,,,,,,,,,,,,,,,,,,,,,,,,,,,,,,,,,,,,,,,,,,,,,,,,,,,,,,,,,,,,,,,,,,,,,,,,,,,,,,,,,,,,,,
,,,,,,,,,,,,5e4b2a1a6a0c8403b9f8938e,24,Mężczyzna,2022-06-11_09h18.44.143,task,2021.1.4,Win32,59.95203837,6299f149e92ead563fba08ef,62a440f686fb395618cd2ccc,zv,"[""z"",""v""]","[2.211999999999989,2.697999999999979,4.628999999999962]",1,ZV,0,0,0,0,1,,,,,,,,,,,,,,,,,,,,,,,,,,,,,,,,,,,,,,,,,,,,,,,,,,,,,,,,,,,,,,,,,,,,,,,,,,,,,,,,,,,,,,,,,,,
,,,,,,0,0,0,0,1,X V Q F H G B L J M P D K C T S W R N Z,5e4b2a1a6a0c8403b9f8938e,24,Mężczyzna,2022-06-11_09h18.44.143,task,2021.1.4,Win32,59.95203837,6299f149e92ead563fba08ef,62a440f686fb395618cd2ccc,,,,,,,,,,,,,,,,,,,,,,,,,,,,,,,,,,,,,,,,,,,,,,,,,,,,,,,,,,,,,,,,,,,,,,,,,,,,,,,,,,,,,,,,,,,,,,,,,,,,,
,,,,,,1,0,1,0,1,X V Q F H G B L J M P D K C T S W R N Z,5e4b2a1a6a0c8403b9f8938e,24,Mężczyzna,2022-06-11_09h18.44.143,task,2021.1.4,Win32,59.95203837,6299f149e92ead563fba08ef,62a440f686fb395618cd2ccc,,,,,,,,,,,,,,,,,,,,,,,,,,,,,,,,,,,,,,,,,,,,,,,,,,,,,,,,,,,,,,,,,,,,,,,,,,,,,,,,,,,,,,,,,,,,,,,,,,,,,
,,,,,,,,,,,,5e4b2a1a6a0c8403b9f8938e,24,Mężczyzna,2022-06-11_09h18.44.143,task,2021.1.4,Win32,59.95203837,6299f149e92ead563fba08ef,62a440f686fb395618cd2ccc,fz,"[""f"",""z""]","[0.7649999999999864,0.9060000000000059,1.3120000000000118]",1,FZ,1,0,1,0,1,,,,,,,,,,,,,,,,,,,,,,,,,,,,,,,,,,,,,,,,,,,,,,,,,,,,,,,,,,,,,,,,,,,,,,,,,,,,,,,,,,,,,,,,,,,
,,,,,,0,0,0,0,1,X V Q F H G B L J M P D K C T S W R N Z,5e4b2a1a6a0c8403b9f8938e,24,Mężczyzna,2022-06-11_09h18.44.143,task,2021.1.4,Win32,59.95203837,6299f149e92ead563fba08ef,62a440f686fb395618cd2ccc,,,,,,,,,,,,,,,,,,,,,,,,,,,,,,,,,,,,,,,,,,,,,,,,,,,,,,,,,,,,,,,,,,,,,,,,,,,,,,,,,,,,,,,,,,,,,,,,,,,,,
,,,,,,1,0,1,0,1,X V Q F H G B L J M P D K C T S W R N Z,5e4b2a1a6a0c8403b9f8938e,24,Mężczyzna,2022-06-11_09h18.44.143,task,2021.1.4,Win32,59.95203837,6299f149e92ead563fba08ef,62a440f686fb395618cd2ccc,,,,,,,,,,,,,,,,,,,,,,,,,,,,,,,,,,,,,,,,,,,,,,,,,,,,,,,,,,,,,,,,,,,,,,,,,,,,,,,,,,,,,,,,,,,,,,,,,,,,,
,,,,,,2,0,2,0,1,X V Q F H G B L J M P D K C T S W R N Z,5e4b2a1a6a0c8403b9f8938e,24,Mężczyzna,2022-06-11_09h18.44.143,task,2021.1.4,Win32,59.95203837,6299f149e92ead563fba08ef,62a440f686fb395618cd2ccc,,,,,,,,,,,,,,,,,,,,,,,,,,,,,,,,,,,,,,,,,,,,,,,,,,,,,,,,,,,,,,,,,,,,,,,,,,,,,,,,,,,,,,,,,,,,,,,,,,,,,
,,,,,,,,,,,,5e4b2a1a6a0c8403b9f8938e,24,Mężczyzna,2022-06-11_09h18.44.143,task,2021.1.4,Win32,59.95203837,6299f149e92ead563fba08ef,62a440f686fb395618cd2ccc,fwq,"[""f"",""w"",""q""]","[0.8310000000000173,0.9110000000000014,1.198000000000036,1.52800000000002]",1,FWQ,2,0,2,0,1,,,,,,,,,,,,,,,,,,,,,,,,,,,,,,,,,,,,,,,,,,,,,,,,,,,,,,,,,,,,,,,,,,,,,,,,,,,,,,,,,,,,,,,,,,,
,,,,,,0,0,0,0,1,X V Q F H G B L J M P D K C T S W R N Z,5e4b2a1a6a0c8403b9f8938e,24,Mężczyzna,2022-06-11_09h18.44.143,task,2021.1.4,Win32,59.95203837,6299f149e92ead563fba08ef,62a440f686fb395618cd2ccc,,,,,,,,,,,,,,,,,,,,,,,,,,,,,,,,,,,,,,,,,,,,,,,,,,,,,,,,,,,,,,,,,,,,,,,,,,,,,,,,,,,,,,,,,,,,,,,,,,,,,
,,,,,,1,0,1,0,1,X V Q F H G B L J M P D K C T S W R N Z,5e4b2a1a6a0c8403b9f8938e,24,Mężczyzna,2022-06-11_09h18.44.143,task,2021.1.4,Win32,59.95203837,6299f149e92ead563fba08ef,62a440f686fb395618cd2ccc,,,,,,,,,,,,,,,,,,,,,,,,,,,,,,,,,,,,,,,,,,,,,,,,,,,,,,,,,,,,,,,,,,,,,,,,,,,,,,,,,,,,,,,,,,,,,,,,,,,,,
,,,,,,2,0,2,0,1,X V Q F H G B L J M P D K C T S W R N Z,5e4b2a1a6a0c8403b9f8938e,24,Mężczyzna,2022-06-11_09h18.44.143,task,2021.1.4,Win32,59.95203837,6299f149e92ead563fba08ef,62a440f686fb395618cd2ccc,,,,,,,,,,,,,,,,,,,,,,,,,,,,,,,,,,,,,,,,,,,,,,,,,,,,,,,,,,,,,,,,,,,,,,,,,,,,,,,,,,,,,,,,,,,,,,,,,,,,,
,,,,,,,,,,,,5e4b2a1a6a0c8403b9f8938e,24,Mężczyzna,2022-06-11_09h18.44.143,task,2021.1.4,Win32,59.95203837,6299f149e92ead563fba08ef,62a440f686fb395618cd2ccc,cwl,"[""c"",""w"",""l""]","[0.6840000000000259,0.7890000000000441,0.88900000000001,1.3340000000000032]",1,CWL,3,0,3,0,1,,,,,,,,,,,,,,,,,,,,,,,,,,,,,,,,,,,,,,,,,,,,,,,,,,,,,,,,,,,,,,,,,,,,,,,,,,,,,,,,,,,,,,,,,,,
,,,,,,0,0,0,0,1,X V Q F H G B L J M P D K C T S W R N Z,5e4b2a1a6a0c8403b9f8938e,24,Mężczyzna,2022-06-11_09h18.44.143,task,2021.1.4,Win32,59.95203837,6299f149e92ead563fba08ef,62a440f686fb395618cd2ccc,,,,,,,,,,,,,,,,,,,,,,,,,,,,,,,,,,,,,,,,,,,,,,,,,,,,,,,,,,,,,,,,,,,,,,,,,,,,,,,,,,,,,,,,,,,,,,,,,,,,,
,,,,,,1,0,1,0,1,X V Q F H G B L J M P D K C T S W R N Z,5e4b2a1a6a0c8403b9f8938e,24,Mężczyzna,2022-06-11_09h18.44.143,task,2021.1.4,Win32,59.95203837,6299f149e92ead563fba08ef,62a440f686fb395618cd2ccc,,,,,,,,,,,,,,,,,,,,,,,,,,,,,,,,,,,,,,,,,,,,,,,,,,,,,,,,,,,,,,,,,,,,,,,,,,,,,,,,,,,,,,,,,,,,,,,,,,,,,
,,,,,,2,0,2,0,1,X V Q F H G B L J M P D K C T S W R N Z,5e4b2a1a6a0c8403b9f8938e,24,Mężczyzna,2022-06-11_09h18.44.143,task,2021.1.4,Win32,59.95203837,6299f149e92ead563fba08ef,62a440f686fb395618cd2ccc,,,,,,,,,,,,,,,,,,,,,,,,,,,,,,,,,,,,,,,,,,,,,,,,,,,,,,,,,,,,,,,,,,,,,,,,,,,,,,,,,,,,,,,,,,,,,,,,,,,,,
,,,,,,3,0,3,0,1,X V Q F H G B L J M P D K C T S W R N Z,5e4b2a1a6a0c8403b9f8938e,24,Mężczyzna,2022-06-11_09h18.44.143,task,2021.1.4,Win32,59.95203837,6299f149e92ead563fba08ef,62a440f686fb395618cd2ccc,,,,,,,,,,,,,,,,,,,,,,,,,,,,,,,,,,,,,,,,,,,,,,,,,,,,,,,,,,,,,,,,,,,,,,,,,,,,,,,,,,,,,,,,,,,,,,,,,,,,,
,,,,,,,,,,,,5e4b2a1a6a0c8403b9f8938e,24,Mężczyzna,2022-06-11_09h18.44.143,task,2021.1.4,Win32,59.95203837,6299f149e92ead563fba08ef,62a440f686fb395618cd2ccc,wlzh,"[""w"",""l"",""z"",""h""]","[0.5849999999999795,0.7520000000000095,0.9180000000000064,1.1019999999999754,1.51400000000001]",1,WLZH,4,0,4,0,1,,,,,,,,,,,,,,,,,,,,,,,,,,,,,,,,,,,,,,,,,,,,,,,,,,,,,,,,,,,,,,,,,,,,,,,,,,,,,,,,,,,,,,,,,,,
,,,,,,0,0,0,0,1,X V Q F H G B L J M P D K C T S W R N Z,5e4b2a1a6a0c8403b9f8938e,24,Mężczyzna,2022-06-11_09h18.44.143,task,2021.1.4,Win32,59.95203837,6299f149e92ead563fba08ef,62a440f686fb395618cd2ccc,,,,,,,,,,,,,,,,,,,,,,,,,,,,,,,,,,,,,,,,,,,,,,,,,,,,,,,,,,,,,,,,,,,,,,,,,,,,,,,,,,,,,,,,,,,,,,,,,,,,,
,,,,,,1,0,1,0,1,X V Q F H G B L J M P D K C T S W R N Z,5e4b2a1a6a0c8403b9f8938e,24,Mężczyzna,2022-06-11_09h18.44.143,task,2021.1.4,Win32,59.95203837,6299f149e92ead563fba08ef,62a440f686fb395618cd2ccc,,,,,,,,,,,,,,,,,,,,,,,,,,,,,,,,,,,,,,,,,,,,,,,,,,,,,,,,,,,,,,,,,,,,,,,,,,,,,,,,,,,,,,,,,,,,,,,,,,,,,
,,,,,,2,0,2,0,1,X V Q F H G B L J M P D K C T S W R N Z,5e4b2a1a6a0c8403b9f8938e,24,Mężczyzna,2022-06-11_09h18.44.143,task,2021.1.4,Win32,59.95203837,6299f149e92ead563fba08ef,62a440f686fb395618cd2ccc,,,,,,,,,,,,,,,,,,,,,,,,,,,,,,,,,,,,,,,,,,,,,,,,,,,,,,,,,,,,,,,,,,,,,,,,,,,,,,,,,,,,,,,,,,,,,,,,,,,,,
,,,,,,3,0,3,0,1,X V Q F H G B L J M P D K C T S W R N Z,5e4b2a1a6a0c8403b9f8938e,24,Mężczyzna,2022-06-11_09h18.44.143,task,2021.1.4,Win32,59.95203837,6299f149e92ead563fba08ef,62a440f686fb395618cd2ccc,,,,,,,,,,,,,,,,,,,,,,,,,,,,,,,,,,,,,,,,,,,,,,,,,,,,,,,,,,,,,,,,,,,,,,,,,,,,,,,,,,,,,,,,,,,,,,,,,,,,,
,,,,,,,,,,,,5e4b2a1a6a0c8403b9f8938e,24,Mężczyzna,2022-06-11_09h18.44.143,task,2021.1.4,Win32,59.95203837,6299f149e92ead563fba08ef,62a440f686fb395618cd2ccc,cbns,"[""c"",""b"",""n"",""s""]","[0.40300000000002,0.5059999999999718,0.6669999999999732,1.0489999999999782,1.295000000000016]",1,CBNS,5,0,5,0,1,,,,,,,,,,,,,,,,,,,,,,,,,,,,,,,,,,,,,,,,,,,,,,,,,,,,,,,,,,,,,,,,,,,,,,,,,,,,,,,,,,,,,,,,,,,
,,,,,,0,0,0,0,1,X V Q F H G B L J M P D K C T S W R N Z,5e4b2a1a6a0c8403b9f8938e,24,Mężczyzna,2022-06-11_09h18.44.143,task,2021.1.4,Win32,59.95203837,6299f149e92ead563fba08ef,62a440f686fb395618cd2ccc,,,,,,,,,,,,,,,,,,,,,,,,,,,,,,,,,,,,,,,,,,,,,,,,,,,,,,,,,,,,,,,,,,,,,,,,,,,,,,,,,,,,,,,,,,,,,,,,,,,,,
,,,,,,1,0,1,0,1,X V Q F H G B L J M P D K C T S W R N Z,5e4b2a1a6a0c8403b9f8938e,24,Mężczyzna,2022-06-11_09h18.44.143,task,2021.1.4,Win32,59.95203837,6299f149e92ead563fba08ef,62a440f686fb395618cd2ccc,,,,,,,,,,,,,,,,,,,,,,,,,,,,,,,,,,,,,,,,,,,,,,,,,,,,,,,,,,,,,,,,,,,,,,,,,,,,,,,,,,,,,,,,,,,,,,,,,,,,,
,,,,,,2,0,2,0,1,X V Q F H G B L J M P D K C T S W R N Z,5e4b2a1a6a0c8403b9f8938e,24,Mężczyzna,2022-06-11_09h18.44.143,task,2021.1.4,Win32,59.95203837,6299f149e92ead563fba08ef,62a440f686fb395618cd2ccc,,,,,,,,,,,,,,,,,,,,,,,,,,,,,,,,,,,,,,,,,,,,,,,,,,,,,,,,,,,,,,,,,,,,,,,,,,,,,,,,,,,,,,,,,,,,,,,,,,,,,
,,,,,,3,0,3,0,1,X V Q F H G B L J M P D K C T S W R N Z,5e4b2a1a6a0c8403b9f8938e,24,Mężczyzna,2022-06-11_09h18.44.143,task,2021.1.4,Win32,59.95203837,6299f149e92ead563fba08ef,62a440f686fb395618cd2ccc,,,,,,,,,,,,,,,,,,,,,,,,,,,,,,,,,,,,,,,,,,,,,,,,,,,,,,,,,,,,,,,,,,,,,,,,,,,,,,,,,,,,,,,,,,,,,,,,,,,,,
,,,,,,4,0,4,0,1,X V Q F H G B L J M P D K C T S W R N Z,5e4b2a1a6a0c8403b9f8938e,24,Mężczyzna,2022-06-11_09h18.44.143,task,2021.1.4,Win32,59.95203837,6299f149e92ead563fba08ef,62a440f686fb395618cd2ccc,,,,,,,,,,,,,,,,,,,,,,,,,,,,,,,,,,,,,,,,,,,,,,,,,,,,,,,,,,,,,,,,,,,,,,,,,,,,,,,,,,,,,,,,,,,,,,,,,,,,,
,,,,,,,,,,,,5e4b2a1a6a0c8403b9f8938e,24,Mężczyzna,2022-06-11_09h18.44.143,task,2021.1.4,Win32,59.95203837,6299f149e92ead563fba08ef,62a440f686fb395618cd2ccc,gvdxg,"[""g"",""v"",""d"",""x"",""g""]","[0.41800000000000637,0.6030000000000086,0.7010000000000218,0.9270000000000209,1.143000000000029,1.5030000000000427]",1,GVDXG,6,0,6,0,1,,,,,,,,,,,,,,,,,,,,,,,,,,,,,,,,,,,,,,,,,,,,,,,,,,,,,,,,,,,,,,,,,,,,,,,,,,,,,,,,,,,,,,,,,,,
,,,,,,0,0,0,0,1,X V Q F H G B L J M P D K C T S W R N Z,5e4b2a1a6a0c8403b9f8938e,24,Mężczyzna,2022-06-11_09h18.44.143,task,2021.1.4,Win32,59.95203837,6299f149e92ead563fba08ef,62a440f686fb395618cd2ccc,,,,,,,,,,,,,,,,,,,,,,,,,,,,,,,,,,,,,,,,,,,,,,,,,,,,,,,,,,,,,,,,,,,,,,,,,,,,,,,,,,,,,,,,,,,,,,,,,,,,,
,,,,,,1,0,1,0,1,X V Q F H G B L J M P D K C T S W R N Z,5e4b2a1a6a0c8403b9f8938e,24,Mężczyzna,2022-06-11_09h18.44.143,task,2021.1.4,Win32,59.95203837,6299f149e92ead563fba08ef,62a440f686fb395618cd2ccc,,,,,,,,,,,,,,,,,,,,,,,,,,,,,,,,,,,,,,,,,,,,,,,,,,,,,,,,,,,,,,,,,,,,,,,,,,,,,,,,,,,,,,,,,,,,,,,,,,,,,
,,,,,,2,0,2,0,1,X V Q F H G B L J M P D K C T S W R N Z,5e4b2a1a6a0c8403b9f8938e,24,Mężczyzna,2022-06-11_09h18.44.143,task,2021.1.4,Win32,59.95203837,6299f149e92ead563fba08ef,62a440f686fb395618cd2ccc,,,,,,,,,,,,,,,,,,,,,,,,,,,,,,,,,,,,,,,,,,,,,,,,,,,,,,,,,,,,,,,,,,,,,,,,,,,,,,,,,,,,,,,,,,,,,,,,,,,,,
,,,,,,3,0,3,0,1,X V Q F H G B L J M P D K C T S W R N Z,5e4b2a1a6a0c8403b9f8938e,24,Mężczyzna,2022-06-11_09h18.44.143,task,2021.1.4,Win32,59.95203837,6299f149e92ead563fba08ef,62a440f686fb395618cd2ccc,,,,,,,,,,,,,,,,,,,,,,,,,,,,,,,,,,,,,,,,,,,,,,,,,,,,,,,,,,,,,,,,,,,,,,,,,,,,,,,,,,,,,,,,,,,,,,,,,,,,,
,,,,,,4,0,4,0,1,X V Q F H G B L J M P D K C T S W R N Z,5e4b2a1a6a0c8403b9f8938e,24,Mężczyzna,2022-06-11_09h18.44.143,task,2021.1.4,Win32,59.95203837,6299f149e92ead563fba08ef,62a440f686fb395618cd2ccc,,,,,,,,,,,,,,,,,,,,,,,,,,,,,,,,,,,,,,,,,,,,,,,,,,,,,,,,,,,,,,,,,,,,,,,,,,,,,,,,,,,,,,,,,,,,,,,,,,,,,
,,,,,,,,,,,,5e4b2a1a6a0c8403b9f8938e,24,Mężczyzna,2022-06-11_09h18.44.143,task,2021.1.4,Win32,59.95203837,6299f149e92ead563fba08ef,62a440f686fb395618cd2ccc,dkpcf,"[""d"",""k"",""p"",""c"",""f""]","[0.4309999999999832,0.6129999999999995,1.5149999999999864,1.995999999999981,2.2369999999999663,3.1059999999999945]",1,DKPCF,7,0,7,0,1,,,,,,,,,,,,,,,,,,,,,,,,,,,,,,,,,,,,,,,,,,,,,,,,,,,,,,,,,,,,,,,,,,,,,,,,,,,,,,,,,,,,,,,,,,,
,,,,,,0,0,0,0,1,X V Q F H G B L J M P D K C T S W R N Z,5e4b2a1a6a0c8403b9f8938e,24,Mężczyzna,2022-06-11_09h18.44.143,task,2021.1.4,Win32,59.95203837,6299f149e92ead563fba08ef,62a440f686fb395618cd2ccc,,,,,,,,,,,,,,,,,,,,,,,,,,,,,,,,,,,,,,,,,,,,,,,,,,,,,,,,,,,,,,,,,,,,,,,,,,,,,,,,,,,,,,,,,,,,,,,,,,,,,
,,,,,,1,0,1,0,1,X V Q F H G B L J M P D K C T S W R N Z,5e4b2a1a6a0c8403b9f8938e,24,Mężczyzna,2022-06-11_09h18.44.143,task,2021.1.4,Win32,59.95203837,6299f149e92ead563fba08ef,62a440f686fb395618cd2ccc,,,,,,,,,,,,,,,,,,,,,,,,,,,,,,,,,,,,,,,,,,,,,,,,,,,,,,,,,,,,,,,,,,,,,,,,,,,,,,,,,,,,,,,,,,,,,,,,,,,,,
,,,,,,2,0,2,0,1,X V Q F H G B L J M P D K C T S W R N Z,5e4b2a1a6a0c8403b9f8938e,24,Mężczyzna,2022-06-11_09h18.44.143,task,2021.1.4,Win32,59.95203837,6299f149e92ead563fba08ef,62a440f686fb395618cd2ccc,,,,,,,,,,,,,,,,,,,,,,,,,,,,,,,,,,,,,,,,,,,,,,,,,,,,,,,,,,,,,,,,,,,,,,,,,,,,,,,,,,,,,,,,,,,,,,,,,,,,,
,,,,,,3,0,3,0,1,X V Q F H G B L J M P D K C T S W R N Z,5e4b2a1a6a0c8403b9f8938e,24,Mężczyzna,2022-06-11_09h18.44.143,task,2021.1.4,Win32,59.95203837,6299f149e92ead563fba08ef,62a440f686fb395618cd2ccc,,,,,,,,,,,,,,,,,,,,,,,,,,,,,,,,,,,,,,,,,,,,,,,,,,,,,,,,,,,,,,,,,,,,,,,,,,,,,,,,,,,,,,,,,,,,,,,,,,,,,
,,,,,,4,0,4,0,1,X V Q F H G B L J M P D K C T S W R N Z,5e4b2a1a6a0c8403b9f8938e,24,Mężczyzna,2022-06-11_09h18.44.143,task,2021.1.4,Win32,59.95203837,6299f149e92ead563fba08ef,62a440f686fb395618cd2ccc,,,,,,,,,,,,,,,,,,,,,,,,,,,,,,,,,,,,,,,,,,,,,,,,,,,,,,,,,,,,,,,,,,,,,,,,,,,,,,,,,,,,,,,,,,,,,,,,,,,,,
,,,,,,5,0,5,0,1,X V Q F H G B L J M P D K C T S W R N Z,5e4b2a1a6a0c8403b9f8938e,24,Mężczyzna,2022-06-11_09h18.44.143,task,2021.1.4,Win32,59.95203837,6299f149e92ead563fba08ef,62a440f686fb395618cd2ccc,,,,,,,,,,,,,,,,,,,,,,,,,,,,,,,,,,,,,,,,,,,,,,,,,,,,,,,,,,,,,,,,,,,,,,,,,,,,,,,,,,,,,,,,,,,,,,,,,,,,,
,,,,,,,,,,,,5e4b2a1a6a0c8403b9f8938e,24,Mężczyzna,2022-06-11_09h18.44.143,task,2021.1.4,Win32,59.95203837,6299f149e92ead563fba08ef,62a440f686fb395618cd2ccc,btgtvp,"[""b"",""t"",""g"",""t"",""v"",""p""]","[0.7339999999999804,1.0319999999999823,1.5129999999999768,4.6129999999999995,6.646000000000015,7.2169999999999845,7.745999999999981]",1,BTGTVP,8,0,8,0,1,,,,,,,,,,,,,,,,,,,,,,,,,,,,,,,,,,,,,,,,,,,,,,,,,,,,,,,,,,,,,,,,,,,,,,,,,,,,,,,,,,,,,,,,,,,
,,,,,,0,0,0,0,1,X V Q F H G B L J M P D K C T S W R N Z,5e4b2a1a6a0c8403b9f8938e,24,Mężczyzna,2022-06-11_09h18.44.143,task,2021.1.4,Win32,59.95203837,6299f149e92ead563fba08ef,62a440f686fb395618cd2ccc,,,,,,,,,,,,,,,,,,,,,,,,,,,,,,,,,,,,,,,,,,,,,,,,,,,,,,,,,,,,,,,,,,,,,,,,,,,,,,,,,,,,,,,,,,,,,,,,,,,,,
,,,,,,1,0,1,0,1,X V Q F H G B L J M P D K C T S W R N Z,5e4b2a1a6a0c8403b9f8938e,24,Mężczyzna,2022-06-11_09h18.44.143,task,2021.1.4,Win32,59.95203837,6299f149e92ead563fba08ef,62a440f686fb395618cd2ccc,,,,,,,,,,,,,,,,,,,,,,,,,,,,,,,,,,,,,,,,,,,,,,,,,,,,,,,,,,,,,,,,,,,,,,,,,,,,,,,,,,,,,,,,,,,,,,,,,,,,,
,,,,,,2,0,2,0,1,X V Q F H G B L J M P D K C T S W R N Z,5e4b2a1a6a0c8403b9f8938e,24,Mężczyzna,2022-06-11_09h18.44.143,task,2021.1.4,Win32,59.95203837,6299f149e92ead563fba08ef,62a440f686fb395618cd2ccc,,,,,,,,,,,,,,,,,,,,,,,,,,,,,,,,,,,,,,,,,,,,,,,,,,,,,,,,,,,,,,,,,,,,,,,,,,,,,,,,,,,,,,,,,,,,,,,,,,,,,
,,,,,,3,0,3,0,1,X V Q F H G B L J M P D K C T S W R N Z,5e4b2a1a6a0c8403b9f8938e,24,Mężczyzna,2022-06-11_09h18.44.143,task,2021.1.4,Win32,59.95203837,6299f149e92ead563fba08ef,62a440f686fb395618cd2ccc,,,,,,,,,,,,,,,,,,,,,,,,,,,,,,,,,,,,,,,,,,,,,,,,,,,,,,,,,,,,,,,,,,,,,,,,,,,,,,,,,,,,,,,,,,,,,,,,,,,,,
,,,,,,4,0,4,0,1,X V Q F H G B L J M P D K C T S W R N Z,5e4b2a1a6a0c8403b9f8938e,24,Mężczyzna,2022-06-11_09h18.44.143,task,2021.1.4,Win32,59.95203837,6299f149e92ead563fba08ef,62a440f686fb395618cd2ccc,,,,,,,,,,,,,,,,,,,,,,,,,,,,,,,,,,,,,,,,,,,,,,,,,,,,,,,,,,,,,,,,,,,,,,,,,,,,,,,,,,,,,,,,,,,,,,,,,,,,,
,,,,,,5,0,5,0,1,X V Q F H G B L J M P D K C T S W R N Z,5e4b2a1a6a0c8403b9f8938e,24,Mężczyzna,2022-06-11_09h18.44.143,task,2021.1.4,Win32,59.95203837,6299f149e92ead563fba08ef,62a440f686fb395618cd2ccc,,,,,,,,,,,,,,,,,,,,,,,,,,,,,,,,,,,,,,,,,,,,,,,,,,,,,,,,,,,,,,,,,,,,,,,,,,,,,,,,,,,,,,,,,,,,,,,,,,,,,
,,,,,,,,,,,,5e4b2a1a6a0c8403b9f8938e,24,Mężczyzna,2022-06-11_09h18.44.143,task,2021.1.4,Win32,59.95203837,6299f149e92ead563fba08ef,62a440f686fb395618cd2ccc,grjvpf,"[""g"",""r"",""j"",""v"",""p"",""f""]","[0.5509999999999877,0.6359999999999673,1.2019999999999982,2.0529999999999973,2.468999999999994,2.569999999999993,5.500999999999976]",1,GRJVPF,9,0,9,0,1,,,,,,,,,,,,,,,,,,,,,,,,,,,,,,,,,,,,,,,,,,,,,,,,,,,,,,,,,,,,,,,,,,,,,,,,,,,,,,,,,,,,,,,,,,,
,,,,,,0,0,0,0,1,X V Q F H G B L J M P D K C T S W R N Z,5e4b2a1a6a0c8403b9f8938e,24,Mężczyzna,2022-06-11_09h18.44.143,task,2021.1.4,Win32,59.95203837,6299f149e92ead563fba08ef,62a440f686fb395618cd2ccc,,,,,,,,,,,,,,,,,,,,,,,,,,,,,,,,,,,,,,,,,,,,,,,,,,,,,,,,,,,,,,,,,,,,,,,,,,,,,,,,,,,,,,,,,,,,,,,,,,,,,
,,,,,,1,0,1,0,1,X V Q F H G B L J M P D K C T S W R N Z,5e4b2a1a6a0c8403b9f8938e,24,Mężczyzna,2022-06-11_09h18.44.143,task,2021.1.4,Win32,59.95203837,6299f149e92ead563fba08ef,62a440f686fb395618cd2ccc,,,,,,,,,,,,,,,,,,,,,,,,,,,,,,,,,,,,,,,,,,,,,,,,,,,,,,,,,,,,,,,,,,,,,,,,,,,,,,,,,,,,,,,,,,,,,,,,,,,,,
,,,,,,2,0,2,0,1,X V Q F H G B L J M P D K C T S W R N Z,5e4b2a1a6a0c8403b9f8938e,24,Mężczyzna,2022-06-11_09h18.44.143,task,2021.1.4,Win32,59.95203837,6299f149e92ead563fba08ef,62a440f686fb395618cd2ccc,,,,,,,,,,,,,,,,,,,,,,,,,,,,,,,,,,,,,,,,,,,,,,,,,,,,,,,,,,,,,,,,,,,,,,,,,,,,,,,,,,,,,,,,,,,,,,,,,,,,,
,,,,,,3,0,3,0,1,X V Q F H G B L J M P D K C T S W R N Z,5e4b2a1a6a0c8403b9f8938e,24,Mężczyzna,2022-06-11_09h18.44.143,task,2021.1.4,Win32,59.95203837,6299f149e92ead563fba08ef,62a440f686fb395618cd2ccc,,,,,,,,,,,,,,,,,,,,,,,,,,,,,,,,,,,,,,,,,,,,,,,,,,,,,,,,,,,,,,,,,,,,,,,,,,,,,,,,,,,,,,,,,,,,,,,,,,,,,
,,,,,,4,0,4,0,1,X V Q F H G B L J M P D K C T S W R N Z,5e4b2a1a6a0c8403b9f8938e,24,Mężczyzna,2022-06-11_09h18.44.143,task,2021.1.4,Win32,59.95203837,6299f149e92ead563fba08ef,62a440f686fb395618cd2ccc,,,,,,,,,,,,,,,,,,,,,,,,,,,,,,,,,,,,,,,,,,,,,,,,,,,,,,,,,,,,,,,,,,,,,,,,,,,,,,,,,,,,,,,,,,,,,,,,,,,,,
,,,,,,5,0,5,0,1,X V Q F H G B L J M P D K C T S W R N Z,5e4b2a1a6a0c8403b9f8938e,24,Mężczyzna,2022-06-11_09h18.44.143,task,2021.1.4,Win32,59.95203837,6299f149e92ead563fba08ef,62a440f686fb395618cd2ccc,,,,,,,,,,,,,,,,,,,,,,,,,,,,,,,,,,,,,,,,,,,,,,,,,,,,,,,,,,,,,,,,,,,,,,,,,,,,,,,,,,,,,,,,,,,,,,,,,,,,,
,,,,,,6,0,6,0,1,X V Q F H G B L J M P D K C T S W R N Z,5e4b2a1a6a0c8403b9f8938e,24,Mężczyzna,2022-06-11_09h18.44.143,task,2021.1.4,Win32,59.95203837,6299f149e92ead563fba08ef,62a440f686fb395618cd2ccc,,,,,,,,,,,,,,,,,,,,,,,,,,,,,,,,,,,,,,,,,,,,,,,,,,,,,,,,,,,,,,,,,,,,,,,,,,,,,,,,,,,,,,,,,,,,,,,,,,,,,
,,,,,,,,,,,,5e4b2a1a6a0c8403b9f8938e,24,Mężczyzna,2022-06-11_09h18.44.143,task,2021.1.4,Win32,59.95203837,6299f149e92ead563fba08ef,62a440f686fb395618cd2ccc,vbplswv,"[""v"",""b"",""p"",""l"",""s"",""w"",""v""]","[0.6459999999999582,1.266999999999996,1.9149999999999636,2.34699999999998,2.632000000000005,3.159999999999968,3.8689999999999714,4.597999999999956]",0,BPVLSWV,10,0,10,0,1,,,,,,,,,,,,,,,,,,,,,,,,,,,,,,,,,,,,,,,,,,,,,,,,,,,,,,,,,,,,,,,,,,,,,,,,,,,,,,,,,,,,,,,,,,,
,,,,,,0,0,0,0,1,X V Q F H G B L J M P D K C T S W R N Z,5e4b2a1a6a0c8403b9f8938e,24,Mężczyzna,2022-06-11_09h18.44.143,task,2021.1.4,Win32,59.95203837,6299f149e92ead563fba08ef,62a440f686fb395618cd2ccc,,,,,,,,,,,,,,,,,,,,,,,,,,,,,,,,,,,,,,,,,,,,,,,,,,,,,,,,,,,,,,,,,,,,,,,,,,,,,,,,,,,,,,,,,,,,,,,,,,,,,
,,,,,,1,0,1,0,1,X V Q F H G B L J M P D K C T S W R N Z,5e4b2a1a6a0c8403b9f8938e,24,Mężczyzna,2022-06-11_09h18.44.143,task,2021.1.4,Win32,59.95203837,6299f149e92ead563fba08ef,62a440f686fb395618cd2ccc,,,,,,,,,,,,,,,,,,,,,,,,,,,,,,,,,,,,,,,,,,,,,,,,,,,,,,,,,,,,,,,,,,,,,,,,,,,,,,,,,,,,,,,,,,,,,,,,,,,,,
,,,,,,2,0,2,0,1,X V Q F H G B L J M P D K C T S W R N Z,5e4b2a1a6a0c8403b9f8938e,24,Mężczyzna,2022-06-11_09h18.44.143,task,2021.1.4,Win32,59.95203837,6299f149e92ead563fba08ef,62a440f686fb395618cd2ccc,,,,,,,,,,,,,,,,,,,,,,,,,,,,,,,,,,,,,,,,,,,,,,,,,,,,,,,,,,,,,,,,,,,,,,,,,,,,,,,,,,,,,,,,,,,,,,,,,,,,,
,,,,,,3,0,3,0,1,X V Q F H G B L J M P D K C T S W R N Z,5e4b2a1a6a0c8403b9f8938e,24,Mężczyzna,2022-06-11_09h18.44.143,task,2021.1.4,Win32,59.95203837,6299f149e92ead563fba08ef,62a440f686fb395618cd2ccc,,,,,,,,,,,,,,,,,,,,,,,,,,,,,,,,,,,,,,,,,,,,,,,,,,,,,,,,,,,,,,,,,,,,,,,,,,,,,,,,,,,,,,,,,,,,,,,,,,,,,
,,,,,,4,0,4,0,1,X V Q F H G B L J M P D K C T S W R N Z,5e4b2a1a6a0c8403b9f8938e,24,Mężczyzna,2022-06-11_09h18.44.143,task,2021.1.4,Win32,59.95203837,6299f149e92ead563fba08ef,62a440f686fb395618cd2ccc,,,,,,,,,,,,,,,,,,,,,,,,,,,,,,,,,,,,,,,,,,,,,,,,,,,,,,,,,,,,,,,,,,,,,,,,,,,,,,,,,,,,,,,,,,,,,,,,,,,,,
,,,,,,5,0,5,0,1,X V Q F H G B L J M P D K C T S W R N Z,5e4b2a1a6a0c8403b9f8938e,24,Mężczyzna,2022-06-11_09h18.44.143,task,2021.1.4,Win32,59.95203837,6299f149e92ead563fba08ef,62a440f686fb395618cd2ccc,,,,,,,,,,,,,,,,,,,,,,,,,,,,,,,,,,,,,,,,,,,,,,,,,,,,,,,,,,,,,,,,,,,,,,,,,,,,,,,,,,,,,,,,,,,,,,,,,,,,,
,,,,,,6,0,6,0,1,X V Q F H G B L J M P D K C T S W R N Z,5e4b2a1a6a0c8403b9f8938e,24,Mężczyzna,2022-06-11_09h18.44.143,task,2021.1.4,Win32,59.95203837,6299f149e92ead563fba08ef,62a440f686fb395618cd2ccc,,,,,,,,,,,,,,,,,,,,,,,,,,,,,,,,,,,,,,,,,,,,,,,,,,,,,,,,,,,,,,,,,,,,,,,,,,,,,,,,,,,,,,,,,,,,,,,,,,,,,
,,,,,,,,,,,,5e4b2a1a6a0c8403b9f8938e,24,Mężczyzna,2022-06-11_09h18.44.143,task,2021.1.4,Win32,59.95203837,6299f149e92ead563fba08ef,62a440f686fb395618cd2ccc,qscplmr,"[""q"",""s"",""c"",""p"",""l"",""m"",""r""]","[0.8179999999999836,2.2439999999999714,2.4909999999999854,2.8719999999999573,3.06899999999996,3.2679999999999723,3.687999999999988,4.589999999999975]",0,QCPLMWR,11,0,11,0,1,,,,,,,,,,,,,,,,,,,,,,,,,,,,,,,,,,,,,,,,,,,,,,,,,,,,,,,,,,,,,,,,,,,,,,,,,,,,,,,,,,,,,,,,,,,
,,,,,,0,0,0,0,1,X V Q F H G B L J M P D K C T S W R N Z,5e4b2a1a6a0c8403b9f8938e,24,Mężczyzna,2022-06-11_09h18.44.143,task,2021.1.4,Win32,59.95203837,6299f149e92ead563fba08ef,62a440f686fb395618cd2ccc,,,,,,,,,,,,,,,,,,,,,,,,,,,,,,,,,,,,,,,,,,,,,,,,,,,,,,,,,,,,,,,,,,,,,,,,,,,,,,,,,,,,,,,,,,,,,,,,,,,,,
,,,,,,1,0,1,0,1,X V Q F H G B L J M P D K C T S W R N Z,5e4b2a1a6a0c8403b9f8938e,24,Mężczyzna,2022-06-11_09h18.44.143,task,2021.1.4,Win32,59.95203837,6299f149e92ead563fba08ef,62a440f686fb395618cd2ccc,,,,,,,,,,,,,,,,,,,,,,,,,,,,,,,,,,,,,,,,,,,,,,,,,,,,,,,,,,,,,,,,,,,,,,,,,,,,,,,,,,,,,,,,,,,,,,,,,,,,,
,,,,,,2,0,2,0,1,X V Q F H G B L J M P D K C T S W R N Z,5e4b2a1a6a0c8403b9f8938e,24,Mężczyzna,2022-06-11_09h18.44.143,task,2021.1.4,Win32,59.95203837,6299f149e92ead563fba08ef,62a440f686fb395618cd2ccc,,,,,,,,,,,,,,,,,,,,,,,,,,,,,,,,,,,,,,,,,,,,,,,,,,,,,,,,,,,,,,,,,,,,,,,,,,,,,,,,,,,,,,,,,,,,,,,,,,,,,
,,,,,,3,0,3,0,1,X V Q F H G B L J M P D K C T S W R N Z,5e4b2a1a6a0c8403b9f8938e,24,Mężczyzna,2022-06-11_09h18.44.143,task,2021.1.4,Win32,59.95203837,6299f149e92ead563fba08ef,62a440f686fb395618cd2ccc,,,,,,,,,,,,,,,,,,,,,,,,,,,,,,,,,,,,,,,,,,,,,,,,,,,,,,,,,,,,,,,,,,,,,,,,,,,,,,,,,,,,,,,,,,,,,,,,,,,,,
,,,,,,4,0,4,0,1,X V Q F H G B L J M P D K C T S W R N Z,5e4b2a1a6a0c8403b9f8938e,24,Mężczyzna,2022-06-11_09h18.44.143,task,2021.1.4,Win32,59.95203837,6299f149e92ead563fba08ef,62a440f686fb395618cd2ccc,,,,,,,,,,,,,,,,,,,,,,,,,,,,,,,,,,,,,,,,,,,,,,,,,,,,,,,,,,,,,,,,,,,,,,,,,,,,,,,,,,,,,,,,,,,,,,,,,,,,,
,,,,,,5,0,5,0,1,X V Q F H G B L J M P D K C T S W R N Z,5e4b2a1a6a0c8403b9f8938e,24,Mężczyzna,2022-06-11_09h18.44.143,task,2021.1.4,Win32,59.95203837,6299f149e92ead563fba08ef,62a440f686fb395618cd2ccc,,,,,,,,,,,,,,,,,,,,,,,,,,,,,,,,,,,,,,,,,,,,,,,,,,,,,,,,,,,,,,,,,,,,,,,,,,,,,,,,,,,,,,,,,,,,,,,,,,,,,
,,,,,,6,0,6,0,1,X V Q F H G B L J M P D K C T S W R N Z,5e4b2a1a6a0c8403b9f8938e,24,Mężczyzna,2022-06-11_09h18.44.143,task,2021.1.4,Win32,59.95203837,6299f149e92ead563fba08ef,62a440f686fb395618cd2ccc,,,,,,,,,,,,,,,,,,,,,,,,,,,,,,,,,,,,,,,,,,,,,,,,,,,,,,,,,,,,,,,,,,,,,,,,,,,,,,,,,,,,,,,,,,,,,,,,,,,,,
,,,,,,,,,,,,5e4b2a1a6a0c8403b9f8938e,24,Mężczyzna,2022-06-11_09h18.44.143,task,2021.1.4,Win32,59.95203837,6299f149e92ead563fba08ef,62a440f686fb395618cd2ccc,chplbgl,"[""c"",""h"",""p"",""l"",""b"",""g"",""l""]","[0.7690000000000055,1.1459999999999582,2.367999999999995,2.5149999999999864,3.526999999999987,3.933999999999969,5.419999999999959,5.722999999999956]",0,HCPLGLB,12,0,12,0,1,,,,,,,,,,,,,,,,,,,,,,,,,,,,,,,,,,,,,,,,,,,,,,,,,,,,,,,,,,,,,,,,,,,,,,,,,,,,,,,,,,,,,,,,,,,
,,,,,,,,,,,,5e4b2a1a6a0c8403b9f8938e,24,Mężczyzna,2022-06-11_09h18.44.143,task,2021.1.4,Win32,59.95203837,6299f149e92ead563fba08ef,62a440f686fb395618cd2ccc,,,,,,,,,,,space,4.602,4,"[""4""]",1,[3.710999999999956],[3.710999999999956],0,0,0,4,1,Practice,5,(2x6) - 8,4,,,,,,,,,,,,,,,,,,,,,,,,,,,,,,,,,,,,,,,,,,,,,,,,,,,,,,,,,,,,,,,,,,,,,,,,,,,
,,,,,,,,,,,,5e4b2a1a6a0c8403b9f8938e,24,Mężczyzna,2022-06-11_09h18.44.143,task,2021.1.4,Win32,59.95203837,6299f149e92ead563fba08ef,62a440f686fb395618cd2ccc,,,,,,,,,,,,,7,"[""7""]",1,[2.1230000000000473],"[3.710999999999956,2.1230000000000473]",0,1,1,7,1,Practice,8,(5x5) - 18,7,,,,,,,,,,,,,,,,,,,,,,,,,,,,,,,,,,,,,,,,,,,,,,,,,,,,,,,,,,,,,,,,,,,,,,,,,,,
,,,,,,,,,,,,5e4b2a1a6a0c8403b9f8938e,24,Mężczyzna,2022-06-11_09h18.44.143,task,2021.1.4,Win32,59.95203837,6299f149e92ead563fba08ef,62a440f686fb395618cd2ccc,,,,,,,,,,,,,8,"[""8""]",1,[1.5080000000000382],"[3.710999999999956,2.1230000000000473,1.5080000000000382]",0,2,2,8,1,Practice,9,(3x3) - 1,8,,,,,,,,,,,,,,,,,,,,,,,,,,,,,,,,,,,,,,,,,,,,,,,,,,,,,,,,,,,,,,,,,,,,,,,,,,,
,,,,,,,,,,,,5e4b2a1a6a0c8403b9f8938e,24,Mężczyzna,2022-06-11_09h18.44.143,task,2021.1.4,Win32,59.95203837,6299f149e92ead563fba08ef,62a440f686fb395618cd2ccc,,,,,,,,,,,,,6,"[""6""]",1,[2.6299999999999955],"[3.710999999999956,2.1230000000000473,1.5080000000000382,2.6299999999999955]",0,3,3,6,1,Practice,7,(25/5) + 1,6,,,,,,,,,,,,,,,,,,,,,,,,,,,,,,,,,,,,,,,,,,,,,,,,,,,,,,,,,,,,,,,,,,,,,,,,,,,
,,,,,,,,,,,,5e4b2a1a6a0c8403b9f8938e,24,Mężczyzna,2022-06-11_09h18.44.143,task,2021.1.4,Win32,59.95203837,6299f149e92ead563fba08ef,62a440f686fb395618cd2ccc,,,,,,,,,,,,,3,"[""3""]",1,[1.54099999999994],"[3.710999999999956,2.1230000000000473,1.5080000000000382,2.6299999999999955,1.54099999999994]",0,4,4,3,1,Practice,4,(8/4) + 1,3,,,,,,,,,,,,,,,,,,,,,,,,,,,,,,,,,,,,,,,,,,,,,,,,,,,,,,,,,,,,,,,,,,,,,,,,,,,
,,,,,,,,,,,,5e4b2a1a6a0c8403b9f8938e,24,Mężczyzna,2022-06-11_09h18.44.143,task,2021.1.4,Win32,59.95203837,6299f149e92ead563fba08ef,62a440f686fb395618cd2ccc,,,,,,,,,,,,,5,"[""5""]",1,[1.5609999999999218],"[3.710999999999956,2.1230000000000473,1.5080000000000382,2.6299999999999955,1.54099999999994,1.5609999999999218]",0,5,5,5,1,Practice,6,(4/2) + 3,5,,,,,,,,,,,,,,,,,,,,,,,,,,,,,,,,,,,,,,,,,,,,,,,,,,,,,,,,,,,,,,,,,,,,,,,,,,,
,,,,,,,,,,,,5e4b2a1a6a0c8403b9f8938e,24,Mężczyzna,2022-06-11_09h18.44.143,task,2021.1.4,Win32,59.95203837,6299f149e92ead563fba08ef,62a440f686fb395618cd2ccc,,,,,,,,,,,,,9,"[""9""]",1,[1.51400000000001],"[3.710999999999956,2.1230000000000473,1.5080000000000382,2.6299999999999955,1.54099999999994,1.5609999999999218,1.51400000000001]",0,6,6,9,1,Practice,10,(20/2) - 1,9,,,,,,,,,,,,,,,,,,,,,,,,,,,,,,,,,,,,,,,,,,,,,,,,,,,,,,,,,,,,,,,,,,,,,,,,,,,
,,,,,,,,,,,,5e4b2a1a6a0c8403b9f8938e,24,Mężczyzna,2022-06-11_09h18.44.143,task,2021.1.4,Win32,59.95203837,6299f149e92ead563fba08ef,62a440f686fb395618cd2ccc,,,,,,,,,,,,,0,"[""0""]",1,[1.5489999999999782],"[3.710999999999956,2.1230000000000473,1.5080000000000382,2.6299999999999955,1.54099999999994,1.5609999999999218,1.51400000000001,1.5489999999999782]",0,7,7,0,1,Practice,1,(3x3) -  9,0,,,,,,,,,,,,,,,,,,,,,,,,,,,,,,,,,,,,,,,,,,,,,,,,,,,,,,,,,,,,,,,,,,,,,,,,,,,
,,,,,,,,,,,,5e4b2a1a6a0c8403b9f8938e,24,Mężczyzna,2022-06-11_09h18.44.143,task,2021.1.4,Win32,59.95203837,6299f149e92ead563fba08ef,62a440f686fb395618cd2ccc,,,,,,,,,,,,,2,"[""2""]",1,[2.1480000000000246],"[3.710999999999956,2.1230000000000473,1.5080000000000382,2.6299999999999955,1.54099999999994,1.5609999999999218,1.51400000000001,1.5489999999999782,2.1480000000000246]",0,8,8,2,1,Practice,3,(4x4) - 14,2,,,,,,,,,,,,,,,,,,,,,,,,,,,,,,,,,,,,,,,,,,,,,,,,,,,,,,,,,,,,,,,,,,,,,,,,,,,
,,,,,,,,,,,,5e4b2a1a6a0c8403b9f8938e,24,Mężczyzna,2022-06-11_09h18.44.143,task,2021.1.4,Win32,59.95203837,6299f149e92ead563fba08ef,62a440f686fb395618cd2ccc,,,,,,,,,,,,,1,"[""1""]",1,[1.1340000000000146],"[3.710999999999956,2.1230000000000473,1.5080000000000382,2.6299999999999955,1.54099999999994,1.5609999999999218,1.51400000000001,1.5489999999999782,2.1480000000000246,1.1340000000000146]",0,9,9,1,1,Practice,2,(4x4) - 15,1,,,,,,,,,,,,,,,,,,,,,,,,,,,,,,,,,,,,,,,,,,,,,,,,,,,,,,,,,,,,,,,,,,,,,,,,,,,
,,,,,,,,,,,,5e4b2a1a6a0c8403b9f8938e,24,Mężczyzna,2022-06-11_09h18.44.143,task,2021.1.4,Win32,59.95203837,6299f149e92ead563fba08ef,62a440f686fb395618cd2ccc,,,,,,,,,,,,,,,,,,,,,,,,,,,1,19.419,1.2946,9.3526898,0.789628174,3.331840689,space,1.107,0,0,0,0,1,,,,,,,,,,,,,,,,,,,,,,,,,,,,,,,,,,,,,,,,,,,,,,,,,,,,,,,,,,,,,,
,,,,,,,,,,,,5e4b2a1a6a0c8403b9f8938e,24,Mężczyzna,2022-06-11_09h18.44.143,task,2021.1.4,Win32,59.95203837,6299f149e92ead563fba08ef,62a440f686fb395618cd2ccc,,,,,,,,,,,,,8,,,,,,,,,,Practice,9,(3x3) - 1,8,,,,,,,,,,,,,,space,8.922,"[""8""]",1,[2.0610000000000355],1,0,0,0,8,1,,,,,,,,,,,,,,,,,,,,,,,,,,,,,,,,,,,,,,,,,,,,,,,,,,,
,,,,,,,,,,,X V Q F H G B L J M P D K C T S W R N Z,5e4b2a1a6a0c8403b9f8938e,24,Mężczyzna,2022-06-11_09h18.44.143,task,2021.1.4,Win32,59.95203837,6299f149e92ead563fba08ef,62a440f686fb395618cd2ccc,,,,,,,,,,,,,,,,,,,,,,,,,,,,,,,,,,,,,,,,,,,,,,,,,,,0,0,0,0,1,,,,,,,,,,,,,,,,,,,,,,,,,,,,,,,,,,,,,,,,,,,,,,
,,,,,,,,,,,,5e4b2a1a6a0c8403b9f8938e,24,Mężczyzna,2022-06-11_09h18.44.143,task,2021.1.4,Win32,59.95203837,6299f149e92ead563fba08ef,62a440f686fb395618cd2ccc,,,,,,,,,,,,,1,,,,,,,,,,Practice,2,(4x4) - 15,1,,,,,,,,,,,,,,,,"[""1""]",1,[1.7169999999999845],1,0,0,0,1,1,,,,,,,,,,,,,,,,,,,,,,,,,,,,,,,,,,,,,,,,,,,,,,,,,,,
,,,,,,,,,,,X V Q F H G B L J M P D K C T S W R N Z,5e4b2a1a6a0c8403b9f8938e,24,Mężczyzna,2022-06-11_09h18.44.143,task,2021.1.4,Win32,59.95203837,6299f149e92ead563fba08ef,62a440f686fb395618cd2ccc,,,,,,,,,,,,,,,,,,,,,,,,,,,,,,,,,,,,,,,,,,,,,,,,,,,1,0,1,0,1,,,,,,,,,,,,,,,,,,,,,,,,,,,,,,,,,,,,,,,,,,,,,,
,,,,,,,,,,,,5e4b2a1a6a0c8403b9f8938e,24,Mężczyzna,2022-06-11_09h18.44.143,task,2021.1.4,Win32,59.95203837,6299f149e92ead563fba08ef,62a440f686fb395618cd2ccc,,,,,,,,,,,,,,,,,,,,,,,,,,,,,,,,,,,,,,,,,,,,,,,,,,,,,,,,zc,"[""z"",""c""]",0,"[1.7889999999999873,1.8419999999999845,2.271000000000072]",1,0,0,0,0,1,,,,,,,,,,,,,,,,,,,,,,,,,,,,,,,,,,,,
,,,,,,,,,,,,5e4b2a1a6a0c8403b9f8938e,24,Mężczyzna,2022-06-11_09h18.44.143,task,2021.1.4,Win32,59.95203837,6299f149e92ead563fba08ef,62a440f686fb395618cd2ccc,,,,,,,,,,,,,2,,,,,,,,,,Practice,3,(4x4) - 14,2,,,,,,,,,,,,,,,,"[""2""]",1,[1.481999999999971],1,0,0,0,2,1,,,,,,,,,,,,,,,,,,,,,,,,,,,,,,,,,,,,,,,,,,,,,,,,,,,
,,,,,,,,,,,X V Q F H G B L J M P D K C T S W R N Z,5e4b2a1a6a0c8403b9f8938e,24,Mężczyzna,2022-06-11_09h18.44.143,task,2021.1.4,Win32,59.95203837,6299f149e92ead563fba08ef,62a440f686fb395618cd2ccc,,,,,,,,,,,,,,,,,,,,,,,,,,,,,,,,,,,,,,,,,,,,,,,,,,,0,0,0,0,1,,,,,,,,,,,,,,,,,,,,,,,,,,,,,,,,,,,,,,,,,,,,,,
,,,,,,,,,,,,5e4b2a1a6a0c8403b9f8938e,24,Mężczyzna,2022-06-11_09h18.44.143,task,2021.1.4,Win32,59.95203837,6299f149e92ead563fba08ef,62a440f686fb395618cd2ccc,,,,,,,,,,,,,,,,,,,,,,,Practice,8,(5x5) - 18,7,,,,,,,,,,,,,,,,,0,,0,0,0,0,7,1,,,,,,,,,,,,,,,,,,,,,,,,,,,,,,,,,,,,,,,,,,,,,,,,,,,
,,,,,,,,,,,,5e4b2a1a6a0c8403b9f8938e,24,Mężczyzna,2022-06-11_09h18.44.143,task,2021.1.4,Win32,59.95203837,6299f149e92ead563fba08ef,62a440f686fb395618cd2ccc,,,,,,,,,,,,,9,,,,,,,,,,Practice,10,(20/2) - 1,9,,,,,,,,,,,,,,,,"[""9""]",1,[2.26299999999992],1,0,1,1,9,1,,,,,,,,,,,,,,,,,,,,,,,,,,,,,,,,,,,,,,,,,,,,,,,,,,,
,,,,,,,,,,,X V Q F H G B L J M P D K C T S W R N Z,5e4b2a1a6a0c8403b9f8938e,24,Mężczyzna,2022-06-11_09h18.44.143,task,2021.1.4,Win32,59.95203837,6299f149e92ead563fba08ef,62a440f686fb395618cd2ccc,,,,,,,,,,,,,,,,,,,,,,,,,,,,,,,,,,,,,,,,,,,,,,,,,,,1,0,1,0,1,,,,,,,,,,,,,,,,,,,,,,,,,,,,,,,,,,,,,,,,,,,,,,
,,,,,,,,,,,,5e4b2a1a6a0c8403b9f8938e,24,Mężczyzna,2022-06-11_09h18.44.143,task,2021.1.4,Win32,59.95203837,6299f149e92ead563fba08ef,62a440f686fb395618cd2ccc,,,,,,,,,,,,,,,,,,,,,,,,,,,,,,,,,,,,,,,,,,,,,,,,,,,,,,,,kr,"[""k"",""r""]",0,"[0.9950000000000045,1.0610000000000355,1.3999999999999773]",1,1,0,1,0,1,,,,,,,,,,,,,,,,,,,,,,,,,,,,,,,,,,,,
,,,,,,,,,,,,5e4b2a1a6a0c8403b9f8938e,24,Mężczyzna,2022-06-11_09h18.44.143,task,2021.1.4,Win32,59.95203837,6299f149e92ead563fba08ef,62a440f686fb395618cd2ccc,,,,,,,,,,,,,2,,,,,,,,,,Practice,3,(4x4) - 14,2,,,,,,,,,,,,,,,,"[""2""]",1,[1.1469999999999345],1,0,0,0,2,1,,,,,,,,,,,,,,,,,,,,,,,,,,,,,,,,,,,,,,,,,,,,,,,,,,,
,,,,,,,,,,,X V Q F H G B L J M P D K C T S W R N Z,5e4b2a1a6a0c8403b9f8938e,24,Mężczyzna,2022-06-11_09h18.44.143,task,2021.1.4,Win32,59.95203837,6299f149e92ead563fba08ef,62a440f686fb395618cd2ccc,,,,,,,,,,,,,,,,,,,,,,,,,,,,,,,,,,,,,,,,,,,,,,,,,,,0,0,0,0,1,,,,,,,,,,,,,,,,,,,,,,,,,,,,,,,,,,,,,,,,,,,,,,
,,,,,,,,,,,,5e4b2a1a6a0c8403b9f8938e,24,Mężczyzna,2022-06-11_09h18.44.143,task,2021.1.4,Win32,59.95203837,6299f149e92ead563fba08ef,62a440f686fb395618cd2ccc,,,,,,,,,,,,,6,,,,,,,,,,Practice,7,(25/5) + 1,6,,,,,,,,,,,,,,,,"[""6""]",1,[1.5590000000000828],1,0,0,0,6,1,,,,,,,,,,,,,,,,,,,,,,,,,,,,,,,,,,,,,,,,,,,,,,,,,,,
,,,,,,,,,,,X V Q F H G B L J M P D K C T S W R N Z,5e4b2a1a6a0c8403b9f8938e,24,Mężczyzna,2022-06-11_09h18.44.143,task,2021.1.4,Win32,59.95203837,6299f149e92ead563fba08ef,62a440f686fb395618cd2ccc,,,,,,,,,,,,,,,,,,,,,,,,,,,,,,,,,,,,,,,,,,,,,,,,,,,1,0,1,0,1,,,,,,,,,,,,,,,,,,,,,,,,,,,,,,,,,,,,,,,,,,,,,,
,,,,,,,,,,,,5e4b2a1a6a0c8403b9f8938e,24,Mężczyzna,2022-06-11_09h18.44.143,task,2021.1.4,Win32,59.95203837,6299f149e92ead563fba08ef,62a440f686fb395618cd2ccc,,,,,,,,,,,,,,,,,,,,,,,,,,,,,,,,,,,,,,,,,,,,,,,,,,,,,,,,qh,"[""q"",""h""]",0,"[1.553000000000111,1.858000000000061,2.1980000000000928]",1,2,0,2,0,1,,,,,,,,,,,,,,,,,,,,,,,,,,,,,,,,,,,,
,,,,,,,,,,,,5e4b2a1a6a0c8403b9f8938e,24,Mężczyzna,2022-06-11_09h18.44.143,task,2021.1.4,Win32,59.95203837,6299f149e92ead563fba08ef,62a440f686fb395618cd2ccc,,,,,,,,,,,,,0,,,,,,,,,,Task,17,(2x3) - 6,0,,,,,,,,,,,,,,,,,,,1,,,,,,,,,,,,,,,,,,,,,space,15.304,"[""0""]",1,[2.052000000000021],0,0,0,16,1,,,,,,,,,,,,,,,,,,,,,,,,,,
,,,,,,,,,,,X V Q F H G B L J M P D K C T S W R N Z,5e4b2a1a6a0c8403b9f8938e,24,Mężczyzna,2022-06-11_09h18.44.143,task,2021.1.4,Win32,59.95203837,6299f149e92ead563fba08ef,62a440f686fb395618cd2ccc,,,,,,,,,,,,,,,,,,,,,,,,,,,,,,,,,,,,,,,,,,,,,,,,,,,,,,,,,,,,,,,,,,,,,,,,,,,,0,0,0,0,1,,,,,,,,,,,,,,,,,,,,,
,,,,,,,,,,,,5e4b2a1a6a0c8403b9f8938e,24,Mężczyzna,2022-06-11_09h18.44.143,task,2021.1.4,Win32,59.95203837,6299f149e92ead563fba08ef,62a440f686fb395618cd2ccc,,,,,,,,,,,,,9,,,,,,,,,,Task,16,(3x8) - 15,9,,,,,,,,,,,,,,,,,,,1,,,,,,,,,,,,,,,,,,,,,,,"[""9""]",1,[2.5049999999999955],0,0,0,15,1,,,,,,,,,,,,,,,,,,,,,,,,,,
,,,,,,,,,,,X V Q F H G B L J M P D K C T S W R N Z,5e4b2a1a6a0c8403b9f8938e,24,Mężczyzna,2022-06-11_09h18.44.143,task,2021.1.4,Win32,59.95203837,6299f149e92ead563fba08ef,62a440f686fb395618cd2ccc,,,,,,,,,,,,,,,,,,,,,,,,,,,,,,,,,,,,,,,,,,,,,,,,,,,,,,,,,,,,,,,,,,,,,,,,,,,,1,0,1,0,1,,,,,,,,,,,,,,,,,,,,,
,,,,,,,,,,,,5e4b2a1a6a0c8403b9f8938e,24,Mężczyzna,2022-06-11_09h18.44.143,task,2021.1.4,Win32,59.95203837,6299f149e92ead563fba08ef,62a440f686fb395618cd2ccc,,,,,,,,,,,,,,,,,,,,,,,,,,,,,,,,,,,,,,,,,,,,,,,,,,,,,,,,,,,,,,,,,,,,,,,,,,,,,,,,,zk,"[""z"",""k""]",0,"[1.0349999999999682,1.1369999999999436,1.7049999999999272]",1,ZK,0,0,0,0,1,,,,,,,,,,
,,,,,,,,,,,,5e4b2a1a6a0c8403b9f8938e,24,Mężczyzna,2022-06-11_09h18.44.143,task,2021.1.4,Win32,59.95203837,6299f149e92ead563fba08ef,62a440f686fb395618cd2ccc,,,,,,,,,,,,,,,,,,,,,,,Task,27,(3/3) + 2,3,,,,,,,,,,,,,,,,,,,0,,,,,,,,,,,,,,,,,,,,,,,,0,,0,0,0,26,1,,,,,,,,,,,,,,,,,,,,,,,,,,
,,,,,,,,,,,,5e4b2a1a6a0c8403b9f8938e,24,Mężczyzna,2022-06-11_09h18.44.143,task,2021.1.4,Win32,59.95203837,6299f149e92ead563fba08ef,62a440f686fb395618cd2ccc,,,,,,,,,,,,,5,,,,,,,,,,Task,12,(4x4) - 11,5,,,,,,,,,,,,,,,,,,,1,,,,,,,,,,,,,,,,,,,,,,,"[""5""]",1,[1.5159999999999627],0,1,1,11,1,,,,,,,,,,,,,,,,,,,,,,,,,,
,,,,,,,,,,,X V Q F H G B L J M P D K C T S W R N Z,5e4b2a1a6a0c8403b9f8938e,24,Mężczyzna,2022-06-11_09h18.44.143,task,2021.1.4,Win32,59.95203837,6299f149e92ead563fba08ef,62a440f686fb395618cd2ccc,,,,,,,,,,,,,,,,,,,,,,,,,,,,,,,,,,,,,,,,,,,,,,,,,,,,,,,,,,,,,,,,,,,,,,,,,,,,0,0,0,0,1,,,,,,,,,,,,,,,,,,,,,
,,,,,,,,,,,,5e4b2a1a6a0c8403b9f8938e,24,Mężczyzna,2022-06-11_09h18.44.143,task,2021.1.4,Win32,59.95203837,6299f149e92ead563fba08ef,62a440f686fb395618cd2ccc,,,,,,,,,,,,,0,,,,,,,,,,Task,17,(2x3) - 6,0,,,,,,,,,,,,,,,,,,,1,,,,,,,,,,,,,,,,,,,,,,,"[""0""]",1,[1.566000000000031],0,0,0,16,1,,,,,,,,,,,,,,,,,,,,,,,,,,
,,,,,,,,,,,X V Q F H G B L J M P D K C T S W R N Z,5e4b2a1a6a0c8403b9f8938e,24,Mężczyzna,2022-06-11_09h18.44.143,task,2021.1.4,Win32,59.95203837,6299f149e92ead563fba08ef,62a440f686fb395618cd2ccc,,,,,,,,,,,,,,,,,,,,,,,,,,,,,,,,,,,,,,,,,,,,,,,,,,,,,,,,,,,,,,,,,,,,,,,,,,,,1,0,1,0,1,,,,,,,,,,,,,,,,,,,,,
,,,,,,,,,,,,5e4b2a1a6a0c8403b9f8938e,24,Mężczyzna,2022-06-11_09h18.44.143,task,2021.1.4,Win32,59.95203837,6299f149e92ead563fba08ef,62a440f686fb395618cd2ccc,,,,,,,,,,,,,3,,,,,,,,,,Task,3,(2x3) - 3,3,,,,,,,,,,,,,,,,,,,1,,,,,,,,,,,,,,,,,,,,,,,"[""3""]",1,[1.705000000000041],0,0,0,2,1,,,,,,,,,,,,,,,,,,,,,,,,,,
,,,,,,,,,,,X V Q F H G B L J M P D K C T S W R N Z,5e4b2a1a6a0c8403b9f8938e,24,Mężczyzna,2022-06-11_09h18.44.143,task,2021.1.4,Win32,59.95203837,6299f149e92ead563fba08ef,62a440f686fb395618cd2ccc,,,,,,,,,,,,,,,,,,,,,,,,,,,,,,,,,,,,,,,,,,,,,,,,,,,,,,,,,,,,,,,,,,,,,,,,,,,,2,0,2,0,1,,,,,,,,,,,,,,,,,,,,,
,,,,,,,,,,,,5e4b2a1a6a0c8403b9f8938e,24,Mężczyzna,2022-06-11_09h18.44.143,task,2021.1.4,Win32,59.95203837,6299f149e92ead563fba08ef,62a440f686fb395618cd2ccc,,,,,,,,,,,,,,,,,,,,,,,,,,,,,,,,,,,,,,,,,,,,,,,,,,,,,,,,,,,,,,,,,,,,,,,,,,,,,,,,,nbs,"[""n"",""b"",""s""]",0,"[1.1889999999999645,1.3379999999999654,1.822999999999979,2.4729999999999563]",1,NBS,1,0,1,0,1,,,,,,,,,,
,,,,,,,,,,,,5e4b2a1a6a0c8403b9f8938e,24,Mężczyzna,2022-06-11_09h18.44.143,task,2021.1.4,Win32,59.95203837,6299f149e92ead563fba08ef,62a440f686fb395618cd2ccc,,,,,,,,,,,,,7,,,,,,,,,,Task,38,(4x6) - 17,7,,,,,,,,,,,,,,,,,,,1,,,,,,,,,,,,,,,,,,,,,,,"[""7""]",1,[1.9800000000000182],0,0,0,37,1,,,,,,,,,,,,,,,,,,,,,,,,,,
,,,,,,,,,,,X V Q F H G B L J M P D K C T S W R N Z,5e4b2a1a6a0c8403b9f8938e,24,Mężczyzna,2022-06-11_09h18.44.143,task,2021.1.4,Win32,59.95203837,6299f149e92ead563fba08ef,62a440f686fb395618cd2ccc,,,,,,,,,,,,,,,,,,,,,,,,,,,,,,,,,,,,,,,,,,,,,,,,,,,,,,,,,,,,,,,,,,,,,,,,,,,,0,0,0,0,1,,,,,,,,,,,,,,,,,,,,,
,,,,,,,,,,,,5e4b2a1a6a0c8403b9f8938e,24,Mężczyzna,2022-06-11_09h18.44.143,task,2021.1.4,Win32,59.95203837,6299f149e92ead563fba08ef,62a440f686fb395618cd2ccc,,,,,,,,,,,,,2,,,,,,,,,,Task,10,(2x5) - 8,2,,,,,,,,,,,,,,,,,,,1,,,,,,,,,,,,,,,,,,,,,,,"[""2""]",1,[1.5950000000000273],0,0,0,9,1,,,,,,,,,,,,,,,,,,,,,,,,,,
,,,,,,,,,,,X V Q F H G B L J M P D K C T S W R N Z,5e4b2a1a6a0c8403b9f8938e,24,Mężczyzna,2022-06-11_09h18.44.143,task,2021.1.4,Win32,59.95203837,6299f149e92ead563fba08ef,62a440f686fb395618cd2ccc,,,,,,,,,,,,,,,,,,,,,,,,,,,,,,,,,,,,,,,,,,,,,,,,,,,,,,,,,,,,,,,,,,,,,,,,,,,,1,0,1,0,1,,,,,,,,,,,,,,,,,,,,,
,,,,,,,,,,,,5e4b2a1a6a0c8403b9f8938e,24,Mężczyzna,2022-06-11_09h18.44.143,task,2021.1.4,Win32,59.95203837,6299f149e92ead563fba08ef,62a440f686fb395618cd2ccc,,,,,,,,,,,,,5,,,,,,,,,,Task,29,(3x8) - 19 ,5,,,,,,,,,,,,,,,,,,,1,,,,,,,,,,,,,,,,,,,,,,,"[""5""]",1,[2.1579999999999018],0,0,0,28,1,,,,,,,,,,,,,,,,,,,,,,,,,,
,,,,,,,,,,,X V Q F H G B L J M P D K C T S W R N Z,5e4b2a1a6a0c8403b9f8938e,24,Mężczyzna,2022-06-11_09h18.44.143,task,2021.1.4,Win32,59.95203837,6299f149e92ead563fba08ef,62a440f686fb395618cd2ccc,,,,,,,,,,,,,,,,,,,,,,,,,,,,,,,,,,,,,,,,,,,,,,,,,,,,,,,,,,,,,,,,,,,,,,,,,,,,2,0,2,0,1,,,,,,,,,,,,,,,,,,,,,
,,,,,,,,,,,,5e4b2a1a6a0c8403b9f8938e,24,Mężczyzna,2022-06-11_09h18.44.143,task,2021.1.4,Win32,59.95203837,6299f149e92ead563fba08ef,62a440f686fb395618cd2ccc,,,,,,,,,,,,,7,,,,,,,,,,Task,6,(12/2) + 1,7,,,,,,,,,,,,,,,,,,,1,,,,,,,,,,,,,,,,,,,,,,,"[""7""]",1,[2.0299999999999727],0,0,0,5,1,,,,,,,,,,,,,,,,,,,,,,,,,,
,,,,,,,,,,,X V Q F H G B L J M P D K C T S W R N Z,5e4b2a1a6a0c8403b9f8938e,24,Mężczyzna,2022-06-11_09h18.44.143,task,2021.1.4,Win32,59.95203837,6299f149e92ead563fba08ef,62a440f686fb395618cd2ccc,,,,,,,,,,,,,,,,,,,,,,,,,,,,,,,,,,,,,,,,,,,,,,,,,,,,,,,,,,,,,,,,,,,,,,,,,,,,3,0,3,0,1,,,,,,,,,,,,,,,,,,,,,
,,,,,,,,,,,,5e4b2a1a6a0c8403b9f8938e,24,Mężczyzna,2022-06-11_09h18.44.143,task,2021.1.4,Win32,59.95203837,6299f149e92ead563fba08ef,62a440f686fb395618cd2ccc,,,,,,,,,,,,,,,,,,,,,,,,,,,,,,,,,,,,,,,,,,,,,,,,,,,,,,,,,,,,,,,,,,,,,,,,,,,,,,,,,tcgc,"[""t"",""c"",""g"",""c""]",0,"[0.9100000000000819,1.2060000000000173,1.461999999999989,1.9050000000000864,2.73700000000008]",1,TCGC,2,0,2,0,1,,,,,,,,,,
,,,,,,,,,,,,5e4b2a1a6a0c8403b9f8938e,24,Mężczyzna,2022-06-11_09h18.44.143,task,2021.1.4,Win32,59.95203837,6299f149e92ead563fba08ef,62a440f686fb395618cd2ccc,,,,,,,,,,,,,0,,,,,,,,,,Task,8,(1x5) - 5,0,,,,,,,,,,,,,,,,,,,1,,,,,,,,,,,,,,,,,,,,,,,"[""0""]",1,[1.6319999999999482],0,0,0,7,1,,,,,,,,,,,,,,,,,,,,,,,,,,
,,,,,,,,,,,X V Q F H G B L J M P D K C T S W R N Z,5e4b2a1a6a0c8403b9f8938e,24,Mężczyzna,2022-06-11_09h18.44.143,task,2021.1.4,Win32,59.95203837,6299f149e92ead563fba08ef,62a440f686fb395618cd2ccc,,,,,,,,,,,,,,,,,,,,,,,,,,,,,,,,,,,,,,,,,,,,,,,,,,,,,,,,,,,,,,,,,,,,,,,,,,,,0,0,0,0,1,,,,,,,,,,,,,,,,,,,,,
,,,,,,,,,,,,5e4b2a1a6a0c8403b9f8938e,24,Mężczyzna,2022-06-11_09h18.44.143,task,2021.1.4,Win32,59.95203837,6299f149e92ead563fba08ef,62a440f686fb395618cd2ccc,,,,,,,,,,,,,5,,,,,,,,,,Task,12,(4x4) - 11,5,,,,,,,,,,,,,,,,,,,1,,,,,,,,,,,,,,,,,,,,,,,"[""5""]",1,[2.5090000000000146],0,0,0,11,1,,,,,,,,,,,,,,,,,,,,,,,,,,
,,,,,,,,,,,X V Q F H G B L J M P D K C T S W R N Z,5e4b2a1a6a0c8403b9f8938e,24,Mężczyzna,2022-06-11_09h18.44.143,task,2021.1.4,Win32,59.95203837,6299f149e92ead563fba08ef,62a440f686fb395618cd2ccc,,,,,,,,,,,,,,,,,,,,,,,,,,,,,,,,,,,,,,,,,,,,,,,,,,,,,,,,,,,,,,,,,,,,,,,,,,,,1,0,1,0,1,,,,,,,,,,,,,,,,,,,,,
,,,,,,,,,,,,5e4b2a1a6a0c8403b9f8938e,24,Mężczyzna,2022-06-11_09h18.44.143,task,2021.1.4,Win32,59.95203837,6299f149e92ead563fba08ef,62a440f686fb395618cd2ccc,,,,,,,,,,,,,9,,,,,,,,,,Task,16,(3x8) - 15,9,,,,,,,,,,,,,,,,,,,1,,,,,,,,,,,,,,,,,,,,,,,"[""9""]",1,[2.3810000000000855],0,0,0,15,1,,,,,,,,,,,,,,,,,,,,,,,,,,
,,,,,,,,,,,X V Q F H G B L J M P D K C T S W R N Z,5e4b2a1a6a0c8403b9f8938e,24,Mężczyzna,2022-06-11_09h18.44.143,task,2021.1.4,Win32,59.95203837,6299f149e92ead563fba08ef,62a440f686fb395618cd2ccc,,,,,,,,,,,,,,,,,,,,,,,,,,,,,,,,,,,,,,,,,,,,,,,,,,,,,,,,,,,,,,,,,,,,,,,,,,,,2,0,2,0,1,,,,,,,,,,,,,,,,,,,,,
,,,,,,,,,,,,5e4b2a1a6a0c8403b9f8938e,24,Mężczyzna,2022-06-11_09h18.44.143,task,2021.1.4,Win32,59.95203837,6299f149e92ead563fba08ef,62a440f686fb395618cd2ccc,,,,,,,,,,,,,2,,,,,,,,,,Task,2,(2x2) - 2,2,,,,,,,,,,,,,,,,,,,1,,,,,,,,,,,,,,,,,,,,,,,"[""2""]",1,[1.4269999999999072],0,0,0,1,1,,,,,,,,,,,,,,,,,,,,,,,,,,
,,,,,,,,,,,X V Q F H G B L J M P D K C T S W R N Z,5e4b2a1a6a0c8403b9f8938e,24,Mężczyzna,2022-06-11_09h18.44.143,task,2021.1.4,Win32,59.95203837,6299f149e92ead563fba08ef,62a440f686fb395618cd2ccc,,,,,,,,,,,,,,,,,,,,,,,,,,,,,,,,,,,,,,,,,,,,,,,,,,,,,,,,,,,,,,,,,,,,,,,,,,,,3,0,3,0,1,,,,,,,,,,,,,,,,,,,,,
,,,,,,,,,,,,5e4b2a1a6a0c8403b9f8938e,24,Mężczyzna,2022-06-11_09h18.44.143,task,2021.1.4,Win32,59.95203837,6299f149e92ead563fba08ef,62a440f686fb395618cd2ccc,,,,,,,,,,,,,7,,,,,,,,,,Task,14,(2x2) + 3,7,,,,,,,,,,,,,,,,,,,1,,,,,,,,,,,,,,,,,,,,,,,"[""7""]",1,[2.7380000000000564],0,0,0,13,1,,,,,,,,,,,,,,,,,,,,,,,,,,
,,,,,,,,,,,X V Q F H G B L J M P D K C T S W R N Z,5e4b2a1a6a0c8403b9f8938e,24,Mężczyzna,2022-06-11_09h18.44.143,task,2021.1.4,Win32,59.95203837,6299f149e92ead563fba08ef,62a440f686fb395618cd2ccc,,,,,,,,,,,,,,,,,,,,,,,,,,,,,,,,,,,,,,,,,,,,,,,,,,,,,,,,,,,,,,,,,,,,,,,,,,,,4,0,4,0,1,,,,,,,,,,,,,,,,,,,,,
,,,,,,,,,,,,5e4b2a1a6a0c8403b9f8938e,24,Mężczyzna,2022-06-11_09h18.44.143,task,2021.1.4,Win32,59.95203837,6299f149e92ead563fba08ef,62a440f686fb395618cd2ccc,,,,,,,,,,,,,,,,,,,,,,,,,,,,,,,,,,,,,,,,,,,,,,,,,,,,,,,,,,,,,,,,,,,,,,,,,,,,,,,,,wmqln,"[""w"",""m"",""q"",""l"",""n""]",0,"[0.9550000000000409,2.5710000000000264,2.703999999999951,4.552999999999997,4.968999999999937,6.418000000000006]",0,WMQNL,3,0,3,0,1,,,,,,,,,,
,,,,,,,,,,,,5e4b2a1a6a0c8403b9f8938e,24,Mężczyzna,2022-06-11_09h18.44.143,task,2021.1.4,Win32,59.95203837,6299f149e92ead563fba08ef,62a440f686fb395618cd2ccc,,,,,,,,,,,,,2,,,,,,,,,,Task,10,(2x5) - 8,2,,,,,,,,,,,,,,,,,,,1,,,,,,,,,,,,,,,,,,,,,,,"[""2""]",1,[1.7649999999999864],0,0,0,9,1,,,,,,,,,,,,,,,,,,,,,,,,,,
,,,,,,,,,,,X V Q F H G B L J M P D K C T S W R N Z,5e4b2a1a6a0c8403b9f8938e,24,Mężczyzna,2022-06-11_09h18.44.143,task,2021.1.4,Win32,59.95203837,6299f149e92ead563fba08ef,62a440f686fb395618cd2ccc,,,,,,,,,,,,,,,,,,,,,,,,,,,,,,,,,,,,,,,,,,,,,,,,,,,,,,,,,,,,,,,,,,,,,,,,,,,,0,0,0,0,1,,,,,,,,,,,,,,,,,,,,,
,,,,,,,,,,,,5e4b2a1a6a0c8403b9f8938e,24,Mężczyzna,2022-06-11_09h18.44.143,task,2021.1.4,Win32,59.95203837,6299f149e92ead563fba08ef,62a440f686fb395618cd2ccc,,,,,,,,,,,,,0,,,,,,,,,,Task,8,(1x5) - 5,0,,,,,,,,,,,,,,,,,,,1,,,,,,,,,,,,,,,,,,,,,,,"[""0""]",1,[1.2289999999999281],0,0,0,7,1,,,,,,,,,,,,,,,,,,,,,,,,,,
,,,,,,,,,,,X V Q F H G B L J M P D K C T S W R N Z,5e4b2a1a6a0c8403b9f8938e,24,Mężczyzna,2022-06-11_09h18.44.143,task,2021.1.4,Win32,59.95203837,6299f149e92ead563fba08ef,62a440f686fb395618cd2ccc,,,,,,,,,,,,,,,,,,,,,,,,,,,,,,,,,,,,,,,,,,,,,,,,,,,,,,,,,,,,,,,,,,,,,,,,,,,,1,0,1,0,1,,,,,,,,,,,,,,,,,,,,,
,,,,,,,,,,,,5e4b2a1a6a0c8403b9f8938e,24,Mężczyzna,2022-06-11_09h18.44.143,task,2021.1.4,Win32,59.95203837,6299f149e92ead563fba08ef,62a440f686fb395618cd2ccc,,,,,,,,,,,,,1,,,,,,,,,,Task,1,(12/6) - 1,1,,,,,,,,,,,,,,,,,,,1,,,,,,,,,,,,,,,,,,,,,,,"[""1""]",1,[3.0389999999999873],0,0,0,0,1,,,,,,,,,,,,,,,,,,,,,,,,,,
,,,,,,,,,,,X V Q F H G B L J M P D K C T S W R N Z,5e4b2a1a6a0c8403b9f8938e,24,Mężczyzna,2022-06-11_09h18.44.143,task,2021.1.4,Win32,59.95203837,6299f149e92ead563fba08ef,62a440f686fb395618cd2ccc,,,,,,,,,,,,,,,,,,,,,,,,,,,,,,,,,,,,,,,,,,,,,,,,,,,,,,,,,,,,,,,,,,,,,,,,,,,,2,0,2,0,1,,,,,,,,,,,,,,,,,,,,,
,,,,,,,,,,,,5e4b2a1a6a0c8403b9f8938e,24,Mężczyzna,2022-06-11_09h18.44.143,task,2021.1.4,Win32,59.95203837,6299f149e92ead563fba08ef,62a440f686fb395618cd2ccc,,,,,,,,,,,,,4,,,,,,,,,,Task,28,(2x5) - 6,4,,,,,,,,,,,,,,,,,,,1,,,,,,,,,,,,,,,,,,,,,,,"[""4""]",1,[1.5149999999999864],0,0,0,27,1,,,,,,,,,,,,,,,,,,,,,,,,,,
,,,,,,,,,,,X V Q F H G B L J M P D K C T S W R N Z,5e4b2a1a6a0c8403b9f8938e,24,Mężczyzna,2022-06-11_09h18.44.143,task,2021.1.4,Win32,59.95203837,6299f149e92ead563fba08ef,62a440f686fb395618cd2ccc,,,,,,,,,,,,,,,,,,,,,,,,,,,,,,,,,,,,,,,,,,,,,,,,,,,,,,,,,,,,,,,,,,,,,,,,,,,,3,0,3,0,1,,,,,,,,,,,,,,,,,,,,,
,,,,,,,,,,,,5e4b2a1a6a0c8403b9f8938e,24,Mężczyzna,2022-06-11_09h18.44.143,task,2021.1.4,Win32,59.95203837,6299f149e92ead563fba08ef,62a440f686fb395618cd2ccc,,,,,,,,,,,,,5,,,,,,,,,,Task,22,(3x1) + 2,5,,,,,,,,,,,,,,,,,,,1,,,,,,,,,,,,,,,,,,,,,,,"[""5""]",1,[1.9600000000000364],0,0,0,21,1,,,,,,,,,,,,,,,,,,,,,,,,,,
,,,,,,,,,,,X V Q F H G B L J M P D K C T S W R N Z,5e4b2a1a6a0c8403b9f8938e,24,Mężczyzna,2022-06-11_09h18.44.143,task,2021.1.4,Win32,59.95203837,6299f149e92ead563fba08ef,62a440f686fb395618cd2ccc,,,,,,,,,,,,,,,,,,,,,,,,,,,,,,,,,,,,,,,,,,,,,,,,,,,,,,,,,,,,,,,,,,,,,,,,,,,,4,0,4,0,1,,,,,,,,,,,,,,,,,,,,,
,,,,,,,,,,,,5e4b2a1a6a0c8403b9f8938e,24,Mężczyzna,2022-06-11_09h18.44.143,task,2021.1.4,Win32,59.95203837,6299f149e92ead563fba08ef,62a440f686fb395618cd2ccc,,,,,,,,,,,,,,,,,,,,,,,,,,,,,,,,,,,,,,,,,,,,,,,,,,,,,,,,,,,,,,,,,,,,,,,,,,,,,,,,,gqjrv,"[""g"",""q"",""j"",""r"",""v""]",0,"[1.9560000000000173,2.576999999999998,3.2760000000000673,3.7110000000000127,4.274000000000001,4.7690000000000055]",1,GQJRV,4,0,4,0,1,,,,,,,,,,
,,,,,,,,,,,,5e4b2a1a6a0c8403b9f8938e,24,Mężczyzna,2022-06-11_09h18.44.143,task,2021.1.4,Win32,59.95203837,6299f149e92ead563fba08ef,62a440f686fb395618cd2ccc,,,,,,,,,,,,,9,,,,,,,,,,Task,7,(3x7) - 12,9,,,,,,,,,,,,,,,,,,,1,,,,,,,,,,,,,,,,,,,,,,,"[""9""]",1,[1.913000000000011],0,0,0,6,1,,,,,,,,,,,,,,,,,,,,,,,,,,
,,,,,,,,,,,X V Q F H G B L J M P D K C T S W R N Z,5e4b2a1a6a0c8403b9f8938e,24,Mężczyzna,2022-06-11_09h18.44.143,task,2021.1.4,Win32,59.95203837,6299f149e92ead563fba08ef,62a440f686fb395618cd2ccc,,,,,,,,,,,,,,,,,,,,,,,,,,,,,,,,,,,,,,,,,,,,,,,,,,,,,,,,,,,,,,,,,,,,,,,,,,,,0,0,0,0,1,,,,,,,,,,,,,,,,,,,,,
,,,,,,,,,,,,5e4b2a1a6a0c8403b9f8938e,24,Mężczyzna,2022-06-11_09h18.44.143,task,2021.1.4,Win32,59.95203837,6299f149e92ead563fba08ef,62a440f686fb395618cd2ccc,,,,,,,,,,,,,2,,,,,,,,,,Task,2,(2x2) - 2,2,,,,,,,,,,,,,,,,,,,1,,,,,,,,,,,,,,,,,,,,,,,"[""2""]",1,[2.0659999999999172],0,0,0,1,1,,,,,,,,,,,,,,,,,,,,,,,,,,
,,,,,,,,,,,X V Q F H G B L J M P D K C T S W R N Z,5e4b2a1a6a0c8403b9f8938e,24,Mężczyzna,2022-06-11_09h18.44.143,task,2021.1.4,Win32,59.95203837,6299f149e92ead563fba08ef,62a440f686fb395618cd2ccc,,,,,,,,,,,,,,,,,,,,,,,,,,,,,,,,,,,,,,,,,,,,,,,,,,,,,,,,,,,,,,,,,,,,,,,,,,,,1,0,1,0,1,,,,,,,,,,,,,,,,,,,,,
,,,,,,,,,,,,5e4b2a1a6a0c8403b9f8938e,24,Mężczyzna,2022-06-11_09h18.44.143,task,2021.1.4,Win32,59.95203837,6299f149e92ead563fba08ef,62a440f686fb395618cd2ccc,,,,,,,,,,,,,0,,,,,,,,,,Task,17,(2x3) - 6,0,,,,,,,,,,,,,,,,,,,1,,,,,,,,,,,,,,,,,,,,,,,"[""0""]",1,[1.4600000000000364],0,0,0,16,1,,,,,,,,,,,,,,,,,,,,,,,,,,
,,,,,,,,,,,X V Q F H G B L J M P D K C T S W R N Z,5e4b2a1a6a0c8403b9f8938e,24,Mężczyzna,2022-06-11_09h18.44.143,task,2021.1.4,Win32,59.95203837,6299f149e92ead563fba08ef,62a440f686fb395618cd2ccc,,,,,,,,,,,,,,,,,,,,,,,,,,,,,,,,,,,,,,,,,,,,,,,,,,,,,,,,,,,,,,,,,,,,,,,,,,,,2,0,2,0,1,,,,,,,,,,,,,,,,,,,,,
,,,,,,,,,,,,5e4b2a1a6a0c8403b9f8938e,24,Mężczyzna,2022-06-11_09h18.44.143,task,2021.1.4,Win32,59.95203837,6299f149e92ead563fba08ef,62a440f686fb395618cd2ccc,,,,,,,,,,,,,0,,,,,,,,,,Task,17,(2x3) - 6,0,,,,,,,,,,,,,,,,,,,1,,,,,,,,,,,,,,,,,,,,,,,"[""0""]",1,[1.6230000000000473],0,0,0,16,1,,,,,,,,,,,,,,,,,,,,,,,,,,
,,,,,,,,,,,X V Q F H G B L J M P D K C T S W R N Z,5e4b2a1a6a0c8403b9f8938e,24,Mężczyzna,2022-06-11_09h18.44.143,task,2021.1.4,Win32,59.95203837,6299f149e92ead563fba08ef,62a440f686fb395618cd2ccc,,,,,,,,,,,,,,,,,,,,,,,,,,,,,,,,,,,,,,,,,,,,,,,,,,,,,,,,,,,,,,,,,,,,,,,,,,,,3,0,3,0,1,,,,,,,,,,,,,,,,,,,,,
,,,,,,,,,,,,5e4b2a1a6a0c8403b9f8938e,24,Mężczyzna,2022-06-11_09h18.44.143,task,2021.1.4,Win32,59.95203837,6299f149e92ead563fba08ef,62a440f686fb395618cd2ccc,,,,,,,,,,,,,6,,,,,,,,,,Task,37,(3/3) + 5,6,,,,,,,,,,,,,,,,,,,1,,,,,,,,,,,,,,,,,,,,,,,"[""6""]",1,[3.16599999999994],0,0,0,36,1,,,,,,,,,,,,,,,,,,,,,,,,,,
,,,,,,,,,,,X V Q F H G B L J M P D K C T S W R N Z,5e4b2a1a6a0c8403b9f8938e,24,Mężczyzna,2022-06-11_09h18.44.143,task,2021.1.4,Win32,59.95203837,6299f149e92ead563fba08ef,62a440f686fb395618cd2ccc,,,,,,,,,,,,,,,,,,,,,,,,,,,,,,,,,,,,,,,,,,,,,,,,,,,,,,,,,,,,,,,,,,,,,,,,,,,,4,0,4,0,1,,,,,,,,,,,,,,,,,,,,,
,,,,,,,,,,,,5e4b2a1a6a0c8403b9f8938e,24,Mężczyzna,2022-06-11_09h18.44.143,task,2021.1.4,Win32,59.95203837,6299f149e92ead563fba08ef,62a440f686fb395618cd2ccc,,,,,,,,,,,,,2,,,,,,,,,,Task,19,(6/2) - 1,2,,,,,,,,,,,,,,,,,,,1,,,,,,,,,,,,,,,,,,,,,,,"[""2""]",1,[2.6779999999999973],0,0,0,18,1,,,,,,,,,,,,,,,,,,,,,,,,,,
,,,,,,,,,,,X V Q F H G B L J M P D K C T S W R N Z,5e4b2a1a6a0c8403b9f8938e,24,Mężczyzna,2022-06-11_09h18.44.143,task,2021.1.4,Win32,59.95203837,6299f149e92ead563fba08ef,62a440f686fb395618cd2ccc,,,,,,,,,,,,,,,,,,,,,,,,,,,,,,,,,,,,,,,,,,,,,,,,,,,,,,,,,,,,,,,,,,,,,,,,,,,,5,0,5,0,1,,,,,,,,,,,,,,,,,,,,,
,,,,,,,,,,,,5e4b2a1a6a0c8403b9f8938e,24,Mężczyzna,2022-06-11_09h18.44.143,task,2021.1.4,Win32,59.95203837,6299f149e92ead563fba08ef,62a440f686fb395618cd2ccc,,,,,,,,,,,,,,,,,,,,,,,,,,,,,,,,,,,,,,,,,,,,,,,,,,,,,,,,,,,,,,,,,,,,,,,,,,,,,,,,,smgdxv,"[""s"",""m"",""g"",""d"",""x"",""v""]",0,"[1.441000000000031,1.856999999999971,3.4569999999999936,3.923000000000002,4.787000000000035,7.090000000000032,7.710000000000036]",0,SMDGXV,5,0,5,0,1,,,,,,,,,,
,,,,,,,,,,,,5e4b2a1a6a0c8403b9f8938e,24,Mężczyzna,2022-06-11_09h18.44.143,task,2021.1.4,Win32,59.95203837,6299f149e92ead563fba08ef,62a440f686fb395618cd2ccc,,,,,,,,,,,,,6,,,,,,,,,,Task,37,(3/3) + 5,6,,,,,,,,,,,,,,,,,,,1,,,,,,,,,,,,,,,,,,,,,,,"[""6""]",1,[2.335999999999899],0,0,0,36,1,,,,,,,,,,,,,,,,,,,,,,,,,,
,,,,,,,,,,,X V Q F H G B L J M P D K C T S W R N Z,5e4b2a1a6a0c8403b9f8938e,24,Mężczyzna,2022-06-11_09h18.44.143,task,2021.1.4,Win32,59.95203837,6299f149e92ead563fba08ef,62a440f686fb395618cd2ccc,,,,,,,,,,,,,,,,,,,,,,,,,,,,,,,,,,,,,,,,,,,,,,,,,,,,,,,,,,,,,,,,,,,,,,,,,,,,0,0,0,0,1,,,,,,,,,,,,,,,,,,,,,
,,,,,,,,,,,,5e4b2a1a6a0c8403b9f8938e,24,Mężczyzna,2022-06-11_09h18.44.143,task,2021.1.4,Win32,59.95203837,6299f149e92ead563fba08ef,62a440f686fb395618cd2ccc,,,,,,,,,,,,,,,,,,,,,,,Task,32,(8/2) + 4,8,,,,,,,,,,,,,,,,,,,0,,,,,,,,,,,,,,,,,,,,,,,,0,,0,0,0,31,1,,,,,,,,,,,,,,,,,,,,,,,,,,
,,,,,,,,,,,,5e4b2a1a6a0c8403b9f8938e,24,Mężczyzna,2022-06-11_09h18.44.143,task,2021.1.4,Win32,59.95203837,6299f149e92ead563fba08ef,62a440f686fb395618cd2ccc,,,,,,,,,,,,,1,,,,,,,,,,Task,18,(16/4) - 3,1,,,,,,,,,,,,,,,,,,,1,,,,,,,,,,,,,,,,,,,,,,,"[""1""]",1,[2.4169999999999163],0,1,1,17,1,,,,,,,,,,,,,,,,,,,,,,,,,,
,,,,,,,,,,,X V Q F H G B L J M P D K C T S W R N Z,5e4b2a1a6a0c8403b9f8938e,24,Mężczyzna,2022-06-11_09h18.44.143,task,2021.1.4,Win32,59.95203837,6299f149e92ead563fba08ef,62a440f686fb395618cd2ccc,,,,,,,,,,,,,,,,,,,,,,,,,,,,,,,,,,,,,,,,,,,,,,,,,,,,,,,,,,,,,,,,,,,,,,,,,,,,1,0,1,0,1,,,,,,,,,,,,,,,,,,,,,
,,,,,,,,,,,,5e4b2a1a6a0c8403b9f8938e,24,Mężczyzna,2022-06-11_09h18.44.143,task,2021.1.4,Win32,59.95203837,6299f149e92ead563fba08ef,62a440f686fb395618cd2ccc,,,,,,,,,,,,,0,,,,,,,,,,Task,25,(10/5) - 2,0,,,,,,,,,,,,,,,,,,,1,,,,,,,,,,,,,,,,,,,,,,,"[""0""]",1,[2.312000000000012],0,0,0,24,1,,,,,,,,,,,,,,,,,,,,,,,,,,
,,,,,,,,,,,X V Q F H G B L J M P D K C T S W R N Z,5e4b2a1a6a0c8403b9f8938e,24,Mężczyzna,2022-06-11_09h18.44.143,task,2021.1.4,Win32,59.95203837,6299f149e92ead563fba08ef,62a440f686fb395618cd2ccc,,,,,,,,,,,,,,,,,,,,,,,,,,,,,,,,,,,,,,,,,,,,,,,,,,,,,,,,,,,,,,,,,,,,,,,,,,,,2,0,2,0,1,,,,,,,,,,,,,,,,,,,,,
,,,,,,,,,,,,5e4b2a1a6a0c8403b9f8938e,24,Mężczyzna,2022-06-11_09h18.44.143,task,2021.1.4,Win32,59.95203837,6299f149e92ead563fba08ef,62a440f686fb395618cd2ccc,,,,,,,,,,,,,,,,,,,,,,,Task,13,(3x4) - 6,6,,,,,,,,,,,,,,,,,,,0,,,,,,,,,,,,,,,,,,,,,,,,0,,0,0,0,12,1,,,,,,,,,,,,,,,,,,,,,,,,,,
,,,,,,,,,,,,5e4b2a1a6a0c8403b9f8938e,24,Mężczyzna,2022-06-11_09h18.44.143,task,2021.1.4,Win32,59.95203837,6299f149e92ead563fba08ef,62a440f686fb395618cd2ccc,,,,,,,,,,,,,2,,,,,,,,,,Task,10,(2x5) - 8,2,,,,,,,,,,,,,,,,,,,1,,,,,,,,,,,,,,,,,,,,,,,"[""2""]",1,[1.4500000000000455],0,1,1,9,1,,,,,,,,,,,,,,,,,,,,,,,,,,
,,,,,,,,,,,X V Q F H G B L J M P D K C T S W R N Z,5e4b2a1a6a0c8403b9f8938e,24,Mężczyzna,2022-06-11_09h18.44.143,task,2021.1.4,Win32,59.95203837,6299f149e92ead563fba08ef,62a440f686fb395618cd2ccc,,,,,,,,,,,,,,,,,,,,,,,,,,,,,,,,,,,,,,,,,,,,,,,,,,,,,,,,,,,,,,,,,,,,,,,,,,,,3,0,3,0,1,,,,,,,,,,,,,,,,,,,,,
,,,,,,,,,,,,5e4b2a1a6a0c8403b9f8938e,24,Mężczyzna,2022-06-11_09h18.44.143,task,2021.1.4,Win32,59.95203837,6299f149e92ead563fba08ef,62a440f686fb395618cd2ccc,,,,,,,,,,,,,2,,,,,,,,,,Task,2,(2x2) - 2,2,,,,,,,,,,,,,,,,,,,1,,,,,,,,,,,,,,,,,,,,,,,"[""2""]",1,[1.7309999999999945],0,0,0,1,1,,,,,,,,,,,,,,,,,,,,,,,,,,
,,,,,,,,,,,X V Q F H G B L J M P D K C T S W R N Z,5e4b2a1a6a0c8403b9f8938e,24,Mężczyzna,2022-06-11_09h18.44.143,task,2021.1.4,Win32,59.95203837,6299f149e92ead563fba08ef,62a440f686fb395618cd2ccc,,,,,,,,,,,,,,,,,,,,,,,,,,,,,,,,,,,,,,,,,,,,,,,,,,,,,,,,,,,,,,,,,,,,,,,,,,,,4,0,4,0,1,,,,,,,,,,,,,,,,,,,,,
,,,,,,,,,,,,5e4b2a1a6a0c8403b9f8938e,24,Mężczyzna,2022-06-11_09h18.44.143,task,2021.1.4,Win32,59.95203837,6299f149e92ead563fba08ef,62a440f686fb395618cd2ccc,,,,,,,,,,,,,1,,,,,,,,,,Task,18,(16/4) - 3,1,,,,,,,,,,,,,,,,,,,1,,,,,,,,,,,,,,,,,,,,,,,"[""1""]",1,[2.2649999999999864],0,0,0,17,1,,,,,,,,,,,,,,,,,,,,,,,,,,
,,,,,,,,,,,X V Q F H G B L J M P D K C T S W R N Z,5e4b2a1a6a0c8403b9f8938e,24,Mężczyzna,2022-06-11_09h18.44.143,task,2021.1.4,Win32,59.95203837,6299f149e92ead563fba08ef,62a440f686fb395618cd2ccc,,,,,,,,,,,,,,,,,,,,,,,,,,,,,,,,,,,,,,,,,,,,,,,,,,,,,,,,,,,,,,,,,,,,,,,,,,,,5,0,5,0,1,,,,,,,,,,,,,,,,,,,,,
,,,,,,,,,,,,5e4b2a1a6a0c8403b9f8938e,24,Mężczyzna,2022-06-11_09h18.44.143,task,2021.1.4,Win32,59.95203837,6299f149e92ead563fba08ef,62a440f686fb395618cd2ccc,,,,,,,,,,,,,,,,,,,,,,,,,,,,,,,,,,,,,,,,,,,,,,,,,,,,,,,,,,,,,,,,,,,,,,,,,,,,,,,,,lphxrx,"[""l"",""p"",""h"",""x"",""r"",""x""]",0,"[1.5720000000000027,1.622000000000071,1.9080000000000155,1.9780000000000655,2.3870000000000573,2.586999999999989,3.3619999999999663]",1,LPHXRX,6,0,6,0,1,,,,,,,,,,
,,,,,,,,,,,,5e4b2a1a6a0c8403b9f8938e,24,Mężczyzna,2022-06-11_09h18.44.143,task,2021.1.4,Win32,59.95203837,6299f149e92ead563fba08ef,62a440f686fb395618cd2ccc,,,,,,,,,,,,,6,,,,,,,,,,Task,5,(2x3) + 0,6,,,,,,,,,,,,,,,,,,,1,,,,,,,,,,,,,,,,,,,,,,,"[""6""]",1,[1.7799999999999727],0,0,0,4,1,,,,,,,,,,,,,,,,,,,,,,,,,,
,,,,,,,,,,,X V Q F H G B L J M P D K C T S W R N Z,5e4b2a1a6a0c8403b9f8938e,24,Mężczyzna,2022-06-11_09h18.44.143,task,2021.1.4,Win32,59.95203837,6299f149e92ead563fba08ef,62a440f686fb395618cd2ccc,,,,,,,,,,,,,,,,,,,,,,,,,,,,,,,,,,,,,,,,,,,,,,,,,,,,,,,,,,,,,,,,,,,,,,,,,,,,0,0,0,0,1,,,,,,,,,,,,,,,,,,,,,
,,,,,,,,,,,,5e4b2a1a6a0c8403b9f8938e,24,Mężczyzna,2022-06-11_09h18.44.143,task,2021.1.4,Win32,59.95203837,6299f149e92ead563fba08ef,62a440f686fb395618cd2ccc,,,,,,,,,,,,,3,,,,,,,,,,Task,27,(3/3) + 2,3,,,,,,,,,,,,,,,,,,,1,,,,,,,,,,,,,,,,,,,,,,,"[""3""]",1,[1.8659999999999854],0,0,0,26,1,,,,,,,,,,,,,,,,,,,,,,,,,,
,,,,,,,,,,,X V Q F H G B L J M P D K C T S W R N Z,5e4b2a1a6a0c8403b9f8938e,24,Mężczyzna,2022-06-11_09h18.44.143,task,2021.1.4,Win32,59.95203837,6299f149e92ead563fba08ef,62a440f686fb395618cd2ccc,,,,,,,,,,,,,,,,,,,,,,,,,,,,,,,,,,,,,,,,,,,,,,,,,,,,,,,,,,,,,,,,,,,,,,,,,,,,1,0,1,0,1,,,,,,,,,,,,,,,,,,,,,
,,,,,,,,,,,,5e4b2a1a6a0c8403b9f8938e,24,Mężczyzna,2022-06-11_09h18.44.143,task,2021.1.4,Win32,59.95203837,6299f149e92ead563fba08ef,62a440f686fb395618cd2ccc,,,,,,,,,,,,,8,,,,,,,,,,Task,23,(2x3) + 2,8,,,,,,,,,,,,,,,,,,,1,,,,,,,,,,,,,,,,,,,,,,,"[""8""]",1,[2.0120000000000573],0,0,0,22,1,,,,,,,,,,,,,,,,,,,,,,,,,,
,,,,,,,,,,,X V Q F H G B L J M P D K C T S W R N Z,5e4b2a1a6a0c8403b9f8938e,24,Mężczyzna,2022-06-11_09h18.44.143,task,2021.1.4,Win32,59.95203837,6299f149e92ead563fba08ef,62a440f686fb395618cd2ccc,,,,,,,,,,,,,,,,,,,,,,,,,,,,,,,,,,,,,,,,,,,,,,,,,,,,,,,,,,,,,,,,,,,,,,,,,,,,2,0,2,0,1,,,,,,,,,,,,,,,,,,,,,
,,,,,,,,,,,,5e4b2a1a6a0c8403b9f8938e,24,Mężczyzna,2022-06-11_09h18.44.143,task,2021.1.4,Win32,59.95203837,6299f149e92ead563fba08ef,62a440f686fb395618cd2ccc,,,,,,,,,,,,,9,,,,,,,,,,Task,40,(7x2) - 5,9,,,,,,,,,,,,,,,,,,,1,,,,,,,,,,,,,,,,,,,,,,,"[""9""]",1,[1.7569999999999482],0,0,0,39,1,,,,,,,,,,,,,,,,,,,,,,,,,,
,,,,,,,,,,,X V Q F H G B L J M P D K C T S W R N Z,5e4b2a1a6a0c8403b9f8938e,24,Mężczyzna,2022-06-11_09h18.44.143,task,2021.1.4,Win32,59.95203837,6299f149e92ead563fba08ef,62a440f686fb395618cd2ccc,,,,,,,,,,,,,,,,,,,,,,,,,,,,,,,,,,,,,,,,,,,,,,,,,,,,,,,,,,,,,,,,,,,,,,,,,,,,3,0,3,0,1,,,,,,,,,,,,,,,,,,,,,
,,,,,,,,,,,,5e4b2a1a6a0c8403b9f8938e,24,Mężczyzna,2022-06-11_09h18.44.143,task,2021.1.4,Win32,59.95203837,6299f149e92ead563fba08ef,62a440f686fb395618cd2ccc,,,,,,,,,,,,,9,,,,,,,,,,Task,40,(7x2) - 5,9,,,,,,,,,,,,,,,,,,,1,,,,,,,,,,,,,,,,,,,,,,,"[""9""]",1,[1.6050000000000182],0,0,0,39,1,,,,,,,,,,,,,,,,,,,,,,,,,,
,,,,,,,,,,,X V Q F H G B L J M P D K C T S W R N Z,5e4b2a1a6a0c8403b9f8938e,24,Mężczyzna,2022-06-11_09h18.44.143,task,2021.1.4,Win32,59.95203837,6299f149e92ead563fba08ef,62a440f686fb395618cd2ccc,,,,,,,,,,,,,,,,,,,,,,,,,,,,,,,,,,,,,,,,,,,,,,,,,,,,,,,,,,,,,,,,,,,,,,,,,,,,4,0,4,0,1,,,,,,,,,,,,,,,,,,,,,
,,,,,,,,,,,,5e4b2a1a6a0c8403b9f8938e,24,Mężczyzna,2022-06-11_09h18.44.143,task,2021.1.4,Win32,59.95203837,6299f149e92ead563fba08ef,62a440f686fb395618cd2ccc,,,,,,,,,,,,,1,,,,,,,,,,Task,9,(3x7) - 20,1,,,,,,,,,,,,,,,,,,,1,,,,,,,,,,,,,,,,,,,,,,,"[""1""]",1,[2.5130000000000337],0,0,0,8,1,,,,,,,,,,,,,,,,,,,,,,,,,,
,,,,,,,,,,,X V Q F H G B L J M P D K C T S W R N Z,5e4b2a1a6a0c8403b9f8938e,24,Mężczyzna,2022-06-11_09h18.44.143,task,2021.1.4,Win32,59.95203837,6299f149e92ead563fba08ef,62a440f686fb395618cd2ccc,,,,,,,,,,,,,,,,,,,,,,,,,,,,,,,,,,,,,,,,,,,,,,,,,,,,,,,,,,,,,,,,,,,,,,,,,,,,5,0,5,0,1,,,,,,,,,,,,,,,,,,,,,
,,,,,,,,,,,,5e4b2a1a6a0c8403b9f8938e,24,Mężczyzna,2022-06-11_09h18.44.143,task,2021.1.4,Win32,59.95203837,6299f149e92ead563fba08ef,62a440f686fb395618cd2ccc,,,,,,,,,,,,,8,,,,,,,,,,Task,23,(2x3) + 2,8,,,,,,,,,,,,,,,,,,,1,,,,,,,,,,,,,,,,,,,,,,,"[""8""]",1,[2.7250000000000227],0,0,0,22,1,,,,,,,,,,,,,,,,,,,,,,,,,,
,,,,,,,,,,,X V Q F H G B L J M P D K C T S W R N Z,5e4b2a1a6a0c8403b9f8938e,24,Mężczyzna,2022-06-11_09h18.44.143,task,2021.1.4,Win32,59.95203837,6299f149e92ead563fba08ef,62a440f686fb395618cd2ccc,,,,,,,,,,,,,,,,,,,,,,,,,,,,,,,,,,,,,,,,,,,,,,,,,,,,,,,,,,,,,,,,,,,,,,,,,,,,6,0,6,0,1,,,,,,,,,,,,,,,,,,,,,
,,,,,,,,,,,,5e4b2a1a6a0c8403b9f8938e,24,Mężczyzna,2022-06-11_09h18.44.143,task,2021.1.4,Win32,59.95203837,6299f149e92ead563fba08ef,62a440f686fb395618cd2ccc,,,,,,,,,,,,,,,,,,,,,,,,,,,,,,,,,,,,,,,,,,,,,,,,,,,,,,,,,,,,,,,,,,,,,,,,,,,,,,,,,fnxjgrt,"[""f"",""n"",""x"",""j"",""g"",""r"",""t""]",0,"[2.1789999999999736,2.606999999999971,3.7379999999999427,4.218999999999937,4.602999999999952,5.0049999999999955,5.475999999999999,6.140999999999963]",1,FNXJGRT,7,0,7,0,1,,,,,,,,,,
,,,,,,,,,,,,5e4b2a1a6a0c8403b9f8938e,24,Mężczyzna,2022-06-11_09h18.44.143,task,2021.1.4,Win32,59.95203837,6299f149e92ead563fba08ef,62a440f686fb395618cd2ccc,,,,,,,,,,,,,4,,,,,,,,,,Task,28,(2x5) - 6,4,,,,,,,,,,,,,,,,,,,1,,,,,,,,,,,,,,,,,,,,,,,"[""4""]",1,[2.0790000000000646],0,0,0,27,1,,,,,,,,,,,,,,,,,,,,,,,,,,
,,,,,,,,,,,X V Q F H G B L J M P D K C T S W R N Z,5e4b2a1a6a0c8403b9f8938e,24,Mężczyzna,2022-06-11_09h18.44.143,task,2021.1.4,Win32,59.95203837,6299f149e92ead563fba08ef,62a440f686fb395618cd2ccc,,,,,,,,,,,,,,,,,,,,,,,,,,,,,,,,,,,,,,,,,,,,,,,,,,,,,,,,,,,,,,,,,,,,,,,,,,,,0,0,0,0,1,,,,,,,,,,,,,,,,,,,,,
,,,,,,,,,,,,5e4b2a1a6a0c8403b9f8938e,24,Mężczyzna,2022-06-11_09h18.44.143,task,2021.1.4,Win32,59.95203837,6299f149e92ead563fba08ef,62a440f686fb395618cd2ccc,,,,,,,,,,,,,4,,,,,,,,,,Task,32,(8/2) + 4,8,,,,,,,,,,,,,,,,,,,0,,,,,,,,,,,,,,,,,,,,,,,"[""4""]",0,[2.4700000000000273],0,0,0,31,1,,,,,,,,,,,,,,,,,,,,,,,,,,
,,,,,,,,,,,,5e4b2a1a6a0c8403b9f8938e,24,Mężczyzna,2022-06-11_09h18.44.143,task,2021.1.4,Win32,59.95203837,6299f149e92ead563fba08ef,62a440f686fb395618cd2ccc,,,,,,,,,,,,,0,,,,,,,,,,Task,33,(1/1) - 1,0,,,,,,,,,,,,,,,,,,,1,,,,,,,,,,,,,,,,,,,,,,,"[""0""]",1,[1.875],0,1,1,32,1,,,,,,,,,,,,,,,,,,,,,,,,,,
,,,,,,,,,,,X V Q F H G B L J M P D K C T S W R N Z,5e4b2a1a6a0c8403b9f8938e,24,Mężczyzna,2022-06-11_09h18.44.143,task,2021.1.4,Win32,59.95203837,6299f149e92ead563fba08ef,62a440f686fb395618cd2ccc,,,,,,,,,,,,,,,,,,,,,,,,,,,,,,,,,,,,,,,,,,,,,,,,,,,,,,,,,,,,,,,,,,,,,,,,,,,,1,0,1,0,1,,,,,,,,,,,,,,,,,,,,,
,,,,,,,,,,,,5e4b2a1a6a0c8403b9f8938e,24,Mężczyzna,2022-06-11_09h18.44.143,task,2021.1.4,Win32,59.95203837,6299f149e92ead563fba08ef,62a440f686fb395618cd2ccc,,,,,,,,,,,,,4,,,,,,,,,,Task,11,(18/3) - 2,4,,,,,,,,,,,,,,,,,,,1,,,,,,,,,,,,,,,,,,,,,,,"[""4""]",1,[1.8679999999999382],0,0,0,10,1,,,,,,,,,,,,,,,,,,,,,,,,,,
,,,,,,,,,,,X V Q F H G B L J M P D K C T S W R N Z,5e4b2a1a6a0c8403b9f8938e,24,Mężczyzna,2022-06-11_09h18.44.143,task,2021.1.4,Win32,59.95203837,6299f149e92ead563fba08ef,62a440f686fb395618cd2ccc,,,,,,,,,,,,,,,,,,,,,,,,,,,,,,,,,,,,,,,,,,,,,,,,,,,,,,,,,,,,,,,,,,,,,,,,,,,,2,0,2,0,1,,,,,,,,,,,,,,,,,,,,,
,,,,,,,,,,,,5e4b2a1a6a0c8403b9f8938e,24,Mężczyzna,2022-06-11_09h18.44.143,task,2021.1.4,Win32,59.95203837,6299f149e92ead563fba08ef,62a440f686fb395618cd2ccc,,,,,,,,,,,,,4,,,,,,,,,,Task,11,(18/3) - 2,4,,,,,,,,,,,,,,,,,,,1,,,,,,,,,,,,,,,,,,,,,,,"[""4""]",1,[1.8759999999999764],0,0,0,10,1,,,,,,,,,,,,,,,,,,,,,,,,,,
,,,,,,,,,,,X V Q F H G B L J M P D K C T S W R N Z,5e4b2a1a6a0c8403b9f8938e,24,Mężczyzna,2022-06-11_09h18.44.143,task,2021.1.4,Win32,59.95203837,6299f149e92ead563fba08ef,62a440f686fb395618cd2ccc,,,,,,,,,,,,,,,,,,,,,,,,,,,,,,,,,,,,,,,,,,,,,,,,,,,,,,,,,,,,,,,,,,,,,,,,,,,,3,0,3,0,1,,,,,,,,,,,,,,,,,,,,,
,,,,,,,,,,,,5e4b2a1a6a0c8403b9f8938e,24,Mężczyzna,2022-06-11_09h18.44.143,task,2021.1.4,Win32,59.95203837,6299f149e92ead563fba08ef,62a440f686fb395618cd2ccc,,,,,,,,,,,,,1,,,,,,,,,,Task,18,(16/4) - 3,1,,,,,,,,,,,,,,,,,,,1,,,,,,,,,,,,,,,,,,,,,,,"[""1""]",1,[1.2430000000000518],0,0,0,17,1,,,,,,,,,,,,,,,,,,,,,,,,,,
,,,,,,,,,,,X V Q F H G B L J M P D K C T S W R N Z,5e4b2a1a6a0c8403b9f8938e,24,Mężczyzna,2022-06-11_09h18.44.143,task,2021.1.4,Win32,59.95203837,6299f149e92ead563fba08ef,62a440f686fb395618cd2ccc,,,,,,,,,,,,,,,,,,,,,,,,,,,,,,,,,,,,,,,,,,,,,,,,,,,,,,,,,,,,,,,,,,,,,,,,,,,,4,0,4,0,1,,,,,,,,,,,,,,,,,,,,,
,,,,,,,,,,,,5e4b2a1a6a0c8403b9f8938e,24,Mężczyzna,2022-06-11_09h18.44.143,task,2021.1.4,Win32,59.95203837,6299f149e92ead563fba08ef,62a440f686fb395618cd2ccc,,,,,,,,,,,,,87,,,,,,,,,,Task,15,(3x7) - 13,8,,,,,,,,,,,,,,,,,,,0,,,,,,,,,,,,,,,,,,,,,,,"[""8"",""7""]",0,"[2.074000000000069,2.076000000000022]",0,0,0,14,1,,,,,,,,,,,,,,,,,,,,,,,,,,
,,,,,,,,,,,,5e4b2a1a6a0c8403b9f8938e,24,Mężczyzna,2022-06-11_09h18.44.143,task,2021.1.4,Win32,59.95203837,6299f149e92ead563fba08ef,62a440f686fb395618cd2ccc,,,,,,,,,,,,,0,,,,,,,,,,Task,17,(2x3) - 6,0,,,,,,,,,,,,,,,,,,,1,,,,,,,,,,,,,,,,,,,,,,,"[""0""]",1,[1.4510000000000218],0,1,1,16,1,,,,,,,,,,,,,,,,,,,,,,,,,,
,,,,,,,,,,,X V Q F H G B L J M P D K C T S W R N Z,5e4b2a1a6a0c8403b9f8938e,24,Mężczyzna,2022-06-11_09h18.44.143,task,2021.1.4,Win32,59.95203837,6299f149e92ead563fba08ef,62a440f686fb395618cd2ccc,,,,,,,,,,,,,,,,,,,,,,,,,,,,,,,,,,,,,,,,,,,,,,,,,,,,,,,,,,,,,,,,,,,,,,,,,,,,5,0,5,0,1,,,,,,,,,,,,,,,,,,,,,
,,,,,,,,,,,,5e4b2a1a6a0c8403b9f8938e,24,Mężczyzna,2022-06-11_09h18.44.143,task,2021.1.4,Win32,59.95203837,6299f149e92ead563fba08ef,62a440f686fb395618cd2ccc,,,,,,,,,,,,,,,,,,,,,,,Task,11,(18/3) - 2,4,,,,,,,,,,,,,,,,,,,0,,,,,,,,,,,,,,,,,,,,,,,,0,,0,0,0,10,1,,,,,,,,,,,,,,,,,,,,,,,,,,
,,,,,,,,,,,,5e4b2a1a6a0c8403b9f8938e,24,Mężczyzna,2022-06-11_09h18.44.143,task,2021.1.4,Win32,59.95203837,6299f149e92ead563fba08ef,62a440f686fb395618cd2ccc,,,,,,,,,,,,,2,,,,,,,,,,Task,26,(2x9) - 16,2,,,,,,,,,,,,,,,,,,,1,,,,,,,,,,,,,,,,,,,,,,,"[""2""]",1,[1.6189999999999145],0,1,1,25,1,,,,,,,,,,,,,,,,,,,,,,,,,,
,,,,,,,,,,,X V Q F H G B L J M P D K C T S W R N Z,5e4b2a1a6a0c8403b9f8938e,24,Mężczyzna,2022-06-11_09h18.44.143,task,2021.1.4,Win32,59.95203837,6299f149e92ead563fba08ef,62a440f686fb395618cd2ccc,,,,,,,,,,,,,,,,,,,,,,,,,,,,,,,,,,,,,,,,,,,,,,,,,,,,,,,,,,,,,,,,,,,,,,,,,,,,6,0,6,0,1,,,,,,,,,,,,,,,,,,,,,
,,,,,,,,,,,,5e4b2a1a6a0c8403b9f8938e,24,Mężczyzna,2022-06-11_09h18.44.143,task,2021.1.4,Win32,59.95203837,6299f149e92ead563fba08ef,62a440f686fb395618cd2ccc,,,,,,,,,,,,,6,,,,,,,,,,Task,30,(6/3) + 4 ,6,,,,,,,,,,,,,,,,,,,1,,,,,,,,,,,,,,,,,,,,,,,"[""6""]",1,[2.6560000000000628],0,0,0,29,1,,,,,,,,,,,,,,,,,,,,,,,,,,
,,,,,,,,,,,X V Q F H G B L J M P D K C T S W R N Z,5e4b2a1a6a0c8403b9f8938e,24,Mężczyzna,2022-06-11_09h18.44.143,task,2021.1.4,Win32,59.95203837,6299f149e92ead563fba08ef,62a440f686fb395618cd2ccc,,,,,,,,,,,,,,,,,,,,,,,,,,,,,,,,,,,,,,,,,,,,,,,,,,,,,,,,,,,,,,,,,,,,,,,,,,,,7,0,7,0,1,,,,,,,,,,,,,,,,,,,,,
,,,,,,,,,,,,5e4b2a1a6a0c8403b9f8938e,24,Mężczyzna,2022-06-11_09h18.44.143,task,2021.1.4,Win32,59.95203837,6299f149e92ead563fba08ef,62a440f686fb395618cd2ccc,,,,,,,,,,,,,,,,,,,,,,,,,,,,,,,,,,,,,,,,,,,,,,,,,,,,,,,,,,,,,,,,,,,,,,,,,,,,,,,,,vfnqpzgb,"[""v"",""f"",""n"",""q"",""p"",""z"",""g"",""b""]",0,"[5.125999999999976,5.201999999999998,5.40300000000002,6.468999999999937,7.236999999999966,7.4360000000000355,7.793999999999983,8.727999999999952,9.355000000000018]",0,VFNQPBZD,8,0,8,0,1,,,,,,,,,,
,,,,,,,,,,,,5e4b2a1a6a0c8403b9f8938e,24,Mężczyzna,2022-06-11_09h18.44.143,task,2021.1.4,Win32,59.95203837,6299f149e92ead563fba08ef,62a440f686fb395618cd2ccc,,,,,,,,,,,,,1,,,,,,,,,,Task,18,(16/4) - 3,1,,,,,,,,,,,,,,,,,,,1,,,,,,,,,,,,,,,,,,,,,,,"[""1""]",1,[2.0810000000000173],0,0,0,17,1,,,,,,,,,,,,,,,,,,,,,,,,,,
,,,,,,,,,,,X V Q F H G B L J M P D K C T S W R N Z,5e4b2a1a6a0c8403b9f8938e,24,Mężczyzna,2022-06-11_09h18.44.143,task,2021.1.4,Win32,59.95203837,6299f149e92ead563fba08ef,62a440f686fb395618cd2ccc,,,,,,,,,,,,,,,,,,,,,,,,,,,,,,,,,,,,,,,,,,,,,,,,,,,,,,,,,,,,,,,,,,,,,,,,,,,,0,0,0,0,1,,,,,,,,,,,,,,,,,,,,,
,,,,,,,,,,,,5e4b2a1a6a0c8403b9f8938e,24,Mężczyzna,2022-06-11_09h18.44.143,task,2021.1.4,Win32,59.95203837,6299f149e92ead563fba08ef,62a440f686fb395618cd2ccc,,,,,,,,,,,,,8,,,,,,,,,,Task,15,(3x7) - 13,8,,,,,,,,,,,,,,,,,,,1,,,,,,,,,,,,,,,,,,,,,,,"[""8""]",1,[1.3530000000000655],0,0,0,14,1,,,,,,,,,,,,,,,,,,,,,,,,,,
,,,,,,,,,,,X V Q F H G B L J M P D K C T S W R N Z,5e4b2a1a6a0c8403b9f8938e,24,Mężczyzna,2022-06-11_09h18.44.143,task,2021.1.4,Win32,59.95203837,6299f149e92ead563fba08ef,62a440f686fb395618cd2ccc,,,,,,,,,,,,,,,,,,,,,,,,,,,,,,,,,,,,,,,,,,,,,,,,,,,,,,,,,,,,,,,,,,,,,,,,,,,,1,0,1,0,1,,,,,,,,,,,,,,,,,,,,,
,,,,,,,,,,,,5e4b2a1a6a0c8403b9f8938e,24,Mężczyzna,2022-06-11_09h18.44.143,task,2021.1.4,Win32,59.95203837,6299f149e92ead563fba08ef,62a440f686fb395618cd2ccc,,,,,,,,,,,,,1,,,,,,,,,,Task,1,(12/6) - 1,1,,,,,,,,,,,,,,,,,,,1,,,,,,,,,,,,,,,,,,,,,,,"[""1""]",1,[1.8260000000000218],0,0,0,0,1,,,,,,,,,,,,,,,,,,,,,,,,,,
,,,,,,,,,,,X V Q F H G B L J M P D K C T S W R N Z,5e4b2a1a6a0c8403b9f8938e,24,Mężczyzna,2022-06-11_09h18.44.143,task,2021.1.4,Win32,59.95203837,6299f149e92ead563fba08ef,62a440f686fb395618cd2ccc,,,,,,,,,,,,,,,,,,,,,,,,,,,,,,,,,,,,,,,,,,,,,,,,,,,,,,,,,,,,,,,,,,,,,,,,,,,,2,0,2,0,1,,,,,,,,,,,,,,,,,,,,,
,,,,,,,,,,,,5e4b2a1a6a0c8403b9f8938e,24,Mężczyzna,2022-06-11_09h18.44.143,task,2021.1.4,Win32,59.95203837,6299f149e92ead563fba08ef,62a440f686fb395618cd2ccc,,,,,,,,,,,,,6,,,,,,,,,,Task,30,(6/3) + 4 ,6,,,,,,,,,,,,,,,,,,,1,,,,,,,,,,,,,,,,,,,,,,,"[""6""]",1,[2.356999999999971],0,0,0,29,1,,,,,,,,,,,,,,,,,,,,,,,,,,
,,,,,,,,,,,X V Q F H G B L J M P D K C T S W R N Z,5e4b2a1a6a0c8403b9f8938e,24,Mężczyzna,2022-06-11_09h18.44.143,task,2021.1.4,Win32,59.95203837,6299f149e92ead563fba08ef,62a440f686fb395618cd2ccc,,,,,,,,,,,,,,,,,,,,,,,,,,,,,,,,,,,,,,,,,,,,,,,,,,,,,,,,,,,,,,,,,,,,,,,,,,,,3,0,3,0,1,,,,,,,,,,,,,,,,,,,,,
,,,,,,,,,,,,5e4b2a1a6a0c8403b9f8938e,24,Mężczyzna,2022-06-11_09h18.44.143,task,2021.1.4,Win32,59.95203837,6299f149e92ead563fba08ef,62a440f686fb395618cd2ccc,,,,,,,,,,,,,7,,,,,,,,,,Task,31,(4/2) + 5,7,,,,,,,,,,,,,,,,,,,1,,,,,,,,,,,,,,,,,,,,,,,"[""7""]",1,[1.9039999999999964],0,0,0,30,1,,,,,,,,,,,,,,,,,,,,,,,,,,
,,,,,,,,,,,X V Q F H G B L J M P D K C T S W R N Z,5e4b2a1a6a0c8403b9f8938e,24,Mężczyzna,2022-06-11_09h18.44.143,task,2021.1.4,Win32,59.95203837,6299f149e92ead563fba08ef,62a440f686fb395618cd2ccc,,,,,,,,,,,,,,,,,,,,,,,,,,,,,,,,,,,,,,,,,,,,,,,,,,,,,,,,,,,,,,,,,,,,,,,,,,,,4,0,4,0,1,,,,,,,,,,,,,,,,,,,,,
,,,,,,,,,,,,5e4b2a1a6a0c8403b9f8938e,24,Mężczyzna,2022-06-11_09h18.44.143,task,2021.1.4,Win32,59.95203837,6299f149e92ead563fba08ef,62a440f686fb395618cd2ccc,,,,,,,,,,,,,1,,,,,,,,,,Task,18,(16/4) - 3,1,,,,,,,,,,,,,,,,,,,1,,,,,,,,,,,,,,,,,,,,,,,"[""1""]",1,[0.8690000000000282],0,0,0,17,1,,,,,,,,,,,,,,,,,,,,,,,,,,
,,,,,,,,,,,X V Q F H G B L J M P D K C T S W R N Z,5e4b2a1a6a0c8403b9f8938e,24,Mężczyzna,2022-06-11_09h18.44.143,task,2021.1.4,Win32,59.95203837,6299f149e92ead563fba08ef,62a440f686fb395618cd2ccc,,,,,,,,,,,,,,,,,,,,,,,,,,,,,,,,,,,,,,,,,,,,,,,,,,,,,,,,,,,,,,,,,,,,,,,,,,,,5,0,5,0,1,,,,,,,,,,,,,,,,,,,,,
,,,,,,,,,,,,5e4b2a1a6a0c8403b9f8938e,24,Mężczyzna,2022-06-11_09h18.44.143,task,2021.1.4,Win32,59.95203837,6299f149e92ead563fba08ef,62a440f686fb395618cd2ccc,,,,,,,,,,,,,8,,,,,,,,,,Task,7,(3x7) - 12,9,,,,,,,,,,,,,,,,,,,0,,,,,,,,,,,,,,,,,,,,,,,"[""8""]",0,[1.4089999999999918],0,0,0,6,1,,,,,,,,,,,,,,,,,,,,,,,,,,
,,,,,,,,,,,,5e4b2a1a6a0c8403b9f8938e,24,Mężczyzna,2022-06-11_09h18.44.143,task,2021.1.4,Win32,59.95203837,6299f149e92ead563fba08ef,62a440f686fb395618cd2ccc,,,,,,,,,,,,,2,,,,,,,,,,Task,2,(2x2) - 2,2,,,,,,,,,,,,,,,,,,,1,,,,,,,,,,,,,,,,,,,,,,,"[""2""]",1,[1.0750000000000455],0,1,1,1,1,,,,,,,,,,,,,,,,,,,,,,,,,,
,,,,,,,,,,,X V Q F H G B L J M P D K C T S W R N Z,5e4b2a1a6a0c8403b9f8938e,24,Mężczyzna,2022-06-11_09h18.44.143,task,2021.1.4,Win32,59.95203837,6299f149e92ead563fba08ef,62a440f686fb395618cd2ccc,,,,,,,,,,,,,,,,,,,,,,,,,,,,,,,,,,,,,,,,,,,,,,,,,,,,,,,,,,,,,,,,,,,,,,,,,,,,6,0,6,0,1,,,,,,,,,,,,,,,,,,,,,
,,,,,,,,,,,,5e4b2a1a6a0c8403b9f8938e,24,Mężczyzna,2022-06-11_09h18.44.143,task,2021.1.4,Win32,59.95203837,6299f149e92ead563fba08ef,62a440f686fb395618cd2ccc,,,,,,,,,,,,,3,,,,,,,,,,Task,3,(2x3) - 3,3,,,,,,,,,,,,,,,,,,,1,,,,,,,,,,,,,,,,,,,,,,,"[""3""]",1,[2.3859999999999673],0,0,0,2,1,,,,,,,,,,,,,,,,,,,,,,,,,,
,,,,,,,,,,,X V Q F H G B L J M P D K C T S W R N Z,5e4b2a1a6a0c8403b9f8938e,24,Mężczyzna,2022-06-11_09h18.44.143,task,2021.1.4,Win32,59.95203837,6299f149e92ead563fba08ef,62a440f686fb395618cd2ccc,,,,,,,,,,,,,,,,,,,,,,,,,,,,,,,,,,,,,,,,,,,,,,,,,,,,,,,,,,,,,,,,,,,,,,,,,,,,7,0,7,0,1,,,,,,,,,,,,,,,,,,,,,
,,,,,,,,,,,,5e4b2a1a6a0c8403b9f8938e,24,Mężczyzna,2022-06-11_09h18.44.143,task,2021.1.4,Win32,59.95203837,6299f149e92ead563fba08ef,62a440f686fb395618cd2ccc,,,,,,,,,,,,,,,,,,,,,,,,,,,,,,,,,,,,,,,,,,,,,,,,,,,,,,,,,,,,,,,,,,,,,,,,,,,,,,,,,mjqxjsz,"[""m"",""j"",""q"",""x"",""j"",""s"",""z""]",0,"[1.288000000000011,1.393000000000029,1.990000000000009,2.2380000000000564,5.408999999999992,5.503000000000043,6.211000000000013,6.508000000000038]",0,MJXQJZSS,9,0,9,0,1,,,,,,,,,,
,,,,,,,,,,,,5e4b2a1a6a0c8403b9f8938e,24,Mężczyzna,2022-06-11_09h18.44.143,task,2021.1.4,Win32,59.95203837,6299f149e92ead563fba08ef,62a440f686fb395618cd2ccc,,,,,,,,,,,,,,,,,,,,,,,,,,,,,,,,,,,,,,,,,,,,,,,,,,,,,,,,,,,,,,,,,,,,,,,,,,,,,,,,,,,,,,,,,,,,"[""comma""]",0,[1.2690000000000055],0,0,0,0,1,,
,,,,,,,,,,,,5e4b2a1a6a0c8403b9f8938e,24,Mężczyzna,2022-06-11_09h18.44.143,task,2021.1.4,Win32,59.95203837,6299f149e92ead563fba08ef,62a440f686fb395618cd2ccc,,,,,,,,,,,,,,,,,,,,,,,,,,,,,,,,,,,,,,,,,,,,,,,,,,,,,,,,,,,,,,,,,,,,,,,,,,,,,,,,,,,,,,,,,,,,"[""period""]",0,[0.7949999999999591],1,0,1,0,1,,
,,,,,,,,,,,,5e4b2a1a6a0c8403b9f8938e,24,Mężczyzna,2022-06-11_09h18.44.143,task,2021.1.4,Win32,59.95203837,6299f149e92ead563fba08ef,62a440f686fb395618cd2ccc,,,,,,,,,,,,,,,,,,,,,,,,,,,,,,,,,,,,,,,,,,,,,,,,,,,,,,,,,,,,,,,,,,,,,,,,,,,,,,,,,,,,,,,,,,,,"[""comma""]",0,[0.5650000000000546],2,0,2,0,1,,
,,,,,,,,,,,,5e4b2a1a6a0c8403b9f8938e,24,Mężczyzna,2022-06-11_09h18.44.143,task,2021.1.4,Win32,59.95203837,6299f149e92ead563fba08ef,62a440f686fb395618cd2ccc,,,,,,,,,,,,,,,,,,,,,,,,,,,,,,,,,,,,,,,,,,,,,,,,,,,,,,,,,,,,,,,,,,,,,,,,,,,,,,,,,,,,,,,,,,,,"[""comma""]",0,[0.35199999999997544],3,0,3,0,1,,
,,,,,,,,,,,,5e4b2a1a6a0c8403b9f8938e,24,Mężczyzna,2022-06-11_09h18.44.143,task,2021.1.4,Win32,59.95203837,6299f149e92ead563fba08ef,62a440f686fb395618cd2ccc,,,,,,,,,,,,,,,,,,,,,,,,,,,,,,,,,,,,,,,,,,,,,,,,,,,,,,,,,,,,,,,,,,,,,,,,,,,,,,,,,,,,,,,,,,,,"[""comma""]",0,[0.2839999999999918],4,0,4,0,1,,
,,,,,,,,,,,,5e4b2a1a6a0c8403b9f8938e,24,Mężczyzna,2022-06-11_09h18.44.143,task,2021.1.4,Win32,59.95203837,6299f149e92ead563fba08ef,62a440f686fb395618cd2ccc,,,,,,,,,,,,,,,,,,,,,,,,,,,,,,,,,,,,,,,,,,,,,,,,,,,,,,,,,,,,,,,,,,,,,,,,,,,,,,,,,,,,,,,,,,,,"[""comma""]",0,[0.32000000000005],5,0,5,0,1,,
,,,,,,,,,,,,5e4b2a1a6a0c8403b9f8938e,24,Mężczyzna,2022-06-11_09h18.44.143,task,2021.1.4,Win32,59.95203837,6299f149e92ead563fba08ef,62a440f686fb395618cd2ccc,,,,,,,,,,,,,,,,,,,,,,,,,,,,,,,,,,,,,,,,,,,,,,,,,,,,,,,,,,,,,,,,,,,,,,,,,,,,,,,,,,,,,,,,,,,,"[""period""]",0,[0.30499999999995],6,0,6,0,1,,
,,,,,,,,,,,,5e4b2a1a6a0c8403b9f8938e,24,Mężczyzna,2022-06-11_09h18.44.143,task,2021.1.4,Win32,59.95203837,6299f149e92ead563fba08ef,62a440f686fb395618cd2ccc,,,,,,,,,,,,,,,,,,,,,,,,,,,,,,,,,,,,,,,,,,,,,,,,,,,,,,,,,,,,,,,,,,,,,,,,,,,,,,,,,,,,,,,,,,,,"[""period""]",0,[0.30600000000004],7,0,7,0,1,,
,,,,,,,,,,,,5e4b2a1a6a0c8403b9f8938e,24,Mężczyzna,2022-06-11_09h18.44.143,task,2021.1.4,Win32,59.95203837,6299f149e92ead563fba08ef,62a440f686fb395618cd2ccc,,,,,,,,,,,,,,,,,,,,,,,,,,,,,,,,,,,,,,,,,,,,,,,,,,,,,,,,,,,,,,,,,,,,,,,,,,,,,,,,,,,,,,,,,,,,"[""period""]",0,[0.3849999999999909],8,0,8,0,1,,
,,,,,,,,,,,,5e4b2a1a6a0c8403b9f8938e,24,Mężczyzna,2022-06-11_09h18.44.143,task,2021.1.4,Win32,59.95203837,6299f149e92ead563fba08ef,62a440f686fb395618cd2ccc,,,,,,,,,,,,,,,,,,,,,,,,,,,,,,,,,,,,,,,,,,,,,,,,,,,,,,,,,,,,,,,,,,,,,,,,,,,,,,,,,,,,,,,,,,,,"[""comma""]",0,[0.31799999999998363],9,0,9,0,1,,
,,,,,,,,,,,,5e4b2a1a6a0c8403b9f8938e,24,Mężczyzna,2022-06-11_09h18.44.143,task,2021.1.4,Win32,59.95203837,6299f149e92ead563fba08ef,62a440f686fb395618cd2ccc,,,,,,,,,,,,,,,,,,,,,,,,,,,,,,,,,,,,,,,,,,,,,,,,,,,,,,,,,,,,,,,,,,,,,,,,,,,,,,,,,,,,,,,,,,,,"[""period""]",0,[0.2799999999999727],10,0,10,0,1,,
,,,,,,,,,,,,5e4b2a1a6a0c8403b9f8938e,24,Mężczyzna,2022-06-11_09h18.44.143,task,2021.1.4,Win32,59.95203837,6299f149e92ead563fba08ef,62a440f686fb395618cd2ccc,,,,,,,,,,,,,,,,,,,,,,,,,,,,,,,,,,,,,,,,,,,,,,,,,,,,,,,,,,,,,,,,,,,,,,,,,,,,,,,,,,,,,,,,,,,,"[""period""]",0,[0.39200000000005275],11,0,11,0,1,,
,,,,,,,,,,,,5e4b2a1a6a0c8403b9f8938e,24,Mężczyzna,2022-06-11_09h18.44.143,task,2021.1.4,Win32,59.95203837,6299f149e92ead563fba08ef,62a440f686fb395618cd2ccc,,,,,,,,,,,,,,,,,,,,,,,,,,,,,,,,,,,,,,,,,,,,,,,,,,,,,,,,,,,,,,,,,,,,,,,,,,,,,,,,,,,,,,,,,,,,"[""period""]",0,[0.3810000000000855],12,0,12,0,1,,
,,,,,,,,,,,,5e4b2a1a6a0c8403b9f8938e,24,Mężczyzna,2022-06-11_09h18.44.143,task,2021.1.4,Win32,59.95203837,6299f149e92ead563fba08ef,62a440f686fb395618cd2ccc,,,,,,,,,,,,,,,,,,,,,,,,,,,,,,,,,,,,,,,,,,,,,,,,,,,,,,,,,,,,,,,,,,,,,,,,,,,,,,,,,,,,,,,,,,,,"[""comma""]",0,[0.2860000000000582],13,0,13,0,1,,
,,,,,,,,,,,,5e4b2a1a6a0c8403b9f8938e,24,Mężczyzna,2022-06-11_09h18.44.143,task,2021.1.4,Win32,59.95203837,6299f149e92ead563fba08ef,62a440f686fb395618cd2ccc,,,,,,,,,,,,,,,,,,,,,,,,,,,,,,,,,,,,,,,,,,,,,,,,,,,,,,,,,,,,,,,,,,,,,,,,,,,,,,,,,,,,,,,,,,,,"[""comma""]",0,[0.15399999999999636],14,0,14,0,1,,
,,,,,,,,,,,,5e4b2a1a6a0c8403b9f8938e,24,Mężczyzna,2022-06-11_09h18.44.143,task,2021.1.4,Win32,59.95203837,6299f149e92ead563fba08ef,62a440f686fb395618cd2ccc,,,,,,,,,,,,,,,,,,,,,,,,,,,,,,,,,,,,,,,,,,,,,,,,,,,,,,,,,,,,,,,,,,,,,,,,,,,,,,,,,,,,,,,,,,,,"[""comma""]",0,[0.4130000000000109],15,0,15,0,1,,
,,,,,,,,,,,,5e4b2a1a6a0c8403b9f8938e,24,Mężczyzna,2022-06-11_09h18.44.143,task,2021.1.4,Win32,59.95203837,6299f149e92ead563fba08ef,62a440f686fb395618cd2ccc,,,,,,,,,,,,,,,,,,,,,,,,,,,,,,,,,,,,,,,,,,,,,,,,,,,,,,,,,,,,,,,,,,,,,,,,,,,,,,,,,,,,,,,,,,,,"[""period""]",0,[0.3269999999999982],16,0,16,0,1,,
,,,,,,,,,,,,5e4b2a1a6a0c8403b9f8938e,24,Mężczyzna,2022-06-11_09h18.44.143,task,2021.1.4,Win32,59.95203837,6299f149e92ead563fba08ef,62a440f686fb395618cd2ccc,,,,,,,,,,,,,,,,,,,,,,,,,,,,,,,,,,,,,,,,,,,,,,,,,,,,,,,,,,,,,,,,,,,,,,,,,,,,,,,,,,,,,,,,,,,,"[""comma""]",0,[0.5750000000000455],17,0,17,0,1,,
,,,,,,,,,,,,5e4b2a1a6a0c8403b9f8938e,24,Mężczyzna,2022-06-11_09h18.44.143,task,2021.1.4,Win32,59.95203837,6299f149e92ead563fba08ef,62a440f686fb395618cd2ccc,,,,,,,,,,,,,,,,,,,,,,,,,,,,,,,,,,,,,,,,,,,,,,,,,,,,,,,,,,,,,,,,,,,,,,,,,,,,,,,,,,,,,,,,,,,,"[""period""]",0,[0.5029999999999291],18,0,18,0,1,,
,,,,,,,,,,,,5e4b2a1a6a0c8403b9f8938e,24,Mężczyzna,2022-06-11_09h18.44.143,task,2021.1.4,Win32,59.95203837,6299f149e92ead563fba08ef,62a440f686fb395618cd2ccc,,,,,,,,,,,,,,,,,,,,,,,,,,,,,,,,,,,,,,,,,,,,,,,,,,,,,,,,,,,,,,,,,,,,,,,,,,,,,,,,,,,,,,,,,,,,"[""comma""]",0,[0.90300000000002],19,0,19,0,1,,
,,,,,,,,,,,,5e4b2a1a6a0c8403b9f8938e,24,Mężczyzna,2022-06-11_09h18.44.143,task,2021.1.4,Win32,59.95203837,6299f149e92ead563fba08ef,62a440f686fb395618cd2ccc,,,,,,,,,,,,,,,,,,,,,,,,,,,,,,,,,,,,,,,,,,,,,,,,,,,,,,,,,,,,,,,,,,,,,,,,,,,,,,,,,,,,,,,,,,,,"[""period""]",0,[0.56899999999996],20,0,20,0,1,,
,,,,,,,,,,,,5e4b2a1a6a0c8403b9f8938e,24,Mężczyzna,2022-06-11_09h18.44.143,task,2021.1.4,Win32,59.95203837,6299f149e92ead563fba08ef,62a440f686fb395618cd2ccc,,,,,,,,,,,,,,,,,,,,,,,,,,,,,,,,,,,,,,,,,,,,,,,,,,,,,,,,,,,,,,,,,,,,,,,,,,,,,,,,,,,,,,,,,,,,"[""comma""]",0,[0.40399999999999636],21,0,21,0,1,,
,,,,,,,,,,,,5e4b2a1a6a0c8403b9f8938e,24,Mężczyzna,2022-06-11_09h18.44.143,task,2021.1.4,Win32,59.95203837,6299f149e92ead563fba08ef,62a440f686fb395618cd2ccc,,,,,,,,,,,,,,,,,,,,,,,,,,,,,,,,,,,,,,,,,,,,,,,,,,,,,,,,,,,,,,,,,,,,,,,,,,,,,,,,,,,,,,,,,,,,"[""comma""]",0,[0.1979999999998654],22,0,22,0,1,,
,,,,,,,,,,,,5e4b2a1a6a0c8403b9f8938e,24,Mężczyzna,2022-06-11_09h18.44.143,task,2021.1.4,Win32,59.95203837,6299f149e92ead563fba08ef,62a440f686fb395618cd2ccc,,,,,,,,,,,,,,,,,,,,,,,,,,,,,,,,,,,,,,,,,,,,,,,,,,,,,,,,,,,,,,,,,,,,,,,,,,,,,,,,,,,,,,,,,,,,"[""comma""]",0,[0.28300000000012915],23,0,23,0,1,,
,,,,,,,,,,,,5e4b2a1a6a0c8403b9f8938e,24,Mężczyzna,2022-06-11_09h18.44.143,task,2021.1.4,Win32,59.95203837,6299f149e92ead563fba08ef,62a440f686fb395618cd2ccc,,,,,,,,,,,,,,,,,,,,,,,,,,,,,,,,,,,,,,,,,,,,,,,,,,,,,,,,,,,,,,,,,,,,,,,,,,,,,,,,,,,,,,,,,,,,"[""comma"",""period""]",0,"[0.06799999999998363,1.7570000000000618]",24,0,24,0,1,,
,,,,,,,,,,,,5e4b2a1a6a0c8403b9f8938e,24,Mężczyzna,2022-06-11_09h18.44.143,task,2021.1.4,Win32,59.95203837,6299f149e92ead563fba08ef,62a440f686fb395618cd2ccc,,,,,,,,,,,,,,,,,,,,,,,,,,,,,,,,,,,,,,,,,,,,,,,,,,,,,,,,,,,,,,,,,,,,,,,,,,,,,,,,,,,,,,,,,,,,,0,,25,0,25,0,1,,
,,,,,,,,,,,,5e4b2a1a6a0c8403b9f8938e,24,Mężczyzna,2022-06-11_09h18.44.143,task,2021.1.4,Win32,59.95203837,6299f149e92ead563fba08ef,62a440f686fb395618cd2ccc,,,,,,,,,,,,,,,,,,,,,,,,,,,,,,,,,,,,,,,,,,,,,,,,,,,,,,,,,,,,,,,,,,,,,,,,,,,,,,,,,,,,,,,,,,,,"[""period""]",0,[0.3220000000001164],26,0,26,0,1,,
,,,,,,,,,,,,5e4b2a1a6a0c8403b9f8938e,24,Mężczyzna,2022-06-11_09h18.44.143,task,2021.1.4,Win32,59.95203837,6299f149e92ead563fba08ef,62a440f686fb395618cd2ccc,,,,,,,,,,,,,,,,,,,,,,,,,,,,,,,,,,,,,,,,,,,,,,,,,,,,,,,,,,,,,,,,,,,,,,,,,,,,,,,,,,,,,,,,,,,,"[""comma""]",0,[0.2400000000000091],27,0,27,0,1,,
,,,,,,,,,,,,5e4b2a1a6a0c8403b9f8938e,24,Mężczyzna,2022-06-11_09h18.44.143,task,2021.1.4,Win32,59.95203837,6299f149e92ead563fba08ef,62a440f686fb395618cd2ccc,,,,,,,,,,,,,,,,,,,,,,,,,,,,,,,,,,,,,,,,,,,,,,,,,,,,,,,,,,,,,,,,,,,,,,,,,,,,,,,,,,,,,,,,,,,,"[""period""]",0,[0.3129999999998745],28,0,28,0,1,,
,,,,,,,,,,,,5e4b2a1a6a0c8403b9f8938e,24,Mężczyzna,2022-06-11_09h18.44.143,task,2021.1.4,Win32,59.95203837,6299f149e92ead563fba08ef,62a440f686fb395618cd2ccc,,,,,,,,,,,,,,,,,,,,,,,,,,,,,,,,,,,,,,,,,,,,,,,,,,,,,,,,,,,,,,,,,,,,,,,,,,,,,,,,,,,,,,,,,,,,"[""period""]",0,[0.25099999999997635],29,0,29,0,1,,
,,,,,,,,,,,,5e4b2a1a6a0c8403b9f8938e,24,Mężczyzna,2022-06-11_09h18.44.143,task,2021.1.4,Win32,59.95203837,6299f149e92ead563fba08ef,62a440f686fb395618cd2ccc,,,,,,,,,,,,,,,,,,,,,,,,,,,,,,,,,,,,,,,,,,,,,,,,,,,,,,,,,,,,,,,,,,,,,,,,,,,,,,,,,,,,,,,,,,,,"[""comma""]",0,[0.40200000000004366],30,0,30,0,1,,
,,,,,,,,,,,,5e4b2a1a6a0c8403b9f8938e,24,Mężczyzna,2022-06-11_09h18.44.143,task,2021.1.4,Win32,59.95203837,6299f149e92ead563fba08ef,62a440f686fb395618cd2ccc,,,,,,,,,,,,,,,,,,,,,,,,,,,,,,,,,,,,,,,,,,,,,,,,,,,,,,,,,,,,,,,,,,,,,,,,,,,,,,,,,,,,,,,,,,,,"[""period""]",0,[0.3530000000000655],31,0,31,0,1,,
,,,,,,,,,,,,5e4b2a1a6a0c8403b9f8938e,24,Mężczyzna,2022-06-11_09h18.44.143,task,2021.1.4,Win32,59.95203837,6299f149e92ead563fba08ef,62a440f686fb395618cd2ccc,,,,,,,,,,,,,,,,,,,,,,,,,,,,,,,,,,,,,,,,,,,,,,,,,,,,,,,,,,,,,,,,,,,,,,,,,,,,,,,,,,,,,,,,,,,,"[""comma""]",0,[0.4010000000000673],32,0,32,0,1,,
,,,,,,,,,,,,5e4b2a1a6a0c8403b9f8938e,24,Mężczyzna,2022-06-11_09h18.44.143,task,2021.1.4,Win32,59.95203837,6299f149e92ead563fba08ef,62a440f686fb395618cd2ccc,,,,,,,,,,,,,,,,,,,,,,,,,,,,,,,,,,,,,,,,,,,,,,,,,,,,,,,,,,,,,,,,,,,,,,,,,,,,,,,,,,,,,,,,,,,,"[""comma""]",0,[0.4259999999999309],33,0,33,0,1,,
,,,,,,,,,,,,5e4b2a1a6a0c8403b9f8938e,24,Mężczyzna,2022-06-11_09h18.44.143,task,2021.1.4,Win32,59.95203837,6299f149e92ead563fba08ef,62a440f686fb395618cd2ccc,,,,,,,,,,,,,,,,,,,,,,,,,,,,,,,,,,,,,,,,,,,,,,,,,,,,,,,,,,,,,,,,,,,,,,,,,,,,,,,,,,,,,,,,,,,,"[""period""]",0,[0.5260000000000673],34,0,34,0,1,,
,,,,,,,,,,,,5e4b2a1a6a0c8403b9f8938e,24,Mężczyzna,2022-06-11_09h18.44.143,task,2021.1.4,Win32,59.95203837,6299f149e92ead563fba08ef,62a440f686fb395618cd2ccc,,,,,,,,,,,,,,,,,,,,,,,,,,,,,,,,,,,,,,,,,,,,,,,,,,,,,,,,,,,,,,,,,,,,,,,,,,,,,,,,,,,,,,,,,,,,"[""comma""]",0,[0.4379999999998745],35,0,35,0,1,,
,,,,,,,,,,,,5e4b2a1a6a0c8403b9f8938e,24,Mężczyzna,2022-06-11_09h18.44.143,task,2021.1.4,Win32,59.95203837,6299f149e92ead563fba08ef,62a440f686fb395618cd2ccc,,,,,,,,,,,,,,,,,,,,,,,,,,,,,,,,,,,,,,,,,,,,,,,,,,,,,,,,,,,,,,,,,,,,,,,,,,,,,,,,,,,,,,,,,,,,"[""period""]",0,[0.5340000000001055],36,0,36,0,1,,
,,,,,,,,,,,,5e4b2a1a6a0c8403b9f8938e,24,Mężczyzna,2022-06-11_09h18.44.143,task,2021.1.4,Win32,59.95203837,6299f149e92ead563fba08ef,62a440f686fb395618cd2ccc,,,,,,,,,,,,,,,,,,,,,,,,,,,,,,,,,,,,,,,,,,,,,,,,,,,,,,,,,,,,,,,,,,,,,,,,,,,,,,,,,,,,,,,,,,,,"[""period""]",0,[0.3269999999999982],37,0,37,0,1,,
,,,,,,,,,,,,5e4b2a1a6a0c8403b9f8938e,24,Mężczyzna,2022-06-11_09h18.44.143,task,2021.1.4,Win32,59.95203837,6299f149e92ead563fba08ef,62a440f686fb395618cd2ccc,,,,,,,,,,,,,,,,,,,,,,,,,,,,,,,,,,,,,,,,,,,,,,,,,,,,,,,,,,,,,,,,,,,,,,,,,,,,,,,,,,,,,,,,,,,,"[""period""]",0,[0.30199999999990723],38,0,38,0,1,,
,,,,,,,,,,,,5e4b2a1a6a0c8403b9f8938e,24,Mężczyzna,2022-06-11_09h18.44.143,task,2021.1.4,Win32,59.95203837,6299f149e92ead563fba08ef,62a440f686fb395618cd2ccc,,,,,,,,,,,,,,,,,,,,,,,,,,,,,,,,,,,,,,,,,,,,,,,,,,,,,,,,,,,,,,,,,,,,,,,,,,,,,,,,,,,,,,,,,,,,"[""period""]",0,[0.2840000000001055],39,0,39,0,1,,
,,,,,,,,,,,,5e4b2a1a6a0c8403b9f8938e,24,Mężczyzna,2022-06-11_09h18.44.143,task,2021.1.4,Win32,59.95203837,6299f149e92ead563fba08ef,62a440f686fb395618cd2ccc,,,,,,,,,,,,,,,,,,,,,,,,,,,,,,,,,,,,,,,,,,,,,,,,,,,,,,,,,,,,,,,,,,,,,,,,,,,,,,,,,,,,,,,,,,,,"[""period""]",0,[0.3029999999998836],40,0,40,0,1,,
,,,,,,,,,,,,5e4b2a1a6a0c8403b9f8938e,24,Mężczyzna,2022-06-11_09h18.44.143,task,2021.1.4,Win32,59.95203837,6299f149e92ead563fba08ef,62a440f686fb395618cd2ccc,,,,,,,,,,,,,,,,,,,,,,,,,,,,,,,,,,,,,,,,,,,,,,,,,,,,,,,,,,,,,,,,,,,,,,,,,,,,,,,,,,,,,,,,,,,,"[""comma""]",0,[0.018000000000029104],41,0,41,0,1,,
,,,,,,,,,,,,5e4b2a1a6a0c8403b9f8938e,24,Mężczyzna,2022-06-11_09h18.44.143,task,2021.1.4,Win32,59.95203837,6299f149e92ead563fba08ef,62a440f686fb395618cd2ccc,,,,,,,,,,,,,,,,,,,,,,,,,,,,,,,,,,,,,,,,,,,,,,,,,,,,,,,,,,,,,,,,,,,,,,,,,,,,,,,,,,,,,,,,,,,,"[""comma""]",0,[0.26299999999991996],42,0,42,0,1,,
,,,,,,,,,,,,5e4b2a1a6a0c8403b9f8938e,24,Mężczyzna,2022-06-11_09h18.44.143,task,2021.1.4,Win32,59.95203837,6299f149e92ead563fba08ef,62a440f686fb395618cd2ccc,,,,,,,,,,,,,,,,,,,,,,,,,,,,,,,,,,,,,,,,,,,,,,,,,,,,,,,,,,,,,,,,,,,,,,,,,,,,,,,,,,,,,,,,,,,,"[""comma""]",0,[0.32300000000009277],43,0,43,0,1,,
,,,,,,,,,,,,5e4b2a1a6a0c8403b9f8938e,24,Mężczyzna,2022-06-11_09h18.44.143,task,2021.1.4,Win32,59.95203837,6299f149e92ead563fba08ef,62a440f686fb395618cd2ccc,,,,,,,,,,,,,,,,,,,,,,,,,,,,,,,,,,,,,,,,,,,,,,,,,,,,,,,,,,,,,,,,,,,,,,,,,,,,,,,,,,,,,,,,,,,,"[""period""]",0,[0.3089999999999691],44,0,44,0,1,,
,,,,,,,,,,,,5e4b2a1a6a0c8403b9f8938e,24,Mężczyzna,2022-06-11_09h18.44.143,task,2021.1.4,Win32,59.95203837,6299f149e92ead563fba08ef,62a440f686fb395618cd2ccc,,,,,,,,,,,,,,,,,,,,,,,,,,,,,,,,,,,,,,,,,,,,,,,,,,,,,,,,,,,,,,,,,,,,,,,,,,,,,,,,,,,,,,,,,,,,"[""period""]",0,[0.2660000000000764],45,0,45,0,1,,
,,,,,,,,,,,,5e4b2a1a6a0c8403b9f8938e,24,Mężczyzna,2022-06-11_09h18.44.143,task,2021.1.4,Win32,59.95203837,6299f149e92ead563fba08ef,62a440f686fb395618cd2ccc,,,,,,,,,,,,,,,,,,,,,,,,,,,,,,,,,,,,,,,,,,,,,,,,,,,,,,,,,,,,,,,,,,,,,,,,,,,,,,,,,,,,,,,,,,,,"[""comma""]",0,[0.24300000000016553],46,0,46,0,1,,
,,,,,,,,,,,,5e4b2a1a6a0c8403b9f8938e,24,Mężczyzna,2022-06-11_09h18.44.143,task,2021.1.4,Win32,59.95203837,6299f149e92ead563fba08ef,62a440f686fb395618cd2ccc,,,,,,,,,,,,,,,,,,,,,,,,,,,,,,,,,,,,,,,,,,,,,,,,,,,,,,,,,,,,,,,,,,,,,,,,,,,,,,,,,,,,,,,,,,,,"[""comma""]",0,[0.22499999999990905],47,0,47,0,1,,
,,,,,,,,,,,,5e4b2a1a6a0c8403b9f8938e,24,Mężczyzna,2022-06-11_09h18.44.143,task,2021.1.4,Win32,59.95203837,6299f149e92ead563fba08ef,62a440f686fb395618cd2ccc,,,,,,,,,,,,,,,,,,,,,,,,,,,,,,,,,,,,,,,,,,,,,,,,,,,,,,,,,,,,,,,,,,,,,,,,,,,,,,,,,,,,,,,,,,,,"[""comma""]",0,[0.3869999999999436],48,0,48,0,1,,
,,,,,,,,,,,,5e4b2a1a6a0c8403b9f8938e,24,Mężczyzna,2022-06-11_09h18.44.143,task,2021.1.4,Win32,59.95203837,6299f149e92ead563fba08ef,62a440f686fb395618cd2ccc,,,,,,,,,,,,,,,,,,,,,,,,,,,,,,,,,,,,,,,,,,,,,,,,,,,,,,,,,,,,,,,,,,,,,,,,,,,,,,,,,,,,,,,,,,,,"[""comma""]",0,[0.4270000000001346],49,0,49,0,1,,
,,,,,,,,,,,,5e4b2a1a6a0c8403b9f8938e,24,Mężczyzna,2022-06-11_09h18.44.143,task,2021.1.4,Win32,59.95203837,6299f149e92ead563fba08ef,62a440f686fb395618cd2ccc,,,,,,,,,,,,,,,,,,,,,,,,,,,,,,,,,,,,,,,,,,,,,,,,,,,,,,,,,,,,,,,,,,,,,,,,,,,,,,,,,,,,,,,,,,,,"[""period""]",0,[0.40300000000002],50,0,50,0,1,,
,,,,,,,,,,,,5e4b2a1a6a0c8403b9f8938e,24,Mężczyzna,2022-06-11_09h18.44.143,task,2021.1.4,Win32,59.95203837,6299f149e92ead563fba08ef,62a440f686fb395618cd2ccc,,,,,,,,,,,,,,,,,,,,,,,,,,,,,,,,,,,,,,,,,,,,,,,,,,,,,,,,,,,,,,,,,,,,,,,,,,,,,,,,,,,,,,,,,,,,"[""period""]",0,[0.5699999999999363],51,0,51,0,1,,
,,,,,,,,,,,,5e4b2a1a6a0c8403b9f8938e,24,Mężczyzna,2022-06-11_09h18.44.143,task,2021.1.4,Win32,59.95203837,6299f149e92ead563fba08ef,62a440f686fb395618cd2ccc,,,,,,,,,,,,,,,,,,,,,,,,,,,,,,,,,,,,,,,,,,,,,,,,,,,,,,,,,,,,,,,,,,,,,,,,,,,,,,,,,,,,,,,,,,,,"[""period""]",0,[0.3609999999998763],52,0,52,0,1,,
,,,,,,,,,,,,5e4b2a1a6a0c8403b9f8938e,24,Mężczyzna,2022-06-11_09h18.44.143,task,2021.1.4,Win32,59.95203837,6299f149e92ead563fba08ef,62a440f686fb395618cd2ccc,,,,,,,,,,,,,,,,,,,,,,,,,,,,,,,,,,,,,,,,,,,,,,,,,,,,,,,,,,,,,,,,,,,,,,,,,,,,,,,,,,,,,,,,,,,,"[""period""]",0,[0.3849999999999909],53,0,53,0,1,,
,,,,,,,,,,,,5e4b2a1a6a0c8403b9f8938e,24,Mężczyzna,2022-06-11_09h18.44.143,task,2021.1.4,Win32,59.95203837,6299f149e92ead563fba08ef,62a440f686fb395618cd2ccc,,,,,,,,,,,,,,,,,,,,,,,,,,,,,,,,,,,,,,,,,,,,,,,,,,,,,,,,,,,,,,,,,,,,,,,,,,,,,,,,,,,,,,,,,,,,"[""comma""]",0,[0.37200000000007094],54,0,54,0,1,,
,,,,,,,,,,,,5e4b2a1a6a0c8403b9f8938e,24,Mężczyzna,2022-06-11_09h18.44.143,task,2021.1.4,Win32,59.95203837,6299f149e92ead563fba08ef,62a440f686fb395618cd2ccc,,,,,,,,,,,,,,,,,,,,,,,,,,,,,,,,,,,,,,,,,,,,,,,,,,,,,,,,,,,,,,,,,,,,,,,,,,,,,,,,,,,,,,,,,,,,"[""comma""]",0,[0.3550000000000182],55,0,55,0,1,,
,,,,,,,,,,,,5e4b2a1a6a0c8403b9f8938e,24,Mężczyzna,2022-06-11_09h18.44.143,task,2021.1.4,Win32,59.95203837,6299f149e92ead563fba08ef,62a440f686fb395618cd2ccc,,,,,,,,,,,,,,,,,,,,,,,,,,,,,,,,,,,,,,,,,,,,,,,,,,,,,,,,,,,,,,,,,,,,,,,,,,,,,,,,,,,,,,,,,,,,"[""period""]",0,[0.3079999999999927],56,0,56,0,1,,
,,,,,,,,,,,,5e4b2a1a6a0c8403b9f8938e,24,Mężczyzna,2022-06-11_09h18.44.143,task,2021.1.4,Win32,59.95203837,6299f149e92ead563fba08ef,62a440f686fb395618cd2ccc,,,,,,,,,,,,,,,,,,,,,,,,,,,,,,,,,,,,,,,,,,,,,,,,,,,,,,,,,,,,,,,,,,,,,,,,,,,,,,,,,,,,,,,,,,,,"[""period""]",0,[0.37599999999997635],57,0,57,0,1,,
,,,,,,,,,,,,5e4b2a1a6a0c8403b9f8938e,24,Mężczyzna,2022-06-11_09h18.44.143,task,2021.1.4,Win32,59.95203837,6299f149e92ead563fba08ef,62a440f686fb395618cd2ccc,,,,,,,,,,,,,,,,,,,,,,,,,,,,,,,,,,,,,,,,,,,,,,,,,,,,,,,,,,,,,,,,,,,,,,,,,,,,,,,,,,,,,,,,,,,,"[""period""]",0,[0.40599999999994907],58,0,58,0,1,,
,,,,,,,,,,,,5e4b2a1a6a0c8403b9f8938e,24,Mężczyzna,2022-06-11_09h18.44.143,task,2021.1.4,Win32,59.95203837,6299f149e92ead563fba08ef,62a440f686fb395618cd2ccc,,,,,,,,,,,,,,,,,,,,,,,,,,,,,,,,,,,,,,,,,,,,,,,,,,,,,,,,,,,,,,,,,,,,,,,,,,,,,,,,,,,,,,,,,,,,"[""period""]",0,[0.5050000000001091],59,0,59,0,1,,
,,,,,,,,,,,,5e4b2a1a6a0c8403b9f8938e,24,Mężczyzna,2022-06-11_09h18.44.143,task,2021.1.4,Win32,59.95203837,6299f149e92ead563fba08ef,62a440f686fb395618cd2ccc,,,,,,,,,,,,,,,,,,,,,,,,,,,,,,,,,,,,,,,,,,,,,,,,,,,,,,,,,,,,,,,,,,,,,,,,,,,,,,,,,,,,,,,,,,,,"[""period""]",0,[0.525000000000091],60,0,60,0,1,,
,,,,,,,,,,,,5e4b2a1a6a0c8403b9f8938e,24,Mężczyzna,2022-06-11_09h18.44.143,task,2021.1.4,Win32,59.95203837,6299f149e92ead563fba08ef,62a440f686fb395618cd2ccc,,,,,,,,,,,,,,,,,,,,,,,,,,,,,,,,,,,,,,,,,,,,,,,,,,,,,,,,,,,,,,,,,,,,,,,,,,,,,,,,,,,,,,,,,,,,"[""comma""]",0,[0.5240000000001146],61,0,61,0,1,,
,,,,,,,,,,,,5e4b2a1a6a0c8403b9f8938e,24,Mężczyzna,2022-06-11_09h18.44.143,task,2021.1.4,Win32,59.95203837,6299f149e92ead563fba08ef,62a440f686fb395618cd2ccc,,,,,,,,,,,,,,,,,,,,,,,,,,,,,,,,,,,,,,,,,,,,,,,,,,,,,,,,,,,,,,,,,,,,,,,,,,,,,,,,,,,,,,,,,,,,"[""comma""]",0,[0.6190000000001419],62,0,62,0,1,,
,,,,,,,,,,,,5e4b2a1a6a0c8403b9f8938e,24,Mężczyzna,2022-06-11_09h18.44.143,task,2021.1.4,Win32,59.95203837,6299f149e92ead563fba08ef,62a440f686fb395618cd2ccc,,,,,,,,,,,,,,,,,,,,,,,,,,,,,,,,,,,,,,,,,,,,,,,,,,,,,,,,,,,,,,,,,,,,,,,,,,,,,,,,,,,,,,,,,,,,"[""period""]",0,[0.33400000000006],63,0,63,0,1,,
,,,,,,,,,,,,5e4b2a1a6a0c8403b9f8938e,24,Mężczyzna,2022-06-11_09h18.44.143,task,2021.1.4,Win32,59.95203837,6299f149e92ead563fba08ef,62a440f686fb395618cd2ccc,,,,,,,,,,,,,,,,,,,,,,,,,,,,,,,,,,,,,,,,,,,,,,,,,,,,,,,,,,,,,,,,,,,,,,,,,,,,,,,,,,,,,,,,,,,,"[""comma""]",0,[0.3530000000000655],64,0,64,0,1,,
,,,,,,,,,,,,5e4b2a1a6a0c8403b9f8938e,24,Mężczyzna,2022-06-11_09h18.44.143,task,2021.1.4,Win32,59.95203837,6299f149e92ead563fba08ef,62a440f686fb395618cd2ccc,,,,,,,,,,,,,,,,,,,,,,,,,,,,,,,,,,,,,,,,,,,,,,,,,,,,,,,,,,,,,,,,,,,,,,,,,,,,,,,,,,,,,,,,,,,,"[""comma""]",0,[0.3329999999998563],65,0,65,0,1,,
,,,,,,,,,,,,5e4b2a1a6a0c8403b9f8938e,24,Mężczyzna,2022-06-11_09h18.44.143,task,2021.1.4,Win32,59.95203837,6299f149e92ead563fba08ef,62a440f686fb395618cd2ccc,,,,,,,,,,,,,,,,,,,,,,,,,,,,,,,,,,,,,,,,,,,,,,,,,,,,,,,,,,,,,,,,,,,,,,,,,,,,,,,,,,,,,,,,,,,,"[""comma""]",0,[0.2899999999999636],66,0,66,0,1,,
,,,,,,,,,,,,5e4b2a1a6a0c8403b9f8938e,24,Mężczyzna,2022-06-11_09h18.44.143,task,2021.1.4,Win32,59.95203837,6299f149e92ead563fba08ef,62a440f686fb395618cd2ccc,,,,,,,,,,,,,,,,,,,,,,,,,,,,,,,,,,,,,,,,,,,,,,,,,,,,,,,,,,,,,,,,,,,,,,,,,,,,,,,,,,,,,,,,,,,,"[""period"",""period""]",0,"[0.30700000000001637,1.8520000000000891]",67,0,67,0,1,,
,,,,,,,,,,,,5e4b2a1a6a0c8403b9f8938e,24,Mężczyzna,2022-06-11_09h18.44.143,task,2021.1.4,Win32,59.95203837,6299f149e92ead563fba08ef,62a440f686fb395618cd2ccc,,,,,,,,,,,,,,,,,,,,,,,,,,,,,,,,,,,,,,,,,,,,,,,,,,,,,,,,,,,,,,,,,,,,,,,,,,,,,,,,,,,,,,,,,,,,,0,,68,0,68,0,1,,
,,,,,,,,,,,,5e4b2a1a6a0c8403b9f8938e,24,Mężczyzna,2022-06-11_09h18.44.143,task,2021.1.4,Win32,59.95203837,6299f149e92ead563fba08ef,62a440f686fb395618cd2ccc,,,,,,,,,,,,,,,,,,,,,,,,,,,,,,,,,,,,,,,,,,,,,,,,,,,,,,,,,,,,,,,,,,,,,,,,,,,,,,,,,,,,,,,,,,,,"[""period""]",0,[0.2840000000001055],69,0,69,0,1,,
,,,,,,,,,,,,5e4b2a1a6a0c8403b9f8938e,24,Mężczyzna,2022-06-11_09h18.44.143,task,2021.1.4,Win32,59.95203837,6299f149e92ead563fba08ef,62a440f686fb395618cd2ccc,,,,,,,,,,,,,,,,,,,,,,,,,,,,,,,,,,,,,,,,,,,,,,,,,,,,,,,,,,,,,,,,,,,,,,,,,,,,,,,,,,,,,,,,,,,,"[""comma""]",0,[0.4739999999999327],70,0,70,0,1,,
,,,,,,,,,,,,5e4b2a1a6a0c8403b9f8938e,24,Mężczyzna,2022-06-11_09h18.44.143,task,2021.1.4,Win32,59.95203837,6299f149e92ead563fba08ef,62a440f686fb395618cd2ccc,,,,,,,,,,,,,,,,,,,,,,,,,,,,,,,,,,,,,,,,,,,,,,,,,,,,,,,,,,,,,,,,,,,,,,,,,,,,,,,,,,,,,,,,,,,,"[""comma""]",0,[0.49500000000011823],71,0,71,0,1,,
,,,,,,,,,,,,5e4b2a1a6a0c8403b9f8938e,24,Mężczyzna,2022-06-11_09h18.44.143,task,2021.1.4,Win32,59.95203837,6299f149e92ead563fba08ef,62a440f686fb395618cd2ccc,,,,,,,,,,,,,,,,,,,,,,,,,,,,,,,,,,,,,,,,,,,,,,,,,,,,,,,,,,,,,,,,,,,,,,,,,,,,,,,,,,,,,,,,,,,,"[""comma""]",0,[0.27700000000004366],72,0,72,0,1,,
,,,,,,,,,,,,5e4b2a1a6a0c8403b9f8938e,24,Mężczyzna,2022-06-11_09h18.44.143,task,2021.1.4,Win32,59.95203837,6299f149e92ead563fba08ef,62a440f686fb395618cd2ccc,,,,,,,,,,,,,,,,,,,,,,,,,,,,,,,,,,,,,,,,,,,,,,,,,,,,,,,,,,,,,,,,,,,,,,,,,,,,,,,,,,,,,,,,,,,,"[""comma""]",0,[0.2920000000001437],73,0,73,0,1,,
,,,,,,,,,,,,5e4b2a1a6a0c8403b9f8938e,24,Mężczyzna,2022-06-11_09h18.44.143,task,2021.1.4,Win32,59.95203837,6299f149e92ead563fba08ef,62a440f686fb395618cd2ccc,,,,,,,,,,,,,,,,,,,,,,,,,,,,,,,,,,,,,,,,,,,,,,,,,,,,,,,,,,,,,,,,,,,,,,,,,,,,,,,,,,,,,,,,,,,,"[""comma""]",0,[0.5630000000001019],74,0,74,0,1,,
,,,,,,,,,,,,5e4b2a1a6a0c8403b9f8938e,24,Mężczyzna,2022-06-11_09h18.44.143,task,2021.1.4,Win32,59.95203837,6299f149e92ead563fba08ef,62a440f686fb395618cd2ccc,,,,,,,,,,,,,,,,,,,,,,,,,,,,,,,,,,,,,,,,,,,,,,,,,,,,,,,,,,,,,,,,,,,,,,,,,,,,,,,,,,,,,,,,,,,,"[""period""]",0,[0.4010000000000673],75,0,75,0,1,,
,,,,,,,,,,,,5e4b2a1a6a0c8403b9f8938e,24,Mężczyzna,2022-06-11_09h18.44.143,task,2021.1.4,Win32,59.95203837,6299f149e92ead563fba08ef,62a440f686fb395618cd2ccc,,,,,,,,,,,,,,,,,,,,,,,,,,,,,,,,,,,,,,,,,,,,,,,,,,,,,,,,,,,,,,,,,,,,,,,,,,,,,,,,,,,,,,,,,,,,"[""comma""]",0,[0.43400000000019645],76,0,76,0,1,,
,,,,,,,,,,,,5e4b2a1a6a0c8403b9f8938e,24,Mężczyzna,2022-06-11_09h18.44.143,task,2021.1.4,Win32,59.95203837,6299f149e92ead563fba08ef,62a440f686fb395618cd2ccc,,,,,,,,,,,,,,,,,,,,,,,,,,,,,,,,,,,,,,,,,,,,,,,,,,,,,,,,,,,,,,,,,,,,,,,,,,,,,,,,,,,,,,,,,,,,"[""comma""]",0,[0.5190000000000055],77,0,77,0,1,,
,,,,,,,,,,,,5e4b2a1a6a0c8403b9f8938e,24,Mężczyzna,2022-06-11_09h18.44.143,task,2021.1.4,Win32,59.95203837,6299f149e92ead563fba08ef,62a440f686fb395618cd2ccc,,,,,,,,,,,,,,,,,,,,,,,,,,,,,,,,,,,,,,,,,,,,,,,,,,,,,,,,,,,,,,,,,,,,,,,,,,,,,,,,,,,,,,,,,,,,"[""period""]",0,[0.38199999999983447],78,0,78,0,1,,
,,,,,,,,,,,,5e4b2a1a6a0c8403b9f8938e,24,Mężczyzna,2022-06-11_09h18.44.143,task,2021.1.4,Win32,59.95203837,6299f149e92ead563fba08ef,62a440f686fb395618cd2ccc,,,,,,,,,,,,,,,,,,,,,,,,,,,,,,,,,,,,,,,,,,,,,,,,,,,,,,,,,,,,,,,,,,,,,,,,,,,,,,,,,,,,,,,,,,,,"[""period""]",0,[0.3709999999998672],79,0,79,0,1,,
,,,,,,,,,,,,5e4b2a1a6a0c8403b9f8938e,24,Mężczyzna,2022-06-11_09h18.44.143,task,2021.1.4,Win32,59.95203837,6299f149e92ead563fba08ef,62a440f686fb395618cd2ccc,,,,,,,,,,,,,,,,,,,,,,,,,,,,,,,,,,,,,,,,,,,,,,,,,,,,,,,,,,,,,,,,,,,,,,,,,,,,,,,,,,,,,,,,,,,,"[""comma""]",0,[0.32199999999988904],80,0,80,0,1,,
,,,,,,,,,,,,5e4b2a1a6a0c8403b9f8938e,24,Mężczyzna,2022-06-11_09h18.44.143,task,2021.1.4,Win32,59.95203837,6299f149e92ead563fba08ef,62a440f686fb395618cd2ccc,,,,,,,,,,,,,,,,,,,,,,,,,,,,,,,,,,,,,,,,,,,,,,,,,,,,,,,,,,,,,,,,,,,,,,,,,,,,,,,,,,,,,,,,,,,,"[""comma""]",0,[0.28700000000003456],81,0,81,0,1,,
,,,,,,,,,,,,5e4b2a1a6a0c8403b9f8938e,24,Mężczyzna,2022-06-11_09h18.44.143,task,2021.1.4,Win32,59.95203837,6299f149e92ead563fba08ef,62a440f686fb395618cd2ccc,,,,,,,,,,,,,,,,,,,,,,,,,,,,,,,,,,,,,,,,,,,,,,,,,,,,,,,,,,,,,,,,,,,,,,,,,,,,,,,,,,,,,,,,,,,,"[""period""]",0,[0.28700000000003456],82,0,82,0,1,,
,,,,,,,,,,,,5e4b2a1a6a0c8403b9f8938e,24,Mężczyzna,2022-06-11_09h18.44.143,task,2021.1.4,Win32,59.95203837,6299f149e92ead563fba08ef,62a440f686fb395618cd2ccc,,,,,,,,,,,,,,,,,,,,,,,,,,,,,,,,,,,,,,,,,,,,,,,,,,,,,,,,,,,,,,,,,,,,,,,,,,,,,,,,,,,,,,,,,,,,"[""period""]",0,[0.26500000000010004],83,0,83,0,1,,
