key_resp_15.keys,key_resp_15.rt,key_resp_13.keys,key_resp_13.corr,key_resp_13.rt,ranodm_loop.thisRepN,ranodm_loop.thisTrialN,ranodm_loop.thisN,ranodm_loop.thisIndex,ranodm_loop.ran,participant,Wiek*,Płeć,date,expName,psychopyVersion,OS,frameRate,study_id,session,key_resp_16.keys,key_resp_16.rt,key_resp_4.keys,key_resp_4.rt,next_letter.thisRepN,next_letter.thisTrialN,next_letter.thisN,next_letter.thisIndex,next_letter.ran,letter,simple_recall,key_resp_5.keys,key_resp_5.rt,simple_recall_corr,simple_recall_corrkeys,next_level.thisRepN,next_level.thisTrialN,next_level.thisN,next_level.thisIndex,next_level.ran,key_resp_2.keys,key_resp_2.rt,digit_answer,key_resp.keys,key_resp.corr,key_resp.rt,RT_list,next_equation.thisRepN,next_equation.thisTrialN,next_equation.thisN,next_equation.thisIndex,next_equation.ran,Task,Trial,Problem,Operation_answer,processing_score,sumRT,meanRT,sumdiff,sd,RT,key_resp_3.keys,key_resp_3.rt,repeat_practice.thisRepN,repeat_practice.thisTrialN,repeat_practice.thisN,repeat_practice.thisIndex,repeat_practice.ran,key_resp_6.keys,key_resp_6.rt,key_resp_11.keys,key_resp_11.corr,key_resp_11.rt,operation_correct,repeat_if_wrong_prac.thisRepN,repeat_if_wrong_prac.thisTrialN,repeat_if_wrong_prac.thisN,repeat_if_wrong_prac.thisIndex,repeat_if_wrong_prac.ran,span_size_prac.thisRepN,span_size_prac.thisTrialN,span_size_prac.thisN,span_size_prac.thisIndex,span_size_prac.ran,complex_recall_practice,key_resp_9.keys,key_resp_9.corr,key_resp_9.rt,complex_prac_corr,span_recall_prac.thisRepN,span_recall_prac.thisTrialN,span_recall_prac.thisN,span_recall_prac.thisIndex,span_recall_prac.ran,key_resp_10.keys,key_resp_10.rt,key_resp_7.keys,key_resp_7.corr,key_resp_7.rt,repeat_if_wrong.thisRepN,repeat_if_wrong.thisTrialN,repeat_if_wrong.thisN,repeat_if_wrong.thisIndex,repeat_if_wrong.ran,span_size.thisRepN,span_size.thisTrialN,span_size.thisN,span_size.thisIndex,span_size.ran,complex_recall,key_resp_8.keys,key_resp_8.corr,key_resp_8.rt,complex_recall_corr,complex_recall_corrkeys,span_recall.thisRepN,span_recall.thisTrialN,span_recall.thisN,span_recall.thisIndex,span_recall.ran,key_resp_12.keys,key_resp_12.rt
space,21.5333,"[""comma""]",0,[1.0696000001430548],0,0,0,0,1,5e56c5f6ca5e640720f2cc28,22,Mężczyzna,2022-05-28_09h36.30.246,task,2021.1.4,Win32,75.05817008,628b806c463b948bc644b84f,6291d04c625148c977dfceb3,,,,,,,,,,,,,,,,,,,,,,,,,,,,,,,,,,,,,,,,,,,,,,,,,,,,,,,,,,,,,,,,,,,,,,,,,,,,,,,,,,,,,,,,,,,,,,,,,,,,,,,
,,"[""period""]",0,[1.0734000000953614],1,0,1,0,1,5e56c5f6ca5e640720f2cc28,22,Mężczyzna,2022-05-28_09h36.30.246,task,2021.1.4,Win32,75.05817008,628b806c463b948bc644b84f,6291d04c625148c977dfceb3,,,,,,,,,,,,,,,,,,,,,,,,,,,,,,,,,,,,,,,,,,,,,,,,,,,,,,,,,,,,,,,,,,,,,,,,,,,,,,,,,,,,,,,,,,,,,,,,,,,,,,,
,,"[""period""]",0,[0.665899999856947],2,0,2,0,1,5e56c5f6ca5e640720f2cc28,22,Mężczyzna,2022-05-28_09h36.30.246,task,2021.1.4,Win32,75.05817008,628b806c463b948bc644b84f,6291d04c625148c977dfceb3,,,,,,,,,,,,,,,,,,,,,,,,,,,,,,,,,,,,,,,,,,,,,,,,,,,,,,,,,,,,,,,,,,,,,,,,,,,,,,,,,,,,,,,,,,,,,,,,,,,,,,,
,,"[""comma""]",0,[0.6601999998092651],3,0,3,0,1,5e56c5f6ca5e640720f2cc28,22,Mężczyzna,2022-05-28_09h36.30.246,task,2021.1.4,Win32,75.05817008,628b806c463b948bc644b84f,6291d04c625148c977dfceb3,,,,,,,,,,,,,,,,,,,,,,,,,,,,,,,,,,,,,,,,,,,,,,,,,,,,,,,,,,,,,,,,,,,,,,,,,,,,,,,,,,,,,,,,,,,,,,,,,,,,,,,
,,"[""period""]",0,[0.6006000001430607],4,0,4,0,1,5e56c5f6ca5e640720f2cc28,22,Mężczyzna,2022-05-28_09h36.30.246,task,2021.1.4,Win32,75.05817008,628b806c463b948bc644b84f,6291d04c625148c977dfceb3,,,,,,,,,,,,,,,,,,,,,,,,,,,,,,,,,,,,,,,,,,,,,,,,,,,,,,,,,,,,,,,,,,,,,,,,,,,,,,,,,,,,,,,,,,,,,,,,,,,,,,,
,,"[""comma""]",0,[0.5018999998569456],5,0,5,0,1,5e56c5f6ca5e640720f2cc28,22,Mężczyzna,2022-05-28_09h36.30.246,task,2021.1.4,Win32,75.05817008,628b806c463b948bc644b84f,6291d04c625148c977dfceb3,,,,,,,,,,,,,,,,,,,,,,,,,,,,,,,,,,,,,,,,,,,,,,,,,,,,,,,,,,,,,,,,,,,,,,,,,,,,,,,,,,,,,,,,,,,,,,,,,,,,,,,
,,"[""period""]",0,[0.37289999985694067],6,0,6,0,1,5e56c5f6ca5e640720f2cc28,22,Mężczyzna,2022-05-28_09h36.30.246,task,2021.1.4,Win32,75.05817008,628b806c463b948bc644b84f,6291d04c625148c977dfceb3,,,,,,,,,,,,,,,,,,,,,,,,,,,,,,,,,,,,,,,,,,,,,,,,,,,,,,,,,,,,,,,,,,,,,,,,,,,,,,,,,,,,,,,,,,,,,,,,,,,,,,,
,,"[""period""]",0,[0.42560000014304933],7,0,7,0,1,5e56c5f6ca5e640720f2cc28,22,Mężczyzna,2022-05-28_09h36.30.246,task,2021.1.4,Win32,75.05817008,628b806c463b948bc644b84f,6291d04c625148c977dfceb3,,,,,,,,,,,,,,,,,,,,,,,,,,,,,,,,,,,,,,,,,,,,,,,,,,,,,,,,,,,,,,,,,,,,,,,,,,,,,,,,,,,,,,,,,,,,,,,,,,,,,,,
,,"[""comma""]",0,[0.4371000001430474],8,0,8,0,1,5e56c5f6ca5e640720f2cc28,22,Mężczyzna,2022-05-28_09h36.30.246,task,2021.1.4,Win32,75.05817008,628b806c463b948bc644b84f,6291d04c625148c977dfceb3,,,,,,,,,,,,,,,,,,,,,,,,,,,,,,,,,,,,,,,,,,,,,,,,,,,,,,,,,,,,,,,,,,,,,,,,,,,,,,,,,,,,,,,,,,,,,,,,,,,,,,,
,,"[""comma""]",0,[0.329900000095364],9,0,9,0,1,5e56c5f6ca5e640720f2cc28,22,Mężczyzna,2022-05-28_09h36.30.246,task,2021.1.4,Win32,75.05817008,628b806c463b948bc644b84f,6291d04c625148c977dfceb3,,,,,,,,,,,,,,,,,,,,,,,,,,,,,,,,,,,,,,,,,,,,,,,,,,,,,,,,,,,,,,,,,,,,,,,,,,,,,,,,,,,,,,,,,,,,,,,,,,,,,,,
,,"[""period""]",0,[0.6141999998092587],10,0,10,0,1,5e56c5f6ca5e640720f2cc28,22,Mężczyzna,2022-05-28_09h36.30.246,task,2021.1.4,Win32,75.05817008,628b806c463b948bc644b84f,6291d04c625148c977dfceb3,,,,,,,,,,,,,,,,,,,,,,,,,,,,,,,,,,,,,,,,,,,,,,,,,,,,,,,,,,,,,,,,,,,,,,,,,,,,,,,,,,,,,,,,,,,,,,,,,,,,,,,
,,"[""comma""]",0,[0.538099999904631],11,0,11,0,1,5e56c5f6ca5e640720f2cc28,22,Mężczyzna,2022-05-28_09h36.30.246,task,2021.1.4,Win32,75.05817008,628b806c463b948bc644b84f,6291d04c625148c977dfceb3,,,,,,,,,,,,,,,,,,,,,,,,,,,,,,,,,,,,,,,,,,,,,,,,,,,,,,,,,,,,,,,,,,,,,,,,,,,,,,,,,,,,,,,,,,,,,,,,,,,,,,,
,,"[""period""]",0,[0.37520000004768406],12,0,12,0,1,5e56c5f6ca5e640720f2cc28,22,Mężczyzna,2022-05-28_09h36.30.246,task,2021.1.4,Win32,75.05817008,628b806c463b948bc644b84f,6291d04c625148c977dfceb3,,,,,,,,,,,,,,,,,,,,,,,,,,,,,,,,,,,,,,,,,,,,,,,,,,,,,,,,,,,,,,,,,,,,,,,,,,,,,,,,,,,,,,,,,,,,,,,,,,,,,,,
,,"[""comma""]",0,[0.36650000000000205],13,0,13,0,1,5e56c5f6ca5e640720f2cc28,22,Mężczyzna,2022-05-28_09h36.30.246,task,2021.1.4,Win32,75.05817008,628b806c463b948bc644b84f,6291d04c625148c977dfceb3,,,,,,,,,,,,,,,,,,,,,,,,,,,,,,,,,,,,,,,,,,,,,,,,,,,,,,,,,,,,,,,,,,,,,,,,,,,,,,,,,,,,,,,,,,,,,,,,,,,,,,,
,,"[""comma""]",0,[0.34640000009537175],14,0,14,0,1,5e56c5f6ca5e640720f2cc28,22,Mężczyzna,2022-05-28_09h36.30.246,task,2021.1.4,Win32,75.05817008,628b806c463b948bc644b84f,6291d04c625148c977dfceb3,,,,,,,,,,,,,,,,,,,,,,,,,,,,,,,,,,,,,,,,,,,,,,,,,,,,,,,,,,,,,,,,,,,,,,,,,,,,,,,,,,,,,,,,,,,,,,,,,,,,,,,
,,"[""comma""]",0,[0.40449999999999875],15,0,15,0,1,5e56c5f6ca5e640720f2cc28,22,Mężczyzna,2022-05-28_09h36.30.246,task,2021.1.4,Win32,75.05817008,628b806c463b948bc644b84f,6291d04c625148c977dfceb3,,,,,,,,,,,,,,,,,,,,,,,,,,,,,,,,,,,,,,,,,,,,,,,,,,,,,,,,,,,,,,,,,,,,,,,,,,,,,,,,,,,,,,,,,,,,,,,,,,,,,,,
,,"[""period""]",0,[0.26379999995231174],16,0,16,0,1,5e56c5f6ca5e640720f2cc28,22,Mężczyzna,2022-05-28_09h36.30.246,task,2021.1.4,Win32,75.05817008,628b806c463b948bc644b84f,6291d04c625148c977dfceb3,,,,,,,,,,,,,,,,,,,,,,,,,,,,,,,,,,,,,,,,,,,,,,,,,,,,,,,,,,,,,,,,,,,,,,,,,,,,,,,,,,,,,,,,,,,,,,,,,,,,,,,
,,"[""comma""]",0,[0.3337999999523191],17,0,17,0,1,5e56c5f6ca5e640720f2cc28,22,Mężczyzna,2022-05-28_09h36.30.246,task,2021.1.4,Win32,75.05817008,628b806c463b948bc644b84f,6291d04c625148c977dfceb3,,,,,,,,,,,,,,,,,,,,,,,,,,,,,,,,,,,,,,,,,,,,,,,,,,,,,,,,,,,,,,,,,,,,,,,,,,,,,,,,,,,,,,,,,,,,,,,,,,,,,,,
,,"[""period""]",0,[0.27170000004768724],18,0,18,0,1,5e56c5f6ca5e640720f2cc28,22,Mężczyzna,2022-05-28_09h36.30.246,task,2021.1.4,Win32,75.05817008,628b806c463b948bc644b84f,6291d04c625148c977dfceb3,,,,,,,,,,,,,,,,,,,,,,,,,,,,,,,,,,,,,,,,,,,,,,,,,,,,,,,,,,,,,,,,,,,,,,,,,,,,,,,,,,,,,,,,,,,,,,,,,,,,,,,
,,"[""period""]",0,[0.48799999999999955],19,0,19,0,1,5e56c5f6ca5e640720f2cc28,22,Mężczyzna,2022-05-28_09h36.30.246,task,2021.1.4,Win32,75.05817008,628b806c463b948bc644b84f,6291d04c625148c977dfceb3,,,,,,,,,,,,,,,,,,,,,,,,,,,,,,,,,,,,,,,,,,,,,,,,,,,,,,,,,,,,,,,,,,,,,,,,,,,,,,,,,,,,,,,,,,,,,,,,,,,,,,,
,,"[""period""]",0,[0.5152000000476846],20,0,20,0,1,5e56c5f6ca5e640720f2cc28,22,Mężczyzna,2022-05-28_09h36.30.246,task,2021.1.4,Win32,75.05817008,628b806c463b948bc644b84f,6291d04c625148c977dfceb3,,,,,,,,,,,,,,,,,,,,,,,,,,,,,,,,,,,,,,,,,,,,,,,,,,,,,,,,,,,,,,,,,,,,,,,,,,,,,,,,,,,,,,,,,,,,,,,,,,,,,,,
,,"[""comma""]",0,[0.26720000004767996],21,0,21,0,1,5e56c5f6ca5e640720f2cc28,22,Mężczyzna,2022-05-28_09h36.30.246,task,2021.1.4,Win32,75.05817008,628b806c463b948bc644b84f,6291d04c625148c977dfceb3,,,,,,,,,,,,,,,,,,,,,,,,,,,,,,,,,,,,,,,,,,,,,,,,,,,,,,,,,,,,,,,,,,,,,,,,,,,,,,,,,,,,,,,,,,,,,,,,,,,,,,,
,,"[""period""]",0,[0.00020000004768405688],22,0,22,0,1,5e56c5f6ca5e640720f2cc28,22,Mężczyzna,2022-05-28_09h36.30.246,task,2021.1.4,Win32,75.05817008,628b806c463b948bc644b84f,6291d04c625148c977dfceb3,,,,,,,,,,,,,,,,,,,,,,,,,,,,,,,,,,,,,,,,,,,,,,,,,,,,,,,,,,,,,,,,,,,,,,,,,,,,,,,,,,,,,,,,,,,,,,,,,,,,,,,
,,"[""period""]",0,[0.28639999985693976],23,0,23,0,1,5e56c5f6ca5e640720f2cc28,22,Mężczyzna,2022-05-28_09h36.30.246,task,2021.1.4,Win32,75.05817008,628b806c463b948bc644b84f,6291d04c625148c977dfceb3,,,,,,,,,,,,,,,,,,,,,,,,,,,,,,,,,,,,,,,,,,,,,,,,,,,,,,,,,,,,,,,,,,,,,,,,,,,,,,,,,,,,,,,,,,,,,,,,,,,,,,,
,,"[""period""]",0,[0.2932000000476904],24,0,24,0,1,5e56c5f6ca5e640720f2cc28,22,Mężczyzna,2022-05-28_09h36.30.246,task,2021.1.4,Win32,75.05817008,628b806c463b948bc644b84f,6291d04c625148c977dfceb3,,,,,,,,,,,,,,,,,,,,,,,,,,,,,,,,,,,,,,,,,,,,,,,,,,,,,,,,,,,,,,,,,,,,,,,,,,,,,,,,,,,,,,,,,,,,,,,,,,,,,,,
,,"[""period""]",0,[0.28440000009537414],25,0,25,0,1,5e56c5f6ca5e640720f2cc28,22,Mężczyzna,2022-05-28_09h36.30.246,task,2021.1.4,Win32,75.05817008,628b806c463b948bc644b84f,6291d04c625148c977dfceb3,,,,,,,,,,,,,,,,,,,,,,,,,,,,,,,,,,,,,,,,,,,,,,,,,,,,,,,,,,,,,,,,,,,,,,,,,,,,,,,,,,,,,,,,,,,,,,,,,,,,,,,
,,"[""comma""]",0,[0.26729999995234266],26,0,26,0,1,5e56c5f6ca5e640720f2cc28,22,Mężczyzna,2022-05-28_09h36.30.246,task,2021.1.4,Win32,75.05817008,628b806c463b948bc644b84f,6291d04c625148c977dfceb3,,,,,,,,,,,,,,,,,,,,,,,,,,,,,,,,,,,,,,,,,,,,,,,,,,,,,,,,,,,,,,,,,,,,,,,,,,,,,,,,,,,,,,,,,,,,,,,,,,,,,,,
,,"[""comma""]",0,[0.31529999995231606],27,0,27,0,1,5e56c5f6ca5e640720f2cc28,22,Mężczyzna,2022-05-28_09h36.30.246,task,2021.1.4,Win32,75.05817008,628b806c463b948bc644b84f,6291d04c625148c977dfceb3,,,,,,,,,,,,,,,,,,,,,,,,,,,,,,,,,,,,,,,,,,,,,,,,,,,,,,,,,,,,,,,,,,,,,,,,,,,,,,,,,,,,,,,,,,,,,,,,,,,,,,,
,,"[""period""]",0,[0.2565000000000168],28,0,28,0,1,5e56c5f6ca5e640720f2cc28,22,Mężczyzna,2022-05-28_09h36.30.246,task,2021.1.4,Win32,75.05817008,628b806c463b948bc644b84f,6291d04c625148c977dfceb3,,,,,,,,,,,,,,,,,,,,,,,,,,,,,,,,,,,,,,,,,,,,,,,,,,,,,,,,,,,,,,,,,,,,,,,,,,,,,,,,,,,,,,,,,,,,,,,,,,,,,,,
,,"[""comma""]",0,[0.37479999995230173],29,0,29,0,1,5e56c5f6ca5e640720f2cc28,22,Mężczyzna,2022-05-28_09h36.30.246,task,2021.1.4,Win32,75.05817008,628b806c463b948bc644b84f,6291d04c625148c977dfceb3,,,,,,,,,,,,,,,,,,,,,,,,,,,,,,,,,,,,,,,,,,,,,,,,,,,,,,,,,,,,,,,,,,,,,,,,,,,,,,,,,,,,,,,,,,,,,,,,,,,,,,,
,,"[""period""]",0,[0.3209000000953779],30,0,30,0,1,5e56c5f6ca5e640720f2cc28,22,Mężczyzna,2022-05-28_09h36.30.246,task,2021.1.4,Win32,75.05817008,628b806c463b948bc644b84f,6291d04c625148c977dfceb3,,,,,,,,,,,,,,,,,,,,,,,,,,,,,,,,,,,,,,,,,,,,,,,,,,,,,,,,,,,,,,,,,,,,,,,,,,,,,,,,,,,,,,,,,,,,,,,,,,,,,,,
,,"[""comma""]",0,[0.3312000000476871],31,0,31,0,1,5e56c5f6ca5e640720f2cc28,22,Mężczyzna,2022-05-28_09h36.30.246,task,2021.1.4,Win32,75.05817008,628b806c463b948bc644b84f,6291d04c625148c977dfceb3,,,,,,,,,,,,,,,,,,,,,,,,,,,,,,,,,,,,,,,,,,,,,,,,,,,,,,,,,,,,,,,,,,,,,,,,,,,,,,,,,,,,,,,,,,,,,,,,,,,,,,,
,,"[""comma""]",0,[0.28420000004766166],32,0,32,0,1,5e56c5f6ca5e640720f2cc28,22,Mężczyzna,2022-05-28_09h36.30.246,task,2021.1.4,Win32,75.05817008,628b806c463b948bc644b84f,6291d04c625148c977dfceb3,,,,,,,,,,,,,,,,,,,,,,,,,,,,,,,,,,,,,,,,,,,,,,,,,,,,,,,,,,,,,,,,,,,,,,,,,,,,,,,,,,,,,,,,,,,,,,,,,,,,,,,
,,"[""period""]",0,[0.2760999999046305],33,0,33,0,1,5e56c5f6ca5e640720f2cc28,22,Mężczyzna,2022-05-28_09h36.30.246,task,2021.1.4,Win32,75.05817008,628b806c463b948bc644b84f,6291d04c625148c977dfceb3,,,,,,,,,,,,,,,,,,,,,,,,,,,,,,,,,,,,,,,,,,,,,,,,,,,,,,,,,,,,,,,,,,,,,,,,,,,,,,,,,,,,,,,,,,,,,,,,,,,,,,,
,,"[""comma""]",0,[0.20900000000000318],34,0,34,0,1,5e56c5f6ca5e640720f2cc28,22,Mężczyzna,2022-05-28_09h36.30.246,task,2021.1.4,Win32,75.05817008,628b806c463b948bc644b84f,6291d04c625148c977dfceb3,,,,,,,,,,,,,,,,,,,,,,,,,,,,,,,,,,,,,,,,,,,,,,,,,,,,,,,,,,,,,,,,,,,,,,,,,,,,,,,,,,,,,,,,,,,,,,,,,,,,,,,
,,"[""period""]",0,[0.2618000001907319],35,0,35,0,1,5e56c5f6ca5e640720f2cc28,22,Mężczyzna,2022-05-28_09h36.30.246,task,2021.1.4,Win32,75.05817008,628b806c463b948bc644b84f,6291d04c625148c977dfceb3,,,,,,,,,,,,,,,,,,,,,,,,,,,,,,,,,,,,,,,,,,,,,,,,,,,,,,,,,,,,,,,,,,,,,,,,,,,,,,,,,,,,,,,,,,,,,,,,,,,,,,,
,,"[""comma""]",0,[0.22629999995231742],36,0,36,0,1,5e56c5f6ca5e640720f2cc28,22,Mężczyzna,2022-05-28_09h36.30.246,task,2021.1.4,Win32,75.05817008,628b806c463b948bc644b84f,6291d04c625148c977dfceb3,,,,,,,,,,,,,,,,,,,,,,,,,,,,,,,,,,,,,,,,,,,,,,,,,,,,,,,,,,,,,,,,,,,,,,,,,,,,,,,,,,,,,,,,,,,,,,,,,,,,,,,
,,"[""period""]",0,[0.2544000000953588],37,0,37,0,1,5e56c5f6ca5e640720f2cc28,22,Mężczyzna,2022-05-28_09h36.30.246,task,2021.1.4,Win32,75.05817008,628b806c463b948bc644b84f,6291d04c625148c977dfceb3,,,,,,,,,,,,,,,,,,,,,,,,,,,,,,,,,,,,,,,,,,,,,,,,,,,,,,,,,,,,,,,,,,,,,,,,,,,,,,,,,,,,,,,,,,,,,,,,,,,,,,,
,,"[""comma""]",0,[0.3114999999999952],38,0,38,0,1,5e56c5f6ca5e640720f2cc28,22,Mężczyzna,2022-05-28_09h36.30.246,task,2021.1.4,Win32,75.05817008,628b806c463b948bc644b84f,6291d04c625148c977dfceb3,,,,,,,,,,,,,,,,,,,,,,,,,,,,,,,,,,,,,,,,,,,,,,,,,,,,,,,,,,,,,,,,,,,,,,,,,,,,,,,,,,,,,,,,,,,,,,,,,,,,,,,
,,"[""period""]",0,[0.32009999990464166],39,0,39,0,1,5e56c5f6ca5e640720f2cc28,22,Mężczyzna,2022-05-28_09h36.30.246,task,2021.1.4,Win32,75.05817008,628b806c463b948bc644b84f,6291d04c625148c977dfceb3,,,,,,,,,,,,,,,,,,,,,,,,,,,,,,,,,,,,,,,,,,,,,,,,,,,,,,,,,,,,,,,,,,,,,,,,,,,,,,,,,,,,,,,,,,,,,,,,,,,,,,,
,,"[""comma""]",0,[0.3484000000953529],40,0,40,0,1,5e56c5f6ca5e640720f2cc28,22,Mężczyzna,2022-05-28_09h36.30.246,task,2021.1.4,Win32,75.05817008,628b806c463b948bc644b84f,6291d04c625148c977dfceb3,,,,,,,,,,,,,,,,,,,,,,,,,,,,,,,,,,,,,,,,,,,,,,,,,,,,,,,,,,,,,,,,,,,,,,,,,,,,,,,,,,,,,,,,,,,,,,,,,,,,,,,
,,"[""comma""]",0,[0.29089999985694703],41,0,41,0,1,5e56c5f6ca5e640720f2cc28,22,Mężczyzna,2022-05-28_09h36.30.246,task,2021.1.4,Win32,75.05817008,628b806c463b948bc644b84f,6291d04c625148c977dfceb3,,,,,,,,,,,,,,,,,,,,,,,,,,,,,,,,,,,,,,,,,,,,,,,,,,,,,,,,,,,,,,,,,,,,,,,,,,,,,,,,,,,,,,,,,,,,,,,,,,,,,,,
,,"[""period""]",0,[0.275900000095362],42,0,42,0,1,5e56c5f6ca5e640720f2cc28,22,Mężczyzna,2022-05-28_09h36.30.246,task,2021.1.4,Win32,75.05817008,628b806c463b948bc644b84f,6291d04c625148c977dfceb3,,,,,,,,,,,,,,,,,,,,,,,,,,,,,,,,,,,,,,,,,,,,,,,,,,,,,,,,,,,,,,,,,,,,,,,,,,,,,,,,,,,,,,,,,,,,,,,,,,,,,,,
,,"[""comma""]",0,[0.004700000047705544],43,0,43,0,1,5e56c5f6ca5e640720f2cc28,22,Mężczyzna,2022-05-28_09h36.30.246,task,2021.1.4,Win32,75.05817008,628b806c463b948bc644b84f,6291d04c625148c977dfceb3,,,,,,,,,,,,,,,,,,,,,,,,,,,,,,,,,,,,,,,,,,,,,,,,,,,,,,,,,,,,,,,,,,,,,,,,,,,,,,,,,,,,,,,,,,,,,,,,,,,,,,,
,,"[""period""]",0,[0.0578000001907526],44,0,44,0,1,5e56c5f6ca5e640720f2cc28,22,Mężczyzna,2022-05-28_09h36.30.246,task,2021.1.4,Win32,75.05817008,628b806c463b948bc644b84f,6291d04c625148c977dfceb3,,,,,,,,,,,,,,,,,,,,,,,,,,,,,,,,,,,,,,,,,,,,,,,,,,,,,,,,,,,,,,,,,,,,,,,,,,,,,,,,,,,,,,,,,,,,,,,,,,,,,,,
,,"[""period""]",0,[0.1927000000476653],45,0,45,0,1,5e56c5f6ca5e640720f2cc28,22,Mężczyzna,2022-05-28_09h36.30.246,task,2021.1.4,Win32,75.05817008,628b806c463b948bc644b84f,6291d04c625148c977dfceb3,,,,,,,,,,,,,,,,,,,,,,,,,,,,,,,,,,,,,,,,,,,,,,,,,,,,,,,,,,,,,,,,,,,,,,,,,,,,,,,,,,,,,,,,,,,,,,,,,,,,,,,
,,"[""period""]",0,[0.10040000009536243],46,0,46,0,1,5e56c5f6ca5e640720f2cc28,22,Mężczyzna,2022-05-28_09h36.30.246,task,2021.1.4,Win32,75.05817008,628b806c463b948bc644b84f,6291d04c625148c977dfceb3,,,,,,,,,,,,,,,,,,,,,,,,,,,,,,,,,,,,,,,,,,,,,,,,,,,,,,,,,,,,,,,,,,,,,,,,,,,,,,,,,,,,,,,,,,,,,,,,,,,,,,,
,,"[""comma"",""comma""]",0,"[0.24950000000001182,1.9727000000476949]",47,0,47,0,1,5e56c5f6ca5e640720f2cc28,22,Mężczyzna,2022-05-28_09h36.30.246,task,2021.1.4,Win32,75.05817008,628b806c463b948bc644b84f,6291d04c625148c977dfceb3,,,,,,,,,,,,,,,,,,,,,,,,,,,,,,,,,,,,,,,,,,,,,,,,,,,,,,,,,,,,,,,,,,,,,,,,,,,,,,,,,,,,,,,,,,,,,,,,,,,,,,,
,,"[""period""]",0,[1.7784000000953597],48,0,48,0,1,5e56c5f6ca5e640720f2cc28,22,Mężczyzna,2022-05-28_09h36.30.246,task,2021.1.4,Win32,75.05817008,628b806c463b948bc644b84f,6291d04c625148c977dfceb3,,,,,,,,,,,,,,,,,,,,,,,,,,,,,,,,,,,,,,,,,,,,,,,,,,,,,,,,,,,,,,,,,,,,,,,,,,,,,,,,,,,,,,,,,,,,,,,,,,,,,,,
,,"[""comma""]",0,[1.961800000190749],49,0,49,0,1,5e56c5f6ca5e640720f2cc28,22,Mężczyzna,2022-05-28_09h36.30.246,task,2021.1.4,Win32,75.05817008,628b806c463b948bc644b84f,6291d04c625148c977dfceb3,,,,,,,,,,,,,,,,,,,,,,,,,,,,,,,,,,,,,,,,,,,,,,,,,,,,,,,,,,,,,,,,,,,,,,,,,,,,,,,,,,,,,,,,,,,,,,,,,,,,,,,
,,,0,,50,0,50,0,1,5e56c5f6ca5e640720f2cc28,22,Mężczyzna,2022-05-28_09h36.30.246,task,2021.1.4,Win32,75.05817008,628b806c463b948bc644b84f,6291d04c625148c977dfceb3,,,,,,,,,,,,,,,,,,,,,,,,,,,,,,,,,,,,,,,,,,,,,,,,,,,,,,,,,,,,,,,,,,,,,,,,,,,,,,,,,,,,,,,,,,,,,,,,,,,,,,,
,,"[""period""]",0,[0.2991000001430564],51,0,51,0,1,5e56c5f6ca5e640720f2cc28,22,Mężczyzna,2022-05-28_09h36.30.246,task,2021.1.4,Win32,75.05817008,628b806c463b948bc644b84f,6291d04c625148c977dfceb3,,,,,,,,,,,,,,,,,,,,,,,,,,,,,,,,,,,,,,,,,,,,,,,,,,,,,,,,,,,,,,,,,,,,,,,,,,,,,,,,,,,,,,,,,,,,,,,,,,,,,,,
,,"[""comma""]",0,[0.274400000095369],52,0,52,0,1,5e56c5f6ca5e640720f2cc28,22,Mężczyzna,2022-05-28_09h36.30.246,task,2021.1.4,Win32,75.05817008,628b806c463b948bc644b84f,6291d04c625148c977dfceb3,,,,,,,,,,,,,,,,,,,,,,,,,,,,,,,,,,,,,,,,,,,,,,,,,,,,,,,,,,,,,,,,,,,,,,,,,,,,,,,,,,,,,,,,,,,,,,,,,,,,,,,
,,"[""period""]",0,[0.2232999999523031],53,0,53,0,1,5e56c5f6ca5e640720f2cc28,22,Mężczyzna,2022-05-28_09h36.30.246,task,2021.1.4,Win32,75.05817008,628b806c463b948bc644b84f,6291d04c625148c977dfceb3,,,,,,,,,,,,,,,,,,,,,,,,,,,,,,,,,,,,,,,,,,,,,,,,,,,,,,,,,,,,,,,,,,,,,,,,,,,,,,,,,,,,,,,,,,,,,,,,,,,,,,,
,,"[""period""]",0,[0.4137999999523174],54,0,54,0,1,5e56c5f6ca5e640720f2cc28,22,Mężczyzna,2022-05-28_09h36.30.246,task,2021.1.4,Win32,75.05817008,628b806c463b948bc644b84f,6291d04c625148c977dfceb3,,,,,,,,,,,,,,,,,,,,,,,,,,,,,,,,,,,,,,,,,,,,,,,,,,,,,,,,,,,,,,,,,,,,,,,,,,,,,,,,,,,,,,,,,,,,,,,,,,,,,,,
,,"[""period""]",0,[0.4939000000953797],55,0,55,0,1,5e56c5f6ca5e640720f2cc28,22,Mężczyzna,2022-05-28_09h36.30.246,task,2021.1.4,Win32,75.05817008,628b806c463b948bc644b84f,6291d04c625148c977dfceb3,,,,,,,,,,,,,,,,,,,,,,,,,,,,,,,,,,,,,,,,,,,,,,,,,,,,,,,,,,,,,,,,,,,,,,,,,,,,,,,,,,,,,,,,,,,,,,,,,,,,,,,
,,"[""period""]",0,[0.36480000019074055],56,0,56,0,1,5e56c5f6ca5e640720f2cc28,22,Mężczyzna,2022-05-28_09h36.30.246,task,2021.1.4,Win32,75.05817008,628b806c463b948bc644b84f,6291d04c625148c977dfceb3,,,,,,,,,,,,,,,,,,,,,,,,,,,,,,,,,,,,,,,,,,,,,,,,,,,,,,,,,,,,,,,,,,,,,,,,,,,,,,,,,,,,,,,,,,,,,,,,,,,,,,,
,,"[""comma""]",0,[0.4637999999523288],57,0,57,0,1,5e56c5f6ca5e640720f2cc28,22,Mężczyzna,2022-05-28_09h36.30.246,task,2021.1.4,Win32,75.05817008,628b806c463b948bc644b84f,6291d04c625148c977dfceb3,,,,,,,,,,,,,,,,,,,,,,,,,,,,,,,,,,,,,,,,,,,,,,,,,,,,,,,,,,,,,,,,,,,,,,,,,,,,,,,,,,,,,,,,,,,,,,,,,,,,,,,
,,"[""comma""]",0,[0.3151000001430475],58,0,58,0,1,5e56c5f6ca5e640720f2cc28,22,Mężczyzna,2022-05-28_09h36.30.246,task,2021.1.4,Win32,75.05817008,628b806c463b948bc644b84f,6291d04c625148c977dfceb3,,,,,,,,,,,,,,,,,,,,,,,,,,,,,,,,,,,,,,,,,,,,,,,,,,,,,,,,,,,,,,,,,,,,,,,,,,,,,,,,,,,,,,,,,,,,,,,,,,,,,,,
,,"[""comma"",""period""]",0,"[0.23609999990463848,1.9367999999523136]",59,0,59,0,1,5e56c5f6ca5e640720f2cc28,22,Mężczyzna,2022-05-28_09h36.30.246,task,2021.1.4,Win32,75.05817008,628b806c463b948bc644b84f,6291d04c625148c977dfceb3,,,,,,,,,,,,,,,,,,,,,,,,,,,,,,,,,,,,,,,,,,,,,,,,,,,,,,,,,,,,,,,,,,,,,,,,,,,,,,,,,,,,,,,,,,,,,,,,,,,,,,,
,,,0,,60,0,60,0,1,5e56c5f6ca5e640720f2cc28,22,Mężczyzna,2022-05-28_09h36.30.246,task,2021.1.4,Win32,75.05817008,628b806c463b948bc644b84f,6291d04c625148c977dfceb3,,,,,,,,,,,,,,,,,,,,,,,,,,,,,,,,,,,,,,,,,,,,,,,,,,,,,,,,,,,,,,,,,,,,,,,,,,,,,,,,,,,,,,,,,,,,,,,,,,,,,,,
,,"[""comma""]",0,[0.22749999999999204],61,0,61,0,1,5e56c5f6ca5e640720f2cc28,22,Mężczyzna,2022-05-28_09h36.30.246,task,2021.1.4,Win32,75.05817008,628b806c463b948bc644b84f,6291d04c625148c977dfceb3,,,,,,,,,,,,,,,,,,,,,,,,,,,,,,,,,,,,,,,,,,,,,,,,,,,,,,,,,,,,,,,,,,,,,,,,,,,,,,,,,,,,,,,,,,,,,,,,,,,,,,,
,,"[""comma""]",0,[0.32110000014304774],62,0,62,0,1,5e56c5f6ca5e640720f2cc28,22,Mężczyzna,2022-05-28_09h36.30.246,task,2021.1.4,Win32,75.05817008,628b806c463b948bc644b84f,6291d04c625148c977dfceb3,,,,,,,,,,,,,,,,,,,,,,,,,,,,,,,,,,,,,,,,,,,,,,,,,,,,,,,,,,,,,,,,,,,,,,,,,,,,,,,,,,,,,,,,,,,,,,,,,,,,,,,
,,"[""comma""]",0,[0.2817999999523124],63,0,63,0,1,5e56c5f6ca5e640720f2cc28,22,Mężczyzna,2022-05-28_09h36.30.246,task,2021.1.4,Win32,75.05817008,628b806c463b948bc644b84f,6291d04c625148c977dfceb3,,,,,,,,,,,,,,,,,,,,,,,,,,,,,,,,,,,,,,,,,,,,,,,,,,,,,,,,,,,,,,,,,,,,,,,,,,,,,,,,,,,,,,,,,,,,,,,,,,,,,,,
,,"[""period"",""period""]",0,"[0.07329999995229741,1.8813999998569386]",64,0,64,0,1,5e56c5f6ca5e640720f2cc28,22,Mężczyzna,2022-05-28_09h36.30.246,task,2021.1.4,Win32,75.05817008,628b806c463b948bc644b84f,6291d04c625148c977dfceb3,,,,,,,,,,,,,,,,,,,,,,,,,,,,,,,,,,,,,,,,,,,,,,,,,,,,,,,,,,,,,,,,,,,,,,,,,,,,,,,,,,,,,,,,,,,,,,,,,,,,,,,
,,,0,,65,0,65,0,1,5e56c5f6ca5e640720f2cc28,22,Mężczyzna,2022-05-28_09h36.30.246,task,2021.1.4,Win32,75.05817008,628b806c463b948bc644b84f,6291d04c625148c977dfceb3,,,,,,,,,,,,,,,,,,,,,,,,,,,,,,,,,,,,,,,,,,,,,,,,,,,,,,,,,,,,,,,,,,,,,,,,,,,,,,,,,,,,,,,,,,,,,,,,,,,,,,,
,,"[""period""]",0,[0.3282000000477012],66,0,66,0,1,5e56c5f6ca5e640720f2cc28,22,Mężczyzna,2022-05-28_09h36.30.246,task,2021.1.4,Win32,75.05817008,628b806c463b948bc644b84f,6291d04c625148c977dfceb3,,,,,,,,,,,,,,,,,,,,,,,,,,,,,,,,,,,,,,,,,,,,,,,,,,,,,,,,,,,,,,,,,,,,,,,,,,,,,,,,,,,,,,,,,,,,,,,,,,,,,,,
,,"[""period""]",0,[0.302799999952299],67,0,67,0,1,5e56c5f6ca5e640720f2cc28,22,Mężczyzna,2022-05-28_09h36.30.246,task,2021.1.4,Win32,75.05817008,628b806c463b948bc644b84f,6291d04c625148c977dfceb3,,,,,,,,,,,,,,,,,,,,,,,,,,,,,,,,,,,,,,,,,,,,,,,,,,,,,,,,,,,,,,,,,,,,,,,,,,,,,,,,,,,,,,,,,,,,,,,,,,,,,,,
,,"[""period""]",0,[0.28429999995233857],68,0,68,0,1,5e56c5f6ca5e640720f2cc28,22,Mężczyzna,2022-05-28_09h36.30.246,task,2021.1.4,Win32,75.05817008,628b806c463b948bc644b84f,6291d04c625148c977dfceb3,,,,,,,,,,,,,,,,,,,,,,,,,,,,,,,,,,,,,,,,,,,,,,,,,,,,,,,,,,,,,,,,,,,,,,,,,,,,,,,,,,,,,,,,,,,,,,,,,,,,,,,
,,"[""comma""]",0,[0.27729999995233356],69,0,69,0,1,5e56c5f6ca5e640720f2cc28,22,Mężczyzna,2022-05-28_09h36.30.246,task,2021.1.4,Win32,75.05817008,628b806c463b948bc644b84f,6291d04c625148c977dfceb3,,,,,,,,,,,,,,,,,,,,,,,,,,,,,,,,,,,,,,,,,,,,,,,,,,,,,,,,,,,,,,,,,,,,,,,,,,,,,,,,,,,,,,,,,,,,,,,,,,,,,,,
,,"[""period""]",0,[0.23050000000000637],70,0,70,0,1,5e56c5f6ca5e640720f2cc28,22,Mężczyzna,2022-05-28_09h36.30.246,task,2021.1.4,Win32,75.05817008,628b806c463b948bc644b84f,6291d04c625148c977dfceb3,,,,,,,,,,,,,,,,,,,,,,,,,,,,,,,,,,,,,,,,,,,,,,,,,,,,,,,,,,,,,,,,,,,,,,,,,,,,,,,,,,,,,,,,,,,,,,,,,,,,,,,
,,"[""comma""]",0,[0.29520000004768576],71,0,71,0,1,5e56c5f6ca5e640720f2cc28,22,Mężczyzna,2022-05-28_09h36.30.246,task,2021.1.4,Win32,75.05817008,628b806c463b948bc644b84f,6291d04c625148c977dfceb3,,,,,,,,,,,,,,,,,,,,,,,,,,,,,,,,,,,,,,,,,,,,,,,,,,,,,,,,,,,,,,,,,,,,,,,,,,,,,,,,,,,,,,,,,,,,,,,,,,,,,,,
,,"[""comma"",""period""]",0,"[0.28299999999998704,1.7620000000000005]",72,0,72,0,1,5e56c5f6ca5e640720f2cc28,22,Mężczyzna,2022-05-28_09h36.30.246,task,2021.1.4,Win32,75.05817008,628b806c463b948bc644b84f,6291d04c625148c977dfceb3,,,,,,,,,,,,,,,,,,,,,,,,,,,,,,,,,,,,,,,,,,,,,,,,,,,,,,,,,,,,,,,,,,,,,,,,,,,,,,,,,,,,,,,,,,,,,,,,,,,,,,,
,,,0,,73,0,73,0,1,5e56c5f6ca5e640720f2cc28,22,Mężczyzna,2022-05-28_09h36.30.246,task,2021.1.4,Win32,75.05817008,628b806c463b948bc644b84f,6291d04c625148c977dfceb3,,,,,,,,,,,,,,,,,,,,,,,,,,,,,,,,,,,,,,,,,,,,,,,,,,,,,,,,,,,,,,,,,,,,,,,,,,,,,,,,,,,,,,,,,,,,,,,,,,,,,,,
,,"[""comma""]",0,[0.307300000190736],74,0,74,0,1,5e56c5f6ca5e640720f2cc28,22,Mężczyzna,2022-05-28_09h36.30.246,task,2021.1.4,Win32,75.05817008,628b806c463b948bc644b84f,6291d04c625148c977dfceb3,,,,,,,,,,,,,,,,,,,,,,,,,,,,,,,,,,,,,,,,,,,,,,,,,,,,,,,,,,,,,,,,,,,,,,,,,,,,,,,,,,,,,,,,,,,,,,,,,,,,,,,
,,"[""period""]",0,[0.3237000000476655],75,0,75,0,1,5e56c5f6ca5e640720f2cc28,22,Mężczyzna,2022-05-28_09h36.30.246,task,2021.1.4,Win32,75.05817008,628b806c463b948bc644b84f,6291d04c625148c977dfceb3,,,,,,,,,,,,,,,,,,,,,,,,,,,,,,,,,,,,,,,,,,,,,,,,,,,,,,,,,,,,,,,,,,,,,,,,,,,,,,,,,,,,,,,,,,,,,,,,,,,,,,,
,,"[""period""]",0,[0.4960999999046578],76,0,76,0,1,5e56c5f6ca5e640720f2cc28,22,Mężczyzna,2022-05-28_09h36.30.246,task,2021.1.4,Win32,75.05817008,628b806c463b948bc644b84f,6291d04c625148c977dfceb3,,,,,,,,,,,,,,,,,,,,,,,,,,,,,,,,,,,,,,,,,,,,,,,,,,,,,,,,,,,,,,,,,,,,,,,,,,,,,,,,,,,,,,,,,,,,,,,,,,,,,,,
,,"[""comma""]",0,[0.4410000000000025],77,0,77,0,1,5e56c5f6ca5e640720f2cc28,22,Mężczyzna,2022-05-28_09h36.30.246,task,2021.1.4,Win32,75.05817008,628b806c463b948bc644b84f,6291d04c625148c977dfceb3,,,,,,,,,,,,,,,,,,,,,,,,,,,,,,,,,,,,,,,,,,,,,,,,,,,,,,,,,,,,,,,,,,,,,,,,,,,,,,,,,,,,,,,,,,,,,,,,,,,,,,,
,,"[""comma""]",0,[0.40920000004766166],78,0,78,0,1,5e56c5f6ca5e640720f2cc28,22,Mężczyzna,2022-05-28_09h36.30.246,task,2021.1.4,Win32,75.05817008,628b806c463b948bc644b84f,6291d04c625148c977dfceb3,,,,,,,,,,,,,,,,,,,,,,,,,,,,,,,,,,,,,,,,,,,,,,,,,,,,,,,,,,,,,,,,,,,,,,,,,,,,,,,,,,,,,,,,,,,,,,,,,,,,,,,
,,"[""period""]",0,[0.26079999995232583],79,0,79,0,1,5e56c5f6ca5e640720f2cc28,22,Mężczyzna,2022-05-28_09h36.30.246,task,2021.1.4,Win32,75.05817008,628b806c463b948bc644b84f,6291d04c625148c977dfceb3,,,,,,,,,,,,,,,,,,,,,,,,,,,,,,,,,,,,,,,,,,,,,,,,,,,,,,,,,,,,,,,,,,,,,,,,,,,,,,,,,,,,,,,,,,,,,,,,,,,,,,,
,,"[""period""]",0,[0.0005999999046366611],80,0,80,0,1,5e56c5f6ca5e640720f2cc28,22,Mężczyzna,2022-05-28_09h36.30.246,task,2021.1.4,Win32,75.05817008,628b806c463b948bc644b84f,6291d04c625148c977dfceb3,,,,,,,,,,,,,,,,,,,,,,,,,,,,,,,,,,,,,,,,,,,,,,,,,,,,,,,,,,,,,,,,,,,,,,,,,,,,,,,,,,,,,,,,,,,,,,,,,,,,,,,
,,"[""period""]",0,[0.3746000001430332],81,0,81,0,1,5e56c5f6ca5e640720f2cc28,22,Mężczyzna,2022-05-28_09h36.30.246,task,2021.1.4,Win32,75.05817008,628b806c463b948bc644b84f,6291d04c625148c977dfceb3,,,,,,,,,,,,,,,,,,,,,,,,,,,,,,,,,,,,,,,,,,,,,,,,,,,,,,,,,,,,,,,,,,,,,,,,,,,,,,,,,,,,,,,,,,,,,,,,,,,,,,,
,,"[""comma""]",0,[0.3343999998569416],82,0,82,0,1,5e56c5f6ca5e640720f2cc28,22,Mężczyzna,2022-05-28_09h36.30.246,task,2021.1.4,Win32,75.05817008,628b806c463b948bc644b84f,6291d04c625148c977dfceb3,,,,,,,,,,,,,,,,,,,,,,,,,,,,,,,,,,,,,,,,,,,,,,,,,,,,,,,,,,,,,,,,,,,,,,,,,,,,,,,,,,,,,,,,,,,,,,,,,,,,,,,
,,"[""comma""]",0,[0.42449999999999477],83,0,83,0,1,5e56c5f6ca5e640720f2cc28,22,Mężczyzna,2022-05-28_09h36.30.246,task,2021.1.4,Win32,75.05817008,628b806c463b948bc644b84f,6291d04c625148c977dfceb3,,,,,,,,,,,,,,,,,,,,,,,,,,,,,,,,,,,,,,,,,,,,,,,,,,,,,,,,,,,,,,,,,,,,,,,,,,,,,,,,,,,,,,,,,,,,,,,,,,,,,,,
,,"[""period""]",0,[0.2809000000953574],84,0,84,0,1,5e56c5f6ca5e640720f2cc28,22,Mężczyzna,2022-05-28_09h36.30.246,task,2021.1.4,Win32,75.05817008,628b806c463b948bc644b84f,6291d04c625148c977dfceb3,,,,,,,,,,,,,,,,,,,,,,,,,,,,,,,,,,,,,,,,,,,,,,,,,,,,,,,,,,,,,,,,,,,,,,,,,,,,,,,,,,,,,,,,,,,,,,,,,,,,,,,
,,"[""comma""]",0,[0.25079999995233493],85,0,85,0,1,5e56c5f6ca5e640720f2cc28,22,Mężczyzna,2022-05-28_09h36.30.246,task,2021.1.4,Win32,75.05817008,628b806c463b948bc644b84f,6291d04c625148c977dfceb3,,,,,,,,,,,,,,,,,,,,,,,,,,,,,,,,,,,,,,,,,,,,,,,,,,,,,,,,,,,,,,,,,,,,,,,,,,,,,,,,,,,,,,,,,,,,,,,,,,,,,,,
,,"[""period""]",0,[0.22670000004768553],86,0,86,0,1,5e56c5f6ca5e640720f2cc28,22,Mężczyzna,2022-05-28_09h36.30.246,task,2021.1.4,Win32,75.05817008,628b806c463b948bc644b84f,6291d04c625148c977dfceb3,,,,,,,,,,,,,,,,,,,,,,,,,,,,,,,,,,,,,,,,,,,,,,,,,,,,,,,,,,,,,,,,,,,,,,,,,,,,,,,,,,,,,,,,,,,,,,,,,,,,,,,
,,"[""comma""]",0,[0.2990000000000066],87,0,87,0,1,5e56c5f6ca5e640720f2cc28,22,Mężczyzna,2022-05-28_09h36.30.246,task,2021.1.4,Win32,75.05817008,628b806c463b948bc644b84f,6291d04c625148c977dfceb3,,,,,,,,,,,,,,,,,,,,,,,,,,,,,,,,,,,,,,,,,,,,,,,,,,,,,,,,,,,,,,,,,,,,,,,,,,,,,,,,,,,,,,,,,,,,,,,,,,,,,,,
,,"[""comma""]",0,[0.275299999952324],88,0,88,0,1,5e56c5f6ca5e640720f2cc28,22,Mężczyzna,2022-05-28_09h36.30.246,task,2021.1.4,Win32,75.05817008,628b806c463b948bc644b84f,6291d04c625148c977dfceb3,,,,,,,,,,,,,,,,,,,,,,,,,,,,,,,,,,,,,,,,,,,,,,,,,,,,,,,,,,,,,,,,,,,,,,,,,,,,,,,,,,,,,,,,,,,,,,,,,,,,,,,
,,"[""comma""]",0,[0.7502999999523183],89,0,89,0,1,5e56c5f6ca5e640720f2cc28,22,Mężczyzna,2022-05-28_09h36.30.246,task,2021.1.4,Win32,75.05817008,628b806c463b948bc644b84f,6291d04c625148c977dfceb3,,,,,,,,,,,,,,,,,,,,,,,,,,,,,,,,,,,,,,,,,,,,,,,,,,,,,,,,,,,,,,,,,,,,,,,,,,,,,,,,,,,,,,,,,,,,,,,,,,,,,,,
,,"[""period""]",0,[0.2725000000000364],90,0,90,0,1,5e56c5f6ca5e640720f2cc28,22,Mężczyzna,2022-05-28_09h36.30.246,task,2021.1.4,Win32,75.05817008,628b806c463b948bc644b84f,6291d04c625148c977dfceb3,,,,,,,,,,,,,,,,,,,,,,,,,,,,,,,,,,,,,,,,,,,,,,,,,,,,,,,,,,,,,,,,,,,,,,,,,,,,,,,,,,,,,,,,,,,,,,,,,,,,,,,
,,"[""comma""]",0,[0.5096999998092997],91,0,91,0,1,5e56c5f6ca5e640720f2cc28,22,Mężczyzna,2022-05-28_09h36.30.246,task,2021.1.4,Win32,75.05817008,628b806c463b948bc644b84f,6291d04c625148c977dfceb3,,,,,,,,,,,,,,,,,,,,,,,,,,,,,,,,,,,,,,,,,,,,,,,,,,,,,,,,,,,,,,,,,,,,,,,,,,,,,,,,,,,,,,,,,,,,,,,,,,,,,,,
,,"[""comma""]",0,[0.2673999998569343],92,0,92,0,1,5e56c5f6ca5e640720f2cc28,22,Mężczyzna,2022-05-28_09h36.30.246,task,2021.1.4,Win32,75.05817008,628b806c463b948bc644b84f,6291d04c625148c977dfceb3,,,,,,,,,,,,,,,,,,,,,,,,,,,,,,,,,,,,,,,,,,,,,,,,,,,,,,,,,,,,,,,,,,,,,,,,,,,,,,,,,,,,,,,,,,,,,,,,,,,,,,,
,,"[""comma""]",0,[0.38389999985696477],93,0,93,0,1,5e56c5f6ca5e640720f2cc28,22,Mężczyzna,2022-05-28_09h36.30.246,task,2021.1.4,Win32,75.05817008,628b806c463b948bc644b84f,6291d04c625148c977dfceb3,,,,,,,,,,,,,,,,,,,,,,,,,,,,,,,,,,,,,,,,,,,,,,,,,,,,,,,,,,,,,,,,,,,,,,,,,,,,,,,,,,,,,,,,,,,,,,,,,,,,,,,
,,"[""period""]",0,[0.2769999999999868],94,0,94,0,1,5e56c5f6ca5e640720f2cc28,22,Mężczyzna,2022-05-28_09h36.30.246,task,2021.1.4,Win32,75.05817008,628b806c463b948bc644b84f,6291d04c625148c977dfceb3,,,,,,,,,,,,,,,,,,,,,,,,,,,,,,,,,,,,,,,,,,,,,,,,,,,,,,,,,,,,,,,,,,,,,,,,,,,,,,,,,,,,,,,,,,,,,,,,,,,,,,,
,,"[""period""]",0,[0.2585000000000264],95,0,95,0,1,5e56c5f6ca5e640720f2cc28,22,Mężczyzna,2022-05-28_09h36.30.246,task,2021.1.4,Win32,75.05817008,628b806c463b948bc644b84f,6291d04c625148c977dfceb3,,,,,,,,,,,,,,,,,,,,,,,,,,,,,,,,,,,,,,,,,,,,,,,,,,,,,,,,,,,,,,,,,,,,,,,,,,,,,,,,,,,,,,,,,,,,,,,,,,,,,,,
,,"[""period""]",0,[0.2940999999046312],96,0,96,0,1,5e56c5f6ca5e640720f2cc28,22,Mężczyzna,2022-05-28_09h36.30.246,task,2021.1.4,Win32,75.05817008,628b806c463b948bc644b84f,6291d04c625148c977dfceb3,,,,,,,,,,,,,,,,,,,,,,,,,,,,,,,,,,,,,,,,,,,,,,,,,,,,,,,,,,,,,,,,,,,,,,,,,,,,,,,,,,,,,,,,,,,,,,,,,,,,,,,
,,"[""comma""]",0,[0.41459999990462393],97,0,97,0,1,5e56c5f6ca5e640720f2cc28,22,Mężczyzna,2022-05-28_09h36.30.246,task,2021.1.4,Win32,75.05817008,628b806c463b948bc644b84f,6291d04c625148c977dfceb3,,,,,,,,,,,,,,,,,,,,,,,,,,,,,,,,,,,,,,,,,,,,,,,,,,,,,,,,,,,,,,,,,,,,,,,,,,,,,,,,,,,,,,,,,,,,,,,,,,,,,,,
,,"[""period""]",0,[0.2673999998569343],98,0,98,0,1,5e56c5f6ca5e640720f2cc28,22,Mężczyzna,2022-05-28_09h36.30.246,task,2021.1.4,Win32,75.05817008,628b806c463b948bc644b84f,6291d04c625148c977dfceb3,,,,,,,,,,,,,,,,,,,,,,,,,,,,,,,,,,,,,,,,,,,,,,,,,,,,,,,,,,,,,,,,,,,,,,,,,,,,,,,,,,,,,,,,,,,,,,,,,,,,,,,
,,"[""period""]",0,[0.30429999995226353],99,0,99,0,1,5e56c5f6ca5e640720f2cc28,22,Mężczyzna,2022-05-28_09h36.30.246,task,2021.1.4,Win32,75.05817008,628b806c463b948bc644b84f,6291d04c625148c977dfceb3,,,,,,,,,,,,,,,,,,,,,,,,,,,,,,,,,,,,,,,,,,,,,,,,,,,,,,,,,,,,,,,,,,,,,,,,,,,,,,,,,,,,,,,,,,,,,,,,,,,,,,,
,,"[""period""]",0,[0.247299999952304],100,0,100,0,1,5e56c5f6ca5e640720f2cc28,22,Mężczyzna,2022-05-28_09h36.30.246,task,2021.1.4,Win32,75.05817008,628b806c463b948bc644b84f,6291d04c625148c977dfceb3,,,,,,,,,,,,,,,,,,,,,,,,,,,,,,,,,,,,,,,,,,,,,,,,,,,,,,,,,,,,,,,,,,,,,,,,,,,,,,,,,,,,,,,,,,,,,,,,,,,,,,,
,,"[""comma""]",0,[0.22909999990463348],101,0,101,0,1,5e56c5f6ca5e640720f2cc28,22,Mężczyzna,2022-05-28_09h36.30.246,task,2021.1.4,Win32,75.05817008,628b806c463b948bc644b84f,6291d04c625148c977dfceb3,,,,,,,,,,,,,,,,,,,,,,,,,,,,,,,,,,,,,,,,,,,,,,,,,,,,,,,,,,,,,,,,,,,,,,,,,,,,,,,,,,,,,,,,,,,,,,,,,,,,,,,
,,"[""period""]",0,[0.28390000009534333],102,0,102,0,1,5e56c5f6ca5e640720f2cc28,22,Mężczyzna,2022-05-28_09h36.30.246,task,2021.1.4,Win32,75.05817008,628b806c463b948bc644b84f,6291d04c625148c977dfceb3,,,,,,,,,,,,,,,,,,,,,,,,,,,,,,,,,,,,,,,,,,,,,,,,,,,,,,,,,,,,,,,,,,,,,,,,,,,,,,,,,,,,,,,,,,,,,,,,,,,,,,,
,,"[""period""]",0,[0.25840000009532105],103,0,103,0,1,5e56c5f6ca5e640720f2cc28,22,Mężczyzna,2022-05-28_09h36.30.246,task,2021.1.4,Win32,75.05817008,628b806c463b948bc644b84f,6291d04c625148c977dfceb3,,,,,,,,,,,,,,,,,,,,,,,,,,,,,,,,,,,,,,,,,,,,,,,,,,,,,,,,,,,,,,,,,,,,,,,,,,,,,,,,,,,,,,,,,,,,,,,,,,,,,,,
,,"[""comma""]",0,[0.19009999990458937],104,0,104,0,1,5e56c5f6ca5e640720f2cc28,22,Mężczyzna,2022-05-28_09h36.30.246,task,2021.1.4,Win32,75.05817008,628b806c463b948bc644b84f,6291d04c625148c977dfceb3,,,,,,,,,,,,,,,,,,,,,,,,,,,,,,,,,,,,,,,,,,,,,,,,,,,,,,,,,,,,,,,,,,,,,,,,,,,,,,,,,,,,,,,,,,,,,,,,,,,,,,,
,,"[""comma""]",0,[0.05349999999998545],105,0,105,0,1,5e56c5f6ca5e640720f2cc28,22,Mężczyzna,2022-05-28_09h36.30.246,task,2021.1.4,Win32,75.05817008,628b806c463b948bc644b84f,6291d04c625148c977dfceb3,,,,,,,,,,,,,,,,,,,,,,,,,,,,,,,,,,,,,,,,,,,,,,,,,,,,,,,,,,,,,,,,,,,,,,,,,,,,,,,,,,,,,,,,,,,,,,,,,,,,,,,
,,"[""comma""]",0,[0.2584000000953779],106,0,106,0,1,5e56c5f6ca5e640720f2cc28,22,Mężczyzna,2022-05-28_09h36.30.246,task,2021.1.4,Win32,75.05817008,628b806c463b948bc644b84f,6291d04c625148c977dfceb3,,,,,,,,,,,,,,,,,,,,,,,,,,,,,,,,,,,,,,,,,,,,,,,,,,,,,,,,,,,,,,,,,,,,,,,,,,,,,,,,,,,,,,,,,,,,,,,,,,,,,,,
,,"[""comma""]",0,[0.2552999999523422],107,0,107,0,1,5e56c5f6ca5e640720f2cc28,22,Mężczyzna,2022-05-28_09h36.30.246,task,2021.1.4,Win32,75.05817008,628b806c463b948bc644b84f,6291d04c625148c977dfceb3,,,,,,,,,,,,,,,,,,,,,,,,,,,,,,,,,,,,,,,,,,,,,,,,,,,,,,,,,,,,,,,,,,,,,,,,,,,,,,,,,,,,,,,,,,,,,,,,,,,,,,,
,,"[""period""]",0,[0.24099999999998545],108,0,108,0,1,5e56c5f6ca5e640720f2cc28,22,Mężczyzna,2022-05-28_09h36.30.246,task,2021.1.4,Win32,75.05817008,628b806c463b948bc644b84f,6291d04c625148c977dfceb3,,,,,,,,,,,,,,,,,,,,,,,,,,,,,,,,,,,,,,,,,,,,,,,,,,,,,,,,,,,,,,,,,,,,,,,,,,,,,,,,,,,,,,,,,,,,,,,,,,,,,,,
,,"[""period""]",0,[0.32080000019078625],109,0,109,0,1,5e56c5f6ca5e640720f2cc28,22,Mężczyzna,2022-05-28_09h36.30.246,task,2021.1.4,Win32,75.05817008,628b806c463b948bc644b84f,6291d04c625148c977dfceb3,,,,,,,,,,,,,,,,,,,,,,,,,,,,,,,,,,,,,,,,,,,,,,,,,,,,,,,,,,,,,,,,,,,,,,,,,,,,,,,,,,,,,,,,,,,,,,,,,,,,,,,
,,"[""comma""]",0,[0.31450000000000955],110,0,110,0,1,5e56c5f6ca5e640720f2cc28,22,Mężczyzna,2022-05-28_09h36.30.246,task,2021.1.4,Win32,75.05817008,628b806c463b948bc644b84f,6291d04c625148c977dfceb3,,,,,,,,,,,,,,,,,,,,,,,,,,,,,,,,,,,,,,,,,,,,,,,,,,,,,,,,,,,,,,,,,,,,,,,,,,,,,,,,,,,,,,,,,,,,,,,,,,,,,,,
,,"[""comma""]",0,[0.3732000000476887],111,0,111,0,1,5e56c5f6ca5e640720f2cc28,22,Mężczyzna,2022-05-28_09h36.30.246,task,2021.1.4,Win32,75.05817008,628b806c463b948bc644b84f,6291d04c625148c977dfceb3,,,,,,,,,,,,,,,,,,,,,,,,,,,,,,,,,,,,,,,,,,,,,,,,,,,,,,,,,,,,,,,,,,,,,,,,,,,,,,,,,,,,,,,,,,,,,,,,,,,,,,,
,,"[""comma""]",0,[0.242999999999995],112,0,112,0,1,5e56c5f6ca5e640720f2cc28,22,Mężczyzna,2022-05-28_09h36.30.246,task,2021.1.4,Win32,75.05817008,628b806c463b948bc644b84f,6291d04c625148c977dfceb3,,,,,,,,,,,,,,,,,,,,,,,,,,,,,,,,,,,,,,,,,,,,,,,,,,,,,,,,,,,,,,,,,,,,,,,,,,,,,,,,,,,,,,,,,,,,,,,,,,,,,,,
,,"[""period""]",0,[0.24079999995234402],113,0,113,0,1,5e56c5f6ca5e640720f2cc28,22,Mężczyzna,2022-05-28_09h36.30.246,task,2021.1.4,Win32,75.05817008,628b806c463b948bc644b84f,6291d04c625148c977dfceb3,,,,,,,,,,,,,,,,,,,,,,,,,,,,,,,,,,,,,,,,,,,,,,,,,,,,,,,,,,,,,,,,,,,,,,,,,,,,,,,,,,,,,,,,,,,,,,,,,,,,,,,
,,"[""comma""]",0,[0.09399999999999409],114,0,114,0,1,5e56c5f6ca5e640720f2cc28,22,Mężczyzna,2022-05-28_09h36.30.246,task,2021.1.4,Win32,75.05817008,628b806c463b948bc644b84f,6291d04c625148c977dfceb3,,,,,,,,,,,,,,,,,,,,,,,,,,,,,,,,,,,,,,,,,,,,,,,,,,,,,,,,,,,,,,,,,,,,,,,,,,,,,,,,,,,,,,,,,,,,,,,,,,,,,,,
,,"[""period""]",0,[0.13420000004771282],115,0,115,0,1,5e56c5f6ca5e640720f2cc28,22,Mężczyzna,2022-05-28_09h36.30.246,task,2021.1.4,Win32,75.05817008,628b806c463b948bc644b84f,6291d04c625148c977dfceb3,,,,,,,,,,,,,,,,,,,,,,,,,,,,,,,,,,,,,,,,,,,,,,,,,,,,,,,,,,,,,,,,,,,,,,,,,,,,,,,,,,,,,,,,,,,,,,,,,,,,,,,
,,"[""period""]",0,[0.2766999998092956],116,0,116,0,1,5e56c5f6ca5e640720f2cc28,22,Mężczyzna,2022-05-28_09h36.30.246,task,2021.1.4,Win32,75.05817008,628b806c463b948bc644b84f,6291d04c625148c977dfceb3,,,,,,,,,,,,,,,,,,,,,,,,,,,,,,,,,,,,,,,,,,,,,,,,,,,,,,,,,,,,,,,,,,,,,,,,,,,,,,,,,,,,,,,,,,,,,,,,,,,,,,,
,,"[""period""]",0,[0.1642000000476287],117,0,117,0,1,5e56c5f6ca5e640720f2cc28,22,Mężczyzna,2022-05-28_09h36.30.246,task,2021.1.4,Win32,75.05817008,628b806c463b948bc644b84f,6291d04c625148c977dfceb3,,,,,,,,,,,,,,,,,,,,,,,,,,,,,,,,,,,,,,,,,,,,,,,,,,,,,,,,,,,,,,,,,,,,,,,,,,,,,,,,,,,,,,,,,,,,,,,,,,,,,,,
,,"[""comma""]",0,[0.2012000000477201],118,0,118,0,1,5e56c5f6ca5e640720f2cc28,22,Mężczyzna,2022-05-28_09h36.30.246,task,2021.1.4,Win32,75.05817008,628b806c463b948bc644b84f,6291d04c625148c977dfceb3,,,,,,,,,,,,,,,,,,,,,,,,,,,,,,,,,,,,,,,,,,,,,,,,,,,,,,,,,,,,,,,,,,,,,,,,,,,,,,,,,,,,,,,,,,,,,,,,,,,,,,,
,,"[""comma""]",0,[0.1423999998569343],119,0,119,0,1,5e56c5f6ca5e640720f2cc28,22,Mężczyzna,2022-05-28_09h36.30.246,task,2021.1.4,Win32,75.05817008,628b806c463b948bc644b84f,6291d04c625148c977dfceb3,,,,,,,,,,,,,,,,,,,,,,,,,,,,,,,,,,,,,,,,,,,,,,,,,,,,,,,,,,,,,,,,,,,,,,,,,,,,,,,,,,,,,,,,,,,,,,,,,,,,,,,
,,,,,,,,,,5e56c5f6ca5e640720f2cc28,22,Mężczyzna,2022-05-28_09h36.30.246,task,2021.1.4,Win32,75.05817008,628b806c463b948bc644b84f,6291d04c625148c977dfceb3,space,14.007,space,14.0947,0,0,0,0,1,"X V Q F H G B L J M P D K C T S W R N Z
",,,,,,,,,,,,,,,,,,,,,,,,,,,,,,,,,,,,,,,,,,,,,,,,,,,,,,,,,,,,,,,,,,,,,,,,,,,,,,,,,,,,,,,,,,,,,
,,,,,,,,,,5e56c5f6ca5e640720f2cc28,22,Mężczyzna,2022-05-28_09h36.30.246,task,2021.1.4,Win32,75.05817008,628b806c463b948bc644b84f,6291d04c625148c977dfceb3,,,,,1,0,1,0,1,"X V Q F H G B L J M P D K C T S W R N Z
",,,,,,,,,,,,,,,,,,,,,,,,,,,,,,,,,,,,,,,,,,,,,,,,,,,,,,,,,,,,,,,,,,,,,,,,,,,,,,,,,,,,,,,,,,,,,
,,,,,,,,,,5e56c5f6ca5e640720f2cc28,22,Mężczyzna,2022-05-28_09h36.30.246,task,2021.1.4,Win32,75.05817008,628b806c463b948bc644b84f,6291d04c625148c977dfceb3,,,,,,,,,,,zf,"[""z"",""f""]","[2.3504000000953624,2.9265000000000327,4.509500000000003]",1,ZF,0,0,0,0,1,,,,,,,,,,,,,,,,,,,,,,,,,,,,,,,,,,,,,,,,,,,,,,,,,,,,,,,,,,,,,,,,,,,,,,,,,,,,,,,,,,,
,,,,,,,,,,5e56c5f6ca5e640720f2cc28,22,Mężczyzna,2022-05-28_09h36.30.246,task,2021.1.4,Win32,75.05817008,628b806c463b948bc644b84f,6291d04c625148c977dfceb3,,,,,0,0,0,0,1,"X V Q F H G B L J M P D K C T S W R N Z
",,,,,,,,,,,,,,,,,,,,,,,,,,,,,,,,,,,,,,,,,,,,,,,,,,,,,,,,,,,,,,,,,,,,,,,,,,,,,,,,,,,,,,,,,,,,,
,,,,,,,,,,5e56c5f6ca5e640720f2cc28,22,Mężczyzna,2022-05-28_09h36.30.246,task,2021.1.4,Win32,75.05817008,628b806c463b948bc644b84f,6291d04c625148c977dfceb3,,,,,1,0,1,0,1,"X V Q F H G B L J M P D K C T S W R N Z
",,,,,,,,,,,,,,,,,,,,,,,,,,,,,,,,,,,,,,,,,,,,,,,,,,,,,,,,,,,,,,,,,,,,,,,,,,,,,,,,,,,,,,,,,,,,,
,,,,,,,,,,5e56c5f6ca5e640720f2cc28,22,Mężczyzna,2022-05-28_09h36.30.246,task,2021.1.4,Win32,75.05817008,628b806c463b948bc644b84f,6291d04c625148c977dfceb3,,,,,,,,,,,nf,"[""n"",""f""]","[1.5037999999523208,1.8654000000953488,2.6314000000953683]",1,NF,1,0,1,0,1,,,,,,,,,,,,,,,,,,,,,,,,,,,,,,,,,,,,,,,,,,,,,,,,,,,,,,,,,,,,,,,,,,,,,,,,,,,,,,,,,,,
,,,,,,,,,,5e56c5f6ca5e640720f2cc28,22,Mężczyzna,2022-05-28_09h36.30.246,task,2021.1.4,Win32,75.05817008,628b806c463b948bc644b84f,6291d04c625148c977dfceb3,,,,,0,0,0,0,1,"X V Q F H G B L J M P D K C T S W R N Z
",,,,,,,,,,,,,,,,,,,,,,,,,,,,,,,,,,,,,,,,,,,,,,,,,,,,,,,,,,,,,,,,,,,,,,,,,,,,,,,,,,,,,,,,,,,,,
,,,,,,,,,,5e56c5f6ca5e640720f2cc28,22,Mężczyzna,2022-05-28_09h36.30.246,task,2021.1.4,Win32,75.05817008,628b806c463b948bc644b84f,6291d04c625148c977dfceb3,,,,,1,0,1,0,1,"X V Q F H G B L J M P D K C T S W R N Z
",,,,,,,,,,,,,,,,,,,,,,,,,,,,,,,,,,,,,,,,,,,,,,,,,,,,,,,,,,,,,,,,,,,,,,,,,,,,,,,,,,,,,,,,,,,,,
,,,,,,,,,,5e56c5f6ca5e640720f2cc28,22,Mężczyzna,2022-05-28_09h36.30.246,task,2021.1.4,Win32,75.05817008,628b806c463b948bc644b84f,6291d04c625148c977dfceb3,,,,,2,0,2,0,1,"X V Q F H G B L J M P D K C T S W R N Z
",,,,,,,,,,,,,,,,,,,,,,,,,,,,,,,,,,,,,,,,,,,,,,,,,,,,,,,,,,,,,,,,,,,,,,,,,,,,,,,,,,,,,,,,,,,,,
,,,,,,,,,,5e56c5f6ca5e640720f2cc28,22,Mężczyzna,2022-05-28_09h36.30.246,task,2021.1.4,Win32,75.05817008,628b806c463b948bc644b84f,6291d04c625148c977dfceb3,,,,,,,,,,,vgz,"[""v"",""g"",""z""]","[1.3307000000476705,1.6216000001430757,1.7635000000000218,2.5179000000953806]",0,"VGZ
",2,0,2,0,1,,,,,,,,,,,,,,,,,,,,,,,,,,,,,,,,,,,,,,,,,,,,,,,,,,,,,,,,,,,,,,,,,,,,,,,,,,,,,,,,,,,
,,,,,,,,,,5e56c5f6ca5e640720f2cc28,22,Mężczyzna,2022-05-28_09h36.30.246,task,2021.1.4,Win32,75.05817008,628b806c463b948bc644b84f,6291d04c625148c977dfceb3,,,,,0,0,0,0,1,"X V Q F H G B L J M P D K C T S W R N Z
",,,,,,,,,,,,,,,,,,,,,,,,,,,,,,,,,,,,,,,,,,,,,,,,,,,,,,,,,,,,,,,,,,,,,,,,,,,,,,,,,,,,,,,,,,,,,
,,,,,,,,,,5e56c5f6ca5e640720f2cc28,22,Mężczyzna,2022-05-28_09h36.30.246,task,2021.1.4,Win32,75.05817008,628b806c463b948bc644b84f,6291d04c625148c977dfceb3,,,,,1,0,1,0,1,"X V Q F H G B L J M P D K C T S W R N Z
",,,,,,,,,,,,,,,,,,,,,,,,,,,,,,,,,,,,,,,,,,,,,,,,,,,,,,,,,,,,,,,,,,,,,,,,,,,,,,,,,,,,,,,,,,,,,
,,,,,,,,,,5e56c5f6ca5e640720f2cc28,22,Mężczyzna,2022-05-28_09h36.30.246,task,2021.1.4,Win32,75.05817008,628b806c463b948bc644b84f,6291d04c625148c977dfceb3,,,,,2,0,2,0,1,"X V Q F H G B L J M P D K C T S W R N Z
",,,,,,,,,,,,,,,,,,,,,,,,,,,,,,,,,,,,,,,,,,,,,,,,,,,,,,,,,,,,,,,,,,,,,,,,,,,,,,,,,,,,,,,,,,,,,
,,,,,,,,,,5e56c5f6ca5e640720f2cc28,22,Mężczyzna,2022-05-28_09h36.30.246,task,2021.1.4,Win32,75.05817008,628b806c463b948bc644b84f,6291d04c625148c977dfceb3,,,,,,,,,,,xhj,"[""x"",""h"",""j""]","[1.3604000000953533,1.787999999999954,1.9688000001906971,2.4981000001430402]",1,XHJ,3,0,3,0,1,,,,,,,,,,,,,,,,,,,,,,,,,,,,,,,,,,,,,,,,,,,,,,,,,,,,,,,,,,,,,,,,,,,,,,,,,,,,,,,,,,,
,,,,,,,,,,5e56c5f6ca5e640720f2cc28,22,Mężczyzna,2022-05-28_09h36.30.246,task,2021.1.4,Win32,75.05817008,628b806c463b948bc644b84f,6291d04c625148c977dfceb3,,,,,0,0,0,0,1,"X V Q F H G B L J M P D K C T S W R N Z
",,,,,,,,,,,,,,,,,,,,,,,,,,,,,,,,,,,,,,,,,,,,,,,,,,,,,,,,,,,,,,,,,,,,,,,,,,,,,,,,,,,,,,,,,,,,,
,,,,,,,,,,5e56c5f6ca5e640720f2cc28,22,Mężczyzna,2022-05-28_09h36.30.246,task,2021.1.4,Win32,75.05817008,628b806c463b948bc644b84f,6291d04c625148c977dfceb3,,,,,1,0,1,0,1,"X V Q F H G B L J M P D K C T S W R N Z
",,,,,,,,,,,,,,,,,,,,,,,,,,,,,,,,,,,,,,,,,,,,,,,,,,,,,,,,,,,,,,,,,,,,,,,,,,,,,,,,,,,,,,,,,,,,,
,,,,,,,,,,5e56c5f6ca5e640720f2cc28,22,Mężczyzna,2022-05-28_09h36.30.246,task,2021.1.4,Win32,75.05817008,628b806c463b948bc644b84f,6291d04c625148c977dfceb3,,,,,2,0,2,0,1,"X V Q F H G B L J M P D K C T S W R N Z
",,,,,,,,,,,,,,,,,,,,,,,,,,,,,,,,,,,,,,,,,,,,,,,,,,,,,,,,,,,,,,,,,,,,,,,,,,,,,,,,,,,,,,,,,,,,,
,,,,,,,,,,5e56c5f6ca5e640720f2cc28,22,Mężczyzna,2022-05-28_09h36.30.246,task,2021.1.4,Win32,75.05817008,628b806c463b948bc644b84f,6291d04c625148c977dfceb3,,,,,,,,,,,dln,"[""d"",""l"",""n""]","[1.1477999999523263,1.4279999999999973,1.6377999999523354,1.9345999999046057]",1,DLN,4,0,4,0,1,,,,,,,,,,,,,,,,,,,,,,,,,,,,,,,,,,,,,,,,,,,,,,,,,,,,,,,,,,,,,,,,,,,,,,,,,,,,,,,,,,,
,,,,,,,,,,5e56c5f6ca5e640720f2cc28,22,Mężczyzna,2022-05-28_09h36.30.246,task,2021.1.4,Win32,75.05817008,628b806c463b948bc644b84f,6291d04c625148c977dfceb3,,,,,0,0,0,0,1,"X V Q F H G B L J M P D K C T S W R N Z
",,,,,,,,,,,,,,,,,,,,,,,,,,,,,,,,,,,,,,,,,,,,,,,,,,,,,,,,,,,,,,,,,,,,,,,,,,,,,,,,,,,,,,,,,,,,,
,,,,,,,,,,5e56c5f6ca5e640720f2cc28,22,Mężczyzna,2022-05-28_09h36.30.246,task,2021.1.4,Win32,75.05817008,628b806c463b948bc644b84f,6291d04c625148c977dfceb3,,,,,1,0,1,0,1,"X V Q F H G B L J M P D K C T S W R N Z
",,,,,,,,,,,,,,,,,,,,,,,,,,,,,,,,,,,,,,,,,,,,,,,,,,,,,,,,,,,,,,,,,,,,,,,,,,,,,,,,,,,,,,,,,,,,,
,,,,,,,,,,5e56c5f6ca5e640720f2cc28,22,Mężczyzna,2022-05-28_09h36.30.246,task,2021.1.4,Win32,75.05817008,628b806c463b948bc644b84f,6291d04c625148c977dfceb3,,,,,2,0,2,0,1,"X V Q F H G B L J M P D K C T S W R N Z
",,,,,,,,,,,,,,,,,,,,,,,,,,,,,,,,,,,,,,,,,,,,,,,,,,,,,,,,,,,,,,,,,,,,,,,,,,,,,,,,,,,,,,,,,,,,,
,,,,,,,,,,5e56c5f6ca5e640720f2cc28,22,Mężczyzna,2022-05-28_09h36.30.246,task,2021.1.4,Win32,75.05817008,628b806c463b948bc644b84f,6291d04c625148c977dfceb3,,,,,3,0,3,0,1,"X V Q F H G B L J M P D K C T S W R N Z
",,,,,,,,,,,,,,,,,,,,,,,,,,,,,,,,,,,,,,,,,,,,,,,,,,,,,,,,,,,,,,,,,,,,,,,,,,,,,,,,,,,,,,,,,,,,,
,,,,,,,,,,5e56c5f6ca5e640720f2cc28,22,Mężczyzna,2022-05-28_09h36.30.246,task,2021.1.4,Win32,75.05817008,628b806c463b948bc644b84f,6291d04c625148c977dfceb3,,,,,,,,,,,grgf,"[""g"",""r"",""g"",""f""]","[0.5702000000476346,1.5480000000000018,1.9345999999046057,2.2952000000476573,2.8238999998569057]",1,GRGF,5,0,5,0,1,,,,,,,,,,,,,,,,,,,,,,,,,,,,,,,,,,,,,,,,,,,,,,,,,,,,,,,,,,,,,,,,,,,,,,,,,,,,,,,,,,,
,,,,,,,,,,5e56c5f6ca5e640720f2cc28,22,Mężczyzna,2022-05-28_09h36.30.246,task,2021.1.4,Win32,75.05817008,628b806c463b948bc644b84f,6291d04c625148c977dfceb3,,,,,0,0,0,0,1,"X V Q F H G B L J M P D K C T S W R N Z
",,,,,,,,,,,,,,,,,,,,,,,,,,,,,,,,,,,,,,,,,,,,,,,,,,,,,,,,,,,,,,,,,,,,,,,,,,,,,,,,,,,,,,,,,,,,,
,,,,,,,,,,5e56c5f6ca5e640720f2cc28,22,Mężczyzna,2022-05-28_09h36.30.246,task,2021.1.4,Win32,75.05817008,628b806c463b948bc644b84f,6291d04c625148c977dfceb3,,,,,1,0,1,0,1,"X V Q F H G B L J M P D K C T S W R N Z
",,,,,,,,,,,,,,,,,,,,,,,,,,,,,,,,,,,,,,,,,,,,,,,,,,,,,,,,,,,,,,,,,,,,,,,,,,,,,,,,,,,,,,,,,,,,,
,,,,,,,,,,5e56c5f6ca5e640720f2cc28,22,Mężczyzna,2022-05-28_09h36.30.246,task,2021.1.4,Win32,75.05817008,628b806c463b948bc644b84f,6291d04c625148c977dfceb3,,,,,2,0,2,0,1,"X V Q F H G B L J M P D K C T S W R N Z
",,,,,,,,,,,,,,,,,,,,,,,,,,,,,,,,,,,,,,,,,,,,,,,,,,,,,,,,,,,,,,,,,,,,,,,,,,,,,,,,,,,,,,,,,,,,,
,,,,,,,,,,5e56c5f6ca5e640720f2cc28,22,Mężczyzna,2022-05-28_09h36.30.246,task,2021.1.4,Win32,75.05817008,628b806c463b948bc644b84f,6291d04c625148c977dfceb3,,,,,3,0,3,0,1,"X V Q F H G B L J M P D K C T S W R N Z
",,,,,,,,,,,,,,,,,,,,,,,,,,,,,,,,,,,,,,,,,,,,,,,,,,,,,,,,,,,,,,,,,,,,,,,,,,,,,,,,,,,,,,,,,,,,,
,,,,,,,,,,5e56c5f6ca5e640720f2cc28,22,Mężczyzna,2022-05-28_09h36.30.246,task,2021.1.4,Win32,75.05817008,628b806c463b948bc644b84f,6291d04c625148c977dfceb3,,,,,,,,,,,kmrh,"[""k"",""m"",""r"",""h""]","[1.0357000000476546,1.2617999999523022,1.5261000001430602,1.9699000000953788,2.598400000095353]",1,KMRH,6,0,6,0,1,,,,,,,,,,,,,,,,,,,,,,,,,,,,,,,,,,,,,,,,,,,,,,,,,,,,,,,,,,,,,,,,,,,,,,,,,,,,,,,,,,,
,,,,,,,,,,5e56c5f6ca5e640720f2cc28,22,Mężczyzna,2022-05-28_09h36.30.246,task,2021.1.4,Win32,75.05817008,628b806c463b948bc644b84f,6291d04c625148c977dfceb3,,,,,0,0,0,0,1,"X V Q F H G B L J M P D K C T S W R N Z
",,,,,,,,,,,,,,,,,,,,,,,,,,,,,,,,,,,,,,,,,,,,,,,,,,,,,,,,,,,,,,,,,,,,,,,,,,,,,,,,,,,,,,,,,,,,,
,,,,,,,,,,5e56c5f6ca5e640720f2cc28,22,Mężczyzna,2022-05-28_09h36.30.246,task,2021.1.4,Win32,75.05817008,628b806c463b948bc644b84f,6291d04c625148c977dfceb3,,,,,1,0,1,0,1,"X V Q F H G B L J M P D K C T S W R N Z
",,,,,,,,,,,,,,,,,,,,,,,,,,,,,,,,,,,,,,,,,,,,,,,,,,,,,,,,,,,,,,,,,,,,,,,,,,,,,,,,,,,,,,,,,,,,,
,,,,,,,,,,5e56c5f6ca5e640720f2cc28,22,Mężczyzna,2022-05-28_09h36.30.246,task,2021.1.4,Win32,75.05817008,628b806c463b948bc644b84f,6291d04c625148c977dfceb3,,,,,2,0,2,0,1,"X V Q F H G B L J M P D K C T S W R N Z
",,,,,,,,,,,,,,,,,,,,,,,,,,,,,,,,,,,,,,,,,,,,,,,,,,,,,,,,,,,,,,,,,,,,,,,,,,,,,,,,,,,,,,,,,,,,,
,,,,,,,,,,5e56c5f6ca5e640720f2cc28,22,Mężczyzna,2022-05-28_09h36.30.246,task,2021.1.4,Win32,75.05817008,628b806c463b948bc644b84f,6291d04c625148c977dfceb3,,,,,3,0,3,0,1,"X V Q F H G B L J M P D K C T S W R N Z
",,,,,,,,,,,,,,,,,,,,,,,,,,,,,,,,,,,,,,,,,,,,,,,,,,,,,,,,,,,,,,,,,,,,,,,,,,,,,,,,,,,,,,,,,,,,,
,,,,,,,,,,5e56c5f6ca5e640720f2cc28,22,Mężczyzna,2022-05-28_09h36.30.246,task,2021.1.4,Win32,75.05817008,628b806c463b948bc644b84f,6291d04c625148c977dfceb3,,,,,4,0,4,0,1,"X V Q F H G B L J M P D K C T S W R N Z
",,,,,,,,,,,,,,,,,,,,,,,,,,,,,,,,,,,,,,,,,,,,,,,,,,,,,,,,,,,,,,,,,,,,,,,,,,,,,,,,,,,,,,,,,,,,,
,,,,,,,,,,5e56c5f6ca5e640720f2cc28,22,Mężczyzna,2022-05-28_09h36.30.246,task,2021.1.4,Win32,75.05817008,628b806c463b948bc644b84f,6291d04c625148c977dfceb3,,,,,,,,,,,rnqjw,"[""r"",""n"",""q"",""j"",""w""]","[0.5627000000476983,0.948799999952314,1.6730000000000018,1.9447999999523518,2.1089999999999804,2.7889000000953956]",1,RNQJW,7,0,7,0,1,,,,,,,,,,,,,,,,,,,,,,,,,,,,,,,,,,,,,,,,,,,,,,,,,,,,,,,,,,,,,,,,,,,,,,,,,,,,,,,,,,,
,,,,,,,,,,5e56c5f6ca5e640720f2cc28,22,Mężczyzna,2022-05-28_09h36.30.246,task,2021.1.4,Win32,75.05817008,628b806c463b948bc644b84f,6291d04c625148c977dfceb3,,,,,0,0,0,0,1,"X V Q F H G B L J M P D K C T S W R N Z
",,,,,,,,,,,,,,,,,,,,,,,,,,,,,,,,,,,,,,,,,,,,,,,,,,,,,,,,,,,,,,,,,,,,,,,,,,,,,,,,,,,,,,,,,,,,,
,,,,,,,,,,5e56c5f6ca5e640720f2cc28,22,Mężczyzna,2022-05-28_09h36.30.246,task,2021.1.4,Win32,75.05817008,628b806c463b948bc644b84f,6291d04c625148c977dfceb3,,,,,1,0,1,0,1,"X V Q F H G B L J M P D K C T S W R N Z
",,,,,,,,,,,,,,,,,,,,,,,,,,,,,,,,,,,,,,,,,,,,,,,,,,,,,,,,,,,,,,,,,,,,,,,,,,,,,,,,,,,,,,,,,,,,,
,,,,,,,,,,5e56c5f6ca5e640720f2cc28,22,Mężczyzna,2022-05-28_09h36.30.246,task,2021.1.4,Win32,75.05817008,628b806c463b948bc644b84f,6291d04c625148c977dfceb3,,,,,2,0,2,0,1,"X V Q F H G B L J M P D K C T S W R N Z
",,,,,,,,,,,,,,,,,,,,,,,,,,,,,,,,,,,,,,,,,,,,,,,,,,,,,,,,,,,,,,,,,,,,,,,,,,,,,,,,,,,,,,,,,,,,,
,,,,,,,,,,5e56c5f6ca5e640720f2cc28,22,Mężczyzna,2022-05-28_09h36.30.246,task,2021.1.4,Win32,75.05817008,628b806c463b948bc644b84f,6291d04c625148c977dfceb3,,,,,3,0,3,0,1,"X V Q F H G B L J M P D K C T S W R N Z
",,,,,,,,,,,,,,,,,,,,,,,,,,,,,,,,,,,,,,,,,,,,,,,,,,,,,,,,,,,,,,,,,,,,,,,,,,,,,,,,,,,,,,,,,,,,,
,,,,,,,,,,5e56c5f6ca5e640720f2cc28,22,Mężczyzna,2022-05-28_09h36.30.246,task,2021.1.4,Win32,75.05817008,628b806c463b948bc644b84f,6291d04c625148c977dfceb3,,,,,4,0,4,0,1,"X V Q F H G B L J M P D K C T S W R N Z
",,,,,,,,,,,,,,,,,,,,,,,,,,,,,,,,,,,,,,,,,,,,,,,,,,,,,,,,,,,,,,,,,,,,,,,,,,,,,,,,,,,,,,,,,,,,,
,,,,,,,,,,5e56c5f6ca5e640720f2cc28,22,Mężczyzna,2022-05-28_09h36.30.246,task,2021.1.4,Win32,75.05817008,628b806c463b948bc644b84f,6291d04c625148c977dfceb3,,,,,,,,,,,fmvth,"[""f"",""m"",""v"",""t"",""h""]","[0.9075999999046758,1.7635000000000218,2.1495999999046376,2.405700000047716,2.6435999999046658,2.9899000000954175]",1,FMVTH,8,0,8,0,1,,,,,,,,,,,,,,,,,,,,,,,,,,,,,,,,,,,,,,,,,,,,,,,,,,,,,,,,,,,,,,,,,,,,,,,,,,,,,,,,,,,
,,,,,,,,,,5e56c5f6ca5e640720f2cc28,22,Mężczyzna,2022-05-28_09h36.30.246,task,2021.1.4,Win32,75.05817008,628b806c463b948bc644b84f,6291d04c625148c977dfceb3,,,,,0,0,0,0,1,"X V Q F H G B L J M P D K C T S W R N Z
",,,,,,,,,,,,,,,,,,,,,,,,,,,,,,,,,,,,,,,,,,,,,,,,,,,,,,,,,,,,,,,,,,,,,,,,,,,,,,,,,,,,,,,,,,,,,
,,,,,,,,,,5e56c5f6ca5e640720f2cc28,22,Mężczyzna,2022-05-28_09h36.30.246,task,2021.1.4,Win32,75.05817008,628b806c463b948bc644b84f,6291d04c625148c977dfceb3,,,,,1,0,1,0,1,"X V Q F H G B L J M P D K C T S W R N Z
",,,,,,,,,,,,,,,,,,,,,,,,,,,,,,,,,,,,,,,,,,,,,,,,,,,,,,,,,,,,,,,,,,,,,,,,,,,,,,,,,,,,,,,,,,,,,
,,,,,,,,,,5e56c5f6ca5e640720f2cc28,22,Mężczyzna,2022-05-28_09h36.30.246,task,2021.1.4,Win32,75.05817008,628b806c463b948bc644b84f,6291d04c625148c977dfceb3,,,,,2,0,2,0,1,"X V Q F H G B L J M P D K C T S W R N Z
",,,,,,,,,,,,,,,,,,,,,,,,,,,,,,,,,,,,,,,,,,,,,,,,,,,,,,,,,,,,,,,,,,,,,,,,,,,,,,,,,,,,,,,,,,,,,
,,,,,,,,,,5e56c5f6ca5e640720f2cc28,22,Mężczyzna,2022-05-28_09h36.30.246,task,2021.1.4,Win32,75.05817008,628b806c463b948bc644b84f,6291d04c625148c977dfceb3,,,,,3,0,3,0,1,"X V Q F H G B L J M P D K C T S W R N Z
",,,,,,,,,,,,,,,,,,,,,,,,,,,,,,,,,,,,,,,,,,,,,,,,,,,,,,,,,,,,,,,,,,,,,,,,,,,,,,,,,,,,,,,,,,,,,
,,,,,,,,,,5e56c5f6ca5e640720f2cc28,22,Mężczyzna,2022-05-28_09h36.30.246,task,2021.1.4,Win32,75.05817008,628b806c463b948bc644b84f,6291d04c625148c977dfceb3,,,,,4,0,4,0,1,"X V Q F H G B L J M P D K C T S W R N Z
",,,,,,,,,,,,,,,,,,,,,,,,,,,,,,,,,,,,,,,,,,,,,,,,,,,,,,,,,,,,,,,,,,,,,,,,,,,,,,,,,,,,,,,,,,,,,
,,,,,,,,,,5e56c5f6ca5e640720f2cc28,22,Mężczyzna,2022-05-28_09h36.30.246,task,2021.1.4,Win32,75.05817008,628b806c463b948bc644b84f,6291d04c625148c977dfceb3,,,,,5,0,5,0,1,"X V Q F H G B L J M P D K C T S W R N Z
",,,,,,,,,,,,,,,,,,,,,,,,,,,,,,,,,,,,,,,,,,,,,,,,,,,,,,,,,,,,,,,,,,,,,,,,,,,,,,,,,,,,,,,,,,,,,
,,,,,,,,,,5e56c5f6ca5e640720f2cc28,22,Mężczyzna,2022-05-28_09h36.30.246,task,2021.1.4,Win32,75.05817008,628b806c463b948bc644b84f,6291d04c625148c977dfceb3,,,,,,,,,,,ccxsng,"[""c"",""c"",""x"",""s"",""n"",""g""]","[0.9764000000953956,1.0880000000000223,2.606100000143101,3.7620000000000005,4.068900000095368,4.362300000190771,4.939900000095406]",1,CCXSNG,9,0,9,0,1,,,,,,,,,,,,,,,,,,,,,,,,,,,,,,,,,,,,,,,,,,,,,,,,,,,,,,,,,,,,,,,,,,,,,,,,,,,,,,,,,,,
,,,,,,,,,,5e56c5f6ca5e640720f2cc28,22,Mężczyzna,2022-05-28_09h36.30.246,task,2021.1.4,Win32,75.05817008,628b806c463b948bc644b84f,6291d04c625148c977dfceb3,,,,,0,0,0,0,1,"X V Q F H G B L J M P D K C T S W R N Z
",,,,,,,,,,,,,,,,,,,,,,,,,,,,,,,,,,,,,,,,,,,,,,,,,,,,,,,,,,,,,,,,,,,,,,,,,,,,,,,,,,,,,,,,,,,,,
,,,,,,,,,,5e56c5f6ca5e640720f2cc28,22,Mężczyzna,2022-05-28_09h36.30.246,task,2021.1.4,Win32,75.05817008,628b806c463b948bc644b84f,6291d04c625148c977dfceb3,,,,,1,0,1,0,1,"X V Q F H G B L J M P D K C T S W R N Z
",,,,,,,,,,,,,,,,,,,,,,,,,,,,,,,,,,,,,,,,,,,,,,,,,,,,,,,,,,,,,,,,,,,,,,,,,,,,,,,,,,,,,,,,,,,,,
,,,,,,,,,,5e56c5f6ca5e640720f2cc28,22,Mężczyzna,2022-05-28_09h36.30.246,task,2021.1.4,Win32,75.05817008,628b806c463b948bc644b84f,6291d04c625148c977dfceb3,,,,,2,0,2,0,1,"X V Q F H G B L J M P D K C T S W R N Z
",,,,,,,,,,,,,,,,,,,,,,,,,,,,,,,,,,,,,,,,,,,,,,,,,,,,,,,,,,,,,,,,,,,,,,,,,,,,,,,,,,,,,,,,,,,,,
,,,,,,,,,,5e56c5f6ca5e640720f2cc28,22,Mężczyzna,2022-05-28_09h36.30.246,task,2021.1.4,Win32,75.05817008,628b806c463b948bc644b84f,6291d04c625148c977dfceb3,,,,,3,0,3,0,1,"X V Q F H G B L J M P D K C T S W R N Z
",,,,,,,,,,,,,,,,,,,,,,,,,,,,,,,,,,,,,,,,,,,,,,,,,,,,,,,,,,,,,,,,,,,,,,,,,,,,,,,,,,,,,,,,,,,,,
,,,,,,,,,,5e56c5f6ca5e640720f2cc28,22,Mężczyzna,2022-05-28_09h36.30.246,task,2021.1.4,Win32,75.05817008,628b806c463b948bc644b84f,6291d04c625148c977dfceb3,,,,,4,0,4,0,1,"X V Q F H G B L J M P D K C T S W R N Z
",,,,,,,,,,,,,,,,,,,,,,,,,,,,,,,,,,,,,,,,,,,,,,,,,,,,,,,,,,,,,,,,,,,,,,,,,,,,,,,,,,,,,,,,,,,,,
,,,,,,,,,,5e56c5f6ca5e640720f2cc28,22,Mężczyzna,2022-05-28_09h36.30.246,task,2021.1.4,Win32,75.05817008,628b806c463b948bc644b84f,6291d04c625148c977dfceb3,,,,,5,0,5,0,1,"X V Q F H G B L J M P D K C T S W R N Z
",,,,,,,,,,,,,,,,,,,,,,,,,,,,,,,,,,,,,,,,,,,,,,,,,,,,,,,,,,,,,,,,,,,,,,,,,,,,,,,,,,,,,,,,,,,,,
,,,,,,,,,,5e56c5f6ca5e640720f2cc28,22,Mężczyzna,2022-05-28_09h36.30.246,task,2021.1.4,Win32,75.05817008,628b806c463b948bc644b84f,6291d04c625148c977dfceb3,,,,,,,,,,,vjggnt,"[""v"",""j"",""g"",""g"",""n"",""t""]","[1.2569000000953565,1.8014000000953843,2.1924999999999955,2.6508000001907703,2.962600000143084,3.189100000143071,3.628500000000031]",0,VJQGGT,10,0,10,0,1,,,,,,,,,,,,,,,,,,,,,,,,,,,,,,,,,,,,,,,,,,,,,,,,,,,,,,,,,,,,,,,,,,,,,,,,,,,,,,,,,,,
,,,,,,,,,,5e56c5f6ca5e640720f2cc28,22,Mężczyzna,2022-05-28_09h36.30.246,task,2021.1.4,Win32,75.05817008,628b806c463b948bc644b84f,6291d04c625148c977dfceb3,,,,,0,0,0,0,1,"X V Q F H G B L J M P D K C T S W R N Z
",,,,,,,,,,,,,,,,,,,,,,,,,,,,,,,,,,,,,,,,,,,,,,,,,,,,,,,,,,,,,,,,,,,,,,,,,,,,,,,,,,,,,,,,,,,,,
,,,,,,,,,,5e56c5f6ca5e640720f2cc28,22,Mężczyzna,2022-05-28_09h36.30.246,task,2021.1.4,Win32,75.05817008,628b806c463b948bc644b84f,6291d04c625148c977dfceb3,,,,,1,0,1,0,1,"X V Q F H G B L J M P D K C T S W R N Z
",,,,,,,,,,,,,,,,,,,,,,,,,,,,,,,,,,,,,,,,,,,,,,,,,,,,,,,,,,,,,,,,,,,,,,,,,,,,,,,,,,,,,,,,,,,,,
,,,,,,,,,,5e56c5f6ca5e640720f2cc28,22,Mężczyzna,2022-05-28_09h36.30.246,task,2021.1.4,Win32,75.05817008,628b806c463b948bc644b84f,6291d04c625148c977dfceb3,,,,,2,0,2,0,1,"X V Q F H G B L J M P D K C T S W R N Z
",,,,,,,,,,,,,,,,,,,,,,,,,,,,,,,,,,,,,,,,,,,,,,,,,,,,,,,,,,,,,,,,,,,,,,,,,,,,,,,,,,,,,,,,,,,,,
,,,,,,,,,,5e56c5f6ca5e640720f2cc28,22,Mężczyzna,2022-05-28_09h36.30.246,task,2021.1.4,Win32,75.05817008,628b806c463b948bc644b84f,6291d04c625148c977dfceb3,,,,,3,0,3,0,1,"X V Q F H G B L J M P D K C T S W R N Z
",,,,,,,,,,,,,,,,,,,,,,,,,,,,,,,,,,,,,,,,,,,,,,,,,,,,,,,,,,,,,,,,,,,,,,,,,,,,,,,,,,,,,,,,,,,,,
,,,,,,,,,,5e56c5f6ca5e640720f2cc28,22,Mężczyzna,2022-05-28_09h36.30.246,task,2021.1.4,Win32,75.05817008,628b806c463b948bc644b84f,6291d04c625148c977dfceb3,,,,,4,0,4,0,1,"X V Q F H G B L J M P D K C T S W R N Z
",,,,,,,,,,,,,,,,,,,,,,,,,,,,,,,,,,,,,,,,,,,,,,,,,,,,,,,,,,,,,,,,,,,,,,,,,,,,,,,,,,,,,,,,,,,,,
,,,,,,,,,,5e56c5f6ca5e640720f2cc28,22,Mężczyzna,2022-05-28_09h36.30.246,task,2021.1.4,Win32,75.05817008,628b806c463b948bc644b84f,6291d04c625148c977dfceb3,,,,,5,0,5,0,1,"X V Q F H G B L J M P D K C T S W R N Z
",,,,,,,,,,,,,,,,,,,,,,,,,,,,,,,,,,,,,,,,,,,,,,,,,,,,,,,,,,,,,,,,,,,,,,,,,,,,,,,,,,,,,,,,,,,,,
,,,,,,,,,,5e56c5f6ca5e640720f2cc28,22,Mężczyzna,2022-05-28_09h36.30.246,task,2021.1.4,Win32,75.05817008,628b806c463b948bc644b84f,6291d04c625148c977dfceb3,,,,,,,,,,,hsgcgcv,"[""h"",""s"",""g"",""c"",""g"",""c"",""v""]","[1.1648000001907235,1.580500000000029,2.016999999999996,4.416100000143047,5.630499999999984,6.44380000019072,6.446300000190718,7.830600000143079]",0,HSCGCW,11,0,11,0,1,,,,,,,,,,,,,,,,,,,,,,,,,,,,,,,,,,,,,,,,,,,,,,,,,,,,,,,,,,,,,,,,,,,,,,,,,,,,,,,,,,,
,,,,,,,,,,5e56c5f6ca5e640720f2cc28,22,Mężczyzna,2022-05-28_09h36.30.246,task,2021.1.4,Win32,75.05817008,628b806c463b948bc644b84f,6291d04c625148c977dfceb3,,,,,0,0,0,0,1,"X V Q F H G B L J M P D K C T S W R N Z
",,,,,,,,,,,,,,,,,,,,,,,,,,,,,,,,,,,,,,,,,,,,,,,,,,,,,,,,,,,,,,,,,,,,,,,,,,,,,,,,,,,,,,,,,,,,,
,,,,,,,,,,5e56c5f6ca5e640720f2cc28,22,Mężczyzna,2022-05-28_09h36.30.246,task,2021.1.4,Win32,75.05817008,628b806c463b948bc644b84f,6291d04c625148c977dfceb3,,,,,1,0,1,0,1,"X V Q F H G B L J M P D K C T S W R N Z
",,,,,,,,,,,,,,,,,,,,,,,,,,,,,,,,,,,,,,,,,,,,,,,,,,,,,,,,,,,,,,,,,,,,,,,,,,,,,,,,,,,,,,,,,,,,,
,,,,,,,,,,5e56c5f6ca5e640720f2cc28,22,Mężczyzna,2022-05-28_09h36.30.246,task,2021.1.4,Win32,75.05817008,628b806c463b948bc644b84f,6291d04c625148c977dfceb3,,,,,2,0,2,0,1,"X V Q F H G B L J M P D K C T S W R N Z
",,,,,,,,,,,,,,,,,,,,,,,,,,,,,,,,,,,,,,,,,,,,,,,,,,,,,,,,,,,,,,,,,,,,,,,,,,,,,,,,,,,,,,,,,,,,,
,,,,,,,,,,5e56c5f6ca5e640720f2cc28,22,Mężczyzna,2022-05-28_09h36.30.246,task,2021.1.4,Win32,75.05817008,628b806c463b948bc644b84f,6291d04c625148c977dfceb3,,,,,3,0,3,0,1,"X V Q F H G B L J M P D K C T S W R N Z
",,,,,,,,,,,,,,,,,,,,,,,,,,,,,,,,,,,,,,,,,,,,,,,,,,,,,,,,,,,,,,,,,,,,,,,,,,,,,,,,,,,,,,,,,,,,,
,,,,,,,,,,5e56c5f6ca5e640720f2cc28,22,Mężczyzna,2022-05-28_09h36.30.246,task,2021.1.4,Win32,75.05817008,628b806c463b948bc644b84f,6291d04c625148c977dfceb3,,,,,4,0,4,0,1,"X V Q F H G B L J M P D K C T S W R N Z
",,,,,,,,,,,,,,,,,,,,,,,,,,,,,,,,,,,,,,,,,,,,,,,,,,,,,,,,,,,,,,,,,,,,,,,,,,,,,,,,,,,,,,,,,,,,,
,,,,,,,,,,5e56c5f6ca5e640720f2cc28,22,Mężczyzna,2022-05-28_09h36.30.246,task,2021.1.4,Win32,75.05817008,628b806c463b948bc644b84f,6291d04c625148c977dfceb3,,,,,5,0,5,0,1,"X V Q F H G B L J M P D K C T S W R N Z
",,,,,,,,,,,,,,,,,,,,,,,,,,,,,,,,,,,,,,,,,,,,,,,,,,,,,,,,,,,,,,,,,,,,,,,,,,,,,,,,,,,,,,,,,,,,,
,,,,,,,,,,5e56c5f6ca5e640720f2cc28,22,Mężczyzna,2022-05-28_09h36.30.246,task,2021.1.4,Win32,75.05817008,628b806c463b948bc644b84f,6291d04c625148c977dfceb3,,,,,,,,,,,vlfpxj,"[""v"",""l"",""f"",""p"",""x"",""j""]","[1.1831000001430994,1.776700000047697,2.568700000047727,2.86860000014309,3.310799999952337,3.6487999999523595,5.3587000000476905]",0,VFLPXJ,12,0,12,0,1,,,,,,,,,,,,,,,,,,,,,,,,,,,,,,,,,,,,,,,,,,,,,,,,,,,,,,,,,,,,,,,,,,,,,,,,,,,,,,,,,,,
,,,,,,,,,,5e56c5f6ca5e640720f2cc28,22,Mężczyzna,2022-05-28_09h36.30.246,task,2021.1.4,Win32,75.05817008,628b806c463b948bc644b84f,6291d04c625148c977dfceb3,,,,,,,,,,,,,,,,,,,,,space,6.3403,9,"[""9""]",0,[4.4095999999046285],[4.4095999999046285],0,0,0,8,1,Practice,9,(3x3) - 1,8,,,,,,,,,,,,,,,,,,,,,,,,,,,,,,,,,,,,,,,,,,,,,,,,,,,,,,,,,,,,,,,,,,,
,,,,,,,,,,5e56c5f6ca5e640720f2cc28,22,Mężczyzna,2022-05-28_09h36.30.246,task,2021.1.4,Win32,75.05817008,628b806c463b948bc644b84f,6291d04c625148c977dfceb3,,,,,,,,,,,,,,,,,,,,,,,2,"[""2""]",1,[3.652499999999975],"[4.4095999999046285,3.652499999999975]",0,1,1,2,1,Practice,3,(4x4) - 14,2,,,,,,,,,,,,,,,,,,,,,,,,,,,,,,,,,,,,,,,,,,,,,,,,,,,,,,,,,,,,,,,,,,,
,,,,,,,,,,5e56c5f6ca5e640720f2cc28,22,Mężczyzna,2022-05-28_09h36.30.246,task,2021.1.4,Win32,75.05817008,628b806c463b948bc644b84f,6291d04c625148c977dfceb3,,,,,,,,,,,,,,,,,,,,,,,6,"[""6""]",1,[3.4054000000953693],"[4.4095999999046285,3.652499999999975,3.4054000000953693]",0,2,2,6,1,Practice,7,(25/5) + 1,6,,,,,,,,,,,,,,,,,,,,,,,,,,,,,,,,,,,,,,,,,,,,,,,,,,,,,,,,,,,,,,,,,,,
,,,,,,,,,,5e56c5f6ca5e640720f2cc28,22,Mężczyzna,2022-05-28_09h36.30.246,task,2021.1.4,Win32,75.05817008,628b806c463b948bc644b84f,6291d04c625148c977dfceb3,,,,,,,,,,,,,,,,,,,,,,,9,"[""9""]",1,[1.95150000000001],"[4.4095999999046285,3.652499999999975,3.4054000000953693,1.95150000000001]",0,3,3,9,1,Practice,10,(20/2) - 1,9,,,,,,,,,,,,,,,,,,,,,,,,,,,,,,,,,,,,,,,,,,,,,,,,,,,,,,,,,,,,,,,,,,,
,,,,,,,,,,5e56c5f6ca5e640720f2cc28,22,Mężczyzna,2022-05-28_09h36.30.246,task,2021.1.4,Win32,75.05817008,628b806c463b948bc644b84f,6291d04c625148c977dfceb3,,,,,,,,,,,,,,,,,,,,,,,0,"[""0""]",1,[2.7079000000953783],"[4.4095999999046285,3.652499999999975,3.4054000000953693,1.95150000000001,2.7079000000953783]",0,4,4,0,1,Practice,1,(3x3) -  9,0,,,,,,,,,,,,,,,,,,,,,,,,,,,,,,,,,,,,,,,,,,,,,,,,,,,,,,,,,,,,,,,,,,,
,,,,,,,,,,5e56c5f6ca5e640720f2cc28,22,Mężczyzna,2022-05-28_09h36.30.246,task,2021.1.4,Win32,75.05817008,628b806c463b948bc644b84f,6291d04c625148c977dfceb3,,,,,,,,,,,,,,,,,,,,,,,4,"[""4""]",1,[3.481999999999971],"[4.4095999999046285,3.652499999999975,3.4054000000953693,1.95150000000001,2.7079000000953783,3.481999999999971]",0,5,5,4,1,Practice,5,(2x6) - 8,4,,,,,,,,,,,,,,,,,,,,,,,,,,,,,,,,,,,,,,,,,,,,,,,,,,,,,,,,,,,,,,,,,,,
,,,,,,,,,,5e56c5f6ca5e640720f2cc28,22,Mężczyzna,2022-05-28_09h36.30.246,task,2021.1.4,Win32,75.05817008,628b806c463b948bc644b84f,6291d04c625148c977dfceb3,,,,,,,,,,,,,,,,,,,,,,,1,"[""1""]",1,[1.4068999998569325],"[4.4095999999046285,3.652499999999975,3.4054000000953693,1.95150000000001,2.7079000000953783,3.481999999999971,1.4068999998569325]",0,6,6,1,1,Practice,2,(4x4) - 15,1,,,,,,,,,,,,,,,,,,,,,,,,,,,,,,,,,,,,,,,,,,,,,,,,,,,,,,,,,,,,,,,,,,,
,,,,,,,,,,5e56c5f6ca5e640720f2cc28,22,Mężczyzna,2022-05-28_09h36.30.246,task,2021.1.4,Win32,75.05817008,628b806c463b948bc644b84f,6291d04c625148c977dfceb3,,,,,,,,,,,,,,,,,,,,,,,7,"[""7""]",1,[2.2145999999046353],"[4.4095999999046285,3.652499999999975,3.4054000000953693,1.95150000000001,2.7079000000953783,3.481999999999971,1.4068999998569325,2.2145999999046353]",0,7,7,7,1,Practice,8,(5x5) - 18,7,,,,,,,,,,,,,,,,,,,,,,,,,,,,,,,,,,,,,,,,,,,,,,,,,,,,,,,,,,,,,,,,,,,
,,,,,,,,,,5e56c5f6ca5e640720f2cc28,22,Mężczyzna,2022-05-28_09h36.30.246,task,2021.1.4,Win32,75.05817008,628b806c463b948bc644b84f,6291d04c625148c977dfceb3,,,,,,,,,,,,,,,,,,,,,,,3,"[""3""]",1,[4.7509000000954416],"[4.4095999999046285,3.652499999999975,3.4054000000953693,1.95150000000001,2.7079000000953783,3.481999999999971,1.4068999998569325,2.2145999999046353,4.7509000000954416]",0,8,8,3,1,Practice,4,(8/4) + 1,3,,,,,,,,,,,,,,,,,,,,,,,,,,,,,,,,,,,,,,,,,,,,,,,,,,,,,,,,,,,,,,,,,,,
,,,,,,,,,,5e56c5f6ca5e640720f2cc28,22,Mężczyzna,2022-05-28_09h36.30.246,task,2021.1.4,Win32,75.05817008,628b806c463b948bc644b84f,6291d04c625148c977dfceb3,,,,,,,,,,,,,,,,,,,,,,,5,"[""5""]",1,[2.321200000047611],"[4.4095999999046285,3.652499999999975,3.4054000000953693,1.95150000000001,2.7079000000953783,3.481999999999971,1.4068999998569325,2.2145999999046353,4.7509000000954416,2.321200000047611]",0,9,9,5,1,Practice,6,(4/2) + 3,5,,,,,,,,,,,,,,,,,,,,,,,,,,,,,,,,,,,,,,,,,,,,,,,,,,,,,,,,,,,,,,,,,,,
,,,,,,,,,,5e56c5f6ca5e640720f2cc28,22,Mężczyzna,2022-05-28_09h36.30.246,task,2021.1.4,Win32,75.05817008,628b806c463b948bc644b84f,6291d04c625148c977dfceb3,,,,,,,,,,,,,,,,,,,,,,,,,,,,,,,,,,,,,0.9,30.3025,2.020166667,20.86885003,1.179515438,5.063316497,space,2.0305,0,0,0,0,1,,,,,,,,,,,,,,,,,,,,,,,,,,,,,,,,,,,,,,,,,,,,,,,,,,,,,,
,,,,,,,,,,5e56c5f6ca5e640720f2cc28,22,Mężczyzna,2022-05-28_09h36.30.246,task,2021.1.4,Win32,75.05817008,628b806c463b948bc644b84f,6291d04c625148c977dfceb3,,,,,,,,,,,,,,,,,,,,,,,8,,,,,,,,,,Practice,9,(3x3) - 1,8,,,,,,,,,,,,,,space,12.3832,"[""8""]",1,[4.850199999809206],1,0,0,0,8,1,,,,,,,,,,,,,,,,,,,,,,,,,,,,,,,,,,,,,,,,,,,
,,,,,,,,,,5e56c5f6ca5e640720f2cc28,22,Mężczyzna,2022-05-28_09h36.30.246,task,2021.1.4,Win32,75.05817008,628b806c463b948bc644b84f,6291d04c625148c977dfceb3,,,,,,,,,,"X V Q F H G B L J M P D K C T S W R N Z
",,,,,,,,,,,,,,,,,,,,,,,,,,,,,,,,,,,,,,,,,,,,,,,,,,,0,0,0,0,1,,,,,,,,,,,,,,,,,,,,,,,,,,,,,,,,,,,,,,
,,,,,,,,,,5e56c5f6ca5e640720f2cc28,22,Mężczyzna,2022-05-28_09h36.30.246,task,2021.1.4,Win32,75.05817008,628b806c463b948bc644b84f,6291d04c625148c977dfceb3,,,,,,,,,,,,,,,,,,,,,,,1,,,,,,,,,,Practice,2,(4x4) - 15,1,,,,,,,,,,,,,,,,"[""1""]",1,[2.2201999998092106],1,0,0,0,1,1,,,,,,,,,,,,,,,,,,,,,,,,,,,,,,,,,,,,,,,,,,,
,,,,,,,,,,5e56c5f6ca5e640720f2cc28,22,Mężczyzna,2022-05-28_09h36.30.246,task,2021.1.4,Win32,75.05817008,628b806c463b948bc644b84f,6291d04c625148c977dfceb3,,,,,,,,,,"X V Q F H G B L J M P D K C T S W R N Z
",,,,,,,,,,,,,,,,,,,,,,,,,,,,,,,,,,,,,,,,,,,,,,,,,,,1,0,1,0,1,,,,,,,,,,,,,,,,,,,,,,,,,,,,,,,,,,,,,,
,,,,,,,,,,5e56c5f6ca5e640720f2cc28,22,Mężczyzna,2022-05-28_09h36.30.246,task,2021.1.4,Win32,75.05817008,628b806c463b948bc644b84f,6291d04c625148c977dfceb3,,,,,,,,,,,,,,,,,,,,,,,,,,,,,,,,,,,,,,,,,,,,,,,,,,,,,,,,,,,,,,,,,,zs,"[""z"",""s""]",0,"[1.8799999999999955,2.1039000000953365,2.716000000000008]",1,0,0,0,0,1,,,,,,,,,,,,,,,,,,,,,,,,,,,,
,,,,,,,,,,5e56c5f6ca5e640720f2cc28,22,Mężczyzna,2022-05-28_09h36.30.246,task,2021.1.4,Win32,75.05817008,628b806c463b948bc644b84f,6291d04c625148c977dfceb3,,,,,,,,,,,,,,,,,,,,,,,1,,,,,,,,,,Practice,2,(4x4) - 15,1,,,,,,,,,,,,,,,,"[""1""]",1,[1.6869000000953065],1,0,0,0,1,1,,,,,,,,,,,,,,,,,,,,,,,,,,,,,,,,,,,,,,,,,,,
,,,,,,,,,,5e56c5f6ca5e640720f2cc28,22,Mężczyzna,2022-05-28_09h36.30.246,task,2021.1.4,Win32,75.05817008,628b806c463b948bc644b84f,6291d04c625148c977dfceb3,,,,,,,,,,"X V Q F H G B L J M P D K C T S W R N Z
",,,,,,,,,,,,,,,,,,,,,,,,,,,,,,,,,,,,,,,,,,,,,,,,,,,0,0,0,0,1,,,,,,,,,,,,,,,,,,,,,,,,,,,,,,,,,,,,,,
,,,,,,,,,,5e56c5f6ca5e640720f2cc28,22,Mężczyzna,2022-05-28_09h36.30.246,task,2021.1.4,Win32,75.05817008,628b806c463b948bc644b84f,6291d04c625148c977dfceb3,,,,,,,,,,,,,,,,,,,,,,,8,,,,,,,,,,Practice,9,(3x3) - 1,8,,,,,,,,,,,,,,,,"[""8""]",1,[2.164500000000089],1,0,0,0,8,1,,,,,,,,,,,,,,,,,,,,,,,,,,,,,,,,,,,,,,,,,,,
,,,,,,,,,,5e56c5f6ca5e640720f2cc28,22,Mężczyzna,2022-05-28_09h36.30.246,task,2021.1.4,Win32,75.05817008,628b806c463b948bc644b84f,6291d04c625148c977dfceb3,,,,,,,,,,"X V Q F H G B L J M P D K C T S W R N Z
",,,,,,,,,,,,,,,,,,,,,,,,,,,,,,,,,,,,,,,,,,,,,,,,,,,1,0,1,0,1,,,,,,,,,,,,,,,,,,,,,,,,,,,,,,,,,,,,,,
,,,,,,,,,,5e56c5f6ca5e640720f2cc28,22,Mężczyzna,2022-05-28_09h36.30.246,task,2021.1.4,Win32,75.05817008,628b806c463b948bc644b84f,6291d04c625148c977dfceb3,,,,,,,,,,,,,,,,,,,,,,,,,,,,,,,,,,,,,,,,,,,,,,,,,,,,,,,,,,,,,,,,,,dx,"[""d"",""x""]",0,"[1.3942999999522954,1.5643999998569598,2.2242999999523363]",1,1,0,1,0,1,,,,,,,,,,,,,,,,,,,,,,,,,,,,
,,,,,,,,,,5e56c5f6ca5e640720f2cc28,22,Mężczyzna,2022-05-28_09h36.30.246,task,2021.1.4,Win32,75.05817008,628b806c463b948bc644b84f,6291d04c625148c977dfceb3,,,,,,,,,,,,,,,,,,,,,,,1,,,,,,,,,,Practice,2,(4x4) - 15,1,,,,,,,,,,,,,,,,"[""1""]",1,[1.928900000095382],1,0,0,0,1,1,,,,,,,,,,,,,,,,,,,,,,,,,,,,,,,,,,,,,,,,,,,
,,,,,,,,,,5e56c5f6ca5e640720f2cc28,22,Mężczyzna,2022-05-28_09h36.30.246,task,2021.1.4,Win32,75.05817008,628b806c463b948bc644b84f,6291d04c625148c977dfceb3,,,,,,,,,,"X V Q F H G B L J M P D K C T S W R N Z
",,,,,,,,,,,,,,,,,,,,,,,,,,,,,,,,,,,,,,,,,,,,,,,,,,,0,0,0,0,1,,,,,,,,,,,,,,,,,,,,,,,,,,,,,,,,,,,,,,
,,,,,,,,,,5e56c5f6ca5e640720f2cc28,22,Mężczyzna,2022-05-28_09h36.30.246,task,2021.1.4,Win32,75.05817008,628b806c463b948bc644b84f,6291d04c625148c977dfceb3,,,,,,,,,,,,,,,,,,,,,,,2,,,,,,,,,,Practice,3,(4x4) - 14,2,,,,,,,,,,,,,,,,"[""2""]",1,[2.8570999999045625],1,0,0,0,2,1,,,,,,,,,,,,,,,,,,,,,,,,,,,,,,,,,,,,,,,,,,,
,,,,,,,,,,5e56c5f6ca5e640720f2cc28,22,Mężczyzna,2022-05-28_09h36.30.246,task,2021.1.4,Win32,75.05817008,628b806c463b948bc644b84f,6291d04c625148c977dfceb3,,,,,,,,,,"X V Q F H G B L J M P D K C T S W R N Z
",,,,,,,,,,,,,,,,,,,,,,,,,,,,,,,,,,,,,,,,,,,,,,,,,,,1,0,1,0,1,,,,,,,,,,,,,,,,,,,,,,,,,,,,,,,,,,,,,,
,,,,,,,,,,5e56c5f6ca5e640720f2cc28,22,Mężczyzna,2022-05-28_09h36.30.246,task,2021.1.4,Win32,75.05817008,628b806c463b948bc644b84f,6291d04c625148c977dfceb3,,,,,,,,,,,,,,,,,,,,,,,,,,,,,,,,,,,,,,,,,,,,,,,,,,,,,,,,,,,,,,,,,,wn,"[""w"",""n""]",0,"[1.2820999999046307,1.6944000000953565,2.136099999904559]",1,2,0,2,0,1,,,,,,,,,,,,,,,,,,,,,,,,,,,,
,,,,,,,,,,5e56c5f6ca5e640720f2cc28,22,Mężczyzna,2022-05-28_09h36.30.246,task,2021.1.4,Win32,75.05817008,628b806c463b948bc644b84f,6291d04c625148c977dfceb3,,,,,,,,,,,,,,,,,,,,,,,3,,,,,,,,,,Task,20,(18/9) + 1,3,,,,,,,,,,,,,,,,,,,1,,,,,,,,,,,,,,,,,,,,,space,16.1233,"[""3""]",1,[4.300999999999931],0,0,0,19,1,,,,,,,,,,,,,,,,,,
,,,,,,,,,,5e56c5f6ca5e640720f2cc28,22,Mężczyzna,2022-05-28_09h36.30.246,task,2021.1.4,Win32,75.05817008,628b806c463b948bc644b84f,6291d04c625148c977dfceb3,,,,,,,,,,"X V Q F H G B L J M P D K C T S W R N Z
",,,,,,,,,,,,,,,,,,,,,,,,,,,,,,,,,,,,,,,,,,,,,,,,,,,,,,,,,,,,,,,,,,,,,,,,,,,,0,0,0,0,1,,,,,,,,,,,,,
,,,,,,,,,,5e56c5f6ca5e640720f2cc28,22,Mężczyzna,2022-05-28_09h36.30.246,task,2021.1.4,Win32,75.05817008,628b806c463b948bc644b84f,6291d04c625148c977dfceb3,,,,,,,,,,,,,,,,,,,,,,,0,,,,,,,,,,Task,33,(1/1) - 1,0,,,,,,,,,,,,,,,,,,,1,,,,,,,,,,,,,,,,,,,,,,,"[""0""]",1,[2.223700000047643],0,0,0,32,1,,,,,,,,,,,,,,,,,,
,,,,,,,,,,5e56c5f6ca5e640720f2cc28,22,Mężczyzna,2022-05-28_09h36.30.246,task,2021.1.4,Win32,75.05817008,628b806c463b948bc644b84f,6291d04c625148c977dfceb3,,,,,,,,,,"X V Q F H G B L J M P D K C T S W R N Z
",,,,,,,,,,,,,,,,,,,,,,,,,,,,,,,,,,,,,,,,,,,,,,,,,,,,,,,,,,,,,,,,,,,,,,,,,,,,1,0,1,0,1,,,,,,,,,,,,,
,,,,,,,,,,5e56c5f6ca5e640720f2cc28,22,Mężczyzna,2022-05-28_09h36.30.246,task,2021.1.4,Win32,75.05817008,628b806c463b948bc644b84f,6291d04c625148c977dfceb3,,,,,,,,,,,,,,,,,,,,,,,,,,,,,,,,,,,,,,,,,,,,,,,,,,,,,,,,,,,,,,,,,,,,,,,,,,,,,,,,,,,,,,,,,,,zc,"[""z"",""c""]",0,"[1.5080999999046298,1.8992999999522908,2.2993999998569734]",1,ZC,0,0,0,0,1,,
,,,,,,,,,,5e56c5f6ca5e640720f2cc28,22,Mężczyzna,2022-05-28_09h36.30.246,task,2021.1.4,Win32,75.05817008,628b806c463b948bc644b84f,6291d04c625148c977dfceb3,,,,,,,,,,,,,,,,,,,,,,,7,,,,,,,,,,Task,6,(12/2) + 1,7,,,,,,,,,,,,,,,,,,,1,,,,,,,,,,,,,,,,,,,,,,,"[""7""]",1,[2.3893999998568916],0,0,0,5,1,,,,,,,,,,,,,,,,,,
,,,,,,,,,,5e56c5f6ca5e640720f2cc28,22,Mężczyzna,2022-05-28_09h36.30.246,task,2021.1.4,Win32,75.05817008,628b806c463b948bc644b84f,6291d04c625148c977dfceb3,,,,,,,,,,"X V Q F H G B L J M P D K C T S W R N Z
",,,,,,,,,,,,,,,,,,,,,,,,,,,,,,,,,,,,,,,,,,,,,,,,,,,,,,,,,,,,,,,,,,,,,,,,,,,,0,0,0,0,1,,,,,,,,,,,,,
,,,,,,,,,,5e56c5f6ca5e640720f2cc28,22,Mężczyzna,2022-05-28_09h36.30.246,task,2021.1.4,Win32,75.05817008,628b806c463b948bc644b84f,6291d04c625148c977dfceb3,,,,,,,,,,,,,,,,,,,,,,,8,,,,,,,,,,Task,15,(3x7) - 13,8,,,,,,,,,,,,,,,,,,,1,,,,,,,,,,,,,,,,,,,,,,,"[""8""]",1,[3.361300000190681],0,0,0,14,1,,,,,,,,,,,,,,,,,,
,,,,,,,,,,5e56c5f6ca5e640720f2cc28,22,Mężczyzna,2022-05-28_09h36.30.246,task,2021.1.4,Win32,75.05817008,628b806c463b948bc644b84f,6291d04c625148c977dfceb3,,,,,,,,,,"X V Q F H G B L J M P D K C T S W R N Z
",,,,,,,,,,,,,,,,,,,,,,,,,,,,,,,,,,,,,,,,,,,,,,,,,,,,,,,,,,,,,,,,,,,,,,,,,,,,1,0,1,0,1,,,,,,,,,,,,,
,,,,,,,,,,5e56c5f6ca5e640720f2cc28,22,Mężczyzna,2022-05-28_09h36.30.246,task,2021.1.4,Win32,75.05817008,628b806c463b948bc644b84f,6291d04c625148c977dfceb3,,,,,,,,,,,,,,,,,,,,,,,5,,,,,,,,,,Task,12,(4x4) - 11,5,,,,,,,,,,,,,,,,,,,1,,,,,,,,,,,,,,,,,,,,,,,"[""5""]",1,[3.3501999998093197],0,0,0,11,1,,,,,,,,,,,,,,,,,,
,,,,,,,,,,5e56c5f6ca5e640720f2cc28,22,Mężczyzna,2022-05-28_09h36.30.246,task,2021.1.4,Win32,75.05817008,628b806c463b948bc644b84f,6291d04c625148c977dfceb3,,,,,,,,,,"X V Q F H G B L J M P D K C T S W R N Z
",,,,,,,,,,,,,,,,,,,,,,,,,,,,,,,,,,,,,,,,,,,,,,,,,,,,,,,,,,,,,,,,,,,,,,,,,,,,2,0,2,0,1,,,,,,,,,,,,,
,,,,,,,,,,5e56c5f6ca5e640720f2cc28,22,Mężczyzna,2022-05-28_09h36.30.246,task,2021.1.4,Win32,75.05817008,628b806c463b948bc644b84f,6291d04c625148c977dfceb3,,,,,,,,,,,,,,,,,,,,,,,,,,,,,,,,,,,,,,,,,,,,,,,,,,,,,,,,,,,,,,,,,,,,,,,,,,,,,,,,,,,,,,,,,,,tfm,"[""t"",""f"",""m""]",0,"[0.8557000000477046,1.0534000000953938,1.2097000000477465,1.4800000000000182]",1,TFM,1,0,1,0,1,,
,,,,,,,,,,5e56c5f6ca5e640720f2cc28,22,Mężczyzna,2022-05-28_09h36.30.246,task,2021.1.4,Win32,75.05817008,628b806c463b948bc644b84f,6291d04c625148c977dfceb3,,,,,,,,,,,,,,,,,,,,,,,7,,,,,,,,,,Task,6,(12/2) + 1,7,,,,,,,,,,,,,,,,,,,1,,,,,,,,,,,,,,,,,,,,,,,"[""7""]",1,[3.5560999999046317],0,0,0,5,1,,,,,,,,,,,,,,,,,,
,,,,,,,,,,5e56c5f6ca5e640720f2cc28,22,Mężczyzna,2022-05-28_09h36.30.246,task,2021.1.4,Win32,75.05817008,628b806c463b948bc644b84f,6291d04c625148c977dfceb3,,,,,,,,,,"X V Q F H G B L J M P D K C T S W R N Z
",,,,,,,,,,,,,,,,,,,,,,,,,,,,,,,,,,,,,,,,,,,,,,,,,,,,,,,,,,,,,,,,,,,,,,,,,,,,0,0,0,0,1,,,,,,,,,,,,,
,,,,,,,,,,5e56c5f6ca5e640720f2cc28,22,Mężczyzna,2022-05-28_09h36.30.246,task,2021.1.4,Win32,75.05817008,628b806c463b948bc644b84f,6291d04c625148c977dfceb3,,,,,,,,,,,,,,,,,,,,,,,1,,,,,,,,,,Task,34,(9/3) - 2,1,,,,,,,,,,,,,,,,,,,1,,,,,,,,,,,,,,,,,,,,,,,"[""1""]",1,[2.152699999809215],0,0,0,33,1,,,,,,,,,,,,,,,,,,
,,,,,,,,,,5e56c5f6ca5e640720f2cc28,22,Mężczyzna,2022-05-28_09h36.30.246,task,2021.1.4,Win32,75.05817008,628b806c463b948bc644b84f,6291d04c625148c977dfceb3,,,,,,,,,,"X V Q F H G B L J M P D K C T S W R N Z
",,,,,,,,,,,,,,,,,,,,,,,,,,,,,,,,,,,,,,,,,,,,,,,,,,,,,,,,,,,,,,,,,,,,,,,,,,,,1,0,1,0,1,,,,,,,,,,,,,
,,,,,,,,,,5e56c5f6ca5e640720f2cc28,22,Mężczyzna,2022-05-28_09h36.30.246,task,2021.1.4,Win32,75.05817008,628b806c463b948bc644b84f,6291d04c625148c977dfceb3,,,,,,,,,,,,,,,,,,,,,,,2,,,,,,,,,,Task,10,(2x5) - 8,2,,,,,,,,,,,,,,,,,,,1,,,,,,,,,,,,,,,,,,,,,,,"[""2""]",1,[2.0352000000476664],0,0,0,9,1,,,,,,,,,,,,,,,,,,
,,,,,,,,,,5e56c5f6ca5e640720f2cc28,22,Mężczyzna,2022-05-28_09h36.30.246,task,2021.1.4,Win32,75.05817008,628b806c463b948bc644b84f,6291d04c625148c977dfceb3,,,,,,,,,,"X V Q F H G B L J M P D K C T S W R N Z
",,,,,,,,,,,,,,,,,,,,,,,,,,,,,,,,,,,,,,,,,,,,,,,,,,,,,,,,,,,,,,,,,,,,,,,,,,,,2,0,2,0,1,,,,,,,,,,,,,
,,,,,,,,,,5e56c5f6ca5e640720f2cc28,22,Mężczyzna,2022-05-28_09h36.30.246,task,2021.1.4,Win32,75.05817008,628b806c463b948bc644b84f,6291d04c625148c977dfceb3,,,,,,,,,,,,,,,,,,,,,,,1,,,,,,,,,,Task,13,(3x4) - 6,6,,,,,,,,,,,,,,,,,,,0,,,,,,,,,,,,,,,,,,,,,,,"[""1""]",0,[3.402199999809227],0,0,0,12,1,,,,,,,,,,,,,,,,,,
,,,,,,,,,,5e56c5f6ca5e640720f2cc28,22,Mężczyzna,2022-05-28_09h36.30.246,task,2021.1.4,Win32,75.05817008,628b806c463b948bc644b84f,6291d04c625148c977dfceb3,,,,,,,,,,,,,,,,,,,,,,,0,,,,,,,,,,Task,33,(1/1) - 1,0,,,,,,,,,,,,,,,,,,,1,,,,,,,,,,,,,,,,,,,,,,,"[""0""]",1,[2.1392999999523],0,1,1,32,1,,,,,,,,,,,,,,,,,,
,,,,,,,,,,5e56c5f6ca5e640720f2cc28,22,Mężczyzna,2022-05-28_09h36.30.246,task,2021.1.4,Win32,75.05817008,628b806c463b948bc644b84f,6291d04c625148c977dfceb3,,,,,,,,,,"X V Q F H G B L J M P D K C T S W R N Z
",,,,,,,,,,,,,,,,,,,,,,,,,,,,,,,,,,,,,,,,,,,,,,,,,,,,,,,,,,,,,,,,,,,,,,,,,,,,3,0,3,0,1,,,,,,,,,,,,,
,,,,,,,,,,5e56c5f6ca5e640720f2cc28,22,Mężczyzna,2022-05-28_09h36.30.246,task,2021.1.4,Win32,75.05817008,628b806c463b948bc644b84f,6291d04c625148c977dfceb3,,,,,,,,,,,,,,,,,,,,,,,,,,,,,,,,,,,,,,,,,,,,,,,,,,,,,,,,,,,,,,,,,,,,,,,,,,,,,,,,,,,,,,,,,,,pfpt,"[""p"",""f"",""p"",""t""]",0,"[1.2138000001907585,1.6458000001907749,2.0241000001431075,2.334100000143053,2.9799000000954265]",1,PFPT,2,0,2,0,1,,
,,,,,,,,,,5e56c5f6ca5e640720f2cc28,22,Mężczyzna,2022-05-28_09h36.30.246,task,2021.1.4,Win32,75.05817008,628b806c463b948bc644b84f,6291d04c625148c977dfceb3,,,,,,,,,,,,,,,,,,,,,,,,,,,,,,,,,Task,13,(3x4) - 6,6,,,,,,,,,,,,,,,,,,,0,,,,,,,,,,,,,,,,,,,,,,,,0,,0,0,0,12,1,,,,,,,,,,,,,,,,,,
,,,,,,,,,,5e56c5f6ca5e640720f2cc28,22,Mężczyzna,2022-05-28_09h36.30.246,task,2021.1.4,Win32,75.05817008,628b806c463b948bc644b84f,6291d04c625148c977dfceb3,,,,,,,,,,,,,,,,,,,,,,,0,,,,,,,,,,Task,25,(10/5) - 2,0,,,,,,,,,,,,,,,,,,,1,,,,,,,,,,,,,,,,,,,,,,,"[""0""]",1,[3.358900000095332],0,1,1,24,1,,,,,,,,,,,,,,,,,,
,,,,,,,,,,5e56c5f6ca5e640720f2cc28,22,Mężczyzna,2022-05-28_09h36.30.246,task,2021.1.4,Win32,75.05817008,628b806c463b948bc644b84f,6291d04c625148c977dfceb3,,,,,,,,,,"X V Q F H G B L J M P D K C T S W R N Z
",,,,,,,,,,,,,,,,,,,,,,,,,,,,,,,,,,,,,,,,,,,,,,,,,,,,,,,,,,,,,,,,,,,,,,,,,,,,0,0,0,0,1,,,,,,,,,,,,,
,,,,,,,,,,5e56c5f6ca5e640720f2cc28,22,Mężczyzna,2022-05-28_09h36.30.246,task,2021.1.4,Win32,75.05817008,628b806c463b948bc644b84f,6291d04c625148c977dfceb3,,,,,,,,,,,,,,,,,,,,,,,8,,,,,,,,,,Task,16,(3x8) - 15,9,,,,,,,,,,,,,,,,,,,0,,,,,,,,,,,,,,,,,,,,,,,"[""8""]",0,[4.663299999952301],0,0,0,15,1,,,,,,,,,,,,,,,,,,
,,,,,,,,,,5e56c5f6ca5e640720f2cc28,22,Mężczyzna,2022-05-28_09h36.30.246,task,2021.1.4,Win32,75.05817008,628b806c463b948bc644b84f,6291d04c625148c977dfceb3,,,,,,,,,,,,,,,,,,,,,,,1,,,,,,,,,,Task,9,(3x7) - 20,1,,,,,,,,,,,,,,,,,,,1,,,,,,,,,,,,,,,,,,,,,,,"[""1""]",1,[3.3272000000476964],0,1,1,8,1,,,,,,,,,,,,,,,,,,
,,,,,,,,,,5e56c5f6ca5e640720f2cc28,22,Mężczyzna,2022-05-28_09h36.30.246,task,2021.1.4,Win32,75.05817008,628b806c463b948bc644b84f,6291d04c625148c977dfceb3,,,,,,,,,,"X V Q F H G B L J M P D K C T S W R N Z
",,,,,,,,,,,,,,,,,,,,,,,,,,,,,,,,,,,,,,,,,,,,,,,,,,,,,,,,,,,,,,,,,,,,,,,,,,,,1,0,1,0,1,,,,,,,,,,,,,
,,,,,,,,,,5e56c5f6ca5e640720f2cc28,22,Mężczyzna,2022-05-28_09h36.30.246,task,2021.1.4,Win32,75.05817008,628b806c463b948bc644b84f,6291d04c625148c977dfceb3,,,,,,,,,,,,,,,,,,,,,,,5,,,,,,,,,,Task,37,(3/3) + 5,6,,,,,,,,,,,,,,,,,,,0,,,,,,,,,,,,,,,,,,,,,,,"[""5""]",0,[2.558200000047691],0,0,0,36,1,,,,,,,,,,,,,,,,,,
,,,,,,,,,,5e56c5f6ca5e640720f2cc28,22,Mężczyzna,2022-05-28_09h36.30.246,task,2021.1.4,Win32,75.05817008,628b806c463b948bc644b84f,6291d04c625148c977dfceb3,,,,,,,,,,,,,,,,,,,,,,,3,,,,,,,,,,Task,6,(12/2) + 1,7,,,,,,,,,,,,,,,,,,,0,,,,,,,,,,,,,,,,,,,,,,,"[""3""]",0,[3.8695999999047217],0,1,1,5,1,,,,,,,,,,,,,,,,,,
,,,,,,,,,,5e56c5f6ca5e640720f2cc28,22,Mężczyzna,2022-05-28_09h36.30.246,task,2021.1.4,Win32,75.05817008,628b806c463b948bc644b84f,6291d04c625148c977dfceb3,,,,,,,,,,,,,,,,,,,,,,,2,,,,,,,,,,Task,10,(2x5) - 8,2,,,,,,,,,,,,,,,,,,,1,,,,,,,,,,,,,,,,,,,,,,,"[""2""]",1,[2.034399999856987],0,2,2,9,1,,,,,,,,,,,,,,,,,,
,,,,,,,,,,5e56c5f6ca5e640720f2cc28,22,Mężczyzna,2022-05-28_09h36.30.246,task,2021.1.4,Win32,75.05817008,628b806c463b948bc644b84f,6291d04c625148c977dfceb3,,,,,,,,,,"X V Q F H G B L J M P D K C T S W R N Z
",,,,,,,,,,,,,,,,,,,,,,,,,,,,,,,,,,,,,,,,,,,,,,,,,,,,,,,,,,,,,,,,,,,,,,,,,,,,2,0,2,0,1,,,,,,,,,,,,,
,,,,,,,,,,5e56c5f6ca5e640720f2cc28,22,Mężczyzna,2022-05-28_09h36.30.246,task,2021.1.4,Win32,75.05817008,628b806c463b948bc644b84f,6291d04c625148c977dfceb3,,,,,,,,,,,,,,,,,,,,,,,1,,,,,,,,,,Task,34,(9/3) - 2,1,,,,,,,,,,,,,,,,,,,1,,,,,,,,,,,,,,,,,,,,,,,"[""1""]",1,[2.6150999999046007],0,0,0,33,1,,,,,,,,,,,,,,,,,,
,,,,,,,,,,5e56c5f6ca5e640720f2cc28,22,Mężczyzna,2022-05-28_09h36.30.246,task,2021.1.4,Win32,75.05817008,628b806c463b948bc644b84f,6291d04c625148c977dfceb3,,,,,,,,,,"X V Q F H G B L J M P D K C T S W R N Z
",,,,,,,,,,,,,,,,,,,,,,,,,,,,,,,,,,,,,,,,,,,,,,,,,,,,,,,,,,,,,,,,,,,,,,,,,,,,3,0,3,0,1,,,,,,,,,,,,,
,,,,,,,,,,5e56c5f6ca5e640720f2cc28,22,Mężczyzna,2022-05-28_09h36.30.246,task,2021.1.4,Win32,75.05817008,628b806c463b948bc644b84f,6291d04c625148c977dfceb3,,,,,,,,,,,,,,,,,,,,,,,9,,,,,,,,,,Task,7,(3x7) - 12,9,,,,,,,,,,,,,,,,,,,1,,,,,,,,,,,,,,,,,,,,,,,"[""9""]",1,[3.6446000001429866],0,0,0,6,1,,,,,,,,,,,,,,,,,,
,,,,,,,,,,5e56c5f6ca5e640720f2cc28,22,Mężczyzna,2022-05-28_09h36.30.246,task,2021.1.4,Win32,75.05817008,628b806c463b948bc644b84f,6291d04c625148c977dfceb3,,,,,,,,,,"X V Q F H G B L J M P D K C T S W R N Z
",,,,,,,,,,,,,,,,,,,,,,,,,,,,,,,,,,,,,,,,,,,,,,,,,,,,,,,,,,,,,,,,,,,,,,,,,,,,4,0,4,0,1,,,,,,,,,,,,,
,,,,,,,,,,5e56c5f6ca5e640720f2cc28,22,Mężczyzna,2022-05-28_09h36.30.246,task,2021.1.4,Win32,75.05817008,628b806c463b948bc644b84f,6291d04c625148c977dfceb3,,,,,,,,,,,,,,,,,,,,,,,,,,,,,,,,,,,,,,,,,,,,,,,,,,,,,,,,,,,,,,,,,,,,,,,,,,,,,,,,,,,,,,,,,,,qsmw,"[""q"",""s"",""m"",""w""]",0,"[3.648200000047723,3.9081000001430084,6.508100000143031,6.642200000047637,7.775299999952267]",0,"Z
CSMW",3,0,3,0,1,,
,,,,,,,,,,5e56c5f6ca5e640720f2cc28,22,Mężczyzna,2022-05-28_09h36.30.246,task,2021.1.4,Win32,75.05817008,628b806c463b948bc644b84f,6291d04c625148c977dfceb3,,,,,,,,,,,,,,,,,,,,,,,8,,,,,,,,,,Task,39,(5x3) - 7,8,,,,,,,,,,,,,,,,,,,1,,,,,,,,,,,,,,,,,,,,,,,"[""8""]",1,[2.183499999999981],0,0,0,38,1,,,,,,,,,,,,,,,,,,
,,,,,,,,,,5e56c5f6ca5e640720f2cc28,22,Mężczyzna,2022-05-28_09h36.30.246,task,2021.1.4,Win32,75.05817008,628b806c463b948bc644b84f,6291d04c625148c977dfceb3,,,,,,,,,,"X V Q F H G B L J M P D K C T S W R N Z
",,,,,,,,,,,,,,,,,,,,,,,,,,,,,,,,,,,,,,,,,,,,,,,,,,,,,,,,,,,,,,,,,,,,,,,,,,,,0,0,0,0,1,,,,,,,,,,,,,
,,,,,,,,,,5e56c5f6ca5e640720f2cc28,22,Mężczyzna,2022-05-28_09h36.30.246,task,2021.1.4,Win32,75.05817008,628b806c463b948bc644b84f,6291d04c625148c977dfceb3,,,,,,,,,,,,,,,,,,,,,,,6,,,,,,,,,,Task,5,(2x3) + 0,6,,,,,,,,,,,,,,,,,,,1,,,,,,,,,,,,,,,,,,,,,,,"[""6""]",1,[2.518000000000029],0,0,0,4,1,,,,,,,,,,,,,,,,,,
,,,,,,,,,,5e56c5f6ca5e640720f2cc28,22,Mężczyzna,2022-05-28_09h36.30.246,task,2021.1.4,Win32,75.05817008,628b806c463b948bc644b84f,6291d04c625148c977dfceb3,,,,,,,,,,"X V Q F H G B L J M P D K C T S W R N Z
",,,,,,,,,,,,,,,,,,,,,,,,,,,,,,,,,,,,,,,,,,,,,,,,,,,,,,,,,,,,,,,,,,,,,,,,,,,,1,0,1,0,1,,,,,,,,,,,,,
,,,,,,,,,,5e56c5f6ca5e640720f2cc28,22,Mężczyzna,2022-05-28_09h36.30.246,task,2021.1.4,Win32,75.05817008,628b806c463b948bc644b84f,6291d04c625148c977dfceb3,,,,,,,,,,,,,,,,,,,,,,,1,,,,,,,,,,Task,18,(16/4) - 3,1,,,,,,,,,,,,,,,,,,,1,,,,,,,,,,,,,,,,,,,,,,,"[""1""]",1,[2.9606000001430175],0,0,0,17,1,,,,,,,,,,,,,,,,,,
,,,,,,,,,,5e56c5f6ca5e640720f2cc28,22,Mężczyzna,2022-05-28_09h36.30.246,task,2021.1.4,Win32,75.05817008,628b806c463b948bc644b84f,6291d04c625148c977dfceb3,,,,,,,,,,"X V Q F H G B L J M P D K C T S W R N Z
",,,,,,,,,,,,,,,,,,,,,,,,,,,,,,,,,,,,,,,,,,,,,,,,,,,,,,,,,,,,,,,,,,,,,,,,,,,,2,0,2,0,1,,,,,,,,,,,,,
,,,,,,,,,,5e56c5f6ca5e640720f2cc28,22,Mężczyzna,2022-05-28_09h36.30.246,task,2021.1.4,Win32,75.05817008,628b806c463b948bc644b84f,6291d04c625148c977dfceb3,,,,,,,,,,,,,,,,,,,,,,,2,,,,,,,,,,Task,10,(2x5) - 8,2,,,,,,,,,,,,,,,,,,,1,,,,,,,,,,,,,,,,,,,,,,,"[""2""]",1,[1.0042000000477174],0,0,0,9,1,,,,,,,,,,,,,,,,,,
,,,,,,,,,,5e56c5f6ca5e640720f2cc28,22,Mężczyzna,2022-05-28_09h36.30.246,task,2021.1.4,Win32,75.05817008,628b806c463b948bc644b84f,6291d04c625148c977dfceb3,,,,,,,,,,"X V Q F H G B L J M P D K C T S W R N Z
",,,,,,,,,,,,,,,,,,,,,,,,,,,,,,,,,,,,,,,,,,,,,,,,,,,,,,,,,,,,,,,,,,,,,,,,,,,,3,0,3,0,1,,,,,,,,,,,,,
,,,,,,,,,,5e56c5f6ca5e640720f2cc28,22,Mężczyzna,2022-05-28_09h36.30.246,task,2021.1.4,Win32,75.05817008,628b806c463b948bc644b84f,6291d04c625148c977dfceb3,,,,,,,,,,,,,,,,,,,,,,,4,,,,,,,,,,Task,21,(10/2) - 1,4,,,,,,,,,,,,,,,,,,,1,,,,,,,,,,,,,,,,,,,,,,,"[""4""]",1,[3.0951000001430202],0,0,0,20,1,,,,,,,,,,,,,,,,,,
,,,,,,,,,,5e56c5f6ca5e640720f2cc28,22,Mężczyzna,2022-05-28_09h36.30.246,task,2021.1.4,Win32,75.05817008,628b806c463b948bc644b84f,6291d04c625148c977dfceb3,,,,,,,,,,"X V Q F H G B L J M P D K C T S W R N Z
",,,,,,,,,,,,,,,,,,,,,,,,,,,,,,,,,,,,,,,,,,,,,,,,,,,,,,,,,,,,,,,,,,,,,,,,,,,,4,0,4,0,1,,,,,,,,,,,,,
,,,,,,,,,,5e56c5f6ca5e640720f2cc28,22,Mężczyzna,2022-05-28_09h36.30.246,task,2021.1.4,Win32,75.05817008,628b806c463b948bc644b84f,6291d04c625148c977dfceb3,,,,,,,,,,,,,,,,,,,,,,,,,,,,,,,,,,,,,,,,,,,,,,,,,,,,,,,,,,,,,,,,,,,,,,,,,,,,,,,,,,,,,,,,,,,pjmnp,"[""p"",""j"",""m"",""n"",""p""]",0,"[1.455500000000029,1.783400000095412,2.17940000009537,2.4234000000953984,2.6564000000953456,3.0643000001907694]",0,PJNMP,4,0,4,0,1,,
,,,,,,,,,,5e56c5f6ca5e640720f2cc28,22,Mężczyzna,2022-05-28_09h36.30.246,task,2021.1.4,Win32,75.05817008,628b806c463b948bc644b84f,6291d04c625148c977dfceb3,,,,,,,,,,,,,,,,,,,,,,,,,,,,,,,,,,,,,,,,,,,,,,,,,,,,,,,,,,,,,,,,,,,,,,,,,,,,,,,,,,,,,,,,,,,,,,,,,,,,,,space,1.5831
