key_resp_15.keys,key_resp_15.rt,key_resp_13.keys,key_resp_13.corr,key_resp_13.rt,ranodm_loop.thisRepN,ranodm_loop.thisTrialN,ranodm_loop.thisN,ranodm_loop.thisIndex,ranodm_loop.ran,participant,Wiek*,Płeć,date,expName,psychopyVersion,OS,frameRate,study_id,session,key_resp_16.keys,key_resp_16.rt,key_resp_4.keys,key_resp_4.rt,next_letter.thisRepN,next_letter.thisTrialN,next_letter.thisN,next_letter.thisIndex,next_letter.ran,letter,simple_recall,key_resp_5.keys,key_resp_5.rt,simple_recall_corr,simple_recall_corrkeys,next_level.thisRepN,next_level.thisTrialN,next_level.thisN,next_level.thisIndex,next_level.ran,key_resp_2.keys,key_resp_2.rt,digit_answer,key_resp.keys,key_resp.corr,key_resp.rt,RT_list,next_equation.thisRepN,next_equation.thisTrialN,next_equation.thisN,next_equation.thisIndex,next_equation.ran,Task,Trial,Problem,Operation_answer,processing_score,sumRT,meanRT,sumdiff,sd,RT,key_resp_3.keys,key_resp_3.rt,repeat_practice.thisRepN,repeat_practice.thisTrialN,repeat_practice.thisN,repeat_practice.thisIndex,repeat_practice.ran,key_resp_6.keys,key_resp_6.rt,key_resp_11.keys,key_resp_11.corr,operation_correct,repeat_if_wrong_prac.thisRepN,repeat_if_wrong_prac.thisTrialN,repeat_if_wrong_prac.thisN,repeat_if_wrong_prac.thisIndex,repeat_if_wrong_prac.ran,key_resp_11.rt,span_size_prac.thisRepN,span_size_prac.thisTrialN,span_size_prac.thisN,span_size_prac.thisIndex,span_size_prac.ran,complex_recall_practice,key_resp_9.keys,key_resp_9.corr,key_resp_9.rt,complex_prac_corr,span_recall_prac.thisRepN,span_recall_prac.thisTrialN,span_recall_prac.thisN,span_recall_prac.thisIndex,span_recall_prac.ran,key_resp_10.keys,key_resp_10.rt,key_resp_7.keys,key_resp_7.corr,key_resp_7.rt,repeat_if_wrong.thisRepN,repeat_if_wrong.thisTrialN,repeat_if_wrong.thisN,repeat_if_wrong.thisIndex,repeat_if_wrong.ran,span_size.thisRepN,span_size.thisTrialN,span_size.thisN,span_size.thisIndex,span_size.ran,complex_recall,key_resp_8.keys,key_resp_8.corr,key_resp_8.rt,complex_recall_corr,complex_recall_corrkeys,span_recall.thisRepN,span_recall.thisTrialN,span_recall.thisN,span_recall.thisIndex,span_recall.ran,key_resp_12.keys,key_resp_12.rt
space,26.8027,"[""period""]",0,[0.9001999999880752],0,0,0,0,1,5e66bf9f0df257000ce28048,21,Mężczyzna,2022-06-10_12h58.38.107,task,2021.1.4,Win32,59.96282305,628b806c463b948bc644b84f,62a323d011e0f7a4aadae375,,,,,,,,,,,,,,,,,,,,,,,,,,,,,,,,,,,,,,,,,,,,,,,,,,,,,,,,,,,,,,,,,,,,,,,,,,,,,,,,,,,,,,,,,,,,,,,,,,,,,,,
,,"[""comma""]",0,[0.7437000000476814],1,0,1,0,1,5e66bf9f0df257000ce28048,21,Mężczyzna,2022-06-10_12h58.38.107,task,2021.1.4,Win32,59.96282305,628b806c463b948bc644b84f,62a323d011e0f7a4aadae375,,,,,,,,,,,,,,,,,,,,,,,,,,,,,,,,,,,,,,,,,,,,,,,,,,,,,,,,,,,,,,,,,,,,,,,,,,,,,,,,,,,,,,,,,,,,,,,,,,,,,,,
,,"[""comma""]",0,[0.6361000000238448],2,0,2,0,1,5e66bf9f0df257000ce28048,21,Mężczyzna,2022-06-10_12h58.38.107,task,2021.1.4,Win32,59.96282305,628b806c463b948bc644b84f,62a323d011e0f7a4aadae375,,,,,,,,,,,,,,,,,,,,,,,,,,,,,,,,,,,,,,,,,,,,,,,,,,,,,,,,,,,,,,,,,,,,,,,,,,,,,,,,,,,,,,,,,,,,,,,,,,,,,,,
,,"[""comma""]",0,[0.407600000023848],3,0,3,0,1,5e66bf9f0df257000ce28048,21,Mężczyzna,2022-06-10_12h58.38.107,task,2021.1.4,Win32,59.96282305,628b806c463b948bc644b84f,62a323d011e0f7a4aadae375,,,,,,,,,,,,,,,,,,,,,,,,,,,,,,,,,,,,,,,,,,,,,,,,,,,,,,,,,,,,,,,,,,,,,,,,,,,,,,,,,,,,,,,,,,,,,,,,,,,,,,,
,,"[""period""]",0,[-0.011499999999998067],4,0,4,0,1,5e66bf9f0df257000ce28048,21,Mężczyzna,2022-06-10_12h58.38.107,task,2021.1.4,Win32,59.96282305,628b806c463b948bc644b84f,62a323d011e0f7a4aadae375,,,,,,,,,,,,,,,,,,,,,,,,,,,,,,,,,,,,,,,,,,,,,,,,,,,,,,,,,,,,,,,,,,,,,,,,,,,,,,,,,,,,,,,,,,,,,,,,,,,,,,,
,,"[""period""]",0,[0.3371000000238382],5,0,5,0,1,5e66bf9f0df257000ce28048,21,Mężczyzna,2022-06-10_12h58.38.107,task,2021.1.4,Win32,59.96282305,628b806c463b948bc644b84f,62a323d011e0f7a4aadae375,,,,,,,,,,,,,,,,,,,,,,,,,,,,,,,,,,,,,,,,,,,,,,,,,,,,,,,,,,,,,,,,,,,,,,,,,,,,,,,,,,,,,,,,,,,,,,,,,,,,,,,
,,"[""comma""]",0,[0.30109999996423653],6,0,6,0,1,5e66bf9f0df257000ce28048,21,Mężczyzna,2022-06-10_12h58.38.107,task,2021.1.4,Win32,59.96282305,628b806c463b948bc644b84f,62a323d011e0f7a4aadae375,,,,,,,,,,,,,,,,,,,,,,,,,,,,,,,,,,,,,,,,,,,,,,,,,,,,,,,,,,,,,,,,,,,,,,,,,,,,,,,,,,,,,,,,,,,,,,,,,,,,,,,
,,"[""period""]",0,[0.27310000002384527],7,0,7,0,1,5e66bf9f0df257000ce28048,21,Mężczyzna,2022-06-10_12h58.38.107,task,2021.1.4,Win32,59.96282305,628b806c463b948bc644b84f,62a323d011e0f7a4aadae375,,,,,,,,,,,,,,,,,,,,,,,,,,,,,,,,,,,,,,,,,,,,,,,,,,,,,,,,,,,,,,,,,,,,,,,,,,,,,,,,,,,,,,,,,,,,,,,,,,,,,,,
,,"[""period""]",0,[0.2924000000357694],8,0,8,0,1,5e66bf9f0df257000ce28048,21,Mężczyzna,2022-06-10_12h58.38.107,task,2021.1.4,Win32,59.96282305,628b806c463b948bc644b84f,62a323d011e0f7a4aadae375,,,,,,,,,,,,,,,,,,,,,,,,,,,,,,,,,,,,,,,,,,,,,,,,,,,,,,,,,,,,,,,,,,,,,,,,,,,,,,,,,,,,,,,,,,,,,,,,,,,,,,,
,,"[""comma""]",0,[0.2670000000000101],9,0,9,0,1,5e66bf9f0df257000ce28048,21,Mężczyzna,2022-06-10_12h58.38.107,task,2021.1.4,Win32,59.96282305,628b806c463b948bc644b84f,62a323d011e0f7a4aadae375,,,,,,,,,,,,,,,,,,,,,,,,,,,,,,,,,,,,,,,,,,,,,,,,,,,,,,,,,,,,,,,,,,,,,,,,,,,,,,,,,,,,,,,,,,,,,,,,,,,,,,,
,,"[""comma""]",0,[0.04530000001192036],10,0,10,0,1,5e66bf9f0df257000ce28048,21,Mężczyzna,2022-06-10_12h58.38.107,task,2021.1.4,Win32,59.96282305,628b806c463b948bc644b84f,62a323d011e0f7a4aadae375,,,,,,,,,,,,,,,,,,,,,,,,,,,,,,,,,,,,,,,,,,,,,,,,,,,,,,,,,,,,,,,,,,,,,,,,,,,,,,,,,,,,,,,,,,,,,,,,,,,,,,,
,,"[""period""]",0,[0.12119999998807884],11,0,11,0,1,5e66bf9f0df257000ce28048,21,Mężczyzna,2022-06-10_12h58.38.107,task,2021.1.4,Win32,59.96282305,628b806c463b948bc644b84f,62a323d011e0f7a4aadae375,,,,,,,,,,,,,,,,,,,,,,,,,,,,,,,,,,,,,,,,,,,,,,,,,,,,,,,,,,,,,,,,,,,,,,,,,,,,,,,,,,,,,,,,,,,,,,,,,,,,,,,
,,"[""comma""]",0,[0.10939999997616212],12,0,12,0,1,5e66bf9f0df257000ce28048,21,Mężczyzna,2022-06-10_12h58.38.107,task,2021.1.4,Win32,59.96282305,628b806c463b948bc644b84f,62a323d011e0f7a4aadae375,,,,,,,,,,,,,,,,,,,,,,,,,,,,,,,,,,,,,,,,,,,,,,,,,,,,,,,,,,,,,,,,,,,,,,,,,,,,,,,,,,,,,,,,,,,,,,,,,,,,,,,
,,"[""period"",""comma""]",0,"[0.18609999996422744,1.9220999999642316]",13,0,13,0,1,5e66bf9f0df257000ce28048,21,Mężczyzna,2022-06-10_12h58.38.107,task,2021.1.4,Win32,59.96282305,628b806c463b948bc644b84f,62a323d011e0f7a4aadae375,,,,,,,,,,,,,,,,,,,,,,,,,,,,,,,,,,,,,,,,,,,,,,,,,,,,,,,,,,,,,,,,,,,,,,,,,,,,,,,,,,,,,,,,,,,,,,,,,,,,,,,
,,,0,,14,0,14,0,1,5e66bf9f0df257000ce28048,21,Mężczyzna,2022-06-10_12h58.38.107,task,2021.1.4,Win32,59.96282305,628b806c463b948bc644b84f,62a323d011e0f7a4aadae375,,,,,,,,,,,,,,,,,,,,,,,,,,,,,,,,,,,,,,,,,,,,,,,,,,,,,,,,,,,,,,,,,,,,,,,,,,,,,,,,,,,,,,,,,,,,,,,,,,,,,,,
,,"[""comma"",""period""]",0,"[0.002400000035763128,1.8661999999880692]",15,0,15,0,1,5e66bf9f0df257000ce28048,21,Mężczyzna,2022-06-10_12h58.38.107,task,2021.1.4,Win32,59.96282305,628b806c463b948bc644b84f,62a323d011e0f7a4aadae375,,,,,,,,,,,,,,,,,,,,,,,,,,,,,,,,,,,,,,,,,,,,,,,,,,,,,,,,,,,,,,,,,,,,,,,,,,,,,,,,,,,,,,,,,,,,,,,,,,,,,,,
,,,0,,16,0,16,0,1,5e66bf9f0df257000ce28048,21,Mężczyzna,2022-06-10_12h58.38.107,task,2021.1.4,Win32,59.96282305,628b806c463b948bc644b84f,62a323d011e0f7a4aadae375,,,,,,,,,,,,,,,,,,,,,,,,,,,,,,,,,,,,,,,,,,,,,,,,,,,,,,,,,,,,,,,,,,,,,,,,,,,,,,,,,,,,,,,,,,,,,,,,,,,,,,,
,,"[""period""]",0,[0.24319999998807873],17,0,17,0,1,5e66bf9f0df257000ce28048,21,Mężczyzna,2022-06-10_12h58.38.107,task,2021.1.4,Win32,59.96282305,628b806c463b948bc644b84f,62a323d011e0f7a4aadae375,,,,,,,,,,,,,,,,,,,,,,,,,,,,,,,,,,,,,,,,,,,,,,,,,,,,,,,,,,,,,,,,,,,,,,,,,,,,,,,,,,,,,,,,,,,,,,,,,,,,,,,
,,"[""period""]",0,[0.26360000002384254],18,0,18,0,1,5e66bf9f0df257000ce28048,21,Mężczyzna,2022-06-10_12h58.38.107,task,2021.1.4,Win32,59.96282305,628b806c463b948bc644b84f,62a323d011e0f7a4aadae375,,,,,,,,,,,,,,,,,,,,,,,,,,,,,,,,,,,,,,,,,,,,,,,,,,,,,,,,,,,,,,,,,,,,,,,,,,,,,,,,,,,,,,,,,,,,,,,,,,,,,,,
,,"[""comma""]",0,[0.26780000001191695],19,0,19,0,1,5e66bf9f0df257000ce28048,21,Mężczyzna,2022-06-10_12h58.38.107,task,2021.1.4,Win32,59.96282305,628b806c463b948bc644b84f,62a323d011e0f7a4aadae375,,,,,,,,,,,,,,,,,,,,,,,,,,,,,,,,,,,,,,,,,,,,,,,,,,,,,,,,,,,,,,,,,,,,,,,,,,,,,,,,,,,,,,,,,,,,,,,,,,,,,,,
,,"[""comma""]",0,[0.2634999999999934],20,0,20,0,1,5e66bf9f0df257000ce28048,21,Mężczyzna,2022-06-10_12h58.38.107,task,2021.1.4,Win32,59.96282305,628b806c463b948bc644b84f,62a323d011e0f7a4aadae375,,,,,,,,,,,,,,,,,,,,,,,,,,,,,,,,,,,,,,,,,,,,,,,,,,,,,,,,,,,,,,,,,,,,,,,,,,,,,,,,,,,,,,,,,,,,,,,,,,,,,,,
,,"[""period""]",0,[0.24319999998807873],21,0,21,0,1,5e66bf9f0df257000ce28048,21,Mężczyzna,2022-06-10_12h58.38.107,task,2021.1.4,Win32,59.96282305,628b806c463b948bc644b84f,62a323d011e0f7a4aadae375,,,,,,,,,,,,,,,,,,,,,,,,,,,,,,,,,,,,,,,,,,,,,,,,,,,,,,,,,,,,,,,,,,,,,,,,,,,,,,,,,,,,,,,,,,,,,,,,,,,,,,,
,,"[""comma"",""period""]",0,"[0.20769999998809396,1.9711999999880874]",22,0,22,0,1,5e66bf9f0df257000ce28048,21,Mężczyzna,2022-06-10_12h58.38.107,task,2021.1.4,Win32,59.96282305,628b806c463b948bc644b84f,62a323d011e0f7a4aadae375,,,,,,,,,,,,,,,,,,,,,,,,,,,,,,,,,,,,,,,,,,,,,,,,,,,,,,,,,,,,,,,,,,,,,,,,,,,,,,,,,,,,,,,,,,,,,,,,,,,,,,,
,,,0,,23,0,23,0,1,5e66bf9f0df257000ce28048,21,Mężczyzna,2022-06-10_12h58.38.107,task,2021.1.4,Win32,59.96282305,628b806c463b948bc644b84f,62a323d011e0f7a4aadae375,,,,,,,,,,,,,,,,,,,,,,,,,,,,,,,,,,,,,,,,,,,,,,,,,,,,,,,,,,,,,,,,,,,,,,,,,,,,,,,,,,,,,,,,,,,,,,,,,,,,,,,
,,"[""comma""]",0,[0.23329999995232242],24,0,24,0,1,5e66bf9f0df257000ce28048,21,Mężczyzna,2022-06-10_12h58.38.107,task,2021.1.4,Win32,59.96282305,628b806c463b948bc644b84f,62a323d011e0f7a4aadae375,,,,,,,,,,,,,,,,,,,,,,,,,,,,,,,,,,,,,,,,,,,,,,,,,,,,,,,,,,,,,,,,,,,,,,,,,,,,,,,,,,,,,,,,,,,,,,,,,,,,,,,
,,"[""period""]",0,[0.30809999996424153],25,0,25,0,1,5e66bf9f0df257000ce28048,21,Mężczyzna,2022-06-10_12h58.38.107,task,2021.1.4,Win32,59.96282305,628b806c463b948bc644b84f,62a323d011e0f7a4aadae375,,,,,,,,,,,,,,,,,,,,,,,,,,,,,,,,,,,,,,,,,,,,,,,,,,,,,,,,,,,,,,,,,,,,,,,,,,,,,,,,,,,,,,,,,,,,,,,,,,,,,,,
,,"[""comma""]",0,[0.3288999999761586],26,0,26,0,1,5e66bf9f0df257000ce28048,21,Mężczyzna,2022-06-10_12h58.38.107,task,2021.1.4,Win32,59.96282305,628b806c463b948bc644b84f,62a323d011e0f7a4aadae375,,,,,,,,,,,,,,,,,,,,,,,,,,,,,,,,,,,,,,,,,,,,,,,,,,,,,,,,,,,,,,,,,,,,,,,,,,,,,,,,,,,,,,,,,,,,,,,,,,,,,,,
,,"[""period""]",0,[0.26849999999998886],27,0,27,0,1,5e66bf9f0df257000ce28048,21,Mężczyzna,2022-06-10_12h58.38.107,task,2021.1.4,Win32,59.96282305,628b806c463b948bc644b84f,62a323d011e0f7a4aadae375,,,,,,,,,,,,,,,,,,,,,,,,,,,,,,,,,,,,,,,,,,,,,,,,,,,,,,,,,,,,,,,,,,,,,,,,,,,,,,,,,,,,,,,,,,,,,,,,,,,,,,,
,,"[""comma""]",0,[0.37700000000000955],28,0,28,0,1,5e66bf9f0df257000ce28048,21,Mężczyzna,2022-06-10_12h58.38.107,task,2021.1.4,Win32,59.96282305,628b806c463b948bc644b84f,62a323d011e0f7a4aadae375,,,,,,,,,,,,,,,,,,,,,,,,,,,,,,,,,,,,,,,,,,,,,,,,,,,,,,,,,,,,,,,,,,,,,,,,,,,,,,,,,,,,,,,,,,,,,,,,,,,,,,,
,,"[""comma""]",0,[0.277400000035783],29,0,29,0,1,5e66bf9f0df257000ce28048,21,Mężczyzna,2022-06-10_12h58.38.107,task,2021.1.4,Win32,59.96282305,628b806c463b948bc644b84f,62a323d011e0f7a4aadae375,,,,,,,,,,,,,,,,,,,,,,,,,,,,,,,,,,,,,,,,,,,,,,,,,,,,,,,,,,,,,,,,,,,,,,,,,,,,,,,,,,,,,,,,,,,,,,,,,,,,,,,
,,"[""comma""]",0,[0.2896999999881018],30,0,30,0,1,5e66bf9f0df257000ce28048,21,Mężczyzna,2022-06-10_12h58.38.107,task,2021.1.4,Win32,59.96282305,628b806c463b948bc644b84f,62a323d011e0f7a4aadae375,,,,,,,,,,,,,,,,,,,,,,,,,,,,,,,,,,,,,,,,,,,,,,,,,,,,,,,,,,,,,,,,,,,,,,,,,,,,,,,,,,,,,,,,,,,,,,,,,,,,,,,
,,"[""comma""]",0,[0.27780000001192207],31,0,31,0,1,5e66bf9f0df257000ce28048,21,Mężczyzna,2022-06-10_12h58.38.107,task,2021.1.4,Win32,59.96282305,628b806c463b948bc644b84f,62a323d011e0f7a4aadae375,,,,,,,,,,,,,,,,,,,,,,,,,,,,,,,,,,,,,,,,,,,,,,,,,,,,,,,,,,,,,,,,,,,,,,,,,,,,,,,,,,,,,,,,,,,,,,,,,,,,,,,
,,"[""period""]",0,[0.2733000000119432],32,0,32,0,1,5e66bf9f0df257000ce28048,21,Mężczyzna,2022-06-10_12h58.38.107,task,2021.1.4,Win32,59.96282305,628b806c463b948bc644b84f,62a323d011e0f7a4aadae375,,,,,,,,,,,,,,,,,,,,,,,,,,,,,,,,,,,,,,,,,,,,,,,,,,,,,,,,,,,,,,,,,,,,,,,,,,,,,,,,,,,,,,,,,,,,,,,,,,,,,,,
,,"[""comma""]",0,[0.3176999999880934],33,0,33,0,1,5e66bf9f0df257000ce28048,21,Mężczyzna,2022-06-10_12h58.38.107,task,2021.1.4,Win32,59.96282305,628b806c463b948bc644b84f,62a323d011e0f7a4aadae375,,,,,,,,,,,,,,,,,,,,,,,,,,,,,,,,,,,,,,,,,,,,,,,,,,,,,,,,,,,,,,,,,,,,,,,,,,,,,,,,,,,,,,,,,,,,,,,,,,,,,,,
,,"[""comma""]",0,[0.2588000000119166],34,0,34,0,1,5e66bf9f0df257000ce28048,21,Mężczyzna,2022-06-10_12h58.38.107,task,2021.1.4,Win32,59.96282305,628b806c463b948bc644b84f,62a323d011e0f7a4aadae375,,,,,,,,,,,,,,,,,,,,,,,,,,,,,,,,,,,,,,,,,,,,,,,,,,,,,,,,,,,,,,,,,,,,,,,,,,,,,,,,,,,,,,,,,,,,,,,,,,,,,,,
,,"[""period""]",0,[-0.01630000001193821],35,0,35,0,1,5e66bf9f0df257000ce28048,21,Mężczyzna,2022-06-10_12h58.38.107,task,2021.1.4,Win32,59.96282305,628b806c463b948bc644b84f,62a323d011e0f7a4aadae375,,,,,,,,,,,,,,,,,,,,,,,,,,,,,,,,,,,,,,,,,,,,,,,,,,,,,,,,,,,,,,,,,,,,,,,,,,,,,,,,,,,,,,,,,,,,,,,,,,,,,,,
,,"[""period""]",0,[0.2674999999999841],36,0,36,0,1,5e66bf9f0df257000ce28048,21,Mężczyzna,2022-06-10_12h58.38.107,task,2021.1.4,Win32,59.96282305,628b806c463b948bc644b84f,62a323d011e0f7a4aadae375,,,,,,,,,,,,,,,,,,,,,,,,,,,,,,,,,,,,,,,,,,,,,,,,,,,,,,,,,,,,,,,,,,,,,,,,,,,,,,,,,,,,,,,,,,,,,,,,,,,,,,,
,,"[""period""]",0,[0.2546000000238564],37,0,37,0,1,5e66bf9f0df257000ce28048,21,Mężczyzna,2022-06-10_12h58.38.107,task,2021.1.4,Win32,59.96282305,628b806c463b948bc644b84f,62a323d011e0f7a4aadae375,,,,,,,,,,,,,,,,,,,,,,,,,,,,,,,,,,,,,,,,,,,,,,,,,,,,,,,,,,,,,,,,,,,,,,,,,,,,,,,,,,,,,,,,,,,,,,,,,,,,,,,
,,"[""comma""]",0,[0.26760000002386164],38,0,38,0,1,5e66bf9f0df257000ce28048,21,Mężczyzna,2022-06-10_12h58.38.107,task,2021.1.4,Win32,59.96282305,628b806c463b948bc644b84f,62a323d011e0f7a4aadae375,,,,,,,,,,,,,,,,,,,,,,,,,,,,,,,,,,,,,,,,,,,,,,,,,,,,,,,,,,,,,,,,,,,,,,,,,,,,,,,,,,,,,,,,,,,,,,,,,,,,,,,
,,"[""period""]",0,[0.31989999997617247],39,0,39,0,1,5e66bf9f0df257000ce28048,21,Mężczyzna,2022-06-10_12h58.38.107,task,2021.1.4,Win32,59.96282305,628b806c463b948bc644b84f,62a323d011e0f7a4aadae375,,,,,,,,,,,,,,,,,,,,,,,,,,,,,,,,,,,,,,,,,,,,,,,,,,,,,,,,,,,,,,,,,,,,,,,,,,,,,,,,,,,,,,,,,,,,,,,,,,,,,,,
,,"[""comma""]",0,[0.25950000000000273],40,0,40,0,1,5e66bf9f0df257000ce28048,21,Mężczyzna,2022-06-10_12h58.38.107,task,2021.1.4,Win32,59.96282305,628b806c463b948bc644b84f,62a323d011e0f7a4aadae375,,,,,,,,,,,,,,,,,,,,,,,,,,,,,,,,,,,,,,,,,,,,,,,,,,,,,,,,,,,,,,,,,,,,,,,,,,,,,,,,,,,,,,,,,,,,,,,,,,,,,,,
,,"[""comma""]",0,[0.27119999998808453],41,0,41,0,1,5e66bf9f0df257000ce28048,21,Mężczyzna,2022-06-10_12h58.38.107,task,2021.1.4,Win32,59.96282305,628b806c463b948bc644b84f,62a323d011e0f7a4aadae375,,,,,,,,,,,,,,,,,,,,,,,,,,,,,,,,,,,,,,,,,,,,,,,,,,,,,,,,,,,,,,,,,,,,,,,,,,,,,,,,,,,,,,,,,,,,,,,,,,,,,,,
,,"[""period"",""period""]",0,"[0.2401000000238298,1.9768999999761547]",42,0,42,0,1,5e66bf9f0df257000ce28048,21,Mężczyzna,2022-06-10_12h58.38.107,task,2021.1.4,Win32,59.96282305,628b806c463b948bc644b84f,62a323d011e0f7a4aadae375,,,,,,,,,,,,,,,,,,,,,,,,,,,,,,,,,,,,,,,,,,,,,,,,,,,,,,,,,,,,,,,,,,,,,,,,,,,,,,,,,,,,,,,,,,,,,,,,,,,,,,,
,,,0,,43,0,43,0,1,5e66bf9f0df257000ce28048,21,Mężczyzna,2022-06-10_12h58.38.107,task,2021.1.4,Win32,59.96282305,628b806c463b948bc644b84f,62a323d011e0f7a4aadae375,,,,,,,,,,,,,,,,,,,,,,,,,,,,,,,,,,,,,,,,,,,,,,,,,,,,,,,,,,,,,,,,,,,,,,,,,,,,,,,,,,,,,,,,,,,,,,,,,,,,,,,
,,"[""comma""]",0,[0.28360000002385277],44,0,44,0,1,5e66bf9f0df257000ce28048,21,Mężczyzna,2022-06-10_12h58.38.107,task,2021.1.4,Win32,59.96282305,628b806c463b948bc644b84f,62a323d011e0f7a4aadae375,,,,,,,,,,,,,,,,,,,,,,,,,,,,,,,,,,,,,,,,,,,,,,,,,,,,,,,,,,,,,,,,,,,,,,,,,,,,,,,,,,,,,,,,,,,,,,,,,,,,,,,
,,"[""period""]",0,[0.28899999999998727],45,0,45,0,1,5e66bf9f0df257000ce28048,21,Mężczyzna,2022-06-10_12h58.38.107,task,2021.1.4,Win32,59.96282305,628b806c463b948bc644b84f,62a323d011e0f7a4aadae375,,,,,,,,,,,,,,,,,,,,,,,,,,,,,,,,,,,,,,,,,,,,,,,,,,,,,,,,,,,,,,,,,,,,,,,,,,,,,,,,,,,,,,,,,,,,,,,,,,,,,,,
,,"[""comma""]",0,[0.2588000000119166],46,0,46,0,1,5e66bf9f0df257000ce28048,21,Mężczyzna,2022-06-10_12h58.38.107,task,2021.1.4,Win32,59.96282305,628b806c463b948bc644b84f,62a323d011e0f7a4aadae375,,,,,,,,,,,,,,,,,,,,,,,,,,,,,,,,,,,,,,,,,,,,,,,,,,,,,,,,,,,,,,,,,,,,,,,,,,,,,,,,,,,,,,,,,,,,,,,,,,,,,,,
,,"[""comma""]",0,[0.28139999997614495],47,0,47,0,1,5e66bf9f0df257000ce28048,21,Mężczyzna,2022-06-10_12h58.38.107,task,2021.1.4,Win32,59.96282305,628b806c463b948bc644b84f,62a323d011e0f7a4aadae375,,,,,,,,,,,,,,,,,,,,,,,,,,,,,,,,,,,,,,,,,,,,,,,,,,,,,,,,,,,,,,,,,,,,,,,,,,,,,,,,,,,,,,,,,,,,,,,,,,,,,,,
,,"[""period""]",0,[0.2775000000000034],48,0,48,0,1,5e66bf9f0df257000ce28048,21,Mężczyzna,2022-06-10_12h58.38.107,task,2021.1.4,Win32,59.96282305,628b806c463b948bc644b84f,62a323d011e0f7a4aadae375,,,,,,,,,,,,,,,,,,,,,,,,,,,,,,,,,,,,,,,,,,,,,,,,,,,,,,,,,,,,,,,,,,,,,,,,,,,,,,,,,,,,,,,,,,,,,,,,,,,,,,,
,,"[""period""]",0,[0.28489999997614746],49,0,49,0,1,5e66bf9f0df257000ce28048,21,Mężczyzna,2022-06-10_12h58.38.107,task,2021.1.4,Win32,59.96282305,628b806c463b948bc644b84f,62a323d011e0f7a4aadae375,,,,,,,,,,,,,,,,,,,,,,,,,,,,,,,,,,,,,,,,,,,,,,,,,,,,,,,,,,,,,,,,,,,,,,,,,,,,,,,,,,,,,,,,,,,,,,,,,,,,,,,
,,"[""period""]",0,[0.2936000000238437],50,0,50,0,1,5e66bf9f0df257000ce28048,21,Mężczyzna,2022-06-10_12h58.38.107,task,2021.1.4,Win32,59.96282305,628b806c463b948bc644b84f,62a323d011e0f7a4aadae375,,,,,,,,,,,,,,,,,,,,,,,,,,,,,,,,,,,,,,,,,,,,,,,,,,,,,,,,,,,,,,,,,,,,,,,,,,,,,,,,,,,,,,,,,,,,,,,,,,,,,,,
,,"[""comma""]",0,[0.29009999996424085],51,0,51,0,1,5e66bf9f0df257000ce28048,21,Mężczyzna,2022-06-10_12h58.38.107,task,2021.1.4,Win32,59.96282305,628b806c463b948bc644b84f,62a323d011e0f7a4aadae375,,,,,,,,,,,,,,,,,,,,,,,,,,,,,,,,,,,,,,,,,,,,,,,,,,,,,,,,,,,,,,,,,,,,,,,,,,,,,,,,,,,,,,,,,,,,,,,,,,,,,,,
,,"[""period""]",0,[0.30219999998809044],52,0,52,0,1,5e66bf9f0df257000ce28048,21,Mężczyzna,2022-06-10_12h58.38.107,task,2021.1.4,Win32,59.96282305,628b806c463b948bc644b84f,62a323d011e0f7a4aadae375,,,,,,,,,,,,,,,,,,,,,,,,,,,,,,,,,,,,,,,,,,,,,,,,,,,,,,,,,,,,,,,,,,,,,,,,,,,,,,,,,,,,,,,,,,,,,,,,,,,,,,,
,,"[""comma""]",0,[0.5458999999761716],53,0,53,0,1,5e66bf9f0df257000ce28048,21,Mężczyzna,2022-06-10_12h58.38.107,task,2021.1.4,Win32,59.96282305,628b806c463b948bc644b84f,62a323d011e0f7a4aadae375,,,,,,,,,,,,,,,,,,,,,,,,,,,,,,,,,,,,,,,,,,,,,,,,,,,,,,,,,,,,,,,,,,,,,,,,,,,,,,,,,,,,,,,,,,,,,,,,,,,,,,,
,,"[""period""]",0,[0.3586999999880902],54,0,54,0,1,5e66bf9f0df257000ce28048,21,Mężczyzna,2022-06-10_12h58.38.107,task,2021.1.4,Win32,59.96282305,628b806c463b948bc644b84f,62a323d011e0f7a4aadae375,,,,,,,,,,,,,,,,,,,,,,,,,,,,,,,,,,,,,,,,,,,,,,,,,,,,,,,,,,,,,,,,,,,,,,,,,,,,,,,,,,,,,,,,,,,,,,,,,,,,,,,
,,"[""period"",""period""]",0,"[0.33430000001192184,1.61099999999999]",55,0,55,0,1,5e66bf9f0df257000ce28048,21,Mężczyzna,2022-06-10_12h58.38.107,task,2021.1.4,Win32,59.96282305,628b806c463b948bc644b84f,62a323d011e0f7a4aadae375,,,,,,,,,,,,,,,,,,,,,,,,,,,,,,,,,,,,,,,,,,,,,,,,,,,,,,,,,,,,,,,,,,,,,,,,,,,,,,,,,,,,,,,,,,,,,,,,,,,,,,,
,,,0,,56,0,56,0,1,5e66bf9f0df257000ce28048,21,Mężczyzna,2022-06-10_12h58.38.107,task,2021.1.4,Win32,59.96282305,628b806c463b948bc644b84f,62a323d011e0f7a4aadae375,,,,,,,,,,,,,,,,,,,,,,,,,,,,,,,,,,,,,,,,,,,,,,,,,,,,,,,,,,,,,,,,,,,,,,,,,,,,,,,,,,,,,,,,,,,,,,,,,,,,,,,
,,"[""comma""]",0,[0.3386000000238596],57,0,57,0,1,5e66bf9f0df257000ce28048,21,Mężczyzna,2022-06-10_12h58.38.107,task,2021.1.4,Win32,59.96282305,628b806c463b948bc644b84f,62a323d011e0f7a4aadae375,,,,,,,,,,,,,,,,,,,,,,,,,,,,,,,,,,,,,,,,,,,,,,,,,,,,,,,,,,,,,,,,,,,,,,,,,,,,,,,,,,,,,,,,,,,,,,,,,,,,,,,
,,"[""period""]",0,[0.3188999999761677],58,0,58,0,1,5e66bf9f0df257000ce28048,21,Mężczyzna,2022-06-10_12h58.38.107,task,2021.1.4,Win32,59.96282305,628b806c463b948bc644b84f,62a323d011e0f7a4aadae375,,,,,,,,,,,,,,,,,,,,,,,,,,,,,,,,,,,,,,,,,,,,,,,,,,,,,,,,,,,,,,,,,,,,,,,,,,,,,,,,,,,,,,,,,,,,,,,,,,,,,,,
,,"[""comma""]",0,[0.30689999997616724],59,0,59,0,1,5e66bf9f0df257000ce28048,21,Mężczyzna,2022-06-10_12h58.38.107,task,2021.1.4,Win32,59.96282305,628b806c463b948bc644b84f,62a323d011e0f7a4aadae375,,,,,,,,,,,,,,,,,,,,,,,,,,,,,,,,,,,,,,,,,,,,,,,,,,,,,,,,,,,,,,,,,,,,,,,,,,,,,,,,,,,,,,,,,,,,,,,,,,,,,,,
,,"[""comma""]",0,[0.2871000000238553],60,0,60,0,1,5e66bf9f0df257000ce28048,21,Mężczyzna,2022-06-10_12h58.38.107,task,2021.1.4,Win32,59.96282305,628b806c463b948bc644b84f,62a323d011e0f7a4aadae375,,,,,,,,,,,,,,,,,,,,,,,,,,,,,,,,,,,,,,,,,,,,,,,,,,,,,,,,,,,,,,,,,,,,,,,,,,,,,,,,,,,,,,,,,,,,,,,,,,,,,,,
,,"[""comma""]",0,[0.3848999999761702],61,0,61,0,1,5e66bf9f0df257000ce28048,21,Mężczyzna,2022-06-10_12h58.38.107,task,2021.1.4,Win32,59.96282305,628b806c463b948bc644b84f,62a323d011e0f7a4aadae375,,,,,,,,,,,,,,,,,,,,,,,,,,,,,,,,,,,,,,,,,,,,,,,,,,,,,,,,,,,,,,,,,,,,,,,,,,,,,,,,,,,,,,,,,,,,,,,,,,,,,,,
,,"[""period""]",0,[0.3281000000238521],62,0,62,0,1,5e66bf9f0df257000ce28048,21,Mężczyzna,2022-06-10_12h58.38.107,task,2021.1.4,Win32,59.96282305,628b806c463b948bc644b84f,62a323d011e0f7a4aadae375,,,,,,,,,,,,,,,,,,,,,,,,,,,,,,,,,,,,,,,,,,,,,,,,,,,,,,,,,,,,,,,,,,,,,,,,,,,,,,,,,,,,,,,,,,,,,,,,,,,,,,,
,,"[""period""]",0,[0.2862000000476712],63,0,63,0,1,5e66bf9f0df257000ce28048,21,Mężczyzna,2022-06-10_12h58.38.107,task,2021.1.4,Win32,59.96282305,628b806c463b948bc644b84f,62a323d011e0f7a4aadae375,,,,,,,,,,,,,,,,,,,,,,,,,,,,,,,,,,,,,,,,,,,,,,,,,,,,,,,,,,,,,,,,,,,,,,,,,,,,,,,,,,,,,,,,,,,,,,,,,,,,,,,
,,"[""comma""]",0,[0.3136000000238255],64,0,64,0,1,5e66bf9f0df257000ce28048,21,Mężczyzna,2022-06-10_12h58.38.107,task,2021.1.4,Win32,59.96282305,628b806c463b948bc644b84f,62a323d011e0f7a4aadae375,,,,,,,,,,,,,,,,,,,,,,,,,,,,,,,,,,,,,,,,,,,,,,,,,,,,,,,,,,,,,,,,,,,,,,,,,,,,,,,,,,,,,,,,,,,,,,,,,,,,,,,
,,"[""period""]",0,[0.2843999999761593],65,0,65,0,1,5e66bf9f0df257000ce28048,21,Mężczyzna,2022-06-10_12h58.38.107,task,2021.1.4,Win32,59.96282305,628b806c463b948bc644b84f,62a323d011e0f7a4aadae375,,,,,,,,,,,,,,,,,,,,,,,,,,,,,,,,,,,,,,,,,,,,,,,,,,,,,,,,,,,,,,,,,,,,,,,,,,,,,,,,,,,,,,,,,,,,,,,,,,,,,,,
,,"[""period""]",0,[0.27319999998806566],66,0,66,0,1,5e66bf9f0df257000ce28048,21,Mężczyzna,2022-06-10_12h58.38.107,task,2021.1.4,Win32,59.96282305,628b806c463b948bc644b84f,62a323d011e0f7a4aadae375,,,,,,,,,,,,,,,,,,,,,,,,,,,,,,,,,,,,,,,,,,,,,,,,,,,,,,,,,,,,,,,,,,,,,,,,,,,,,,,,,,,,,,,,,,,,,,,,,,,,,,,
,,"[""comma""]",0,[0.30039999997617883],67,0,67,0,1,5e66bf9f0df257000ce28048,21,Mężczyzna,2022-06-10_12h58.38.107,task,2021.1.4,Win32,59.96282305,628b806c463b948bc644b84f,62a323d011e0f7a4aadae375,,,,,,,,,,,,,,,,,,,,,,,,,,,,,,,,,,,,,,,,,,,,,,,,,,,,,,,,,,,,,,,,,,,,,,,,,,,,,,,,,,,,,,,,,,,,,,,,,,,,,,,
,,"[""period""]",0,[0.2723999999761588],68,0,68,0,1,5e66bf9f0df257000ce28048,21,Mężczyzna,2022-06-10_12h58.38.107,task,2021.1.4,Win32,59.96282305,628b806c463b948bc644b84f,62a323d011e0f7a4aadae375,,,,,,,,,,,,,,,,,,,,,,,,,,,,,,,,,,,,,,,,,,,,,,,,,,,,,,,,,,,,,,,,,,,,,,,,,,,,,,,,,,,,,,,,,,,,,,,,,,,,,,,
,,"[""comma""]",0,[0.28600000000000136],69,0,69,0,1,5e66bf9f0df257000ce28048,21,Mężczyzna,2022-06-10_12h58.38.107,task,2021.1.4,Win32,59.96282305,628b806c463b948bc644b84f,62a323d011e0f7a4aadae375,,,,,,,,,,,,,,,,,,,,,,,,,,,,,,,,,,,,,,,,,,,,,,,,,,,,,,,,,,,,,,,,,,,,,,,,,,,,,,,,,,,,,,,,,,,,,,,,,,,,,,,
,,"[""comma""]",0,[0.2677999999523024],70,0,70,0,1,5e66bf9f0df257000ce28048,21,Mężczyzna,2022-06-10_12h58.38.107,task,2021.1.4,Win32,59.96282305,628b806c463b948bc644b84f,62a323d011e0f7a4aadae375,,,,,,,,,,,,,,,,,,,,,,,,,,,,,,,,,,,,,,,,,,,,,,,,,,,,,,,,,,,,,,,,,,,,,,,,,,,,,,,,,,,,,,,,,,,,,,,,,,,,,,,
,,"[""period""]",0,[0.25339999997615337],71,0,71,0,1,5e66bf9f0df257000ce28048,21,Mężczyzna,2022-06-10_12h58.38.107,task,2021.1.4,Win32,59.96282305,628b806c463b948bc644b84f,62a323d011e0f7a4aadae375,,,,,,,,,,,,,,,,,,,,,,,,,,,,,,,,,,,,,,,,,,,,,,,,,,,,,,,,,,,,,,,,,,,,,,,,,,,,,,,,,,,,,,,,,,,,,,,,,,,,,,,
,,"[""comma""]",0,[0.31799999999998363],72,0,72,0,1,5e66bf9f0df257000ce28048,21,Mężczyzna,2022-06-10_12h58.38.107,task,2021.1.4,Win32,59.96282305,628b806c463b948bc644b84f,62a323d011e0f7a4aadae375,,,,,,,,,,,,,,,,,,,,,,,,,,,,,,,,,,,,,,,,,,,,,,,,,,,,,,,,,,,,,,,,,,,,,,,,,,,,,,,,,,,,,,,,,,,,,,,,,,,,,,,
,,"[""period""]",0,[0.27829999995233834],73,0,73,0,1,5e66bf9f0df257000ce28048,21,Mężczyzna,2022-06-10_12h58.38.107,task,2021.1.4,Win32,59.96282305,628b806c463b948bc644b84f,62a323d011e0f7a4aadae375,,,,,,,,,,,,,,,,,,,,,,,,,,,,,,,,,,,,,,,,,,,,,,,,,,,,,,,,,,,,,,,,,,,,,,,,,,,,,,,,,,,,,,,,,,,,,,,,,,,,,,,
,,"[""period""]",0,[0.28470000004767826],74,0,74,0,1,5e66bf9f0df257000ce28048,21,Mężczyzna,2022-06-10_12h58.38.107,task,2021.1.4,Win32,59.96282305,628b806c463b948bc644b84f,62a323d011e0f7a4aadae375,,,,,,,,,,,,,,,,,,,,,,,,,,,,,,,,,,,,,,,,,,,,,,,,,,,,,,,,,,,,,,,,,,,,,,,,,,,,,,,,,,,,,,,,,,,,,,,,,,,,,,,
,,"[""comma""]",0,[0.31869999998809817],75,0,75,0,1,5e66bf9f0df257000ce28048,21,Mężczyzna,2022-06-10_12h58.38.107,task,2021.1.4,Win32,59.96282305,628b806c463b948bc644b84f,62a323d011e0f7a4aadae375,,,,,,,,,,,,,,,,,,,,,,,,,,,,,,,,,,,,,,,,,,,,,,,,,,,,,,,,,,,,,,,,,,,,,,,,,,,,,,,,,,,,,,,,,,,,,,,,,,,,,,,
,,"[""comma""]",0,[0.21800000000001774],76,0,76,0,1,5e66bf9f0df257000ce28048,21,Mężczyzna,2022-06-10_12h58.38.107,task,2021.1.4,Win32,59.96282305,628b806c463b948bc644b84f,62a323d011e0f7a4aadae375,,,,,,,,,,,,,,,,,,,,,,,,,,,,,,,,,,,,,,,,,,,,,,,,,,,,,,,,,,,,,,,,,,,,,,,,,,,,,,,,,,,,,,,,,,,,,,,,,,,,,,,
,,"[""period""]",0,[0.2509000000357844],77,0,77,0,1,5e66bf9f0df257000ce28048,21,Mężczyzna,2022-06-10_12h58.38.107,task,2021.1.4,Win32,59.96282305,628b806c463b948bc644b84f,62a323d011e0f7a4aadae375,,,,,,,,,,,,,,,,,,,,,,,,,,,,,,,,,,,,,,,,,,,,,,,,,,,,,,,,,,,,,,,,,,,,,,,,,,,,,,,,,,,,,,,,,,,,,,,,,,,,,,,
,,"[""comma""]",0,[0.2849999999999966],78,0,78,0,1,5e66bf9f0df257000ce28048,21,Mężczyzna,2022-06-10_12h58.38.107,task,2021.1.4,Win32,59.96282305,628b806c463b948bc644b84f,62a323d011e0f7a4aadae375,,,,,,,,,,,,,,,,,,,,,,,,,,,,,,,,,,,,,,,,,,,,,,,,,,,,,,,,,,,,,,,,,,,,,,,,,,,,,,,,,,,,,,,,,,,,,,,,,,,,,,,
,,"[""comma""]",0,[0.28769999998806384],79,0,79,0,1,5e66bf9f0df257000ce28048,21,Mężczyzna,2022-06-10_12h58.38.107,task,2021.1.4,Win32,59.96282305,628b806c463b948bc644b84f,62a323d011e0f7a4aadae375,,,,,,,,,,,,,,,,,,,,,,,,,,,,,,,,,,,,,,,,,,,,,,,,,,,,,,,,,,,,,,,,,,,,,,,,,,,,,,,,,,,,,,,,,,,,,,,,,,,,,,,
,,"[""comma""]",0,[0.3072999999523063],80,0,80,0,1,5e66bf9f0df257000ce28048,21,Mężczyzna,2022-06-10_12h58.38.107,task,2021.1.4,Win32,59.96282305,628b806c463b948bc644b84f,62a323d011e0f7a4aadae375,,,,,,,,,,,,,,,,,,,,,,,,,,,,,,,,,,,,,,,,,,,,,,,,,,,,,,,,,,,,,,,,,,,,,,,,,,,,,,,,,,,,,,,,,,,,,,,,,,,,,,,
,,"[""period""]",0,[0.27230000001193844],81,0,81,0,1,5e66bf9f0df257000ce28048,21,Mężczyzna,2022-06-10_12h58.38.107,task,2021.1.4,Win32,59.96282305,628b806c463b948bc644b84f,62a323d011e0f7a4aadae375,,,,,,,,,,,,,,,,,,,,,,,,,,,,,,,,,,,,,,,,,,,,,,,,,,,,,,,,,,,,,,,,,,,,,,,,,,,,,,,,,,,,,,,,,,,,,,,,,,,,,,,
,,"[""period""]",0,[0.3083999999761602],82,0,82,0,1,5e66bf9f0df257000ce28048,21,Mężczyzna,2022-06-10_12h58.38.107,task,2021.1.4,Win32,59.96282305,628b806c463b948bc644b84f,62a323d011e0f7a4aadae375,,,,,,,,,,,,,,,,,,,,,,,,,,,,,,,,,,,,,,,,,,,,,,,,,,,,,,,,,,,,,,,,,,,,,,,,,,,,,,,,,,,,,,,,,,,,,,,,,,,,,,,
,,"[""comma""]",0,[0.2873999999761452],83,0,83,0,1,5e66bf9f0df257000ce28048,21,Mężczyzna,2022-06-10_12h58.38.107,task,2021.1.4,Win32,59.96282305,628b806c463b948bc644b84f,62a323d011e0f7a4aadae375,,,,,,,,,,,,,,,,,,,,,,,,,,,,,,,,,,,,,,,,,,,,,,,,,,,,,,,,,,,,,,,,,,,,,,,,,,,,,,,,,,,,,,,,,,,,,,,,,,,,,,,
,,"[""period""]",0,[0.26890000003575665],84,0,84,0,1,5e66bf9f0df257000ce28048,21,Mężczyzna,2022-06-10_12h58.38.107,task,2021.1.4,Win32,59.96282305,628b806c463b948bc644b84f,62a323d011e0f7a4aadae375,,,,,,,,,,,,,,,,,,,,,,,,,,,,,,,,,,,,,,,,,,,,,,,,,,,,,,,,,,,,,,,,,,,,,,,,,,,,,,,,,,,,,,,,,,,,,,,,,,,,,,,
,,"[""comma""]",0,[0.2679000000357803],85,0,85,0,1,5e66bf9f0df257000ce28048,21,Mężczyzna,2022-06-10_12h58.38.107,task,2021.1.4,Win32,59.96282305,628b806c463b948bc644b84f,62a323d011e0f7a4aadae375,,,,,,,,,,,,,,,,,,,,,,,,,,,,,,,,,,,,,,,,,,,,,,,,,,,,,,,,,,,,,,,,,,,,,,,,,,,,,,,,,,,,,,,,,,,,,,,,,,,,,,,
,,"[""period""]",0,[0.2939000000357339],86,0,86,0,1,5e66bf9f0df257000ce28048,21,Mężczyzna,2022-06-10_12h58.38.107,task,2021.1.4,Win32,59.96282305,628b806c463b948bc644b84f,62a323d011e0f7a4aadae375,,,,,,,,,,,,,,,,,,,,,,,,,,,,,,,,,,,,,,,,,,,,,,,,,,,,,,,,,,,,,,,,,,,,,,,,,,,,,,,,,,,,,,,,,,,,,,,,,,,,,,,
,,"[""comma""]",0,[0.32879999995230946],87,0,87,0,1,5e66bf9f0df257000ce28048,21,Mężczyzna,2022-06-10_12h58.38.107,task,2021.1.4,Win32,59.96282305,628b806c463b948bc644b84f,62a323d011e0f7a4aadae375,,,,,,,,,,,,,,,,,,,,,,,,,,,,,,,,,,,,,,,,,,,,,,,,,,,,,,,,,,,,,,,,,,,,,,,,,,,,,,,,,,,,,,,,,,,,,,,,,,,,,,,
,,"[""comma""]",0,[0.367999999999995],88,0,88,0,1,5e66bf9f0df257000ce28048,21,Mężczyzna,2022-06-10_12h58.38.107,task,2021.1.4,Win32,59.96282305,628b806c463b948bc644b84f,62a323d011e0f7a4aadae375,,,,,,,,,,,,,,,,,,,,,,,,,,,,,,,,,,,,,,,,,,,,,,,,,,,,,,,,,,,,,,,,,,,,,,,,,,,,,,,,,,,,,,,,,,,,,,,,,,,,,,,
,,"[""period""]",0,[0.6580999999642358],89,0,89,0,1,5e66bf9f0df257000ce28048,21,Mężczyzna,2022-06-10_12h58.38.107,task,2021.1.4,Win32,59.96282305,628b806c463b948bc644b84f,62a323d011e0f7a4aadae375,,,,,,,,,,,,,,,,,,,,,,,,,,,,,,,,,,,,,,,,,,,,,,,,,,,,,,,,,,,,,,,,,,,,,,,,,,,,,,,,,,,,,,,,,,,,,,,,,,,,,,,
,,"[""comma""]",0,[0.367999999999995],90,0,90,0,1,5e66bf9f0df257000ce28048,21,Mężczyzna,2022-06-10_12h58.38.107,task,2021.1.4,Win32,59.96282305,628b806c463b948bc644b84f,62a323d011e0f7a4aadae375,,,,,,,,,,,,,,,,,,,,,,,,,,,,,,,,,,,,,,,,,,,,,,,,,,,,,,,,,,,,,,,,,,,,,,,,,,,,,,,,,,,,,,,,,,,,,,,,,,,,,,,
,,"[""period""]",0,[0.31749999999999545],91,0,91,0,1,5e66bf9f0df257000ce28048,21,Mężczyzna,2022-06-10_12h58.38.107,task,2021.1.4,Win32,59.96282305,628b806c463b948bc644b84f,62a323d011e0f7a4aadae375,,,,,,,,,,,,,,,,,,,,,,,,,,,,,,,,,,,,,,,,,,,,,,,,,,,,,,,,,,,,,,,,,,,,,,,,,,,,,,,,,,,,,,,,,,,,,,,,,,,,,,,
,,"[""comma""]",0,[0.3745999999642322],92,0,92,0,1,5e66bf9f0df257000ce28048,21,Mężczyzna,2022-06-10_12h58.38.107,task,2021.1.4,Win32,59.96282305,628b806c463b948bc644b84f,62a323d011e0f7a4aadae375,,,,,,,,,,,,,,,,,,,,,,,,,,,,,,,,,,,,,,,,,,,,,,,,,,,,,,,,,,,,,,,,,,,,,,,,,,,,,,,,,,,,,,,,,,,,,,,,,,,,,,,
,,"[""period""]",0,[0.6586999999880732],93,0,93,0,1,5e66bf9f0df257000ce28048,21,Mężczyzna,2022-06-10_12h58.38.107,task,2021.1.4,Win32,59.96282305,628b806c463b948bc644b84f,62a323d011e0f7a4aadae375,,,,,,,,,,,,,,,,,,,,,,,,,,,,,,,,,,,,,,,,,,,,,,,,,,,,,,,,,,,,,,,,,,,,,,,,,,,,,,,,,,,,,,,,,,,,,,,,,,,,,,,
,,"[""comma""]",0,[0.31090000003575824],94,0,94,0,1,5e66bf9f0df257000ce28048,21,Mężczyzna,2022-06-10_12h58.38.107,task,2021.1.4,Win32,59.96282305,628b806c463b948bc644b84f,62a323d011e0f7a4aadae375,,,,,,,,,,,,,,,,,,,,,,,,,,,,,,,,,,,,,,,,,,,,,,,,,,,,,,,,,,,,,,,,,,,,,,,,,,,,,,,,,,,,,,,,,,,,,,,,,,,,,,,
,,"[""period""]",0,[0.4426999999881218],95,0,95,0,1,5e66bf9f0df257000ce28048,21,Mężczyzna,2022-06-10_12h58.38.107,task,2021.1.4,Win32,59.96282305,628b806c463b948bc644b84f,62a323d011e0f7a4aadae375,,,,,,,,,,,,,,,,,,,,,,,,,,,,,,,,,,,,,,,,,,,,,,,,,,,,,,,,,,,,,,,,,,,,,,,,,,,,,,,,,,,,,,,,,,,,,,,,,,,,,,,
,,"[""comma""]",0,[0.3356999999880941],96,0,96,0,1,5e66bf9f0df257000ce28048,21,Mężczyzna,2022-06-10_12h58.38.107,task,2021.1.4,Win32,59.96282305,628b806c463b948bc644b84f,62a323d011e0f7a4aadae375,,,,,,,,,,,,,,,,,,,,,,,,,,,,,,,,,,,,,,,,,,,,,,,,,,,,,,,,,,,,,,,,,,,,,,,,,,,,,,,,,,,,,,,,,,,,,,,,,,,,,,,
,,"[""period""]",0,[0.4678999999761686],97,0,97,0,1,5e66bf9f0df257000ce28048,21,Mężczyzna,2022-06-10_12h58.38.107,task,2021.1.4,Win32,59.96282305,628b806c463b948bc644b84f,62a323d011e0f7a4aadae375,,,,,,,,,,,,,,,,,,,,,,,,,,,,,,,,,,,,,,,,,,,,,,,,,,,,,,,,,,,,,,,,,,,,,,,,,,,,,,,,,,,,,,,,,,,,,,,,,,,,,,,
,,"[""comma""]",0,[0.3528000000118823],98,0,98,0,1,5e66bf9f0df257000ce28048,21,Mężczyzna,2022-06-10_12h58.38.107,task,2021.1.4,Win32,59.96282305,628b806c463b948bc644b84f,62a323d011e0f7a4aadae375,,,,,,,,,,,,,,,,,,,,,,,,,,,,,,,,,,,,,,,,,,,,,,,,,,,,,,,,,,,,,,,,,,,,,,,,,,,,,,,,,,,,,,,,,,,,,,,,,,,,,,,
,,"[""period"",""comma""]",0,"[0.0273999999761827,1.9723999999761759]",99,0,99,0,1,5e66bf9f0df257000ce28048,21,Mężczyzna,2022-06-10_12h58.38.107,task,2021.1.4,Win32,59.96282305,628b806c463b948bc644b84f,62a323d011e0f7a4aadae375,,,,,,,,,,,,,,,,,,,,,,,,,,,,,,,,,,,,,,,,,,,,,,,,,,,,,,,,,,,,,,,,,,,,,,,,,,,,,,,,,,,,,,,,,,,,,,,,,,,,,,,
,,,0,,100,0,100,0,1,5e66bf9f0df257000ce28048,21,Mężczyzna,2022-06-10_12h58.38.107,task,2021.1.4,Win32,59.96282305,628b806c463b948bc644b84f,62a323d011e0f7a4aadae375,,,,,,,,,,,,,,,,,,,,,,,,,,,,,,,,,,,,,,,,,,,,,,,,,,,,,,,,,,,,,,,,,,,,,,,,,,,,,,,,,,,,,,,,,,,,,,,,,,,,,,,
,,"[""period""]",0,[0.2833999999761545],101,0,101,0,1,5e66bf9f0df257000ce28048,21,Mężczyzna,2022-06-10_12h58.38.107,task,2021.1.4,Win32,59.96282305,628b806c463b948bc644b84f,62a323d011e0f7a4aadae375,,,,,,,,,,,,,,,,,,,,,,,,,,,,,,,,,,,,,,,,,,,,,,,,,,,,,,,,,,,,,,,,,,,,,,,,,,,,,,,,,,,,,,,,,,,,,,,,,,,,,,,
,,"[""comma""]",0,[0.3286999999880891],102,0,102,0,1,5e66bf9f0df257000ce28048,21,Mężczyzna,2022-06-10_12h58.38.107,task,2021.1.4,Win32,59.96282305,628b806c463b948bc644b84f,62a323d011e0f7a4aadae375,,,,,,,,,,,,,,,,,,,,,,,,,,,,,,,,,,,,,,,,,,,,,,,,,,,,,,,,,,,,,,,,,,,,,,,,,,,,,,,,,,,,,,,,,,,,,,,,,,,,,,,
,,"[""comma""]",0,[0.3084000000357605],103,0,103,0,1,5e66bf9f0df257000ce28048,21,Mężczyzna,2022-06-10_12h58.38.107,task,2021.1.4,Win32,59.96282305,628b806c463b948bc644b84f,62a323d011e0f7a4aadae375,,,,,,,,,,,,,,,,,,,,,,,,,,,,,,,,,,,,,,,,,,,,,,,,,,,,,,,,,,,,,,,,,,,,,,,,,,,,,,,,,,,,,,,,,,,,,,,,,,,,,,,
,,"[""period""]",0,[0.07239999997614177],104,0,104,0,1,5e66bf9f0df257000ce28048,21,Mężczyzna,2022-06-10_12h58.38.107,task,2021.1.4,Win32,59.96282305,628b806c463b948bc644b84f,62a323d011e0f7a4aadae375,,,,,,,,,,,,,,,,,,,,,,,,,,,,,,,,,,,,,,,,,,,,,,,,,,,,,,,,,,,,,,,,,,,,,,,,,,,,,,,,,,,,,,,,,,,,,,,,,,,,,,,
,,"[""period""]",0,[0.2926000000238673],105,0,105,0,1,5e66bf9f0df257000ce28048,21,Mężczyzna,2022-06-10_12h58.38.107,task,2021.1.4,Win32,59.96282305,628b806c463b948bc644b84f,62a323d011e0f7a4aadae375,,,,,,,,,,,,,,,,,,,,,,,,,,,,,,,,,,,,,,,,,,,,,,,,,,,,,,,,,,,,,,,,,,,,,,,,,,,,,,,,,,,,,,,,,,,,,,,,,,,,,,,
,,"[""comma""]",0,[0.2511999999881027],106,0,106,0,1,5e66bf9f0df257000ce28048,21,Mężczyzna,2022-06-10_12h58.38.107,task,2021.1.4,Win32,59.96282305,628b806c463b948bc644b84f,62a323d011e0f7a4aadae375,,,,,,,,,,,,,,,,,,,,,,,,,,,,,,,,,,,,,,,,,,,,,,,,,,,,,,,,,,,,,,,,,,,,,,,,,,,,,,,,,,,,,,,,,,,,,,,,,,,,,,,
,,"[""period""]",0,[0.2848999999761759],107,0,107,0,1,5e66bf9f0df257000ce28048,21,Mężczyzna,2022-06-10_12h58.38.107,task,2021.1.4,Win32,59.96282305,628b806c463b948bc644b84f,62a323d011e0f7a4aadae375,,,,,,,,,,,,,,,,,,,,,,,,,,,,,,,,,,,,,,,,,,,,,,,,,,,,,,,,,,,,,,,,,,,,,,,,,,,,,,,,,,,,,,,,,,,,,,,,,,,,,,,
,,"[""comma""]",0,[0.2844000000357596],108,0,108,0,1,5e66bf9f0df257000ce28048,21,Mężczyzna,2022-06-10_12h58.38.107,task,2021.1.4,Win32,59.96282305,628b806c463b948bc644b84f,62a323d011e0f7a4aadae375,,,,,,,,,,,,,,,,,,,,,,,,,,,,,,,,,,,,,,,,,,,,,,,,,,,,,,,,,,,,,,,,,,,,,,,,,,,,,,,,,,,,,,,,,,,,,,,,,,,,,,,
,,"[""comma"",""comma"",""comma""]",0,"[0.25330000001190456,1.829499999999996,1.933999999999969]",109,0,109,0,1,5e66bf9f0df257000ce28048,21,Mężczyzna,2022-06-10_12h58.38.107,task,2021.1.4,Win32,59.96282305,628b806c463b948bc644b84f,62a323d011e0f7a4aadae375,,,,,,,,,,,,,,,,,,,,,,,,,,,,,,,,,,,,,,,,,,,,,,,,,,,,,,,,,,,,,,,,,,,,,,,,,,,,,,,,,,,,,,,,,,,,,,,,,,,,,,,
,,,0,,110,0,110,0,1,5e66bf9f0df257000ce28048,21,Mężczyzna,2022-06-10_12h58.38.107,task,2021.1.4,Win32,59.96282305,628b806c463b948bc644b84f,62a323d011e0f7a4aadae375,,,,,,,,,,,,,,,,,,,,,,,,,,,,,,,,,,,,,,,,,,,,,,,,,,,,,,,,,,,,,,,,,,,,,,,,,,,,,,,,,,,,,,,,,,,,,,,,,,,,,,,
,,"[""comma""]",0,[0.3025999999642295],111,0,111,0,1,5e66bf9f0df257000ce28048,21,Mężczyzna,2022-06-10_12h58.38.107,task,2021.1.4,Win32,59.96282305,628b806c463b948bc644b84f,62a323d011e0f7a4aadae375,,,,,,,,,,,,,,,,,,,,,,,,,,,,,,,,,,,,,,,,,,,,,,,,,,,,,,,,,,,,,,,,,,,,,,,,,,,,,,,,,,,,,,,,,,,,,,,,,,,,,,,
,,"[""period""]",0,[0.2740000000000009],112,0,112,0,1,5e66bf9f0df257000ce28048,21,Mężczyzna,2022-06-10_12h58.38.107,task,2021.1.4,Win32,59.96282305,628b806c463b948bc644b84f,62a323d011e0f7a4aadae375,,,,,,,,,,,,,,,,,,,,,,,,,,,,,,,,,,,,,,,,,,,,,,,,,,,,,,,,,,,,,,,,,,,,,,,,,,,,,,,,,,,,,,,,,,,,,,,,,,,,,,,
,,"[""comma""]",0,[0.2698999999761895],113,0,113,0,1,5e66bf9f0df257000ce28048,21,Mężczyzna,2022-06-10_12h58.38.107,task,2021.1.4,Win32,59.96282305,628b806c463b948bc644b84f,62a323d011e0f7a4aadae375,,,,,,,,,,,,,,,,,,,,,,,,,,,,,,,,,,,,,,,,,,,,,,,,,,,,,,,,,,,,,,,,,,,,,,,,,,,,,,,,,,,,,,,,,,,,,,,,,,,,,,,
,,"[""period""]",0,[0.3073999999761554],114,0,114,0,1,5e66bf9f0df257000ce28048,21,Mężczyzna,2022-06-10_12h58.38.107,task,2021.1.4,Win32,59.96282305,628b806c463b948bc644b84f,62a323d011e0f7a4aadae375,,,,,,,,,,,,,,,,,,,,,,,,,,,,,,,,,,,,,,,,,,,,,,,,,,,,,,,,,,,,,,,,,,,,,,,,,,,,,,,,,,,,,,,,,,,,,,,,,,,,,,,
,,"[""period""]",0,[0.2635999999642422],115,0,115,0,1,5e66bf9f0df257000ce28048,21,Mężczyzna,2022-06-10_12h58.38.107,task,2021.1.4,Win32,59.96282305,628b806c463b948bc644b84f,62a323d011e0f7a4aadae375,,,,,,,,,,,,,,,,,,,,,,,,,,,,,,,,,,,,,,,,,,,,,,,,,,,,,,,,,,,,,,,,,,,,,,,,,,,,,,,,,,,,,,,,,,,,,,,,,,,,,,,
,,"[""comma""]",0,[0.2750999999642545],116,0,116,0,1,5e66bf9f0df257000ce28048,21,Mężczyzna,2022-06-10_12h58.38.107,task,2021.1.4,Win32,59.96282305,628b806c463b948bc644b84f,62a323d011e0f7a4aadae375,,,,,,,,,,,,,,,,,,,,,,,,,,,,,,,,,,,,,,,,,,,,,,,,,,,,,,,,,,,,,,,,,,,,,,,,,,,,,,,,,,,,,,,,,,,,,,,,,,,,,,,
,,"[""period""]",0,[0.2791999999880659],117,0,117,0,1,5e66bf9f0df257000ce28048,21,Mężczyzna,2022-06-10_12h58.38.107,task,2021.1.4,Win32,59.96282305,628b806c463b948bc644b84f,62a323d011e0f7a4aadae375,,,,,,,,,,,,,,,,,,,,,,,,,,,,,,,,,,,,,,,,,,,,,,,,,,,,,,,,,,,,,,,,,,,,,,,,,,,,,,,,,,,,,,,,,,,,,,,,,,,,,,,
,,"[""period""]",0,[0.3813999999761677],118,0,118,0,1,5e66bf9f0df257000ce28048,21,Mężczyzna,2022-06-10_12h58.38.107,task,2021.1.4,Win32,59.96282305,628b806c463b948bc644b84f,62a323d011e0f7a4aadae375,,,,,,,,,,,,,,,,,,,,,,,,,,,,,,,,,,,,,,,,,,,,,,,,,,,,,,,,,,,,,,,,,,,,,,,,,,,,,,,,,,,,,,,,,,,,,,,,,,,,,,,
,,"[""comma""]",0,[0.3365000000000009],119,0,119,0,1,5e66bf9f0df257000ce28048,21,Mężczyzna,2022-06-10_12h58.38.107,task,2021.1.4,Win32,59.96282305,628b806c463b948bc644b84f,62a323d011e0f7a4aadae375,,,,,,,,,,,,,,,,,,,,,,,,,,,,,,,,,,,,,,,,,,,,,,,,,,,,,,,,,,,,,,,,,,,,,,,,,,,,,,,,,,,,,,,,,,,,,,,,,,,,,,,
,,,,,,,,,,5e66bf9f0df257000ce28048,21,Mężczyzna,2022-06-10_12h58.38.107,task,2021.1.4,Win32,59.96282305,628b806c463b948bc644b84f,62a323d011e0f7a4aadae375,space,15.0787,space,7.031,0,0,0,0,1,X V Q F H G B L J M P D K C T S W R N Z,,,,,,,,,,,,,,,,,,,,,,,,,,,,,,,,,,,,,,,,,,,,,,,,,,,,,,,,,,,,,,,,,,,,,,,,,,,,,,,,,,,,,,,,,,,,,
,,,,,,,,,,5e66bf9f0df257000ce28048,21,Mężczyzna,2022-06-10_12h58.38.107,task,2021.1.4,Win32,59.96282305,628b806c463b948bc644b84f,62a323d011e0f7a4aadae375,,,,,1,0,1,0,1,X V Q F H G B L J M P D K C T S W R N Z,,,,,,,,,,,,,,,,,,,,,,,,,,,,,,,,,,,,,,,,,,,,,,,,,,,,,,,,,,,,,,,,,,,,,,,,,,,,,,,,,,,,,,,,,,,,,
,,,,,,,,,,5e66bf9f0df257000ce28048,21,Mężczyzna,2022-06-10_12h58.38.107,task,2021.1.4,Win32,59.96282305,628b806c463b948bc644b84f,62a323d011e0f7a4aadae375,,,,,,,,,,,zx,"[""z"",""x""]","[1.2873000000118964,1.593899999976145,3.0303999999761686]",1,ZX,0,0,0,0,1,,,,,,,,,,,,,,,,,,,,,,,,,,,,,,,,,,,,,,,,,,,,,,,,,,,,,,,,,,,,,,,,,,,,,,,,,,,,,,,,,,,
,,,,,,,,,,5e66bf9f0df257000ce28048,21,Mężczyzna,2022-06-10_12h58.38.107,task,2021.1.4,Win32,59.96282305,628b806c463b948bc644b84f,62a323d011e0f7a4aadae375,,,,,0,0,0,0,1,X V Q F H G B L J M P D K C T S W R N Z,,,,,,,,,,,,,,,,,,,,,,,,,,,,,,,,,,,,,,,,,,,,,,,,,,,,,,,,,,,,,,,,,,,,,,,,,,,,,,,,,,,,,,,,,,,,,
,,,,,,,,,,5e66bf9f0df257000ce28048,21,Mężczyzna,2022-06-10_12h58.38.107,task,2021.1.4,Win32,59.96282305,628b806c463b948bc644b84f,62a323d011e0f7a4aadae375,,,,,1,0,1,0,1,X V Q F H G B L J M P D K C T S W R N Z,,,,,,,,,,,,,,,,,,,,,,,,,,,,,,,,,,,,,,,,,,,,,,,,,,,,,,,,,,,,,,,,,,,,,,,,,,,,,,,,,,,,,,,,,,,,,
,,,,,,,,,,5e66bf9f0df257000ce28048,21,Mężczyzna,2022-06-10_12h58.38.107,task,2021.1.4,Win32,59.96282305,628b806c463b948bc644b84f,62a323d011e0f7a4aadae375,,,,,,,,,,,kc,"[""k"",""c""]","[1.1626000000238719,1.36280000001193,1.686200000047677]",1,KC,1,0,1,0,1,,,,,,,,,,,,,,,,,,,,,,,,,,,,,,,,,,,,,,,,,,,,,,,,,,,,,,,,,,,,,,,,,,,,,,,,,,,,,,,,,,,
,,,,,,,,,,5e66bf9f0df257000ce28048,21,Mężczyzna,2022-06-10_12h58.38.107,task,2021.1.4,Win32,59.96282305,628b806c463b948bc644b84f,62a323d011e0f7a4aadae375,,,,,0,0,0,0,1,X V Q F H G B L J M P D K C T S W R N Z,,,,,,,,,,,,,,,,,,,,,,,,,,,,,,,,,,,,,,,,,,,,,,,,,,,,,,,,,,,,,,,,,,,,,,,,,,,,,,,,,,,,,,,,,,,,,
,,,,,,,,,,5e66bf9f0df257000ce28048,21,Mężczyzna,2022-06-10_12h58.38.107,task,2021.1.4,Win32,59.96282305,628b806c463b948bc644b84f,62a323d011e0f7a4aadae375,,,,,1,0,1,0,1,X V Q F H G B L J M P D K C T S W R N Z,,,,,,,,,,,,,,,,,,,,,,,,,,,,,,,,,,,,,,,,,,,,,,,,,,,,,,,,,,,,,,,,,,,,,,,,,,,,,,,,,,,,,,,,,,,,,
,,,,,,,,,,5e66bf9f0df257000ce28048,21,Mężczyzna,2022-06-10_12h58.38.107,task,2021.1.4,Win32,59.96282305,628b806c463b948bc644b84f,62a323d011e0f7a4aadae375,,,,,2,0,2,0,1,X V Q F H G B L J M P D K C T S W R N Z,,,,,,,,,,,,,,,,,,,,,,,,,,,,,,,,,,,,,,,,,,,,,,,,,,,,,,,,,,,,,,,,,,,,,,,,,,,,,,,,,,,,,,,,,,,,,
,,,,,,,,,,5e66bf9f0df257000ce28048,21,Mężczyzna,2022-06-10_12h58.38.107,task,2021.1.4,Win32,59.96282305,628b806c463b948bc644b84f,62a323d011e0f7a4aadae375,,,,,,,,,,,nms,"[""n"",""m"",""s""]","[0.4088000000119223,0.6650000000000205,0.9048000000119032,1.3691000000238205]",1,NMS,2,0,2,0,1,,,,,,,,,,,,,,,,,,,,,,,,,,,,,,,,,,,,,,,,,,,,,,,,,,,,,,,,,,,,,,,,,,,,,,,,,,,,,,,,,,,
,,,,,,,,,,5e66bf9f0df257000ce28048,21,Mężczyzna,2022-06-10_12h58.38.107,task,2021.1.4,Win32,59.96282305,628b806c463b948bc644b84f,62a323d011e0f7a4aadae375,,,,,0,0,0,0,1,X V Q F H G B L J M P D K C T S W R N Z,,,,,,,,,,,,,,,,,,,,,,,,,,,,,,,,,,,,,,,,,,,,,,,,,,,,,,,,,,,,,,,,,,,,,,,,,,,,,,,,,,,,,,,,,,,,,
,,,,,,,,,,5e66bf9f0df257000ce28048,21,Mężczyzna,2022-06-10_12h58.38.107,task,2021.1.4,Win32,59.96282305,628b806c463b948bc644b84f,62a323d011e0f7a4aadae375,,,,,1,0,1,0,1,X V Q F H G B L J M P D K C T S W R N Z,,,,,,,,,,,,,,,,,,,,,,,,,,,,,,,,,,,,,,,,,,,,,,,,,,,,,,,,,,,,,,,,,,,,,,,,,,,,,,,,,,,,,,,,,,,,,
,,,,,,,,,,5e66bf9f0df257000ce28048,21,Mężczyzna,2022-06-10_12h58.38.107,task,2021.1.4,Win32,59.96282305,628b806c463b948bc644b84f,62a323d011e0f7a4aadae375,,,,,2,0,2,0,1,X V Q F H G B L J M P D K C T S W R N Z,,,,,,,,,,,,,,,,,,,,,,,,,,,,,,,,,,,,,,,,,,,,,,,,,,,,,,,,,,,,,,,,,,,,,,,,,,,,,,,,,,,,,,,,,,,,,
,,,,,,,,,,5e66bf9f0df257000ce28048,21,Mężczyzna,2022-06-10_12h58.38.107,task,2021.1.4,Win32,59.96282305,628b806c463b948bc644b84f,62a323d011e0f7a4aadae375,,,,,,,,,,,pwt,"[""p"",""w"",""t""]","[0.45129999995231174,0.61099999999999,0.8350999999642568,1.027499999999975]",1,PWT,3,0,3,0,1,,,,,,,,,,,,,,,,,,,,,,,,,,,,,,,,,,,,,,,,,,,,,,,,,,,,,,,,,,,,,,,,,,,,,,,,,,,,,,,,,,,
,,,,,,,,,,5e66bf9f0df257000ce28048,21,Mężczyzna,2022-06-10_12h58.38.107,task,2021.1.4,Win32,59.96282305,628b806c463b948bc644b84f,62a323d011e0f7a4aadae375,,,,,0,0,0,0,1,X V Q F H G B L J M P D K C T S W R N Z,,,,,,,,,,,,,,,,,,,,,,,,,,,,,,,,,,,,,,,,,,,,,,,,,,,,,,,,,,,,,,,,,,,,,,,,,,,,,,,,,,,,,,,,,,,,,
,,,,,,,,,,5e66bf9f0df257000ce28048,21,Mężczyzna,2022-06-10_12h58.38.107,task,2021.1.4,Win32,59.96282305,628b806c463b948bc644b84f,62a323d011e0f7a4aadae375,,,,,1,0,1,0,1,X V Q F H G B L J M P D K C T S W R N Z,,,,,,,,,,,,,,,,,,,,,,,,,,,,,,,,,,,,,,,,,,,,,,,,,,,,,,,,,,,,,,,,,,,,,,,,,,,,,,,,,,,,,,,,,,,,,
,,,,,,,,,,5e66bf9f0df257000ce28048,21,Mężczyzna,2022-06-10_12h58.38.107,task,2021.1.4,Win32,59.96282305,628b806c463b948bc644b84f,62a323d011e0f7a4aadae375,,,,,2,0,2,0,1,X V Q F H G B L J M P D K C T S W R N Z,,,,,,,,,,,,,,,,,,,,,,,,,,,,,,,,,,,,,,,,,,,,,,,,,,,,,,,,,,,,,,,,,,,,,,,,,,,,,,,,,,,,,,,,,,,,,
,,,,,,,,,,5e66bf9f0df257000ce28048,21,Mężczyzna,2022-06-10_12h58.38.107,task,2021.1.4,Win32,59.96282305,628b806c463b948bc644b84f,62a323d011e0f7a4aadae375,,,,,3,0,3,0,1,X V Q F H G B L J M P D K C T S W R N Z,,,,,,,,,,,,,,,,,,,,,,,,,,,,,,,,,,,,,,,,,,,,,,,,,,,,,,,,,,,,,,,,,,,,,,,,,,,,,,,,,,,,,,,,,,,,,
,,,,,,,,,,5e66bf9f0df257000ce28048,21,Mężczyzna,2022-06-10_12h58.38.107,task,2021.1.4,Win32,59.96282305,628b806c463b948bc644b84f,62a323d011e0f7a4aadae375,,,,,,,,,,,mrgb,"[""m"",""r"",""g"",""b""]","[0.7853000000118868,1.084400000035771,1.4604000000357473,1.7488000000118973,2.244700000047658]",1,MRGB,4,0,4,0,1,,,,,,,,,,,,,,,,,,,,,,,,,,,,,,,,,,,,,,,,,,,,,,,,,,,,,,,,,,,,,,,,,,,,,,,,,,,,,,,,,,,
,,,,,,,,,,5e66bf9f0df257000ce28048,21,Mężczyzna,2022-06-10_12h58.38.107,task,2021.1.4,Win32,59.96282305,628b806c463b948bc644b84f,62a323d011e0f7a4aadae375,,,,,0,0,0,0,1,X V Q F H G B L J M P D K C T S W R N Z,,,,,,,,,,,,,,,,,,,,,,,,,,,,,,,,,,,,,,,,,,,,,,,,,,,,,,,,,,,,,,,,,,,,,,,,,,,,,,,,,,,,,,,,,,,,,
,,,,,,,,,,5e66bf9f0df257000ce28048,21,Mężczyzna,2022-06-10_12h58.38.107,task,2021.1.4,Win32,59.96282305,628b806c463b948bc644b84f,62a323d011e0f7a4aadae375,,,,,1,0,1,0,1,X V Q F H G B L J M P D K C T S W R N Z,,,,,,,,,,,,,,,,,,,,,,,,,,,,,,,,,,,,,,,,,,,,,,,,,,,,,,,,,,,,,,,,,,,,,,,,,,,,,,,,,,,,,,,,,,,,,
,,,,,,,,,,5e66bf9f0df257000ce28048,21,Mężczyzna,2022-06-10_12h58.38.107,task,2021.1.4,Win32,59.96282305,628b806c463b948bc644b84f,62a323d011e0f7a4aadae375,,,,,2,0,2,0,1,X V Q F H G B L J M P D K C T S W R N Z,,,,,,,,,,,,,,,,,,,,,,,,,,,,,,,,,,,,,,,,,,,,,,,,,,,,,,,,,,,,,,,,,,,,,,,,,,,,,,,,,,,,,,,,,,,,,
,,,,,,,,,,5e66bf9f0df257000ce28048,21,Mężczyzna,2022-06-10_12h58.38.107,task,2021.1.4,Win32,59.96282305,628b806c463b948bc644b84f,62a323d011e0f7a4aadae375,,,,,3,0,3,0,1,X V Q F H G B L J M P D K C T S W R N Z,,,,,,,,,,,,,,,,,,,,,,,,,,,,,,,,,,,,,,,,,,,,,,,,,,,,,,,,,,,,,,,,,,,,,,,,,,,,,,,,,,,,,,,,,,,,,
,,,,,,,,,,5e66bf9f0df257000ce28048,21,Mężczyzna,2022-06-10_12h58.38.107,task,2021.1.4,Win32,59.96282305,628b806c463b948bc644b84f,62a323d011e0f7a4aadae375,,,,,,,,,,,wlqn,"[""w"",""l"",""q"",""n""]","[0.7355000000000018,0.9488000000119428,1.1326000000238423,1.3032000000476955,1.7241000000238387]",1,WLQN,5,0,5,0,1,,,,,,,,,,,,,,,,,,,,,,,,,,,,,,,,,,,,,,,,,,,,,,,,,,,,,,,,,,,,,,,,,,,,,,,,,,,,,,,,,,,
,,,,,,,,,,5e66bf9f0df257000ce28048,21,Mężczyzna,2022-06-10_12h58.38.107,task,2021.1.4,Win32,59.96282305,628b806c463b948bc644b84f,62a323d011e0f7a4aadae375,,,,,0,0,0,0,1,X V Q F H G B L J M P D K C T S W R N Z,,,,,,,,,,,,,,,,,,,,,,,,,,,,,,,,,,,,,,,,,,,,,,,,,,,,,,,,,,,,,,,,,,,,,,,,,,,,,,,,,,,,,,,,,,,,,
,,,,,,,,,,5e66bf9f0df257000ce28048,21,Mężczyzna,2022-06-10_12h58.38.107,task,2021.1.4,Win32,59.96282305,628b806c463b948bc644b84f,62a323d011e0f7a4aadae375,,,,,1,0,1,0,1,X V Q F H G B L J M P D K C T S W R N Z,,,,,,,,,,,,,,,,,,,,,,,,,,,,,,,,,,,,,,,,,,,,,,,,,,,,,,,,,,,,,,,,,,,,,,,,,,,,,,,,,,,,,,,,,,,,,
,,,,,,,,,,5e66bf9f0df257000ce28048,21,Mężczyzna,2022-06-10_12h58.38.107,task,2021.1.4,Win32,59.96282305,628b806c463b948bc644b84f,62a323d011e0f7a4aadae375,,,,,2,0,2,0,1,X V Q F H G B L J M P D K C T S W R N Z,,,,,,,,,,,,,,,,,,,,,,,,,,,,,,,,,,,,,,,,,,,,,,,,,,,,,,,,,,,,,,,,,,,,,,,,,,,,,,,,,,,,,,,,,,,,,
,,,,,,,,,,5e66bf9f0df257000ce28048,21,Mężczyzna,2022-06-10_12h58.38.107,task,2021.1.4,Win32,59.96282305,628b806c463b948bc644b84f,62a323d011e0f7a4aadae375,,,,,3,0,3,0,1,X V Q F H G B L J M P D K C T S W R N Z,,,,,,,,,,,,,,,,,,,,,,,,,,,,,,,,,,,,,,,,,,,,,,,,,,,,,,,,,,,,,,,,,,,,,,,,,,,,,,,,,,,,,,,,,,,,,
,,,,,,,,,,5e66bf9f0df257000ce28048,21,Mężczyzna,2022-06-10_12h58.38.107,task,2021.1.4,Win32,59.96282305,628b806c463b948bc644b84f,62a323d011e0f7a4aadae375,,,,,4,0,4,0,1,X V Q F H G B L J M P D K C T S W R N Z,,,,,,,,,,,,,,,,,,,,,,,,,,,,,,,,,,,,,,,,,,,,,,,,,,,,,,,,,,,,,,,,,,,,,,,,,,,,,,,,,,,,,,,,,,,,,
,,,,,,,,,,5e66bf9f0df257000ce28048,21,Mężczyzna,2022-06-10_12h58.38.107,task,2021.1.4,Win32,59.96282305,628b806c463b948bc644b84f,62a323d011e0f7a4aadae375,,,,,,,,,,,xnlnj,"[""x"",""n"",""l"",""n"",""j""]","[2.8113999999761745,3.0350999999642454,3.4825999999642363,3.988199999988126,4.682800000011923,4.954899999976192]",1,XNLNJ,6,0,6,0,1,,,,,,,,,,,,,,,,,,,,,,,,,,,,,,,,,,,,,,,,,,,,,,,,,,,,,,,,,,,,,,,,,,,,,,,,,,,,,,,,,,,
,,,,,,,,,,5e66bf9f0df257000ce28048,21,Mężczyzna,2022-06-10_12h58.38.107,task,2021.1.4,Win32,59.96282305,628b806c463b948bc644b84f,62a323d011e0f7a4aadae375,,,,,0,0,0,0,1,X V Q F H G B L J M P D K C T S W R N Z,,,,,,,,,,,,,,,,,,,,,,,,,,,,,,,,,,,,,,,,,,,,,,,,,,,,,,,,,,,,,,,,,,,,,,,,,,,,,,,,,,,,,,,,,,,,,
,,,,,,,,,,5e66bf9f0df257000ce28048,21,Mężczyzna,2022-06-10_12h58.38.107,task,2021.1.4,Win32,59.96282305,628b806c463b948bc644b84f,62a323d011e0f7a4aadae375,,,,,1,0,1,0,1,X V Q F H G B L J M P D K C T S W R N Z,,,,,,,,,,,,,,,,,,,,,,,,,,,,,,,,,,,,,,,,,,,,,,,,,,,,,,,,,,,,,,,,,,,,,,,,,,,,,,,,,,,,,,,,,,,,,
,,,,,,,,,,5e66bf9f0df257000ce28048,21,Mężczyzna,2022-06-10_12h58.38.107,task,2021.1.4,Win32,59.96282305,628b806c463b948bc644b84f,62a323d011e0f7a4aadae375,,,,,2,0,2,0,1,X V Q F H G B L J M P D K C T S W R N Z,,,,,,,,,,,,,,,,,,,,,,,,,,,,,,,,,,,,,,,,,,,,,,,,,,,,,,,,,,,,,,,,,,,,,,,,,,,,,,,,,,,,,,,,,,,,,
,,,,,,,,,,5e66bf9f0df257000ce28048,21,Mężczyzna,2022-06-10_12h58.38.107,task,2021.1.4,Win32,59.96282305,628b806c463b948bc644b84f,62a323d011e0f7a4aadae375,,,,,3,0,3,0,1,X V Q F H G B L J M P D K C T S W R N Z,,,,,,,,,,,,,,,,,,,,,,,,,,,,,,,,,,,,,,,,,,,,,,,,,,,,,,,,,,,,,,,,,,,,,,,,,,,,,,,,,,,,,,,,,,,,,
,,,,,,,,,,5e66bf9f0df257000ce28048,21,Mężczyzna,2022-06-10_12h58.38.107,task,2021.1.4,Win32,59.96282305,628b806c463b948bc644b84f,62a323d011e0f7a4aadae375,,,,,4,0,4,0,1,X V Q F H G B L J M P D K C T S W R N Z,,,,,,,,,,,,,,,,,,,,,,,,,,,,,,,,,,,,,,,,,,,,,,,,,,,,,,,,,,,,,,,,,,,,,,,,,,,,,,,,,,,,,,,,,,,,,
,,,,,,,,,,5e66bf9f0df257000ce28048,21,Mężczyzna,2022-06-10_12h58.38.107,task,2021.1.4,Win32,59.96282305,628b806c463b948bc644b84f,62a323d011e0f7a4aadae375,,,,,,,,,,,xssmn,"[""x"",""s"",""s"",""m"",""n""]","[1.1059999999999945,1.5615000000000236,2.1133999999761954,2.713599999964231,3.017399999976192,3.393399999976168]",0,XSSMF,7,0,7,0,1,,,,,,,,,,,,,,,,,,,,,,,,,,,,,,,,,,,,,,,,,,,,,,,,,,,,,,,,,,,,,,,,,,,,,,,,,,,,,,,,,,,
,,,,,,,,,,5e66bf9f0df257000ce28048,21,Mężczyzna,2022-06-10_12h58.38.107,task,2021.1.4,Win32,59.96282305,628b806c463b948bc644b84f,62a323d011e0f7a4aadae375,,,,,0,0,0,0,1,X V Q F H G B L J M P D K C T S W R N Z,,,,,,,,,,,,,,,,,,,,,,,,,,,,,,,,,,,,,,,,,,,,,,,,,,,,,,,,,,,,,,,,,,,,,,,,,,,,,,,,,,,,,,,,,,,,,
,,,,,,,,,,5e66bf9f0df257000ce28048,21,Mężczyzna,2022-06-10_12h58.38.107,task,2021.1.4,Win32,59.96282305,628b806c463b948bc644b84f,62a323d011e0f7a4aadae375,,,,,1,0,1,0,1,X V Q F H G B L J M P D K C T S W R N Z,,,,,,,,,,,,,,,,,,,,,,,,,,,,,,,,,,,,,,,,,,,,,,,,,,,,,,,,,,,,,,,,,,,,,,,,,,,,,,,,,,,,,,,,,,,,,
,,,,,,,,,,5e66bf9f0df257000ce28048,21,Mężczyzna,2022-06-10_12h58.38.107,task,2021.1.4,Win32,59.96282305,628b806c463b948bc644b84f,62a323d011e0f7a4aadae375,,,,,2,0,2,0,1,X V Q F H G B L J M P D K C T S W R N Z,,,,,,,,,,,,,,,,,,,,,,,,,,,,,,,,,,,,,,,,,,,,,,,,,,,,,,,,,,,,,,,,,,,,,,,,,,,,,,,,,,,,,,,,,,,,,
,,,,,,,,,,5e66bf9f0df257000ce28048,21,Mężczyzna,2022-06-10_12h58.38.107,task,2021.1.4,Win32,59.96282305,628b806c463b948bc644b84f,62a323d011e0f7a4aadae375,,,,,3,0,3,0,1,X V Q F H G B L J M P D K C T S W R N Z,,,,,,,,,,,,,,,,,,,,,,,,,,,,,,,,,,,,,,,,,,,,,,,,,,,,,,,,,,,,,,,,,,,,,,,,,,,,,,,,,,,,,,,,,,,,,
,,,,,,,,,,5e66bf9f0df257000ce28048,21,Mężczyzna,2022-06-10_12h58.38.107,task,2021.1.4,Win32,59.96282305,628b806c463b948bc644b84f,62a323d011e0f7a4aadae375,,,,,4,0,4,0,1,X V Q F H G B L J M P D K C T S W R N Z,,,,,,,,,,,,,,,,,,,,,,,,,,,,,,,,,,,,,,,,,,,,,,,,,,,,,,,,,,,,,,,,,,,,,,,,,,,,,,,,,,,,,,,,,,,,,
,,,,,,,,,,5e66bf9f0df257000ce28048,21,Mężczyzna,2022-06-10_12h58.38.107,task,2021.1.4,Win32,59.96282305,628b806c463b948bc644b84f,62a323d011e0f7a4aadae375,,,,,,,,,,,tcnfd,"[""t"",""c"",""n"",""f"",""d""]","[1.0420999999642504,1.4907999999522872,1.802799999952299,2.914299999952277,3.2021999999880677,3.649899999976128]",1,TCNFD,8,0,8,0,1,,,,,,,,,,,,,,,,,,,,,,,,,,,,,,,,,,,,,,,,,,,,,,,,,,,,,,,,,,,,,,,,,,,,,,,,,,,,,,,,,,,
,,,,,,,,,,5e66bf9f0df257000ce28048,21,Mężczyzna,2022-06-10_12h58.38.107,task,2021.1.4,Win32,59.96282305,628b806c463b948bc644b84f,62a323d011e0f7a4aadae375,,,,,0,0,0,0,1,X V Q F H G B L J M P D K C T S W R N Z,,,,,,,,,,,,,,,,,,,,,,,,,,,,,,,,,,,,,,,,,,,,,,,,,,,,,,,,,,,,,,,,,,,,,,,,,,,,,,,,,,,,,,,,,,,,,
,,,,,,,,,,5e66bf9f0df257000ce28048,21,Mężczyzna,2022-06-10_12h58.38.107,task,2021.1.4,Win32,59.96282305,628b806c463b948bc644b84f,62a323d011e0f7a4aadae375,,,,,1,0,1,0,1,X V Q F H G B L J M P D K C T S W R N Z,,,,,,,,,,,,,,,,,,,,,,,,,,,,,,,,,,,,,,,,,,,,,,,,,,,,,,,,,,,,,,,,,,,,,,,,,,,,,,,,,,,,,,,,,,,,,
,,,,,,,,,,5e66bf9f0df257000ce28048,21,Mężczyzna,2022-06-10_12h58.38.107,task,2021.1.4,Win32,59.96282305,628b806c463b948bc644b84f,62a323d011e0f7a4aadae375,,,,,2,0,2,0,1,X V Q F H G B L J M P D K C T S W R N Z,,,,,,,,,,,,,,,,,,,,,,,,,,,,,,,,,,,,,,,,,,,,,,,,,,,,,,,,,,,,,,,,,,,,,,,,,,,,,,,,,,,,,,,,,,,,,
,,,,,,,,,,5e66bf9f0df257000ce28048,21,Mężczyzna,2022-06-10_12h58.38.107,task,2021.1.4,Win32,59.96282305,628b806c463b948bc644b84f,62a323d011e0f7a4aadae375,,,,,3,0,3,0,1,X V Q F H G B L J M P D K C T S W R N Z,,,,,,,,,,,,,,,,,,,,,,,,,,,,,,,,,,,,,,,,,,,,,,,,,,,,,,,,,,,,,,,,,,,,,,,,,,,,,,,,,,,,,,,,,,,,,
,,,,,,,,,,5e66bf9f0df257000ce28048,21,Mężczyzna,2022-06-10_12h58.38.107,task,2021.1.4,Win32,59.96282305,628b806c463b948bc644b84f,62a323d011e0f7a4aadae375,,,,,4,0,4,0,1,X V Q F H G B L J M P D K C T S W R N Z,,,,,,,,,,,,,,,,,,,,,,,,,,,,,,,,,,,,,,,,,,,,,,,,,,,,,,,,,,,,,,,,,,,,,,,,,,,,,,,,,,,,,,,,,,,,,
,,,,,,,,,,5e66bf9f0df257000ce28048,21,Mężczyzna,2022-06-10_12h58.38.107,task,2021.1.4,Win32,59.96282305,628b806c463b948bc644b84f,62a323d011e0f7a4aadae375,,,,,5,0,5,0,1,X V Q F H G B L J M P D K C T S W R N Z,,,,,,,,,,,,,,,,,,,,,,,,,,,,,,,,,,,,,,,,,,,,,,,,,,,,,,,,,,,,,,,,,,,,,,,,,,,,,,,,,,,,,,,,,,,,,
,,,,,,,,,,5e66bf9f0df257000ce28048,21,Mężczyzna,2022-06-10_12h58.38.107,task,2021.1.4,Win32,59.96282305,628b806c463b948bc644b84f,62a323d011e0f7a4aadae375,,,,,,,,,,,rtvng,"[""r"",""t"",""v"",""n"",""g""]","[0.9383999999761841,1.8030999999642177,3.1142999999523227,3.4745000000000346,3.802000000000021,4.313699999988103]",0,RTNVGM,9,0,9,0,1,,,,,,,,,,,,,,,,,,,,,,,,,,,,,,,,,,,,,,,,,,,,,,,,,,,,,,,,,,,,,,,,,,,,,,,,,,,,,,,,,,,
,,,,,,,,,,5e66bf9f0df257000ce28048,21,Mężczyzna,2022-06-10_12h58.38.107,task,2021.1.4,Win32,59.96282305,628b806c463b948bc644b84f,62a323d011e0f7a4aadae375,,,,,0,0,0,0,1,X V Q F H G B L J M P D K C T S W R N Z,,,,,,,,,,,,,,,,,,,,,,,,,,,,,,,,,,,,,,,,,,,,,,,,,,,,,,,,,,,,,,,,,,,,,,,,,,,,,,,,,,,,,,,,,,,,,
,,,,,,,,,,5e66bf9f0df257000ce28048,21,Mężczyzna,2022-06-10_12h58.38.107,task,2021.1.4,Win32,59.96282305,628b806c463b948bc644b84f,62a323d011e0f7a4aadae375,,,,,1,0,1,0,1,X V Q F H G B L J M P D K C T S W R N Z,,,,,,,,,,,,,,,,,,,,,,,,,,,,,,,,,,,,,,,,,,,,,,,,,,,,,,,,,,,,,,,,,,,,,,,,,,,,,,,,,,,,,,,,,,,,,
,,,,,,,,,,5e66bf9f0df257000ce28048,21,Mężczyzna,2022-06-10_12h58.38.107,task,2021.1.4,Win32,59.96282305,628b806c463b948bc644b84f,62a323d011e0f7a4aadae375,,,,,2,0,2,0,1,X V Q F H G B L J M P D K C T S W R N Z,,,,,,,,,,,,,,,,,,,,,,,,,,,,,,,,,,,,,,,,,,,,,,,,,,,,,,,,,,,,,,,,,,,,,,,,,,,,,,,,,,,,,,,,,,,,,
,,,,,,,,,,5e66bf9f0df257000ce28048,21,Mężczyzna,2022-06-10_12h58.38.107,task,2021.1.4,Win32,59.96282305,628b806c463b948bc644b84f,62a323d011e0f7a4aadae375,,,,,3,0,3,0,1,X V Q F H G B L J M P D K C T S W R N Z,,,,,,,,,,,,,,,,,,,,,,,,,,,,,,,,,,,,,,,,,,,,,,,,,,,,,,,,,,,,,,,,,,,,,,,,,,,,,,,,,,,,,,,,,,,,,
,,,,,,,,,,5e66bf9f0df257000ce28048,21,Mężczyzna,2022-06-10_12h58.38.107,task,2021.1.4,Win32,59.96282305,628b806c463b948bc644b84f,62a323d011e0f7a4aadae375,,,,,4,0,4,0,1,X V Q F H G B L J M P D K C T S W R N Z,,,,,,,,,,,,,,,,,,,,,,,,,,,,,,,,,,,,,,,,,,,,,,,,,,,,,,,,,,,,,,,,,,,,,,,,,,,,,,,,,,,,,,,,,,,,,
,,,,,,,,,,5e66bf9f0df257000ce28048,21,Mężczyzna,2022-06-10_12h58.38.107,task,2021.1.4,Win32,59.96282305,628b806c463b948bc644b84f,62a323d011e0f7a4aadae375,,,,,5,0,5,0,1,X V Q F H G B L J M P D K C T S W R N Z,,,,,,,,,,,,,,,,,,,,,,,,,,,,,,,,,,,,,,,,,,,,,,,,,,,,,,,,,,,,,,,,,,,,,,,,,,,,,,,,,,,,,,,,,,,,,
,,,,,,,,,,5e66bf9f0df257000ce28048,21,Mężczyzna,2022-06-10_12h58.38.107,task,2021.1.4,Win32,59.96282305,628b806c463b948bc644b84f,62a323d011e0f7a4aadae375,,,,,,,,,,,wbhvfn,"[""w"",""b"",""h"",""v"",""f"",""n""]","[0.7843000000119673,1.31819999998811,1.8598000000119441,5.05210000002387,5.284000000000049,7.059800000011933,8.035900000035781]",0,WBHWVT,10,0,10,0,1,,,,,,,,,,,,,,,,,,,,,,,,,,,,,,,,,,,,,,,,,,,,,,,,,,,,,,,,,,,,,,,,,,,,,,,,,,,,,,,,,,,
,,,,,,,,,,5e66bf9f0df257000ce28048,21,Mężczyzna,2022-06-10_12h58.38.107,task,2021.1.4,Win32,59.96282305,628b806c463b948bc644b84f,62a323d011e0f7a4aadae375,,,,,0,0,0,0,1,X V Q F H G B L J M P D K C T S W R N Z,,,,,,,,,,,,,,,,,,,,,,,,,,,,,,,,,,,,,,,,,,,,,,,,,,,,,,,,,,,,,,,,,,,,,,,,,,,,,,,,,,,,,,,,,,,,,
,,,,,,,,,,5e66bf9f0df257000ce28048,21,Mężczyzna,2022-06-10_12h58.38.107,task,2021.1.4,Win32,59.96282305,628b806c463b948bc644b84f,62a323d011e0f7a4aadae375,,,,,1,0,1,0,1,X V Q F H G B L J M P D K C T S W R N Z,,,,,,,,,,,,,,,,,,,,,,,,,,,,,,,,,,,,,,,,,,,,,,,,,,,,,,,,,,,,,,,,,,,,,,,,,,,,,,,,,,,,,,,,,,,,,
,,,,,,,,,,5e66bf9f0df257000ce28048,21,Mężczyzna,2022-06-10_12h58.38.107,task,2021.1.4,Win32,59.96282305,628b806c463b948bc644b84f,62a323d011e0f7a4aadae375,,,,,2,0,2,0,1,X V Q F H G B L J M P D K C T S W R N Z,,,,,,,,,,,,,,,,,,,,,,,,,,,,,,,,,,,,,,,,,,,,,,,,,,,,,,,,,,,,,,,,,,,,,,,,,,,,,,,,,,,,,,,,,,,,,
,,,,,,,,,,5e66bf9f0df257000ce28048,21,Mężczyzna,2022-06-10_12h58.38.107,task,2021.1.4,Win32,59.96282305,628b806c463b948bc644b84f,62a323d011e0f7a4aadae375,,,,,3,0,3,0,1,X V Q F H G B L J M P D K C T S W R N Z,,,,,,,,,,,,,,,,,,,,,,,,,,,,,,,,,,,,,,,,,,,,,,,,,,,,,,,,,,,,,,,,,,,,,,,,,,,,,,,,,,,,,,,,,,,,,
,,,,,,,,,,5e66bf9f0df257000ce28048,21,Mężczyzna,2022-06-10_12h58.38.107,task,2021.1.4,Win32,59.96282305,628b806c463b948bc644b84f,62a323d011e0f7a4aadae375,,,,,4,0,4,0,1,X V Q F H G B L J M P D K C T S W R N Z,,,,,,,,,,,,,,,,,,,,,,,,,,,,,,,,,,,,,,,,,,,,,,,,,,,,,,,,,,,,,,,,,,,,,,,,,,,,,,,,,,,,,,,,,,,,,
,,,,,,,,,,5e66bf9f0df257000ce28048,21,Mężczyzna,2022-06-10_12h58.38.107,task,2021.1.4,Win32,59.96282305,628b806c463b948bc644b84f,62a323d011e0f7a4aadae375,,,,,5,0,5,0,1,X V Q F H G B L J M P D K C T S W R N Z,,,,,,,,,,,,,,,,,,,,,,,,,,,,,,,,,,,,,,,,,,,,,,,,,,,,,,,,,,,,,,,,,,,,,,,,,,,,,,,,,,,,,,,,,,,,,
,,,,,,,,,,5e66bf9f0df257000ce28048,21,Mężczyzna,2022-06-10_12h58.38.107,task,2021.1.4,Win32,59.96282305,628b806c463b948bc644b84f,62a323d011e0f7a4aadae375,,,,,,,,,,,kvchf,"[""k"",""v"",""c"",""h"",""f""]","[1.339600000023836,1.9158000000119273,2.316500000000019,2.6913000000119496,3.206300000011936,4.683100000023842]",0,KVHWCH,11,0,11,0,1,,,,,,,,,,,,,,,,,,,,,,,,,,,,,,,,,,,,,,,,,,,,,,,,,,,,,,,,,,,,,,,,,,,,,,,,,,,,,,,,,,,
,,,,,,,,,,5e66bf9f0df257000ce28048,21,Mężczyzna,2022-06-10_12h58.38.107,task,2021.1.4,Win32,59.96282305,628b806c463b948bc644b84f,62a323d011e0f7a4aadae375,,,,,,,,,,,,,,,,,,,,,space,7.2497,1,"[""1""]",1,[5.2934999999999945],[5.2934999999999945],0,0,0,1,1,Practice,2,(4x4) - 15,1,,,,,,,,,,,,,,,,,,,,,,,,,,,,,,,,,,,,,,,,,,,,,,,,,,,,,,,,,,,,,,,,,,,
,,,,,,,,,,5e66bf9f0df257000ce28048,21,Mężczyzna,2022-06-10_12h58.38.107,task,2021.1.4,Win32,59.96282305,628b806c463b948bc644b84f,62a323d011e0f7a4aadae375,,,,,,,,,,,,,,,,,,,,,,,8,"[""8""]",1,[2.184100000023875],"[5.2934999999999945,2.184100000023875]",0,1,1,8,1,Practice,9,(3x3) - 1,8,,,,,,,,,,,,,,,,,,,,,,,,,,,,,,,,,,,,,,,,,,,,,,,,,,,,,,,,,,,,,,,,,,,
,,,,,,,,,,5e66bf9f0df257000ce28048,21,Mężczyzna,2022-06-10_12h58.38.107,task,2021.1.4,Win32,59.96282305,628b806c463b948bc644b84f,62a323d011e0f7a4aadae375,,,,,,,,,,,,,,,,,,,,,,,5,"[""5""]",1,[1.9208000000119227],"[5.2934999999999945,2.184100000023875,1.9208000000119227]",0,2,2,5,1,Practice,6,(4/2) + 3,5,,,,,,,,,,,,,,,,,,,,,,,,,,,,,,,,,,,,,,,,,,,,,,,,,,,,,,,,,,,,,,,,,,,
,,,,,,,,,,5e66bf9f0df257000ce28048,21,Mężczyzna,2022-06-10_12h58.38.107,task,2021.1.4,Win32,59.96282305,628b806c463b948bc644b84f,62a323d011e0f7a4aadae375,,,,,,,,,,,,,,,,,,,,,,,9,"[""9""]",1,[2.266600000023857],"[5.2934999999999945,2.184100000023875,1.9208000000119227,2.266600000023857]",0,3,3,9,1,Practice,10,(20/2) - 1,9,,,,,,,,,,,,,,,,,,,,,,,,,,,,,,,,,,,,,,,,,,,,,,,,,,,,,,,,,,,,,,,,,,,
,,,,,,,,,,5e66bf9f0df257000ce28048,21,Mężczyzna,2022-06-10_12h58.38.107,task,2021.1.4,Win32,59.96282305,628b806c463b948bc644b84f,62a323d011e0f7a4aadae375,,,,,,,,,,,,,,,,,,,,,,,3,"[""3""]",1,[1.7754999999999654],"[5.2934999999999945,2.184100000023875,1.9208000000119227,2.266600000023857,1.7754999999999654]",0,4,4,3,1,Practice,4,(8/4) + 1,3,,,,,,,,,,,,,,,,,,,,,,,,,,,,,,,,,,,,,,,,,,,,,,,,,,,,,,,,,,,,,,,,,,,
,,,,,,,,,,5e66bf9f0df257000ce28048,21,Mężczyzna,2022-06-10_12h58.38.107,task,2021.1.4,Win32,59.96282305,628b806c463b948bc644b84f,62a323d011e0f7a4aadae375,,,,,,,,,,,,,,,,,,,,,,,6,"[""6""]",1,[3.0901999999880445],"[5.2934999999999945,2.184100000023875,1.9208000000119227,2.266600000023857,1.7754999999999654,3.0901999999880445]",0,5,5,6,1,Practice,7,(25/5) + 1,6,,,,,,,,,,,,,,,,,,,,,,,,,,,,,,,,,,,,,,,,,,,,,,,,,,,,,,,,,,,,,,,,,,,
,,,,,,,,,,5e66bf9f0df257000ce28048,21,Mężczyzna,2022-06-10_12h58.38.107,task,2021.1.4,Win32,59.96282305,628b806c463b948bc644b84f,62a323d011e0f7a4aadae375,,,,,,,,,,,,,,,,,,,,,,,7,"[""7""]",1,[5.377499999999998],"[5.2934999999999945,2.184100000023875,1.9208000000119227,2.266600000023857,1.7754999999999654,3.0901999999880445,5.377499999999998]",0,6,6,7,1,Practice,8,(5x5) - 18,7,,,,,,,,,,,,,,,,,,,,,,,,,,,,,,,,,,,,,,,,,,,,,,,,,,,,,,,,,,,,,,,,,,,
,,,,,,,,,,5e66bf9f0df257000ce28048,21,Mężczyzna,2022-06-10_12h58.38.107,task,2021.1.4,Win32,59.96282305,628b806c463b948bc644b84f,62a323d011e0f7a4aadae375,,,,,,,,,,,,,,,,,,,,,,,2,"[""2""]",1,[1.6238999999761177],"[5.2934999999999945,2.184100000023875,1.9208000000119227,2.266600000023857,1.7754999999999654,3.0901999999880445,5.377499999999998,1.6238999999761177]",0,7,7,2,1,Practice,3,(4x4) - 14,2,,,,,,,,,,,,,,,,,,,,,,,,,,,,,,,,,,,,,,,,,,,,,,,,,,,,,,,,,,,,,,,,,,,
,,,,,,,,,,5e66bf9f0df257000ce28048,21,Mężczyzna,2022-06-10_12h58.38.107,task,2021.1.4,Win32,59.96282305,628b806c463b948bc644b84f,62a323d011e0f7a4aadae375,,,,,,,,,,,,,,,,,,,,,,,0,"[""0""]",1,[1.7058000000119478],"[5.2934999999999945,2.184100000023875,1.9208000000119227,2.266600000023857,1.7754999999999654,3.0901999999880445,5.377499999999998,1.6238999999761177,1.7058000000119478]",0,8,8,0,1,Practice,1,(3x3) -  9,0,,,,,,,,,,,,,,,,,,,,,,,,,,,,,,,,,,,,,,,,,,,,,,,,,,,,,,,,,,,,,,,,,,,
,,,,,,,,,,5e66bf9f0df257000ce28048,21,Mężczyzna,2022-06-10_12h58.38.107,task,2021.1.4,Win32,59.96282305,628b806c463b948bc644b84f,62a323d011e0f7a4aadae375,,,,,,,,,,,,,,,,,,,,,,,4,"[""4""]",1,[3.962899999976173],"[5.2934999999999945,2.184100000023875,1.9208000000119227,2.266600000023857,1.7754999999999654,3.0901999999880445,5.377499999999998,1.6238999999761177,1.7058000000119478,3.962899999976173]",0,9,9,4,1,Practice,5,(2x6) - 8,4,,,,,,,,,,,,,,,,,,,,,,,,,,,,,,,,,,,,,,,,,,,,,,,,,,,,,,,,,,,,,,,,,,,
,,,,,,,,,,5e66bf9f0df257000ce28048,21,Mężczyzna,2022-06-10_12h58.38.107,task,2021.1.4,Win32,59.96282305,628b806c463b948bc644b84f,62a323d011e0f7a4aadae375,,,,,,,,,,,,,,,,,,,,,,,,,,,,,,,,,,,,,1,29.2008,1.94672,28.69463189,1.383103561,5.515127186,space,1.7382,0,0,0,0,1,,,,,,,,,,,,,,,,,,,,,,,,,,,,,,,,,,,,,,,,,,,,,,,,,,,,,,
,,,,,,,,,,5e66bf9f0df257000ce28048,21,Mężczyzna,2022-06-10_12h58.38.107,task,2021.1.4,Win32,59.96282305,628b806c463b948bc644b84f,62a323d011e0f7a4aadae375,,,,,,,,,,,,,,,,,,,,,,,,,,,,,,,,,Practice,8,(5x5) - 18,7,,,,,,,,,,,,,,space,15.7649,,0,0,0,0,0,7,1,,,,,,,,,,,,,,,,,,,,,,,,,,,,,,,,,,,,,,,,,,,,
,,,,,,,,,,5e66bf9f0df257000ce28048,21,Mężczyzna,2022-06-10_12h58.38.107,task,2021.1.4,Win32,59.96282305,628b806c463b948bc644b84f,62a323d011e0f7a4aadae375,,,,,,,,,,,,,,,,,,,,,,,0,,,,,,,,,,Practice,1,(3x3) -  9,0,,,,,,,,,,,,,,,,"[""0""]",1,1,0,1,1,0,1,[1.7611000000238164],,,,,,,,,,,,,,,,,,,,,,,,,,,,,,,,,,,,,,,,,,,
,,,,,,,,,,5e66bf9f0df257000ce28048,21,Mężczyzna,2022-06-10_12h58.38.107,task,2021.1.4,Win32,59.96282305,628b806c463b948bc644b84f,62a323d011e0f7a4aadae375,,,,,,,,,,X V Q F H G B L J M P D K C T S W R N Z,,,,,,,,,,,,,,,,,,,,,,,,,,,,,,,,,,,,,,,,,,,,,,,,,,,0,0,0,0,1,,,,,,,,,,,,,,,,,,,,,,,,,,,,,,,,,,,,,,
,,,,,,,,,,5e66bf9f0df257000ce28048,21,Mężczyzna,2022-06-10_12h58.38.107,task,2021.1.4,Win32,59.96282305,628b806c463b948bc644b84f,62a323d011e0f7a4aadae375,,,,,,,,,,,,,,,,,,,,,,,9,,,,,,,,,,Practice,10,(20/2) - 1,9,,,,,,,,,,,,,,,,"[""9""]",1,1,0,0,0,9,1,[1.7975999999642909],,,,,,,,,,,,,,,,,,,,,,,,,,,,,,,,,,,,,,,,,,,
,,,,,,,,,,5e66bf9f0df257000ce28048,21,Mężczyzna,2022-06-10_12h58.38.107,task,2021.1.4,Win32,59.96282305,628b806c463b948bc644b84f,62a323d011e0f7a4aadae375,,,,,,,,,,X V Q F H G B L J M P D K C T S W R N Z,,,,,,,,,,,,,,,,,,,,,,,,,,,,,,,,,,,,,,,,,,,,,,,,,,,1,0,1,0,1,,,,,,,,,,,,,,,,,,,,,,,,,,,,,,,,,,,,,,
,,,,,,,,,,5e66bf9f0df257000ce28048,21,Mężczyzna,2022-06-10_12h58.38.107,task,2021.1.4,Win32,59.96282305,628b806c463b948bc644b84f,62a323d011e0f7a4aadae375,,,,,,,,,,,,,,,,,,,,,,,,,,,,,,,,,,,,,,,,,,,,,,,,,,,,,,,,,,,,,,,,,,zf,"[""z"",""f""]",0,"[2.3220000000000027,2.609499999999912,3.018599999964181]",1,0,0,0,0,1,,,,,,,,,,,,,,,,,,,,,,,,,,,,
,,,,,,,,,,5e66bf9f0df257000ce28048,21,Mężczyzna,2022-06-10_12h58.38.107,task,2021.1.4,Win32,59.96282305,628b806c463b948bc644b84f,62a323d011e0f7a4aadae375,,,,,,,,,,,,,,,,,,,,,,,8,,,,,,,,,,Practice,9,(3x3) - 1,8,,,,,,,,,,,,,,,,"[""8""]",1,1,0,0,0,8,1,[2.4131999999881373],,,,,,,,,,,,,,,,,,,,,,,,,,,,,,,,,,,,,,,,,,,
,,,,,,,,,,5e66bf9f0df257000ce28048,21,Mężczyzna,2022-06-10_12h58.38.107,task,2021.1.4,Win32,59.96282305,628b806c463b948bc644b84f,62a323d011e0f7a4aadae375,,,,,,,,,,X V Q F H G B L J M P D K C T S W R N Z,,,,,,,,,,,,,,,,,,,,,,,,,,,,,,,,,,,,,,,,,,,,,,,,,,,0,0,0,0,1,,,,,,,,,,,,,,,,,,,,,,,,,,,,,,,,,,,,,,
,,,,,,,,,,5e66bf9f0df257000ce28048,21,Mężczyzna,2022-06-10_12h58.38.107,task,2021.1.4,Win32,59.96282305,628b806c463b948bc644b84f,62a323d011e0f7a4aadae375,,,,,,,,,,,,,,,,,,,,,,,1,,,,,,,,,,Practice,2,(4x4) - 15,1,,,,,,,,,,,,,,,,"[""1""]",1,1,0,0,0,1,1,[1.4626999999881036],,,,,,,,,,,,,,,,,,,,,,,,,,,,,,,,,,,,,,,,,,,
,,,,,,,,,,5e66bf9f0df257000ce28048,21,Mężczyzna,2022-06-10_12h58.38.107,task,2021.1.4,Win32,59.96282305,628b806c463b948bc644b84f,62a323d011e0f7a4aadae375,,,,,,,,,,X V Q F H G B L J M P D K C T S W R N Z,,,,,,,,,,,,,,,,,,,,,,,,,,,,,,,,,,,,,,,,,,,,,,,,,,,1,0,1,0,1,,,,,,,,,,,,,,,,,,,,,,,,,,,,,,,,,,,,,,
,,,,,,,,,,5e66bf9f0df257000ce28048,21,Mężczyzna,2022-06-10_12h58.38.107,task,2021.1.4,Win32,59.96282305,628b806c463b948bc644b84f,62a323d011e0f7a4aadae375,,,,,,,,,,,,,,,,,,,,,,,,,,,,,,,,,,,,,,,,,,,,,,,,,,,,,,,,,,,,,,,,,,mk,"[""m"",""k""]",0,"[1.2361999999881164,1.441000000000031,1.7931000000238555]",1,1,0,1,0,1,,,,,,,,,,,,,,,,,,,,,,,,,,,,
,,,,,,,,,,5e66bf9f0df257000ce28048,21,Mężczyzna,2022-06-10_12h58.38.107,task,2021.1.4,Win32,59.96282305,628b806c463b948bc644b84f,62a323d011e0f7a4aadae375,,,,,,,,,,,,,,,,,,,,,,,2,,,,,,,,,,Practice,3,(4x4) - 14,2,,,,,,,,,,,,,,,,"[""2""]",1,1,0,0,0,2,1,[1.8718999999762218],,,,,,,,,,,,,,,,,,,,,,,,,,,,,,,,,,,,,,,,,,,
,,,,,,,,,,5e66bf9f0df257000ce28048,21,Mężczyzna,2022-06-10_12h58.38.107,task,2021.1.4,Win32,59.96282305,628b806c463b948bc644b84f,62a323d011e0f7a4aadae375,,,,,,,,,,X V Q F H G B L J M P D K C T S W R N Z,,,,,,,,,,,,,,,,,,,,,,,,,,,,,,,,,,,,,,,,,,,,,,,,,,,0,0,0,0,1,,,,,,,,,,,,,,,,,,,,,,,,,,,,,,,,,,,,,,
,,,,,,,,,,5e66bf9f0df257000ce28048,21,Mężczyzna,2022-06-10_12h58.38.107,task,2021.1.4,Win32,59.96282305,628b806c463b948bc644b84f,62a323d011e0f7a4aadae375,,,,,,,,,,,,,,,,,,,,,,,6,,,,,,,,,,Practice,7,(25/5) + 1,6,,,,,,,,,,,,,,,,"[""6""]",1,1,0,0,0,6,1,[2.138500000000022],,,,,,,,,,,,,,,,,,,,,,,,,,,,,,,,,,,,,,,,,,,
,,,,,,,,,,5e66bf9f0df257000ce28048,21,Mężczyzna,2022-06-10_12h58.38.107,task,2021.1.4,Win32,59.96282305,628b806c463b948bc644b84f,62a323d011e0f7a4aadae375,,,,,,,,,,X V Q F H G B L J M P D K C T S W R N Z,,,,,,,,,,,,,,,,,,,,,,,,,,,,,,,,,,,,,,,,,,,,,,,,,,,1,0,1,0,1,,,,,,,,,,,,,,,,,,,,,,,,,,,,,,,,,,,,,,
,,,,,,,,,,5e66bf9f0df257000ce28048,21,Mężczyzna,2022-06-10_12h58.38.107,task,2021.1.4,Win32,59.96282305,628b806c463b948bc644b84f,62a323d011e0f7a4aadae375,,,,,,,,,,,,,,,,,,,,,,,,,,,,,,,,,,,,,,,,,,,,,,,,,,,,,,,,,,,,,,,,,,fw,"[""f"",""w""]",0,"[1.2478999999761982,1.4473999999761418,2.375499999999988]",1,2,0,2,0,1,,,,,,,,,,,,,,,,,,,,,,,,,,,,
,,,,,,,,,,5e66bf9f0df257000ce28048,21,Mężczyzna,2022-06-10_12h58.38.107,task,2021.1.4,Win32,59.96282305,628b806c463b948bc644b84f,62a323d011e0f7a4aadae375,,,,,,,,,,,,,,,,,,,,,,,1,,,,,,,,,,Task,37,(3/3) + 5,6,,,,,,,,,,,,,,,,,,0,,,,,,,,,,,,,,,,,,,,,,space,20.2313,"[""1""]",0,[2.3275999999642636],0,0,0,36,1,,,,,,,,,,,,,,,,,,
,,,,,,,,,,5e66bf9f0df257000ce28048,21,Mężczyzna,2022-06-10_12h58.38.107,task,2021.1.4,Win32,59.96282305,628b806c463b948bc644b84f,62a323d011e0f7a4aadae375,,,,,,,,,,,,,,,,,,,,,,,0,,,,,,,,,,Task,33,(1/1) - 1,0,,,,,,,,,,,,,,,,,,1,,,,,,,,,,,,,,,,,,,,,,,,"[""0""]",1,[2.2048000000119146],0,1,1,32,1,,,,,,,,,,,,,,,,,,
,,,,,,,,,,5e66bf9f0df257000ce28048,21,Mężczyzna,2022-06-10_12h58.38.107,task,2021.1.4,Win32,59.96282305,628b806c463b948bc644b84f,62a323d011e0f7a4aadae375,,,,,,,,,,X V Q F H G B L J M P D K C T S W R N Z,,,,,,,,,,,,,,,,,,,,,,,,,,,,,,,,,,,,,,,,,,,,,,,,,,,,,,,,,,,,,,,,,,,,,,,,,,,,0,0,0,0,1,,,,,,,,,,,,,
,,,,,,,,,,5e66bf9f0df257000ce28048,21,Mężczyzna,2022-06-10_12h58.38.107,task,2021.1.4,Win32,59.96282305,628b806c463b948bc644b84f,62a323d011e0f7a4aadae375,,,,,,,,,,,,,,,,,,,,,,,6,,,,,,,,,,Task,37,(3/3) + 5,6,,,,,,,,,,,,,,,,,,1,,,,,,,,,,,,,,,,,,,,,,,,"[""6""]",1,[3.005999999999972],0,0,0,36,1,,,,,,,,,,,,,,,,,,
,,,,,,,,,,5e66bf9f0df257000ce28048,21,Mężczyzna,2022-06-10_12h58.38.107,task,2021.1.4,Win32,59.96282305,628b806c463b948bc644b84f,62a323d011e0f7a4aadae375,,,,,,,,,,X V Q F H G B L J M P D K C T S W R N Z,,,,,,,,,,,,,,,,,,,,,,,,,,,,,,,,,,,,,,,,,,,,,,,,,,,,,,,,,,,,,,,,,,,,,,,,,,,,1,0,1,0,1,,,,,,,,,,,,,
,,,,,,,,,,5e66bf9f0df257000ce28048,21,Mężczyzna,2022-06-10_12h58.38.107,task,2021.1.4,Win32,59.96282305,628b806c463b948bc644b84f,62a323d011e0f7a4aadae375,,,,,,,,,,,,,,,,,,,,,,,,,,,,,,,,,,,,,,,,,,,,,,,,,,,,,,,,,,,,,,,,,,,,,,,,,,,,,,,,,,,,,,,,,,,zr,"[""z"",""r""]",0,"[1.2194000000357619,1.5537000000476837,1.8380000000000791]",1,ZR,0,0,0,0,1,,
,,,,,,,,,,5e66bf9f0df257000ce28048,21,Mężczyzna,2022-06-10_12h58.38.107,task,2021.1.4,Win32,59.96282305,628b806c463b948bc644b84f,62a323d011e0f7a4aadae375,,,,,,,,,,,,,,,,,,,,,,,4,,,,,,,,,,Task,4,(1x5) - 1,4,,,,,,,,,,,,,,,,,,1,,,,,,,,,,,,,,,,,,,,,,,,"[""4""]",1,[2.149499999999989],0,0,0,3,1,,,,,,,,,,,,,,,,,,
,,,,,,,,,,5e66bf9f0df257000ce28048,21,Mężczyzna,2022-06-10_12h58.38.107,task,2021.1.4,Win32,59.96282305,628b806c463b948bc644b84f,62a323d011e0f7a4aadae375,,,,,,,,,,X V Q F H G B L J M P D K C T S W R N Z,,,,,,,,,,,,,,,,,,,,,,,,,,,,,,,,,,,,,,,,,,,,,,,,,,,,,,,,,,,,,,,,,,,,,,,,,,,,0,0,0,0,1,,,,,,,,,,,,,
,,,,,,,,,,5e66bf9f0df257000ce28048,21,Mężczyzna,2022-06-10_12h58.38.107,task,2021.1.4,Win32,59.96282305,628b806c463b948bc644b84f,62a323d011e0f7a4aadae375,,,,,,,,,,,,,,,,,,,,,,,5,,,,,,,,,,Task,22,(3x1) + 2,5,,,,,,,,,,,,,,,,,,1,,,,,,,,,,,,,,,,,,,,,,,,"[""5""]",1,[1.7369999999999663],0,0,0,21,1,,,,,,,,,,,,,,,,,,
,,,,,,,,,,5e66bf9f0df257000ce28048,21,Mężczyzna,2022-06-10_12h58.38.107,task,2021.1.4,Win32,59.96282305,628b806c463b948bc644b84f,62a323d011e0f7a4aadae375,,,,,,,,,,X V Q F H G B L J M P D K C T S W R N Z,,,,,,,,,,,,,,,,,,,,,,,,,,,,,,,,,,,,,,,,,,,,,,,,,,,,,,,,,,,,,,,,,,,,,,,,,,,,1,0,1,0,1,,,,,,,,,,,,,
,,,,,,,,,,5e66bf9f0df257000ce28048,21,Mężczyzna,2022-06-10_12h58.38.107,task,2021.1.4,Win32,59.96282305,628b806c463b948bc644b84f,62a323d011e0f7a4aadae375,,,,,,,,,,,,,,,,,,,,,,,1,,,,,,,,,,Task,18,(16/4) - 3,1,,,,,,,,,,,,,,,,,,1,,,,,,,,,,,,,,,,,,,,,,,,"[""1""]",1,[2.540699999988078],0,0,0,17,1,,,,,,,,,,,,,,,,,,
,,,,,,,,,,5e66bf9f0df257000ce28048,21,Mężczyzna,2022-06-10_12h58.38.107,task,2021.1.4,Win32,59.96282305,628b806c463b948bc644b84f,62a323d011e0f7a4aadae375,,,,,,,,,,X V Q F H G B L J M P D K C T S W R N Z,,,,,,,,,,,,,,,,,,,,,,,,,,,,,,,,,,,,,,,,,,,,,,,,,,,,,,,,,,,,,,,,,,,,,,,,,,,,2,0,2,0,1,,,,,,,,,,,,,
,,,,,,,,,,5e66bf9f0df257000ce28048,21,Mężczyzna,2022-06-10_12h58.38.107,task,2021.1.4,Win32,59.96282305,628b806c463b948bc644b84f,62a323d011e0f7a4aadae375,,,,,,,,,,,,,,,,,,,,,,,,,,,,,,,,,,,,,,,,,,,,,,,,,,,,,,,,,,,,,,,,,,,,,,,,,,,,,,,,,,,,,,,,,,,twx,"[""t"",""w"",""x""]",0,"[1.2089000000357828,1.5536999999881118,1.8331000000238191,2.154900000035809]",1,TWX,1,0,1,0,1,,
,,,,,,,,,,5e66bf9f0df257000ce28048,21,Mężczyzna,2022-06-10_12h58.38.107,task,2021.1.4,Win32,59.96282305,628b806c463b948bc644b84f,62a323d011e0f7a4aadae375,,,,,,,,,,,,,,,,,,,,,,,5,,,,,,,,,,Task,12,(4x4) - 11,5,,,,,,,,,,,,,,,,,,1,,,,,,,,,,,,,,,,,,,,,,,,"[""5""]",1,[2.4209999999999354],0,0,0,11,1,,,,,,,,,,,,,,,,,,
,,,,,,,,,,5e66bf9f0df257000ce28048,21,Mężczyzna,2022-06-10_12h58.38.107,task,2021.1.4,Win32,59.96282305,628b806c463b948bc644b84f,62a323d011e0f7a4aadae375,,,,,,,,,,X V Q F H G B L J M P D K C T S W R N Z,,,,,,,,,,,,,,,,,,,,,,,,,,,,,,,,,,,,,,,,,,,,,,,,,,,,,,,,,,,,,,,,,,,,,,,,,,,,0,0,0,0,1,,,,,,,,,,,,,
,,,,,,,,,,5e66bf9f0df257000ce28048,21,Mężczyzna,2022-06-10_12h58.38.107,task,2021.1.4,Win32,59.96282305,628b806c463b948bc644b84f,62a323d011e0f7a4aadae375,,,,,,,,,,,,,,,,,,,,,,,8,,,,,,,,,,Task,32,(8/2) + 4,8,,,,,,,,,,,,,,,,,,1,,,,,,,,,,,,,,,,,,,,,,,,"[""8""]",1,[1.660399999976221],0,0,0,31,1,,,,,,,,,,,,,,,,,,
,,,,,,,,,,5e66bf9f0df257000ce28048,21,Mężczyzna,2022-06-10_12h58.38.107,task,2021.1.4,Win32,59.96282305,628b806c463b948bc644b84f,62a323d011e0f7a4aadae375,,,,,,,,,,X V Q F H G B L J M P D K C T S W R N Z,,,,,,,,,,,,,,,,,,,,,,,,,,,,,,,,,,,,,,,,,,,,,,,,,,,,,,,,,,,,,,,,,,,,,,,,,,,,1,0,1,0,1,,,,,,,,,,,,,
,,,,,,,,,,5e66bf9f0df257000ce28048,21,Mężczyzna,2022-06-10_12h58.38.107,task,2021.1.4,Win32,59.96282305,628b806c463b948bc644b84f,62a323d011e0f7a4aadae375,,,,,,,,,,,,,,,,,,,,,,,2,,,,,,,,,,Task,26,(2x9) - 16,2,,,,,,,,,,,,,,,,,,1,,,,,,,,,,,,,,,,,,,,,,,,"[""2""]",1,[1.71189999997614],0,0,0,25,1,,,,,,,,,,,,,,,,,,
,,,,,,,,,,5e66bf9f0df257000ce28048,21,Mężczyzna,2022-06-10_12h58.38.107,task,2021.1.4,Win32,59.96282305,628b806c463b948bc644b84f,62a323d011e0f7a4aadae375,,,,,,,,,,X V Q F H G B L J M P D K C T S W R N Z,,,,,,,,,,,,,,,,,,,,,,,,,,,,,,,,,,,,,,,,,,,,,,,,,,,,,,,,,,,,,,,,,,,,,,,,,,,,2,0,2,0,1,,,,,,,,,,,,,
,,,,,,,,,,5e66bf9f0df257000ce28048,21,Mężczyzna,2022-06-10_12h58.38.107,task,2021.1.4,Win32,59.96282305,628b806c463b948bc644b84f,62a323d011e0f7a4aadae375,,,,,,,,,,,,,,,,,,,,,,,6,,,,,,,,,,Task,37,(3/3) + 5,6,,,,,,,,,,,,,,,,,,1,,,,,,,,,,,,,,,,,,,,,,,,"[""6""]",1,[2.828199999988101],0,0,0,36,1,,,,,,,,,,,,,,,,,,
,,,,,,,,,,5e66bf9f0df257000ce28048,21,Mężczyzna,2022-06-10_12h58.38.107,task,2021.1.4,Win32,59.96282305,628b806c463b948bc644b84f,62a323d011e0f7a4aadae375,,,,,,,,,,X V Q F H G B L J M P D K C T S W R N Z,,,,,,,,,,,,,,,,,,,,,,,,,,,,,,,,,,,,,,,,,,,,,,,,,,,,,,,,,,,,,,,,,,,,,,,,,,,,3,0,3,0,1,,,,,,,,,,,,,
,,,,,,,,,,5e66bf9f0df257000ce28048,21,Mężczyzna,2022-06-10_12h58.38.107,task,2021.1.4,Win32,59.96282305,628b806c463b948bc644b84f,62a323d011e0f7a4aadae375,,,,,,,,,,,,,,,,,,,,,,,,,,,,,,,,,,,,,,,,,,,,,,,,,,,,,,,,,,,,,,,,,,,,,,,,,,,,,,,,,,,,,,,,,,,qjws,"[""q"",""j"",""w"",""s""]",0,"[1.44500000000005,1.6769000000357437,1.9326000000238537,2.1886000000238255,2.4605000000000246]",1,QJWS,2,0,2,0,1,,
,,,,,,,,,,5e66bf9f0df257000ce28048,21,Mężczyzna,2022-06-10_12h58.38.107,task,2021.1.4,Win32,59.96282305,628b806c463b948bc644b84f,62a323d011e0f7a4aadae375,,,,,,,,,,,,,,,,,,,,,,,9,,,,,,,,,,Task,40,(7x2) - 5,9,,,,,,,,,,,,,,,,,,1,,,,,,,,,,,,,,,,,,,,,,,,"[""9""]",1,[2.5386999999880118],0,0,0,39,1,,,,,,,,,,,,,,,,,,
,,,,,,,,,,5e66bf9f0df257000ce28048,21,Mężczyzna,2022-06-10_12h58.38.107,task,2021.1.4,Win32,59.96282305,628b806c463b948bc644b84f,62a323d011e0f7a4aadae375,,,,,,,,,,X V Q F H G B L J M P D K C T S W R N Z,,,,,,,,,,,,,,,,,,,,,,,,,,,,,,,,,,,,,,,,,,,,,,,,,,,,,,,,,,,,,,,,,,,,,,,,,,,,0,0,0,0,1,,,,,,,,,,,,,
,,,,,,,,,,5e66bf9f0df257000ce28048,21,Mężczyzna,2022-06-10_12h58.38.107,task,2021.1.4,Win32,59.96282305,628b806c463b948bc644b84f,62a323d011e0f7a4aadae375,,,,,,,,,,,,,,,,,,,,,,,,,,,,,,,,,Task,15,(3x7) - 13,8,,,,,,,,,,,,,,,,,,0,,,,,,,,,,,,,,,,,,,,,,,,,0,,0,0,0,14,1,,,,,,,,,,,,,,,,,,
,,,,,,,,,,5e66bf9f0df257000ce28048,21,Mężczyzna,2022-06-10_12h58.38.107,task,2021.1.4,Win32,59.96282305,628b806c463b948bc644b84f,62a323d011e0f7a4aadae375,,,,,,,,,,,,,,,,,,,,,,,8,,,,,,,,,,Task,39,(5x3) - 7,8,,,,,,,,,,,,,,,,,,1,,,,,,,,,,,,,,,,,,,,,,,,"[""8""]",1,[3.381399999976111],0,1,1,38,1,,,,,,,,,,,,,,,,,,
,,,,,,,,,,5e66bf9f0df257000ce28048,21,Mężczyzna,2022-06-10_12h58.38.107,task,2021.1.4,Win32,59.96282305,628b806c463b948bc644b84f,62a323d011e0f7a4aadae375,,,,,,,,,,X V Q F H G B L J M P D K C T S W R N Z,,,,,,,,,,,,,,,,,,,,,,,,,,,,,,,,,,,,,,,,,,,,,,,,,,,,,,,,,,,,,,,,,,,,,,,,,,,,1,0,1,0,1,,,,,,,,,,,,,
,,,,,,,,,,5e66bf9f0df257000ce28048,21,Mężczyzna,2022-06-10_12h58.38.107,task,2021.1.4,Win32,59.96282305,628b806c463b948bc644b84f,62a323d011e0f7a4aadae375,,,,,,,,,,,,,,,,,,,,,,,3,,,,,,,,,,Task,20,(18/9) + 1,3,,,,,,,,,,,,,,,,,,1,,,,,,,,,,,,,,,,,,,,,,,,"[""3""]",1,[1.9621999999881155],0,0,0,19,1,,,,,,,,,,,,,,,,,,
,,,,,,,,,,5e66bf9f0df257000ce28048,21,Mężczyzna,2022-06-10_12h58.38.107,task,2021.1.4,Win32,59.96282305,628b806c463b948bc644b84f,62a323d011e0f7a4aadae375,,,,,,,,,,X V Q F H G B L J M P D K C T S W R N Z,,,,,,,,,,,,,,,,,,,,,,,,,,,,,,,,,,,,,,,,,,,,,,,,,,,,,,,,,,,,,,,,,,,,,,,,,,,,2,0,2,0,1,,,,,,,,,,,,,
,,,,,,,,,,5e66bf9f0df257000ce28048,21,Mężczyzna,2022-06-10_12h58.38.107,task,2021.1.4,Win32,59.96282305,628b806c463b948bc644b84f,62a323d011e0f7a4aadae375,,,,,,,,,,,,,,,,,,,,,,,7,,,,,,,,,,Task,14,(2x2) + 3,7,,,,,,,,,,,,,,,,,,1,,,,,,,,,,,,,,,,,,,,,,,,"[""7""]",1,[2.158999999999992],0,0,0,13,1,,,,,,,,,,,,,,,,,,
,,,,,,,,,,5e66bf9f0df257000ce28048,21,Mężczyzna,2022-06-10_12h58.38.107,task,2021.1.4,Win32,59.96282305,628b806c463b948bc644b84f,62a323d011e0f7a4aadae375,,,,,,,,,,X V Q F H G B L J M P D K C T S W R N Z,,,,,,,,,,,,,,,,,,,,,,,,,,,,,,,,,,,,,,,,,,,,,,,,,,,,,,,,,,,,,,,,,,,,,,,,,,,,3,0,3,0,1,,,,,,,,,,,,,
,,,,,,,,,,5e66bf9f0df257000ce28048,21,Mężczyzna,2022-06-10_12h58.38.107,task,2021.1.4,Win32,59.96282305,628b806c463b948bc644b84f,62a323d011e0f7a4aadae375,,,,,,,,,,,,,,,,,,,,,,,4,,,,,,,,,,Task,28,(2x5) - 6,4,,,,,,,,,,,,,,,,,,1,,,,,,,,,,,,,,,,,,,,,,,,"[""4""]",1,[4.192100000023856],0,0,0,27,1,,,,,,,,,,,,,,,,,,
,,,,,,,,,,5e66bf9f0df257000ce28048,21,Mężczyzna,2022-06-10_12h58.38.107,task,2021.1.4,Win32,59.96282305,628b806c463b948bc644b84f,62a323d011e0f7a4aadae375,,,,,,,,,,X V Q F H G B L J M P D K C T S W R N Z,,,,,,,,,,,,,,,,,,,,,,,,,,,,,,,,,,,,,,,,,,,,,,,,,,,,,,,,,,,,,,,,,,,,,,,,,,,,4,0,4,0,1,,,,,,,,,,,,,
,,,,,,,,,,5e66bf9f0df257000ce28048,21,Mężczyzna,2022-06-10_12h58.38.107,task,2021.1.4,Win32,59.96282305,628b806c463b948bc644b84f,62a323d011e0f7a4aadae375,,,,,,,,,,,,,,,,,,,,,,,,,,,,,,,,,,,,,,,,,,,,,,,,,,,,,,,,,,,,,,,,,,,,,,,,,,,,,,,,,,,,,,,,,,,qsrq,"[""q"",""s"",""r"",""q""]",0,"[1.1186000000238892,1.4378000000119755,1.7833000000118773,2.046399999976188,3.3983000000118864]",0,BSRXQ,3,0,3,0,1,,
,,,,,,,,,,5e66bf9f0df257000ce28048,21,Mężczyzna,2022-06-10_12h58.38.107,task,2021.1.4,Win32,59.96282305,628b806c463b948bc644b84f,62a323d011e0f7a4aadae375,,,,,,,,,,,,,,,,,,,,,,,1,,,,,,,,,,Task,1,(12/6) - 1,1,,,,,,,,,,,,,,,,,,1,,,,,,,,,,,,,,,,,,,,,,,,"[""1""]",1,[2.0428999999761572],0,0,0,0,1,,,,,,,,,,,,,,,,,,
,,,,,,,,,,5e66bf9f0df257000ce28048,21,Mężczyzna,2022-06-10_12h58.38.107,task,2021.1.4,Win32,59.96282305,628b806c463b948bc644b84f,62a323d011e0f7a4aadae375,,,,,,,,,,X V Q F H G B L J M P D K C T S W R N Z,,,,,,,,,,,,,,,,,,,,,,,,,,,,,,,,,,,,,,,,,,,,,,,,,,,,,,,,,,,,,,,,,,,,,,,,,,,,0,0,0,0,1,,,,,,,,,,,,,
,,,,,,,,,,5e66bf9f0df257000ce28048,21,Mężczyzna,2022-06-10_12h58.38.107,task,2021.1.4,Win32,59.96282305,628b806c463b948bc644b84f,62a323d011e0f7a4aadae375,,,,,,,,,,,,,,,,,,,,,,,6,,,,,,,,,,Task,5,(2x3) + 0,6,,,,,,,,,,,,,,,,,,1,,,,,,,,,,,,,,,,,,,,,,,,"[""6""]",1,[2.4279999999999973],0,0,0,4,1,,,,,,,,,,,,,,,,,,
,,,,,,,,,,5e66bf9f0df257000ce28048,21,Mężczyzna,2022-06-10_12h58.38.107,task,2021.1.4,Win32,59.96282305,628b806c463b948bc644b84f,62a323d011e0f7a4aadae375,,,,,,,,,,X V Q F H G B L J M P D K C T S W R N Z,,,,,,,,,,,,,,,,,,,,,,,,,,,,,,,,,,,,,,,,,,,,,,,,,,,,,,,,,,,,,,,,,,,,,,,,,,,,1,0,1,0,1,,,,,,,,,,,,,
,,,,,,,,,,5e66bf9f0df257000ce28048,21,Mężczyzna,2022-06-10_12h58.38.107,task,2021.1.4,Win32,59.96282305,628b806c463b948bc644b84f,62a323d011e0f7a4aadae375,,,,,,,,,,,,,,,,,,,,,,,0,,,,,,,,,,Task,8,(1x5) - 5,0,,,,,,,,,,,,,,,,,,1,,,,,,,,,,,,,,,,,,,,,,,,"[""0""]",1,[2.4609000000357355],0,0,0,7,1,,,,,,,,,,,,,,,,,,
,,,,,,,,,,5e66bf9f0df257000ce28048,21,Mężczyzna,2022-06-10_12h58.38.107,task,2021.1.4,Win32,59.96282305,628b806c463b948bc644b84f,62a323d011e0f7a4aadae375,,,,,,,,,,X V Q F H G B L J M P D K C T S W R N Z,,,,,,,,,,,,,,,,,,,,,,,,,,,,,,,,,,,,,,,,,,,,,,,,,,,,,,,,,,,,,,,,,,,,,,,,,,,,2,0,2,0,1,,,,,,,,,,,,,
,,,,,,,,,,5e66bf9f0df257000ce28048,21,Mężczyzna,2022-06-10_12h58.38.107,task,2021.1.4,Win32,59.96282305,628b806c463b948bc644b84f,62a323d011e0f7a4aadae375,,,,,,,,,,,,,,,,,,,,,,,6,,,,,,,,,,Task,13,(3x4) - 6,6,,,,,,,,,,,,,,,,,,1,,,,,,,,,,,,,,,,,,,,,,,,"[""6""]",1,[3.70770000004768],0,0,0,12,1,,,,,,,,,,,,,,,,,,
,,,,,,,,,,5e66bf9f0df257000ce28048,21,Mężczyzna,2022-06-10_12h58.38.107,task,2021.1.4,Win32,59.96282305,628b806c463b948bc644b84f,62a323d011e0f7a4aadae375,,,,,,,,,,X V Q F H G B L J M P D K C T S W R N Z,,,,,,,,,,,,,,,,,,,,,,,,,,,,,,,,,,,,,,,,,,,,,,,,,,,,,,,,,,,,,,,,,,,,,,,,,,,,3,0,3,0,1,,,,,,,,,,,,,
,,,,,,,,,,5e66bf9f0df257000ce28048,21,Mężczyzna,2022-06-10_12h58.38.107,task,2021.1.4,Win32,59.96282305,628b806c463b948bc644b84f,62a323d011e0f7a4aadae375,,,,,,,,,,,,,,,,,,,,,,,1,,,,,,,,,,Task,34,(9/3) - 2,1,,,,,,,,,,,,,,,,,,1,,,,,,,,,,,,,,,,,,,,,,,,"[""1""]",1,[3.373599999964199],0,0,0,33,1,,,,,,,,,,,,,,,,,,
,,,,,,,,,,5e66bf9f0df257000ce28048,21,Mężczyzna,2022-06-10_12h58.38.107,task,2021.1.4,Win32,59.96282305,628b806c463b948bc644b84f,62a323d011e0f7a4aadae375,,,,,,,,,,X V Q F H G B L J M P D K C T S W R N Z,,,,,,,,,,,,,,,,,,,,,,,,,,,,,,,,,,,,,,,,,,,,,,,,,,,,,,,,,,,,,,,,,,,,,,,,,,,,4,0,4,0,1,,,,,,,,,,,,,
,,,,,,,,,,5e66bf9f0df257000ce28048,21,Mężczyzna,2022-06-10_12h58.38.107,task,2021.1.4,Win32,59.96282305,628b806c463b948bc644b84f,62a323d011e0f7a4aadae375,,,,,,,,,,,,,,,,,,,,,,,,,,,,,,,,,,,,,,,,,,,,,,,,,,,,,,,,,,,,,,,,,,,,,,,,,,,,,,,,,,,,,,,,,,,fbqcm,"[""f"",""b"",""q"",""c"",""m""]",0,"[1.4421999999881336,1.787199999988161,2.513500000000022,2.929599999964239,3.4338000000119564,4.330099999964318]",1,FBQCM,4,0,4,0,1,,
,,,,,,,,,,5e66bf9f0df257000ce28048,21,Mężczyzna,2022-06-10_12h58.38.107,task,2021.1.4,Win32,59.96282305,628b806c463b948bc644b84f,62a323d011e0f7a4aadae375,,,,,,,,,,,,,,,,,,,,,,,7,,,,,,,,,,Task,14,(2x2) + 3,7,,,,,,,,,,,,,,,,,,1,,,,,,,,,,,,,,,,,,,,,,,,"[""7""]",1,[1.5991999999881727],0,0,0,13,1,,,,,,,,,,,,,,,,,,
,,,,,,,,,,5e66bf9f0df257000ce28048,21,Mężczyzna,2022-06-10_12h58.38.107,task,2021.1.4,Win32,59.96282305,628b806c463b948bc644b84f,62a323d011e0f7a4aadae375,,,,,,,,,,X V Q F H G B L J M P D K C T S W R N Z,,,,,,,,,,,,,,,,,,,,,,,,,,,,,,,,,,,,,,,,,,,,,,,,,,,,,,,,,,,,,,,,,,,,,,,,,,,,0,0,0,0,1,,,,,,,,,,,,,
,,,,,,,,,,5e66bf9f0df257000ce28048,21,Mężczyzna,2022-06-10_12h58.38.107,task,2021.1.4,Win32,59.96282305,628b806c463b948bc644b84f,62a323d011e0f7a4aadae375,,,,,,,,,,,,,,,,,,,,,,,4,,,,,,,,,,Task,28,(2x5) - 6,4,,,,,,,,,,,,,,,,,,1,,,,,,,,,,,,,,,,,,,,,,,,"[""4""]",1,[2.0576000000238537],0,0,0,27,1,,,,,,,,,,,,,,,,,,
,,,,,,,,,,5e66bf9f0df257000ce28048,21,Mężczyzna,2022-06-10_12h58.38.107,task,2021.1.4,Win32,59.96282305,628b806c463b948bc644b84f,62a323d011e0f7a4aadae375,,,,,,,,,,X V Q F H G B L J M P D K C T S W R N Z,,,,,,,,,,,,,,,,,,,,,,,,,,,,,,,,,,,,,,,,,,,,,,,,,,,,,,,,,,,,,,,,,,,,,,,,,,,,1,0,1,0,1,,,,,,,,,,,,,
,,,,,,,,,,5e66bf9f0df257000ce28048,21,Mężczyzna,2022-06-10_12h58.38.107,task,2021.1.4,Win32,59.96282305,628b806c463b948bc644b84f,62a323d011e0f7a4aadae375,,,,,,,,,,,,,,,,,,,,,,,9,,,,,,,,,,Task,40,(7x2) - 5,9,,,,,,,,,,,,,,,,,,1,,,,,,,,,,,,,,,,,,,,,,,,"[""9""]",1,[1.9343999999762218],0,0,0,39,1,,,,,,,,,,,,,,,,,,
,,,,,,,,,,5e66bf9f0df257000ce28048,21,Mężczyzna,2022-06-10_12h58.38.107,task,2021.1.4,Win32,59.96282305,628b806c463b948bc644b84f,62a323d011e0f7a4aadae375,,,,,,,,,,X V Q F H G B L J M P D K C T S W R N Z,,,,,,,,,,,,,,,,,,,,,,,,,,,,,,,,,,,,,,,,,,,,,,,,,,,,,,,,,,,,,,,,,,,,,,,,,,,,2,0,2,0,1,,,,,,,,,,,,,
,,,,,,,,,,5e66bf9f0df257000ce28048,21,Mężczyzna,2022-06-10_12h58.38.107,task,2021.1.4,Win32,59.96282305,628b806c463b948bc644b84f,62a323d011e0f7a4aadae375,,,,,,,,,,,,,,,,,,,,,,,1,,,,,,,,,,Task,18,(16/4) - 3,1,,,,,,,,,,,,,,,,,,1,,,,,,,,,,,,,,,,,,,,,,,,"[""1""]",1,[4.649300000011976],0,0,0,17,1,,,,,,,,,,,,,,,,,,
,,,,,,,,,,5e66bf9f0df257000ce28048,21,Mężczyzna,2022-06-10_12h58.38.107,task,2021.1.4,Win32,59.96282305,628b806c463b948bc644b84f,62a323d011e0f7a4aadae375,,,,,,,,,,X V Q F H G B L J M P D K C T S W R N Z,,,,,,,,,,,,,,,,,,,,,,,,,,,,,,,,,,,,,,,,,,,,,,,,,,,,,,,,,,,,,,,,,,,,,,,,,,,,3,0,3,0,1,,,,,,,,,,,,,
,,,,,,,,,,5e66bf9f0df257000ce28048,21,Mężczyzna,2022-06-10_12h58.38.107,task,2021.1.4,Win32,59.96282305,628b806c463b948bc644b84f,62a323d011e0f7a4aadae375,,,,,,,,,,,,,,,,,,,,,,,0,,,,,,,,,,Task,8,(1x5) - 5,0,,,,,,,,,,,,,,,,,,1,,,,,,,,,,,,,,,,,,,,,,,,"[""0""]",1,[1.7523999999760917],0,0,0,7,1,,,,,,,,,,,,,,,,,,
,,,,,,,,,,5e66bf9f0df257000ce28048,21,Mężczyzna,2022-06-10_12h58.38.107,task,2021.1.4,Win32,59.96282305,628b806c463b948bc644b84f,62a323d011e0f7a4aadae375,,,,,,,,,,X V Q F H G B L J M P D K C T S W R N Z,,,,,,,,,,,,,,,,,,,,,,,,,,,,,,,,,,,,,,,,,,,,,,,,,,,,,,,,,,,,,,,,,,,,,,,,,,,,4,0,4,0,1,,,,,,,,,,,,,
,,,,,,,,,,5e66bf9f0df257000ce28048,21,Mężczyzna,2022-06-10_12h58.38.107,task,2021.1.4,Win32,59.96282305,628b806c463b948bc644b84f,62a323d011e0f7a4aadae375,,,,,,,,,,,,,,,,,,,,,,,6,,,,,,,,,,Task,30,(6/3) + 4 ,6,,,,,,,,,,,,,,,,,,1,,,,,,,,,,,,,,,,,,,,,,,,"[""6""]",1,[4.275199999988104],0,0,0,29,1,,,,,,,,,,,,,,,,,,
,,,,,,,,,,5e66bf9f0df257000ce28048,21,Mężczyzna,2022-06-10_12h58.38.107,task,2021.1.4,Win32,59.96282305,628b806c463b948bc644b84f,62a323d011e0f7a4aadae375,,,,,,,,,,X V Q F H G B L J M P D K C T S W R N Z,,,,,,,,,,,,,,,,,,,,,,,,,,,,,,,,,,,,,,,,,,,,,,,,,,,,,,,,,,,,,,,,,,,,,,,,,,,,5,0,5,0,1,,,,,,,,,,,,,
,,,,,,,,,,5e66bf9f0df257000ce28048,21,Mężczyzna,2022-06-10_12h58.38.107,task,2021.1.4,Win32,59.96282305,628b806c463b948bc644b84f,62a323d011e0f7a4aadae375,,,,,,,,,,,,,,,,,,,,,,,,,,,,,,,,,,,,,,,,,,,,,,,,,,,,,,,,,,,,,,,,,,,,,,,,,,,,,,,,,,,,,,,,,,,cqzpj,"[""c"",""q"",""z"",""p"",""j""]",0,"[1.1956000000238873,1.7148999999761827,2.53189999997619,3.0430000000000064,3.4916000000238228,4.363000000000056]",0,CQZPJF,5,0,5,0,1,,
,,,,,,,,,,5e66bf9f0df257000ce28048,21,Mężczyzna,2022-06-10_12h58.38.107,task,2021.1.4,Win32,59.96282305,628b806c463b948bc644b84f,62a323d011e0f7a4aadae375,,,,,,,,,,,,,,,,,,,,,,,3,,,,,,,,,,Task,29,(3x8) - 19 ,5,,,,,,,,,,,,,,,,,,0,,,,,,,,,,,,,,,,,,,,,,,,"[""3""]",0,[4.475399999976162],0,0,0,28,1,,,,,,,,,,,,,,,,,,
,,,,,,,,,,5e66bf9f0df257000ce28048,21,Mężczyzna,2022-06-10_12h58.38.107,task,2021.1.4,Win32,59.96282305,628b806c463b948bc644b84f,62a323d011e0f7a4aadae375,,,,,,,,,,,,,,,,,,,,,,,3,,,,,,,,,,Task,27,(3/3) + 2,3,,,,,,,,,,,,,,,,,,1,,,,,,,,,,,,,,,,,,,,,,,,"[""3""]",1,[2.58869999998808],0,1,1,26,1,,,,,,,,,,,,,,,,,,
,,,,,,,,,,5e66bf9f0df257000ce28048,21,Mężczyzna,2022-06-10_12h58.38.107,task,2021.1.4,Win32,59.96282305,628b806c463b948bc644b84f,62a323d011e0f7a4aadae375,,,,,,,,,,X V Q F H G B L J M P D K C T S W R N Z,,,,,,,,,,,,,,,,,,,,,,,,,,,,,,,,,,,,,,,,,,,,,,,,,,,,,,,,,,,,,,,,,,,,,,,,,,,,0,0,0,0,1,,,,,,,,,,,,,
,,,,,,,,,,5e66bf9f0df257000ce28048,21,Mężczyzna,2022-06-10_12h58.38.107,task,2021.1.4,Win32,59.96282305,628b806c463b948bc644b84f,62a323d011e0f7a4aadae375,,,,,,,,,,,,,,,,,,,,,,,7,,,,,,,,,,Task,36,(8/4) + 3,5,,,,,,,,,,,,,,,,,,0,,,,,,,,,,,,,,,,,,,,,,,,"[""7""]",0,[1.73860000002378],0,0,0,35,1,,,,,,,,,,,,,,,,,,
,,,,,,,,,,5e66bf9f0df257000ce28048,21,Mężczyzna,2022-06-10_12h58.38.107,task,2021.1.4,Win32,59.96282305,628b806c463b948bc644b84f,62a323d011e0f7a4aadae375,,,,,,,,,,,,,,,,,,,,,,,4,,,,,,,,,,Task,4,(1x5) - 1,4,,,,,,,,,,,,,,,,,,1,,,,,,,,,,,,,,,,,,,,,,,,"[""4""]",1,[2.73780000001193],0,1,1,3,1,,,,,,,,,,,,,,,,,,
,,,,,,,,,,5e66bf9f0df257000ce28048,21,Mężczyzna,2022-06-10_12h58.38.107,task,2021.1.4,Win32,59.96282305,628b806c463b948bc644b84f,62a323d011e0f7a4aadae375,,,,,,,,,,X V Q F H G B L J M P D K C T S W R N Z,,,,,,,,,,,,,,,,,,,,,,,,,,,,,,,,,,,,,,,,,,,,,,,,,,,,,,,,,,,,,,,,,,,,,,,,,,,,1,0,1,0,1,,,,,,,,,,,,,
,,,,,,,,,,5e66bf9f0df257000ce28048,21,Mężczyzna,2022-06-10_12h58.38.107,task,2021.1.4,Win32,59.96282305,628b806c463b948bc644b84f,62a323d011e0f7a4aadae375,,,,,,,,,,,,,,,,,,,,,,,3,,,,,,,,,,Task,20,(18/9) + 1,3,,,,,,,,,,,,,,,,,,1,,,,,,,,,,,,,,,,,,,,,,,,"[""3""]",1,[1.551199999988171],0,0,0,19,1,,,,,,,,,,,,,,,,,,
,,,,,,,,,,5e66bf9f0df257000ce28048,21,Mężczyzna,2022-06-10_12h58.38.107,task,2021.1.4,Win32,59.96282305,628b806c463b948bc644b84f,62a323d011e0f7a4aadae375,,,,,,,,,,X V Q F H G B L J M P D K C T S W R N Z,,,,,,,,,,,,,,,,,,,,,,,,,,,,,,,,,,,,,,,,,,,,,,,,,,,,,,,,,,,,,,,,,,,,,,,,,,,,2,0,2,0,1,,,,,,,,,,,,,
,,,,,,,,,,5e66bf9f0df257000ce28048,21,Mężczyzna,2022-06-10_12h58.38.107,task,2021.1.4,Win32,59.96282305,628b806c463b948bc644b84f,62a323d011e0f7a4aadae375,,,,,,,,,,,,,,,,,,,,,,,9,,,,,,,,,,Task,40,(7x2) - 5,9,,,,,,,,,,,,,,,,,,1,,,,,,,,,,,,,,,,,,,,,,,,"[""9""]",1,[2.0287000000477065],0,0,0,39,1,,,,,,,,,,,,,,,,,,
,,,,,,,,,,5e66bf9f0df257000ce28048,21,Mężczyzna,2022-06-10_12h58.38.107,task,2021.1.4,Win32,59.96282305,628b806c463b948bc644b84f,62a323d011e0f7a4aadae375,,,,,,,,,,X V Q F H G B L J M P D K C T S W R N Z,,,,,,,,,,,,,,,,,,,,,,,,,,,,,,,,,,,,,,,,,,,,,,,,,,,,,,,,,,,,,,,,,,,,,,,,,,,,3,0,3,0,1,,,,,,,,,,,,,
,,,,,,,,,,5e66bf9f0df257000ce28048,21,Mężczyzna,2022-06-10_12h58.38.107,task,2021.1.4,Win32,59.96282305,628b806c463b948bc644b84f,62a323d011e0f7a4aadae375,,,,,,,,,,,,,,,,,,,,,,,2,,,,,,,,,,Task,10,(2x5) - 8,2,,,,,,,,,,,,,,,,,,1,,,,,,,,,,,,,,,,,,,,,,,,"[""2""]",1,[1.8704000000358292],0,0,0,9,1,,,,,,,,,,,,,,,,,,
,,,,,,,,,,5e66bf9f0df257000ce28048,21,Mężczyzna,2022-06-10_12h58.38.107,task,2021.1.4,Win32,59.96282305,628b806c463b948bc644b84f,62a323d011e0f7a4aadae375,,,,,,,,,,X V Q F H G B L J M P D K C T S W R N Z,,,,,,,,,,,,,,,,,,,,,,,,,,,,,,,,,,,,,,,,,,,,,,,,,,,,,,,,,,,,,,,,,,,,,,,,,,,,4,0,4,0,1,,,,,,,,,,,,,
,,,,,,,,,,5e66bf9f0df257000ce28048,21,Mężczyzna,2022-06-10_12h58.38.107,task,2021.1.4,Win32,59.96282305,628b806c463b948bc644b84f,62a323d011e0f7a4aadae375,,,,,,,,,,,,,,,,,,,,,,,8,,,,,,,,,,Task,39,(5x3) - 7,8,,,,,,,,,,,,,,,,,,1,,,,,,,,,,,,,,,,,,,,,,,,"[""8""]",1,[5.159199999988118],0,0,0,38,1,,,,,,,,,,,,,,,,,,
,,,,,,,,,,5e66bf9f0df257000ce28048,21,Mężczyzna,2022-06-10_12h58.38.107,task,2021.1.4,Win32,59.96282305,628b806c463b948bc644b84f,62a323d011e0f7a4aadae375,,,,,,,,,,X V Q F H G B L J M P D K C T S W R N Z,,,,,,,,,,,,,,,,,,,,,,,,,,,,,,,,,,,,,,,,,,,,,,,,,,,,,,,,,,,,,,,,,,,,,,,,,,,,5,0,5,0,1,,,,,,,,,,,,,
,,,,,,,,,,5e66bf9f0df257000ce28048,21,Mężczyzna,2022-06-10_12h58.38.107,task,2021.1.4,Win32,59.96282305,628b806c463b948bc644b84f,62a323d011e0f7a4aadae375,,,,,,,,,,,,,,,,,,,,,,,,,,,,,,,,,,,,,,,,,,,,,,,,,,,,,,,,,,,,,,,,,,,,,,,,,,,,,,,,,,,,,,,,,,,rgjpzs,"[""r"",""g"",""j"",""p"",""z"",""s""]",0,"[1.3698000000118782,1.8720999999642345,2.471899999976131,2.889499999999998,3.5285999999642854,3.776499999999942,4.232099999964248]",1,RGJPZS,6,0,6,0,1,,
,,,,,,,,,,5e66bf9f0df257000ce28048,21,Mężczyzna,2022-06-10_12h58.38.107,task,2021.1.4,Win32,59.96282305,628b806c463b948bc644b84f,62a323d011e0f7a4aadae375,,,,,,,,,,,,,,,,,,,,,,,9,,,,,,,,,,Task,24,(2x2) + 5,9,,,,,,,,,,,,,,,,,,1,,,,,,,,,,,,,,,,,,,,,,,,"[""9""]",1,[2.1766999999880454],0,0,0,23,1,,,,,,,,,,,,,,,,,,
,,,,,,,,,,5e66bf9f0df257000ce28048,21,Mężczyzna,2022-06-10_12h58.38.107,task,2021.1.4,Win32,59.96282305,628b806c463b948bc644b84f,62a323d011e0f7a4aadae375,,,,,,,,,,X V Q F H G B L J M P D K C T S W R N Z,,,,,,,,,,,,,,,,,,,,,,,,,,,,,,,,,,,,,,,,,,,,,,,,,,,,,,,,,,,,,,,,,,,,,,,,,,,,0,0,0,0,1,,,,,,,,,,,,,
,,,,,,,,,,5e66bf9f0df257000ce28048,21,Mężczyzna,2022-06-10_12h58.38.107,task,2021.1.4,Win32,59.96282305,628b806c463b948bc644b84f,62a323d011e0f7a4aadae375,,,,,,,,,,,,,,,,,,,,,,,6,,,,,,,,,,Task,30,(6/3) + 4 ,6,,,,,,,,,,,,,,,,,,1,,,,,,,,,,,,,,,,,,,,,,,,"[""6""]",1,[2.8428999999761118],0,0,0,29,1,,,,,,,,,,,,,,,,,,
,,,,,,,,,,5e66bf9f0df257000ce28048,21,Mężczyzna,2022-06-10_12h58.38.107,task,2021.1.4,Win32,59.96282305,628b806c463b948bc644b84f,62a323d011e0f7a4aadae375,,,,,,,,,,X V Q F H G B L J M P D K C T S W R N Z,,,,,,,,,,,,,,,,,,,,,,,,,,,,,,,,,,,,,,,,,,,,,,,,,,,,,,,,,,,,,,,,,,,,,,,,,,,,1,0,1,0,1,,,,,,,,,,,,,
,,,,,,,,,,5e66bf9f0df257000ce28048,21,Mężczyzna,2022-06-10_12h58.38.107,task,2021.1.4,Win32,59.96282305,628b806c463b948bc644b84f,62a323d011e0f7a4aadae375,,,,,,,,,,,,,,,,,,,,,,,7,,,,,,,,,,Task,31,(4/2) + 5,7,,,,,,,,,,,,,,,,,,1,,,,,,,,,,,,,,,,,,,,,,,,"[""7""]",1,[2.3700000000000045],0,0,0,30,1,,,,,,,,,,,,,,,,,,
,,,,,,,,,,5e66bf9f0df257000ce28048,21,Mężczyzna,2022-06-10_12h58.38.107,task,2021.1.4,Win32,59.96282305,628b806c463b948bc644b84f,62a323d011e0f7a4aadae375,,,,,,,,,,X V Q F H G B L J M P D K C T S W R N Z,,,,,,,,,,,,,,,,,,,,,,,,,,,,,,,,,,,,,,,,,,,,,,,,,,,,,,,,,,,,,,,,,,,,,,,,,,,,2,0,2,0,1,,,,,,,,,,,,,
,,,,,,,,,,5e66bf9f0df257000ce28048,21,Mężczyzna,2022-06-10_12h58.38.107,task,2021.1.4,Win32,59.96282305,628b806c463b948bc644b84f,62a323d011e0f7a4aadae375,,,,,,,,,,,,,,,,,,,,,,,4,,,,,,,,,,Task,28,(2x5) - 6,4,,,,,,,,,,,,,,,,,,1,,,,,,,,,,,,,,,,,,,,,,,,"[""4""]",1,[1.9061999999880754],0,0,0,27,1,,,,,,,,,,,,,,,,,,
,,,,,,,,,,5e66bf9f0df257000ce28048,21,Mężczyzna,2022-06-10_12h58.38.107,task,2021.1.4,Win32,59.96282305,628b806c463b948bc644b84f,62a323d011e0f7a4aadae375,,,,,,,,,,X V Q F H G B L J M P D K C T S W R N Z,,,,,,,,,,,,,,,,,,,,,,,,,,,,,,,,,,,,,,,,,,,,,,,,,,,,,,,,,,,,,,,,,,,,,,,,,,,,3,0,3,0,1,,,,,,,,,,,,,
,,,,,,,,,,5e66bf9f0df257000ce28048,21,Mężczyzna,2022-06-10_12h58.38.107,task,2021.1.4,Win32,59.96282305,628b806c463b948bc644b84f,62a323d011e0f7a4aadae375,,,,,,,,,,,,,,,,,,,,,,,6,,,,,,,,,,Task,13,(3x4) - 6,6,,,,,,,,,,,,,,,,,,1,,,,,,,,,,,,,,,,,,,,,,,,"[""6""]",1,[2.3713000000119564],0,0,0,12,1,,,,,,,,,,,,,,,,,,
,,,,,,,,,,5e66bf9f0df257000ce28048,21,Mężczyzna,2022-06-10_12h58.38.107,task,2021.1.4,Win32,59.96282305,628b806c463b948bc644b84f,62a323d011e0f7a4aadae375,,,,,,,,,,X V Q F H G B L J M P D K C T S W R N Z,,,,,,,,,,,,,,,,,,,,,,,,,,,,,,,,,,,,,,,,,,,,,,,,,,,,,,,,,,,,,,,,,,,,,,,,,,,,4,0,4,0,1,,,,,,,,,,,,,
,,,,,,,,,,5e66bf9f0df257000ce28048,21,Mężczyzna,2022-06-10_12h58.38.107,task,2021.1.4,Win32,59.96282305,628b806c463b948bc644b84f,62a323d011e0f7a4aadae375,,,,,,,,,,,,,,,,,,,,,,,8,,,,,,,,,,Task,15,(3x7) - 13,8,,,,,,,,,,,,,,,,,,1,,,,,,,,,,,,,,,,,,,,,,,,"[""8""]",1,[4.428600000023835],0,0,0,14,1,,,,,,,,,,,,,,,,,,
,,,,,,,,,,5e66bf9f0df257000ce28048,21,Mężczyzna,2022-06-10_12h58.38.107,task,2021.1.4,Win32,59.96282305,628b806c463b948bc644b84f,62a323d011e0f7a4aadae375,,,,,,,,,,X V Q F H G B L J M P D K C T S W R N Z,,,,,,,,,,,,,,,,,,,,,,,,,,,,,,,,,,,,,,,,,,,,,,,,,,,,,,,,,,,,,,,,,,,,,,,,,,,,5,0,5,0,1,,,,,,,,,,,,,
,,,,,,,,,,5e66bf9f0df257000ce28048,21,Mężczyzna,2022-06-10_12h58.38.107,task,2021.1.4,Win32,59.96282305,628b806c463b948bc644b84f,62a323d011e0f7a4aadae375,,,,,,,,,,,,,,,,,,,,,,,8,,,,,,,,,,Task,25,(10/5) - 2,0,,,,,,,,,,,,,,,,,,0,,,,,,,,,,,,,,,,,,,,,,,,"[""8""]",0,[2.583899999976097],0,0,0,24,1,,,,,,,,,,,,,,,,,,
,,,,,,,,,,5e66bf9f0df257000ce28048,21,Mężczyzna,2022-06-10_12h58.38.107,task,2021.1.4,Win32,59.96282305,628b806c463b948bc644b84f,62a323d011e0f7a4aadae375,,,,,,,,,,,,,,,,,,,,,,,7,,,,,,,,,,Task,36,(8/4) + 3,5,,,,,,,,,,,,,,,,,,0,,,,,,,,,,,,,,,,,,,,,,,,"[""7""]",0,[2.02539999997623],0,1,1,35,1,,,,,,,,,,,,,,,,,,
,,,,,,,,,,5e66bf9f0df257000ce28048,21,Mężczyzna,2022-06-10_12h58.38.107,task,2021.1.4,Win32,59.96282305,628b806c463b948bc644b84f,62a323d011e0f7a4aadae375,,,,,,,,,,,,,,,,,,,,,,,5,,,,,,,,,,Task,12,(4x4) - 11,5,,,,,,,,,,,,,,,,,,1,,,,,,,,,,,,,,,,,,,,,,,,"[""5""]",1,[1.9413000000118927],0,2,2,11,1,,,,,,,,,,,,,,,,,,
,,,,,,,,,,5e66bf9f0df257000ce28048,21,Mężczyzna,2022-06-10_12h58.38.107,task,2021.1.4,Win32,59.96282305,628b806c463b948bc644b84f,62a323d011e0f7a4aadae375,,,,,,,,,,X V Q F H G B L J M P D K C T S W R N Z,,,,,,,,,,,,,,,,,,,,,,,,,,,,,,,,,,,,,,,,,,,,,,,,,,,,,,,,,,,,,,,,,,,,,,,,,,,,6,0,6,0,1,,,,,,,,,,,,,
,,,,,,,,,,5e66bf9f0df257000ce28048,21,Mężczyzna,2022-06-10_12h58.38.107,task,2021.1.4,Win32,59.96282305,628b806c463b948bc644b84f,62a323d011e0f7a4aadae375,,,,,,,,,,,,,,,,,,,,,,,,,,,,,,,,,,,,,,,,,,,,,,,,,,,,,,,,,,,,,,,,,,,,,,,,,,,,,,,,,,,,,,,,,,,,[],0,[1.114500000000021],0,JWFRPQT,7,0,7,0,1,,
,,,,,,,,,,5e66bf9f0df257000ce28048,21,Mężczyzna,2022-06-10_12h58.38.107,task,2021.1.4,Win32,59.96282305,628b806c463b948bc644b84f,62a323d011e0f7a4aadae375,,,,,,,,,,,,,,,,,,,,,,,8,,,,,,,,,,Task,32,(8/2) + 4,8,,,,,,,,,,,,,,,,,,1,,,,,,,,,,,,,,,,,,,,,,,,"[""8""]",1,[3.168300000011868],0,0,0,31,1,,,,,,,,,,,,,,,,,,
,,,,,,,,,,5e66bf9f0df257000ce28048,21,Mężczyzna,2022-06-10_12h58.38.107,task,2021.1.4,Win32,59.96282305,628b806c463b948bc644b84f,62a323d011e0f7a4aadae375,,,,,,,,,,X V Q F H G B L J M P D K C T S W R N Z,,,,,,,,,,,,,,,,,,,,,,,,,,,,,,,,,,,,,,,,,,,,,,,,,,,,,,,,,,,,,,,,,,,,,,,,,,,,0,0,0,0,1,,,,,,,,,,,,,
,,,,,,,,,,5e66bf9f0df257000ce28048,21,Mężczyzna,2022-06-10_12h58.38.107,task,2021.1.4,Win32,59.96282305,628b806c463b948bc644b84f,62a323d011e0f7a4aadae375,,,,,,,,,,,,,,,,,,,,,,,8,,,,,,,,,,Task,15,(3x7) - 13,8,,,,,,,,,,,,,,,,,,1,,,,,,,,,,,,,,,,,,,,,,,,"[""8""]",1,[2.655100000023822],0,0,0,14,1,,,,,,,,,,,,,,,,,,
,,,,,,,,,,5e66bf9f0df257000ce28048,21,Mężczyzna,2022-06-10_12h58.38.107,task,2021.1.4,Win32,59.96282305,628b806c463b948bc644b84f,62a323d011e0f7a4aadae375,,,,,,,,,,X V Q F H G B L J M P D K C T S W R N Z,,,,,,,,,,,,,,,,,,,,,,,,,,,,,,,,,,,,,,,,,,,,,,,,,,,,,,,,,,,,,,,,,,,,,,,,,,,,1,0,1,0,1,,,,,,,,,,,,,
,,,,,,,,,,5e66bf9f0df257000ce28048,21,Mężczyzna,2022-06-10_12h58.38.107,task,2021.1.4,Win32,59.96282305,628b806c463b948bc644b84f,62a323d011e0f7a4aadae375,,,,,,,,,,,,,,,,,,,,,,,6,,,,,,,,,,Task,30,(6/3) + 4 ,6,,,,,,,,,,,,,,,,,,1,,,,,,,,,,,,,,,,,,,,,,,,"[""6""]",1,[4.023500000000013],0,0,0,29,1,,,,,,,,,,,,,,,,,,
,,,,,,,,,,5e66bf9f0df257000ce28048,21,Mężczyzna,2022-06-10_12h58.38.107,task,2021.1.4,Win32,59.96282305,628b806c463b948bc644b84f,62a323d011e0f7a4aadae375,,,,,,,,,,X V Q F H G B L J M P D K C T S W R N Z,,,,,,,,,,,,,,,,,,,,,,,,,,,,,,,,,,,,,,,,,,,,,,,,,,,,,,,,,,,,,,,,,,,,,,,,,,,,2,0,2,0,1,,,,,,,,,,,,,
,,,,,,,,,,5e66bf9f0df257000ce28048,21,Mężczyzna,2022-06-10_12h58.38.107,task,2021.1.4,Win32,59.96282305,628b806c463b948bc644b84f,62a323d011e0f7a4aadae375,,,,,,,,,,,,,,,,,,,,,,,2,,,,,,,,,,Task,26,(2x9) - 16,2,,,,,,,,,,,,,,,,,,1,,,,,,,,,,,,,,,,,,,,,,,,"[""2""]",1,[2.9428999999761345],0,0,0,25,1,,,,,,,,,,,,,,,,,,
,,,,,,,,,,5e66bf9f0df257000ce28048,21,Mężczyzna,2022-06-10_12h58.38.107,task,2021.1.4,Win32,59.96282305,628b806c463b948bc644b84f,62a323d011e0f7a4aadae375,,,,,,,,,,X V Q F H G B L J M P D K C T S W R N Z,,,,,,,,,,,,,,,,,,,,,,,,,,,,,,,,,,,,,,,,,,,,,,,,,,,,,,,,,,,,,,,,,,,,,,,,,,,,3,0,3,0,1,,,,,,,,,,,,,
,,,,,,,,,,5e66bf9f0df257000ce28048,21,Mężczyzna,2022-06-10_12h58.38.107,task,2021.1.4,Win32,59.96282305,628b806c463b948bc644b84f,62a323d011e0f7a4aadae375,,,,,,,,,,,,,,,,,,,,,,,1,,,,,,,,,,Task,34,(9/3) - 2,1,,,,,,,,,,,,,,,,,,1,,,,,,,,,,,,,,,,,,,,,,,,"[""1""]",1,[2.1260999999642536],0,0,0,33,1,,,,,,,,,,,,,,,,,,
,,,,,,,,,,5e66bf9f0df257000ce28048,21,Mężczyzna,2022-06-10_12h58.38.107,task,2021.1.4,Win32,59.96282305,628b806c463b948bc644b84f,62a323d011e0f7a4aadae375,,,,,,,,,,X V Q F H G B L J M P D K C T S W R N Z,,,,,,,,,,,,,,,,,,,,,,,,,,,,,,,,,,,,,,,,,,,,,,,,,,,,,,,,,,,,,,,,,,,,,,,,,,,,4,0,4,0,1,,,,,,,,,,,,,
,,,,,,,,,,5e66bf9f0df257000ce28048,21,Mężczyzna,2022-06-10_12h58.38.107,task,2021.1.4,Win32,59.96282305,628b806c463b948bc644b84f,62a323d011e0f7a4aadae375,,,,,,,,,,,,,,,,,,,,,,,5,,,,,,,,,,Task,36,(8/4) + 3,5,,,,,,,,,,,,,,,,,,1,,,,,,,,,,,,,,,,,,,,,,,,"[""5""]",1,[3.742999999999938],0,0,0,35,1,,,,,,,,,,,,,,,,,,
,,,,,,,,,,5e66bf9f0df257000ce28048,21,Mężczyzna,2022-06-10_12h58.38.107,task,2021.1.4,Win32,59.96282305,628b806c463b948bc644b84f,62a323d011e0f7a4aadae375,,,,,,,,,,X V Q F H G B L J M P D K C T S W R N Z,,,,,,,,,,,,,,,,,,,,,,,,,,,,,,,,,,,,,,,,,,,,,,,,,,,,,,,,,,,,,,,,,,,,,,,,,,,,5,0,5,0,1,,,,,,,,,,,,,
,,,,,,,,,,5e66bf9f0df257000ce28048,21,Mężczyzna,2022-06-10_12h58.38.107,task,2021.1.4,Win32,59.96282305,628b806c463b948bc644b84f,62a323d011e0f7a4aadae375,,,,,,,,,,,,,,,,,,,,,,,7,,,,,,,,,,Task,31,(4/2) + 5,7,,,,,,,,,,,,,,,,,,1,,,,,,,,,,,,,,,,,,,,,,,,"[""7""]",1,[4.172300000011887],0,0,0,30,1,,,,,,,,,,,,,,,,,,
