key_resp_15.keys,key_resp_15.rt,key_resp_13.keys,key_resp_13.corr,key_resp_13.rt,ranodm_loop.thisRepN,ranodm_loop.thisTrialN,ranodm_loop.thisN,ranodm_loop.thisIndex,ranodm_loop.ran,participant,Wiek*,Płeć,date,expName,psychopyVersion,OS,frameRate,study_id,session,key_resp_16.keys,key_resp_16.rt,key_resp_4.keys,key_resp_4.rt,next_letter.thisRepN,next_letter.thisTrialN,next_letter.thisN,next_letter.thisIndex,next_letter.ran,letter,simple_recall,key_resp_5.keys,key_resp_5.rt,simple_recall_corr,simple_recall_corrkeys,next_level.thisRepN,next_level.thisTrialN,next_level.thisN,next_level.thisIndex,next_level.ran,key_resp_2.keys,key_resp_2.rt,digit_answer,key_resp.keys,key_resp.corr,key_resp.rt,RT_list,next_equation.thisRepN,next_equation.thisTrialN,next_equation.thisN,next_equation.thisIndex,next_equation.ran,Task,Trial,Problem,Operation_answer,processing_score,sumRT,meanRT,sumdiff,sd,RT,key_resp_3.keys,key_resp_3.rt,repeat_practice.thisRepN,repeat_practice.thisTrialN,repeat_practice.thisN,repeat_practice.thisIndex,repeat_practice.ran,key_resp_6.keys,key_resp_6.rt,key_resp_11.keys,key_resp_11.corr,key_resp_11.rt,operation_correct,repeat_if_wrong_prac.thisRepN,repeat_if_wrong_prac.thisTrialN,repeat_if_wrong_prac.thisN,repeat_if_wrong_prac.thisIndex,repeat_if_wrong_prac.ran,span_size_prac.thisRepN,span_size_prac.thisTrialN,span_size_prac.thisN,span_size_prac.thisIndex,span_size_prac.ran,complex_recall_practice,key_resp_9.keys,key_resp_9.corr,key_resp_9.rt,complex_prac_corr,span_recall_prac.thisRepN,span_recall_prac.thisTrialN,span_recall_prac.thisN,span_recall_prac.thisIndex,span_recall_prac.ran,key_resp_10.keys,key_resp_10.rt,key_resp_7.keys,key_resp_7.corr,repeat_if_wrong.thisRepN,repeat_if_wrong.thisTrialN,repeat_if_wrong.thisN,repeat_if_wrong.thisIndex,repeat_if_wrong.ran,key_resp_7.rt,span_size.thisRepN,span_size.thisTrialN,span_size.thisN,span_size.thisIndex,span_size.ran,complex_recall,key_resp_8.keys,key_resp_8.corr,key_resp_8.rt,complex_recall_corr,complex_recall_corrkeys,span_recall.thisRepN,span_recall.thisTrialN,span_recall.thisN,span_recall.thisIndex,span_recall.ran,key_resp_12.keys,key_resp_12.rt
space,18.7153,"[""comma""]",0,[1.1407999999523213],0,0,0,0,1,5e6754dfd71cf94cfde2ffcd,20,Mężczyzna,2022-06-04_08h29.47.490,task,2021.1.4,Win32,74.77753683,628b806c463b948bc644b84f,629afb930ad20e31afa64adf,,,,,,,,,,,,,,,,,,,,,,,,,,,,,,,,,,,,,,,,,,,,,,,,,,,,,,,,,,,,,,,,,,,,,,,,,,,,,,,,,,,,,,,,,,,,,,,,,,,,,,,
,,"[""comma""]",0,[0.5402000000476903],1,0,1,0,1,5e6754dfd71cf94cfde2ffcd,20,Mężczyzna,2022-06-04_08h29.47.490,task,2021.1.4,Win32,74.77753683,628b806c463b948bc644b84f,629afb930ad20e31afa64adf,,,,,,,,,,,,,,,,,,,,,,,,,,,,,,,,,,,,,,,,,,,,,,,,,,,,,,,,,,,,,,,,,,,,,,,,,,,,,,,,,,,,,,,,,,,,,,,,,,,,,,,
,,"[""period""]",0,[0.28170000004767815],2,0,2,0,1,5e6754dfd71cf94cfde2ffcd,20,Mężczyzna,2022-06-04_08h29.47.490,task,2021.1.4,Win32,74.77753683,628b806c463b948bc644b84f,629afb930ad20e31afa64adf,,,,,,,,,,,,,,,,,,,,,,,,,,,,,,,,,,,,,,,,,,,,,,,,,,,,,,,,,,,,,,,,,,,,,,,,,,,,,,,,,,,,,,,,,,,,,,,,,,,,,,,
,,"[""comma""]",0,[0.5931000001430533],3,0,3,0,1,5e6754dfd71cf94cfde2ffcd,20,Mężczyzna,2022-06-04_08h29.47.490,task,2021.1.4,Win32,74.77753683,628b806c463b948bc644b84f,629afb930ad20e31afa64adf,,,,,,,,,,,,,,,,,,,,,,,,,,,,,,,,,,,,,,,,,,,,,,,,,,,,,,,,,,,,,,,,,,,,,,,,,,,,,,,,,,,,,,,,,,,,,,,,,,,,,,,
,,"[""period""]",0,[0.2922999999523199],4,0,4,0,1,5e6754dfd71cf94cfde2ffcd,20,Mężczyzna,2022-06-04_08h29.47.490,task,2021.1.4,Win32,74.77753683,628b806c463b948bc644b84f,629afb930ad20e31afa64adf,,,,,,,,,,,,,,,,,,,,,,,,,,,,,,,,,,,,,,,,,,,,,,,,,,,,,,,,,,,,,,,,,,,,,,,,,,,,,,,,,,,,,,,,,,,,,,,,,,,,,,,
,,"[""period""]",0,[0.278499999999994],5,0,5,0,1,5e6754dfd71cf94cfde2ffcd,20,Mężczyzna,2022-06-04_08h29.47.490,task,2021.1.4,Win32,74.77753683,628b806c463b948bc644b84f,629afb930ad20e31afa64adf,,,,,,,,,,,,,,,,,,,,,,,,,,,,,,,,,,,,,,,,,,,,,,,,,,,,,,,,,,,,,,,,,,,,,,,,,,,,,,,,,,,,,,,,,,,,,,,,,,,,,,,
,,"[""period""]",0,[0.28690000009537187],6,0,6,0,1,5e6754dfd71cf94cfde2ffcd,20,Mężczyzna,2022-06-04_08h29.47.490,task,2021.1.4,Win32,74.77753683,628b806c463b948bc644b84f,629afb930ad20e31afa64adf,,,,,,,,,,,,,,,,,,,,,,,,,,,,,,,,,,,,,,,,,,,,,,,,,,,,,,,,,,,,,,,,,,,,,,,,,,,,,,,,,,,,,,,,,,,,,,,,,,,,,,,
,,"[""comma""]",0,[0.3352999999523263],7,0,7,0,1,5e6754dfd71cf94cfde2ffcd,20,Mężczyzna,2022-06-04_08h29.47.490,task,2021.1.4,Win32,74.77753683,628b806c463b948bc644b84f,629afb930ad20e31afa64adf,,,,,,,,,,,,,,,,,,,,,,,,,,,,,,,,,,,,,,,,,,,,,,,,,,,,,,,,,,,,,,,,,,,,,,,,,,,,,,,,,,,,,,,,,,,,,,,,,,,,,,,
,,"[""period""]",0,[0.2669999999999959],8,0,8,0,1,5e6754dfd71cf94cfde2ffcd,20,Mężczyzna,2022-06-04_08h29.47.490,task,2021.1.4,Win32,74.77753683,628b806c463b948bc644b84f,629afb930ad20e31afa64adf,,,,,,,,,,,,,,,,,,,,,,,,,,,,,,,,,,,,,,,,,,,,,,,,,,,,,,,,,,,,,,,,,,,,,,,,,,,,,,,,,,,,,,,,,,,,,,,,,,,,,,,
,,"[""comma""]",0,[0.2678999998569509],9,0,9,0,1,5e6754dfd71cf94cfde2ffcd,20,Mężczyzna,2022-06-04_08h29.47.490,task,2021.1.4,Win32,74.77753683,628b806c463b948bc644b84f,629afb930ad20e31afa64adf,,,,,,,,,,,,,,,,,,,,,,,,,,,,,,,,,,,,,,,,,,,,,,,,,,,,,,,,,,,,,,,,,,,,,,,,,,,,,,,,,,,,,,,,,,,,,,,,,,,,,,,
,,"[""comma""]",0,[0.2539999999999907],10,0,10,0,1,5e6754dfd71cf94cfde2ffcd,20,Mężczyzna,2022-06-04_08h29.47.490,task,2021.1.4,Win32,74.77753683,628b806c463b948bc644b84f,629afb930ad20e31afa64adf,,,,,,,,,,,,,,,,,,,,,,,,,,,,,,,,,,,,,,,,,,,,,,,,,,,,,,,,,,,,,,,,,,,,,,,,,,,,,,,,,,,,,,,,,,,,,,,,,,,,,,,
,,"[""comma""]",0,[0.25709999990462507],11,0,11,0,1,5e6754dfd71cf94cfde2ffcd,20,Mężczyzna,2022-06-04_08h29.47.490,task,2021.1.4,Win32,74.77753683,628b806c463b948bc644b84f,629afb930ad20e31afa64adf,,,,,,,,,,,,,,,,,,,,,,,,,,,,,,,,,,,,,,,,,,,,,,,,,,,,,,,,,,,,,,,,,,,,,,,,,,,,,,,,,,,,,,,,,,,,,,,,,,,,,,,
,,"[""comma""]",0,[0.26700000000002433],12,0,12,0,1,5e6754dfd71cf94cfde2ffcd,20,Mężczyzna,2022-06-04_08h29.47.490,task,2021.1.4,Win32,74.77753683,628b806c463b948bc644b84f,629afb930ad20e31afa64adf,,,,,,,,,,,,,,,,,,,,,,,,,,,,,,,,,,,,,,,,,,,,,,,,,,,,,,,,,,,,,,,,,,,,,,,,,,,,,,,,,,,,,,,,,,,,,,,,,,,,,,,
,,"[""period""]",0,[0.2954000000953556],13,0,13,0,1,5e6754dfd71cf94cfde2ffcd,20,Mężczyzna,2022-06-04_08h29.47.490,task,2021.1.4,Win32,74.77753683,628b806c463b948bc644b84f,629afb930ad20e31afa64adf,,,,,,,,,,,,,,,,,,,,,,,,,,,,,,,,,,,,,,,,,,,,,,,,,,,,,,,,,,,,,,,,,,,,,,,,,,,,,,,,,,,,,,,,,,,,,,,,,,,,,,,
,,"[""comma""]",0,[0.5022000000476794],14,0,14,0,1,5e6754dfd71cf94cfde2ffcd,20,Mężczyzna,2022-06-04_08h29.47.490,task,2021.1.4,Win32,74.77753683,628b806c463b948bc644b84f,629afb930ad20e31afa64adf,,,,,,,,,,,,,,,,,,,,,,,,,,,,,,,,,,,,,,,,,,,,,,,,,,,,,,,,,,,,,,,,,,,,,,,,,,,,,,,,,,,,,,,,,,,,,,,,,,,,,,,
,,"[""period""]",0,[0.2951000001430657],15,0,15,0,1,5e6754dfd71cf94cfde2ffcd,20,Mężczyzna,2022-06-04_08h29.47.490,task,2021.1.4,Win32,74.77753683,628b806c463b948bc644b84f,629afb930ad20e31afa64adf,,,,,,,,,,,,,,,,,,,,,,,,,,,,,,,,,,,,,,,,,,,,,,,,,,,,,,,,,,,,,,,,,,,,,,,,,,,,,,,,,,,,,,,,,,,,,,,,,,,,,,,
,,"[""comma""]",0,[0.2692000000477037],16,0,16,0,1,5e6754dfd71cf94cfde2ffcd,20,Mężczyzna,2022-06-04_08h29.47.490,task,2021.1.4,Win32,74.77753683,628b806c463b948bc644b84f,629afb930ad20e31afa64adf,,,,,,,,,,,,,,,,,,,,,,,,,,,,,,,,,,,,,,,,,,,,,,,,,,,,,,,,,,,,,,,,,,,,,,,,,,,,,,,,,,,,,,,,,,,,,,,,,,,,,,,
,,"[""comma""]",0,[0.24129999995230378],17,0,17,0,1,5e6754dfd71cf94cfde2ffcd,20,Mężczyzna,2022-06-04_08h29.47.490,task,2021.1.4,Win32,74.77753683,628b806c463b948bc644b84f,629afb930ad20e31afa64adf,,,,,,,,,,,,,,,,,,,,,,,,,,,,,,,,,,,,,,,,,,,,,,,,,,,,,,,,,,,,,,,,,,,,,,,,,,,,,,,,,,,,,,,,,,,,,,,,,,,,,,,
,,"[""period""]",0,[0.25759999990461324],18,0,18,0,1,5e6754dfd71cf94cfde2ffcd,20,Mężczyzna,2022-06-04_08h29.47.490,task,2021.1.4,Win32,74.77753683,628b806c463b948bc644b84f,629afb930ad20e31afa64adf,,,,,,,,,,,,,,,,,,,,,,,,,,,,,,,,,,,,,,,,,,,,,,,,,,,,,,,,,,,,,,,,,,,,,,,,,,,,,,,,,,,,,,,,,,,,,,,,,,,,,,,
,,"[""comma""]",0,[0.1865999999046437],19,0,19,0,1,5e6754dfd71cf94cfde2ffcd,20,Mężczyzna,2022-06-04_08h29.47.490,task,2021.1.4,Win32,74.77753683,628b806c463b948bc644b84f,629afb930ad20e31afa64adf,,,,,,,,,,,,,,,,,,,,,,,,,,,,,,,,,,,,,,,,,,,,,,,,,,,,,,,,,,,,,,,,,,,,,,,,,,,,,,,,,,,,,,,,,,,,,,,,,,,,,,,
,,"[""period""]",0,[0.24929999995234198],20,0,20,0,1,5e6754dfd71cf94cfde2ffcd,20,Mężczyzna,2022-06-04_08h29.47.490,task,2021.1.4,Win32,74.77753683,628b806c463b948bc644b84f,629afb930ad20e31afa64adf,,,,,,,,,,,,,,,,,,,,,,,,,,,,,,,,,,,,,,,,,,,,,,,,,,,,,,,,,,,,,,,,,,,,,,,,,,,,,,,,,,,,,,,,,,,,,,,,,,,,,,,
,,"[""period""]",0,[0.2415999999046221],21,0,21,0,1,5e6754dfd71cf94cfde2ffcd,20,Mężczyzna,2022-06-04_08h29.47.490,task,2021.1.4,Win32,74.77753683,628b806c463b948bc644b84f,629afb930ad20e31afa64adf,,,,,,,,,,,,,,,,,,,,,,,,,,,,,,,,,,,,,,,,,,,,,,,,,,,,,,,,,,,,,,,,,,,,,,,,,,,,,,,,,,,,,,,,,,,,,,,,,,,,,,,
,,"[""period""]",0,[0.2429000000953465],22,0,22,0,1,5e6754dfd71cf94cfde2ffcd,20,Mężczyzna,2022-06-04_08h29.47.490,task,2021.1.4,Win32,74.77753683,628b806c463b948bc644b84f,629afb930ad20e31afa64adf,,,,,,,,,,,,,,,,,,,,,,,,,,,,,,,,,,,,,,,,,,,,,,,,,,,,,,,,,,,,,,,,,,,,,,,,,,,,,,,,,,,,,,,,,,,,,,,,,,,,,,,
,,"[""comma""]",0,[0.24150000000000205],23,0,23,0,1,5e6754dfd71cf94cfde2ffcd,20,Mężczyzna,2022-06-04_08h29.47.490,task,2021.1.4,Win32,74.77753683,628b806c463b948bc644b84f,629afb930ad20e31afa64adf,,,,,,,,,,,,,,,,,,,,,,,,,,,,,,,,,,,,,,,,,,,,,,,,,,,,,,,,,,,,,,,,,,,,,,,,,,,,,,,,,,,,,,,,,,,,,,,,,,,,,,,
,,"[""period""]",0,[0.22789999985695886],24,0,24,0,1,5e6754dfd71cf94cfde2ffcd,20,Mężczyzna,2022-06-04_08h29.47.490,task,2021.1.4,Win32,74.77753683,628b806c463b948bc644b84f,629afb930ad20e31afa64adf,,,,,,,,,,,,,,,,,,,,,,,,,,,,,,,,,,,,,,,,,,,,,,,,,,,,,,,,,,,,,,,,,,,,,,,,,,,,,,,,,,,,,,,,,,,,,,,,,,,,,,,
,,"[""comma""]",0,[0.24120000004768372],25,0,25,0,1,5e6754dfd71cf94cfde2ffcd,20,Mężczyzna,2022-06-04_08h29.47.490,task,2021.1.4,Win32,74.77753683,628b806c463b948bc644b84f,629afb930ad20e31afa64adf,,,,,,,,,,,,,,,,,,,,,,,,,,,,,,,,,,,,,,,,,,,,,,,,,,,,,,,,,,,,,,,,,,,,,,,,,,,,,,,,,,,,,,,,,,,,,,,,,,,,,,,
,,"[""period""]",0,[0.29710000014307525],26,0,26,0,1,5e6754dfd71cf94cfde2ffcd,20,Mężczyzna,2022-06-04_08h29.47.490,task,2021.1.4,Win32,74.77753683,628b806c463b948bc644b84f,629afb930ad20e31afa64adf,,,,,,,,,,,,,,,,,,,,,,,,,,,,,,,,,,,,,,,,,,,,,,,,,,,,,,,,,,,,,,,,,,,,,,,,,,,,,,,,,,,,,,,,,,,,,,,,,,,,,,,
,,"[""comma""]",0,[0.3085999999046294],27,0,27,0,1,5e6754dfd71cf94cfde2ffcd,20,Mężczyzna,2022-06-04_08h29.47.490,task,2021.1.4,Win32,74.77753683,628b806c463b948bc644b84f,629afb930ad20e31afa64adf,,,,,,,,,,,,,,,,,,,,,,,,,,,,,,,,,,,,,,,,,,,,,,,,,,,,,,,,,,,,,,,,,,,,,,,,,,,,,,,,,,,,,,,,,,,,,,,,,,,,,,,
,,"[""comma""]",0,[0.3081000001430425],28,0,28,0,1,5e6754dfd71cf94cfde2ffcd,20,Mężczyzna,2022-06-04_08h29.47.490,task,2021.1.4,Win32,74.77753683,628b806c463b948bc644b84f,629afb930ad20e31afa64adf,,,,,,,,,,,,,,,,,,,,,,,,,,,,,,,,,,,,,,,,,,,,,,,,,,,,,,,,,,,,,,,,,,,,,,,,,,,,,,,,,,,,,,,,,,,,,,,,,,,,,,,
,,"[""comma""]",0,[0.25589999985695044],29,0,29,0,1,5e6754dfd71cf94cfde2ffcd,20,Mężczyzna,2022-06-04_08h29.47.490,task,2021.1.4,Win32,74.77753683,628b806c463b948bc644b84f,629afb930ad20e31afa64adf,,,,,,,,,,,,,,,,,,,,,,,,,,,,,,,,,,,,,,,,,,,,,,,,,,,,,,,,,,,,,,,,,,,,,,,,,,,,,,,,,,,,,,,,,,,,,,,,,,,,,,,
,,"[""comma""]",0,[0.30829999995231105],30,0,30,0,1,5e6754dfd71cf94cfde2ffcd,20,Mężczyzna,2022-06-04_08h29.47.490,task,2021.1.4,Win32,74.77753683,628b806c463b948bc644b84f,629afb930ad20e31afa64adf,,,,,,,,,,,,,,,,,,,,,,,,,,,,,,,,,,,,,,,,,,,,,,,,,,,,,,,,,,,,,,,,,,,,,,,,,,,,,,,,,,,,,,,,,,,,,,,,,,,,,,,
,,"[""comma""]",0,[0.28260000014304865],31,0,31,0,1,5e6754dfd71cf94cfde2ffcd,20,Mężczyzna,2022-06-04_08h29.47.490,task,2021.1.4,Win32,74.77753683,628b806c463b948bc644b84f,629afb930ad20e31afa64adf,,,,,,,,,,,,,,,,,,,,,,,,,,,,,,,,,,,,,,,,,,,,,,,,,,,,,,,,,,,,,,,,,,,,,,,,,,,,,,,,,,,,,,,,,,,,,,,,,,,,,,,
,,"[""comma""]",0,[0.2547999999523256],32,0,32,0,1,5e6754dfd71cf94cfde2ffcd,20,Mężczyzna,2022-06-04_08h29.47.490,task,2021.1.4,Win32,74.77753683,628b806c463b948bc644b84f,629afb930ad20e31afa64adf,,,,,,,,,,,,,,,,,,,,,,,,,,,,,,,,,,,,,,,,,,,,,,,,,,,,,,,,,,,,,,,,,,,,,,,,,,,,,,,,,,,,,,,,,,,,,,,,,,,,,,,
,,"[""period""]",0,[0.25729999995232333],33,0,33,0,1,5e6754dfd71cf94cfde2ffcd,20,Mężczyzna,2022-06-04_08h29.47.490,task,2021.1.4,Win32,74.77753683,628b806c463b948bc644b84f,629afb930ad20e31afa64adf,,,,,,,,,,,,,,,,,,,,,,,,,,,,,,,,,,,,,,,,,,,,,,,,,,,,,,,,,,,,,,,,,,,,,,,,,,,,,,,,,,,,,,,,,,,,,,,,,,,,,,,
,,"[""period""]",0,[0.2828999998569657],34,0,34,0,1,5e6754dfd71cf94cfde2ffcd,20,Mężczyzna,2022-06-04_08h29.47.490,task,2021.1.4,Win32,74.77753683,628b806c463b948bc644b84f,629afb930ad20e31afa64adf,,,,,,,,,,,,,,,,,,,,,,,,,,,,,,,,,,,,,,,,,,,,,,,,,,,,,,,,,,,,,,,,,,,,,,,,,,,,,,,,,,,,,,,,,,,,,,,,,,,,,,,
,,"[""comma""]",0,[0.2692000000476753],35,0,35,0,1,5e6754dfd71cf94cfde2ffcd,20,Mężczyzna,2022-06-04_08h29.47.490,task,2021.1.4,Win32,74.77753683,628b806c463b948bc644b84f,629afb930ad20e31afa64adf,,,,,,,,,,,,,,,,,,,,,,,,,,,,,,,,,,,,,,,,,,,,,,,,,,,,,,,,,,,,,,,,,,,,,,,,,,,,,,,,,,,,,,,,,,,,,,,,,,,,,,,
,,"[""comma""]",0,[0.2683999998569391],36,0,36,0,1,5e6754dfd71cf94cfde2ffcd,20,Mężczyzna,2022-06-04_08h29.47.490,task,2021.1.4,Win32,74.77753683,628b806c463b948bc644b84f,629afb930ad20e31afa64adf,,,,,,,,,,,,,,,,,,,,,,,,,,,,,,,,,,,,,,,,,,,,,,,,,,,,,,,,,,,,,,,,,,,,,,,,,,,,,,,,,,,,,,,,,,,,,,,,,,,,,,,
,,"[""period""]",0,[0.25499999999999545],37,0,37,0,1,5e6754dfd71cf94cfde2ffcd,20,Mężczyzna,2022-06-04_08h29.47.490,task,2021.1.4,Win32,74.77753683,628b806c463b948bc644b84f,629afb930ad20e31afa64adf,,,,,,,,,,,,,,,,,,,,,,,,,,,,,,,,,,,,,,,,,,,,,,,,,,,,,,,,,,,,,,,,,,,,,,,,,,,,,,,,,,,,,,,,,,,,,,,,,,,,,,,
,,"[""period""]",0,[0.22520000004769258],38,0,38,0,1,5e6754dfd71cf94cfde2ffcd,20,Mężczyzna,2022-06-04_08h29.47.490,task,2021.1.4,Win32,74.77753683,628b806c463b948bc644b84f,629afb930ad20e31afa64adf,,,,,,,,,,,,,,,,,,,,,,,,,,,,,,,,,,,,,,,,,,,,,,,,,,,,,,,,,,,,,,,,,,,,,,,,,,,,,,,,,,,,,,,,,,,,,,,,,,,,,,,
,,"[""period""]",0,[0.23059999990462643],39,0,39,0,1,5e6754dfd71cf94cfde2ffcd,20,Mężczyzna,2022-06-04_08h29.47.490,task,2021.1.4,Win32,74.77753683,628b806c463b948bc644b84f,629afb930ad20e31afa64adf,,,,,,,,,,,,,,,,,,,,,,,,,,,,,,,,,,,,,,,,,,,,,,,,,,,,,,,,,,,,,,,,,,,,,,,,,,,,,,,,,,,,,,,,,,,,,,,,,,,,,,,
,,"[""comma""]",0,[0.24190000009537016],40,0,40,0,1,5e6754dfd71cf94cfde2ffcd,20,Mężczyzna,2022-06-04_08h29.47.490,task,2021.1.4,Win32,74.77753683,628b806c463b948bc644b84f,629afb930ad20e31afa64adf,,,,,,,,,,,,,,,,,,,,,,,,,,,,,,,,,,,,,,,,,,,,,,,,,,,,,,,,,,,,,,,,,,,,,,,,,,,,,,,,,,,,,,,,,,,,,,,,,,,,,,,
,,"[""period""]",0,[0.2282000000476785],41,0,41,0,1,5e6754dfd71cf94cfde2ffcd,20,Mężczyzna,2022-06-04_08h29.47.490,task,2021.1.4,Win32,74.77753683,628b806c463b948bc644b84f,629afb930ad20e31afa64adf,,,,,,,,,,,,,,,,,,,,,,,,,,,,,,,,,,,,,,,,,,,,,,,,,,,,,,,,,,,,,,,,,,,,,,,,,,,,,,,,,,,,,,,,,,,,,,,,,,,,,,,
,,"[""comma""]",0,[0.29429999995230105],42,0,42,0,1,5e6754dfd71cf94cfde2ffcd,20,Mężczyzna,2022-06-04_08h29.47.490,task,2021.1.4,Win32,74.77753683,628b806c463b948bc644b84f,629afb930ad20e31afa64adf,,,,,,,,,,,,,,,,,,,,,,,,,,,,,,,,,,,,,,,,,,,,,,,,,,,,,,,,,,,,,,,,,,,,,,,,,,,,,,,,,,,,,,,,,,,,,,,,,,,,,,,
,,"[""period""]",0,[0.2824000000953504],43,0,43,0,1,5e6754dfd71cf94cfde2ffcd,20,Mężczyzna,2022-06-04_08h29.47.490,task,2021.1.4,Win32,74.77753683,628b806c463b948bc644b84f,629afb930ad20e31afa64adf,,,,,,,,,,,,,,,,,,,,,,,,,,,,,,,,,,,,,,,,,,,,,,,,,,,,,,,,,,,,,,,,,,,,,,,,,,,,,,,,,,,,,,,,,,,,,,,,,,,,,,,
,,"[""period""]",0,[0.2272000000476737],44,0,44,0,1,5e6754dfd71cf94cfde2ffcd,20,Mężczyzna,2022-06-04_08h29.47.490,task,2021.1.4,Win32,74.77753683,628b806c463b948bc644b84f,629afb930ad20e31afa64adf,,,,,,,,,,,,,,,,,,,,,,,,,,,,,,,,,,,,,,,,,,,,,,,,,,,,,,,,,,,,,,,,,,,,,,,,,,,,,,,,,,,,,,,,,,,,,,,,,,,,,,,
,,"[""period""]",0,[0.18759999990464848],45,0,45,0,1,5e6754dfd71cf94cfde2ffcd,20,Mężczyzna,2022-06-04_08h29.47.490,task,2021.1.4,Win32,74.77753683,628b806c463b948bc644b84f,629afb930ad20e31afa64adf,,,,,,,,,,,,,,,,,,,,,,,,,,,,,,,,,,,,,,,,,,,,,,,,,,,,,,,,,,,,,,,,,,,,,,,,,,,,,,,,,,,,,,,,,,,,,,,,,,,,,,,
,,"[""comma""]",0,[0.24160000014305183],46,0,46,0,1,5e6754dfd71cf94cfde2ffcd,20,Mężczyzna,2022-06-04_08h29.47.490,task,2021.1.4,Win32,74.77753683,628b806c463b948bc644b84f,629afb930ad20e31afa64adf,,,,,,,,,,,,,,,,,,,,,,,,,,,,,,,,,,,,,,,,,,,,,,,,,,,,,,,,,,,,,,,,,,,,,,,,,,,,,,,,,,,,,,,,,,,,,,,,,,,,,,,
,,"[""comma""]",0,[0.27460000014303887],47,0,47,0,1,5e6754dfd71cf94cfde2ffcd,20,Mężczyzna,2022-06-04_08h29.47.490,task,2021.1.4,Win32,74.77753683,628b806c463b948bc644b84f,629afb930ad20e31afa64adf,,,,,,,,,,,,,,,,,,,,,,,,,,,,,,,,,,,,,,,,,,,,,,,,,,,,,,,,,,,,,,,,,,,,,,,,,,,,,,,,,,,,,,,,,,,,,,,,,,,,,,,
,,"[""period""]",0,[0.2711000001430648],48,0,48,0,1,5e6754dfd71cf94cfde2ffcd,20,Mężczyzna,2022-06-04_08h29.47.490,task,2021.1.4,Win32,74.77753683,628b806c463b948bc644b84f,629afb930ad20e31afa64adf,,,,,,,,,,,,,,,,,,,,,,,,,,,,,,,,,,,,,,,,,,,,,,,,,,,,,,,,,,,,,,,,,,,,,,,,,,,,,,,,,,,,,,,,,,,,,,,,,,,,,,,
,,"[""comma""]",0,[0.2951000001430657],49,0,49,0,1,5e6754dfd71cf94cfde2ffcd,20,Mężczyzna,2022-06-04_08h29.47.490,task,2021.1.4,Win32,74.77753683,628b806c463b948bc644b84f,629afb930ad20e31afa64adf,,,,,,,,,,,,,,,,,,,,,,,,,,,,,,,,,,,,,,,,,,,,,,,,,,,,,,,,,,,,,,,,,,,,,,,,,,,,,,,,,,,,,,,,,,,,,,,,,,,,,,,
,,"[""period""]",0,[0.22829999995232697],50,0,50,0,1,5e6754dfd71cf94cfde2ffcd,20,Mężczyzna,2022-06-04_08h29.47.490,task,2021.1.4,Win32,74.77753683,628b806c463b948bc644b84f,629afb930ad20e31afa64adf,,,,,,,,,,,,,,,,,,,,,,,,,,,,,,,,,,,,,,,,,,,,,,,,,,,,,,,,,,,,,,,,,,,,,,,,,,,,,,,,,,,,,,,,,,,,,,,,,,,,,,,
,,"[""period""]",0,[0.26809999990464917],51,0,51,0,1,5e6754dfd71cf94cfde2ffcd,20,Mężczyzna,2022-06-04_08h29.47.490,task,2021.1.4,Win32,74.77753683,628b806c463b948bc644b84f,629afb930ad20e31afa64adf,,,,,,,,,,,,,,,,,,,,,,,,,,,,,,,,,,,,,,,,,,,,,,,,,,,,,,,,,,,,,,,,,,,,,,,,,,,,,,,,,,,,,,,,,,,,,,,,,,,,,,,
,,"[""comma""]",0,[0.23930000019072395],52,0,52,0,1,5e6754dfd71cf94cfde2ffcd,20,Mężczyzna,2022-06-04_08h29.47.490,task,2021.1.4,Win32,74.77753683,628b806c463b948bc644b84f,629afb930ad20e31afa64adf,,,,,,,,,,,,,,,,,,,,,,,,,,,,,,,,,,,,,,,,,,,,,,,,,,,,,,,,,,,,,,,,,,,,,,,,,,,,,,,,,,,,,,,,,,,,,,,,,,,,,,,
,,"[""period""]",0,[0.26510000014306456],53,0,53,0,1,5e6754dfd71cf94cfde2ffcd,20,Mężczyzna,2022-06-04_08h29.47.490,task,2021.1.4,Win32,74.77753683,628b806c463b948bc644b84f,629afb930ad20e31afa64adf,,,,,,,,,,,,,,,,,,,,,,,,,,,,,,,,,,,,,,,,,,,,,,,,,,,,,,,,,,,,,,,,,,,,,,,,,,,,,,,,,,,,,,,,,,,,,,,,,,,,,,,
,,"[""period""]",0,[0.24120000004768372],54,0,54,0,1,5e6754dfd71cf94cfde2ffcd,20,Mężczyzna,2022-06-04_08h29.47.490,task,2021.1.4,Win32,74.77753683,628b806c463b948bc644b84f,629afb930ad20e31afa64adf,,,,,,,,,,,,,,,,,,,,,,,,,,,,,,,,,,,,,,,,,,,,,,,,,,,,,,,,,,,,,,,,,,,,,,,,,,,,,,,,,,,,,,,,,,,,,,,,,,,,,,,
,,"[""comma""]",0,[0.21579999995230992],55,0,55,0,1,5e6754dfd71cf94cfde2ffcd,20,Mężczyzna,2022-06-04_08h29.47.490,task,2021.1.4,Win32,74.77753683,628b806c463b948bc644b84f,629afb930ad20e31afa64adf,,,,,,,,,,,,,,,,,,,,,,,,,,,,,,,,,,,,,,,,,,,,,,,,,,,,,,,,,,,,,,,,,,,,,,,,,,,,,,,,,,,,,,,,,,,,,,,,,,,,,,,
,,"[""comma""]",0,[0.24029999995232743],56,0,56,0,1,5e6754dfd71cf94cfde2ffcd,20,Mężczyzna,2022-06-04_08h29.47.490,task,2021.1.4,Win32,74.77753683,628b806c463b948bc644b84f,629afb930ad20e31afa64adf,,,,,,,,,,,,,,,,,,,,,,,,,,,,,,,,,,,,,,,,,,,,,,,,,,,,,,,,,,,,,,,,,,,,,,,,,,,,,,,,,,,,,,,,,,,,,,,,,,,,,,,
,,"[""comma""]",0,[0.25540000009536357],57,0,57,0,1,5e6754dfd71cf94cfde2ffcd,20,Mężczyzna,2022-06-04_08h29.47.490,task,2021.1.4,Win32,74.77753683,628b806c463b948bc644b84f,629afb930ad20e31afa64adf,,,,,,,,,,,,,,,,,,,,,,,,,,,,,,,,,,,,,,,,,,,,,,,,,,,,,,,,,,,,,,,,,,,,,,,,,,,,,,,,,,,,,,,,,,,,,,,,,,,,,,,
,,"[""comma""]",0,[0.2817999999523124],58,0,58,0,1,5e6754dfd71cf94cfde2ffcd,20,Mężczyzna,2022-06-04_08h29.47.490,task,2021.1.4,Win32,74.77753683,628b806c463b948bc644b84f,629afb930ad20e31afa64adf,,,,,,,,,,,,,,,,,,,,,,,,,,,,,,,,,,,,,,,,,,,,,,,,,,,,,,,,,,,,,,,,,,,,,,,,,,,,,,,,,,,,,,,,,,,,,,,,,,,,,,,
,,"[""period""]",0,[0.22800000000000864],59,0,59,0,1,5e6754dfd71cf94cfde2ffcd,20,Mężczyzna,2022-06-04_08h29.47.490,task,2021.1.4,Win32,74.77753683,628b806c463b948bc644b84f,629afb930ad20e31afa64adf,,,,,,,,,,,,,,,,,,,,,,,,,,,,,,,,,,,,,,,,,,,,,,,,,,,,,,,,,,,,,,,,,,,,,,,,,,,,,,,,,,,,,,,,,,,,,,,,,,,,,,,
,,"[""comma""]",0,[0.21829999995230764],60,0,60,0,1,5e6754dfd71cf94cfde2ffcd,20,Mężczyzna,2022-06-04_08h29.47.490,task,2021.1.4,Win32,74.77753683,628b806c463b948bc644b84f,629afb930ad20e31afa64adf,,,,,,,,,,,,,,,,,,,,,,,,,,,,,,,,,,,,,,,,,,,,,,,,,,,,,,,,,,,,,,,,,,,,,,,,,,,,,,,,,,,,,,,,,,,,,,,,,,,,,,,
,,"[""period""]",0,[0.2813999998569727],61,0,61,0,1,5e6754dfd71cf94cfde2ffcd,20,Mężczyzna,2022-06-04_08h29.47.490,task,2021.1.4,Win32,74.77753683,628b806c463b948bc644b84f,629afb930ad20e31afa64adf,,,,,,,,,,,,,,,,,,,,,,,,,,,,,,,,,,,,,,,,,,,,,,,,,,,,,,,,,,,,,,,,,,,,,,,,,,,,,,,,,,,,,,,,,,,,,,,,,,,,,,,
,,"[""comma""]",0,[0.28519999980926514],62,0,62,0,1,5e6754dfd71cf94cfde2ffcd,20,Mężczyzna,2022-06-04_08h29.47.490,task,2021.1.4,Win32,74.77753683,628b806c463b948bc644b84f,629afb930ad20e31afa64adf,,,,,,,,,,,,,,,,,,,,,,,,,,,,,,,,,,,,,,,,,,,,,,,,,,,,,,,,,,,,,,,,,,,,,,,,,,,,,,,,,,,,,,,,,,,,,,,,,,,,,,,
,,"[""comma""]",0,[0.28170000004769236],63,0,63,0,1,5e6754dfd71cf94cfde2ffcd,20,Mężczyzna,2022-06-04_08h29.47.490,task,2021.1.4,Win32,74.77753683,628b806c463b948bc644b84f,629afb930ad20e31afa64adf,,,,,,,,,,,,,,,,,,,,,,,,,,,,,,,,,,,,,,,,,,,,,,,,,,,,,,,,,,,,,,,,,,,,,,,,,,,,,,,,,,,,,,,,,,,,,,,,,,,,,,,
,,"[""period""]",0,[0.29490000009536743],64,0,64,0,1,5e6754dfd71cf94cfde2ffcd,20,Mężczyzna,2022-06-04_08h29.47.490,task,2021.1.4,Win32,74.77753683,628b806c463b948bc644b84f,629afb930ad20e31afa64adf,,,,,,,,,,,,,,,,,,,,,,,,,,,,,,,,,,,,,,,,,,,,,,,,,,,,,,,,,,,,,,,,,,,,,,,,,,,,,,,,,,,,,,,,,,,,,,,,,,,,,,,
,,"[""period""]",0,[0.26820000004767053],65,0,65,0,1,5e6754dfd71cf94cfde2ffcd,20,Mężczyzna,2022-06-04_08h29.47.490,task,2021.1.4,Win32,74.77753683,628b806c463b948bc644b84f,629afb930ad20e31afa64adf,,,,,,,,,,,,,,,,,,,,,,,,,,,,,,,,,,,,,,,,,,,,,,,,,,,,,,,,,,,,,,,,,,,,,,,,,,,,,,,,,,,,,,,,,,,,,,,,,,,,,,,
,,"[""period""]",0,[0.14799999999999613],66,0,66,0,1,5e6754dfd71cf94cfde2ffcd,20,Mężczyzna,2022-06-04_08h29.47.490,task,2021.1.4,Win32,74.77753683,628b806c463b948bc644b84f,629afb930ad20e31afa64adf,,,,,,,,,,,,,,,,,,,,,,,,,,,,,,,,,,,,,,,,,,,,,,,,,,,,,,,,,,,,,,,,,,,,,,,,,,,,,,,,,,,,,,,,,,,,,,,,,,,,,,,
,,"[""period""]",0,[0.04070000004770691],67,0,67,0,1,5e6754dfd71cf94cfde2ffcd,20,Mężczyzna,2022-06-04_08h29.47.490,task,2021.1.4,Win32,74.77753683,628b806c463b948bc644b84f,629afb930ad20e31afa64adf,,,,,,,,,,,,,,,,,,,,,,,,,,,,,,,,,,,,,,,,,,,,,,,,,,,,,,,,,,,,,,,,,,,,,,,,,,,,,,,,,,,,,,,,,,,,,,,,,,,,,,,
,,"[""comma""]",0,[0.2520999999046296],68,0,68,0,1,5e6754dfd71cf94cfde2ffcd,20,Mężczyzna,2022-06-04_08h29.47.490,task,2021.1.4,Win32,74.77753683,628b806c463b948bc644b84f,629afb930ad20e31afa64adf,,,,,,,,,,,,,,,,,,,,,,,,,,,,,,,,,,,,,,,,,,,,,,,,,,,,,,,,,,,,,,,,,,,,,,,,,,,,,,,,,,,,,,,,,,,,,,,,,,,,,,,
,,"[""period""]",0,[0.3332000000476967],69,0,69,0,1,5e6754dfd71cf94cfde2ffcd,20,Mężczyzna,2022-06-04_08h29.47.490,task,2021.1.4,Win32,74.77753683,628b806c463b948bc644b84f,629afb930ad20e31afa64adf,,,,,,,,,,,,,,,,,,,,,,,,,,,,,,,,,,,,,,,,,,,,,,,,,,,,,,,,,,,,,,,,,,,,,,,,,,,,,,,,,,,,,,,,,,,,,,,,,,,,,,,
,,"[""period""]",0,[0.24120000004768372],70,0,70,0,1,5e6754dfd71cf94cfde2ffcd,20,Mężczyzna,2022-06-04_08h29.47.490,task,2021.1.4,Win32,74.77753683,628b806c463b948bc644b84f,629afb930ad20e31afa64adf,,,,,,,,,,,,,,,,,,,,,,,,,,,,,,,,,,,,,,,,,,,,,,,,,,,,,,,,,,,,,,,,,,,,,,,,,,,,,,,,,,,,,,,,,,,,,,,,,,,,,,,
,,"[""comma""]",0,[0.08420000004770145],71,0,71,0,1,5e6754dfd71cf94cfde2ffcd,20,Mężczyzna,2022-06-04_08h29.47.490,task,2021.1.4,Win32,74.77753683,628b806c463b948bc644b84f,629afb930ad20e31afa64adf,,,,,,,,,,,,,,,,,,,,,,,,,,,,,,,,,,,,,,,,,,,,,,,,,,,,,,,,,,,,,,,,,,,,,,,,,,,,,,,,,,,,,,,,,,,,,,,,,,,,,,,
,,"[""comma""]",0,[0.2684000000953688],72,0,72,0,1,5e6754dfd71cf94cfde2ffcd,20,Mężczyzna,2022-06-04_08h29.47.490,task,2021.1.4,Win32,74.77753683,628b806c463b948bc644b84f,629afb930ad20e31afa64adf,,,,,,,,,,,,,,,,,,,,,,,,,,,,,,,,,,,,,,,,,,,,,,,,,,,,,,,,,,,,,,,,,,,,,,,,,,,,,,,,,,,,,,,,,,,,,,,,,,,,,,,
,,"[""comma""]",0,[0.33759999990462575],73,0,73,0,1,5e6754dfd71cf94cfde2ffcd,20,Mężczyzna,2022-06-04_08h29.47.490,task,2021.1.4,Win32,74.77753683,628b806c463b948bc644b84f,629afb930ad20e31afa64adf,,,,,,,,,,,,,,,,,,,,,,,,,,,,,,,,,,,,,,,,,,,,,,,,,,,,,,,,,,,,,,,,,,,,,,,,,,,,,,,,,,,,,,,,,,,,,,,,,,,,,,,
,,"[""comma""]",0,[0.32480000019069166],74,0,74,0,1,5e6754dfd71cf94cfde2ffcd,20,Mężczyzna,2022-06-04_08h29.47.490,task,2021.1.4,Win32,74.77753683,628b806c463b948bc644b84f,629afb930ad20e31afa64adf,,,,,,,,,,,,,,,,,,,,,,,,,,,,,,,,,,,,,,,,,,,,,,,,,,,,,,,,,,,,,,,,,,,,,,,,,,,,,,,,,,,,,,,,,,,,,,,,,,,,,,,
,,"[""period""]",0,[0.3200999999045848],75,0,75,0,1,5e6754dfd71cf94cfde2ffcd,20,Mężczyzna,2022-06-04_08h29.47.490,task,2021.1.4,Win32,74.77753683,628b806c463b948bc644b84f,629afb930ad20e31afa64adf,,,,,,,,,,,,,,,,,,,,,,,,,,,,,,,,,,,,,,,,,,,,,,,,,,,,,,,,,,,,,,,,,,,,,,,,,,,,,,,,,,,,,,,,,,,,,,,,,,,,,,,
,,"[""comma""]",0,[0.2674999999999841],76,0,76,0,1,5e6754dfd71cf94cfde2ffcd,20,Mężczyzna,2022-06-04_08h29.47.490,task,2021.1.4,Win32,74.77753683,628b806c463b948bc644b84f,629afb930ad20e31afa64adf,,,,,,,,,,,,,,,,,,,,,,,,,,,,,,,,,,,,,,,,,,,,,,,,,,,,,,,,,,,,,,,,,,,,,,,,,,,,,,,,,,,,,,,,,,,,,,,,,,,,,,,
,,"[""comma""]",0,[0.24140000009538198],77,0,77,0,1,5e6754dfd71cf94cfde2ffcd,20,Mężczyzna,2022-06-04_08h29.47.490,task,2021.1.4,Win32,74.77753683,628b806c463b948bc644b84f,629afb930ad20e31afa64adf,,,,,,,,,,,,,,,,,,,,,,,,,,,,,,,,,,,,,,,,,,,,,,,,,,,,,,,,,,,,,,,,,,,,,,,,,,,,,,,,,,,,,,,,,,,,,,,,,,,,,,,
,,"[""period""]",0,[0.2275999999046121],78,0,78,0,1,5e6754dfd71cf94cfde2ffcd,20,Mężczyzna,2022-06-04_08h29.47.490,task,2021.1.4,Win32,74.77753683,628b806c463b948bc644b84f,629afb930ad20e31afa64adf,,,,,,,,,,,,,,,,,,,,,,,,,,,,,,,,,,,,,,,,,,,,,,,,,,,,,,,,,,,,,,,,,,,,,,,,,,,,,,,,,,,,,,,,,,,,,,,,,,,,,,,
,,"[""period""]",0,[0.25979999995229264],79,0,79,0,1,5e6754dfd71cf94cfde2ffcd,20,Mężczyzna,2022-06-04_08h29.47.490,task,2021.1.4,Win32,74.77753683,628b806c463b948bc644b84f,629afb930ad20e31afa64adf,,,,,,,,,,,,,,,,,,,,,,,,,,,,,,,,,,,,,,,,,,,,,,,,,,,,,,,,,,,,,,,,,,,,,,,,,,,,,,,,,,,,,,,,,,,,,,,,,,,,,,,
,,"[""period""]",0,[0.27300000000002456],80,0,80,0,1,5e6754dfd71cf94cfde2ffcd,20,Mężczyzna,2022-06-04_08h29.47.490,task,2021.1.4,Win32,74.77753683,628b806c463b948bc644b84f,629afb930ad20e31afa64adf,,,,,,,,,,,,,,,,,,,,,,,,,,,,,,,,,,,,,,,,,,,,,,,,,,,,,,,,,,,,,,,,,,,,,,,,,,,,,,,,,,,,,,,,,,,,,,,,,,,,,,,
,,"[""period""]",0,[0.2679000000953806],81,0,81,0,1,5e6754dfd71cf94cfde2ffcd,20,Mężczyzna,2022-06-04_08h29.47.490,task,2021.1.4,Win32,74.77753683,628b806c463b948bc644b84f,629afb930ad20e31afa64adf,,,,,,,,,,,,,,,,,,,,,,,,,,,,,,,,,,,,,,,,,,,,,,,,,,,,,,,,,,,,,,,,,,,,,,,,,,,,,,,,,,,,,,,,,,,,,,,,,,,,,,,
,,"[""comma""]",0,[0.1490000000000009],82,0,82,0,1,5e6754dfd71cf94cfde2ffcd,20,Mężczyzna,2022-06-04_08h29.47.490,task,2021.1.4,Win32,74.77753683,628b806c463b948bc644b84f,629afb930ad20e31afa64adf,,,,,,,,,,,,,,,,,,,,,,,,,,,,,,,,,,,,,,,,,,,,,,,,,,,,,,,,,,,,,,,,,,,,,,,,,,,,,,,,,,,,,,,,,,,,,,,,,,,,,,,
,,"[""comma""]",0,[0.22789999985695886],83,0,83,0,1,5e6754dfd71cf94cfde2ffcd,20,Mężczyzna,2022-06-04_08h29.47.490,task,2021.1.4,Win32,74.77753683,628b806c463b948bc644b84f,629afb930ad20e31afa64adf,,,,,,,,,,,,,,,,,,,,,,,,,,,,,,,,,,,,,,,,,,,,,,,,,,,,,,,,,,,,,,,,,,,,,,,,,,,,,,,,,,,,,,,,,,,,,,,,,,,,,,,
,,"[""comma""]",0,[0.2813999998569443],84,0,84,0,1,5e6754dfd71cf94cfde2ffcd,20,Mężczyzna,2022-06-04_08h29.47.490,task,2021.1.4,Win32,74.77753683,628b806c463b948bc644b84f,629afb930ad20e31afa64adf,,,,,,,,,,,,,,,,,,,,,,,,,,,,,,,,,,,,,,,,,,,,,,,,,,,,,,,,,,,,,,,,,,,,,,,,,,,,,,,,,,,,,,,,,,,,,,,,,,,,,,,
,,"[""period""]",0,[0.11259999990465985],85,0,85,0,1,5e6754dfd71cf94cfde2ffcd,20,Mężczyzna,2022-06-04_08h29.47.490,task,2021.1.4,Win32,74.77753683,628b806c463b948bc644b84f,629afb930ad20e31afa64adf,,,,,,,,,,,,,,,,,,,,,,,,,,,,,,,,,,,,,,,,,,,,,,,,,,,,,,,,,,,,,,,,,,,,,,,,,,,,,,,,,,,,,,,,,,,,,,,,,,,,,,,
,,"[""period""]",0,[0.26940000009534515],86,0,86,0,1,5e6754dfd71cf94cfde2ffcd,20,Mężczyzna,2022-06-04_08h29.47.490,task,2021.1.4,Win32,74.77753683,628b806c463b948bc644b84f,629afb930ad20e31afa64adf,,,,,,,,,,,,,,,,,,,,,,,,,,,,,,,,,,,,,,,,,,,,,,,,,,,,,,,,,,,,,,,,,,,,,,,,,,,,,,,,,,,,,,,,,,,,,,,,,,,,,,,
,,"[""period""]",0,[0.22820000004765006],87,0,87,0,1,5e6754dfd71cf94cfde2ffcd,20,Mężczyzna,2022-06-04_08h29.47.490,task,2021.1.4,Win32,74.77753683,628b806c463b948bc644b84f,629afb930ad20e31afa64adf,,,,,,,,,,,,,,,,,,,,,,,,,,,,,,,,,,,,,,,,,,,,,,,,,,,,,,,,,,,,,,,,,,,,,,,,,,,,,,,,,,,,,,,,,,,,,,,,,,,,,,,
,,"[""period""]",0,[0.21470000004768508],88,0,88,0,1,5e6754dfd71cf94cfde2ffcd,20,Mężczyzna,2022-06-04_08h29.47.490,task,2021.1.4,Win32,74.77753683,628b806c463b948bc644b84f,629afb930ad20e31afa64adf,,,,,,,,,,,,,,,,,,,,,,,,,,,,,,,,,,,,,,,,,,,,,,,,,,,,,,,,,,,,,,,,,,,,,,,,,,,,,,,,,,,,,,,,,,,,,,,,,,,,,,,
,,"[""comma""]",0,[0.2412999999523322],89,0,89,0,1,5e6754dfd71cf94cfde2ffcd,20,Mężczyzna,2022-06-04_08h29.47.490,task,2021.1.4,Win32,74.77753683,628b806c463b948bc644b84f,629afb930ad20e31afa64adf,,,,,,,,,,,,,,,,,,,,,,,,,,,,,,,,,,,,,,,,,,,,,,,,,,,,,,,,,,,,,,,,,,,,,,,,,,,,,,,,,,,,,,,,,,,,,,,,,,,,,,,
,,"[""comma""]",0,[0.257000000000005],90,0,90,0,1,5e6754dfd71cf94cfde2ffcd,20,Mężczyzna,2022-06-04_08h29.47.490,task,2021.1.4,Win32,74.77753683,628b806c463b948bc644b84f,629afb930ad20e31afa64adf,,,,,,,,,,,,,,,,,,,,,,,,,,,,,,,,,,,,,,,,,,,,,,,,,,,,,,,,,,,,,,,,,,,,,,,,,,,,,,,,,,,,,,,,,,,,,,,,,,,,,,,
,,"[""period""]",0,[0.4151999998092606],91,0,91,0,1,5e6754dfd71cf94cfde2ffcd,20,Mężczyzna,2022-06-04_08h29.47.490,task,2021.1.4,Win32,74.77753683,628b806c463b948bc644b84f,629afb930ad20e31afa64adf,,,,,,,,,,,,,,,,,,,,,,,,,,,,,,,,,,,,,,,,,,,,,,,,,,,,,,,,,,,,,,,,,,,,,,,,,,,,,,,,,,,,,,,,,,,,,,,,,,,,,,,
,,"[""comma""]",0,[0.2977000000477119],92,0,92,0,1,5e6754dfd71cf94cfde2ffcd,20,Mężczyzna,2022-06-04_08h29.47.490,task,2021.1.4,Win32,74.77753683,628b806c463b948bc644b84f,629afb930ad20e31afa64adf,,,,,,,,,,,,,,,,,,,,,,,,,,,,,,,,,,,,,,,,,,,,,,,,,,,,,,,,,,,,,,,,,,,,,,,,,,,,,,,,,,,,,,,,,,,,,,,,,,,,,,,
,,"[""comma""]",0,[0.21630000019075624],93,0,93,0,1,5e6754dfd71cf94cfde2ffcd,20,Mężczyzna,2022-06-04_08h29.47.490,task,2021.1.4,Win32,74.77753683,628b806c463b948bc644b84f,629afb930ad20e31afa64adf,,,,,,,,,,,,,,,,,,,,,,,,,,,,,,,,,,,,,,,,,,,,,,,,,,,,,,,,,,,,,,,,,,,,,,,,,,,,,,,,,,,,,,,,,,,,,,,,,,,,,,,
,,"[""period""]",0,[0.1630999999046594],94,0,94,0,1,5e6754dfd71cf94cfde2ffcd,20,Mężczyzna,2022-06-04_08h29.47.490,task,2021.1.4,Win32,74.77753683,628b806c463b948bc644b84f,629afb930ad20e31afa64adf,,,,,,,,,,,,,,,,,,,,,,,,,,,,,,,,,,,,,,,,,,,,,,,,,,,,,,,,,,,,,,,,,,,,,,,,,,,,,,,,,,,,,,,,,,,,,,,,,,,,,,,
,,"[""period""]",0,[0.25589999985697887],95,0,95,0,1,5e6754dfd71cf94cfde2ffcd,20,Mężczyzna,2022-06-04_08h29.47.490,task,2021.1.4,Win32,74.77753683,628b806c463b948bc644b84f,629afb930ad20e31afa64adf,,,,,,,,,,,,,,,,,,,,,,,,,,,,,,,,,,,,,,,,,,,,,,,,,,,,,,,,,,,,,,,,,,,,,,,,,,,,,,,,,,,,,,,,,,,,,,,,,,,,,,,
,,"[""period""]",0,[0.2149000000953265],96,0,96,0,1,5e6754dfd71cf94cfde2ffcd,20,Mężczyzna,2022-06-04_08h29.47.490,task,2021.1.4,Win32,74.77753683,628b806c463b948bc644b84f,629afb930ad20e31afa64adf,,,,,,,,,,,,,,,,,,,,,,,,,,,,,,,,,,,,,,,,,,,,,,,,,,,,,,,,,,,,,,,,,,,,,,,,,,,,,,,,,,,,,,,,,,,,,,,,,,,,,,,
,,"[""comma""]",0,[0.24179999995232038],97,0,97,0,1,5e6754dfd71cf94cfde2ffcd,20,Mężczyzna,2022-06-04_08h29.47.490,task,2021.1.4,Win32,74.77753683,628b806c463b948bc644b84f,629afb930ad20e31afa64adf,,,,,,,,,,,,,,,,,,,,,,,,,,,,,,,,,,,,,,,,,,,,,,,,,,,,,,,,,,,,,,,,,,,,,,,,,,,,,,,,,,,,,,,,,,,,,,,,,,,,,,,
,,"[""comma""]",0,[0.2715000000000032],98,0,98,0,1,5e6754dfd71cf94cfde2ffcd,20,Mężczyzna,2022-06-04_08h29.47.490,task,2021.1.4,Win32,74.77753683,628b806c463b948bc644b84f,629afb930ad20e31afa64adf,,,,,,,,,,,,,,,,,,,,,,,,,,,,,,,,,,,,,,,,,,,,,,,,,,,,,,,,,,,,,,,,,,,,,,,,,,,,,,,,,,,,,,,,,,,,,,,,,,,,,,,
,,"[""period""]",0,[0.2589999999999577],99,0,99,0,1,5e6754dfd71cf94cfde2ffcd,20,Mężczyzna,2022-06-04_08h29.47.490,task,2021.1.4,Win32,74.77753683,628b806c463b948bc644b84f,629afb930ad20e31afa64adf,,,,,,,,,,,,,,,,,,,,,,,,,,,,,,,,,,,,,,,,,,,,,,,,,,,,,,,,,,,,,,,,,,,,,,,,,,,,,,,,,,,,,,,,,,,,,,,,,,,,,,,
,,"[""comma""]",0,[0.20149999999995316],100,0,100,0,1,5e6754dfd71cf94cfde2ffcd,20,Mężczyzna,2022-06-04_08h29.47.490,task,2021.1.4,Win32,74.77753683,628b806c463b948bc644b84f,629afb930ad20e31afa64adf,,,,,,,,,,,,,,,,,,,,,,,,,,,,,,,,,,,,,,,,,,,,,,,,,,,,,,,,,,,,,,,,,,,,,,,,,,,,,,,,,,,,,,,,,,,,,,,,,,,,,,,
,,"[""period""]",0,[0.24320000004763642],101,0,101,0,1,5e6754dfd71cf94cfde2ffcd,20,Mężczyzna,2022-06-04_08h29.47.490,task,2021.1.4,Win32,74.77753683,628b806c463b948bc644b84f,629afb930ad20e31afa64adf,,,,,,,,,,,,,,,,,,,,,,,,,,,,,,,,,,,,,,,,,,,,,,,,,,,,,,,,,,,,,,,,,,,,,,,,,,,,,,,,,,,,,,,,,,,,,,,,,,,,,,,
,,"[""comma""]",0,[0.214999999999975],102,0,102,0,1,5e6754dfd71cf94cfde2ffcd,20,Mężczyzna,2022-06-04_08h29.47.490,task,2021.1.4,Win32,74.77753683,628b806c463b948bc644b84f,629afb930ad20e31afa64adf,,,,,,,,,,,,,,,,,,,,,,,,,,,,,,,,,,,,,,,,,,,,,,,,,,,,,,,,,,,,,,,,,,,,,,,,,,,,,,,,,,,,,,,,,,,,,,,,,,,,,,,
,,"[""period""]",0,[0.24209999990461029],103,0,103,0,1,5e6754dfd71cf94cfde2ffcd,20,Mężczyzna,2022-06-04_08h29.47.490,task,2021.1.4,Win32,74.77753683,628b806c463b948bc644b84f,629afb930ad20e31afa64adf,,,,,,,,,,,,,,,,,,,,,,,,,,,,,,,,,,,,,,,,,,,,,,,,,,,,,,,,,,,,,,,,,,,,,,,,,,,,,,,,,,,,,,,,,,,,,,,,,,,,,,,
,,"[""comma""]",0,[0.2685000000000173],104,0,104,0,1,5e6754dfd71cf94cfde2ffcd,20,Mężczyzna,2022-06-04_08h29.47.490,task,2021.1.4,Win32,74.77753683,628b806c463b948bc644b84f,629afb930ad20e31afa64adf,,,,,,,,,,,,,,,,,,,,,,,,,,,,,,,,,,,,,,,,,,,,,,,,,,,,,,,,,,,,,,,,,,,,,,,,,,,,,,,,,,,,,,,,,,,,,,,,,,,,,,,
,,"[""period""]",0,[0.2792000000476378],105,0,105,0,1,5e6754dfd71cf94cfde2ffcd,20,Mężczyzna,2022-06-04_08h29.47.490,task,2021.1.4,Win32,74.77753683,628b806c463b948bc644b84f,629afb930ad20e31afa64adf,,,,,,,,,,,,,,,,,,,,,,,,,,,,,,,,,,,,,,,,,,,,,,,,,,,,,,,,,,,,,,,,,,,,,,,,,,,,,,,,,,,,,,,,,,,,,,,,,,,,,,,
,,"[""comma""]",0,[0.22950000000003],106,0,106,0,1,5e6754dfd71cf94cfde2ffcd,20,Mężczyzna,2022-06-04_08h29.47.490,task,2021.1.4,Win32,74.77753683,628b806c463b948bc644b84f,629afb930ad20e31afa64adf,,,,,,,,,,,,,,,,,,,,,,,,,,,,,,,,,,,,,,,,,,,,,,,,,,,,,,,,,,,,,,,,,,,,,,,,,,,,,,,,,,,,,,,,,,,,,,,,,,,,,,,
,,"[""period""]",0,[0.24179999995232038],107,0,107,0,1,5e6754dfd71cf94cfde2ffcd,20,Mężczyzna,2022-06-04_08h29.47.490,task,2021.1.4,Win32,74.77753683,628b806c463b948bc644b84f,629afb930ad20e31afa64adf,,,,,,,,,,,,,,,,,,,,,,,,,,,,,,,,,,,,,,,,,,,,,,,,,,,,,,,,,,,,,,,,,,,,,,,,,,,,,,,,,,,,,,,,,,,,,,,,,,,,,,,
,,"[""comma""]",0,[0.3080999999046412],108,0,108,0,1,5e6754dfd71cf94cfde2ffcd,20,Mężczyzna,2022-06-04_08h29.47.490,task,2021.1.4,Win32,74.77753683,628b806c463b948bc644b84f,629afb930ad20e31afa64adf,,,,,,,,,,,,,,,,,,,,,,,,,,,,,,,,,,,,,,,,,,,,,,,,,,,,,,,,,,,,,,,,,,,,,,,,,,,,,,,,,,,,,,,,,,,,,,,,,,,,,,,
,,"[""comma""]",0,[0.2545000000000073],109,0,109,0,1,5e6754dfd71cf94cfde2ffcd,20,Mężczyzna,2022-06-04_08h29.47.490,task,2021.1.4,Win32,74.77753683,628b806c463b948bc644b84f,629afb930ad20e31afa64adf,,,,,,,,,,,,,,,,,,,,,,,,,,,,,,,,,,,,,,,,,,,,,,,,,,,,,,,,,,,,,,,,,,,,,,,,,,,,,,,,,,,,,,,,,,,,,,,,,,,,,,,
,,"[""comma""]",0,[0.24729999995236085],110,0,110,0,1,5e6754dfd71cf94cfde2ffcd,20,Mężczyzna,2022-06-04_08h29.47.490,task,2021.1.4,Win32,74.77753683,628b806c463b948bc644b84f,629afb930ad20e31afa64adf,,,,,,,,,,,,,,,,,,,,,,,,,,,,,,,,,,,,,,,,,,,,,,,,,,,,,,,,,,,,,,,,,,,,,,,,,,,,,,,,,,,,,,,,,,,,,,,,,,,,,,,
,,"[""period""]",0,[0.27179999995234994],111,0,111,0,1,5e6754dfd71cf94cfde2ffcd,20,Mężczyzna,2022-06-04_08h29.47.490,task,2021.1.4,Win32,74.77753683,628b806c463b948bc644b84f,629afb930ad20e31afa64adf,,,,,,,,,,,,,,,,,,,,,,,,,,,,,,,,,,,,,,,,,,,,,,,,,,,,,,,,,,,,,,,,,,,,,,,,,,,,,,,,,,,,,,,,,,,,,,,,,,,,,,,
,,"[""comma""]",0,[0.20490000009539244],112,0,112,0,1,5e6754dfd71cf94cfde2ffcd,20,Mężczyzna,2022-06-04_08h29.47.490,task,2021.1.4,Win32,74.77753683,628b806c463b948bc644b84f,629afb930ad20e31afa64adf,,,,,,,,,,,,,,,,,,,,,,,,,,,,,,,,,,,,,,,,,,,,,,,,,,,,,,,,,,,,,,,,,,,,,,,,,,,,,,,,,,,,,,,,,,,,,,,,,,,,,,,
,,"[""period""]",0,[0.2571000001430548],113,0,113,0,1,5e6754dfd71cf94cfde2ffcd,20,Mężczyzna,2022-06-04_08h29.47.490,task,2021.1.4,Win32,74.77753683,628b806c463b948bc644b84f,629afb930ad20e31afa64adf,,,,,,,,,,,,,,,,,,,,,,,,,,,,,,,,,,,,,,,,,,,,,,,,,,,,,,,,,,,,,,,,,,,,,,,,,,,,,,,,,,,,,,,,,,,,,,,,,,,,,,,
,,"[""period""]",0,[0.24540000009534424],114,0,114,0,1,5e6754dfd71cf94cfde2ffcd,20,Mężczyzna,2022-06-04_08h29.47.490,task,2021.1.4,Win32,74.77753683,628b806c463b948bc644b84f,629afb930ad20e31afa64adf,,,,,,,,,,,,,,,,,,,,,,,,,,,,,,,,,,,,,,,,,,,,,,,,,,,,,,,,,,,,,,,,,,,,,,,,,,,,,,,,,,,,,,,,,,,,,,,,,,,,,,,
,,"[""period""]",0,[0.22129999995229355],115,0,115,0,1,5e6754dfd71cf94cfde2ffcd,20,Mężczyzna,2022-06-04_08h29.47.490,task,2021.1.4,Win32,74.77753683,628b806c463b948bc644b84f,629afb930ad20e31afa64adf,,,,,,,,,,,,,,,,,,,,,,,,,,,,,,,,,,,,,,,,,,,,,,,,,,,,,,,,,,,,,,,,,,,,,,,,,,,,,,,,,,,,,,,,,,,,,,,,,,,,,,,
,,"[""comma""]",0,[0.2145999999046353],116,0,116,0,1,5e6754dfd71cf94cfde2ffcd,20,Mężczyzna,2022-06-04_08h29.47.490,task,2021.1.4,Win32,74.77753683,628b806c463b948bc644b84f,629afb930ad20e31afa64adf,,,,,,,,,,,,,,,,,,,,,,,,,,,,,,,,,,,,,,,,,,,,,,,,,,,,,,,,,,,,,,,,,,,,,,,,,,,,,,,,,,,,,,,,,,,,,,,,,,,,,,,
,,"[""comma""]",0,[0.2951000001430657],117,0,117,0,1,5e6754dfd71cf94cfde2ffcd,20,Mężczyzna,2022-06-04_08h29.47.490,task,2021.1.4,Win32,74.77753683,628b806c463b948bc644b84f,629afb930ad20e31afa64adf,,,,,,,,,,,,,,,,,,,,,,,,,,,,,,,,,,,,,,,,,,,,,,,,,,,,,,,,,,,,,,,,,,,,,,,,,,,,,,,,,,,,,,,,,,,,,,,,,,,,,,,
,,"[""comma""]",0,[0.34929999995227945],118,0,118,0,1,5e6754dfd71cf94cfde2ffcd,20,Mężczyzna,2022-06-04_08h29.47.490,task,2021.1.4,Win32,74.77753683,628b806c463b948bc644b84f,629afb930ad20e31afa64adf,,,,,,,,,,,,,,,,,,,,,,,,,,,,,,,,,,,,,,,,,,,,,,,,,,,,,,,,,,,,,,,,,,,,,,,,,,,,,,,,,,,,,,,,,,,,,,,,,,,,,,,
,,"[""comma""]",0,[0.2552000000476937],119,0,119,0,1,5e6754dfd71cf94cfde2ffcd,20,Mężczyzna,2022-06-04_08h29.47.490,task,2021.1.4,Win32,74.77753683,628b806c463b948bc644b84f,629afb930ad20e31afa64adf,,,,,,,,,,,,,,,,,,,,,,,,,,,,,,,,,,,,,,,,,,,,,,,,,,,,,,,,,,,,,,,,,,,,,,,,,,,,,,,,,,,,,,,,,,,,,,,,,,,,,,,
,,,,,,,,,,5e6754dfd71cf94cfde2ffcd,20,Mężczyzna,2022-06-04_08h29.47.490,task,2021.1.4,Win32,74.77753683,628b806c463b948bc644b84f,629afb930ad20e31afa64adf,space,16.2911,space,9.5574,0,0,0,0,1,X V Q F H G B L J M P D K C T S W R N Z,,,,,,,,,,,,,,,,,,,,,,,,,,,,,,,,,,,,,,,,,,,,,,,,,,,,,,,,,,,,,,,,,,,,,,,,,,,,,,,,,,,,,,,,,,,,,
,,,,,,,,,,5e6754dfd71cf94cfde2ffcd,20,Mężczyzna,2022-06-04_08h29.47.490,task,2021.1.4,Win32,74.77753683,628b806c463b948bc644b84f,629afb930ad20e31afa64adf,,,,,1,0,1,0,1,X V Q F H G B L J M P D K C T S W R N Z,,,,,,,,,,,,,,,,,,,,,,,,,,,,,,,,,,,,,,,,,,,,,,,,,,,,,,,,,,,,,,,,,,,,,,,,,,,,,,,,,,,,,,,,,,,,,
,,,,,,,,,,5e6754dfd71cf94cfde2ffcd,20,Mężczyzna,2022-06-04_08h29.47.490,task,2021.1.4,Win32,74.77753683,628b806c463b948bc644b84f,629afb930ad20e31afa64adf,,,,,,,,,,,zc,"[""z"",""c""]","[1.5382000000477092,1.9787999999523436,4.211400000095352]",1,ZC,0,0,0,0,1,,,,,,,,,,,,,,,,,,,,,,,,,,,,,,,,,,,,,,,,,,,,,,,,,,,,,,,,,,,,,,,,,,,,,,,,,,,,,,,,,,,
,,,,,,,,,,5e6754dfd71cf94cfde2ffcd,20,Mężczyzna,2022-06-04_08h29.47.490,task,2021.1.4,Win32,74.77753683,628b806c463b948bc644b84f,629afb930ad20e31afa64adf,,,,,0,0,0,0,1,X V Q F H G B L J M P D K C T S W R N Z,,,,,,,,,,,,,,,,,,,,,,,,,,,,,,,,,,,,,,,,,,,,,,,,,,,,,,,,,,,,,,,,,,,,,,,,,,,,,,,,,,,,,,,,,,,,,
,,,,,,,,,,5e6754dfd71cf94cfde2ffcd,20,Mężczyzna,2022-06-04_08h29.47.490,task,2021.1.4,Win32,74.77753683,628b806c463b948bc644b84f,629afb930ad20e31afa64adf,,,,,1,0,1,0,1,X V Q F H G B L J M P D K C T S W R N Z,,,,,,,,,,,,,,,,,,,,,,,,,,,,,,,,,,,,,,,,,,,,,,,,,,,,,,,,,,,,,,,,,,,,,,,,,,,,,,,,,,,,,,,,,,,,,
,,,,,,,,,,5e6754dfd71cf94cfde2ffcd,20,Mężczyzna,2022-06-04_08h29.47.490,task,2021.1.4,Win32,74.77753683,628b806c463b948bc644b84f,629afb930ad20e31afa64adf,,,,,,,,,,,gg,"[""g"",""g""]","[0.9100999999046735,1.0975999999046735,1.8077000000477028]",1,GG,1,0,1,0,1,,,,,,,,,,,,,,,,,,,,,,,,,,,,,,,,,,,,,,,,,,,,,,,,,,,,,,,,,,,,,,,,,,,,,,,,,,,,,,,,,,,
,,,,,,,,,,5e6754dfd71cf94cfde2ffcd,20,Mężczyzna,2022-06-04_08h29.47.490,task,2021.1.4,Win32,74.77753683,628b806c463b948bc644b84f,629afb930ad20e31afa64adf,,,,,0,0,0,0,1,X V Q F H G B L J M P D K C T S W R N Z,,,,,,,,,,,,,,,,,,,,,,,,,,,,,,,,,,,,,,,,,,,,,,,,,,,,,,,,,,,,,,,,,,,,,,,,,,,,,,,,,,,,,,,,,,,,,
,,,,,,,,,,5e6754dfd71cf94cfde2ffcd,20,Mężczyzna,2022-06-04_08h29.47.490,task,2021.1.4,Win32,74.77753683,628b806c463b948bc644b84f,629afb930ad20e31afa64adf,,,,,1,0,1,0,1,X V Q F H G B L J M P D K C T S W R N Z,,,,,,,,,,,,,,,,,,,,,,,,,,,,,,,,,,,,,,,,,,,,,,,,,,,,,,,,,,,,,,,,,,,,,,,,,,,,,,,,,,,,,,,,,,,,,
,,,,,,,,,,5e6754dfd71cf94cfde2ffcd,20,Mężczyzna,2022-06-04_08h29.47.490,task,2021.1.4,Win32,74.77753683,628b806c463b948bc644b84f,629afb930ad20e31afa64adf,,,,,2,0,2,0,1,X V Q F H G B L J M P D K C T S W R N Z,,,,,,,,,,,,,,,,,,,,,,,,,,,,,,,,,,,,,,,,,,,,,,,,,,,,,,,,,,,,,,,,,,,,,,,,,,,,,,,,,,,,,,,,,,,,,
,,,,,,,,,,5e6754dfd71cf94cfde2ffcd,20,Mężczyzna,2022-06-04_08h29.47.490,task,2021.1.4,Win32,74.77753683,628b806c463b948bc644b84f,629afb930ad20e31afa64adf,,,,,,,,,,,jxj,"[""j"",""x"",""j""]","[0.4687000000477042,0.9834000000953438,1.578700000047661,1.9712999999522935]",1,JXJ,2,0,2,0,1,,,,,,,,,,,,,,,,,,,,,,,,,,,,,,,,,,,,,,,,,,,,,,,,,,,,,,,,,,,,,,,,,,,,,,,,,,,,,,,,,,,
,,,,,,,,,,5e6754dfd71cf94cfde2ffcd,20,Mężczyzna,2022-06-04_08h29.47.490,task,2021.1.4,Win32,74.77753683,628b806c463b948bc644b84f,629afb930ad20e31afa64adf,,,,,0,0,0,0,1,X V Q F H G B L J M P D K C T S W R N Z,,,,,,,,,,,,,,,,,,,,,,,,,,,,,,,,,,,,,,,,,,,,,,,,,,,,,,,,,,,,,,,,,,,,,,,,,,,,,,,,,,,,,,,,,,,,,
,,,,,,,,,,5e6754dfd71cf94cfde2ffcd,20,Mężczyzna,2022-06-04_08h29.47.490,task,2021.1.4,Win32,74.77753683,628b806c463b948bc644b84f,629afb930ad20e31afa64adf,,,,,1,0,1,0,1,X V Q F H G B L J M P D K C T S W R N Z,,,,,,,,,,,,,,,,,,,,,,,,,,,,,,,,,,,,,,,,,,,,,,,,,,,,,,,,,,,,,,,,,,,,,,,,,,,,,,,,,,,,,,,,,,,,,
,,,,,,,,,,5e6754dfd71cf94cfde2ffcd,20,Mężczyzna,2022-06-04_08h29.47.490,task,2021.1.4,Win32,74.77753683,628b806c463b948bc644b84f,629afb930ad20e31afa64adf,,,,,2,0,2,0,1,X V Q F H G B L J M P D K C T S W R N Z,,,,,,,,,,,,,,,,,,,,,,,,,,,,,,,,,,,,,,,,,,,,,,,,,,,,,,,,,,,,,,,,,,,,,,,,,,,,,,,,,,,,,,,,,,,,,
,,,,,,,,,,5e6754dfd71cf94cfde2ffcd,20,Mężczyzna,2022-06-04_08h29.47.490,task,2021.1.4,Win32,74.77753683,628b806c463b948bc644b84f,629afb930ad20e31afa64adf,,,,,,,,,,,kvs,"[""k"",""v"",""s""]","[1.2928999998568997,1.5572999999523063,1.8798999998569457,2.1543999998569348]",1,KVS,3,0,3,0,1,,,,,,,,,,,,,,,,,,,,,,,,,,,,,,,,,,,,,,,,,,,,,,,,,,,,,,,,,,,,,,,,,,,,,,,,,,,,,,,,,,,
,,,,,,,,,,5e6754dfd71cf94cfde2ffcd,20,Mężczyzna,2022-06-04_08h29.47.490,task,2021.1.4,Win32,74.77753683,628b806c463b948bc644b84f,629afb930ad20e31afa64adf,,,,,0,0,0,0,1,X V Q F H G B L J M P D K C T S W R N Z,,,,,,,,,,,,,,,,,,,,,,,,,,,,,,,,,,,,,,,,,,,,,,,,,,,,,,,,,,,,,,,,,,,,,,,,,,,,,,,,,,,,,,,,,,,,,
,,,,,,,,,,5e6754dfd71cf94cfde2ffcd,20,Mężczyzna,2022-06-04_08h29.47.490,task,2021.1.4,Win32,74.77753683,628b806c463b948bc644b84f,629afb930ad20e31afa64adf,,,,,1,0,1,0,1,X V Q F H G B L J M P D K C T S W R N Z,,,,,,,,,,,,,,,,,,,,,,,,,,,,,,,,,,,,,,,,,,,,,,,,,,,,,,,,,,,,,,,,,,,,,,,,,,,,,,,,,,,,,,,,,,,,,
,,,,,,,,,,5e6754dfd71cf94cfde2ffcd,20,Mężczyzna,2022-06-04_08h29.47.490,task,2021.1.4,Win32,74.77753683,628b806c463b948bc644b84f,629afb930ad20e31afa64adf,,,,,2,0,2,0,1,X V Q F H G B L J M P D K C T S W R N Z,,,,,,,,,,,,,,,,,,,,,,,,,,,,,,,,,,,,,,,,,,,,,,,,,,,,,,,,,,,,,,,,,,,,,,,,,,,,,,,,,,,,,,,,,,,,,
,,,,,,,,,,5e6754dfd71cf94cfde2ffcd,20,Mężczyzna,2022-06-04_08h29.47.490,task,2021.1.4,Win32,74.77753683,628b806c463b948bc644b84f,629afb930ad20e31afa64adf,,,,,3,0,3,0,1,X V Q F H G B L J M P D K C T S W R N Z,,,,,,,,,,,,,,,,,,,,,,,,,,,,,,,,,,,,,,,,,,,,,,,,,,,,,,,,,,,,,,,,,,,,,,,,,,,,,,,,,,,,,,,,,,,,,
,,,,,,,,,,5e6754dfd71cf94cfde2ffcd,20,Mężczyzna,2022-06-04_08h29.47.490,task,2021.1.4,Win32,74.77753683,628b806c463b948bc644b84f,629afb930ad20e31afa64adf,,,,,,,,,,,gmcp,"[""g"",""m"",""c"",""p""]","[0.6892000000476628,0.9641000001430484,1.2769999999999868,1.518000000000029,1.9533000001907226]",1,GMCP,4,0,4,0,1,,,,,,,,,,,,,,,,,,,,,,,,,,,,,,,,,,,,,,,,,,,,,,,,,,,,,,,,,,,,,,,,,,,,,,,,,,,,,,,,,,,
,,,,,,,,,,5e6754dfd71cf94cfde2ffcd,20,Mężczyzna,2022-06-04_08h29.47.490,task,2021.1.4,Win32,74.77753683,628b806c463b948bc644b84f,629afb930ad20e31afa64adf,,,,,0,0,0,0,1,X V Q F H G B L J M P D K C T S W R N Z,,,,,,,,,,,,,,,,,,,,,,,,,,,,,,,,,,,,,,,,,,,,,,,,,,,,,,,,,,,,,,,,,,,,,,,,,,,,,,,,,,,,,,,,,,,,,
,,,,,,,,,,5e6754dfd71cf94cfde2ffcd,20,Mężczyzna,2022-06-04_08h29.47.490,task,2021.1.4,Win32,74.77753683,628b806c463b948bc644b84f,629afb930ad20e31afa64adf,,,,,1,0,1,0,1,X V Q F H G B L J M P D K C T S W R N Z,,,,,,,,,,,,,,,,,,,,,,,,,,,,,,,,,,,,,,,,,,,,,,,,,,,,,,,,,,,,,,,,,,,,,,,,,,,,,,,,,,,,,,,,,,,,,
,,,,,,,,,,5e6754dfd71cf94cfde2ffcd,20,Mężczyzna,2022-06-04_08h29.47.490,task,2021.1.4,Win32,74.77753683,628b806c463b948bc644b84f,629afb930ad20e31afa64adf,,,,,2,0,2,0,1,X V Q F H G B L J M P D K C T S W R N Z,,,,,,,,,,,,,,,,,,,,,,,,,,,,,,,,,,,,,,,,,,,,,,,,,,,,,,,,,,,,,,,,,,,,,,,,,,,,,,,,,,,,,,,,,,,,,
,,,,,,,,,,5e6754dfd71cf94cfde2ffcd,20,Mężczyzna,2022-06-04_08h29.47.490,task,2021.1.4,Win32,74.77753683,628b806c463b948bc644b84f,629afb930ad20e31afa64adf,,,,,3,0,3,0,1,X V Q F H G B L J M P D K C T S W R N Z,,,,,,,,,,,,,,,,,,,,,,,,,,,,,,,,,,,,,,,,,,,,,,,,,,,,,,,,,,,,,,,,,,,,,,,,,,,,,,,,,,,,,,,,,,,,,
,,,,,,,,,,5e6754dfd71cf94cfde2ffcd,20,Mężczyzna,2022-06-04_08h29.47.490,task,2021.1.4,Win32,74.77753683,628b806c463b948bc644b84f,629afb930ad20e31afa64adf,,,,,,,,,,,vbbm,"[""v"",""b"",""b"",""m""]","[0.47529999995231265,0.9163999998569352,1.1508999998569038,1.3505999999046026,1.967099999904633]",1,VBBM,5,0,5,0,1,,,,,,,,,,,,,,,,,,,,,,,,,,,,,,,,,,,,,,,,,,,,,,,,,,,,,,,,,,,,,,,,,,,,,,,,,,,,,,,,,,,
,,,,,,,,,,5e6754dfd71cf94cfde2ffcd,20,Mężczyzna,2022-06-04_08h29.47.490,task,2021.1.4,Win32,74.77753683,628b806c463b948bc644b84f,629afb930ad20e31afa64adf,,,,,0,0,0,0,1,X V Q F H G B L J M P D K C T S W R N Z,,,,,,,,,,,,,,,,,,,,,,,,,,,,,,,,,,,,,,,,,,,,,,,,,,,,,,,,,,,,,,,,,,,,,,,,,,,,,,,,,,,,,,,,,,,,,
,,,,,,,,,,5e6754dfd71cf94cfde2ffcd,20,Mężczyzna,2022-06-04_08h29.47.490,task,2021.1.4,Win32,74.77753683,628b806c463b948bc644b84f,629afb930ad20e31afa64adf,,,,,1,0,1,0,1,X V Q F H G B L J M P D K C T S W R N Z,,,,,,,,,,,,,,,,,,,,,,,,,,,,,,,,,,,,,,,,,,,,,,,,,,,,,,,,,,,,,,,,,,,,,,,,,,,,,,,,,,,,,,,,,,,,,
,,,,,,,,,,5e6754dfd71cf94cfde2ffcd,20,Mężczyzna,2022-06-04_08h29.47.490,task,2021.1.4,Win32,74.77753683,628b806c463b948bc644b84f,629afb930ad20e31afa64adf,,,,,2,0,2,0,1,X V Q F H G B L J M P D K C T S W R N Z,,,,,,,,,,,,,,,,,,,,,,,,,,,,,,,,,,,,,,,,,,,,,,,,,,,,,,,,,,,,,,,,,,,,,,,,,,,,,,,,,,,,,,,,,,,,,
,,,,,,,,,,5e6754dfd71cf94cfde2ffcd,20,Mężczyzna,2022-06-04_08h29.47.490,task,2021.1.4,Win32,74.77753683,628b806c463b948bc644b84f,629afb930ad20e31afa64adf,,,,,3,0,3,0,1,X V Q F H G B L J M P D K C T S W R N Z,,,,,,,,,,,,,,,,,,,,,,,,,,,,,,,,,,,,,,,,,,,,,,,,,,,,,,,,,,,,,,,,,,,,,,,,,,,,,,,,,,,,,,,,,,,,,
,,,,,,,,,,5e6754dfd71cf94cfde2ffcd,20,Mężczyzna,2022-06-04_08h29.47.490,task,2021.1.4,Win32,74.77753683,628b806c463b948bc644b84f,629afb930ad20e31afa64adf,,,,,4,0,4,0,1,X V Q F H G B L J M P D K C T S W R N Z,,,,,,,,,,,,,,,,,,,,,,,,,,,,,,,,,,,,,,,,,,,,,,,,,,,,,,,,,,,,,,,,,,,,,,,,,,,,,,,,,,,,,,,,,,,,,
,,,,,,,,,,5e6754dfd71cf94cfde2ffcd,20,Mężczyzna,2022-06-04_08h29.47.490,task,2021.1.4,Win32,74.77753683,628b806c463b948bc644b84f,629afb930ad20e31afa64adf,,,,,,,,,,,sdshr,"[""s"",""d"",""s"",""h"",""r""]","[0.6985000000000241,1.1539000000954047,1.9276000001430589,2.2460000000000377,2.461700000047699,2.689299999952368]",0,SHSDR,6,0,6,0,1,,,,,,,,,,,,,,,,,,,,,,,,,,,,,,,,,,,,,,,,,,,,,,,,,,,,,,,,,,,,,,,,,,,,,,,,,,,,,,,,,,,
,,,,,,,,,,5e6754dfd71cf94cfde2ffcd,20,Mężczyzna,2022-06-04_08h29.47.490,task,2021.1.4,Win32,74.77753683,628b806c463b948bc644b84f,629afb930ad20e31afa64adf,,,,,0,0,0,0,1,X V Q F H G B L J M P D K C T S W R N Z,,,,,,,,,,,,,,,,,,,,,,,,,,,,,,,,,,,,,,,,,,,,,,,,,,,,,,,,,,,,,,,,,,,,,,,,,,,,,,,,,,,,,,,,,,,,,
,,,,,,,,,,5e6754dfd71cf94cfde2ffcd,20,Mężczyzna,2022-06-04_08h29.47.490,task,2021.1.4,Win32,74.77753683,628b806c463b948bc644b84f,629afb930ad20e31afa64adf,,,,,1,0,1,0,1,X V Q F H G B L J M P D K C T S W R N Z,,,,,,,,,,,,,,,,,,,,,,,,,,,,,,,,,,,,,,,,,,,,,,,,,,,,,,,,,,,,,,,,,,,,,,,,,,,,,,,,,,,,,,,,,,,,,
,,,,,,,,,,5e6754dfd71cf94cfde2ffcd,20,Mężczyzna,2022-06-04_08h29.47.490,task,2021.1.4,Win32,74.77753683,628b806c463b948bc644b84f,629afb930ad20e31afa64adf,,,,,2,0,2,0,1,X V Q F H G B L J M P D K C T S W R N Z,,,,,,,,,,,,,,,,,,,,,,,,,,,,,,,,,,,,,,,,,,,,,,,,,,,,,,,,,,,,,,,,,,,,,,,,,,,,,,,,,,,,,,,,,,,,,
,,,,,,,,,,5e6754dfd71cf94cfde2ffcd,20,Mężczyzna,2022-06-04_08h29.47.490,task,2021.1.4,Win32,74.77753683,628b806c463b948bc644b84f,629afb930ad20e31afa64adf,,,,,3,0,3,0,1,X V Q F H G B L J M P D K C T S W R N Z,,,,,,,,,,,,,,,,,,,,,,,,,,,,,,,,,,,,,,,,,,,,,,,,,,,,,,,,,,,,,,,,,,,,,,,,,,,,,,,,,,,,,,,,,,,,,
,,,,,,,,,,5e6754dfd71cf94cfde2ffcd,20,Mężczyzna,2022-06-04_08h29.47.490,task,2021.1.4,Win32,74.77753683,628b806c463b948bc644b84f,629afb930ad20e31afa64adf,,,,,4,0,4,0,1,X V Q F H G B L J M P D K C T S W R N Z,,,,,,,,,,,,,,,,,,,,,,,,,,,,,,,,,,,,,,,,,,,,,,,,,,,,,,,,,,,,,,,,,,,,,,,,,,,,,,,,,,,,,,,,,,,,,
,,,,,,,,,,5e6754dfd71cf94cfde2ffcd,20,Mężczyzna,2022-06-04_08h29.47.490,task,2021.1.4,Win32,74.77753683,628b806c463b948bc644b84f,629afb930ad20e31afa64adf,,,,,,,,,,,zzjbp,"[""z"",""z"",""j"",""b"",""p""]","[0.9495000000000005,1.1508000001907703,1.6192000000476696,1.8332000000476683,2.2076000001430884,2.544700000047669]",1,ZZJBP,7,0,7,0,1,,,,,,,,,,,,,,,,,,,,,,,,,,,,,,,,,,,,,,,,,,,,,,,,,,,,,,,,,,,,,,,,,,,,,,,,,,,,,,,,,,,
,,,,,,,,,,5e6754dfd71cf94cfde2ffcd,20,Mężczyzna,2022-06-04_08h29.47.490,task,2021.1.4,Win32,74.77753683,628b806c463b948bc644b84f,629afb930ad20e31afa64adf,,,,,0,0,0,0,1,X V Q F H G B L J M P D K C T S W R N Z,,,,,,,,,,,,,,,,,,,,,,,,,,,,,,,,,,,,,,,,,,,,,,,,,,,,,,,,,,,,,,,,,,,,,,,,,,,,,,,,,,,,,,,,,,,,,
,,,,,,,,,,5e6754dfd71cf94cfde2ffcd,20,Mężczyzna,2022-06-04_08h29.47.490,task,2021.1.4,Win32,74.77753683,628b806c463b948bc644b84f,629afb930ad20e31afa64adf,,,,,1,0,1,0,1,X V Q F H G B L J M P D K C T S W R N Z,,,,,,,,,,,,,,,,,,,,,,,,,,,,,,,,,,,,,,,,,,,,,,,,,,,,,,,,,,,,,,,,,,,,,,,,,,,,,,,,,,,,,,,,,,,,,
,,,,,,,,,,5e6754dfd71cf94cfde2ffcd,20,Mężczyzna,2022-06-04_08h29.47.490,task,2021.1.4,Win32,74.77753683,628b806c463b948bc644b84f,629afb930ad20e31afa64adf,,,,,2,0,2,0,1,X V Q F H G B L J M P D K C T S W R N Z,,,,,,,,,,,,,,,,,,,,,,,,,,,,,,,,,,,,,,,,,,,,,,,,,,,,,,,,,,,,,,,,,,,,,,,,,,,,,,,,,,,,,,,,,,,,,
,,,,,,,,,,5e6754dfd71cf94cfde2ffcd,20,Mężczyzna,2022-06-04_08h29.47.490,task,2021.1.4,Win32,74.77753683,628b806c463b948bc644b84f,629afb930ad20e31afa64adf,,,,,3,0,3,0,1,X V Q F H G B L J M P D K C T S W R N Z,,,,,,,,,,,,,,,,,,,,,,,,,,,,,,,,,,,,,,,,,,,,,,,,,,,,,,,,,,,,,,,,,,,,,,,,,,,,,,,,,,,,,,,,,,,,,
,,,,,,,,,,5e6754dfd71cf94cfde2ffcd,20,Mężczyzna,2022-06-04_08h29.47.490,task,2021.1.4,Win32,74.77753683,628b806c463b948bc644b84f,629afb930ad20e31afa64adf,,,,,4,0,4,0,1,X V Q F H G B L J M P D K C T S W R N Z,,,,,,,,,,,,,,,,,,,,,,,,,,,,,,,,,,,,,,,,,,,,,,,,,,,,,,,,,,,,,,,,,,,,,,,,,,,,,,,,,,,,,,,,,,,,,
,,,,,,,,,,5e6754dfd71cf94cfde2ffcd,20,Mężczyzna,2022-06-04_08h29.47.490,task,2021.1.4,Win32,74.77753683,628b806c463b948bc644b84f,629afb930ad20e31afa64adf,,,,,,,,,,,dlbmv,"[""d"",""l"",""b"",""m"",""v""]","[0.6960999999046749,1.0040999999046676,1.3452000000477256,1.6320999999046535,1.9668999998569916,2.461200000047711]",1,DLBMV,8,0,8,0,1,,,,,,,,,,,,,,,,,,,,,,,,,,,,,,,,,,,,,,,,,,,,,,,,,,,,,,,,,,,,,,,,,,,,,,,,,,,,,,,,,,,
,,,,,,,,,,5e6754dfd71cf94cfde2ffcd,20,Mężczyzna,2022-06-04_08h29.47.490,task,2021.1.4,Win32,74.77753683,628b806c463b948bc644b84f,629afb930ad20e31afa64adf,,,,,0,0,0,0,1,X V Q F H G B L J M P D K C T S W R N Z,,,,,,,,,,,,,,,,,,,,,,,,,,,,,,,,,,,,,,,,,,,,,,,,,,,,,,,,,,,,,,,,,,,,,,,,,,,,,,,,,,,,,,,,,,,,,
,,,,,,,,,,5e6754dfd71cf94cfde2ffcd,20,Mężczyzna,2022-06-04_08h29.47.490,task,2021.1.4,Win32,74.77753683,628b806c463b948bc644b84f,629afb930ad20e31afa64adf,,,,,1,0,1,0,1,X V Q F H G B L J M P D K C T S W R N Z,,,,,,,,,,,,,,,,,,,,,,,,,,,,,,,,,,,,,,,,,,,,,,,,,,,,,,,,,,,,,,,,,,,,,,,,,,,,,,,,,,,,,,,,,,,,,
,,,,,,,,,,5e6754dfd71cf94cfde2ffcd,20,Mężczyzna,2022-06-04_08h29.47.490,task,2021.1.4,Win32,74.77753683,628b806c463b948bc644b84f,629afb930ad20e31afa64adf,,,,,2,0,2,0,1,X V Q F H G B L J M P D K C T S W R N Z,,,,,,,,,,,,,,,,,,,,,,,,,,,,,,,,,,,,,,,,,,,,,,,,,,,,,,,,,,,,,,,,,,,,,,,,,,,,,,,,,,,,,,,,,,,,,
,,,,,,,,,,5e6754dfd71cf94cfde2ffcd,20,Mężczyzna,2022-06-04_08h29.47.490,task,2021.1.4,Win32,74.77753683,628b806c463b948bc644b84f,629afb930ad20e31afa64adf,,,,,3,0,3,0,1,X V Q F H G B L J M P D K C T S W R N Z,,,,,,,,,,,,,,,,,,,,,,,,,,,,,,,,,,,,,,,,,,,,,,,,,,,,,,,,,,,,,,,,,,,,,,,,,,,,,,,,,,,,,,,,,,,,,
,,,,,,,,,,5e6754dfd71cf94cfde2ffcd,20,Mężczyzna,2022-06-04_08h29.47.490,task,2021.1.4,Win32,74.77753683,628b806c463b948bc644b84f,629afb930ad20e31afa64adf,,,,,4,0,4,0,1,X V Q F H G B L J M P D K C T S W R N Z,,,,,,,,,,,,,,,,,,,,,,,,,,,,,,,,,,,,,,,,,,,,,,,,,,,,,,,,,,,,,,,,,,,,,,,,,,,,,,,,,,,,,,,,,,,,,
,,,,,,,,,,5e6754dfd71cf94cfde2ffcd,20,Mężczyzna,2022-06-04_08h29.47.490,task,2021.1.4,Win32,74.77753683,628b806c463b948bc644b84f,629afb930ad20e31afa64adf,,,,,5,0,5,0,1,X V Q F H G B L J M P D K C T S W R N Z,,,,,,,,,,,,,,,,,,,,,,,,,,,,,,,,,,,,,,,,,,,,,,,,,,,,,,,,,,,,,,,,,,,,,,,,,,,,,,,,,,,,,,,,,,,,,
,,,,,,,,,,5e6754dfd71cf94cfde2ffcd,20,Mężczyzna,2022-06-04_08h29.47.490,task,2021.1.4,Win32,74.77753683,628b806c463b948bc644b84f,629afb930ad20e31afa64adf,,,,,,,,,,,hbvrm,"[""h"",""b"",""v"",""r"",""m""]","[0.5623999998569502,1.0964999999999918,1.5254999999999654,8.253899999856912,8.5625,8.949599999904649]",0,HVGBRW,9,0,9,0,1,,,,,,,,,,,,,,,,,,,,,,,,,,,,,,,,,,,,,,,,,,,,,,,,,,,,,,,,,,,,,,,,,,,,,,,,,,,,,,,,,,,
,,,,,,,,,,5e6754dfd71cf94cfde2ffcd,20,Mężczyzna,2022-06-04_08h29.47.490,task,2021.1.4,Win32,74.77753683,628b806c463b948bc644b84f,629afb930ad20e31afa64adf,,,,,0,0,0,0,1,X V Q F H G B L J M P D K C T S W R N Z,,,,,,,,,,,,,,,,,,,,,,,,,,,,,,,,,,,,,,,,,,,,,,,,,,,,,,,,,,,,,,,,,,,,,,,,,,,,,,,,,,,,,,,,,,,,,
,,,,,,,,,,5e6754dfd71cf94cfde2ffcd,20,Mężczyzna,2022-06-04_08h29.47.490,task,2021.1.4,Win32,74.77753683,628b806c463b948bc644b84f,629afb930ad20e31afa64adf,,,,,1,0,1,0,1,X V Q F H G B L J M P D K C T S W R N Z,,,,,,,,,,,,,,,,,,,,,,,,,,,,,,,,,,,,,,,,,,,,,,,,,,,,,,,,,,,,,,,,,,,,,,,,,,,,,,,,,,,,,,,,,,,,,
,,,,,,,,,,5e6754dfd71cf94cfde2ffcd,20,Mężczyzna,2022-06-04_08h29.47.490,task,2021.1.4,Win32,74.77753683,628b806c463b948bc644b84f,629afb930ad20e31afa64adf,,,,,2,0,2,0,1,X V Q F H G B L J M P D K C T S W R N Z,,,,,,,,,,,,,,,,,,,,,,,,,,,,,,,,,,,,,,,,,,,,,,,,,,,,,,,,,,,,,,,,,,,,,,,,,,,,,,,,,,,,,,,,,,,,,
,,,,,,,,,,5e6754dfd71cf94cfde2ffcd,20,Mężczyzna,2022-06-04_08h29.47.490,task,2021.1.4,Win32,74.77753683,628b806c463b948bc644b84f,629afb930ad20e31afa64adf,,,,,3,0,3,0,1,X V Q F H G B L J M P D K C T S W R N Z,,,,,,,,,,,,,,,,,,,,,,,,,,,,,,,,,,,,,,,,,,,,,,,,,,,,,,,,,,,,,,,,,,,,,,,,,,,,,,,,,,,,,,,,,,,,,
,,,,,,,,,,5e6754dfd71cf94cfde2ffcd,20,Mężczyzna,2022-06-04_08h29.47.490,task,2021.1.4,Win32,74.77753683,628b806c463b948bc644b84f,629afb930ad20e31afa64adf,,,,,4,0,4,0,1,X V Q F H G B L J M P D K C T S W R N Z,,,,,,,,,,,,,,,,,,,,,,,,,,,,,,,,,,,,,,,,,,,,,,,,,,,,,,,,,,,,,,,,,,,,,,,,,,,,,,,,,,,,,,,,,,,,,
,,,,,,,,,,5e6754dfd71cf94cfde2ffcd,20,Mężczyzna,2022-06-04_08h29.47.490,task,2021.1.4,Win32,74.77753683,628b806c463b948bc644b84f,629afb930ad20e31afa64adf,,,,,5,0,5,0,1,X V Q F H G B L J M P D K C T S W R N Z,,,,,,,,,,,,,,,,,,,,,,,,,,,,,,,,,,,,,,,,,,,,,,,,,,,,,,,,,,,,,,,,,,,,,,,,,,,,,,,,,,,,,,,,,,,,,
,,,,,,,,,,5e6754dfd71cf94cfde2ffcd,20,Mężczyzna,2022-06-04_08h29.47.490,task,2021.1.4,Win32,74.77753683,628b806c463b948bc644b84f,629afb930ad20e31afa64adf,,,,,,,,,,,htrqbm,"[""h"",""t"",""r"",""q"",""b"",""m""]","[1.0305999999046094,1.3304000000953238,2.9729000000953647,6.200799999952324,6.655499999999961,6.955900000095369,7.3307000000476705]",0,HTMRQB,10,0,10,0,1,,,,,,,,,,,,,,,,,,,,,,,,,,,,,,,,,,,,,,,,,,,,,,,,,,,,,,,,,,,,,,,,,,,,,,,,,,,,,,,,,,,
,,,,,,,,,,5e6754dfd71cf94cfde2ffcd,20,Mężczyzna,2022-06-04_08h29.47.490,task,2021.1.4,Win32,74.77753683,628b806c463b948bc644b84f,629afb930ad20e31afa64adf,,,,,0,0,0,0,1,X V Q F H G B L J M P D K C T S W R N Z,,,,,,,,,,,,,,,,,,,,,,,,,,,,,,,,,,,,,,,,,,,,,,,,,,,,,,,,,,,,,,,,,,,,,,,,,,,,,,,,,,,,,,,,,,,,,
,,,,,,,,,,5e6754dfd71cf94cfde2ffcd,20,Mężczyzna,2022-06-04_08h29.47.490,task,2021.1.4,Win32,74.77753683,628b806c463b948bc644b84f,629afb930ad20e31afa64adf,,,,,1,0,1,0,1,X V Q F H G B L J M P D K C T S W R N Z,,,,,,,,,,,,,,,,,,,,,,,,,,,,,,,,,,,,,,,,,,,,,,,,,,,,,,,,,,,,,,,,,,,,,,,,,,,,,,,,,,,,,,,,,,,,,
,,,,,,,,,,5e6754dfd71cf94cfde2ffcd,20,Mężczyzna,2022-06-04_08h29.47.490,task,2021.1.4,Win32,74.77753683,628b806c463b948bc644b84f,629afb930ad20e31afa64adf,,,,,2,0,2,0,1,X V Q F H G B L J M P D K C T S W R N Z,,,,,,,,,,,,,,,,,,,,,,,,,,,,,,,,,,,,,,,,,,,,,,,,,,,,,,,,,,,,,,,,,,,,,,,,,,,,,,,,,,,,,,,,,,,,,
,,,,,,,,,,5e6754dfd71cf94cfde2ffcd,20,Mężczyzna,2022-06-04_08h29.47.490,task,2021.1.4,Win32,74.77753683,628b806c463b948bc644b84f,629afb930ad20e31afa64adf,,,,,3,0,3,0,1,X V Q F H G B L J M P D K C T S W R N Z,,,,,,,,,,,,,,,,,,,,,,,,,,,,,,,,,,,,,,,,,,,,,,,,,,,,,,,,,,,,,,,,,,,,,,,,,,,,,,,,,,,,,,,,,,,,,
,,,,,,,,,,5e6754dfd71cf94cfde2ffcd,20,Mężczyzna,2022-06-04_08h29.47.490,task,2021.1.4,Win32,74.77753683,628b806c463b948bc644b84f,629afb930ad20e31afa64adf,,,,,4,0,4,0,1,X V Q F H G B L J M P D K C T S W R N Z,,,,,,,,,,,,,,,,,,,,,,,,,,,,,,,,,,,,,,,,,,,,,,,,,,,,,,,,,,,,,,,,,,,,,,,,,,,,,,,,,,,,,,,,,,,,,
,,,,,,,,,,5e6754dfd71cf94cfde2ffcd,20,Mężczyzna,2022-06-04_08h29.47.490,task,2021.1.4,Win32,74.77753683,628b806c463b948bc644b84f,629afb930ad20e31afa64adf,,,,,5,0,5,0,1,X V Q F H G B L J M P D K C T S W R N Z,,,,,,,,,,,,,,,,,,,,,,,,,,,,,,,,,,,,,,,,,,,,,,,,,,,,,,,,,,,,,,,,,,,,,,,,,,,,,,,,,,,,,,,,,,,,,
,,,,,,,,,,5e6754dfd71cf94cfde2ffcd,20,Mężczyzna,2022-06-04_08h29.47.490,task,2021.1.4,Win32,74.77753683,628b806c463b948bc644b84f,629afb930ad20e31afa64adf,,,,,,,,,,,xkcfq,"[""x"",""k"",""c"",""f"",""q""]","[1.3501000001430725,2.1857000000476887,2.581400000095357,2.954700000047694,4.5813000001907085,6.768900000095357]",0,XKCFQR,11,0,11,0,1,,,,,,,,,,,,,,,,,,,,,,,,,,,,,,,,,,,,,,,,,,,,,,,,,,,,,,,,,,,,,,,,,,,,,,,,,,,,,,,,,,,
,,,,,,,,,,5e6754dfd71cf94cfde2ffcd,20,Mężczyzna,2022-06-04_08h29.47.490,task,2021.1.4,Win32,74.77753683,628b806c463b948bc644b84f,629afb930ad20e31afa64adf,,,,,,,,,,,,,,,,,,,,,space,10.1615,5,"[""5""]",1,[3.761900000095352],[3.761900000095352],0,0,0,5,1,Practice,6,(4/2) + 3,5,,,,,,,,,,,,,,,,,,,,,,,,,,,,,,,,,,,,,,,,,,,,,,,,,,,,,,,,,,,,,,,,,,,
,,,,,,,,,,5e6754dfd71cf94cfde2ffcd,20,Mężczyzna,2022-06-04_08h29.47.490,task,2021.1.4,Win32,74.77753683,628b806c463b948bc644b84f,629afb930ad20e31afa64adf,,,,,,,,,,,,,,,,,,,,,,,6,"[""6""]",1,[2.40930000019074],"[3.761900000095352,2.40930000019074]",0,1,1,6,1,Practice,7,(25/5) + 1,6,,,,,,,,,,,,,,,,,,,,,,,,,,,,,,,,,,,,,,,,,,,,,,,,,,,,,,,,,,,,,,,,,,,
,,,,,,,,,,5e6754dfd71cf94cfde2ffcd,20,Mężczyzna,2022-06-04_08h29.47.490,task,2021.1.4,Win32,74.77753683,628b806c463b948bc644b84f,629afb930ad20e31afa64adf,,,,,,,,,,,,,,,,,,,,,,,8,"[""8""]",1,[1.8895999999045898],"[3.761900000095352,2.40930000019074,1.8895999999045898]",0,2,2,8,1,Practice,9,(3x3) - 1,8,,,,,,,,,,,,,,,,,,,,,,,,,,,,,,,,,,,,,,,,,,,,,,,,,,,,,,,,,,,,,,,,,,,
,,,,,,,,,,5e6754dfd71cf94cfde2ffcd,20,Mężczyzna,2022-06-04_08h29.47.490,task,2021.1.4,Win32,74.77753683,628b806c463b948bc644b84f,629afb930ad20e31afa64adf,,,,,,,,,,,,,,,,,,,,,,,2,"[""2""]",1,[1.9267999999523227],"[3.761900000095352,2.40930000019074,1.8895999999045898,1.9267999999523227]",0,3,3,2,1,Practice,3,(4x4) - 14,2,,,,,,,,,,,,,,,,,,,,,,,,,,,,,,,,,,,,,,,,,,,,,,,,,,,,,,,,,,,,,,,,,,,
,,,,,,,,,,5e6754dfd71cf94cfde2ffcd,20,Mężczyzna,2022-06-04_08h29.47.490,task,2021.1.4,Win32,74.77753683,628b806c463b948bc644b84f,629afb930ad20e31afa64adf,,,,,,,,,,,,,,,,,,,,,,,3,"[""3""]",1,[2.4358000001907385],"[3.761900000095352,2.40930000019074,1.8895999999045898,1.9267999999523227,2.4358000001907385]",0,4,4,3,1,Practice,4,(8/4) + 1,3,,,,,,,,,,,,,,,,,,,,,,,,,,,,,,,,,,,,,,,,,,,,,,,,,,,,,,,,,,,,,,,,,,,
,,,,,,,,,,5e6754dfd71cf94cfde2ffcd,20,Mężczyzna,2022-06-04_08h29.47.490,task,2021.1.4,Win32,74.77753683,628b806c463b948bc644b84f,629afb930ad20e31afa64adf,,,,,,,,,,,,,,,,,,,,,,,1,"[""1""]",1,[2.20770000004768],"[3.761900000095352,2.40930000019074,1.8895999999045898,1.9267999999523227,2.4358000001907385,2.20770000004768]",0,5,5,1,1,Practice,2,(4x4) - 15,1,,,,,,,,,,,,,,,,,,,,,,,,,,,,,,,,,,,,,,,,,,,,,,,,,,,,,,,,,,,,,,,,,,,
,,,,,,,,,,5e6754dfd71cf94cfde2ffcd,20,Mężczyzna,2022-06-04_08h29.47.490,task,2021.1.4,Win32,74.77753683,628b806c463b948bc644b84f,629afb930ad20e31afa64adf,,,,,,,,,,,,,,,,,,,,,,,7,"[""7""]",1,[2.957599999904687],"[3.761900000095352,2.40930000019074,1.8895999999045898,1.9267999999523227,2.4358000001907385,2.20770000004768,2.957599999904687]",0,6,6,7,1,Practice,8,(5x5) - 18,7,,,,,,,,,,,,,,,,,,,,,,,,,,,,,,,,,,,,,,,,,,,,,,,,,,,,,,,,,,,,,,,,,,,
,,,,,,,,,,5e6754dfd71cf94cfde2ffcd,20,Mężczyzna,2022-06-04_08h29.47.490,task,2021.1.4,Win32,74.77753683,628b806c463b948bc644b84f,629afb930ad20e31afa64adf,,,,,,,,,,,,,,,,,,,,,,,9,"[""9""]",1,[2.5287000000477065],"[3.761900000095352,2.40930000019074,1.8895999999045898,1.9267999999523227,2.4358000001907385,2.20770000004768,2.957599999904687,2.5287000000477065]",0,7,7,9,1,Practice,10,(20/2) - 1,9,,,,,,,,,,,,,,,,,,,,,,,,,,,,,,,,,,,,,,,,,,,,,,,,,,,,,,,,,,,,,,,,,,,
,,,,,,,,,,5e6754dfd71cf94cfde2ffcd,20,Mężczyzna,2022-06-04_08h29.47.490,task,2021.1.4,Win32,74.77753683,628b806c463b948bc644b84f,629afb930ad20e31afa64adf,,,,,,,,,,,,,,,,,,,,,,,4,"[""4""]",1,[6.715700000047718],"[3.761900000095352,2.40930000019074,1.8895999999045898,1.9267999999523227,2.4358000001907385,2.20770000004768,2.957599999904687,2.5287000000477065,6.715700000047718]",0,8,8,4,1,Practice,5,(2x6) - 8,4,,,,,,,,,,,,,,,,,,,,,,,,,,,,,,,,,,,,,,,,,,,,,,,,,,,,,,,,,,,,,,,,,,,
,,,,,,,,,,5e6754dfd71cf94cfde2ffcd,20,Mężczyzna,2022-06-04_08h29.47.490,task,2021.1.4,Win32,74.77753683,628b806c463b948bc644b84f,629afb930ad20e31afa64adf,,,,,,,,,,,,,,,,,,,,,,,0,"[""0""]",1,[1.8442000000477492],"[3.761900000095352,2.40930000019074,1.8895999999045898,1.9267999999523227,2.4358000001907385,2.20770000004768,2.957599999904687,2.5287000000477065,6.715700000047718,1.8442000000477492]",0,9,9,0,1,Practice,1,(3x3) -  9,0,,,,,,,,,,,,,,,,,,,,,,,,,,,,,,,,,,,,,,,,,,,,,,,,,,,,,,,,,,,,,,,,,,,
,,,,,,,,,,5e6754dfd71cf94cfde2ffcd,20,Mężczyzna,2022-06-04_08h29.47.490,task,2021.1.4,Win32,74.77753683,628b806c463b948bc644b84f,629afb930ad20e31afa64adf,,,,,,,,,,,,,,,,,,,,,,,,,,,,,,,,,,,,,1,28.6773,1.91182,28.58913276,1.380558649,5.473661315,space,1.0441,0,0,0,0,1,,,,,,,,,,,,,,,,,,,,,,,,,,,,,,,,,,,,,,,,,,,,,,,,,,,,,,
,,,,,,,,,,5e6754dfd71cf94cfde2ffcd,20,Mężczyzna,2022-06-04_08h29.47.490,task,2021.1.4,Win32,74.77753683,628b806c463b948bc644b84f,629afb930ad20e31afa64adf,,,,,,,,,,,,,,,,,,,,,,,9,,,,,,,,,,Practice,10,(20/2) - 1,9,,,,,,,,,,,,,,space,21.4556,"[""9""]",1,[2.782000000000039],1,0,0,0,9,1,,,,,,,,,,,,,,,,,,,,,,,,,,,,,,,,,,,,,,,,,,,
,,,,,,,,,,5e6754dfd71cf94cfde2ffcd,20,Mężczyzna,2022-06-04_08h29.47.490,task,2021.1.4,Win32,74.77753683,628b806c463b948bc644b84f,629afb930ad20e31afa64adf,,,,,,,,,,X V Q F H G B L J M P D K C T S W R N Z,,,,,,,,,,,,,,,,,,,,,,,,,,,,,,,,,,,,,,,,,,,,,,,,,,,0,0,0,0,1,,,,,,,,,,,,,,,,,,,,,,,,,,,,,,,,,,,,,,
,,,,,,,,,,5e6754dfd71cf94cfde2ffcd,20,Mężczyzna,2022-06-04_08h29.47.490,task,2021.1.4,Win32,74.77753683,628b806c463b948bc644b84f,629afb930ad20e31afa64adf,,,,,,,,,,,,,,,,,,,,,,,3,,,,,,,,,,Practice,4,(8/4) + 1,3,,,,,,,,,,,,,,,,"[""3""]",1,[4.400400000095374],1,0,0,0,3,1,,,,,,,,,,,,,,,,,,,,,,,,,,,,,,,,,,,,,,,,,,,
,,,,,,,,,,5e6754dfd71cf94cfde2ffcd,20,Mężczyzna,2022-06-04_08h29.47.490,task,2021.1.4,Win32,74.77753683,628b806c463b948bc644b84f,629afb930ad20e31afa64adf,,,,,,,,,,X V Q F H G B L J M P D K C T S W R N Z,,,,,,,,,,,,,,,,,,,,,,,,,,,,,,,,,,,,,,,,,,,,,,,,,,,1,0,1,0,1,,,,,,,,,,,,,,,,,,,,,,,,,,,,,,,,,,,,,,
,,,,,,,,,,5e6754dfd71cf94cfde2ffcd,20,Mężczyzna,2022-06-04_08h29.47.490,task,2021.1.4,Win32,74.77753683,628b806c463b948bc644b84f,629afb930ad20e31afa64adf,,,,,,,,,,,,,,,,,,,,,,,,,,,,,,,,,,,,,,,,,,,,,,,,,,,,,,,,,,,,,,,,,,zb,"[""z"",""b""]",0,"[8.190000000000055,8.576399999857017,9.979899999857025]",1,0,0,0,0,1,,,,,,,,,,,,,,,,,,,,,,,,,,,,
,,,,,,,,,,5e6754dfd71cf94cfde2ffcd,20,Mężczyzna,2022-06-04_08h29.47.490,task,2021.1.4,Win32,74.77753683,628b806c463b948bc644b84f,629afb930ad20e31afa64adf,,,,,,,,,,,,,,,,,,,,,,,1,,,,,,,,,,Practice,2,(4x4) - 15,1,,,,,,,,,,,,,,,,"[""1""]",1,[2.219799999952329],1,0,0,0,1,1,,,,,,,,,,,,,,,,,,,,,,,,,,,,,,,,,,,,,,,,,,,
,,,,,,,,,,5e6754dfd71cf94cfde2ffcd,20,Mężczyzna,2022-06-04_08h29.47.490,task,2021.1.4,Win32,74.77753683,628b806c463b948bc644b84f,629afb930ad20e31afa64adf,,,,,,,,,,X V Q F H G B L J M P D K C T S W R N Z,,,,,,,,,,,,,,,,,,,,,,,,,,,,,,,,,,,,,,,,,,,,,,,,,,,0,0,0,0,1,,,,,,,,,,,,,,,,,,,,,,,,,,,,,,,,,,,,,,
,,,,,,,,,,5e6754dfd71cf94cfde2ffcd,20,Mężczyzna,2022-06-04_08h29.47.490,task,2021.1.4,Win32,74.77753683,628b806c463b948bc644b84f,629afb930ad20e31afa64adf,,,,,,,,,,,,,,,,,,,,,,,1,,,,,,,,,,Practice,2,(4x4) - 15,1,,,,,,,,,,,,,,,,"[""1""]",1,[2.076199999809205],1,0,0,0,1,1,,,,,,,,,,,,,,,,,,,,,,,,,,,,,,,,,,,,,,,,,,,
,,,,,,,,,,5e6754dfd71cf94cfde2ffcd,20,Mężczyzna,2022-06-04_08h29.47.490,task,2021.1.4,Win32,74.77753683,628b806c463b948bc644b84f,629afb930ad20e31afa64adf,,,,,,,,,,X V Q F H G B L J M P D K C T S W R N Z,,,,,,,,,,,,,,,,,,,,,,,,,,,,,,,,,,,,,,,,,,,,,,,,,,,1,0,1,0,1,,,,,,,,,,,,,,,,,,,,,,,,,,,,,,,,,,,,,,
,,,,,,,,,,5e6754dfd71cf94cfde2ffcd,20,Mężczyzna,2022-06-04_08h29.47.490,task,2021.1.4,Win32,74.77753683,628b806c463b948bc644b84f,629afb930ad20e31afa64adf,,,,,,,,,,,,,,,,,,,,,,,,,,,,,,,,,,,,,,,,,,,,,,,,,,,,,,,,,,,,,,,,,,cx,"[""c"",""x""]",0,"[1.4362000000477337,1.672700000047712,2.357399999856966]",1,1,0,1,0,1,,,,,,,,,,,,,,,,,,,,,,,,,,,,
,,,,,,,,,,5e6754dfd71cf94cfde2ffcd,20,Mężczyzna,2022-06-04_08h29.47.490,task,2021.1.4,Win32,74.77753683,628b806c463b948bc644b84f,629afb930ad20e31afa64adf,,,,,,,,,,,,,,,,,,,,,,,8,,,,,,,,,,Practice,9,(3x3) - 1,8,,,,,,,,,,,,,,,,"[""8""]",1,[2.395300000190673],1,0,0,0,8,1,,,,,,,,,,,,,,,,,,,,,,,,,,,,,,,,,,,,,,,,,,,
,,,,,,,,,,5e6754dfd71cf94cfde2ffcd,20,Mężczyzna,2022-06-04_08h29.47.490,task,2021.1.4,Win32,74.77753683,628b806c463b948bc644b84f,629afb930ad20e31afa64adf,,,,,,,,,,X V Q F H G B L J M P D K C T S W R N Z,,,,,,,,,,,,,,,,,,,,,,,,,,,,,,,,,,,,,,,,,,,,,,,,,,,0,0,0,0,1,,,,,,,,,,,,,,,,,,,,,,,,,,,,,,,,,,,,,,
,,,,,,,,,,5e6754dfd71cf94cfde2ffcd,20,Mężczyzna,2022-06-04_08h29.47.490,task,2021.1.4,Win32,74.77753683,628b806c463b948bc644b84f,629afb930ad20e31afa64adf,,,,,,,,,,,,,,,,,,,,,,,3,,,,,,,,,,Practice,4,(8/4) + 1,3,,,,,,,,,,,,,,,,"[""3""]",1,[3.5327000000477256],1,0,0,0,3,1,,,,,,,,,,,,,,,,,,,,,,,,,,,,,,,,,,,,,,,,,,,
,,,,,,,,,,5e6754dfd71cf94cfde2ffcd,20,Mężczyzna,2022-06-04_08h29.47.490,task,2021.1.4,Win32,74.77753683,628b806c463b948bc644b84f,629afb930ad20e31afa64adf,,,,,,,,,,X V Q F H G B L J M P D K C T S W R N Z,,,,,,,,,,,,,,,,,,,,,,,,,,,,,,,,,,,,,,,,,,,,,,,,,,,1,0,1,0,1,,,,,,,,,,,,,,,,,,,,,,,,,,,,,,,,,,,,,,
,,,,,,,,,,5e6754dfd71cf94cfde2ffcd,20,Mężczyzna,2022-06-04_08h29.47.490,task,2021.1.4,Win32,74.77753683,628b806c463b948bc644b84f,629afb930ad20e31afa64adf,,,,,,,,,,,,,,,,,,,,,,,,,,,,,,,,,,,,,,,,,,,,,,,,,,,,,,,,,,,,,,,,,,hh,"[""h"",""h""]",0,"[1.5534000000952801,1.7137000000476519,2.3687000000476246]",1,2,0,2,0,1,,,,,,,,,,,,,,,,,,,,,,,,,,,,
,,,,,,,,,,5e6754dfd71cf94cfde2ffcd,20,Mężczyzna,2022-06-04_08h29.47.490,task,2021.1.4,Win32,74.77753683,628b806c463b948bc644b84f,629afb930ad20e31afa64adf,,,,,,,,,,,,,,,,,,,,,,,,,,,,,,,,,Task,39,(5x3) - 7,8,,,,,,,,,,,,,,,,,,,0,,,,,,,,,,,,,,,,,,,,,space,18.433,,0,0,0,0,38,1,,,,,,,,,,,,,,,,,,,
,,,,,,,,,,5e6754dfd71cf94cfde2ffcd,20,Mężczyzna,2022-06-04_08h29.47.490,task,2021.1.4,Win32,74.77753683,628b806c463b948bc644b84f,629afb930ad20e31afa64adf,,,,,,,,,,,,,,,,,,,,,,,6,,,,,,,,,,Task,5,(2x3) + 0,6,,,,,,,,,,,,,,,,,,,1,,,,,,,,,,,,,,,,,,,,,,,"[""6""]",1,0,1,1,4,1,[2.9424999999999955],,,,,,,,,,,,,,,,,,
,,,,,,,,,,5e6754dfd71cf94cfde2ffcd,20,Mężczyzna,2022-06-04_08h29.47.490,task,2021.1.4,Win32,74.77753683,628b806c463b948bc644b84f,629afb930ad20e31afa64adf,,,,,,,,,,X V Q F H G B L J M P D K C T S W R N Z,,,,,,,,,,,,,,,,,,,,,,,,,,,,,,,,,,,,,,,,,,,,,,,,,,,,,,,,,,,,,,,,,,,,,,,,,,,,0,0,0,0,1,,,,,,,,,,,,,
,,,,,,,,,,5e6754dfd71cf94cfde2ffcd,20,Mężczyzna,2022-06-04_08h29.47.490,task,2021.1.4,Win32,74.77753683,628b806c463b948bc644b84f,629afb930ad20e31afa64adf,,,,,,,,,,,,,,,,,,,,,,,8,,,,,,,,,,Task,15,(3x7) - 13,8,,,,,,,,,,,,,,,,,,,1,,,,,,,,,,,,,,,,,,,,,,,"[""8""]",1,0,0,0,14,1,[3.7502000000476983],,,,,,,,,,,,,,,,,,
,,,,,,,,,,5e6754dfd71cf94cfde2ffcd,20,Mężczyzna,2022-06-04_08h29.47.490,task,2021.1.4,Win32,74.77753683,628b806c463b948bc644b84f,629afb930ad20e31afa64adf,,,,,,,,,,X V Q F H G B L J M P D K C T S W R N Z,,,,,,,,,,,,,,,,,,,,,,,,,,,,,,,,,,,,,,,,,,,,,,,,,,,,,,,,,,,,,,,,,,,,,,,,,,,,1,0,1,0,1,,,,,,,,,,,,,
,,,,,,,,,,5e6754dfd71cf94cfde2ffcd,20,Mężczyzna,2022-06-04_08h29.47.490,task,2021.1.4,Win32,74.77753683,628b806c463b948bc644b84f,629afb930ad20e31afa64adf,,,,,,,,,,,,,,,,,,,,,,,,,,,,,,,,,,,,,,,,,,,,,,,,,,,,,,,,,,,,,,,,,,,,,,,,,,,,,,,,,,,,,,,,,,,zw,"[""z"",""w""]",0,"[1.6476999998092197,1.9681999998092579,2.861499999999978]",1,ZW,0,0,0,0,1,,
,,,,,,,,,,5e6754dfd71cf94cfde2ffcd,20,Mężczyzna,2022-06-04_08h29.47.490,task,2021.1.4,Win32,74.77753683,628b806c463b948bc644b84f,629afb930ad20e31afa64adf,,,,,,,,,,,,,,,,,,,,,,,1,,,,,,,,,,Task,18,(16/4) - 3,1,,,,,,,,,,,,,,,,,,,1,,,,,,,,,,,,,,,,,,,,,,,"[""1""]",1,0,0,0,17,1,[2.355000000000018],,,,,,,,,,,,,,,,,,
,,,,,,,,,,5e6754dfd71cf94cfde2ffcd,20,Mężczyzna,2022-06-04_08h29.47.490,task,2021.1.4,Win32,74.77753683,628b806c463b948bc644b84f,629afb930ad20e31afa64adf,,,,,,,,,,X V Q F H G B L J M P D K C T S W R N Z,,,,,,,,,,,,,,,,,,,,,,,,,,,,,,,,,,,,,,,,,,,,,,,,,,,,,,,,,,,,,,,,,,,,,,,,,,,,0,0,0,0,1,,,,,,,,,,,,,
,,,,,,,,,,5e6754dfd71cf94cfde2ffcd,20,Mężczyzna,2022-06-04_08h29.47.490,task,2021.1.4,Win32,74.77753683,628b806c463b948bc644b84f,629afb930ad20e31afa64adf,,,,,,,,,,,,,,,,,,,,,,,2,,,,,,,,,,Task,2,(2x2) - 2,2,,,,,,,,,,,,,,,,,,,1,,,,,,,,,,,,,,,,,,,,,,,"[""2""]",1,0,0,0,1,1,[1.799300000190783],,,,,,,,,,,,,,,,,,
,,,,,,,,,,5e6754dfd71cf94cfde2ffcd,20,Mężczyzna,2022-06-04_08h29.47.490,task,2021.1.4,Win32,74.77753683,628b806c463b948bc644b84f,629afb930ad20e31afa64adf,,,,,,,,,,X V Q F H G B L J M P D K C T S W R N Z,,,,,,,,,,,,,,,,,,,,,,,,,,,,,,,,,,,,,,,,,,,,,,,,,,,,,,,,,,,,,,,,,,,,,,,,,,,,1,0,1,0,1,,,,,,,,,,,,,
,,,,,,,,,,5e6754dfd71cf94cfde2ffcd,20,Mężczyzna,2022-06-04_08h29.47.490,task,2021.1.4,Win32,74.77753683,628b806c463b948bc644b84f,629afb930ad20e31afa64adf,,,,,,,,,,,,,,,,,,,,,,,1,,,,,,,,,,Task,18,(16/4) - 3,1,,,,,,,,,,,,,,,,,,,1,,,,,,,,,,,,,,,,,,,,,,,"[""1""]",1,0,0,0,17,1,[3.4512999999523117],,,,,,,,,,,,,,,,,,
,,,,,,,,,,5e6754dfd71cf94cfde2ffcd,20,Mężczyzna,2022-06-04_08h29.47.490,task,2021.1.4,Win32,74.77753683,628b806c463b948bc644b84f,629afb930ad20e31afa64adf,,,,,,,,,,X V Q F H G B L J M P D K C T S W R N Z,,,,,,,,,,,,,,,,,,,,,,,,,,,,,,,,,,,,,,,,,,,,,,,,,,,,,,,,,,,,,,,,,,,,,,,,,,,,2,0,2,0,1,,,,,,,,,,,,,
,,,,,,,,,,5e6754dfd71cf94cfde2ffcd,20,Mężczyzna,2022-06-04_08h29.47.490,task,2021.1.4,Win32,74.77753683,628b806c463b948bc644b84f,629afb930ad20e31afa64adf,,,,,,,,,,,,,,,,,,,,,,,,,,,,,,,,,,,,,,,,,,,,,,,,,,,,,,,,,,,,,,,,,,,,,,,,,,,,,,,,,,,,,,,,,,,rlh,"[""r"",""l"",""h""]",0,"[0.9537999999522526,1.4869999999999663,2.5945999999046307,3.264799999952288]",1,RLH,1,0,1,0,1,,
,,,,,,,,,,5e6754dfd71cf94cfde2ffcd,20,Mężczyzna,2022-06-04_08h29.47.490,task,2021.1.4,Win32,74.77753683,628b806c463b948bc644b84f,629afb930ad20e31afa64adf,,,,,,,,,,,,,,,,,,,,,,,4,,,,,,,,,,Task,4,(1x5) - 1,4,,,,,,,,,,,,,,,,,,,1,,,,,,,,,,,,,,,,,,,,,,,"[""4""]",1,0,0,0,3,1,[2.011299999952257],,,,,,,,,,,,,,,,,,
,,,,,,,,,,5e6754dfd71cf94cfde2ffcd,20,Mężczyzna,2022-06-04_08h29.47.490,task,2021.1.4,Win32,74.77753683,628b806c463b948bc644b84f,629afb930ad20e31afa64adf,,,,,,,,,,X V Q F H G B L J M P D K C T S W R N Z,,,,,,,,,,,,,,,,,,,,,,,,,,,,,,,,,,,,,,,,,,,,,,,,,,,,,,,,,,,,,,,,,,,,,,,,,,,,0,0,0,0,1,,,,,,,,,,,,,
,,,,,,,,,,5e6754dfd71cf94cfde2ffcd,20,Mężczyzna,2022-06-04_08h29.47.490,task,2021.1.4,Win32,74.77753683,628b806c463b948bc644b84f,629afb930ad20e31afa64adf,,,,,,,,,,,,,,,,,,,,,,,5,,,,,,,,,,Task,22,(3x1) + 2,5,,,,,,,,,,,,,,,,,,,1,,,,,,,,,,,,,,,,,,,,,,,"[""5""]",1,0,0,0,21,1,[2.1817000000477265],,,,,,,,,,,,,,,,,,
,,,,,,,,,,5e6754dfd71cf94cfde2ffcd,20,Mężczyzna,2022-06-04_08h29.47.490,task,2021.1.4,Win32,74.77753683,628b806c463b948bc644b84f,629afb930ad20e31afa64adf,,,,,,,,,,X V Q F H G B L J M P D K C T S W R N Z,,,,,,,,,,,,,,,,,,,,,,,,,,,,,,,,,,,,,,,,,,,,,,,,,,,,,,,,,,,,,,,,,,,,,,,,,,,,1,0,1,0,1,,,,,,,,,,,,,
,,,,,,,,,,5e6754dfd71cf94cfde2ffcd,20,Mężczyzna,2022-06-04_08h29.47.490,task,2021.1.4,Win32,74.77753683,628b806c463b948bc644b84f,629afb930ad20e31afa64adf,,,,,,,,,,,,,,,,,,,,,,,7,,,,,,,,,,Task,6,(12/2) + 1,7,,,,,,,,,,,,,,,,,,,1,,,,,,,,,,,,,,,,,,,,,,,"[""7""]",1,0,0,0,5,1,[1.9129000000953056],,,,,,,,,,,,,,,,,,
,,,,,,,,,,5e6754dfd71cf94cfde2ffcd,20,Mężczyzna,2022-06-04_08h29.47.490,task,2021.1.4,Win32,74.77753683,628b806c463b948bc644b84f,629afb930ad20e31afa64adf,,,,,,,,,,X V Q F H G B L J M P D K C T S W R N Z,,,,,,,,,,,,,,,,,,,,,,,,,,,,,,,,,,,,,,,,,,,,,,,,,,,,,,,,,,,,,,,,,,,,,,,,,,,,2,0,2,0,1,,,,,,,,,,,,,
,,,,,,,,,,5e6754dfd71cf94cfde2ffcd,20,Mężczyzna,2022-06-04_08h29.47.490,task,2021.1.4,Win32,74.77753683,628b806c463b948bc644b84f,629afb930ad20e31afa64adf,,,,,,,,,,,,,,,,,,,,,,,0,,,,,,,,,,Task,33,(1/1) - 1,0,,,,,,,,,,,,,,,,,,,1,,,,,,,,,,,,,,,,,,,,,,,"[""0""]",1,0,0,0,32,1,[2.2606000001430857],,,,,,,,,,,,,,,,,,
,,,,,,,,,,5e6754dfd71cf94cfde2ffcd,20,Mężczyzna,2022-06-04_08h29.47.490,task,2021.1.4,Win32,74.77753683,628b806c463b948bc644b84f,629afb930ad20e31afa64adf,,,,,,,,,,X V Q F H G B L J M P D K C T S W R N Z,,,,,,,,,,,,,,,,,,,,,,,,,,,,,,,,,,,,,,,,,,,,,,,,,,,,,,,,,,,,,,,,,,,,,,,,,,,,3,0,3,0,1,,,,,,,,,,,,,
,,,,,,,,,,5e6754dfd71cf94cfde2ffcd,20,Mężczyzna,2022-06-04_08h29.47.490,task,2021.1.4,Win32,74.77753683,628b806c463b948bc644b84f,629afb930ad20e31afa64adf,,,,,,,,,,,,,,,,,,,,,,,,,,,,,,,,,,,,,,,,,,,,,,,,,,,,,,,,,,,,,,,,,,,,,,,,,,,,,,,,,,,,,,,,,,,gcsj,"[""g"",""c"",""s"",""j""]",0,"[1.5379000000954193,3.6241000001431303,6.433900000095377,6.653600000143115,7.3603000001908185]",1,GCSJ,2,0,2,0,1,,
,,,,,,,,,,5e6754dfd71cf94cfde2ffcd,20,Mężczyzna,2022-06-04_08h29.47.490,task,2021.1.4,Win32,74.77753683,628b806c463b948bc644b84f,629afb930ad20e31afa64adf,,,,,,,,,,,,,,,,,,,,,,,6,,,,,,,,,,Task,5,(2x3) + 0,6,,,,,,,,,,,,,,,,,,,1,,,,,,,,,,,,,,,,,,,,,,,"[""6""]",1,0,0,0,4,1,[1.7865000000000464],,,,,,,,,,,,,,,,,,
,,,,,,,,,,5e6754dfd71cf94cfde2ffcd,20,Mężczyzna,2022-06-04_08h29.47.490,task,2021.1.4,Win32,74.77753683,628b806c463b948bc644b84f,629afb930ad20e31afa64adf,,,,,,,,,,X V Q F H G B L J M P D K C T S W R N Z,,,,,,,,,,,,,,,,,,,,,,,,,,,,,,,,,,,,,,,,,,,,,,,,,,,,,,,,,,,,,,,,,,,,,,,,,,,,0,0,0,0,1,,,,,,,,,,,,,
,,,,,,,,,,5e6754dfd71cf94cfde2ffcd,20,Mężczyzna,2022-06-04_08h29.47.490,task,2021.1.4,Win32,74.77753683,628b806c463b948bc644b84f,629afb930ad20e31afa64adf,,,,,,,,,,,,,,,,,,,,,,,2,,,,,,,,,,Task,10,(2x5) - 8,2,,,,,,,,,,,,,,,,,,,1,,,,,,,,,,,,,,,,,,,,,,,"[""2""]",1,0,0,0,9,1,[1.3125999999047053],,,,,,,,,,,,,,,,,,
,,,,,,,,,,5e6754dfd71cf94cfde2ffcd,20,Mężczyzna,2022-06-04_08h29.47.490,task,2021.1.4,Win32,74.77753683,628b806c463b948bc644b84f,629afb930ad20e31afa64adf,,,,,,,,,,X V Q F H G B L J M P D K C T S W R N Z,,,,,,,,,,,,,,,,,,,,,,,,,,,,,,,,,,,,,,,,,,,,,,,,,,,,,,,,,,,,,,,,,,,,,,,,,,,,1,0,1,0,1,,,,,,,,,,,,,
,,,,,,,,,,5e6754dfd71cf94cfde2ffcd,20,Mężczyzna,2022-06-04_08h29.47.490,task,2021.1.4,Win32,74.77753683,628b806c463b948bc644b84f,629afb930ad20e31afa64adf,,,,,,,,,,,,,,,,,,,,,,,9,,,,,,,,,,Task,24,(2x2) + 5,9,,,,,,,,,,,,,,,,,,,1,,,,,,,,,,,,,,,,,,,,,,,"[""9""]",1,0,0,0,23,1,[2.5848000001907394],,,,,,,,,,,,,,,,,,
,,,,,,,,,,5e6754dfd71cf94cfde2ffcd,20,Mężczyzna,2022-06-04_08h29.47.490,task,2021.1.4,Win32,74.77753683,628b806c463b948bc644b84f,629afb930ad20e31afa64adf,,,,,,,,,,X V Q F H G B L J M P D K C T S W R N Z,,,,,,,,,,,,,,,,,,,,,,,,,,,,,,,,,,,,,,,,,,,,,,,,,,,,,,,,,,,,,,,,,,,,,,,,,,,,2,0,2,0,1,,,,,,,,,,,,,
,,,,,,,,,,5e6754dfd71cf94cfde2ffcd,20,Mężczyzna,2022-06-04_08h29.47.490,task,2021.1.4,Win32,74.77753683,628b806c463b948bc644b84f,629afb930ad20e31afa64adf,,,,,,,,,,,,,,,,,,,,,,,8,,,,,,,,,,Task,39,(5x3) - 7,8,,,,,,,,,,,,,,,,,,,1,,,,,,,,,,,,,,,,,,,,,,,"[""8""]",1,0,0,0,38,1,[3.657700000047612],,,,,,,,,,,,,,,,,,
,,,,,,,,,,5e6754dfd71cf94cfde2ffcd,20,Mężczyzna,2022-06-04_08h29.47.490,task,2021.1.4,Win32,74.77753683,628b806c463b948bc644b84f,629afb930ad20e31afa64adf,,,,,,,,,,X V Q F H G B L J M P D K C T S W R N Z,,,,,,,,,,,,,,,,,,,,,,,,,,,,,,,,,,,,,,,,,,,,,,,,,,,,,,,,,,,,,,,,,,,,,,,,,,,,3,0,3,0,1,,,,,,,,,,,,,
,,,,,,,,,,5e6754dfd71cf94cfde2ffcd,20,Mężczyzna,2022-06-04_08h29.47.490,task,2021.1.4,Win32,74.77753683,628b806c463b948bc644b84f,629afb930ad20e31afa64adf,,,,,,,,,,,,,,,,,,,,,,,4,,,,,,,,,,Task,21,(10/2) - 1,4,,,,,,,,,,,,,,,,,,,1,,,,,,,,,,,,,,,,,,,,,,,"[""4""]",1,0,0,0,20,1,[2.042100000143023],,,,,,,,,,,,,,,,,,
,,,,,,,,,,5e6754dfd71cf94cfde2ffcd,20,Mężczyzna,2022-06-04_08h29.47.490,task,2021.1.4,Win32,74.77753683,628b806c463b948bc644b84f,629afb930ad20e31afa64adf,,,,,,,,,,X V Q F H G B L J M P D K C T S W R N Z,,,,,,,,,,,,,,,,,,,,,,,,,,,,,,,,,,,,,,,,,,,,,,,,,,,,,,,,,,,,,,,,,,,,,,,,,,,,4,0,4,0,1,,,,,,,,,,,,,
,,,,,,,,,,5e6754dfd71cf94cfde2ffcd,20,Mężczyzna,2022-06-04_08h29.47.490,task,2021.1.4,Win32,74.77753683,628b806c463b948bc644b84f,629afb930ad20e31afa64adf,,,,,,,,,,,,,,,,,,,,,,,,,,,,,,,,,,,,,,,,,,,,,,,,,,,,,,,,,,,,,,,,,,,,,,,,,,,,,,,,,,,,,,,,,,,wnmrb,"[""w"",""n"",""m"",""r"",""b""]",0,"[1.299599999904558,1.608099999904539,1.9127999999523126,2.2217999999522817,2.488699999809228,3.3585999999046408]",1,WNMRB,3,0,3,0,1,,
,,,,,,,,,,5e6754dfd71cf94cfde2ffcd,20,Mężczyzna,2022-06-04_08h29.47.490,task,2021.1.4,Win32,74.77753683,628b806c463b948bc644b84f,629afb930ad20e31afa64adf,,,,,,,,,,,,,,,,,,,,,,,5,,,,,,,,,,Task,22,(3x1) + 2,5,,,,,,,,,,,,,,,,,,,1,,,,,,,,,,,,,,,,,,,,,,,"[""5""]",1,0,0,0,21,1,[1.739500000000021],,,,,,,,,,,,,,,,,,
,,,,,,,,,,5e6754dfd71cf94cfde2ffcd,20,Mężczyzna,2022-06-04_08h29.47.490,task,2021.1.4,Win32,74.77753683,628b806c463b948bc644b84f,629afb930ad20e31afa64adf,,,,,,,,,,X V Q F H G B L J M P D K C T S W R N Z,,,,,,,,,,,,,,,,,,,,,,,,,,,,,,,,,,,,,,,,,,,,,,,,,,,,,,,,,,,,,,,,,,,,,,,,,,,,0,0,0,0,1,,,,,,,,,,,,,
,,,,,,,,,,5e6754dfd71cf94cfde2ffcd,20,Mężczyzna,2022-06-04_08h29.47.490,task,2021.1.4,Win32,74.77753683,628b806c463b948bc644b84f,629afb930ad20e31afa64adf,,,,,,,,,,,,,,,,,,,,,,,8,,,,,,,,,,Task,38,(4x6) - 17,7,,,,,,,,,,,,,,,,,,,0,,,,,,,,,,,,,,,,,,,,,,,"[""8""]",0,0,0,0,37,1,[4.4278000001907],,,,,,,,,,,,,,,,,,
,,,,,,,,,,5e6754dfd71cf94cfde2ffcd,20,Mężczyzna,2022-06-04_08h29.47.490,task,2021.1.4,Win32,74.77753683,628b806c463b948bc644b84f,629afb930ad20e31afa64adf,,,,,,,,,,,,,,,,,,,,,,,6,,,,,,,,,,Task,30,(6/3) + 4 ,6,,,,,,,,,,,,,,,,,,,1,,,,,,,,,,,,,,,,,,,,,,,"[""6""]",1,0,1,1,29,1,[3.991899999856969],,,,,,,,,,,,,,,,,,
,,,,,,,,,,5e6754dfd71cf94cfde2ffcd,20,Mężczyzna,2022-06-04_08h29.47.490,task,2021.1.4,Win32,74.77753683,628b806c463b948bc644b84f,629afb930ad20e31afa64adf,,,,,,,,,,X V Q F H G B L J M P D K C T S W R N Z,,,,,,,,,,,,,,,,,,,,,,,,,,,,,,,,,,,,,,,,,,,,,,,,,,,,,,,,,,,,,,,,,,,,,,,,,,,,1,0,1,0,1,,,,,,,,,,,,,
,,,,,,,,,,5e6754dfd71cf94cfde2ffcd,20,Mężczyzna,2022-06-04_08h29.47.490,task,2021.1.4,Win32,74.77753683,628b806c463b948bc644b84f,629afb930ad20e31afa64adf,,,,,,,,,,,,,,,,,,,,,,,2,,,,,,,,,,Task,2,(2x2) - 2,2,,,,,,,,,,,,,,,,,,,1,,,,,,,,,,,,,,,,,,,,,,,"[""2""]",1,0,0,0,1,1,[1.4450999999046417],,,,,,,,,,,,,,,,,,
,,,,,,,,,,5e6754dfd71cf94cfde2ffcd,20,Mężczyzna,2022-06-04_08h29.47.490,task,2021.1.4,Win32,74.77753683,628b806c463b948bc644b84f,629afb930ad20e31afa64adf,,,,,,,,,,X V Q F H G B L J M P D K C T S W R N Z,,,,,,,,,,,,,,,,,,,,,,,,,,,,,,,,,,,,,,,,,,,,,,,,,,,,,,,,,,,,,,,,,,,,,,,,,,,,2,0,2,0,1,,,,,,,,,,,,,
,,,,,,,,,,5e6754dfd71cf94cfde2ffcd,20,Mężczyzna,2022-06-04_08h29.47.490,task,2021.1.4,Win32,74.77753683,628b806c463b948bc644b84f,629afb930ad20e31afa64adf,,,,,,,,,,,,,,,,,,,,,,,1,,,,,,,,,,Task,34,(9/3) - 2,1,,,,,,,,,,,,,,,,,,,1,,,,,,,,,,,,,,,,,,,,,,,"[""1""]",1,0,0,0,33,1,[2.1917000000477174],,,,,,,,,,,,,,,,,,
,,,,,,,,,,5e6754dfd71cf94cfde2ffcd,20,Mężczyzna,2022-06-04_08h29.47.490,task,2021.1.4,Win32,74.77753683,628b806c463b948bc644b84f,629afb930ad20e31afa64adf,,,,,,,,,,X V Q F H G B L J M P D K C T S W R N Z,,,,,,,,,,,,,,,,,,,,,,,,,,,,,,,,,,,,,,,,,,,,,,,,,,,,,,,,,,,,,,,,,,,,,,,,,,,,3,0,3,0,1,,,,,,,,,,,,,
,,,,,,,,,,5e6754dfd71cf94cfde2ffcd,20,Mężczyzna,2022-06-04_08h29.47.490,task,2021.1.4,Win32,74.77753683,628b806c463b948bc644b84f,629afb930ad20e31afa64adf,,,,,,,,,,,,,,,,,,,,,,,6,,,,,,,,,,Task,13,(3x4) - 6,6,,,,,,,,,,,,,,,,,,,1,,,,,,,,,,,,,,,,,,,,,,,"[""6""]",1,0,0,0,12,1,[3.054299999952377],,,,,,,,,,,,,,,,,,
,,,,,,,,,,5e6754dfd71cf94cfde2ffcd,20,Mężczyzna,2022-06-04_08h29.47.490,task,2021.1.4,Win32,74.77753683,628b806c463b948bc644b84f,629afb930ad20e31afa64adf,,,,,,,,,,X V Q F H G B L J M P D K C T S W R N Z,,,,,,,,,,,,,,,,,,,,,,,,,,,,,,,,,,,,,,,,,,,,,,,,,,,,,,,,,,,,,,,,,,,,,,,,,,,,4,0,4,0,1,,,,,,,,,,,,,
,,,,,,,,,,5e6754dfd71cf94cfde2ffcd,20,Mężczyzna,2022-06-04_08h29.47.490,task,2021.1.4,Win32,74.77753683,628b806c463b948bc644b84f,629afb930ad20e31afa64adf,,,,,,,,,,,,,,,,,,,,,,,0,,,,,,,,,,Task,17,(2x3) - 6,0,,,,,,,,,,,,,,,,,,,1,,,,,,,,,,,,,,,,,,,,,,,"[""0""]",1,0,0,0,16,1,[2.2886000001431057],,,,,,,,,,,,,,,,,,
,,,,,,,,,,5e6754dfd71cf94cfde2ffcd,20,Mężczyzna,2022-06-04_08h29.47.490,task,2021.1.4,Win32,74.77753683,628b806c463b948bc644b84f,629afb930ad20e31afa64adf,,,,,,,,,,X V Q F H G B L J M P D K C T S W R N Z,,,,,,,,,,,,,,,,,,,,,,,,,,,,,,,,,,,,,,,,,,,,,,,,,,,,,,,,,,,,,,,,,,,,,,,,,,,,5,0,5,0,1,,,,,,,,,,,,,
,,,,,,,,,,5e6754dfd71cf94cfde2ffcd,20,Mężczyzna,2022-06-04_08h29.47.490,task,2021.1.4,Win32,74.77753683,628b806c463b948bc644b84f,629afb930ad20e31afa64adf,,,,,,,,,,,,,,,,,,,,,,,,,,,,,,,,,,,,,,,,,,,,,,,,,,,,,,,,,,,,,,,,,,,,,,,,,,,,,,,,,,,,,,,,,,,pbhlpz,"[""p"",""b"",""h"",""l"",""p"",""z""]",0,"[1.7801999998092697,2.157199999809336,2.854399999857037,4.07029999995234,6.154399999856992,6.314599999904658,6.609299999952327]",0,PBHLDZ,4,0,4,0,1,,
,,,,,,,,,,5e6754dfd71cf94cfde2ffcd,20,Mężczyzna,2022-06-04_08h29.47.490,task,2021.1.4,Win32,74.77753683,628b806c463b948bc644b84f,629afb930ad20e31afa64adf,,,,,,,,,,,,,,,,,,,,,,,7,,,,,,,,,,Task,6,(12/2) + 1,7,,,,,,,,,,,,,,,,,,,1,,,,,,,,,,,,,,,,,,,,,,,"[""7""]",1,0,0,0,5,1,[2.0106000001430857],,,,,,,,,,,,,,,,,,
,,,,,,,,,,5e6754dfd71cf94cfde2ffcd,20,Mężczyzna,2022-06-04_08h29.47.490,task,2021.1.4,Win32,74.77753683,628b806c463b948bc644b84f,629afb930ad20e31afa64adf,,,,,,,,,,X V Q F H G B L J M P D K C T S W R N Z,,,,,,,,,,,,,,,,,,,,,,,,,,,,,,,,,,,,,,,,,,,,,,,,,,,,,,,,,,,,,,,,,,,,,,,,,,,,0,0,0,0,1,,,,,,,,,,,,,
,,,,,,,,,,5e6754dfd71cf94cfde2ffcd,20,Mężczyzna,2022-06-04_08h29.47.490,task,2021.1.4,Win32,74.77753683,628b806c463b948bc644b84f,629afb930ad20e31afa64adf,,,,,,,,,,,,,,,,,,,,,,,3,,,,,,,,,,Task,35,(1x2) + 1,3,,,,,,,,,,,,,,,,,,,1,,,,,,,,,,,,,,,,,,,,,,,"[""3""]",1,0,0,0,34,1,[2.2329999999999472],,,,,,,,,,,,,,,,,,
,,,,,,,,,,5e6754dfd71cf94cfde2ffcd,20,Mężczyzna,2022-06-04_08h29.47.490,task,2021.1.4,Win32,74.77753683,628b806c463b948bc644b84f,629afb930ad20e31afa64adf,,,,,,,,,,X V Q F H G B L J M P D K C T S W R N Z,,,,,,,,,,,,,,,,,,,,,,,,,,,,,,,,,,,,,,,,,,,,,,,,,,,,,,,,,,,,,,,,,,,,,,,,,,,,1,0,1,0,1,,,,,,,,,,,,,
,,,,,,,,,,5e6754dfd71cf94cfde2ffcd,20,Mężczyzna,2022-06-04_08h29.47.490,task,2021.1.4,Win32,74.77753683,628b806c463b948bc644b84f,629afb930ad20e31afa64adf,,,,,,,,,,,,,,,,,,,,,,,3,,,,,,,,,,Task,3,(2x3) - 3,3,,,,,,,,,,,,,,,,,,,1,,,,,,,,,,,,,,,,,,,,,,,"[""3""]",1,0,0,0,2,1,[1.940699999809226],,,,,,,,,,,,,,,,,,
,,,,,,,,,,5e6754dfd71cf94cfde2ffcd,20,Mężczyzna,2022-06-04_08h29.47.490,task,2021.1.4,Win32,74.77753683,628b806c463b948bc644b84f,629afb930ad20e31afa64adf,,,,,,,,,,X V Q F H G B L J M P D K C T S W R N Z,,,,,,,,,,,,,,,,,,,,,,,,,,,,,,,,,,,,,,,,,,,,,,,,,,,,,,,,,,,,,,,,,,,,,,,,,,,,2,0,2,0,1,,,,,,,,,,,,,
,,,,,,,,,,5e6754dfd71cf94cfde2ffcd,20,Mężczyzna,2022-06-04_08h29.47.490,task,2021.1.4,Win32,74.77753683,628b806c463b948bc644b84f,629afb930ad20e31afa64adf,,,,,,,,,,,,,,,,,,,,,,,6,,,,,,,,,,Task,30,(6/3) + 4 ,6,,,,,,,,,,,,,,,,,,,1,,,,,,,,,,,,,,,,,,,,,,,"[""6""]",1,0,0,0,29,1,[1.65949999999998],,,,,,,,,,,,,,,,,,
,,,,,,,,,,5e6754dfd71cf94cfde2ffcd,20,Mężczyzna,2022-06-04_08h29.47.490,task,2021.1.4,Win32,74.77753683,628b806c463b948bc644b84f,629afb930ad20e31afa64adf,,,,,,,,,,X V Q F H G B L J M P D K C T S W R N Z,,,,,,,,,,,,,,,,,,,,,,,,,,,,,,,,,,,,,,,,,,,,,,,,,,,,,,,,,,,,,,,,,,,,,,,,,,,,3,0,3,0,1,,,,,,,,,,,,,
,,,,,,,,,,5e6754dfd71cf94cfde2ffcd,20,Mężczyzna,2022-06-04_08h29.47.490,task,2021.1.4,Win32,74.77753683,628b806c463b948bc644b84f,629afb930ad20e31afa64adf,,,,,,,,,,,,,,,,,,,,,,,1,,,,,,,,,,Task,18,(16/4) - 3,1,,,,,,,,,,,,,,,,,,,1,,,,,,,,,,,,,,,,,,,,,,,"[""1""]",1,0,0,0,17,1,[1.3922999999523427],,,,,,,,,,,,,,,,,,
,,,,,,,,,,5e6754dfd71cf94cfde2ffcd,20,Mężczyzna,2022-06-04_08h29.47.490,task,2021.1.4,Win32,74.77753683,628b806c463b948bc644b84f,629afb930ad20e31afa64adf,,,,,,,,,,X V Q F H G B L J M P D K C T S W R N Z,,,,,,,,,,,,,,,,,,,,,,,,,,,,,,,,,,,,,,,,,,,,,,,,,,,,,,,,,,,,,,,,,,,,,,,,,,,,4,0,4,0,1,,,,,,,,,,,,,
,,,,,,,,,,5e6754dfd71cf94cfde2ffcd,20,Mężczyzna,2022-06-04_08h29.47.490,task,2021.1.4,Win32,74.77753683,628b806c463b948bc644b84f,629afb930ad20e31afa64adf,,,,,,,,,,,,,,,,,,,,,,,2,,,,,,,,,,Task,2,(2x2) - 2,2,,,,,,,,,,,,,,,,,,,1,,,,,,,,,,,,,,,,,,,,,,,"[""2""]",1,0,0,0,1,1,[1.1790000000000873],,,,,,,,,,,,,,,,,,
,,,,,,,,,,5e6754dfd71cf94cfde2ffcd,20,Mężczyzna,2022-06-04_08h29.47.490,task,2021.1.4,Win32,74.77753683,628b806c463b948bc644b84f,629afb930ad20e31afa64adf,,,,,,,,,,X V Q F H G B L J M P D K C T S W R N Z,,,,,,,,,,,,,,,,,,,,,,,,,,,,,,,,,,,,,,,,,,,,,,,,,,,,,,,,,,,,,,,,,,,,,,,,,,,,5,0,5,0,1,,,,,,,,,,,,,
,,,,,,,,,,5e6754dfd71cf94cfde2ffcd,20,Mężczyzna,2022-06-04_08h29.47.490,task,2021.1.4,Win32,74.77753683,628b806c463b948bc644b84f,629afb930ad20e31afa64adf,,,,,,,,,,,,,,,,,,,,,,,,,,,,,,,,,,,,,,,,,,,,,,,,,,,,,,,,,,,,,,,,,,,,,,,,,,,,,,,,,,,,,,,,,,,wgtrcx,"[""w"",""g"",""t"",""r"",""c"",""x""]",0,"[1.980700000047591,2.307200000047601,2.863499999999931,3.1555999999045525,3.8933999998569107,4.109799999952315,4.829399999856946]",0,WTGRCX,5,0,5,0,1,,
,,,,,,,,,,5e6754dfd71cf94cfde2ffcd,20,Mężczyzna,2022-06-04_08h29.47.490,task,2021.1.4,Win32,74.77753683,628b806c463b948bc644b84f,629afb930ad20e31afa64adf,,,,,,,,,,,,,,,,,,,,,,,,,,,,,,,,,,,,,,,,,,,,,,,,,,,,,,,,,,,,,,,,,,,,,,,,,,,,,,,,,,,,,,,,,,,,,,,,,,,,,,space,1.9493
