key_resp_15.keys,key_resp_15.rt,key_resp_13.keys,key_resp_13.corr,key_resp_13.rt,ranodm_loop.thisRepN,ranodm_loop.thisTrialN,ranodm_loop.thisN,ranodm_loop.thisIndex,ranodm_loop.ran,participant,Wiek*,Płeć,date,expName,psychopyVersion,OS,frameRate,study_id,session,key_resp_16.keys,key_resp_16.rt,key_resp_4.keys,key_resp_4.rt,next_letter.thisRepN,next_letter.thisTrialN,next_letter.thisN,next_letter.thisIndex,next_letter.ran,letter,simple_recall,key_resp_5.keys,key_resp_5.rt,simple_recall_corr,simple_recall_corrkeys,next_level.thisRepN,next_level.thisTrialN,next_level.thisN,next_level.thisIndex,next_level.ran,key_resp_2.keys,key_resp_2.rt,digit_answer,key_resp.keys,key_resp.corr,key_resp.rt,RT_list,next_equation.thisRepN,next_equation.thisTrialN,next_equation.thisN,next_equation.thisIndex,next_equation.ran,Task,Trial,Problem,Operation_answer,processing_score,sumRT,meanRT,sumdiff,sd,RT,key_resp_3.keys,key_resp_3.rt,repeat_practice.thisRepN,repeat_practice.thisTrialN,repeat_practice.thisN,repeat_practice.thisIndex,repeat_practice.ran,key_resp_6.keys,key_resp_6.rt,key_resp_11.keys,key_resp_11.corr,key_resp_11.rt,operation_correct,repeat_if_wrong_prac.thisRepN,repeat_if_wrong_prac.thisTrialN,repeat_if_wrong_prac.thisN,repeat_if_wrong_prac.thisIndex,repeat_if_wrong_prac.ran,span_size_prac.thisRepN,span_size_prac.thisTrialN,span_size_prac.thisN,span_size_prac.thisIndex,span_size_prac.ran,complex_recall_practice,key_resp_9.keys,key_resp_9.corr,key_resp_9.rt,complex_prac_corr,span_recall_prac.thisRepN,span_recall_prac.thisTrialN,span_recall_prac.thisN,span_recall_prac.thisIndex,span_recall_prac.ran,key_resp_10.keys,key_resp_10.rt,key_resp_7.keys,key_resp_7.corr,key_resp_7.rt,repeat_if_wrong.thisRepN,repeat_if_wrong.thisTrialN,repeat_if_wrong.thisN,repeat_if_wrong.thisIndex,repeat_if_wrong.ran,span_size.thisRepN,span_size.thisTrialN,span_size.thisN,span_size.thisIndex,span_size.ran,complex_recall,key_resp_8.keys,key_resp_8.corr,key_resp_8.rt,complex_recall_corr,complex_recall_corrkeys,span_recall.thisRepN,span_recall.thisTrialN,span_recall.thisN,span_recall.thisIndex,span_recall.ran,key_resp_12.keys,key_resp_12.rt
space,10.956,"[""comma""]",0,[1.6379999999999981],0,0,0,0,1,5e6919c9d1e0d41c51c0a182,23,Kobieta,2022-06-04_08h45.25.630,task,2021.1.4,Win32,60.0240096,628b806c463b948bc644b84f,629afea49629edf0f05fa87c,,,,,,,,,,,,,,,,,,,,,,,,,,,,,,,,,,,,,,,,,,,,,,,,,,,,,,,,,,,,,,,,,,,,,,,,,,,,,,,,,,,,,,,,,,,,,,,,,,,,,,,
,,"[""period""]",0,[1.3640000000000043],1,0,1,0,1,5e6919c9d1e0d41c51c0a182,23,Kobieta,2022-06-04_08h45.25.630,task,2021.1.4,Win32,60.0240096,628b806c463b948bc644b84f,629afea49629edf0f05fa87c,,,,,,,,,,,,,,,,,,,,,,,,,,,,,,,,,,,,,,,,,,,,,,,,,,,,,,,,,,,,,,,,,,,,,,,,,,,,,,,,,,,,,,,,,,,,,,,,,,,,,,,
,,"[""period""]",0,[0.867999999999995],2,0,2,0,1,5e6919c9d1e0d41c51c0a182,23,Kobieta,2022-06-04_08h45.25.630,task,2021.1.4,Win32,60.0240096,628b806c463b948bc644b84f,629afea49629edf0f05fa87c,,,,,,,,,,,,,,,,,,,,,,,,,,,,,,,,,,,,,,,,,,,,,,,,,,,,,,,,,,,,,,,,,,,,,,,,,,,,,,,,,,,,,,,,,,,,,,,,,,,,,,,
,,"[""comma""]",0,[0.5430000000000064],3,0,3,0,1,5e6919c9d1e0d41c51c0a182,23,Kobieta,2022-06-04_08h45.25.630,task,2021.1.4,Win32,60.0240096,628b806c463b948bc644b84f,629afea49629edf0f05fa87c,,,,,,,,,,,,,,,,,,,,,,,,,,,,,,,,,,,,,,,,,,,,,,,,,,,,,,,,,,,,,,,,,,,,,,,,,,,,,,,,,,,,,,,,,,,,,,,,,,,,,,,
,,"[""comma""]",0,[0.5010000000000048],4,0,4,0,1,5e6919c9d1e0d41c51c0a182,23,Kobieta,2022-06-04_08h45.25.630,task,2021.1.4,Win32,60.0240096,628b806c463b948bc644b84f,629afea49629edf0f05fa87c,,,,,,,,,,,,,,,,,,,,,,,,,,,,,,,,,,,,,,,,,,,,,,,,,,,,,,,,,,,,,,,,,,,,,,,,,,,,,,,,,,,,,,,,,,,,,,,,,,,,,,,
,,"[""period""]",0,[0.3960000000000008],5,0,5,0,1,5e6919c9d1e0d41c51c0a182,23,Kobieta,2022-06-04_08h45.25.630,task,2021.1.4,Win32,60.0240096,628b806c463b948bc644b84f,629afea49629edf0f05fa87c,,,,,,,,,,,,,,,,,,,,,,,,,,,,,,,,,,,,,,,,,,,,,,,,,,,,,,,,,,,,,,,,,,,,,,,,,,,,,,,,,,,,,,,,,,,,,,,,,,,,,,,
,,"[""comma""]",0,[0.32500000000000284],6,0,6,0,1,5e6919c9d1e0d41c51c0a182,23,Kobieta,2022-06-04_08h45.25.630,task,2021.1.4,Win32,60.0240096,628b806c463b948bc644b84f,629afea49629edf0f05fa87c,,,,,,,,,,,,,,,,,,,,,,,,,,,,,,,,,,,,,,,,,,,,,,,,,,,,,,,,,,,,,,,,,,,,,,,,,,,,,,,,,,,,,,,,,,,,,,,,,,,,,,,
,,"[""period""]",0,[0.3190000000000026],7,0,7,0,1,5e6919c9d1e0d41c51c0a182,23,Kobieta,2022-06-04_08h45.25.630,task,2021.1.4,Win32,60.0240096,628b806c463b948bc644b84f,629afea49629edf0f05fa87c,,,,,,,,,,,,,,,,,,,,,,,,,,,,,,,,,,,,,,,,,,,,,,,,,,,,,,,,,,,,,,,,,,,,,,,,,,,,,,,,,,,,,,,,,,,,,,,,,,,,,,,
,,"[""period""]",0,[0.29699999999999704],8,0,8,0,1,5e6919c9d1e0d41c51c0a182,23,Kobieta,2022-06-04_08h45.25.630,task,2021.1.4,Win32,60.0240096,628b806c463b948bc644b84f,629afea49629edf0f05fa87c,,,,,,,,,,,,,,,,,,,,,,,,,,,,,,,,,,,,,,,,,,,,,,,,,,,,,,,,,,,,,,,,,,,,,,,,,,,,,,,,,,,,,,,,,,,,,,,,,,,,,,,
,,"[""period""]",0,[0.44199999999999307],9,0,9,0,1,5e6919c9d1e0d41c51c0a182,23,Kobieta,2022-06-04_08h45.25.630,task,2021.1.4,Win32,60.0240096,628b806c463b948bc644b84f,629afea49629edf0f05fa87c,,,,,,,,,,,,,,,,,,,,,,,,,,,,,,,,,,,,,,,,,,,,,,,,,,,,,,,,,,,,,,,,,,,,,,,,,,,,,,,,,,,,,,,,,,,,,,,,,,,,,,,
,,"[""comma""]",0,[0.4030000000000058],10,0,10,0,1,5e6919c9d1e0d41c51c0a182,23,Kobieta,2022-06-04_08h45.25.630,task,2021.1.4,Win32,60.0240096,628b806c463b948bc644b84f,629afea49629edf0f05fa87c,,,,,,,,,,,,,,,,,,,,,,,,,,,,,,,,,,,,,,,,,,,,,,,,,,,,,,,,,,,,,,,,,,,,,,,,,,,,,,,,,,,,,,,,,,,,,,,,,,,,,,,
,,"[""comma""]",0,[0.4339999999999975],11,0,11,0,1,5e6919c9d1e0d41c51c0a182,23,Kobieta,2022-06-04_08h45.25.630,task,2021.1.4,Win32,60.0240096,628b806c463b948bc644b84f,629afea49629edf0f05fa87c,,,,,,,,,,,,,,,,,,,,,,,,,,,,,,,,,,,,,,,,,,,,,,,,,,,,,,,,,,,,,,,,,,,,,,,,,,,,,,,,,,,,,,,,,,,,,,,,,,,,,,,
,,"[""period""]",0,[0.32500000000000284],12,0,12,0,1,5e6919c9d1e0d41c51c0a182,23,Kobieta,2022-06-04_08h45.25.630,task,2021.1.4,Win32,60.0240096,628b806c463b948bc644b84f,629afea49629edf0f05fa87c,,,,,,,,,,,,,,,,,,,,,,,,,,,,,,,,,,,,,,,,,,,,,,,,,,,,,,,,,,,,,,,,,,,,,,,,,,,,,,,,,,,,,,,,,,,,,,,,,,,,,,,
,,"[""comma""]",0,[0.561000000000007],13,0,13,0,1,5e6919c9d1e0d41c51c0a182,23,Kobieta,2022-06-04_08h45.25.630,task,2021.1.4,Win32,60.0240096,628b806c463b948bc644b84f,629afea49629edf0f05fa87c,,,,,,,,,,,,,,,,,,,,,,,,,,,,,,,,,,,,,,,,,,,,,,,,,,,,,,,,,,,,,,,,,,,,,,,,,,,,,,,,,,,,,,,,,,,,,,,,,,,,,,,
,,"[""comma""]",0,[0.6400000000000006],14,0,14,0,1,5e6919c9d1e0d41c51c0a182,23,Kobieta,2022-06-04_08h45.25.630,task,2021.1.4,Win32,60.0240096,628b806c463b948bc644b84f,629afea49629edf0f05fa87c,,,,,,,,,,,,,,,,,,,,,,,,,,,,,,,,,,,,,,,,,,,,,,,,,,,,,,,,,,,,,,,,,,,,,,,,,,,,,,,,,,,,,,,,,,,,,,,,,,,,,,,
,,"[""period""]",0,[0.7590000000000003],15,0,15,0,1,5e6919c9d1e0d41c51c0a182,23,Kobieta,2022-06-04_08h45.25.630,task,2021.1.4,Win32,60.0240096,628b806c463b948bc644b84f,629afea49629edf0f05fa87c,,,,,,,,,,,,,,,,,,,,,,,,,,,,,,,,,,,,,,,,,,,,,,,,,,,,,,,,,,,,,,,,,,,,,,,,,,,,,,,,,,,,,,,,,,,,,,,,,,,,,,,
,,"[""comma""]",0,[0.45300000000000296],16,0,16,0,1,5e6919c9d1e0d41c51c0a182,23,Kobieta,2022-06-04_08h45.25.630,task,2021.1.4,Win32,60.0240096,628b806c463b948bc644b84f,629afea49629edf0f05fa87c,,,,,,,,,,,,,,,,,,,,,,,,,,,,,,,,,,,,,,,,,,,,,,,,,,,,,,,,,,,,,,,,,,,,,,,,,,,,,,,,,,,,,,,,,,,,,,,,,,,,,,,
,,"[""period""]",0,[0.5810000000000031],17,0,17,0,1,5e6919c9d1e0d41c51c0a182,23,Kobieta,2022-06-04_08h45.25.630,task,2021.1.4,Win32,60.0240096,628b806c463b948bc644b84f,629afea49629edf0f05fa87c,,,,,,,,,,,,,,,,,,,,,,,,,,,,,,,,,,,,,,,,,,,,,,,,,,,,,,,,,,,,,,,,,,,,,,,,,,,,,,,,,,,,,,,,,,,,,,,,,,,,,,,
,,"[""comma""]",0,[0.5170000000000101],18,0,18,0,1,5e6919c9d1e0d41c51c0a182,23,Kobieta,2022-06-04_08h45.25.630,task,2021.1.4,Win32,60.0240096,628b806c463b948bc644b84f,629afea49629edf0f05fa87c,,,,,,,,,,,,,,,,,,,,,,,,,,,,,,,,,,,,,,,,,,,,,,,,,,,,,,,,,,,,,,,,,,,,,,,,,,,,,,,,,,,,,,,,,,,,,,,,,,,,,,,
,,"[""period""]",0,[0.4619999999999891],19,0,19,0,1,5e6919c9d1e0d41c51c0a182,23,Kobieta,2022-06-04_08h45.25.630,task,2021.1.4,Win32,60.0240096,628b806c463b948bc644b84f,629afea49629edf0f05fa87c,,,,,,,,,,,,,,,,,,,,,,,,,,,,,,,,,,,,,,,,,,,,,,,,,,,,,,,,,,,,,,,,,,,,,,,,,,,,,,,,,,,,,,,,,,,,,,,,,,,,,,,
,,"[""period""]",0,[0.40100000000001046],20,0,20,0,1,5e6919c9d1e0d41c51c0a182,23,Kobieta,2022-06-04_08h45.25.630,task,2021.1.4,Win32,60.0240096,628b806c463b948bc644b84f,629afea49629edf0f05fa87c,,,,,,,,,,,,,,,,,,,,,,,,,,,,,,,,,,,,,,,,,,,,,,,,,,,,,,,,,,,,,,,,,,,,,,,,,,,,,,,,,,,,,,,,,,,,,,,,,,,,,,,
,,"[""period""]",0,[0.5],21,0,21,0,1,5e6919c9d1e0d41c51c0a182,23,Kobieta,2022-06-04_08h45.25.630,task,2021.1.4,Win32,60.0240096,628b806c463b948bc644b84f,629afea49629edf0f05fa87c,,,,,,,,,,,,,,,,,,,,,,,,,,,,,,,,,,,,,,,,,,,,,,,,,,,,,,,,,,,,,,,,,,,,,,,,,,,,,,,,,,,,,,,,,,,,,,,,,,,,,,,
,,"[""comma""]",0,[0.5240000000000009],22,0,22,0,1,5e6919c9d1e0d41c51c0a182,23,Kobieta,2022-06-04_08h45.25.630,task,2021.1.4,Win32,60.0240096,628b806c463b948bc644b84f,629afea49629edf0f05fa87c,,,,,,,,,,,,,,,,,,,,,,,,,,,,,,,,,,,,,,,,,,,,,,,,,,,,,,,,,,,,,,,,,,,,,,,,,,,,,,,,,,,,,,,,,,,,,,,,,,,,,,,
,,"[""comma""]",0,[0.6210000000000093],23,0,23,0,1,5e6919c9d1e0d41c51c0a182,23,Kobieta,2022-06-04_08h45.25.630,task,2021.1.4,Win32,60.0240096,628b806c463b948bc644b84f,629afea49629edf0f05fa87c,,,,,,,,,,,,,,,,,,,,,,,,,,,,,,,,,,,,,,,,,,,,,,,,,,,,,,,,,,,,,,,,,,,,,,,,,,,,,,,,,,,,,,,,,,,,,,,,,,,,,,,
,,"[""comma""]",0,[0.679000000000002],24,0,24,0,1,5e6919c9d1e0d41c51c0a182,23,Kobieta,2022-06-04_08h45.25.630,task,2021.1.4,Win32,60.0240096,628b806c463b948bc644b84f,629afea49629edf0f05fa87c,,,,,,,,,,,,,,,,,,,,,,,,,,,,,,,,,,,,,,,,,,,,,,,,,,,,,,,,,,,,,,,,,,,,,,,,,,,,,,,,,,,,,,,,,,,,,,,,,,,,,,,
,,"[""period""]",0,[0.5699999999999932],25,0,25,0,1,5e6919c9d1e0d41c51c0a182,23,Kobieta,2022-06-04_08h45.25.630,task,2021.1.4,Win32,60.0240096,628b806c463b948bc644b84f,629afea49629edf0f05fa87c,,,,,,,,,,,,,,,,,,,,,,,,,,,,,,,,,,,,,,,,,,,,,,,,,,,,,,,,,,,,,,,,,,,,,,,,,,,,,,,,,,,,,,,,,,,,,,,,,,,,,,,
,,"[""comma""]",0,[0.5609999999999928],26,0,26,0,1,5e6919c9d1e0d41c51c0a182,23,Kobieta,2022-06-04_08h45.25.630,task,2021.1.4,Win32,60.0240096,628b806c463b948bc644b84f,629afea49629edf0f05fa87c,,,,,,,,,,,,,,,,,,,,,,,,,,,,,,,,,,,,,,,,,,,,,,,,,,,,,,,,,,,,,,,,,,,,,,,,,,,,,,,,,,,,,,,,,,,,,,,,,,,,,,,
,,"[""comma""]",0,[0.7070000000000078],27,0,27,0,1,5e6919c9d1e0d41c51c0a182,23,Kobieta,2022-06-04_08h45.25.630,task,2021.1.4,Win32,60.0240096,628b806c463b948bc644b84f,629afea49629edf0f05fa87c,,,,,,,,,,,,,,,,,,,,,,,,,,,,,,,,,,,,,,,,,,,,,,,,,,,,,,,,,,,,,,,,,,,,,,,,,,,,,,,,,,,,,,,,,,,,,,,,,,,,,,,
,,"[""period""]",0,[0.597999999999999],28,0,28,0,1,5e6919c9d1e0d41c51c0a182,23,Kobieta,2022-06-04_08h45.25.630,task,2021.1.4,Win32,60.0240096,628b806c463b948bc644b84f,629afea49629edf0f05fa87c,,,,,,,,,,,,,,,,,,,,,,,,,,,,,,,,,,,,,,,,,,,,,,,,,,,,,,,,,,,,,,,,,,,,,,,,,,,,,,,,,,,,,,,,,,,,,,,,,,,,,,,
,,"[""comma""]",0,[0.597999999999999],29,0,29,0,1,5e6919c9d1e0d41c51c0a182,23,Kobieta,2022-06-04_08h45.25.630,task,2021.1.4,Win32,60.0240096,628b806c463b948bc644b84f,629afea49629edf0f05fa87c,,,,,,,,,,,,,,,,,,,,,,,,,,,,,,,,,,,,,,,,,,,,,,,,,,,,,,,,,,,,,,,,,,,,,,,,,,,,,,,,,,,,,,,,,,,,,,,,,,,,,,,
,,"[""comma""]",0,[0.5219999999999914],30,0,30,0,1,5e6919c9d1e0d41c51c0a182,23,Kobieta,2022-06-04_08h45.25.630,task,2021.1.4,Win32,60.0240096,628b806c463b948bc644b84f,629afea49629edf0f05fa87c,,,,,,,,,,,,,,,,,,,,,,,,,,,,,,,,,,,,,,,,,,,,,,,,,,,,,,,,,,,,,,,,,,,,,,,,,,,,,,,,,,,,,,,,,,,,,,,,,,,,,,,
,,"[""period""]",0,[0.42900000000000205],31,0,31,0,1,5e6919c9d1e0d41c51c0a182,23,Kobieta,2022-06-04_08h45.25.630,task,2021.1.4,Win32,60.0240096,628b806c463b948bc644b84f,629afea49629edf0f05fa87c,,,,,,,,,,,,,,,,,,,,,,,,,,,,,,,,,,,,,,,,,,,,,,,,,,,,,,,,,,,,,,,,,,,,,,,,,,,,,,,,,,,,,,,,,,,,,,,,,,,,,,,
,,"[""comma""]",0,[0.5679999999999836],32,0,32,0,1,5e6919c9d1e0d41c51c0a182,23,Kobieta,2022-06-04_08h45.25.630,task,2021.1.4,Win32,60.0240096,628b806c463b948bc644b84f,629afea49629edf0f05fa87c,,,,,,,,,,,,,,,,,,,,,,,,,,,,,,,,,,,,,,,,,,,,,,,,,,,,,,,,,,,,,,,,,,,,,,,,,,,,,,,,,,,,,,,,,,,,,,,,,,,,,,,
,,"[""comma""]",0,[0.6090000000000089],33,0,33,0,1,5e6919c9d1e0d41c51c0a182,23,Kobieta,2022-06-04_08h45.25.630,task,2021.1.4,Win32,60.0240096,628b806c463b948bc644b84f,629afea49629edf0f05fa87c,,,,,,,,,,,,,,,,,,,,,,,,,,,,,,,,,,,,,,,,,,,,,,,,,,,,,,,,,,,,,,,,,,,,,,,,,,,,,,,,,,,,,,,,,,,,,,,,,,,,,,,
,,"[""period""]",0,[0.5949999999999989],34,0,34,0,1,5e6919c9d1e0d41c51c0a182,23,Kobieta,2022-06-04_08h45.25.630,task,2021.1.4,Win32,60.0240096,628b806c463b948bc644b84f,629afea49629edf0f05fa87c,,,,,,,,,,,,,,,,,,,,,,,,,,,,,,,,,,,,,,,,,,,,,,,,,,,,,,,,,,,,,,,,,,,,,,,,,,,,,,,,,,,,,,,,,,,,,,,,,,,,,,,
,,"[""comma""]",0,[0.4449999999999932],35,0,35,0,1,5e6919c9d1e0d41c51c0a182,23,Kobieta,2022-06-04_08h45.25.630,task,2021.1.4,Win32,60.0240096,628b806c463b948bc644b84f,629afea49629edf0f05fa87c,,,,,,,,,,,,,,,,,,,,,,,,,,,,,,,,,,,,,,,,,,,,,,,,,,,,,,,,,,,,,,,,,,,,,,,,,,,,,,,,,,,,,,,,,,,,,,,,,,,,,,,
,,"[""period""]",0,[0.5240000000000009],36,0,36,0,1,5e6919c9d1e0d41c51c0a182,23,Kobieta,2022-06-04_08h45.25.630,task,2021.1.4,Win32,60.0240096,628b806c463b948bc644b84f,629afea49629edf0f05fa87c,,,,,,,,,,,,,,,,,,,,,,,,,,,,,,,,,,,,,,,,,,,,,,,,,,,,,,,,,,,,,,,,,,,,,,,,,,,,,,,,,,,,,,,,,,,,,,,,,,,,,,,
,,"[""comma""]",0,[0.6359999999999957],37,0,37,0,1,5e6919c9d1e0d41c51c0a182,23,Kobieta,2022-06-04_08h45.25.630,task,2021.1.4,Win32,60.0240096,628b806c463b948bc644b84f,629afea49629edf0f05fa87c,,,,,,,,,,,,,,,,,,,,,,,,,,,,,,,,,,,,,,,,,,,,,,,,,,,,,,,,,,,,,,,,,,,,,,,,,,,,,,,,,,,,,,,,,,,,,,,,,,,,,,,
,,"[""period""]",0,[0.6490000000000009],38,0,38,0,1,5e6919c9d1e0d41c51c0a182,23,Kobieta,2022-06-04_08h45.25.630,task,2021.1.4,Win32,60.0240096,628b806c463b948bc644b84f,629afea49629edf0f05fa87c,,,,,,,,,,,,,,,,,,,,,,,,,,,,,,,,,,,,,,,,,,,,,,,,,,,,,,,,,,,,,,,,,,,,,,,,,,,,,,,,,,,,,,,,,,,,,,,,,,,,,,,
,,"[""comma""]",0,[0.6020000000000039],39,0,39,0,1,5e6919c9d1e0d41c51c0a182,23,Kobieta,2022-06-04_08h45.25.630,task,2021.1.4,Win32,60.0240096,628b806c463b948bc644b84f,629afea49629edf0f05fa87c,,,,,,,,,,,,,,,,,,,,,,,,,,,,,,,,,,,,,,,,,,,,,,,,,,,,,,,,,,,,,,,,,,,,,,,,,,,,,,,,,,,,,,,,,,,,,,,,,,,,,,,
,,"[""comma""]",0,[0.49500000000000455],40,0,40,0,1,5e6919c9d1e0d41c51c0a182,23,Kobieta,2022-06-04_08h45.25.630,task,2021.1.4,Win32,60.0240096,628b806c463b948bc644b84f,629afea49629edf0f05fa87c,,,,,,,,,,,,,,,,,,,,,,,,,,,,,,,,,,,,,,,,,,,,,,,,,,,,,,,,,,,,,,,,,,,,,,,,,,,,,,,,,,,,,,,,,,,,,,,,,,,,,,,
,,"[""comma""]",0,[0.6140000000000043],41,0,41,0,1,5e6919c9d1e0d41c51c0a182,23,Kobieta,2022-06-04_08h45.25.630,task,2021.1.4,Win32,60.0240096,628b806c463b948bc644b84f,629afea49629edf0f05fa87c,,,,,,,,,,,,,,,,,,,,,,,,,,,,,,,,,,,,,,,,,,,,,,,,,,,,,,,,,,,,,,,,,,,,,,,,,,,,,,,,,,,,,,,,,,,,,,,,,,,,,,,
,,"[""period""]",0,[0.7839999999999918],42,0,42,0,1,5e6919c9d1e0d41c51c0a182,23,Kobieta,2022-06-04_08h45.25.630,task,2021.1.4,Win32,60.0240096,628b806c463b948bc644b84f,629afea49629edf0f05fa87c,,,,,,,,,,,,,,,,,,,,,,,,,,,,,,,,,,,,,,,,,,,,,,,,,,,,,,,,,,,,,,,,,,,,,,,,,,,,,,,,,,,,,,,,,,,,,,,,,,,,,,,
,,"[""period""]",0,[0.8410000000000082],43,0,43,0,1,5e6919c9d1e0d41c51c0a182,23,Kobieta,2022-06-04_08h45.25.630,task,2021.1.4,Win32,60.0240096,628b806c463b948bc644b84f,629afea49629edf0f05fa87c,,,,,,,,,,,,,,,,,,,,,,,,,,,,,,,,,,,,,,,,,,,,,,,,,,,,,,,,,,,,,,,,,,,,,,,,,,,,,,,,,,,,,,,,,,,,,,,,,,,,,,,
,,"[""period""]",0,[0.679000000000002],44,0,44,0,1,5e6919c9d1e0d41c51c0a182,23,Kobieta,2022-06-04_08h45.25.630,task,2021.1.4,Win32,60.0240096,628b806c463b948bc644b84f,629afea49629edf0f05fa87c,,,,,,,,,,,,,,,,,,,,,,,,,,,,,,,,,,,,,,,,,,,,,,,,,,,,,,,,,,,,,,,,,,,,,,,,,,,,,,,,,,,,,,,,,,,,,,,,,,,,,,,
,,"[""comma""]",0,[0.6090000000000089],45,0,45,0,1,5e6919c9d1e0d41c51c0a182,23,Kobieta,2022-06-04_08h45.25.630,task,2021.1.4,Win32,60.0240096,628b806c463b948bc644b84f,629afea49629edf0f05fa87c,,,,,,,,,,,,,,,,,,,,,,,,,,,,,,,,,,,,,,,,,,,,,,,,,,,,,,,,,,,,,,,,,,,,,,,,,,,,,,,,,,,,,,,,,,,,,,,,,,,,,,,
,,"[""comma""]",0,[0.5159999999999911],46,0,46,0,1,5e6919c9d1e0d41c51c0a182,23,Kobieta,2022-06-04_08h45.25.630,task,2021.1.4,Win32,60.0240096,628b806c463b948bc644b84f,629afea49629edf0f05fa87c,,,,,,,,,,,,,,,,,,,,,,,,,,,,,,,,,,,,,,,,,,,,,,,,,,,,,,,,,,,,,,,,,,,,,,,,,,,,,,,,,,,,,,,,,,,,,,,,,,,,,,,
,,"[""comma""]",0,[0.45300000000000296],47,0,47,0,1,5e6919c9d1e0d41c51c0a182,23,Kobieta,2022-06-04_08h45.25.630,task,2021.1.4,Win32,60.0240096,628b806c463b948bc644b84f,629afea49629edf0f05fa87c,,,,,,,,,,,,,,,,,,,,,,,,,,,,,,,,,,,,,,,,,,,,,,,,,,,,,,,,,,,,,,,,,,,,,,,,,,,,,,,,,,,,,,,,,,,,,,,,,,,,,,,
,,"[""comma""]",0,[0.507000000000005],48,0,48,0,1,5e6919c9d1e0d41c51c0a182,23,Kobieta,2022-06-04_08h45.25.630,task,2021.1.4,Win32,60.0240096,628b806c463b948bc644b84f,629afea49629edf0f05fa87c,,,,,,,,,,,,,,,,,,,,,,,,,,,,,,,,,,,,,,,,,,,,,,,,,,,,,,,,,,,,,,,,,,,,,,,,,,,,,,,,,,,,,,,,,,,,,,,,,,,,,,,
,,"[""period""]",0,[0.4900000000000091],49,0,49,0,1,5e6919c9d1e0d41c51c0a182,23,Kobieta,2022-06-04_08h45.25.630,task,2021.1.4,Win32,60.0240096,628b806c463b948bc644b84f,629afea49629edf0f05fa87c,,,,,,,,,,,,,,,,,,,,,,,,,,,,,,,,,,,,,,,,,,,,,,,,,,,,,,,,,,,,,,,,,,,,,,,,,,,,,,,,,,,,,,,,,,,,,,,,,,,,,,,
,,"[""period""]",0,[0.5120000000000005],50,0,50,0,1,5e6919c9d1e0d41c51c0a182,23,Kobieta,2022-06-04_08h45.25.630,task,2021.1.4,Win32,60.0240096,628b806c463b948bc644b84f,629afea49629edf0f05fa87c,,,,,,,,,,,,,,,,,,,,,,,,,,,,,,,,,,,,,,,,,,,,,,,,,,,,,,,,,,,,,,,,,,,,,,,,,,,,,,,,,,,,,,,,,,,,,,,,,,,,,,,
,,"[""comma""]",0,[0.4560000000000173],51,0,51,0,1,5e6919c9d1e0d41c51c0a182,23,Kobieta,2022-06-04_08h45.25.630,task,2021.1.4,Win32,60.0240096,628b806c463b948bc644b84f,629afea49629edf0f05fa87c,,,,,,,,,,,,,,,,,,,,,,,,,,,,,,,,,,,,,,,,,,,,,,,,,,,,,,,,,,,,,,,,,,,,,,,,,,,,,,,,,,,,,,,,,,,,,,,,,,,,,,,
,,"[""period""]",0,[0.6440000000000055],52,0,52,0,1,5e6919c9d1e0d41c51c0a182,23,Kobieta,2022-06-04_08h45.25.630,task,2021.1.4,Win32,60.0240096,628b806c463b948bc644b84f,629afea49629edf0f05fa87c,,,,,,,,,,,,,,,,,,,,,,,,,,,,,,,,,,,,,,,,,,,,,,,,,,,,,,,,,,,,,,,,,,,,,,,,,,,,,,,,,,,,,,,,,,,,,,,,,,,,,,,
,,"[""comma""]",0,[0.5450000000000159],53,0,53,0,1,5e6919c9d1e0d41c51c0a182,23,Kobieta,2022-06-04_08h45.25.630,task,2021.1.4,Win32,60.0240096,628b806c463b948bc644b84f,629afea49629edf0f05fa87c,,,,,,,,,,,,,,,,,,,,,,,,,,,,,,,,,,,,,,,,,,,,,,,,,,,,,,,,,,,,,,,,,,,,,,,,,,,,,,,,,,,,,,,,,,,,,,,,,,,,,,,
,,"[""period""]",0,[0.7990000000000066],54,0,54,0,1,5e6919c9d1e0d41c51c0a182,23,Kobieta,2022-06-04_08h45.25.630,task,2021.1.4,Win32,60.0240096,628b806c463b948bc644b84f,629afea49629edf0f05fa87c,,,,,,,,,,,,,,,,,,,,,,,,,,,,,,,,,,,,,,,,,,,,,,,,,,,,,,,,,,,,,,,,,,,,,,,,,,,,,,,,,,,,,,,,,,,,,,,,,,,,,,,
,,"[""comma""]",0,[0.578000000000003],55,0,55,0,1,5e6919c9d1e0d41c51c0a182,23,Kobieta,2022-06-04_08h45.25.630,task,2021.1.4,Win32,60.0240096,628b806c463b948bc644b84f,629afea49629edf0f05fa87c,,,,,,,,,,,,,,,,,,,,,,,,,,,,,,,,,,,,,,,,,,,,,,,,,,,,,,,,,,,,,,,,,,,,,,,,,,,,,,,,,,,,,,,,,,,,,,,,,,,,,,,
,,"[""period""]",0,[0.5150000000000148],56,0,56,0,1,5e6919c9d1e0d41c51c0a182,23,Kobieta,2022-06-04_08h45.25.630,task,2021.1.4,Win32,60.0240096,628b806c463b948bc644b84f,629afea49629edf0f05fa87c,,,,,,,,,,,,,,,,,,,,,,,,,,,,,,,,,,,,,,,,,,,,,,,,,,,,,,,,,,,,,,,,,,,,,,,,,,,,,,,,,,,,,,,,,,,,,,,,,,,,,,,
,,"[""period""]",0,[0.6610000000000014],57,0,57,0,1,5e6919c9d1e0d41c51c0a182,23,Kobieta,2022-06-04_08h45.25.630,task,2021.1.4,Win32,60.0240096,628b806c463b948bc644b84f,629afea49629edf0f05fa87c,,,,,,,,,,,,,,,,,,,,,,,,,,,,,,,,,,,,,,,,,,,,,,,,,,,,,,,,,,,,,,,,,,,,,,,,,,,,,,,,,,,,,,,,,,,,,,,,,,,,,,,
,,"[""period""]",0,[0.5460000000000207],58,0,58,0,1,5e6919c9d1e0d41c51c0a182,23,Kobieta,2022-06-04_08h45.25.630,task,2021.1.4,Win32,60.0240096,628b806c463b948bc644b84f,629afea49629edf0f05fa87c,,,,,,,,,,,,,,,,,,,,,,,,,,,,,,,,,,,,,,,,,,,,,,,,,,,,,,,,,,,,,,,,,,,,,,,,,,,,,,,,,,,,,,,,,,,,,,,,,,,,,,,
,,"[""comma""]",0,[0.525999999999982],59,0,59,0,1,5e6919c9d1e0d41c51c0a182,23,Kobieta,2022-06-04_08h45.25.630,task,2021.1.4,Win32,60.0240096,628b806c463b948bc644b84f,629afea49629edf0f05fa87c,,,,,,,,,,,,,,,,,,,,,,,,,,,,,,,,,,,,,,,,,,,,,,,,,,,,,,,,,,,,,,,,,,,,,,,,,,,,,,,,,,,,,,,,,,,,,,,,,,,,,,,
,,"[""period""]",0,[0.6639999999999873],60,0,60,0,1,5e6919c9d1e0d41c51c0a182,23,Kobieta,2022-06-04_08h45.25.630,task,2021.1.4,Win32,60.0240096,628b806c463b948bc644b84f,629afea49629edf0f05fa87c,,,,,,,,,,,,,,,,,,,,,,,,,,,,,,,,,,,,,,,,,,,,,,,,,,,,,,,,,,,,,,,,,,,,,,,,,,,,,,,,,,,,,,,,,,,,,,,,,,,,,,,
,,"[""comma""]",0,[0.6220000000000141],61,0,61,0,1,5e6919c9d1e0d41c51c0a182,23,Kobieta,2022-06-04_08h45.25.630,task,2021.1.4,Win32,60.0240096,628b806c463b948bc644b84f,629afea49629edf0f05fa87c,,,,,,,,,,,,,,,,,,,,,,,,,,,,,,,,,,,,,,,,,,,,,,,,,,,,,,,,,,,,,,,,,,,,,,,,,,,,,,,,,,,,,,,,,,,,,,,,,,,,,,,
,,"[""comma""]",0,[0.6910000000000025],62,0,62,0,1,5e6919c9d1e0d41c51c0a182,23,Kobieta,2022-06-04_08h45.25.630,task,2021.1.4,Win32,60.0240096,628b806c463b948bc644b84f,629afea49629edf0f05fa87c,,,,,,,,,,,,,,,,,,,,,,,,,,,,,,,,,,,,,,,,,,,,,,,,,,,,,,,,,,,,,,,,,,,,,,,,,,,,,,,,,,,,,,,,,,,,,,,,,,,,,,,
,,"[""period""]",0,[0.7199999999999989],63,0,63,0,1,5e6919c9d1e0d41c51c0a182,23,Kobieta,2022-06-04_08h45.25.630,task,2021.1.4,Win32,60.0240096,628b806c463b948bc644b84f,629afea49629edf0f05fa87c,,,,,,,,,,,,,,,,,,,,,,,,,,,,,,,,,,,,,,,,,,,,,,,,,,,,,,,,,,,,,,,,,,,,,,,,,,,,,,,,,,,,,,,,,,,,,,,,,,,,,,,
,,"[""comma""]",0,[0.6129999999999995],64,0,64,0,1,5e6919c9d1e0d41c51c0a182,23,Kobieta,2022-06-04_08h45.25.630,task,2021.1.4,Win32,60.0240096,628b806c463b948bc644b84f,629afea49629edf0f05fa87c,,,,,,,,,,,,,,,,,,,,,,,,,,,,,,,,,,,,,,,,,,,,,,,,,,,,,,,,,,,,,,,,,,,,,,,,,,,,,,,,,,,,,,,,,,,,,,,,,,,,,,,
,,"[""period""]",0,[0.44300000000001205],65,0,65,0,1,5e6919c9d1e0d41c51c0a182,23,Kobieta,2022-06-04_08h45.25.630,task,2021.1.4,Win32,60.0240096,628b806c463b948bc644b84f,629afea49629edf0f05fa87c,,,,,,,,,,,,,,,,,,,,,,,,,,,,,,,,,,,,,,,,,,,,,,,,,,,,,,,,,,,,,,,,,,,,,,,,,,,,,,,,,,,,,,,,,,,,,,,,,,,,,,,
,,"[""comma""]",0,[0.5670000000000073],66,0,66,0,1,5e6919c9d1e0d41c51c0a182,23,Kobieta,2022-06-04_08h45.25.630,task,2021.1.4,Win32,60.0240096,628b806c463b948bc644b84f,629afea49629edf0f05fa87c,,,,,,,,,,,,,,,,,,,,,,,,,,,,,,,,,,,,,,,,,,,,,,,,,,,,,,,,,,,,,,,,,,,,,,,,,,,,,,,,,,,,,,,,,,,,,,,,,,,,,,,
,,"[""comma""]",0,[0.6479999999999961],67,0,67,0,1,5e6919c9d1e0d41c51c0a182,23,Kobieta,2022-06-04_08h45.25.630,task,2021.1.4,Win32,60.0240096,628b806c463b948bc644b84f,629afea49629edf0f05fa87c,,,,,,,,,,,,,,,,,,,,,,,,,,,,,,,,,,,,,,,,,,,,,,,,,,,,,,,,,,,,,,,,,,,,,,,,,,,,,,,,,,,,,,,,,,,,,,,,,,,,,,,
,,"[""comma""]",0,[0.9010000000000105],68,0,68,0,1,5e6919c9d1e0d41c51c0a182,23,Kobieta,2022-06-04_08h45.25.630,task,2021.1.4,Win32,60.0240096,628b806c463b948bc644b84f,629afea49629edf0f05fa87c,,,,,,,,,,,,,,,,,,,,,,,,,,,,,,,,,,,,,,,,,,,,,,,,,,,,,,,,,,,,,,,,,,,,,,,,,,,,,,,,,,,,,,,,,,,,,,,,,,,,,,,
,,"[""period""]",0,[0.4939999999999998],69,0,69,0,1,5e6919c9d1e0d41c51c0a182,23,Kobieta,2022-06-04_08h45.25.630,task,2021.1.4,Win32,60.0240096,628b806c463b948bc644b84f,629afea49629edf0f05fa87c,,,,,,,,,,,,,,,,,,,,,,,,,,,,,,,,,,,,,,,,,,,,,,,,,,,,,,,,,,,,,,,,,,,,,,,,,,,,,,,,,,,,,,,,,,,,,,,,,,,,,,,
,,"[""period""]",0,[0.561000000000007],70,0,70,0,1,5e6919c9d1e0d41c51c0a182,23,Kobieta,2022-06-04_08h45.25.630,task,2021.1.4,Win32,60.0240096,628b806c463b948bc644b84f,629afea49629edf0f05fa87c,,,,,,,,,,,,,,,,,,,,,,,,,,,,,,,,,,,,,,,,,,,,,,,,,,,,,,,,,,,,,,,,,,,,,,,,,,,,,,,,,,,,,,,,,,,,,,,,,,,,,,,
,,"[""period""]",0,[0.6059999999999945],71,0,71,0,1,5e6919c9d1e0d41c51c0a182,23,Kobieta,2022-06-04_08h45.25.630,task,2021.1.4,Win32,60.0240096,628b806c463b948bc644b84f,629afea49629edf0f05fa87c,,,,,,,,,,,,,,,,,,,,,,,,,,,,,,,,,,,,,,,,,,,,,,,,,,,,,,,,,,,,,,,,,,,,,,,,,,,,,,,,,,,,,,,,,,,,,,,,,,,,,,,
,,"[""comma""]",0,[0.3669999999999902],72,0,72,0,1,5e6919c9d1e0d41c51c0a182,23,Kobieta,2022-06-04_08h45.25.630,task,2021.1.4,Win32,60.0240096,628b806c463b948bc644b84f,629afea49629edf0f05fa87c,,,,,,,,,,,,,,,,,,,,,,,,,,,,,,,,,,,,,,,,,,,,,,,,,,,,,,,,,,,,,,,,,,,,,,,,,,,,,,,,,,,,,,,,,,,,,,,,,,,,,,,
,,"[""comma""]",0,[0.5260000000000105],73,0,73,0,1,5e6919c9d1e0d41c51c0a182,23,Kobieta,2022-06-04_08h45.25.630,task,2021.1.4,Win32,60.0240096,628b806c463b948bc644b84f,629afea49629edf0f05fa87c,,,,,,,,,,,,,,,,,,,,,,,,,,,,,,,,,,,,,,,,,,,,,,,,,,,,,,,,,,,,,,,,,,,,,,,,,,,,,,,,,,,,,,,,,,,,,,,,,,,,,,,
,,"[""period""]",0,[0.4619999999999891],74,0,74,0,1,5e6919c9d1e0d41c51c0a182,23,Kobieta,2022-06-04_08h45.25.630,task,2021.1.4,Win32,60.0240096,628b806c463b948bc644b84f,629afea49629edf0f05fa87c,,,,,,,,,,,,,,,,,,,,,,,,,,,,,,,,,,,,,,,,,,,,,,,,,,,,,,,,,,,,,,,,,,,,,,,,,,,,,,,,,,,,,,,,,,,,,,,,,,,,,,,
,,"[""period""]",0,[0.37000000000000455],75,0,75,0,1,5e6919c9d1e0d41c51c0a182,23,Kobieta,2022-06-04_08h45.25.630,task,2021.1.4,Win32,60.0240096,628b806c463b948bc644b84f,629afea49629edf0f05fa87c,,,,,,,,,,,,,,,,,,,,,,,,,,,,,,,,,,,,,,,,,,,,,,,,,,,,,,,,,,,,,,,,,,,,,,,,,,,,,,,,,,,,,,,,,,,,,,,,,,,,,,,
,,"[""period""]",0,[0.5289999999999964],76,0,76,0,1,5e6919c9d1e0d41c51c0a182,23,Kobieta,2022-06-04_08h45.25.630,task,2021.1.4,Win32,60.0240096,628b806c463b948bc644b84f,629afea49629edf0f05fa87c,,,,,,,,,,,,,,,,,,,,,,,,,,,,,,,,,,,,,,,,,,,,,,,,,,,,,,,,,,,,,,,,,,,,,,,,,,,,,,,,,,,,,,,,,,,,,,,,,,,,,,,
,,"[""comma""]",0,[0.3340000000000032],77,0,77,0,1,5e6919c9d1e0d41c51c0a182,23,Kobieta,2022-06-04_08h45.25.630,task,2021.1.4,Win32,60.0240096,628b806c463b948bc644b84f,629afea49629edf0f05fa87c,,,,,,,,,,,,,,,,,,,,,,,,,,,,,,,,,,,,,,,,,,,,,,,,,,,,,,,,,,,,,,,,,,,,,,,,,,,,,,,,,,,,,,,,,,,,,,,,,,,,,,,
,,"[""period""]",0,[0.6100000000000136],78,0,78,0,1,5e6919c9d1e0d41c51c0a182,23,Kobieta,2022-06-04_08h45.25.630,task,2021.1.4,Win32,60.0240096,628b806c463b948bc644b84f,629afea49629edf0f05fa87c,,,,,,,,,,,,,,,,,,,,,,,,,,,,,,,,,,,,,,,,,,,,,,,,,,,,,,,,,,,,,,,,,,,,,,,,,,,,,,,,,,,,,,,,,,,,,,,,,,,,,,,
,,"[""comma""]",0,[0.5949999999999989],79,0,79,0,1,5e6919c9d1e0d41c51c0a182,23,Kobieta,2022-06-04_08h45.25.630,task,2021.1.4,Win32,60.0240096,628b806c463b948bc644b84f,629afea49629edf0f05fa87c,,,,,,,,,,,,,,,,,,,,,,,,,,,,,,,,,,,,,,,,,,,,,,,,,,,,,,,,,,,,,,,,,,,,,,,,,,,,,,,,,,,,,,,,,,,,,,,,,,,,,,,
,,"[""comma""]",0,[0.40100000000001046],80,0,80,0,1,5e6919c9d1e0d41c51c0a182,23,Kobieta,2022-06-04_08h45.25.630,task,2021.1.4,Win32,60.0240096,628b806c463b948bc644b84f,629afea49629edf0f05fa87c,,,,,,,,,,,,,,,,,,,,,,,,,,,,,,,,,,,,,,,,,,,,,,,,,,,,,,,,,,,,,,,,,,,,,,,,,,,,,,,,,,,,,,,,,,,,,,,,,,,,,,,
,,"[""period""]",0,[0.33499999999997954],81,0,81,0,1,5e6919c9d1e0d41c51c0a182,23,Kobieta,2022-06-04_08h45.25.630,task,2021.1.4,Win32,60.0240096,628b806c463b948bc644b84f,629afea49629edf0f05fa87c,,,,,,,,,,,,,,,,,,,,,,,,,,,,,,,,,,,,,,,,,,,,,,,,,,,,,,,,,,,,,,,,,,,,,,,,,,,,,,,,,,,,,,,,,,,,,,,,,,,,,,,
,,"[""period""]",0,[0.6090000000000089],82,0,82,0,1,5e6919c9d1e0d41c51c0a182,23,Kobieta,2022-06-04_08h45.25.630,task,2021.1.4,Win32,60.0240096,628b806c463b948bc644b84f,629afea49629edf0f05fa87c,,,,,,,,,,,,,,,,,,,,,,,,,,,,,,,,,,,,,,,,,,,,,,,,,,,,,,,,,,,,,,,,,,,,,,,,,,,,,,,,,,,,,,,,,,,,,,,,,,,,,,,
,,"[""comma""]",0,[0.41900000000001114],83,0,83,0,1,5e6919c9d1e0d41c51c0a182,23,Kobieta,2022-06-04_08h45.25.630,task,2021.1.4,Win32,60.0240096,628b806c463b948bc644b84f,629afea49629edf0f05fa87c,,,,,,,,,,,,,,,,,,,,,,,,,,,,,,,,,,,,,,,,,,,,,,,,,,,,,,,,,,,,,,,,,,,,,,,,,,,,,,,,,,,,,,,,,,,,,,,,,,,,,,,
,,"[""period""]",0,[0.2779999999999916],84,0,84,0,1,5e6919c9d1e0d41c51c0a182,23,Kobieta,2022-06-04_08h45.25.630,task,2021.1.4,Win32,60.0240096,628b806c463b948bc644b84f,629afea49629edf0f05fa87c,,,,,,,,,,,,,,,,,,,,,,,,,,,,,,,,,,,,,,,,,,,,,,,,,,,,,,,,,,,,,,,,,,,,,,,,,,,,,,,,,,,,,,,,,,,,,,,,,,,,,,,
,,"[""comma""]",0,[0.5840000000000032],85,0,85,0,1,5e6919c9d1e0d41c51c0a182,23,Kobieta,2022-06-04_08h45.25.630,task,2021.1.4,Win32,60.0240096,628b806c463b948bc644b84f,629afea49629edf0f05fa87c,,,,,,,,,,,,,,,,,,,,,,,,,,,,,,,,,,,,,,,,,,,,,,,,,,,,,,,,,,,,,,,,,,,,,,,,,,,,,,,,,,,,,,,,,,,,,,,,,,,,,,,
,,"[""comma""]",0,[0.5829999999999984],86,0,86,0,1,5e6919c9d1e0d41c51c0a182,23,Kobieta,2022-06-04_08h45.25.630,task,2021.1.4,Win32,60.0240096,628b806c463b948bc644b84f,629afea49629edf0f05fa87c,,,,,,,,,,,,,,,,,,,,,,,,,,,,,,,,,,,,,,,,,,,,,,,,,,,,,,,,,,,,,,,,,,,,,,,,,,,,,,,,,,,,,,,,,,,,,,,,,,,,,,,
,,"[""period""]",0,[0.4130000000000109],87,0,87,0,1,5e6919c9d1e0d41c51c0a182,23,Kobieta,2022-06-04_08h45.25.630,task,2021.1.4,Win32,60.0240096,628b806c463b948bc644b84f,629afea49629edf0f05fa87c,,,,,,,,,,,,,,,,,,,,,,,,,,,,,,,,,,,,,,,,,,,,,,,,,,,,,,,,,,,,,,,,,,,,,,,,,,,,,,,,,,,,,,,,,,,,,,,,,,,,,,,
,,"[""comma""]",0,[0.44000000000002615],88,0,88,0,1,5e6919c9d1e0d41c51c0a182,23,Kobieta,2022-06-04_08h45.25.630,task,2021.1.4,Win32,60.0240096,628b806c463b948bc644b84f,629afea49629edf0f05fa87c,,,,,,,,,,,,,,,,,,,,,,,,,,,,,,,,,,,,,,,,,,,,,,,,,,,,,,,,,,,,,,,,,,,,,,,,,,,,,,,,,,,,,,,,,,,,,,,,,,,,,,,
,,"[""period""]",0,[0.42499999999998295],89,0,89,0,1,5e6919c9d1e0d41c51c0a182,23,Kobieta,2022-06-04_08h45.25.630,task,2021.1.4,Win32,60.0240096,628b806c463b948bc644b84f,629afea49629edf0f05fa87c,,,,,,,,,,,,,,,,,,,,,,,,,,,,,,,,,,,,,,,,,,,,,,,,,,,,,,,,,,,,,,,,,,,,,,,,,,,,,,,,,,,,,,,,,,,,,,,,,,,,,,,
,,"[""period""]",0,[0.3439999999999941],90,0,90,0,1,5e6919c9d1e0d41c51c0a182,23,Kobieta,2022-06-04_08h45.25.630,task,2021.1.4,Win32,60.0240096,628b806c463b948bc644b84f,629afea49629edf0f05fa87c,,,,,,,,,,,,,,,,,,,,,,,,,,,,,,,,,,,,,,,,,,,,,,,,,,,,,,,,,,,,,,,,,,,,,,,,,,,,,,,,,,,,,,,,,,,,,,,,,,,,,,,
,,"[""comma""]",0,[0.5960000000000036],91,0,91,0,1,5e6919c9d1e0d41c51c0a182,23,Kobieta,2022-06-04_08h45.25.630,task,2021.1.4,Win32,60.0240096,628b806c463b948bc644b84f,629afea49629edf0f05fa87c,,,,,,,,,,,,,,,,,,,,,,,,,,,,,,,,,,,,,,,,,,,,,,,,,,,,,,,,,,,,,,,,,,,,,,,,,,,,,,,,,,,,,,,,,,,,,,,,,,,,,,,
,,"[""comma""]",0,[0.4590000000000032],92,0,92,0,1,5e6919c9d1e0d41c51c0a182,23,Kobieta,2022-06-04_08h45.25.630,task,2021.1.4,Win32,60.0240096,628b806c463b948bc644b84f,629afea49629edf0f05fa87c,,,,,,,,,,,,,,,,,,,,,,,,,,,,,,,,,,,,,,,,,,,,,,,,,,,,,,,,,,,,,,,,,,,,,,,,,,,,,,,,,,,,,,,,,,,,,,,,,,,,,,,
,,"[""period""]",0,[0.4480000000000075],93,0,93,0,1,5e6919c9d1e0d41c51c0a182,23,Kobieta,2022-06-04_08h45.25.630,task,2021.1.4,Win32,60.0240096,628b806c463b948bc644b84f,629afea49629edf0f05fa87c,,,,,,,,,,,,,,,,,,,,,,,,,,,,,,,,,,,,,,,,,,,,,,,,,,,,,,,,,,,,,,,,,,,,,,,,,,,,,,,,,,,,,,,,,,,,,,,,,,,,,,,
,,"[""period""]",0,[0.3650000000000091],94,0,94,0,1,5e6919c9d1e0d41c51c0a182,23,Kobieta,2022-06-04_08h45.25.630,task,2021.1.4,Win32,60.0240096,628b806c463b948bc644b84f,629afea49629edf0f05fa87c,,,,,,,,,,,,,,,,,,,,,,,,,,,,,,,,,,,,,,,,,,,,,,,,,,,,,,,,,,,,,,,,,,,,,,,,,,,,,,,,,,,,,,,,,,,,,,,,,,,,,,,
,,"[""comma""]",0,[0.32200000000000273],95,0,95,0,1,5e6919c9d1e0d41c51c0a182,23,Kobieta,2022-06-04_08h45.25.630,task,2021.1.4,Win32,60.0240096,628b806c463b948bc644b84f,629afea49629edf0f05fa87c,,,,,,,,,,,,,,,,,,,,,,,,,,,,,,,,,,,,,,,,,,,,,,,,,,,,,,,,,,,,,,,,,,,,,,,,,,,,,,,,,,,,,,,,,,,,,,,,,,,,,,,
,,"[""comma""]",0,[0.40100000000001046],96,0,96,0,1,5e6919c9d1e0d41c51c0a182,23,Kobieta,2022-06-04_08h45.25.630,task,2021.1.4,Win32,60.0240096,628b806c463b948bc644b84f,629afea49629edf0f05fa87c,,,,,,,,,,,,,,,,,,,,,,,,,,,,,,,,,,,,,,,,,,,,,,,,,,,,,,,,,,,,,,,,,,,,,,,,,,,,,,,,,,,,,,,,,,,,,,,,,,,,,,,
,,"[""period""]",0,[0.44700000000000273],97,0,97,0,1,5e6919c9d1e0d41c51c0a182,23,Kobieta,2022-06-04_08h45.25.630,task,2021.1.4,Win32,60.0240096,628b806c463b948bc644b84f,629afea49629edf0f05fa87c,,,,,,,,,,,,,,,,,,,,,,,,,,,,,,,,,,,,,,,,,,,,,,,,,,,,,,,,,,,,,,,,,,,,,,,,,,,,,,,,,,,,,,,,,,,,,,,,,,,,,,,
,,"[""period""]",0,[0.38700000000000045],98,0,98,0,1,5e6919c9d1e0d41c51c0a182,23,Kobieta,2022-06-04_08h45.25.630,task,2021.1.4,Win32,60.0240096,628b806c463b948bc644b84f,629afea49629edf0f05fa87c,,,,,,,,,,,,,,,,,,,,,,,,,,,,,,,,,,,,,,,,,,,,,,,,,,,,,,,,,,,,,,,,,,,,,,,,,,,,,,,,,,,,,,,,,,,,,,,,,,,,,,,
,,"[""comma""]",0,[0.5459999999999923],99,0,99,0,1,5e6919c9d1e0d41c51c0a182,23,Kobieta,2022-06-04_08h45.25.630,task,2021.1.4,Win32,60.0240096,628b806c463b948bc644b84f,629afea49629edf0f05fa87c,,,,,,,,,,,,,,,,,,,,,,,,,,,,,,,,,,,,,,,,,,,,,,,,,,,,,,,,,,,,,,,,,,,,,,,,,,,,,,,,,,,,,,,,,,,,,,,,,,,,,,,
,,"[""comma""]",0,[0.37700000000000955],100,0,100,0,1,5e6919c9d1e0d41c51c0a182,23,Kobieta,2022-06-04_08h45.25.630,task,2021.1.4,Win32,60.0240096,628b806c463b948bc644b84f,629afea49629edf0f05fa87c,,,,,,,,,,,,,,,,,,,,,,,,,,,,,,,,,,,,,,,,,,,,,,,,,,,,,,,,,,,,,,,,,,,,,,,,,,,,,,,,,,,,,,,,,,,,,,,,,,,,,,,
,,"[""period""]",0,[0.4619999999999891],101,0,101,0,1,5e6919c9d1e0d41c51c0a182,23,Kobieta,2022-06-04_08h45.25.630,task,2021.1.4,Win32,60.0240096,628b806c463b948bc644b84f,629afea49629edf0f05fa87c,,,,,,,,,,,,,,,,,,,,,,,,,,,,,,,,,,,,,,,,,,,,,,,,,,,,,,,,,,,,,,,,,,,,,,,,,,,,,,,,,,,,,,,,,,,,,,,,,,,,,,,
,,"[""period""]",0,[0.4269999999999641],102,0,102,0,1,5e6919c9d1e0d41c51c0a182,23,Kobieta,2022-06-04_08h45.25.630,task,2021.1.4,Win32,60.0240096,628b806c463b948bc644b84f,629afea49629edf0f05fa87c,,,,,,,,,,,,,,,,,,,,,,,,,,,,,,,,,,,,,,,,,,,,,,,,,,,,,,,,,,,,,,,,,,,,,,,,,,,,,,,,,,,,,,,,,,,,,,,,,,,,,,,
,,"[""period""]",0,[0.3669999999999618],103,0,103,0,1,5e6919c9d1e0d41c51c0a182,23,Kobieta,2022-06-04_08h45.25.630,task,2021.1.4,Win32,60.0240096,628b806c463b948bc644b84f,629afea49629edf0f05fa87c,,,,,,,,,,,,,,,,,,,,,,,,,,,,,,,,,,,,,,,,,,,,,,,,,,,,,,,,,,,,,,,,,,,,,,,,,,,,,,,,,,,,,,,,,,,,,,,,,,,,,,,
,,"[""comma""]",0,[0.3560000000000514],104,0,104,0,1,5e6919c9d1e0d41c51c0a182,23,Kobieta,2022-06-04_08h45.25.630,task,2021.1.4,Win32,60.0240096,628b806c463b948bc644b84f,629afea49629edf0f05fa87c,,,,,,,,,,,,,,,,,,,,,,,,,,,,,,,,,,,,,,,,,,,,,,,,,,,,,,,,,,,,,,,,,,,,,,,,,,,,,,,,,,,,,,,,,,,,,,,,,,,,,,,
,,"[""period""]",0,[0.5289999999999964],105,0,105,0,1,5e6919c9d1e0d41c51c0a182,23,Kobieta,2022-06-04_08h45.25.630,task,2021.1.4,Win32,60.0240096,628b806c463b948bc644b84f,629afea49629edf0f05fa87c,,,,,,,,,,,,,,,,,,,,,,,,,,,,,,,,,,,,,,,,,,,,,,,,,,,,,,,,,,,,,,,,,,,,,,,,,,,,,,,,,,,,,,,,,,,,,,,,,,,,,,,
,,"[""comma""]",0,[0.6260000000000332],106,0,106,0,1,5e6919c9d1e0d41c51c0a182,23,Kobieta,2022-06-04_08h45.25.630,task,2021.1.4,Win32,60.0240096,628b806c463b948bc644b84f,629afea49629edf0f05fa87c,,,,,,,,,,,,,,,,,,,,,,,,,,,,,,,,,,,,,,,,,,,,,,,,,,,,,,,,,,,,,,,,,,,,,,,,,,,,,,,,,,,,,,,,,,,,,,,,,,,,,,,
,,"[""comma""]",0,[0.5570000000000164],107,0,107,0,1,5e6919c9d1e0d41c51c0a182,23,Kobieta,2022-06-04_08h45.25.630,task,2021.1.4,Win32,60.0240096,628b806c463b948bc644b84f,629afea49629edf0f05fa87c,,,,,,,,,,,,,,,,,,,,,,,,,,,,,,,,,,,,,,,,,,,,,,,,,,,,,,,,,,,,,,,,,,,,,,,,,,,,,,,,,,,,,,,,,,,,,,,,,,,,,,,
,,"[""period""]",0,[0.51400000000001],108,0,108,0,1,5e6919c9d1e0d41c51c0a182,23,Kobieta,2022-06-04_08h45.25.630,task,2021.1.4,Win32,60.0240096,628b806c463b948bc644b84f,629afea49629edf0f05fa87c,,,,,,,,,,,,,,,,,,,,,,,,,,,,,,,,,,,,,,,,,,,,,,,,,,,,,,,,,,,,,,,,,,,,,,,,,,,,,,,,,,,,,,,,,,,,,,,,,,,,,,,
,,"[""period""]",0,[0.5749999999999886],109,0,109,0,1,5e6919c9d1e0d41c51c0a182,23,Kobieta,2022-06-04_08h45.25.630,task,2021.1.4,Win32,60.0240096,628b806c463b948bc644b84f,629afea49629edf0f05fa87c,,,,,,,,,,,,,,,,,,,,,,,,,,,,,,,,,,,,,,,,,,,,,,,,,,,,,,,,,,,,,,,,,,,,,,,,,,,,,,,,,,,,,,,,,,,,,,,,,,,,,,,
,,"[""comma""]",0,[0.3149999999999977],110,0,110,0,1,5e6919c9d1e0d41c51c0a182,23,Kobieta,2022-06-04_08h45.25.630,task,2021.1.4,Win32,60.0240096,628b806c463b948bc644b84f,629afea49629edf0f05fa87c,,,,,,,,,,,,,,,,,,,,,,,,,,,,,,,,,,,,,,,,,,,,,,,,,,,,,,,,,,,,,,,,,,,,,,,,,,,,,,,,,,,,,,,,,,,,,,,,,,,,,,,
,,"[""comma""]",0,[0.5960000000000036],111,0,111,0,1,5e6919c9d1e0d41c51c0a182,23,Kobieta,2022-06-04_08h45.25.630,task,2021.1.4,Win32,60.0240096,628b806c463b948bc644b84f,629afea49629edf0f05fa87c,,,,,,,,,,,,,,,,,,,,,,,,,,,,,,,,,,,,,,,,,,,,,,,,,,,,,,,,,,,,,,,,,,,,,,,,,,,,,,,,,,,,,,,,,,,,,,,,,,,,,,,
,,"[""comma""]",0,[0.785000000000025],112,0,112,0,1,5e6919c9d1e0d41c51c0a182,23,Kobieta,2022-06-04_08h45.25.630,task,2021.1.4,Win32,60.0240096,628b806c463b948bc644b84f,629afea49629edf0f05fa87c,,,,,,,,,,,,,,,,,,,,,,,,,,,,,,,,,,,,,,,,,,,,,,,,,,,,,,,,,,,,,,,,,,,,,,,,,,,,,,,,,,,,,,,,,,,,,,,,,,,,,,,
,,"[""period""]",0,[0.8109999999999786],113,0,113,0,1,5e6919c9d1e0d41c51c0a182,23,Kobieta,2022-06-04_08h45.25.630,task,2021.1.4,Win32,60.0240096,628b806c463b948bc644b84f,629afea49629edf0f05fa87c,,,,,,,,,,,,,,,,,,,,,,,,,,,,,,,,,,,,,,,,,,,,,,,,,,,,,,,,,,,,,,,,,,,,,,,,,,,,,,,,,,,,,,,,,,,,,,,,,,,,,,,
,,"[""period""]",0,[0.6990000000000123],114,0,114,0,1,5e6919c9d1e0d41c51c0a182,23,Kobieta,2022-06-04_08h45.25.630,task,2021.1.4,Win32,60.0240096,628b806c463b948bc644b84f,629afea49629edf0f05fa87c,,,,,,,,,,,,,,,,,,,,,,,,,,,,,,,,,,,,,,,,,,,,,,,,,,,,,,,,,,,,,,,,,,,,,,,,,,,,,,,,,,,,,,,,,,,,,,,,,,,,,,,
,,"[""comma""]",0,[0.5400000000000205],115,0,115,0,1,5e6919c9d1e0d41c51c0a182,23,Kobieta,2022-06-04_08h45.25.630,task,2021.1.4,Win32,60.0240096,628b806c463b948bc644b84f,629afea49629edf0f05fa87c,,,,,,,,,,,,,,,,,,,,,,,,,,,,,,,,,,,,,,,,,,,,,,,,,,,,,,,,,,,,,,,,,,,,,,,,,,,,,,,,,,,,,,,,,,,,,,,,,,,,,,,
,,"[""comma""]",0,[0.4479999999999791],116,0,116,0,1,5e6919c9d1e0d41c51c0a182,23,Kobieta,2022-06-04_08h45.25.630,task,2021.1.4,Win32,60.0240096,628b806c463b948bc644b84f,629afea49629edf0f05fa87c,,,,,,,,,,,,,,,,,,,,,,,,,,,,,,,,,,,,,,,,,,,,,,,,,,,,,,,,,,,,,,,,,,,,,,,,,,,,,,,,,,,,,,,,,,,,,,,,,,,,,,,
,,"[""period""]",0,[0.3450000000000273],117,0,117,0,1,5e6919c9d1e0d41c51c0a182,23,Kobieta,2022-06-04_08h45.25.630,task,2021.1.4,Win32,60.0240096,628b806c463b948bc644b84f,629afea49629edf0f05fa87c,,,,,,,,,,,,,,,,,,,,,,,,,,,,,,,,,,,,,,,,,,,,,,,,,,,,,,,,,,,,,,,,,,,,,,,,,,,,,,,,,,,,,,,,,,,,,,,,,,,,,,,
,,"[""period""]",0,[0.3019999999999641],118,0,118,0,1,5e6919c9d1e0d41c51c0a182,23,Kobieta,2022-06-04_08h45.25.630,task,2021.1.4,Win32,60.0240096,628b806c463b948bc644b84f,629afea49629edf0f05fa87c,,,,,,,,,,,,,,,,,,,,,,,,,,,,,,,,,,,,,,,,,,,,,,,,,,,,,,,,,,,,,,,,,,,,,,,,,,,,,,,,,,,,,,,,,,,,,,,,,,,,,,,
,,"[""comma""]",0,[0.4089999999999918],119,0,119,0,1,5e6919c9d1e0d41c51c0a182,23,Kobieta,2022-06-04_08h45.25.630,task,2021.1.4,Win32,60.0240096,628b806c463b948bc644b84f,629afea49629edf0f05fa87c,,,,,,,,,,,,,,,,,,,,,,,,,,,,,,,,,,,,,,,,,,,,,,,,,,,,,,,,,,,,,,,,,,,,,,,,,,,,,,,,,,,,,,,,,,,,,,,,,,,,,,,
,,,,,,,,,,5e6919c9d1e0d41c51c0a182,23,Kobieta,2022-06-04_08h45.25.630,task,2021.1.4,Win32,60.0240096,628b806c463b948bc644b84f,629afea49629edf0f05fa87c,space,8.875,space,3.31,0,0,0,0,1,X V Q F H G B L J M P D K C T S W R N Z,,,,,,,,,,,,,,,,,,,,,,,,,,,,,,,,,,,,,,,,,,,,,,,,,,,,,,,,,,,,,,,,,,,,,,,,,,,,,,,,,,,,,,,,,,,,,
,,,,,,,,,,5e6919c9d1e0d41c51c0a182,23,Kobieta,2022-06-04_08h45.25.630,task,2021.1.4,Win32,60.0240096,628b806c463b948bc644b84f,629afea49629edf0f05fa87c,,,,,1,0,1,0,1,X V Q F H G B L J M P D K C T S W R N Z,,,,,,,,,,,,,,,,,,,,,,,,,,,,,,,,,,,,,,,,,,,,,,,,,,,,,,,,,,,,,,,,,,,,,,,,,,,,,,,,,,,,,,,,,,,,,
,,,,,,,,,,5e6919c9d1e0d41c51c0a182,23,Kobieta,2022-06-04_08h45.25.630,task,2021.1.4,Win32,60.0240096,628b806c463b948bc644b84f,629afea49629edf0f05fa87c,,,,,,,,,,,zq,"[""z"",""q""]","[1.492999999999995,2.19399999999996,3.0709999999999695]",1,ZQ,0,0,0,0,1,,,,,,,,,,,,,,,,,,,,,,,,,,,,,,,,,,,,,,,,,,,,,,,,,,,,,,,,,,,,,,,,,,,,,,,,,,,,,,,,,,,
,,,,,,,,,,5e6919c9d1e0d41c51c0a182,23,Kobieta,2022-06-04_08h45.25.630,task,2021.1.4,Win32,60.0240096,628b806c463b948bc644b84f,629afea49629edf0f05fa87c,,,,,0,0,0,0,1,X V Q F H G B L J M P D K C T S W R N Z,,,,,,,,,,,,,,,,,,,,,,,,,,,,,,,,,,,,,,,,,,,,,,,,,,,,,,,,,,,,,,,,,,,,,,,,,,,,,,,,,,,,,,,,,,,,,
,,,,,,,,,,5e6919c9d1e0d41c51c0a182,23,Kobieta,2022-06-04_08h45.25.630,task,2021.1.4,Win32,60.0240096,628b806c463b948bc644b84f,629afea49629edf0f05fa87c,,,,,1,0,1,0,1,X V Q F H G B L J M P D K C T S W R N Z,,,,,,,,,,,,,,,,,,,,,,,,,,,,,,,,,,,,,,,,,,,,,,,,,,,,,,,,,,,,,,,,,,,,,,,,,,,,,,,,,,,,,,,,,,,,,
,,,,,,,,,,5e6919c9d1e0d41c51c0a182,23,Kobieta,2022-06-04_08h45.25.630,task,2021.1.4,Win32,60.0240096,628b806c463b948bc644b84f,629afea49629edf0f05fa87c,,,,,,,,,,,hk,"[""h"",""k""]","[0.9830000000000041,1.3980000000000246,1.9359999999999786]",1,HK,1,0,1,0,1,,,,,,,,,,,,,,,,,,,,,,,,,,,,,,,,,,,,,,,,,,,,,,,,,,,,,,,,,,,,,,,,,,,,,,,,,,,,,,,,,,,
,,,,,,,,,,5e6919c9d1e0d41c51c0a182,23,Kobieta,2022-06-04_08h45.25.630,task,2021.1.4,Win32,60.0240096,628b806c463b948bc644b84f,629afea49629edf0f05fa87c,,,,,0,0,0,0,1,X V Q F H G B L J M P D K C T S W R N Z,,,,,,,,,,,,,,,,,,,,,,,,,,,,,,,,,,,,,,,,,,,,,,,,,,,,,,,,,,,,,,,,,,,,,,,,,,,,,,,,,,,,,,,,,,,,,
,,,,,,,,,,5e6919c9d1e0d41c51c0a182,23,Kobieta,2022-06-04_08h45.25.630,task,2021.1.4,Win32,60.0240096,628b806c463b948bc644b84f,629afea49629edf0f05fa87c,,,,,1,0,1,0,1,X V Q F H G B L J M P D K C T S W R N Z,,,,,,,,,,,,,,,,,,,,,,,,,,,,,,,,,,,,,,,,,,,,,,,,,,,,,,,,,,,,,,,,,,,,,,,,,,,,,,,,,,,,,,,,,,,,,
,,,,,,,,,,5e6919c9d1e0d41c51c0a182,23,Kobieta,2022-06-04_08h45.25.630,task,2021.1.4,Win32,60.0240096,628b806c463b948bc644b84f,629afea49629edf0f05fa87c,,,,,2,0,2,0,1,X V Q F H G B L J M P D K C T S W R N Z,,,,,,,,,,,,,,,,,,,,,,,,,,,,,,,,,,,,,,,,,,,,,,,,,,,,,,,,,,,,,,,,,,,,,,,,,,,,,,,,,,,,,,,,,,,,,
,,,,,,,,,,5e6919c9d1e0d41c51c0a182,23,Kobieta,2022-06-04_08h45.25.630,task,2021.1.4,Win32,60.0240096,628b806c463b948bc644b84f,629afea49629edf0f05fa87c,,,,,,,,,,,wbp,"[""w"",""b"",""p""]","[0.5349999999999682,0.7939999999999827,1.2620000000000005,1.7309999999999945]",1,WBP,2,0,2,0,1,,,,,,,,,,,,,,,,,,,,,,,,,,,,,,,,,,,,,,,,,,,,,,,,,,,,,,,,,,,,,,,,,,,,,,,,,,,,,,,,,,,
,,,,,,,,,,5e6919c9d1e0d41c51c0a182,23,Kobieta,2022-06-04_08h45.25.630,task,2021.1.4,Win32,60.0240096,628b806c463b948bc644b84f,629afea49629edf0f05fa87c,,,,,0,0,0,0,1,X V Q F H G B L J M P D K C T S W R N Z,,,,,,,,,,,,,,,,,,,,,,,,,,,,,,,,,,,,,,,,,,,,,,,,,,,,,,,,,,,,,,,,,,,,,,,,,,,,,,,,,,,,,,,,,,,,,
,,,,,,,,,,5e6919c9d1e0d41c51c0a182,23,Kobieta,2022-06-04_08h45.25.630,task,2021.1.4,Win32,60.0240096,628b806c463b948bc644b84f,629afea49629edf0f05fa87c,,,,,1,0,1,0,1,X V Q F H G B L J M P D K C T S W R N Z,,,,,,,,,,,,,,,,,,,,,,,,,,,,,,,,,,,,,,,,,,,,,,,,,,,,,,,,,,,,,,,,,,,,,,,,,,,,,,,,,,,,,,,,,,,,,
,,,,,,,,,,5e6919c9d1e0d41c51c0a182,23,Kobieta,2022-06-04_08h45.25.630,task,2021.1.4,Win32,60.0240096,628b806c463b948bc644b84f,629afea49629edf0f05fa87c,,,,,2,0,2,0,1,X V Q F H G B L J M P D K C T S W R N Z,,,,,,,,,,,,,,,,,,,,,,,,,,,,,,,,,,,,,,,,,,,,,,,,,,,,,,,,,,,,,,,,,,,,,,,,,,,,,,,,,,,,,,,,,,,,,
,,,,,,,,,,5e6919c9d1e0d41c51c0a182,23,Kobieta,2022-06-04_08h45.25.630,task,2021.1.4,Win32,60.0240096,628b806c463b948bc644b84f,629afea49629edf0f05fa87c,,,,,,,,,,,kml,"[""k"",""m"",""l""]","[1.5639999999999645,1.7799999999999727,2.248999999999967,2.776999999999987]",1,KML,3,0,3,0,1,,,,,,,,,,,,,,,,,,,,,,,,,,,,,,,,,,,,,,,,,,,,,,,,,,,,,,,,,,,,,,,,,,,,,,,,,,,,,,,,,,,
,,,,,,,,,,5e6919c9d1e0d41c51c0a182,23,Kobieta,2022-06-04_08h45.25.630,task,2021.1.4,Win32,60.0240096,628b806c463b948bc644b84f,629afea49629edf0f05fa87c,,,,,0,0,0,0,1,X V Q F H G B L J M P D K C T S W R N Z,,,,,,,,,,,,,,,,,,,,,,,,,,,,,,,,,,,,,,,,,,,,,,,,,,,,,,,,,,,,,,,,,,,,,,,,,,,,,,,,,,,,,,,,,,,,,
,,,,,,,,,,5e6919c9d1e0d41c51c0a182,23,Kobieta,2022-06-04_08h45.25.630,task,2021.1.4,Win32,60.0240096,628b806c463b948bc644b84f,629afea49629edf0f05fa87c,,,,,1,0,1,0,1,X V Q F H G B L J M P D K C T S W R N Z,,,,,,,,,,,,,,,,,,,,,,,,,,,,,,,,,,,,,,,,,,,,,,,,,,,,,,,,,,,,,,,,,,,,,,,,,,,,,,,,,,,,,,,,,,,,,
,,,,,,,,,,5e6919c9d1e0d41c51c0a182,23,Kobieta,2022-06-04_08h45.25.630,task,2021.1.4,Win32,60.0240096,628b806c463b948bc644b84f,629afea49629edf0f05fa87c,,,,,2,0,2,0,1,X V Q F H G B L J M P D K C T S W R N Z,,,,,,,,,,,,,,,,,,,,,,,,,,,,,,,,,,,,,,,,,,,,,,,,,,,,,,,,,,,,,,,,,,,,,,,,,,,,,,,,,,,,,,,,,,,,,
,,,,,,,,,,5e6919c9d1e0d41c51c0a182,23,Kobieta,2022-06-04_08h45.25.630,task,2021.1.4,Win32,60.0240096,628b806c463b948bc644b84f,629afea49629edf0f05fa87c,,,,,3,0,3,0,1,X V Q F H G B L J M P D K C T S W R N Z,,,,,,,,,,,,,,,,,,,,,,,,,,,,,,,,,,,,,,,,,,,,,,,,,,,,,,,,,,,,,,,,,,,,,,,,,,,,,,,,,,,,,,,,,,,,,
,,,,,,,,,,5e6919c9d1e0d41c51c0a182,23,Kobieta,2022-06-04_08h45.25.630,task,2021.1.4,Win32,60.0240096,628b806c463b948bc644b84f,629afea49629edf0f05fa87c,,,,,,,,,,,jwlq,"[""j"",""w"",""l"",""q""]","[0.5570000000000164,0.9150000000000205,1.16700000000003,1.54200000000003,2.0819999999999936]",1,JWLQ,4,0,4,0,1,,,,,,,,,,,,,,,,,,,,,,,,,,,,,,,,,,,,,,,,,,,,,,,,,,,,,,,,,,,,,,,,,,,,,,,,,,,,,,,,,,,
,,,,,,,,,,5e6919c9d1e0d41c51c0a182,23,Kobieta,2022-06-04_08h45.25.630,task,2021.1.4,Win32,60.0240096,628b806c463b948bc644b84f,629afea49629edf0f05fa87c,,,,,0,0,0,0,1,X V Q F H G B L J M P D K C T S W R N Z,,,,,,,,,,,,,,,,,,,,,,,,,,,,,,,,,,,,,,,,,,,,,,,,,,,,,,,,,,,,,,,,,,,,,,,,,,,,,,,,,,,,,,,,,,,,,
,,,,,,,,,,5e6919c9d1e0d41c51c0a182,23,Kobieta,2022-06-04_08h45.25.630,task,2021.1.4,Win32,60.0240096,628b806c463b948bc644b84f,629afea49629edf0f05fa87c,,,,,1,0,1,0,1,X V Q F H G B L J M P D K C T S W R N Z,,,,,,,,,,,,,,,,,,,,,,,,,,,,,,,,,,,,,,,,,,,,,,,,,,,,,,,,,,,,,,,,,,,,,,,,,,,,,,,,,,,,,,,,,,,,,
,,,,,,,,,,5e6919c9d1e0d41c51c0a182,23,Kobieta,2022-06-04_08h45.25.630,task,2021.1.4,Win32,60.0240096,628b806c463b948bc644b84f,629afea49629edf0f05fa87c,,,,,2,0,2,0,1,X V Q F H G B L J M P D K C T S W R N Z,,,,,,,,,,,,,,,,,,,,,,,,,,,,,,,,,,,,,,,,,,,,,,,,,,,,,,,,,,,,,,,,,,,,,,,,,,,,,,,,,,,,,,,,,,,,,
,,,,,,,,,,5e6919c9d1e0d41c51c0a182,23,Kobieta,2022-06-04_08h45.25.630,task,2021.1.4,Win32,60.0240096,628b806c463b948bc644b84f,629afea49629edf0f05fa87c,,,,,3,0,3,0,1,X V Q F H G B L J M P D K C T S W R N Z,,,,,,,,,,,,,,,,,,,,,,,,,,,,,,,,,,,,,,,,,,,,,,,,,,,,,,,,,,,,,,,,,,,,,,,,,,,,,,,,,,,,,,,,,,,,,
,,,,,,,,,,5e6919c9d1e0d41c51c0a182,23,Kobieta,2022-06-04_08h45.25.630,task,2021.1.4,Win32,60.0240096,628b806c463b948bc644b84f,629afea49629edf0f05fa87c,,,,,,,,,,,gjgs,"[""g"",""j"",""g"",""s""]","[0.6630000000000109,1.016999999999996,1.2160000000000082,1.6020000000000323,2.605000000000018]",1,GJGS,5,0,5,0,1,,,,,,,,,,,,,,,,,,,,,,,,,,,,,,,,,,,,,,,,,,,,,,,,,,,,,,,,,,,,,,,,,,,,,,,,,,,,,,,,,,,
,,,,,,,,,,5e6919c9d1e0d41c51c0a182,23,Kobieta,2022-06-04_08h45.25.630,task,2021.1.4,Win32,60.0240096,628b806c463b948bc644b84f,629afea49629edf0f05fa87c,,,,,0,0,0,0,1,X V Q F H G B L J M P D K C T S W R N Z,,,,,,,,,,,,,,,,,,,,,,,,,,,,,,,,,,,,,,,,,,,,,,,,,,,,,,,,,,,,,,,,,,,,,,,,,,,,,,,,,,,,,,,,,,,,,
,,,,,,,,,,5e6919c9d1e0d41c51c0a182,23,Kobieta,2022-06-04_08h45.25.630,task,2021.1.4,Win32,60.0240096,628b806c463b948bc644b84f,629afea49629edf0f05fa87c,,,,,1,0,1,0,1,X V Q F H G B L J M P D K C T S W R N Z,,,,,,,,,,,,,,,,,,,,,,,,,,,,,,,,,,,,,,,,,,,,,,,,,,,,,,,,,,,,,,,,,,,,,,,,,,,,,,,,,,,,,,,,,,,,,
,,,,,,,,,,5e6919c9d1e0d41c51c0a182,23,Kobieta,2022-06-04_08h45.25.630,task,2021.1.4,Win32,60.0240096,628b806c463b948bc644b84f,629afea49629edf0f05fa87c,,,,,2,0,2,0,1,X V Q F H G B L J M P D K C T S W R N Z,,,,,,,,,,,,,,,,,,,,,,,,,,,,,,,,,,,,,,,,,,,,,,,,,,,,,,,,,,,,,,,,,,,,,,,,,,,,,,,,,,,,,,,,,,,,,
,,,,,,,,,,5e6919c9d1e0d41c51c0a182,23,Kobieta,2022-06-04_08h45.25.630,task,2021.1.4,Win32,60.0240096,628b806c463b948bc644b84f,629afea49629edf0f05fa87c,,,,,3,0,3,0,1,X V Q F H G B L J M P D K C T S W R N Z,,,,,,,,,,,,,,,,,,,,,,,,,,,,,,,,,,,,,,,,,,,,,,,,,,,,,,,,,,,,,,,,,,,,,,,,,,,,,,,,,,,,,,,,,,,,,
,,,,,,,,,,5e6919c9d1e0d41c51c0a182,23,Kobieta,2022-06-04_08h45.25.630,task,2021.1.4,Win32,60.0240096,628b806c463b948bc644b84f,629afea49629edf0f05fa87c,,,,,4,0,4,0,1,X V Q F H G B L J M P D K C T S W R N Z,,,,,,,,,,,,,,,,,,,,,,,,,,,,,,,,,,,,,,,,,,,,,,,,,,,,,,,,,,,,,,,,,,,,,,,,,,,,,,,,,,,,,,,,,,,,,
,,,,,,,,,,5e6919c9d1e0d41c51c0a182,23,Kobieta,2022-06-04_08h45.25.630,task,2021.1.4,Win32,60.0240096,628b806c463b948bc644b84f,629afea49629edf0f05fa87c,,,,,,,,,,,mxmjg,"[""m"",""x"",""m"",""j"",""g""]","[0.9919999999999618,1.1969999999999459,1.4969999999999573,1.9179999999999495,2.1829999999999927,2.777999999999963]",1,MXMJG,6,0,6,0,1,,,,,,,,,,,,,,,,,,,,,,,,,,,,,,,,,,,,,,,,,,,,,,,,,,,,,,,,,,,,,,,,,,,,,,,,,,,,,,,,,,,
,,,,,,,,,,5e6919c9d1e0d41c51c0a182,23,Kobieta,2022-06-04_08h45.25.630,task,2021.1.4,Win32,60.0240096,628b806c463b948bc644b84f,629afea49629edf0f05fa87c,,,,,0,0,0,0,1,X V Q F H G B L J M P D K C T S W R N Z,,,,,,,,,,,,,,,,,,,,,,,,,,,,,,,,,,,,,,,,,,,,,,,,,,,,,,,,,,,,,,,,,,,,,,,,,,,,,,,,,,,,,,,,,,,,,
,,,,,,,,,,5e6919c9d1e0d41c51c0a182,23,Kobieta,2022-06-04_08h45.25.630,task,2021.1.4,Win32,60.0240096,628b806c463b948bc644b84f,629afea49629edf0f05fa87c,,,,,1,0,1,0,1,X V Q F H G B L J M P D K C T S W R N Z,,,,,,,,,,,,,,,,,,,,,,,,,,,,,,,,,,,,,,,,,,,,,,,,,,,,,,,,,,,,,,,,,,,,,,,,,,,,,,,,,,,,,,,,,,,,,
,,,,,,,,,,5e6919c9d1e0d41c51c0a182,23,Kobieta,2022-06-04_08h45.25.630,task,2021.1.4,Win32,60.0240096,628b806c463b948bc644b84f,629afea49629edf0f05fa87c,,,,,2,0,2,0,1,X V Q F H G B L J M P D K C T S W R N Z,,,,,,,,,,,,,,,,,,,,,,,,,,,,,,,,,,,,,,,,,,,,,,,,,,,,,,,,,,,,,,,,,,,,,,,,,,,,,,,,,,,,,,,,,,,,,
,,,,,,,,,,5e6919c9d1e0d41c51c0a182,23,Kobieta,2022-06-04_08h45.25.630,task,2021.1.4,Win32,60.0240096,628b806c463b948bc644b84f,629afea49629edf0f05fa87c,,,,,3,0,3,0,1,X V Q F H G B L J M P D K C T S W R N Z,,,,,,,,,,,,,,,,,,,,,,,,,,,,,,,,,,,,,,,,,,,,,,,,,,,,,,,,,,,,,,,,,,,,,,,,,,,,,,,,,,,,,,,,,,,,,
,,,,,,,,,,5e6919c9d1e0d41c51c0a182,23,Kobieta,2022-06-04_08h45.25.630,task,2021.1.4,Win32,60.0240096,628b806c463b948bc644b84f,629afea49629edf0f05fa87c,,,,,4,0,4,0,1,X V Q F H G B L J M P D K C T S W R N Z,,,,,,,,,,,,,,,,,,,,,,,,,,,,,,,,,,,,,,,,,,,,,,,,,,,,,,,,,,,,,,,,,,,,,,,,,,,,,,,,,,,,,,,,,,,,,
,,,,,,,,,,5e6919c9d1e0d41c51c0a182,23,Kobieta,2022-06-04_08h45.25.630,task,2021.1.4,Win32,60.0240096,628b806c463b948bc644b84f,629afea49629edf0f05fa87c,,,,,,,,,,,tgvrt,"[""t"",""g"",""v"",""r"",""t""]","[1.47199999999998,2.5009999999999764,3.2309999999999945,3.711999999999989,4.0470000000000255,4.490000000000009]",1,TGVRT,7,0,7,0,1,,,,,,,,,,,,,,,,,,,,,,,,,,,,,,,,,,,,,,,,,,,,,,,,,,,,,,,,,,,,,,,,,,,,,,,,,,,,,,,,,,,
,,,,,,,,,,5e6919c9d1e0d41c51c0a182,23,Kobieta,2022-06-04_08h45.25.630,task,2021.1.4,Win32,60.0240096,628b806c463b948bc644b84f,629afea49629edf0f05fa87c,,,,,0,0,0,0,1,X V Q F H G B L J M P D K C T S W R N Z,,,,,,,,,,,,,,,,,,,,,,,,,,,,,,,,,,,,,,,,,,,,,,,,,,,,,,,,,,,,,,,,,,,,,,,,,,,,,,,,,,,,,,,,,,,,,
,,,,,,,,,,5e6919c9d1e0d41c51c0a182,23,Kobieta,2022-06-04_08h45.25.630,task,2021.1.4,Win32,60.0240096,628b806c463b948bc644b84f,629afea49629edf0f05fa87c,,,,,1,0,1,0,1,X V Q F H G B L J M P D K C T S W R N Z,,,,,,,,,,,,,,,,,,,,,,,,,,,,,,,,,,,,,,,,,,,,,,,,,,,,,,,,,,,,,,,,,,,,,,,,,,,,,,,,,,,,,,,,,,,,,
,,,,,,,,,,5e6919c9d1e0d41c51c0a182,23,Kobieta,2022-06-04_08h45.25.630,task,2021.1.4,Win32,60.0240096,628b806c463b948bc644b84f,629afea49629edf0f05fa87c,,,,,2,0,2,0,1,X V Q F H G B L J M P D K C T S W R N Z,,,,,,,,,,,,,,,,,,,,,,,,,,,,,,,,,,,,,,,,,,,,,,,,,,,,,,,,,,,,,,,,,,,,,,,,,,,,,,,,,,,,,,,,,,,,,
,,,,,,,,,,5e6919c9d1e0d41c51c0a182,23,Kobieta,2022-06-04_08h45.25.630,task,2021.1.4,Win32,60.0240096,628b806c463b948bc644b84f,629afea49629edf0f05fa87c,,,,,3,0,3,0,1,X V Q F H G B L J M P D K C T S W R N Z,,,,,,,,,,,,,,,,,,,,,,,,,,,,,,,,,,,,,,,,,,,,,,,,,,,,,,,,,,,,,,,,,,,,,,,,,,,,,,,,,,,,,,,,,,,,,
,,,,,,,,,,5e6919c9d1e0d41c51c0a182,23,Kobieta,2022-06-04_08h45.25.630,task,2021.1.4,Win32,60.0240096,628b806c463b948bc644b84f,629afea49629edf0f05fa87c,,,,,4,0,4,0,1,X V Q F H G B L J M P D K C T S W R N Z,,,,,,,,,,,,,,,,,,,,,,,,,,,,,,,,,,,,,,,,,,,,,,,,,,,,,,,,,,,,,,,,,,,,,,,,,,,,,,,,,,,,,,,,,,,,,
,,,,,,,,,,5e6919c9d1e0d41c51c0a182,23,Kobieta,2022-06-04_08h45.25.630,task,2021.1.4,Win32,60.0240096,628b806c463b948bc644b84f,629afea49629edf0f05fa87c,,,,,5,0,5,0,1,X V Q F H G B L J M P D K C T S W R N Z,,,,,,,,,,,,,,,,,,,,,,,,,,,,,,,,,,,,,,,,,,,,,,,,,,,,,,,,,,,,,,,,,,,,,,,,,,,,,,,,,,,,,,,,,,,,,
,,,,,,,,,,5e6919c9d1e0d41c51c0a182,23,Kobieta,2022-06-04_08h45.25.630,task,2021.1.4,Win32,60.0240096,628b806c463b948bc644b84f,629afea49629edf0f05fa87c,,,,,,,,,,,qbknvc,"[""q"",""b"",""k"",""n"",""v"",""c""]","[1.0930000000000177,1.4700000000000273,2.230000000000018,2.5720000000000027,2.7530000000000427,3.164000000000044,3.938000000000045]",1,QBKNVC,8,0,8,0,1,,,,,,,,,,,,,,,,,,,,,,,,,,,,,,,,,,,,,,,,,,,,,,,,,,,,,,,,,,,,,,,,,,,,,,,,,,,,,,,,,,,
,,,,,,,,,,5e6919c9d1e0d41c51c0a182,23,Kobieta,2022-06-04_08h45.25.630,task,2021.1.4,Win32,60.0240096,628b806c463b948bc644b84f,629afea49629edf0f05fa87c,,,,,0,0,0,0,1,X V Q F H G B L J M P D K C T S W R N Z,,,,,,,,,,,,,,,,,,,,,,,,,,,,,,,,,,,,,,,,,,,,,,,,,,,,,,,,,,,,,,,,,,,,,,,,,,,,,,,,,,,,,,,,,,,,,
,,,,,,,,,,5e6919c9d1e0d41c51c0a182,23,Kobieta,2022-06-04_08h45.25.630,task,2021.1.4,Win32,60.0240096,628b806c463b948bc644b84f,629afea49629edf0f05fa87c,,,,,1,0,1,0,1,X V Q F H G B L J M P D K C T S W R N Z,,,,,,,,,,,,,,,,,,,,,,,,,,,,,,,,,,,,,,,,,,,,,,,,,,,,,,,,,,,,,,,,,,,,,,,,,,,,,,,,,,,,,,,,,,,,,
,,,,,,,,,,5e6919c9d1e0d41c51c0a182,23,Kobieta,2022-06-04_08h45.25.630,task,2021.1.4,Win32,60.0240096,628b806c463b948bc644b84f,629afea49629edf0f05fa87c,,,,,2,0,2,0,1,X V Q F H G B L J M P D K C T S W R N Z,,,,,,,,,,,,,,,,,,,,,,,,,,,,,,,,,,,,,,,,,,,,,,,,,,,,,,,,,,,,,,,,,,,,,,,,,,,,,,,,,,,,,,,,,,,,,
,,,,,,,,,,5e6919c9d1e0d41c51c0a182,23,Kobieta,2022-06-04_08h45.25.630,task,2021.1.4,Win32,60.0240096,628b806c463b948bc644b84f,629afea49629edf0f05fa87c,,,,,3,0,3,0,1,X V Q F H G B L J M P D K C T S W R N Z,,,,,,,,,,,,,,,,,,,,,,,,,,,,,,,,,,,,,,,,,,,,,,,,,,,,,,,,,,,,,,,,,,,,,,,,,,,,,,,,,,,,,,,,,,,,,
,,,,,,,,,,5e6919c9d1e0d41c51c0a182,23,Kobieta,2022-06-04_08h45.25.630,task,2021.1.4,Win32,60.0240096,628b806c463b948bc644b84f,629afea49629edf0f05fa87c,,,,,4,0,4,0,1,X V Q F H G B L J M P D K C T S W R N Z,,,,,,,,,,,,,,,,,,,,,,,,,,,,,,,,,,,,,,,,,,,,,,,,,,,,,,,,,,,,,,,,,,,,,,,,,,,,,,,,,,,,,,,,,,,,,
,,,,,,,,,,5e6919c9d1e0d41c51c0a182,23,Kobieta,2022-06-04_08h45.25.630,task,2021.1.4,Win32,60.0240096,628b806c463b948bc644b84f,629afea49629edf0f05fa87c,,,,,5,0,5,0,1,X V Q F H G B L J M P D K C T S W R N Z,,,,,,,,,,,,,,,,,,,,,,,,,,,,,,,,,,,,,,,,,,,,,,,,,,,,,,,,,,,,,,,,,,,,,,,,,,,,,,,,,,,,,,,,,,,,,
,,,,,,,,,,5e6919c9d1e0d41c51c0a182,23,Kobieta,2022-06-04_08h45.25.630,task,2021.1.4,Win32,60.0240096,628b806c463b948bc644b84f,629afea49629edf0f05fa87c,,,,,,,,,,,prmjsj,"[""p"",""r"",""m"",""j"",""s"",""j""]","[0.8900000000000432,1.2070000000000505,1.6129999999999995,2.118000000000052,2.261000000000024,2.414000000000044,3.163000000000011]",1,PRMJSJ,9,0,9,0,1,,,,,,,,,,,,,,,,,,,,,,,,,,,,,,,,,,,,,,,,,,,,,,,,,,,,,,,,,,,,,,,,,,,,,,,,,,,,,,,,,,,
,,,,,,,,,,5e6919c9d1e0d41c51c0a182,23,Kobieta,2022-06-04_08h45.25.630,task,2021.1.4,Win32,60.0240096,628b806c463b948bc644b84f,629afea49629edf0f05fa87c,,,,,0,0,0,0,1,X V Q F H G B L J M P D K C T S W R N Z,,,,,,,,,,,,,,,,,,,,,,,,,,,,,,,,,,,,,,,,,,,,,,,,,,,,,,,,,,,,,,,,,,,,,,,,,,,,,,,,,,,,,,,,,,,,,
,,,,,,,,,,5e6919c9d1e0d41c51c0a182,23,Kobieta,2022-06-04_08h45.25.630,task,2021.1.4,Win32,60.0240096,628b806c463b948bc644b84f,629afea49629edf0f05fa87c,,,,,1,0,1,0,1,X V Q F H G B L J M P D K C T S W R N Z,,,,,,,,,,,,,,,,,,,,,,,,,,,,,,,,,,,,,,,,,,,,,,,,,,,,,,,,,,,,,,,,,,,,,,,,,,,,,,,,,,,,,,,,,,,,,
,,,,,,,,,,5e6919c9d1e0d41c51c0a182,23,Kobieta,2022-06-04_08h45.25.630,task,2021.1.4,Win32,60.0240096,628b806c463b948bc644b84f,629afea49629edf0f05fa87c,,,,,2,0,2,0,1,X V Q F H G B L J M P D K C T S W R N Z,,,,,,,,,,,,,,,,,,,,,,,,,,,,,,,,,,,,,,,,,,,,,,,,,,,,,,,,,,,,,,,,,,,,,,,,,,,,,,,,,,,,,,,,,,,,,
,,,,,,,,,,5e6919c9d1e0d41c51c0a182,23,Kobieta,2022-06-04_08h45.25.630,task,2021.1.4,Win32,60.0240096,628b806c463b948bc644b84f,629afea49629edf0f05fa87c,,,,,3,0,3,0,1,X V Q F H G B L J M P D K C T S W R N Z,,,,,,,,,,,,,,,,,,,,,,,,,,,,,,,,,,,,,,,,,,,,,,,,,,,,,,,,,,,,,,,,,,,,,,,,,,,,,,,,,,,,,,,,,,,,,
,,,,,,,,,,5e6919c9d1e0d41c51c0a182,23,Kobieta,2022-06-04_08h45.25.630,task,2021.1.4,Win32,60.0240096,628b806c463b948bc644b84f,629afea49629edf0f05fa87c,,,,,4,0,4,0,1,X V Q F H G B L J M P D K C T S W R N Z,,,,,,,,,,,,,,,,,,,,,,,,,,,,,,,,,,,,,,,,,,,,,,,,,,,,,,,,,,,,,,,,,,,,,,,,,,,,,,,,,,,,,,,,,,,,,
,,,,,,,,,,5e6919c9d1e0d41c51c0a182,23,Kobieta,2022-06-04_08h45.25.630,task,2021.1.4,Win32,60.0240096,628b806c463b948bc644b84f,629afea49629edf0f05fa87c,,,,,5,0,5,0,1,X V Q F H G B L J M P D K C T S W R N Z,,,,,,,,,,,,,,,,,,,,,,,,,,,,,,,,,,,,,,,,,,,,,,,,,,,,,,,,,,,,,,,,,,,,,,,,,,,,,,,,,,,,,,,,,,,,,
,,,,,,,,,,5e6919c9d1e0d41c51c0a182,23,Kobieta,2022-06-04_08h45.25.630,task,2021.1.4,Win32,60.0240096,628b806c463b948bc644b84f,629afea49629edf0f05fa87c,,,,,6,0,6,0,1,X V Q F H G B L J M P D K C T S W R N Z,,,,,,,,,,,,,,,,,,,,,,,,,,,,,,,,,,,,,,,,,,,,,,,,,,,,,,,,,,,,,,,,,,,,,,,,,,,,,,,,,,,,,,,,,,,,,
,,,,,,,,,,5e6919c9d1e0d41c51c0a182,23,Kobieta,2022-06-04_08h45.25.630,task,2021.1.4,Win32,60.0240096,628b806c463b948bc644b84f,629afea49629edf0f05fa87c,,,,,,,,,,,zjxkfmk,"[""z"",""j"",""x"",""k"",""f"",""m"",""k""]","[3.6030000000000086,4.116999999999962,5.460999999999956,6.259999999999991,7.060000000000002,7.69399999999996,8.329000000000008,9.07099999999997]",0,NZXKFMK,10,0,10,0,1,,,,,,,,,,,,,,,,,,,,,,,,,,,,,,,,,,,,,,,,,,,,,,,,,,,,,,,,,,,,,,,,,,,,,,,,,,,,,,,,,,,
,,,,,,,,,,5e6919c9d1e0d41c51c0a182,23,Kobieta,2022-06-04_08h45.25.630,task,2021.1.4,Win32,60.0240096,628b806c463b948bc644b84f,629afea49629edf0f05fa87c,,,,,0,0,0,0,1,X V Q F H G B L J M P D K C T S W R N Z,,,,,,,,,,,,,,,,,,,,,,,,,,,,,,,,,,,,,,,,,,,,,,,,,,,,,,,,,,,,,,,,,,,,,,,,,,,,,,,,,,,,,,,,,,,,,
,,,,,,,,,,5e6919c9d1e0d41c51c0a182,23,Kobieta,2022-06-04_08h45.25.630,task,2021.1.4,Win32,60.0240096,628b806c463b948bc644b84f,629afea49629edf0f05fa87c,,,,,1,0,1,0,1,X V Q F H G B L J M P D K C T S W R N Z,,,,,,,,,,,,,,,,,,,,,,,,,,,,,,,,,,,,,,,,,,,,,,,,,,,,,,,,,,,,,,,,,,,,,,,,,,,,,,,,,,,,,,,,,,,,,
,,,,,,,,,,5e6919c9d1e0d41c51c0a182,23,Kobieta,2022-06-04_08h45.25.630,task,2021.1.4,Win32,60.0240096,628b806c463b948bc644b84f,629afea49629edf0f05fa87c,,,,,2,0,2,0,1,X V Q F H G B L J M P D K C T S W R N Z,,,,,,,,,,,,,,,,,,,,,,,,,,,,,,,,,,,,,,,,,,,,,,,,,,,,,,,,,,,,,,,,,,,,,,,,,,,,,,,,,,,,,,,,,,,,,
,,,,,,,,,,5e6919c9d1e0d41c51c0a182,23,Kobieta,2022-06-04_08h45.25.630,task,2021.1.4,Win32,60.0240096,628b806c463b948bc644b84f,629afea49629edf0f05fa87c,,,,,3,0,3,0,1,X V Q F H G B L J M P D K C T S W R N Z,,,,,,,,,,,,,,,,,,,,,,,,,,,,,,,,,,,,,,,,,,,,,,,,,,,,,,,,,,,,,,,,,,,,,,,,,,,,,,,,,,,,,,,,,,,,,
,,,,,,,,,,5e6919c9d1e0d41c51c0a182,23,Kobieta,2022-06-04_08h45.25.630,task,2021.1.4,Win32,60.0240096,628b806c463b948bc644b84f,629afea49629edf0f05fa87c,,,,,4,0,4,0,1,X V Q F H G B L J M P D K C T S W R N Z,,,,,,,,,,,,,,,,,,,,,,,,,,,,,,,,,,,,,,,,,,,,,,,,,,,,,,,,,,,,,,,,,,,,,,,,,,,,,,,,,,,,,,,,,,,,,
,,,,,,,,,,5e6919c9d1e0d41c51c0a182,23,Kobieta,2022-06-04_08h45.25.630,task,2021.1.4,Win32,60.0240096,628b806c463b948bc644b84f,629afea49629edf0f05fa87c,,,,,5,0,5,0,1,X V Q F H G B L J M P D K C T S W R N Z,,,,,,,,,,,,,,,,,,,,,,,,,,,,,,,,,,,,,,,,,,,,,,,,,,,,,,,,,,,,,,,,,,,,,,,,,,,,,,,,,,,,,,,,,,,,,
,,,,,,,,,,5e6919c9d1e0d41c51c0a182,23,Kobieta,2022-06-04_08h45.25.630,task,2021.1.4,Win32,60.0240096,628b806c463b948bc644b84f,629afea49629edf0f05fa87c,,,,,6,0,6,0,1,X V Q F H G B L J M P D K C T S W R N Z,,,,,,,,,,,,,,,,,,,,,,,,,,,,,,,,,,,,,,,,,,,,,,,,,,,,,,,,,,,,,,,,,,,,,,,,,,,,,,,,,,,,,,,,,,,,,
,,,,,,,,,,5e6919c9d1e0d41c51c0a182,23,Kobieta,2022-06-04_08h45.25.630,task,2021.1.4,Win32,60.0240096,628b806c463b948bc644b84f,629afea49629edf0f05fa87c,,,,,,,,,,,rkrwtcv,"[""r"",""k"",""r"",""w"",""t"",""c"",""v""]","[1.2379999999999995,1.537999999999954,2.558999999999969,2.9039999999999964,3.290999999999997,3.992999999999995,4.4669999999999845,4.902999999999963]",0,RKRWTDV,11,0,11,0,1,,,,,,,,,,,,,,,,,,,,,,,,,,,,,,,,,,,,,,,,,,,,,,,,,,,,,,,,,,,,,,,,,,,,,,,,,,,,,,,,,,,
,,,,,,,,,,5e6919c9d1e0d41c51c0a182,23,Kobieta,2022-06-04_08h45.25.630,task,2021.1.4,Win32,60.0240096,628b806c463b948bc644b84f,629afea49629edf0f05fa87c,,,,,0,0,0,0,1,X V Q F H G B L J M P D K C T S W R N Z,,,,,,,,,,,,,,,,,,,,,,,,,,,,,,,,,,,,,,,,,,,,,,,,,,,,,,,,,,,,,,,,,,,,,,,,,,,,,,,,,,,,,,,,,,,,,
,,,,,,,,,,5e6919c9d1e0d41c51c0a182,23,Kobieta,2022-06-04_08h45.25.630,task,2021.1.4,Win32,60.0240096,628b806c463b948bc644b84f,629afea49629edf0f05fa87c,,,,,1,0,1,0,1,X V Q F H G B L J M P D K C T S W R N Z,,,,,,,,,,,,,,,,,,,,,,,,,,,,,,,,,,,,,,,,,,,,,,,,,,,,,,,,,,,,,,,,,,,,,,,,,,,,,,,,,,,,,,,,,,,,,
,,,,,,,,,,5e6919c9d1e0d41c51c0a182,23,Kobieta,2022-06-04_08h45.25.630,task,2021.1.4,Win32,60.0240096,628b806c463b948bc644b84f,629afea49629edf0f05fa87c,,,,,2,0,2,0,1,X V Q F H G B L J M P D K C T S W R N Z,,,,,,,,,,,,,,,,,,,,,,,,,,,,,,,,,,,,,,,,,,,,,,,,,,,,,,,,,,,,,,,,,,,,,,,,,,,,,,,,,,,,,,,,,,,,,
,,,,,,,,,,5e6919c9d1e0d41c51c0a182,23,Kobieta,2022-06-04_08h45.25.630,task,2021.1.4,Win32,60.0240096,628b806c463b948bc644b84f,629afea49629edf0f05fa87c,,,,,3,0,3,0,1,X V Q F H G B L J M P D K C T S W R N Z,,,,,,,,,,,,,,,,,,,,,,,,,,,,,,,,,,,,,,,,,,,,,,,,,,,,,,,,,,,,,,,,,,,,,,,,,,,,,,,,,,,,,,,,,,,,,
,,,,,,,,,,5e6919c9d1e0d41c51c0a182,23,Kobieta,2022-06-04_08h45.25.630,task,2021.1.4,Win32,60.0240096,628b806c463b948bc644b84f,629afea49629edf0f05fa87c,,,,,4,0,4,0,1,X V Q F H G B L J M P D K C T S W R N Z,,,,,,,,,,,,,,,,,,,,,,,,,,,,,,,,,,,,,,,,,,,,,,,,,,,,,,,,,,,,,,,,,,,,,,,,,,,,,,,,,,,,,,,,,,,,,
,,,,,,,,,,5e6919c9d1e0d41c51c0a182,23,Kobieta,2022-06-04_08h45.25.630,task,2021.1.4,Win32,60.0240096,628b806c463b948bc644b84f,629afea49629edf0f05fa87c,,,,,5,0,5,0,1,X V Q F H G B L J M P D K C T S W R N Z,,,,,,,,,,,,,,,,,,,,,,,,,,,,,,,,,,,,,,,,,,,,,,,,,,,,,,,,,,,,,,,,,,,,,,,,,,,,,,,,,,,,,,,,,,,,,
,,,,,,,,,,5e6919c9d1e0d41c51c0a182,23,Kobieta,2022-06-04_08h45.25.630,task,2021.1.4,Win32,60.0240096,628b806c463b948bc644b84f,629afea49629edf0f05fa87c,,,,,6,0,6,0,1,X V Q F H G B L J M P D K C T S W R N Z,,,,,,,,,,,,,,,,,,,,,,,,,,,,,,,,,,,,,,,,,,,,,,,,,,,,,,,,,,,,,,,,,,,,,,,,,,,,,,,,,,,,,,,,,,,,,
,,,,,,,,,,5e6919c9d1e0d41c51c0a182,23,Kobieta,2022-06-04_08h45.25.630,task,2021.1.4,Win32,60.0240096,628b806c463b948bc644b84f,629afea49629edf0f05fa87c,,,,,,,,,,,fgsdbdl,"[""f"",""g"",""s"",""d"",""b"",""d"",""l""]","[1.211999999999989,1.4429999999999836,2.748999999999967,3.475999999999999,3.8079999999999927,4.161999999999978,4.649999999999977,5.204999999999984]",1,FGSDBDL,12,0,12,0,1,,,,,,,,,,,,,,,,,,,,,,,,,,,,,,,,,,,,,,,,,,,,,,,,,,,,,,,,,,,,,,,,,,,,,,,,,,,,,,,,,,,
,,,,,,,,,,5e6919c9d1e0d41c51c0a182,23,Kobieta,2022-06-04_08h45.25.630,task,2021.1.4,Win32,60.0240096,628b806c463b948bc644b84f,629afea49629edf0f05fa87c,,,,,0,0,0,0,1,X V Q F H G B L J M P D K C T S W R N Z,,,,,,,,,,,,,,,,,,,,,,,,,,,,,,,,,,,,,,,,,,,,,,,,,,,,,,,,,,,,,,,,,,,,,,,,,,,,,,,,,,,,,,,,,,,,,
,,,,,,,,,,5e6919c9d1e0d41c51c0a182,23,Kobieta,2022-06-04_08h45.25.630,task,2021.1.4,Win32,60.0240096,628b806c463b948bc644b84f,629afea49629edf0f05fa87c,,,,,1,0,1,0,1,X V Q F H G B L J M P D K C T S W R N Z,,,,,,,,,,,,,,,,,,,,,,,,,,,,,,,,,,,,,,,,,,,,,,,,,,,,,,,,,,,,,,,,,,,,,,,,,,,,,,,,,,,,,,,,,,,,,
,,,,,,,,,,5e6919c9d1e0d41c51c0a182,23,Kobieta,2022-06-04_08h45.25.630,task,2021.1.4,Win32,60.0240096,628b806c463b948bc644b84f,629afea49629edf0f05fa87c,,,,,2,0,2,0,1,X V Q F H G B L J M P D K C T S W R N Z,,,,,,,,,,,,,,,,,,,,,,,,,,,,,,,,,,,,,,,,,,,,,,,,,,,,,,,,,,,,,,,,,,,,,,,,,,,,,,,,,,,,,,,,,,,,,
,,,,,,,,,,5e6919c9d1e0d41c51c0a182,23,Kobieta,2022-06-04_08h45.25.630,task,2021.1.4,Win32,60.0240096,628b806c463b948bc644b84f,629afea49629edf0f05fa87c,,,,,3,0,3,0,1,X V Q F H G B L J M P D K C T S W R N Z,,,,,,,,,,,,,,,,,,,,,,,,,,,,,,,,,,,,,,,,,,,,,,,,,,,,,,,,,,,,,,,,,,,,,,,,,,,,,,,,,,,,,,,,,,,,,
,,,,,,,,,,5e6919c9d1e0d41c51c0a182,23,Kobieta,2022-06-04_08h45.25.630,task,2021.1.4,Win32,60.0240096,628b806c463b948bc644b84f,629afea49629edf0f05fa87c,,,,,4,0,4,0,1,X V Q F H G B L J M P D K C T S W R N Z,,,,,,,,,,,,,,,,,,,,,,,,,,,,,,,,,,,,,,,,,,,,,,,,,,,,,,,,,,,,,,,,,,,,,,,,,,,,,,,,,,,,,,,,,,,,,
,,,,,,,,,,5e6919c9d1e0d41c51c0a182,23,Kobieta,2022-06-04_08h45.25.630,task,2021.1.4,Win32,60.0240096,628b806c463b948bc644b84f,629afea49629edf0f05fa87c,,,,,5,0,5,0,1,X V Q F H G B L J M P D K C T S W R N Z,,,,,,,,,,,,,,,,,,,,,,,,,,,,,,,,,,,,,,,,,,,,,,,,,,,,,,,,,,,,,,,,,,,,,,,,,,,,,,,,,,,,,,,,,,,,,
,,,,,,,,,,5e6919c9d1e0d41c51c0a182,23,Kobieta,2022-06-04_08h45.25.630,task,2021.1.4,Win32,60.0240096,628b806c463b948bc644b84f,629afea49629edf0f05fa87c,,,,,6,0,6,0,1,X V Q F H G B L J M P D K C T S W R N Z,,,,,,,,,,,,,,,,,,,,,,,,,,,,,,,,,,,,,,,,,,,,,,,,,,,,,,,,,,,,,,,,,,,,,,,,,,,,,,,,,,,,,,,,,,,,,
,,,,,,,,,,5e6919c9d1e0d41c51c0a182,23,Kobieta,2022-06-04_08h45.25.630,task,2021.1.4,Win32,60.0240096,628b806c463b948bc644b84f,629afea49629edf0f05fa87c,,,,,,,,,,,mvccrml,"[""m"",""v"",""c"",""c"",""r"",""m"",""l""]","[3.0720000000000027,3.583000000000027,4.574999999999989,4.944000000000017,5.314000000000021,5.9809999999999945,7.357000000000028,7.845000000000027]",0,MVZCRMN,13,0,13,0,1,,,,,,,,,,,,,,,,,,,,,,,,,,,,,,,,,,,,,,,,,,,,,,,,,,,,,,,,,,,,,,,,,,,,,,,,,,,,,,,,,,,
,,,,,,,,,,5e6919c9d1e0d41c51c0a182,23,Kobieta,2022-06-04_08h45.25.630,task,2021.1.4,Win32,60.0240096,628b806c463b948bc644b84f,629afea49629edf0f05fa87c,,,,,,,,,,,,,,,,,,,,,space,2.925,0,"[""0""]",1,[2.6790000000000305],[2.6790000000000305],0,0,0,0,1,Practice,1,(3x3) -  9,0,,,,,,,,,,,,,,,,,,,,,,,,,,,,,,,,,,,,,,,,,,,,,,,,,,,,,,,,,,,,,,,,,,,
,,,,,,,,,,5e6919c9d1e0d41c51c0a182,23,Kobieta,2022-06-04_08h45.25.630,task,2021.1.4,Win32,60.0240096,628b806c463b948bc644b84f,629afea49629edf0f05fa87c,,,,,,,,,,,,,,,,,,,,,,,6,"[""6""]",1,[2.1370000000000005],"[2.6790000000000305,2.1370000000000005]",0,1,1,6,1,Practice,7,(25/5) + 1,6,,,,,,,,,,,,,,,,,,,,,,,,,,,,,,,,,,,,,,,,,,,,,,,,,,,,,,,,,,,,,,,,,,,
,,,,,,,,,,5e6919c9d1e0d41c51c0a182,23,Kobieta,2022-06-04_08h45.25.630,task,2021.1.4,Win32,60.0240096,628b806c463b948bc644b84f,629afea49629edf0f05fa87c,,,,,,,,,,,,,,,,,,,,,,,4,"[""4""]",1,[2.7460000000000377],"[2.6790000000000305,2.1370000000000005,2.7460000000000377]",0,2,2,4,1,Practice,5,(2x6) - 8,4,,,,,,,,,,,,,,,,,,,,,,,,,,,,,,,,,,,,,,,,,,,,,,,,,,,,,,,,,,,,,,,,,,,
,,,,,,,,,,5e6919c9d1e0d41c51c0a182,23,Kobieta,2022-06-04_08h45.25.630,task,2021.1.4,Win32,60.0240096,628b806c463b948bc644b84f,629afea49629edf0f05fa87c,,,,,,,,,,,,,,,,,,,,,,,7,"[""7""]",1,[4.18100000000004],"[2.6790000000000305,2.1370000000000005,2.7460000000000377,4.18100000000004]",0,3,3,7,1,Practice,8,(5x5) - 18,7,,,,,,,,,,,,,,,,,,,,,,,,,,,,,,,,,,,,,,,,,,,,,,,,,,,,,,,,,,,,,,,,,,,
,,,,,,,,,,5e6919c9d1e0d41c51c0a182,23,Kobieta,2022-06-04_08h45.25.630,task,2021.1.4,Win32,60.0240096,628b806c463b948bc644b84f,629afea49629edf0f05fa87c,,,,,,,,,,,,,,,,,,,,,,,8,"[""8""]",1,[2.0509999999999877],"[2.6790000000000305,2.1370000000000005,2.7460000000000377,4.18100000000004,2.0509999999999877]",0,4,4,8,1,Practice,9,(3x3) - 1,8,,,,,,,,,,,,,,,,,,,,,,,,,,,,,,,,,,,,,,,,,,,,,,,,,,,,,,,,,,,,,,,,,,,
,,,,,,,,,,5e6919c9d1e0d41c51c0a182,23,Kobieta,2022-06-04_08h45.25.630,task,2021.1.4,Win32,60.0240096,628b806c463b948bc644b84f,629afea49629edf0f05fa87c,,,,,,,,,,,,,,,,,,,,,,,1,"[""1""]",1,[2.3549999999999613],"[2.6790000000000305,2.1370000000000005,2.7460000000000377,4.18100000000004,2.0509999999999877,2.3549999999999613]",0,5,5,1,1,Practice,2,(4x4) - 15,1,,,,,,,,,,,,,,,,,,,,,,,,,,,,,,,,,,,,,,,,,,,,,,,,,,,,,,,,,,,,,,,,,,,
,,,,,,,,,,5e6919c9d1e0d41c51c0a182,23,Kobieta,2022-06-04_08h45.25.630,task,2021.1.4,Win32,60.0240096,628b806c463b948bc644b84f,629afea49629edf0f05fa87c,,,,,,,,,,,,,,,,,,,,,,,5,"[""5""]",1,[2.238999999999976],"[2.6790000000000305,2.1370000000000005,2.7460000000000377,4.18100000000004,2.0509999999999877,2.3549999999999613,2.238999999999976]",0,6,6,5,1,Practice,6,(4/2) + 3,5,,,,,,,,,,,,,,,,,,,,,,,,,,,,,,,,,,,,,,,,,,,,,,,,,,,,,,,,,,,,,,,,,,,
,,,,,,,,,,5e6919c9d1e0d41c51c0a182,23,Kobieta,2022-06-04_08h45.25.630,task,2021.1.4,Win32,60.0240096,628b806c463b948bc644b84f,629afea49629edf0f05fa87c,,,,,,,,,,,,,,,,,,,,,,,9,"[""9""]",1,[1.8100000000000023],"[2.6790000000000305,2.1370000000000005,2.7460000000000377,4.18100000000004,2.0509999999999877,2.3549999999999613,2.238999999999976,1.8100000000000023]",0,7,7,9,1,Practice,10,(20/2) - 1,9,,,,,,,,,,,,,,,,,,,,,,,,,,,,,,,,,,,,,,,,,,,,,,,,,,,,,,,,,,,,,,,,,,,
,,,,,,,,,,5e6919c9d1e0d41c51c0a182,23,Kobieta,2022-06-04_08h45.25.630,task,2021.1.4,Win32,60.0240096,628b806c463b948bc644b84f,629afea49629edf0f05fa87c,,,,,,,,,,,,,,,,,,,,,,,3,"[""3""]",1,[3.1200000000000045],"[2.6790000000000305,2.1370000000000005,2.7460000000000377,4.18100000000004,2.0509999999999877,2.3549999999999613,2.238999999999976,1.8100000000000023,3.1200000000000045]",0,8,8,3,1,Practice,4,(8/4) + 1,3,,,,,,,,,,,,,,,,,,,,,,,,,,,,,,,,,,,,,,,,,,,,,,,,,,,,,,,,,,,,,,,,,,,
,,,,,,,,,,5e6919c9d1e0d41c51c0a182,23,Kobieta,2022-06-04_08h45.25.630,task,2021.1.4,Win32,60.0240096,628b806c463b948bc644b84f,629afea49629edf0f05fa87c,,,,,,,,,,,,,,,,,,,,,,,2,"[""2""]",1,[1.745999999999981],"[2.6790000000000305,2.1370000000000005,2.7460000000000377,4.18100000000004,2.0509999999999877,2.3549999999999613,2.238999999999976,1.8100000000000023,3.1200000000000045,1.745999999999981]",0,9,9,2,1,Practice,3,(4x4) - 14,2,,,,,,,,,,,,,,,,,,,,,,,,,,,,,,,,,,,,,,,,,,,,,,,,,,,,,,,,,,,,,,,,,,,
,,,,,,,,,,5e6919c9d1e0d41c51c0a182,23,Kobieta,2022-06-04_08h45.25.630,task,2021.1.4,Win32,60.0240096,628b806c463b948bc644b84f,629afea49629edf0f05fa87c,,,,,,,,,,,,,,,,,,,,,,,,,,,,,,,,,,,,,1,25.064,1.670933333,11.74948591,0.885041841,3.954341284,space,1.595,0,0,0,0,1,,,,,,,,,,,,,,,,,,,,,,,,,,,,,,,,,,,,,,,,,,,,,,,,,,,,,,
,,,,,,,,,,5e6919c9d1e0d41c51c0a182,23,Kobieta,2022-06-04_08h45.25.630,task,2021.1.4,Win32,60.0240096,628b806c463b948bc644b84f,629afea49629edf0f05fa87c,,,,,,,,,,,,,,,,,,,,,,,9,,,,,,,,,,Practice,10,(20/2) - 1,9,,,,,,,,,,,,,,space,9.163,"[""9""]",1,[3.201000000000022],1,0,0,0,9,1,,,,,,,,,,,,,,,,,,,,,,,,,,,,,,,,,,,,,,,,,,,
,,,,,,,,,,5e6919c9d1e0d41c51c0a182,23,Kobieta,2022-06-04_08h45.25.630,task,2021.1.4,Win32,60.0240096,628b806c463b948bc644b84f,629afea49629edf0f05fa87c,,,,,,,,,,X V Q F H G B L J M P D K C T S W R N Z,,,,,,,,,,,,,,,,,,,,,,,,,,,,,,,,,,,,,,,,,,,,,,,,,,,0,0,0,0,1,,,,,,,,,,,,,,,,,,,,,,,,,,,,,,,,,,,,,,
,,,,,,,,,,5e6919c9d1e0d41c51c0a182,23,Kobieta,2022-06-04_08h45.25.630,task,2021.1.4,Win32,60.0240096,628b806c463b948bc644b84f,629afea49629edf0f05fa87c,,,,,,,,,,,,,,,,,,,,,,,8,,,,,,,,,,Practice,9,(3x3) - 1,8,,,,,,,,,,,,,,,,"[""8""]",1,[2.7590000000000146],1,0,0,0,8,1,,,,,,,,,,,,,,,,,,,,,,,,,,,,,,,,,,,,,,,,,,,
,,,,,,,,,,5e6919c9d1e0d41c51c0a182,23,Kobieta,2022-06-04_08h45.25.630,task,2021.1.4,Win32,60.0240096,628b806c463b948bc644b84f,629afea49629edf0f05fa87c,,,,,,,,,,X V Q F H G B L J M P D K C T S W R N Z,,,,,,,,,,,,,,,,,,,,,,,,,,,,,,,,,,,,,,,,,,,,,,,,,,,1,0,1,0,1,,,,,,,,,,,,,,,,,,,,,,,,,,,,,,,,,,,,,,
,,,,,,,,,,5e6919c9d1e0d41c51c0a182,23,Kobieta,2022-06-04_08h45.25.630,task,2021.1.4,Win32,60.0240096,628b806c463b948bc644b84f,629afea49629edf0f05fa87c,,,,,,,,,,,,,,,,,,,,,,,,,,,,,,,,,,,,,,,,,,,,,,,,,,,,,,,,,,,,,,,,,,zc,"[""z"",""c""]",0,"[1.8529999999999518,2.439999999999941,2.98599999999999]",1,0,0,0,0,1,,,,,,,,,,,,,,,,,,,,,,,,,,,,
,,,,,,,,,,5e6919c9d1e0d41c51c0a182,23,Kobieta,2022-06-04_08h45.25.630,task,2021.1.4,Win32,60.0240096,628b806c463b948bc644b84f,629afea49629edf0f05fa87c,,,,,,,,,,,,,,,,,,,,,,,0,,,,,,,,,,Practice,1,(3x3) -  9,0,,,,,,,,,,,,,,,,"[""0""]",1,[1.5960000000000036],1,0,0,0,0,1,,,,,,,,,,,,,,,,,,,,,,,,,,,,,,,,,,,,,,,,,,,
,,,,,,,,,,5e6919c9d1e0d41c51c0a182,23,Kobieta,2022-06-04_08h45.25.630,task,2021.1.4,Win32,60.0240096,628b806c463b948bc644b84f,629afea49629edf0f05fa87c,,,,,,,,,,X V Q F H G B L J M P D K C T S W R N Z,,,,,,,,,,,,,,,,,,,,,,,,,,,,,,,,,,,,,,,,,,,,,,,,,,,0,0,0,0,1,,,,,,,,,,,,,,,,,,,,,,,,,,,,,,,,,,,,,,
,,,,,,,,,,5e6919c9d1e0d41c51c0a182,23,Kobieta,2022-06-04_08h45.25.630,task,2021.1.4,Win32,60.0240096,628b806c463b948bc644b84f,629afea49629edf0f05fa87c,,,,,,,,,,,,,,,,,,,,,,,0,,,,,,,,,,Practice,1,(3x3) -  9,0,,,,,,,,,,,,,,,,"[""0""]",1,[1.88900000000001],1,0,0,0,0,1,,,,,,,,,,,,,,,,,,,,,,,,,,,,,,,,,,,,,,,,,,,
,,,,,,,,,,5e6919c9d1e0d41c51c0a182,23,Kobieta,2022-06-04_08h45.25.630,task,2021.1.4,Win32,60.0240096,628b806c463b948bc644b84f,629afea49629edf0f05fa87c,,,,,,,,,,X V Q F H G B L J M P D K C T S W R N Z,,,,,,,,,,,,,,,,,,,,,,,,,,,,,,,,,,,,,,,,,,,,,,,,,,,1,0,1,0,1,,,,,,,,,,,,,,,,,,,,,,,,,,,,,,,,,,,,,,
,,,,,,,,,,5e6919c9d1e0d41c51c0a182,23,Kobieta,2022-06-04_08h45.25.630,task,2021.1.4,Win32,60.0240096,628b806c463b948bc644b84f,629afea49629edf0f05fa87c,,,,,,,,,,,,,,,,,,,,,,,,,,,,,,,,,,,,,,,,,,,,,,,,,,,,,,,,,,,,,,,,,,nq,"[""n"",""q""]",0,"[1.594000000000051,1.997000000000071,2.6410000000000764]",1,1,0,1,0,1,,,,,,,,,,,,,,,,,,,,,,,,,,,,
,,,,,,,,,,5e6919c9d1e0d41c51c0a182,23,Kobieta,2022-06-04_08h45.25.630,task,2021.1.4,Win32,60.0240096,628b806c463b948bc644b84f,629afea49629edf0f05fa87c,,,,,,,,,,,,,,,,,,,,,,,6,,,,,,,,,,Practice,7,(25/5) + 1,6,,,,,,,,,,,,,,,,"[""6""]",1,[2.5259999999999536],1,0,0,0,6,1,,,,,,,,,,,,,,,,,,,,,,,,,,,,,,,,,,,,,,,,,,,
,,,,,,,,,,5e6919c9d1e0d41c51c0a182,23,Kobieta,2022-06-04_08h45.25.630,task,2021.1.4,Win32,60.0240096,628b806c463b948bc644b84f,629afea49629edf0f05fa87c,,,,,,,,,,X V Q F H G B L J M P D K C T S W R N Z,,,,,,,,,,,,,,,,,,,,,,,,,,,,,,,,,,,,,,,,,,,,,,,,,,,0,0,0,0,1,,,,,,,,,,,,,,,,,,,,,,,,,,,,,,,,,,,,,,
,,,,,,,,,,5e6919c9d1e0d41c51c0a182,23,Kobieta,2022-06-04_08h45.25.630,task,2021.1.4,Win32,60.0240096,628b806c463b948bc644b84f,629afea49629edf0f05fa87c,,,,,,,,,,,,,,,,,,,,,,,2,,,,,,,,,,Practice,3,(4x4) - 14,2,,,,,,,,,,,,,,,,"[""2""]",1,[1.5670000000000073],1,0,0,0,2,1,,,,,,,,,,,,,,,,,,,,,,,,,,,,,,,,,,,,,,,,,,,
,,,,,,,,,,5e6919c9d1e0d41c51c0a182,23,Kobieta,2022-06-04_08h45.25.630,task,2021.1.4,Win32,60.0240096,628b806c463b948bc644b84f,629afea49629edf0f05fa87c,,,,,,,,,,X V Q F H G B L J M P D K C T S W R N Z,,,,,,,,,,,,,,,,,,,,,,,,,,,,,,,,,,,,,,,,,,,,,,,,,,,1,0,1,0,1,,,,,,,,,,,,,,,,,,,,,,,,,,,,,,,,,,,,,,
,,,,,,,,,,5e6919c9d1e0d41c51c0a182,23,Kobieta,2022-06-04_08h45.25.630,task,2021.1.4,Win32,60.0240096,628b806c463b948bc644b84f,629afea49629edf0f05fa87c,,,,,,,,,,,,,,,,,,,,,,,,,,,,,,,,,,,,,,,,,,,,,,,,,,,,,,,,,,,,,,,,,,vk,"[""v"",""k""]",0,"[2.2609999999999673,2.8780000000000427,4.2409999999999854]",1,2,0,2,0,1,,,,,,,,,,,,,,,,,,,,,,,,,,,,
,,,,,,,,,,5e6919c9d1e0d41c51c0a182,23,Kobieta,2022-06-04_08h45.25.630,task,2021.1.4,Win32,60.0240096,628b806c463b948bc644b84f,629afea49629edf0f05fa87c,,,,,,,,,,,,,,,,,,,,,,,6,,,,,,,,,,Task,30,(6/3) + 4 ,6,,,,,,,,,,,,,,,,,,,1,,,,,,,,,,,,,,,,,,,,,space,7.443,"[""6""]",1,[2.271000000000072],0,0,0,29,1,,,,,,,,,,,,,,,,,,
,,,,,,,,,,5e6919c9d1e0d41c51c0a182,23,Kobieta,2022-06-04_08h45.25.630,task,2021.1.4,Win32,60.0240096,628b806c463b948bc644b84f,629afea49629edf0f05fa87c,,,,,,,,,,X V Q F H G B L J M P D K C T S W R N Z,,,,,,,,,,,,,,,,,,,,,,,,,,,,,,,,,,,,,,,,,,,,,,,,,,,,,,,,,,,,,,,,,,,,,,,,,,,,0,0,0,0,1,,,,,,,,,,,,,
,,,,,,,,,,5e6919c9d1e0d41c51c0a182,23,Kobieta,2022-06-04_08h45.25.630,task,2021.1.4,Win32,60.0240096,628b806c463b948bc644b84f,629afea49629edf0f05fa87c,,,,,,,,,,,,,,,,,,,,,,,9,,,,,,,,,,Task,40,(7x2) - 5,9,,,,,,,,,,,,,,,,,,,1,,,,,,,,,,,,,,,,,,,,,,,"[""9""]",1,[2.382000000000062],0,0,0,39,1,,,,,,,,,,,,,,,,,,
,,,,,,,,,,5e6919c9d1e0d41c51c0a182,23,Kobieta,2022-06-04_08h45.25.630,task,2021.1.4,Win32,60.0240096,628b806c463b948bc644b84f,629afea49629edf0f05fa87c,,,,,,,,,,X V Q F H G B L J M P D K C T S W R N Z,,,,,,,,,,,,,,,,,,,,,,,,,,,,,,,,,,,,,,,,,,,,,,,,,,,,,,,,,,,,,,,,,,,,,,,,,,,,1,0,1,0,1,,,,,,,,,,,,,
,,,,,,,,,,5e6919c9d1e0d41c51c0a182,23,Kobieta,2022-06-04_08h45.25.630,task,2021.1.4,Win32,60.0240096,628b806c463b948bc644b84f,629afea49629edf0f05fa87c,,,,,,,,,,,,,,,,,,,,,,,,,,,,,,,,,,,,,,,,,,,,,,,,,,,,,,,,,,,,,,,,,,,,,,,,,,,,,,,,,,,,,,,,,,,zr,"[""z"",""r""]",0,"[1.34800000000007,1.643000000000029,2.219000000000051]",1,ZR,0,0,0,0,1,,
,,,,,,,,,,5e6919c9d1e0d41c51c0a182,23,Kobieta,2022-06-04_08h45.25.630,task,2021.1.4,Win32,60.0240096,628b806c463b948bc644b84f,629afea49629edf0f05fa87c,,,,,,,,,,,,,,,,,,,,,,,3,,,,,,,,,,Task,20,(18/9) + 1,3,,,,,,,,,,,,,,,,,,,1,,,,,,,,,,,,,,,,,,,,,,,"[""3""]",1,[1.9700000000000273],0,0,0,19,1,,,,,,,,,,,,,,,,,,
,,,,,,,,,,5e6919c9d1e0d41c51c0a182,23,Kobieta,2022-06-04_08h45.25.630,task,2021.1.4,Win32,60.0240096,628b806c463b948bc644b84f,629afea49629edf0f05fa87c,,,,,,,,,,X V Q F H G B L J M P D K C T S W R N Z,,,,,,,,,,,,,,,,,,,,,,,,,,,,,,,,,,,,,,,,,,,,,,,,,,,,,,,,,,,,,,,,,,,,,,,,,,,,0,0,0,0,1,,,,,,,,,,,,,
,,,,,,,,,,5e6919c9d1e0d41c51c0a182,23,Kobieta,2022-06-04_08h45.25.630,task,2021.1.4,Win32,60.0240096,628b806c463b948bc644b84f,629afea49629edf0f05fa87c,,,,,,,,,,,,,,,,,,,,,,,9,,,,,,,,,,Task,24,(2x2) + 5,9,,,,,,,,,,,,,,,,,,,1,,,,,,,,,,,,,,,,,,,,,,,"[""9""]",1,[1.7719999999999345],0,0,0,23,1,,,,,,,,,,,,,,,,,,
,,,,,,,,,,5e6919c9d1e0d41c51c0a182,23,Kobieta,2022-06-04_08h45.25.630,task,2021.1.4,Win32,60.0240096,628b806c463b948bc644b84f,629afea49629edf0f05fa87c,,,,,,,,,,X V Q F H G B L J M P D K C T S W R N Z,,,,,,,,,,,,,,,,,,,,,,,,,,,,,,,,,,,,,,,,,,,,,,,,,,,,,,,,,,,,,,,,,,,,,,,,,,,,1,0,1,0,1,,,,,,,,,,,,,
,,,,,,,,,,5e6919c9d1e0d41c51c0a182,23,Kobieta,2022-06-04_08h45.25.630,task,2021.1.4,Win32,60.0240096,628b806c463b948bc644b84f,629afea49629edf0f05fa87c,,,,,,,,,,,,,,,,,,,,,,,7,,,,,,,,,,Task,6,(12/2) + 1,7,,,,,,,,,,,,,,,,,,,1,,,,,,,,,,,,,,,,,,,,,,,"[""7""]",1,[2.4149999999999636],0,0,0,5,1,,,,,,,,,,,,,,,,,,
,,,,,,,,,,5e6919c9d1e0d41c51c0a182,23,Kobieta,2022-06-04_08h45.25.630,task,2021.1.4,Win32,60.0240096,628b806c463b948bc644b84f,629afea49629edf0f05fa87c,,,,,,,,,,X V Q F H G B L J M P D K C T S W R N Z,,,,,,,,,,,,,,,,,,,,,,,,,,,,,,,,,,,,,,,,,,,,,,,,,,,,,,,,,,,,,,,,,,,,,,,,,,,,2,0,2,0,1,,,,,,,,,,,,,
,,,,,,,,,,5e6919c9d1e0d41c51c0a182,23,Kobieta,2022-06-04_08h45.25.630,task,2021.1.4,Win32,60.0240096,628b806c463b948bc644b84f,629afea49629edf0f05fa87c,,,,,,,,,,,,,,,,,,,,,,,,,,,,,,,,,,,,,,,,,,,,,,,,,,,,,,,,,,,,,,,,,,,,,,,,,,,,,,,,,,,,,,,,,,,zbh,"[""z"",""b"",""h""]",0,"[0.9309999999999263,1.149000000000001,1.475999999999999,2.2619999999999436]",1,ZBH,1,0,1,0,1,,
,,,,,,,,,,5e6919c9d1e0d41c51c0a182,23,Kobieta,2022-06-04_08h45.25.630,task,2021.1.4,Win32,60.0240096,628b806c463b948bc644b84f,629afea49629edf0f05fa87c,,,,,,,,,,,,,,,,,,,,,,,,,,,,,,,,,Task,39,(5x3) - 7,8,,,,,,,,,,,,,,,,,,,0,,,,,,,,,,,,,,,,,,,,,,,,0,,0,0,0,38,1,,,,,,,,,,,,,,,,,,
,,,,,,,,,,5e6919c9d1e0d41c51c0a182,23,Kobieta,2022-06-04_08h45.25.630,task,2021.1.4,Win32,60.0240096,628b806c463b948bc644b84f,629afea49629edf0f05fa87c,,,,,,,,,,,,,,,,,,,,,,,9,,,,,,,,,,Task,24,(2x2) + 5,9,,,,,,,,,,,,,,,,,,,1,,,,,,,,,,,,,,,,,,,,,,,"[""9""]",1,[1.8589999999999236],0,1,1,23,1,,,,,,,,,,,,,,,,,,
,,,,,,,,,,5e6919c9d1e0d41c51c0a182,23,Kobieta,2022-06-04_08h45.25.630,task,2021.1.4,Win32,60.0240096,628b806c463b948bc644b84f,629afea49629edf0f05fa87c,,,,,,,,,,X V Q F H G B L J M P D K C T S W R N Z,,,,,,,,,,,,,,,,,,,,,,,,,,,,,,,,,,,,,,,,,,,,,,,,,,,,,,,,,,,,,,,,,,,,,,,,,,,,0,0,0,0,1,,,,,,,,,,,,,
,,,,,,,,,,5e6919c9d1e0d41c51c0a182,23,Kobieta,2022-06-04_08h45.25.630,task,2021.1.4,Win32,60.0240096,628b806c463b948bc644b84f,629afea49629edf0f05fa87c,,,,,,,,,,,,,,,,,,,,,,,9,,,,,,,,,,Task,24,(2x2) + 5,9,,,,,,,,,,,,,,,,,,,1,,,,,,,,,,,,,,,,,,,,,,,"[""9""]",1,[1.34699999999998],0,0,0,23,1,,,,,,,,,,,,,,,,,,
,,,,,,,,,,5e6919c9d1e0d41c51c0a182,23,Kobieta,2022-06-04_08h45.25.630,task,2021.1.4,Win32,60.0240096,628b806c463b948bc644b84f,629afea49629edf0f05fa87c,,,,,,,,,,X V Q F H G B L J M P D K C T S W R N Z,,,,,,,,,,,,,,,,,,,,,,,,,,,,,,,,,,,,,,,,,,,,,,,,,,,,,,,,,,,,,,,,,,,,,,,,,,,,1,0,1,0,1,,,,,,,,,,,,,
,,,,,,,,,,5e6919c9d1e0d41c51c0a182,23,Kobieta,2022-06-04_08h45.25.630,task,2021.1.4,Win32,60.0240096,628b806c463b948bc644b84f,629afea49629edf0f05fa87c,,,,,,,,,,,,,,,,,,,,,,,9,,,,,,,,,,Task,7,(3x7) - 12,9,,,,,,,,,,,,,,,,,,,1,,,,,,,,,,,,,,,,,,,,,,,"[""9""]",1,[3.0319999999999254],0,0,0,6,1,,,,,,,,,,,,,,,,,,
,,,,,,,,,,5e6919c9d1e0d41c51c0a182,23,Kobieta,2022-06-04_08h45.25.630,task,2021.1.4,Win32,60.0240096,628b806c463b948bc644b84f,629afea49629edf0f05fa87c,,,,,,,,,,X V Q F H G B L J M P D K C T S W R N Z,,,,,,,,,,,,,,,,,,,,,,,,,,,,,,,,,,,,,,,,,,,,,,,,,,,,,,,,,,,,,,,,,,,,,,,,,,,,2,0,2,0,1,,,,,,,,,,,,,
,,,,,,,,,,5e6919c9d1e0d41c51c0a182,23,Kobieta,2022-06-04_08h45.25.630,task,2021.1.4,Win32,60.0240096,628b806c463b948bc644b84f,629afea49629edf0f05fa87c,,,,,,,,,,,,,,,,,,,,,,,6,,,,,,,,,,Task,9,(3x7) - 20,1,,,,,,,,,,,,,,,,,,,0,,,,,,,,,,,,,,,,,,,,,,,"[""6""]",0,[2.7299999999999045],0,0,0,8,1,,,,,,,,,,,,,,,,,,
,,,,,,,,,,5e6919c9d1e0d41c51c0a182,23,Kobieta,2022-06-04_08h45.25.630,task,2021.1.4,Win32,60.0240096,628b806c463b948bc644b84f,629afea49629edf0f05fa87c,,,,,,,,,,,,,,,,,,,,,,,4,,,,,,,,,,Task,11,(18/3) - 2,4,,,,,,,,,,,,,,,,,,,1,,,,,,,,,,,,,,,,,,,,,,,"[""4""]",1,[2.2369999999999663],0,1,1,10,1,,,,,,,,,,,,,,,,,,
,,,,,,,,,,5e6919c9d1e0d41c51c0a182,23,Kobieta,2022-06-04_08h45.25.630,task,2021.1.4,Win32,60.0240096,628b806c463b948bc644b84f,629afea49629edf0f05fa87c,,,,,,,,,,X V Q F H G B L J M P D K C T S W R N Z,,,,,,,,,,,,,,,,,,,,,,,,,,,,,,,,,,,,,,,,,,,,,,,,,,,,,,,,,,,,,,,,,,,,,,,,,,,,3,0,3,0,1,,,,,,,,,,,,,
,,,,,,,,,,5e6919c9d1e0d41c51c0a182,23,Kobieta,2022-06-04_08h45.25.630,task,2021.1.4,Win32,60.0240096,628b806c463b948bc644b84f,629afea49629edf0f05fa87c,,,,,,,,,,,,,,,,,,,,,,,,,,,,,,,,,,,,,,,,,,,,,,,,,,,,,,,,,,,,,,,,,,,,,,,,,,,,,,,,,,,,,,,,,,,dvcl,"[""d"",""v"",""c"",""l""]",0,"[1.794999999999959,2.5270000000000437,5.437999999999988,5.770999999999958,6.460000000000036]",0,DCLH,2,0,2,0,1,,
,,,,,,,,,,5e6919c9d1e0d41c51c0a182,23,Kobieta,2022-06-04_08h45.25.630,task,2021.1.4,Win32,60.0240096,628b806c463b948bc644b84f,629afea49629edf0f05fa87c,,,,,,,,,,,,,,,,,,,,,,,5,,,,,,,,,,Task,22,(3x1) + 2,5,,,,,,,,,,,,,,,,,,,1,,,,,,,,,,,,,,,,,,,,,,,"[""5""]",1,[2.80600000000004],0,0,0,21,1,,,,,,,,,,,,,,,,,,
,,,,,,,,,,5e6919c9d1e0d41c51c0a182,23,Kobieta,2022-06-04_08h45.25.630,task,2021.1.4,Win32,60.0240096,628b806c463b948bc644b84f,629afea49629edf0f05fa87c,,,,,,,,,,X V Q F H G B L J M P D K C T S W R N Z,,,,,,,,,,,,,,,,,,,,,,,,,,,,,,,,,,,,,,,,,,,,,,,,,,,,,,,,,,,,,,,,,,,,,,,,,,,,0,0,0,0,1,,,,,,,,,,,,,
,,,,,,,,,,5e6919c9d1e0d41c51c0a182,23,Kobieta,2022-06-04_08h45.25.630,task,2021.1.4,Win32,60.0240096,628b806c463b948bc644b84f,629afea49629edf0f05fa87c,,,,,,,,,,,,,,,,,,,,,,,8,,,,,,,,,,Task,32,(8/2) + 4,8,,,,,,,,,,,,,,,,,,,1,,,,,,,,,,,,,,,,,,,,,,,"[""8""]",1,[3.144999999999982],0,0,0,31,1,,,,,,,,,,,,,,,,,,
,,,,,,,,,,5e6919c9d1e0d41c51c0a182,23,Kobieta,2022-06-04_08h45.25.630,task,2021.1.4,Win32,60.0240096,628b806c463b948bc644b84f,629afea49629edf0f05fa87c,,,,,,,,,,X V Q F H G B L J M P D K C T S W R N Z,,,,,,,,,,,,,,,,,,,,,,,,,,,,,,,,,,,,,,,,,,,,,,,,,,,,,,,,,,,,,,,,,,,,,,,,,,,,1,0,1,0,1,,,,,,,,,,,,,
,,,,,,,,,,5e6919c9d1e0d41c51c0a182,23,Kobieta,2022-06-04_08h45.25.630,task,2021.1.4,Win32,60.0240096,628b806c463b948bc644b84f,629afea49629edf0f05fa87c,,,,,,,,,,,,,,,,,,,,,,,4,,,,,,,,,,Task,11,(18/3) - 2,4,,,,,,,,,,,,,,,,,,,1,,,,,,,,,,,,,,,,,,,,,,,"[""4""]",1,[1.7420000000000755],0,0,0,10,1,,,,,,,,,,,,,,,,,,
,,,,,,,,,,5e6919c9d1e0d41c51c0a182,23,Kobieta,2022-06-04_08h45.25.630,task,2021.1.4,Win32,60.0240096,628b806c463b948bc644b84f,629afea49629edf0f05fa87c,,,,,,,,,,X V Q F H G B L J M P D K C T S W R N Z,,,,,,,,,,,,,,,,,,,,,,,,,,,,,,,,,,,,,,,,,,,,,,,,,,,,,,,,,,,,,,,,,,,,,,,,,,,,2,0,2,0,1,,,,,,,,,,,,,
,,,,,,,,,,5e6919c9d1e0d41c51c0a182,23,Kobieta,2022-06-04_08h45.25.630,task,2021.1.4,Win32,60.0240096,628b806c463b948bc644b84f,629afea49629edf0f05fa87c,,,,,,,,,,,,,,,,,,,,,,,5,,,,,,,,,,Task,22,(3x1) + 2,5,,,,,,,,,,,,,,,,,,,1,,,,,,,,,,,,,,,,,,,,,,,"[""5""]",1,[1.57000000000005],0,0,0,21,1,,,,,,,,,,,,,,,,,,
,,,,,,,,,,5e6919c9d1e0d41c51c0a182,23,Kobieta,2022-06-04_08h45.25.630,task,2021.1.4,Win32,60.0240096,628b806c463b948bc644b84f,629afea49629edf0f05fa87c,,,,,,,,,,X V Q F H G B L J M P D K C T S W R N Z,,,,,,,,,,,,,,,,,,,,,,,,,,,,,,,,,,,,,,,,,,,,,,,,,,,,,,,,,,,,,,,,,,,,,,,,,,,,3,0,3,0,1,,,,,,,,,,,,,
,,,,,,,,,,5e6919c9d1e0d41c51c0a182,23,Kobieta,2022-06-04_08h45.25.630,task,2021.1.4,Win32,60.0240096,628b806c463b948bc644b84f,629afea49629edf0f05fa87c,,,,,,,,,,,,,,,,,,,,,,,,,,,,,,,,,,,,,,,,,,,,,,,,,,,,,,,,,,,,,,,,,,,,,,,,,,,,,,,,,,,,,,,,,,,bfwv,"[""b"",""f"",""w"",""v""]",0,"[1.2080000000000837,1.8530000000000655,2.5870000000001028,2.9330000000001064,3.7450000000000045]",0,DFWV,3,0,3,0,1,,
,,,,,,,,,,5e6919c9d1e0d41c51c0a182,23,Kobieta,2022-06-04_08h45.25.630,task,2021.1.4,Win32,60.0240096,628b806c463b948bc644b84f,629afea49629edf0f05fa87c,,,,,,,,,,,,,,,,,,,,,,,,,,,,,,,,,,,,,,,,,,,,,,,,,,,,,,,,,,,,,,,,,,,,,,,,,,,,,,,,,,,,,,,,,,,,,,,,,,,,,,space,1.19
