key_resp_15.keys,key_resp_15.rt,key_resp_16.keys,key_resp_16.rt,key_resp_4.keys,key_resp_4.rt,next_letter.thisRepN,next_letter.thisTrialN,next_letter.thisN,next_letter.thisIndex,next_letter.ran,letter,participant,Wiek*,Płeć,date,expName,psychopyVersion,OS,frameRate,study_id,session,simple_recall,key_resp_5.keys,key_resp_5.rt,simple_recall_corr,simple_recall_corrkeys,next_level.thisRepN,next_level.thisTrialN,next_level.thisN,next_level.thisIndex,next_level.ran,key_resp_2.keys,key_resp_2.rt,digit_answer,key_resp.keys,key_resp.corr,key_resp.rt,RT_list,next_equation.thisRepN,next_equation.thisTrialN,next_equation.thisN,next_equation.thisIndex,next_equation.ran,Task,Trial,Problem,Operation_answer,processing_score,sumRT,meanRT,sumdiff,sd,RT,key_resp_3.keys,key_resp_3.rt,repeat_practice.thisRepN,repeat_practice.thisTrialN,repeat_practice.thisN,repeat_practice.thisIndex,repeat_practice.ran,key_resp_6.keys,key_resp_6.rt,key_resp_11.keys,key_resp_11.corr,key_resp_11.rt,operation_correct,repeat_if_wrong_prac.thisRepN,repeat_if_wrong_prac.thisTrialN,repeat_if_wrong_prac.thisN,repeat_if_wrong_prac.thisIndex,repeat_if_wrong_prac.ran,span_size_prac.thisRepN,span_size_prac.thisTrialN,span_size_prac.thisN,span_size_prac.thisIndex,span_size_prac.ran,complex_recall_practice,key_resp_9.keys,key_resp_9.corr,key_resp_9.rt,complex_prac_corr,span_recall_prac.thisRepN,span_recall_prac.thisTrialN,span_recall_prac.thisN,span_recall_prac.thisIndex,span_recall_prac.ran,key_resp_10.keys,key_resp_10.rt,key_resp_7.keys,key_resp_7.corr,repeat_if_wrong.thisRepN,repeat_if_wrong.thisTrialN,repeat_if_wrong.thisN,repeat_if_wrong.thisIndex,repeat_if_wrong.ran,key_resp_7.rt,span_size.thisRepN,span_size.thisTrialN,span_size.thisN,span_size.thisIndex,span_size.ran,complex_recall,key_resp_8.keys,key_resp_8.corr,key_resp_8.rt,complex_recall_corr,complex_recall_corrkeys,span_recall.thisRepN,span_recall.thisTrialN,span_recall.thisN,span_recall.thisIndex,span_recall.ran,key_resp_13.keys,key_resp_13.corr,key_resp_13.rt,random_loop.thisRepN,random_loop.thisTrialN,random_loop.thisN,random_loop.thisIndex,random_loop.ran,key_resp_12.keys,key_resp_12.rt
space,19.6843,space,23.9871,space,5.2662,0,0,0,0,1,X V Q F H G B L J M P D K C T S W R N Z,5e70491f899f5e63073e7fd4,24,Kobieta,2022-06-11_09h31.34.572,task,2021.1.4,MacIntel,59.99880002,6299f149e92ead563fba08ef,62a443f71c22fcf20a4ace66,,,,,,,,,,,,,,,,,,,,,,,,,,,,,,,,,,,,,,,,,,,,,,,,,,,,,,,,,,,,,,,,,,,,,,,,,,,,,,,,,,,,,,,,,,,,,,,,,,,,,
,,,,,,1,0,1,0,1,X V Q F H G B L J M P D K C T S W R N Z,5e70491f899f5e63073e7fd4,24,Kobieta,2022-06-11_09h31.34.572,task,2021.1.4,MacIntel,59.99880002,6299f149e92ead563fba08ef,62a443f71c22fcf20a4ace66,,,,,,,,,,,,,,,,,,,,,,,,,,,,,,,,,,,,,,,,,,,,,,,,,,,,,,,,,,,,,,,,,,,,,,,,,,,,,,,,,,,,,,,,,,,,,,,,,,,,,
,,,,,,,,,,,,5e70491f899f5e63073e7fd4,24,Kobieta,2022-06-11_09h31.34.572,task,2021.1.4,MacIntel,59.99880002,6299f149e92ead563fba08ef,62a443f71c22fcf20a4ace66,zs,"[""z"",""s""]","[2.8238000000119143,3.489400000035758,4.955600000023836]",1,ZS,0,0,0,0,1,,,,,,,,,,,,,,,,,,,,,,,,,,,,,,,,,,,,,,,,,,,,,,,,,,,,,,,,,,,,,,,,,,,,,,,,,,,,,,,,,,,,,,,,,,,
,,,,,,0,0,0,0,1,X V Q F H G B L J M P D K C T S W R N Z,5e70491f899f5e63073e7fd4,24,Kobieta,2022-06-11_09h31.34.572,task,2021.1.4,MacIntel,59.99880002,6299f149e92ead563fba08ef,62a443f71c22fcf20a4ace66,,,,,,,,,,,,,,,,,,,,,,,,,,,,,,,,,,,,,,,,,,,,,,,,,,,,,,,,,,,,,,,,,,,,,,,,,,,,,,,,,,,,,,,,,,,,,,,,,,,,,
,,,,,,1,0,1,0,1,X V Q F H G B L J M P D K C T S W R N Z,5e70491f899f5e63073e7fd4,24,Kobieta,2022-06-11_09h31.34.572,task,2021.1.4,MacIntel,59.99880002,6299f149e92ead563fba08ef,62a443f71c22fcf20a4ace66,,,,,,,,,,,,,,,,,,,,,,,,,,,,,,,,,,,,,,,,,,,,,,,,,,,,,,,,,,,,,,,,,,,,,,,,,,,,,,,,,,,,,,,,,,,,,,,,,,,,,
,,,,,,,,,,,,5e70491f899f5e63073e7fd4,24,Kobieta,2022-06-11_09h31.34.572,task,2021.1.4,MacIntel,59.99880002,6299f149e92ead563fba08ef,62a443f71c22fcf20a4ace66,gp,"[""g"",""p""]","[1.3711000000238442,1.9794000000357528,2.5524000000357603]",1,GP,1,0,1,0,1,,,,,,,,,,,,,,,,,,,,,,,,,,,,,,,,,,,,,,,,,,,,,,,,,,,,,,,,,,,,,,,,,,,,,,,,,,,,,,,,,,,,,,,,,,,
,,,,,,0,0,0,0,1,X V Q F H G B L J M P D K C T S W R N Z,5e70491f899f5e63073e7fd4,24,Kobieta,2022-06-11_09h31.34.572,task,2021.1.4,MacIntel,59.99880002,6299f149e92ead563fba08ef,62a443f71c22fcf20a4ace66,,,,,,,,,,,,,,,,,,,,,,,,,,,,,,,,,,,,,,,,,,,,,,,,,,,,,,,,,,,,,,,,,,,,,,,,,,,,,,,,,,,,,,,,,,,,,,,,,,,,,
,,,,,,1,0,1,0,1,X V Q F H G B L J M P D K C T S W R N Z,5e70491f899f5e63073e7fd4,24,Kobieta,2022-06-11_09h31.34.572,task,2021.1.4,MacIntel,59.99880002,6299f149e92ead563fba08ef,62a443f71c22fcf20a4ace66,,,,,,,,,,,,,,,,,,,,,,,,,,,,,,,,,,,,,,,,,,,,,,,,,,,,,,,,,,,,,,,,,,,,,,,,,,,,,,,,,,,,,,,,,,,,,,,,,,,,,
,,,,,,2,0,2,0,1,X V Q F H G B L J M P D K C T S W R N Z,5e70491f899f5e63073e7fd4,24,Kobieta,2022-06-11_09h31.34.572,task,2021.1.4,MacIntel,59.99880002,6299f149e92ead563fba08ef,62a443f71c22fcf20a4ace66,,,,,,,,,,,,,,,,,,,,,,,,,,,,,,,,,,,,,,,,,,,,,,,,,,,,,,,,,,,,,,,,,,,,,,,,,,,,,,,,,,,,,,,,,,,,,,,,,,,,,
,,,,,,,,,,,,5e70491f899f5e63073e7fd4,24,Kobieta,2022-06-11_09h31.34.572,task,2021.1.4,MacIntel,59.99880002,6299f149e92ead563fba08ef,62a443f71c22fcf20a4ace66,vll,"[""v"",""l"",""l""]","[0.8343000000119218,1.283899999976157,1.4991000000238444,2.1846999999880836]",1,VLL,2,0,2,0,1,,,,,,,,,,,,,,,,,,,,,,,,,,,,,,,,,,,,,,,,,,,,,,,,,,,,,,,,,,,,,,,,,,,,,,,,,,,,,,,,,,,,,,,,,,,
,,,,,,0,0,0,0,1,X V Q F H G B L J M P D K C T S W R N Z,5e70491f899f5e63073e7fd4,24,Kobieta,2022-06-11_09h31.34.572,task,2021.1.4,MacIntel,59.99880002,6299f149e92ead563fba08ef,62a443f71c22fcf20a4ace66,,,,,,,,,,,,,,,,,,,,,,,,,,,,,,,,,,,,,,,,,,,,,,,,,,,,,,,,,,,,,,,,,,,,,,,,,,,,,,,,,,,,,,,,,,,,,,,,,,,,,
,,,,,,1,0,1,0,1,X V Q F H G B L J M P D K C T S W R N Z,5e70491f899f5e63073e7fd4,24,Kobieta,2022-06-11_09h31.34.572,task,2021.1.4,MacIntel,59.99880002,6299f149e92ead563fba08ef,62a443f71c22fcf20a4ace66,,,,,,,,,,,,,,,,,,,,,,,,,,,,,,,,,,,,,,,,,,,,,,,,,,,,,,,,,,,,,,,,,,,,,,,,,,,,,,,,,,,,,,,,,,,,,,,,,,,,,
,,,,,,2,0,2,0,1,X V Q F H G B L J M P D K C T S W R N Z,5e70491f899f5e63073e7fd4,24,Kobieta,2022-06-11_09h31.34.572,task,2021.1.4,MacIntel,59.99880002,6299f149e92ead563fba08ef,62a443f71c22fcf20a4ace66,,,,,,,,,,,,,,,,,,,,,,,,,,,,,,,,,,,,,,,,,,,,,,,,,,,,,,,,,,,,,,,,,,,,,,,,,,,,,,,,,,,,,,,,,,,,,,,,,,,,,
,,,,,,,,,,,,5e70491f899f5e63073e7fd4,24,Kobieta,2022-06-11_09h31.34.572,task,2021.1.4,MacIntel,59.99880002,6299f149e92ead563fba08ef,62a443f71c22fcf20a4ace66,nzh,"[""n"",""z"",""h""]","[0.7663999999761586,1.2741999999880704,1.8833999999761488,2.6265999999642275]",1,NZH,3,0,3,0,1,,,,,,,,,,,,,,,,,,,,,,,,,,,,,,,,,,,,,,,,,,,,,,,,,,,,,,,,,,,,,,,,,,,,,,,,,,,,,,,,,,,,,,,,,,,
,,,,,,0,0,0,0,1,X V Q F H G B L J M P D K C T S W R N Z,5e70491f899f5e63073e7fd4,24,Kobieta,2022-06-11_09h31.34.572,task,2021.1.4,MacIntel,59.99880002,6299f149e92ead563fba08ef,62a443f71c22fcf20a4ace66,,,,,,,,,,,,,,,,,,,,,,,,,,,,,,,,,,,,,,,,,,,,,,,,,,,,,,,,,,,,,,,,,,,,,,,,,,,,,,,,,,,,,,,,,,,,,,,,,,,,,
,,,,,,1,0,1,0,1,X V Q F H G B L J M P D K C T S W R N Z,5e70491f899f5e63073e7fd4,24,Kobieta,2022-06-11_09h31.34.572,task,2021.1.4,MacIntel,59.99880002,6299f149e92ead563fba08ef,62a443f71c22fcf20a4ace66,,,,,,,,,,,,,,,,,,,,,,,,,,,,,,,,,,,,,,,,,,,,,,,,,,,,,,,,,,,,,,,,,,,,,,,,,,,,,,,,,,,,,,,,,,,,,,,,,,,,,
,,,,,,2,0,2,0,1,X V Q F H G B L J M P D K C T S W R N Z,5e70491f899f5e63073e7fd4,24,Kobieta,2022-06-11_09h31.34.572,task,2021.1.4,MacIntel,59.99880002,6299f149e92ead563fba08ef,62a443f71c22fcf20a4ace66,,,,,,,,,,,,,,,,,,,,,,,,,,,,,,,,,,,,,,,,,,,,,,,,,,,,,,,,,,,,,,,,,,,,,,,,,,,,,,,,,,,,,,,,,,,,,,,,,,,,,
,,,,,,3,0,3,0,1,X V Q F H G B L J M P D K C T S W R N Z,5e70491f899f5e63073e7fd4,24,Kobieta,2022-06-11_09h31.34.572,task,2021.1.4,MacIntel,59.99880002,6299f149e92ead563fba08ef,62a443f71c22fcf20a4ace66,,,,,,,,,,,,,,,,,,,,,,,,,,,,,,,,,,,,,,,,,,,,,,,,,,,,,,,,,,,,,,,,,,,,,,,,,,,,,,,,,,,,,,,,,,,,,,,,,,,,,
,,,,,,,,,,,,5e70491f899f5e63073e7fd4,24,Kobieta,2022-06-11_09h31.34.572,task,2021.1.4,MacIntel,59.99880002,6299f149e92ead563fba08ef,62a443f71c22fcf20a4ace66,wrqp,"[""w"",""r"",""q"",""p""]","[1.089500000000001,1.316099999964237,2.2068999999761587,2.4161999999880805,3.1878999999761675]",1,WRQP,4,0,4,0,1,,,,,,,,,,,,,,,,,,,,,,,,,,,,,,,,,,,,,,,,,,,,,,,,,,,,,,,,,,,,,,,,,,,,,,,,,,,,,,,,,,,,,,,,,,,
,,,,,,0,0,0,0,1,X V Q F H G B L J M P D K C T S W R N Z,5e70491f899f5e63073e7fd4,24,Kobieta,2022-06-11_09h31.34.572,task,2021.1.4,MacIntel,59.99880002,6299f149e92ead563fba08ef,62a443f71c22fcf20a4ace66,,,,,,,,,,,,,,,,,,,,,,,,,,,,,,,,,,,,,,,,,,,,,,,,,,,,,,,,,,,,,,,,,,,,,,,,,,,,,,,,,,,,,,,,,,,,,,,,,,,,,
,,,,,,1,0,1,0,1,X V Q F H G B L J M P D K C T S W R N Z,5e70491f899f5e63073e7fd4,24,Kobieta,2022-06-11_09h31.34.572,task,2021.1.4,MacIntel,59.99880002,6299f149e92ead563fba08ef,62a443f71c22fcf20a4ace66,,,,,,,,,,,,,,,,,,,,,,,,,,,,,,,,,,,,,,,,,,,,,,,,,,,,,,,,,,,,,,,,,,,,,,,,,,,,,,,,,,,,,,,,,,,,,,,,,,,,,
,,,,,,2,0,2,0,1,X V Q F H G B L J M P D K C T S W R N Z,5e70491f899f5e63073e7fd4,24,Kobieta,2022-06-11_09h31.34.572,task,2021.1.4,MacIntel,59.99880002,6299f149e92ead563fba08ef,62a443f71c22fcf20a4ace66,,,,,,,,,,,,,,,,,,,,,,,,,,,,,,,,,,,,,,,,,,,,,,,,,,,,,,,,,,,,,,,,,,,,,,,,,,,,,,,,,,,,,,,,,,,,,,,,,,,,,
,,,,,,3,0,3,0,1,X V Q F H G B L J M P D K C T S W R N Z,5e70491f899f5e63073e7fd4,24,Kobieta,2022-06-11_09h31.34.572,task,2021.1.4,MacIntel,59.99880002,6299f149e92ead563fba08ef,62a443f71c22fcf20a4ace66,,,,,,,,,,,,,,,,,,,,,,,,,,,,,,,,,,,,,,,,,,,,,,,,,,,,,,,,,,,,,,,,,,,,,,,,,,,,,,,,,,,,,,,,,,,,,,,,,,,,,
,,,,,,,,,,,,5e70491f899f5e63073e7fd4,24,Kobieta,2022-06-11_09h31.34.572,task,2021.1.4,MacIntel,59.99880002,6299f149e92ead563fba08ef,62a443f71c22fcf20a4ace66,mhnx,"[""m"",""h"",""n"",""x""]","[0.9668000000119292,1.3856999999880912,1.684600000023849,2.1213999999761626,2.8006000000238487]",1,MHNX,5,0,5,0,1,,,,,,,,,,,,,,,,,,,,,,,,,,,,,,,,,,,,,,,,,,,,,,,,,,,,,,,,,,,,,,,,,,,,,,,,,,,,,,,,,,,,,,,,,,,
,,,,,,0,0,0,0,1,X V Q F H G B L J M P D K C T S W R N Z,5e70491f899f5e63073e7fd4,24,Kobieta,2022-06-11_09h31.34.572,task,2021.1.4,MacIntel,59.99880002,6299f149e92ead563fba08ef,62a443f71c22fcf20a4ace66,,,,,,,,,,,,,,,,,,,,,,,,,,,,,,,,,,,,,,,,,,,,,,,,,,,,,,,,,,,,,,,,,,,,,,,,,,,,,,,,,,,,,,,,,,,,,,,,,,,,,
,,,,,,1,0,1,0,1,X V Q F H G B L J M P D K C T S W R N Z,5e70491f899f5e63073e7fd4,24,Kobieta,2022-06-11_09h31.34.572,task,2021.1.4,MacIntel,59.99880002,6299f149e92ead563fba08ef,62a443f71c22fcf20a4ace66,,,,,,,,,,,,,,,,,,,,,,,,,,,,,,,,,,,,,,,,,,,,,,,,,,,,,,,,,,,,,,,,,,,,,,,,,,,,,,,,,,,,,,,,,,,,,,,,,,,,,
,,,,,,2,0,2,0,1,X V Q F H G B L J M P D K C T S W R N Z,5e70491f899f5e63073e7fd4,24,Kobieta,2022-06-11_09h31.34.572,task,2021.1.4,MacIntel,59.99880002,6299f149e92ead563fba08ef,62a443f71c22fcf20a4ace66,,,,,,,,,,,,,,,,,,,,,,,,,,,,,,,,,,,,,,,,,,,,,,,,,,,,,,,,,,,,,,,,,,,,,,,,,,,,,,,,,,,,,,,,,,,,,,,,,,,,,
,,,,,,3,0,3,0,1,X V Q F H G B L J M P D K C T S W R N Z,5e70491f899f5e63073e7fd4,24,Kobieta,2022-06-11_09h31.34.572,task,2021.1.4,MacIntel,59.99880002,6299f149e92ead563fba08ef,62a443f71c22fcf20a4ace66,,,,,,,,,,,,,,,,,,,,,,,,,,,,,,,,,,,,,,,,,,,,,,,,,,,,,,,,,,,,,,,,,,,,,,,,,,,,,,,,,,,,,,,,,,,,,,,,,,,,,
,,,,,,4,0,4,0,1,X V Q F H G B L J M P D K C T S W R N Z,5e70491f899f5e63073e7fd4,24,Kobieta,2022-06-11_09h31.34.572,task,2021.1.4,MacIntel,59.99880002,6299f149e92ead563fba08ef,62a443f71c22fcf20a4ace66,,,,,,,,,,,,,,,,,,,,,,,,,,,,,,,,,,,,,,,,,,,,,,,,,,,,,,,,,,,,,,,,,,,,,,,,,,,,,,,,,,,,,,,,,,,,,,,,,,,,,
,,,,,,,,,,,,5e70491f899f5e63073e7fd4,24,Kobieta,2022-06-11_09h31.34.572,task,2021.1.4,MacIntel,59.99880002,6299f149e92ead563fba08ef,62a443f71c22fcf20a4ace66,dtcvl,"[""d"",""t"",""c"",""v"",""l""]","[1.205400000035766,1.79019999998809,2.167600000023853,2.7830000000000013,3.3676000000238417,4.169199999988081]",1,DTCVL,6,0,6,0,1,,,,,,,,,,,,,,,,,,,,,,,,,,,,,,,,,,,,,,,,,,,,,,,,,,,,,,,,,,,,,,,,,,,,,,,,,,,,,,,,,,,,,,,,,,,
,,,,,,0,0,0,0,1,X V Q F H G B L J M P D K C T S W R N Z,5e70491f899f5e63073e7fd4,24,Kobieta,2022-06-11_09h31.34.572,task,2021.1.4,MacIntel,59.99880002,6299f149e92ead563fba08ef,62a443f71c22fcf20a4ace66,,,,,,,,,,,,,,,,,,,,,,,,,,,,,,,,,,,,,,,,,,,,,,,,,,,,,,,,,,,,,,,,,,,,,,,,,,,,,,,,,,,,,,,,,,,,,,,,,,,,,
,,,,,,1,0,1,0,1,X V Q F H G B L J M P D K C T S W R N Z,5e70491f899f5e63073e7fd4,24,Kobieta,2022-06-11_09h31.34.572,task,2021.1.4,MacIntel,59.99880002,6299f149e92ead563fba08ef,62a443f71c22fcf20a4ace66,,,,,,,,,,,,,,,,,,,,,,,,,,,,,,,,,,,,,,,,,,,,,,,,,,,,,,,,,,,,,,,,,,,,,,,,,,,,,,,,,,,,,,,,,,,,,,,,,,,,,
,,,,,,2,0,2,0,1,X V Q F H G B L J M P D K C T S W R N Z,5e70491f899f5e63073e7fd4,24,Kobieta,2022-06-11_09h31.34.572,task,2021.1.4,MacIntel,59.99880002,6299f149e92ead563fba08ef,62a443f71c22fcf20a4ace66,,,,,,,,,,,,,,,,,,,,,,,,,,,,,,,,,,,,,,,,,,,,,,,,,,,,,,,,,,,,,,,,,,,,,,,,,,,,,,,,,,,,,,,,,,,,,,,,,,,,,
,,,,,,3,0,3,0,1,X V Q F H G B L J M P D K C T S W R N Z,5e70491f899f5e63073e7fd4,24,Kobieta,2022-06-11_09h31.34.572,task,2021.1.4,MacIntel,59.99880002,6299f149e92ead563fba08ef,62a443f71c22fcf20a4ace66,,,,,,,,,,,,,,,,,,,,,,,,,,,,,,,,,,,,,,,,,,,,,,,,,,,,,,,,,,,,,,,,,,,,,,,,,,,,,,,,,,,,,,,,,,,,,,,,,,,,,
,,,,,,4,0,4,0,1,X V Q F H G B L J M P D K C T S W R N Z,5e70491f899f5e63073e7fd4,24,Kobieta,2022-06-11_09h31.34.572,task,2021.1.4,MacIntel,59.99880002,6299f149e92ead563fba08ef,62a443f71c22fcf20a4ace66,,,,,,,,,,,,,,,,,,,,,,,,,,,,,,,,,,,,,,,,,,,,,,,,,,,,,,,,,,,,,,,,,,,,,,,,,,,,,,,,,,,,,,,,,,,,,,,,,,,,,
,,,,,,,,,,,,5e70491f899f5e63073e7fd4,24,Kobieta,2022-06-11_09h31.34.572,task,2021.1.4,MacIntel,59.99880002,6299f149e92ead563fba08ef,62a443f71c22fcf20a4ace66,gwhjz,"[""g"",""w"",""h"",""j"",""z""]","[1.287699999988078,1.7254999999999967,2.0158000000119216,2.281699999988078,2.6501999999880894,3.6178000000119255]",1,GWHJZ,7,0,7,0,1,,,,,,,,,,,,,,,,,,,,,,,,,,,,,,,,,,,,,,,,,,,,,,,,,,,,,,,,,,,,,,,,,,,,,,,,,,,,,,,,,,,,,,,,,,,
,,,,,,0,0,0,0,1,X V Q F H G B L J M P D K C T S W R N Z,5e70491f899f5e63073e7fd4,24,Kobieta,2022-06-11_09h31.34.572,task,2021.1.4,MacIntel,59.99880002,6299f149e92ead563fba08ef,62a443f71c22fcf20a4ace66,,,,,,,,,,,,,,,,,,,,,,,,,,,,,,,,,,,,,,,,,,,,,,,,,,,,,,,,,,,,,,,,,,,,,,,,,,,,,,,,,,,,,,,,,,,,,,,,,,,,,
,,,,,,1,0,1,0,1,X V Q F H G B L J M P D K C T S W R N Z,5e70491f899f5e63073e7fd4,24,Kobieta,2022-06-11_09h31.34.572,task,2021.1.4,MacIntel,59.99880002,6299f149e92ead563fba08ef,62a443f71c22fcf20a4ace66,,,,,,,,,,,,,,,,,,,,,,,,,,,,,,,,,,,,,,,,,,,,,,,,,,,,,,,,,,,,,,,,,,,,,,,,,,,,,,,,,,,,,,,,,,,,,,,,,,,,,
,,,,,,2,0,2,0,1,X V Q F H G B L J M P D K C T S W R N Z,5e70491f899f5e63073e7fd4,24,Kobieta,2022-06-11_09h31.34.572,task,2021.1.4,MacIntel,59.99880002,6299f149e92ead563fba08ef,62a443f71c22fcf20a4ace66,,,,,,,,,,,,,,,,,,,,,,,,,,,,,,,,,,,,,,,,,,,,,,,,,,,,,,,,,,,,,,,,,,,,,,,,,,,,,,,,,,,,,,,,,,,,,,,,,,,,,
,,,,,,3,0,3,0,1,X V Q F H G B L J M P D K C T S W R N Z,5e70491f899f5e63073e7fd4,24,Kobieta,2022-06-11_09h31.34.572,task,2021.1.4,MacIntel,59.99880002,6299f149e92ead563fba08ef,62a443f71c22fcf20a4ace66,,,,,,,,,,,,,,,,,,,,,,,,,,,,,,,,,,,,,,,,,,,,,,,,,,,,,,,,,,,,,,,,,,,,,,,,,,,,,,,,,,,,,,,,,,,,,,,,,,,,,
,,,,,,4,0,4,0,1,X V Q F H G B L J M P D K C T S W R N Z,5e70491f899f5e63073e7fd4,24,Kobieta,2022-06-11_09h31.34.572,task,2021.1.4,MacIntel,59.99880002,6299f149e92ead563fba08ef,62a443f71c22fcf20a4ace66,,,,,,,,,,,,,,,,,,,,,,,,,,,,,,,,,,,,,,,,,,,,,,,,,,,,,,,,,,,,,,,,,,,,,,,,,,,,,,,,,,,,,,,,,,,,,,,,,,,,,
,,,,,,5,0,5,0,1,X V Q F H G B L J M P D K C T S W R N Z,5e70491f899f5e63073e7fd4,24,Kobieta,2022-06-11_09h31.34.572,task,2021.1.4,MacIntel,59.99880002,6299f149e92ead563fba08ef,62a443f71c22fcf20a4ace66,,,,,,,,,,,,,,,,,,,,,,,,,,,,,,,,,,,,,,,,,,,,,,,,,,,,,,,,,,,,,,,,,,,,,,,,,,,,,,,,,,,,,,,,,,,,,,,,,,,,,
,,,,,,,,,,,,5e70491f899f5e63073e7fd4,24,Kobieta,2022-06-11_09h31.34.572,task,2021.1.4,MacIntel,59.99880002,6299f149e92ead563fba08ef,62a443f71c22fcf20a4ace66,rnwdtk,"[""r"",""n"",""w"",""d"",""t"",""k""]","[0.8669999999999902,1.248899999976146,1.522500000000008,1.8815999999642372,2.265399999976154,2.833399999976166,5.7169999999999845]",1,RNWDTK,8,0,8,0,1,,,,,,,,,,,,,,,,,,,,,,,,,,,,,,,,,,,,,,,,,,,,,,,,,,,,,,,,,,,,,,,,,,,,,,,,,,,,,,,,,,,,,,,,,,,
,,,,,,0,0,0,0,1,X V Q F H G B L J M P D K C T S W R N Z,5e70491f899f5e63073e7fd4,24,Kobieta,2022-06-11_09h31.34.572,task,2021.1.4,MacIntel,59.99880002,6299f149e92ead563fba08ef,62a443f71c22fcf20a4ace66,,,,,,,,,,,,,,,,,,,,,,,,,,,,,,,,,,,,,,,,,,,,,,,,,,,,,,,,,,,,,,,,,,,,,,,,,,,,,,,,,,,,,,,,,,,,,,,,,,,,,
,,,,,,1,0,1,0,1,X V Q F H G B L J M P D K C T S W R N Z,5e70491f899f5e63073e7fd4,24,Kobieta,2022-06-11_09h31.34.572,task,2021.1.4,MacIntel,59.99880002,6299f149e92ead563fba08ef,62a443f71c22fcf20a4ace66,,,,,,,,,,,,,,,,,,,,,,,,,,,,,,,,,,,,,,,,,,,,,,,,,,,,,,,,,,,,,,,,,,,,,,,,,,,,,,,,,,,,,,,,,,,,,,,,,,,,,
,,,,,,2,0,2,0,1,X V Q F H G B L J M P D K C T S W R N Z,5e70491f899f5e63073e7fd4,24,Kobieta,2022-06-11_09h31.34.572,task,2021.1.4,MacIntel,59.99880002,6299f149e92ead563fba08ef,62a443f71c22fcf20a4ace66,,,,,,,,,,,,,,,,,,,,,,,,,,,,,,,,,,,,,,,,,,,,,,,,,,,,,,,,,,,,,,,,,,,,,,,,,,,,,,,,,,,,,,,,,,,,,,,,,,,,,
,,,,,,3,0,3,0,1,X V Q F H G B L J M P D K C T S W R N Z,5e70491f899f5e63073e7fd4,24,Kobieta,2022-06-11_09h31.34.572,task,2021.1.4,MacIntel,59.99880002,6299f149e92ead563fba08ef,62a443f71c22fcf20a4ace66,,,,,,,,,,,,,,,,,,,,,,,,,,,,,,,,,,,,,,,,,,,,,,,,,,,,,,,,,,,,,,,,,,,,,,,,,,,,,,,,,,,,,,,,,,,,,,,,,,,,,
,,,,,,4,0,4,0,1,X V Q F H G B L J M P D K C T S W R N Z,5e70491f899f5e63073e7fd4,24,Kobieta,2022-06-11_09h31.34.572,task,2021.1.4,MacIntel,59.99880002,6299f149e92ead563fba08ef,62a443f71c22fcf20a4ace66,,,,,,,,,,,,,,,,,,,,,,,,,,,,,,,,,,,,,,,,,,,,,,,,,,,,,,,,,,,,,,,,,,,,,,,,,,,,,,,,,,,,,,,,,,,,,,,,,,,,,
,,,,,,5,0,5,0,1,X V Q F H G B L J M P D K C T S W R N Z,5e70491f899f5e63073e7fd4,24,Kobieta,2022-06-11_09h31.34.572,task,2021.1.4,MacIntel,59.99880002,6299f149e92ead563fba08ef,62a443f71c22fcf20a4ace66,,,,,,,,,,,,,,,,,,,,,,,,,,,,,,,,,,,,,,,,,,,,,,,,,,,,,,,,,,,,,,,,,,,,,,,,,,,,,,,,,,,,,,,,,,,,,,,,,,,,,
,,,,,,,,,,,,5e70491f899f5e63073e7fd4,24,Kobieta,2022-06-11_09h31.34.572,task,2021.1.4,MacIntel,59.99880002,6299f149e92ead563fba08ef,62a443f71c22fcf20a4ace66,gtmxs,"[""g"",""t"",""m"",""x"",""s""]","[1.0219999999999914,1.316700000047689,1.733000000000004,2.2198000000119293,7.432999999999993,10.38320000004768]",0,GTMXZS,9,0,9,0,1,,,,,,,,,,,,,,,,,,,,,,,,,,,,,,,,,,,,,,,,,,,,,,,,,,,,,,,,,,,,,,,,,,,,,,,,,,,,,,,,,,,,,,,,,,,
,,,,,,0,0,0,0,1,X V Q F H G B L J M P D K C T S W R N Z,5e70491f899f5e63073e7fd4,24,Kobieta,2022-06-11_09h31.34.572,task,2021.1.4,MacIntel,59.99880002,6299f149e92ead563fba08ef,62a443f71c22fcf20a4ace66,,,,,,,,,,,,,,,,,,,,,,,,,,,,,,,,,,,,,,,,,,,,,,,,,,,,,,,,,,,,,,,,,,,,,,,,,,,,,,,,,,,,,,,,,,,,,,,,,,,,,
,,,,,,1,0,1,0,1,X V Q F H G B L J M P D K C T S W R N Z,5e70491f899f5e63073e7fd4,24,Kobieta,2022-06-11_09h31.34.572,task,2021.1.4,MacIntel,59.99880002,6299f149e92ead563fba08ef,62a443f71c22fcf20a4ace66,,,,,,,,,,,,,,,,,,,,,,,,,,,,,,,,,,,,,,,,,,,,,,,,,,,,,,,,,,,,,,,,,,,,,,,,,,,,,,,,,,,,,,,,,,,,,,,,,,,,,
,,,,,,2,0,2,0,1,X V Q F H G B L J M P D K C T S W R N Z,5e70491f899f5e63073e7fd4,24,Kobieta,2022-06-11_09h31.34.572,task,2021.1.4,MacIntel,59.99880002,6299f149e92ead563fba08ef,62a443f71c22fcf20a4ace66,,,,,,,,,,,,,,,,,,,,,,,,,,,,,,,,,,,,,,,,,,,,,,,,,,,,,,,,,,,,,,,,,,,,,,,,,,,,,,,,,,,,,,,,,,,,,,,,,,,,,
,,,,,,3,0,3,0,1,X V Q F H G B L J M P D K C T S W R N Z,5e70491f899f5e63073e7fd4,24,Kobieta,2022-06-11_09h31.34.572,task,2021.1.4,MacIntel,59.99880002,6299f149e92ead563fba08ef,62a443f71c22fcf20a4ace66,,,,,,,,,,,,,,,,,,,,,,,,,,,,,,,,,,,,,,,,,,,,,,,,,,,,,,,,,,,,,,,,,,,,,,,,,,,,,,,,,,,,,,,,,,,,,,,,,,,,,
,,,,,,4,0,4,0,1,X V Q F H G B L J M P D K C T S W R N Z,5e70491f899f5e63073e7fd4,24,Kobieta,2022-06-11_09h31.34.572,task,2021.1.4,MacIntel,59.99880002,6299f149e92ead563fba08ef,62a443f71c22fcf20a4ace66,,,,,,,,,,,,,,,,,,,,,,,,,,,,,,,,,,,,,,,,,,,,,,,,,,,,,,,,,,,,,,,,,,,,,,,,,,,,,,,,,,,,,,,,,,,,,,,,,,,,,
,,,,,,5,0,5,0,1,X V Q F H G B L J M P D K C T S W R N Z,5e70491f899f5e63073e7fd4,24,Kobieta,2022-06-11_09h31.34.572,task,2021.1.4,MacIntel,59.99880002,6299f149e92ead563fba08ef,62a443f71c22fcf20a4ace66,,,,,,,,,,,,,,,,,,,,,,,,,,,,,,,,,,,,,,,,,,,,,,,,,,,,,,,,,,,,,,,,,,,,,,,,,,,,,,,,,,,,,,,,,,,,,,,,,,,,,
,,,,,,,,,,,,5e70491f899f5e63073e7fd4,24,Kobieta,2022-06-11_09h31.34.572,task,2021.1.4,MacIntel,59.99880002,6299f149e92ead563fba08ef,62a443f71c22fcf20a4ace66,rrddsw,"[""r"",""r"",""d"",""d"",""s"",""w""]","[0.9396999999880791,1.2246999999880757,1.6743000000119252,1.856199999988064,2.2501999999880695,2.625499999999988,3.382800000011912]",1,RRDDSW,10,0,10,0,1,,,,,,,,,,,,,,,,,,,,,,,,,,,,,,,,,,,,,,,,,,,,,,,,,,,,,,,,,,,,,,,,,,,,,,,,,,,,,,,,,,,,,,,,,,,
,,,,,,0,0,0,0,1,X V Q F H G B L J M P D K C T S W R N Z,5e70491f899f5e63073e7fd4,24,Kobieta,2022-06-11_09h31.34.572,task,2021.1.4,MacIntel,59.99880002,6299f149e92ead563fba08ef,62a443f71c22fcf20a4ace66,,,,,,,,,,,,,,,,,,,,,,,,,,,,,,,,,,,,,,,,,,,,,,,,,,,,,,,,,,,,,,,,,,,,,,,,,,,,,,,,,,,,,,,,,,,,,,,,,,,,,
,,,,,,1,0,1,0,1,X V Q F H G B L J M P D K C T S W R N Z,5e70491f899f5e63073e7fd4,24,Kobieta,2022-06-11_09h31.34.572,task,2021.1.4,MacIntel,59.99880002,6299f149e92ead563fba08ef,62a443f71c22fcf20a4ace66,,,,,,,,,,,,,,,,,,,,,,,,,,,,,,,,,,,,,,,,,,,,,,,,,,,,,,,,,,,,,,,,,,,,,,,,,,,,,,,,,,,,,,,,,,,,,,,,,,,,,
,,,,,,2,0,2,0,1,X V Q F H G B L J M P D K C T S W R N Z,5e70491f899f5e63073e7fd4,24,Kobieta,2022-06-11_09h31.34.572,task,2021.1.4,MacIntel,59.99880002,6299f149e92ead563fba08ef,62a443f71c22fcf20a4ace66,,,,,,,,,,,,,,,,,,,,,,,,,,,,,,,,,,,,,,,,,,,,,,,,,,,,,,,,,,,,,,,,,,,,,,,,,,,,,,,,,,,,,,,,,,,,,,,,,,,,,
,,,,,,3,0,3,0,1,X V Q F H G B L J M P D K C T S W R N Z,5e70491f899f5e63073e7fd4,24,Kobieta,2022-06-11_09h31.34.572,task,2021.1.4,MacIntel,59.99880002,6299f149e92ead563fba08ef,62a443f71c22fcf20a4ace66,,,,,,,,,,,,,,,,,,,,,,,,,,,,,,,,,,,,,,,,,,,,,,,,,,,,,,,,,,,,,,,,,,,,,,,,,,,,,,,,,,,,,,,,,,,,,,,,,,,,,
,,,,,,4,0,4,0,1,X V Q F H G B L J M P D K C T S W R N Z,5e70491f899f5e63073e7fd4,24,Kobieta,2022-06-11_09h31.34.572,task,2021.1.4,MacIntel,59.99880002,6299f149e92ead563fba08ef,62a443f71c22fcf20a4ace66,,,,,,,,,,,,,,,,,,,,,,,,,,,,,,,,,,,,,,,,,,,,,,,,,,,,,,,,,,,,,,,,,,,,,,,,,,,,,,,,,,,,,,,,,,,,,,,,,,,,,
,,,,,,5,0,5,0,1,X V Q F H G B L J M P D K C T S W R N Z,5e70491f899f5e63073e7fd4,24,Kobieta,2022-06-11_09h31.34.572,task,2021.1.4,MacIntel,59.99880002,6299f149e92ead563fba08ef,62a443f71c22fcf20a4ace66,,,,,,,,,,,,,,,,,,,,,,,,,,,,,,,,,,,,,,,,,,,,,,,,,,,,,,,,,,,,,,,,,,,,,,,,,,,,,,,,,,,,,,,,,,,,,,,,,,,,,
,,,,,,6,0,6,0,1,X V Q F H G B L J M P D K C T S W R N Z,5e70491f899f5e63073e7fd4,24,Kobieta,2022-06-11_09h31.34.572,task,2021.1.4,MacIntel,59.99880002,6299f149e92ead563fba08ef,62a443f71c22fcf20a4ace66,,,,,,,,,,,,,,,,,,,,,,,,,,,,,,,,,,,,,,,,,,,,,,,,,,,,,,,,,,,,,,,,,,,,,,,,,,,,,,,,,,,,,,,,,,,,,,,,,,,,,
,,,,,,,,,,,,5e70491f899f5e63073e7fd4,24,Kobieta,2022-06-11_09h31.34.572,task,2021.1.4,MacIntel,59.99880002,6299f149e92ead563fba08ef,62a443f71c22fcf20a4ace66,twwrxs,"[""t"",""w"",""w"",""r"",""x"",""s""]","[1.373300000011909,1.7056000000238214,2.2501000000238207,3.6829999999999927,4.423200000047672,6.458300000011917,7.585100000023829]",0,TWWRXZF,11,0,11,0,1,,,,,,,,,,,,,,,,,,,,,,,,,,,,,,,,,,,,,,,,,,,,,,,,,,,,,,,,,,,,,,,,,,,,,,,,,,,,,,,,,,,,,,,,,,,
,,,,,,0,0,0,0,1,X V Q F H G B L J M P D K C T S W R N Z,5e70491f899f5e63073e7fd4,24,Kobieta,2022-06-11_09h31.34.572,task,2021.1.4,MacIntel,59.99880002,6299f149e92ead563fba08ef,62a443f71c22fcf20a4ace66,,,,,,,,,,,,,,,,,,,,,,,,,,,,,,,,,,,,,,,,,,,,,,,,,,,,,,,,,,,,,,,,,,,,,,,,,,,,,,,,,,,,,,,,,,,,,,,,,,,,,
,,,,,,1,0,1,0,1,X V Q F H G B L J M P D K C T S W R N Z,5e70491f899f5e63073e7fd4,24,Kobieta,2022-06-11_09h31.34.572,task,2021.1.4,MacIntel,59.99880002,6299f149e92ead563fba08ef,62a443f71c22fcf20a4ace66,,,,,,,,,,,,,,,,,,,,,,,,,,,,,,,,,,,,,,,,,,,,,,,,,,,,,,,,,,,,,,,,,,,,,,,,,,,,,,,,,,,,,,,,,,,,,,,,,,,,,
,,,,,,2,0,2,0,1,X V Q F H G B L J M P D K C T S W R N Z,5e70491f899f5e63073e7fd4,24,Kobieta,2022-06-11_09h31.34.572,task,2021.1.4,MacIntel,59.99880002,6299f149e92ead563fba08ef,62a443f71c22fcf20a4ace66,,,,,,,,,,,,,,,,,,,,,,,,,,,,,,,,,,,,,,,,,,,,,,,,,,,,,,,,,,,,,,,,,,,,,,,,,,,,,,,,,,,,,,,,,,,,,,,,,,,,,
,,,,,,3,0,3,0,1,X V Q F H G B L J M P D K C T S W R N Z,5e70491f899f5e63073e7fd4,24,Kobieta,2022-06-11_09h31.34.572,task,2021.1.4,MacIntel,59.99880002,6299f149e92ead563fba08ef,62a443f71c22fcf20a4ace66,,,,,,,,,,,,,,,,,,,,,,,,,,,,,,,,,,,,,,,,,,,,,,,,,,,,,,,,,,,,,,,,,,,,,,,,,,,,,,,,,,,,,,,,,,,,,,,,,,,,,
,,,,,,4,0,4,0,1,X V Q F H G B L J M P D K C T S W R N Z,5e70491f899f5e63073e7fd4,24,Kobieta,2022-06-11_09h31.34.572,task,2021.1.4,MacIntel,59.99880002,6299f149e92ead563fba08ef,62a443f71c22fcf20a4ace66,,,,,,,,,,,,,,,,,,,,,,,,,,,,,,,,,,,,,,,,,,,,,,,,,,,,,,,,,,,,,,,,,,,,,,,,,,,,,,,,,,,,,,,,,,,,,,,,,,,,,
,,,,,,5,0,5,0,1,X V Q F H G B L J M P D K C T S W R N Z,5e70491f899f5e63073e7fd4,24,Kobieta,2022-06-11_09h31.34.572,task,2021.1.4,MacIntel,59.99880002,6299f149e92ead563fba08ef,62a443f71c22fcf20a4ace66,,,,,,,,,,,,,,,,,,,,,,,,,,,,,,,,,,,,,,,,,,,,,,,,,,,,,,,,,,,,,,,,,,,,,,,,,,,,,,,,,,,,,,,,,,,,,,,,,,,,,
,,,,,,6,0,6,0,1,X V Q F H G B L J M P D K C T S W R N Z,5e70491f899f5e63073e7fd4,24,Kobieta,2022-06-11_09h31.34.572,task,2021.1.4,MacIntel,59.99880002,6299f149e92ead563fba08ef,62a443f71c22fcf20a4ace66,,,,,,,,,,,,,,,,,,,,,,,,,,,,,,,,,,,,,,,,,,,,,,,,,,,,,,,,,,,,,,,,,,,,,,,,,,,,,,,,,,,,,,,,,,,,,,,,,,,,,
,,,,,,,,,,,,5e70491f899f5e63073e7fd4,24,Kobieta,2022-06-11_09h31.34.572,task,2021.1.4,MacIntel,59.99880002,6299f149e92ead563fba08ef,62a443f71c22fcf20a4ace66,mvwhlzh,"[""m"",""v"",""w"",""h"",""l"",""z"",""h""]","[1.9041000000238455,2.2241000000238387,3.683100000023842,3.849800000011925,4.2684000000357685,4.566400000035742,5.077200000047668,5.932300000011907]",1,MVWHLZH,12,0,12,0,1,,,,,,,,,,,,,,,,,,,,,,,,,,,,,,,,,,,,,,,,,,,,,,,,,,,,,,,,,,,,,,,,,,,,,,,,,,,,,,,,,,,,,,,,,,,
,,,,,,0,0,0,0,1,X V Q F H G B L J M P D K C T S W R N Z,5e70491f899f5e63073e7fd4,24,Kobieta,2022-06-11_09h31.34.572,task,2021.1.4,MacIntel,59.99880002,6299f149e92ead563fba08ef,62a443f71c22fcf20a4ace66,,,,,,,,,,,,,,,,,,,,,,,,,,,,,,,,,,,,,,,,,,,,,,,,,,,,,,,,,,,,,,,,,,,,,,,,,,,,,,,,,,,,,,,,,,,,,,,,,,,,,
,,,,,,1,0,1,0,1,X V Q F H G B L J M P D K C T S W R N Z,5e70491f899f5e63073e7fd4,24,Kobieta,2022-06-11_09h31.34.572,task,2021.1.4,MacIntel,59.99880002,6299f149e92ead563fba08ef,62a443f71c22fcf20a4ace66,,,,,,,,,,,,,,,,,,,,,,,,,,,,,,,,,,,,,,,,,,,,,,,,,,,,,,,,,,,,,,,,,,,,,,,,,,,,,,,,,,,,,,,,,,,,,,,,,,,,,
,,,,,,2,0,2,0,1,X V Q F H G B L J M P D K C T S W R N Z,5e70491f899f5e63073e7fd4,24,Kobieta,2022-06-11_09h31.34.572,task,2021.1.4,MacIntel,59.99880002,6299f149e92ead563fba08ef,62a443f71c22fcf20a4ace66,,,,,,,,,,,,,,,,,,,,,,,,,,,,,,,,,,,,,,,,,,,,,,,,,,,,,,,,,,,,,,,,,,,,,,,,,,,,,,,,,,,,,,,,,,,,,,,,,,,,,
,,,,,,3,0,3,0,1,X V Q F H G B L J M P D K C T S W R N Z,5e70491f899f5e63073e7fd4,24,Kobieta,2022-06-11_09h31.34.572,task,2021.1.4,MacIntel,59.99880002,6299f149e92ead563fba08ef,62a443f71c22fcf20a4ace66,,,,,,,,,,,,,,,,,,,,,,,,,,,,,,,,,,,,,,,,,,,,,,,,,,,,,,,,,,,,,,,,,,,,,,,,,,,,,,,,,,,,,,,,,,,,,,,,,,,,,
,,,,,,4,0,4,0,1,X V Q F H G B L J M P D K C T S W R N Z,5e70491f899f5e63073e7fd4,24,Kobieta,2022-06-11_09h31.34.572,task,2021.1.4,MacIntel,59.99880002,6299f149e92ead563fba08ef,62a443f71c22fcf20a4ace66,,,,,,,,,,,,,,,,,,,,,,,,,,,,,,,,,,,,,,,,,,,,,,,,,,,,,,,,,,,,,,,,,,,,,,,,,,,,,,,,,,,,,,,,,,,,,,,,,,,,,
,,,,,,5,0,5,0,1,X V Q F H G B L J M P D K C T S W R N Z,5e70491f899f5e63073e7fd4,24,Kobieta,2022-06-11_09h31.34.572,task,2021.1.4,MacIntel,59.99880002,6299f149e92ead563fba08ef,62a443f71c22fcf20a4ace66,,,,,,,,,,,,,,,,,,,,,,,,,,,,,,,,,,,,,,,,,,,,,,,,,,,,,,,,,,,,,,,,,,,,,,,,,,,,,,,,,,,,,,,,,,,,,,,,,,,,,
,,,,,,6,0,6,0,1,X V Q F H G B L J M P D K C T S W R N Z,5e70491f899f5e63073e7fd4,24,Kobieta,2022-06-11_09h31.34.572,task,2021.1.4,MacIntel,59.99880002,6299f149e92ead563fba08ef,62a443f71c22fcf20a4ace66,,,,,,,,,,,,,,,,,,,,,,,,,,,,,,,,,,,,,,,,,,,,,,,,,,,,,,,,,,,,,,,,,,,,,,,,,,,,,,,,,,,,,,,,,,,,,,,,,,,,,
,,,,,,,,,,,,5e70491f899f5e63073e7fd4,24,Kobieta,2022-06-11_09h31.34.572,task,2021.1.4,MacIntel,59.99880002,6299f149e92ead563fba08ef,62a443f71c22fcf20a4ace66,zrjsffq,"[""z"",""r"",""j"",""s"",""f"",""f"",""q""]","[1.8004999999999995,2.1014999999999873,2.5384000000357503,8.833699999988085,9.124400000035763,9.305199999988076,9.752999999999986,10.559199999988067]",1,ZRJSFFQ,13,0,13,0,1,,,,,,,,,,,,,,,,,,,,,,,,,,,,,,,,,,,,,,,,,,,,,,,,,,,,,,,,,,,,,,,,,,,,,,,,,,,,,,,,,,,,,,,,,,,
,,,,,,0,0,0,0,1,X V Q F H G B L J M P D K C T S W R N Z,5e70491f899f5e63073e7fd4,24,Kobieta,2022-06-11_09h31.34.572,task,2021.1.4,MacIntel,59.99880002,6299f149e92ead563fba08ef,62a443f71c22fcf20a4ace66,,,,,,,,,,,,,,,,,,,,,,,,,,,,,,,,,,,,,,,,,,,,,,,,,,,,,,,,,,,,,,,,,,,,,,,,,,,,,,,,,,,,,,,,,,,,,,,,,,,,,
,,,,,,1,0,1,0,1,X V Q F H G B L J M P D K C T S W R N Z,5e70491f899f5e63073e7fd4,24,Kobieta,2022-06-11_09h31.34.572,task,2021.1.4,MacIntel,59.99880002,6299f149e92ead563fba08ef,62a443f71c22fcf20a4ace66,,,,,,,,,,,,,,,,,,,,,,,,,,,,,,,,,,,,,,,,,,,,,,,,,,,,,,,,,,,,,,,,,,,,,,,,,,,,,,,,,,,,,,,,,,,,,,,,,,,,,
,,,,,,2,0,2,0,1,X V Q F H G B L J M P D K C T S W R N Z,5e70491f899f5e63073e7fd4,24,Kobieta,2022-06-11_09h31.34.572,task,2021.1.4,MacIntel,59.99880002,6299f149e92ead563fba08ef,62a443f71c22fcf20a4ace66,,,,,,,,,,,,,,,,,,,,,,,,,,,,,,,,,,,,,,,,,,,,,,,,,,,,,,,,,,,,,,,,,,,,,,,,,,,,,,,,,,,,,,,,,,,,,,,,,,,,,
,,,,,,3,0,3,0,1,X V Q F H G B L J M P D K C T S W R N Z,5e70491f899f5e63073e7fd4,24,Kobieta,2022-06-11_09h31.34.572,task,2021.1.4,MacIntel,59.99880002,6299f149e92ead563fba08ef,62a443f71c22fcf20a4ace66,,,,,,,,,,,,,,,,,,,,,,,,,,,,,,,,,,,,,,,,,,,,,,,,,,,,,,,,,,,,,,,,,,,,,,,,,,,,,,,,,,,,,,,,,,,,,,,,,,,,,
,,,,,,4,0,4,0,1,X V Q F H G B L J M P D K C T S W R N Z,5e70491f899f5e63073e7fd4,24,Kobieta,2022-06-11_09h31.34.572,task,2021.1.4,MacIntel,59.99880002,6299f149e92ead563fba08ef,62a443f71c22fcf20a4ace66,,,,,,,,,,,,,,,,,,,,,,,,,,,,,,,,,,,,,,,,,,,,,,,,,,,,,,,,,,,,,,,,,,,,,,,,,,,,,,,,,,,,,,,,,,,,,,,,,,,,,
,,,,,,5,0,5,0,1,X V Q F H G B L J M P D K C T S W R N Z,5e70491f899f5e63073e7fd4,24,Kobieta,2022-06-11_09h31.34.572,task,2021.1.4,MacIntel,59.99880002,6299f149e92ead563fba08ef,62a443f71c22fcf20a4ace66,,,,,,,,,,,,,,,,,,,,,,,,,,,,,,,,,,,,,,,,,,,,,,,,,,,,,,,,,,,,,,,,,,,,,,,,,,,,,,,,,,,,,,,,,,,,,,,,,,,,,
,,,,,,6,0,6,0,1,X V Q F H G B L J M P D K C T S W R N Z,5e70491f899f5e63073e7fd4,24,Kobieta,2022-06-11_09h31.34.572,task,2021.1.4,MacIntel,59.99880002,6299f149e92ead563fba08ef,62a443f71c22fcf20a4ace66,,,,,,,,,,,,,,,,,,,,,,,,,,,,,,,,,,,,,,,,,,,,,,,,,,,,,,,,,,,,,,,,,,,,,,,,,,,,,,,,,,,,,,,,,,,,,,,,,,,,,
,,,,,,7,0,7,0,1,X V Q F H G B L J M P D K C T S W R N Z,5e70491f899f5e63073e7fd4,24,Kobieta,2022-06-11_09h31.34.572,task,2021.1.4,MacIntel,59.99880002,6299f149e92ead563fba08ef,62a443f71c22fcf20a4ace66,,,,,,,,,,,,,,,,,,,,,,,,,,,,,,,,,,,,,,,,,,,,,,,,,,,,,,,,,,,,,,,,,,,,,,,,,,,,,,,,,,,,,,,,,,,,,,,,,,,,,
,,,,,,,,,,,,5e70491f899f5e63073e7fd4,24,Kobieta,2022-06-11_09h31.34.572,task,2021.1.4,MacIntel,59.99880002,6299f149e92ead563fba08ef,62a443f71c22fcf20a4ace66,bhlxcj,"[""b"",""h"",""l"",""x"",""c"",""j""]","[1.0756000000238544,1.6023000000119225,2.2018000000119287,2.8997000000476874,4.115900000035765,4.751700000047691,6.991400000035753]",0,BHLXGXCJ,14,0,14,0,1,,,,,,,,,,,,,,,,,,,,,,,,,,,,,,,,,,,,,,,,,,,,,,,,,,,,,,,,,,,,,,,,,,,,,,,,,,,,,,,,,,,,,,,,,,,
,,,,,,0,0,0,0,1,X V Q F H G B L J M P D K C T S W R N Z,5e70491f899f5e63073e7fd4,24,Kobieta,2022-06-11_09h31.34.572,task,2021.1.4,MacIntel,59.99880002,6299f149e92ead563fba08ef,62a443f71c22fcf20a4ace66,,,,,,,,,,,,,,,,,,,,,,,,,,,,,,,,,,,,,,,,,,,,,,,,,,,,,,,,,,,,,,,,,,,,,,,,,,,,,,,,,,,,,,,,,,,,,,,,,,,,,
,,,,,,1,0,1,0,1,X V Q F H G B L J M P D K C T S W R N Z,5e70491f899f5e63073e7fd4,24,Kobieta,2022-06-11_09h31.34.572,task,2021.1.4,MacIntel,59.99880002,6299f149e92ead563fba08ef,62a443f71c22fcf20a4ace66,,,,,,,,,,,,,,,,,,,,,,,,,,,,,,,,,,,,,,,,,,,,,,,,,,,,,,,,,,,,,,,,,,,,,,,,,,,,,,,,,,,,,,,,,,,,,,,,,,,,,
,,,,,,2,0,2,0,1,X V Q F H G B L J M P D K C T S W R N Z,5e70491f899f5e63073e7fd4,24,Kobieta,2022-06-11_09h31.34.572,task,2021.1.4,MacIntel,59.99880002,6299f149e92ead563fba08ef,62a443f71c22fcf20a4ace66,,,,,,,,,,,,,,,,,,,,,,,,,,,,,,,,,,,,,,,,,,,,,,,,,,,,,,,,,,,,,,,,,,,,,,,,,,,,,,,,,,,,,,,,,,,,,,,,,,,,,
,,,,,,3,0,3,0,1,X V Q F H G B L J M P D K C T S W R N Z,5e70491f899f5e63073e7fd4,24,Kobieta,2022-06-11_09h31.34.572,task,2021.1.4,MacIntel,59.99880002,6299f149e92ead563fba08ef,62a443f71c22fcf20a4ace66,,,,,,,,,,,,,,,,,,,,,,,,,,,,,,,,,,,,,,,,,,,,,,,,,,,,,,,,,,,,,,,,,,,,,,,,,,,,,,,,,,,,,,,,,,,,,,,,,,,,,
,,,,,,4,0,4,0,1,X V Q F H G B L J M P D K C T S W R N Z,5e70491f899f5e63073e7fd4,24,Kobieta,2022-06-11_09h31.34.572,task,2021.1.4,MacIntel,59.99880002,6299f149e92ead563fba08ef,62a443f71c22fcf20a4ace66,,,,,,,,,,,,,,,,,,,,,,,,,,,,,,,,,,,,,,,,,,,,,,,,,,,,,,,,,,,,,,,,,,,,,,,,,,,,,,,,,,,,,,,,,,,,,,,,,,,,,
,,,,,,5,0,5,0,1,X V Q F H G B L J M P D K C T S W R N Z,5e70491f899f5e63073e7fd4,24,Kobieta,2022-06-11_09h31.34.572,task,2021.1.4,MacIntel,59.99880002,6299f149e92ead563fba08ef,62a443f71c22fcf20a4ace66,,,,,,,,,,,,,,,,,,,,,,,,,,,,,,,,,,,,,,,,,,,,,,,,,,,,,,,,,,,,,,,,,,,,,,,,,,,,,,,,,,,,,,,,,,,,,,,,,,,,,
,,,,,,6,0,6,0,1,X V Q F H G B L J M P D K C T S W R N Z,5e70491f899f5e63073e7fd4,24,Kobieta,2022-06-11_09h31.34.572,task,2021.1.4,MacIntel,59.99880002,6299f149e92ead563fba08ef,62a443f71c22fcf20a4ace66,,,,,,,,,,,,,,,,,,,,,,,,,,,,,,,,,,,,,,,,,,,,,,,,,,,,,,,,,,,,,,,,,,,,,,,,,,,,,,,,,,,,,,,,,,,,,,,,,,,,,
,,,,,,7,0,7,0,1,X V Q F H G B L J M P D K C T S W R N Z,5e70491f899f5e63073e7fd4,24,Kobieta,2022-06-11_09h31.34.572,task,2021.1.4,MacIntel,59.99880002,6299f149e92ead563fba08ef,62a443f71c22fcf20a4ace66,,,,,,,,,,,,,,,,,,,,,,,,,,,,,,,,,,,,,,,,,,,,,,,,,,,,,,,,,,,,,,,,,,,,,,,,,,,,,,,,,,,,,,,,,,,,,,,,,,,,,
,,,,,,,,,,,,5e70491f899f5e63073e7fd4,24,Kobieta,2022-06-11_09h31.34.572,task,2021.1.4,MacIntel,59.99880002,6299f149e92ead563fba08ef,62a443f71c22fcf20a4ace66,zjxhrzmc,"[""z"",""j"",""x"",""h"",""r"",""z"",""m"",""c""]","[1.1372999999523188,1.3906999999880725,2.0351999999880945,2.403399999976159,2.7873999999761736,3.1690999999642315,3.4724999999999966,3.8005999999642484,4.983799999952311]",1,ZJXHRZMC,15,0,15,0,1,,,,,,,,,,,,,,,,,,,,,,,,,,,,,,,,,,,,,,,,,,,,,,,,,,,,,,,,,,,,,,,,,,,,,,,,,,,,,,,,,,,,,,,,,,,
,,,,,,0,0,0,0,1,X V Q F H G B L J M P D K C T S W R N Z,5e70491f899f5e63073e7fd4,24,Kobieta,2022-06-11_09h31.34.572,task,2021.1.4,MacIntel,59.99880002,6299f149e92ead563fba08ef,62a443f71c22fcf20a4ace66,,,,,,,,,,,,,,,,,,,,,,,,,,,,,,,,,,,,,,,,,,,,,,,,,,,,,,,,,,,,,,,,,,,,,,,,,,,,,,,,,,,,,,,,,,,,,,,,,,,,,
,,,,,,1,0,1,0,1,X V Q F H G B L J M P D K C T S W R N Z,5e70491f899f5e63073e7fd4,24,Kobieta,2022-06-11_09h31.34.572,task,2021.1.4,MacIntel,59.99880002,6299f149e92ead563fba08ef,62a443f71c22fcf20a4ace66,,,,,,,,,,,,,,,,,,,,,,,,,,,,,,,,,,,,,,,,,,,,,,,,,,,,,,,,,,,,,,,,,,,,,,,,,,,,,,,,,,,,,,,,,,,,,,,,,,,,,
,,,,,,2,0,2,0,1,X V Q F H G B L J M P D K C T S W R N Z,5e70491f899f5e63073e7fd4,24,Kobieta,2022-06-11_09h31.34.572,task,2021.1.4,MacIntel,59.99880002,6299f149e92ead563fba08ef,62a443f71c22fcf20a4ace66,,,,,,,,,,,,,,,,,,,,,,,,,,,,,,,,,,,,,,,,,,,,,,,,,,,,,,,,,,,,,,,,,,,,,,,,,,,,,,,,,,,,,,,,,,,,,,,,,,,,,
,,,,,,3,0,3,0,1,X V Q F H G B L J M P D K C T S W R N Z,5e70491f899f5e63073e7fd4,24,Kobieta,2022-06-11_09h31.34.572,task,2021.1.4,MacIntel,59.99880002,6299f149e92ead563fba08ef,62a443f71c22fcf20a4ace66,,,,,,,,,,,,,,,,,,,,,,,,,,,,,,,,,,,,,,,,,,,,,,,,,,,,,,,,,,,,,,,,,,,,,,,,,,,,,,,,,,,,,,,,,,,,,,,,,,,,,
,,,,,,4,0,4,0,1,X V Q F H G B L J M P D K C T S W R N Z,5e70491f899f5e63073e7fd4,24,Kobieta,2022-06-11_09h31.34.572,task,2021.1.4,MacIntel,59.99880002,6299f149e92ead563fba08ef,62a443f71c22fcf20a4ace66,,,,,,,,,,,,,,,,,,,,,,,,,,,,,,,,,,,,,,,,,,,,,,,,,,,,,,,,,,,,,,,,,,,,,,,,,,,,,,,,,,,,,,,,,,,,,,,,,,,,,
,,,,,,5,0,5,0,1,X V Q F H G B L J M P D K C T S W R N Z,5e70491f899f5e63073e7fd4,24,Kobieta,2022-06-11_09h31.34.572,task,2021.1.4,MacIntel,59.99880002,6299f149e92ead563fba08ef,62a443f71c22fcf20a4ace66,,,,,,,,,,,,,,,,,,,,,,,,,,,,,,,,,,,,,,,,,,,,,,,,,,,,,,,,,,,,,,,,,,,,,,,,,,,,,,,,,,,,,,,,,,,,,,,,,,,,,
,,,,,,6,0,6,0,1,X V Q F H G B L J M P D K C T S W R N Z,5e70491f899f5e63073e7fd4,24,Kobieta,2022-06-11_09h31.34.572,task,2021.1.4,MacIntel,59.99880002,6299f149e92ead563fba08ef,62a443f71c22fcf20a4ace66,,,,,,,,,,,,,,,,,,,,,,,,,,,,,,,,,,,,,,,,,,,,,,,,,,,,,,,,,,,,,,,,,,,,,,,,,,,,,,,,,,,,,,,,,,,,,,,,,,,,,
,,,,,,7,0,7,0,1,X V Q F H G B L J M P D K C T S W R N Z,5e70491f899f5e63073e7fd4,24,Kobieta,2022-06-11_09h31.34.572,task,2021.1.4,MacIntel,59.99880002,6299f149e92ead563fba08ef,62a443f71c22fcf20a4ace66,,,,,,,,,,,,,,,,,,,,,,,,,,,,,,,,,,,,,,,,,,,,,,,,,,,,,,,,,,,,,,,,,,,,,,,,,,,,,,,,,,,,,,,,,,,,,,,,,,,,,
,,,,,,,,,,,,5e70491f899f5e63073e7fd4,24,Kobieta,2022-06-11_09h31.34.572,task,2021.1.4,MacIntel,59.99880002,6299f149e92ead563fba08ef,62a443f71c22fcf20a4ace66,mwnzcxkm,"[""m"",""w"",""n"",""z"",""c"",""x"",""k"",""m""]","[2.267799999952331,2.533099999964236,2.934000000000026,3.9700000000000273,4.711599999964221,5.801499999999976,6.439999999999998,6.7851999999880945,7.59059999996424]",1,MWNZCXKM,16,0,16,0,1,,,,,,,,,,,,,,,,,,,,,,,,,,,,,,,,,,,,,,,,,,,,,,,,,,,,,,,,,,,,,,,,,,,,,,,,,,,,,,,,,,,,,,,,,,,
,,,,,,0,0,0,0,1,X V Q F H G B L J M P D K C T S W R N Z,5e70491f899f5e63073e7fd4,24,Kobieta,2022-06-11_09h31.34.572,task,2021.1.4,MacIntel,59.99880002,6299f149e92ead563fba08ef,62a443f71c22fcf20a4ace66,,,,,,,,,,,,,,,,,,,,,,,,,,,,,,,,,,,,,,,,,,,,,,,,,,,,,,,,,,,,,,,,,,,,,,,,,,,,,,,,,,,,,,,,,,,,,,,,,,,,,
,,,,,,1,0,1,0,1,X V Q F H G B L J M P D K C T S W R N Z,5e70491f899f5e63073e7fd4,24,Kobieta,2022-06-11_09h31.34.572,task,2021.1.4,MacIntel,59.99880002,6299f149e92ead563fba08ef,62a443f71c22fcf20a4ace66,,,,,,,,,,,,,,,,,,,,,,,,,,,,,,,,,,,,,,,,,,,,,,,,,,,,,,,,,,,,,,,,,,,,,,,,,,,,,,,,,,,,,,,,,,,,,,,,,,,,,
,,,,,,2,0,2,0,1,X V Q F H G B L J M P D K C T S W R N Z,5e70491f899f5e63073e7fd4,24,Kobieta,2022-06-11_09h31.34.572,task,2021.1.4,MacIntel,59.99880002,6299f149e92ead563fba08ef,62a443f71c22fcf20a4ace66,,,,,,,,,,,,,,,,,,,,,,,,,,,,,,,,,,,,,,,,,,,,,,,,,,,,,,,,,,,,,,,,,,,,,,,,,,,,,,,,,,,,,,,,,,,,,,,,,,,,,
,,,,,,3,0,3,0,1,X V Q F H G B L J M P D K C T S W R N Z,5e70491f899f5e63073e7fd4,24,Kobieta,2022-06-11_09h31.34.572,task,2021.1.4,MacIntel,59.99880002,6299f149e92ead563fba08ef,62a443f71c22fcf20a4ace66,,,,,,,,,,,,,,,,,,,,,,,,,,,,,,,,,,,,,,,,,,,,,,,,,,,,,,,,,,,,,,,,,,,,,,,,,,,,,,,,,,,,,,,,,,,,,,,,,,,,,
,,,,,,4,0,4,0,1,X V Q F H G B L J M P D K C T S W R N Z,5e70491f899f5e63073e7fd4,24,Kobieta,2022-06-11_09h31.34.572,task,2021.1.4,MacIntel,59.99880002,6299f149e92ead563fba08ef,62a443f71c22fcf20a4ace66,,,,,,,,,,,,,,,,,,,,,,,,,,,,,,,,,,,,,,,,,,,,,,,,,,,,,,,,,,,,,,,,,,,,,,,,,,,,,,,,,,,,,,,,,,,,,,,,,,,,,
,,,,,,5,0,5,0,1,X V Q F H G B L J M P D K C T S W R N Z,5e70491f899f5e63073e7fd4,24,Kobieta,2022-06-11_09h31.34.572,task,2021.1.4,MacIntel,59.99880002,6299f149e92ead563fba08ef,62a443f71c22fcf20a4ace66,,,,,,,,,,,,,,,,,,,,,,,,,,,,,,,,,,,,,,,,,,,,,,,,,,,,,,,,,,,,,,,,,,,,,,,,,,,,,,,,,,,,,,,,,,,,,,,,,,,,,
,,,,,,6,0,6,0,1,X V Q F H G B L J M P D K C T S W R N Z,5e70491f899f5e63073e7fd4,24,Kobieta,2022-06-11_09h31.34.572,task,2021.1.4,MacIntel,59.99880002,6299f149e92ead563fba08ef,62a443f71c22fcf20a4ace66,,,,,,,,,,,,,,,,,,,,,,,,,,,,,,,,,,,,,,,,,,,,,,,,,,,,,,,,,,,,,,,,,,,,,,,,,,,,,,,,,,,,,,,,,,,,,,,,,,,,,
,,,,,,7,0,7,0,1,X V Q F H G B L J M P D K C T S W R N Z,5e70491f899f5e63073e7fd4,24,Kobieta,2022-06-11_09h31.34.572,task,2021.1.4,MacIntel,59.99880002,6299f149e92ead563fba08ef,62a443f71c22fcf20a4ace66,,,,,,,,,,,,,,,,,,,,,,,,,,,,,,,,,,,,,,,,,,,,,,,,,,,,,,,,,,,,,,,,,,,,,,,,,,,,,,,,,,,,,,,,,,,,,,,,,,,,,
,,,,,,8,0,8,0,1,X V Q F H G B L J M P D K C T S W R N Z,5e70491f899f5e63073e7fd4,24,Kobieta,2022-06-11_09h31.34.572,task,2021.1.4,MacIntel,59.99880002,6299f149e92ead563fba08ef,62a443f71c22fcf20a4ace66,,,,,,,,,,,,,,,,,,,,,,,,,,,,,,,,,,,,,,,,,,,,,,,,,,,,,,,,,,,,,,,,,,,,,,,,,,,,,,,,,,,,,,,,,,,,,,,,,,,,,
,,,,,,,,,,,,5e70491f899f5e63073e7fd4,24,Kobieta,2022-06-11_09h31.34.572,task,2021.1.4,MacIntel,59.99880002,6299f149e92ead563fba08ef,62a443f71c22fcf20a4ace66,pbfktmbpc,"[""p"",""b"",""f"",""k"",""t"",""m"",""b"",""p"",""c""]","[0.6678999999761572,0.943099999964204,1.367099999964239,1.854899999976169,2.283599999964224,2.649000000000001,8.060099999964223,8.315999999999974,8.569099999964237,9.14929999995229]",0,PBFKTMDPC,17,0,17,0,1,,,,,,,,,,,,,,,,,,,,,,,,,,,,,,,,,,,,,,,,,,,,,,,,,,,,,,,,,,,,,,,,,,,,,,,,,,,,,,,,,,,,,,,,,,,
,,,,,,0,0,0,0,1,X V Q F H G B L J M P D K C T S W R N Z,5e70491f899f5e63073e7fd4,24,Kobieta,2022-06-11_09h31.34.572,task,2021.1.4,MacIntel,59.99880002,6299f149e92ead563fba08ef,62a443f71c22fcf20a4ace66,,,,,,,,,,,,,,,,,,,,,,,,,,,,,,,,,,,,,,,,,,,,,,,,,,,,,,,,,,,,,,,,,,,,,,,,,,,,,,,,,,,,,,,,,,,,,,,,,,,,,
,,,,,,1,0,1,0,1,X V Q F H G B L J M P D K C T S W R N Z,5e70491f899f5e63073e7fd4,24,Kobieta,2022-06-11_09h31.34.572,task,2021.1.4,MacIntel,59.99880002,6299f149e92ead563fba08ef,62a443f71c22fcf20a4ace66,,,,,,,,,,,,,,,,,,,,,,,,,,,,,,,,,,,,,,,,,,,,,,,,,,,,,,,,,,,,,,,,,,,,,,,,,,,,,,,,,,,,,,,,,,,,,,,,,,,,,
,,,,,,2,0,2,0,1,X V Q F H G B L J M P D K C T S W R N Z,5e70491f899f5e63073e7fd4,24,Kobieta,2022-06-11_09h31.34.572,task,2021.1.4,MacIntel,59.99880002,6299f149e92ead563fba08ef,62a443f71c22fcf20a4ace66,,,,,,,,,,,,,,,,,,,,,,,,,,,,,,,,,,,,,,,,,,,,,,,,,,,,,,,,,,,,,,,,,,,,,,,,,,,,,,,,,,,,,,,,,,,,,,,,,,,,,
,,,,,,3,0,3,0,1,X V Q F H G B L J M P D K C T S W R N Z,5e70491f899f5e63073e7fd4,24,Kobieta,2022-06-11_09h31.34.572,task,2021.1.4,MacIntel,59.99880002,6299f149e92ead563fba08ef,62a443f71c22fcf20a4ace66,,,,,,,,,,,,,,,,,,,,,,,,,,,,,,,,,,,,,,,,,,,,,,,,,,,,,,,,,,,,,,,,,,,,,,,,,,,,,,,,,,,,,,,,,,,,,,,,,,,,,
,,,,,,4,0,4,0,1,X V Q F H G B L J M P D K C T S W R N Z,5e70491f899f5e63073e7fd4,24,Kobieta,2022-06-11_09h31.34.572,task,2021.1.4,MacIntel,59.99880002,6299f149e92ead563fba08ef,62a443f71c22fcf20a4ace66,,,,,,,,,,,,,,,,,,,,,,,,,,,,,,,,,,,,,,,,,,,,,,,,,,,,,,,,,,,,,,,,,,,,,,,,,,,,,,,,,,,,,,,,,,,,,,,,,,,,,
,,,,,,5,0,5,0,1,X V Q F H G B L J M P D K C T S W R N Z,5e70491f899f5e63073e7fd4,24,Kobieta,2022-06-11_09h31.34.572,task,2021.1.4,MacIntel,59.99880002,6299f149e92ead563fba08ef,62a443f71c22fcf20a4ace66,,,,,,,,,,,,,,,,,,,,,,,,,,,,,,,,,,,,,,,,,,,,,,,,,,,,,,,,,,,,,,,,,,,,,,,,,,,,,,,,,,,,,,,,,,,,,,,,,,,,,
,,,,,,6,0,6,0,1,X V Q F H G B L J M P D K C T S W R N Z,5e70491f899f5e63073e7fd4,24,Kobieta,2022-06-11_09h31.34.572,task,2021.1.4,MacIntel,59.99880002,6299f149e92ead563fba08ef,62a443f71c22fcf20a4ace66,,,,,,,,,,,,,,,,,,,,,,,,,,,,,,,,,,,,,,,,,,,,,,,,,,,,,,,,,,,,,,,,,,,,,,,,,,,,,,,,,,,,,,,,,,,,,,,,,,,,,
,,,,,,7,0,7,0,1,X V Q F H G B L J M P D K C T S W R N Z,5e70491f899f5e63073e7fd4,24,Kobieta,2022-06-11_09h31.34.572,task,2021.1.4,MacIntel,59.99880002,6299f149e92ead563fba08ef,62a443f71c22fcf20a4ace66,,,,,,,,,,,,,,,,,,,,,,,,,,,,,,,,,,,,,,,,,,,,,,,,,,,,,,,,,,,,,,,,,,,,,,,,,,,,,,,,,,,,,,,,,,,,,,,,,,,,,
,,,,,,8,0,8,0,1,X V Q F H G B L J M P D K C T S W R N Z,5e70491f899f5e63073e7fd4,24,Kobieta,2022-06-11_09h31.34.572,task,2021.1.4,MacIntel,59.99880002,6299f149e92ead563fba08ef,62a443f71c22fcf20a4ace66,,,,,,,,,,,,,,,,,,,,,,,,,,,,,,,,,,,,,,,,,,,,,,,,,,,,,,,,,,,,,,,,,,,,,,,,,,,,,,,,,,,,,,,,,,,,,,,,,,,,,
,,,,,,,,,,,,5e70491f899f5e63073e7fd4,24,Kobieta,2022-06-11_09h31.34.572,task,2021.1.4,MacIntel,59.99880002,6299f149e92ead563fba08ef,62a443f71c22fcf20a4ace66,hgqpgxnct,"[""h"",""g"",""q"",""p"",""g"",""x"",""n"",""c"",""t""]","[0.5996999999881041,0.8173999999762032,1.2160000000000082,1.9853000000119323,2.4026999999881014,3.0173000000119146,3.472500000000025,3.850099999964243,4.169500000000028,5.055399999976203]",1,HGQPGXNCT,18,0,18,0,1,,,,,,,,,,,,,,,,,,,,,,,,,,,,,,,,,,,,,,,,,,,,,,,,,,,,,,,,,,,,,,,,,,,,,,,,,,,,,,,,,,,,,,,,,,,
,,,,,,0,0,0,0,1,X V Q F H G B L J M P D K C T S W R N Z,5e70491f899f5e63073e7fd4,24,Kobieta,2022-06-11_09h31.34.572,task,2021.1.4,MacIntel,59.99880002,6299f149e92ead563fba08ef,62a443f71c22fcf20a4ace66,,,,,,,,,,,,,,,,,,,,,,,,,,,,,,,,,,,,,,,,,,,,,,,,,,,,,,,,,,,,,,,,,,,,,,,,,,,,,,,,,,,,,,,,,,,,,,,,,,,,,
,,,,,,1,0,1,0,1,X V Q F H G B L J M P D K C T S W R N Z,5e70491f899f5e63073e7fd4,24,Kobieta,2022-06-11_09h31.34.572,task,2021.1.4,MacIntel,59.99880002,6299f149e92ead563fba08ef,62a443f71c22fcf20a4ace66,,,,,,,,,,,,,,,,,,,,,,,,,,,,,,,,,,,,,,,,,,,,,,,,,,,,,,,,,,,,,,,,,,,,,,,,,,,,,,,,,,,,,,,,,,,,,,,,,,,,,
,,,,,,2,0,2,0,1,X V Q F H G B L J M P D K C T S W R N Z,5e70491f899f5e63073e7fd4,24,Kobieta,2022-06-11_09h31.34.572,task,2021.1.4,MacIntel,59.99880002,6299f149e92ead563fba08ef,62a443f71c22fcf20a4ace66,,,,,,,,,,,,,,,,,,,,,,,,,,,,,,,,,,,,,,,,,,,,,,,,,,,,,,,,,,,,,,,,,,,,,,,,,,,,,,,,,,,,,,,,,,,,,,,,,,,,,
,,,,,,3,0,3,0,1,X V Q F H G B L J M P D K C T S W R N Z,5e70491f899f5e63073e7fd4,24,Kobieta,2022-06-11_09h31.34.572,task,2021.1.4,MacIntel,59.99880002,6299f149e92ead563fba08ef,62a443f71c22fcf20a4ace66,,,,,,,,,,,,,,,,,,,,,,,,,,,,,,,,,,,,,,,,,,,,,,,,,,,,,,,,,,,,,,,,,,,,,,,,,,,,,,,,,,,,,,,,,,,,,,,,,,,,,
,,,,,,4,0,4,0,1,X V Q F H G B L J M P D K C T S W R N Z,5e70491f899f5e63073e7fd4,24,Kobieta,2022-06-11_09h31.34.572,task,2021.1.4,MacIntel,59.99880002,6299f149e92ead563fba08ef,62a443f71c22fcf20a4ace66,,,,,,,,,,,,,,,,,,,,,,,,,,,,,,,,,,,,,,,,,,,,,,,,,,,,,,,,,,,,,,,,,,,,,,,,,,,,,,,,,,,,,,,,,,,,,,,,,,,,,
,,,,,,5,0,5,0,1,X V Q F H G B L J M P D K C T S W R N Z,5e70491f899f5e63073e7fd4,24,Kobieta,2022-06-11_09h31.34.572,task,2021.1.4,MacIntel,59.99880002,6299f149e92ead563fba08ef,62a443f71c22fcf20a4ace66,,,,,,,,,,,,,,,,,,,,,,,,,,,,,,,,,,,,,,,,,,,,,,,,,,,,,,,,,,,,,,,,,,,,,,,,,,,,,,,,,,,,,,,,,,,,,,,,,,,,,
,,,,,,6,0,6,0,1,X V Q F H G B L J M P D K C T S W R N Z,5e70491f899f5e63073e7fd4,24,Kobieta,2022-06-11_09h31.34.572,task,2021.1.4,MacIntel,59.99880002,6299f149e92ead563fba08ef,62a443f71c22fcf20a4ace66,,,,,,,,,,,,,,,,,,,,,,,,,,,,,,,,,,,,,,,,,,,,,,,,,,,,,,,,,,,,,,,,,,,,,,,,,,,,,,,,,,,,,,,,,,,,,,,,,,,,,
,,,,,,7,0,7,0,1,X V Q F H G B L J M P D K C T S W R N Z,5e70491f899f5e63073e7fd4,24,Kobieta,2022-06-11_09h31.34.572,task,2021.1.4,MacIntel,59.99880002,6299f149e92ead563fba08ef,62a443f71c22fcf20a4ace66,,,,,,,,,,,,,,,,,,,,,,,,,,,,,,,,,,,,,,,,,,,,,,,,,,,,,,,,,,,,,,,,,,,,,,,,,,,,,,,,,,,,,,,,,,,,,,,,,,,,,
,,,,,,8,0,8,0,1,X V Q F H G B L J M P D K C T S W R N Z,5e70491f899f5e63073e7fd4,24,Kobieta,2022-06-11_09h31.34.572,task,2021.1.4,MacIntel,59.99880002,6299f149e92ead563fba08ef,62a443f71c22fcf20a4ace66,,,,,,,,,,,,,,,,,,,,,,,,,,,,,,,,,,,,,,,,,,,,,,,,,,,,,,,,,,,,,,,,,,,,,,,,,,,,,,,,,,,,,,,,,,,,,,,,,,,,,
,,,,,,,,,,,,5e70491f899f5e63073e7fd4,24,Kobieta,2022-06-11_09h31.34.572,task,2021.1.4,MacIntel,59.99880002,6299f149e92ead563fba08ef,62a443f71c22fcf20a4ace66,dzhxnnkvp,"[""d"",""z"",""h"",""x"",""n"",""n"",""k"",""v"",""p""]","[0.840900000035731,1.016199999988089,1.29019999998809,2.2174999999999727,3.083499999999958,3.6141999999880454,7.303199999988067,7.833100000023819,8.032800000011889,8.660400000035736]",0,DZHXNNHVP,19,0,19,0,1,,,,,,,,,,,,,,,,,,,,,,,,,,,,,,,,,,,,,,,,,,,,,,,,,,,,,,,,,,,,,,,,,,,,,,,,,,,,,,,,,,,,,,,,,,,
,,,,,,0,0,0,0,1,X V Q F H G B L J M P D K C T S W R N Z,5e70491f899f5e63073e7fd4,24,Kobieta,2022-06-11_09h31.34.572,task,2021.1.4,MacIntel,59.99880002,6299f149e92ead563fba08ef,62a443f71c22fcf20a4ace66,,,,,,,,,,,,,,,,,,,,,,,,,,,,,,,,,,,,,,,,,,,,,,,,,,,,,,,,,,,,,,,,,,,,,,,,,,,,,,,,,,,,,,,,,,,,,,,,,,,,,
,,,,,,1,0,1,0,1,X V Q F H G B L J M P D K C T S W R N Z,5e70491f899f5e63073e7fd4,24,Kobieta,2022-06-11_09h31.34.572,task,2021.1.4,MacIntel,59.99880002,6299f149e92ead563fba08ef,62a443f71c22fcf20a4ace66,,,,,,,,,,,,,,,,,,,,,,,,,,,,,,,,,,,,,,,,,,,,,,,,,,,,,,,,,,,,,,,,,,,,,,,,,,,,,,,,,,,,,,,,,,,,,,,,,,,,,
,,,,,,2,0,2,0,1,X V Q F H G B L J M P D K C T S W R N Z,5e70491f899f5e63073e7fd4,24,Kobieta,2022-06-11_09h31.34.572,task,2021.1.4,MacIntel,59.99880002,6299f149e92ead563fba08ef,62a443f71c22fcf20a4ace66,,,,,,,,,,,,,,,,,,,,,,,,,,,,,,,,,,,,,,,,,,,,,,,,,,,,,,,,,,,,,,,,,,,,,,,,,,,,,,,,,,,,,,,,,,,,,,,,,,,,,
,,,,,,3,0,3,0,1,X V Q F H G B L J M P D K C T S W R N Z,5e70491f899f5e63073e7fd4,24,Kobieta,2022-06-11_09h31.34.572,task,2021.1.4,MacIntel,59.99880002,6299f149e92ead563fba08ef,62a443f71c22fcf20a4ace66,,,,,,,,,,,,,,,,,,,,,,,,,,,,,,,,,,,,,,,,,,,,,,,,,,,,,,,,,,,,,,,,,,,,,,,,,,,,,,,,,,,,,,,,,,,,,,,,,,,,,
,,,,,,4,0,4,0,1,X V Q F H G B L J M P D K C T S W R N Z,5e70491f899f5e63073e7fd4,24,Kobieta,2022-06-11_09h31.34.572,task,2021.1.4,MacIntel,59.99880002,6299f149e92ead563fba08ef,62a443f71c22fcf20a4ace66,,,,,,,,,,,,,,,,,,,,,,,,,,,,,,,,,,,,,,,,,,,,,,,,,,,,,,,,,,,,,,,,,,,,,,,,,,,,,,,,,,,,,,,,,,,,,,,,,,,,,
,,,,,,5,0,5,0,1,X V Q F H G B L J M P D K C T S W R N Z,5e70491f899f5e63073e7fd4,24,Kobieta,2022-06-11_09h31.34.572,task,2021.1.4,MacIntel,59.99880002,6299f149e92ead563fba08ef,62a443f71c22fcf20a4ace66,,,,,,,,,,,,,,,,,,,,,,,,,,,,,,,,,,,,,,,,,,,,,,,,,,,,,,,,,,,,,,,,,,,,,,,,,,,,,,,,,,,,,,,,,,,,,,,,,,,,,
,,,,,,6,0,6,0,1,X V Q F H G B L J M P D K C T S W R N Z,5e70491f899f5e63073e7fd4,24,Kobieta,2022-06-11_09h31.34.572,task,2021.1.4,MacIntel,59.99880002,6299f149e92ead563fba08ef,62a443f71c22fcf20a4ace66,,,,,,,,,,,,,,,,,,,,,,,,,,,,,,,,,,,,,,,,,,,,,,,,,,,,,,,,,,,,,,,,,,,,,,,,,,,,,,,,,,,,,,,,,,,,,,,,,,,,,
,,,,,,7,0,7,0,1,X V Q F H G B L J M P D K C T S W R N Z,5e70491f899f5e63073e7fd4,24,Kobieta,2022-06-11_09h31.34.572,task,2021.1.4,MacIntel,59.99880002,6299f149e92ead563fba08ef,62a443f71c22fcf20a4ace66,,,,,,,,,,,,,,,,,,,,,,,,,,,,,,,,,,,,,,,,,,,,,,,,,,,,,,,,,,,,,,,,,,,,,,,,,,,,,,,,,,,,,,,,,,,,,,,,,,,,,
,,,,,,8,0,8,0,1,X V Q F H G B L J M P D K C T S W R N Z,5e70491f899f5e63073e7fd4,24,Kobieta,2022-06-11_09h31.34.572,task,2021.1.4,MacIntel,59.99880002,6299f149e92ead563fba08ef,62a443f71c22fcf20a4ace66,,,,,,,,,,,,,,,,,,,,,,,,,,,,,,,,,,,,,,,,,,,,,,,,,,,,,,,,,,,,,,,,,,,,,,,,,,,,,,,,,,,,,,,,,,,,,,,,,,,,,
,,,,,,,,,,,,5e70491f899f5e63073e7fd4,24,Kobieta,2022-06-11_09h31.34.572,task,2021.1.4,MacIntel,59.99880002,6299f149e92ead563fba08ef,62a443f71c22fcf20a4ace66,vwsksjjvr,"[""v"",""w"",""s"",""k"",""s"",""j"",""j"",""v"",""r""]","[1.189699999988079,1.4672999999522744,1.882399999976144,2.298399999976141,2.797699999988083,3.1556999999880873,3.4161999999880663,6.200999999999965,6.609799999952315,7.320499999999981]",0,VWSKSJJHR,20,0,20,0,1,,,,,,,,,,,,,,,,,,,,,,,,,,,,,,,,,,,,,,,,,,,,,,,,,,,,,,,,,,,,,,,,,,,,,,,,,,,,,,,,,,,,,,,,,,,
,,,,,,,,,,,,5e70491f899f5e63073e7fd4,24,Kobieta,2022-06-11_09h31.34.572,task,2021.1.4,MacIntel,59.99880002,6299f149e92ead563fba08ef,62a443f71c22fcf20a4ace66,,,,,,,,,,,space,8.0542,0,"[""0""]",1,[3.3134999999999764],[3.3134999999999764],0,0,0,0,1,Practice,1,(3x3) -  9,0,,,,,,,,,,,,,,,,,,,,,,,,,,,,,,,,,,,,,,,,,,,,,,,,,,,,,,,,,,,,,,,,,,,,,,,,,,,
,,,,,,,,,,,,5e70491f899f5e63073e7fd4,24,Kobieta,2022-06-11_09h31.34.572,task,2021.1.4,MacIntel,59.99880002,6299f149e92ead563fba08ef,62a443f71c22fcf20a4ace66,,,,,,,,,,,,,4,"[""4""]",1,[4.6825000000000045],"[3.3134999999999764,4.6825000000000045]",0,1,1,4,1,Practice,5,(2x6) - 8,4,,,,,,,,,,,,,,,,,,,,,,,,,,,,,,,,,,,,,,,,,,,,,,,,,,,,,,,,,,,,,,,,,,,,,,,,,,,
,,,,,,,,,,,,5e70491f899f5e63073e7fd4,24,Kobieta,2022-06-11_09h31.34.572,task,2021.1.4,MacIntel,59.99880002,6299f149e92ead563fba08ef,62a443f71c22fcf20a4ace66,,,,,,,,,,,,,2,"[""2""]",1,[2.550300000011873],"[3.3134999999999764,4.6825000000000045,2.550300000011873]",0,2,2,2,1,Practice,3,(4x4) - 14,2,,,,,,,,,,,,,,,,,,,,,,,,,,,,,,,,,,,,,,,,,,,,,,,,,,,,,,,,,,,,,,,,,,,,,,,,,,,
,,,,,,,,,,,,5e70491f899f5e63073e7fd4,24,Kobieta,2022-06-11_09h31.34.572,task,2021.1.4,MacIntel,59.99880002,6299f149e92ead563fba08ef,62a443f71c22fcf20a4ace66,,,,,,,,,,,,,8,"[""8""]",1,[1.7010999999642422],"[3.3134999999999764,4.6825000000000045,2.550300000011873,1.7010999999642422]",0,3,3,8,1,Practice,9,(3x3) - 1,8,,,,,,,,,,,,,,,,,,,,,,,,,,,,,,,,,,,,,,,,,,,,,,,,,,,,,,,,,,,,,,,,,,,,,,,,,,,
,,,,,,,,,,,,5e70491f899f5e63073e7fd4,24,Kobieta,2022-06-11_09h31.34.572,task,2021.1.4,MacIntel,59.99880002,6299f149e92ead563fba08ef,62a443f71c22fcf20a4ace66,,,,,,,,,,,,,6,"[""6""]",1,[2.2829000000357382],"[3.3134999999999764,4.6825000000000045,2.550300000011873,1.7010999999642422,2.2829000000357382]",0,4,4,6,1,Practice,7,(25/5) + 1,6,,,,,,,,,,,,,,,,,,,,,,,,,,,,,,,,,,,,,,,,,,,,,,,,,,,,,,,,,,,,,,,,,,,,,,,,,,,
,,,,,,,,,,,,5e70491f899f5e63073e7fd4,24,Kobieta,2022-06-11_09h31.34.572,task,2021.1.4,MacIntel,59.99880002,6299f149e92ead563fba08ef,62a443f71c22fcf20a4ace66,,,,,,,,,,,,,7,"[""7""]",1,[3.3840000000000146],"[3.3134999999999764,4.6825000000000045,2.550300000011873,1.7010999999642422,2.2829000000357382,3.3840000000000146]",0,5,5,7,1,Practice,8,(5x5) - 18,7,,,,,,,,,,,,,,,,,,,,,,,,,,,,,,,,,,,,,,,,,,,,,,,,,,,,,,,,,,,,,,,,,,,,,,,,,,,
,,,,,,,,,,,,5e70491f899f5e63073e7fd4,24,Kobieta,2022-06-11_09h31.34.572,task,2021.1.4,MacIntel,59.99880002,6299f149e92ead563fba08ef,62a443f71c22fcf20a4ace66,,,,,,,,,,,,,3,"[""3""]",1,[2.385500000000036],"[3.3134999999999764,4.6825000000000045,2.550300000011873,1.7010999999642422,2.2829000000357382,3.3840000000000146,2.385500000000036]",0,6,6,3,1,Practice,4,(8/4) + 1,3,,,,,,,,,,,,,,,,,,,,,,,,,,,,,,,,,,,,,,,,,,,,,,,,,,,,,,,,,,,,,,,,,,,,,,,,,,,
,,,,,,,,,,,,5e70491f899f5e63073e7fd4,24,Kobieta,2022-06-11_09h31.34.572,task,2021.1.4,MacIntel,59.99880002,6299f149e92ead563fba08ef,62a443f71c22fcf20a4ace66,,,,,,,,,,,,,5,"[""5""]",1,[1.9044000000357642],"[3.3134999999999764,4.6825000000000045,2.550300000011873,1.7010999999642422,2.2829000000357382,3.3840000000000146,2.385500000000036,1.9044000000357642]",0,7,7,5,1,Practice,6,(4/2) + 3,5,,,,,,,,,,,,,,,,,,,,,,,,,,,,,,,,,,,,,,,,,,,,,,,,,,,,,,,,,,,,,,,,,,,,,,,,,,,
,,,,,,,,,,,,5e70491f899f5e63073e7fd4,24,Kobieta,2022-06-11_09h31.34.572,task,2021.1.4,MacIntel,59.99880002,6299f149e92ead563fba08ef,62a443f71c22fcf20a4ace66,,,,,,,,,,,,,9,"[""9""]",1,[2.8998000000119077],"[3.3134999999999764,4.6825000000000045,2.550300000011873,1.7010999999642422,2.2829000000357382,3.3840000000000146,2.385500000000036,1.9044000000357642,2.8998000000119077]",0,8,8,9,1,Practice,10,(20/2) - 1,9,,,,,,,,,,,,,,,,,,,,,,,,,,,,,,,,,,,,,,,,,,,,,,,,,,,,,,,,,,,,,,,,,,,,,,,,,,,
,,,,,,,,,,,,5e70491f899f5e63073e7fd4,24,Kobieta,2022-06-11_09h31.34.572,task,2021.1.4,MacIntel,59.99880002,6299f149e92ead563fba08ef,62a443f71c22fcf20a4ace66,,,,,,,,,,,,,1,"[""1""]",1,[2.436699999988093],"[3.3134999999999764,4.6825000000000045,2.550300000011873,1.7010999999642422,2.2829000000357382,3.3840000000000146,2.385500000000036,1.9044000000357642,2.8998000000119077,2.436699999988093]",0,9,9,1,1,Practice,2,(4x4) - 15,1,,,,,,,,,,,,,,,,,,,,,,,,,,,,,,,,,,,,,,,,,,,,,,,,,,,,,,,,,,,,,,,,,,,,,,,,,,,
,,,,,,,,,,,,5e70491f899f5e63073e7fd4,24,Kobieta,2022-06-11_09h31.34.572,task,2021.1.4,MacIntel,59.99880002,6299f149e92ead563fba08ef,62a443f71c22fcf20a4ace66,,,,,,,,,,,,,,,,,,,,,,,,,,,1,27.5407,1.836046667,15.20829751,1.006919312,4.433898491,space,1.6253,0,0,0,0,1,,,,,,,,,,,,,,,,,,,,,,,,,,,,,,,,,,,,,,,,,,,,,,,,,,,,,,,,,,,,,,
,,,,,,,,,,,,5e70491f899f5e63073e7fd4,24,Kobieta,2022-06-11_09h31.34.572,task,2021.1.4,MacIntel,59.99880002,6299f149e92ead563fba08ef,62a443f71c22fcf20a4ace66,,,,,,,,,,,,,9,,,,,,,,,,Practice,10,(20/2) - 1,9,,,,,,,,,,,,,,space,35.6894,"[""9""]",1,[3.244800000011935],1,0,0,0,9,1,,,,,,,,,,,,,,,,,,,,,,,,,,,,,,,,,,,,,,,,,,,,,,,,,,,
,,,,,,,,,,,X V Q F H G B L J M P D K C T S W R N Z,5e70491f899f5e63073e7fd4,24,Kobieta,2022-06-11_09h31.34.572,task,2021.1.4,MacIntel,59.99880002,6299f149e92ead563fba08ef,62a443f71c22fcf20a4ace66,,,,,,,,,,,,,,,,,,,,,,,,,,,,,,,,,,,,,,,,,,,,,,,,,,,0,0,0,0,1,,,,,,,,,,,,,,,,,,,,,,,,,,,,,,,,,,,,,,,,,,,,,,
,,,,,,,,,,,,5e70491f899f5e63073e7fd4,24,Kobieta,2022-06-11_09h31.34.572,task,2021.1.4,MacIntel,59.99880002,6299f149e92ead563fba08ef,62a443f71c22fcf20a4ace66,,,,,,,,,,,,,1,,,,,,,,,,Practice,2,(4x4) - 15,1,,,,,,,,,,,,,,,,"[""1""]",1,[1.8489999999999895],1,0,0,0,1,1,,,,,,,,,,,,,,,,,,,,,,,,,,,,,,,,,,,,,,,,,,,,,,,,,,,
,,,,,,,,,,,X V Q F H G B L J M P D K C T S W R N Z,5e70491f899f5e63073e7fd4,24,Kobieta,2022-06-11_09h31.34.572,task,2021.1.4,MacIntel,59.99880002,6299f149e92ead563fba08ef,62a443f71c22fcf20a4ace66,,,,,,,,,,,,,,,,,,,,,,,,,,,,,,,,,,,,,,,,,,,,,,,,,,,1,0,1,0,1,,,,,,,,,,,,,,,,,,,,,,,,,,,,,,,,,,,,,,,,,,,,,,
,,,,,,,,,,,,5e70491f899f5e63073e7fd4,24,Kobieta,2022-06-11_09h31.34.572,task,2021.1.4,MacIntel,59.99880002,6299f149e92ead563fba08ef,62a443f71c22fcf20a4ace66,,,,,,,,,,,,,,,,,,,,,,,,,,,,,,,,,,,,,,,,,,,,,,,,,,,,,,,,zl,"[""z"",""l""]",0,"[1.970699999988085,2.7023999999761372,3.5517999999523227]",1,0,0,0,0,1,,,,,,,,,,,,,,,,,,,,,,,,,,,,,,,,,,,,
,,,,,,,,,,,,5e70491f899f5e63073e7fd4,24,Kobieta,2022-06-11_09h31.34.572,task,2021.1.4,MacIntel,59.99880002,6299f149e92ead563fba08ef,62a443f71c22fcf20a4ace66,,,,,,,,,,,,,7,,,,,,,,,,Practice,8,(5x5) - 18,7,,,,,,,,,,,,,,,,"[""7""]",1,[2.849699999988104],1,0,0,0,7,1,,,,,,,,,,,,,,,,,,,,,,,,,,,,,,,,,,,,,,,,,,,,,,,,,,,
,,,,,,,,,,,X V Q F H G B L J M P D K C T S W R N Z,5e70491f899f5e63073e7fd4,24,Kobieta,2022-06-11_09h31.34.572,task,2021.1.4,MacIntel,59.99880002,6299f149e92ead563fba08ef,62a443f71c22fcf20a4ace66,,,,,,,,,,,,,,,,,,,,,,,,,,,,,,,,,,,,,,,,,,,,,,,,,,,0,0,0,0,1,,,,,,,,,,,,,,,,,,,,,,,,,,,,,,,,,,,,,,,,,,,,,,
,,,,,,,,,,,,5e70491f899f5e63073e7fd4,24,Kobieta,2022-06-11_09h31.34.572,task,2021.1.4,MacIntel,59.99880002,6299f149e92ead563fba08ef,62a443f71c22fcf20a4ace66,,,,,,,,,,,,,3,,,,,,,,,,Practice,4,(8/4) + 1,3,,,,,,,,,,,,,,,,"[""3""]",1,[2.199300000011931],1,0,0,0,3,1,,,,,,,,,,,,,,,,,,,,,,,,,,,,,,,,,,,,,,,,,,,,,,,,,,,
,,,,,,,,,,,X V Q F H G B L J M P D K C T S W R N Z,5e70491f899f5e63073e7fd4,24,Kobieta,2022-06-11_09h31.34.572,task,2021.1.4,MacIntel,59.99880002,6299f149e92ead563fba08ef,62a443f71c22fcf20a4ace66,,,,,,,,,,,,,,,,,,,,,,,,,,,,,,,,,,,,,,,,,,,,,,,,,,,1,0,1,0,1,,,,,,,,,,,,,,,,,,,,,,,,,,,,,,,,,,,,,,,,,,,,,,
,,,,,,,,,,,,5e70491f899f5e63073e7fd4,24,Kobieta,2022-06-11_09h31.34.572,task,2021.1.4,MacIntel,59.99880002,6299f149e92ead563fba08ef,62a443f71c22fcf20a4ace66,,,,,,,,,,,,,,,,,,,,,,,,,,,,,,,,,,,,,,,,,,,,,,,,,,,,,,,,hc,"[""h"",""c""]",0,"[1.3845000000000027,1.9566000000238546,2.4173000000119487]",1,1,0,1,0,1,,,,,,,,,,,,,,,,,,,,,,,,,,,,,,,,,,,,
,,,,,,,,,,,,5e70491f899f5e63073e7fd4,24,Kobieta,2022-06-11_09h31.34.572,task,2021.1.4,MacIntel,59.99880002,6299f149e92ead563fba08ef,62a443f71c22fcf20a4ace66,,,,,,,,,,,,,5,,,,,,,,,,Practice,6,(4/2) + 3,5,,,,,,,,,,,,,,,,"[""5""]",1,[3.664699999988045],1,0,0,0,5,1,,,,,,,,,,,,,,,,,,,,,,,,,,,,,,,,,,,,,,,,,,,,,,,,,,,
,,,,,,,,,,,X V Q F H G B L J M P D K C T S W R N Z,5e70491f899f5e63073e7fd4,24,Kobieta,2022-06-11_09h31.34.572,task,2021.1.4,MacIntel,59.99880002,6299f149e92ead563fba08ef,62a443f71c22fcf20a4ace66,,,,,,,,,,,,,,,,,,,,,,,,,,,,,,,,,,,,,,,,,,,,,,,,,,,0,0,0,0,1,,,,,,,,,,,,,,,,,,,,,,,,,,,,,,,,,,,,,,,,,,,,,,
,,,,,,,,,,,,5e70491f899f5e63073e7fd4,24,Kobieta,2022-06-11_09h31.34.572,task,2021.1.4,MacIntel,59.99880002,6299f149e92ead563fba08ef,62a443f71c22fcf20a4ace66,,,,,,,,,,,,,9,,,,,,,,,,Practice,10,(20/2) - 1,9,,,,,,,,,,,,,,,,"[""9""]",1,[2.0661999999880436],1,0,0,0,9,1,,,,,,,,,,,,,,,,,,,,,,,,,,,,,,,,,,,,,,,,,,,,,,,,,,,
,,,,,,,,,,,X V Q F H G B L J M P D K C T S W R N Z,5e70491f899f5e63073e7fd4,24,Kobieta,2022-06-11_09h31.34.572,task,2021.1.4,MacIntel,59.99880002,6299f149e92ead563fba08ef,62a443f71c22fcf20a4ace66,,,,,,,,,,,,,,,,,,,,,,,,,,,,,,,,,,,,,,,,,,,,,,,,,,,1,0,1,0,1,,,,,,,,,,,,,,,,,,,,,,,,,,,,,,,,,,,,,,,,,,,,,,
,,,,,,,,,,,,5e70491f899f5e63073e7fd4,24,Kobieta,2022-06-11_09h31.34.572,task,2021.1.4,MacIntel,59.99880002,6299f149e92ead563fba08ef,62a443f71c22fcf20a4ace66,,,,,,,,,,,,,,,,,,,,,,,,,,,,,,,,,,,,,,,,,,,,,,,,,,,,,,,,xg,"[""x"",""g""]",0,"[1.7903999999761595,2.117600000023856,2.8718000000119446]",1,2,0,2,0,1,,,,,,,,,,,,,,,,,,,,,,,,,,,,,,,,,,,,
,,,,,,,,,,,,5e70491f899f5e63073e7fd4,24,Kobieta,2022-06-11_09h31.34.572,task,2021.1.4,MacIntel,59.99880002,6299f149e92ead563fba08ef,62a443f71c22fcf20a4ace66,,,,,,,,,,,,,,,,,,,,,,,Task,38,(4x6) - 17,7,,,,,,,,,,,,,,,,,,,0,,,,,,,,,,,,,,,,,,,,,space,16.3524,,0,0,0,0,37,1,,,,,,,,,,,,,,,,,,,,,,,,,,,
,,,,,,,,,,,,5e70491f899f5e63073e7fd4,24,Kobieta,2022-06-11_09h31.34.572,task,2021.1.4,MacIntel,59.99880002,6299f149e92ead563fba08ef,62a443f71c22fcf20a4ace66,,,,,,,,,,,,,3,,,,,,,,,,Task,35,(1x2) + 1,3,,,,,,,,,,,,,,,,,,,1,,,,,,,,,,,,,,,,,,,,,,,"[""3""]",1,0,1,1,34,1,[2.584699999988061],,,,,,,,,,,,,,,,,,,,,,,,,,
,,,,,,,,,,,X V Q F H G B L J M P D K C T S W R N Z,5e70491f899f5e63073e7fd4,24,Kobieta,2022-06-11_09h31.34.572,task,2021.1.4,MacIntel,59.99880002,6299f149e92ead563fba08ef,62a443f71c22fcf20a4ace66,,,,,,,,,,,,,,,,,,,,,,,,,,,,,,,,,,,,,,,,,,,,,,,,,,,,,,,,,,,,,,,,,,,,,,,,,,,,0,0,0,0,1,,,,,,,,,,,,,,,,,,,,,
,,,,,,,,,,,,5e70491f899f5e63073e7fd4,24,Kobieta,2022-06-11_09h31.34.572,task,2021.1.4,MacIntel,59.99880002,6299f149e92ead563fba08ef,62a443f71c22fcf20a4ace66,,,,,,,,,,,,,3,,,,,,,,,,Task,35,(1x2) + 1,3,,,,,,,,,,,,,,,,,,,1,,,,,,,,,,,,,,,,,,,,,,,"[""3""]",1,0,0,0,34,1,[2.4223999999761645],,,,,,,,,,,,,,,,,,,,,,,,,,
,,,,,,,,,,,X V Q F H G B L J M P D K C T S W R N Z,5e70491f899f5e63073e7fd4,24,Kobieta,2022-06-11_09h31.34.572,task,2021.1.4,MacIntel,59.99880002,6299f149e92ead563fba08ef,62a443f71c22fcf20a4ace66,,,,,,,,,,,,,,,,,,,,,,,,,,,,,,,,,,,,,,,,,,,,,,,,,,,,,,,,,,,,,,,,,,,,,,,,,,,,1,0,1,0,1,,,,,,,,,,,,,,,,,,,,,
,,,,,,,,,,,,5e70491f899f5e63073e7fd4,24,Kobieta,2022-06-11_09h31.34.572,task,2021.1.4,MacIntel,59.99880002,6299f149e92ead563fba08ef,62a443f71c22fcf20a4ace66,,,,,,,,,,,,,,,,,,,,,,,,,,,,,,,,,,,,,,,,,,,,,,,,,,,,,,,,,,,,,,,,,,,,,,,,,,,,,,,,,zv,"[""z"",""v""]",0,"[1.3015000000000327,1.5351999999880945,2.45069999998816]",1,ZV,0,0,0,0,1,,,,,,,,,,
,,,,,,,,,,,,5e70491f899f5e63073e7fd4,24,Kobieta,2022-06-11_09h31.34.572,task,2021.1.4,MacIntel,59.99880002,6299f149e92ead563fba08ef,62a443f71c22fcf20a4ace66,,,,,,,,,,,,,7,,,,,,,,,,Task,38,(4x6) - 17,7,,,,,,,,,,,,,,,,,,,1,,,,,,,,,,,,,,,,,,,,,,,"[""7""]",1,0,0,0,37,1,[3.4828000000119346],,,,,,,,,,,,,,,,,,,,,,,,,,
,,,,,,,,,,,X V Q F H G B L J M P D K C T S W R N Z,5e70491f899f5e63073e7fd4,24,Kobieta,2022-06-11_09h31.34.572,task,2021.1.4,MacIntel,59.99880002,6299f149e92ead563fba08ef,62a443f71c22fcf20a4ace66,,,,,,,,,,,,,,,,,,,,,,,,,,,,,,,,,,,,,,,,,,,,,,,,,,,,,,,,,,,,,,,,,,,,,,,,,,,,0,0,0,0,1,,,,,,,,,,,,,,,,,,,,,
,,,,,,,,,,,,5e70491f899f5e63073e7fd4,24,Kobieta,2022-06-11_09h31.34.572,task,2021.1.4,MacIntel,59.99880002,6299f149e92ead563fba08ef,62a443f71c22fcf20a4ace66,,,,,,,,,,,,,1,,,,,,,,,,Task,18,(16/4) - 3,1,,,,,,,,,,,,,,,,,,,1,,,,,,,,,,,,,,,,,,,,,,,"[""1""]",1,0,0,0,17,1,[1.9351999999881855],,,,,,,,,,,,,,,,,,,,,,,,,,
,,,,,,,,,,,X V Q F H G B L J M P D K C T S W R N Z,5e70491f899f5e63073e7fd4,24,Kobieta,2022-06-11_09h31.34.572,task,2021.1.4,MacIntel,59.99880002,6299f149e92ead563fba08ef,62a443f71c22fcf20a4ace66,,,,,,,,,,,,,,,,,,,,,,,,,,,,,,,,,,,,,,,,,,,,,,,,,,,,,,,,,,,,,,,,,,,,,,,,,,,,1,0,1,0,1,,,,,,,,,,,,,,,,,,,,,
,,,,,,,,,,,,5e70491f899f5e63073e7fd4,24,Kobieta,2022-06-11_09h31.34.572,task,2021.1.4,MacIntel,59.99880002,6299f149e92ead563fba08ef,62a443f71c22fcf20a4ace66,,,,,,,,,,,,,4,,,,,,,,,,Task,35,(1x2) + 1,3,,,,,,,,,,,,,,,,,,,0,,,,,,,,,,,,,,,,,,,,,,,"[""4""]",0,0,0,0,34,1,[2.9027000000476164],,,,,,,,,,,,,,,,,,,,,,,,,,
,,,,,,,,,,,,5e70491f899f5e63073e7fd4,24,Kobieta,2022-06-11_09h31.34.572,task,2021.1.4,MacIntel,59.99880002,6299f149e92ead563fba08ef,62a443f71c22fcf20a4ace66,,,,,,,,,,,,,0,,,,,,,,,,Task,17,(2x3) - 6,0,,,,,,,,,,,,,,,,,,,1,,,,,,,,,,,,,,,,,,,,,,,"[""0""]",1,0,1,1,16,1,[1.7400999999642863],,,,,,,,,,,,,,,,,,,,,,,,,,
,,,,,,,,,,,X V Q F H G B L J M P D K C T S W R N Z,5e70491f899f5e63073e7fd4,24,Kobieta,2022-06-11_09h31.34.572,task,2021.1.4,MacIntel,59.99880002,6299f149e92ead563fba08ef,62a443f71c22fcf20a4ace66,,,,,,,,,,,,,,,,,,,,,,,,,,,,,,,,,,,,,,,,,,,,,,,,,,,,,,,,,,,,,,,,,,,,,,,,,,,,2,0,2,0,1,,,,,,,,,,,,,,,,,,,,,
,,,,,,,,,,,,5e70491f899f5e63073e7fd4,24,Kobieta,2022-06-11_09h31.34.572,task,2021.1.4,MacIntel,59.99880002,6299f149e92ead563fba08ef,62a443f71c22fcf20a4ace66,,,,,,,,,,,,,,,,,,,,,,,,,,,,,,,,,,,,,,,,,,,,,,,,,,,,,,,,,,,,,,,,,,,,,,,,,,,,,,,,,khq,"[""k"",""h"",""q""]",0,"[1.9021000000238928,2.4519000000358346,2.9906999999881236,4.305500000000052]",1,KHQ,1,0,1,0,1,,,,,,,,,,
,,,,,,,,,,,,5e70491f899f5e63073e7fd4,24,Kobieta,2022-06-11_09h31.34.572,task,2021.1.4,MacIntel,59.99880002,6299f149e92ead563fba08ef,62a443f71c22fcf20a4ace66,,,,,,,,,,,,,5,,,,,,,,,,Task,22,(3x1) + 2,5,,,,,,,,,,,,,,,,,,,1,,,,,,,,,,,,,,,,,,,,,,,"[""5""]",1,0,0,0,21,1,[2.532599999964191],,,,,,,,,,,,,,,,,,,,,,,,,,
,,,,,,,,,,,X V Q F H G B L J M P D K C T S W R N Z,5e70491f899f5e63073e7fd4,24,Kobieta,2022-06-11_09h31.34.572,task,2021.1.4,MacIntel,59.99880002,6299f149e92ead563fba08ef,62a443f71c22fcf20a4ace66,,,,,,,,,,,,,,,,,,,,,,,,,,,,,,,,,,,,,,,,,,,,,,,,,,,,,,,,,,,,,,,,,,,,,,,,,,,,0,0,0,0,1,,,,,,,,,,,,,,,,,,,,,
,,,,,,,,,,,,5e70491f899f5e63073e7fd4,24,Kobieta,2022-06-11_09h31.34.572,task,2021.1.4,MacIntel,59.99880002,6299f149e92ead563fba08ef,62a443f71c22fcf20a4ace66,,,,,,,,,,,,,5,,,,,,,,,,Task,29,(3x8) - 19 ,5,,,,,,,,,,,,,,,,,,,1,,,,,,,,,,,,,,,,,,,,,,,"[""5""]",1,0,0,0,28,1,[3.7650000000001],,,,,,,,,,,,,,,,,,,,,,,,,,
,,,,,,,,,,,X V Q F H G B L J M P D K C T S W R N Z,5e70491f899f5e63073e7fd4,24,Kobieta,2022-06-11_09h31.34.572,task,2021.1.4,MacIntel,59.99880002,6299f149e92ead563fba08ef,62a443f71c22fcf20a4ace66,,,,,,,,,,,,,,,,,,,,,,,,,,,,,,,,,,,,,,,,,,,,,,,,,,,,,,,,,,,,,,,,,,,,,,,,,,,,1,0,1,0,1,,,,,,,,,,,,,,,,,,,,,
,,,,,,,,,,,,5e70491f899f5e63073e7fd4,24,Kobieta,2022-06-11_09h31.34.572,task,2021.1.4,MacIntel,59.99880002,6299f149e92ead563fba08ef,62a443f71c22fcf20a4ace66,,,,,,,,,,,,,4,,,,,,,,,,Task,11,(18/3) - 2,4,,,,,,,,,,,,,,,,,,,1,,,,,,,,,,,,,,,,,,,,,,,"[""4""]",1,0,0,0,10,1,[3.158199999988028],,,,,,,,,,,,,,,,,,,,,,,,,,
,,,,,,,,,,,X V Q F H G B L J M P D K C T S W R N Z,5e70491f899f5e63073e7fd4,24,Kobieta,2022-06-11_09h31.34.572,task,2021.1.4,MacIntel,59.99880002,6299f149e92ead563fba08ef,62a443f71c22fcf20a4ace66,,,,,,,,,,,,,,,,,,,,,,,,,,,,,,,,,,,,,,,,,,,,,,,,,,,,,,,,,,,,,,,,,,,,,,,,,,,,2,0,2,0,1,,,,,,,,,,,,,,,,,,,,,
,,,,,,,,,,,,5e70491f899f5e63073e7fd4,24,Kobieta,2022-06-11_09h31.34.572,task,2021.1.4,MacIntel,59.99880002,6299f149e92ead563fba08ef,62a443f71c22fcf20a4ace66,,,,,,,,,,,,,8,,,,,,,,,,Task,32,(8/2) + 4,8,,,,,,,,,,,,,,,,,,,1,,,,,,,,,,,,,,,,,,,,,,,"[""8""]",1,0,0,0,31,1,[3.3599000000357364],,,,,,,,,,,,,,,,,,,,,,,,,,
,,,,,,,,,,,X V Q F H G B L J M P D K C T S W R N Z,5e70491f899f5e63073e7fd4,24,Kobieta,2022-06-11_09h31.34.572,task,2021.1.4,MacIntel,59.99880002,6299f149e92ead563fba08ef,62a443f71c22fcf20a4ace66,,,,,,,,,,,,,,,,,,,,,,,,,,,,,,,,,,,,,,,,,,,,,,,,,,,,,,,,,,,,,,,,,,,,,,,,,,,,3,0,3,0,1,,,,,,,,,,,,,,,,,,,,,
,,,,,,,,,,,,5e70491f899f5e63073e7fd4,24,Kobieta,2022-06-11_09h31.34.572,task,2021.1.4,MacIntel,59.99880002,6299f149e92ead563fba08ef,62a443f71c22fcf20a4ace66,,,,,,,,,,,,,,,,,,,,,,,,,,,,,,,,,,,,,,,,,,,,,,,,,,,,,,,,,,,,,,,,,,,,,,,,,,,,,,,,,ztmv,"[""z"",""t"",""m"",""v""]",0,"[1.6371000000237927,1.9029999999999063,2.37010000002374,2.7863999999760836,4.569300000011822]",1,ZTMV,2,0,2,0,1,,,,,,,,,,
,,,,,,,,,,,,5e70491f899f5e63073e7fd4,24,Kobieta,2022-06-11_09h31.34.572,task,2021.1.4,MacIntel,59.99880002,6299f149e92ead563fba08ef,62a443f71c22fcf20a4ace66,,,,,,,,,,,,,1,,,,,,,,,,Task,18,(16/4) - 3,1,,,,,,,,,,,,,,,,,,,1,,,,,,,,,,,,,,,,,,,,,,,"[""1""]",1,0,0,0,17,1,[1.6658999999760908],,,,,,,,,,,,,,,,,,,,,,,,,,
,,,,,,,,,,,X V Q F H G B L J M P D K C T S W R N Z,5e70491f899f5e63073e7fd4,24,Kobieta,2022-06-11_09h31.34.572,task,2021.1.4,MacIntel,59.99880002,6299f149e92ead563fba08ef,62a443f71c22fcf20a4ace66,,,,,,,,,,,,,,,,,,,,,,,,,,,,,,,,,,,,,,,,,,,,,,,,,,,,,,,,,,,,,,,,,,,,,,,,,,,,0,0,0,0,1,,,,,,,,,,,,,,,,,,,,,
,,,,,,,,,,,,5e70491f899f5e63073e7fd4,24,Kobieta,2022-06-11_09h31.34.572,task,2021.1.4,MacIntel,59.99880002,6299f149e92ead563fba08ef,62a443f71c22fcf20a4ace66,,,,,,,,,,,,,7,,,,,,,,,,Task,38,(4x6) - 17,7,,,,,,,,,,,,,,,,,,,1,,,,,,,,,,,,,,,,,,,,,,,"[""7""]",1,0,0,0,37,1,[3.166099999964217],,,,,,,,,,,,,,,,,,,,,,,,,,
,,,,,,,,,,,X V Q F H G B L J M P D K C T S W R N Z,5e70491f899f5e63073e7fd4,24,Kobieta,2022-06-11_09h31.34.572,task,2021.1.4,MacIntel,59.99880002,6299f149e92ead563fba08ef,62a443f71c22fcf20a4ace66,,,,,,,,,,,,,,,,,,,,,,,,,,,,,,,,,,,,,,,,,,,,,,,,,,,,,,,,,,,,,,,,,,,,,,,,,,,,1,0,1,0,1,,,,,,,,,,,,,,,,,,,,,
,,,,,,,,,,,,5e70491f899f5e63073e7fd4,24,Kobieta,2022-06-11_09h31.34.572,task,2021.1.4,MacIntel,59.99880002,6299f149e92ead563fba08ef,62a443f71c22fcf20a4ace66,,,,,,,,,,,,,4,,,,,,,,,,Task,21,(10/2) - 1,4,,,,,,,,,,,,,,,,,,,1,,,,,,,,,,,,,,,,,,,,,,,"[""4""]",1,0,0,0,20,1,[2.2595000000000027],,,,,,,,,,,,,,,,,,,,,,,,,,
,,,,,,,,,,,X V Q F H G B L J M P D K C T S W R N Z,5e70491f899f5e63073e7fd4,24,Kobieta,2022-06-11_09h31.34.572,task,2021.1.4,MacIntel,59.99880002,6299f149e92ead563fba08ef,62a443f71c22fcf20a4ace66,,,,,,,,,,,,,,,,,,,,,,,,,,,,,,,,,,,,,,,,,,,,,,,,,,,,,,,,,,,,,,,,,,,,,,,,,,,,2,0,2,0,1,,,,,,,,,,,,,,,,,,,,,
,,,,,,,,,,,,5e70491f899f5e63073e7fd4,24,Kobieta,2022-06-11_09h31.34.572,task,2021.1.4,MacIntel,59.99880002,6299f149e92ead563fba08ef,62a443f71c22fcf20a4ace66,,,,,,,,,,,,,2,,,,,,,,,,Task,19,(6/2) - 1,2,,,,,,,,,,,,,,,,,,,1,,,,,,,,,,,,,,,,,,,,,,,"[""2""]",1,0,0,0,18,1,[3.281100000023912],,,,,,,,,,,,,,,,,,,,,,,,,,
,,,,,,,,,,,X V Q F H G B L J M P D K C T S W R N Z,5e70491f899f5e63073e7fd4,24,Kobieta,2022-06-11_09h31.34.572,task,2021.1.4,MacIntel,59.99880002,6299f149e92ead563fba08ef,62a443f71c22fcf20a4ace66,,,,,,,,,,,,,,,,,,,,,,,,,,,,,,,,,,,,,,,,,,,,,,,,,,,,,,,,,,,,,,,,,,,,,,,,,,,,3,0,3,0,1,,,,,,,,,,,,,,,,,,,,,
,,,,,,,,,,,,5e70491f899f5e63073e7fd4,24,Kobieta,2022-06-11_09h31.34.572,task,2021.1.4,MacIntel,59.99880002,6299f149e92ead563fba08ef,62a443f71c22fcf20a4ace66,,,,,,,,,,,,,7,,,,,,,,,,Task,38,(4x6) - 17,7,,,,,,,,,,,,,,,,,,,1,,,,,,,,,,,,,,,,,,,,,,,"[""7""]",1,0,0,0,37,1,[3.4163000000119155],,,,,,,,,,,,,,,,,,,,,,,,,,
,,,,,,,,,,,X V Q F H G B L J M P D K C T S W R N Z,5e70491f899f5e63073e7fd4,24,Kobieta,2022-06-11_09h31.34.572,task,2021.1.4,MacIntel,59.99880002,6299f149e92ead563fba08ef,62a443f71c22fcf20a4ace66,,,,,,,,,,,,,,,,,,,,,,,,,,,,,,,,,,,,,,,,,,,,,,,,,,,,,,,,,,,,,,,,,,,,,,,,,,,,4,0,4,0,1,,,,,,,,,,,,,,,,,,,,,
,,,,,,,,,,,,5e70491f899f5e63073e7fd4,24,Kobieta,2022-06-11_09h31.34.572,task,2021.1.4,MacIntel,59.99880002,6299f149e92ead563fba08ef,62a443f71c22fcf20a4ace66,,,,,,,,,,,,,,,,,,,,,,,,,,,,,,,,,,,,,,,,,,,,,,,,,,,,,,,,,,,,,,,,,,,,,,,,,,,,,,,,,cmhhm,"[""c"",""m"",""h"",""h"",""m""]",0,"[1.6345000000000027,1.9352000000477574,2.5044000000358437,2.6572000000477374,2.942400000035832,4.28449999999998]",1,CMHHM,3,0,3,0,1,,,,,,,,,,
,,,,,,,,,,,,5e70491f899f5e63073e7fd4,24,Kobieta,2022-06-11_09h31.34.572,task,2021.1.4,MacIntel,59.99880002,6299f149e92ead563fba08ef,62a443f71c22fcf20a4ace66,,,,,,,,,,,,,7,,,,,,,,,,Task,30,(6/3) + 4 ,6,,,,,,,,,,,,,,,,,,,0,,,,,,,,,,,,,,,,,,,,,,,"[""7""]",0,0,0,0,29,1,[2.574399999976208],,,,,,,,,,,,,,,,,,,,,,,,,,
,,,,,,,,,,,,5e70491f899f5e63073e7fd4,24,Kobieta,2022-06-11_09h31.34.572,task,2021.1.4,MacIntel,59.99880002,6299f149e92ead563fba08ef,62a443f71c22fcf20a4ace66,,,,,,,,,,,,,0,,,,,,,,,,Task,8,(1x5) - 5,0,,,,,,,,,,,,,,,,,,,1,,,,,,,,,,,,,,,,,,,,,,,"[""0""]",1,0,1,1,7,1,[2.4663999999761472],,,,,,,,,,,,,,,,,,,,,,,,,,
,,,,,,,,,,,X V Q F H G B L J M P D K C T S W R N Z,5e70491f899f5e63073e7fd4,24,Kobieta,2022-06-11_09h31.34.572,task,2021.1.4,MacIntel,59.99880002,6299f149e92ead563fba08ef,62a443f71c22fcf20a4ace66,,,,,,,,,,,,,,,,,,,,,,,,,,,,,,,,,,,,,,,,,,,,,,,,,,,,,,,,,,,,,,,,,,,,,,,,,,,,0,0,0,0,1,,,,,,,,,,,,,,,,,,,,,
,,,,,,,,,,,,5e70491f899f5e63073e7fd4,24,Kobieta,2022-06-11_09h31.34.572,task,2021.1.4,MacIntel,59.99880002,6299f149e92ead563fba08ef,62a443f71c22fcf20a4ace66,,,,,,,,,,,,,2,,,,,,,,,,Task,10,(2x5) - 8,2,,,,,,,,,,,,,,,,,,,1,,,,,,,,,,,,,,,,,,,,,,,"[""2""]",1,0,0,0,9,1,[1.9584999999999582],,,,,,,,,,,,,,,,,,,,,,,,,,
,,,,,,,,,,,X V Q F H G B L J M P D K C T S W R N Z,5e70491f899f5e63073e7fd4,24,Kobieta,2022-06-11_09h31.34.572,task,2021.1.4,MacIntel,59.99880002,6299f149e92ead563fba08ef,62a443f71c22fcf20a4ace66,,,,,,,,,,,,,,,,,,,,,,,,,,,,,,,,,,,,,,,,,,,,,,,,,,,,,,,,,,,,,,,,,,,,,,,,,,,,1,0,1,0,1,,,,,,,,,,,,,,,,,,,,,
,,,,,,,,,,,,5e70491f899f5e63073e7fd4,24,Kobieta,2022-06-11_09h31.34.572,task,2021.1.4,MacIntel,59.99880002,6299f149e92ead563fba08ef,62a443f71c22fcf20a4ace66,,,,,,,,,,,,,1,,,,,,,,,,Task,9,(3x7) - 20,1,,,,,,,,,,,,,,,,,,,1,,,,,,,,,,,,,,,,,,,,,,,"[""1""]",1,0,0,0,8,1,[3.035400000035793],,,,,,,,,,,,,,,,,,,,,,,,,,
,,,,,,,,,,,X V Q F H G B L J M P D K C T S W R N Z,5e70491f899f5e63073e7fd4,24,Kobieta,2022-06-11_09h31.34.572,task,2021.1.4,MacIntel,59.99880002,6299f149e92ead563fba08ef,62a443f71c22fcf20a4ace66,,,,,,,,,,,,,,,,,,,,,,,,,,,,,,,,,,,,,,,,,,,,,,,,,,,,,,,,,,,,,,,,,,,,,,,,,,,,2,0,2,0,1,,,,,,,,,,,,,,,,,,,,,
,,,,,,,,,,,,5e70491f899f5e63073e7fd4,24,Kobieta,2022-06-11_09h31.34.572,task,2021.1.4,MacIntel,59.99880002,6299f149e92ead563fba08ef,62a443f71c22fcf20a4ace66,,,,,,,,,,,,,0,,,,,,,,,,Task,8,(1x5) - 5,0,,,,,,,,,,,,,,,,,,,1,,,,,,,,,,,,,,,,,,,,,,,"[""0""]",1,0,0,0,7,1,[2.533199999988028],,,,,,,,,,,,,,,,,,,,,,,,,,
,,,,,,,,,,,X V Q F H G B L J M P D K C T S W R N Z,5e70491f899f5e63073e7fd4,24,Kobieta,2022-06-11_09h31.34.572,task,2021.1.4,MacIntel,59.99880002,6299f149e92ead563fba08ef,62a443f71c22fcf20a4ace66,,,,,,,,,,,,,,,,,,,,,,,,,,,,,,,,,,,,,,,,,,,,,,,,,,,,,,,,,,,,,,,,,,,,,,,,,,,,3,0,3,0,1,,,,,,,,,,,,,,,,,,,,,
,,,,,,,,,,,,5e70491f899f5e63073e7fd4,24,Kobieta,2022-06-11_09h31.34.572,task,2021.1.4,MacIntel,59.99880002,6299f149e92ead563fba08ef,62a443f71c22fcf20a4ace66,,,,,,,,,,,,,1,,,,,,,,,,Task,9,(3x7) - 20,1,,,,,,,,,,,,,,,,,,,1,,,,,,,,,,,,,,,,,,,,,,,"[""1""]",1,0,0,0,8,1,[2.8424999999999727],,,,,,,,,,,,,,,,,,,,,,,,,,
,,,,,,,,,,,X V Q F H G B L J M P D K C T S W R N Z,5e70491f899f5e63073e7fd4,24,Kobieta,2022-06-11_09h31.34.572,task,2021.1.4,MacIntel,59.99880002,6299f149e92ead563fba08ef,62a443f71c22fcf20a4ace66,,,,,,,,,,,,,,,,,,,,,,,,,,,,,,,,,,,,,,,,,,,,,,,,,,,,,,,,,,,,,,,,,,,,,,,,,,,,4,0,4,0,1,,,,,,,,,,,,,,,,,,,,,
,,,,,,,,,,,,5e70491f899f5e63073e7fd4,24,Kobieta,2022-06-11_09h31.34.572,task,2021.1.4,MacIntel,59.99880002,6299f149e92ead563fba08ef,62a443f71c22fcf20a4ace66,,,,,,,,,,,,,,,,,,,,,,,Task,4,(1x5) - 1,4,,,,,,,,,,,,,,,,,,,0,,,,,,,,,,,,,,,,,,,,,,,,0,0,0,0,3,1,,,,,,,,,,,,,,,,,,,,,,,,,,,
,,,,,,,,,,,,5e70491f899f5e63073e7fd4,24,Kobieta,2022-06-11_09h31.34.572,task,2021.1.4,MacIntel,59.99880002,6299f149e92ead563fba08ef,62a443f71c22fcf20a4ace66,,,,,,,,,,,,,9,,,,,,,,,,Task,7,(3x7) - 12,9,,,,,,,,,,,,,,,,,,,1,,,,,,,,,,,,,,,,,,,,,,,"[""9""]",1,0,1,1,6,1,[2.52800000000002],,,,,,,,,,,,,,,,,,,,,,,,,,
,,,,,,,,,,,X V Q F H G B L J M P D K C T S W R N Z,5e70491f899f5e63073e7fd4,24,Kobieta,2022-06-11_09h31.34.572,task,2021.1.4,MacIntel,59.99880002,6299f149e92ead563fba08ef,62a443f71c22fcf20a4ace66,,,,,,,,,,,,,,,,,,,,,,,,,,,,,,,,,,,,,,,,,,,,,,,,,,,,,,,,,,,,,,,,,,,,,,,,,,,,5,0,5,0,1,,,,,,,,,,,,,,,,,,,,,
,,,,,,,,,,,,5e70491f899f5e63073e7fd4,24,Kobieta,2022-06-11_09h31.34.572,task,2021.1.4,MacIntel,59.99880002,6299f149e92ead563fba08ef,62a443f71c22fcf20a4ace66,,,,,,,,,,,,,,,,,,,,,,,,,,,,,,,,,,,,,,,,,,,,,,,,,,,,,,,,,,,,,,,,,,,,,,,,,,,,,,,,,znsjl,"[""z"",""n"",""s"",""j"",""l""]",0,"[1.8200999999642136,2.4362999999523254,3.8392999999523454,6.45929999995235,6.954799999952343,7.903599999964285]",0,ZNSFRL,4,0,4,0,1,,,,,,,,,,
,,,,,,,,,,,,5e70491f899f5e63073e7fd4,24,Kobieta,2022-06-11_09h31.34.572,task,2021.1.4,MacIntel,59.99880002,6299f149e92ead563fba08ef,62a443f71c22fcf20a4ace66,,,,,,,,,,,,,0,,,,,,,,,,Task,25,(10/5) - 2,0,,,,,,,,,,,,,,,,,,,1,,,,,,,,,,,,,,,,,,,,,,,"[""0""]",1,0,0,0,24,1,[2.2888000000119746],,,,,,,,,,,,,,,,,,,,,,,,,,
,,,,,,,,,,,X V Q F H G B L J M P D K C T S W R N Z,5e70491f899f5e63073e7fd4,24,Kobieta,2022-06-11_09h31.34.572,task,2021.1.4,MacIntel,59.99880002,6299f149e92ead563fba08ef,62a443f71c22fcf20a4ace66,,,,,,,,,,,,,,,,,,,,,,,,,,,,,,,,,,,,,,,,,,,,,,,,,,,,,,,,,,,,,,,,,,,,,,,,,,,,0,0,0,0,1,,,,,,,,,,,,,,,,,,,,,
,,,,,,,,,,,,5e70491f899f5e63073e7fd4,24,Kobieta,2022-06-11_09h31.34.572,task,2021.1.4,MacIntel,59.99880002,6299f149e92ead563fba08ef,62a443f71c22fcf20a4ace66,,,,,,,,,,,,,4,,,,,,,,,,Task,4,(1x5) - 1,4,,,,,,,,,,,,,,,,,,,1,,,,,,,,,,,,,,,,,,,,,,,"[""4""]",1,0,0,0,3,1,[1.7042000000476492],,,,,,,,,,,,,,,,,,,,,,,,,,
,,,,,,,,,,,X V Q F H G B L J M P D K C T S W R N Z,5e70491f899f5e63073e7fd4,24,Kobieta,2022-06-11_09h31.34.572,task,2021.1.4,MacIntel,59.99880002,6299f149e92ead563fba08ef,62a443f71c22fcf20a4ace66,,,,,,,,,,,,,,,,,,,,,,,,,,,,,,,,,,,,,,,,,,,,,,,,,,,,,,,,,,,,,,,,,,,,,,,,,,,,1,0,1,0,1,,,,,,,,,,,,,,,,,,,,,
,,,,,,,,,,,,5e70491f899f5e63073e7fd4,24,Kobieta,2022-06-11_09h31.34.572,task,2021.1.4,MacIntel,59.99880002,6299f149e92ead563fba08ef,62a443f71c22fcf20a4ace66,,,,,,,,,,,,,9,,,,,,,,,,Task,24,(2x2) + 5,9,,,,,,,,,,,,,,,,,,,1,,,,,,,,,,,,,,,,,,,,,,,"[""9""]",1,0,0,0,23,1,[2.056900000035739],,,,,,,,,,,,,,,,,,,,,,,,,,
,,,,,,,,,,,X V Q F H G B L J M P D K C T S W R N Z,5e70491f899f5e63073e7fd4,24,Kobieta,2022-06-11_09h31.34.572,task,2021.1.4,MacIntel,59.99880002,6299f149e92ead563fba08ef,62a443f71c22fcf20a4ace66,,,,,,,,,,,,,,,,,,,,,,,,,,,,,,,,,,,,,,,,,,,,,,,,,,,,,,,,,,,,,,,,,,,,,,,,,,,,2,0,2,0,1,,,,,,,,,,,,,,,,,,,,,
,,,,,,,,,,,,5e70491f899f5e63073e7fd4,24,Kobieta,2022-06-11_09h31.34.572,task,2021.1.4,MacIntel,59.99880002,6299f149e92ead563fba08ef,62a443f71c22fcf20a4ace66,,,,,,,,,,,,,5,,,,,,,,,,Task,36,(8/4) + 3,5,,,,,,,,,,,,,,,,,,,1,,,,,,,,,,,,,,,,,,,,,,,"[""5""]",1,0,0,0,35,1,[4.196000000000026],,,,,,,,,,,,,,,,,,,,,,,,,,
,,,,,,,,,,,X V Q F H G B L J M P D K C T S W R N Z,5e70491f899f5e63073e7fd4,24,Kobieta,2022-06-11_09h31.34.572,task,2021.1.4,MacIntel,59.99880002,6299f149e92ead563fba08ef,62a443f71c22fcf20a4ace66,,,,,,,,,,,,,,,,,,,,,,,,,,,,,,,,,,,,,,,,,,,,,,,,,,,,,,,,,,,,,,,,,,,,,,,,,,,,3,0,3,0,1,,,,,,,,,,,,,,,,,,,,,
,,,,,,,,,,,,5e70491f899f5e63073e7fd4,24,Kobieta,2022-06-11_09h31.34.572,task,2021.1.4,MacIntel,59.99880002,6299f149e92ead563fba08ef,62a443f71c22fcf20a4ace66,,,,,,,,,,,,,0,,,,,,,,,,Task,33,(1/1) - 1,0,,,,,,,,,,,,,,,,,,,1,,,,,,,,,,,,,,,,,,,,,,,"[""0""]",1,0,0,0,32,1,[1.8514999999999873],,,,,,,,,,,,,,,,,,,,,,,,,,
,,,,,,,,,,,X V Q F H G B L J M P D K C T S W R N Z,5e70491f899f5e63073e7fd4,24,Kobieta,2022-06-11_09h31.34.572,task,2021.1.4,MacIntel,59.99880002,6299f149e92ead563fba08ef,62a443f71c22fcf20a4ace66,,,,,,,,,,,,,,,,,,,,,,,,,,,,,,,,,,,,,,,,,,,,,,,,,,,,,,,,,,,,,,,,,,,,,,,,,,,,4,0,4,0,1,,,,,,,,,,,,,,,,,,,,,
,,,,,,,,,,,,5e70491f899f5e63073e7fd4,24,Kobieta,2022-06-11_09h31.34.572,task,2021.1.4,MacIntel,59.99880002,6299f149e92ead563fba08ef,62a443f71c22fcf20a4ace66,,,,,,,,,,,,,2,,,,,,,,,,Task,2,(2x2) - 2,2,,,,,,,,,,,,,,,,,,,1,,,,,,,,,,,,,,,,,,,,,,,"[""2""]",1,0,0,0,1,1,[2.5832000000476683],,,,,,,,,,,,,,,,,,,,,,,,,,
,,,,,,,,,,,X V Q F H G B L J M P D K C T S W R N Z,5e70491f899f5e63073e7fd4,24,Kobieta,2022-06-11_09h31.34.572,task,2021.1.4,MacIntel,59.99880002,6299f149e92ead563fba08ef,62a443f71c22fcf20a4ace66,,,,,,,,,,,,,,,,,,,,,,,,,,,,,,,,,,,,,,,,,,,,,,,,,,,,,,,,,,,,,,,,,,,,,,,,,,,,5,0,5,0,1,,,,,,,,,,,,,,,,,,,,,
,,,,,,,,,,,,5e70491f899f5e63073e7fd4,24,Kobieta,2022-06-11_09h31.34.572,task,2021.1.4,MacIntel,59.99880002,6299f149e92ead563fba08ef,62a443f71c22fcf20a4ace66,,,,,,,,,,,,,,,,,,,,,,,,,,,,,,,,,,,,,,,,,,,,,,,,,,,,,,,,,,,,,,,,,,,,,,,,,,,,,,,,,wbwbht,"[""w"",""b"",""w"",""b"",""h"",""t""]",0,"[1.4720999999642572,1.852300000011951,2.308999999999969,2.603099999964229,2.9263999999761836,3.2531999999880554,4.473199999988083]",1,WBWBHT,5,0,5,0,1,,,,,,,,,,
,,,,,,,,,,,,5e70491f899f5e63073e7fd4,24,Kobieta,2022-06-11_09h31.34.572,task,2021.1.4,MacIntel,59.99880002,6299f149e92ead563fba08ef,62a443f71c22fcf20a4ace66,,,,,,,,,,,,,3,,,,,,,,,,Task,20,(18/9) + 1,3,,,,,,,,,,,,,,,,,,,1,,,,,,,,,,,,,,,,,,,,,,,"[""3""]",1,0,0,0,19,1,[1.9669999999999845],,,,,,,,,,,,,,,,,,,,,,,,,,
,,,,,,,,,,,X V Q F H G B L J M P D K C T S W R N Z,5e70491f899f5e63073e7fd4,24,Kobieta,2022-06-11_09h31.34.572,task,2021.1.4,MacIntel,59.99880002,6299f149e92ead563fba08ef,62a443f71c22fcf20a4ace66,,,,,,,,,,,,,,,,,,,,,,,,,,,,,,,,,,,,,,,,,,,,,,,,,,,,,,,,,,,,,,,,,,,,,,,,,,,,0,0,0,0,1,,,,,,,,,,,,,,,,,,,,,
,,,,,,,,,,,,5e70491f899f5e63073e7fd4,24,Kobieta,2022-06-11_09h31.34.572,task,2021.1.4,MacIntel,59.99880002,6299f149e92ead563fba08ef,62a443f71c22fcf20a4ace66,,,,,,,,,,,,,6,,,,,,,,,,Task,5,(2x3) + 0,6,,,,,,,,,,,,,,,,,,,1,,,,,,,,,,,,,,,,,,,,,,,"[""6""]",1,0,0,0,4,1,[2.400299999952381],,,,,,,,,,,,,,,,,,,,,,,,,,
,,,,,,,,,,,X V Q F H G B L J M P D K C T S W R N Z,5e70491f899f5e63073e7fd4,24,Kobieta,2022-06-11_09h31.34.572,task,2021.1.4,MacIntel,59.99880002,6299f149e92ead563fba08ef,62a443f71c22fcf20a4ace66,,,,,,,,,,,,,,,,,,,,,,,,,,,,,,,,,,,,,,,,,,,,,,,,,,,,,,,,,,,,,,,,,,,,,,,,,,,,1,0,1,0,1,,,,,,,,,,,,,,,,,,,,,
,,,,,,,,,,,,5e70491f899f5e63073e7fd4,24,Kobieta,2022-06-11_09h31.34.572,task,2021.1.4,MacIntel,59.99880002,6299f149e92ead563fba08ef,62a443f71c22fcf20a4ace66,,,,,,,,,,,,,3,,,,,,,,,,Task,3,(2x3) - 3,3,,,,,,,,,,,,,,,,,,,1,,,,,,,,,,,,,,,,,,,,,,,"[""3""]",1,0,0,0,2,1,[3.1499000000357],,,,,,,,,,,,,,,,,,,,,,,,,,
,,,,,,,,,,,X V Q F H G B L J M P D K C T S W R N Z,5e70491f899f5e63073e7fd4,24,Kobieta,2022-06-11_09h31.34.572,task,2021.1.4,MacIntel,59.99880002,6299f149e92ead563fba08ef,62a443f71c22fcf20a4ace66,,,,,,,,,,,,,,,,,,,,,,,,,,,,,,,,,,,,,,,,,,,,,,,,,,,,,,,,,,,,,,,,,,,,,,,,,,,,2,0,2,0,1,,,,,,,,,,,,,,,,,,,,,
,,,,,,,,,,,,5e70491f899f5e63073e7fd4,24,Kobieta,2022-06-11_09h31.34.572,task,2021.1.4,MacIntel,59.99880002,6299f149e92ead563fba08ef,62a443f71c22fcf20a4ace66,,,,,,,,,,,,,4,,,,,,,,,,Task,11,(18/3) - 2,4,,,,,,,,,,,,,,,,,,,1,,,,,,,,,,,,,,,,,,,,,,,"[""4""]",1,0,0,0,10,1,[3.856600000023832],,,,,,,,,,,,,,,,,,,,,,,,,,
,,,,,,,,,,,X V Q F H G B L J M P D K C T S W R N Z,5e70491f899f5e63073e7fd4,24,Kobieta,2022-06-11_09h31.34.572,task,2021.1.4,MacIntel,59.99880002,6299f149e92ead563fba08ef,62a443f71c22fcf20a4ace66,,,,,,,,,,,,,,,,,,,,,,,,,,,,,,,,,,,,,,,,,,,,,,,,,,,,,,,,,,,,,,,,,,,,,,,,,,,,3,0,3,0,1,,,,,,,,,,,,,,,,,,,,,
,,,,,,,,,,,,5e70491f899f5e63073e7fd4,24,Kobieta,2022-06-11_09h31.34.572,task,2021.1.4,MacIntel,59.99880002,6299f149e92ead563fba08ef,62a443f71c22fcf20a4ace66,,,,,,,,,,,,,9,,,,,,,,,,Task,16,(3x8) - 15,9,,,,,,,,,,,,,,,,,,,1,,,,,,,,,,,,,,,,,,,,,,,"[""9""]",1,0,0,0,15,1,[3.370600000023842],,,,,,,,,,,,,,,,,,,,,,,,,,
,,,,,,,,,,,X V Q F H G B L J M P D K C T S W R N Z,5e70491f899f5e63073e7fd4,24,Kobieta,2022-06-11_09h31.34.572,task,2021.1.4,MacIntel,59.99880002,6299f149e92ead563fba08ef,62a443f71c22fcf20a4ace66,,,,,,,,,,,,,,,,,,,,,,,,,,,,,,,,,,,,,,,,,,,,,,,,,,,,,,,,,,,,,,,,,,,,,,,,,,,,4,0,4,0,1,,,,,,,,,,,,,,,,,,,,,
,,,,,,,,,,,,5e70491f899f5e63073e7fd4,24,Kobieta,2022-06-11_09h31.34.572,task,2021.1.4,MacIntel,59.99880002,6299f149e92ead563fba08ef,62a443f71c22fcf20a4ace66,,,,,,,,,,,,,3,,,,,,,,,,Task,20,(18/9) + 1,3,,,,,,,,,,,,,,,,,,,1,,,,,,,,,,,,,,,,,,,,,,,"[""3""]",1,0,0,0,19,1,[2.484300000011899],,,,,,,,,,,,,,,,,,,,,,,,,,
,,,,,,,,,,,X V Q F H G B L J M P D K C T S W R N Z,5e70491f899f5e63073e7fd4,24,Kobieta,2022-06-11_09h31.34.572,task,2021.1.4,MacIntel,59.99880002,6299f149e92ead563fba08ef,62a443f71c22fcf20a4ace66,,,,,,,,,,,,,,,,,,,,,,,,,,,,,,,,,,,,,,,,,,,,,,,,,,,,,,,,,,,,,,,,,,,,,,,,,,,,5,0,5,0,1,,,,,,,,,,,,,,,,,,,,,
,,,,,,,,,,,,5e70491f899f5e63073e7fd4,24,Kobieta,2022-06-11_09h31.34.572,task,2021.1.4,MacIntel,59.99880002,6299f149e92ead563fba08ef,62a443f71c22fcf20a4ace66,,,,,,,,,,,,,4,,,,,,,,,,Task,11,(18/3) - 2,4,,,,,,,,,,,,,,,,,,,1,,,,,,,,,,,,,,,,,,,,,,,"[""4""]",1,0,0,0,10,1,[3.736100000023839],,,,,,,,,,,,,,,,,,,,,,,,,,
,,,,,,,,,,,X V Q F H G B L J M P D K C T S W R N Z,5e70491f899f5e63073e7fd4,24,Kobieta,2022-06-11_09h31.34.572,task,2021.1.4,MacIntel,59.99880002,6299f149e92ead563fba08ef,62a443f71c22fcf20a4ace66,,,,,,,,,,,,,,,,,,,,,,,,,,,,,,,,,,,,,,,,,,,,,,,,,,,,,,,,,,,,,,,,,,,,,,,,,,,,6,0,6,0,1,,,,,,,,,,,,,,,,,,,,,
,,,,,,,,,,,,5e70491f899f5e63073e7fd4,24,Kobieta,2022-06-11_09h31.34.572,task,2021.1.4,MacIntel,59.99880002,6299f149e92ead563fba08ef,62a443f71c22fcf20a4ace66,,,,,,,,,,,,,,,,,,,,,,,,,,,,,,,,,,,,,,,,,,,,,,,,,,,,,,,,,,,,,,,,,,,,,,,,,,,,,,,,,bjvtpfs,"[""b"",""j"",""v"",""t"",""p"",""f"",""s""]",0,"[1.268300000011891,1.7066000000238546,2.1224999999999454,2.4347000000476555,3.024499999999989,5.4181000000238555,6.090100000023881,7.0187000000477155]",1,BJVTPFS,6,0,6,0,1,,,,,,,,,,
,,,,,,,,,,,,5e70491f899f5e63073e7fd4,24,Kobieta,2022-06-11_09h31.34.572,task,2021.1.4,MacIntel,59.99880002,6299f149e92ead563fba08ef,62a443f71c22fcf20a4ace66,,,,,,,,,,,,,7,,,,,,,,,,Task,14,(2x2) + 3,7,,,,,,,,,,,,,,,,,,,1,,,,,,,,,,,,,,,,,,,,,,,"[""7""]",1,0,0,0,13,1,[2.56430000001194],,,,,,,,,,,,,,,,,,,,,,,,,,
,,,,,,,,,,,X V Q F H G B L J M P D K C T S W R N Z,5e70491f899f5e63073e7fd4,24,Kobieta,2022-06-11_09h31.34.572,task,2021.1.4,MacIntel,59.99880002,6299f149e92ead563fba08ef,62a443f71c22fcf20a4ace66,,,,,,,,,,,,,,,,,,,,,,,,,,,,,,,,,,,,,,,,,,,,,,,,,,,,,,,,,,,,,,,,,,,,,,,,,,,,0,0,0,0,1,,,,,,,,,,,,,,,,,,,,,
,,,,,,,,,,,,5e70491f899f5e63073e7fd4,24,Kobieta,2022-06-11_09h31.34.572,task,2021.1.4,MacIntel,59.99880002,6299f149e92ead563fba08ef,62a443f71c22fcf20a4ace66,,,,,,,,,,,,,4,,,,,,,,,,Task,28,(2x5) - 6,4,,,,,,,,,,,,,,,,,,,1,,,,,,,,,,,,,,,,,,,,,,,"[""4""]",1,0,0,0,27,1,[1.9018999999761945],,,,,,,,,,,,,,,,,,,,,,,,,,
,,,,,,,,,,,X V Q F H G B L J M P D K C T S W R N Z,5e70491f899f5e63073e7fd4,24,Kobieta,2022-06-11_09h31.34.572,task,2021.1.4,MacIntel,59.99880002,6299f149e92ead563fba08ef,62a443f71c22fcf20a4ace66,,,,,,,,,,,,,,,,,,,,,,,,,,,,,,,,,,,,,,,,,,,,,,,,,,,,,,,,,,,,,,,,,,,,,,,,,,,,1,0,1,0,1,,,,,,,,,,,,,,,,,,,,,
,,,,,,,,,,,,5e70491f899f5e63073e7fd4,24,Kobieta,2022-06-11_09h31.34.572,task,2021.1.4,MacIntel,59.99880002,6299f149e92ead563fba08ef,62a443f71c22fcf20a4ace66,,,,,,,,,,,,,8,,,,,,,,,,Task,23,(2x3) + 2,8,,,,,,,,,,,,,,,,,,,1,,,,,,,,,,,,,,,,,,,,,,,"[""8""]",1,0,0,0,22,1,[2.249100000023759],,,,,,,,,,,,,,,,,,,,,,,,,,
,,,,,,,,,,,X V Q F H G B L J M P D K C T S W R N Z,5e70491f899f5e63073e7fd4,24,Kobieta,2022-06-11_09h31.34.572,task,2021.1.4,MacIntel,59.99880002,6299f149e92ead563fba08ef,62a443f71c22fcf20a4ace66,,,,,,,,,,,,,,,,,,,,,,,,,,,,,,,,,,,,,,,,,,,,,,,,,,,,,,,,,,,,,,,,,,,,,,,,,,,,2,0,2,0,1,,,,,,,,,,,,,,,,,,,,,
,,,,,,,,,,,,5e70491f899f5e63073e7fd4,24,Kobieta,2022-06-11_09h31.34.572,task,2021.1.4,MacIntel,59.99880002,6299f149e92ead563fba08ef,62a443f71c22fcf20a4ace66,,,,,,,,,,,,,1,,,,,,,,,,Task,9,(3x7) - 20,1,,,,,,,,,,,,,,,,,,,1,,,,,,,,,,,,,,,,,,,,,,,"[""1""]",1,0,0,0,8,1,[3.2361999999881164],,,,,,,,,,,,,,,,,,,,,,,,,,
,,,,,,,,,,,X V Q F H G B L J M P D K C T S W R N Z,5e70491f899f5e63073e7fd4,24,Kobieta,2022-06-11_09h31.34.572,task,2021.1.4,MacIntel,59.99880002,6299f149e92ead563fba08ef,62a443f71c22fcf20a4ace66,,,,,,,,,,,,,,,,,,,,,,,,,,,,,,,,,,,,,,,,,,,,,,,,,,,,,,,,,,,,,,,,,,,,,,,,,,,,3,0,3,0,1,,,,,,,,,,,,,,,,,,,,,
,,,,,,,,,,,,5e70491f899f5e63073e7fd4,24,Kobieta,2022-06-11_09h31.34.572,task,2021.1.4,MacIntel,59.99880002,6299f149e92ead563fba08ef,62a443f71c22fcf20a4ace66,,,,,,,,,,,,,7,,,,,,,,,,Task,38,(4x6) - 17,7,,,,,,,,,,,,,,,,,,,1,,,,,,,,,,,,,,,,,,,,,,,"[""7""]",1,0,0,0,37,1,[3.7331999999881873],,,,,,,,,,,,,,,,,,,,,,,,,,
,,,,,,,,,,,X V Q F H G B L J M P D K C T S W R N Z,5e70491f899f5e63073e7fd4,24,Kobieta,2022-06-11_09h31.34.572,task,2021.1.4,MacIntel,59.99880002,6299f149e92ead563fba08ef,62a443f71c22fcf20a4ace66,,,,,,,,,,,,,,,,,,,,,,,,,,,,,,,,,,,,,,,,,,,,,,,,,,,,,,,,,,,,,,,,,,,,,,,,,,,,4,0,4,0,1,,,,,,,,,,,,,,,,,,,,,
,,,,,,,,,,,,5e70491f899f5e63073e7fd4,24,Kobieta,2022-06-11_09h31.34.572,task,2021.1.4,MacIntel,59.99880002,6299f149e92ead563fba08ef,62a443f71c22fcf20a4ace66,,,,,,,,,,,,,7,,,,,,,,,,Task,38,(4x6) - 17,7,,,,,,,,,,,,,,,,,,,1,,,,,,,,,,,,,,,,,,,,,,,"[""7""]",1,0,0,0,37,1,[3.2057000000477274],,,,,,,,,,,,,,,,,,,,,,,,,,
,,,,,,,,,,,X V Q F H G B L J M P D K C T S W R N Z,5e70491f899f5e63073e7fd4,24,Kobieta,2022-06-11_09h31.34.572,task,2021.1.4,MacIntel,59.99880002,6299f149e92ead563fba08ef,62a443f71c22fcf20a4ace66,,,,,,,,,,,,,,,,,,,,,,,,,,,,,,,,,,,,,,,,,,,,,,,,,,,,,,,,,,,,,,,,,,,,,,,,,,,,5,0,5,0,1,,,,,,,,,,,,,,,,,,,,,
,,,,,,,,,,,,5e70491f899f5e63073e7fd4,24,Kobieta,2022-06-11_09h31.34.572,task,2021.1.4,MacIntel,59.99880002,6299f149e92ead563fba08ef,62a443f71c22fcf20a4ace66,,,,,,,,,,,,,3,,,,,,,,,,Task,3,(2x3) - 3,3,,,,,,,,,,,,,,,,,,,1,,,,,,,,,,,,,,,,,,,,,,,"[""3""]",1,0,0,0,2,1,[2.286999999999921],,,,,,,,,,,,,,,,,,,,,,,,,,
,,,,,,,,,,,X V Q F H G B L J M P D K C T S W R N Z,5e70491f899f5e63073e7fd4,24,Kobieta,2022-06-11_09h31.34.572,task,2021.1.4,MacIntel,59.99880002,6299f149e92ead563fba08ef,62a443f71c22fcf20a4ace66,,,,,,,,,,,,,,,,,,,,,,,,,,,,,,,,,,,,,,,,,,,,,,,,,,,,,,,,,,,,,,,,,,,,,,,,,,,,6,0,6,0,1,,,,,,,,,,,,,,,,,,,,,
,,,,,,,,,,,,5e70491f899f5e63073e7fd4,24,Kobieta,2022-06-11_09h31.34.572,task,2021.1.4,MacIntel,59.99880002,6299f149e92ead563fba08ef,62a443f71c22fcf20a4ace66,,,,,,,,,,,,,9,,,,,,,,,,Task,24,(2x2) + 5,9,,,,,,,,,,,,,,,,,,,1,,,,,,,,,,,,,,,,,,,,,,,"[""9""]",1,0,0,0,23,1,[3.267700000047739],,,,,,,,,,,,,,,,,,,,,,,,,,
,,,,,,,,,,,X V Q F H G B L J M P D K C T S W R N Z,5e70491f899f5e63073e7fd4,24,Kobieta,2022-06-11_09h31.34.572,task,2021.1.4,MacIntel,59.99880002,6299f149e92ead563fba08ef,62a443f71c22fcf20a4ace66,,,,,,,,,,,,,,,,,,,,,,,,,,,,,,,,,,,,,,,,,,,,,,,,,,,,,,,,,,,,,,,,,,,,,,,,,,,,7,0,7,0,1,,,,,,,,,,,,,,,,,,,,,
,,,,,,,,,,,,5e70491f899f5e63073e7fd4,24,Kobieta,2022-06-11_09h31.34.572,task,2021.1.4,MacIntel,59.99880002,6299f149e92ead563fba08ef,62a443f71c22fcf20a4ace66,,,,,,,,,,,,,,,,,,,,,,,,,,,,,,,,,,,,,,,,,,,,,,,,,,,,,,,,,,,,,,,,,,,,,,,,,,,,,,,,,gbncmvq,"[""g"",""b"",""n"",""c"",""m"",""v"",""q""]",0,"[1.9483000000119546,2.3376000000238264,2.6743000000119537,3.3891999999881364,6.3351000000238855,6.86019999998814,8.486400000035815,11.142000000000053]",0,GBNCMWQQ,7,0,7,0,1,,,,,,,,,,
,,,,,,,,,,,,5e70491f899f5e63073e7fd4,24,Kobieta,2022-06-11_09h31.34.572,task,2021.1.4,MacIntel,59.99880002,6299f149e92ead563fba08ef,62a443f71c22fcf20a4ace66,,,,,,,,,,,,,4,,,,,,,,,,Task,11,(18/3) - 2,4,,,,,,,,,,,,,,,,,,,1,,,,,,,,,,,,,,,,,,,,,,,"[""4""]",1,0,0,0,10,1,[2.600999999999999],,,,,,,,,,,,,,,,,,,,,,,,,,
,,,,,,,,,,,X V Q F H G B L J M P D K C T S W R N Z,5e70491f899f5e63073e7fd4,24,Kobieta,2022-06-11_09h31.34.572,task,2021.1.4,MacIntel,59.99880002,6299f149e92ead563fba08ef,62a443f71c22fcf20a4ace66,,,,,,,,,,,,,,,,,,,,,,,,,,,,,,,,,,,,,,,,,,,,,,,,,,,,,,,,,,,,,,,,,,,,,,,,,,,,0,0,0,0,1,,,,,,,,,,,,,,,,,,,,,
,,,,,,,,,,,,5e70491f899f5e63073e7fd4,24,Kobieta,2022-06-11_09h31.34.572,task,2021.1.4,MacIntel,59.99880002,6299f149e92ead563fba08ef,62a443f71c22fcf20a4ace66,,,,,,,,,,,,,0,,,,,,,,,,Task,25,(10/5) - 2,0,,,,,,,,,,,,,,,,,,,1,,,,,,,,,,,,,,,,,,,,,,,"[""0""]",1,0,0,0,24,1,[2.515300000011962],,,,,,,,,,,,,,,,,,,,,,,,,,
,,,,,,,,,,,X V Q F H G B L J M P D K C T S W R N Z,5e70491f899f5e63073e7fd4,24,Kobieta,2022-06-11_09h31.34.572,task,2021.1.4,MacIntel,59.99880002,6299f149e92ead563fba08ef,62a443f71c22fcf20a4ace66,,,,,,,,,,,,,,,,,,,,,,,,,,,,,,,,,,,,,,,,,,,,,,,,,,,,,,,,,,,,,,,,,,,,,,,,,,,,1,0,1,0,1,,,,,,,,,,,,,,,,,,,,,
,,,,,,,,,,,,5e70491f899f5e63073e7fd4,24,Kobieta,2022-06-11_09h31.34.572,task,2021.1.4,MacIntel,59.99880002,6299f149e92ead563fba08ef,62a443f71c22fcf20a4ace66,,,,,,,,,,,,,1,,,,,,,,,,Task,9,(3x7) - 20,1,,,,,,,,,,,,,,,,,,,1,,,,,,,,,,,,,,,,,,,,,,,"[""1""]",1,0,0,0,8,1,[2.081799999952409],,,,,,,,,,,,,,,,,,,,,,,,,,
,,,,,,,,,,,X V Q F H G B L J M P D K C T S W R N Z,5e70491f899f5e63073e7fd4,24,Kobieta,2022-06-11_09h31.34.572,task,2021.1.4,MacIntel,59.99880002,6299f149e92ead563fba08ef,62a443f71c22fcf20a4ace66,,,,,,,,,,,,,,,,,,,,,,,,,,,,,,,,,,,,,,,,,,,,,,,,,,,,,,,,,,,,,,,,,,,,,,,,,,,,2,0,2,0,1,,,,,,,,,,,,,,,,,,,,,
,,,,,,,,,,,,5e70491f899f5e63073e7fd4,24,Kobieta,2022-06-11_09h31.34.572,task,2021.1.4,MacIntel,59.99880002,6299f149e92ead563fba08ef,62a443f71c22fcf20a4ace66,,,,,,,,,,,,,6,,,,,,,,,,Task,5,(2x3) + 0,6,,,,,,,,,,,,,,,,,,,1,,,,,,,,,,,,,,,,,,,,,,,"[""6""]",1,0,0,0,4,1,[1.9671000000238337],,,,,,,,,,,,,,,,,,,,,,,,,,
,,,,,,,,,,,X V Q F H G B L J M P D K C T S W R N Z,5e70491f899f5e63073e7fd4,24,Kobieta,2022-06-11_09h31.34.572,task,2021.1.4,MacIntel,59.99880002,6299f149e92ead563fba08ef,62a443f71c22fcf20a4ace66,,,,,,,,,,,,,,,,,,,,,,,,,,,,,,,,,,,,,,,,,,,,,,,,,,,,,,,,,,,,,,,,,,,,,,,,,,,,3,0,3,0,1,,,,,,,,,,,,,,,,,,,,,
,,,,,,,,,,,,5e70491f899f5e63073e7fd4,24,Kobieta,2022-06-11_09h31.34.572,task,2021.1.4,MacIntel,59.99880002,6299f149e92ead563fba08ef,62a443f71c22fcf20a4ace66,,,,,,,,,,,,,6,,,,,,,,,,Task,5,(2x3) + 0,6,,,,,,,,,,,,,,,,,,,1,,,,,,,,,,,,,,,,,,,,,,,"[""6""]",1,0,0,0,4,1,[2.23519999998814],,,,,,,,,,,,,,,,,,,,,,,,,,
,,,,,,,,,,,X V Q F H G B L J M P D K C T S W R N Z,5e70491f899f5e63073e7fd4,24,Kobieta,2022-06-11_09h31.34.572,task,2021.1.4,MacIntel,59.99880002,6299f149e92ead563fba08ef,62a443f71c22fcf20a4ace66,,,,,,,,,,,,,,,,,,,,,,,,,,,,,,,,,,,,,,,,,,,,,,,,,,,,,,,,,,,,,,,,,,,,,,,,,,,,4,0,4,0,1,,,,,,,,,,,,,,,,,,,,,
,,,,,,,,,,,,5e70491f899f5e63073e7fd4,24,Kobieta,2022-06-11_09h31.34.572,task,2021.1.4,MacIntel,59.99880002,6299f149e92ead563fba08ef,62a443f71c22fcf20a4ace66,,,,,,,,,,,,,3,,,,,,,,,,Task,27,(3/3) + 2,3,,,,,,,,,,,,,,,,,,,1,,,,,,,,,,,,,,,,,,,,,,,"[""3""]",1,0,0,0,26,1,[3.616199999988112],,,,,,,,,,,,,,,,,,,,,,,,,,
,,,,,,,,,,,X V Q F H G B L J M P D K C T S W R N Z,5e70491f899f5e63073e7fd4,24,Kobieta,2022-06-11_09h31.34.572,task,2021.1.4,MacIntel,59.99880002,6299f149e92ead563fba08ef,62a443f71c22fcf20a4ace66,,,,,,,,,,,,,,,,,,,,,,,,,,,,,,,,,,,,,,,,,,,,,,,,,,,,,,,,,,,,,,,,,,,,,,,,,,,,5,0,5,0,1,,,,,,,,,,,,,,,,,,,,,
,,,,,,,,,,,,5e70491f899f5e63073e7fd4,24,Kobieta,2022-06-11_09h31.34.572,task,2021.1.4,MacIntel,59.99880002,6299f149e92ead563fba08ef,62a443f71c22fcf20a4ace66,,,,,,,,,,,,,2,,,,,,,,,,Task,19,(6/2) - 1,2,,,,,,,,,,,,,,,,,,,1,,,,,,,,,,,,,,,,,,,,,,,"[""2""]",1,0,0,0,18,1,[2.379799999952297],,,,,,,,,,,,,,,,,,,,,,,,,,
,,,,,,,,,,,X V Q F H G B L J M P D K C T S W R N Z,5e70491f899f5e63073e7fd4,24,Kobieta,2022-06-11_09h31.34.572,task,2021.1.4,MacIntel,59.99880002,6299f149e92ead563fba08ef,62a443f71c22fcf20a4ace66,,,,,,,,,,,,,,,,,,,,,,,,,,,,,,,,,,,,,,,,,,,,,,,,,,,,,,,,,,,,,,,,,,,,,,,,,,,,6,0,6,0,1,,,,,,,,,,,,,,,,,,,,,
,,,,,,,,,,,,5e70491f899f5e63073e7fd4,24,Kobieta,2022-06-11_09h31.34.572,task,2021.1.4,MacIntel,59.99880002,6299f149e92ead563fba08ef,62a443f71c22fcf20a4ace66,,,,,,,,,,,,,1,,,,,,,,,,Task,9,(3x7) - 20,1,,,,,,,,,,,,,,,,,,,1,,,,,,,,,,,,,,,,,,,,,,,"[""1""]",1,0,0,0,8,1,[1.8885999999641854],,,,,,,,,,,,,,,,,,,,,,,,,,
,,,,,,,,,,,X V Q F H G B L J M P D K C T S W R N Z,5e70491f899f5e63073e7fd4,24,Kobieta,2022-06-11_09h31.34.572,task,2021.1.4,MacIntel,59.99880002,6299f149e92ead563fba08ef,62a443f71c22fcf20a4ace66,,,,,,,,,,,,,,,,,,,,,,,,,,,,,,,,,,,,,,,,,,,,,,,,,,,,,,,,,,,,,,,,,,,,,,,,,,,,7,0,7,0,1,,,,,,,,,,,,,,,,,,,,,
,,,,,,,,,,,,5e70491f899f5e63073e7fd4,24,Kobieta,2022-06-11_09h31.34.572,task,2021.1.4,MacIntel,59.99880002,6299f149e92ead563fba08ef,62a443f71c22fcf20a4ace66,,,,,,,,,,,,,,,,,,,,,,,,,,,,,,,,,,,,,,,,,,,,,,,,,,,,,,,,,,,,,,,,,,,,,,,,,,,,,,,,,jtpnwqk,"[""j"",""t"",""p"",""n"",""w"",""q"",""k""]",0,"[1.3685999999642036,1.9915999999642509,2.3223999999761418,3.655199999988099,8.418399999976145,11.301499999999919,11.534999999999968,12.508699999988039]",0,JTPTNHPK,8,0,8,0,1,,,,,,,,,,
,,,,,,,,,,,,5e70491f899f5e63073e7fd4,24,Kobieta,2022-06-11_09h31.34.572,task,2021.1.4,MacIntel,59.99880002,6299f149e92ead563fba08ef,62a443f71c22fcf20a4ace66,,,,,,,,,,,,,,,,,,,,,,,,,,,,,,,,,,,,,,,,,,,,,,,,,,,,,,,,,,,,,,,,,,,,,,,,,,,,,,,,,,,,,,,,,,,,"[""comma""]",0,[0.9773000000119509],0,0,0,0,1,,
,,,,,,,,,,,,5e70491f899f5e63073e7fd4,24,Kobieta,2022-06-11_09h31.34.572,task,2021.1.4,MacIntel,59.99880002,6299f149e92ead563fba08ef,62a443f71c22fcf20a4ace66,,,,,,,,,,,,,,,,,,,,,,,,,,,,,,,,,,,,,,,,,,,,,,,,,,,,,,,,,,,,,,,,,,,,,,,,,,,,,,,,,,,,,,,,,,,,"[""comma""]",0,[0.5710000000000264],1,0,1,0,1,,
,,,,,,,,,,,,5e70491f899f5e63073e7fd4,24,Kobieta,2022-06-11_09h31.34.572,task,2021.1.4,MacIntel,59.99880002,6299f149e92ead563fba08ef,62a443f71c22fcf20a4ace66,,,,,,,,,,,,,,,,,,,,,,,,,,,,,,,,,,,,,,,,,,,,,,,,,,,,,,,,,,,,,,,,,,,,,,,,,,,,,,,,,,,,,,,,,,,,"[""period""]",0,[0.5196999999880063],2,0,2,0,1,,
,,,,,,,,,,,,5e70491f899f5e63073e7fd4,24,Kobieta,2022-06-11_09h31.34.572,task,2021.1.4,MacIntel,59.99880002,6299f149e92ead563fba08ef,62a443f71c22fcf20a4ace66,,,,,,,,,,,,,,,,,,,,,,,,,,,,,,,,,,,,,,,,,,,,,,,,,,,,,,,,,,,,,,,,,,,,,,,,,,,,,,,,,,,,,,,,,,,,"[""period""]",0,[0.5613999999760608],3,0,3,0,1,,
,,,,,,,,,,,,5e70491f899f5e63073e7fd4,24,Kobieta,2022-06-11_09h31.34.572,task,2021.1.4,MacIntel,59.99880002,6299f149e92ead563fba08ef,62a443f71c22fcf20a4ace66,,,,,,,,,,,,,,,,,,,,,,,,,,,,,,,,,,,,,,,,,,,,,,,,,,,,,,,,,,,,,,,,,,,,,,,,,,,,,,,,,,,,,,,,,,,,"[""period""]",0,[0.7524999999999409],4,0,4,0,1,,
,,,,,,,,,,,,5e70491f899f5e63073e7fd4,24,Kobieta,2022-06-11_09h31.34.572,task,2021.1.4,MacIntel,59.99880002,6299f149e92ead563fba08ef,62a443f71c22fcf20a4ace66,,,,,,,,,,,,,,,,,,,,,,,,,,,,,,,,,,,,,,,,,,,,,,,,,,,,,,,,,,,,,,,,,,,,,,,,,,,,,,,,,,,,,,,,,,,,"[""comma""]",0,[0.38550000000009277],5,0,5,0,1,,
,,,,,,,,,,,,5e70491f899f5e63073e7fd4,24,Kobieta,2022-06-11_09h31.34.572,task,2021.1.4,MacIntel,59.99880002,6299f149e92ead563fba08ef,62a443f71c22fcf20a4ace66,,,,,,,,,,,,,,,,,,,,,,,,,,,,,,,,,,,,,,,,,,,,,,,,,,,,,,,,,,,,,,,,,,,,,,,,,,,,,,,,,,,,,,,,,,,,"[""period""]",0,[0.38510000002384004],6,0,6,0,1,,
,,,,,,,,,,,,5e70491f899f5e63073e7fd4,24,Kobieta,2022-06-11_09h31.34.572,task,2021.1.4,MacIntel,59.99880002,6299f149e92ead563fba08ef,62a443f71c22fcf20a4ace66,,,,,,,,,,,,,,,,,,,,,,,,,,,,,,,,,,,,,,,,,,,,,,,,,,,,,,,,,,,,,,,,,,,,,,,,,,,,,,,,,,,,,,,,,,,,"[""comma""]",0,[0.34410000002390007],7,0,7,0,1,,
,,,,,,,,,,,,5e70491f899f5e63073e7fd4,24,Kobieta,2022-06-11_09h31.34.572,task,2021.1.4,MacIntel,59.99880002,6299f149e92ead563fba08ef,62a443f71c22fcf20a4ace66,,,,,,,,,,,,,,,,,,,,,,,,,,,,,,,,,,,,,,,,,,,,,,,,,,,,,,,,,,,,,,,,,,,,,,,,,,,,,,,,,,,,,,,,,,,,"[""comma""]",0,[0.28579999995235994],8,0,8,0,1,,
,,,,,,,,,,,,5e70491f899f5e63073e7fd4,24,Kobieta,2022-06-11_09h31.34.572,task,2021.1.4,MacIntel,59.99880002,6299f149e92ead563fba08ef,62a443f71c22fcf20a4ace66,,,,,,,,,,,,,,,,,,,,,,,,,,,,,,,,,,,,,,,,,,,,,,,,,,,,,,,,,,,,,,,,,,,,,,,,,,,,,,,,,,,,,,,,,,,,"[""comma""]",0,[0.2880000000000109],9,0,9,0,1,,
,,,,,,,,,,,,5e70491f899f5e63073e7fd4,24,Kobieta,2022-06-11_09h31.34.572,task,2021.1.4,MacIntel,59.99880002,6299f149e92ead563fba08ef,62a443f71c22fcf20a4ace66,,,,,,,,,,,,,,,,,,,,,,,,,,,,,,,,,,,,,,,,,,,,,,,,,,,,,,,,,,,,,,,,,,,,,,,,,,,,,,,,,,,,,,,,,,,,"[""comma""]",0,[0.3350999999643136],10,0,10,0,1,,
,,,,,,,,,,,,5e70491f899f5e63073e7fd4,24,Kobieta,2022-06-11_09h31.34.572,task,2021.1.4,MacIntel,59.99880002,6299f149e92ead563fba08ef,62a443f71c22fcf20a4ace66,,,,,,,,,,,,,,,,,,,,,,,,,,,,,,,,,,,,,,,,,,,,,,,,,,,,,,,,,,,,,,,,,,,,,,,,,,,,,,,,,,,,,,,,,,,,"[""period""]",0,[0.0051999999880081305],11,0,11,0,1,,
,,,,,,,,,,,,5e70491f899f5e63073e7fd4,24,Kobieta,2022-06-11_09h31.34.572,task,2021.1.4,MacIntel,59.99880002,6299f149e92ead563fba08ef,62a443f71c22fcf20a4ace66,,,,,,,,,,,,,,,,,,,,,,,,,,,,,,,,,,,,,,,,,,,,,,,,,,,,,,,,,,,,,,,,,,,,,,,,,,,,,,,,,,,,,,,,,,,,"[""period""]",0,[0.33400000000006],12,0,12,0,1,,
,,,,,,,,,,,,5e70491f899f5e63073e7fd4,24,Kobieta,2022-06-11_09h31.34.572,task,2021.1.4,MacIntel,59.99880002,6299f149e92ead563fba08ef,62a443f71c22fcf20a4ace66,,,,,,,,,,,,,,,,,,,,,,,,,,,,,,,,,,,,,,,,,,,,,,,,,,,,,,,,,,,,,,,,,,,,,,,,,,,,,,,,,,,,,,,,,,,,"[""period""]",0,[0.37430000001188546],13,0,13,0,1,,
,,,,,,,,,,,,5e70491f899f5e63073e7fd4,24,Kobieta,2022-06-11_09h31.34.572,task,2021.1.4,MacIntel,59.99880002,6299f149e92ead563fba08ef,62a443f71c22fcf20a4ace66,,,,,,,,,,,,,,,,,,,,,,,,,,,,,,,,,,,,,,,,,,,,,,,,,,,,,,,,,,,,,,,,,,,,,,,,,,,,,,,,,,,,,,,,,,,,"[""comma""]",0,[0.018100000023878238],14,0,14,0,1,,
,,,,,,,,,,,,5e70491f899f5e63073e7fd4,24,Kobieta,2022-06-11_09h31.34.572,task,2021.1.4,MacIntel,59.99880002,6299f149e92ead563fba08ef,62a443f71c22fcf20a4ace66,,,,,,,,,,,,,,,,,,,,,,,,,,,,,,,,,,,,,,,,,,,,,,,,,,,,,,,,,,,,,,,,,,,,,,,,,,,,,,,,,,,,,,,,,,,,"[""period""]",0,[0.4079000000358519],15,0,15,0,1,,
,,,,,,,,,,,,5e70491f899f5e63073e7fd4,24,Kobieta,2022-06-11_09h31.34.572,task,2021.1.4,MacIntel,59.99880002,6299f149e92ead563fba08ef,62a443f71c22fcf20a4ace66,,,,,,,,,,,,,,,,,,,,,,,,,,,,,,,,,,,,,,,,,,,,,,,,,,,,,,,,,,,,,,,,,,,,,,,,,,,,,,,,,,,,,,,,,,,,"[""period""]",0,[0.40080000001182725],16,0,16,0,1,,
,,,,,,,,,,,,5e70491f899f5e63073e7fd4,24,Kobieta,2022-06-11_09h31.34.572,task,2021.1.4,MacIntel,59.99880002,6299f149e92ead563fba08ef,62a443f71c22fcf20a4ace66,,,,,,,,,,,,,,,,,,,,,,,,,,,,,,,,,,,,,,,,,,,,,,,,,,,,,,,,,,,,,,,,,,,,,,,,,,,,,,,,,,,,,,,,,,,,"[""comma""]",0,[0.2442999999523181],17,0,17,0,1,,
,,,,,,,,,,,,5e70491f899f5e63073e7fd4,24,Kobieta,2022-06-11_09h31.34.572,task,2021.1.4,MacIntel,59.99880002,6299f149e92ead563fba08ef,62a443f71c22fcf20a4ace66,,,,,,,,,,,,,,,,,,,,,,,,,,,,,,,,,,,,,,,,,,,,,,,,,,,,,,,,,,,,,,,,,,,,,,,,,,,,,,,,,,,,,,,,,,,,"[""period""]",0,[0.2188999999762018],18,0,18,0,1,,
