key_resp_15.keys,key_resp_15.rt,key_resp_16.keys,key_resp_16.rt,key_resp_4.keys,key_resp_4.rt,next_letter.thisRepN,next_letter.thisTrialN,next_letter.thisN,next_letter.thisIndex,next_letter.ran,letter,participant,Wiek*,Płeć,date,expName,psychopyVersion,OS,frameRate,study_id,session,simple_recall,key_resp_5.keys,key_resp_5.rt,simple_recall_corr,simple_recall_corrkeys,next_level.thisRepN,next_level.thisTrialN,next_level.thisN,next_level.thisIndex,next_level.ran,key_resp_2.keys,key_resp_2.rt,digit_answer,key_resp.keys,key_resp.corr,key_resp.rt,RT_list,next_equation.thisRepN,next_equation.thisTrialN,next_equation.thisN,next_equation.thisIndex,next_equation.ran,Task,Trial,Problem,Operation_answer,processing_score,sumRT,meanRT,sumdiff,sd,RT,key_resp_3.keys,key_resp_3.rt,repeat_practice.thisRepN,repeat_practice.thisTrialN,repeat_practice.thisN,repeat_practice.thisIndex,repeat_practice.ran,key_resp_6.keys,key_resp_6.rt,key_resp_11.keys,key_resp_11.corr,key_resp_11.rt,operation_correct,repeat_if_wrong_prac.thisRepN,repeat_if_wrong_prac.thisTrialN,repeat_if_wrong_prac.thisN,repeat_if_wrong_prac.thisIndex,repeat_if_wrong_prac.ran,span_size_prac.thisRepN,span_size_prac.thisTrialN,span_size_prac.thisN,span_size_prac.thisIndex,span_size_prac.ran,complex_recall_practice,key_resp_9.keys,key_resp_9.corr,key_resp_9.rt,complex_prac_corr,span_recall_prac.thisRepN,span_recall_prac.thisTrialN,span_recall_prac.thisN,span_recall_prac.thisIndex,span_recall_prac.ran,key_resp_10.keys,key_resp_10.rt,key_resp_7.keys,key_resp_7.corr,key_resp_7.rt,repeat_if_wrong.thisRepN,repeat_if_wrong.thisTrialN,repeat_if_wrong.thisN,repeat_if_wrong.thisIndex,repeat_if_wrong.ran,span_size.thisRepN,span_size.thisTrialN,span_size.thisN,span_size.thisIndex,span_size.ran,complex_recall,key_resp_8.keys,key_resp_8.corr,key_resp_8.rt,complex_recall_corr,complex_recall_corrkeys,span_recall.thisRepN,span_recall.thisTrialN,span_recall.thisN,span_recall.thisIndex,span_recall.ran,key_resp_13.keys,key_resp_13.corr,random_loop.thisRepN,random_loop.thisTrialN,random_loop.thisN,random_loop.thisIndex,random_loop.ran,key_resp_13.rt,key_resp_12.keys,key_resp_12.rt
space,17.9907,space,15.1012,space,2.702,0,0,0,0,1,X V Q F H G B L J M P D K C T S W R N Z,5e70ed7e77bbac01812979cf,26,Mężczyzna,2022-06-11_09h36.32.465,task,2021.1.4,Win32,59.70149254,6299f149e92ead563fba08ef,62a445d6d2dd1bef33832b08,,,,,,,,,,,,,,,,,,,,,,,,,,,,,,,,,,,,,,,,,,,,,,,,,,,,,,,,,,,,,,,,,,,,,,,,,,,,,,,,,,,,,,,,,,,,,,,,,,,,,
,,,,,,1,0,1,0,1,X V Q F H G B L J M P D K C T S W R N Z,5e70ed7e77bbac01812979cf,26,Mężczyzna,2022-06-11_09h36.32.465,task,2021.1.4,Win32,59.70149254,6299f149e92ead563fba08ef,62a445d6d2dd1bef33832b08,,,,,,,,,,,,,,,,,,,,,,,,,,,,,,,,,,,,,,,,,,,,,,,,,,,,,,,,,,,,,,,,,,,,,,,,,,,,,,,,,,,,,,,,,,,,,,,,,,,,,
,,,,,,,,,,,,5e70ed7e77bbac01812979cf,26,Mężczyzna,2022-06-11_09h36.32.465,task,2021.1.4,Win32,59.70149254,6299f149e92ead563fba08ef,62a445d6d2dd1bef33832b08,zk,"[""z"",""k""]","[2.0787999999523166,2.595299999952317,7.574799999952319]",1,ZK,0,0,0,0,1,,,,,,,,,,,,,,,,,,,,,,,,,,,,,,,,,,,,,,,,,,,,,,,,,,,,,,,,,,,,,,,,,,,,,,,,,,,,,,,,,,,,,,,,,,,
,,,,,,0,0,0,0,1,X V Q F H G B L J M P D K C T S W R N Z,5e70ed7e77bbac01812979cf,26,Mężczyzna,2022-06-11_09h36.32.465,task,2021.1.4,Win32,59.70149254,6299f149e92ead563fba08ef,62a445d6d2dd1bef33832b08,,,,,,,,,,,,,,,,,,,,,,,,,,,,,,,,,,,,,,,,,,,,,,,,,,,,,,,,,,,,,,,,,,,,,,,,,,,,,,,,,,,,,,,,,,,,,,,,,,,,,
,,,,,,1,0,1,0,1,X V Q F H G B L J M P D K C T S W R N Z,5e70ed7e77bbac01812979cf,26,Mężczyzna,2022-06-11_09h36.32.465,task,2021.1.4,Win32,59.70149254,6299f149e92ead563fba08ef,62a445d6d2dd1bef33832b08,,,,,,,,,,,,,,,,,,,,,,,,,,,,,,,,,,,,,,,,,,,,,,,,,,,,,,,,,,,,,,,,,,,,,,,,,,,,,,,,,,,,,,,,,,,,,,,,,,,,,
,,,,,,,,,,,,5e70ed7e77bbac01812979cf,26,Mężczyzna,2022-06-11_09h36.32.465,task,2021.1.4,Win32,59.70149254,6299f149e92ead563fba08ef,62a445d6d2dd1bef33832b08,b,"[""b""]","[3.3739999999999952,4.617099999964239]",0,KB,1,0,1,0,1,,,,,,,,,,,,,,,,,,,,,,,,,,,,,,,,,,,,,,,,,,,,,,,,,,,,,,,,,,,,,,,,,,,,,,,,,,,,,,,,,,,,,,,,,,,
,,,,,,0,0,0,0,1,X V Q F H G B L J M P D K C T S W R N Z,5e70ed7e77bbac01812979cf,26,Mężczyzna,2022-06-11_09h36.32.465,task,2021.1.4,Win32,59.70149254,6299f149e92ead563fba08ef,62a445d6d2dd1bef33832b08,,,,,,,,,,,,,,,,,,,,,,,,,,,,,,,,,,,,,,,,,,,,,,,,,,,,,,,,,,,,,,,,,,,,,,,,,,,,,,,,,,,,,,,,,,,,,,,,,,,,,
,,,,,,1,0,1,0,1,X V Q F H G B L J M P D K C T S W R N Z,5e70ed7e77bbac01812979cf,26,Mężczyzna,2022-06-11_09h36.32.465,task,2021.1.4,Win32,59.70149254,6299f149e92ead563fba08ef,62a445d6d2dd1bef33832b08,,,,,,,,,,,,,,,,,,,,,,,,,,,,,,,,,,,,,,,,,,,,,,,,,,,,,,,,,,,,,,,,,,,,,,,,,,,,,,,,,,,,,,,,,,,,,,,,,,,,,
,,,,,,,,,,,,5e70ed7e77bbac01812979cf,26,Mężczyzna,2022-06-11_09h36.32.465,task,2021.1.4,Win32,59.70149254,6299f149e92ead563fba08ef,62a445d6d2dd1bef33832b08,nf,"[""n"",""f""]","[0.7824999999999989,1.1067999999523153,1.5417999999523175]",1,NF,2,0,2,0,1,,,,,,,,,,,,,,,,,,,,,,,,,,,,,,,,,,,,,,,,,,,,,,,,,,,,,,,,,,,,,,,,,,,,,,,,,,,,,,,,,,,,,,,,,,,
,,,,,,0,0,0,0,1,X V Q F H G B L J M P D K C T S W R N Z,5e70ed7e77bbac01812979cf,26,Mężczyzna,2022-06-11_09h36.32.465,task,2021.1.4,Win32,59.70149254,6299f149e92ead563fba08ef,62a445d6d2dd1bef33832b08,,,,,,,,,,,,,,,,,,,,,,,,,,,,,,,,,,,,,,,,,,,,,,,,,,,,,,,,,,,,,,,,,,,,,,,,,,,,,,,,,,,,,,,,,,,,,,,,,,,,,
,,,,,,1,0,1,0,1,X V Q F H G B L J M P D K C T S W R N Z,5e70ed7e77bbac01812979cf,26,Mężczyzna,2022-06-11_09h36.32.465,task,2021.1.4,Win32,59.70149254,6299f149e92ead563fba08ef,62a445d6d2dd1bef33832b08,,,,,,,,,,,,,,,,,,,,,,,,,,,,,,,,,,,,,,,,,,,,,,,,,,,,,,,,,,,,,,,,,,,,,,,,,,,,,,,,,,,,,,,,,,,,,,,,,,,,,
,,,,,,2,0,2,0,1,X V Q F H G B L J M P D K C T S W R N Z,5e70ed7e77bbac01812979cf,26,Mężczyzna,2022-06-11_09h36.32.465,task,2021.1.4,Win32,59.70149254,6299f149e92ead563fba08ef,62a445d6d2dd1bef33832b08,,,,,,,,,,,,,,,,,,,,,,,,,,,,,,,,,,,,,,,,,,,,,,,,,,,,,,,,,,,,,,,,,,,,,,,,,,,,,,,,,,,,,,,,,,,,,,,,,,,,,
,,,,,,,,,,,,5e70ed7e77bbac01812979cf,26,Mężczyzna,2022-06-11_09h36.32.465,task,2021.1.4,Win32,59.70149254,6299f149e92ead563fba08ef,62a445d6d2dd1bef33832b08,vpl,"[""v"",""p"",""l""]","[0.6586999999880874,0.7746000000238524,0.9585000000000008,1.2805000000000035]",1,VPL,3,0,3,0,1,,,,,,,,,,,,,,,,,,,,,,,,,,,,,,,,,,,,,,,,,,,,,,,,,,,,,,,,,,,,,,,,,,,,,,,,,,,,,,,,,,,,,,,,,,,
,,,,,,0,0,0,0,1,X V Q F H G B L J M P D K C T S W R N Z,5e70ed7e77bbac01812979cf,26,Mężczyzna,2022-06-11_09h36.32.465,task,2021.1.4,Win32,59.70149254,6299f149e92ead563fba08ef,62a445d6d2dd1bef33832b08,,,,,,,,,,,,,,,,,,,,,,,,,,,,,,,,,,,,,,,,,,,,,,,,,,,,,,,,,,,,,,,,,,,,,,,,,,,,,,,,,,,,,,,,,,,,,,,,,,,,,
,,,,,,1,0,1,0,1,X V Q F H G B L J M P D K C T S W R N Z,5e70ed7e77bbac01812979cf,26,Mężczyzna,2022-06-11_09h36.32.465,task,2021.1.4,Win32,59.70149254,6299f149e92ead563fba08ef,62a445d6d2dd1bef33832b08,,,,,,,,,,,,,,,,,,,,,,,,,,,,,,,,,,,,,,,,,,,,,,,,,,,,,,,,,,,,,,,,,,,,,,,,,,,,,,,,,,,,,,,,,,,,,,,,,,,,,
,,,,,,2,0,2,0,1,X V Q F H G B L J M P D K C T S W R N Z,5e70ed7e77bbac01812979cf,26,Mężczyzna,2022-06-11_09h36.32.465,task,2021.1.4,Win32,59.70149254,6299f149e92ead563fba08ef,62a445d6d2dd1bef33832b08,,,,,,,,,,,,,,,,,,,,,,,,,,,,,,,,,,,,,,,,,,,,,,,,,,,,,,,,,,,,,,,,,,,,,,,,,,,,,,,,,,,,,,,,,,,,,,,,,,,,,
,,,,,,,,,,,,5e70ed7e77bbac01812979cf,26,Mężczyzna,2022-06-11_09h36.32.465,task,2021.1.4,Win32,59.70149254,6299f149e92ead563fba08ef,62a445d6d2dd1bef33832b08,mlj,"[""m"",""l"",""j""]","[0.5053999999761629,0.7210000000000036,0.9009999999999962,1.481499999999997]",1,MLJ,4,0,4,0,1,,,,,,,,,,,,,,,,,,,,,,,,,,,,,,,,,,,,,,,,,,,,,,,,,,,,,,,,,,,,,,,,,,,,,,,,,,,,,,,,,,,,,,,,,,,
,,,,,,0,0,0,0,1,X V Q F H G B L J M P D K C T S W R N Z,5e70ed7e77bbac01812979cf,26,Mężczyzna,2022-06-11_09h36.32.465,task,2021.1.4,Win32,59.70149254,6299f149e92ead563fba08ef,62a445d6d2dd1bef33832b08,,,,,,,,,,,,,,,,,,,,,,,,,,,,,,,,,,,,,,,,,,,,,,,,,,,,,,,,,,,,,,,,,,,,,,,,,,,,,,,,,,,,,,,,,,,,,,,,,,,,,
,,,,,,1,0,1,0,1,X V Q F H G B L J M P D K C T S W R N Z,5e70ed7e77bbac01812979cf,26,Mężczyzna,2022-06-11_09h36.32.465,task,2021.1.4,Win32,59.70149254,6299f149e92ead563fba08ef,62a445d6d2dd1bef33832b08,,,,,,,,,,,,,,,,,,,,,,,,,,,,,,,,,,,,,,,,,,,,,,,,,,,,,,,,,,,,,,,,,,,,,,,,,,,,,,,,,,,,,,,,,,,,,,,,,,,,,
,,,,,,2,0,2,0,1,X V Q F H G B L J M P D K C T S W R N Z,5e70ed7e77bbac01812979cf,26,Mężczyzna,2022-06-11_09h36.32.465,task,2021.1.4,Win32,59.70149254,6299f149e92ead563fba08ef,62a445d6d2dd1bef33832b08,,,,,,,,,,,,,,,,,,,,,,,,,,,,,,,,,,,,,,,,,,,,,,,,,,,,,,,,,,,,,,,,,,,,,,,,,,,,,,,,,,,,,,,,,,,,,,,,,,,,,
,,,,,,3,0,3,0,1,X V Q F H G B L J M P D K C T S W R N Z,5e70ed7e77bbac01812979cf,26,Mężczyzna,2022-06-11_09h36.32.465,task,2021.1.4,Win32,59.70149254,6299f149e92ead563fba08ef,62a445d6d2dd1bef33832b08,,,,,,,,,,,,,,,,,,,,,,,,,,,,,,,,,,,,,,,,,,,,,,,,,,,,,,,,,,,,,,,,,,,,,,,,,,,,,,,,,,,,,,,,,,,,,,,,,,,,,
,,,,,,,,,,,,5e70ed7e77bbac01812979cf,26,Mężczyzna,2022-06-11_09h36.32.465,task,2021.1.4,Win32,59.70149254,6299f149e92ead563fba08ef,62a445d6d2dd1bef33832b08,cgfk,"[""c"",""g"",""f"",""k""]","[0.4386999999880885,0.8066999999880835,1.0594999999999999,1.2662999999523237,1.6310000000000002]",1,CGFK,5,0,5,0,1,,,,,,,,,,,,,,,,,,,,,,,,,,,,,,,,,,,,,,,,,,,,,,,,,,,,,,,,,,,,,,,,,,,,,,,,,,,,,,,,,,,,,,,,,,,
,,,,,,0,0,0,0,1,X V Q F H G B L J M P D K C T S W R N Z,5e70ed7e77bbac01812979cf,26,Mężczyzna,2022-06-11_09h36.32.465,task,2021.1.4,Win32,59.70149254,6299f149e92ead563fba08ef,62a445d6d2dd1bef33832b08,,,,,,,,,,,,,,,,,,,,,,,,,,,,,,,,,,,,,,,,,,,,,,,,,,,,,,,,,,,,,,,,,,,,,,,,,,,,,,,,,,,,,,,,,,,,,,,,,,,,,
,,,,,,1,0,1,0,1,X V Q F H G B L J M P D K C T S W R N Z,5e70ed7e77bbac01812979cf,26,Mężczyzna,2022-06-11_09h36.32.465,task,2021.1.4,Win32,59.70149254,6299f149e92ead563fba08ef,62a445d6d2dd1bef33832b08,,,,,,,,,,,,,,,,,,,,,,,,,,,,,,,,,,,,,,,,,,,,,,,,,,,,,,,,,,,,,,,,,,,,,,,,,,,,,,,,,,,,,,,,,,,,,,,,,,,,,
,,,,,,2,0,2,0,1,X V Q F H G B L J M P D K C T S W R N Z,5e70ed7e77bbac01812979cf,26,Mężczyzna,2022-06-11_09h36.32.465,task,2021.1.4,Win32,59.70149254,6299f149e92ead563fba08ef,62a445d6d2dd1bef33832b08,,,,,,,,,,,,,,,,,,,,,,,,,,,,,,,,,,,,,,,,,,,,,,,,,,,,,,,,,,,,,,,,,,,,,,,,,,,,,,,,,,,,,,,,,,,,,,,,,,,,,
,,,,,,3,0,3,0,1,X V Q F H G B L J M P D K C T S W R N Z,5e70ed7e77bbac01812979cf,26,Mężczyzna,2022-06-11_09h36.32.465,task,2021.1.4,Win32,59.70149254,6299f149e92ead563fba08ef,62a445d6d2dd1bef33832b08,,,,,,,,,,,,,,,,,,,,,,,,,,,,,,,,,,,,,,,,,,,,,,,,,,,,,,,,,,,,,,,,,,,,,,,,,,,,,,,,,,,,,,,,,,,,,,,,,,,,,
,,,,,,,,,,,,5e70ed7e77bbac01812979cf,26,Mężczyzna,2022-06-11_09h36.32.465,task,2021.1.4,Win32,59.70149254,6299f149e92ead563fba08ef,62a445d6d2dd1bef33832b08,lxtd,"[""l"",""x"",""t"",""d""]","[0.8908999999761562,1.1307999999523162,1.4483999999761465,1.5885999999642308,2.123899999976146]",1,LXTD,6,0,6,0,1,,,,,,,,,,,,,,,,,,,,,,,,,,,,,,,,,,,,,,,,,,,,,,,,,,,,,,,,,,,,,,,,,,,,,,,,,,,,,,,,,,,,,,,,,,,
,,,,,,0,0,0,0,1,X V Q F H G B L J M P D K C T S W R N Z,5e70ed7e77bbac01812979cf,26,Mężczyzna,2022-06-11_09h36.32.465,task,2021.1.4,Win32,59.70149254,6299f149e92ead563fba08ef,62a445d6d2dd1bef33832b08,,,,,,,,,,,,,,,,,,,,,,,,,,,,,,,,,,,,,,,,,,,,,,,,,,,,,,,,,,,,,,,,,,,,,,,,,,,,,,,,,,,,,,,,,,,,,,,,,,,,,
,,,,,,1,0,1,0,1,X V Q F H G B L J M P D K C T S W R N Z,5e70ed7e77bbac01812979cf,26,Mężczyzna,2022-06-11_09h36.32.465,task,2021.1.4,Win32,59.70149254,6299f149e92ead563fba08ef,62a445d6d2dd1bef33832b08,,,,,,,,,,,,,,,,,,,,,,,,,,,,,,,,,,,,,,,,,,,,,,,,,,,,,,,,,,,,,,,,,,,,,,,,,,,,,,,,,,,,,,,,,,,,,,,,,,,,,
,,,,,,2,0,2,0,1,X V Q F H G B L J M P D K C T S W R N Z,5e70ed7e77bbac01812979cf,26,Mężczyzna,2022-06-11_09h36.32.465,task,2021.1.4,Win32,59.70149254,6299f149e92ead563fba08ef,62a445d6d2dd1bef33832b08,,,,,,,,,,,,,,,,,,,,,,,,,,,,,,,,,,,,,,,,,,,,,,,,,,,,,,,,,,,,,,,,,,,,,,,,,,,,,,,,,,,,,,,,,,,,,,,,,,,,,
,,,,,,3,0,3,0,1,X V Q F H G B L J M P D K C T S W R N Z,5e70ed7e77bbac01812979cf,26,Mężczyzna,2022-06-11_09h36.32.465,task,2021.1.4,Win32,59.70149254,6299f149e92ead563fba08ef,62a445d6d2dd1bef33832b08,,,,,,,,,,,,,,,,,,,,,,,,,,,,,,,,,,,,,,,,,,,,,,,,,,,,,,,,,,,,,,,,,,,,,,,,,,,,,,,,,,,,,,,,,,,,,,,,,,,,,
,,,,,,4,0,4,0,1,X V Q F H G B L J M P D K C T S W R N Z,5e70ed7e77bbac01812979cf,26,Mężczyzna,2022-06-11_09h36.32.465,task,2021.1.4,Win32,59.70149254,6299f149e92ead563fba08ef,62a445d6d2dd1bef33832b08,,,,,,,,,,,,,,,,,,,,,,,,,,,,,,,,,,,,,,,,,,,,,,,,,,,,,,,,,,,,,,,,,,,,,,,,,,,,,,,,,,,,,,,,,,,,,,,,,,,,,
,,,,,,,,,,,,5e70ed7e77bbac01812979cf,26,Mężczyzna,2022-06-11_09h36.32.465,task,2021.1.4,Win32,59.70149254,6299f149e92ead563fba08ef,62a445d6d2dd1bef33832b08,qpcck,"[""q"",""p"",""c"",""c"",""k""]","[0.9988000000119115,1.4883999999761528,1.7043999999761468,1.8843999999761536,2.0211999999880703,2.4150999999642266]",1,QPCCK,7,0,7,0,1,,,,,,,,,,,,,,,,,,,,,,,,,,,,,,,,,,,,,,,,,,,,,,,,,,,,,,,,,,,,,,,,,,,,,,,,,,,,,,,,,,,,,,,,,,,
,,,,,,0,0,0,0,1,X V Q F H G B L J M P D K C T S W R N Z,5e70ed7e77bbac01812979cf,26,Mężczyzna,2022-06-11_09h36.32.465,task,2021.1.4,Win32,59.70149254,6299f149e92ead563fba08ef,62a445d6d2dd1bef33832b08,,,,,,,,,,,,,,,,,,,,,,,,,,,,,,,,,,,,,,,,,,,,,,,,,,,,,,,,,,,,,,,,,,,,,,,,,,,,,,,,,,,,,,,,,,,,,,,,,,,,,
,,,,,,1,0,1,0,1,X V Q F H G B L J M P D K C T S W R N Z,5e70ed7e77bbac01812979cf,26,Mężczyzna,2022-06-11_09h36.32.465,task,2021.1.4,Win32,59.70149254,6299f149e92ead563fba08ef,62a445d6d2dd1bef33832b08,,,,,,,,,,,,,,,,,,,,,,,,,,,,,,,,,,,,,,,,,,,,,,,,,,,,,,,,,,,,,,,,,,,,,,,,,,,,,,,,,,,,,,,,,,,,,,,,,,,,,
,,,,,,2,0,2,0,1,X V Q F H G B L J M P D K C T S W R N Z,5e70ed7e77bbac01812979cf,26,Mężczyzna,2022-06-11_09h36.32.465,task,2021.1.4,Win32,59.70149254,6299f149e92ead563fba08ef,62a445d6d2dd1bef33832b08,,,,,,,,,,,,,,,,,,,,,,,,,,,,,,,,,,,,,,,,,,,,,,,,,,,,,,,,,,,,,,,,,,,,,,,,,,,,,,,,,,,,,,,,,,,,,,,,,,,,,
,,,,,,3,0,3,0,1,X V Q F H G B L J M P D K C T S W R N Z,5e70ed7e77bbac01812979cf,26,Mężczyzna,2022-06-11_09h36.32.465,task,2021.1.4,Win32,59.70149254,6299f149e92ead563fba08ef,62a445d6d2dd1bef33832b08,,,,,,,,,,,,,,,,,,,,,,,,,,,,,,,,,,,,,,,,,,,,,,,,,,,,,,,,,,,,,,,,,,,,,,,,,,,,,,,,,,,,,,,,,,,,,,,,,,,,,
,,,,,,4,0,4,0,1,X V Q F H G B L J M P D K C T S W R N Z,5e70ed7e77bbac01812979cf,26,Mężczyzna,2022-06-11_09h36.32.465,task,2021.1.4,Win32,59.70149254,6299f149e92ead563fba08ef,62a445d6d2dd1bef33832b08,,,,,,,,,,,,,,,,,,,,,,,,,,,,,,,,,,,,,,,,,,,,,,,,,,,,,,,,,,,,,,,,,,,,,,,,,,,,,,,,,,,,,,,,,,,,,,,,,,,,,
,,,,,,,,,,,,5e70ed7e77bbac01812979cf,26,Mężczyzna,2022-06-11_09h36.32.465,task,2021.1.4,Win32,59.70149254,6299f149e92ead563fba08ef,62a445d6d2dd1bef33832b08,lbggp,"[""l"",""b"",""g"",""g"",""p""]","[0.7328000000119204,0.9328999999761578,1.1431000000238498,1.3273999999761656,1.4964999999999975,1.8436999999880754]",1,LBGGP,8,0,8,0,1,,,,,,,,,,,,,,,,,,,,,,,,,,,,,,,,,,,,,,,,,,,,,,,,,,,,,,,,,,,,,,,,,,,,,,,,,,,,,,,,,,,,,,,,,,,
,,,,,,0,0,0,0,1,X V Q F H G B L J M P D K C T S W R N Z,5e70ed7e77bbac01812979cf,26,Mężczyzna,2022-06-11_09h36.32.465,task,2021.1.4,Win32,59.70149254,6299f149e92ead563fba08ef,62a445d6d2dd1bef33832b08,,,,,,,,,,,,,,,,,,,,,,,,,,,,,,,,,,,,,,,,,,,,,,,,,,,,,,,,,,,,,,,,,,,,,,,,,,,,,,,,,,,,,,,,,,,,,,,,,,,,,
,,,,,,1,0,1,0,1,X V Q F H G B L J M P D K C T S W R N Z,5e70ed7e77bbac01812979cf,26,Mężczyzna,2022-06-11_09h36.32.465,task,2021.1.4,Win32,59.70149254,6299f149e92ead563fba08ef,62a445d6d2dd1bef33832b08,,,,,,,,,,,,,,,,,,,,,,,,,,,,,,,,,,,,,,,,,,,,,,,,,,,,,,,,,,,,,,,,,,,,,,,,,,,,,,,,,,,,,,,,,,,,,,,,,,,,,
,,,,,,2,0,2,0,1,X V Q F H G B L J M P D K C T S W R N Z,5e70ed7e77bbac01812979cf,26,Mężczyzna,2022-06-11_09h36.32.465,task,2021.1.4,Win32,59.70149254,6299f149e92ead563fba08ef,62a445d6d2dd1bef33832b08,,,,,,,,,,,,,,,,,,,,,,,,,,,,,,,,,,,,,,,,,,,,,,,,,,,,,,,,,,,,,,,,,,,,,,,,,,,,,,,,,,,,,,,,,,,,,,,,,,,,,
,,,,,,3,0,3,0,1,X V Q F H G B L J M P D K C T S W R N Z,5e70ed7e77bbac01812979cf,26,Mężczyzna,2022-06-11_09h36.32.465,task,2021.1.4,Win32,59.70149254,6299f149e92ead563fba08ef,62a445d6d2dd1bef33832b08,,,,,,,,,,,,,,,,,,,,,,,,,,,,,,,,,,,,,,,,,,,,,,,,,,,,,,,,,,,,,,,,,,,,,,,,,,,,,,,,,,,,,,,,,,,,,,,,,,,,,
,,,,,,4,0,4,0,1,X V Q F H G B L J M P D K C T S W R N Z,5e70ed7e77bbac01812979cf,26,Mężczyzna,2022-06-11_09h36.32.465,task,2021.1.4,Win32,59.70149254,6299f149e92ead563fba08ef,62a445d6d2dd1bef33832b08,,,,,,,,,,,,,,,,,,,,,,,,,,,,,,,,,,,,,,,,,,,,,,,,,,,,,,,,,,,,,,,,,,,,,,,,,,,,,,,,,,,,,,,,,,,,,,,,,,,,,
,,,,,,5,0,5,0,1,X V Q F H G B L J M P D K C T S W R N Z,5e70ed7e77bbac01812979cf,26,Mężczyzna,2022-06-11_09h36.32.465,task,2021.1.4,Win32,59.70149254,6299f149e92ead563fba08ef,62a445d6d2dd1bef33832b08,,,,,,,,,,,,,,,,,,,,,,,,,,,,,,,,,,,,,,,,,,,,,,,,,,,,,,,,,,,,,,,,,,,,,,,,,,,,,,,,,,,,,,,,,,,,,,,,,,,,,
,,,,,,,,,,,,5e70ed7e77bbac01812979cf,26,Mężczyzna,2022-06-11_09h36.32.465,task,2021.1.4,Win32,59.70149254,6299f149e92ead563fba08ef,62a445d6d2dd1bef33832b08,xwpzl,"[""x"",""w"",""p"",""z"",""l""]","[0.7101000000238429,1.0696999999880887,1.4218999999761621,1.818100000023847,2.378199999988084,5.404800000011932]",0,XWBPZL,9,0,9,0,1,,,,,,,,,,,,,,,,,,,,,,,,,,,,,,,,,,,,,,,,,,,,,,,,,,,,,,,,,,,,,,,,,,,,,,,,,,,,,,,,,,,,,,,,,,,
,,,,,,0,0,0,0,1,X V Q F H G B L J M P D K C T S W R N Z,5e70ed7e77bbac01812979cf,26,Mężczyzna,2022-06-11_09h36.32.465,task,2021.1.4,Win32,59.70149254,6299f149e92ead563fba08ef,62a445d6d2dd1bef33832b08,,,,,,,,,,,,,,,,,,,,,,,,,,,,,,,,,,,,,,,,,,,,,,,,,,,,,,,,,,,,,,,,,,,,,,,,,,,,,,,,,,,,,,,,,,,,,,,,,,,,,
,,,,,,1,0,1,0,1,X V Q F H G B L J M P D K C T S W R N Z,5e70ed7e77bbac01812979cf,26,Mężczyzna,2022-06-11_09h36.32.465,task,2021.1.4,Win32,59.70149254,6299f149e92ead563fba08ef,62a445d6d2dd1bef33832b08,,,,,,,,,,,,,,,,,,,,,,,,,,,,,,,,,,,,,,,,,,,,,,,,,,,,,,,,,,,,,,,,,,,,,,,,,,,,,,,,,,,,,,,,,,,,,,,,,,,,,
,,,,,,2,0,2,0,1,X V Q F H G B L J M P D K C T S W R N Z,5e70ed7e77bbac01812979cf,26,Mężczyzna,2022-06-11_09h36.32.465,task,2021.1.4,Win32,59.70149254,6299f149e92ead563fba08ef,62a445d6d2dd1bef33832b08,,,,,,,,,,,,,,,,,,,,,,,,,,,,,,,,,,,,,,,,,,,,,,,,,,,,,,,,,,,,,,,,,,,,,,,,,,,,,,,,,,,,,,,,,,,,,,,,,,,,,
,,,,,,3,0,3,0,1,X V Q F H G B L J M P D K C T S W R N Z,5e70ed7e77bbac01812979cf,26,Mężczyzna,2022-06-11_09h36.32.465,task,2021.1.4,Win32,59.70149254,6299f149e92ead563fba08ef,62a445d6d2dd1bef33832b08,,,,,,,,,,,,,,,,,,,,,,,,,,,,,,,,,,,,,,,,,,,,,,,,,,,,,,,,,,,,,,,,,,,,,,,,,,,,,,,,,,,,,,,,,,,,,,,,,,,,,
,,,,,,4,0,4,0,1,X V Q F H G B L J M P D K C T S W R N Z,5e70ed7e77bbac01812979cf,26,Mężczyzna,2022-06-11_09h36.32.465,task,2021.1.4,Win32,59.70149254,6299f149e92ead563fba08ef,62a445d6d2dd1bef33832b08,,,,,,,,,,,,,,,,,,,,,,,,,,,,,,,,,,,,,,,,,,,,,,,,,,,,,,,,,,,,,,,,,,,,,,,,,,,,,,,,,,,,,,,,,,,,,,,,,,,,,
,,,,,,5,0,5,0,1,X V Q F H G B L J M P D K C T S W R N Z,5e70ed7e77bbac01812979cf,26,Mężczyzna,2022-06-11_09h36.32.465,task,2021.1.4,Win32,59.70149254,6299f149e92ead563fba08ef,62a445d6d2dd1bef33832b08,,,,,,,,,,,,,,,,,,,,,,,,,,,,,,,,,,,,,,,,,,,,,,,,,,,,,,,,,,,,,,,,,,,,,,,,,,,,,,,,,,,,,,,,,,,,,,,,,,,,,
,,,,,,,,,,,,5e70ed7e77bbac01812979cf,26,Mężczyzna,2022-06-11_09h36.32.465,task,2021.1.4,Win32,59.70149254,6299f149e92ead563fba08ef,62a445d6d2dd1bef33832b08,dmzvgl,"[""d"",""m"",""z"",""v"",""g"",""l""]","[1.7727000000476778,1.9489000000357635,2.1397000000476964,4.276499999999999,4.836500000000001,5.4002000000476755,6.227600000023841]",0,DMZVGM,10,0,10,0,1,,,,,,,,,,,,,,,,,,,,,,,,,,,,,,,,,,,,,,,,,,,,,,,,,,,,,,,,,,,,,,,,,,,,,,,,,,,,,,,,,,,,,,,,,,,
,,,,,,0,0,0,0,1,X V Q F H G B L J M P D K C T S W R N Z,5e70ed7e77bbac01812979cf,26,Mężczyzna,2022-06-11_09h36.32.465,task,2021.1.4,Win32,59.70149254,6299f149e92ead563fba08ef,62a445d6d2dd1bef33832b08,,,,,,,,,,,,,,,,,,,,,,,,,,,,,,,,,,,,,,,,,,,,,,,,,,,,,,,,,,,,,,,,,,,,,,,,,,,,,,,,,,,,,,,,,,,,,,,,,,,,,
,,,,,,1,0,1,0,1,X V Q F H G B L J M P D K C T S W R N Z,5e70ed7e77bbac01812979cf,26,Mężczyzna,2022-06-11_09h36.32.465,task,2021.1.4,Win32,59.70149254,6299f149e92ead563fba08ef,62a445d6d2dd1bef33832b08,,,,,,,,,,,,,,,,,,,,,,,,,,,,,,,,,,,,,,,,,,,,,,,,,,,,,,,,,,,,,,,,,,,,,,,,,,,,,,,,,,,,,,,,,,,,,,,,,,,,,
,,,,,,2,0,2,0,1,X V Q F H G B L J M P D K C T S W R N Z,5e70ed7e77bbac01812979cf,26,Mężczyzna,2022-06-11_09h36.32.465,task,2021.1.4,Win32,59.70149254,6299f149e92ead563fba08ef,62a445d6d2dd1bef33832b08,,,,,,,,,,,,,,,,,,,,,,,,,,,,,,,,,,,,,,,,,,,,,,,,,,,,,,,,,,,,,,,,,,,,,,,,,,,,,,,,,,,,,,,,,,,,,,,,,,,,,
,,,,,,3,0,3,0,1,X V Q F H G B L J M P D K C T S W R N Z,5e70ed7e77bbac01812979cf,26,Mężczyzna,2022-06-11_09h36.32.465,task,2021.1.4,Win32,59.70149254,6299f149e92ead563fba08ef,62a445d6d2dd1bef33832b08,,,,,,,,,,,,,,,,,,,,,,,,,,,,,,,,,,,,,,,,,,,,,,,,,,,,,,,,,,,,,,,,,,,,,,,,,,,,,,,,,,,,,,,,,,,,,,,,,,,,,
,,,,,,4,0,4,0,1,X V Q F H G B L J M P D K C T S W R N Z,5e70ed7e77bbac01812979cf,26,Mężczyzna,2022-06-11_09h36.32.465,task,2021.1.4,Win32,59.70149254,6299f149e92ead563fba08ef,62a445d6d2dd1bef33832b08,,,,,,,,,,,,,,,,,,,,,,,,,,,,,,,,,,,,,,,,,,,,,,,,,,,,,,,,,,,,,,,,,,,,,,,,,,,,,,,,,,,,,,,,,,,,,,,,,,,,,
,,,,,,5,0,5,0,1,X V Q F H G B L J M P D K C T S W R N Z,5e70ed7e77bbac01812979cf,26,Mężczyzna,2022-06-11_09h36.32.465,task,2021.1.4,Win32,59.70149254,6299f149e92ead563fba08ef,62a445d6d2dd1bef33832b08,,,,,,,,,,,,,,,,,,,,,,,,,,,,,,,,,,,,,,,,,,,,,,,,,,,,,,,,,,,,,,,,,,,,,,,,,,,,,,,,,,,,,,,,,,,,,,,,,,,,,
,,,,,,,,,,,,5e70ed7e77bbac01812979cf,26,Mężczyzna,2022-06-11_09h36.32.465,task,2021.1.4,Win32,59.70149254,6299f149e92ead563fba08ef,62a445d6d2dd1bef33832b08,mkshhp,"[""m"",""k"",""s"",""h"",""h"",""p""]","[1.4486000000238448,2.1813999999761506,3.349399999976157,3.7576000000238423,4.299100000023856,4.416500000000013,4.831199999988087]",1,MKSHHP,11,0,11,0,1,,,,,,,,,,,,,,,,,,,,,,,,,,,,,,,,,,,,,,,,,,,,,,,,,,,,,,,,,,,,,,,,,,,,,,,,,,,,,,,,,,,,,,,,,,,
,,,,,,0,0,0,0,1,X V Q F H G B L J M P D K C T S W R N Z,5e70ed7e77bbac01812979cf,26,Mężczyzna,2022-06-11_09h36.32.465,task,2021.1.4,Win32,59.70149254,6299f149e92ead563fba08ef,62a445d6d2dd1bef33832b08,,,,,,,,,,,,,,,,,,,,,,,,,,,,,,,,,,,,,,,,,,,,,,,,,,,,,,,,,,,,,,,,,,,,,,,,,,,,,,,,,,,,,,,,,,,,,,,,,,,,,
,,,,,,1,0,1,0,1,X V Q F H G B L J M P D K C T S W R N Z,5e70ed7e77bbac01812979cf,26,Mężczyzna,2022-06-11_09h36.32.465,task,2021.1.4,Win32,59.70149254,6299f149e92ead563fba08ef,62a445d6d2dd1bef33832b08,,,,,,,,,,,,,,,,,,,,,,,,,,,,,,,,,,,,,,,,,,,,,,,,,,,,,,,,,,,,,,,,,,,,,,,,,,,,,,,,,,,,,,,,,,,,,,,,,,,,,
,,,,,,2,0,2,0,1,X V Q F H G B L J M P D K C T S W R N Z,5e70ed7e77bbac01812979cf,26,Mężczyzna,2022-06-11_09h36.32.465,task,2021.1.4,Win32,59.70149254,6299f149e92ead563fba08ef,62a445d6d2dd1bef33832b08,,,,,,,,,,,,,,,,,,,,,,,,,,,,,,,,,,,,,,,,,,,,,,,,,,,,,,,,,,,,,,,,,,,,,,,,,,,,,,,,,,,,,,,,,,,,,,,,,,,,,
,,,,,,3,0,3,0,1,X V Q F H G B L J M P D K C T S W R N Z,5e70ed7e77bbac01812979cf,26,Mężczyzna,2022-06-11_09h36.32.465,task,2021.1.4,Win32,59.70149254,6299f149e92ead563fba08ef,62a445d6d2dd1bef33832b08,,,,,,,,,,,,,,,,,,,,,,,,,,,,,,,,,,,,,,,,,,,,,,,,,,,,,,,,,,,,,,,,,,,,,,,,,,,,,,,,,,,,,,,,,,,,,,,,,,,,,
,,,,,,4,0,4,0,1,X V Q F H G B L J M P D K C T S W R N Z,5e70ed7e77bbac01812979cf,26,Mężczyzna,2022-06-11_09h36.32.465,task,2021.1.4,Win32,59.70149254,6299f149e92ead563fba08ef,62a445d6d2dd1bef33832b08,,,,,,,,,,,,,,,,,,,,,,,,,,,,,,,,,,,,,,,,,,,,,,,,,,,,,,,,,,,,,,,,,,,,,,,,,,,,,,,,,,,,,,,,,,,,,,,,,,,,,
,,,,,,5,0,5,0,1,X V Q F H G B L J M P D K C T S W R N Z,5e70ed7e77bbac01812979cf,26,Mężczyzna,2022-06-11_09h36.32.465,task,2021.1.4,Win32,59.70149254,6299f149e92ead563fba08ef,62a445d6d2dd1bef33832b08,,,,,,,,,,,,,,,,,,,,,,,,,,,,,,,,,,,,,,,,,,,,,,,,,,,,,,,,,,,,,,,,,,,,,,,,,,,,,,,,,,,,,,,,,,,,,,,,,,,,,
,,,,,,,,,,,,5e70ed7e77bbac01812979cf,26,Mężczyzna,2022-06-11_09h36.32.465,task,2021.1.4,Win32,59.70149254,6299f149e92ead563fba08ef,62a445d6d2dd1bef33832b08,pdxwqc,"[""p"",""d"",""x"",""w"",""q"",""c""]","[3.0819000000357732,3.34880000001192,3.7028000000119334,5.1071000000238485,5.191100000023852,5.771100000023836,6.290300000011911]",1,PDXWQC,12,0,12,0,1,,,,,,,,,,,,,,,,,,,,,,,,,,,,,,,,,,,,,,,,,,,,,,,,,,,,,,,,,,,,,,,,,,,,,,,,,,,,,,,,,,,,,,,,,,,
,,,,,,0,0,0,0,1,X V Q F H G B L J M P D K C T S W R N Z,5e70ed7e77bbac01812979cf,26,Mężczyzna,2022-06-11_09h36.32.465,task,2021.1.4,Win32,59.70149254,6299f149e92ead563fba08ef,62a445d6d2dd1bef33832b08,,,,,,,,,,,,,,,,,,,,,,,,,,,,,,,,,,,,,,,,,,,,,,,,,,,,,,,,,,,,,,,,,,,,,,,,,,,,,,,,,,,,,,,,,,,,,,,,,,,,,
,,,,,,1,0,1,0,1,X V Q F H G B L J M P D K C T S W R N Z,5e70ed7e77bbac01812979cf,26,Mężczyzna,2022-06-11_09h36.32.465,task,2021.1.4,Win32,59.70149254,6299f149e92ead563fba08ef,62a445d6d2dd1bef33832b08,,,,,,,,,,,,,,,,,,,,,,,,,,,,,,,,,,,,,,,,,,,,,,,,,,,,,,,,,,,,,,,,,,,,,,,,,,,,,,,,,,,,,,,,,,,,,,,,,,,,,
,,,,,,2,0,2,0,1,X V Q F H G B L J M P D K C T S W R N Z,5e70ed7e77bbac01812979cf,26,Mężczyzna,2022-06-11_09h36.32.465,task,2021.1.4,Win32,59.70149254,6299f149e92ead563fba08ef,62a445d6d2dd1bef33832b08,,,,,,,,,,,,,,,,,,,,,,,,,,,,,,,,,,,,,,,,,,,,,,,,,,,,,,,,,,,,,,,,,,,,,,,,,,,,,,,,,,,,,,,,,,,,,,,,,,,,,
,,,,,,3,0,3,0,1,X V Q F H G B L J M P D K C T S W R N Z,5e70ed7e77bbac01812979cf,26,Mężczyzna,2022-06-11_09h36.32.465,task,2021.1.4,Win32,59.70149254,6299f149e92ead563fba08ef,62a445d6d2dd1bef33832b08,,,,,,,,,,,,,,,,,,,,,,,,,,,,,,,,,,,,,,,,,,,,,,,,,,,,,,,,,,,,,,,,,,,,,,,,,,,,,,,,,,,,,,,,,,,,,,,,,,,,,
,,,,,,4,0,4,0,1,X V Q F H G B L J M P D K C T S W R N Z,5e70ed7e77bbac01812979cf,26,Mężczyzna,2022-06-11_09h36.32.465,task,2021.1.4,Win32,59.70149254,6299f149e92ead563fba08ef,62a445d6d2dd1bef33832b08,,,,,,,,,,,,,,,,,,,,,,,,,,,,,,,,,,,,,,,,,,,,,,,,,,,,,,,,,,,,,,,,,,,,,,,,,,,,,,,,,,,,,,,,,,,,,,,,,,,,,
,,,,,,5,0,5,0,1,X V Q F H G B L J M P D K C T S W R N Z,5e70ed7e77bbac01812979cf,26,Mężczyzna,2022-06-11_09h36.32.465,task,2021.1.4,Win32,59.70149254,6299f149e92ead563fba08ef,62a445d6d2dd1bef33832b08,,,,,,,,,,,,,,,,,,,,,,,,,,,,,,,,,,,,,,,,,,,,,,,,,,,,,,,,,,,,,,,,,,,,,,,,,,,,,,,,,,,,,,,,,,,,,,,,,,,,,
,,,,,,6,0,6,0,1,X V Q F H G B L J M P D K C T S W R N Z,5e70ed7e77bbac01812979cf,26,Mężczyzna,2022-06-11_09h36.32.465,task,2021.1.4,Win32,59.70149254,6299f149e92ead563fba08ef,62a445d6d2dd1bef33832b08,,,,,,,,,,,,,,,,,,,,,,,,,,,,,,,,,,,,,,,,,,,,,,,,,,,,,,,,,,,,,,,,,,,,,,,,,,,,,,,,,,,,,,,,,,,,,,,,,,,,,
,,,,,,,,,,,,5e70ed7e77bbac01812979cf,26,Mężczyzna,2022-06-11_09h36.32.465,task,2021.1.4,Win32,59.70149254,6299f149e92ead563fba08ef,62a445d6d2dd1bef33832b08,xjwhgbn,"[""x"",""j"",""w"",""h"",""g"",""b"",""n""]","[2.440600000023835,2.632100000023854,2.9201000000238366,3.508600000023847,3.7658999999761704,4.204300000011926,4.433699999988079,5.115199999988079]",1,XJWHGBN,13,0,13,0,1,,,,,,,,,,,,,,,,,,,,,,,,,,,,,,,,,,,,,,,,,,,,,,,,,,,,,,,,,,,,,,,,,,,,,,,,,,,,,,,,,,,,,,,,,,,
,,,,,,0,0,0,0,1,X V Q F H G B L J M P D K C T S W R N Z,5e70ed7e77bbac01812979cf,26,Mężczyzna,2022-06-11_09h36.32.465,task,2021.1.4,Win32,59.70149254,6299f149e92ead563fba08ef,62a445d6d2dd1bef33832b08,,,,,,,,,,,,,,,,,,,,,,,,,,,,,,,,,,,,,,,,,,,,,,,,,,,,,,,,,,,,,,,,,,,,,,,,,,,,,,,,,,,,,,,,,,,,,,,,,,,,,
,,,,,,1,0,1,0,1,X V Q F H G B L J M P D K C T S W R N Z,5e70ed7e77bbac01812979cf,26,Mężczyzna,2022-06-11_09h36.32.465,task,2021.1.4,Win32,59.70149254,6299f149e92ead563fba08ef,62a445d6d2dd1bef33832b08,,,,,,,,,,,,,,,,,,,,,,,,,,,,,,,,,,,,,,,,,,,,,,,,,,,,,,,,,,,,,,,,,,,,,,,,,,,,,,,,,,,,,,,,,,,,,,,,,,,,,
,,,,,,2,0,2,0,1,X V Q F H G B L J M P D K C T S W R N Z,5e70ed7e77bbac01812979cf,26,Mężczyzna,2022-06-11_09h36.32.465,task,2021.1.4,Win32,59.70149254,6299f149e92ead563fba08ef,62a445d6d2dd1bef33832b08,,,,,,,,,,,,,,,,,,,,,,,,,,,,,,,,,,,,,,,,,,,,,,,,,,,,,,,,,,,,,,,,,,,,,,,,,,,,,,,,,,,,,,,,,,,,,,,,,,,,,
,,,,,,3,0,3,0,1,X V Q F H G B L J M P D K C T S W R N Z,5e70ed7e77bbac01812979cf,26,Mężczyzna,2022-06-11_09h36.32.465,task,2021.1.4,Win32,59.70149254,6299f149e92ead563fba08ef,62a445d6d2dd1bef33832b08,,,,,,,,,,,,,,,,,,,,,,,,,,,,,,,,,,,,,,,,,,,,,,,,,,,,,,,,,,,,,,,,,,,,,,,,,,,,,,,,,,,,,,,,,,,,,,,,,,,,,
,,,,,,4,0,4,0,1,X V Q F H G B L J M P D K C T S W R N Z,5e70ed7e77bbac01812979cf,26,Mężczyzna,2022-06-11_09h36.32.465,task,2021.1.4,Win32,59.70149254,6299f149e92ead563fba08ef,62a445d6d2dd1bef33832b08,,,,,,,,,,,,,,,,,,,,,,,,,,,,,,,,,,,,,,,,,,,,,,,,,,,,,,,,,,,,,,,,,,,,,,,,,,,,,,,,,,,,,,,,,,,,,,,,,,,,,
,,,,,,5,0,5,0,1,X V Q F H G B L J M P D K C T S W R N Z,5e70ed7e77bbac01812979cf,26,Mężczyzna,2022-06-11_09h36.32.465,task,2021.1.4,Win32,59.70149254,6299f149e92ead563fba08ef,62a445d6d2dd1bef33832b08,,,,,,,,,,,,,,,,,,,,,,,,,,,,,,,,,,,,,,,,,,,,,,,,,,,,,,,,,,,,,,,,,,,,,,,,,,,,,,,,,,,,,,,,,,,,,,,,,,,,,
,,,,,,6,0,6,0,1,X V Q F H G B L J M P D K C T S W R N Z,5e70ed7e77bbac01812979cf,26,Mężczyzna,2022-06-11_09h36.32.465,task,2021.1.4,Win32,59.70149254,6299f149e92ead563fba08ef,62a445d6d2dd1bef33832b08,,,,,,,,,,,,,,,,,,,,,,,,,,,,,,,,,,,,,,,,,,,,,,,,,,,,,,,,,,,,,,,,,,,,,,,,,,,,,,,,,,,,,,,,,,,,,,,,,,,,,
,,,,,,,,,,,,5e70ed7e77bbac01812979cf,26,Mężczyzna,2022-06-11_09h36.32.465,task,2021.1.4,Win32,59.70149254,6299f149e92ead563fba08ef,62a445d6d2dd1bef33832b08,vmdvsnp,"[""v"",""m"",""d"",""v"",""s"",""n"",""p""]","[2.664999999999992,2.9414000000357703,3.798000000000002,4.581600000023855,4.977199999988073,7.034800000011927,7.249699999988081,8.03619999998807]",1,VMDVSNP,14,0,14,0,1,,,,,,,,,,,,,,,,,,,,,,,,,,,,,,,,,,,,,,,,,,,,,,,,,,,,,,,,,,,,,,,,,,,,,,,,,,,,,,,,,,,,,,,,,,,
,,,,,,0,0,0,0,1,X V Q F H G B L J M P D K C T S W R N Z,5e70ed7e77bbac01812979cf,26,Mężczyzna,2022-06-11_09h36.32.465,task,2021.1.4,Win32,59.70149254,6299f149e92ead563fba08ef,62a445d6d2dd1bef33832b08,,,,,,,,,,,,,,,,,,,,,,,,,,,,,,,,,,,,,,,,,,,,,,,,,,,,,,,,,,,,,,,,,,,,,,,,,,,,,,,,,,,,,,,,,,,,,,,,,,,,,
,,,,,,1,0,1,0,1,X V Q F H G B L J M P D K C T S W R N Z,5e70ed7e77bbac01812979cf,26,Mężczyzna,2022-06-11_09h36.32.465,task,2021.1.4,Win32,59.70149254,6299f149e92ead563fba08ef,62a445d6d2dd1bef33832b08,,,,,,,,,,,,,,,,,,,,,,,,,,,,,,,,,,,,,,,,,,,,,,,,,,,,,,,,,,,,,,,,,,,,,,,,,,,,,,,,,,,,,,,,,,,,,,,,,,,,,
,,,,,,2,0,2,0,1,X V Q F H G B L J M P D K C T S W R N Z,5e70ed7e77bbac01812979cf,26,Mężczyzna,2022-06-11_09h36.32.465,task,2021.1.4,Win32,59.70149254,6299f149e92ead563fba08ef,62a445d6d2dd1bef33832b08,,,,,,,,,,,,,,,,,,,,,,,,,,,,,,,,,,,,,,,,,,,,,,,,,,,,,,,,,,,,,,,,,,,,,,,,,,,,,,,,,,,,,,,,,,,,,,,,,,,,,
,,,,,,3,0,3,0,1,X V Q F H G B L J M P D K C T S W R N Z,5e70ed7e77bbac01812979cf,26,Mężczyzna,2022-06-11_09h36.32.465,task,2021.1.4,Win32,59.70149254,6299f149e92ead563fba08ef,62a445d6d2dd1bef33832b08,,,,,,,,,,,,,,,,,,,,,,,,,,,,,,,,,,,,,,,,,,,,,,,,,,,,,,,,,,,,,,,,,,,,,,,,,,,,,,,,,,,,,,,,,,,,,,,,,,,,,
,,,,,,4,0,4,0,1,X V Q F H G B L J M P D K C T S W R N Z,5e70ed7e77bbac01812979cf,26,Mężczyzna,2022-06-11_09h36.32.465,task,2021.1.4,Win32,59.70149254,6299f149e92ead563fba08ef,62a445d6d2dd1bef33832b08,,,,,,,,,,,,,,,,,,,,,,,,,,,,,,,,,,,,,,,,,,,,,,,,,,,,,,,,,,,,,,,,,,,,,,,,,,,,,,,,,,,,,,,,,,,,,,,,,,,,,
,,,,,,5,0,5,0,1,X V Q F H G B L J M P D K C T S W R N Z,5e70ed7e77bbac01812979cf,26,Mężczyzna,2022-06-11_09h36.32.465,task,2021.1.4,Win32,59.70149254,6299f149e92ead563fba08ef,62a445d6d2dd1bef33832b08,,,,,,,,,,,,,,,,,,,,,,,,,,,,,,,,,,,,,,,,,,,,,,,,,,,,,,,,,,,,,,,,,,,,,,,,,,,,,,,,,,,,,,,,,,,,,,,,,,,,,
,,,,,,6,0,6,0,1,X V Q F H G B L J M P D K C T S W R N Z,5e70ed7e77bbac01812979cf,26,Mężczyzna,2022-06-11_09h36.32.465,task,2021.1.4,Win32,59.70149254,6299f149e92ead563fba08ef,62a445d6d2dd1bef33832b08,,,,,,,,,,,,,,,,,,,,,,,,,,,,,,,,,,,,,,,,,,,,,,,,,,,,,,,,,,,,,,,,,,,,,,,,,,,,,,,,,,,,,,,,,,,,,,,,,,,,,
,,,,,,7,0,7,0,1,X V Q F H G B L J M P D K C T S W R N Z,5e70ed7e77bbac01812979cf,26,Mężczyzna,2022-06-11_09h36.32.465,task,2021.1.4,Win32,59.70149254,6299f149e92ead563fba08ef,62a445d6d2dd1bef33832b08,,,,,,,,,,,,,,,,,,,,,,,,,,,,,,,,,,,,,,,,,,,,,,,,,,,,,,,,,,,,,,,,,,,,,,,,,,,,,,,,,,,,,,,,,,,,,,,,,,,,,
,,,,,,,,,,,,5e70ed7e77bbac01812979cf,26,Mężczyzna,2022-06-11_09h36.32.465,task,2021.1.4,Win32,59.70149254,6299f149e92ead563fba08ef,62a445d6d2dd1bef33832b08,cxrtzxtr,"[""c"",""x"",""r"",""t"",""z"",""x"",""t"",""r""]","[2.8404999999999916,3.0517999999523227,4.076299999952312,4.61699999999999,5.1723999999761645,5.456099999964238,5.832999999999998,5.951999999999998,6.366199999988083]",1,CXRTZXTR,15,0,15,0,1,,,,,,,,,,,,,,,,,,,,,,,,,,,,,,,,,,,,,,,,,,,,,,,,,,,,,,,,,,,,,,,,,,,,,,,,,,,,,,,,,,,,,,,,,,,
,,,,,,0,0,0,0,1,X V Q F H G B L J M P D K C T S W R N Z,5e70ed7e77bbac01812979cf,26,Mężczyzna,2022-06-11_09h36.32.465,task,2021.1.4,Win32,59.70149254,6299f149e92ead563fba08ef,62a445d6d2dd1bef33832b08,,,,,,,,,,,,,,,,,,,,,,,,,,,,,,,,,,,,,,,,,,,,,,,,,,,,,,,,,,,,,,,,,,,,,,,,,,,,,,,,,,,,,,,,,,,,,,,,,,,,,
,,,,,,1,0,1,0,1,X V Q F H G B L J M P D K C T S W R N Z,5e70ed7e77bbac01812979cf,26,Mężczyzna,2022-06-11_09h36.32.465,task,2021.1.4,Win32,59.70149254,6299f149e92ead563fba08ef,62a445d6d2dd1bef33832b08,,,,,,,,,,,,,,,,,,,,,,,,,,,,,,,,,,,,,,,,,,,,,,,,,,,,,,,,,,,,,,,,,,,,,,,,,,,,,,,,,,,,,,,,,,,,,,,,,,,,,
,,,,,,2,0,2,0,1,X V Q F H G B L J M P D K C T S W R N Z,5e70ed7e77bbac01812979cf,26,Mężczyzna,2022-06-11_09h36.32.465,task,2021.1.4,Win32,59.70149254,6299f149e92ead563fba08ef,62a445d6d2dd1bef33832b08,,,,,,,,,,,,,,,,,,,,,,,,,,,,,,,,,,,,,,,,,,,,,,,,,,,,,,,,,,,,,,,,,,,,,,,,,,,,,,,,,,,,,,,,,,,,,,,,,,,,,
,,,,,,3,0,3,0,1,X V Q F H G B L J M P D K C T S W R N Z,5e70ed7e77bbac01812979cf,26,Mężczyzna,2022-06-11_09h36.32.465,task,2021.1.4,Win32,59.70149254,6299f149e92ead563fba08ef,62a445d6d2dd1bef33832b08,,,,,,,,,,,,,,,,,,,,,,,,,,,,,,,,,,,,,,,,,,,,,,,,,,,,,,,,,,,,,,,,,,,,,,,,,,,,,,,,,,,,,,,,,,,,,,,,,,,,,
,,,,,,4,0,4,0,1,X V Q F H G B L J M P D K C T S W R N Z,5e70ed7e77bbac01812979cf,26,Mężczyzna,2022-06-11_09h36.32.465,task,2021.1.4,Win32,59.70149254,6299f149e92ead563fba08ef,62a445d6d2dd1bef33832b08,,,,,,,,,,,,,,,,,,,,,,,,,,,,,,,,,,,,,,,,,,,,,,,,,,,,,,,,,,,,,,,,,,,,,,,,,,,,,,,,,,,,,,,,,,,,,,,,,,,,,
,,,,,,5,0,5,0,1,X V Q F H G B L J M P D K C T S W R N Z,5e70ed7e77bbac01812979cf,26,Mężczyzna,2022-06-11_09h36.32.465,task,2021.1.4,Win32,59.70149254,6299f149e92ead563fba08ef,62a445d6d2dd1bef33832b08,,,,,,,,,,,,,,,,,,,,,,,,,,,,,,,,,,,,,,,,,,,,,,,,,,,,,,,,,,,,,,,,,,,,,,,,,,,,,,,,,,,,,,,,,,,,,,,,,,,,,
,,,,,,6,0,6,0,1,X V Q F H G B L J M P D K C T S W R N Z,5e70ed7e77bbac01812979cf,26,Mężczyzna,2022-06-11_09h36.32.465,task,2021.1.4,Win32,59.70149254,6299f149e92ead563fba08ef,62a445d6d2dd1bef33832b08,,,,,,,,,,,,,,,,,,,,,,,,,,,,,,,,,,,,,,,,,,,,,,,,,,,,,,,,,,,,,,,,,,,,,,,,,,,,,,,,,,,,,,,,,,,,,,,,,,,,,
,,,,,,7,0,7,0,1,X V Q F H G B L J M P D K C T S W R N Z,5e70ed7e77bbac01812979cf,26,Mężczyzna,2022-06-11_09h36.32.465,task,2021.1.4,Win32,59.70149254,6299f149e92ead563fba08ef,62a445d6d2dd1bef33832b08,,,,,,,,,,,,,,,,,,,,,,,,,,,,,,,,,,,,,,,,,,,,,,,,,,,,,,,,,,,,,,,,,,,,,,,,,,,,,,,,,,,,,,,,,,,,,,,,,,,,,
,,,,,,,,,,,,5e70ed7e77bbac01812979cf,26,Mężczyzna,2022-06-11_09h36.32.465,task,2021.1.4,Win32,59.70149254,6299f149e92ead563fba08ef,62a445d6d2dd1bef33832b08,rqsprgqr,"[""r"",""q"",""s"",""p"",""r"",""g"",""q"",""r""]","[2.6034000000357764,3.150600000023843,4.058900000035777,4.507000000000005,4.854900000035769,5.267200000047694,6.002300000011928,6.2549999999999955,6.686000000000007]",1,RQSPRGQR,16,0,16,0,1,,,,,,,,,,,,,,,,,,,,,,,,,,,,,,,,,,,,,,,,,,,,,,,,,,,,,,,,,,,,,,,,,,,,,,,,,,,,,,,,,,,,,,,,,,,
,,,,,,0,0,0,0,1,X V Q F H G B L J M P D K C T S W R N Z,5e70ed7e77bbac01812979cf,26,Mężczyzna,2022-06-11_09h36.32.465,task,2021.1.4,Win32,59.70149254,6299f149e92ead563fba08ef,62a445d6d2dd1bef33832b08,,,,,,,,,,,,,,,,,,,,,,,,,,,,,,,,,,,,,,,,,,,,,,,,,,,,,,,,,,,,,,,,,,,,,,,,,,,,,,,,,,,,,,,,,,,,,,,,,,,,,
,,,,,,1,0,1,0,1,X V Q F H G B L J M P D K C T S W R N Z,5e70ed7e77bbac01812979cf,26,Mężczyzna,2022-06-11_09h36.32.465,task,2021.1.4,Win32,59.70149254,6299f149e92ead563fba08ef,62a445d6d2dd1bef33832b08,,,,,,,,,,,,,,,,,,,,,,,,,,,,,,,,,,,,,,,,,,,,,,,,,,,,,,,,,,,,,,,,,,,,,,,,,,,,,,,,,,,,,,,,,,,,,,,,,,,,,
,,,,,,2,0,2,0,1,X V Q F H G B L J M P D K C T S W R N Z,5e70ed7e77bbac01812979cf,26,Mężczyzna,2022-06-11_09h36.32.465,task,2021.1.4,Win32,59.70149254,6299f149e92ead563fba08ef,62a445d6d2dd1bef33832b08,,,,,,,,,,,,,,,,,,,,,,,,,,,,,,,,,,,,,,,,,,,,,,,,,,,,,,,,,,,,,,,,,,,,,,,,,,,,,,,,,,,,,,,,,,,,,,,,,,,,,
,,,,,,3,0,3,0,1,X V Q F H G B L J M P D K C T S W R N Z,5e70ed7e77bbac01812979cf,26,Mężczyzna,2022-06-11_09h36.32.465,task,2021.1.4,Win32,59.70149254,6299f149e92ead563fba08ef,62a445d6d2dd1bef33832b08,,,,,,,,,,,,,,,,,,,,,,,,,,,,,,,,,,,,,,,,,,,,,,,,,,,,,,,,,,,,,,,,,,,,,,,,,,,,,,,,,,,,,,,,,,,,,,,,,,,,,
,,,,,,4,0,4,0,1,X V Q F H G B L J M P D K C T S W R N Z,5e70ed7e77bbac01812979cf,26,Mężczyzna,2022-06-11_09h36.32.465,task,2021.1.4,Win32,59.70149254,6299f149e92ead563fba08ef,62a445d6d2dd1bef33832b08,,,,,,,,,,,,,,,,,,,,,,,,,,,,,,,,,,,,,,,,,,,,,,,,,,,,,,,,,,,,,,,,,,,,,,,,,,,,,,,,,,,,,,,,,,,,,,,,,,,,,
,,,,,,5,0,5,0,1,X V Q F H G B L J M P D K C T S W R N Z,5e70ed7e77bbac01812979cf,26,Mężczyzna,2022-06-11_09h36.32.465,task,2021.1.4,Win32,59.70149254,6299f149e92ead563fba08ef,62a445d6d2dd1bef33832b08,,,,,,,,,,,,,,,,,,,,,,,,,,,,,,,,,,,,,,,,,,,,,,,,,,,,,,,,,,,,,,,,,,,,,,,,,,,,,,,,,,,,,,,,,,,,,,,,,,,,,
,,,,,,6,0,6,0,1,X V Q F H G B L J M P D K C T S W R N Z,5e70ed7e77bbac01812979cf,26,Mężczyzna,2022-06-11_09h36.32.465,task,2021.1.4,Win32,59.70149254,6299f149e92ead563fba08ef,62a445d6d2dd1bef33832b08,,,,,,,,,,,,,,,,,,,,,,,,,,,,,,,,,,,,,,,,,,,,,,,,,,,,,,,,,,,,,,,,,,,,,,,,,,,,,,,,,,,,,,,,,,,,,,,,,,,,,
,,,,,,7,0,7,0,1,X V Q F H G B L J M P D K C T S W R N Z,5e70ed7e77bbac01812979cf,26,Mężczyzna,2022-06-11_09h36.32.465,task,2021.1.4,Win32,59.70149254,6299f149e92ead563fba08ef,62a445d6d2dd1bef33832b08,,,,,,,,,,,,,,,,,,,,,,,,,,,,,,,,,,,,,,,,,,,,,,,,,,,,,,,,,,,,,,,,,,,,,,,,,,,,,,,,,,,,,,,,,,,,,,,,,,,,,
,,,,,,8,0,8,0,1,X V Q F H G B L J M P D K C T S W R N Z,5e70ed7e77bbac01812979cf,26,Mężczyzna,2022-06-11_09h36.32.465,task,2021.1.4,Win32,59.70149254,6299f149e92ead563fba08ef,62a445d6d2dd1bef33832b08,,,,,,,,,,,,,,,,,,,,,,,,,,,,,,,,,,,,,,,,,,,,,,,,,,,,,,,,,,,,,,,,,,,,,,,,,,,,,,,,,,,,,,,,,,,,,,,,,,,,,
,,,,,,,,,,,,5e70ed7e77bbac01812979cf,26,Mężczyzna,2022-06-11_09h36.32.465,task,2021.1.4,Win32,59.70149254,6299f149e92ead563fba08ef,62a445d6d2dd1bef33832b08,lngxstrrm,"[""l"",""n"",""g"",""x"",""s"",""t"",""r"",""r"",""m""]","[2.3160000000000025,2.5515000000000043,2.6162000000476837,3.2227000000476664,3.639900000035766,4.47190000003576,4.740700000047667,4.891600000023828,5.359900000035765,5.706800000011924]",1,LNGXSTRRM,17,0,17,0,1,,,,,,,,,,,,,,,,,,,,,,,,,,,,,,,,,,,,,,,,,,,,,,,,,,,,,,,,,,,,,,,,,,,,,,,,,,,,,,,,,,,,,,,,,,,
,,,,,,0,0,0,0,1,X V Q F H G B L J M P D K C T S W R N Z,5e70ed7e77bbac01812979cf,26,Mężczyzna,2022-06-11_09h36.32.465,task,2021.1.4,Win32,59.70149254,6299f149e92ead563fba08ef,62a445d6d2dd1bef33832b08,,,,,,,,,,,,,,,,,,,,,,,,,,,,,,,,,,,,,,,,,,,,,,,,,,,,,,,,,,,,,,,,,,,,,,,,,,,,,,,,,,,,,,,,,,,,,,,,,,,,,
,,,,,,1,0,1,0,1,X V Q F H G B L J M P D K C T S W R N Z,5e70ed7e77bbac01812979cf,26,Mężczyzna,2022-06-11_09h36.32.465,task,2021.1.4,Win32,59.70149254,6299f149e92ead563fba08ef,62a445d6d2dd1bef33832b08,,,,,,,,,,,,,,,,,,,,,,,,,,,,,,,,,,,,,,,,,,,,,,,,,,,,,,,,,,,,,,,,,,,,,,,,,,,,,,,,,,,,,,,,,,,,,,,,,,,,,
,,,,,,2,0,2,0,1,X V Q F H G B L J M P D K C T S W R N Z,5e70ed7e77bbac01812979cf,26,Mężczyzna,2022-06-11_09h36.32.465,task,2021.1.4,Win32,59.70149254,6299f149e92ead563fba08ef,62a445d6d2dd1bef33832b08,,,,,,,,,,,,,,,,,,,,,,,,,,,,,,,,,,,,,,,,,,,,,,,,,,,,,,,,,,,,,,,,,,,,,,,,,,,,,,,,,,,,,,,,,,,,,,,,,,,,,
,,,,,,3,0,3,0,1,X V Q F H G B L J M P D K C T S W R N Z,5e70ed7e77bbac01812979cf,26,Mężczyzna,2022-06-11_09h36.32.465,task,2021.1.4,Win32,59.70149254,6299f149e92ead563fba08ef,62a445d6d2dd1bef33832b08,,,,,,,,,,,,,,,,,,,,,,,,,,,,,,,,,,,,,,,,,,,,,,,,,,,,,,,,,,,,,,,,,,,,,,,,,,,,,,,,,,,,,,,,,,,,,,,,,,,,,
,,,,,,4,0,4,0,1,X V Q F H G B L J M P D K C T S W R N Z,5e70ed7e77bbac01812979cf,26,Mężczyzna,2022-06-11_09h36.32.465,task,2021.1.4,Win32,59.70149254,6299f149e92ead563fba08ef,62a445d6d2dd1bef33832b08,,,,,,,,,,,,,,,,,,,,,,,,,,,,,,,,,,,,,,,,,,,,,,,,,,,,,,,,,,,,,,,,,,,,,,,,,,,,,,,,,,,,,,,,,,,,,,,,,,,,,
,,,,,,5,0,5,0,1,X V Q F H G B L J M P D K C T S W R N Z,5e70ed7e77bbac01812979cf,26,Mężczyzna,2022-06-11_09h36.32.465,task,2021.1.4,Win32,59.70149254,6299f149e92ead563fba08ef,62a445d6d2dd1bef33832b08,,,,,,,,,,,,,,,,,,,,,,,,,,,,,,,,,,,,,,,,,,,,,,,,,,,,,,,,,,,,,,,,,,,,,,,,,,,,,,,,,,,,,,,,,,,,,,,,,,,,,
,,,,,,6,0,6,0,1,X V Q F H G B L J M P D K C T S W R N Z,5e70ed7e77bbac01812979cf,26,Mężczyzna,2022-06-11_09h36.32.465,task,2021.1.4,Win32,59.70149254,6299f149e92ead563fba08ef,62a445d6d2dd1bef33832b08,,,,,,,,,,,,,,,,,,,,,,,,,,,,,,,,,,,,,,,,,,,,,,,,,,,,,,,,,,,,,,,,,,,,,,,,,,,,,,,,,,,,,,,,,,,,,,,,,,,,,
,,,,,,7,0,7,0,1,X V Q F H G B L J M P D K C T S W R N Z,5e70ed7e77bbac01812979cf,26,Mężczyzna,2022-06-11_09h36.32.465,task,2021.1.4,Win32,59.70149254,6299f149e92ead563fba08ef,62a445d6d2dd1bef33832b08,,,,,,,,,,,,,,,,,,,,,,,,,,,,,,,,,,,,,,,,,,,,,,,,,,,,,,,,,,,,,,,,,,,,,,,,,,,,,,,,,,,,,,,,,,,,,,,,,,,,,
,,,,,,8,0,8,0,1,X V Q F H G B L J M P D K C T S W R N Z,5e70ed7e77bbac01812979cf,26,Mężczyzna,2022-06-11_09h36.32.465,task,2021.1.4,Win32,59.70149254,6299f149e92ead563fba08ef,62a445d6d2dd1bef33832b08,,,,,,,,,,,,,,,,,,,,,,,,,,,,,,,,,,,,,,,,,,,,,,,,,,,,,,,,,,,,,,,,,,,,,,,,,,,,,,,,,,,,,,,,,,,,,,,,,,,,,
,,,,,,,,,,,,5e70ed7e77bbac01812979cf,26,Mężczyzna,2022-06-11_09h36.32.465,task,2021.1.4,Win32,59.70149254,6299f149e92ead563fba08ef,62a445d6d2dd1bef33832b08,zgzrpmwlm,"[""z"",""g"",""z"",""r"",""p"",""m"",""w"",""l"",""m""]","[2.2375000000000114,2.6815999999642486,3.1396999999880677,3.9717999999523386,4.175699999988069,4.859699999988095,5.500899999976184,5.659699999988106,5.900899999976161,6.470699999988085]",1,ZGZRPMWLM,18,0,18,0,1,,,,,,,,,,,,,,,,,,,,,,,,,,,,,,,,,,,,,,,,,,,,,,,,,,,,,,,,,,,,,,,,,,,,,,,,,,,,,,,,,,,,,,,,,,,
,,,,,,0,0,0,0,1,X V Q F H G B L J M P D K C T S W R N Z,5e70ed7e77bbac01812979cf,26,Mężczyzna,2022-06-11_09h36.32.465,task,2021.1.4,Win32,59.70149254,6299f149e92ead563fba08ef,62a445d6d2dd1bef33832b08,,,,,,,,,,,,,,,,,,,,,,,,,,,,,,,,,,,,,,,,,,,,,,,,,,,,,,,,,,,,,,,,,,,,,,,,,,,,,,,,,,,,,,,,,,,,,,,,,,,,,
,,,,,,1,0,1,0,1,X V Q F H G B L J M P D K C T S W R N Z,5e70ed7e77bbac01812979cf,26,Mężczyzna,2022-06-11_09h36.32.465,task,2021.1.4,Win32,59.70149254,6299f149e92ead563fba08ef,62a445d6d2dd1bef33832b08,,,,,,,,,,,,,,,,,,,,,,,,,,,,,,,,,,,,,,,,,,,,,,,,,,,,,,,,,,,,,,,,,,,,,,,,,,,,,,,,,,,,,,,,,,,,,,,,,,,,,
,,,,,,2,0,2,0,1,X V Q F H G B L J M P D K C T S W R N Z,5e70ed7e77bbac01812979cf,26,Mężczyzna,2022-06-11_09h36.32.465,task,2021.1.4,Win32,59.70149254,6299f149e92ead563fba08ef,62a445d6d2dd1bef33832b08,,,,,,,,,,,,,,,,,,,,,,,,,,,,,,,,,,,,,,,,,,,,,,,,,,,,,,,,,,,,,,,,,,,,,,,,,,,,,,,,,,,,,,,,,,,,,,,,,,,,,
,,,,,,3,0,3,0,1,X V Q F H G B L J M P D K C T S W R N Z,5e70ed7e77bbac01812979cf,26,Mężczyzna,2022-06-11_09h36.32.465,task,2021.1.4,Win32,59.70149254,6299f149e92ead563fba08ef,62a445d6d2dd1bef33832b08,,,,,,,,,,,,,,,,,,,,,,,,,,,,,,,,,,,,,,,,,,,,,,,,,,,,,,,,,,,,,,,,,,,,,,,,,,,,,,,,,,,,,,,,,,,,,,,,,,,,,
,,,,,,4,0,4,0,1,X V Q F H G B L J M P D K C T S W R N Z,5e70ed7e77bbac01812979cf,26,Mężczyzna,2022-06-11_09h36.32.465,task,2021.1.4,Win32,59.70149254,6299f149e92ead563fba08ef,62a445d6d2dd1bef33832b08,,,,,,,,,,,,,,,,,,,,,,,,,,,,,,,,,,,,,,,,,,,,,,,,,,,,,,,,,,,,,,,,,,,,,,,,,,,,,,,,,,,,,,,,,,,,,,,,,,,,,
,,,,,,5,0,5,0,1,X V Q F H G B L J M P D K C T S W R N Z,5e70ed7e77bbac01812979cf,26,Mężczyzna,2022-06-11_09h36.32.465,task,2021.1.4,Win32,59.70149254,6299f149e92ead563fba08ef,62a445d6d2dd1bef33832b08,,,,,,,,,,,,,,,,,,,,,,,,,,,,,,,,,,,,,,,,,,,,,,,,,,,,,,,,,,,,,,,,,,,,,,,,,,,,,,,,,,,,,,,,,,,,,,,,,,,,,
,,,,,,6,0,6,0,1,X V Q F H G B L J M P D K C T S W R N Z,5e70ed7e77bbac01812979cf,26,Mężczyzna,2022-06-11_09h36.32.465,task,2021.1.4,Win32,59.70149254,6299f149e92ead563fba08ef,62a445d6d2dd1bef33832b08,,,,,,,,,,,,,,,,,,,,,,,,,,,,,,,,,,,,,,,,,,,,,,,,,,,,,,,,,,,,,,,,,,,,,,,,,,,,,,,,,,,,,,,,,,,,,,,,,,,,,
,,,,,,7,0,7,0,1,X V Q F H G B L J M P D K C T S W R N Z,5e70ed7e77bbac01812979cf,26,Mężczyzna,2022-06-11_09h36.32.465,task,2021.1.4,Win32,59.70149254,6299f149e92ead563fba08ef,62a445d6d2dd1bef33832b08,,,,,,,,,,,,,,,,,,,,,,,,,,,,,,,,,,,,,,,,,,,,,,,,,,,,,,,,,,,,,,,,,,,,,,,,,,,,,,,,,,,,,,,,,,,,,,,,,,,,,
,,,,,,8,0,8,0,1,X V Q F H G B L J M P D K C T S W R N Z,5e70ed7e77bbac01812979cf,26,Mężczyzna,2022-06-11_09h36.32.465,task,2021.1.4,Win32,59.70149254,6299f149e92ead563fba08ef,62a445d6d2dd1bef33832b08,,,,,,,,,,,,,,,,,,,,,,,,,,,,,,,,,,,,,,,,,,,,,,,,,,,,,,,,,,,,,,,,,,,,,,,,,,,,,,,,,,,,,,,,,,,,,,,,,,,,,
,,,,,,9,0,9,0,1,X V Q F H G B L J M P D K C T S W R N Z,5e70ed7e77bbac01812979cf,26,Mężczyzna,2022-06-11_09h36.32.465,task,2021.1.4,Win32,59.70149254,6299f149e92ead563fba08ef,62a445d6d2dd1bef33832b08,,,,,,,,,,,,,,,,,,,,,,,,,,,,,,,,,,,,,,,,,,,,,,,,,,,,,,,,,,,,,,,,,,,,,,,,,,,,,,,,,,,,,,,,,,,,,,,,,,,,,
,,,,,,,,,,,,5e70ed7e77bbac01812979cf,26,Mężczyzna,2022-06-11_09h36.32.465,task,2021.1.4,Win32,59.70149254,6299f149e92ead563fba08ef,62a445d6d2dd1bef33832b08,fcnwtpjdsn,"[""f"",""c"",""n"",""w"",""t"",""p"",""j"",""d"",""s"",""n""]","[13.956599999964226,14.408500000000004,17.188599999964254,17.62079999995234,18.212599999964254,19.105000000000018,19.276299999952357,19.780699999988087,20.05619999998811,20.456000000000017,20.97129999995235]",1,FCNWTPJDSN,19,0,19,0,1,,,,,,,,,,,,,,,,,,,,,,,,,,,,,,,,,,,,,,,,,,,,,,,,,,,,,,,,,,,,,,,,,,,,,,,,,,,,,,,,,,,,,,,,,,,
,,,,,,0,0,0,0,1,X V Q F H G B L J M P D K C T S W R N Z,5e70ed7e77bbac01812979cf,26,Mężczyzna,2022-06-11_09h36.32.465,task,2021.1.4,Win32,59.70149254,6299f149e92ead563fba08ef,62a445d6d2dd1bef33832b08,,,,,,,,,,,,,,,,,,,,,,,,,,,,,,,,,,,,,,,,,,,,,,,,,,,,,,,,,,,,,,,,,,,,,,,,,,,,,,,,,,,,,,,,,,,,,,,,,,,,,
,,,,,,1,0,1,0,1,X V Q F H G B L J M P D K C T S W R N Z,5e70ed7e77bbac01812979cf,26,Mężczyzna,2022-06-11_09h36.32.465,task,2021.1.4,Win32,59.70149254,6299f149e92ead563fba08ef,62a445d6d2dd1bef33832b08,,,,,,,,,,,,,,,,,,,,,,,,,,,,,,,,,,,,,,,,,,,,,,,,,,,,,,,,,,,,,,,,,,,,,,,,,,,,,,,,,,,,,,,,,,,,,,,,,,,,,
,,,,,,2,0,2,0,1,X V Q F H G B L J M P D K C T S W R N Z,5e70ed7e77bbac01812979cf,26,Mężczyzna,2022-06-11_09h36.32.465,task,2021.1.4,Win32,59.70149254,6299f149e92ead563fba08ef,62a445d6d2dd1bef33832b08,,,,,,,,,,,,,,,,,,,,,,,,,,,,,,,,,,,,,,,,,,,,,,,,,,,,,,,,,,,,,,,,,,,,,,,,,,,,,,,,,,,,,,,,,,,,,,,,,,,,,
,,,,,,3,0,3,0,1,X V Q F H G B L J M P D K C T S W R N Z,5e70ed7e77bbac01812979cf,26,Mężczyzna,2022-06-11_09h36.32.465,task,2021.1.4,Win32,59.70149254,6299f149e92ead563fba08ef,62a445d6d2dd1bef33832b08,,,,,,,,,,,,,,,,,,,,,,,,,,,,,,,,,,,,,,,,,,,,,,,,,,,,,,,,,,,,,,,,,,,,,,,,,,,,,,,,,,,,,,,,,,,,,,,,,,,,,
,,,,,,4,0,4,0,1,X V Q F H G B L J M P D K C T S W R N Z,5e70ed7e77bbac01812979cf,26,Mężczyzna,2022-06-11_09h36.32.465,task,2021.1.4,Win32,59.70149254,6299f149e92ead563fba08ef,62a445d6d2dd1bef33832b08,,,,,,,,,,,,,,,,,,,,,,,,,,,,,,,,,,,,,,,,,,,,,,,,,,,,,,,,,,,,,,,,,,,,,,,,,,,,,,,,,,,,,,,,,,,,,,,,,,,,,
,,,,,,5,0,5,0,1,X V Q F H G B L J M P D K C T S W R N Z,5e70ed7e77bbac01812979cf,26,Mężczyzna,2022-06-11_09h36.32.465,task,2021.1.4,Win32,59.70149254,6299f149e92ead563fba08ef,62a445d6d2dd1bef33832b08,,,,,,,,,,,,,,,,,,,,,,,,,,,,,,,,,,,,,,,,,,,,,,,,,,,,,,,,,,,,,,,,,,,,,,,,,,,,,,,,,,,,,,,,,,,,,,,,,,,,,
,,,,,,6,0,6,0,1,X V Q F H G B L J M P D K C T S W R N Z,5e70ed7e77bbac01812979cf,26,Mężczyzna,2022-06-11_09h36.32.465,task,2021.1.4,Win32,59.70149254,6299f149e92ead563fba08ef,62a445d6d2dd1bef33832b08,,,,,,,,,,,,,,,,,,,,,,,,,,,,,,,,,,,,,,,,,,,,,,,,,,,,,,,,,,,,,,,,,,,,,,,,,,,,,,,,,,,,,,,,,,,,,,,,,,,,,
,,,,,,7,0,7,0,1,X V Q F H G B L J M P D K C T S W R N Z,5e70ed7e77bbac01812979cf,26,Mężczyzna,2022-06-11_09h36.32.465,task,2021.1.4,Win32,59.70149254,6299f149e92ead563fba08ef,62a445d6d2dd1bef33832b08,,,,,,,,,,,,,,,,,,,,,,,,,,,,,,,,,,,,,,,,,,,,,,,,,,,,,,,,,,,,,,,,,,,,,,,,,,,,,,,,,,,,,,,,,,,,,,,,,,,,,
,,,,,,8,0,8,0,1,X V Q F H G B L J M P D K C T S W R N Z,5e70ed7e77bbac01812979cf,26,Mężczyzna,2022-06-11_09h36.32.465,task,2021.1.4,Win32,59.70149254,6299f149e92ead563fba08ef,62a445d6d2dd1bef33832b08,,,,,,,,,,,,,,,,,,,,,,,,,,,,,,,,,,,,,,,,,,,,,,,,,,,,,,,,,,,,,,,,,,,,,,,,,,,,,,,,,,,,,,,,,,,,,,,,,,,,,
,,,,,,9,0,9,0,1,X V Q F H G B L J M P D K C T S W R N Z,5e70ed7e77bbac01812979cf,26,Mężczyzna,2022-06-11_09h36.32.465,task,2021.1.4,Win32,59.70149254,6299f149e92ead563fba08ef,62a445d6d2dd1bef33832b08,,,,,,,,,,,,,,,,,,,,,,,,,,,,,,,,,,,,,,,,,,,,,,,,,,,,,,,,,,,,,,,,,,,,,,,,,,,,,,,,,,,,,,,,,,,,,,,,,,,,,
,,,,,,,,,,,,5e70ed7e77bbac01812979cf,26,Mężczyzna,2022-06-11_09h36.32.465,task,2021.1.4,Win32,59.70149254,6299f149e92ead563fba08ef,62a445d6d2dd1bef33832b08,kfgdrjkksf,"[""k"",""f"",""g"",""d"",""r"",""j"",""k"",""k"",""s"",""f""]","[2.9824000000357387,3.1484000000357355,3.584000000000003,4.708500000000015,5.0885000000000105,5.7179000000357405,9.304400000035741,9.460100000023829,10.140400000035754,10.468199999988087,13.6791999999881]",1,KFGDRJKKSF,20,0,20,0,1,,,,,,,,,,,,,,,,,,,,,,,,,,,,,,,,,,,,,,,,,,,,,,,,,,,,,,,,,,,,,,,,,,,,,,,,,,,,,,,,,,,,,,,,,,,
,,,,,,0,0,0,0,1,X V Q F H G B L J M P D K C T S W R N Z,5e70ed7e77bbac01812979cf,26,Mężczyzna,2022-06-11_09h36.32.465,task,2021.1.4,Win32,59.70149254,6299f149e92ead563fba08ef,62a445d6d2dd1bef33832b08,,,,,,,,,,,,,,,,,,,,,,,,,,,,,,,,,,,,,,,,,,,,,,,,,,,,,,,,,,,,,,,,,,,,,,,,,,,,,,,,,,,,,,,,,,,,,,,,,,,,,
,,,,,,1,0,1,0,1,X V Q F H G B L J M P D K C T S W R N Z,5e70ed7e77bbac01812979cf,26,Mężczyzna,2022-06-11_09h36.32.465,task,2021.1.4,Win32,59.70149254,6299f149e92ead563fba08ef,62a445d6d2dd1bef33832b08,,,,,,,,,,,,,,,,,,,,,,,,,,,,,,,,,,,,,,,,,,,,,,,,,,,,,,,,,,,,,,,,,,,,,,,,,,,,,,,,,,,,,,,,,,,,,,,,,,,,,
,,,,,,2,0,2,0,1,X V Q F H G B L J M P D K C T S W R N Z,5e70ed7e77bbac01812979cf,26,Mężczyzna,2022-06-11_09h36.32.465,task,2021.1.4,Win32,59.70149254,6299f149e92ead563fba08ef,62a445d6d2dd1bef33832b08,,,,,,,,,,,,,,,,,,,,,,,,,,,,,,,,,,,,,,,,,,,,,,,,,,,,,,,,,,,,,,,,,,,,,,,,,,,,,,,,,,,,,,,,,,,,,,,,,,,,,
,,,,,,3,0,3,0,1,X V Q F H G B L J M P D K C T S W R N Z,5e70ed7e77bbac01812979cf,26,Mężczyzna,2022-06-11_09h36.32.465,task,2021.1.4,Win32,59.70149254,6299f149e92ead563fba08ef,62a445d6d2dd1bef33832b08,,,,,,,,,,,,,,,,,,,,,,,,,,,,,,,,,,,,,,,,,,,,,,,,,,,,,,,,,,,,,,,,,,,,,,,,,,,,,,,,,,,,,,,,,,,,,,,,,,,,,
,,,,,,4,0,4,0,1,X V Q F H G B L J M P D K C T S W R N Z,5e70ed7e77bbac01812979cf,26,Mężczyzna,2022-06-11_09h36.32.465,task,2021.1.4,Win32,59.70149254,6299f149e92ead563fba08ef,62a445d6d2dd1bef33832b08,,,,,,,,,,,,,,,,,,,,,,,,,,,,,,,,,,,,,,,,,,,,,,,,,,,,,,,,,,,,,,,,,,,,,,,,,,,,,,,,,,,,,,,,,,,,,,,,,,,,,
,,,,,,5,0,5,0,1,X V Q F H G B L J M P D K C T S W R N Z,5e70ed7e77bbac01812979cf,26,Mężczyzna,2022-06-11_09h36.32.465,task,2021.1.4,Win32,59.70149254,6299f149e92ead563fba08ef,62a445d6d2dd1bef33832b08,,,,,,,,,,,,,,,,,,,,,,,,,,,,,,,,,,,,,,,,,,,,,,,,,,,,,,,,,,,,,,,,,,,,,,,,,,,,,,,,,,,,,,,,,,,,,,,,,,,,,
,,,,,,6,0,6,0,1,X V Q F H G B L J M P D K C T S W R N Z,5e70ed7e77bbac01812979cf,26,Mężczyzna,2022-06-11_09h36.32.465,task,2021.1.4,Win32,59.70149254,6299f149e92ead563fba08ef,62a445d6d2dd1bef33832b08,,,,,,,,,,,,,,,,,,,,,,,,,,,,,,,,,,,,,,,,,,,,,,,,,,,,,,,,,,,,,,,,,,,,,,,,,,,,,,,,,,,,,,,,,,,,,,,,,,,,,
,,,,,,7,0,7,0,1,X V Q F H G B L J M P D K C T S W R N Z,5e70ed7e77bbac01812979cf,26,Mężczyzna,2022-06-11_09h36.32.465,task,2021.1.4,Win32,59.70149254,6299f149e92ead563fba08ef,62a445d6d2dd1bef33832b08,,,,,,,,,,,,,,,,,,,,,,,,,,,,,,,,,,,,,,,,,,,,,,,,,,,,,,,,,,,,,,,,,,,,,,,,,,,,,,,,,,,,,,,,,,,,,,,,,,,,,
,,,,,,8,0,8,0,1,X V Q F H G B L J M P D K C T S W R N Z,5e70ed7e77bbac01812979cf,26,Mężczyzna,2022-06-11_09h36.32.465,task,2021.1.4,Win32,59.70149254,6299f149e92ead563fba08ef,62a445d6d2dd1bef33832b08,,,,,,,,,,,,,,,,,,,,,,,,,,,,,,,,,,,,,,,,,,,,,,,,,,,,,,,,,,,,,,,,,,,,,,,,,,,,,,,,,,,,,,,,,,,,,,,,,,,,,
,,,,,,9,0,9,0,1,X V Q F H G B L J M P D K C T S W R N Z,5e70ed7e77bbac01812979cf,26,Mężczyzna,2022-06-11_09h36.32.465,task,2021.1.4,Win32,59.70149254,6299f149e92ead563fba08ef,62a445d6d2dd1bef33832b08,,,,,,,,,,,,,,,,,,,,,,,,,,,,,,,,,,,,,,,,,,,,,,,,,,,,,,,,,,,,,,,,,,,,,,,,,,,,,,,,,,,,,,,,,,,,,,,,,,,,,
,,,,,,10,0,10,0,1,X V Q F H G B L J M P D K C T S W R N Z,5e70ed7e77bbac01812979cf,26,Mężczyzna,2022-06-11_09h36.32.465,task,2021.1.4,Win32,59.70149254,6299f149e92ead563fba08ef,62a445d6d2dd1bef33832b08,,,,,,,,,,,,,,,,,,,,,,,,,,,,,,,,,,,,,,,,,,,,,,,,,,,,,,,,,,,,,,,,,,,,,,,,,,,,,,,,,,,,,,,,,,,,,,,,,,,,,
,,,,,,,,,,,,5e70ed7e77bbac01812979cf,26,Mężczyzna,2022-06-11_09h36.32.465,task,2021.1.4,Win32,59.70149254,6299f149e92ead563fba08ef,62a445d6d2dd1bef33832b08,pnhhkfmztlq,"[""p"",""n"",""h"",""h"",""k"",""f"",""m"",""z"",""t"",""l"",""q""]","[2.842800000011948,3.0491000000238273,3.3906000000238805,4.922500000000014,5.733499999999992,6.03839999997615,6.600399999976162,6.774600000023838,7.350300000011941,7.542600000023867,7.738499999999988,8.16710000002388]",1,PNHHKFMZTLQ,21,0,21,0,1,,,,,,,,,,,,,,,,,,,,,,,,,,,,,,,,,,,,,,,,,,,,,,,,,,,,,,,,,,,,,,,,,,,,,,,,,,,,,,,,,,,,,,,,,,,
,,,,,,0,0,0,0,1,X V Q F H G B L J M P D K C T S W R N Z,5e70ed7e77bbac01812979cf,26,Mężczyzna,2022-06-11_09h36.32.465,task,2021.1.4,Win32,59.70149254,6299f149e92ead563fba08ef,62a445d6d2dd1bef33832b08,,,,,,,,,,,,,,,,,,,,,,,,,,,,,,,,,,,,,,,,,,,,,,,,,,,,,,,,,,,,,,,,,,,,,,,,,,,,,,,,,,,,,,,,,,,,,,,,,,,,,
,,,,,,1,0,1,0,1,X V Q F H G B L J M P D K C T S W R N Z,5e70ed7e77bbac01812979cf,26,Mężczyzna,2022-06-11_09h36.32.465,task,2021.1.4,Win32,59.70149254,6299f149e92ead563fba08ef,62a445d6d2dd1bef33832b08,,,,,,,,,,,,,,,,,,,,,,,,,,,,,,,,,,,,,,,,,,,,,,,,,,,,,,,,,,,,,,,,,,,,,,,,,,,,,,,,,,,,,,,,,,,,,,,,,,,,,
,,,,,,2,0,2,0,1,X V Q F H G B L J M P D K C T S W R N Z,5e70ed7e77bbac01812979cf,26,Mężczyzna,2022-06-11_09h36.32.465,task,2021.1.4,Win32,59.70149254,6299f149e92ead563fba08ef,62a445d6d2dd1bef33832b08,,,,,,,,,,,,,,,,,,,,,,,,,,,,,,,,,,,,,,,,,,,,,,,,,,,,,,,,,,,,,,,,,,,,,,,,,,,,,,,,,,,,,,,,,,,,,,,,,,,,,
,,,,,,3,0,3,0,1,X V Q F H G B L J M P D K C T S W R N Z,5e70ed7e77bbac01812979cf,26,Mężczyzna,2022-06-11_09h36.32.465,task,2021.1.4,Win32,59.70149254,6299f149e92ead563fba08ef,62a445d6d2dd1bef33832b08,,,,,,,,,,,,,,,,,,,,,,,,,,,,,,,,,,,,,,,,,,,,,,,,,,,,,,,,,,,,,,,,,,,,,,,,,,,,,,,,,,,,,,,,,,,,,,,,,,,,,
,,,,,,4,0,4,0,1,X V Q F H G B L J M P D K C T S W R N Z,5e70ed7e77bbac01812979cf,26,Mężczyzna,2022-06-11_09h36.32.465,task,2021.1.4,Win32,59.70149254,6299f149e92ead563fba08ef,62a445d6d2dd1bef33832b08,,,,,,,,,,,,,,,,,,,,,,,,,,,,,,,,,,,,,,,,,,,,,,,,,,,,,,,,,,,,,,,,,,,,,,,,,,,,,,,,,,,,,,,,,,,,,,,,,,,,,
,,,,,,5,0,5,0,1,X V Q F H G B L J M P D K C T S W R N Z,5e70ed7e77bbac01812979cf,26,Mężczyzna,2022-06-11_09h36.32.465,task,2021.1.4,Win32,59.70149254,6299f149e92ead563fba08ef,62a445d6d2dd1bef33832b08,,,,,,,,,,,,,,,,,,,,,,,,,,,,,,,,,,,,,,,,,,,,,,,,,,,,,,,,,,,,,,,,,,,,,,,,,,,,,,,,,,,,,,,,,,,,,,,,,,,,,
,,,,,,6,0,6,0,1,X V Q F H G B L J M P D K C T S W R N Z,5e70ed7e77bbac01812979cf,26,Mężczyzna,2022-06-11_09h36.32.465,task,2021.1.4,Win32,59.70149254,6299f149e92ead563fba08ef,62a445d6d2dd1bef33832b08,,,,,,,,,,,,,,,,,,,,,,,,,,,,,,,,,,,,,,,,,,,,,,,,,,,,,,,,,,,,,,,,,,,,,,,,,,,,,,,,,,,,,,,,,,,,,,,,,,,,,
,,,,,,7,0,7,0,1,X V Q F H G B L J M P D K C T S W R N Z,5e70ed7e77bbac01812979cf,26,Mężczyzna,2022-06-11_09h36.32.465,task,2021.1.4,Win32,59.70149254,6299f149e92ead563fba08ef,62a445d6d2dd1bef33832b08,,,,,,,,,,,,,,,,,,,,,,,,,,,,,,,,,,,,,,,,,,,,,,,,,,,,,,,,,,,,,,,,,,,,,,,,,,,,,,,,,,,,,,,,,,,,,,,,,,,,,
,,,,,,8,0,8,0,1,X V Q F H G B L J M P D K C T S W R N Z,5e70ed7e77bbac01812979cf,26,Mężczyzna,2022-06-11_09h36.32.465,task,2021.1.4,Win32,59.70149254,6299f149e92ead563fba08ef,62a445d6d2dd1bef33832b08,,,,,,,,,,,,,,,,,,,,,,,,,,,,,,,,,,,,,,,,,,,,,,,,,,,,,,,,,,,,,,,,,,,,,,,,,,,,,,,,,,,,,,,,,,,,,,,,,,,,,
,,,,,,9,0,9,0,1,X V Q F H G B L J M P D K C T S W R N Z,5e70ed7e77bbac01812979cf,26,Mężczyzna,2022-06-11_09h36.32.465,task,2021.1.4,Win32,59.70149254,6299f149e92ead563fba08ef,62a445d6d2dd1bef33832b08,,,,,,,,,,,,,,,,,,,,,,,,,,,,,,,,,,,,,,,,,,,,,,,,,,,,,,,,,,,,,,,,,,,,,,,,,,,,,,,,,,,,,,,,,,,,,,,,,,,,,
,,,,,,10,0,10,0,1,X V Q F H G B L J M P D K C T S W R N Z,5e70ed7e77bbac01812979cf,26,Mężczyzna,2022-06-11_09h36.32.465,task,2021.1.4,Win32,59.70149254,6299f149e92ead563fba08ef,62a445d6d2dd1bef33832b08,,,,,,,,,,,,,,,,,,,,,,,,,,,,,,,,,,,,,,,,,,,,,,,,,,,,,,,,,,,,,,,,,,,,,,,,,,,,,,,,,,,,,,,,,,,,,,,,,,,,,
,,,,,,,,,,,,5e70ed7e77bbac01812979cf,26,Mężczyzna,2022-06-11_09h36.32.465,task,2021.1.4,Win32,59.70149254,6299f149e92ead563fba08ef,62a445d6d2dd1bef33832b08,pwsgvjrzsxc,"[""p"",""w"",""s"",""g"",""v"",""j"",""r"",""z"",""s"",""x"",""c""]","[2.322099999964223,2.497799999952349,3.0190000000000055,4.130399999976191,4.430199999988076,5.470199999988097,5.778399999976159,6.162199999988104,6.4708999999761545,6.862399999976162,7.905199999988099,8.465299999952322]",1,PWSGVJRZSXC,22,0,22,0,1,,,,,,,,,,,,,,,,,,,,,,,,,,,,,,,,,,,,,,,,,,,,,,,,,,,,,,,,,,,,,,,,,,,,,,,,,,,,,,,,,,,,,,,,,,,
,,,,,,0,0,0,0,1,X V Q F H G B L J M P D K C T S W R N Z,5e70ed7e77bbac01812979cf,26,Mężczyzna,2022-06-11_09h36.32.465,task,2021.1.4,Win32,59.70149254,6299f149e92ead563fba08ef,62a445d6d2dd1bef33832b08,,,,,,,,,,,,,,,,,,,,,,,,,,,,,,,,,,,,,,,,,,,,,,,,,,,,,,,,,,,,,,,,,,,,,,,,,,,,,,,,,,,,,,,,,,,,,,,,,,,,,
,,,,,,1,0,1,0,1,X V Q F H G B L J M P D K C T S W R N Z,5e70ed7e77bbac01812979cf,26,Mężczyzna,2022-06-11_09h36.32.465,task,2021.1.4,Win32,59.70149254,6299f149e92ead563fba08ef,62a445d6d2dd1bef33832b08,,,,,,,,,,,,,,,,,,,,,,,,,,,,,,,,,,,,,,,,,,,,,,,,,,,,,,,,,,,,,,,,,,,,,,,,,,,,,,,,,,,,,,,,,,,,,,,,,,,,,
,,,,,,2,0,2,0,1,X V Q F H G B L J M P D K C T S W R N Z,5e70ed7e77bbac01812979cf,26,Mężczyzna,2022-06-11_09h36.32.465,task,2021.1.4,Win32,59.70149254,6299f149e92ead563fba08ef,62a445d6d2dd1bef33832b08,,,,,,,,,,,,,,,,,,,,,,,,,,,,,,,,,,,,,,,,,,,,,,,,,,,,,,,,,,,,,,,,,,,,,,,,,,,,,,,,,,,,,,,,,,,,,,,,,,,,,
,,,,,,3,0,3,0,1,X V Q F H G B L J M P D K C T S W R N Z,5e70ed7e77bbac01812979cf,26,Mężczyzna,2022-06-11_09h36.32.465,task,2021.1.4,Win32,59.70149254,6299f149e92ead563fba08ef,62a445d6d2dd1bef33832b08,,,,,,,,,,,,,,,,,,,,,,,,,,,,,,,,,,,,,,,,,,,,,,,,,,,,,,,,,,,,,,,,,,,,,,,,,,,,,,,,,,,,,,,,,,,,,,,,,,,,,
,,,,,,4,0,4,0,1,X V Q F H G B L J M P D K C T S W R N Z,5e70ed7e77bbac01812979cf,26,Mężczyzna,2022-06-11_09h36.32.465,task,2021.1.4,Win32,59.70149254,6299f149e92ead563fba08ef,62a445d6d2dd1bef33832b08,,,,,,,,,,,,,,,,,,,,,,,,,,,,,,,,,,,,,,,,,,,,,,,,,,,,,,,,,,,,,,,,,,,,,,,,,,,,,,,,,,,,,,,,,,,,,,,,,,,,,
,,,,,,5,0,5,0,1,X V Q F H G B L J M P D K C T S W R N Z,5e70ed7e77bbac01812979cf,26,Mężczyzna,2022-06-11_09h36.32.465,task,2021.1.4,Win32,59.70149254,6299f149e92ead563fba08ef,62a445d6d2dd1bef33832b08,,,,,,,,,,,,,,,,,,,,,,,,,,,,,,,,,,,,,,,,,,,,,,,,,,,,,,,,,,,,,,,,,,,,,,,,,,,,,,,,,,,,,,,,,,,,,,,,,,,,,
,,,,,,6,0,6,0,1,X V Q F H G B L J M P D K C T S W R N Z,5e70ed7e77bbac01812979cf,26,Mężczyzna,2022-06-11_09h36.32.465,task,2021.1.4,Win32,59.70149254,6299f149e92ead563fba08ef,62a445d6d2dd1bef33832b08,,,,,,,,,,,,,,,,,,,,,,,,,,,,,,,,,,,,,,,,,,,,,,,,,,,,,,,,,,,,,,,,,,,,,,,,,,,,,,,,,,,,,,,,,,,,,,,,,,,,,
,,,,,,7,0,7,0,1,X V Q F H G B L J M P D K C T S W R N Z,5e70ed7e77bbac01812979cf,26,Mężczyzna,2022-06-11_09h36.32.465,task,2021.1.4,Win32,59.70149254,6299f149e92ead563fba08ef,62a445d6d2dd1bef33832b08,,,,,,,,,,,,,,,,,,,,,,,,,,,,,,,,,,,,,,,,,,,,,,,,,,,,,,,,,,,,,,,,,,,,,,,,,,,,,,,,,,,,,,,,,,,,,,,,,,,,,
,,,,,,8,0,8,0,1,X V Q F H G B L J M P D K C T S W R N Z,5e70ed7e77bbac01812979cf,26,Mężczyzna,2022-06-11_09h36.32.465,task,2021.1.4,Win32,59.70149254,6299f149e92ead563fba08ef,62a445d6d2dd1bef33832b08,,,,,,,,,,,,,,,,,,,,,,,,,,,,,,,,,,,,,,,,,,,,,,,,,,,,,,,,,,,,,,,,,,,,,,,,,,,,,,,,,,,,,,,,,,,,,,,,,,,,,
,,,,,,9,0,9,0,1,X V Q F H G B L J M P D K C T S W R N Z,5e70ed7e77bbac01812979cf,26,Mężczyzna,2022-06-11_09h36.32.465,task,2021.1.4,Win32,59.70149254,6299f149e92ead563fba08ef,62a445d6d2dd1bef33832b08,,,,,,,,,,,,,,,,,,,,,,,,,,,,,,,,,,,,,,,,,,,,,,,,,,,,,,,,,,,,,,,,,,,,,,,,,,,,,,,,,,,,,,,,,,,,,,,,,,,,,
,,,,,,10,0,10,0,1,X V Q F H G B L J M P D K C T S W R N Z,5e70ed7e77bbac01812979cf,26,Mężczyzna,2022-06-11_09h36.32.465,task,2021.1.4,Win32,59.70149254,6299f149e92ead563fba08ef,62a445d6d2dd1bef33832b08,,,,,,,,,,,,,,,,,,,,,,,,,,,,,,,,,,,,,,,,,,,,,,,,,,,,,,,,,,,,,,,,,,,,,,,,,,,,,,,,,,,,,,,,,,,,,,,,,,,,,
,,,,,,11,0,11,0,1,X V Q F H G B L J M P D K C T S W R N Z,5e70ed7e77bbac01812979cf,26,Mężczyzna,2022-06-11_09h36.32.465,task,2021.1.4,Win32,59.70149254,6299f149e92ead563fba08ef,62a445d6d2dd1bef33832b08,,,,,,,,,,,,,,,,,,,,,,,,,,,,,,,,,,,,,,,,,,,,,,,,,,,,,,,,,,,,,,,,,,,,,,,,,,,,,,,,,,,,,,,,,,,,,,,,,,,,,
,,,,,,,,,,,,5e70ed7e77bbac01812979cf,26,Mężczyzna,2022-06-11_09h36.32.465,task,2021.1.4,Win32,59.70149254,6299f149e92ead563fba08ef,62a445d6d2dd1bef33832b08,ntrkgfcslkst,"[""n"",""t"",""r"",""k"",""g"",""f"",""c"",""s"",""l"",""k"",""s"",""t""]","[2.973699999988071,3.25,3.903500000000008,5.293699999988064,5.801300000011906,6.109600000023818,6.689800000011928,7.477400000035743,7.845300000011889,8.15749999999997,8.300800000011918,9.184500000000014,10.216400000035776]",1,NTRKGFCSLKST,23,0,23,0,1,,,,,,,,,,,,,,,,,,,,,,,,,,,,,,,,,,,,,,,,,,,,,,,,,,,,,,,,,,,,,,,,,,,,,,,,,,,,,,,,,,,,,,,,,,,
,,,,,,0,0,0,0,1,X V Q F H G B L J M P D K C T S W R N Z,5e70ed7e77bbac01812979cf,26,Mężczyzna,2022-06-11_09h36.32.465,task,2021.1.4,Win32,59.70149254,6299f149e92ead563fba08ef,62a445d6d2dd1bef33832b08,,,,,,,,,,,,,,,,,,,,,,,,,,,,,,,,,,,,,,,,,,,,,,,,,,,,,,,,,,,,,,,,,,,,,,,,,,,,,,,,,,,,,,,,,,,,,,,,,,,,,
,,,,,,1,0,1,0,1,X V Q F H G B L J M P D K C T S W R N Z,5e70ed7e77bbac01812979cf,26,Mężczyzna,2022-06-11_09h36.32.465,task,2021.1.4,Win32,59.70149254,6299f149e92ead563fba08ef,62a445d6d2dd1bef33832b08,,,,,,,,,,,,,,,,,,,,,,,,,,,,,,,,,,,,,,,,,,,,,,,,,,,,,,,,,,,,,,,,,,,,,,,,,,,,,,,,,,,,,,,,,,,,,,,,,,,,,
,,,,,,2,0,2,0,1,X V Q F H G B L J M P D K C T S W R N Z,5e70ed7e77bbac01812979cf,26,Mężczyzna,2022-06-11_09h36.32.465,task,2021.1.4,Win32,59.70149254,6299f149e92ead563fba08ef,62a445d6d2dd1bef33832b08,,,,,,,,,,,,,,,,,,,,,,,,,,,,,,,,,,,,,,,,,,,,,,,,,,,,,,,,,,,,,,,,,,,,,,,,,,,,,,,,,,,,,,,,,,,,,,,,,,,,,
,,,,,,3,0,3,0,1,X V Q F H G B L J M P D K C T S W R N Z,5e70ed7e77bbac01812979cf,26,Mężczyzna,2022-06-11_09h36.32.465,task,2021.1.4,Win32,59.70149254,6299f149e92ead563fba08ef,62a445d6d2dd1bef33832b08,,,,,,,,,,,,,,,,,,,,,,,,,,,,,,,,,,,,,,,,,,,,,,,,,,,,,,,,,,,,,,,,,,,,,,,,,,,,,,,,,,,,,,,,,,,,,,,,,,,,,
,,,,,,4,0,4,0,1,X V Q F H G B L J M P D K C T S W R N Z,5e70ed7e77bbac01812979cf,26,Mężczyzna,2022-06-11_09h36.32.465,task,2021.1.4,Win32,59.70149254,6299f149e92ead563fba08ef,62a445d6d2dd1bef33832b08,,,,,,,,,,,,,,,,,,,,,,,,,,,,,,,,,,,,,,,,,,,,,,,,,,,,,,,,,,,,,,,,,,,,,,,,,,,,,,,,,,,,,,,,,,,,,,,,,,,,,
,,,,,,5,0,5,0,1,X V Q F H G B L J M P D K C T S W R N Z,5e70ed7e77bbac01812979cf,26,Mężczyzna,2022-06-11_09h36.32.465,task,2021.1.4,Win32,59.70149254,6299f149e92ead563fba08ef,62a445d6d2dd1bef33832b08,,,,,,,,,,,,,,,,,,,,,,,,,,,,,,,,,,,,,,,,,,,,,,,,,,,,,,,,,,,,,,,,,,,,,,,,,,,,,,,,,,,,,,,,,,,,,,,,,,,,,
,,,,,,6,0,6,0,1,X V Q F H G B L J M P D K C T S W R N Z,5e70ed7e77bbac01812979cf,26,Mężczyzna,2022-06-11_09h36.32.465,task,2021.1.4,Win32,59.70149254,6299f149e92ead563fba08ef,62a445d6d2dd1bef33832b08,,,,,,,,,,,,,,,,,,,,,,,,,,,,,,,,,,,,,,,,,,,,,,,,,,,,,,,,,,,,,,,,,,,,,,,,,,,,,,,,,,,,,,,,,,,,,,,,,,,,,
,,,,,,7,0,7,0,1,X V Q F H G B L J M P D K C T S W R N Z,5e70ed7e77bbac01812979cf,26,Mężczyzna,2022-06-11_09h36.32.465,task,2021.1.4,Win32,59.70149254,6299f149e92ead563fba08ef,62a445d6d2dd1bef33832b08,,,,,,,,,,,,,,,,,,,,,,,,,,,,,,,,,,,,,,,,,,,,,,,,,,,,,,,,,,,,,,,,,,,,,,,,,,,,,,,,,,,,,,,,,,,,,,,,,,,,,
,,,,,,8,0,8,0,1,X V Q F H G B L J M P D K C T S W R N Z,5e70ed7e77bbac01812979cf,26,Mężczyzna,2022-06-11_09h36.32.465,task,2021.1.4,Win32,59.70149254,6299f149e92ead563fba08ef,62a445d6d2dd1bef33832b08,,,,,,,,,,,,,,,,,,,,,,,,,,,,,,,,,,,,,,,,,,,,,,,,,,,,,,,,,,,,,,,,,,,,,,,,,,,,,,,,,,,,,,,,,,,,,,,,,,,,,
,,,,,,9,0,9,0,1,X V Q F H G B L J M P D K C T S W R N Z,5e70ed7e77bbac01812979cf,26,Mężczyzna,2022-06-11_09h36.32.465,task,2021.1.4,Win32,59.70149254,6299f149e92ead563fba08ef,62a445d6d2dd1bef33832b08,,,,,,,,,,,,,,,,,,,,,,,,,,,,,,,,,,,,,,,,,,,,,,,,,,,,,,,,,,,,,,,,,,,,,,,,,,,,,,,,,,,,,,,,,,,,,,,,,,,,,
,,,,,,10,0,10,0,1,X V Q F H G B L J M P D K C T S W R N Z,5e70ed7e77bbac01812979cf,26,Mężczyzna,2022-06-11_09h36.32.465,task,2021.1.4,Win32,59.70149254,6299f149e92ead563fba08ef,62a445d6d2dd1bef33832b08,,,,,,,,,,,,,,,,,,,,,,,,,,,,,,,,,,,,,,,,,,,,,,,,,,,,,,,,,,,,,,,,,,,,,,,,,,,,,,,,,,,,,,,,,,,,,,,,,,,,,
,,,,,,11,0,11,0,1,X V Q F H G B L J M P D K C T S W R N Z,5e70ed7e77bbac01812979cf,26,Mężczyzna,2022-06-11_09h36.32.465,task,2021.1.4,Win32,59.70149254,6299f149e92ead563fba08ef,62a445d6d2dd1bef33832b08,,,,,,,,,,,,,,,,,,,,,,,,,,,,,,,,,,,,,,,,,,,,,,,,,,,,,,,,,,,,,,,,,,,,,,,,,,,,,,,,,,,,,,,,,,,,,,,,,,,,,
,,,,,,,,,,,,5e70ed7e77bbac01812979cf,26,Mężczyzna,2022-06-11_09h36.32.465,task,2021.1.4,Win32,59.70149254,6299f149e92ead563fba08ef,62a445d6d2dd1bef33832b08,hbspcdcrdsqd,"[""h"",""b"",""s"",""p"",""c"",""d"",""c"",""r"",""d"",""s"",""q"",""d""]","[2.5476000000238628,2.781900000035762,3.305600000023844,4.537800000011941,4.721600000023841,5.081900000035773,5.749199999988093,6.105400000035786,6.4513000000119405,8.66140000003577,8.80210000002387,9.069199999988086,9.592400000035752]",1,HBSPCDCRDSQD,24,0,24,0,1,,,,,,,,,,,,,,,,,,,,,,,,,,,,,,,,,,,,,,,,,,,,,,,,,,,,,,,,,,,,,,,,,,,,,,,,,,,,,,,,,,,,,,,,,,,
,,,,,,0,0,0,0,1,X V Q F H G B L J M P D K C T S W R N Z,5e70ed7e77bbac01812979cf,26,Mężczyzna,2022-06-11_09h36.32.465,task,2021.1.4,Win32,59.70149254,6299f149e92ead563fba08ef,62a445d6d2dd1bef33832b08,,,,,,,,,,,,,,,,,,,,,,,,,,,,,,,,,,,,,,,,,,,,,,,,,,,,,,,,,,,,,,,,,,,,,,,,,,,,,,,,,,,,,,,,,,,,,,,,,,,,,
,,,,,,1,0,1,0,1,X V Q F H G B L J M P D K C T S W R N Z,5e70ed7e77bbac01812979cf,26,Mężczyzna,2022-06-11_09h36.32.465,task,2021.1.4,Win32,59.70149254,6299f149e92ead563fba08ef,62a445d6d2dd1bef33832b08,,,,,,,,,,,,,,,,,,,,,,,,,,,,,,,,,,,,,,,,,,,,,,,,,,,,,,,,,,,,,,,,,,,,,,,,,,,,,,,,,,,,,,,,,,,,,,,,,,,,,
,,,,,,2,0,2,0,1,X V Q F H G B L J M P D K C T S W R N Z,5e70ed7e77bbac01812979cf,26,Mężczyzna,2022-06-11_09h36.32.465,task,2021.1.4,Win32,59.70149254,6299f149e92ead563fba08ef,62a445d6d2dd1bef33832b08,,,,,,,,,,,,,,,,,,,,,,,,,,,,,,,,,,,,,,,,,,,,,,,,,,,,,,,,,,,,,,,,,,,,,,,,,,,,,,,,,,,,,,,,,,,,,,,,,,,,,
,,,,,,3,0,3,0,1,X V Q F H G B L J M P D K C T S W R N Z,5e70ed7e77bbac01812979cf,26,Mężczyzna,2022-06-11_09h36.32.465,task,2021.1.4,Win32,59.70149254,6299f149e92ead563fba08ef,62a445d6d2dd1bef33832b08,,,,,,,,,,,,,,,,,,,,,,,,,,,,,,,,,,,,,,,,,,,,,,,,,,,,,,,,,,,,,,,,,,,,,,,,,,,,,,,,,,,,,,,,,,,,,,,,,,,,,
,,,,,,4,0,4,0,1,X V Q F H G B L J M P D K C T S W R N Z,5e70ed7e77bbac01812979cf,26,Mężczyzna,2022-06-11_09h36.32.465,task,2021.1.4,Win32,59.70149254,6299f149e92ead563fba08ef,62a445d6d2dd1bef33832b08,,,,,,,,,,,,,,,,,,,,,,,,,,,,,,,,,,,,,,,,,,,,,,,,,,,,,,,,,,,,,,,,,,,,,,,,,,,,,,,,,,,,,,,,,,,,,,,,,,,,,
,,,,,,5,0,5,0,1,X V Q F H G B L J M P D K C T S W R N Z,5e70ed7e77bbac01812979cf,26,Mężczyzna,2022-06-11_09h36.32.465,task,2021.1.4,Win32,59.70149254,6299f149e92ead563fba08ef,62a445d6d2dd1bef33832b08,,,,,,,,,,,,,,,,,,,,,,,,,,,,,,,,,,,,,,,,,,,,,,,,,,,,,,,,,,,,,,,,,,,,,,,,,,,,,,,,,,,,,,,,,,,,,,,,,,,,,
,,,,,,6,0,6,0,1,X V Q F H G B L J M P D K C T S W R N Z,5e70ed7e77bbac01812979cf,26,Mężczyzna,2022-06-11_09h36.32.465,task,2021.1.4,Win32,59.70149254,6299f149e92ead563fba08ef,62a445d6d2dd1bef33832b08,,,,,,,,,,,,,,,,,,,,,,,,,,,,,,,,,,,,,,,,,,,,,,,,,,,,,,,,,,,,,,,,,,,,,,,,,,,,,,,,,,,,,,,,,,,,,,,,,,,,,
,,,,,,7,0,7,0,1,X V Q F H G B L J M P D K C T S W R N Z,5e70ed7e77bbac01812979cf,26,Mężczyzna,2022-06-11_09h36.32.465,task,2021.1.4,Win32,59.70149254,6299f149e92ead563fba08ef,62a445d6d2dd1bef33832b08,,,,,,,,,,,,,,,,,,,,,,,,,,,,,,,,,,,,,,,,,,,,,,,,,,,,,,,,,,,,,,,,,,,,,,,,,,,,,,,,,,,,,,,,,,,,,,,,,,,,,
,,,,,,8,0,8,0,1,X V Q F H G B L J M P D K C T S W R N Z,5e70ed7e77bbac01812979cf,26,Mężczyzna,2022-06-11_09h36.32.465,task,2021.1.4,Win32,59.70149254,6299f149e92ead563fba08ef,62a445d6d2dd1bef33832b08,,,,,,,,,,,,,,,,,,,,,,,,,,,,,,,,,,,,,,,,,,,,,,,,,,,,,,,,,,,,,,,,,,,,,,,,,,,,,,,,,,,,,,,,,,,,,,,,,,,,,
,,,,,,9,0,9,0,1,X V Q F H G B L J M P D K C T S W R N Z,5e70ed7e77bbac01812979cf,26,Mężczyzna,2022-06-11_09h36.32.465,task,2021.1.4,Win32,59.70149254,6299f149e92ead563fba08ef,62a445d6d2dd1bef33832b08,,,,,,,,,,,,,,,,,,,,,,,,,,,,,,,,,,,,,,,,,,,,,,,,,,,,,,,,,,,,,,,,,,,,,,,,,,,,,,,,,,,,,,,,,,,,,,,,,,,,,
,,,,,,10,0,10,0,1,X V Q F H G B L J M P D K C T S W R N Z,5e70ed7e77bbac01812979cf,26,Mężczyzna,2022-06-11_09h36.32.465,task,2021.1.4,Win32,59.70149254,6299f149e92ead563fba08ef,62a445d6d2dd1bef33832b08,,,,,,,,,,,,,,,,,,,,,,,,,,,,,,,,,,,,,,,,,,,,,,,,,,,,,,,,,,,,,,,,,,,,,,,,,,,,,,,,,,,,,,,,,,,,,,,,,,,,,
,,,,,,11,0,11,0,1,X V Q F H G B L J M P D K C T S W R N Z,5e70ed7e77bbac01812979cf,26,Mężczyzna,2022-06-11_09h36.32.465,task,2021.1.4,Win32,59.70149254,6299f149e92ead563fba08ef,62a445d6d2dd1bef33832b08,,,,,,,,,,,,,,,,,,,,,,,,,,,,,,,,,,,,,,,,,,,,,,,,,,,,,,,,,,,,,,,,,,,,,,,,,,,,,,,,,,,,,,,,,,,,,,,,,,,,,
,,,,,,12,0,12,0,1,X V Q F H G B L J M P D K C T S W R N Z,5e70ed7e77bbac01812979cf,26,Mężczyzna,2022-06-11_09h36.32.465,task,2021.1.4,Win32,59.70149254,6299f149e92ead563fba08ef,62a445d6d2dd1bef33832b08,,,,,,,,,,,,,,,,,,,,,,,,,,,,,,,,,,,,,,,,,,,,,,,,,,,,,,,,,,,,,,,,,,,,,,,,,,,,,,,,,,,,,,,,,,,,,,,,,,,,,
,,,,,,,,,,,,5e70ed7e77bbac01812979cf,26,Mężczyzna,2022-06-11_09h36.32.465,task,2021.1.4,Win32,59.70149254,6299f149e92ead563fba08ef,62a445d6d2dd1bef33832b08,jbxhktjlgzvcz,"[""j"",""b"",""x"",""h"",""k"",""t"",""j"",""l"",""g"",""z"",""v"",""c"",""z""]","[2.331800000011924,2.48210000002382,2.9518000000119287,12.419800000011946,12.771399999976154,13.039899999976171,14.007800000011912,14.468800000011925,15.123499999999979,15.863800000011906,16.654300000011915,16.98769999998808,17.604199999988055,18.526699999988068]",0,JBXHKTJLGZVCL,25,0,25,0,1,,,,,,,,,,,,,,,,,,,,,,,,,,,,,,,,,,,,,,,,,,,,,,,,,,,,,,,,,,,,,,,,,,,,,,,,,,,,,,,,,,,,,,,,,,,
,,,,,,0,0,0,0,1,X V Q F H G B L J M P D K C T S W R N Z,5e70ed7e77bbac01812979cf,26,Mężczyzna,2022-06-11_09h36.32.465,task,2021.1.4,Win32,59.70149254,6299f149e92ead563fba08ef,62a445d6d2dd1bef33832b08,,,,,,,,,,,,,,,,,,,,,,,,,,,,,,,,,,,,,,,,,,,,,,,,,,,,,,,,,,,,,,,,,,,,,,,,,,,,,,,,,,,,,,,,,,,,,,,,,,,,,
,,,,,,1,0,1,0,1,X V Q F H G B L J M P D K C T S W R N Z,5e70ed7e77bbac01812979cf,26,Mężczyzna,2022-06-11_09h36.32.465,task,2021.1.4,Win32,59.70149254,6299f149e92ead563fba08ef,62a445d6d2dd1bef33832b08,,,,,,,,,,,,,,,,,,,,,,,,,,,,,,,,,,,,,,,,,,,,,,,,,,,,,,,,,,,,,,,,,,,,,,,,,,,,,,,,,,,,,,,,,,,,,,,,,,,,,
,,,,,,2,0,2,0,1,X V Q F H G B L J M P D K C T S W R N Z,5e70ed7e77bbac01812979cf,26,Mężczyzna,2022-06-11_09h36.32.465,task,2021.1.4,Win32,59.70149254,6299f149e92ead563fba08ef,62a445d6d2dd1bef33832b08,,,,,,,,,,,,,,,,,,,,,,,,,,,,,,,,,,,,,,,,,,,,,,,,,,,,,,,,,,,,,,,,,,,,,,,,,,,,,,,,,,,,,,,,,,,,,,,,,,,,,
,,,,,,3,0,3,0,1,X V Q F H G B L J M P D K C T S W R N Z,5e70ed7e77bbac01812979cf,26,Mężczyzna,2022-06-11_09h36.32.465,task,2021.1.4,Win32,59.70149254,6299f149e92ead563fba08ef,62a445d6d2dd1bef33832b08,,,,,,,,,,,,,,,,,,,,,,,,,,,,,,,,,,,,,,,,,,,,,,,,,,,,,,,,,,,,,,,,,,,,,,,,,,,,,,,,,,,,,,,,,,,,,,,,,,,,,
,,,,,,4,0,4,0,1,X V Q F H G B L J M P D K C T S W R N Z,5e70ed7e77bbac01812979cf,26,Mężczyzna,2022-06-11_09h36.32.465,task,2021.1.4,Win32,59.70149254,6299f149e92ead563fba08ef,62a445d6d2dd1bef33832b08,,,,,,,,,,,,,,,,,,,,,,,,,,,,,,,,,,,,,,,,,,,,,,,,,,,,,,,,,,,,,,,,,,,,,,,,,,,,,,,,,,,,,,,,,,,,,,,,,,,,,
,,,,,,5,0,5,0,1,X V Q F H G B L J M P D K C T S W R N Z,5e70ed7e77bbac01812979cf,26,Mężczyzna,2022-06-11_09h36.32.465,task,2021.1.4,Win32,59.70149254,6299f149e92ead563fba08ef,62a445d6d2dd1bef33832b08,,,,,,,,,,,,,,,,,,,,,,,,,,,,,,,,,,,,,,,,,,,,,,,,,,,,,,,,,,,,,,,,,,,,,,,,,,,,,,,,,,,,,,,,,,,,,,,,,,,,,
,,,,,,6,0,6,0,1,X V Q F H G B L J M P D K C T S W R N Z,5e70ed7e77bbac01812979cf,26,Mężczyzna,2022-06-11_09h36.32.465,task,2021.1.4,Win32,59.70149254,6299f149e92ead563fba08ef,62a445d6d2dd1bef33832b08,,,,,,,,,,,,,,,,,,,,,,,,,,,,,,,,,,,,,,,,,,,,,,,,,,,,,,,,,,,,,,,,,,,,,,,,,,,,,,,,,,,,,,,,,,,,,,,,,,,,,
,,,,,,7,0,7,0,1,X V Q F H G B L J M P D K C T S W R N Z,5e70ed7e77bbac01812979cf,26,Mężczyzna,2022-06-11_09h36.32.465,task,2021.1.4,Win32,59.70149254,6299f149e92ead563fba08ef,62a445d6d2dd1bef33832b08,,,,,,,,,,,,,,,,,,,,,,,,,,,,,,,,,,,,,,,,,,,,,,,,,,,,,,,,,,,,,,,,,,,,,,,,,,,,,,,,,,,,,,,,,,,,,,,,,,,,,
,,,,,,8,0,8,0,1,X V Q F H G B L J M P D K C T S W R N Z,5e70ed7e77bbac01812979cf,26,Mężczyzna,2022-06-11_09h36.32.465,task,2021.1.4,Win32,59.70149254,6299f149e92ead563fba08ef,62a445d6d2dd1bef33832b08,,,,,,,,,,,,,,,,,,,,,,,,,,,,,,,,,,,,,,,,,,,,,,,,,,,,,,,,,,,,,,,,,,,,,,,,,,,,,,,,,,,,,,,,,,,,,,,,,,,,,
,,,,,,9,0,9,0,1,X V Q F H G B L J M P D K C T S W R N Z,5e70ed7e77bbac01812979cf,26,Mężczyzna,2022-06-11_09h36.32.465,task,2021.1.4,Win32,59.70149254,6299f149e92ead563fba08ef,62a445d6d2dd1bef33832b08,,,,,,,,,,,,,,,,,,,,,,,,,,,,,,,,,,,,,,,,,,,,,,,,,,,,,,,,,,,,,,,,,,,,,,,,,,,,,,,,,,,,,,,,,,,,,,,,,,,,,
,,,,,,10,0,10,0,1,X V Q F H G B L J M P D K C T S W R N Z,5e70ed7e77bbac01812979cf,26,Mężczyzna,2022-06-11_09h36.32.465,task,2021.1.4,Win32,59.70149254,6299f149e92ead563fba08ef,62a445d6d2dd1bef33832b08,,,,,,,,,,,,,,,,,,,,,,,,,,,,,,,,,,,,,,,,,,,,,,,,,,,,,,,,,,,,,,,,,,,,,,,,,,,,,,,,,,,,,,,,,,,,,,,,,,,,,
,,,,,,11,0,11,0,1,X V Q F H G B L J M P D K C T S W R N Z,5e70ed7e77bbac01812979cf,26,Mężczyzna,2022-06-11_09h36.32.465,task,2021.1.4,Win32,59.70149254,6299f149e92ead563fba08ef,62a445d6d2dd1bef33832b08,,,,,,,,,,,,,,,,,,,,,,,,,,,,,,,,,,,,,,,,,,,,,,,,,,,,,,,,,,,,,,,,,,,,,,,,,,,,,,,,,,,,,,,,,,,,,,,,,,,,,
,,,,,,12,0,12,0,1,X V Q F H G B L J M P D K C T S W R N Z,5e70ed7e77bbac01812979cf,26,Mężczyzna,2022-06-11_09h36.32.465,task,2021.1.4,Win32,59.70149254,6299f149e92ead563fba08ef,62a445d6d2dd1bef33832b08,,,,,,,,,,,,,,,,,,,,,,,,,,,,,,,,,,,,,,,,,,,,,,,,,,,,,,,,,,,,,,,,,,,,,,,,,,,,,,,,,,,,,,,,,,,,,,,,,,,,,
,,,,,,,,,,,,5e70ed7e77bbac01812979cf,26,Mężczyzna,2022-06-11_09h36.32.465,task,2021.1.4,Win32,59.70149254,6299f149e92ead563fba08ef,62a445d6d2dd1bef33832b08,rqjthlcmvnqtd,"[""r"",""q"",""j"",""t"",""h"",""l"",""c"",""m"",""v"",""n"",""q"",""t"",""d""]","[3.665699999988078,3.982399999976167,4.749199999988093,5.07289999997613,7.066300000011893,7.444800000011924,7.844599999964203,8.30869999998805,9.58880000001193,10.004500000000007,10.372899999976141,10.956599999964226,11.30219999998809,12.591899999976135]",1,RQJTHLCMVNQTD,26,0,26,0,1,,,,,,,,,,,,,,,,,,,,,,,,,,,,,,,,,,,,,,,,,,,,,,,,,,,,,,,,,,,,,,,,,,,,,,,,,,,,,,,,,,,,,,,,,,,
,,,,,,0,0,0,0,1,X V Q F H G B L J M P D K C T S W R N Z,5e70ed7e77bbac01812979cf,26,Mężczyzna,2022-06-11_09h36.32.465,task,2021.1.4,Win32,59.70149254,6299f149e92ead563fba08ef,62a445d6d2dd1bef33832b08,,,,,,,,,,,,,,,,,,,,,,,,,,,,,,,,,,,,,,,,,,,,,,,,,,,,,,,,,,,,,,,,,,,,,,,,,,,,,,,,,,,,,,,,,,,,,,,,,,,,,
,,,,,,1,0,1,0,1,X V Q F H G B L J M P D K C T S W R N Z,5e70ed7e77bbac01812979cf,26,Mężczyzna,2022-06-11_09h36.32.465,task,2021.1.4,Win32,59.70149254,6299f149e92ead563fba08ef,62a445d6d2dd1bef33832b08,,,,,,,,,,,,,,,,,,,,,,,,,,,,,,,,,,,,,,,,,,,,,,,,,,,,,,,,,,,,,,,,,,,,,,,,,,,,,,,,,,,,,,,,,,,,,,,,,,,,,
,,,,,,2,0,2,0,1,X V Q F H G B L J M P D K C T S W R N Z,5e70ed7e77bbac01812979cf,26,Mężczyzna,2022-06-11_09h36.32.465,task,2021.1.4,Win32,59.70149254,6299f149e92ead563fba08ef,62a445d6d2dd1bef33832b08,,,,,,,,,,,,,,,,,,,,,,,,,,,,,,,,,,,,,,,,,,,,,,,,,,,,,,,,,,,,,,,,,,,,,,,,,,,,,,,,,,,,,,,,,,,,,,,,,,,,,
,,,,,,3,0,3,0,1,X V Q F H G B L J M P D K C T S W R N Z,5e70ed7e77bbac01812979cf,26,Mężczyzna,2022-06-11_09h36.32.465,task,2021.1.4,Win32,59.70149254,6299f149e92ead563fba08ef,62a445d6d2dd1bef33832b08,,,,,,,,,,,,,,,,,,,,,,,,,,,,,,,,,,,,,,,,,,,,,,,,,,,,,,,,,,,,,,,,,,,,,,,,,,,,,,,,,,,,,,,,,,,,,,,,,,,,,
,,,,,,4,0,4,0,1,X V Q F H G B L J M P D K C T S W R N Z,5e70ed7e77bbac01812979cf,26,Mężczyzna,2022-06-11_09h36.32.465,task,2021.1.4,Win32,59.70149254,6299f149e92ead563fba08ef,62a445d6d2dd1bef33832b08,,,,,,,,,,,,,,,,,,,,,,,,,,,,,,,,,,,,,,,,,,,,,,,,,,,,,,,,,,,,,,,,,,,,,,,,,,,,,,,,,,,,,,,,,,,,,,,,,,,,,
,,,,,,5,0,5,0,1,X V Q F H G B L J M P D K C T S W R N Z,5e70ed7e77bbac01812979cf,26,Mężczyzna,2022-06-11_09h36.32.465,task,2021.1.4,Win32,59.70149254,6299f149e92ead563fba08ef,62a445d6d2dd1bef33832b08,,,,,,,,,,,,,,,,,,,,,,,,,,,,,,,,,,,,,,,,,,,,,,,,,,,,,,,,,,,,,,,,,,,,,,,,,,,,,,,,,,,,,,,,,,,,,,,,,,,,,
,,,,,,6,0,6,0,1,X V Q F H G B L J M P D K C T S W R N Z,5e70ed7e77bbac01812979cf,26,Mężczyzna,2022-06-11_09h36.32.465,task,2021.1.4,Win32,59.70149254,6299f149e92ead563fba08ef,62a445d6d2dd1bef33832b08,,,,,,,,,,,,,,,,,,,,,,,,,,,,,,,,,,,,,,,,,,,,,,,,,,,,,,,,,,,,,,,,,,,,,,,,,,,,,,,,,,,,,,,,,,,,,,,,,,,,,
,,,,,,7,0,7,0,1,X V Q F H G B L J M P D K C T S W R N Z,5e70ed7e77bbac01812979cf,26,Mężczyzna,2022-06-11_09h36.32.465,task,2021.1.4,Win32,59.70149254,6299f149e92ead563fba08ef,62a445d6d2dd1bef33832b08,,,,,,,,,,,,,,,,,,,,,,,,,,,,,,,,,,,,,,,,,,,,,,,,,,,,,,,,,,,,,,,,,,,,,,,,,,,,,,,,,,,,,,,,,,,,,,,,,,,,,
,,,,,,8,0,8,0,1,X V Q F H G B L J M P D K C T S W R N Z,5e70ed7e77bbac01812979cf,26,Mężczyzna,2022-06-11_09h36.32.465,task,2021.1.4,Win32,59.70149254,6299f149e92ead563fba08ef,62a445d6d2dd1bef33832b08,,,,,,,,,,,,,,,,,,,,,,,,,,,,,,,,,,,,,,,,,,,,,,,,,,,,,,,,,,,,,,,,,,,,,,,,,,,,,,,,,,,,,,,,,,,,,,,,,,,,,
,,,,,,9,0,9,0,1,X V Q F H G B L J M P D K C T S W R N Z,5e70ed7e77bbac01812979cf,26,Mężczyzna,2022-06-11_09h36.32.465,task,2021.1.4,Win32,59.70149254,6299f149e92ead563fba08ef,62a445d6d2dd1bef33832b08,,,,,,,,,,,,,,,,,,,,,,,,,,,,,,,,,,,,,,,,,,,,,,,,,,,,,,,,,,,,,,,,,,,,,,,,,,,,,,,,,,,,,,,,,,,,,,,,,,,,,
,,,,,,10,0,10,0,1,X V Q F H G B L J M P D K C T S W R N Z,5e70ed7e77bbac01812979cf,26,Mężczyzna,2022-06-11_09h36.32.465,task,2021.1.4,Win32,59.70149254,6299f149e92ead563fba08ef,62a445d6d2dd1bef33832b08,,,,,,,,,,,,,,,,,,,,,,,,,,,,,,,,,,,,,,,,,,,,,,,,,,,,,,,,,,,,,,,,,,,,,,,,,,,,,,,,,,,,,,,,,,,,,,,,,,,,,
,,,,,,11,0,11,0,1,X V Q F H G B L J M P D K C T S W R N Z,5e70ed7e77bbac01812979cf,26,Mężczyzna,2022-06-11_09h36.32.465,task,2021.1.4,Win32,59.70149254,6299f149e92ead563fba08ef,62a445d6d2dd1bef33832b08,,,,,,,,,,,,,,,,,,,,,,,,,,,,,,,,,,,,,,,,,,,,,,,,,,,,,,,,,,,,,,,,,,,,,,,,,,,,,,,,,,,,,,,,,,,,,,,,,,,,,
,,,,,,12,0,12,0,1,X V Q F H G B L J M P D K C T S W R N Z,5e70ed7e77bbac01812979cf,26,Mężczyzna,2022-06-11_09h36.32.465,task,2021.1.4,Win32,59.70149254,6299f149e92ead563fba08ef,62a445d6d2dd1bef33832b08,,,,,,,,,,,,,,,,,,,,,,,,,,,,,,,,,,,,,,,,,,,,,,,,,,,,,,,,,,,,,,,,,,,,,,,,,,,,,,,,,,,,,,,,,,,,,,,,,,,,,
,,,,,,,,,,,,5e70ed7e77bbac01812979cf,26,Mężczyzna,2022-06-11_09h36.32.465,task,2021.1.4,Win32,59.70149254,6299f149e92ead563fba08ef,62a445d6d2dd1bef33832b08,ldhpljtqtrggv,"[""l"",""d"",""h"",""p"",""l"",""j"",""t"",""q"",""t"",""r"",""g"",""g"",""v""]","[3.3860999999642445,3.5250999999642545,3.9215999999642577,4.199099999964233,4.466199999988078,6.473500000000001,6.741800000011949,7.351399999976195,8.119399999976167,8.618099999964272,8.93730000001193,9.109599999964246,9.337399999976185,9.776899999976195]",1,LDHPLJTQTRGGV,27,0,27,0,1,,,,,,,,,,,,,,,,,,,,,,,,,,,,,,,,,,,,,,,,,,,,,,,,,,,,,,,,,,,,,,,,,,,,,,,,,,,,,,,,,,,,,,,,,,,
,,,,,,0,0,0,0,1,X V Q F H G B L J M P D K C T S W R N Z,5e70ed7e77bbac01812979cf,26,Mężczyzna,2022-06-11_09h36.32.465,task,2021.1.4,Win32,59.70149254,6299f149e92ead563fba08ef,62a445d6d2dd1bef33832b08,,,,,,,,,,,,,,,,,,,,,,,,,,,,,,,,,,,,,,,,,,,,,,,,,,,,,,,,,,,,,,,,,,,,,,,,,,,,,,,,,,,,,,,,,,,,,,,,,,,,,
,,,,,,1,0,1,0,1,X V Q F H G B L J M P D K C T S W R N Z,5e70ed7e77bbac01812979cf,26,Mężczyzna,2022-06-11_09h36.32.465,task,2021.1.4,Win32,59.70149254,6299f149e92ead563fba08ef,62a445d6d2dd1bef33832b08,,,,,,,,,,,,,,,,,,,,,,,,,,,,,,,,,,,,,,,,,,,,,,,,,,,,,,,,,,,,,,,,,,,,,,,,,,,,,,,,,,,,,,,,,,,,,,,,,,,,,
,,,,,,2,0,2,0,1,X V Q F H G B L J M P D K C T S W R N Z,5e70ed7e77bbac01812979cf,26,Mężczyzna,2022-06-11_09h36.32.465,task,2021.1.4,Win32,59.70149254,6299f149e92ead563fba08ef,62a445d6d2dd1bef33832b08,,,,,,,,,,,,,,,,,,,,,,,,,,,,,,,,,,,,,,,,,,,,,,,,,,,,,,,,,,,,,,,,,,,,,,,,,,,,,,,,,,,,,,,,,,,,,,,,,,,,,
,,,,,,3,0,3,0,1,X V Q F H G B L J M P D K C T S W R N Z,5e70ed7e77bbac01812979cf,26,Mężczyzna,2022-06-11_09h36.32.465,task,2021.1.4,Win32,59.70149254,6299f149e92ead563fba08ef,62a445d6d2dd1bef33832b08,,,,,,,,,,,,,,,,,,,,,,,,,,,,,,,,,,,,,,,,,,,,,,,,,,,,,,,,,,,,,,,,,,,,,,,,,,,,,,,,,,,,,,,,,,,,,,,,,,,,,
,,,,,,4,0,4,0,1,X V Q F H G B L J M P D K C T S W R N Z,5e70ed7e77bbac01812979cf,26,Mężczyzna,2022-06-11_09h36.32.465,task,2021.1.4,Win32,59.70149254,6299f149e92ead563fba08ef,62a445d6d2dd1bef33832b08,,,,,,,,,,,,,,,,,,,,,,,,,,,,,,,,,,,,,,,,,,,,,,,,,,,,,,,,,,,,,,,,,,,,,,,,,,,,,,,,,,,,,,,,,,,,,,,,,,,,,
,,,,,,5,0,5,0,1,X V Q F H G B L J M P D K C T S W R N Z,5e70ed7e77bbac01812979cf,26,Mężczyzna,2022-06-11_09h36.32.465,task,2021.1.4,Win32,59.70149254,6299f149e92ead563fba08ef,62a445d6d2dd1bef33832b08,,,,,,,,,,,,,,,,,,,,,,,,,,,,,,,,,,,,,,,,,,,,,,,,,,,,,,,,,,,,,,,,,,,,,,,,,,,,,,,,,,,,,,,,,,,,,,,,,,,,,
,,,,,,6,0,6,0,1,X V Q F H G B L J M P D K C T S W R N Z,5e70ed7e77bbac01812979cf,26,Mężczyzna,2022-06-11_09h36.32.465,task,2021.1.4,Win32,59.70149254,6299f149e92ead563fba08ef,62a445d6d2dd1bef33832b08,,,,,,,,,,,,,,,,,,,,,,,,,,,,,,,,,,,,,,,,,,,,,,,,,,,,,,,,,,,,,,,,,,,,,,,,,,,,,,,,,,,,,,,,,,,,,,,,,,,,,
,,,,,,7,0,7,0,1,X V Q F H G B L J M P D K C T S W R N Z,5e70ed7e77bbac01812979cf,26,Mężczyzna,2022-06-11_09h36.32.465,task,2021.1.4,Win32,59.70149254,6299f149e92ead563fba08ef,62a445d6d2dd1bef33832b08,,,,,,,,,,,,,,,,,,,,,,,,,,,,,,,,,,,,,,,,,,,,,,,,,,,,,,,,,,,,,,,,,,,,,,,,,,,,,,,,,,,,,,,,,,,,,,,,,,,,,
,,,,,,8,0,8,0,1,X V Q F H G B L J M P D K C T S W R N Z,5e70ed7e77bbac01812979cf,26,Mężczyzna,2022-06-11_09h36.32.465,task,2021.1.4,Win32,59.70149254,6299f149e92ead563fba08ef,62a445d6d2dd1bef33832b08,,,,,,,,,,,,,,,,,,,,,,,,,,,,,,,,,,,,,,,,,,,,,,,,,,,,,,,,,,,,,,,,,,,,,,,,,,,,,,,,,,,,,,,,,,,,,,,,,,,,,
,,,,,,9,0,9,0,1,X V Q F H G B L J M P D K C T S W R N Z,5e70ed7e77bbac01812979cf,26,Mężczyzna,2022-06-11_09h36.32.465,task,2021.1.4,Win32,59.70149254,6299f149e92ead563fba08ef,62a445d6d2dd1bef33832b08,,,,,,,,,,,,,,,,,,,,,,,,,,,,,,,,,,,,,,,,,,,,,,,,,,,,,,,,,,,,,,,,,,,,,,,,,,,,,,,,,,,,,,,,,,,,,,,,,,,,,
,,,,,,10,0,10,0,1,X V Q F H G B L J M P D K C T S W R N Z,5e70ed7e77bbac01812979cf,26,Mężczyzna,2022-06-11_09h36.32.465,task,2021.1.4,Win32,59.70149254,6299f149e92ead563fba08ef,62a445d6d2dd1bef33832b08,,,,,,,,,,,,,,,,,,,,,,,,,,,,,,,,,,,,,,,,,,,,,,,,,,,,,,,,,,,,,,,,,,,,,,,,,,,,,,,,,,,,,,,,,,,,,,,,,,,,,
,,,,,,11,0,11,0,1,X V Q F H G B L J M P D K C T S W R N Z,5e70ed7e77bbac01812979cf,26,Mężczyzna,2022-06-11_09h36.32.465,task,2021.1.4,Win32,59.70149254,6299f149e92ead563fba08ef,62a445d6d2dd1bef33832b08,,,,,,,,,,,,,,,,,,,,,,,,,,,,,,,,,,,,,,,,,,,,,,,,,,,,,,,,,,,,,,,,,,,,,,,,,,,,,,,,,,,,,,,,,,,,,,,,,,,,,
,,,,,,12,0,12,0,1,X V Q F H G B L J M P D K C T S W R N Z,5e70ed7e77bbac01812979cf,26,Mężczyzna,2022-06-11_09h36.32.465,task,2021.1.4,Win32,59.70149254,6299f149e92ead563fba08ef,62a445d6d2dd1bef33832b08,,,,,,,,,,,,,,,,,,,,,,,,,,,,,,,,,,,,,,,,,,,,,,,,,,,,,,,,,,,,,,,,,,,,,,,,,,,,,,,,,,,,,,,,,,,,,,,,,,,,,
,,,,,,13,0,13,0,1,X V Q F H G B L J M P D K C T S W R N Z,5e70ed7e77bbac01812979cf,26,Mężczyzna,2022-06-11_09h36.32.465,task,2021.1.4,Win32,59.70149254,6299f149e92ead563fba08ef,62a445d6d2dd1bef33832b08,,,,,,,,,,,,,,,,,,,,,,,,,,,,,,,,,,,,,,,,,,,,,,,,,,,,,,,,,,,,,,,,,,,,,,,,,,,,,,,,,,,,,,,,,,,,,,,,,,,,,
,,,,,,,,,,,,5e70ed7e77bbac01812979cf,26,Mężczyzna,2022-06-11_09h36.32.465,task,2021.1.4,Win32,59.70149254,6299f149e92ead563fba08ef,62a445d6d2dd1bef33832b08,skdsntjffgjjgd,"[""s"",""k"",""d"",""s"",""n"",""t"",""j"",""f"",""f"",""g"",""j"",""j"",""g"",""d""]","[4.903500000000008,5.503100000023778,5.738999999999919,6.159400000035703,14.131400000035683,15.007199999988075,15.319999999999936,15.707199999988006,15.963199999987978,16.875300000011862,17.071900000035725,17.211300000011875,18.591000000000008,18.939300000011826,19.366100000023835]",1,SKDSNTJFFGJJGD,28,0,28,0,1,,,,,,,,,,,,,,,,,,,,,,,,,,,,,,,,,,,,,,,,,,,,,,,,,,,,,,,,,,,,,,,,,,,,,,,,,,,,,,,,,,,,,,,,,,,
,,,,,,0,0,0,0,1,X V Q F H G B L J M P D K C T S W R N Z,5e70ed7e77bbac01812979cf,26,Mężczyzna,2022-06-11_09h36.32.465,task,2021.1.4,Win32,59.70149254,6299f149e92ead563fba08ef,62a445d6d2dd1bef33832b08,,,,,,,,,,,,,,,,,,,,,,,,,,,,,,,,,,,,,,,,,,,,,,,,,,,,,,,,,,,,,,,,,,,,,,,,,,,,,,,,,,,,,,,,,,,,,,,,,,,,,
,,,,,,1,0,1,0,1,X V Q F H G B L J M P D K C T S W R N Z,5e70ed7e77bbac01812979cf,26,Mężczyzna,2022-06-11_09h36.32.465,task,2021.1.4,Win32,59.70149254,6299f149e92ead563fba08ef,62a445d6d2dd1bef33832b08,,,,,,,,,,,,,,,,,,,,,,,,,,,,,,,,,,,,,,,,,,,,,,,,,,,,,,,,,,,,,,,,,,,,,,,,,,,,,,,,,,,,,,,,,,,,,,,,,,,,,
,,,,,,2,0,2,0,1,X V Q F H G B L J M P D K C T S W R N Z,5e70ed7e77bbac01812979cf,26,Mężczyzna,2022-06-11_09h36.32.465,task,2021.1.4,Win32,59.70149254,6299f149e92ead563fba08ef,62a445d6d2dd1bef33832b08,,,,,,,,,,,,,,,,,,,,,,,,,,,,,,,,,,,,,,,,,,,,,,,,,,,,,,,,,,,,,,,,,,,,,,,,,,,,,,,,,,,,,,,,,,,,,,,,,,,,,
,,,,,,3,0,3,0,1,X V Q F H G B L J M P D K C T S W R N Z,5e70ed7e77bbac01812979cf,26,Mężczyzna,2022-06-11_09h36.32.465,task,2021.1.4,Win32,59.70149254,6299f149e92ead563fba08ef,62a445d6d2dd1bef33832b08,,,,,,,,,,,,,,,,,,,,,,,,,,,,,,,,,,,,,,,,,,,,,,,,,,,,,,,,,,,,,,,,,,,,,,,,,,,,,,,,,,,,,,,,,,,,,,,,,,,,,
,,,,,,4,0,4,0,1,X V Q F H G B L J M P D K C T S W R N Z,5e70ed7e77bbac01812979cf,26,Mężczyzna,2022-06-11_09h36.32.465,task,2021.1.4,Win32,59.70149254,6299f149e92ead563fba08ef,62a445d6d2dd1bef33832b08,,,,,,,,,,,,,,,,,,,,,,,,,,,,,,,,,,,,,,,,,,,,,,,,,,,,,,,,,,,,,,,,,,,,,,,,,,,,,,,,,,,,,,,,,,,,,,,,,,,,,
,,,,,,5,0,5,0,1,X V Q F H G B L J M P D K C T S W R N Z,5e70ed7e77bbac01812979cf,26,Mężczyzna,2022-06-11_09h36.32.465,task,2021.1.4,Win32,59.70149254,6299f149e92ead563fba08ef,62a445d6d2dd1bef33832b08,,,,,,,,,,,,,,,,,,,,,,,,,,,,,,,,,,,,,,,,,,,,,,,,,,,,,,,,,,,,,,,,,,,,,,,,,,,,,,,,,,,,,,,,,,,,,,,,,,,,,
,,,,,,6,0,6,0,1,X V Q F H G B L J M P D K C T S W R N Z,5e70ed7e77bbac01812979cf,26,Mężczyzna,2022-06-11_09h36.32.465,task,2021.1.4,Win32,59.70149254,6299f149e92ead563fba08ef,62a445d6d2dd1bef33832b08,,,,,,,,,,,,,,,,,,,,,,,,,,,,,,,,,,,,,,,,,,,,,,,,,,,,,,,,,,,,,,,,,,,,,,,,,,,,,,,,,,,,,,,,,,,,,,,,,,,,,
,,,,,,7,0,7,0,1,X V Q F H G B L J M P D K C T S W R N Z,5e70ed7e77bbac01812979cf,26,Mężczyzna,2022-06-11_09h36.32.465,task,2021.1.4,Win32,59.70149254,6299f149e92ead563fba08ef,62a445d6d2dd1bef33832b08,,,,,,,,,,,,,,,,,,,,,,,,,,,,,,,,,,,,,,,,,,,,,,,,,,,,,,,,,,,,,,,,,,,,,,,,,,,,,,,,,,,,,,,,,,,,,,,,,,,,,
,,,,,,8,0,8,0,1,X V Q F H G B L J M P D K C T S W R N Z,5e70ed7e77bbac01812979cf,26,Mężczyzna,2022-06-11_09h36.32.465,task,2021.1.4,Win32,59.70149254,6299f149e92ead563fba08ef,62a445d6d2dd1bef33832b08,,,,,,,,,,,,,,,,,,,,,,,,,,,,,,,,,,,,,,,,,,,,,,,,,,,,,,,,,,,,,,,,,,,,,,,,,,,,,,,,,,,,,,,,,,,,,,,,,,,,,
,,,,,,9,0,9,0,1,X V Q F H G B L J M P D K C T S W R N Z,5e70ed7e77bbac01812979cf,26,Mężczyzna,2022-06-11_09h36.32.465,task,2021.1.4,Win32,59.70149254,6299f149e92ead563fba08ef,62a445d6d2dd1bef33832b08,,,,,,,,,,,,,,,,,,,,,,,,,,,,,,,,,,,,,,,,,,,,,,,,,,,,,,,,,,,,,,,,,,,,,,,,,,,,,,,,,,,,,,,,,,,,,,,,,,,,,
,,,,,,10,0,10,0,1,X V Q F H G B L J M P D K C T S W R N Z,5e70ed7e77bbac01812979cf,26,Mężczyzna,2022-06-11_09h36.32.465,task,2021.1.4,Win32,59.70149254,6299f149e92ead563fba08ef,62a445d6d2dd1bef33832b08,,,,,,,,,,,,,,,,,,,,,,,,,,,,,,,,,,,,,,,,,,,,,,,,,,,,,,,,,,,,,,,,,,,,,,,,,,,,,,,,,,,,,,,,,,,,,,,,,,,,,
,,,,,,11,0,11,0,1,X V Q F H G B L J M P D K C T S W R N Z,5e70ed7e77bbac01812979cf,26,Mężczyzna,2022-06-11_09h36.32.465,task,2021.1.4,Win32,59.70149254,6299f149e92ead563fba08ef,62a445d6d2dd1bef33832b08,,,,,,,,,,,,,,,,,,,,,,,,,,,,,,,,,,,,,,,,,,,,,,,,,,,,,,,,,,,,,,,,,,,,,,,,,,,,,,,,,,,,,,,,,,,,,,,,,,,,,
,,,,,,12,0,12,0,1,X V Q F H G B L J M P D K C T S W R N Z,5e70ed7e77bbac01812979cf,26,Mężczyzna,2022-06-11_09h36.32.465,task,2021.1.4,Win32,59.70149254,6299f149e92ead563fba08ef,62a445d6d2dd1bef33832b08,,,,,,,,,,,,,,,,,,,,,,,,,,,,,,,,,,,,,,,,,,,,,,,,,,,,,,,,,,,,,,,,,,,,,,,,,,,,,,,,,,,,,,,,,,,,,,,,,,,,,
,,,,,,13,0,13,0,1,X V Q F H G B L J M P D K C T S W R N Z,5e70ed7e77bbac01812979cf,26,Mężczyzna,2022-06-11_09h36.32.465,task,2021.1.4,Win32,59.70149254,6299f149e92ead563fba08ef,62a445d6d2dd1bef33832b08,,,,,,,,,,,,,,,,,,,,,,,,,,,,,,,,,,,,,,,,,,,,,,,,,,,,,,,,,,,,,,,,,,,,,,,,,,,,,,,,,,,,,,,,,,,,,,,,,,,,,
,,,,,,,,,,,,5e70ed7e77bbac01812979cf,26,Mężczyzna,2022-06-11_09h36.32.465,task,2021.1.4,Win32,59.70149254,6299f149e92ead563fba08ef,62a445d6d2dd1bef33832b08,dctwcsctmlnccw,"[""d"",""c"",""t"",""w"",""c"",""s"",""c"",""t"",""m"",""l"",""n"",""c"",""c"",""w""]","[11.430099999964227,11.702499999999986,12.069599999964225,12.385999999999967,13.205500000000029,13.505499999999984,13.90109999996423,15.04189999997618,15.353199999988078,15.613799999952334,16.555299999952354,18.94569999998805,19.10959999996419,19.622199999988084,20.2808999999761]",0,DCTWCSCTMLNGCW,29,0,29,0,1,,,,,,,,,,,,,,,,,,,,,,,,,,,,,,,,,,,,,,,,,,,,,,,,,,,,,,,,,,,,,,,,,,,,,,,,,,,,,,,,,,,,,,,,,,,
,,,,,,0,0,0,0,1,X V Q F H G B L J M P D K C T S W R N Z,5e70ed7e77bbac01812979cf,26,Mężczyzna,2022-06-11_09h36.32.465,task,2021.1.4,Win32,59.70149254,6299f149e92ead563fba08ef,62a445d6d2dd1bef33832b08,,,,,,,,,,,,,,,,,,,,,,,,,,,,,,,,,,,,,,,,,,,,,,,,,,,,,,,,,,,,,,,,,,,,,,,,,,,,,,,,,,,,,,,,,,,,,,,,,,,,,
,,,,,,1,0,1,0,1,X V Q F H G B L J M P D K C T S W R N Z,5e70ed7e77bbac01812979cf,26,Mężczyzna,2022-06-11_09h36.32.465,task,2021.1.4,Win32,59.70149254,6299f149e92ead563fba08ef,62a445d6d2dd1bef33832b08,,,,,,,,,,,,,,,,,,,,,,,,,,,,,,,,,,,,,,,,,,,,,,,,,,,,,,,,,,,,,,,,,,,,,,,,,,,,,,,,,,,,,,,,,,,,,,,,,,,,,
,,,,,,2,0,2,0,1,X V Q F H G B L J M P D K C T S W R N Z,5e70ed7e77bbac01812979cf,26,Mężczyzna,2022-06-11_09h36.32.465,task,2021.1.4,Win32,59.70149254,6299f149e92ead563fba08ef,62a445d6d2dd1bef33832b08,,,,,,,,,,,,,,,,,,,,,,,,,,,,,,,,,,,,,,,,,,,,,,,,,,,,,,,,,,,,,,,,,,,,,,,,,,,,,,,,,,,,,,,,,,,,,,,,,,,,,
,,,,,,3,0,3,0,1,X V Q F H G B L J M P D K C T S W R N Z,5e70ed7e77bbac01812979cf,26,Mężczyzna,2022-06-11_09h36.32.465,task,2021.1.4,Win32,59.70149254,6299f149e92ead563fba08ef,62a445d6d2dd1bef33832b08,,,,,,,,,,,,,,,,,,,,,,,,,,,,,,,,,,,,,,,,,,,,,,,,,,,,,,,,,,,,,,,,,,,,,,,,,,,,,,,,,,,,,,,,,,,,,,,,,,,,,
,,,,,,4,0,4,0,1,X V Q F H G B L J M P D K C T S W R N Z,5e70ed7e77bbac01812979cf,26,Mężczyzna,2022-06-11_09h36.32.465,task,2021.1.4,Win32,59.70149254,6299f149e92ead563fba08ef,62a445d6d2dd1bef33832b08,,,,,,,,,,,,,,,,,,,,,,,,,,,,,,,,,,,,,,,,,,,,,,,,,,,,,,,,,,,,,,,,,,,,,,,,,,,,,,,,,,,,,,,,,,,,,,,,,,,,,
,,,,,,5,0,5,0,1,X V Q F H G B L J M P D K C T S W R N Z,5e70ed7e77bbac01812979cf,26,Mężczyzna,2022-06-11_09h36.32.465,task,2021.1.4,Win32,59.70149254,6299f149e92ead563fba08ef,62a445d6d2dd1bef33832b08,,,,,,,,,,,,,,,,,,,,,,,,,,,,,,,,,,,,,,,,,,,,,,,,,,,,,,,,,,,,,,,,,,,,,,,,,,,,,,,,,,,,,,,,,,,,,,,,,,,,,
,,,,,,6,0,6,0,1,X V Q F H G B L J M P D K C T S W R N Z,5e70ed7e77bbac01812979cf,26,Mężczyzna,2022-06-11_09h36.32.465,task,2021.1.4,Win32,59.70149254,6299f149e92ead563fba08ef,62a445d6d2dd1bef33832b08,,,,,,,,,,,,,,,,,,,,,,,,,,,,,,,,,,,,,,,,,,,,,,,,,,,,,,,,,,,,,,,,,,,,,,,,,,,,,,,,,,,,,,,,,,,,,,,,,,,,,
,,,,,,7,0,7,0,1,X V Q F H G B L J M P D K C T S W R N Z,5e70ed7e77bbac01812979cf,26,Mężczyzna,2022-06-11_09h36.32.465,task,2021.1.4,Win32,59.70149254,6299f149e92ead563fba08ef,62a445d6d2dd1bef33832b08,,,,,,,,,,,,,,,,,,,,,,,,,,,,,,,,,,,,,,,,,,,,,,,,,,,,,,,,,,,,,,,,,,,,,,,,,,,,,,,,,,,,,,,,,,,,,,,,,,,,,
,,,,,,8,0,8,0,1,X V Q F H G B L J M P D K C T S W R N Z,5e70ed7e77bbac01812979cf,26,Mężczyzna,2022-06-11_09h36.32.465,task,2021.1.4,Win32,59.70149254,6299f149e92ead563fba08ef,62a445d6d2dd1bef33832b08,,,,,,,,,,,,,,,,,,,,,,,,,,,,,,,,,,,,,,,,,,,,,,,,,,,,,,,,,,,,,,,,,,,,,,,,,,,,,,,,,,,,,,,,,,,,,,,,,,,,,
,,,,,,9,0,9,0,1,X V Q F H G B L J M P D K C T S W R N Z,5e70ed7e77bbac01812979cf,26,Mężczyzna,2022-06-11_09h36.32.465,task,2021.1.4,Win32,59.70149254,6299f149e92ead563fba08ef,62a445d6d2dd1bef33832b08,,,,,,,,,,,,,,,,,,,,,,,,,,,,,,,,,,,,,,,,,,,,,,,,,,,,,,,,,,,,,,,,,,,,,,,,,,,,,,,,,,,,,,,,,,,,,,,,,,,,,
,,,,,,10,0,10,0,1,X V Q F H G B L J M P D K C T S W R N Z,5e70ed7e77bbac01812979cf,26,Mężczyzna,2022-06-11_09h36.32.465,task,2021.1.4,Win32,59.70149254,6299f149e92ead563fba08ef,62a445d6d2dd1bef33832b08,,,,,,,,,,,,,,,,,,,,,,,,,,,,,,,,,,,,,,,,,,,,,,,,,,,,,,,,,,,,,,,,,,,,,,,,,,,,,,,,,,,,,,,,,,,,,,,,,,,,,
,,,,,,11,0,11,0,1,X V Q F H G B L J M P D K C T S W R N Z,5e70ed7e77bbac01812979cf,26,Mężczyzna,2022-06-11_09h36.32.465,task,2021.1.4,Win32,59.70149254,6299f149e92ead563fba08ef,62a445d6d2dd1bef33832b08,,,,,,,,,,,,,,,,,,,,,,,,,,,,,,,,,,,,,,,,,,,,,,,,,,,,,,,,,,,,,,,,,,,,,,,,,,,,,,,,,,,,,,,,,,,,,,,,,,,,,
,,,,,,12,0,12,0,1,X V Q F H G B L J M P D K C T S W R N Z,5e70ed7e77bbac01812979cf,26,Mężczyzna,2022-06-11_09h36.32.465,task,2021.1.4,Win32,59.70149254,6299f149e92ead563fba08ef,62a445d6d2dd1bef33832b08,,,,,,,,,,,,,,,,,,,,,,,,,,,,,,,,,,,,,,,,,,,,,,,,,,,,,,,,,,,,,,,,,,,,,,,,,,,,,,,,,,,,,,,,,,,,,,,,,,,,,
,,,,,,13,0,13,0,1,X V Q F H G B L J M P D K C T S W R N Z,5e70ed7e77bbac01812979cf,26,Mężczyzna,2022-06-11_09h36.32.465,task,2021.1.4,Win32,59.70149254,6299f149e92ead563fba08ef,62a445d6d2dd1bef33832b08,,,,,,,,,,,,,,,,,,,,,,,,,,,,,,,,,,,,,,,,,,,,,,,,,,,,,,,,,,,,,,,,,,,,,,,,,,,,,,,,,,,,,,,,,,,,,,,,,,,,,
,,,,,,,,,,,,5e70ed7e77bbac01812979cf,26,Mężczyzna,2022-06-11_09h36.32.465,task,2021.1.4,Win32,59.70149254,6299f149e92ead563fba08ef,62a445d6d2dd1bef33832b08,mbxplrxnqgqkcd,"[""m"",""b"",""x"",""p"",""l"",""r"",""x"",""n"",""q"",""g"",""q"",""k"",""c"",""d""]","[2.665200000047662,2.803400000035708,3.1829000000357155,3.3833000000119,3.655200000047671,4.701200000047606,5.111499999999978,5.634999999999991,5.7832000000476,6.127100000023802,6.895300000011844,7.386800000011931,7.5553000000119255,7.787300000011896,8.683300000011855]",1,MBXPLRXNQGQKCD,30,0,30,0,1,,,,,,,,,,,,,,,,,,,,,,,,,,,,,,,,,,,,,,,,,,,,,,,,,,,,,,,,,,,,,,,,,,,,,,,,,,,,,,,,,,,,,,,,,,,
,,,,,,0,0,0,0,1,X V Q F H G B L J M P D K C T S W R N Z,5e70ed7e77bbac01812979cf,26,Mężczyzna,2022-06-11_09h36.32.465,task,2021.1.4,Win32,59.70149254,6299f149e92ead563fba08ef,62a445d6d2dd1bef33832b08,,,,,,,,,,,,,,,,,,,,,,,,,,,,,,,,,,,,,,,,,,,,,,,,,,,,,,,,,,,,,,,,,,,,,,,,,,,,,,,,,,,,,,,,,,,,,,,,,,,,,
,,,,,,1,0,1,0,1,X V Q F H G B L J M P D K C T S W R N Z,5e70ed7e77bbac01812979cf,26,Mężczyzna,2022-06-11_09h36.32.465,task,2021.1.4,Win32,59.70149254,6299f149e92ead563fba08ef,62a445d6d2dd1bef33832b08,,,,,,,,,,,,,,,,,,,,,,,,,,,,,,,,,,,,,,,,,,,,,,,,,,,,,,,,,,,,,,,,,,,,,,,,,,,,,,,,,,,,,,,,,,,,,,,,,,,,,
,,,,,,2,0,2,0,1,X V Q F H G B L J M P D K C T S W R N Z,5e70ed7e77bbac01812979cf,26,Mężczyzna,2022-06-11_09h36.32.465,task,2021.1.4,Win32,59.70149254,6299f149e92ead563fba08ef,62a445d6d2dd1bef33832b08,,,,,,,,,,,,,,,,,,,,,,,,,,,,,,,,,,,,,,,,,,,,,,,,,,,,,,,,,,,,,,,,,,,,,,,,,,,,,,,,,,,,,,,,,,,,,,,,,,,,,
,,,,,,3,0,3,0,1,X V Q F H G B L J M P D K C T S W R N Z,5e70ed7e77bbac01812979cf,26,Mężczyzna,2022-06-11_09h36.32.465,task,2021.1.4,Win32,59.70149254,6299f149e92ead563fba08ef,62a445d6d2dd1bef33832b08,,,,,,,,,,,,,,,,,,,,,,,,,,,,,,,,,,,,,,,,,,,,,,,,,,,,,,,,,,,,,,,,,,,,,,,,,,,,,,,,,,,,,,,,,,,,,,,,,,,,,
,,,,,,4,0,4,0,1,X V Q F H G B L J M P D K C T S W R N Z,5e70ed7e77bbac01812979cf,26,Mężczyzna,2022-06-11_09h36.32.465,task,2021.1.4,Win32,59.70149254,6299f149e92ead563fba08ef,62a445d6d2dd1bef33832b08,,,,,,,,,,,,,,,,,,,,,,,,,,,,,,,,,,,,,,,,,,,,,,,,,,,,,,,,,,,,,,,,,,,,,,,,,,,,,,,,,,,,,,,,,,,,,,,,,,,,,
,,,,,,5,0,5,0,1,X V Q F H G B L J M P D K C T S W R N Z,5e70ed7e77bbac01812979cf,26,Mężczyzna,2022-06-11_09h36.32.465,task,2021.1.4,Win32,59.70149254,6299f149e92ead563fba08ef,62a445d6d2dd1bef33832b08,,,,,,,,,,,,,,,,,,,,,,,,,,,,,,,,,,,,,,,,,,,,,,,,,,,,,,,,,,,,,,,,,,,,,,,,,,,,,,,,,,,,,,,,,,,,,,,,,,,,,
,,,,,,6,0,6,0,1,X V Q F H G B L J M P D K C T S W R N Z,5e70ed7e77bbac01812979cf,26,Mężczyzna,2022-06-11_09h36.32.465,task,2021.1.4,Win32,59.70149254,6299f149e92ead563fba08ef,62a445d6d2dd1bef33832b08,,,,,,,,,,,,,,,,,,,,,,,,,,,,,,,,,,,,,,,,,,,,,,,,,,,,,,,,,,,,,,,,,,,,,,,,,,,,,,,,,,,,,,,,,,,,,,,,,,,,,
,,,,,,7,0,7,0,1,X V Q F H G B L J M P D K C T S W R N Z,5e70ed7e77bbac01812979cf,26,Mężczyzna,2022-06-11_09h36.32.465,task,2021.1.4,Win32,59.70149254,6299f149e92ead563fba08ef,62a445d6d2dd1bef33832b08,,,,,,,,,,,,,,,,,,,,,,,,,,,,,,,,,,,,,,,,,,,,,,,,,,,,,,,,,,,,,,,,,,,,,,,,,,,,,,,,,,,,,,,,,,,,,,,,,,,,,
,,,,,,8,0,8,0,1,X V Q F H G B L J M P D K C T S W R N Z,5e70ed7e77bbac01812979cf,26,Mężczyzna,2022-06-11_09h36.32.465,task,2021.1.4,Win32,59.70149254,6299f149e92ead563fba08ef,62a445d6d2dd1bef33832b08,,,,,,,,,,,,,,,,,,,,,,,,,,,,,,,,,,,,,,,,,,,,,,,,,,,,,,,,,,,,,,,,,,,,,,,,,,,,,,,,,,,,,,,,,,,,,,,,,,,,,
,,,,,,9,0,9,0,1,X V Q F H G B L J M P D K C T S W R N Z,5e70ed7e77bbac01812979cf,26,Mężczyzna,2022-06-11_09h36.32.465,task,2021.1.4,Win32,59.70149254,6299f149e92ead563fba08ef,62a445d6d2dd1bef33832b08,,,,,,,,,,,,,,,,,,,,,,,,,,,,,,,,,,,,,,,,,,,,,,,,,,,,,,,,,,,,,,,,,,,,,,,,,,,,,,,,,,,,,,,,,,,,,,,,,,,,,
,,,,,,10,0,10,0,1,X V Q F H G B L J M P D K C T S W R N Z,5e70ed7e77bbac01812979cf,26,Mężczyzna,2022-06-11_09h36.32.465,task,2021.1.4,Win32,59.70149254,6299f149e92ead563fba08ef,62a445d6d2dd1bef33832b08,,,,,,,,,,,,,,,,,,,,,,,,,,,,,,,,,,,,,,,,,,,,,,,,,,,,,,,,,,,,,,,,,,,,,,,,,,,,,,,,,,,,,,,,,,,,,,,,,,,,,
,,,,,,11,0,11,0,1,X V Q F H G B L J M P D K C T S W R N Z,5e70ed7e77bbac01812979cf,26,Mężczyzna,2022-06-11_09h36.32.465,task,2021.1.4,Win32,59.70149254,6299f149e92ead563fba08ef,62a445d6d2dd1bef33832b08,,,,,,,,,,,,,,,,,,,,,,,,,,,,,,,,,,,,,,,,,,,,,,,,,,,,,,,,,,,,,,,,,,,,,,,,,,,,,,,,,,,,,,,,,,,,,,,,,,,,,
,,,,,,12,0,12,0,1,X V Q F H G B L J M P D K C T S W R N Z,5e70ed7e77bbac01812979cf,26,Mężczyzna,2022-06-11_09h36.32.465,task,2021.1.4,Win32,59.70149254,6299f149e92ead563fba08ef,62a445d6d2dd1bef33832b08,,,,,,,,,,,,,,,,,,,,,,,,,,,,,,,,,,,,,,,,,,,,,,,,,,,,,,,,,,,,,,,,,,,,,,,,,,,,,,,,,,,,,,,,,,,,,,,,,,,,,
,,,,,,13,0,13,0,1,X V Q F H G B L J M P D K C T S W R N Z,5e70ed7e77bbac01812979cf,26,Mężczyzna,2022-06-11_09h36.32.465,task,2021.1.4,Win32,59.70149254,6299f149e92ead563fba08ef,62a445d6d2dd1bef33832b08,,,,,,,,,,,,,,,,,,,,,,,,,,,,,,,,,,,,,,,,,,,,,,,,,,,,,,,,,,,,,,,,,,,,,,,,,,,,,,,,,,,,,,,,,,,,,,,,,,,,,
,,,,,,14,0,14,0,1,X V Q F H G B L J M P D K C T S W R N Z,5e70ed7e77bbac01812979cf,26,Mężczyzna,2022-06-11_09h36.32.465,task,2021.1.4,Win32,59.70149254,6299f149e92ead563fba08ef,62a445d6d2dd1bef33832b08,,,,,,,,,,,,,,,,,,,,,,,,,,,,,,,,,,,,,,,,,,,,,,,,,,,,,,,,,,,,,,,,,,,,,,,,,,,,,,,,,,,,,,,,,,,,,,,,,,,,,
,,,,,,,,,,,,5e70ed7e77bbac01812979cf,26,Mężczyzna,2022-06-11_09h36.32.465,task,2021.1.4,Win32,59.70149254,6299f149e92ead563fba08ef,62a445d6d2dd1bef33832b08,,[],[2.174800000011942],0,SXCKLCQXVVWHRJJ,31,0,31,0,1,,,,,,,,,,,,,,,,,,,,,,,,,,,,,,,,,,,,,,,,,,,,,,,,,,,,,,,,,,,,,,,,,,,,,,,,,,,,,,,,,,,,,,,,,,,
,,,,,,,,,,,,5e70ed7e77bbac01812979cf,26,Mężczyzna,2022-06-11_09h36.32.465,task,2021.1.4,Win32,59.70149254,6299f149e92ead563fba08ef,62a445d6d2dd1bef33832b08,,,,,,,,,,,space,9.0321,1,"[""1""]",1,[4.042500000000018],[4.042500000000018],0,0,0,1,1,Practice,2,(4x4) - 15,1,,,,,,,,,,,,,,,,,,,,,,,,,,,,,,,,,,,,,,,,,,,,,,,,,,,,,,,,,,,,,,,,,,,,,,,,,,,
,,,,,,,,,,,,5e70ed7e77bbac01812979cf,26,Mężczyzna,2022-06-11_09h36.32.465,task,2021.1.4,Win32,59.70149254,6299f149e92ead563fba08ef,62a445d6d2dd1bef33832b08,,,,,,,,,,,,,5,"[""5""]",1,[2.399899999976242],"[4.042500000000018,2.399899999976242]",0,1,1,5,1,Practice,6,(4/2) + 3,5,,,,,,,,,,,,,,,,,,,,,,,,,,,,,,,,,,,,,,,,,,,,,,,,,,,,,,,,,,,,,,,,,,,,,,,,,,,
,,,,,,,,,,,,5e70ed7e77bbac01812979cf,26,Mężczyzna,2022-06-11_09h36.32.465,task,2021.1.4,Win32,59.70149254,6299f149e92ead563fba08ef,62a445d6d2dd1bef33832b08,,,,,,,,,,,,,9,"[""9""]",1,[2.499100000023873],"[4.042500000000018,2.399899999976242,2.499100000023873]",0,2,2,9,1,Practice,10,(20/2) - 1,9,,,,,,,,,,,,,,,,,,,,,,,,,,,,,,,,,,,,,,,,,,,,,,,,,,,,,,,,,,,,,,,,,,,,,,,,,,,
,,,,,,,,,,,,5e70ed7e77bbac01812979cf,26,Mężczyzna,2022-06-11_09h36.32.465,task,2021.1.4,Win32,59.70149254,6299f149e92ead563fba08ef,62a445d6d2dd1bef33832b08,,,,,,,,,,,,,0,"[""0""]",1,[3.4679000000357973],"[4.042500000000018,2.399899999976242,2.499100000023873,3.4679000000357973]",0,3,3,0,1,Practice,1,(3x3) -  9,0,,,,,,,,,,,,,,,,,,,,,,,,,,,,,,,,,,,,,,,,,,,,,,,,,,,,,,,,,,,,,,,,,,,,,,,,,,,
,,,,,,,,,,,,5e70ed7e77bbac01812979cf,26,Mężczyzna,2022-06-11_09h36.32.465,task,2021.1.4,Win32,59.70149254,6299f149e92ead563fba08ef,62a445d6d2dd1bef33832b08,,,,,,,,,,,,,9,"[""9""]",0,[2.587299999952279],"[4.042500000000018,2.399899999976242,2.499100000023873,3.4679000000357973,2.587299999952279]",0,4,4,8,1,Practice,9,(3x3) - 1,8,,,,,,,,,,,,,,,,,,,,,,,,,,,,,,,,,,,,,,,,,,,,,,,,,,,,,,,,,,,,,,,,,,,,,,,,,,,
,,,,,,,,,,,,5e70ed7e77bbac01812979cf,26,Mężczyzna,2022-06-11_09h36.32.465,task,2021.1.4,Win32,59.70149254,6299f149e92ead563fba08ef,62a445d6d2dd1bef33832b08,,,,,,,,,,,,,2,"[""2""]",1,[2.508200000047623],"[4.042500000000018,2.399899999976242,2.499100000023873,3.4679000000357973,2.587299999952279,2.508200000047623]",0,5,5,2,1,Practice,3,(4x4) - 14,2,,,,,,,,,,,,,,,,,,,,,,,,,,,,,,,,,,,,,,,,,,,,,,,,,,,,,,,,,,,,,,,,,,,,,,,,,,,
