key_resp_15.keys,key_resp_15.rt,key_resp_13.keys,key_resp_13.corr,key_resp_13.rt,ranodm_loop.thisRepN,ranodm_loop.thisTrialN,ranodm_loop.thisN,ranodm_loop.thisIndex,ranodm_loop.ran,participant,Wiek*,Płeć,date,expName,psychopyVersion,OS,frameRate,study_id,session,key_resp_16.keys,key_resp_16.rt,key_resp_4.keys,key_resp_4.rt,next_letter.thisRepN,next_letter.thisTrialN,next_letter.thisN,next_letter.thisIndex,next_letter.ran,letter,simple_recall,key_resp_5.keys,key_resp_5.rt,simple_recall_corr,simple_recall_corrkeys,next_level.thisRepN,next_level.thisTrialN,next_level.thisN,next_level.thisIndex,next_level.ran,key_resp_2.keys,key_resp_2.rt,digit_answer,key_resp.keys,key_resp.corr,key_resp.rt,RT_list,next_equation.thisRepN,next_equation.thisTrialN,next_equation.thisN,next_equation.thisIndex,next_equation.ran,Task,Trial,Problem,Operation_answer,processing_score,sumRT,meanRT,sumdiff,sd,RT,key_resp_3.keys,key_resp_3.rt,repeat_practice.thisRepN,repeat_practice.thisTrialN,repeat_practice.thisN,repeat_practice.thisIndex,repeat_practice.ran,key_resp_6.keys,key_resp_6.rt,key_resp_11.keys,key_resp_11.corr,key_resp_11.rt,operation_correct,repeat_if_wrong_prac.thisRepN,repeat_if_wrong_prac.thisTrialN,repeat_if_wrong_prac.thisN,repeat_if_wrong_prac.thisIndex,repeat_if_wrong_prac.ran,span_size_prac.thisRepN,span_size_prac.thisTrialN,span_size_prac.thisN,span_size_prac.thisIndex,span_size_prac.ran,complex_recall_practice,key_resp_9.keys,key_resp_9.corr,key_resp_9.rt,complex_prac_corr,span_recall_prac.thisRepN,span_recall_prac.thisTrialN,span_recall_prac.thisN,span_recall_prac.thisIndex,span_recall_prac.ran,key_resp_10.keys,key_resp_10.rt,key_resp_7.keys,key_resp_7.corr,key_resp_7.rt,repeat_if_wrong.thisRepN,repeat_if_wrong.thisTrialN,repeat_if_wrong.thisN,repeat_if_wrong.thisIndex,repeat_if_wrong.ran,span_size.thisRepN,span_size.thisTrialN,span_size.thisN,span_size.thisIndex,span_size.ran,complex_recall,key_resp_8.keys,key_resp_8.corr,key_resp_8.rt,complex_recall_corr,complex_recall_corrkeys,span_recall.thisRepN,span_recall.thisTrialN,span_recall.thisN,span_recall.thisIndex,span_recall.ran,key_resp_12.keys,key_resp_12.rt
space,11.375,"[""comma""]",0,[1.8029999999999973],0,0,0,0,1,5e8249e7cee0da961f8f08f5,23,Kobieta,2022-06-04_08h42.15.856,task,2021.1.4,MacIntel,71.42857143,628b806c463b948bc644b84f,629afeb740a35d9e9bd50cdf,,,,,,,,,,,,,,,,,,,,,,,,,,,,,,,,,,,,,,,,,,,,,,,,,,,,,,,,,,,,,,,,,,,,,,,,,,,,,,,,,,,,,,,,,,,,,,,,,,,,,,,
,,"[""comma""]",0,[1.899000000000001],1,0,1,0,1,5e8249e7cee0da961f8f08f5,23,Kobieta,2022-06-04_08h42.15.856,task,2021.1.4,MacIntel,71.42857143,628b806c463b948bc644b84f,629afeb740a35d9e9bd50cdf,,,,,,,,,,,,,,,,,,,,,,,,,,,,,,,,,,,,,,,,,,,,,,,,,,,,,,,,,,,,,,,,,,,,,,,,,,,,,,,,,,,,,,,,,,,,,,,,,,,,,,,
,,,0,,2,0,2,0,1,5e8249e7cee0da961f8f08f5,23,Kobieta,2022-06-04_08h42.15.856,task,2021.1.4,MacIntel,71.42857143,628b806c463b948bc644b84f,629afeb740a35d9e9bd50cdf,,,,,,,,,,,,,,,,,,,,,,,,,,,,,,,,,,,,,,,,,,,,,,,,,,,,,,,,,,,,,,,,,,,,,,,,,,,,,,,,,,,,,,,,,,,,,,,,,,,,,,,
,,"[""period""]",0,[1.6359999999999957],3,0,3,0,1,5e8249e7cee0da961f8f08f5,23,Kobieta,2022-06-04_08h42.15.856,task,2021.1.4,MacIntel,71.42857143,628b806c463b948bc644b84f,629afeb740a35d9e9bd50cdf,,,,,,,,,,,,,,,,,,,,,,,,,,,,,,,,,,,,,,,,,,,,,,,,,,,,,,,,,,,,,,,,,,,,,,,,,,,,,,,,,,,,,,,,,,,,,,,,,,,,,,,
,,"[""period""]",0,[1.4410000000000025],4,0,4,0,1,5e8249e7cee0da961f8f08f5,23,Kobieta,2022-06-04_08h42.15.856,task,2021.1.4,MacIntel,71.42857143,628b806c463b948bc644b84f,629afeb740a35d9e9bd50cdf,,,,,,,,,,,,,,,,,,,,,,,,,,,,,,,,,,,,,,,,,,,,,,,,,,,,,,,,,,,,,,,,,,,,,,,,,,,,,,,,,,,,,,,,,,,,,,,,,,,,,,,
,,,0,,5,0,5,0,1,5e8249e7cee0da961f8f08f5,23,Kobieta,2022-06-04_08h42.15.856,task,2021.1.4,MacIntel,71.42857143,628b806c463b948bc644b84f,629afeb740a35d9e9bd50cdf,,,,,,,,,,,,,,,,,,,,,,,,,,,,,,,,,,,,,,,,,,,,,,,,,,,,,,,,,,,,,,,,,,,,,,,,,,,,,,,,,,,,,,,,,,,,,,,,,,,,,,,
,,"[""comma"",""period""]",0,"[0.02599999999999625,1.4519999999999982]",6,0,6,0,1,5e8249e7cee0da961f8f08f5,23,Kobieta,2022-06-04_08h42.15.856,task,2021.1.4,MacIntel,71.42857143,628b806c463b948bc644b84f,629afeb740a35d9e9bd50cdf,,,,,,,,,,,,,,,,,,,,,,,,,,,,,,,,,,,,,,,,,,,,,,,,,,,,,,,,,,,,,,,,,,,,,,,,,,,,,,,,,,,,,,,,,,,,,,,,,,,,,,,
,,,0,,7,0,7,0,1,5e8249e7cee0da961f8f08f5,23,Kobieta,2022-06-04_08h42.15.856,task,2021.1.4,MacIntel,71.42857143,628b806c463b948bc644b84f,629afeb740a35d9e9bd50cdf,,,,,,,,,,,,,,,,,,,,,,,,,,,,,,,,,,,,,,,,,,,,,,,,,,,,,,,,,,,,,,,,,,,,,,,,,,,,,,,,,,,,,,,,,,,,,,,,,,,,,,,
,,"[""comma"",""comma""]",0,"[0.43599999999999284,1.2349999999999994]",8,0,8,0,1,5e8249e7cee0da961f8f08f5,23,Kobieta,2022-06-04_08h42.15.856,task,2021.1.4,MacIntel,71.42857143,628b806c463b948bc644b84f,629afeb740a35d9e9bd50cdf,,,,,,,,,,,,,,,,,,,,,,,,,,,,,,,,,,,,,,,,,,,,,,,,,,,,,,,,,,,,,,,,,,,,,,,,,,,,,,,,,,,,,,,,,,,,,,,,,,,,,,,
,,"[""comma""]",0,[0.46300000000000807],9,0,9,0,1,5e8249e7cee0da961f8f08f5,23,Kobieta,2022-06-04_08h42.15.856,task,2021.1.4,MacIntel,71.42857143,628b806c463b948bc644b84f,629afeb740a35d9e9bd50cdf,,,,,,,,,,,,,,,,,,,,,,,,,,,,,,,,,,,,,,,,,,,,,,,,,,,,,,,,,,,,,,,,,,,,,,,,,,,,,,,,,,,,,,,,,,,,,,,,,,,,,,,
,,"[""comma""]",0,[0.5849999999999937],10,0,10,0,1,5e8249e7cee0da961f8f08f5,23,Kobieta,2022-06-04_08h42.15.856,task,2021.1.4,MacIntel,71.42857143,628b806c463b948bc644b84f,629afeb740a35d9e9bd50cdf,,,,,,,,,,,,,,,,,,,,,,,,,,,,,,,,,,,,,,,,,,,,,,,,,,,,,,,,,,,,,,,,,,,,,,,,,,,,,,,,,,,,,,,,,,,,,,,,,,,,,,,
,,"[""comma""]",0,[0.8580000000000041],11,0,11,0,1,5e8249e7cee0da961f8f08f5,23,Kobieta,2022-06-04_08h42.15.856,task,2021.1.4,MacIntel,71.42857143,628b806c463b948bc644b84f,629afeb740a35d9e9bd50cdf,,,,,,,,,,,,,,,,,,,,,,,,,,,,,,,,,,,,,,,,,,,,,,,,,,,,,,,,,,,,,,,,,,,,,,,,,,,,,,,,,,,,,,,,,,,,,,,,,,,,,,,
,,"[""comma""]",0,[0.4239999999999924],12,0,12,0,1,5e8249e7cee0da961f8f08f5,23,Kobieta,2022-06-04_08h42.15.856,task,2021.1.4,MacIntel,71.42857143,628b806c463b948bc644b84f,629afeb740a35d9e9bd50cdf,,,,,,,,,,,,,,,,,,,,,,,,,,,,,,,,,,,,,,,,,,,,,,,,,,,,,,,,,,,,,,,,,,,,,,,,,,,,,,,,,,,,,,,,,,,,,,,,,,,,,,,
,,"[""period""]",0,[0.2540000000000049],13,0,13,0,1,5e8249e7cee0da961f8f08f5,23,Kobieta,2022-06-04_08h42.15.856,task,2021.1.4,MacIntel,71.42857143,628b806c463b948bc644b84f,629afeb740a35d9e9bd50cdf,,,,,,,,,,,,,,,,,,,,,,,,,,,,,,,,,,,,,,,,,,,,,,,,,,,,,,,,,,,,,,,,,,,,,,,,,,,,,,,,,,,,,,,,,,,,,,,,,,,,,,,
,,"[""period""]",0,[0.2459999999999951],14,0,14,0,1,5e8249e7cee0da961f8f08f5,23,Kobieta,2022-06-04_08h42.15.856,task,2021.1.4,MacIntel,71.42857143,628b806c463b948bc644b84f,629afeb740a35d9e9bd50cdf,,,,,,,,,,,,,,,,,,,,,,,,,,,,,,,,,,,,,,,,,,,,,,,,,,,,,,,,,,,,,,,,,,,,,,,,,,,,,,,,,,,,,,,,,,,,,,,,,,,,,,,
,,"[""period""]",0,[0.3509999999999849],15,0,15,0,1,5e8249e7cee0da961f8f08f5,23,Kobieta,2022-06-04_08h42.15.856,task,2021.1.4,MacIntel,71.42857143,628b806c463b948bc644b84f,629afeb740a35d9e9bd50cdf,,,,,,,,,,,,,,,,,,,,,,,,,,,,,,,,,,,,,,,,,,,,,,,,,,,,,,,,,,,,,,,,,,,,,,,,,,,,,,,,,,,,,,,,,,,,,,,,,,,,,,,
,,"[""period""]",0,[0.2600000000000051],16,0,16,0,1,5e8249e7cee0da961f8f08f5,23,Kobieta,2022-06-04_08h42.15.856,task,2021.1.4,MacIntel,71.42857143,628b806c463b948bc644b84f,629afeb740a35d9e9bd50cdf,,,,,,,,,,,,,,,,,,,,,,,,,,,,,,,,,,,,,,,,,,,,,,,,,,,,,,,,,,,,,,,,,,,,,,,,,,,,,,,,,,,,,,,,,,,,,,,,,,,,,,,
,,"[""period""]",0,[0.26600000000000534],17,0,17,0,1,5e8249e7cee0da961f8f08f5,23,Kobieta,2022-06-04_08h42.15.856,task,2021.1.4,MacIntel,71.42857143,628b806c463b948bc644b84f,629afeb740a35d9e9bd50cdf,,,,,,,,,,,,,,,,,,,,,,,,,,,,,,,,,,,,,,,,,,,,,,,,,,,,,,,,,,,,,,,,,,,,,,,,,,,,,,,,,,,,,,,,,,,,,,,,,,,,,,,
,,"[""comma""]",0,[0.25099999999999056],18,0,18,0,1,5e8249e7cee0da961f8f08f5,23,Kobieta,2022-06-04_08h42.15.856,task,2021.1.4,MacIntel,71.42857143,628b806c463b948bc644b84f,629afeb740a35d9e9bd50cdf,,,,,,,,,,,,,,,,,,,,,,,,,,,,,,,,,,,,,,,,,,,,,,,,,,,,,,,,,,,,,,,,,,,,,,,,,,,,,,,,,,,,,,,,,,,,,,,,,,,,,,,
,,"[""period""]",0,[0.333999999999989],19,0,19,0,1,5e8249e7cee0da961f8f08f5,23,Kobieta,2022-06-04_08h42.15.856,task,2021.1.4,MacIntel,71.42857143,628b806c463b948bc644b84f,629afeb740a35d9e9bd50cdf,,,,,,,,,,,,,,,,,,,,,,,,,,,,,,,,,,,,,,,,,,,,,,,,,,,,,,,,,,,,,,,,,,,,,,,,,,,,,,,,,,,,,,,,,,,,,,,,,,,,,,,
,,"[""period""]",0,[0.42600000000000193],20,0,20,0,1,5e8249e7cee0da961f8f08f5,23,Kobieta,2022-06-04_08h42.15.856,task,2021.1.4,MacIntel,71.42857143,628b806c463b948bc644b84f,629afeb740a35d9e9bd50cdf,,,,,,,,,,,,,,,,,,,,,,,,,,,,,,,,,,,,,,,,,,,,,,,,,,,,,,,,,,,,,,,,,,,,,,,,,,,,,,,,,,,,,,,,,,,,,,,,,,,,,,,
,,"[""comma""]",0,[0.6009999999999991],21,0,21,0,1,5e8249e7cee0da961f8f08f5,23,Kobieta,2022-06-04_08h42.15.856,task,2021.1.4,MacIntel,71.42857143,628b806c463b948bc644b84f,629afeb740a35d9e9bd50cdf,,,,,,,,,,,,,,,,,,,,,,,,,,,,,,,,,,,,,,,,,,,,,,,,,,,,,,,,,,,,,,,,,,,,,,,,,,,,,,,,,,,,,,,,,,,,,,,,,,,,,,,
,,"[""period""]",0,[0.3050000000000068],22,0,22,0,1,5e8249e7cee0da961f8f08f5,23,Kobieta,2022-06-04_08h42.15.856,task,2021.1.4,MacIntel,71.42857143,628b806c463b948bc644b84f,629afeb740a35d9e9bd50cdf,,,,,,,,,,,,,,,,,,,,,,,,,,,,,,,,,,,,,,,,,,,,,,,,,,,,,,,,,,,,,,,,,,,,,,,,,,,,,,,,,,,,,,,,,,,,,,,,,,,,,,,
,,"[""comma""]",0,[0.3399999999999892],23,0,23,0,1,5e8249e7cee0da961f8f08f5,23,Kobieta,2022-06-04_08h42.15.856,task,2021.1.4,MacIntel,71.42857143,628b806c463b948bc644b84f,629afeb740a35d9e9bd50cdf,,,,,,,,,,,,,,,,,,,,,,,,,,,,,,,,,,,,,,,,,,,,,,,,,,,,,,,,,,,,,,,,,,,,,,,,,,,,,,,,,,,,,,,,,,,,,,,,,,,,,,,
,,"[""period""]",0,[0.38400000000000034],24,0,24,0,1,5e8249e7cee0da961f8f08f5,23,Kobieta,2022-06-04_08h42.15.856,task,2021.1.4,MacIntel,71.42857143,628b806c463b948bc644b84f,629afeb740a35d9e9bd50cdf,,,,,,,,,,,,,,,,,,,,,,,,,,,,,,,,,,,,,,,,,,,,,,,,,,,,,,,,,,,,,,,,,,,,,,,,,,,,,,,,,,,,,,,,,,,,,,,,,,,,,,,
,,"[""comma""]",0,[0.637999999999991],25,0,25,0,1,5e8249e7cee0da961f8f08f5,23,Kobieta,2022-06-04_08h42.15.856,task,2021.1.4,MacIntel,71.42857143,628b806c463b948bc644b84f,629afeb740a35d9e9bd50cdf,,,,,,,,,,,,,,,,,,,,,,,,,,,,,,,,,,,,,,,,,,,,,,,,,,,,,,,,,,,,,,,,,,,,,,,,,,,,,,,,,,,,,,,,,,,,,,,,,,,,,,,
,,"[""comma""]",0,[0.625],26,0,26,0,1,5e8249e7cee0da961f8f08f5,23,Kobieta,2022-06-04_08h42.15.856,task,2021.1.4,MacIntel,71.42857143,628b806c463b948bc644b84f,629afeb740a35d9e9bd50cdf,,,,,,,,,,,,,,,,,,,,,,,,,,,,,,,,,,,,,,,,,,,,,,,,,,,,,,,,,,,,,,,,,,,,,,,,,,,,,,,,,,,,,,,,,,,,,,,,,,,,,,,
,,"[""comma""]",0,[0.4539999999999935],27,0,27,0,1,5e8249e7cee0da961f8f08f5,23,Kobieta,2022-06-04_08h42.15.856,task,2021.1.4,MacIntel,71.42857143,628b806c463b948bc644b84f,629afeb740a35d9e9bd50cdf,,,,,,,,,,,,,,,,,,,,,,,,,,,,,,,,,,,,,,,,,,,,,,,,,,,,,,,,,,,,,,,,,,,,,,,,,,,,,,,,,,,,,,,,,,,,,,,,,,,,,,,
,,"[""comma""]",0,[0.3850000000000051],28,0,28,0,1,5e8249e7cee0da961f8f08f5,23,Kobieta,2022-06-04_08h42.15.856,task,2021.1.4,MacIntel,71.42857143,628b806c463b948bc644b84f,629afeb740a35d9e9bd50cdf,,,,,,,,,,,,,,,,,,,,,,,,,,,,,,,,,,,,,,,,,,,,,,,,,,,,,,,,,,,,,,,,,,,,,,,,,,,,,,,,,,,,,,,,,,,,,,,,,,,,,,,
,,"[""period""]",0,[0.34200000000001296],29,0,29,0,1,5e8249e7cee0da961f8f08f5,23,Kobieta,2022-06-04_08h42.15.856,task,2021.1.4,MacIntel,71.42857143,628b806c463b948bc644b84f,629afeb740a35d9e9bd50cdf,,,,,,,,,,,,,,,,,,,,,,,,,,,,,,,,,,,,,,,,,,,,,,,,,,,,,,,,,,,,,,,,,,,,,,,,,,,,,,,,,,,,,,,,,,,,,,,,,,,,,,,
,,"[""period""]",0,[0.3499999999999943],30,0,30,0,1,5e8249e7cee0da961f8f08f5,23,Kobieta,2022-06-04_08h42.15.856,task,2021.1.4,MacIntel,71.42857143,628b806c463b948bc644b84f,629afeb740a35d9e9bd50cdf,,,,,,,,,,,,,,,,,,,,,,,,,,,,,,,,,,,,,,,,,,,,,,,,,,,,,,,,,,,,,,,,,,,,,,,,,,,,,,,,,,,,,,,,,,,,,,,,,,,,,,,
,,"[""comma""]",0,[0.3509999999999991],31,0,31,0,1,5e8249e7cee0da961f8f08f5,23,Kobieta,2022-06-04_08h42.15.856,task,2021.1.4,MacIntel,71.42857143,628b806c463b948bc644b84f,629afeb740a35d9e9bd50cdf,,,,,,,,,,,,,,,,,,,,,,,,,,,,,,,,,,,,,,,,,,,,,,,,,,,,,,,,,,,,,,,,,,,,,,,,,,,,,,,,,,,,,,,,,,,,,,,,,,,,,,,
,,"[""period""]",0,[0.3189999999999884],32,0,32,0,1,5e8249e7cee0da961f8f08f5,23,Kobieta,2022-06-04_08h42.15.856,task,2021.1.4,MacIntel,71.42857143,628b806c463b948bc644b84f,629afeb740a35d9e9bd50cdf,,,,,,,,,,,,,,,,,,,,,,,,,,,,,,,,,,,,,,,,,,,,,,,,,,,,,,,,,,,,,,,,,,,,,,,,,,,,,,,,,,,,,,,,,,,,,,,,,,,,,,,
,,"[""comma""]",0,[0.35899999999998045],33,0,33,0,1,5e8249e7cee0da961f8f08f5,23,Kobieta,2022-06-04_08h42.15.856,task,2021.1.4,MacIntel,71.42857143,628b806c463b948bc644b84f,629afeb740a35d9e9bd50cdf,,,,,,,,,,,,,,,,,,,,,,,,,,,,,,,,,,,,,,,,,,,,,,,,,,,,,,,,,,,,,,,,,,,,,,,,,,,,,,,,,,,,,,,,,,,,,,,,,,,,,,,
,,"[""comma""]",0,[0.18200000000001637],34,0,34,0,1,5e8249e7cee0da961f8f08f5,23,Kobieta,2022-06-04_08h42.15.856,task,2021.1.4,MacIntel,71.42857143,628b806c463b948bc644b84f,629afeb740a35d9e9bd50cdf,,,,,,,,,,,,,,,,,,,,,,,,,,,,,,,,,,,,,,,,,,,,,,,,,,,,,,,,,,,,,,,,,,,,,,,,,,,,,,,,,,,,,,,,,,,,,,,,,,,,,,,
,,"[""comma"",""period""]",0,"[0.2820000000000107,1.9350000000000023]",35,0,35,0,1,5e8249e7cee0da961f8f08f5,23,Kobieta,2022-06-04_08h42.15.856,task,2021.1.4,MacIntel,71.42857143,628b806c463b948bc644b84f,629afeb740a35d9e9bd50cdf,,,,,,,,,,,,,,,,,,,,,,,,,,,,,,,,,,,,,,,,,,,,,,,,,,,,,,,,,,,,,,,,,,,,,,,,,,,,,,,,,,,,,,,,,,,,,,,,,,,,,,,
,,,0,,36,0,36,0,1,5e8249e7cee0da961f8f08f5,23,Kobieta,2022-06-04_08h42.15.856,task,2021.1.4,MacIntel,71.42857143,628b806c463b948bc644b84f,629afeb740a35d9e9bd50cdf,,,,,,,,,,,,,,,,,,,,,,,,,,,,,,,,,,,,,,,,,,,,,,,,,,,,,,,,,,,,,,,,,,,,,,,,,,,,,,,,,,,,,,,,,,,,,,,,,,,,,,,
,,"[""comma""]",0,[0.2259999999999991],37,0,37,0,1,5e8249e7cee0da961f8f08f5,23,Kobieta,2022-06-04_08h42.15.856,task,2021.1.4,MacIntel,71.42857143,628b806c463b948bc644b84f,629afeb740a35d9e9bd50cdf,,,,,,,,,,,,,,,,,,,,,,,,,,,,,,,,,,,,,,,,,,,,,,,,,,,,,,,,,,,,,,,,,,,,,,,,,,,,,,,,,,,,,,,,,,,,,,,,,,,,,,,
,,"[""period""]",0,[0.2849999999999966],38,0,38,0,1,5e8249e7cee0da961f8f08f5,23,Kobieta,2022-06-04_08h42.15.856,task,2021.1.4,MacIntel,71.42857143,628b806c463b948bc644b84f,629afeb740a35d9e9bd50cdf,,,,,,,,,,,,,,,,,,,,,,,,,,,,,,,,,,,,,,,,,,,,,,,,,,,,,,,,,,,,,,,,,,,,,,,,,,,,,,,,,,,,,,,,,,,,,,,,,,,,,,,
,,"[""period""]",0,[0.47800000000000864],39,0,39,0,1,5e8249e7cee0da961f8f08f5,23,Kobieta,2022-06-04_08h42.15.856,task,2021.1.4,MacIntel,71.42857143,628b806c463b948bc644b84f,629afeb740a35d9e9bd50cdf,,,,,,,,,,,,,,,,,,,,,,,,,,,,,,,,,,,,,,,,,,,,,,,,,,,,,,,,,,,,,,,,,,,,,,,,,,,,,,,,,,,,,,,,,,,,,,,,,,,,,,,
,,"[""comma""]",0,[0.5310000000000059],40,0,40,0,1,5e8249e7cee0da961f8f08f5,23,Kobieta,2022-06-04_08h42.15.856,task,2021.1.4,MacIntel,71.42857143,628b806c463b948bc644b84f,629afeb740a35d9e9bd50cdf,,,,,,,,,,,,,,,,,,,,,,,,,,,,,,,,,,,,,,,,,,,,,,,,,,,,,,,,,,,,,,,,,,,,,,,,,,,,,,,,,,,,,,,,,,,,,,,,,,,,,,,
,,"[""comma""]",0,[0.375],41,0,41,0,1,5e8249e7cee0da961f8f08f5,23,Kobieta,2022-06-04_08h42.15.856,task,2021.1.4,MacIntel,71.42857143,628b806c463b948bc644b84f,629afeb740a35d9e9bd50cdf,,,,,,,,,,,,,,,,,,,,,,,,,,,,,,,,,,,,,,,,,,,,,,,,,,,,,,,,,,,,,,,,,,,,,,,,,,,,,,,,,,,,,,,,,,,,,,,,,,,,,,,
,,,0,,42,0,42,0,1,5e8249e7cee0da961f8f08f5,23,Kobieta,2022-06-04_08h42.15.856,task,2021.1.4,MacIntel,71.42857143,628b806c463b948bc644b84f,629afeb740a35d9e9bd50cdf,,,,,,,,,,,,,,,,,,,,,,,,,,,,,,,,,,,,,,,,,,,,,,,,,,,,,,,,,,,,,,,,,,,,,,,,,,,,,,,,,,,,,,,,,,,,,,,,,,,,,,,
,,"[""comma""]",0,[0.28299999999998704],43,0,43,0,1,5e8249e7cee0da961f8f08f5,23,Kobieta,2022-06-04_08h42.15.856,task,2021.1.4,MacIntel,71.42857143,628b806c463b948bc644b84f,629afeb740a35d9e9bd50cdf,,,,,,,,,,,,,,,,,,,,,,,,,,,,,,,,,,,,,,,,,,,,,,,,,,,,,,,,,,,,,,,,,,,,,,,,,,,,,,,,,,,,,,,,,,,,,,,,,,,,,,,
,,"[""comma""]",0,[0.2949999999999875],44,0,44,0,1,5e8249e7cee0da961f8f08f5,23,Kobieta,2022-06-04_08h42.15.856,task,2021.1.4,MacIntel,71.42857143,628b806c463b948bc644b84f,629afeb740a35d9e9bd50cdf,,,,,,,,,,,,,,,,,,,,,,,,,,,,,,,,,,,,,,,,,,,,,,,,,,,,,,,,,,,,,,,,,,,,,,,,,,,,,,,,,,,,,,,,,,,,,,,,,,,,,,,
,,"[""period""]",0,[0.29999999999998295],45,0,45,0,1,5e8249e7cee0da961f8f08f5,23,Kobieta,2022-06-04_08h42.15.856,task,2021.1.4,MacIntel,71.42857143,628b806c463b948bc644b84f,629afeb740a35d9e9bd50cdf,,,,,,,,,,,,,,,,,,,,,,,,,,,,,,,,,,,,,,,,,,,,,,,,,,,,,,,,,,,,,,,,,,,,,,,,,,,,,,,,,,,,,,,,,,,,,,,,,,,,,,,
,,"[""comma""]",0,[0.28600000000000136],46,0,46,0,1,5e8249e7cee0da961f8f08f5,23,Kobieta,2022-06-04_08h42.15.856,task,2021.1.4,MacIntel,71.42857143,628b806c463b948bc644b84f,629afeb740a35d9e9bd50cdf,,,,,,,,,,,,,,,,,,,,,,,,,,,,,,,,,,,,,,,,,,,,,,,,,,,,,,,,,,,,,,,,,,,,,,,,,,,,,,,,,,,,,,,,,,,,,,,,,,,,,,,
,,"[""period""]",0,[0.2669999999999959],47,0,47,0,1,5e8249e7cee0da961f8f08f5,23,Kobieta,2022-06-04_08h42.15.856,task,2021.1.4,MacIntel,71.42857143,628b806c463b948bc644b84f,629afeb740a35d9e9bd50cdf,,,,,,,,,,,,,,,,,,,,,,,,,,,,,,,,,,,,,,,,,,,,,,,,,,,,,,,,,,,,,,,,,,,,,,,,,,,,,,,,,,,,,,,,,,,,,,,,,,,,,,,
,,"[""comma""]",0,[0.375],48,0,48,0,1,5e8249e7cee0da961f8f08f5,23,Kobieta,2022-06-04_08h42.15.856,task,2021.1.4,MacIntel,71.42857143,628b806c463b948bc644b84f,629afeb740a35d9e9bd50cdf,,,,,,,,,,,,,,,,,,,,,,,,,,,,,,,,,,,,,,,,,,,,,,,,,,,,,,,,,,,,,,,,,,,,,,,,,,,,,,,,,,,,,,,,,,,,,,,,,,,,,,,
,,"[""comma""]",0,[0.35300000000000864],49,0,49,0,1,5e8249e7cee0da961f8f08f5,23,Kobieta,2022-06-04_08h42.15.856,task,2021.1.4,MacIntel,71.42857143,628b806c463b948bc644b84f,629afeb740a35d9e9bd50cdf,,,,,,,,,,,,,,,,,,,,,,,,,,,,,,,,,,,,,,,,,,,,,,,,,,,,,,,,,,,,,,,,,,,,,,,,,,,,,,,,,,,,,,,,,,,,,,,,,,,,,,,
,,"[""period""]",0,[0.38299999999998136],50,0,50,0,1,5e8249e7cee0da961f8f08f5,23,Kobieta,2022-06-04_08h42.15.856,task,2021.1.4,MacIntel,71.42857143,628b806c463b948bc644b84f,629afeb740a35d9e9bd50cdf,,,,,,,,,,,,,,,,,,,,,,,,,,,,,,,,,,,,,,,,,,,,,,,,,,,,,,,,,,,,,,,,,,,,,,,,,,,,,,,,,,,,,,,,,,,,,,,,,,,,,,,
,,"[""comma""]",0,[0.31799999999998363],51,0,51,0,1,5e8249e7cee0da961f8f08f5,23,Kobieta,2022-06-04_08h42.15.856,task,2021.1.4,MacIntel,71.42857143,628b806c463b948bc644b84f,629afeb740a35d9e9bd50cdf,,,,,,,,,,,,,,,,,,,,,,,,,,,,,,,,,,,,,,,,,,,,,,,,,,,,,,,,,,,,,,,,,,,,,,,,,,,,,,,,,,,,,,,,,,,,,,,,,,,,,,,
,,"[""period""]",0,[0.3050000000000068],52,0,52,0,1,5e8249e7cee0da961f8f08f5,23,Kobieta,2022-06-04_08h42.15.856,task,2021.1.4,MacIntel,71.42857143,628b806c463b948bc644b84f,629afeb740a35d9e9bd50cdf,,,,,,,,,,,,,,,,,,,,,,,,,,,,,,,,,,,,,,,,,,,,,,,,,,,,,,,,,,,,,,,,,,,,,,,,,,,,,,,,,,,,,,,,,,,,,,,,,,,,,,,
,,"[""comma""]",0,[0.3049999999999784],53,0,53,0,1,5e8249e7cee0da961f8f08f5,23,Kobieta,2022-06-04_08h42.15.856,task,2021.1.4,MacIntel,71.42857143,628b806c463b948bc644b84f,629afeb740a35d9e9bd50cdf,,,,,,,,,,,,,,,,,,,,,,,,,,,,,,,,,,,,,,,,,,,,,,,,,,,,,,,,,,,,,,,,,,,,,,,,,,,,,,,,,,,,,,,,,,,,,,,,,,,,,,,
,,"[""comma""]",0,[0.3020000000000209],54,0,54,0,1,5e8249e7cee0da961f8f08f5,23,Kobieta,2022-06-04_08h42.15.856,task,2021.1.4,MacIntel,71.42857143,628b806c463b948bc644b84f,629afeb740a35d9e9bd50cdf,,,,,,,,,,,,,,,,,,,,,,,,,,,,,,,,,,,,,,,,,,,,,,,,,,,,,,,,,,,,,,,,,,,,,,,,,,,,,,,,,,,,,,,,,,,,,,,,,,,,,,,
,,"[""period""]",0,[0.24099999999998545],55,0,55,0,1,5e8249e7cee0da961f8f08f5,23,Kobieta,2022-06-04_08h42.15.856,task,2021.1.4,MacIntel,71.42857143,628b806c463b948bc644b84f,629afeb740a35d9e9bd50cdf,,,,,,,,,,,,,,,,,,,,,,,,,,,,,,,,,,,,,,,,,,,,,,,,,,,,,,,,,,,,,,,,,,,,,,,,,,,,,,,,,,,,,,,,,,,,,,,,,,,,,,,
,,"[""period""]",0,[0.28299999999998704],56,0,56,0,1,5e8249e7cee0da961f8f08f5,23,Kobieta,2022-06-04_08h42.15.856,task,2021.1.4,MacIntel,71.42857143,628b806c463b948bc644b84f,629afeb740a35d9e9bd50cdf,,,,,,,,,,,,,,,,,,,,,,,,,,,,,,,,,,,,,,,,,,,,,,,,,,,,,,,,,,,,,,,,,,,,,,,,,,,,,,,,,,,,,,,,,,,,,,,,,,,,,,,
,,"[""period""]",0,[0.4919999999999902],57,0,57,0,1,5e8249e7cee0da961f8f08f5,23,Kobieta,2022-06-04_08h42.15.856,task,2021.1.4,MacIntel,71.42857143,628b806c463b948bc644b84f,629afeb740a35d9e9bd50cdf,,,,,,,,,,,,,,,,,,,,,,,,,,,,,,,,,,,,,,,,,,,,,,,,,,,,,,,,,,,,,,,,,,,,,,,,,,,,,,,,,,,,,,,,,,,,,,,,,,,,,,,
,,"[""comma""]",0,[0.31699999999997885],58,0,58,0,1,5e8249e7cee0da961f8f08f5,23,Kobieta,2022-06-04_08h42.15.856,task,2021.1.4,MacIntel,71.42857143,628b806c463b948bc644b84f,629afeb740a35d9e9bd50cdf,,,,,,,,,,,,,,,,,,,,,,,,,,,,,,,,,,,,,,,,,,,,,,,,,,,,,,,,,,,,,,,,,,,,,,,,,,,,,,,,,,,,,,,,,,,,,,,,,,,,,,,
,,"[""period""]",0,[0.6529999999999916],59,0,59,0,1,5e8249e7cee0da961f8f08f5,23,Kobieta,2022-06-04_08h42.15.856,task,2021.1.4,MacIntel,71.42857143,628b806c463b948bc644b84f,629afeb740a35d9e9bd50cdf,,,,,,,,,,,,,,,,,,,,,,,,,,,,,,,,,,,,,,,,,,,,,,,,,,,,,,,,,,,,,,,,,,,,,,,,,,,,,,,,,,,,,,,,,,,,,,,,,,,,,,,
,,"[""comma""]",0,[0.5829999999999984],60,0,60,0,1,5e8249e7cee0da961f8f08f5,23,Kobieta,2022-06-04_08h42.15.856,task,2021.1.4,MacIntel,71.42857143,628b806c463b948bc644b84f,629afeb740a35d9e9bd50cdf,,,,,,,,,,,,,,,,,,,,,,,,,,,,,,,,,,,,,,,,,,,,,,,,,,,,,,,,,,,,,,,,,,,,,,,,,,,,,,,,,,,,,,,,,,,,,,,,,,,,,,,
,,"[""period""]",0,[0.3540000000000134],61,0,61,0,1,5e8249e7cee0da961f8f08f5,23,Kobieta,2022-06-04_08h42.15.856,task,2021.1.4,MacIntel,71.42857143,628b806c463b948bc644b84f,629afeb740a35d9e9bd50cdf,,,,,,,,,,,,,,,,,,,,,,,,,,,,,,,,,,,,,,,,,,,,,,,,,,,,,,,,,,,,,,,,,,,,,,,,,,,,,,,,,,,,,,,,,,,,,,,,,,,,,,,
,,"[""comma""]",0,[0.3199999999999932],62,0,62,0,1,5e8249e7cee0da961f8f08f5,23,Kobieta,2022-06-04_08h42.15.856,task,2021.1.4,MacIntel,71.42857143,628b806c463b948bc644b84f,629afeb740a35d9e9bd50cdf,,,,,,,,,,,,,,,,,,,,,,,,,,,,,,,,,,,,,,,,,,,,,,,,,,,,,,,,,,,,,,,,,,,,,,,,,,,,,,,,,,,,,,,,,,,,,,,,,,,,,,,
,,"[""comma""]",0,[0.5159999999999911],63,0,63,0,1,5e8249e7cee0da961f8f08f5,23,Kobieta,2022-06-04_08h42.15.856,task,2021.1.4,MacIntel,71.42857143,628b806c463b948bc644b84f,629afeb740a35d9e9bd50cdf,,,,,,,,,,,,,,,,,,,,,,,,,,,,,,,,,,,,,,,,,,,,,,,,,,,,,,,,,,,,,,,,,,,,,,,,,,,,,,,,,,,,,,,,,,,,,,,,,,,,,,,
,,"[""period""]",0,[0.37000000000000455],64,0,64,0,1,5e8249e7cee0da961f8f08f5,23,Kobieta,2022-06-04_08h42.15.856,task,2021.1.4,MacIntel,71.42857143,628b806c463b948bc644b84f,629afeb740a35d9e9bd50cdf,,,,,,,,,,,,,,,,,,,,,,,,,,,,,,,,,,,,,,,,,,,,,,,,,,,,,,,,,,,,,,,,,,,,,,,,,,,,,,,,,,,,,,,,,,,,,,,,,,,,,,,
,,"[""period""]",0,[0.25199999999998113],65,0,65,0,1,5e8249e7cee0da961f8f08f5,23,Kobieta,2022-06-04_08h42.15.856,task,2021.1.4,MacIntel,71.42857143,628b806c463b948bc644b84f,629afeb740a35d9e9bd50cdf,,,,,,,,,,,,,,,,,,,,,,,,,,,,,,,,,,,,,,,,,,,,,,,,,,,,,,,,,,,,,,,,,,,,,,,,,,,,,,,,,,,,,,,,,,,,,,,,,,,,,,,
,,"[""comma""]",0,[0.2669999999999959],66,0,66,0,1,5e8249e7cee0da961f8f08f5,23,Kobieta,2022-06-04_08h42.15.856,task,2021.1.4,MacIntel,71.42857143,628b806c463b948bc644b84f,629afeb740a35d9e9bd50cdf,,,,,,,,,,,,,,,,,,,,,,,,,,,,,,,,,,,,,,,,,,,,,,,,,,,,,,,,,,,,,,,,,,,,,,,,,,,,,,,,,,,,,,,,,,,,,,,,,,,,,,,
,,"[""comma""]",0,[0.33500000000000796],67,0,67,0,1,5e8249e7cee0da961f8f08f5,23,Kobieta,2022-06-04_08h42.15.856,task,2021.1.4,MacIntel,71.42857143,628b806c463b948bc644b84f,629afeb740a35d9e9bd50cdf,,,,,,,,,,,,,,,,,,,,,,,,,,,,,,,,,,,,,,,,,,,,,,,,,,,,,,,,,,,,,,,,,,,,,,,,,,,,,,,,,,,,,,,,,,,,,,,,,,,,,,,
,,"[""period""]",0,[0.3019999999999925],68,0,68,0,1,5e8249e7cee0da961f8f08f5,23,Kobieta,2022-06-04_08h42.15.856,task,2021.1.4,MacIntel,71.42857143,628b806c463b948bc644b84f,629afeb740a35d9e9bd50cdf,,,,,,,,,,,,,,,,,,,,,,,,,,,,,,,,,,,,,,,,,,,,,,,,,,,,,,,,,,,,,,,,,,,,,,,,,,,,,,,,,,,,,,,,,,,,,,,,,,,,,,,
,,"[""comma""]",0,[0.34499999999999886],69,0,69,0,1,5e8249e7cee0da961f8f08f5,23,Kobieta,2022-06-04_08h42.15.856,task,2021.1.4,MacIntel,71.42857143,628b806c463b948bc644b84f,629afeb740a35d9e9bd50cdf,,,,,,,,,,,,,,,,,,,,,,,,,,,,,,,,,,,,,,,,,,,,,,,,,,,,,,,,,,,,,,,,,,,,,,,,,,,,,,,,,,,,,,,,,,,,,,,,,,,,,,,
,,"[""comma""]",0,[0.26899999999997704],70,0,70,0,1,5e8249e7cee0da961f8f08f5,23,Kobieta,2022-06-04_08h42.15.856,task,2021.1.4,MacIntel,71.42857143,628b806c463b948bc644b84f,629afeb740a35d9e9bd50cdf,,,,,,,,,,,,,,,,,,,,,,,,,,,,,,,,,,,,,,,,,,,,,,,,,,,,,,,,,,,,,,,,,,,,,,,,,,,,,,,,,,,,,,,,,,,,,,,,,,,,,,,
,,"[""period""]",0,[0.7699999999999818],71,0,71,0,1,5e8249e7cee0da961f8f08f5,23,Kobieta,2022-06-04_08h42.15.856,task,2021.1.4,MacIntel,71.42857143,628b806c463b948bc644b84f,629afeb740a35d9e9bd50cdf,,,,,,,,,,,,,,,,,,,,,,,,,,,,,,,,,,,,,,,,,,,,,,,,,,,,,,,,,,,,,,,,,,,,,,,,,,,,,,,,,,,,,,,,,,,,,,,,,,,,,,,
,,"[""comma""]",0,[0.6199999999999761],72,0,72,0,1,5e8249e7cee0da961f8f08f5,23,Kobieta,2022-06-04_08h42.15.856,task,2021.1.4,MacIntel,71.42857143,628b806c463b948bc644b84f,629afeb740a35d9e9bd50cdf,,,,,,,,,,,,,,,,,,,,,,,,,,,,,,,,,,,,,,,,,,,,,,,,,,,,,,,,,,,,,,,,,,,,,,,,,,,,,,,,,,,,,,,,,,,,,,,,,,,,,,,
,,"[""period""]",0,[0.33199999999999363],73,0,73,0,1,5e8249e7cee0da961f8f08f5,23,Kobieta,2022-06-04_08h42.15.856,task,2021.1.4,MacIntel,71.42857143,628b806c463b948bc644b84f,629afeb740a35d9e9bd50cdf,,,,,,,,,,,,,,,,,,,,,,,,,,,,,,,,,,,,,,,,,,,,,,,,,,,,,,,,,,,,,,,,,,,,,,,,,,,,,,,,,,,,,,,,,,,,,,,,,,,,,,,
,,"[""comma""]",0,[0.4350000000000023],74,0,74,0,1,5e8249e7cee0da961f8f08f5,23,Kobieta,2022-06-04_08h42.15.856,task,2021.1.4,MacIntel,71.42857143,628b806c463b948bc644b84f,629afeb740a35d9e9bd50cdf,,,,,,,,,,,,,,,,,,,,,,,,,,,,,,,,,,,,,,,,,,,,,,,,,,,,,,,,,,,,,,,,,,,,,,,,,,,,,,,,,,,,,,,,,,,,,,,,,,,,,,,
,,"[""comma""]",0,[0.5040000000000191],75,0,75,0,1,5e8249e7cee0da961f8f08f5,23,Kobieta,2022-06-04_08h42.15.856,task,2021.1.4,MacIntel,71.42857143,628b806c463b948bc644b84f,629afeb740a35d9e9bd50cdf,,,,,,,,,,,,,,,,,,,,,,,,,,,,,,,,,,,,,,,,,,,,,,,,,,,,,,,,,,,,,,,,,,,,,,,,,,,,,,,,,,,,,,,,,,,,,,,,,,,,,,,
,,"[""period""]",0,[0.8359999999999843],76,0,76,0,1,5e8249e7cee0da961f8f08f5,23,Kobieta,2022-06-04_08h42.15.856,task,2021.1.4,MacIntel,71.42857143,628b806c463b948bc644b84f,629afeb740a35d9e9bd50cdf,,,,,,,,,,,,,,,,,,,,,,,,,,,,,,,,,,,,,,,,,,,,,,,,,,,,,,,,,,,,,,,,,,,,,,,,,,,,,,,,,,,,,,,,,,,,,,,,,,,,,,,
,,"[""comma""]",0,[0.5859999999999843],77,0,77,0,1,5e8249e7cee0da961f8f08f5,23,Kobieta,2022-06-04_08h42.15.856,task,2021.1.4,MacIntel,71.42857143,628b806c463b948bc644b84f,629afeb740a35d9e9bd50cdf,,,,,,,,,,,,,,,,,,,,,,,,,,,,,,,,,,,,,,,,,,,,,,,,,,,,,,,,,,,,,,,,,,,,,,,,,,,,,,,,,,,,,,,,,,,,,,,,,,,,,,,
,,"[""comma""]",0,[0.603999999999985],78,0,78,0,1,5e8249e7cee0da961f8f08f5,23,Kobieta,2022-06-04_08h42.15.856,task,2021.1.4,MacIntel,71.42857143,628b806c463b948bc644b84f,629afeb740a35d9e9bd50cdf,,,,,,,,,,,,,,,,,,,,,,,,,,,,,,,,,,,,,,,,,,,,,,,,,,,,,,,,,,,,,,,,,,,,,,,,,,,,,,,,,,,,,,,,,,,,,,,,,,,,,,,
,,"[""comma"",""period""]",0,"[0.2540000000000191,1.8689999999999998]",79,0,79,0,1,5e8249e7cee0da961f8f08f5,23,Kobieta,2022-06-04_08h42.15.856,task,2021.1.4,MacIntel,71.42857143,628b806c463b948bc644b84f,629afeb740a35d9e9bd50cdf,,,,,,,,,,,,,,,,,,,,,,,,,,,,,,,,,,,,,,,,,,,,,,,,,,,,,,,,,,,,,,,,,,,,,,,,,,,,,,,,,,,,,,,,,,,,,,,,,,,,,,,
,,,0,,80,0,80,0,1,5e8249e7cee0da961f8f08f5,23,Kobieta,2022-06-04_08h42.15.856,task,2021.1.4,MacIntel,71.42857143,628b806c463b948bc644b84f,629afeb740a35d9e9bd50cdf,,,,,,,,,,,,,,,,,,,,,,,,,,,,,,,,,,,,,,,,,,,,,,,,,,,,,,,,,,,,,,,,,,,,,,,,,,,,,,,,,,,,,,,,,,,,,,,,,,,,,,,
,,"[""period""]",0,[0.3199999999999932],81,0,81,0,1,5e8249e7cee0da961f8f08f5,23,Kobieta,2022-06-04_08h42.15.856,task,2021.1.4,MacIntel,71.42857143,628b806c463b948bc644b84f,629afeb740a35d9e9bd50cdf,,,,,,,,,,,,,,,,,,,,,,,,,,,,,,,,,,,,,,,,,,,,,,,,,,,,,,,,,,,,,,,,,,,,,,,,,,,,,,,,,,,,,,,,,,,,,,,,,,,,,,,
,,"[""period""]",0,[0.5360000000000014],82,0,82,0,1,5e8249e7cee0da961f8f08f5,23,Kobieta,2022-06-04_08h42.15.856,task,2021.1.4,MacIntel,71.42857143,628b806c463b948bc644b84f,629afeb740a35d9e9bd50cdf,,,,,,,,,,,,,,,,,,,,,,,,,,,,,,,,,,,,,,,,,,,,,,,,,,,,,,,,,,,,,,,,,,,,,,,,,,,,,,,,,,,,,,,,,,,,,,,,,,,,,,,
,,"[""period""]",0,[0.3329999999999984],83,0,83,0,1,5e8249e7cee0da961f8f08f5,23,Kobieta,2022-06-04_08h42.15.856,task,2021.1.4,MacIntel,71.42857143,628b806c463b948bc644b84f,629afeb740a35d9e9bd50cdf,,,,,,,,,,,,,,,,,,,,,,,,,,,,,,,,,,,,,,,,,,,,,,,,,,,,,,,,,,,,,,,,,,,,,,,,,,,,,,,,,,,,,,,,,,,,,,,,,,,,,,,
,,"[""period""]",0,[0.3359999999999843],84,0,84,0,1,5e8249e7cee0da961f8f08f5,23,Kobieta,2022-06-04_08h42.15.856,task,2021.1.4,MacIntel,71.42857143,628b806c463b948bc644b84f,629afeb740a35d9e9bd50cdf,,,,,,,,,,,,,,,,,,,,,,,,,,,,,,,,,,,,,,,,,,,,,,,,,,,,,,,,,,,,,,,,,,,,,,,,,,,,,,,,,,,,,,,,,,,,,,,,,,,,,,,
,,"[""period"",""period""]",0,"[0.2769999999999868,0.4939999999999998]",85,0,85,0,1,5e8249e7cee0da961f8f08f5,23,Kobieta,2022-06-04_08h42.15.856,task,2021.1.4,MacIntel,71.42857143,628b806c463b948bc644b84f,629afeb740a35d9e9bd50cdf,,,,,,,,,,,,,,,,,,,,,,,,,,,,,,,,,,,,,,,,,,,,,,,,,,,,,,,,,,,,,,,,,,,,,,,,,,,,,,,,,,,,,,,,,,,,,,,,,,,,,,,
,,"[""period""]",0,[0.5649999999999977],86,0,86,0,1,5e8249e7cee0da961f8f08f5,23,Kobieta,2022-06-04_08h42.15.856,task,2021.1.4,MacIntel,71.42857143,628b806c463b948bc644b84f,629afeb740a35d9e9bd50cdf,,,,,,,,,,,,,,,,,,,,,,,,,,,,,,,,,,,,,,,,,,,,,,,,,,,,,,,,,,,,,,,,,,,,,,,,,,,,,,,,,,,,,,,,,,,,,,,,,,,,,,,
,,"[""comma""]",0,[0.39999999999997726],87,0,87,0,1,5e8249e7cee0da961f8f08f5,23,Kobieta,2022-06-04_08h42.15.856,task,2021.1.4,MacIntel,71.42857143,628b806c463b948bc644b84f,629afeb740a35d9e9bd50cdf,,,,,,,,,,,,,,,,,,,,,,,,,,,,,,,,,,,,,,,,,,,,,,,,,,,,,,,,,,,,,,,,,,,,,,,,,,,,,,,,,,,,,,,,,,,,,,,,,,,,,,,
,,"[""period""]",0,[0.26900000000000546],88,0,88,0,1,5e8249e7cee0da961f8f08f5,23,Kobieta,2022-06-04_08h42.15.856,task,2021.1.4,MacIntel,71.42857143,628b806c463b948bc644b84f,629afeb740a35d9e9bd50cdf,,,,,,,,,,,,,,,,,,,,,,,,,,,,,,,,,,,,,,,,,,,,,,,,,,,,,,,,,,,,,,,,,,,,,,,,,,,,,,,,,,,,,,,,,,,,,,,,,,,,,,,
,,"[""comma""]",0,[0.3669999999999902],89,0,89,0,1,5e8249e7cee0da961f8f08f5,23,Kobieta,2022-06-04_08h42.15.856,task,2021.1.4,MacIntel,71.42857143,628b806c463b948bc644b84f,629afeb740a35d9e9bd50cdf,,,,,,,,,,,,,,,,,,,,,,,,,,,,,,,,,,,,,,,,,,,,,,,,,,,,,,,,,,,,,,,,,,,,,,,,,,,,,,,,,,,,,,,,,,,,,,,,,,,,,,,
,,"[""comma""]",0,[0.46800000000001774],90,0,90,0,1,5e8249e7cee0da961f8f08f5,23,Kobieta,2022-06-04_08h42.15.856,task,2021.1.4,MacIntel,71.42857143,628b806c463b948bc644b84f,629afeb740a35d9e9bd50cdf,,,,,,,,,,,,,,,,,,,,,,,,,,,,,,,,,,,,,,,,,,,,,,,,,,,,,,,,,,,,,,,,,,,,,,,,,,,,,,,,,,,,,,,,,,,,,,,,,,,,,,,
,,"[""period""]",0,[0.3689999999999998],91,0,91,0,1,5e8249e7cee0da961f8f08f5,23,Kobieta,2022-06-04_08h42.15.856,task,2021.1.4,MacIntel,71.42857143,628b806c463b948bc644b84f,629afeb740a35d9e9bd50cdf,,,,,,,,,,,,,,,,,,,,,,,,,,,,,,,,,,,,,,,,,,,,,,,,,,,,,,,,,,,,,,,,,,,,,,,,,,,,,,,,,,,,,,,,,,,,,,,,,,,,,,,
,,"[""comma""]",0,[0.5800000000000125],92,0,92,0,1,5e8249e7cee0da961f8f08f5,23,Kobieta,2022-06-04_08h42.15.856,task,2021.1.4,MacIntel,71.42857143,628b806c463b948bc644b84f,629afeb740a35d9e9bd50cdf,,,,,,,,,,,,,,,,,,,,,,,,,,,,,,,,,,,,,,,,,,,,,,,,,,,,,,,,,,,,,,,,,,,,,,,,,,,,,,,,,,,,,,,,,,,,,,,,,,,,,,,
,,"[""comma""]",0,[0.6510000000000105],93,0,93,0,1,5e8249e7cee0da961f8f08f5,23,Kobieta,2022-06-04_08h42.15.856,task,2021.1.4,MacIntel,71.42857143,628b806c463b948bc644b84f,629afeb740a35d9e9bd50cdf,,,,,,,,,,,,,,,,,,,,,,,,,,,,,,,,,,,,,,,,,,,,,,,,,,,,,,,,,,,,,,,,,,,,,,,,,,,,,,,,,,,,,,,,,,,,,,,,,,,,,,,
,,"[""period""]",0,[0.339999999999975],94,0,94,0,1,5e8249e7cee0da961f8f08f5,23,Kobieta,2022-06-04_08h42.15.856,task,2021.1.4,MacIntel,71.42857143,628b806c463b948bc644b84f,629afeb740a35d9e9bd50cdf,,,,,,,,,,,,,,,,,,,,,,,,,,,,,,,,,,,,,,,,,,,,,,,,,,,,,,,,,,,,,,,,,,,,,,,,,,,,,,,,,,,,,,,,,,,,,,,,,,,,,,,
,,"[""comma""]",0,[0.2759999999999536],95,0,95,0,1,5e8249e7cee0da961f8f08f5,23,Kobieta,2022-06-04_08h42.15.856,task,2021.1.4,MacIntel,71.42857143,628b806c463b948bc644b84f,629afeb740a35d9e9bd50cdf,,,,,,,,,,,,,,,,,,,,,,,,,,,,,,,,,,,,,,,,,,,,,,,,,,,,,,,,,,,,,,,,,,,,,,,,,,,,,,,,,,,,,,,,,,,,,,,,,,,,,,,
,,"[""period""]",0,[0.24600000000003774],96,0,96,0,1,5e8249e7cee0da961f8f08f5,23,Kobieta,2022-06-04_08h42.15.856,task,2021.1.4,MacIntel,71.42857143,628b806c463b948bc644b84f,629afeb740a35d9e9bd50cdf,,,,,,,,,,,,,,,,,,,,,,,,,,,,,,,,,,,,,,,,,,,,,,,,,,,,,,,,,,,,,,,,,,,,,,,,,,,,,,,,,,,,,,,,,,,,,,,,,,,,,,,
,,"[""comma""]",0,[0.3009999999999877],97,0,97,0,1,5e8249e7cee0da961f8f08f5,23,Kobieta,2022-06-04_08h42.15.856,task,2021.1.4,MacIntel,71.42857143,628b806c463b948bc644b84f,629afeb740a35d9e9bd50cdf,,,,,,,,,,,,,,,,,,,,,,,,,,,,,,,,,,,,,,,,,,,,,,,,,,,,,,,,,,,,,,,,,,,,,,,,,,,,,,,,,,,,,,,,,,,,,,,,,,,,,,,
,,"[""period""]",0,[0.08600000000001273],98,0,98,0,1,5e8249e7cee0da961f8f08f5,23,Kobieta,2022-06-04_08h42.15.856,task,2021.1.4,MacIntel,71.42857143,628b806c463b948bc644b84f,629afeb740a35d9e9bd50cdf,,,,,,,,,,,,,,,,,,,,,,,,,,,,,,,,,,,,,,,,,,,,,,,,,,,,,,,,,,,,,,,,,,,,,,,,,,,,,,,,,,,,,,,,,,,,,,,,,,,,,,,
,,"[""comma""]",0,[0.6780000000000541],99,0,99,0,1,5e8249e7cee0da961f8f08f5,23,Kobieta,2022-06-04_08h42.15.856,task,2021.1.4,MacIntel,71.42857143,628b806c463b948bc644b84f,629afeb740a35d9e9bd50cdf,,,,,,,,,,,,,,,,,,,,,,,,,,,,,,,,,,,,,,,,,,,,,,,,,,,,,,,,,,,,,,,,,,,,,,,,,,,,,,,,,,,,,,,,,,,,,,,,,,,,,,,
,,"[""period""]",0,[0.3010000000001014],100,0,100,0,1,5e8249e7cee0da961f8f08f5,23,Kobieta,2022-06-04_08h42.15.856,task,2021.1.4,MacIntel,71.42857143,628b806c463b948bc644b84f,629afeb740a35d9e9bd50cdf,,,,,,,,,,,,,,,,,,,,,,,,,,,,,,,,,,,,,,,,,,,,,,,,,,,,,,,,,,,,,,,,,,,,,,,,,,,,,,,,,,,,,,,,,,,,,,,,,,,,,,,
,,"[""period""]",0,[0.5190000000000055],101,0,101,0,1,5e8249e7cee0da961f8f08f5,23,Kobieta,2022-06-04_08h42.15.856,task,2021.1.4,MacIntel,71.42857143,628b806c463b948bc644b84f,629afeb740a35d9e9bd50cdf,,,,,,,,,,,,,,,,,,,,,,,,,,,,,,,,,,,,,,,,,,,,,,,,,,,,,,,,,,,,,,,,,,,,,,,,,,,,,,,,,,,,,,,,,,,,,,,,,,,,,,,
,,"[""comma""]",0,[0.41800000000000637],102,0,102,0,1,5e8249e7cee0da961f8f08f5,23,Kobieta,2022-06-04_08h42.15.856,task,2021.1.4,MacIntel,71.42857143,628b806c463b948bc644b84f,629afeb740a35d9e9bd50cdf,,,,,,,,,,,,,,,,,,,,,,,,,,,,,,,,,,,,,,,,,,,,,,,,,,,,,,,,,,,,,,,,,,,,,,,,,,,,,,,,,,,,,,,,,,,,,,,,,,,,,,,
,,"[""period""]",0,[0.37000000000000455],103,0,103,0,1,5e8249e7cee0da961f8f08f5,23,Kobieta,2022-06-04_08h42.15.856,task,2021.1.4,MacIntel,71.42857143,628b806c463b948bc644b84f,629afeb740a35d9e9bd50cdf,,,,,,,,,,,,,,,,,,,,,,,,,,,,,,,,,,,,,,,,,,,,,,,,,,,,,,,,,,,,,,,,,,,,,,,,,,,,,,,,,,,,,,,,,,,,,,,,,,,,,,,
,,"[""comma""]",0,[1.0509999999999877],104,0,104,0,1,5e8249e7cee0da961f8f08f5,23,Kobieta,2022-06-04_08h42.15.856,task,2021.1.4,MacIntel,71.42857143,628b806c463b948bc644b84f,629afeb740a35d9e9bd50cdf,,,,,,,,,,,,,,,,,,,,,,,,,,,,,,,,,,,,,,,,,,,,,,,,,,,,,,,,,,,,,,,,,,,,,,,,,,,,,,,,,,,,,,,,,,,,,,,,,,,,,,,
,,"[""period""]",0,[0.6589999999999918],105,0,105,0,1,5e8249e7cee0da961f8f08f5,23,Kobieta,2022-06-04_08h42.15.856,task,2021.1.4,MacIntel,71.42857143,628b806c463b948bc644b84f,629afeb740a35d9e9bd50cdf,,,,,,,,,,,,,,,,,,,,,,,,,,,,,,,,,,,,,,,,,,,,,,,,,,,,,,,,,,,,,,,,,,,,,,,,,,,,,,,,,,,,,,,,,,,,,,,,,,,,,,,
,,"[""period""]",0,[0.325999999999965],106,0,106,0,1,5e8249e7cee0da961f8f08f5,23,Kobieta,2022-06-04_08h42.15.856,task,2021.1.4,MacIntel,71.42857143,628b806c463b948bc644b84f,629afeb740a35d9e9bd50cdf,,,,,,,,,,,,,,,,,,,,,,,,,,,,,,,,,,,,,,,,,,,,,,,,,,,,,,,,,,,,,,,,,,,,,,,,,,,,,,,,,,,,,,,,,,,,,,,,,,,,,,,
,,"[""period""]",0,[0.3020000000000209],107,0,107,0,1,5e8249e7cee0da961f8f08f5,23,Kobieta,2022-06-04_08h42.15.856,task,2021.1.4,MacIntel,71.42857143,628b806c463b948bc644b84f,629afeb740a35d9e9bd50cdf,,,,,,,,,,,,,,,,,,,,,,,,,,,,,,,,,,,,,,,,,,,,,,,,,,,,,,,,,,,,,,,,,,,,,,,,,,,,,,,,,,,,,,,,,,,,,,,,,,,,,,,
,,"[""comma""]",0,[0.29899999999997817],108,0,108,0,1,5e8249e7cee0da961f8f08f5,23,Kobieta,2022-06-04_08h42.15.856,task,2021.1.4,MacIntel,71.42857143,628b806c463b948bc644b84f,629afeb740a35d9e9bd50cdf,,,,,,,,,,,,,,,,,,,,,,,,,,,,,,,,,,,,,,,,,,,,,,,,,,,,,,,,,,,,,,,,,,,,,,,,,,,,,,,,,,,,,,,,,,,,,,,,,,,,,,,
,,"[""comma""]",0,[0.3520000000000323],109,0,109,0,1,5e8249e7cee0da961f8f08f5,23,Kobieta,2022-06-04_08h42.15.856,task,2021.1.4,MacIntel,71.42857143,628b806c463b948bc644b84f,629afeb740a35d9e9bd50cdf,,,,,,,,,,,,,,,,,,,,,,,,,,,,,,,,,,,,,,,,,,,,,,,,,,,,,,,,,,,,,,,,,,,,,,,,,,,,,,,,,,,,,,,,,,,,,,,,,,,,,,,
,,"[""comma""]",0,[0.33799999999996544],110,0,110,0,1,5e8249e7cee0da961f8f08f5,23,Kobieta,2022-06-04_08h42.15.856,task,2021.1.4,MacIntel,71.42857143,628b806c463b948bc644b84f,629afeb740a35d9e9bd50cdf,,,,,,,,,,,,,,,,,,,,,,,,,,,,,,,,,,,,,,,,,,,,,,,,,,,,,,,,,,,,,,,,,,,,,,,,,,,,,,,,,,,,,,,,,,,,,,,,,,,,,,,
,,"[""comma""]",0,[0.31799999999998363],111,0,111,0,1,5e8249e7cee0da961f8f08f5,23,Kobieta,2022-06-04_08h42.15.856,task,2021.1.4,MacIntel,71.42857143,628b806c463b948bc644b84f,629afeb740a35d9e9bd50cdf,,,,,,,,,,,,,,,,,,,,,,,,,,,,,,,,,,,,,,,,,,,,,,,,,,,,,,,,,,,,,,,,,,,,,,,,,,,,,,,,,,,,,,,,,,,,,,,,,,,,,,,
,,"[""period""]",0,[0.3439999999999941],112,0,112,0,1,5e8249e7cee0da961f8f08f5,23,Kobieta,2022-06-04_08h42.15.856,task,2021.1.4,MacIntel,71.42857143,628b806c463b948bc644b84f,629afeb740a35d9e9bd50cdf,,,,,,,,,,,,,,,,,,,,,,,,,,,,,,,,,,,,,,,,,,,,,,,,,,,,,,,,,,,,,,,,,,,,,,,,,,,,,,,,,,,,,,,,,,,,,,,,,,,,,,,
,,"[""period""]",0,[0.30000000000001137],113,0,113,0,1,5e8249e7cee0da961f8f08f5,23,Kobieta,2022-06-04_08h42.15.856,task,2021.1.4,MacIntel,71.42857143,628b806c463b948bc644b84f,629afeb740a35d9e9bd50cdf,,,,,,,,,,,,,,,,,,,,,,,,,,,,,,,,,,,,,,,,,,,,,,,,,,,,,,,,,,,,,,,,,,,,,,,,,,,,,,,,,,,,,,,,,,,,,,,,,,,,,,,
,,"[""comma""]",0,[0.30299999999999727],114,0,114,0,1,5e8249e7cee0da961f8f08f5,23,Kobieta,2022-06-04_08h42.15.856,task,2021.1.4,MacIntel,71.42857143,628b806c463b948bc644b84f,629afeb740a35d9e9bd50cdf,,,,,,,,,,,,,,,,,,,,,,,,,,,,,,,,,,,,,,,,,,,,,,,,,,,,,,,,,,,,,,,,,,,,,,,,,,,,,,,,,,,,,,,,,,,,,,,,,,,,,,,
,,"[""comma""]",0,[0.27799999999996317],115,0,115,0,1,5e8249e7cee0da961f8f08f5,23,Kobieta,2022-06-04_08h42.15.856,task,2021.1.4,MacIntel,71.42857143,628b806c463b948bc644b84f,629afeb740a35d9e9bd50cdf,,,,,,,,,,,,,,,,,,,,,,,,,,,,,,,,,,,,,,,,,,,,,,,,,,,,,,,,,,,,,,,,,,,,,,,,,,,,,,,,,,,,,,,,,,,,,,,,,,,,,,,
,,"[""comma""]",0,[0.47100000000000364],116,0,116,0,1,5e8249e7cee0da961f8f08f5,23,Kobieta,2022-06-04_08h42.15.856,task,2021.1.4,MacIntel,71.42857143,628b806c463b948bc644b84f,629afeb740a35d9e9bd50cdf,,,,,,,,,,,,,,,,,,,,,,,,,,,,,,,,,,,,,,,,,,,,,,,,,,,,,,,,,,,,,,,,,,,,,,,,,,,,,,,,,,,,,,,,,,,,,,,,,,,,,,,
,,"[""period""]",0,[0.38400000000001455],117,0,117,0,1,5e8249e7cee0da961f8f08f5,23,Kobieta,2022-06-04_08h42.15.856,task,2021.1.4,MacIntel,71.42857143,628b806c463b948bc644b84f,629afeb740a35d9e9bd50cdf,,,,,,,,,,,,,,,,,,,,,,,,,,,,,,,,,,,,,,,,,,,,,,,,,,,,,,,,,,,,,,,,,,,,,,,,,,,,,,,,,,,,,,,,,,,,,,,,,,,,,,,
,,"[""comma""]",0,[0.2610000000000241],118,0,118,0,1,5e8249e7cee0da961f8f08f5,23,Kobieta,2022-06-04_08h42.15.856,task,2021.1.4,MacIntel,71.42857143,628b806c463b948bc644b84f,629afeb740a35d9e9bd50cdf,,,,,,,,,,,,,,,,,,,,,,,,,,,,,,,,,,,,,,,,,,,,,,,,,,,,,,,,,,,,,,,,,,,,,,,,,,,,,,,,,,,,,,,,,,,,,,,,,,,,,,,
,,"[""period""]",0,[0.2349999999999568],119,0,119,0,1,5e8249e7cee0da961f8f08f5,23,Kobieta,2022-06-04_08h42.15.856,task,2021.1.4,MacIntel,71.42857143,628b806c463b948bc644b84f,629afeb740a35d9e9bd50cdf,,,,,,,,,,,,,,,,,,,,,,,,,,,,,,,,,,,,,,,,,,,,,,,,,,,,,,,,,,,,,,,,,,,,,,,,,,,,,,,,,,,,,,,,,,,,,,,,,,,,,,,
,,,,,,,,,,5e8249e7cee0da961f8f08f5,23,Kobieta,2022-06-04_08h42.15.856,task,2021.1.4,MacIntel,71.42857143,628b806c463b948bc644b84f,629afeb740a35d9e9bd50cdf,space,21.253,space,7.085,0,0,0,0,1,X V Q F H G B L J M P D K C T S W R N Z,,,,,,,,,,,,,,,,,,,,,,,,,,,,,,,,,,,,,,,,,,,,,,,,,,,,,,,,,,,,,,,,,,,,,,,,,,,,,,,,,,,,,,,,,,,,,
,,,,,,,,,,5e8249e7cee0da961f8f08f5,23,Kobieta,2022-06-04_08h42.15.856,task,2021.1.4,MacIntel,71.42857143,628b806c463b948bc644b84f,629afeb740a35d9e9bd50cdf,,,,,1,0,1,0,1,X V Q F H G B L J M P D K C T S W R N Z,,,,,,,,,,,,,,,,,,,,,,,,,,,,,,,,,,,,,,,,,,,,,,,,,,,,,,,,,,,,,,,,,,,,,,,,,,,,,,,,,,,,,,,,,,,,,
,,,,,,,,,,5e8249e7cee0da961f8f08f5,23,Kobieta,2022-06-04_08h42.15.856,task,2021.1.4,MacIntel,71.42857143,628b806c463b948bc644b84f,629afeb740a35d9e9bd50cdf,,,,,,,,,,,zg,"[""z"",""g""]","[2.33299999999997,2.7509999999999764,3.930000000000007]",1,ZG,0,0,0,0,1,,,,,,,,,,,,,,,,,,,,,,,,,,,,,,,,,,,,,,,,,,,,,,,,,,,,,,,,,,,,,,,,,,,,,,,,,,,,,,,,,,,
,,,,,,,,,,5e8249e7cee0da961f8f08f5,23,Kobieta,2022-06-04_08h42.15.856,task,2021.1.4,MacIntel,71.42857143,628b806c463b948bc644b84f,629afeb740a35d9e9bd50cdf,,,,,0,0,0,0,1,X V Q F H G B L J M P D K C T S W R N Z,,,,,,,,,,,,,,,,,,,,,,,,,,,,,,,,,,,,,,,,,,,,,,,,,,,,,,,,,,,,,,,,,,,,,,,,,,,,,,,,,,,,,,,,,,,,,
,,,,,,,,,,5e8249e7cee0da961f8f08f5,23,Kobieta,2022-06-04_08h42.15.856,task,2021.1.4,MacIntel,71.42857143,628b806c463b948bc644b84f,629afeb740a35d9e9bd50cdf,,,,,1,0,1,0,1,X V Q F H G B L J M P D K C T S W R N Z,,,,,,,,,,,,,,,,,,,,,,,,,,,,,,,,,,,,,,,,,,,,,,,,,,,,,,,,,,,,,,,,,,,,,,,,,,,,,,,,,,,,,,,,,,,,,
,,,,,,,,,,5e8249e7cee0da961f8f08f5,23,Kobieta,2022-06-04_08h42.15.856,task,2021.1.4,MacIntel,71.42857143,628b806c463b948bc644b84f,629afeb740a35d9e9bd50cdf,,,,,,,,,,,sn,"[""s"",""n""]","[1.247000000000014,1.6620000000000346,1.9010000000000105]",1,SN,1,0,1,0,1,,,,,,,,,,,,,,,,,,,,,,,,,,,,,,,,,,,,,,,,,,,,,,,,,,,,,,,,,,,,,,,,,,,,,,,,,,,,,,,,,,,
,,,,,,,,,,5e8249e7cee0da961f8f08f5,23,Kobieta,2022-06-04_08h42.15.856,task,2021.1.4,MacIntel,71.42857143,628b806c463b948bc644b84f,629afeb740a35d9e9bd50cdf,,,,,0,0,0,0,1,X V Q F H G B L J M P D K C T S W R N Z,,,,,,,,,,,,,,,,,,,,,,,,,,,,,,,,,,,,,,,,,,,,,,,,,,,,,,,,,,,,,,,,,,,,,,,,,,,,,,,,,,,,,,,,,,,,,
,,,,,,,,,,5e8249e7cee0da961f8f08f5,23,Kobieta,2022-06-04_08h42.15.856,task,2021.1.4,MacIntel,71.42857143,628b806c463b948bc644b84f,629afeb740a35d9e9bd50cdf,,,,,1,0,1,0,1,X V Q F H G B L J M P D K C T S W R N Z,,,,,,,,,,,,,,,,,,,,,,,,,,,,,,,,,,,,,,,,,,,,,,,,,,,,,,,,,,,,,,,,,,,,,,,,,,,,,,,,,,,,,,,,,,,,,
,,,,,,,,,,5e8249e7cee0da961f8f08f5,23,Kobieta,2022-06-04_08h42.15.856,task,2021.1.4,MacIntel,71.42857143,628b806c463b948bc644b84f,629afeb740a35d9e9bd50cdf,,,,,2,0,2,0,1,X V Q F H G B L J M P D K C T S W R N Z,,,,,,,,,,,,,,,,,,,,,,,,,,,,,,,,,,,,,,,,,,,,,,,,,,,,,,,,,,,,,,,,,,,,,,,,,,,,,,,,,,,,,,,,,,,,,
,,,,,,,,,,5e8249e7cee0da961f8f08f5,23,Kobieta,2022-06-04_08h42.15.856,task,2021.1.4,MacIntel,71.42857143,628b806c463b948bc644b84f,629afeb740a35d9e9bd50cdf,,,,,,,,,,,bbf,"[""b"",""b"",""f""]","[0.8149999999999977,1.0020000000000095,1.247000000000014,1.579999999999984]",1,BBF,2,0,2,0,1,,,,,,,,,,,,,,,,,,,,,,,,,,,,,,,,,,,,,,,,,,,,,,,,,,,,,,,,,,,,,,,,,,,,,,,,,,,,,,,,,,,
,,,,,,,,,,5e8249e7cee0da961f8f08f5,23,Kobieta,2022-06-04_08h42.15.856,task,2021.1.4,MacIntel,71.42857143,628b806c463b948bc644b84f,629afeb740a35d9e9bd50cdf,,,,,0,0,0,0,1,X V Q F H G B L J M P D K C T S W R N Z,,,,,,,,,,,,,,,,,,,,,,,,,,,,,,,,,,,,,,,,,,,,,,,,,,,,,,,,,,,,,,,,,,,,,,,,,,,,,,,,,,,,,,,,,,,,,
,,,,,,,,,,5e8249e7cee0da961f8f08f5,23,Kobieta,2022-06-04_08h42.15.856,task,2021.1.4,MacIntel,71.42857143,628b806c463b948bc644b84f,629afeb740a35d9e9bd50cdf,,,,,1,0,1,0,1,X V Q F H G B L J M P D K C T S W R N Z,,,,,,,,,,,,,,,,,,,,,,,,,,,,,,,,,,,,,,,,,,,,,,,,,,,,,,,,,,,,,,,,,,,,,,,,,,,,,,,,,,,,,,,,,,,,,
,,,,,,,,,,5e8249e7cee0da961f8f08f5,23,Kobieta,2022-06-04_08h42.15.856,task,2021.1.4,MacIntel,71.42857143,628b806c463b948bc644b84f,629afeb740a35d9e9bd50cdf,,,,,2,0,2,0,1,X V Q F H G B L J M P D K C T S W R N Z,,,,,,,,,,,,,,,,,,,,,,,,,,,,,,,,,,,,,,,,,,,,,,,,,,,,,,,,,,,,,,,,,,,,,,,,,,,,,,,,,,,,,,,,,,,,,
,,,,,,,,,,5e8249e7cee0da961f8f08f5,23,Kobieta,2022-06-04_08h42.15.856,task,2021.1.4,MacIntel,71.42857143,628b806c463b948bc644b84f,629afeb740a35d9e9bd50cdf,,,,,,,,,,,glh,"[""g"",""l"",""h""]","[1.0129999999999768,2.26400000000001,2.5949999999999704,3.130999999999972]",1,GLH,3,0,3,0,1,,,,,,,,,,,,,,,,,,,,,,,,,,,,,,,,,,,,,,,,,,,,,,,,,,,,,,,,,,,,,,,,,,,,,,,,,,,,,,,,,,,
,,,,,,,,,,5e8249e7cee0da961f8f08f5,23,Kobieta,2022-06-04_08h42.15.856,task,2021.1.4,MacIntel,71.42857143,628b806c463b948bc644b84f,629afeb740a35d9e9bd50cdf,,,,,0,0,0,0,1,X V Q F H G B L J M P D K C T S W R N Z,,,,,,,,,,,,,,,,,,,,,,,,,,,,,,,,,,,,,,,,,,,,,,,,,,,,,,,,,,,,,,,,,,,,,,,,,,,,,,,,,,,,,,,,,,,,,
,,,,,,,,,,5e8249e7cee0da961f8f08f5,23,Kobieta,2022-06-04_08h42.15.856,task,2021.1.4,MacIntel,71.42857143,628b806c463b948bc644b84f,629afeb740a35d9e9bd50cdf,,,,,1,0,1,0,1,X V Q F H G B L J M P D K C T S W R N Z,,,,,,,,,,,,,,,,,,,,,,,,,,,,,,,,,,,,,,,,,,,,,,,,,,,,,,,,,,,,,,,,,,,,,,,,,,,,,,,,,,,,,,,,,,,,,
,,,,,,,,,,5e8249e7cee0da961f8f08f5,23,Kobieta,2022-06-04_08h42.15.856,task,2021.1.4,MacIntel,71.42857143,628b806c463b948bc644b84f,629afeb740a35d9e9bd50cdf,,,,,2,0,2,0,1,X V Q F H G B L J M P D K C T S W R N Z,,,,,,,,,,,,,,,,,,,,,,,,,,,,,,,,,,,,,,,,,,,,,,,,,,,,,,,,,,,,,,,,,,,,,,,,,,,,,,,,,,,,,,,,,,,,,
,,,,,,,,,,5e8249e7cee0da961f8f08f5,23,Kobieta,2022-06-04_08h42.15.856,task,2021.1.4,MacIntel,71.42857143,628b806c463b948bc644b84f,629afeb740a35d9e9bd50cdf,,,,,3,0,3,0,1,X V Q F H G B L J M P D K C T S W R N Z,,,,,,,,,,,,,,,,,,,,,,,,,,,,,,,,,,,,,,,,,,,,,,,,,,,,,,,,,,,,,,,,,,,,,,,,,,,,,,,,,,,,,,,,,,,,,
,,,,,,,,,,5e8249e7cee0da961f8f08f5,23,Kobieta,2022-06-04_08h42.15.856,task,2021.1.4,MacIntel,71.42857143,628b806c463b948bc644b84f,629afeb740a35d9e9bd50cdf,,,,,,,,,,,cbps,"[""c"",""b"",""p"",""s""]","[1.1689999999999827,1.4250000000000114,1.934000000000026,2.423000000000002,2.670000000000016]",1,CBPS,4,0,4,0,1,,,,,,,,,,,,,,,,,,,,,,,,,,,,,,,,,,,,,,,,,,,,,,,,,,,,,,,,,,,,,,,,,,,,,,,,,,,,,,,,,,,
,,,,,,,,,,5e8249e7cee0da961f8f08f5,23,Kobieta,2022-06-04_08h42.15.856,task,2021.1.4,MacIntel,71.42857143,628b806c463b948bc644b84f,629afeb740a35d9e9bd50cdf,,,,,0,0,0,0,1,X V Q F H G B L J M P D K C T S W R N Z,,,,,,,,,,,,,,,,,,,,,,,,,,,,,,,,,,,,,,,,,,,,,,,,,,,,,,,,,,,,,,,,,,,,,,,,,,,,,,,,,,,,,,,,,,,,,
,,,,,,,,,,5e8249e7cee0da961f8f08f5,23,Kobieta,2022-06-04_08h42.15.856,task,2021.1.4,MacIntel,71.42857143,628b806c463b948bc644b84f,629afeb740a35d9e9bd50cdf,,,,,1,0,1,0,1,X V Q F H G B L J M P D K C T S W R N Z,,,,,,,,,,,,,,,,,,,,,,,,,,,,,,,,,,,,,,,,,,,,,,,,,,,,,,,,,,,,,,,,,,,,,,,,,,,,,,,,,,,,,,,,,,,,,
,,,,,,,,,,5e8249e7cee0da961f8f08f5,23,Kobieta,2022-06-04_08h42.15.856,task,2021.1.4,MacIntel,71.42857143,628b806c463b948bc644b84f,629afeb740a35d9e9bd50cdf,,,,,2,0,2,0,1,X V Q F H G B L J M P D K C T S W R N Z,,,,,,,,,,,,,,,,,,,,,,,,,,,,,,,,,,,,,,,,,,,,,,,,,,,,,,,,,,,,,,,,,,,,,,,,,,,,,,,,,,,,,,,,,,,,,
,,,,,,,,,,5e8249e7cee0da961f8f08f5,23,Kobieta,2022-06-04_08h42.15.856,task,2021.1.4,MacIntel,71.42857143,628b806c463b948bc644b84f,629afeb740a35d9e9bd50cdf,,,,,3,0,3,0,1,X V Q F H G B L J M P D K C T S W R N Z,,,,,,,,,,,,,,,,,,,,,,,,,,,,,,,,,,,,,,,,,,,,,,,,,,,,,,,,,,,,,,,,,,,,,,,,,,,,,,,,,,,,,,,,,,,,,
,,,,,,,,,,5e8249e7cee0da961f8f08f5,23,Kobieta,2022-06-04_08h42.15.856,task,2021.1.4,MacIntel,71.42857143,628b806c463b948bc644b84f,629afeb740a35d9e9bd50cdf,,,,,,,,,,,wnkr,"[""w"",""n"",""k"",""r""]","[0.9639999999999986,1.7409999999999854,2.007000000000005,2.298000000000002,2.8980000000000246]",1,WNKR,5,0,5,0,1,,,,,,,,,,,,,,,,,,,,,,,,,,,,,,,,,,,,,,,,,,,,,,,,,,,,,,,,,,,,,,,,,,,,,,,,,,,,,,,,,,,
,,,,,,,,,,5e8249e7cee0da961f8f08f5,23,Kobieta,2022-06-04_08h42.15.856,task,2021.1.4,MacIntel,71.42857143,628b806c463b948bc644b84f,629afeb740a35d9e9bd50cdf,,,,,0,0,0,0,1,X V Q F H G B L J M P D K C T S W R N Z,,,,,,,,,,,,,,,,,,,,,,,,,,,,,,,,,,,,,,,,,,,,,,,,,,,,,,,,,,,,,,,,,,,,,,,,,,,,,,,,,,,,,,,,,,,,,
,,,,,,,,,,5e8249e7cee0da961f8f08f5,23,Kobieta,2022-06-04_08h42.15.856,task,2021.1.4,MacIntel,71.42857143,628b806c463b948bc644b84f,629afeb740a35d9e9bd50cdf,,,,,1,0,1,0,1,X V Q F H G B L J M P D K C T S W R N Z,,,,,,,,,,,,,,,,,,,,,,,,,,,,,,,,,,,,,,,,,,,,,,,,,,,,,,,,,,,,,,,,,,,,,,,,,,,,,,,,,,,,,,,,,,,,,
,,,,,,,,,,5e8249e7cee0da961f8f08f5,23,Kobieta,2022-06-04_08h42.15.856,task,2021.1.4,MacIntel,71.42857143,628b806c463b948bc644b84f,629afeb740a35d9e9bd50cdf,,,,,2,0,2,0,1,X V Q F H G B L J M P D K C T S W R N Z,,,,,,,,,,,,,,,,,,,,,,,,,,,,,,,,,,,,,,,,,,,,,,,,,,,,,,,,,,,,,,,,,,,,,,,,,,,,,,,,,,,,,,,,,,,,,
,,,,,,,,,,5e8249e7cee0da961f8f08f5,23,Kobieta,2022-06-04_08h42.15.856,task,2021.1.4,MacIntel,71.42857143,628b806c463b948bc644b84f,629afeb740a35d9e9bd50cdf,,,,,3,0,3,0,1,X V Q F H G B L J M P D K C T S W R N Z,,,,,,,,,,,,,,,,,,,,,,,,,,,,,,,,,,,,,,,,,,,,,,,,,,,,,,,,,,,,,,,,,,,,,,,,,,,,,,,,,,,,,,,,,,,,,
,,,,,,,,,,5e8249e7cee0da961f8f08f5,23,Kobieta,2022-06-04_08h42.15.856,task,2021.1.4,MacIntel,71.42857143,628b806c463b948bc644b84f,629afeb740a35d9e9bd50cdf,,,,,4,0,4,0,1,X V Q F H G B L J M P D K C T S W R N Z,,,,,,,,,,,,,,,,,,,,,,,,,,,,,,,,,,,,,,,,,,,,,,,,,,,,,,,,,,,,,,,,,,,,,,,,,,,,,,,,,,,,,,,,,,,,,
,,,,,,,,,,5e8249e7cee0da961f8f08f5,23,Kobieta,2022-06-04_08h42.15.856,task,2021.1.4,MacIntel,71.42857143,628b806c463b948bc644b84f,629afeb740a35d9e9bd50cdf,,,,,,,,,,,gsgtt,"[""g"",""s"",""g"",""t"",""t""]","[1.3149999999999977,1.6239999999999668,2.0299999999999727,2.234999999999957,2.3719999999999573,2.652999999999963]",1,GSGTT,6,0,6,0,1,,,,,,,,,,,,,,,,,,,,,,,,,,,,,,,,,,,,,,,,,,,,,,,,,,,,,,,,,,,,,,,,,,,,,,,,,,,,,,,,,,,
,,,,,,,,,,5e8249e7cee0da961f8f08f5,23,Kobieta,2022-06-04_08h42.15.856,task,2021.1.4,MacIntel,71.42857143,628b806c463b948bc644b84f,629afeb740a35d9e9bd50cdf,,,,,0,0,0,0,1,X V Q F H G B L J M P D K C T S W R N Z,,,,,,,,,,,,,,,,,,,,,,,,,,,,,,,,,,,,,,,,,,,,,,,,,,,,,,,,,,,,,,,,,,,,,,,,,,,,,,,,,,,,,,,,,,,,,
,,,,,,,,,,5e8249e7cee0da961f8f08f5,23,Kobieta,2022-06-04_08h42.15.856,task,2021.1.4,MacIntel,71.42857143,628b806c463b948bc644b84f,629afeb740a35d9e9bd50cdf,,,,,1,0,1,0,1,X V Q F H G B L J M P D K C T S W R N Z,,,,,,,,,,,,,,,,,,,,,,,,,,,,,,,,,,,,,,,,,,,,,,,,,,,,,,,,,,,,,,,,,,,,,,,,,,,,,,,,,,,,,,,,,,,,,
,,,,,,,,,,5e8249e7cee0da961f8f08f5,23,Kobieta,2022-06-04_08h42.15.856,task,2021.1.4,MacIntel,71.42857143,628b806c463b948bc644b84f,629afeb740a35d9e9bd50cdf,,,,,2,0,2,0,1,X V Q F H G B L J M P D K C T S W R N Z,,,,,,,,,,,,,,,,,,,,,,,,,,,,,,,,,,,,,,,,,,,,,,,,,,,,,,,,,,,,,,,,,,,,,,,,,,,,,,,,,,,,,,,,,,,,,
,,,,,,,,,,5e8249e7cee0da961f8f08f5,23,Kobieta,2022-06-04_08h42.15.856,task,2021.1.4,MacIntel,71.42857143,628b806c463b948bc644b84f,629afeb740a35d9e9bd50cdf,,,,,3,0,3,0,1,X V Q F H G B L J M P D K C T S W R N Z,,,,,,,,,,,,,,,,,,,,,,,,,,,,,,,,,,,,,,,,,,,,,,,,,,,,,,,,,,,,,,,,,,,,,,,,,,,,,,,,,,,,,,,,,,,,,
,,,,,,,,,,5e8249e7cee0da961f8f08f5,23,Kobieta,2022-06-04_08h42.15.856,task,2021.1.4,MacIntel,71.42857143,628b806c463b948bc644b84f,629afeb740a35d9e9bd50cdf,,,,,4,0,4,0,1,X V Q F H G B L J M P D K C T S W R N Z,,,,,,,,,,,,,,,,,,,,,,,,,,,,,,,,,,,,,,,,,,,,,,,,,,,,,,,,,,,,,,,,,,,,,,,,,,,,,,,,,,,,,,,,,,,,,
,,,,,,,,,,5e8249e7cee0da961f8f08f5,23,Kobieta,2022-06-04_08h42.15.856,task,2021.1.4,MacIntel,71.42857143,628b806c463b948bc644b84f,629afeb740a35d9e9bd50cdf,,,,,,,,,,,xsgqr,"[""x"",""s"",""g"",""q"",""r""]","[3.894999999999982,4.591000000000008,5.014999999999986,5.58299999999997,6.263999999999953,6.572999999999979]",0,GXQSD,7,0,7,0,1,,,,,,,,,,,,,,,,,,,,,,,,,,,,,,,,,,,,,,,,,,,,,,,,,,,,,,,,,,,,,,,,,,,,,,,,,,,,,,,,,,,
,,,,,,,,,,5e8249e7cee0da961f8f08f5,23,Kobieta,2022-06-04_08h42.15.856,task,2021.1.4,MacIntel,71.42857143,628b806c463b948bc644b84f,629afeb740a35d9e9bd50cdf,,,,,0,0,0,0,1,X V Q F H G B L J M P D K C T S W R N Z,,,,,,,,,,,,,,,,,,,,,,,,,,,,,,,,,,,,,,,,,,,,,,,,,,,,,,,,,,,,,,,,,,,,,,,,,,,,,,,,,,,,,,,,,,,,,
,,,,,,,,,,5e8249e7cee0da961f8f08f5,23,Kobieta,2022-06-04_08h42.15.856,task,2021.1.4,MacIntel,71.42857143,628b806c463b948bc644b84f,629afeb740a35d9e9bd50cdf,,,,,1,0,1,0,1,X V Q F H G B L J M P D K C T S W R N Z,,,,,,,,,,,,,,,,,,,,,,,,,,,,,,,,,,,,,,,,,,,,,,,,,,,,,,,,,,,,,,,,,,,,,,,,,,,,,,,,,,,,,,,,,,,,,
,,,,,,,,,,5e8249e7cee0da961f8f08f5,23,Kobieta,2022-06-04_08h42.15.856,task,2021.1.4,MacIntel,71.42857143,628b806c463b948bc644b84f,629afeb740a35d9e9bd50cdf,,,,,2,0,2,0,1,X V Q F H G B L J M P D K C T S W R N Z,,,,,,,,,,,,,,,,,,,,,,,,,,,,,,,,,,,,,,,,,,,,,,,,,,,,,,,,,,,,,,,,,,,,,,,,,,,,,,,,,,,,,,,,,,,,,
,,,,,,,,,,5e8249e7cee0da961f8f08f5,23,Kobieta,2022-06-04_08h42.15.856,task,2021.1.4,MacIntel,71.42857143,628b806c463b948bc644b84f,629afeb740a35d9e9bd50cdf,,,,,3,0,3,0,1,X V Q F H G B L J M P D K C T S W R N Z,,,,,,,,,,,,,,,,,,,,,,,,,,,,,,,,,,,,,,,,,,,,,,,,,,,,,,,,,,,,,,,,,,,,,,,,,,,,,,,,,,,,,,,,,,,,,
,,,,,,,,,,5e8249e7cee0da961f8f08f5,23,Kobieta,2022-06-04_08h42.15.856,task,2021.1.4,MacIntel,71.42857143,628b806c463b948bc644b84f,629afeb740a35d9e9bd50cdf,,,,,4,0,4,0,1,X V Q F H G B L J M P D K C T S W R N Z,,,,,,,,,,,,,,,,,,,,,,,,,,,,,,,,,,,,,,,,,,,,,,,,,,,,,,,,,,,,,,,,,,,,,,,,,,,,,,,,,,,,,,,,,,,,,
,,,,,,,,,,5e8249e7cee0da961f8f08f5,23,Kobieta,2022-06-04_08h42.15.856,task,2021.1.4,MacIntel,71.42857143,628b806c463b948bc644b84f,629afeb740a35d9e9bd50cdf,,,,,,,,,,,jmgxr,"[""j"",""m"",""g"",""x"",""r""]","[0.9730000000000132,1.1790000000000305,1.5300000000000296,2.1829999999999927,2.497000000000014,3.032000000000039]",1,JMGXR,8,0,8,0,1,,,,,,,,,,,,,,,,,,,,,,,,,,,,,,,,,,,,,,,,,,,,,,,,,,,,,,,,,,,,,,,,,,,,,,,,,,,,,,,,,,,
,,,,,,,,,,5e8249e7cee0da961f8f08f5,23,Kobieta,2022-06-04_08h42.15.856,task,2021.1.4,MacIntel,71.42857143,628b806c463b948bc644b84f,629afeb740a35d9e9bd50cdf,,,,,0,0,0,0,1,X V Q F H G B L J M P D K C T S W R N Z,,,,,,,,,,,,,,,,,,,,,,,,,,,,,,,,,,,,,,,,,,,,,,,,,,,,,,,,,,,,,,,,,,,,,,,,,,,,,,,,,,,,,,,,,,,,,
,,,,,,,,,,5e8249e7cee0da961f8f08f5,23,Kobieta,2022-06-04_08h42.15.856,task,2021.1.4,MacIntel,71.42857143,628b806c463b948bc644b84f,629afeb740a35d9e9bd50cdf,,,,,1,0,1,0,1,X V Q F H G B L J M P D K C T S W R N Z,,,,,,,,,,,,,,,,,,,,,,,,,,,,,,,,,,,,,,,,,,,,,,,,,,,,,,,,,,,,,,,,,,,,,,,,,,,,,,,,,,,,,,,,,,,,,
,,,,,,,,,,5e8249e7cee0da961f8f08f5,23,Kobieta,2022-06-04_08h42.15.856,task,2021.1.4,MacIntel,71.42857143,628b806c463b948bc644b84f,629afeb740a35d9e9bd50cdf,,,,,2,0,2,0,1,X V Q F H G B L J M P D K C T S W R N Z,,,,,,,,,,,,,,,,,,,,,,,,,,,,,,,,,,,,,,,,,,,,,,,,,,,,,,,,,,,,,,,,,,,,,,,,,,,,,,,,,,,,,,,,,,,,,
,,,,,,,,,,5e8249e7cee0da961f8f08f5,23,Kobieta,2022-06-04_08h42.15.856,task,2021.1.4,MacIntel,71.42857143,628b806c463b948bc644b84f,629afeb740a35d9e9bd50cdf,,,,,3,0,3,0,1,X V Q F H G B L J M P D K C T S W R N Z,,,,,,,,,,,,,,,,,,,,,,,,,,,,,,,,,,,,,,,,,,,,,,,,,,,,,,,,,,,,,,,,,,,,,,,,,,,,,,,,,,,,,,,,,,,,,
,,,,,,,,,,5e8249e7cee0da961f8f08f5,23,Kobieta,2022-06-04_08h42.15.856,task,2021.1.4,MacIntel,71.42857143,628b806c463b948bc644b84f,629afeb740a35d9e9bd50cdf,,,,,4,0,4,0,1,X V Q F H G B L J M P D K C T S W R N Z,,,,,,,,,,,,,,,,,,,,,,,,,,,,,,,,,,,,,,,,,,,,,,,,,,,,,,,,,,,,,,,,,,,,,,,,,,,,,,,,,,,,,,,,,,,,,
,,,,,,,,,,5e8249e7cee0da961f8f08f5,23,Kobieta,2022-06-04_08h42.15.856,task,2021.1.4,MacIntel,71.42857143,628b806c463b948bc644b84f,629afeb740a35d9e9bd50cdf,,,,,5,0,5,0,1,X V Q F H G B L J M P D K C T S W R N Z,,,,,,,,,,,,,,,,,,,,,,,,,,,,,,,,,,,,,,,,,,,,,,,,,,,,,,,,,,,,,,,,,,,,,,,,,,,,,,,,,,,,,,,,,,,,,
,,,,,,,,,,5e8249e7cee0da961f8f08f5,23,Kobieta,2022-06-04_08h42.15.856,task,2021.1.4,MacIntel,71.42857143,628b806c463b948bc644b84f,629afeb740a35d9e9bd50cdf,,,,,,,,,,,vpckcs,"[""v"",""p"",""c"",""k"",""c"",""s""]","[1.3489999999999895,1.7489999999999668,2.2159999999999513,2.6759999999999877,3.25,3.4459999999999695,3.728999999999985]",1,VPCKCS,9,0,9,0,1,,,,,,,,,,,,,,,,,,,,,,,,,,,,,,,,,,,,,,,,,,,,,,,,,,,,,,,,,,,,,,,,,,,,,,,,,,,,,,,,,,,
,,,,,,,,,,5e8249e7cee0da961f8f08f5,23,Kobieta,2022-06-04_08h42.15.856,task,2021.1.4,MacIntel,71.42857143,628b806c463b948bc644b84f,629afeb740a35d9e9bd50cdf,,,,,0,0,0,0,1,X V Q F H G B L J M P D K C T S W R N Z,,,,,,,,,,,,,,,,,,,,,,,,,,,,,,,,,,,,,,,,,,,,,,,,,,,,,,,,,,,,,,,,,,,,,,,,,,,,,,,,,,,,,,,,,,,,,
,,,,,,,,,,5e8249e7cee0da961f8f08f5,23,Kobieta,2022-06-04_08h42.15.856,task,2021.1.4,MacIntel,71.42857143,628b806c463b948bc644b84f,629afeb740a35d9e9bd50cdf,,,,,1,0,1,0,1,X V Q F H G B L J M P D K C T S W R N Z,,,,,,,,,,,,,,,,,,,,,,,,,,,,,,,,,,,,,,,,,,,,,,,,,,,,,,,,,,,,,,,,,,,,,,,,,,,,,,,,,,,,,,,,,,,,,
,,,,,,,,,,5e8249e7cee0da961f8f08f5,23,Kobieta,2022-06-04_08h42.15.856,task,2021.1.4,MacIntel,71.42857143,628b806c463b948bc644b84f,629afeb740a35d9e9bd50cdf,,,,,2,0,2,0,1,X V Q F H G B L J M P D K C T S W R N Z,,,,,,,,,,,,,,,,,,,,,,,,,,,,,,,,,,,,,,,,,,,,,,,,,,,,,,,,,,,,,,,,,,,,,,,,,,,,,,,,,,,,,,,,,,,,,
,,,,,,,,,,5e8249e7cee0da961f8f08f5,23,Kobieta,2022-06-04_08h42.15.856,task,2021.1.4,MacIntel,71.42857143,628b806c463b948bc644b84f,629afeb740a35d9e9bd50cdf,,,,,3,0,3,0,1,X V Q F H G B L J M P D K C T S W R N Z,,,,,,,,,,,,,,,,,,,,,,,,,,,,,,,,,,,,,,,,,,,,,,,,,,,,,,,,,,,,,,,,,,,,,,,,,,,,,,,,,,,,,,,,,,,,,
,,,,,,,,,,5e8249e7cee0da961f8f08f5,23,Kobieta,2022-06-04_08h42.15.856,task,2021.1.4,MacIntel,71.42857143,628b806c463b948bc644b84f,629afeb740a35d9e9bd50cdf,,,,,4,0,4,0,1,X V Q F H G B L J M P D K C T S W R N Z,,,,,,,,,,,,,,,,,,,,,,,,,,,,,,,,,,,,,,,,,,,,,,,,,,,,,,,,,,,,,,,,,,,,,,,,,,,,,,,,,,,,,,,,,,,,,
,,,,,,,,,,5e8249e7cee0da961f8f08f5,23,Kobieta,2022-06-04_08h42.15.856,task,2021.1.4,MacIntel,71.42857143,628b806c463b948bc644b84f,629afeb740a35d9e9bd50cdf,,,,,5,0,5,0,1,X V Q F H G B L J M P D K C T S W R N Z,,,,,,,,,,,,,,,,,,,,,,,,,,,,,,,,,,,,,,,,,,,,,,,,,,,,,,,,,,,,,,,,,,,,,,,,,,,,,,,,,,,,,,,,,,,,,
,,,,,,,,,,5e8249e7cee0da961f8f08f5,23,Kobieta,2022-06-04_08h42.15.856,task,2021.1.4,MacIntel,71.42857143,628b806c463b948bc644b84f,629afeb740a35d9e9bd50cdf,,,,,,,,,,,sbnrs,"[""s"",""b"",""n"",""r"",""s""]","[2.3629999999999995,2.9909999999999854,3.59699999999998,4.009999999999991,4.343999999999994,5.060000000000002]",0,SBNRST,10,0,10,0,1,,,,,,,,,,,,,,,,,,,,,,,,,,,,,,,,,,,,,,,,,,,,,,,,,,,,,,,,,,,,,,,,,,,,,,,,,,,,,,,,,,,
,,,,,,,,,,5e8249e7cee0da961f8f08f5,23,Kobieta,2022-06-04_08h42.15.856,task,2021.1.4,MacIntel,71.42857143,628b806c463b948bc644b84f,629afeb740a35d9e9bd50cdf,,,,,0,0,0,0,1,X V Q F H G B L J M P D K C T S W R N Z,,,,,,,,,,,,,,,,,,,,,,,,,,,,,,,,,,,,,,,,,,,,,,,,,,,,,,,,,,,,,,,,,,,,,,,,,,,,,,,,,,,,,,,,,,,,,
,,,,,,,,,,5e8249e7cee0da961f8f08f5,23,Kobieta,2022-06-04_08h42.15.856,task,2021.1.4,MacIntel,71.42857143,628b806c463b948bc644b84f,629afeb740a35d9e9bd50cdf,,,,,1,0,1,0,1,X V Q F H G B L J M P D K C T S W R N Z,,,,,,,,,,,,,,,,,,,,,,,,,,,,,,,,,,,,,,,,,,,,,,,,,,,,,,,,,,,,,,,,,,,,,,,,,,,,,,,,,,,,,,,,,,,,,
,,,,,,,,,,5e8249e7cee0da961f8f08f5,23,Kobieta,2022-06-04_08h42.15.856,task,2021.1.4,MacIntel,71.42857143,628b806c463b948bc644b84f,629afeb740a35d9e9bd50cdf,,,,,2,0,2,0,1,X V Q F H G B L J M P D K C T S W R N Z,,,,,,,,,,,,,,,,,,,,,,,,,,,,,,,,,,,,,,,,,,,,,,,,,,,,,,,,,,,,,,,,,,,,,,,,,,,,,,,,,,,,,,,,,,,,,
,,,,,,,,,,5e8249e7cee0da961f8f08f5,23,Kobieta,2022-06-04_08h42.15.856,task,2021.1.4,MacIntel,71.42857143,628b806c463b948bc644b84f,629afeb740a35d9e9bd50cdf,,,,,3,0,3,0,1,X V Q F H G B L J M P D K C T S W R N Z,,,,,,,,,,,,,,,,,,,,,,,,,,,,,,,,,,,,,,,,,,,,,,,,,,,,,,,,,,,,,,,,,,,,,,,,,,,,,,,,,,,,,,,,,,,,,
,,,,,,,,,,5e8249e7cee0da961f8f08f5,23,Kobieta,2022-06-04_08h42.15.856,task,2021.1.4,MacIntel,71.42857143,628b806c463b948bc644b84f,629afeb740a35d9e9bd50cdf,,,,,4,0,4,0,1,X V Q F H G B L J M P D K C T S W R N Z,,,,,,,,,,,,,,,,,,,,,,,,,,,,,,,,,,,,,,,,,,,,,,,,,,,,,,,,,,,,,,,,,,,,,,,,,,,,,,,,,,,,,,,,,,,,,
,,,,,,,,,,5e8249e7cee0da961f8f08f5,23,Kobieta,2022-06-04_08h42.15.856,task,2021.1.4,MacIntel,71.42857143,628b806c463b948bc644b84f,629afeb740a35d9e9bd50cdf,,,,,5,0,5,0,1,X V Q F H G B L J M P D K C T S W R N Z,,,,,,,,,,,,,,,,,,,,,,,,,,,,,,,,,,,,,,,,,,,,,,,,,,,,,,,,,,,,,,,,,,,,,,,,,,,,,,,,,,,,,,,,,,,,,
,,,,,,,,,,5e8249e7cee0da961f8f08f5,23,Kobieta,2022-06-04_08h42.15.856,task,2021.1.4,MacIntel,71.42857143,628b806c463b948bc644b84f,629afeb740a35d9e9bd50cdf,,,,,,,,,,,bgsxss,"[""b"",""g"",""s"",""x"",""s"",""s""]","[1.5249999999999773,1.950999999999965,2.7479999999999905,3.131999999999948,4.215999999999951,4.378999999999962,4.68300000000005]",0,BGSXNN,11,0,11,0,1,,,,,,,,,,,,,,,,,,,,,,,,,,,,,,,,,,,,,,,,,,,,,,,,,,,,,,,,,,,,,,,,,,,,,,,,,,,,,,,,,,,
,,,,,,,,,,5e8249e7cee0da961f8f08f5,23,Kobieta,2022-06-04_08h42.15.856,task,2021.1.4,MacIntel,71.42857143,628b806c463b948bc644b84f,629afeb740a35d9e9bd50cdf,,,,,0,0,0,0,1,X V Q F H G B L J M P D K C T S W R N Z,,,,,,,,,,,,,,,,,,,,,,,,,,,,,,,,,,,,,,,,,,,,,,,,,,,,,,,,,,,,,,,,,,,,,,,,,,,,,,,,,,,,,,,,,,,,,
,,,,,,,,,,5e8249e7cee0da961f8f08f5,23,Kobieta,2022-06-04_08h42.15.856,task,2021.1.4,MacIntel,71.42857143,628b806c463b948bc644b84f,629afeb740a35d9e9bd50cdf,,,,,1,0,1,0,1,X V Q F H G B L J M P D K C T S W R N Z,,,,,,,,,,,,,,,,,,,,,,,,,,,,,,,,,,,,,,,,,,,,,,,,,,,,,,,,,,,,,,,,,,,,,,,,,,,,,,,,,,,,,,,,,,,,,
,,,,,,,,,,5e8249e7cee0da961f8f08f5,23,Kobieta,2022-06-04_08h42.15.856,task,2021.1.4,MacIntel,71.42857143,628b806c463b948bc644b84f,629afeb740a35d9e9bd50cdf,,,,,2,0,2,0,1,X V Q F H G B L J M P D K C T S W R N Z,,,,,,,,,,,,,,,,,,,,,,,,,,,,,,,,,,,,,,,,,,,,,,,,,,,,,,,,,,,,,,,,,,,,,,,,,,,,,,,,,,,,,,,,,,,,,
,,,,,,,,,,5e8249e7cee0da961f8f08f5,23,Kobieta,2022-06-04_08h42.15.856,task,2021.1.4,MacIntel,71.42857143,628b806c463b948bc644b84f,629afeb740a35d9e9bd50cdf,,,,,3,0,3,0,1,X V Q F H G B L J M P D K C T S W R N Z,,,,,,,,,,,,,,,,,,,,,,,,,,,,,,,,,,,,,,,,,,,,,,,,,,,,,,,,,,,,,,,,,,,,,,,,,,,,,,,,,,,,,,,,,,,,,
,,,,,,,,,,5e8249e7cee0da961f8f08f5,23,Kobieta,2022-06-04_08h42.15.856,task,2021.1.4,MacIntel,71.42857143,628b806c463b948bc644b84f,629afeb740a35d9e9bd50cdf,,,,,4,0,4,0,1,X V Q F H G B L J M P D K C T S W R N Z,,,,,,,,,,,,,,,,,,,,,,,,,,,,,,,,,,,,,,,,,,,,,,,,,,,,,,,,,,,,,,,,,,,,,,,,,,,,,,,,,,,,,,,,,,,,,
,,,,,,,,,,5e8249e7cee0da961f8f08f5,23,Kobieta,2022-06-04_08h42.15.856,task,2021.1.4,MacIntel,71.42857143,628b806c463b948bc644b84f,629afeb740a35d9e9bd50cdf,,,,,5,0,5,0,1,X V Q F H G B L J M P D K C T S W R N Z,,,,,,,,,,,,,,,,,,,,,,,,,,,,,,,,,,,,,,,,,,,,,,,,,,,,,,,,,,,,,,,,,,,,,,,,,,,,,,,,,,,,,,,,,,,,,
,,,,,,,,,,5e8249e7cee0da961f8f08f5,23,Kobieta,2022-06-04_08h42.15.856,task,2021.1.4,MacIntel,71.42857143,628b806c463b948bc644b84f,629afeb740a35d9e9bd50cdf,,,,,,,,,,,xqndtf,"[""x"",""q"",""n"",""d"",""t"",""f""]","[1.9149999999999636,2.2649999999999864,2.9569999999999936,3.3039999999999736,4.0020000000000095,4.221000000000004,4.480000000000018]",1,XQNDTF,12,0,12,0,1,,,,,,,,,,,,,,,,,,,,,,,,,,,,,,,,,,,,,,,,,,,,,,,,,,,,,,,,,,,,,,,,,,,,,,,,,,,,,,,,,,,
,,,,,,,,,,5e8249e7cee0da961f8f08f5,23,Kobieta,2022-06-04_08h42.15.856,task,2021.1.4,MacIntel,71.42857143,628b806c463b948bc644b84f,629afeb740a35d9e9bd50cdf,,,,,0,0,0,0,1,X V Q F H G B L J M P D K C T S W R N Z,,,,,,,,,,,,,,,,,,,,,,,,,,,,,,,,,,,,,,,,,,,,,,,,,,,,,,,,,,,,,,,,,,,,,,,,,,,,,,,,,,,,,,,,,,,,,
,,,,,,,,,,5e8249e7cee0da961f8f08f5,23,Kobieta,2022-06-04_08h42.15.856,task,2021.1.4,MacIntel,71.42857143,628b806c463b948bc644b84f,629afeb740a35d9e9bd50cdf,,,,,1,0,1,0,1,X V Q F H G B L J M P D K C T S W R N Z,,,,,,,,,,,,,,,,,,,,,,,,,,,,,,,,,,,,,,,,,,,,,,,,,,,,,,,,,,,,,,,,,,,,,,,,,,,,,,,,,,,,,,,,,,,,,
,,,,,,,,,,5e8249e7cee0da961f8f08f5,23,Kobieta,2022-06-04_08h42.15.856,task,2021.1.4,MacIntel,71.42857143,628b806c463b948bc644b84f,629afeb740a35d9e9bd50cdf,,,,,2,0,2,0,1,X V Q F H G B L J M P D K C T S W R N Z,,,,,,,,,,,,,,,,,,,,,,,,,,,,,,,,,,,,,,,,,,,,,,,,,,,,,,,,,,,,,,,,,,,,,,,,,,,,,,,,,,,,,,,,,,,,,
,,,,,,,,,,5e8249e7cee0da961f8f08f5,23,Kobieta,2022-06-04_08h42.15.856,task,2021.1.4,MacIntel,71.42857143,628b806c463b948bc644b84f,629afeb740a35d9e9bd50cdf,,,,,3,0,3,0,1,X V Q F H G B L J M P D K C T S W R N Z,,,,,,,,,,,,,,,,,,,,,,,,,,,,,,,,,,,,,,,,,,,,,,,,,,,,,,,,,,,,,,,,,,,,,,,,,,,,,,,,,,,,,,,,,,,,,
,,,,,,,,,,5e8249e7cee0da961f8f08f5,23,Kobieta,2022-06-04_08h42.15.856,task,2021.1.4,MacIntel,71.42857143,628b806c463b948bc644b84f,629afeb740a35d9e9bd50cdf,,,,,4,0,4,0,1,X V Q F H G B L J M P D K C T S W R N Z,,,,,,,,,,,,,,,,,,,,,,,,,,,,,,,,,,,,,,,,,,,,,,,,,,,,,,,,,,,,,,,,,,,,,,,,,,,,,,,,,,,,,,,,,,,,,
,,,,,,,,,,5e8249e7cee0da961f8f08f5,23,Kobieta,2022-06-04_08h42.15.856,task,2021.1.4,MacIntel,71.42857143,628b806c463b948bc644b84f,629afeb740a35d9e9bd50cdf,,,,,5,0,5,0,1,X V Q F H G B L J M P D K C T S W R N Z,,,,,,,,,,,,,,,,,,,,,,,,,,,,,,,,,,,,,,,,,,,,,,,,,,,,,,,,,,,,,,,,,,,,,,,,,,,,,,,,,,,,,,,,,,,,,
,,,,,,,,,,5e8249e7cee0da961f8f08f5,23,Kobieta,2022-06-04_08h42.15.856,task,2021.1.4,MacIntel,71.42857143,628b806c463b948bc644b84f,629afeb740a35d9e9bd50cdf,,,,,6,0,6,0,1,X V Q F H G B L J M P D K C T S W R N Z,,,,,,,,,,,,,,,,,,,,,,,,,,,,,,,,,,,,,,,,,,,,,,,,,,,,,,,,,,,,,,,,,,,,,,,,,,,,,,,,,,,,,,,,,,,,,
,,,,,,,,,,5e8249e7cee0da961f8f08f5,23,Kobieta,2022-06-04_08h42.15.856,task,2021.1.4,MacIntel,71.42857143,628b806c463b948bc644b84f,629afeb740a35d9e9bd50cdf,,,,,,,,,,,jcjxsf,"[""j"",""c"",""j"",""x"",""s"",""f""]","[1.664000000000044,1.9810000000000514,2.3500000000000227,3.0170000000000528,3.285000000000025,3.8980000000000246,4.447000000000003]",0,JFCJSHV,13,0,13,0,1,,,,,,,,,,,,,,,,,,,,,,,,,,,,,,,,,,,,,,,,,,,,,,,,,,,,,,,,,,,,,,,,,,,,,,,,,,,,,,,,,,,
,,,,,,,,,,5e8249e7cee0da961f8f08f5,23,Kobieta,2022-06-04_08h42.15.856,task,2021.1.4,MacIntel,71.42857143,628b806c463b948bc644b84f,629afeb740a35d9e9bd50cdf,,,,,0,0,0,0,1,X V Q F H G B L J M P D K C T S W R N Z,,,,,,,,,,,,,,,,,,,,,,,,,,,,,,,,,,,,,,,,,,,,,,,,,,,,,,,,,,,,,,,,,,,,,,,,,,,,,,,,,,,,,,,,,,,,,
,,,,,,,,,,5e8249e7cee0da961f8f08f5,23,Kobieta,2022-06-04_08h42.15.856,task,2021.1.4,MacIntel,71.42857143,628b806c463b948bc644b84f,629afeb740a35d9e9bd50cdf,,,,,1,0,1,0,1,X V Q F H G B L J M P D K C T S W R N Z,,,,,,,,,,,,,,,,,,,,,,,,,,,,,,,,,,,,,,,,,,,,,,,,,,,,,,,,,,,,,,,,,,,,,,,,,,,,,,,,,,,,,,,,,,,,,
,,,,,,,,,,5e8249e7cee0da961f8f08f5,23,Kobieta,2022-06-04_08h42.15.856,task,2021.1.4,MacIntel,71.42857143,628b806c463b948bc644b84f,629afeb740a35d9e9bd50cdf,,,,,2,0,2,0,1,X V Q F H G B L J M P D K C T S W R N Z,,,,,,,,,,,,,,,,,,,,,,,,,,,,,,,,,,,,,,,,,,,,,,,,,,,,,,,,,,,,,,,,,,,,,,,,,,,,,,,,,,,,,,,,,,,,,
,,,,,,,,,,5e8249e7cee0da961f8f08f5,23,Kobieta,2022-06-04_08h42.15.856,task,2021.1.4,MacIntel,71.42857143,628b806c463b948bc644b84f,629afeb740a35d9e9bd50cdf,,,,,3,0,3,0,1,X V Q F H G B L J M P D K C T S W R N Z,,,,,,,,,,,,,,,,,,,,,,,,,,,,,,,,,,,,,,,,,,,,,,,,,,,,,,,,,,,,,,,,,,,,,,,,,,,,,,,,,,,,,,,,,,,,,
,,,,,,,,,,5e8249e7cee0da961f8f08f5,23,Kobieta,2022-06-04_08h42.15.856,task,2021.1.4,MacIntel,71.42857143,628b806c463b948bc644b84f,629afeb740a35d9e9bd50cdf,,,,,4,0,4,0,1,X V Q F H G B L J M P D K C T S W R N Z,,,,,,,,,,,,,,,,,,,,,,,,,,,,,,,,,,,,,,,,,,,,,,,,,,,,,,,,,,,,,,,,,,,,,,,,,,,,,,,,,,,,,,,,,,,,,
,,,,,,,,,,5e8249e7cee0da961f8f08f5,23,Kobieta,2022-06-04_08h42.15.856,task,2021.1.4,MacIntel,71.42857143,628b806c463b948bc644b84f,629afeb740a35d9e9bd50cdf,,,,,5,0,5,0,1,X V Q F H G B L J M P D K C T S W R N Z,,,,,,,,,,,,,,,,,,,,,,,,,,,,,,,,,,,,,,,,,,,,,,,,,,,,,,,,,,,,,,,,,,,,,,,,,,,,,,,,,,,,,,,,,,,,,
,,,,,,,,,,5e8249e7cee0da961f8f08f5,23,Kobieta,2022-06-04_08h42.15.856,task,2021.1.4,MacIntel,71.42857143,628b806c463b948bc644b84f,629afeb740a35d9e9bd50cdf,,,,,6,0,6,0,1,X V Q F H G B L J M P D K C T S W R N Z,,,,,,,,,,,,,,,,,,,,,,,,,,,,,,,,,,,,,,,,,,,,,,,,,,,,,,,,,,,,,,,,,,,,,,,,,,,,,,,,,,,,,,,,,,,,,
,,,,,,,,,,5e8249e7cee0da961f8f08f5,23,Kobieta,2022-06-04_08h42.15.856,task,2021.1.4,MacIntel,71.42857143,628b806c463b948bc644b84f,629afeb740a35d9e9bd50cdf,,,,,,,,,,,xjxvbs,"[""x"",""j"",""x"",""v"",""b"",""s""]","[2.781000000000006,3.173000000000002,3.5219999999999914,4.7660000000000196,6.468000000000018,6.734000000000037,7.898000000000025]",0,JVJXJBZ,14,0,14,0,1,,,,,,,,,,,,,,,,,,,,,,,,,,,,,,,,,,,,,,,,,,,,,,,,,,,,,,,,,,,,,,,,,,,,,,,,,,,,,,,,,,,
,,,,,,,,,,5e8249e7cee0da961f8f08f5,23,Kobieta,2022-06-04_08h42.15.856,task,2021.1.4,MacIntel,71.42857143,628b806c463b948bc644b84f,629afeb740a35d9e9bd50cdf,,,,,0,0,0,0,1,X V Q F H G B L J M P D K C T S W R N Z,,,,,,,,,,,,,,,,,,,,,,,,,,,,,,,,,,,,,,,,,,,,,,,,,,,,,,,,,,,,,,,,,,,,,,,,,,,,,,,,,,,,,,,,,,,,,
,,,,,,,,,,5e8249e7cee0da961f8f08f5,23,Kobieta,2022-06-04_08h42.15.856,task,2021.1.4,MacIntel,71.42857143,628b806c463b948bc644b84f,629afeb740a35d9e9bd50cdf,,,,,1,0,1,0,1,X V Q F H G B L J M P D K C T S W R N Z,,,,,,,,,,,,,,,,,,,,,,,,,,,,,,,,,,,,,,,,,,,,,,,,,,,,,,,,,,,,,,,,,,,,,,,,,,,,,,,,,,,,,,,,,,,,,
,,,,,,,,,,5e8249e7cee0da961f8f08f5,23,Kobieta,2022-06-04_08h42.15.856,task,2021.1.4,MacIntel,71.42857143,628b806c463b948bc644b84f,629afeb740a35d9e9bd50cdf,,,,,2,0,2,0,1,X V Q F H G B L J M P D K C T S W R N Z,,,,,,,,,,,,,,,,,,,,,,,,,,,,,,,,,,,,,,,,,,,,,,,,,,,,,,,,,,,,,,,,,,,,,,,,,,,,,,,,,,,,,,,,,,,,,
,,,,,,,,,,5e8249e7cee0da961f8f08f5,23,Kobieta,2022-06-04_08h42.15.856,task,2021.1.4,MacIntel,71.42857143,628b806c463b948bc644b84f,629afeb740a35d9e9bd50cdf,,,,,3,0,3,0,1,X V Q F H G B L J M P D K C T S W R N Z,,,,,,,,,,,,,,,,,,,,,,,,,,,,,,,,,,,,,,,,,,,,,,,,,,,,,,,,,,,,,,,,,,,,,,,,,,,,,,,,,,,,,,,,,,,,,
,,,,,,,,,,5e8249e7cee0da961f8f08f5,23,Kobieta,2022-06-04_08h42.15.856,task,2021.1.4,MacIntel,71.42857143,628b806c463b948bc644b84f,629afeb740a35d9e9bd50cdf,,,,,4,0,4,0,1,X V Q F H G B L J M P D K C T S W R N Z,,,,,,,,,,,,,,,,,,,,,,,,,,,,,,,,,,,,,,,,,,,,,,,,,,,,,,,,,,,,,,,,,,,,,,,,,,,,,,,,,,,,,,,,,,,,,
,,,,,,,,,,5e8249e7cee0da961f8f08f5,23,Kobieta,2022-06-04_08h42.15.856,task,2021.1.4,MacIntel,71.42857143,628b806c463b948bc644b84f,629afeb740a35d9e9bd50cdf,,,,,5,0,5,0,1,X V Q F H G B L J M P D K C T S W R N Z,,,,,,,,,,,,,,,,,,,,,,,,,,,,,,,,,,,,,,,,,,,,,,,,,,,,,,,,,,,,,,,,,,,,,,,,,,,,,,,,,,,,,,,,,,,,,
,,,,,,,,,,5e8249e7cee0da961f8f08f5,23,Kobieta,2022-06-04_08h42.15.856,task,2021.1.4,MacIntel,71.42857143,628b806c463b948bc644b84f,629afeb740a35d9e9bd50cdf,,,,,6,0,6,0,1,X V Q F H G B L J M P D K C T S W R N Z,,,,,,,,,,,,,,,,,,,,,,,,,,,,,,,,,,,,,,,,,,,,,,,,,,,,,,,,,,,,,,,,,,,,,,,,,,,,,,,,,,,,,,,,,,,,,
,,,,,,,,,,5e8249e7cee0da961f8f08f5,23,Kobieta,2022-06-04_08h42.15.856,task,2021.1.4,MacIntel,71.42857143,628b806c463b948bc644b84f,629afeb740a35d9e9bd50cdf,,,,,,,,,,,sklssvj,"[""s"",""k"",""l"",""s"",""s"",""v"",""j""]","[3.6989999999999554,4.164999999999964,4.448999999999955,5.394999999999982,5.574999999999989,6.1959999999999695,6.532999999999959,6.763999999999953]",1,SKLSSVJ,15,0,15,0,1,,,,,,,,,,,,,,,,,,,,,,,,,,,,,,,,,,,,,,,,,,,,,,,,,,,,,,,,,,,,,,,,,,,,,,,,,,,,,,,,,,,
,,,,,,,,,,5e8249e7cee0da961f8f08f5,23,Kobieta,2022-06-04_08h42.15.856,task,2021.1.4,MacIntel,71.42857143,628b806c463b948bc644b84f,629afeb740a35d9e9bd50cdf,,,,,0,0,0,0,1,X V Q F H G B L J M P D K C T S W R N Z,,,,,,,,,,,,,,,,,,,,,,,,,,,,,,,,,,,,,,,,,,,,,,,,,,,,,,,,,,,,,,,,,,,,,,,,,,,,,,,,,,,,,,,,,,,,,
,,,,,,,,,,5e8249e7cee0da961f8f08f5,23,Kobieta,2022-06-04_08h42.15.856,task,2021.1.4,MacIntel,71.42857143,628b806c463b948bc644b84f,629afeb740a35d9e9bd50cdf,,,,,1,0,1,0,1,X V Q F H G B L J M P D K C T S W R N Z,,,,,,,,,,,,,,,,,,,,,,,,,,,,,,,,,,,,,,,,,,,,,,,,,,,,,,,,,,,,,,,,,,,,,,,,,,,,,,,,,,,,,,,,,,,,,
,,,,,,,,,,5e8249e7cee0da961f8f08f5,23,Kobieta,2022-06-04_08h42.15.856,task,2021.1.4,MacIntel,71.42857143,628b806c463b948bc644b84f,629afeb740a35d9e9bd50cdf,,,,,2,0,2,0,1,X V Q F H G B L J M P D K C T S W R N Z,,,,,,,,,,,,,,,,,,,,,,,,,,,,,,,,,,,,,,,,,,,,,,,,,,,,,,,,,,,,,,,,,,,,,,,,,,,,,,,,,,,,,,,,,,,,,
,,,,,,,,,,5e8249e7cee0da961f8f08f5,23,Kobieta,2022-06-04_08h42.15.856,task,2021.1.4,MacIntel,71.42857143,628b806c463b948bc644b84f,629afeb740a35d9e9bd50cdf,,,,,3,0,3,0,1,X V Q F H G B L J M P D K C T S W R N Z,,,,,,,,,,,,,,,,,,,,,,,,,,,,,,,,,,,,,,,,,,,,,,,,,,,,,,,,,,,,,,,,,,,,,,,,,,,,,,,,,,,,,,,,,,,,,
,,,,,,,,,,5e8249e7cee0da961f8f08f5,23,Kobieta,2022-06-04_08h42.15.856,task,2021.1.4,MacIntel,71.42857143,628b806c463b948bc644b84f,629afeb740a35d9e9bd50cdf,,,,,4,0,4,0,1,X V Q F H G B L J M P D K C T S W R N Z,,,,,,,,,,,,,,,,,,,,,,,,,,,,,,,,,,,,,,,,,,,,,,,,,,,,,,,,,,,,,,,,,,,,,,,,,,,,,,,,,,,,,,,,,,,,,
,,,,,,,,,,5e8249e7cee0da961f8f08f5,23,Kobieta,2022-06-04_08h42.15.856,task,2021.1.4,MacIntel,71.42857143,628b806c463b948bc644b84f,629afeb740a35d9e9bd50cdf,,,,,5,0,5,0,1,X V Q F H G B L J M P D K C T S W R N Z,,,,,,,,,,,,,,,,,,,,,,,,,,,,,,,,,,,,,,,,,,,,,,,,,,,,,,,,,,,,,,,,,,,,,,,,,,,,,,,,,,,,,,,,,,,,,
,,,,,,,,,,5e8249e7cee0da961f8f08f5,23,Kobieta,2022-06-04_08h42.15.856,task,2021.1.4,MacIntel,71.42857143,628b806c463b948bc644b84f,629afeb740a35d9e9bd50cdf,,,,,6,0,6,0,1,X V Q F H G B L J M P D K C T S W R N Z,,,,,,,,,,,,,,,,,,,,,,,,,,,,,,,,,,,,,,,,,,,,,,,,,,,,,,,,,,,,,,,,,,,,,,,,,,,,,,,,,,,,,,,,,,,,,
,,,,,,,,,,5e8249e7cee0da961f8f08f5,23,Kobieta,2022-06-04_08h42.15.856,task,2021.1.4,MacIntel,71.42857143,628b806c463b948bc644b84f,629afeb740a35d9e9bd50cdf,,,,,,,,,,,tvlfvlk,"[""t"",""v"",""l"",""f"",""v"",""l"",""k""]","[3.316000000000031,3.880999999999972,4.93100000000004,5.349000000000046,5.984000000000037,6.682999999999993,6.849000000000046,7.368000000000052]",0,TVRFLQN,16,0,16,0,1,,,,,,,,,,,,,,,,,,,,,,,,,,,,,,,,,,,,,,,,,,,,,,,,,,,,,,,,,,,,,,,,,,,,,,,,,,,,,,,,,,,
,,,,,,,,,,5e8249e7cee0da961f8f08f5,23,Kobieta,2022-06-04_08h42.15.856,task,2021.1.4,MacIntel,71.42857143,628b806c463b948bc644b84f,629afeb740a35d9e9bd50cdf,,,,,,,,,,,,,,,,,,,,,space,26.682,8,"[""8""]",1,[3.3789999999999054],[3.3789999999999054],0,0,0,8,1,Practice,9,(3x3) - 1,8,,,,,,,,,,,,,,,,,,,,,,,,,,,,,,,,,,,,,,,,,,,,,,,,,,,,,,,,,,,,,,,,,,,
,,,,,,,,,,5e8249e7cee0da961f8f08f5,23,Kobieta,2022-06-04_08h42.15.856,task,2021.1.4,MacIntel,71.42857143,628b806c463b948bc644b84f,629afeb740a35d9e9bd50cdf,,,,,,,,,,,,,,,,,,,,,,,1,"[""1""]",1,[1.9629999999999654],"[3.3789999999999054,1.9629999999999654]",0,1,1,1,1,Practice,2,(4x4) - 15,1,,,,,,,,,,,,,,,,,,,,,,,,,,,,,,,,,,,,,,,,,,,,,,,,,,,,,,,,,,,,,,,,,,,
,,,,,,,,,,5e8249e7cee0da961f8f08f5,23,Kobieta,2022-06-04_08h42.15.856,task,2021.1.4,MacIntel,71.42857143,628b806c463b948bc644b84f,629afeb740a35d9e9bd50cdf,,,,,,,,,,,,,,,,,,,,,,,5,"[""5""]",1,[1.884999999999991],"[3.3789999999999054,1.9629999999999654,1.884999999999991]",0,2,2,5,1,Practice,6,(4/2) + 3,5,,,,,,,,,,,,,,,,,,,,,,,,,,,,,,,,,,,,,,,,,,,,,,,,,,,,,,,,,,,,,,,,,,,
,,,,,,,,,,5e8249e7cee0da961f8f08f5,23,Kobieta,2022-06-04_08h42.15.856,task,2021.1.4,MacIntel,71.42857143,628b806c463b948bc644b84f,629afeb740a35d9e9bd50cdf,,,,,,,,,,,,,,,,,,,,,,,2,"[""2""]",1,[1.7830000000000155],"[3.3789999999999054,1.9629999999999654,1.884999999999991,1.7830000000000155]",0,3,3,2,1,Practice,3,(4x4) - 14,2,,,,,,,,,,,,,,,,,,,,,,,,,,,,,,,,,,,,,,,,,,,,,,,,,,,,,,,,,,,,,,,,,,,
,,,,,,,,,,5e8249e7cee0da961f8f08f5,23,Kobieta,2022-06-04_08h42.15.856,task,2021.1.4,MacIntel,71.42857143,628b806c463b948bc644b84f,629afeb740a35d9e9bd50cdf,,,,,,,,,,,,,,,,,,,,,,,7,"[""7""]",1,[5.899000000000001],"[3.3789999999999054,1.9629999999999654,1.884999999999991,1.7830000000000155,5.899000000000001]",0,4,4,7,1,Practice,8,(5x5) - 18,7,,,,,,,,,,,,,,,,,,,,,,,,,,,,,,,,,,,,,,,,,,,,,,,,,,,,,,,,,,,,,,,,,,,
,,,,,,,,,,5e8249e7cee0da961f8f08f5,23,Kobieta,2022-06-04_08h42.15.856,task,2021.1.4,MacIntel,71.42857143,628b806c463b948bc644b84f,629afeb740a35d9e9bd50cdf,,,,,,,,,,,,,,,,,,,,,,,3,"[""3""]",1,[2.925000000000068],"[3.3789999999999054,1.9629999999999654,1.884999999999991,1.7830000000000155,5.899000000000001,2.925000000000068]",0,5,5,3,1,Practice,4,(8/4) + 1,3,,,,,,,,,,,,,,,,,,,,,,,,,,,,,,,,,,,,,,,,,,,,,,,,,,,,,,,,,,,,,,,,,,,
,,,,,,,,,,5e8249e7cee0da961f8f08f5,23,Kobieta,2022-06-04_08h42.15.856,task,2021.1.4,MacIntel,71.42857143,628b806c463b948bc644b84f,629afeb740a35d9e9bd50cdf,,,,,,,,,,,,,,,,,,,,,,,4,"[""4""]",1,[3.2760000000000673],"[3.3789999999999054,1.9629999999999654,1.884999999999991,1.7830000000000155,5.899000000000001,2.925000000000068,3.2760000000000673]",0,6,6,4,1,Practice,5,(2x6) - 8,4,,,,,,,,,,,,,,,,,,,,,,,,,,,,,,,,,,,,,,,,,,,,,,,,,,,,,,,,,,,,,,,,,,,
,,,,,,,,,,5e8249e7cee0da961f8f08f5,23,Kobieta,2022-06-04_08h42.15.856,task,2021.1.4,MacIntel,71.42857143,628b806c463b948bc644b84f,629afeb740a35d9e9bd50cdf,,,,,,,,,,,,,,,,,,,,,,,0,"[""0""]",1,[1.4149999999999636],"[3.3789999999999054,1.9629999999999654,1.884999999999991,1.7830000000000155,5.899000000000001,2.925000000000068,3.2760000000000673,1.4149999999999636]",0,7,7,0,1,Practice,1,(3x3) -  9,0,,,,,,,,,,,,,,,,,,,,,,,,,,,,,,,,,,,,,,,,,,,,,,,,,,,,,,,,,,,,,,,,,,,
,,,,,,,,,,5e8249e7cee0da961f8f08f5,23,Kobieta,2022-06-04_08h42.15.856,task,2021.1.4,MacIntel,71.42857143,628b806c463b948bc644b84f,629afeb740a35d9e9bd50cdf,,,,,,,,,,,,,,,,,,,,,,,9,"[""9""]",1,[1.6509999999999536],"[3.3789999999999054,1.9629999999999654,1.884999999999991,1.7830000000000155,5.899000000000001,2.925000000000068,3.2760000000000673,1.4149999999999636,1.6509999999999536]",0,8,8,9,1,Practice,10,(20/2) - 1,9,,,,,,,,,,,,,,,,,,,,,,,,,,,,,,,,,,,,,,,,,,,,,,,,,,,,,,,,,,,,,,,,,,,
,,,,,,,,,,5e8249e7cee0da961f8f08f5,23,Kobieta,2022-06-04_08h42.15.856,task,2021.1.4,MacIntel,71.42857143,628b806c463b948bc644b84f,629afeb740a35d9e9bd50cdf,,,,,,,,,,,,,,,,,,,,,,,6,"[""6""]",1,[1.4790000000000418],"[3.3789999999999054,1.9629999999999654,1.884999999999991,1.7830000000000155,5.899000000000001,2.925000000000068,3.2760000000000673,1.4149999999999636,1.6509999999999536,1.4790000000000418]",0,9,9,6,1,Practice,7,(25/5) + 1,6,,,,,,,,,,,,,,,,,,,,,,,,,,,,,,,,,,,,,,,,,,,,,,,,,,,,,,,,,,,,,,,,,,,
,,,,,,,,,,5e8249e7cee0da961f8f08f5,23,Kobieta,2022-06-04_08h42.15.856,task,2021.1.4,MacIntel,71.42857143,628b806c463b948bc644b84f,629afeb740a35d9e9bd50cdf,,,,,,,,,,,,,,,,,,,,,,,,,,,,,,,,,,,,,1,25.655,1.710333333,24.49999078,1.27801906,5.007622509,space,1.212,0,0,0,0,1,,,,,,,,,,,,,,,,,,,,,,,,,,,,,,,,,,,,,,,,,,,,,,,,,,,,,,
,,,,,,,,,,5e8249e7cee0da961f8f08f5,23,Kobieta,2022-06-04_08h42.15.856,task,2021.1.4,MacIntel,71.42857143,628b806c463b948bc644b84f,629afeb740a35d9e9bd50cdf,,,,,,,,,,,,,,,,,,,,,,,8,,,,,,,,,,Practice,9,(3x3) - 1,8,,,,,,,,,,,,,,space,13.999,"[""8""]",1,[4.497000000000071],1,0,0,0,8,1,,,,,,,,,,,,,,,,,,,,,,,,,,,,,,,,,,,,,,,,,,,
,,,,,,,,,,5e8249e7cee0da961f8f08f5,23,Kobieta,2022-06-04_08h42.15.856,task,2021.1.4,MacIntel,71.42857143,628b806c463b948bc644b84f,629afeb740a35d9e9bd50cdf,,,,,,,,,,X V Q F H G B L J M P D K C T S W R N Z,,,,,,,,,,,,,,,,,,,,,,,,,,,,,,,,,,,,,,,,,,,,,,,,,,,0,0,0,0,1,,,,,,,,,,,,,,,,,,,,,,,,,,,,,,,,,,,,,,
,,,,,,,,,,5e8249e7cee0da961f8f08f5,23,Kobieta,2022-06-04_08h42.15.856,task,2021.1.4,MacIntel,71.42857143,628b806c463b948bc644b84f,629afeb740a35d9e9bd50cdf,,,,,,,,,,,,,,,,,,,,,,,0,,,,,,,,,,Practice,1,(3x3) -  9,0,,,,,,,,,,,,,,,,"[""0""]",1,[2.3350000000000364],1,0,0,0,0,1,,,,,,,,,,,,,,,,,,,,,,,,,,,,,,,,,,,,,,,,,,,
,,,,,,,,,,5e8249e7cee0da961f8f08f5,23,Kobieta,2022-06-04_08h42.15.856,task,2021.1.4,MacIntel,71.42857143,628b806c463b948bc644b84f,629afeb740a35d9e9bd50cdf,,,,,,,,,,X V Q F H G B L J M P D K C T S W R N Z,,,,,,,,,,,,,,,,,,,,,,,,,,,,,,,,,,,,,,,,,,,,,,,,,,,1,0,1,0,1,,,,,,,,,,,,,,,,,,,,,,,,,,,,,,,,,,,,,,
,,,,,,,,,,5e8249e7cee0da961f8f08f5,23,Kobieta,2022-06-04_08h42.15.856,task,2021.1.4,MacIntel,71.42857143,628b806c463b948bc644b84f,629afeb740a35d9e9bd50cdf,,,,,,,,,,,,,,,,,,,,,,,,,,,,,,,,,,,,,,,,,,,,,,,,,,,,,,,,,,,,,,,,,,zs,"[""z"",""s""]",0,"[2.435000000000059,2.5720000000000027,3.384999999999991]",1,0,0,0,0,1,,,,,,,,,,,,,,,,,,,,,,,,,,,,
,,,,,,,,,,5e8249e7cee0da961f8f08f5,23,Kobieta,2022-06-04_08h42.15.856,task,2021.1.4,MacIntel,71.42857143,628b806c463b948bc644b84f,629afeb740a35d9e9bd50cdf,,,,,,,,,,,,,,,,,,,,,,,5,,,,,,,,,,Practice,6,(4/2) + 3,5,,,,,,,,,,,,,,,,"[""5""]",1,[2.2970000000000255],1,0,0,0,5,1,,,,,,,,,,,,,,,,,,,,,,,,,,,,,,,,,,,,,,,,,,,
,,,,,,,,,,5e8249e7cee0da961f8f08f5,23,Kobieta,2022-06-04_08h42.15.856,task,2021.1.4,MacIntel,71.42857143,628b806c463b948bc644b84f,629afeb740a35d9e9bd50cdf,,,,,,,,,,X V Q F H G B L J M P D K C T S W R N Z,,,,,,,,,,,,,,,,,,,,,,,,,,,,,,,,,,,,,,,,,,,,,,,,,,,0,0,0,0,1,,,,,,,,,,,,,,,,,,,,,,,,,,,,,,,,,,,,,,
,,,,,,,,,,5e8249e7cee0da961f8f08f5,23,Kobieta,2022-06-04_08h42.15.856,task,2021.1.4,MacIntel,71.42857143,628b806c463b948bc644b84f,629afeb740a35d9e9bd50cdf,,,,,,,,,,,,,,,,,,,,,,,1,,,,,,,,,,Practice,2,(4x4) - 15,1,,,,,,,,,,,,,,,,"[""1""]",1,[1.7300000000000182],1,0,0,0,1,1,,,,,,,,,,,,,,,,,,,,,,,,,,,,,,,,,,,,,,,,,,,
,,,,,,,,,,5e8249e7cee0da961f8f08f5,23,Kobieta,2022-06-04_08h42.15.856,task,2021.1.4,MacIntel,71.42857143,628b806c463b948bc644b84f,629afeb740a35d9e9bd50cdf,,,,,,,,,,X V Q F H G B L J M P D K C T S W R N Z,,,,,,,,,,,,,,,,,,,,,,,,,,,,,,,,,,,,,,,,,,,,,,,,,,,1,0,1,0,1,,,,,,,,,,,,,,,,,,,,,,,,,,,,,,,,,,,,,,
,,,,,,,,,,5e8249e7cee0da961f8f08f5,23,Kobieta,2022-06-04_08h42.15.856,task,2021.1.4,MacIntel,71.42857143,628b806c463b948bc644b84f,629afeb740a35d9e9bd50cdf,,,,,,,,,,,,,,,,,,,,,,,,,,,,,,,,,,,,,,,,,,,,,,,,,,,,,,,,,,,,,,,,,,qg,"[""q"",""g""]",0,"[1.7530000000000427,2.1019999999999754,2.5400000000000773]",1,1,0,1,0,1,,,,,,,,,,,,,,,,,,,,,,,,,,,,
,,,,,,,,,,5e8249e7cee0da961f8f08f5,23,Kobieta,2022-06-04_08h42.15.856,task,2021.1.4,MacIntel,71.42857143,628b806c463b948bc644b84f,629afeb740a35d9e9bd50cdf,,,,,,,,,,,,,,,,,,,,,,,2,,,,,,,,,,Practice,3,(4x4) - 14,2,,,,,,,,,,,,,,,,"[""2""]",1,[1.7069999999999936],1,0,0,0,2,1,,,,,,,,,,,,,,,,,,,,,,,,,,,,,,,,,,,,,,,,,,,
,,,,,,,,,,5e8249e7cee0da961f8f08f5,23,Kobieta,2022-06-04_08h42.15.856,task,2021.1.4,MacIntel,71.42857143,628b806c463b948bc644b84f,629afeb740a35d9e9bd50cdf,,,,,,,,,,X V Q F H G B L J M P D K C T S W R N Z,,,,,,,,,,,,,,,,,,,,,,,,,,,,,,,,,,,,,,,,,,,,,,,,,,,0,0,0,0,1,,,,,,,,,,,,,,,,,,,,,,,,,,,,,,,,,,,,,,
,,,,,,,,,,5e8249e7cee0da961f8f08f5,23,Kobieta,2022-06-04_08h42.15.856,task,2021.1.4,MacIntel,71.42857143,628b806c463b948bc644b84f,629afeb740a35d9e9bd50cdf,,,,,,,,,,,,,,,,,,,,,,,6,,,,,,,,,,Practice,7,(25/5) + 1,6,,,,,,,,,,,,,,,,"[""6""]",1,[2.080000000000041],1,0,0,0,6,1,,,,,,,,,,,,,,,,,,,,,,,,,,,,,,,,,,,,,,,,,,,
,,,,,,,,,,5e8249e7cee0da961f8f08f5,23,Kobieta,2022-06-04_08h42.15.856,task,2021.1.4,MacIntel,71.42857143,628b806c463b948bc644b84f,629afeb740a35d9e9bd50cdf,,,,,,,,,,X V Q F H G B L J M P D K C T S W R N Z,,,,,,,,,,,,,,,,,,,,,,,,,,,,,,,,,,,,,,,,,,,,,,,,,,,1,0,1,0,1,,,,,,,,,,,,,,,,,,,,,,,,,,,,,,,,,,,,,,
,,,,,,,,,,5e8249e7cee0da961f8f08f5,23,Kobieta,2022-06-04_08h42.15.856,task,2021.1.4,MacIntel,71.42857143,628b806c463b948bc644b84f,629afeb740a35d9e9bd50cdf,,,,,,,,,,,,,,,,,,,,,,,,,,,,,,,,,,,,,,,,,,,,,,,,,,,,,,,,,,,,,,,,,,qx,"[""q"",""x""]",0,"[2.1100000000000136,2.377999999999929,2.937999999999988]",0,2,0,2,0,1,,,,,,,,,,,,,,,,,,,,,,,,,,,,
,,,,,,,,,,5e8249e7cee0da961f8f08f5,23,Kobieta,2022-06-04_08h42.15.856,task,2021.1.4,MacIntel,71.42857143,628b806c463b948bc644b84f,629afeb740a35d9e9bd50cdf,,,,,,,,,,,,,,,,,,,,,,,5,,,,,,,,,,Practice,6,(4/2) + 3,5,,,,,,,,,,,,,,,,"[""5""]",1,[3.01400000000001],1,0,0,0,5,1,,,,,,,,,,,,,,,,,,,,,,,,,,,,,,,,,,,,,,,,,,,
,,,,,,,,,,5e8249e7cee0da961f8f08f5,23,Kobieta,2022-06-04_08h42.15.856,task,2021.1.4,MacIntel,71.42857143,628b806c463b948bc644b84f,629afeb740a35d9e9bd50cdf,,,,,,,,,,X V Q F H G B L J M P D K C T S W R N Z,,,,,,,,,,,,,,,,,,,,,,,,,,,,,,,,,,,,,,,,,,,,,,,,,,,0,0,0,0,1,,,,,,,,,,,,,,,,,,,,,,,,,,,,,,,,,,,,,,
,,,,,,,,,,5e8249e7cee0da961f8f08f5,23,Kobieta,2022-06-04_08h42.15.856,task,2021.1.4,MacIntel,71.42857143,628b806c463b948bc644b84f,629afeb740a35d9e9bd50cdf,,,,,,,,,,,,,,,,,,,,,,,7,,,,,,,,,,Practice,8,(5x5) - 18,7,,,,,,,,,,,,,,,,"[""7""]",1,[3.9629999999999654],1,0,0,0,7,1,,,,,,,,,,,,,,,,,,,,,,,,,,,,,,,,,,,,,,,,,,,
,,,,,,,,,,5e8249e7cee0da961f8f08f5,23,Kobieta,2022-06-04_08h42.15.856,task,2021.1.4,MacIntel,71.42857143,628b806c463b948bc644b84f,629afeb740a35d9e9bd50cdf,,,,,,,,,,X V Q F H G B L J M P D K C T S W R N Z,,,,,,,,,,,,,,,,,,,,,,,,,,,,,,,,,,,,,,,,,,,,,,,,,,,1,0,1,0,1,,,,,,,,,,,,,,,,,,,,,,,,,,,,,,,,,,,,,,
,,,,,,,,,,5e8249e7cee0da961f8f08f5,23,Kobieta,2022-06-04_08h42.15.856,task,2021.1.4,MacIntel,71.42857143,628b806c463b948bc644b84f,629afeb740a35d9e9bd50cdf,,,,,,,,,,,,,,,,,,,,,,,,,,,,,,,,,,,,,,,,,,,,,,,,,,,,,,,,,,,,,,,,,,jb,"[""j"",""b""]",0,"[1.6319999999999482,1.8310000000000173,2.149000000000001]",1,3,0,3,0,1,,,,,,,,,,,,,,,,,,,,,,,,,,,,
,,,,,,,,,,5e8249e7cee0da961f8f08f5,23,Kobieta,2022-06-04_08h42.15.856,task,2021.1.4,MacIntel,71.42857143,628b806c463b948bc644b84f,629afeb740a35d9e9bd50cdf,,,,,,,,,,,,,,,,,,,,,,,9,,,,,,,,,,Practice,10,(20/2) - 1,9,,,,,,,,,,,,,,,,"[""9""]",1,[1.572999999999979],1,0,0,0,9,1,,,,,,,,,,,,,,,,,,,,,,,,,,,,,,,,,,,,,,,,,,,
,,,,,,,,,,5e8249e7cee0da961f8f08f5,23,Kobieta,2022-06-04_08h42.15.856,task,2021.1.4,MacIntel,71.42857143,628b806c463b948bc644b84f,629afeb740a35d9e9bd50cdf,,,,,,,,,,X V Q F H G B L J M P D K C T S W R N Z,,,,,,,,,,,,,,,,,,,,,,,,,,,,,,,,,,,,,,,,,,,,,,,,,,,0,0,0,0,1,,,,,,,,,,,,,,,,,,,,,,,,,,,,,,,,,,,,,,
,,,,,,,,,,5e8249e7cee0da961f8f08f5,23,Kobieta,2022-06-04_08h42.15.856,task,2021.1.4,MacIntel,71.42857143,628b806c463b948bc644b84f,629afeb740a35d9e9bd50cdf,,,,,,,,,,,,,,,,,,,,,,,5,,,,,,,,,,Practice,6,(4/2) + 3,5,,,,,,,,,,,,,,,,"[""5""]",1,[1.9809999999999945],1,0,0,0,5,1,,,,,,,,,,,,,,,,,,,,,,,,,,,,,,,,,,,,,,,,,,,
,,,,,,,,,,5e8249e7cee0da961f8f08f5,23,Kobieta,2022-06-04_08h42.15.856,task,2021.1.4,MacIntel,71.42857143,628b806c463b948bc644b84f,629afeb740a35d9e9bd50cdf,,,,,,,,,,X V Q F H G B L J M P D K C T S W R N Z,,,,,,,,,,,,,,,,,,,,,,,,,,,,,,,,,,,,,,,,,,,,,,,,,,,1,0,1,0,1,,,,,,,,,,,,,,,,,,,,,,,,,,,,,,,,,,,,,,
,,,,,,,,,,5e8249e7cee0da961f8f08f5,23,Kobieta,2022-06-04_08h42.15.856,task,2021.1.4,MacIntel,71.42857143,628b806c463b948bc644b84f,629afeb740a35d9e9bd50cdf,,,,,,,,,,,,,,,,,,,,,,,,,,,,,,,,,,,,,,,,,,,,,,,,,,,,,,,,,,,,,,,,,,hf,"[""h"",""f""]",0,"[2.5519999999999072,2.7519999999999527,3.2369999999999663]",1,4,0,4,0,1,,,,,,,,,,,,,,,,,,,,,,,,,,,,
,,,,,,,,,,5e8249e7cee0da961f8f08f5,23,Kobieta,2022-06-04_08h42.15.856,task,2021.1.4,MacIntel,71.42857143,628b806c463b948bc644b84f,629afeb740a35d9e9bd50cdf,,,,,,,,,,,,,,,,,,,,,,,5,,,,,,,,,,Practice,6,(4/2) + 3,5,,,,,,,,,,,,,,,,"[""5""]",1,[1.5439999999999827],1,0,0,0,5,1,,,,,,,,,,,,,,,,,,,,,,,,,,,,,,,,,,,,,,,,,,,
,,,,,,,,,,5e8249e7cee0da961f8f08f5,23,Kobieta,2022-06-04_08h42.15.856,task,2021.1.4,MacIntel,71.42857143,628b806c463b948bc644b84f,629afeb740a35d9e9bd50cdf,,,,,,,,,,X V Q F H G B L J M P D K C T S W R N Z,,,,,,,,,,,,,,,,,,,,,,,,,,,,,,,,,,,,,,,,,,,,,,,,,,,0,0,0,0,1,,,,,,,,,,,,,,,,,,,,,,,,,,,,,,,,,,,,,,
,,,,,,,,,,5e8249e7cee0da961f8f08f5,23,Kobieta,2022-06-04_08h42.15.856,task,2021.1.4,MacIntel,71.42857143,628b806c463b948bc644b84f,629afeb740a35d9e9bd50cdf,,,,,,,,,,,,,,,,,,,,,,,6,,,,,,,,,,Practice,7,(25/5) + 1,6,,,,,,,,,,,,,,,,"[""6""]",1,[1.7140000000000555],1,0,0,0,6,1,,,,,,,,,,,,,,,,,,,,,,,,,,,,,,,,,,,,,,,,,,,
,,,,,,,,,,5e8249e7cee0da961f8f08f5,23,Kobieta,2022-06-04_08h42.15.856,task,2021.1.4,MacIntel,71.42857143,628b806c463b948bc644b84f,629afeb740a35d9e9bd50cdf,,,,,,,,,,X V Q F H G B L J M P D K C T S W R N Z,,,,,,,,,,,,,,,,,,,,,,,,,,,,,,,,,,,,,,,,,,,,,,,,,,,1,0,1,0,1,,,,,,,,,,,,,,,,,,,,,,,,,,,,,,,,,,,,,,
,,,,,,,,,,5e8249e7cee0da961f8f08f5,23,Kobieta,2022-06-04_08h42.15.856,task,2021.1.4,MacIntel,71.42857143,628b806c463b948bc644b84f,629afeb740a35d9e9bd50cdf,,,,,,,,,,,,,,,,,,,,,,,,,,,,,,,,,,,,,,,,,,,,,,,,,,,,,,,,,,,,,,,,,,ft,"[""f"",""t""]",0,"[2.516999999999939,2.7129999999999654,3.1769999999999072]",1,5,0,5,0,1,,,,,,,,,,,,,,,,,,,,,,,,,,,,
,,,,,,,,,,5e8249e7cee0da961f8f08f5,23,Kobieta,2022-06-04_08h42.15.856,task,2021.1.4,MacIntel,71.42857143,628b806c463b948bc644b84f,629afeb740a35d9e9bd50cdf,,,,,,,,,,,,,,,,,,,,,,,4,,,,,,,,,,Task,28,(2x5) - 6,4,,,,,,,,,,,,,,,,,,,1,,,,,,,,,,,,,,,,,,,,,space,9.774,"[""4""]",1,[2.419999999999959],0,0,0,27,1,,,,,,,,,,,,,,,,,,
,,,,,,,,,,5e8249e7cee0da961f8f08f5,23,Kobieta,2022-06-04_08h42.15.856,task,2021.1.4,MacIntel,71.42857143,628b806c463b948bc644b84f,629afeb740a35d9e9bd50cdf,,,,,,,,,,X V Q F H G B L J M P D K C T S W R N Z,,,,,,,,,,,,,,,,,,,,,,,,,,,,,,,,,,,,,,,,,,,,,,,,,,,,,,,,,,,,,,,,,,,,,,,,,,,,0,0,0,0,1,,,,,,,,,,,,,
,,,,,,,,,,5e8249e7cee0da961f8f08f5,23,Kobieta,2022-06-04_08h42.15.856,task,2021.1.4,MacIntel,71.42857143,628b806c463b948bc644b84f,629afeb740a35d9e9bd50cdf,,,,,,,,,,,,,,,,,,,,,,,,,,,,,,,,,Task,7,(3x7) - 12,9,,,,,,,,,,,,,,,,,,,0,,,,,,,,,,,,,,,,,,,,,,,,0,,0,0,0,6,1,,,,,,,,,,,,,,,,,,
,,,,,,,,,,5e8249e7cee0da961f8f08f5,23,Kobieta,2022-06-04_08h42.15.856,task,2021.1.4,MacIntel,71.42857143,628b806c463b948bc644b84f,629afeb740a35d9e9bd50cdf,,,,,,,,,,,,,,,,,,,,,,,8,,,,,,,,,,Task,23,(2x3) + 2,8,,,,,,,,,,,,,,,,,,,1,,,,,,,,,,,,,,,,,,,,,,,"[""8""]",1,[2.490000000000009],0,1,1,22,1,,,,,,,,,,,,,,,,,,
,,,,,,,,,,5e8249e7cee0da961f8f08f5,23,Kobieta,2022-06-04_08h42.15.856,task,2021.1.4,MacIntel,71.42857143,628b806c463b948bc644b84f,629afeb740a35d9e9bd50cdf,,,,,,,,,,X V Q F H G B L J M P D K C T S W R N Z,,,,,,,,,,,,,,,,,,,,,,,,,,,,,,,,,,,,,,,,,,,,,,,,,,,,,,,,,,,,,,,,,,,,,,,,,,,,1,0,1,0,1,,,,,,,,,,,,,
,,,,,,,,,,5e8249e7cee0da961f8f08f5,23,Kobieta,2022-06-04_08h42.15.856,task,2021.1.4,MacIntel,71.42857143,628b806c463b948bc644b84f,629afeb740a35d9e9bd50cdf,,,,,,,,,,,,,,,,,,,,,,,,,,,,,,,,,,,,,,,,,,,,,,,,,,,,,,,,,,,,,,,,,,,,,,,,,,,,,,,,,,,,,,,,,,,zj,"[""z"",""j""]",0,"[3.6929999999999836,3.9969999999999573,4.678999999999974]",1,ZJ,0,0,0,0,1,,
,,,,,,,,,,5e8249e7cee0da961f8f08f5,23,Kobieta,2022-06-04_08h42.15.856,task,2021.1.4,MacIntel,71.42857143,628b806c463b948bc644b84f,629afeb740a35d9e9bd50cdf,,,,,,,,,,,,,,,,,,,,,,,8,,,,,,,,,,Task,23,(2x3) + 2,8,,,,,,,,,,,,,,,,,,,1,,,,,,,,,,,,,,,,,,,,,,,"[""8""]",1,[1.6680000000000064],0,0,0,22,1,,,,,,,,,,,,,,,,,,
,,,,,,,,,,5e8249e7cee0da961f8f08f5,23,Kobieta,2022-06-04_08h42.15.856,task,2021.1.4,MacIntel,71.42857143,628b806c463b948bc644b84f,629afeb740a35d9e9bd50cdf,,,,,,,,,,X V Q F H G B L J M P D K C T S W R N Z,,,,,,,,,,,,,,,,,,,,,,,,,,,,,,,,,,,,,,,,,,,,,,,,,,,,,,,,,,,,,,,,,,,,,,,,,,,,0,0,0,0,1,,,,,,,,,,,,,
,,,,,,,,,,5e8249e7cee0da961f8f08f5,23,Kobieta,2022-06-04_08h42.15.856,task,2021.1.4,MacIntel,71.42857143,628b806c463b948bc644b84f,629afeb740a35d9e9bd50cdf,,,,,,,,,,,,,,,,,,,,,,,1,,,,,,,,,,Task,18,(16/4) - 3,1,,,,,,,,,,,,,,,,,,,1,,,,,,,,,,,,,,,,,,,,,,,"[""1""]",1,[2.897999999999911],0,0,0,17,1,,,,,,,,,,,,,,,,,,
,,,,,,,,,,5e8249e7cee0da961f8f08f5,23,Kobieta,2022-06-04_08h42.15.856,task,2021.1.4,MacIntel,71.42857143,628b806c463b948bc644b84f,629afeb740a35d9e9bd50cdf,,,,,,,,,,X V Q F H G B L J M P D K C T S W R N Z,,,,,,,,,,,,,,,,,,,,,,,,,,,,,,,,,,,,,,,,,,,,,,,,,,,,,,,,,,,,,,,,,,,,,,,,,,,,1,0,1,0,1,,,,,,,,,,,,,
,,,,,,,,,,5e8249e7cee0da961f8f08f5,23,Kobieta,2022-06-04_08h42.15.856,task,2021.1.4,MacIntel,71.42857143,628b806c463b948bc644b84f,629afeb740a35d9e9bd50cdf,,,,,,,,,,,,,,,,,,,,,,,6,,,,,,,,,,Task,30,(6/3) + 4 ,6,,,,,,,,,,,,,,,,,,,1,,,,,,,,,,,,,,,,,,,,,,,"[""6""]",1,[3.5810000000000173],0,0,0,29,1,,,,,,,,,,,,,,,,,,
,,,,,,,,,,5e8249e7cee0da961f8f08f5,23,Kobieta,2022-06-04_08h42.15.856,task,2021.1.4,MacIntel,71.42857143,628b806c463b948bc644b84f,629afeb740a35d9e9bd50cdf,,,,,,,,,,X V Q F H G B L J M P D K C T S W R N Z,,,,,,,,,,,,,,,,,,,,,,,,,,,,,,,,,,,,,,,,,,,,,,,,,,,,,,,,,,,,,,,,,,,,,,,,,,,,2,0,2,0,1,,,,,,,,,,,,,
,,,,,,,,,,5e8249e7cee0da961f8f08f5,23,Kobieta,2022-06-04_08h42.15.856,task,2021.1.4,MacIntel,71.42857143,628b806c463b948bc644b84f,629afeb740a35d9e9bd50cdf,,,,,,,,,,,,,,,,,,,,,,,,,,,,,,,,,,,,,,,,,,,,,,,,,,,,,,,,,,,,,,,,,,,,,,,,,,,,,,,,,,,,,,,,,,,mcz,"[""m"",""c"",""z""]",0,"[1.2019999999999982,1.586999999999989,1.7830000000000155,2.08299999999997]",1,MCZ,1,0,1,0,1,,
,,,,,,,,,,5e8249e7cee0da961f8f08f5,23,Kobieta,2022-06-04_08h42.15.856,task,2021.1.4,MacIntel,71.42857143,628b806c463b948bc644b84f,629afeb740a35d9e9bd50cdf,,,,,,,,,,,,,,,,,,,,,,,8,,,,,,,,,,Task,39,(5x3) - 7,8,,,,,,,,,,,,,,,,,,,1,,,,,,,,,,,,,,,,,,,,,,,"[""8""]",1,[3.7789999999999964],0,0,0,38,1,,,,,,,,,,,,,,,,,,
,,,,,,,,,,5e8249e7cee0da961f8f08f5,23,Kobieta,2022-06-04_08h42.15.856,task,2021.1.4,MacIntel,71.42857143,628b806c463b948bc644b84f,629afeb740a35d9e9bd50cdf,,,,,,,,,,X V Q F H G B L J M P D K C T S W R N Z,,,,,,,,,,,,,,,,,,,,,,,,,,,,,,,,,,,,,,,,,,,,,,,,,,,,,,,,,,,,,,,,,,,,,,,,,,,,0,0,0,0,1,,,,,,,,,,,,,
,,,,,,,,,,5e8249e7cee0da961f8f08f5,23,Kobieta,2022-06-04_08h42.15.856,task,2021.1.4,MacIntel,71.42857143,628b806c463b948bc644b84f,629afeb740a35d9e9bd50cdf,,,,,,,,,,,,,,,,,,,,,,,5,,,,,,,,,,Task,12,(4x4) - 11,5,,,,,,,,,,,,,,,,,,,1,,,,,,,,,,,,,,,,,,,,,,,"[""5""]",1,[2.6680000000000064],0,0,0,11,1,,,,,,,,,,,,,,,,,,
,,,,,,,,,,5e8249e7cee0da961f8f08f5,23,Kobieta,2022-06-04_08h42.15.856,task,2021.1.4,MacIntel,71.42857143,628b806c463b948bc644b84f,629afeb740a35d9e9bd50cdf,,,,,,,,,,X V Q F H G B L J M P D K C T S W R N Z,,,,,,,,,,,,,,,,,,,,,,,,,,,,,,,,,,,,,,,,,,,,,,,,,,,,,,,,,,,,,,,,,,,,,,,,,,,,1,0,1,0,1,,,,,,,,,,,,,
,,,,,,,,,,5e8249e7cee0da961f8f08f5,23,Kobieta,2022-06-04_08h42.15.856,task,2021.1.4,MacIntel,71.42857143,628b806c463b948bc644b84f,629afeb740a35d9e9bd50cdf,,,,,,,,,,,,,,,,,,,,,,,0,,,,,,,,,,Task,17,(2x3) - 6,0,,,,,,,,,,,,,,,,,,,1,,,,,,,,,,,,,,,,,,,,,,,"[""0""]",1,[1.2129999999999654],0,0,0,16,1,,,,,,,,,,,,,,,,,,
,,,,,,,,,,5e8249e7cee0da961f8f08f5,23,Kobieta,2022-06-04_08h42.15.856,task,2021.1.4,MacIntel,71.42857143,628b806c463b948bc644b84f,629afeb740a35d9e9bd50cdf,,,,,,,,,,X V Q F H G B L J M P D K C T S W R N Z,,,,,,,,,,,,,,,,,,,,,,,,,,,,,,,,,,,,,,,,,,,,,,,,,,,,,,,,,,,,,,,,,,,,,,,,,,,,2,0,2,0,1,,,,,,,,,,,,,
,,,,,,,,,,5e8249e7cee0da961f8f08f5,23,Kobieta,2022-06-04_08h42.15.856,task,2021.1.4,MacIntel,71.42857143,628b806c463b948bc644b84f,629afeb740a35d9e9bd50cdf,,,,,,,,,,,,,,,,,,,,,,,4,,,,,,,,,,Task,28,(2x5) - 6,4,,,,,,,,,,,,,,,,,,,1,,,,,,,,,,,,,,,,,,,,,,,"[""4""]",1,[2.5149999999999864],0,0,0,27,1,,,,,,,,,,,,,,,,,,
,,,,,,,,,,5e8249e7cee0da961f8f08f5,23,Kobieta,2022-06-04_08h42.15.856,task,2021.1.4,MacIntel,71.42857143,628b806c463b948bc644b84f,629afeb740a35d9e9bd50cdf,,,,,,,,,,X V Q F H G B L J M P D K C T S W R N Z,,,,,,,,,,,,,,,,,,,,,,,,,,,,,,,,,,,,,,,,,,,,,,,,,,,,,,,,,,,,,,,,,,,,,,,,,,,,3,0,3,0,1,,,,,,,,,,,,,
,,,,,,,,,,5e8249e7cee0da961f8f08f5,23,Kobieta,2022-06-04_08h42.15.856,task,2021.1.4,MacIntel,71.42857143,628b806c463b948bc644b84f,629afeb740a35d9e9bd50cdf,,,,,,,,,,,,,,,,,,,,,,,,,,,,,,,,,,,,,,,,,,,,,,,,,,,,,,,,,,,,,,,,,,,,,,,,,,,,,,,,,,,,,,,,,,,xzfb,"[""x"",""z"",""f"",""b""]",0,"[2.36099999999999,3.0550000000000637,3.469000000000051,3.730000000000018,4.196000000000026]",1,XZFB,2,0,2,0,1,,
,,,,,,,,,,5e8249e7cee0da961f8f08f5,23,Kobieta,2022-06-04_08h42.15.856,task,2021.1.4,MacIntel,71.42857143,628b806c463b948bc644b84f,629afeb740a35d9e9bd50cdf,,,,,,,,,,,,,,,,,,,,,,,3,,,,,,,,,,Task,35,(1x2) + 1,3,,,,,,,,,,,,,,,,,,,1,,,,,,,,,,,,,,,,,,,,,,,"[""3""]",1,[1.9359999999999218],0,0,0,34,1,,,,,,,,,,,,,,,,,,
,,,,,,,,,,5e8249e7cee0da961f8f08f5,23,Kobieta,2022-06-04_08h42.15.856,task,2021.1.4,MacIntel,71.42857143,628b806c463b948bc644b84f,629afeb740a35d9e9bd50cdf,,,,,,,,,,X V Q F H G B L J M P D K C T S W R N Z,,,,,,,,,,,,,,,,,,,,,,,,,,,,,,,,,,,,,,,,,,,,,,,,,,,,,,,,,,,,,,,,,,,,,,,,,,,,0,0,0,0,1,,,,,,,,,,,,,
,,,,,,,,,,5e8249e7cee0da961f8f08f5,23,Kobieta,2022-06-04_08h42.15.856,task,2021.1.4,MacIntel,71.42857143,628b806c463b948bc644b84f,629afeb740a35d9e9bd50cdf,,,,,,,,,,,,,,,,,,,,,,,7,,,,,,,,,,Task,11,(18/3) - 2,4,,,,,,,,,,,,,,,,,,,0,,,,,,,,,,,,,,,,,,,,,,,"[""7""]",0,[2.625],0,0,0,10,1,,,,,,,,,,,,,,,,,,
,,,,,,,,,,5e8249e7cee0da961f8f08f5,23,Kobieta,2022-06-04_08h42.15.856,task,2021.1.4,MacIntel,71.42857143,628b806c463b948bc644b84f,629afeb740a35d9e9bd50cdf,,,,,,,,,,,,,,,,,,,,,,,9,,,,,,,,,,Task,7,(3x7) - 12,9,,,,,,,,,,,,,,,,,,,1,,,,,,,,,,,,,,,,,,,,,,,"[""9""]",1,[4.7299999999999045],0,1,1,6,1,,,,,,,,,,,,,,,,,,
,,,,,,,,,,5e8249e7cee0da961f8f08f5,23,Kobieta,2022-06-04_08h42.15.856,task,2021.1.4,MacIntel,71.42857143,628b806c463b948bc644b84f,629afeb740a35d9e9bd50cdf,,,,,,,,,,X V Q F H G B L J M P D K C T S W R N Z,,,,,,,,,,,,,,,,,,,,,,,,,,,,,,,,,,,,,,,,,,,,,,,,,,,,,,,,,,,,,,,,,,,,,,,,,,,,1,0,1,0,1,,,,,,,,,,,,,
,,,,,,,,,,5e8249e7cee0da961f8f08f5,23,Kobieta,2022-06-04_08h42.15.856,task,2021.1.4,MacIntel,71.42857143,628b806c463b948bc644b84f,629afeb740a35d9e9bd50cdf,,,,,,,,,,,,,,,,,,,,,,,9,,,,,,,,,,Task,40,(7x2) - 5,9,,,,,,,,,,,,,,,,,,,1,,,,,,,,,,,,,,,,,,,,,,,"[""9""]",1,[3.7830000000000155],0,0,0,39,1,,,,,,,,,,,,,,,,,,
,,,,,,,,,,5e8249e7cee0da961f8f08f5,23,Kobieta,2022-06-04_08h42.15.856,task,2021.1.4,MacIntel,71.42857143,628b806c463b948bc644b84f,629afeb740a35d9e9bd50cdf,,,,,,,,,,X V Q F H G B L J M P D K C T S W R N Z,,,,,,,,,,,,,,,,,,,,,,,,,,,,,,,,,,,,,,,,,,,,,,,,,,,,,,,,,,,,,,,,,,,,,,,,,,,,2,0,2,0,1,,,,,,,,,,,,,
,,,,,,,,,,5e8249e7cee0da961f8f08f5,23,Kobieta,2022-06-04_08h42.15.856,task,2021.1.4,MacIntel,71.42857143,628b806c463b948bc644b84f,629afeb740a35d9e9bd50cdf,,,,,,,,,,,,,,,,,,,,,,,0,,,,,,,,,,Task,17,(2x3) - 6,0,,,,,,,,,,,,,,,,,,,1,,,,,,,,,,,,,,,,,,,,,,,"[""0""]",1,[2.0319999999998117],0,0,0,16,1,,,,,,,,,,,,,,,,,,
,,,,,,,,,,5e8249e7cee0da961f8f08f5,23,Kobieta,2022-06-04_08h42.15.856,task,2021.1.4,MacIntel,71.42857143,628b806c463b948bc644b84f,629afeb740a35d9e9bd50cdf,,,,,,,,,,X V Q F H G B L J M P D K C T S W R N Z,,,,,,,,,,,,,,,,,,,,,,,,,,,,,,,,,,,,,,,,,,,,,,,,,,,,,,,,,,,,,,,,,,,,,,,,,,,,3,0,3,0,1,,,,,,,,,,,,,
,,,,,,,,,,5e8249e7cee0da961f8f08f5,23,Kobieta,2022-06-04_08h42.15.856,task,2021.1.4,MacIntel,71.42857143,628b806c463b948bc644b84f,629afeb740a35d9e9bd50cdf,,,,,,,,,,,,,,,,,,,,,,,4,,,,,,,,,,Task,4,(1x5) - 1,4,,,,,,,,,,,,,,,,,,,1,,,,,,,,,,,,,,,,,,,,,,,"[""4""]",1,[1.8880000000000337],0,0,0,3,1,,,,,,,,,,,,,,,,,,
,,,,,,,,,,5e8249e7cee0da961f8f08f5,23,Kobieta,2022-06-04_08h42.15.856,task,2021.1.4,MacIntel,71.42857143,628b806c463b948bc644b84f,629afeb740a35d9e9bd50cdf,,,,,,,,,,X V Q F H G B L J M P D K C T S W R N Z,,,,,,,,,,,,,,,,,,,,,,,,,,,,,,,,,,,,,,,,,,,,,,,,,,,,,,,,,,,,,,,,,,,,,,,,,,,,4,0,4,0,1,,,,,,,,,,,,,
,,,,,,,,,,5e8249e7cee0da961f8f08f5,23,Kobieta,2022-06-04_08h42.15.856,task,2021.1.4,MacIntel,71.42857143,628b806c463b948bc644b84f,629afeb740a35d9e9bd50cdf,,,,,,,,,,,,,,,,,,,,,,,,,,,,,,,,,,,,,,,,,,,,,,,,,,,,,,,,,,,,,,,,,,,,,,,,,,,,,,,,,,,,,,,,,,,jmqxj,"[""j"",""m"",""q"",""x"",""j""]",0,"[4.215000000000032,4.798000000000002,6.032000000000039,6.718000000000075,7.535000000000082,7.875]",0,MFQXJ,3,0,3,0,1,,
,,,,,,,,,,5e8249e7cee0da961f8f08f5,23,Kobieta,2022-06-04_08h42.15.856,task,2021.1.4,MacIntel,71.42857143,628b806c463b948bc644b84f,629afeb740a35d9e9bd50cdf,,,,,,,,,,,,,,,,,,,,,,,0,,,,,,,,,,Task,33,(1/1) - 1,0,,,,,,,,,,,,,,,,,,,1,,,,,,,,,,,,,,,,,,,,,,,"[""0""]",1,[1.2839999999999918],0,0,0,32,1,,,,,,,,,,,,,,,,,,
,,,,,,,,,,5e8249e7cee0da961f8f08f5,23,Kobieta,2022-06-04_08h42.15.856,task,2021.1.4,MacIntel,71.42857143,628b806c463b948bc644b84f,629afeb740a35d9e9bd50cdf,,,,,,,,,,X V Q F H G B L J M P D K C T S W R N Z,,,,,,,,,,,,,,,,,,,,,,,,,,,,,,,,,,,,,,,,,,,,,,,,,,,,,,,,,,,,,,,,,,,,,,,,,,,,0,0,0,0,1,,,,,,,,,,,,,
,,,,,,,,,,5e8249e7cee0da961f8f08f5,23,Kobieta,2022-06-04_08h42.15.856,task,2021.1.4,MacIntel,71.42857143,628b806c463b948bc644b84f,629afeb740a35d9e9bd50cdf,,,,,,,,,,,,,,,,,,,,,,,2,,,,,,,,,,Task,29,(3x8) - 19 ,5,,,,,,,,,,,,,,,,,,,0,,,,,,,,,,,,,,,,,,,,,,,"[""2""]",0,[2.7799999999999727],0,0,0,28,1,,,,,,,,,,,,,,,,,,
,,,,,,,,,,5e8249e7cee0da961f8f08f5,23,Kobieta,2022-06-04_08h42.15.856,task,2021.1.4,MacIntel,71.42857143,628b806c463b948bc644b84f,629afeb740a35d9e9bd50cdf,,,,,,,,,,,,,,,,,,,,,,,5,,,,,,,,,,Task,12,(4x4) - 11,5,,,,,,,,,,,,,,,,,,,1,,,,,,,,,,,,,,,,,,,,,,,"[""5""]",1,[1.7980000000000018],0,1,1,11,1,,,,,,,,,,,,,,,,,,
,,,,,,,,,,5e8249e7cee0da961f8f08f5,23,Kobieta,2022-06-04_08h42.15.856,task,2021.1.4,MacIntel,71.42857143,628b806c463b948bc644b84f,629afeb740a35d9e9bd50cdf,,,,,,,,,,X V Q F H G B L J M P D K C T S W R N Z,,,,,,,,,,,,,,,,,,,,,,,,,,,,,,,,,,,,,,,,,,,,,,,,,,,,,,,,,,,,,,,,,,,,,,,,,,,,1,0,1,0,1,,,,,,,,,,,,,
,,,,,,,,,,5e8249e7cee0da961f8f08f5,23,Kobieta,2022-06-04_08h42.15.856,task,2021.1.4,MacIntel,71.42857143,628b806c463b948bc644b84f,629afeb740a35d9e9bd50cdf,,,,,,,,,,,,,,,,,,,,,,,2,,,,,,,,,,Task,2,(2x2) - 2,2,,,,,,,,,,,,,,,,,,,1,,,,,,,,,,,,,,,,,,,,,,,"[""2""]",1,[2.7749999999999773],0,0,0,1,1,,,,,,,,,,,,,,,,,,
,,,,,,,,,,5e8249e7cee0da961f8f08f5,23,Kobieta,2022-06-04_08h42.15.856,task,2021.1.4,MacIntel,71.42857143,628b806c463b948bc644b84f,629afeb740a35d9e9bd50cdf,,,,,,,,,,X V Q F H G B L J M P D K C T S W R N Z,,,,,,,,,,,,,,,,,,,,,,,,,,,,,,,,,,,,,,,,,,,,,,,,,,,,,,,,,,,,,,,,,,,,,,,,,,,,2,0,2,0,1,,,,,,,,,,,,,
,,,,,,,,,,5e8249e7cee0da961f8f08f5,23,Kobieta,2022-06-04_08h42.15.856,task,2021.1.4,MacIntel,71.42857143,628b806c463b948bc644b84f,629afeb740a35d9e9bd50cdf,,,,,,,,,,,,,,,,,,,,,,,5,,,,,,,,,,Task,22,(3x1) + 2,5,,,,,,,,,,,,,,,,,,,1,,,,,,,,,,,,,,,,,,,,,,,"[""5""]",1,[2.97199999999998],0,0,0,21,1,,,,,,,,,,,,,,,,,,
,,,,,,,,,,5e8249e7cee0da961f8f08f5,23,Kobieta,2022-06-04_08h42.15.856,task,2021.1.4,MacIntel,71.42857143,628b806c463b948bc644b84f,629afeb740a35d9e9bd50cdf,,,,,,,,,,X V Q F H G B L J M P D K C T S W R N Z,,,,,,,,,,,,,,,,,,,,,,,,,,,,,,,,,,,,,,,,,,,,,,,,,,,,,,,,,,,,,,,,,,,,,,,,,,,,3,0,3,0,1,,,,,,,,,,,,,
,,,,,,,,,,5e8249e7cee0da961f8f08f5,23,Kobieta,2022-06-04_08h42.15.856,task,2021.1.4,MacIntel,71.42857143,628b806c463b948bc644b84f,629afeb740a35d9e9bd50cdf,,,,,,,,,,,,,,,,,,,,,,,5,,,,,,,,,,Task,36,(8/4) + 3,5,,,,,,,,,,,,,,,,,,,1,,,,,,,,,,,,,,,,,,,,,,,"[""5""]",1,[2.2129999999999654],0,0,0,35,1,,,,,,,,,,,,,,,,,,
,,,,,,,,,,5e8249e7cee0da961f8f08f5,23,Kobieta,2022-06-04_08h42.15.856,task,2021.1.4,MacIntel,71.42857143,628b806c463b948bc644b84f,629afeb740a35d9e9bd50cdf,,,,,,,,,,X V Q F H G B L J M P D K C T S W R N Z,,,,,,,,,,,,,,,,,,,,,,,,,,,,,,,,,,,,,,,,,,,,,,,,,,,,,,,,,,,,,,,,,,,,,,,,,,,,4,0,4,0,1,,,,,,,,,,,,,
,,,,,,,,,,5e8249e7cee0da961f8f08f5,23,Kobieta,2022-06-04_08h42.15.856,task,2021.1.4,MacIntel,71.42857143,628b806c463b948bc644b84f,629afeb740a35d9e9bd50cdf,,,,,,,,,,,,,,,,,,,,,,,,,,,,,,,,,,,,,,,,,,,,,,,,,,,,,,,,,,,,,,,,,,,,,,,,,,,,,,,,,,,,,,,,,,,hxnqt,"[""h"",""x"",""n"",""q"",""t""]",0,"[2.4799999999999045,2.9029999999999063,3.4559999999999036,3.911999999999921,4.1189999999999145,4.420999999999935]",1,HXNQT,4,0,4,0,1,,
,,,,,,,,,,5e8249e7cee0da961f8f08f5,23,Kobieta,2022-06-04_08h42.15.856,task,2021.1.4,MacIntel,71.42857143,628b806c463b948bc644b84f,629afeb740a35d9e9bd50cdf,,,,,,,,,,,,,,,,,,,,,,,9,,,,,,,,,,Task,7,(3x7) - 12,9,,,,,,,,,,,,,,,,,,,1,,,,,,,,,,,,,,,,,,,,,,,"[""9""]",1,[4.287999999999897],0,0,0,6,1,,,,,,,,,,,,,,,,,,
,,,,,,,,,,5e8249e7cee0da961f8f08f5,23,Kobieta,2022-06-04_08h42.15.856,task,2021.1.4,MacIntel,71.42857143,628b806c463b948bc644b84f,629afeb740a35d9e9bd50cdf,,,,,,,,,,X V Q F H G B L J M P D K C T S W R N Z,,,,,,,,,,,,,,,,,,,,,,,,,,,,,,,,,,,,,,,,,,,,,,,,,,,,,,,,,,,,,,,,,,,,,,,,,,,,0,0,0,0,1,,,,,,,,,,,,,
