key_resp_15.keys,key_resp_15.rt,key_resp_16.keys,key_resp_16.rt,key_resp_4.keys,key_resp_4.rt,next_letter.thisRepN,next_letter.thisTrialN,next_letter.thisN,next_letter.thisIndex,next_letter.ran,letter,participant,Wiek*,Płeć,date,expName,psychopyVersion,OS,frameRate,study_id,session,simple_recall,key_resp_5.keys,key_resp_5.rt,simple_recall_corr,simple_recall_corrkeys,next_level.thisRepN,next_level.thisTrialN,next_level.thisN,next_level.thisIndex,next_level.ran,key_resp_2.keys,key_resp_2.rt,digit_answer,key_resp.keys,key_resp.corr,key_resp.rt,RT_list,next_equation.thisRepN,next_equation.thisTrialN,next_equation.thisN,next_equation.thisIndex,next_equation.ran,Task,Trial,Problem,Operation_answer,processing_score,sumRT,meanRT,sumdiff,sd,RT,key_resp_3.keys,key_resp_3.rt,repeat_practice.thisRepN,repeat_practice.thisTrialN,repeat_practice.thisN,repeat_practice.thisIndex,repeat_practice.ran,key_resp_6.keys,key_resp_6.rt,key_resp_11.keys,key_resp_11.corr,key_resp_11.rt,operation_correct,repeat_if_wrong_prac.thisRepN,repeat_if_wrong_prac.thisTrialN,repeat_if_wrong_prac.thisN,repeat_if_wrong_prac.thisIndex,repeat_if_wrong_prac.ran,span_size_prac.thisRepN,span_size_prac.thisTrialN,span_size_prac.thisN,span_size_prac.thisIndex,span_size_prac.ran,complex_recall_practice,key_resp_9.keys,key_resp_9.corr,key_resp_9.rt,complex_prac_corr,span_recall_prac.thisRepN,span_recall_prac.thisTrialN,span_recall_prac.thisN,span_recall_prac.thisIndex,span_recall_prac.ran,key_resp_10.keys,key_resp_10.rt,key_resp_7.keys,key_resp_7.corr,key_resp_7.rt,repeat_if_wrong.thisRepN,repeat_if_wrong.thisTrialN,repeat_if_wrong.thisN,repeat_if_wrong.thisIndex,repeat_if_wrong.ran,span_size.thisRepN,span_size.thisTrialN,span_size.thisN,span_size.thisIndex,span_size.ran,complex_recall,key_resp_8.keys,key_resp_8.corr,key_resp_8.rt,complex_recall_corr,complex_recall_corrkeys,span_recall.thisRepN,span_recall.thisTrialN,span_recall.thisN,span_recall.thisIndex,span_recall.ran,key_resp_13.keys,key_resp_13.corr,key_resp_13.rt,random_loop.thisRepN,random_loop.thisTrialN,random_loop.thisN,random_loop.thisIndex,random_loop.ran,key_resp_12.keys,key_resp_12.rt
space,18.0683,space,14.9846,space,34.2513,0,0,0,0,1,X V Q F H G B L J M P D K C T S W R N Z,5e88d5111d250056d60a23f1,23,Mężczyzna,2022-06-11_09h19.36.229,task,2021.1.4,Win32,60.08532116,6299f149e92ead563fba08ef,62a441f7310d0b846e4ca07a,,,,,,,,,,,,,,,,,,,,,,,,,,,,,,,,,,,,,,,,,,,,,,,,,,,,,,,,,,,,,,,,,,,,,,,,,,,,,,,,,,,,,,,,,,,,,,,,,,,,,
,,,,,,1,0,1,0,1,X V Q F H G B L J M P D K C T S W R N Z,5e88d5111d250056d60a23f1,23,Mężczyzna,2022-06-11_09h19.36.229,task,2021.1.4,Win32,60.08532116,6299f149e92ead563fba08ef,62a441f7310d0b846e4ca07a,,,,,,,,,,,,,,,,,,,,,,,,,,,,,,,,,,,,,,,,,,,,,,,,,,,,,,,,,,,,,,,,,,,,,,,,,,,,,,,,,,,,,,,,,,,,,,,,,,,,,
,,,,,,,,,,,,5e88d5111d250056d60a23f1,23,Mężczyzna,2022-06-11_09h19.36.229,task,2021.1.4,Win32,60.08532116,6299f149e92ead563fba08ef,62a441f7310d0b846e4ca07a,zd,"[""z"",""d""]","[3.578100000001484,4.259699999995519,5.909699999995524]",1,ZD,0,0,0,0,1,,,,,,,,,,,,,,,,,,,,,,,,,,,,,,,,,,,,,,,,,,,,,,,,,,,,,,,,,,,,,,,,,,,,,,,,,,,,,,,,,,,,,,,,,,,
,,,,,,0,0,0,0,1,X V Q F H G B L J M P D K C T S W R N Z,5e88d5111d250056d60a23f1,23,Mężczyzna,2022-06-11_09h19.36.229,task,2021.1.4,Win32,60.08532116,6299f149e92ead563fba08ef,62a441f7310d0b846e4ca07a,,,,,,,,,,,,,,,,,,,,,,,,,,,,,,,,,,,,,,,,,,,,,,,,,,,,,,,,,,,,,,,,,,,,,,,,,,,,,,,,,,,,,,,,,,,,,,,,,,,,,
,,,,,,1,0,1,0,1,X V Q F H G B L J M P D K C T S W R N Z,5e88d5111d250056d60a23f1,23,Mężczyzna,2022-06-11_09h19.36.229,task,2021.1.4,Win32,60.08532116,6299f149e92ead563fba08ef,62a441f7310d0b846e4ca07a,,,,,,,,,,,,,,,,,,,,,,,,,,,,,,,,,,,,,,,,,,,,,,,,,,,,,,,,,,,,,,,,,,,,,,,,,,,,,,,,,,,,,,,,,,,,,,,,,,,,,
,,,,,,,,,,,,5e88d5111d250056d60a23f1,23,Mężczyzna,2022-06-11_09h19.36.229,task,2021.1.4,Win32,60.08532116,6299f149e92ead563fba08ef,62a441f7310d0b846e4ca07a,mh,"[""m"",""h""]","[3.6272000000029863,3.8588999999985134,5.517100000001491]",1,MH,1,0,1,0,1,,,,,,,,,,,,,,,,,,,,,,,,,,,,,,,,,,,,,,,,,,,,,,,,,,,,,,,,,,,,,,,,,,,,,,,,,,,,,,,,,,,,,,,,,,,
,,,,,,0,0,0,0,1,X V Q F H G B L J M P D K C T S W R N Z,5e88d5111d250056d60a23f1,23,Mężczyzna,2022-06-11_09h19.36.229,task,2021.1.4,Win32,60.08532116,6299f149e92ead563fba08ef,62a441f7310d0b846e4ca07a,,,,,,,,,,,,,,,,,,,,,,,,,,,,,,,,,,,,,,,,,,,,,,,,,,,,,,,,,,,,,,,,,,,,,,,,,,,,,,,,,,,,,,,,,,,,,,,,,,,,,
,,,,,,1,0,1,0,1,X V Q F H G B L J M P D K C T S W R N Z,5e88d5111d250056d60a23f1,23,Mężczyzna,2022-06-11_09h19.36.229,task,2021.1.4,Win32,60.08532116,6299f149e92ead563fba08ef,62a441f7310d0b846e4ca07a,,,,,,,,,,,,,,,,,,,,,,,,,,,,,,,,,,,,,,,,,,,,,,,,,,,,,,,,,,,,,,,,,,,,,,,,,,,,,,,,,,,,,,,,,,,,,,,,,,,,,
,,,,,,2,0,2,0,1,X V Q F H G B L J M P D K C T S W R N Z,5e88d5111d250056d60a23f1,23,Mężczyzna,2022-06-11_09h19.36.229,task,2021.1.4,Win32,60.08532116,6299f149e92ead563fba08ef,62a441f7310d0b846e4ca07a,,,,,,,,,,,,,,,,,,,,,,,,,,,,,,,,,,,,,,,,,,,,,,,,,,,,,,,,,,,,,,,,,,,,,,,,,,,,,,,,,,,,,,,,,,,,,,,,,,,,,
,,,,,,,,,,,,5e88d5111d250056d60a23f1,23,Mężczyzna,2022-06-11_09h19.36.229,task,2021.1.4,Win32,60.08532116,6299f149e92ead563fba08ef,62a441f7310d0b846e4ca07a,qzj,"[""q"",""z"",""j""]","[2.129499999999993,2.9133999999985036,3.9836999999955225,5.474699999995522]",1,QZJ,2,0,2,0,1,,,,,,,,,,,,,,,,,,,,,,,,,,,,,,,,,,,,,,,,,,,,,,,,,,,,,,,,,,,,,,,,,,,,,,,,,,,,,,,,,,,,,,,,,,,
,,,,,,0,0,0,0,1,X V Q F H G B L J M P D K C T S W R N Z,5e88d5111d250056d60a23f1,23,Mężczyzna,2022-06-11_09h19.36.229,task,2021.1.4,Win32,60.08532116,6299f149e92ead563fba08ef,62a441f7310d0b846e4ca07a,,,,,,,,,,,,,,,,,,,,,,,,,,,,,,,,,,,,,,,,,,,,,,,,,,,,,,,,,,,,,,,,,,,,,,,,,,,,,,,,,,,,,,,,,,,,,,,,,,,,,
,,,,,,1,0,1,0,1,X V Q F H G B L J M P D K C T S W R N Z,5e88d5111d250056d60a23f1,23,Mężczyzna,2022-06-11_09h19.36.229,task,2021.1.4,Win32,60.08532116,6299f149e92ead563fba08ef,62a441f7310d0b846e4ca07a,,,,,,,,,,,,,,,,,,,,,,,,,,,,,,,,,,,,,,,,,,,,,,,,,,,,,,,,,,,,,,,,,,,,,,,,,,,,,,,,,,,,,,,,,,,,,,,,,,,,,
,,,,,,2,0,2,0,1,X V Q F H G B L J M P D K C T S W R N Z,5e88d5111d250056d60a23f1,23,Mężczyzna,2022-06-11_09h19.36.229,task,2021.1.4,Win32,60.08532116,6299f149e92ead563fba08ef,62a441f7310d0b846e4ca07a,,,,,,,,,,,,,,,,,,,,,,,,,,,,,,,,,,,,,,,,,,,,,,,,,,,,,,,,,,,,,,,,,,,,,,,,,,,,,,,,,,,,,,,,,,,,,,,,,,,,,
,,,,,,,,,,,,5e88d5111d250056d60a23f1,23,Mężczyzna,2022-06-11_09h19.36.229,task,2021.1.4,Win32,60.08532116,6299f149e92ead563fba08ef,62a441f7310d0b846e4ca07a,xqj,"[""x"",""q"",""j""]","[4.545200000002993,4.889200000002987,5.61690000000597,6.689300000004479]",0,XQV,3,0,3,0,1,,,,,,,,,,,,,,,,,,,,,,,,,,,,,,,,,,,,,,,,,,,,,,,,,,,,,,,,,,,,,,,,,,,,,,,,,,,,,,,,,,,,,,,,,,,
,,,,,,0,0,0,0,1,X V Q F H G B L J M P D K C T S W R N Z,5e88d5111d250056d60a23f1,23,Mężczyzna,2022-06-11_09h19.36.229,task,2021.1.4,Win32,60.08532116,6299f149e92ead563fba08ef,62a441f7310d0b846e4ca07a,,,,,,,,,,,,,,,,,,,,,,,,,,,,,,,,,,,,,,,,,,,,,,,,,,,,,,,,,,,,,,,,,,,,,,,,,,,,,,,,,,,,,,,,,,,,,,,,,,,,,
,,,,,,1,0,1,0,1,X V Q F H G B L J M P D K C T S W R N Z,5e88d5111d250056d60a23f1,23,Mężczyzna,2022-06-11_09h19.36.229,task,2021.1.4,Win32,60.08532116,6299f149e92ead563fba08ef,62a441f7310d0b846e4ca07a,,,,,,,,,,,,,,,,,,,,,,,,,,,,,,,,,,,,,,,,,,,,,,,,,,,,,,,,,,,,,,,,,,,,,,,,,,,,,,,,,,,,,,,,,,,,,,,,,,,,,
,,,,,,2,0,2,0,1,X V Q F H G B L J M P D K C T S W R N Z,5e88d5111d250056d60a23f1,23,Mężczyzna,2022-06-11_09h19.36.229,task,2021.1.4,Win32,60.08532116,6299f149e92ead563fba08ef,62a441f7310d0b846e4ca07a,,,,,,,,,,,,,,,,,,,,,,,,,,,,,,,,,,,,,,,,,,,,,,,,,,,,,,,,,,,,,,,,,,,,,,,,,,,,,,,,,,,,,,,,,,,,,,,,,,,,,
,,,,,,,,,,,,5e88d5111d250056d60a23f1,23,Mężczyzna,2022-06-11_09h19.36.229,task,2021.1.4,Win32,60.08532116,6299f149e92ead563fba08ef,62a441f7310d0b846e4ca07a,tlg,"[""t"",""l"",""g""]","[1.3606000000014973,1.680700000002986,1.8965000000000032,22.667500000000032]",1,TLG,4,0,4,0,1,,,,,,,,,,,,,,,,,,,,,,,,,,,,,,,,,,,,,,,,,,,,,,,,,,,,,,,,,,,,,,,,,,,,,,,,,,,,,,,,,,,,,,,,,,,
,,,,,,0,0,0,0,1,X V Q F H G B L J M P D K C T S W R N Z,5e88d5111d250056d60a23f1,23,Mężczyzna,2022-06-11_09h19.36.229,task,2021.1.4,Win32,60.08532116,6299f149e92ead563fba08ef,62a441f7310d0b846e4ca07a,,,,,,,,,,,,,,,,,,,,,,,,,,,,,,,,,,,,,,,,,,,,,,,,,,,,,,,,,,,,,,,,,,,,,,,,,,,,,,,,,,,,,,,,,,,,,,,,,,,,,
,,,,,,1,0,1,0,1,X V Q F H G B L J M P D K C T S W R N Z,5e88d5111d250056d60a23f1,23,Mężczyzna,2022-06-11_09h19.36.229,task,2021.1.4,Win32,60.08532116,6299f149e92ead563fba08ef,62a441f7310d0b846e4ca07a,,,,,,,,,,,,,,,,,,,,,,,,,,,,,,,,,,,,,,,,,,,,,,,,,,,,,,,,,,,,,,,,,,,,,,,,,,,,,,,,,,,,,,,,,,,,,,,,,,,,,
,,,,,,2,0,2,0,1,X V Q F H G B L J M P D K C T S W R N Z,5e88d5111d250056d60a23f1,23,Mężczyzna,2022-06-11_09h19.36.229,task,2021.1.4,Win32,60.08532116,6299f149e92ead563fba08ef,62a441f7310d0b846e4ca07a,,,,,,,,,,,,,,,,,,,,,,,,,,,,,,,,,,,,,,,,,,,,,,,,,,,,,,,,,,,,,,,,,,,,,,,,,,,,,,,,,,,,,,,,,,,,,,,,,,,,,
,,,,,,3,0,3,0,1,X V Q F H G B L J M P D K C T S W R N Z,5e88d5111d250056d60a23f1,23,Mężczyzna,2022-06-11_09h19.36.229,task,2021.1.4,Win32,60.08532116,6299f149e92ead563fba08ef,62a441f7310d0b846e4ca07a,,,,,,,,,,,,,,,,,,,,,,,,,,,,,,,,,,,,,,,,,,,,,,,,,,,,,,,,,,,,,,,,,,,,,,,,,,,,,,,,,,,,,,,,,,,,,,,,,,,,,
,,,,,,,,,,,,5e88d5111d250056d60a23f1,23,Mężczyzna,2022-06-11_09h19.36.229,task,2021.1.4,Win32,60.08532116,6299f149e92ead563fba08ef,62a441f7310d0b846e4ca07a,hzkf,"[""h"",""z"",""k"",""f""]","[1.3246999999955449,1.7965999999940436,2.3500999999940575,3.167199999995546,3.6362999999970214]",1,HZKF,5,0,5,0,1,,,,,,,,,,,,,,,,,,,,,,,,,,,,,,,,,,,,,,,,,,,,,,,,,,,,,,,,,,,,,,,,,,,,,,,,,,,,,,,,,,,,,,,,,,,
,,,,,,0,0,0,0,1,X V Q F H G B L J M P D K C T S W R N Z,5e88d5111d250056d60a23f1,23,Mężczyzna,2022-06-11_09h19.36.229,task,2021.1.4,Win32,60.08532116,6299f149e92ead563fba08ef,62a441f7310d0b846e4ca07a,,,,,,,,,,,,,,,,,,,,,,,,,,,,,,,,,,,,,,,,,,,,,,,,,,,,,,,,,,,,,,,,,,,,,,,,,,,,,,,,,,,,,,,,,,,,,,,,,,,,,
,,,,,,1,0,1,0,1,X V Q F H G B L J M P D K C T S W R N Z,5e88d5111d250056d60a23f1,23,Mężczyzna,2022-06-11_09h19.36.229,task,2021.1.4,Win32,60.08532116,6299f149e92ead563fba08ef,62a441f7310d0b846e4ca07a,,,,,,,,,,,,,,,,,,,,,,,,,,,,,,,,,,,,,,,,,,,,,,,,,,,,,,,,,,,,,,,,,,,,,,,,,,,,,,,,,,,,,,,,,,,,,,,,,,,,,
,,,,,,2,0,2,0,1,X V Q F H G B L J M P D K C T S W R N Z,5e88d5111d250056d60a23f1,23,Mężczyzna,2022-06-11_09h19.36.229,task,2021.1.4,Win32,60.08532116,6299f149e92ead563fba08ef,62a441f7310d0b846e4ca07a,,,,,,,,,,,,,,,,,,,,,,,,,,,,,,,,,,,,,,,,,,,,,,,,,,,,,,,,,,,,,,,,,,,,,,,,,,,,,,,,,,,,,,,,,,,,,,,,,,,,,
,,,,,,3,0,3,0,1,X V Q F H G B L J M P D K C T S W R N Z,5e88d5111d250056d60a23f1,23,Mężczyzna,2022-06-11_09h19.36.229,task,2021.1.4,Win32,60.08532116,6299f149e92ead563fba08ef,62a441f7310d0b846e4ca07a,,,,,,,,,,,,,,,,,,,,,,,,,,,,,,,,,,,,,,,,,,,,,,,,,,,,,,,,,,,,,,,,,,,,,,,,,,,,,,,,,,,,,,,,,,,,,,,,,,,,,
,,,,,,,,,,,,5e88d5111d250056d60a23f1,23,Mężczyzna,2022-06-11_09h19.36.229,task,2021.1.4,Win32,60.08532116,6299f149e92ead563fba08ef,62a441f7310d0b846e4ca07a,mzcn,"[""m"",""z"",""c"",""n""]","[2.3617999999970323,2.467000000000013,2.6737999999970157,3.3455000000000155,4.0256000000015035]",1,MZCN,6,0,6,0,1,,,,,,,,,,,,,,,,,,,,,,,,,,,,,,,,,,,,,,,,,,,,,,,,,,,,,,,,,,,,,,,,,,,,,,,,,,,,,,,,,,,,,,,,,,,
,,,,,,0,0,0,0,1,X V Q F H G B L J M P D K C T S W R N Z,5e88d5111d250056d60a23f1,23,Mężczyzna,2022-06-11_09h19.36.229,task,2021.1.4,Win32,60.08532116,6299f149e92ead563fba08ef,62a441f7310d0b846e4ca07a,,,,,,,,,,,,,,,,,,,,,,,,,,,,,,,,,,,,,,,,,,,,,,,,,,,,,,,,,,,,,,,,,,,,,,,,,,,,,,,,,,,,,,,,,,,,,,,,,,,,,
,,,,,,1,0,1,0,1,X V Q F H G B L J M P D K C T S W R N Z,5e88d5111d250056d60a23f1,23,Mężczyzna,2022-06-11_09h19.36.229,task,2021.1.4,Win32,60.08532116,6299f149e92ead563fba08ef,62a441f7310d0b846e4ca07a,,,,,,,,,,,,,,,,,,,,,,,,,,,,,,,,,,,,,,,,,,,,,,,,,,,,,,,,,,,,,,,,,,,,,,,,,,,,,,,,,,,,,,,,,,,,,,,,,,,,,
,,,,,,2,0,2,0,1,X V Q F H G B L J M P D K C T S W R N Z,5e88d5111d250056d60a23f1,23,Mężczyzna,2022-06-11_09h19.36.229,task,2021.1.4,Win32,60.08532116,6299f149e92ead563fba08ef,62a441f7310d0b846e4ca07a,,,,,,,,,,,,,,,,,,,,,,,,,,,,,,,,,,,,,,,,,,,,,,,,,,,,,,,,,,,,,,,,,,,,,,,,,,,,,,,,,,,,,,,,,,,,,,,,,,,,,
,,,,,,3,0,3,0,1,X V Q F H G B L J M P D K C T S W R N Z,5e88d5111d250056d60a23f1,23,Mężczyzna,2022-06-11_09h19.36.229,task,2021.1.4,Win32,60.08532116,6299f149e92ead563fba08ef,62a441f7310d0b846e4ca07a,,,,,,,,,,,,,,,,,,,,,,,,,,,,,,,,,,,,,,,,,,,,,,,,,,,,,,,,,,,,,,,,,,,,,,,,,,,,,,,,,,,,,,,,,,,,,,,,,,,,,
,,,,,,4,0,4,0,1,X V Q F H G B L J M P D K C T S W R N Z,5e88d5111d250056d60a23f1,23,Mężczyzna,2022-06-11_09h19.36.229,task,2021.1.4,Win32,60.08532116,6299f149e92ead563fba08ef,62a441f7310d0b846e4ca07a,,,,,,,,,,,,,,,,,,,,,,,,,,,,,,,,,,,,,,,,,,,,,,,,,,,,,,,,,,,,,,,,,,,,,,,,,,,,,,,,,,,,,,,,,,,,,,,,,,,,,
,,,,,,,,,,,,5e88d5111d250056d60a23f1,23,Mężczyzna,2022-06-11_09h19.36.229,task,2021.1.4,Win32,60.08532116,6299f149e92ead563fba08ef,62a441f7310d0b846e4ca07a,nxptz,"[""n"",""x"",""p"",""t"",""z""]","[2.7332999999970298,3.9170000000000016,5.811399999998514,5.995199999995549,6.46139999999852,6.891199999995536]",1,NXPTZ,7,0,7,0,1,,,,,,,,,,,,,,,,,,,,,,,,,,,,,,,,,,,,,,,,,,,,,,,,,,,,,,,,,,,,,,,,,,,,,,,,,,,,,,,,,,,,,,,,,,,
,,,,,,0,0,0,0,1,X V Q F H G B L J M P D K C T S W R N Z,5e88d5111d250056d60a23f1,23,Mężczyzna,2022-06-11_09h19.36.229,task,2021.1.4,Win32,60.08532116,6299f149e92ead563fba08ef,62a441f7310d0b846e4ca07a,,,,,,,,,,,,,,,,,,,,,,,,,,,,,,,,,,,,,,,,,,,,,,,,,,,,,,,,,,,,,,,,,,,,,,,,,,,,,,,,,,,,,,,,,,,,,,,,,,,,,
,,,,,,1,0,1,0,1,X V Q F H G B L J M P D K C T S W R N Z,5e88d5111d250056d60a23f1,23,Mężczyzna,2022-06-11_09h19.36.229,task,2021.1.4,Win32,60.08532116,6299f149e92ead563fba08ef,62a441f7310d0b846e4ca07a,,,,,,,,,,,,,,,,,,,,,,,,,,,,,,,,,,,,,,,,,,,,,,,,,,,,,,,,,,,,,,,,,,,,,,,,,,,,,,,,,,,,,,,,,,,,,,,,,,,,,
,,,,,,2,0,2,0,1,X V Q F H G B L J M P D K C T S W R N Z,5e88d5111d250056d60a23f1,23,Mężczyzna,2022-06-11_09h19.36.229,task,2021.1.4,Win32,60.08532116,6299f149e92ead563fba08ef,62a441f7310d0b846e4ca07a,,,,,,,,,,,,,,,,,,,,,,,,,,,,,,,,,,,,,,,,,,,,,,,,,,,,,,,,,,,,,,,,,,,,,,,,,,,,,,,,,,,,,,,,,,,,,,,,,,,,,
,,,,,,3,0,3,0,1,X V Q F H G B L J M P D K C T S W R N Z,5e88d5111d250056d60a23f1,23,Mężczyzna,2022-06-11_09h19.36.229,task,2021.1.4,Win32,60.08532116,6299f149e92ead563fba08ef,62a441f7310d0b846e4ca07a,,,,,,,,,,,,,,,,,,,,,,,,,,,,,,,,,,,,,,,,,,,,,,,,,,,,,,,,,,,,,,,,,,,,,,,,,,,,,,,,,,,,,,,,,,,,,,,,,,,,,
,,,,,,4,0,4,0,1,X V Q F H G B L J M P D K C T S W R N Z,5e88d5111d250056d60a23f1,23,Mężczyzna,2022-06-11_09h19.36.229,task,2021.1.4,Win32,60.08532116,6299f149e92ead563fba08ef,62a441f7310d0b846e4ca07a,,,,,,,,,,,,,,,,,,,,,,,,,,,,,,,,,,,,,,,,,,,,,,,,,,,,,,,,,,,,,,,,,,,,,,,,,,,,,,,,,,,,,,,,,,,,,,,,,,,,,
,,,,,,,,,,,,5e88d5111d250056d60a23f1,23,Mężczyzna,2022-06-11_09h19.36.229,task,2021.1.4,Win32,60.08532116,6299f149e92ead563fba08ef,62a441f7310d0b846e4ca07a,wqncb,"[""w"",""q"",""n"",""c"",""b""]","[1.6586000000014849,2.0261999999955265,2.5701999999955376,5.066699999995535,5.317000000000007,6.167000000000002]",1,WQNCB,8,0,8,0,1,,,,,,,,,,,,,,,,,,,,,,,,,,,,,,,,,,,,,,,,,,,,,,,,,,,,,,,,,,,,,,,,,,,,,,,,,,,,,,,,,,,,,,,,,,,
,,,,,,0,0,0,0,1,X V Q F H G B L J M P D K C T S W R N Z,5e88d5111d250056d60a23f1,23,Mężczyzna,2022-06-11_09h19.36.229,task,2021.1.4,Win32,60.08532116,6299f149e92ead563fba08ef,62a441f7310d0b846e4ca07a,,,,,,,,,,,,,,,,,,,,,,,,,,,,,,,,,,,,,,,,,,,,,,,,,,,,,,,,,,,,,,,,,,,,,,,,,,,,,,,,,,,,,,,,,,,,,,,,,,,,,
,,,,,,1,0,1,0,1,X V Q F H G B L J M P D K C T S W R N Z,5e88d5111d250056d60a23f1,23,Mężczyzna,2022-06-11_09h19.36.229,task,2021.1.4,Win32,60.08532116,6299f149e92ead563fba08ef,62a441f7310d0b846e4ca07a,,,,,,,,,,,,,,,,,,,,,,,,,,,,,,,,,,,,,,,,,,,,,,,,,,,,,,,,,,,,,,,,,,,,,,,,,,,,,,,,,,,,,,,,,,,,,,,,,,,,,
,,,,,,2,0,2,0,1,X V Q F H G B L J M P D K C T S W R N Z,5e88d5111d250056d60a23f1,23,Mężczyzna,2022-06-11_09h19.36.229,task,2021.1.4,Win32,60.08532116,6299f149e92ead563fba08ef,62a441f7310d0b846e4ca07a,,,,,,,,,,,,,,,,,,,,,,,,,,,,,,,,,,,,,,,,,,,,,,,,,,,,,,,,,,,,,,,,,,,,,,,,,,,,,,,,,,,,,,,,,,,,,,,,,,,,,
,,,,,,3,0,3,0,1,X V Q F H G B L J M P D K C T S W R N Z,5e88d5111d250056d60a23f1,23,Mężczyzna,2022-06-11_09h19.36.229,task,2021.1.4,Win32,60.08532116,6299f149e92ead563fba08ef,62a441f7310d0b846e4ca07a,,,,,,,,,,,,,,,,,,,,,,,,,,,,,,,,,,,,,,,,,,,,,,,,,,,,,,,,,,,,,,,,,,,,,,,,,,,,,,,,,,,,,,,,,,,,,,,,,,,,,
,,,,,,4,0,4,0,1,X V Q F H G B L J M P D K C T S W R N Z,5e88d5111d250056d60a23f1,23,Mężczyzna,2022-06-11_09h19.36.229,task,2021.1.4,Win32,60.08532116,6299f149e92ead563fba08ef,62a441f7310d0b846e4ca07a,,,,,,,,,,,,,,,,,,,,,,,,,,,,,,,,,,,,,,,,,,,,,,,,,,,,,,,,,,,,,,,,,,,,,,,,,,,,,,,,,,,,,,,,,,,,,,,,,,,,,
,,,,,,5,0,5,0,1,X V Q F H G B L J M P D K C T S W R N Z,5e88d5111d250056d60a23f1,23,Mężczyzna,2022-06-11_09h19.36.229,task,2021.1.4,Win32,60.08532116,6299f149e92ead563fba08ef,62a441f7310d0b846e4ca07a,,,,,,,,,,,,,,,,,,,,,,,,,,,,,,,,,,,,,,,,,,,,,,,,,,,,,,,,,,,,,,,,,,,,,,,,,,,,,,,,,,,,,,,,,,,,,,,,,,,,,
,,,,,,,,,,,,5e88d5111d250056d60a23f1,23,Mężczyzna,2022-06-11_09h19.36.229,task,2021.1.4,Win32,60.08532116,6299f149e92ead563fba08ef,62a441f7310d0b846e4ca07a,lbgxqp,"[""l"",""b"",""g"",""x"",""q"",""p""]","[0.9548999999985028,1.5707000000029723,2.5387999999970248,3.3386000000014917,3.994700000002979,6.138700000002984,7.6268999999985]",1,LBGXQP,9,0,9,0,1,,,,,,,,,,,,,,,,,,,,,,,,,,,,,,,,,,,,,,,,,,,,,,,,,,,,,,,,,,,,,,,,,,,,,,,,,,,,,,,,,,,,,,,,,,,
,,,,,,0,0,0,0,1,X V Q F H G B L J M P D K C T S W R N Z,5e88d5111d250056d60a23f1,23,Mężczyzna,2022-06-11_09h19.36.229,task,2021.1.4,Win32,60.08532116,6299f149e92ead563fba08ef,62a441f7310d0b846e4ca07a,,,,,,,,,,,,,,,,,,,,,,,,,,,,,,,,,,,,,,,,,,,,,,,,,,,,,,,,,,,,,,,,,,,,,,,,,,,,,,,,,,,,,,,,,,,,,,,,,,,,,
,,,,,,1,0,1,0,1,X V Q F H G B L J M P D K C T S W R N Z,5e88d5111d250056d60a23f1,23,Mężczyzna,2022-06-11_09h19.36.229,task,2021.1.4,Win32,60.08532116,6299f149e92ead563fba08ef,62a441f7310d0b846e4ca07a,,,,,,,,,,,,,,,,,,,,,,,,,,,,,,,,,,,,,,,,,,,,,,,,,,,,,,,,,,,,,,,,,,,,,,,,,,,,,,,,,,,,,,,,,,,,,,,,,,,,,
,,,,,,2,0,2,0,1,X V Q F H G B L J M P D K C T S W R N Z,5e88d5111d250056d60a23f1,23,Mężczyzna,2022-06-11_09h19.36.229,task,2021.1.4,Win32,60.08532116,6299f149e92ead563fba08ef,62a441f7310d0b846e4ca07a,,,,,,,,,,,,,,,,,,,,,,,,,,,,,,,,,,,,,,,,,,,,,,,,,,,,,,,,,,,,,,,,,,,,,,,,,,,,,,,,,,,,,,,,,,,,,,,,,,,,,
,,,,,,3,0,3,0,1,X V Q F H G B L J M P D K C T S W R N Z,5e88d5111d250056d60a23f1,23,Mężczyzna,2022-06-11_09h19.36.229,task,2021.1.4,Win32,60.08532116,6299f149e92ead563fba08ef,62a441f7310d0b846e4ca07a,,,,,,,,,,,,,,,,,,,,,,,,,,,,,,,,,,,,,,,,,,,,,,,,,,,,,,,,,,,,,,,,,,,,,,,,,,,,,,,,,,,,,,,,,,,,,,,,,,,,,
,,,,,,4,0,4,0,1,X V Q F H G B L J M P D K C T S W R N Z,5e88d5111d250056d60a23f1,23,Mężczyzna,2022-06-11_09h19.36.229,task,2021.1.4,Win32,60.08532116,6299f149e92ead563fba08ef,62a441f7310d0b846e4ca07a,,,,,,,,,,,,,,,,,,,,,,,,,,,,,,,,,,,,,,,,,,,,,,,,,,,,,,,,,,,,,,,,,,,,,,,,,,,,,,,,,,,,,,,,,,,,,,,,,,,,,
,,,,,,5,0,5,0,1,X V Q F H G B L J M P D K C T S W R N Z,5e88d5111d250056d60a23f1,23,Mężczyzna,2022-06-11_09h19.36.229,task,2021.1.4,Win32,60.08532116,6299f149e92ead563fba08ef,62a441f7310d0b846e4ca07a,,,,,,,,,,,,,,,,,,,,,,,,,,,,,,,,,,,,,,,,,,,,,,,,,,,,,,,,,,,,,,,,,,,,,,,,,,,,,,,,,,,,,,,,,,,,,,,,,,,,,
,,,,,,,,,,,,5e88d5111d250056d60a23f1,23,Mężczyzna,2022-06-11_09h19.36.229,task,2021.1.4,Win32,60.08532116,6299f149e92ead563fba08ef,62a441f7310d0b846e4ca07a,gwgzjw,"[""g"",""w"",""g"",""z"",""j"",""w""]","[2.21739999999852,2.617500000000007,3.0175000000000125,3.4672000000029755,4.024800000004461,4.500700000002979,5.136700000002975]",1,GWGZJW,10,0,10,0,1,,,,,,,,,,,,,,,,,,,,,,,,,,,,,,,,,,,,,,,,,,,,,,,,,,,,,,,,,,,,,,,,,,,,,,,,,,,,,,,,,,,,,,,,,,,
,,,,,,0,0,0,0,1,X V Q F H G B L J M P D K C T S W R N Z,5e88d5111d250056d60a23f1,23,Mężczyzna,2022-06-11_09h19.36.229,task,2021.1.4,Win32,60.08532116,6299f149e92ead563fba08ef,62a441f7310d0b846e4ca07a,,,,,,,,,,,,,,,,,,,,,,,,,,,,,,,,,,,,,,,,,,,,,,,,,,,,,,,,,,,,,,,,,,,,,,,,,,,,,,,,,,,,,,,,,,,,,,,,,,,,,
,,,,,,1,0,1,0,1,X V Q F H G B L J M P D K C T S W R N Z,5e88d5111d250056d60a23f1,23,Mężczyzna,2022-06-11_09h19.36.229,task,2021.1.4,Win32,60.08532116,6299f149e92ead563fba08ef,62a441f7310d0b846e4ca07a,,,,,,,,,,,,,,,,,,,,,,,,,,,,,,,,,,,,,,,,,,,,,,,,,,,,,,,,,,,,,,,,,,,,,,,,,,,,,,,,,,,,,,,,,,,,,,,,,,,,,
,,,,,,2,0,2,0,1,X V Q F H G B L J M P D K C T S W R N Z,5e88d5111d250056d60a23f1,23,Mężczyzna,2022-06-11_09h19.36.229,task,2021.1.4,Win32,60.08532116,6299f149e92ead563fba08ef,62a441f7310d0b846e4ca07a,,,,,,,,,,,,,,,,,,,,,,,,,,,,,,,,,,,,,,,,,,,,,,,,,,,,,,,,,,,,,,,,,,,,,,,,,,,,,,,,,,,,,,,,,,,,,,,,,,,,,
,,,,,,3,0,3,0,1,X V Q F H G B L J M P D K C T S W R N Z,5e88d5111d250056d60a23f1,23,Mężczyzna,2022-06-11_09h19.36.229,task,2021.1.4,Win32,60.08532116,6299f149e92ead563fba08ef,62a441f7310d0b846e4ca07a,,,,,,,,,,,,,,,,,,,,,,,,,,,,,,,,,,,,,,,,,,,,,,,,,,,,,,,,,,,,,,,,,,,,,,,,,,,,,,,,,,,,,,,,,,,,,,,,,,,,,
,,,,,,4,0,4,0,1,X V Q F H G B L J M P D K C T S W R N Z,5e88d5111d250056d60a23f1,23,Mężczyzna,2022-06-11_09h19.36.229,task,2021.1.4,Win32,60.08532116,6299f149e92ead563fba08ef,62a441f7310d0b846e4ca07a,,,,,,,,,,,,,,,,,,,,,,,,,,,,,,,,,,,,,,,,,,,,,,,,,,,,,,,,,,,,,,,,,,,,,,,,,,,,,,,,,,,,,,,,,,,,,,,,,,,,,
,,,,,,5,0,5,0,1,X V Q F H G B L J M P D K C T S W R N Z,5e88d5111d250056d60a23f1,23,Mężczyzna,2022-06-11_09h19.36.229,task,2021.1.4,Win32,60.08532116,6299f149e92ead563fba08ef,62a441f7310d0b846e4ca07a,,,,,,,,,,,,,,,,,,,,,,,,,,,,,,,,,,,,,,,,,,,,,,,,,,,,,,,,,,,,,,,,,,,,,,,,,,,,,,,,,,,,,,,,,,,,,,,,,,,,,
,,,,,,6,0,6,0,1,X V Q F H G B L J M P D K C T S W R N Z,5e88d5111d250056d60a23f1,23,Mężczyzna,2022-06-11_09h19.36.229,task,2021.1.4,Win32,60.08532116,6299f149e92ead563fba08ef,62a441f7310d0b846e4ca07a,,,,,,,,,,,,,,,,,,,,,,,,,,,,,,,,,,,,,,,,,,,,,,,,,,,,,,,,,,,,,,,,,,,,,,,,,,,,,,,,,,,,,,,,,,,,,,,,,,,,,
,,,,,,,,,,,,5e88d5111d250056d60a23f1,23,Mężczyzna,2022-06-11_09h19.36.229,task,2021.1.4,Win32,60.08532116,6299f149e92ead563fba08ef,62a441f7310d0b846e4ca07a,pvvghqq,"[""p"",""v"",""v"",""g"",""h"",""q"",""q""]","[2.573600000001477,2.9501000000014983,3.1732999999970275,5.637299999997026,5.9258999999985065,6.35029999999702,6.6052999999970154,7.150100000001487]",1,PVVGHQQ,11,0,11,0,1,,,,,,,,,,,,,,,,,,,,,,,,,,,,,,,,,,,,,,,,,,,,,,,,,,,,,,,,,,,,,,,,,,,,,,,,,,,,,,,,,,,,,,,,,,,
,,,,,,0,0,0,0,1,X V Q F H G B L J M P D K C T S W R N Z,5e88d5111d250056d60a23f1,23,Mężczyzna,2022-06-11_09h19.36.229,task,2021.1.4,Win32,60.08532116,6299f149e92ead563fba08ef,62a441f7310d0b846e4ca07a,,,,,,,,,,,,,,,,,,,,,,,,,,,,,,,,,,,,,,,,,,,,,,,,,,,,,,,,,,,,,,,,,,,,,,,,,,,,,,,,,,,,,,,,,,,,,,,,,,,,,
,,,,,,1,0,1,0,1,X V Q F H G B L J M P D K C T S W R N Z,5e88d5111d250056d60a23f1,23,Mężczyzna,2022-06-11_09h19.36.229,task,2021.1.4,Win32,60.08532116,6299f149e92ead563fba08ef,62a441f7310d0b846e4ca07a,,,,,,,,,,,,,,,,,,,,,,,,,,,,,,,,,,,,,,,,,,,,,,,,,,,,,,,,,,,,,,,,,,,,,,,,,,,,,,,,,,,,,,,,,,,,,,,,,,,,,
,,,,,,2,0,2,0,1,X V Q F H G B L J M P D K C T S W R N Z,5e88d5111d250056d60a23f1,23,Mężczyzna,2022-06-11_09h19.36.229,task,2021.1.4,Win32,60.08532116,6299f149e92ead563fba08ef,62a441f7310d0b846e4ca07a,,,,,,,,,,,,,,,,,,,,,,,,,,,,,,,,,,,,,,,,,,,,,,,,,,,,,,,,,,,,,,,,,,,,,,,,,,,,,,,,,,,,,,,,,,,,,,,,,,,,,
,,,,,,3,0,3,0,1,X V Q F H G B L J M P D K C T S W R N Z,5e88d5111d250056d60a23f1,23,Mężczyzna,2022-06-11_09h19.36.229,task,2021.1.4,Win32,60.08532116,6299f149e92ead563fba08ef,62a441f7310d0b846e4ca07a,,,,,,,,,,,,,,,,,,,,,,,,,,,,,,,,,,,,,,,,,,,,,,,,,,,,,,,,,,,,,,,,,,,,,,,,,,,,,,,,,,,,,,,,,,,,,,,,,,,,,
,,,,,,4,0,4,0,1,X V Q F H G B L J M P D K C T S W R N Z,5e88d5111d250056d60a23f1,23,Mężczyzna,2022-06-11_09h19.36.229,task,2021.1.4,Win32,60.08532116,6299f149e92ead563fba08ef,62a441f7310d0b846e4ca07a,,,,,,,,,,,,,,,,,,,,,,,,,,,,,,,,,,,,,,,,,,,,,,,,,,,,,,,,,,,,,,,,,,,,,,,,,,,,,,,,,,,,,,,,,,,,,,,,,,,,,
,,,,,,5,0,5,0,1,X V Q F H G B L J M P D K C T S W R N Z,5e88d5111d250056d60a23f1,23,Mężczyzna,2022-06-11_09h19.36.229,task,2021.1.4,Win32,60.08532116,6299f149e92ead563fba08ef,62a441f7310d0b846e4ca07a,,,,,,,,,,,,,,,,,,,,,,,,,,,,,,,,,,,,,,,,,,,,,,,,,,,,,,,,,,,,,,,,,,,,,,,,,,,,,,,,,,,,,,,,,,,,,,,,,,,,,
,,,,,,6,0,6,0,1,X V Q F H G B L J M P D K C T S W R N Z,5e88d5111d250056d60a23f1,23,Mężczyzna,2022-06-11_09h19.36.229,task,2021.1.4,Win32,60.08532116,6299f149e92ead563fba08ef,62a441f7310d0b846e4ca07a,,,,,,,,,,,,,,,,,,,,,,,,,,,,,,,,,,,,,,,,,,,,,,,,,,,,,,,,,,,,,,,,,,,,,,,,,,,,,,,,,,,,,,,,,,,,,,,,,,,,,
,,,,,,,,,,,,5e88d5111d250056d60a23f1,23,Mężczyzna,2022-06-11_09h19.36.229,task,2021.1.4,Win32,60.08532116,6299f149e92ead563fba08ef,62a441f7310d0b846e4ca07a,mzhtztb,"[""m"",""z"",""h"",""t"",""z"",""t"",""b""]","[2.1459999999999866,2.3456000000014967,4.183499999999981,5.129699999995523,5.883699999995514,6.673699999995534,7.305799999997021,8.133399999998517]",1,MZHTZTB,12,0,12,0,1,,,,,,,,,,,,,,,,,,,,,,,,,,,,,,,,,,,,,,,,,,,,,,,,,,,,,,,,,,,,,,,,,,,,,,,,,,,,,,,,,,,,,,,,,,,
,,,,,,0,0,0,0,1,X V Q F H G B L J M P D K C T S W R N Z,5e88d5111d250056d60a23f1,23,Mężczyzna,2022-06-11_09h19.36.229,task,2021.1.4,Win32,60.08532116,6299f149e92ead563fba08ef,62a441f7310d0b846e4ca07a,,,,,,,,,,,,,,,,,,,,,,,,,,,,,,,,,,,,,,,,,,,,,,,,,,,,,,,,,,,,,,,,,,,,,,,,,,,,,,,,,,,,,,,,,,,,,,,,,,,,,
,,,,,,1,0,1,0,1,X V Q F H G B L J M P D K C T S W R N Z,5e88d5111d250056d60a23f1,23,Mężczyzna,2022-06-11_09h19.36.229,task,2021.1.4,Win32,60.08532116,6299f149e92ead563fba08ef,62a441f7310d0b846e4ca07a,,,,,,,,,,,,,,,,,,,,,,,,,,,,,,,,,,,,,,,,,,,,,,,,,,,,,,,,,,,,,,,,,,,,,,,,,,,,,,,,,,,,,,,,,,,,,,,,,,,,,
,,,,,,2,0,2,0,1,X V Q F H G B L J M P D K C T S W R N Z,5e88d5111d250056d60a23f1,23,Mężczyzna,2022-06-11_09h19.36.229,task,2021.1.4,Win32,60.08532116,6299f149e92ead563fba08ef,62a441f7310d0b846e4ca07a,,,,,,,,,,,,,,,,,,,,,,,,,,,,,,,,,,,,,,,,,,,,,,,,,,,,,,,,,,,,,,,,,,,,,,,,,,,,,,,,,,,,,,,,,,,,,,,,,,,,,
,,,,,,3,0,3,0,1,X V Q F H G B L J M P D K C T S W R N Z,5e88d5111d250056d60a23f1,23,Mężczyzna,2022-06-11_09h19.36.229,task,2021.1.4,Win32,60.08532116,6299f149e92ead563fba08ef,62a441f7310d0b846e4ca07a,,,,,,,,,,,,,,,,,,,,,,,,,,,,,,,,,,,,,,,,,,,,,,,,,,,,,,,,,,,,,,,,,,,,,,,,,,,,,,,,,,,,,,,,,,,,,,,,,,,,,
,,,,,,4,0,4,0,1,X V Q F H G B L J M P D K C T S W R N Z,5e88d5111d250056d60a23f1,23,Mężczyzna,2022-06-11_09h19.36.229,task,2021.1.4,Win32,60.08532116,6299f149e92ead563fba08ef,62a441f7310d0b846e4ca07a,,,,,,,,,,,,,,,,,,,,,,,,,,,,,,,,,,,,,,,,,,,,,,,,,,,,,,,,,,,,,,,,,,,,,,,,,,,,,,,,,,,,,,,,,,,,,,,,,,,,,
,,,,,,5,0,5,0,1,X V Q F H G B L J M P D K C T S W R N Z,5e88d5111d250056d60a23f1,23,Mężczyzna,2022-06-11_09h19.36.229,task,2021.1.4,Win32,60.08532116,6299f149e92ead563fba08ef,62a441f7310d0b846e4ca07a,,,,,,,,,,,,,,,,,,,,,,,,,,,,,,,,,,,,,,,,,,,,,,,,,,,,,,,,,,,,,,,,,,,,,,,,,,,,,,,,,,,,,,,,,,,,,,,,,,,,,
,,,,,,6,0,6,0,1,X V Q F H G B L J M P D K C T S W R N Z,5e88d5111d250056d60a23f1,23,Mężczyzna,2022-06-11_09h19.36.229,task,2021.1.4,Win32,60.08532116,6299f149e92ead563fba08ef,62a441f7310d0b846e4ca07a,,,,,,,,,,,,,,,,,,,,,,,,,,,,,,,,,,,,,,,,,,,,,,,,,,,,,,,,,,,,,,,,,,,,,,,,,,,,,,,,,,,,,,,,,,,,,,,,,,,,,
,,,,,,7,0,7,0,1,X V Q F H G B L J M P D K C T S W R N Z,5e88d5111d250056d60a23f1,23,Mężczyzna,2022-06-11_09h19.36.229,task,2021.1.4,Win32,60.08532116,6299f149e92ead563fba08ef,62a441f7310d0b846e4ca07a,,,,,,,,,,,,,,,,,,,,,,,,,,,,,,,,,,,,,,,,,,,,,,,,,,,,,,,,,,,,,,,,,,,,,,,,,,,,,,,,,,,,,,,,,,,,,,,,,,,,,
,,,,,,,,,,,,5e88d5111d250056d60a23f1,23,Mężczyzna,2022-06-11_09h19.36.229,task,2021.1.4,Win32,60.08532116,6299f149e92ead563fba08ef,62a441f7310d0b846e4ca07a,vbjvdpwz,"[""v"",""b"",""j"",""v"",""d"",""p"",""w"",""z""]","[3.043600000001504,3.333500000000015,5.611400000005972,6.179400000006012,7.266999999999996,7.6753000000044835,7.8593000000045095,8.133800000004499,8.587200000003008]",1,VBJVDPWZ,13,0,13,0,1,,,,,,,,,,,,,,,,,,,,,,,,,,,,,,,,,,,,,,,,,,,,,,,,,,,,,,,,,,,,,,,,,,,,,,,,,,,,,,,,,,,,,,,,,,,
,,,,,,0,0,0,0,1,X V Q F H G B L J M P D K C T S W R N Z,5e88d5111d250056d60a23f1,23,Mężczyzna,2022-06-11_09h19.36.229,task,2021.1.4,Win32,60.08532116,6299f149e92ead563fba08ef,62a441f7310d0b846e4ca07a,,,,,,,,,,,,,,,,,,,,,,,,,,,,,,,,,,,,,,,,,,,,,,,,,,,,,,,,,,,,,,,,,,,,,,,,,,,,,,,,,,,,,,,,,,,,,,,,,,,,,
,,,,,,1,0,1,0,1,X V Q F H G B L J M P D K C T S W R N Z,5e88d5111d250056d60a23f1,23,Mężczyzna,2022-06-11_09h19.36.229,task,2021.1.4,Win32,60.08532116,6299f149e92ead563fba08ef,62a441f7310d0b846e4ca07a,,,,,,,,,,,,,,,,,,,,,,,,,,,,,,,,,,,,,,,,,,,,,,,,,,,,,,,,,,,,,,,,,,,,,,,,,,,,,,,,,,,,,,,,,,,,,,,,,,,,,
,,,,,,2,0,2,0,1,X V Q F H G B L J M P D K C T S W R N Z,5e88d5111d250056d60a23f1,23,Mężczyzna,2022-06-11_09h19.36.229,task,2021.1.4,Win32,60.08532116,6299f149e92ead563fba08ef,62a441f7310d0b846e4ca07a,,,,,,,,,,,,,,,,,,,,,,,,,,,,,,,,,,,,,,,,,,,,,,,,,,,,,,,,,,,,,,,,,,,,,,,,,,,,,,,,,,,,,,,,,,,,,,,,,,,,,
,,,,,,3,0,3,0,1,X V Q F H G B L J M P D K C T S W R N Z,5e88d5111d250056d60a23f1,23,Mężczyzna,2022-06-11_09h19.36.229,task,2021.1.4,Win32,60.08532116,6299f149e92ead563fba08ef,62a441f7310d0b846e4ca07a,,,,,,,,,,,,,,,,,,,,,,,,,,,,,,,,,,,,,,,,,,,,,,,,,,,,,,,,,,,,,,,,,,,,,,,,,,,,,,,,,,,,,,,,,,,,,,,,,,,,,
,,,,,,4,0,4,0,1,X V Q F H G B L J M P D K C T S W R N Z,5e88d5111d250056d60a23f1,23,Mężczyzna,2022-06-11_09h19.36.229,task,2021.1.4,Win32,60.08532116,6299f149e92ead563fba08ef,62a441f7310d0b846e4ca07a,,,,,,,,,,,,,,,,,,,,,,,,,,,,,,,,,,,,,,,,,,,,,,,,,,,,,,,,,,,,,,,,,,,,,,,,,,,,,,,,,,,,,,,,,,,,,,,,,,,,,
,,,,,,5,0,5,0,1,X V Q F H G B L J M P D K C T S W R N Z,5e88d5111d250056d60a23f1,23,Mężczyzna,2022-06-11_09h19.36.229,task,2021.1.4,Win32,60.08532116,6299f149e92ead563fba08ef,62a441f7310d0b846e4ca07a,,,,,,,,,,,,,,,,,,,,,,,,,,,,,,,,,,,,,,,,,,,,,,,,,,,,,,,,,,,,,,,,,,,,,,,,,,,,,,,,,,,,,,,,,,,,,,,,,,,,,
,,,,,,6,0,6,0,1,X V Q F H G B L J M P D K C T S W R N Z,5e88d5111d250056d60a23f1,23,Mężczyzna,2022-06-11_09h19.36.229,task,2021.1.4,Win32,60.08532116,6299f149e92ead563fba08ef,62a441f7310d0b846e4ca07a,,,,,,,,,,,,,,,,,,,,,,,,,,,,,,,,,,,,,,,,,,,,,,,,,,,,,,,,,,,,,,,,,,,,,,,,,,,,,,,,,,,,,,,,,,,,,,,,,,,,,
,,,,,,7,0,7,0,1,X V Q F H G B L J M P D K C T S W R N Z,5e88d5111d250056d60a23f1,23,Mężczyzna,2022-06-11_09h19.36.229,task,2021.1.4,Win32,60.08532116,6299f149e92ead563fba08ef,62a441f7310d0b846e4ca07a,,,,,,,,,,,,,,,,,,,,,,,,,,,,,,,,,,,,,,,,,,,,,,,,,,,,,,,,,,,,,,,,,,,,,,,,,,,,,,,,,,,,,,,,,,,,,,,,,,,,,
,,,,,,,,,,,,5e88d5111d250056d60a23f1,23,Mężczyzna,2022-06-11_09h19.36.229,task,2021.1.4,Win32,60.08532116,6299f149e92ead563fba08ef,62a441f7310d0b846e4ca07a,wznmjgjs,"[""w"",""z"",""n"",""m"",""j"",""g"",""j"",""s""]","[2.0183999999985076,2.434199999995542,2.8742999999969925,3.3001999999955274,3.7463999999985163,4.114299999997002,4.517399999998531,5.317299999997033,7.9940999999940345]",0,WTNMJGJS,14,0,14,0,1,,,,,,,,,,,,,,,,,,,,,,,,,,,,,,,,,,,,,,,,,,,,,,,,,,,,,,,,,,,,,,,,,,,,,,,,,,,,,,,,,,,,,,,,,,,
,,,,,,0,0,0,0,1,X V Q F H G B L J M P D K C T S W R N Z,5e88d5111d250056d60a23f1,23,Mężczyzna,2022-06-11_09h19.36.229,task,2021.1.4,Win32,60.08532116,6299f149e92ead563fba08ef,62a441f7310d0b846e4ca07a,,,,,,,,,,,,,,,,,,,,,,,,,,,,,,,,,,,,,,,,,,,,,,,,,,,,,,,,,,,,,,,,,,,,,,,,,,,,,,,,,,,,,,,,,,,,,,,,,,,,,
,,,,,,1,0,1,0,1,X V Q F H G B L J M P D K C T S W R N Z,5e88d5111d250056d60a23f1,23,Mężczyzna,2022-06-11_09h19.36.229,task,2021.1.4,Win32,60.08532116,6299f149e92ead563fba08ef,62a441f7310d0b846e4ca07a,,,,,,,,,,,,,,,,,,,,,,,,,,,,,,,,,,,,,,,,,,,,,,,,,,,,,,,,,,,,,,,,,,,,,,,,,,,,,,,,,,,,,,,,,,,,,,,,,,,,,
,,,,,,2,0,2,0,1,X V Q F H G B L J M P D K C T S W R N Z,5e88d5111d250056d60a23f1,23,Mężczyzna,2022-06-11_09h19.36.229,task,2021.1.4,Win32,60.08532116,6299f149e92ead563fba08ef,62a441f7310d0b846e4ca07a,,,,,,,,,,,,,,,,,,,,,,,,,,,,,,,,,,,,,,,,,,,,,,,,,,,,,,,,,,,,,,,,,,,,,,,,,,,,,,,,,,,,,,,,,,,,,,,,,,,,,
,,,,,,3,0,3,0,1,X V Q F H G B L J M P D K C T S W R N Z,5e88d5111d250056d60a23f1,23,Mężczyzna,2022-06-11_09h19.36.229,task,2021.1.4,Win32,60.08532116,6299f149e92ead563fba08ef,62a441f7310d0b846e4ca07a,,,,,,,,,,,,,,,,,,,,,,,,,,,,,,,,,,,,,,,,,,,,,,,,,,,,,,,,,,,,,,,,,,,,,,,,,,,,,,,,,,,,,,,,,,,,,,,,,,,,,
,,,,,,4,0,4,0,1,X V Q F H G B L J M P D K C T S W R N Z,5e88d5111d250056d60a23f1,23,Mężczyzna,2022-06-11_09h19.36.229,task,2021.1.4,Win32,60.08532116,6299f149e92ead563fba08ef,62a441f7310d0b846e4ca07a,,,,,,,,,,,,,,,,,,,,,,,,,,,,,,,,,,,,,,,,,,,,,,,,,,,,,,,,,,,,,,,,,,,,,,,,,,,,,,,,,,,,,,,,,,,,,,,,,,,,,
,,,,,,5,0,5,0,1,X V Q F H G B L J M P D K C T S W R N Z,5e88d5111d250056d60a23f1,23,Mężczyzna,2022-06-11_09h19.36.229,task,2021.1.4,Win32,60.08532116,6299f149e92ead563fba08ef,62a441f7310d0b846e4ca07a,,,,,,,,,,,,,,,,,,,,,,,,,,,,,,,,,,,,,,,,,,,,,,,,,,,,,,,,,,,,,,,,,,,,,,,,,,,,,,,,,,,,,,,,,,,,,,,,,,,,,
,,,,,,6,0,6,0,1,X V Q F H G B L J M P D K C T S W R N Z,5e88d5111d250056d60a23f1,23,Mężczyzna,2022-06-11_09h19.36.229,task,2021.1.4,Win32,60.08532116,6299f149e92ead563fba08ef,62a441f7310d0b846e4ca07a,,,,,,,,,,,,,,,,,,,,,,,,,,,,,,,,,,,,,,,,,,,,,,,,,,,,,,,,,,,,,,,,,,,,,,,,,,,,,,,,,,,,,,,,,,,,,,,,,,,,,
,,,,,,7,0,7,0,1,X V Q F H G B L J M P D K C T S W R N Z,5e88d5111d250056d60a23f1,23,Mężczyzna,2022-06-11_09h19.36.229,task,2021.1.4,Win32,60.08532116,6299f149e92ead563fba08ef,62a441f7310d0b846e4ca07a,,,,,,,,,,,,,,,,,,,,,,,,,,,,,,,,,,,,,,,,,,,,,,,,,,,,,,,,,,,,,,,,,,,,,,,,,,,,,,,,,,,,,,,,,,,,,,,,,,,,,
,,,,,,,,,,,,5e88d5111d250056d60a23f1,23,Mężczyzna,2022-06-11_09h19.36.229,task,2021.1.4,Win32,60.08532116,6299f149e92ead563fba08ef,62a441f7310d0b846e4ca07a,zvfscqvz,"[""z"",""v"",""f"",""s"",""c"",""q"",""v"",""z""]","[2.2977999999969825,2.6501999999954933,3.083699999995531,5.186199999995495,5.650299999997003,11.683899999998516,12.097299999997006,12.337299999997015,12.70529999999701]",1,ZVFSCQVZ,15,0,15,0,1,,,,,,,,,,,,,,,,,,,,,,,,,,,,,,,,,,,,,,,,,,,,,,,,,,,,,,,,,,,,,,,,,,,,,,,,,,,,,,,,,,,,,,,,,,,
,,,,,,0,0,0,0,1,X V Q F H G B L J M P D K C T S W R N Z,5e88d5111d250056d60a23f1,23,Mężczyzna,2022-06-11_09h19.36.229,task,2021.1.4,Win32,60.08532116,6299f149e92ead563fba08ef,62a441f7310d0b846e4ca07a,,,,,,,,,,,,,,,,,,,,,,,,,,,,,,,,,,,,,,,,,,,,,,,,,,,,,,,,,,,,,,,,,,,,,,,,,,,,,,,,,,,,,,,,,,,,,,,,,,,,,
,,,,,,1,0,1,0,1,X V Q F H G B L J M P D K C T S W R N Z,5e88d5111d250056d60a23f1,23,Mężczyzna,2022-06-11_09h19.36.229,task,2021.1.4,Win32,60.08532116,6299f149e92ead563fba08ef,62a441f7310d0b846e4ca07a,,,,,,,,,,,,,,,,,,,,,,,,,,,,,,,,,,,,,,,,,,,,,,,,,,,,,,,,,,,,,,,,,,,,,,,,,,,,,,,,,,,,,,,,,,,,,,,,,,,,,
,,,,,,2,0,2,0,1,X V Q F H G B L J M P D K C T S W R N Z,5e88d5111d250056d60a23f1,23,Mężczyzna,2022-06-11_09h19.36.229,task,2021.1.4,Win32,60.08532116,6299f149e92ead563fba08ef,62a441f7310d0b846e4ca07a,,,,,,,,,,,,,,,,,,,,,,,,,,,,,,,,,,,,,,,,,,,,,,,,,,,,,,,,,,,,,,,,,,,,,,,,,,,,,,,,,,,,,,,,,,,,,,,,,,,,,
,,,,,,3,0,3,0,1,X V Q F H G B L J M P D K C T S W R N Z,5e88d5111d250056d60a23f1,23,Mężczyzna,2022-06-11_09h19.36.229,task,2021.1.4,Win32,60.08532116,6299f149e92ead563fba08ef,62a441f7310d0b846e4ca07a,,,,,,,,,,,,,,,,,,,,,,,,,,,,,,,,,,,,,,,,,,,,,,,,,,,,,,,,,,,,,,,,,,,,,,,,,,,,,,,,,,,,,,,,,,,,,,,,,,,,,
,,,,,,4,0,4,0,1,X V Q F H G B L J M P D K C T S W R N Z,5e88d5111d250056d60a23f1,23,Mężczyzna,2022-06-11_09h19.36.229,task,2021.1.4,Win32,60.08532116,6299f149e92ead563fba08ef,62a441f7310d0b846e4ca07a,,,,,,,,,,,,,,,,,,,,,,,,,,,,,,,,,,,,,,,,,,,,,,,,,,,,,,,,,,,,,,,,,,,,,,,,,,,,,,,,,,,,,,,,,,,,,,,,,,,,,
,,,,,,5,0,5,0,1,X V Q F H G B L J M P D K C T S W R N Z,5e88d5111d250056d60a23f1,23,Mężczyzna,2022-06-11_09h19.36.229,task,2021.1.4,Win32,60.08532116,6299f149e92ead563fba08ef,62a441f7310d0b846e4ca07a,,,,,,,,,,,,,,,,,,,,,,,,,,,,,,,,,,,,,,,,,,,,,,,,,,,,,,,,,,,,,,,,,,,,,,,,,,,,,,,,,,,,,,,,,,,,,,,,,,,,,
,,,,,,6,0,6,0,1,X V Q F H G B L J M P D K C T S W R N Z,5e88d5111d250056d60a23f1,23,Mężczyzna,2022-06-11_09h19.36.229,task,2021.1.4,Win32,60.08532116,6299f149e92ead563fba08ef,62a441f7310d0b846e4ca07a,,,,,,,,,,,,,,,,,,,,,,,,,,,,,,,,,,,,,,,,,,,,,,,,,,,,,,,,,,,,,,,,,,,,,,,,,,,,,,,,,,,,,,,,,,,,,,,,,,,,,
,,,,,,7,0,7,0,1,X V Q F H G B L J M P D K C T S W R N Z,5e88d5111d250056d60a23f1,23,Mężczyzna,2022-06-11_09h19.36.229,task,2021.1.4,Win32,60.08532116,6299f149e92ead563fba08ef,62a441f7310d0b846e4ca07a,,,,,,,,,,,,,,,,,,,,,,,,,,,,,,,,,,,,,,,,,,,,,,,,,,,,,,,,,,,,,,,,,,,,,,,,,,,,,,,,,,,,,,,,,,,,,,,,,,,,,
,,,,,,8,0,8,0,1,X V Q F H G B L J M P D K C T S W R N Z,5e88d5111d250056d60a23f1,23,Mężczyzna,2022-06-11_09h19.36.229,task,2021.1.4,Win32,60.08532116,6299f149e92ead563fba08ef,62a441f7310d0b846e4ca07a,,,,,,,,,,,,,,,,,,,,,,,,,,,,,,,,,,,,,,,,,,,,,,,,,,,,,,,,,,,,,,,,,,,,,,,,,,,,,,,,,,,,,,,,,,,,,,,,,,,,,
,,,,,,,,,,,,5e88d5111d250056d60a23f1,23,Mężczyzna,2022-06-11_09h19.36.229,task,2021.1.4,Win32,60.08532116,6299f149e92ead563fba08ef,62a441f7310d0b846e4ca07a,lfntpgzbc,"[""l"",""f"",""n"",""t"",""p"",""g"",""z"",""b"",""c""]","[6.287500000000023,6.950300000004461,7.583500000000015,8.247100000001467,8.663100000001464,8.952600000001496,9.350999999999999,12.559200000002988,12.983800000004464,18.159800000004452]",1,LFNTPGZBC,16,0,16,0,1,,,,,,,,,,,,,,,,,,,,,,,,,,,,,,,,,,,,,,,,,,,,,,,,,,,,,,,,,,,,,,,,,,,,,,,,,,,,,,,,,,,,,,,,,,,
,,,,,,0,0,0,0,1,X V Q F H G B L J M P D K C T S W R N Z,5e88d5111d250056d60a23f1,23,Mężczyzna,2022-06-11_09h19.36.229,task,2021.1.4,Win32,60.08532116,6299f149e92ead563fba08ef,62a441f7310d0b846e4ca07a,,,,,,,,,,,,,,,,,,,,,,,,,,,,,,,,,,,,,,,,,,,,,,,,,,,,,,,,,,,,,,,,,,,,,,,,,,,,,,,,,,,,,,,,,,,,,,,,,,,,,
,,,,,,1,0,1,0,1,X V Q F H G B L J M P D K C T S W R N Z,5e88d5111d250056d60a23f1,23,Mężczyzna,2022-06-11_09h19.36.229,task,2021.1.4,Win32,60.08532116,6299f149e92ead563fba08ef,62a441f7310d0b846e4ca07a,,,,,,,,,,,,,,,,,,,,,,,,,,,,,,,,,,,,,,,,,,,,,,,,,,,,,,,,,,,,,,,,,,,,,,,,,,,,,,,,,,,,,,,,,,,,,,,,,,,,,
,,,,,,2,0,2,0,1,X V Q F H G B L J M P D K C T S W R N Z,5e88d5111d250056d60a23f1,23,Mężczyzna,2022-06-11_09h19.36.229,task,2021.1.4,Win32,60.08532116,6299f149e92ead563fba08ef,62a441f7310d0b846e4ca07a,,,,,,,,,,,,,,,,,,,,,,,,,,,,,,,,,,,,,,,,,,,,,,,,,,,,,,,,,,,,,,,,,,,,,,,,,,,,,,,,,,,,,,,,,,,,,,,,,,,,,
,,,,,,3,0,3,0,1,X V Q F H G B L J M P D K C T S W R N Z,5e88d5111d250056d60a23f1,23,Mężczyzna,2022-06-11_09h19.36.229,task,2021.1.4,Win32,60.08532116,6299f149e92ead563fba08ef,62a441f7310d0b846e4ca07a,,,,,,,,,,,,,,,,,,,,,,,,,,,,,,,,,,,,,,,,,,,,,,,,,,,,,,,,,,,,,,,,,,,,,,,,,,,,,,,,,,,,,,,,,,,,,,,,,,,,,
,,,,,,4,0,4,0,1,X V Q F H G B L J M P D K C T S W R N Z,5e88d5111d250056d60a23f1,23,Mężczyzna,2022-06-11_09h19.36.229,task,2021.1.4,Win32,60.08532116,6299f149e92ead563fba08ef,62a441f7310d0b846e4ca07a,,,,,,,,,,,,,,,,,,,,,,,,,,,,,,,,,,,,,,,,,,,,,,,,,,,,,,,,,,,,,,,,,,,,,,,,,,,,,,,,,,,,,,,,,,,,,,,,,,,,,
,,,,,,5,0,5,0,1,X V Q F H G B L J M P D K C T S W R N Z,5e88d5111d250056d60a23f1,23,Mężczyzna,2022-06-11_09h19.36.229,task,2021.1.4,Win32,60.08532116,6299f149e92ead563fba08ef,62a441f7310d0b846e4ca07a,,,,,,,,,,,,,,,,,,,,,,,,,,,,,,,,,,,,,,,,,,,,,,,,,,,,,,,,,,,,,,,,,,,,,,,,,,,,,,,,,,,,,,,,,,,,,,,,,,,,,
,,,,,,6,0,6,0,1,X V Q F H G B L J M P D K C T S W R N Z,5e88d5111d250056d60a23f1,23,Mężczyzna,2022-06-11_09h19.36.229,task,2021.1.4,Win32,60.08532116,6299f149e92ead563fba08ef,62a441f7310d0b846e4ca07a,,,,,,,,,,,,,,,,,,,,,,,,,,,,,,,,,,,,,,,,,,,,,,,,,,,,,,,,,,,,,,,,,,,,,,,,,,,,,,,,,,,,,,,,,,,,,,,,,,,,,
,,,,,,7,0,7,0,1,X V Q F H G B L J M P D K C T S W R N Z,5e88d5111d250056d60a23f1,23,Mężczyzna,2022-06-11_09h19.36.229,task,2021.1.4,Win32,60.08532116,6299f149e92ead563fba08ef,62a441f7310d0b846e4ca07a,,,,,,,,,,,,,,,,,,,,,,,,,,,,,,,,,,,,,,,,,,,,,,,,,,,,,,,,,,,,,,,,,,,,,,,,,,,,,,,,,,,,,,,,,,,,,,,,,,,,,
,,,,,,8,0,8,0,1,X V Q F H G B L J M P D K C T S W R N Z,5e88d5111d250056d60a23f1,23,Mężczyzna,2022-06-11_09h19.36.229,task,2021.1.4,Win32,60.08532116,6299f149e92ead563fba08ef,62a441f7310d0b846e4ca07a,,,,,,,,,,,,,,,,,,,,,,,,,,,,,,,,,,,,,,,,,,,,,,,,,,,,,,,,,,,,,,,,,,,,,,,,,,,,,,,,,,,,,,,,,,,,,,,,,,,,,
,,,,,,,,,,,,5e88d5111d250056d60a23f1,23,Mężczyzna,2022-06-11_09h19.36.229,task,2021.1.4,Win32,60.08532116,6299f149e92ead563fba08ef,62a441f7310d0b846e4ca07a,hldclrusk,"[""h"",""l"",""d"",""c"",""l"",""r"",""u"",""s"",""k""]","[2.8689999999999714,3.507100000001458,3.875600000001498,4.219499999999982,4.555499999999995,5.547700000002976,6.260600000001489,6.683800000004453,7.700700000002996,8.595300000004443]",0,HLDCLRVSK,17,0,17,0,1,,,,,,,,,,,,,,,,,,,,,,,,,,,,,,,,,,,,,,,,,,,,,,,,,,,,,,,,,,,,,,,,,,,,,,,,,,,,,,,,,,,,,,,,,,,
,,,,,,0,0,0,0,1,X V Q F H G B L J M P D K C T S W R N Z,5e88d5111d250056d60a23f1,23,Mężczyzna,2022-06-11_09h19.36.229,task,2021.1.4,Win32,60.08532116,6299f149e92ead563fba08ef,62a441f7310d0b846e4ca07a,,,,,,,,,,,,,,,,,,,,,,,,,,,,,,,,,,,,,,,,,,,,,,,,,,,,,,,,,,,,,,,,,,,,,,,,,,,,,,,,,,,,,,,,,,,,,,,,,,,,,
,,,,,,1,0,1,0,1,X V Q F H G B L J M P D K C T S W R N Z,5e88d5111d250056d60a23f1,23,Mężczyzna,2022-06-11_09h19.36.229,task,2021.1.4,Win32,60.08532116,6299f149e92ead563fba08ef,62a441f7310d0b846e4ca07a,,,,,,,,,,,,,,,,,,,,,,,,,,,,,,,,,,,,,,,,,,,,,,,,,,,,,,,,,,,,,,,,,,,,,,,,,,,,,,,,,,,,,,,,,,,,,,,,,,,,,
,,,,,,2,0,2,0,1,X V Q F H G B L J M P D K C T S W R N Z,5e88d5111d250056d60a23f1,23,Mężczyzna,2022-06-11_09h19.36.229,task,2021.1.4,Win32,60.08532116,6299f149e92ead563fba08ef,62a441f7310d0b846e4ca07a,,,,,,,,,,,,,,,,,,,,,,,,,,,,,,,,,,,,,,,,,,,,,,,,,,,,,,,,,,,,,,,,,,,,,,,,,,,,,,,,,,,,,,,,,,,,,,,,,,,,,
,,,,,,3,0,3,0,1,X V Q F H G B L J M P D K C T S W R N Z,5e88d5111d250056d60a23f1,23,Mężczyzna,2022-06-11_09h19.36.229,task,2021.1.4,Win32,60.08532116,6299f149e92ead563fba08ef,62a441f7310d0b846e4ca07a,,,,,,,,,,,,,,,,,,,,,,,,,,,,,,,,,,,,,,,,,,,,,,,,,,,,,,,,,,,,,,,,,,,,,,,,,,,,,,,,,,,,,,,,,,,,,,,,,,,,,
,,,,,,4,0,4,0,1,X V Q F H G B L J M P D K C T S W R N Z,5e88d5111d250056d60a23f1,23,Mężczyzna,2022-06-11_09h19.36.229,task,2021.1.4,Win32,60.08532116,6299f149e92ead563fba08ef,62a441f7310d0b846e4ca07a,,,,,,,,,,,,,,,,,,,,,,,,,,,,,,,,,,,,,,,,,,,,,,,,,,,,,,,,,,,,,,,,,,,,,,,,,,,,,,,,,,,,,,,,,,,,,,,,,,,,,
,,,,,,5,0,5,0,1,X V Q F H G B L J M P D K C T S W R N Z,5e88d5111d250056d60a23f1,23,Mężczyzna,2022-06-11_09h19.36.229,task,2021.1.4,Win32,60.08532116,6299f149e92ead563fba08ef,62a441f7310d0b846e4ca07a,,,,,,,,,,,,,,,,,,,,,,,,,,,,,,,,,,,,,,,,,,,,,,,,,,,,,,,,,,,,,,,,,,,,,,,,,,,,,,,,,,,,,,,,,,,,,,,,,,,,,
,,,,,,6,0,6,0,1,X V Q F H G B L J M P D K C T S W R N Z,5e88d5111d250056d60a23f1,23,Mężczyzna,2022-06-11_09h19.36.229,task,2021.1.4,Win32,60.08532116,6299f149e92ead563fba08ef,62a441f7310d0b846e4ca07a,,,,,,,,,,,,,,,,,,,,,,,,,,,,,,,,,,,,,,,,,,,,,,,,,,,,,,,,,,,,,,,,,,,,,,,,,,,,,,,,,,,,,,,,,,,,,,,,,,,,,
,,,,,,7,0,7,0,1,X V Q F H G B L J M P D K C T S W R N Z,5e88d5111d250056d60a23f1,23,Mężczyzna,2022-06-11_09h19.36.229,task,2021.1.4,Win32,60.08532116,6299f149e92ead563fba08ef,62a441f7310d0b846e4ca07a,,,,,,,,,,,,,,,,,,,,,,,,,,,,,,,,,,,,,,,,,,,,,,,,,,,,,,,,,,,,,,,,,,,,,,,,,,,,,,,,,,,,,,,,,,,,,,,,,,,,,
,,,,,,8,0,8,0,1,X V Q F H G B L J M P D K C T S W R N Z,5e88d5111d250056d60a23f1,23,Mężczyzna,2022-06-11_09h19.36.229,task,2021.1.4,Win32,60.08532116,6299f149e92ead563fba08ef,62a441f7310d0b846e4ca07a,,,,,,,,,,,,,,,,,,,,,,,,,,,,,,,,,,,,,,,,,,,,,,,,,,,,,,,,,,,,,,,,,,,,,,,,,,,,,,,,,,,,,,,,,,,,,,,,,,,,,
,,,,,,,,,,,,5e88d5111d250056d60a23f1,23,Mężczyzna,2022-06-11_09h19.36.229,task,2021.1.4,Win32,60.08532116,6299f149e92ead563fba08ef,62a441f7310d0b846e4ca07a,kjzbjrgvc,"[""k"",""j"",""z"",""b"",""j"",""r"",""g"",""v"",""c""]","[3.1835000000000377,3.5263000000044826,3.926399999998523,4.383700000002989,4.718600000001516,5.038200000002973,5.3423000000045135,5.670200000002978,5.942200000003027,8.894300000004478]",0,KTZBJRGVC,18,0,18,0,1,,,,,,,,,,,,,,,,,,,,,,,,,,,,,,,,,,,,,,,,,,,,,,,,,,,,,,,,,,,,,,,,,,,,,,,,,,,,,,,,,,,,,,,,,,,
,,,,,,0,0,0,0,1,X V Q F H G B L J M P D K C T S W R N Z,5e88d5111d250056d60a23f1,23,Mężczyzna,2022-06-11_09h19.36.229,task,2021.1.4,Win32,60.08532116,6299f149e92ead563fba08ef,62a441f7310d0b846e4ca07a,,,,,,,,,,,,,,,,,,,,,,,,,,,,,,,,,,,,,,,,,,,,,,,,,,,,,,,,,,,,,,,,,,,,,,,,,,,,,,,,,,,,,,,,,,,,,,,,,,,,,
,,,,,,1,0,1,0,1,X V Q F H G B L J M P D K C T S W R N Z,5e88d5111d250056d60a23f1,23,Mężczyzna,2022-06-11_09h19.36.229,task,2021.1.4,Win32,60.08532116,6299f149e92ead563fba08ef,62a441f7310d0b846e4ca07a,,,,,,,,,,,,,,,,,,,,,,,,,,,,,,,,,,,,,,,,,,,,,,,,,,,,,,,,,,,,,,,,,,,,,,,,,,,,,,,,,,,,,,,,,,,,,,,,,,,,,
,,,,,,2,0,2,0,1,X V Q F H G B L J M P D K C T S W R N Z,5e88d5111d250056d60a23f1,23,Mężczyzna,2022-06-11_09h19.36.229,task,2021.1.4,Win32,60.08532116,6299f149e92ead563fba08ef,62a441f7310d0b846e4ca07a,,,,,,,,,,,,,,,,,,,,,,,,,,,,,,,,,,,,,,,,,,,,,,,,,,,,,,,,,,,,,,,,,,,,,,,,,,,,,,,,,,,,,,,,,,,,,,,,,,,,,
,,,,,,3,0,3,0,1,X V Q F H G B L J M P D K C T S W R N Z,5e88d5111d250056d60a23f1,23,Mężczyzna,2022-06-11_09h19.36.229,task,2021.1.4,Win32,60.08532116,6299f149e92ead563fba08ef,62a441f7310d0b846e4ca07a,,,,,,,,,,,,,,,,,,,,,,,,,,,,,,,,,,,,,,,,,,,,,,,,,,,,,,,,,,,,,,,,,,,,,,,,,,,,,,,,,,,,,,,,,,,,,,,,,,,,,
,,,,,,4,0,4,0,1,X V Q F H G B L J M P D K C T S W R N Z,5e88d5111d250056d60a23f1,23,Mężczyzna,2022-06-11_09h19.36.229,task,2021.1.4,Win32,60.08532116,6299f149e92ead563fba08ef,62a441f7310d0b846e4ca07a,,,,,,,,,,,,,,,,,,,,,,,,,,,,,,,,,,,,,,,,,,,,,,,,,,,,,,,,,,,,,,,,,,,,,,,,,,,,,,,,,,,,,,,,,,,,,,,,,,,,,
,,,,,,5,0,5,0,1,X V Q F H G B L J M P D K C T S W R N Z,5e88d5111d250056d60a23f1,23,Mężczyzna,2022-06-11_09h19.36.229,task,2021.1.4,Win32,60.08532116,6299f149e92ead563fba08ef,62a441f7310d0b846e4ca07a,,,,,,,,,,,,,,,,,,,,,,,,,,,,,,,,,,,,,,,,,,,,,,,,,,,,,,,,,,,,,,,,,,,,,,,,,,,,,,,,,,,,,,,,,,,,,,,,,,,,,
,,,,,,6,0,6,0,1,X V Q F H G B L J M P D K C T S W R N Z,5e88d5111d250056d60a23f1,23,Mężczyzna,2022-06-11_09h19.36.229,task,2021.1.4,Win32,60.08532116,6299f149e92ead563fba08ef,62a441f7310d0b846e4ca07a,,,,,,,,,,,,,,,,,,,,,,,,,,,,,,,,,,,,,,,,,,,,,,,,,,,,,,,,,,,,,,,,,,,,,,,,,,,,,,,,,,,,,,,,,,,,,,,,,,,,,
,,,,,,7,0,7,0,1,X V Q F H G B L J M P D K C T S W R N Z,5e88d5111d250056d60a23f1,23,Mężczyzna,2022-06-11_09h19.36.229,task,2021.1.4,Win32,60.08532116,6299f149e92ead563fba08ef,62a441f7310d0b846e4ca07a,,,,,,,,,,,,,,,,,,,,,,,,,,,,,,,,,,,,,,,,,,,,,,,,,,,,,,,,,,,,,,,,,,,,,,,,,,,,,,,,,,,,,,,,,,,,,,,,,,,,,
,,,,,,8,0,8,0,1,X V Q F H G B L J M P D K C T S W R N Z,5e88d5111d250056d60a23f1,23,Mężczyzna,2022-06-11_09h19.36.229,task,2021.1.4,Win32,60.08532116,6299f149e92ead563fba08ef,62a441f7310d0b846e4ca07a,,,,,,,,,,,,,,,,,,,,,,,,,,,,,,,,,,,,,,,,,,,,,,,,,,,,,,,,,,,,,,,,,,,,,,,,,,,,,,,,,,,,,,,,,,,,,,,,,,,,,
,,,,,,,,,,,,5e88d5111d250056d60a23f1,23,Mężczyzna,2022-06-11_09h19.36.229,task,2021.1.4,Win32,60.08532116,6299f149e92ead563fba08ef,62a441f7310d0b846e4ca07a,drhkxjqxb,"[""d"",""r"",""h"",""k"",""x"",""j"",""q"",""x"",""b""]","[2.925200000002974,3.2337000000029548,4.333499999999958,5.050600000001452,5.40479999999701,5.829100000001461,6.588899999998489,6.940999999999974,7.233499999999992,11.341000000000008]",1,DRHKXJQXB,19,0,19,0,1,,,,,,,,,,,,,,,,,,,,,,,,,,,,,,,,,,,,,,,,,,,,,,,,,,,,,,,,,,,,,,,,,,,,,,,,,,,,,,,,,,,,,,,,,,,
,,,,,,0,0,0,0,1,X V Q F H G B L J M P D K C T S W R N Z,5e88d5111d250056d60a23f1,23,Mężczyzna,2022-06-11_09h19.36.229,task,2021.1.4,Win32,60.08532116,6299f149e92ead563fba08ef,62a441f7310d0b846e4ca07a,,,,,,,,,,,,,,,,,,,,,,,,,,,,,,,,,,,,,,,,,,,,,,,,,,,,,,,,,,,,,,,,,,,,,,,,,,,,,,,,,,,,,,,,,,,,,,,,,,,,,
,,,,,,1,0,1,0,1,X V Q F H G B L J M P D K C T S W R N Z,5e88d5111d250056d60a23f1,23,Mężczyzna,2022-06-11_09h19.36.229,task,2021.1.4,Win32,60.08532116,6299f149e92ead563fba08ef,62a441f7310d0b846e4ca07a,,,,,,,,,,,,,,,,,,,,,,,,,,,,,,,,,,,,,,,,,,,,,,,,,,,,,,,,,,,,,,,,,,,,,,,,,,,,,,,,,,,,,,,,,,,,,,,,,,,,,
,,,,,,2,0,2,0,1,X V Q F H G B L J M P D K C T S W R N Z,5e88d5111d250056d60a23f1,23,Mężczyzna,2022-06-11_09h19.36.229,task,2021.1.4,Win32,60.08532116,6299f149e92ead563fba08ef,62a441f7310d0b846e4ca07a,,,,,,,,,,,,,,,,,,,,,,,,,,,,,,,,,,,,,,,,,,,,,,,,,,,,,,,,,,,,,,,,,,,,,,,,,,,,,,,,,,,,,,,,,,,,,,,,,,,,,
,,,,,,3,0,3,0,1,X V Q F H G B L J M P D K C T S W R N Z,5e88d5111d250056d60a23f1,23,Mężczyzna,2022-06-11_09h19.36.229,task,2021.1.4,Win32,60.08532116,6299f149e92ead563fba08ef,62a441f7310d0b846e4ca07a,,,,,,,,,,,,,,,,,,,,,,,,,,,,,,,,,,,,,,,,,,,,,,,,,,,,,,,,,,,,,,,,,,,,,,,,,,,,,,,,,,,,,,,,,,,,,,,,,,,,,
,,,,,,4,0,4,0,1,X V Q F H G B L J M P D K C T S W R N Z,5e88d5111d250056d60a23f1,23,Mężczyzna,2022-06-11_09h19.36.229,task,2021.1.4,Win32,60.08532116,6299f149e92ead563fba08ef,62a441f7310d0b846e4ca07a,,,,,,,,,,,,,,,,,,,,,,,,,,,,,,,,,,,,,,,,,,,,,,,,,,,,,,,,,,,,,,,,,,,,,,,,,,,,,,,,,,,,,,,,,,,,,,,,,,,,,
,,,,,,5,0,5,0,1,X V Q F H G B L J M P D K C T S W R N Z,5e88d5111d250056d60a23f1,23,Mężczyzna,2022-06-11_09h19.36.229,task,2021.1.4,Win32,60.08532116,6299f149e92ead563fba08ef,62a441f7310d0b846e4ca07a,,,,,,,,,,,,,,,,,,,,,,,,,,,,,,,,,,,,,,,,,,,,,,,,,,,,,,,,,,,,,,,,,,,,,,,,,,,,,,,,,,,,,,,,,,,,,,,,,,,,,
,,,,,,6,0,6,0,1,X V Q F H G B L J M P D K C T S W R N Z,5e88d5111d250056d60a23f1,23,Mężczyzna,2022-06-11_09h19.36.229,task,2021.1.4,Win32,60.08532116,6299f149e92ead563fba08ef,62a441f7310d0b846e4ca07a,,,,,,,,,,,,,,,,,,,,,,,,,,,,,,,,,,,,,,,,,,,,,,,,,,,,,,,,,,,,,,,,,,,,,,,,,,,,,,,,,,,,,,,,,,,,,,,,,,,,,
,,,,,,7,0,7,0,1,X V Q F H G B L J M P D K C T S W R N Z,5e88d5111d250056d60a23f1,23,Mężczyzna,2022-06-11_09h19.36.229,task,2021.1.4,Win32,60.08532116,6299f149e92ead563fba08ef,62a441f7310d0b846e4ca07a,,,,,,,,,,,,,,,,,,,,,,,,,,,,,,,,,,,,,,,,,,,,,,,,,,,,,,,,,,,,,,,,,,,,,,,,,,,,,,,,,,,,,,,,,,,,,,,,,,,,,
,,,,,,8,0,8,0,1,X V Q F H G B L J M P D K C T S W R N Z,5e88d5111d250056d60a23f1,23,Mężczyzna,2022-06-11_09h19.36.229,task,2021.1.4,Win32,60.08532116,6299f149e92ead563fba08ef,62a441f7310d0b846e4ca07a,,,,,,,,,,,,,,,,,,,,,,,,,,,,,,,,,,,,,,,,,,,,,,,,,,,,,,,,,,,,,,,,,,,,,,,,,,,,,,,,,,,,,,,,,,,,,,,,,,,,,
,,,,,,9,0,9,0,1,X V Q F H G B L J M P D K C T S W R N Z,5e88d5111d250056d60a23f1,23,Mężczyzna,2022-06-11_09h19.36.229,task,2021.1.4,Win32,60.08532116,6299f149e92ead563fba08ef,62a441f7310d0b846e4ca07a,,,,,,,,,,,,,,,,,,,,,,,,,,,,,,,,,,,,,,,,,,,,,,,,,,,,,,,,,,,,,,,,,,,,,,,,,,,,,,,,,,,,,,,,,,,,,,,,,,,,,
,,,,,,,,,,,,5e88d5111d250056d60a23f1,23,Mężczyzna,2022-06-11_09h19.36.229,task,2021.1.4,Win32,60.08532116,6299f149e92ead563fba08ef,62a441f7310d0b846e4ca07a,dskpkbvndh,"[""d"",""s"",""k"",""p"",""k"",""b"",""v"",""n"",""d"",""h""]","[2.054300000004446,2.4539000000059445,3.285900000005938,3.6467000000029657,4.637999999999977,4.9019000000059805,5.167100000001483,5.469700000003002,5.7502000000029625,6.093999999999994,7.109700000002988]",1,DSKPKBVNDH,20,0,20,0,1,,,,,,,,,,,,,,,,,,,,,,,,,,,,,,,,,,,,,,,,,,,,,,,,,,,,,,,,,,,,,,,,,,,,,,,,,,,,,,,,,,,,,,,,,,,
,,,,,,0,0,0,0,1,X V Q F H G B L J M P D K C T S W R N Z,5e88d5111d250056d60a23f1,23,Mężczyzna,2022-06-11_09h19.36.229,task,2021.1.4,Win32,60.08532116,6299f149e92ead563fba08ef,62a441f7310d0b846e4ca07a,,,,,,,,,,,,,,,,,,,,,,,,,,,,,,,,,,,,,,,,,,,,,,,,,,,,,,,,,,,,,,,,,,,,,,,,,,,,,,,,,,,,,,,,,,,,,,,,,,,,,
,,,,,,1,0,1,0,1,X V Q F H G B L J M P D K C T S W R N Z,5e88d5111d250056d60a23f1,23,Mężczyzna,2022-06-11_09h19.36.229,task,2021.1.4,Win32,60.08532116,6299f149e92ead563fba08ef,62a441f7310d0b846e4ca07a,,,,,,,,,,,,,,,,,,,,,,,,,,,,,,,,,,,,,,,,,,,,,,,,,,,,,,,,,,,,,,,,,,,,,,,,,,,,,,,,,,,,,,,,,,,,,,,,,,,,,
,,,,,,2,0,2,0,1,X V Q F H G B L J M P D K C T S W R N Z,5e88d5111d250056d60a23f1,23,Mężczyzna,2022-06-11_09h19.36.229,task,2021.1.4,Win32,60.08532116,6299f149e92ead563fba08ef,62a441f7310d0b846e4ca07a,,,,,,,,,,,,,,,,,,,,,,,,,,,,,,,,,,,,,,,,,,,,,,,,,,,,,,,,,,,,,,,,,,,,,,,,,,,,,,,,,,,,,,,,,,,,,,,,,,,,,
,,,,,,3,0,3,0,1,X V Q F H G B L J M P D K C T S W R N Z,5e88d5111d250056d60a23f1,23,Mężczyzna,2022-06-11_09h19.36.229,task,2021.1.4,Win32,60.08532116,6299f149e92ead563fba08ef,62a441f7310d0b846e4ca07a,,,,,,,,,,,,,,,,,,,,,,,,,,,,,,,,,,,,,,,,,,,,,,,,,,,,,,,,,,,,,,,,,,,,,,,,,,,,,,,,,,,,,,,,,,,,,,,,,,,,,
,,,,,,4,0,4,0,1,X V Q F H G B L J M P D K C T S W R N Z,5e88d5111d250056d60a23f1,23,Mężczyzna,2022-06-11_09h19.36.229,task,2021.1.4,Win32,60.08532116,6299f149e92ead563fba08ef,62a441f7310d0b846e4ca07a,,,,,,,,,,,,,,,,,,,,,,,,,,,,,,,,,,,,,,,,,,,,,,,,,,,,,,,,,,,,,,,,,,,,,,,,,,,,,,,,,,,,,,,,,,,,,,,,,,,,,
,,,,,,5,0,5,0,1,X V Q F H G B L J M P D K C T S W R N Z,5e88d5111d250056d60a23f1,23,Mężczyzna,2022-06-11_09h19.36.229,task,2021.1.4,Win32,60.08532116,6299f149e92ead563fba08ef,62a441f7310d0b846e4ca07a,,,,,,,,,,,,,,,,,,,,,,,,,,,,,,,,,,,,,,,,,,,,,,,,,,,,,,,,,,,,,,,,,,,,,,,,,,,,,,,,,,,,,,,,,,,,,,,,,,,,,
,,,,,,6,0,6,0,1,X V Q F H G B L J M P D K C T S W R N Z,5e88d5111d250056d60a23f1,23,Mężczyzna,2022-06-11_09h19.36.229,task,2021.1.4,Win32,60.08532116,6299f149e92ead563fba08ef,62a441f7310d0b846e4ca07a,,,,,,,,,,,,,,,,,,,,,,,,,,,,,,,,,,,,,,,,,,,,,,,,,,,,,,,,,,,,,,,,,,,,,,,,,,,,,,,,,,,,,,,,,,,,,,,,,,,,,
,,,,,,7,0,7,0,1,X V Q F H G B L J M P D K C T S W R N Z,5e88d5111d250056d60a23f1,23,Mężczyzna,2022-06-11_09h19.36.229,task,2021.1.4,Win32,60.08532116,6299f149e92ead563fba08ef,62a441f7310d0b846e4ca07a,,,,,,,,,,,,,,,,,,,,,,,,,,,,,,,,,,,,,,,,,,,,,,,,,,,,,,,,,,,,,,,,,,,,,,,,,,,,,,,,,,,,,,,,,,,,,,,,,,,,,
,,,,,,8,0,8,0,1,X V Q F H G B L J M P D K C T S W R N Z,5e88d5111d250056d60a23f1,23,Mężczyzna,2022-06-11_09h19.36.229,task,2021.1.4,Win32,60.08532116,6299f149e92ead563fba08ef,62a441f7310d0b846e4ca07a,,,,,,,,,,,,,,,,,,,,,,,,,,,,,,,,,,,,,,,,,,,,,,,,,,,,,,,,,,,,,,,,,,,,,,,,,,,,,,,,,,,,,,,,,,,,,,,,,,,,,
,,,,,,9,0,9,0,1,X V Q F H G B L J M P D K C T S W R N Z,5e88d5111d250056d60a23f1,23,Mężczyzna,2022-06-11_09h19.36.229,task,2021.1.4,Win32,60.08532116,6299f149e92ead563fba08ef,62a441f7310d0b846e4ca07a,,,,,,,,,,,,,,,,,,,,,,,,,,,,,,,,,,,,,,,,,,,,,,,,,,,,,,,,,,,,,,,,,,,,,,,,,,,,,,,,,,,,,,,,,,,,,,,,,,,,,
,,,,,,,,,,,,5e88d5111d250056d60a23f1,23,Mężczyzna,2022-06-11_09h19.36.229,task,2021.1.4,Win32,60.08532116,6299f149e92ead563fba08ef,62a441f7310d0b846e4ca07a,hlssgsfpts,"[""h"",""l"",""s"",""s"",""g"",""s"",""f"",""p"",""t"",""s""]","[2.533700000002966,2.991899999998509,3.550600000001509,3.800200000002974,4.704100000001461,5.528100000001473,5.767899999998519,6.336000000000013,6.424100000001488,6.650500000000022,7.983899999998528]",0,HLSSGSFPTG,21,0,21,0,1,,,,,,,,,,,,,,,,,,,,,,,,,,,,,,,,,,,,,,,,,,,,,,,,,,,,,,,,,,,,,,,,,,,,,,,,,,,,,,,,,,,,,,,,,,,
,,,,,,0,0,0,0,1,X V Q F H G B L J M P D K C T S W R N Z,5e88d5111d250056d60a23f1,23,Mężczyzna,2022-06-11_09h19.36.229,task,2021.1.4,Win32,60.08532116,6299f149e92ead563fba08ef,62a441f7310d0b846e4ca07a,,,,,,,,,,,,,,,,,,,,,,,,,,,,,,,,,,,,,,,,,,,,,,,,,,,,,,,,,,,,,,,,,,,,,,,,,,,,,,,,,,,,,,,,,,,,,,,,,,,,,
,,,,,,1,0,1,0,1,X V Q F H G B L J M P D K C T S W R N Z,5e88d5111d250056d60a23f1,23,Mężczyzna,2022-06-11_09h19.36.229,task,2021.1.4,Win32,60.08532116,6299f149e92ead563fba08ef,62a441f7310d0b846e4ca07a,,,,,,,,,,,,,,,,,,,,,,,,,,,,,,,,,,,,,,,,,,,,,,,,,,,,,,,,,,,,,,,,,,,,,,,,,,,,,,,,,,,,,,,,,,,,,,,,,,,,,
,,,,,,2,0,2,0,1,X V Q F H G B L J M P D K C T S W R N Z,5e88d5111d250056d60a23f1,23,Mężczyzna,2022-06-11_09h19.36.229,task,2021.1.4,Win32,60.08532116,6299f149e92ead563fba08ef,62a441f7310d0b846e4ca07a,,,,,,,,,,,,,,,,,,,,,,,,,,,,,,,,,,,,,,,,,,,,,,,,,,,,,,,,,,,,,,,,,,,,,,,,,,,,,,,,,,,,,,,,,,,,,,,,,,,,,
,,,,,,3,0,3,0,1,X V Q F H G B L J M P D K C T S W R N Z,5e88d5111d250056d60a23f1,23,Mężczyzna,2022-06-11_09h19.36.229,task,2021.1.4,Win32,60.08532116,6299f149e92ead563fba08ef,62a441f7310d0b846e4ca07a,,,,,,,,,,,,,,,,,,,,,,,,,,,,,,,,,,,,,,,,,,,,,,,,,,,,,,,,,,,,,,,,,,,,,,,,,,,,,,,,,,,,,,,,,,,,,,,,,,,,,
,,,,,,4,0,4,0,1,X V Q F H G B L J M P D K C T S W R N Z,5e88d5111d250056d60a23f1,23,Mężczyzna,2022-06-11_09h19.36.229,task,2021.1.4,Win32,60.08532116,6299f149e92ead563fba08ef,62a441f7310d0b846e4ca07a,,,,,,,,,,,,,,,,,,,,,,,,,,,,,,,,,,,,,,,,,,,,,,,,,,,,,,,,,,,,,,,,,,,,,,,,,,,,,,,,,,,,,,,,,,,,,,,,,,,,,
,,,,,,5,0,5,0,1,X V Q F H G B L J M P D K C T S W R N Z,5e88d5111d250056d60a23f1,23,Mężczyzna,2022-06-11_09h19.36.229,task,2021.1.4,Win32,60.08532116,6299f149e92ead563fba08ef,62a441f7310d0b846e4ca07a,,,,,,,,,,,,,,,,,,,,,,,,,,,,,,,,,,,,,,,,,,,,,,,,,,,,,,,,,,,,,,,,,,,,,,,,,,,,,,,,,,,,,,,,,,,,,,,,,,,,,
,,,,,,6,0,6,0,1,X V Q F H G B L J M P D K C T S W R N Z,5e88d5111d250056d60a23f1,23,Mężczyzna,2022-06-11_09h19.36.229,task,2021.1.4,Win32,60.08532116,6299f149e92ead563fba08ef,62a441f7310d0b846e4ca07a,,,,,,,,,,,,,,,,,,,,,,,,,,,,,,,,,,,,,,,,,,,,,,,,,,,,,,,,,,,,,,,,,,,,,,,,,,,,,,,,,,,,,,,,,,,,,,,,,,,,,
,,,,,,7,0,7,0,1,X V Q F H G B L J M P D K C T S W R N Z,5e88d5111d250056d60a23f1,23,Mężczyzna,2022-06-11_09h19.36.229,task,2021.1.4,Win32,60.08532116,6299f149e92ead563fba08ef,62a441f7310d0b846e4ca07a,,,,,,,,,,,,,,,,,,,,,,,,,,,,,,,,,,,,,,,,,,,,,,,,,,,,,,,,,,,,,,,,,,,,,,,,,,,,,,,,,,,,,,,,,,,,,,,,,,,,,
,,,,,,8,0,8,0,1,X V Q F H G B L J M P D K C T S W R N Z,5e88d5111d250056d60a23f1,23,Mężczyzna,2022-06-11_09h19.36.229,task,2021.1.4,Win32,60.08532116,6299f149e92ead563fba08ef,62a441f7310d0b846e4ca07a,,,,,,,,,,,,,,,,,,,,,,,,,,,,,,,,,,,,,,,,,,,,,,,,,,,,,,,,,,,,,,,,,,,,,,,,,,,,,,,,,,,,,,,,,,,,,,,,,,,,,
,,,,,,9,0,9,0,1,X V Q F H G B L J M P D K C T S W R N Z,5e88d5111d250056d60a23f1,23,Mężczyzna,2022-06-11_09h19.36.229,task,2021.1.4,Win32,60.08532116,6299f149e92ead563fba08ef,62a441f7310d0b846e4ca07a,,,,,,,,,,,,,,,,,,,,,,,,,,,,,,,,,,,,,,,,,,,,,,,,,,,,,,,,,,,,,,,,,,,,,,,,,,,,,,,,,,,,,,,,,,,,,,,,,,,,,
,,,,,,,,,,,,5e88d5111d250056d60a23f1,23,Mężczyzna,2022-06-11_09h19.36.229,task,2021.1.4,Win32,60.08532116,6299f149e92ead563fba08ef,62a441f7310d0b846e4ca07a,whmcslfbtn,"[""w"",""h"",""m"",""c"",""s"",""l"",""f"",""b"",""t"",""n""]","[3.735399999998492,5.070899999998517,5.65489999999852,6.390799999997,6.817000000000007,7.494899999998495,7.894700000002956,8.15879999999703,8.502799999997023,10.44679999999704,11.974799999997003]",1,WHMCSLFBTN,22,0,22,0,1,,,,,,,,,,,,,,,,,,,,,,,,,,,,,,,,,,,,,,,,,,,,,,,,,,,,,,,,,,,,,,,,,,,,,,,,,,,,,,,,,,,,,,,,,,,
,,,,,,0,0,0,0,1,X V Q F H G B L J M P D K C T S W R N Z,5e88d5111d250056d60a23f1,23,Mężczyzna,2022-06-11_09h19.36.229,task,2021.1.4,Win32,60.08532116,6299f149e92ead563fba08ef,62a441f7310d0b846e4ca07a,,,,,,,,,,,,,,,,,,,,,,,,,,,,,,,,,,,,,,,,,,,,,,,,,,,,,,,,,,,,,,,,,,,,,,,,,,,,,,,,,,,,,,,,,,,,,,,,,,,,,
,,,,,,1,0,1,0,1,X V Q F H G B L J M P D K C T S W R N Z,5e88d5111d250056d60a23f1,23,Mężczyzna,2022-06-11_09h19.36.229,task,2021.1.4,Win32,60.08532116,6299f149e92ead563fba08ef,62a441f7310d0b846e4ca07a,,,,,,,,,,,,,,,,,,,,,,,,,,,,,,,,,,,,,,,,,,,,,,,,,,,,,,,,,,,,,,,,,,,,,,,,,,,,,,,,,,,,,,,,,,,,,,,,,,,,,
,,,,,,2,0,2,0,1,X V Q F H G B L J M P D K C T S W R N Z,5e88d5111d250056d60a23f1,23,Mężczyzna,2022-06-11_09h19.36.229,task,2021.1.4,Win32,60.08532116,6299f149e92ead563fba08ef,62a441f7310d0b846e4ca07a,,,,,,,,,,,,,,,,,,,,,,,,,,,,,,,,,,,,,,,,,,,,,,,,,,,,,,,,,,,,,,,,,,,,,,,,,,,,,,,,,,,,,,,,,,,,,,,,,,,,,
,,,,,,3,0,3,0,1,X V Q F H G B L J M P D K C T S W R N Z,5e88d5111d250056d60a23f1,23,Mężczyzna,2022-06-11_09h19.36.229,task,2021.1.4,Win32,60.08532116,6299f149e92ead563fba08ef,62a441f7310d0b846e4ca07a,,,,,,,,,,,,,,,,,,,,,,,,,,,,,,,,,,,,,,,,,,,,,,,,,,,,,,,,,,,,,,,,,,,,,,,,,,,,,,,,,,,,,,,,,,,,,,,,,,,,,
,,,,,,4,0,4,0,1,X V Q F H G B L J M P D K C T S W R N Z,5e88d5111d250056d60a23f1,23,Mężczyzna,2022-06-11_09h19.36.229,task,2021.1.4,Win32,60.08532116,6299f149e92ead563fba08ef,62a441f7310d0b846e4ca07a,,,,,,,,,,,,,,,,,,,,,,,,,,,,,,,,,,,,,,,,,,,,,,,,,,,,,,,,,,,,,,,,,,,,,,,,,,,,,,,,,,,,,,,,,,,,,,,,,,,,,
,,,,,,5,0,5,0,1,X V Q F H G B L J M P D K C T S W R N Z,5e88d5111d250056d60a23f1,23,Mężczyzna,2022-06-11_09h19.36.229,task,2021.1.4,Win32,60.08532116,6299f149e92ead563fba08ef,62a441f7310d0b846e4ca07a,,,,,,,,,,,,,,,,,,,,,,,,,,,,,,,,,,,,,,,,,,,,,,,,,,,,,,,,,,,,,,,,,,,,,,,,,,,,,,,,,,,,,,,,,,,,,,,,,,,,,
,,,,,,6,0,6,0,1,X V Q F H G B L J M P D K C T S W R N Z,5e88d5111d250056d60a23f1,23,Mężczyzna,2022-06-11_09h19.36.229,task,2021.1.4,Win32,60.08532116,6299f149e92ead563fba08ef,62a441f7310d0b846e4ca07a,,,,,,,,,,,,,,,,,,,,,,,,,,,,,,,,,,,,,,,,,,,,,,,,,,,,,,,,,,,,,,,,,,,,,,,,,,,,,,,,,,,,,,,,,,,,,,,,,,,,,
,,,,,,7,0,7,0,1,X V Q F H G B L J M P D K C T S W R N Z,5e88d5111d250056d60a23f1,23,Mężczyzna,2022-06-11_09h19.36.229,task,2021.1.4,Win32,60.08532116,6299f149e92ead563fba08ef,62a441f7310d0b846e4ca07a,,,,,,,,,,,,,,,,,,,,,,,,,,,,,,,,,,,,,,,,,,,,,,,,,,,,,,,,,,,,,,,,,,,,,,,,,,,,,,,,,,,,,,,,,,,,,,,,,,,,,
,,,,,,8,0,8,0,1,X V Q F H G B L J M P D K C T S W R N Z,5e88d5111d250056d60a23f1,23,Mężczyzna,2022-06-11_09h19.36.229,task,2021.1.4,Win32,60.08532116,6299f149e92ead563fba08ef,62a441f7310d0b846e4ca07a,,,,,,,,,,,,,,,,,,,,,,,,,,,,,,,,,,,,,,,,,,,,,,,,,,,,,,,,,,,,,,,,,,,,,,,,,,,,,,,,,,,,,,,,,,,,,,,,,,,,,
,,,,,,9,0,9,0,1,X V Q F H G B L J M P D K C T S W R N Z,5e88d5111d250056d60a23f1,23,Mężczyzna,2022-06-11_09h19.36.229,task,2021.1.4,Win32,60.08532116,6299f149e92ead563fba08ef,62a441f7310d0b846e4ca07a,,,,,,,,,,,,,,,,,,,,,,,,,,,,,,,,,,,,,,,,,,,,,,,,,,,,,,,,,,,,,,,,,,,,,,,,,,,,,,,,,,,,,,,,,,,,,,,,,,,,,
,,,,,,10,0,10,0,1,X V Q F H G B L J M P D K C T S W R N Z,5e88d5111d250056d60a23f1,23,Mężczyzna,2022-06-11_09h19.36.229,task,2021.1.4,Win32,60.08532116,6299f149e92ead563fba08ef,62a441f7310d0b846e4ca07a,,,,,,,,,,,,,,,,,,,,,,,,,,,,,,,,,,,,,,,,,,,,,,,,,,,,,,,,,,,,,,,,,,,,,,,,,,,,,,,,,,,,,,,,,,,,,,,,,,,,,
,,,,,,,,,,,,5e88d5111d250056d60a23f1,23,Mężczyzna,2022-06-11_09h19.36.229,task,2021.1.4,Win32,60.08532116,6299f149e92ead563fba08ef,62a441f7310d0b846e4ca07a,vcmhftljcps,"[""v"",""c"",""m"",""h"",""f"",""t"",""l"",""j"",""c"",""p"",""s""]","[3.9174999999999613,4.210399999998515,4.890700000002994,6.138700000002984,6.634299999996983,7.906499999999994,8.842700000002992,10.03439999999847,10.330600000001482,10.778600000001461,10.994700000002979,15.450899999998512]",0,VCMHFTLJCPG,23,0,23,0,1,,,,,,,,,,,,,,,,,,,,,,,,,,,,,,,,,,,,,,,,,,,,,,,,,,,,,,,,,,,,,,,,,,,,,,,,,,,,,,,,,,,,,,,,,,,
,,,,,,0,0,0,0,1,X V Q F H G B L J M P D K C T S W R N Z,5e88d5111d250056d60a23f1,23,Mężczyzna,2022-06-11_09h19.36.229,task,2021.1.4,Win32,60.08532116,6299f149e92ead563fba08ef,62a441f7310d0b846e4ca07a,,,,,,,,,,,,,,,,,,,,,,,,,,,,,,,,,,,,,,,,,,,,,,,,,,,,,,,,,,,,,,,,,,,,,,,,,,,,,,,,,,,,,,,,,,,,,,,,,,,,,
,,,,,,1,0,1,0,1,X V Q F H G B L J M P D K C T S W R N Z,5e88d5111d250056d60a23f1,23,Mężczyzna,2022-06-11_09h19.36.229,task,2021.1.4,Win32,60.08532116,6299f149e92ead563fba08ef,62a441f7310d0b846e4ca07a,,,,,,,,,,,,,,,,,,,,,,,,,,,,,,,,,,,,,,,,,,,,,,,,,,,,,,,,,,,,,,,,,,,,,,,,,,,,,,,,,,,,,,,,,,,,,,,,,,,,,
,,,,,,2,0,2,0,1,X V Q F H G B L J M P D K C T S W R N Z,5e88d5111d250056d60a23f1,23,Mężczyzna,2022-06-11_09h19.36.229,task,2021.1.4,Win32,60.08532116,6299f149e92ead563fba08ef,62a441f7310d0b846e4ca07a,,,,,,,,,,,,,,,,,,,,,,,,,,,,,,,,,,,,,,,,,,,,,,,,,,,,,,,,,,,,,,,,,,,,,,,,,,,,,,,,,,,,,,,,,,,,,,,,,,,,,
,,,,,,3,0,3,0,1,X V Q F H G B L J M P D K C T S W R N Z,5e88d5111d250056d60a23f1,23,Mężczyzna,2022-06-11_09h19.36.229,task,2021.1.4,Win32,60.08532116,6299f149e92ead563fba08ef,62a441f7310d0b846e4ca07a,,,,,,,,,,,,,,,,,,,,,,,,,,,,,,,,,,,,,,,,,,,,,,,,,,,,,,,,,,,,,,,,,,,,,,,,,,,,,,,,,,,,,,,,,,,,,,,,,,,,,
,,,,,,4,0,4,0,1,X V Q F H G B L J M P D K C T S W R N Z,5e88d5111d250056d60a23f1,23,Mężczyzna,2022-06-11_09h19.36.229,task,2021.1.4,Win32,60.08532116,6299f149e92ead563fba08ef,62a441f7310d0b846e4ca07a,,,,,,,,,,,,,,,,,,,,,,,,,,,,,,,,,,,,,,,,,,,,,,,,,,,,,,,,,,,,,,,,,,,,,,,,,,,,,,,,,,,,,,,,,,,,,,,,,,,,,
,,,,,,5,0,5,0,1,X V Q F H G B L J M P D K C T S W R N Z,5e88d5111d250056d60a23f1,23,Mężczyzna,2022-06-11_09h19.36.229,task,2021.1.4,Win32,60.08532116,6299f149e92ead563fba08ef,62a441f7310d0b846e4ca07a,,,,,,,,,,,,,,,,,,,,,,,,,,,,,,,,,,,,,,,,,,,,,,,,,,,,,,,,,,,,,,,,,,,,,,,,,,,,,,,,,,,,,,,,,,,,,,,,,,,,,
,,,,,,6,0,6,0,1,X V Q F H G B L J M P D K C T S W R N Z,5e88d5111d250056d60a23f1,23,Mężczyzna,2022-06-11_09h19.36.229,task,2021.1.4,Win32,60.08532116,6299f149e92ead563fba08ef,62a441f7310d0b846e4ca07a,,,,,,,,,,,,,,,,,,,,,,,,,,,,,,,,,,,,,,,,,,,,,,,,,,,,,,,,,,,,,,,,,,,,,,,,,,,,,,,,,,,,,,,,,,,,,,,,,,,,,
,,,,,,7,0,7,0,1,X V Q F H G B L J M P D K C T S W R N Z,5e88d5111d250056d60a23f1,23,Mężczyzna,2022-06-11_09h19.36.229,task,2021.1.4,Win32,60.08532116,6299f149e92ead563fba08ef,62a441f7310d0b846e4ca07a,,,,,,,,,,,,,,,,,,,,,,,,,,,,,,,,,,,,,,,,,,,,,,,,,,,,,,,,,,,,,,,,,,,,,,,,,,,,,,,,,,,,,,,,,,,,,,,,,,,,,
,,,,,,8,0,8,0,1,X V Q F H G B L J M P D K C T S W R N Z,5e88d5111d250056d60a23f1,23,Mężczyzna,2022-06-11_09h19.36.229,task,2021.1.4,Win32,60.08532116,6299f149e92ead563fba08ef,62a441f7310d0b846e4ca07a,,,,,,,,,,,,,,,,,,,,,,,,,,,,,,,,,,,,,,,,,,,,,,,,,,,,,,,,,,,,,,,,,,,,,,,,,,,,,,,,,,,,,,,,,,,,,,,,,,,,,
,,,,,,9,0,9,0,1,X V Q F H G B L J M P D K C T S W R N Z,5e88d5111d250056d60a23f1,23,Mężczyzna,2022-06-11_09h19.36.229,task,2021.1.4,Win32,60.08532116,6299f149e92ead563fba08ef,62a441f7310d0b846e4ca07a,,,,,,,,,,,,,,,,,,,,,,,,,,,,,,,,,,,,,,,,,,,,,,,,,,,,,,,,,,,,,,,,,,,,,,,,,,,,,,,,,,,,,,,,,,,,,,,,,,,,,
,,,,,,10,0,10,0,1,X V Q F H G B L J M P D K C T S W R N Z,5e88d5111d250056d60a23f1,23,Mężczyzna,2022-06-11_09h19.36.229,task,2021.1.4,Win32,60.08532116,6299f149e92ead563fba08ef,62a441f7310d0b846e4ca07a,,,,,,,,,,,,,,,,,,,,,,,,,,,,,,,,,,,,,,,,,,,,,,,,,,,,,,,,,,,,,,,,,,,,,,,,,,,,,,,,,,,,,,,,,,,,,,,,,,,,,
,,,,,,,,,,,,5e88d5111d250056d60a23f1,23,Mężczyzna,2022-06-11_09h19.36.229,task,2021.1.4,Win32,60.08532116,6299f149e92ead563fba08ef,62a441f7310d0b846e4ca07a,nmnrjffndtk,"[""n"",""m"",""n"",""r"",""j"",""f"",""f"",""n"",""d"",""t"",""k""]","[2.6271999999954687,3.3541000000014947,4.538199999995527,5.121999999999957,6.1306000000014365,6.517100000001506,9.706299999996986,10.354199999995558,10.650199999995493,12.778600000001461,13.153799999996977,15.33029999999701]",1,NMNRJFFNDTK,24,0,24,0,1,,,,,,,,,,,,,,,,,,,,,,,,,,,,,,,,,,,,,,,,,,,,,,,,,,,,,,,,,,,,,,,,,,,,,,,,,,,,,,,,,,,,,,,,,,,
,,,,,,0,0,0,0,1,X V Q F H G B L J M P D K C T S W R N Z,5e88d5111d250056d60a23f1,23,Mężczyzna,2022-06-11_09h19.36.229,task,2021.1.4,Win32,60.08532116,6299f149e92ead563fba08ef,62a441f7310d0b846e4ca07a,,,,,,,,,,,,,,,,,,,,,,,,,,,,,,,,,,,,,,,,,,,,,,,,,,,,,,,,,,,,,,,,,,,,,,,,,,,,,,,,,,,,,,,,,,,,,,,,,,,,,
,,,,,,1,0,1,0,1,X V Q F H G B L J M P D K C T S W R N Z,5e88d5111d250056d60a23f1,23,Mężczyzna,2022-06-11_09h19.36.229,task,2021.1.4,Win32,60.08532116,6299f149e92ead563fba08ef,62a441f7310d0b846e4ca07a,,,,,,,,,,,,,,,,,,,,,,,,,,,,,,,,,,,,,,,,,,,,,,,,,,,,,,,,,,,,,,,,,,,,,,,,,,,,,,,,,,,,,,,,,,,,,,,,,,,,,
,,,,,,2,0,2,0,1,X V Q F H G B L J M P D K C T S W R N Z,5e88d5111d250056d60a23f1,23,Mężczyzna,2022-06-11_09h19.36.229,task,2021.1.4,Win32,60.08532116,6299f149e92ead563fba08ef,62a441f7310d0b846e4ca07a,,,,,,,,,,,,,,,,,,,,,,,,,,,,,,,,,,,,,,,,,,,,,,,,,,,,,,,,,,,,,,,,,,,,,,,,,,,,,,,,,,,,,,,,,,,,,,,,,,,,,
,,,,,,3,0,3,0,1,X V Q F H G B L J M P D K C T S W R N Z,5e88d5111d250056d60a23f1,23,Mężczyzna,2022-06-11_09h19.36.229,task,2021.1.4,Win32,60.08532116,6299f149e92ead563fba08ef,62a441f7310d0b846e4ca07a,,,,,,,,,,,,,,,,,,,,,,,,,,,,,,,,,,,,,,,,,,,,,,,,,,,,,,,,,,,,,,,,,,,,,,,,,,,,,,,,,,,,,,,,,,,,,,,,,,,,,
,,,,,,4,0,4,0,1,X V Q F H G B L J M P D K C T S W R N Z,5e88d5111d250056d60a23f1,23,Mężczyzna,2022-06-11_09h19.36.229,task,2021.1.4,Win32,60.08532116,6299f149e92ead563fba08ef,62a441f7310d0b846e4ca07a,,,,,,,,,,,,,,,,,,,,,,,,,,,,,,,,,,,,,,,,,,,,,,,,,,,,,,,,,,,,,,,,,,,,,,,,,,,,,,,,,,,,,,,,,,,,,,,,,,,,,
,,,,,,5,0,5,0,1,X V Q F H G B L J M P D K C T S W R N Z,5e88d5111d250056d60a23f1,23,Mężczyzna,2022-06-11_09h19.36.229,task,2021.1.4,Win32,60.08532116,6299f149e92ead563fba08ef,62a441f7310d0b846e4ca07a,,,,,,,,,,,,,,,,,,,,,,,,,,,,,,,,,,,,,,,,,,,,,,,,,,,,,,,,,,,,,,,,,,,,,,,,,,,,,,,,,,,,,,,,,,,,,,,,,,,,,
,,,,,,6,0,6,0,1,X V Q F H G B L J M P D K C T S W R N Z,5e88d5111d250056d60a23f1,23,Mężczyzna,2022-06-11_09h19.36.229,task,2021.1.4,Win32,60.08532116,6299f149e92ead563fba08ef,62a441f7310d0b846e4ca07a,,,,,,,,,,,,,,,,,,,,,,,,,,,,,,,,,,,,,,,,,,,,,,,,,,,,,,,,,,,,,,,,,,,,,,,,,,,,,,,,,,,,,,,,,,,,,,,,,,,,,
,,,,,,7,0,7,0,1,X V Q F H G B L J M P D K C T S W R N Z,5e88d5111d250056d60a23f1,23,Mężczyzna,2022-06-11_09h19.36.229,task,2021.1.4,Win32,60.08532116,6299f149e92ead563fba08ef,62a441f7310d0b846e4ca07a,,,,,,,,,,,,,,,,,,,,,,,,,,,,,,,,,,,,,,,,,,,,,,,,,,,,,,,,,,,,,,,,,,,,,,,,,,,,,,,,,,,,,,,,,,,,,,,,,,,,,
,,,,,,8,0,8,0,1,X V Q F H G B L J M P D K C T S W R N Z,5e88d5111d250056d60a23f1,23,Mężczyzna,2022-06-11_09h19.36.229,task,2021.1.4,Win32,60.08532116,6299f149e92ead563fba08ef,62a441f7310d0b846e4ca07a,,,,,,,,,,,,,,,,,,,,,,,,,,,,,,,,,,,,,,,,,,,,,,,,,,,,,,,,,,,,,,,,,,,,,,,,,,,,,,,,,,,,,,,,,,,,,,,,,,,,,
,,,,,,9,0,9,0,1,X V Q F H G B L J M P D K C T S W R N Z,5e88d5111d250056d60a23f1,23,Mężczyzna,2022-06-11_09h19.36.229,task,2021.1.4,Win32,60.08532116,6299f149e92ead563fba08ef,62a441f7310d0b846e4ca07a,,,,,,,,,,,,,,,,,,,,,,,,,,,,,,,,,,,,,,,,,,,,,,,,,,,,,,,,,,,,,,,,,,,,,,,,,,,,,,,,,,,,,,,,,,,,,,,,,,,,,
,,,,,,10,0,10,0,1,X V Q F H G B L J M P D K C T S W R N Z,5e88d5111d250056d60a23f1,23,Mężczyzna,2022-06-11_09h19.36.229,task,2021.1.4,Win32,60.08532116,6299f149e92ead563fba08ef,62a441f7310d0b846e4ca07a,,,,,,,,,,,,,,,,,,,,,,,,,,,,,,,,,,,,,,,,,,,,,,,,,,,,,,,,,,,,,,,,,,,,,,,,,,,,,,,,,,,,,,,,,,,,,,,,,,,,,
,,,,,,,,,,,,5e88d5111d250056d60a23f1,23,Mężczyzna,2022-06-11_09h19.36.229,task,2021.1.4,Win32,60.08532116,6299f149e92ead563fba08ef,62a441f7310d0b846e4ca07a,fbczbbpmdpd,"[""f"",""b"",""c"",""z"",""b"",""b"",""p"",""m"",""d"",""p"",""d""]","[4.655900000006,5.017000000000053,6.167400000005955,7.623800000004508,8.183700000003,8.40030000000445,8.95150000000001,9.272800000004509,13.217100000001551,13.400499999999965,13.56730000000448,14.650800000004438]",1,FBCZBBPMDPD,25,0,25,0,1,,,,,,,,,,,,,,,,,,,,,,,,,,,,,,,,,,,,,,,,,,,,,,,,,,,,,,,,,,,,,,,,,,,,,,,,,,,,,,,,,,,,,,,,,,,
,,,,,,0,0,0,0,1,X V Q F H G B L J M P D K C T S W R N Z,5e88d5111d250056d60a23f1,23,Mężczyzna,2022-06-11_09h19.36.229,task,2021.1.4,Win32,60.08532116,6299f149e92ead563fba08ef,62a441f7310d0b846e4ca07a,,,,,,,,,,,,,,,,,,,,,,,,,,,,,,,,,,,,,,,,,,,,,,,,,,,,,,,,,,,,,,,,,,,,,,,,,,,,,,,,,,,,,,,,,,,,,,,,,,,,,
,,,,,,1,0,1,0,1,X V Q F H G B L J M P D K C T S W R N Z,5e88d5111d250056d60a23f1,23,Mężczyzna,2022-06-11_09h19.36.229,task,2021.1.4,Win32,60.08532116,6299f149e92ead563fba08ef,62a441f7310d0b846e4ca07a,,,,,,,,,,,,,,,,,,,,,,,,,,,,,,,,,,,,,,,,,,,,,,,,,,,,,,,,,,,,,,,,,,,,,,,,,,,,,,,,,,,,,,,,,,,,,,,,,,,,,
,,,,,,2,0,2,0,1,X V Q F H G B L J M P D K C T S W R N Z,5e88d5111d250056d60a23f1,23,Mężczyzna,2022-06-11_09h19.36.229,task,2021.1.4,Win32,60.08532116,6299f149e92ead563fba08ef,62a441f7310d0b846e4ca07a,,,,,,,,,,,,,,,,,,,,,,,,,,,,,,,,,,,,,,,,,,,,,,,,,,,,,,,,,,,,,,,,,,,,,,,,,,,,,,,,,,,,,,,,,,,,,,,,,,,,,
,,,,,,3,0,3,0,1,X V Q F H G B L J M P D K C T S W R N Z,5e88d5111d250056d60a23f1,23,Mężczyzna,2022-06-11_09h19.36.229,task,2021.1.4,Win32,60.08532116,6299f149e92ead563fba08ef,62a441f7310d0b846e4ca07a,,,,,,,,,,,,,,,,,,,,,,,,,,,,,,,,,,,,,,,,,,,,,,,,,,,,,,,,,,,,,,,,,,,,,,,,,,,,,,,,,,,,,,,,,,,,,,,,,,,,,
,,,,,,4,0,4,0,1,X V Q F H G B L J M P D K C T S W R N Z,5e88d5111d250056d60a23f1,23,Mężczyzna,2022-06-11_09h19.36.229,task,2021.1.4,Win32,60.08532116,6299f149e92ead563fba08ef,62a441f7310d0b846e4ca07a,,,,,,,,,,,,,,,,,,,,,,,,,,,,,,,,,,,,,,,,,,,,,,,,,,,,,,,,,,,,,,,,,,,,,,,,,,,,,,,,,,,,,,,,,,,,,,,,,,,,,
,,,,,,5,0,5,0,1,X V Q F H G B L J M P D K C T S W R N Z,5e88d5111d250056d60a23f1,23,Mężczyzna,2022-06-11_09h19.36.229,task,2021.1.4,Win32,60.08532116,6299f149e92ead563fba08ef,62a441f7310d0b846e4ca07a,,,,,,,,,,,,,,,,,,,,,,,,,,,,,,,,,,,,,,,,,,,,,,,,,,,,,,,,,,,,,,,,,,,,,,,,,,,,,,,,,,,,,,,,,,,,,,,,,,,,,
,,,,,,6,0,6,0,1,X V Q F H G B L J M P D K C T S W R N Z,5e88d5111d250056d60a23f1,23,Mężczyzna,2022-06-11_09h19.36.229,task,2021.1.4,Win32,60.08532116,6299f149e92ead563fba08ef,62a441f7310d0b846e4ca07a,,,,,,,,,,,,,,,,,,,,,,,,,,,,,,,,,,,,,,,,,,,,,,,,,,,,,,,,,,,,,,,,,,,,,,,,,,,,,,,,,,,,,,,,,,,,,,,,,,,,,
,,,,,,7,0,7,0,1,X V Q F H G B L J M P D K C T S W R N Z,5e88d5111d250056d60a23f1,23,Mężczyzna,2022-06-11_09h19.36.229,task,2021.1.4,Win32,60.08532116,6299f149e92ead563fba08ef,62a441f7310d0b846e4ca07a,,,,,,,,,,,,,,,,,,,,,,,,,,,,,,,,,,,,,,,,,,,,,,,,,,,,,,,,,,,,,,,,,,,,,,,,,,,,,,,,,,,,,,,,,,,,,,,,,,,,,
,,,,,,8,0,8,0,1,X V Q F H G B L J M P D K C T S W R N Z,5e88d5111d250056d60a23f1,23,Mężczyzna,2022-06-11_09h19.36.229,task,2021.1.4,Win32,60.08532116,6299f149e92ead563fba08ef,62a441f7310d0b846e4ca07a,,,,,,,,,,,,,,,,,,,,,,,,,,,,,,,,,,,,,,,,,,,,,,,,,,,,,,,,,,,,,,,,,,,,,,,,,,,,,,,,,,,,,,,,,,,,,,,,,,,,,
,,,,,,9,0,9,0,1,X V Q F H G B L J M P D K C T S W R N Z,5e88d5111d250056d60a23f1,23,Mężczyzna,2022-06-11_09h19.36.229,task,2021.1.4,Win32,60.08532116,6299f149e92ead563fba08ef,62a441f7310d0b846e4ca07a,,,,,,,,,,,,,,,,,,,,,,,,,,,,,,,,,,,,,,,,,,,,,,,,,,,,,,,,,,,,,,,,,,,,,,,,,,,,,,,,,,,,,,,,,,,,,,,,,,,,,
,,,,,,10,0,10,0,1,X V Q F H G B L J M P D K C T S W R N Z,5e88d5111d250056d60a23f1,23,Mężczyzna,2022-06-11_09h19.36.229,task,2021.1.4,Win32,60.08532116,6299f149e92ead563fba08ef,62a441f7310d0b846e4ca07a,,,,,,,,,,,,,,,,,,,,,,,,,,,,,,,,,,,,,,,,,,,,,,,,,,,,,,,,,,,,,,,,,,,,,,,,,,,,,,,,,,,,,,,,,,,,,,,,,,,,,
,,,,,,11,0,11,0,1,X V Q F H G B L J M P D K C T S W R N Z,5e88d5111d250056d60a23f1,23,Mężczyzna,2022-06-11_09h19.36.229,task,2021.1.4,Win32,60.08532116,6299f149e92ead563fba08ef,62a441f7310d0b846e4ca07a,,,,,,,,,,,,,,,,,,,,,,,,,,,,,,,,,,,,,,,,,,,,,,,,,,,,,,,,,,,,,,,,,,,,,,,,,,,,,,,,,,,,,,,,,,,,,,,,,,,,,
,,,,,,,,,,,,5e88d5111d250056d60a23f1,23,Mężczyzna,2022-06-11_09h19.36.229,task,2021.1.4,Win32,60.08532116,6299f149e92ead563fba08ef,62a441f7310d0b846e4ca07a,pkcjqfkq,"[""p"",""k"",""c"",""j"",""q"",""f"",""k"",""q""]","[1.8208999999984599,3.094199999995567,3.4125999999939722,4.380599999994047,4.724799999997003,6.9671999999955005,8.628799999997,8.852499999999964,9.508699999995542]",0,PCKHQRNQQPQJ,26,0,26,0,1,,,,,,,,,,,,,,,,,,,,,,,,,,,,,,,,,,,,,,,,,,,,,,,,,,,,,,,,,,,,,,,,,,,,,,,,,,,,,,,,,,,,,,,,,,,
,,,,,,0,0,0,0,1,X V Q F H G B L J M P D K C T S W R N Z,5e88d5111d250056d60a23f1,23,Mężczyzna,2022-06-11_09h19.36.229,task,2021.1.4,Win32,60.08532116,6299f149e92ead563fba08ef,62a441f7310d0b846e4ca07a,,,,,,,,,,,,,,,,,,,,,,,,,,,,,,,,,,,,,,,,,,,,,,,,,,,,,,,,,,,,,,,,,,,,,,,,,,,,,,,,,,,,,,,,,,,,,,,,,,,,,
,,,,,,1,0,1,0,1,X V Q F H G B L J M P D K C T S W R N Z,5e88d5111d250056d60a23f1,23,Mężczyzna,2022-06-11_09h19.36.229,task,2021.1.4,Win32,60.08532116,6299f149e92ead563fba08ef,62a441f7310d0b846e4ca07a,,,,,,,,,,,,,,,,,,,,,,,,,,,,,,,,,,,,,,,,,,,,,,,,,,,,,,,,,,,,,,,,,,,,,,,,,,,,,,,,,,,,,,,,,,,,,,,,,,,,,
,,,,,,2,0,2,0,1,X V Q F H G B L J M P D K C T S W R N Z,5e88d5111d250056d60a23f1,23,Mężczyzna,2022-06-11_09h19.36.229,task,2021.1.4,Win32,60.08532116,6299f149e92ead563fba08ef,62a441f7310d0b846e4ca07a,,,,,,,,,,,,,,,,,,,,,,,,,,,,,,,,,,,,,,,,,,,,,,,,,,,,,,,,,,,,,,,,,,,,,,,,,,,,,,,,,,,,,,,,,,,,,,,,,,,,,
,,,,,,3,0,3,0,1,X V Q F H G B L J M P D K C T S W R N Z,5e88d5111d250056d60a23f1,23,Mężczyzna,2022-06-11_09h19.36.229,task,2021.1.4,Win32,60.08532116,6299f149e92ead563fba08ef,62a441f7310d0b846e4ca07a,,,,,,,,,,,,,,,,,,,,,,,,,,,,,,,,,,,,,,,,,,,,,,,,,,,,,,,,,,,,,,,,,,,,,,,,,,,,,,,,,,,,,,,,,,,,,,,,,,,,,
,,,,,,4,0,4,0,1,X V Q F H G B L J M P D K C T S W R N Z,5e88d5111d250056d60a23f1,23,Mężczyzna,2022-06-11_09h19.36.229,task,2021.1.4,Win32,60.08532116,6299f149e92ead563fba08ef,62a441f7310d0b846e4ca07a,,,,,,,,,,,,,,,,,,,,,,,,,,,,,,,,,,,,,,,,,,,,,,,,,,,,,,,,,,,,,,,,,,,,,,,,,,,,,,,,,,,,,,,,,,,,,,,,,,,,,
,,,,,,5,0,5,0,1,X V Q F H G B L J M P D K C T S W R N Z,5e88d5111d250056d60a23f1,23,Mężczyzna,2022-06-11_09h19.36.229,task,2021.1.4,Win32,60.08532116,6299f149e92ead563fba08ef,62a441f7310d0b846e4ca07a,,,,,,,,,,,,,,,,,,,,,,,,,,,,,,,,,,,,,,,,,,,,,,,,,,,,,,,,,,,,,,,,,,,,,,,,,,,,,,,,,,,,,,,,,,,,,,,,,,,,,
,,,,,,6,0,6,0,1,X V Q F H G B L J M P D K C T S W R N Z,5e88d5111d250056d60a23f1,23,Mężczyzna,2022-06-11_09h19.36.229,task,2021.1.4,Win32,60.08532116,6299f149e92ead563fba08ef,62a441f7310d0b846e4ca07a,,,,,,,,,,,,,,,,,,,,,,,,,,,,,,,,,,,,,,,,,,,,,,,,,,,,,,,,,,,,,,,,,,,,,,,,,,,,,,,,,,,,,,,,,,,,,,,,,,,,,
,,,,,,7,0,7,0,1,X V Q F H G B L J M P D K C T S W R N Z,5e88d5111d250056d60a23f1,23,Mężczyzna,2022-06-11_09h19.36.229,task,2021.1.4,Win32,60.08532116,6299f149e92ead563fba08ef,62a441f7310d0b846e4ca07a,,,,,,,,,,,,,,,,,,,,,,,,,,,,,,,,,,,,,,,,,,,,,,,,,,,,,,,,,,,,,,,,,,,,,,,,,,,,,,,,,,,,,,,,,,,,,,,,,,,,,
,,,,,,8,0,8,0,1,X V Q F H G B L J M P D K C T S W R N Z,5e88d5111d250056d60a23f1,23,Mężczyzna,2022-06-11_09h19.36.229,task,2021.1.4,Win32,60.08532116,6299f149e92ead563fba08ef,62a441f7310d0b846e4ca07a,,,,,,,,,,,,,,,,,,,,,,,,,,,,,,,,,,,,,,,,,,,,,,,,,,,,,,,,,,,,,,,,,,,,,,,,,,,,,,,,,,,,,,,,,,,,,,,,,,,,,
,,,,,,9,0,9,0,1,X V Q F H G B L J M P D K C T S W R N Z,5e88d5111d250056d60a23f1,23,Mężczyzna,2022-06-11_09h19.36.229,task,2021.1.4,Win32,60.08532116,6299f149e92ead563fba08ef,62a441f7310d0b846e4ca07a,,,,,,,,,,,,,,,,,,,,,,,,,,,,,,,,,,,,,,,,,,,,,,,,,,,,,,,,,,,,,,,,,,,,,,,,,,,,,,,,,,,,,,,,,,,,,,,,,,,,,
,,,,,,10,0,10,0,1,X V Q F H G B L J M P D K C T S W R N Z,5e88d5111d250056d60a23f1,23,Mężczyzna,2022-06-11_09h19.36.229,task,2021.1.4,Win32,60.08532116,6299f149e92ead563fba08ef,62a441f7310d0b846e4ca07a,,,,,,,,,,,,,,,,,,,,,,,,,,,,,,,,,,,,,,,,,,,,,,,,,,,,,,,,,,,,,,,,,,,,,,,,,,,,,,,,,,,,,,,,,,,,,,,,,,,,,
,,,,,,11,0,11,0,1,X V Q F H G B L J M P D K C T S W R N Z,5e88d5111d250056d60a23f1,23,Mężczyzna,2022-06-11_09h19.36.229,task,2021.1.4,Win32,60.08532116,6299f149e92ead563fba08ef,62a441f7310d0b846e4ca07a,,,,,,,,,,,,,,,,,,,,,,,,,,,,,,,,,,,,,,,,,,,,,,,,,,,,,,,,,,,,,,,,,,,,,,,,,,,,,,,,,,,,,,,,,,,,,,,,,,,,,
,,,,,,,,,,,,5e88d5111d250056d60a23f1,23,Mężczyzna,2022-06-11_09h19.36.229,task,2021.1.4,Win32,60.08532116,6299f149e92ead563fba08ef,62a441f7310d0b846e4ca07a,bmhpwejgfd,"[""b"",""m"",""h"",""p"",""w"",""e"",""j"",""g"",""f"",""d""]","[3.283899999998539,3.883799999997109,4.662699999995539,5.222600000001535,5.847000000000094,6.102399999998511,6.633799999997109,6.702799999997069,7.2338999999985845,7.767000000000053,8.310500000000047]",0,MBPGTJWKNHQH,27,0,27,0,1,,,,,,,,,,,,,,,,,,,,,,,,,,,,,,,,,,,,,,,,,,,,,,,,,,,,,,,,,,,,,,,,,,,,,,,,,,,,,,,,,,,,,,,,,,,
,,,,,,0,0,0,0,1,X V Q F H G B L J M P D K C T S W R N Z,5e88d5111d250056d60a23f1,23,Mężczyzna,2022-06-11_09h19.36.229,task,2021.1.4,Win32,60.08532116,6299f149e92ead563fba08ef,62a441f7310d0b846e4ca07a,,,,,,,,,,,,,,,,,,,,,,,,,,,,,,,,,,,,,,,,,,,,,,,,,,,,,,,,,,,,,,,,,,,,,,,,,,,,,,,,,,,,,,,,,,,,,,,,,,,,,
,,,,,,1,0,1,0,1,X V Q F H G B L J M P D K C T S W R N Z,5e88d5111d250056d60a23f1,23,Mężczyzna,2022-06-11_09h19.36.229,task,2021.1.4,Win32,60.08532116,6299f149e92ead563fba08ef,62a441f7310d0b846e4ca07a,,,,,,,,,,,,,,,,,,,,,,,,,,,,,,,,,,,,,,,,,,,,,,,,,,,,,,,,,,,,,,,,,,,,,,,,,,,,,,,,,,,,,,,,,,,,,,,,,,,,,
,,,,,,2,0,2,0,1,X V Q F H G B L J M P D K C T S W R N Z,5e88d5111d250056d60a23f1,23,Mężczyzna,2022-06-11_09h19.36.229,task,2021.1.4,Win32,60.08532116,6299f149e92ead563fba08ef,62a441f7310d0b846e4ca07a,,,,,,,,,,,,,,,,,,,,,,,,,,,,,,,,,,,,,,,,,,,,,,,,,,,,,,,,,,,,,,,,,,,,,,,,,,,,,,,,,,,,,,,,,,,,,,,,,,,,,
,,,,,,3,0,3,0,1,X V Q F H G B L J M P D K C T S W R N Z,5e88d5111d250056d60a23f1,23,Mężczyzna,2022-06-11_09h19.36.229,task,2021.1.4,Win32,60.08532116,6299f149e92ead563fba08ef,62a441f7310d0b846e4ca07a,,,,,,,,,,,,,,,,,,,,,,,,,,,,,,,,,,,,,,,,,,,,,,,,,,,,,,,,,,,,,,,,,,,,,,,,,,,,,,,,,,,,,,,,,,,,,,,,,,,,,
,,,,,,4,0,4,0,1,X V Q F H G B L J M P D K C T S W R N Z,5e88d5111d250056d60a23f1,23,Mężczyzna,2022-06-11_09h19.36.229,task,2021.1.4,Win32,60.08532116,6299f149e92ead563fba08ef,62a441f7310d0b846e4ca07a,,,,,,,,,,,,,,,,,,,,,,,,,,,,,,,,,,,,,,,,,,,,,,,,,,,,,,,,,,,,,,,,,,,,,,,,,,,,,,,,,,,,,,,,,,,,,,,,,,,,,
,,,,,,5,0,5,0,1,X V Q F H G B L J M P D K C T S W R N Z,5e88d5111d250056d60a23f1,23,Mężczyzna,2022-06-11_09h19.36.229,task,2021.1.4,Win32,60.08532116,6299f149e92ead563fba08ef,62a441f7310d0b846e4ca07a,,,,,,,,,,,,,,,,,,,,,,,,,,,,,,,,,,,,,,,,,,,,,,,,,,,,,,,,,,,,,,,,,,,,,,,,,,,,,,,,,,,,,,,,,,,,,,,,,,,,,
,,,,,,6,0,6,0,1,X V Q F H G B L J M P D K C T S W R N Z,5e88d5111d250056d60a23f1,23,Mężczyzna,2022-06-11_09h19.36.229,task,2021.1.4,Win32,60.08532116,6299f149e92ead563fba08ef,62a441f7310d0b846e4ca07a,,,,,,,,,,,,,,,,,,,,,,,,,,,,,,,,,,,,,,,,,,,,,,,,,,,,,,,,,,,,,,,,,,,,,,,,,,,,,,,,,,,,,,,,,,,,,,,,,,,,,
,,,,,,7,0,7,0,1,X V Q F H G B L J M P D K C T S W R N Z,5e88d5111d250056d60a23f1,23,Mężczyzna,2022-06-11_09h19.36.229,task,2021.1.4,Win32,60.08532116,6299f149e92ead563fba08ef,62a441f7310d0b846e4ca07a,,,,,,,,,,,,,,,,,,,,,,,,,,,,,,,,,,,,,,,,,,,,,,,,,,,,,,,,,,,,,,,,,,,,,,,,,,,,,,,,,,,,,,,,,,,,,,,,,,,,,
,,,,,,8,0,8,0,1,X V Q F H G B L J M P D K C T S W R N Z,5e88d5111d250056d60a23f1,23,Mężczyzna,2022-06-11_09h19.36.229,task,2021.1.4,Win32,60.08532116,6299f149e92ead563fba08ef,62a441f7310d0b846e4ca07a,,,,,,,,,,,,,,,,,,,,,,,,,,,,,,,,,,,,,,,,,,,,,,,,,,,,,,,,,,,,,,,,,,,,,,,,,,,,,,,,,,,,,,,,,,,,,,,,,,,,,
,,,,,,9,0,9,0,1,X V Q F H G B L J M P D K C T S W R N Z,5e88d5111d250056d60a23f1,23,Mężczyzna,2022-06-11_09h19.36.229,task,2021.1.4,Win32,60.08532116,6299f149e92ead563fba08ef,62a441f7310d0b846e4ca07a,,,,,,,,,,,,,,,,,,,,,,,,,,,,,,,,,,,,,,,,,,,,,,,,,,,,,,,,,,,,,,,,,,,,,,,,,,,,,,,,,,,,,,,,,,,,,,,,,,,,,
,,,,,,10,0,10,0,1,X V Q F H G B L J M P D K C T S W R N Z,5e88d5111d250056d60a23f1,23,Mężczyzna,2022-06-11_09h19.36.229,task,2021.1.4,Win32,60.08532116,6299f149e92ead563fba08ef,62a441f7310d0b846e4ca07a,,,,,,,,,,,,,,,,,,,,,,,,,,,,,,,,,,,,,,,,,,,,,,,,,,,,,,,,,,,,,,,,,,,,,,,,,,,,,,,,,,,,,,,,,,,,,,,,,,,,,
,,,,,,11,0,11,0,1,X V Q F H G B L J M P D K C T S W R N Z,5e88d5111d250056d60a23f1,23,Mężczyzna,2022-06-11_09h19.36.229,task,2021.1.4,Win32,60.08532116,6299f149e92ead563fba08ef,62a441f7310d0b846e4ca07a,,,,,,,,,,,,,,,,,,,,,,,,,,,,,,,,,,,,,,,,,,,,,,,,,,,,,,,,,,,,,,,,,,,,,,,,,,,,,,,,,,,,,,,,,,,,,,,,,,,,,
,,,,,,,,,,,,5e88d5111d250056d60a23f1,23,Mężczyzna,2022-06-11_09h19.36.229,task,2021.1.4,Win32,60.08532116,6299f149e92ead563fba08ef,62a441f7310d0b846e4ca07a,dpjnbjkfg,"[""d"",""p"",""j"",""n"",""b"",""j"",""k"",""f"",""g""]","[3.0248000000044613,3.3671000000014146,3.69670000000292,4.29660000000149,4.5283000000043785,4.833600000001411,5.280400000005898,5.512800000004404,6.096499999999992,6.3526000000014164]",0,RGTVHWNDPJNB,28,0,28,0,1,,,,,,,,,,,,,,,,,,,,,,,,,,,,,,,,,,,,,,,,,,,,,,,,,,,,,,,,,,,,,,,,,,,,,,,,,,,,,,,,,,,,,,,,,,,
,,,,,,,,,,,,5e88d5111d250056d60a23f1,23,Mężczyzna,2022-06-11_09h19.36.229,task,2021.1.4,Win32,60.08532116,6299f149e92ead563fba08ef,62a441f7310d0b846e4ca07a,,,,,,,,,,,space,14.4133,1,"[""1""]",1,[10.394899999998529],[10.394899999998529],0,0,0,1,1,Practice,2,(4x4) - 15,1,,,,,,,,,,,,,,,,,,,,,,,,,,,,,,,,,,,,,,,,,,,,,,,,,,,,,,,,,,,,,,,,,,,,,,,,,,,
,,,,,,,,,,,,5e88d5111d250056d60a23f1,23,Mężczyzna,2022-06-11_09h19.36.229,task,2021.1.4,Win32,60.08532116,6299f149e92ead563fba08ef,62a441f7310d0b846e4ca07a,,,,,,,,,,,,,3,"[""3""]",1,[6.89920000000302],"[10.394899999998529,6.89920000000302]",0,1,1,3,1,Practice,4,(8/4) + 1,3,,,,,,,,,,,,,,,,,,,,,,,,,,,,,,,,,,,,,,,,,,,,,,,,,,,,,,,,,,,,,,,,,,,,,,,,,,,
,,,,,,,,,,,,5e88d5111d250056d60a23f1,23,Mężczyzna,2022-06-11_09h19.36.229,task,2021.1.4,Win32,60.08532116,6299f149e92ead563fba08ef,62a441f7310d0b846e4ca07a,,,,,,,,,,,,,9,"[""9""]",1,[3.638300000004506],"[10.394899999998529,6.89920000000302,3.638300000004506]",0,2,2,9,1,Practice,10,(20/2) - 1,9,,,,,,,,,,,,,,,,,,,,,,,,,,,,,,,,,,,,,,,,,,,,,,,,,,,,,,,,,,,,,,,,,,,,,,,,,,,
,,,,,,,,,,,,5e88d5111d250056d60a23f1,23,Mężczyzna,2022-06-11_09h19.36.229,task,2021.1.4,Win32,60.08532116,6299f149e92ead563fba08ef,62a441f7310d0b846e4ca07a,,,,,,,,,,,,,5,"[""5""]",1,[4.123600000001488],"[10.394899999998529,6.89920000000302,3.638300000004506,4.123600000001488]",0,3,3,5,1,Practice,6,(4/2) + 3,5,,,,,,,,,,,,,,,,,,,,,,,,,,,,,,,,,,,,,,,,,,,,,,,,,,,,,,,,,,,,,,,,,,,,,,,,,,,
,,,,,,,,,,,,5e88d5111d250056d60a23f1,23,Mężczyzna,2022-06-11_09h19.36.229,task,2021.1.4,Win32,60.08532116,6299f149e92ead563fba08ef,62a441f7310d0b846e4ca07a,,,,,,,,,,,,,7,"[""7""]",1,[17.23810000000151],"[10.394899999998529,6.89920000000302,3.638300000004506,4.123600000001488,17.23810000000151]",0,4,4,7,1,Practice,8,(5x5) - 18,7,,,,,,,,,,,,,,,,,,,,,,,,,,,,,,,,,,,,,,,,,,,,,,,,,,,,,,,,,,,,,,,,,,,,,,,,,,,
,,,,,,,,,,,,5e88d5111d250056d60a23f1,23,Mężczyzna,2022-06-11_09h19.36.229,task,2021.1.4,Win32,60.08532116,6299f149e92ead563fba08ef,62a441f7310d0b846e4ca07a,,,,,,,,,,,,,6,"[""6""]",1,[3.09050000000002],"[10.394899999998529,6.89920000000302,3.638300000004506,4.123600000001488,17.23810000000151,3.09050000000002]",0,5,5,6,1,Practice,7,(25/5) + 1,6,,,,,,,,,,,,,,,,,,,,,,,,,,,,,,,,,,,,,,,,,,,,,,,,,,,,,,,,,,,,,,,,,,,,,,,,,,,
,,,,,,,,,,,,5e88d5111d250056d60a23f1,23,Mężczyzna,2022-06-11_09h19.36.229,task,2021.1.4,Win32,60.08532116,6299f149e92ead563fba08ef,62a441f7310d0b846e4ca07a,,,,,,,,,,,,,2,"[""2""]",1,[4.638499999999908],"[10.394899999998529,6.89920000000302,3.638300000004506,4.123600000001488,17.23810000000151,3.09050000000002,4.638499999999908]",0,6,6,2,1,Practice,3,(4x4) - 14,2,,,,,,,,,,,,,,,,,,,,,,,,,,,,,,,,,,,,,,,,,,,,,,,,,,,,,,,,,,,,,,,,,,,,,,,,,,,
,,,,,,,,,,,,5e88d5111d250056d60a23f1,23,Mężczyzna,2022-06-11_09h19.36.229,task,2021.1.4,Win32,60.08532116,6299f149e92ead563fba08ef,62a441f7310d0b846e4ca07a,,,,,,,,,,,,,0,"[""0""]",1,[2.2186000000015156],"[10.394899999998529,6.89920000000302,3.638300000004506,4.123600000001488,17.23810000000151,3.09050000000002,4.638499999999908,2.2186000000015156]",0,7,7,0,1,Practice,1,(3x3) -  9,0,,,,,,,,,,,,,,,,,,,,,,,,,,,,,,,,,,,,,,,,,,,,,,,,,,,,,,,,,,,,,,,,,,,,,,,,,,,
,,,,,,,,,,,,5e88d5111d250056d60a23f1,23,Mężczyzna,2022-06-11_09h19.36.229,task,2021.1.4,Win32,60.08532116,6299f149e92ead563fba08ef,62a441f7310d0b846e4ca07a,,,,,,,,,,,,,4,"[""4""]",1,[2.94500000000005],"[10.394899999998529,6.89920000000302,3.638300000004506,4.123600000001488,17.23810000000151,3.09050000000002,4.638499999999908,2.2186000000015156,2.94500000000005]",0,8,8,4,1,Practice,5,(2x6) - 8,4,,,,,,,,,,,,,,,,,,,,,,,,,,,,,,,,,,,,,,,,,,,,,,,,,,,,,,,,,,,,,,,,,,,,,,,,,,,
,,,,,,,,,,,,5e88d5111d250056d60a23f1,23,Mężczyzna,2022-06-11_09h19.36.229,task,2021.1.4,Win32,60.08532116,6299f149e92ead563fba08ef,62a441f7310d0b846e4ca07a,,,,,,,,,,,,,8,"[""8""]",1,[2.8906000000014274],"[10.394899999998529,6.89920000000302,3.638300000004506,4.123600000001488,17.23810000000151,3.09050000000002,4.638499999999908,2.2186000000015156,2.94500000000005,2.8906000000014274]",0,9,9,8,1,Practice,9,(3x3) - 1,8,,,,,,,,,,,,,,,,,,,,,,,,,,,,,,,,,,,,,,,,,,,,,,,,,,,,,,,,,,,,,,,,,,,,,,,,,,,
,,,,,,,,,,,,5e88d5111d250056d60a23f1,23,Mężczyzna,2022-06-11_09h19.36.229,task,2021.1.4,Win32,60.08532116,6299f149e92ead563fba08ef,62a441f7310d0b846e4ca07a,,,,,,,,,,,,,,,,,,,,,,,,,,,1,58.0773,3.87182,236.2441517,3.968577845,14.11075084,space,2.7587,0,0,0,0,1,,,,,,,,,,,,,,,,,,,,,,,,,,,,,,,,,,,,,,,,,,,,,,,,,,,,,,,,,,,,,,
,,,,,,,,,,,,5e88d5111d250056d60a23f1,23,Mężczyzna,2022-06-11_09h19.36.229,task,2021.1.4,Win32,60.08532116,6299f149e92ead563fba08ef,62a441f7310d0b846e4ca07a,,,,,,,,,,,,,1,,,,,,,,,,Practice,2,(4x4) - 15,1,,,,,,,,,,,,,,space,24.1005,"[""1""]",1,[7.066599999993969],1,0,0,0,1,1,,,,,,,,,,,,,,,,,,,,,,,,,,,,,,,,,,,,,,,,,,,,,,,,,,,
,,,,,,,,,,,X V Q F H G B L J M P D K C T S W R N Z,5e88d5111d250056d60a23f1,23,Mężczyzna,2022-06-11_09h19.36.229,task,2021.1.4,Win32,60.08532116,6299f149e92ead563fba08ef,62a441f7310d0b846e4ca07a,,,,,,,,,,,,,,,,,,,,,,,,,,,,,,,,,,,,,,,,,,,,,,,,,,,0,0,0,0,1,,,,,,,,,,,,,,,,,,,,,,,,,,,,,,,,,,,,,,,,,,,,,,
,,,,,,,,,,,,5e88d5111d250056d60a23f1,23,Mężczyzna,2022-06-11_09h19.36.229,task,2021.1.4,Win32,60.08532116,6299f149e92ead563fba08ef,62a441f7310d0b846e4ca07a,,,,,,,,,,,,,7,,,,,,,,,,Practice,8,(5x5) - 18,7,,,,,,,,,,,,,,,,"[""7""]",1,[10.711199999995529],1,0,0,0,7,1,,,,,,,,,,,,,,,,,,,,,,,,,,,,,,,,,,,,,,,,,,,,,,,,,,,
,,,,,,,,,,,X V Q F H G B L J M P D K C T S W R N Z,5e88d5111d250056d60a23f1,23,Mężczyzna,2022-06-11_09h19.36.229,task,2021.1.4,Win32,60.08532116,6299f149e92ead563fba08ef,62a441f7310d0b846e4ca07a,,,,,,,,,,,,,,,,,,,,,,,,,,,,,,,,,,,,,,,,,,,,,,,,,,,1,0,1,0,1,,,,,,,,,,,,,,,,,,,,,,,,,,,,,,,,,,,,,,,,,,,,,,
,,,,,,,,,,,,5e88d5111d250056d60a23f1,23,Mężczyzna,2022-06-11_09h19.36.229,task,2021.1.4,Win32,60.08532116,6299f149e92ead563fba08ef,62a441f7310d0b846e4ca07a,,,,,,,,,,,,,,,,,,,,,,,,,,,,,,,,,,,,,,,,,,,,,,,,,,,,,,,,zw,"[""z"",""w""]",0,"[4.285600000001523,4.605299999997101,5.717299999997067]",1,0,0,0,0,1,,,,,,,,,,,,,,,,,,,,,,,,,,,,,,,,,,,,
,,,,,,,,,,,,5e88d5111d250056d60a23f1,23,Mężczyzna,2022-06-11_09h19.36.229,task,2021.1.4,Win32,60.08532116,6299f149e92ead563fba08ef,62a441f7310d0b846e4ca07a,,,,,,,,,,,,,,,,,,,,,,,Practice,10,(20/2) - 1,9,,,,,,,,,,,,,,,,,0,,0,0,0,0,9,1,,,,,,,,,,,,,,,,,,,,,,,,,,,,,,,,,,,,,,,,,,,,,,,,,,,
,,,,,,,,,,,,5e88d5111d250056d60a23f1,23,Mężczyzna,2022-06-11_09h19.36.229,task,2021.1.4,Win32,60.08532116,6299f149e92ead563fba08ef,62a441f7310d0b846e4ca07a,,,,,,,,,,,,,5,,,,,,,,,,Practice,4,(8/4) + 1,3,,,,,,,,,,,,,,,,"[""5""]",0,[5.2902999999969325],0,0,1,1,3,1,,,,,,,,,,,,,,,,,,,,,,,,,,,,,,,,,,,,,,,,,,,,,,,,,,,
,,,,,,,,,,,,5e88d5111d250056d60a23f1,23,Mężczyzna,2022-06-11_09h19.36.229,task,2021.1.4,Win32,60.08532116,6299f149e92ead563fba08ef,62a441f7310d0b846e4ca07a,,,,,,,,,,,,,0,,,,,,,,,,Practice,1,(3x3) -  9,0,,,,,,,,,,,,,,,,"[""0""]",1,[1.9776000000015301],1,0,2,2,0,1,,,,,,,,,,,,,,,,,,,,,,,,,,,,,,,,,,,,,,,,,,,,,,,,,,,
,,,,,,,,,,,X V Q F H G B L J M P D K C T S W R N Z,5e88d5111d250056d60a23f1,23,Mężczyzna,2022-06-11_09h19.36.229,task,2021.1.4,Win32,60.08532116,6299f149e92ead563fba08ef,62a441f7310d0b846e4ca07a,,,,,,,,,,,,,,,,,,,,,,,,,,,,,,,,,,,,,,,,,,,,,,,,,,,0,0,0,0,1,,,,,,,,,,,,,,,,,,,,,,,,,,,,,,,,,,,,,,,,,,,,,,
,,,,,,,,,,,,5e88d5111d250056d60a23f1,23,Mężczyzna,2022-06-11_09h19.36.229,task,2021.1.4,Win32,60.08532116,6299f149e92ead563fba08ef,62a441f7310d0b846e4ca07a,,,,,,,,,,,,,6,,,,,,,,,,Practice,7,(25/5) + 1,6,,,,,,,,,,,,,,,,"[""6""]",1,[3.937399999998547],1,0,0,0,6,1,,,,,,,,,,,,,,,,,,,,,,,,,,,,,,,,,,,,,,,,,,,,,,,,,,,
,,,,,,,,,,,X V Q F H G B L J M P D K C T S W R N Z,5e88d5111d250056d60a23f1,23,Mężczyzna,2022-06-11_09h19.36.229,task,2021.1.4,Win32,60.08532116,6299f149e92ead563fba08ef,62a441f7310d0b846e4ca07a,,,,,,,,,,,,,,,,,,,,,,,,,,,,,,,,,,,,,,,,,,,,,,,,,,,1,0,1,0,1,,,,,,,,,,,,,,,,,,,,,,,,,,,,,,,,,,,,,,,,,,,,,,
,,,,,,,,,,,,5e88d5111d250056d60a23f1,23,Mężczyzna,2022-06-11_09h19.36.229,task,2021.1.4,Win32,60.08532116,6299f149e92ead563fba08ef,62a441f7310d0b846e4ca07a,,,,,,,,,,,,,,,,,,,,,,,,,,,,,,,,,,,,,,,,,,,,,,,,,,,,,,,,zt,"[""z"",""t""]",0,"[1.6707000000029666,2.2006000000014865,3.2146000000014965]",1,1,0,1,0,1,,,,,,,,,,,,,,,,,,,,,,,,,,,,,,,,,,,,
,,,,,,,,,,,,5e88d5111d250056d60a23f1,23,Mężczyzna,2022-06-11_09h19.36.229,task,2021.1.4,Win32,60.08532116,6299f149e92ead563fba08ef,62a441f7310d0b846e4ca07a,,,,,,,,,,,,,8,,,,,,,,,,Practice,9,(3x3) - 1,8,,,,,,,,,,,,,,,,"[""8""]",1,[2.7309999999999945],1,0,0,0,8,1,,,,,,,,,,,,,,,,,,,,,,,,,,,,,,,,,,,,,,,,,,,,,,,,,,,
,,,,,,,,,,,X V Q F H G B L J M P D K C T S W R N Z,5e88d5111d250056d60a23f1,23,Mężczyzna,2022-06-11_09h19.36.229,task,2021.1.4,Win32,60.08532116,6299f149e92ead563fba08ef,62a441f7310d0b846e4ca07a,,,,,,,,,,,,,,,,,,,,,,,,,,,,,,,,,,,,,,,,,,,,,,,,,,,0,0,0,0,1,,,,,,,,,,,,,,,,,,,,,,,,,,,,,,,,,,,,,,,,,,,,,,
,,,,,,,,,,,,5e88d5111d250056d60a23f1,23,Mężczyzna,2022-06-11_09h19.36.229,task,2021.1.4,Win32,60.08532116,6299f149e92ead563fba08ef,62a441f7310d0b846e4ca07a,,,,,,,,,,,,,5,,,,,,,,,,Practice,6,(4/2) + 3,5,,,,,,,,,,,,,,,,"[""5""]",1,[5.0890000000000555],1,0,0,0,5,1,,,,,,,,,,,,,,,,,,,,,,,,,,,,,,,,,,,,,,,,,,,,,,,,,,,
,,,,,,,,,,,X V Q F H G B L J M P D K C T S W R N Z,5e88d5111d250056d60a23f1,23,Mężczyzna,2022-06-11_09h19.36.229,task,2021.1.4,Win32,60.08532116,6299f149e92ead563fba08ef,62a441f7310d0b846e4ca07a,,,,,,,,,,,,,,,,,,,,,,,,,,,,,,,,,,,,,,,,,,,,,,,,,,,1,0,1,0,1,,,,,,,,,,,,,,,,,,,,,,,,,,,,,,,,,,,,,,,,,,,,,,
,,,,,,,,,,,,5e88d5111d250056d60a23f1,23,Mężczyzna,2022-06-11_09h19.36.229,task,2021.1.4,Win32,60.08532116,6299f149e92ead563fba08ef,62a441f7310d0b846e4ca07a,,,,,,,,,,,,,,,,,,,,,,,,,,,,,,,,,,,,,,,,,,,,,,,,,,,,,,,,ts,"[""t"",""s""]",0,"[1.713899999998489,1.8992999999969697,3.0576000000014574]",1,2,0,2,0,1,,,,,,,,,,,,,,,,,,,,,,,,,,,,,,,,,,,,
,,,,,,,,,,,,5e88d5111d250056d60a23f1,23,Mężczyzna,2022-06-11_09h19.36.229,task,2021.1.4,Win32,60.08532116,6299f149e92ead563fba08ef,62a441f7310d0b846e4ca07a,,,,,,,,,,,,,2,,,,,,,,,,Task,19,(6/2) - 1,2,,,,,,,,,,,,,,,,,,,1,,,,,,,,,,,,,,,,,,,,,space,23.6013,"[""2""]",1,[3.757799999997019],0,0,0,18,1,,,,,,,,,,,,,,,,,,,,,,,,,,
,,,,,,,,,,,X V Q F H G B L J M P D K C T S W R N Z,5e88d5111d250056d60a23f1,23,Mężczyzna,2022-06-11_09h19.36.229,task,2021.1.4,Win32,60.08532116,6299f149e92ead563fba08ef,62a441f7310d0b846e4ca07a,,,,,,,,,,,,,,,,,,,,,,,,,,,,,,,,,,,,,,,,,,,,,,,,,,,,,,,,,,,,,,,,,,,,,,,,,,,,0,0,0,0,1,,,,,,,,,,,,,,,,,,,,,
,,,,,,,,,,,,5e88d5111d250056d60a23f1,23,Mężczyzna,2022-06-11_09h19.36.229,task,2021.1.4,Win32,60.08532116,6299f149e92ead563fba08ef,62a441f7310d0b846e4ca07a,,,,,,,,,,,,,2,,,,,,,,,,Task,19,(6/2) - 1,2,,,,,,,,,,,,,,,,,,,1,,,,,,,,,,,,,,,,,,,,,,,"[""2""]",1,[4.062299999996981],0,0,0,18,1,,,,,,,,,,,,,,,,,,,,,,,,,,
,,,,,,,,,,,X V Q F H G B L J M P D K C T S W R N Z,5e88d5111d250056d60a23f1,23,Mężczyzna,2022-06-11_09h19.36.229,task,2021.1.4,Win32,60.08532116,6299f149e92ead563fba08ef,62a441f7310d0b846e4ca07a,,,,,,,,,,,,,,,,,,,,,,,,,,,,,,,,,,,,,,,,,,,,,,,,,,,,,,,,,,,,,,,,,,,,,,,,,,,,1,0,1,0,1,,,,,,,,,,,,,,,,,,,,,
,,,,,,,,,,,,5e88d5111d250056d60a23f1,23,Mężczyzna,2022-06-11_09h19.36.229,task,2021.1.4,Win32,60.08532116,6299f149e92ead563fba08ef,62a441f7310d0b846e4ca07a,,,,,,,,,,,,,,,,,,,,,,,,,,,,,,,,,,,,,,,,,,,,,,,,,,,,,,,,,,,,,,,,,,,,,,,,,,,,,,,,,zs,"[""z"",""s""]",0,"[1.1257999999970707,1.5261999999955833,1.9021000000014965]",1,ZS,0,0,0,0,1,,,,,,,,,,
,,,,,,,,,,,,5e88d5111d250056d60a23f1,23,Mężczyzna,2022-06-11_09h19.36.229,task,2021.1.4,Win32,60.08532116,6299f149e92ead563fba08ef,62a441f7310d0b846e4ca07a,,,,,,,,,,,,,7,,,,,,,,,,Task,38,(4x6) - 17,7,,,,,,,,,,,,,,,,,,,1,,,,,,,,,,,,,,,,,,,,,,,"[""7""]",1,[6.031099999994012],0,0,0,37,1,,,,,,,,,,,,,,,,,,,,,,,,,,
,,,,,,,,,,,X V Q F H G B L J M P D K C T S W R N Z,5e88d5111d250056d60a23f1,23,Mężczyzna,2022-06-11_09h19.36.229,task,2021.1.4,Win32,60.08532116,6299f149e92ead563fba08ef,62a441f7310d0b846e4ca07a,,,,,,,,,,,,,,,,,,,,,,,,,,,,,,,,,,,,,,,,,,,,,,,,,,,,,,,,,,,,,,,,,,,,,,,,,,,,0,0,0,0,1,,,,,,,,,,,,,,,,,,,,,
,,,,,,,,,,,,5e88d5111d250056d60a23f1,23,Mężczyzna,2022-06-11_09h19.36.229,task,2021.1.4,Win32,60.08532116,6299f149e92ead563fba08ef,62a441f7310d0b846e4ca07a,,,,,,,,,,,,,7,,,,,,,,,,Task,31,(4/2) + 5,7,,,,,,,,,,,,,,,,,,,1,,,,,,,,,,,,,,,,,,,,,,,"[""7""]",1,[4.245200000003024],0,0,0,30,1,,,,,,,,,,,,,,,,,,,,,,,,,,
,,,,,,,,,,,X V Q F H G B L J M P D K C T S W R N Z,5e88d5111d250056d60a23f1,23,Mężczyzna,2022-06-11_09h19.36.229,task,2021.1.4,Win32,60.08532116,6299f149e92ead563fba08ef,62a441f7310d0b846e4ca07a,,,,,,,,,,,,,,,,,,,,,,,,,,,,,,,,,,,,,,,,,,,,,,,,,,,,,,,,,,,,,,,,,,,,,,,,,,,,1,0,1,0,1,,,,,,,,,,,,,,,,,,,,,
,,,,,,,,,,,,5e88d5111d250056d60a23f1,23,Mężczyzna,2022-06-11_09h19.36.229,task,2021.1.4,Win32,60.08532116,6299f149e92ead563fba08ef,62a441f7310d0b846e4ca07a,,,,,,,,,,,,,6,,,,,,,,,,Task,5,(2x3) + 0,6,,,,,,,,,,,,,,,,,,,1,,,,,,,,,,,,,,,,,,,,,,,"[""6""]",1,[2.917099999994093],0,0,0,4,1,,,,,,,,,,,,,,,,,,,,,,,,,,
,,,,,,,,,,,X V Q F H G B L J M P D K C T S W R N Z,5e88d5111d250056d60a23f1,23,Mężczyzna,2022-06-11_09h19.36.229,task,2021.1.4,Win32,60.08532116,6299f149e92ead563fba08ef,62a441f7310d0b846e4ca07a,,,,,,,,,,,,,,,,,,,,,,,,,,,,,,,,,,,,,,,,,,,,,,,,,,,,,,,,,,,,,,,,,,,,,,,,,,,,2,0,2,0,1,,,,,,,,,,,,,,,,,,,,,
,,,,,,,,,,,,5e88d5111d250056d60a23f1,23,Mężczyzna,2022-06-11_09h19.36.229,task,2021.1.4,Win32,60.08532116,6299f149e92ead563fba08ef,62a441f7310d0b846e4ca07a,,,,,,,,,,,,,,,,,,,,,,,,,,,,,,,,,,,,,,,,,,,,,,,,,,,,,,,,,,,,,,,,,,,,,,,,,,,,,,,,,xbz,"[""x"",""b"",""z""]",0,"[1.1720000000000255,1.4120000000000346,1.5958999999985508,2.228200000002971]",1,XBZ,1,0,1,0,1,,,,,,,,,,
,,,,,,,,,,,,5e88d5111d250056d60a23f1,23,Mężczyzna,2022-06-11_09h19.36.229,task,2021.1.4,Win32,60.08532116,6299f149e92ead563fba08ef,62a441f7310d0b846e4ca07a,,,,,,,,,,,,,7,,,,,,,,,,Task,31,(4/2) + 5,7,,,,,,,,,,,,,,,,,,,1,,,,,,,,,,,,,,,,,,,,,,,"[""7""]",1,[4.927799999997092],0,0,0,30,1,,,,,,,,,,,,,,,,,,,,,,,,,,
,,,,,,,,,,,X V Q F H G B L J M P D K C T S W R N Z,5e88d5111d250056d60a23f1,23,Mężczyzna,2022-06-11_09h19.36.229,task,2021.1.4,Win32,60.08532116,6299f149e92ead563fba08ef,62a441f7310d0b846e4ca07a,,,,,,,,,,,,,,,,,,,,,,,,,,,,,,,,,,,,,,,,,,,,,,,,,,,,,,,,,,,,,,,,,,,,,,,,,,,,0,0,0,0,1,,,,,,,,,,,,,,,,,,,,,
,,,,,,,,,,,,5e88d5111d250056d60a23f1,23,Mężczyzna,2022-06-11_09h19.36.229,task,2021.1.4,Win32,60.08532116,6299f149e92ead563fba08ef,62a441f7310d0b846e4ca07a,,,,,,,,,,,,,6,,,,,,,,,,Task,37,(3/3) + 5,6,,,,,,,,,,,,,,,,,,,1,,,,,,,,,,,,,,,,,,,,,,,"[""6""]",1,[3.932100000001469],0,0,0,36,1,,,,,,,,,,,,,,,,,,,,,,,,,,
,,,,,,,,,,,X V Q F H G B L J M P D K C T S W R N Z,5e88d5111d250056d60a23f1,23,Mężczyzna,2022-06-11_09h19.36.229,task,2021.1.4,Win32,60.08532116,6299f149e92ead563fba08ef,62a441f7310d0b846e4ca07a,,,,,,,,,,,,,,,,,,,,,,,,,,,,,,,,,,,,,,,,,,,,,,,,,,,,,,,,,,,,,,,,,,,,,,,,,,,,1,0,1,0,1,,,,,,,,,,,,,,,,,,,,,
,,,,,,,,,,,,5e88d5111d250056d60a23f1,23,Mężczyzna,2022-06-11_09h19.36.229,task,2021.1.4,Win32,60.08532116,6299f149e92ead563fba08ef,62a441f7310d0b846e4ca07a,,,,,,,,,,,,,7,,,,,,,,,,Task,38,(4x6) - 17,7,,,,,,,,,,,,,,,,,,,1,,,,,,,,,,,,,,,,,,,,,,,"[""7""]",1,[3.9278999999984308],0,0,0,37,1,,,,,,,,,,,,,,,,,,,,,,,,,,
,,,,,,,,,,,X V Q F H G B L J M P D K C T S W R N Z,5e88d5111d250056d60a23f1,23,Mężczyzna,2022-06-11_09h19.36.229,task,2021.1.4,Win32,60.08532116,6299f149e92ead563fba08ef,62a441f7310d0b846e4ca07a,,,,,,,,,,,,,,,,,,,,,,,,,,,,,,,,,,,,,,,,,,,,,,,,,,,,,,,,,,,,,,,,,,,,,,,,,,,,2,0,2,0,1,,,,,,,,,,,,,,,,,,,,,
,,,,,,,,,,,,5e88d5111d250056d60a23f1,23,Mężczyzna,2022-06-11_09h19.36.229,task,2021.1.4,Win32,60.08532116,6299f149e92ead563fba08ef,62a441f7310d0b846e4ca07a,,,,,,,,,,,,,1,,,,,,,,,,Task,18,(16/4) - 3,1,,,,,,,,,,,,,,,,,,,1,,,,,,,,,,,,,,,,,,,,,,,"[""1""]",1,[3.1784999999999854],0,0,0,17,1,,,,,,,,,,,,,,,,,,,,,,,,,,
,,,,,,,,,,,X V Q F H G B L J M P D K C T S W R N Z,5e88d5111d250056d60a23f1,23,Mężczyzna,2022-06-11_09h19.36.229,task,2021.1.4,Win32,60.08532116,6299f149e92ead563fba08ef,62a441f7310d0b846e4ca07a,,,,,,,,,,,,,,,,,,,,,,,,,,,,,,,,,,,,,,,,,,,,,,,,,,,,,,,,,,,,,,,,,,,,,,,,,,,,3,0,3,0,1,,,,,,,,,,,,,,,,,,,,,
,,,,,,,,,,,,5e88d5111d250056d60a23f1,23,Mężczyzna,2022-06-11_09h19.36.229,task,2021.1.4,Win32,60.08532116,6299f149e92ead563fba08ef,62a441f7310d0b846e4ca07a,,,,,,,,,,,,,,,,,,,,,,,,,,,,,,,,,,,,,,,,,,,,,,,,,,,,,,,,,,,,,,,,,,,,,,,,,,,,,,,,,mbvc,"[""m"",""b"",""v"",""c""]",0,"[3.3125,3.6081000000014,3.840199999995548,8.20799999999997,9.15199999999993]",0,MBVX,2,0,2,0,1,,,,,,,,,,
,,,,,,,,,,,,5e88d5111d250056d60a23f1,23,Mężczyzna,2022-06-11_09h19.36.229,task,2021.1.4,Win32,60.08532116,6299f149e92ead563fba08ef,62a441f7310d0b846e4ca07a,,,,,,,,,,,,,3,,,,,,,,,,Task,35,(1x2) + 1,3,,,,,,,,,,,,,,,,,,,1,,,,,,,,,,,,,,,,,,,,,,,"[""3""]",1,[1.8621000000015329],0,0,0,34,1,,,,,,,,,,,,,,,,,,,,,,,,,,
,,,,,,,,,,,X V Q F H G B L J M P D K C T S W R N Z,5e88d5111d250056d60a23f1,23,Mężczyzna,2022-06-11_09h19.36.229,task,2021.1.4,Win32,60.08532116,6299f149e92ead563fba08ef,62a441f7310d0b846e4ca07a,,,,,,,,,,,,,,,,,,,,,,,,,,,,,,,,,,,,,,,,,,,,,,,,,,,,,,,,,,,,,,,,,,,,,,,,,,,,0,0,0,0,1,,,,,,,,,,,,,,,,,,,,,
,,,,,,,,,,,,5e88d5111d250056d60a23f1,23,Mężczyzna,2022-06-11_09h19.36.229,task,2021.1.4,Win32,60.08532116,6299f149e92ead563fba08ef,62a441f7310d0b846e4ca07a,,,,,,,,,,,,,5,,,,,,,,,,Task,36,(8/4) + 3,5,,,,,,,,,,,,,,,,,,,1,,,,,,,,,,,,,,,,,,,,,,,"[""5""]",1,[4.806399999998575],0,0,0,35,1,,,,,,,,,,,,,,,,,,,,,,,,,,
,,,,,,,,,,,X V Q F H G B L J M P D K C T S W R N Z,5e88d5111d250056d60a23f1,23,Mężczyzna,2022-06-11_09h19.36.229,task,2021.1.4,Win32,60.08532116,6299f149e92ead563fba08ef,62a441f7310d0b846e4ca07a,,,,,,,,,,,,,,,,,,,,,,,,,,,,,,,,,,,,,,,,,,,,,,,,,,,,,,,,,,,,,,,,,,,,,,,,,,,,1,0,1,0,1,,,,,,,,,,,,,,,,,,,,,
,,,,,,,,,,,,5e88d5111d250056d60a23f1,23,Mężczyzna,2022-06-11_09h19.36.229,task,2021.1.4,Win32,60.08532116,6299f149e92ead563fba08ef,62a441f7310d0b846e4ca07a,,,,,,,,,,,,,0,,,,,,,,,,Task,33,(1/1) - 1,0,,,,,,,,,,,,,,,,,,,1,,,,,,,,,,,,,,,,,,,,,,,"[""0""]",1,[3.0616000000014765],0,0,0,32,1,,,,,,,,,,,,,,,,,,,,,,,,,,
,,,,,,,,,,,X V Q F H G B L J M P D K C T S W R N Z,5e88d5111d250056d60a23f1,23,Mężczyzna,2022-06-11_09h19.36.229,task,2021.1.4,Win32,60.08532116,6299f149e92ead563fba08ef,62a441f7310d0b846e4ca07a,,,,,,,,,,,,,,,,,,,,,,,,,,,,,,,,,,,,,,,,,,,,,,,,,,,,,,,,,,,,,,,,,,,,,,,,,,,,2,0,2,0,1,,,,,,,,,,,,,,,,,,,,,
,,,,,,,,,,,,5e88d5111d250056d60a23f1,23,Mężczyzna,2022-06-11_09h19.36.229,task,2021.1.4,Win32,60.08532116,6299f149e92ead563fba08ef,62a441f7310d0b846e4ca07a,,,,,,,,,,,,,0,,,,,,,,,,Task,8,(1x5) - 5,0,,,,,,,,,,,,,,,,,,,1,,,,,,,,,,,,,,,,,,,,,,,"[""0""]",1,[2.229199999995558],0,0,0,7,1,,,,,,,,,,,,,,,,,,,,,,,,,,
,,,,,,,,,,,X V Q F H G B L J M P D K C T S W R N Z,5e88d5111d250056d60a23f1,23,Mężczyzna,2022-06-11_09h19.36.229,task,2021.1.4,Win32,60.08532116,6299f149e92ead563fba08ef,62a441f7310d0b846e4ca07a,,,,,,,,,,,,,,,,,,,,,,,,,,,,,,,,,,,,,,,,,,,,,,,,,,,,,,,,,,,,,,,,,,,,,,,,,,,,3,0,3,0,1,,,,,,,,,,,,,,,,,,,,,
