key_resp_15.keys,key_resp_15.rt,key_resp_16.keys,key_resp_16.rt,key_resp_4.keys,key_resp_4.rt,next_letter.thisRepN,next_letter.thisTrialN,next_letter.thisN,next_letter.thisIndex,next_letter.ran,letter,participant,Wiek*,Płeć,date,expName,psychopyVersion,OS,frameRate,study_id,session,simple_recall,key_resp_5.keys,key_resp_5.rt,simple_recall_corr,simple_recall_corrkeys,next_level.thisRepN,next_level.thisTrialN,next_level.thisN,next_level.thisIndex,next_level.ran,key_resp_2.keys,key_resp_2.rt,digit_answer,key_resp.keys,key_resp.corr,key_resp.rt,RT_list,next_equation.thisRepN,next_equation.thisTrialN,next_equation.thisN,next_equation.thisIndex,next_equation.ran,Task,Trial,Problem,Operation_answer,processing_score,sumRT,meanRT,sumdiff,sd,RT,key_resp_3.keys,key_resp_3.rt,repeat_practice.thisRepN,repeat_practice.thisTrialN,repeat_practice.thisN,repeat_practice.thisIndex,repeat_practice.ran,key_resp_6.keys,key_resp_6.rt,key_resp_11.keys,key_resp_11.corr,key_resp_11.rt,operation_correct,repeat_if_wrong_prac.thisRepN,repeat_if_wrong_prac.thisTrialN,repeat_if_wrong_prac.thisN,repeat_if_wrong_prac.thisIndex,repeat_if_wrong_prac.ran,span_size_prac.thisRepN,span_size_prac.thisTrialN,span_size_prac.thisN,span_size_prac.thisIndex,span_size_prac.ran,complex_recall_practice,key_resp_9.keys,key_resp_9.corr,key_resp_9.rt,complex_prac_corr,span_recall_prac.thisRepN,span_recall_prac.thisTrialN,span_recall_prac.thisN,span_recall_prac.thisIndex,span_recall_prac.ran,key_resp_10.keys,key_resp_10.rt,key_resp_7.keys,key_resp_7.corr,key_resp_7.rt,repeat_if_wrong.thisRepN,repeat_if_wrong.thisTrialN,repeat_if_wrong.thisN,repeat_if_wrong.thisIndex,repeat_if_wrong.ran,span_size.thisRepN,span_size.thisTrialN,span_size.thisN,span_size.thisIndex,span_size.ran,complex_recall,key_resp_8.keys,key_resp_8.corr,key_resp_8.rt,complex_recall_corr,complex_recall_corrkeys,span_recall.thisRepN,span_recall.thisTrialN,span_recall.thisN,span_recall.thisIndex,span_recall.ran,key_resp_13.keys,key_resp_13.corr,key_resp_13.rt,random_loop.thisRepN,random_loop.thisTrialN,random_loop.thisN,random_loop.thisIndex,random_loop.ran,key_resp_12.keys,key_resp_12.rt
space,17.707,space,12.4434,space,6.4992,0,0,0,0,1,X V Q F H G B L J M P D K C T S W R N Z,5e8f32cb79a8e80727d489a3,22,Mężczyzna,2022-06-11_09h25.14.050,task,2021.1.4,Win32,60.06727535,6299f149e92ead563fba08ef,62a443481c22fcf20a4ace5c,,,,,,,,,,,,,,,,,,,,,,,,,,,,,,,,,,,,,,,,,,,,,,,,,,,,,,,,,,,,,,,,,,,,,,,,,,,,,,,,,,,,,,,,,,,,,,,,,,,,,
,,,,,,1,0,1,0,1,X V Q F H G B L J M P D K C T S W R N Z,5e8f32cb79a8e80727d489a3,22,Mężczyzna,2022-06-11_09h25.14.050,task,2021.1.4,Win32,60.06727535,6299f149e92ead563fba08ef,62a443481c22fcf20a4ace5c,,,,,,,,,,,,,,,,,,,,,,,,,,,,,,,,,,,,,,,,,,,,,,,,,,,,,,,,,,,,,,,,,,,,,,,,,,,,,,,,,,,,,,,,,,,,,,,,,,,,,
,,,,,,,,,,,,5e8f32cb79a8e80727d489a3,22,Mężczyzna,2022-06-11_09h25.14.050,task,2021.1.4,Win32,60.06727535,6299f149e92ead563fba08ef,62a443481c22fcf20a4ace5c,zv,"[""z"",""v""]","[2.439600000000091,2.889600000000094,3.4394000000001412]",1,ZV,0,0,0,0,1,,,,,,,,,,,,,,,,,,,,,,,,,,,,,,,,,,,,,,,,,,,,,,,,,,,,,,,,,,,,,,,,,,,,,,,,,,,,,,,,,,,,,,,,,,,
,,,,,,0,0,0,0,1,X V Q F H G B L J M P D K C T S W R N Z,5e8f32cb79a8e80727d489a3,22,Mężczyzna,2022-06-11_09h25.14.050,task,2021.1.4,Win32,60.06727535,6299f149e92ead563fba08ef,62a443481c22fcf20a4ace5c,,,,,,,,,,,,,,,,,,,,,,,,,,,,,,,,,,,,,,,,,,,,,,,,,,,,,,,,,,,,,,,,,,,,,,,,,,,,,,,,,,,,,,,,,,,,,,,,,,,,,
,,,,,,1,0,1,0,1,X V Q F H G B L J M P D K C T S W R N Z,5e8f32cb79a8e80727d489a3,22,Mężczyzna,2022-06-11_09h25.14.050,task,2021.1.4,Win32,60.06727535,6299f149e92ead563fba08ef,62a443481c22fcf20a4ace5c,,,,,,,,,,,,,,,,,,,,,,,,,,,,,,,,,,,,,,,,,,,,,,,,,,,,,,,,,,,,,,,,,,,,,,,,,,,,,,,,,,,,,,,,,,,,,,,,,,,,,
,,,,,,,,,,,,5e8f32cb79a8e80727d489a3,22,Mężczyzna,2022-06-11_09h25.14.050,task,2021.1.4,Win32,60.06727535,6299f149e92ead563fba08ef,62a443481c22fcf20a4ace5c,wc,"[""w"",""c""]","[1.116699999999959,1.7796999999999485,2.4329999999999927]",1,WC,1,0,1,0,1,,,,,,,,,,,,,,,,,,,,,,,,,,,,,,,,,,,,,,,,,,,,,,,,,,,,,,,,,,,,,,,,,,,,,,,,,,,,,,,,,,,,,,,,,,,
,,,,,,0,0,0,0,1,X V Q F H G B L J M P D K C T S W R N Z,5e8f32cb79a8e80727d489a3,22,Mężczyzna,2022-06-11_09h25.14.050,task,2021.1.4,Win32,60.06727535,6299f149e92ead563fba08ef,62a443481c22fcf20a4ace5c,,,,,,,,,,,,,,,,,,,,,,,,,,,,,,,,,,,,,,,,,,,,,,,,,,,,,,,,,,,,,,,,,,,,,,,,,,,,,,,,,,,,,,,,,,,,,,,,,,,,,
,,,,,,1,0,1,0,1,X V Q F H G B L J M P D K C T S W R N Z,5e8f32cb79a8e80727d489a3,22,Mężczyzna,2022-06-11_09h25.14.050,task,2021.1.4,Win32,60.06727535,6299f149e92ead563fba08ef,62a443481c22fcf20a4ace5c,,,,,,,,,,,,,,,,,,,,,,,,,,,,,,,,,,,,,,,,,,,,,,,,,,,,,,,,,,,,,,,,,,,,,,,,,,,,,,,,,,,,,,,,,,,,,,,,,,,,,
,,,,,,2,0,2,0,1,X V Q F H G B L J M P D K C T S W R N Z,5e8f32cb79a8e80727d489a3,22,Mężczyzna,2022-06-11_09h25.14.050,task,2021.1.4,Win32,60.06727535,6299f149e92ead563fba08ef,62a443481c22fcf20a4ace5c,,,,,,,,,,,,,,,,,,,,,,,,,,,,,,,,,,,,,,,,,,,,,,,,,,,,,,,,,,,,,,,,,,,,,,,,,,,,,,,,,,,,,,,,,,,,,,,,,,,,,
,,,,,,,,,,,,5e8f32cb79a8e80727d489a3,22,Mężczyzna,2022-06-11_09h25.14.050,task,2021.1.4,Win32,60.06727535,6299f149e92ead563fba08ef,62a443481c22fcf20a4ace5c,vfs,"[""v"",""f"",""s""]","[0.7674000000001371,1.1439000000001442,1.4837000000001836,2.073900000000137]",1,VFS,2,0,2,0,1,,,,,,,,,,,,,,,,,,,,,,,,,,,,,,,,,,,,,,,,,,,,,,,,,,,,,,,,,,,,,,,,,,,,,,,,,,,,,,,,,,,,,,,,,,,
,,,,,,0,0,0,0,1,X V Q F H G B L J M P D K C T S W R N Z,5e8f32cb79a8e80727d489a3,22,Mężczyzna,2022-06-11_09h25.14.050,task,2021.1.4,Win32,60.06727535,6299f149e92ead563fba08ef,62a443481c22fcf20a4ace5c,,,,,,,,,,,,,,,,,,,,,,,,,,,,,,,,,,,,,,,,,,,,,,,,,,,,,,,,,,,,,,,,,,,,,,,,,,,,,,,,,,,,,,,,,,,,,,,,,,,,,
,,,,,,1,0,1,0,1,X V Q F H G B L J M P D K C T S W R N Z,5e8f32cb79a8e80727d489a3,22,Mężczyzna,2022-06-11_09h25.14.050,task,2021.1.4,Win32,60.06727535,6299f149e92ead563fba08ef,62a443481c22fcf20a4ace5c,,,,,,,,,,,,,,,,,,,,,,,,,,,,,,,,,,,,,,,,,,,,,,,,,,,,,,,,,,,,,,,,,,,,,,,,,,,,,,,,,,,,,,,,,,,,,,,,,,,,,
,,,,,,2,0,2,0,1,X V Q F H G B L J M P D K C T S W R N Z,5e8f32cb79a8e80727d489a3,22,Mężczyzna,2022-06-11_09h25.14.050,task,2021.1.4,Win32,60.06727535,6299f149e92ead563fba08ef,62a443481c22fcf20a4ace5c,,,,,,,,,,,,,,,,,,,,,,,,,,,,,,,,,,,,,,,,,,,,,,,,,,,,,,,,,,,,,,,,,,,,,,,,,,,,,,,,,,,,,,,,,,,,,,,,,,,,,
,,,,,,,,,,,,5e8f32cb79a8e80727d489a3,22,Mężczyzna,2022-06-11_09h25.14.050,task,2021.1.4,Win32,60.06727535,6299f149e92ead563fba08ef,62a443481c22fcf20a4ace5c,tqg,"[""t"",""q"",""g""]","[0.8603999999999132,1.1672999999998126,1.4217999999998199,2.25]",1,TQG,3,0,3,0,1,,,,,,,,,,,,,,,,,,,,,,,,,,,,,,,,,,,,,,,,,,,,,,,,,,,,,,,,,,,,,,,,,,,,,,,,,,,,,,,,,,,,,,,,,,,
,,,,,,0,0,0,0,1,X V Q F H G B L J M P D K C T S W R N Z,5e8f32cb79a8e80727d489a3,22,Mężczyzna,2022-06-11_09h25.14.050,task,2021.1.4,Win32,60.06727535,6299f149e92ead563fba08ef,62a443481c22fcf20a4ace5c,,,,,,,,,,,,,,,,,,,,,,,,,,,,,,,,,,,,,,,,,,,,,,,,,,,,,,,,,,,,,,,,,,,,,,,,,,,,,,,,,,,,,,,,,,,,,,,,,,,,,
,,,,,,1,0,1,0,1,X V Q F H G B L J M P D K C T S W R N Z,5e8f32cb79a8e80727d489a3,22,Mężczyzna,2022-06-11_09h25.14.050,task,2021.1.4,Win32,60.06727535,6299f149e92ead563fba08ef,62a443481c22fcf20a4ace5c,,,,,,,,,,,,,,,,,,,,,,,,,,,,,,,,,,,,,,,,,,,,,,,,,,,,,,,,,,,,,,,,,,,,,,,,,,,,,,,,,,,,,,,,,,,,,,,,,,,,,
,,,,,,2,0,2,0,1,X V Q F H G B L J M P D K C T S W R N Z,5e8f32cb79a8e80727d489a3,22,Mężczyzna,2022-06-11_09h25.14.050,task,2021.1.4,Win32,60.06727535,6299f149e92ead563fba08ef,62a443481c22fcf20a4ace5c,,,,,,,,,,,,,,,,,,,,,,,,,,,,,,,,,,,,,,,,,,,,,,,,,,,,,,,,,,,,,,,,,,,,,,,,,,,,,,,,,,,,,,,,,,,,,,,,,,,,,
,,,,,,3,0,3,0,1,X V Q F H G B L J M P D K C T S W R N Z,5e8f32cb79a8e80727d489a3,22,Mężczyzna,2022-06-11_09h25.14.050,task,2021.1.4,Win32,60.06727535,6299f149e92ead563fba08ef,62a443481c22fcf20a4ace5c,,,,,,,,,,,,,,,,,,,,,,,,,,,,,,,,,,,,,,,,,,,,,,,,,,,,,,,,,,,,,,,,,,,,,,,,,,,,,,,,,,,,,,,,,,,,,,,,,,,,,
,,,,,,,,,,,,5e8f32cb79a8e80727d489a3,22,Mężczyzna,2022-06-11_09h25.14.050,task,2021.1.4,Win32,60.06727535,6299f149e92ead563fba08ef,62a443481c22fcf20a4ace5c,dphs,"[""d"",""p"",""h"",""s""]","[0.45009999999984984,0.7364999999999924,0.9332999999998037,1.2497999999998086,1.5327999999998099]",1,DPHS,4,0,4,0,1,,,,,,,,,,,,,,,,,,,,,,,,,,,,,,,,,,,,,,,,,,,,,,,,,,,,,,,,,,,,,,,,,,,,,,,,,,,,,,,,,,,,,,,,,,,
,,,,,,0,0,0,0,1,X V Q F H G B L J M P D K C T S W R N Z,5e8f32cb79a8e80727d489a3,22,Mężczyzna,2022-06-11_09h25.14.050,task,2021.1.4,Win32,60.06727535,6299f149e92ead563fba08ef,62a443481c22fcf20a4ace5c,,,,,,,,,,,,,,,,,,,,,,,,,,,,,,,,,,,,,,,,,,,,,,,,,,,,,,,,,,,,,,,,,,,,,,,,,,,,,,,,,,,,,,,,,,,,,,,,,,,,,
,,,,,,1,0,1,0,1,X V Q F H G B L J M P D K C T S W R N Z,5e8f32cb79a8e80727d489a3,22,Mężczyzna,2022-06-11_09h25.14.050,task,2021.1.4,Win32,60.06727535,6299f149e92ead563fba08ef,62a443481c22fcf20a4ace5c,,,,,,,,,,,,,,,,,,,,,,,,,,,,,,,,,,,,,,,,,,,,,,,,,,,,,,,,,,,,,,,,,,,,,,,,,,,,,,,,,,,,,,,,,,,,,,,,,,,,,
,,,,,,2,0,2,0,1,X V Q F H G B L J M P D K C T S W R N Z,5e8f32cb79a8e80727d489a3,22,Mężczyzna,2022-06-11_09h25.14.050,task,2021.1.4,Win32,60.06727535,6299f149e92ead563fba08ef,62a443481c22fcf20a4ace5c,,,,,,,,,,,,,,,,,,,,,,,,,,,,,,,,,,,,,,,,,,,,,,,,,,,,,,,,,,,,,,,,,,,,,,,,,,,,,,,,,,,,,,,,,,,,,,,,,,,,,
,,,,,,3,0,3,0,1,X V Q F H G B L J M P D K C T S W R N Z,5e8f32cb79a8e80727d489a3,22,Mężczyzna,2022-06-11_09h25.14.050,task,2021.1.4,Win32,60.06727535,6299f149e92ead563fba08ef,62a443481c22fcf20a4ace5c,,,,,,,,,,,,,,,,,,,,,,,,,,,,,,,,,,,,,,,,,,,,,,,,,,,,,,,,,,,,,,,,,,,,,,,,,,,,,,,,,,,,,,,,,,,,,,,,,,,,,
,,,,,,,,,,,,5e8f32cb79a8e80727d489a3,22,Mężczyzna,2022-06-11_09h25.14.050,task,2021.1.4,Win32,60.06727535,6299f149e92ead563fba08ef,62a443481c22fcf20a4ace5c,qxvk,"[""q"",""x"",""v"",""k""]","[0.507899999999907,0.938100000000091,1.3166999999999547,1.6831999999999567,2.1368000000000507]",1,QXVK,5,0,5,0,1,,,,,,,,,,,,,,,,,,,,,,,,,,,,,,,,,,,,,,,,,,,,,,,,,,,,,,,,,,,,,,,,,,,,,,,,,,,,,,,,,,,,,,,,,,,
,,,,,,0,0,0,0,1,X V Q F H G B L J M P D K C T S W R N Z,5e8f32cb79a8e80727d489a3,22,Mężczyzna,2022-06-11_09h25.14.050,task,2021.1.4,Win32,60.06727535,6299f149e92ead563fba08ef,62a443481c22fcf20a4ace5c,,,,,,,,,,,,,,,,,,,,,,,,,,,,,,,,,,,,,,,,,,,,,,,,,,,,,,,,,,,,,,,,,,,,,,,,,,,,,,,,,,,,,,,,,,,,,,,,,,,,,
,,,,,,1,0,1,0,1,X V Q F H G B L J M P D K C T S W R N Z,5e8f32cb79a8e80727d489a3,22,Mężczyzna,2022-06-11_09h25.14.050,task,2021.1.4,Win32,60.06727535,6299f149e92ead563fba08ef,62a443481c22fcf20a4ace5c,,,,,,,,,,,,,,,,,,,,,,,,,,,,,,,,,,,,,,,,,,,,,,,,,,,,,,,,,,,,,,,,,,,,,,,,,,,,,,,,,,,,,,,,,,,,,,,,,,,,,
,,,,,,2,0,2,0,1,X V Q F H G B L J M P D K C T S W R N Z,5e8f32cb79a8e80727d489a3,22,Mężczyzna,2022-06-11_09h25.14.050,task,2021.1.4,Win32,60.06727535,6299f149e92ead563fba08ef,62a443481c22fcf20a4ace5c,,,,,,,,,,,,,,,,,,,,,,,,,,,,,,,,,,,,,,,,,,,,,,,,,,,,,,,,,,,,,,,,,,,,,,,,,,,,,,,,,,,,,,,,,,,,,,,,,,,,,
,,,,,,3,0,3,0,1,X V Q F H G B L J M P D K C T S W R N Z,5e8f32cb79a8e80727d489a3,22,Mężczyzna,2022-06-11_09h25.14.050,task,2021.1.4,Win32,60.06727535,6299f149e92ead563fba08ef,62a443481c22fcf20a4ace5c,,,,,,,,,,,,,,,,,,,,,,,,,,,,,,,,,,,,,,,,,,,,,,,,,,,,,,,,,,,,,,,,,,,,,,,,,,,,,,,,,,,,,,,,,,,,,,,,,,,,,
,,,,,,4,0,4,0,1,X V Q F H G B L J M P D K C T S W R N Z,5e8f32cb79a8e80727d489a3,22,Mężczyzna,2022-06-11_09h25.14.050,task,2021.1.4,Win32,60.06727535,6299f149e92ead563fba08ef,62a443481c22fcf20a4ace5c,,,,,,,,,,,,,,,,,,,,,,,,,,,,,,,,,,,,,,,,,,,,,,,,,,,,,,,,,,,,,,,,,,,,,,,,,,,,,,,,,,,,,,,,,,,,,,,,,,,,,
,,,,,,,,,,,,5e8f32cb79a8e80727d489a3,22,Mężczyzna,2022-06-11_09h25.14.050,task,2021.1.4,Win32,60.06727535,6299f149e92ead563fba08ef,62a443481c22fcf20a4ace5c,wzcjn,"[""w"",""z"",""c"",""j"",""n""]","[0.47059999999986246,0.7715000000000032,1.183000000000007,1.6664999999999992,1.9883999999999133,2.299999999999997]",1,WZCJN,6,0,6,0,1,,,,,,,,,,,,,,,,,,,,,,,,,,,,,,,,,,,,,,,,,,,,,,,,,,,,,,,,,,,,,,,,,,,,,,,,,,,,,,,,,,,,,,,,,,,
,,,,,,0,0,0,0,1,X V Q F H G B L J M P D K C T S W R N Z,5e8f32cb79a8e80727d489a3,22,Mężczyzna,2022-06-11_09h25.14.050,task,2021.1.4,Win32,60.06727535,6299f149e92ead563fba08ef,62a443481c22fcf20a4ace5c,,,,,,,,,,,,,,,,,,,,,,,,,,,,,,,,,,,,,,,,,,,,,,,,,,,,,,,,,,,,,,,,,,,,,,,,,,,,,,,,,,,,,,,,,,,,,,,,,,,,,
,,,,,,1,0,1,0,1,X V Q F H G B L J M P D K C T S W R N Z,5e8f32cb79a8e80727d489a3,22,Mężczyzna,2022-06-11_09h25.14.050,task,2021.1.4,Win32,60.06727535,6299f149e92ead563fba08ef,62a443481c22fcf20a4ace5c,,,,,,,,,,,,,,,,,,,,,,,,,,,,,,,,,,,,,,,,,,,,,,,,,,,,,,,,,,,,,,,,,,,,,,,,,,,,,,,,,,,,,,,,,,,,,,,,,,,,,
,,,,,,2,0,2,0,1,X V Q F H G B L J M P D K C T S W R N Z,5e8f32cb79a8e80727d489a3,22,Mężczyzna,2022-06-11_09h25.14.050,task,2021.1.4,Win32,60.06727535,6299f149e92ead563fba08ef,62a443481c22fcf20a4ace5c,,,,,,,,,,,,,,,,,,,,,,,,,,,,,,,,,,,,,,,,,,,,,,,,,,,,,,,,,,,,,,,,,,,,,,,,,,,,,,,,,,,,,,,,,,,,,,,,,,,,,
,,,,,,3,0,3,0,1,X V Q F H G B L J M P D K C T S W R N Z,5e8f32cb79a8e80727d489a3,22,Mężczyzna,2022-06-11_09h25.14.050,task,2021.1.4,Win32,60.06727535,6299f149e92ead563fba08ef,62a443481c22fcf20a4ace5c,,,,,,,,,,,,,,,,,,,,,,,,,,,,,,,,,,,,,,,,,,,,,,,,,,,,,,,,,,,,,,,,,,,,,,,,,,,,,,,,,,,,,,,,,,,,,,,,,,,,,
,,,,,,4,0,4,0,1,X V Q F H G B L J M P D K C T S W R N Z,5e8f32cb79a8e80727d489a3,22,Mężczyzna,2022-06-11_09h25.14.050,task,2021.1.4,Win32,60.06727535,6299f149e92ead563fba08ef,62a443481c22fcf20a4ace5c,,,,,,,,,,,,,,,,,,,,,,,,,,,,,,,,,,,,,,,,,,,,,,,,,,,,,,,,,,,,,,,,,,,,,,,,,,,,,,,,,,,,,,,,,,,,,,,,,,,,,
,,,,,,,,,,,,5e8f32cb79a8e80727d489a3,22,Mężczyzna,2022-06-11_09h25.14.050,task,2021.1.4,Win32,60.06727535,6299f149e92ead563fba08ef,62a443481c22fcf20a4ace5c,ztqzt,"[""z"",""t"",""q"",""z"",""t""]","[0.5336999999999534,1.316999999999993,1.6500000000000057,2.333300000000051,3.0408999999999082,3.416499999999999]",0,ZQTZP,7,0,7,0,1,,,,,,,,,,,,,,,,,,,,,,,,,,,,,,,,,,,,,,,,,,,,,,,,,,,,,,,,,,,,,,,,,,,,,,,,,,,,,,,,,,,,,,,,,,,
,,,,,,0,0,0,0,1,X V Q F H G B L J M P D K C T S W R N Z,5e8f32cb79a8e80727d489a3,22,Mężczyzna,2022-06-11_09h25.14.050,task,2021.1.4,Win32,60.06727535,6299f149e92ead563fba08ef,62a443481c22fcf20a4ace5c,,,,,,,,,,,,,,,,,,,,,,,,,,,,,,,,,,,,,,,,,,,,,,,,,,,,,,,,,,,,,,,,,,,,,,,,,,,,,,,,,,,,,,,,,,,,,,,,,,,,,
,,,,,,1,0,1,0,1,X V Q F H G B L J M P D K C T S W R N Z,5e8f32cb79a8e80727d489a3,22,Mężczyzna,2022-06-11_09h25.14.050,task,2021.1.4,Win32,60.06727535,6299f149e92ead563fba08ef,62a443481c22fcf20a4ace5c,,,,,,,,,,,,,,,,,,,,,,,,,,,,,,,,,,,,,,,,,,,,,,,,,,,,,,,,,,,,,,,,,,,,,,,,,,,,,,,,,,,,,,,,,,,,,,,,,,,,,
,,,,,,2,0,2,0,1,X V Q F H G B L J M P D K C T S W R N Z,5e8f32cb79a8e80727d489a3,22,Mężczyzna,2022-06-11_09h25.14.050,task,2021.1.4,Win32,60.06727535,6299f149e92ead563fba08ef,62a443481c22fcf20a4ace5c,,,,,,,,,,,,,,,,,,,,,,,,,,,,,,,,,,,,,,,,,,,,,,,,,,,,,,,,,,,,,,,,,,,,,,,,,,,,,,,,,,,,,,,,,,,,,,,,,,,,,
,,,,,,3,0,3,0,1,X V Q F H G B L J M P D K C T S W R N Z,5e8f32cb79a8e80727d489a3,22,Mężczyzna,2022-06-11_09h25.14.050,task,2021.1.4,Win32,60.06727535,6299f149e92ead563fba08ef,62a443481c22fcf20a4ace5c,,,,,,,,,,,,,,,,,,,,,,,,,,,,,,,,,,,,,,,,,,,,,,,,,,,,,,,,,,,,,,,,,,,,,,,,,,,,,,,,,,,,,,,,,,,,,,,,,,,,,
,,,,,,4,0,4,0,1,X V Q F H G B L J M P D K C T S W R N Z,5e8f32cb79a8e80727d489a3,22,Mężczyzna,2022-06-11_09h25.14.050,task,2021.1.4,Win32,60.06727535,6299f149e92ead563fba08ef,62a443481c22fcf20a4ace5c,,,,,,,,,,,,,,,,,,,,,,,,,,,,,,,,,,,,,,,,,,,,,,,,,,,,,,,,,,,,,,,,,,,,,,,,,,,,,,,,,,,,,,,,,,,,,,,,,,,,,
,,,,,,,,,,,,5e8f32cb79a8e80727d489a3,22,Mężczyzna,2022-06-11_09h25.14.050,task,2021.1.4,Win32,60.06727535,6299f149e92ead563fba08ef,62a443481c22fcf20a4ace5c,kxzbd,"[""k"",""x"",""z"",""b"",""d""]","[0.5000999999998612,0.8523000000000422,1.300199999999947,2.1333999999999094,2.5048000000000457,2.823599999999857]",1,KXZBD,8,0,8,0,1,,,,,,,,,,,,,,,,,,,,,,,,,,,,,,,,,,,,,,,,,,,,,,,,,,,,,,,,,,,,,,,,,,,,,,,,,,,,,,,,,,,,,,,,,,,
,,,,,,0,0,0,0,1,X V Q F H G B L J M P D K C T S W R N Z,5e8f32cb79a8e80727d489a3,22,Mężczyzna,2022-06-11_09h25.14.050,task,2021.1.4,Win32,60.06727535,6299f149e92ead563fba08ef,62a443481c22fcf20a4ace5c,,,,,,,,,,,,,,,,,,,,,,,,,,,,,,,,,,,,,,,,,,,,,,,,,,,,,,,,,,,,,,,,,,,,,,,,,,,,,,,,,,,,,,,,,,,,,,,,,,,,,
,,,,,,1,0,1,0,1,X V Q F H G B L J M P D K C T S W R N Z,5e8f32cb79a8e80727d489a3,22,Mężczyzna,2022-06-11_09h25.14.050,task,2021.1.4,Win32,60.06727535,6299f149e92ead563fba08ef,62a443481c22fcf20a4ace5c,,,,,,,,,,,,,,,,,,,,,,,,,,,,,,,,,,,,,,,,,,,,,,,,,,,,,,,,,,,,,,,,,,,,,,,,,,,,,,,,,,,,,,,,,,,,,,,,,,,,,
,,,,,,2,0,2,0,1,X V Q F H G B L J M P D K C T S W R N Z,5e8f32cb79a8e80727d489a3,22,Mężczyzna,2022-06-11_09h25.14.050,task,2021.1.4,Win32,60.06727535,6299f149e92ead563fba08ef,62a443481c22fcf20a4ace5c,,,,,,,,,,,,,,,,,,,,,,,,,,,,,,,,,,,,,,,,,,,,,,,,,,,,,,,,,,,,,,,,,,,,,,,,,,,,,,,,,,,,,,,,,,,,,,,,,,,,,
,,,,,,3,0,3,0,1,X V Q F H G B L J M P D K C T S W R N Z,5e8f32cb79a8e80727d489a3,22,Mężczyzna,2022-06-11_09h25.14.050,task,2021.1.4,Win32,60.06727535,6299f149e92ead563fba08ef,62a443481c22fcf20a4ace5c,,,,,,,,,,,,,,,,,,,,,,,,,,,,,,,,,,,,,,,,,,,,,,,,,,,,,,,,,,,,,,,,,,,,,,,,,,,,,,,,,,,,,,,,,,,,,,,,,,,,,
,,,,,,4,0,4,0,1,X V Q F H G B L J M P D K C T S W R N Z,5e8f32cb79a8e80727d489a3,22,Mężczyzna,2022-06-11_09h25.14.050,task,2021.1.4,Win32,60.06727535,6299f149e92ead563fba08ef,62a443481c22fcf20a4ace5c,,,,,,,,,,,,,,,,,,,,,,,,,,,,,,,,,,,,,,,,,,,,,,,,,,,,,,,,,,,,,,,,,,,,,,,,,,,,,,,,,,,,,,,,,,,,,,,,,,,,,
,,,,,,5,0,5,0,1,X V Q F H G B L J M P D K C T S W R N Z,5e8f32cb79a8e80727d489a3,22,Mężczyzna,2022-06-11_09h25.14.050,task,2021.1.4,Win32,60.06727535,6299f149e92ead563fba08ef,62a443481c22fcf20a4ace5c,,,,,,,,,,,,,,,,,,,,,,,,,,,,,,,,,,,,,,,,,,,,,,,,,,,,,,,,,,,,,,,,,,,,,,,,,,,,,,,,,,,,,,,,,,,,,,,,,,,,,
,,,,,,,,,,,,5e8f32cb79a8e80727d489a3,22,Mężczyzna,2022-06-11_09h25.14.050,task,2021.1.4,Win32,60.06727535,6299f149e92ead563fba08ef,62a443481c22fcf20a4ace5c,sqxqzf,"[""s"",""q"",""x"",""q"",""z"",""f""]","[0.38369999999997617,0.7167999999998358,2.049699999999987,2.795299999999841,3.266500000000022,3.5995999999998816,4.216199999999972]",0,SQXFQZ,9,0,9,0,1,,,,,,,,,,,,,,,,,,,,,,,,,,,,,,,,,,,,,,,,,,,,,,,,,,,,,,,,,,,,,,,,,,,,,,,,,,,,,,,,,,,,,,,,,,,
,,,,,,0,0,0,0,1,X V Q F H G B L J M P D K C T S W R N Z,5e8f32cb79a8e80727d489a3,22,Mężczyzna,2022-06-11_09h25.14.050,task,2021.1.4,Win32,60.06727535,6299f149e92ead563fba08ef,62a443481c22fcf20a4ace5c,,,,,,,,,,,,,,,,,,,,,,,,,,,,,,,,,,,,,,,,,,,,,,,,,,,,,,,,,,,,,,,,,,,,,,,,,,,,,,,,,,,,,,,,,,,,,,,,,,,,,
,,,,,,1,0,1,0,1,X V Q F H G B L J M P D K C T S W R N Z,5e8f32cb79a8e80727d489a3,22,Mężczyzna,2022-06-11_09h25.14.050,task,2021.1.4,Win32,60.06727535,6299f149e92ead563fba08ef,62a443481c22fcf20a4ace5c,,,,,,,,,,,,,,,,,,,,,,,,,,,,,,,,,,,,,,,,,,,,,,,,,,,,,,,,,,,,,,,,,,,,,,,,,,,,,,,,,,,,,,,,,,,,,,,,,,,,,
,,,,,,2,0,2,0,1,X V Q F H G B L J M P D K C T S W R N Z,5e8f32cb79a8e80727d489a3,22,Mężczyzna,2022-06-11_09h25.14.050,task,2021.1.4,Win32,60.06727535,6299f149e92ead563fba08ef,62a443481c22fcf20a4ace5c,,,,,,,,,,,,,,,,,,,,,,,,,,,,,,,,,,,,,,,,,,,,,,,,,,,,,,,,,,,,,,,,,,,,,,,,,,,,,,,,,,,,,,,,,,,,,,,,,,,,,
,,,,,,3,0,3,0,1,X V Q F H G B L J M P D K C T S W R N Z,5e8f32cb79a8e80727d489a3,22,Mężczyzna,2022-06-11_09h25.14.050,task,2021.1.4,Win32,60.06727535,6299f149e92ead563fba08ef,62a443481c22fcf20a4ace5c,,,,,,,,,,,,,,,,,,,,,,,,,,,,,,,,,,,,,,,,,,,,,,,,,,,,,,,,,,,,,,,,,,,,,,,,,,,,,,,,,,,,,,,,,,,,,,,,,,,,,
,,,,,,4,0,4,0,1,X V Q F H G B L J M P D K C T S W R N Z,5e8f32cb79a8e80727d489a3,22,Mężczyzna,2022-06-11_09h25.14.050,task,2021.1.4,Win32,60.06727535,6299f149e92ead563fba08ef,62a443481c22fcf20a4ace5c,,,,,,,,,,,,,,,,,,,,,,,,,,,,,,,,,,,,,,,,,,,,,,,,,,,,,,,,,,,,,,,,,,,,,,,,,,,,,,,,,,,,,,,,,,,,,,,,,,,,,
,,,,,,5,0,5,0,1,X V Q F H G B L J M P D K C T S W R N Z,5e8f32cb79a8e80727d489a3,22,Mężczyzna,2022-06-11_09h25.14.050,task,2021.1.4,Win32,60.06727535,6299f149e92ead563fba08ef,62a443481c22fcf20a4ace5c,,,,,,,,,,,,,,,,,,,,,,,,,,,,,,,,,,,,,,,,,,,,,,,,,,,,,,,,,,,,,,,,,,,,,,,,,,,,,,,,,,,,,,,,,,,,,,,,,,,,,
,,,,,,,,,,,,5e8f32cb79a8e80727d489a3,22,Mężczyzna,2022-06-11_09h25.14.050,task,2021.1.4,Win32,60.06727535,6299f149e92ead563fba08ef,62a443481c22fcf20a4ace5c,lmnmmk,"[""l"",""m"",""n"",""m"",""m"",""k""]","[0.8172999999998183,1.1504999999999939,1.5168999999999073,1.8905999999998642,2.1501999999999555,3.1996999999999503,4.518299999999812]",1,LMNMMK,10,0,10,0,1,,,,,,,,,,,,,,,,,,,,,,,,,,,,,,,,,,,,,,,,,,,,,,,,,,,,,,,,,,,,,,,,,,,,,,,,,,,,,,,,,,,,,,,,,,,
,,,,,,0,0,0,0,1,X V Q F H G B L J M P D K C T S W R N Z,5e8f32cb79a8e80727d489a3,22,Mężczyzna,2022-06-11_09h25.14.050,task,2021.1.4,Win32,60.06727535,6299f149e92ead563fba08ef,62a443481c22fcf20a4ace5c,,,,,,,,,,,,,,,,,,,,,,,,,,,,,,,,,,,,,,,,,,,,,,,,,,,,,,,,,,,,,,,,,,,,,,,,,,,,,,,,,,,,,,,,,,,,,,,,,,,,,
,,,,,,1,0,1,0,1,X V Q F H G B L J M P D K C T S W R N Z,5e8f32cb79a8e80727d489a3,22,Mężczyzna,2022-06-11_09h25.14.050,task,2021.1.4,Win32,60.06727535,6299f149e92ead563fba08ef,62a443481c22fcf20a4ace5c,,,,,,,,,,,,,,,,,,,,,,,,,,,,,,,,,,,,,,,,,,,,,,,,,,,,,,,,,,,,,,,,,,,,,,,,,,,,,,,,,,,,,,,,,,,,,,,,,,,,,
,,,,,,2,0,2,0,1,X V Q F H G B L J M P D K C T S W R N Z,5e8f32cb79a8e80727d489a3,22,Mężczyzna,2022-06-11_09h25.14.050,task,2021.1.4,Win32,60.06727535,6299f149e92ead563fba08ef,62a443481c22fcf20a4ace5c,,,,,,,,,,,,,,,,,,,,,,,,,,,,,,,,,,,,,,,,,,,,,,,,,,,,,,,,,,,,,,,,,,,,,,,,,,,,,,,,,,,,,,,,,,,,,,,,,,,,,
,,,,,,3,0,3,0,1,X V Q F H G B L J M P D K C T S W R N Z,5e8f32cb79a8e80727d489a3,22,Mężczyzna,2022-06-11_09h25.14.050,task,2021.1.4,Win32,60.06727535,6299f149e92ead563fba08ef,62a443481c22fcf20a4ace5c,,,,,,,,,,,,,,,,,,,,,,,,,,,,,,,,,,,,,,,,,,,,,,,,,,,,,,,,,,,,,,,,,,,,,,,,,,,,,,,,,,,,,,,,,,,,,,,,,,,,,
,,,,,,4,0,4,0,1,X V Q F H G B L J M P D K C T S W R N Z,5e8f32cb79a8e80727d489a3,22,Mężczyzna,2022-06-11_09h25.14.050,task,2021.1.4,Win32,60.06727535,6299f149e92ead563fba08ef,62a443481c22fcf20a4ace5c,,,,,,,,,,,,,,,,,,,,,,,,,,,,,,,,,,,,,,,,,,,,,,,,,,,,,,,,,,,,,,,,,,,,,,,,,,,,,,,,,,,,,,,,,,,,,,,,,,,,,
,,,,,,5,0,5,0,1,X V Q F H G B L J M P D K C T S W R N Z,5e8f32cb79a8e80727d489a3,22,Mężczyzna,2022-06-11_09h25.14.050,task,2021.1.4,Win32,60.06727535,6299f149e92ead563fba08ef,62a443481c22fcf20a4ace5c,,,,,,,,,,,,,,,,,,,,,,,,,,,,,,,,,,,,,,,,,,,,,,,,,,,,,,,,,,,,,,,,,,,,,,,,,,,,,,,,,,,,,,,,,,,,,,,,,,,,,
,,,,,,,,,,,,5e8f32cb79a8e80727d489a3,22,Mężczyzna,2022-06-11_09h25.14.050,task,2021.1.4,Win32,60.06727535,6299f149e92ead563fba08ef,62a443481c22fcf20a4ace5c,qsdncz,"[""q"",""s"",""d"",""n"",""c"",""z""]","[0.8506999999999323,1.2006999999999266,1.5171000000000845,1.7933000000000447,2.950300000000027,3.2784999999999798,3.75019999999995]",1,QSDNCZ,11,0,11,0,1,,,,,,,,,,,,,,,,,,,,,,,,,,,,,,,,,,,,,,,,,,,,,,,,,,,,,,,,,,,,,,,,,,,,,,,,,,,,,,,,,,,,,,,,,,,
,,,,,,0,0,0,0,1,X V Q F H G B L J M P D K C T S W R N Z,5e8f32cb79a8e80727d489a3,22,Mężczyzna,2022-06-11_09h25.14.050,task,2021.1.4,Win32,60.06727535,6299f149e92ead563fba08ef,62a443481c22fcf20a4ace5c,,,,,,,,,,,,,,,,,,,,,,,,,,,,,,,,,,,,,,,,,,,,,,,,,,,,,,,,,,,,,,,,,,,,,,,,,,,,,,,,,,,,,,,,,,,,,,,,,,,,,
,,,,,,1,0,1,0,1,X V Q F H G B L J M P D K C T S W R N Z,5e8f32cb79a8e80727d489a3,22,Mężczyzna,2022-06-11_09h25.14.050,task,2021.1.4,Win32,60.06727535,6299f149e92ead563fba08ef,62a443481c22fcf20a4ace5c,,,,,,,,,,,,,,,,,,,,,,,,,,,,,,,,,,,,,,,,,,,,,,,,,,,,,,,,,,,,,,,,,,,,,,,,,,,,,,,,,,,,,,,,,,,,,,,,,,,,,
,,,,,,2,0,2,0,1,X V Q F H G B L J M P D K C T S W R N Z,5e8f32cb79a8e80727d489a3,22,Mężczyzna,2022-06-11_09h25.14.050,task,2021.1.4,Win32,60.06727535,6299f149e92ead563fba08ef,62a443481c22fcf20a4ace5c,,,,,,,,,,,,,,,,,,,,,,,,,,,,,,,,,,,,,,,,,,,,,,,,,,,,,,,,,,,,,,,,,,,,,,,,,,,,,,,,,,,,,,,,,,,,,,,,,,,,,
,,,,,,3,0,3,0,1,X V Q F H G B L J M P D K C T S W R N Z,5e8f32cb79a8e80727d489a3,22,Mężczyzna,2022-06-11_09h25.14.050,task,2021.1.4,Win32,60.06727535,6299f149e92ead563fba08ef,62a443481c22fcf20a4ace5c,,,,,,,,,,,,,,,,,,,,,,,,,,,,,,,,,,,,,,,,,,,,,,,,,,,,,,,,,,,,,,,,,,,,,,,,,,,,,,,,,,,,,,,,,,,,,,,,,,,,,
,,,,,,4,0,4,0,1,X V Q F H G B L J M P D K C T S W R N Z,5e8f32cb79a8e80727d489a3,22,Mężczyzna,2022-06-11_09h25.14.050,task,2021.1.4,Win32,60.06727535,6299f149e92ead563fba08ef,62a443481c22fcf20a4ace5c,,,,,,,,,,,,,,,,,,,,,,,,,,,,,,,,,,,,,,,,,,,,,,,,,,,,,,,,,,,,,,,,,,,,,,,,,,,,,,,,,,,,,,,,,,,,,,,,,,,,,
,,,,,,5,0,5,0,1,X V Q F H G B L J M P D K C T S W R N Z,5e8f32cb79a8e80727d489a3,22,Mężczyzna,2022-06-11_09h25.14.050,task,2021.1.4,Win32,60.06727535,6299f149e92ead563fba08ef,62a443481c22fcf20a4ace5c,,,,,,,,,,,,,,,,,,,,,,,,,,,,,,,,,,,,,,,,,,,,,,,,,,,,,,,,,,,,,,,,,,,,,,,,,,,,,,,,,,,,,,,,,,,,,,,,,,,,,
,,,,,,6,0,6,0,1,X V Q F H G B L J M P D K C T S W R N Z,5e8f32cb79a8e80727d489a3,22,Mężczyzna,2022-06-11_09h25.14.050,task,2021.1.4,Win32,60.06727535,6299f149e92ead563fba08ef,62a443481c22fcf20a4ace5c,,,,,,,,,,,,,,,,,,,,,,,,,,,,,,,,,,,,,,,,,,,,,,,,,,,,,,,,,,,,,,,,,,,,,,,,,,,,,,,,,,,,,,,,,,,,,,,,,,,,,
,,,,,,,,,,,,5e8f32cb79a8e80727d489a3,22,Mężczyzna,2022-06-11_09h25.14.050,task,2021.1.4,Win32,60.06727535,6299f149e92ead563fba08ef,62a443481c22fcf20a4ace5c,zcqrxw,"[""z"",""c"",""q"",""r"",""x"",""w""]","[0.46039999999990755,0.8933999999999003,1.8330999999998596,2.1329999999999814,2.666599999999846,2.9668000000000347,4.948899999999895]",0,ZCWRQXW,12,0,12,0,1,,,,,,,,,,,,,,,,,,,,,,,,,,,,,,,,,,,,,,,,,,,,,,,,,,,,,,,,,,,,,,,,,,,,,,,,,,,,,,,,,,,,,,,,,,,
,,,,,,0,0,0,0,1,X V Q F H G B L J M P D K C T S W R N Z,5e8f32cb79a8e80727d489a3,22,Mężczyzna,2022-06-11_09h25.14.050,task,2021.1.4,Win32,60.06727535,6299f149e92ead563fba08ef,62a443481c22fcf20a4ace5c,,,,,,,,,,,,,,,,,,,,,,,,,,,,,,,,,,,,,,,,,,,,,,,,,,,,,,,,,,,,,,,,,,,,,,,,,,,,,,,,,,,,,,,,,,,,,,,,,,,,,
,,,,,,1,0,1,0,1,X V Q F H G B L J M P D K C T S W R N Z,5e8f32cb79a8e80727d489a3,22,Mężczyzna,2022-06-11_09h25.14.050,task,2021.1.4,Win32,60.06727535,6299f149e92ead563fba08ef,62a443481c22fcf20a4ace5c,,,,,,,,,,,,,,,,,,,,,,,,,,,,,,,,,,,,,,,,,,,,,,,,,,,,,,,,,,,,,,,,,,,,,,,,,,,,,,,,,,,,,,,,,,,,,,,,,,,,,
,,,,,,2,0,2,0,1,X V Q F H G B L J M P D K C T S W R N Z,5e8f32cb79a8e80727d489a3,22,Mężczyzna,2022-06-11_09h25.14.050,task,2021.1.4,Win32,60.06727535,6299f149e92ead563fba08ef,62a443481c22fcf20a4ace5c,,,,,,,,,,,,,,,,,,,,,,,,,,,,,,,,,,,,,,,,,,,,,,,,,,,,,,,,,,,,,,,,,,,,,,,,,,,,,,,,,,,,,,,,,,,,,,,,,,,,,
,,,,,,3,0,3,0,1,X V Q F H G B L J M P D K C T S W R N Z,5e8f32cb79a8e80727d489a3,22,Mężczyzna,2022-06-11_09h25.14.050,task,2021.1.4,Win32,60.06727535,6299f149e92ead563fba08ef,62a443481c22fcf20a4ace5c,,,,,,,,,,,,,,,,,,,,,,,,,,,,,,,,,,,,,,,,,,,,,,,,,,,,,,,,,,,,,,,,,,,,,,,,,,,,,,,,,,,,,,,,,,,,,,,,,,,,,
,,,,,,4,0,4,0,1,X V Q F H G B L J M P D K C T S W R N Z,5e8f32cb79a8e80727d489a3,22,Mężczyzna,2022-06-11_09h25.14.050,task,2021.1.4,Win32,60.06727535,6299f149e92ead563fba08ef,62a443481c22fcf20a4ace5c,,,,,,,,,,,,,,,,,,,,,,,,,,,,,,,,,,,,,,,,,,,,,,,,,,,,,,,,,,,,,,,,,,,,,,,,,,,,,,,,,,,,,,,,,,,,,,,,,,,,,
,,,,,,5,0,5,0,1,X V Q F H G B L J M P D K C T S W R N Z,5e8f32cb79a8e80727d489a3,22,Mężczyzna,2022-06-11_09h25.14.050,task,2021.1.4,Win32,60.06727535,6299f149e92ead563fba08ef,62a443481c22fcf20a4ace5c,,,,,,,,,,,,,,,,,,,,,,,,,,,,,,,,,,,,,,,,,,,,,,,,,,,,,,,,,,,,,,,,,,,,,,,,,,,,,,,,,,,,,,,,,,,,,,,,,,,,,
,,,,,,6,0,6,0,1,X V Q F H G B L J M P D K C T S W R N Z,5e8f32cb79a8e80727d489a3,22,Mężczyzna,2022-06-11_09h25.14.050,task,2021.1.4,Win32,60.06727535,6299f149e92ead563fba08ef,62a443481c22fcf20a4ace5c,,,,,,,,,,,,,,,,,,,,,,,,,,,,,,,,,,,,,,,,,,,,,,,,,,,,,,,,,,,,,,,,,,,,,,,,,,,,,,,,,,,,,,,,,,,,,,,,,,,,,
,,,,,,,,,,,,5e8f32cb79a8e80727d489a3,22,Mężczyzna,2022-06-11_09h25.14.050,task,2021.1.4,Win32,60.06727535,6299f149e92ead563fba08ef,62a443481c22fcf20a4ace5c,tdwprs,"[""t"",""d"",""w"",""p"",""r"",""s""]","[0.7165999999998576,1.0497999999998058,1.4163999999998964,1.8162999999998135,3.132499999999993,3.3091999999999473,3.7492999999998062]",0,TDWTPRS,13,0,13,0,1,,,,,,,,,,,,,,,,,,,,,,,,,,,,,,,,,,,,,,,,,,,,,,,,,,,,,,,,,,,,,,,,,,,,,,,,,,,,,,,,,,,,,,,,,,,
,,,,,,0,0,0,0,1,X V Q F H G B L J M P D K C T S W R N Z,5e8f32cb79a8e80727d489a3,22,Mężczyzna,2022-06-11_09h25.14.050,task,2021.1.4,Win32,60.06727535,6299f149e92ead563fba08ef,62a443481c22fcf20a4ace5c,,,,,,,,,,,,,,,,,,,,,,,,,,,,,,,,,,,,,,,,,,,,,,,,,,,,,,,,,,,,,,,,,,,,,,,,,,,,,,,,,,,,,,,,,,,,,,,,,,,,,
,,,,,,1,0,1,0,1,X V Q F H G B L J M P D K C T S W R N Z,5e8f32cb79a8e80727d489a3,22,Mężczyzna,2022-06-11_09h25.14.050,task,2021.1.4,Win32,60.06727535,6299f149e92ead563fba08ef,62a443481c22fcf20a4ace5c,,,,,,,,,,,,,,,,,,,,,,,,,,,,,,,,,,,,,,,,,,,,,,,,,,,,,,,,,,,,,,,,,,,,,,,,,,,,,,,,,,,,,,,,,,,,,,,,,,,,,
,,,,,,2,0,2,0,1,X V Q F H G B L J M P D K C T S W R N Z,5e8f32cb79a8e80727d489a3,22,Mężczyzna,2022-06-11_09h25.14.050,task,2021.1.4,Win32,60.06727535,6299f149e92ead563fba08ef,62a443481c22fcf20a4ace5c,,,,,,,,,,,,,,,,,,,,,,,,,,,,,,,,,,,,,,,,,,,,,,,,,,,,,,,,,,,,,,,,,,,,,,,,,,,,,,,,,,,,,,,,,,,,,,,,,,,,,
,,,,,,3,0,3,0,1,X V Q F H G B L J M P D K C T S W R N Z,5e8f32cb79a8e80727d489a3,22,Mężczyzna,2022-06-11_09h25.14.050,task,2021.1.4,Win32,60.06727535,6299f149e92ead563fba08ef,62a443481c22fcf20a4ace5c,,,,,,,,,,,,,,,,,,,,,,,,,,,,,,,,,,,,,,,,,,,,,,,,,,,,,,,,,,,,,,,,,,,,,,,,,,,,,,,,,,,,,,,,,,,,,,,,,,,,,
,,,,,,4,0,4,0,1,X V Q F H G B L J M P D K C T S W R N Z,5e8f32cb79a8e80727d489a3,22,Mężczyzna,2022-06-11_09h25.14.050,task,2021.1.4,Win32,60.06727535,6299f149e92ead563fba08ef,62a443481c22fcf20a4ace5c,,,,,,,,,,,,,,,,,,,,,,,,,,,,,,,,,,,,,,,,,,,,,,,,,,,,,,,,,,,,,,,,,,,,,,,,,,,,,,,,,,,,,,,,,,,,,,,,,,,,,
,,,,,,5,0,5,0,1,X V Q F H G B L J M P D K C T S W R N Z,5e8f32cb79a8e80727d489a3,22,Mężczyzna,2022-06-11_09h25.14.050,task,2021.1.4,Win32,60.06727535,6299f149e92ead563fba08ef,62a443481c22fcf20a4ace5c,,,,,,,,,,,,,,,,,,,,,,,,,,,,,,,,,,,,,,,,,,,,,,,,,,,,,,,,,,,,,,,,,,,,,,,,,,,,,,,,,,,,,,,,,,,,,,,,,,,,,
,,,,,,6,0,6,0,1,X V Q F H G B L J M P D K C T S W R N Z,5e8f32cb79a8e80727d489a3,22,Mężczyzna,2022-06-11_09h25.14.050,task,2021.1.4,Win32,60.06727535,6299f149e92ead563fba08ef,62a443481c22fcf20a4ace5c,,,,,,,,,,,,,,,,,,,,,,,,,,,,,,,,,,,,,,,,,,,,,,,,,,,,,,,,,,,,,,,,,,,,,,,,,,,,,,,,,,,,,,,,,,,,,,,,,,,,,
,,,,,,,,,,,,5e8f32cb79a8e80727d489a3,22,Mężczyzna,2022-06-11_09h25.14.050,task,2021.1.4,Win32,60.06727535,6299f149e92ead563fba08ef,62a443481c22fcf20a4ace5c,lclklcs,"[""l"",""c"",""l"",""k"",""l"",""c"",""s""]","[0.750400000000127,1.1836000000000695,1.6761000000000763,1.9634000000001208,2.762100000000089,4.138999999999982,4.418800000000033,4.990100000000069]",0,LCLKSLT,14,0,14,0,1,,,,,,,,,,,,,,,,,,,,,,,,,,,,,,,,,,,,,,,,,,,,,,,,,,,,,,,,,,,,,,,,,,,,,,,,,,,,,,,,,,,,,,,,,,,
,,,,,,,,,,,,5e8f32cb79a8e80727d489a3,22,Mężczyzna,2022-06-11_09h25.14.050,task,2021.1.4,Win32,60.06727535,6299f149e92ead563fba08ef,62a443481c22fcf20a4ace5c,,,,,,,,,,,space,13.4305,0,"[""0""]",1,[2.6221000000001027],[2.6221000000001027],0,0,0,0,1,Practice,1,(3x3) -  9,0,,,,,,,,,,,,,,,,,,,,,,,,,,,,,,,,,,,,,,,,,,,,,,,,,,,,,,,,,,,,,,,,,,,,,,,,,,,
,,,,,,,,,,,,5e8f32cb79a8e80727d489a3,22,Mężczyzna,2022-06-11_09h25.14.050,task,2021.1.4,Win32,60.06727535,6299f149e92ead563fba08ef,62a443481c22fcf20a4ace5c,,,,,,,,,,,,,2,"[""2""]",1,[2.570999999999998],"[2.6221000000001027,2.570999999999998]",0,1,1,2,1,Practice,3,(4x4) - 14,2,,,,,,,,,,,,,,,,,,,,,,,,,,,,,,,,,,,,,,,,,,,,,,,,,,,,,,,,,,,,,,,,,,,,,,,,,,,
,,,,,,,,,,,,5e8f32cb79a8e80727d489a3,22,Mężczyzna,2022-06-11_09h25.14.050,task,2021.1.4,Win32,60.06727535,6299f149e92ead563fba08ef,62a443481c22fcf20a4ace5c,,,,,,,,,,,,,6,"[""6""]",1,[2.6773999999999205],"[2.6221000000001027,2.570999999999998,2.6773999999999205]",0,2,2,6,1,Practice,7,(25/5) + 1,6,,,,,,,,,,,,,,,,,,,,,,,,,,,,,,,,,,,,,,,,,,,,,,,,,,,,,,,,,,,,,,,,,,,,,,,,,,,
,,,,,,,,,,,,5e8f32cb79a8e80727d489a3,22,Mężczyzna,2022-06-11_09h25.14.050,task,2021.1.4,Win32,60.06727535,6299f149e92ead563fba08ef,62a443481c22fcf20a4ace5c,,,,,,,,,,,,,5,"[""5""]",1,[1.7803999999999292],"[2.6221000000001027,2.570999999999998,2.6773999999999205,1.7803999999999292]",0,3,3,5,1,Practice,6,(4/2) + 3,5,,,,,,,,,,,,,,,,,,,,,,,,,,,,,,,,,,,,,,,,,,,,,,,,,,,,,,,,,,,,,,,,,,,,,,,,,,,
,,,,,,,,,,,,5e8f32cb79a8e80727d489a3,22,Mężczyzna,2022-06-11_09h25.14.050,task,2021.1.4,Win32,60.06727535,6299f149e92ead563fba08ef,62a443481c22fcf20a4ace5c,,,,,,,,,,,,,7,"[""7""]",1,[2.6271999999999593],"[2.6221000000001027,2.570999999999998,2.6773999999999205,1.7803999999999292,2.6271999999999593]",0,4,4,7,1,Practice,8,(5x5) - 18,7,,,,,,,,,,,,,,,,,,,,,,,,,,,,,,,,,,,,,,,,,,,,,,,,,,,,,,,,,,,,,,,,,,,,,,,,,,,
,,,,,,,,,,,,5e8f32cb79a8e80727d489a3,22,Mężczyzna,2022-06-11_09h25.14.050,task,2021.1.4,Win32,60.06727535,6299f149e92ead563fba08ef,62a443481c22fcf20a4ace5c,,,,,,,,,,,,,3,"[""3""]",1,[2.0548000000000286],"[2.6221000000001027,2.570999999999998,2.6773999999999205,1.7803999999999292,2.6271999999999593,2.0548000000000286]",0,5,5,3,1,Practice,4,(8/4) + 1,3,,,,,,,,,,,,,,,,,,,,,,,,,,,,,,,,,,,,,,,,,,,,,,,,,,,,,,,,,,,,,,,,,,,,,,,,,,,
,,,,,,,,,,,,5e8f32cb79a8e80727d489a3,22,Mężczyzna,2022-06-11_09h25.14.050,task,2021.1.4,Win32,60.06727535,6299f149e92ead563fba08ef,62a443481c22fcf20a4ace5c,,,,,,,,,,,,,4,"[""4""]",1,[2.652700000000209],"[2.6221000000001027,2.570999999999998,2.6773999999999205,1.7803999999999292,2.6271999999999593,2.0548000000000286,2.652700000000209]",0,6,6,4,1,Practice,5,(2x6) - 8,4,,,,,,,,,,,,,,,,,,,,,,,,,,,,,,,,,,,,,,,,,,,,,,,,,,,,,,,,,,,,,,,,,,,,,,,,,,,
,,,,,,,,,,,,5e8f32cb79a8e80727d489a3,22,Mężczyzna,2022-06-11_09h25.14.050,task,2021.1.4,Win32,60.06727535,6299f149e92ead563fba08ef,62a443481c22fcf20a4ace5c,,,,,,,,,,,,,8,"[""8""]",1,[2.382199999999955],"[2.6221000000001027,2.570999999999998,2.6773999999999205,1.7803999999999292,2.6271999999999593,2.0548000000000286,2.652700000000209,2.382199999999955]",0,7,7,8,1,Practice,9,(3x3) - 1,8,,,,,,,,,,,,,,,,,,,,,,,,,,,,,,,,,,,,,,,,,,,,,,,,,,,,,,,,,,,,,,,,,,,,,,,,,,,
,,,,,,,,,,,,5e8f32cb79a8e80727d489a3,22,Mężczyzna,2022-06-11_09h25.14.050,task,2021.1.4,Win32,60.06727535,6299f149e92ead563fba08ef,62a443481c22fcf20a4ace5c,,,,,,,,,,,,,9,"[""9""]",1,[1.9413000000000409],"[2.6221000000001027,2.570999999999998,2.6773999999999205,1.7803999999999292,2.6271999999999593,2.0548000000000286,2.652700000000209,2.382199999999955,1.9413000000000409]",0,8,8,9,1,Practice,10,(20/2) - 1,9,,,,,,,,,,,,,,,,,,,,,,,,,,,,,,,,,,,,,,,,,,,,,,,,,,,,,,,,,,,,,,,,,,,,,,,,,,,
,,,,,,,,,,,,5e8f32cb79a8e80727d489a3,22,Mężczyzna,2022-06-11_09h25.14.050,task,2021.1.4,Win32,60.06727535,6299f149e92ead563fba08ef,62a443481c22fcf20a4ace5c,,,,,,,,,,,,,1,"[""1""]",1,[1.4467000000001917],"[2.6221000000001027,2.570999999999998,2.6773999999999205,1.7803999999999292,2.6271999999999593,2.0548000000000286,2.652700000000209,2.382199999999955,1.9413000000000409,1.4467000000001917]",0,9,9,1,1,Practice,2,(4x4) - 15,1,,,,,,,,,,,,,,,,,,,,,,,,,,,,,,,,,,,,,,,,,,,,,,,,,,,,,,,,,,,,,,,,,,,,,,,,,,,
,,,,,,,,,,,,5e8f32cb79a8e80727d489a3,22,Mężczyzna,2022-06-11_09h25.14.050,task,2021.1.4,Win32,60.06727535,6299f149e92ead563fba08ef,62a443481c22fcf20a4ace5c,,,,,,,,,,,,,,,,,,,,,,,,,,,1,22.7558,1.517053333,7.492391596,0.706748027,3.340463242,space,1.2921,0,0,0,0,1,,,,,,,,,,,,,,,,,,,,,,,,,,,,,,,,,,,,,,,,,,,,,,,,,,,,,,,,,,,,,,
,,,,,,,,,,,,5e8f32cb79a8e80727d489a3,22,Mężczyzna,2022-06-11_09h25.14.050,task,2021.1.4,Win32,60.06727535,6299f149e92ead563fba08ef,62a443481c22fcf20a4ace5c,,,,,,,,,,,,,1,,,,,,,,,,Practice,2,(4x4) - 15,1,,,,,,,,,,,,,,space,12.6353,"[""1""]",1,[1.7512999999998442],1,0,0,0,1,1,,,,,,,,,,,,,,,,,,,,,,,,,,,,,,,,,,,,,,,,,,,,,,,,,,,
,,,,,,,,,,,X V Q F H G B L J M P D K C T S W R N Z,5e8f32cb79a8e80727d489a3,22,Mężczyzna,2022-06-11_09h25.14.050,task,2021.1.4,Win32,60.06727535,6299f149e92ead563fba08ef,62a443481c22fcf20a4ace5c,,,,,,,,,,,,,,,,,,,,,,,,,,,,,,,,,,,,,,,,,,,,,,,,,,,0,0,0,0,1,,,,,,,,,,,,,,,,,,,,,,,,,,,,,,,,,,,,,,,,,,,,,,
,,,,,,,,,,,,5e8f32cb79a8e80727d489a3,22,Mężczyzna,2022-06-11_09h25.14.050,task,2021.1.4,Win32,60.06727535,6299f149e92ead563fba08ef,62a443481c22fcf20a4ace5c,,,,,,,,,,,,,,,,,,,,,,,Practice,7,(25/5) + 1,6,,,,,,,,,,,,,,,,,0,,0,0,0,0,6,1,,,,,,,,,,,,,,,,,,,,,,,,,,,,,,,,,,,,,,,,,,,,,,,,,,,
,,,,,,,,,,,,5e8f32cb79a8e80727d489a3,22,Mężczyzna,2022-06-11_09h25.14.050,task,2021.1.4,Win32,60.06727535,6299f149e92ead563fba08ef,62a443481c22fcf20a4ace5c,,,,,,,,,,,,,5,,,,,,,,,,Practice,6,(4/2) + 3,5,,,,,,,,,,,,,,,,"[""5""]",1,[1.5176000000000727],1,0,1,1,5,1,,,,,,,,,,,,,,,,,,,,,,,,,,,,,,,,,,,,,,,,,,,,,,,,,,,
,,,,,,,,,,,X V Q F H G B L J M P D K C T S W R N Z,5e8f32cb79a8e80727d489a3,22,Mężczyzna,2022-06-11_09h25.14.050,task,2021.1.4,Win32,60.06727535,6299f149e92ead563fba08ef,62a443481c22fcf20a4ace5c,,,,,,,,,,,,,,,,,,,,,,,,,,,,,,,,,,,,,,,,,,,,,,,,,,,1,0,1,0,1,,,,,,,,,,,,,,,,,,,,,,,,,,,,,,,,,,,,,,,,,,,,,,
,,,,,,,,,,,,5e8f32cb79a8e80727d489a3,22,Mężczyzna,2022-06-11_09h25.14.050,task,2021.1.4,Win32,60.06727535,6299f149e92ead563fba08ef,62a443481c22fcf20a4ace5c,,,,,,,,,,,,,,,,,,,,,,,,,,,,,,,,,,,,,,,,,,,,,,,,,,,,,,,,zq,"[""z"",""q""]",0,"[1.7734000000001515,2.1013000000000375,2.6393000000000484]",1,0,0,0,0,1,,,,,,,,,,,,,,,,,,,,,,,,,,,,,,,,,,,,
,,,,,,,,,,,,5e8f32cb79a8e80727d489a3,22,Mężczyzna,2022-06-11_09h25.14.050,task,2021.1.4,Win32,60.06727535,6299f149e92ead563fba08ef,62a443481c22fcf20a4ace5c,,,,,,,,,,,,,6,,,,,,,,,,Practice,7,(25/5) + 1,6,,,,,,,,,,,,,,,,"[""6""]",1,[1.10939999999988],1,0,0,0,6,1,,,,,,,,,,,,,,,,,,,,,,,,,,,,,,,,,,,,,,,,,,,,,,,,,,,
,,,,,,,,,,,X V Q F H G B L J M P D K C T S W R N Z,5e8f32cb79a8e80727d489a3,22,Mężczyzna,2022-06-11_09h25.14.050,task,2021.1.4,Win32,60.06727535,6299f149e92ead563fba08ef,62a443481c22fcf20a4ace5c,,,,,,,,,,,,,,,,,,,,,,,,,,,,,,,,,,,,,,,,,,,,,,,,,,,0,0,0,0,1,,,,,,,,,,,,,,,,,,,,,,,,,,,,,,,,,,,,,,,,,,,,,,
,,,,,,,,,,,,5e8f32cb79a8e80727d489a3,22,Mężczyzna,2022-06-11_09h25.14.050,task,2021.1.4,Win32,60.06727535,6299f149e92ead563fba08ef,62a443481c22fcf20a4ace5c,,,,,,,,,,,,,2,,,,,,,,,,Practice,3,(4x4) - 14,2,,,,,,,,,,,,,,,,"[""2""]",1,[1.4396999999999593],1,0,0,0,2,1,,,,,,,,,,,,,,,,,,,,,,,,,,,,,,,,,,,,,,,,,,,,,,,,,,,
,,,,,,,,,,,X V Q F H G B L J M P D K C T S W R N Z,5e8f32cb79a8e80727d489a3,22,Mężczyzna,2022-06-11_09h25.14.050,task,2021.1.4,Win32,60.06727535,6299f149e92ead563fba08ef,62a443481c22fcf20a4ace5c,,,,,,,,,,,,,,,,,,,,,,,,,,,,,,,,,,,,,,,,,,,,,,,,,,,1,0,1,0,1,,,,,,,,,,,,,,,,,,,,,,,,,,,,,,,,,,,,,,,,,,,,,,
,,,,,,,,,,,,5e8f32cb79a8e80727d489a3,22,Mężczyzna,2022-06-11_09h25.14.050,task,2021.1.4,Win32,60.06727535,6299f149e92ead563fba08ef,62a443481c22fcf20a4ace5c,,,,,,,,,,,,,,,,,,,,,,,,,,,,,,,,,,,,,,,,,,,,,,,,,,,,,,,,mw,"[""m"",""w""]",0,"[1.5256000000001109,1.7164999999999964,2.0918000000000916]",1,1,0,1,0,1,,,,,,,,,,,,,,,,,,,,,,,,,,,,,,,,,,,,
,,,,,,,,,,,,5e8f32cb79a8e80727d489a3,22,Mężczyzna,2022-06-11_09h25.14.050,task,2021.1.4,Win32,60.06727535,6299f149e92ead563fba08ef,62a443481c22fcf20a4ace5c,,,,,,,,,,,,,5,,,,,,,,,,Practice,6,(4/2) + 3,5,,,,,,,,,,,,,,,,"[""5""]",1,[1.4490999999998735],1,0,0,0,5,1,,,,,,,,,,,,,,,,,,,,,,,,,,,,,,,,,,,,,,,,,,,,,,,,,,,
,,,,,,,,,,,X V Q F H G B L J M P D K C T S W R N Z,5e8f32cb79a8e80727d489a3,22,Mężczyzna,2022-06-11_09h25.14.050,task,2021.1.4,Win32,60.06727535,6299f149e92ead563fba08ef,62a443481c22fcf20a4ace5c,,,,,,,,,,,,,,,,,,,,,,,,,,,,,,,,,,,,,,,,,,,,,,,,,,,0,0,0,0,1,,,,,,,,,,,,,,,,,,,,,,,,,,,,,,,,,,,,,,,,,,,,,,
,,,,,,,,,,,,5e8f32cb79a8e80727d489a3,22,Mężczyzna,2022-06-11_09h25.14.050,task,2021.1.4,Win32,60.06727535,6299f149e92ead563fba08ef,62a443481c22fcf20a4ace5c,,,,,,,,,,,,,8,,,,,,,,,,Practice,9,(3x3) - 1,8,,,,,,,,,,,,,,,,"[""8""]",1,[1.8398999999998864],1,0,0,0,8,1,,,,,,,,,,,,,,,,,,,,,,,,,,,,,,,,,,,,,,,,,,,,,,,,,,,
,,,,,,,,,,,X V Q F H G B L J M P D K C T S W R N Z,5e8f32cb79a8e80727d489a3,22,Mężczyzna,2022-06-11_09h25.14.050,task,2021.1.4,Win32,60.06727535,6299f149e92ead563fba08ef,62a443481c22fcf20a4ace5c,,,,,,,,,,,,,,,,,,,,,,,,,,,,,,,,,,,,,,,,,,,,,,,,,,,1,0,1,0,1,,,,,,,,,,,,,,,,,,,,,,,,,,,,,,,,,,,,,,,,,,,,,,
,,,,,,,,,,,,5e8f32cb79a8e80727d489a3,22,Mężczyzna,2022-06-11_09h25.14.050,task,2021.1.4,Win32,60.06727535,6299f149e92ead563fba08ef,62a443481c22fcf20a4ace5c,,,,,,,,,,,,,,,,,,,,,,,,,,,,,,,,,,,,,,,,,,,,,,,,,,,,,,,,gs,"[""g"",""s""]",0,"[1.2026999999999362,1.384999999999991,1.7890999999998485]",1,2,0,2,0,1,,,,,,,,,,,,,,,,,,,,,,,,,,,,,,,,,,,,
,,,,,,,,,,,,5e8f32cb79a8e80727d489a3,22,Mężczyzna,2022-06-11_09h25.14.050,task,2021.1.4,Win32,60.06727535,6299f149e92ead563fba08ef,62a443481c22fcf20a4ace5c,,,,,,,,,,,,,0,,,,,,,,,,Task,17,(2x3) - 6,0,,,,,,,,,,,,,,,,,,,1,,,,,,,,,,,,,,,,,,,,,space,15.214,"[""0""]",1,[2.1304999999999836],0,0,0,16,1,,,,,,,,,,,,,,,,,,,,,,,,,,
,,,,,,,,,,,X V Q F H G B L J M P D K C T S W R N Z,5e8f32cb79a8e80727d489a3,22,Mężczyzna,2022-06-11_09h25.14.050,task,2021.1.4,Win32,60.06727535,6299f149e92ead563fba08ef,62a443481c22fcf20a4ace5c,,,,,,,,,,,,,,,,,,,,,,,,,,,,,,,,,,,,,,,,,,,,,,,,,,,,,,,,,,,,,,,,,,,,,,,,,,,,0,0,0,0,1,,,,,,,,,,,,,,,,,,,,,
,,,,,,,,,,,,5e8f32cb79a8e80727d489a3,22,Mężczyzna,2022-06-11_09h25.14.050,task,2021.1.4,Win32,60.06727535,6299f149e92ead563fba08ef,62a443481c22fcf20a4ace5c,,,,,,,,,,,,,6,,,,,,,,,,Task,14,(2x2) + 3,7,,,,,,,,,,,,,,,,,,,0,,,,,,,,,,,,,,,,,,,,,,,"[""6""]",0,[1.693100000000129],0,0,0,13,1,,,,,,,,,,,,,,,,,,,,,,,,,,
,,,,,,,,,,,,5e8f32cb79a8e80727d489a3,22,Mężczyzna,2022-06-11_09h25.14.050,task,2021.1.4,Win32,60.06727535,6299f149e92ead563fba08ef,62a443481c22fcf20a4ace5c,,,,,,,,,,,,,0,,,,,,,,,,Task,8,(1x5) - 5,0,,,,,,,,,,,,,,,,,,,1,,,,,,,,,,,,,,,,,,,,,,,"[""0""]",1,[1.5854000000001065],0,1,1,7,1,,,,,,,,,,,,,,,,,,,,,,,,,,
,,,,,,,,,,,X V Q F H G B L J M P D K C T S W R N Z,5e8f32cb79a8e80727d489a3,22,Mężczyzna,2022-06-11_09h25.14.050,task,2021.1.4,Win32,60.06727535,6299f149e92ead563fba08ef,62a443481c22fcf20a4ace5c,,,,,,,,,,,,,,,,,,,,,,,,,,,,,,,,,,,,,,,,,,,,,,,,,,,,,,,,,,,,,,,,,,,,,,,,,,,,1,0,1,0,1,,,,,,,,,,,,,,,,,,,,,
,,,,,,,,,,,,5e8f32cb79a8e80727d489a3,22,Mężczyzna,2022-06-11_09h25.14.050,task,2021.1.4,Win32,60.06727535,6299f149e92ead563fba08ef,62a443481c22fcf20a4ace5c,,,,,,,,,,,,,,,,,,,,,,,,,,,,,,,,,,,,,,,,,,,,,,,,,,,,,,,,,,,,,,,,,,,,,,,,,,,,,,,,,zh,"[""z"",""h""]",0,"[1.1934999999999718,1.4864999999999782,1.7173999999998841]",1,ZH,0,0,0,0,1,,,,,,,,,,
,,,,,,,,,,,,5e8f32cb79a8e80727d489a3,22,Mężczyzna,2022-06-11_09h25.14.050,task,2021.1.4,Win32,60.06727535,6299f149e92ead563fba08ef,62a443481c22fcf20a4ace5c,,,,,,,,,,,,,8,,,,,,,,,,Task,16,(3x8) - 15,9,,,,,,,,,,,,,,,,,,,0,,,,,,,,,,,,,,,,,,,,,,,"[""8""]",0,[2.6908000000000243],0,0,0,15,1,,,,,,,,,,,,,,,,,,,,,,,,,,
,,,,,,,,,,,,5e8f32cb79a8e80727d489a3,22,Mężczyzna,2022-06-11_09h25.14.050,task,2021.1.4,Win32,60.06727535,6299f149e92ead563fba08ef,62a443481c22fcf20a4ace5c,,,,,,,,,,,,,0,,,,,,,,,,Task,8,(1x5) - 5,0,,,,,,,,,,,,,,,,,,,1,,,,,,,,,,,,,,,,,,,,,,,"[""0""]",1,[1.4680000000000177],0,1,1,7,1,,,,,,,,,,,,,,,,,,,,,,,,,,
,,,,,,,,,,,X V Q F H G B L J M P D K C T S W R N Z,5e8f32cb79a8e80727d489a3,22,Mężczyzna,2022-06-11_09h25.14.050,task,2021.1.4,Win32,60.06727535,6299f149e92ead563fba08ef,62a443481c22fcf20a4ace5c,,,,,,,,,,,,,,,,,,,,,,,,,,,,,,,,,,,,,,,,,,,,,,,,,,,,,,,,,,,,,,,,,,,,,,,,,,,,0,0,0,0,1,,,,,,,,,,,,,,,,,,,,,
,,,,,,,,,,,,5e8f32cb79a8e80727d489a3,22,Mężczyzna,2022-06-11_09h25.14.050,task,2021.1.4,Win32,60.06727535,6299f149e92ead563fba08ef,62a443481c22fcf20a4ace5c,,,,,,,,,,,,,7,,,,,,,,,,Task,6,(12/2) + 1,7,,,,,,,,,,,,,,,,,,,1,,,,,,,,,,,,,,,,,,,,,,,"[""7""]",1,[1.4156000000000972],0,0,0,5,1,,,,,,,,,,,,,,,,,,,,,,,,,,
,,,,,,,,,,,X V Q F H G B L J M P D K C T S W R N Z,5e8f32cb79a8e80727d489a3,22,Mężczyzna,2022-06-11_09h25.14.050,task,2021.1.4,Win32,60.06727535,6299f149e92ead563fba08ef,62a443481c22fcf20a4ace5c,,,,,,,,,,,,,,,,,,,,,,,,,,,,,,,,,,,,,,,,,,,,,,,,,,,,,,,,,,,,,,,,,,,,,,,,,,,,1,0,1,0,1,,,,,,,,,,,,,,,,,,,,,
,,,,,,,,,,,,5e8f32cb79a8e80727d489a3,22,Mężczyzna,2022-06-11_09h25.14.050,task,2021.1.4,Win32,60.06727535,6299f149e92ead563fba08ef,62a443481c22fcf20a4ace5c,,,,,,,,,,,,,5,,,,,,,,,,Task,12,(4x4) - 11,5,,,,,,,,,,,,,,,,,,,1,,,,,,,,,,,,,,,,,,,,,,,"[""5""]",1,[1.802500000000009],0,0,0,11,1,,,,,,,,,,,,,,,,,,,,,,,,,,
,,,,,,,,,,,X V Q F H G B L J M P D K C T S W R N Z,5e8f32cb79a8e80727d489a3,22,Mężczyzna,2022-06-11_09h25.14.050,task,2021.1.4,Win32,60.06727535,6299f149e92ead563fba08ef,62a443481c22fcf20a4ace5c,,,,,,,,,,,,,,,,,,,,,,,,,,,,,,,,,,,,,,,,,,,,,,,,,,,,,,,,,,,,,,,,,,,,,,,,,,,,2,0,2,0,1,,,,,,,,,,,,,,,,,,,,,
,,,,,,,,,,,,5e8f32cb79a8e80727d489a3,22,Mężczyzna,2022-06-11_09h25.14.050,task,2021.1.4,Win32,60.06727535,6299f149e92ead563fba08ef,62a443481c22fcf20a4ace5c,,,,,,,,,,,,,,,,,,,,,,,,,,,,,,,,,,,,,,,,,,,,,,,,,,,,,,,,,,,,,,,,,,,,,,,,,,,,,,,,,fbm,"[""f"",""b"",""m""]",0,"[1.0171000000000845,1.1168000000000688,1.2503000000000384,1.5462000000001694]",1,FBM,1,0,1,0,1,,,,,,,,,,
,,,,,,,,,,,,5e8f32cb79a8e80727d489a3,22,Mężczyzna,2022-06-11_09h25.14.050,task,2021.1.4,Win32,60.06727535,6299f149e92ead563fba08ef,62a443481c22fcf20a4ace5c,,,,,,,,,,,,,5,,,,,,,,,,Task,37,(3/3) + 5,6,,,,,,,,,,,,,,,,,,,0,,,,,,,,,,,,,,,,,,,,,,,"[""5""]",0,[1.6157999999998083],0,0,0,36,1,,,,,,,,,,,,,,,,,,,,,,,,,,
,,,,,,,,,,,,5e8f32cb79a8e80727d489a3,22,Mężczyzna,2022-06-11_09h25.14.050,task,2021.1.4,Win32,60.06727535,6299f149e92ead563fba08ef,62a443481c22fcf20a4ace5c,,,,,,,,,,,,,,,,,,,,,,,Task,7,(3x7) - 12,9,,,,,,,,,,,,,,,,,,,0,,,,,,,,,,,,,,,,,,,,,,,,0,,0,1,1,6,1,,,,,,,,,,,,,,,,,,,,,,,,,,
,,,,,,,,,,,,5e8f32cb79a8e80727d489a3,22,Mężczyzna,2022-06-11_09h25.14.050,task,2021.1.4,Win32,60.06727535,6299f149e92ead563fba08ef,62a443481c22fcf20a4ace5c,,,,,,,,,,,,,0,,,,,,,,,,Task,17,(2x3) - 6,0,,,,,,,,,,,,,,,,,,,1,,,,,,,,,,,,,,,,,,,,,,,"[""0""]",1,[1.4056000000000495],0,2,2,16,1,,,,,,,,,,,,,,,,,,,,,,,,,,
,,,,,,,,,,,X V Q F H G B L J M P D K C T S W R N Z,5e8f32cb79a8e80727d489a3,22,Mężczyzna,2022-06-11_09h25.14.050,task,2021.1.4,Win32,60.06727535,6299f149e92ead563fba08ef,62a443481c22fcf20a4ace5c,,,,,,,,,,,,,,,,,,,,,,,,,,,,,,,,,,,,,,,,,,,,,,,,,,,,,,,,,,,,,,,,,,,,,,,,,,,,0,0,0,0,1,,,,,,,,,,,,,,,,,,,,,
,,,,,,,,,,,,5e8f32cb79a8e80727d489a3,22,Mężczyzna,2022-06-11_09h25.14.050,task,2021.1.4,Win32,60.06727535,6299f149e92ead563fba08ef,62a443481c22fcf20a4ace5c,,,,,,,,,,,,,5,,,,,,,,,,Task,36,(8/4) + 3,5,,,,,,,,,,,,,,,,,,,1,,,,,,,,,,,,,,,,,,,,,,,"[""5""]",1,[1.2470999999998753],0,0,0,35,1,,,,,,,,,,,,,,,,,,,,,,,,,,
,,,,,,,,,,,X V Q F H G B L J M P D K C T S W R N Z,5e8f32cb79a8e80727d489a3,22,Mężczyzna,2022-06-11_09h25.14.050,task,2021.1.4,Win32,60.06727535,6299f149e92ead563fba08ef,62a443481c22fcf20a4ace5c,,,,,,,,,,,,,,,,,,,,,,,,,,,,,,,,,,,,,,,,,,,,,,,,,,,,,,,,,,,,,,,,,,,,,,,,,,,,1,0,1,0,1,,,,,,,,,,,,,,,,,,,,,
,,,,,,,,,,,,5e8f32cb79a8e80727d489a3,22,Mężczyzna,2022-06-11_09h25.14.050,task,2021.1.4,Win32,60.06727535,6299f149e92ead563fba08ef,62a443481c22fcf20a4ace5c,,,,,,,,,,,,,1,,,,,,,,,,Task,18,(16/4) - 3,1,,,,,,,,,,,,,,,,,,,1,,,,,,,,,,,,,,,,,,,,,,,"[""1""]",1,[2.136699999999962],0,0,0,17,1,,,,,,,,,,,,,,,,,,,,,,,,,,
,,,,,,,,,,,X V Q F H G B L J M P D K C T S W R N Z,5e8f32cb79a8e80727d489a3,22,Mężczyzna,2022-06-11_09h25.14.050,task,2021.1.4,Win32,60.06727535,6299f149e92ead563fba08ef,62a443481c22fcf20a4ace5c,,,,,,,,,,,,,,,,,,,,,,,,,,,,,,,,,,,,,,,,,,,,,,,,,,,,,,,,,,,,,,,,,,,,,,,,,,,,2,0,2,0,1,,,,,,,,,,,,,,,,,,,,,
,,,,,,,,,,,,5e8f32cb79a8e80727d489a3,22,Mężczyzna,2022-06-11_09h25.14.050,task,2021.1.4,Win32,60.06727535,6299f149e92ead563fba08ef,62a443481c22fcf20a4ace5c,,,,,,,,,,,,,4,,,,,,,,,,Task,21,(10/2) - 1,4,,,,,,,,,,,,,,,,,,,1,,,,,,,,,,,,,,,,,,,,,,,"[""4""]",1,[1.7871999999999844],0,0,0,20,1,,,,,,,,,,,,,,,,,,,,,,,,,,
,,,,,,,,,,,X V Q F H G B L J M P D K C T S W R N Z,5e8f32cb79a8e80727d489a3,22,Mężczyzna,2022-06-11_09h25.14.050,task,2021.1.4,Win32,60.06727535,6299f149e92ead563fba08ef,62a443481c22fcf20a4ace5c,,,,,,,,,,,,,,,,,,,,,,,,,,,,,,,,,,,,,,,,,,,,,,,,,,,,,,,,,,,,,,,,,,,,,,,,,,,,3,0,3,0,1,,,,,,,,,,,,,,,,,,,,,
,,,,,,,,,,,,5e8f32cb79a8e80727d489a3,22,Mężczyzna,2022-06-11_09h25.14.050,task,2021.1.4,Win32,60.06727535,6299f149e92ead563fba08ef,62a443481c22fcf20a4ace5c,,,,,,,,,,,,,,,,,,,,,,,,,,,,,,,,,,,,,,,,,,,,,,,,,,,,,,,,,,,,,,,,,,,,,,,,,,,,,,,,,wlvn,"[""w"",""l"",""v"",""n""]",0,"[1.1566000000000827,1.4256000000000881,1.7326999999999657,1.8909000000001583,2.2828000000000657]",1,WLVN,2,0,2,0,1,,,,,,,,,,
,,,,,,,,,,,,5e8f32cb79a8e80727d489a3,22,Mężczyzna,2022-06-11_09h25.14.050,task,2021.1.4,Win32,60.06727535,6299f149e92ead563fba08ef,62a443481c22fcf20a4ace5c,,,,,,,,,,,,,5,,,,,,,,,,Task,23,(2x3) + 2,8,,,,,,,,,,,,,,,,,,,0,,,,,,,,,,,,,,,,,,,,,,,"[""5""]",0,[2.4371999999999048],0,0,0,22,1,,,,,,,,,,,,,,,,,,,,,,,,,,
,,,,,,,,,,,,5e8f32cb79a8e80727d489a3,22,Mężczyzna,2022-06-11_09h25.14.050,task,2021.1.4,Win32,60.06727535,6299f149e92ead563fba08ef,62a443481c22fcf20a4ace5c,,,,,,,,,,,,,,,,,,,,,,,Task,38,(4x6) - 17,7,,,,,,,,,,,,,,,,,,,0,,,,,,,,,,,,,,,,,,,,,,,,0,,0,1,1,37,1,,,,,,,,,,,,,,,,,,,,,,,,,,
,,,,,,,,,,,,5e8f32cb79a8e80727d489a3,22,Mężczyzna,2022-06-11_09h25.14.050,task,2021.1.4,Win32,60.06727535,6299f149e92ead563fba08ef,62a443481c22fcf20a4ace5c,,,,,,,,,,,,,6,,,,,,,,,,Task,14,(2x2) + 3,7,,,,,,,,,,,,,,,,,,,0,,,,,,,,,,,,,,,,,,,,,,,"[""6""]",0,[3.183300000000031],0,2,2,13,1,,,,,,,,,,,,,,,,,,,,,,,,,,
,,,,,,,,,,,,5e8f32cb79a8e80727d489a3,22,Mężczyzna,2022-06-11_09h25.14.050,task,2021.1.4,Win32,60.06727535,6299f149e92ead563fba08ef,62a443481c22fcf20a4ace5c,,,,,,,,,,,,,7,,,,,,,,,,Task,31,(4/2) + 5,7,,,,,,,,,,,,,,,,,,,1,,,,,,,,,,,,,,,,,,,,,,,"[""7""]",1,[1.5465999999998985],0,3,3,30,1,,,,,,,,,,,,,,,,,,,,,,,,,,
,,,,,,,,,,,X V Q F H G B L J M P D K C T S W R N Z,5e8f32cb79a8e80727d489a3,22,Mężczyzna,2022-06-11_09h25.14.050,task,2021.1.4,Win32,60.06727535,6299f149e92ead563fba08ef,62a443481c22fcf20a4ace5c,,,,,,,,,,,,,,,,,,,,,,,,,,,,,,,,,,,,,,,,,,,,,,,,,,,,,,,,,,,,,,,,,,,,,,,,,,,,0,0,0,0,1,,,,,,,,,,,,,,,,,,,,,
,,,,,,,,,,,,5e8f32cb79a8e80727d489a3,22,Mężczyzna,2022-06-11_09h25.14.050,task,2021.1.4,Win32,60.06727535,6299f149e92ead563fba08ef,62a443481c22fcf20a4ace5c,,,,,,,,,,,,,3,,,,,,,,,,Task,3,(2x3) - 3,3,,,,,,,,,,,,,,,,,,,1,,,,,,,,,,,,,,,,,,,,,,,"[""3""]",1,[1.6777000000001863],0,0,0,2,1,,,,,,,,,,,,,,,,,,,,,,,,,,
,,,,,,,,,,,X V Q F H G B L J M P D K C T S W R N Z,5e8f32cb79a8e80727d489a3,22,Mężczyzna,2022-06-11_09h25.14.050,task,2021.1.4,Win32,60.06727535,6299f149e92ead563fba08ef,62a443481c22fcf20a4ace5c,,,,,,,,,,,,,,,,,,,,,,,,,,,,,,,,,,,,,,,,,,,,,,,,,,,,,,,,,,,,,,,,,,,,,,,,,,,,1,0,1,0,1,,,,,,,,,,,,,,,,,,,,,
,,,,,,,,,,,,5e8f32cb79a8e80727d489a3,22,Mężczyzna,2022-06-11_09h25.14.050,task,2021.1.4,Win32,60.06727535,6299f149e92ead563fba08ef,62a443481c22fcf20a4ace5c,,,,,,,,,,,,,1,,,,,,,,,,Task,9,(3x7) - 20,1,,,,,,,,,,,,,,,,,,,1,,,,,,,,,,,,,,,,,,,,,,,"[""1""]",1,[1.752099999999814],0,0,0,8,1,,,,,,,,,,,,,,,,,,,,,,,,,,
,,,,,,,,,,,X V Q F H G B L J M P D K C T S W R N Z,5e8f32cb79a8e80727d489a3,22,Mężczyzna,2022-06-11_09h25.14.050,task,2021.1.4,Win32,60.06727535,6299f149e92ead563fba08ef,62a443481c22fcf20a4ace5c,,,,,,,,,,,,,,,,,,,,,,,,,,,,,,,,,,,,,,,,,,,,,,,,,,,,,,,,,,,,,,,,,,,,,,,,,,,,2,0,2,0,1,,,,,,,,,,,,,,,,,,,,,
,,,,,,,,,,,,5e8f32cb79a8e80727d489a3,22,Mężczyzna,2022-06-11_09h25.14.050,task,2021.1.4,Win32,60.06727535,6299f149e92ead563fba08ef,62a443481c22fcf20a4ace5c,,,,,,,,,,,,,5,,,,,,,,,,Task,29,(3x8) - 19 ,5,,,,,,,,,,,,,,,,,,,1,,,,,,,,,,,,,,,,,,,,,,,"[""5""]",1,[2.9278999999999087],0,0,0,28,1,,,,,,,,,,,,,,,,,,,,,,,,,,
,,,,,,,,,,,X V Q F H G B L J M P D K C T S W R N Z,5e8f32cb79a8e80727d489a3,22,Mężczyzna,2022-06-11_09h25.14.050,task,2021.1.4,Win32,60.06727535,6299f149e92ead563fba08ef,62a443481c22fcf20a4ace5c,,,,,,,,,,,,,,,,,,,,,,,,,,,,,,,,,,,,,,,,,,,,,,,,,,,,,,,,,,,,,,,,,,,,,,,,,,,,3,0,3,0,1,,,,,,,,,,,,,,,,,,,,,
,,,,,,,,,,,,5e8f32cb79a8e80727d489a3,22,Mężczyzna,2022-06-11_09h25.14.050,task,2021.1.4,Win32,60.06727535,6299f149e92ead563fba08ef,62a443481c22fcf20a4ace5c,,,,,,,,,,,,,2,,,,,,,,,,Task,25,(10/5) - 2,0,,,,,,,,,,,,,,,,,,,0,,,,,,,,,,,,,,,,,,,,,,,"[""2""]",0,[2.8151999999999475],0,0,0,24,1,,,,,,,,,,,,,,,,,,,,,,,,,,
,,,,,,,,,,,,5e8f32cb79a8e80727d489a3,22,Mężczyzna,2022-06-11_09h25.14.050,task,2021.1.4,Win32,60.06727535,6299f149e92ead563fba08ef,62a443481c22fcf20a4ace5c,,,,,,,,,,,,,4,,,,,,,,,,Task,21,(10/2) - 1,4,,,,,,,,,,,,,,,,,,,1,,,,,,,,,,,,,,,,,,,,,,,"[""4""]",1,[1.6444000000001324],0,1,1,20,1,,,,,,,,,,,,,,,,,,,,,,,,,,
,,,,,,,,,,,X V Q F H G B L J M P D K C T S W R N Z,5e8f32cb79a8e80727d489a3,22,Mężczyzna,2022-06-11_09h25.14.050,task,2021.1.4,Win32,60.06727535,6299f149e92ead563fba08ef,62a443481c22fcf20a4ace5c,,,,,,,,,,,,,,,,,,,,,,,,,,,,,,,,,,,,,,,,,,,,,,,,,,,,,,,,,,,,,,,,,,,,,,,,,,,,4,0,4,0,1,,,,,,,,,,,,,,,,,,,,,
,,,,,,,,,,,,5e8f32cb79a8e80727d489a3,22,Mężczyzna,2022-06-11_09h25.14.050,task,2021.1.4,Win32,60.06727535,6299f149e92ead563fba08ef,62a443481c22fcf20a4ace5c,,,,,,,,,,,,,,,,,,,,,,,,,,,,,,,,,,,,,,,,,,,,,,,,,,,,,,,,,,,,,,,,,,,,,,,,,,,,,,,,,blcb,"[""b"",""l"",""c"",""b""]",0,"[1.3044999999999618,1.5546000000000504,2.019300000000044,2.4669000000001233,3.547300000000007]",0,BCLBB,3,0,3,0,1,,,,,,,,,,
,,,,,,,,,,,,5e8f32cb79a8e80727d489a3,22,Mężczyzna,2022-06-11_09h25.14.050,task,2021.1.4,Win32,60.06727535,6299f149e92ead563fba08ef,62a443481c22fcf20a4ace5c,,,,,,,,,,,,,5,,,,,,,,,,Task,12,(4x4) - 11,5,,,,,,,,,,,,,,,,,,,1,,,,,,,,,,,,,,,,,,,,,,,"[""5""]",1,[1.5166999999999575],0,0,0,11,1,,,,,,,,,,,,,,,,,,,,,,,,,,
,,,,,,,,,,,X V Q F H G B L J M P D K C T S W R N Z,5e8f32cb79a8e80727d489a3,22,Mężczyzna,2022-06-11_09h25.14.050,task,2021.1.4,Win32,60.06727535,6299f149e92ead563fba08ef,62a443481c22fcf20a4ace5c,,,,,,,,,,,,,,,,,,,,,,,,,,,,,,,,,,,,,,,,,,,,,,,,,,,,,,,,,,,,,,,,,,,,,,,,,,,,0,0,0,0,1,,,,,,,,,,,,,,,,,,,,,
,,,,,,,,,,,,5e8f32cb79a8e80727d489a3,22,Mężczyzna,2022-06-11_09h25.14.050,task,2021.1.4,Win32,60.06727535,6299f149e92ead563fba08ef,62a443481c22fcf20a4ace5c,,,,,,,,,,,,,3,,,,,,,,,,Task,3,(2x3) - 3,3,,,,,,,,,,,,,,,,,,,1,,,,,,,,,,,,,,,,,,,,,,,"[""3""]",1,[1.7705000000000268],0,0,0,2,1,,,,,,,,,,,,,,,,,,,,,,,,,,
,,,,,,,,,,,X V Q F H G B L J M P D K C T S W R N Z,5e8f32cb79a8e80727d489a3,22,Mężczyzna,2022-06-11_09h25.14.050,task,2021.1.4,Win32,60.06727535,6299f149e92ead563fba08ef,62a443481c22fcf20a4ace5c,,,,,,,,,,,,,,,,,,,,,,,,,,,,,,,,,,,,,,,,,,,,,,,,,,,,,,,,,,,,,,,,,,,,,,,,,,,,1,0,1,0,1,,,,,,,,,,,,,,,,,,,,,
,,,,,,,,,,,,5e8f32cb79a8e80727d489a3,22,Mężczyzna,2022-06-11_09h25.14.050,task,2021.1.4,Win32,60.06727535,6299f149e92ead563fba08ef,62a443481c22fcf20a4ace5c,,,,,,,,,,,,,5,,,,,,,,,,Task,14,(2x2) + 3,7,,,,,,,,,,,,,,,,,,,0,,,,,,,,,,,,,,,,,,,,,,,"[""5""]",0,[1.7794999999999845],0,0,0,13,1,,,,,,,,,,,,,,,,,,,,,,,,,,
,,,,,,,,,,,,5e8f32cb79a8e80727d489a3,22,Mężczyzna,2022-06-11_09h25.14.050,task,2021.1.4,Win32,60.06727535,6299f149e92ead563fba08ef,62a443481c22fcf20a4ace5c,,,,,,,,,,,,,7,,,,,,,,,,Task,6,(12/2) + 1,7,,,,,,,,,,,,,,,,,,,1,,,,,,,,,,,,,,,,,,,,,,,"[""7""]",1,[1.7775000000000318],0,1,1,5,1,,,,,,,,,,,,,,,,,,,,,,,,,,
,,,,,,,,,,,X V Q F H G B L J M P D K C T S W R N Z,5e8f32cb79a8e80727d489a3,22,Mężczyzna,2022-06-11_09h25.14.050,task,2021.1.4,Win32,60.06727535,6299f149e92ead563fba08ef,62a443481c22fcf20a4ace5c,,,,,,,,,,,,,,,,,,,,,,,,,,,,,,,,,,,,,,,,,,,,,,,,,,,,,,,,,,,,,,,,,,,,,,,,,,,,2,0,2,0,1,,,,,,,,,,,,,,,,,,,,,
,,,,,,,,,,,,5e8f32cb79a8e80727d489a3,22,Mężczyzna,2022-06-11_09h25.14.050,task,2021.1.4,Win32,60.06727535,6299f149e92ead563fba08ef,62a443481c22fcf20a4ace5c,,,,,,,,,,,,,6,,,,,,,,,,Task,13,(3x4) - 6,6,,,,,,,,,,,,,,,,,,,1,,,,,,,,,,,,,,,,,,,,,,,"[""6""]",1,[2.0786999999999125],0,0,0,12,1,,,,,,,,,,,,,,,,,,,,,,,,,,
,,,,,,,,,,,X V Q F H G B L J M P D K C T S W R N Z,5e8f32cb79a8e80727d489a3,22,Mężczyzna,2022-06-11_09h25.14.050,task,2021.1.4,Win32,60.06727535,6299f149e92ead563fba08ef,62a443481c22fcf20a4ace5c,,,,,,,,,,,,,,,,,,,,,,,,,,,,,,,,,,,,,,,,,,,,,,,,,,,,,,,,,,,,,,,,,,,,,,,,,,,,3,0,3,0,1,,,,,,,,,,,,,,,,,,,,,
,,,,,,,,,,,,5e8f32cb79a8e80727d489a3,22,Mężczyzna,2022-06-11_09h25.14.050,task,2021.1.4,Win32,60.06727535,6299f149e92ead563fba08ef,62a443481c22fcf20a4ace5c,,,,,,,,,,,,,4,,,,,,,,,,Task,28,(2x5) - 6,4,,,,,,,,,,,,,,,,,,,1,,,,,,,,,,,,,,,,,,,,,,,"[""4""]",1,[1.636400000000151],0,0,0,27,1,,,,,,,,,,,,,,,,,,,,,,,,,,
,,,,,,,,,,,X V Q F H G B L J M P D K C T S W R N Z,5e8f32cb79a8e80727d489a3,22,Mężczyzna,2022-06-11_09h25.14.050,task,2021.1.4,Win32,60.06727535,6299f149e92ead563fba08ef,62a443481c22fcf20a4ace5c,,,,,,,,,,,,,,,,,,,,,,,,,,,,,,,,,,,,,,,,,,,,,,,,,,,,,,,,,,,,,,,,,,,,,,,,,,,,4,0,4,0,1,,,,,,,,,,,,,,,,,,,,,
,,,,,,,,,,,,5e8f32cb79a8e80727d489a3,22,Mężczyzna,2022-06-11_09h25.14.050,task,2021.1.4,Win32,60.06727535,6299f149e92ead563fba08ef,62a443481c22fcf20a4ace5c,,,,,,,,,,,,,,,,,,,,,,,,,,,,,,,,,,,,,,,,,,,,,,,,,,,,,,,,,,,,,,,,,,,,,,,,,,,,,,,,,dcszx,"[""d"",""c"",""s"",""z"",""x""]",0,"[1.3002000000001885,1.7002000000002226,2.0090000000000146,2.8622000000002004,3.29990000000015,4.016900000000135]",1,DCSZX,4,0,4,0,1,,,,,,,,,,
,,,,,,,,,,,,5e8f32cb79a8e80727d489a3,22,Mężczyzna,2022-06-11_09h25.14.050,task,2021.1.4,Win32,60.06727535,6299f149e92ead563fba08ef,62a443481c22fcf20a4ace5c,,,,,,,,,,,,,0,,,,,,,,,,Task,33,(1/1) - 1,0,,,,,,,,,,,,,,,,,,,1,,,,,,,,,,,,,,,,,,,,,,,"[""0""]",1,[1.6699000000000979],0,0,0,32,1,,,,,,,,,,,,,,,,,,,,,,,,,,
,,,,,,,,,,,X V Q F H G B L J M P D K C T S W R N Z,5e8f32cb79a8e80727d489a3,22,Mężczyzna,2022-06-11_09h25.14.050,task,2021.1.4,Win32,60.06727535,6299f149e92ead563fba08ef,62a443481c22fcf20a4ace5c,,,,,,,,,,,,,,,,,,,,,,,,,,,,,,,,,,,,,,,,,,,,,,,,,,,,,,,,,,,,,,,,,,,,,,,,,,,,0,0,0,0,1,,,,,,,,,,,,,,,,,,,,,
,,,,,,,,,,,,5e8f32cb79a8e80727d489a3,22,Mężczyzna,2022-06-11_09h25.14.050,task,2021.1.4,Win32,60.06727535,6299f149e92ead563fba08ef,62a443481c22fcf20a4ace5c,,,,,,,,,,,,,3,,,,,,,,,,Task,34,(9/3) - 2,1,,,,,,,,,,,,,,,,,,,0,,,,,,,,,,,,,,,,,,,,,,,"[""3""]",0,[2.53469999999993],0,0,0,33,1,,,,,,,,,,,,,,,,,,,,,,,,,,
,,,,,,,,,,,,5e8f32cb79a8e80727d489a3,22,Mężczyzna,2022-06-11_09h25.14.050,task,2021.1.4,Win32,60.06727535,6299f149e92ead563fba08ef,62a443481c22fcf20a4ace5c,,,,,,,,,,,,,5,,,,,,,,,,Task,14,(2x2) + 3,7,,,,,,,,,,,,,,,,,,,0,,,,,,,,,,,,,,,,,,,,,,,"[""5""]",0,[2.631900000000144],0,1,1,13,1,,,,,,,,,,,,,,,,,,,,,,,,,,
,,,,,,,,,,,,5e8f32cb79a8e80727d489a3,22,Mężczyzna,2022-06-11_09h25.14.050,task,2021.1.4,Win32,60.06727535,6299f149e92ead563fba08ef,62a443481c22fcf20a4ace5c,,,,,,,,,,,,,9,,,,,,,,,,Task,24,(2x2) + 5,9,,,,,,,,,,,,,,,,,,,1,,,,,,,,,,,,,,,,,,,,,,,"[""9""]",1,[2.406699999999944],0,2,2,23,1,,,,,,,,,,,,,,,,,,,,,,,,,,
,,,,,,,,,,,X V Q F H G B L J M P D K C T S W R N Z,5e8f32cb79a8e80727d489a3,22,Mężczyzna,2022-06-11_09h25.14.050,task,2021.1.4,Win32,60.06727535,6299f149e92ead563fba08ef,62a443481c22fcf20a4ace5c,,,,,,,,,,,,,,,,,,,,,,,,,,,,,,,,,,,,,,,,,,,,,,,,,,,,,,,,,,,,,,,,,,,,,,,,,,,,1,0,1,0,1,,,,,,,,,,,,,,,,,,,,,
,,,,,,,,,,,,5e8f32cb79a8e80727d489a3,22,Mężczyzna,2022-06-11_09h25.14.050,task,2021.1.4,Win32,60.06727535,6299f149e92ead563fba08ef,62a443481c22fcf20a4ace5c,,,,,,,,,,,,,6,,,,,,,,,,Task,37,(3/3) + 5,6,,,,,,,,,,,,,,,,,,,1,,,,,,,,,,,,,,,,,,,,,,,"[""6""]",1,[2.0063999999998714],0,0,0,36,1,,,,,,,,,,,,,,,,,,,,,,,,,,
,,,,,,,,,,,X V Q F H G B L J M P D K C T S W R N Z,5e8f32cb79a8e80727d489a3,22,Mężczyzna,2022-06-11_09h25.14.050,task,2021.1.4,Win32,60.06727535,6299f149e92ead563fba08ef,62a443481c22fcf20a4ace5c,,,,,,,,,,,,,,,,,,,,,,,,,,,,,,,,,,,,,,,,,,,,,,,,,,,,,,,,,,,,,,,,,,,,,,,,,,,,2,0,2,0,1,,,,,,,,,,,,,,,,,,,,,
,,,,,,,,,,,,5e8f32cb79a8e80727d489a3,22,Mężczyzna,2022-06-11_09h25.14.050,task,2021.1.4,Win32,60.06727535,6299f149e92ead563fba08ef,62a443481c22fcf20a4ace5c,,,,,,,,,,,,,1,,,,,,,,,,Task,33,(1/1) - 1,0,,,,,,,,,,,,,,,,,,,0,,,,,,,,,,,,,,,,,,,,,,,"[""1""]",0,[1.5664999999999623],0,0,0,32,1,,,,,,,,,,,,,,,,,,,,,,,,,,
,,,,,,,,,,,,5e8f32cb79a8e80727d489a3,22,Mężczyzna,2022-06-11_09h25.14.050,task,2021.1.4,Win32,60.06727535,6299f149e92ead563fba08ef,62a443481c22fcf20a4ace5c,,,,,,,,,,,,,5,,,,,,,,,,Task,22,(3x1) + 2,5,,,,,,,,,,,,,,,,,,,1,,,,,,,,,,,,,,,,,,,,,,,"[""5""]",1,[1.2160000000000082],0,1,1,21,1,,,,,,,,,,,,,,,,,,,,,,,,,,
,,,,,,,,,,,X V Q F H G B L J M P D K C T S W R N Z,5e8f32cb79a8e80727d489a3,22,Mężczyzna,2022-06-11_09h25.14.050,task,2021.1.4,Win32,60.06727535,6299f149e92ead563fba08ef,62a443481c22fcf20a4ace5c,,,,,,,,,,,,,,,,,,,,,,,,,,,,,,,,,,,,,,,,,,,,,,,,,,,,,,,,,,,,,,,,,,,,,,,,,,,,3,0,3,0,1,,,,,,,,,,,,,,,,,,,,,
,,,,,,,,,,,,5e8f32cb79a8e80727d489a3,22,Mężczyzna,2022-06-11_09h25.14.050,task,2021.1.4,Win32,60.06727535,6299f149e92ead563fba08ef,62a443481c22fcf20a4ace5c,,,,,,,,,,,,,5,,,,,,,,,,Task,1,(12/6) - 1,1,,,,,,,,,,,,,,,,,,,0,,,,,,,,,,,,,,,,,,,,,,,"[""5""]",0,[1.628499999999974],0,0,0,0,1,,,,,,,,,,,,,,,,,,,,,,,,,,
,,,,,,,,,,,,5e8f32cb79a8e80727d489a3,22,Mężczyzna,2022-06-11_09h25.14.050,task,2021.1.4,Win32,60.06727535,6299f149e92ead563fba08ef,62a443481c22fcf20a4ace5c,,,,,,,,,,,,,3,,,,,,,,,,Task,20,(18/9) + 1,3,,,,,,,,,,,,,,,,,,,1,,,,,,,,,,,,,,,,,,,,,,,"[""3""]",1,[1.8338999999999146],0,1,1,19,1,,,,,,,,,,,,,,,,,,,,,,,,,,
,,,,,,,,,,,X V Q F H G B L J M P D K C T S W R N Z,5e8f32cb79a8e80727d489a3,22,Mężczyzna,2022-06-11_09h25.14.050,task,2021.1.4,Win32,60.06727535,6299f149e92ead563fba08ef,62a443481c22fcf20a4ace5c,,,,,,,,,,,,,,,,,,,,,,,,,,,,,,,,,,,,,,,,,,,,,,,,,,,,,,,,,,,,,,,,,,,,,,,,,,,,4,0,4,0,1,,,,,,,,,,,,,,,,,,,,,
,,,,,,,,,,,,5e8f32cb79a8e80727d489a3,22,Mężczyzna,2022-06-11_09h25.14.050,task,2021.1.4,Win32,60.06727535,6299f149e92ead563fba08ef,62a443481c22fcf20a4ace5c,,,,,,,,,,,,,3,,,,,,,,,,Task,3,(2x3) - 3,3,,,,,,,,,,,,,,,,,,,1,,,,,,,,,,,,,,,,,,,,,,,"[""3""]",1,[1.4998999999999114],0,0,0,2,1,,,,,,,,,,,,,,,,,,,,,,,,,,
,,,,,,,,,,,X V Q F H G B L J M P D K C T S W R N Z,5e8f32cb79a8e80727d489a3,22,Mężczyzna,2022-06-11_09h25.14.050,task,2021.1.4,Win32,60.06727535,6299f149e92ead563fba08ef,62a443481c22fcf20a4ace5c,,,,,,,,,,,,,,,,,,,,,,,,,,,,,,,,,,,,,,,,,,,,,,,,,,,,,,,,,,,,,,,,,,,,,,,,,,,,5,0,5,0,1,,,,,,,,,,,,,,,,,,,,,
,,,,,,,,,,,,5e8f32cb79a8e80727d489a3,22,Mężczyzna,2022-06-11_09h25.14.050,task,2021.1.4,Win32,60.06727535,6299f149e92ead563fba08ef,62a443481c22fcf20a4ace5c,,,,,,,,,,,,,,,,,,,,,,,,,,,,,,,,,,,,,,,,,,,,,,,,,,,,,,,,,,,,,,,,,,,,,,,,,,,,,,,,,dmbkfx,"[""d"",""m"",""b"",""k"",""f"",""x""]",0,"[1.1675000000000182,1.3793000000000575,1.610700000000179,4.9826000000001045,5.5567000000001485,5.818800000000067,6.6848000000000525]",0,RMKBFG,5,0,5,0,1,,,,,,,,,,
,,,,,,,,,,,,5e8f32cb79a8e80727d489a3,22,Mężczyzna,2022-06-11_09h25.14.050,task,2021.1.4,Win32,60.06727535,6299f149e92ead563fba08ef,62a443481c22fcf20a4ace5c,,,,,,,,,,,,,6,,,,,,,,,,Task,5,(2x3) + 0,6,,,,,,,,,,,,,,,,,,,1,,,,,,,,,,,,,,,,,,,,,,,"[""6""]",1,[1.9665999999998576],0,0,0,4,1,,,,,,,,,,,,,,,,,,,,,,,,,,
,,,,,,,,,,,X V Q F H G B L J M P D K C T S W R N Z,5e8f32cb79a8e80727d489a3,22,Mężczyzna,2022-06-11_09h25.14.050,task,2021.1.4,Win32,60.06727535,6299f149e92ead563fba08ef,62a443481c22fcf20a4ace5c,,,,,,,,,,,,,,,,,,,,,,,,,,,,,,,,,,,,,,,,,,,,,,,,,,,,,,,,,,,,,,,,,,,,,,,,,,,,0,0,0,0,1,,,,,,,,,,,,,,,,,,,,,
,,,,,,,,,,,,5e8f32cb79a8e80727d489a3,22,Mężczyzna,2022-06-11_09h25.14.050,task,2021.1.4,Win32,60.06727535,6299f149e92ead563fba08ef,62a443481c22fcf20a4ace5c,,,,,,,,,,,,,5,,,,,,,,,,Task,22,(3x1) + 2,5,,,,,,,,,,,,,,,,,,,1,,,,,,,,,,,,,,,,,,,,,,,"[""5""]",1,[1.406400000000076],0,0,0,21,1,,,,,,,,,,,,,,,,,,,,,,,,,,
,,,,,,,,,,,X V Q F H G B L J M P D K C T S W R N Z,5e8f32cb79a8e80727d489a3,22,Mężczyzna,2022-06-11_09h25.14.050,task,2021.1.4,Win32,60.06727535,6299f149e92ead563fba08ef,62a443481c22fcf20a4ace5c,,,,,,,,,,,,,,,,,,,,,,,,,,,,,,,,,,,,,,,,,,,,,,,,,,,,,,,,,,,,,,,,,,,,,,,,,,,,1,0,1,0,1,,,,,,,,,,,,,,,,,,,,,
,,,,,,,,,,,,5e8f32cb79a8e80727d489a3,22,Mężczyzna,2022-06-11_09h25.14.050,task,2021.1.4,Win32,60.06727535,6299f149e92ead563fba08ef,62a443481c22fcf20a4ace5c,,,,,,,,,,,,,7,,,,,,,,,,Task,31,(4/2) + 5,7,,,,,,,,,,,,,,,,,,,1,,,,,,,,,,,,,,,,,,,,,,,"[""7""]",1,[1.5514000000001715],0,0,0,30,1,,,,,,,,,,,,,,,,,,,,,,,,,,
,,,,,,,,,,,X V Q F H G B L J M P D K C T S W R N Z,5e8f32cb79a8e80727d489a3,22,Mężczyzna,2022-06-11_09h25.14.050,task,2021.1.4,Win32,60.06727535,6299f149e92ead563fba08ef,62a443481c22fcf20a4ace5c,,,,,,,,,,,,,,,,,,,,,,,,,,,,,,,,,,,,,,,,,,,,,,,,,,,,,,,,,,,,,,,,,,,,,,,,,,,,2,0,2,0,1,,,,,,,,,,,,,,,,,,,,,
,,,,,,,,,,,,5e8f32cb79a8e80727d489a3,22,Mężczyzna,2022-06-11_09h25.14.050,task,2021.1.4,Win32,60.06727535,6299f149e92ead563fba08ef,62a443481c22fcf20a4ace5c,,,,,,,,,,,,,2,,,,,,,,,,Task,2,(2x2) - 2,2,,,,,,,,,,,,,,,,,,,1,,,,,,,,,,,,,,,,,,,,,,,"[""2""]",1,[1.64650000000006],0,0,0,1,1,,,,,,,,,,,,,,,,,,,,,,,,,,
,,,,,,,,,,,X V Q F H G B L J M P D K C T S W R N Z,5e8f32cb79a8e80727d489a3,22,Mężczyzna,2022-06-11_09h25.14.050,task,2021.1.4,Win32,60.06727535,6299f149e92ead563fba08ef,62a443481c22fcf20a4ace5c,,,,,,,,,,,,,,,,,,,,,,,,,,,,,,,,,,,,,,,,,,,,,,,,,,,,,,,,,,,,,,,,,,,,,,,,,,,,3,0,3,0,1,,,,,,,,,,,,,,,,,,,,,
,,,,,,,,,,,,5e8f32cb79a8e80727d489a3,22,Mężczyzna,2022-06-11_09h25.14.050,task,2021.1.4,Win32,60.06727535,6299f149e92ead563fba08ef,62a443481c22fcf20a4ace5c,,,,,,,,,,,,,9,,,,,,,,,,Task,24,(2x2) + 5,9,,,,,,,,,,,,,,,,,,,1,,,,,,,,,,,,,,,,,,,,,,,"[""9""]",1,[2.6866999999999734],0,0,0,23,1,,,,,,,,,,,,,,,,,,,,,,,,,,
,,,,,,,,,,,X V Q F H G B L J M P D K C T S W R N Z,5e8f32cb79a8e80727d489a3,22,Mężczyzna,2022-06-11_09h25.14.050,task,2021.1.4,Win32,60.06727535,6299f149e92ead563fba08ef,62a443481c22fcf20a4ace5c,,,,,,,,,,,,,,,,,,,,,,,,,,,,,,,,,,,,,,,,,,,,,,,,,,,,,,,,,,,,,,,,,,,,,,,,,,,,4,0,4,0,1,,,,,,,,,,,,,,,,,,,,,
,,,,,,,,,,,,5e8f32cb79a8e80727d489a3,22,Mężczyzna,2022-06-11_09h25.14.050,task,2021.1.4,Win32,60.06727535,6299f149e92ead563fba08ef,62a443481c22fcf20a4ace5c,,,,,,,,,,,,,8,,,,,,,,,,Task,40,(7x2) - 5,9,,,,,,,,,,,,,,,,,,,0,,,,,,,,,,,,,,,,,,,,,,,"[""8""]",0,[2.5713000000000648],0,0,0,39,1,,,,,,,,,,,,,,,,,,,,,,,,,,
,,,,,,,,,,,,5e8f32cb79a8e80727d489a3,22,Mężczyzna,2022-06-11_09h25.14.050,task,2021.1.4,Win32,60.06727535,6299f149e92ead563fba08ef,62a443481c22fcf20a4ace5c,,,,,,,,,,,,,5,,,,,,,,,,Task,22,(3x1) + 2,5,,,,,,,,,,,,,,,,,,,1,,,,,,,,,,,,,,,,,,,,,,,"[""5""]",1,[1.0275999999997794],0,1,1,21,1,,,,,,,,,,,,,,,,,,,,,,,,,,
,,,,,,,,,,,X V Q F H G B L J M P D K C T S W R N Z,5e8f32cb79a8e80727d489a3,22,Mężczyzna,2022-06-11_09h25.14.050,task,2021.1.4,Win32,60.06727535,6299f149e92ead563fba08ef,62a443481c22fcf20a4ace5c,,,,,,,,,,,,,,,,,,,,,,,,,,,,,,,,,,,,,,,,,,,,,,,,,,,,,,,,,,,,,,,,,,,,,,,,,,,,5,0,5,0,1,,,,,,,,,,,,,,,,,,,,,
,,,,,,,,,,,,5e8f32cb79a8e80727d489a3,22,Mężczyzna,2022-06-11_09h25.14.050,task,2021.1.4,Win32,60.06727535,6299f149e92ead563fba08ef,62a443481c22fcf20a4ace5c,,,,,,,,,,,,,,,,,,,,,,,,,,,,,,,,,,,,,,,,,,,,,,,,,,,,,,,,,,,,,,,,,,,,,,,,,,,,,,,,,cnzndw,"[""c"",""n"",""z"",""n"",""d"",""w""]",0,"[1.3690000000000282,1.704499999999939,1.9457999999997355,2.171699999999987,2.8333999999998696,2.985500000000002,3.843699999999899]",0,CNZDCW,6,0,6,0,1,,,,,,,,,,
,,,,,,,,,,,,5e8f32cb79a8e80727d489a3,22,Mężczyzna,2022-06-11_09h25.14.050,task,2021.1.4,Win32,60.06727535,6299f149e92ead563fba08ef,62a443481c22fcf20a4ace5c,,,,,,,,,,,,,,,,,,,,,,,,,,,,,,,,,,,,,,,,,,,,,,,,,,,,,,,,,,,,,,,,,,,,,,,,,,,,,,,,,,,,,,,,,,,,"[""comma""]",0,[1.2103000000000748],0,0,0,0,1,,
,,,,,,,,,,,,5e8f32cb79a8e80727d489a3,22,Mężczyzna,2022-06-11_09h25.14.050,task,2021.1.4,Win32,60.06727535,6299f149e92ead563fba08ef,62a443481c22fcf20a4ace5c,,,,,,,,,,,,,,,,,,,,,,,,,,,,,,,,,,,,,,,,,,,,,,,,,,,,,,,,,,,,,,,,,,,,,,,,,,,,,,,,,,,,,,,,,,,,"[""period""]",0,[0.688199999999938],1,0,1,0,1,,
,,,,,,,,,,,,5e8f32cb79a8e80727d489a3,22,Mężczyzna,2022-06-11_09h25.14.050,task,2021.1.4,Win32,60.06727535,6299f149e92ead563fba08ef,62a443481c22fcf20a4ace5c,,,,,,,,,,,,,,,,,,,,,,,,,,,,,,,,,,,,,,,,,,,,,,,,,,,,,,,,,,,,,,,,,,,,,,,,,,,,,,,,,,,,,,,,,,,,"[""comma""]",0,[0.5784999999999627],2,0,2,0,1,,
,,,,,,,,,,,,5e8f32cb79a8e80727d489a3,22,Mężczyzna,2022-06-11_09h25.14.050,task,2021.1.4,Win32,60.06727535,6299f149e92ead563fba08ef,62a443481c22fcf20a4ace5c,,,,,,,,,,,,,,,,,,,,,,,,,,,,,,,,,,,,,,,,,,,,,,,,,,,,,,,,,,,,,,,,,,,,,,,,,,,,,,,,,,,,,,,,,,,,"[""comma""]",0,[0.3261999999999716],3,0,3,0,1,,
,,,,,,,,,,,,5e8f32cb79a8e80727d489a3,22,Mężczyzna,2022-06-11_09h25.14.050,task,2021.1.4,Win32,60.06727535,6299f149e92ead563fba08ef,62a443481c22fcf20a4ace5c,,,,,,,,,,,,,,,,,,,,,,,,,,,,,,,,,,,,,,,,,,,,,,,,,,,,,,,,,,,,,,,,,,,,,,,,,,,,,,,,,,,,,,,,,,,,"[""period""]",0,[0.5182999999998401],4,0,4,0,1,,
,,,,,,,,,,,,5e8f32cb79a8e80727d489a3,22,Mężczyzna,2022-06-11_09h25.14.050,task,2021.1.4,Win32,60.06727535,6299f149e92ead563fba08ef,62a443481c22fcf20a4ace5c,,,,,,,,,,,,,,,,,,,,,,,,,,,,,,,,,,,,,,,,,,,,,,,,,,,,,,,,,,,,,,,,,,,,,,,,,,,,,,,,,,,,,,,,,,,,"[""period""]",0,[0.6624000000000478],5,0,5,0,1,,
,,,,,,,,,,,,5e8f32cb79a8e80727d489a3,22,Mężczyzna,2022-06-11_09h25.14.050,task,2021.1.4,Win32,60.06727535,6299f149e92ead563fba08ef,62a443481c22fcf20a4ace5c,,,,,,,,,,,,,,,,,,,,,,,,,,,,,,,,,,,,,,,,,,,,,,,,,,,,,,,,,,,,,,,,,,,,,,,,,,,,,,,,,,,,,,,,,,,,"[""comma""]",0,[0.6064999999999827],6,0,6,0,1,,
,,,,,,,,,,,,5e8f32cb79a8e80727d489a3,22,Mężczyzna,2022-06-11_09h25.14.050,task,2021.1.4,Win32,60.06727535,6299f149e92ead563fba08ef,62a443481c22fcf20a4ace5c,,,,,,,,,,,,,,,,,,,,,,,,,,,,,,,,,,,,,,,,,,,,,,,,,,,,,,,,,,,,,,,,,,,,,,,,,,,,,,,,,,,,,,,,,,,,"[""comma""]",0,[0.4599999999999227],7,0,7,0,1,,
,,,,,,,,,,,,5e8f32cb79a8e80727d489a3,22,Mężczyzna,2022-06-11_09h25.14.050,task,2021.1.4,Win32,60.06727535,6299f149e92ead563fba08ef,62a443481c22fcf20a4ace5c,,,,,,,,,,,,,,,,,,,,,,,,,,,,,,,,,,,,,,,,,,,,,,,,,,,,,,,,,,,,,,,,,,,,,,,,,,,,,,,,,,,,,,,,,,,,"[""period""]",0,[0.5710000000000264],8,0,8,0,1,,
,,,,,,,,,,,,5e8f32cb79a8e80727d489a3,22,Mężczyzna,2022-06-11_09h25.14.050,task,2021.1.4,Win32,60.06727535,6299f149e92ead563fba08ef,62a443481c22fcf20a4ace5c,,,,,,,,,,,,,,,,,,,,,,,,,,,,,,,,,,,,,,,,,,,,,,,,,,,,,,,,,,,,,,,,,,,,,,,,,,,,,,,,,,,,,,,,,,,,"[""period""]",0,[0.6005000000000109],9,0,9,0,1,,
,,,,,,,,,,,,5e8f32cb79a8e80727d489a3,22,Mężczyzna,2022-06-11_09h25.14.050,task,2021.1.4,Win32,60.06727535,6299f149e92ead563fba08ef,62a443481c22fcf20a4ace5c,,,,,,,,,,,,,,,,,,,,,,,,,,,,,,,,,,,,,,,,,,,,,,,,,,,,,,,,,,,,,,,,,,,,,,,,,,,,,,,,,,,,,,,,,,,,"[""comma""]",0,[0.7671000000001413],10,0,10,0,1,,
,,,,,,,,,,,,5e8f32cb79a8e80727d489a3,22,Mężczyzna,2022-06-11_09h25.14.050,task,2021.1.4,Win32,60.06727535,6299f149e92ead563fba08ef,62a443481c22fcf20a4ace5c,,,,,,,,,,,,,,,,,,,,,,,,,,,,,,,,,,,,,,,,,,,,,,,,,,,,,,,,,,,,,,,,,,,,,,,,,,,,,,,,,,,,,,,,,,,,"[""period""]",0,[0.7443000000000666],11,0,11,0,1,,
,,,,,,,,,,,,5e8f32cb79a8e80727d489a3,22,Mężczyzna,2022-06-11_09h25.14.050,task,2021.1.4,Win32,60.06727535,6299f149e92ead563fba08ef,62a443481c22fcf20a4ace5c,,,,,,,,,,,,,,,,,,,,,,,,,,,,,,,,,,,,,,,,,,,,,,,,,,,,,,,,,,,,,,,,,,,,,,,,,,,,,,,,,,,,,,,,,,,,"[""comma""]",0,[0.738399999999956],12,0,12,0,1,,
,,,,,,,,,,,,5e8f32cb79a8e80727d489a3,22,Mężczyzna,2022-06-11_09h25.14.050,task,2021.1.4,Win32,60.06727535,6299f149e92ead563fba08ef,62a443481c22fcf20a4ace5c,,,,,,,,,,,,,,,,,,,,,,,,,,,,,,,,,,,,,,,,,,,,,,,,,,,,,,,,,,,,,,,,,,,,,,,,,,,,,,,,,,,,,,,,,,,,"[""comma""]",0,[1.1821999999999662],13,0,13,0,1,,
,,,,,,,,,,,,5e8f32cb79a8e80727d489a3,22,Mężczyzna,2022-06-11_09h25.14.050,task,2021.1.4,Win32,60.06727535,6299f149e92ead563fba08ef,62a443481c22fcf20a4ace5c,,,,,,,,,,,,,,,,,,,,,,,,,,,,,,,,,,,,,,,,,,,,,,,,,,,,,,,,,,,,,,,,,,,,,,,,,,,,,,,,,,,,,,,,,,,,"[""period""]",0,[0.8171999999999571],14,0,14,0,1,,
,,,,,,,,,,,,5e8f32cb79a8e80727d489a3,22,Mężczyzna,2022-06-11_09h25.14.050,task,2021.1.4,Win32,60.06727535,6299f149e92ead563fba08ef,62a443481c22fcf20a4ace5c,,,,,,,,,,,,,,,,,,,,,,,,,,,,,,,,,,,,,,,,,,,,,,,,,,,,,,,,,,,,,,,,,,,,,,,,,,,,,,,,,,,,,,,,,,,,"[""comma""]",0,[0.6401000000000749],15,0,15,0,1,,
,,,,,,,,,,,,5e8f32cb79a8e80727d489a3,22,Mężczyzna,2022-06-11_09h25.14.050,task,2021.1.4,Win32,60.06727535,6299f149e92ead563fba08ef,62a443481c22fcf20a4ace5c,,,,,,,,,,,,,,,,,,,,,,,,,,,,,,,,,,,,,,,,,,,,,,,,,,,,,,,,,,,,,,,,,,,,,,,,,,,,,,,,,,,,,,,,,,,,"[""period""]",0,[0.6530999999999949],16,0,16,0,1,,
,,,,,,,,,,,,5e8f32cb79a8e80727d489a3,22,Mężczyzna,2022-06-11_09h25.14.050,task,2021.1.4,Win32,60.06727535,6299f149e92ead563fba08ef,62a443481c22fcf20a4ace5c,,,,,,,,,,,,,,,,,,,,,,,,,,,,,,,,,,,,,,,,,,,,,,,,,,,,,,,,,,,,,,,,,,,,,,,,,,,,,,,,,,,,,,,,,,,,"[""comma""]",0,[0.546100000000024],17,0,17,0,1,,
,,,,,,,,,,,,5e8f32cb79a8e80727d489a3,22,Mężczyzna,2022-06-11_09h25.14.050,task,2021.1.4,Win32,60.06727535,6299f149e92ead563fba08ef,62a443481c22fcf20a4ace5c,,,,,,,,,,,,,,,,,,,,,,,,,,,,,,,,,,,,,,,,,,,,,,,,,,,,,,,,,,,,,,,,,,,,,,,,,,,,,,,,,,,,,,,,,,,,"[""period""]",0,[0.5248000000001412],18,0,18,0,1,,
,,,,,,,,,,,,5e8f32cb79a8e80727d489a3,22,Mężczyzna,2022-06-11_09h25.14.050,task,2021.1.4,Win32,60.06727535,6299f149e92ead563fba08ef,62a443481c22fcf20a4ace5c,,,,,,,,,,,,,,,,,,,,,,,,,,,,,,,,,,,,,,,,,,,,,,,,,,,,,,,,,,,,,,,,,,,,,,,,,,,,,,,,,,,,,,,,,,,,"[""comma""]",0,[0.5245999999998503],19,0,19,0,1,,
,,,,,,,,,,,,5e8f32cb79a8e80727d489a3,22,Mężczyzna,2022-06-11_09h25.14.050,task,2021.1.4,Win32,60.06727535,6299f149e92ead563fba08ef,62a443481c22fcf20a4ace5c,,,,,,,,,,,,,,,,,,,,,,,,,,,,,,,,,,,,,,,,,,,,,,,,,,,,,,,,,,,,,,,,,,,,,,,,,,,,,,,,,,,,,,,,,,,,"[""period""]",0,[0.6466000000001486],20,0,20,0,1,,
,,,,,,,,,,,,5e8f32cb79a8e80727d489a3,22,Mężczyzna,2022-06-11_09h25.14.050,task,2021.1.4,Win32,60.06727535,6299f149e92ead563fba08ef,62a443481c22fcf20a4ace5c,,,,,,,,,,,,,,,,,,,,,,,,,,,,,,,,,,,,,,,,,,,,,,,,,,,,,,,,,,,,,,,,,,,,,,,,,,,,,,,,,,,,,,,,,,,,"[""comma""]",0,[0.3806999999999334],21,0,21,0,1,,
,,,,,,,,,,,,5e8f32cb79a8e80727d489a3,22,Mężczyzna,2022-06-11_09h25.14.050,task,2021.1.4,Win32,60.06727535,6299f149e92ead563fba08ef,62a443481c22fcf20a4ace5c,,,,,,,,,,,,,,,,,,,,,,,,,,,,,,,,,,,,,,,,,,,,,,,,,,,,,,,,,,,,,,,,,,,,,,,,,,,,,,,,,,,,,,,,,,,,"[""period""]",0,[0.3632000000000062],22,0,22,0,1,,
,,,,,,,,,,,,5e8f32cb79a8e80727d489a3,22,Mężczyzna,2022-06-11_09h25.14.050,task,2021.1.4,Win32,60.06727535,6299f149e92ead563fba08ef,62a443481c22fcf20a4ace5c,,,,,,,,,,,,,,,,,,,,,,,,,,,,,,,,,,,,,,,,,,,,,,,,,,,,,,,,,,,,,,,,,,,,,,,,,,,,,,,,,,,,,,,,,,,,"[""comma""]",0,[0.3690000000000282],23,0,23,0,1,,
,,,,,,,,,,,,5e8f32cb79a8e80727d489a3,22,Mężczyzna,2022-06-11_09h25.14.050,task,2021.1.4,Win32,60.06727535,6299f149e92ead563fba08ef,62a443481c22fcf20a4ace5c,,,,,,,,,,,,,,,,,,,,,,,,,,,,,,,,,,,,,,,,,,,,,,,,,,,,,,,,,,,,,,,,,,,,,,,,,,,,,,,,,,,,,,,,,,,,"[""period""]",0,[0.43410000000005766],24,0,24,0,1,,
,,,,,,,,,,,,5e8f32cb79a8e80727d489a3,22,Mężczyzna,2022-06-11_09h25.14.050,task,2021.1.4,Win32,60.06727535,6299f149e92ead563fba08ef,62a443481c22fcf20a4ace5c,,,,,,,,,,,,,,,,,,,,,,,,,,,,,,,,,,,,,,,,,,,,,,,,,,,,,,,,,,,,,,,,,,,,,,,,,,,,,,,,,,,,,,,,,,,,"[""period""]",0,[0.5188999999999169],25,0,25,0,1,,
,,,,,,,,,,,,5e8f32cb79a8e80727d489a3,22,Mężczyzna,2022-06-11_09h25.14.050,task,2021.1.4,Win32,60.06727535,6299f149e92ead563fba08ef,62a443481c22fcf20a4ace5c,,,,,,,,,,,,,,,,,,,,,,,,,,,,,,,,,,,,,,,,,,,,,,,,,,,,,,,,,,,,,,,,,,,,,,,,,,,,,,,,,,,,,,,,,,,,"[""comma""]",0,[0.38409999999987576],26,0,26,0,1,,
,,,,,,,,,,,,5e8f32cb79a8e80727d489a3,22,Mężczyzna,2022-06-11_09h25.14.050,task,2021.1.4,Win32,60.06727535,6299f149e92ead563fba08ef,62a443481c22fcf20a4ace5c,,,,,,,,,,,,,,,,,,,,,,,,,,,,,,,,,,,,,,,,,,,,,,,,,,,,,,,,,,,,,,,,,,,,,,,,,,,,,,,,,,,,,,,,,,,,"[""period""]",0,[0.46499999999991815],27,0,27,0,1,,
,,,,,,,,,,,,5e8f32cb79a8e80727d489a3,22,Mężczyzna,2022-06-11_09h25.14.050,task,2021.1.4,Win32,60.06727535,6299f149e92ead563fba08ef,62a443481c22fcf20a4ace5c,,,,,,,,,,,,,,,,,,,,,,,,,,,,,,,,,,,,,,,,,,,,,,,,,,,,,,,,,,,,,,,,,,,,,,,,,,,,,,,,,,,,,,,,,,,,"[""comma""]",0,[0.5542000000002645],28,0,28,0,1,,
,,,,,,,,,,,,5e8f32cb79a8e80727d489a3,22,Mężczyzna,2022-06-11_09h25.14.050,task,2021.1.4,Win32,60.06727535,6299f149e92ead563fba08ef,62a443481c22fcf20a4ace5c,,,,,,,,,,,,,,,,,,,,,,,,,,,,,,,,,,,,,,,,,,,,,,,,,,,,,,,,,,,,,,,,,,,,,,,,,,,,,,,,,,,,,,,,,,,,"[""period""]",0,[0.4884999999999309],29,0,29,0,1,,
,,,,,,,,,,,,5e8f32cb79a8e80727d489a3,22,Mężczyzna,2022-06-11_09h25.14.050,task,2021.1.4,Win32,60.06727535,6299f149e92ead563fba08ef,62a443481c22fcf20a4ace5c,,,,,,,,,,,,,,,,,,,,,,,,,,,,,,,,,,,,,,,,,,,,,,,,,,,,,,,,,,,,,,,,,,,,,,,,,,,,,,,,,,,,,,,,,,,,"[""comma""]",0,[0.525000000000091],30,0,30,0,1,,
,,,,,,,,,,,,5e8f32cb79a8e80727d489a3,22,Mężczyzna,2022-06-11_09h25.14.050,task,2021.1.4,Win32,60.06727535,6299f149e92ead563fba08ef,62a443481c22fcf20a4ace5c,,,,,,,,,,,,,,,,,,,,,,,,,,,,,,,,,,,,,,,,,,,,,,,,,,,,,,,,,,,,,,,,,,,,,,,,,,,,,,,,,,,,,,,,,,,,"[""period""]",0,[0.5756000000001222],31,0,31,0,1,,
,,,,,,,,,,,,5e8f32cb79a8e80727d489a3,22,Mężczyzna,2022-06-11_09h25.14.050,task,2021.1.4,Win32,60.06727535,6299f149e92ead563fba08ef,62a443481c22fcf20a4ace5c,,,,,,,,,,,,,,,,,,,,,,,,,,,,,,,,,,,,,,,,,,,,,,,,,,,,,,,,,,,,,,,,,,,,,,,,,,,,,,,,,,,,,,,,,,,,"[""comma""]",0,[0.5173999999999523],32,0,32,0,1,,
,,,,,,,,,,,,5e8f32cb79a8e80727d489a3,22,Mężczyzna,2022-06-11_09h25.14.050,task,2021.1.4,Win32,60.06727535,6299f149e92ead563fba08ef,62a443481c22fcf20a4ace5c,,,,,,,,,,,,,,,,,,,,,,,,,,,,,,,,,,,,,,,,,,,,,,,,,,,,,,,,,,,,,,,,,,,,,,,,,,,,,,,,,,,,,,,,,,,,"[""period""]",0,[0.3771999999999025],33,0,33,0,1,,
,,,,,,,,,,,,5e8f32cb79a8e80727d489a3,22,Mężczyzna,2022-06-11_09h25.14.050,task,2021.1.4,Win32,60.06727535,6299f149e92ead563fba08ef,62a443481c22fcf20a4ace5c,,,,,,,,,,,,,,,,,,,,,,,,,,,,,,,,,,,,,,,,,,,,,,,,,,,,,,,,,,,,,,,,,,,,,,,,,,,,,,,,,,,,,,,,,,,,"[""comma""]",0,[0.5016000000000531],34,0,34,0,1,,
,,,,,,,,,,,,5e8f32cb79a8e80727d489a3,22,Mężczyzna,2022-06-11_09h25.14.050,task,2021.1.4,Win32,60.06727535,6299f149e92ead563fba08ef,62a443481c22fcf20a4ace5c,,,,,,,,,,,,,,,,,,,,,,,,,,,,,,,,,,,,,,,,,,,,,,,,,,,,,,,,,,,,,,,,,,,,,,,,,,,,,,,,,,,,,,,,,,,,"[""period""]",0,[0.4778999999998632],35,0,35,0,1,,
,,,,,,,,,,,,5e8f32cb79a8e80727d489a3,22,Mężczyzna,2022-06-11_09h25.14.050,task,2021.1.4,Win32,60.06727535,6299f149e92ead563fba08ef,62a443481c22fcf20a4ace5c,,,,,,,,,,,,,,,,,,,,,,,,,,,,,,,,,,,,,,,,,,,,,,,,,,,,,,,,,,,,,,,,,,,,,,,,,,,,,,,,,,,,,,,,,,,,"[""comma""]",0,[0.5546999999999116],36,0,36,0,1,,
,,,,,,,,,,,,5e8f32cb79a8e80727d489a3,22,Mężczyzna,2022-06-11_09h25.14.050,task,2021.1.4,Win32,60.06727535,6299f149e92ead563fba08ef,62a443481c22fcf20a4ace5c,,,,,,,,,,,,,,,,,,,,,,,,,,,,,,,,,,,,,,,,,,,,,,,,,,,,,,,,,,,,,,,,,,,,,,,,,,,,,,,,,,,,,,,,,,,,"[""period""]",0,[0.6299000000001342],37,0,37,0,1,,
,,,,,,,,,,,,5e8f32cb79a8e80727d489a3,22,Mężczyzna,2022-06-11_09h25.14.050,task,2021.1.4,Win32,60.06727535,6299f149e92ead563fba08ef,62a443481c22fcf20a4ace5c,,,,,,,,,,,,,,,,,,,,,,,,,,,,,,,,,,,,,,,,,,,,,,,,,,,,,,,,,,,,,,,,,,,,,,,,,,,,,,,,,,,,,,,,,,,,"[""period""]",0,[0.6907999999999674],38,0,38,0,1,,
,,,,,,,,,,,,5e8f32cb79a8e80727d489a3,22,Mężczyzna,2022-06-11_09h25.14.050,task,2021.1.4,Win32,60.06727535,6299f149e92ead563fba08ef,62a443481c22fcf20a4ace5c,,,,,,,,,,,,,,,,,,,,,,,,,,,,,,,,,,,,,,,,,,,,,,,,,,,,,,,,,,,,,,,,,,,,,,,,,,,,,,,,,,,,,,,,,,,,"[""period""]",0,[0.8712000000002718],39,0,39,0,1,,
,,,,,,,,,,,,5e8f32cb79a8e80727d489a3,22,Mężczyzna,2022-06-11_09h25.14.050,task,2021.1.4,Win32,60.06727535,6299f149e92ead563fba08ef,62a443481c22fcf20a4ace5c,,,,,,,,,,,,,,,,,,,,,,,,,,,,,,,,,,,,,,,,,,,,,,,,,,,,,,,,,,,,,,,,,,,,,,,,,,,,,,,,,,,,,,,,,,,,"[""comma""]",0,[0.5063999999999851],40,0,40,0,1,,
,,,,,,,,,,,,5e8f32cb79a8e80727d489a3,22,Mężczyzna,2022-06-11_09h25.14.050,task,2021.1.4,Win32,60.06727535,6299f149e92ead563fba08ef,62a443481c22fcf20a4ace5c,,,,,,,,,,,,,,,,,,,,,,,,,,,,,,,,,,,,,,,,,,,,,,,,,,,,,,,,,,,,,,,,,,,,,,,,,,,,,,,,,,,,,,,,,,,,"[""period""]",0,[0.43359999999961474],41,0,41,0,1,,
,,,,,,,,,,,,5e8f32cb79a8e80727d489a3,22,Mężczyzna,2022-06-11_09h25.14.050,task,2021.1.4,Win32,60.06727535,6299f149e92ead563fba08ef,62a443481c22fcf20a4ace5c,,,,,,,,,,,,,,,,,,,,,,,,,,,,,,,,,,,,,,,,,,,,,,,,,,,,,,,,,,,,,,,,,,,,,,,,,,,,,,,,,,,,,,,,,,,,"[""comma""]",0,[0.46039999999993597],42,0,42,0,1,,
,,,,,,,,,,,,5e8f32cb79a8e80727d489a3,22,Mężczyzna,2022-06-11_09h25.14.050,task,2021.1.4,Win32,60.06727535,6299f149e92ead563fba08ef,62a443481c22fcf20a4ace5c,,,,,,,,,,,,,,,,,,,,,,,,,,,,,,,,,,,,,,,,,,,,,,,,,,,,,,,,,,,,,,,,,,,,,,,,,,,,,,,,,,,,,,,,,,,,"[""period""]",0,[0.5171000000001413],43,0,43,0,1,,
,,,,,,,,,,,,5e8f32cb79a8e80727d489a3,22,Mężczyzna,2022-06-11_09h25.14.050,task,2021.1.4,Win32,60.06727535,6299f149e92ead563fba08ef,62a443481c22fcf20a4ace5c,,,,,,,,,,,,,,,,,,,,,,,,,,,,,,,,,,,,,,,,,,,,,,,,,,,,,,,,,,,,,,,,,,,,,,,,,,,,,,,,,,,,,,,,,,,,"[""comma""]",0,[0.5646000000000413],44,0,44,0,1,,
,,,,,,,,,,,,5e8f32cb79a8e80727d489a3,22,Mężczyzna,2022-06-11_09h25.14.050,task,2021.1.4,Win32,60.06727535,6299f149e92ead563fba08ef,62a443481c22fcf20a4ace5c,,,,,,,,,,,,,,,,,,,,,,,,,,,,,,,,,,,,,,,,,,,,,,,,,,,,,,,,,,,,,,,,,,,,,,,,,,,,,,,,,,,,,,,,,,,,"[""comma""]",0,[0.9952000000001817],45,0,45,0,1,,
,,,,,,,,,,,,5e8f32cb79a8e80727d489a3,22,Mężczyzna,2022-06-11_09h25.14.050,task,2021.1.4,Win32,60.06727535,6299f149e92ead563fba08ef,62a443481c22fcf20a4ace5c,,,,,,,,,,,,,,,,,,,,,,,,,,,,,,,,,,,,,,,,,,,,,,,,,,,,,,,,,,,,,,,,,,,,,,,,,,,,,,,,,,,,,,,,,,,,"[""comma""]",0,[0.6839999999999691],46,0,46,0,1,,
,,,,,,,,,,,,5e8f32cb79a8e80727d489a3,22,Mężczyzna,2022-06-11_09h25.14.050,task,2021.1.4,Win32,60.06727535,6299f149e92ead563fba08ef,62a443481c22fcf20a4ace5c,,,,,,,,,,,,,,,,,,,,,,,,,,,,,,,,,,,,,,,,,,,,,,,,,,,,,,,,,,,,,,,,,,,,,,,,,,,,,,,,,,,,,,,,,,,,"[""period""]",0,[0.6084999999999354],47,0,47,0,1,,
,,,,,,,,,,,,5e8f32cb79a8e80727d489a3,22,Mężczyzna,2022-06-11_09h25.14.050,task,2021.1.4,Win32,60.06727535,6299f149e92ead563fba08ef,62a443481c22fcf20a4ace5c,,,,,,,,,,,,,,,,,,,,,,,,,,,,,,,,,,,,,,,,,,,,,,,,,,,,,,,,,,,,,,,,,,,,,,,,,,,,,,,,,,,,,,,,,,,,"[""period""]",0,[0.457400000000348],48,0,48,0,1,,
,,,,,,,,,,,,5e8f32cb79a8e80727d489a3,22,Mężczyzna,2022-06-11_09h25.14.050,task,2021.1.4,Win32,60.06727535,6299f149e92ead563fba08ef,62a443481c22fcf20a4ace5c,,,,,,,,,,,,,,,,,,,,,,,,,,,,,,,,,,,,,,,,,,,,,,,,,,,,,,,,,,,,,,,,,,,,,,,,,,,,,,,,,,,,,,,,,,,,"[""comma""]",0,[0.3343000000003258],49,0,49,0,1,,
,,,,,,,,,,,,5e8f32cb79a8e80727d489a3,22,Mężczyzna,2022-06-11_09h25.14.050,task,2021.1.4,Win32,60.06727535,6299f149e92ead563fba08ef,62a443481c22fcf20a4ace5c,,,,,,,,,,,,,,,,,,,,,,,,,,,,,,,,,,,,,,,,,,,,,,,,,,,,,,,,,,,,,,,,,,,,,,,,,,,,,,,,,,,,,,,,,,,,"[""comma""]",0,[0.5209999999999582],50,0,50,0,1,,
,,,,,,,,,,,,5e8f32cb79a8e80727d489a3,22,Mężczyzna,2022-06-11_09h25.14.050,task,2021.1.4,Win32,60.06727535,6299f149e92ead563fba08ef,62a443481c22fcf20a4ace5c,,,,,,,,,,,,,,,,,,,,,,,,,,,,,,,,,,,,,,,,,,,,,,,,,,,,,,,,,,,,,,,,,,,,,,,,,,,,,,,,,,,,,,,,,,,,"[""period""]",0,[0.44279999999980646],51,0,51,0,1,,
,,,,,,,,,,,,5e8f32cb79a8e80727d489a3,22,Mężczyzna,2022-06-11_09h25.14.050,task,2021.1.4,Win32,60.06727535,6299f149e92ead563fba08ef,62a443481c22fcf20a4ace5c,,,,,,,,,,,,,,,,,,,,,,,,,,,,,,,,,,,,,,,,,,,,,,,,,,,,,,,,,,,,,,,,,,,,,,,,,,,,,,,,,,,,,,,,,,,,"[""period""]",0,[0.4278999999999087],52,0,52,0,1,,
,,,,,,,,,,,,5e8f32cb79a8e80727d489a3,22,Mężczyzna,2022-06-11_09h25.14.050,task,2021.1.4,Win32,60.06727535,6299f149e92ead563fba08ef,62a443481c22fcf20a4ace5c,,,,,,,,,,,,,,,,,,,,,,,,,,,,,,,,,,,,,,,,,,,,,,,,,,,,,,,,,,,,,,,,,,,,,,,,,,,,,,,,,,,,,,,,,,,,"[""period""]",0,[0.6884999999999764],53,0,53,0,1,,
,,,,,,,,,,,,5e8f32cb79a8e80727d489a3,22,Mężczyzna,2022-06-11_09h25.14.050,task,2021.1.4,Win32,60.06727535,6299f149e92ead563fba08ef,62a443481c22fcf20a4ace5c,,,,,,,,,,,,,,,,,,,,,,,,,,,,,,,,,,,,,,,,,,,,,,,,,,,,,,,,,,,,,,,,,,,,,,,,,,,,,,,,,,,,,,,,,,,,"[""comma""]",0,[0.3247999999998683],54,0,54,0,1,,
,,,,,,,,,,,,5e8f32cb79a8e80727d489a3,22,Mężczyzna,2022-06-11_09h25.14.050,task,2021.1.4,Win32,60.06727535,6299f149e92ead563fba08ef,62a443481c22fcf20a4ace5c,,,,,,,,,,,,,,,,,,,,,,,,,,,,,,,,,,,,,,,,,,,,,,,,,,,,,,,,,,,,,,,,,,,,,,,,,,,,,,,,,,,,,,,,,,,,"[""comma""]",0,[0.5341000000000804],55,0,55,0,1,,
,,,,,,,,,,,,5e8f32cb79a8e80727d489a3,22,Mężczyzna,2022-06-11_09h25.14.050,task,2021.1.4,Win32,60.06727535,6299f149e92ead563fba08ef,62a443481c22fcf20a4ace5c,,,,,,,,,,,,,,,,,,,,,,,,,,,,,,,,,,,,,,,,,,,,,,,,,,,,,,,,,,,,,,,,,,,,,,,,,,,,,,,,,,,,,,,,,,,,"[""comma""]",0,[0.9900000000000091],56,0,56,0,1,,
,,,,,,,,,,,,5e8f32cb79a8e80727d489a3,22,Mężczyzna,2022-06-11_09h25.14.050,task,2021.1.4,Win32,60.06727535,6299f149e92ead563fba08ef,62a443481c22fcf20a4ace5c,,,,,,,,,,,,,,,,,,,,,,,,,,,,,,,,,,,,,,,,,,,,,,,,,,,,,,,,,,,,,,,,,,,,,,,,,,,,,,,,,,,,,,,,,,,,"[""comma""]",0,[0.3003999999998541],57,0,57,0,1,,
,,,,,,,,,,,,5e8f32cb79a8e80727d489a3,22,Mężczyzna,2022-06-11_09h25.14.050,task,2021.1.4,Win32,60.06727535,6299f149e92ead563fba08ef,62a443481c22fcf20a4ace5c,,,,,,,,,,,,,,,,,,,,,,,,,,,,,,,,,,,,,,,,,,,,,,,,,,,,,,,,,,,,,,,,,,,,,,,,,,,,,,,,,,,,,,,,,,,,"[""period""]",0,[0.28379999999981464],58,0,58,0,1,,
,,,,,,,,,,,,5e8f32cb79a8e80727d489a3,22,Mężczyzna,2022-06-11_09h25.14.050,task,2021.1.4,Win32,60.06727535,6299f149e92ead563fba08ef,62a443481c22fcf20a4ace5c,,,,,,,,,,,,,,,,,,,,,,,,,,,,,,,,,,,,,,,,,,,,,,,,,,,,,,,,,,,,,,,,,,,,,,,,,,,,,,,,,,,,,,,,,,,,"[""period""]",0,[0.31170000000008713],59,0,59,0,1,,
,,,,,,,,,,,,5e8f32cb79a8e80727d489a3,22,Mężczyzna,2022-06-11_09h25.14.050,task,2021.1.4,Win32,60.06727535,6299f149e92ead563fba08ef,62a443481c22fcf20a4ace5c,,,,,,,,,,,,,,,,,,,,,,,,,,,,,,,,,,,,,,,,,,,,,,,,,,,,,,,,,,,,,,,,,,,,,,,,,,,,,,,,,,,,,,,,,,,,"[""comma""]",0,[0.6262000000002672],60,0,60,0,1,,
,,,,,,,,,,,,5e8f32cb79a8e80727d489a3,22,Mężczyzna,2022-06-11_09h25.14.050,task,2021.1.4,Win32,60.06727535,6299f149e92ead563fba08ef,62a443481c22fcf20a4ace5c,,,,,,,,,,,,,,,,,,,,,,,,,,,,,,,,,,,,,,,,,,,,,,,,,,,,,,,,,,,,,,,,,,,,,,,,,,,,,,,,,,,,,,,,,,,,"[""period""]",0,[0.5666999999996278],61,0,61,0,1,,
,,,,,,,,,,,,5e8f32cb79a8e80727d489a3,22,Mężczyzna,2022-06-11_09h25.14.050,task,2021.1.4,Win32,60.06727535,6299f149e92ead563fba08ef,62a443481c22fcf20a4ace5c,,,,,,,,,,,,,,,,,,,,,,,,,,,,,,,,,,,,,,,,,,,,,,,,,,,,,,,,,,,,,,,,,,,,,,,,,,,,,,,,,,,,,,,,,,,,"[""comma""]",0,[0.48660000000018044],62,0,62,0,1,,
,,,,,,,,,,,,5e8f32cb79a8e80727d489a3,22,Mężczyzna,2022-06-11_09h25.14.050,task,2021.1.4,Win32,60.06727535,6299f149e92ead563fba08ef,62a443481c22fcf20a4ace5c,,,,,,,,,,,,,,,,,,,,,,,,,,,,,,,,,,,,,,,,,,,,,,,,,,,,,,,,,,,,,,,,,,,,,,,,,,,,,,,,,,,,,,,,,,,,"[""period""]",0,[0.4251000000001568],63,0,63,0,1,,
,,,,,,,,,,,,5e8f32cb79a8e80727d489a3,22,Mężczyzna,2022-06-11_09h25.14.050,task,2021.1.4,Win32,60.06727535,6299f149e92ead563fba08ef,62a443481c22fcf20a4ace5c,,,,,,,,,,,,,,,,,,,,,,,,,,,,,,,,,,,,,,,,,,,,,,,,,,,,,,,,,,,,,,,,,,,,,,,,,,,,,,,,,,,,,,,,,,,,"[""comma""]",0,[0.42289999999991323],64,0,64,0,1,,
,,,,,,,,,,,,5e8f32cb79a8e80727d489a3,22,Mężczyzna,2022-06-11_09h25.14.050,task,2021.1.4,Win32,60.06727535,6299f149e92ead563fba08ef,62a443481c22fcf20a4ace5c,,,,,,,,,,,,,,,,,,,,,,,,,,,,,,,,,,,,,,,,,,,,,,,,,,,,,,,,,,,,,,,,,,,,,,,,,,,,,,,,,,,,,,,,,,,,"[""period""]",0,[0.3787000000002081],65,0,65,0,1,,
,,,,,,,,,,,,5e8f32cb79a8e80727d489a3,22,Mężczyzna,2022-06-11_09h25.14.050,task,2021.1.4,Win32,60.06727535,6299f149e92ead563fba08ef,62a443481c22fcf20a4ace5c,,,,,,,,,,,,,,,,,,,,,,,,,,,,,,,,,,,,,,,,,,,,,,,,,,,,,,,,,,,,,,,,,,,,,,,,,,,,,,,,,,,,,,,,,,,,"[""period""]",0,[0.3541000000001304],66,0,66,0,1,,
,,,,,,,,,,,,5e8f32cb79a8e80727d489a3,22,Mężczyzna,2022-06-11_09h25.14.050,task,2021.1.4,Win32,60.06727535,6299f149e92ead563fba08ef,62a443481c22fcf20a4ace5c,,,,,,,,,,,,,,,,,,,,,,,,,,,,,,,,,,,,,,,,,,,,,,,,,,,,,,,,,,,,,,,,,,,,,,,,,,,,,,,,,,,,,,,,,,,,"[""comma""]",0,[0.43650000000002365],67,0,67,0,1,,
,,,,,,,,,,,,5e8f32cb79a8e80727d489a3,22,Mężczyzna,2022-06-11_09h25.14.050,task,2021.1.4,Win32,60.06727535,6299f149e92ead563fba08ef,62a443481c22fcf20a4ace5c,,,,,,,,,,,,,,,,,,,,,,,,,,,,,,,,,,,,,,,,,,,,,,,,,,,,,,,,,,,,,,,,,,,,,,,,,,,,,,,,,,,,,,,,,,,,"[""period""]",0,[0.5014999999999645],68,0,68,0,1,,
,,,,,,,,,,,,5e8f32cb79a8e80727d489a3,22,Mężczyzna,2022-06-11_09h25.14.050,task,2021.1.4,Win32,60.06727535,6299f149e92ead563fba08ef,62a443481c22fcf20a4ace5c,,,,,,,,,,,,,,,,,,,,,,,,,,,,,,,,,,,,,,,,,,,,,,,,,,,,,,,,,,,,,,,,,,,,,,,,,,,,,,,,,,,,,,,,,,,,"[""comma""]",0,[0.465099999999552],69,0,69,0,1,,
,,,,,,,,,,,,5e8f32cb79a8e80727d489a3,22,Mężczyzna,2022-06-11_09h25.14.050,task,2021.1.4,Win32,60.06727535,6299f149e92ead563fba08ef,62a443481c22fcf20a4ace5c,,,,,,,,,,,,,,,,,,,,,,,,,,,,,,,,,,,,,,,,,,,,,,,,,,,,,,,,,,,,,,,,,,,,,,,,,,,,,,,,,,,,,,,,,,,,"[""period""]",0,[0.5669999999998936],70,0,70,0,1,,
,,,,,,,,,,,,5e8f32cb79a8e80727d489a3,22,Mężczyzna,2022-06-11_09h25.14.050,task,2021.1.4,Win32,60.06727535,6299f149e92ead563fba08ef,62a443481c22fcf20a4ace5c,,,,,,,,,,,,,,,,,,,,,,,,,,,,,,,,,,,,,,,,,,,,,,,,,,,,,,,,,,,,,,,,,,,,,,,,,,,,,,,,,,,,,,,,,,,,"[""period""]",0,[0.5174999999999272],71,0,71,0,1,,
,,,,,,,,,,,,5e8f32cb79a8e80727d489a3,22,Mężczyzna,2022-06-11_09h25.14.050,task,2021.1.4,Win32,60.06727535,6299f149e92ead563fba08ef,62a443481c22fcf20a4ace5c,,,,,,,,,,,,,,,,,,,,,,,,,,,,,,,,,,,,,,,,,,,,,,,,,,,,,,,,,,,,,,,,,,,,,,,,,,,,,,,,,,,,,,,,,,,,"[""comma""]",0,[0.3458000000002812],72,0,72,0,1,,
,,,,,,,,,,,,5e8f32cb79a8e80727d489a3,22,Mężczyzna,2022-06-11_09h25.14.050,task,2021.1.4,Win32,60.06727535,6299f149e92ead563fba08ef,62a443481c22fcf20a4ace5c,,,,,,,,,,,,,,,,,,,,,,,,,,,,,,,,,,,,,,,,,,,,,,,,,,,,,,,,,,,,,,,,,,,,,,,,,,,,,,,,,,,,,,,,,,,,"[""comma""]",0,[0.4528000000002521],73,0,73,0,1,,
,,,,,,,,,,,,5e8f32cb79a8e80727d489a3,22,Mężczyzna,2022-06-11_09h25.14.050,task,2021.1.4,Win32,60.06727535,6299f149e92ead563fba08ef,62a443481c22fcf20a4ace5c,,,,,,,,,,,,,,,,,,,,,,,,,,,,,,,,,,,,,,,,,,,,,,,,,,,,,,,,,,,,,,,,,,,,,,,,,,,,,,,,,,,,,,,,,,,,"[""period""]",0,[0.32059999999967204],74,0,74,0,1,,
,,,,,,,,,,,,5e8f32cb79a8e80727d489a3,22,Mężczyzna,2022-06-11_09h25.14.050,task,2021.1.4,Win32,60.06727535,6299f149e92ead563fba08ef,62a443481c22fcf20a4ace5c,,,,,,,,,,,,,,,,,,,,,,,,,,,,,,,,,,,,,,,,,,,,,,,,,,,,,,,,,,,,,,,,,,,,,,,,,,,,,,,,,,,,,,,,,,,,"[""comma""]",0,[0.15250000000003183],75,0,75,0,1,,
,,,,,,,,,,,,5e8f32cb79a8e80727d489a3,22,Mężczyzna,2022-06-11_09h25.14.050,task,2021.1.4,Win32,60.06727535,6299f149e92ead563fba08ef,62a443481c22fcf20a4ace5c,,,,,,,,,,,,,,,,,,,,,,,,,,,,,,,,,,,,,,,,,,,,,,,,,,,,,,,,,,,,,,,,,,,,,,,,,,,,,,,,,,,,,,,,,,,,"[""comma""]",0,[0.3224999999999909],76,0,76,0,1,,
,,,,,,,,,,,,5e8f32cb79a8e80727d489a3,22,Mężczyzna,2022-06-11_09h25.14.050,task,2021.1.4,Win32,60.06727535,6299f149e92ead563fba08ef,62a443481c22fcf20a4ace5c,,,,,,,,,,,,,,,,,,,,,,,,,,,,,,,,,,,,,,,,,,,,,,,,,,,,,,,,,,,,,,,,,,,,,,,,,,,,,,,,,,,,,,,,,,,,"[""comma""]",0,[0.4532000000001517],77,0,77,0,1,,
,,,,,,,,,,,,5e8f32cb79a8e80727d489a3,22,Mężczyzna,2022-06-11_09h25.14.050,task,2021.1.4,Win32,60.06727535,6299f149e92ead563fba08ef,62a443481c22fcf20a4ace5c,,,,,,,,,,,,,,,,,,,,,,,,,,,,,,,,,,,,,,,,,,,,,,,,,,,,,,,,,,,,,,,,,,,,,,,,,,,,,,,,,,,,,,,,,,,,"[""period""]",0,[0.47339999999985594],78,0,78,0,1,,
,,,,,,,,,,,,5e8f32cb79a8e80727d489a3,22,Mężczyzna,2022-06-11_09h25.14.050,task,2021.1.4,Win32,60.06727535,6299f149e92ead563fba08ef,62a443481c22fcf20a4ace5c,,,,,,,,,,,,,,,,,,,,,,,,,,,,,,,,,,,,,,,,,,,,,,,,,,,,,,,,,,,,,,,,,,,,,,,,,,,,,,,,,,,,,,,,,,,,"[""comma""]",0,[0.6091999999997597],79,0,79,0,1,,
,,,,,,,,,,,,5e8f32cb79a8e80727d489a3,22,Mężczyzna,2022-06-11_09h25.14.050,task,2021.1.4,Win32,60.06727535,6299f149e92ead563fba08ef,62a443481c22fcf20a4ace5c,,,,,,,,,,,,,,,,,,,,,,,,,,,,,,,,,,,,,,,,,,,,,,,,,,,,,,,,,,,,,,,,,,,,,,,,,,,,,,,,,,,,,,,,,,,,"[""period""]",0,[0.6001000000001113],80,0,80,0,1,,
,,,,,,,,,,,,5e8f32cb79a8e80727d489a3,22,Mężczyzna,2022-06-11_09h25.14.050,task,2021.1.4,Win32,60.06727535,6299f149e92ead563fba08ef,62a443481c22fcf20a4ace5c,,,,,,,,,,,,,,,,,,,,,,,,,,,,,,,,,,,,,,,,,,,,,,,,,,,,,,,,,,,,,,,,,,,,,,,,,,,,,,,,,,,,,,,,,,,,"[""period""]",0,[0.6314000000003261],81,0,81,0,1,,
,,,,,,,,,,,,5e8f32cb79a8e80727d489a3,22,Mężczyzna,2022-06-11_09h25.14.050,task,2021.1.4,Win32,60.06727535,6299f149e92ead563fba08ef,62a443481c22fcf20a4ace5c,,,,,,,,,,,,,,,,,,,,,,,,,,,,,,,,,,,,,,,,,,,,,,,,,,,,,,,,,,,,,,,,,,,,,,,,,,,,,,,,,,,,,,,,,,,,"[""period""]",0,[0.39079999999989923],82,0,82,0,1,,
,,,,,,,,,,,,5e8f32cb79a8e80727d489a3,22,Mężczyzna,2022-06-11_09h25.14.050,task,2021.1.4,Win32,60.06727535,6299f149e92ead563fba08ef,62a443481c22fcf20a4ace5c,,,,,,,,,,,,,,,,,,,,,,,,,,,,,,,,,,,,,,,,,,,,,,,,,,,,,,,,,,,,,,,,,,,,,,,,,,,,,,,,,,,,,,,,,,,,"[""period""]",0,[0.36029999999982465],83,0,83,0,1,,
,,,,,,,,,,,,5e8f32cb79a8e80727d489a3,22,Mężczyzna,2022-06-11_09h25.14.050,task,2021.1.4,Win32,60.06727535,6299f149e92ead563fba08ef,62a443481c22fcf20a4ace5c,,,,,,,,,,,,,,,,,,,,,,,,,,,,,,,,,,,,,,,,,,,,,,,,,,,,,,,,,,,,,,,,,,,,,,,,,,,,,,,,,,,,,,,,,,,,"[""comma""]",0,[0.3398000000003094],84,0,84,0,1,,
,,,,,,,,,,,,5e8f32cb79a8e80727d489a3,22,Mężczyzna,2022-06-11_09h25.14.050,task,2021.1.4,Win32,60.06727535,6299f149e92ead563fba08ef,62a443481c22fcf20a4ace5c,,,,,,,,,,,,,,,,,,,,,,,,,,,,,,,,,,,,,,,,,,,,,,,,,,,,,,,,,,,,,,,,,,,,,,,,,,,,,,,,,,,,,,,,,,,,"[""comma""]",0,[0.32110000000011496],85,0,85,0,1,,
,,,,,,,,,,,,5e8f32cb79a8e80727d489a3,22,Mężczyzna,2022-06-11_09h25.14.050,task,2021.1.4,Win32,60.06727535,6299f149e92ead563fba08ef,62a443481c22fcf20a4ace5c,,,,,,,,,,,,,,,,,,,,,,,,,,,,,,,,,,,,,,,,,,,,,,,,,,,,,,,,,,,,,,,,,,,,,,,,,,,,,,,,,,,,,,,,,,,,"[""comma""]",0,[0.64650000000006],86,0,86,0,1,,
,,,,,,,,,,,,5e8f32cb79a8e80727d489a3,22,Mężczyzna,2022-06-11_09h25.14.050,task,2021.1.4,Win32,60.06727535,6299f149e92ead563fba08ef,62a443481c22fcf20a4ace5c,,,,,,,,,,,,,,,,,,,,,,,,,,,,,,,,,,,,,,,,,,,,,,,,,,,,,,,,,,,,,,,,,,,,,,,,,,,,,,,,,,,,,,,,,,,,"[""period""]",0,[0.3043000000002394],87,0,87,0,1,,
,,,,,,,,,,,,5e8f32cb79a8e80727d489a3,22,Mężczyzna,2022-06-11_09h25.14.050,task,2021.1.4,Win32,60.06727535,6299f149e92ead563fba08ef,62a443481c22fcf20a4ace5c,,,,,,,,,,,,,,,,,,,,,,,,,,,,,,,,,,,,,,,,,,,,,,,,,,,,,,,,,,,,,,,,,,,,,,,,,,,,,,,,,,,,,,,,,,,,"[""period""]",0,[0.7669999999999391],88,0,88,0,1,,
,,,,,,,,,,,,5e8f32cb79a8e80727d489a3,22,Mężczyzna,2022-06-11_09h25.14.050,task,2021.1.4,Win32,60.06727535,6299f149e92ead563fba08ef,62a443481c22fcf20a4ace5c,,,,,,,,,,,,,,,,,,,,,,,,,,,,,,,,,,,,,,,,,,,,,,,,,,,,,,,,,,,,,,,,,,,,,,,,,,,,,,,,,,,,,,,,,,,,"[""period""]",0,[0.3816999999996824],89,0,89,0,1,,
,,,,,,,,,,,,5e8f32cb79a8e80727d489a3,22,Mężczyzna,2022-06-11_09h25.14.050,task,2021.1.4,Win32,60.06727535,6299f149e92ead563fba08ef,62a443481c22fcf20a4ace5c,,,,,,,,,,,,,,,,,,,,,,,,,,,,,,,,,,,,,,,,,,,,,,,,,,,,,,,,,,,,,,,,,,,,,,,,,,,,,,,,,,,,,,,,,,,,"[""comma""]",0,[0.5198000000002594],90,0,90,0,1,,
,,,,,,,,,,,,5e8f32cb79a8e80727d489a3,22,Mężczyzna,2022-06-11_09h25.14.050,task,2021.1.4,Win32,60.06727535,6299f149e92ead563fba08ef,62a443481c22fcf20a4ace5c,,,,,,,,,,,,,,,,,,,,,,,,,,,,,,,,,,,,,,,,,,,,,,,,,,,,,,,,,,,,,,,,,,,,,,,,,,,,,,,,,,,,,,,,,,,,"[""comma""]",0,[0.599999999999909],91,0,91,0,1,,
,,,,,,,,,,,,5e8f32cb79a8e80727d489a3,22,Mężczyzna,2022-06-11_09h25.14.050,task,2021.1.4,Win32,60.06727535,6299f149e92ead563fba08ef,62a443481c22fcf20a4ace5c,,,,,,,,,,,,,,,,,,,,,,,,,,,,,,,,,,,,,,,,,,,,,,,,,,,,,,,,,,,,,,,,,,,,,,,,,,,,,,,,,,,,,,,,,,,,"[""comma""]",0,[0.48369999999965785],92,0,92,0,1,,
,,,,,,,,,,,,5e8f32cb79a8e80727d489a3,22,Mężczyzna,2022-06-11_09h25.14.050,task,2021.1.4,Win32,60.06727535,6299f149e92ead563fba08ef,62a443481c22fcf20a4ace5c,,,,,,,,,,,,,,,,,,,,,,,,,,,,,,,,,,,,,,,,,,,,,,,,,,,,,,,,,,,,,,,,,,,,,,,,,,,,,,,,,,,,,,,,,,,,"[""period""]",0,[0.34170000000017353],93,0,93,0,1,,
,,,,,,,,,,,,5e8f32cb79a8e80727d489a3,22,Mężczyzna,2022-06-11_09h25.14.050,task,2021.1.4,Win32,60.06727535,6299f149e92ead563fba08ef,62a443481c22fcf20a4ace5c,,,,,,,,,,,,,,,,,,,,,,,,,,,,,,,,,,,,,,,,,,,,,,,,,,,,,,,,,,,,,,,,,,,,,,,,,,,,,,,,,,,,,,,,,,,,"[""period""]",0,[0.24009999999964293],94,0,94,0,1,,
,,,,,,,,,,,,5e8f32cb79a8e80727d489a3,22,Mężczyzna,2022-06-11_09h25.14.050,task,2021.1.4,Win32,60.06727535,6299f149e92ead563fba08ef,62a443481c22fcf20a4ace5c,,,,,,,,,,,,,,,,,,,,,,,,,,,,,,,,,,,,,,,,,,,,,,,,,,,,,,,,,,,,,,,,,,,,,,,,,,,,,,,,,,,,,,,,,,,,"[""comma""]",0,[0.3256999999997561],95,0,95,0,1,,
,,,,,,,,,,,,5e8f32cb79a8e80727d489a3,22,Mężczyzna,2022-06-11_09h25.14.050,task,2021.1.4,Win32,60.06727535,6299f149e92ead563fba08ef,62a443481c22fcf20a4ace5c,,,,,,,,,,,,,,,,,,,,,,,,,,,,,,,,,,,,,,,,,,,,,,,,,,,,,,,,,,,,,,,,,,,,,,,,,,,,,,,,,,,,,,,,,,,,"[""period""]",0,[0.3028999999999087],96,0,96,0,1,,
,,,,,,,,,,,,5e8f32cb79a8e80727d489a3,22,Mężczyzna,2022-06-11_09h25.14.050,task,2021.1.4,Win32,60.06727535,6299f149e92ead563fba08ef,62a443481c22fcf20a4ace5c,,,,,,,,,,,,,,,,,,,,,,,,,,,,,,,,,,,,,,,,,,,,,,,,,,,,,,,,,,,,,,,,,,,,,,,,,,,,,,,,,,,,,,,,,,,,"[""period""]",0,[0.5391000000000759],97,0,97,0,1,,
,,,,,,,,,,,,5e8f32cb79a8e80727d489a3,22,Mężczyzna,2022-06-11_09h25.14.050,task,2021.1.4,Win32,60.06727535,6299f149e92ead563fba08ef,62a443481c22fcf20a4ace5c,,,,,,,,,,,,,,,,,,,,,,,,,,,,,,,,,,,,,,,,,,,,,,,,,,,,,,,,,,,,,,,,,,,,,,,,,,,,,,,,,,,,,,,,,,,,"[""period""]",0,[0.4476000000000795],98,0,98,0,1,,
,,,,,,,,,,,,5e8f32cb79a8e80727d489a3,22,Mężczyzna,2022-06-11_09h25.14.050,task,2021.1.4,Win32,60.06727535,6299f149e92ead563fba08ef,62a443481c22fcf20a4ace5c,,,,,,,,,,,,,,,,,,,,,,,,,,,,,,,,,,,,,,,,,,,,,,,,,,,,,,,,,,,,,,,,,,,,,,,,,,,,,,,,,,,,,,,,,,,,"[""comma""]",0,[0.32999999999992724],99,0,99,0,1,,
,,,,,,,,,,,,5e8f32cb79a8e80727d489a3,22,Mężczyzna,2022-06-11_09h25.14.050,task,2021.1.4,Win32,60.06727535,6299f149e92ead563fba08ef,62a443481c22fcf20a4ace5c,,,,,,,,,,,,,,,,,,,,,,,,,,,,,,,,,,,,,,,,,,,,,,,,,,,,,,,,,,,,,,,,,,,,,,,,,,,,,,,,,,,,,,,,,,,,"[""comma""]",0,[0.3834999999999127],100,0,100,0,1,,
,,,,,,,,,,,,5e8f32cb79a8e80727d489a3,22,Mężczyzna,2022-06-11_09h25.14.050,task,2021.1.4,Win32,60.06727535,6299f149e92ead563fba08ef,62a443481c22fcf20a4ace5c,,,,,,,,,,,,,,,,,,,,,,,,,,,,,,,,,,,,,,,,,,,,,,,,,,,,,,,,,,,,,,,,,,,,,,,,,,,,,,,,,,,,,,,,,,,,"[""period""]",0,[0.4009999999999536],101,0,101,0,1,,
,,,,,,,,,,,,5e8f32cb79a8e80727d489a3,22,Mężczyzna,2022-06-11_09h25.14.050,task,2021.1.4,Win32,60.06727535,6299f149e92ead563fba08ef,62a443481c22fcf20a4ace5c,,,,,,,,,,,,,,,,,,,,,,,,,,,,,,,,,,,,,,,,,,,,,,,,,,,,,,,,,,,,,,,,,,,,,,,,,,,,,,,,,,,,,,,,,,,,"[""period""]",0,[0.3206000000000131],102,0,102,0,1,,
,,,,,,,,,,,,5e8f32cb79a8e80727d489a3,22,Mężczyzna,2022-06-11_09h25.14.050,task,2021.1.4,Win32,60.06727535,6299f149e92ead563fba08ef,62a443481c22fcf20a4ace5c,,,,,,,,,,,,,,,,,,,,,,,,,,,,,,,,,,,,,,,,,,,,,,,,,,,,,,,,,,,,,,,,,,,,,,,,,,,,,,,,,,,,,,,,,,,,"[""period""]",0,[0.5798999999998387],103,0,103,0,1,,
,,,,,,,,,,,,5e8f32cb79a8e80727d489a3,22,Mężczyzna,2022-06-11_09h25.14.050,task,2021.1.4,Win32,60.06727535,6299f149e92ead563fba08ef,62a443481c22fcf20a4ace5c,,,,,,,,,,,,,,,,,,,,,,,,,,,,,,,,,,,,,,,,,,,,,,,,,,,,,,,,,,,,,,,,,,,,,,,,,,,,,,,,,,,,,,,,,,,,"[""comma""]",0,[0.5856000000001131],104,0,104,0,1,,
,,,,,,,,,,,,5e8f32cb79a8e80727d489a3,22,Mężczyzna,2022-06-11_09h25.14.050,task,2021.1.4,Win32,60.06727535,6299f149e92ead563fba08ef,62a443481c22fcf20a4ace5c,,,,,,,,,,,,,,,,,,,,,,,,,,,,,,,,,,,,,,,,,,,,,,,,,,,,,,,,,,,,,,,,,,,,,,,,,,,,,,,,,,,,,,,,,,,,"[""period""]",0,[0.5265999999996893],105,0,105,0,1,,
,,,,,,,,,,,,5e8f32cb79a8e80727d489a3,22,Mężczyzna,2022-06-11_09h25.14.050,task,2021.1.4,Win32,60.06727535,6299f149e92ead563fba08ef,62a443481c22fcf20a4ace5c,,,,,,,,,,,,,,,,,,,,,,,,,,,,,,,,,,,,,,,,,,,,,,,,,,,,,,,,,,,,,,,,,,,,,,,,,,,,,,,,,,,,,,,,,,,,"[""comma""]",0,[0.6943999999999733],106,0,106,0,1,,
,,,,,,,,,,,,5e8f32cb79a8e80727d489a3,22,Mężczyzna,2022-06-11_09h25.14.050,task,2021.1.4,Win32,60.06727535,6299f149e92ead563fba08ef,62a443481c22fcf20a4ace5c,,,,,,,,,,,,,,,,,,,,,,,,,,,,,,,,,,,,,,,,,,,,,,,,,,,,,,,,,,,,,,,,,,,,,,,,,,,,,,,,,,,,,,,,,,,,"[""comma""]",0,[0.6110999999996238],107,0,107,0,1,,
,,,,,,,,,,,,5e8f32cb79a8e80727d489a3,22,Mężczyzna,2022-06-11_09h25.14.050,task,2021.1.4,Win32,60.06727535,6299f149e92ead563fba08ef,62a443481c22fcf20a4ace5c,,,,,,,,,,,,,,,,,,,,,,,,,,,,,,,,,,,,,,,,,,,,,,,,,,,,,,,,,,,,,,,,,,,,,,,,,,,,,,,,,,,,,,,,,,,,"[""comma""]",0,[0.3075999999996384],108,0,108,0,1,,
,,,,,,,,,,,,5e8f32cb79a8e80727d489a3,22,Mężczyzna,2022-06-11_09h25.14.050,task,2021.1.4,Win32,60.06727535,6299f149e92ead563fba08ef,62a443481c22fcf20a4ace5c,,,,,,,,,,,,,,,,,,,,,,,,,,,,,,,,,,,,,,,,,,,,,,,,,,,,,,,,,,,,,,,,,,,,,,,,,,,,,,,,,,,,,,,,,,,,"[""comma""]",0,[0.3788999999999305],109,0,109,0,1,,
,,,,,,,,,,,,5e8f32cb79a8e80727d489a3,22,Mężczyzna,2022-06-11_09h25.14.050,task,2021.1.4,Win32,60.06727535,6299f149e92ead563fba08ef,62a443481c22fcf20a4ace5c,,,,,,,,,,,,,,,,,,,,,,,,,,,,,,,,,,,,,,,,,,,,,,,,,,,,,,,,,,,,,,,,,,,,,,,,,,,,,,,,,,,,,,,,,,,,"[""period""]",0,[0.27860000000009677],110,0,110,0,1,,
,,,,,,,,,,,,5e8f32cb79a8e80727d489a3,22,Mężczyzna,2022-06-11_09h25.14.050,task,2021.1.4,Win32,60.06727535,6299f149e92ead563fba08ef,62a443481c22fcf20a4ace5c,,,,,,,,,,,,,,,,,,,,,,,,,,,,,,,,,,,,,,,,,,,,,,,,,,,,,,,,,,,,,,,,,,,,,,,,,,,,,,,,,,,,,,,,,,,,"[""period""]",0,[0.29389999999989413],111,0,111,0,1,,
,,,,,,,,,,,,5e8f32cb79a8e80727d489a3,22,Mężczyzna,2022-06-11_09h25.14.050,task,2021.1.4,Win32,60.06727535,6299f149e92ead563fba08ef,62a443481c22fcf20a4ace5c,,,,,,,,,,,,,,,,,,,,,,,,,,,,,,,,,,,,,,,,,,,,,,,,,,,,,,,,,,,,,,,,,,,,,,,,,,,,,,,,,,,,,,,,,,,,"[""comma""]",0,[0.3034000000004653],112,0,112,0,1,,
,,,,,,,,,,,,5e8f32cb79a8e80727d489a3,22,Mężczyzna,2022-06-11_09h25.14.050,task,2021.1.4,Win32,60.06727535,6299f149e92ead563fba08ef,62a443481c22fcf20a4ace5c,,,,,,,,,,,,,,,,,,,,,,,,,,,,,,,,,,,,,,,,,,,,,,,,,,,,,,,,,,,,,,,,,,,,,,,,,,,,,,,,,,,,,,,,,,,,"[""period""]",0,[0.29789999999991323],113,0,113,0,1,,
,,,,,,,,,,,,5e8f32cb79a8e80727d489a3,22,Mężczyzna,2022-06-11_09h25.14.050,task,2021.1.4,Win32,60.06727535,6299f149e92ead563fba08ef,62a443481c22fcf20a4ace5c,,,,,,,,,,,,,,,,,,,,,,,,,,,,,,,,,,,,,,,,,,,,,,,,,,,,,,,,,,,,,,,,,,,,,,,,,,,,,,,,,,,,,,,,,,,,"[""comma""]",0,[0.43800000000010186],114,0,114,0,1,,
