key_resp_15.keys,key_resp_15.rt,key_resp_16.keys,key_resp_16.rt,key_resp_4.keys,key_resp_4.rt,next_letter.thisRepN,next_letter.thisTrialN,next_letter.thisN,next_letter.thisIndex,next_letter.ran,letter,participant,Wiek*,Płeć,date,expName,psychopyVersion,OS,frameRate,study_id,session,simple_recall,key_resp_5.keys,key_resp_5.rt,simple_recall_corr,simple_recall_corrkeys,next_level.thisRepN,next_level.thisTrialN,next_level.thisN,next_level.thisIndex,next_level.ran,key_resp_2.keys,key_resp_2.rt,digit_answer,key_resp.keys,key_resp.corr,key_resp.rt,RT_list,next_equation.thisRepN,next_equation.thisTrialN,next_equation.thisN,next_equation.thisIndex,next_equation.ran,Task,Trial,Problem,Operation_answer,processing_score,sumRT,meanRT,sumdiff,sd,RT,key_resp_3.keys,key_resp_3.rt,repeat_practice.thisRepN,repeat_practice.thisTrialN,repeat_practice.thisN,repeat_practice.thisIndex,repeat_practice.ran,key_resp_6.keys,key_resp_6.rt,key_resp_11.keys,key_resp_11.corr,operation_correct,repeat_if_wrong_prac.thisRepN,repeat_if_wrong_prac.thisTrialN,repeat_if_wrong_prac.thisN,repeat_if_wrong_prac.thisIndex,repeat_if_wrong_prac.ran,key_resp_11.rt,span_size_prac.thisRepN,span_size_prac.thisTrialN,span_size_prac.thisN,span_size_prac.thisIndex,span_size_prac.ran,complex_recall_practice,key_resp_9.keys,key_resp_9.corr,key_resp_9.rt,complex_prac_corr,span_recall_prac.thisRepN,span_recall_prac.thisTrialN,span_recall_prac.thisN,span_recall_prac.thisIndex,span_recall_prac.ran,key_resp_10.keys,key_resp_10.rt,key_resp_7.keys,key_resp_7.corr,key_resp_7.rt,repeat_if_wrong.thisRepN,repeat_if_wrong.thisTrialN,repeat_if_wrong.thisN,repeat_if_wrong.thisIndex,repeat_if_wrong.ran,span_size.thisRepN,span_size.thisTrialN,span_size.thisN,span_size.thisIndex,span_size.ran,complex_recall,key_resp_8.keys,key_resp_8.corr,key_resp_8.rt,complex_recall_corr,complex_recall_corrkeys,span_recall.thisRepN,span_recall.thisTrialN,span_recall.thisN,span_recall.thisIndex,span_recall.ran,key_resp_13.keys,key_resp_13.corr,key_resp_13.rt,random_loop.thisRepN,random_loop.thisTrialN,random_loop.thisN,random_loop.thisIndex,random_loop.ran,key_resp_12.keys,key_resp_12.rt
space,86.1978,space,14.4124,space,7.4588,0,0,0,0,1,X V Q F H G B L J M P D K C T S W R N Z,5e94b58fc7296a0a611f0492,20,Mężczyzna,2022-06-11_09h28.55.775,task,2021.1.4,Linux x86_64,143.8848921,6299f149e92ead563fba08ef,62a44454c9904628c8f1974f,,,,,,,,,,,,,,,,,,,,,,,,,,,,,,,,,,,,,,,,,,,,,,,,,,,,,,,,,,,,,,,,,,,,,,,,,,,,,,,,,,,,,,,,,,,,,,,,,,,,,
,,,,,,1,0,1,0,1,X V Q F H G B L J M P D K C T S W R N Z,5e94b58fc7296a0a611f0492,20,Mężczyzna,2022-06-11_09h28.55.775,task,2021.1.4,Linux x86_64,143.8848921,6299f149e92ead563fba08ef,62a44454c9904628c8f1974f,,,,,,,,,,,,,,,,,,,,,,,,,,,,,,,,,,,,,,,,,,,,,,,,,,,,,,,,,,,,,,,,,,,,,,,,,,,,,,,,,,,,,,,,,,,,,,,,,,,,,
,,,,,,,,,,,,5e94b58fc7296a0a611f0492,20,Mężczyzna,2022-06-11_09h28.55.775,task,2021.1.4,Linux x86_64,143.8848921,6299f149e92ead563fba08ef,62a44454c9904628c8f1974f,zp,"[""z"",""p""]","[2.6938999999999993,3.4080000000000013,4.115799999999993]",1,ZP,0,0,0,0,1,,,,,,,,,,,,,,,,,,,,,,,,,,,,,,,,,,,,,,,,,,,,,,,,,,,,,,,,,,,,,,,,,,,,,,,,,,,,,,,,,,,,,,,,,,,
,,,,,,0,0,0,0,1,X V Q F H G B L J M P D K C T S W R N Z,5e94b58fc7296a0a611f0492,20,Mężczyzna,2022-06-11_09h28.55.775,task,2021.1.4,Linux x86_64,143.8848921,6299f149e92ead563fba08ef,62a44454c9904628c8f1974f,,,,,,,,,,,,,,,,,,,,,,,,,,,,,,,,,,,,,,,,,,,,,,,,,,,,,,,,,,,,,,,,,,,,,,,,,,,,,,,,,,,,,,,,,,,,,,,,,,,,,
,,,,,,1,0,1,0,1,X V Q F H G B L J M P D K C T S W R N Z,5e94b58fc7296a0a611f0492,20,Mężczyzna,2022-06-11_09h28.55.775,task,2021.1.4,Linux x86_64,143.8848921,6299f149e92ead563fba08ef,62a44454c9904628c8f1974f,,,,,,,,,,,,,,,,,,,,,,,,,,,,,,,,,,,,,,,,,,,,,,,,,,,,,,,,,,,,,,,,,,,,,,,,,,,,,,,,,,,,,,,,,,,,,,,,,,,,,
,,,,,,,,,,,,5e94b58fc7296a0a611f0492,20,Mężczyzna,2022-06-11_09h28.55.775,task,2021.1.4,Linux x86_64,143.8848921,6299f149e92ead563fba08ef,62a44454c9904628c8f1974f,zb,"[""z"",""b""]","[2.5713000000000363,3.371800000000036,4.291800000000052]",1,ZB,1,0,1,0,1,,,,,,,,,,,,,,,,,,,,,,,,,,,,,,,,,,,,,,,,,,,,,,,,,,,,,,,,,,,,,,,,,,,,,,,,,,,,,,,,,,,,,,,,,,,
,,,,,,0,0,0,0,1,X V Q F H G B L J M P D K C T S W R N Z,5e94b58fc7296a0a611f0492,20,Mężczyzna,2022-06-11_09h28.55.775,task,2021.1.4,Linux x86_64,143.8848921,6299f149e92ead563fba08ef,62a44454c9904628c8f1974f,,,,,,,,,,,,,,,,,,,,,,,,,,,,,,,,,,,,,,,,,,,,,,,,,,,,,,,,,,,,,,,,,,,,,,,,,,,,,,,,,,,,,,,,,,,,,,,,,,,,,
,,,,,,1,0,1,0,1,X V Q F H G B L J M P D K C T S W R N Z,5e94b58fc7296a0a611f0492,20,Mężczyzna,2022-06-11_09h28.55.775,task,2021.1.4,Linux x86_64,143.8848921,6299f149e92ead563fba08ef,62a44454c9904628c8f1974f,,,,,,,,,,,,,,,,,,,,,,,,,,,,,,,,,,,,,,,,,,,,,,,,,,,,,,,,,,,,,,,,,,,,,,,,,,,,,,,,,,,,,,,,,,,,,,,,,,,,,
,,,,,,2,0,2,0,1,X V Q F H G B L J M P D K C T S W R N Z,5e94b58fc7296a0a611f0492,20,Mężczyzna,2022-06-11_09h28.55.775,task,2021.1.4,Linux x86_64,143.8848921,6299f149e92ead563fba08ef,62a44454c9904628c8f1974f,,,,,,,,,,,,,,,,,,,,,,,,,,,,,,,,,,,,,,,,,,,,,,,,,,,,,,,,,,,,,,,,,,,,,,,,,,,,,,,,,,,,,,,,,,,,,,,,,,,,,
,,,,,,,,,,,,5e94b58fc7296a0a611f0492,20,Mężczyzna,2022-06-11_09h28.55.775,task,2021.1.4,Linux x86_64,143.8848921,6299f149e92ead563fba08ef,62a44454c9904628c8f1974f,vcw,"[""v"",""c"",""w""]","[2.2552000000000305,2.3947000000000287,2.658100000000047,3.2900000000000205]",1,VCW,2,0,2,0,1,,,,,,,,,,,,,,,,,,,,,,,,,,,,,,,,,,,,,,,,,,,,,,,,,,,,,,,,,,,,,,,,,,,,,,,,,,,,,,,,,,,,,,,,,,,
,,,,,,0,0,0,0,1,X V Q F H G B L J M P D K C T S W R N Z,5e94b58fc7296a0a611f0492,20,Mężczyzna,2022-06-11_09h28.55.775,task,2021.1.4,Linux x86_64,143.8848921,6299f149e92ead563fba08ef,62a44454c9904628c8f1974f,,,,,,,,,,,,,,,,,,,,,,,,,,,,,,,,,,,,,,,,,,,,,,,,,,,,,,,,,,,,,,,,,,,,,,,,,,,,,,,,,,,,,,,,,,,,,,,,,,,,,
,,,,,,1,0,1,0,1,X V Q F H G B L J M P D K C T S W R N Z,5e94b58fc7296a0a611f0492,20,Mężczyzna,2022-06-11_09h28.55.775,task,2021.1.4,Linux x86_64,143.8848921,6299f149e92ead563fba08ef,62a44454c9904628c8f1974f,,,,,,,,,,,,,,,,,,,,,,,,,,,,,,,,,,,,,,,,,,,,,,,,,,,,,,,,,,,,,,,,,,,,,,,,,,,,,,,,,,,,,,,,,,,,,,,,,,,,,
,,,,,,2,0,2,0,1,X V Q F H G B L J M P D K C T S W R N Z,5e94b58fc7296a0a611f0492,20,Mężczyzna,2022-06-11_09h28.55.775,task,2021.1.4,Linux x86_64,143.8848921,6299f149e92ead563fba08ef,62a44454c9904628c8f1974f,,,,,,,,,,,,,,,,,,,,,,,,,,,,,,,,,,,,,,,,,,,,,,,,,,,,,,,,,,,,,,,,,,,,,,,,,,,,,,,,,,,,,,,,,,,,,,,,,,,,,
,,,,,,,,,,,,5e94b58fc7296a0a611f0492,20,Mężczyzna,2022-06-11_09h28.55.775,task,2021.1.4,Linux x86_64,143.8848921,6299f149e92ead563fba08ef,62a44454c9904628c8f1974f,fps,"[""f"",""p"",""s""]","[1.0537000000000205,1.435699999999997,1.9015999999999735,2.54849999999999]",1,FPS,3,0,3,0,1,,,,,,,,,,,,,,,,,,,,,,,,,,,,,,,,,,,,,,,,,,,,,,,,,,,,,,,,,,,,,,,,,,,,,,,,,,,,,,,,,,,,,,,,,,,
,,,,,,0,0,0,0,1,X V Q F H G B L J M P D K C T S W R N Z,5e94b58fc7296a0a611f0492,20,Mężczyzna,2022-06-11_09h28.55.775,task,2021.1.4,Linux x86_64,143.8848921,6299f149e92ead563fba08ef,62a44454c9904628c8f1974f,,,,,,,,,,,,,,,,,,,,,,,,,,,,,,,,,,,,,,,,,,,,,,,,,,,,,,,,,,,,,,,,,,,,,,,,,,,,,,,,,,,,,,,,,,,,,,,,,,,,,
,,,,,,1,0,1,0,1,X V Q F H G B L J M P D K C T S W R N Z,5e94b58fc7296a0a611f0492,20,Mężczyzna,2022-06-11_09h28.55.775,task,2021.1.4,Linux x86_64,143.8848921,6299f149e92ead563fba08ef,62a44454c9904628c8f1974f,,,,,,,,,,,,,,,,,,,,,,,,,,,,,,,,,,,,,,,,,,,,,,,,,,,,,,,,,,,,,,,,,,,,,,,,,,,,,,,,,,,,,,,,,,,,,,,,,,,,,
,,,,,,2,0,2,0,1,X V Q F H G B L J M P D K C T S W R N Z,5e94b58fc7296a0a611f0492,20,Mężczyzna,2022-06-11_09h28.55.775,task,2021.1.4,Linux x86_64,143.8848921,6299f149e92ead563fba08ef,62a44454c9904628c8f1974f,,,,,,,,,,,,,,,,,,,,,,,,,,,,,,,,,,,,,,,,,,,,,,,,,,,,,,,,,,,,,,,,,,,,,,,,,,,,,,,,,,,,,,,,,,,,,,,,,,,,,
,,,,,,3,0,3,0,1,X V Q F H G B L J M P D K C T S W R N Z,5e94b58fc7296a0a611f0492,20,Mężczyzna,2022-06-11_09h28.55.775,task,2021.1.4,Linux x86_64,143.8848921,6299f149e92ead563fba08ef,62a44454c9904628c8f1974f,,,,,,,,,,,,,,,,,,,,,,,,,,,,,,,,,,,,,,,,,,,,,,,,,,,,,,,,,,,,,,,,,,,,,,,,,,,,,,,,,,,,,,,,,,,,,,,,,,,,,
,,,,,,,,,,,,5e94b58fc7296a0a611f0492,20,Mężczyzna,2022-06-11_09h28.55.775,task,2021.1.4,Linux x86_64,143.8848921,6299f149e92ead563fba08ef,62a44454c9904628c8f1974f,lwxq,"[""l"",""w"",""x"",""q""]","[3.7427999999999884,3.781099999999981,3.972799999999978,4.166099999999972,4.272500000000008]",1,LWXQ,4,0,4,0,1,,,,,,,,,,,,,,,,,,,,,,,,,,,,,,,,,,,,,,,,,,,,,,,,,,,,,,,,,,,,,,,,,,,,,,,,,,,,,,,,,,,,,,,,,,,
,,,,,,0,0,0,0,1,X V Q F H G B L J M P D K C T S W R N Z,5e94b58fc7296a0a611f0492,20,Mężczyzna,2022-06-11_09h28.55.775,task,2021.1.4,Linux x86_64,143.8848921,6299f149e92ead563fba08ef,62a44454c9904628c8f1974f,,,,,,,,,,,,,,,,,,,,,,,,,,,,,,,,,,,,,,,,,,,,,,,,,,,,,,,,,,,,,,,,,,,,,,,,,,,,,,,,,,,,,,,,,,,,,,,,,,,,,
,,,,,,1,0,1,0,1,X V Q F H G B L J M P D K C T S W R N Z,5e94b58fc7296a0a611f0492,20,Mężczyzna,2022-06-11_09h28.55.775,task,2021.1.4,Linux x86_64,143.8848921,6299f149e92ead563fba08ef,62a44454c9904628c8f1974f,,,,,,,,,,,,,,,,,,,,,,,,,,,,,,,,,,,,,,,,,,,,,,,,,,,,,,,,,,,,,,,,,,,,,,,,,,,,,,,,,,,,,,,,,,,,,,,,,,,,,
,,,,,,2,0,2,0,1,X V Q F H G B L J M P D K C T S W R N Z,5e94b58fc7296a0a611f0492,20,Mężczyzna,2022-06-11_09h28.55.775,task,2021.1.4,Linux x86_64,143.8848921,6299f149e92ead563fba08ef,62a44454c9904628c8f1974f,,,,,,,,,,,,,,,,,,,,,,,,,,,,,,,,,,,,,,,,,,,,,,,,,,,,,,,,,,,,,,,,,,,,,,,,,,,,,,,,,,,,,,,,,,,,,,,,,,,,,
,,,,,,3,0,3,0,1,X V Q F H G B L J M P D K C T S W R N Z,5e94b58fc7296a0a611f0492,20,Mężczyzna,2022-06-11_09h28.55.775,task,2021.1.4,Linux x86_64,143.8848921,6299f149e92ead563fba08ef,62a44454c9904628c8f1974f,,,,,,,,,,,,,,,,,,,,,,,,,,,,,,,,,,,,,,,,,,,,,,,,,,,,,,,,,,,,,,,,,,,,,,,,,,,,,,,,,,,,,,,,,,,,,,,,,,,,,
,,,,,,,,,,,,5e94b58fc7296a0a611f0492,20,Mężczyzna,2022-06-11_09h28.55.775,task,2021.1.4,Linux x86_64,143.8848921,6299f149e92ead563fba08ef,62a44454c9904628c8f1974f,drmj,"[""d"",""r"",""m"",""j""]","[5.425700000000006,5.563999999999993,5.673599999999965,5.814799999999991,5.983799999999974]",1,DRMJ,5,0,5,0,1,,,,,,,,,,,,,,,,,,,,,,,,,,,,,,,,,,,,,,,,,,,,,,,,,,,,,,,,,,,,,,,,,,,,,,,,,,,,,,,,,,,,,,,,,,,
,,,,,,0,0,0,0,1,X V Q F H G B L J M P D K C T S W R N Z,5e94b58fc7296a0a611f0492,20,Mężczyzna,2022-06-11_09h28.55.775,task,2021.1.4,Linux x86_64,143.8848921,6299f149e92ead563fba08ef,62a44454c9904628c8f1974f,,,,,,,,,,,,,,,,,,,,,,,,,,,,,,,,,,,,,,,,,,,,,,,,,,,,,,,,,,,,,,,,,,,,,,,,,,,,,,,,,,,,,,,,,,,,,,,,,,,,,
,,,,,,1,0,1,0,1,X V Q F H G B L J M P D K C T S W R N Z,5e94b58fc7296a0a611f0492,20,Mężczyzna,2022-06-11_09h28.55.775,task,2021.1.4,Linux x86_64,143.8848921,6299f149e92ead563fba08ef,62a44454c9904628c8f1974f,,,,,,,,,,,,,,,,,,,,,,,,,,,,,,,,,,,,,,,,,,,,,,,,,,,,,,,,,,,,,,,,,,,,,,,,,,,,,,,,,,,,,,,,,,,,,,,,,,,,,
,,,,,,2,0,2,0,1,X V Q F H G B L J M P D K C T S W R N Z,5e94b58fc7296a0a611f0492,20,Mężczyzna,2022-06-11_09h28.55.775,task,2021.1.4,Linux x86_64,143.8848921,6299f149e92ead563fba08ef,62a44454c9904628c8f1974f,,,,,,,,,,,,,,,,,,,,,,,,,,,,,,,,,,,,,,,,,,,,,,,,,,,,,,,,,,,,,,,,,,,,,,,,,,,,,,,,,,,,,,,,,,,,,,,,,,,,,
,,,,,,3,0,3,0,1,X V Q F H G B L J M P D K C T S W R N Z,5e94b58fc7296a0a611f0492,20,Mężczyzna,2022-06-11_09h28.55.775,task,2021.1.4,Linux x86_64,143.8848921,6299f149e92ead563fba08ef,62a44454c9904628c8f1974f,,,,,,,,,,,,,,,,,,,,,,,,,,,,,,,,,,,,,,,,,,,,,,,,,,,,,,,,,,,,,,,,,,,,,,,,,,,,,,,,,,,,,,,,,,,,,,,,,,,,,
,,,,,,4,0,4,0,1,X V Q F H G B L J M P D K C T S W R N Z,5e94b58fc7296a0a611f0492,20,Mężczyzna,2022-06-11_09h28.55.775,task,2021.1.4,Linux x86_64,143.8848921,6299f149e92ead563fba08ef,62a44454c9904628c8f1974f,,,,,,,,,,,,,,,,,,,,,,,,,,,,,,,,,,,,,,,,,,,,,,,,,,,,,,,,,,,,,,,,,,,,,,,,,,,,,,,,,,,,,,,,,,,,,,,,,,,,,
,,,,,,,,,,,,5e94b58fc7296a0a611f0492,20,Mężczyzna,2022-06-11_09h28.55.775,task,2021.1.4,Linux x86_64,143.8848921,6299f149e92ead563fba08ef,62a44454c9904628c8f1974f,vvstv,"[""v"",""v"",""s"",""t"",""v""]","[0.7314000000000362,0.8485999999999763,1.25030000000001,1.5845000000000198,1.7927999999999997,2.075700000000012]",1,VVSTV,6,0,6,0,1,,,,,,,,,,,,,,,,,,,,,,,,,,,,,,,,,,,,,,,,,,,,,,,,,,,,,,,,,,,,,,,,,,,,,,,,,,,,,,,,,,,,,,,,,,,
,,,,,,0,0,0,0,1,X V Q F H G B L J M P D K C T S W R N Z,5e94b58fc7296a0a611f0492,20,Mężczyzna,2022-06-11_09h28.55.775,task,2021.1.4,Linux x86_64,143.8848921,6299f149e92ead563fba08ef,62a44454c9904628c8f1974f,,,,,,,,,,,,,,,,,,,,,,,,,,,,,,,,,,,,,,,,,,,,,,,,,,,,,,,,,,,,,,,,,,,,,,,,,,,,,,,,,,,,,,,,,,,,,,,,,,,,,
,,,,,,1,0,1,0,1,X V Q F H G B L J M P D K C T S W R N Z,5e94b58fc7296a0a611f0492,20,Mężczyzna,2022-06-11_09h28.55.775,task,2021.1.4,Linux x86_64,143.8848921,6299f149e92ead563fba08ef,62a44454c9904628c8f1974f,,,,,,,,,,,,,,,,,,,,,,,,,,,,,,,,,,,,,,,,,,,,,,,,,,,,,,,,,,,,,,,,,,,,,,,,,,,,,,,,,,,,,,,,,,,,,,,,,,,,,
,,,,,,2,0,2,0,1,X V Q F H G B L J M P D K C T S W R N Z,5e94b58fc7296a0a611f0492,20,Mężczyzna,2022-06-11_09h28.55.775,task,2021.1.4,Linux x86_64,143.8848921,6299f149e92ead563fba08ef,62a44454c9904628c8f1974f,,,,,,,,,,,,,,,,,,,,,,,,,,,,,,,,,,,,,,,,,,,,,,,,,,,,,,,,,,,,,,,,,,,,,,,,,,,,,,,,,,,,,,,,,,,,,,,,,,,,,
,,,,,,3,0,3,0,1,X V Q F H G B L J M P D K C T S W R N Z,5e94b58fc7296a0a611f0492,20,Mężczyzna,2022-06-11_09h28.55.775,task,2021.1.4,Linux x86_64,143.8848921,6299f149e92ead563fba08ef,62a44454c9904628c8f1974f,,,,,,,,,,,,,,,,,,,,,,,,,,,,,,,,,,,,,,,,,,,,,,,,,,,,,,,,,,,,,,,,,,,,,,,,,,,,,,,,,,,,,,,,,,,,,,,,,,,,,
,,,,,,4,0,4,0,1,X V Q F H G B L J M P D K C T S W R N Z,5e94b58fc7296a0a611f0492,20,Mężczyzna,2022-06-11_09h28.55.775,task,2021.1.4,Linux x86_64,143.8848921,6299f149e92ead563fba08ef,62a44454c9904628c8f1974f,,,,,,,,,,,,,,,,,,,,,,,,,,,,,,,,,,,,,,,,,,,,,,,,,,,,,,,,,,,,,,,,,,,,,,,,,,,,,,,,,,,,,,,,,,,,,,,,,,,,,
,,,,,,,,,,,,5e94b58fc7296a0a611f0492,20,Mężczyzna,2022-06-11_09h28.55.775,task,2021.1.4,Linux x86_64,143.8848921,6299f149e92ead563fba08ef,62a44454c9904628c8f1974f,hctqt,"[""h"",""c"",""t"",""q"",""t""]","[1.3386000000000422,1.4379000000000133,1.6478000000000463,2.1553000000000395,2.474199999999996,2.614800000000031]",1,HCTQT,7,0,7,0,1,,,,,,,,,,,,,,,,,,,,,,,,,,,,,,,,,,,,,,,,,,,,,,,,,,,,,,,,,,,,,,,,,,,,,,,,,,,,,,,,,,,,,,,,,,,
,,,,,,0,0,0,0,1,X V Q F H G B L J M P D K C T S W R N Z,5e94b58fc7296a0a611f0492,20,Mężczyzna,2022-06-11_09h28.55.775,task,2021.1.4,Linux x86_64,143.8848921,6299f149e92ead563fba08ef,62a44454c9904628c8f1974f,,,,,,,,,,,,,,,,,,,,,,,,,,,,,,,,,,,,,,,,,,,,,,,,,,,,,,,,,,,,,,,,,,,,,,,,,,,,,,,,,,,,,,,,,,,,,,,,,,,,,
,,,,,,1,0,1,0,1,X V Q F H G B L J M P D K C T S W R N Z,5e94b58fc7296a0a611f0492,20,Mężczyzna,2022-06-11_09h28.55.775,task,2021.1.4,Linux x86_64,143.8848921,6299f149e92ead563fba08ef,62a44454c9904628c8f1974f,,,,,,,,,,,,,,,,,,,,,,,,,,,,,,,,,,,,,,,,,,,,,,,,,,,,,,,,,,,,,,,,,,,,,,,,,,,,,,,,,,,,,,,,,,,,,,,,,,,,,
,,,,,,2,0,2,0,1,X V Q F H G B L J M P D K C T S W R N Z,5e94b58fc7296a0a611f0492,20,Mężczyzna,2022-06-11_09h28.55.775,task,2021.1.4,Linux x86_64,143.8848921,6299f149e92ead563fba08ef,62a44454c9904628c8f1974f,,,,,,,,,,,,,,,,,,,,,,,,,,,,,,,,,,,,,,,,,,,,,,,,,,,,,,,,,,,,,,,,,,,,,,,,,,,,,,,,,,,,,,,,,,,,,,,,,,,,,
,,,,,,3,0,3,0,1,X V Q F H G B L J M P D K C T S W R N Z,5e94b58fc7296a0a611f0492,20,Mężczyzna,2022-06-11_09h28.55.775,task,2021.1.4,Linux x86_64,143.8848921,6299f149e92ead563fba08ef,62a44454c9904628c8f1974f,,,,,,,,,,,,,,,,,,,,,,,,,,,,,,,,,,,,,,,,,,,,,,,,,,,,,,,,,,,,,,,,,,,,,,,,,,,,,,,,,,,,,,,,,,,,,,,,,,,,,
,,,,,,4,0,4,0,1,X V Q F H G B L J M P D K C T S W R N Z,5e94b58fc7296a0a611f0492,20,Mężczyzna,2022-06-11_09h28.55.775,task,2021.1.4,Linux x86_64,143.8848921,6299f149e92ead563fba08ef,62a44454c9904628c8f1974f,,,,,,,,,,,,,,,,,,,,,,,,,,,,,,,,,,,,,,,,,,,,,,,,,,,,,,,,,,,,,,,,,,,,,,,,,,,,,,,,,,,,,,,,,,,,,,,,,,,,,
,,,,,,5,0,5,0,1,X V Q F H G B L J M P D K C T S W R N Z,5e94b58fc7296a0a611f0492,20,Mężczyzna,2022-06-11_09h28.55.775,task,2021.1.4,Linux x86_64,143.8848921,6299f149e92ead563fba08ef,62a44454c9904628c8f1974f,,,,,,,,,,,,,,,,,,,,,,,,,,,,,,,,,,,,,,,,,,,,,,,,,,,,,,,,,,,,,,,,,,,,,,,,,,,,,,,,,,,,,,,,,,,,,,,,,,,,,
,,,,,,,,,,,,5e94b58fc7296a0a611f0492,20,Mężczyzna,2022-06-11_09h28.55.775,task,2021.1.4,Linux x86_64,143.8848921,6299f149e92ead563fba08ef,62a44454c9904628c8f1974f,lcbvgm,"[""l"",""c"",""b"",""v"",""g"",""m""]","[0.7605999999999824,0.8719999999999857,1.3006999999999493,1.3976999999999578,1.6286999999999523,1.918299999999988,2.243199999999945]",1,LCBVGM,8,0,8,0,1,,,,,,,,,,,,,,,,,,,,,,,,,,,,,,,,,,,,,,,,,,,,,,,,,,,,,,,,,,,,,,,,,,,,,,,,,,,,,,,,,,,,,,,,,,,
,,,,,,0,0,0,0,1,X V Q F H G B L J M P D K C T S W R N Z,5e94b58fc7296a0a611f0492,20,Mężczyzna,2022-06-11_09h28.55.775,task,2021.1.4,Linux x86_64,143.8848921,6299f149e92ead563fba08ef,62a44454c9904628c8f1974f,,,,,,,,,,,,,,,,,,,,,,,,,,,,,,,,,,,,,,,,,,,,,,,,,,,,,,,,,,,,,,,,,,,,,,,,,,,,,,,,,,,,,,,,,,,,,,,,,,,,,
,,,,,,1,0,1,0,1,X V Q F H G B L J M P D K C T S W R N Z,5e94b58fc7296a0a611f0492,20,Mężczyzna,2022-06-11_09h28.55.775,task,2021.1.4,Linux x86_64,143.8848921,6299f149e92ead563fba08ef,62a44454c9904628c8f1974f,,,,,,,,,,,,,,,,,,,,,,,,,,,,,,,,,,,,,,,,,,,,,,,,,,,,,,,,,,,,,,,,,,,,,,,,,,,,,,,,,,,,,,,,,,,,,,,,,,,,,
,,,,,,2,0,2,0,1,X V Q F H G B L J M P D K C T S W R N Z,5e94b58fc7296a0a611f0492,20,Mężczyzna,2022-06-11_09h28.55.775,task,2021.1.4,Linux x86_64,143.8848921,6299f149e92ead563fba08ef,62a44454c9904628c8f1974f,,,,,,,,,,,,,,,,,,,,,,,,,,,,,,,,,,,,,,,,,,,,,,,,,,,,,,,,,,,,,,,,,,,,,,,,,,,,,,,,,,,,,,,,,,,,,,,,,,,,,
,,,,,,3,0,3,0,1,X V Q F H G B L J M P D K C T S W R N Z,5e94b58fc7296a0a611f0492,20,Mężczyzna,2022-06-11_09h28.55.775,task,2021.1.4,Linux x86_64,143.8848921,6299f149e92ead563fba08ef,62a44454c9904628c8f1974f,,,,,,,,,,,,,,,,,,,,,,,,,,,,,,,,,,,,,,,,,,,,,,,,,,,,,,,,,,,,,,,,,,,,,,,,,,,,,,,,,,,,,,,,,,,,,,,,,,,,,
,,,,,,4,0,4,0,1,X V Q F H G B L J M P D K C T S W R N Z,5e94b58fc7296a0a611f0492,20,Mężczyzna,2022-06-11_09h28.55.775,task,2021.1.4,Linux x86_64,143.8848921,6299f149e92ead563fba08ef,62a44454c9904628c8f1974f,,,,,,,,,,,,,,,,,,,,,,,,,,,,,,,,,,,,,,,,,,,,,,,,,,,,,,,,,,,,,,,,,,,,,,,,,,,,,,,,,,,,,,,,,,,,,,,,,,,,,
,,,,,,5,0,5,0,1,X V Q F H G B L J M P D K C T S W R N Z,5e94b58fc7296a0a611f0492,20,Mężczyzna,2022-06-11_09h28.55.775,task,2021.1.4,Linux x86_64,143.8848921,6299f149e92ead563fba08ef,62a44454c9904628c8f1974f,,,,,,,,,,,,,,,,,,,,,,,,,,,,,,,,,,,,,,,,,,,,,,,,,,,,,,,,,,,,,,,,,,,,,,,,,,,,,,,,,,,,,,,,,,,,,,,,,,,,,
,,,,,,,,,,,,5e94b58fc7296a0a611f0492,20,Mężczyzna,2022-06-11_09h28.55.775,task,2021.1.4,Linux x86_64,143.8848921,6299f149e92ead563fba08ef,62a44454c9904628c8f1974f,dxzpsp,"[""d"",""x"",""z"",""p"",""s"",""p""]","[1.4587999999999965,1.6736999999999682,2.1193999999999846,2.63919999999996,2.7581999999999596,2.8516999999999655,3.3276999999999646]",1,DXZPSP,9,0,9,0,1,,,,,,,,,,,,,,,,,,,,,,,,,,,,,,,,,,,,,,,,,,,,,,,,,,,,,,,,,,,,,,,,,,,,,,,,,,,,,,,,,,,,,,,,,,,
,,,,,,0,0,0,0,1,X V Q F H G B L J M P D K C T S W R N Z,5e94b58fc7296a0a611f0492,20,Mężczyzna,2022-06-11_09h28.55.775,task,2021.1.4,Linux x86_64,143.8848921,6299f149e92ead563fba08ef,62a44454c9904628c8f1974f,,,,,,,,,,,,,,,,,,,,,,,,,,,,,,,,,,,,,,,,,,,,,,,,,,,,,,,,,,,,,,,,,,,,,,,,,,,,,,,,,,,,,,,,,,,,,,,,,,,,,
,,,,,,1,0,1,0,1,X V Q F H G B L J M P D K C T S W R N Z,5e94b58fc7296a0a611f0492,20,Mężczyzna,2022-06-11_09h28.55.775,task,2021.1.4,Linux x86_64,143.8848921,6299f149e92ead563fba08ef,62a44454c9904628c8f1974f,,,,,,,,,,,,,,,,,,,,,,,,,,,,,,,,,,,,,,,,,,,,,,,,,,,,,,,,,,,,,,,,,,,,,,,,,,,,,,,,,,,,,,,,,,,,,,,,,,,,,
,,,,,,2,0,2,0,1,X V Q F H G B L J M P D K C T S W R N Z,5e94b58fc7296a0a611f0492,20,Mężczyzna,2022-06-11_09h28.55.775,task,2021.1.4,Linux x86_64,143.8848921,6299f149e92ead563fba08ef,62a44454c9904628c8f1974f,,,,,,,,,,,,,,,,,,,,,,,,,,,,,,,,,,,,,,,,,,,,,,,,,,,,,,,,,,,,,,,,,,,,,,,,,,,,,,,,,,,,,,,,,,,,,,,,,,,,,
,,,,,,3,0,3,0,1,X V Q F H G B L J M P D K C T S W R N Z,5e94b58fc7296a0a611f0492,20,Mężczyzna,2022-06-11_09h28.55.775,task,2021.1.4,Linux x86_64,143.8848921,6299f149e92ead563fba08ef,62a44454c9904628c8f1974f,,,,,,,,,,,,,,,,,,,,,,,,,,,,,,,,,,,,,,,,,,,,,,,,,,,,,,,,,,,,,,,,,,,,,,,,,,,,,,,,,,,,,,,,,,,,,,,,,,,,,
,,,,,,4,0,4,0,1,X V Q F H G B L J M P D K C T S W R N Z,5e94b58fc7296a0a611f0492,20,Mężczyzna,2022-06-11_09h28.55.775,task,2021.1.4,Linux x86_64,143.8848921,6299f149e92ead563fba08ef,62a44454c9904628c8f1974f,,,,,,,,,,,,,,,,,,,,,,,,,,,,,,,,,,,,,,,,,,,,,,,,,,,,,,,,,,,,,,,,,,,,,,,,,,,,,,,,,,,,,,,,,,,,,,,,,,,,,
,,,,,,5,0,5,0,1,X V Q F H G B L J M P D K C T S W R N Z,5e94b58fc7296a0a611f0492,20,Mężczyzna,2022-06-11_09h28.55.775,task,2021.1.4,Linux x86_64,143.8848921,6299f149e92ead563fba08ef,62a44454c9904628c8f1974f,,,,,,,,,,,,,,,,,,,,,,,,,,,,,,,,,,,,,,,,,,,,,,,,,,,,,,,,,,,,,,,,,,,,,,,,,,,,,,,,,,,,,,,,,,,,,,,,,,,,,
,,,,,,6,0,6,0,1,X V Q F H G B L J M P D K C T S W R N Z,5e94b58fc7296a0a611f0492,20,Mężczyzna,2022-06-11_09h28.55.775,task,2021.1.4,Linux x86_64,143.8848921,6299f149e92ead563fba08ef,62a44454c9904628c8f1974f,,,,,,,,,,,,,,,,,,,,,,,,,,,,,,,,,,,,,,,,,,,,,,,,,,,,,,,,,,,,,,,,,,,,,,,,,,,,,,,,,,,,,,,,,,,,,,,,,,,,,
,,,,,,,,,,,,5e94b58fc7296a0a611f0492,20,Mężczyzna,2022-06-11_09h28.55.775,task,2021.1.4,Linux x86_64,143.8848921,6299f149e92ead563fba08ef,62a44454c9904628c8f1974f,qlcvnqv,"[""q"",""l"",""c"",""v"",""n"",""q"",""v""]","[1.213799999999992,1.6007000000000176,1.9689000000000192,2.1771000000000242,2.3644999999999925,3.209799999999973,4.828699999999998,5.296299999999974]",1,QLCVNQV,10,0,10,0,1,,,,,,,,,,,,,,,,,,,,,,,,,,,,,,,,,,,,,,,,,,,,,,,,,,,,,,,,,,,,,,,,,,,,,,,,,,,,,,,,,,,,,,,,,,,
,,,,,,0,0,0,0,1,X V Q F H G B L J M P D K C T S W R N Z,5e94b58fc7296a0a611f0492,20,Mężczyzna,2022-06-11_09h28.55.775,task,2021.1.4,Linux x86_64,143.8848921,6299f149e92ead563fba08ef,62a44454c9904628c8f1974f,,,,,,,,,,,,,,,,,,,,,,,,,,,,,,,,,,,,,,,,,,,,,,,,,,,,,,,,,,,,,,,,,,,,,,,,,,,,,,,,,,,,,,,,,,,,,,,,,,,,,
,,,,,,1,0,1,0,1,X V Q F H G B L J M P D K C T S W R N Z,5e94b58fc7296a0a611f0492,20,Mężczyzna,2022-06-11_09h28.55.775,task,2021.1.4,Linux x86_64,143.8848921,6299f149e92ead563fba08ef,62a44454c9904628c8f1974f,,,,,,,,,,,,,,,,,,,,,,,,,,,,,,,,,,,,,,,,,,,,,,,,,,,,,,,,,,,,,,,,,,,,,,,,,,,,,,,,,,,,,,,,,,,,,,,,,,,,,
,,,,,,2,0,2,0,1,X V Q F H G B L J M P D K C T S W R N Z,5e94b58fc7296a0a611f0492,20,Mężczyzna,2022-06-11_09h28.55.775,task,2021.1.4,Linux x86_64,143.8848921,6299f149e92ead563fba08ef,62a44454c9904628c8f1974f,,,,,,,,,,,,,,,,,,,,,,,,,,,,,,,,,,,,,,,,,,,,,,,,,,,,,,,,,,,,,,,,,,,,,,,,,,,,,,,,,,,,,,,,,,,,,,,,,,,,,
,,,,,,3,0,3,0,1,X V Q F H G B L J M P D K C T S W R N Z,5e94b58fc7296a0a611f0492,20,Mężczyzna,2022-06-11_09h28.55.775,task,2021.1.4,Linux x86_64,143.8848921,6299f149e92ead563fba08ef,62a44454c9904628c8f1974f,,,,,,,,,,,,,,,,,,,,,,,,,,,,,,,,,,,,,,,,,,,,,,,,,,,,,,,,,,,,,,,,,,,,,,,,,,,,,,,,,,,,,,,,,,,,,,,,,,,,,
,,,,,,4,0,4,0,1,X V Q F H G B L J M P D K C T S W R N Z,5e94b58fc7296a0a611f0492,20,Mężczyzna,2022-06-11_09h28.55.775,task,2021.1.4,Linux x86_64,143.8848921,6299f149e92ead563fba08ef,62a44454c9904628c8f1974f,,,,,,,,,,,,,,,,,,,,,,,,,,,,,,,,,,,,,,,,,,,,,,,,,,,,,,,,,,,,,,,,,,,,,,,,,,,,,,,,,,,,,,,,,,,,,,,,,,,,,
,,,,,,5,0,5,0,1,X V Q F H G B L J M P D K C T S W R N Z,5e94b58fc7296a0a611f0492,20,Mężczyzna,2022-06-11_09h28.55.775,task,2021.1.4,Linux x86_64,143.8848921,6299f149e92ead563fba08ef,62a44454c9904628c8f1974f,,,,,,,,,,,,,,,,,,,,,,,,,,,,,,,,,,,,,,,,,,,,,,,,,,,,,,,,,,,,,,,,,,,,,,,,,,,,,,,,,,,,,,,,,,,,,,,,,,,,,
,,,,,,6,0,6,0,1,X V Q F H G B L J M P D K C T S W R N Z,5e94b58fc7296a0a611f0492,20,Mężczyzna,2022-06-11_09h28.55.775,task,2021.1.4,Linux x86_64,143.8848921,6299f149e92ead563fba08ef,62a44454c9904628c8f1974f,,,,,,,,,,,,,,,,,,,,,,,,,,,,,,,,,,,,,,,,,,,,,,,,,,,,,,,,,,,,,,,,,,,,,,,,,,,,,,,,,,,,,,,,,,,,,,,,,,,,,
,,,,,,,,,,,,5e94b58fc7296a0a611f0492,20,Mężczyzna,2022-06-11_09h28.55.775,task,2021.1.4,Linux x86_64,143.8848921,6299f149e92ead563fba08ef,62a44454c9904628c8f1974f,btjxrzf,"[""b"",""t"",""j"",""x"",""r"",""z"",""f""]","[1.3660999999999888,1.7702000000000169,2.6157000000000323,2.9450999999999965,3.3497999999999877,3.6833000000000027,4.4649000000000285,5.3995000000000175]",1,BTJXRZF,11,0,11,0,1,,,,,,,,,,,,,,,,,,,,,,,,,,,,,,,,,,,,,,,,,,,,,,,,,,,,,,,,,,,,,,,,,,,,,,,,,,,,,,,,,,,,,,,,,,,
,,,,,,0,0,0,0,1,X V Q F H G B L J M P D K C T S W R N Z,5e94b58fc7296a0a611f0492,20,Mężczyzna,2022-06-11_09h28.55.775,task,2021.1.4,Linux x86_64,143.8848921,6299f149e92ead563fba08ef,62a44454c9904628c8f1974f,,,,,,,,,,,,,,,,,,,,,,,,,,,,,,,,,,,,,,,,,,,,,,,,,,,,,,,,,,,,,,,,,,,,,,,,,,,,,,,,,,,,,,,,,,,,,,,,,,,,,
,,,,,,1,0,1,0,1,X V Q F H G B L J M P D K C T S W R N Z,5e94b58fc7296a0a611f0492,20,Mężczyzna,2022-06-11_09h28.55.775,task,2021.1.4,Linux x86_64,143.8848921,6299f149e92ead563fba08ef,62a44454c9904628c8f1974f,,,,,,,,,,,,,,,,,,,,,,,,,,,,,,,,,,,,,,,,,,,,,,,,,,,,,,,,,,,,,,,,,,,,,,,,,,,,,,,,,,,,,,,,,,,,,,,,,,,,,
,,,,,,2,0,2,0,1,X V Q F H G B L J M P D K C T S W R N Z,5e94b58fc7296a0a611f0492,20,Mężczyzna,2022-06-11_09h28.55.775,task,2021.1.4,Linux x86_64,143.8848921,6299f149e92ead563fba08ef,62a44454c9904628c8f1974f,,,,,,,,,,,,,,,,,,,,,,,,,,,,,,,,,,,,,,,,,,,,,,,,,,,,,,,,,,,,,,,,,,,,,,,,,,,,,,,,,,,,,,,,,,,,,,,,,,,,,
,,,,,,3,0,3,0,1,X V Q F H G B L J M P D K C T S W R N Z,5e94b58fc7296a0a611f0492,20,Mężczyzna,2022-06-11_09h28.55.775,task,2021.1.4,Linux x86_64,143.8848921,6299f149e92ead563fba08ef,62a44454c9904628c8f1974f,,,,,,,,,,,,,,,,,,,,,,,,,,,,,,,,,,,,,,,,,,,,,,,,,,,,,,,,,,,,,,,,,,,,,,,,,,,,,,,,,,,,,,,,,,,,,,,,,,,,,
,,,,,,4,0,4,0,1,X V Q F H G B L J M P D K C T S W R N Z,5e94b58fc7296a0a611f0492,20,Mężczyzna,2022-06-11_09h28.55.775,task,2021.1.4,Linux x86_64,143.8848921,6299f149e92ead563fba08ef,62a44454c9904628c8f1974f,,,,,,,,,,,,,,,,,,,,,,,,,,,,,,,,,,,,,,,,,,,,,,,,,,,,,,,,,,,,,,,,,,,,,,,,,,,,,,,,,,,,,,,,,,,,,,,,,,,,,
,,,,,,5,0,5,0,1,X V Q F H G B L J M P D K C T S W R N Z,5e94b58fc7296a0a611f0492,20,Mężczyzna,2022-06-11_09h28.55.775,task,2021.1.4,Linux x86_64,143.8848921,6299f149e92ead563fba08ef,62a44454c9904628c8f1974f,,,,,,,,,,,,,,,,,,,,,,,,,,,,,,,,,,,,,,,,,,,,,,,,,,,,,,,,,,,,,,,,,,,,,,,,,,,,,,,,,,,,,,,,,,,,,,,,,,,,,
,,,,,,6,0,6,0,1,X V Q F H G B L J M P D K C T S W R N Z,5e94b58fc7296a0a611f0492,20,Mężczyzna,2022-06-11_09h28.55.775,task,2021.1.4,Linux x86_64,143.8848921,6299f149e92ead563fba08ef,62a44454c9904628c8f1974f,,,,,,,,,,,,,,,,,,,,,,,,,,,,,,,,,,,,,,,,,,,,,,,,,,,,,,,,,,,,,,,,,,,,,,,,,,,,,,,,,,,,,,,,,,,,,,,,,,,,,
,,,,,,7,0,7,0,1,X V Q F H G B L J M P D K C T S W R N Z,5e94b58fc7296a0a611f0492,20,Mężczyzna,2022-06-11_09h28.55.775,task,2021.1.4,Linux x86_64,143.8848921,6299f149e92ead563fba08ef,62a44454c9904628c8f1974f,,,,,,,,,,,,,,,,,,,,,,,,,,,,,,,,,,,,,,,,,,,,,,,,,,,,,,,,,,,,,,,,,,,,,,,,,,,,,,,,,,,,,,,,,,,,,,,,,,,,,
,,,,,,,,,,,,5e94b58fc7296a0a611f0492,20,Mężczyzna,2022-06-11_09h28.55.775,task,2021.1.4,Linux x86_64,143.8848921,6299f149e92ead563fba08ef,62a44454c9904628c8f1974f,jpvgbxz,"[""j"",""p"",""v"",""g"",""b"",""x"",""z""]","[1.8772000000000162,2.1316000000000486,2.6881000000000483,3.0898000000000536,5.062999999999988,5.28460000000004,5.946800000000053,6.361300000000057]",0,JPVGBXZQ,12,0,12,0,1,,,,,,,,,,,,,,,,,,,,,,,,,,,,,,,,,,,,,,,,,,,,,,,,,,,,,,,,,,,,,,,,,,,,,,,,,,,,,,,,,,,,,,,,,,,
,,,,,,0,0,0,0,1,X V Q F H G B L J M P D K C T S W R N Z,5e94b58fc7296a0a611f0492,20,Mężczyzna,2022-06-11_09h28.55.775,task,2021.1.4,Linux x86_64,143.8848921,6299f149e92ead563fba08ef,62a44454c9904628c8f1974f,,,,,,,,,,,,,,,,,,,,,,,,,,,,,,,,,,,,,,,,,,,,,,,,,,,,,,,,,,,,,,,,,,,,,,,,,,,,,,,,,,,,,,,,,,,,,,,,,,,,,
,,,,,,1,0,1,0,1,X V Q F H G B L J M P D K C T S W R N Z,5e94b58fc7296a0a611f0492,20,Mężczyzna,2022-06-11_09h28.55.775,task,2021.1.4,Linux x86_64,143.8848921,6299f149e92ead563fba08ef,62a44454c9904628c8f1974f,,,,,,,,,,,,,,,,,,,,,,,,,,,,,,,,,,,,,,,,,,,,,,,,,,,,,,,,,,,,,,,,,,,,,,,,,,,,,,,,,,,,,,,,,,,,,,,,,,,,,
,,,,,,2,0,2,0,1,X V Q F H G B L J M P D K C T S W R N Z,5e94b58fc7296a0a611f0492,20,Mężczyzna,2022-06-11_09h28.55.775,task,2021.1.4,Linux x86_64,143.8848921,6299f149e92ead563fba08ef,62a44454c9904628c8f1974f,,,,,,,,,,,,,,,,,,,,,,,,,,,,,,,,,,,,,,,,,,,,,,,,,,,,,,,,,,,,,,,,,,,,,,,,,,,,,,,,,,,,,,,,,,,,,,,,,,,,,
,,,,,,3,0,3,0,1,X V Q F H G B L J M P D K C T S W R N Z,5e94b58fc7296a0a611f0492,20,Mężczyzna,2022-06-11_09h28.55.775,task,2021.1.4,Linux x86_64,143.8848921,6299f149e92ead563fba08ef,62a44454c9904628c8f1974f,,,,,,,,,,,,,,,,,,,,,,,,,,,,,,,,,,,,,,,,,,,,,,,,,,,,,,,,,,,,,,,,,,,,,,,,,,,,,,,,,,,,,,,,,,,,,,,,,,,,,
,,,,,,4,0,4,0,1,X V Q F H G B L J M P D K C T S W R N Z,5e94b58fc7296a0a611f0492,20,Mężczyzna,2022-06-11_09h28.55.775,task,2021.1.4,Linux x86_64,143.8848921,6299f149e92ead563fba08ef,62a44454c9904628c8f1974f,,,,,,,,,,,,,,,,,,,,,,,,,,,,,,,,,,,,,,,,,,,,,,,,,,,,,,,,,,,,,,,,,,,,,,,,,,,,,,,,,,,,,,,,,,,,,,,,,,,,,
,,,,,,5,0,5,0,1,X V Q F H G B L J M P D K C T S W R N Z,5e94b58fc7296a0a611f0492,20,Mężczyzna,2022-06-11_09h28.55.775,task,2021.1.4,Linux x86_64,143.8848921,6299f149e92ead563fba08ef,62a44454c9904628c8f1974f,,,,,,,,,,,,,,,,,,,,,,,,,,,,,,,,,,,,,,,,,,,,,,,,,,,,,,,,,,,,,,,,,,,,,,,,,,,,,,,,,,,,,,,,,,,,,,,,,,,,,
,,,,,,6,0,6,0,1,X V Q F H G B L J M P D K C T S W R N Z,5e94b58fc7296a0a611f0492,20,Mężczyzna,2022-06-11_09h28.55.775,task,2021.1.4,Linux x86_64,143.8848921,6299f149e92ead563fba08ef,62a44454c9904628c8f1974f,,,,,,,,,,,,,,,,,,,,,,,,,,,,,,,,,,,,,,,,,,,,,,,,,,,,,,,,,,,,,,,,,,,,,,,,,,,,,,,,,,,,,,,,,,,,,,,,,,,,,
,,,,,,7,0,7,0,1,X V Q F H G B L J M P D K C T S W R N Z,5e94b58fc7296a0a611f0492,20,Mężczyzna,2022-06-11_09h28.55.775,task,2021.1.4,Linux x86_64,143.8848921,6299f149e92ead563fba08ef,62a44454c9904628c8f1974f,,,,,,,,,,,,,,,,,,,,,,,,,,,,,,,,,,,,,,,,,,,,,,,,,,,,,,,,,,,,,,,,,,,,,,,,,,,,,,,,,,,,,,,,,,,,,,,,,,,,,
,,,,,,,,,,,,5e94b58fc7296a0a611f0492,20,Mężczyzna,2022-06-11_09h28.55.775,task,2021.1.4,Linux x86_64,143.8848921,6299f149e92ead563fba08ef,62a44454c9904628c8f1974f,bcjxplkn,"[""b"",""c"",""j"",""x"",""p"",""l"",""k"",""n""]","[1.6626999999999157,2.438099999999963,2.5563999999999396,3.115099999999927,3.4395999999999276,3.590699999999913,4.370499999999993,4.542099999999948,4.8566999999999325]",1,BCJXPLKN,13,0,13,0,1,,,,,,,,,,,,,,,,,,,,,,,,,,,,,,,,,,,,,,,,,,,,,,,,,,,,,,,,,,,,,,,,,,,,,,,,,,,,,,,,,,,,,,,,,,,
,,,,,,0,0,0,0,1,X V Q F H G B L J M P D K C T S W R N Z,5e94b58fc7296a0a611f0492,20,Mężczyzna,2022-06-11_09h28.55.775,task,2021.1.4,Linux x86_64,143.8848921,6299f149e92ead563fba08ef,62a44454c9904628c8f1974f,,,,,,,,,,,,,,,,,,,,,,,,,,,,,,,,,,,,,,,,,,,,,,,,,,,,,,,,,,,,,,,,,,,,,,,,,,,,,,,,,,,,,,,,,,,,,,,,,,,,,
,,,,,,1,0,1,0,1,X V Q F H G B L J M P D K C T S W R N Z,5e94b58fc7296a0a611f0492,20,Mężczyzna,2022-06-11_09h28.55.775,task,2021.1.4,Linux x86_64,143.8848921,6299f149e92ead563fba08ef,62a44454c9904628c8f1974f,,,,,,,,,,,,,,,,,,,,,,,,,,,,,,,,,,,,,,,,,,,,,,,,,,,,,,,,,,,,,,,,,,,,,,,,,,,,,,,,,,,,,,,,,,,,,,,,,,,,,
,,,,,,2,0,2,0,1,X V Q F H G B L J M P D K C T S W R N Z,5e94b58fc7296a0a611f0492,20,Mężczyzna,2022-06-11_09h28.55.775,task,2021.1.4,Linux x86_64,143.8848921,6299f149e92ead563fba08ef,62a44454c9904628c8f1974f,,,,,,,,,,,,,,,,,,,,,,,,,,,,,,,,,,,,,,,,,,,,,,,,,,,,,,,,,,,,,,,,,,,,,,,,,,,,,,,,,,,,,,,,,,,,,,,,,,,,,
,,,,,,3,0,3,0,1,X V Q F H G B L J M P D K C T S W R N Z,5e94b58fc7296a0a611f0492,20,Mężczyzna,2022-06-11_09h28.55.775,task,2021.1.4,Linux x86_64,143.8848921,6299f149e92ead563fba08ef,62a44454c9904628c8f1974f,,,,,,,,,,,,,,,,,,,,,,,,,,,,,,,,,,,,,,,,,,,,,,,,,,,,,,,,,,,,,,,,,,,,,,,,,,,,,,,,,,,,,,,,,,,,,,,,,,,,,
,,,,,,4,0,4,0,1,X V Q F H G B L J M P D K C T S W R N Z,5e94b58fc7296a0a611f0492,20,Mężczyzna,2022-06-11_09h28.55.775,task,2021.1.4,Linux x86_64,143.8848921,6299f149e92ead563fba08ef,62a44454c9904628c8f1974f,,,,,,,,,,,,,,,,,,,,,,,,,,,,,,,,,,,,,,,,,,,,,,,,,,,,,,,,,,,,,,,,,,,,,,,,,,,,,,,,,,,,,,,,,,,,,,,,,,,,,
,,,,,,5,0,5,0,1,X V Q F H G B L J M P D K C T S W R N Z,5e94b58fc7296a0a611f0492,20,Mężczyzna,2022-06-11_09h28.55.775,task,2021.1.4,Linux x86_64,143.8848921,6299f149e92ead563fba08ef,62a44454c9904628c8f1974f,,,,,,,,,,,,,,,,,,,,,,,,,,,,,,,,,,,,,,,,,,,,,,,,,,,,,,,,,,,,,,,,,,,,,,,,,,,,,,,,,,,,,,,,,,,,,,,,,,,,,
,,,,,,6,0,6,0,1,X V Q F H G B L J M P D K C T S W R N Z,5e94b58fc7296a0a611f0492,20,Mężczyzna,2022-06-11_09h28.55.775,task,2021.1.4,Linux x86_64,143.8848921,6299f149e92ead563fba08ef,62a44454c9904628c8f1974f,,,,,,,,,,,,,,,,,,,,,,,,,,,,,,,,,,,,,,,,,,,,,,,,,,,,,,,,,,,,,,,,,,,,,,,,,,,,,,,,,,,,,,,,,,,,,,,,,,,,,
,,,,,,7,0,7,0,1,X V Q F H G B L J M P D K C T S W R N Z,5e94b58fc7296a0a611f0492,20,Mężczyzna,2022-06-11_09h28.55.775,task,2021.1.4,Linux x86_64,143.8848921,6299f149e92ead563fba08ef,62a44454c9904628c8f1974f,,,,,,,,,,,,,,,,,,,,,,,,,,,,,,,,,,,,,,,,,,,,,,,,,,,,,,,,,,,,,,,,,,,,,,,,,,,,,,,,,,,,,,,,,,,,,,,,,,,,,
,,,,,,,,,,,,5e94b58fc7296a0a611f0492,20,Mężczyzna,2022-06-11_09h28.55.775,task,2021.1.4,Linux x86_64,143.8848921,6299f149e92ead563fba08ef,62a44454c9904628c8f1974f,hxtdvxvt,"[""h"",""x"",""t"",""d"",""v"",""x"",""v"",""t""]","[1.9355999999999653,2.072499999999991,2.90259999999995,3.347599999999943,3.6802999999999884,4.016099999999938,4.882999999999981,5.069099999999935,5.208099999999945]",0,VXTDHXVP,14,0,14,0,1,,,,,,,,,,,,,,,,,,,,,,,,,,,,,,,,,,,,,,,,,,,,,,,,,,,,,,,,,,,,,,,,,,,,,,,,,,,,,,,,,,,,,,,,,,,
,,,,,,0,0,0,0,1,X V Q F H G B L J M P D K C T S W R N Z,5e94b58fc7296a0a611f0492,20,Mężczyzna,2022-06-11_09h28.55.775,task,2021.1.4,Linux x86_64,143.8848921,6299f149e92ead563fba08ef,62a44454c9904628c8f1974f,,,,,,,,,,,,,,,,,,,,,,,,,,,,,,,,,,,,,,,,,,,,,,,,,,,,,,,,,,,,,,,,,,,,,,,,,,,,,,,,,,,,,,,,,,,,,,,,,,,,,
,,,,,,1,0,1,0,1,X V Q F H G B L J M P D K C T S W R N Z,5e94b58fc7296a0a611f0492,20,Mężczyzna,2022-06-11_09h28.55.775,task,2021.1.4,Linux x86_64,143.8848921,6299f149e92ead563fba08ef,62a44454c9904628c8f1974f,,,,,,,,,,,,,,,,,,,,,,,,,,,,,,,,,,,,,,,,,,,,,,,,,,,,,,,,,,,,,,,,,,,,,,,,,,,,,,,,,,,,,,,,,,,,,,,,,,,,,
,,,,,,2,0,2,0,1,X V Q F H G B L J M P D K C T S W R N Z,5e94b58fc7296a0a611f0492,20,Mężczyzna,2022-06-11_09h28.55.775,task,2021.1.4,Linux x86_64,143.8848921,6299f149e92ead563fba08ef,62a44454c9904628c8f1974f,,,,,,,,,,,,,,,,,,,,,,,,,,,,,,,,,,,,,,,,,,,,,,,,,,,,,,,,,,,,,,,,,,,,,,,,,,,,,,,,,,,,,,,,,,,,,,,,,,,,,
,,,,,,3,0,3,0,1,X V Q F H G B L J M P D K C T S W R N Z,5e94b58fc7296a0a611f0492,20,Mężczyzna,2022-06-11_09h28.55.775,task,2021.1.4,Linux x86_64,143.8848921,6299f149e92ead563fba08ef,62a44454c9904628c8f1974f,,,,,,,,,,,,,,,,,,,,,,,,,,,,,,,,,,,,,,,,,,,,,,,,,,,,,,,,,,,,,,,,,,,,,,,,,,,,,,,,,,,,,,,,,,,,,,,,,,,,,
,,,,,,4,0,4,0,1,X V Q F H G B L J M P D K C T S W R N Z,5e94b58fc7296a0a611f0492,20,Mężczyzna,2022-06-11_09h28.55.775,task,2021.1.4,Linux x86_64,143.8848921,6299f149e92ead563fba08ef,62a44454c9904628c8f1974f,,,,,,,,,,,,,,,,,,,,,,,,,,,,,,,,,,,,,,,,,,,,,,,,,,,,,,,,,,,,,,,,,,,,,,,,,,,,,,,,,,,,,,,,,,,,,,,,,,,,,
,,,,,,5,0,5,0,1,X V Q F H G B L J M P D K C T S W R N Z,5e94b58fc7296a0a611f0492,20,Mężczyzna,2022-06-11_09h28.55.775,task,2021.1.4,Linux x86_64,143.8848921,6299f149e92ead563fba08ef,62a44454c9904628c8f1974f,,,,,,,,,,,,,,,,,,,,,,,,,,,,,,,,,,,,,,,,,,,,,,,,,,,,,,,,,,,,,,,,,,,,,,,,,,,,,,,,,,,,,,,,,,,,,,,,,,,,,
,,,,,,6,0,6,0,1,X V Q F H G B L J M P D K C T S W R N Z,5e94b58fc7296a0a611f0492,20,Mężczyzna,2022-06-11_09h28.55.775,task,2021.1.4,Linux x86_64,143.8848921,6299f149e92ead563fba08ef,62a44454c9904628c8f1974f,,,,,,,,,,,,,,,,,,,,,,,,,,,,,,,,,,,,,,,,,,,,,,,,,,,,,,,,,,,,,,,,,,,,,,,,,,,,,,,,,,,,,,,,,,,,,,,,,,,,,
,,,,,,7,0,7,0,1,X V Q F H G B L J M P D K C T S W R N Z,5e94b58fc7296a0a611f0492,20,Mężczyzna,2022-06-11_09h28.55.775,task,2021.1.4,Linux x86_64,143.8848921,6299f149e92ead563fba08ef,62a44454c9904628c8f1974f,,,,,,,,,,,,,,,,,,,,,,,,,,,,,,,,,,,,,,,,,,,,,,,,,,,,,,,,,,,,,,,,,,,,,,,,,,,,,,,,,,,,,,,,,,,,,,,,,,,,,
,,,,,,,,,,,,5e94b58fc7296a0a611f0492,20,Mężczyzna,2022-06-11_09h28.55.775,task,2021.1.4,Linux x86_64,143.8848921,6299f149e92ead563fba08ef,62a44454c9904628c8f1974f,jwzbg,"[""j"",""w"",""z"",""b"",""g""]","[2.972599999999943,3.377400000000023,3.833099999999945,4.413599999999974,4.6667999999999665,5.2024000000000115]",0,JWZBDGCJ,15,0,15,0,1,,,,,,,,,,,,,,,,,,,,,,,,,,,,,,,,,,,,,,,,,,,,,,,,,,,,,,,,,,,,,,,,,,,,,,,,,,,,,,,,,,,,,,,,,,,
,,,,,,,,,,,,5e94b58fc7296a0a611f0492,20,Mężczyzna,2022-06-11_09h28.55.775,task,2021.1.4,Linux x86_64,143.8848921,6299f149e92ead563fba08ef,62a44454c9904628c8f1974f,,,,,,,,,,,space,159.4931,4,"[""4""]",1,[3.8057000000000585],[3.8057000000000585],0,0,0,4,1,Practice,5,(2x6) - 8,4,,,,,,,,,,,,,,,,,,,,,,,,,,,,,,,,,,,,,,,,,,,,,,,,,,,,,,,,,,,,,,,,,,,,,,,,,,,
,,,,,,,,,,,,5e94b58fc7296a0a611f0492,20,Mężczyzna,2022-06-11_09h28.55.775,task,2021.1.4,Linux x86_64,143.8848921,6299f149e92ead563fba08ef,62a44454c9904628c8f1974f,,,,,,,,,,,,,8,"[""8""]",1,[1.9743999999998891],"[3.8057000000000585,1.9743999999998891]",0,1,1,8,1,Practice,9,(3x3) - 1,8,,,,,,,,,,,,,,,,,,,,,,,,,,,,,,,,,,,,,,,,,,,,,,,,,,,,,,,,,,,,,,,,,,,,,,,,,,,
,,,,,,,,,,,,5e94b58fc7296a0a611f0492,20,Mężczyzna,2022-06-11_09h28.55.775,task,2021.1.4,Linux x86_64,143.8848921,6299f149e92ead563fba08ef,62a44454c9904628c8f1974f,,,,,,,,,,,,,3,"[""3""]",1,[2.035500000000013],"[3.8057000000000585,1.9743999999998891,2.035500000000013]",0,2,2,3,1,Practice,4,(8/4) + 1,3,,,,,,,,,,,,,,,,,,,,,,,,,,,,,,,,,,,,,,,,,,,,,,,,,,,,,,,,,,,,,,,,,,,,,,,,,,,
,,,,,,,,,,,,5e94b58fc7296a0a611f0492,20,Mężczyzna,2022-06-11_09h28.55.775,task,2021.1.4,Linux x86_64,143.8848921,6299f149e92ead563fba08ef,62a44454c9904628c8f1974f,,,,,,,,,,,,,7,"[""7""]",1,[3.051599999999951],"[3.8057000000000585,1.9743999999998891,2.035500000000013,3.051599999999951]",0,3,3,7,1,Practice,8,(5x5) - 18,7,,,,,,,,,,,,,,,,,,,,,,,,,,,,,,,,,,,,,,,,,,,,,,,,,,,,,,,,,,,,,,,,,,,,,,,,,,,
,,,,,,,,,,,,5e94b58fc7296a0a611f0492,20,Mężczyzna,2022-06-11_09h28.55.775,task,2021.1.4,Linux x86_64,143.8848921,6299f149e92ead563fba08ef,62a44454c9904628c8f1974f,,,,,,,,,,,,,1,"[""1""]",1,[1.8484000000000265],"[3.8057000000000585,1.9743999999998891,2.035500000000013,3.051599999999951,1.8484000000000265]",0,4,4,1,1,Practice,2,(4x4) - 15,1,,,,,,,,,,,,,,,,,,,,,,,,,,,,,,,,,,,,,,,,,,,,,,,,,,,,,,,,,,,,,,,,,,,,,,,,,,,
,,,,,,,,,,,,5e94b58fc7296a0a611f0492,20,Mężczyzna,2022-06-11_09h28.55.775,task,2021.1.4,Linux x86_64,143.8848921,6299f149e92ead563fba08ef,62a44454c9904628c8f1974f,,,,,,,,,,,,,5,"[""5""]",1,[1.83359999999999],"[3.8057000000000585,1.9743999999998891,2.035500000000013,3.051599999999951,1.8484000000000265,1.83359999999999]",0,5,5,5,1,Practice,6,(4/2) + 3,5,,,,,,,,,,,,,,,,,,,,,,,,,,,,,,,,,,,,,,,,,,,,,,,,,,,,,,,,,,,,,,,,,,,,,,,,,,,
,,,,,,,,,,,,5e94b58fc7296a0a611f0492,20,Mężczyzna,2022-06-11_09h28.55.775,task,2021.1.4,Linux x86_64,143.8848921,6299f149e92ead563fba08ef,62a44454c9904628c8f1974f,,,,,,,,,,,,,2,"[""2""]",1,[1.8845000000000027],"[3.8057000000000585,1.9743999999998891,2.035500000000013,3.051599999999951,1.8484000000000265,1.83359999999999,1.8845000000000027]",0,6,6,2,1,Practice,3,(4x4) - 14,2,,,,,,,,,,,,,,,,,,,,,,,,,,,,,,,,,,,,,,,,,,,,,,,,,,,,,,,,,,,,,,,,,,,,,,,,,,,
,,,,,,,,,,,,5e94b58fc7296a0a611f0492,20,Mężczyzna,2022-06-11_09h28.55.775,task,2021.1.4,Linux x86_64,143.8848921,6299f149e92ead563fba08ef,62a44454c9904628c8f1974f,,,,,,,,,,,,,6,"[""6""]",1,[1.9740999999999644],"[3.8057000000000585,1.9743999999998891,2.035500000000013,3.051599999999951,1.8484000000000265,1.83359999999999,1.8845000000000027,1.9740999999999644]",0,7,7,6,1,Practice,7,(25/5) + 1,6,,,,,,,,,,,,,,,,,,,,,,,,,,,,,,,,,,,,,,,,,,,,,,,,,,,,,,,,,,,,,,,,,,,,,,,,,,,
,,,,,,,,,,,,5e94b58fc7296a0a611f0492,20,Mężczyzna,2022-06-11_09h28.55.775,task,2021.1.4,Linux x86_64,143.8848921,6299f149e92ead563fba08ef,62a44454c9904628c8f1974f,,,,,,,,,,,,,0,"[""0""]",1,[1.7653000000000247],"[3.8057000000000585,1.9743999999998891,2.035500000000013,3.051599999999951,1.8484000000000265,1.83359999999999,1.8845000000000027,1.9740999999999644,1.7653000000000247]",0,8,8,0,1,Practice,1,(3x3) -  9,0,,,,,,,,,,,,,,,,,,,,,,,,,,,,,,,,,,,,,,,,,,,,,,,,,,,,,,,,,,,,,,,,,,,,,,,,,,,
,,,,,,,,,,,,5e94b58fc7296a0a611f0492,20,Mężczyzna,2022-06-11_09h28.55.775,task,2021.1.4,Linux x86_64,143.8848921,6299f149e92ead563fba08ef,62a44454c9904628c8f1974f,,,,,,,,,,,,,9,"[""9""]",1,[1.980600000000095],"[3.8057000000000585,1.9743999999998891,2.035500000000013,3.051599999999951,1.8484000000000265,1.83359999999999,1.8845000000000027,1.9740999999999644,1.7653000000000247,1.980600000000095]",0,9,9,9,1,Practice,10,(20/2) - 1,9,,,,,,,,,,,,,,,,,,,,,,,,,,,,,,,,,,,,,,,,,,,,,,,,,,,,,,,,,,,,,,,,,,,,,,,,,,,
,,,,,,,,,,,,5e94b58fc7296a0a611f0492,20,Mężczyzna,2022-06-11_09h28.55.775,task,2021.1.4,Linux x86_64,143.8848921,6299f149e92ead563fba08ef,62a44454c9904628c8f1974f,,,,,,,,,,,,,,,,,,,,,,,,,,,1,22.1537,1.476913333,9.477813806,0.794892605,3.527736255,space,1.4566,0,0,0,0,1,,,,,,,,,,,,,,,,,,,,,,,,,,,,,,,,,,,,,,,,,,,,,,,,,,,,,,,,,,,,,,
,,,,,,,,,,,,5e94b58fc7296a0a611f0492,20,Mężczyzna,2022-06-11_09h28.55.775,task,2021.1.4,Linux x86_64,143.8848921,6299f149e92ead563fba08ef,62a44454c9904628c8f1974f,,,,,,,,,,,,,,,,,,,,,,,Practice,6,(4/2) + 3,5,,,,,,,,,,,,,,space,152.4669,,0,0,0,0,0,5,1,,,,,,,,,,,,,,,,,,,,,,,,,,,,,,,,,,,,,,,,,,,,,,,,,,,,
,,,,,,,,,,,,5e94b58fc7296a0a611f0492,20,Mężczyzna,2022-06-11_09h28.55.775,task,2021.1.4,Linux x86_64,143.8848921,6299f149e92ead563fba08ef,62a44454c9904628c8f1974f,,,,,,,,,,,,,9,,,,,,,,,,Practice,10,(20/2) - 1,9,,,,,,,,,,,,,,,,"[""9""]",1,1,0,1,1,9,1,[2.4638000000001057],,,,,,,,,,,,,,,,,,,,,,,,,,,,,,,,,,,,,,,,,,,,,,,,,,,
,,,,,,,,,,,X V Q F H G B L J M P D K C T S W R N Z,5e94b58fc7296a0a611f0492,20,Mężczyzna,2022-06-11_09h28.55.775,task,2021.1.4,Linux x86_64,143.8848921,6299f149e92ead563fba08ef,62a44454c9904628c8f1974f,,,,,,,,,,,,,,,,,,,,,,,,,,,,,,,,,,,,,,,,,,,,,,,,,,,0,0,0,0,1,,,,,,,,,,,,,,,,,,,,,,,,,,,,,,,,,,,,,,,,,,,,,,
,,,,,,,,,,,,5e94b58fc7296a0a611f0492,20,Mężczyzna,2022-06-11_09h28.55.775,task,2021.1.4,Linux x86_64,143.8848921,6299f149e92ead563fba08ef,62a44454c9904628c8f1974f,,,,,,,,,,,,,1,,,,,,,,,,Practice,2,(4x4) - 15,1,,,,,,,,,,,,,,,,"[""1""]",1,1,0,0,0,1,1,[1.4975000000000591],,,,,,,,,,,,,,,,,,,,,,,,,,,,,,,,,,,,,,,,,,,,,,,,,,,
,,,,,,,,,,,X V Q F H G B L J M P D K C T S W R N Z,5e94b58fc7296a0a611f0492,20,Mężczyzna,2022-06-11_09h28.55.775,task,2021.1.4,Linux x86_64,143.8848921,6299f149e92ead563fba08ef,62a44454c9904628c8f1974f,,,,,,,,,,,,,,,,,,,,,,,,,,,,,,,,,,,,,,,,,,,,,,,,,,,1,0,1,0,1,,,,,,,,,,,,,,,,,,,,,,,,,,,,,,,,,,,,,,,,,,,,,,
,,,,,,,,,,,,5e94b58fc7296a0a611f0492,20,Mężczyzna,2022-06-11_09h28.55.775,task,2021.1.4,Linux x86_64,143.8848921,6299f149e92ead563fba08ef,62a44454c9904628c8f1974f,,,,,,,,,,,,,,,,,,,,,,,,,,,,,,,,,,,,,,,,,,,,,,,,,,,,,,,,zl,"[""z"",""l""]",0,"[1.8834000000000515,1.9886000000001332,3.3023000000000593]",1,0,0,0,0,1,,,,,,,,,,,,,,,,,,,,,,,,,,,,,,,,,,,,
,,,,,,,,,,,,5e94b58fc7296a0a611f0492,20,Mężczyzna,2022-06-11_09h28.55.775,task,2021.1.4,Linux x86_64,143.8848921,6299f149e92ead563fba08ef,62a44454c9904628c8f1974f,,,,,,,,,,,,,0,,,,,,,,,,Practice,1,(3x3) -  9,0,,,,,,,,,,,,,,,,"[""0""]",1,1,0,0,0,0,1,[1.6434000000000424],,,,,,,,,,,,,,,,,,,,,,,,,,,,,,,,,,,,,,,,,,,,,,,,,,,
,,,,,,,,,,,X V Q F H G B L J M P D K C T S W R N Z,5e94b58fc7296a0a611f0492,20,Mężczyzna,2022-06-11_09h28.55.775,task,2021.1.4,Linux x86_64,143.8848921,6299f149e92ead563fba08ef,62a44454c9904628c8f1974f,,,,,,,,,,,,,,,,,,,,,,,,,,,,,,,,,,,,,,,,,,,,,,,,,,,0,0,0,0,1,,,,,,,,,,,,,,,,,,,,,,,,,,,,,,,,,,,,,,,,,,,,,,
,,,,,,,,,,,,5e94b58fc7296a0a611f0492,20,Mężczyzna,2022-06-11_09h28.55.775,task,2021.1.4,Linux x86_64,143.8848921,6299f149e92ead563fba08ef,62a44454c9904628c8f1974f,,,,,,,,,,,,,2,,,,,,,,,,Practice,3,(4x4) - 14,2,,,,,,,,,,,,,,,,"[""2""]",1,1,0,0,0,2,1,[2.9693999999999505],,,,,,,,,,,,,,,,,,,,,,,,,,,,,,,,,,,,,,,,,,,,,,,,,,,
,,,,,,,,,,,X V Q F H G B L J M P D K C T S W R N Z,5e94b58fc7296a0a611f0492,20,Mężczyzna,2022-06-11_09h28.55.775,task,2021.1.4,Linux x86_64,143.8848921,6299f149e92ead563fba08ef,62a44454c9904628c8f1974f,,,,,,,,,,,,,,,,,,,,,,,,,,,,,,,,,,,,,,,,,,,,,,,,,,,1,0,1,0,1,,,,,,,,,,,,,,,,,,,,,,,,,,,,,,,,,,,,,,,,,,,,,,
,,,,,,,,,,,,5e94b58fc7296a0a611f0492,20,Mężczyzna,2022-06-11_09h28.55.775,task,2021.1.4,Linux x86_64,143.8848921,6299f149e92ead563fba08ef,62a44454c9904628c8f1974f,,,,,,,,,,,,,,,,,,,,,,,,,,,,,,,,,,,,,,,,,,,,,,,,,,,,,,,,nf,"[""n"",""f""]",0,"[1.6949999999999363,1.907100000000014,2.0692000000000235]",1,1,0,1,0,1,,,,,,,,,,,,,,,,,,,,,,,,,,,,,,,,,,,,
,,,,,,,,,,,,5e94b58fc7296a0a611f0492,20,Mężczyzna,2022-06-11_09h28.55.775,task,2021.1.4,Linux x86_64,143.8848921,6299f149e92ead563fba08ef,62a44454c9904628c8f1974f,,,,,,,,,,,,,9,,,,,,,,,,Practice,10,(20/2) - 1,9,,,,,,,,,,,,,,,,"[""9""]",1,1,0,0,0,9,1,[1.3447000000001026],,,,,,,,,,,,,,,,,,,,,,,,,,,,,,,,,,,,,,,,,,,,,,,,,,,
,,,,,,,,,,,X V Q F H G B L J M P D K C T S W R N Z,5e94b58fc7296a0a611f0492,20,Mężczyzna,2022-06-11_09h28.55.775,task,2021.1.4,Linux x86_64,143.8848921,6299f149e92ead563fba08ef,62a44454c9904628c8f1974f,,,,,,,,,,,,,,,,,,,,,,,,,,,,,,,,,,,,,,,,,,,,,,,,,,,0,0,0,0,1,,,,,,,,,,,,,,,,,,,,,,,,,,,,,,,,,,,,,,,,,,,,,,
,,,,,,,,,,,,5e94b58fc7296a0a611f0492,20,Mężczyzna,2022-06-11_09h28.55.775,task,2021.1.4,Linux x86_64,143.8848921,6299f149e92ead563fba08ef,62a44454c9904628c8f1974f,,,,,,,,,,,,,5,,,,,,,,,,Practice,6,(4/2) + 3,5,,,,,,,,,,,,,,,,"[""5""]",1,1,0,0,0,5,1,[2.71429999999998],,,,,,,,,,,,,,,,,,,,,,,,,,,,,,,,,,,,,,,,,,,,,,,,,,,
,,,,,,,,,,,X V Q F H G B L J M P D K C T S W R N Z,5e94b58fc7296a0a611f0492,20,Mężczyzna,2022-06-11_09h28.55.775,task,2021.1.4,Linux x86_64,143.8848921,6299f149e92ead563fba08ef,62a44454c9904628c8f1974f,,,,,,,,,,,,,,,,,,,,,,,,,,,,,,,,,,,,,,,,,,,,,,,,,,,1,0,1,0,1,,,,,,,,,,,,,,,,,,,,,,,,,,,,,,,,,,,,,,,,,,,,,,
,,,,,,,,,,,,5e94b58fc7296a0a611f0492,20,Mężczyzna,2022-06-11_09h28.55.775,task,2021.1.4,Linux x86_64,143.8848921,6299f149e92ead563fba08ef,62a44454c9904628c8f1974f,,,,,,,,,,,,,,,,,,,,,,,,,,,,,,,,,,,,,,,,,,,,,,,,,,,,,,,,lg,"[""l"",""g""]",0,"[1.909599999999955,2.014099999999985,2.135599999999954]",1,2,0,2,0,1,,,,,,,,,,,,,,,,,,,,,,,,,,,,,,,,,,,,
,,,,,,,,,,,,5e94b58fc7296a0a611f0492,20,Mężczyzna,2022-06-11_09h28.55.775,task,2021.1.4,Linux x86_64,143.8848921,6299f149e92ead563fba08ef,62a44454c9904628c8f1974f,,,,,,,,,,,,,8,,,,,,,,,,Task,23,(2x3) + 2,8,,,,,,,,,,,,,,,,,,1,,,,,,,,,,,,,,,,,,,,,,space,20.9585,"[""8""]",1,[2.807900000000018],0,0,0,22,1,,,,,,,,,,,,,,,,,,,,,,,,,,
,,,,,,,,,,,X V Q F H G B L J M P D K C T S W R N Z,5e94b58fc7296a0a611f0492,20,Mężczyzna,2022-06-11_09h28.55.775,task,2021.1.4,Linux x86_64,143.8848921,6299f149e92ead563fba08ef,62a44454c9904628c8f1974f,,,,,,,,,,,,,,,,,,,,,,,,,,,,,,,,,,,,,,,,,,,,,,,,,,,,,,,,,,,,,,,,,,,,,,,,,,,,0,0,0,0,1,,,,,,,,,,,,,,,,,,,,,
,,,,,,,,,,,,5e94b58fc7296a0a611f0492,20,Mężczyzna,2022-06-11_09h28.55.775,task,2021.1.4,Linux x86_64,143.8848921,6299f149e92ead563fba08ef,62a44454c9904628c8f1974f,,,,,,,,,,,,,5,,,,,,,,,,Task,1,(12/6) - 1,1,,,,,,,,,,,,,,,,,,0,,,,,,,,,,,,,,,,,,,,,,,,"[""5""]",0,[1.8255000000000337],0,0,0,0,1,,,,,,,,,,,,,,,,,,,,,,,,,,
,,,,,,,,,,,,5e94b58fc7296a0a611f0492,20,Mężczyzna,2022-06-11_09h28.55.775,task,2021.1.4,Linux x86_64,143.8848921,6299f149e92ead563fba08ef,62a44454c9904628c8f1974f,,,,,,,,,,,,,,,,,,,,,,,Task,9,(3x7) - 20,1,,,,,,,,,,,,,,,,,,0,,,,,,,,,,,,,,,,,,,,,,,,,0,,0,1,1,8,1,,,,,,,,,,,,,,,,,,,,,,,,,,
,,,,,,,,,,,,5e94b58fc7296a0a611f0492,20,Mężczyzna,2022-06-11_09h28.55.775,task,2021.1.4,Linux x86_64,143.8848921,6299f149e92ead563fba08ef,62a44454c9904628c8f1974f,,,,,,,,,,,,,0,,,,,,,,,,Task,33,(1/1) - 1,0,,,,,,,,,,,,,,,,,,1,,,,,,,,,,,,,,,,,,,,,,,,"[""0""]",1,[1.783900000000017],0,2,2,32,1,,,,,,,,,,,,,,,,,,,,,,,,,,
,,,,,,,,,,,X V Q F H G B L J M P D K C T S W R N Z,5e94b58fc7296a0a611f0492,20,Mężczyzna,2022-06-11_09h28.55.775,task,2021.1.4,Linux x86_64,143.8848921,6299f149e92ead563fba08ef,62a44454c9904628c8f1974f,,,,,,,,,,,,,,,,,,,,,,,,,,,,,,,,,,,,,,,,,,,,,,,,,,,,,,,,,,,,,,,,,,,,,,,,,,,,1,0,1,0,1,,,,,,,,,,,,,,,,,,,,,
,,,,,,,,,,,,5e94b58fc7296a0a611f0492,20,Mężczyzna,2022-06-11_09h28.55.775,task,2021.1.4,Linux x86_64,143.8848921,6299f149e92ead563fba08ef,62a44454c9904628c8f1974f,,,,,,,,,,,,,,,,,,,,,,,,,,,,,,,,,,,,,,,,,,,,,,,,,,,,,,,,,,,,,,,,,,,,,,,,,,,,,,,,,zz,"[""z"",""z""]",0,"[1.3982999999999493,1.5276000000000067,1.862299999999891]",1,ZZ,0,0,0,0,1,,,,,,,,,,
,,,,,,,,,,,,5e94b58fc7296a0a611f0492,20,Mężczyzna,2022-06-11_09h28.55.775,task,2021.1.4,Linux x86_64,143.8848921,6299f149e92ead563fba08ef,62a44454c9904628c8f1974f,,,,,,,,,,,,,,,,,,,,,,,Task,11,(18/3) - 2,4,,,,,,,,,,,,,,,,,,0,,,,,,,,,,,,,,,,,,,,,,,,,0,,0,0,0,10,1,,,,,,,,,,,,,,,,,,,,,,,,,,
,,,,,,,,,,,,5e94b58fc7296a0a611f0492,20,Mężczyzna,2022-06-11_09h28.55.775,task,2021.1.4,Linux x86_64,143.8848921,6299f149e92ead563fba08ef,62a44454c9904628c8f1974f,,,,,,,,,,,,,7,,,,,,,,,,Task,6,(12/2) + 1,7,,,,,,,,,,,,,,,,,,1,,,,,,,,,,,,,,,,,,,,,,,,"[""7""]",1,[1.896799999999871],0,1,1,5,1,,,,,,,,,,,,,,,,,,,,,,,,,,
,,,,,,,,,,,X V Q F H G B L J M P D K C T S W R N Z,5e94b58fc7296a0a611f0492,20,Mężczyzna,2022-06-11_09h28.55.775,task,2021.1.4,Linux x86_64,143.8848921,6299f149e92ead563fba08ef,62a44454c9904628c8f1974f,,,,,,,,,,,,,,,,,,,,,,,,,,,,,,,,,,,,,,,,,,,,,,,,,,,,,,,,,,,,,,,,,,,,,,,,,,,,0,0,0,0,1,,,,,,,,,,,,,,,,,,,,,
,,,,,,,,,,,,5e94b58fc7296a0a611f0492,20,Mężczyzna,2022-06-11_09h28.55.775,task,2021.1.4,Linux x86_64,143.8848921,6299f149e92ead563fba08ef,62a44454c9904628c8f1974f,,,,,,,,,,,,,0,,,,,,,,,,Task,33,(1/1) - 1,0,,,,,,,,,,,,,,,,,,1,,,,,,,,,,,,,,,,,,,,,,,,"[""0""]",1,[1.3471999999999298],0,0,0,32,1,,,,,,,,,,,,,,,,,,,,,,,,,,
,,,,,,,,,,,X V Q F H G B L J M P D K C T S W R N Z,5e94b58fc7296a0a611f0492,20,Mężczyzna,2022-06-11_09h28.55.775,task,2021.1.4,Linux x86_64,143.8848921,6299f149e92ead563fba08ef,62a44454c9904628c8f1974f,,,,,,,,,,,,,,,,,,,,,,,,,,,,,,,,,,,,,,,,,,,,,,,,,,,,,,,,,,,,,,,,,,,,,,,,,,,,1,0,1,0,1,,,,,,,,,,,,,,,,,,,,,
,,,,,,,,,,,,5e94b58fc7296a0a611f0492,20,Mężczyzna,2022-06-11_09h28.55.775,task,2021.1.4,Linux x86_64,143.8848921,6299f149e92ead563fba08ef,62a44454c9904628c8f1974f,,,,,,,,,,,,,4,,,,,,,,,,Task,21,(10/2) - 1,4,,,,,,,,,,,,,,,,,,1,,,,,,,,,,,,,,,,,,,,,,,,"[""4""]",1,[2.0669000000000324],0,0,0,20,1,,,,,,,,,,,,,,,,,,,,,,,,,,
,,,,,,,,,,,X V Q F H G B L J M P D K C T S W R N Z,5e94b58fc7296a0a611f0492,20,Mężczyzna,2022-06-11_09h28.55.775,task,2021.1.4,Linux x86_64,143.8848921,6299f149e92ead563fba08ef,62a44454c9904628c8f1974f,,,,,,,,,,,,,,,,,,,,,,,,,,,,,,,,,,,,,,,,,,,,,,,,,,,,,,,,,,,,,,,,,,,,,,,,,,,,2,0,2,0,1,,,,,,,,,,,,,,,,,,,,,
,,,,,,,,,,,,5e94b58fc7296a0a611f0492,20,Mężczyzna,2022-06-11_09h28.55.775,task,2021.1.4,Linux x86_64,143.8848921,6299f149e92ead563fba08ef,62a44454c9904628c8f1974f,,,,,,,,,,,,,,,,,,,,,,,,,,,,,,,,,,,,,,,,,,,,,,,,,,,,,,,,,,,,,,,,,,,,,,,,,,,,,,,,,hdc,"[""h"",""d"",""c""]",0,"[1.327099999999973,1.436399999999935,1.6077999999998838,1.7180999999999358]",1,HDC,1,0,1,0,1,,,,,,,,,,
,,,,,,,,,,,,5e94b58fc7296a0a611f0492,20,Mężczyzna,2022-06-11_09h28.55.775,task,2021.1.4,Linux x86_64,143.8848921,6299f149e92ead563fba08ef,62a44454c9904628c8f1974f,,,,,,,,,,,,,,,,,,,,,,,Task,38,(4x6) - 17,7,,,,,,,,,,,,,,,,,,0,,,,,,,,,,,,,,,,,,,,,,,,,0,,0,0,0,37,1,,,,,,,,,,,,,,,,,,,,,,,,,,
,,,,,,,,,,,,5e94b58fc7296a0a611f0492,20,Mężczyzna,2022-06-11_09h28.55.775,task,2021.1.4,Linux x86_64,143.8848921,6299f149e92ead563fba08ef,62a44454c9904628c8f1974f,,,,,,,,,,,,,5,,,,,,,,,,Task,12,(4x4) - 11,5,,,,,,,,,,,,,,,,,,1,,,,,,,,,,,,,,,,,,,,,,,,"[""5""]",1,[2.470299999999952],0,1,1,11,1,,,,,,,,,,,,,,,,,,,,,,,,,,
,,,,,,,,,,,X V Q F H G B L J M P D K C T S W R N Z,5e94b58fc7296a0a611f0492,20,Mężczyzna,2022-06-11_09h28.55.775,task,2021.1.4,Linux x86_64,143.8848921,6299f149e92ead563fba08ef,62a44454c9904628c8f1974f,,,,,,,,,,,,,,,,,,,,,,,,,,,,,,,,,,,,,,,,,,,,,,,,,,,,,,,,,,,,,,,,,,,,,,,,,,,,0,0,0,0,1,,,,,,,,,,,,,,,,,,,,,
,,,,,,,,,,,,5e94b58fc7296a0a611f0492,20,Mężczyzna,2022-06-11_09h28.55.775,task,2021.1.4,Linux x86_64,143.8848921,6299f149e92ead563fba08ef,62a44454c9904628c8f1974f,,,,,,,,,,,,,3,,,,,,,,,,Task,27,(3/3) + 2,3,,,,,,,,,,,,,,,,,,1,,,,,,,,,,,,,,,,,,,,,,,,"[""3""]",1,[2.020399999999995],0,0,0,26,1,,,,,,,,,,,,,,,,,,,,,,,,,,
,,,,,,,,,,,X V Q F H G B L J M P D K C T S W R N Z,5e94b58fc7296a0a611f0492,20,Mężczyzna,2022-06-11_09h28.55.775,task,2021.1.4,Linux x86_64,143.8848921,6299f149e92ead563fba08ef,62a44454c9904628c8f1974f,,,,,,,,,,,,,,,,,,,,,,,,,,,,,,,,,,,,,,,,,,,,,,,,,,,,,,,,,,,,,,,,,,,,,,,,,,,,1,0,1,0,1,,,,,,,,,,,,,,,,,,,,,
,,,,,,,,,,,,5e94b58fc7296a0a611f0492,20,Mężczyzna,2022-06-11_09h28.55.775,task,2021.1.4,Linux x86_64,143.8848921,6299f149e92ead563fba08ef,62a44454c9904628c8f1974f,,,,,,,,,,,,,,,,,,,,,,,Task,15,(3x7) - 13,8,,,,,,,,,,,,,,,,,,0,,,,,,,,,,,,,,,,,,,,,,,,,0,,0,0,0,14,1,,,,,,,,,,,,,,,,,,,,,,,,,,
,,,,,,,,,,,,5e94b58fc7296a0a611f0492,20,Mężczyzna,2022-06-11_09h28.55.775,task,2021.1.4,Linux x86_64,143.8848921,6299f149e92ead563fba08ef,62a44454c9904628c8f1974f,,,,,,,,,,,,,3,,,,,,,,,,Task,35,(1x2) + 1,3,,,,,,,,,,,,,,,,,,1,,,,,,,,,,,,,,,,,,,,,,,,"[""3""]",1,[1.798400000000015],0,1,1,34,1,,,,,,,,,,,,,,,,,,,,,,,,,,
,,,,,,,,,,,X V Q F H G B L J M P D K C T S W R N Z,5e94b58fc7296a0a611f0492,20,Mężczyzna,2022-06-11_09h28.55.775,task,2021.1.4,Linux x86_64,143.8848921,6299f149e92ead563fba08ef,62a44454c9904628c8f1974f,,,,,,,,,,,,,,,,,,,,,,,,,,,,,,,,,,,,,,,,,,,,,,,,,,,,,,,,,,,,,,,,,,,,,,,,,,,,2,0,2,0,1,,,,,,,,,,,,,,,,,,,,,
,,,,,,,,,,,,5e94b58fc7296a0a611f0492,20,Mężczyzna,2022-06-11_09h28.55.775,task,2021.1.4,Linux x86_64,143.8848921,6299f149e92ead563fba08ef,62a44454c9904628c8f1974f,,,,,,,,,,,,,9,,,,,,,,,,Task,7,(3x7) - 12,9,,,,,,,,,,,,,,,,,,1,,,,,,,,,,,,,,,,,,,,,,,,"[""9""]",1,[2.6007000000000744],0,0,0,6,1,,,,,,,,,,,,,,,,,,,,,,,,,,
,,,,,,,,,,,X V Q F H G B L J M P D K C T S W R N Z,5e94b58fc7296a0a611f0492,20,Mężczyzna,2022-06-11_09h28.55.775,task,2021.1.4,Linux x86_64,143.8848921,6299f149e92ead563fba08ef,62a44454c9904628c8f1974f,,,,,,,,,,,,,,,,,,,,,,,,,,,,,,,,,,,,,,,,,,,,,,,,,,,,,,,,,,,,,,,,,,,,,,,,,,,,3,0,3,0,1,,,,,,,,,,,,,,,,,,,,,
,,,,,,,,,,,,5e94b58fc7296a0a611f0492,20,Mężczyzna,2022-06-11_09h28.55.775,task,2021.1.4,Linux x86_64,143.8848921,6299f149e92ead563fba08ef,62a44454c9904628c8f1974f,,,,,,,,,,,,,,,,,,,,,,,,,,,,,,,,,,,,,,,,,,,,,,,,,,,,,,,,,,,,,,,,,,,,,,,,,,,,,,,,,ljlp,"[""l"",""j"",""l"",""p""]",0,"[1.0419000000000551,1.2228000000001202,1.3400000000000318,1.5761999999999716,2.0838000000001102]",1,LJLP,2,0,2,0,1,,,,,,,,,,
,,,,,,,,,,,,5e94b58fc7296a0a611f0492,20,Mężczyzna,2022-06-11_09h28.55.775,task,2021.1.4,Linux x86_64,143.8848921,6299f149e92ead563fba08ef,62a44454c9904628c8f1974f,,,,,,,,,,,,,6,,,,,,,,,,Task,30,(6/3) + 4 ,6,,,,,,,,,,,,,,,,,,1,,,,,,,,,,,,,,,,,,,,,,,,"[""6""]",1,[2.6019000000000005],0,0,0,29,1,,,,,,,,,,,,,,,,,,,,,,,,,,
,,,,,,,,,,,X V Q F H G B L J M P D K C T S W R N Z,5e94b58fc7296a0a611f0492,20,Mężczyzna,2022-06-11_09h28.55.775,task,2021.1.4,Linux x86_64,143.8848921,6299f149e92ead563fba08ef,62a44454c9904628c8f1974f,,,,,,,,,,,,,,,,,,,,,,,,,,,,,,,,,,,,,,,,,,,,,,,,,,,,,,,,,,,,,,,,,,,,,,,,,,,,0,0,0,0,1,,,,,,,,,,,,,,,,,,,,,
,,,,,,,,,,,,5e94b58fc7296a0a611f0492,20,Mężczyzna,2022-06-11_09h28.55.775,task,2021.1.4,Linux x86_64,143.8848921,6299f149e92ead563fba08ef,62a44454c9904628c8f1974f,,,,,,,,,,,,,2,,,,,,,,,,Task,26,(2x9) - 16,2,,,,,,,,,,,,,,,,,,1,,,,,,,,,,,,,,,,,,,,,,,,"[""2""]",1,[2.6200999999999794],0,0,0,25,1,,,,,,,,,,,,,,,,,,,,,,,,,,
,,,,,,,,,,,X V Q F H G B L J M P D K C T S W R N Z,5e94b58fc7296a0a611f0492,20,Mężczyzna,2022-06-11_09h28.55.775,task,2021.1.4,Linux x86_64,143.8848921,6299f149e92ead563fba08ef,62a44454c9904628c8f1974f,,,,,,,,,,,,,,,,,,,,,,,,,,,,,,,,,,,,,,,,,,,,,,,,,,,,,,,,,,,,,,,,,,,,,,,,,,,,1,0,1,0,1,,,,,,,,,,,,,,,,,,,,,
,,,,,,,,,,,,5e94b58fc7296a0a611f0492,20,Mężczyzna,2022-06-11_09h28.55.775,task,2021.1.4,Linux x86_64,143.8848921,6299f149e92ead563fba08ef,62a44454c9904628c8f1974f,,,,,,,,,,,,,7,,,,,,,,,,Task,38,(4x6) - 17,7,,,,,,,,,,,,,,,,,,1,,,,,,,,,,,,,,,,,,,,,,,,"[""7""]",1,[3.1438000000000557],0,0,0,37,1,,,,,,,,,,,,,,,,,,,,,,,,,,
,,,,,,,,,,,X V Q F H G B L J M P D K C T S W R N Z,5e94b58fc7296a0a611f0492,20,Mężczyzna,2022-06-11_09h28.55.775,task,2021.1.4,Linux x86_64,143.8848921,6299f149e92ead563fba08ef,62a44454c9904628c8f1974f,,,,,,,,,,,,,,,,,,,,,,,,,,,,,,,,,,,,,,,,,,,,,,,,,,,,,,,,,,,,,,,,,,,,,,,,,,,,2,0,2,0,1,,,,,,,,,,,,,,,,,,,,,
,,,,,,,,,,,,5e94b58fc7296a0a611f0492,20,Mężczyzna,2022-06-11_09h28.55.775,task,2021.1.4,Linux x86_64,143.8848921,6299f149e92ead563fba08ef,62a44454c9904628c8f1974f,,,,,,,,,,,,,7,,,,,,,,,,Task,6,(12/2) + 1,7,,,,,,,,,,,,,,,,,,1,,,,,,,,,,,,,,,,,,,,,,,,"[""7""]",1,[1.6784999999999854],0,0,0,5,1,,,,,,,,,,,,,,,,,,,,,,,,,,
,,,,,,,,,,,X V Q F H G B L J M P D K C T S W R N Z,5e94b58fc7296a0a611f0492,20,Mężczyzna,2022-06-11_09h28.55.775,task,2021.1.4,Linux x86_64,143.8848921,6299f149e92ead563fba08ef,62a44454c9904628c8f1974f,,,,,,,,,,,,,,,,,,,,,,,,,,,,,,,,,,,,,,,,,,,,,,,,,,,,,,,,,,,,,,,,,,,,,,,,,,,,3,0,3,0,1,,,,,,,,,,,,,,,,,,,,,
,,,,,,,,,,,,5e94b58fc7296a0a611f0492,20,Mężczyzna,2022-06-11_09h28.55.775,task,2021.1.4,Linux x86_64,143.8848921,6299f149e92ead563fba08ef,62a44454c9904628c8f1974f,,,,,,,,,,,,,1,,,,,,,,,,Task,20,(18/9) + 1,3,,,,,,,,,,,,,,,,,,0,,,,,,,,,,,,,,,,,,,,,,,,"[""1""]",0,[2.4219000000000506],0,0,0,19,1,,,,,,,,,,,,,,,,,,,,,,,,,,
,,,,,,,,,,,,5e94b58fc7296a0a611f0492,20,Mężczyzna,2022-06-11_09h28.55.775,task,2021.1.4,Linux x86_64,143.8848921,6299f149e92ead563fba08ef,62a44454c9904628c8f1974f,,,,,,,,,,,,,0,,,,,,,,,,Task,33,(1/1) - 1,0,,,,,,,,,,,,,,,,,,1,,,,,,,,,,,,,,,,,,,,,,,,"[""0""]",1,[2.3661999999999352],0,1,1,32,1,,,,,,,,,,,,,,,,,,,,,,,,,,
,,,,,,,,,,,X V Q F H G B L J M P D K C T S W R N Z,5e94b58fc7296a0a611f0492,20,Mężczyzna,2022-06-11_09h28.55.775,task,2021.1.4,Linux x86_64,143.8848921,6299f149e92ead563fba08ef,62a44454c9904628c8f1974f,,,,,,,,,,,,,,,,,,,,,,,,,,,,,,,,,,,,,,,,,,,,,,,,,,,,,,,,,,,,,,,,,,,,,,,,,,,,4,0,4,0,1,,,,,,,,,,,,,,,,,,,,,
,,,,,,,,,,,,5e94b58fc7296a0a611f0492,20,Mężczyzna,2022-06-11_09h28.55.775,task,2021.1.4,Linux x86_64,143.8848921,6299f149e92ead563fba08ef,62a44454c9904628c8f1974f,,,,,,,,,,,,,,,,,,,,,,,,,,,,,,,,,,,,,,,,,,,,,,,,,,,,,,,,,,,,,,,,,,,,,,,,,,,,,,,,,scqgd,"[""s"",""c"",""q"",""g"",""d""]",0,"[1.1462999999999965,1.4747999999999593,1.7204000000000406,2.5474000000000387,2.7939999999999827,2.9511000000001104]",1,SCQGD,3,0,3,0,1,,,,,,,,,,
,,,,,,,,,,,,5e94b58fc7296a0a611f0492,20,Mężczyzna,2022-06-11_09h28.55.775,task,2021.1.4,Linux x86_64,143.8848921,6299f149e92ead563fba08ef,62a44454c9904628c8f1974f,,,,,,,,,,,,,3,,,,,,,,,,Task,19,(6/2) - 1,2,,,,,,,,,,,,,,,,,,0,,,,,,,,,,,,,,,,,,,,,,,,"[""3""]",0,[1.7571000000000367],0,0,0,18,1,,,,,,,,,,,,,,,,,,,,,,,,,,
,,,,,,,,,,,,5e94b58fc7296a0a611f0492,20,Mężczyzna,2022-06-11_09h28.55.775,task,2021.1.4,Linux x86_64,143.8848921,6299f149e92ead563fba08ef,62a44454c9904628c8f1974f,,,,,,,,,,,,,9,,,,,,,,,,Task,15,(3x7) - 13,8,,,,,,,,,,,,,,,,,,0,,,,,,,,,,,,,,,,,,,,,,,,"[""9""]",0,[2.901499999999942],0,1,1,14,1,,,,,,,,,,,,,,,,,,,,,,,,,,
,,,,,,,,,,,,5e94b58fc7296a0a611f0492,20,Mężczyzna,2022-06-11_09h28.55.775,task,2021.1.4,Linux x86_64,143.8848921,6299f149e92ead563fba08ef,62a44454c9904628c8f1974f,,,,,,,,,,,,,8,,,,,,,,,,Task,32,(8/2) + 4,8,,,,,,,,,,,,,,,,,,1,,,,,,,,,,,,,,,,,,,,,,,,"[""8""]",1,[2.835499999999911],0,2,2,31,1,,,,,,,,,,,,,,,,,,,,,,,,,,
,,,,,,,,,,,X V Q F H G B L J M P D K C T S W R N Z,5e94b58fc7296a0a611f0492,20,Mężczyzna,2022-06-11_09h28.55.775,task,2021.1.4,Linux x86_64,143.8848921,6299f149e92ead563fba08ef,62a44454c9904628c8f1974f,,,,,,,,,,,,,,,,,,,,,,,,,,,,,,,,,,,,,,,,,,,,,,,,,,,,,,,,,,,,,,,,,,,,,,,,,,,,0,0,0,0,1,,,,,,,,,,,,,,,,,,,,,
,,,,,,,,,,,,5e94b58fc7296a0a611f0492,20,Mężczyzna,2022-06-11_09h28.55.775,task,2021.1.4,Linux x86_64,143.8848921,6299f149e92ead563fba08ef,62a44454c9904628c8f1974f,,,,,,,,,,,,,3,,,,,,,,,,Task,25,(10/5) - 2,0,,,,,,,,,,,,,,,,,,0,,,,,,,,,,,,,,,,,,,,,,,,"[""3""]",0,[1.4027999999999565],0,0,0,24,1,,,,,,,,,,,,,,,,,,,,,,,,,,
,,,,,,,,,,,,5e94b58fc7296a0a611f0492,20,Mężczyzna,2022-06-11_09h28.55.775,task,2021.1.4,Linux x86_64,143.8848921,6299f149e92ead563fba08ef,62a44454c9904628c8f1974f,,,,,,,,,,,,,4,,,,,,,,,,Task,21,(10/2) - 1,4,,,,,,,,,,,,,,,,,,1,,,,,,,,,,,,,,,,,,,,,,,,"[""4""]",1,[2.22950000000003],0,1,1,20,1,,,,,,,,,,,,,,,,,,,,,,,,,,
,,,,,,,,,,,X V Q F H G B L J M P D K C T S W R N Z,5e94b58fc7296a0a611f0492,20,Mężczyzna,2022-06-11_09h28.55.775,task,2021.1.4,Linux x86_64,143.8848921,6299f149e92ead563fba08ef,62a44454c9904628c8f1974f,,,,,,,,,,,,,,,,,,,,,,,,,,,,,,,,,,,,,,,,,,,,,,,,,,,,,,,,,,,,,,,,,,,,,,,,,,,,1,0,1,0,1,,,,,,,,,,,,,,,,,,,,,
,,,,,,,,,,,,5e94b58fc7296a0a611f0492,20,Mężczyzna,2022-06-11_09h28.55.775,task,2021.1.4,Linux x86_64,143.8848921,6299f149e92ead563fba08ef,62a44454c9904628c8f1974f,,,,,,,,,,,,,5,,,,,,,,,,Task,22,(3x1) + 2,5,,,,,,,,,,,,,,,,,,1,,,,,,,,,,,,,,,,,,,,,,,,"[""5""]",1,[1.786899999999946],0,0,0,21,1,,,,,,,,,,,,,,,,,,,,,,,,,,
,,,,,,,,,,,X V Q F H G B L J M P D K C T S W R N Z,5e94b58fc7296a0a611f0492,20,Mężczyzna,2022-06-11_09h28.55.775,task,2021.1.4,Linux x86_64,143.8848921,6299f149e92ead563fba08ef,62a44454c9904628c8f1974f,,,,,,,,,,,,,,,,,,,,,,,,,,,,,,,,,,,,,,,,,,,,,,,,,,,,,,,,,,,,,,,,,,,,,,,,,,,,2,0,2,0,1,,,,,,,,,,,,,,,,,,,,,
,,,,,,,,,,,,5e94b58fc7296a0a611f0492,20,Mężczyzna,2022-06-11_09h28.55.775,task,2021.1.4,Linux x86_64,143.8848921,6299f149e92ead563fba08ef,62a44454c9904628c8f1974f,,,,,,,,,,,,,0,,,,,,,,,,Task,25,(10/5) - 2,0,,,,,,,,,,,,,,,,,,1,,,,,,,,,,,,,,,,,,,,,,,,"[""0""]",1,[1.995300000000043],0,0,0,24,1,,,,,,,,,,,,,,,,,,,,,,,,,,
,,,,,,,,,,,X V Q F H G B L J M P D K C T S W R N Z,5e94b58fc7296a0a611f0492,20,Mężczyzna,2022-06-11_09h28.55.775,task,2021.1.4,Linux x86_64,143.8848921,6299f149e92ead563fba08ef,62a44454c9904628c8f1974f,,,,,,,,,,,,,,,,,,,,,,,,,,,,,,,,,,,,,,,,,,,,,,,,,,,,,,,,,,,,,,,,,,,,,,,,,,,,3,0,3,0,1,,,,,,,,,,,,,,,,,,,,,
,,,,,,,,,,,,5e94b58fc7296a0a611f0492,20,Mężczyzna,2022-06-11_09h28.55.775,task,2021.1.4,Linux x86_64,143.8848921,6299f149e92ead563fba08ef,62a44454c9904628c8f1974f,,,,,,,,,,,,,7,,,,,,,,,,Task,36,(8/4) + 3,5,,,,,,,,,,,,,,,,,,0,,,,,,,,,,,,,,,,,,,,,,,,"[""7""]",0,[2.5644000000000915],0,0,0,35,1,,,,,,,,,,,,,,,,,,,,,,,,,,
,,,,,,,,,,,,5e94b58fc7296a0a611f0492,20,Mężczyzna,2022-06-11_09h28.55.775,task,2021.1.4,Linux x86_64,143.8848921,6299f149e92ead563fba08ef,62a44454c9904628c8f1974f,,,,,,,,,,,,,2,,,,,,,,,,Task,10,(2x5) - 8,2,,,,,,,,,,,,,,,,,,1,,,,,,,,,,,,,,,,,,,,,,,,"[""2""]",1,[1.8808999999998832],0,1,1,9,1,,,,,,,,,,,,,,,,,,,,,,,,,,
,,,,,,,,,,,X V Q F H G B L J M P D K C T S W R N Z,5e94b58fc7296a0a611f0492,20,Mężczyzna,2022-06-11_09h28.55.775,task,2021.1.4,Linux x86_64,143.8848921,6299f149e92ead563fba08ef,62a44454c9904628c8f1974f,,,,,,,,,,,,,,,,,,,,,,,,,,,,,,,,,,,,,,,,,,,,,,,,,,,,,,,,,,,,,,,,,,,,,,,,,,,,4,0,4,0,1,,,,,,,,,,,,,,,,,,,,,
,,,,,,,,,,,,5e94b58fc7296a0a611f0492,20,Mężczyzna,2022-06-11_09h28.55.775,task,2021.1.4,Linux x86_64,143.8848921,6299f149e92ead563fba08ef,62a44454c9904628c8f1974f,,,,,,,,,,,,,2,,,,,,,,,,Task,26,(2x9) - 16,2,,,,,,,,,,,,,,,,,,1,,,,,,,,,,,,,,,,,,,,,,,,"[""2""]",1,[2.0060000000000855],0,0,0,25,1,,,,,,,,,,,,,,,,,,,,,,,,,,
,,,,,,,,,,,X V Q F H G B L J M P D K C T S W R N Z,5e94b58fc7296a0a611f0492,20,Mężczyzna,2022-06-11_09h28.55.775,task,2021.1.4,Linux x86_64,143.8848921,6299f149e92ead563fba08ef,62a44454c9904628c8f1974f,,,,,,,,,,,,,,,,,,,,,,,,,,,,,,,,,,,,,,,,,,,,,,,,,,,,,,,,,,,,,,,,,,,,,,,,,,,,5,0,5,0,1,,,,,,,,,,,,,,,,,,,,,
,,,,,,,,,,,,5e94b58fc7296a0a611f0492,20,Mężczyzna,2022-06-11_09h28.55.775,task,2021.1.4,Linux x86_64,143.8848921,6299f149e92ead563fba08ef,62a44454c9904628c8f1974f,,,,,,,,,,,,,,,,,,,,,,,,,,,,,,,,,,,,,,,,,,,,,,,,,,,,,,,,,,,,,,,,,,,,,,,,,,,,,,,,,lfpsw,"[""l"",""f"",""p"",""s"",""w""]",0,"[1.0267000000000053,1.2071000000000822,1.352700000000027,1.6388999999999214,1.8682000000000016,2.471200000000067]",0,LFPFSW,4,0,4,0,1,,,,,,,,,,
,,,,,,,,,,,,5e94b58fc7296a0a611f0492,20,Mężczyzna,2022-06-11_09h28.55.775,task,2021.1.4,Linux x86_64,143.8848921,6299f149e92ead563fba08ef,62a44454c9904628c8f1974f,,,,,,,,,,,,,6,,,,,,,,,,Task,5,(2x3) + 0,6,,,,,,,,,,,,,,,,,,1,,,,,,,,,,,,,,,,,,,,,,,,"[""6""]",1,[3.1581999999999653],0,0,0,4,1,,,,,,,,,,,,,,,,,,,,,,,,,,
,,,,,,,,,,,X V Q F H G B L J M P D K C T S W R N Z,5e94b58fc7296a0a611f0492,20,Mężczyzna,2022-06-11_09h28.55.775,task,2021.1.4,Linux x86_64,143.8848921,6299f149e92ead563fba08ef,62a44454c9904628c8f1974f,,,,,,,,,,,,,,,,,,,,,,,,,,,,,,,,,,,,,,,,,,,,,,,,,,,,,,,,,,,,,,,,,,,,,,,,,,,,0,0,0,0,1,,,,,,,,,,,,,,,,,,,,,
,,,,,,,,,,,,5e94b58fc7296a0a611f0492,20,Mężczyzna,2022-06-11_09h28.55.775,task,2021.1.4,Linux x86_64,143.8848921,6299f149e92ead563fba08ef,62a44454c9904628c8f1974f,,,,,,,,,,,,,0,,,,,,,,,,Task,8,(1x5) - 5,0,,,,,,,,,,,,,,,,,,1,,,,,,,,,,,,,,,,,,,,,,,,"[""0""]",1,[1.8792999999999438],0,0,0,7,1,,,,,,,,,,,,,,,,,,,,,,,,,,
,,,,,,,,,,,X V Q F H G B L J M P D K C T S W R N Z,5e94b58fc7296a0a611f0492,20,Mężczyzna,2022-06-11_09h28.55.775,task,2021.1.4,Linux x86_64,143.8848921,6299f149e92ead563fba08ef,62a44454c9904628c8f1974f,,,,,,,,,,,,,,,,,,,,,,,,,,,,,,,,,,,,,,,,,,,,,,,,,,,,,,,,,,,,,,,,,,,,,,,,,,,,1,0,1,0,1,,,,,,,,,,,,,,,,,,,,,
,,,,,,,,,,,,5e94b58fc7296a0a611f0492,20,Mężczyzna,2022-06-11_09h28.55.775,task,2021.1.4,Linux x86_64,143.8848921,6299f149e92ead563fba08ef,62a44454c9904628c8f1974f,,,,,,,,,,,,,5,,,,,,,,,,Task,12,(4x4) - 11,5,,,,,,,,,,,,,,,,,,1,,,,,,,,,,,,,,,,,,,,,,,,"[""5""]",1,[1.5210000000000719],0,0,0,11,1,,,,,,,,,,,,,,,,,,,,,,,,,,
,,,,,,,,,,,X V Q F H G B L J M P D K C T S W R N Z,5e94b58fc7296a0a611f0492,20,Mężczyzna,2022-06-11_09h28.55.775,task,2021.1.4,Linux x86_64,143.8848921,6299f149e92ead563fba08ef,62a44454c9904628c8f1974f,,,,,,,,,,,,,,,,,,,,,,,,,,,,,,,,,,,,,,,,,,,,,,,,,,,,,,,,,,,,,,,,,,,,,,,,,,,,2,0,2,0,1,,,,,,,,,,,,,,,,,,,,,
,,,,,,,,,,,,5e94b58fc7296a0a611f0492,20,Mężczyzna,2022-06-11_09h28.55.775,task,2021.1.4,Linux x86_64,143.8848921,6299f149e92ead563fba08ef,62a44454c9904628c8f1974f,,,,,,,,,,,,,8,,,,,,,,,,Task,23,(2x3) + 2,8,,,,,,,,,,,,,,,,,,1,,,,,,,,,,,,,,,,,,,,,,,,"[""8""]",1,[1.8818999999999733],0,0,0,22,1,,,,,,,,,,,,,,,,,,,,,,,,,,
,,,,,,,,,,,X V Q F H G B L J M P D K C T S W R N Z,5e94b58fc7296a0a611f0492,20,Mężczyzna,2022-06-11_09h28.55.775,task,2021.1.4,Linux x86_64,143.8848921,6299f149e92ead563fba08ef,62a44454c9904628c8f1974f,,,,,,,,,,,,,,,,,,,,,,,,,,,,,,,,,,,,,,,,,,,,,,,,,,,,,,,,,,,,,,,,,,,,,,,,,,,,3,0,3,0,1,,,,,,,,,,,,,,,,,,,,,
,,,,,,,,,,,,5e94b58fc7296a0a611f0492,20,Mężczyzna,2022-06-11_09h28.55.775,task,2021.1.4,Linux x86_64,143.8848921,6299f149e92ead563fba08ef,62a44454c9904628c8f1974f,,,,,,,,,,,,,0,,,,,,,,,,Task,17,(2x3) - 6,0,,,,,,,,,,,,,,,,,,1,,,,,,,,,,,,,,,,,,,,,,,,"[""0""]",1,[3.140899999999988],0,0,0,16,1,,,,,,,,,,,,,,,,,,,,,,,,,,
,,,,,,,,,,,X V Q F H G B L J M P D K C T S W R N Z,5e94b58fc7296a0a611f0492,20,Mężczyzna,2022-06-11_09h28.55.775,task,2021.1.4,Linux x86_64,143.8848921,6299f149e92ead563fba08ef,62a44454c9904628c8f1974f,,,,,,,,,,,,,,,,,,,,,,,,,,,,,,,,,,,,,,,,,,,,,,,,,,,,,,,,,,,,,,,,,,,,,,,,,,,,4,0,4,0,1,,,,,,,,,,,,,,,,,,,,,
,,,,,,,,,,,,5e94b58fc7296a0a611f0492,20,Mężczyzna,2022-06-11_09h28.55.775,task,2021.1.4,Linux x86_64,143.8848921,6299f149e92ead563fba08ef,62a44454c9904628c8f1974f,,,,,,,,,,,,,4,,,,,,,,,,Task,28,(2x5) - 6,4,,,,,,,,,,,,,,,,,,1,,,,,,,,,,,,,,,,,,,,,,,,"[""4""]",1,[2.0216000000001486],0,0,0,27,1,,,,,,,,,,,,,,,,,,,,,,,,,,
,,,,,,,,,,,X V Q F H G B L J M P D K C T S W R N Z,5e94b58fc7296a0a611f0492,20,Mężczyzna,2022-06-11_09h28.55.775,task,2021.1.4,Linux x86_64,143.8848921,6299f149e92ead563fba08ef,62a44454c9904628c8f1974f,,,,,,,,,,,,,,,,,,,,,,,,,,,,,,,,,,,,,,,,,,,,,,,,,,,,,,,,,,,,,,,,,,,,,,,,,,,,5,0,5,0,1,,,,,,,,,,,,,,,,,,,,,
,,,,,,,,,,,,5e94b58fc7296a0a611f0492,20,Mężczyzna,2022-06-11_09h28.55.775,task,2021.1.4,Linux x86_64,143.8848921,6299f149e92ead563fba08ef,62a44454c9904628c8f1974f,,,,,,,,,,,,,,,,,,,,,,,,,,,,,,,,,,,,,,,,,,,,,,,,,,,,,,,,,,,,,,,,,,,,,,,,,,,,,,,,,pxrlbf,"[""p"",""x"",""r"",""l"",""b"",""f""]",0,"[1.3395000000000437,1.7011999999999716,1.9924000000000888,2.29830000000004,2.644900000000007,2.97199999999998,3.408800000000042]",1,PXRLBF,5,0,5,0,1,,,,,,,,,,
,,,,,,,,,,,,5e94b58fc7296a0a611f0492,20,Mężczyzna,2022-06-11_09h28.55.775,task,2021.1.4,Linux x86_64,143.8848921,6299f149e92ead563fba08ef,62a44454c9904628c8f1974f,,,,,,,,,,,,,5,,,,,,,,,,Task,1,(12/6) - 1,1,,,,,,,,,,,,,,,,,,0,,,,,,,,,,,,,,,,,,,,,,,,"[""5""]",0,[2.022000000000048],0,0,0,0,1,,,,,,,,,,,,,,,,,,,,,,,,,,
,,,,,,,,,,,,5e94b58fc7296a0a611f0492,20,Mężczyzna,2022-06-11_09h28.55.775,task,2021.1.4,Linux x86_64,143.8848921,6299f149e92ead563fba08ef,62a44454c9904628c8f1974f,,,,,,,,,,,,,9,,,,,,,,,,Task,24,(2x2) + 5,9,,,,,,,,,,,,,,,,,,1,,,,,,,,,,,,,,,,,,,,,,,,"[""9""]",1,[1.6417999999999893],0,1,1,23,1,,,,,,,,,,,,,,,,,,,,,,,,,,
,,,,,,,,,,,X V Q F H G B L J M P D K C T S W R N Z,5e94b58fc7296a0a611f0492,20,Mężczyzna,2022-06-11_09h28.55.775,task,2021.1.4,Linux x86_64,143.8848921,6299f149e92ead563fba08ef,62a44454c9904628c8f1974f,,,,,,,,,,,,,,,,,,,,,,,,,,,,,,,,,,,,,,,,,,,,,,,,,,,,,,,,,,,,,,,,,,,,,,,,,,,,0,0,0,0,1,,,,,,,,,,,,,,,,,,,,,
,,,,,,,,,,,,5e94b58fc7296a0a611f0492,20,Mężczyzna,2022-06-11_09h28.55.775,task,2021.1.4,Linux x86_64,143.8848921,6299f149e92ead563fba08ef,62a44454c9904628c8f1974f,,,,,,,,,,,,,8,,,,,,,,,,Task,23,(2x3) + 2,8,,,,,,,,,,,,,,,,,,1,,,,,,,,,,,,,,,,,,,,,,,,"[""8""]",1,[1.7960999999999103],0,0,0,22,1,,,,,,,,,,,,,,,,,,,,,,,,,,
,,,,,,,,,,,X V Q F H G B L J M P D K C T S W R N Z,5e94b58fc7296a0a611f0492,20,Mężczyzna,2022-06-11_09h28.55.775,task,2021.1.4,Linux x86_64,143.8848921,6299f149e92ead563fba08ef,62a44454c9904628c8f1974f,,,,,,,,,,,,,,,,,,,,,,,,,,,,,,,,,,,,,,,,,,,,,,,,,,,,,,,,,,,,,,,,,,,,,,,,,,,,1,0,1,0,1,,,,,,,,,,,,,,,,,,,,,
,,,,,,,,,,,,5e94b58fc7296a0a611f0492,20,Mężczyzna,2022-06-11_09h28.55.775,task,2021.1.4,Linux x86_64,143.8848921,6299f149e92ead563fba08ef,62a44454c9904628c8f1974f,,,,,,,,,,,,,7,,,,,,,,,,Task,31,(4/2) + 5,7,,,,,,,,,,,,,,,,,,1,,,,,,,,,,,,,,,,,,,,,,,,"[""7""]",1,[2.477399999999875],0,0,0,30,1,,,,,,,,,,,,,,,,,,,,,,,,,,
,,,,,,,,,,,X V Q F H G B L J M P D K C T S W R N Z,5e94b58fc7296a0a611f0492,20,Mężczyzna,2022-06-11_09h28.55.775,task,2021.1.4,Linux x86_64,143.8848921,6299f149e92ead563fba08ef,62a44454c9904628c8f1974f,,,,,,,,,,,,,,,,,,,,,,,,,,,,,,,,,,,,,,,,,,,,,,,,,,,,,,,,,,,,,,,,,,,,,,,,,,,,2,0,2,0,1,,,,,,,,,,,,,,,,,,,,,
,,,,,,,,,,,,5e94b58fc7296a0a611f0492,20,Mężczyzna,2022-06-11_09h28.55.775,task,2021.1.4,Linux x86_64,143.8848921,6299f149e92ead563fba08ef,62a44454c9904628c8f1974f,,,,,,,,,,,,,9,,,,,,,,,,Task,16,(3x8) - 15,9,,,,,,,,,,,,,,,,,,1,,,,,,,,,,,,,,,,,,,,,,,,"[""9""]",1,[3.14429999999993],0,0,0,15,1,,,,,,,,,,,,,,,,,,,,,,,,,,
,,,,,,,,,,,X V Q F H G B L J M P D K C T S W R N Z,5e94b58fc7296a0a611f0492,20,Mężczyzna,2022-06-11_09h28.55.775,task,2021.1.4,Linux x86_64,143.8848921,6299f149e92ead563fba08ef,62a44454c9904628c8f1974f,,,,,,,,,,,,,,,,,,,,,,,,,,,,,,,,,,,,,,,,,,,,,,,,,,,,,,,,,,,,,,,,,,,,,,,,,,,,3,0,3,0,1,,,,,,,,,,,,,,,,,,,,,
,,,,,,,,,,,,5e94b58fc7296a0a611f0492,20,Mężczyzna,2022-06-11_09h28.55.775,task,2021.1.4,Linux x86_64,143.8848921,6299f149e92ead563fba08ef,62a44454c9904628c8f1974f,,,,,,,,,,,,,8,,,,,,,,,,Task,39,(5x3) - 7,8,,,,,,,,,,,,,,,,,,1,,,,,,,,,,,,,,,,,,,,,,,,"[""8""]",1,[2.860900000000015],0,0,0,38,1,,,,,,,,,,,,,,,,,,,,,,,,,,
,,,,,,,,,,,X V Q F H G B L J M P D K C T S W R N Z,5e94b58fc7296a0a611f0492,20,Mężczyzna,2022-06-11_09h28.55.775,task,2021.1.4,Linux x86_64,143.8848921,6299f149e92ead563fba08ef,62a44454c9904628c8f1974f,,,,,,,,,,,,,,,,,,,,,,,,,,,,,,,,,,,,,,,,,,,,,,,,,,,,,,,,,,,,,,,,,,,,,,,,,,,,4,0,4,0,1,,,,,,,,,,,,,,,,,,,,,
,,,,,,,,,,,,5e94b58fc7296a0a611f0492,20,Mężczyzna,2022-06-11_09h28.55.775,task,2021.1.4,Linux x86_64,143.8848921,6299f149e92ead563fba08ef,62a44454c9904628c8f1974f,,,,,,,,,,,,,1,,,,,,,,,,Task,18,(16/4) - 3,1,,,,,,,,,,,,,,,,,,1,,,,,,,,,,,,,,,,,,,,,,,,"[""1""]",1,[2.5487000000000535],0,0,0,17,1,,,,,,,,,,,,,,,,,,,,,,,,,,
,,,,,,,,,,,X V Q F H G B L J M P D K C T S W R N Z,5e94b58fc7296a0a611f0492,20,Mężczyzna,2022-06-11_09h28.55.775,task,2021.1.4,Linux x86_64,143.8848921,6299f149e92ead563fba08ef,62a44454c9904628c8f1974f,,,,,,,,,,,,,,,,,,,,,,,,,,,,,,,,,,,,,,,,,,,,,,,,,,,,,,,,,,,,,,,,,,,,,,,,,,,,5,0,5,0,1,,,,,,,,,,,,,,,,,,,,,
,,,,,,,,,,,,5e94b58fc7296a0a611f0492,20,Mężczyzna,2022-06-11_09h28.55.775,task,2021.1.4,Linux x86_64,143.8848921,6299f149e92ead563fba08ef,62a44454c9904628c8f1974f,,,,,,,,,,,,,6,,,,,,,,,,Task,13,(3x4) - 6,6,,,,,,,,,,,,,,,,,,1,,,,,,,,,,,,,,,,,,,,,,,,"[""6""]",1,[2.6089000000000624],0,0,0,12,1,,,,,,,,,,,,,,,,,,,,,,,,,,
,,,,,,,,,,,X V Q F H G B L J M P D K C T S W R N Z,5e94b58fc7296a0a611f0492,20,Mężczyzna,2022-06-11_09h28.55.775,task,2021.1.4,Linux x86_64,143.8848921,6299f149e92ead563fba08ef,62a44454c9904628c8f1974f,,,,,,,,,,,,,,,,,,,,,,,,,,,,,,,,,,,,,,,,,,,,,,,,,,,,,,,,,,,,,,,,,,,,,,,,,,,,6,0,6,0,1,,,,,,,,,,,,,,,,,,,,,
,,,,,,,,,,,,5e94b58fc7296a0a611f0492,20,Mężczyzna,2022-06-11_09h28.55.775,task,2021.1.4,Linux x86_64,143.8848921,6299f149e92ead563fba08ef,62a44454c9904628c8f1974f,,,,,,,,,,,,,,,,,,,,,,,,,,,,,,,,,,,,,,,,,,,,,,,,,,,,,,,,,,,,,,,,,,,,,,,,,,,,,,,,,mbhzfrl,"[""m"",""b"",""h"",""z"",""f"",""r"",""l""]",0,"[1.854199999999878,2.165899999999965,2.3881999999998698,2.9351999999998952,3.3903000000000247,4.324399999999969,4.439999999999941,4.882099999999923]",0,MBHXFLR,6,0,6,0,1,,,,,,,,,,
,,,,,,,,,,,,5e94b58fc7296a0a611f0492,20,Mężczyzna,2022-06-11_09h28.55.775,task,2021.1.4,Linux x86_64,143.8848921,6299f149e92ead563fba08ef,62a44454c9904628c8f1974f,,,,,,,,,,,,,7,,,,,,,,,,Task,6,(12/2) + 1,7,,,,,,,,,,,,,,,,,,1,,,,,,,,,,,,,,,,,,,,,,,,"[""7""]",1,[3.007000000000062],0,0,0,5,1,,,,,,,,,,,,,,,,,,,,,,,,,,
,,,,,,,,,,,X V Q F H G B L J M P D K C T S W R N Z,5e94b58fc7296a0a611f0492,20,Mężczyzna,2022-06-11_09h28.55.775,task,2021.1.4,Linux x86_64,143.8848921,6299f149e92ead563fba08ef,62a44454c9904628c8f1974f,,,,,,,,,,,,,,,,,,,,,,,,,,,,,,,,,,,,,,,,,,,,,,,,,,,,,,,,,,,,,,,,,,,,,,,,,,,,0,0,0,0,1,,,,,,,,,,,,,,,,,,,,,
,,,,,,,,,,,,5e94b58fc7296a0a611f0492,20,Mężczyzna,2022-06-11_09h28.55.775,task,2021.1.4,Linux x86_64,143.8848921,6299f149e92ead563fba08ef,62a44454c9904628c8f1974f,,,,,,,,,,,,,4,,,,,,,,,,Task,4,(1x5) - 1,4,,,,,,,,,,,,,,,,,,1,,,,,,,,,,,,,,,,,,,,,,,,"[""4""]",1,[2.1440000000000055],0,0,0,3,1,,,,,,,,,,,,,,,,,,,,,,,,,,
,,,,,,,,,,,X V Q F H G B L J M P D K C T S W R N Z,5e94b58fc7296a0a611f0492,20,Mężczyzna,2022-06-11_09h28.55.775,task,2021.1.4,Linux x86_64,143.8848921,6299f149e92ead563fba08ef,62a44454c9904628c8f1974f,,,,,,,,,,,,,,,,,,,,,,,,,,,,,,,,,,,,,,,,,,,,,,,,,,,,,,,,,,,,,,,,,,,,,,,,,,,,1,0,1,0,1,,,,,,,,,,,,,,,,,,,,,
,,,,,,,,,,,,5e94b58fc7296a0a611f0492,20,Mężczyzna,2022-06-11_09h28.55.775,task,2021.1.4,Linux x86_64,143.8848921,6299f149e92ead563fba08ef,62a44454c9904628c8f1974f,,,,,,,,,,,,,6,,,,,,,,,,Task,13,(3x4) - 6,6,,,,,,,,,,,,,,,,,,1,,,,,,,,,,,,,,,,,,,,,,,,"[""6""]",1,[2.2146000000000186],0,0,0,12,1,,,,,,,,,,,,,,,,,,,,,,,,,,
,,,,,,,,,,,X V Q F H G B L J M P D K C T S W R N Z,5e94b58fc7296a0a611f0492,20,Mężczyzna,2022-06-11_09h28.55.775,task,2021.1.4,Linux x86_64,143.8848921,6299f149e92ead563fba08ef,62a44454c9904628c8f1974f,,,,,,,,,,,,,,,,,,,,,,,,,,,,,,,,,,,,,,,,,,,,,,,,,,,,,,,,,,,,,,,,,,,,,,,,,,,,2,0,2,0,1,,,,,,,,,,,,,,,,,,,,,
,,,,,,,,,,,,5e94b58fc7296a0a611f0492,20,Mężczyzna,2022-06-11_09h28.55.775,task,2021.1.4,Linux x86_64,143.8848921,6299f149e92ead563fba08ef,62a44454c9904628c8f1974f,,,,,,,,,,,,,1,,,,,,,,,,Task,18,(16/4) - 3,1,,,,,,,,,,,,,,,,,,1,,,,,,,,,,,,,,,,,,,,,,,,"[""1""]",1,[2.0967000000002827],0,0,0,17,1,,,,,,,,,,,,,,,,,,,,,,,,,,
,,,,,,,,,,,X V Q F H G B L J M P D K C T S W R N Z,5e94b58fc7296a0a611f0492,20,Mężczyzna,2022-06-11_09h28.55.775,task,2021.1.4,Linux x86_64,143.8848921,6299f149e92ead563fba08ef,62a44454c9904628c8f1974f,,,,,,,,,,,,,,,,,,,,,,,,,,,,,,,,,,,,,,,,,,,,,,,,,,,,,,,,,,,,,,,,,,,,,,,,,,,,3,0,3,0,1,,,,,,,,,,,,,,,,,,,,,
,,,,,,,,,,,,5e94b58fc7296a0a611f0492,20,Mężczyzna,2022-06-11_09h28.55.775,task,2021.1.4,Linux x86_64,143.8848921,6299f149e92ead563fba08ef,62a44454c9904628c8f1974f,,,,,,,,,,,,,7,,,,,,,,,,Task,15,(3x7) - 13,8,,,,,,,,,,,,,,,,,,0,,,,,,,,,,,,,,,,,,,,,,,,"[""7""]",0,[2.64329999999984],0,0,0,14,1,,,,,,,,,,,,,,,,,,,,,,,,,,
,,,,,,,,,,,,5e94b58fc7296a0a611f0492,20,Mężczyzna,2022-06-11_09h28.55.775,task,2021.1.4,Linux x86_64,143.8848921,6299f149e92ead563fba08ef,62a44454c9904628c8f1974f,,,,,,,,,,,,,5,,,,,,,,,,Task,22,(3x1) + 2,5,,,,,,,,,,,,,,,,,,1,,,,,,,,,,,,,,,,,,,,,,,,"[""5""]",1,[2.151899999999955],0,1,1,21,1,,,,,,,,,,,,,,,,,,,,,,,,,,
,,,,,,,,,,,X V Q F H G B L J M P D K C T S W R N Z,5e94b58fc7296a0a611f0492,20,Mężczyzna,2022-06-11_09h28.55.775,task,2021.1.4,Linux x86_64,143.8848921,6299f149e92ead563fba08ef,62a44454c9904628c8f1974f,,,,,,,,,,,,,,,,,,,,,,,,,,,,,,,,,,,,,,,,,,,,,,,,,,,,,,,,,,,,,,,,,,,,,,,,,,,,4,0,4,0,1,,,,,,,,,,,,,,,,,,,,,
,,,,,,,,,,,,5e94b58fc7296a0a611f0492,20,Mężczyzna,2022-06-11_09h28.55.775,task,2021.1.4,Linux x86_64,143.8848921,6299f149e92ead563fba08ef,62a44454c9904628c8f1974f,,,,,,,,,,,,,2,,,,,,,,,,Task,26,(2x9) - 16,2,,,,,,,,,,,,,,,,,,1,,,,,,,,,,,,,,,,,,,,,,,,"[""2""]",1,[2.185899999999833],0,0,0,25,1,,,,,,,,,,,,,,,,,,,,,,,,,,
,,,,,,,,,,,X V Q F H G B L J M P D K C T S W R N Z,5e94b58fc7296a0a611f0492,20,Mężczyzna,2022-06-11_09h28.55.775,task,2021.1.4,Linux x86_64,143.8848921,6299f149e92ead563fba08ef,62a44454c9904628c8f1974f,,,,,,,,,,,,,,,,,,,,,,,,,,,,,,,,,,,,,,,,,,,,,,,,,,,,,,,,,,,,,,,,,,,,,,,,,,,,5,0,5,0,1,,,,,,,,,,,,,,,,,,,,,
,,,,,,,,,,,,5e94b58fc7296a0a611f0492,20,Mężczyzna,2022-06-11_09h28.55.775,task,2021.1.4,Linux x86_64,143.8848921,6299f149e92ead563fba08ef,62a44454c9904628c8f1974f,,,,,,,,,,,,,8,,,,,,,,,,Task,32,(8/2) + 4,8,,,,,,,,,,,,,,,,,,1,,,,,,,,,,,,,,,,,,,,,,,,"[""8""]",1,[2.574999999999932],0,0,0,31,1,,,,,,,,,,,,,,,,,,,,,,,,,,
,,,,,,,,,,,X V Q F H G B L J M P D K C T S W R N Z,5e94b58fc7296a0a611f0492,20,Mężczyzna,2022-06-11_09h28.55.775,task,2021.1.4,Linux x86_64,143.8848921,6299f149e92ead563fba08ef,62a44454c9904628c8f1974f,,,,,,,,,,,,,,,,,,,,,,,,,,,,,,,,,,,,,,,,,,,,,,,,,,,,,,,,,,,,,,,,,,,,,,,,,,,,6,0,6,0,1,,,,,,,,,,,,,,,,,,,,,
,,,,,,,,,,,,5e94b58fc7296a0a611f0492,20,Mężczyzna,2022-06-11_09h28.55.775,task,2021.1.4,Linux x86_64,143.8848921,6299f149e92ead563fba08ef,62a44454c9904628c8f1974f,,,,,,,,,,,,,,,,,,,,,,,,,,,,,,,,,,,,,,,,,,,,,,,,,,,,,,,,,,,,,,,,,,,,,,,,,,,,,,,,,dknfjcs,"[""d"",""k"",""n"",""f"",""j"",""c"",""s""]",0,"[1.8014000000001715,2.216000000000008,2.5499999999999545,2.947300000000041,3.3417000000001735,3.482499999999959,3.7730000000000246,4.122200000000134]",1,DKNFJCS,7,0,7,0,1,,,,,,,,,,
,,,,,,,,,,,,5e94b58fc7296a0a611f0492,20,Mężczyzna,2022-06-11_09h28.55.775,task,2021.1.4,Linux x86_64,143.8848921,6299f149e92ead563fba08ef,62a44454c9904628c8f1974f,,,,,,,,,,,,,,,,,,,,,,,Task,38,(4x6) - 17,7,,,,,,,,,,,,,,,,,,0,,,,,,,,,,,,,,,,,,,,,,,,,0,,0,0,0,37,1,,,,,,,,,,,,,,,,,,,,,,,,,,
,,,,,,,,,,,,5e94b58fc7296a0a611f0492,20,Mężczyzna,2022-06-11_09h28.55.775,task,2021.1.4,Linux x86_64,143.8848921,6299f149e92ead563fba08ef,62a44454c9904628c8f1974f,,,,,,,,,,,,,5,,,,,,,,,,Task,22,(3x1) + 2,5,,,,,,,,,,,,,,,,,,1,,,,,,,,,,,,,,,,,,,,,,,,"[""5""]",1,[1.9096000000001823],0,1,1,21,1,,,,,,,,,,,,,,,,,,,,,,,,,,
,,,,,,,,,,,X V Q F H G B L J M P D K C T S W R N Z,5e94b58fc7296a0a611f0492,20,Mężczyzna,2022-06-11_09h28.55.775,task,2021.1.4,Linux x86_64,143.8848921,6299f149e92ead563fba08ef,62a44454c9904628c8f1974f,,,,,,,,,,,,,,,,,,,,,,,,,,,,,,,,,,,,,,,,,,,,,,,,,,,,,,,,,,,,,,,,,,,,,,,,,,,,0,0,0,0,1,,,,,,,,,,,,,,,,,,,,,
,,,,,,,,,,,,5e94b58fc7296a0a611f0492,20,Mężczyzna,2022-06-11_09h28.55.775,task,2021.1.4,Linux x86_64,143.8848921,6299f149e92ead563fba08ef,62a44454c9904628c8f1974f,,,,,,,,,,,,,1,,,,,,,,,,Task,9,(3x7) - 20,1,,,,,,,,,,,,,,,,,,1,,,,,,,,,,,,,,,,,,,,,,,,"[""1""]",1,[1.8734999999999218],0,0,0,8,1,,,,,,,,,,,,,,,,,,,,,,,,,,
,,,,,,,,,,,X V Q F H G B L J M P D K C T S W R N Z,5e94b58fc7296a0a611f0492,20,Mężczyzna,2022-06-11_09h28.55.775,task,2021.1.4,Linux x86_64,143.8848921,6299f149e92ead563fba08ef,62a44454c9904628c8f1974f,,,,,,,,,,,,,,,,,,,,,,,,,,,,,,,,,,,,,,,,,,,,,,,,,,,,,,,,,,,,,,,,,,,,,,,,,,,,1,0,1,0,1,,,,,,,,,,,,,,,,,,,,,
,,,,,,,,,,,,5e94b58fc7296a0a611f0492,20,Mężczyzna,2022-06-11_09h28.55.775,task,2021.1.4,Linux x86_64,143.8848921,6299f149e92ead563fba08ef,62a44454c9904628c8f1974f,,,,,,,,,,,,,9,,,,,,,,,,Task,7,(3x7) - 12,9,,,,,,,,,,,,,,,,,,1,,,,,,,,,,,,,,,,,,,,,,,,"[""9""]",1,[1.7435999999997875],0,0,0,6,1,,,,,,,,,,,,,,,,,,,,,,,,,,
,,,,,,,,,,,X V Q F H G B L J M P D K C T S W R N Z,5e94b58fc7296a0a611f0492,20,Mężczyzna,2022-06-11_09h28.55.775,task,2021.1.4,Linux x86_64,143.8848921,6299f149e92ead563fba08ef,62a44454c9904628c8f1974f,,,,,,,,,,,,,,,,,,,,,,,,,,,,,,,,,,,,,,,,,,,,,,,,,,,,,,,,,,,,,,,,,,,,,,,,,,,,2,0,2,0,1,,,,,,,,,,,,,,,,,,,,,
,,,,,,,,,,,,5e94b58fc7296a0a611f0492,20,Mężczyzna,2022-06-11_09h28.55.775,task,2021.1.4,Linux x86_64,143.8848921,6299f149e92ead563fba08ef,62a44454c9904628c8f1974f,,,,,,,,,,,,,,,,,,,,,,,Task,11,(18/3) - 2,4,,,,,,,,,,,,,,,,,,0,,,,,,,,,,,,,,,,,,,,,,,,,0,,0,0,0,10,1,,,,,,,,,,,,,,,,,,,,,,,,,,
,,,,,,,,,,,,5e94b58fc7296a0a611f0492,20,Mężczyzna,2022-06-11_09h28.55.775,task,2021.1.4,Linux x86_64,143.8848921,6299f149e92ead563fba08ef,62a44454c9904628c8f1974f,,,,,,,,,,,,,0,,,,,,,,,,Task,33,(1/1) - 1,0,,,,,,,,,,,,,,,,,,1,,,,,,,,,,,,,,,,,,,,,,,,"[""0""]",1,[1.4881000000000313],0,1,1,32,1,,,,,,,,,,,,,,,,,,,,,,,,,,
,,,,,,,,,,,X V Q F H G B L J M P D K C T S W R N Z,5e94b58fc7296a0a611f0492,20,Mężczyzna,2022-06-11_09h28.55.775,task,2021.1.4,Linux x86_64,143.8848921,6299f149e92ead563fba08ef,62a44454c9904628c8f1974f,,,,,,,,,,,,,,,,,,,,,,,,,,,,,,,,,,,,,,,,,,,,,,,,,,,,,,,,,,,,,,,,,,,,,,,,,,,,3,0,3,0,1,,,,,,,,,,,,,,,,,,,,,
,,,,,,,,,,,,5e94b58fc7296a0a611f0492,20,Mężczyzna,2022-06-11_09h28.55.775,task,2021.1.4,Linux x86_64,143.8848921,6299f149e92ead563fba08ef,62a44454c9904628c8f1974f,,,,,,,,,,,,,4,,,,,,,,,,Task,4,(1x5) - 1,4,,,,,,,,,,,,,,,,,,1,,,,,,,,,,,,,,,,,,,,,,,,"[""4""]",1,[1.219000000000051],0,0,0,3,1,,,,,,,,,,,,,,,,,,,,,,,,,,
,,,,,,,,,,,X V Q F H G B L J M P D K C T S W R N Z,5e94b58fc7296a0a611f0492,20,Mężczyzna,2022-06-11_09h28.55.775,task,2021.1.4,Linux x86_64,143.8848921,6299f149e92ead563fba08ef,62a44454c9904628c8f1974f,,,,,,,,,,,,,,,,,,,,,,,,,,,,,,,,,,,,,,,,,,,,,,,,,,,,,,,,,,,,,,,,,,,,,,,,,,,,4,0,4,0,1,,,,,,,,,,,,,,,,,,,,,
,,,,,,,,,,,,5e94b58fc7296a0a611f0492,20,Mężczyzna,2022-06-11_09h28.55.775,task,2021.1.4,Linux x86_64,143.8848921,6299f149e92ead563fba08ef,62a44454c9904628c8f1974f,,,,,,,,,,,,,2,,,,,,,,,,Task,10,(2x5) - 8,2,,,,,,,,,,,,,,,,,,1,,,,,,,,,,,,,,,,,,,,,,,,"[""2""]",1,[1.624599999999873],0,0,0,9,1,,,,,,,,,,,,,,,,,,,,,,,,,,
,,,,,,,,,,,X V Q F H G B L J M P D K C T S W R N Z,5e94b58fc7296a0a611f0492,20,Mężczyzna,2022-06-11_09h28.55.775,task,2021.1.4,Linux x86_64,143.8848921,6299f149e92ead563fba08ef,62a44454c9904628c8f1974f,,,,,,,,,,,,,,,,,,,,,,,,,,,,,,,,,,,,,,,,,,,,,,,,,,,,,,,,,,,,,,,,,,,,,,,,,,,,5,0,5,0,1,,,,,,,,,,,,,,,,,,,,,
,,,,,,,,,,,,5e94b58fc7296a0a611f0492,20,Mężczyzna,2022-06-11_09h28.55.775,task,2021.1.4,Linux x86_64,143.8848921,6299f149e92ead563fba08ef,62a44454c9904628c8f1974f,,,,,,,,,,,,,1,,,,,,,,,,Task,9,(3x7) - 20,1,,,,,,,,,,,,,,,,,,1,,,,,,,,,,,,,,,,,,,,,,,,"[""1""]",1,[1.4629999999999654],0,0,0,8,1,,,,,,,,,,,,,,,,,,,,,,,,,,
,,,,,,,,,,,X V Q F H G B L J M P D K C T S W R N Z,5e94b58fc7296a0a611f0492,20,Mężczyzna,2022-06-11_09h28.55.775,task,2021.1.4,Linux x86_64,143.8848921,6299f149e92ead563fba08ef,62a44454c9904628c8f1974f,,,,,,,,,,,,,,,,,,,,,,,,,,,,,,,,,,,,,,,,,,,,,,,,,,,,,,,,,,,,,,,,,,,,,,,,,,,,6,0,6,0,1,,,,,,,,,,,,,,,,,,,,,
,,,,,,,,,,,,5e94b58fc7296a0a611f0492,20,Mężczyzna,2022-06-11_09h28.55.775,task,2021.1.4,Linux x86_64,143.8848921,6299f149e92ead563fba08ef,62a44454c9904628c8f1974f,,,,,,,,,,,,,6,,,,,,,,,,Task,13,(3x4) - 6,6,,,,,,,,,,,,,,,,,,1,,,,,,,,,,,,,,,,,,,,,,,,"[""6""]",1,[2.3578999999999724],0,0,0,12,1,,,,,,,,,,,,,,,,,,,,,,,,,,
,,,,,,,,,,,X V Q F H G B L J M P D K C T S W R N Z,5e94b58fc7296a0a611f0492,20,Mężczyzna,2022-06-11_09h28.55.775,task,2021.1.4,Linux x86_64,143.8848921,6299f149e92ead563fba08ef,62a44454c9904628c8f1974f,,,,,,,,,,,,,,,,,,,,,,,,,,,,,,,,,,,,,,,,,,,,,,,,,,,,,,,,,,,,,,,,,,,,,,,,,,,,7,0,7,0,1,,,,,,,,,,,,,,,,,,,,,
,,,,,,,,,,,,5e94b58fc7296a0a611f0492,20,Mężczyzna,2022-06-11_09h28.55.775,task,2021.1.4,Linux x86_64,143.8848921,6299f149e92ead563fba08ef,62a44454c9904628c8f1974f,,,,,,,,,,,,,,,,,,,,,,,,,,,,,,,,,,,,,,,,,,,,,,,,,,,,,,,,,,,,,,,,,,,,,,,,,,,,,,,,,nmdwndcj,"[""n"",""m"",""d"",""w"",""n"",""d"",""c"",""j""]",0,"[1.575800000000072,2.005700000000161,2.457700000000159,2.7134000000000924,3.019700000000057,3.513200000000097,3.751899999999978,3.8834999999999127,4.242200000000139]",0,MNDWMDCJ,8,0,8,0,1,,,,,,,,,,
,,,,,,,,,,,,5e94b58fc7296a0a611f0492,20,Mężczyzna,2022-06-11_09h28.55.775,task,2021.1.4,Linux x86_64,143.8848921,6299f149e92ead563fba08ef,62a44454c9904628c8f1974f,,,,,,,,,,,,,4,,,,,,,,,,Task,21,(10/2) - 1,4,,,,,,,,,,,,,,,,,,1,,,,,,,,,,,,,,,,,,,,,,,,"[""4""]",1,[2.2896999999998116],0,0,0,20,1,,,,,,,,,,,,,,,,,,,,,,,,,,
,,,,,,,,,,,X V Q F H G B L J M P D K C T S W R N Z,5e94b58fc7296a0a611f0492,20,Mężczyzna,2022-06-11_09h28.55.775,task,2021.1.4,Linux x86_64,143.8848921,6299f149e92ead563fba08ef,62a44454c9904628c8f1974f,,,,,,,,,,,,,,,,,,,,,,,,,,,,,,,,,,,,,,,,,,,,,,,,,,,,,,,,,,,,,,,,,,,,,,,,,,,,0,0,0,0,1,,,,,,,,,,,,,,,,,,,,,
,,,,,,,,,,,,5e94b58fc7296a0a611f0492,20,Mężczyzna,2022-06-11_09h28.55.775,task,2021.1.4,Linux x86_64,143.8848921,6299f149e92ead563fba08ef,62a44454c9904628c8f1974f,,,,,,,,,,,,,3,,,,,,,,,,Task,35,(1x2) + 1,3,,,,,,,,,,,,,,,,,,1,,,,,,,,,,,,,,,,,,,,,,,,"[""3""]",1,[2.7004000000001724],0,0,0,34,1,,,,,,,,,,,,,,,,,,,,,,,,,,
,,,,,,,,,,,X V Q F H G B L J M P D K C T S W R N Z,5e94b58fc7296a0a611f0492,20,Mężczyzna,2022-06-11_09h28.55.775,task,2021.1.4,Linux x86_64,143.8848921,6299f149e92ead563fba08ef,62a44454c9904628c8f1974f,,,,,,,,,,,,,,,,,,,,,,,,,,,,,,,,,,,,,,,,,,,,,,,,,,,,,,,,,,,,,,,,,,,,,,,,,,,,1,0,1,0,1,,,,,,,,,,,,,,,,,,,,,
,,,,,,,,,,,,5e94b58fc7296a0a611f0492,20,Mężczyzna,2022-06-11_09h28.55.775,task,2021.1.4,Linux x86_64,143.8848921,6299f149e92ead563fba08ef,62a44454c9904628c8f1974f,,,,,,,,,,,,,,,,,,,,,,,Task,17,(2x3) - 6,0,,,,,,,,,,,,,,,,,,0,,,,,,,,,,,,,,,,,,,,,,,,,0,,0,0,0,16,1,,,,,,,,,,,,,,,,,,,,,,,,,,
,,,,,,,,,,,,5e94b58fc7296a0a611f0492,20,Mężczyzna,2022-06-11_09h28.55.775,task,2021.1.4,Linux x86_64,143.8848921,6299f149e92ead563fba08ef,62a44454c9904628c8f1974f,,,,,,,,,,,,,,,,,,,,,,,Task,16,(3x8) - 15,9,,,,,,,,,,,,,,,,,,0,,,,,,,,,,,,,,,,,,,,,,,,,0,,0,1,1,15,1,,,,,,,,,,,,,,,,,,,,,,,,,,
,,,,,,,,,,,,5e94b58fc7296a0a611f0492,20,Mężczyzna,2022-06-11_09h28.55.775,task,2021.1.4,Linux x86_64,143.8848921,6299f149e92ead563fba08ef,62a44454c9904628c8f1974f,,,,,,,,,,,,,2,,,,,,,,,,Task,10,(2x5) - 8,2,,,,,,,,,,,,,,,,,,1,,,,,,,,,,,,,,,,,,,,,,,,"[""2""]",1,[1.8545999999996639],0,2,2,9,1,,,,,,,,,,,,,,,,,,,,,,,,,,
,,,,,,,,,,,X V Q F H G B L J M P D K C T S W R N Z,5e94b58fc7296a0a611f0492,20,Mężczyzna,2022-06-11_09h28.55.775,task,2021.1.4,Linux x86_64,143.8848921,6299f149e92ead563fba08ef,62a44454c9904628c8f1974f,,,,,,,,,,,,,,,,,,,,,,,,,,,,,,,,,,,,,,,,,,,,,,,,,,,,,,,,,,,,,,,,,,,,,,,,,,,,2,0,2,0,1,,,,,,,,,,,,,,,,,,,,,
,,,,,,,,,,,,5e94b58fc7296a0a611f0492,20,Mężczyzna,2022-06-11_09h28.55.775,task,2021.1.4,Linux x86_64,143.8848921,6299f149e92ead563fba08ef,62a44454c9904628c8f1974f,,,,,,,,,,,,,8,,,,,,,,,,Task,39,(5x3) - 7,8,,,,,,,,,,,,,,,,,,1,,,,,,,,,,,,,,,,,,,,,,,,"[""8""]",1,[3.144399999999905],0,0,0,38,1,,,,,,,,,,,,,,,,,,,,,,,,,,
,,,,,,,,,,,X V Q F H G B L J M P D K C T S W R N Z,5e94b58fc7296a0a611f0492,20,Mężczyzna,2022-06-11_09h28.55.775,task,2021.1.4,Linux x86_64,143.8848921,6299f149e92ead563fba08ef,62a44454c9904628c8f1974f,,,,,,,,,,,,,,,,,,,,,,,,,,,,,,,,,,,,,,,,,,,,,,,,,,,,,,,,,,,,,,,,,,,,,,,,,,,,3,0,3,0,1,,,,,,,,,,,,,,,,,,,,,
,,,,,,,,,,,,5e94b58fc7296a0a611f0492,20,Mężczyzna,2022-06-11_09h28.55.775,task,2021.1.4,Linux x86_64,143.8848921,6299f149e92ead563fba08ef,62a44454c9904628c8f1974f,,,,,,,,,,,,,5,,,,,,,,,,Task,1,(12/6) - 1,1,,,,,,,,,,,,,,,,,,0,,,,,,,,,,,,,,,,,,,,,,,,"[""5""]",0,[2.9801999999997406],0,0,0,0,1,,,,,,,,,,,,,,,,,,,,,,,,,,
,,,,,,,,,,,,5e94b58fc7296a0a611f0492,20,Mężczyzna,2022-06-11_09h28.55.775,task,2021.1.4,Linux x86_64,143.8848921,6299f149e92ead563fba08ef,62a44454c9904628c8f1974f,,,,,,,,,,,,,3,,,,,,,,,,Task,3,(2x3) - 3,3,,,,,,,,,,,,,,,,,,1,,,,,,,,,,,,,,,,,,,,,,,,"[""3""]",1,[1.980099999999993],0,1,1,2,1,,,,,,,,,,,,,,,,,,,,,,,,,,
,,,,,,,,,,,X V Q F H G B L J M P D K C T S W R N Z,5e94b58fc7296a0a611f0492,20,Mężczyzna,2022-06-11_09h28.55.775,task,2021.1.4,Linux x86_64,143.8848921,6299f149e92ead563fba08ef,62a44454c9904628c8f1974f,,,,,,,,,,,,,,,,,,,,,,,,,,,,,,,,,,,,,,,,,,,,,,,,,,,,,,,,,,,,,,,,,,,,,,,,,,,,4,0,4,0,1,,,,,,,,,,,,,,,,,,,,,
,,,,,,,,,,,,5e94b58fc7296a0a611f0492,20,Mężczyzna,2022-06-11_09h28.55.775,task,2021.1.4,Linux x86_64,143.8848921,6299f149e92ead563fba08ef,62a44454c9904628c8f1974f,,,,,,,,,,,,,6,,,,,,,,,,Task,5,(2x3) + 0,6,,,,,,,,,,,,,,,,,,1,,,,,,,,,,,,,,,,,,,,,,,,"[""6""]",1,[2.209300000000212],0,0,0,4,1,,,,,,,,,,,,,,,,,,,,,,,,,,
,,,,,,,,,,,X V Q F H G B L J M P D K C T S W R N Z,5e94b58fc7296a0a611f0492,20,Mężczyzna,2022-06-11_09h28.55.775,task,2021.1.4,Linux x86_64,143.8848921,6299f149e92ead563fba08ef,62a44454c9904628c8f1974f,,,,,,,,,,,,,,,,,,,,,,,,,,,,,,,,,,,,,,,,,,,,,,,,,,,,,,,,,,,,,,,,,,,,,,,,,,,,5,0,5,0,1,,,,,,,,,,,,,,,,,,,,,
,,,,,,,,,,,,5e94b58fc7296a0a611f0492,20,Mężczyzna,2022-06-11_09h28.55.775,task,2021.1.4,Linux x86_64,143.8848921,6299f149e92ead563fba08ef,62a44454c9904628c8f1974f,,,,,,,,,,,,,8,,,,,,,,,,Task,32,(8/2) + 4,8,,,,,,,,,,,,,,,,,,1,,,,,,,,,,,,,,,,,,,,,,,,"[""8""]",1,[2.2505999999998494],0,0,0,31,1,,,,,,,,,,,,,,,,,,,,,,,,,,
,,,,,,,,,,,X V Q F H G B L J M P D K C T S W R N Z,5e94b58fc7296a0a611f0492,20,Mężczyzna,2022-06-11_09h28.55.775,task,2021.1.4,Linux x86_64,143.8848921,6299f149e92ead563fba08ef,62a44454c9904628c8f1974f,,,,,,,,,,,,,,,,,,,,,,,,,,,,,,,,,,,,,,,,,,,,,,,,,,,,,,,,,,,,,,,,,,,,,,,,,,,,6,0,6,0,1,,,,,,,,,,,,,,,,,,,,,
,,,,,,,,,,,,5e94b58fc7296a0a611f0492,20,Mężczyzna,2022-06-11_09h28.55.775,task,2021.1.4,Linux x86_64,143.8848921,6299f149e92ead563fba08ef,62a44454c9904628c8f1974f,,,,,,,,,,,,,2,,,,,,,,,,Task,19,(6/2) - 1,2,,,,,,,,,,,,,,,,,,1,,,,,,,,,,,,,,,,,,,,,,,,"[""2""]",1,[2.0246000000001914],0,0,0,18,1,,,,,,,,,,,,,,,,,,,,,,,,,,
,,,,,,,,,,,X V Q F H G B L J M P D K C T S W R N Z,5e94b58fc7296a0a611f0492,20,Mężczyzna,2022-06-11_09h28.55.775,task,2021.1.4,Linux x86_64,143.8848921,6299f149e92ead563fba08ef,62a44454c9904628c8f1974f,,,,,,,,,,,,,,,,,,,,,,,,,,,,,,,,,,,,,,,,,,,,,,,,,,,,,,,,,,,,,,,,,,,,,,,,,,,,7,0,7,0,1,,,,,,,,,,,,,,,,,,,,,
,,,,,,,,,,,,5e94b58fc7296a0a611f0492,20,Mężczyzna,2022-06-11_09h28.55.775,task,2021.1.4,Linux x86_64,143.8848921,6299f149e92ead563fba08ef,62a44454c9904628c8f1974f,,,,,,,,,,,,,,,,,,,,,,,,,,,,,,,,,,,,,,,,,,,,,,,,,,,,,,,,,,,,,,,,,,,,,,,,,,,,,,,,,jqvzsc,"[""j"",""q"",""v"",""z"",""s"",""c""]",0,"[1.4664999999999964,1.7521999999999025,2.2029999999999745,2.5816999999999553,3.0777999999997974,3.382899999999836,4.257000000000062]",0,BCJQVZSC,9,0,9,0,1,,,,,,,,,,
,,,,,,,,,,,,5e94b58fc7296a0a611f0492,20,Mężczyzna,2022-06-11_09h28.55.775,task,2021.1.4,Linux x86_64,143.8848921,6299f149e92ead563fba08ef,62a44454c9904628c8f1974f,,,,,,,,,,,,,,,,,,,,,,,,,,,,,,,,,,,,,,,,,,,,,,,,,,,,,,,,,,,,,,,,,,,,,,,,,,,,,,,,,,,,,,,,,,,,"[""comma""]",0,[1.7545999999997548],0,0,0,0,1,,
,,,,,,,,,,,,5e94b58fc7296a0a611f0492,20,Mężczyzna,2022-06-11_09h28.55.775,task,2021.1.4,Linux x86_64,143.8848921,6299f149e92ead563fba08ef,62a44454c9904628c8f1974f,,,,,,,,,,,,,,,,,,,,,,,,,,,,,,,,,,,,,,,,,,,,,,,,,,,,,,,,,,,,,,,,,,,,,,,,,,,,,,,,,,,,,,,,,,,,"[""period""]",0,[1.678899999999885],1,0,1,0,1,,
,,,,,,,,,,,,5e94b58fc7296a0a611f0492,20,Mężczyzna,2022-06-11_09h28.55.775,task,2021.1.4,Linux x86_64,143.8848921,6299f149e92ead563fba08ef,62a44454c9904628c8f1974f,,,,,,,,,,,,,,,,,,,,,,,,,,,,,,,,,,,,,,,,,,,,,,,,,,,,,,,,,,,,,,,,,,,,,,,,,,,,,,,,,,,,,,,,,,,,"[""period""]",0,[0.9782999999999902],2,0,2,0,1,,
,,,,,,,,,,,,5e94b58fc7296a0a611f0492,20,Mężczyzna,2022-06-11_09h28.55.775,task,2021.1.4,Linux x86_64,143.8848921,6299f149e92ead563fba08ef,62a44454c9904628c8f1974f,,,,,,,,,,,,,,,,,,,,,,,,,,,,,,,,,,,,,,,,,,,,,,,,,,,,,,,,,,,,,,,,,,,,,,,,,,,,,,,,,,,,,,,,,,,,"[""comma""]",0,[0.28949999999986176],3,0,3,0,1,,
,,,,,,,,,,,,5e94b58fc7296a0a611f0492,20,Mężczyzna,2022-06-11_09h28.55.775,task,2021.1.4,Linux x86_64,143.8848921,6299f149e92ead563fba08ef,62a44454c9904628c8f1974f,,,,,,,,,,,,,,,,,,,,,,,,,,,,,,,,,,,,,,,,,,,,,,,,,,,,,,,,,,,,,,,,,,,,,,,,,,,,,,,,,,,,,,,,,,,,"[""period"",""comma""]",0,"[0.26319999999986976,1.6005999999997584]",4,0,4,0,1,,
,,,,,,,,,,,,5e94b58fc7296a0a611f0492,20,Mężczyzna,2022-06-11_09h28.55.775,task,2021.1.4,Linux x86_64,143.8848921,6299f149e92ead563fba08ef,62a44454c9904628c8f1974f,,,,,,,,,,,,,,,,,,,,,,,,,,,,,,,,,,,,,,,,,,,,,,,,,,,,,,,,,,,,,,,,,,,,,,,,,,,,,,,,,,,,,,,,,,,,,0,,5,0,5,0,1,,
,,,,,,,,,,,,5e94b58fc7296a0a611f0492,20,Mężczyzna,2022-06-11_09h28.55.775,task,2021.1.4,Linux x86_64,143.8848921,6299f149e92ead563fba08ef,62a44454c9904628c8f1974f,,,,,,,,,,,,,,,,,,,,,,,,,,,,,,,,,,,,,,,,,,,,,,,,,,,,,,,,,,,,,,,,,,,,,,,,,,,,,,,,,,,,,,,,,,,,"[""period""]",0,[0.2635999999999967],6,0,6,0,1,,
,,,,,,,,,,,,5e94b58fc7296a0a611f0492,20,Mężczyzna,2022-06-11_09h28.55.775,task,2021.1.4,Linux x86_64,143.8848921,6299f149e92ead563fba08ef,62a44454c9904628c8f1974f,,,,,,,,,,,,,,,,,,,,,,,,,,,,,,,,,,,,,,,,,,,,,,,,,,,,,,,,,,,,,,,,,,,,,,,,,,,,,,,,,,,,,,,,,,,,"[""period""]",0,[0.28899999999998727],7,0,7,0,1,,
,,,,,,,,,,,,5e94b58fc7296a0a611f0492,20,Mężczyzna,2022-06-11_09h28.55.775,task,2021.1.4,Linux x86_64,143.8848921,6299f149e92ead563fba08ef,62a44454c9904628c8f1974f,,,,,,,,,,,,,,,,,,,,,,,,,,,,,,,,,,,,,,,,,,,,,,,,,,,,,,,,,,,,,,,,,,,,,,,,,,,,,,,,,,,,,,,,,,,,"[""comma""]",0,[0.2785999999998694],8,0,8,0,1,,
,,,,,,,,,,,,5e94b58fc7296a0a611f0492,20,Mężczyzna,2022-06-11_09h28.55.775,task,2021.1.4,Linux x86_64,143.8848921,6299f149e92ead563fba08ef,62a44454c9904628c8f1974f,,,,,,,,,,,,,,,,,,,,,,,,,,,,,,,,,,,,,,,,,,,,,,,,,,,,,,,,,,,,,,,,,,,,,,,,,,,,,,,,,,,,,,,,,,,,"[""period""]",0,[0.30910000000017135],9,0,9,0,1,,
,,,,,,,,,,,,5e94b58fc7296a0a611f0492,20,Mężczyzna,2022-06-11_09h28.55.775,task,2021.1.4,Linux x86_64,143.8848921,6299f149e92ead563fba08ef,62a44454c9904628c8f1974f,,,,,,,,,,,,,,,,,,,,,,,,,,,,,,,,,,,,,,,,,,,,,,,,,,,,,,,,,,,,,,,,,,,,,,,,,,,,,,,,,,,,,,,,,,,,"[""period""]",0,[0.30600000000004],10,0,10,0,1,,
,,,,,,,,,,,,5e94b58fc7296a0a611f0492,20,Mężczyzna,2022-06-11_09h28.55.775,task,2021.1.4,Linux x86_64,143.8848921,6299f149e92ead563fba08ef,62a44454c9904628c8f1974f,,,,,,,,,,,,,,,,,,,,,,,,,,,,,,,,,,,,,,,,,,,,,,,,,,,,,,,,,,,,,,,,,,,,,,,,,,,,,,,,,,,,,,,,,,,,"[""comma""]",0,[0.34110000000009677],11,0,11,0,1,,
,,,,,,,,,,,,5e94b58fc7296a0a611f0492,20,Mężczyzna,2022-06-11_09h28.55.775,task,2021.1.4,Linux x86_64,143.8848921,6299f149e92ead563fba08ef,62a44454c9904628c8f1974f,,,,,,,,,,,,,,,,,,,,,,,,,,,,,,,,,,,,,,,,,,,,,,,,,,,,,,,,,,,,,,,,,,,,,,,,,,,,,,,,,,,,,,,,,,,,"[""comma""]",0,[0.2775000000001455],12,0,12,0,1,,
,,,,,,,,,,,,5e94b58fc7296a0a611f0492,20,Mężczyzna,2022-06-11_09h28.55.775,task,2021.1.4,Linux x86_64,143.8848921,6299f149e92ead563fba08ef,62a44454c9904628c8f1974f,,,,,,,,,,,,,,,,,,,,,,,,,,,,,,,,,,,,,,,,,,,,,,,,,,,,,,,,,,,,,,,,,,,,,,,,,,,,,,,,,,,,,,,,,,,,"[""period""]",0,[0.2562000000000353],13,0,13,0,1,,
,,,,,,,,,,,,5e94b58fc7296a0a611f0492,20,Mężczyzna,2022-06-11_09h28.55.775,task,2021.1.4,Linux x86_64,143.8848921,6299f149e92ead563fba08ef,62a44454c9904628c8f1974f,,,,,,,,,,,,,,,,,,,,,,,,,,,,,,,,,,,,,,,,,,,,,,,,,,,,,,,,,,,,,,,,,,,,,,,,,,,,,,,,,,,,,,,,,,,,"[""period""]",0,[0.24400000000014188],14,0,14,0,1,,
,,,,,,,,,,,,5e94b58fc7296a0a611f0492,20,Mężczyzna,2022-06-11_09h28.55.775,task,2021.1.4,Linux x86_64,143.8848921,6299f149e92ead563fba08ef,62a44454c9904628c8f1974f,,,,,,,,,,,,,,,,,,,,,,,,,,,,,,,,,,,,,,,,,,,,,,,,,,,,,,,,,,,,,,,,,,,,,,,,,,,,,,,,,,,,,,,,,,,,"[""comma""]",0,[0.29960000000005493],15,0,15,0,1,,
,,,,,,,,,,,,5e94b58fc7296a0a611f0492,20,Mężczyzna,2022-06-11_09h28.55.775,task,2021.1.4,Linux x86_64,143.8848921,6299f149e92ead563fba08ef,62a44454c9904628c8f1974f,,,,,,,,,,,,,,,,,,,,,,,,,,,,,,,,,,,,,,,,,,,,,,,,,,,,,,,,,,,,,,,,,,,,,,,,,,,,,,,,,,,,,,,,,,,,"[""period""]",0,[0.2584999999999127],16,0,16,0,1,,
,,,,,,,,,,,,5e94b58fc7296a0a611f0492,20,Mężczyzna,2022-06-11_09h28.55.775,task,2021.1.4,Linux x86_64,143.8848921,6299f149e92ead563fba08ef,62a44454c9904628c8f1974f,,,,,,,,,,,,,,,,,,,,,,,,,,,,,,,,,,,,,,,,,,,,,,,,,,,,,,,,,,,,,,,,,,,,,,,,,,,,,,,,,,,,,,,,,,,,"[""period""]",0,[0.27350000000001273],17,0,17,0,1,,
,,,,,,,,,,,,5e94b58fc7296a0a611f0492,20,Mężczyzna,2022-06-11_09h28.55.775,task,2021.1.4,Linux x86_64,143.8848921,6299f149e92ead563fba08ef,62a44454c9904628c8f1974f,,,,,,,,,,,,,,,,,,,,,,,,,,,,,,,,,,,,,,,,,,,,,,,,,,,,,,,,,,,,,,,,,,,,,,,,,,,,,,,,,,,,,,,,,,,,"[""period""]",0,[0.22970000000032087],18,0,18,0,1,,
,,,,,,,,,,,,5e94b58fc7296a0a611f0492,20,Mężczyzna,2022-06-11_09h28.55.775,task,2021.1.4,Linux x86_64,143.8848921,6299f149e92ead563fba08ef,62a44454c9904628c8f1974f,,,,,,,,,,,,,,,,,,,,,,,,,,,,,,,,,,,,,,,,,,,,,,,,,,,,,,,,,,,,,,,,,,,,,,,,,,,,,,,,,,,,,,,,,,,,"[""comma""]",0,[0.31270000000017717],19,0,19,0,1,,
,,,,,,,,,,,,5e94b58fc7296a0a611f0492,20,Mężczyzna,2022-06-11_09h28.55.775,task,2021.1.4,Linux x86_64,143.8848921,6299f149e92ead563fba08ef,62a44454c9904628c8f1974f,,,,,,,,,,,,,,,,,,,,,,,,,,,,,,,,,,,,,,,,,,,,,,,,,,,,,,,,,,,,,,,,,,,,,,,,,,,,,,,,,,,,,,,,,,,,"[""comma""]",0,[0.2955999999996948],20,0,20,0,1,,
,,,,,,,,,,,,5e94b58fc7296a0a611f0492,20,Mężczyzna,2022-06-11_09h28.55.775,task,2021.1.4,Linux x86_64,143.8848921,6299f149e92ead563fba08ef,62a44454c9904628c8f1974f,,,,,,,,,,,,,,,,,,,,,,,,,,,,,,,,,,,,,,,,,,,,,,,,,,,,,,,,,,,,,,,,,,,,,,,,,,,,,,,,,,,,,,,,,,,,"[""comma""]",0,[0.2856000000001586],21,0,21,0,1,,
,,,,,,,,,,,,5e94b58fc7296a0a611f0492,20,Mężczyzna,2022-06-11_09h28.55.775,task,2021.1.4,Linux x86_64,143.8848921,6299f149e92ead563fba08ef,62a44454c9904628c8f1974f,,,,,,,,,,,,,,,,,,,,,,,,,,,,,,,,,,,,,,,,,,,,,,,,,,,,,,,,,,,,,,,,,,,,,,,,,,,,,,,,,,,,,,,,,,,,"[""comma""]",0,[0.37189999999986867],22,0,22,0,1,,
,,,,,,,,,,,,5e94b58fc7296a0a611f0492,20,Mężczyzna,2022-06-11_09h28.55.775,task,2021.1.4,Linux x86_64,143.8848921,6299f149e92ead563fba08ef,62a44454c9904628c8f1974f,,,,,,,,,,,,,,,,,,,,,,,,,,,,,,,,,,,,,,,,,,,,,,,,,,,,,,,,,,,,,,,,,,,,,,,,,,,,,,,,,,,,,,,,,,,,"[""comma""]",0,[0.3261999999999716],23,0,23,0,1,,
,,,,,,,,,,,,5e94b58fc7296a0a611f0492,20,Mężczyzna,2022-06-11_09h28.55.775,task,2021.1.4,Linux x86_64,143.8848921,6299f149e92ead563fba08ef,62a44454c9904628c8f1974f,,,,,,,,,,,,,,,,,,,,,,,,,,,,,,,,,,,,,,,,,,,,,,,,,,,,,,,,,,,,,,,,,,,,,,,,,,,,,,,,,,,,,,,,,,,,"[""period""]",0,[0.2717000000000098],24,0,24,0,1,,
,,,,,,,,,,,,5e94b58fc7296a0a611f0492,20,Mężczyzna,2022-06-11_09h28.55.775,task,2021.1.4,Linux x86_64,143.8848921,6299f149e92ead563fba08ef,62a44454c9904628c8f1974f,,,,,,,,,,,,,,,,,,,,,,,,,,,,,,,,,,,,,,,,,,,,,,,,,,,,,,,,,,,,,,,,,,,,,,,,,,,,,,,,,,,,,,,,,,,,"[""period""]",0,[0.27089999999998327],25,0,25,0,1,,
,,,,,,,,,,,,5e94b58fc7296a0a611f0492,20,Mężczyzna,2022-06-11_09h28.55.775,task,2021.1.4,Linux x86_64,143.8848921,6299f149e92ead563fba08ef,62a44454c9904628c8f1974f,,,,,,,,,,,,,,,,,,,,,,,,,,,,,,,,,,,,,,,,,,,,,,,,,,,,,,,,,,,,,,,,,,,,,,,,,,,,,,,,,,,,,,,,,,,,"[""period""]",0,[0.33930000000009386],26,0,26,0,1,,
,,,,,,,,,,,,5e94b58fc7296a0a611f0492,20,Mężczyzna,2022-06-11_09h28.55.775,task,2021.1.4,Linux x86_64,143.8848921,6299f149e92ead563fba08ef,62a44454c9904628c8f1974f,,,,,,,,,,,,,,,,,,,,,,,,,,,,,,,,,,,,,,,,,,,,,,,,,,,,,,,,,,,,,,,,,,,,,,,,,,,,,,,,,,,,,,,,,,,,"[""comma""]",0,[0.3187000000000353],27,0,27,0,1,,
,,,,,,,,,,,,5e94b58fc7296a0a611f0492,20,Mężczyzna,2022-06-11_09h28.55.775,task,2021.1.4,Linux x86_64,143.8848921,6299f149e92ead563fba08ef,62a44454c9904628c8f1974f,,,,,,,,,,,,,,,,,,,,,,,,,,,,,,,,,,,,,,,,,,,,,,,,,,,,,,,,,,,,,,,,,,,,,,,,,,,,,,,,,,,,,,,,,,,,"[""period""]",0,[0.21529999999984284],28,0,28,0,1,,
,,,,,,,,,,,,5e94b58fc7296a0a611f0492,20,Mężczyzna,2022-06-11_09h28.55.775,task,2021.1.4,Linux x86_64,143.8848921,6299f149e92ead563fba08ef,62a44454c9904628c8f1974f,,,,,,,,,,,,,,,,,,,,,,,,,,,,,,,,,,,,,,,,,,,,,,,,,,,,,,,,,,,,,,,,,,,,,,,,,,,,,,,,,,,,,,,,,,,,"[""comma""]",0,[0.31779999999980646],29,0,29,0,1,,
,,,,,,,,,,,,5e94b58fc7296a0a611f0492,20,Mężczyzna,2022-06-11_09h28.55.775,task,2021.1.4,Linux x86_64,143.8848921,6299f149e92ead563fba08ef,62a44454c9904628c8f1974f,,,,,,,,,,,,,,,,,,,,,,,,,,,,,,,,,,,,,,,,,,,,,,,,,,,,,,,,,,,,,,,,,,,,,,,,,,,,,,,,,,,,,,,,,,,,"[""period""]",0,[0.2638999999999214],30,0,30,0,1,,
,,,,,,,,,,,,5e94b58fc7296a0a611f0492,20,Mężczyzna,2022-06-11_09h28.55.775,task,2021.1.4,Linux x86_64,143.8848921,6299f149e92ead563fba08ef,62a44454c9904628c8f1974f,,,,,,,,,,,,,,,,,,,,,,,,,,,,,,,,,,,,,,,,,,,,,,,,,,,,,,,,,,,,,,,,,,,,,,,,,,,,,,,,,,,,,,,,,,,,"[""period""]",0,[0.3346999999998843],31,0,31,0,1,,
,,,,,,,,,,,,5e94b58fc7296a0a611f0492,20,Mężczyzna,2022-06-11_09h28.55.775,task,2021.1.4,Linux x86_64,143.8848921,6299f149e92ead563fba08ef,62a44454c9904628c8f1974f,,,,,,,,,,,,,,,,,,,,,,,,,,,,,,,,,,,,,,,,,,,,,,,,,,,,,,,,,,,,,,,,,,,,,,,,,,,,,,,,,,,,,,,,,,,,"[""comma""]",0,[0.2596000000000913],32,0,32,0,1,,
