key_resp_15.keys,key_resp_15.rt,key_resp_13.keys,key_resp_13.corr,key_resp_13.rt,ranodm_loop.thisRepN,ranodm_loop.thisTrialN,ranodm_loop.thisN,ranodm_loop.thisIndex,ranodm_loop.ran,participant,Wiek*,Płeć,date,expName,psychopyVersion,OS,frameRate,study_id,session,key_resp_16.keys,key_resp_16.rt,key_resp_4.keys,key_resp_4.rt,next_letter.thisRepN,next_letter.thisTrialN,next_letter.thisN,next_letter.thisIndex,next_letter.ran,letter,simple_recall,key_resp_5.keys,key_resp_5.rt,simple_recall_corr,simple_recall_corrkeys,next_level.thisRepN,next_level.thisTrialN,next_level.thisN,next_level.thisIndex,next_level.ran,key_resp_2.keys,key_resp_2.rt,digit_answer,key_resp.keys,key_resp.corr,key_resp.rt,RT_list,next_equation.thisRepN,next_equation.thisTrialN,next_equation.thisN,next_equation.thisIndex,next_equation.ran,Task,Trial,Problem,Operation_answer,processing_score,sumRT,meanRT,sumdiff,sd,RT,key_resp_3.keys,key_resp_3.rt,repeat_practice.thisRepN,repeat_practice.thisTrialN,repeat_practice.thisN,repeat_practice.thisIndex,repeat_practice.ran,key_resp_6.keys,key_resp_6.rt,key_resp_11.keys,key_resp_11.corr,key_resp_11.rt,operation_correct,repeat_if_wrong_prac.thisRepN,repeat_if_wrong_prac.thisTrialN,repeat_if_wrong_prac.thisN,repeat_if_wrong_prac.thisIndex,repeat_if_wrong_prac.ran,span_size_prac.thisRepN,span_size_prac.thisTrialN,span_size_prac.thisN,span_size_prac.thisIndex,span_size_prac.ran,complex_recall_practice,key_resp_9.keys,key_resp_9.corr,key_resp_9.rt,complex_prac_corr,span_recall_prac.thisRepN,span_recall_prac.thisTrialN,span_recall_prac.thisN,span_recall_prac.thisIndex,span_recall_prac.ran,key_resp_10.keys,key_resp_10.rt,key_resp_7.keys,key_resp_7.corr,key_resp_7.rt,repeat_if_wrong.thisRepN,repeat_if_wrong.thisTrialN,repeat_if_wrong.thisN,repeat_if_wrong.thisIndex,repeat_if_wrong.ran,span_size.thisRepN,span_size.thisTrialN,span_size.thisN,span_size.thisIndex,span_size.ran,complex_recall,key_resp_8.keys,key_resp_8.corr,key_resp_8.rt,complex_recall_corr,complex_recall_corrkeys,span_recall.thisRepN,span_recall.thisTrialN,span_recall.thisN,span_recall.thisIndex,span_recall.ran,key_resp_12.keys,key_resp_12.rt
space,18.476,"[""period""]",0,[1.2730000000000246],0,0,0,0,1,5e98b398e4a84f0eb3755e51,26,Mężczyzna,2022-05-28_09h30.48.773,task,2021.1.4,Win32,60.0240096,628b806c463b948bc644b84f,6291cefdf7e558bc8a439aba,,,,,,,,,,,,,,,,,,,,,,,,,,,,,,,,,,,,,,,,,,,,,,,,,,,,,,,,,,,,,,,,,,,,,,,,,,,,,,,,,,,,,,,,,,,,,,,,,,,,,,,
,,"[""period""]",0,[1.0489999999999782],1,0,1,0,1,5e98b398e4a84f0eb3755e51,26,Mężczyzna,2022-05-28_09h30.48.773,task,2021.1.4,Win32,60.0240096,628b806c463b948bc644b84f,6291cefdf7e558bc8a439aba,,,,,,,,,,,,,,,,,,,,,,,,,,,,,,,,,,,,,,,,,,,,,,,,,,,,,,,,,,,,,,,,,,,,,,,,,,,,,,,,,,,,,,,,,,,,,,,,,,,,,,,
,,"[""comma""]",0,[0.9710000000000036],2,0,2,0,1,5e98b398e4a84f0eb3755e51,26,Mężczyzna,2022-05-28_09h30.48.773,task,2021.1.4,Win32,60.0240096,628b806c463b948bc644b84f,6291cefdf7e558bc8a439aba,,,,,,,,,,,,,,,,,,,,,,,,,,,,,,,,,,,,,,,,,,,,,,,,,,,,,,,,,,,,,,,,,,,,,,,,,,,,,,,,,,,,,,,,,,,,,,,,,,,,,,,
,,"[""period""]",0,[0.9729999999999848],3,0,3,0,1,5e98b398e4a84f0eb3755e51,26,Mężczyzna,2022-05-28_09h30.48.773,task,2021.1.4,Win32,60.0240096,628b806c463b948bc644b84f,6291cefdf7e558bc8a439aba,,,,,,,,,,,,,,,,,,,,,,,,,,,,,,,,,,,,,,,,,,,,,,,,,,,,,,,,,,,,,,,,,,,,,,,,,,,,,,,,,,,,,,,,,,,,,,,,,,,,,,,
,,"[""comma""]",0,[0.9720000000000084],4,0,4,0,1,5e98b398e4a84f0eb3755e51,26,Mężczyzna,2022-05-28_09h30.48.773,task,2021.1.4,Win32,60.0240096,628b806c463b948bc644b84f,6291cefdf7e558bc8a439aba,,,,,,,,,,,,,,,,,,,,,,,,,,,,,,,,,,,,,,,,,,,,,,,,,,,,,,,,,,,,,,,,,,,,,,,,,,,,,,,,,,,,,,,,,,,,,,,,,,,,,,,
,,"[""comma""]",0,[0.8179999999999836],5,0,5,0,1,5e98b398e4a84f0eb3755e51,26,Mężczyzna,2022-05-28_09h30.48.773,task,2021.1.4,Win32,60.0240096,628b806c463b948bc644b84f,6291cefdf7e558bc8a439aba,,,,,,,,,,,,,,,,,,,,,,,,,,,,,,,,,,,,,,,,,,,,,,,,,,,,,,,,,,,,,,,,,,,,,,,,,,,,,,,,,,,,,,,,,,,,,,,,,,,,,,,
,,"[""comma""]",0,[0.9020000000000152],6,0,6,0,1,5e98b398e4a84f0eb3755e51,26,Mężczyzna,2022-05-28_09h30.48.773,task,2021.1.4,Win32,60.0240096,628b806c463b948bc644b84f,6291cefdf7e558bc8a439aba,,,,,,,,,,,,,,,,,,,,,,,,,,,,,,,,,,,,,,,,,,,,,,,,,,,,,,,,,,,,,,,,,,,,,,,,,,,,,,,,,,,,,,,,,,,,,,,,,,,,,,,
,,"[""comma""]",0,[0.9520000000000266],7,0,7,0,1,5e98b398e4a84f0eb3755e51,26,Mężczyzna,2022-05-28_09h30.48.773,task,2021.1.4,Win32,60.0240096,628b806c463b948bc644b84f,6291cefdf7e558bc8a439aba,,,,,,,,,,,,,,,,,,,,,,,,,,,,,,,,,,,,,,,,,,,,,,,,,,,,,,,,,,,,,,,,,,,,,,,,,,,,,,,,,,,,,,,,,,,,,,,,,,,,,,,
,,"[""period""]",0,[0.8529999999999802],8,0,8,0,1,5e98b398e4a84f0eb3755e51,26,Mężczyzna,2022-05-28_09h30.48.773,task,2021.1.4,Win32,60.0240096,628b806c463b948bc644b84f,6291cefdf7e558bc8a439aba,,,,,,,,,,,,,,,,,,,,,,,,,,,,,,,,,,,,,,,,,,,,,,,,,,,,,,,,,,,,,,,,,,,,,,,,,,,,,,,,,,,,,,,,,,,,,,,,,,,,,,,
,,"[""period""]",0,[0.7179999999999893],9,0,9,0,1,5e98b398e4a84f0eb3755e51,26,Mężczyzna,2022-05-28_09h30.48.773,task,2021.1.4,Win32,60.0240096,628b806c463b948bc644b84f,6291cefdf7e558bc8a439aba,,,,,,,,,,,,,,,,,,,,,,,,,,,,,,,,,,,,,,,,,,,,,,,,,,,,,,,,,,,,,,,,,,,,,,,,,,,,,,,,,,,,,,,,,,,,,,,,,,,,,,,
,,"[""comma""]",0,[0.6349999999999909],10,0,10,0,1,5e98b398e4a84f0eb3755e51,26,Mężczyzna,2022-05-28_09h30.48.773,task,2021.1.4,Win32,60.0240096,628b806c463b948bc644b84f,6291cefdf7e558bc8a439aba,,,,,,,,,,,,,,,,,,,,,,,,,,,,,,,,,,,,,,,,,,,,,,,,,,,,,,,,,,,,,,,,,,,,,,,,,,,,,,,,,,,,,,,,,,,,,,,,,,,,,,,
,,"[""comma""]",0,[0.6090000000000089],11,0,11,0,1,5e98b398e4a84f0eb3755e51,26,Mężczyzna,2022-05-28_09h30.48.773,task,2021.1.4,Win32,60.0240096,628b806c463b948bc644b84f,6291cefdf7e558bc8a439aba,,,,,,,,,,,,,,,,,,,,,,,,,,,,,,,,,,,,,,,,,,,,,,,,,,,,,,,,,,,,,,,,,,,,,,,,,,,,,,,,,,,,,,,,,,,,,,,,,,,,,,,
,,"[""period""]",0,[0.4519999999999982],12,0,12,0,1,5e98b398e4a84f0eb3755e51,26,Mężczyzna,2022-05-28_09h30.48.773,task,2021.1.4,Win32,60.0240096,628b806c463b948bc644b84f,6291cefdf7e558bc8a439aba,,,,,,,,,,,,,,,,,,,,,,,,,,,,,,,,,,,,,,,,,,,,,,,,,,,,,,,,,,,,,,,,,,,,,,,,,,,,,,,,,,,,,,,,,,,,,,,,,,,,,,,
,,"[""comma""]",0,[0.3230000000000075],13,0,13,0,1,5e98b398e4a84f0eb3755e51,26,Mężczyzna,2022-05-28_09h30.48.773,task,2021.1.4,Win32,60.0240096,628b806c463b948bc644b84f,6291cefdf7e558bc8a439aba,,,,,,,,,,,,,,,,,,,,,,,,,,,,,,,,,,,,,,,,,,,,,,,,,,,,,,,,,,,,,,,,,,,,,,,,,,,,,,,,,,,,,,,,,,,,,,,,,,,,,,,
,,"[""period""]",0,[0.13100000000000023],14,0,14,0,1,5e98b398e4a84f0eb3755e51,26,Mężczyzna,2022-05-28_09h30.48.773,task,2021.1.4,Win32,60.0240096,628b806c463b948bc644b84f,6291cefdf7e558bc8a439aba,,,,,,,,,,,,,,,,,,,,,,,,,,,,,,,,,,,,,,,,,,,,,,,,,,,,,,,,,,,,,,,,,,,,,,,,,,,,,,,,,,,,,,,,,,,,,,,,,,,,,,,
,,"[""comma""]",0,[0.03499999999999659],15,0,15,0,1,5e98b398e4a84f0eb3755e51,26,Mężczyzna,2022-05-28_09h30.48.773,task,2021.1.4,Win32,60.0240096,628b806c463b948bc644b84f,6291cefdf7e558bc8a439aba,,,,,,,,,,,,,,,,,,,,,,,,,,,,,,,,,,,,,,,,,,,,,,,,,,,,,,,,,,,,,,,,,,,,,,,,,,,,,,,,,,,,,,,,,,,,,,,,,,,,,,,
,,"[""period"",""period""]",0,"[0.08400000000000318,1.8009999999999877]",16,0,16,0,1,5e98b398e4a84f0eb3755e51,26,Mężczyzna,2022-05-28_09h30.48.773,task,2021.1.4,Win32,60.0240096,628b806c463b948bc644b84f,6291cefdf7e558bc8a439aba,,,,,,,,,,,,,,,,,,,,,,,,,,,,,,,,,,,,,,,,,,,,,,,,,,,,,,,,,,,,,,,,,,,,,,,,,,,,,,,,,,,,,,,,,,,,,,,,,,,,,,,
,,"[""period""]",0,[1.8839999999999861],17,0,17,0,1,5e98b398e4a84f0eb3755e51,26,Mężczyzna,2022-05-28_09h30.48.773,task,2021.1.4,Win32,60.0240096,628b806c463b948bc644b84f,6291cefdf7e558bc8a439aba,,,,,,,,,,,,,,,,,,,,,,,,,,,,,,,,,,,,,,,,,,,,,,,,,,,,,,,,,,,,,,,,,,,,,,,,,,,,,,,,,,,,,,,,,,,,,,,,,,,,,,,
,,"[""comma""]",0,[1.6999999999999886],18,0,18,0,1,5e98b398e4a84f0eb3755e51,26,Mężczyzna,2022-05-28_09h30.48.773,task,2021.1.4,Win32,60.0240096,628b806c463b948bc644b84f,6291cefdf7e558bc8a439aba,,,,,,,,,,,,,,,,,,,,,,,,,,,,,,,,,,,,,,,,,,,,,,,,,,,,,,,,,,,,,,,,,,,,,,,,,,,,,,,,,,,,,,,,,,,,,,,,,,,,,,,
,,"[""period""]",0,[1.399000000000001],19,0,19,0,1,5e98b398e4a84f0eb3755e51,26,Mężczyzna,2022-05-28_09h30.48.773,task,2021.1.4,Win32,60.0240096,628b806c463b948bc644b84f,6291cefdf7e558bc8a439aba,,,,,,,,,,,,,,,,,,,,,,,,,,,,,,,,,,,,,,,,,,,,,,,,,,,,,,,,,,,,,,,,,,,,,,,,,,,,,,,,,,,,,,,,,,,,,,,,,,,,,,,
,,"[""period""]",0,[1.2849999999999966],20,0,20,0,1,5e98b398e4a84f0eb3755e51,26,Mężczyzna,2022-05-28_09h30.48.773,task,2021.1.4,Win32,60.0240096,628b806c463b948bc644b84f,6291cefdf7e558bc8a439aba,,,,,,,,,,,,,,,,,,,,,,,,,,,,,,,,,,,,,,,,,,,,,,,,,,,,,,,,,,,,,,,,,,,,,,,,,,,,,,,,,,,,,,,,,,,,,,,,,,,,,,,
,,"[""period""]",0,[1.1659999999999968],21,0,21,0,1,5e98b398e4a84f0eb3755e51,26,Mężczyzna,2022-05-28_09h30.48.773,task,2021.1.4,Win32,60.0240096,628b806c463b948bc644b84f,6291cefdf7e558bc8a439aba,,,,,,,,,,,,,,,,,,,,,,,,,,,,,,,,,,,,,,,,,,,,,,,,,,,,,,,,,,,,,,,,,,,,,,,,,,,,,,,,,,,,,,,,,,,,,,,,,,,,,,,
,,"[""comma""]",0,[1.0060000000000002],22,0,22,0,1,5e98b398e4a84f0eb3755e51,26,Mężczyzna,2022-05-28_09h30.48.773,task,2021.1.4,Win32,60.0240096,628b806c463b948bc644b84f,6291cefdf7e558bc8a439aba,,,,,,,,,,,,,,,,,,,,,,,,,,,,,,,,,,,,,,,,,,,,,,,,,,,,,,,,,,,,,,,,,,,,,,,,,,,,,,,,,,,,,,,,,,,,,,,,,,,,,,,
,,"[""period""]",0,[0.6740000000000066],23,0,23,0,1,5e98b398e4a84f0eb3755e51,26,Mężczyzna,2022-05-28_09h30.48.773,task,2021.1.4,Win32,60.0240096,628b806c463b948bc644b84f,6291cefdf7e558bc8a439aba,,,,,,,,,,,,,,,,,,,,,,,,,,,,,,,,,,,,,,,,,,,,,,,,,,,,,,,,,,,,,,,,,,,,,,,,,,,,,,,,,,,,,,,,,,,,,,,,,,,,,,,
,,"[""comma""]",0,[0.5250000000000057],24,0,24,0,1,5e98b398e4a84f0eb3755e51,26,Mężczyzna,2022-05-28_09h30.48.773,task,2021.1.4,Win32,60.0240096,628b806c463b948bc644b84f,6291cefdf7e558bc8a439aba,,,,,,,,,,,,,,,,,,,,,,,,,,,,,,,,,,,,,,,,,,,,,,,,,,,,,,,,,,,,,,,,,,,,,,,,,,,,,,,,,,,,,,,,,,,,,,,,,,,,,,,
,,"[""period""]",0,[0.45400000000000773],25,0,25,0,1,5e98b398e4a84f0eb3755e51,26,Mężczyzna,2022-05-28_09h30.48.773,task,2021.1.4,Win32,60.0240096,628b806c463b948bc644b84f,6291cefdf7e558bc8a439aba,,,,,,,,,,,,,,,,,,,,,,,,,,,,,,,,,,,,,,,,,,,,,,,,,,,,,,,,,,,,,,,,,,,,,,,,,,,,,,,,,,,,,,,,,,,,,,,,,,,,,,,
,,"[""comma""]",0,[0.28600000000000136],26,0,26,0,1,5e98b398e4a84f0eb3755e51,26,Mężczyzna,2022-05-28_09h30.48.773,task,2021.1.4,Win32,60.0240096,628b806c463b948bc644b84f,6291cefdf7e558bc8a439aba,,,,,,,,,,,,,,,,,,,,,,,,,,,,,,,,,,,,,,,,,,,,,,,,,,,,,,,,,,,,,,,,,,,,,,,,,,,,,,,,,,,,,,,,,,,,,,,,,,,,,,,
,,"[""comma""]",0,[0.25200000000000955],27,0,27,0,1,5e98b398e4a84f0eb3755e51,26,Mężczyzna,2022-05-28_09h30.48.773,task,2021.1.4,Win32,60.0240096,628b806c463b948bc644b84f,6291cefdf7e558bc8a439aba,,,,,,,,,,,,,,,,,,,,,,,,,,,,,,,,,,,,,,,,,,,,,,,,,,,,,,,,,,,,,,,,,,,,,,,,,,,,,,,,,,,,,,,,,,,,,,,,,,,,,,,
,,"[""period""]",0,[0.21700000000001296],28,0,28,0,1,5e98b398e4a84f0eb3755e51,26,Mężczyzna,2022-05-28_09h30.48.773,task,2021.1.4,Win32,60.0240096,628b806c463b948bc644b84f,6291cefdf7e558bc8a439aba,,,,,,,,,,,,,,,,,,,,,,,,,,,,,,,,,,,,,,,,,,,,,,,,,,,,,,,,,,,,,,,,,,,,,,,,,,,,,,,,,,,,,,,,,,,,,,,,,,,,,,,
,,"[""period""]",0,[0.0519999999999925],29,0,29,0,1,5e98b398e4a84f0eb3755e51,26,Mężczyzna,2022-05-28_09h30.48.773,task,2021.1.4,Win32,60.0240096,628b806c463b948bc644b84f,6291cefdf7e558bc8a439aba,,,,,,,,,,,,,,,,,,,,,,,,,,,,,,,,,,,,,,,,,,,,,,,,,,,,,,,,,,,,,,,,,,,,,,,,,,,,,,,,,,,,,,,,,,,,,,,,,,,,,,,
,,"[""comma""]",0,[0.03999999999999204],30,0,30,0,1,5e98b398e4a84f0eb3755e51,26,Mężczyzna,2022-05-28_09h30.48.773,task,2021.1.4,Win32,60.0240096,628b806c463b948bc644b84f,6291cefdf7e558bc8a439aba,,,,,,,,,,,,,,,,,,,,,,,,,,,,,,,,,,,,,,,,,,,,,,,,,,,,,,,,,,,,,,,,,,,,,,,,,,,,,,,,,,,,,,,,,,,,,,,,,,,,,,,
,,"[""period""]",0,[0.003999999999990678],31,0,31,0,1,5e98b398e4a84f0eb3755e51,26,Mężczyzna,2022-05-28_09h30.48.773,task,2021.1.4,Win32,60.0240096,628b806c463b948bc644b84f,6291cefdf7e558bc8a439aba,,,,,,,,,,,,,,,,,,,,,,,,,,,,,,,,,,,,,,,,,,,,,,,,,,,,,,,,,,,,,,,,,,,,,,,,,,,,,,,,,,,,,,,,,,,,,,,,,,,,,,,
,,"[""period"",""period""]",0,"[0.051000000000016144,1.9749999999999943]",32,0,32,0,1,5e98b398e4a84f0eb3755e51,26,Mężczyzna,2022-05-28_09h30.48.773,task,2021.1.4,Win32,60.0240096,628b806c463b948bc644b84f,6291cefdf7e558bc8a439aba,,,,,,,,,,,,,,,,,,,,,,,,,,,,,,,,,,,,,,,,,,,,,,,,,,,,,,,,,,,,,,,,,,,,,,,,,,,,,,,,,,,,,,,,,,,,,,,,,,,,,,,
,,"[""period""]",0,[1.9170000000000016],33,0,33,0,1,5e98b398e4a84f0eb3755e51,26,Mężczyzna,2022-05-28_09h30.48.773,task,2021.1.4,Win32,60.0240096,628b806c463b948bc644b84f,6291cefdf7e558bc8a439aba,,,,,,,,,,,,,,,,,,,,,,,,,,,,,,,,,,,,,,,,,,,,,,,,,,,,,,,,,,,,,,,,,,,,,,,,,,,,,,,,,,,,,,,,,,,,,,,,,,,,,,,
,,"[""comma""]",0,[1.9190000000000111],34,0,34,0,1,5e98b398e4a84f0eb3755e51,26,Mężczyzna,2022-05-28_09h30.48.773,task,2021.1.4,Win32,60.0240096,628b806c463b948bc644b84f,6291cefdf7e558bc8a439aba,,,,,,,,,,,,,,,,,,,,,,,,,,,,,,,,,,,,,,,,,,,,,,,,,,,,,,,,,,,,,,,,,,,,,,,,,,,,,,,,,,,,,,,,,,,,,,,,,,,,,,,
,,"[""period""]",0,[1.8329999999999984],35,0,35,0,1,5e98b398e4a84f0eb3755e51,26,Mężczyzna,2022-05-28_09h30.48.773,task,2021.1.4,Win32,60.0240096,628b806c463b948bc644b84f,6291cefdf7e558bc8a439aba,,,,,,,,,,,,,,,,,,,,,,,,,,,,,,,,,,,,,,,,,,,,,,,,,,,,,,,,,,,,,,,,,,,,,,,,,,,,,,,,,,,,,,,,,,,,,,,,,,,,,,,
,,"[""comma""]",0,[1.600999999999999],36,0,36,0,1,5e98b398e4a84f0eb3755e51,26,Mężczyzna,2022-05-28_09h30.48.773,task,2021.1.4,Win32,60.0240096,628b806c463b948bc644b84f,6291cefdf7e558bc8a439aba,,,,,,,,,,,,,,,,,,,,,,,,,,,,,,,,,,,,,,,,,,,,,,,,,,,,,,,,,,,,,,,,,,,,,,,,,,,,,,,,,,,,,,,,,,,,,,,,,,,,,,,
,,"[""period""]",0,[1.2660000000000196],37,0,37,0,1,5e98b398e4a84f0eb3755e51,26,Mężczyzna,2022-05-28_09h30.48.773,task,2021.1.4,Win32,60.0240096,628b806c463b948bc644b84f,6291cefdf7e558bc8a439aba,,,,,,,,,,,,,,,,,,,,,,,,,,,,,,,,,,,,,,,,,,,,,,,,,,,,,,,,,,,,,,,,,,,,,,,,,,,,,,,,,,,,,,,,,,,,,,,,,,,,,,,
,,"[""comma""]",0,[0.8540000000000134],38,0,38,0,1,5e98b398e4a84f0eb3755e51,26,Mężczyzna,2022-05-28_09h30.48.773,task,2021.1.4,Win32,60.0240096,628b806c463b948bc644b84f,6291cefdf7e558bc8a439aba,,,,,,,,,,,,,,,,,,,,,,,,,,,,,,,,,,,,,,,,,,,,,,,,,,,,,,,,,,,,,,,,,,,,,,,,,,,,,,,,,,,,,,,,,,,,,,,,,,,,,,,
,,"[""period""]",0,[0.7680000000000007],39,0,39,0,1,5e98b398e4a84f0eb3755e51,26,Mężczyzna,2022-05-28_09h30.48.773,task,2021.1.4,Win32,60.0240096,628b806c463b948bc644b84f,6291cefdf7e558bc8a439aba,,,,,,,,,,,,,,,,,,,,,,,,,,,,,,,,,,,,,,,,,,,,,,,,,,,,,,,,,,,,,,,,,,,,,,,,,,,,,,,,,,,,,,,,,,,,,,,,,,,,,,,
,,"[""comma""]",0,[0.7760000000000105],40,0,40,0,1,5e98b398e4a84f0eb3755e51,26,Mężczyzna,2022-05-28_09h30.48.773,task,2021.1.4,Win32,60.0240096,628b806c463b948bc644b84f,6291cefdf7e558bc8a439aba,,,,,,,,,,,,,,,,,,,,,,,,,,,,,,,,,,,,,,,,,,,,,,,,,,,,,,,,,,,,,,,,,,,,,,,,,,,,,,,,,,,,,,,,,,,,,,,,,,,,,,,
,,"[""period""]",0,[0.7060000000000173],41,0,41,0,1,5e98b398e4a84f0eb3755e51,26,Mężczyzna,2022-05-28_09h30.48.773,task,2021.1.4,Win32,60.0240096,628b806c463b948bc644b84f,6291cefdf7e558bc8a439aba,,,,,,,,,,,,,,,,,,,,,,,,,,,,,,,,,,,,,,,,,,,,,,,,,,,,,,,,,,,,,,,,,,,,,,,,,,,,,,,,,,,,,,,,,,,,,,,,,,,,,,,
,,"[""period""]",0,[0.6199999999999761],42,0,42,0,1,5e98b398e4a84f0eb3755e51,26,Mężczyzna,2022-05-28_09h30.48.773,task,2021.1.4,Win32,60.0240096,628b806c463b948bc644b84f,6291cefdf7e558bc8a439aba,,,,,,,,,,,,,,,,,,,,,,,,,,,,,,,,,,,,,,,,,,,,,,,,,,,,,,,,,,,,,,,,,,,,,,,,,,,,,,,,,,,,,,,,,,,,,,,,,,,,,,,
,,"[""comma""]",0,[0.617999999999995],43,0,43,0,1,5e98b398e4a84f0eb3755e51,26,Mężczyzna,2022-05-28_09h30.48.773,task,2021.1.4,Win32,60.0240096,628b806c463b948bc644b84f,6291cefdf7e558bc8a439aba,,,,,,,,,,,,,,,,,,,,,,,,,,,,,,,,,,,,,,,,,,,,,,,,,,,,,,,,,,,,,,,,,,,,,,,,,,,,,,,,,,,,,,,,,,,,,,,,,,,,,,,
,,"[""comma""]",0,[0.5160000000000196],44,0,44,0,1,5e98b398e4a84f0eb3755e51,26,Mężczyzna,2022-05-28_09h30.48.773,task,2021.1.4,Win32,60.0240096,628b806c463b948bc644b84f,6291cefdf7e558bc8a439aba,,,,,,,,,,,,,,,,,,,,,,,,,,,,,,,,,,,,,,,,,,,,,,,,,,,,,,,,,,,,,,,,,,,,,,,,,,,,,,,,,,,,,,,,,,,,,,,,,,,,,,,
,,"[""comma""]",0,[0.4399999999999977],45,0,45,0,1,5e98b398e4a84f0eb3755e51,26,Mężczyzna,2022-05-28_09h30.48.773,task,2021.1.4,Win32,60.0240096,628b806c463b948bc644b84f,6291cefdf7e558bc8a439aba,,,,,,,,,,,,,,,,,,,,,,,,,,,,,,,,,,,,,,,,,,,,,,,,,,,,,,,,,,,,,,,,,,,,,,,,,,,,,,,,,,,,,,,,,,,,,,,,,,,,,,,
,,"[""comma""]",0,[0.4519999999999982],46,0,46,0,1,5e98b398e4a84f0eb3755e51,26,Mężczyzna,2022-05-28_09h30.48.773,task,2021.1.4,Win32,60.0240096,628b806c463b948bc644b84f,6291cefdf7e558bc8a439aba,,,,,,,,,,,,,,,,,,,,,,,,,,,,,,,,,,,,,,,,,,,,,,,,,,,,,,,,,,,,,,,,,,,,,,,,,,,,,,,,,,,,,,,,,,,,,,,,,,,,,,,
,,"[""comma""]",0,[0.4660000000000082],47,0,47,0,1,5e98b398e4a84f0eb3755e51,26,Mężczyzna,2022-05-28_09h30.48.773,task,2021.1.4,Win32,60.0240096,628b806c463b948bc644b84f,6291cefdf7e558bc8a439aba,,,,,,,,,,,,,,,,,,,,,,,,,,,,,,,,,,,,,,,,,,,,,,,,,,,,,,,,,,,,,,,,,,,,,,,,,,,,,,,,,,,,,,,,,,,,,,,,,,,,,,,
,,"[""period""]",0,[0.31699999999997885],48,0,48,0,1,5e98b398e4a84f0eb3755e51,26,Mężczyzna,2022-05-28_09h30.48.773,task,2021.1.4,Win32,60.0240096,628b806c463b948bc644b84f,6291cefdf7e558bc8a439aba,,,,,,,,,,,,,,,,,,,,,,,,,,,,,,,,,,,,,,,,,,,,,,,,,,,,,,,,,,,,,,,,,,,,,,,,,,,,,,,,,,,,,,,,,,,,,,,,,,,,,,,
,,"[""comma""]",0,[0.2560000000000002],49,0,49,0,1,5e98b398e4a84f0eb3755e51,26,Mężczyzna,2022-05-28_09h30.48.773,task,2021.1.4,Win32,60.0240096,628b806c463b948bc644b84f,6291cefdf7e558bc8a439aba,,,,,,,,,,,,,,,,,,,,,,,,,,,,,,,,,,,,,,,,,,,,,,,,,,,,,,,,,,,,,,,,,,,,,,,,,,,,,,,,,,,,,,,,,,,,,,,,,,,,,,,
,,"[""period""]",0,[0.23999999999998067],50,0,50,0,1,5e98b398e4a84f0eb3755e51,26,Mężczyzna,2022-05-28_09h30.48.773,task,2021.1.4,Win32,60.0240096,628b806c463b948bc644b84f,6291cefdf7e558bc8a439aba,,,,,,,,,,,,,,,,,,,,,,,,,,,,,,,,,,,,,,,,,,,,,,,,,,,,,,,,,,,,,,,,,,,,,,,,,,,,,,,,,,,,,,,,,,,,,,,,,,,,,,,
,,"[""period""]",0,[0.23999999999998067],51,0,51,0,1,5e98b398e4a84f0eb3755e51,26,Mężczyzna,2022-05-28_09h30.48.773,task,2021.1.4,Win32,60.0240096,628b806c463b948bc644b84f,6291cefdf7e558bc8a439aba,,,,,,,,,,,,,,,,,,,,,,,,,,,,,,,,,,,,,,,,,,,,,,,,,,,,,,,,,,,,,,,,,,,,,,,,,,,,,,,,,,,,,,,,,,,,,,,,,,,,,,,
,,"[""period""]",0,[0.23399999999998045],52,0,52,0,1,5e98b398e4a84f0eb3755e51,26,Mężczyzna,2022-05-28_09h30.48.773,task,2021.1.4,Win32,60.0240096,628b806c463b948bc644b84f,6291cefdf7e558bc8a439aba,,,,,,,,,,,,,,,,,,,,,,,,,,,,,,,,,,,,,,,,,,,,,,,,,,,,,,,,,,,,,,,,,,,,,,,,,,,,,,,,,,,,,,,,,,,,,,,,,,,,,,,
,,"[""comma""]",0,[0.26799999999997226],53,0,53,0,1,5e98b398e4a84f0eb3755e51,26,Mężczyzna,2022-05-28_09h30.48.773,task,2021.1.4,Win32,60.0240096,628b806c463b948bc644b84f,6291cefdf7e558bc8a439aba,,,,,,,,,,,,,,,,,,,,,,,,,,,,,,,,,,,,,,,,,,,,,,,,,,,,,,,,,,,,,,,,,,,,,,,,,,,,,,,,,,,,,,,,,,,,,,,,,,,,,,,
,,"[""comma""]",0,[0.20199999999999818],54,0,54,0,1,5e98b398e4a84f0eb3755e51,26,Mężczyzna,2022-05-28_09h30.48.773,task,2021.1.4,Win32,60.0240096,628b806c463b948bc644b84f,6291cefdf7e558bc8a439aba,,,,,,,,,,,,,,,,,,,,,,,,,,,,,,,,,,,,,,,,,,,,,,,,,,,,,,,,,,,,,,,,,,,,,,,,,,,,,,,,,,,,,,,,,,,,,,,,,,,,,,,
,,"[""period""]",0,[0.28299999999998704],55,0,55,0,1,5e98b398e4a84f0eb3755e51,26,Mężczyzna,2022-05-28_09h30.48.773,task,2021.1.4,Win32,60.0240096,628b806c463b948bc644b84f,6291cefdf7e558bc8a439aba,,,,,,,,,,,,,,,,,,,,,,,,,,,,,,,,,,,,,,,,,,,,,,,,,,,,,,,,,,,,,,,,,,,,,,,,,,,,,,,,,,,,,,,,,,,,,,,,,,,,,,,
,,"[""comma""]",0,[0.4029999999999916],56,0,56,0,1,5e98b398e4a84f0eb3755e51,26,Mężczyzna,2022-05-28_09h30.48.773,task,2021.1.4,Win32,60.0240096,628b806c463b948bc644b84f,6291cefdf7e558bc8a439aba,,,,,,,,,,,,,,,,,,,,,,,,,,,,,,,,,,,,,,,,,,,,,,,,,,,,,,,,,,,,,,,,,,,,,,,,,,,,,,,,,,,,,,,,,,,,,,,,,,,,,,,
,,"[""period""]",0,[0.3509999999999991],57,0,57,0,1,5e98b398e4a84f0eb3755e51,26,Mężczyzna,2022-05-28_09h30.48.773,task,2021.1.4,Win32,60.0240096,628b806c463b948bc644b84f,6291cefdf7e558bc8a439aba,,,,,,,,,,,,,,,,,,,,,,,,,,,,,,,,,,,,,,,,,,,,,,,,,,,,,,,,,,,,,,,,,,,,,,,,,,,,,,,,,,,,,,,,,,,,,,,,,,,,,,,
,,"[""period""]",0,[0.2839999999999918],58,0,58,0,1,5e98b398e4a84f0eb3755e51,26,Mężczyzna,2022-05-28_09h30.48.773,task,2021.1.4,Win32,60.0240096,628b806c463b948bc644b84f,6291cefdf7e558bc8a439aba,,,,,,,,,,,,,,,,,,,,,,,,,,,,,,,,,,,,,,,,,,,,,,,,,,,,,,,,,,,,,,,,,,,,,,,,,,,,,,,,,,,,,,,,,,,,,,,,,,,,,,,
,,"[""period""]",0,[0.20199999999999818],59,0,59,0,1,5e98b398e4a84f0eb3755e51,26,Mężczyzna,2022-05-28_09h30.48.773,task,2021.1.4,Win32,60.0240096,628b806c463b948bc644b84f,6291cefdf7e558bc8a439aba,,,,,,,,,,,,,,,,,,,,,,,,,,,,,,,,,,,,,,,,,,,,,,,,,,,,,,,,,,,,,,,,,,,,,,,,,,,,,,,,,,,,,,,,,,,,,,,,,,,,,,,
,,"[""period""]",0,[0.22399999999998954],60,0,60,0,1,5e98b398e4a84f0eb3755e51,26,Mężczyzna,2022-05-28_09h30.48.773,task,2021.1.4,Win32,60.0240096,628b806c463b948bc644b84f,6291cefdf7e558bc8a439aba,,,,,,,,,,,,,,,,,,,,,,,,,,,,,,,,,,,,,,,,,,,,,,,,,,,,,,,,,,,,,,,,,,,,,,,,,,,,,,,,,,,,,,,,,,,,,,,,,,,,,,,
,,"[""period""]",0,[0.3499999999999943],61,0,61,0,1,5e98b398e4a84f0eb3755e51,26,Mężczyzna,2022-05-28_09h30.48.773,task,2021.1.4,Win32,60.0240096,628b806c463b948bc644b84f,6291cefdf7e558bc8a439aba,,,,,,,,,,,,,,,,,,,,,,,,,,,,,,,,,,,,,,,,,,,,,,,,,,,,,,,,,,,,,,,,,,,,,,,,,,,,,,,,,,,,,,,,,,,,,,,,,,,,,,,
,,"[""comma""]",0,[0.3410000000000082],62,0,62,0,1,5e98b398e4a84f0eb3755e51,26,Mężczyzna,2022-05-28_09h30.48.773,task,2021.1.4,Win32,60.0240096,628b806c463b948bc644b84f,6291cefdf7e558bc8a439aba,,,,,,,,,,,,,,,,,,,,,,,,,,,,,,,,,,,,,,,,,,,,,,,,,,,,,,,,,,,,,,,,,,,,,,,,,,,,,,,,,,,,,,,,,,,,,,,,,,,,,,,
,,"[""period""]",0,[0.24099999999998545],63,0,63,0,1,5e98b398e4a84f0eb3755e51,26,Mężczyzna,2022-05-28_09h30.48.773,task,2021.1.4,Win32,60.0240096,628b806c463b948bc644b84f,6291cefdf7e558bc8a439aba,,,,,,,,,,,,,,,,,,,,,,,,,,,,,,,,,,,,,,,,,,,,,,,,,,,,,,,,,,,,,,,,,,,,,,,,,,,,,,,,,,,,,,,,,,,,,,,,,,,,,,,
,,"[""period""]",0,[0.30100000000004457],64,0,64,0,1,5e98b398e4a84f0eb3755e51,26,Mężczyzna,2022-05-28_09h30.48.773,task,2021.1.4,Win32,60.0240096,628b806c463b948bc644b84f,6291cefdf7e558bc8a439aba,,,,,,,,,,,,,,,,,,,,,,,,,,,,,,,,,,,,,,,,,,,,,,,,,,,,,,,,,,,,,,,,,,,,,,,,,,,,,,,,,,,,,,,,,,,,,,,,,,,,,,,
,,"[""comma""]",0,[0.4019999999999868],65,0,65,0,1,5e98b398e4a84f0eb3755e51,26,Mężczyzna,2022-05-28_09h30.48.773,task,2021.1.4,Win32,60.0240096,628b806c463b948bc644b84f,6291cefdf7e558bc8a439aba,,,,,,,,,,,,,,,,,,,,,,,,,,,,,,,,,,,,,,,,,,,,,,,,,,,,,,,,,,,,,,,,,,,,,,,,,,,,,,,,,,,,,,,,,,,,,,,,,,,,,,,
,,"[""period""]",0,[0.28499999999996817],66,0,66,0,1,5e98b398e4a84f0eb3755e51,26,Mężczyzna,2022-05-28_09h30.48.773,task,2021.1.4,Win32,60.0240096,628b806c463b948bc644b84f,6291cefdf7e558bc8a439aba,,,,,,,,,,,,,,,,,,,,,,,,,,,,,,,,,,,,,,,,,,,,,,,,,,,,,,,,,,,,,,,,,,,,,,,,,,,,,,,,,,,,,,,,,,,,,,,,,,,,,,,
,,"[""comma""]",0,[0.2680000000000291],67,0,67,0,1,5e98b398e4a84f0eb3755e51,26,Mężczyzna,2022-05-28_09h30.48.773,task,2021.1.4,Win32,60.0240096,628b806c463b948bc644b84f,6291cefdf7e558bc8a439aba,,,,,,,,,,,,,,,,,,,,,,,,,,,,,,,,,,,,,,,,,,,,,,,,,,,,,,,,,,,,,,,,,,,,,,,,,,,,,,,,,,,,,,,,,,,,,,,,,,,,,,,
,,"[""comma""]",0,[0.2419999999999618],68,0,68,0,1,5e98b398e4a84f0eb3755e51,26,Mężczyzna,2022-05-28_09h30.48.773,task,2021.1.4,Win32,60.0240096,628b806c463b948bc644b84f,6291cefdf7e558bc8a439aba,,,,,,,,,,,,,,,,,,,,,,,,,,,,,,,,,,,,,,,,,,,,,,,,,,,,,,,,,,,,,,,,,,,,,,,,,,,,,,,,,,,,,,,,,,,,,,,,,,,,,,,
,,"[""period""]",0,[0.2349999999999568],69,0,69,0,1,5e98b398e4a84f0eb3755e51,26,Mężczyzna,2022-05-28_09h30.48.773,task,2021.1.4,Win32,60.0240096,628b806c463b948bc644b84f,6291cefdf7e558bc8a439aba,,,,,,,,,,,,,,,,,,,,,,,,,,,,,,,,,,,,,,,,,,,,,,,,,,,,,,,,,,,,,,,,,,,,,,,,,,,,,,,,,,,,,,,,,,,,,,,,,,,,,,,
,,"[""comma""]",0,[0.2189999999999941],70,0,70,0,1,5e98b398e4a84f0eb3755e51,26,Mężczyzna,2022-05-28_09h30.48.773,task,2021.1.4,Win32,60.0240096,628b806c463b948bc644b84f,6291cefdf7e558bc8a439aba,,,,,,,,,,,,,,,,,,,,,,,,,,,,,,,,,,,,,,,,,,,,,,,,,,,,,,,,,,,,,,,,,,,,,,,,,,,,,,,,,,,,,,,,,,,,,,,,,,,,,,,
,,"[""period""]",0,[0.28899999999998727],71,0,71,0,1,5e98b398e4a84f0eb3755e51,26,Mężczyzna,2022-05-28_09h30.48.773,task,2021.1.4,Win32,60.0240096,628b806c463b948bc644b84f,6291cefdf7e558bc8a439aba,,,,,,,,,,,,,,,,,,,,,,,,,,,,,,,,,,,,,,,,,,,,,,,,,,,,,,,,,,,,,,,,,,,,,,,,,,,,,,,,,,,,,,,,,,,,,,,,,,,,,,,
,,"[""period""]",0,[0.2829999999999586],72,0,72,0,1,5e98b398e4a84f0eb3755e51,26,Mężczyzna,2022-05-28_09h30.48.773,task,2021.1.4,Win32,60.0240096,628b806c463b948bc644b84f,6291cefdf7e558bc8a439aba,,,,,,,,,,,,,,,,,,,,,,,,,,,,,,,,,,,,,,,,,,,,,,,,,,,,,,,,,,,,,,,,,,,,,,,,,,,,,,,,,,,,,,,,,,,,,,,,,,,,,,,
,,"[""period""]",0,[0.29899999999997817],73,0,73,0,1,5e98b398e4a84f0eb3755e51,26,Mężczyzna,2022-05-28_09h30.48.773,task,2021.1.4,Win32,60.0240096,628b806c463b948bc644b84f,6291cefdf7e558bc8a439aba,,,,,,,,,,,,,,,,,,,,,,,,,,,,,,,,,,,,,,,,,,,,,,,,,,,,,,,,,,,,,,,,,,,,,,,,,,,,,,,,,,,,,,,,,,,,,,,,,,,,,,,
,,"[""comma""]",0,[0.35700000000002774],74,0,74,0,1,5e98b398e4a84f0eb3755e51,26,Mężczyzna,2022-05-28_09h30.48.773,task,2021.1.4,Win32,60.0240096,628b806c463b948bc644b84f,6291cefdf7e558bc8a439aba,,,,,,,,,,,,,,,,,,,,,,,,,,,,,,,,,,,,,,,,,,,,,,,,,,,,,,,,,,,,,,,,,,,,,,,,,,,,,,,,,,,,,,,,,,,,,,,,,,,,,,,
,,"[""period""]",0,[0.28899999999998727],75,0,75,0,1,5e98b398e4a84f0eb3755e51,26,Mężczyzna,2022-05-28_09h30.48.773,task,2021.1.4,Win32,60.0240096,628b806c463b948bc644b84f,6291cefdf7e558bc8a439aba,,,,,,,,,,,,,,,,,,,,,,,,,,,,,,,,,,,,,,,,,,,,,,,,,,,,,,,,,,,,,,,,,,,,,,,,,,,,,,,,,,,,,,,,,,,,,,,,,,,,,,,
,,"[""comma""]",0,[0.367999999999995],76,0,76,0,1,5e98b398e4a84f0eb3755e51,26,Mężczyzna,2022-05-28_09h30.48.773,task,2021.1.4,Win32,60.0240096,628b806c463b948bc644b84f,6291cefdf7e558bc8a439aba,,,,,,,,,,,,,,,,,,,,,,,,,,,,,,,,,,,,,,,,,,,,,,,,,,,,,,,,,,,,,,,,,,,,,,,,,,,,,,,,,,,,,,,,,,,,,,,,,,,,,,,
,,"[""comma""]",0,[0.2839999999999918],77,0,77,0,1,5e98b398e4a84f0eb3755e51,26,Mężczyzna,2022-05-28_09h30.48.773,task,2021.1.4,Win32,60.0240096,628b806c463b948bc644b84f,6291cefdf7e558bc8a439aba,,,,,,,,,,,,,,,,,,,,,,,,,,,,,,,,,,,,,,,,,,,,,,,,,,,,,,,,,,,,,,,,,,,,,,,,,,,,,,,,,,,,,,,,,,,,,,,,,,,,,,,
,,"[""comma""]",0,[0.2740000000000009],78,0,78,0,1,5e98b398e4a84f0eb3755e51,26,Mężczyzna,2022-05-28_09h30.48.773,task,2021.1.4,Win32,60.0240096,628b806c463b948bc644b84f,6291cefdf7e558bc8a439aba,,,,,,,,,,,,,,,,,,,,,,,,,,,,,,,,,,,,,,,,,,,,,,,,,,,,,,,,,,,,,,,,,,,,,,,,,,,,,,,,,,,,,,,,,,,,,,,,,,,,,,,
,,"[""period""]",0,[0.2689999999999486],79,0,79,0,1,5e98b398e4a84f0eb3755e51,26,Mężczyzna,2022-05-28_09h30.48.773,task,2021.1.4,Win32,60.0240096,628b806c463b948bc644b84f,6291cefdf7e558bc8a439aba,,,,,,,,,,,,,,,,,,,,,,,,,,,,,,,,,,,,,,,,,,,,,,,,,,,,,,,,,,,,,,,,,,,,,,,,,,,,,,,,,,,,,,,,,,,,,,,,,,,,,,,
,,"[""period""]",0,[0.23399999999998045],80,0,80,0,1,5e98b398e4a84f0eb3755e51,26,Mężczyzna,2022-05-28_09h30.48.773,task,2021.1.4,Win32,60.0240096,628b806c463b948bc644b84f,6291cefdf7e558bc8a439aba,,,,,,,,,,,,,,,,,,,,,,,,,,,,,,,,,,,,,,,,,,,,,,,,,,,,,,,,,,,,,,,,,,,,,,,,,,,,,,,,,,,,,,,,,,,,,,,,,,,,,,,
,,"[""comma""]",0,[0.22399999999998954],81,0,81,0,1,5e98b398e4a84f0eb3755e51,26,Mężczyzna,2022-05-28_09h30.48.773,task,2021.1.4,Win32,60.0240096,628b806c463b948bc644b84f,6291cefdf7e558bc8a439aba,,,,,,,,,,,,,,,,,,,,,,,,,,,,,,,,,,,,,,,,,,,,,,,,,,,,,,,,,,,,,,,,,,,,,,,,,,,,,,,,,,,,,,,,,,,,,,,,,,,,,,,
,,"[""comma""]",0,[0.17000000000001592],82,0,82,0,1,5e98b398e4a84f0eb3755e51,26,Mężczyzna,2022-05-28_09h30.48.773,task,2021.1.4,Win32,60.0240096,628b806c463b948bc644b84f,6291cefdf7e558bc8a439aba,,,,,,,,,,,,,,,,,,,,,,,,,,,,,,,,,,,,,,,,,,,,,,,,,,,,,,,,,,,,,,,,,,,,,,,,,,,,,,,,,,,,,,,,,,,,,,,,,,,,,,,
,,"[""period""]",0,[0.23500000000001364],83,0,83,0,1,5e98b398e4a84f0eb3755e51,26,Mężczyzna,2022-05-28_09h30.48.773,task,2021.1.4,Win32,60.0240096,628b806c463b948bc644b84f,6291cefdf7e558bc8a439aba,,,,,,,,,,,,,,,,,,,,,,,,,,,,,,,,,,,,,,,,,,,,,,,,,,,,,,,,,,,,,,,,,,,,,,,,,,,,,,,,,,,,,,,,,,,,,,,,,,,,,,,
,,"[""period""]",0,[0.28899999999998727],84,0,84,0,1,5e98b398e4a84f0eb3755e51,26,Mężczyzna,2022-05-28_09h30.48.773,task,2021.1.4,Win32,60.0240096,628b806c463b948bc644b84f,6291cefdf7e558bc8a439aba,,,,,,,,,,,,,,,,,,,,,,,,,,,,,,,,,,,,,,,,,,,,,,,,,,,,,,,,,,,,,,,,,,,,,,,,,,,,,,,,,,,,,,,,,,,,,,,,,,,,,,,
,,"[""comma""]",0,[0.22500000000002274],85,0,85,0,1,5e98b398e4a84f0eb3755e51,26,Mężczyzna,2022-05-28_09h30.48.773,task,2021.1.4,Win32,60.0240096,628b806c463b948bc644b84f,6291cefdf7e558bc8a439aba,,,,,,,,,,,,,,,,,,,,,,,,,,,,,,,,,,,,,,,,,,,,,,,,,,,,,,,,,,,,,,,,,,,,,,,,,,,,,,,,,,,,,,,,,,,,,,,,,,,,,,,
,,"[""comma""]",0,[0.22199999999998],86,0,86,0,1,5e98b398e4a84f0eb3755e51,26,Mężczyzna,2022-05-28_09h30.48.773,task,2021.1.4,Win32,60.0240096,628b806c463b948bc644b84f,6291cefdf7e558bc8a439aba,,,,,,,,,,,,,,,,,,,,,,,,,,,,,,,,,,,,,,,,,,,,,,,,,,,,,,,,,,,,,,,,,,,,,,,,,,,,,,,,,,,,,,,,,,,,,,,,,,,,,,,
,,"[""comma""]",0,[0.2540000000000191],87,0,87,0,1,5e98b398e4a84f0eb3755e51,26,Mężczyzna,2022-05-28_09h30.48.773,task,2021.1.4,Win32,60.0240096,628b806c463b948bc644b84f,6291cefdf7e558bc8a439aba,,,,,,,,,,,,,,,,,,,,,,,,,,,,,,,,,,,,,,,,,,,,,,,,,,,,,,,,,,,,,,,,,,,,,,,,,,,,,,,,,,,,,,,,,,,,,,,,,,,,,,,
,,"[""period""]",0,[0.3170000000000073],88,0,88,0,1,5e98b398e4a84f0eb3755e51,26,Mężczyzna,2022-05-28_09h30.48.773,task,2021.1.4,Win32,60.0240096,628b806c463b948bc644b84f,6291cefdf7e558bc8a439aba,,,,,,,,,,,,,,,,,,,,,,,,,,,,,,,,,,,,,,,,,,,,,,,,,,,,,,,,,,,,,,,,,,,,,,,,,,,,,,,,,,,,,,,,,,,,,,,,,,,,,,,
,,"[""period""]",0,[0.3170000000000073],89,0,89,0,1,5e98b398e4a84f0eb3755e51,26,Mężczyzna,2022-05-28_09h30.48.773,task,2021.1.4,Win32,60.0240096,628b806c463b948bc644b84f,6291cefdf7e558bc8a439aba,,,,,,,,,,,,,,,,,,,,,,,,,,,,,,,,,,,,,,,,,,,,,,,,,,,,,,,,,,,,,,,,,,,,,,,,,,,,,,,,,,,,,,,,,,,,,,,,,,,,,,,
,,"[""comma""]",0,[0.29199999999997317],90,0,90,0,1,5e98b398e4a84f0eb3755e51,26,Mężczyzna,2022-05-28_09h30.48.773,task,2021.1.4,Win32,60.0240096,628b806c463b948bc644b84f,6291cefdf7e558bc8a439aba,,,,,,,,,,,,,,,,,,,,,,,,,,,,,,,,,,,,,,,,,,,,,,,,,,,,,,,,,,,,,,,,,,,,,,,,,,,,,,,,,,,,,,,,,,,,,,,,,,,,,,,
,,"[""comma""]",0,[0.28499999999996817],91,0,91,0,1,5e98b398e4a84f0eb3755e51,26,Mężczyzna,2022-05-28_09h30.48.773,task,2021.1.4,Win32,60.0240096,628b806c463b948bc644b84f,6291cefdf7e558bc8a439aba,,,,,,,,,,,,,,,,,,,,,,,,,,,,,,,,,,,,,,,,,,,,,,,,,,,,,,,,,,,,,,,,,,,,,,,,,,,,,,,,,,,,,,,,,,,,,,,,,,,,,,,
,,"[""period""]",0,[0.20499999999998408],92,0,92,0,1,5e98b398e4a84f0eb3755e51,26,Mężczyzna,2022-05-28_09h30.48.773,task,2021.1.4,Win32,60.0240096,628b806c463b948bc644b84f,6291cefdf7e558bc8a439aba,,,,,,,,,,,,,,,,,,,,,,,,,,,,,,,,,,,,,,,,,,,,,,,,,,,,,,,,,,,,,,,,,,,,,,,,,,,,,,,,,,,,,,,,,,,,,,,,,,,,,,,
,,"[""period""]",0,[0.3019999999999641],93,0,93,0,1,5e98b398e4a84f0eb3755e51,26,Mężczyzna,2022-05-28_09h30.48.773,task,2021.1.4,Win32,60.0240096,628b806c463b948bc644b84f,6291cefdf7e558bc8a439aba,,,,,,,,,,,,,,,,,,,,,,,,,,,,,,,,,,,,,,,,,,,,,,,,,,,,,,,,,,,,,,,,,,,,,,,,,,,,,,,,,,,,,,,,,,,,,,,,,,,,,,,
,,"[""period""]",0,[0.25799999999998136],94,0,94,0,1,5e98b398e4a84f0eb3755e51,26,Mężczyzna,2022-05-28_09h30.48.773,task,2021.1.4,Win32,60.0240096,628b806c463b948bc644b84f,6291cefdf7e558bc8a439aba,,,,,,,,,,,,,,,,,,,,,,,,,,,,,,,,,,,,,,,,,,,,,,,,,,,,,,,,,,,,,,,,,,,,,,,,,,,,,,,,,,,,,,,,,,,,,,,,,,,,,,,
,,"[""comma""]",0,[0.31100000000003547],95,0,95,0,1,5e98b398e4a84f0eb3755e51,26,Mężczyzna,2022-05-28_09h30.48.773,task,2021.1.4,Win32,60.0240096,628b806c463b948bc644b84f,6291cefdf7e558bc8a439aba,,,,,,,,,,,,,,,,,,,,,,,,,,,,,,,,,,,,,,,,,,,,,,,,,,,,,,,,,,,,,,,,,,,,,,,,,,,,,,,,,,,,,,,,,,,,,,,,,,,,,,,
,,"[""comma""]",0,[0.26499999999998636],96,0,96,0,1,5e98b398e4a84f0eb3755e51,26,Mężczyzna,2022-05-28_09h30.48.773,task,2021.1.4,Win32,60.0240096,628b806c463b948bc644b84f,6291cefdf7e558bc8a439aba,,,,,,,,,,,,,,,,,,,,,,,,,,,,,,,,,,,,,,,,,,,,,,,,,,,,,,,,,,,,,,,,,,,,,,,,,,,,,,,,,,,,,,,,,,,,,,,,,,,,,,,
,,"[""comma""]",0,[0.2740000000000009],97,0,97,0,1,5e98b398e4a84f0eb3755e51,26,Mężczyzna,2022-05-28_09h30.48.773,task,2021.1.4,Win32,60.0240096,628b806c463b948bc644b84f,6291cefdf7e558bc8a439aba,,,,,,,,,,,,,,,,,,,,,,,,,,,,,,,,,,,,,,,,,,,,,,,,,,,,,,,,,,,,,,,,,,,,,,,,,,,,,,,,,,,,,,,,,,,,,,,,,,,,,,,
,,"[""comma""]",0,[0.5159999999999627],98,0,98,0,1,5e98b398e4a84f0eb3755e51,26,Mężczyzna,2022-05-28_09h30.48.773,task,2021.1.4,Win32,60.0240096,628b806c463b948bc644b84f,6291cefdf7e558bc8a439aba,,,,,,,,,,,,,,,,,,,,,,,,,,,,,,,,,,,,,,,,,,,,,,,,,,,,,,,,,,,,,,,,,,,,,,,,,,,,,,,,,,,,,,,,,,,,,,,,,,,,,,,
,,"[""period""]",0,[0.5169999999999959],99,0,99,0,1,5e98b398e4a84f0eb3755e51,26,Mężczyzna,2022-05-28_09h30.48.773,task,2021.1.4,Win32,60.0240096,628b806c463b948bc644b84f,6291cefdf7e558bc8a439aba,,,,,,,,,,,,,,,,,,,,,,,,,,,,,,,,,,,,,,,,,,,,,,,,,,,,,,,,,,,,,,,,,,,,,,,,,,,,,,,,,,,,,,,,,,,,,,,,,,,,,,,
,,"[""comma""]",0,[0.5090000000000146],100,0,100,0,1,5e98b398e4a84f0eb3755e51,26,Mężczyzna,2022-05-28_09h30.48.773,task,2021.1.4,Win32,60.0240096,628b806c463b948bc644b84f,6291cefdf7e558bc8a439aba,,,,,,,,,,,,,,,,,,,,,,,,,,,,,,,,,,,,,,,,,,,,,,,,,,,,,,,,,,,,,,,,,,,,,,,,,,,,,,,,,,,,,,,,,,,,,,,,,,,,,,,
,,"[""period""]",0,[0.6190000000000282],101,0,101,0,1,5e98b398e4a84f0eb3755e51,26,Mężczyzna,2022-05-28_09h30.48.773,task,2021.1.4,Win32,60.0240096,628b806c463b948bc644b84f,6291cefdf7e558bc8a439aba,,,,,,,,,,,,,,,,,,,,,,,,,,,,,,,,,,,,,,,,,,,,,,,,,,,,,,,,,,,,,,,,,,,,,,,,,,,,,,,,,,,,,,,,,,,,,,,,,,,,,,,
,,"[""period""]",0,[0.6020000000000323],102,0,102,0,1,5e98b398e4a84f0eb3755e51,26,Mężczyzna,2022-05-28_09h30.48.773,task,2021.1.4,Win32,60.0240096,628b806c463b948bc644b84f,6291cefdf7e558bc8a439aba,,,,,,,,,,,,,,,,,,,,,,,,,,,,,,,,,,,,,,,,,,,,,,,,,,,,,,,,,,,,,,,,,,,,,,,,,,,,,,,,,,,,,,,,,,,,,,,,,,,,,,,
,,"[""comma""]",0,[0.5060000000000286],103,0,103,0,1,5e98b398e4a84f0eb3755e51,26,Mężczyzna,2022-05-28_09h30.48.773,task,2021.1.4,Win32,60.0240096,628b806c463b948bc644b84f,6291cefdf7e558bc8a439aba,,,,,,,,,,,,,,,,,,,,,,,,,,,,,,,,,,,,,,,,,,,,,,,,,,,,,,,,,,,,,,,,,,,,,,,,,,,,,,,,,,,,,,,,,,,,,,,,,,,,,,,
,,"[""period""]",0,[0.4399999999999977],104,0,104,0,1,5e98b398e4a84f0eb3755e51,26,Mężczyzna,2022-05-28_09h30.48.773,task,2021.1.4,Win32,60.0240096,628b806c463b948bc644b84f,6291cefdf7e558bc8a439aba,,,,,,,,,,,,,,,,,,,,,,,,,,,,,,,,,,,,,,,,,,,,,,,,,,,,,,,,,,,,,,,,,,,,,,,,,,,,,,,,,,,,,,,,,,,,,,,,,,,,,,,
,,"[""comma""]",0,[0.285000000000025],105,0,105,0,1,5e98b398e4a84f0eb3755e51,26,Mężczyzna,2022-05-28_09h30.48.773,task,2021.1.4,Win32,60.0240096,628b806c463b948bc644b84f,6291cefdf7e558bc8a439aba,,,,,,,,,,,,,,,,,,,,,,,,,,,,,,,,,,,,,,,,,,,,,,,,,,,,,,,,,,,,,,,,,,,,,,,,,,,,,,,,,,,,,,,,,,,,,,,,,,,,,,,
,,"[""period""]",0,[0.23500000000001364],106,0,106,0,1,5e98b398e4a84f0eb3755e51,26,Mężczyzna,2022-05-28_09h30.48.773,task,2021.1.4,Win32,60.0240096,628b806c463b948bc644b84f,6291cefdf7e558bc8a439aba,,,,,,,,,,,,,,,,,,,,,,,,,,,,,,,,,,,,,,,,,,,,,,,,,,,,,,,,,,,,,,,,,,,,,,,,,,,,,,,,,,,,,,,,,,,,,,,,,,,,,,,
,,"[""period""]",0,[0.32200000000000273],107,0,107,0,1,5e98b398e4a84f0eb3755e51,26,Mężczyzna,2022-05-28_09h30.48.773,task,2021.1.4,Win32,60.0240096,628b806c463b948bc644b84f,6291cefdf7e558bc8a439aba,,,,,,,,,,,,,,,,,,,,,,,,,,,,,,,,,,,,,,,,,,,,,,,,,,,,,,,,,,,,,,,,,,,,,,,,,,,,,,,,,,,,,,,,,,,,,,,,,,,,,,,
,,"[""period""]",0,[0.5020000000000095],108,0,108,0,1,5e98b398e4a84f0eb3755e51,26,Mężczyzna,2022-05-28_09h30.48.773,task,2021.1.4,Win32,60.0240096,628b806c463b948bc644b84f,6291cefdf7e558bc8a439aba,,,,,,,,,,,,,,,,,,,,,,,,,,,,,,,,,,,,,,,,,,,,,,,,,,,,,,,,,,,,,,,,,,,,,,,,,,,,,,,,,,,,,,,,,,,,,,,,,,,,,,,
,,"[""period""]",0,[0.6020000000000323],109,0,109,0,1,5e98b398e4a84f0eb3755e51,26,Mężczyzna,2022-05-28_09h30.48.773,task,2021.1.4,Win32,60.0240096,628b806c463b948bc644b84f,6291cefdf7e558bc8a439aba,,,,,,,,,,,,,,,,,,,,,,,,,,,,,,,,,,,,,,,,,,,,,,,,,,,,,,,,,,,,,,,,,,,,,,,,,,,,,,,,,,,,,,,,,,,,,,,,,,,,,,,
,,"[""comma""]",0,[0.5370000000000346],110,0,110,0,1,5e98b398e4a84f0eb3755e51,26,Mężczyzna,2022-05-28_09h30.48.773,task,2021.1.4,Win32,60.0240096,628b806c463b948bc644b84f,6291cefdf7e558bc8a439aba,,,,,,,,,,,,,,,,,,,,,,,,,,,,,,,,,,,,,,,,,,,,,,,,,,,,,,,,,,,,,,,,,,,,,,,,,,,,,,,,,,,,,,,,,,,,,,,,,,,,,,,
,,"[""comma""]",0,[0.6189999999999714],111,0,111,0,1,5e98b398e4a84f0eb3755e51,26,Mężczyzna,2022-05-28_09h30.48.773,task,2021.1.4,Win32,60.0240096,628b806c463b948bc644b84f,6291cefdf7e558bc8a439aba,,,,,,,,,,,,,,,,,,,,,,,,,,,,,,,,,,,,,,,,,,,,,,,,,,,,,,,,,,,,,,,,,,,,,,,,,,,,,,,,,,,,,,,,,,,,,,,,,,,,,,,
,,"[""period""]",0,[0.45699999999999363],112,0,112,0,1,5e98b398e4a84f0eb3755e51,26,Mężczyzna,2022-05-28_09h30.48.773,task,2021.1.4,Win32,60.0240096,628b806c463b948bc644b84f,6291cefdf7e558bc8a439aba,,,,,,,,,,,,,,,,,,,,,,,,,,,,,,,,,,,,,,,,,,,,,,,,,,,,,,,,,,,,,,,,,,,,,,,,,,,,,,,,,,,,,,,,,,,,,,,,,,,,,,,
,,"[""comma""]",0,[0.40699999999998226],113,0,113,0,1,5e98b398e4a84f0eb3755e51,26,Mężczyzna,2022-05-28_09h30.48.773,task,2021.1.4,Win32,60.0240096,628b806c463b948bc644b84f,6291cefdf7e558bc8a439aba,,,,,,,,,,,,,,,,,,,,,,,,,,,,,,,,,,,,,,,,,,,,,,,,,,,,,,,,,,,,,,,,,,,,,,,,,,,,,,,,,,,,,,,,,,,,,,,,,,,,,,,
,,"[""comma""]",0,[0.4600000000000364],114,0,114,0,1,5e98b398e4a84f0eb3755e51,26,Mężczyzna,2022-05-28_09h30.48.773,task,2021.1.4,Win32,60.0240096,628b806c463b948bc644b84f,6291cefdf7e558bc8a439aba,,,,,,,,,,,,,,,,,,,,,,,,,,,,,,,,,,,,,,,,,,,,,,,,,,,,,,,,,,,,,,,,,,,,,,,,,,,,,,,,,,,,,,,,,,,,,,,,,,,,,,,
,,"[""comma""]",0,[0.35599999999999454],115,0,115,0,1,5e98b398e4a84f0eb3755e51,26,Mężczyzna,2022-05-28_09h30.48.773,task,2021.1.4,Win32,60.0240096,628b806c463b948bc644b84f,6291cefdf7e558bc8a439aba,,,,,,,,,,,,,,,,,,,,,,,,,,,,,,,,,,,,,,,,,,,,,,,,,,,,,,,,,,,,,,,,,,,,,,,,,,,,,,,,,,,,,,,,,,,,,,,,,,,,,,,
,,"[""period""]",0,[0.4379999999999882],116,0,116,0,1,5e98b398e4a84f0eb3755e51,26,Mężczyzna,2022-05-28_09h30.48.773,task,2021.1.4,Win32,60.0240096,628b806c463b948bc644b84f,6291cefdf7e558bc8a439aba,,,,,,,,,,,,,,,,,,,,,,,,,,,,,,,,,,,,,,,,,,,,,,,,,,,,,,,,,,,,,,,,,,,,,,,,,,,,,,,,,,,,,,,,,,,,,,,,,,,,,,,
,,"[""period""]",0,[0.4519999999999982],117,0,117,0,1,5e98b398e4a84f0eb3755e51,26,Mężczyzna,2022-05-28_09h30.48.773,task,2021.1.4,Win32,60.0240096,628b806c463b948bc644b84f,6291cefdf7e558bc8a439aba,,,,,,,,,,,,,,,,,,,,,,,,,,,,,,,,,,,,,,,,,,,,,,,,,,,,,,,,,,,,,,,,,,,,,,,,,,,,,,,,,,,,,,,,,,,,,,,,,,,,,,,
,,"[""period""]",0,[0.48799999999999955],118,0,118,0,1,5e98b398e4a84f0eb3755e51,26,Mężczyzna,2022-05-28_09h30.48.773,task,2021.1.4,Win32,60.0240096,628b806c463b948bc644b84f,6291cefdf7e558bc8a439aba,,,,,,,,,,,,,,,,,,,,,,,,,,,,,,,,,,,,,,,,,,,,,,,,,,,,,,,,,,,,,,,,,,,,,,,,,,,,,,,,,,,,,,,,,,,,,,,,,,,,,,,
,,"[""period""]",0,[0.6520000000000437],119,0,119,0,1,5e98b398e4a84f0eb3755e51,26,Mężczyzna,2022-05-28_09h30.48.773,task,2021.1.4,Win32,60.0240096,628b806c463b948bc644b84f,6291cefdf7e558bc8a439aba,,,,,,,,,,,,,,,,,,,,,,,,,,,,,,,,,,,,,,,,,,,,,,,,,,,,,,,,,,,,,,,,,,,,,,,,,,,,,,,,,,,,,,,,,,,,,,,,,,,,,,,
,,,,,,,,,,5e98b398e4a84f0eb3755e51,26,Mężczyzna,2022-05-28_09h30.48.773,task,2021.1.4,Win32,60.0240096,628b806c463b948bc644b84f,6291cefdf7e558bc8a439aba,space,27.66,space,6.135,0,0,0,0,1,"X V Q F H G B L J M P D K C T S W R N Z
",,,,,,,,,,,,,,,,,,,,,,,,,,,,,,,,,,,,,,,,,,,,,,,,,,,,,,,,,,,,,,,,,,,,,,,,,,,,,,,,,,,,,,,,,,,,,
,,,,,,,,,,5e98b398e4a84f0eb3755e51,26,Mężczyzna,2022-05-28_09h30.48.773,task,2021.1.4,Win32,60.0240096,628b806c463b948bc644b84f,6291cefdf7e558bc8a439aba,,,,,1,0,1,0,1,"X V Q F H G B L J M P D K C T S W R N Z
",,,,,,,,,,,,,,,,,,,,,,,,,,,,,,,,,,,,,,,,,,,,,,,,,,,,,,,,,,,,,,,,,,,,,,,,,,,,,,,,,,,,,,,,,,,,,
,,,,,,,,,,5e98b398e4a84f0eb3755e51,26,Mężczyzna,2022-05-28_09h30.48.773,task,2021.1.4,Win32,60.0240096,628b806c463b948bc644b84f,6291cefdf7e558bc8a439aba,,,,,,,,,,,zf,"[""z"",""f""]","[0.9409999999999741,1.73599999999999,2.670000000000016]",1,ZF,0,0,0,0,1,,,,,,,,,,,,,,,,,,,,,,,,,,,,,,,,,,,,,,,,,,,,,,,,,,,,,,,,,,,,,,,,,,,,,,,,,,,,,,,,,,,
,,,,,,,,,,5e98b398e4a84f0eb3755e51,26,Mężczyzna,2022-05-28_09h30.48.773,task,2021.1.4,Win32,60.0240096,628b806c463b948bc644b84f,6291cefdf7e558bc8a439aba,,,,,0,0,0,0,1,"X V Q F H G B L J M P D K C T S W R N Z
",,,,,,,,,,,,,,,,,,,,,,,,,,,,,,,,,,,,,,,,,,,,,,,,,,,,,,,,,,,,,,,,,,,,,,,,,,,,,,,,,,,,,,,,,,,,,
,,,,,,,,,,5e98b398e4a84f0eb3755e51,26,Mężczyzna,2022-05-28_09h30.48.773,task,2021.1.4,Win32,60.0240096,628b806c463b948bc644b84f,6291cefdf7e558bc8a439aba,,,,,1,0,1,0,1,"X V Q F H G B L J M P D K C T S W R N Z
",,,,,,,,,,,,,,,,,,,,,,,,,,,,,,,,,,,,,,,,,,,,,,,,,,,,,,,,,,,,,,,,,,,,,,,,,,,,,,,,,,,,,,,,,,,,,
,,,,,,,,,,5e98b398e4a84f0eb3755e51,26,Mężczyzna,2022-05-28_09h30.48.773,task,2021.1.4,Win32,60.0240096,628b806c463b948bc644b84f,6291cefdf7e558bc8a439aba,,,,,,,,,,,tn,"[""t"",""n""]","[0.5509999999999877,1.4159999999999968,2.165999999999997]",1,TN,1,0,1,0,1,,,,,,,,,,,,,,,,,,,,,,,,,,,,,,,,,,,,,,,,,,,,,,,,,,,,,,,,,,,,,,,,,,,,,,,,,,,,,,,,,,,
,,,,,,,,,,5e98b398e4a84f0eb3755e51,26,Mężczyzna,2022-05-28_09h30.48.773,task,2021.1.4,Win32,60.0240096,628b806c463b948bc644b84f,6291cefdf7e558bc8a439aba,,,,,0,0,0,0,1,"X V Q F H G B L J M P D K C T S W R N Z
",,,,,,,,,,,,,,,,,,,,,,,,,,,,,,,,,,,,,,,,,,,,,,,,,,,,,,,,,,,,,,,,,,,,,,,,,,,,,,,,,,,,,,,,,,,,,
,,,,,,,,,,5e98b398e4a84f0eb3755e51,26,Mężczyzna,2022-05-28_09h30.48.773,task,2021.1.4,Win32,60.0240096,628b806c463b948bc644b84f,6291cefdf7e558bc8a439aba,,,,,1,0,1,0,1,"X V Q F H G B L J M P D K C T S W R N Z
",,,,,,,,,,,,,,,,,,,,,,,,,,,,,,,,,,,,,,,,,,,,,,,,,,,,,,,,,,,,,,,,,,,,,,,,,,,,,,,,,,,,,,,,,,,,,
,,,,,,,,,,5e98b398e4a84f0eb3755e51,26,Mężczyzna,2022-05-28_09h30.48.773,task,2021.1.4,Win32,60.0240096,628b806c463b948bc644b84f,6291cefdf7e558bc8a439aba,,,,,2,0,2,0,1,"X V Q F H G B L J M P D K C T S W R N Z
",,,,,,,,,,,,,,,,,,,,,,,,,,,,,,,,,,,,,,,,,,,,,,,,,,,,,,,,,,,,,,,,,,,,,,,,,,,,,,,,,,,,,,,,,,,,,
,,,,,,,,,,5e98b398e4a84f0eb3755e51,26,Mężczyzna,2022-05-28_09h30.48.773,task,2021.1.4,Win32,60.0240096,628b806c463b948bc644b84f,6291cefdf7e558bc8a439aba,,,,,,,,,,,msh,"[""m"",""s"",""h""]","[0.9159999999999968,1.0489999999999782,1.3659999999999854,1.839999999999975]",1,MSH,2,0,2,0,1,,,,,,,,,,,,,,,,,,,,,,,,,,,,,,,,,,,,,,,,,,,,,,,,,,,,,,,,,,,,,,,,,,,,,,,,,,,,,,,,,,,
,,,,,,,,,,5e98b398e4a84f0eb3755e51,26,Mężczyzna,2022-05-28_09h30.48.773,task,2021.1.4,Win32,60.0240096,628b806c463b948bc644b84f,6291cefdf7e558bc8a439aba,,,,,0,0,0,0,1,"X V Q F H G B L J M P D K C T S W R N Z
",,,,,,,,,,,,,,,,,,,,,,,,,,,,,,,,,,,,,,,,,,,,,,,,,,,,,,,,,,,,,,,,,,,,,,,,,,,,,,,,,,,,,,,,,,,,,
,,,,,,,,,,5e98b398e4a84f0eb3755e51,26,Mężczyzna,2022-05-28_09h30.48.773,task,2021.1.4,Win32,60.0240096,628b806c463b948bc644b84f,6291cefdf7e558bc8a439aba,,,,,1,0,1,0,1,"X V Q F H G B L J M P D K C T S W R N Z
",,,,,,,,,,,,,,,,,,,,,,,,,,,,,,,,,,,,,,,,,,,,,,,,,,,,,,,,,,,,,,,,,,,,,,,,,,,,,,,,,,,,,,,,,,,,,
,,,,,,,,,,5e98b398e4a84f0eb3755e51,26,Mężczyzna,2022-05-28_09h30.48.773,task,2021.1.4,Win32,60.0240096,628b806c463b948bc644b84f,6291cefdf7e558bc8a439aba,,,,,2,0,2,0,1,"X V Q F H G B L J M P D K C T S W R N Z
",,,,,,,,,,,,,,,,,,,,,,,,,,,,,,,,,,,,,,,,,,,,,,,,,,,,,,,,,,,,,,,,,,,,,,,,,,,,,,,,,,,,,,,,,,,,,
,,,,,,,,,,5e98b398e4a84f0eb3755e51,26,Mężczyzna,2022-05-28_09h30.48.773,task,2021.1.4,Win32,60.0240096,628b806c463b948bc644b84f,6291cefdf7e558bc8a439aba,,,,,,,,,,,qqq,"[""q"",""q"",""q""]","[0.5020000000000095,0.7540000000000191,1.059000000000026,1.6229999999999905]",1,QQQ,3,0,3,0,1,,,,,,,,,,,,,,,,,,,,,,,,,,,,,,,,,,,,,,,,,,,,,,,,,,,,,,,,,,,,,,,,,,,,,,,,,,,,,,,,,,,
,,,,,,,,,,5e98b398e4a84f0eb3755e51,26,Mężczyzna,2022-05-28_09h30.48.773,task,2021.1.4,Win32,60.0240096,628b806c463b948bc644b84f,6291cefdf7e558bc8a439aba,,,,,0,0,0,0,1,"X V Q F H G B L J M P D K C T S W R N Z
",,,,,,,,,,,,,,,,,,,,,,,,,,,,,,,,,,,,,,,,,,,,,,,,,,,,,,,,,,,,,,,,,,,,,,,,,,,,,,,,,,,,,,,,,,,,,
,,,,,,,,,,5e98b398e4a84f0eb3755e51,26,Mężczyzna,2022-05-28_09h30.48.773,task,2021.1.4,Win32,60.0240096,628b806c463b948bc644b84f,6291cefdf7e558bc8a439aba,,,,,1,0,1,0,1,"X V Q F H G B L J M P D K C T S W R N Z
",,,,,,,,,,,,,,,,,,,,,,,,,,,,,,,,,,,,,,,,,,,,,,,,,,,,,,,,,,,,,,,,,,,,,,,,,,,,,,,,,,,,,,,,,,,,,
,,,,,,,,,,5e98b398e4a84f0eb3755e51,26,Mężczyzna,2022-05-28_09h30.48.773,task,2021.1.4,Win32,60.0240096,628b806c463b948bc644b84f,6291cefdf7e558bc8a439aba,,,,,2,0,2,0,1,"X V Q F H G B L J M P D K C T S W R N Z
",,,,,,,,,,,,,,,,,,,,,,,,,,,,,,,,,,,,,,,,,,,,,,,,,,,,,,,,,,,,,,,,,,,,,,,,,,,,,,,,,,,,,,,,,,,,,
,,,,,,,,,,5e98b398e4a84f0eb3755e51,26,Mężczyzna,2022-05-28_09h30.48.773,task,2021.1.4,Win32,60.0240096,628b806c463b948bc644b84f,6291cefdf7e558bc8a439aba,,,,,3,0,3,0,1,"X V Q F H G B L J M P D K C T S W R N Z
",,,,,,,,,,,,,,,,,,,,,,,,,,,,,,,,,,,,,,,,,,,,,,,,,,,,,,,,,,,,,,,,,,,,,,,,,,,,,,,,,,,,,,,,,,,,,
,,,,,,,,,,5e98b398e4a84f0eb3755e51,26,Mężczyzna,2022-05-28_09h30.48.773,task,2021.1.4,Win32,60.0240096,628b806c463b948bc644b84f,6291cefdf7e558bc8a439aba,,,,,,,,,,,qhng,"[""q"",""h"",""n"",""g""]","[0.4660000000000082,0.72199999999998,0.9990000000000236,1.15300000000002,1.6410000000000196]",1,QHNG,4,0,4,0,1,,,,,,,,,,,,,,,,,,,,,,,,,,,,,,,,,,,,,,,,,,,,,,,,,,,,,,,,,,,,,,,,,,,,,,,,,,,,,,,,,,,
,,,,,,,,,,5e98b398e4a84f0eb3755e51,26,Mężczyzna,2022-05-28_09h30.48.773,task,2021.1.4,Win32,60.0240096,628b806c463b948bc644b84f,6291cefdf7e558bc8a439aba,,,,,0,0,0,0,1,"X V Q F H G B L J M P D K C T S W R N Z
",,,,,,,,,,,,,,,,,,,,,,,,,,,,,,,,,,,,,,,,,,,,,,,,,,,,,,,,,,,,,,,,,,,,,,,,,,,,,,,,,,,,,,,,,,,,,
,,,,,,,,,,5e98b398e4a84f0eb3755e51,26,Mężczyzna,2022-05-28_09h30.48.773,task,2021.1.4,Win32,60.0240096,628b806c463b948bc644b84f,6291cefdf7e558bc8a439aba,,,,,1,0,1,0,1,"X V Q F H G B L J M P D K C T S W R N Z
",,,,,,,,,,,,,,,,,,,,,,,,,,,,,,,,,,,,,,,,,,,,,,,,,,,,,,,,,,,,,,,,,,,,,,,,,,,,,,,,,,,,,,,,,,,,,
,,,,,,,,,,5e98b398e4a84f0eb3755e51,26,Mężczyzna,2022-05-28_09h30.48.773,task,2021.1.4,Win32,60.0240096,628b806c463b948bc644b84f,6291cefdf7e558bc8a439aba,,,,,2,0,2,0,1,"X V Q F H G B L J M P D K C T S W R N Z
",,,,,,,,,,,,,,,,,,,,,,,,,,,,,,,,,,,,,,,,,,,,,,,,,,,,,,,,,,,,,,,,,,,,,,,,,,,,,,,,,,,,,,,,,,,,,
,,,,,,,,,,5e98b398e4a84f0eb3755e51,26,Mężczyzna,2022-05-28_09h30.48.773,task,2021.1.4,Win32,60.0240096,628b806c463b948bc644b84f,6291cefdf7e558bc8a439aba,,,,,3,0,3,0,1,"X V Q F H G B L J M P D K C T S W R N Z
",,,,,,,,,,,,,,,,,,,,,,,,,,,,,,,,,,,,,,,,,,,,,,,,,,,,,,,,,,,,,,,,,,,,,,,,,,,,,,,,,,,,,,,,,,,,,
,,,,,,,,,,5e98b398e4a84f0eb3755e51,26,Mężczyzna,2022-05-28_09h30.48.773,task,2021.1.4,Win32,60.0240096,628b806c463b948bc644b84f,6291cefdf7e558bc8a439aba,,,,,,,,,,,ljcg,"[""l"",""j"",""c"",""g""]","[0.7660000000000196,1.1310000000000286,1.3170000000000073,1.6399999999999864,2.1990000000000123]",1,LJCG,5,0,5,0,1,,,,,,,,,,,,,,,,,,,,,,,,,,,,,,,,,,,,,,,,,,,,,,,,,,,,,,,,,,,,,,,,,,,,,,,,,,,,,,,,,,,
,,,,,,,,,,5e98b398e4a84f0eb3755e51,26,Mężczyzna,2022-05-28_09h30.48.773,task,2021.1.4,Win32,60.0240096,628b806c463b948bc644b84f,6291cefdf7e558bc8a439aba,,,,,0,0,0,0,1,"X V Q F H G B L J M P D K C T S W R N Z
",,,,,,,,,,,,,,,,,,,,,,,,,,,,,,,,,,,,,,,,,,,,,,,,,,,,,,,,,,,,,,,,,,,,,,,,,,,,,,,,,,,,,,,,,,,,,
,,,,,,,,,,5e98b398e4a84f0eb3755e51,26,Mężczyzna,2022-05-28_09h30.48.773,task,2021.1.4,Win32,60.0240096,628b806c463b948bc644b84f,6291cefdf7e558bc8a439aba,,,,,1,0,1,0,1,"X V Q F H G B L J M P D K C T S W R N Z
",,,,,,,,,,,,,,,,,,,,,,,,,,,,,,,,,,,,,,,,,,,,,,,,,,,,,,,,,,,,,,,,,,,,,,,,,,,,,,,,,,,,,,,,,,,,,
,,,,,,,,,,5e98b398e4a84f0eb3755e51,26,Mężczyzna,2022-05-28_09h30.48.773,task,2021.1.4,Win32,60.0240096,628b806c463b948bc644b84f,6291cefdf7e558bc8a439aba,,,,,2,0,2,0,1,"X V Q F H G B L J M P D K C T S W R N Z
",,,,,,,,,,,,,,,,,,,,,,,,,,,,,,,,,,,,,,,,,,,,,,,,,,,,,,,,,,,,,,,,,,,,,,,,,,,,,,,,,,,,,,,,,,,,,
,,,,,,,,,,5e98b398e4a84f0eb3755e51,26,Mężczyzna,2022-05-28_09h30.48.773,task,2021.1.4,Win32,60.0240096,628b806c463b948bc644b84f,6291cefdf7e558bc8a439aba,,,,,3,0,3,0,1,"X V Q F H G B L J M P D K C T S W R N Z
",,,,,,,,,,,,,,,,,,,,,,,,,,,,,,,,,,,,,,,,,,,,,,,,,,,,,,,,,,,,,,,,,,,,,,,,,,,,,,,,,,,,,,,,,,,,,
,,,,,,,,,,5e98b398e4a84f0eb3755e51,26,Mężczyzna,2022-05-28_09h30.48.773,task,2021.1.4,Win32,60.0240096,628b806c463b948bc644b84f,6291cefdf7e558bc8a439aba,,,,,4,0,4,0,1,"X V Q F H G B L J M P D K C T S W R N Z
",,,,,,,,,,,,,,,,,,,,,,,,,,,,,,,,,,,,,,,,,,,,,,,,,,,,,,,,,,,,,,,,,,,,,,,,,,,,,,,,,,,,,,,,,,,,,
,,,,,,,,,,5e98b398e4a84f0eb3755e51,26,Mężczyzna,2022-05-28_09h30.48.773,task,2021.1.4,Win32,60.0240096,628b806c463b948bc644b84f,6291cefdf7e558bc8a439aba,,,,,,,,,,,xxwtr,"[""x"",""x"",""w"",""t"",""r""]","[0.33499999999997954,0.5169999999999959,0.7900000000000205,1.15300000000002,1.7730000000000246,2.105000000000018]",1,XXWTR,6,0,6,0,1,,,,,,,,,,,,,,,,,,,,,,,,,,,,,,,,,,,,,,,,,,,,,,,,,,,,,,,,,,,,,,,,,,,,,,,,,,,,,,,,,,,
,,,,,,,,,,5e98b398e4a84f0eb3755e51,26,Mężczyzna,2022-05-28_09h30.48.773,task,2021.1.4,Win32,60.0240096,628b806c463b948bc644b84f,6291cefdf7e558bc8a439aba,,,,,0,0,0,0,1,"X V Q F H G B L J M P D K C T S W R N Z
",,,,,,,,,,,,,,,,,,,,,,,,,,,,,,,,,,,,,,,,,,,,,,,,,,,,,,,,,,,,,,,,,,,,,,,,,,,,,,,,,,,,,,,,,,,,,
,,,,,,,,,,5e98b398e4a84f0eb3755e51,26,Mężczyzna,2022-05-28_09h30.48.773,task,2021.1.4,Win32,60.0240096,628b806c463b948bc644b84f,6291cefdf7e558bc8a439aba,,,,,1,0,1,0,1,"X V Q F H G B L J M P D K C T S W R N Z
",,,,,,,,,,,,,,,,,,,,,,,,,,,,,,,,,,,,,,,,,,,,,,,,,,,,,,,,,,,,,,,,,,,,,,,,,,,,,,,,,,,,,,,,,,,,,
,,,,,,,,,,5e98b398e4a84f0eb3755e51,26,Mężczyzna,2022-05-28_09h30.48.773,task,2021.1.4,Win32,60.0240096,628b806c463b948bc644b84f,6291cefdf7e558bc8a439aba,,,,,2,0,2,0,1,"X V Q F H G B L J M P D K C T S W R N Z
",,,,,,,,,,,,,,,,,,,,,,,,,,,,,,,,,,,,,,,,,,,,,,,,,,,,,,,,,,,,,,,,,,,,,,,,,,,,,,,,,,,,,,,,,,,,,
,,,,,,,,,,5e98b398e4a84f0eb3755e51,26,Mężczyzna,2022-05-28_09h30.48.773,task,2021.1.4,Win32,60.0240096,628b806c463b948bc644b84f,6291cefdf7e558bc8a439aba,,,,,3,0,3,0,1,"X V Q F H G B L J M P D K C T S W R N Z
",,,,,,,,,,,,,,,,,,,,,,,,,,,,,,,,,,,,,,,,,,,,,,,,,,,,,,,,,,,,,,,,,,,,,,,,,,,,,,,,,,,,,,,,,,,,,
,,,,,,,,,,5e98b398e4a84f0eb3755e51,26,Mężczyzna,2022-05-28_09h30.48.773,task,2021.1.4,Win32,60.0240096,628b806c463b948bc644b84f,6291cefdf7e558bc8a439aba,,,,,4,0,4,0,1,"X V Q F H G B L J M P D K C T S W R N Z
",,,,,,,,,,,,,,,,,,,,,,,,,,,,,,,,,,,,,,,,,,,,,,,,,,,,,,,,,,,,,,,,,,,,,,,,,,,,,,,,,,,,,,,,,,,,,
,,,,,,,,,,5e98b398e4a84f0eb3755e51,26,Mężczyzna,2022-05-28_09h30.48.773,task,2021.1.4,Win32,60.0240096,628b806c463b948bc644b84f,6291cefdf7e558bc8a439aba,,,,,,,,,,,vldph,"[""v"",""l"",""d"",""p"",""h""]","[0.6890000000000214,0.8520000000000323,1.0529999999999973,1.3010000000000446,1.740000000000009,2.16700000000003]",1,VLDPH,7,0,7,0,1,,,,,,,,,,,,,,,,,,,,,,,,,,,,,,,,,,,,,,,,,,,,,,,,,,,,,,,,,,,,,,,,,,,,,,,,,,,,,,,,,,,
,,,,,,,,,,5e98b398e4a84f0eb3755e51,26,Mężczyzna,2022-05-28_09h30.48.773,task,2021.1.4,Win32,60.0240096,628b806c463b948bc644b84f,6291cefdf7e558bc8a439aba,,,,,0,0,0,0,1,"X V Q F H G B L J M P D K C T S W R N Z
",,,,,,,,,,,,,,,,,,,,,,,,,,,,,,,,,,,,,,,,,,,,,,,,,,,,,,,,,,,,,,,,,,,,,,,,,,,,,,,,,,,,,,,,,,,,,
,,,,,,,,,,5e98b398e4a84f0eb3755e51,26,Mężczyzna,2022-05-28_09h30.48.773,task,2021.1.4,Win32,60.0240096,628b806c463b948bc644b84f,6291cefdf7e558bc8a439aba,,,,,1,0,1,0,1,"X V Q F H G B L J M P D K C T S W R N Z
",,,,,,,,,,,,,,,,,,,,,,,,,,,,,,,,,,,,,,,,,,,,,,,,,,,,,,,,,,,,,,,,,,,,,,,,,,,,,,,,,,,,,,,,,,,,,
,,,,,,,,,,5e98b398e4a84f0eb3755e51,26,Mężczyzna,2022-05-28_09h30.48.773,task,2021.1.4,Win32,60.0240096,628b806c463b948bc644b84f,6291cefdf7e558bc8a439aba,,,,,2,0,2,0,1,"X V Q F H G B L J M P D K C T S W R N Z
",,,,,,,,,,,,,,,,,,,,,,,,,,,,,,,,,,,,,,,,,,,,,,,,,,,,,,,,,,,,,,,,,,,,,,,,,,,,,,,,,,,,,,,,,,,,,
,,,,,,,,,,5e98b398e4a84f0eb3755e51,26,Mężczyzna,2022-05-28_09h30.48.773,task,2021.1.4,Win32,60.0240096,628b806c463b948bc644b84f,6291cefdf7e558bc8a439aba,,,,,3,0,3,0,1,"X V Q F H G B L J M P D K C T S W R N Z
",,,,,,,,,,,,,,,,,,,,,,,,,,,,,,,,,,,,,,,,,,,,,,,,,,,,,,,,,,,,,,,,,,,,,,,,,,,,,,,,,,,,,,,,,,,,,
,,,,,,,,,,5e98b398e4a84f0eb3755e51,26,Mężczyzna,2022-05-28_09h30.48.773,task,2021.1.4,Win32,60.0240096,628b806c463b948bc644b84f,6291cefdf7e558bc8a439aba,,,,,4,0,4,0,1,"X V Q F H G B L J M P D K C T S W R N Z
",,,,,,,,,,,,,,,,,,,,,,,,,,,,,,,,,,,,,,,,,,,,,,,,,,,,,,,,,,,,,,,,,,,,,,,,,,,,,,,,,,,,,,,,,,,,,
,,,,,,,,,,5e98b398e4a84f0eb3755e51,26,Mężczyzna,2022-05-28_09h30.48.773,task,2021.1.4,Win32,60.0240096,628b806c463b948bc644b84f,6291cefdf7e558bc8a439aba,,,,,5,0,5,0,1,"X V Q F H G B L J M P D K C T S W R N Z
",,,,,,,,,,,,,,,,,,,,,,,,,,,,,,,,,,,,,,,,,,,,,,,,,,,,,,,,,,,,,,,,,,,,,,,,,,,,,,,,,,,,,,,,,,,,,
,,,,,,,,,,5e98b398e4a84f0eb3755e51,26,Mężczyzna,2022-05-28_09h30.48.773,task,2021.1.4,Win32,60.0240096,628b806c463b948bc644b84f,6291cefdf7e558bc8a439aba,,,,,,,,,,,fdvdtr,"[""f"",""d"",""v"",""d"",""t"",""r""]","[0.44999999999998863,0.8029999999999973,1.1000000000000227,1.4840000000000373,4.5020000000000095,5.016999999999996,5.399000000000001]",0,FDVDWR,8,0,8,0,1,,,,,,,,,,,,,,,,,,,,,,,,,,,,,,,,,,,,,,,,,,,,,,,,,,,,,,,,,,,,,,,,,,,,,,,,,,,,,,,,,,,
,,,,,,,,,,5e98b398e4a84f0eb3755e51,26,Mężczyzna,2022-05-28_09h30.48.773,task,2021.1.4,Win32,60.0240096,628b806c463b948bc644b84f,6291cefdf7e558bc8a439aba,,,,,0,0,0,0,1,"X V Q F H G B L J M P D K C T S W R N Z
",,,,,,,,,,,,,,,,,,,,,,,,,,,,,,,,,,,,,,,,,,,,,,,,,,,,,,,,,,,,,,,,,,,,,,,,,,,,,,,,,,,,,,,,,,,,,
,,,,,,,,,,5e98b398e4a84f0eb3755e51,26,Mężczyzna,2022-05-28_09h30.48.773,task,2021.1.4,Win32,60.0240096,628b806c463b948bc644b84f,6291cefdf7e558bc8a439aba,,,,,1,0,1,0,1,"X V Q F H G B L J M P D K C T S W R N Z
",,,,,,,,,,,,,,,,,,,,,,,,,,,,,,,,,,,,,,,,,,,,,,,,,,,,,,,,,,,,,,,,,,,,,,,,,,,,,,,,,,,,,,,,,,,,,
,,,,,,,,,,5e98b398e4a84f0eb3755e51,26,Mężczyzna,2022-05-28_09h30.48.773,task,2021.1.4,Win32,60.0240096,628b806c463b948bc644b84f,6291cefdf7e558bc8a439aba,,,,,2,0,2,0,1,"X V Q F H G B L J M P D K C T S W R N Z
",,,,,,,,,,,,,,,,,,,,,,,,,,,,,,,,,,,,,,,,,,,,,,,,,,,,,,,,,,,,,,,,,,,,,,,,,,,,,,,,,,,,,,,,,,,,,
,,,,,,,,,,5e98b398e4a84f0eb3755e51,26,Mężczyzna,2022-05-28_09h30.48.773,task,2021.1.4,Win32,60.0240096,628b806c463b948bc644b84f,6291cefdf7e558bc8a439aba,,,,,3,0,3,0,1,"X V Q F H G B L J M P D K C T S W R N Z
",,,,,,,,,,,,,,,,,,,,,,,,,,,,,,,,,,,,,,,,,,,,,,,,,,,,,,,,,,,,,,,,,,,,,,,,,,,,,,,,,,,,,,,,,,,,,
,,,,,,,,,,5e98b398e4a84f0eb3755e51,26,Mężczyzna,2022-05-28_09h30.48.773,task,2021.1.4,Win32,60.0240096,628b806c463b948bc644b84f,6291cefdf7e558bc8a439aba,,,,,4,0,4,0,1,"X V Q F H G B L J M P D K C T S W R N Z
",,,,,,,,,,,,,,,,,,,,,,,,,,,,,,,,,,,,,,,,,,,,,,,,,,,,,,,,,,,,,,,,,,,,,,,,,,,,,,,,,,,,,,,,,,,,,
,,,,,,,,,,5e98b398e4a84f0eb3755e51,26,Mężczyzna,2022-05-28_09h30.48.773,task,2021.1.4,Win32,60.0240096,628b806c463b948bc644b84f,6291cefdf7e558bc8a439aba,,,,,5,0,5,0,1,"X V Q F H G B L J M P D K C T S W R N Z
",,,,,,,,,,,,,,,,,,,,,,,,,,,,,,,,,,,,,,,,,,,,,,,,,,,,,,,,,,,,,,,,,,,,,,,,,,,,,,,,,,,,,,,,,,,,,
,,,,,,,,,,5e98b398e4a84f0eb3755e51,26,Mężczyzna,2022-05-28_09h30.48.773,task,2021.1.4,Win32,60.0240096,628b806c463b948bc644b84f,6291cefdf7e558bc8a439aba,,,,,,,,,,,wdcpbx,"[""w"",""d"",""c"",""p"",""b"",""x""]","[0.7250000000000227,1.2010000000000218,1.4540000000000077,1.7180000000000177,2.66700000000003,3.1510000000000105,4.040999999999997]",0,WKCBPX,9,0,9,0,1,,,,,,,,,,,,,,,,,,,,,,,,,,,,,,,,,,,,,,,,,,,,,,,,,,,,,,,,,,,,,,,,,,,,,,,,,,,,,,,,,,,
,,,,,,,,,,5e98b398e4a84f0eb3755e51,26,Mężczyzna,2022-05-28_09h30.48.773,task,2021.1.4,Win32,60.0240096,628b806c463b948bc644b84f,6291cefdf7e558bc8a439aba,,,,,0,0,0,0,1,"X V Q F H G B L J M P D K C T S W R N Z
",,,,,,,,,,,,,,,,,,,,,,,,,,,,,,,,,,,,,,,,,,,,,,,,,,,,,,,,,,,,,,,,,,,,,,,,,,,,,,,,,,,,,,,,,,,,,
,,,,,,,,,,5e98b398e4a84f0eb3755e51,26,Mężczyzna,2022-05-28_09h30.48.773,task,2021.1.4,Win32,60.0240096,628b806c463b948bc644b84f,6291cefdf7e558bc8a439aba,,,,,1,0,1,0,1,"X V Q F H G B L J M P D K C T S W R N Z
",,,,,,,,,,,,,,,,,,,,,,,,,,,,,,,,,,,,,,,,,,,,,,,,,,,,,,,,,,,,,,,,,,,,,,,,,,,,,,,,,,,,,,,,,,,,,
,,,,,,,,,,5e98b398e4a84f0eb3755e51,26,Mężczyzna,2022-05-28_09h30.48.773,task,2021.1.4,Win32,60.0240096,628b806c463b948bc644b84f,6291cefdf7e558bc8a439aba,,,,,2,0,2,0,1,"X V Q F H G B L J M P D K C T S W R N Z
",,,,,,,,,,,,,,,,,,,,,,,,,,,,,,,,,,,,,,,,,,,,,,,,,,,,,,,,,,,,,,,,,,,,,,,,,,,,,,,,,,,,,,,,,,,,,
,,,,,,,,,,5e98b398e4a84f0eb3755e51,26,Mężczyzna,2022-05-28_09h30.48.773,task,2021.1.4,Win32,60.0240096,628b806c463b948bc644b84f,6291cefdf7e558bc8a439aba,,,,,3,0,3,0,1,"X V Q F H G B L J M P D K C T S W R N Z
",,,,,,,,,,,,,,,,,,,,,,,,,,,,,,,,,,,,,,,,,,,,,,,,,,,,,,,,,,,,,,,,,,,,,,,,,,,,,,,,,,,,,,,,,,,,,
,,,,,,,,,,5e98b398e4a84f0eb3755e51,26,Mężczyzna,2022-05-28_09h30.48.773,task,2021.1.4,Win32,60.0240096,628b806c463b948bc644b84f,6291cefdf7e558bc8a439aba,,,,,4,0,4,0,1,"X V Q F H G B L J M P D K C T S W R N Z
",,,,,,,,,,,,,,,,,,,,,,,,,,,,,,,,,,,,,,,,,,,,,,,,,,,,,,,,,,,,,,,,,,,,,,,,,,,,,,,,,,,,,,,,,,,,,
,,,,,,,,,,5e98b398e4a84f0eb3755e51,26,Mężczyzna,2022-05-28_09h30.48.773,task,2021.1.4,Win32,60.0240096,628b806c463b948bc644b84f,6291cefdf7e558bc8a439aba,,,,,5,0,5,0,1,"X V Q F H G B L J M P D K C T S W R N Z
",,,,,,,,,,,,,,,,,,,,,,,,,,,,,,,,,,,,,,,,,,,,,,,,,,,,,,,,,,,,,,,,,,,,,,,,,,,,,,,,,,,,,,,,,,,,,
,,,,,,,,,,5e98b398e4a84f0eb3755e51,26,Mężczyzna,2022-05-28_09h30.48.773,task,2021.1.4,Win32,60.0240096,628b806c463b948bc644b84f,6291cefdf7e558bc8a439aba,,,,,,,,,,,kptzcqt,"[""k"",""p"",""t"",""z"",""c"",""q"",""t""]","[0.6050000000000182,0.9540000000000077,1.100999999999999,1.771000000000015,2.132000000000005,2.516999999999996,3.13900000000001,3.7379999999999995]",0,"KPTZ
PQ",10,0,10,0,1,,,,,,,,,,,,,,,,,,,,,,,,,,,,,,,,,,,,,,,,,,,,,,,,,,,,,,,,,,,,,,,,,,,,,,,,,,,,,,,,,,,
,,,,,,,,,,5e98b398e4a84f0eb3755e51,26,Mężczyzna,2022-05-28_09h30.48.773,task,2021.1.4,Win32,60.0240096,628b806c463b948bc644b84f,6291cefdf7e558bc8a439aba,,,,,,,,,,,,,,,,,,,,,space,9.727,8,"[""8""]",1,[10.381999999999948],[10.381999999999948],0,0,0,8,1,Practice,9,(3x3) - 1,8,,,,,,,,,,,,,,,,,,,,,,,,,,,,,,,,,,,,,,,,,,,,,,,,,,,,,,,,,,,,,,,,,,,
,,,,,,,,,,5e98b398e4a84f0eb3755e51,26,Mężczyzna,2022-05-28_09h30.48.773,task,2021.1.4,Win32,60.0240096,628b806c463b948bc644b84f,6291cefdf7e558bc8a439aba,,,,,,,,,,,,,,,,,,,,,,,5,"[""5""]",1,[5.4529999999999745],"[10.381999999999948,5.4529999999999745]",0,1,1,5,1,Practice,6,(4/2) + 3,5,,,,,,,,,,,,,,,,,,,,,,,,,,,,,,,,,,,,,,,,,,,,,,,,,,,,,,,,,,,,,,,,,,,
,,,,,,,,,,5e98b398e4a84f0eb3755e51,26,Mężczyzna,2022-05-28_09h30.48.773,task,2021.1.4,Win32,60.0240096,628b806c463b948bc644b84f,6291cefdf7e558bc8a439aba,,,,,,,,,,,,,,,,,,,,,,,5,"[""5""]",0,[2.0159999999999627],"[10.381999999999948,5.4529999999999745,2.0159999999999627]",0,2,2,3,1,Practice,4,(8/4) + 1,3,,,,,,,,,,,,,,,,,,,,,,,,,,,,,,,,,,,,,,,,,,,,,,,,,,,,,,,,,,,,,,,,,,,
,,,,,,,,,,5e98b398e4a84f0eb3755e51,26,Mężczyzna,2022-05-28_09h30.48.773,task,2021.1.4,Win32,60.0240096,628b806c463b948bc644b84f,6291cefdf7e558bc8a439aba,,,,,,,,,,,,,,,,,,,,,,,9,"[""9""]",1,[6.600000000000023],"[10.381999999999948,5.4529999999999745,2.0159999999999627,6.600000000000023]",0,3,3,9,1,Practice,10,(20/2) - 1,9,,,,,,,,,,,,,,,,,,,,,,,,,,,,,,,,,,,,,,,,,,,,,,,,,,,,,,,,,,,,,,,,,,,
,,,,,,,,,,5e98b398e4a84f0eb3755e51,26,Mężczyzna,2022-05-28_09h30.48.773,task,2021.1.4,Win32,60.0240096,628b806c463b948bc644b84f,6291cefdf7e558bc8a439aba,,,,,,,,,,,,,,,,,,,,,,,4,"[""4""]",1,[6.862999999999943],"[10.381999999999948,5.4529999999999745,2.0159999999999627,6.600000000000023,6.862999999999943]",0,4,4,4,1,Practice,5,(2x6) - 8,4,,,,,,,,,,,,,,,,,,,,,,,,,,,,,,,,,,,,,,,,,,,,,,,,,,,,,,,,,,,,,,,,,,,
,,,,,,,,,,5e98b398e4a84f0eb3755e51,26,Mężczyzna,2022-05-28_09h30.48.773,task,2021.1.4,Win32,60.0240096,628b806c463b948bc644b84f,6291cefdf7e558bc8a439aba,,,,,,,,,,,,,,,,,,,,,,,7,"[""7""]",1,[10.937000000000012],"[10.381999999999948,5.4529999999999745,2.0159999999999627,6.600000000000023,6.862999999999943,10.937000000000012]",0,5,5,7,1,Practice,8,(5x5) - 18,7,,,,,,,,,,,,,,,,,,,,,,,,,,,,,,,,,,,,,,,,,,,,,,,,,,,,,,,,,,,,,,,,,,,
,,,,,,,,,,5e98b398e4a84f0eb3755e51,26,Mężczyzna,2022-05-28_09h30.48.773,task,2021.1.4,Win32,60.0240096,628b806c463b948bc644b84f,6291cefdf7e558bc8a439aba,,,,,,,,,,,,,,,,,,,,,,,2,"[""2""]",1,[8.779999999999973],"[10.381999999999948,5.4529999999999745,2.0159999999999627,6.600000000000023,6.862999999999943,10.937000000000012,8.779999999999973]",0,6,6,2,1,Practice,3,(4x4) - 14,2,,,,,,,,,,,,,,,,,,,,,,,,,,,,,,,,,,,,,,,,,,,,,,,,,,,,,,,,,,,,,,,,,,,
,,,,,,,,,,5e98b398e4a84f0eb3755e51,26,Mężczyzna,2022-05-28_09h30.48.773,task,2021.1.4,Win32,60.0240096,628b806c463b948bc644b84f,6291cefdf7e558bc8a439aba,,,,,,,,,,,,,,,,,,,,,,,0,"[""0""]",1,[4.406000000000063],"[10.381999999999948,5.4529999999999745,2.0159999999999627,6.600000000000023,6.862999999999943,10.937000000000012,8.779999999999973,4.406000000000063]",0,7,7,0,1,Practice,1,(3x3) -  9,0,,,,,,,,,,,,,,,,,,,,,,,,,,,,,,,,,,,,,,,,,,,,,,,,,,,,,,,,,,,,,,,,,,,
,,,,,,,,,,5e98b398e4a84f0eb3755e51,26,Mężczyzna,2022-05-28_09h30.48.773,task,2021.1.4,Win32,60.0240096,628b806c463b948bc644b84f,6291cefdf7e558bc8a439aba,,,,,,,,,,,,,,,,,,,,,,,6,"[""6""]",1,[10.44900000000007],"[10.381999999999948,5.4529999999999745,2.0159999999999627,6.600000000000023,6.862999999999943,10.937000000000012,8.779999999999973,4.406000000000063,10.44900000000007]",0,8,8,6,1,Practice,7,(25/5) + 1,6,,,,,,,,,,,,,,,,,,,,,,,,,,,,,,,,,,,,,,,,,,,,,,,,,,,,,,,,,,,,,,,,,,,
,,,,,,,,,,5e98b398e4a84f0eb3755e51,26,Mężczyzna,2022-05-28_09h30.48.773,task,2021.1.4,Win32,60.0240096,628b806c463b948bc644b84f,6291cefdf7e558bc8a439aba,,,,,,,,,,,,,,,,,,,,,,,1,"[""1""]",1,[6.250999999999976],"[10.381999999999948,5.4529999999999745,2.0159999999999627,6.600000000000023,6.862999999999943,10.937000000000012,8.779999999999973,4.406000000000063,10.44900000000007,6.250999999999976]",0,9,9,1,1,Practice,2,(4x4) - 15,1,,,,,,,,,,,,,,,,,,,,,,,,,,,,,,,,,,,,,,,,,,,,,,,,,,,,,,,,,,,,,,,,,,,
,,,,,,,,,,5e98b398e4a84f0eb3755e51,26,Mężczyzna,2022-05-28_09h30.48.773,task,2021.1.4,Win32,60.0240096,628b806c463b948bc644b84f,6291cefdf7e558bc8a439aba,,,,,,,,,,,,,,,,,,,,,,,,,,,,,,,,,,,,,0.9,72.137,4.809133333,134.0666966,2.989611978,12.52233224,space,5.659,0,0,0,0,1,,,,,,,,,,,,,,,,,,,,,,,,,,,,,,,,,,,,,,,,,,,,,,,,,,,,,,
,,,,,,,,,,5e98b398e4a84f0eb3755e51,26,Mężczyzna,2022-05-28_09h30.48.773,task,2021.1.4,Win32,60.0240096,628b806c463b948bc644b84f,6291cefdf7e558bc8a439aba,,,,,,,,,,,,,,,,,,,,,,,9,,,,,,,,,,Practice,10,(20/2) - 1,9,,,,,,,,,,,,,,space,62.356,"[""9""]",1,[4.57000000000005],1,0,0,0,9,1,,,,,,,,,,,,,,,,,,,,,,,,,,,,,,,,,,,,,,,,,,,
,,,,,,,,,,5e98b398e4a84f0eb3755e51,26,Mężczyzna,2022-05-28_09h30.48.773,task,2021.1.4,Win32,60.0240096,628b806c463b948bc644b84f,6291cefdf7e558bc8a439aba,,,,,,,,,,"X V Q F H G B L J M P D K C T S W R N Z
",,,,,,,,,,,,,,,,,,,,,,,,,,,,,,,,,,,,,,,,,,,,,,,,,,,0,0,0,0,1,,,,,,,,,,,,,,,,,,,,,,,,,,,,,,,,,,,,,,
,,,,,,,,,,5e98b398e4a84f0eb3755e51,26,Mężczyzna,2022-05-28_09h30.48.773,task,2021.1.4,Win32,60.0240096,628b806c463b948bc644b84f,6291cefdf7e558bc8a439aba,,,,,,,,,,,,,,,,,,,,,,,4,,,,,,,,,,Practice,5,(2x6) - 8,4,,,,,,,,,,,,,,,,"[""4""]",1,[4.715000000000032],1,0,0,0,4,1,,,,,,,,,,,,,,,,,,,,,,,,,,,,,,,,,,,,,,,,,,,
,,,,,,,,,,5e98b398e4a84f0eb3755e51,26,Mężczyzna,2022-05-28_09h30.48.773,task,2021.1.4,Win32,60.0240096,628b806c463b948bc644b84f,6291cefdf7e558bc8a439aba,,,,,,,,,,"X V Q F H G B L J M P D K C T S W R N Z
",,,,,,,,,,,,,,,,,,,,,,,,,,,,,,,,,,,,,,,,,,,,,,,,,,,1,0,1,0,1,,,,,,,,,,,,,,,,,,,,,,,,,,,,,,,,,,,,,,
,,,,,,,,,,5e98b398e4a84f0eb3755e51,26,Mężczyzna,2022-05-28_09h30.48.773,task,2021.1.4,Win32,60.0240096,628b806c463b948bc644b84f,6291cefdf7e558bc8a439aba,,,,,,,,,,,,,,,,,,,,,,,,,,,,,,,,,,,,,,,,,,,,,,,,,,,,,,,,,,,,,,,,,,zk,"[""z"",""k""]",0,"[1.7180000000000746,2.3230000000000928,3.4880000000000564]",1,0,0,0,0,1,,,,,,,,,,,,,,,,,,,,,,,,,,,,
,,,,,,,,,,5e98b398e4a84f0eb3755e51,26,Mężczyzna,2022-05-28_09h30.48.773,task,2021.1.4,Win32,60.0240096,628b806c463b948bc644b84f,6291cefdf7e558bc8a439aba,,,,,,,,,,,,,,,,,,,,,,,4,,,,,,,,,,Practice,5,(2x6) - 8,4,,,,,,,,,,,,,,,,"[""4""]",1,[3.951000000000022],1,0,0,0,4,1,,,,,,,,,,,,,,,,,,,,,,,,,,,,,,,,,,,,,,,,,,,
,,,,,,,,,,5e98b398e4a84f0eb3755e51,26,Mężczyzna,2022-05-28_09h30.48.773,task,2021.1.4,Win32,60.0240096,628b806c463b948bc644b84f,6291cefdf7e558bc8a439aba,,,,,,,,,,"X V Q F H G B L J M P D K C T S W R N Z
",,,,,,,,,,,,,,,,,,,,,,,,,,,,,,,,,,,,,,,,,,,,,,,,,,,0,0,0,0,1,,,,,,,,,,,,,,,,,,,,,,,,,,,,,,,,,,,,,,
,,,,,,,,,,5e98b398e4a84f0eb3755e51,26,Mężczyzna,2022-05-28_09h30.48.773,task,2021.1.4,Win32,60.0240096,628b806c463b948bc644b84f,6291cefdf7e558bc8a439aba,,,,,,,,,,,,,,,,,,,,,,,1,,,,,,,,,,Practice,2,(4x4) - 15,1,,,,,,,,,,,,,,,,"[""1""]",1,[7.338999999999942],1,0,0,0,1,1,,,,,,,,,,,,,,,,,,,,,,,,,,,,,,,,,,,,,,,,,,,
,,,,,,,,,,5e98b398e4a84f0eb3755e51,26,Mężczyzna,2022-05-28_09h30.48.773,task,2021.1.4,Win32,60.0240096,628b806c463b948bc644b84f,6291cefdf7e558bc8a439aba,,,,,,,,,,"X V Q F H G B L J M P D K C T S W R N Z
",,,,,,,,,,,,,,,,,,,,,,,,,,,,,,,,,,,,,,,,,,,,,,,,,,,1,0,1,0,1,,,,,,,,,,,,,,,,,,,,,,,,,,,,,,,,,,,,,,
,,,,,,,,,,5e98b398e4a84f0eb3755e51,26,Mężczyzna,2022-05-28_09h30.48.773,task,2021.1.4,Win32,60.0240096,628b806c463b948bc644b84f,6291cefdf7e558bc8a439aba,,,,,,,,,,,,,,,,,,,,,,,,,,,,,,,,,,,,,,,,,,,,,,,,,,,,,,,,,,,,,,,,,,h,"[""h""]",0,"[2.29200000000003,2.7690000000000055]",0,1,0,1,0,1,,,,,,,,,,,,,,,,,,,,,,,,,,,,
,,,,,,,,,,5e98b398e4a84f0eb3755e51,26,Mężczyzna,2022-05-28_09h30.48.773,task,2021.1.4,Win32,60.0240096,628b806c463b948bc644b84f,6291cefdf7e558bc8a439aba,,,,,,,,,,,,,,,,,,,,,,,8,,,,,,,,,,Practice,9,(3x3) - 1,8,,,,,,,,,,,,,,,,"[""8""]",1,[2.899000000000001],1,0,0,0,8,1,,,,,,,,,,,,,,,,,,,,,,,,,,,,,,,,,,,,,,,,,,,
,,,,,,,,,,5e98b398e4a84f0eb3755e51,26,Mężczyzna,2022-05-28_09h30.48.773,task,2021.1.4,Win32,60.0240096,628b806c463b948bc644b84f,6291cefdf7e558bc8a439aba,,,,,,,,,,"X V Q F H G B L J M P D K C T S W R N Z
",,,,,,,,,,,,,,,,,,,,,,,,,,,,,,,,,,,,,,,,,,,,,,,,,,,0,0,0,0,1,,,,,,,,,,,,,,,,,,,,,,,,,,,,,,,,,,,,,,
,,,,,,,,,,5e98b398e4a84f0eb3755e51,26,Mężczyzna,2022-05-28_09h30.48.773,task,2021.1.4,Win32,60.0240096,628b806c463b948bc644b84f,6291cefdf7e558bc8a439aba,,,,,,,,,,,,,,,,,,,,,,,2,,,,,,,,,,Practice,3,(4x4) - 14,2,,,,,,,,,,,,,,,,"[""2""]",1,[6.317999999999984],1,0,0,0,2,1,,,,,,,,,,,,,,,,,,,,,,,,,,,,,,,,,,,,,,,,,,,
,,,,,,,,,,5e98b398e4a84f0eb3755e51,26,Mężczyzna,2022-05-28_09h30.48.773,task,2021.1.4,Win32,60.0240096,628b806c463b948bc644b84f,6291cefdf7e558bc8a439aba,,,,,,,,,,"X V Q F H G B L J M P D K C T S W R N Z
",,,,,,,,,,,,,,,,,,,,,,,,,,,,,,,,,,,,,,,,,,,,,,,,,,,1,0,1,0,1,,,,,,,,,,,,,,,,,,,,,,,,,,,,,,,,,,,,,,
,,,,,,,,,,5e98b398e4a84f0eb3755e51,26,Mężczyzna,2022-05-28_09h30.48.773,task,2021.1.4,Win32,60.0240096,628b806c463b948bc644b84f,6291cefdf7e558bc8a439aba,,,,,,,,,,,,,,,,,,,,,,,,,,,,,,,,,,,,,,,,,,,,,,,,,,,,,,,,,,,,,,,,,,zv,"[""z"",""v""]",0,"[1.134999999999991,1.5860000000000127,2.219000000000051]",0,2,0,2,0,1,,,,,,,,,,,,,,,,,,,,,,,,,,,,
,,,,,,,,,,5e98b398e4a84f0eb3755e51,26,Mężczyzna,2022-05-28_09h30.48.773,task,2021.1.4,Win32,60.0240096,628b806c463b948bc644b84f,6291cefdf7e558bc8a439aba,,,,,,,,,,,,,,,,,,,,,,,1,,,,,,,,,,Practice,2,(4x4) - 15,1,,,,,,,,,,,,,,,,"[""1""]",1,[3.8070000000000164],1,0,0,0,1,1,,,,,,,,,,,,,,,,,,,,,,,,,,,,,,,,,,,,,,,,,,,
,,,,,,,,,,5e98b398e4a84f0eb3755e51,26,Mężczyzna,2022-05-28_09h30.48.773,task,2021.1.4,Win32,60.0240096,628b806c463b948bc644b84f,6291cefdf7e558bc8a439aba,,,,,,,,,,"X V Q F H G B L J M P D K C T S W R N Z
",,,,,,,,,,,,,,,,,,,,,,,,,,,,,,,,,,,,,,,,,,,,,,,,,,,0,0,0,0,1,,,,,,,,,,,,,,,,,,,,,,,,,,,,,,,,,,,,,,
,,,,,,,,,,5e98b398e4a84f0eb3755e51,26,Mężczyzna,2022-05-28_09h30.48.773,task,2021.1.4,Win32,60.0240096,628b806c463b948bc644b84f,6291cefdf7e558bc8a439aba,,,,,,,,,,,,,,,,,,,,,,,3,,,,,,,,,,Practice,4,(8/4) + 1,3,,,,,,,,,,,,,,,,"[""3""]",1,[7.821000000000026],1,0,0,0,3,1,,,,,,,,,,,,,,,,,,,,,,,,,,,,,,,,,,,,,,,,,,,
,,,,,,,,,,5e98b398e4a84f0eb3755e51,26,Mężczyzna,2022-05-28_09h30.48.773,task,2021.1.4,Win32,60.0240096,628b806c463b948bc644b84f,6291cefdf7e558bc8a439aba,,,,,,,,,,"X V Q F H G B L J M P D K C T S W R N Z
",,,,,,,,,,,,,,,,,,,,,,,,,,,,,,,,,,,,,,,,,,,,,,,,,,,1,0,1,0,1,,,,,,,,,,,,,,,,,,,,,,,,,,,,,,,,,,,,,,
,,,,,,,,,,5e98b398e4a84f0eb3755e51,26,Mężczyzna,2022-05-28_09h30.48.773,task,2021.1.4,Win32,60.0240096,628b806c463b948bc644b84f,6291cefdf7e558bc8a439aba,,,,,,,,,,,,,,,,,,,,,,,,,,,,,,,,,,,,,,,,,,,,,,,,,,,,,,,,,,,,,,,,,,xf,"[""x"",""f""]",0,"[1.375,1.7519999999999527,2.600999999999999]",1,3,0,3,0,1,,,,,,,,,,,,,,,,,,,,,,,,,,,,
,,,,,,,,,,5e98b398e4a84f0eb3755e51,26,Mężczyzna,2022-05-28_09h30.48.773,task,2021.1.4,Win32,60.0240096,628b806c463b948bc644b84f,6291cefdf7e558bc8a439aba,,,,,,,,,,,,,,,,,,,,,,,9,,,,,,,,,,Practice,10,(20/2) - 1,9,,,,,,,,,,,,,,,,"[""9""]",1,[2.632000000000062],1,0,0,0,9,1,,,,,,,,,,,,,,,,,,,,,,,,,,,,,,,,,,,,,,,,,,,
,,,,,,,,,,5e98b398e4a84f0eb3755e51,26,Mężczyzna,2022-05-28_09h30.48.773,task,2021.1.4,Win32,60.0240096,628b806c463b948bc644b84f,6291cefdf7e558bc8a439aba,,,,,,,,,,"X V Q F H G B L J M P D K C T S W R N Z
",,,,,,,,,,,,,,,,,,,,,,,,,,,,,,,,,,,,,,,,,,,,,,,,,,,0,0,0,0,1,,,,,,,,,,,,,,,,,,,,,,,,,,,,,,,,,,,,,,
,,,,,,,,,,5e98b398e4a84f0eb3755e51,26,Mężczyzna,2022-05-28_09h30.48.773,task,2021.1.4,Win32,60.0240096,628b806c463b948bc644b84f,6291cefdf7e558bc8a439aba,,,,,,,,,,,,,,,,,,,,,,,3,,,,,,,,,,Practice,4,(8/4) + 1,3,,,,,,,,,,,,,,,,"[""3""]",1,[4.037000000000035],1,0,0,0,3,1,,,,,,,,,,,,,,,,,,,,,,,,,,,,,,,,,,,,,,,,,,,
,,,,,,,,,,5e98b398e4a84f0eb3755e51,26,Mężczyzna,2022-05-28_09h30.48.773,task,2021.1.4,Win32,60.0240096,628b806c463b948bc644b84f,6291cefdf7e558bc8a439aba,,,,,,,,,,"X V Q F H G B L J M P D K C T S W R N Z
",,,,,,,,,,,,,,,,,,,,,,,,,,,,,,,,,,,,,,,,,,,,,,,,,,,1,0,1,0,1,,,,,,,,,,,,,,,,,,,,,,,,,,,,,,,,,,,,,,
,,,,,,,,,,5e98b398e4a84f0eb3755e51,26,Mężczyzna,2022-05-28_09h30.48.773,task,2021.1.4,Win32,60.0240096,628b806c463b948bc644b84f,6291cefdf7e558bc8a439aba,,,,,,,,,,,,,,,,,,,,,,,,,,,,,,,,,,,,,,,,,,,,,,,,,,,,,,,,,,,,,,,,,,gm,"[""g"",""m""]",0,"[2.552000000000021,2.9489999999999554,3.4850000000000136]",1,4,0,4,0,1,,,,,,,,,,,,,,,,,,,,,,,,,,,,
,,,,,,,,,,5e98b398e4a84f0eb3755e51,26,Mężczyzna,2022-05-28_09h30.48.773,task,2021.1.4,Win32,60.0240096,628b806c463b948bc644b84f,6291cefdf7e558bc8a439aba,,,,,,,,,,,,,,,,,,,,,,,2,,,,,,,,,,Practice,8,(5x5) - 18,7,,,,,,,,,,,,,,,,"[""2""]",0,[2.634999999999991],0,0,0,0,7,1,,,,,,,,,,,,,,,,,,,,,,,,,,,,,,,,,,,,,,,,,,,
,,,,,,,,,,5e98b398e4a84f0eb3755e51,26,Mężczyzna,2022-05-28_09h30.48.773,task,2021.1.4,Win32,60.0240096,628b806c463b948bc644b84f,6291cefdf7e558bc8a439aba,,,,,,,,,,,,,,,,,,,,,,,8,,,,,,,,,,Practice,9,(3x3) - 1,8,,,,,,,,,,,,,,,,"[""8""]",1,[5.550999999999931],1,0,1,1,8,1,,,,,,,,,,,,,,,,,,,,,,,,,,,,,,,,,,,,,,,,,,,
,,,,,,,,,,5e98b398e4a84f0eb3755e51,26,Mężczyzna,2022-05-28_09h30.48.773,task,2021.1.4,Win32,60.0240096,628b806c463b948bc644b84f,6291cefdf7e558bc8a439aba,,,,,,,,,,"X V Q F H G B L J M P D K C T S W R N Z
",,,,,,,,,,,,,,,,,,,,,,,,,,,,,,,,,,,,,,,,,,,,,,,,,,,0,0,0,0,1,,,,,,,,,,,,,,,,,,,,,,,,,,,,,,,,,,,,,,
,,,,,,,,,,5e98b398e4a84f0eb3755e51,26,Mężczyzna,2022-05-28_09h30.48.773,task,2021.1.4,Win32,60.0240096,628b806c463b948bc644b84f,6291cefdf7e558bc8a439aba,,,,,,,,,,,,,,,,,,,,,,,8,,,,,,,,,,Practice,9,(3x3) - 1,8,,,,,,,,,,,,,,,,"[""8""]",1,[3.990000000000009],1,0,0,0,8,1,,,,,,,,,,,,,,,,,,,,,,,,,,,,,,,,,,,,,,,,,,,
,,,,,,,,,,5e98b398e4a84f0eb3755e51,26,Mężczyzna,2022-05-28_09h30.48.773,task,2021.1.4,Win32,60.0240096,628b806c463b948bc644b84f,6291cefdf7e558bc8a439aba,,,,,,,,,,"X V Q F H G B L J M P D K C T S W R N Z
",,,,,,,,,,,,,,,,,,,,,,,,,,,,,,,,,,,,,,,,,,,,,,,,,,,1,0,1,0,1,,,,,,,,,,,,,,,,,,,,,,,,,,,,,,,,,,,,,,
,,,,,,,,,,5e98b398e4a84f0eb3755e51,26,Mężczyzna,2022-05-28_09h30.48.773,task,2021.1.4,Win32,60.0240096,628b806c463b948bc644b84f,6291cefdf7e558bc8a439aba,,,,,,,,,,,,,,,,,,,,,,,,,,,,,,,,,,,,,,,,,,,,,,,,,,,,,,,,,,,,,,,,,,bj,"[""b"",""j""]",0,"[1.4200000000000728,1.7730000000000246,2.1510000000000673]",1,5,0,5,0,1,,,,,,,,,,,,,,,,,,,,,,,,,,,,
,,,,,,,,,,5e98b398e4a84f0eb3755e51,26,Mężczyzna,2022-05-28_09h30.48.773,task,2021.1.4,Win32,60.0240096,628b806c463b948bc644b84f,6291cefdf7e558bc8a439aba,,,,,,,,,,,,,,,,,,,,,,,7,,,,,,,,,,Task,31,(4/2) + 5,7,,,,,,,,,,,,,,,,,,,1,,,,,,,,,,,,,,,,,,,,,space,23.332,"[""7""]",1,[3.408999999999992],0,0,0,30,1,,,,,,,,,,,,,,,,,,
,,,,,,,,,,5e98b398e4a84f0eb3755e51,26,Mężczyzna,2022-05-28_09h30.48.773,task,2021.1.4,Win32,60.0240096,628b806c463b948bc644b84f,6291cefdf7e558bc8a439aba,,,,,,,,,,"X V Q F H G B L J M P D K C T S W R N Z
",,,,,,,,,,,,,,,,,,,,,,,,,,,,,,,,,,,,,,,,,,,,,,,,,,,,,,,,,,,,,,,,,,,,,,,,,,,,0,0,0,0,1,,,,,,,,,,,,,
,,,,,,,,,,5e98b398e4a84f0eb3755e51,26,Mężczyzna,2022-05-28_09h30.48.773,task,2021.1.4,Win32,60.0240096,628b806c463b948bc644b84f,6291cefdf7e558bc8a439aba,,,,,,,,,,,,,,,,,,,,,,,8,,,,,,,,,,Task,39,(5x3) - 7,8,,,,,,,,,,,,,,,,,,,1,,,,,,,,,,,,,,,,,,,,,,,"[""8""]",1,[6.510999999999967],0,0,0,38,1,,,,,,,,,,,,,,,,,,
,,,,,,,,,,5e98b398e4a84f0eb3755e51,26,Mężczyzna,2022-05-28_09h30.48.773,task,2021.1.4,Win32,60.0240096,628b806c463b948bc644b84f,6291cefdf7e558bc8a439aba,,,,,,,,,,"X V Q F H G B L J M P D K C T S W R N Z
",,,,,,,,,,,,,,,,,,,,,,,,,,,,,,,,,,,,,,,,,,,,,,,,,,,,,,,,,,,,,,,,,,,,,,,,,,,,1,0,1,0,1,,,,,,,,,,,,,
,,,,,,,,,,5e98b398e4a84f0eb3755e51,26,Mężczyzna,2022-05-28_09h30.48.773,task,2021.1.4,Win32,60.0240096,628b806c463b948bc644b84f,6291cefdf7e558bc8a439aba,,,,,,,,,,,,,,,,,,,,,,,,,,,,,,,,,,,,,,,,,,,,,,,,,,,,,,,,,,,,,,,,,,,,,,,,,,,,,,,,,,,,,,,,,,,zf,"[""z"",""f""]",0,"[2.4839999999999236,2.783999999999992,3.216000000000008]",1,ZF,0,0,0,0,1,,
,,,,,,,,,,5e98b398e4a84f0eb3755e51,26,Mężczyzna,2022-05-28_09h30.48.773,task,2021.1.4,Win32,60.0240096,628b806c463b948bc644b84f,6291cefdf7e558bc8a439aba,,,,,,,,,,,,,,,,,,,,,,,0,,,,,,,,,,Task,17,(2x3) - 6,0,,,,,,,,,,,,,,,,,,,1,,,,,,,,,,,,,,,,,,,,,,,"[""0""]",1,[3.0230000000000246],0,0,0,16,1,,,,,,,,,,,,,,,,,,
,,,,,,,,,,5e98b398e4a84f0eb3755e51,26,Mężczyzna,2022-05-28_09h30.48.773,task,2021.1.4,Win32,60.0240096,628b806c463b948bc644b84f,6291cefdf7e558bc8a439aba,,,,,,,,,,"X V Q F H G B L J M P D K C T S W R N Z
",,,,,,,,,,,,,,,,,,,,,,,,,,,,,,,,,,,,,,,,,,,,,,,,,,,,,,,,,,,,,,,,,,,,,,,,,,,,0,0,0,0,1,,,,,,,,,,,,,
,,,,,,,,,,5e98b398e4a84f0eb3755e51,26,Mężczyzna,2022-05-28_09h30.48.773,task,2021.1.4,Win32,60.0240096,628b806c463b948bc644b84f,6291cefdf7e558bc8a439aba,,,,,,,,,,,,,,,,,,,,,,,4,,,,,,,,,,Task,28,(2x5) - 6,4,,,,,,,,,,,,,,,,,,,1,,,,,,,,,,,,,,,,,,,,,,,"[""4""]",1,[3.836999999999989],0,0,0,27,1,,,,,,,,,,,,,,,,,,
,,,,,,,,,,5e98b398e4a84f0eb3755e51,26,Mężczyzna,2022-05-28_09h30.48.773,task,2021.1.4,Win32,60.0240096,628b806c463b948bc644b84f,6291cefdf7e558bc8a439aba,,,,,,,,,,"X V Q F H G B L J M P D K C T S W R N Z
",,,,,,,,,,,,,,,,,,,,,,,,,,,,,,,,,,,,,,,,,,,,,,,,,,,,,,,,,,,,,,,,,,,,,,,,,,,,1,0,1,0,1,,,,,,,,,,,,,
,,,,,,,,,,5e98b398e4a84f0eb3755e51,26,Mężczyzna,2022-05-28_09h30.48.773,task,2021.1.4,Win32,60.0240096,628b806c463b948bc644b84f,6291cefdf7e558bc8a439aba,,,,,,,,,,,,,,,,,,,,,,,3,,,,,,,,,,Task,27,(3/3) + 2,3,,,,,,,,,,,,,,,,,,,1,,,,,,,,,,,,,,,,,,,,,,,"[""3""]",1,[6.208000000000084],0,0,0,26,1,,,,,,,,,,,,,,,,,,
,,,,,,,,,,5e98b398e4a84f0eb3755e51,26,Mężczyzna,2022-05-28_09h30.48.773,task,2021.1.4,Win32,60.0240096,628b806c463b948bc644b84f,6291cefdf7e558bc8a439aba,,,,,,,,,,"X V Q F H G B L J M P D K C T S W R N Z
",,,,,,,,,,,,,,,,,,,,,,,,,,,,,,,,,,,,,,,,,,,,,,,,,,,,,,,,,,,,,,,,,,,,,,,,,,,,2,0,2,0,1,,,,,,,,,,,,,
,,,,,,,,,,5e98b398e4a84f0eb3755e51,26,Mężczyzna,2022-05-28_09h30.48.773,task,2021.1.4,Win32,60.0240096,628b806c463b948bc644b84f,6291cefdf7e558bc8a439aba,,,,,,,,,,,,,,,,,,,,,,,,,,,,,,,,,,,,,,,,,,,,,,,,,,,,,,,,,,,,,,,,,,,,,,,,,,,,,,,,,,,,,,,,,,,gft,"[""g"",""f"",""t""]",0,"[1.4010000000000673,1.6580000000000155,2.338000000000079,2.7840000000001055]",1,GFT,1,0,1,0,1,,
,,,,,,,,,,5e98b398e4a84f0eb3755e51,26,Mężczyzna,2022-05-28_09h30.48.773,task,2021.1.4,Win32,60.0240096,628b806c463b948bc644b84f,6291cefdf7e558bc8a439aba,,,,,,,,,,,,,,,,,,,,,,,0,,,,,,,,,,Task,8,(1x5) - 5,0,,,,,,,,,,,,,,,,,,,1,,,,,,,,,,,,,,,,,,,,,,,"[""0""]",1,[3.93100000000004],0,0,0,7,1,,,,,,,,,,,,,,,,,,
,,,,,,,,,,5e98b398e4a84f0eb3755e51,26,Mężczyzna,2022-05-28_09h30.48.773,task,2021.1.4,Win32,60.0240096,628b806c463b948bc644b84f,6291cefdf7e558bc8a439aba,,,,,,,,,,"X V Q F H G B L J M P D K C T S W R N Z
",,,,,,,,,,,,,,,,,,,,,,,,,,,,,,,,,,,,,,,,,,,,,,,,,,,,,,,,,,,,,,,,,,,,,,,,,,,,0,0,0,0,1,,,,,,,,,,,,,
,,,,,,,,,,5e98b398e4a84f0eb3755e51,26,Mężczyzna,2022-05-28_09h30.48.773,task,2021.1.4,Win32,60.0240096,628b806c463b948bc644b84f,6291cefdf7e558bc8a439aba,,,,,,,,,,,,,,,,,,,,,,,6,,,,,,,,,,Task,5,(2x3) + 0,6,,,,,,,,,,,,,,,,,,,1,,,,,,,,,,,,,,,,,,,,,,,"[""6""]",1,[4.84800000000007],0,0,0,4,1,,,,,,,,,,,,,,,,,,
,,,,,,,,,,5e98b398e4a84f0eb3755e51,26,Mężczyzna,2022-05-28_09h30.48.773,task,2021.1.4,Win32,60.0240096,628b806c463b948bc644b84f,6291cefdf7e558bc8a439aba,,,,,,,,,,"X V Q F H G B L J M P D K C T S W R N Z
",,,,,,,,,,,,,,,,,,,,,,,,,,,,,,,,,,,,,,,,,,,,,,,,,,,,,,,,,,,,,,,,,,,,,,,,,,,,1,0,1,0,1,,,,,,,,,,,,,
,,,,,,,,,,5e98b398e4a84f0eb3755e51,26,Mężczyzna,2022-05-28_09h30.48.773,task,2021.1.4,Win32,60.0240096,628b806c463b948bc644b84f,6291cefdf7e558bc8a439aba,,,,,,,,,,,,,,,,,,,,,,,1,,,,,,,,,,Task,1,(12/6) - 1,1,,,,,,,,,,,,,,,,,,,1,,,,,,,,,,,,,,,,,,,,,,,"[""1""]",1,[9.817000000000007],0,0,0,0,1,,,,,,,,,,,,,,,,,,
,,,,,,,,,,5e98b398e4a84f0eb3755e51,26,Mężczyzna,2022-05-28_09h30.48.773,task,2021.1.4,Win32,60.0240096,628b806c463b948bc644b84f,6291cefdf7e558bc8a439aba,,,,,,,,,,"X V Q F H G B L J M P D K C T S W R N Z
",,,,,,,,,,,,,,,,,,,,,,,,,,,,,,,,,,,,,,,,,,,,,,,,,,,,,,,,,,,,,,,,,,,,,,,,,,,,2,0,2,0,1,,,,,,,,,,,,,
,,,,,,,,,,5e98b398e4a84f0eb3755e51,26,Mężczyzna,2022-05-28_09h30.48.773,task,2021.1.4,Win32,60.0240096,628b806c463b948bc644b84f,6291cefdf7e558bc8a439aba,,,,,,,,,,,,,,,,,,,,,,,0,,,,,,,,,,Task,17,(2x3) - 6,0,,,,,,,,,,,,,,,,,,,1,,,,,,,,,,,,,,,,,,,,,,,"[""0""]",1,[3.0989999999999327],0,0,0,16,1,,,,,,,,,,,,,,,,,,
,,,,,,,,,,5e98b398e4a84f0eb3755e51,26,Mężczyzna,2022-05-28_09h30.48.773,task,2021.1.4,Win32,60.0240096,628b806c463b948bc644b84f,6291cefdf7e558bc8a439aba,,,,,,,,,,"X V Q F H G B L J M P D K C T S W R N Z
",,,,,,,,,,,,,,,,,,,,,,,,,,,,,,,,,,,,,,,,,,,,,,,,,,,,,,,,,,,,,,,,,,,,,,,,,,,,3,0,3,0,1,,,,,,,,,,,,,
,,,,,,,,,,5e98b398e4a84f0eb3755e51,26,Mężczyzna,2022-05-28_09h30.48.773,task,2021.1.4,Win32,60.0240096,628b806c463b948bc644b84f,6291cefdf7e558bc8a439aba,,,,,,,,,,,,,,,,,,,,,,,,,,,,,,,,,,,,,,,,,,,,,,,,,,,,,,,,,,,,,,,,,,,,,,,,,,,,,,,,,,,,,,,,,,,wqjj,"[""w"",""q"",""j"",""j""]",0,"[1.0339999999999918,1.2760000000000673,1.7010000000000218,2.3170000000000073,2.980000000000018]",1,WQJJ,2,0,2,0,1,,
,,,,,,,,,,5e98b398e4a84f0eb3755e51,26,Mężczyzna,2022-05-28_09h30.48.773,task,2021.1.4,Win32,60.0240096,628b806c463b948bc644b84f,6291cefdf7e558bc8a439aba,,,,,,,,,,,,,,,,,,,,,,,3,,,,,,,,,,Task,20,(18/9) + 1,3,,,,,,,,,,,,,,,,,,,1,,,,,,,,,,,,,,,,,,,,,,,"[""3""]",1,[7.480000000000018],0,0,0,19,1,,,,,,,,,,,,,,,,,,
,,,,,,,,,,5e98b398e4a84f0eb3755e51,26,Mężczyzna,2022-05-28_09h30.48.773,task,2021.1.4,Win32,60.0240096,628b806c463b948bc644b84f,6291cefdf7e558bc8a439aba,,,,,,,,,,"X V Q F H G B L J M P D K C T S W R N Z
",,,,,,,,,,,,,,,,,,,,,,,,,,,,,,,,,,,,,,,,,,,,,,,,,,,,,,,,,,,,,,,,,,,,,,,,,,,,0,0,0,0,1,,,,,,,,,,,,,
,,,,,,,,,,5e98b398e4a84f0eb3755e51,26,Mężczyzna,2022-05-28_09h30.48.773,task,2021.1.4,Win32,60.0240096,628b806c463b948bc644b84f,6291cefdf7e558bc8a439aba,,,,,,,,,,,,,,,,,,,,,,,3,,,,,,,,,,Task,6,(12/2) + 1,7,,,,,,,,,,,,,,,,,,,0,,,,,,,,,,,,,,,,,,,,,,,"[""3""]",0,[3.76400000000001],0,0,0,5,1,,,,,,,,,,,,,,,,,,
,,,,,,,,,,5e98b398e4a84f0eb3755e51,26,Mężczyzna,2022-05-28_09h30.48.773,task,2021.1.4,Win32,60.0240096,628b806c463b948bc644b84f,6291cefdf7e558bc8a439aba,,,,,,,,,,,,,,,,,,,,,,,0,,,,,,,,,,Task,33,(1/1) - 1,0,,,,,,,,,,,,,,,,,,,1,,,,,,,,,,,,,,,,,,,,,,,"[""0""]",1,[4.098999999999933],0,1,1,32,1,,,,,,,,,,,,,,,,,,
,,,,,,,,,,5e98b398e4a84f0eb3755e51,26,Mężczyzna,2022-05-28_09h30.48.773,task,2021.1.4,Win32,60.0240096,628b806c463b948bc644b84f,6291cefdf7e558bc8a439aba,,,,,,,,,,"X V Q F H G B L J M P D K C T S W R N Z
",,,,,,,,,,,,,,,,,,,,,,,,,,,,,,,,,,,,,,,,,,,,,,,,,,,,,,,,,,,,,,,,,,,,,,,,,,,,1,0,1,0,1,,,,,,,,,,,,,
,,,,,,,,,,5e98b398e4a84f0eb3755e51,26,Mężczyzna,2022-05-28_09h30.48.773,task,2021.1.4,Win32,60.0240096,628b806c463b948bc644b84f,6291cefdf7e558bc8a439aba,,,,,,,,,,,,,,,,,,,,,,,3,,,,,,,,,,Task,35,(1x2) + 1,3,,,,,,,,,,,,,,,,,,,1,,,,,,,,,,,,,,,,,,,,,,,"[""3""]",1,[4.1030000000000655],0,0,0,34,1,,,,,,,,,,,,,,,,,,
,,,,,,,,,,5e98b398e4a84f0eb3755e51,26,Mężczyzna,2022-05-28_09h30.48.773,task,2021.1.4,Win32,60.0240096,628b806c463b948bc644b84f,6291cefdf7e558bc8a439aba,,,,,,,,,,"X V Q F H G B L J M P D K C T S W R N Z
",,,,,,,,,,,,,,,,,,,,,,,,,,,,,,,,,,,,,,,,,,,,,,,,,,,,,,,,,,,,,,,,,,,,,,,,,,,,2,0,2,0,1,,,,,,,,,,,,,
,,,,,,,,,,5e98b398e4a84f0eb3755e51,26,Mężczyzna,2022-05-28_09h30.48.773,task,2021.1.4,Win32,60.0240096,628b806c463b948bc644b84f,6291cefdf7e558bc8a439aba,,,,,,,,,,,,,,,,,,,,,,,5,,,,,,,,,,Task,36,(8/4) + 3,5,,,,,,,,,,,,,,,,,,,1,,,,,,,,,,,,,,,,,,,,,,,"[""5""]",1,[11.82400000000007],0,0,0,35,1,,,,,,,,,,,,,,,,,,
,,,,,,,,,,5e98b398e4a84f0eb3755e51,26,Mężczyzna,2022-05-28_09h30.48.773,task,2021.1.4,Win32,60.0240096,628b806c463b948bc644b84f,6291cefdf7e558bc8a439aba,,,,,,,,,,"X V Q F H G B L J M P D K C T S W R N Z
",,,,,,,,,,,,,,,,,,,,,,,,,,,,,,,,,,,,,,,,,,,,,,,,,,,,,,,,,,,,,,,,,,,,,,,,,,,,3,0,3,0,1,,,,,,,,,,,,,
,,,,,,,,,,5e98b398e4a84f0eb3755e51,26,Mężczyzna,2022-05-28_09h30.48.773,task,2021.1.4,Win32,60.0240096,628b806c463b948bc644b84f,6291cefdf7e558bc8a439aba,,,,,,,,,,,,,,,,,,,,,,,1,,,,,,,,,,Task,7,(3x7) - 12,9,,,,,,,,,,,,,,,,,,,0,,,,,,,,,,,,,,,,,,,,,,,"[""1""]",0,[10.704000000000065],0,0,0,6,1,,,,,,,,,,,,,,,,,,
,,,,,,,,,,5e98b398e4a84f0eb3755e51,26,Mężczyzna,2022-05-28_09h30.48.773,task,2021.1.4,Win32,60.0240096,628b806c463b948bc644b84f,6291cefdf7e558bc8a439aba,,,,,,,,,,,,,,,,,,,,,,,2,,,,,,,,,,Task,26,(2x9) - 16,2,,,,,,,,,,,,,,,,,,,1,,,,,,,,,,,,,,,,,,,,,,,"[""2""]",1,[7.938000000000102],0,1,1,25,1,,,,,,,,,,,,,,,,,,
,,,,,,,,,,5e98b398e4a84f0eb3755e51,26,Mężczyzna,2022-05-28_09h30.48.773,task,2021.1.4,Win32,60.0240096,628b806c463b948bc644b84f,6291cefdf7e558bc8a439aba,,,,,,,,,,"X V Q F H G B L J M P D K C T S W R N Z
",,,,,,,,,,,,,,,,,,,,,,,,,,,,,,,,,,,,,,,,,,,,,,,,,,,,,,,,,,,,,,,,,,,,,,,,,,,,4,0,4,0,1,,,,,,,,,,,,,
,,,,,,,,,,5e98b398e4a84f0eb3755e51,26,Mężczyzna,2022-05-28_09h30.48.773,task,2021.1.4,Win32,60.0240096,628b806c463b948bc644b84f,6291cefdf7e558bc8a439aba,,,,,,,,,,,,,,,,,,,,,,,,,,,,,,,,,,,,,,,,,,,,,,,,,,,,,,,,,,,,,,,,,,,,,,,,,,,,,,,,,,,,,,,,,,,jzwl,"[""j"",""z"",""w"",""l""]",0,"[3.1649999999999636,4.001999999999953,4.769999999999982,5.242999999999938,6.351999999999975]",0,"JZ
VWL",3,0,3,0,1,,
,,,,,,,,,,5e98b398e4a84f0eb3755e51,26,Mężczyzna,2022-05-28_09h30.48.773,task,2021.1.4,Win32,60.0240096,628b806c463b948bc644b84f,6291cefdf7e558bc8a439aba,,,,,,,,,,,,,,,,,,,,,,,0,,,,,,,,,,Task,25,(10/5) - 2,0,,,,,,,,,,,,,,,,,,,1,,,,,,,,,,,,,,,,,,,,,,,"[""0""]",1,[10.975000000000023],0,0,0,24,1,,,,,,,,,,,,,,,,,,
,,,,,,,,,,5e98b398e4a84f0eb3755e51,26,Mężczyzna,2022-05-28_09h30.48.773,task,2021.1.4,Win32,60.0240096,628b806c463b948bc644b84f,6291cefdf7e558bc8a439aba,,,,,,,,,,"X V Q F H G B L J M P D K C T S W R N Z
",,,,,,,,,,,,,,,,,,,,,,,,,,,,,,,,,,,,,,,,,,,,,,,,,,,,,,,,,,,,,,,,,,,,,,,,,,,,0,0,0,0,1,,,,,,,,,,,,,
,,,,,,,,,,5e98b398e4a84f0eb3755e51,26,Mężczyzna,2022-05-28_09h30.48.773,task,2021.1.4,Win32,60.0240096,628b806c463b948bc644b84f,6291cefdf7e558bc8a439aba,,,,,,,,,,,,,,,,,,,,,,,4,,,,,,,,,,Task,28,(2x5) - 6,4,,,,,,,,,,,,,,,,,,,1,,,,,,,,,,,,,,,,,,,,,,,"[""4""]",1,[2.9109999999999445],0,0,0,27,1,,,,,,,,,,,,,,,,,,
,,,,,,,,,,5e98b398e4a84f0eb3755e51,26,Mężczyzna,2022-05-28_09h30.48.773,task,2021.1.4,Win32,60.0240096,628b806c463b948bc644b84f,6291cefdf7e558bc8a439aba,,,,,,,,,,"X V Q F H G B L J M P D K C T S W R N Z
",,,,,,,,,,,,,,,,,,,,,,,,,,,,,,,,,,,,,,,,,,,,,,,,,,,,,,,,,,,,,,,,,,,,,,,,,,,,1,0,1,0,1,,,,,,,,,,,,,
,,,,,,,,,,5e98b398e4a84f0eb3755e51,26,Mężczyzna,2022-05-28_09h30.48.773,task,2021.1.4,Win32,60.0240096,628b806c463b948bc644b84f,6291cefdf7e558bc8a439aba,,,,,,,,,,,,,,,,,,,,,,,7,,,,,,,,,,Task,14,(2x2) + 3,7,,,,,,,,,,,,,,,,,,,1,,,,,,,,,,,,,,,,,,,,,,,"[""7""]",1,[3.481999999999971],0,0,0,13,1,,,,,,,,,,,,,,,,,,
,,,,,,,,,,5e98b398e4a84f0eb3755e51,26,Mężczyzna,2022-05-28_09h30.48.773,task,2021.1.4,Win32,60.0240096,628b806c463b948bc644b84f,6291cefdf7e558bc8a439aba,,,,,,,,,,"X V Q F H G B L J M P D K C T S W R N Z
",,,,,,,,,,,,,,,,,,,,,,,,,,,,,,,,,,,,,,,,,,,,,,,,,,,,,,,,,,,,,,,,,,,,,,,,,,,,2,0,2,0,1,,,,,,,,,,,,,
,,,,,,,,,,5e98b398e4a84f0eb3755e51,26,Mężczyzna,2022-05-28_09h30.48.773,task,2021.1.4,Win32,60.0240096,628b806c463b948bc644b84f,6291cefdf7e558bc8a439aba,,,,,,,,,,,,,,,,,,,,,,,8,,,,,,,,,,Task,32,(8/2) + 4,8,,,,,,,,,,,,,,,,,,,1,,,,,,,,,,,,,,,,,,,,,,,"[""8""]",1,[3.6159999999999854],0,0,0,31,1,,,,,,,,,,,,,,,,,,
,,,,,,,,,,5e98b398e4a84f0eb3755e51,26,Mężczyzna,2022-05-28_09h30.48.773,task,2021.1.4,Win32,60.0240096,628b806c463b948bc644b84f,6291cefdf7e558bc8a439aba,,,,,,,,,,"X V Q F H G B L J M P D K C T S W R N Z
",,,,,,,,,,,,,,,,,,,,,,,,,,,,,,,,,,,,,,,,,,,,,,,,,,,,,,,,,,,,,,,,,,,,,,,,,,,,3,0,3,0,1,,,,,,,,,,,,,
,,,,,,,,,,5e98b398e4a84f0eb3755e51,26,Mężczyzna,2022-05-28_09h30.48.773,task,2021.1.4,Win32,60.0240096,628b806c463b948bc644b84f,6291cefdf7e558bc8a439aba,,,,,,,,,,,,,,,,,,,,,,,2,,,,,,,,,,Task,26,(2x9) - 16,2,,,,,,,,,,,,,,,,,,,1,,,,,,,,,,,,,,,,,,,,,,,"[""2""]",1,[3.064999999999941],0,0,0,25,1,,,,,,,,,,,,,,,,,,
,,,,,,,,,,5e98b398e4a84f0eb3755e51,26,Mężczyzna,2022-05-28_09h30.48.773,task,2021.1.4,Win32,60.0240096,628b806c463b948bc644b84f,6291cefdf7e558bc8a439aba,,,,,,,,,,"X V Q F H G B L J M P D K C T S W R N Z
",,,,,,,,,,,,,,,,,,,,,,,,,,,,,,,,,,,,,,,,,,,,,,,,,,,,,,,,,,,,,,,,,,,,,,,,,,,,4,0,4,0,1,,,,,,,,,,,,,
,,,,,,,,,,5e98b398e4a84f0eb3755e51,26,Mężczyzna,2022-05-28_09h30.48.773,task,2021.1.4,Win32,60.0240096,628b806c463b948bc644b84f,6291cefdf7e558bc8a439aba,,,,,,,,,,,,,,,,,,,,,,,,,,,,,,,,,,,,,,,,,,,,,,,,,,,,,,,,,,,,,,,,,,,,,,,,,,,,,,,,,,,,,,,,,,,nqjhq,"[""n"",""q"",""j"",""h"",""q""]",0,"[1.5069999999999482,1.9239999999999782,2.326000000000022,2.7369999999999663,3.0670000000000073,3.91599999999994]",1,NQJHQ,4,0,4,0,1,,
,,,,,,,,,,5e98b398e4a84f0eb3755e51,26,Mężczyzna,2022-05-28_09h30.48.773,task,2021.1.4,Win32,60.0240096,628b806c463b948bc644b84f,6291cefdf7e558bc8a439aba,,,,,,,,,,,,,,,,,,,,,,,9,,,,,,,,,,Task,40,(7x2) - 5,9,,,,,,,,,,,,,,,,,,,1,,,,,,,,,,,,,,,,,,,,,,,"[""9""]",1,[4.2169999999999845],0,0,0,39,1,,,,,,,,,,,,,,,,,,
,,,,,,,,,,5e98b398e4a84f0eb3755e51,26,Mężczyzna,2022-05-28_09h30.48.773,task,2021.1.4,Win32,60.0240096,628b806c463b948bc644b84f,6291cefdf7e558bc8a439aba,,,,,,,,,,"X V Q F H G B L J M P D K C T S W R N Z
",,,,,,,,,,,,,,,,,,,,,,,,,,,,,,,,,,,,,,,,,,,,,,,,,,,,,,,,,,,,,,,,,,,,,,,,,,,,0,0,0,0,1,,,,,,,,,,,,,
,,,,,,,,,,5e98b398e4a84f0eb3755e51,26,Mężczyzna,2022-05-28_09h30.48.773,task,2021.1.4,Win32,60.0240096,628b806c463b948bc644b84f,6291cefdf7e558bc8a439aba,,,,,,,,,,,,,,,,,,,,,,,0,,,,,,,,,,Task,8,(1x5) - 5,0,,,,,,,,,,,,,,,,,,,1,,,,,,,,,,,,,,,,,,,,,,,"[""0""]",1,[2.3829999999999245],0,0,0,7,1,,,,,,,,,,,,,,,,,,
,,,,,,,,,,5e98b398e4a84f0eb3755e51,26,Mężczyzna,2022-05-28_09h30.48.773,task,2021.1.4,Win32,60.0240096,628b806c463b948bc644b84f,6291cefdf7e558bc8a439aba,,,,,,,,,,"X V Q F H G B L J M P D K C T S W R N Z
",,,,,,,,,,,,,,,,,,,,,,,,,,,,,,,,,,,,,,,,,,,,,,,,,,,,,,,,,,,,,,,,,,,,,,,,,,,,1,0,1,0,1,,,,,,,,,,,,,
,,,,,,,,,,5e98b398e4a84f0eb3755e51,26,Mężczyzna,2022-05-28_09h30.48.773,task,2021.1.4,Win32,60.0240096,628b806c463b948bc644b84f,6291cefdf7e558bc8a439aba,,,,,,,,,,,,,,,,,,,,,,,5,,,,,,,,,,Task,1,(12/6) - 1,1,,,,,,,,,,,,,,,,,,,0,,,,,,,,,,,,,,,,,,,,,,,"[""5""]",0,[4.421000000000049],0,0,0,0,1,,,,,,,,,,,,,,,,,,
,,,,,,,,,,5e98b398e4a84f0eb3755e51,26,Mężczyzna,2022-05-28_09h30.48.773,task,2021.1.4,Win32,60.0240096,628b806c463b948bc644b84f,6291cefdf7e558bc8a439aba,,,,,,,,,,,,,,,,,,,,,,,0,,,,,,,,,,Task,8,(1x5) - 5,0,,,,,,,,,,,,,,,,,,,1,,,,,,,,,,,,,,,,,,,,,,,"[""0""]",1,[2.826000000000022],0,1,1,7,1,,,,,,,,,,,,,,,,,,
,,,,,,,,,,5e98b398e4a84f0eb3755e51,26,Mężczyzna,2022-05-28_09h30.48.773,task,2021.1.4,Win32,60.0240096,628b806c463b948bc644b84f,6291cefdf7e558bc8a439aba,,,,,,,,,,"X V Q F H G B L J M P D K C T S W R N Z
",,,,,,,,,,,,,,,,,,,,,,,,,,,,,,,,,,,,,,,,,,,,,,,,,,,,,,,,,,,,,,,,,,,,,,,,,,,,2,0,2,0,1,,,,,,,,,,,,,
,,,,,,,,,,5e98b398e4a84f0eb3755e51,26,Mężczyzna,2022-05-28_09h30.48.773,task,2021.1.4,Win32,60.0240096,628b806c463b948bc644b84f,6291cefdf7e558bc8a439aba,,,,,,,,,,,,,,,,,,,,,,,3,,,,,,,,,,Task,27,(3/3) + 2,3,,,,,,,,,,,,,,,,,,,1,,,,,,,,,,,,,,,,,,,,,,,"[""3""]",1,[2.269999999999982],0,0,0,26,1,,,,,,,,,,,,,,,,,,
,,,,,,,,,,5e98b398e4a84f0eb3755e51,26,Mężczyzna,2022-05-28_09h30.48.773,task,2021.1.4,Win32,60.0240096,628b806c463b948bc644b84f,6291cefdf7e558bc8a439aba,,,,,,,,,,"X V Q F H G B L J M P D K C T S W R N Z
",,,,,,,,,,,,,,,,,,,,,,,,,,,,,,,,,,,,,,,,,,,,,,,,,,,,,,,,,,,,,,,,,,,,,,,,,,,,3,0,3,0,1,,,,,,,,,,,,,
,,,,,,,,,,5e98b398e4a84f0eb3755e51,26,Mężczyzna,2022-05-28_09h30.48.773,task,2021.1.4,Win32,60.0240096,628b806c463b948bc644b84f,6291cefdf7e558bc8a439aba,,,,,,,,,,,,,,,,,,,,,,,8,,,,,,,,,,Task,23,(2x3) + 2,8,,,,,,,,,,,,,,,,,,,1,,,,,,,,,,,,,,,,,,,,,,,"[""8""]",1,[3.75200000000018],0,0,0,22,1,,,,,,,,,,,,,,,,,,
,,,,,,,,,,5e98b398e4a84f0eb3755e51,26,Mężczyzna,2022-05-28_09h30.48.773,task,2021.1.4,Win32,60.0240096,628b806c463b948bc644b84f,6291cefdf7e558bc8a439aba,,,,,,,,,,"X V Q F H G B L J M P D K C T S W R N Z
",,,,,,,,,,,,,,,,,,,,,,,,,,,,,,,,,,,,,,,,,,,,,,,,,,,,,,,,,,,,,,,,,,,,,,,,,,,,4,0,4,0,1,,,,,,,,,,,,,
,,,,,,,,,,5e98b398e4a84f0eb3755e51,26,Mężczyzna,2022-05-28_09h30.48.773,task,2021.1.4,Win32,60.0240096,628b806c463b948bc644b84f,6291cefdf7e558bc8a439aba,,,,,,,,,,,,,,,,,,,,,,,4,,,,,,,,,,Task,11,(18/3) - 2,4,,,,,,,,,,,,,,,,,,,1,,,,,,,,,,,,,,,,,,,,,,,"[""4""]",1,[11.950000000000045],0,0,0,10,1,,,,,,,,,,,,,,,,,,
,,,,,,,,,,5e98b398e4a84f0eb3755e51,26,Mężczyzna,2022-05-28_09h30.48.773,task,2021.1.4,Win32,60.0240096,628b806c463b948bc644b84f,6291cefdf7e558bc8a439aba,,,,,,,,,,"X V Q F H G B L J M P D K C T S W R N Z
",,,,,,,,,,,,,,,,,,,,,,,,,,,,,,,,,,,,,,,,,,,,,,,,,,,,,,,,,,,,,,,,,,,,,,,,,,,,5,0,5,0,1,,,,,,,,,,,,,
,,,,,,,,,,5e98b398e4a84f0eb3755e51,26,Mężczyzna,2022-05-28_09h30.48.773,task,2021.1.4,Win32,60.0240096,628b806c463b948bc644b84f,6291cefdf7e558bc8a439aba,,,,,,,,,,,,,,,,,,,,,,,,,,,,,,,,,,,,,,,,,,,,,,,,,,,,,,,,,,,,,,,,,,,,,,,,,,,,,,,,,,,,,,,,,,,qbqnsc,"[""q"",""b"",""q"",""n"",""s"",""c""]",0,"[0.9169999999999163,1.2849999999998545,2.4849999999999,2.8609999999998763,3.168999999999869,3.474999999999909,4.123000000000047]",1,QBQNSC,5,0,5,0,1,,
,,,,,,,,,,5e98b398e4a84f0eb3755e51,26,Mężczyzna,2022-05-28_09h30.48.773,task,2021.1.4,Win32,60.0240096,628b806c463b948bc644b84f,6291cefdf7e558bc8a439aba,,,,,,,,,,,,,,,,,,,,,,,9,,,,,,,,,,Task,16,(3x8) - 15,9,,,,,,,,,,,,,,,,,,,1,,,,,,,,,,,,,,,,,,,,,,,"[""9""]",1,[8.522000000000162],0,0,0,15,1,,,,,,,,,,,,,,,,,,
,,,,,,,,,,5e98b398e4a84f0eb3755e51,26,Mężczyzna,2022-05-28_09h30.48.773,task,2021.1.4,Win32,60.0240096,628b806c463b948bc644b84f,6291cefdf7e558bc8a439aba,,,,,,,,,,"X V Q F H G B L J M P D K C T S W R N Z
",,,,,,,,,,,,,,,,,,,,,,,,,,,,,,,,,,,,,,,,,,,,,,,,,,,,,,,,,,,,,,,,,,,,,,,,,,,,0,0,0,0,1,,,,,,,,,,,,,
,,,,,,,,,,5e98b398e4a84f0eb3755e51,26,Mężczyzna,2022-05-28_09h30.48.773,task,2021.1.4,Win32,60.0240096,628b806c463b948bc644b84f,6291cefdf7e558bc8a439aba,,,,,,,,,,,,,,,,,,,,,,,4,,,,,,,,,,Task,4,(1x5) - 1,4,,,,,,,,,,,,,,,,,,,1,,,,,,,,,,,,,,,,,,,,,,,"[""4""]",1,[2.285000000000082],0,0,0,3,1,,,,,,,,,,,,,,,,,,
,,,,,,,,,,5e98b398e4a84f0eb3755e51,26,Mężczyzna,2022-05-28_09h30.48.773,task,2021.1.4,Win32,60.0240096,628b806c463b948bc644b84f,6291cefdf7e558bc8a439aba,,,,,,,,,,"X V Q F H G B L J M P D K C T S W R N Z
",,,,,,,,,,,,,,,,,,,,,,,,,,,,,,,,,,,,,,,,,,,,,,,,,,,,,,,,,,,,,,,,,,,,,,,,,,,,1,0,1,0,1,,,,,,,,,,,,,
,,,,,,,,,,5e98b398e4a84f0eb3755e51,26,Mężczyzna,2022-05-28_09h30.48.773,task,2021.1.4,Win32,60.0240096,628b806c463b948bc644b84f,6291cefdf7e558bc8a439aba,,,,,,,,,,,,,,,,,,,,,,,4,,,,,,,,,,Task,4,(1x5) - 1,4,,,,,,,,,,,,,,,,,,,1,,,,,,,,,,,,,,,,,,,,,,,"[""4""]",1,[1.1019999999998618],0,0,0,3,1,,,,,,,,,,,,,,,,,,
,,,,,,,,,,5e98b398e4a84f0eb3755e51,26,Mężczyzna,2022-05-28_09h30.48.773,task,2021.1.4,Win32,60.0240096,628b806c463b948bc644b84f,6291cefdf7e558bc8a439aba,,,,,,,,,,"X V Q F H G B L J M P D K C T S W R N Z
",,,,,,,,,,,,,,,,,,,,,,,,,,,,,,,,,,,,,,,,,,,,,,,,,,,,,,,,,,,,,,,,,,,,,,,,,,,,2,0,2,0,1,,,,,,,,,,,,,
,,,,,,,,,,5e98b398e4a84f0eb3755e51,26,Mężczyzna,2022-05-28_09h30.48.773,task,2021.1.4,Win32,60.0240096,628b806c463b948bc644b84f,6291cefdf7e558bc8a439aba,,,,,,,,,,,,,,,,,,,,,,,4,,,,,,,,,,Task,8,(1x5) - 5,0,,,,,,,,,,,,,,,,,,,0,,,,,,,,,,,,,,,,,,,,,,,"[""4""]",0,[0.9790000000000418],0,0,0,7,1,,,,,,,,,,,,,,,,,,
,,,,,,,,,,5e98b398e4a84f0eb3755e51,26,Mężczyzna,2022-05-28_09h30.48.773,task,2021.1.4,Win32,60.0240096,628b806c463b948bc644b84f,6291cefdf7e558bc8a439aba,,,,,,,,,,,,,,,,,,,,,,,1,,,,,,,,,,Task,9,(3x7) - 20,1,,,,,,,,,,,,,,,,,,,1,,,,,,,,,,,,,,,,,,,,,,,"[""1""]",1,[7.400000000000091],0,1,1,8,1,,,,,,,,,,,,,,,,,,
,,,,,,,,,,5e98b398e4a84f0eb3755e51,26,Mężczyzna,2022-05-28_09h30.48.773,task,2021.1.4,Win32,60.0240096,628b806c463b948bc644b84f,6291cefdf7e558bc8a439aba,,,,,,,,,,"X V Q F H G B L J M P D K C T S W R N Z
",,,,,,,,,,,,,,,,,,,,,,,,,,,,,,,,,,,,,,,,,,,,,,,,,,,,,,,,,,,,,,,,,,,,,,,,,,,,3,0,3,0,1,,,,,,,,,,,,,
,,,,,,,,,,5e98b398e4a84f0eb3755e51,26,Mężczyzna,2022-05-28_09h30.48.773,task,2021.1.4,Win32,60.0240096,628b806c463b948bc644b84f,6291cefdf7e558bc8a439aba,,,,,,,,,,,,,,,,,,,,,,,8,,,,,,,,,,Task,32,(8/2) + 4,8,,,,,,,,,,,,,,,,,,,1,,,,,,,,,,,,,,,,,,,,,,,"[""8""]",1,[2.2519999999999527],0,0,0,31,1,,,,,,,,,,,,,,,,,,
,,,,,,,,,,5e98b398e4a84f0eb3755e51,26,Mężczyzna,2022-05-28_09h30.48.773,task,2021.1.4,Win32,60.0240096,628b806c463b948bc644b84f,6291cefdf7e558bc8a439aba,,,,,,,,,,"X V Q F H G B L J M P D K C T S W R N Z
",,,,,,,,,,,,,,,,,,,,,,,,,,,,,,,,,,,,,,,,,,,,,,,,,,,,,,,,,,,,,,,,,,,,,,,,,,,,4,0,4,0,1,,,,,,,,,,,,,
,,,,,,,,,,5e98b398e4a84f0eb3755e51,26,Mężczyzna,2022-05-28_09h30.48.773,task,2021.1.4,Win32,60.0240096,628b806c463b948bc644b84f,6291cefdf7e558bc8a439aba,,,,,,,,,,,,,,,,,,,,,,,8,,,,,,,,,,Task,15,(3x7) - 13,8,,,,,,,,,,,,,,,,,,,1,,,,,,,,,,,,,,,,,,,,,,,"[""8""]",1,[11.264999999999873],0,0,0,14,1,,,,,,,,,,,,,,,,,,
,,,,,,,,,,5e98b398e4a84f0eb3755e51,26,Mężczyzna,2022-05-28_09h30.48.773,task,2021.1.4,Win32,60.0240096,628b806c463b948bc644b84f,6291cefdf7e558bc8a439aba,,,,,,,,,,"X V Q F H G B L J M P D K C T S W R N Z
",,,,,,,,,,,,,,,,,,,,,,,,,,,,,,,,,,,,,,,,,,,,,,,,,,,,,,,,,,,,,,,,,,,,,,,,,,,,5,0,5,0,1,,,,,,,,,,,,,
,,,,,,,,,,5e98b398e4a84f0eb3755e51,26,Mężczyzna,2022-05-28_09h30.48.773,task,2021.1.4,Win32,60.0240096,628b806c463b948bc644b84f,6291cefdf7e558bc8a439aba,,,,,,,,,,,,,,,,,,,,,,,1,,,,,,,,,,Task,34,(9/3) - 2,1,,,,,,,,,,,,,,,,,,,1,,,,,,,,,,,,,,,,,,,,,,,"[""1""]",1,[7.754000000000133],0,0,0,33,1,,,,,,,,,,,,,,,,,,
,,,,,,,,,,5e98b398e4a84f0eb3755e51,26,Mężczyzna,2022-05-28_09h30.48.773,task,2021.1.4,Win32,60.0240096,628b806c463b948bc644b84f,6291cefdf7e558bc8a439aba,,,,,,,,,,"X V Q F H G B L J M P D K C T S W R N Z
",,,,,,,,,,,,,,,,,,,,,,,,,,,,,,,,,,,,,,,,,,,,,,,,,,,,,,,,,,,,,,,,,,,,,,,,,,,,6,0,6,0,1,,,,,,,,,,,,,
,,,,,,,,,,5e98b398e4a84f0eb3755e51,26,Mężczyzna,2022-05-28_09h30.48.773,task,2021.1.4,Win32,60.0240096,628b806c463b948bc644b84f,6291cefdf7e558bc8a439aba,,,,,,,,,,,,,,,,,,,,,,,,,,,,,,,,,,,,,,,,,,,,,,,,,,,,,,,,,,,,,,,,,,,,,,,,,,,,,,,,,,,,,,,,,,,pcfqshp,"[""p"",""c"",""f"",""q"",""s"",""h"",""p""]",0,"[1.7180000000000746,1.8709999999998672,3.435999999999922,3.884999999999991,4.175999999999931,4.469000000000051,5.252999999999929,5.968000000000075]",0,PCFKRHW,6,0,6,0,1,,
,,,,,,,,,,5e98b398e4a84f0eb3755e51,26,Mężczyzna,2022-05-28_09h30.48.773,task,2021.1.4,Win32,60.0240096,628b806c463b948bc644b84f,6291cefdf7e558bc8a439aba,,,,,,,,,,,,,,,,,,,,,,,4,,,,,,,,,,Task,28,(2x5) - 6,4,,,,,,,,,,,,,,,,,,,1,,,,,,,,,,,,,,,,,,,,,,,"[""4""]",1,[4.039999999999964],0,0,0,27,1,,,,,,,,,,,,,,,,,,
,,,,,,,,,,5e98b398e4a84f0eb3755e51,26,Mężczyzna,2022-05-28_09h30.48.773,task,2021.1.4,Win32,60.0240096,628b806c463b948bc644b84f,6291cefdf7e558bc8a439aba,,,,,,,,,,"X V Q F H G B L J M P D K C T S W R N Z
",,,,,,,,,,,,,,,,,,,,,,,,,,,,,,,,,,,,,,,,,,,,,,,,,,,,,,,,,,,,,,,,,,,,,,,,,,,,0,0,0,0,1,,,,,,,,,,,,,
,,,,,,,,,,5e98b398e4a84f0eb3755e51,26,Mężczyzna,2022-05-28_09h30.48.773,task,2021.1.4,Win32,60.0240096,628b806c463b948bc644b84f,6291cefdf7e558bc8a439aba,,,,,,,,,,,,,,,,,,,,,,,8,,,,,,,,,,Task,39,(5x3) - 7,8,,,,,,,,,,,,,,,,,,,1,,,,,,,,,,,,,,,,,,,,,,,"[""8""]",1,[8.500999999999976],0,0,0,38,1,,,,,,,,,,,,,,,,,,
,,,,,,,,,,5e98b398e4a84f0eb3755e51,26,Mężczyzna,2022-05-28_09h30.48.773,task,2021.1.4,Win32,60.0240096,628b806c463b948bc644b84f,6291cefdf7e558bc8a439aba,,,,,,,,,,"X V Q F H G B L J M P D K C T S W R N Z
",,,,,,,,,,,,,,,,,,,,,,,,,,,,,,,,,,,,,,,,,,,,,,,,,,,,,,,,,,,,,,,,,,,,,,,,,,,,1,0,1,0,1,,,,,,,,,,,,,
,,,,,,,,,,5e98b398e4a84f0eb3755e51,26,Mężczyzna,2022-05-28_09h30.48.773,task,2021.1.4,Win32,60.0240096,628b806c463b948bc644b84f,6291cefdf7e558bc8a439aba,,,,,,,,,,,,,,,,,,,,,,,3,,,,,,,,,,Task,3,(2x3) - 3,3,,,,,,,,,,,,,,,,,,,1,,,,,,,,,,,,,,,,,,,,,,,"[""3""]",1,[2.4839999999999236],0,0,0,2,1,,,,,,,,,,,,,,,,,,
,,,,,,,,,,5e98b398e4a84f0eb3755e51,26,Mężczyzna,2022-05-28_09h30.48.773,task,2021.1.4,Win32,60.0240096,628b806c463b948bc644b84f,6291cefdf7e558bc8a439aba,,,,,,,,,,"X V Q F H G B L J M P D K C T S W R N Z
",,,,,,,,,,,,,,,,,,,,,,,,,,,,,,,,,,,,,,,,,,,,,,,,,,,,,,,,,,,,,,,,,,,,,,,,,,,,2,0,2,0,1,,,,,,,,,,,,,
,,,,,,,,,,5e98b398e4a84f0eb3755e51,26,Mężczyzna,2022-05-28_09h30.48.773,task,2021.1.4,Win32,60.0240096,628b806c463b948bc644b84f,6291cefdf7e558bc8a439aba,,,,,,,,,,,,,,,,,,,,,,,5,,,,,,,,,,Task,29,(3x8) - 19 ,5,,,,,,,,,,,,,,,,,,,1,,,,,,,,,,,,,,,,,,,,,,,"[""5""]",1,[11.831000000000131],0,0,0,28,1,,,,,,,,,,,,,,,,,,
,,,,,,,,,,5e98b398e4a84f0eb3755e51,26,Mężczyzna,2022-05-28_09h30.48.773,task,2021.1.4,Win32,60.0240096,628b806c463b948bc644b84f,6291cefdf7e558bc8a439aba,,,,,,,,,,"X V Q F H G B L J M P D K C T S W R N Z
",,,,,,,,,,,,,,,,,,,,,,,,,,,,,,,,,,,,,,,,,,,,,,,,,,,,,,,,,,,,,,,,,,,,,,,,,,,,3,0,3,0,1,,,,,,,,,,,,,
,,,,,,,,,,5e98b398e4a84f0eb3755e51,26,Mężczyzna,2022-05-28_09h30.48.773,task,2021.1.4,Win32,60.0240096,628b806c463b948bc644b84f,6291cefdf7e558bc8a439aba,,,,,,,,,,,,,,,,,,,,,,,5,,,,,,,,,,Task,16,(3x8) - 15,9,,,,,,,,,,,,,,,,,,,0,,,,,,,,,,,,,,,,,,,,,,,"[""5""]",0,[5.967000000000098],0,0,0,15,1,,,,,,,,,,,,,,,,,,
,,,,,,,,,,5e98b398e4a84f0eb3755e51,26,Mężczyzna,2022-05-28_09h30.48.773,task,2021.1.4,Win32,60.0240096,628b806c463b948bc644b84f,6291cefdf7e558bc8a439aba,,,,,,,,,,,,,,,,,,,,,,,3,,,,,,,,,,Task,20,(18/9) + 1,3,,,,,,,,,,,,,,,,,,,1,,,,,,,,,,,,,,,,,,,,,,,"[""3""]",1,[6.345000000000027],0,1,1,19,1,,,,,,,,,,,,,,,,,,
,,,,,,,,,,5e98b398e4a84f0eb3755e51,26,Mężczyzna,2022-05-28_09h30.48.773,task,2021.1.4,Win32,60.0240096,628b806c463b948bc644b84f,6291cefdf7e558bc8a439aba,,,,,,,,,,"X V Q F H G B L J M P D K C T S W R N Z
",,,,,,,,,,,,,,,,,,,,,,,,,,,,,,,,,,,,,,,,,,,,,,,,,,,,,,,,,,,,,,,,,,,,,,,,,,,,4,0,4,0,1,,,,,,,,,,,,,
,,,,,,,,,,5e98b398e4a84f0eb3755e51,26,Mężczyzna,2022-05-28_09h30.48.773,task,2021.1.4,Win32,60.0240096,628b806c463b948bc644b84f,6291cefdf7e558bc8a439aba,,,,,,,,,,,,,,,,,,,,,,,8,,,,,,,,,,Task,23,(2x3) + 2,8,,,,,,,,,,,,,,,,,,,1,,,,,,,,,,,,,,,,,,,,,,,"[""8""]",1,[4.766999999999825],0,0,0,22,1,,,,,,,,,,,,,,,,,,
,,,,,,,,,,5e98b398e4a84f0eb3755e51,26,Mężczyzna,2022-05-28_09h30.48.773,task,2021.1.4,Win32,60.0240096,628b806c463b948bc644b84f,6291cefdf7e558bc8a439aba,,,,,,,,,,"X V Q F H G B L J M P D K C T S W R N Z
",,,,,,,,,,,,,,,,,,,,,,,,,,,,,,,,,,,,,,,,,,,,,,,,,,,,,,,,,,,,,,,,,,,,,,,,,,,,5,0,5,0,1,,,,,,,,,,,,,
,,,,,,,,,,5e98b398e4a84f0eb3755e51,26,Mężczyzna,2022-05-28_09h30.48.773,task,2021.1.4,Win32,60.0240096,628b806c463b948bc644b84f,6291cefdf7e558bc8a439aba,,,,,,,,,,,,,,,,,,,,,,,9,,,,,,,,,,Task,40,(7x2) - 5,9,,,,,,,,,,,,,,,,,,,1,,,,,,,,,,,,,,,,,,,,,,,"[""9""]",1,[4.972999999999956],0,0,0,39,1,,,,,,,,,,,,,,,,,,
,,,,,,,,,,5e98b398e4a84f0eb3755e51,26,Mężczyzna,2022-05-28_09h30.48.773,task,2021.1.4,Win32,60.0240096,628b806c463b948bc644b84f,6291cefdf7e558bc8a439aba,,,,,,,,,,"X V Q F H G B L J M P D K C T S W R N Z
",,,,,,,,,,,,,,,,,,,,,,,,,,,,,,,,,,,,,,,,,,,,,,,,,,,,,,,,,,,,,,,,,,,,,,,,,,,,6,0,6,0,1,,,,,,,,,,,,,
,,,,,,,,,,5e98b398e4a84f0eb3755e51,26,Mężczyzna,2022-05-28_09h30.48.773,task,2021.1.4,Win32,60.0240096,628b806c463b948bc644b84f,6291cefdf7e558bc8a439aba,,,,,,,,,,,,,,,,,,,,,,,,,,,,,,,,,,,,,,,,,,,,,,,,,,,,,,,,,,,,,,,,,,,,,,,,,,,,,,,,,,,,,,,,,,,ptdqwt,"[""p"",""t"",""d"",""q"",""w"",""t""]",0,"[1.58400000000006,1.8009999999999309,2.1189999999999145,2.45900000000006,6.2349999999999,6.542999999999893,7.5]",0,"TTDGZ
Z
T",7,0,7,0,1,,
,,,,,,,,,,5e98b398e4a84f0eb3755e51,26,Mężczyzna,2022-05-28_09h30.48.773,task,2021.1.4,Win32,60.0240096,628b806c463b948bc644b84f,6291cefdf7e558bc8a439aba,,,,,,,,,,,,,,,,,,,,,,,,,,,,,,,,,,,,,,,,,,,,,,,,,,,,,,,,,,,,,,,,,,,,,,,,,,,,,,,,,,,,,,,,,,,,,,,,,,,,,,space,5.133
