key_resp_15.keys,key_resp_15.rt,key_resp_16.keys,key_resp_16.rt,key_resp_4.keys,key_resp_4.rt,next_letter.thisRepN,next_letter.thisTrialN,next_letter.thisN,next_letter.thisIndex,next_letter.ran,letter,participant,Wiek*,Płeć,date,expName,psychopyVersion,OS,frameRate,study_id,session,simple_recall,key_resp_5.keys,key_resp_5.rt,simple_recall_corr,simple_recall_corrkeys,next_level.thisRepN,next_level.thisTrialN,next_level.thisN,next_level.thisIndex,next_level.ran,key_resp_2.keys,key_resp_2.rt,digit_answer,key_resp.keys,key_resp.corr,key_resp.rt,RT_list,next_equation.thisRepN,next_equation.thisTrialN,next_equation.thisN,next_equation.thisIndex,next_equation.ran,Task,Trial,Problem,Operation_answer,processing_score,sumRT,meanRT,sumdiff,sd,RT,key_resp_3.keys,key_resp_3.rt,repeat_practice.thisRepN,repeat_practice.thisTrialN,repeat_practice.thisN,repeat_practice.thisIndex,repeat_practice.ran,key_resp_6.keys,key_resp_6.rt,key_resp_11.keys,key_resp_11.corr,key_resp_11.rt,operation_correct,repeat_if_wrong_prac.thisRepN,repeat_if_wrong_prac.thisTrialN,repeat_if_wrong_prac.thisN,repeat_if_wrong_prac.thisIndex,repeat_if_wrong_prac.ran,span_size_prac.thisRepN,span_size_prac.thisTrialN,span_size_prac.thisN,span_size_prac.thisIndex,span_size_prac.ran,complex_recall_practice,key_resp_9.keys,key_resp_9.corr,key_resp_9.rt,complex_prac_corr,span_recall_prac.thisRepN,span_recall_prac.thisTrialN,span_recall_prac.thisN,span_recall_prac.thisIndex,span_recall_prac.ran,key_resp_10.keys,key_resp_10.rt,key_resp_7.keys,key_resp_7.corr,repeat_if_wrong.thisRepN,repeat_if_wrong.thisTrialN,repeat_if_wrong.thisN,repeat_if_wrong.thisIndex,repeat_if_wrong.ran,key_resp_7.rt,span_size.thisRepN,span_size.thisTrialN,span_size.thisN,span_size.thisIndex,span_size.ran,complex_recall,key_resp_8.keys,key_resp_8.corr,key_resp_8.rt,complex_recall_corr,complex_recall_corrkeys,span_recall.thisRepN,span_recall.thisTrialN,span_recall.thisN,span_recall.thisIndex,span_recall.ran,key_resp_13.keys,key_resp_13.corr,key_resp_13.rt,random_loop.thisRepN,random_loop.thisTrialN,random_loop.thisN,random_loop.thisIndex,random_loop.ran,key_resp_12.keys,key_resp_12.rt
space,18.4907,space,12.5858,space,4.0207,0,0,0,0,1,X V Q F H G B L J M P D K C T S W R N Z,5e99c5be1a0c87028c125183,23,Mężczyzna,2022-06-11_09h42.38.260,task,2021.1.4,Win32,60.10337781,6299f149e92ead563fba08ef,62a446cf1eaae6b8a67b619a,,,,,,,,,,,,,,,,,,,,,,,,,,,,,,,,,,,,,,,,,,,,,,,,,,,,,,,,,,,,,,,,,,,,,,,,,,,,,,,,,,,,,,,,,,,,,,,,,,,,,
,,,,,,1,0,1,0,1,X V Q F H G B L J M P D K C T S W R N Z,5e99c5be1a0c87028c125183,23,Mężczyzna,2022-06-11_09h42.38.260,task,2021.1.4,Win32,60.10337781,6299f149e92ead563fba08ef,62a446cf1eaae6b8a67b619a,,,,,,,,,,,,,,,,,,,,,,,,,,,,,,,,,,,,,,,,,,,,,,,,,,,,,,,,,,,,,,,,,,,,,,,,,,,,,,,,,,,,,,,,,,,,,,,,,,,,,
,,,,,,,,,,,,5e99c5be1a0c87028c125183,23,Mężczyzna,2022-06-11_09h42.38.260,task,2021.1.4,Win32,60.10337781,6299f149e92ead563fba08ef,62a446cf1eaae6b8a67b619a,zd,"[""z"",""d""]","[3.0433999998569448,3.4438999998569457,4.624199999809264]",1,ZD,0,0,0,0,1,,,,,,,,,,,,,,,,,,,,,,,,,,,,,,,,,,,,,,,,,,,,,,,,,,,,,,,,,,,,,,,,,,,,,,,,,,,,,,,,,,,,,,,,,,,
,,,,,,0,0,0,0,1,X V Q F H G B L J M P D K C T S W R N Z,5e99c5be1a0c87028c125183,23,Mężczyzna,2022-06-11_09h42.38.260,task,2021.1.4,Win32,60.10337781,6299f149e92ead563fba08ef,62a446cf1eaae6b8a67b619a,,,,,,,,,,,,,,,,,,,,,,,,,,,,,,,,,,,,,,,,,,,,,,,,,,,,,,,,,,,,,,,,,,,,,,,,,,,,,,,,,,,,,,,,,,,,,,,,,,,,,
,,,,,,1,0,1,0,1,X V Q F H G B L J M P D K C T S W R N Z,5e99c5be1a0c87028c125183,23,Mężczyzna,2022-06-11_09h42.38.260,task,2021.1.4,Win32,60.10337781,6299f149e92ead563fba08ef,62a446cf1eaae6b8a67b619a,,,,,,,,,,,,,,,,,,,,,,,,,,,,,,,,,,,,,,,,,,,,,,,,,,,,,,,,,,,,,,,,,,,,,,,,,,,,,,,,,,,,,,,,,,,,,,,,,,,,,
,,,,,,,,,,,,5e99c5be1a0c87028c125183,23,Mężczyzna,2022-06-11_09h42.38.260,task,2021.1.4,Win32,60.10337781,6299f149e92ead563fba08ef,62a446cf1eaae6b8a67b619a,wd,"[""w"",""d""]","[1.1955000000000027,1.3629000000953724,1.6820000000000022]",1,WD,1,0,1,0,1,,,,,,,,,,,,,,,,,,,,,,,,,,,,,,,,,,,,,,,,,,,,,,,,,,,,,,,,,,,,,,,,,,,,,,,,,,,,,,,,,,,,,,,,,,,
,,,,,,0,0,0,0,1,X V Q F H G B L J M P D K C T S W R N Z,5e99c5be1a0c87028c125183,23,Mężczyzna,2022-06-11_09h42.38.260,task,2021.1.4,Win32,60.10337781,6299f149e92ead563fba08ef,62a446cf1eaae6b8a67b619a,,,,,,,,,,,,,,,,,,,,,,,,,,,,,,,,,,,,,,,,,,,,,,,,,,,,,,,,,,,,,,,,,,,,,,,,,,,,,,,,,,,,,,,,,,,,,,,,,,,,,
,,,,,,1,0,1,0,1,X V Q F H G B L J M P D K C T S W R N Z,5e99c5be1a0c87028c125183,23,Mężczyzna,2022-06-11_09h42.38.260,task,2021.1.4,Win32,60.10337781,6299f149e92ead563fba08ef,62a446cf1eaae6b8a67b619a,,,,,,,,,,,,,,,,,,,,,,,,,,,,,,,,,,,,,,,,,,,,,,,,,,,,,,,,,,,,,,,,,,,,,,,,,,,,,,,,,,,,,,,,,,,,,,,,,,,,,
,,,,,,2,0,2,0,1,X V Q F H G B L J M P D K C T S W R N Z,5e99c5be1a0c87028c125183,23,Mężczyzna,2022-06-11_09h42.38.260,task,2021.1.4,Win32,60.10337781,6299f149e92ead563fba08ef,62a446cf1eaae6b8a67b619a,,,,,,,,,,,,,,,,,,,,,,,,,,,,,,,,,,,,,,,,,,,,,,,,,,,,,,,,,,,,,,,,,,,,,,,,,,,,,,,,,,,,,,,,,,,,,,,,,,,,,
,,,,,,,,,,,,5e99c5be1a0c87028c125183,23,Mężczyzna,2022-06-11_09h42.38.260,task,2021.1.4,Win32,60.10337781,6299f149e92ead563fba08ef,62a446cf1eaae6b8a67b619a,jjt,"[""j"",""j"",""t""]","[0.4198999998569519,0.5717999999523187,0.6947000000476748,1.1088999998569449]",1,JJT,2,0,2,0,1,,,,,,,,,,,,,,,,,,,,,,,,,,,,,,,,,,,,,,,,,,,,,,,,,,,,,,,,,,,,,,,,,,,,,,,,,,,,,,,,,,,,,,,,,,,
,,,,,,0,0,0,0,1,X V Q F H G B L J M P D K C T S W R N Z,5e99c5be1a0c87028c125183,23,Mężczyzna,2022-06-11_09h42.38.260,task,2021.1.4,Win32,60.10337781,6299f149e92ead563fba08ef,62a446cf1eaae6b8a67b619a,,,,,,,,,,,,,,,,,,,,,,,,,,,,,,,,,,,,,,,,,,,,,,,,,,,,,,,,,,,,,,,,,,,,,,,,,,,,,,,,,,,,,,,,,,,,,,,,,,,,,
,,,,,,1,0,1,0,1,X V Q F H G B L J M P D K C T S W R N Z,5e99c5be1a0c87028c125183,23,Mężczyzna,2022-06-11_09h42.38.260,task,2021.1.4,Win32,60.10337781,6299f149e92ead563fba08ef,62a446cf1eaae6b8a67b619a,,,,,,,,,,,,,,,,,,,,,,,,,,,,,,,,,,,,,,,,,,,,,,,,,,,,,,,,,,,,,,,,,,,,,,,,,,,,,,,,,,,,,,,,,,,,,,,,,,,,,
,,,,,,2,0,2,0,1,X V Q F H G B L J M P D K C T S W R N Z,5e99c5be1a0c87028c125183,23,Mężczyzna,2022-06-11_09h42.38.260,task,2021.1.4,Win32,60.10337781,6299f149e92ead563fba08ef,62a446cf1eaae6b8a67b619a,,,,,,,,,,,,,,,,,,,,,,,,,,,,,,,,,,,,,,,,,,,,,,,,,,,,,,,,,,,,,,,,,,,,,,,,,,,,,,,,,,,,,,,,,,,,,,,,,,,,,
,,,,,,,,,,,,5e99c5be1a0c87028c125183,23,Mężczyzna,2022-06-11_09h42.38.260,task,2021.1.4,Win32,60.10337781,6299f149e92ead563fba08ef,62a446cf1eaae6b8a67b619a,xjg,"[""x"",""j"",""g""]","[1.6784000000953654,1.821400000095366,2.0099000000953566,2.2674999999999983]",1,XJG,3,0,3,0,1,,,,,,,,,,,,,,,,,,,,,,,,,,,,,,,,,,,,,,,,,,,,,,,,,,,,,,,,,,,,,,,,,,,,,,,,,,,,,,,,,,,,,,,,,,,
,,,,,,0,0,0,0,1,X V Q F H G B L J M P D K C T S W R N Z,5e99c5be1a0c87028c125183,23,Mężczyzna,2022-06-11_09h42.38.260,task,2021.1.4,Win32,60.10337781,6299f149e92ead563fba08ef,62a446cf1eaae6b8a67b619a,,,,,,,,,,,,,,,,,,,,,,,,,,,,,,,,,,,,,,,,,,,,,,,,,,,,,,,,,,,,,,,,,,,,,,,,,,,,,,,,,,,,,,,,,,,,,,,,,,,,,
,,,,,,1,0,1,0,1,X V Q F H G B L J M P D K C T S W R N Z,5e99c5be1a0c87028c125183,23,Mężczyzna,2022-06-11_09h42.38.260,task,2021.1.4,Win32,60.10337781,6299f149e92ead563fba08ef,62a446cf1eaae6b8a67b619a,,,,,,,,,,,,,,,,,,,,,,,,,,,,,,,,,,,,,,,,,,,,,,,,,,,,,,,,,,,,,,,,,,,,,,,,,,,,,,,,,,,,,,,,,,,,,,,,,,,,,
,,,,,,2,0,2,0,1,X V Q F H G B L J M P D K C T S W R N Z,5e99c5be1a0c87028c125183,23,Mężczyzna,2022-06-11_09h42.38.260,task,2021.1.4,Win32,60.10337781,6299f149e92ead563fba08ef,62a446cf1eaae6b8a67b619a,,,,,,,,,,,,,,,,,,,,,,,,,,,,,,,,,,,,,,,,,,,,,,,,,,,,,,,,,,,,,,,,,,,,,,,,,,,,,,,,,,,,,,,,,,,,,,,,,,,,,
,,,,,,3,0,3,0,1,X V Q F H G B L J M P D K C T S W R N Z,5e99c5be1a0c87028c125183,23,Mężczyzna,2022-06-11_09h42.38.260,task,2021.1.4,Win32,60.10337781,6299f149e92ead563fba08ef,62a446cf1eaae6b8a67b619a,,,,,,,,,,,,,,,,,,,,,,,,,,,,,,,,,,,,,,,,,,,,,,,,,,,,,,,,,,,,,,,,,,,,,,,,,,,,,,,,,,,,,,,,,,,,,,,,,,,,,
,,,,,,,,,,,,5e99c5be1a0c87028c125183,23,Mężczyzna,2022-06-11_09h42.38.260,task,2021.1.4,Win32,60.10337781,6299f149e92ead563fba08ef,62a446cf1eaae6b8a67b619a,qctz,"[""q"",""c"",""t"",""z""]","[1.1172000000476743,1.516999999999996,2.0050999999046297,2.328499999999991,2.636900000095366]",1,QCTZ,4,0,4,0,1,,,,,,,,,,,,,,,,,,,,,,,,,,,,,,,,,,,,,,,,,,,,,,,,,,,,,,,,,,,,,,,,,,,,,,,,,,,,,,,,,,,,,,,,,,,
,,,,,,0,0,0,0,1,X V Q F H G B L J M P D K C T S W R N Z,5e99c5be1a0c87028c125183,23,Mężczyzna,2022-06-11_09h42.38.260,task,2021.1.4,Win32,60.10337781,6299f149e92ead563fba08ef,62a446cf1eaae6b8a67b619a,,,,,,,,,,,,,,,,,,,,,,,,,,,,,,,,,,,,,,,,,,,,,,,,,,,,,,,,,,,,,,,,,,,,,,,,,,,,,,,,,,,,,,,,,,,,,,,,,,,,,
,,,,,,1,0,1,0,1,X V Q F H G B L J M P D K C T S W R N Z,5e99c5be1a0c87028c125183,23,Mężczyzna,2022-06-11_09h42.38.260,task,2021.1.4,Win32,60.10337781,6299f149e92ead563fba08ef,62a446cf1eaae6b8a67b619a,,,,,,,,,,,,,,,,,,,,,,,,,,,,,,,,,,,,,,,,,,,,,,,,,,,,,,,,,,,,,,,,,,,,,,,,,,,,,,,,,,,,,,,,,,,,,,,,,,,,,
,,,,,,2,0,2,0,1,X V Q F H G B L J M P D K C T S W R N Z,5e99c5be1a0c87028c125183,23,Mężczyzna,2022-06-11_09h42.38.260,task,2021.1.4,Win32,60.10337781,6299f149e92ead563fba08ef,62a446cf1eaae6b8a67b619a,,,,,,,,,,,,,,,,,,,,,,,,,,,,,,,,,,,,,,,,,,,,,,,,,,,,,,,,,,,,,,,,,,,,,,,,,,,,,,,,,,,,,,,,,,,,,,,,,,,,,
,,,,,,3,0,3,0,1,X V Q F H G B L J M P D K C T S W R N Z,5e99c5be1a0c87028c125183,23,Mężczyzna,2022-06-11_09h42.38.260,task,2021.1.4,Win32,60.10337781,6299f149e92ead563fba08ef,62a446cf1eaae6b8a67b619a,,,,,,,,,,,,,,,,,,,,,,,,,,,,,,,,,,,,,,,,,,,,,,,,,,,,,,,,,,,,,,,,,,,,,,,,,,,,,,,,,,,,,,,,,,,,,,,,,,,,,
,,,,,,,,,,,,5e99c5be1a0c87028c125183,23,Mężczyzna,2022-06-11_09h42.38.260,task,2021.1.4,Win32,60.10337781,6299f149e92ead563fba08ef,62a446cf1eaae6b8a67b619a,hnnq,"[""h"",""n"",""n"",""q""]","[1.5210999999046209,1.9037999999523123,2.076499999999996,2.3956999998092527,2.7320999999046194]",1,HNNQ,5,0,5,0,1,,,,,,,,,,,,,,,,,,,,,,,,,,,,,,,,,,,,,,,,,,,,,,,,,,,,,,,,,,,,,,,,,,,,,,,,,,,,,,,,,,,,,,,,,,,
,,,,,,0,0,0,0,1,X V Q F H G B L J M P D K C T S W R N Z,5e99c5be1a0c87028c125183,23,Mężczyzna,2022-06-11_09h42.38.260,task,2021.1.4,Win32,60.10337781,6299f149e92ead563fba08ef,62a446cf1eaae6b8a67b619a,,,,,,,,,,,,,,,,,,,,,,,,,,,,,,,,,,,,,,,,,,,,,,,,,,,,,,,,,,,,,,,,,,,,,,,,,,,,,,,,,,,,,,,,,,,,,,,,,,,,,
,,,,,,1,0,1,0,1,X V Q F H G B L J M P D K C T S W R N Z,5e99c5be1a0c87028c125183,23,Mężczyzna,2022-06-11_09h42.38.260,task,2021.1.4,Win32,60.10337781,6299f149e92ead563fba08ef,62a446cf1eaae6b8a67b619a,,,,,,,,,,,,,,,,,,,,,,,,,,,,,,,,,,,,,,,,,,,,,,,,,,,,,,,,,,,,,,,,,,,,,,,,,,,,,,,,,,,,,,,,,,,,,,,,,,,,,
,,,,,,2,0,2,0,1,X V Q F H G B L J M P D K C T S W R N Z,5e99c5be1a0c87028c125183,23,Mężczyzna,2022-06-11_09h42.38.260,task,2021.1.4,Win32,60.10337781,6299f149e92ead563fba08ef,62a446cf1eaae6b8a67b619a,,,,,,,,,,,,,,,,,,,,,,,,,,,,,,,,,,,,,,,,,,,,,,,,,,,,,,,,,,,,,,,,,,,,,,,,,,,,,,,,,,,,,,,,,,,,,,,,,,,,,
,,,,,,3,0,3,0,1,X V Q F H G B L J M P D K C T S W R N Z,5e99c5be1a0c87028c125183,23,Mężczyzna,2022-06-11_09h42.38.260,task,2021.1.4,Win32,60.10337781,6299f149e92ead563fba08ef,62a446cf1eaae6b8a67b619a,,,,,,,,,,,,,,,,,,,,,,,,,,,,,,,,,,,,,,,,,,,,,,,,,,,,,,,,,,,,,,,,,,,,,,,,,,,,,,,,,,,,,,,,,,,,,,,,,,,,,
,,,,,,4,0,4,0,1,X V Q F H G B L J M P D K C T S W R N Z,5e99c5be1a0c87028c125183,23,Mężczyzna,2022-06-11_09h42.38.260,task,2021.1.4,Win32,60.10337781,6299f149e92ead563fba08ef,62a446cf1eaae6b8a67b619a,,,,,,,,,,,,,,,,,,,,,,,,,,,,,,,,,,,,,,,,,,,,,,,,,,,,,,,,,,,,,,,,,,,,,,,,,,,,,,,,,,,,,,,,,,,,,,,,,,,,,
,,,,,,,,,,,,5e99c5be1a0c87028c125183,23,Mężczyzna,2022-06-11_09h42.38.260,task,2021.1.4,Win32,60.10337781,6299f149e92ead563fba08ef,62a446cf1eaae6b8a67b619a,ctshh,"[""c"",""t"",""s"",""h"",""h""]","[1.311000000000007,1.8264999999999958,2.146400000095369,2.444299999952321,2.612600000143047,3.0427999999523223]",1,CTSHH,6,0,6,0,1,,,,,,,,,,,,,,,,,,,,,,,,,,,,,,,,,,,,,,,,,,,,,,,,,,,,,,,,,,,,,,,,,,,,,,,,,,,,,,,,,,,,,,,,,,,
,,,,,,0,0,0,0,1,X V Q F H G B L J M P D K C T S W R N Z,5e99c5be1a0c87028c125183,23,Mężczyzna,2022-06-11_09h42.38.260,task,2021.1.4,Win32,60.10337781,6299f149e92ead563fba08ef,62a446cf1eaae6b8a67b619a,,,,,,,,,,,,,,,,,,,,,,,,,,,,,,,,,,,,,,,,,,,,,,,,,,,,,,,,,,,,,,,,,,,,,,,,,,,,,,,,,,,,,,,,,,,,,,,,,,,,,
,,,,,,1,0,1,0,1,X V Q F H G B L J M P D K C T S W R N Z,5e99c5be1a0c87028c125183,23,Mężczyzna,2022-06-11_09h42.38.260,task,2021.1.4,Win32,60.10337781,6299f149e92ead563fba08ef,62a446cf1eaae6b8a67b619a,,,,,,,,,,,,,,,,,,,,,,,,,,,,,,,,,,,,,,,,,,,,,,,,,,,,,,,,,,,,,,,,,,,,,,,,,,,,,,,,,,,,,,,,,,,,,,,,,,,,,
,,,,,,2,0,2,0,1,X V Q F H G B L J M P D K C T S W R N Z,5e99c5be1a0c87028c125183,23,Mężczyzna,2022-06-11_09h42.38.260,task,2021.1.4,Win32,60.10337781,6299f149e92ead563fba08ef,62a446cf1eaae6b8a67b619a,,,,,,,,,,,,,,,,,,,,,,,,,,,,,,,,,,,,,,,,,,,,,,,,,,,,,,,,,,,,,,,,,,,,,,,,,,,,,,,,,,,,,,,,,,,,,,,,,,,,,
,,,,,,3,0,3,0,1,X V Q F H G B L J M P D K C T S W R N Z,5e99c5be1a0c87028c125183,23,Mężczyzna,2022-06-11_09h42.38.260,task,2021.1.4,Win32,60.10337781,6299f149e92ead563fba08ef,62a446cf1eaae6b8a67b619a,,,,,,,,,,,,,,,,,,,,,,,,,,,,,,,,,,,,,,,,,,,,,,,,,,,,,,,,,,,,,,,,,,,,,,,,,,,,,,,,,,,,,,,,,,,,,,,,,,,,,
,,,,,,4,0,4,0,1,X V Q F H G B L J M P D K C T S W R N Z,5e99c5be1a0c87028c125183,23,Mężczyzna,2022-06-11_09h42.38.260,task,2021.1.4,Win32,60.10337781,6299f149e92ead563fba08ef,62a446cf1eaae6b8a67b619a,,,,,,,,,,,,,,,,,,,,,,,,,,,,,,,,,,,,,,,,,,,,,,,,,,,,,,,,,,,,,,,,,,,,,,,,,,,,,,,,,,,,,,,,,,,,,,,,,,,,,
,,,,,,,,,,,,5e99c5be1a0c87028c125183,23,Mężczyzna,2022-06-11_09h42.38.260,task,2021.1.4,Win32,60.10337781,6299f149e92ead563fba08ef,62a446cf1eaae6b8a67b619a,tbcdz,"[""t"",""b"",""c"",""d"",""z""]","[2.8102999999523206,3.0047999999523114,3.228799999952315,4.010599999904628,4.152599999904638,4.674299999952311]",1,TBCDZ,7,0,7,0,1,,,,,,,,,,,,,,,,,,,,,,,,,,,,,,,,,,,,,,,,,,,,,,,,,,,,,,,,,,,,,,,,,,,,,,,,,,,,,,,,,,,,,,,,,,,
,,,,,,0,0,0,0,1,X V Q F H G B L J M P D K C T S W R N Z,5e99c5be1a0c87028c125183,23,Mężczyzna,2022-06-11_09h42.38.260,task,2021.1.4,Win32,60.10337781,6299f149e92ead563fba08ef,62a446cf1eaae6b8a67b619a,,,,,,,,,,,,,,,,,,,,,,,,,,,,,,,,,,,,,,,,,,,,,,,,,,,,,,,,,,,,,,,,,,,,,,,,,,,,,,,,,,,,,,,,,,,,,,,,,,,,,
,,,,,,1,0,1,0,1,X V Q F H G B L J M P D K C T S W R N Z,5e99c5be1a0c87028c125183,23,Mężczyzna,2022-06-11_09h42.38.260,task,2021.1.4,Win32,60.10337781,6299f149e92ead563fba08ef,62a446cf1eaae6b8a67b619a,,,,,,,,,,,,,,,,,,,,,,,,,,,,,,,,,,,,,,,,,,,,,,,,,,,,,,,,,,,,,,,,,,,,,,,,,,,,,,,,,,,,,,,,,,,,,,,,,,,,,
,,,,,,2,0,2,0,1,X V Q F H G B L J M P D K C T S W R N Z,5e99c5be1a0c87028c125183,23,Mężczyzna,2022-06-11_09h42.38.260,task,2021.1.4,Win32,60.10337781,6299f149e92ead563fba08ef,62a446cf1eaae6b8a67b619a,,,,,,,,,,,,,,,,,,,,,,,,,,,,,,,,,,,,,,,,,,,,,,,,,,,,,,,,,,,,,,,,,,,,,,,,,,,,,,,,,,,,,,,,,,,,,,,,,,,,,
,,,,,,3,0,3,0,1,X V Q F H G B L J M P D K C T S W R N Z,5e99c5be1a0c87028c125183,23,Mężczyzna,2022-06-11_09h42.38.260,task,2021.1.4,Win32,60.10337781,6299f149e92ead563fba08ef,62a446cf1eaae6b8a67b619a,,,,,,,,,,,,,,,,,,,,,,,,,,,,,,,,,,,,,,,,,,,,,,,,,,,,,,,,,,,,,,,,,,,,,,,,,,,,,,,,,,,,,,,,,,,,,,,,,,,,,
,,,,,,4,0,4,0,1,X V Q F H G B L J M P D K C T S W R N Z,5e99c5be1a0c87028c125183,23,Mężczyzna,2022-06-11_09h42.38.260,task,2021.1.4,Win32,60.10337781,6299f149e92ead563fba08ef,62a446cf1eaae6b8a67b619a,,,,,,,,,,,,,,,,,,,,,,,,,,,,,,,,,,,,,,,,,,,,,,,,,,,,,,,,,,,,,,,,,,,,,,,,,,,,,,,,,,,,,,,,,,,,,,,,,,,,,
,,,,,,5,0,5,0,1,X V Q F H G B L J M P D K C T S W R N Z,5e99c5be1a0c87028c125183,23,Mężczyzna,2022-06-11_09h42.38.260,task,2021.1.4,Win32,60.10337781,6299f149e92ead563fba08ef,62a446cf1eaae6b8a67b619a,,,,,,,,,,,,,,,,,,,,,,,,,,,,,,,,,,,,,,,,,,,,,,,,,,,,,,,,,,,,,,,,,,,,,,,,,,,,,,,,,,,,,,,,,,,,,,,,,,,,,
,,,,,,,,,,,,5e99c5be1a0c87028c125183,23,Mężczyzna,2022-06-11_09h42.38.260,task,2021.1.4,Win32,60.10337781,6299f149e92ead563fba08ef,62a446cf1eaae6b8a67b619a,sfzspk,"[""s"",""f"",""z"",""s"",""p"",""k""]","[1.8083999998569453,2.164699999809258,2.7010999999046277,4.919799999952318,5.07059999990463,5.239199999809259,5.881899999856941]",0,SVFSPK,8,0,8,0,1,,,,,,,,,,,,,,,,,,,,,,,,,,,,,,,,,,,,,,,,,,,,,,,,,,,,,,,,,,,,,,,,,,,,,,,,,,,,,,,,,,,,,,,,,,,
,,,,,,0,0,0,0,1,X V Q F H G B L J M P D K C T S W R N Z,5e99c5be1a0c87028c125183,23,Mężczyzna,2022-06-11_09h42.38.260,task,2021.1.4,Win32,60.10337781,6299f149e92ead563fba08ef,62a446cf1eaae6b8a67b619a,,,,,,,,,,,,,,,,,,,,,,,,,,,,,,,,,,,,,,,,,,,,,,,,,,,,,,,,,,,,,,,,,,,,,,,,,,,,,,,,,,,,,,,,,,,,,,,,,,,,,
,,,,,,1,0,1,0,1,X V Q F H G B L J M P D K C T S W R N Z,5e99c5be1a0c87028c125183,23,Mężczyzna,2022-06-11_09h42.38.260,task,2021.1.4,Win32,60.10337781,6299f149e92ead563fba08ef,62a446cf1eaae6b8a67b619a,,,,,,,,,,,,,,,,,,,,,,,,,,,,,,,,,,,,,,,,,,,,,,,,,,,,,,,,,,,,,,,,,,,,,,,,,,,,,,,,,,,,,,,,,,,,,,,,,,,,,
,,,,,,2,0,2,0,1,X V Q F H G B L J M P D K C T S W R N Z,5e99c5be1a0c87028c125183,23,Mężczyzna,2022-06-11_09h42.38.260,task,2021.1.4,Win32,60.10337781,6299f149e92ead563fba08ef,62a446cf1eaae6b8a67b619a,,,,,,,,,,,,,,,,,,,,,,,,,,,,,,,,,,,,,,,,,,,,,,,,,,,,,,,,,,,,,,,,,,,,,,,,,,,,,,,,,,,,,,,,,,,,,,,,,,,,,
,,,,,,3,0,3,0,1,X V Q F H G B L J M P D K C T S W R N Z,5e99c5be1a0c87028c125183,23,Mężczyzna,2022-06-11_09h42.38.260,task,2021.1.4,Win32,60.10337781,6299f149e92ead563fba08ef,62a446cf1eaae6b8a67b619a,,,,,,,,,,,,,,,,,,,,,,,,,,,,,,,,,,,,,,,,,,,,,,,,,,,,,,,,,,,,,,,,,,,,,,,,,,,,,,,,,,,,,,,,,,,,,,,,,,,,,
,,,,,,4,0,4,0,1,X V Q F H G B L J M P D K C T S W R N Z,5e99c5be1a0c87028c125183,23,Mężczyzna,2022-06-11_09h42.38.260,task,2021.1.4,Win32,60.10337781,6299f149e92ead563fba08ef,62a446cf1eaae6b8a67b619a,,,,,,,,,,,,,,,,,,,,,,,,,,,,,,,,,,,,,,,,,,,,,,,,,,,,,,,,,,,,,,,,,,,,,,,,,,,,,,,,,,,,,,,,,,,,,,,,,,,,,
,,,,,,5,0,5,0,1,X V Q F H G B L J M P D K C T S W R N Z,5e99c5be1a0c87028c125183,23,Mężczyzna,2022-06-11_09h42.38.260,task,2021.1.4,Win32,60.10337781,6299f149e92ead563fba08ef,62a446cf1eaae6b8a67b619a,,,,,,,,,,,,,,,,,,,,,,,,,,,,,,,,,,,,,,,,,,,,,,,,,,,,,,,,,,,,,,,,,,,,,,,,,,,,,,,,,,,,,,,,,,,,,,,,,,,,,
,,,,,,,,,,,,5e99c5be1a0c87028c125183,23,Mężczyzna,2022-06-11_09h42.38.260,task,2021.1.4,Win32,60.10337781,6299f149e92ead563fba08ef,62a446cf1eaae6b8a67b619a,fjxfkj,"[""f"",""j"",""x"",""f"",""k"",""j""]","[1.1539000000953479,1.4402000000476676,1.984499999999997,2.400999999999982,2.598299999952303,2.919299999952301,3.502900000095366]",1,FJXFKJ,9,0,9,0,1,,,,,,,,,,,,,,,,,,,,,,,,,,,,,,,,,,,,,,,,,,,,,,,,,,,,,,,,,,,,,,,,,,,,,,,,,,,,,,,,,,,,,,,,,,,
,,,,,,0,0,0,0,1,X V Q F H G B L J M P D K C T S W R N Z,5e99c5be1a0c87028c125183,23,Mężczyzna,2022-06-11_09h42.38.260,task,2021.1.4,Win32,60.10337781,6299f149e92ead563fba08ef,62a446cf1eaae6b8a67b619a,,,,,,,,,,,,,,,,,,,,,,,,,,,,,,,,,,,,,,,,,,,,,,,,,,,,,,,,,,,,,,,,,,,,,,,,,,,,,,,,,,,,,,,,,,,,,,,,,,,,,
,,,,,,1,0,1,0,1,X V Q F H G B L J M P D K C T S W R N Z,5e99c5be1a0c87028c125183,23,Mężczyzna,2022-06-11_09h42.38.260,task,2021.1.4,Win32,60.10337781,6299f149e92ead563fba08ef,62a446cf1eaae6b8a67b619a,,,,,,,,,,,,,,,,,,,,,,,,,,,,,,,,,,,,,,,,,,,,,,,,,,,,,,,,,,,,,,,,,,,,,,,,,,,,,,,,,,,,,,,,,,,,,,,,,,,,,
,,,,,,2,0,2,0,1,X V Q F H G B L J M P D K C T S W R N Z,5e99c5be1a0c87028c125183,23,Mężczyzna,2022-06-11_09h42.38.260,task,2021.1.4,Win32,60.10337781,6299f149e92ead563fba08ef,62a446cf1eaae6b8a67b619a,,,,,,,,,,,,,,,,,,,,,,,,,,,,,,,,,,,,,,,,,,,,,,,,,,,,,,,,,,,,,,,,,,,,,,,,,,,,,,,,,,,,,,,,,,,,,,,,,,,,,
,,,,,,3,0,3,0,1,X V Q F H G B L J M P D K C T S W R N Z,5e99c5be1a0c87028c125183,23,Mężczyzna,2022-06-11_09h42.38.260,task,2021.1.4,Win32,60.10337781,6299f149e92ead563fba08ef,62a446cf1eaae6b8a67b619a,,,,,,,,,,,,,,,,,,,,,,,,,,,,,,,,,,,,,,,,,,,,,,,,,,,,,,,,,,,,,,,,,,,,,,,,,,,,,,,,,,,,,,,,,,,,,,,,,,,,,
,,,,,,4,0,4,0,1,X V Q F H G B L J M P D K C T S W R N Z,5e99c5be1a0c87028c125183,23,Mężczyzna,2022-06-11_09h42.38.260,task,2021.1.4,Win32,60.10337781,6299f149e92ead563fba08ef,62a446cf1eaae6b8a67b619a,,,,,,,,,,,,,,,,,,,,,,,,,,,,,,,,,,,,,,,,,,,,,,,,,,,,,,,,,,,,,,,,,,,,,,,,,,,,,,,,,,,,,,,,,,,,,,,,,,,,,
,,,,,,5,0,5,0,1,X V Q F H G B L J M P D K C T S W R N Z,5e99c5be1a0c87028c125183,23,Mężczyzna,2022-06-11_09h42.38.260,task,2021.1.4,Win32,60.10337781,6299f149e92ead563fba08ef,62a446cf1eaae6b8a67b619a,,,,,,,,,,,,,,,,,,,,,,,,,,,,,,,,,,,,,,,,,,,,,,,,,,,,,,,,,,,,,,,,,,,,,,,,,,,,,,,,,,,,,,,,,,,,,,,,,,,,,
,,,,,,,,,,,,5e99c5be1a0c87028c125183,23,Mężczyzna,2022-06-11_09h42.38.260,task,2021.1.4,Win32,60.10337781,6299f149e92ead563fba08ef,62a446cf1eaae6b8a67b619a,pkvmtx,"[""p"",""k"",""v"",""m"",""t"",""x""]","[1.3267999999523,1.6415999999046278,2.049799999952313,2.3592999999522988,2.61889999985695,2.9809999999999945,3.4509999999999934]",1,PKVMTX,10,0,10,0,1,,,,,,,,,,,,,,,,,,,,,,,,,,,,,,,,,,,,,,,,,,,,,,,,,,,,,,,,,,,,,,,,,,,,,,,,,,,,,,,,,,,,,,,,,,,
,,,,,,0,0,0,0,1,X V Q F H G B L J M P D K C T S W R N Z,5e99c5be1a0c87028c125183,23,Mężczyzna,2022-06-11_09h42.38.260,task,2021.1.4,Win32,60.10337781,6299f149e92ead563fba08ef,62a446cf1eaae6b8a67b619a,,,,,,,,,,,,,,,,,,,,,,,,,,,,,,,,,,,,,,,,,,,,,,,,,,,,,,,,,,,,,,,,,,,,,,,,,,,,,,,,,,,,,,,,,,,,,,,,,,,,,
,,,,,,1,0,1,0,1,X V Q F H G B L J M P D K C T S W R N Z,5e99c5be1a0c87028c125183,23,Mężczyzna,2022-06-11_09h42.38.260,task,2021.1.4,Win32,60.10337781,6299f149e92ead563fba08ef,62a446cf1eaae6b8a67b619a,,,,,,,,,,,,,,,,,,,,,,,,,,,,,,,,,,,,,,,,,,,,,,,,,,,,,,,,,,,,,,,,,,,,,,,,,,,,,,,,,,,,,,,,,,,,,,,,,,,,,
,,,,,,2,0,2,0,1,X V Q F H G B L J M P D K C T S W R N Z,5e99c5be1a0c87028c125183,23,Mężczyzna,2022-06-11_09h42.38.260,task,2021.1.4,Win32,60.10337781,6299f149e92ead563fba08ef,62a446cf1eaae6b8a67b619a,,,,,,,,,,,,,,,,,,,,,,,,,,,,,,,,,,,,,,,,,,,,,,,,,,,,,,,,,,,,,,,,,,,,,,,,,,,,,,,,,,,,,,,,,,,,,,,,,,,,,
,,,,,,3,0,3,0,1,X V Q F H G B L J M P D K C T S W R N Z,5e99c5be1a0c87028c125183,23,Mężczyzna,2022-06-11_09h42.38.260,task,2021.1.4,Win32,60.10337781,6299f149e92ead563fba08ef,62a446cf1eaae6b8a67b619a,,,,,,,,,,,,,,,,,,,,,,,,,,,,,,,,,,,,,,,,,,,,,,,,,,,,,,,,,,,,,,,,,,,,,,,,,,,,,,,,,,,,,,,,,,,,,,,,,,,,,
,,,,,,4,0,4,0,1,X V Q F H G B L J M P D K C T S W R N Z,5e99c5be1a0c87028c125183,23,Mężczyzna,2022-06-11_09h42.38.260,task,2021.1.4,Win32,60.10337781,6299f149e92ead563fba08ef,62a446cf1eaae6b8a67b619a,,,,,,,,,,,,,,,,,,,,,,,,,,,,,,,,,,,,,,,,,,,,,,,,,,,,,,,,,,,,,,,,,,,,,,,,,,,,,,,,,,,,,,,,,,,,,,,,,,,,,
,,,,,,5,0,5,0,1,X V Q F H G B L J M P D K C T S W R N Z,5e99c5be1a0c87028c125183,23,Mężczyzna,2022-06-11_09h42.38.260,task,2021.1.4,Win32,60.10337781,6299f149e92ead563fba08ef,62a446cf1eaae6b8a67b619a,,,,,,,,,,,,,,,,,,,,,,,,,,,,,,,,,,,,,,,,,,,,,,,,,,,,,,,,,,,,,,,,,,,,,,,,,,,,,,,,,,,,,,,,,,,,,,,,,,,,,
,,,,,,6,0,6,0,1,X V Q F H G B L J M P D K C T S W R N Z,5e99c5be1a0c87028c125183,23,Mężczyzna,2022-06-11_09h42.38.260,task,2021.1.4,Win32,60.10337781,6299f149e92ead563fba08ef,62a446cf1eaae6b8a67b619a,,,,,,,,,,,,,,,,,,,,,,,,,,,,,,,,,,,,,,,,,,,,,,,,,,,,,,,,,,,,,,,,,,,,,,,,,,,,,,,,,,,,,,,,,,,,,,,,,,,,,
,,,,,,,,,,,,5e99c5be1a0c87028c125183,23,Mężczyzna,2022-06-11_09h42.38.260,task,2021.1.4,Win32,60.10337781,6299f149e92ead563fba08ef,62a446cf1eaae6b8a67b619a,dvcqphz,"[""d"",""v"",""c"",""q"",""p"",""h"",""z""]","[1.9524999999999864,2.7462999999522992,3.0830999999046185,3.4837000000476905,3.929099999904622,4.695200000047663,8.787299999952296,9.782499999999999]",0,DVCQTHP,11,0,11,0,1,,,,,,,,,,,,,,,,,,,,,,,,,,,,,,,,,,,,,,,,,,,,,,,,,,,,,,,,,,,,,,,,,,,,,,,,,,,,,,,,,,,,,,,,,,,
,,,,,,0,0,0,0,1,X V Q F H G B L J M P D K C T S W R N Z,5e99c5be1a0c87028c125183,23,Mężczyzna,2022-06-11_09h42.38.260,task,2021.1.4,Win32,60.10337781,6299f149e92ead563fba08ef,62a446cf1eaae6b8a67b619a,,,,,,,,,,,,,,,,,,,,,,,,,,,,,,,,,,,,,,,,,,,,,,,,,,,,,,,,,,,,,,,,,,,,,,,,,,,,,,,,,,,,,,,,,,,,,,,,,,,,,
,,,,,,1,0,1,0,1,X V Q F H G B L J M P D K C T S W R N Z,5e99c5be1a0c87028c125183,23,Mężczyzna,2022-06-11_09h42.38.260,task,2021.1.4,Win32,60.10337781,6299f149e92ead563fba08ef,62a446cf1eaae6b8a67b619a,,,,,,,,,,,,,,,,,,,,,,,,,,,,,,,,,,,,,,,,,,,,,,,,,,,,,,,,,,,,,,,,,,,,,,,,,,,,,,,,,,,,,,,,,,,,,,,,,,,,,
,,,,,,2,0,2,0,1,X V Q F H G B L J M P D K C T S W R N Z,5e99c5be1a0c87028c125183,23,Mężczyzna,2022-06-11_09h42.38.260,task,2021.1.4,Win32,60.10337781,6299f149e92ead563fba08ef,62a446cf1eaae6b8a67b619a,,,,,,,,,,,,,,,,,,,,,,,,,,,,,,,,,,,,,,,,,,,,,,,,,,,,,,,,,,,,,,,,,,,,,,,,,,,,,,,,,,,,,,,,,,,,,,,,,,,,,
,,,,,,3,0,3,0,1,X V Q F H G B L J M P D K C T S W R N Z,5e99c5be1a0c87028c125183,23,Mężczyzna,2022-06-11_09h42.38.260,task,2021.1.4,Win32,60.10337781,6299f149e92ead563fba08ef,62a446cf1eaae6b8a67b619a,,,,,,,,,,,,,,,,,,,,,,,,,,,,,,,,,,,,,,,,,,,,,,,,,,,,,,,,,,,,,,,,,,,,,,,,,,,,,,,,,,,,,,,,,,,,,,,,,,,,,
,,,,,,4,0,4,0,1,X V Q F H G B L J M P D K C T S W R N Z,5e99c5be1a0c87028c125183,23,Mężczyzna,2022-06-11_09h42.38.260,task,2021.1.4,Win32,60.10337781,6299f149e92ead563fba08ef,62a446cf1eaae6b8a67b619a,,,,,,,,,,,,,,,,,,,,,,,,,,,,,,,,,,,,,,,,,,,,,,,,,,,,,,,,,,,,,,,,,,,,,,,,,,,,,,,,,,,,,,,,,,,,,,,,,,,,,
,,,,,,5,0,5,0,1,X V Q F H G B L J M P D K C T S W R N Z,5e99c5be1a0c87028c125183,23,Mężczyzna,2022-06-11_09h42.38.260,task,2021.1.4,Win32,60.10337781,6299f149e92ead563fba08ef,62a446cf1eaae6b8a67b619a,,,,,,,,,,,,,,,,,,,,,,,,,,,,,,,,,,,,,,,,,,,,,,,,,,,,,,,,,,,,,,,,,,,,,,,,,,,,,,,,,,,,,,,,,,,,,,,,,,,,,
,,,,,,6,0,6,0,1,X V Q F H G B L J M P D K C T S W R N Z,5e99c5be1a0c87028c125183,23,Mężczyzna,2022-06-11_09h42.38.260,task,2021.1.4,Win32,60.10337781,6299f149e92ead563fba08ef,62a446cf1eaae6b8a67b619a,,,,,,,,,,,,,,,,,,,,,,,,,,,,,,,,,,,,,,,,,,,,,,,,,,,,,,,,,,,,,,,,,,,,,,,,,,,,,,,,,,,,,,,,,,,,,,,,,,,,,
,,,,,,,,,,,,5e99c5be1a0c87028c125183,23,Mężczyzna,2022-06-11_09h42.38.260,task,2021.1.4,Win32,60.10337781,6299f149e92ead563fba08ef,62a446cf1eaae6b8a67b619a,dhprtss,"[""d"",""h"",""p"",""r"",""t"",""s"",""s""]","[4.163200000047681,4.652000000000015,5.032299999952329,5.362000000000023,7.246000000000009,11.254299999952337,11.402700000047702,13.976399999856966]",0,DHPRXSS,12,0,12,0,1,,,,,,,,,,,,,,,,,,,,,,,,,,,,,,,,,,,,,,,,,,,,,,,,,,,,,,,,,,,,,,,,,,,,,,,,,,,,,,,,,,,,,,,,,,,
,,,,,,0,0,0,0,1,X V Q F H G B L J M P D K C T S W R N Z,5e99c5be1a0c87028c125183,23,Mężczyzna,2022-06-11_09h42.38.260,task,2021.1.4,Win32,60.10337781,6299f149e92ead563fba08ef,62a446cf1eaae6b8a67b619a,,,,,,,,,,,,,,,,,,,,,,,,,,,,,,,,,,,,,,,,,,,,,,,,,,,,,,,,,,,,,,,,,,,,,,,,,,,,,,,,,,,,,,,,,,,,,,,,,,,,,
,,,,,,1,0,1,0,1,X V Q F H G B L J M P D K C T S W R N Z,5e99c5be1a0c87028c125183,23,Mężczyzna,2022-06-11_09h42.38.260,task,2021.1.4,Win32,60.10337781,6299f149e92ead563fba08ef,62a446cf1eaae6b8a67b619a,,,,,,,,,,,,,,,,,,,,,,,,,,,,,,,,,,,,,,,,,,,,,,,,,,,,,,,,,,,,,,,,,,,,,,,,,,,,,,,,,,,,,,,,,,,,,,,,,,,,,
,,,,,,2,0,2,0,1,X V Q F H G B L J M P D K C T S W R N Z,5e99c5be1a0c87028c125183,23,Mężczyzna,2022-06-11_09h42.38.260,task,2021.1.4,Win32,60.10337781,6299f149e92ead563fba08ef,62a446cf1eaae6b8a67b619a,,,,,,,,,,,,,,,,,,,,,,,,,,,,,,,,,,,,,,,,,,,,,,,,,,,,,,,,,,,,,,,,,,,,,,,,,,,,,,,,,,,,,,,,,,,,,,,,,,,,,
,,,,,,3,0,3,0,1,X V Q F H G B L J M P D K C T S W R N Z,5e99c5be1a0c87028c125183,23,Mężczyzna,2022-06-11_09h42.38.260,task,2021.1.4,Win32,60.10337781,6299f149e92ead563fba08ef,62a446cf1eaae6b8a67b619a,,,,,,,,,,,,,,,,,,,,,,,,,,,,,,,,,,,,,,,,,,,,,,,,,,,,,,,,,,,,,,,,,,,,,,,,,,,,,,,,,,,,,,,,,,,,,,,,,,,,,
,,,,,,4,0,4,0,1,X V Q F H G B L J M P D K C T S W R N Z,5e99c5be1a0c87028c125183,23,Mężczyzna,2022-06-11_09h42.38.260,task,2021.1.4,Win32,60.10337781,6299f149e92ead563fba08ef,62a446cf1eaae6b8a67b619a,,,,,,,,,,,,,,,,,,,,,,,,,,,,,,,,,,,,,,,,,,,,,,,,,,,,,,,,,,,,,,,,,,,,,,,,,,,,,,,,,,,,,,,,,,,,,,,,,,,,,
,,,,,,5,0,5,0,1,X V Q F H G B L J M P D K C T S W R N Z,5e99c5be1a0c87028c125183,23,Mężczyzna,2022-06-11_09h42.38.260,task,2021.1.4,Win32,60.10337781,6299f149e92ead563fba08ef,62a446cf1eaae6b8a67b619a,,,,,,,,,,,,,,,,,,,,,,,,,,,,,,,,,,,,,,,,,,,,,,,,,,,,,,,,,,,,,,,,,,,,,,,,,,,,,,,,,,,,,,,,,,,,,,,,,,,,,
,,,,,,6,0,6,0,1,X V Q F H G B L J M P D K C T S W R N Z,5e99c5be1a0c87028c125183,23,Mężczyzna,2022-06-11_09h42.38.260,task,2021.1.4,Win32,60.10337781,6299f149e92ead563fba08ef,62a446cf1eaae6b8a67b619a,,,,,,,,,,,,,,,,,,,,,,,,,,,,,,,,,,,,,,,,,,,,,,,,,,,,,,,,,,,,,,,,,,,,,,,,,,,,,,,,,,,,,,,,,,,,,,,,,,,,,
,,,,,,,,,,,,5e99c5be1a0c87028c125183,23,Mężczyzna,2022-06-11_09h42.38.260,task,2021.1.4,Win32,60.10337781,6299f149e92ead563fba08ef,62a446cf1eaae6b8a67b619a,vwzbxbm,"[""v"",""w"",""z"",""b"",""x"",""b"",""m""]","[2.7627999999523354,3.1467999999523215,3.802600000143059,4.169200000047709,4.904000000000025,5.211200000047683,10.548700000047688,10.978700000047695]",1,VWZBXBM,13,0,13,0,1,,,,,,,,,,,,,,,,,,,,,,,,,,,,,,,,,,,,,,,,,,,,,,,,,,,,,,,,,,,,,,,,,,,,,,,,,,,,,,,,,,,,,,,,,,,
,,,,,,0,0,0,0,1,X V Q F H G B L J M P D K C T S W R N Z,5e99c5be1a0c87028c125183,23,Mężczyzna,2022-06-11_09h42.38.260,task,2021.1.4,Win32,60.10337781,6299f149e92ead563fba08ef,62a446cf1eaae6b8a67b619a,,,,,,,,,,,,,,,,,,,,,,,,,,,,,,,,,,,,,,,,,,,,,,,,,,,,,,,,,,,,,,,,,,,,,,,,,,,,,,,,,,,,,,,,,,,,,,,,,,,,,
,,,,,,1,0,1,0,1,X V Q F H G B L J M P D K C T S W R N Z,5e99c5be1a0c87028c125183,23,Mężczyzna,2022-06-11_09h42.38.260,task,2021.1.4,Win32,60.10337781,6299f149e92ead563fba08ef,62a446cf1eaae6b8a67b619a,,,,,,,,,,,,,,,,,,,,,,,,,,,,,,,,,,,,,,,,,,,,,,,,,,,,,,,,,,,,,,,,,,,,,,,,,,,,,,,,,,,,,,,,,,,,,,,,,,,,,
,,,,,,2,0,2,0,1,X V Q F H G B L J M P D K C T S W R N Z,5e99c5be1a0c87028c125183,23,Mężczyzna,2022-06-11_09h42.38.260,task,2021.1.4,Win32,60.10337781,6299f149e92ead563fba08ef,62a446cf1eaae6b8a67b619a,,,,,,,,,,,,,,,,,,,,,,,,,,,,,,,,,,,,,,,,,,,,,,,,,,,,,,,,,,,,,,,,,,,,,,,,,,,,,,,,,,,,,,,,,,,,,,,,,,,,,
,,,,,,3,0,3,0,1,X V Q F H G B L J M P D K C T S W R N Z,5e99c5be1a0c87028c125183,23,Mężczyzna,2022-06-11_09h42.38.260,task,2021.1.4,Win32,60.10337781,6299f149e92ead563fba08ef,62a446cf1eaae6b8a67b619a,,,,,,,,,,,,,,,,,,,,,,,,,,,,,,,,,,,,,,,,,,,,,,,,,,,,,,,,,,,,,,,,,,,,,,,,,,,,,,,,,,,,,,,,,,,,,,,,,,,,,
,,,,,,4,0,4,0,1,X V Q F H G B L J M P D K C T S W R N Z,5e99c5be1a0c87028c125183,23,Mężczyzna,2022-06-11_09h42.38.260,task,2021.1.4,Win32,60.10337781,6299f149e92ead563fba08ef,62a446cf1eaae6b8a67b619a,,,,,,,,,,,,,,,,,,,,,,,,,,,,,,,,,,,,,,,,,,,,,,,,,,,,,,,,,,,,,,,,,,,,,,,,,,,,,,,,,,,,,,,,,,,,,,,,,,,,,
,,,,,,5,0,5,0,1,X V Q F H G B L J M P D K C T S W R N Z,5e99c5be1a0c87028c125183,23,Mężczyzna,2022-06-11_09h42.38.260,task,2021.1.4,Win32,60.10337781,6299f149e92ead563fba08ef,62a446cf1eaae6b8a67b619a,,,,,,,,,,,,,,,,,,,,,,,,,,,,,,,,,,,,,,,,,,,,,,,,,,,,,,,,,,,,,,,,,,,,,,,,,,,,,,,,,,,,,,,,,,,,,,,,,,,,,
,,,,,,6,0,6,0,1,X V Q F H G B L J M P D K C T S W R N Z,5e99c5be1a0c87028c125183,23,Mężczyzna,2022-06-11_09h42.38.260,task,2021.1.4,Win32,60.10337781,6299f149e92ead563fba08ef,62a446cf1eaae6b8a67b619a,,,,,,,,,,,,,,,,,,,,,,,,,,,,,,,,,,,,,,,,,,,,,,,,,,,,,,,,,,,,,,,,,,,,,,,,,,,,,,,,,,,,,,,,,,,,,,,,,,,,,
,,,,,,,,,,,,5e99c5be1a0c87028c125183,23,Mężczyzna,2022-06-11_09h42.38.260,task,2021.1.4,Win32,60.10337781,6299f149e92ead563fba08ef,62a446cf1eaae6b8a67b619a,bbqrfbg,"[""b"",""b"",""q"",""r"",""f"",""b"",""g""]","[1.6872999999523302,1.901700000047697,2.9952000000476744,3.3457000000476853,4.728900000095365,4.920999999999992,5.066900000095359,6.960599999904645]",1,BBQRFBG,14,0,14,0,1,,,,,,,,,,,,,,,,,,,,,,,,,,,,,,,,,,,,,,,,,,,,,,,,,,,,,,,,,,,,,,,,,,,,,,,,,,,,,,,,,,,,,,,,,,,
,,,,,,0,0,0,0,1,X V Q F H G B L J M P D K C T S W R N Z,5e99c5be1a0c87028c125183,23,Mężczyzna,2022-06-11_09h42.38.260,task,2021.1.4,Win32,60.10337781,6299f149e92ead563fba08ef,62a446cf1eaae6b8a67b619a,,,,,,,,,,,,,,,,,,,,,,,,,,,,,,,,,,,,,,,,,,,,,,,,,,,,,,,,,,,,,,,,,,,,,,,,,,,,,,,,,,,,,,,,,,,,,,,,,,,,,
,,,,,,1,0,1,0,1,X V Q F H G B L J M P D K C T S W R N Z,5e99c5be1a0c87028c125183,23,Mężczyzna,2022-06-11_09h42.38.260,task,2021.1.4,Win32,60.10337781,6299f149e92ead563fba08ef,62a446cf1eaae6b8a67b619a,,,,,,,,,,,,,,,,,,,,,,,,,,,,,,,,,,,,,,,,,,,,,,,,,,,,,,,,,,,,,,,,,,,,,,,,,,,,,,,,,,,,,,,,,,,,,,,,,,,,,
,,,,,,2,0,2,0,1,X V Q F H G B L J M P D K C T S W R N Z,5e99c5be1a0c87028c125183,23,Mężczyzna,2022-06-11_09h42.38.260,task,2021.1.4,Win32,60.10337781,6299f149e92ead563fba08ef,62a446cf1eaae6b8a67b619a,,,,,,,,,,,,,,,,,,,,,,,,,,,,,,,,,,,,,,,,,,,,,,,,,,,,,,,,,,,,,,,,,,,,,,,,,,,,,,,,,,,,,,,,,,,,,,,,,,,,,
,,,,,,3,0,3,0,1,X V Q F H G B L J M P D K C T S W R N Z,5e99c5be1a0c87028c125183,23,Mężczyzna,2022-06-11_09h42.38.260,task,2021.1.4,Win32,60.10337781,6299f149e92ead563fba08ef,62a446cf1eaae6b8a67b619a,,,,,,,,,,,,,,,,,,,,,,,,,,,,,,,,,,,,,,,,,,,,,,,,,,,,,,,,,,,,,,,,,,,,,,,,,,,,,,,,,,,,,,,,,,,,,,,,,,,,,
,,,,,,4,0,4,0,1,X V Q F H G B L J M P D K C T S W R N Z,5e99c5be1a0c87028c125183,23,Mężczyzna,2022-06-11_09h42.38.260,task,2021.1.4,Win32,60.10337781,6299f149e92ead563fba08ef,62a446cf1eaae6b8a67b619a,,,,,,,,,,,,,,,,,,,,,,,,,,,,,,,,,,,,,,,,,,,,,,,,,,,,,,,,,,,,,,,,,,,,,,,,,,,,,,,,,,,,,,,,,,,,,,,,,,,,,
,,,,,,5,0,5,0,1,X V Q F H G B L J M P D K C T S W R N Z,5e99c5be1a0c87028c125183,23,Mężczyzna,2022-06-11_09h42.38.260,task,2021.1.4,Win32,60.10337781,6299f149e92ead563fba08ef,62a446cf1eaae6b8a67b619a,,,,,,,,,,,,,,,,,,,,,,,,,,,,,,,,,,,,,,,,,,,,,,,,,,,,,,,,,,,,,,,,,,,,,,,,,,,,,,,,,,,,,,,,,,,,,,,,,,,,,
,,,,,,6,0,6,0,1,X V Q F H G B L J M P D K C T S W R N Z,5e99c5be1a0c87028c125183,23,Mężczyzna,2022-06-11_09h42.38.260,task,2021.1.4,Win32,60.10337781,6299f149e92ead563fba08ef,62a446cf1eaae6b8a67b619a,,,,,,,,,,,,,,,,,,,,,,,,,,,,,,,,,,,,,,,,,,,,,,,,,,,,,,,,,,,,,,,,,,,,,,,,,,,,,,,,,,,,,,,,,,,,,,,,,,,,,
,,,,,,7,0,7,0,1,X V Q F H G B L J M P D K C T S W R N Z,5e99c5be1a0c87028c125183,23,Mężczyzna,2022-06-11_09h42.38.260,task,2021.1.4,Win32,60.10337781,6299f149e92ead563fba08ef,62a446cf1eaae6b8a67b619a,,,,,,,,,,,,,,,,,,,,,,,,,,,,,,,,,,,,,,,,,,,,,,,,,,,,,,,,,,,,,,,,,,,,,,,,,,,,,,,,,,,,,,,,,,,,,,,,,,,,,
,,,,,,,,,,,,5e99c5be1a0c87028c125183,23,Mężczyzna,2022-06-11_09h42.38.260,task,2021.1.4,Win32,60.10337781,6299f149e92ead563fba08ef,62a446cf1eaae6b8a67b619a,scfhpvhc,"[""s"",""c"",""f"",""h"",""p"",""v"",""h"",""c""]","[1.7617999999523022,2.0945999999046307,2.738299999952318,4.2254999999999825,5.369199999809268,7.093699999809246,7.761899999856951,7.960499999999996,8.797599999904634]",0,SCHVFPHX,15,0,15,0,1,,,,,,,,,,,,,,,,,,,,,,,,,,,,,,,,,,,,,,,,,,,,,,,,,,,,,,,,,,,,,,,,,,,,,,,,,,,,,,,,,,,,,,,,,,,
,,,,,,0,0,0,0,1,X V Q F H G B L J M P D K C T S W R N Z,5e99c5be1a0c87028c125183,23,Mężczyzna,2022-06-11_09h42.38.260,task,2021.1.4,Win32,60.10337781,6299f149e92ead563fba08ef,62a446cf1eaae6b8a67b619a,,,,,,,,,,,,,,,,,,,,,,,,,,,,,,,,,,,,,,,,,,,,,,,,,,,,,,,,,,,,,,,,,,,,,,,,,,,,,,,,,,,,,,,,,,,,,,,,,,,,,
,,,,,,1,0,1,0,1,X V Q F H G B L J M P D K C T S W R N Z,5e99c5be1a0c87028c125183,23,Mężczyzna,2022-06-11_09h42.38.260,task,2021.1.4,Win32,60.10337781,6299f149e92ead563fba08ef,62a446cf1eaae6b8a67b619a,,,,,,,,,,,,,,,,,,,,,,,,,,,,,,,,,,,,,,,,,,,,,,,,,,,,,,,,,,,,,,,,,,,,,,,,,,,,,,,,,,,,,,,,,,,,,,,,,,,,,
,,,,,,2,0,2,0,1,X V Q F H G B L J M P D K C T S W R N Z,5e99c5be1a0c87028c125183,23,Mężczyzna,2022-06-11_09h42.38.260,task,2021.1.4,Win32,60.10337781,6299f149e92ead563fba08ef,62a446cf1eaae6b8a67b619a,,,,,,,,,,,,,,,,,,,,,,,,,,,,,,,,,,,,,,,,,,,,,,,,,,,,,,,,,,,,,,,,,,,,,,,,,,,,,,,,,,,,,,,,,,,,,,,,,,,,,
,,,,,,3,0,3,0,1,X V Q F H G B L J M P D K C T S W R N Z,5e99c5be1a0c87028c125183,23,Mężczyzna,2022-06-11_09h42.38.260,task,2021.1.4,Win32,60.10337781,6299f149e92ead563fba08ef,62a446cf1eaae6b8a67b619a,,,,,,,,,,,,,,,,,,,,,,,,,,,,,,,,,,,,,,,,,,,,,,,,,,,,,,,,,,,,,,,,,,,,,,,,,,,,,,,,,,,,,,,,,,,,,,,,,,,,,
,,,,,,4,0,4,0,1,X V Q F H G B L J M P D K C T S W R N Z,5e99c5be1a0c87028c125183,23,Mężczyzna,2022-06-11_09h42.38.260,task,2021.1.4,Win32,60.10337781,6299f149e92ead563fba08ef,62a446cf1eaae6b8a67b619a,,,,,,,,,,,,,,,,,,,,,,,,,,,,,,,,,,,,,,,,,,,,,,,,,,,,,,,,,,,,,,,,,,,,,,,,,,,,,,,,,,,,,,,,,,,,,,,,,,,,,
,,,,,,5,0,5,0,1,X V Q F H G B L J M P D K C T S W R N Z,5e99c5be1a0c87028c125183,23,Mężczyzna,2022-06-11_09h42.38.260,task,2021.1.4,Win32,60.10337781,6299f149e92ead563fba08ef,62a446cf1eaae6b8a67b619a,,,,,,,,,,,,,,,,,,,,,,,,,,,,,,,,,,,,,,,,,,,,,,,,,,,,,,,,,,,,,,,,,,,,,,,,,,,,,,,,,,,,,,,,,,,,,,,,,,,,,
,,,,,,6,0,6,0,1,X V Q F H G B L J M P D K C T S W R N Z,5e99c5be1a0c87028c125183,23,Mężczyzna,2022-06-11_09h42.38.260,task,2021.1.4,Win32,60.10337781,6299f149e92ead563fba08ef,62a446cf1eaae6b8a67b619a,,,,,,,,,,,,,,,,,,,,,,,,,,,,,,,,,,,,,,,,,,,,,,,,,,,,,,,,,,,,,,,,,,,,,,,,,,,,,,,,,,,,,,,,,,,,,,,,,,,,,
,,,,,,7,0,7,0,1,X V Q F H G B L J M P D K C T S W R N Z,5e99c5be1a0c87028c125183,23,Mężczyzna,2022-06-11_09h42.38.260,task,2021.1.4,Win32,60.10337781,6299f149e92ead563fba08ef,62a446cf1eaae6b8a67b619a,,,,,,,,,,,,,,,,,,,,,,,,,,,,,,,,,,,,,,,,,,,,,,,,,,,,,,,,,,,,,,,,,,,,,,,,,,,,,,,,,,,,,,,,,,,,,,,,,,,,,
,,,,,,,,,,,,5e99c5be1a0c87028c125183,23,Mężczyzna,2022-06-11_09h42.38.260,task,2021.1.4,Win32,60.10337781,6299f149e92ead563fba08ef,62a446cf1eaae6b8a67b619a,bbgcfrj,"[""b"",""b"",""g"",""c"",""f"",""r"",""j""]","[1.7183999998569561,1.927500000000009,2.6948999998569434,3.0943999998569325,3.694399999856955,8.754799999952297,8.868599999904632,9.19170000004766]",0,BBGCFTRJ,16,0,16,0,1,,,,,,,,,,,,,,,,,,,,,,,,,,,,,,,,,,,,,,,,,,,,,,,,,,,,,,,,,,,,,,,,,,,,,,,,,,,,,,,,,,,,,,,,,,,
,,,,,,0,0,0,0,1,X V Q F H G B L J M P D K C T S W R N Z,5e99c5be1a0c87028c125183,23,Mężczyzna,2022-06-11_09h42.38.260,task,2021.1.4,Win32,60.10337781,6299f149e92ead563fba08ef,62a446cf1eaae6b8a67b619a,,,,,,,,,,,,,,,,,,,,,,,,,,,,,,,,,,,,,,,,,,,,,,,,,,,,,,,,,,,,,,,,,,,,,,,,,,,,,,,,,,,,,,,,,,,,,,,,,,,,,
,,,,,,1,0,1,0,1,X V Q F H G B L J M P D K C T S W R N Z,5e99c5be1a0c87028c125183,23,Mężczyzna,2022-06-11_09h42.38.260,task,2021.1.4,Win32,60.10337781,6299f149e92ead563fba08ef,62a446cf1eaae6b8a67b619a,,,,,,,,,,,,,,,,,,,,,,,,,,,,,,,,,,,,,,,,,,,,,,,,,,,,,,,,,,,,,,,,,,,,,,,,,,,,,,,,,,,,,,,,,,,,,,,,,,,,,
,,,,,,2,0,2,0,1,X V Q F H G B L J M P D K C T S W R N Z,5e99c5be1a0c87028c125183,23,Mężczyzna,2022-06-11_09h42.38.260,task,2021.1.4,Win32,60.10337781,6299f149e92ead563fba08ef,62a446cf1eaae6b8a67b619a,,,,,,,,,,,,,,,,,,,,,,,,,,,,,,,,,,,,,,,,,,,,,,,,,,,,,,,,,,,,,,,,,,,,,,,,,,,,,,,,,,,,,,,,,,,,,,,,,,,,,
,,,,,,3,0,3,0,1,X V Q F H G B L J M P D K C T S W R N Z,5e99c5be1a0c87028c125183,23,Mężczyzna,2022-06-11_09h42.38.260,task,2021.1.4,Win32,60.10337781,6299f149e92ead563fba08ef,62a446cf1eaae6b8a67b619a,,,,,,,,,,,,,,,,,,,,,,,,,,,,,,,,,,,,,,,,,,,,,,,,,,,,,,,,,,,,,,,,,,,,,,,,,,,,,,,,,,,,,,,,,,,,,,,,,,,,,
,,,,,,4,0,4,0,1,X V Q F H G B L J M P D K C T S W R N Z,5e99c5be1a0c87028c125183,23,Mężczyzna,2022-06-11_09h42.38.260,task,2021.1.4,Win32,60.10337781,6299f149e92ead563fba08ef,62a446cf1eaae6b8a67b619a,,,,,,,,,,,,,,,,,,,,,,,,,,,,,,,,,,,,,,,,,,,,,,,,,,,,,,,,,,,,,,,,,,,,,,,,,,,,,,,,,,,,,,,,,,,,,,,,,,,,,
,,,,,,5,0,5,0,1,X V Q F H G B L J M P D K C T S W R N Z,5e99c5be1a0c87028c125183,23,Mężczyzna,2022-06-11_09h42.38.260,task,2021.1.4,Win32,60.10337781,6299f149e92ead563fba08ef,62a446cf1eaae6b8a67b619a,,,,,,,,,,,,,,,,,,,,,,,,,,,,,,,,,,,,,,,,,,,,,,,,,,,,,,,,,,,,,,,,,,,,,,,,,,,,,,,,,,,,,,,,,,,,,,,,,,,,,
,,,,,,6,0,6,0,1,X V Q F H G B L J M P D K C T S W R N Z,5e99c5be1a0c87028c125183,23,Mężczyzna,2022-06-11_09h42.38.260,task,2021.1.4,Win32,60.10337781,6299f149e92ead563fba08ef,62a446cf1eaae6b8a67b619a,,,,,,,,,,,,,,,,,,,,,,,,,,,,,,,,,,,,,,,,,,,,,,,,,,,,,,,,,,,,,,,,,,,,,,,,,,,,,,,,,,,,,,,,,,,,,,,,,,,,,
,,,,,,7,0,7,0,1,X V Q F H G B L J M P D K C T S W R N Z,5e99c5be1a0c87028c125183,23,Mężczyzna,2022-06-11_09h42.38.260,task,2021.1.4,Win32,60.10337781,6299f149e92ead563fba08ef,62a446cf1eaae6b8a67b619a,,,,,,,,,,,,,,,,,,,,,,,,,,,,,,,,,,,,,,,,,,,,,,,,,,,,,,,,,,,,,,,,,,,,,,,,,,,,,,,,,,,,,,,,,,,,,,,,,,,,,
,,,,,,,,,,,,5e99c5be1a0c87028c125183,23,Mężczyzna,2022-06-11_09h42.38.260,task,2021.1.4,Win32,60.10337781,6299f149e92ead563fba08ef,62a446cf1eaae6b8a67b619a,bkjvcrk,"[""b"",""k"",""j"",""v"",""c"",""r"",""k""]","[1.449400000095352,1.9312000000476814,3.912200000047676,4.211800000190692,4.477999999999952,6.911700000047631,8.178200000047639,9.02640000009535]",0,BKJVCRZB,17,0,17,0,1,,,,,,,,,,,,,,,,,,,,,,,,,,,,,,,,,,,,,,,,,,,,,,,,,,,,,,,,,,,,,,,,,,,,,,,,,,,,,,,,,,,,,,,,,,,
,,,,,,,,,,,,5e99c5be1a0c87028c125183,23,Mężczyzna,2022-06-11_09h42.38.260,task,2021.1.4,Win32,60.10337781,6299f149e92ead563fba08ef,62a446cf1eaae6b8a67b619a,,,,,,,,,,,space,7.5112,2,"[""2""]",1,[4.433400000095389],[4.433400000095389],0,0,0,2,1,Practice,3,(4x4) - 14,2,,,,,,,,,,,,,,,,,,,,,,,,,,,,,,,,,,,,,,,,,,,,,,,,,,,,,,,,,,,,,,,,,,,,,,,,,,,
,,,,,,,,,,,,5e99c5be1a0c87028c125183,23,Mężczyzna,2022-06-11_09h42.38.260,task,2021.1.4,Win32,60.10337781,6299f149e92ead563fba08ef,62a446cf1eaae6b8a67b619a,,,,,,,,,,,,,9,"[""9""]",1,[2.7110000000000127],"[4.433400000095389,2.7110000000000127]",0,1,1,9,1,Practice,10,(20/2) - 1,9,,,,,,,,,,,,,,,,,,,,,,,,,,,,,,,,,,,,,,,,,,,,,,,,,,,,,,,,,,,,,,,,,,,,,,,,,,,
,,,,,,,,,,,,5e99c5be1a0c87028c125183,23,Mężczyzna,2022-06-11_09h42.38.260,task,2021.1.4,Win32,60.10337781,6299f149e92ead563fba08ef,62a446cf1eaae6b8a67b619a,,,,,,,,,,,,,6,"[""6""]",1,[2.7588999998569648],"[4.433400000095389,2.7110000000000127,2.7588999998569648]",0,2,2,6,1,Practice,7,(25/5) + 1,6,,,,,,,,,,,,,,,,,,,,,,,,,,,,,,,,,,,,,,,,,,,,,,,,,,,,,,,,,,,,,,,,,,,,,,,,,,,
,,,,,,,,,,,,5e99c5be1a0c87028c125183,23,Mężczyzna,2022-06-11_09h42.38.260,task,2021.1.4,Win32,60.10337781,6299f149e92ead563fba08ef,62a446cf1eaae6b8a67b619a,,,,,,,,,,,,,8,"[""8""]",1,[2.180999999999983],"[4.433400000095389,2.7110000000000127,2.7588999998569648,2.180999999999983]",0,3,3,8,1,Practice,9,(3x3) - 1,8,,,,,,,,,,,,,,,,,,,,,,,,,,,,,,,,,,,,,,,,,,,,,,,,,,,,,,,,,,,,,,,,,,,,,,,,,,,
,,,,,,,,,,,,5e99c5be1a0c87028c125183,23,Mężczyzna,2022-06-11_09h42.38.260,task,2021.1.4,Win32,60.10337781,6299f149e92ead563fba08ef,62a446cf1eaae6b8a67b619a,,,,,,,,,,,,,5,"[""5""]",1,[5.094900000095322],"[4.433400000095389,2.7110000000000127,2.7588999998569648,2.180999999999983,5.094900000095322]",0,4,4,5,1,Practice,6,(4/2) + 3,5,,,,,,,,,,,,,,,,,,,,,,,,,,,,,,,,,,,,,,,,,,,,,,,,,,,,,,,,,,,,,,,,,,,,,,,,,,,
,,,,,,,,,,,,5e99c5be1a0c87028c125183,23,Mężczyzna,2022-06-11_09h42.38.260,task,2021.1.4,Win32,60.10337781,6299f149e92ead563fba08ef,62a446cf1eaae6b8a67b619a,,,,,,,,,,,,,0,"[""0""]",1,[2.2961999998092892],"[4.433400000095389,2.7110000000000127,2.7588999998569648,2.180999999999983,5.094900000095322,2.2961999998092892]",0,5,5,0,1,Practice,1,(3x3) -  9,0,,,,,,,,,,,,,,,,,,,,,,,,,,,,,,,,,,,,,,,,,,,,,,,,,,,,,,,,,,,,,,,,,,,,,,,,,,,
,,,,,,,,,,,,5e99c5be1a0c87028c125183,23,Mężczyzna,2022-06-11_09h42.38.260,task,2021.1.4,Win32,60.10337781,6299f149e92ead563fba08ef,62a446cf1eaae6b8a67b619a,,,,,,,,,,,,,3,"[""3""]",1,[1.9439000000953683],"[4.433400000095389,2.7110000000000127,2.7588999998569648,2.180999999999983,5.094900000095322,2.2961999998092892,1.9439000000953683]",0,6,6,3,1,Practice,4,(8/4) + 1,3,,,,,,,,,,,,,,,,,,,,,,,,,,,,,,,,,,,,,,,,,,,,,,,,,,,,,,,,,,,,,,,,,,,,,,,,,,,
,,,,,,,,,,,,5e99c5be1a0c87028c125183,23,Mężczyzna,2022-06-11_09h42.38.260,task,2021.1.4,Win32,60.10337781,6299f149e92ead563fba08ef,62a446cf1eaae6b8a67b619a,,,,,,,,,,,,,7,"[""7""]",1,[3.0200999999046303],"[4.433400000095389,2.7110000000000127,2.7588999998569648,2.180999999999983,5.094900000095322,2.2961999998092892,1.9439000000953683,3.0200999999046303]",0,7,7,7,1,Practice,8,(5x5) - 18,7,,,,,,,,,,,,,,,,,,,,,,,,,,,,,,,,,,,,,,,,,,,,,,,,,,,,,,,,,,,,,,,,,,,,,,,,,,,
,,,,,,,,,,,,5e99c5be1a0c87028c125183,23,Mężczyzna,2022-06-11_09h42.38.260,task,2021.1.4,Win32,60.10337781,6299f149e92ead563fba08ef,62a446cf1eaae6b8a67b619a,,,,,,,,,,,,,4,"[""4""]",1,[2.4643000001907467],"[4.433400000095389,2.7110000000000127,2.7588999998569648,2.180999999999983,5.094900000095322,2.2961999998092892,1.9439000000953683,3.0200999999046303,2.4643000001907467]",0,8,8,4,1,Practice,5,(2x6) - 8,4,,,,,,,,,,,,,,,,,,,,,,,,,,,,,,,,,,,,,,,,,,,,,,,,,,,,,,,,,,,,,,,,,,,,,,,,,,,
,,,,,,,,,,,,5e99c5be1a0c87028c125183,23,Mężczyzna,2022-06-11_09h42.38.260,task,2021.1.4,Win32,60.10337781,6299f149e92ead563fba08ef,62a446cf1eaae6b8a67b619a,,,,,,,,,,,,,1,"[""1""]",1,[2.378200000047684],"[4.433400000095389,2.7110000000000127,2.7588999998569648,2.180999999999983,5.094900000095322,2.2961999998092892,1.9439000000953683,3.0200999999046303,2.4643000001907467,2.378200000047684]",0,9,9,1,1,Practice,2,(4x4) - 15,1,,,,,,,,,,,,,,,,,,,,,,,,,,,,,,,,,,,,,,,,,,,,,,,,,,,,,,,,,,,,,,,,,,,,,,,,,,,
,,,,,,,,,,,,5e99c5be1a0c87028c125183,23,Mężczyzna,2022-06-11_09h42.38.260,task,2021.1.4,Win32,60.10337781,6299f149e92ead563fba08ef,62a446cf1eaae6b8a67b619a,,,,,,,,,,,,,,,,,,,,,,,,,,,1,29.2819,1.952126667,19.01577772,1.125930066,4.857026238,space,1.6347,0,0,0,0,1,,,,,,,,,,,,,,,,,,,,,,,,,,,,,,,,,,,,,,,,,,,,,,,,,,,,,,,,,,,,,,
,,,,,,,,,,,,5e99c5be1a0c87028c125183,23,Mężczyzna,2022-06-11_09h42.38.260,task,2021.1.4,Win32,60.10337781,6299f149e92ead563fba08ef,62a446cf1eaae6b8a67b619a,,,,,,,,,,,,,0,,,,,,,,,,Practice,1,(3x3) -  9,0,,,,,,,,,,,,,,space,11.5688,"[""0""]",1,[1.6398999998569366],1,0,0,0,0,1,,,,,,,,,,,,,,,,,,,,,,,,,,,,,,,,,,,,,,,,,,,,,,,,,,,
,,,,,,,,,,,X V Q F H G B L J M P D K C T S W R N Z,5e99c5be1a0c87028c125183,23,Mężczyzna,2022-06-11_09h42.38.260,task,2021.1.4,Win32,60.10337781,6299f149e92ead563fba08ef,62a446cf1eaae6b8a67b619a,,,,,,,,,,,,,,,,,,,,,,,,,,,,,,,,,,,,,,,,,,,,,,,,,,,0,0,0,0,1,,,,,,,,,,,,,,,,,,,,,,,,,,,,,,,,,,,,,,,,,,,,,,
,,,,,,,,,,,,5e99c5be1a0c87028c125183,23,Mężczyzna,2022-06-11_09h42.38.260,task,2021.1.4,Win32,60.10337781,6299f149e92ead563fba08ef,62a446cf1eaae6b8a67b619a,,,,,,,,,,,,,3,,,,,,,,,,Practice,4,(8/4) + 1,3,,,,,,,,,,,,,,,,"[""3""]",1,[2.0767999999523],1,0,0,0,3,1,,,,,,,,,,,,,,,,,,,,,,,,,,,,,,,,,,,,,,,,,,,,,,,,,,,
,,,,,,,,,,,X V Q F H G B L J M P D K C T S W R N Z,5e99c5be1a0c87028c125183,23,Mężczyzna,2022-06-11_09h42.38.260,task,2021.1.4,Win32,60.10337781,6299f149e92ead563fba08ef,62a446cf1eaae6b8a67b619a,,,,,,,,,,,,,,,,,,,,,,,,,,,,,,,,,,,,,,,,,,,,,,,,,,,1,0,1,0,1,,,,,,,,,,,,,,,,,,,,,,,,,,,,,,,,,,,,,,,,,,,,,,
,,,,,,,,,,,,5e99c5be1a0c87028c125183,23,Mężczyzna,2022-06-11_09h42.38.260,task,2021.1.4,Win32,60.10337781,6299f149e92ead563fba08ef,62a446cf1eaae6b8a67b619a,,,,,,,,,,,,,,,,,,,,,,,,,,,,,,,,,,,,,,,,,,,,,,,,,,,,,,,,zh,"[""z"",""h""]",0,"[1.95120000004772,2.2141000001430484,3.4711000001430534]",1,0,0,0,0,1,,,,,,,,,,,,,,,,,,,,,,,,,,,,,,,,,,,,
,,,,,,,,,,,,5e99c5be1a0c87028c125183,23,Mężczyzna,2022-06-11_09h42.38.260,task,2021.1.4,Win32,60.10337781,6299f149e92ead563fba08ef,62a446cf1eaae6b8a67b619a,,,,,,,,,,,,,4,,,,,,,,,,Practice,5,(2x6) - 8,4,,,,,,,,,,,,,,,,"[""4""]",1,[3.6609000000954097],1,0,0,0,4,1,,,,,,,,,,,,,,,,,,,,,,,,,,,,,,,,,,,,,,,,,,,,,,,,,,,
,,,,,,,,,,,X V Q F H G B L J M P D K C T S W R N Z,5e99c5be1a0c87028c125183,23,Mężczyzna,2022-06-11_09h42.38.260,task,2021.1.4,Win32,60.10337781,6299f149e92ead563fba08ef,62a446cf1eaae6b8a67b619a,,,,,,,,,,,,,,,,,,,,,,,,,,,,,,,,,,,,,,,,,,,,,,,,,,,0,0,0,0,1,,,,,,,,,,,,,,,,,,,,,,,,,,,,,,,,,,,,,,,,,,,,,,
,,,,,,,,,,,,5e99c5be1a0c87028c125183,23,Mężczyzna,2022-06-11_09h42.38.260,task,2021.1.4,Win32,60.10337781,6299f149e92ead563fba08ef,62a446cf1eaae6b8a67b619a,,,,,,,,,,,,,2,,,,,,,,,,Practice,3,(4x4) - 14,2,,,,,,,,,,,,,,,,"[""2""]",1,[2.0299000000953242],1,0,0,0,2,1,,,,,,,,,,,,,,,,,,,,,,,,,,,,,,,,,,,,,,,,,,,,,,,,,,,
,,,,,,,,,,,X V Q F H G B L J M P D K C T S W R N Z,5e99c5be1a0c87028c125183,23,Mężczyzna,2022-06-11_09h42.38.260,task,2021.1.4,Win32,60.10337781,6299f149e92ead563fba08ef,62a446cf1eaae6b8a67b619a,,,,,,,,,,,,,,,,,,,,,,,,,,,,,,,,,,,,,,,,,,,,,,,,,,,1,0,1,0,1,,,,,,,,,,,,,,,,,,,,,,,,,,,,,,,,,,,,,,,,,,,,,,
,,,,,,,,,,,,5e99c5be1a0c87028c125183,23,Mężczyzna,2022-06-11_09h42.38.260,task,2021.1.4,Win32,60.10337781,6299f149e92ead563fba08ef,62a446cf1eaae6b8a67b619a,,,,,,,,,,,,,,,,,,,,,,,,,,,,,,,,,,,,,,,,,,,,,,,,,,,,,,,,gd,"[""g"",""d""]",0,"[1.4990000000000236,1.74970000004771,2.7154000000953715]",1,1,0,1,0,1,,,,,,,,,,,,,,,,,,,,,,,,,,,,,,,,,,,,
,,,,,,,,,,,,5e99c5be1a0c87028c125183,23,Mężczyzna,2022-06-11_09h42.38.260,task,2021.1.4,Win32,60.10337781,6299f149e92ead563fba08ef,62a446cf1eaae6b8a67b619a,,,,,,,,,,,,,4,,,,,,,,,,Practice,5,(2x6) - 8,4,,,,,,,,,,,,,,,,"[""4""]",1,[2.0982000000477115],1,0,0,0,4,1,,,,,,,,,,,,,,,,,,,,,,,,,,,,,,,,,,,,,,,,,,,,,,,,,,,
,,,,,,,,,,,X V Q F H G B L J M P D K C T S W R N Z,5e99c5be1a0c87028c125183,23,Mężczyzna,2022-06-11_09h42.38.260,task,2021.1.4,Win32,60.10337781,6299f149e92ead563fba08ef,62a446cf1eaae6b8a67b619a,,,,,,,,,,,,,,,,,,,,,,,,,,,,,,,,,,,,,,,,,,,,,,,,,,,0,0,0,0,1,,,,,,,,,,,,,,,,,,,,,,,,,,,,,,,,,,,,,,,,,,,,,,
,,,,,,,,,,,,5e99c5be1a0c87028c125183,23,Mężczyzna,2022-06-11_09h42.38.260,task,2021.1.4,Win32,60.10337781,6299f149e92ead563fba08ef,62a446cf1eaae6b8a67b619a,,,,,,,,,,,,,9,,,,,,,,,,Practice,10,(20/2) - 1,9,,,,,,,,,,,,,,,,"[""9""]",1,[1.640299999952333],1,0,0,0,9,1,,,,,,,,,,,,,,,,,,,,,,,,,,,,,,,,,,,,,,,,,,,,,,,,,,,
,,,,,,,,,,,X V Q F H G B L J M P D K C T S W R N Z,5e99c5be1a0c87028c125183,23,Mężczyzna,2022-06-11_09h42.38.260,task,2021.1.4,Win32,60.10337781,6299f149e92ead563fba08ef,62a446cf1eaae6b8a67b619a,,,,,,,,,,,,,,,,,,,,,,,,,,,,,,,,,,,,,,,,,,,,,,,,,,,1,0,1,0,1,,,,,,,,,,,,,,,,,,,,,,,,,,,,,,,,,,,,,,,,,,,,,,
,,,,,,,,,,,,5e99c5be1a0c87028c125183,23,Mężczyzna,2022-06-11_09h42.38.260,task,2021.1.4,Win32,60.10337781,6299f149e92ead563fba08ef,62a446cf1eaae6b8a67b619a,,,,,,,,,,,,,,,,,,,,,,,,,,,,,,,,,,,,,,,,,,,,,,,,,,,,,,,,qs,"[""q"",""s""]",0,"[2.0332999999523054,2.532299999952329,2.7709000000953665]",1,2,0,2,0,1,,,,,,,,,,,,,,,,,,,,,,,,,,,,,,,,,,,,
,,,,,,,,,,,,5e99c5be1a0c87028c125183,23,Mężczyzna,2022-06-11_09h42.38.260,task,2021.1.4,Win32,60.10337781,6299f149e92ead563fba08ef,62a446cf1eaae6b8a67b619a,,,,,,,,,,,,,,,,,,,,,,,Task,37,(3/3) + 5,6,,,,,,,,,,,,,,,,,,,0,,,,,,,,,,,,,,,,,,,,,space,10.7655,,0,0,0,0,36,1,,,,,,,,,,,,,,,,,,,,,,,,,,,
,,,,,,,,,,,,5e99c5be1a0c87028c125183,23,Mężczyzna,2022-06-11_09h42.38.260,task,2021.1.4,Win32,60.10337781,6299f149e92ead563fba08ef,62a446cf1eaae6b8a67b619a,,,,,,,,,,,,,8,,,,,,,,,,Task,39,(5x3) - 7,8,,,,,,,,,,,,,,,,,,,1,,,,,,,,,,,,,,,,,,,,,,,"[""8""]",1,0,1,1,38,1,[2.1718000001907285],,,,,,,,,,,,,,,,,,,,,,,,,,
,,,,,,,,,,,X V Q F H G B L J M P D K C T S W R N Z,5e99c5be1a0c87028c125183,23,Mężczyzna,2022-06-11_09h42.38.260,task,2021.1.4,Win32,60.10337781,6299f149e92ead563fba08ef,62a446cf1eaae6b8a67b619a,,,,,,,,,,,,,,,,,,,,,,,,,,,,,,,,,,,,,,,,,,,,,,,,,,,,,,,,,,,,,,,,,,,,,,,,,,,,0,0,0,0,1,,,,,,,,,,,,,,,,,,,,,
,,,,,,,,,,,,5e99c5be1a0c87028c125183,23,Mężczyzna,2022-06-11_09h42.38.260,task,2021.1.4,Win32,60.10337781,6299f149e92ead563fba08ef,62a446cf1eaae6b8a67b619a,,,,,,,,,,,,,6,,,,,,,,,,Task,37,(3/3) + 5,6,,,,,,,,,,,,,,,,,,,1,,,,,,,,,,,,,,,,,,,,,,,"[""6""]",1,0,0,0,36,1,[3.1274999999999977],,,,,,,,,,,,,,,,,,,,,,,,,,
,,,,,,,,,,,X V Q F H G B L J M P D K C T S W R N Z,5e99c5be1a0c87028c125183,23,Mężczyzna,2022-06-11_09h42.38.260,task,2021.1.4,Win32,60.10337781,6299f149e92ead563fba08ef,62a446cf1eaae6b8a67b619a,,,,,,,,,,,,,,,,,,,,,,,,,,,,,,,,,,,,,,,,,,,,,,,,,,,,,,,,,,,,,,,,,,,,,,,,,,,,1,0,1,0,1,,,,,,,,,,,,,,,,,,,,,
,,,,,,,,,,,,5e99c5be1a0c87028c125183,23,Mężczyzna,2022-06-11_09h42.38.260,task,2021.1.4,Win32,60.10337781,6299f149e92ead563fba08ef,62a446cf1eaae6b8a67b619a,,,,,,,,,,,,,,,,,,,,,,,,,,,,,,,,,,,,,,,,,,,,,,,,,,,,,,,,,,,,,,,,,,,,,,,,,,,,,,,,,zg,"[""z"",""g""]",0,"[1.8131999998092851,2.038799999952346,2.5746999998092974]",1,ZG,0,0,0,0,1,,,,,,,,,,
,,,,,,,,,,,,5e99c5be1a0c87028c125183,23,Mężczyzna,2022-06-11_09h42.38.260,task,2021.1.4,Win32,60.10337781,6299f149e92ead563fba08ef,62a446cf1eaae6b8a67b619a,,,,,,,,,,,,,2,,,,,,,,,,Task,19,(6/2) - 1,2,,,,,,,,,,,,,,,,,,,1,,,,,,,,,,,,,,,,,,,,,,,"[""2""]",1,0,0,0,18,1,[2.662700000047664],,,,,,,,,,,,,,,,,,,,,,,,,,
,,,,,,,,,,,X V Q F H G B L J M P D K C T S W R N Z,5e99c5be1a0c87028c125183,23,Mężczyzna,2022-06-11_09h42.38.260,task,2021.1.4,Win32,60.10337781,6299f149e92ead563fba08ef,62a446cf1eaae6b8a67b619a,,,,,,,,,,,,,,,,,,,,,,,,,,,,,,,,,,,,,,,,,,,,,,,,,,,,,,,,,,,,,,,,,,,,,,,,,,,,0,0,0,0,1,,,,,,,,,,,,,,,,,,,,,
,,,,,,,,,,,,5e99c5be1a0c87028c125183,23,Mężczyzna,2022-06-11_09h42.38.260,task,2021.1.4,Win32,60.10337781,6299f149e92ead563fba08ef,62a446cf1eaae6b8a67b619a,,,,,,,,,,,,,0,,,,,,,,,,Task,8,(1x5) - 5,0,,,,,,,,,,,,,,,,,,,1,,,,,,,,,,,,,,,,,,,,,,,"[""0""]",1,0,0,0,7,1,[2.7945999999046194],,,,,,,,,,,,,,,,,,,,,,,,,,
,,,,,,,,,,,X V Q F H G B L J M P D K C T S W R N Z,5e99c5be1a0c87028c125183,23,Mężczyzna,2022-06-11_09h42.38.260,task,2021.1.4,Win32,60.10337781,6299f149e92ead563fba08ef,62a446cf1eaae6b8a67b619a,,,,,,,,,,,,,,,,,,,,,,,,,,,,,,,,,,,,,,,,,,,,,,,,,,,,,,,,,,,,,,,,,,,,,,,,,,,,1,0,1,0,1,,,,,,,,,,,,,,,,,,,,,
,,,,,,,,,,,,5e99c5be1a0c87028c125183,23,Mężczyzna,2022-06-11_09h42.38.260,task,2021.1.4,Win32,60.10337781,6299f149e92ead563fba08ef,62a446cf1eaae6b8a67b619a,,,,,,,,,,,,,6,,,,,,,,,,Task,13,(3x4) - 6,6,,,,,,,,,,,,,,,,,,,1,,,,,,,,,,,,,,,,,,,,,,,"[""6""]",1,0,0,0,12,1,[2.7192000000476924],,,,,,,,,,,,,,,,,,,,,,,,,,
,,,,,,,,,,,X V Q F H G B L J M P D K C T S W R N Z,5e99c5be1a0c87028c125183,23,Mężczyzna,2022-06-11_09h42.38.260,task,2021.1.4,Win32,60.10337781,6299f149e92ead563fba08ef,62a446cf1eaae6b8a67b619a,,,,,,,,,,,,,,,,,,,,,,,,,,,,,,,,,,,,,,,,,,,,,,,,,,,,,,,,,,,,,,,,,,,,,,,,,,,,2,0,2,0,1,,,,,,,,,,,,,,,,,,,,,
,,,,,,,,,,,,5e99c5be1a0c87028c125183,23,Mężczyzna,2022-06-11_09h42.38.260,task,2021.1.4,Win32,60.10337781,6299f149e92ead563fba08ef,62a446cf1eaae6b8a67b619a,,,,,,,,,,,,,,,,,,,,,,,,,,,,,,,,,,,,,,,,,,,,,,,,,,,,,,,,,,,,,,,,,,,,,,,,,,,,,,,,,mfj,"[""m"",""f"",""j""]",0,"[1.818200000047682,2.13279999995234,2.3998999998569843,3.0173999998569343]",1,MFJ,1,0,1,0,1,,,,,,,,,,
,,,,,,,,,,,,5e99c5be1a0c87028c125183,23,Mężczyzna,2022-06-11_09h42.38.260,task,2021.1.4,Win32,60.10337781,6299f149e92ead563fba08ef,62a446cf1eaae6b8a67b619a,,,,,,,,,,,,,0,,,,,,,,,,Task,8,(1x5) - 5,0,,,,,,,,,,,,,,,,,,,1,,,,,,,,,,,,,,,,,,,,,,,"[""0""]",1,0,0,0,7,1,[2.254100000143069],,,,,,,,,,,,,,,,,,,,,,,,,,
,,,,,,,,,,,X V Q F H G B L J M P D K C T S W R N Z,5e99c5be1a0c87028c125183,23,Mężczyzna,2022-06-11_09h42.38.260,task,2021.1.4,Win32,60.10337781,6299f149e92ead563fba08ef,62a446cf1eaae6b8a67b619a,,,,,,,,,,,,,,,,,,,,,,,,,,,,,,,,,,,,,,,,,,,,,,,,,,,,,,,,,,,,,,,,,,,,,,,,,,,,0,0,0,0,1,,,,,,,,,,,,,,,,,,,,,
,,,,,,,,,,,,5e99c5be1a0c87028c125183,23,Mężczyzna,2022-06-11_09h42.38.260,task,2021.1.4,Win32,60.10337781,6299f149e92ead563fba08ef,62a446cf1eaae6b8a67b619a,,,,,,,,,,,,,2,,,,,,,,,,Task,19,(6/2) - 1,2,,,,,,,,,,,,,,,,,,,1,,,,,,,,,,,,,,,,,,,,,,,"[""2""]",1,0,0,0,18,1,[3.5335000000000036],,,,,,,,,,,,,,,,,,,,,,,,,,
,,,,,,,,,,,X V Q F H G B L J M P D K C T S W R N Z,5e99c5be1a0c87028c125183,23,Mężczyzna,2022-06-11_09h42.38.260,task,2021.1.4,Win32,60.10337781,6299f149e92ead563fba08ef,62a446cf1eaae6b8a67b619a,,,,,,,,,,,,,,,,,,,,,,,,,,,,,,,,,,,,,,,,,,,,,,,,,,,,,,,,,,,,,,,,,,,,,,,,,,,,1,0,1,0,1,,,,,,,,,,,,,,,,,,,,,
,,,,,,,,,,,,5e99c5be1a0c87028c125183,23,Mężczyzna,2022-06-11_09h42.38.260,task,2021.1.4,Win32,60.10337781,6299f149e92ead563fba08ef,62a446cf1eaae6b8a67b619a,,,,,,,,,,,,,3,,,,,,,,,,Task,35,(1x2) + 1,3,,,,,,,,,,,,,,,,,,,1,,,,,,,,,,,,,,,,,,,,,,,"[""3""]",1,0,0,0,34,1,[1.7955999999046526],,,,,,,,,,,,,,,,,,,,,,,,,,
,,,,,,,,,,,X V Q F H G B L J M P D K C T S W R N Z,5e99c5be1a0c87028c125183,23,Mężczyzna,2022-06-11_09h42.38.260,task,2021.1.4,Win32,60.10337781,6299f149e92ead563fba08ef,62a446cf1eaae6b8a67b619a,,,,,,,,,,,,,,,,,,,,,,,,,,,,,,,,,,,,,,,,,,,,,,,,,,,,,,,,,,,,,,,,,,,,,,,,,,,,2,0,2,0,1,,,,,,,,,,,,,,,,,,,,,
,,,,,,,,,,,,5e99c5be1a0c87028c125183,23,Mężczyzna,2022-06-11_09h42.38.260,task,2021.1.4,Win32,60.10337781,6299f149e92ead563fba08ef,62a446cf1eaae6b8a67b619a,,,,,,,,,,,,,6,,,,,,,,,,Task,37,(3/3) + 5,6,,,,,,,,,,,,,,,,,,,1,,,,,,,,,,,,,,,,,,,,,,,"[""6""]",1,0,0,0,36,1,[2.6585999999045953],,,,,,,,,,,,,,,,,,,,,,,,,,
,,,,,,,,,,,X V Q F H G B L J M P D K C T S W R N Z,5e99c5be1a0c87028c125183,23,Mężczyzna,2022-06-11_09h42.38.260,task,2021.1.4,Win32,60.10337781,6299f149e92ead563fba08ef,62a446cf1eaae6b8a67b619a,,,,,,,,,,,,,,,,,,,,,,,,,,,,,,,,,,,,,,,,,,,,,,,,,,,,,,,,,,,,,,,,,,,,,,,,,,,,3,0,3,0,1,,,,,,,,,,,,,,,,,,,,,
,,,,,,,,,,,,5e99c5be1a0c87028c125183,23,Mężczyzna,2022-06-11_09h42.38.260,task,2021.1.4,Win32,60.10337781,6299f149e92ead563fba08ef,62a446cf1eaae6b8a67b619a,,,,,,,,,,,,,,,,,,,,,,,,,,,,,,,,,,,,,,,,,,,,,,,,,,,,,,,,,,,,,,,,,,,,,,,,,,,,,,,,,mczd,"[""m"",""c"",""z"",""d""]",0,"[1.8905000000000314,2.2682000000477274,2.6444999999999936,3.0093000001907626,3.618100000143045]",1,MCZD,2,0,2,0,1,,,,,,,,,,
,,,,,,,,,,,,5e99c5be1a0c87028c125183,23,Mężczyzna,2022-06-11_09h42.38.260,task,2021.1.4,Win32,60.10337781,6299f149e92ead563fba08ef,62a446cf1eaae6b8a67b619a,,,,,,,,,,,,,6,,,,,,,,,,Task,13,(3x4) - 6,6,,,,,,,,,,,,,,,,,,,1,,,,,,,,,,,,,,,,,,,,,,,"[""6""]",1,0,0,0,12,1,[1.9480999999046276],,,,,,,,,,,,,,,,,,,,,,,,,,
,,,,,,,,,,,X V Q F H G B L J M P D K C T S W R N Z,5e99c5be1a0c87028c125183,23,Mężczyzna,2022-06-11_09h42.38.260,task,2021.1.4,Win32,60.10337781,6299f149e92ead563fba08ef,62a446cf1eaae6b8a67b619a,,,,,,,,,,,,,,,,,,,,,,,,,,,,,,,,,,,,,,,,,,,,,,,,,,,,,,,,,,,,,,,,,,,,,,,,,,,,0,0,0,0,1,,,,,,,,,,,,,,,,,,,,,
,,,,,,,,,,,,5e99c5be1a0c87028c125183,23,Mężczyzna,2022-06-11_09h42.38.260,task,2021.1.4,Win32,60.10337781,6299f149e92ead563fba08ef,62a446cf1eaae6b8a67b619a,,,,,,,,,,,,,6,,,,,,,,,,Task,13,(3x4) - 6,6,,,,,,,,,,,,,,,,,,,1,,,,,,,,,,,,,,,,,,,,,,,"[""6""]",1,0,0,0,12,1,[1.8849000000953424],,,,,,,,,,,,,,,,,,,,,,,,,,
,,,,,,,,,,,X V Q F H G B L J M P D K C T S W R N Z,5e99c5be1a0c87028c125183,23,Mężczyzna,2022-06-11_09h42.38.260,task,2021.1.4,Win32,60.10337781,6299f149e92ead563fba08ef,62a446cf1eaae6b8a67b619a,,,,,,,,,,,,,,,,,,,,,,,,,,,,,,,,,,,,,,,,,,,,,,,,,,,,,,,,,,,,,,,,,,,,,,,,,,,,1,0,1,0,1,,,,,,,,,,,,,,,,,,,,,
,,,,,,,,,,,,5e99c5be1a0c87028c125183,23,Mężczyzna,2022-06-11_09h42.38.260,task,2021.1.4,Win32,60.10337781,6299f149e92ead563fba08ef,62a446cf1eaae6b8a67b619a,,,,,,,,,,,,,0,,,,,,,,,,Task,33,(1/1) - 1,0,,,,,,,,,,,,,,,,,,,1,,,,,,,,,,,,,,,,,,,,,,,"[""0""]",1,0,0,0,32,1,[2.3570999999046194],,,,,,,,,,,,,,,,,,,,,,,,,,
,,,,,,,,,,,X V Q F H G B L J M P D K C T S W R N Z,5e99c5be1a0c87028c125183,23,Mężczyzna,2022-06-11_09h42.38.260,task,2021.1.4,Win32,60.10337781,6299f149e92ead563fba08ef,62a446cf1eaae6b8a67b619a,,,,,,,,,,,,,,,,,,,,,,,,,,,,,,,,,,,,,,,,,,,,,,,,,,,,,,,,,,,,,,,,,,,,,,,,,,,,2,0,2,0,1,,,,,,,,,,,,,,,,,,,,,
,,,,,,,,,,,,5e99c5be1a0c87028c125183,23,Mężczyzna,2022-06-11_09h42.38.260,task,2021.1.4,Win32,60.10337781,6299f149e92ead563fba08ef,62a446cf1eaae6b8a67b619a,,,,,,,,,,,,,1,,,,,,,,,,Task,9,(3x7) - 20,1,,,,,,,,,,,,,,,,,,,1,,,,,,,,,,,,,,,,,,,,,,,"[""1""]",1,0,0,0,8,1,[1.9316999998092683],,,,,,,,,,,,,,,,,,,,,,,,,,
,,,,,,,,,,,X V Q F H G B L J M P D K C T S W R N Z,5e99c5be1a0c87028c125183,23,Mężczyzna,2022-06-11_09h42.38.260,task,2021.1.4,Win32,60.10337781,6299f149e92ead563fba08ef,62a446cf1eaae6b8a67b619a,,,,,,,,,,,,,,,,,,,,,,,,,,,,,,,,,,,,,,,,,,,,,,,,,,,,,,,,,,,,,,,,,,,,,,,,,,,,3,0,3,0,1,,,,,,,,,,,,,,,,,,,,,
,,,,,,,,,,,,5e99c5be1a0c87028c125183,23,Mężczyzna,2022-06-11_09h42.38.260,task,2021.1.4,Win32,60.10337781,6299f149e92ead563fba08ef,62a446cf1eaae6b8a67b619a,,,,,,,,,,,,,5,,,,,,,,,,Task,29,(3x8) - 19 ,5,,,,,,,,,,,,,,,,,,,1,,,,,,,,,,,,,,,,,,,,,,,"[""5""]",1,0,0,0,28,1,[4.277600000143025],,,,,,,,,,,,,,,,,,,,,,,,,,
,,,,,,,,,,,X V Q F H G B L J M P D K C T S W R N Z,5e99c5be1a0c87028c125183,23,Mężczyzna,2022-06-11_09h42.38.260,task,2021.1.4,Win32,60.10337781,6299f149e92ead563fba08ef,62a446cf1eaae6b8a67b619a,,,,,,,,,,,,,,,,,,,,,,,,,,,,,,,,,,,,,,,,,,,,,,,,,,,,,,,,,,,,,,,,,,,,,,,,,,,,4,0,4,0,1,,,,,,,,,,,,,,,,,,,,,
,,,,,,,,,,,,5e99c5be1a0c87028c125183,23,Mężczyzna,2022-06-11_09h42.38.260,task,2021.1.4,Win32,60.10337781,6299f149e92ead563fba08ef,62a446cf1eaae6b8a67b619a,,,,,,,,,,,,,,,,,,,,,,,,,,,,,,,,,,,,,,,,,,,,,,,,,,,,,,,,,,,,,,,,,,,,,,,,,,,,,,,,,grlcf,"[""g"",""r"",""l"",""c"",""f""]",0,"[1.8738000001907267,2.378200000047684,2.8461000001430534,3.202900000095383,3.7186000001430557,4.553700000047684]",1,GRLCF,3,0,3,0,1,,,,,,,,,,
,,,,,,,,,,,,5e99c5be1a0c87028c125183,23,Mężczyzna,2022-06-11_09h42.38.260,task,2021.1.4,Win32,60.10337781,6299f149e92ead563fba08ef,62a446cf1eaae6b8a67b619a,,,,,,,,,,,,,9,,,,,,,,,,Task,7,(3x7) - 12,9,,,,,,,,,,,,,,,,,,,1,,,,,,,,,,,,,,,,,,,,,,,"[""9""]",1,0,0,0,6,1,[2.2690000000000055],,,,,,,,,,,,,,,,,,,,,,,,,,
,,,,,,,,,,,X V Q F H G B L J M P D K C T S W R N Z,5e99c5be1a0c87028c125183,23,Mężczyzna,2022-06-11_09h42.38.260,task,2021.1.4,Win32,60.10337781,6299f149e92ead563fba08ef,62a446cf1eaae6b8a67b619a,,,,,,,,,,,,,,,,,,,,,,,,,,,,,,,,,,,,,,,,,,,,,,,,,,,,,,,,,,,,,,,,,,,,,,,,,,,,0,0,0,0,1,,,,,,,,,,,,,,,,,,,,,
,,,,,,,,,,,,5e99c5be1a0c87028c125183,23,Mężczyzna,2022-06-11_09h42.38.260,task,2021.1.4,Win32,60.10337781,6299f149e92ead563fba08ef,62a446cf1eaae6b8a67b619a,,,,,,,,,,,,,0,,,,,,,,,,Task,8,(1x5) - 5,0,,,,,,,,,,,,,,,,,,,1,,,,,,,,,,,,,,,,,,,,,,,"[""0""]",1,0,0,0,7,1,[1.0118999998569507],,,,,,,,,,,,,,,,,,,,,,,,,,
,,,,,,,,,,,X V Q F H G B L J M P D K C T S W R N Z,5e99c5be1a0c87028c125183,23,Mężczyzna,2022-06-11_09h42.38.260,task,2021.1.4,Win32,60.10337781,6299f149e92ead563fba08ef,62a446cf1eaae6b8a67b619a,,,,,,,,,,,,,,,,,,,,,,,,,,,,,,,,,,,,,,,,,,,,,,,,,,,,,,,,,,,,,,,,,,,,,,,,,,,,1,0,1,0,1,,,,,,,,,,,,,,,,,,,,,
,,,,,,,,,,,,5e99c5be1a0c87028c125183,23,Mężczyzna,2022-06-11_09h42.38.260,task,2021.1.4,Win32,60.10337781,6299f149e92ead563fba08ef,62a446cf1eaae6b8a67b619a,,,,,,,,,,,,,9,,,,,,,,,,Task,40,(7x2) - 5,9,,,,,,,,,,,,,,,,,,,1,,,,,,,,,,,,,,,,,,,,,,,"[""9""]",1,0,0,0,39,1,[2.015600000143081],,,,,,,,,,,,,,,,,,,,,,,,,,
,,,,,,,,,,,X V Q F H G B L J M P D K C T S W R N Z,5e99c5be1a0c87028c125183,23,Mężczyzna,2022-06-11_09h42.38.260,task,2021.1.4,Win32,60.10337781,6299f149e92ead563fba08ef,62a446cf1eaae6b8a67b619a,,,,,,,,,,,,,,,,,,,,,,,,,,,,,,,,,,,,,,,,,,,,,,,,,,,,,,,,,,,,,,,,,,,,,,,,,,,,2,0,2,0,1,,,,,,,,,,,,,,,,,,,,,
,,,,,,,,,,,,5e99c5be1a0c87028c125183,23,Mężczyzna,2022-06-11_09h42.38.260,task,2021.1.4,Win32,60.10337781,6299f149e92ead563fba08ef,62a446cf1eaae6b8a67b619a,,,,,,,,,,,,,5,,,,,,,,,,Task,36,(8/4) + 3,5,,,,,,,,,,,,,,,,,,,1,,,,,,,,,,,,,,,,,,,,,,,"[""5""]",1,0,0,0,35,1,[3.76299999999992],,,,,,,,,,,,,,,,,,,,,,,,,,
,,,,,,,,,,,X V Q F H G B L J M P D K C T S W R N Z,5e99c5be1a0c87028c125183,23,Mężczyzna,2022-06-11_09h42.38.260,task,2021.1.4,Win32,60.10337781,6299f149e92ead563fba08ef,62a446cf1eaae6b8a67b619a,,,,,,,,,,,,,,,,,,,,,,,,,,,,,,,,,,,,,,,,,,,,,,,,,,,,,,,,,,,,,,,,,,,,,,,,,,,,3,0,3,0,1,,,,,,,,,,,,,,,,,,,,,
,,,,,,,,,,,,5e99c5be1a0c87028c125183,23,Mężczyzna,2022-06-11_09h42.38.260,task,2021.1.4,Win32,60.10337781,6299f149e92ead563fba08ef,62a446cf1eaae6b8a67b619a,,,,,,,,,,,,,6,,,,,,,,,,Task,5,(2x3) + 0,6,,,,,,,,,,,,,,,,,,,1,,,,,,,,,,,,,,,,,,,,,,,"[""6""]",1,0,0,0,4,1,[2.6350999999045825],,,,,,,,,,,,,,,,,,,,,,,,,,
,,,,,,,,,,,X V Q F H G B L J M P D K C T S W R N Z,5e99c5be1a0c87028c125183,23,Mężczyzna,2022-06-11_09h42.38.260,task,2021.1.4,Win32,60.10337781,6299f149e92ead563fba08ef,62a446cf1eaae6b8a67b619a,,,,,,,,,,,,,,,,,,,,,,,,,,,,,,,,,,,,,,,,,,,,,,,,,,,,,,,,,,,,,,,,,,,,,,,,,,,,4,0,4,0,1,,,,,,,,,,,,,,,,,,,,,
,,,,,,,,,,,,5e99c5be1a0c87028c125183,23,Mężczyzna,2022-06-11_09h42.38.260,task,2021.1.4,Win32,60.10337781,6299f149e92ead563fba08ef,62a446cf1eaae6b8a67b619a,,,,,,,,,,,,,3,,,,,,,,,,Task,27,(3/3) + 2,3,,,,,,,,,,,,,,,,,,,1,,,,,,,,,,,,,,,,,,,,,,,"[""3""]",1,0,0,0,26,1,[2.7093000001906375],,,,,,,,,,,,,,,,,,,,,,,,,,
,,,,,,,,,,,X V Q F H G B L J M P D K C T S W R N Z,5e99c5be1a0c87028c125183,23,Mężczyzna,2022-06-11_09h42.38.260,task,2021.1.4,Win32,60.10337781,6299f149e92ead563fba08ef,62a446cf1eaae6b8a67b619a,,,,,,,,,,,,,,,,,,,,,,,,,,,,,,,,,,,,,,,,,,,,,,,,,,,,,,,,,,,,,,,,,,,,,,,,,,,,5,0,5,0,1,,,,,,,,,,,,,,,,,,,,,
,,,,,,,,,,,,5e99c5be1a0c87028c125183,23,Mężczyzna,2022-06-11_09h42.38.260,task,2021.1.4,Win32,60.10337781,6299f149e92ead563fba08ef,62a446cf1eaae6b8a67b619a,,,,,,,,,,,,,,,,,,,,,,,,,,,,,,,,,,,,,,,,,,,,,,,,,,,,,,,,,,,,,,,,,,,,,,,,,,,,,,,,,jvdvmm,"[""j"",""v"",""d"",""v"",""m"",""m""]",0,"[2.524300000190692,3.230000000000018,3.947999999999979,4.450300000190737,4.807999999999993,4.964700000047628,6.073100000142972]",1,JVDVMM,4,0,4,0,1,,,,,,,,,,
,,,,,,,,,,,,5e99c5be1a0c87028c125183,23,Mężczyzna,2022-06-11_09h42.38.260,task,2021.1.4,Win32,60.10337781,6299f149e92ead563fba08ef,62a446cf1eaae6b8a67b619a,,,,,,,,,,,,,8,,,,,,,,,,Task,23,(2x3) + 2,8,,,,,,,,,,,,,,,,,,,1,,,,,,,,,,,,,,,,,,,,,,,"[""8""]",1,0,0,0,22,1,[2.561400000095432],,,,,,,,,,,,,,,,,,,,,,,,,,
,,,,,,,,,,,X V Q F H G B L J M P D K C T S W R N Z,5e99c5be1a0c87028c125183,23,Mężczyzna,2022-06-11_09h42.38.260,task,2021.1.4,Win32,60.10337781,6299f149e92ead563fba08ef,62a446cf1eaae6b8a67b619a,,,,,,,,,,,,,,,,,,,,,,,,,,,,,,,,,,,,,,,,,,,,,,,,,,,,,,,,,,,,,,,,,,,,,,,,,,,,0,0,0,0,1,,,,,,,,,,,,,,,,,,,,,
,,,,,,,,,,,,5e99c5be1a0c87028c125183,23,Mężczyzna,2022-06-11_09h42.38.260,task,2021.1.4,Win32,60.10337781,6299f149e92ead563fba08ef,62a446cf1eaae6b8a67b619a,,,,,,,,,,,,,1,,,,,,,,,,Task,1,(12/6) - 1,1,,,,,,,,,,,,,,,,,,,1,,,,,,,,,,,,,,,,,,,,,,,"[""1""]",1,0,0,0,0,1,[2.510799999952269],,,,,,,,,,,,,,,,,,,,,,,,,,
,,,,,,,,,,,X V Q F H G B L J M P D K C T S W R N Z,5e99c5be1a0c87028c125183,23,Mężczyzna,2022-06-11_09h42.38.260,task,2021.1.4,Win32,60.10337781,6299f149e92ead563fba08ef,62a446cf1eaae6b8a67b619a,,,,,,,,,,,,,,,,,,,,,,,,,,,,,,,,,,,,,,,,,,,,,,,,,,,,,,,,,,,,,,,,,,,,,,,,,,,,1,0,1,0,1,,,,,,,,,,,,,,,,,,,,,
,,,,,,,,,,,,5e99c5be1a0c87028c125183,23,Mężczyzna,2022-06-11_09h42.38.260,task,2021.1.4,Win32,60.10337781,6299f149e92ead563fba08ef,62a446cf1eaae6b8a67b619a,,,,,,,,,,,,,2,,,,,,,,,,Task,10,(2x5) - 8,2,,,,,,,,,,,,,,,,,,,1,,,,,,,,,,,,,,,,,,,,,,,"[""2""]",1,0,0,0,9,1,[2.2685000000000173],,,,,,,,,,,,,,,,,,,,,,,,,,
,,,,,,,,,,,X V Q F H G B L J M P D K C T S W R N Z,5e99c5be1a0c87028c125183,23,Mężczyzna,2022-06-11_09h42.38.260,task,2021.1.4,Win32,60.10337781,6299f149e92ead563fba08ef,62a446cf1eaae6b8a67b619a,,,,,,,,,,,,,,,,,,,,,,,,,,,,,,,,,,,,,,,,,,,,,,,,,,,,,,,,,,,,,,,,,,,,,,,,,,,,2,0,2,0,1,,,,,,,,,,,,,,,,,,,,,
,,,,,,,,,,,,5e99c5be1a0c87028c125183,23,Mężczyzna,2022-06-11_09h42.38.260,task,2021.1.4,Win32,60.10337781,6299f149e92ead563fba08ef,62a446cf1eaae6b8a67b619a,,,,,,,,,,,,,3,,,,,,,,,,Task,27,(3/3) + 2,3,,,,,,,,,,,,,,,,,,,1,,,,,,,,,,,,,,,,,,,,,,,"[""3""]",1,0,0,0,26,1,[1.7185999999045407],,,,,,,,,,,,,,,,,,,,,,,,,,
,,,,,,,,,,,X V Q F H G B L J M P D K C T S W R N Z,5e99c5be1a0c87028c125183,23,Mężczyzna,2022-06-11_09h42.38.260,task,2021.1.4,Win32,60.10337781,6299f149e92ead563fba08ef,62a446cf1eaae6b8a67b619a,,,,,,,,,,,,,,,,,,,,,,,,,,,,,,,,,,,,,,,,,,,,,,,,,,,,,,,,,,,,,,,,,,,,,,,,,,,,3,0,3,0,1,,,,,,,,,,,,,,,,,,,,,
,,,,,,,,,,,,5e99c5be1a0c87028c125183,23,Mężczyzna,2022-06-11_09h42.38.260,task,2021.1.4,Win32,60.10337781,6299f149e92ead563fba08ef,62a446cf1eaae6b8a67b619a,,,,,,,,,,,,,9,,,,,,,,,,Task,40,(7x2) - 5,9,,,,,,,,,,,,,,,,,,,1,,,,,,,,,,,,,,,,,,,,,,,"[""9""]",1,0,0,0,39,1,[2.6617999999523363],,,,,,,,,,,,,,,,,,,,,,,,,,
,,,,,,,,,,,X V Q F H G B L J M P D K C T S W R N Z,5e99c5be1a0c87028c125183,23,Mężczyzna,2022-06-11_09h42.38.260,task,2021.1.4,Win32,60.10337781,6299f149e92ead563fba08ef,62a446cf1eaae6b8a67b619a,,,,,,,,,,,,,,,,,,,,,,,,,,,,,,,,,,,,,,,,,,,,,,,,,,,,,,,,,,,,,,,,,,,,,,,,,,,,4,0,4,0,1,,,,,,,,,,,,,,,,,,,,,
,,,,,,,,,,,,5e99c5be1a0c87028c125183,23,Mężczyzna,2022-06-11_09h42.38.260,task,2021.1.4,Win32,60.10337781,6299f149e92ead563fba08ef,62a446cf1eaae6b8a67b619a,,,,,,,,,,,,,1,,,,,,,,,,Task,1,(12/6) - 1,1,,,,,,,,,,,,,,,,,,,1,,,,,,,,,,,,,,,,,,,,,,,"[""1""]",1,0,0,0,0,1,[3.349099999904638],,,,,,,,,,,,,,,,,,,,,,,,,,
,,,,,,,,,,,X V Q F H G B L J M P D K C T S W R N Z,5e99c5be1a0c87028c125183,23,Mężczyzna,2022-06-11_09h42.38.260,task,2021.1.4,Win32,60.10337781,6299f149e92ead563fba08ef,62a446cf1eaae6b8a67b619a,,,,,,,,,,,,,,,,,,,,,,,,,,,,,,,,,,,,,,,,,,,,,,,,,,,,,,,,,,,,,,,,,,,,,,,,,,,,5,0,5,0,1,,,,,,,,,,,,,,,,,,,,,
,,,,,,,,,,,,5e99c5be1a0c87028c125183,23,Mężczyzna,2022-06-11_09h42.38.260,task,2021.1.4,Win32,60.10337781,6299f149e92ead563fba08ef,62a446cf1eaae6b8a67b619a,,,,,,,,,,,,,1,,,,,,,,,,Task,9,(3x7) - 20,1,,,,,,,,,,,,,,,,,,,1,,,,,,,,,,,,,,,,,,,,,,,"[""1""]",1,0,0,0,8,1,[3.0997999999523245],,,,,,,,,,,,,,,,,,,,,,,,,,
,,,,,,,,,,,X V Q F H G B L J M P D K C T S W R N Z,5e99c5be1a0c87028c125183,23,Mężczyzna,2022-06-11_09h42.38.260,task,2021.1.4,Win32,60.10337781,6299f149e92ead563fba08ef,62a446cf1eaae6b8a67b619a,,,,,,,,,,,,,,,,,,,,,,,,,,,,,,,,,,,,,,,,,,,,,,,,,,,,,,,,,,,,,,,,,,,,,,,,,,,,6,0,6,0,1,,,,,,,,,,,,,,,,,,,,,
,,,,,,,,,,,,5e99c5be1a0c87028c125183,23,Mężczyzna,2022-06-11_09h42.38.260,task,2021.1.4,Win32,60.10337781,6299f149e92ead563fba08ef,62a446cf1eaae6b8a67b619a,,,,,,,,,,,,,,,,,,,,,,,,,,,,,,,,,,,,,,,,,,,,,,,,,,,,,,,,,,,,,,,,,,,,,,,,,,,,,,,,,lvmgzl,"[""l"",""v"",""m"",""g"",""z"",""l""]",0,"[2.058499999999981,2.6399999999999864,3.29879999995228,3.885799999952269,5.8097000000476555,6.091700000047581,7.258999999999901]",0,LVMGZLH,5,0,5,0,1,,,,,,,,,,
,,,,,,,,,,,,5e99c5be1a0c87028c125183,23,Mężczyzna,2022-06-11_09h42.38.260,task,2021.1.4,Win32,60.10337781,6299f149e92ead563fba08ef,62a446cf1eaae6b8a67b619a,,,,,,,,,,,,,1,,,,,,,,,,Task,18,(16/4) - 3,1,,,,,,,,,,,,,,,,,,,1,,,,,,,,,,,,,,,,,,,,,,,"[""1""]",1,0,0,0,17,1,[2.5056999998092806],,,,,,,,,,,,,,,,,,,,,,,,,,
,,,,,,,,,,,X V Q F H G B L J M P D K C T S W R N Z,5e99c5be1a0c87028c125183,23,Mężczyzna,2022-06-11_09h42.38.260,task,2021.1.4,Win32,60.10337781,6299f149e92ead563fba08ef,62a446cf1eaae6b8a67b619a,,,,,,,,,,,,,,,,,,,,,,,,,,,,,,,,,,,,,,,,,,,,,,,,,,,,,,,,,,,,,,,,,,,,,,,,,,,,0,0,0,0,1,,,,,,,,,,,,,,,,,,,,,
,,,,,,,,,,,,5e99c5be1a0c87028c125183,23,Mężczyzna,2022-06-11_09h42.38.260,task,2021.1.4,Win32,60.10337781,6299f149e92ead563fba08ef,62a446cf1eaae6b8a67b619a,,,,,,,,,,,,,1,,,,,,,,,,Task,9,(3x7) - 20,1,,,,,,,,,,,,,,,,,,,1,,,,,,,,,,,,,,,,,,,,,,,"[""1""]",1,0,0,0,8,1,[1.0120000000000573],,,,,,,,,,,,,,,,,,,,,,,,,,
,,,,,,,,,,,X V Q F H G B L J M P D K C T S W R N Z,5e99c5be1a0c87028c125183,23,Mężczyzna,2022-06-11_09h42.38.260,task,2021.1.4,Win32,60.10337781,6299f149e92ead563fba08ef,62a446cf1eaae6b8a67b619a,,,,,,,,,,,,,,,,,,,,,,,,,,,,,,,,,,,,,,,,,,,,,,,,,,,,,,,,,,,,,,,,,,,,,,,,,,,,1,0,1,0,1,,,,,,,,,,,,,,,,,,,,,
,,,,,,,,,,,,5e99c5be1a0c87028c125183,23,Mężczyzna,2022-06-11_09h42.38.260,task,2021.1.4,Win32,60.10337781,6299f149e92ead563fba08ef,62a446cf1eaae6b8a67b619a,,,,,,,,,,,,,6,,,,,,,,,,Task,13,(3x4) - 6,6,,,,,,,,,,,,,,,,,,,1,,,,,,,,,,,,,,,,,,,,,,,"[""6""]",1,0,0,0,12,1,[1.8342000000476446],,,,,,,,,,,,,,,,,,,,,,,,,,
,,,,,,,,,,,X V Q F H G B L J M P D K C T S W R N Z,5e99c5be1a0c87028c125183,23,Mężczyzna,2022-06-11_09h42.38.260,task,2021.1.4,Win32,60.10337781,6299f149e92ead563fba08ef,62a446cf1eaae6b8a67b619a,,,,,,,,,,,,,,,,,,,,,,,,,,,,,,,,,,,,,,,,,,,,,,,,,,,,,,,,,,,,,,,,,,,,,,,,,,,,2,0,2,0,1,,,,,,,,,,,,,,,,,,,,,
,,,,,,,,,,,,5e99c5be1a0c87028c125183,23,Mężczyzna,2022-06-11_09h42.38.260,task,2021.1.4,Win32,60.10337781,6299f149e92ead563fba08ef,62a446cf1eaae6b8a67b619a,,,,,,,,,,,,,3,,,,,,,,,,Task,3,(2x3) - 3,3,,,,,,,,,,,,,,,,,,,1,,,,,,,,,,,,,,,,,,,,,,,"[""3""]",1,0,0,0,2,1,[1.8621999998092633],,,,,,,,,,,,,,,,,,,,,,,,,,
,,,,,,,,,,,X V Q F H G B L J M P D K C T S W R N Z,5e99c5be1a0c87028c125183,23,Mężczyzna,2022-06-11_09h42.38.260,task,2021.1.4,Win32,60.10337781,6299f149e92ead563fba08ef,62a446cf1eaae6b8a67b619a,,,,,,,,,,,,,,,,,,,,,,,,,,,,,,,,,,,,,,,,,,,,,,,,,,,,,,,,,,,,,,,,,,,,,,,,,,,,3,0,3,0,1,,,,,,,,,,,,,,,,,,,,,
,,,,,,,,,,,,5e99c5be1a0c87028c125183,23,Mężczyzna,2022-06-11_09h42.38.260,task,2021.1.4,Win32,60.10337781,6299f149e92ead563fba08ef,62a446cf1eaae6b8a67b619a,,,,,,,,,,,,,6,,,,,,,,,,Task,5,(2x3) + 0,6,,,,,,,,,,,,,,,,,,,1,,,,,,,,,,,,,,,,,,,,,,,"[""6""]",1,0,0,0,4,1,[2.031299999952239],,,,,,,,,,,,,,,,,,,,,,,,,,
,,,,,,,,,,,X V Q F H G B L J M P D K C T S W R N Z,5e99c5be1a0c87028c125183,23,Mężczyzna,2022-06-11_09h42.38.260,task,2021.1.4,Win32,60.10337781,6299f149e92ead563fba08ef,62a446cf1eaae6b8a67b619a,,,,,,,,,,,,,,,,,,,,,,,,,,,,,,,,,,,,,,,,,,,,,,,,,,,,,,,,,,,,,,,,,,,,,,,,,,,,4,0,4,0,1,,,,,,,,,,,,,,,,,,,,,
,,,,,,,,,,,,5e99c5be1a0c87028c125183,23,Mężczyzna,2022-06-11_09h42.38.260,task,2021.1.4,Win32,60.10337781,6299f149e92ead563fba08ef,62a446cf1eaae6b8a67b619a,,,,,,,,,,,,,7,,,,,,,,,,Task,14,(2x2) + 3,7,,,,,,,,,,,,,,,,,,,1,,,,,,,,,,,,,,,,,,,,,,,"[""7""]",1,0,0,0,13,1,[2.9839000000954456],,,,,,,,,,,,,,,,,,,,,,,,,,
,,,,,,,,,,,X V Q F H G B L J M P D K C T S W R N Z,5e99c5be1a0c87028c125183,23,Mężczyzna,2022-06-11_09h42.38.260,task,2021.1.4,Win32,60.10337781,6299f149e92ead563fba08ef,62a446cf1eaae6b8a67b619a,,,,,,,,,,,,,,,,,,,,,,,,,,,,,,,,,,,,,,,,,,,,,,,,,,,,,,,,,,,,,,,,,,,,,,,,,,,,5,0,5,0,1,,,,,,,,,,,,,,,,,,,,,
,,,,,,,,,,,,5e99c5be1a0c87028c125183,23,Mężczyzna,2022-06-11_09h42.38.260,task,2021.1.4,Win32,60.10337781,6299f149e92ead563fba08ef,62a446cf1eaae6b8a67b619a,,,,,,,,,,,,,7,,,,,,,,,,Task,31,(4/2) + 5,7,,,,,,,,,,,,,,,,,,,1,,,,,,,,,,,,,,,,,,,,,,,"[""7""]",1,0,0,0,30,1,[3.0287000000477065],,,,,,,,,,,,,,,,,,,,,,,,,,
,,,,,,,,,,,X V Q F H G B L J M P D K C T S W R N Z,5e99c5be1a0c87028c125183,23,Mężczyzna,2022-06-11_09h42.38.260,task,2021.1.4,Win32,60.10337781,6299f149e92ead563fba08ef,62a446cf1eaae6b8a67b619a,,,,,,,,,,,,,,,,,,,,,,,,,,,,,,,,,,,,,,,,,,,,,,,,,,,,,,,,,,,,,,,,,,,,,,,,,,,,6,0,6,0,1,,,,,,,,,,,,,,,,,,,,,
,,,,,,,,,,,,5e99c5be1a0c87028c125183,23,Mężczyzna,2022-06-11_09h42.38.260,task,2021.1.4,Win32,60.10337781,6299f149e92ead563fba08ef,62a446cf1eaae6b8a67b619a,,,,,,,,,,,,,,,,,,,,,,,,,,,,,,,,,,,,,,,,,,,,,,,,,,,,,,,,,,,,,,,,,,,,,,,,,,,,,,,,,txpcbdg,"[""t"",""x"",""p"",""c"",""b"",""d"",""g""]",0,"[2.003799999952321,2.5332000000477137,3.141899999856946,3.6207999999522826,7.283999999999992,8.182000000000016,8.542099999904622,10.902799999952322]",1,TXPCBDG,6,0,6,0,1,,,,,,,,,,
,,,,,,,,,,,,5e99c5be1a0c87028c125183,23,Mężczyzna,2022-06-11_09h42.38.260,task,2021.1.4,Win32,60.10337781,6299f149e92ead563fba08ef,62a446cf1eaae6b8a67b619a,,,,,,,,,,,,,6,,,,,,,,,,Task,37,(3/3) + 5,6,,,,,,,,,,,,,,,,,,,1,,,,,,,,,,,,,,,,,,,,,,,"[""6""]",1,0,0,0,36,1,[2.0652999999523445],,,,,,,,,,,,,,,,,,,,,,,,,,
,,,,,,,,,,,X V Q F H G B L J M P D K C T S W R N Z,5e99c5be1a0c87028c125183,23,Mężczyzna,2022-06-11_09h42.38.260,task,2021.1.4,Win32,60.10337781,6299f149e92ead563fba08ef,62a446cf1eaae6b8a67b619a,,,,,,,,,,,,,,,,,,,,,,,,,,,,,,,,,,,,,,,,,,,,,,,,,,,,,,,,,,,,,,,,,,,,,,,,,,,,0,0,0,0,1,,,,,,,,,,,,,,,,,,,,,
,,,,,,,,,,,,5e99c5be1a0c87028c125183,23,Mężczyzna,2022-06-11_09h42.38.260,task,2021.1.4,Win32,60.10337781,6299f149e92ead563fba08ef,62a446cf1eaae6b8a67b619a,,,,,,,,,,,,,5,,,,,,,,,,Task,22,(3x1) + 2,5,,,,,,,,,,,,,,,,,,,1,,,,,,,,,,,,,,,,,,,,,,,"[""5""]",1,0,0,0,21,1,[2.678299999952287],,,,,,,,,,,,,,,,,,,,,,,,,,
,,,,,,,,,,,X V Q F H G B L J M P D K C T S W R N Z,5e99c5be1a0c87028c125183,23,Mężczyzna,2022-06-11_09h42.38.260,task,2021.1.4,Win32,60.10337781,6299f149e92ead563fba08ef,62a446cf1eaae6b8a67b619a,,,,,,,,,,,,,,,,,,,,,,,,,,,,,,,,,,,,,,,,,,,,,,,,,,,,,,,,,,,,,,,,,,,,,,,,,,,,1,0,1,0,1,,,,,,,,,,,,,,,,,,,,,
,,,,,,,,,,,,5e99c5be1a0c87028c125183,23,Mężczyzna,2022-06-11_09h42.38.260,task,2021.1.4,Win32,60.10337781,6299f149e92ead563fba08ef,62a446cf1eaae6b8a67b619a,,,,,,,,,,,,,4,,,,,,,,,,Task,21,(10/2) - 1,4,,,,,,,,,,,,,,,,,,,1,,,,,,,,,,,,,,,,,,,,,,,"[""4""]",1,0,0,0,20,1,[2.211199999809196],,,,,,,,,,,,,,,,,,,,,,,,,,
,,,,,,,,,,,X V Q F H G B L J M P D K C T S W R N Z,5e99c5be1a0c87028c125183,23,Mężczyzna,2022-06-11_09h42.38.260,task,2021.1.4,Win32,60.10337781,6299f149e92ead563fba08ef,62a446cf1eaae6b8a67b619a,,,,,,,,,,,,,,,,,,,,,,,,,,,,,,,,,,,,,,,,,,,,,,,,,,,,,,,,,,,,,,,,,,,,,,,,,,,,2,0,2,0,1,,,,,,,,,,,,,,,,,,,,,
,,,,,,,,,,,,5e99c5be1a0c87028c125183,23,Mężczyzna,2022-06-11_09h42.38.260,task,2021.1.4,Win32,60.10337781,6299f149e92ead563fba08ef,62a446cf1eaae6b8a67b619a,,,,,,,,,,,,,1,,,,,,,,,,Task,9,(3x7) - 20,1,,,,,,,,,,,,,,,,,,,1,,,,,,,,,,,,,,,,,,,,,,,"[""1""]",1,0,0,0,8,1,[0.9672999999522744],,,,,,,,,,,,,,,,,,,,,,,,,,
,,,,,,,,,,,X V Q F H G B L J M P D K C T S W R N Z,5e99c5be1a0c87028c125183,23,Mężczyzna,2022-06-11_09h42.38.260,task,2021.1.4,Win32,60.10337781,6299f149e92ead563fba08ef,62a446cf1eaae6b8a67b619a,,,,,,,,,,,,,,,,,,,,,,,,,,,,,,,,,,,,,,,,,,,,,,,,,,,,,,,,,,,,,,,,,,,,,,,,,,,,3,0,3,0,1,,,,,,,,,,,,,,,,,,,,,
,,,,,,,,,,,,5e99c5be1a0c87028c125183,23,Mężczyzna,2022-06-11_09h42.38.260,task,2021.1.4,Win32,60.10337781,6299f149e92ead563fba08ef,62a446cf1eaae6b8a67b619a,,,,,,,,,,,,,1,,,,,,,,,,Task,12,(4x4) - 11,5,,,,,,,,,,,,,,,,,,,0,,,,,,,,,,,,,,,,,,,,,,,"[""1""]",0,0,0,0,11,1,[1.8196000001430548],,,,,,,,,,,,,,,,,,,,,,,,,,
,,,,,,,,,,,,5e99c5be1a0c87028c125183,23,Mężczyzna,2022-06-11_09h42.38.260,task,2021.1.4,Win32,60.10337781,6299f149e92ead563fba08ef,62a446cf1eaae6b8a67b619a,,,,,,,,,,,,,3,,,,,,,,,,Task,3,(2x3) - 3,3,,,,,,,,,,,,,,,,,,,1,,,,,,,,,,,,,,,,,,,,,,,"[""3""]",1,0,1,1,2,1,[2.9342000000476673],,,,,,,,,,,,,,,,,,,,,,,,,,
,,,,,,,,,,,X V Q F H G B L J M P D K C T S W R N Z,5e99c5be1a0c87028c125183,23,Mężczyzna,2022-06-11_09h42.38.260,task,2021.1.4,Win32,60.10337781,6299f149e92ead563fba08ef,62a446cf1eaae6b8a67b619a,,,,,,,,,,,,,,,,,,,,,,,,,,,,,,,,,,,,,,,,,,,,,,,,,,,,,,,,,,,,,,,,,,,,,,,,,,,,4,0,4,0,1,,,,,,,,,,,,,,,,,,,,,
,,,,,,,,,,,,5e99c5be1a0c87028c125183,23,Mężczyzna,2022-06-11_09h42.38.260,task,2021.1.4,Win32,60.10337781,6299f149e92ead563fba08ef,62a446cf1eaae6b8a67b619a,,,,,,,,,,,,,4,,,,,,,,,,Task,28,(2x5) - 6,4,,,,,,,,,,,,,,,,,,,1,,,,,,,,,,,,,,,,,,,,,,,"[""4""]",1,0,0,0,27,1,[2.6392999999523],,,,,,,,,,,,,,,,,,,,,,,,,,
,,,,,,,,,,,X V Q F H G B L J M P D K C T S W R N Z,5e99c5be1a0c87028c125183,23,Mężczyzna,2022-06-11_09h42.38.260,task,2021.1.4,Win32,60.10337781,6299f149e92ead563fba08ef,62a446cf1eaae6b8a67b619a,,,,,,,,,,,,,,,,,,,,,,,,,,,,,,,,,,,,,,,,,,,,,,,,,,,,,,,,,,,,,,,,,,,,,,,,,,,,5,0,5,0,1,,,,,,,,,,,,,,,,,,,,,
,,,,,,,,,,,,5e99c5be1a0c87028c125183,23,Mężczyzna,2022-06-11_09h42.38.260,task,2021.1.4,Win32,60.10337781,6299f149e92ead563fba08ef,62a446cf1eaae6b8a67b619a,,,,,,,,,,,,,5,,,,,,,,,,Task,36,(8/4) + 3,5,,,,,,,,,,,,,,,,,,,1,,,,,,,,,,,,,,,,,,,,,,,"[""5""]",1,0,0,0,35,1,[2.728099999904657],,,,,,,,,,,,,,,,,,,,,,,,,,
,,,,,,,,,,,X V Q F H G B L J M P D K C T S W R N Z,5e99c5be1a0c87028c125183,23,Mężczyzna,2022-06-11_09h42.38.260,task,2021.1.4,Win32,60.10337781,6299f149e92ead563fba08ef,62a446cf1eaae6b8a67b619a,,,,,,,,,,,,,,,,,,,,,,,,,,,,,,,,,,,,,,,,,,,,,,,,,,,,,,,,,,,,,,,,,,,,,,,,,,,,6,0,6,0,1,,,,,,,,,,,,,,,,,,,,,
,,,,,,,,,,,,5e99c5be1a0c87028c125183,23,Mężczyzna,2022-06-11_09h42.38.260,task,2021.1.4,Win32,60.10337781,6299f149e92ead563fba08ef,62a446cf1eaae6b8a67b619a,,,,,,,,,,,,,6,,,,,,,,,,Task,37,(3/3) + 5,6,,,,,,,,,,,,,,,,,,,1,,,,,,,,,,,,,,,,,,,,,,,"[""6""]",1,0,0,0,36,1,[3.2627999999523354],,,,,,,,,,,,,,,,,,,,,,,,,,
,,,,,,,,,,,X V Q F H G B L J M P D K C T S W R N Z,5e99c5be1a0c87028c125183,23,Mężczyzna,2022-06-11_09h42.38.260,task,2021.1.4,Win32,60.10337781,6299f149e92ead563fba08ef,62a446cf1eaae6b8a67b619a,,,,,,,,,,,,,,,,,,,,,,,,,,,,,,,,,,,,,,,,,,,,,,,,,,,,,,,,,,,,,,,,,,,,,,,,,,,,7,0,7,0,1,,,,,,,,,,,,,,,,,,,,,
,,,,,,,,,,,,5e99c5be1a0c87028c125183,23,Mężczyzna,2022-06-11_09h42.38.260,task,2021.1.4,Win32,60.10337781,6299f149e92ead563fba08ef,62a446cf1eaae6b8a67b619a,,,,,,,,,,,,,,,,,,,,,,,,,,,,,,,,,,,,,,,,,,,,,,,,,,,,,,,,,,,,,,,,,,,,,,,,,,,,,,,,,bzmrkcx,"[""b"",""z"",""m"",""r"",""k"",""c"",""x""]",0,"[1.822399999856998,2.235399999857009,2.825399999856927,3.1989999999999554,3.6983999998569743,4.157199999809222,4.600799999952301,8.73419999980922]",0,BZMRKCXC,7,0,7,0,1,,,,,,,,,,
,,,,,,,,,,,,5e99c5be1a0c87028c125183,23,Mężczyzna,2022-06-11_09h42.38.260,task,2021.1.4,Win32,60.10337781,6299f149e92ead563fba08ef,62a446cf1eaae6b8a67b619a,,,,,,,,,,,,,0,,,,,,,,,,Task,17,(2x3) - 6,0,,,,,,,,,,,,,,,,,,,1,,,,,,,,,,,,,,,,,,,,,,,"[""0""]",1,0,0,0,16,1,[2.3413999998568897],,,,,,,,,,,,,,,,,,,,,,,,,,
,,,,,,,,,,,X V Q F H G B L J M P D K C T S W R N Z,5e99c5be1a0c87028c125183,23,Mężczyzna,2022-06-11_09h42.38.260,task,2021.1.4,Win32,60.10337781,6299f149e92ead563fba08ef,62a446cf1eaae6b8a67b619a,,,,,,,,,,,,,,,,,,,,,,,,,,,,,,,,,,,,,,,,,,,,,,,,,,,,,,,,,,,,,,,,,,,,,,,,,,,,0,0,0,0,1,,,,,,,,,,,,,,,,,,,,,
,,,,,,,,,,,,5e99c5be1a0c87028c125183,23,Mężczyzna,2022-06-11_09h42.38.260,task,2021.1.4,Win32,60.10337781,6299f149e92ead563fba08ef,62a446cf1eaae6b8a67b619a,,,,,,,,,,,,,,,,,,,,,,,Task,16,(3x8) - 15,9,,,,,,,,,,,,,,,,,,,0,,,,,,,,,,,,,,,,,,,,,,,,0,0,0,0,15,1,,,,,,,,,,,,,,,,,,,,,,,,,,,
,,,,,,,,,,,,5e99c5be1a0c87028c125183,23,Mężczyzna,2022-06-11_09h42.38.260,task,2021.1.4,Win32,60.10337781,6299f149e92ead563fba08ef,62a446cf1eaae6b8a67b619a,,,,,,,,,,,,,4,,,,,,,,,,Task,4,(1x5) - 1,4,,,,,,,,,,,,,,,,,,,1,,,,,,,,,,,,,,,,,,,,,,,"[""4""]",1,0,1,1,3,1,[3.052500000000009],,,,,,,,,,,,,,,,,,,,,,,,,,
,,,,,,,,,,,X V Q F H G B L J M P D K C T S W R N Z,5e99c5be1a0c87028c125183,23,Mężczyzna,2022-06-11_09h42.38.260,task,2021.1.4,Win32,60.10337781,6299f149e92ead563fba08ef,62a446cf1eaae6b8a67b619a,,,,,,,,,,,,,,,,,,,,,,,,,,,,,,,,,,,,,,,,,,,,,,,,,,,,,,,,,,,,,,,,,,,,,,,,,,,,1,0,1,0,1,,,,,,,,,,,,,,,,,,,,,
,,,,,,,,,,,,5e99c5be1a0c87028c125183,23,Mężczyzna,2022-06-11_09h42.38.260,task,2021.1.4,Win32,60.10337781,6299f149e92ead563fba08ef,62a446cf1eaae6b8a67b619a,,,,,,,,,,,,,1,,,,,,,,,,Task,1,(12/6) - 1,1,,,,,,,,,,,,,,,,,,,1,,,,,,,,,,,,,,,,,,,,,,,"[""1""]",1,0,0,0,0,1,[1.6775999999047144],,,,,,,,,,,,,,,,,,,,,,,,,,
,,,,,,,,,,,X V Q F H G B L J M P D K C T S W R N Z,5e99c5be1a0c87028c125183,23,Mężczyzna,2022-06-11_09h42.38.260,task,2021.1.4,Win32,60.10337781,6299f149e92ead563fba08ef,62a446cf1eaae6b8a67b619a,,,,,,,,,,,,,,,,,,,,,,,,,,,,,,,,,,,,,,,,,,,,,,,,,,,,,,,,,,,,,,,,,,,,,,,,,,,,2,0,2,0,1,,,,,,,,,,,,,,,,,,,,,
,,,,,,,,,,,,5e99c5be1a0c87028c125183,23,Mężczyzna,2022-06-11_09h42.38.260,task,2021.1.4,Win32,60.10337781,6299f149e92ead563fba08ef,62a446cf1eaae6b8a67b619a,,,,,,,,,,,,,9,,,,,,,,,,Task,7,(3x7) - 12,9,,,,,,,,,,,,,,,,,,,1,,,,,,,,,,,,,,,,,,,,,,,"[""9""]",1,0,0,0,6,1,[2.329499999999939],,,,,,,,,,,,,,,,,,,,,,,,,,
,,,,,,,,,,,X V Q F H G B L J M P D K C T S W R N Z,5e99c5be1a0c87028c125183,23,Mężczyzna,2022-06-11_09h42.38.260,task,2021.1.4,Win32,60.10337781,6299f149e92ead563fba08ef,62a446cf1eaae6b8a67b619a,,,,,,,,,,,,,,,,,,,,,,,,,,,,,,,,,,,,,,,,,,,,,,,,,,,,,,,,,,,,,,,,,,,,,,,,,,,,3,0,3,0,1,,,,,,,,,,,,,,,,,,,,,
,,,,,,,,,,,,5e99c5be1a0c87028c125183,23,Mężczyzna,2022-06-11_09h42.38.260,task,2021.1.4,Win32,60.10337781,6299f149e92ead563fba08ef,62a446cf1eaae6b8a67b619a,,,,,,,,,,,,,0,,,,,,,,,,Task,17,(2x3) - 6,0,,,,,,,,,,,,,,,,,,,1,,,,,,,,,,,,,,,,,,,,,,,"[""0""]",1,0,0,0,16,1,[1.961999999999989],,,,,,,,,,,,,,,,,,,,,,,,,,
,,,,,,,,,,,X V Q F H G B L J M P D K C T S W R N Z,5e99c5be1a0c87028c125183,23,Mężczyzna,2022-06-11_09h42.38.260,task,2021.1.4,Win32,60.10337781,6299f149e92ead563fba08ef,62a446cf1eaae6b8a67b619a,,,,,,,,,,,,,,,,,,,,,,,,,,,,,,,,,,,,,,,,,,,,,,,,,,,,,,,,,,,,,,,,,,,,,,,,,,,,4,0,4,0,1,,,,,,,,,,,,,,,,,,,,,
,,,,,,,,,,,,5e99c5be1a0c87028c125183,23,Mężczyzna,2022-06-11_09h42.38.260,task,2021.1.4,Win32,60.10337781,6299f149e92ead563fba08ef,62a446cf1eaae6b8a67b619a,,,,,,,,,,,,,9,,,,,,,,,,Task,16,(3x8) - 15,9,,,,,,,,,,,,,,,,,,,1,,,,,,,,,,,,,,,,,,,,,,,"[""9""]",1,0,0,0,15,1,[3.32779999995239],,,,,,,,,,,,,,,,,,,,,,,,,,
,,,,,,,,,,,X V Q F H G B L J M P D K C T S W R N Z,5e99c5be1a0c87028c125183,23,Mężczyzna,2022-06-11_09h42.38.260,task,2021.1.4,Win32,60.10337781,6299f149e92ead563fba08ef,62a446cf1eaae6b8a67b619a,,,,,,,,,,,,,,,,,,,,,,,,,,,,,,,,,,,,,,,,,,,,,,,,,,,,,,,,,,,,,,,,,,,,,,,,,,,,5,0,5,0,1,,,,,,,,,,,,,,,,,,,,,
,,,,,,,,,,,,5e99c5be1a0c87028c125183,23,Mężczyzna,2022-06-11_09h42.38.260,task,2021.1.4,Win32,60.10337781,6299f149e92ead563fba08ef,62a446cf1eaae6b8a67b619a,,,,,,,,,,,,,5,,,,,,,,,,Task,29,(3x8) - 19 ,5,,,,,,,,,,,,,,,,,,,1,,,,,,,,,,,,,,,,,,,,,,,"[""5""]",1,0,0,0,28,1,[3.587900000095374],,,,,,,,,,,,,,,,,,,,,,,,,,
,,,,,,,,,,,X V Q F H G B L J M P D K C T S W R N Z,5e99c5be1a0c87028c125183,23,Mężczyzna,2022-06-11_09h42.38.260,task,2021.1.4,Win32,60.10337781,6299f149e92ead563fba08ef,62a446cf1eaae6b8a67b619a,,,,,,,,,,,,,,,,,,,,,,,,,,,,,,,,,,,,,,,,,,,,,,,,,,,,,,,,,,,,,,,,,,,,,,,,,,,,6,0,6,0,1,,,,,,,,,,,,,,,,,,,,,
,,,,,,,,,,,,5e99c5be1a0c87028c125183,23,Mężczyzna,2022-06-11_09h42.38.260,task,2021.1.4,Win32,60.10337781,6299f149e92ead563fba08ef,62a446cf1eaae6b8a67b619a,,,,,,,,,,,,,4,,,,,,,,,,Task,21,(10/2) - 1,4,,,,,,,,,,,,,,,,,,,1,,,,,,,,,,,,,,,,,,,,,,,"[""4""]",1,0,0,0,20,1,[2.985500000000002],,,,,,,,,,,,,,,,,,,,,,,,,,
,,,,,,,,,,,X V Q F H G B L J M P D K C T S W R N Z,5e99c5be1a0c87028c125183,23,Mężczyzna,2022-06-11_09h42.38.260,task,2021.1.4,Win32,60.10337781,6299f149e92ead563fba08ef,62a446cf1eaae6b8a67b619a,,,,,,,,,,,,,,,,,,,,,,,,,,,,,,,,,,,,,,,,,,,,,,,,,,,,,,,,,,,,,,,,,,,,,,,,,,,,7,0,7,0,1,,,,,,,,,,,,,,,,,,,,,
,,,,,,,,,,,,5e99c5be1a0c87028c125183,23,Mężczyzna,2022-06-11_09h42.38.260,task,2021.1.4,Win32,60.10337781,6299f149e92ead563fba08ef,62a446cf1eaae6b8a67b619a,,,,,,,,,,,,,,,,,,,,,,,,,,,,,,,,,,,,,,,,,,,,,,,,,,,,,,,,,,,,,,,,,,,,,,,,,,,,,,,,,bzxkfdgl,"[""b"",""z"",""x"",""k"",""f"",""d"",""g"",""l""]",0,"[2.1020999999046808,2.6030000000000655,3.970299999952317,4.785700000047768,5.439799999952356,6.437899999856995,6.795299999952363,7.702399999856993,9.843299999952364]",1,BZXKFDGL,8,0,8,0,1,,,,,,,,,,
,,,,,,,,,,,,5e99c5be1a0c87028c125183,23,Mężczyzna,2022-06-11_09h42.38.260,task,2021.1.4,Win32,60.10337781,6299f149e92ead563fba08ef,62a446cf1eaae6b8a67b619a,,,,,,,,,,,,,6,,,,,,,,,,Task,13,(3x4) - 6,6,,,,,,,,,,,,,,,,,,,1,,,,,,,,,,,,,,,,,,,,,,,"[""6""]",1,0,0,0,12,1,[2.0994000000953292],,,,,,,,,,,,,,,,,,,,,,,,,,
,,,,,,,,,,,X V Q F H G B L J M P D K C T S W R N Z,5e99c5be1a0c87028c125183,23,Mężczyzna,2022-06-11_09h42.38.260,task,2021.1.4,Win32,60.10337781,6299f149e92ead563fba08ef,62a446cf1eaae6b8a67b619a,,,,,,,,,,,,,,,,,,,,,,,,,,,,,,,,,,,,,,,,,,,,,,,,,,,,,,,,,,,,,,,,,,,,,,,,,,,,0,0,0,0,1,,,,,,,,,,,,,,,,,,,,,
,,,,,,,,,,,,5e99c5be1a0c87028c125183,23,Mężczyzna,2022-06-11_09h42.38.260,task,2021.1.4,Win32,60.10337781,6299f149e92ead563fba08ef,62a446cf1eaae6b8a67b619a,,,,,,,,,,,,,0,,,,,,,,,,Task,8,(1x5) - 5,0,,,,,,,,,,,,,,,,,,,1,,,,,,,,,,,,,,,,,,,,,,,"[""0""]",1,0,0,0,7,1,[1.6642999999523909],,,,,,,,,,,,,,,,,,,,,,,,,,
,,,,,,,,,,,X V Q F H G B L J M P D K C T S W R N Z,5e99c5be1a0c87028c125183,23,Mężczyzna,2022-06-11_09h42.38.260,task,2021.1.4,Win32,60.10337781,6299f149e92ead563fba08ef,62a446cf1eaae6b8a67b619a,,,,,,,,,,,,,,,,,,,,,,,,,,,,,,,,,,,,,,,,,,,,,,,,,,,,,,,,,,,,,,,,,,,,,,,,,,,,1,0,1,0,1,,,,,,,,,,,,,,,,,,,,,
,,,,,,,,,,,,5e99c5be1a0c87028c125183,23,Mężczyzna,2022-06-11_09h42.38.260,task,2021.1.4,Win32,60.10337781,6299f149e92ead563fba08ef,62a446cf1eaae6b8a67b619a,,,,,,,,,,,,,6,,,,,,,,,,Task,13,(3x4) - 6,6,,,,,,,,,,,,,,,,,,,1,,,,,,,,,,,,,,,,,,,,,,,"[""6""]",1,0,0,0,12,1,[1.3618999998569734],,,,,,,,,,,,,,,,,,,,,,,,,,
,,,,,,,,,,,X V Q F H G B L J M P D K C T S W R N Z,5e99c5be1a0c87028c125183,23,Mężczyzna,2022-06-11_09h42.38.260,task,2021.1.4,Win32,60.10337781,6299f149e92ead563fba08ef,62a446cf1eaae6b8a67b619a,,,,,,,,,,,,,,,,,,,,,,,,,,,,,,,,,,,,,,,,,,,,,,,,,,,,,,,,,,,,,,,,,,,,,,,,,,,,2,0,2,0,1,,,,,,,,,,,,,,,,,,,,,
,,,,,,,,,,,,5e99c5be1a0c87028c125183,23,Mężczyzna,2022-06-11_09h42.38.260,task,2021.1.4,Win32,60.10337781,6299f149e92ead563fba08ef,62a446cf1eaae6b8a67b619a,,,,,,,,,,,,,1,,,,,,,,,,Task,34,(9/3) - 2,1,,,,,,,,,,,,,,,,,,,1,,,,,,,,,,,,,,,,,,,,,,,"[""1""]",1,0,0,0,33,1,[2.44500000000005],,,,,,,,,,,,,,,,,,,,,,,,,,
,,,,,,,,,,,X V Q F H G B L J M P D K C T S W R N Z,5e99c5be1a0c87028c125183,23,Mężczyzna,2022-06-11_09h42.38.260,task,2021.1.4,Win32,60.10337781,6299f149e92ead563fba08ef,62a446cf1eaae6b8a67b619a,,,,,,,,,,,,,,,,,,,,,,,,,,,,,,,,,,,,,,,,,,,,,,,,,,,,,,,,,,,,,,,,,,,,,,,,,,,,3,0,3,0,1,,,,,,,,,,,,,,,,,,,,,
,,,,,,,,,,,,5e99c5be1a0c87028c125183,23,Mężczyzna,2022-06-11_09h42.38.260,task,2021.1.4,Win32,60.10337781,6299f149e92ead563fba08ef,62a446cf1eaae6b8a67b619a,,,,,,,,,,,,,7,,,,,,,,,,Task,6,(12/2) + 1,7,,,,,,,,,,,,,,,,,,,1,,,,,,,,,,,,,,,,,,,,,,,"[""7""]",1,0,0,0,5,1,[2.5605000000000473],,,,,,,,,,,,,,,,,,,,,,,,,,
,,,,,,,,,,,X V Q F H G B L J M P D K C T S W R N Z,5e99c5be1a0c87028c125183,23,Mężczyzna,2022-06-11_09h42.38.260,task,2021.1.4,Win32,60.10337781,6299f149e92ead563fba08ef,62a446cf1eaae6b8a67b619a,,,,,,,,,,,,,,,,,,,,,,,,,,,,,,,,,,,,,,,,,,,,,,,,,,,,,,,,,,,,,,,,,,,,,,,,,,,,4,0,4,0,1,,,,,,,,,,,,,,,,,,,,,
,,,,,,,,,,,,5e99c5be1a0c87028c125183,23,Mężczyzna,2022-06-11_09h42.38.260,task,2021.1.4,Win32,60.10337781,6299f149e92ead563fba08ef,62a446cf1eaae6b8a67b619a,,,,,,,,,,,,,8,,,,,,,,,,Task,23,(2x3) + 2,8,,,,,,,,,,,,,,,,,,,1,,,,,,,,,,,,,,,,,,,,,,,"[""8""]",1,0,0,0,22,1,[4.3312000000477155],,,,,,,,,,,,,,,,,,,,,,,,,,
,,,,,,,,,,,X V Q F H G B L J M P D K C T S W R N Z,5e99c5be1a0c87028c125183,23,Mężczyzna,2022-06-11_09h42.38.260,task,2021.1.4,Win32,60.10337781,6299f149e92ead563fba08ef,62a446cf1eaae6b8a67b619a,,,,,,,,,,,,,,,,,,,,,,,,,,,,,,,,,,,,,,,,,,,,,,,,,,,,,,,,,,,,,,,,,,,,,,,,,,,,5,0,5,0,1,,,,,,,,,,,,,,,,,,,,,
,,,,,,,,,,,,5e99c5be1a0c87028c125183,23,Mężczyzna,2022-06-11_09h42.38.260,task,2021.1.4,Win32,60.10337781,6299f149e92ead563fba08ef,62a446cf1eaae6b8a67b619a,,,,,,,,,,,,,7,,,,,,,,,,Task,38,(4x6) - 17,7,,,,,,,,,,,,,,,,,,,1,,,,,,,,,,,,,,,,,,,,,,,"[""7""]",1,0,0,0,37,1,[3.5786000001429557],,,,,,,,,,,,,,,,,,,,,,,,,,
,,,,,,,,,,,X V Q F H G B L J M P D K C T S W R N Z,5e99c5be1a0c87028c125183,23,Mężczyzna,2022-06-11_09h42.38.260,task,2021.1.4,Win32,60.10337781,6299f149e92ead563fba08ef,62a446cf1eaae6b8a67b619a,,,,,,,,,,,,,,,,,,,,,,,,,,,,,,,,,,,,,,,,,,,,,,,,,,,,,,,,,,,,,,,,,,,,,,,,,,,,6,0,6,0,1,,,,,,,,,,,,,,,,,,,,,
,,,,,,,,,,,,5e99c5be1a0c87028c125183,23,Mężczyzna,2022-06-11_09h42.38.260,task,2021.1.4,Win32,60.10337781,6299f149e92ead563fba08ef,62a446cf1eaae6b8a67b619a,,,,,,,,,,,,,4,,,,,,,,,,Task,4,(1x5) - 1,4,,,,,,,,,,,,,,,,,,,1,,,,,,,,,,,,,,,,,,,,,,,"[""4""]",1,0,0,0,3,1,[1.9477999999523945],,,,,,,,,,,,,,,,,,,,,,,,,,
,,,,,,,,,,,X V Q F H G B L J M P D K C T S W R N Z,5e99c5be1a0c87028c125183,23,Mężczyzna,2022-06-11_09h42.38.260,task,2021.1.4,Win32,60.10337781,6299f149e92ead563fba08ef,62a446cf1eaae6b8a67b619a,,,,,,,,,,,,,,,,,,,,,,,,,,,,,,,,,,,,,,,,,,,,,,,,,,,,,,,,,,,,,,,,,,,,,,,,,,,,7,0,7,0,1,,,,,,,,,,,,,,,,,,,,,
,,,,,,,,,,,,5e99c5be1a0c87028c125183,23,Mężczyzna,2022-06-11_09h42.38.260,task,2021.1.4,Win32,60.10337781,6299f149e92ead563fba08ef,62a446cf1eaae6b8a67b619a,,,,,,,,,,,,,8,,,,,,,,,,Task,23,(2x3) + 2,8,,,,,,,,,,,,,,,,,,,1,,,,,,,,,,,,,,,,,,,,,,,"[""8""]",1,0,0,0,22,1,[1.9785000000000537],,,,,,,,,,,,,,,,,,,,,,,,,,
,,,,,,,,,,,X V Q F H G B L J M P D K C T S W R N Z,5e99c5be1a0c87028c125183,23,Mężczyzna,2022-06-11_09h42.38.260,task,2021.1.4,Win32,60.10337781,6299f149e92ead563fba08ef,62a446cf1eaae6b8a67b619a,,,,,,,,,,,,,,,,,,,,,,,,,,,,,,,,,,,,,,,,,,,,,,,,,,,,,,,,,,,,,,,,,,,,,,,,,,,,8,0,8,0,1,,,,,,,,,,,,,,,,,,,,,
,,,,,,,,,,,,5e99c5be1a0c87028c125183,23,Mężczyzna,2022-06-11_09h42.38.260,task,2021.1.4,Win32,60.10337781,6299f149e92ead563fba08ef,62a446cf1eaae6b8a67b619a,,,,,,,,,,,,,,,,,,,,,,,,,,,,,,,,,,,,,,,,,,,,,,,,,,,,,,,,,,,,,,,,,,,,,,,,,,,,,,,,,kwklwgpl,"[""k"",""w"",""k"",""l"",""w"",""g"",""p"",""l""]",0,"[1.8682999999523418,2.5526000001431157,4.2032000000477865,5.059200000047781,5.884500000000003,7.734000000000037,10.942799999952399,11.738500000000045,13.373500000000035]",0,QWKFWLGPF,9,0,9,0,1,,,,,,,,,,
,,,,,,,,,,,,5e99c5be1a0c87028c125183,23,Mężczyzna,2022-06-11_09h42.38.260,task,2021.1.4,Win32,60.10337781,6299f149e92ead563fba08ef,62a446cf1eaae6b8a67b619a,,,,,,,,,,,,,4,,,,,,,,,,Task,4,(1x5) - 1,4,,,,,,,,,,,,,,,,,,,1,,,,,,,,,,,,,,,,,,,,,,,"[""4""]",1,0,0,0,3,1,[1.4697999999522153],,,,,,,,,,,,,,,,,,,,,,,,,,
,,,,,,,,,,,X V Q F H G B L J M P D K C T S W R N Z,5e99c5be1a0c87028c125183,23,Mężczyzna,2022-06-11_09h42.38.260,task,2021.1.4,Win32,60.10337781,6299f149e92ead563fba08ef,62a446cf1eaae6b8a67b619a,,,,,,,,,,,,,,,,,,,,,,,,,,,,,,,,,,,,,,,,,,,,,,,,,,,,,,,,,,,,,,,,,,,,,,,,,,,,0,0,0,0,1,,,,,,,,,,,,,,,,,,,,,
,,,,,,,,,,,,5e99c5be1a0c87028c125183,23,Mężczyzna,2022-06-11_09h42.38.260,task,2021.1.4,Win32,60.10337781,6299f149e92ead563fba08ef,62a446cf1eaae6b8a67b619a,,,,,,,,,,,,,7,,,,,,,,,,Task,38,(4x6) - 17,7,,,,,,,,,,,,,,,,,,,1,,,,,,,,,,,,,,,,,,,,,,,"[""7""]",1,0,0,0,37,1,[2.0716999998093115],,,,,,,,,,,,,,,,,,,,,,,,,,
,,,,,,,,,,,X V Q F H G B L J M P D K C T S W R N Z,5e99c5be1a0c87028c125183,23,Mężczyzna,2022-06-11_09h42.38.260,task,2021.1.4,Win32,60.10337781,6299f149e92ead563fba08ef,62a446cf1eaae6b8a67b619a,,,,,,,,,,,,,,,,,,,,,,,,,,,,,,,,,,,,,,,,,,,,,,,,,,,,,,,,,,,,,,,,,,,,,,,,,,,,1,0,1,0,1,,,,,,,,,,,,,,,,,,,,,
,,,,,,,,,,,,5e99c5be1a0c87028c125183,23,Mężczyzna,2022-06-11_09h42.38.260,task,2021.1.4,Win32,60.10337781,6299f149e92ead563fba08ef,62a446cf1eaae6b8a67b619a,,,,,,,,,,,,,6,,,,,,,,,,Task,5,(2x3) + 0,6,,,,,,,,,,,,,,,,,,,1,,,,,,,,,,,,,,,,,,,,,,,"[""6""]",1,0,0,0,4,1,[1.554099999904679],,,,,,,,,,,,,,,,,,,,,,,,,,
,,,,,,,,,,,X V Q F H G B L J M P D K C T S W R N Z,5e99c5be1a0c87028c125183,23,Mężczyzna,2022-06-11_09h42.38.260,task,2021.1.4,Win32,60.10337781,6299f149e92ead563fba08ef,62a446cf1eaae6b8a67b619a,,,,,,,,,,,,,,,,,,,,,,,,,,,,,,,,,,,,,,,,,,,,,,,,,,,,,,,,,,,,,,,,,,,,,,,,,,,,2,0,2,0,1,,,,,,,,,,,,,,,,,,,,,
,,,,,,,,,,,,5e99c5be1a0c87028c125183,23,Mężczyzna,2022-06-11_09h42.38.260,task,2021.1.4,Win32,60.10337781,6299f149e92ead563fba08ef,62a446cf1eaae6b8a67b619a,,,,,,,,,,,,,6,,,,,,,,,,Task,5,(2x3) + 0,6,,,,,,,,,,,,,,,,,,,1,,,,,,,,,,,,,,,,,,,,,,,"[""6""]",1,0,0,0,4,1,[1.3732999999523372],,,,,,,,,,,,,,,,,,,,,,,,,,
,,,,,,,,,,,X V Q F H G B L J M P D K C T S W R N Z,5e99c5be1a0c87028c125183,23,Mężczyzna,2022-06-11_09h42.38.260,task,2021.1.4,Win32,60.10337781,6299f149e92ead563fba08ef,62a446cf1eaae6b8a67b619a,,,,,,,,,,,,,,,,,,,,,,,,,,,,,,,,,,,,,,,,,,,,,,,,,,,,,,,,,,,,,,,,,,,,,,,,,,,,3,0,3,0,1,,,,,,,,,,,,,,,,,,,,,
,,,,,,,,,,,,5e99c5be1a0c87028c125183,23,Mężczyzna,2022-06-11_09h42.38.260,task,2021.1.4,Win32,60.10337781,6299f149e92ead563fba08ef,62a446cf1eaae6b8a67b619a,,,,,,,,,,,,,7,,,,,,,,,,Task,6,(12/2) + 1,7,,,,,,,,,,,,,,,,,,,1,,,,,,,,,,,,,,,,,,,,,,,"[""7""]",1,0,0,0,5,1,[2.550999999999931],,,,,,,,,,,,,,,,,,,,,,,,,,
,,,,,,,,,,,X V Q F H G B L J M P D K C T S W R N Z,5e99c5be1a0c87028c125183,23,Mężczyzna,2022-06-11_09h42.38.260,task,2021.1.4,Win32,60.10337781,6299f149e92ead563fba08ef,62a446cf1eaae6b8a67b619a,,,,,,,,,,,,,,,,,,,,,,,,,,,,,,,,,,,,,,,,,,,,,,,,,,,,,,,,,,,,,,,,,,,,,,,,,,,,4,0,4,0,1,,,,,,,,,,,,,,,,,,,,,
,,,,,,,,,,,,5e99c5be1a0c87028c125183,23,Mężczyzna,2022-06-11_09h42.38.260,task,2021.1.4,Win32,60.10337781,6299f149e92ead563fba08ef,62a446cf1eaae6b8a67b619a,,,,,,,,,,,,,9,,,,,,,,,,Task,24,(2x2) + 5,9,,,,,,,,,,,,,,,,,,,1,,,,,,,,,,,,,,,,,,,,,,,"[""9""]",1,0,0,0,23,1,[2.8963000001906494],,,,,,,,,,,,,,,,,,,,,,,,,,
,,,,,,,,,,,X V Q F H G B L J M P D K C T S W R N Z,5e99c5be1a0c87028c125183,23,Mężczyzna,2022-06-11_09h42.38.260,task,2021.1.4,Win32,60.10337781,6299f149e92ead563fba08ef,62a446cf1eaae6b8a67b619a,,,,,,,,,,,,,,,,,,,,,,,,,,,,,,,,,,,,,,,,,,,,,,,,,,,,,,,,,,,,,,,,,,,,,,,,,,,,5,0,5,0,1,,,,,,,,,,,,,,,,,,,,,
,,,,,,,,,,,,5e99c5be1a0c87028c125183,23,Mężczyzna,2022-06-11_09h42.38.260,task,2021.1.4,Win32,60.10337781,6299f149e92ead563fba08ef,62a446cf1eaae6b8a67b619a,,,,,,,,,,,,,8,,,,,,,,,,Task,23,(2x3) + 2,8,,,,,,,,,,,,,,,,,,,1,,,,,,,,,,,,,,,,,,,,,,,"[""8""]",1,0,0,0,22,1,[2.2509999999999764],,,,,,,,,,,,,,,,,,,,,,,,,,
,,,,,,,,,,,X V Q F H G B L J M P D K C T S W R N Z,5e99c5be1a0c87028c125183,23,Mężczyzna,2022-06-11_09h42.38.260,task,2021.1.4,Win32,60.10337781,6299f149e92ead563fba08ef,62a446cf1eaae6b8a67b619a,,,,,,,,,,,,,,,,,,,,,,,,,,,,,,,,,,,,,,,,,,,,,,,,,,,,,,,,,,,,,,,,,,,,,,,,,,,,6,0,6,0,1,,,,,,,,,,,,,,,,,,,,,
,,,,,,,,,,,,5e99c5be1a0c87028c125183,23,Mężczyzna,2022-06-11_09h42.38.260,task,2021.1.4,Win32,60.10337781,6299f149e92ead563fba08ef,62a446cf1eaae6b8a67b619a,,,,,,,,,,,,,,,,,,,,,,,Task,30,(6/3) + 4 ,6,,,,,,,,,,,,,,,,,,,0,,,,,,,,,,,,,,,,,,,,,,,,0,0,0,0,29,1,,,,,,,,,,,,,,,,,,,,,,,,,,,
,,,,,,,,,,,,5e99c5be1a0c87028c125183,23,Mężczyzna,2022-06-11_09h42.38.260,task,2021.1.4,Win32,60.10337781,6299f149e92ead563fba08ef,62a446cf1eaae6b8a67b619a,,,,,,,,,,,,,4,,,,,,,,,,Task,8,(1x5) - 5,0,,,,,,,,,,,,,,,,,,,0,,,,,,,,,,,,,,,,,,,,,,,"[""4""]",0,0,1,1,7,1,[1.3841000001431212],,,,,,,,,,,,,,,,,,,,,,,,,,
,,,,,,,,,,,,5e99c5be1a0c87028c125183,23,Mężczyzna,2022-06-11_09h42.38.260,task,2021.1.4,Win32,60.10337781,6299f149e92ead563fba08ef,62a446cf1eaae6b8a67b619a,,,,,,,,,,,,,0,,,,,,,,,,Task,25,(10/5) - 2,0,,,,,,,,,,,,,,,,,,,1,,,,,,,,,,,,,,,,,,,,,,,"[""0""]",1,0,2,2,24,1,[3.55659999990462],,,,,,,,,,,,,,,,,,,,,,,,,,
,,,,,,,,,,,X V Q F H G B L J M P D K C T S W R N Z,5e99c5be1a0c87028c125183,23,Mężczyzna,2022-06-11_09h42.38.260,task,2021.1.4,Win32,60.10337781,6299f149e92ead563fba08ef,62a446cf1eaae6b8a67b619a,,,,,,,,,,,,,,,,,,,,,,,,,,,,,,,,,,,,,,,,,,,,,,,,,,,,,,,,,,,,,,,,,,,,,,,,,,,,7,0,7,0,1,,,,,,,,,,,,,,,,,,,,,
,,,,,,,,,,,,5e99c5be1a0c87028c125183,23,Mężczyzna,2022-06-11_09h42.38.260,task,2021.1.4,Win32,60.10337781,6299f149e92ead563fba08ef,62a446cf1eaae6b8a67b619a,,,,,,,,,,,,,8,,,,,,,,,,Task,15,(3x7) - 13,8,,,,,,,,,,,,,,,,,,,1,,,,,,,,,,,,,,,,,,,,,,,"[""8""]",1,0,0,0,14,1,[2.957200000047692],,,,,,,,,,,,,,,,,,,,,,,,,,
,,,,,,,,,,,X V Q F H G B L J M P D K C T S W R N Z,5e99c5be1a0c87028c125183,23,Mężczyzna,2022-06-11_09h42.38.260,task,2021.1.4,Win32,60.10337781,6299f149e92ead563fba08ef,62a446cf1eaae6b8a67b619a,,,,,,,,,,,,,,,,,,,,,,,,,,,,,,,,,,,,,,,,,,,,,,,,,,,,,,,,,,,,,,,,,,,,,,,,,,,,8,0,8,0,1,,,,,,,,,,,,,,,,,,,,,
,,,,,,,,,,,,5e99c5be1a0c87028c125183,23,Mężczyzna,2022-06-11_09h42.38.260,task,2021.1.4,Win32,60.10337781,6299f149e92ead563fba08ef,62a446cf1eaae6b8a67b619a,,,,,,,,,,,,,,,,,,,,,,,,,,,,,,,,,,,,,,,,,,,,,,,,,,,,,,,,,,,,,,,,,,,,,,,,,,,,,,,,,jqwtjxvg,"[""j"",""q"",""w"",""t"",""j"",""x"",""v"",""g""]",0,"[1.7273999998569707,3.7775999999046235,5.7837999999522935,7.364199999809216,8.443099999904575,9.376099999904682,10.85109999990459,14.832899999856977,17.481499999999983]",0,JQWTJXMVG,10,0,10,0,1,,,,,,,,,,
,,,,,,,,,,,,5e99c5be1a0c87028c125183,23,Mężczyzna,2022-06-11_09h42.38.260,task,2021.1.4,Win32,60.10337781,6299f149e92ead563fba08ef,62a446cf1eaae6b8a67b619a,,,,,,,,,,,,,,,,,,,,,,,,,,,,,,,,,,,,,,,,,,,,,,,,,,,,,,,,,,,,,,,,,,,,,,,,,,,,,,,,,,,,,,,,,,,,"[""comma""]",0,[1.1765000000000327],0,0,0,0,1,,
,,,,,,,,,,,,5e99c5be1a0c87028c125183,23,Mężczyzna,2022-06-11_09h42.38.260,task,2021.1.4,Win32,60.10337781,6299f149e92ead563fba08ef,62a446cf1eaae6b8a67b619a,,,,,,,,,,,,,,,,,,,,,,,,,,,,,,,,,,,,,,,,,,,,,,,,,,,,,,,,,,,,,,,,,,,,,,,,,,,,,,,,,,,,,,,,,,,,"[""period""]",0,[0.6856000001430402],1,0,1,0,1,,
,,,,,,,,,,,,5e99c5be1a0c87028c125183,23,Mężczyzna,2022-06-11_09h42.38.260,task,2021.1.4,Win32,60.10337781,6299f149e92ead563fba08ef,62a446cf1eaae6b8a67b619a,,,,,,,,,,,,,,,,,,,,,,,,,,,,,,,,,,,,,,,,,,,,,,,,,,,,,,,,,,,,,,,,,,,,,,,,,,,,,,,,,,,,,,,,,,,,"[""period""]",0,[0.4922999999523654],2,0,2,0,1,,
,,,,,,,,,,,,5e99c5be1a0c87028c125183,23,Mężczyzna,2022-06-11_09h42.38.260,task,2021.1.4,Win32,60.10337781,6299f149e92ead563fba08ef,62a446cf1eaae6b8a67b619a,,,,,,,,,,,,,,,,,,,,,,,,,,,,,,,,,,,,,,,,,,,,,,,,,,,,,,,,,,,,,,,,,,,,,,,,,,,,,,,,,,,,,,,,,,,,"[""comma""]",0,[0.40230000019073486],3,0,3,0,1,,
,,,,,,,,,,,,5e99c5be1a0c87028c125183,23,Mężczyzna,2022-06-11_09h42.38.260,task,2021.1.4,Win32,60.10337781,6299f149e92ead563fba08ef,62a446cf1eaae6b8a67b619a,,,,,,,,,,,,,,,,,,,,,,,,,,,,,,,,,,,,,,,,,,,,,,,,,,,,,,,,,,,,,,,,,,,,,,,,,,,,,,,,,,,,,,,,,,,,"[""comma""]",0,[0.4905999999045889],4,0,4,0,1,,
,,,,,,,,,,,,5e99c5be1a0c87028c125183,23,Mężczyzna,2022-06-11_09h42.38.260,task,2021.1.4,Win32,60.10337781,6299f149e92ead563fba08ef,62a446cf1eaae6b8a67b619a,,,,,,,,,,,,,,,,,,,,,,,,,,,,,,,,,,,,,,,,,,,,,,,,,,,,,,,,,,,,,,,,,,,,,,,,,,,,,,,,,,,,,,,,,,,,"[""period""]",0,[0.25470000004770554],5,0,5,0,1,,
,,,,,,,,,,,,5e99c5be1a0c87028c125183,23,Mężczyzna,2022-06-11_09h42.38.260,task,2021.1.4,Win32,60.10337781,6299f149e92ead563fba08ef,62a446cf1eaae6b8a67b619a,,,,,,,,,,,,,,,,,,,,,,,,,,,,,,,,,,,,,,,,,,,,,,,,,,,,,,,,,,,,,,,,,,,,,,,,,,,,,,,,,,,,,,,,,,,,"[""period""]",0,[0.3547000000477283],6,0,6,0,1,,
,,,,,,,,,,,,5e99c5be1a0c87028c125183,23,Mężczyzna,2022-06-11_09h42.38.260,task,2021.1.4,Win32,60.10337781,6299f149e92ead563fba08ef,62a446cf1eaae6b8a67b619a,,,,,,,,,,,,,,,,,,,,,,,,,,,,,,,,,,,,,,,,,,,,,,,,,,,,,,,,,,,,,,,,,,,,,,,,,,,,,,,,,,,,,,,,,,,,"[""period""]",0,[0.815799999952219],7,0,7,0,1,,
,,,,,,,,,,,,5e99c5be1a0c87028c125183,23,Mężczyzna,2022-06-11_09h42.38.260,task,2021.1.4,Win32,60.10337781,6299f149e92ead563fba08ef,62a446cf1eaae6b8a67b619a,,,,,,,,,,,,,,,,,,,,,,,,,,,,,,,,,,,,,,,,,,,,,,,,,,,,,,,,,,,,,,,,,,,,,,,,,,,,,,,,,,,,,,,,,,,,"[""period""]",0,[0.33240000009539017],8,0,8,0,1,,
,,,,,,,,,,,,5e99c5be1a0c87028c125183,23,Mężczyzna,2022-06-11_09h42.38.260,task,2021.1.4,Win32,60.10337781,6299f149e92ead563fba08ef,62a446cf1eaae6b8a67b619a,,,,,,,,,,,,,,,,,,,,,,,,,,,,,,,,,,,,,,,,,,,,,,,,,,,,,,,,,,,,,,,,,,,,,,,,,,,,,,,,,,,,,,,,,,,,"[""comma""]",0,[0.23889999985692612],9,0,9,0,1,,
,,,,,,,,,,,,5e99c5be1a0c87028c125183,23,Mężczyzna,2022-06-11_09h42.38.260,task,2021.1.4,Win32,60.10337781,6299f149e92ead563fba08ef,62a446cf1eaae6b8a67b619a,,,,,,,,,,,,,,,,,,,,,,,,,,,,,,,,,,,,,,,,,,,,,,,,,,,,,,,,,,,,,,,,,,,,,,,,,,,,,,,,,,,,,,,,,,,,"[""comma""]",0,[0.3327999999522717],10,0,10,0,1,,
