key_resp_15.keys,key_resp_15.rt,key_resp_16.keys,key_resp_16.rt,key_resp_4.keys,key_resp_4.rt,next_letter.thisRepN,next_letter.thisTrialN,next_letter.thisN,next_letter.thisIndex,next_letter.ran,letter,participant,Wiek*,Płeć,date,expName,psychopyVersion,OS,frameRate,study_id,session,simple_recall,key_resp_5.keys,key_resp_5.rt,simple_recall_corr,simple_recall_corrkeys,next_level.thisRepN,next_level.thisTrialN,next_level.thisN,next_level.thisIndex,next_level.ran,key_resp_2.keys,key_resp_2.rt,digit_answer,key_resp.keys,key_resp.corr,key_resp.rt,RT_list,next_equation.thisRepN,next_equation.thisTrialN,next_equation.thisN,next_equation.thisIndex,next_equation.ran,Task,Trial,Problem,Operation_answer,processing_score,sumRT,meanRT,sumdiff,sd,RT,key_resp_3.keys,key_resp_3.rt,repeat_practice.thisRepN,repeat_practice.thisTrialN,repeat_practice.thisN,repeat_practice.thisIndex,repeat_practice.ran,key_resp_6.keys,key_resp_6.rt,key_resp_11.keys,key_resp_11.corr,key_resp_11.rt,operation_correct,repeat_if_wrong_prac.thisRepN,repeat_if_wrong_prac.thisTrialN,repeat_if_wrong_prac.thisN,repeat_if_wrong_prac.thisIndex,repeat_if_wrong_prac.ran,span_size_prac.thisRepN,span_size_prac.thisTrialN,span_size_prac.thisN,span_size_prac.thisIndex,span_size_prac.ran,complex_recall_practice,key_resp_9.keys,key_resp_9.corr,key_resp_9.rt,complex_prac_corr,span_recall_prac.thisRepN,span_recall_prac.thisTrialN,span_recall_prac.thisN,span_recall_prac.thisIndex,span_recall_prac.ran,key_resp_10.keys,key_resp_10.rt,key_resp_7.keys,key_resp_7.corr,key_resp_7.rt,repeat_if_wrong.thisRepN,repeat_if_wrong.thisTrialN,repeat_if_wrong.thisN,repeat_if_wrong.thisIndex,repeat_if_wrong.ran,span_size.thisRepN,span_size.thisTrialN,span_size.thisN,span_size.thisIndex,span_size.ran,complex_recall,key_resp_8.keys,key_resp_8.corr,key_resp_8.rt,complex_recall_corr,complex_recall_corrkeys,span_recall.thisRepN,span_recall.thisTrialN,span_recall.thisN,span_recall.thisIndex,span_recall.ran,key_resp_13.keys,key_resp_13.corr,key_resp_13.rt,random_loop.thisRepN,random_loop.thisTrialN,random_loop.thisN,random_loop.thisIndex,random_loop.ran,key_resp_12.keys,key_resp_12.rt
space,12.9494,space,10.5887,space,5.4438,0,0,0,0,1,X V Q F H G B L J M P D K C T S W R N Z,5ea152aca876c6000aa73a2a,25,Kobieta,2022-06-11_09h30.47.096,task,2021.1.4,Win32,60.47046018,6299f149e92ead563fba08ef,62a4448301952eb9d49c6e8e,,,,,,,,,,,,,,,,,,,,,,,,,,,,,,,,,,,,,,,,,,,,,,,,,,,,,,,,,,,,,,,,,,,,,,,,,,,,,,,,,,,,,,,,,,,,,,,,,,,,,
,,,,,,1,0,1,0,1,X V Q F H G B L J M P D K C T S W R N Z,5ea152aca876c6000aa73a2a,25,Kobieta,2022-06-11_09h30.47.096,task,2021.1.4,Win32,60.47046018,6299f149e92ead563fba08ef,62a4448301952eb9d49c6e8e,,,,,,,,,,,,,,,,,,,,,,,,,,,,,,,,,,,,,,,,,,,,,,,,,,,,,,,,,,,,,,,,,,,,,,,,,,,,,,,,,,,,,,,,,,,,,,,,,,,,,
,,,,,,,,,,,,5ea152aca876c6000aa73a2a,25,Kobieta,2022-06-11_09h30.47.096,task,2021.1.4,Win32,60.47046018,6299f149e92ead563fba08ef,62a4448301952eb9d49c6e8e,zw,"[""z"",""w""]","[1.9699999999999989,2.7124999999999915,3.1558999999761568]",1,ZW,0,0,0,0,1,,,,,,,,,,,,,,,,,,,,,,,,,,,,,,,,,,,,,,,,,,,,,,,,,,,,,,,,,,,,,,,,,,,,,,,,,,,,,,,,,,,,,,,,,,,
,,,,,,0,0,0,0,1,X V Q F H G B L J M P D K C T S W R N Z,5ea152aca876c6000aa73a2a,25,Kobieta,2022-06-11_09h30.47.096,task,2021.1.4,Win32,60.47046018,6299f149e92ead563fba08ef,62a4448301952eb9d49c6e8e,,,,,,,,,,,,,,,,,,,,,,,,,,,,,,,,,,,,,,,,,,,,,,,,,,,,,,,,,,,,,,,,,,,,,,,,,,,,,,,,,,,,,,,,,,,,,,,,,,,,,
,,,,,,1,0,1,0,1,X V Q F H G B L J M P D K C T S W R N Z,5ea152aca876c6000aa73a2a,25,Kobieta,2022-06-11_09h30.47.096,task,2021.1.4,Win32,60.47046018,6299f149e92ead563fba08ef,62a4448301952eb9d49c6e8e,,,,,,,,,,,,,,,,,,,,,,,,,,,,,,,,,,,,,,,,,,,,,,,,,,,,,,,,,,,,,,,,,,,,,,,,,,,,,,,,,,,,,,,,,,,,,,,,,,,,,
,,,,,,,,,,,,5ea152aca876c6000aa73a2a,25,Kobieta,2022-06-11_09h30.47.096,task,2021.1.4,Win32,60.47046018,6299f149e92ead563fba08ef,62a4448301952eb9d49c6e8e,cl,"[""c"",""l""]","[1.2789999999999964,1.5743999999761655,2.1814999999999998]",1,CL,1,0,1,0,1,,,,,,,,,,,,,,,,,,,,,,,,,,,,,,,,,,,,,,,,,,,,,,,,,,,,,,,,,,,,,,,,,,,,,,,,,,,,,,,,,,,,,,,,,,,
,,,,,,0,0,0,0,1,X V Q F H G B L J M P D K C T S W R N Z,5ea152aca876c6000aa73a2a,25,Kobieta,2022-06-11_09h30.47.096,task,2021.1.4,Win32,60.47046018,6299f149e92ead563fba08ef,62a4448301952eb9d49c6e8e,,,,,,,,,,,,,,,,,,,,,,,,,,,,,,,,,,,,,,,,,,,,,,,,,,,,,,,,,,,,,,,,,,,,,,,,,,,,,,,,,,,,,,,,,,,,,,,,,,,,,
,,,,,,1,0,1,0,1,X V Q F H G B L J M P D K C T S W R N Z,5ea152aca876c6000aa73a2a,25,Kobieta,2022-06-11_09h30.47.096,task,2021.1.4,Win32,60.47046018,6299f149e92ead563fba08ef,62a4448301952eb9d49c6e8e,,,,,,,,,,,,,,,,,,,,,,,,,,,,,,,,,,,,,,,,,,,,,,,,,,,,,,,,,,,,,,,,,,,,,,,,,,,,,,,,,,,,,,,,,,,,,,,,,,,,,
,,,,,,2,0,2,0,1,X V Q F H G B L J M P D K C T S W R N Z,5ea152aca876c6000aa73a2a,25,Kobieta,2022-06-11_09h30.47.096,task,2021.1.4,Win32,60.47046018,6299f149e92ead563fba08ef,62a4448301952eb9d49c6e8e,,,,,,,,,,,,,,,,,,,,,,,,,,,,,,,,,,,,,,,,,,,,,,,,,,,,,,,,,,,,,,,,,,,,,,,,,,,,,,,,,,,,,,,,,,,,,,,,,,,,,
,,,,,,,,,,,,5ea152aca876c6000aa73a2a,25,Kobieta,2022-06-11_09h30.47.096,task,2021.1.4,Win32,60.47046018,6299f149e92ead563fba08ef,62a4448301952eb9d49c6e8e,jhl,"[""j"",""h"",""l""]","[1.503100000023835,1.8425000000000011,2.0108999999761608,2.6998999999761537]",1,JHL,2,0,2,0,1,,,,,,,,,,,,,,,,,,,,,,,,,,,,,,,,,,,,,,,,,,,,,,,,,,,,,,,,,,,,,,,,,,,,,,,,,,,,,,,,,,,,,,,,,,,
,,,,,,0,0,0,0,1,X V Q F H G B L J M P D K C T S W R N Z,5ea152aca876c6000aa73a2a,25,Kobieta,2022-06-11_09h30.47.096,task,2021.1.4,Win32,60.47046018,6299f149e92ead563fba08ef,62a4448301952eb9d49c6e8e,,,,,,,,,,,,,,,,,,,,,,,,,,,,,,,,,,,,,,,,,,,,,,,,,,,,,,,,,,,,,,,,,,,,,,,,,,,,,,,,,,,,,,,,,,,,,,,,,,,,,
,,,,,,1,0,1,0,1,X V Q F H G B L J M P D K C T S W R N Z,5ea152aca876c6000aa73a2a,25,Kobieta,2022-06-11_09h30.47.096,task,2021.1.4,Win32,60.47046018,6299f149e92ead563fba08ef,62a4448301952eb9d49c6e8e,,,,,,,,,,,,,,,,,,,,,,,,,,,,,,,,,,,,,,,,,,,,,,,,,,,,,,,,,,,,,,,,,,,,,,,,,,,,,,,,,,,,,,,,,,,,,,,,,,,,,
,,,,,,2,0,2,0,1,X V Q F H G B L J M P D K C T S W R N Z,5ea152aca876c6000aa73a2a,25,Kobieta,2022-06-11_09h30.47.096,task,2021.1.4,Win32,60.47046018,6299f149e92ead563fba08ef,62a4448301952eb9d49c6e8e,,,,,,,,,,,,,,,,,,,,,,,,,,,,,,,,,,,,,,,,,,,,,,,,,,,,,,,,,,,,,,,,,,,,,,,,,,,,,,,,,,,,,,,,,,,,,,,,,,,,,
,,,,,,,,,,,,5ea152aca876c6000aa73a2a,25,Kobieta,2022-06-11_09h30.47.096,task,2021.1.4,Win32,60.47046018,6299f149e92ead563fba08ef,62a4448301952eb9d49c6e8e,djc,"[""d"",""j"",""c""]","[1.3113999999761603,1.5243999999761684,1.6947999999523233,2.242599999904641]",1,DJC,3,0,3,0,1,,,,,,,,,,,,,,,,,,,,,,,,,,,,,,,,,,,,,,,,,,,,,,,,,,,,,,,,,,,,,,,,,,,,,,,,,,,,,,,,,,,,,,,,,,,
,,,,,,0,0,0,0,1,X V Q F H G B L J M P D K C T S W R N Z,5ea152aca876c6000aa73a2a,25,Kobieta,2022-06-11_09h30.47.096,task,2021.1.4,Win32,60.47046018,6299f149e92ead563fba08ef,62a4448301952eb9d49c6e8e,,,,,,,,,,,,,,,,,,,,,,,,,,,,,,,,,,,,,,,,,,,,,,,,,,,,,,,,,,,,,,,,,,,,,,,,,,,,,,,,,,,,,,,,,,,,,,,,,,,,,
,,,,,,1,0,1,0,1,X V Q F H G B L J M P D K C T S W R N Z,5ea152aca876c6000aa73a2a,25,Kobieta,2022-06-11_09h30.47.096,task,2021.1.4,Win32,60.47046018,6299f149e92ead563fba08ef,62a4448301952eb9d49c6e8e,,,,,,,,,,,,,,,,,,,,,,,,,,,,,,,,,,,,,,,,,,,,,,,,,,,,,,,,,,,,,,,,,,,,,,,,,,,,,,,,,,,,,,,,,,,,,,,,,,,,,
,,,,,,2,0,2,0,1,X V Q F H G B L J M P D K C T S W R N Z,5ea152aca876c6000aa73a2a,25,Kobieta,2022-06-11_09h30.47.096,task,2021.1.4,Win32,60.47046018,6299f149e92ead563fba08ef,62a4448301952eb9d49c6e8e,,,,,,,,,,,,,,,,,,,,,,,,,,,,,,,,,,,,,,,,,,,,,,,,,,,,,,,,,,,,,,,,,,,,,,,,,,,,,,,,,,,,,,,,,,,,,,,,,,,,,
,,,,,,3,0,3,0,1,X V Q F H G B L J M P D K C T S W R N Z,5ea152aca876c6000aa73a2a,25,Kobieta,2022-06-11_09h30.47.096,task,2021.1.4,Win32,60.47046018,6299f149e92ead563fba08ef,62a4448301952eb9d49c6e8e,,,,,,,,,,,,,,,,,,,,,,,,,,,,,,,,,,,,,,,,,,,,,,,,,,,,,,,,,,,,,,,,,,,,,,,,,,,,,,,,,,,,,,,,,,,,,,,,,,,,,
,,,,,,,,,,,,5ea152aca876c6000aa73a2a,25,Kobieta,2022-06-11_09h30.47.096,task,2021.1.4,Win32,60.47046018,6299f149e92ead563fba08ef,62a4448301952eb9d49c6e8e,fbzt,"[""f"",""b"",""z"",""t""]","[0.997100000023849,1.2946000000238485,1.5335000000000036,1.8330000000000126,2.5416000000238483]",1,FBZT,4,0,4,0,1,,,,,,,,,,,,,,,,,,,,,,,,,,,,,,,,,,,,,,,,,,,,,,,,,,,,,,,,,,,,,,,,,,,,,,,,,,,,,,,,,,,,,,,,,,,
,,,,,,0,0,0,0,1,X V Q F H G B L J M P D K C T S W R N Z,5ea152aca876c6000aa73a2a,25,Kobieta,2022-06-11_09h30.47.096,task,2021.1.4,Win32,60.47046018,6299f149e92ead563fba08ef,62a4448301952eb9d49c6e8e,,,,,,,,,,,,,,,,,,,,,,,,,,,,,,,,,,,,,,,,,,,,,,,,,,,,,,,,,,,,,,,,,,,,,,,,,,,,,,,,,,,,,,,,,,,,,,,,,,,,,
,,,,,,1,0,1,0,1,X V Q F H G B L J M P D K C T S W R N Z,5ea152aca876c6000aa73a2a,25,Kobieta,2022-06-11_09h30.47.096,task,2021.1.4,Win32,60.47046018,6299f149e92ead563fba08ef,62a4448301952eb9d49c6e8e,,,,,,,,,,,,,,,,,,,,,,,,,,,,,,,,,,,,,,,,,,,,,,,,,,,,,,,,,,,,,,,,,,,,,,,,,,,,,,,,,,,,,,,,,,,,,,,,,,,,,
,,,,,,2,0,2,0,1,X V Q F H G B L J M P D K C T S W R N Z,5ea152aca876c6000aa73a2a,25,Kobieta,2022-06-11_09h30.47.096,task,2021.1.4,Win32,60.47046018,6299f149e92ead563fba08ef,62a4448301952eb9d49c6e8e,,,,,,,,,,,,,,,,,,,,,,,,,,,,,,,,,,,,,,,,,,,,,,,,,,,,,,,,,,,,,,,,,,,,,,,,,,,,,,,,,,,,,,,,,,,,,,,,,,,,,
,,,,,,3,0,3,0,1,X V Q F H G B L J M P D K C T S W R N Z,5ea152aca876c6000aa73a2a,25,Kobieta,2022-06-11_09h30.47.096,task,2021.1.4,Win32,60.47046018,6299f149e92ead563fba08ef,62a4448301952eb9d49c6e8e,,,,,,,,,,,,,,,,,,,,,,,,,,,,,,,,,,,,,,,,,,,,,,,,,,,,,,,,,,,,,,,,,,,,,,,,,,,,,,,,,,,,,,,,,,,,,,,,,,,,,
,,,,,,,,,,,,5ea152aca876c6000aa73a2a,25,Kobieta,2022-06-11_09h30.47.096,task,2021.1.4,Win32,60.47046018,6299f149e92ead563fba08ef,62a4448301952eb9d49c6e8e,wjxf,"[""w"",""j"",""x"",""f""]","[1.0468000000715278,1.293899999976162,1.9236000000238391,2.19160000002384,2.5633000000715214]",1,WJXF,5,0,5,0,1,,,,,,,,,,,,,,,,,,,,,,,,,,,,,,,,,,,,,,,,,,,,,,,,,,,,,,,,,,,,,,,,,,,,,,,,,,,,,,,,,,,,,,,,,,,
,,,,,,0,0,0,0,1,X V Q F H G B L J M P D K C T S W R N Z,5ea152aca876c6000aa73a2a,25,Kobieta,2022-06-11_09h30.47.096,task,2021.1.4,Win32,60.47046018,6299f149e92ead563fba08ef,62a4448301952eb9d49c6e8e,,,,,,,,,,,,,,,,,,,,,,,,,,,,,,,,,,,,,,,,,,,,,,,,,,,,,,,,,,,,,,,,,,,,,,,,,,,,,,,,,,,,,,,,,,,,,,,,,,,,,
,,,,,,1,0,1,0,1,X V Q F H G B L J M P D K C T S W R N Z,5ea152aca876c6000aa73a2a,25,Kobieta,2022-06-11_09h30.47.096,task,2021.1.4,Win32,60.47046018,6299f149e92ead563fba08ef,62a4448301952eb9d49c6e8e,,,,,,,,,,,,,,,,,,,,,,,,,,,,,,,,,,,,,,,,,,,,,,,,,,,,,,,,,,,,,,,,,,,,,,,,,,,,,,,,,,,,,,,,,,,,,,,,,,,,,
,,,,,,2,0,2,0,1,X V Q F H G B L J M P D K C T S W R N Z,5ea152aca876c6000aa73a2a,25,Kobieta,2022-06-11_09h30.47.096,task,2021.1.4,Win32,60.47046018,6299f149e92ead563fba08ef,62a4448301952eb9d49c6e8e,,,,,,,,,,,,,,,,,,,,,,,,,,,,,,,,,,,,,,,,,,,,,,,,,,,,,,,,,,,,,,,,,,,,,,,,,,,,,,,,,,,,,,,,,,,,,,,,,,,,,
,,,,,,3,0,3,0,1,X V Q F H G B L J M P D K C T S W R N Z,5ea152aca876c6000aa73a2a,25,Kobieta,2022-06-11_09h30.47.096,task,2021.1.4,Win32,60.47046018,6299f149e92ead563fba08ef,62a4448301952eb9d49c6e8e,,,,,,,,,,,,,,,,,,,,,,,,,,,,,,,,,,,,,,,,,,,,,,,,,,,,,,,,,,,,,,,,,,,,,,,,,,,,,,,,,,,,,,,,,,,,,,,,,,,,,
,,,,,,4,0,4,0,1,X V Q F H G B L J M P D K C T S W R N Z,5ea152aca876c6000aa73a2a,25,Kobieta,2022-06-11_09h30.47.096,task,2021.1.4,Win32,60.47046018,6299f149e92ead563fba08ef,62a4448301952eb9d49c6e8e,,,,,,,,,,,,,,,,,,,,,,,,,,,,,,,,,,,,,,,,,,,,,,,,,,,,,,,,,,,,,,,,,,,,,,,,,,,,,,,,,,,,,,,,,,,,,,,,,,,,,
,,,,,,,,,,,,5ea152aca876c6000aa73a2a,25,Kobieta,2022-06-11_09h30.47.096,task,2021.1.4,Win32,60.47046018,6299f149e92ead563fba08ef,62a4448301952eb9d49c6e8e,mcsbh,"[""m"",""c"",""s"",""b"",""h""]","[0.7281999999284778,0.9953999999761578,4.541099999904631,5.0600999999046365,5.272199999928475,5.618899999976151]",1,MCSBH,6,0,6,0,1,,,,,,,,,,,,,,,,,,,,,,,,,,,,,,,,,,,,,,,,,,,,,,,,,,,,,,,,,,,,,,,,,,,,,,,,,,,,,,,,,,,,,,,,,,,
,,,,,,0,0,0,0,1,X V Q F H G B L J M P D K C T S W R N Z,5ea152aca876c6000aa73a2a,25,Kobieta,2022-06-11_09h30.47.096,task,2021.1.4,Win32,60.47046018,6299f149e92ead563fba08ef,62a4448301952eb9d49c6e8e,,,,,,,,,,,,,,,,,,,,,,,,,,,,,,,,,,,,,,,,,,,,,,,,,,,,,,,,,,,,,,,,,,,,,,,,,,,,,,,,,,,,,,,,,,,,,,,,,,,,,
,,,,,,1,0,1,0,1,X V Q F H G B L J M P D K C T S W R N Z,5ea152aca876c6000aa73a2a,25,Kobieta,2022-06-11_09h30.47.096,task,2021.1.4,Win32,60.47046018,6299f149e92ead563fba08ef,62a4448301952eb9d49c6e8e,,,,,,,,,,,,,,,,,,,,,,,,,,,,,,,,,,,,,,,,,,,,,,,,,,,,,,,,,,,,,,,,,,,,,,,,,,,,,,,,,,,,,,,,,,,,,,,,,,,,,
,,,,,,2,0,2,0,1,X V Q F H G B L J M P D K C T S W R N Z,5ea152aca876c6000aa73a2a,25,Kobieta,2022-06-11_09h30.47.096,task,2021.1.4,Win32,60.47046018,6299f149e92ead563fba08ef,62a4448301952eb9d49c6e8e,,,,,,,,,,,,,,,,,,,,,,,,,,,,,,,,,,,,,,,,,,,,,,,,,,,,,,,,,,,,,,,,,,,,,,,,,,,,,,,,,,,,,,,,,,,,,,,,,,,,,
,,,,,,3,0,3,0,1,X V Q F H G B L J M P D K C T S W R N Z,5ea152aca876c6000aa73a2a,25,Kobieta,2022-06-11_09h30.47.096,task,2021.1.4,Win32,60.47046018,6299f149e92ead563fba08ef,62a4448301952eb9d49c6e8e,,,,,,,,,,,,,,,,,,,,,,,,,,,,,,,,,,,,,,,,,,,,,,,,,,,,,,,,,,,,,,,,,,,,,,,,,,,,,,,,,,,,,,,,,,,,,,,,,,,,,
,,,,,,4,0,4,0,1,X V Q F H G B L J M P D K C T S W R N Z,5ea152aca876c6000aa73a2a,25,Kobieta,2022-06-11_09h30.47.096,task,2021.1.4,Win32,60.47046018,6299f149e92ead563fba08ef,62a4448301952eb9d49c6e8e,,,,,,,,,,,,,,,,,,,,,,,,,,,,,,,,,,,,,,,,,,,,,,,,,,,,,,,,,,,,,,,,,,,,,,,,,,,,,,,,,,,,,,,,,,,,,,,,,,,,,
,,,,,,,,,,,,5ea152aca876c6000aa73a2a,25,Kobieta,2022-06-11_09h30.47.096,task,2021.1.4,Win32,60.47046018,6299f149e92ead563fba08ef,62a4448301952eb9d49c6e8e,qgbcl,"[""q"",""g"",""b"",""c"",""l""]","[1.224099999904638,2.124799999952316,2.3326999999284794,2.7235000000000014,3.011199999928479,3.674099999904641]",1,QGBCL,7,0,7,0,1,,,,,,,,,,,,,,,,,,,,,,,,,,,,,,,,,,,,,,,,,,,,,,,,,,,,,,,,,,,,,,,,,,,,,,,,,,,,,,,,,,,,,,,,,,,
,,,,,,0,0,0,0,1,X V Q F H G B L J M P D K C T S W R N Z,5ea152aca876c6000aa73a2a,25,Kobieta,2022-06-11_09h30.47.096,task,2021.1.4,Win32,60.47046018,6299f149e92ead563fba08ef,62a4448301952eb9d49c6e8e,,,,,,,,,,,,,,,,,,,,,,,,,,,,,,,,,,,,,,,,,,,,,,,,,,,,,,,,,,,,,,,,,,,,,,,,,,,,,,,,,,,,,,,,,,,,,,,,,,,,,
,,,,,,1,0,1,0,1,X V Q F H G B L J M P D K C T S W R N Z,5ea152aca876c6000aa73a2a,25,Kobieta,2022-06-11_09h30.47.096,task,2021.1.4,Win32,60.47046018,6299f149e92ead563fba08ef,62a4448301952eb9d49c6e8e,,,,,,,,,,,,,,,,,,,,,,,,,,,,,,,,,,,,,,,,,,,,,,,,,,,,,,,,,,,,,,,,,,,,,,,,,,,,,,,,,,,,,,,,,,,,,,,,,,,,,
,,,,,,2,0,2,0,1,X V Q F H G B L J M P D K C T S W R N Z,5ea152aca876c6000aa73a2a,25,Kobieta,2022-06-11_09h30.47.096,task,2021.1.4,Win32,60.47046018,6299f149e92ead563fba08ef,62a4448301952eb9d49c6e8e,,,,,,,,,,,,,,,,,,,,,,,,,,,,,,,,,,,,,,,,,,,,,,,,,,,,,,,,,,,,,,,,,,,,,,,,,,,,,,,,,,,,,,,,,,,,,,,,,,,,,
,,,,,,3,0,3,0,1,X V Q F H G B L J M P D K C T S W R N Z,5ea152aca876c6000aa73a2a,25,Kobieta,2022-06-11_09h30.47.096,task,2021.1.4,Win32,60.47046018,6299f149e92ead563fba08ef,62a4448301952eb9d49c6e8e,,,,,,,,,,,,,,,,,,,,,,,,,,,,,,,,,,,,,,,,,,,,,,,,,,,,,,,,,,,,,,,,,,,,,,,,,,,,,,,,,,,,,,,,,,,,,,,,,,,,,
,,,,,,4,0,4,0,1,X V Q F H G B L J M P D K C T S W R N Z,5ea152aca876c6000aa73a2a,25,Kobieta,2022-06-11_09h30.47.096,task,2021.1.4,Win32,60.47046018,6299f149e92ead563fba08ef,62a4448301952eb9d49c6e8e,,,,,,,,,,,,,,,,,,,,,,,,,,,,,,,,,,,,,,,,,,,,,,,,,,,,,,,,,,,,,,,,,,,,,,,,,,,,,,,,,,,,,,,,,,,,,,,,,,,,,
,,,,,,5,0,5,0,1,X V Q F H G B L J M P D K C T S W R N Z,5ea152aca876c6000aa73a2a,25,Kobieta,2022-06-11_09h30.47.096,task,2021.1.4,Win32,60.47046018,6299f149e92ead563fba08ef,62a4448301952eb9d49c6e8e,,,,,,,,,,,,,,,,,,,,,,,,,,,,,,,,,,,,,,,,,,,,,,,,,,,,,,,,,,,,,,,,,,,,,,,,,,,,,,,,,,,,,,,,,,,,,,,,,,,,,
,,,,,,,,,,,,5ea152aca876c6000aa73a2a,25,Kobieta,2022-06-11_09h30.47.096,task,2021.1.4,Win32,60.47046018,6299f149e92ead563fba08ef,62a4448301952eb9d49c6e8e,rnpcpt,"[""r"",""n"",""p"",""c"",""p"",""t""]","[2.726200000047669,3.0563999999761506,4.286700000047688,5.358700000047662,6.451499999999982,6.731700000047681,7.858200000047674]",0,RNPCQT,8,0,8,0,1,,,,,,,,,,,,,,,,,,,,,,,,,,,,,,,,,,,,,,,,,,,,,,,,,,,,,,,,,,,,,,,,,,,,,,,,,,,,,,,,,,,,,,,,,,,
,,,,,,0,0,0,0,1,X V Q F H G B L J M P D K C T S W R N Z,5ea152aca876c6000aa73a2a,25,Kobieta,2022-06-11_09h30.47.096,task,2021.1.4,Win32,60.47046018,6299f149e92ead563fba08ef,62a4448301952eb9d49c6e8e,,,,,,,,,,,,,,,,,,,,,,,,,,,,,,,,,,,,,,,,,,,,,,,,,,,,,,,,,,,,,,,,,,,,,,,,,,,,,,,,,,,,,,,,,,,,,,,,,,,,,
,,,,,,1,0,1,0,1,X V Q F H G B L J M P D K C T S W R N Z,5ea152aca876c6000aa73a2a,25,Kobieta,2022-06-11_09h30.47.096,task,2021.1.4,Win32,60.47046018,6299f149e92ead563fba08ef,62a4448301952eb9d49c6e8e,,,,,,,,,,,,,,,,,,,,,,,,,,,,,,,,,,,,,,,,,,,,,,,,,,,,,,,,,,,,,,,,,,,,,,,,,,,,,,,,,,,,,,,,,,,,,,,,,,,,,
,,,,,,2,0,2,0,1,X V Q F H G B L J M P D K C T S W R N Z,5ea152aca876c6000aa73a2a,25,Kobieta,2022-06-11_09h30.47.096,task,2021.1.4,Win32,60.47046018,6299f149e92ead563fba08ef,62a4448301952eb9d49c6e8e,,,,,,,,,,,,,,,,,,,,,,,,,,,,,,,,,,,,,,,,,,,,,,,,,,,,,,,,,,,,,,,,,,,,,,,,,,,,,,,,,,,,,,,,,,,,,,,,,,,,,
,,,,,,3,0,3,0,1,X V Q F H G B L J M P D K C T S W R N Z,5ea152aca876c6000aa73a2a,25,Kobieta,2022-06-11_09h30.47.096,task,2021.1.4,Win32,60.47046018,6299f149e92ead563fba08ef,62a4448301952eb9d49c6e8e,,,,,,,,,,,,,,,,,,,,,,,,,,,,,,,,,,,,,,,,,,,,,,,,,,,,,,,,,,,,,,,,,,,,,,,,,,,,,,,,,,,,,,,,,,,,,,,,,,,,,
,,,,,,4,0,4,0,1,X V Q F H G B L J M P D K C T S W R N Z,5ea152aca876c6000aa73a2a,25,Kobieta,2022-06-11_09h30.47.096,task,2021.1.4,Win32,60.47046018,6299f149e92ead563fba08ef,62a4448301952eb9d49c6e8e,,,,,,,,,,,,,,,,,,,,,,,,,,,,,,,,,,,,,,,,,,,,,,,,,,,,,,,,,,,,,,,,,,,,,,,,,,,,,,,,,,,,,,,,,,,,,,,,,,,,,
,,,,,,5,0,5,0,1,X V Q F H G B L J M P D K C T S W R N Z,5ea152aca876c6000aa73a2a,25,Kobieta,2022-06-11_09h30.47.096,task,2021.1.4,Win32,60.47046018,6299f149e92ead563fba08ef,62a4448301952eb9d49c6e8e,,,,,,,,,,,,,,,,,,,,,,,,,,,,,,,,,,,,,,,,,,,,,,,,,,,,,,,,,,,,,,,,,,,,,,,,,,,,,,,,,,,,,,,,,,,,,,,,,,,,,
,,,,,,,,,,,,5ea152aca876c6000aa73a2a,25,Kobieta,2022-06-11_09h30.47.096,task,2021.1.4,Win32,60.47046018,6299f149e92ead563fba08ef,62a4448301952eb9d49c6e8e,zgvslc,"[""z"",""g"",""v"",""s"",""l"",""c""]","[1.8477000000476664,2.210000000000008,3.008700000047668,3.4982000000476887,3.8698999999761554,4.196600000023835,5.908799999952322]",1,ZGVSLC,9,0,9,0,1,,,,,,,,,,,,,,,,,,,,,,,,,,,,,,,,,,,,,,,,,,,,,,,,,,,,,,,,,,,,,,,,,,,,,,,,,,,,,,,,,,,,,,,,,,,
,,,,,,0,0,0,0,1,X V Q F H G B L J M P D K C T S W R N Z,5ea152aca876c6000aa73a2a,25,Kobieta,2022-06-11_09h30.47.096,task,2021.1.4,Win32,60.47046018,6299f149e92ead563fba08ef,62a4448301952eb9d49c6e8e,,,,,,,,,,,,,,,,,,,,,,,,,,,,,,,,,,,,,,,,,,,,,,,,,,,,,,,,,,,,,,,,,,,,,,,,,,,,,,,,,,,,,,,,,,,,,,,,,,,,,
,,,,,,1,0,1,0,1,X V Q F H G B L J M P D K C T S W R N Z,5ea152aca876c6000aa73a2a,25,Kobieta,2022-06-11_09h30.47.096,task,2021.1.4,Win32,60.47046018,6299f149e92ead563fba08ef,62a4448301952eb9d49c6e8e,,,,,,,,,,,,,,,,,,,,,,,,,,,,,,,,,,,,,,,,,,,,,,,,,,,,,,,,,,,,,,,,,,,,,,,,,,,,,,,,,,,,,,,,,,,,,,,,,,,,,
,,,,,,2,0,2,0,1,X V Q F H G B L J M P D K C T S W R N Z,5ea152aca876c6000aa73a2a,25,Kobieta,2022-06-11_09h30.47.096,task,2021.1.4,Win32,60.47046018,6299f149e92ead563fba08ef,62a4448301952eb9d49c6e8e,,,,,,,,,,,,,,,,,,,,,,,,,,,,,,,,,,,,,,,,,,,,,,,,,,,,,,,,,,,,,,,,,,,,,,,,,,,,,,,,,,,,,,,,,,,,,,,,,,,,,
,,,,,,3,0,3,0,1,X V Q F H G B L J M P D K C T S W R N Z,5ea152aca876c6000aa73a2a,25,Kobieta,2022-06-11_09h30.47.096,task,2021.1.4,Win32,60.47046018,6299f149e92ead563fba08ef,62a4448301952eb9d49c6e8e,,,,,,,,,,,,,,,,,,,,,,,,,,,,,,,,,,,,,,,,,,,,,,,,,,,,,,,,,,,,,,,,,,,,,,,,,,,,,,,,,,,,,,,,,,,,,,,,,,,,,
,,,,,,4,0,4,0,1,X V Q F H G B L J M P D K C T S W R N Z,5ea152aca876c6000aa73a2a,25,Kobieta,2022-06-11_09h30.47.096,task,2021.1.4,Win32,60.47046018,6299f149e92ead563fba08ef,62a4448301952eb9d49c6e8e,,,,,,,,,,,,,,,,,,,,,,,,,,,,,,,,,,,,,,,,,,,,,,,,,,,,,,,,,,,,,,,,,,,,,,,,,,,,,,,,,,,,,,,,,,,,,,,,,,,,,
,,,,,,5,0,5,0,1,X V Q F H G B L J M P D K C T S W R N Z,5ea152aca876c6000aa73a2a,25,Kobieta,2022-06-11_09h30.47.096,task,2021.1.4,Win32,60.47046018,6299f149e92ead563fba08ef,62a4448301952eb9d49c6e8e,,,,,,,,,,,,,,,,,,,,,,,,,,,,,,,,,,,,,,,,,,,,,,,,,,,,,,,,,,,,,,,,,,,,,,,,,,,,,,,,,,,,,,,,,,,,,,,,,,,,,
,,,,,,,,,,,,5ea152aca876c6000aa73a2a,25,Kobieta,2022-06-11_09h30.47.096,task,2021.1.4,Win32,60.47046018,6299f149e92ead563fba08ef,62a4448301952eb9d49c6e8e,dknmgf,"[""d"",""k"",""n"",""m"",""g"",""f""]","[1.4318999999761672,1.9296999999284878,2.2943999999761786,2.689899999976177,3.1585000000000036,3.671599999904629,6.065199999928495]",1,DKNMGF,10,0,10,0,1,,,,,,,,,,,,,,,,,,,,,,,,,,,,,,,,,,,,,,,,,,,,,,,,,,,,,,,,,,,,,,,,,,,,,,,,,,,,,,,,,,,,,,,,,,,
,,,,,,0,0,0,0,1,X V Q F H G B L J M P D K C T S W R N Z,5ea152aca876c6000aa73a2a,25,Kobieta,2022-06-11_09h30.47.096,task,2021.1.4,Win32,60.47046018,6299f149e92ead563fba08ef,62a4448301952eb9d49c6e8e,,,,,,,,,,,,,,,,,,,,,,,,,,,,,,,,,,,,,,,,,,,,,,,,,,,,,,,,,,,,,,,,,,,,,,,,,,,,,,,,,,,,,,,,,,,,,,,,,,,,,
,,,,,,1,0,1,0,1,X V Q F H G B L J M P D K C T S W R N Z,5ea152aca876c6000aa73a2a,25,Kobieta,2022-06-11_09h30.47.096,task,2021.1.4,Win32,60.47046018,6299f149e92ead563fba08ef,62a4448301952eb9d49c6e8e,,,,,,,,,,,,,,,,,,,,,,,,,,,,,,,,,,,,,,,,,,,,,,,,,,,,,,,,,,,,,,,,,,,,,,,,,,,,,,,,,,,,,,,,,,,,,,,,,,,,,
,,,,,,2,0,2,0,1,X V Q F H G B L J M P D K C T S W R N Z,5ea152aca876c6000aa73a2a,25,Kobieta,2022-06-11_09h30.47.096,task,2021.1.4,Win32,60.47046018,6299f149e92ead563fba08ef,62a4448301952eb9d49c6e8e,,,,,,,,,,,,,,,,,,,,,,,,,,,,,,,,,,,,,,,,,,,,,,,,,,,,,,,,,,,,,,,,,,,,,,,,,,,,,,,,,,,,,,,,,,,,,,,,,,,,,
,,,,,,3,0,3,0,1,X V Q F H G B L J M P D K C T S W R N Z,5ea152aca876c6000aa73a2a,25,Kobieta,2022-06-11_09h30.47.096,task,2021.1.4,Win32,60.47046018,6299f149e92ead563fba08ef,62a4448301952eb9d49c6e8e,,,,,,,,,,,,,,,,,,,,,,,,,,,,,,,,,,,,,,,,,,,,,,,,,,,,,,,,,,,,,,,,,,,,,,,,,,,,,,,,,,,,,,,,,,,,,,,,,,,,,
,,,,,,4,0,4,0,1,X V Q F H G B L J M P D K C T S W R N Z,5ea152aca876c6000aa73a2a,25,Kobieta,2022-06-11_09h30.47.096,task,2021.1.4,Win32,60.47046018,6299f149e92ead563fba08ef,62a4448301952eb9d49c6e8e,,,,,,,,,,,,,,,,,,,,,,,,,,,,,,,,,,,,,,,,,,,,,,,,,,,,,,,,,,,,,,,,,,,,,,,,,,,,,,,,,,,,,,,,,,,,,,,,,,,,,
,,,,,,5,0,5,0,1,X V Q F H G B L J M P D K C T S W R N Z,5ea152aca876c6000aa73a2a,25,Kobieta,2022-06-11_09h30.47.096,task,2021.1.4,Win32,60.47046018,6299f149e92ead563fba08ef,62a4448301952eb9d49c6e8e,,,,,,,,,,,,,,,,,,,,,,,,,,,,,,,,,,,,,,,,,,,,,,,,,,,,,,,,,,,,,,,,,,,,,,,,,,,,,,,,,,,,,,,,,,,,,,,,,,,,,
,,,,,,6,0,6,0,1,X V Q F H G B L J M P D K C T S W R N Z,5ea152aca876c6000aa73a2a,25,Kobieta,2022-06-11_09h30.47.096,task,2021.1.4,Win32,60.47046018,6299f149e92ead563fba08ef,62a4448301952eb9d49c6e8e,,,,,,,,,,,,,,,,,,,,,,,,,,,,,,,,,,,,,,,,,,,,,,,,,,,,,,,,,,,,,,,,,,,,,,,,,,,,,,,,,,,,,,,,,,,,,,,,,,,,,
,,,,,,,,,,,,5ea152aca876c6000aa73a2a,25,Kobieta,2022-06-11_09h30.47.096,task,2021.1.4,Win32,60.47046018,6299f149e92ead563fba08ef,62a4448301952eb9d49c6e8e,xqwgpfh,"[""x"",""q"",""w"",""g"",""p"",""f"",""h""]","[2.755699999928453,3.241799999952292,3.6059999999999945,4.005699999928453,4.4351999999284715,5.221899999976159,5.516399999976159,6.404699999928454]",1,XQWGPFH,11,0,11,0,1,,,,,,,,,,,,,,,,,,,,,,,,,,,,,,,,,,,,,,,,,,,,,,,,,,,,,,,,,,,,,,,,,,,,,,,,,,,,,,,,,,,,,,,,,,,
,,,,,,0,0,0,0,1,X V Q F H G B L J M P D K C T S W R N Z,5ea152aca876c6000aa73a2a,25,Kobieta,2022-06-11_09h30.47.096,task,2021.1.4,Win32,60.47046018,6299f149e92ead563fba08ef,62a4448301952eb9d49c6e8e,,,,,,,,,,,,,,,,,,,,,,,,,,,,,,,,,,,,,,,,,,,,,,,,,,,,,,,,,,,,,,,,,,,,,,,,,,,,,,,,,,,,,,,,,,,,,,,,,,,,,
,,,,,,1,0,1,0,1,X V Q F H G B L J M P D K C T S W R N Z,5ea152aca876c6000aa73a2a,25,Kobieta,2022-06-11_09h30.47.096,task,2021.1.4,Win32,60.47046018,6299f149e92ead563fba08ef,62a4448301952eb9d49c6e8e,,,,,,,,,,,,,,,,,,,,,,,,,,,,,,,,,,,,,,,,,,,,,,,,,,,,,,,,,,,,,,,,,,,,,,,,,,,,,,,,,,,,,,,,,,,,,,,,,,,,,
,,,,,,2,0,2,0,1,X V Q F H G B L J M P D K C T S W R N Z,5ea152aca876c6000aa73a2a,25,Kobieta,2022-06-11_09h30.47.096,task,2021.1.4,Win32,60.47046018,6299f149e92ead563fba08ef,62a4448301952eb9d49c6e8e,,,,,,,,,,,,,,,,,,,,,,,,,,,,,,,,,,,,,,,,,,,,,,,,,,,,,,,,,,,,,,,,,,,,,,,,,,,,,,,,,,,,,,,,,,,,,,,,,,,,,
,,,,,,3,0,3,0,1,X V Q F H G B L J M P D K C T S W R N Z,5ea152aca876c6000aa73a2a,25,Kobieta,2022-06-11_09h30.47.096,task,2021.1.4,Win32,60.47046018,6299f149e92ead563fba08ef,62a4448301952eb9d49c6e8e,,,,,,,,,,,,,,,,,,,,,,,,,,,,,,,,,,,,,,,,,,,,,,,,,,,,,,,,,,,,,,,,,,,,,,,,,,,,,,,,,,,,,,,,,,,,,,,,,,,,,
,,,,,,4,0,4,0,1,X V Q F H G B L J M P D K C T S W R N Z,5ea152aca876c6000aa73a2a,25,Kobieta,2022-06-11_09h30.47.096,task,2021.1.4,Win32,60.47046018,6299f149e92ead563fba08ef,62a4448301952eb9d49c6e8e,,,,,,,,,,,,,,,,,,,,,,,,,,,,,,,,,,,,,,,,,,,,,,,,,,,,,,,,,,,,,,,,,,,,,,,,,,,,,,,,,,,,,,,,,,,,,,,,,,,,,
,,,,,,5,0,5,0,1,X V Q F H G B L J M P D K C T S W R N Z,5ea152aca876c6000aa73a2a,25,Kobieta,2022-06-11_09h30.47.096,task,2021.1.4,Win32,60.47046018,6299f149e92ead563fba08ef,62a4448301952eb9d49c6e8e,,,,,,,,,,,,,,,,,,,,,,,,,,,,,,,,,,,,,,,,,,,,,,,,,,,,,,,,,,,,,,,,,,,,,,,,,,,,,,,,,,,,,,,,,,,,,,,,,,,,,
,,,,,,6,0,6,0,1,X V Q F H G B L J M P D K C T S W R N Z,5ea152aca876c6000aa73a2a,25,Kobieta,2022-06-11_09h30.47.096,task,2021.1.4,Win32,60.47046018,6299f149e92ead563fba08ef,62a4448301952eb9d49c6e8e,,,,,,,,,,,,,,,,,,,,,,,,,,,,,,,,,,,,,,,,,,,,,,,,,,,,,,,,,,,,,,,,,,,,,,,,,,,,,,,,,,,,,,,,,,,,,,,,,,,,,
,,,,,,,,,,,,5ea152aca876c6000aa73a2a,25,Kobieta,2022-06-11_09h30.47.096,task,2021.1.4,Win32,60.47046018,6299f149e92ead563fba08ef,62a4448301952eb9d49c6e8e,nkbtfxj,"[""n"",""k"",""b"",""t"",""f"",""x"",""j""]","[1.1333000000715003,1.3584000000953438,1.6507000000476637,3.891200000047661,4.1556000000238384,4.5449999999999875,4.90949999999998,6.1657000000476785]",1,NKBTFXJ,12,0,12,0,1,,,,,,,,,,,,,,,,,,,,,,,,,,,,,,,,,,,,,,,,,,,,,,,,,,,,,,,,,,,,,,,,,,,,,,,,,,,,,,,,,,,,,,,,,,,
,,,,,,0,0,0,0,1,X V Q F H G B L J M P D K C T S W R N Z,5ea152aca876c6000aa73a2a,25,Kobieta,2022-06-11_09h30.47.096,task,2021.1.4,Win32,60.47046018,6299f149e92ead563fba08ef,62a4448301952eb9d49c6e8e,,,,,,,,,,,,,,,,,,,,,,,,,,,,,,,,,,,,,,,,,,,,,,,,,,,,,,,,,,,,,,,,,,,,,,,,,,,,,,,,,,,,,,,,,,,,,,,,,,,,,
,,,,,,1,0,1,0,1,X V Q F H G B L J M P D K C T S W R N Z,5ea152aca876c6000aa73a2a,25,Kobieta,2022-06-11_09h30.47.096,task,2021.1.4,Win32,60.47046018,6299f149e92ead563fba08ef,62a4448301952eb9d49c6e8e,,,,,,,,,,,,,,,,,,,,,,,,,,,,,,,,,,,,,,,,,,,,,,,,,,,,,,,,,,,,,,,,,,,,,,,,,,,,,,,,,,,,,,,,,,,,,,,,,,,,,
,,,,,,2,0,2,0,1,X V Q F H G B L J M P D K C T S W R N Z,5ea152aca876c6000aa73a2a,25,Kobieta,2022-06-11_09h30.47.096,task,2021.1.4,Win32,60.47046018,6299f149e92ead563fba08ef,62a4448301952eb9d49c6e8e,,,,,,,,,,,,,,,,,,,,,,,,,,,,,,,,,,,,,,,,,,,,,,,,,,,,,,,,,,,,,,,,,,,,,,,,,,,,,,,,,,,,,,,,,,,,,,,,,,,,,
,,,,,,3,0,3,0,1,X V Q F H G B L J M P D K C T S W R N Z,5ea152aca876c6000aa73a2a,25,Kobieta,2022-06-11_09h30.47.096,task,2021.1.4,Win32,60.47046018,6299f149e92ead563fba08ef,62a4448301952eb9d49c6e8e,,,,,,,,,,,,,,,,,,,,,,,,,,,,,,,,,,,,,,,,,,,,,,,,,,,,,,,,,,,,,,,,,,,,,,,,,,,,,,,,,,,,,,,,,,,,,,,,,,,,,
,,,,,,4,0,4,0,1,X V Q F H G B L J M P D K C T S W R N Z,5ea152aca876c6000aa73a2a,25,Kobieta,2022-06-11_09h30.47.096,task,2021.1.4,Win32,60.47046018,6299f149e92ead563fba08ef,62a4448301952eb9d49c6e8e,,,,,,,,,,,,,,,,,,,,,,,,,,,,,,,,,,,,,,,,,,,,,,,,,,,,,,,,,,,,,,,,,,,,,,,,,,,,,,,,,,,,,,,,,,,,,,,,,,,,,
,,,,,,5,0,5,0,1,X V Q F H G B L J M P D K C T S W R N Z,5ea152aca876c6000aa73a2a,25,Kobieta,2022-06-11_09h30.47.096,task,2021.1.4,Win32,60.47046018,6299f149e92ead563fba08ef,62a4448301952eb9d49c6e8e,,,,,,,,,,,,,,,,,,,,,,,,,,,,,,,,,,,,,,,,,,,,,,,,,,,,,,,,,,,,,,,,,,,,,,,,,,,,,,,,,,,,,,,,,,,,,,,,,,,,,
,,,,,,6,0,6,0,1,X V Q F H G B L J M P D K C T S W R N Z,5ea152aca876c6000aa73a2a,25,Kobieta,2022-06-11_09h30.47.096,task,2021.1.4,Win32,60.47046018,6299f149e92ead563fba08ef,62a4448301952eb9d49c6e8e,,,,,,,,,,,,,,,,,,,,,,,,,,,,,,,,,,,,,,,,,,,,,,,,,,,,,,,,,,,,,,,,,,,,,,,,,,,,,,,,,,,,,,,,,,,,,,,,,,,,,
,,,,,,7,0,7,0,1,X V Q F H G B L J M P D K C T S W R N Z,5ea152aca876c6000aa73a2a,25,Kobieta,2022-06-11_09h30.47.096,task,2021.1.4,Win32,60.47046018,6299f149e92ead563fba08ef,62a4448301952eb9d49c6e8e,,,,,,,,,,,,,,,,,,,,,,,,,,,,,,,,,,,,,,,,,,,,,,,,,,,,,,,,,,,,,,,,,,,,,,,,,,,,,,,,,,,,,,,,,,,,,,,,,,,,,
,,,,,,,,,,,,5ea152aca876c6000aa73a2a,25,Kobieta,2022-06-11_09h30.47.096,task,2021.1.4,Win32,60.47046018,6299f149e92ead563fba08ef,62a4448301952eb9d49c6e8e,zptmjfjt,"[""z"",""p"",""t"",""m"",""j"",""f"",""j"",""t""]","[1.299600000023844,1.7602000000476892,2.126399999976144,2.508399999976149,2.8413999999761472,3.3246000000238496,3.6867000000476935,4.899499999999989,5.075399999976156]",0,ZPFMJVJQ,13,0,13,0,1,,,,,,,,,,,,,,,,,,,,,,,,,,,,,,,,,,,,,,,,,,,,,,,,,,,,,,,,,,,,,,,,,,,,,,,,,,,,,,,,,,,,,,,,,,,
,,,,,,0,0,0,0,1,X V Q F H G B L J M P D K C T S W R N Z,5ea152aca876c6000aa73a2a,25,Kobieta,2022-06-11_09h30.47.096,task,2021.1.4,Win32,60.47046018,6299f149e92ead563fba08ef,62a4448301952eb9d49c6e8e,,,,,,,,,,,,,,,,,,,,,,,,,,,,,,,,,,,,,,,,,,,,,,,,,,,,,,,,,,,,,,,,,,,,,,,,,,,,,,,,,,,,,,,,,,,,,,,,,,,,,
,,,,,,1,0,1,0,1,X V Q F H G B L J M P D K C T S W R N Z,5ea152aca876c6000aa73a2a,25,Kobieta,2022-06-11_09h30.47.096,task,2021.1.4,Win32,60.47046018,6299f149e92ead563fba08ef,62a4448301952eb9d49c6e8e,,,,,,,,,,,,,,,,,,,,,,,,,,,,,,,,,,,,,,,,,,,,,,,,,,,,,,,,,,,,,,,,,,,,,,,,,,,,,,,,,,,,,,,,,,,,,,,,,,,,,
,,,,,,2,0,2,0,1,X V Q F H G B L J M P D K C T S W R N Z,5ea152aca876c6000aa73a2a,25,Kobieta,2022-06-11_09h30.47.096,task,2021.1.4,Win32,60.47046018,6299f149e92ead563fba08ef,62a4448301952eb9d49c6e8e,,,,,,,,,,,,,,,,,,,,,,,,,,,,,,,,,,,,,,,,,,,,,,,,,,,,,,,,,,,,,,,,,,,,,,,,,,,,,,,,,,,,,,,,,,,,,,,,,,,,,
,,,,,,3,0,3,0,1,X V Q F H G B L J M P D K C T S W R N Z,5ea152aca876c6000aa73a2a,25,Kobieta,2022-06-11_09h30.47.096,task,2021.1.4,Win32,60.47046018,6299f149e92ead563fba08ef,62a4448301952eb9d49c6e8e,,,,,,,,,,,,,,,,,,,,,,,,,,,,,,,,,,,,,,,,,,,,,,,,,,,,,,,,,,,,,,,,,,,,,,,,,,,,,,,,,,,,,,,,,,,,,,,,,,,,,
,,,,,,4,0,4,0,1,X V Q F H G B L J M P D K C T S W R N Z,5ea152aca876c6000aa73a2a,25,Kobieta,2022-06-11_09h30.47.096,task,2021.1.4,Win32,60.47046018,6299f149e92ead563fba08ef,62a4448301952eb9d49c6e8e,,,,,,,,,,,,,,,,,,,,,,,,,,,,,,,,,,,,,,,,,,,,,,,,,,,,,,,,,,,,,,,,,,,,,,,,,,,,,,,,,,,,,,,,,,,,,,,,,,,,,
,,,,,,5,0,5,0,1,X V Q F H G B L J M P D K C T S W R N Z,5ea152aca876c6000aa73a2a,25,Kobieta,2022-06-11_09h30.47.096,task,2021.1.4,Win32,60.47046018,6299f149e92ead563fba08ef,62a4448301952eb9d49c6e8e,,,,,,,,,,,,,,,,,,,,,,,,,,,,,,,,,,,,,,,,,,,,,,,,,,,,,,,,,,,,,,,,,,,,,,,,,,,,,,,,,,,,,,,,,,,,,,,,,,,,,
,,,,,,6,0,6,0,1,X V Q F H G B L J M P D K C T S W R N Z,5ea152aca876c6000aa73a2a,25,Kobieta,2022-06-11_09h30.47.096,task,2021.1.4,Win32,60.47046018,6299f149e92ead563fba08ef,62a4448301952eb9d49c6e8e,,,,,,,,,,,,,,,,,,,,,,,,,,,,,,,,,,,,,,,,,,,,,,,,,,,,,,,,,,,,,,,,,,,,,,,,,,,,,,,,,,,,,,,,,,,,,,,,,,,,,
,,,,,,7,0,7,0,1,X V Q F H G B L J M P D K C T S W R N Z,5ea152aca876c6000aa73a2a,25,Kobieta,2022-06-11_09h30.47.096,task,2021.1.4,Win32,60.47046018,6299f149e92ead563fba08ef,62a4448301952eb9d49c6e8e,,,,,,,,,,,,,,,,,,,,,,,,,,,,,,,,,,,,,,,,,,,,,,,,,,,,,,,,,,,,,,,,,,,,,,,,,,,,,,,,,,,,,,,,,,,,,,,,,,,,,
,,,,,,,,,,,,5ea152aca876c6000aa73a2a,25,Kobieta,2022-06-11_09h30.47.096,task,2021.1.4,Win32,60.47046018,6299f149e92ead563fba08ef,62a4448301952eb9d49c6e8e,jtxngcgct,"[""j"",""t"",""x"",""n"",""g"",""c"",""g"",""c"",""t""]","[1.3293999999761752,1.8776999999284953,2.7591999999284837,3.4742999999523363,3.8170999999046558,4.5997999999523245,4.955099999904633,5.580699999928498,6.083099999904647,9.625299999952318]",0,JTXNGCGZ,14,0,14,0,1,,,,,,,,,,,,,,,,,,,,,,,,,,,,,,,,,,,,,,,,,,,,,,,,,,,,,,,,,,,,,,,,,,,,,,,,,,,,,,,,,,,,,,,,,,,
,,,,,,0,0,0,0,1,X V Q F H G B L J M P D K C T S W R N Z,5ea152aca876c6000aa73a2a,25,Kobieta,2022-06-11_09h30.47.096,task,2021.1.4,Win32,60.47046018,6299f149e92ead563fba08ef,62a4448301952eb9d49c6e8e,,,,,,,,,,,,,,,,,,,,,,,,,,,,,,,,,,,,,,,,,,,,,,,,,,,,,,,,,,,,,,,,,,,,,,,,,,,,,,,,,,,,,,,,,,,,,,,,,,,,,
,,,,,,1,0,1,0,1,X V Q F H G B L J M P D K C T S W R N Z,5ea152aca876c6000aa73a2a,25,Kobieta,2022-06-11_09h30.47.096,task,2021.1.4,Win32,60.47046018,6299f149e92ead563fba08ef,62a4448301952eb9d49c6e8e,,,,,,,,,,,,,,,,,,,,,,,,,,,,,,,,,,,,,,,,,,,,,,,,,,,,,,,,,,,,,,,,,,,,,,,,,,,,,,,,,,,,,,,,,,,,,,,,,,,,,
,,,,,,2,0,2,0,1,X V Q F H G B L J M P D K C T S W R N Z,5ea152aca876c6000aa73a2a,25,Kobieta,2022-06-11_09h30.47.096,task,2021.1.4,Win32,60.47046018,6299f149e92ead563fba08ef,62a4448301952eb9d49c6e8e,,,,,,,,,,,,,,,,,,,,,,,,,,,,,,,,,,,,,,,,,,,,,,,,,,,,,,,,,,,,,,,,,,,,,,,,,,,,,,,,,,,,,,,,,,,,,,,,,,,,,
,,,,,,3,0,3,0,1,X V Q F H G B L J M P D K C T S W R N Z,5ea152aca876c6000aa73a2a,25,Kobieta,2022-06-11_09h30.47.096,task,2021.1.4,Win32,60.47046018,6299f149e92ead563fba08ef,62a4448301952eb9d49c6e8e,,,,,,,,,,,,,,,,,,,,,,,,,,,,,,,,,,,,,,,,,,,,,,,,,,,,,,,,,,,,,,,,,,,,,,,,,,,,,,,,,,,,,,,,,,,,,,,,,,,,,
,,,,,,4,0,4,0,1,X V Q F H G B L J M P D K C T S W R N Z,5ea152aca876c6000aa73a2a,25,Kobieta,2022-06-11_09h30.47.096,task,2021.1.4,Win32,60.47046018,6299f149e92ead563fba08ef,62a4448301952eb9d49c6e8e,,,,,,,,,,,,,,,,,,,,,,,,,,,,,,,,,,,,,,,,,,,,,,,,,,,,,,,,,,,,,,,,,,,,,,,,,,,,,,,,,,,,,,,,,,,,,,,,,,,,,
,,,,,,5,0,5,0,1,X V Q F H G B L J M P D K C T S W R N Z,5ea152aca876c6000aa73a2a,25,Kobieta,2022-06-11_09h30.47.096,task,2021.1.4,Win32,60.47046018,6299f149e92ead563fba08ef,62a4448301952eb9d49c6e8e,,,,,,,,,,,,,,,,,,,,,,,,,,,,,,,,,,,,,,,,,,,,,,,,,,,,,,,,,,,,,,,,,,,,,,,,,,,,,,,,,,,,,,,,,,,,,,,,,,,,,
,,,,,,6,0,6,0,1,X V Q F H G B L J M P D K C T S W R N Z,5ea152aca876c6000aa73a2a,25,Kobieta,2022-06-11_09h30.47.096,task,2021.1.4,Win32,60.47046018,6299f149e92ead563fba08ef,62a4448301952eb9d49c6e8e,,,,,,,,,,,,,,,,,,,,,,,,,,,,,,,,,,,,,,,,,,,,,,,,,,,,,,,,,,,,,,,,,,,,,,,,,,,,,,,,,,,,,,,,,,,,,,,,,,,,,
,,,,,,7,0,7,0,1,X V Q F H G B L J M P D K C T S W R N Z,5ea152aca876c6000aa73a2a,25,Kobieta,2022-06-11_09h30.47.096,task,2021.1.4,Win32,60.47046018,6299f149e92ead563fba08ef,62a4448301952eb9d49c6e8e,,,,,,,,,,,,,,,,,,,,,,,,,,,,,,,,,,,,,,,,,,,,,,,,,,,,,,,,,,,,,,,,,,,,,,,,,,,,,,,,,,,,,,,,,,,,,,,,,,,,,
,,,,,,,,,,,,5ea152aca876c6000aa73a2a,25,Kobieta,2022-06-11_09h30.47.096,task,2021.1.4,Win32,60.47046018,6299f149e92ead563fba08ef,62a4448301952eb9d49c6e8e,wdfhjhzv,"[""w"",""d"",""f"",""h"",""j"",""h"",""z"",""v""]","[1.177099999904641,1.3942999999523238,3.1061999999284637,3.5247999999523074,3.820899999976149,4.137899999976156,4.79229999995232,5.186199999928476,11.085199999928477]",1,WDFHJHZV,15,0,15,0,1,,,,,,,,,,,,,,,,,,,,,,,,,,,,,,,,,,,,,,,,,,,,,,,,,,,,,,,,,,,,,,,,,,,,,,,,,,,,,,,,,,,,,,,,,,,
,,,,,,0,0,0,0,1,X V Q F H G B L J M P D K C T S W R N Z,5ea152aca876c6000aa73a2a,25,Kobieta,2022-06-11_09h30.47.096,task,2021.1.4,Win32,60.47046018,6299f149e92ead563fba08ef,62a4448301952eb9d49c6e8e,,,,,,,,,,,,,,,,,,,,,,,,,,,,,,,,,,,,,,,,,,,,,,,,,,,,,,,,,,,,,,,,,,,,,,,,,,,,,,,,,,,,,,,,,,,,,,,,,,,,,
,,,,,,1,0,1,0,1,X V Q F H G B L J M P D K C T S W R N Z,5ea152aca876c6000aa73a2a,25,Kobieta,2022-06-11_09h30.47.096,task,2021.1.4,Win32,60.47046018,6299f149e92ead563fba08ef,62a4448301952eb9d49c6e8e,,,,,,,,,,,,,,,,,,,,,,,,,,,,,,,,,,,,,,,,,,,,,,,,,,,,,,,,,,,,,,,,,,,,,,,,,,,,,,,,,,,,,,,,,,,,,,,,,,,,,
,,,,,,2,0,2,0,1,X V Q F H G B L J M P D K C T S W R N Z,5ea152aca876c6000aa73a2a,25,Kobieta,2022-06-11_09h30.47.096,task,2021.1.4,Win32,60.47046018,6299f149e92ead563fba08ef,62a4448301952eb9d49c6e8e,,,,,,,,,,,,,,,,,,,,,,,,,,,,,,,,,,,,,,,,,,,,,,,,,,,,,,,,,,,,,,,,,,,,,,,,,,,,,,,,,,,,,,,,,,,,,,,,,,,,,
,,,,,,3,0,3,0,1,X V Q F H G B L J M P D K C T S W R N Z,5ea152aca876c6000aa73a2a,25,Kobieta,2022-06-11_09h30.47.096,task,2021.1.4,Win32,60.47046018,6299f149e92ead563fba08ef,62a4448301952eb9d49c6e8e,,,,,,,,,,,,,,,,,,,,,,,,,,,,,,,,,,,,,,,,,,,,,,,,,,,,,,,,,,,,,,,,,,,,,,,,,,,,,,,,,,,,,,,,,,,,,,,,,,,,,
,,,,,,4,0,4,0,1,X V Q F H G B L J M P D K C T S W R N Z,5ea152aca876c6000aa73a2a,25,Kobieta,2022-06-11_09h30.47.096,task,2021.1.4,Win32,60.47046018,6299f149e92ead563fba08ef,62a4448301952eb9d49c6e8e,,,,,,,,,,,,,,,,,,,,,,,,,,,,,,,,,,,,,,,,,,,,,,,,,,,,,,,,,,,,,,,,,,,,,,,,,,,,,,,,,,,,,,,,,,,,,,,,,,,,,
,,,,,,5,0,5,0,1,X V Q F H G B L J M P D K C T S W R N Z,5ea152aca876c6000aa73a2a,25,Kobieta,2022-06-11_09h30.47.096,task,2021.1.4,Win32,60.47046018,6299f149e92ead563fba08ef,62a4448301952eb9d49c6e8e,,,,,,,,,,,,,,,,,,,,,,,,,,,,,,,,,,,,,,,,,,,,,,,,,,,,,,,,,,,,,,,,,,,,,,,,,,,,,,,,,,,,,,,,,,,,,,,,,,,,,
,,,,,,6,0,6,0,1,X V Q F H G B L J M P D K C T S W R N Z,5ea152aca876c6000aa73a2a,25,Kobieta,2022-06-11_09h30.47.096,task,2021.1.4,Win32,60.47046018,6299f149e92ead563fba08ef,62a4448301952eb9d49c6e8e,,,,,,,,,,,,,,,,,,,,,,,,,,,,,,,,,,,,,,,,,,,,,,,,,,,,,,,,,,,,,,,,,,,,,,,,,,,,,,,,,,,,,,,,,,,,,,,,,,,,,
,,,,,,7,0,7,0,1,X V Q F H G B L J M P D K C T S W R N Z,5ea152aca876c6000aa73a2a,25,Kobieta,2022-06-11_09h30.47.096,task,2021.1.4,Win32,60.47046018,6299f149e92ead563fba08ef,62a4448301952eb9d49c6e8e,,,,,,,,,,,,,,,,,,,,,,,,,,,,,,,,,,,,,,,,,,,,,,,,,,,,,,,,,,,,,,,,,,,,,,,,,,,,,,,,,,,,,,,,,,,,,,,,,,,,,
,,,,,,,,,,,,5ea152aca876c6000aa73a2a,25,Kobieta,2022-06-11_09h30.47.096,task,2021.1.4,Win32,60.47046018,6299f149e92ead563fba08ef,62a4448301952eb9d49c6e8e,sssxkfkxf,"[""s"",""s"",""s"",""x"",""k"",""f"",""k"",""x"",""f""]","[1.3296999999284935,1.6911000000238232,2.092199999928482,3.309399999976165,4.86099999999999,5.398500000000013,7.900199999928475,9.46969999992848,10.055499999999995,10.51629999995231]",0,SSSXKFXF,16,0,16,0,1,,,,,,,,,,,,,,,,,,,,,,,,,,,,,,,,,,,,,,,,,,,,,,,,,,,,,,,,,,,,,,,,,,,,,,,,,,,,,,,,,,,,,,,,,,,
,,,,,,,,,,,,5ea152aca876c6000aa73a2a,25,Kobieta,2022-06-11_09h30.47.096,task,2021.1.4,Win32,60.47046018,6299f149e92ead563fba08ef,62a4448301952eb9d49c6e8e,,,,,,,,,,,space,4.3041,1,"[""1""]",1,[2.54430000007153],[2.54430000007153],0,0,0,1,1,Practice,2,(4x4) - 15,1,,,,,,,,,,,,,,,,,,,,,,,,,,,,,,,,,,,,,,,,,,,,,,,,,,,,,,,,,,,,,,,,,,,,,,,,,,,
,,,,,,,,,,,,5ea152aca876c6000aa73a2a,25,Kobieta,2022-06-11_09h30.47.096,task,2021.1.4,Win32,60.47046018,6299f149e92ead563fba08ef,62a4448301952eb9d49c6e8e,,,,,,,,,,,,,8,"[""8""]",1,[1.9127999999523126],"[2.54430000007153,1.9127999999523126]",0,1,1,8,1,Practice,9,(3x3) - 1,8,,,,,,,,,,,,,,,,,,,,,,,,,,,,,,,,,,,,,,,,,,,,,,,,,,,,,,,,,,,,,,,,,,,,,,,,,,,
,,,,,,,,,,,,5ea152aca876c6000aa73a2a,25,Kobieta,2022-06-11_09h30.47.096,task,2021.1.4,Win32,60.47046018,6299f149e92ead563fba08ef,62a4448301952eb9d49c6e8e,,,,,,,,,,,,,9,"[""9""]",1,[3.131899999976156],"[2.54430000007153,1.9127999999523126,3.131899999976156]",0,2,2,9,1,Practice,10,(20/2) - 1,9,,,,,,,,,,,,,,,,,,,,,,,,,,,,,,,,,,,,,,,,,,,,,,,,,,,,,,,,,,,,,,,,,,,,,,,,,,,
,,,,,,,,,,,,5ea152aca876c6000aa73a2a,25,Kobieta,2022-06-11_09h30.47.096,task,2021.1.4,Win32,60.47046018,6299f149e92ead563fba08ef,62a4448301952eb9d49c6e8e,,,,,,,,,,,,,6,"[""6""]",1,[2.2267000000476855],"[2.54430000007153,1.9127999999523126,3.131899999976156,2.2267000000476855]",0,3,3,6,1,Practice,7,(25/5) + 1,6,,,,,,,,,,,,,,,,,,,,,,,,,,,,,,,,,,,,,,,,,,,,,,,,,,,,,,,,,,,,,,,,,,,,,,,,,,,
,,,,,,,,,,,,5ea152aca876c6000aa73a2a,25,Kobieta,2022-06-11_09h30.47.096,task,2021.1.4,Win32,60.47046018,6299f149e92ead563fba08ef,62a4448301952eb9d49c6e8e,,,,,,,,,,,,,7,"[""7""]",1,[2.2399000000953606],"[2.54430000007153,1.9127999999523126,3.131899999976156,2.2267000000476855,2.2399000000953606]",0,4,4,7,1,Practice,8,(5x5) - 18,7,,,,,,,,,,,,,,,,,,,,,,,,,,,,,,,,,,,,,,,,,,,,,,,,,,,,,,,,,,,,,,,,,,,,,,,,,,,
,,,,,,,,,,,,5ea152aca876c6000aa73a2a,25,Kobieta,2022-06-11_09h30.47.096,task,2021.1.4,Win32,60.47046018,6299f149e92ead563fba08ef,62a4448301952eb9d49c6e8e,,,,,,,,,,,,,4,"[""4""]",1,[2.2486999999284762],"[2.54430000007153,1.9127999999523126,3.131899999976156,2.2267000000476855,2.2399000000953606,2.2486999999284762]",0,5,5,4,1,Practice,5,(2x6) - 8,4,,,,,,,,,,,,,,,,,,,,,,,,,,,,,,,,,,,,,,,,,,,,,,,,,,,,,,,,,,,,,,,,,,,,,,,,,,,
,,,,,,,,,,,,5ea152aca876c6000aa73a2a,25,Kobieta,2022-06-11_09h30.47.096,task,2021.1.4,Win32,60.47046018,6299f149e92ead563fba08ef,62a4448301952eb9d49c6e8e,,,,,,,,,,,,,2,"[""2""]",1,[1.9335999999046294],"[2.54430000007153,1.9127999999523126,3.131899999976156,2.2267000000476855,2.2399000000953606,2.2486999999284762,1.9335999999046294]",0,6,6,2,1,Practice,3,(4x4) - 14,2,,,,,,,,,,,,,,,,,,,,,,,,,,,,,,,,,,,,,,,,,,,,,,,,,,,,,,,,,,,,,,,,,,,,,,,,,,,
,,,,,,,,,,,,5ea152aca876c6000aa73a2a,25,Kobieta,2022-06-11_09h30.47.096,task,2021.1.4,Win32,60.47046018,6299f149e92ead563fba08ef,62a4448301952eb9d49c6e8e,,,,,,,,,,,,,5,"[""5""]",1,[2.261399999976163],"[2.54430000007153,1.9127999999523126,3.131899999976156,2.2267000000476855,2.2399000000953606,2.2486999999284762,1.9335999999046294,2.261399999976163]",0,7,7,5,1,Practice,6,(4/2) + 3,5,,,,,,,,,,,,,,,,,,,,,,,,,,,,,,,,,,,,,,,,,,,,,,,,,,,,,,,,,,,,,,,,,,,,,,,,,,,
,,,,,,,,,,,,5ea152aca876c6000aa73a2a,25,Kobieta,2022-06-11_09h30.47.096,task,2021.1.4,Win32,60.47046018,6299f149e92ead563fba08ef,62a4448301952eb9d49c6e8e,,,,,,,,,,,,,3,"[""3""]",1,[1.8032999999522872],"[2.54430000007153,1.9127999999523126,3.131899999976156,2.2267000000476855,2.2399000000953606,2.2486999999284762,1.9335999999046294,2.261399999976163,1.8032999999522872]",0,8,8,3,1,Practice,4,(8/4) + 1,3,,,,,,,,,,,,,,,,,,,,,,,,,,,,,,,,,,,,,,,,,,,,,,,,,,,,,,,,,,,,,,,,,,,,,,,,,,,
,,,,,,,,,,,,5ea152aca876c6000aa73a2a,25,Kobieta,2022-06-11_09h30.47.096,task,2021.1.4,Win32,60.47046018,6299f149e92ead563fba08ef,62a4448301952eb9d49c6e8e,,,,,,,,,,,,,0,"[""0""]",1,[1.8464999999999918],"[2.54430000007153,1.9127999999523126,3.131899999976156,2.2267000000476855,2.2399000000953606,2.2486999999284762,1.9335999999046294,2.261399999976163,1.8032999999522872,1.8464999999999918]",0,9,9,0,1,Practice,1,(3x3) -  9,0,,,,,,,,,,,,,,,,,,,,,,,,,,,,,,,,,,,,,,,,,,,,,,,,,,,,,,,,,,,,,,,,,,,,,,,,,,,
,,,,,,,,,,,,5ea152aca876c6000aa73a2a,25,Kobieta,2022-06-11_09h30.47.096,task,2021.1.4,Win32,60.47046018,6299f149e92ead563fba08ef,62a4448301952eb9d49c6e8e,,,,,,,,,,,,,,,,,,,,,,,,,,,1,22.1491,1.476606667,6.879907629,0.677244792,3.223898231,space,0.9997,0,0,0,0,1,,,,,,,,,,,,,,,,,,,,,,,,,,,,,,,,,,,,,,,,,,,,,,,,,,,,,,,,,,,,,,
,,,,,,,,,,,,5ea152aca876c6000aa73a2a,25,Kobieta,2022-06-11_09h30.47.096,task,2021.1.4,Win32,60.47046018,6299f149e92ead563fba08ef,62a4448301952eb9d49c6e8e,,,,,,,,,,,,,4,,,,,,,,,,Practice,5,(2x6) - 8,4,,,,,,,,,,,,,,space,35.529,"[""4""]",1,[2.3634999999999877],1,0,0,0,4,1,,,,,,,,,,,,,,,,,,,,,,,,,,,,,,,,,,,,,,,,,,,,,,,,,,,
,,,,,,,,,,,X V Q F H G B L J M P D K C T S W R N Z,5ea152aca876c6000aa73a2a,25,Kobieta,2022-06-11_09h30.47.096,task,2021.1.4,Win32,60.47046018,6299f149e92ead563fba08ef,62a4448301952eb9d49c6e8e,,,,,,,,,,,,,,,,,,,,,,,,,,,,,,,,,,,,,,,,,,,,,,,,,,,0,0,0,0,1,,,,,,,,,,,,,,,,,,,,,,,,,,,,,,,,,,,,,,,,,,,,,,
,,,,,,,,,,,,5ea152aca876c6000aa73a2a,25,Kobieta,2022-06-11_09h30.47.096,task,2021.1.4,Win32,60.47046018,6299f149e92ead563fba08ef,62a4448301952eb9d49c6e8e,,,,,,,,,,,,,0,,,,,,,,,,Practice,1,(3x3) -  9,0,,,,,,,,,,,,,,,,"[""0""]",1,[1.7590000000000146],1,0,0,0,0,1,,,,,,,,,,,,,,,,,,,,,,,,,,,,,,,,,,,,,,,,,,,,,,,,,,,
,,,,,,,,,,,X V Q F H G B L J M P D K C T S W R N Z,5ea152aca876c6000aa73a2a,25,Kobieta,2022-06-11_09h30.47.096,task,2021.1.4,Win32,60.47046018,6299f149e92ead563fba08ef,62a4448301952eb9d49c6e8e,,,,,,,,,,,,,,,,,,,,,,,,,,,,,,,,,,,,,,,,,,,,,,,,,,,1,0,1,0,1,,,,,,,,,,,,,,,,,,,,,,,,,,,,,,,,,,,,,,,,,,,,,,
,,,,,,,,,,,,5ea152aca876c6000aa73a2a,25,Kobieta,2022-06-11_09h30.47.096,task,2021.1.4,Win32,60.47046018,6299f149e92ead563fba08ef,62a4448301952eb9d49c6e8e,,,,,,,,,,,,,,,,,,,,,,,,,,,,,,,,,,,,,,,,,,,,,,,,,,,,,,,,zj,"[""z"",""j""]",0,"[4.440600000023835,5.360500000000002,5.948399999976118]",1,0,0,0,0,1,,,,,,,,,,,,,,,,,,,,,,,,,,,,,,,,,,,,
,,,,,,,,,,,,5ea152aca876c6000aa73a2a,25,Kobieta,2022-06-11_09h30.47.096,task,2021.1.4,Win32,60.47046018,6299f149e92ead563fba08ef,62a4448301952eb9d49c6e8e,,,,,,,,,,,,,4,,,,,,,,,,Practice,5,(2x6) - 8,4,,,,,,,,,,,,,,,,"[""4""]",1,[2.692800000071543],1,0,0,0,4,1,,,,,,,,,,,,,,,,,,,,,,,,,,,,,,,,,,,,,,,,,,,,,,,,,,,
,,,,,,,,,,,X V Q F H G B L J M P D K C T S W R N Z,5ea152aca876c6000aa73a2a,25,Kobieta,2022-06-11_09h30.47.096,task,2021.1.4,Win32,60.47046018,6299f149e92ead563fba08ef,62a4448301952eb9d49c6e8e,,,,,,,,,,,,,,,,,,,,,,,,,,,,,,,,,,,,,,,,,,,,,,,,,,,0,0,0,0,1,,,,,,,,,,,,,,,,,,,,,,,,,,,,,,,,,,,,,,,,,,,,,,
,,,,,,,,,,,,5ea152aca876c6000aa73a2a,25,Kobieta,2022-06-11_09h30.47.096,task,2021.1.4,Win32,60.47046018,6299f149e92ead563fba08ef,62a4448301952eb9d49c6e8e,,,,,,,,,,,,,2,,,,,,,,,,Practice,3,(4x4) - 14,2,,,,,,,,,,,,,,,,"[""2""]",1,[2.0117000000476537],1,0,0,0,2,1,,,,,,,,,,,,,,,,,,,,,,,,,,,,,,,,,,,,,,,,,,,,,,,,,,,
,,,,,,,,,,,X V Q F H G B L J M P D K C T S W R N Z,5ea152aca876c6000aa73a2a,25,Kobieta,2022-06-11_09h30.47.096,task,2021.1.4,Win32,60.47046018,6299f149e92ead563fba08ef,62a4448301952eb9d49c6e8e,,,,,,,,,,,,,,,,,,,,,,,,,,,,,,,,,,,,,,,,,,,,,,,,,,,1,0,1,0,1,,,,,,,,,,,,,,,,,,,,,,,,,,,,,,,,,,,,,,,,,,,,,,
,,,,,,,,,,,,5ea152aca876c6000aa73a2a,25,Kobieta,2022-06-11_09h30.47.096,task,2021.1.4,Win32,60.47046018,6299f149e92ead563fba08ef,62a4448301952eb9d49c6e8e,,,,,,,,,,,,,,,,,,,,,,,,,,,,,,,,,,,,,,,,,,,,,,,,,,,,,,,,rw,"[""r"",""w""]",0,"[2.0330000000000155,2.260399999976187,2.974599999904626]",1,1,0,1,0,1,,,,,,,,,,,,,,,,,,,,,,,,,,,,,,,,,,,,
,,,,,,,,,,,,5ea152aca876c6000aa73a2a,25,Kobieta,2022-06-11_09h30.47.096,task,2021.1.4,Win32,60.47046018,6299f149e92ead563fba08ef,62a4448301952eb9d49c6e8e,,,,,,,,,,,,,4,,,,,,,,,,Practice,5,(2x6) - 8,4,,,,,,,,,,,,,,,,"[""4""]",1,[1.6501999999284749],1,0,0,0,4,1,,,,,,,,,,,,,,,,,,,,,,,,,,,,,,,,,,,,,,,,,,,,,,,,,,,
,,,,,,,,,,,X V Q F H G B L J M P D K C T S W R N Z,5ea152aca876c6000aa73a2a,25,Kobieta,2022-06-11_09h30.47.096,task,2021.1.4,Win32,60.47046018,6299f149e92ead563fba08ef,62a4448301952eb9d49c6e8e,,,,,,,,,,,,,,,,,,,,,,,,,,,,,,,,,,,,,,,,,,,,,,,,,,,0,0,0,0,1,,,,,,,,,,,,,,,,,,,,,,,,,,,,,,,,,,,,,,,,,,,,,,
,,,,,,,,,,,,5ea152aca876c6000aa73a2a,25,Kobieta,2022-06-11_09h30.47.096,task,2021.1.4,Win32,60.47046018,6299f149e92ead563fba08ef,62a4448301952eb9d49c6e8e,,,,,,,,,,,,,0,,,,,,,,,,Practice,1,(3x3) -  9,0,,,,,,,,,,,,,,,,"[""0""]",1,[1.6396000000238473],1,0,0,0,0,1,,,,,,,,,,,,,,,,,,,,,,,,,,,,,,,,,,,,,,,,,,,,,,,,,,,
,,,,,,,,,,,X V Q F H G B L J M P D K C T S W R N Z,5ea152aca876c6000aa73a2a,25,Kobieta,2022-06-11_09h30.47.096,task,2021.1.4,Win32,60.47046018,6299f149e92ead563fba08ef,62a4448301952eb9d49c6e8e,,,,,,,,,,,,,,,,,,,,,,,,,,,,,,,,,,,,,,,,,,,,,,,,,,,1,0,1,0,1,,,,,,,,,,,,,,,,,,,,,,,,,,,,,,,,,,,,,,,,,,,,,,
,,,,,,,,,,,,5ea152aca876c6000aa73a2a,25,Kobieta,2022-06-11_09h30.47.096,task,2021.1.4,Win32,60.47046018,6299f149e92ead563fba08ef,62a4448301952eb9d49c6e8e,,,,,,,,,,,,,,,,,,,,,,,,,,,,,,,,,,,,,,,,,,,,,,,,,,,,,,,,bc,"[""b"",""c""]",0,"[1.82029999995234,2.0986000000238505,2.9167999999523317]",1,2,0,2,0,1,,,,,,,,,,,,,,,,,,,,,,,,,,,,,,,,,,,,
,,,,,,,,,,,,5ea152aca876c6000aa73a2a,25,Kobieta,2022-06-11_09h30.47.096,task,2021.1.4,Win32,60.47046018,6299f149e92ead563fba08ef,62a4448301952eb9d49c6e8e,,,,,,,,,,,,,8,,,,,,,,,,Task,23,(2x3) + 2,8,,,,,,,,,,,,,,,,,,,1,,,,,,,,,,,,,,,,,,,,,space,10.9456,"[""8""]",1,[2.4680000000000177],0,0,0,22,1,,,,,,,,,,,,,,,,,,,,,,,,,,
,,,,,,,,,,,X V Q F H G B L J M P D K C T S W R N Z,5ea152aca876c6000aa73a2a,25,Kobieta,2022-06-11_09h30.47.096,task,2021.1.4,Win32,60.47046018,6299f149e92ead563fba08ef,62a4448301952eb9d49c6e8e,,,,,,,,,,,,,,,,,,,,,,,,,,,,,,,,,,,,,,,,,,,,,,,,,,,,,,,,,,,,,,,,,,,,,,,,,,,,0,0,0,0,1,,,,,,,,,,,,,,,,,,,,,
,,,,,,,,,,,,5ea152aca876c6000aa73a2a,25,Kobieta,2022-06-11_09h30.47.096,task,2021.1.4,Win32,60.47046018,6299f149e92ead563fba08ef,62a4448301952eb9d49c6e8e,,,,,,,,,,,,,,,,,,,,,,,Task,32,(8/2) + 4,8,,,,,,,,,,,,,,,,,,,0,,,,,,,,,,,,,,,,,,,,,,,,0,,0,0,0,31,1,,,,,,,,,,,,,,,,,,,,,,,,,,
,,,,,,,,,,,,5ea152aca876c6000aa73a2a,25,Kobieta,2022-06-11_09h30.47.096,task,2021.1.4,Win32,60.47046018,6299f149e92ead563fba08ef,62a4448301952eb9d49c6e8e,,,,,,,,,,,,,,,,,,,,,,,Task,37,(3/3) + 5,6,,,,,,,,,,,,,,,,,,,0,,,,,,,,,,,,,,,,,,,,,,,,0,,0,1,1,36,1,,,,,,,,,,,,,,,,,,,,,,,,,,
,,,,,,,,,,,,5ea152aca876c6000aa73a2a,25,Kobieta,2022-06-11_09h30.47.096,task,2021.1.4,Win32,60.47046018,6299f149e92ead563fba08ef,62a4448301952eb9d49c6e8e,,,,,,,,,,,,,8,,,,,,,,,,Task,39,(5x3) - 7,8,,,,,,,,,,,,,,,,,,,1,,,,,,,,,,,,,,,,,,,,,,,"[""8""]",1,[1.5971999999284776],0,2,2,38,1,,,,,,,,,,,,,,,,,,,,,,,,,,
,,,,,,,,,,,X V Q F H G B L J M P D K C T S W R N Z,5ea152aca876c6000aa73a2a,25,Kobieta,2022-06-11_09h30.47.096,task,2021.1.4,Win32,60.47046018,6299f149e92ead563fba08ef,62a4448301952eb9d49c6e8e,,,,,,,,,,,,,,,,,,,,,,,,,,,,,,,,,,,,,,,,,,,,,,,,,,,,,,,,,,,,,,,,,,,,,,,,,,,,1,0,1,0,1,,,,,,,,,,,,,,,,,,,,,
,,,,,,,,,,,,5ea152aca876c6000aa73a2a,25,Kobieta,2022-06-11_09h30.47.096,task,2021.1.4,Win32,60.47046018,6299f149e92ead563fba08ef,62a4448301952eb9d49c6e8e,,,,,,,,,,,,,,,,,,,,,,,,,,,,,,,,,,,,,,,,,,,,,,,,,,,,,,,,,,,,,,,,,,,,,,,,,,,,,,,,,zh,"[""z"",""h""]",0,"[1.7646000000238473,2.093899999976145,2.6092000000476787]",1,ZH,0,0,0,0,1,,,,,,,,,,
,,,,,,,,,,,,5ea152aca876c6000aa73a2a,25,Kobieta,2022-06-11_09h30.47.096,task,2021.1.4,Win32,60.47046018,6299f149e92ead563fba08ef,62a4448301952eb9d49c6e8e,,,,,,,,,,,,,5,,,,,,,,,,Task,12,(4x4) - 11,5,,,,,,,,,,,,,,,,,,,1,,,,,,,,,,,,,,,,,,,,,,,"[""5""]",1,[1.3942000000477037],0,0,0,11,1,,,,,,,,,,,,,,,,,,,,,,,,,,
,,,,,,,,,,,X V Q F H G B L J M P D K C T S W R N Z,5ea152aca876c6000aa73a2a,25,Kobieta,2022-06-11_09h30.47.096,task,2021.1.4,Win32,60.47046018,6299f149e92ead563fba08ef,62a4448301952eb9d49c6e8e,,,,,,,,,,,,,,,,,,,,,,,,,,,,,,,,,,,,,,,,,,,,,,,,,,,,,,,,,,,,,,,,,,,,,,,,,,,,0,0,0,0,1,,,,,,,,,,,,,,,,,,,,,
,,,,,,,,,,,,5ea152aca876c6000aa73a2a,25,Kobieta,2022-06-11_09h30.47.096,task,2021.1.4,Win32,60.47046018,6299f149e92ead563fba08ef,62a4448301952eb9d49c6e8e,,,,,,,,,,,,,2,,,,,,,,,,Task,2,(2x2) - 2,2,,,,,,,,,,,,,,,,,,,1,,,,,,,,,,,,,,,,,,,,,,,"[""2""]",1,[1.2801999999284703],0,0,0,1,1,,,,,,,,,,,,,,,,,,,,,,,,,,
,,,,,,,,,,,X V Q F H G B L J M P D K C T S W R N Z,5ea152aca876c6000aa73a2a,25,Kobieta,2022-06-11_09h30.47.096,task,2021.1.4,Win32,60.47046018,6299f149e92ead563fba08ef,62a4448301952eb9d49c6e8e,,,,,,,,,,,,,,,,,,,,,,,,,,,,,,,,,,,,,,,,,,,,,,,,,,,,,,,,,,,,,,,,,,,,,,,,,,,,1,0,1,0,1,,,,,,,,,,,,,,,,,,,,,
,,,,,,,,,,,,5ea152aca876c6000aa73a2a,25,Kobieta,2022-06-11_09h30.47.096,task,2021.1.4,Win32,60.47046018,6299f149e92ead563fba08ef,62a4448301952eb9d49c6e8e,,,,,,,,,,,,,5,,,,,,,,,,Task,36,(8/4) + 3,5,,,,,,,,,,,,,,,,,,,1,,,,,,,,,,,,,,,,,,,,,,,"[""5""]",1,[1.4667999999523431],0,0,0,35,1,,,,,,,,,,,,,,,,,,,,,,,,,,
,,,,,,,,,,,X V Q F H G B L J M P D K C T S W R N Z,5ea152aca876c6000aa73a2a,25,Kobieta,2022-06-11_09h30.47.096,task,2021.1.4,Win32,60.47046018,6299f149e92ead563fba08ef,62a4448301952eb9d49c6e8e,,,,,,,,,,,,,,,,,,,,,,,,,,,,,,,,,,,,,,,,,,,,,,,,,,,,,,,,,,,,,,,,,,,,,,,,,,,,2,0,2,0,1,,,,,,,,,,,,,,,,,,,,,
,,,,,,,,,,,,5ea152aca876c6000aa73a2a,25,Kobieta,2022-06-11_09h30.47.096,task,2021.1.4,Win32,60.47046018,6299f149e92ead563fba08ef,62a4448301952eb9d49c6e8e,,,,,,,,,,,,,,,,,,,,,,,,,,,,,,,,,,,,,,,,,,,,,,,,,,,,,,,,,,,,,,,,,,,,,,,,,,,,,,,,,kll,"[""k"",""l"",""l""]",0,"[1.7527999999523445,1.9220000000000255,2.081199999928458,2.6505999999046708]",1,KLL,1,0,1,0,1,,,,,,,,,,
,,,,,,,,,,,,5ea152aca876c6000aa73a2a,25,Kobieta,2022-06-11_09h30.47.096,task,2021.1.4,Win32,60.47046018,6299f149e92ead563fba08ef,62a4448301952eb9d49c6e8e,,,,,,,,,,,,,4,,,,,,,,,,Task,21,(10/2) - 1,4,,,,,,,,,,,,,,,,,,,1,,,,,,,,,,,,,,,,,,,,,,,"[""4""]",1,[2.0609999999999786],0,0,0,20,1,,,,,,,,,,,,,,,,,,,,,,,,,,
,,,,,,,,,,,X V Q F H G B L J M P D K C T S W R N Z,5ea152aca876c6000aa73a2a,25,Kobieta,2022-06-11_09h30.47.096,task,2021.1.4,Win32,60.47046018,6299f149e92ead563fba08ef,62a4448301952eb9d49c6e8e,,,,,,,,,,,,,,,,,,,,,,,,,,,,,,,,,,,,,,,,,,,,,,,,,,,,,,,,,,,,,,,,,,,,,,,,,,,,0,0,0,0,1,,,,,,,,,,,,,,,,,,,,,
,,,,,,,,,,,,5ea152aca876c6000aa73a2a,25,Kobieta,2022-06-11_09h30.47.096,task,2021.1.4,Win32,60.47046018,6299f149e92ead563fba08ef,62a4448301952eb9d49c6e8e,,,,,,,,,,,,,6,,,,,,,,,,Task,38,(4x6) - 17,7,,,,,,,,,,,,,,,,,,,0,,,,,,,,,,,,,,,,,,,,,,,"[""6""]",0,[3.114799999952311],0,0,0,37,1,,,,,,,,,,,,,,,,,,,,,,,,,,
,,,,,,,,,,,,5ea152aca876c6000aa73a2a,25,Kobieta,2022-06-11_09h30.47.096,task,2021.1.4,Win32,60.47046018,6299f149e92ead563fba08ef,62a4448301952eb9d49c6e8e,,,,,,,,,,,,,3,,,,,,,,,,Task,3,(2x3) - 3,3,,,,,,,,,,,,,,,,,,,1,,,,,,,,,,,,,,,,,,,,,,,"[""3""]",1,[2.8388999999761495],0,1,1,2,1,,,,,,,,,,,,,,,,,,,,,,,,,,
,,,,,,,,,,,X V Q F H G B L J M P D K C T S W R N Z,5ea152aca876c6000aa73a2a,25,Kobieta,2022-06-11_09h30.47.096,task,2021.1.4,Win32,60.47046018,6299f149e92ead563fba08ef,62a4448301952eb9d49c6e8e,,,,,,,,,,,,,,,,,,,,,,,,,,,,,,,,,,,,,,,,,,,,,,,,,,,,,,,,,,,,,,,,,,,,,,,,,,,,1,0,1,0,1,,,,,,,,,,,,,,,,,,,,,
,,,,,,,,,,,,5ea152aca876c6000aa73a2a,25,Kobieta,2022-06-11_09h30.47.096,task,2021.1.4,Win32,60.47046018,6299f149e92ead563fba08ef,62a4448301952eb9d49c6e8e,,,,,,,,,,,,,1,,,,,,,,,,Task,34,(9/3) - 2,1,,,,,,,,,,,,,,,,,,,1,,,,,,,,,,,,,,,,,,,,,,,"[""1""]",1,[2.044100000023832],0,0,0,33,1,,,,,,,,,,,,,,,,,,,,,,,,,,
,,,,,,,,,,,X V Q F H G B L J M P D K C T S W R N Z,5ea152aca876c6000aa73a2a,25,Kobieta,2022-06-11_09h30.47.096,task,2021.1.4,Win32,60.47046018,6299f149e92ead563fba08ef,62a4448301952eb9d49c6e8e,,,,,,,,,,,,,,,,,,,,,,,,,,,,,,,,,,,,,,,,,,,,,,,,,,,,,,,,,,,,,,,,,,,,,,,,,,,,2,0,2,0,1,,,,,,,,,,,,,,,,,,,,,
,,,,,,,,,,,,5ea152aca876c6000aa73a2a,25,Kobieta,2022-06-11_09h30.47.096,task,2021.1.4,Win32,60.47046018,6299f149e92ead563fba08ef,62a4448301952eb9d49c6e8e,,,,,,,,,,,,,3,,,,,,,,,,Task,20,(18/9) + 1,3,,,,,,,,,,,,,,,,,,,1,,,,,,,,,,,,,,,,,,,,,,,"[""3""]",1,[1.407699999928468],0,0,0,19,1,,,,,,,,,,,,,,,,,,,,,,,,,,
,,,,,,,,,,,X V Q F H G B L J M P D K C T S W R N Z,5ea152aca876c6000aa73a2a,25,Kobieta,2022-06-11_09h30.47.096,task,2021.1.4,Win32,60.47046018,6299f149e92ead563fba08ef,62a4448301952eb9d49c6e8e,,,,,,,,,,,,,,,,,,,,,,,,,,,,,,,,,,,,,,,,,,,,,,,,,,,,,,,,,,,,,,,,,,,,,,,,,,,,3,0,3,0,1,,,,,,,,,,,,,,,,,,,,,
,,,,,,,,,,,,5ea152aca876c6000aa73a2a,25,Kobieta,2022-06-11_09h30.47.096,task,2021.1.4,Win32,60.47046018,6299f149e92ead563fba08ef,62a4448301952eb9d49c6e8e,,,,,,,,,,,,,,,,,,,,,,,,,,,,,,,,,,,,,,,,,,,,,,,,,,,,,,,,,,,,,,,,,,,,,,,,,,,,,,,,,jdrn,"[""j"",""d"",""r"",""n""]",0,"[1.9178000000715656,2.065200000047696,2.266600000023857,2.375399999976196,2.9788999999761927]",1,JDRN,2,0,2,0,1,,,,,,,,,,
,,,,,,,,,,,,5ea152aca876c6000aa73a2a,25,Kobieta,2022-06-11_09h30.47.096,task,2021.1.4,Win32,60.47046018,6299f149e92ead563fba08ef,62a4448301952eb9d49c6e8e,,,,,,,,,,,,,9,,,,,,,,,,Task,7,(3x7) - 12,9,,,,,,,,,,,,,,,,,,,1,,,,,,,,,,,,,,,,,,,,,,,"[""9""]",1,[2.6398999999761372],0,0,0,6,1,,,,,,,,,,,,,,,,,,,,,,,,,,
,,,,,,,,,,,X V Q F H G B L J M P D K C T S W R N Z,5ea152aca876c6000aa73a2a,25,Kobieta,2022-06-11_09h30.47.096,task,2021.1.4,Win32,60.47046018,6299f149e92ead563fba08ef,62a4448301952eb9d49c6e8e,,,,,,,,,,,,,,,,,,,,,,,,,,,,,,,,,,,,,,,,,,,,,,,,,,,,,,,,,,,,,,,,,,,,,,,,,,,,0,0,0,0,1,,,,,,,,,,,,,,,,,,,,,
,,,,,,,,,,,,5ea152aca876c6000aa73a2a,25,Kobieta,2022-06-11_09h30.47.096,task,2021.1.4,Win32,60.47046018,6299f149e92ead563fba08ef,62a4448301952eb9d49c6e8e,,,,,,,,,,,,,5,,,,,,,,,,Task,22,(3x1) + 2,5,,,,,,,,,,,,,,,,,,,1,,,,,,,,,,,,,,,,,,,,,,,"[""5""]",1,[2.13900000000001],0,0,0,21,1,,,,,,,,,,,,,,,,,,,,,,,,,,
,,,,,,,,,,,X V Q F H G B L J M P D K C T S W R N Z,5ea152aca876c6000aa73a2a,25,Kobieta,2022-06-11_09h30.47.096,task,2021.1.4,Win32,60.47046018,6299f149e92ead563fba08ef,62a4448301952eb9d49c6e8e,,,,,,,,,,,,,,,,,,,,,,,,,,,,,,,,,,,,,,,,,,,,,,,,,,,,,,,,,,,,,,,,,,,,,,,,,,,,1,0,1,0,1,,,,,,,,,,,,,,,,,,,,,
,,,,,,,,,,,,5ea152aca876c6000aa73a2a,25,Kobieta,2022-06-11_09h30.47.096,task,2021.1.4,Win32,60.47046018,6299f149e92ead563fba08ef,62a4448301952eb9d49c6e8e,,,,,,,,,,,,,3,,,,,,,,,,Task,3,(2x3) - 3,3,,,,,,,,,,,,,,,,,,,1,,,,,,,,,,,,,,,,,,,,,,,"[""3""]",1,[1.892399999976135],0,0,0,2,1,,,,,,,,,,,,,,,,,,,,,,,,,,
,,,,,,,,,,,X V Q F H G B L J M P D K C T S W R N Z,5ea152aca876c6000aa73a2a,25,Kobieta,2022-06-11_09h30.47.096,task,2021.1.4,Win32,60.47046018,6299f149e92ead563fba08ef,62a4448301952eb9d49c6e8e,,,,,,,,,,,,,,,,,,,,,,,,,,,,,,,,,,,,,,,,,,,,,,,,,,,,,,,,,,,,,,,,,,,,,,,,,,,,2,0,2,0,1,,,,,,,,,,,,,,,,,,,,,
,,,,,,,,,,,,5ea152aca876c6000aa73a2a,25,Kobieta,2022-06-11_09h30.47.096,task,2021.1.4,Win32,60.47046018,6299f149e92ead563fba08ef,62a4448301952eb9d49c6e8e,,,,,,,,,,,,,9,,,,,,,,,,Task,24,(2x2) + 5,9,,,,,,,,,,,,,,,,,,,1,,,,,,,,,,,,,,,,,,,,,,,"[""9""]",1,[1.5812000000476587],0,0,0,23,1,,,,,,,,,,,,,,,,,,,,,,,,,,
,,,,,,,,,,,X V Q F H G B L J M P D K C T S W R N Z,5ea152aca876c6000aa73a2a,25,Kobieta,2022-06-11_09h30.47.096,task,2021.1.4,Win32,60.47046018,6299f149e92ead563fba08ef,62a4448301952eb9d49c6e8e,,,,,,,,,,,,,,,,,,,,,,,,,,,,,,,,,,,,,,,,,,,,,,,,,,,,,,,,,,,,,,,,,,,,,,,,,,,,3,0,3,0,1,,,,,,,,,,,,,,,,,,,,,
,,,,,,,,,,,,5ea152aca876c6000aa73a2a,25,Kobieta,2022-06-11_09h30.47.096,task,2021.1.4,Win32,60.47046018,6299f149e92ead563fba08ef,62a4448301952eb9d49c6e8e,,,,,,,,,,,,,9,,,,,,,,,,Task,7,(3x7) - 12,9,,,,,,,,,,,,,,,,,,,1,,,,,,,,,,,,,,,,,,,,,,,"[""9""]",1,[2.911199999928442],0,0,0,6,1,,,,,,,,,,,,,,,,,,,,,,,,,,
,,,,,,,,,,,X V Q F H G B L J M P D K C T S W R N Z,5ea152aca876c6000aa73a2a,25,Kobieta,2022-06-11_09h30.47.096,task,2021.1.4,Win32,60.47046018,6299f149e92ead563fba08ef,62a4448301952eb9d49c6e8e,,,,,,,,,,,,,,,,,,,,,,,,,,,,,,,,,,,,,,,,,,,,,,,,,,,,,,,,,,,,,,,,,,,,,,,,,,,,4,0,4,0,1,,,,,,,,,,,,,,,,,,,,,
,,,,,,,,,,,,5ea152aca876c6000aa73a2a,25,Kobieta,2022-06-11_09h30.47.096,task,2021.1.4,Win32,60.47046018,6299f149e92ead563fba08ef,62a4448301952eb9d49c6e8e,,,,,,,,,,,,,,,,,,,,,,,,,,,,,,,,,,,,,,,,,,,,,,,,,,,,,,,,,,,,,,,,,,,,,,,,,,,,,,,,,ncjwg,"[""n"",""c"",""j"",""w"",""g""]",0,"[1.5677000000476369,1.8374999999999204,1.9971000000237495,2.280100000023765,2.5249999999999204,3.1457000000476114]",1,NCJWG,3,0,3,0,1,,,,,,,,,,
,,,,,,,,,,,,5ea152aca876c6000aa73a2a,25,Kobieta,2022-06-11_09h30.47.096,task,2021.1.4,Win32,60.47046018,6299f149e92ead563fba08ef,62a4448301952eb9d49c6e8e,,,,,,,,,,,,,3,,,,,,,,,,Task,3,(2x3) - 3,3,,,,,,,,,,,,,,,,,,,1,,,,,,,,,,,,,,,,,,,,,,,"[""3""]",1,[1.4638999999760927],0,0,0,2,1,,,,,,,,,,,,,,,,,,,,,,,,,,
,,,,,,,,,,,X V Q F H G B L J M P D K C T S W R N Z,5ea152aca876c6000aa73a2a,25,Kobieta,2022-06-11_09h30.47.096,task,2021.1.4,Win32,60.47046018,6299f149e92ead563fba08ef,62a4448301952eb9d49c6e8e,,,,,,,,,,,,,,,,,,,,,,,,,,,,,,,,,,,,,,,,,,,,,,,,,,,,,,,,,,,,,,,,,,,,,,,,,,,,0,0,0,0,1,,,,,,,,,,,,,,,,,,,,,
,,,,,,,,,,,,5ea152aca876c6000aa73a2a,25,Kobieta,2022-06-11_09h30.47.096,task,2021.1.4,Win32,60.47046018,6299f149e92ead563fba08ef,62a4448301952eb9d49c6e8e,,,,,,,,,,,,,8,,,,,,,,,,Task,39,(5x3) - 7,8,,,,,,,,,,,,,,,,,,,1,,,,,,,,,,,,,,,,,,,,,,,"[""8""]",1,[1.616699999928528],0,0,0,38,1,,,,,,,,,,,,,,,,,,,,,,,,,,
,,,,,,,,,,,X V Q F H G B L J M P D K C T S W R N Z,5ea152aca876c6000aa73a2a,25,Kobieta,2022-06-11_09h30.47.096,task,2021.1.4,Win32,60.47046018,6299f149e92ead563fba08ef,62a4448301952eb9d49c6e8e,,,,,,,,,,,,,,,,,,,,,,,,,,,,,,,,,,,,,,,,,,,,,,,,,,,,,,,,,,,,,,,,,,,,,,,,,,,,1,0,1,0,1,,,,,,,,,,,,,,,,,,,,,
,,,,,,,,,,,,5ea152aca876c6000aa73a2a,25,Kobieta,2022-06-11_09h30.47.096,task,2021.1.4,Win32,60.47046018,6299f149e92ead563fba08ef,62a4448301952eb9d49c6e8e,,,,,,,,,,,,,9,,,,,,,,,,Task,28,(2x5) - 6,4,,,,,,,,,,,,,,,,,,,0,,,,,,,,,,,,,,,,,,,,,,,"[""9""]",0,[1.669099999904688],0,0,0,27,1,,,,,,,,,,,,,,,,,,,,,,,,,,
,,,,,,,,,,,,5ea152aca876c6000aa73a2a,25,Kobieta,2022-06-11_09h30.47.096,task,2021.1.4,Win32,60.47046018,6299f149e92ead563fba08ef,62a4448301952eb9d49c6e8e,,,,,,,,,,,,,6,,,,,,,,,,Task,37,(3/3) + 5,6,,,,,,,,,,,,,,,,,,,1,,,,,,,,,,,,,,,,,,,,,,,"[""6""]",1,[2.0666000000238682],0,1,1,36,1,,,,,,,,,,,,,,,,,,,,,,,,,,
,,,,,,,,,,,X V Q F H G B L J M P D K C T S W R N Z,5ea152aca876c6000aa73a2a,25,Kobieta,2022-06-11_09h30.47.096,task,2021.1.4,Win32,60.47046018,6299f149e92ead563fba08ef,62a4448301952eb9d49c6e8e,,,,,,,,,,,,,,,,,,,,,,,,,,,,,,,,,,,,,,,,,,,,,,,,,,,,,,,,,,,,,,,,,,,,,,,,,,,,2,0,2,0,1,,,,,,,,,,,,,,,,,,,,,
,,,,,,,,,,,,5ea152aca876c6000aa73a2a,25,Kobieta,2022-06-11_09h30.47.096,task,2021.1.4,Win32,60.47046018,6299f149e92ead563fba08ef,62a4448301952eb9d49c6e8e,,,,,,,,,,,,,3,,,,,,,,,,Task,27,(3/3) + 2,3,,,,,,,,,,,,,,,,,,,1,,,,,,,,,,,,,,,,,,,,,,,"[""3""]",1,[2.16439999997624],0,0,0,26,1,,,,,,,,,,,,,,,,,,,,,,,,,,
,,,,,,,,,,,X V Q F H G B L J M P D K C T S W R N Z,5ea152aca876c6000aa73a2a,25,Kobieta,2022-06-11_09h30.47.096,task,2021.1.4,Win32,60.47046018,6299f149e92ead563fba08ef,62a4448301952eb9d49c6e8e,,,,,,,,,,,,,,,,,,,,,,,,,,,,,,,,,,,,,,,,,,,,,,,,,,,,,,,,,,,,,,,,,,,,,,,,,,,,3,0,3,0,1,,,,,,,,,,,,,,,,,,,,,
,,,,,,,,,,,,5ea152aca876c6000aa73a2a,25,Kobieta,2022-06-11_09h30.47.096,task,2021.1.4,Win32,60.47046018,6299f149e92ead563fba08ef,62a4448301952eb9d49c6e8e,,,,,,,,,,,,,7,,,,,,,,,,Task,6,(12/2) + 1,7,,,,,,,,,,,,,,,,,,,1,,,,,,,,,,,,,,,,,,,,,,,"[""7""]",1,[1.6754999999999427],0,0,0,5,1,,,,,,,,,,,,,,,,,,,,,,,,,,
,,,,,,,,,,,X V Q F H G B L J M P D K C T S W R N Z,5ea152aca876c6000aa73a2a,25,Kobieta,2022-06-11_09h30.47.096,task,2021.1.4,Win32,60.47046018,6299f149e92ead563fba08ef,62a4448301952eb9d49c6e8e,,,,,,,,,,,,,,,,,,,,,,,,,,,,,,,,,,,,,,,,,,,,,,,,,,,,,,,,,,,,,,,,,,,,,,,,,,,,4,0,4,0,1,,,,,,,,,,,,,,,,,,,,,
,,,,,,,,,,,,5ea152aca876c6000aa73a2a,25,Kobieta,2022-06-11_09h30.47.096,task,2021.1.4,Win32,60.47046018,6299f149e92ead563fba08ef,62a4448301952eb9d49c6e8e,,,,,,,,,,,,,,,,,,,,,,,Task,38,(4x6) - 17,7,,,,,,,,,,,,,,,,,,,0,,,,,,,,,,,,,,,,,,,,,,,,0,,0,0,0,37,1,,,,,,,,,,,,,,,,,,,,,,,,,,
,,,,,,,,,,,,5ea152aca876c6000aa73a2a,25,Kobieta,2022-06-11_09h30.47.096,task,2021.1.4,Win32,60.47046018,6299f149e92ead563fba08ef,62a4448301952eb9d49c6e8e,,,,,,,,,,,,,5,,,,,,,,,,Task,12,(4x4) - 11,5,,,,,,,,,,,,,,,,,,,1,,,,,,,,,,,,,,,,,,,,,,,"[""5""]",1,[1.7967000000476219],0,1,1,11,1,,,,,,,,,,,,,,,,,,,,,,,,,,
,,,,,,,,,,,X V Q F H G B L J M P D K C T S W R N Z,5ea152aca876c6000aa73a2a,25,Kobieta,2022-06-11_09h30.47.096,task,2021.1.4,Win32,60.47046018,6299f149e92ead563fba08ef,62a4448301952eb9d49c6e8e,,,,,,,,,,,,,,,,,,,,,,,,,,,,,,,,,,,,,,,,,,,,,,,,,,,,,,,,,,,,,,,,,,,,,,,,,,,,5,0,5,0,1,,,,,,,,,,,,,,,,,,,,,
,,,,,,,,,,,,5ea152aca876c6000aa73a2a,25,Kobieta,2022-06-11_09h30.47.096,task,2021.1.4,Win32,60.47046018,6299f149e92ead563fba08ef,62a4448301952eb9d49c6e8e,,,,,,,,,,,,,,,,,,,,,,,,,,,,,,,,,,,,,,,,,,,,,,,,,,,,,,,,,,,,,,,,,,,,,,,,,,,,,,,,,lwffb,"[""l"",""w"",""f"",""f"",""b""]",0,"[1.6291000000238682,1.9624999999999773,2.3083999999761318,2.49610000002383,2.7997000000476646,3.1643000000715347]",0,LWFFVB,4,0,4,0,1,,,,,,,,,,
,,,,,,,,,,,,5ea152aca876c6000aa73a2a,25,Kobieta,2022-06-11_09h30.47.096,task,2021.1.4,Win32,60.47046018,6299f149e92ead563fba08ef,62a4448301952eb9d49c6e8e,,,,,,,,,,,,,5,,,,,,,,,,Task,12,(4x4) - 11,5,,,,,,,,,,,,,,,,,,,1,,,,,,,,,,,,,,,,,,,,,,,"[""5""]",1,[1.2147999999523336],0,0,0,11,1,,,,,,,,,,,,,,,,,,,,,,,,,,
,,,,,,,,,,,X V Q F H G B L J M P D K C T S W R N Z,5ea152aca876c6000aa73a2a,25,Kobieta,2022-06-11_09h30.47.096,task,2021.1.4,Win32,60.47046018,6299f149e92ead563fba08ef,62a4448301952eb9d49c6e8e,,,,,,,,,,,,,,,,,,,,,,,,,,,,,,,,,,,,,,,,,,,,,,,,,,,,,,,,,,,,,,,,,,,,,,,,,,,,0,0,0,0,1,,,,,,,,,,,,,,,,,,,,,
,,,,,,,,,,,,5ea152aca876c6000aa73a2a,25,Kobieta,2022-06-11_09h30.47.096,task,2021.1.4,Win32,60.47046018,6299f149e92ead563fba08ef,62a4448301952eb9d49c6e8e,,,,,,,,,,,,,1,,,,,,,,,,Task,34,(9/3) - 2,1,,,,,,,,,,,,,,,,,,,1,,,,,,,,,,,,,,,,,,,,,,,"[""1""]",1,[1.4929999999999382],0,0,0,33,1,,,,,,,,,,,,,,,,,,,,,,,,,,
,,,,,,,,,,,X V Q F H G B L J M P D K C T S W R N Z,5ea152aca876c6000aa73a2a,25,Kobieta,2022-06-11_09h30.47.096,task,2021.1.4,Win32,60.47046018,6299f149e92ead563fba08ef,62a4448301952eb9d49c6e8e,,,,,,,,,,,,,,,,,,,,,,,,,,,,,,,,,,,,,,,,,,,,,,,,,,,,,,,,,,,,,,,,,,,,,,,,,,,,1,0,1,0,1,,,,,,,,,,,,,,,,,,,,,
,,,,,,,,,,,,5ea152aca876c6000aa73a2a,25,Kobieta,2022-06-11_09h30.47.096,task,2021.1.4,Win32,60.47046018,6299f149e92ead563fba08ef,62a4448301952eb9d49c6e8e,,,,,,,,,,,,,9,,,,,,,,,,Task,7,(3x7) - 12,9,,,,,,,,,,,,,,,,,,,1,,,,,,,,,,,,,,,,,,,,,,,"[""9""]",1,[2.8234000000953756],0,0,0,6,1,,,,,,,,,,,,,,,,,,,,,,,,,,
,,,,,,,,,,,X V Q F H G B L J M P D K C T S W R N Z,5ea152aca876c6000aa73a2a,25,Kobieta,2022-06-11_09h30.47.096,task,2021.1.4,Win32,60.47046018,6299f149e92ead563fba08ef,62a4448301952eb9d49c6e8e,,,,,,,,,,,,,,,,,,,,,,,,,,,,,,,,,,,,,,,,,,,,,,,,,,,,,,,,,,,,,,,,,,,,,,,,,,,,2,0,2,0,1,,,,,,,,,,,,,,,,,,,,,
,,,,,,,,,,,,5ea152aca876c6000aa73a2a,25,Kobieta,2022-06-11_09h30.47.096,task,2021.1.4,Win32,60.47046018,6299f149e92ead563fba08ef,62a4448301952eb9d49c6e8e,,,,,,,,,,,,,2,,,,,,,,,,Task,10,(2x5) - 8,2,,,,,,,,,,,,,,,,,,,1,,,,,,,,,,,,,,,,,,,,,,,"[""2""]",1,[1.9428999999762482],0,0,0,9,1,,,,,,,,,,,,,,,,,,,,,,,,,,
,,,,,,,,,,,X V Q F H G B L J M P D K C T S W R N Z,5ea152aca876c6000aa73a2a,25,Kobieta,2022-06-11_09h30.47.096,task,2021.1.4,Win32,60.47046018,6299f149e92ead563fba08ef,62a4448301952eb9d49c6e8e,,,,,,,,,,,,,,,,,,,,,,,,,,,,,,,,,,,,,,,,,,,,,,,,,,,,,,,,,,,,,,,,,,,,,,,,,,,,3,0,3,0,1,,,,,,,,,,,,,,,,,,,,,
,,,,,,,,,,,,5ea152aca876c6000aa73a2a,25,Kobieta,2022-06-11_09h30.47.096,task,2021.1.4,Win32,60.47046018,6299f149e92ead563fba08ef,62a4448301952eb9d49c6e8e,,,,,,,,,,,,,1,,,,,,,,,,Task,18,(16/4) - 3,1,,,,,,,,,,,,,,,,,,,1,,,,,,,,,,,,,,,,,,,,,,,"[""1""]",1,[1.380699999928538],0,0,0,17,1,,,,,,,,,,,,,,,,,,,,,,,,,,
,,,,,,,,,,,X V Q F H G B L J M P D K C T S W R N Z,5ea152aca876c6000aa73a2a,25,Kobieta,2022-06-11_09h30.47.096,task,2021.1.4,Win32,60.47046018,6299f149e92ead563fba08ef,62a4448301952eb9d49c6e8e,,,,,,,,,,,,,,,,,,,,,,,,,,,,,,,,,,,,,,,,,,,,,,,,,,,,,,,,,,,,,,,,,,,,,,,,,,,,4,0,4,0,1,,,,,,,,,,,,,,,,,,,,,
,,,,,,,,,,,,5ea152aca876c6000aa73a2a,25,Kobieta,2022-06-11_09h30.47.096,task,2021.1.4,Win32,60.47046018,6299f149e92ead563fba08ef,62a4448301952eb9d49c6e8e,,,,,,,,,,,,,4,,,,,,,,,,Task,4,(1x5) - 1,4,,,,,,,,,,,,,,,,,,,1,,,,,,,,,,,,,,,,,,,,,,,"[""4""]",1,[2.123199999928488],0,0,0,3,1,,,,,,,,,,,,,,,,,,,,,,,,,,
,,,,,,,,,,,X V Q F H G B L J M P D K C T S W R N Z,5ea152aca876c6000aa73a2a,25,Kobieta,2022-06-11_09h30.47.096,task,2021.1.4,Win32,60.47046018,6299f149e92ead563fba08ef,62a4448301952eb9d49c6e8e,,,,,,,,,,,,,,,,,,,,,,,,,,,,,,,,,,,,,,,,,,,,,,,,,,,,,,,,,,,,,,,,,,,,,,,,,,,,5,0,5,0,1,,,,,,,,,,,,,,,,,,,,,
,,,,,,,,,,,,5ea152aca876c6000aa73a2a,25,Kobieta,2022-06-11_09h30.47.096,task,2021.1.4,Win32,60.47046018,6299f149e92ead563fba08ef,62a4448301952eb9d49c6e8e,,,,,,,,,,,,,,,,,,,,,,,,,,,,,,,,,,,,,,,,,,,,,,,,,,,,,,,,,,,,,,,,,,,,,,,,,,,,,,,,,tqncj,"[""t"",""q"",""n"",""c"",""j""]",0,"[1.7112999999523026,2.3423999999761236,2.692299999952297,2.9802000000477165,3.340899999976159,3.8727000000476437]",0,TQNCJC,5,0,5,0,1,,,,,,,,,,
,,,,,,,,,,,,5ea152aca876c6000aa73a2a,25,Kobieta,2022-06-11_09h30.47.096,task,2021.1.4,Win32,60.47046018,6299f149e92ead563fba08ef,62a4448301952eb9d49c6e8e,,,,,,,,,,,,,,,,,,,,,,,,,,,,,,,,,,,,,,,,,,,,,,,,,,,,,,,,,,,,,,,,,,,,,,,,,,,,,,,,,,,,,,,,,,,,"[""comma""]",0,[1.1480000000000246],0,0,0,0,1,,
,,,,,,,,,,,,5ea152aca876c6000aa73a2a,25,Kobieta,2022-06-11_09h30.47.096,task,2021.1.4,Win32,60.47046018,6299f149e92ead563fba08ef,62a4448301952eb9d49c6e8e,,,,,,,,,,,,,,,,,,,,,,,,,,,,,,,,,,,,,,,,,,,,,,,,,,,,,,,,,,,,,,,,,,,,,,,,,,,,,,,,,,,,,,,,,,,,"[""period""]",0,[1.5795000000000528],1,0,1,0,1,,
,,,,,,,,,,,,5ea152aca876c6000aa73a2a,25,Kobieta,2022-06-11_09h30.47.096,task,2021.1.4,Win32,60.47046018,6299f149e92ead563fba08ef,62a4448301952eb9d49c6e8e,,,,,,,,,,,,,,,,,,,,,,,,,,,,,,,,,,,,,,,,,,,,,,,,,,,,,,,,,,,,,,,,,,,,,,,,,,,,,,,,,,,,,,,,,,,,"[""comma""]",0,[1.2336000000237846],2,0,2,0,1,,
,,,,,,,,,,,,5ea152aca876c6000aa73a2a,25,Kobieta,2022-06-11_09h30.47.096,task,2021.1.4,Win32,60.47046018,6299f149e92ead563fba08ef,62a4448301952eb9d49c6e8e,,,,,,,,,,,,,,,,,,,,,,,,,,,,,,,,,,,,,,,,,,,,,,,,,,,,,,,,,,,,,,,,,,,,,,,,,,,,,,,,,,,,,,,,,,,,"[""period""]",0,[1.0473999999760508],3,0,3,0,1,,
,,,,,,,,,,,,5ea152aca876c6000aa73a2a,25,Kobieta,2022-06-11_09h30.47.096,task,2021.1.4,Win32,60.47046018,6299f149e92ead563fba08ef,62a4448301952eb9d49c6e8e,,,,,,,,,,,,,,,,,,,,,,,,,,,,,,,,,,,,,,,,,,,,,,,,,,,,,,,,,,,,,,,,,,,,,,,,,,,,,,,,,,,,,,,,,,,,"[""comma""]",0,[1.017200000047751],4,0,4,0,1,,
,,,,,,,,,,,,5ea152aca876c6000aa73a2a,25,Kobieta,2022-06-11_09h30.47.096,task,2021.1.4,Win32,60.47046018,6299f149e92ead563fba08ef,62a4448301952eb9d49c6e8e,,,,,,,,,,,,,,,,,,,,,,,,,,,,,,,,,,,,,,,,,,,,,,,,,,,,,,,,,,,,,,,,,,,,,,,,,,,,,,,,,,,,,,,,,,,,"[""period""]",0,[0.8625000000000682],5,0,5,0,1,,
,,,,,,,,,,,,5ea152aca876c6000aa73a2a,25,Kobieta,2022-06-11_09h30.47.096,task,2021.1.4,Win32,60.47046018,6299f149e92ead563fba08ef,62a4448301952eb9d49c6e8e,,,,,,,,,,,,,,,,,,,,,,,,,,,,,,,,,,,,,,,,,,,,,,,,,,,,,,,,,,,,,,,,,,,,,,,,,,,,,,,,,,,,,,,,,,,,"[""comma""]",0,[1.0301999999285272],6,0,6,0,1,,
,,,,,,,,,,,,5ea152aca876c6000aa73a2a,25,Kobieta,2022-06-11_09h30.47.096,task,2021.1.4,Win32,60.47046018,6299f149e92ead563fba08ef,62a4448301952eb9d49c6e8e,,,,,,,,,,,,,,,,,,,,,,,,,,,,,,,,,,,,,,,,,,,,,,,,,,,,,,,,,,,,,,,,,,,,,,,,,,,,,,,,,,,,,,,,,,,,"[""period""]",0,[0.9727999999522581],7,0,7,0,1,,
,,,,,,,,,,,,5ea152aca876c6000aa73a2a,25,Kobieta,2022-06-11_09h30.47.096,task,2021.1.4,Win32,60.47046018,6299f149e92ead563fba08ef,62a4448301952eb9d49c6e8e,,,,,,,,,,,,,,,,,,,,,,,,,,,,,,,,,,,,,,,,,,,,,,,,,,,,,,,,,,,,,,,,,,,,,,,,,,,,,,,,,,,,,,,,,,,,"[""comma""]",0,[1.431699999928469],8,0,8,0,1,,
,,,,,,,,,,,,5ea152aca876c6000aa73a2a,25,Kobieta,2022-06-11_09h30.47.096,task,2021.1.4,Win32,60.47046018,6299f149e92ead563fba08ef,62a4448301952eb9d49c6e8e,,,,,,,,,,,,,,,,,,,,,,,,,,,,,,,,,,,,,,,,,,,,,,,,,,,,,,,,,,,,,,,,,,,,,,,,,,,,,,,,,,,,,,,,,,,,"[""period""]",0,[1.5023999999762054],9,0,9,0,1,,
,,,,,,,,,,,,5ea152aca876c6000aa73a2a,25,Kobieta,2022-06-11_09h30.47.096,task,2021.1.4,Win32,60.47046018,6299f149e92ead563fba08ef,62a4448301952eb9d49c6e8e,,,,,,,,,,,,,,,,,,,,,,,,,,,,,,,,,,,,,,,,,,,,,,,,,,,,,,,,,,,,,,,,,,,,,,,,,,,,,,,,,,,,,,,,,,,,"[""comma""]",0,[1.7497999999524154],10,0,10,0,1,,
,,,,,,,,,,,,5ea152aca876c6000aa73a2a,25,Kobieta,2022-06-11_09h30.47.096,task,2021.1.4,Win32,60.47046018,6299f149e92ead563fba08ef,62a4448301952eb9d49c6e8e,,,,,,,,,,,,,,,,,,,,,,,,,,,,,,,,,,,,,,,,,,,,,,,,,,,,,,,,,,,,,,,,,,,,,,,,,,,,,,,,,,,,,,,,,,,,"[""period""]",0,[1.21319999992852],11,0,11,0,1,,
,,,,,,,,,,,,5ea152aca876c6000aa73a2a,25,Kobieta,2022-06-11_09h30.47.096,task,2021.1.4,Win32,60.47046018,6299f149e92ead563fba08ef,62a4448301952eb9d49c6e8e,,,,,,,,,,,,,,,,,,,,,,,,,,,,,,,,,,,,,,,,,,,,,,,,,,,,,,,,,,,,,,,,,,,,,,,,,,,,,,,,,,,,,,,,,,,,"[""comma""]",0,[1.709699999928489],12,0,12,0,1,,
,,,,,,,,,,,,5ea152aca876c6000aa73a2a,25,Kobieta,2022-06-11_09h30.47.096,task,2021.1.4,Win32,60.47046018,6299f149e92ead563fba08ef,62a4448301952eb9d49c6e8e,,,,,,,,,,,,,,,,,,,,,,,,,,,,,,,,,,,,,,,,,,,,,,,,,,,,,,,,,,,,,,,,,,,,,,,,,,,,,,,,,,,,,,,,,,,,"[""period""]",0,[1.679199999928528],13,0,13,0,1,,
,,,,,,,,,,,,5ea152aca876c6000aa73a2a,25,Kobieta,2022-06-11_09h30.47.096,task,2021.1.4,Win32,60.47046018,6299f149e92ead563fba08ef,62a4448301952eb9d49c6e8e,,,,,,,,,,,,,,,,,,,,,,,,,,,,,,,,,,,,,,,,,,,,,,,,,,,,,,,,,,,,,,,,,,,,,,,,,,,,,,,,,,,,,,,,,,,,"[""comma""]",0,[0.9534000000953711],14,0,14,0,1,,
,,,,,,,,,,,,5ea152aca876c6000aa73a2a,25,Kobieta,2022-06-11_09h30.47.096,task,2021.1.4,Win32,60.47046018,6299f149e92ead563fba08ef,62a4448301952eb9d49c6e8e,,,,,,,,,,,,,,,,,,,,,,,,,,,,,,,,,,,,,,,,,,,,,,,,,,,,,,,,,,,,,,,,,,,,,,,,,,,,,,,,,,,,,,,,,,,,"[""comma""]",0,[0.9789999999999281],15,0,15,0,1,,
,,,,,,,,,,,,5ea152aca876c6000aa73a2a,25,Kobieta,2022-06-11_09h30.47.096,task,2021.1.4,Win32,60.47046018,6299f149e92ead563fba08ef,62a4448301952eb9d49c6e8e,,,,,,,,,,,,,,,,,,,,,,,,,,,,,,,,,,,,,,,,,,,,,,,,,,,,,,,,,,,,,,,,,,,,,,,,,,,,,,,,,,,,,,,,,,,,"[""comma""]",0,[0.9057000000476592],16,0,16,0,1,,
,,,,,,,,,,,,5ea152aca876c6000aa73a2a,25,Kobieta,2022-06-11_09h30.47.096,task,2021.1.4,Win32,60.47046018,6299f149e92ead563fba08ef,62a4448301952eb9d49c6e8e,,,,,,,,,,,,,,,,,,,,,,,,,,,,,,,,,,,,,,,,,,,,,,,,,,,,,,,,,,,,,,,,,,,,,,,,,,,,,,,,,,,,,,,,,,,,"[""period""]",0,[0.2864999999999327],17,0,17,0,1,,
,,,,,,,,,,,,5ea152aca876c6000aa73a2a,25,Kobieta,2022-06-11_09h30.47.096,task,2021.1.4,Win32,60.47046018,6299f149e92ead563fba08ef,62a4448301952eb9d49c6e8e,,,,,,,,,,,,,,,,,,,,,,,,,,,,,,,,,,,,,,,,,,,,,,,,,,,,,,,,,,,,,,,,,,,,,,,,,,,,,,,,,,,,,,,,,,,,"[""comma""]",0,[0.6287999999523208],18,0,18,0,1,,
,,,,,,,,,,,,5ea152aca876c6000aa73a2a,25,Kobieta,2022-06-11_09h30.47.096,task,2021.1.4,Win32,60.47046018,6299f149e92ead563fba08ef,62a4448301952eb9d49c6e8e,,,,,,,,,,,,,,,,,,,,,,,,,,,,,,,,,,,,,,,,,,,,,,,,,,,,,,,,,,,,,,,,,,,,,,,,,,,,,,,,,,,,,,,,,,,,"[""period""]",0,[0.46420000004775375],19,0,19,0,1,,
,,,,,,,,,,,,5ea152aca876c6000aa73a2a,25,Kobieta,2022-06-11_09h30.47.096,task,2021.1.4,Win32,60.47046018,6299f149e92ead563fba08ef,62a4448301952eb9d49c6e8e,,,,,,,,,,,,,,,,,,,,,,,,,,,,,,,,,,,,,,,,,,,,,,,,,,,,,,,,,,,,,,,,,,,,,,,,,,,,,,,,,,,,,,,,,,,,"[""comma""]",0,[0.2628999999761845],20,0,20,0,1,,
,,,,,,,,,,,,5ea152aca876c6000aa73a2a,25,Kobieta,2022-06-11_09h30.47.096,task,2021.1.4,Win32,60.47046018,6299f149e92ead563fba08ef,62a4448301952eb9d49c6e8e,,,,,,,,,,,,,,,,,,,,,,,,,,,,,,,,,,,,,,,,,,,,,,,,,,,,,,,,,,,,,,,,,,,,,,,,,,,,,,,,,,,,,,,,,,,,"[""period""]",0,[0.2216999999284326],21,0,21,0,1,,
,,,,,,,,,,,,5ea152aca876c6000aa73a2a,25,Kobieta,2022-06-11_09h30.47.096,task,2021.1.4,Win32,60.47046018,6299f149e92ead563fba08ef,62a4448301952eb9d49c6e8e,,,,,,,,,,,,,,,,,,,,,,,,,,,,,,,,,,,,,,,,,,,,,,,,,,,,,,,,,,,,,,,,,,,,,,,,,,,,,,,,,,,,,,,,,,,,"[""period""]",0,[0.25440000009541563],22,0,22,0,1,,
,,,,,,,,,,,,5ea152aca876c6000aa73a2a,25,Kobieta,2022-06-11_09h30.47.096,task,2021.1.4,Win32,60.47046018,6299f149e92ead563fba08ef,62a4448301952eb9d49c6e8e,,,,,,,,,,,,,,,,,,,,,,,,,,,,,,,,,,,,,,,,,,,,,,,,,,,,,,,,,,,,,,,,,,,,,,,,,,,,,,,,,,,,,,,,,,,,"[""comma""]",0,[0.274799999952279],23,0,23,0,1,,
,,,,,,,,,,,,5ea152aca876c6000aa73a2a,25,Kobieta,2022-06-11_09h30.47.096,task,2021.1.4,Win32,60.47046018,6299f149e92ead563fba08ef,62a4448301952eb9d49c6e8e,,,,,,,,,,,,,,,,,,,,,,,,,,,,,,,,,,,,,,,,,,,,,,,,,,,,,,,,,,,,,,,,,,,,,,,,,,,,,,,,,,,,,,,,,,,,"[""period""]",0,[0.2863000000714919],24,0,24,0,1,,
,,,,,,,,,,,,5ea152aca876c6000aa73a2a,25,Kobieta,2022-06-11_09h30.47.096,task,2021.1.4,Win32,60.47046018,6299f149e92ead563fba08ef,62a4448301952eb9d49c6e8e,,,,,,,,,,,,,,,,,,,,,,,,,,,,,,,,,,,,,,,,,,,,,,,,,,,,,,,,,,,,,,,,,,,,,,,,,,,,,,,,,,,,,,,,,,,,"[""period""]",0,[0.36539999997614814],25,0,25,0,1,,
,,,,,,,,,,,,5ea152aca876c6000aa73a2a,25,Kobieta,2022-06-11_09h30.47.096,task,2021.1.4,Win32,60.47046018,6299f149e92ead563fba08ef,62a4448301952eb9d49c6e8e,,,,,,,,,,,,,,,,,,,,,,,,,,,,,,,,,,,,,,,,,,,,,,,,,,,,,,,,,,,,,,,,,,,,,,,,,,,,,,,,,,,,,,,,,,,,"[""period""]",0,[0.3391000000239046],26,0,26,0,1,,
,,,,,,,,,,,,5ea152aca876c6000aa73a2a,25,Kobieta,2022-06-11_09h30.47.096,task,2021.1.4,Win32,60.47046018,6299f149e92ead563fba08ef,62a4448301952eb9d49c6e8e,,,,,,,,,,,,,,,,,,,,,,,,,,,,,,,,,,,,,,,,,,,,,,,,,,,,,,,,,,,,,,,,,,,,,,,,,,,,,,,,,,,,,,,,,,,,"[""period""]",0,[0.3065000000000282],27,0,27,0,1,,
,,,,,,,,,,,,5ea152aca876c6000aa73a2a,25,Kobieta,2022-06-11_09h30.47.096,task,2021.1.4,Win32,60.47046018,6299f149e92ead563fba08ef,62a4448301952eb9d49c6e8e,,,,,,,,,,,,,,,,,,,,,,,,,,,,,,,,,,,,,,,,,,,,,,,,,,,,,,,,,,,,,,,,,,,,,,,,,,,,,,,,,,,,,,,,,,,,"[""comma""]",0,[0.2867999999523363],28,0,28,0,1,,
,,,,,,,,,,,,5ea152aca876c6000aa73a2a,25,Kobieta,2022-06-11_09h30.47.096,task,2021.1.4,Win32,60.47046018,6299f149e92ead563fba08ef,62a4448301952eb9d49c6e8e,,,,,,,,,,,,,,,,,,,,,,,,,,,,,,,,,,,,,,,,,,,,,,,,,,,,,,,,,,,,,,,,,,,,,,,,,,,,,,,,,,,,,,,,,,,,"[""comma""]",0,[0.39880000007156013],29,0,29,0,1,,
,,,,,,,,,,,,5ea152aca876c6000aa73a2a,25,Kobieta,2022-06-11_09h30.47.096,task,2021.1.4,Win32,60.47046018,6299f149e92ead563fba08ef,62a4448301952eb9d49c6e8e,,,,,,,,,,,,,,,,,,,,,,,,,,,,,,,,,,,,,,,,,,,,,,,,,,,,,,,,,,,,,,,,,,,,,,,,,,,,,,,,,,,,,,,,,,,,"[""comma""]",0,[0.2706000000238191],30,0,30,0,1,,
,,,,,,,,,,,,5ea152aca876c6000aa73a2a,25,Kobieta,2022-06-11_09h30.47.096,task,2021.1.4,Win32,60.47046018,6299f149e92ead563fba08ef,62a4448301952eb9d49c6e8e,,,,,,,,,,,,,,,,,,,,,,,,,,,,,,,,,,,,,,,,,,,,,,,,,,,,,,,,,,,,,,,,,,,,,,,,,,,,,,,,,,,,,,,,,,,,"[""period""]",0,[0.27129999995224807],31,0,31,0,1,,
,,,,,,,,,,,,5ea152aca876c6000aa73a2a,25,Kobieta,2022-06-11_09h30.47.096,task,2021.1.4,Win32,60.47046018,6299f149e92ead563fba08ef,62a4448301952eb9d49c6e8e,,,,,,,,,,,,,,,,,,,,,,,,,,,,,,,,,,,,,,,,,,,,,,,,,,,,,,,,,,,,,,,,,,,,,,,,,,,,,,,,,,,,,,,,,,,,"[""comma""]",0,[0.1078999999762118],32,0,32,0,1,,
,,,,,,,,,,,,5ea152aca876c6000aa73a2a,25,Kobieta,2022-06-11_09h30.47.096,task,2021.1.4,Win32,60.47046018,6299f149e92ead563fba08ef,62a4448301952eb9d49c6e8e,,,,,,,,,,,,,,,,,,,,,,,,,,,,,,,,,,,,,,,,,,,,,,,,,,,,,,,,,,,,,,,,,,,,,,,,,,,,,,,,,,,,,,,,,,,,"[""period""]",0,[0.4733999999762091],33,0,33,0,1,,
,,,,,,,,,,,,5ea152aca876c6000aa73a2a,25,Kobieta,2022-06-11_09h30.47.096,task,2021.1.4,Win32,60.47046018,6299f149e92ead563fba08ef,62a4448301952eb9d49c6e8e,,,,,,,,,,,,,,,,,,,,,,,,,,,,,,,,,,,,,,,,,,,,,,,,,,,,,,,,,,,,,,,,,,,,,,,,,,,,,,,,,,,,,,,,,,,,"[""period""]",0,[0.5549000000953583],34,0,34,0,1,,
,,,,,,,,,,,,5ea152aca876c6000aa73a2a,25,Kobieta,2022-06-11_09h30.47.096,task,2021.1.4,Win32,60.47046018,6299f149e92ead563fba08ef,62a4448301952eb9d49c6e8e,,,,,,,,,,,,,,,,,,,,,,,,,,,,,,,,,,,,,,,,,,,,,,,,,,,,,,,,,,,,,,,,,,,,,,,,,,,,,,,,,,,,,,,,,,,,"[""comma""]",0,[0.28239999997617815],35,0,35,0,1,,
,,,,,,,,,,,,5ea152aca876c6000aa73a2a,25,Kobieta,2022-06-11_09h30.47.096,task,2021.1.4,Win32,60.47046018,6299f149e92ead563fba08ef,62a4448301952eb9d49c6e8e,,,,,,,,,,,,,,,,,,,,,,,,,,,,,,,,,,,,,,,,,,,,,,,,,,,,,,,,,,,,,,,,,,,,,,,,,,,,,,,,,,,,,,,,,,,,"[""period""]",0,[0.5711000000238755],36,0,36,0,1,,
,,,,,,,,,,,,5ea152aca876c6000aa73a2a,25,Kobieta,2022-06-11_09h30.47.096,task,2021.1.4,Win32,60.47046018,6299f149e92ead563fba08ef,62a4448301952eb9d49c6e8e,,,,,,,,,,,,,,,,,,,,,,,,,,,,,,,,,,,,,,,,,,,,,,,,,,,,,,,,,,,,,,,,,,,,,,,,,,,,,,,,,,,,,,,,,,,,"[""comma""]",0,[0.04810000002385095],37,0,37,0,1,,
,,,,,,,,,,,,5ea152aca876c6000aa73a2a,25,Kobieta,2022-06-11_09h30.47.096,task,2021.1.4,Win32,60.47046018,6299f149e92ead563fba08ef,62a4448301952eb9d49c6e8e,,,,,,,,,,,,,,,,,,,,,,,,,,,,,,,,,,,,,,,,,,,,,,,,,,,,,,,,,,,,,,,,,,,,,,,,,,,,,,,,,,,,,,,,,,,,"[""period"",""period"",""period""]",0,"[-0.019600000023842767,0.53189999997619,1.9441999999285144]",38,0,38,0,1,,
,,,,,,,,,,,,5ea152aca876c6000aa73a2a,25,Kobieta,2022-06-11_09h30.47.096,task,2021.1.4,Win32,60.47046018,6299f149e92ead563fba08ef,62a4448301952eb9d49c6e8e,,,,,,,,,,,,,,,,,,,,,,,,,,,,,,,,,,,,,,,,,,,,,,,,,,,,,,,,,,,,,,,,,,,,,,,,,,,,,,,,,,,,,,,,,,,,,0,,39,0,39,0,1,,
,,,,,,,,,,,,5ea152aca876c6000aa73a2a,25,Kobieta,2022-06-11_09h30.47.096,task,2021.1.4,Win32,60.47046018,6299f149e92ead563fba08ef,62a4448301952eb9d49c6e8e,,,,,,,,,,,,,,,,,,,,,,,,,,,,,,,,,,,,,,,,,,,,,,,,,,,,,,,,,,,,,,,,,,,,,,,,,,,,,,,,,,,,,,,,,,,,"[""period""]",0,[0.28919999992854173],40,0,40,0,1,,
,,,,,,,,,,,,5ea152aca876c6000aa73a2a,25,Kobieta,2022-06-11_09h30.47.096,task,2021.1.4,Win32,60.47046018,6299f149e92ead563fba08ef,62a4448301952eb9d49c6e8e,,,,,,,,,,,,,,,,,,,,,,,,,,,,,,,,,,,,,,,,,,,,,,,,,,,,,,,,,,,,,,,,,,,,,,,,,,,,,,,,,,,,,,,,,,,,"[""period""]",0,[0.26549999999997453],41,0,41,0,1,,
,,,,,,,,,,,,5ea152aca876c6000aa73a2a,25,Kobieta,2022-06-11_09h30.47.096,task,2021.1.4,Win32,60.47046018,6299f149e92ead563fba08ef,62a4448301952eb9d49c6e8e,,,,,,,,,,,,,,,,,,,,,,,,,,,,,,,,,,,,,,,,,,,,,,,,,,,,,,,,,,,,,,,,,,,,,,,,,,,,,,,,,,,,,,,,,,,,"[""period""]",0,[0.04189999997618088],42,0,42,0,1,,
,,,,,,,,,,,,5ea152aca876c6000aa73a2a,25,Kobieta,2022-06-11_09h30.47.096,task,2021.1.4,Win32,60.47046018,6299f149e92ead563fba08ef,62a4448301952eb9d49c6e8e,,,,,,,,,,,,,,,,,,,,,,,,,,,,,,,,,,,,,,,,,,,,,,,,,,,,,,,,,,,,,,,,,,,,,,,,,,,,,,,,,,,,,,,,,,,,"[""period""]",0,[0.3147999999523563],43,0,43,0,1,,
,,,,,,,,,,,,5ea152aca876c6000aa73a2a,25,Kobieta,2022-06-11_09h30.47.096,task,2021.1.4,Win32,60.47046018,6299f149e92ead563fba08ef,62a4448301952eb9d49c6e8e,,,,,,,,,,,,,,,,,,,,,,,,,,,,,,,,,,,,,,,,,,,,,,,,,,,,,,,,,,,,,,,,,,,,,,,,,,,,,,,,,,,,,,,,,,,,"[""period"",""period""]",0,"[0.34829999995235994,0.913799999952289]",44,0,44,0,1,,
,,,,,,,,,,,,5ea152aca876c6000aa73a2a,25,Kobieta,2022-06-11_09h30.47.096,task,2021.1.4,Win32,60.47046018,6299f149e92ead563fba08ef,62a4448301952eb9d49c6e8e,,,,,,,,,,,,,,,,,,,,,,,,,,,,,,,,,,,,,,,,,,,,,,,,,,,,,,,,,,,,,,,,,,,,,,,,,,,,,,,,,,,,,,,,,,,,"[""comma""]",0,[0.28150000000005093],45,0,45,0,1,,
,,,,,,,,,,,,5ea152aca876c6000aa73a2a,25,Kobieta,2022-06-11_09h30.47.096,task,2021.1.4,Win32,60.47046018,6299f149e92ead563fba08ef,62a4448301952eb9d49c6e8e,,,,,,,,,,,,,,,,,,,,,,,,,,,,,,,,,,,,,,,,,,,,,,,,,,,,,,,,,,,,,,,,,,,,,,,,,,,,,,,,,,,,,,,,,,,,"[""comma""]",0,[0.2570999999045398],46,0,46,0,1,,
,,,,,,,,,,,,5ea152aca876c6000aa73a2a,25,Kobieta,2022-06-11_09h30.47.096,task,2021.1.4,Win32,60.47046018,6299f149e92ead563fba08ef,62a4448301952eb9d49c6e8e,,,,,,,,,,,,,,,,,,,,,,,,,,,,,,,,,,,,,,,,,,,,,,,,,,,,,,,,,,,,,,,,,,,,,,,,,,,,,,,,,,,,,,,,,,,,"[""comma""]",0,[0.2847999999522699],47,0,47,0,1,,
,,,,,,,,,,,,5ea152aca876c6000aa73a2a,25,Kobieta,2022-06-11_09h30.47.096,task,2021.1.4,Win32,60.47046018,6299f149e92ead563fba08ef,62a4448301952eb9d49c6e8e,,,,,,,,,,,,,,,,,,,,,,,,,,,,,,,,,,,,,,,,,,,,,,,,,,,,,,,,,,,,,,,,,,,,,,,,,,,,,,,,,,,,,,,,,,,,"[""comma""]",0,[0.34939999997607174],48,0,48,0,1,,
,,,,,,,,,,,,5ea152aca876c6000aa73a2a,25,Kobieta,2022-06-11_09h30.47.096,task,2021.1.4,Win32,60.47046018,6299f149e92ead563fba08ef,62a4448301952eb9d49c6e8e,,,,,,,,,,,,,,,,,,,,,,,,,,,,,,,,,,,,,,,,,,,,,,,,,,,,,,,,,,,,,,,,,,,,,,,,,,,,,,,,,,,,,,,,,,,,"[""comma""]",0,[0.30660000002387733],49,0,49,0,1,,
,,,,,,,,,,,,5ea152aca876c6000aa73a2a,25,Kobieta,2022-06-11_09h30.47.096,task,2021.1.4,Win32,60.47046018,6299f149e92ead563fba08ef,62a4448301952eb9d49c6e8e,,,,,,,,,,,,,,,,,,,,,,,,,,,,,,,,,,,,,,,,,,,,,,,,,,,,,,,,,,,,,,,,,,,,,,,,,,,,,,,,,,,,,,,,,,,,"[""comma""]",0,[0.5027999999523445],50,0,50,0,1,,
,,,,,,,,,,,,5ea152aca876c6000aa73a2a,25,Kobieta,2022-06-11_09h30.47.096,task,2021.1.4,Win32,60.47046018,6299f149e92ead563fba08ef,62a4448301952eb9d49c6e8e,,,,,,,,,,,,,,,,,,,,,,,,,,,,,,,,,,,,,,,,,,,,,,,,,,,,,,,,,,,,,,,,,,,,,,,,,,,,,,,,,,,,,,,,,,,,"[""period""]",0,[0.41399999999998727],51,0,51,0,1,,
,,,,,,,,,,,,5ea152aca876c6000aa73a2a,25,Kobieta,2022-06-11_09h30.47.096,task,2021.1.4,Win32,60.47046018,6299f149e92ead563fba08ef,62a4448301952eb9d49c6e8e,,,,,,,,,,,,,,,,,,,,,,,,,,,,,,,,,,,,,,,,,,,,,,,,,,,,,,,,,,,,,,,,,,,,,,,,,,,,,,,,,,,,,,,,,,,,"[""period""]",0,[0.3541999999284826],52,0,52,0,1,,
,,,,,,,,,,,,5ea152aca876c6000aa73a2a,25,Kobieta,2022-06-11_09h30.47.096,task,2021.1.4,Win32,60.47046018,6299f149e92ead563fba08ef,62a4448301952eb9d49c6e8e,,,,,,,,,,,,,,,,,,,,,,,,,,,,,,,,,,,,,,,,,,,,,,,,,,,,,,,,,,,,,,,,,,,,,,,,,,,,,,,,,,,,,,,,,,,,"[""period""]",0,[0.555399999976089],53,0,53,0,1,,
,,,,,,,,,,,,5ea152aca876c6000aa73a2a,25,Kobieta,2022-06-11_09h30.47.096,task,2021.1.4,Win32,60.47046018,6299f149e92ead563fba08ef,62a4448301952eb9d49c6e8e,,,,,,,,,,,,,,,,,,,,,,,,,,,,,,,,,,,,,,,,,,,,,,,,,,,,,,,,,,,,,,,,,,,,,,,,,,,,,,,,,,,,,,,,,,,,"[""comma""]",0,[0.4221000000238746],54,0,54,0,1,,
,,,,,,,,,,,,5ea152aca876c6000aa73a2a,25,Kobieta,2022-06-11_09h30.47.096,task,2021.1.4,Win32,60.47046018,6299f149e92ead563fba08ef,62a4448301952eb9d49c6e8e,,,,,,,,,,,,,,,,,,,,,,,,,,,,,,,,,,,,,,,,,,,,,,,,,,,,,,,,,,,,,,,,,,,,,,,,,,,,,,,,,,,,,,,,,,,,"[""comma""]",0,[0.2692000000477037],55,0,55,0,1,,
,,,,,,,,,,,,5ea152aca876c6000aa73a2a,25,Kobieta,2022-06-11_09h30.47.096,task,2021.1.4,Win32,60.47046018,6299f149e92ead563fba08ef,62a4448301952eb9d49c6e8e,,,,,,,,,,,,,,,,,,,,,,,,,,,,,,,,,,,,,,,,,,,,,,,,,,,,,,,,,,,,,,,,,,,,,,,,,,,,,,,,,,,,,,,,,,,,"[""period"",""comma""]",0,"[0.3145000000000664,1.6480000000000246]",56,0,56,0,1,,
,,,,,,,,,,,,5ea152aca876c6000aa73a2a,25,Kobieta,2022-06-11_09h30.47.096,task,2021.1.4,Win32,60.47046018,6299f149e92ead563fba08ef,62a4448301952eb9d49c6e8e,,,,,,,,,,,,,,,,,,,,,,,,,,,,,,,,,,,,,,,,,,,,,,,,,,,,,,,,,,,,,,,,,,,,,,,,,,,,,,,,,,,,,,,,,,,,"[""period"",""period""]",0,"[0.6815999999046198,1.3347999999523381]",57,0,57,0,1,,
,,,,,,,,,,,,5ea152aca876c6000aa73a2a,25,Kobieta,2022-06-11_09h30.47.096,task,2021.1.4,Win32,60.47046018,6299f149e92ead563fba08ef,62a4448301952eb9d49c6e8e,,,,,,,,,,,,,,,,,,,,,,,,,,,,,,,,,,,,,,,,,,,,,,,,,,,,,,,,,,,,,,,,,,,,,,,,,,,,,,,,,,,,,,,,,,,,"[""period""]",0,[0.048299999952405415],58,0,58,0,1,,
,,,,,,,,,,,,5ea152aca876c6000aa73a2a,25,Kobieta,2022-06-11_09h30.47.096,task,2021.1.4,Win32,60.47046018,6299f149e92ead563fba08ef,62a4448301952eb9d49c6e8e,,,,,,,,,,,,,,,,,,,,,,,,,,,,,,,,,,,,,,,,,,,,,,,,,,,,,,,,,,,,,,,,,,,,,,,,,,,,,,,,,,,,,,,,,,,,"[""comma""]",0,[0.4249999999999545],59,0,59,0,1,,
,,,,,,,,,,,,5ea152aca876c6000aa73a2a,25,Kobieta,2022-06-11_09h30.47.096,task,2021.1.4,Win32,60.47046018,6299f149e92ead563fba08ef,62a4448301952eb9d49c6e8e,,,,,,,,,,,,,,,,,,,,,,,,,,,,,,,,,,,,,,,,,,,,,,,,,,,,,,,,,,,,,,,,,,,,,,,,,,,,,,,,,,,,,,,,,,,,"[""comma""]",0,[0.2486000000238846],60,0,60,0,1,,
,,,,,,,,,,,,5ea152aca876c6000aa73a2a,25,Kobieta,2022-06-11_09h30.47.096,task,2021.1.4,Win32,60.47046018,6299f149e92ead563fba08ef,62a4448301952eb9d49c6e8e,,,,,,,,,,,,,,,,,,,,,,,,,,,,,,,,,,,,,,,,,,,,,,,,,,,,,,,,,,,,,,,,,,,,,,,,,,,,,,,,,,,,,,,,,,,,"[""comma""]",0,[0.6717999999523272],61,0,61,0,1,,
,,,,,,,,,,,,5ea152aca876c6000aa73a2a,25,Kobieta,2022-06-11_09h30.47.096,task,2021.1.4,Win32,60.47046018,6299f149e92ead563fba08ef,62a4448301952eb9d49c6e8e,,,,,,,,,,,,,,,,,,,,,,,,,,,,,,,,,,,,,,,,,,,,,,,,,,,,,,,,,,,,,,,,,,,,,,,,,,,,,,,,,,,,,,,,,,,,"[""period""]",0,[0.4841999999283644],62,0,62,0,1,,
,,,,,,,,,,,,5ea152aca876c6000aa73a2a,25,Kobieta,2022-06-11_09h30.47.096,task,2021.1.4,Win32,60.47046018,6299f149e92ead563fba08ef,62a4448301952eb9d49c6e8e,,,,,,,,,,,,,,,,,,,,,,,,,,,,,,,,,,,,,,,,,,,,,,,,,,,,,,,,,,,,,,,,,,,,,,,,,,,,,,,,,,,,,,,,,,,,"[""comma""]",0,[0.25],63,0,63,0,1,,
,,,,,,,,,,,,5ea152aca876c6000aa73a2a,25,Kobieta,2022-06-11_09h30.47.096,task,2021.1.4,Win32,60.47046018,6299f149e92ead563fba08ef,62a4448301952eb9d49c6e8e,,,,,,,,,,,,,,,,,,,,,,,,,,,,,,,,,,,,,,,,,,,,,,,,,,,,,,,,,,,,,,,,,,,,,,,,,,,,,,,,,,,,,,,,,,,,"[""period""]",0,[0.2520000000000664],64,0,64,0,1,,
,,,,,,,,,,,,5ea152aca876c6000aa73a2a,25,Kobieta,2022-06-11_09h30.47.096,task,2021.1.4,Win32,60.47046018,6299f149e92ead563fba08ef,62a4448301952eb9d49c6e8e,,,,,,,,,,,,,,,,,,,,,,,,,,,,,,,,,,,,,,,,,,,,,,,,,,,,,,,,,,,,,,,,,,,,,,,,,,,,,,,,,,,,,,,,,,,,"[""comma""]",0,[0.23219999992852536],65,0,65,0,1,,
,,,,,,,,,,,,5ea152aca876c6000aa73a2a,25,Kobieta,2022-06-11_09h30.47.096,task,2021.1.4,Win32,60.47046018,6299f149e92ead563fba08ef,62a4448301952eb9d49c6e8e,,,,,,,,,,,,,,,,,,,,,,,,,,,,,,,,,,,,,,,,,,,,,,,,,,,,,,,,,,,,,,,,,,,,,,,,,,,,,,,,,,,,,,,,,,,,"[""comma""]",0,[0.5640000000000782],66,0,66,0,1,,
,,,,,,,,,,,,5ea152aca876c6000aa73a2a,25,Kobieta,2022-06-11_09h30.47.096,task,2021.1.4,Win32,60.47046018,6299f149e92ead563fba08ef,62a4448301952eb9d49c6e8e,,,,,,,,,,,,,,,,,,,,,,,,,,,,,,,,,,,,,,,,,,,,,,,,,,,,,,,,,,,,,,,,,,,,,,,,,,,,,,,,,,,,,,,,,,,,"[""period""]",0,[0.3830000000000382],67,0,67,0,1,,
,,,,,,,,,,,,5ea152aca876c6000aa73a2a,25,Kobieta,2022-06-11_09h30.47.096,task,2021.1.4,Win32,60.47046018,6299f149e92ead563fba08ef,62a4448301952eb9d49c6e8e,,,,,,,,,,,,,,,,,,,,,,,,,,,,,,,,,,,,,,,,,,,,,,,,,,,,,,,,,,,,,,,,,,,,,,,,,,,,,,,,,,,,,,,,,,,,"[""comma""]",0,[0.3296999999284935],68,0,68,0,1,,
,,,,,,,,,,,,5ea152aca876c6000aa73a2a,25,Kobieta,2022-06-11_09h30.47.096,task,2021.1.4,Win32,60.47046018,6299f149e92ead563fba08ef,62a4448301952eb9d49c6e8e,,,,,,,,,,,,,,,,,,,,,,,,,,,,,,,,,,,,,,,,,,,,,,,,,,,,,,,,,,,,,,,,,,,,,,,,,,,,,,,,,,,,,,,,,,,,"[""period""]",0,[0.40660000002390007],69,0,69,0,1,,
,,,,,,,,,,,,5ea152aca876c6000aa73a2a,25,Kobieta,2022-06-11_09h30.47.096,task,2021.1.4,Win32,60.47046018,6299f149e92ead563fba08ef,62a4448301952eb9d49c6e8e,,,,,,,,,,,,,,,,,,,,,,,,,,,,,,,,,,,,,,,,,,,,,,,,,,,,,,,,,,,,,,,,,,,,,,,,,,,,,,,,,,,,,,,,,,,,"[""comma""]",0,[0.46899999999993724],70,0,70,0,1,,
,,,,,,,,,,,,5ea152aca876c6000aa73a2a,25,Kobieta,2022-06-11_09h30.47.096,task,2021.1.4,Win32,60.47046018,6299f149e92ead563fba08ef,62a4448301952eb9d49c6e8e,,,,,,,,,,,,,,,,,,,,,,,,,,,,,,,,,,,,,,,,,,,,,,,,,,,,,,,,,,,,,,,,,,,,,,,,,,,,,,,,,,,,,,,,,,,,"[""period""]",0,[0.2677000000476255],71,0,71,0,1,,
,,,,,,,,,,,,5ea152aca876c6000aa73a2a,25,Kobieta,2022-06-11_09h30.47.096,task,2021.1.4,Win32,60.47046018,6299f149e92ead563fba08ef,62a4448301952eb9d49c6e8e,,,,,,,,,,,,,,,,,,,,,,,,,,,,,,,,,,,,,,,,,,,,,,,,,,,,,,,,,,,,,,,,,,,,,,,,,,,,,,,,,,,,,,,,,,,,"[""comma""]",0,[-0.019899999976246363],72,0,72,0,1,,
,,,,,,,,,,,,5ea152aca876c6000aa73a2a,25,Kobieta,2022-06-11_09h30.47.096,task,2021.1.4,Win32,60.47046018,6299f149e92ead563fba08ef,62a4448301952eb9d49c6e8e,,,,,,,,,,,,,,,,,,,,,,,,,,,,,,,,,,,,,,,,,,,,,,,,,,,,,,,,,,,,,,,,,,,,,,,,,,,,,,,,,,,,,,,,,,,,"[""period""]",0,[0.9037000000477065],73,0,73,0,1,,
,,,,,,,,,,,,5ea152aca876c6000aa73a2a,25,Kobieta,2022-06-11_09h30.47.096,task,2021.1.4,Win32,60.47046018,6299f149e92ead563fba08ef,62a4448301952eb9d49c6e8e,,,,,,,,,,,,,,,,,,,,,,,,,,,,,,,,,,,,,,,,,,,,,,,,,,,,,,,,,,,,,,,,,,,,,,,,,,,,,,,,,,,,,,,,,,,,"[""period""]",0,[0.29960000002392917],74,0,74,0,1,,
,,,,,,,,,,,,5ea152aca876c6000aa73a2a,25,Kobieta,2022-06-11_09h30.47.096,task,2021.1.4,Win32,60.47046018,6299f149e92ead563fba08ef,62a4448301952eb9d49c6e8e,,,,,,,,,,,,,,,,,,,,,,,,,,,,,,,,,,,,,,,,,,,,,,,,,,,,,,,,,,,,,,,,,,,,,,,,,,,,,,,,,,,,,,,,,,,,"[""period""]",0,[0.33120000004771555],75,0,75,0,1,,
,,,,,,,,,,,,5ea152aca876c6000aa73a2a,25,Kobieta,2022-06-11_09h30.47.096,task,2021.1.4,Win32,60.47046018,6299f149e92ead563fba08ef,62a4448301952eb9d49c6e8e,,,,,,,,,,,,,,,,,,,,,,,,,,,,,,,,,,,,,,,,,,,,,,,,,,,,,,,,,,,,,,,,,,,,,,,,,,,,,,,,,,,,,,,,,,,,"[""period""]",0,[0.5494999999999663],76,0,76,0,1,,
,,,,,,,,,,,,5ea152aca876c6000aa73a2a,25,Kobieta,2022-06-11_09h30.47.096,task,2021.1.4,Win32,60.47046018,6299f149e92ead563fba08ef,62a4448301952eb9d49c6e8e,,,,,,,,,,,,,,,,,,,,,,,,,,,,,,,,,,,,,,,,,,,,,,,,,,,,,,,,,,,,,,,,,,,,,,,,,,,,,,,,,,,,,,,,,,,,"[""comma""]",0,[0.5496000000239292],77,0,77,0,1,,
,,,,,,,,,,,,5ea152aca876c6000aa73a2a,25,Kobieta,2022-06-11_09h30.47.096,task,2021.1.4,Win32,60.47046018,6299f149e92ead563fba08ef,62a4448301952eb9d49c6e8e,,,,,,,,,,,,,,,,,,,,,,,,,,,,,,,,,,,,,,,,,,,,,,,,,,,,,,,,,,,,,,,,,,,,,,,,,,,,,,,,,,,,,,,,,,,,"[""comma""]",0,[0.31919999992840076],78,0,78,0,1,,
,,,,,,,,,,,,5ea152aca876c6000aa73a2a,25,Kobieta,2022-06-11_09h30.47.096,task,2021.1.4,Win32,60.47046018,6299f149e92ead563fba08ef,62a4448301952eb9d49c6e8e,,,,,,,,,,,,,,,,,,,,,,,,,,,,,,,,,,,,,,,,,,,,,,,,,,,,,,,,,,,,,,,,,,,,,,,,,,,,,,,,,,,,,,,,,,,,"[""comma""]",0,[0.3703999999761436],79,0,79,0,1,,
,,,,,,,,,,,,5ea152aca876c6000aa73a2a,25,Kobieta,2022-06-11_09h30.47.096,task,2021.1.4,Win32,60.47046018,6299f149e92ead563fba08ef,62a4448301952eb9d49c6e8e,,,,,,,,,,,,,,,,,,,,,,,,,,,,,,,,,,,,,,,,,,,,,,,,,,,,,,,,,,,,,,,,,,,,,,,,,,,,,,,,,,,,,,,,,,,,"[""comma""]",0,[0.3367000000475855],80,0,80,0,1,,
,,,,,,,,,,,,5ea152aca876c6000aa73a2a,25,Kobieta,2022-06-11_09h30.47.096,task,2021.1.4,Win32,60.47046018,6299f149e92ead563fba08ef,62a4448301952eb9d49c6e8e,,,,,,,,,,,,,,,,,,,,,,,,,,,,,,,,,,,,,,,,,,,,,,,,,,,,,,,,,,,,,,,,,,,,,,,,,,,,,,,,,,,,,,,,,,,,"[""period""]",0,[0.32939999997608993],81,0,81,0,1,,
,,,,,,,,,,,,5ea152aca876c6000aa73a2a,25,Kobieta,2022-06-11_09h30.47.096,task,2021.1.4,Win32,60.47046018,6299f149e92ead563fba08ef,62a4448301952eb9d49c6e8e,,,,,,,,,,,,,,,,,,,,,,,,,,,,,,,,,,,,,,,,,,,,,,,,,,,,,,,,,,,,,,,,,,,,,,,,,,,,,,,,,,,,,,,,,,,,"[""period""]",0,[0.24020000004770736],82,0,82,0,1,,
,,,,,,,,,,,,5ea152aca876c6000aa73a2a,25,Kobieta,2022-06-11_09h30.47.096,task,2021.1.4,Win32,60.47046018,6299f149e92ead563fba08ef,62a4448301952eb9d49c6e8e,,,,,,,,,,,,,,,,,,,,,,,,,,,,,,,,,,,,,,,,,,,,,,,,,,,,,,,,,,,,,,,,,,,,,,,,,,,,,,,,,,,,,,,,,,,,"[""comma""]",0,[0.24910000002387278],83,0,83,0,1,,
,,,,,,,,,,,,5ea152aca876c6000aa73a2a,25,Kobieta,2022-06-11_09h30.47.096,task,2021.1.4,Win32,60.47046018,6299f149e92ead563fba08ef,62a4448301952eb9d49c6e8e,,,,,,,,,,,,,,,,,,,,,,,,,,,,,,,,,,,,,,,,,,,,,,,,,,,,,,,,,,,,,,,,,,,,,,,,,,,,,,,,,,,,,,,,,,,,"[""comma""]",0,[0.2987999999522799],84,0,84,0,1,,
,,,,,,,,,,,,5ea152aca876c6000aa73a2a,25,Kobieta,2022-06-11_09h30.47.096,task,2021.1.4,Win32,60.47046018,6299f149e92ead563fba08ef,62a4448301952eb9d49c6e8e,,,,,,,,,,,,,,,,,,,,,,,,,,,,,,,,,,,,,,,,,,,,,,,,,,,,,,,,,,,,,,,,,,,,,,,,,,,,,,,,,,,,,,,,,,,,"[""period""]",0,[0.28459999990457163],85,0,85,0,1,,
,,,,,,,,,,,,5ea152aca876c6000aa73a2a,25,Kobieta,2022-06-11_09h30.47.096,task,2021.1.4,Win32,60.47046018,6299f149e92ead563fba08ef,62a4448301952eb9d49c6e8e,,,,,,,,,,,,,,,,,,,,,,,,,,,,,,,,,,,,,,,,,,,,,,,,,,,,,,,,,,,,,,,,,,,,,,,,,,,,,,,,,,,,,,,,,,,,"[""period""]",0,[0.4814999999999827],86,0,86,0,1,,
,,,,,,,,,,,,5ea152aca876c6000aa73a2a,25,Kobieta,2022-06-11_09h30.47.096,task,2021.1.4,Win32,60.47046018,6299f149e92ead563fba08ef,62a4448301952eb9d49c6e8e,,,,,,,,,,,,,,,,,,,,,,,,,,,,,,,,,,,,,,,,,,,,,,,,,,,,,,,,,,,,,,,,,,,,,,,,,,,,,,,,,,,,,,,,,,,,"[""comma""]",0,[0.8987999999523026],87,0,87,0,1,,
,,,,,,,,,,,,5ea152aca876c6000aa73a2a,25,Kobieta,2022-06-11_09h30.47.096,task,2021.1.4,Win32,60.47046018,6299f149e92ead563fba08ef,62a4448301952eb9d49c6e8e,,,,,,,,,,,,,,,,,,,,,,,,,,,,,,,,,,,,,,,,,,,,,,,,,,,,,,,,,,,,,,,,,,,,,,,,,,,,,,,,,,,,,,,,,,,,"[""comma""]",0,[0.566900000095302],88,0,88,0,1,,
,,,,,,,,,,,,5ea152aca876c6000aa73a2a,25,Kobieta,2022-06-11_09h30.47.096,task,2021.1.4,Win32,60.47046018,6299f149e92ead563fba08ef,62a4448301952eb9d49c6e8e,,,,,,,,,,,,,,,,,,,,,,,,,,,,,,,,,,,,,,,,,,,,,,,,,,,,,,,,,,,,,,,,,,,,,,,,,,,,,,,,,,,,,,,,,,,,"[""comma""]",0,[1.0623000000715592],89,0,89,0,1,,
,,,,,,,,,,,,5ea152aca876c6000aa73a2a,25,Kobieta,2022-06-11_09h30.47.096,task,2021.1.4,Win32,60.47046018,6299f149e92ead563fba08ef,62a4448301952eb9d49c6e8e,,,,,,,,,,,,,,,,,,,,,,,,,,,,,,,,,,,,,,,,,,,,,,,,,,,,,,,,,,,,,,,,,,,,,,,,,,,,,,,,,,,,,,,,,,,,"[""period""]",0,[0.43630000007158287],90,0,90,0,1,,
,,,,,,,,,,,,5ea152aca876c6000aa73a2a,25,Kobieta,2022-06-11_09h30.47.096,task,2021.1.4,Win32,60.47046018,6299f149e92ead563fba08ef,62a4448301952eb9d49c6e8e,,,,,,,,,,,,,,,,,,,,,,,,,,,,,,,,,,,,,,,,,,,,,,,,,,,,,,,,,,,,,,,,,,,,,,,,,,,,,,,,,,,,,,,,,,,,"[""period""]",0,[0.5475999999046053],91,0,91,0,1,,
,,,,,,,,,,,,5ea152aca876c6000aa73a2a,25,Kobieta,2022-06-11_09h30.47.096,task,2021.1.4,Win32,60.47046018,6299f149e92ead563fba08ef,62a4448301952eb9d49c6e8e,,,,,,,,,,,,,,,,,,,,,,,,,,,,,,,,,,,,,,,,,,,,,,,,,,,,,,,,,,,,,,,,,,,,,,,,,,,,,,,,,,,,,,,,,,,,"[""comma""]",0,[0.5641000000238137],92,0,92,0,1,,
,,,,,,,,,,,,5ea152aca876c6000aa73a2a,25,Kobieta,2022-06-11_09h30.47.096,task,2021.1.4,Win32,60.47046018,6299f149e92ead563fba08ef,62a4448301952eb9d49c6e8e,,,,,,,,,,,,,,,,,,,,,,,,,,,,,,,,,,,,,,,,,,,,,,,,,,,,,,,,,,,,,,,,,,,,,,,,,,,,,,,,,,,,,,,,,,,,"[""period""]",0,[1.1982000000476773],93,0,93,0,1,,
,,,,,,,,,,,,5ea152aca876c6000aa73a2a,25,Kobieta,2022-06-11_09h30.47.096,task,2021.1.4,Win32,60.47046018,6299f149e92ead563fba08ef,62a4448301952eb9d49c6e8e,,,,,,,,,,,,,,,,,,,,,,,,,,,,,,,,,,,,,,,,,,,,,,,,,,,,,,,,,,,,,,,,,,,,,,,,,,,,,,,,,,,,,,,,,,,,,0,,94,0,94,0,1,,
,,,,,,,,,,,,5ea152aca876c6000aa73a2a,25,Kobieta,2022-06-11_09h30.47.096,task,2021.1.4,Win32,60.47046018,6299f149e92ead563fba08ef,62a4448301952eb9d49c6e8e,,,,,,,,,,,,,,,,,,,,,,,,,,,,,,,,,,,,,,,,,,,,,,,,,,,,,,,,,,,,,,,,,,,,,,,,,,,,,,,,,,,,,,,,,,,,"[""period"",""period""]",0,"[0.019899999976246363,0.7495000000000118]",95,0,95,0,1,,
,,,,,,,,,,,,5ea152aca876c6000aa73a2a,25,Kobieta,2022-06-11_09h30.47.096,task,2021.1.4,Win32,60.47046018,6299f149e92ead563fba08ef,62a4448301952eb9d49c6e8e,,,,,,,,,,,,,,,,,,,,,,,,,,,,,,,,,,,,,,,,,,,,,,,,,,,,,,,,,,,,,,,,,,,,,,,,,,,,,,,,,,,,,,,,,,,,"[""comma""]",0,[0.89549999999997],96,0,96,0,1,,
,,,,,,,,,,,,5ea152aca876c6000aa73a2a,25,Kobieta,2022-06-11_09h30.47.096,task,2021.1.4,Win32,60.47046018,6299f149e92ead563fba08ef,62a4448301952eb9d49c6e8e,,,,,,,,,,,,,,,,,,,,,,,,,,,,,,,,,,,,,,,,,,,,,,,,,,,,,,,,,,,,,,,,,,,,,,,,,,,,,,,,,,,,,,,,,,,,"[""period""]",0,[0.7127000000476755],97,0,97,0,1,,
,,,,,,,,,,,,5ea152aca876c6000aa73a2a,25,Kobieta,2022-06-11_09h30.47.096,task,2021.1.4,Win32,60.47046018,6299f149e92ead563fba08ef,62a4448301952eb9d49c6e8e,,,,,,,,,,,,,,,,,,,,,,,,,,,,,,,,,,,,,,,,,,,,,,,,,,,,,,,,,,,,,,,,,,,,,,,,,,,,,,,,,,,,,,,,,,,,"[""period""]",0,[0.6005000000000109],98,0,98,0,1,,
,,,,,,,,,,,,5ea152aca876c6000aa73a2a,25,Kobieta,2022-06-11_09h30.47.096,task,2021.1.4,Win32,60.47046018,6299f149e92ead563fba08ef,62a4448301952eb9d49c6e8e,,,,,,,,,,,,,,,,,,,,,,,,,,,,,,,,,,,,,,,,,,,,,,,,,,,,,,,,,,,,,,,,,,,,,,,,,,,,,,,,,,,,,,,,,,,,"[""period""]",0,[0.30489999997610084],99,0,99,0,1,,
,,,,,,,,,,,,5ea152aca876c6000aa73a2a,25,Kobieta,2022-06-11_09h30.47.096,task,2021.1.4,Win32,60.47046018,6299f149e92ead563fba08ef,62a4448301952eb9d49c6e8e,,,,,,,,,,,,,,,,,,,,,,,,,,,,,,,,,,,,,,,,,,,,,,,,,,,,,,,,,,,,,,,,,,,,,,,,,,,,,,,,,,,,,,,,,,,,"[""period""]",0,[0.27980000007153194],100,0,100,0,1,,
,,,,,,,,,,,,5ea152aca876c6000aa73a2a,25,Kobieta,2022-06-11_09h30.47.096,task,2021.1.4,Win32,60.47046018,6299f149e92ead563fba08ef,62a4448301952eb9d49c6e8e,,,,,,,,,,,,,,,,,,,,,,,,,,,,,,,,,,,,,,,,,,,,,,,,,,,,,,,,,,,,,,,,,,,,,,,,,,,,,,,,,,,,,,,,,,,,"[""period""]",0,[0.24960000002374727],101,0,101,0,1,,
,,,,,,,,,,,,5ea152aca876c6000aa73a2a,25,Kobieta,2022-06-11_09h30.47.096,task,2021.1.4,Win32,60.47046018,6299f149e92ead563fba08ef,62a4448301952eb9d49c6e8e,,,,,,,,,,,,,,,,,,,,,,,,,,,,,,,,,,,,,,,,,,,,,,,,,,,,,,,,,,,,,,,,,,,,,,,,,,,,,,,,,,,,,,,,,,,,"[""period""]",0,[0.35310000002380093],102,0,102,0,1,,
,,,,,,,,,,,,5ea152aca876c6000aa73a2a,25,Kobieta,2022-06-11_09h30.47.096,task,2021.1.4,Win32,60.47046018,6299f149e92ead563fba08ef,62a4448301952eb9d49c6e8e,,,,,,,,,,,,,,,,,,,,,,,,,,,,,,,,,,,,,,,,,,,,,,,,,,,,,,,,,,,,,,,,,,,,,,,,,,,,,,,,,,,,,,,,,,,,"[""period""]",0,[0.4390000000000782],103,0,103,0,1,,
,,,,,,,,,,,,5ea152aca876c6000aa73a2a,25,Kobieta,2022-06-11_09h30.47.096,task,2021.1.4,Win32,60.47046018,6299f149e92ead563fba08ef,62a4448301952eb9d49c6e8e,,,,,,,,,,,,,,,,,,,,,,,,,,,,,,,,,,,,,,,,,,,,,,,,,,,,,,,,,,,,,,,,,,,,,,,,,,,,,,,,,,,,,,,,,,,,"[""period""]",0,[0.33010000002389006],104,0,104,0,1,,
,,,,,,,,,,,,5ea152aca876c6000aa73a2a,25,Kobieta,2022-06-11_09h30.47.096,task,2021.1.4,Win32,60.47046018,6299f149e92ead563fba08ef,62a4448301952eb9d49c6e8e,,,,,,,,,,,,,,,,,,,,,,,,,,,,,,,,,,,,,,,,,,,,,,,,,,,,,,,,,,,,,,,,,,,,,,,,,,,,,,,,,,,,,,,,,,,,"[""comma""]",0,[0.28179999995234084],105,0,105,0,1,,
,,,,,,,,,,,,5ea152aca876c6000aa73a2a,25,Kobieta,2022-06-11_09h30.47.096,task,2021.1.4,Win32,60.47046018,6299f149e92ead563fba08ef,62a4448301952eb9d49c6e8e,,,,,,,,,,,,,,,,,,,,,,,,,,,,,,,,,,,,,,,,,,,,,,,,,,,,,,,,,,,,,,,,,,,,,,,,,,,,,,,,,,,,,,,,,,,,"[""comma""]",0,[0.3647999999523108],106,0,106,0,1,,
,,,,,,,,,,,,5ea152aca876c6000aa73a2a,25,Kobieta,2022-06-11_09h30.47.096,task,2021.1.4,Win32,60.47046018,6299f149e92ead563fba08ef,62a4448301952eb9d49c6e8e,,,,,,,,,,,,,,,,,,,,,,,,,,,,,,,,,,,,,,,,,,,,,,,,,,,,,,,,,,,,,,,,,,,,,,,,,,,,,,,,,,,,,,,,,,,,"[""period""]",0,[0.5397999999522654],107,0,107,0,1,,
,,,,,,,,,,,,5ea152aca876c6000aa73a2a,25,Kobieta,2022-06-11_09h30.47.096,task,2021.1.4,Win32,60.47046018,6299f149e92ead563fba08ef,62a4448301952eb9d49c6e8e,,,,,,,,,,,,,,,,,,,,,,,,,,,,,,,,,,,,,,,,,,,,,,,,,,,,,,,,,,,,,,,,,,,,,,,,,,,,,,,,,,,,,,,,,,,,"[""comma""]",0,[0.2707999999522599],108,0,108,0,1,,
,,,,,,,,,,,,5ea152aca876c6000aa73a2a,25,Kobieta,2022-06-11_09h30.47.096,task,2021.1.4,Win32,60.47046018,6299f149e92ead563fba08ef,62a4448301952eb9d49c6e8e,,,,,,,,,,,,,,,,,,,,,,,,,,,,,,,,,,,,,,,,,,,,,,,,,,,,,,,,,,,,,,,,,,,,,,,,,,,,,,,,,,,,,,,,,,,,"[""period""]",0,[0.29470000004766916],109,0,109,0,1,,
,,,,,,,,,,,,5ea152aca876c6000aa73a2a,25,Kobieta,2022-06-11_09h30.47.096,task,2021.1.4,Win32,60.47046018,6299f149e92ead563fba08ef,62a4448301952eb9d49c6e8e,,,,,,,,,,,,,,,,,,,,,,,,,,,,,,,,,,,,,,,,,,,,,,,,,,,,,,,,,,,,,,,,,,,,,,,,,,,,,,,,,,,,,,,,,,,,"[""comma""]",0,[0.36490000009530377],110,0,110,0,1,,
,,,,,,,,,,,,5ea152aca876c6000aa73a2a,25,Kobieta,2022-06-11_09h30.47.096,task,2021.1.4,Win32,60.47046018,6299f149e92ead563fba08ef,62a4448301952eb9d49c6e8e,,,,,,,,,,,,,,,,,,,,,,,,,,,,,,,,,,,,,,,,,,,,,,,,,,,,,,,,,,,,,,,,,,,,,,,,,,,,,,,,,,,,,,,,,,,,"[""comma""]",0,[0.2828000000715747],111,0,111,0,1,,
,,,,,,,,,,,,5ea152aca876c6000aa73a2a,25,Kobieta,2022-06-11_09h30.47.096,task,2021.1.4,Win32,60.47046018,6299f149e92ead563fba08ef,62a4448301952eb9d49c6e8e,,,,,,,,,,,,,,,,,,,,,,,,,,,,,,,,,,,,,,,,,,,,,,,,,,,,,,,,,,,,,,,,,,,,,,,,,,,,,,,,,,,,,,,,,,,,"[""comma""]",0,[0.2685999999046089],112,0,112,0,1,,
,,,,,,,,,,,,5ea152aca876c6000aa73a2a,25,Kobieta,2022-06-11_09h30.47.096,task,2021.1.4,Win32,60.47046018,6299f149e92ead563fba08ef,62a4448301952eb9d49c6e8e,,,,,,,,,,,,,,,,,,,,,,,,,,,,,,,,,,,,,,,,,,,,,,,,,,,,,,,,,,,,,,,,,,,,,,,,,,,,,,,,,,,,,,,,,,,,"[""comma""]",0,[0.2687999999523072],113,0,113,0,1,,
