key_resp_15.keys,key_resp_15.rt,key_resp_16.keys,key_resp_16.rt,key_resp_4.keys,key_resp_4.rt,next_letter.thisRepN,next_letter.thisTrialN,next_letter.thisN,next_letter.thisIndex,next_letter.ran,letter,participant,Wiek*,Płeć,date,expName,psychopyVersion,OS,frameRate,study_id,session,simple_recall,key_resp_5.keys,key_resp_5.rt,simple_recall_corr,simple_recall_corrkeys,next_level.thisRepN,next_level.thisTrialN,next_level.thisN,next_level.thisIndex,next_level.ran,key_resp_2.keys,key_resp_2.rt,digit_answer,key_resp.keys,key_resp.corr,key_resp.rt,RT_list,next_equation.thisRepN,next_equation.thisTrialN,next_equation.thisN,next_equation.thisIndex,next_equation.ran,Task,Trial,Problem,Operation_answer,processing_score,sumRT,meanRT,sumdiff,sd,RT,key_resp_3.keys,key_resp_3.rt,repeat_practice.thisRepN,repeat_practice.thisTrialN,repeat_practice.thisN,repeat_practice.thisIndex,repeat_practice.ran,key_resp_6.keys,key_resp_6.rt,key_resp_11.keys,key_resp_11.corr,key_resp_11.rt,operation_correct,repeat_if_wrong_prac.thisRepN,repeat_if_wrong_prac.thisTrialN,repeat_if_wrong_prac.thisN,repeat_if_wrong_prac.thisIndex,repeat_if_wrong_prac.ran,span_size_prac.thisRepN,span_size_prac.thisTrialN,span_size_prac.thisN,span_size_prac.thisIndex,span_size_prac.ran,complex_recall_practice,key_resp_9.keys,key_resp_9.corr,key_resp_9.rt,complex_prac_corr,span_recall_prac.thisRepN,span_recall_prac.thisTrialN,span_recall_prac.thisN,span_recall_prac.thisIndex,span_recall_prac.ran,key_resp_10.keys,key_resp_10.rt,key_resp_7.keys,key_resp_7.corr,repeat_if_wrong.thisRepN,repeat_if_wrong.thisTrialN,repeat_if_wrong.thisN,repeat_if_wrong.thisIndex,repeat_if_wrong.ran,key_resp_7.rt,span_size.thisRepN,span_size.thisTrialN,span_size.thisN,span_size.thisIndex,span_size.ran,complex_recall,key_resp_8.keys,key_resp_8.corr,key_resp_8.rt,complex_recall_corr,complex_recall_corrkeys,span_recall.thisRepN,span_recall.thisTrialN,span_recall.thisN,span_recall.thisIndex,span_recall.ran,key_resp_13.keys,key_resp_13.corr,key_resp_13.rt,random_loop.thisRepN,random_loop.thisTrialN,random_loop.thisN,random_loop.thisIndex,random_loop.ran,key_resp_12.keys,key_resp_12.rt
space,33.1067,space,22.5275,space,4.7766,0,0,0,0,1,X V Q F H G B L J M P D K C T S W R N Z,5ea606388e4cf808c64292d4,21,Mężczyzna,2022-06-11_09h40.16.362,task,2021.1.4,Win32,64,6299f149e92ead563fba08ef,62a446ca88cd2296b8f7c976,,,,,,,,,,,,,,,,,,,,,,,,,,,,,,,,,,,,,,,,,,,,,,,,,,,,,,,,,,,,,,,,,,,,,,,,,,,,,,,,,,,,,,,,,,,,,,,,,,,,,
,,,,,,1,0,1,0,1,X V Q F H G B L J M P D K C T S W R N Z,5ea606388e4cf808c64292d4,21,Mężczyzna,2022-06-11_09h40.16.362,task,2021.1.4,Win32,64,6299f149e92ead563fba08ef,62a446ca88cd2296b8f7c976,,,,,,,,,,,,,,,,,,,,,,,,,,,,,,,,,,,,,,,,,,,,,,,,,,,,,,,,,,,,,,,,,,,,,,,,,,,,,,,,,,,,,,,,,,,,,,,,,,,,,
,,,,,,,,,,,,5ea606388e4cf808c64292d4,21,Mężczyzna,2022-06-11_09h40.16.362,task,2021.1.4,Win32,64,6299f149e92ead563fba08ef,62a446ca88cd2296b8f7c976,zg,"[""z"",""g""]","[1.0503000000000071,1.4872000000000014,2.7062000000000097]",1,ZG,0,0,0,0,1,,,,,,,,,,,,,,,,,,,,,,,,,,,,,,,,,,,,,,,,,,,,,,,,,,,,,,,,,,,,,,,,,,,,,,,,,,,,,,,,,,,,,,,,,,,
,,,,,,0,0,0,0,1,X V Q F H G B L J M P D K C T S W R N Z,5ea606388e4cf808c64292d4,21,Mężczyzna,2022-06-11_09h40.16.362,task,2021.1.4,Win32,64,6299f149e92ead563fba08ef,62a446ca88cd2296b8f7c976,,,,,,,,,,,,,,,,,,,,,,,,,,,,,,,,,,,,,,,,,,,,,,,,,,,,,,,,,,,,,,,,,,,,,,,,,,,,,,,,,,,,,,,,,,,,,,,,,,,,,
,,,,,,1,0,1,0,1,X V Q F H G B L J M P D K C T S W R N Z,5ea606388e4cf808c64292d4,21,Mężczyzna,2022-06-11_09h40.16.362,task,2021.1.4,Win32,64,6299f149e92ead563fba08ef,62a446ca88cd2296b8f7c976,,,,,,,,,,,,,,,,,,,,,,,,,,,,,,,,,,,,,,,,,,,,,,,,,,,,,,,,,,,,,,,,,,,,,,,,,,,,,,,,,,,,,,,,,,,,,,,,,,,,,
,,,,,,,,,,,,5ea606388e4cf808c64292d4,21,Mężczyzna,2022-06-11_09h40.16.362,task,2021.1.4,Win32,64,6299f149e92ead563fba08ef,62a446ca88cd2296b8f7c976,lp,"[""l"",""p""]","[0.535499999999999,0.7921000000000049,1.019200000000012]",1,LP,1,0,1,0,1,,,,,,,,,,,,,,,,,,,,,,,,,,,,,,,,,,,,,,,,,,,,,,,,,,,,,,,,,,,,,,,,,,,,,,,,,,,,,,,,,,,,,,,,,,,
,,,,,,0,0,0,0,1,X V Q F H G B L J M P D K C T S W R N Z,5ea606388e4cf808c64292d4,21,Mężczyzna,2022-06-11_09h40.16.362,task,2021.1.4,Win32,64,6299f149e92ead563fba08ef,62a446ca88cd2296b8f7c976,,,,,,,,,,,,,,,,,,,,,,,,,,,,,,,,,,,,,,,,,,,,,,,,,,,,,,,,,,,,,,,,,,,,,,,,,,,,,,,,,,,,,,,,,,,,,,,,,,,,,
,,,,,,1,0,1,0,1,X V Q F H G B L J M P D K C T S W R N Z,5ea606388e4cf808c64292d4,21,Mężczyzna,2022-06-11_09h40.16.362,task,2021.1.4,Win32,64,6299f149e92ead563fba08ef,62a446ca88cd2296b8f7c976,,,,,,,,,,,,,,,,,,,,,,,,,,,,,,,,,,,,,,,,,,,,,,,,,,,,,,,,,,,,,,,,,,,,,,,,,,,,,,,,,,,,,,,,,,,,,,,,,,,,,
,,,,,,2,0,2,0,1,X V Q F H G B L J M P D K C T S W R N Z,5ea606388e4cf808c64292d4,21,Mężczyzna,2022-06-11_09h40.16.362,task,2021.1.4,Win32,64,6299f149e92ead563fba08ef,62a446ca88cd2296b8f7c976,,,,,,,,,,,,,,,,,,,,,,,,,,,,,,,,,,,,,,,,,,,,,,,,,,,,,,,,,,,,,,,,,,,,,,,,,,,,,,,,,,,,,,,,,,,,,,,,,,,,,
,,,,,,,,,,,,5ea606388e4cf808c64292d4,21,Mężczyzna,2022-06-11_09h40.16.362,task,2021.1.4,Win32,64,6299f149e92ead563fba08ef,62a446ca88cd2296b8f7c976,vkc,"[""v"",""k"",""c""]","[0.5079999999999956,0.8166000000000082,1.0603999999999871,1.3166000000000082]",1,VKC,2,0,2,0,1,,,,,,,,,,,,,,,,,,,,,,,,,,,,,,,,,,,,,,,,,,,,,,,,,,,,,,,,,,,,,,,,,,,,,,,,,,,,,,,,,,,,,,,,,,,
,,,,,,0,0,0,0,1,X V Q F H G B L J M P D K C T S W R N Z,5ea606388e4cf808c64292d4,21,Mężczyzna,2022-06-11_09h40.16.362,task,2021.1.4,Win32,64,6299f149e92ead563fba08ef,62a446ca88cd2296b8f7c976,,,,,,,,,,,,,,,,,,,,,,,,,,,,,,,,,,,,,,,,,,,,,,,,,,,,,,,,,,,,,,,,,,,,,,,,,,,,,,,,,,,,,,,,,,,,,,,,,,,,,
,,,,,,1,0,1,0,1,X V Q F H G B L J M P D K C T S W R N Z,5ea606388e4cf808c64292d4,21,Mężczyzna,2022-06-11_09h40.16.362,task,2021.1.4,Win32,64,6299f149e92ead563fba08ef,62a446ca88cd2296b8f7c976,,,,,,,,,,,,,,,,,,,,,,,,,,,,,,,,,,,,,,,,,,,,,,,,,,,,,,,,,,,,,,,,,,,,,,,,,,,,,,,,,,,,,,,,,,,,,,,,,,,,,
,,,,,,2,0,2,0,1,X V Q F H G B L J M P D K C T S W R N Z,5ea606388e4cf808c64292d4,21,Mężczyzna,2022-06-11_09h40.16.362,task,2021.1.4,Win32,64,6299f149e92ead563fba08ef,62a446ca88cd2296b8f7c976,,,,,,,,,,,,,,,,,,,,,,,,,,,,,,,,,,,,,,,,,,,,,,,,,,,,,,,,,,,,,,,,,,,,,,,,,,,,,,,,,,,,,,,,,,,,,,,,,,,,,
,,,,,,,,,,,,5ea606388e4cf808c64292d4,21,Mężczyzna,2022-06-11_09h40.16.362,task,2021.1.4,Win32,64,6299f149e92ead563fba08ef,62a446ca88cd2296b8f7c976,wkp,"[""w"",""k"",""p""]","[0.48100000000000875,0.6998000000000246,0.9262000000000086,1.179700000000011]",1,WKP,3,0,3,0,1,,,,,,,,,,,,,,,,,,,,,,,,,,,,,,,,,,,,,,,,,,,,,,,,,,,,,,,,,,,,,,,,,,,,,,,,,,,,,,,,,,,,,,,,,,,
,,,,,,0,0,0,0,1,X V Q F H G B L J M P D K C T S W R N Z,5ea606388e4cf808c64292d4,21,Mężczyzna,2022-06-11_09h40.16.362,task,2021.1.4,Win32,64,6299f149e92ead563fba08ef,62a446ca88cd2296b8f7c976,,,,,,,,,,,,,,,,,,,,,,,,,,,,,,,,,,,,,,,,,,,,,,,,,,,,,,,,,,,,,,,,,,,,,,,,,,,,,,,,,,,,,,,,,,,,,,,,,,,,,
,,,,,,1,0,1,0,1,X V Q F H G B L J M P D K C T S W R N Z,5ea606388e4cf808c64292d4,21,Mężczyzna,2022-06-11_09h40.16.362,task,2021.1.4,Win32,64,6299f149e92ead563fba08ef,62a446ca88cd2296b8f7c976,,,,,,,,,,,,,,,,,,,,,,,,,,,,,,,,,,,,,,,,,,,,,,,,,,,,,,,,,,,,,,,,,,,,,,,,,,,,,,,,,,,,,,,,,,,,,,,,,,,,,
,,,,,,2,0,2,0,1,X V Q F H G B L J M P D K C T S W R N Z,5ea606388e4cf808c64292d4,21,Mężczyzna,2022-06-11_09h40.16.362,task,2021.1.4,Win32,64,6299f149e92ead563fba08ef,62a446ca88cd2296b8f7c976,,,,,,,,,,,,,,,,,,,,,,,,,,,,,,,,,,,,,,,,,,,,,,,,,,,,,,,,,,,,,,,,,,,,,,,,,,,,,,,,,,,,,,,,,,,,,,,,,,,,,
,,,,,,3,0,3,0,1,X V Q F H G B L J M P D K C T S W R N Z,5ea606388e4cf808c64292d4,21,Mężczyzna,2022-06-11_09h40.16.362,task,2021.1.4,Win32,64,6299f149e92ead563fba08ef,62a446ca88cd2296b8f7c976,,,,,,,,,,,,,,,,,,,,,,,,,,,,,,,,,,,,,,,,,,,,,,,,,,,,,,,,,,,,,,,,,,,,,,,,,,,,,,,,,,,,,,,,,,,,,,,,,,,,,
,,,,,,,,,,,,5ea606388e4cf808c64292d4,21,Mężczyzna,2022-06-11_09h40.16.362,task,2021.1.4,Win32,64,6299f149e92ead563fba08ef,62a446ca88cd2296b8f7c976,fdnm,"[""f"",""d"",""n"",""m""]","[0.9327999999999861,1.2638999999999925,1.5077999999999747,1.753399999999985,2.0557999999999765]",1,FDNM,4,0,4,0,1,,,,,,,,,,,,,,,,,,,,,,,,,,,,,,,,,,,,,,,,,,,,,,,,,,,,,,,,,,,,,,,,,,,,,,,,,,,,,,,,,,,,,,,,,,,
,,,,,,0,0,0,0,1,X V Q F H G B L J M P D K C T S W R N Z,5ea606388e4cf808c64292d4,21,Mężczyzna,2022-06-11_09h40.16.362,task,2021.1.4,Win32,64,6299f149e92ead563fba08ef,62a446ca88cd2296b8f7c976,,,,,,,,,,,,,,,,,,,,,,,,,,,,,,,,,,,,,,,,,,,,,,,,,,,,,,,,,,,,,,,,,,,,,,,,,,,,,,,,,,,,,,,,,,,,,,,,,,,,,
,,,,,,1,0,1,0,1,X V Q F H G B L J M P D K C T S W R N Z,5ea606388e4cf808c64292d4,21,Mężczyzna,2022-06-11_09h40.16.362,task,2021.1.4,Win32,64,6299f149e92ead563fba08ef,62a446ca88cd2296b8f7c976,,,,,,,,,,,,,,,,,,,,,,,,,,,,,,,,,,,,,,,,,,,,,,,,,,,,,,,,,,,,,,,,,,,,,,,,,,,,,,,,,,,,,,,,,,,,,,,,,,,,,
,,,,,,2,0,2,0,1,X V Q F H G B L J M P D K C T S W R N Z,5ea606388e4cf808c64292d4,21,Mężczyzna,2022-06-11_09h40.16.362,task,2021.1.4,Win32,64,6299f149e92ead563fba08ef,62a446ca88cd2296b8f7c976,,,,,,,,,,,,,,,,,,,,,,,,,,,,,,,,,,,,,,,,,,,,,,,,,,,,,,,,,,,,,,,,,,,,,,,,,,,,,,,,,,,,,,,,,,,,,,,,,,,,,
,,,,,,3,0,3,0,1,X V Q F H G B L J M P D K C T S W R N Z,5ea606388e4cf808c64292d4,21,Mężczyzna,2022-06-11_09h40.16.362,task,2021.1.4,Win32,64,6299f149e92ead563fba08ef,62a446ca88cd2296b8f7c976,,,,,,,,,,,,,,,,,,,,,,,,,,,,,,,,,,,,,,,,,,,,,,,,,,,,,,,,,,,,,,,,,,,,,,,,,,,,,,,,,,,,,,,,,,,,,,,,,,,,,
,,,,,,,,,,,,5ea606388e4cf808c64292d4,21,Mężczyzna,2022-06-11_09h40.16.362,task,2021.1.4,Win32,64,6299f149e92ead563fba08ef,62a446ca88cd2296b8f7c976,pmds,"[""p"",""m"",""d"",""s""]","[0.3967999999999847,0.7647999999999939,1.3976000000000397,1.560100000000034,2.0775000000000006]",1,PMDS,5,0,5,0,1,,,,,,,,,,,,,,,,,,,,,,,,,,,,,,,,,,,,,,,,,,,,,,,,,,,,,,,,,,,,,,,,,,,,,,,,,,,,,,,,,,,,,,,,,,,
,,,,,,0,0,0,0,1,X V Q F H G B L J M P D K C T S W R N Z,5ea606388e4cf808c64292d4,21,Mężczyzna,2022-06-11_09h40.16.362,task,2021.1.4,Win32,64,6299f149e92ead563fba08ef,62a446ca88cd2296b8f7c976,,,,,,,,,,,,,,,,,,,,,,,,,,,,,,,,,,,,,,,,,,,,,,,,,,,,,,,,,,,,,,,,,,,,,,,,,,,,,,,,,,,,,,,,,,,,,,,,,,,,,
,,,,,,1,0,1,0,1,X V Q F H G B L J M P D K C T S W R N Z,5ea606388e4cf808c64292d4,21,Mężczyzna,2022-06-11_09h40.16.362,task,2021.1.4,Win32,64,6299f149e92ead563fba08ef,62a446ca88cd2296b8f7c976,,,,,,,,,,,,,,,,,,,,,,,,,,,,,,,,,,,,,,,,,,,,,,,,,,,,,,,,,,,,,,,,,,,,,,,,,,,,,,,,,,,,,,,,,,,,,,,,,,,,,
,,,,,,2,0,2,0,1,X V Q F H G B L J M P D K C T S W R N Z,5ea606388e4cf808c64292d4,21,Mężczyzna,2022-06-11_09h40.16.362,task,2021.1.4,Win32,64,6299f149e92ead563fba08ef,62a446ca88cd2296b8f7c976,,,,,,,,,,,,,,,,,,,,,,,,,,,,,,,,,,,,,,,,,,,,,,,,,,,,,,,,,,,,,,,,,,,,,,,,,,,,,,,,,,,,,,,,,,,,,,,,,,,,,
,,,,,,3,0,3,0,1,X V Q F H G B L J M P D K C T S W R N Z,5ea606388e4cf808c64292d4,21,Mężczyzna,2022-06-11_09h40.16.362,task,2021.1.4,Win32,64,6299f149e92ead563fba08ef,62a446ca88cd2296b8f7c976,,,,,,,,,,,,,,,,,,,,,,,,,,,,,,,,,,,,,,,,,,,,,,,,,,,,,,,,,,,,,,,,,,,,,,,,,,,,,,,,,,,,,,,,,,,,,,,,,,,,,
,,,,,,4,0,4,0,1,X V Q F H G B L J M P D K C T S W R N Z,5ea606388e4cf808c64292d4,21,Mężczyzna,2022-06-11_09h40.16.362,task,2021.1.4,Win32,64,6299f149e92ead563fba08ef,62a446ca88cd2296b8f7c976,,,,,,,,,,,,,,,,,,,,,,,,,,,,,,,,,,,,,,,,,,,,,,,,,,,,,,,,,,,,,,,,,,,,,,,,,,,,,,,,,,,,,,,,,,,,,,,,,,,,,
,,,,,,,,,,,,5ea606388e4cf808c64292d4,21,Mężczyzna,2022-06-11_09h40.16.362,task,2021.1.4,Win32,64,6299f149e92ead563fba08ef,62a446ca88cd2296b8f7c976,fzbgh,"[""f"",""z"",""b"",""g"",""h""]","[0.48939999999997497,0.7932999999999879,0.9832999999999856,1.7082999999999942,1.7855999999999739,2.2720999999999805]",1,FZBGH,6,0,6,0,1,,,,,,,,,,,,,,,,,,,,,,,,,,,,,,,,,,,,,,,,,,,,,,,,,,,,,,,,,,,,,,,,,,,,,,,,,,,,,,,,,,,,,,,,,,,
,,,,,,0,0,0,0,1,X V Q F H G B L J M P D K C T S W R N Z,5ea606388e4cf808c64292d4,21,Mężczyzna,2022-06-11_09h40.16.362,task,2021.1.4,Win32,64,6299f149e92ead563fba08ef,62a446ca88cd2296b8f7c976,,,,,,,,,,,,,,,,,,,,,,,,,,,,,,,,,,,,,,,,,,,,,,,,,,,,,,,,,,,,,,,,,,,,,,,,,,,,,,,,,,,,,,,,,,,,,,,,,,,,,
,,,,,,1,0,1,0,1,X V Q F H G B L J M P D K C T S W R N Z,5ea606388e4cf808c64292d4,21,Mężczyzna,2022-06-11_09h40.16.362,task,2021.1.4,Win32,64,6299f149e92ead563fba08ef,62a446ca88cd2296b8f7c976,,,,,,,,,,,,,,,,,,,,,,,,,,,,,,,,,,,,,,,,,,,,,,,,,,,,,,,,,,,,,,,,,,,,,,,,,,,,,,,,,,,,,,,,,,,,,,,,,,,,,
,,,,,,2,0,2,0,1,X V Q F H G B L J M P D K C T S W R N Z,5ea606388e4cf808c64292d4,21,Mężczyzna,2022-06-11_09h40.16.362,task,2021.1.4,Win32,64,6299f149e92ead563fba08ef,62a446ca88cd2296b8f7c976,,,,,,,,,,,,,,,,,,,,,,,,,,,,,,,,,,,,,,,,,,,,,,,,,,,,,,,,,,,,,,,,,,,,,,,,,,,,,,,,,,,,,,,,,,,,,,,,,,,,,
,,,,,,3,0,3,0,1,X V Q F H G B L J M P D K C T S W R N Z,5ea606388e4cf808c64292d4,21,Mężczyzna,2022-06-11_09h40.16.362,task,2021.1.4,Win32,64,6299f149e92ead563fba08ef,62a446ca88cd2296b8f7c976,,,,,,,,,,,,,,,,,,,,,,,,,,,,,,,,,,,,,,,,,,,,,,,,,,,,,,,,,,,,,,,,,,,,,,,,,,,,,,,,,,,,,,,,,,,,,,,,,,,,,
,,,,,,4,0,4,0,1,X V Q F H G B L J M P D K C T S W R N Z,5ea606388e4cf808c64292d4,21,Mężczyzna,2022-06-11_09h40.16.362,task,2021.1.4,Win32,64,6299f149e92ead563fba08ef,62a446ca88cd2296b8f7c976,,,,,,,,,,,,,,,,,,,,,,,,,,,,,,,,,,,,,,,,,,,,,,,,,,,,,,,,,,,,,,,,,,,,,,,,,,,,,,,,,,,,,,,,,,,,,,,,,,,,,
,,,,,,,,,,,,5ea606388e4cf808c64292d4,21,Mężczyzna,2022-06-11_09h40.16.362,task,2021.1.4,Win32,64,6299f149e92ead563fba08ef,62a446ca88cd2296b8f7c976,kqtqn,"[""k"",""q"",""t"",""q"",""n""]","[0.652100000000047,1.1071000000000453,1.4772000000000105,1.7237000000000222,1.9671000000000447,2.25090000000003]",1,KQTQN,7,0,7,0,1,,,,,,,,,,,,,,,,,,,,,,,,,,,,,,,,,,,,,,,,,,,,,,,,,,,,,,,,,,,,,,,,,,,,,,,,,,,,,,,,,,,,,,,,,,,
,,,,,,0,0,0,0,1,X V Q F H G B L J M P D K C T S W R N Z,5ea606388e4cf808c64292d4,21,Mężczyzna,2022-06-11_09h40.16.362,task,2021.1.4,Win32,64,6299f149e92ead563fba08ef,62a446ca88cd2296b8f7c976,,,,,,,,,,,,,,,,,,,,,,,,,,,,,,,,,,,,,,,,,,,,,,,,,,,,,,,,,,,,,,,,,,,,,,,,,,,,,,,,,,,,,,,,,,,,,,,,,,,,,
,,,,,,1,0,1,0,1,X V Q F H G B L J M P D K C T S W R N Z,5ea606388e4cf808c64292d4,21,Mężczyzna,2022-06-11_09h40.16.362,task,2021.1.4,Win32,64,6299f149e92ead563fba08ef,62a446ca88cd2296b8f7c976,,,,,,,,,,,,,,,,,,,,,,,,,,,,,,,,,,,,,,,,,,,,,,,,,,,,,,,,,,,,,,,,,,,,,,,,,,,,,,,,,,,,,,,,,,,,,,,,,,,,,
,,,,,,2,0,2,0,1,X V Q F H G B L J M P D K C T S W R N Z,5ea606388e4cf808c64292d4,21,Mężczyzna,2022-06-11_09h40.16.362,task,2021.1.4,Win32,64,6299f149e92ead563fba08ef,62a446ca88cd2296b8f7c976,,,,,,,,,,,,,,,,,,,,,,,,,,,,,,,,,,,,,,,,,,,,,,,,,,,,,,,,,,,,,,,,,,,,,,,,,,,,,,,,,,,,,,,,,,,,,,,,,,,,,
,,,,,,3,0,3,0,1,X V Q F H G B L J M P D K C T S W R N Z,5ea606388e4cf808c64292d4,21,Mężczyzna,2022-06-11_09h40.16.362,task,2021.1.4,Win32,64,6299f149e92ead563fba08ef,62a446ca88cd2296b8f7c976,,,,,,,,,,,,,,,,,,,,,,,,,,,,,,,,,,,,,,,,,,,,,,,,,,,,,,,,,,,,,,,,,,,,,,,,,,,,,,,,,,,,,,,,,,,,,,,,,,,,,
,,,,,,4,0,4,0,1,X V Q F H G B L J M P D K C T S W R N Z,5ea606388e4cf808c64292d4,21,Mężczyzna,2022-06-11_09h40.16.362,task,2021.1.4,Win32,64,6299f149e92ead563fba08ef,62a446ca88cd2296b8f7c976,,,,,,,,,,,,,,,,,,,,,,,,,,,,,,,,,,,,,,,,,,,,,,,,,,,,,,,,,,,,,,,,,,,,,,,,,,,,,,,,,,,,,,,,,,,,,,,,,,,,,
,,,,,,5,0,5,0,1,X V Q F H G B L J M P D K C T S W R N Z,5ea606388e4cf808c64292d4,21,Mężczyzna,2022-06-11_09h40.16.362,task,2021.1.4,Win32,64,6299f149e92ead563fba08ef,62a446ca88cd2296b8f7c976,,,,,,,,,,,,,,,,,,,,,,,,,,,,,,,,,,,,,,,,,,,,,,,,,,,,,,,,,,,,,,,,,,,,,,,,,,,,,,,,,,,,,,,,,,,,,,,,,,,,,
,,,,,,,,,,,,5ea606388e4cf808c64292d4,21,Mężczyzna,2022-06-11_09h40.16.362,task,2021.1.4,Win32,64,6299f149e92ead563fba08ef,62a446ca88cd2296b8f7c976,kfxznh,"[""k"",""f"",""x"",""z"",""n"",""h""]","[2.0237000000000194,2.39579999999998,4.052599999999984,4.320899999999966,4.585599999999971,5.274799999999999,6.1229999999999905]",0,FXKZNH,8,0,8,0,1,,,,,,,,,,,,,,,,,,,,,,,,,,,,,,,,,,,,,,,,,,,,,,,,,,,,,,,,,,,,,,,,,,,,,,,,,,,,,,,,,,,,,,,,,,,
,,,,,,0,0,0,0,1,X V Q F H G B L J M P D K C T S W R N Z,5ea606388e4cf808c64292d4,21,Mężczyzna,2022-06-11_09h40.16.362,task,2021.1.4,Win32,64,6299f149e92ead563fba08ef,62a446ca88cd2296b8f7c976,,,,,,,,,,,,,,,,,,,,,,,,,,,,,,,,,,,,,,,,,,,,,,,,,,,,,,,,,,,,,,,,,,,,,,,,,,,,,,,,,,,,,,,,,,,,,,,,,,,,,
,,,,,,1,0,1,0,1,X V Q F H G B L J M P D K C T S W R N Z,5ea606388e4cf808c64292d4,21,Mężczyzna,2022-06-11_09h40.16.362,task,2021.1.4,Win32,64,6299f149e92ead563fba08ef,62a446ca88cd2296b8f7c976,,,,,,,,,,,,,,,,,,,,,,,,,,,,,,,,,,,,,,,,,,,,,,,,,,,,,,,,,,,,,,,,,,,,,,,,,,,,,,,,,,,,,,,,,,,,,,,,,,,,,
,,,,,,2,0,2,0,1,X V Q F H G B L J M P D K C T S W R N Z,5ea606388e4cf808c64292d4,21,Mężczyzna,2022-06-11_09h40.16.362,task,2021.1.4,Win32,64,6299f149e92ead563fba08ef,62a446ca88cd2296b8f7c976,,,,,,,,,,,,,,,,,,,,,,,,,,,,,,,,,,,,,,,,,,,,,,,,,,,,,,,,,,,,,,,,,,,,,,,,,,,,,,,,,,,,,,,,,,,,,,,,,,,,,
,,,,,,3,0,3,0,1,X V Q F H G B L J M P D K C T S W R N Z,5ea606388e4cf808c64292d4,21,Mężczyzna,2022-06-11_09h40.16.362,task,2021.1.4,Win32,64,6299f149e92ead563fba08ef,62a446ca88cd2296b8f7c976,,,,,,,,,,,,,,,,,,,,,,,,,,,,,,,,,,,,,,,,,,,,,,,,,,,,,,,,,,,,,,,,,,,,,,,,,,,,,,,,,,,,,,,,,,,,,,,,,,,,,
,,,,,,4,0,4,0,1,X V Q F H G B L J M P D K C T S W R N Z,5ea606388e4cf808c64292d4,21,Mężczyzna,2022-06-11_09h40.16.362,task,2021.1.4,Win32,64,6299f149e92ead563fba08ef,62a446ca88cd2296b8f7c976,,,,,,,,,,,,,,,,,,,,,,,,,,,,,,,,,,,,,,,,,,,,,,,,,,,,,,,,,,,,,,,,,,,,,,,,,,,,,,,,,,,,,,,,,,,,,,,,,,,,,
,,,,,,5,0,5,0,1,X V Q F H G B L J M P D K C T S W R N Z,5ea606388e4cf808c64292d4,21,Mężczyzna,2022-06-11_09h40.16.362,task,2021.1.4,Win32,64,6299f149e92ead563fba08ef,62a446ca88cd2296b8f7c976,,,,,,,,,,,,,,,,,,,,,,,,,,,,,,,,,,,,,,,,,,,,,,,,,,,,,,,,,,,,,,,,,,,,,,,,,,,,,,,,,,,,,,,,,,,,,,,,,,,,,
,,,,,,,,,,,,5ea606388e4cf808c64292d4,21,Mężczyzna,2022-06-11_09h40.16.362,task,2021.1.4,Win32,64,6299f149e92ead563fba08ef,62a446ca88cd2296b8f7c976,gqqclj,"[""g"",""q"",""q"",""c"",""l"",""j""]","[0.5704999999999814,0.9504000000000019,1.2380999999999744,1.6531999999999982,1.9344000000000108,2.2282999999999618,3.1069000000000244]",1,GQQCLJ,9,0,9,0,1,,,,,,,,,,,,,,,,,,,,,,,,,,,,,,,,,,,,,,,,,,,,,,,,,,,,,,,,,,,,,,,,,,,,,,,,,,,,,,,,,,,,,,,,,,,
,,,,,,0,0,0,0,1,X V Q F H G B L J M P D K C T S W R N Z,5ea606388e4cf808c64292d4,21,Mężczyzna,2022-06-11_09h40.16.362,task,2021.1.4,Win32,64,6299f149e92ead563fba08ef,62a446ca88cd2296b8f7c976,,,,,,,,,,,,,,,,,,,,,,,,,,,,,,,,,,,,,,,,,,,,,,,,,,,,,,,,,,,,,,,,,,,,,,,,,,,,,,,,,,,,,,,,,,,,,,,,,,,,,
,,,,,,1,0,1,0,1,X V Q F H G B L J M P D K C T S W R N Z,5ea606388e4cf808c64292d4,21,Mężczyzna,2022-06-11_09h40.16.362,task,2021.1.4,Win32,64,6299f149e92ead563fba08ef,62a446ca88cd2296b8f7c976,,,,,,,,,,,,,,,,,,,,,,,,,,,,,,,,,,,,,,,,,,,,,,,,,,,,,,,,,,,,,,,,,,,,,,,,,,,,,,,,,,,,,,,,,,,,,,,,,,,,,
,,,,,,2,0,2,0,1,X V Q F H G B L J M P D K C T S W R N Z,5ea606388e4cf808c64292d4,21,Mężczyzna,2022-06-11_09h40.16.362,task,2021.1.4,Win32,64,6299f149e92ead563fba08ef,62a446ca88cd2296b8f7c976,,,,,,,,,,,,,,,,,,,,,,,,,,,,,,,,,,,,,,,,,,,,,,,,,,,,,,,,,,,,,,,,,,,,,,,,,,,,,,,,,,,,,,,,,,,,,,,,,,,,,
,,,,,,3,0,3,0,1,X V Q F H G B L J M P D K C T S W R N Z,5ea606388e4cf808c64292d4,21,Mężczyzna,2022-06-11_09h40.16.362,task,2021.1.4,Win32,64,6299f149e92ead563fba08ef,62a446ca88cd2296b8f7c976,,,,,,,,,,,,,,,,,,,,,,,,,,,,,,,,,,,,,,,,,,,,,,,,,,,,,,,,,,,,,,,,,,,,,,,,,,,,,,,,,,,,,,,,,,,,,,,,,,,,,
,,,,,,4,0,4,0,1,X V Q F H G B L J M P D K C T S W R N Z,5ea606388e4cf808c64292d4,21,Mężczyzna,2022-06-11_09h40.16.362,task,2021.1.4,Win32,64,6299f149e92ead563fba08ef,62a446ca88cd2296b8f7c976,,,,,,,,,,,,,,,,,,,,,,,,,,,,,,,,,,,,,,,,,,,,,,,,,,,,,,,,,,,,,,,,,,,,,,,,,,,,,,,,,,,,,,,,,,,,,,,,,,,,,
,,,,,,5,0,5,0,1,X V Q F H G B L J M P D K C T S W R N Z,5ea606388e4cf808c64292d4,21,Mężczyzna,2022-06-11_09h40.16.362,task,2021.1.4,Win32,64,6299f149e92ead563fba08ef,62a446ca88cd2296b8f7c976,,,,,,,,,,,,,,,,,,,,,,,,,,,,,,,,,,,,,,,,,,,,,,,,,,,,,,,,,,,,,,,,,,,,,,,,,,,,,,,,,,,,,,,,,,,,,,,,,,,,,
,,,,,,,,,,,,5ea606388e4cf808c64292d4,21,Mężczyzna,2022-06-11_09h40.16.362,task,2021.1.4,Win32,64,6299f149e92ead563fba08ef,62a446ca88cd2296b8f7c976,zhrdfj,"[""z"",""h"",""r"",""d"",""f"",""j""]","[0.713799999999992,1.237700000000018,1.648099999999971,2.038599999999974,2.3963999999999714,2.647500000000008,3.0730999999999824]",1,ZHRDFJ,10,0,10,0,1,,,,,,,,,,,,,,,,,,,,,,,,,,,,,,,,,,,,,,,,,,,,,,,,,,,,,,,,,,,,,,,,,,,,,,,,,,,,,,,,,,,,,,,,,,,
,,,,,,0,0,0,0,1,X V Q F H G B L J M P D K C T S W R N Z,5ea606388e4cf808c64292d4,21,Mężczyzna,2022-06-11_09h40.16.362,task,2021.1.4,Win32,64,6299f149e92ead563fba08ef,62a446ca88cd2296b8f7c976,,,,,,,,,,,,,,,,,,,,,,,,,,,,,,,,,,,,,,,,,,,,,,,,,,,,,,,,,,,,,,,,,,,,,,,,,,,,,,,,,,,,,,,,,,,,,,,,,,,,,
,,,,,,1,0,1,0,1,X V Q F H G B L J M P D K C T S W R N Z,5ea606388e4cf808c64292d4,21,Mężczyzna,2022-06-11_09h40.16.362,task,2021.1.4,Win32,64,6299f149e92ead563fba08ef,62a446ca88cd2296b8f7c976,,,,,,,,,,,,,,,,,,,,,,,,,,,,,,,,,,,,,,,,,,,,,,,,,,,,,,,,,,,,,,,,,,,,,,,,,,,,,,,,,,,,,,,,,,,,,,,,,,,,,
,,,,,,2,0,2,0,1,X V Q F H G B L J M P D K C T S W R N Z,5ea606388e4cf808c64292d4,21,Mężczyzna,2022-06-11_09h40.16.362,task,2021.1.4,Win32,64,6299f149e92ead563fba08ef,62a446ca88cd2296b8f7c976,,,,,,,,,,,,,,,,,,,,,,,,,,,,,,,,,,,,,,,,,,,,,,,,,,,,,,,,,,,,,,,,,,,,,,,,,,,,,,,,,,,,,,,,,,,,,,,,,,,,,
,,,,,,3,0,3,0,1,X V Q F H G B L J M P D K C T S W R N Z,5ea606388e4cf808c64292d4,21,Mężczyzna,2022-06-11_09h40.16.362,task,2021.1.4,Win32,64,6299f149e92ead563fba08ef,62a446ca88cd2296b8f7c976,,,,,,,,,,,,,,,,,,,,,,,,,,,,,,,,,,,,,,,,,,,,,,,,,,,,,,,,,,,,,,,,,,,,,,,,,,,,,,,,,,,,,,,,,,,,,,,,,,,,,
,,,,,,4,0,4,0,1,X V Q F H G B L J M P D K C T S W R N Z,5ea606388e4cf808c64292d4,21,Mężczyzna,2022-06-11_09h40.16.362,task,2021.1.4,Win32,64,6299f149e92ead563fba08ef,62a446ca88cd2296b8f7c976,,,,,,,,,,,,,,,,,,,,,,,,,,,,,,,,,,,,,,,,,,,,,,,,,,,,,,,,,,,,,,,,,,,,,,,,,,,,,,,,,,,,,,,,,,,,,,,,,,,,,
,,,,,,5,0,5,0,1,X V Q F H G B L J M P D K C T S W R N Z,5ea606388e4cf808c64292d4,21,Mężczyzna,2022-06-11_09h40.16.362,task,2021.1.4,Win32,64,6299f149e92ead563fba08ef,62a446ca88cd2296b8f7c976,,,,,,,,,,,,,,,,,,,,,,,,,,,,,,,,,,,,,,,,,,,,,,,,,,,,,,,,,,,,,,,,,,,,,,,,,,,,,,,,,,,,,,,,,,,,,,,,,,,,,
,,,,,,6,0,6,0,1,X V Q F H G B L J M P D K C T S W R N Z,5ea606388e4cf808c64292d4,21,Mężczyzna,2022-06-11_09h40.16.362,task,2021.1.4,Win32,64,6299f149e92ead563fba08ef,62a446ca88cd2296b8f7c976,,,,,,,,,,,,,,,,,,,,,,,,,,,,,,,,,,,,,,,,,,,,,,,,,,,,,,,,,,,,,,,,,,,,,,,,,,,,,,,,,,,,,,,,,,,,,,,,,,,,,
,,,,,,,,,,,,5ea606388e4cf808c64292d4,21,Mężczyzna,2022-06-11_09h40.16.362,task,2021.1.4,Win32,64,6299f149e92ead563fba08ef,62a446ca88cd2296b8f7c976,xrdmjxr,"[""x"",""r"",""d"",""m"",""j"",""x"",""r""]","[0.47740000000001714,0.796100000000024,1.5882999999999754,1.8799000000000206,2.1370000000000005,2.8014000000000294,2.941400000000016,3.246100000000041]",0,XRMJNXR,11,0,11,0,1,,,,,,,,,,,,,,,,,,,,,,,,,,,,,,,,,,,,,,,,,,,,,,,,,,,,,,,,,,,,,,,,,,,,,,,,,,,,,,,,,,,,,,,,,,,
,,,,,,0,0,0,0,1,X V Q F H G B L J M P D K C T S W R N Z,5ea606388e4cf808c64292d4,21,Mężczyzna,2022-06-11_09h40.16.362,task,2021.1.4,Win32,64,6299f149e92ead563fba08ef,62a446ca88cd2296b8f7c976,,,,,,,,,,,,,,,,,,,,,,,,,,,,,,,,,,,,,,,,,,,,,,,,,,,,,,,,,,,,,,,,,,,,,,,,,,,,,,,,,,,,,,,,,,,,,,,,,,,,,
,,,,,,1,0,1,0,1,X V Q F H G B L J M P D K C T S W R N Z,5ea606388e4cf808c64292d4,21,Mężczyzna,2022-06-11_09h40.16.362,task,2021.1.4,Win32,64,6299f149e92ead563fba08ef,62a446ca88cd2296b8f7c976,,,,,,,,,,,,,,,,,,,,,,,,,,,,,,,,,,,,,,,,,,,,,,,,,,,,,,,,,,,,,,,,,,,,,,,,,,,,,,,,,,,,,,,,,,,,,,,,,,,,,
,,,,,,2,0,2,0,1,X V Q F H G B L J M P D K C T S W R N Z,5ea606388e4cf808c64292d4,21,Mężczyzna,2022-06-11_09h40.16.362,task,2021.1.4,Win32,64,6299f149e92ead563fba08ef,62a446ca88cd2296b8f7c976,,,,,,,,,,,,,,,,,,,,,,,,,,,,,,,,,,,,,,,,,,,,,,,,,,,,,,,,,,,,,,,,,,,,,,,,,,,,,,,,,,,,,,,,,,,,,,,,,,,,,
,,,,,,3,0,3,0,1,X V Q F H G B L J M P D K C T S W R N Z,5ea606388e4cf808c64292d4,21,Mężczyzna,2022-06-11_09h40.16.362,task,2021.1.4,Win32,64,6299f149e92ead563fba08ef,62a446ca88cd2296b8f7c976,,,,,,,,,,,,,,,,,,,,,,,,,,,,,,,,,,,,,,,,,,,,,,,,,,,,,,,,,,,,,,,,,,,,,,,,,,,,,,,,,,,,,,,,,,,,,,,,,,,,,
,,,,,,4,0,4,0,1,X V Q F H G B L J M P D K C T S W R N Z,5ea606388e4cf808c64292d4,21,Mężczyzna,2022-06-11_09h40.16.362,task,2021.1.4,Win32,64,6299f149e92ead563fba08ef,62a446ca88cd2296b8f7c976,,,,,,,,,,,,,,,,,,,,,,,,,,,,,,,,,,,,,,,,,,,,,,,,,,,,,,,,,,,,,,,,,,,,,,,,,,,,,,,,,,,,,,,,,,,,,,,,,,,,,
,,,,,,5,0,5,0,1,X V Q F H G B L J M P D K C T S W R N Z,5ea606388e4cf808c64292d4,21,Mężczyzna,2022-06-11_09h40.16.362,task,2021.1.4,Win32,64,6299f149e92ead563fba08ef,62a446ca88cd2296b8f7c976,,,,,,,,,,,,,,,,,,,,,,,,,,,,,,,,,,,,,,,,,,,,,,,,,,,,,,,,,,,,,,,,,,,,,,,,,,,,,,,,,,,,,,,,,,,,,,,,,,,,,
,,,,,,6,0,6,0,1,X V Q F H G B L J M P D K C T S W R N Z,5ea606388e4cf808c64292d4,21,Mężczyzna,2022-06-11_09h40.16.362,task,2021.1.4,Win32,64,6299f149e92ead563fba08ef,62a446ca88cd2296b8f7c976,,,,,,,,,,,,,,,,,,,,,,,,,,,,,,,,,,,,,,,,,,,,,,,,,,,,,,,,,,,,,,,,,,,,,,,,,,,,,,,,,,,,,,,,,,,,,,,,,,,,,
,,,,,,,,,,,,5ea606388e4cf808c64292d4,21,Mężczyzna,2022-06-11_09h40.16.362,task,2021.1.4,Win32,64,6299f149e92ead563fba08ef,62a446ca88cd2296b8f7c976,tnzljq,"[""t"",""n"",""z"",""l"",""j"",""q""]","[0.7005999999999517,1.4609999999999843,1.927299999999974,2.435299999999984,2.916499999999985,3.2764999999999986,3.6052999999999713]",0,TNZLTJQ,12,0,12,0,1,,,,,,,,,,,,,,,,,,,,,,,,,,,,,,,,,,,,,,,,,,,,,,,,,,,,,,,,,,,,,,,,,,,,,,,,,,,,,,,,,,,,,,,,,,,
,,,,,,0,0,0,0,1,X V Q F H G B L J M P D K C T S W R N Z,5ea606388e4cf808c64292d4,21,Mężczyzna,2022-06-11_09h40.16.362,task,2021.1.4,Win32,64,6299f149e92ead563fba08ef,62a446ca88cd2296b8f7c976,,,,,,,,,,,,,,,,,,,,,,,,,,,,,,,,,,,,,,,,,,,,,,,,,,,,,,,,,,,,,,,,,,,,,,,,,,,,,,,,,,,,,,,,,,,,,,,,,,,,,
,,,,,,1,0,1,0,1,X V Q F H G B L J M P D K C T S W R N Z,5ea606388e4cf808c64292d4,21,Mężczyzna,2022-06-11_09h40.16.362,task,2021.1.4,Win32,64,6299f149e92ead563fba08ef,62a446ca88cd2296b8f7c976,,,,,,,,,,,,,,,,,,,,,,,,,,,,,,,,,,,,,,,,,,,,,,,,,,,,,,,,,,,,,,,,,,,,,,,,,,,,,,,,,,,,,,,,,,,,,,,,,,,,,
,,,,,,2,0,2,0,1,X V Q F H G B L J M P D K C T S W R N Z,5ea606388e4cf808c64292d4,21,Mężczyzna,2022-06-11_09h40.16.362,task,2021.1.4,Win32,64,6299f149e92ead563fba08ef,62a446ca88cd2296b8f7c976,,,,,,,,,,,,,,,,,,,,,,,,,,,,,,,,,,,,,,,,,,,,,,,,,,,,,,,,,,,,,,,,,,,,,,,,,,,,,,,,,,,,,,,,,,,,,,,,,,,,,
,,,,,,3,0,3,0,1,X V Q F H G B L J M P D K C T S W R N Z,5ea606388e4cf808c64292d4,21,Mężczyzna,2022-06-11_09h40.16.362,task,2021.1.4,Win32,64,6299f149e92ead563fba08ef,62a446ca88cd2296b8f7c976,,,,,,,,,,,,,,,,,,,,,,,,,,,,,,,,,,,,,,,,,,,,,,,,,,,,,,,,,,,,,,,,,,,,,,,,,,,,,,,,,,,,,,,,,,,,,,,,,,,,,
,,,,,,4,0,4,0,1,X V Q F H G B L J M P D K C T S W R N Z,5ea606388e4cf808c64292d4,21,Mężczyzna,2022-06-11_09h40.16.362,task,2021.1.4,Win32,64,6299f149e92ead563fba08ef,62a446ca88cd2296b8f7c976,,,,,,,,,,,,,,,,,,,,,,,,,,,,,,,,,,,,,,,,,,,,,,,,,,,,,,,,,,,,,,,,,,,,,,,,,,,,,,,,,,,,,,,,,,,,,,,,,,,,,
,,,,,,5,0,5,0,1,X V Q F H G B L J M P D K C T S W R N Z,5ea606388e4cf808c64292d4,21,Mężczyzna,2022-06-11_09h40.16.362,task,2021.1.4,Win32,64,6299f149e92ead563fba08ef,62a446ca88cd2296b8f7c976,,,,,,,,,,,,,,,,,,,,,,,,,,,,,,,,,,,,,,,,,,,,,,,,,,,,,,,,,,,,,,,,,,,,,,,,,,,,,,,,,,,,,,,,,,,,,,,,,,,,,
,,,,,,6,0,6,0,1,X V Q F H G B L J M P D K C T S W R N Z,5ea606388e4cf808c64292d4,21,Mężczyzna,2022-06-11_09h40.16.362,task,2021.1.4,Win32,64,6299f149e92ead563fba08ef,62a446ca88cd2296b8f7c976,,,,,,,,,,,,,,,,,,,,,,,,,,,,,,,,,,,,,,,,,,,,,,,,,,,,,,,,,,,,,,,,,,,,,,,,,,,,,,,,,,,,,,,,,,,,,,,,,,,,,
,,,,,,,,,,,,5ea606388e4cf808c64292d4,21,Mężczyzna,2022-06-11_09h40.16.362,task,2021.1.4,Win32,64,6299f149e92ead563fba08ef,62a446ca88cd2296b8f7c976,vprkwjk,"[""v"",""p"",""r"",""k"",""w"",""j"",""k""]","[0.5064999999999884,0.8992999999999824,1.6290999999999656,2.089999999999975,3.023099999999971,3.305199999999985,3.567299999999989,3.7864000000000146]",0,VPRKPWK,13,0,13,0,1,,,,,,,,,,,,,,,,,,,,,,,,,,,,,,,,,,,,,,,,,,,,,,,,,,,,,,,,,,,,,,,,,,,,,,,,,,,,,,,,,,,,,,,,,,,
,,,,,,,,,,,,5ea606388e4cf808c64292d4,21,Mężczyzna,2022-06-11_09h40.16.362,task,2021.1.4,Win32,64,6299f149e92ead563fba08ef,62a446ca88cd2296b8f7c976,,,,,,,,,,,space,4.1461,9,"[""9""]",1,[3.491000000000014],[3.491000000000014],0,0,0,9,1,Practice,10,(20/2) - 1,9,,,,,,,,,,,,,,,,,,,,,,,,,,,,,,,,,,,,,,,,,,,,,,,,,,,,,,,,,,,,,,,,,,,,,,,,,,,
,,,,,,,,,,,,5ea606388e4cf808c64292d4,21,Mężczyzna,2022-06-11_09h40.16.362,task,2021.1.4,Win32,64,6299f149e92ead563fba08ef,62a446ca88cd2296b8f7c976,,,,,,,,,,,,,1,"[""1""]",1,[1.5892000000000337],"[3.491000000000014,1.5892000000000337]",0,1,1,1,1,Practice,2,(4x4) - 15,1,,,,,,,,,,,,,,,,,,,,,,,,,,,,,,,,,,,,,,,,,,,,,,,,,,,,,,,,,,,,,,,,,,,,,,,,,,,
,,,,,,,,,,,,5ea606388e4cf808c64292d4,21,Mężczyzna,2022-06-11_09h40.16.362,task,2021.1.4,Win32,64,6299f149e92ead563fba08ef,62a446ca88cd2296b8f7c976,,,,,,,,,,,,,3,"[""3""]",1,[2.473100000000045],"[3.491000000000014,1.5892000000000337,2.473100000000045]",0,2,2,3,1,Practice,4,(8/4) + 1,3,,,,,,,,,,,,,,,,,,,,,,,,,,,,,,,,,,,,,,,,,,,,,,,,,,,,,,,,,,,,,,,,,,,,,,,,,,,
,,,,,,,,,,,,5ea606388e4cf808c64292d4,21,Mężczyzna,2022-06-11_09h40.16.362,task,2021.1.4,Win32,64,6299f149e92ead563fba08ef,62a446ca88cd2296b8f7c976,,,,,,,,,,,,,8,"[""8""]",1,[1.5039999999999907],"[3.491000000000014,1.5892000000000337,2.473100000000045,1.5039999999999907]",0,3,3,8,1,Practice,9,(3x3) - 1,8,,,,,,,,,,,,,,,,,,,,,,,,,,,,,,,,,,,,,,,,,,,,,,,,,,,,,,,,,,,,,,,,,,,,,,,,,,,
,,,,,,,,,,,,5ea606388e4cf808c64292d4,21,Mężczyzna,2022-06-11_09h40.16.362,task,2021.1.4,Win32,64,6299f149e92ead563fba08ef,62a446ca88cd2296b8f7c976,,,,,,,,,,,,,7,"[""7""]",1,[2.928900000000027],"[3.491000000000014,1.5892000000000337,2.473100000000045,1.5039999999999907,2.928900000000027]",0,4,4,7,1,Practice,8,(5x5) - 18,7,,,,,,,,,,,,,,,,,,,,,,,,,,,,,,,,,,,,,,,,,,,,,,,,,,,,,,,,,,,,,,,,,,,,,,,,,,,
,,,,,,,,,,,,5ea606388e4cf808c64292d4,21,Mężczyzna,2022-06-11_09h40.16.362,task,2021.1.4,Win32,64,6299f149e92ead563fba08ef,62a446ca88cd2296b8f7c976,,,,,,,,,,,,,5,"[""5""]",1,[2.5366000000000497],"[3.491000000000014,1.5892000000000337,2.473100000000045,1.5039999999999907,2.928900000000027,2.5366000000000497]",0,5,5,5,1,Practice,6,(4/2) + 3,5,,,,,,,,,,,,,,,,,,,,,,,,,,,,,,,,,,,,,,,,,,,,,,,,,,,,,,,,,,,,,,,,,,,,,,,,,,,
,,,,,,,,,,,,5ea606388e4cf808c64292d4,21,Mężczyzna,2022-06-11_09h40.16.362,task,2021.1.4,Win32,64,6299f149e92ead563fba08ef,62a446ca88cd2296b8f7c976,,,,,,,,,,,,,6,"[""6""]",1,[1.9897000000000276],"[3.491000000000014,1.5892000000000337,2.473100000000045,1.5039999999999907,2.928900000000027,2.5366000000000497,1.9897000000000276]",0,6,6,6,1,Practice,7,(25/5) + 1,6,,,,,,,,,,,,,,,,,,,,,,,,,,,,,,,,,,,,,,,,,,,,,,,,,,,,,,,,,,,,,,,,,,,,,,,,,,,
,,,,,,,,,,,,5ea606388e4cf808c64292d4,21,Mężczyzna,2022-06-11_09h40.16.362,task,2021.1.4,Win32,64,6299f149e92ead563fba08ef,62a446ca88cd2296b8f7c976,,,,,,,,,,,,,0,"[""0""]",1,[2.2728999999999644],"[3.491000000000014,1.5892000000000337,2.473100000000045,1.5039999999999907,2.928900000000027,2.5366000000000497,1.9897000000000276,2.2728999999999644]",0,7,7,0,1,Practice,1,(3x3) -  9,0,,,,,,,,,,,,,,,,,,,,,,,,,,,,,,,,,,,,,,,,,,,,,,,,,,,,,,,,,,,,,,,,,,,,,,,,,,,
,,,,,,,,,,,,5ea606388e4cf808c64292d4,21,Mężczyzna,2022-06-11_09h40.16.362,task,2021.1.4,Win32,64,6299f149e92ead563fba08ef,62a446ca88cd2296b8f7c976,,,,,,,,,,,,,2,"[""2""]",1,[1.5946000000000424],"[3.491000000000014,1.5892000000000337,2.473100000000045,1.5039999999999907,2.928900000000027,2.5366000000000497,1.9897000000000276,2.2728999999999644,1.5946000000000424]",0,8,8,2,1,Practice,3,(4x4) - 14,2,,,,,,,,,,,,,,,,,,,,,,,,,,,,,,,,,,,,,,,,,,,,,,,,,,,,,,,,,,,,,,,,,,,,,,,,,,,
,,,,,,,,,,,,5ea606388e4cf808c64292d4,21,Mężczyzna,2022-06-11_09h40.16.362,task,2021.1.4,Win32,64,6299f149e92ead563fba08ef,62a446ca88cd2296b8f7c976,,,,,,,,,,,,,4,"[""4""]",1,[1.9819999999999993],"[3.491000000000014,1.5892000000000337,2.473100000000045,1.5039999999999907,2.928900000000027,2.5366000000000497,1.9897000000000276,2.2728999999999644,1.5946000000000424,1.9819999999999993]",0,9,9,4,1,Practice,5,(2x6) - 8,4,,,,,,,,,,,,,,,,,,,,,,,,,,,,,,,,,,,,,,,,,,,,,,,,,,,,,,,,,,,,,,,,,,,,,,,,,,,
,,,,,,,,,,,,5ea606388e4cf808c64292d4,21,Mężczyzna,2022-06-11_09h40.16.362,task,2021.1.4,Win32,64,6299f149e92ead563fba08ef,62a446ca88cd2296b8f7c976,,,,,,,,,,,,,,,,,,,,,,,,,,,1,22.362,1.4908,9.25003288,0.785282662,3.516829267,space,0.7321,0,0,0,0,1,,,,,,,,,,,,,,,,,,,,,,,,,,,,,,,,,,,,,,,,,,,,,,,,,,,,,,,,,,,,,,
,,,,,,,,,,,,5ea606388e4cf808c64292d4,21,Mężczyzna,2022-06-11_09h40.16.362,task,2021.1.4,Win32,64,6299f149e92ead563fba08ef,62a446ca88cd2296b8f7c976,,,,,,,,,,,,,7,,,,,,,,,,Practice,8,(5x5) - 18,7,,,,,,,,,,,,,,space,11.0088,"[""7""]",1,[2.178200000000004],1,0,0,0,7,1,,,,,,,,,,,,,,,,,,,,,,,,,,,,,,,,,,,,,,,,,,,,,,,,,,,
,,,,,,,,,,,X V Q F H G B L J M P D K C T S W R N Z,5ea606388e4cf808c64292d4,21,Mężczyzna,2022-06-11_09h40.16.362,task,2021.1.4,Win32,64,6299f149e92ead563fba08ef,62a446ca88cd2296b8f7c976,,,,,,,,,,,,,,,,,,,,,,,,,,,,,,,,,,,,,,,,,,,,,,,,,,,0,0,0,0,1,,,,,,,,,,,,,,,,,,,,,,,,,,,,,,,,,,,,,,,,,,,,,,
,,,,,,,,,,,,5ea606388e4cf808c64292d4,21,Mężczyzna,2022-06-11_09h40.16.362,task,2021.1.4,Win32,64,6299f149e92ead563fba08ef,62a446ca88cd2296b8f7c976,,,,,,,,,,,,,,,,,,,,,,,Practice,7,(25/5) + 1,6,,,,,,,,,,,,,,,,,0,,0,0,0,0,6,1,,,,,,,,,,,,,,,,,,,,,,,,,,,,,,,,,,,,,,,,,,,,,,,,,,,
,,,,,,,,,,,,5ea606388e4cf808c64292d4,21,Mężczyzna,2022-06-11_09h40.16.362,task,2021.1.4,Win32,64,6299f149e92ead563fba08ef,62a446ca88cd2296b8f7c976,,,,,,,,,,,,,9,,,,,,,,,,Practice,10,(20/2) - 1,9,,,,,,,,,,,,,,,,"[""9""]",1,[2.0072999999999297],1,0,1,1,9,1,,,,,,,,,,,,,,,,,,,,,,,,,,,,,,,,,,,,,,,,,,,,,,,,,,,
,,,,,,,,,,,X V Q F H G B L J M P D K C T S W R N Z,5ea606388e4cf808c64292d4,21,Mężczyzna,2022-06-11_09h40.16.362,task,2021.1.4,Win32,64,6299f149e92ead563fba08ef,62a446ca88cd2296b8f7c976,,,,,,,,,,,,,,,,,,,,,,,,,,,,,,,,,,,,,,,,,,,,,,,,,,,1,0,1,0,1,,,,,,,,,,,,,,,,,,,,,,,,,,,,,,,,,,,,,,,,,,,,,,
,,,,,,,,,,,,5ea606388e4cf808c64292d4,21,Mężczyzna,2022-06-11_09h40.16.362,task,2021.1.4,Win32,64,6299f149e92ead563fba08ef,62a446ca88cd2296b8f7c976,,,,,,,,,,,,,,,,,,,,,,,,,,,,,,,,,,,,,,,,,,,,,,,,,,,,,,,,zq,"[""z"",""q""]",0,"[2.754099999999994,3.0224000000000615,3.337000000000046]",1,0,0,0,0,1,,,,,,,,,,,,,,,,,,,,,,,,,,,,,,,,,,,,
,,,,,,,,,,,,5ea606388e4cf808c64292d4,21,Mężczyzna,2022-06-11_09h40.16.362,task,2021.1.4,Win32,64,6299f149e92ead563fba08ef,62a446ca88cd2296b8f7c976,,,,,,,,,,,,,2,,,,,,,,,,Practice,3,(4x4) - 14,2,,,,,,,,,,,,,,,,"[""2""]",1,[1.837099999999964],1,0,0,0,2,1,,,,,,,,,,,,,,,,,,,,,,,,,,,,,,,,,,,,,,,,,,,,,,,,,,,
,,,,,,,,,,,X V Q F H G B L J M P D K C T S W R N Z,5ea606388e4cf808c64292d4,21,Mężczyzna,2022-06-11_09h40.16.362,task,2021.1.4,Win32,64,6299f149e92ead563fba08ef,62a446ca88cd2296b8f7c976,,,,,,,,,,,,,,,,,,,,,,,,,,,,,,,,,,,,,,,,,,,,,,,,,,,0,0,0,0,1,,,,,,,,,,,,,,,,,,,,,,,,,,,,,,,,,,,,,,,,,,,,,,
,,,,,,,,,,,,5ea606388e4cf808c64292d4,21,Mężczyzna,2022-06-11_09h40.16.362,task,2021.1.4,Win32,64,6299f149e92ead563fba08ef,62a446ca88cd2296b8f7c976,,,,,,,,,,,,,5,,,,,,,,,,Practice,6,(4/2) + 3,5,,,,,,,,,,,,,,,,"[""5""]",1,[1.6028000000000588],1,0,0,0,5,1,,,,,,,,,,,,,,,,,,,,,,,,,,,,,,,,,,,,,,,,,,,,,,,,,,,
,,,,,,,,,,,X V Q F H G B L J M P D K C T S W R N Z,5ea606388e4cf808c64292d4,21,Mężczyzna,2022-06-11_09h40.16.362,task,2021.1.4,Win32,64,6299f149e92ead563fba08ef,62a446ca88cd2296b8f7c976,,,,,,,,,,,,,,,,,,,,,,,,,,,,,,,,,,,,,,,,,,,,,,,,,,,1,0,1,0,1,,,,,,,,,,,,,,,,,,,,,,,,,,,,,,,,,,,,,,,,,,,,,,
,,,,,,,,,,,,5ea606388e4cf808c64292d4,21,Mężczyzna,2022-06-11_09h40.16.362,task,2021.1.4,Win32,64,6299f149e92ead563fba08ef,62a446ca88cd2296b8f7c976,,,,,,,,,,,,,,,,,,,,,,,,,,,,,,,,,,,,,,,,,,,,,,,,,,,,,,,,zj,"[""z"",""j""]",0,"[1.1479999999999677,1.3185999999999467,1.8684999999999832]",1,1,0,1,0,1,,,,,,,,,,,,,,,,,,,,,,,,,,,,,,,,,,,,
,,,,,,,,,,,,5ea606388e4cf808c64292d4,21,Mężczyzna,2022-06-11_09h40.16.362,task,2021.1.4,Win32,64,6299f149e92ead563fba08ef,62a446ca88cd2296b8f7c976,,,,,,,,,,,,,7,,,,,,,,,,Practice,8,(5x5) - 18,7,,,,,,,,,,,,,,,,"[""7""]",1,[1.787900000000036],1,0,0,0,7,1,,,,,,,,,,,,,,,,,,,,,,,,,,,,,,,,,,,,,,,,,,,,,,,,,,,
,,,,,,,,,,,X V Q F H G B L J M P D K C T S W R N Z,5ea606388e4cf808c64292d4,21,Mężczyzna,2022-06-11_09h40.16.362,task,2021.1.4,Win32,64,6299f149e92ead563fba08ef,62a446ca88cd2296b8f7c976,,,,,,,,,,,,,,,,,,,,,,,,,,,,,,,,,,,,,,,,,,,,,,,,,,,0,0,0,0,1,,,,,,,,,,,,,,,,,,,,,,,,,,,,,,,,,,,,,,,,,,,,,,
,,,,,,,,,,,,5ea606388e4cf808c64292d4,21,Mężczyzna,2022-06-11_09h40.16.362,task,2021.1.4,Win32,64,6299f149e92ead563fba08ef,62a446ca88cd2296b8f7c976,,,,,,,,,,,,,9,,,,,,,,,,Practice,10,(20/2) - 1,9,,,,,,,,,,,,,,,,"[""9""]",1,[1.9469000000000278],1,0,0,0,9,1,,,,,,,,,,,,,,,,,,,,,,,,,,,,,,,,,,,,,,,,,,,,,,,,,,,
,,,,,,,,,,,X V Q F H G B L J M P D K C T S W R N Z,5ea606388e4cf808c64292d4,21,Mężczyzna,2022-06-11_09h40.16.362,task,2021.1.4,Win32,64,6299f149e92ead563fba08ef,62a446ca88cd2296b8f7c976,,,,,,,,,,,,,,,,,,,,,,,,,,,,,,,,,,,,,,,,,,,,,,,,,,,1,0,1,0,1,,,,,,,,,,,,,,,,,,,,,,,,,,,,,,,,,,,,,,,,,,,,,,
,,,,,,,,,,,,5ea606388e4cf808c64292d4,21,Mężczyzna,2022-06-11_09h40.16.362,task,2021.1.4,Win32,64,6299f149e92ead563fba08ef,62a446ca88cd2296b8f7c976,,,,,,,,,,,,,,,,,,,,,,,,,,,,,,,,,,,,,,,,,,,,,,,,,,,,,,,,jt,"[""j"",""t""]",0,"[2.2479000000000724,2.4476999999999975,2.6327]",0,2,0,2,0,1,,,,,,,,,,,,,,,,,,,,,,,,,,,,,,,,,,,,
,,,,,,,,,,,,5ea606388e4cf808c64292d4,21,Mężczyzna,2022-06-11_09h40.16.362,task,2021.1.4,Win32,64,6299f149e92ead563fba08ef,62a446ca88cd2296b8f7c976,,,,,,,,,,,,,5,,,,,,,,,,Practice,6,(4/2) + 3,5,,,,,,,,,,,,,,,,"[""5""]",1,[1.6029999999999518],1,0,0,0,5,1,,,,,,,,,,,,,,,,,,,,,,,,,,,,,,,,,,,,,,,,,,,,,,,,,,,
,,,,,,,,,,,X V Q F H G B L J M P D K C T S W R N Z,5ea606388e4cf808c64292d4,21,Mężczyzna,2022-06-11_09h40.16.362,task,2021.1.4,Win32,64,6299f149e92ead563fba08ef,62a446ca88cd2296b8f7c976,,,,,,,,,,,,,,,,,,,,,,,,,,,,,,,,,,,,,,,,,,,,,,,,,,,0,0,0,0,1,,,,,,,,,,,,,,,,,,,,,,,,,,,,,,,,,,,,,,,,,,,,,,
,,,,,,,,,,,,5ea606388e4cf808c64292d4,21,Mężczyzna,2022-06-11_09h40.16.362,task,2021.1.4,Win32,64,6299f149e92ead563fba08ef,62a446ca88cd2296b8f7c976,,,,,,,,,,,,,6,,,,,,,,,,Practice,7,(25/5) + 1,6,,,,,,,,,,,,,,,,"[""6""]",1,[1.5758000000000152],1,0,0,0,6,1,,,,,,,,,,,,,,,,,,,,,,,,,,,,,,,,,,,,,,,,,,,,,,,,,,,
,,,,,,,,,,,X V Q F H G B L J M P D K C T S W R N Z,5ea606388e4cf808c64292d4,21,Mężczyzna,2022-06-11_09h40.16.362,task,2021.1.4,Win32,64,6299f149e92ead563fba08ef,62a446ca88cd2296b8f7c976,,,,,,,,,,,,,,,,,,,,,,,,,,,,,,,,,,,,,,,,,,,,,,,,,,,1,0,1,0,1,,,,,,,,,,,,,,,,,,,,,,,,,,,,,,,,,,,,,,,,,,,,,,
,,,,,,,,,,,,5ea606388e4cf808c64292d4,21,Mężczyzna,2022-06-11_09h40.16.362,task,2021.1.4,Win32,64,6299f149e92ead563fba08ef,62a446ca88cd2296b8f7c976,,,,,,,,,,,,,,,,,,,,,,,,,,,,,,,,,,,,,,,,,,,,,,,,,,,,,,,,ps,"[""p"",""s""]",0,"[0.8171999999999571,0.9449999999999932,1.1602999999998929]",1,3,0,3,0,1,,,,,,,,,,,,,,,,,,,,,,,,,,,,,,,,,,,,
,,,,,,,,,,,,5ea606388e4cf808c64292d4,21,Mężczyzna,2022-06-11_09h40.16.362,task,2021.1.4,Win32,64,6299f149e92ead563fba08ef,62a446ca88cd2296b8f7c976,,,,,,,,,,,,,6,,,,,,,,,,Practice,7,(25/5) + 1,6,,,,,,,,,,,,,,,,"[""6""]",1,[1.1698999999999273],1,0,0,0,6,1,,,,,,,,,,,,,,,,,,,,,,,,,,,,,,,,,,,,,,,,,,,,,,,,,,,
,,,,,,,,,,,X V Q F H G B L J M P D K C T S W R N Z,5ea606388e4cf808c64292d4,21,Mężczyzna,2022-06-11_09h40.16.362,task,2021.1.4,Win32,64,6299f149e92ead563fba08ef,62a446ca88cd2296b8f7c976,,,,,,,,,,,,,,,,,,,,,,,,,,,,,,,,,,,,,,,,,,,,,,,,,,,0,0,0,0,1,,,,,,,,,,,,,,,,,,,,,,,,,,,,,,,,,,,,,,,,,,,,,,
,,,,,,,,,,,,5ea606388e4cf808c64292d4,21,Mężczyzna,2022-06-11_09h40.16.362,task,2021.1.4,Win32,64,6299f149e92ead563fba08ef,62a446ca88cd2296b8f7c976,,,,,,,,,,,,,8,,,,,,,,,,Practice,9,(3x3) - 1,8,,,,,,,,,,,,,,,,"[""8""]",1,[1.7566999999999666],1,0,0,0,8,1,,,,,,,,,,,,,,,,,,,,,,,,,,,,,,,,,,,,,,,,,,,,,,,,,,,
,,,,,,,,,,,X V Q F H G B L J M P D K C T S W R N Z,5ea606388e4cf808c64292d4,21,Mężczyzna,2022-06-11_09h40.16.362,task,2021.1.4,Win32,64,6299f149e92ead563fba08ef,62a446ca88cd2296b8f7c976,,,,,,,,,,,,,,,,,,,,,,,,,,,,,,,,,,,,,,,,,,,,,,,,,,,1,0,1,0,1,,,,,,,,,,,,,,,,,,,,,,,,,,,,,,,,,,,,,,,,,,,,,,
,,,,,,,,,,,,5ea606388e4cf808c64292d4,21,Mężczyzna,2022-06-11_09h40.16.362,task,2021.1.4,Win32,64,6299f149e92ead563fba08ef,62a446ca88cd2296b8f7c976,,,,,,,,,,,,,,,,,,,,,,,,,,,,,,,,,,,,,,,,,,,,,,,,,,,,,,,,sf,"[""s"",""f""]",0,"[0.8403000000000702,0.9445999999999799,1.1925999999999704]",1,4,0,4,0,1,,,,,,,,,,,,,,,,,,,,,,,,,,,,,,,,,,,,
,,,,,,,,,,,,5ea606388e4cf808c64292d4,21,Mężczyzna,2022-06-11_09h40.16.362,task,2021.1.4,Win32,64,6299f149e92ead563fba08ef,62a446ca88cd2296b8f7c976,,,,,,,,,,,,,6,,,,,,,,,,Practice,7,(25/5) + 1,6,,,,,,,,,,,,,,,,"[""6""]",1,[1.1336000000000013],1,0,0,0,6,1,,,,,,,,,,,,,,,,,,,,,,,,,,,,,,,,,,,,,,,,,,,,,,,,,,,
,,,,,,,,,,,X V Q F H G B L J M P D K C T S W R N Z,5ea606388e4cf808c64292d4,21,Mężczyzna,2022-06-11_09h40.16.362,task,2021.1.4,Win32,64,6299f149e92ead563fba08ef,62a446ca88cd2296b8f7c976,,,,,,,,,,,,,,,,,,,,,,,,,,,,,,,,,,,,,,,,,,,,,,,,,,,0,0,0,0,1,,,,,,,,,,,,,,,,,,,,,,,,,,,,,,,,,,,,,,,,,,,,,,
,,,,,,,,,,,,5ea606388e4cf808c64292d4,21,Mężczyzna,2022-06-11_09h40.16.362,task,2021.1.4,Win32,64,6299f149e92ead563fba08ef,62a446ca88cd2296b8f7c976,,,,,,,,,,,,,9,,,,,,,,,,Practice,10,(20/2) - 1,9,,,,,,,,,,,,,,,,"[""9""]",1,[1.4588999999999714],1,0,0,0,9,1,,,,,,,,,,,,,,,,,,,,,,,,,,,,,,,,,,,,,,,,,,,,,,,,,,,
,,,,,,,,,,,X V Q F H G B L J M P D K C T S W R N Z,5ea606388e4cf808c64292d4,21,Mężczyzna,2022-06-11_09h40.16.362,task,2021.1.4,Win32,64,6299f149e92ead563fba08ef,62a446ca88cd2296b8f7c976,,,,,,,,,,,,,,,,,,,,,,,,,,,,,,,,,,,,,,,,,,,,,,,,,,,1,0,1,0,1,,,,,,,,,,,,,,,,,,,,,,,,,,,,,,,,,,,,,,,,,,,,,,
,,,,,,,,,,,,5ea606388e4cf808c64292d4,21,Mężczyzna,2022-06-11_09h40.16.362,task,2021.1.4,Win32,64,6299f149e92ead563fba08ef,62a446ca88cd2296b8f7c976,,,,,,,,,,,,,,,,,,,,,,,,,,,,,,,,,,,,,,,,,,,,,,,,,,,,,,,,rk,"[""r"",""k""]",0,"[1.2937000000000012,1.4295000000000186,1.6145999999999958]",1,5,0,5,0,1,,,,,,,,,,,,,,,,,,,,,,,,,,,,,,,,,,,,
,,,,,,,,,,,,5ea606388e4cf808c64292d4,21,Mężczyzna,2022-06-11_09h40.16.362,task,2021.1.4,Win32,64,6299f149e92ead563fba08ef,62a446ca88cd2296b8f7c976,,,,,,,,,,,,,,,,,,,,,,,Task,15,(3x7) - 13,8,,,,,,,,,,,,,,,,,,,0,,,,,,,,,,,,,,,,,,,,,space,12.014,,0,0,0,0,14,1,,,,,,,,,,,,,,,,,,,,,,,,,,,
,,,,,,,,,,,,5ea606388e4cf808c64292d4,21,Mężczyzna,2022-06-11_09h40.16.362,task,2021.1.4,Win32,64,6299f149e92ead563fba08ef,62a446ca88cd2296b8f7c976,,,,,,,,,,,,,5,,,,,,,,,,Task,29,(3x8) - 19 ,5,,,,,,,,,,,,,,,,,,,1,,,,,,,,,,,,,,,,,,,,,,,"[""5""]",1,0,1,1,28,1,[2.156099999999981],,,,,,,,,,,,,,,,,,,,,,,,,,
,,,,,,,,,,,X V Q F H G B L J M P D K C T S W R N Z,5ea606388e4cf808c64292d4,21,Mężczyzna,2022-06-11_09h40.16.362,task,2021.1.4,Win32,64,6299f149e92ead563fba08ef,62a446ca88cd2296b8f7c976,,,,,,,,,,,,,,,,,,,,,,,,,,,,,,,,,,,,,,,,,,,,,,,,,,,,,,,,,,,,,,,,,,,,,,,,,,,,0,0,0,0,1,,,,,,,,,,,,,,,,,,,,,
,,,,,,,,,,,,5ea606388e4cf808c64292d4,21,Mężczyzna,2022-06-11_09h40.16.362,task,2021.1.4,Win32,64,6299f149e92ead563fba08ef,62a446ca88cd2296b8f7c976,,,,,,,,,,,,,4,,,,,,,,,,Task,11,(18/3) - 2,4,,,,,,,,,,,,,,,,,,,1,,,,,,,,,,,,,,,,,,,,,,,"[""4""]",1,0,0,0,10,1,[2.253499999999974],,,,,,,,,,,,,,,,,,,,,,,,,,
,,,,,,,,,,,X V Q F H G B L J M P D K C T S W R N Z,5ea606388e4cf808c64292d4,21,Mężczyzna,2022-06-11_09h40.16.362,task,2021.1.4,Win32,64,6299f149e92ead563fba08ef,62a446ca88cd2296b8f7c976,,,,,,,,,,,,,,,,,,,,,,,,,,,,,,,,,,,,,,,,,,,,,,,,,,,,,,,,,,,,,,,,,,,,,,,,,,,,1,0,1,0,1,,,,,,,,,,,,,,,,,,,,,
,,,,,,,,,,,,5ea606388e4cf808c64292d4,21,Mężczyzna,2022-06-11_09h40.16.362,task,2021.1.4,Win32,64,6299f149e92ead563fba08ef,62a446ca88cd2296b8f7c976,,,,,,,,,,,,,,,,,,,,,,,,,,,,,,,,,,,,,,,,,,,,,,,,,,,,,,,,,,,,,,,,,,,,,,,,,,,,,,,,,zn,"[""z"",""n""]",0,"[0.9961000000000126,1.122199999999964,1.2732999999999493]",1,ZN,0,0,0,0,1,,,,,,,,,,
,,,,,,,,,,,,5ea606388e4cf808c64292d4,21,Mężczyzna,2022-06-11_09h40.16.362,task,2021.1.4,Win32,64,6299f149e92ead563fba08ef,62a446ca88cd2296b8f7c976,,,,,,,,,,,,,0,,,,,,,,,,Task,33,(1/1) - 1,0,,,,,,,,,,,,,,,,,,,1,,,,,,,,,,,,,,,,,,,,,,,"[""0""]",1,0,0,0,32,1,[1.686100000000124],,,,,,,,,,,,,,,,,,,,,,,,,,
,,,,,,,,,,,X V Q F H G B L J M P D K C T S W R N Z,5ea606388e4cf808c64292d4,21,Mężczyzna,2022-06-11_09h40.16.362,task,2021.1.4,Win32,64,6299f149e92ead563fba08ef,62a446ca88cd2296b8f7c976,,,,,,,,,,,,,,,,,,,,,,,,,,,,,,,,,,,,,,,,,,,,,,,,,,,,,,,,,,,,,,,,,,,,,,,,,,,,0,0,0,0,1,,,,,,,,,,,,,,,,,,,,,
,,,,,,,,,,,,5ea606388e4cf808c64292d4,21,Mężczyzna,2022-06-11_09h40.16.362,task,2021.1.4,Win32,64,6299f149e92ead563fba08ef,62a446ca88cd2296b8f7c976,,,,,,,,,,,,,3,,,,,,,,,,Task,35,(1x2) + 1,3,,,,,,,,,,,,,,,,,,,1,,,,,,,,,,,,,,,,,,,,,,,"[""3""]",1,0,0,0,34,1,[1.5910000000000082],,,,,,,,,,,,,,,,,,,,,,,,,,
,,,,,,,,,,,X V Q F H G B L J M P D K C T S W R N Z,5ea606388e4cf808c64292d4,21,Mężczyzna,2022-06-11_09h40.16.362,task,2021.1.4,Win32,64,6299f149e92ead563fba08ef,62a446ca88cd2296b8f7c976,,,,,,,,,,,,,,,,,,,,,,,,,,,,,,,,,,,,,,,,,,,,,,,,,,,,,,,,,,,,,,,,,,,,,,,,,,,,1,0,1,0,1,,,,,,,,,,,,,,,,,,,,,
,,,,,,,,,,,,5ea606388e4cf808c64292d4,21,Mężczyzna,2022-06-11_09h40.16.362,task,2021.1.4,Win32,64,6299f149e92ead563fba08ef,62a446ca88cd2296b8f7c976,,,,,,,,,,,,,6,,,,,,,,,,Task,30,(6/3) + 4 ,6,,,,,,,,,,,,,,,,,,,1,,,,,,,,,,,,,,,,,,,,,,,"[""6""]",1,0,0,0,29,1,[2.4195000000000277],,,,,,,,,,,,,,,,,,,,,,,,,,
,,,,,,,,,,,X V Q F H G B L J M P D K C T S W R N Z,5ea606388e4cf808c64292d4,21,Mężczyzna,2022-06-11_09h40.16.362,task,2021.1.4,Win32,64,6299f149e92ead563fba08ef,62a446ca88cd2296b8f7c976,,,,,,,,,,,,,,,,,,,,,,,,,,,,,,,,,,,,,,,,,,,,,,,,,,,,,,,,,,,,,,,,,,,,,,,,,,,,2,0,2,0,1,,,,,,,,,,,,,,,,,,,,,
,,,,,,,,,,,,5ea606388e4cf808c64292d4,21,Mężczyzna,2022-06-11_09h40.16.362,task,2021.1.4,Win32,64,6299f149e92ead563fba08ef,62a446ca88cd2296b8f7c976,,,,,,,,,,,,,,,,,,,,,,,,,,,,,,,,,,,,,,,,,,,,,,,,,,,,,,,,,,,,,,,,,,,,,,,,,,,,,,,,,dvz,"[""d"",""v"",""z""]",0,"[0.9966999999999757,1.134900000000016,1.3505999999999858,1.5679999999999836]",1,DVZ,1,0,1,0,1,,,,,,,,,,
,,,,,,,,,,,,5ea606388e4cf808c64292d4,21,Mężczyzna,2022-06-11_09h40.16.362,task,2021.1.4,Win32,64,6299f149e92ead563fba08ef,62a446ca88cd2296b8f7c976,,,,,,,,,,,,,9,,,,,,,,,,Task,7,(3x7) - 12,9,,,,,,,,,,,,,,,,,,,1,,,,,,,,,,,,,,,,,,,,,,,"[""9""]",1,0,0,0,6,1,[1.5410999999999717],,,,,,,,,,,,,,,,,,,,,,,,,,
,,,,,,,,,,,X V Q F H G B L J M P D K C T S W R N Z,5ea606388e4cf808c64292d4,21,Mężczyzna,2022-06-11_09h40.16.362,task,2021.1.4,Win32,64,6299f149e92ead563fba08ef,62a446ca88cd2296b8f7c976,,,,,,,,,,,,,,,,,,,,,,,,,,,,,,,,,,,,,,,,,,,,,,,,,,,,,,,,,,,,,,,,,,,,,,,,,,,,0,0,0,0,1,,,,,,,,,,,,,,,,,,,,,
,,,,,,,,,,,,5ea606388e4cf808c64292d4,21,Mężczyzna,2022-06-11_09h40.16.362,task,2021.1.4,Win32,64,6299f149e92ead563fba08ef,62a446ca88cd2296b8f7c976,,,,,,,,,,,,,7,,,,,,,,,,Task,14,(2x2) + 3,7,,,,,,,,,,,,,,,,,,,1,,,,,,,,,,,,,,,,,,,,,,,"[""7""]",1,0,0,0,13,1,[1.8190999999999917],,,,,,,,,,,,,,,,,,,,,,,,,,
,,,,,,,,,,,X V Q F H G B L J M P D K C T S W R N Z,5ea606388e4cf808c64292d4,21,Mężczyzna,2022-06-11_09h40.16.362,task,2021.1.4,Win32,64,6299f149e92ead563fba08ef,62a446ca88cd2296b8f7c976,,,,,,,,,,,,,,,,,,,,,,,,,,,,,,,,,,,,,,,,,,,,,,,,,,,,,,,,,,,,,,,,,,,,,,,,,,,,1,0,1,0,1,,,,,,,,,,,,,,,,,,,,,
,,,,,,,,,,,,5ea606388e4cf808c64292d4,21,Mężczyzna,2022-06-11_09h40.16.362,task,2021.1.4,Win32,64,6299f149e92ead563fba08ef,62a446ca88cd2296b8f7c976,,,,,,,,,,,,,4,,,,,,,,,,Task,21,(10/2) - 1,4,,,,,,,,,,,,,,,,,,,1,,,,,,,,,,,,,,,,,,,,,,,"[""4""]",1,0,0,0,20,1,[2.0896000000000186],,,,,,,,,,,,,,,,,,,,,,,,,,
,,,,,,,,,,,X V Q F H G B L J M P D K C T S W R N Z,5ea606388e4cf808c64292d4,21,Mężczyzna,2022-06-11_09h40.16.362,task,2021.1.4,Win32,64,6299f149e92ead563fba08ef,62a446ca88cd2296b8f7c976,,,,,,,,,,,,,,,,,,,,,,,,,,,,,,,,,,,,,,,,,,,,,,,,,,,,,,,,,,,,,,,,,,,,,,,,,,,,2,0,2,0,1,,,,,,,,,,,,,,,,,,,,,
,,,,,,,,,,,,5ea606388e4cf808c64292d4,21,Mężczyzna,2022-06-11_09h40.16.362,task,2021.1.4,Win32,64,6299f149e92ead563fba08ef,62a446ca88cd2296b8f7c976,,,,,,,,,,,,,0,,,,,,,,,,Task,8,(1x5) - 5,0,,,,,,,,,,,,,,,,,,,1,,,,,,,,,,,,,,,,,,,,,,,"[""0""]",1,0,0,0,7,1,[2.0808000000000675],,,,,,,,,,,,,,,,,,,,,,,,,,
,,,,,,,,,,,X V Q F H G B L J M P D K C T S W R N Z,5ea606388e4cf808c64292d4,21,Mężczyzna,2022-06-11_09h40.16.362,task,2021.1.4,Win32,64,6299f149e92ead563fba08ef,62a446ca88cd2296b8f7c976,,,,,,,,,,,,,,,,,,,,,,,,,,,,,,,,,,,,,,,,,,,,,,,,,,,,,,,,,,,,,,,,,,,,,,,,,,,,3,0,3,0,1,,,,,,,,,,,,,,,,,,,,,
,,,,,,,,,,,,5ea606388e4cf808c64292d4,21,Mężczyzna,2022-06-11_09h40.16.362,task,2021.1.4,Win32,64,6299f149e92ead563fba08ef,62a446ca88cd2296b8f7c976,,,,,,,,,,,,,,,,,,,,,,,,,,,,,,,,,,,,,,,,,,,,,,,,,,,,,,,,,,,,,,,,,,,,,,,,,,,,,,,,,bqgp,"[""b"",""q"",""g"",""p""]",0,"[0.9992999999999483,1.2487999999999033,1.5382999999999356,1.817299999999932,2.0264999999999986]",1,BQGP,2,0,2,0,1,,,,,,,,,,
,,,,,,,,,,,,5ea606388e4cf808c64292d4,21,Mężczyzna,2022-06-11_09h40.16.362,task,2021.1.4,Win32,64,6299f149e92ead563fba08ef,62a446ca88cd2296b8f7c976,,,,,,,,,,,,,8,,,,,,,,,,Task,39,(5x3) - 7,8,,,,,,,,,,,,,,,,,,,1,,,,,,,,,,,,,,,,,,,,,,,"[""8""]",1,0,0,0,38,1,[1.7102000000000999],,,,,,,,,,,,,,,,,,,,,,,,,,
,,,,,,,,,,,X V Q F H G B L J M P D K C T S W R N Z,5ea606388e4cf808c64292d4,21,Mężczyzna,2022-06-11_09h40.16.362,task,2021.1.4,Win32,64,6299f149e92ead563fba08ef,62a446ca88cd2296b8f7c976,,,,,,,,,,,,,,,,,,,,,,,,,,,,,,,,,,,,,,,,,,,,,,,,,,,,,,,,,,,,,,,,,,,,,,,,,,,,0,0,0,0,1,,,,,,,,,,,,,,,,,,,,,
,,,,,,,,,,,,5ea606388e4cf808c64292d4,21,Mężczyzna,2022-06-11_09h40.16.362,task,2021.1.4,Win32,64,6299f149e92ead563fba08ef,62a446ca88cd2296b8f7c976,,,,,,,,,,,,,4,,,,,,,,,,Task,11,(18/3) - 2,4,,,,,,,,,,,,,,,,,,,1,,,,,,,,,,,,,,,,,,,,,,,"[""4""]",1,0,0,0,10,1,[1.7869000000000028],,,,,,,,,,,,,,,,,,,,,,,,,,
,,,,,,,,,,,X V Q F H G B L J M P D K C T S W R N Z,5ea606388e4cf808c64292d4,21,Mężczyzna,2022-06-11_09h40.16.362,task,2021.1.4,Win32,64,6299f149e92ead563fba08ef,62a446ca88cd2296b8f7c976,,,,,,,,,,,,,,,,,,,,,,,,,,,,,,,,,,,,,,,,,,,,,,,,,,,,,,,,,,,,,,,,,,,,,,,,,,,,1,0,1,0,1,,,,,,,,,,,,,,,,,,,,,
,,,,,,,,,,,,5ea606388e4cf808c64292d4,21,Mężczyzna,2022-06-11_09h40.16.362,task,2021.1.4,Win32,64,6299f149e92ead563fba08ef,62a446ca88cd2296b8f7c976,,,,,,,,,,,,,8,,,,,,,,,,Task,32,(8/2) + 4,8,,,,,,,,,,,,,,,,,,,1,,,,,,,,,,,,,,,,,,,,,,,"[""8""]",1,0,0,0,31,1,[2.0062000000000353],,,,,,,,,,,,,,,,,,,,,,,,,,
,,,,,,,,,,,X V Q F H G B L J M P D K C T S W R N Z,5ea606388e4cf808c64292d4,21,Mężczyzna,2022-06-11_09h40.16.362,task,2021.1.4,Win32,64,6299f149e92ead563fba08ef,62a446ca88cd2296b8f7c976,,,,,,,,,,,,,,,,,,,,,,,,,,,,,,,,,,,,,,,,,,,,,,,,,,,,,,,,,,,,,,,,,,,,,,,,,,,,2,0,2,0,1,,,,,,,,,,,,,,,,,,,,,
,,,,,,,,,,,,5ea606388e4cf808c64292d4,21,Mężczyzna,2022-06-11_09h40.16.362,task,2021.1.4,Win32,64,6299f149e92ead563fba08ef,62a446ca88cd2296b8f7c976,,,,,,,,,,,,,1,,,,,,,,,,Task,9,(3x7) - 20,1,,,,,,,,,,,,,,,,,,,1,,,,,,,,,,,,,,,,,,,,,,,"[""1""]",1,0,0,0,8,1,[1.4508000000000152],,,,,,,,,,,,,,,,,,,,,,,,,,
,,,,,,,,,,,X V Q F H G B L J M P D K C T S W R N Z,5ea606388e4cf808c64292d4,21,Mężczyzna,2022-06-11_09h40.16.362,task,2021.1.4,Win32,64,6299f149e92ead563fba08ef,62a446ca88cd2296b8f7c976,,,,,,,,,,,,,,,,,,,,,,,,,,,,,,,,,,,,,,,,,,,,,,,,,,,,,,,,,,,,,,,,,,,,,,,,,,,,3,0,3,0,1,,,,,,,,,,,,,,,,,,,,,
,,,,,,,,,,,,5ea606388e4cf808c64292d4,21,Mężczyzna,2022-06-11_09h40.16.362,task,2021.1.4,Win32,64,6299f149e92ead563fba08ef,62a446ca88cd2296b8f7c976,,,,,,,,,,,,,0,,,,,,,,,,Task,2,(2x2) - 2,2,,,,,,,,,,,,,,,,,,,0,,,,,,,,,,,,,,,,,,,,,,,"[""0""]",0,0,0,0,1,1,[1.3856000000000108],,,,,,,,,,,,,,,,,,,,,,,,,,
,,,,,,,,,,,,5ea606388e4cf808c64292d4,21,Mężczyzna,2022-06-11_09h40.16.362,task,2021.1.4,Win32,64,6299f149e92ead563fba08ef,62a446ca88cd2296b8f7c976,,,,,,,,,,,,,3,,,,,,,,,,Task,20,(18/9) + 1,3,,,,,,,,,,,,,,,,,,,1,,,,,,,,,,,,,,,,,,,,,,,"[""3""]",1,0,1,1,19,1,[2.8192999999999415],,,,,,,,,,,,,,,,,,,,,,,,,,
,,,,,,,,,,,X V Q F H G B L J M P D K C T S W R N Z,5ea606388e4cf808c64292d4,21,Mężczyzna,2022-06-11_09h40.16.362,task,2021.1.4,Win32,64,6299f149e92ead563fba08ef,62a446ca88cd2296b8f7c976,,,,,,,,,,,,,,,,,,,,,,,,,,,,,,,,,,,,,,,,,,,,,,,,,,,,,,,,,,,,,,,,,,,,,,,,,,,,4,0,4,0,1,,,,,,,,,,,,,,,,,,,,,
,,,,,,,,,,,,5ea606388e4cf808c64292d4,21,Mężczyzna,2022-06-11_09h40.16.362,task,2021.1.4,Win32,64,6299f149e92ead563fba08ef,62a446ca88cd2296b8f7c976,,,,,,,,,,,,,,,,,,,,,,,,,,,,,,,,,,,,,,,,,,,,,,,,,,,,,,,,,,,,,,,,,,,,,,,,,,,,,,,,,lzdwd,"[""l"",""z"",""d"",""w"",""d""]",0,"[1.004699999999957,1.312599999999975,1.6552999999999543,3.2181999999999675,3.397399999999891,3.928399999999897]",1,LZDWD,3,0,3,0,1,,,,,,,,,,
,,,,,,,,,,,,5ea606388e4cf808c64292d4,21,Mężczyzna,2022-06-11_09h40.16.362,task,2021.1.4,Win32,64,6299f149e92ead563fba08ef,62a446ca88cd2296b8f7c976,,,,,,,,,,,,,4,,,,,,,,,,Task,28,(2x5) - 6,4,,,,,,,,,,,,,,,,,,,1,,,,,,,,,,,,,,,,,,,,,,,"[""4""]",1,0,0,0,27,1,[2.587600000000009],,,,,,,,,,,,,,,,,,,,,,,,,,
,,,,,,,,,,,X V Q F H G B L J M P D K C T S W R N Z,5ea606388e4cf808c64292d4,21,Mężczyzna,2022-06-11_09h40.16.362,task,2021.1.4,Win32,64,6299f149e92ead563fba08ef,62a446ca88cd2296b8f7c976,,,,,,,,,,,,,,,,,,,,,,,,,,,,,,,,,,,,,,,,,,,,,,,,,,,,,,,,,,,,,,,,,,,,,,,,,,,,0,0,0,0,1,,,,,,,,,,,,,,,,,,,,,
,,,,,,,,,,,,5ea606388e4cf808c64292d4,21,Mężczyzna,2022-06-11_09h40.16.362,task,2021.1.4,Win32,64,6299f149e92ead563fba08ef,62a446ca88cd2296b8f7c976,,,,,,,,,,,,,6,,,,,,,,,,Task,37,(3/3) + 5,6,,,,,,,,,,,,,,,,,,,1,,,,,,,,,,,,,,,,,,,,,,,"[""6""]",1,0,0,0,36,1,[2.0271999999999366],,,,,,,,,,,,,,,,,,,,,,,,,,
,,,,,,,,,,,X V Q F H G B L J M P D K C T S W R N Z,5ea606388e4cf808c64292d4,21,Mężczyzna,2022-06-11_09h40.16.362,task,2021.1.4,Win32,64,6299f149e92ead563fba08ef,62a446ca88cd2296b8f7c976,,,,,,,,,,,,,,,,,,,,,,,,,,,,,,,,,,,,,,,,,,,,,,,,,,,,,,,,,,,,,,,,,,,,,,,,,,,,1,0,1,0,1,,,,,,,,,,,,,,,,,,,,,
,,,,,,,,,,,,5ea606388e4cf808c64292d4,21,Mężczyzna,2022-06-11_09h40.16.362,task,2021.1.4,Win32,64,6299f149e92ead563fba08ef,62a446ca88cd2296b8f7c976,,,,,,,,,,,,,2,,,,,,,,,,Task,2,(2x2) - 2,2,,,,,,,,,,,,,,,,,,,1,,,,,,,,,,,,,,,,,,,,,,,"[""2""]",1,0,0,0,1,1,[2.338099999999997],,,,,,,,,,,,,,,,,,,,,,,,,,
,,,,,,,,,,,X V Q F H G B L J M P D K C T S W R N Z,5ea606388e4cf808c64292d4,21,Mężczyzna,2022-06-11_09h40.16.362,task,2021.1.4,Win32,64,6299f149e92ead563fba08ef,62a446ca88cd2296b8f7c976,,,,,,,,,,,,,,,,,,,,,,,,,,,,,,,,,,,,,,,,,,,,,,,,,,,,,,,,,,,,,,,,,,,,,,,,,,,,2,0,2,0,1,,,,,,,,,,,,,,,,,,,,,
,,,,,,,,,,,,5ea606388e4cf808c64292d4,21,Mężczyzna,2022-06-11_09h40.16.362,task,2021.1.4,Win32,64,6299f149e92ead563fba08ef,62a446ca88cd2296b8f7c976,,,,,,,,,,,,,6,,,,,,,,,,Task,13,(3x4) - 6,6,,,,,,,,,,,,,,,,,,,1,,,,,,,,,,,,,,,,,,,,,,,"[""6""]",1,0,0,0,12,1,[1.8575999999999908],,,,,,,,,,,,,,,,,,,,,,,,,,
,,,,,,,,,,,X V Q F H G B L J M P D K C T S W R N Z,5ea606388e4cf808c64292d4,21,Mężczyzna,2022-06-11_09h40.16.362,task,2021.1.4,Win32,64,6299f149e92ead563fba08ef,62a446ca88cd2296b8f7c976,,,,,,,,,,,,,,,,,,,,,,,,,,,,,,,,,,,,,,,,,,,,,,,,,,,,,,,,,,,,,,,,,,,,,,,,,,,,3,0,3,0,1,,,,,,,,,,,,,,,,,,,,,
,,,,,,,,,,,,5ea606388e4cf808c64292d4,21,Mężczyzna,2022-06-11_09h40.16.362,task,2021.1.4,Win32,64,6299f149e92ead563fba08ef,62a446ca88cd2296b8f7c976,,,,,,,,,,,,,0,,,,,,,,,,Task,17,(2x3) - 6,0,,,,,,,,,,,,,,,,,,,1,,,,,,,,,,,,,,,,,,,,,,,"[""0""]",1,0,0,0,16,1,[1.596300000000042],,,,,,,,,,,,,,,,,,,,,,,,,,
,,,,,,,,,,,X V Q F H G B L J M P D K C T S W R N Z,5ea606388e4cf808c64292d4,21,Mężczyzna,2022-06-11_09h40.16.362,task,2021.1.4,Win32,64,6299f149e92ead563fba08ef,62a446ca88cd2296b8f7c976,,,,,,,,,,,,,,,,,,,,,,,,,,,,,,,,,,,,,,,,,,,,,,,,,,,,,,,,,,,,,,,,,,,,,,,,,,,,4,0,4,0,1,,,,,,,,,,,,,,,,,,,,,
,,,,,,,,,,,,5ea606388e4cf808c64292d4,21,Mężczyzna,2022-06-11_09h40.16.362,task,2021.1.4,Win32,64,6299f149e92ead563fba08ef,62a446ca88cd2296b8f7c976,,,,,,,,,,,,,1,,,,,,,,,,Task,34,(9/3) - 2,1,,,,,,,,,,,,,,,,,,,1,,,,,,,,,,,,,,,,,,,,,,,"[""1""]",1,0,0,0,33,1,[2.0194999999999936],,,,,,,,,,,,,,,,,,,,,,,,,,
,,,,,,,,,,,X V Q F H G B L J M P D K C T S W R N Z,5ea606388e4cf808c64292d4,21,Mężczyzna,2022-06-11_09h40.16.362,task,2021.1.4,Win32,64,6299f149e92ead563fba08ef,62a446ca88cd2296b8f7c976,,,,,,,,,,,,,,,,,,,,,,,,,,,,,,,,,,,,,,,,,,,,,,,,,,,,,,,,,,,,,,,,,,,,,,,,,,,,5,0,5,0,1,,,,,,,,,,,,,,,,,,,,,
,,,,,,,,,,,,5ea606388e4cf808c64292d4,21,Mężczyzna,2022-06-11_09h40.16.362,task,2021.1.4,Win32,64,6299f149e92ead563fba08ef,62a446ca88cd2296b8f7c976,,,,,,,,,,,,,,,,,,,,,,,,,,,,,,,,,,,,,,,,,,,,,,,,,,,,,,,,,,,,,,,,,,,,,,,,,,,,,,,,,pqcsf,"[""p"",""q"",""c"",""s"",""f""]",0,"[1.1175000000000068,1.4504999999999768,2.025199999999927,2.525299999999902,2.7077999999999065,2.8975999999999544]",0,PQCSDF,4,0,4,0,1,,,,,,,,,,
,,,,,,,,,,,,5ea606388e4cf808c64292d4,21,Mężczyzna,2022-06-11_09h40.16.362,task,2021.1.4,Win32,64,6299f149e92ead563fba08ef,62a446ca88cd2296b8f7c976,,,,,,,,,,,,,1,,,,,,,,,,Task,9,(3x7) - 20,1,,,,,,,,,,,,,,,,,,,1,,,,,,,,,,,,,,,,,,,,,,,"[""1""]",1,0,0,0,8,1,[0.9902999999999338],,,,,,,,,,,,,,,,,,,,,,,,,,
,,,,,,,,,,,X V Q F H G B L J M P D K C T S W R N Z,5ea606388e4cf808c64292d4,21,Mężczyzna,2022-06-11_09h40.16.362,task,2021.1.4,Win32,64,6299f149e92ead563fba08ef,62a446ca88cd2296b8f7c976,,,,,,,,,,,,,,,,,,,,,,,,,,,,,,,,,,,,,,,,,,,,,,,,,,,,,,,,,,,,,,,,,,,,,,,,,,,,0,0,0,0,1,,,,,,,,,,,,,,,,,,,,,
,,,,,,,,,,,,5ea606388e4cf808c64292d4,21,Mężczyzna,2022-06-11_09h40.16.362,task,2021.1.4,Win32,64,6299f149e92ead563fba08ef,62a446ca88cd2296b8f7c976,,,,,,,,,,,,,2,,,,,,,,,,Task,25,(10/5) - 2,0,,,,,,,,,,,,,,,,,,,0,,,,,,,,,,,,,,,,,,,,,,,"[""2""]",0,0,0,0,24,1,[1.8479999999999563],,,,,,,,,,,,,,,,,,,,,,,,,,
,,,,,,,,,,,,5ea606388e4cf808c64292d4,21,Mężczyzna,2022-06-11_09h40.16.362,task,2021.1.4,Win32,64,6299f149e92ead563fba08ef,62a446ca88cd2296b8f7c976,,,,,,,,,,,,,1,,,,,,,,,,Task,21,(10/2) - 1,4,,,,,,,,,,,,,,,,,,,0,,,,,,,,,,,,,,,,,,,,,,,"[""1""]",0,0,1,1,20,1,[1.8024999999999523],,,,,,,,,,,,,,,,,,,,,,,,,,
,,,,,,,,,,,,5ea606388e4cf808c64292d4,21,Mężczyzna,2022-06-11_09h40.16.362,task,2021.1.4,Win32,64,6299f149e92ead563fba08ef,62a446ca88cd2296b8f7c976,,,,,,,,,,,,,,,,,,,,,,,Task,28,(2x5) - 6,4,,,,,,,,,,,,,,,,,,,0,,,,,,,,,,,,,,,,,,,,,,,,0,0,2,2,27,1,,,,,,,,,,,,,,,,,,,,,,,,,,,
,,,,,,,,,,,,5ea606388e4cf808c64292d4,21,Mężczyzna,2022-06-11_09h40.16.362,task,2021.1.4,Win32,64,6299f149e92ead563fba08ef,62a446ca88cd2296b8f7c976,,,,,,,,,,,,,0,,,,,,,,,,Task,17,(2x3) - 6,0,,,,,,,,,,,,,,,,,,,1,,,,,,,,,,,,,,,,,,,,,,,"[""0""]",1,0,3,3,16,1,[2.0264999999999986],,,,,,,,,,,,,,,,,,,,,,,,,,
,,,,,,,,,,,X V Q F H G B L J M P D K C T S W R N Z,5ea606388e4cf808c64292d4,21,Mężczyzna,2022-06-11_09h40.16.362,task,2021.1.4,Win32,64,6299f149e92ead563fba08ef,62a446ca88cd2296b8f7c976,,,,,,,,,,,,,,,,,,,,,,,,,,,,,,,,,,,,,,,,,,,,,,,,,,,,,,,,,,,,,,,,,,,,,,,,,,,,1,0,1,0,1,,,,,,,,,,,,,,,,,,,,,
,,,,,,,,,,,,5ea606388e4cf808c64292d4,21,Mężczyzna,2022-06-11_09h40.16.362,task,2021.1.4,Win32,64,6299f149e92ead563fba08ef,62a446ca88cd2296b8f7c976,,,,,,,,,,,,,6,,,,,,,,,,Task,5,(2x3) + 0,6,,,,,,,,,,,,,,,,,,,1,,,,,,,,,,,,,,,,,,,,,,,"[""6""]",1,0,0,0,4,1,[1.539199999999937],,,,,,,,,,,,,,,,,,,,,,,,,,
,,,,,,,,,,,X V Q F H G B L J M P D K C T S W R N Z,5ea606388e4cf808c64292d4,21,Mężczyzna,2022-06-11_09h40.16.362,task,2021.1.4,Win32,64,6299f149e92ead563fba08ef,62a446ca88cd2296b8f7c976,,,,,,,,,,,,,,,,,,,,,,,,,,,,,,,,,,,,,,,,,,,,,,,,,,,,,,,,,,,,,,,,,,,,,,,,,,,,2,0,2,0,1,,,,,,,,,,,,,,,,,,,,,
,,,,,,,,,,,,5ea606388e4cf808c64292d4,21,Mężczyzna,2022-06-11_09h40.16.362,task,2021.1.4,Win32,64,6299f149e92ead563fba08ef,62a446ca88cd2296b8f7c976,,,,,,,,,,,,,3,,,,,,,,,,Task,3,(2x3) - 3,3,,,,,,,,,,,,,,,,,,,1,,,,,,,,,,,,,,,,,,,,,,,"[""3""]",1,0,0,0,2,1,[2.0744000000000256],,,,,,,,,,,,,,,,,,,,,,,,,,
,,,,,,,,,,,X V Q F H G B L J M P D K C T S W R N Z,5ea606388e4cf808c64292d4,21,Mężczyzna,2022-06-11_09h40.16.362,task,2021.1.4,Win32,64,6299f149e92ead563fba08ef,62a446ca88cd2296b8f7c976,,,,,,,,,,,,,,,,,,,,,,,,,,,,,,,,,,,,,,,,,,,,,,,,,,,,,,,,,,,,,,,,,,,,,,,,,,,,3,0,3,0,1,,,,,,,,,,,,,,,,,,,,,
,,,,,,,,,,,,5ea606388e4cf808c64292d4,21,Mężczyzna,2022-06-11_09h40.16.362,task,2021.1.4,Win32,64,6299f149e92ead563fba08ef,62a446ca88cd2296b8f7c976,,,,,,,,,,,,,7,,,,,,,,,,Task,38,(4x6) - 17,7,,,,,,,,,,,,,,,,,,,1,,,,,,,,,,,,,,,,,,,,,,,"[""7""]",1,0,0,0,37,1,[2.8215999999999894],,,,,,,,,,,,,,,,,,,,,,,,,,
,,,,,,,,,,,X V Q F H G B L J M P D K C T S W R N Z,5ea606388e4cf808c64292d4,21,Mężczyzna,2022-06-11_09h40.16.362,task,2021.1.4,Win32,64,6299f149e92ead563fba08ef,62a446ca88cd2296b8f7c976,,,,,,,,,,,,,,,,,,,,,,,,,,,,,,,,,,,,,,,,,,,,,,,,,,,,,,,,,,,,,,,,,,,,,,,,,,,,4,0,4,0,1,,,,,,,,,,,,,,,,,,,,,
,,,,,,,,,,,,5ea606388e4cf808c64292d4,21,Mężczyzna,2022-06-11_09h40.16.362,task,2021.1.4,Win32,64,6299f149e92ead563fba08ef,62a446ca88cd2296b8f7c976,,,,,,,,,,,,,6,,,,,,,,,,Task,13,(3x4) - 6,6,,,,,,,,,,,,,,,,,,,1,,,,,,,,,,,,,,,,,,,,,,,"[""6""]",1,0,0,0,12,1,[1.9884000000000128],,,,,,,,,,,,,,,,,,,,,,,,,,
,,,,,,,,,,,X V Q F H G B L J M P D K C T S W R N Z,5ea606388e4cf808c64292d4,21,Mężczyzna,2022-06-11_09h40.16.362,task,2021.1.4,Win32,64,6299f149e92ead563fba08ef,62a446ca88cd2296b8f7c976,,,,,,,,,,,,,,,,,,,,,,,,,,,,,,,,,,,,,,,,,,,,,,,,,,,,,,,,,,,,,,,,,,,,,,,,,,,,5,0,5,0,1,,,,,,,,,,,,,,,,,,,,,
,,,,,,,,,,,,5ea606388e4cf808c64292d4,21,Mężczyzna,2022-06-11_09h40.16.362,task,2021.1.4,Win32,64,6299f149e92ead563fba08ef,62a446ca88cd2296b8f7c976,,,,,,,,,,,,,,,,,,,,,,,,,,,,,,,,,,,,,,,,,,,,,,,,,,,,,,,,,,,,,,,,,,,,,,,,,,,,,,,,,xnpd,"[""x"",""n"",""p"",""d""]",0,"[1.8324999999999818,2.7163000000000466,3.017400000000009,3.1691000000000713,3.3653000000000475]",0,DNXTHD,5,0,5,0,1,,,,,,,,,,
,,,,,,,,,,,,5ea606388e4cf808c64292d4,21,Mężczyzna,2022-06-11_09h40.16.362,task,2021.1.4,Win32,64,6299f149e92ead563fba08ef,62a446ca88cd2296b8f7c976,,,,,,,,,,,,,,,,,,,,,,,,,,,,,,,,,,,,,,,,,,,,,,,,,,,,,,,,,,,,,,,,,,,,,,,,,,,,,,,,,,,,,,,,,,,,"[""comma""]",0,[1.478900000000067],0,0,0,0,1,,
,,,,,,,,,,,,5ea606388e4cf808c64292d4,21,Mężczyzna,2022-06-11_09h40.16.362,task,2021.1.4,Win32,64,6299f149e92ead563fba08ef,62a446ca88cd2296b8f7c976,,,,,,,,,,,,,,,,,,,,,,,,,,,,,,,,,,,,,,,,,,,,,,,,,,,,,,,,,,,,,,,,,,,,,,,,,,,,,,,,,,,,,,,,,,,,"[""comma""]",0,[1.1934000000001106],1,0,1,0,1,,
,,,,,,,,,,,,5ea606388e4cf808c64292d4,21,Mężczyzna,2022-06-11_09h40.16.362,task,2021.1.4,Win32,64,6299f149e92ead563fba08ef,62a446ca88cd2296b8f7c976,,,,,,,,,,,,,,,,,,,,,,,,,,,,,,,,,,,,,,,,,,,,,,,,,,,,,,,,,,,,,,,,,,,,,,,,,,,,,,,,,,,,,,,,,,,,"[""period""]",0,[0.9146999999999252],2,0,2,0,1,,
,,,,,,,,,,,,5ea606388e4cf808c64292d4,21,Mężczyzna,2022-06-11_09h40.16.362,task,2021.1.4,Win32,64,6299f149e92ead563fba08ef,62a446ca88cd2296b8f7c976,,,,,,,,,,,,,,,,,,,,,,,,,,,,,,,,,,,,,,,,,,,,,,,,,,,,,,,,,,,,,,,,,,,,,,,,,,,,,,,,,,,,,,,,,,,,"[""comma""]",0,[0.5722999999999274],3,0,3,0,1,,
,,,,,,,,,,,,5ea606388e4cf808c64292d4,21,Mężczyzna,2022-06-11_09h40.16.362,task,2021.1.4,Win32,64,6299f149e92ead563fba08ef,62a446ca88cd2296b8f7c976,,,,,,,,,,,,,,,,,,,,,,,,,,,,,,,,,,,,,,,,,,,,,,,,,,,,,,,,,,,,,,,,,,,,,,,,,,,,,,,,,,,,,,,,,,,,"[""period""]",0,[0.6298000000000457],4,0,4,0,1,,
,,,,,,,,,,,,5ea606388e4cf808c64292d4,21,Mężczyzna,2022-06-11_09h40.16.362,task,2021.1.4,Win32,64,6299f149e92ead563fba08ef,62a446ca88cd2296b8f7c976,,,,,,,,,,,,,,,,,,,,,,,,,,,,,,,,,,,,,,,,,,,,,,,,,,,,,,,,,,,,,,,,,,,,,,,,,,,,,,,,,,,,,,,,,,,,"[""period""]",0,[0.5595999999999322],5,0,5,0,1,,
,,,,,,,,,,,,5ea606388e4cf808c64292d4,21,Mężczyzna,2022-06-11_09h40.16.362,task,2021.1.4,Win32,64,6299f149e92ead563fba08ef,62a446ca88cd2296b8f7c976,,,,,,,,,,,,,,,,,,,,,,,,,,,,,,,,,,,,,,,,,,,,,,,,,,,,,,,,,,,,,,,,,,,,,,,,,,,,,,,,,,,,,,,,,,,,"[""comma""]",0,[0.3522000000000389],6,0,6,0,1,,
,,,,,,,,,,,,5ea606388e4cf808c64292d4,21,Mężczyzna,2022-06-11_09h40.16.362,task,2021.1.4,Win32,64,6299f149e92ead563fba08ef,62a446ca88cd2296b8f7c976,,,,,,,,,,,,,,,,,,,,,,,,,,,,,,,,,,,,,,,,,,,,,,,,,,,,,,,,,,,,,,,,,,,,,,,,,,,,,,,,,,,,,,,,,,,,"[""period""]",0,[0.31900000000007367],7,0,7,0,1,,
,,,,,,,,,,,,5ea606388e4cf808c64292d4,21,Mężczyzna,2022-06-11_09h40.16.362,task,2021.1.4,Win32,64,6299f149e92ead563fba08ef,62a446ca88cd2296b8f7c976,,,,,,,,,,,,,,,,,,,,,,,,,,,,,,,,,,,,,,,,,,,,,,,,,,,,,,,,,,,,,,,,,,,,,,,,,,,,,,,,,,,,,,,,,,,,"[""comma""]",0,[0.46090000000003783],8,0,8,0,1,,
,,,,,,,,,,,,5ea606388e4cf808c64292d4,21,Mężczyzna,2022-06-11_09h40.16.362,task,2021.1.4,Win32,64,6299f149e92ead563fba08ef,62a446ca88cd2296b8f7c976,,,,,,,,,,,,,,,,,,,,,,,,,,,,,,,,,,,,,,,,,,,,,,,,,,,,,,,,,,,,,,,,,,,,,,,,,,,,,,,,,,,,,,,,,,,,"[""comma""]",0,[0.3344000000000733],9,0,9,0,1,,
,,,,,,,,,,,,5ea606388e4cf808c64292d4,21,Mężczyzna,2022-06-11_09h40.16.362,task,2021.1.4,Win32,64,6299f149e92ead563fba08ef,62a446ca88cd2296b8f7c976,,,,,,,,,,,,,,,,,,,,,,,,,,,,,,,,,,,,,,,,,,,,,,,,,,,,,,,,,,,,,,,,,,,,,,,,,,,,,,,,,,,,,,,,,,,,"[""comma""]",0,[0.3823000000001002],10,0,10,0,1,,
,,,,,,,,,,,,5ea606388e4cf808c64292d4,21,Mężczyzna,2022-06-11_09h40.16.362,task,2021.1.4,Win32,64,6299f149e92ead563fba08ef,62a446ca88cd2296b8f7c976,,,,,,,,,,,,,,,,,,,,,,,,,,,,,,,,,,,,,,,,,,,,,,,,,,,,,,,,,,,,,,,,,,,,,,,,,,,,,,,,,,,,,,,,,,,,"[""period""]",0,[0.3180000000000973],11,0,11,0,1,,
,,,,,,,,,,,,5ea606388e4cf808c64292d4,21,Mężczyzna,2022-06-11_09h40.16.362,task,2021.1.4,Win32,64,6299f149e92ead563fba08ef,62a446ca88cd2296b8f7c976,,,,,,,,,,,,,,,,,,,,,,,,,,,,,,,,,,,,,,,,,,,,,,,,,,,,,,,,,,,,,,,,,,,,,,,,,,,,,,,,,,,,,,,,,,,,"[""period""]",0,[0.3392000000000053],12,0,12,0,1,,
,,,,,,,,,,,,5ea606388e4cf808c64292d4,21,Mężczyzna,2022-06-11_09h40.16.362,task,2021.1.4,Win32,64,6299f149e92ead563fba08ef,62a446ca88cd2296b8f7c976,,,,,,,,,,,,,,,,,,,,,,,,,,,,,,,,,,,,,,,,,,,,,,,,,,,,,,,,,,,,,,,,,,,,,,,,,,,,,,,,,,,,,,,,,,,,"[""comma""]",0,[0.4048999999999978],13,0,13,0,1,,
,,,,,,,,,,,,5ea606388e4cf808c64292d4,21,Mężczyzna,2022-06-11_09h40.16.362,task,2021.1.4,Win32,64,6299f149e92ead563fba08ef,62a446ca88cd2296b8f7c976,,,,,,,,,,,,,,,,,,,,,,,,,,,,,,,,,,,,,,,,,,,,,,,,,,,,,,,,,,,,,,,,,,,,,,,,,,,,,,,,,,,,,,,,,,,,"[""period""]",0,[0.30540000000007694],14,0,14,0,1,,
,,,,,,,,,,,,5ea606388e4cf808c64292d4,21,Mężczyzna,2022-06-11_09h40.16.362,task,2021.1.4,Win32,64,6299f149e92ead563fba08ef,62a446ca88cd2296b8f7c976,,,,,,,,,,,,,,,,,,,,,,,,,,,,,,,,,,,,,,,,,,,,,,,,,,,,,,,,,,,,,,,,,,,,,,,,,,,,,,,,,,,,,,,,,,,,"[""period""]",0,[0.26400000000001],15,0,15,0,1,,
,,,,,,,,,,,,5ea606388e4cf808c64292d4,21,Mężczyzna,2022-06-11_09h40.16.362,task,2021.1.4,Win32,64,6299f149e92ead563fba08ef,62a446ca88cd2296b8f7c976,,,,,,,,,,,,,,,,,,,,,,,,,,,,,,,,,,,,,,,,,,,,,,,,,,,,,,,,,,,,,,,,,,,,,,,,,,,,,,,,,,,,,,,,,,,,"[""period""]",0,[0.33390000000008513],16,0,16,0,1,,
,,,,,,,,,,,,5ea606388e4cf808c64292d4,21,Mężczyzna,2022-06-11_09h40.16.362,task,2021.1.4,Win32,64,6299f149e92ead563fba08ef,62a446ca88cd2296b8f7c976,,,,,,,,,,,,,,,,,,,,,,,,,,,,,,,,,,,,,,,,,,,,,,,,,,,,,,,,,,,,,,,,,,,,,,,,,,,,,,,,,,,,,,,,,,,,"[""comma""]",0,[0.5310000000000628],17,0,17,0,1,,
,,,,,,,,,,,,5ea606388e4cf808c64292d4,21,Mężczyzna,2022-06-11_09h40.16.362,task,2021.1.4,Win32,64,6299f149e92ead563fba08ef,62a446ca88cd2296b8f7c976,,,,,,,,,,,,,,,,,,,,,,,,,,,,,,,,,,,,,,,,,,,,,,,,,,,,,,,,,,,,,,,,,,,,,,,,,,,,,,,,,,,,,,,,,,,,"[""period""]",0,[0.8381999999999152],18,0,18,0,1,,
,,,,,,,,,,,,5ea606388e4cf808c64292d4,21,Mężczyzna,2022-06-11_09h40.16.362,task,2021.1.4,Win32,64,6299f149e92ead563fba08ef,62a446ca88cd2296b8f7c976,,,,,,,,,,,,,,,,,,,,,,,,,,,,,,,,,,,,,,,,,,,,,,,,,,,,,,,,,,,,,,,,,,,,,,,,,,,,,,,,,,,,,,,,,,,,"[""period""]",0,[0.537900000000036],19,0,19,0,1,,
,,,,,,,,,,,,5ea606388e4cf808c64292d4,21,Mężczyzna,2022-06-11_09h40.16.362,task,2021.1.4,Win32,64,6299f149e92ead563fba08ef,62a446ca88cd2296b8f7c976,,,,,,,,,,,,,,,,,,,,,,,,,,,,,,,,,,,,,,,,,,,,,,,,,,,,,,,,,,,,,,,,,,,,,,,,,,,,,,,,,,,,,,,,,,,,"[""comma""]",0,[0.25660000000004857],20,0,20,0,1,,
,,,,,,,,,,,,5ea606388e4cf808c64292d4,21,Mężczyzna,2022-06-11_09h40.16.362,task,2021.1.4,Win32,64,6299f149e92ead563fba08ef,62a446ca88cd2296b8f7c976,,,,,,,,,,,,,,,,,,,,,,,,,,,,,,,,,,,,,,,,,,,,,,,,,,,,,,,,,,,,,,,,,,,,,,,,,,,,,,,,,,,,,,,,,,,,"[""comma"",""comma""]",0,"[0.02280000000007476,1.9282000000000608]",21,0,21,0,1,,
,,,,,,,,,,,,5ea606388e4cf808c64292d4,21,Mężczyzna,2022-06-11_09h40.16.362,task,2021.1.4,Win32,64,6299f149e92ead563fba08ef,62a446ca88cd2296b8f7c976,,,,,,,,,,,,,,,,,,,,,,,,,,,,,,,,,,,,,,,,,,,,,,,,,,,,,,,,,,,,,,,,,,,,,,,,,,,,,,,,,,,,,,,,,,,,,0,,22,0,22,0,1,,
,,,,,,,,,,,,5ea606388e4cf808c64292d4,21,Mężczyzna,2022-06-11_09h40.16.362,task,2021.1.4,Win32,64,6299f149e92ead563fba08ef,62a446ca88cd2296b8f7c976,,,,,,,,,,,,,,,,,,,,,,,,,,,,,,,,,,,,,,,,,,,,,,,,,,,,,,,,,,,,,,,,,,,,,,,,,,,,,,,,,,,,,,,,,,,,"[""period""]",0,[0.08309999999994488],23,0,23,0,1,,
,,,,,,,,,,,,5ea606388e4cf808c64292d4,21,Mężczyzna,2022-06-11_09h40.16.362,task,2021.1.4,Win32,64,6299f149e92ead563fba08ef,62a446ca88cd2296b8f7c976,,,,,,,,,,,,,,,,,,,,,,,,,,,,,,,,,,,,,,,,,,,,,,,,,,,,,,,,,,,,,,,,,,,,,,,,,,,,,,,,,,,,,,,,,,,,"[""comma""]",0,[0.2481999999999971],24,0,24,0,1,,
,,,,,,,,,,,,5ea606388e4cf808c64292d4,21,Mężczyzna,2022-06-11_09h40.16.362,task,2021.1.4,Win32,64,6299f149e92ead563fba08ef,62a446ca88cd2296b8f7c976,,,,,,,,,,,,,,,,,,,,,,,,,,,,,,,,,,,,,,,,,,,,,,,,,,,,,,,,,,,,,,,,,,,,,,,,,,,,,,,,,,,,,,,,,,,,"[""period""]",0,[0.27099999999995816],25,0,25,0,1,,
,,,,,,,,,,,,5ea606388e4cf808c64292d4,21,Mężczyzna,2022-06-11_09h40.16.362,task,2021.1.4,Win32,64,6299f149e92ead563fba08ef,62a446ca88cd2296b8f7c976,,,,,,,,,,,,,,,,,,,,,,,,,,,,,,,,,,,,,,,,,,,,,,,,,,,,,,,,,,,,,,,,,,,,,,,,,,,,,,,,,,,,,,,,,,,,"[""comma""]",0,[0.19390000000009877],26,0,26,0,1,,
,,,,,,,,,,,,5ea606388e4cf808c64292d4,21,Mężczyzna,2022-06-11_09h40.16.362,task,2021.1.4,Win32,64,6299f149e92ead563fba08ef,62a446ca88cd2296b8f7c976,,,,,,,,,,,,,,,,,,,,,,,,,,,,,,,,,,,,,,,,,,,,,,,,,,,,,,,,,,,,,,,,,,,,,,,,,,,,,,,,,,,,,,,,,,,,"[""comma""]",0,[0.05400000000008731],27,0,27,0,1,,
,,,,,,,,,,,,5ea606388e4cf808c64292d4,21,Mężczyzna,2022-06-11_09h40.16.362,task,2021.1.4,Win32,64,6299f149e92ead563fba08ef,62a446ca88cd2296b8f7c976,,,,,,,,,,,,,,,,,,,,,,,,,,,,,,,,,,,,,,,,,,,,,,,,,,,,,,,,,,,,,,,,,,,,,,,,,,,,,,,,,,,,,,,,,,,,"[""period"",""comma""]",0,"[0.2643000000000484,1.9125000000000227]",28,0,28,0,1,,
,,,,,,,,,,,,5ea606388e4cf808c64292d4,21,Mężczyzna,2022-06-11_09h40.16.362,task,2021.1.4,Win32,64,6299f149e92ead563fba08ef,62a446ca88cd2296b8f7c976,,,,,,,,,,,,,,,,,,,,,,,,,,,,,,,,,,,,,,,,,,,,,,,,,,,,,,,,,,,,,,,,,,,,,,,,,,,,,,,,,,,,,,,,,,,,,0,,29,0,29,0,1,,
,,,,,,,,,,,,5ea606388e4cf808c64292d4,21,Mężczyzna,2022-06-11_09h40.16.362,task,2021.1.4,Win32,64,6299f149e92ead563fba08ef,62a446ca88cd2296b8f7c976,,,,,,,,,,,,,,,,,,,,,,,,,,,,,,,,,,,,,,,,,,,,,,,,,,,,,,,,,,,,,,,,,,,,,,,,,,,,,,,,,,,,,,,,,,,,"[""comma"",""comma""]",0,"[0.3203000000000884,0.4149000000001024]",30,0,30,0,1,,
,,,,,,,,,,,,5ea606388e4cf808c64292d4,21,Mężczyzna,2022-06-11_09h40.16.362,task,2021.1.4,Win32,64,6299f149e92ead563fba08ef,62a446ca88cd2296b8f7c976,,,,,,,,,,,,,,,,,,,,,,,,,,,,,,,,,,,,,,,,,,,,,,,,,,,,,,,,,,,,,,,,,,,,,,,,,,,,,,,,,,,,,,,,,,,,"[""period""]",0,[0.5113000000001193],31,0,31,0,1,,
,,,,,,,,,,,,5ea606388e4cf808c64292d4,21,Mężczyzna,2022-06-11_09h40.16.362,task,2021.1.4,Win32,64,6299f149e92ead563fba08ef,62a446ca88cd2296b8f7c976,,,,,,,,,,,,,,,,,,,,,,,,,,,,,,,,,,,,,,,,,,,,,,,,,,,,,,,,,,,,,,,,,,,,,,,,,,,,,,,,,,,,,,,,,,,,"[""period""]",0,[0.3059000000000651],32,0,32,0,1,,
,,,,,,,,,,,,5ea606388e4cf808c64292d4,21,Mężczyzna,2022-06-11_09h40.16.362,task,2021.1.4,Win32,64,6299f149e92ead563fba08ef,62a446ca88cd2296b8f7c976,,,,,,,,,,,,,,,,,,,,,,,,,,,,,,,,,,,,,,,,,,,,,,,,,,,,,,,,,,,,,,,,,,,,,,,,,,,,,,,,,,,,,,,,,,,,,0,,33,0,33,0,1,,
,,,,,,,,,,,,5ea606388e4cf808c64292d4,21,Mężczyzna,2022-06-11_09h40.16.362,task,2021.1.4,Win32,64,6299f149e92ead563fba08ef,62a446ca88cd2296b8f7c976,,,,,,,,,,,,,,,,,,,,,,,,,,,,,,,,,,,,,,,,,,,,,,,,,,,,,,,,,,,,,,,,,,,,,,,,,,,,,,,,,,,,,,,,,,,,"[""period""]",0,[0.3204000000000633],34,0,34,0,1,,
,,,,,,,,,,,,5ea606388e4cf808c64292d4,21,Mężczyzna,2022-06-11_09h40.16.362,task,2021.1.4,Win32,64,6299f149e92ead563fba08ef,62a446ca88cd2296b8f7c976,,,,,,,,,,,,,,,,,,,,,,,,,,,,,,,,,,,,,,,,,,,,,,,,,,,,,,,,,,,,,,,,,,,,,,,,,,,,,,,,,,,,,,,,,,,,"[""comma""]",0,[0.2904000000000906],35,0,35,0,1,,
,,,,,,,,,,,,5ea606388e4cf808c64292d4,21,Mężczyzna,2022-06-11_09h40.16.362,task,2021.1.4,Win32,64,6299f149e92ead563fba08ef,62a446ca88cd2296b8f7c976,,,,,,,,,,,,,,,,,,,,,,,,,,,,,,,,,,,,,,,,,,,,,,,,,,,,,,,,,,,,,,,,,,,,,,,,,,,,,,,,,,,,,,,,,,,,"[""period""]",0,[0.31910000000004857],36,0,36,0,1,,
,,,,,,,,,,,,5ea606388e4cf808c64292d4,21,Mężczyzna,2022-06-11_09h40.16.362,task,2021.1.4,Win32,64,6299f149e92ead563fba08ef,62a446ca88cd2296b8f7c976,,,,,,,,,,,,,,,,,,,,,,,,,,,,,,,,,,,,,,,,,,,,,,,,,,,,,,,,,,,,,,,,,,,,,,,,,,,,,,,,,,,,,,,,,,,,"[""comma""]",0,[0.25930000000005293],37,0,37,0,1,,
,,,,,,,,,,,,5ea606388e4cf808c64292d4,21,Mężczyzna,2022-06-11_09h40.16.362,task,2021.1.4,Win32,64,6299f149e92ead563fba08ef,62a446ca88cd2296b8f7c976,,,,,,,,,,,,,,,,,,,,,,,,,,,,,,,,,,,,,,,,,,,,,,,,,,,,,,,,,,,,,,,,,,,,,,,,,,,,,,,,,,,,,,,,,,,,"[""comma""]",0,[0.28969999999992524],38,0,38,0,1,,
,,,,,,,,,,,,5ea606388e4cf808c64292d4,21,Mężczyzna,2022-06-11_09h40.16.362,task,2021.1.4,Win32,64,6299f149e92ead563fba08ef,62a446ca88cd2296b8f7c976,,,,,,,,,,,,,,,,,,,,,,,,,,,,,,,,,,,,,,,,,,,,,,,,,,,,,,,,,,,,,,,,,,,,,,,,,,,,,,,,,,,,,,,,,,,,"[""period"",""period""]",0,"[0.07580000000007203,1.6329000000000633]",39,0,39,0,1,,
,,,,,,,,,,,,5ea606388e4cf808c64292d4,21,Mężczyzna,2022-06-11_09h40.16.362,task,2021.1.4,Win32,64,6299f149e92ead563fba08ef,62a446ca88cd2296b8f7c976,,,,,,,,,,,,,,,,,,,,,,,,,,,,,,,,,,,,,,,,,,,,,,,,,,,,,,,,,,,,,,,,,,,,,,,,,,,,,,,,,,,,,,,,,,,,"[""comma""]",0,[1.8786000000000058],40,0,40,0,1,,
,,,,,,,,,,,,5ea606388e4cf808c64292d4,21,Mężczyzna,2022-06-11_09h40.16.362,task,2021.1.4,Win32,64,6299f149e92ead563fba08ef,62a446ca88cd2296b8f7c976,,,,,,,,,,,,,,,,,,,,,,,,,,,,,,,,,,,,,,,,,,,,,,,,,,,,,,,,,,,,,,,,,,,,,,,,,,,,,,,,,,,,,,,,,,,,"[""period""]",0,[1.8097000000000207],41,0,41,0,1,,
,,,,,,,,,,,,5ea606388e4cf808c64292d4,21,Mężczyzna,2022-06-11_09h40.16.362,task,2021.1.4,Win32,64,6299f149e92ead563fba08ef,62a446ca88cd2296b8f7c976,,,,,,,,,,,,,,,,,,,,,,,,,,,,,,,,,,,,,,,,,,,,,,,,,,,,,,,,,,,,,,,,,,,,,,,,,,,,,,,,,,,,,,,,,,,,"[""comma""]",0,[1.4419000000000324],42,0,42,0,1,,
,,,,,,,,,,,,5ea606388e4cf808c64292d4,21,Mężczyzna,2022-06-11_09h40.16.362,task,2021.1.4,Win32,64,6299f149e92ead563fba08ef,62a446ca88cd2296b8f7c976,,,,,,,,,,,,,,,,,,,,,,,,,,,,,,,,,,,,,,,,,,,,,,,,,,,,,,,,,,,,,,,,,,,,,,,,,,,,,,,,,,,,,,,,,,,,,0,,43,0,43,0,1,,
,,,,,,,,,,,,5ea606388e4cf808c64292d4,21,Mężczyzna,2022-06-11_09h40.16.362,task,2021.1.4,Win32,64,6299f149e92ead563fba08ef,62a446ca88cd2296b8f7c976,,,,,,,,,,,,,,,,,,,,,,,,,,,,,,,,,,,,,,,,,,,,,,,,,,,,,,,,,,,,,,,,,,,,,,,,,,,,,,,,,,,,,,,,,,,,"[""period""]",0,[0.30579999999997654],44,0,44,0,1,,
,,,,,,,,,,,,5ea606388e4cf808c64292d4,21,Mężczyzna,2022-06-11_09h40.16.362,task,2021.1.4,Win32,64,6299f149e92ead563fba08ef,62a446ca88cd2296b8f7c976,,,,,,,,,,,,,,,,,,,,,,,,,,,,,,,,,,,,,,,,,,,,,,,,,,,,,,,,,,,,,,,,,,,,,,,,,,,,,,,,,,,,,,,,,,,,"[""comma""]",0,[0.43479999999999563],45,0,45,0,1,,
,,,,,,,,,,,,5ea606388e4cf808c64292d4,21,Mężczyzna,2022-06-11_09h40.16.362,task,2021.1.4,Win32,64,6299f149e92ead563fba08ef,62a446ca88cd2296b8f7c976,,,,,,,,,,,,,,,,,,,,,,,,,,,,,,,,,,,,,,,,,,,,,,,,,,,,,,,,,,,,,,,,,,,,,,,,,,,,,,,,,,,,,,,,,,,,"[""comma""]",0,[0.44439999999997326],46,0,46,0,1,,
,,,,,,,,,,,,5ea606388e4cf808c64292d4,21,Mężczyzna,2022-06-11_09h40.16.362,task,2021.1.4,Win32,64,6299f149e92ead563fba08ef,62a446ca88cd2296b8f7c976,,,,,,,,,,,,,,,,,,,,,,,,,,,,,,,,,,,,,,,,,,,,,,,,,,,,,,,,,,,,,,,,,,,,,,,,,,,,,,,,,,,,,,,,,,,,"[""period""]",0,[0.29389999999989413],47,0,47,0,1,,
,,,,,,,,,,,,5ea606388e4cf808c64292d4,21,Mężczyzna,2022-06-11_09h40.16.362,task,2021.1.4,Win32,64,6299f149e92ead563fba08ef,62a446ca88cd2296b8f7c976,,,,,,,,,,,,,,,,,,,,,,,,,,,,,,,,,,,,,,,,,,,,,,,,,,,,,,,,,,,,,,,,,,,,,,,,,,,,,,,,,,,,,,,,,,,,"[""period""]",0,[0.30299999999999727],48,0,48,0,1,,
,,,,,,,,,,,,5ea606388e4cf808c64292d4,21,Mężczyzna,2022-06-11_09h40.16.362,task,2021.1.4,Win32,64,6299f149e92ead563fba08ef,62a446ca88cd2296b8f7c976,,,,,,,,,,,,,,,,,,,,,,,,,,,,,,,,,,,,,,,,,,,,,,,,,,,,,,,,,,,,,,,,,,,,,,,,,,,,,,,,,,,,,,,,,,,,"[""period""]",0,[0.4514000000000351],49,0,49,0,1,,
,,,,,,,,,,,,5ea606388e4cf808c64292d4,21,Mężczyzna,2022-06-11_09h40.16.362,task,2021.1.4,Win32,64,6299f149e92ead563fba08ef,62a446ca88cd2296b8f7c976,,,,,,,,,,,,,,,,,,,,,,,,,,,,,,,,,,,,,,,,,,,,,,,,,,,,,,,,,,,,,,,,,,,,,,,,,,,,,,,,,,,,,,,,,,,,"[""comma""]",0,[0.29150000000004184],50,0,50,0,1,,
,,,,,,,,,,,,5ea606388e4cf808c64292d4,21,Mężczyzna,2022-06-11_09h40.16.362,task,2021.1.4,Win32,64,6299f149e92ead563fba08ef,62a446ca88cd2296b8f7c976,,,,,,,,,,,,,,,,,,,,,,,,,,,,,,,,,,,,,,,,,,,,,,,,,,,,,,,,,,,,,,,,,,,,,,,,,,,,,,,,,,,,,,,,,,,,"[""comma""]",0,[0.3046000000000504],51,0,51,0,1,,
,,,,,,,,,,,,5ea606388e4cf808c64292d4,21,Mężczyzna,2022-06-11_09h40.16.362,task,2021.1.4,Win32,64,6299f149e92ead563fba08ef,62a446ca88cd2296b8f7c976,,,,,,,,,,,,,,,,,,,,,,,,,,,,,,,,,,,,,,,,,,,,,,,,,,,,,,,,,,,,,,,,,,,,,,,,,,,,,,,,,,,,,,,,,,,,"[""period""]",0,[0.38150000000007367],52,0,52,0,1,,
,,,,,,,,,,,,5ea606388e4cf808c64292d4,21,Mężczyzna,2022-06-11_09h40.16.362,task,2021.1.4,Win32,64,6299f149e92ead563fba08ef,62a446ca88cd2296b8f7c976,,,,,,,,,,,,,,,,,,,,,,,,,,,,,,,,,,,,,,,,,,,,,,,,,,,,,,,,,,,,,,,,,,,,,,,,,,,,,,,,,,,,,,,,,,,,"[""period""]",0,[0.31989999999984775],53,0,53,0,1,,
,,,,,,,,,,,,5ea606388e4cf808c64292d4,21,Mężczyzna,2022-06-11_09h40.16.362,task,2021.1.4,Win32,64,6299f149e92ead563fba08ef,62a446ca88cd2296b8f7c976,,,,,,,,,,,,,,,,,,,,,,,,,,,,,,,,,,,,,,,,,,,,,,,,,,,,,,,,,,,,,,,,,,,,,,,,,,,,,,,,,,,,,,,,,,,,"[""comma""]",0,[0.2576999999999998],54,0,54,0,1,,
,,,,,,,,,,,,5ea606388e4cf808c64292d4,21,Mężczyzna,2022-06-11_09h40.16.362,task,2021.1.4,Win32,64,6299f149e92ead563fba08ef,62a446ca88cd2296b8f7c976,,,,,,,,,,,,,,,,,,,,,,,,,,,,,,,,,,,,,,,,,,,,,,,,,,,,,,,,,,,,,,,,,,,,,,,,,,,,,,,,,,,,,,,,,,,,"[""comma""]",0,[0.32200000000000273],55,0,55,0,1,,
,,,,,,,,,,,,5ea606388e4cf808c64292d4,21,Mężczyzna,2022-06-11_09h40.16.362,task,2021.1.4,Win32,64,6299f149e92ead563fba08ef,62a446ca88cd2296b8f7c976,,,,,,,,,,,,,,,,,,,,,,,,,,,,,,,,,,,,,,,,,,,,,,,,,,,,,,,,,,,,,,,,,,,,,,,,,,,,,,,,,,,,,,,,,,,,"[""period""]",0,[0.292699999999968],56,0,56,0,1,,
,,,,,,,,,,,,5ea606388e4cf808c64292d4,21,Mężczyzna,2022-06-11_09h40.16.362,task,2021.1.4,Win32,64,6299f149e92ead563fba08ef,62a446ca88cd2296b8f7c976,,,,,,,,,,,,,,,,,,,,,,,,,,,,,,,,,,,,,,,,,,,,,,,,,,,,,,,,,,,,,,,,,,,,,,,,,,,,,,,,,,,,,,,,,,,,"[""period""]",0,[0.27300000000002456],57,0,57,0,1,,
,,,,,,,,,,,,5ea606388e4cf808c64292d4,21,Mężczyzna,2022-06-11_09h40.16.362,task,2021.1.4,Win32,64,6299f149e92ead563fba08ef,62a446ca88cd2296b8f7c976,,,,,,,,,,,,,,,,,,,,,,,,,,,,,,,,,,,,,,,,,,,,,,,,,,,,,,,,,,,,,,,,,,,,,,,,,,,,,,,,,,,,,,,,,,,,"[""comma""]",0,[0.3061999999999898],58,0,58,0,1,,
,,,,,,,,,,,,5ea606388e4cf808c64292d4,21,Mężczyzna,2022-06-11_09h40.16.362,task,2021.1.4,Win32,64,6299f149e92ead563fba08ef,62a446ca88cd2296b8f7c976,,,,,,,,,,,,,,,,,,,,,,,,,,,,,,,,,,,,,,,,,,,,,,,,,,,,,,,,,,,,,,,,,,,,,,,,,,,,,,,,,,,,,,,,,,,,"[""period""]",0,[0.2880000000000109],59,0,59,0,1,,
,,,,,,,,,,,,5ea606388e4cf808c64292d4,21,Mężczyzna,2022-06-11_09h40.16.362,task,2021.1.4,Win32,64,6299f149e92ead563fba08ef,62a446ca88cd2296b8f7c976,,,,,,,,,,,,,,,,,,,,,,,,,,,,,,,,,,,,,,,,,,,,,,,,,,,,,,,,,,,,,,,,,,,,,,,,,,,,,,,,,,,,,,,,,,,,"[""period""]",0,[0.28969999999992524],60,0,60,0,1,,
,,,,,,,,,,,,5ea606388e4cf808c64292d4,21,Mężczyzna,2022-06-11_09h40.16.362,task,2021.1.4,Win32,64,6299f149e92ead563fba08ef,62a446ca88cd2296b8f7c976,,,,,,,,,,,,,,,,,,,,,,,,,,,,,,,,,,,,,,,,,,,,,,,,,,,,,,,,,,,,,,,,,,,,,,,,,,,,,,,,,,,,,,,,,,,,"[""comma"",""comma""]",0,"[0.028099999999994907,1.5531000000000859]",61,0,61,0,1,,
,,,,,,,,,,,,5ea606388e4cf808c64292d4,21,Mężczyzna,2022-06-11_09h40.16.362,task,2021.1.4,Win32,64,6299f149e92ead563fba08ef,62a446ca88cd2296b8f7c976,,,,,,,,,,,,,,,,,,,,,,,,,,,,,,,,,,,,,,,,,,,,,,,,,,,,,,,,,,,,,,,,,,,,,,,,,,,,,,,,,,,,,,,,,,,,,0,,62,0,62,0,1,,
,,,,,,,,,,,,5ea606388e4cf808c64292d4,21,Mężczyzna,2022-06-11_09h40.16.362,task,2021.1.4,Win32,64,6299f149e92ead563fba08ef,62a446ca88cd2296b8f7c976,,,,,,,,,,,,,,,,,,,,,,,,,,,,,,,,,,,,,,,,,,,,,,,,,,,,,,,,,,,,,,,,,,,,,,,,,,,,,,,,,,,,,,,,,,,,"[""comma""]",0,[0.3188000000001239],63,0,63,0,1,,
,,,,,,,,,,,,5ea606388e4cf808c64292d4,21,Mężczyzna,2022-06-11_09h40.16.362,task,2021.1.4,Win32,64,6299f149e92ead563fba08ef,62a446ca88cd2296b8f7c976,,,,,,,,,,,,,,,,,,,,,,,,,,,,,,,,,,,,,,,,,,,,,,,,,,,,,,,,,,,,,,,,,,,,,,,,,,,,,,,,,,,,,,,,,,,,"[""period""]",0,[0.39790000000004966],64,0,64,0,1,,
,,,,,,,,,,,,5ea606388e4cf808c64292d4,21,Mężczyzna,2022-06-11_09h40.16.362,task,2021.1.4,Win32,64,6299f149e92ead563fba08ef,62a446ca88cd2296b8f7c976,,,,,,,,,,,,,,,,,,,,,,,,,,,,,,,,,,,,,,,,,,,,,,,,,,,,,,,,,,,,,,,,,,,,,,,,,,,,,,,,,,,,,,,,,,,,"[""comma""]",0,[0.5737000000000307],65,0,65,0,1,,
,,,,,,,,,,,,5ea606388e4cf808c64292d4,21,Mężczyzna,2022-06-11_09h40.16.362,task,2021.1.4,Win32,64,6299f149e92ead563fba08ef,62a446ca88cd2296b8f7c976,,,,,,,,,,,,,,,,,,,,,,,,,,,,,,,,,,,,,,,,,,,,,,,,,,,,,,,,,,,,,,,,,,,,,,,,,,,,,,,,,,,,,,,,,,,,"[""period""]",0,[0.27290000000004966],66,0,66,0,1,,
,,,,,,,,,,,,5ea606388e4cf808c64292d4,21,Mężczyzna,2022-06-11_09h40.16.362,task,2021.1.4,Win32,64,6299f149e92ead563fba08ef,62a446ca88cd2296b8f7c976,,,,,,,,,,,,,,,,,,,,,,,,,,,,,,,,,,,,,,,,,,,,,,,,,,,,,,,,,,,,,,,,,,,,,,,,,,,,,,,,,,,,,,,,,,,,"[""period""]",0,[0.27150000000006],67,0,67,0,1,,
,,,,,,,,,,,,5ea606388e4cf808c64292d4,21,Mężczyzna,2022-06-11_09h40.16.362,task,2021.1.4,Win32,64,6299f149e92ead563fba08ef,62a446ca88cd2296b8f7c976,,,,,,,,,,,,,,,,,,,,,,,,,,,,,,,,,,,,,,,,,,,,,,,,,,,,,,,,,,,,,,,,,,,,,,,,,,,,,,,,,,,,,,,,,,,,"[""comma""]",0,[0.38409999999998945],68,0,68,0,1,,
,,,,,,,,,,,,5ea606388e4cf808c64292d4,21,Mężczyzna,2022-06-11_09h40.16.362,task,2021.1.4,Win32,64,6299f149e92ead563fba08ef,62a446ca88cd2296b8f7c976,,,,,,,,,,,,,,,,,,,,,,,,,,,,,,,,,,,,,,,,,,,,,,,,,,,,,,,,,,,,,,,,,,,,,,,,,,,,,,,,,,,,,,,,,,,,"[""comma""]",0,[0.22410000000002128],69,0,69,0,1,,
,,,,,,,,,,,,5ea606388e4cf808c64292d4,21,Mężczyzna,2022-06-11_09h40.16.362,task,2021.1.4,Win32,64,6299f149e92ead563fba08ef,62a446ca88cd2296b8f7c976,,,,,,,,,,,,,,,,,,,,,,,,,,,,,,,,,,,,,,,,,,,,,,,,,,,,,,,,,,,,,,,,,,,,,,,,,,,,,,,,,,,,,,,,,,,,"[""period""]",0,[0.3664000000001124],70,0,70,0,1,,
,,,,,,,,,,,,5ea606388e4cf808c64292d4,21,Mężczyzna,2022-06-11_09h40.16.362,task,2021.1.4,Win32,64,6299f149e92ead563fba08ef,62a446ca88cd2296b8f7c976,,,,,,,,,,,,,,,,,,,,,,,,,,,,,,,,,,,,,,,,,,,,,,,,,,,,,,,,,,,,,,,,,,,,,,,,,,,,,,,,,,,,,,,,,,,,"[""period""]",0,[0.2598000000000411],71,0,71,0,1,,
,,,,,,,,,,,,5ea606388e4cf808c64292d4,21,Mężczyzna,2022-06-11_09h40.16.362,task,2021.1.4,Win32,64,6299f149e92ead563fba08ef,62a446ca88cd2296b8f7c976,,,,,,,,,,,,,,,,,,,,,,,,,,,,,,,,,,,,,,,,,,,,,,,,,,,,,,,,,,,,,,,,,,,,,,,,,,,,,,,,,,,,,,,,,,,,"[""comma""]",0,[0.3713999999999942],72,0,72,0,1,,
,,,,,,,,,,,,5ea606388e4cf808c64292d4,21,Mężczyzna,2022-06-11_09h40.16.362,task,2021.1.4,Win32,64,6299f149e92ead563fba08ef,62a446ca88cd2296b8f7c976,,,,,,,,,,,,,,,,,,,,,,,,,,,,,,,,,,,,,,,,,,,,,,,,,,,,,,,,,,,,,,,,,,,,,,,,,,,,,,,,,,,,,,,,,,,,"[""period""]",0,[0.2738000000000511],73,0,73,0,1,,
,,,,,,,,,,,,5ea606388e4cf808c64292d4,21,Mężczyzna,2022-06-11_09h40.16.362,task,2021.1.4,Win32,64,6299f149e92ead563fba08ef,62a446ca88cd2296b8f7c976,,,,,,,,,,,,,,,,,,,,,,,,,,,,,,,,,,,,,,,,,,,,,,,,,,,,,,,,,,,,,,,,,,,,,,,,,,,,,,,,,,,,,,,,,,,,"[""period""]",0,[0.4837999999999738],74,0,74,0,1,,
,,,,,,,,,,,,5ea606388e4cf808c64292d4,21,Mężczyzna,2022-06-11_09h40.16.362,task,2021.1.4,Win32,64,6299f149e92ead563fba08ef,62a446ca88cd2296b8f7c976,,,,,,,,,,,,,,,,,,,,,,,,,,,,,,,,,,,,,,,,,,,,,,,,,,,,,,,,,,,,,,,,,,,,,,,,,,,,,,,,,,,,,,,,,,,,"[""comma""]",0,[0.9974000000000842],75,0,75,0,1,,
,,,,,,,,,,,,5ea606388e4cf808c64292d4,21,Mężczyzna,2022-06-11_09h40.16.362,task,2021.1.4,Win32,64,6299f149e92ead563fba08ef,62a446ca88cd2296b8f7c976,,,,,,,,,,,,,,,,,,,,,,,,,,,,,,,,,,,,,,,,,,,,,,,,,,,,,,,,,,,,,,,,,,,,,,,,,,,,,,,,,,,,,,,,,,,,"[""period""]",0,[0.6951999999998861],76,0,76,0,1,,
,,,,,,,,,,,,5ea606388e4cf808c64292d4,21,Mężczyzna,2022-06-11_09h40.16.362,task,2021.1.4,Win32,64,6299f149e92ead563fba08ef,62a446ca88cd2296b8f7c976,,,,,,,,,,,,,,,,,,,,,,,,,,,,,,,,,,,,,,,,,,,,,,,,,,,,,,,,,,,,,,,,,,,,,,,,,,,,,,,,,,,,,,,,,,,,"[""period""]",0,[0.7696000000001959],77,0,77,0,1,,
,,,,,,,,,,,,5ea606388e4cf808c64292d4,21,Mężczyzna,2022-06-11_09h40.16.362,task,2021.1.4,Win32,64,6299f149e92ead563fba08ef,62a446ca88cd2296b8f7c976,,,,,,,,,,,,,,,,,,,,,,,,,,,,,,,,,,,,,,,,,,,,,,,,,,,,,,,,,,,,,,,,,,,,,,,,,,,,,,,,,,,,,,,,,,,,"[""comma""]",0,[0.560100000000034],78,0,78,0,1,,
,,,,,,,,,,,,5ea606388e4cf808c64292d4,21,Mężczyzna,2022-06-11_09h40.16.362,task,2021.1.4,Win32,64,6299f149e92ead563fba08ef,62a446ca88cd2296b8f7c976,,,,,,,,,,,,,,,,,,,,,,,,,,,,,,,,,,,,,,,,,,,,,,,,,,,,,,,,,,,,,,,,,,,,,,,,,,,,,,,,,,,,,,,,,,,,"[""period""]",0,[1.6831999999999425],79,0,79,0,1,,
,,,,,,,,,,,,5ea606388e4cf808c64292d4,21,Mężczyzna,2022-06-11_09h40.16.362,task,2021.1.4,Win32,64,6299f149e92ead563fba08ef,62a446ca88cd2296b8f7c976,,,,,,,,,,,,,,,,,,,,,,,,,,,,,,,,,,,,,,,,,,,,,,,,,,,,,,,,,,,,,,,,,,,,,,,,,,,,,,,,,,,,,,,,,,,,"[""comma""]",0,[0.6236000000000104],80,0,80,0,1,,
,,,,,,,,,,,,5ea606388e4cf808c64292d4,21,Mężczyzna,2022-06-11_09h40.16.362,task,2021.1.4,Win32,64,6299f149e92ead563fba08ef,62a446ca88cd2296b8f7c976,,,,,,,,,,,,,,,,,,,,,,,,,,,,,,,,,,,,,,,,,,,,,,,,,,,,,,,,,,,,,,,,,,,,,,,,,,,,,,,,,,,,,,,,,,,,"[""period""]",0,[0.32300000000009277],81,0,81,0,1,,
,,,,,,,,,,,,5ea606388e4cf808c64292d4,21,Mężczyzna,2022-06-11_09h40.16.362,task,2021.1.4,Win32,64,6299f149e92ead563fba08ef,62a446ca88cd2296b8f7c976,,,,,,,,,,,,,,,,,,,,,,,,,,,,,,,,,,,,,,,,,,,,,,,,,,,,,,,,,,,,,,,,,,,,,,,,,,,,,,,,,,,,,,,,,,,,"[""period""]",0,[0.27870000000007167],82,0,82,0,1,,
,,,,,,,,,,,,5ea606388e4cf808c64292d4,21,Mężczyzna,2022-06-11_09h40.16.362,task,2021.1.4,Win32,64,6299f149e92ead563fba08ef,62a446ca88cd2296b8f7c976,,,,,,,,,,,,,,,,,,,,,,,,,,,,,,,,,,,,,,,,,,,,,,,,,,,,,,,,,,,,,,,,,,,,,,,,,,,,,,,,,,,,,,,,,,,,"[""comma""]",0,[0.3038000000001375],83,0,83,0,1,,
,,,,,,,,,,,,5ea606388e4cf808c64292d4,21,Mężczyzna,2022-06-11_09h40.16.362,task,2021.1.4,Win32,64,6299f149e92ead563fba08ef,62a446ca88cd2296b8f7c976,,,,,,,,,,,,,,,,,,,,,,,,,,,,,,,,,,,,,,,,,,,,,,,,,,,,,,,,,,,,,,,,,,,,,,,,,,,,,,,,,,,,,,,,,,,,"[""comma""]",0,[0.28709999999989577],84,0,84,0,1,,
,,,,,,,,,,,,5ea606388e4cf808c64292d4,21,Mężczyzna,2022-06-11_09h40.16.362,task,2021.1.4,Win32,64,6299f149e92ead563fba08ef,62a446ca88cd2296b8f7c976,,,,,,,,,,,,,,,,,,,,,,,,,,,,,,,,,,,,,,,,,,,,,,,,,,,,,,,,,,,,,,,,,,,,,,,,,,,,,,,,,,,,,,,,,,,,"[""period""]",0,[0.4290000000000873],85,0,85,0,1,,
,,,,,,,,,,,,5ea606388e4cf808c64292d4,21,Mężczyzna,2022-06-11_09h40.16.362,task,2021.1.4,Win32,64,6299f149e92ead563fba08ef,62a446ca88cd2296b8f7c976,,,,,,,,,,,,,,,,,,,,,,,,,,,,,,,,,,,,,,,,,,,,,,,,,,,,,,,,,,,,,,,,,,,,,,,,,,,,,,,,,,,,,,,,,,,,"[""comma""]",0,[0.44470000000001164],86,0,86,0,1,,
,,,,,,,,,,,,5ea606388e4cf808c64292d4,21,Mężczyzna,2022-06-11_09h40.16.362,task,2021.1.4,Win32,64,6299f149e92ead563fba08ef,62a446ca88cd2296b8f7c976,,,,,,,,,,,,,,,,,,,,,,,,,,,,,,,,,,,,,,,,,,,,,,,,,,,,,,,,,,,,,,,,,,,,,,,,,,,,,,,,,,,,,,,,,,,,"[""period""]",0,[0.3527000000000271],87,0,87,0,1,,
,,,,,,,,,,,,5ea606388e4cf808c64292d4,21,Mężczyzna,2022-06-11_09h40.16.362,task,2021.1.4,Win32,64,6299f149e92ead563fba08ef,62a446ca88cd2296b8f7c976,,,,,,,,,,,,,,,,,,,,,,,,,,,,,,,,,,,,,,,,,,,,,,,,,,,,,,,,,,,,,,,,,,,,,,,,,,,,,,,,,,,,,,,,,,,,"[""comma""]",0,[0.6143999999998186],88,0,88,0,1,,
,,,,,,,,,,,,5ea606388e4cf808c64292d4,21,Mężczyzna,2022-06-11_09h40.16.362,task,2021.1.4,Win32,64,6299f149e92ead563fba08ef,62a446ca88cd2296b8f7c976,,,,,,,,,,,,,,,,,,,,,,,,,,,,,,,,,,,,,,,,,,,,,,,,,,,,,,,,,,,,,,,,,,,,,,,,,,,,,,,,,,,,,,,,,,,,"[""comma""]",0,[0.5457000000000107],89,0,89,0,1,,
,,,,,,,,,,,,5ea606388e4cf808c64292d4,21,Mężczyzna,2022-06-11_09h40.16.362,task,2021.1.4,Win32,64,6299f149e92ead563fba08ef,62a446ca88cd2296b8f7c976,,,,,,,,,,,,,,,,,,,,,,,,,,,,,,,,,,,,,,,,,,,,,,,,,,,,,,,,,,,,,,,,,,,,,,,,,,,,,,,,,,,,,,,,,,,,"[""period""]",0,[0.5868999999999005],90,0,90,0,1,,
,,,,,,,,,,,,5ea606388e4cf808c64292d4,21,Mężczyzna,2022-06-11_09h40.16.362,task,2021.1.4,Win32,64,6299f149e92ead563fba08ef,62a446ca88cd2296b8f7c976,,,,,,,,,,,,,,,,,,,,,,,,,,,,,,,,,,,,,,,,,,,,,,,,,,,,,,,,,,,,,,,,,,,,,,,,,,,,,,,,,,,,,,,,,,,,"[""period""]",0,[0.5278999999999314],91,0,91,0,1,,
,,,,,,,,,,,,5ea606388e4cf808c64292d4,21,Mężczyzna,2022-06-11_09h40.16.362,task,2021.1.4,Win32,64,6299f149e92ead563fba08ef,62a446ca88cd2296b8f7c976,,,,,,,,,,,,,,,,,,,,,,,,,,,,,,,,,,,,,,,,,,,,,,,,,,,,,,,,,,,,,,,,,,,,,,,,,,,,,,,,,,,,,,,,,,,,"[""comma""]",0,[0.22660000000007585],92,0,92,0,1,,
,,,,,,,,,,,,5ea606388e4cf808c64292d4,21,Mężczyzna,2022-06-11_09h40.16.362,task,2021.1.4,Win32,64,6299f149e92ead563fba08ef,62a446ca88cd2296b8f7c976,,,,,,,,,,,,,,,,,,,,,,,,,,,,,,,,,,,,,,,,,,,,,,,,,,,,,,,,,,,,,,,,,,,,,,,,,,,,,,,,,,,,,,,,,,,,"[""comma""]",0,[0.2886000000000877],93,0,93,0,1,,
,,,,,,,,,,,,5ea606388e4cf808c64292d4,21,Mężczyzna,2022-06-11_09h40.16.362,task,2021.1.4,Win32,64,6299f149e92ead563fba08ef,62a446ca88cd2296b8f7c976,,,,,,,,,,,,,,,,,,,,,,,,,,,,,,,,,,,,,,,,,,,,,,,,,,,,,,,,,,,,,,,,,,,,,,,,,,,,,,,,,,,,,,,,,,,,"[""comma""]",0,[0.37210000000004584],94,0,94,0,1,,
,,,,,,,,,,,,5ea606388e4cf808c64292d4,21,Mężczyzna,2022-06-11_09h40.16.362,task,2021.1.4,Win32,64,6299f149e92ead563fba08ef,62a446ca88cd2296b8f7c976,,,,,,,,,,,,,,,,,,,,,,,,,,,,,,,,,,,,,,,,,,,,,,,,,,,,,,,,,,,,,,,,,,,,,,,,,,,,,,,,,,,,,,,,,,,,"[""period""]",0,[0.7329999999999472],95,0,95,0,1,,
,,,,,,,,,,,,5ea606388e4cf808c64292d4,21,Mężczyzna,2022-06-11_09h40.16.362,task,2021.1.4,Win32,64,6299f149e92ead563fba08ef,62a446ca88cd2296b8f7c976,,,,,,,,,,,,,,,,,,,,,,,,,,,,,,,,,,,,,,,,,,,,,,,,,,,,,,,,,,,,,,,,,,,,,,,,,,,,,,,,,,,,,,,,,,,,"[""period""]",0,[0.6331000000000131],96,0,96,0,1,,
,,,,,,,,,,,,5ea606388e4cf808c64292d4,21,Mężczyzna,2022-06-11_09h40.16.362,task,2021.1.4,Win32,64,6299f149e92ead563fba08ef,62a446ca88cd2296b8f7c976,,,,,,,,,,,,,,,,,,,,,,,,,,,,,,,,,,,,,,,,,,,,,,,,,,,,,,,,,,,,,,,,,,,,,,,,,,,,,,,,,,,,,,,,,,,,"[""comma""]",0,[0.33530000000007476],97,0,97,0,1,,
,,,,,,,,,,,,5ea606388e4cf808c64292d4,21,Mężczyzna,2022-06-11_09h40.16.362,task,2021.1.4,Win32,64,6299f149e92ead563fba08ef,62a446ca88cd2296b8f7c976,,,,,,,,,,,,,,,,,,,,,,,,,,,,,,,,,,,,,,,,,,,,,,,,,,,,,,,,,,,,,,,,,,,,,,,,,,,,,,,,,,,,,,,,,,,,"[""comma""]",0,[0.42870000000004893],98,0,98,0,1,,
,,,,,,,,,,,,5ea606388e4cf808c64292d4,21,Mężczyzna,2022-06-11_09h40.16.362,task,2021.1.4,Win32,64,6299f149e92ead563fba08ef,62a446ca88cd2296b8f7c976,,,,,,,,,,,,,,,,,,,,,,,,,,,,,,,,,,,,,,,,,,,,,,,,,,,,,,,,,,,,,,,,,,,,,,,,,,,,,,,,,,,,,,,,,,,,"[""period""]",0,[0.476099999999974],99,0,99,0,1,,
,,,,,,,,,,,,5ea606388e4cf808c64292d4,21,Mężczyzna,2022-06-11_09h40.16.362,task,2021.1.4,Win32,64,6299f149e92ead563fba08ef,62a446ca88cd2296b8f7c976,,,,,,,,,,,,,,,,,,,,,,,,,,,,,,,,,,,,,,,,,,,,,,,,,,,,,,,,,,,,,,,,,,,,,,,,,,,,,,,,,,,,,,,,,,,,"[""period""]",0,[0.33720000000016626],100,0,100,0,1,,
,,,,,,,,,,,,5ea606388e4cf808c64292d4,21,Mężczyzna,2022-06-11_09h40.16.362,task,2021.1.4,Win32,64,6299f149e92ead563fba08ef,62a446ca88cd2296b8f7c976,,,,,,,,,,,,,,,,,,,,,,,,,,,,,,,,,,,,,,,,,,,,,,,,,,,,,,,,,,,,,,,,,,,,,,,,,,,,,,,,,,,,,,,,,,,,"[""period""]",0,[0.3179000000001224],101,0,101,0,1,,
,,,,,,,,,,,,5ea606388e4cf808c64292d4,21,Mężczyzna,2022-06-11_09h40.16.362,task,2021.1.4,Win32,64,6299f149e92ead563fba08ef,62a446ca88cd2296b8f7c976,,,,,,,,,,,,,,,,,,,,,,,,,,,,,,,,,,,,,,,,,,,,,,,,,,,,,,,,,,,,,,,,,,,,,,,,,,,,,,,,,,,,,,,,,,,,"[""period""]",0,[0.3212999999998374],102,0,102,0,1,,
,,,,,,,,,,,,5ea606388e4cf808c64292d4,21,Mężczyzna,2022-06-11_09h40.16.362,task,2021.1.4,Win32,64,6299f149e92ead563fba08ef,62a446ca88cd2296b8f7c976,,,,,,,,,,,,,,,,,,,,,,,,,,,,,,,,,,,,,,,,,,,,,,,,,,,,,,,,,,,,,,,,,,,,,,,,,,,,,,,,,,,,,,,,,,,,"[""comma""]",0,[0.3347999999999729],103,0,103,0,1,,
,,,,,,,,,,,,5ea606388e4cf808c64292d4,21,Mężczyzna,2022-06-11_09h40.16.362,task,2021.1.4,Win32,64,6299f149e92ead563fba08ef,62a446ca88cd2296b8f7c976,,,,,,,,,,,,,,,,,,,,,,,,,,,,,,,,,,,,,,,,,,,,,,,,,,,,,,,,,,,,,,,,,,,,,,,,,,,,,,,,,,,,,,,,,,,,"[""period""]",0,[0.3704000000000178],104,0,104,0,1,,
,,,,,,,,,,,,5ea606388e4cf808c64292d4,21,Mężczyzna,2022-06-11_09h40.16.362,task,2021.1.4,Win32,64,6299f149e92ead563fba08ef,62a446ca88cd2296b8f7c976,,,,,,,,,,,,,,,,,,,,,,,,,,,,,,,,,,,,,,,,,,,,,,,,,,,,,,,,,,,,,,,,,,,,,,,,,,,,,,,,,,,,,,,,,,,,"[""period""]",0,[0.3847000000000662],105,0,105,0,1,,
,,,,,,,,,,,,5ea606388e4cf808c64292d4,21,Mężczyzna,2022-06-11_09h40.16.362,task,2021.1.4,Win32,64,6299f149e92ead563fba08ef,62a446ca88cd2296b8f7c976,,,,,,,,,,,,,,,,,,,,,,,,,,,,,,,,,,,,,,,,,,,,,,,,,,,,,,,,,,,,,,,,,,,,,,,,,,,,,,,,,,,,,,,,,,,,"[""comma""]",0,[0.6940000000000737],106,0,106,0,1,,
,,,,,,,,,,,,5ea606388e4cf808c64292d4,21,Mężczyzna,2022-06-11_09h40.16.362,task,2021.1.4,Win32,64,6299f149e92ead563fba08ef,62a446ca88cd2296b8f7c976,,,,,,,,,,,,,,,,,,,,,,,,,,,,,,,,,,,,,,,,,,,,,,,,,,,,,,,,,,,,,,,,,,,,,,,,,,,,,,,,,,,,,,,,,,,,"[""period""]",0,[1.0262000000001308],107,0,107,0,1,,
,,,,,,,,,,,,5ea606388e4cf808c64292d4,21,Mężczyzna,2022-06-11_09h40.16.362,task,2021.1.4,Win32,64,6299f149e92ead563fba08ef,62a446ca88cd2296b8f7c976,,,,,,,,,,,,,,,,,,,,,,,,,,,,,,,,,,,,,,,,,,,,,,,,,,,,,,,,,,,,,,,,,,,,,,,,,,,,,,,,,,,,,,,,,,,,"[""period""]",0,[0.6639000000000124],108,0,108,0,1,,
,,,,,,,,,,,,5ea606388e4cf808c64292d4,21,Mężczyzna,2022-06-11_09h40.16.362,task,2021.1.4,Win32,64,6299f149e92ead563fba08ef,62a446ca88cd2296b8f7c976,,,,,,,,,,,,,,,,,,,,,,,,,,,,,,,,,,,,,,,,,,,,,,,,,,,,,,,,,,,,,,,,,,,,,,,,,,,,,,,,,,,,,,,,,,,,"[""period""]",0,[0.4116000000000213],109,0,109,0,1,,
,,,,,,,,,,,,5ea606388e4cf808c64292d4,21,Mężczyzna,2022-06-11_09h40.16.362,task,2021.1.4,Win32,64,6299f149e92ead563fba08ef,62a446ca88cd2296b8f7c976,,,,,,,,,,,,,,,,,,,,,,,,,,,,,,,,,,,,,,,,,,,,,,,,,,,,,,,,,,,,,,,,,,,,,,,,,,,,,,,,,,,,,,,,,,,,"[""period""]",0,[0.7880000000000109],110,0,110,0,1,,
,,,,,,,,,,,,5ea606388e4cf808c64292d4,21,Mężczyzna,2022-06-11_09h40.16.362,task,2021.1.4,Win32,64,6299f149e92ead563fba08ef,62a446ca88cd2296b8f7c976,,,,,,,,,,,,,,,,,,,,,,,,,,,,,,,,,,,,,,,,,,,,,,,,,,,,,,,,,,,,,,,,,,,,,,,,,,,,,,,,,,,,,,,,,,,,"[""comma""]",0,[0.3029000000000224],111,0,111,0,1,,
,,,,,,,,,,,,5ea606388e4cf808c64292d4,21,Mężczyzna,2022-06-11_09h40.16.362,task,2021.1.4,Win32,64,6299f149e92ead563fba08ef,62a446ca88cd2296b8f7c976,,,,,,,,,,,,,,,,,,,,,,,,,,,,,,,,,,,,,,,,,,,,,,,,,,,,,,,,,,,,,,,,,,,,,,,,,,,,,,,,,,,,,,,,,,,,"[""comma""]",0,[0.2961999999999989],112,0,112,0,1,,
,,,,,,,,,,,,5ea606388e4cf808c64292d4,21,Mężczyzna,2022-06-11_09h40.16.362,task,2021.1.4,Win32,64,6299f149e92ead563fba08ef,62a446ca88cd2296b8f7c976,,,,,,,,,,,,,,,,,,,,,,,,,,,,,,,,,,,,,,,,,,,,,,,,,,,,,,,,,,,,,,,,,,,,,,,,,,,,,,,,,,,,,,,,,,,,"[""period""]",0,[0.29560000000003583],113,0,113,0,1,,
,,,,,,,,,,,,5ea606388e4cf808c64292d4,21,Mężczyzna,2022-06-11_09h40.16.362,task,2021.1.4,Win32,64,6299f149e92ead563fba08ef,62a446ca88cd2296b8f7c976,,,,,,,,,,,,,,,,,,,,,,,,,,,,,,,,,,,,,,,,,,,,,,,,,,,,,,,,,,,,,,,,,,,,,,,,,,,,,,,,,,,,,,,,,,,,"[""period""]",0,[0.3835000000000264],114,0,114,0,1,,
,,,,,,,,,,,,5ea606388e4cf808c64292d4,21,Mężczyzna,2022-06-11_09h40.16.362,task,2021.1.4,Win32,64,6299f149e92ead563fba08ef,62a446ca88cd2296b8f7c976,,,,,,,,,,,,,,,,,,,,,,,,,,,,,,,,,,,,,,,,,,,,,,,,,,,,,,,,,,,,,,,,,,,,,,,,,,,,,,,,,,,,,,,,,,,,"[""comma""]",0,[1.4740000000000464],115,0,115,0,1,,
,,,,,,,,,,,,5ea606388e4cf808c64292d4,21,Mężczyzna,2022-06-11_09h40.16.362,task,2021.1.4,Win32,64,6299f149e92ead563fba08ef,62a446ca88cd2296b8f7c976,,,,,,,,,,,,,,,,,,,,,,,,,,,,,,,,,,,,,,,,,,,,,,,,,,,,,,,,,,,,,,,,,,,,,,,,,,,,,,,,,,,,,,,,,,,,,0,,116,0,116,0,1,,
,,,,,,,,,,,,5ea606388e4cf808c64292d4,21,Mężczyzna,2022-06-11_09h40.16.362,task,2021.1.4,Win32,64,6299f149e92ead563fba08ef,62a446ca88cd2296b8f7c976,,,,,,,,,,,,,,,,,,,,,,,,,,,,,,,,,,,,,,,,,,,,,,,,,,,,,,,,,,,,,,,,,,,,,,,,,,,,,,,,,,,,,,,,,,,,"[""comma"",""period""]",0,"[0.09919999999999618,1.7883999999999105]",117,0,117,0,1,,
,,,,,,,,,,,,5ea606388e4cf808c64292d4,21,Mężczyzna,2022-06-11_09h40.16.362,task,2021.1.4,Win32,64,6299f149e92ead563fba08ef,62a446ca88cd2296b8f7c976,,,,,,,,,,,,,,,,,,,,,,,,,,,,,,,,,,,,,,,,,,,,,,,,,,,,,,,,,,,,,,,,,,,,,,,,,,,,,,,,,,,,,,,,,,,,,0,,118,0,118,0,1,,
,,,,,,,,,,,,5ea606388e4cf808c64292d4,21,Mężczyzna,2022-06-11_09h40.16.362,task,2021.1.4,Win32,64,6299f149e92ead563fba08ef,62a446ca88cd2296b8f7c976,,,,,,,,,,,,,,,,,,,,,,,,,,,,,,,,,,,,,,,,,,,,,,,,,,,,,,,,,,,,,,,,,,,,,,,,,,,,,,,,,,,,,,,,,,,,"[""comma""]",0,[0.28910000000007585],119,0,119,0,1,,
,,,,,,,,,,,,5ea606388e4cf808c64292d4,21,Mężczyzna,2022-06-11_09h40.16.362,task,2021.1.4,Win32,64,6299f149e92ead563fba08ef,62a446ca88cd2296b8f7c976,,,,,,,,,,,,,,,,,,,,,,,,,,,,,,,,,,,,,,,,,,,,,,,,,,,,,,,,,,,,,,,,,,,,,,,,,,,,,,,,,,,,,,,,,,,,,,,,,,,,space,1.5324
