key_resp_15.keys,key_resp_15.rt,key_resp_16.keys,key_resp_16.rt,key_resp_4.keys,key_resp_4.rt,next_letter.thisRepN,next_letter.thisTrialN,next_letter.thisN,next_letter.thisIndex,next_letter.ran,letter,participant,Wiek*,Płeć,date,expName,psychopyVersion,OS,frameRate,study_id,session,simple_recall,key_resp_5.keys,key_resp_5.rt,simple_recall_corr,simple_recall_corrkeys,next_level.thisRepN,next_level.thisTrialN,next_level.thisN,next_level.thisIndex,next_level.ran,key_resp_2.keys,key_resp_2.rt,digit_answer,key_resp.keys,key_resp.corr,key_resp.rt,RT_list,next_equation.thisRepN,next_equation.thisTrialN,next_equation.thisN,next_equation.thisIndex,next_equation.ran,Task,Trial,Problem,Operation_answer,processing_score,sumRT,meanRT,sumdiff,sd,RT,key_resp_3.keys,key_resp_3.rt,repeat_practice.thisRepN,repeat_practice.thisTrialN,repeat_practice.thisN,repeat_practice.thisIndex,repeat_practice.ran,key_resp_6.keys,key_resp_6.rt,key_resp_11.keys,key_resp_11.corr,key_resp_11.rt,operation_correct,repeat_if_wrong_prac.thisRepN,repeat_if_wrong_prac.thisTrialN,repeat_if_wrong_prac.thisN,repeat_if_wrong_prac.thisIndex,repeat_if_wrong_prac.ran,span_size_prac.thisRepN,span_size_prac.thisTrialN,span_size_prac.thisN,span_size_prac.thisIndex,span_size_prac.ran,complex_recall_practice,key_resp_9.keys,key_resp_9.corr,key_resp_9.rt,complex_prac_corr,span_recall_prac.thisRepN,span_recall_prac.thisTrialN,span_recall_prac.thisN,span_recall_prac.thisIndex,span_recall_prac.ran,key_resp_10.keys,key_resp_10.rt,key_resp_7.keys,key_resp_7.corr,key_resp_7.rt,repeat_if_wrong.thisRepN,repeat_if_wrong.thisTrialN,repeat_if_wrong.thisN,repeat_if_wrong.thisIndex,repeat_if_wrong.ran,span_size.thisRepN,span_size.thisTrialN,span_size.thisN,span_size.thisIndex,span_size.ran,complex_recall,key_resp_8.keys,key_resp_8.corr,key_resp_8.rt,complex_recall_corr,complex_recall_corrkeys,span_recall.thisRepN,span_recall.thisTrialN,span_recall.thisN,span_recall.thisIndex,span_recall.ran,key_resp_13.keys,key_resp_13.corr,key_resp_13.rt,random_loop.thisRepN,random_loop.thisTrialN,random_loop.thisN,random_loop.thisIndex,random_loop.ran,key_resp_12.keys,key_resp_12.rt
space,63.6108,space,14.852,space,9.4187,0,0,0,0,1,X V Q F H G B L J M P D K C T S W R N Z,5ea93d40fb690101aa21e97a,32,Kobieta,2022-06-11_09h30.57.608,task,2021.1.4,Linux x86_64,60.0060006,6299f149e92ead563fba08ef,62a4447017671de91027f922,,,,,,,,,,,,,,,,,,,,,,,,,,,,,,,,,,,,,,,,,,,,,,,,,,,,,,,,,,,,,,,,,,,,,,,,,,,,,,,,,,,,,,,,,,,,,,,,,,,,,
,,,,,,1,0,1,0,1,X V Q F H G B L J M P D K C T S W R N Z,5ea93d40fb690101aa21e97a,32,Kobieta,2022-06-11_09h30.57.608,task,2021.1.4,Linux x86_64,60.0060006,6299f149e92ead563fba08ef,62a4447017671de91027f922,,,,,,,,,,,,,,,,,,,,,,,,,,,,,,,,,,,,,,,,,,,,,,,,,,,,,,,,,,,,,,,,,,,,,,,,,,,,,,,,,,,,,,,,,,,,,,,,,,,,,
,,,,,,,,,,,,5ea93d40fb690101aa21e97a,32,Kobieta,2022-06-11_09h30.57.608,task,2021.1.4,Linux x86_64,60.0060006,6299f149e92ead563fba08ef,62a4447017671de91027f922,zp,"[""z"",""p""]","[2.395699999988068,2.6469999999999914,3.0258999999761613]",1,ZP,0,0,0,0,1,,,,,,,,,,,,,,,,,,,,,,,,,,,,,,,,,,,,,,,,,,,,,,,,,,,,,,,,,,,,,,,,,,,,,,,,,,,,,,,,,,,,,,,,,,,
,,,,,,0,0,0,0,1,X V Q F H G B L J M P D K C T S W R N Z,5ea93d40fb690101aa21e97a,32,Kobieta,2022-06-11_09h30.57.608,task,2021.1.4,Linux x86_64,60.0060006,6299f149e92ead563fba08ef,62a4447017671de91027f922,,,,,,,,,,,,,,,,,,,,,,,,,,,,,,,,,,,,,,,,,,,,,,,,,,,,,,,,,,,,,,,,,,,,,,,,,,,,,,,,,,,,,,,,,,,,,,,,,,,,,
,,,,,,1,0,1,0,1,X V Q F H G B L J M P D K C T S W R N Z,5ea93d40fb690101aa21e97a,32,Kobieta,2022-06-11_09h30.57.608,task,2021.1.4,Linux x86_64,60.0060006,6299f149e92ead563fba08ef,62a4447017671de91027f922,,,,,,,,,,,,,,,,,,,,,,,,,,,,,,,,,,,,,,,,,,,,,,,,,,,,,,,,,,,,,,,,,,,,,,,,,,,,,,,,,,,,,,,,,,,,,,,,,,,,,
,,,,,,,,,,,,5ea93d40fb690101aa21e97a,32,Kobieta,2022-06-11_09h30.57.608,task,2021.1.4,Linux x86_64,60.0060006,6299f149e92ead563fba08ef,62a4447017671de91027f922,cc,"[""c"",""c""]","[1.1646999999880734,1.3358000000119148,1.6479999999999961]",1,CC,1,0,1,0,1,,,,,,,,,,,,,,,,,,,,,,,,,,,,,,,,,,,,,,,,,,,,,,,,,,,,,,,,,,,,,,,,,,,,,,,,,,,,,,,,,,,,,,,,,,,
,,,,,,0,0,0,0,1,X V Q F H G B L J M P D K C T S W R N Z,5ea93d40fb690101aa21e97a,32,Kobieta,2022-06-11_09h30.57.608,task,2021.1.4,Linux x86_64,60.0060006,6299f149e92ead563fba08ef,62a4447017671de91027f922,,,,,,,,,,,,,,,,,,,,,,,,,,,,,,,,,,,,,,,,,,,,,,,,,,,,,,,,,,,,,,,,,,,,,,,,,,,,,,,,,,,,,,,,,,,,,,,,,,,,,
,,,,,,1,0,1,0,1,X V Q F H G B L J M P D K C T S W R N Z,5ea93d40fb690101aa21e97a,32,Kobieta,2022-06-11_09h30.57.608,task,2021.1.4,Linux x86_64,60.0060006,6299f149e92ead563fba08ef,62a4447017671de91027f922,,,,,,,,,,,,,,,,,,,,,,,,,,,,,,,,,,,,,,,,,,,,,,,,,,,,,,,,,,,,,,,,,,,,,,,,,,,,,,,,,,,,,,,,,,,,,,,,,,,,,
,,,,,,2,0,2,0,1,X V Q F H G B L J M P D K C T S W R N Z,5ea93d40fb690101aa21e97a,32,Kobieta,2022-06-11_09h30.57.608,task,2021.1.4,Linux x86_64,60.0060006,6299f149e92ead563fba08ef,62a4447017671de91027f922,,,,,,,,,,,,,,,,,,,,,,,,,,,,,,,,,,,,,,,,,,,,,,,,,,,,,,,,,,,,,,,,,,,,,,,,,,,,,,,,,,,,,,,,,,,,,,,,,,,,,
,,,,,,,,,,,,5ea93d40fb690101aa21e97a,32,Kobieta,2022-06-11_09h30.57.608,task,2021.1.4,Linux x86_64,60.0060006,6299f149e92ead563fba08ef,62a4447017671de91027f922,dkp,"[""d"",""k"",""p""]","[0.853999999999985,0.9954000000357439,1.143600000023838,1.3864000000357635]",1,DKP,2,0,2,0,1,,,,,,,,,,,,,,,,,,,,,,,,,,,,,,,,,,,,,,,,,,,,,,,,,,,,,,,,,,,,,,,,,,,,,,,,,,,,,,,,,,,,,,,,,,,
,,,,,,0,0,0,0,1,X V Q F H G B L J M P D K C T S W R N Z,5ea93d40fb690101aa21e97a,32,Kobieta,2022-06-11_09h30.57.608,task,2021.1.4,Linux x86_64,60.0060006,6299f149e92ead563fba08ef,62a4447017671de91027f922,,,,,,,,,,,,,,,,,,,,,,,,,,,,,,,,,,,,,,,,,,,,,,,,,,,,,,,,,,,,,,,,,,,,,,,,,,,,,,,,,,,,,,,,,,,,,,,,,,,,,
,,,,,,1,0,1,0,1,X V Q F H G B L J M P D K C T S W R N Z,5ea93d40fb690101aa21e97a,32,Kobieta,2022-06-11_09h30.57.608,task,2021.1.4,Linux x86_64,60.0060006,6299f149e92ead563fba08ef,62a4447017671de91027f922,,,,,,,,,,,,,,,,,,,,,,,,,,,,,,,,,,,,,,,,,,,,,,,,,,,,,,,,,,,,,,,,,,,,,,,,,,,,,,,,,,,,,,,,,,,,,,,,,,,,,
,,,,,,2,0,2,0,1,X V Q F H G B L J M P D K C T S W R N Z,5ea93d40fb690101aa21e97a,32,Kobieta,2022-06-11_09h30.57.608,task,2021.1.4,Linux x86_64,60.0060006,6299f149e92ead563fba08ef,62a4447017671de91027f922,,,,,,,,,,,,,,,,,,,,,,,,,,,,,,,,,,,,,,,,,,,,,,,,,,,,,,,,,,,,,,,,,,,,,,,,,,,,,,,,,,,,,,,,,,,,,,,,,,,,,
,,,,,,,,,,,,5ea93d40fb690101aa21e97a,32,Kobieta,2022-06-11_09h30.57.608,task,2021.1.4,Linux x86_64,60.0060006,6299f149e92ead563fba08ef,62a4447017671de91027f922,vss,"[""v"",""s"",""s""]","[1.5109000000357469,1.6484999999999843,1.8032000000476955,2.0320000000000107]",1,VSS,3,0,3,0,1,,,,,,,,,,,,,,,,,,,,,,,,,,,,,,,,,,,,,,,,,,,,,,,,,,,,,,,,,,,,,,,,,,,,,,,,,,,,,,,,,,,,,,,,,,,
,,,,,,0,0,0,0,1,X V Q F H G B L J M P D K C T S W R N Z,5ea93d40fb690101aa21e97a,32,Kobieta,2022-06-11_09h30.57.608,task,2021.1.4,Linux x86_64,60.0060006,6299f149e92ead563fba08ef,62a4447017671de91027f922,,,,,,,,,,,,,,,,,,,,,,,,,,,,,,,,,,,,,,,,,,,,,,,,,,,,,,,,,,,,,,,,,,,,,,,,,,,,,,,,,,,,,,,,,,,,,,,,,,,,,
,,,,,,1,0,1,0,1,X V Q F H G B L J M P D K C T S W R N Z,5ea93d40fb690101aa21e97a,32,Kobieta,2022-06-11_09h30.57.608,task,2021.1.4,Linux x86_64,60.0060006,6299f149e92ead563fba08ef,62a4447017671de91027f922,,,,,,,,,,,,,,,,,,,,,,,,,,,,,,,,,,,,,,,,,,,,,,,,,,,,,,,,,,,,,,,,,,,,,,,,,,,,,,,,,,,,,,,,,,,,,,,,,,,,,
,,,,,,2,0,2,0,1,X V Q F H G B L J M P D K C T S W R N Z,5ea93d40fb690101aa21e97a,32,Kobieta,2022-06-11_09h30.57.608,task,2021.1.4,Linux x86_64,60.0060006,6299f149e92ead563fba08ef,62a4447017671de91027f922,,,,,,,,,,,,,,,,,,,,,,,,,,,,,,,,,,,,,,,,,,,,,,,,,,,,,,,,,,,,,,,,,,,,,,,,,,,,,,,,,,,,,,,,,,,,,,,,,,,,,
,,,,,,3,0,3,0,1,X V Q F H G B L J M P D K C T S W R N Z,5ea93d40fb690101aa21e97a,32,Kobieta,2022-06-11_09h30.57.608,task,2021.1.4,Linux x86_64,60.0060006,6299f149e92ead563fba08ef,62a4447017671de91027f922,,,,,,,,,,,,,,,,,,,,,,,,,,,,,,,,,,,,,,,,,,,,,,,,,,,,,,,,,,,,,,,,,,,,,,,,,,,,,,,,,,,,,,,,,,,,,,,,,,,,,
,,,,,,,,,,,,5ea93d40fb690101aa21e97a,32,Kobieta,2022-06-11_09h30.57.608,task,2021.1.4,Linux x86_64,60.0060006,6299f149e92ead563fba08ef,62a4447017671de91027f922,ttsw,"[""t"",""t"",""s"",""w""]","[0.765300000011905,0.9256000000238487,1.0188000000119075,1.2191999999880636,1.4068000000119127]",1,TTSW,4,0,4,0,1,,,,,,,,,,,,,,,,,,,,,,,,,,,,,,,,,,,,,,,,,,,,,,,,,,,,,,,,,,,,,,,,,,,,,,,,,,,,,,,,,,,,,,,,,,,
,,,,,,0,0,0,0,1,X V Q F H G B L J M P D K C T S W R N Z,5ea93d40fb690101aa21e97a,32,Kobieta,2022-06-11_09h30.57.608,task,2021.1.4,Linux x86_64,60.0060006,6299f149e92ead563fba08ef,62a4447017671de91027f922,,,,,,,,,,,,,,,,,,,,,,,,,,,,,,,,,,,,,,,,,,,,,,,,,,,,,,,,,,,,,,,,,,,,,,,,,,,,,,,,,,,,,,,,,,,,,,,,,,,,,
,,,,,,1,0,1,0,1,X V Q F H G B L J M P D K C T S W R N Z,5ea93d40fb690101aa21e97a,32,Kobieta,2022-06-11_09h30.57.608,task,2021.1.4,Linux x86_64,60.0060006,6299f149e92ead563fba08ef,62a4447017671de91027f922,,,,,,,,,,,,,,,,,,,,,,,,,,,,,,,,,,,,,,,,,,,,,,,,,,,,,,,,,,,,,,,,,,,,,,,,,,,,,,,,,,,,,,,,,,,,,,,,,,,,,
,,,,,,2,0,2,0,1,X V Q F H G B L J M P D K C T S W R N Z,5ea93d40fb690101aa21e97a,32,Kobieta,2022-06-11_09h30.57.608,task,2021.1.4,Linux x86_64,60.0060006,6299f149e92ead563fba08ef,62a4447017671de91027f922,,,,,,,,,,,,,,,,,,,,,,,,,,,,,,,,,,,,,,,,,,,,,,,,,,,,,,,,,,,,,,,,,,,,,,,,,,,,,,,,,,,,,,,,,,,,,,,,,,,,,
,,,,,,3,0,3,0,1,X V Q F H G B L J M P D K C T S W R N Z,5ea93d40fb690101aa21e97a,32,Kobieta,2022-06-11_09h30.57.608,task,2021.1.4,Linux x86_64,60.0060006,6299f149e92ead563fba08ef,62a4447017671de91027f922,,,,,,,,,,,,,,,,,,,,,,,,,,,,,,,,,,,,,,,,,,,,,,,,,,,,,,,,,,,,,,,,,,,,,,,,,,,,,,,,,,,,,,,,,,,,,,,,,,,,,
,,,,,,,,,,,,5ea93d40fb690101aa21e97a,32,Kobieta,2022-06-11_09h30.57.608,task,2021.1.4,Linux x86_64,60.0060006,6299f149e92ead563fba08ef,62a4447017671de91027f922,wbrc,"[""w"",""b"",""r"",""c""]","[1.1750999999642602,1.3203000000119403,1.4653999999761709,1.710599999964245,1.8660000000000139]",1,WBRC,5,0,5,0,1,,,,,,,,,,,,,,,,,,,,,,,,,,,,,,,,,,,,,,,,,,,,,,,,,,,,,,,,,,,,,,,,,,,,,,,,,,,,,,,,,,,,,,,,,,,
,,,,,,0,0,0,0,1,X V Q F H G B L J M P D K C T S W R N Z,5ea93d40fb690101aa21e97a,32,Kobieta,2022-06-11_09h30.57.608,task,2021.1.4,Linux x86_64,60.0060006,6299f149e92ead563fba08ef,62a4447017671de91027f922,,,,,,,,,,,,,,,,,,,,,,,,,,,,,,,,,,,,,,,,,,,,,,,,,,,,,,,,,,,,,,,,,,,,,,,,,,,,,,,,,,,,,,,,,,,,,,,,,,,,,
,,,,,,1,0,1,0,1,X V Q F H G B L J M P D K C T S W R N Z,5ea93d40fb690101aa21e97a,32,Kobieta,2022-06-11_09h30.57.608,task,2021.1.4,Linux x86_64,60.0060006,6299f149e92ead563fba08ef,62a4447017671de91027f922,,,,,,,,,,,,,,,,,,,,,,,,,,,,,,,,,,,,,,,,,,,,,,,,,,,,,,,,,,,,,,,,,,,,,,,,,,,,,,,,,,,,,,,,,,,,,,,,,,,,,
,,,,,,2,0,2,0,1,X V Q F H G B L J M P D K C T S W R N Z,5ea93d40fb690101aa21e97a,32,Kobieta,2022-06-11_09h30.57.608,task,2021.1.4,Linux x86_64,60.0060006,6299f149e92ead563fba08ef,62a4447017671de91027f922,,,,,,,,,,,,,,,,,,,,,,,,,,,,,,,,,,,,,,,,,,,,,,,,,,,,,,,,,,,,,,,,,,,,,,,,,,,,,,,,,,,,,,,,,,,,,,,,,,,,,
,,,,,,3,0,3,0,1,X V Q F H G B L J M P D K C T S W R N Z,5ea93d40fb690101aa21e97a,32,Kobieta,2022-06-11_09h30.57.608,task,2021.1.4,Linux x86_64,60.0060006,6299f149e92ead563fba08ef,62a4447017671de91027f922,,,,,,,,,,,,,,,,,,,,,,,,,,,,,,,,,,,,,,,,,,,,,,,,,,,,,,,,,,,,,,,,,,,,,,,,,,,,,,,,,,,,,,,,,,,,,,,,,,,,,
,,,,,,4,0,4,0,1,X V Q F H G B L J M P D K C T S W R N Z,5ea93d40fb690101aa21e97a,32,Kobieta,2022-06-11_09h30.57.608,task,2021.1.4,Linux x86_64,60.0060006,6299f149e92ead563fba08ef,62a4447017671de91027f922,,,,,,,,,,,,,,,,,,,,,,,,,,,,,,,,,,,,,,,,,,,,,,,,,,,,,,,,,,,,,,,,,,,,,,,,,,,,,,,,,,,,,,,,,,,,,,,,,,,,,
,,,,,,,,,,,,5ea93d40fb690101aa21e97a,32,Kobieta,2022-06-11_09h30.57.608,task,2021.1.4,Linux x86_64,60.0060006,6299f149e92ead563fba08ef,62a4447017671de91027f922,nbdnp,"[""n"",""b"",""d"",""n"",""p""]","[0.751499999999993,0.9830000000000041,1.4734000000357526,1.6583000000119341,2.0805000000000007,2.351400000035767]",1,NBDNP,6,0,6,0,1,,,,,,,,,,,,,,,,,,,,,,,,,,,,,,,,,,,,,,,,,,,,,,,,,,,,,,,,,,,,,,,,,,,,,,,,,,,,,,,,,,,,,,,,,,,
,,,,,,0,0,0,0,1,X V Q F H G B L J M P D K C T S W R N Z,5ea93d40fb690101aa21e97a,32,Kobieta,2022-06-11_09h30.57.608,task,2021.1.4,Linux x86_64,60.0060006,6299f149e92ead563fba08ef,62a4447017671de91027f922,,,,,,,,,,,,,,,,,,,,,,,,,,,,,,,,,,,,,,,,,,,,,,,,,,,,,,,,,,,,,,,,,,,,,,,,,,,,,,,,,,,,,,,,,,,,,,,,,,,,,
,,,,,,1,0,1,0,1,X V Q F H G B L J M P D K C T S W R N Z,5ea93d40fb690101aa21e97a,32,Kobieta,2022-06-11_09h30.57.608,task,2021.1.4,Linux x86_64,60.0060006,6299f149e92ead563fba08ef,62a4447017671de91027f922,,,,,,,,,,,,,,,,,,,,,,,,,,,,,,,,,,,,,,,,,,,,,,,,,,,,,,,,,,,,,,,,,,,,,,,,,,,,,,,,,,,,,,,,,,,,,,,,,,,,,
,,,,,,2,0,2,0,1,X V Q F H G B L J M P D K C T S W R N Z,5ea93d40fb690101aa21e97a,32,Kobieta,2022-06-11_09h30.57.608,task,2021.1.4,Linux x86_64,60.0060006,6299f149e92ead563fba08ef,62a4447017671de91027f922,,,,,,,,,,,,,,,,,,,,,,,,,,,,,,,,,,,,,,,,,,,,,,,,,,,,,,,,,,,,,,,,,,,,,,,,,,,,,,,,,,,,,,,,,,,,,,,,,,,,,
,,,,,,3,0,3,0,1,X V Q F H G B L J M P D K C T S W R N Z,5ea93d40fb690101aa21e97a,32,Kobieta,2022-06-11_09h30.57.608,task,2021.1.4,Linux x86_64,60.0060006,6299f149e92ead563fba08ef,62a4447017671de91027f922,,,,,,,,,,,,,,,,,,,,,,,,,,,,,,,,,,,,,,,,,,,,,,,,,,,,,,,,,,,,,,,,,,,,,,,,,,,,,,,,,,,,,,,,,,,,,,,,,,,,,
,,,,,,4,0,4,0,1,X V Q F H G B L J M P D K C T S W R N Z,5ea93d40fb690101aa21e97a,32,Kobieta,2022-06-11_09h30.57.608,task,2021.1.4,Linux x86_64,60.0060006,6299f149e92ead563fba08ef,62a4447017671de91027f922,,,,,,,,,,,,,,,,,,,,,,,,,,,,,,,,,,,,,,,,,,,,,,,,,,,,,,,,,,,,,,,,,,,,,,,,,,,,,,,,,,,,,,,,,,,,,,,,,,,,,
,,,,,,,,,,,,5ea93d40fb690101aa21e97a,32,Kobieta,2022-06-11_09h30.57.608,task,2021.1.4,Linux x86_64,60.0060006,6299f149e92ead563fba08ef,62a4447017671de91027f922,xjpbs,"[""x"",""j"",""p"",""b"",""s""]","[1.3160000000000025,1.6443000000119241,1.9699999999999989,2.237100000023844,2.5537000000476837,2.8181000000238328]",1,XJPBS,7,0,7,0,1,,,,,,,,,,,,,,,,,,,,,,,,,,,,,,,,,,,,,,,,,,,,,,,,,,,,,,,,,,,,,,,,,,,,,,,,,,,,,,,,,,,,,,,,,,,
,,,,,,0,0,0,0,1,X V Q F H G B L J M P D K C T S W R N Z,5ea93d40fb690101aa21e97a,32,Kobieta,2022-06-11_09h30.57.608,task,2021.1.4,Linux x86_64,60.0060006,6299f149e92ead563fba08ef,62a4447017671de91027f922,,,,,,,,,,,,,,,,,,,,,,,,,,,,,,,,,,,,,,,,,,,,,,,,,,,,,,,,,,,,,,,,,,,,,,,,,,,,,,,,,,,,,,,,,,,,,,,,,,,,,
,,,,,,1,0,1,0,1,X V Q F H G B L J M P D K C T S W R N Z,5ea93d40fb690101aa21e97a,32,Kobieta,2022-06-11_09h30.57.608,task,2021.1.4,Linux x86_64,60.0060006,6299f149e92ead563fba08ef,62a4447017671de91027f922,,,,,,,,,,,,,,,,,,,,,,,,,,,,,,,,,,,,,,,,,,,,,,,,,,,,,,,,,,,,,,,,,,,,,,,,,,,,,,,,,,,,,,,,,,,,,,,,,,,,,
,,,,,,2,0,2,0,1,X V Q F H G B L J M P D K C T S W R N Z,5ea93d40fb690101aa21e97a,32,Kobieta,2022-06-11_09h30.57.608,task,2021.1.4,Linux x86_64,60.0060006,6299f149e92ead563fba08ef,62a4447017671de91027f922,,,,,,,,,,,,,,,,,,,,,,,,,,,,,,,,,,,,,,,,,,,,,,,,,,,,,,,,,,,,,,,,,,,,,,,,,,,,,,,,,,,,,,,,,,,,,,,,,,,,,
,,,,,,3,0,3,0,1,X V Q F H G B L J M P D K C T S W R N Z,5ea93d40fb690101aa21e97a,32,Kobieta,2022-06-11_09h30.57.608,task,2021.1.4,Linux x86_64,60.0060006,6299f149e92ead563fba08ef,62a4447017671de91027f922,,,,,,,,,,,,,,,,,,,,,,,,,,,,,,,,,,,,,,,,,,,,,,,,,,,,,,,,,,,,,,,,,,,,,,,,,,,,,,,,,,,,,,,,,,,,,,,,,,,,,
,,,,,,4,0,4,0,1,X V Q F H G B L J M P D K C T S W R N Z,5ea93d40fb690101aa21e97a,32,Kobieta,2022-06-11_09h30.57.608,task,2021.1.4,Linux x86_64,60.0060006,6299f149e92ead563fba08ef,62a4447017671de91027f922,,,,,,,,,,,,,,,,,,,,,,,,,,,,,,,,,,,,,,,,,,,,,,,,,,,,,,,,,,,,,,,,,,,,,,,,,,,,,,,,,,,,,,,,,,,,,,,,,,,,,
,,,,,,5,0,5,0,1,X V Q F H G B L J M P D K C T S W R N Z,5ea93d40fb690101aa21e97a,32,Kobieta,2022-06-11_09h30.57.608,task,2021.1.4,Linux x86_64,60.0060006,6299f149e92ead563fba08ef,62a4447017671de91027f922,,,,,,,,,,,,,,,,,,,,,,,,,,,,,,,,,,,,,,,,,,,,,,,,,,,,,,,,,,,,,,,,,,,,,,,,,,,,,,,,,,,,,,,,,,,,,,,,,,,,,
,,,,,,,,,,,,5ea93d40fb690101aa21e97a,32,Kobieta,2022-06-11_09h30.57.608,task,2021.1.4,Linux x86_64,60.0060006,6299f149e92ead563fba08ef,62a4447017671de91027f922,rxggqv,"[""r"",""x"",""g"",""g"",""q"",""v""]","[1.0586000000238585,1.4898000000119112,2.277899999976171,2.432199999988086,3.0033999999761534,3.5983999999761522,3.936100000023856]",1,RXGGQV,8,0,8,0,1,,,,,,,,,,,,,,,,,,,,,,,,,,,,,,,,,,,,,,,,,,,,,,,,,,,,,,,,,,,,,,,,,,,,,,,,,,,,,,,,,,,,,,,,,,,
,,,,,,0,0,0,0,1,X V Q F H G B L J M P D K C T S W R N Z,5ea93d40fb690101aa21e97a,32,Kobieta,2022-06-11_09h30.57.608,task,2021.1.4,Linux x86_64,60.0060006,6299f149e92ead563fba08ef,62a4447017671de91027f922,,,,,,,,,,,,,,,,,,,,,,,,,,,,,,,,,,,,,,,,,,,,,,,,,,,,,,,,,,,,,,,,,,,,,,,,,,,,,,,,,,,,,,,,,,,,,,,,,,,,,
,,,,,,1,0,1,0,1,X V Q F H G B L J M P D K C T S W R N Z,5ea93d40fb690101aa21e97a,32,Kobieta,2022-06-11_09h30.57.608,task,2021.1.4,Linux x86_64,60.0060006,6299f149e92ead563fba08ef,62a4447017671de91027f922,,,,,,,,,,,,,,,,,,,,,,,,,,,,,,,,,,,,,,,,,,,,,,,,,,,,,,,,,,,,,,,,,,,,,,,,,,,,,,,,,,,,,,,,,,,,,,,,,,,,,
,,,,,,2,0,2,0,1,X V Q F H G B L J M P D K C T S W R N Z,5ea93d40fb690101aa21e97a,32,Kobieta,2022-06-11_09h30.57.608,task,2021.1.4,Linux x86_64,60.0060006,6299f149e92ead563fba08ef,62a4447017671de91027f922,,,,,,,,,,,,,,,,,,,,,,,,,,,,,,,,,,,,,,,,,,,,,,,,,,,,,,,,,,,,,,,,,,,,,,,,,,,,,,,,,,,,,,,,,,,,,,,,,,,,,
,,,,,,3,0,3,0,1,X V Q F H G B L J M P D K C T S W R N Z,5ea93d40fb690101aa21e97a,32,Kobieta,2022-06-11_09h30.57.608,task,2021.1.4,Linux x86_64,60.0060006,6299f149e92ead563fba08ef,62a4447017671de91027f922,,,,,,,,,,,,,,,,,,,,,,,,,,,,,,,,,,,,,,,,,,,,,,,,,,,,,,,,,,,,,,,,,,,,,,,,,,,,,,,,,,,,,,,,,,,,,,,,,,,,,
,,,,,,4,0,4,0,1,X V Q F H G B L J M P D K C T S W R N Z,5ea93d40fb690101aa21e97a,32,Kobieta,2022-06-11_09h30.57.608,task,2021.1.4,Linux x86_64,60.0060006,6299f149e92ead563fba08ef,62a4447017671de91027f922,,,,,,,,,,,,,,,,,,,,,,,,,,,,,,,,,,,,,,,,,,,,,,,,,,,,,,,,,,,,,,,,,,,,,,,,,,,,,,,,,,,,,,,,,,,,,,,,,,,,,
,,,,,,5,0,5,0,1,X V Q F H G B L J M P D K C T S W R N Z,5ea93d40fb690101aa21e97a,32,Kobieta,2022-06-11_09h30.57.608,task,2021.1.4,Linux x86_64,60.0060006,6299f149e92ead563fba08ef,62a4447017671de91027f922,,,,,,,,,,,,,,,,,,,,,,,,,,,,,,,,,,,,,,,,,,,,,,,,,,,,,,,,,,,,,,,,,,,,,,,,,,,,,,,,,,,,,,,,,,,,,,,,,,,,,
,,,,,,,,,,,,5ea93d40fb690101aa21e97a,32,Kobieta,2022-06-11_09h30.57.608,task,2021.1.4,Linux x86_64,60.0060006,6299f149e92ead563fba08ef,62a4447017671de91027f922,nwlgtb,"[""n"",""w"",""l"",""g"",""t"",""b""]","[1.3206999999880793,1.4836000000238414,1.67349999999999,2.3496000000238553,2.5708000000119284,3.0473000000119157,3.5304999999999893]",1,NWLGTB,9,0,9,0,1,,,,,,,,,,,,,,,,,,,,,,,,,,,,,,,,,,,,,,,,,,,,,,,,,,,,,,,,,,,,,,,,,,,,,,,,,,,,,,,,,,,,,,,,,,,
,,,,,,0,0,0,0,1,X V Q F H G B L J M P D K C T S W R N Z,5ea93d40fb690101aa21e97a,32,Kobieta,2022-06-11_09h30.57.608,task,2021.1.4,Linux x86_64,60.0060006,6299f149e92ead563fba08ef,62a4447017671de91027f922,,,,,,,,,,,,,,,,,,,,,,,,,,,,,,,,,,,,,,,,,,,,,,,,,,,,,,,,,,,,,,,,,,,,,,,,,,,,,,,,,,,,,,,,,,,,,,,,,,,,,
,,,,,,1,0,1,0,1,X V Q F H G B L J M P D K C T S W R N Z,5ea93d40fb690101aa21e97a,32,Kobieta,2022-06-11_09h30.57.608,task,2021.1.4,Linux x86_64,60.0060006,6299f149e92ead563fba08ef,62a4447017671de91027f922,,,,,,,,,,,,,,,,,,,,,,,,,,,,,,,,,,,,,,,,,,,,,,,,,,,,,,,,,,,,,,,,,,,,,,,,,,,,,,,,,,,,,,,,,,,,,,,,,,,,,
,,,,,,2,0,2,0,1,X V Q F H G B L J M P D K C T S W R N Z,5ea93d40fb690101aa21e97a,32,Kobieta,2022-06-11_09h30.57.608,task,2021.1.4,Linux x86_64,60.0060006,6299f149e92ead563fba08ef,62a4447017671de91027f922,,,,,,,,,,,,,,,,,,,,,,,,,,,,,,,,,,,,,,,,,,,,,,,,,,,,,,,,,,,,,,,,,,,,,,,,,,,,,,,,,,,,,,,,,,,,,,,,,,,,,
,,,,,,3,0,3,0,1,X V Q F H G B L J M P D K C T S W R N Z,5ea93d40fb690101aa21e97a,32,Kobieta,2022-06-11_09h30.57.608,task,2021.1.4,Linux x86_64,60.0060006,6299f149e92ead563fba08ef,62a4447017671de91027f922,,,,,,,,,,,,,,,,,,,,,,,,,,,,,,,,,,,,,,,,,,,,,,,,,,,,,,,,,,,,,,,,,,,,,,,,,,,,,,,,,,,,,,,,,,,,,,,,,,,,,
,,,,,,4,0,4,0,1,X V Q F H G B L J M P D K C T S W R N Z,5ea93d40fb690101aa21e97a,32,Kobieta,2022-06-11_09h30.57.608,task,2021.1.4,Linux x86_64,60.0060006,6299f149e92ead563fba08ef,62a4447017671de91027f922,,,,,,,,,,,,,,,,,,,,,,,,,,,,,,,,,,,,,,,,,,,,,,,,,,,,,,,,,,,,,,,,,,,,,,,,,,,,,,,,,,,,,,,,,,,,,,,,,,,,,
,,,,,,5,0,5,0,1,X V Q F H G B L J M P D K C T S W R N Z,5ea93d40fb690101aa21e97a,32,Kobieta,2022-06-11_09h30.57.608,task,2021.1.4,Linux x86_64,60.0060006,6299f149e92ead563fba08ef,62a4447017671de91027f922,,,,,,,,,,,,,,,,,,,,,,,,,,,,,,,,,,,,,,,,,,,,,,,,,,,,,,,,,,,,,,,,,,,,,,,,,,,,,,,,,,,,,,,,,,,,,,,,,,,,,
,,,,,,6,0,6,0,1,X V Q F H G B L J M P D K C T S W R N Z,5ea93d40fb690101aa21e97a,32,Kobieta,2022-06-11_09h30.57.608,task,2021.1.4,Linux x86_64,60.0060006,6299f149e92ead563fba08ef,62a4447017671de91027f922,,,,,,,,,,,,,,,,,,,,,,,,,,,,,,,,,,,,,,,,,,,,,,,,,,,,,,,,,,,,,,,,,,,,,,,,,,,,,,,,,,,,,,,,,,,,,,,,,,,,,
,,,,,,,,,,,,5ea93d40fb690101aa21e97a,32,Kobieta,2022-06-11_09h30.57.608,task,2021.1.4,Linux x86_64,60.0060006,6299f149e92ead563fba08ef,62a4447017671de91027f922,fcmgbfs,"[""f"",""c"",""m"",""g"",""b"",""f"",""s""]","[1.103800000011944,1.3994000000357687,1.7658000000119216,2.1912000000477008,2.4639000000357782,2.924700000047693,3.143900000035785,3.720200000047697]",1,FCMGBFS,10,0,10,0,1,,,,,,,,,,,,,,,,,,,,,,,,,,,,,,,,,,,,,,,,,,,,,,,,,,,,,,,,,,,,,,,,,,,,,,,,,,,,,,,,,,,,,,,,,,,
,,,,,,0,0,0,0,1,X V Q F H G B L J M P D K C T S W R N Z,5ea93d40fb690101aa21e97a,32,Kobieta,2022-06-11_09h30.57.608,task,2021.1.4,Linux x86_64,60.0060006,6299f149e92ead563fba08ef,62a4447017671de91027f922,,,,,,,,,,,,,,,,,,,,,,,,,,,,,,,,,,,,,,,,,,,,,,,,,,,,,,,,,,,,,,,,,,,,,,,,,,,,,,,,,,,,,,,,,,,,,,,,,,,,,
,,,,,,1,0,1,0,1,X V Q F H G B L J M P D K C T S W R N Z,5ea93d40fb690101aa21e97a,32,Kobieta,2022-06-11_09h30.57.608,task,2021.1.4,Linux x86_64,60.0060006,6299f149e92ead563fba08ef,62a4447017671de91027f922,,,,,,,,,,,,,,,,,,,,,,,,,,,,,,,,,,,,,,,,,,,,,,,,,,,,,,,,,,,,,,,,,,,,,,,,,,,,,,,,,,,,,,,,,,,,,,,,,,,,,
,,,,,,2,0,2,0,1,X V Q F H G B L J M P D K C T S W R N Z,5ea93d40fb690101aa21e97a,32,Kobieta,2022-06-11_09h30.57.608,task,2021.1.4,Linux x86_64,60.0060006,6299f149e92ead563fba08ef,62a4447017671de91027f922,,,,,,,,,,,,,,,,,,,,,,,,,,,,,,,,,,,,,,,,,,,,,,,,,,,,,,,,,,,,,,,,,,,,,,,,,,,,,,,,,,,,,,,,,,,,,,,,,,,,,
,,,,,,3,0,3,0,1,X V Q F H G B L J M P D K C T S W R N Z,5ea93d40fb690101aa21e97a,32,Kobieta,2022-06-11_09h30.57.608,task,2021.1.4,Linux x86_64,60.0060006,6299f149e92ead563fba08ef,62a4447017671de91027f922,,,,,,,,,,,,,,,,,,,,,,,,,,,,,,,,,,,,,,,,,,,,,,,,,,,,,,,,,,,,,,,,,,,,,,,,,,,,,,,,,,,,,,,,,,,,,,,,,,,,,
,,,,,,4,0,4,0,1,X V Q F H G B L J M P D K C T S W R N Z,5ea93d40fb690101aa21e97a,32,Kobieta,2022-06-11_09h30.57.608,task,2021.1.4,Linux x86_64,60.0060006,6299f149e92ead563fba08ef,62a4447017671de91027f922,,,,,,,,,,,,,,,,,,,,,,,,,,,,,,,,,,,,,,,,,,,,,,,,,,,,,,,,,,,,,,,,,,,,,,,,,,,,,,,,,,,,,,,,,,,,,,,,,,,,,
,,,,,,5,0,5,0,1,X V Q F H G B L J M P D K C T S W R N Z,5ea93d40fb690101aa21e97a,32,Kobieta,2022-06-11_09h30.57.608,task,2021.1.4,Linux x86_64,60.0060006,6299f149e92ead563fba08ef,62a4447017671de91027f922,,,,,,,,,,,,,,,,,,,,,,,,,,,,,,,,,,,,,,,,,,,,,,,,,,,,,,,,,,,,,,,,,,,,,,,,,,,,,,,,,,,,,,,,,,,,,,,,,,,,,
,,,,,,6,0,6,0,1,X V Q F H G B L J M P D K C T S W R N Z,5ea93d40fb690101aa21e97a,32,Kobieta,2022-06-11_09h30.57.608,task,2021.1.4,Linux x86_64,60.0060006,6299f149e92ead563fba08ef,62a4447017671de91027f922,,,,,,,,,,,,,,,,,,,,,,,,,,,,,,,,,,,,,,,,,,,,,,,,,,,,,,,,,,,,,,,,,,,,,,,,,,,,,,,,,,,,,,,,,,,,,,,,,,,,,
,,,,,,,,,,,,5ea93d40fb690101aa21e97a,32,Kobieta,2022-06-11_09h30.57.608,task,2021.1.4,Linux x86_64,60.0060006,6299f149e92ead563fba08ef,62a4447017671de91027f922,xkgbmdv,"[""x"",""k"",""g"",""b"",""m"",""d"",""v""]","[1.6816000000238205,2.0549999999999784,2.8688999999761506,3.448100000023828,3.7323999999761384,4.01019999998806,6.54439999997615,6.750500000000017]",0,XKGBMDL,11,0,11,0,1,,,,,,,,,,,,,,,,,,,,,,,,,,,,,,,,,,,,,,,,,,,,,,,,,,,,,,,,,,,,,,,,,,,,,,,,,,,,,,,,,,,,,,,,,,,
,,,,,,0,0,0,0,1,X V Q F H G B L J M P D K C T S W R N Z,5ea93d40fb690101aa21e97a,32,Kobieta,2022-06-11_09h30.57.608,task,2021.1.4,Linux x86_64,60.0060006,6299f149e92ead563fba08ef,62a4447017671de91027f922,,,,,,,,,,,,,,,,,,,,,,,,,,,,,,,,,,,,,,,,,,,,,,,,,,,,,,,,,,,,,,,,,,,,,,,,,,,,,,,,,,,,,,,,,,,,,,,,,,,,,
,,,,,,1,0,1,0,1,X V Q F H G B L J M P D K C T S W R N Z,5ea93d40fb690101aa21e97a,32,Kobieta,2022-06-11_09h30.57.608,task,2021.1.4,Linux x86_64,60.0060006,6299f149e92ead563fba08ef,62a4447017671de91027f922,,,,,,,,,,,,,,,,,,,,,,,,,,,,,,,,,,,,,,,,,,,,,,,,,,,,,,,,,,,,,,,,,,,,,,,,,,,,,,,,,,,,,,,,,,,,,,,,,,,,,
,,,,,,2,0,2,0,1,X V Q F H G B L J M P D K C T S W R N Z,5ea93d40fb690101aa21e97a,32,Kobieta,2022-06-11_09h30.57.608,task,2021.1.4,Linux x86_64,60.0060006,6299f149e92ead563fba08ef,62a4447017671de91027f922,,,,,,,,,,,,,,,,,,,,,,,,,,,,,,,,,,,,,,,,,,,,,,,,,,,,,,,,,,,,,,,,,,,,,,,,,,,,,,,,,,,,,,,,,,,,,,,,,,,,,
,,,,,,3,0,3,0,1,X V Q F H G B L J M P D K C T S W R N Z,5ea93d40fb690101aa21e97a,32,Kobieta,2022-06-11_09h30.57.608,task,2021.1.4,Linux x86_64,60.0060006,6299f149e92ead563fba08ef,62a4447017671de91027f922,,,,,,,,,,,,,,,,,,,,,,,,,,,,,,,,,,,,,,,,,,,,,,,,,,,,,,,,,,,,,,,,,,,,,,,,,,,,,,,,,,,,,,,,,,,,,,,,,,,,,
,,,,,,4,0,4,0,1,X V Q F H G B L J M P D K C T S W R N Z,5ea93d40fb690101aa21e97a,32,Kobieta,2022-06-11_09h30.57.608,task,2021.1.4,Linux x86_64,60.0060006,6299f149e92ead563fba08ef,62a4447017671de91027f922,,,,,,,,,,,,,,,,,,,,,,,,,,,,,,,,,,,,,,,,,,,,,,,,,,,,,,,,,,,,,,,,,,,,,,,,,,,,,,,,,,,,,,,,,,,,,,,,,,,,,
,,,,,,5,0,5,0,1,X V Q F H G B L J M P D K C T S W R N Z,5ea93d40fb690101aa21e97a,32,Kobieta,2022-06-11_09h30.57.608,task,2021.1.4,Linux x86_64,60.0060006,6299f149e92ead563fba08ef,62a4447017671de91027f922,,,,,,,,,,,,,,,,,,,,,,,,,,,,,,,,,,,,,,,,,,,,,,,,,,,,,,,,,,,,,,,,,,,,,,,,,,,,,,,,,,,,,,,,,,,,,,,,,,,,,
,,,,,,6,0,6,0,1,X V Q F H G B L J M P D K C T S W R N Z,5ea93d40fb690101aa21e97a,32,Kobieta,2022-06-11_09h30.57.608,task,2021.1.4,Linux x86_64,60.0060006,6299f149e92ead563fba08ef,62a4447017671de91027f922,,,,,,,,,,,,,,,,,,,,,,,,,,,,,,,,,,,,,,,,,,,,,,,,,,,,,,,,,,,,,,,,,,,,,,,,,,,,,,,,,,,,,,,,,,,,,,,,,,,,,
,,,,,,,,,,,,5ea93d40fb690101aa21e97a,32,Kobieta,2022-06-11_09h30.57.608,task,2021.1.4,Linux x86_64,60.0060006,6299f149e92ead563fba08ef,62a4447017671de91027f922,jksrgbr,"[""j"",""k"",""s"",""r"",""g"",""b"",""r""]","[1.2061999999880868,1.40119999998808,1.5976999999880945,1.9283999999761932,2.132499999999993,2.4641000000238478,2.684899999976153,3.0054999999999836]",1,JKSRGBR,12,0,12,0,1,,,,,,,,,,,,,,,,,,,,,,,,,,,,,,,,,,,,,,,,,,,,,,,,,,,,,,,,,,,,,,,,,,,,,,,,,,,,,,,,,,,,,,,,,,,
,,,,,,0,0,0,0,1,X V Q F H G B L J M P D K C T S W R N Z,5ea93d40fb690101aa21e97a,32,Kobieta,2022-06-11_09h30.57.608,task,2021.1.4,Linux x86_64,60.0060006,6299f149e92ead563fba08ef,62a4447017671de91027f922,,,,,,,,,,,,,,,,,,,,,,,,,,,,,,,,,,,,,,,,,,,,,,,,,,,,,,,,,,,,,,,,,,,,,,,,,,,,,,,,,,,,,,,,,,,,,,,,,,,,,
,,,,,,1,0,1,0,1,X V Q F H G B L J M P D K C T S W R N Z,5ea93d40fb690101aa21e97a,32,Kobieta,2022-06-11_09h30.57.608,task,2021.1.4,Linux x86_64,60.0060006,6299f149e92ead563fba08ef,62a4447017671de91027f922,,,,,,,,,,,,,,,,,,,,,,,,,,,,,,,,,,,,,,,,,,,,,,,,,,,,,,,,,,,,,,,,,,,,,,,,,,,,,,,,,,,,,,,,,,,,,,,,,,,,,
,,,,,,2,0,2,0,1,X V Q F H G B L J M P D K C T S W R N Z,5ea93d40fb690101aa21e97a,32,Kobieta,2022-06-11_09h30.57.608,task,2021.1.4,Linux x86_64,60.0060006,6299f149e92ead563fba08ef,62a4447017671de91027f922,,,,,,,,,,,,,,,,,,,,,,,,,,,,,,,,,,,,,,,,,,,,,,,,,,,,,,,,,,,,,,,,,,,,,,,,,,,,,,,,,,,,,,,,,,,,,,,,,,,,,
,,,,,,3,0,3,0,1,X V Q F H G B L J M P D K C T S W R N Z,5ea93d40fb690101aa21e97a,32,Kobieta,2022-06-11_09h30.57.608,task,2021.1.4,Linux x86_64,60.0060006,6299f149e92ead563fba08ef,62a4447017671de91027f922,,,,,,,,,,,,,,,,,,,,,,,,,,,,,,,,,,,,,,,,,,,,,,,,,,,,,,,,,,,,,,,,,,,,,,,,,,,,,,,,,,,,,,,,,,,,,,,,,,,,,
,,,,,,4,0,4,0,1,X V Q F H G B L J M P D K C T S W R N Z,5ea93d40fb690101aa21e97a,32,Kobieta,2022-06-11_09h30.57.608,task,2021.1.4,Linux x86_64,60.0060006,6299f149e92ead563fba08ef,62a4447017671de91027f922,,,,,,,,,,,,,,,,,,,,,,,,,,,,,,,,,,,,,,,,,,,,,,,,,,,,,,,,,,,,,,,,,,,,,,,,,,,,,,,,,,,,,,,,,,,,,,,,,,,,,
,,,,,,5,0,5,0,1,X V Q F H G B L J M P D K C T S W R N Z,5ea93d40fb690101aa21e97a,32,Kobieta,2022-06-11_09h30.57.608,task,2021.1.4,Linux x86_64,60.0060006,6299f149e92ead563fba08ef,62a4447017671de91027f922,,,,,,,,,,,,,,,,,,,,,,,,,,,,,,,,,,,,,,,,,,,,,,,,,,,,,,,,,,,,,,,,,,,,,,,,,,,,,,,,,,,,,,,,,,,,,,,,,,,,,
,,,,,,6,0,6,0,1,X V Q F H G B L J M P D K C T S W R N Z,5ea93d40fb690101aa21e97a,32,Kobieta,2022-06-11_09h30.57.608,task,2021.1.4,Linux x86_64,60.0060006,6299f149e92ead563fba08ef,62a4447017671de91027f922,,,,,,,,,,,,,,,,,,,,,,,,,,,,,,,,,,,,,,,,,,,,,,,,,,,,,,,,,,,,,,,,,,,,,,,,,,,,,,,,,,,,,,,,,,,,,,,,,,,,,
,,,,,,7,0,7,0,1,X V Q F H G B L J M P D K C T S W R N Z,5ea93d40fb690101aa21e97a,32,Kobieta,2022-06-11_09h30.57.608,task,2021.1.4,Linux x86_64,60.0060006,6299f149e92ead563fba08ef,62a4447017671de91027f922,,,,,,,,,,,,,,,,,,,,,,,,,,,,,,,,,,,,,,,,,,,,,,,,,,,,,,,,,,,,,,,,,,,,,,,,,,,,,,,,,,,,,,,,,,,,,,,,,,,,,
,,,,,,,,,,,,5ea93d40fb690101aa21e97a,32,Kobieta,2022-06-11_09h30.57.608,task,2021.1.4,Linux x86_64,60.0060006,6299f149e92ead563fba08ef,62a4447017671de91027f922,vfpglsvm,"[""v"",""f"",""p"",""g"",""l"",""s"",""v"",""m""]","[0.93569999998806,1.8120999999642322,2.1210999999642013,2.55680000001189,2.922599999964234,3.200499999999977,3.60919999998805,3.919499999999971,4.39109999996424]",1,VFPGLSVM,13,0,13,0,1,,,,,,,,,,,,,,,,,,,,,,,,,,,,,,,,,,,,,,,,,,,,,,,,,,,,,,,,,,,,,,,,,,,,,,,,,,,,,,,,,,,,,,,,,,,
,,,,,,0,0,0,0,1,X V Q F H G B L J M P D K C T S W R N Z,5ea93d40fb690101aa21e97a,32,Kobieta,2022-06-11_09h30.57.608,task,2021.1.4,Linux x86_64,60.0060006,6299f149e92ead563fba08ef,62a4447017671de91027f922,,,,,,,,,,,,,,,,,,,,,,,,,,,,,,,,,,,,,,,,,,,,,,,,,,,,,,,,,,,,,,,,,,,,,,,,,,,,,,,,,,,,,,,,,,,,,,,,,,,,,
,,,,,,1,0,1,0,1,X V Q F H G B L J M P D K C T S W R N Z,5ea93d40fb690101aa21e97a,32,Kobieta,2022-06-11_09h30.57.608,task,2021.1.4,Linux x86_64,60.0060006,6299f149e92ead563fba08ef,62a4447017671de91027f922,,,,,,,,,,,,,,,,,,,,,,,,,,,,,,,,,,,,,,,,,,,,,,,,,,,,,,,,,,,,,,,,,,,,,,,,,,,,,,,,,,,,,,,,,,,,,,,,,,,,,
,,,,,,2,0,2,0,1,X V Q F H G B L J M P D K C T S W R N Z,5ea93d40fb690101aa21e97a,32,Kobieta,2022-06-11_09h30.57.608,task,2021.1.4,Linux x86_64,60.0060006,6299f149e92ead563fba08ef,62a4447017671de91027f922,,,,,,,,,,,,,,,,,,,,,,,,,,,,,,,,,,,,,,,,,,,,,,,,,,,,,,,,,,,,,,,,,,,,,,,,,,,,,,,,,,,,,,,,,,,,,,,,,,,,,
,,,,,,3,0,3,0,1,X V Q F H G B L J M P D K C T S W R N Z,5ea93d40fb690101aa21e97a,32,Kobieta,2022-06-11_09h30.57.608,task,2021.1.4,Linux x86_64,60.0060006,6299f149e92ead563fba08ef,62a4447017671de91027f922,,,,,,,,,,,,,,,,,,,,,,,,,,,,,,,,,,,,,,,,,,,,,,,,,,,,,,,,,,,,,,,,,,,,,,,,,,,,,,,,,,,,,,,,,,,,,,,,,,,,,
,,,,,,4,0,4,0,1,X V Q F H G B L J M P D K C T S W R N Z,5ea93d40fb690101aa21e97a,32,Kobieta,2022-06-11_09h30.57.608,task,2021.1.4,Linux x86_64,60.0060006,6299f149e92ead563fba08ef,62a4447017671de91027f922,,,,,,,,,,,,,,,,,,,,,,,,,,,,,,,,,,,,,,,,,,,,,,,,,,,,,,,,,,,,,,,,,,,,,,,,,,,,,,,,,,,,,,,,,,,,,,,,,,,,,
,,,,,,5,0,5,0,1,X V Q F H G B L J M P D K C T S W R N Z,5ea93d40fb690101aa21e97a,32,Kobieta,2022-06-11_09h30.57.608,task,2021.1.4,Linux x86_64,60.0060006,6299f149e92ead563fba08ef,62a4447017671de91027f922,,,,,,,,,,,,,,,,,,,,,,,,,,,,,,,,,,,,,,,,,,,,,,,,,,,,,,,,,,,,,,,,,,,,,,,,,,,,,,,,,,,,,,,,,,,,,,,,,,,,,
,,,,,,6,0,6,0,1,X V Q F H G B L J M P D K C T S W R N Z,5ea93d40fb690101aa21e97a,32,Kobieta,2022-06-11_09h30.57.608,task,2021.1.4,Linux x86_64,60.0060006,6299f149e92ead563fba08ef,62a4447017671de91027f922,,,,,,,,,,,,,,,,,,,,,,,,,,,,,,,,,,,,,,,,,,,,,,,,,,,,,,,,,,,,,,,,,,,,,,,,,,,,,,,,,,,,,,,,,,,,,,,,,,,,,
,,,,,,7,0,7,0,1,X V Q F H G B L J M P D K C T S W R N Z,5ea93d40fb690101aa21e97a,32,Kobieta,2022-06-11_09h30.57.608,task,2021.1.4,Linux x86_64,60.0060006,6299f149e92ead563fba08ef,62a4447017671de91027f922,,,,,,,,,,,,,,,,,,,,,,,,,,,,,,,,,,,,,,,,,,,,,,,,,,,,,,,,,,,,,,,,,,,,,,,,,,,,,,,,,,,,,,,,,,,,,,,,,,,,,
,,,,,,,,,,,,5ea93d40fb690101aa21e97a,32,Kobieta,2022-06-11_09h30.57.608,task,2021.1.4,Linux x86_64,60.0060006,6299f149e92ead563fba08ef,62a4447017671de91027f922,bqdjhnwz,"[""b"",""q"",""d"",""j"",""h"",""n"",""w"",""z""]","[1.6863999999761745,1.9318999999761672,2.181500000000028,2.6059999999999945,2.9335000000000377,3.1933999999761795,3.853499999999997,4.122000000000014,5.593199999988087]",1,BQDJHNWZ,14,0,14,0,1,,,,,,,,,,,,,,,,,,,,,,,,,,,,,,,,,,,,,,,,,,,,,,,,,,,,,,,,,,,,,,,,,,,,,,,,,,,,,,,,,,,,,,,,,,,
,,,,,,0,0,0,0,1,X V Q F H G B L J M P D K C T S W R N Z,5ea93d40fb690101aa21e97a,32,Kobieta,2022-06-11_09h30.57.608,task,2021.1.4,Linux x86_64,60.0060006,6299f149e92ead563fba08ef,62a4447017671de91027f922,,,,,,,,,,,,,,,,,,,,,,,,,,,,,,,,,,,,,,,,,,,,,,,,,,,,,,,,,,,,,,,,,,,,,,,,,,,,,,,,,,,,,,,,,,,,,,,,,,,,,
,,,,,,1,0,1,0,1,X V Q F H G B L J M P D K C T S W R N Z,5ea93d40fb690101aa21e97a,32,Kobieta,2022-06-11_09h30.57.608,task,2021.1.4,Linux x86_64,60.0060006,6299f149e92ead563fba08ef,62a4447017671de91027f922,,,,,,,,,,,,,,,,,,,,,,,,,,,,,,,,,,,,,,,,,,,,,,,,,,,,,,,,,,,,,,,,,,,,,,,,,,,,,,,,,,,,,,,,,,,,,,,,,,,,,
,,,,,,2,0,2,0,1,X V Q F H G B L J M P D K C T S W R N Z,5ea93d40fb690101aa21e97a,32,Kobieta,2022-06-11_09h30.57.608,task,2021.1.4,Linux x86_64,60.0060006,6299f149e92ead563fba08ef,62a4447017671de91027f922,,,,,,,,,,,,,,,,,,,,,,,,,,,,,,,,,,,,,,,,,,,,,,,,,,,,,,,,,,,,,,,,,,,,,,,,,,,,,,,,,,,,,,,,,,,,,,,,,,,,,
,,,,,,3,0,3,0,1,X V Q F H G B L J M P D K C T S W R N Z,5ea93d40fb690101aa21e97a,32,Kobieta,2022-06-11_09h30.57.608,task,2021.1.4,Linux x86_64,60.0060006,6299f149e92ead563fba08ef,62a4447017671de91027f922,,,,,,,,,,,,,,,,,,,,,,,,,,,,,,,,,,,,,,,,,,,,,,,,,,,,,,,,,,,,,,,,,,,,,,,,,,,,,,,,,,,,,,,,,,,,,,,,,,,,,
,,,,,,4,0,4,0,1,X V Q F H G B L J M P D K C T S W R N Z,5ea93d40fb690101aa21e97a,32,Kobieta,2022-06-11_09h30.57.608,task,2021.1.4,Linux x86_64,60.0060006,6299f149e92ead563fba08ef,62a4447017671de91027f922,,,,,,,,,,,,,,,,,,,,,,,,,,,,,,,,,,,,,,,,,,,,,,,,,,,,,,,,,,,,,,,,,,,,,,,,,,,,,,,,,,,,,,,,,,,,,,,,,,,,,
,,,,,,5,0,5,0,1,X V Q F H G B L J M P D K C T S W R N Z,5ea93d40fb690101aa21e97a,32,Kobieta,2022-06-11_09h30.57.608,task,2021.1.4,Linux x86_64,60.0060006,6299f149e92ead563fba08ef,62a4447017671de91027f922,,,,,,,,,,,,,,,,,,,,,,,,,,,,,,,,,,,,,,,,,,,,,,,,,,,,,,,,,,,,,,,,,,,,,,,,,,,,,,,,,,,,,,,,,,,,,,,,,,,,,
,,,,,,6,0,6,0,1,X V Q F H G B L J M P D K C T S W R N Z,5ea93d40fb690101aa21e97a,32,Kobieta,2022-06-11_09h30.57.608,task,2021.1.4,Linux x86_64,60.0060006,6299f149e92ead563fba08ef,62a4447017671de91027f922,,,,,,,,,,,,,,,,,,,,,,,,,,,,,,,,,,,,,,,,,,,,,,,,,,,,,,,,,,,,,,,,,,,,,,,,,,,,,,,,,,,,,,,,,,,,,,,,,,,,,
,,,,,,7,0,7,0,1,X V Q F H G B L J M P D K C T S W R N Z,5ea93d40fb690101aa21e97a,32,Kobieta,2022-06-11_09h30.57.608,task,2021.1.4,Linux x86_64,60.0060006,6299f149e92ead563fba08ef,62a4447017671de91027f922,,,,,,,,,,,,,,,,,,,,,,,,,,,,,,,,,,,,,,,,,,,,,,,,,,,,,,,,,,,,,,,,,,,,,,,,,,,,,,,,,,,,,,,,,,,,,,,,,,,,,
,,,,,,8,0,8,0,1,X V Q F H G B L J M P D K C T S W R N Z,5ea93d40fb690101aa21e97a,32,Kobieta,2022-06-11_09h30.57.608,task,2021.1.4,Linux x86_64,60.0060006,6299f149e92ead563fba08ef,62a4447017671de91027f922,,,,,,,,,,,,,,,,,,,,,,,,,,,,,,,,,,,,,,,,,,,,,,,,,,,,,,,,,,,,,,,,,,,,,,,,,,,,,,,,,,,,,,,,,,,,,,,,,,,,,
,,,,,,,,,,,,5ea93d40fb690101aa21e97a,32,Kobieta,2022-06-11_09h30.57.608,task,2021.1.4,Linux x86_64,60.0060006,6299f149e92ead563fba08ef,62a4447017671de91027f922,pddpvzthg,"[""p"",""d"",""d"",""p"",""v"",""z"",""t"",""h"",""g""]","[1.1014000000357669,1.2011999999880345,1.3416999999880659,1.564199999988034,2.3249000000357682,2.789699999988045,3.396400000035726,3.6024000000357432,4.192800000011914,4.920100000023808]",0,PDDPHZTVG,15,0,15,0,1,,,,,,,,,,,,,,,,,,,,,,,,,,,,,,,,,,,,,,,,,,,,,,,,,,,,,,,,,,,,,,,,,,,,,,,,,,,,,,,,,,,,,,,,,,,
,,,,,,0,0,0,0,1,X V Q F H G B L J M P D K C T S W R N Z,5ea93d40fb690101aa21e97a,32,Kobieta,2022-06-11_09h30.57.608,task,2021.1.4,Linux x86_64,60.0060006,6299f149e92ead563fba08ef,62a4447017671de91027f922,,,,,,,,,,,,,,,,,,,,,,,,,,,,,,,,,,,,,,,,,,,,,,,,,,,,,,,,,,,,,,,,,,,,,,,,,,,,,,,,,,,,,,,,,,,,,,,,,,,,,
,,,,,,1,0,1,0,1,X V Q F H G B L J M P D K C T S W R N Z,5ea93d40fb690101aa21e97a,32,Kobieta,2022-06-11_09h30.57.608,task,2021.1.4,Linux x86_64,60.0060006,6299f149e92ead563fba08ef,62a4447017671de91027f922,,,,,,,,,,,,,,,,,,,,,,,,,,,,,,,,,,,,,,,,,,,,,,,,,,,,,,,,,,,,,,,,,,,,,,,,,,,,,,,,,,,,,,,,,,,,,,,,,,,,,
,,,,,,2,0,2,0,1,X V Q F H G B L J M P D K C T S W R N Z,5ea93d40fb690101aa21e97a,32,Kobieta,2022-06-11_09h30.57.608,task,2021.1.4,Linux x86_64,60.0060006,6299f149e92ead563fba08ef,62a4447017671de91027f922,,,,,,,,,,,,,,,,,,,,,,,,,,,,,,,,,,,,,,,,,,,,,,,,,,,,,,,,,,,,,,,,,,,,,,,,,,,,,,,,,,,,,,,,,,,,,,,,,,,,,
,,,,,,3,0,3,0,1,X V Q F H G B L J M P D K C T S W R N Z,5ea93d40fb690101aa21e97a,32,Kobieta,2022-06-11_09h30.57.608,task,2021.1.4,Linux x86_64,60.0060006,6299f149e92ead563fba08ef,62a4447017671de91027f922,,,,,,,,,,,,,,,,,,,,,,,,,,,,,,,,,,,,,,,,,,,,,,,,,,,,,,,,,,,,,,,,,,,,,,,,,,,,,,,,,,,,,,,,,,,,,,,,,,,,,
,,,,,,4,0,4,0,1,X V Q F H G B L J M P D K C T S W R N Z,5ea93d40fb690101aa21e97a,32,Kobieta,2022-06-11_09h30.57.608,task,2021.1.4,Linux x86_64,60.0060006,6299f149e92ead563fba08ef,62a4447017671de91027f922,,,,,,,,,,,,,,,,,,,,,,,,,,,,,,,,,,,,,,,,,,,,,,,,,,,,,,,,,,,,,,,,,,,,,,,,,,,,,,,,,,,,,,,,,,,,,,,,,,,,,
,,,,,,5,0,5,0,1,X V Q F H G B L J M P D K C T S W R N Z,5ea93d40fb690101aa21e97a,32,Kobieta,2022-06-11_09h30.57.608,task,2021.1.4,Linux x86_64,60.0060006,6299f149e92ead563fba08ef,62a4447017671de91027f922,,,,,,,,,,,,,,,,,,,,,,,,,,,,,,,,,,,,,,,,,,,,,,,,,,,,,,,,,,,,,,,,,,,,,,,,,,,,,,,,,,,,,,,,,,,,,,,,,,,,,
,,,,,,6,0,6,0,1,X V Q F H G B L J M P D K C T S W R N Z,5ea93d40fb690101aa21e97a,32,Kobieta,2022-06-11_09h30.57.608,task,2021.1.4,Linux x86_64,60.0060006,6299f149e92ead563fba08ef,62a4447017671de91027f922,,,,,,,,,,,,,,,,,,,,,,,,,,,,,,,,,,,,,,,,,,,,,,,,,,,,,,,,,,,,,,,,,,,,,,,,,,,,,,,,,,,,,,,,,,,,,,,,,,,,,
,,,,,,7,0,7,0,1,X V Q F H G B L J M P D K C T S W R N Z,5ea93d40fb690101aa21e97a,32,Kobieta,2022-06-11_09h30.57.608,task,2021.1.4,Linux x86_64,60.0060006,6299f149e92ead563fba08ef,62a4447017671de91027f922,,,,,,,,,,,,,,,,,,,,,,,,,,,,,,,,,,,,,,,,,,,,,,,,,,,,,,,,,,,,,,,,,,,,,,,,,,,,,,,,,,,,,,,,,,,,,,,,,,,,,
,,,,,,8,0,8,0,1,X V Q F H G B L J M P D K C T S W R N Z,5ea93d40fb690101aa21e97a,32,Kobieta,2022-06-11_09h30.57.608,task,2021.1.4,Linux x86_64,60.0060006,6299f149e92ead563fba08ef,62a4447017671de91027f922,,,,,,,,,,,,,,,,,,,,,,,,,,,,,,,,,,,,,,,,,,,,,,,,,,,,,,,,,,,,,,,,,,,,,,,,,,,,,,,,,,,,,,,,,,,,,,,,,,,,,
,,,,,,,,,,,,5ea93d40fb690101aa21e97a,32,Kobieta,2022-06-11_09h30.57.608,task,2021.1.4,Linux x86_64,60.0060006,6299f149e92ead563fba08ef,62a4447017671de91027f922,bxthqnqkw,"[""b"",""x"",""t"",""h"",""q"",""n"",""q"",""k"",""w""]","[1.0330999999642358,1.1975999999642113,1.3983999999761636,2.043699999988064,2.281000000000006,2.715499999999963,3.5070999999642254,4.535599999964234,4.691099999964251,5.523800000011931]",1,BXTHQNQKW,16,0,16,0,1,,,,,,,,,,,,,,,,,,,,,,,,,,,,,,,,,,,,,,,,,,,,,,,,,,,,,,,,,,,,,,,,,,,,,,,,,,,,,,,,,,,,,,,,,,,
,,,,,,0,0,0,0,1,X V Q F H G B L J M P D K C T S W R N Z,5ea93d40fb690101aa21e97a,32,Kobieta,2022-06-11_09h30.57.608,task,2021.1.4,Linux x86_64,60.0060006,6299f149e92ead563fba08ef,62a4447017671de91027f922,,,,,,,,,,,,,,,,,,,,,,,,,,,,,,,,,,,,,,,,,,,,,,,,,,,,,,,,,,,,,,,,,,,,,,,,,,,,,,,,,,,,,,,,,,,,,,,,,,,,,
,,,,,,1,0,1,0,1,X V Q F H G B L J M P D K C T S W R N Z,5ea93d40fb690101aa21e97a,32,Kobieta,2022-06-11_09h30.57.608,task,2021.1.4,Linux x86_64,60.0060006,6299f149e92ead563fba08ef,62a4447017671de91027f922,,,,,,,,,,,,,,,,,,,,,,,,,,,,,,,,,,,,,,,,,,,,,,,,,,,,,,,,,,,,,,,,,,,,,,,,,,,,,,,,,,,,,,,,,,,,,,,,,,,,,
,,,,,,2,0,2,0,1,X V Q F H G B L J M P D K C T S W R N Z,5ea93d40fb690101aa21e97a,32,Kobieta,2022-06-11_09h30.57.608,task,2021.1.4,Linux x86_64,60.0060006,6299f149e92ead563fba08ef,62a4447017671de91027f922,,,,,,,,,,,,,,,,,,,,,,,,,,,,,,,,,,,,,,,,,,,,,,,,,,,,,,,,,,,,,,,,,,,,,,,,,,,,,,,,,,,,,,,,,,,,,,,,,,,,,
,,,,,,3,0,3,0,1,X V Q F H G B L J M P D K C T S W R N Z,5ea93d40fb690101aa21e97a,32,Kobieta,2022-06-11_09h30.57.608,task,2021.1.4,Linux x86_64,60.0060006,6299f149e92ead563fba08ef,62a4447017671de91027f922,,,,,,,,,,,,,,,,,,,,,,,,,,,,,,,,,,,,,,,,,,,,,,,,,,,,,,,,,,,,,,,,,,,,,,,,,,,,,,,,,,,,,,,,,,,,,,,,,,,,,
,,,,,,4,0,4,0,1,X V Q F H G B L J M P D K C T S W R N Z,5ea93d40fb690101aa21e97a,32,Kobieta,2022-06-11_09h30.57.608,task,2021.1.4,Linux x86_64,60.0060006,6299f149e92ead563fba08ef,62a4447017671de91027f922,,,,,,,,,,,,,,,,,,,,,,,,,,,,,,,,,,,,,,,,,,,,,,,,,,,,,,,,,,,,,,,,,,,,,,,,,,,,,,,,,,,,,,,,,,,,,,,,,,,,,
,,,,,,5,0,5,0,1,X V Q F H G B L J M P D K C T S W R N Z,5ea93d40fb690101aa21e97a,32,Kobieta,2022-06-11_09h30.57.608,task,2021.1.4,Linux x86_64,60.0060006,6299f149e92ead563fba08ef,62a4447017671de91027f922,,,,,,,,,,,,,,,,,,,,,,,,,,,,,,,,,,,,,,,,,,,,,,,,,,,,,,,,,,,,,,,,,,,,,,,,,,,,,,,,,,,,,,,,,,,,,,,,,,,,,
,,,,,,6,0,6,0,1,X V Q F H G B L J M P D K C T S W R N Z,5ea93d40fb690101aa21e97a,32,Kobieta,2022-06-11_09h30.57.608,task,2021.1.4,Linux x86_64,60.0060006,6299f149e92ead563fba08ef,62a4447017671de91027f922,,,,,,,,,,,,,,,,,,,,,,,,,,,,,,,,,,,,,,,,,,,,,,,,,,,,,,,,,,,,,,,,,,,,,,,,,,,,,,,,,,,,,,,,,,,,,,,,,,,,,
,,,,,,7,0,7,0,1,X V Q F H G B L J M P D K C T S W R N Z,5ea93d40fb690101aa21e97a,32,Kobieta,2022-06-11_09h30.57.608,task,2021.1.4,Linux x86_64,60.0060006,6299f149e92ead563fba08ef,62a4447017671de91027f922,,,,,,,,,,,,,,,,,,,,,,,,,,,,,,,,,,,,,,,,,,,,,,,,,,,,,,,,,,,,,,,,,,,,,,,,,,,,,,,,,,,,,,,,,,,,,,,,,,,,,
,,,,,,8,0,8,0,1,X V Q F H G B L J M P D K C T S W R N Z,5ea93d40fb690101aa21e97a,32,Kobieta,2022-06-11_09h30.57.608,task,2021.1.4,Linux x86_64,60.0060006,6299f149e92ead563fba08ef,62a4447017671de91027f922,,,,,,,,,,,,,,,,,,,,,,,,,,,,,,,,,,,,,,,,,,,,,,,,,,,,,,,,,,,,,,,,,,,,,,,,,,,,,,,,,,,,,,,,,,,,,,,,,,,,,
,,,,,,,,,,,,5ea93d40fb690101aa21e97a,32,Kobieta,2022-06-11_09h30.57.608,task,2021.1.4,Linux x86_64,60.0060006,6299f149e92ead563fba08ef,62a4447017671de91027f922,xhfplzkhm,"[""x"",""h"",""f"",""p"",""l"",""z"",""k"",""h"",""m""]","[0.8633999999761386,1.349199999988116,1.664800000011951,2.773599999964233,2.9401999999880672,3.3890999999642304,3.8551999999880877,4.281099999964226,4.502199999988079,4.813599999964254]",0,XHFPLZKRM,17,0,17,0,1,,,,,,,,,,,,,,,,,,,,,,,,,,,,,,,,,,,,,,,,,,,,,,,,,,,,,,,,,,,,,,,,,,,,,,,,,,,,,,,,,,,,,,,,,,,
,,,,,,0,0,0,0,1,X V Q F H G B L J M P D K C T S W R N Z,5ea93d40fb690101aa21e97a,32,Kobieta,2022-06-11_09h30.57.608,task,2021.1.4,Linux x86_64,60.0060006,6299f149e92ead563fba08ef,62a4447017671de91027f922,,,,,,,,,,,,,,,,,,,,,,,,,,,,,,,,,,,,,,,,,,,,,,,,,,,,,,,,,,,,,,,,,,,,,,,,,,,,,,,,,,,,,,,,,,,,,,,,,,,,,
,,,,,,1,0,1,0,1,X V Q F H G B L J M P D K C T S W R N Z,5ea93d40fb690101aa21e97a,32,Kobieta,2022-06-11_09h30.57.608,task,2021.1.4,Linux x86_64,60.0060006,6299f149e92ead563fba08ef,62a4447017671de91027f922,,,,,,,,,,,,,,,,,,,,,,,,,,,,,,,,,,,,,,,,,,,,,,,,,,,,,,,,,,,,,,,,,,,,,,,,,,,,,,,,,,,,,,,,,,,,,,,,,,,,,
,,,,,,2,0,2,0,1,X V Q F H G B L J M P D K C T S W R N Z,5ea93d40fb690101aa21e97a,32,Kobieta,2022-06-11_09h30.57.608,task,2021.1.4,Linux x86_64,60.0060006,6299f149e92ead563fba08ef,62a4447017671de91027f922,,,,,,,,,,,,,,,,,,,,,,,,,,,,,,,,,,,,,,,,,,,,,,,,,,,,,,,,,,,,,,,,,,,,,,,,,,,,,,,,,,,,,,,,,,,,,,,,,,,,,
,,,,,,3,0,3,0,1,X V Q F H G B L J M P D K C T S W R N Z,5ea93d40fb690101aa21e97a,32,Kobieta,2022-06-11_09h30.57.608,task,2021.1.4,Linux x86_64,60.0060006,6299f149e92ead563fba08ef,62a4447017671de91027f922,,,,,,,,,,,,,,,,,,,,,,,,,,,,,,,,,,,,,,,,,,,,,,,,,,,,,,,,,,,,,,,,,,,,,,,,,,,,,,,,,,,,,,,,,,,,,,,,,,,,,
,,,,,,4,0,4,0,1,X V Q F H G B L J M P D K C T S W R N Z,5ea93d40fb690101aa21e97a,32,Kobieta,2022-06-11_09h30.57.608,task,2021.1.4,Linux x86_64,60.0060006,6299f149e92ead563fba08ef,62a4447017671de91027f922,,,,,,,,,,,,,,,,,,,,,,,,,,,,,,,,,,,,,,,,,,,,,,,,,,,,,,,,,,,,,,,,,,,,,,,,,,,,,,,,,,,,,,,,,,,,,,,,,,,,,
,,,,,,5,0,5,0,1,X V Q F H G B L J M P D K C T S W R N Z,5ea93d40fb690101aa21e97a,32,Kobieta,2022-06-11_09h30.57.608,task,2021.1.4,Linux x86_64,60.0060006,6299f149e92ead563fba08ef,62a4447017671de91027f922,,,,,,,,,,,,,,,,,,,,,,,,,,,,,,,,,,,,,,,,,,,,,,,,,,,,,,,,,,,,,,,,,,,,,,,,,,,,,,,,,,,,,,,,,,,,,,,,,,,,,
,,,,,,6,0,6,0,1,X V Q F H G B L J M P D K C T S W R N Z,5ea93d40fb690101aa21e97a,32,Kobieta,2022-06-11_09h30.57.608,task,2021.1.4,Linux x86_64,60.0060006,6299f149e92ead563fba08ef,62a4447017671de91027f922,,,,,,,,,,,,,,,,,,,,,,,,,,,,,,,,,,,,,,,,,,,,,,,,,,,,,,,,,,,,,,,,,,,,,,,,,,,,,,,,,,,,,,,,,,,,,,,,,,,,,
,,,,,,7,0,7,0,1,X V Q F H G B L J M P D K C T S W R N Z,5ea93d40fb690101aa21e97a,32,Kobieta,2022-06-11_09h30.57.608,task,2021.1.4,Linux x86_64,60.0060006,6299f149e92ead563fba08ef,62a4447017671de91027f922,,,,,,,,,,,,,,,,,,,,,,,,,,,,,,,,,,,,,,,,,,,,,,,,,,,,,,,,,,,,,,,,,,,,,,,,,,,,,,,,,,,,,,,,,,,,,,,,,,,,,
,,,,,,8,0,8,0,1,X V Q F H G B L J M P D K C T S W R N Z,5ea93d40fb690101aa21e97a,32,Kobieta,2022-06-11_09h30.57.608,task,2021.1.4,Linux x86_64,60.0060006,6299f149e92ead563fba08ef,62a4447017671de91027f922,,,,,,,,,,,,,,,,,,,,,,,,,,,,,,,,,,,,,,,,,,,,,,,,,,,,,,,,,,,,,,,,,,,,,,,,,,,,,,,,,,,,,,,,,,,,,,,,,,,,,
,,,,,,,,,,,,5ea93d40fb690101aa21e97a,32,Kobieta,2022-06-11_09h30.57.608,task,2021.1.4,Linux x86_64,60.0060006,6299f149e92ead563fba08ef,62a4447017671de91027f922,bwrfxrghv,"[""b"",""w"",""r"",""f"",""x"",""r"",""g"",""h"",""v""]","[1.211999999999989,1.3618999999761172,1.5923999999761236,2.0084999999999695,2.4812999999522845,2.8606999999880713,3.6811999999880527,4.684699999988084,4.815099999964218,5.527499999999975]",0,GWRFXRBHV,18,0,18,0,1,,,,,,,,,,,,,,,,,,,,,,,,,,,,,,,,,,,,,,,,,,,,,,,,,,,,,,,,,,,,,,,,,,,,,,,,,,,,,,,,,,,,,,,,,,,
,,,,,,,,,,,,5ea93d40fb690101aa21e97a,32,Kobieta,2022-06-11_09h30.57.608,task,2021.1.4,Linux x86_64,60.0060006,6299f149e92ead563fba08ef,62a4447017671de91027f922,,,,,,,,,,,space,14.4572,9,"[""9""]",1,[8.893799999952307],[8.893799999952307],0,0,0,9,1,Practice,10,(20/2) - 1,9,,,,,,,,,,,,,,,,,,,,,,,,,,,,,,,,,,,,,,,,,,,,,,,,,,,,,,,,,,,,,,,,,,,,,,,,,,,
,,,,,,,,,,,,5ea93d40fb690101aa21e97a,32,Kobieta,2022-06-11_09h30.57.608,task,2021.1.4,Linux x86_64,60.0060006,6299f149e92ead563fba08ef,62a4447017671de91027f922,,,,,,,,,,,,,3,"[""3""]",1,[3.855800000011925],"[8.893799999952307,3.855800000011925]",0,1,1,3,1,Practice,4,(8/4) + 1,3,,,,,,,,,,,,,,,,,,,,,,,,,,,,,,,,,,,,,,,,,,,,,,,,,,,,,,,,,,,,,,,,,,,,,,,,,,,
,,,,,,,,,,,,5ea93d40fb690101aa21e97a,32,Kobieta,2022-06-11_09h30.57.608,task,2021.1.4,Linux x86_64,60.0060006,6299f149e92ead563fba08ef,62a4447017671de91027f922,,,,,,,,,,,,,5,"[""5""]",1,[2.3679000000357746],"[8.893799999952307,3.855800000011925,2.3679000000357746]",0,2,2,5,1,Practice,6,(4/2) + 3,5,,,,,,,,,,,,,,,,,,,,,,,,,,,,,,,,,,,,,,,,,,,,,,,,,,,,,,,,,,,,,,,,,,,,,,,,,,,
,,,,,,,,,,,,5ea93d40fb690101aa21e97a,32,Kobieta,2022-06-11_09h30.57.608,task,2021.1.4,Linux x86_64,60.0060006,6299f149e92ead563fba08ef,62a4447017671de91027f922,,,,,,,,,,,,,0,"[""0""]",1,[3.3468000000119105],"[8.893799999952307,3.855800000011925,2.3679000000357746,3.3468000000119105]",0,3,3,0,1,Practice,1,(3x3) -  9,0,,,,,,,,,,,,,,,,,,,,,,,,,,,,,,,,,,,,,,,,,,,,,,,,,,,,,,,,,,,,,,,,,,,,,,,,,,,
,,,,,,,,,,,,5ea93d40fb690101aa21e97a,32,Kobieta,2022-06-11_09h30.57.608,task,2021.1.4,Linux x86_64,60.0060006,6299f149e92ead563fba08ef,62a4447017671de91027f922,,,,,,,,,,,,,2,"[""2""]",1,[2.599300000011965],"[8.893799999952307,3.855800000011925,2.3679000000357746,3.3468000000119105,2.599300000011965]",0,4,4,2,1,Practice,3,(4x4) - 14,2,,,,,,,,,,,,,,,,,,,,,,,,,,,,,,,,,,,,,,,,,,,,,,,,,,,,,,,,,,,,,,,,,,,,,,,,,,,
,,,,,,,,,,,,5ea93d40fb690101aa21e97a,32,Kobieta,2022-06-11_09h30.57.608,task,2021.1.4,Linux x86_64,60.0060006,6299f149e92ead563fba08ef,62a4447017671de91027f922,,,,,,,,,,,,,1,"[""1""]",1,[2.0317000000476924],"[8.893799999952307,3.855800000011925,2.3679000000357746,3.3468000000119105,2.599300000011965,2.0317000000476924]",0,5,5,1,1,Practice,2,(4x4) - 15,1,,,,,,,,,,,,,,,,,,,,,,,,,,,,,,,,,,,,,,,,,,,,,,,,,,,,,,,,,,,,,,,,,,,,,,,,,,,
,,,,,,,,,,,,5ea93d40fb690101aa21e97a,32,Kobieta,2022-06-11_09h30.57.608,task,2021.1.4,Linux x86_64,60.0060006,6299f149e92ead563fba08ef,62a4447017671de91027f922,,,,,,,,,,,,,6,"[""6""]",1,[2.3891999999880795],"[8.893799999952307,3.855800000011925,2.3679000000357746,3.3468000000119105,2.599300000011965,2.0317000000476924,2.3891999999880795]",0,6,6,6,1,Practice,7,(25/5) + 1,6,,,,,,,,,,,,,,,,,,,,,,,,,,,,,,,,,,,,,,,,,,,,,,,,,,,,,,,,,,,,,,,,,,,,,,,,,,,
,,,,,,,,,,,,5ea93d40fb690101aa21e97a,32,Kobieta,2022-06-11_09h30.57.608,task,2021.1.4,Linux x86_64,60.0060006,6299f149e92ead563fba08ef,62a4447017671de91027f922,,,,,,,,,,,,,7,"[""7""]",1,[2.6140000000000327],"[8.893799999952307,3.855800000011925,2.3679000000357746,3.3468000000119105,2.599300000011965,2.0317000000476924,2.3891999999880795,2.6140000000000327]",0,7,7,7,1,Practice,8,(5x5) - 18,7,,,,,,,,,,,,,,,,,,,,,,,,,,,,,,,,,,,,,,,,,,,,,,,,,,,,,,,,,,,,,,,,,,,,,,,,,,,
,,,,,,,,,,,,5ea93d40fb690101aa21e97a,32,Kobieta,2022-06-11_09h30.57.608,task,2021.1.4,Linux x86_64,60.0060006,6299f149e92ead563fba08ef,62a4447017671de91027f922,,,,,,,,,,,,,8,"[""8""]",1,[1.7586000000238755],"[8.893799999952307,3.855800000011925,2.3679000000357746,3.3468000000119105,2.599300000011965,2.0317000000476924,2.3891999999880795,2.6140000000000327,1.7586000000238755]",0,8,8,8,1,Practice,9,(3x3) - 1,8,,,,,,,,,,,,,,,,,,,,,,,,,,,,,,,,,,,,,,,,,,,,,,,,,,,,,,,,,,,,,,,,,,,,,,,,,,,
,,,,,,,,,,,,5ea93d40fb690101aa21e97a,32,Kobieta,2022-06-11_09h30.57.608,task,2021.1.4,Linux x86_64,60.0060006,6299f149e92ead563fba08ef,62a4447017671de91027f922,,,,,,,,,,,,,4,"[""4""]",1,[2.0993999999761286],"[8.893799999952307,3.855800000011925,2.3679000000357746,3.3468000000119105,2.599300000011965,2.0317000000476924,2.3891999999880795,2.6140000000000327,1.7586000000238755,2.0993999999761286]",0,9,9,4,1,Practice,5,(2x6) - 8,4,,,,,,,,,,,,,,,,,,,,,,,,,,,,,,,,,,,,,,,,,,,,,,,,,,,,,,,,,,,,,,,,,,,,,,,,,,,
,,,,,,,,,,,,5ea93d40fb690101aa21e97a,32,Kobieta,2022-06-11_09h30.57.608,task,2021.1.4,Linux x86_64,60.0060006,6299f149e92ead563fba08ef,62a4447017671de91027f922,,,,,,,,,,,,,,,,,,,,,,,,,,,1,31.9565,2.130433333,50.92556131,1.842562732,6.884245182,space,11.057,0,0,0,0,1,,,,,,,,,,,,,,,,,,,,,,,,,,,,,,,,,,,,,,,,,,,,,,,,,,,,,,,,,,,,,,
,,,,,,,,,,,,5ea93d40fb690101aa21e97a,32,Kobieta,2022-06-11_09h30.57.608,task,2021.1.4,Linux x86_64,60.0060006,6299f149e92ead563fba08ef,62a4447017671de91027f922,,,,,,,,,,,,,2,,,,,,,,,,Practice,3,(4x4) - 14,2,,,,,,,,,,,,,,space,20.0665,"[""2""]",1,[2.2913000000119155],1,0,0,0,2,1,,,,,,,,,,,,,,,,,,,,,,,,,,,,,,,,,,,,,,,,,,,,,,,,,,,
,,,,,,,,,,,X V Q F H G B L J M P D K C T S W R N Z,5ea93d40fb690101aa21e97a,32,Kobieta,2022-06-11_09h30.57.608,task,2021.1.4,Linux x86_64,60.0060006,6299f149e92ead563fba08ef,62a4447017671de91027f922,,,,,,,,,,,,,,,,,,,,,,,,,,,,,,,,,,,,,,,,,,,,,,,,,,,0,0,0,0,1,,,,,,,,,,,,,,,,,,,,,,,,,,,,,,,,,,,,,,,,,,,,,,
,,,,,,,,,,,,5ea93d40fb690101aa21e97a,32,Kobieta,2022-06-11_09h30.57.608,task,2021.1.4,Linux x86_64,60.0060006,6299f149e92ead563fba08ef,62a4447017671de91027f922,,,,,,,,,,,,,9,,,,,,,,,,Practice,10,(20/2) - 1,9,,,,,,,,,,,,,,,,"[""9""]",1,[1.9110999999642218],1,0,0,0,9,1,,,,,,,,,,,,,,,,,,,,,,,,,,,,,,,,,,,,,,,,,,,,,,,,,,,
,,,,,,,,,,,X V Q F H G B L J M P D K C T S W R N Z,5ea93d40fb690101aa21e97a,32,Kobieta,2022-06-11_09h30.57.608,task,2021.1.4,Linux x86_64,60.0060006,6299f149e92ead563fba08ef,62a4447017671de91027f922,,,,,,,,,,,,,,,,,,,,,,,,,,,,,,,,,,,,,,,,,,,,,,,,,,,1,0,1,0,1,,,,,,,,,,,,,,,,,,,,,,,,,,,,,,,,,,,,,,,,,,,,,,
,,,,,,,,,,,,5ea93d40fb690101aa21e97a,32,Kobieta,2022-06-11_09h30.57.608,task,2021.1.4,Linux x86_64,60.0060006,6299f149e92ead563fba08ef,62a4447017671de91027f922,,,,,,,,,,,,,,,,,,,,,,,,,,,,,,,,,,,,,,,,,,,,,,,,,,,,,,,,zv,"[""z"",""v""]",0,"[2.207499999999982,2.6997999999522904,4.365599999964218]",1,0,0,0,0,1,,,,,,,,,,,,,,,,,,,,,,,,,,,,,,,,,,,,
,,,,,,,,,,,,5ea93d40fb690101aa21e97a,32,Kobieta,2022-06-11_09h30.57.608,task,2021.1.4,Linux x86_64,60.0060006,6299f149e92ead563fba08ef,62a4447017671de91027f922,,,,,,,,,,,,,1,,,,,,,,,,Practice,2,(4x4) - 15,1,,,,,,,,,,,,,,,,"[""1""]",1,[2.0323999999761213],1,0,0,0,1,1,,,,,,,,,,,,,,,,,,,,,,,,,,,,,,,,,,,,,,,,,,,,,,,,,,,
,,,,,,,,,,,X V Q F H G B L J M P D K C T S W R N Z,5ea93d40fb690101aa21e97a,32,Kobieta,2022-06-11_09h30.57.608,task,2021.1.4,Linux x86_64,60.0060006,6299f149e92ead563fba08ef,62a4447017671de91027f922,,,,,,,,,,,,,,,,,,,,,,,,,,,,,,,,,,,,,,,,,,,,,,,,,,,0,0,0,0,1,,,,,,,,,,,,,,,,,,,,,,,,,,,,,,,,,,,,,,,,,,,,,,
,,,,,,,,,,,,5ea93d40fb690101aa21e97a,32,Kobieta,2022-06-11_09h30.57.608,task,2021.1.4,Linux x86_64,60.0060006,6299f149e92ead563fba08ef,62a4447017671de91027f922,,,,,,,,,,,,,2,,,,,,,,,,Practice,3,(4x4) - 14,2,,,,,,,,,,,,,,,,"[""2""]",1,[1.3846999999880722],1,0,0,0,2,1,,,,,,,,,,,,,,,,,,,,,,,,,,,,,,,,,,,,,,,,,,,,,,,,,,,
,,,,,,,,,,,X V Q F H G B L J M P D K C T S W R N Z,5ea93d40fb690101aa21e97a,32,Kobieta,2022-06-11_09h30.57.608,task,2021.1.4,Linux x86_64,60.0060006,6299f149e92ead563fba08ef,62a4447017671de91027f922,,,,,,,,,,,,,,,,,,,,,,,,,,,,,,,,,,,,,,,,,,,,,,,,,,,1,0,1,0,1,,,,,,,,,,,,,,,,,,,,,,,,,,,,,,,,,,,,,,,,,,,,,,
,,,,,,,,,,,,5ea93d40fb690101aa21e97a,32,Kobieta,2022-06-11_09h30.57.608,task,2021.1.4,Linux x86_64,60.0060006,6299f149e92ead563fba08ef,62a4447017671de91027f922,,,,,,,,,,,,,,,,,,,,,,,,,,,,,,,,,,,,,,,,,,,,,,,,,,,,,,,,gh,"[""g"",""h""]",0,"[2.0618000000118855,2.1268999999761604,2.8988000000118745]",1,1,0,1,0,1,,,,,,,,,,,,,,,,,,,,,,,,,,,,,,,,,,,,
,,,,,,,,,,,,5ea93d40fb690101aa21e97a,32,Kobieta,2022-06-11_09h30.57.608,task,2021.1.4,Linux x86_64,60.0060006,6299f149e92ead563fba08ef,62a4447017671de91027f922,,,,,,,,,,,,,3,,,,,,,,,,Practice,4,(8/4) + 1,3,,,,,,,,,,,,,,,,"[""3""]",1,[4.510499999999979],1,0,0,0,3,1,,,,,,,,,,,,,,,,,,,,,,,,,,,,,,,,,,,,,,,,,,,,,,,,,,,
,,,,,,,,,,,X V Q F H G B L J M P D K C T S W R N Z,5ea93d40fb690101aa21e97a,32,Kobieta,2022-06-11_09h30.57.608,task,2021.1.4,Linux x86_64,60.0060006,6299f149e92ead563fba08ef,62a4447017671de91027f922,,,,,,,,,,,,,,,,,,,,,,,,,,,,,,,,,,,,,,,,,,,,,,,,,,,0,0,0,0,1,,,,,,,,,,,,,,,,,,,,,,,,,,,,,,,,,,,,,,,,,,,,,,
,,,,,,,,,,,,5ea93d40fb690101aa21e97a,32,Kobieta,2022-06-11_09h30.57.608,task,2021.1.4,Linux x86_64,60.0060006,6299f149e92ead563fba08ef,62a4447017671de91027f922,,,,,,,,,,,,,3,,,,,,,,,,Practice,4,(8/4) + 1,3,,,,,,,,,,,,,,,,"[""3""]",1,[3.37470000004771],1,0,0,0,3,1,,,,,,,,,,,,,,,,,,,,,,,,,,,,,,,,,,,,,,,,,,,,,,,,,,,
,,,,,,,,,,,X V Q F H G B L J M P D K C T S W R N Z,5ea93d40fb690101aa21e97a,32,Kobieta,2022-06-11_09h30.57.608,task,2021.1.4,Linux x86_64,60.0060006,6299f149e92ead563fba08ef,62a4447017671de91027f922,,,,,,,,,,,,,,,,,,,,,,,,,,,,,,,,,,,,,,,,,,,,,,,,,,,1,0,1,0,1,,,,,,,,,,,,,,,,,,,,,,,,,,,,,,,,,,,,,,,,,,,,,,
,,,,,,,,,,,,5ea93d40fb690101aa21e97a,32,Kobieta,2022-06-11_09h30.57.608,task,2021.1.4,Linux x86_64,60.0060006,6299f149e92ead563fba08ef,62a4447017671de91027f922,,,,,,,,,,,,,,,,,,,,,,,,,,,,,,,,,,,,,,,,,,,,,,,,,,,,,,,,rt,"[""r"",""t""]",0,"[1.7610999999642445,1.8457999999523054,2.5093999999761536]",1,2,0,2,0,1,,,,,,,,,,,,,,,,,,,,,,,,,,,,,,,,,,,,
,,,,,,,,,,,,5ea93d40fb690101aa21e97a,32,Kobieta,2022-06-11_09h30.57.608,task,2021.1.4,Linux x86_64,60.0060006,6299f149e92ead563fba08ef,62a4447017671de91027f922,,,,,,,,,,,,,6,,,,,,,,,,Task,30,(6/3) + 4 ,6,,,,,,,,,,,,,,,,,,,1,,,,,,,,,,,,,,,,,,,,,space,16.1607,"[""6""]",1,[5.207800000011844],0,0,0,29,1,,,,,,,,,,,,,,,,,,,,,,,,,,
,,,,,,,,,,,X V Q F H G B L J M P D K C T S W R N Z,5ea93d40fb690101aa21e97a,32,Kobieta,2022-06-11_09h30.57.608,task,2021.1.4,Linux x86_64,60.0060006,6299f149e92ead563fba08ef,62a4447017671de91027f922,,,,,,,,,,,,,,,,,,,,,,,,,,,,,,,,,,,,,,,,,,,,,,,,,,,,,,,,,,,,,,,,,,,,,,,,,,,,0,0,0,0,1,,,,,,,,,,,,,,,,,,,,,
,,,,,,,,,,,,5ea93d40fb690101aa21e97a,32,Kobieta,2022-06-11_09h30.57.608,task,2021.1.4,Linux x86_64,60.0060006,6299f149e92ead563fba08ef,62a4447017671de91027f922,,,,,,,,,,,,,3,,,,,,,,,,Task,3,(2x3) - 3,3,,,,,,,,,,,,,,,,,,,1,,,,,,,,,,,,,,,,,,,,,,,"[""3""]",1,[2.4441999999880863],0,0,0,2,1,,,,,,,,,,,,,,,,,,,,,,,,,,
,,,,,,,,,,,X V Q F H G B L J M P D K C T S W R N Z,5ea93d40fb690101aa21e97a,32,Kobieta,2022-06-11_09h30.57.608,task,2021.1.4,Linux x86_64,60.0060006,6299f149e92ead563fba08ef,62a4447017671de91027f922,,,,,,,,,,,,,,,,,,,,,,,,,,,,,,,,,,,,,,,,,,,,,,,,,,,,,,,,,,,,,,,,,,,,,,,,,,,,1,0,1,0,1,,,,,,,,,,,,,,,,,,,,,
,,,,,,,,,,,,5ea93d40fb690101aa21e97a,32,Kobieta,2022-06-11_09h30.57.608,task,2021.1.4,Linux x86_64,60.0060006,6299f149e92ead563fba08ef,62a4447017671de91027f922,,,,,,,,,,,,,,,,,,,,,,,,,,,,,,,,,,,,,,,,,,,,,,,,,,,,,,,,,,,,,,,,,,,,,,,,,,,,,,,,,zf,"[""z"",""f""]",0,"[1.8113999999761745,2.0963999999762564,11.171199999988175]",1,ZF,0,0,0,0,1,,,,,,,,,,
,,,,,,,,,,,,5ea93d40fb690101aa21e97a,32,Kobieta,2022-06-11_09h30.57.608,task,2021.1.4,Linux x86_64,60.0060006,6299f149e92ead563fba08ef,62a4447017671de91027f922,,,,,,,,,,,,,5,,,,,,,,,,Task,36,(8/4) + 3,5,,,,,,,,,,,,,,,,,,,1,,,,,,,,,,,,,,,,,,,,,,,"[""5""]",1,[2.414699999988102],0,0,0,35,1,,,,,,,,,,,,,,,,,,,,,,,,,,
,,,,,,,,,,,X V Q F H G B L J M P D K C T S W R N Z,5ea93d40fb690101aa21e97a,32,Kobieta,2022-06-11_09h30.57.608,task,2021.1.4,Linux x86_64,60.0060006,6299f149e92ead563fba08ef,62a4447017671de91027f922,,,,,,,,,,,,,,,,,,,,,,,,,,,,,,,,,,,,,,,,,,,,,,,,,,,,,,,,,,,,,,,,,,,,,,,,,,,,0,0,0,0,1,,,,,,,,,,,,,,,,,,,,,
,,,,,,,,,,,,5ea93d40fb690101aa21e97a,32,Kobieta,2022-06-11_09h30.57.608,task,2021.1.4,Linux x86_64,60.0060006,6299f149e92ead563fba08ef,62a4447017671de91027f922,,,,,,,,,,,,,,,,,,,,,,,Task,16,(3x8) - 15,9,,,,,,,,,,,,,,,,,,,0,,,,,,,,,,,,,,,,,,,,,,,,0,,0,0,0,15,1,,,,,,,,,,,,,,,,,,,,,,,,,,
,,,,,,,,,,,,5ea93d40fb690101aa21e97a,32,Kobieta,2022-06-11_09h30.57.608,task,2021.1.4,Linux x86_64,60.0060006,6299f149e92ead563fba08ef,62a4447017671de91027f922,,,,,,,,,,,,,5,,,,,,,,,,Task,36,(8/4) + 3,5,,,,,,,,,,,,,,,,,,,1,,,,,,,,,,,,,,,,,,,,,,,"[""5""]",1,[2.1484000000357355],0,1,1,35,1,,,,,,,,,,,,,,,,,,,,,,,,,,
,,,,,,,,,,,X V Q F H G B L J M P D K C T S W R N Z,5ea93d40fb690101aa21e97a,32,Kobieta,2022-06-11_09h30.57.608,task,2021.1.4,Linux x86_64,60.0060006,6299f149e92ead563fba08ef,62a4447017671de91027f922,,,,,,,,,,,,,,,,,,,,,,,,,,,,,,,,,,,,,,,,,,,,,,,,,,,,,,,,,,,,,,,,,,,,,,,,,,,,1,0,1,0,1,,,,,,,,,,,,,,,,,,,,,
,,,,,,,,,,,,5ea93d40fb690101aa21e97a,32,Kobieta,2022-06-11_09h30.57.608,task,2021.1.4,Linux x86_64,60.0060006,6299f149e92ead563fba08ef,62a4447017671de91027f922,,,,,,,,,,,,,0,,,,,,,,,,Task,17,(2x3) - 6,0,,,,,,,,,,,,,,,,,,,1,,,,,,,,,,,,,,,,,,,,,,,"[""0""]",1,[2.015300000011962],0,0,0,16,1,,,,,,,,,,,,,,,,,,,,,,,,,,
,,,,,,,,,,,X V Q F H G B L J M P D K C T S W R N Z,5ea93d40fb690101aa21e97a,32,Kobieta,2022-06-11_09h30.57.608,task,2021.1.4,Linux x86_64,60.0060006,6299f149e92ead563fba08ef,62a4447017671de91027f922,,,,,,,,,,,,,,,,,,,,,,,,,,,,,,,,,,,,,,,,,,,,,,,,,,,,,,,,,,,,,,,,,,,,,,,,,,,,2,0,2,0,1,,,,,,,,,,,,,,,,,,,,,
,,,,,,,,,,,,5ea93d40fb690101aa21e97a,32,Kobieta,2022-06-11_09h30.57.608,task,2021.1.4,Linux x86_64,60.0060006,6299f149e92ead563fba08ef,62a4447017671de91027f922,,,,,,,,,,,,,,,,,,,,,,,,,,,,,,,,,,,,,,,,,,,,,,,,,,,,,,,,,,,,,,,,,,,,,,,,,,,,,,,,,mr,"[""m"",""r""]",0,"[1.3586000000237846,1.748600000023771,2.325199999988058]",0,WMR,1,0,1,0,1,,,,,,,,,,
,,,,,,,,,,,,5ea93d40fb690101aa21e97a,32,Kobieta,2022-06-11_09h30.57.608,task,2021.1.4,Linux x86_64,60.0060006,6299f149e92ead563fba08ef,62a4447017671de91027f922,,,,,,,,,,,,,5,,,,,,,,,,Task,22,(3x1) + 2,5,,,,,,,,,,,,,,,,,,,1,,,,,,,,,,,,,,,,,,,,,,,"[""5""]",1,[2.266499999999951],0,0,0,21,1,,,,,,,,,,,,,,,,,,,,,,,,,,
,,,,,,,,,,,X V Q F H G B L J M P D K C T S W R N Z,5ea93d40fb690101aa21e97a,32,Kobieta,2022-06-11_09h30.57.608,task,2021.1.4,Linux x86_64,60.0060006,6299f149e92ead563fba08ef,62a4447017671de91027f922,,,,,,,,,,,,,,,,,,,,,,,,,,,,,,,,,,,,,,,,,,,,,,,,,,,,,,,,,,,,,,,,,,,,,,,,,,,,0,0,0,0,1,,,,,,,,,,,,,,,,,,,,,
,,,,,,,,,,,,5ea93d40fb690101aa21e97a,32,Kobieta,2022-06-11_09h30.57.608,task,2021.1.4,Linux x86_64,60.0060006,6299f149e92ead563fba08ef,62a4447017671de91027f922,,,,,,,,,,,,,3,,,,,,,,,,Task,3,(2x3) - 3,3,,,,,,,,,,,,,,,,,,,1,,,,,,,,,,,,,,,,,,,,,,,"[""3""]",1,[2.84230000001196],0,0,0,2,1,,,,,,,,,,,,,,,,,,,,,,,,,,
,,,,,,,,,,,X V Q F H G B L J M P D K C T S W R N Z,5ea93d40fb690101aa21e97a,32,Kobieta,2022-06-11_09h30.57.608,task,2021.1.4,Linux x86_64,60.0060006,6299f149e92ead563fba08ef,62a4447017671de91027f922,,,,,,,,,,,,,,,,,,,,,,,,,,,,,,,,,,,,,,,,,,,,,,,,,,,,,,,,,,,,,,,,,,,,,,,,,,,,1,0,1,0,1,,,,,,,,,,,,,,,,,,,,,
,,,,,,,,,,,,5ea93d40fb690101aa21e97a,32,Kobieta,2022-06-11_09h30.57.608,task,2021.1.4,Linux x86_64,60.0060006,6299f149e92ead563fba08ef,62a4447017671de91027f922,,,,,,,,,,,,,2,,,,,,,,,,Task,26,(2x9) - 16,2,,,,,,,,,,,,,,,,,,,1,,,,,,,,,,,,,,,,,,,,,,,"[""2""]",1,[2.260499999999979],0,0,0,25,1,,,,,,,,,,,,,,,,,,,,,,,,,,
,,,,,,,,,,,X V Q F H G B L J M P D K C T S W R N Z,5ea93d40fb690101aa21e97a,32,Kobieta,2022-06-11_09h30.57.608,task,2021.1.4,Linux x86_64,60.0060006,6299f149e92ead563fba08ef,62a4447017671de91027f922,,,,,,,,,,,,,,,,,,,,,,,,,,,,,,,,,,,,,,,,,,,,,,,,,,,,,,,,,,,,,,,,,,,,,,,,,,,,2,0,2,0,1,,,,,,,,,,,,,,,,,,,,,
,,,,,,,,,,,,5ea93d40fb690101aa21e97a,32,Kobieta,2022-06-11_09h30.57.608,task,2021.1.4,Linux x86_64,60.0060006,6299f149e92ead563fba08ef,62a4447017671de91027f922,,,,,,,,,,,,,,,,,,,,,,,,,,,,,,,,,,,,,,,,,,,,,,,,,,,,,,,,,,,,,,,,,,,,,,,,,,,,,,,,,vxs,"[""v"",""x"",""s""]",0,"[1.8353999999760617,2.0939999999999372,2.3116999999880363,3.6331000000237736]",1,VXS,2,0,2,0,1,,,,,,,,,,
,,,,,,,,,,,,5ea93d40fb690101aa21e97a,32,Kobieta,2022-06-11_09h30.57.608,task,2021.1.4,Linux x86_64,60.0060006,6299f149e92ead563fba08ef,62a4447017671de91027f922,,,,,,,,,,,,,5,,,,,,,,,,Task,12,(4x4) - 11,5,,,,,,,,,,,,,,,,,,,1,,,,,,,,,,,,,,,,,,,,,,,"[""5""]",1,[2.232400000035682],0,0,0,11,1,,,,,,,,,,,,,,,,,,,,,,,,,,
,,,,,,,,,,,X V Q F H G B L J M P D K C T S W R N Z,5ea93d40fb690101aa21e97a,32,Kobieta,2022-06-11_09h30.57.608,task,2021.1.4,Linux x86_64,60.0060006,6299f149e92ead563fba08ef,62a4447017671de91027f922,,,,,,,,,,,,,,,,,,,,,,,,,,,,,,,,,,,,,,,,,,,,,,,,,,,,,,,,,,,,,,,,,,,,,,,,,,,,0,0,0,0,1,,,,,,,,,,,,,,,,,,,,,
,,,,,,,,,,,,5ea93d40fb690101aa21e97a,32,Kobieta,2022-06-11_09h30.57.608,task,2021.1.4,Linux x86_64,60.0060006,6299f149e92ead563fba08ef,62a4447017671de91027f922,,,,,,,,,,,,,6,,,,,,,,,,Task,15,(3x7) - 13,8,,,,,,,,,,,,,,,,,,,0,,,,,,,,,,,,,,,,,,,,,,,"[""6""]",0,[3.8523999999761145],0,0,0,14,1,,,,,,,,,,,,,,,,,,,,,,,,,,
,,,,,,,,,,,,5ea93d40fb690101aa21e97a,32,Kobieta,2022-06-11_09h30.57.608,task,2021.1.4,Linux x86_64,60.0060006,6299f149e92ead563fba08ef,62a4447017671de91027f922,,,,,,,,,,,,,2,,,,,,,,,,Task,19,(6/2) - 1,2,,,,,,,,,,,,,,,,,,,1,,,,,,,,,,,,,,,,,,,,,,,"[""2""]",1,[3.136899999976208],0,1,1,18,1,,,,,,,,,,,,,,,,,,,,,,,,,,
,,,,,,,,,,,X V Q F H G B L J M P D K C T S W R N Z,5ea93d40fb690101aa21e97a,32,Kobieta,2022-06-11_09h30.57.608,task,2021.1.4,Linux x86_64,60.0060006,6299f149e92ead563fba08ef,62a4447017671de91027f922,,,,,,,,,,,,,,,,,,,,,,,,,,,,,,,,,,,,,,,,,,,,,,,,,,,,,,,,,,,,,,,,,,,,,,,,,,,,1,0,1,0,1,,,,,,,,,,,,,,,,,,,,,
,,,,,,,,,,,,5ea93d40fb690101aa21e97a,32,Kobieta,2022-06-11_09h30.57.608,task,2021.1.4,Linux x86_64,60.0060006,6299f149e92ead563fba08ef,62a4447017671de91027f922,,,,,,,,,,,,,3,,,,,,,,,,Task,25,(10/5) - 2,0,,,,,,,,,,,,,,,,,,,0,,,,,,,,,,,,,,,,,,,,,,,"[""3""]",0,[1.664800000011951],0,0,0,24,1,,,,,,,,,,,,,,,,,,,,,,,,,,
,,,,,,,,,,,,5ea93d40fb690101aa21e97a,32,Kobieta,2022-06-11_09h30.57.608,task,2021.1.4,Linux x86_64,60.0060006,6299f149e92ead563fba08ef,62a4447017671de91027f922,,,,,,,,,,,,,7,,,,,,,,,,Task,14,(2x2) + 3,7,,,,,,,,,,,,,,,,,,,1,,,,,,,,,,,,,,,,,,,,,,,"[""7""]",1,[4.281000000000063],0,1,1,13,1,,,,,,,,,,,,,,,,,,,,,,,,,,
,,,,,,,,,,,X V Q F H G B L J M P D K C T S W R N Z,5ea93d40fb690101aa21e97a,32,Kobieta,2022-06-11_09h30.57.608,task,2021.1.4,Linux x86_64,60.0060006,6299f149e92ead563fba08ef,62a4447017671de91027f922,,,,,,,,,,,,,,,,,,,,,,,,,,,,,,,,,,,,,,,,,,,,,,,,,,,,,,,,,,,,,,,,,,,,,,,,,,,,2,0,2,0,1,,,,,,,,,,,,,,,,,,,,,
,,,,,,,,,,,,5ea93d40fb690101aa21e97a,32,Kobieta,2022-06-11_09h30.57.608,task,2021.1.4,Linux x86_64,60.0060006,6299f149e92ead563fba08ef,62a4447017671de91027f922,,,,,,,,,,,,,5,,,,,,,,,,Task,22,(3x1) + 2,5,,,,,,,,,,,,,,,,,,,1,,,,,,,,,,,,,,,,,,,,,,,"[""5""]",1,[1.8985000000000127],0,0,0,21,1,,,,,,,,,,,,,,,,,,,,,,,,,,
,,,,,,,,,,,X V Q F H G B L J M P D K C T S W R N Z,5ea93d40fb690101aa21e97a,32,Kobieta,2022-06-11_09h30.57.608,task,2021.1.4,Linux x86_64,60.0060006,6299f149e92ead563fba08ef,62a4447017671de91027f922,,,,,,,,,,,,,,,,,,,,,,,,,,,,,,,,,,,,,,,,,,,,,,,,,,,,,,,,,,,,,,,,,,,,,,,,,,,,3,0,3,0,1,,,,,,,,,,,,,,,,,,,,,
,,,,,,,,,,,,5ea93d40fb690101aa21e97a,32,Kobieta,2022-06-11_09h30.57.608,task,2021.1.4,Linux x86_64,60.0060006,6299f149e92ead563fba08ef,62a4447017671de91027f922,,,,,,,,,,,,,,,,,,,,,,,,,,,,,,,,,,,,,,,,,,,,,,,,,,,,,,,,,,,,,,,,,,,,,,,,,,,,,,,,,dxtb,"[""d"",""x"",""t"",""b""]",0,"[1.913800000011861,2.1991000000238046,2.8919000000357755,3.1498000000119646,4.22170000004769]",1,DXTB,3,0,3,0,1,,,,,,,,,,
,,,,,,,,,,,,5ea93d40fb690101aa21e97a,32,Kobieta,2022-06-11_09h30.57.608,task,2021.1.4,Linux x86_64,60.0060006,6299f149e92ead563fba08ef,62a4447017671de91027f922,,,,,,,,,,,,,5,,,,,,,,,,Task,22,(3x1) + 2,5,,,,,,,,,,,,,,,,,,,1,,,,,,,,,,,,,,,,,,,,,,,"[""5""]",1,[1.9894000000357437],0,0,0,21,1,,,,,,,,,,,,,,,,,,,,,,,,,,
,,,,,,,,,,,X V Q F H G B L J M P D K C T S W R N Z,5ea93d40fb690101aa21e97a,32,Kobieta,2022-06-11_09h30.57.608,task,2021.1.4,Linux x86_64,60.0060006,6299f149e92ead563fba08ef,62a4447017671de91027f922,,,,,,,,,,,,,,,,,,,,,,,,,,,,,,,,,,,,,,,,,,,,,,,,,,,,,,,,,,,,,,,,,,,,,,,,,,,,0,0,0,0,1,,,,,,,,,,,,,,,,,,,,,
,,,,,,,,,,,,5ea93d40fb690101aa21e97a,32,Kobieta,2022-06-11_09h30.57.608,task,2021.1.4,Linux x86_64,60.0060006,6299f149e92ead563fba08ef,62a4447017671de91027f922,,,,,,,,,,,,,4,,,,,,,,,,Task,4,(1x5) - 1,4,,,,,,,,,,,,,,,,,,,1,,,,,,,,,,,,,,,,,,,,,,,"[""4""]",1,[1.448100000023942],0,0,0,3,1,,,,,,,,,,,,,,,,,,,,,,,,,,
,,,,,,,,,,,X V Q F H G B L J M P D K C T S W R N Z,5ea93d40fb690101aa21e97a,32,Kobieta,2022-06-11_09h30.57.608,task,2021.1.4,Linux x86_64,60.0060006,6299f149e92ead563fba08ef,62a4447017671de91027f922,,,,,,,,,,,,,,,,,,,,,,,,,,,,,,,,,,,,,,,,,,,,,,,,,,,,,,,,,,,,,,,,,,,,,,,,,,,,1,0,1,0,1,,,,,,,,,,,,,,,,,,,,,
,,,,,,,,,,,,5ea93d40fb690101aa21e97a,32,Kobieta,2022-06-11_09h30.57.608,task,2021.1.4,Linux x86_64,60.0060006,6299f149e92ead563fba08ef,62a4447017671de91027f922,,,,,,,,,,,,,8,,,,,,,,,,Task,23,(2x3) + 2,8,,,,,,,,,,,,,,,,,,,1,,,,,,,,,,,,,,,,,,,,,,,"[""8""]",1,[2.467200000047683],0,0,0,22,1,,,,,,,,,,,,,,,,,,,,,,,,,,
,,,,,,,,,,,X V Q F H G B L J M P D K C T S W R N Z,5ea93d40fb690101aa21e97a,32,Kobieta,2022-06-11_09h30.57.608,task,2021.1.4,Linux x86_64,60.0060006,6299f149e92ead563fba08ef,62a4447017671de91027f922,,,,,,,,,,,,,,,,,,,,,,,,,,,,,,,,,,,,,,,,,,,,,,,,,,,,,,,,,,,,,,,,,,,,,,,,,,,,2,0,2,0,1,,,,,,,,,,,,,,,,,,,,,
,,,,,,,,,,,,5ea93d40fb690101aa21e97a,32,Kobieta,2022-06-11_09h30.57.608,task,2021.1.4,Linux x86_64,60.0060006,6299f149e92ead563fba08ef,62a4447017671de91027f922,,,,,,,,,,,,,5,,,,,,,,,,Task,29,(3x8) - 19 ,5,,,,,,,,,,,,,,,,,,,1,,,,,,,,,,,,,,,,,,,,,,,"[""5""]",1,[2.8144999999999527],0,0,0,28,1,,,,,,,,,,,,,,,,,,,,,,,,,,
,,,,,,,,,,,X V Q F H G B L J M P D K C T S W R N Z,5ea93d40fb690101aa21e97a,32,Kobieta,2022-06-11_09h30.57.608,task,2021.1.4,Linux x86_64,60.0060006,6299f149e92ead563fba08ef,62a4447017671de91027f922,,,,,,,,,,,,,,,,,,,,,,,,,,,,,,,,,,,,,,,,,,,,,,,,,,,,,,,,,,,,,,,,,,,,,,,,,,,,3,0,3,0,1,,,,,,,,,,,,,,,,,,,,,
,,,,,,,,,,,,5ea93d40fb690101aa21e97a,32,Kobieta,2022-06-11_09h30.57.608,task,2021.1.4,Linux x86_64,60.0060006,6299f149e92ead563fba08ef,62a4447017671de91027f922,,,,,,,,,,,,,0,,,,,,,,,,Task,25,(10/5) - 2,0,,,,,,,,,,,,,,,,,,,1,,,,,,,,,,,,,,,,,,,,,,,"[""0""]",1,[3.494000000000028],0,0,0,24,1,,,,,,,,,,,,,,,,,,,,,,,,,,
,,,,,,,,,,,X V Q F H G B L J M P D K C T S W R N Z,5ea93d40fb690101aa21e97a,32,Kobieta,2022-06-11_09h30.57.608,task,2021.1.4,Linux x86_64,60.0060006,6299f149e92ead563fba08ef,62a4447017671de91027f922,,,,,,,,,,,,,,,,,,,,,,,,,,,,,,,,,,,,,,,,,,,,,,,,,,,,,,,,,,,,,,,,,,,,,,,,,,,,4,0,4,0,1,,,,,,,,,,,,,,,,,,,,,
,,,,,,,,,,,,5ea93d40fb690101aa21e97a,32,Kobieta,2022-06-11_09h30.57.608,task,2021.1.4,Linux x86_64,60.0060006,6299f149e92ead563fba08ef,62a4447017671de91027f922,,,,,,,,,,,,,,,,,,,,,,,,,,,,,,,,,,,,,,,,,,,,,,,,,,,,,,,,,,,,,,,,,,,,,,,,,,,,,,,,,nvcmt,"[""n"",""v"",""c"",""m"",""t""]",0,"[1.5048999999761463,1.9061000000237982,2.1586000000238528,2.6154999999999973,2.965600000023869,4.634500000000003]",1,NVCMT,4,0,4,0,1,,,,,,,,,,
,,,,,,,,,,,,5ea93d40fb690101aa21e97a,32,Kobieta,2022-06-11_09h30.57.608,task,2021.1.4,Linux x86_64,60.0060006,6299f149e92ead563fba08ef,62a4447017671de91027f922,,,,,,,,,,,,,9,,,,,,,,,,Task,24,(2x2) + 5,9,,,,,,,,,,,,,,,,,,,1,,,,,,,,,,,,,,,,,,,,,,,"[""9""]",1,[2.3354000000357473],0,0,0,23,1,,,,,,,,,,,,,,,,,,,,,,,,,,
,,,,,,,,,,,X V Q F H G B L J M P D K C T S W R N Z,5ea93d40fb690101aa21e97a,32,Kobieta,2022-06-11_09h30.57.608,task,2021.1.4,Linux x86_64,60.0060006,6299f149e92ead563fba08ef,62a4447017671de91027f922,,,,,,,,,,,,,,,,,,,,,,,,,,,,,,,,,,,,,,,,,,,,,,,,,,,,,,,,,,,,,,,,,,,,,,,,,,,,0,0,0,0,1,,,,,,,,,,,,,,,,,,,,,
,,,,,,,,,,,,5ea93d40fb690101aa21e97a,32,Kobieta,2022-06-11_09h30.57.608,task,2021.1.4,Linux x86_64,60.0060006,6299f149e92ead563fba08ef,62a4447017671de91027f922,,,,,,,,,,,,,4,,,,,,,,,,Task,4,(1x5) - 1,4,,,,,,,,,,,,,,,,,,,1,,,,,,,,,,,,,,,,,,,,,,,"[""4""]",1,[1.6130000000000564],0,0,0,3,1,,,,,,,,,,,,,,,,,,,,,,,,,,
,,,,,,,,,,,X V Q F H G B L J M P D K C T S W R N Z,5ea93d40fb690101aa21e97a,32,Kobieta,2022-06-11_09h30.57.608,task,2021.1.4,Linux x86_64,60.0060006,6299f149e92ead563fba08ef,62a4447017671de91027f922,,,,,,,,,,,,,,,,,,,,,,,,,,,,,,,,,,,,,,,,,,,,,,,,,,,,,,,,,,,,,,,,,,,,,,,,,,,,1,0,1,0,1,,,,,,,,,,,,,,,,,,,,,
,,,,,,,,,,,,5ea93d40fb690101aa21e97a,32,Kobieta,2022-06-11_09h30.57.608,task,2021.1.4,Linux x86_64,60.0060006,6299f149e92ead563fba08ef,62a4447017671de91027f922,,,,,,,,,,,,,0,,,,,,,,,,Task,25,(10/5) - 2,0,,,,,,,,,,,,,,,,,,,1,,,,,,,,,,,,,,,,,,,,,,,"[""0""]",1,[2.235500000000002],0,0,0,24,1,,,,,,,,,,,,,,,,,,,,,,,,,,
,,,,,,,,,,,X V Q F H G B L J M P D K C T S W R N Z,5ea93d40fb690101aa21e97a,32,Kobieta,2022-06-11_09h30.57.608,task,2021.1.4,Linux x86_64,60.0060006,6299f149e92ead563fba08ef,62a4447017671de91027f922,,,,,,,,,,,,,,,,,,,,,,,,,,,,,,,,,,,,,,,,,,,,,,,,,,,,,,,,,,,,,,,,,,,,,,,,,,,,2,0,2,0,1,,,,,,,,,,,,,,,,,,,,,
,,,,,,,,,,,,5ea93d40fb690101aa21e97a,32,Kobieta,2022-06-11_09h30.57.608,task,2021.1.4,Linux x86_64,60.0060006,6299f149e92ead563fba08ef,62a4447017671de91027f922,,,,,,,,,,,,,6,,,,,,,,,,Task,32,(8/2) + 4,8,,,,,,,,,,,,,,,,,,,0,,,,,,,,,,,,,,,,,,,,,,,"[""6""]",0,[2.193699999988098],0,0,0,31,1,,,,,,,,,,,,,,,,,,,,,,,,,,
,,,,,,,,,,,,5ea93d40fb690101aa21e97a,32,Kobieta,2022-06-11_09h30.57.608,task,2021.1.4,Linux x86_64,60.0060006,6299f149e92ead563fba08ef,62a4447017671de91027f922,,,,,,,,,,,,,3,,,,,,,,,,Task,20,(18/9) + 1,3,,,,,,,,,,,,,,,,,,,1,,,,,,,,,,,,,,,,,,,,,,,"[""3""]",1,[2.2431999999880645],0,1,1,19,1,,,,,,,,,,,,,,,,,,,,,,,,,,
,,,,,,,,,,,X V Q F H G B L J M P D K C T S W R N Z,5ea93d40fb690101aa21e97a,32,Kobieta,2022-06-11_09h30.57.608,task,2021.1.4,Linux x86_64,60.0060006,6299f149e92ead563fba08ef,62a4447017671de91027f922,,,,,,,,,,,,,,,,,,,,,,,,,,,,,,,,,,,,,,,,,,,,,,,,,,,,,,,,,,,,,,,,,,,,,,,,,,,,3,0,3,0,1,,,,,,,,,,,,,,,,,,,,,
,,,,,,,,,,,,5ea93d40fb690101aa21e97a,32,Kobieta,2022-06-11_09h30.57.608,task,2021.1.4,Linux x86_64,60.0060006,6299f149e92ead563fba08ef,62a4447017671de91027f922,,,,,,,,,,,,,9,,,,,,,,,,Task,24,(2x2) + 5,9,,,,,,,,,,,,,,,,,,,1,,,,,,,,,,,,,,,,,,,,,,,"[""9""]",1,[1.641199999988089],0,0,0,23,1,,,,,,,,,,,,,,,,,,,,,,,,,,
,,,,,,,,,,,X V Q F H G B L J M P D K C T S W R N Z,5ea93d40fb690101aa21e97a,32,Kobieta,2022-06-11_09h30.57.608,task,2021.1.4,Linux x86_64,60.0060006,6299f149e92ead563fba08ef,62a4447017671de91027f922,,,,,,,,,,,,,,,,,,,,,,,,,,,,,,,,,,,,,,,,,,,,,,,,,,,,,,,,,,,,,,,,,,,,,,,,,,,,4,0,4,0,1,,,,,,,,,,,,,,,,,,,,,
,,,,,,,,,,,,5ea93d40fb690101aa21e97a,32,Kobieta,2022-06-11_09h30.57.608,task,2021.1.4,Linux x86_64,60.0060006,6299f149e92ead563fba08ef,62a4447017671de91027f922,,,,,,,,,,,,,7,,,,,,,,,,Task,6,(12/2) + 1,7,,,,,,,,,,,,,,,,,,,1,,,,,,,,,,,,,,,,,,,,,,,"[""7""]",1,[1.6129999999999427],0,0,0,5,1,,,,,,,,,,,,,,,,,,,,,,,,,,
,,,,,,,,,,,X V Q F H G B L J M P D K C T S W R N Z,5ea93d40fb690101aa21e97a,32,Kobieta,2022-06-11_09h30.57.608,task,2021.1.4,Linux x86_64,60.0060006,6299f149e92ead563fba08ef,62a4447017671de91027f922,,,,,,,,,,,,,,,,,,,,,,,,,,,,,,,,,,,,,,,,,,,,,,,,,,,,,,,,,,,,,,,,,,,,,,,,,,,,5,0,5,0,1,,,,,,,,,,,,,,,,,,,,,
,,,,,,,,,,,,5ea93d40fb690101aa21e97a,32,Kobieta,2022-06-11_09h30.57.608,task,2021.1.4,Linux x86_64,60.0060006,6299f149e92ead563fba08ef,62a4447017671de91027f922,,,,,,,,,,,,,,,,,,,,,,,,,,,,,,,,,,,,,,,,,,,,,,,,,,,,,,,,,,,,,,,,,,,,,,,,,,,,,,,,,zchspz,"[""z"",""c"",""h"",""s"",""p"",""z""]",0,"[1.3079999999999927,2.6463000000119337,3.0933999999762136,3.5086000000238755,4.1863999999761745,4.8541999999880545,6.4708999999761545]",1,ZCHSPZ,5,0,5,0,1,,,,,,,,,,
,,,,,,,,,,,,5ea93d40fb690101aa21e97a,32,Kobieta,2022-06-11_09h30.57.608,task,2021.1.4,Linux x86_64,60.0060006,6299f149e92ead563fba08ef,62a4447017671de91027f922,,,,,,,,,,,,,1,,,,,,,,,,Task,38,(4x6) - 17,7,,,,,,,,,,,,,,,,,,,0,,,,,,,,,,,,,,,,,,,,,,,"[""1""]",0,[3.5984999999999445],0,0,0,37,1,,,,,,,,,,,,,,,,,,,,,,,,,,
,,,,,,,,,,,,5ea93d40fb690101aa21e97a,32,Kobieta,2022-06-11_09h30.57.608,task,2021.1.4,Linux x86_64,60.0060006,6299f149e92ead563fba08ef,62a4447017671de91027f922,,,,,,,,,,,,,9,,,,,,,,,,Task,16,(3x8) - 15,9,,,,,,,,,,,,,,,,,,,1,,,,,,,,,,,,,,,,,,,,,,,"[""9""]",1,[2.7168999999761354],0,1,1,15,1,,,,,,,,,,,,,,,,,,,,,,,,,,
,,,,,,,,,,,X V Q F H G B L J M P D K C T S W R N Z,5ea93d40fb690101aa21e97a,32,Kobieta,2022-06-11_09h30.57.608,task,2021.1.4,Linux x86_64,60.0060006,6299f149e92ead563fba08ef,62a4447017671de91027f922,,,,,,,,,,,,,,,,,,,,,,,,,,,,,,,,,,,,,,,,,,,,,,,,,,,,,,,,,,,,,,,,,,,,,,,,,,,,0,0,0,0,1,,,,,,,,,,,,,,,,,,,,,
,,,,,,,,,,,,5ea93d40fb690101aa21e97a,32,Kobieta,2022-06-11_09h30.57.608,task,2021.1.4,Linux x86_64,60.0060006,6299f149e92ead563fba08ef,62a4447017671de91027f922,,,,,,,,,,,,,7,,,,,,,,,,Task,7,(3x7) - 12,9,,,,,,,,,,,,,,,,,,,0,,,,,,,,,,,,,,,,,,,,,,,"[""7""]",0,[3.7445000000000164],0,0,0,6,1,,,,,,,,,,,,,,,,,,,,,,,,,,
,,,,,,,,,,,,5ea93d40fb690101aa21e97a,32,Kobieta,2022-06-11_09h30.57.608,task,2021.1.4,Linux x86_64,60.0060006,6299f149e92ead563fba08ef,62a4447017671de91027f922,,,,,,,,,,,,,6,,,,,,,,,,Task,5,(2x3) + 0,6,,,,,,,,,,,,,,,,,,,1,,,,,,,,,,,,,,,,,,,,,,,"[""6""]",1,[2.8756000000238373],0,1,1,4,1,,,,,,,,,,,,,,,,,,,,,,,,,,
,,,,,,,,,,,X V Q F H G B L J M P D K C T S W R N Z,5ea93d40fb690101aa21e97a,32,Kobieta,2022-06-11_09h30.57.608,task,2021.1.4,Linux x86_64,60.0060006,6299f149e92ead563fba08ef,62a4447017671de91027f922,,,,,,,,,,,,,,,,,,,,,,,,,,,,,,,,,,,,,,,,,,,,,,,,,,,,,,,,,,,,,,,,,,,,,,,,,,,,1,0,1,0,1,,,,,,,,,,,,,,,,,,,,,
,,,,,,,,,,,,5ea93d40fb690101aa21e97a,32,Kobieta,2022-06-11_09h30.57.608,task,2021.1.4,Linux x86_64,60.0060006,6299f149e92ead563fba08ef,62a4447017671de91027f922,,,,,,,,,,,,,7,,,,,,,,,,Task,31,(4/2) + 5,7,,,,,,,,,,,,,,,,,,,1,,,,,,,,,,,,,,,,,,,,,,,"[""7""]",1,[5.363599999964208],0,0,0,30,1,,,,,,,,,,,,,,,,,,,,,,,,,,
,,,,,,,,,,,X V Q F H G B L J M P D K C T S W R N Z,5ea93d40fb690101aa21e97a,32,Kobieta,2022-06-11_09h30.57.608,task,2021.1.4,Linux x86_64,60.0060006,6299f149e92ead563fba08ef,62a4447017671de91027f922,,,,,,,,,,,,,,,,,,,,,,,,,,,,,,,,,,,,,,,,,,,,,,,,,,,,,,,,,,,,,,,,,,,,,,,,,,,,2,0,2,0,1,,,,,,,,,,,,,,,,,,,,,
,,,,,,,,,,,,5ea93d40fb690101aa21e97a,32,Kobieta,2022-06-11_09h30.57.608,task,2021.1.4,Linux x86_64,60.0060006,6299f149e92ead563fba08ef,62a4447017671de91027f922,,,,,,,,,,,,,4,,,,,,,,,,Task,21,(10/2) - 1,4,,,,,,,,,,,,,,,,,,,1,,,,,,,,,,,,,,,,,,,,,,,"[""4""]",1,[2.959700000047633],0,0,0,20,1,,,,,,,,,,,,,,,,,,,,,,,,,,
,,,,,,,,,,,X V Q F H G B L J M P D K C T S W R N Z,5ea93d40fb690101aa21e97a,32,Kobieta,2022-06-11_09h30.57.608,task,2021.1.4,Linux x86_64,60.0060006,6299f149e92ead563fba08ef,62a4447017671de91027f922,,,,,,,,,,,,,,,,,,,,,,,,,,,,,,,,,,,,,,,,,,,,,,,,,,,,,,,,,,,,,,,,,,,,,,,,,,,,3,0,3,0,1,,,,,,,,,,,,,,,,,,,,,
,,,,,,,,,,,,5ea93d40fb690101aa21e97a,32,Kobieta,2022-06-11_09h30.57.608,task,2021.1.4,Linux x86_64,60.0060006,6299f149e92ead563fba08ef,62a4447017671de91027f922,,,,,,,,,,,,,9,,,,,,,,,,Task,24,(2x2) + 5,9,,,,,,,,,,,,,,,,,,,1,,,,,,,,,,,,,,,,,,,,,,,"[""9""]",1,[2.3210000000000264],0,0,0,23,1,,,,,,,,,,,,,,,,,,,,,,,,,,
,,,,,,,,,,,X V Q F H G B L J M P D K C T S W R N Z,5ea93d40fb690101aa21e97a,32,Kobieta,2022-06-11_09h30.57.608,task,2021.1.4,Linux x86_64,60.0060006,6299f149e92ead563fba08ef,62a4447017671de91027f922,,,,,,,,,,,,,,,,,,,,,,,,,,,,,,,,,,,,,,,,,,,,,,,,,,,,,,,,,,,,,,,,,,,,,,,,,,,,4,0,4,0,1,,,,,,,,,,,,,,,,,,,,,
,,,,,,,,,,,,5ea93d40fb690101aa21e97a,32,Kobieta,2022-06-11_09h30.57.608,task,2021.1.4,Linux x86_64,60.0060006,6299f149e92ead563fba08ef,62a4447017671de91027f922,,,,,,,,,,,,,5,,,,,,,,,,Task,36,(8/4) + 3,5,,,,,,,,,,,,,,,,,,,1,,,,,,,,,,,,,,,,,,,,,,,"[""5""]",1,[3.150000000000091],0,0,0,35,1,,,,,,,,,,,,,,,,,,,,,,,,,,
,,,,,,,,,,,X V Q F H G B L J M P D K C T S W R N Z,5ea93d40fb690101aa21e97a,32,Kobieta,2022-06-11_09h30.57.608,task,2021.1.4,Linux x86_64,60.0060006,6299f149e92ead563fba08ef,62a4447017671de91027f922,,,,,,,,,,,,,,,,,,,,,,,,,,,,,,,,,,,,,,,,,,,,,,,,,,,,,,,,,,,,,,,,,,,,,,,,,,,,5,0,5,0,1,,,,,,,,,,,,,,,,,,,,,
,,,,,,,,,,,,5ea93d40fb690101aa21e97a,32,Kobieta,2022-06-11_09h30.57.608,task,2021.1.4,Linux x86_64,60.0060006,6299f149e92ead563fba08ef,62a4447017671de91027f922,,,,,,,,,,,,,9,,,,,,,,,,Task,24,(2x2) + 5,9,,,,,,,,,,,,,,,,,,,1,,,,,,,,,,,,,,,,,,,,,,,"[""9""]",1,[2.1013000000119746],0,0,0,23,1,,,,,,,,,,,,,,,,,,,,,,,,,,
,,,,,,,,,,,X V Q F H G B L J M P D K C T S W R N Z,5ea93d40fb690101aa21e97a,32,Kobieta,2022-06-11_09h30.57.608,task,2021.1.4,Linux x86_64,60.0060006,6299f149e92ead563fba08ef,62a4447017671de91027f922,,,,,,,,,,,,,,,,,,,,,,,,,,,,,,,,,,,,,,,,,,,,,,,,,,,,,,,,,,,,,,,,,,,,,,,,,,,,6,0,6,0,1,,,,,,,,,,,,,,,,,,,,,
,,,,,,,,,,,,5ea93d40fb690101aa21e97a,32,Kobieta,2022-06-11_09h30.57.608,task,2021.1.4,Linux x86_64,60.0060006,6299f149e92ead563fba08ef,62a4447017671de91027f922,,,,,,,,,,,,,,,,,,,,,,,,,,,,,,,,,,,,,,,,,,,,,,,,,,,,,,,,,,,,,,,,,,,,,,,,,,,,,,,,,lmttrgt,"[""l"",""m"",""t"",""t"",""r"",""g"",""t""]",0,"[1.6995999999643345,1.9286999999881118,2.2942999999523863,2.4257999999523463,2.6160999999642627,2.8328999999762345,3.117099999964239,4.044199999988109]",1,LMTTRGT,6,0,6,0,1,,,,,,,,,,
,,,,,,,,,,,,5ea93d40fb690101aa21e97a,32,Kobieta,2022-06-11_09h30.57.608,task,2021.1.4,Linux x86_64,60.0060006,6299f149e92ead563fba08ef,62a4447017671de91027f922,,,,,,,,,,,,,1,,,,,,,,,,Task,34,(9/3) - 2,1,,,,,,,,,,,,,,,,,,,1,,,,,,,,,,,,,,,,,,,,,,,"[""1""]",1,[3.3334000000357946],0,0,0,33,1,,,,,,,,,,,,,,,,,,,,,,,,,,
,,,,,,,,,,,X V Q F H G B L J M P D K C T S W R N Z,5ea93d40fb690101aa21e97a,32,Kobieta,2022-06-11_09h30.57.608,task,2021.1.4,Linux x86_64,60.0060006,6299f149e92ead563fba08ef,62a4447017671de91027f922,,,,,,,,,,,,,,,,,,,,,,,,,,,,,,,,,,,,,,,,,,,,,,,,,,,,,,,,,,,,,,,,,,,,,,,,,,,,0,0,0,0,1,,,,,,,,,,,,,,,,,,,,,
,,,,,,,,,,,,5ea93d40fb690101aa21e97a,32,Kobieta,2022-06-11_09h30.57.608,task,2021.1.4,Linux x86_64,60.0060006,6299f149e92ead563fba08ef,62a4447017671de91027f922,,,,,,,,,,,,,6,,,,,,,,,,Task,32,(8/2) + 4,8,,,,,,,,,,,,,,,,,,,0,,,,,,,,,,,,,,,,,,,,,,,"[""6""]",0,[2.3618000000119537],0,0,0,31,1,,,,,,,,,,,,,,,,,,,,,,,,,,
,,,,,,,,,,,,5ea93d40fb690101aa21e97a,32,Kobieta,2022-06-11_09h30.57.608,task,2021.1.4,Linux x86_64,60.0060006,6299f149e92ead563fba08ef,62a4447017671de91027f922,,,,,,,,,,,,,7,,,,,,,,,,Task,31,(4/2) + 5,7,,,,,,,,,,,,,,,,,,,1,,,,,,,,,,,,,,,,,,,,,,,"[""7""]",1,[3.016599999964228],0,1,1,30,1,,,,,,,,,,,,,,,,,,,,,,,,,,
,,,,,,,,,,,X V Q F H G B L J M P D K C T S W R N Z,5ea93d40fb690101aa21e97a,32,Kobieta,2022-06-11_09h30.57.608,task,2021.1.4,Linux x86_64,60.0060006,6299f149e92ead563fba08ef,62a4447017671de91027f922,,,,,,,,,,,,,,,,,,,,,,,,,,,,,,,,,,,,,,,,,,,,,,,,,,,,,,,,,,,,,,,,,,,,,,,,,,,,1,0,1,0,1,,,,,,,,,,,,,,,,,,,,,
,,,,,,,,,,,,5ea93d40fb690101aa21e97a,32,Kobieta,2022-06-11_09h30.57.608,task,2021.1.4,Linux x86_64,60.0060006,6299f149e92ead563fba08ef,62a4447017671de91027f922,,,,,,,,,,,,,9,,,,,,,,,,Task,7,(3x7) - 12,9,,,,,,,,,,,,,,,,,,,1,,,,,,,,,,,,,,,,,,,,,,,"[""9""]",1,[2.8208000000119],0,0,0,6,1,,,,,,,,,,,,,,,,,,,,,,,,,,
,,,,,,,,,,,X V Q F H G B L J M P D K C T S W R N Z,5ea93d40fb690101aa21e97a,32,Kobieta,2022-06-11_09h30.57.608,task,2021.1.4,Linux x86_64,60.0060006,6299f149e92ead563fba08ef,62a4447017671de91027f922,,,,,,,,,,,,,,,,,,,,,,,,,,,,,,,,,,,,,,,,,,,,,,,,,,,,,,,,,,,,,,,,,,,,,,,,,,,,2,0,2,0,1,,,,,,,,,,,,,,,,,,,,,
,,,,,,,,,,,,5ea93d40fb690101aa21e97a,32,Kobieta,2022-06-11_09h30.57.608,task,2021.1.4,Linux x86_64,60.0060006,6299f149e92ead563fba08ef,62a4447017671de91027f922,,,,,,,,,,,,,3,,,,,,,,,,Task,20,(18/9) + 1,3,,,,,,,,,,,,,,,,,,,1,,,,,,,,,,,,,,,,,,,,,,,"[""3""]",1,[2.4408000000119046],0,0,0,19,1,,,,,,,,,,,,,,,,,,,,,,,,,,
,,,,,,,,,,,X V Q F H G B L J M P D K C T S W R N Z,5ea93d40fb690101aa21e97a,32,Kobieta,2022-06-11_09h30.57.608,task,2021.1.4,Linux x86_64,60.0060006,6299f149e92ead563fba08ef,62a4447017671de91027f922,,,,,,,,,,,,,,,,,,,,,,,,,,,,,,,,,,,,,,,,,,,,,,,,,,,,,,,,,,,,,,,,,,,,,,,,,,,,3,0,3,0,1,,,,,,,,,,,,,,,,,,,,,
,,,,,,,,,,,,5ea93d40fb690101aa21e97a,32,Kobieta,2022-06-11_09h30.57.608,task,2021.1.4,Linux x86_64,60.0060006,6299f149e92ead563fba08ef,62a4447017671de91027f922,,,,,,,,,,,,,9,,,,,,,,,,Task,24,(2x2) + 5,9,,,,,,,,,,,,,,,,,,,1,,,,,,,,,,,,,,,,,,,,,,,"[""9""]",1,[1.2988000000119655],0,0,0,23,1,,,,,,,,,,,,,,,,,,,,,,,,,,
,,,,,,,,,,,X V Q F H G B L J M P D K C T S W R N Z,5ea93d40fb690101aa21e97a,32,Kobieta,2022-06-11_09h30.57.608,task,2021.1.4,Linux x86_64,60.0060006,6299f149e92ead563fba08ef,62a4447017671de91027f922,,,,,,,,,,,,,,,,,,,,,,,,,,,,,,,,,,,,,,,,,,,,,,,,,,,,,,,,,,,,,,,,,,,,,,,,,,,,4,0,4,0,1,,,,,,,,,,,,,,,,,,,,,
,,,,,,,,,,,,5ea93d40fb690101aa21e97a,32,Kobieta,2022-06-11_09h30.57.608,task,2021.1.4,Linux x86_64,60.0060006,6299f149e92ead563fba08ef,62a4447017671de91027f922,,,,,,,,,,,,,2,,,,,,,,,,Task,2,(2x2) - 2,2,,,,,,,,,,,,,,,,,,,1,,,,,,,,,,,,,,,,,,,,,,,"[""2""]",1,[1.8852000000476892],0,0,0,1,1,,,,,,,,,,,,,,,,,,,,,,,,,,
,,,,,,,,,,,X V Q F H G B L J M P D K C T S W R N Z,5ea93d40fb690101aa21e97a,32,Kobieta,2022-06-11_09h30.57.608,task,2021.1.4,Linux x86_64,60.0060006,6299f149e92ead563fba08ef,62a4447017671de91027f922,,,,,,,,,,,,,,,,,,,,,,,,,,,,,,,,,,,,,,,,,,,,,,,,,,,,,,,,,,,,,,,,,,,,,,,,,,,,5,0,5,0,1,,,,,,,,,,,,,,,,,,,,,
,,,,,,,,,,,,5ea93d40fb690101aa21e97a,32,Kobieta,2022-06-11_09h30.57.608,task,2021.1.4,Linux x86_64,60.0060006,6299f149e92ead563fba08ef,62a4447017671de91027f922,,,,,,,,,,,,,4,,,,,,,,,,Task,4,(1x5) - 1,4,,,,,,,,,,,,,,,,,,,1,,,,,,,,,,,,,,,,,,,,,,,"[""4""]",1,[2.806900000035739],0,0,0,3,1,,,,,,,,,,,,,,,,,,,,,,,,,,
,,,,,,,,,,,X V Q F H G B L J M P D K C T S W R N Z,5ea93d40fb690101aa21e97a,32,Kobieta,2022-06-11_09h30.57.608,task,2021.1.4,Linux x86_64,60.0060006,6299f149e92ead563fba08ef,62a4447017671de91027f922,,,,,,,,,,,,,,,,,,,,,,,,,,,,,,,,,,,,,,,,,,,,,,,,,,,,,,,,,,,,,,,,,,,,,,,,,,,,6,0,6,0,1,,,,,,,,,,,,,,,,,,,,,
,,,,,,,,,,,,5ea93d40fb690101aa21e97a,32,Kobieta,2022-06-11_09h30.57.608,task,2021.1.4,Linux x86_64,60.0060006,6299f149e92ead563fba08ef,62a4447017671de91027f922,,,,,,,,,,,,,0,,,,,,,,,,Task,17,(2x3) - 6,0,,,,,,,,,,,,,,,,,,,1,,,,,,,,,,,,,,,,,,,,,,,"[""0""]",1,[2.0838000000119337],0,0,0,16,1,,,,,,,,,,,,,,,,,,,,,,,,,,
,,,,,,,,,,,X V Q F H G B L J M P D K C T S W R N Z,5ea93d40fb690101aa21e97a,32,Kobieta,2022-06-11_09h30.57.608,task,2021.1.4,Linux x86_64,60.0060006,6299f149e92ead563fba08ef,62a4447017671de91027f922,,,,,,,,,,,,,,,,,,,,,,,,,,,,,,,,,,,,,,,,,,,,,,,,,,,,,,,,,,,,,,,,,,,,,,,,,,,,7,0,7,0,1,,,,,,,,,,,,,,,,,,,,,
,,,,,,,,,,,,5ea93d40fb690101aa21e97a,32,Kobieta,2022-06-11_09h30.57.608,task,2021.1.4,Linux x86_64,60.0060006,6299f149e92ead563fba08ef,62a4447017671de91027f922,,,,,,,,,,,,,,,,,,,,,,,,,,,,,,,,,,,,,,,,,,,,,,,,,,,,,,,,,,,,,,,,,,,,,,,,,,,,,,,,,ztclpqhj,"[""z"",""t"",""c"",""l"",""p"",""q"",""h"",""j""]",0,"[1.6866999999880363,3.899499999999989,4.538499999999999,4.806500000000028,5.0398999999761145,5.879500000000007,6.158299999952305,6.5815000000000055,7.990699999988124]",0,ZTCPLQHJ,7,0,7,0,1,,,,,,,,,,
,,,,,,,,,,,,5ea93d40fb690101aa21e97a,32,Kobieta,2022-06-11_09h30.57.608,task,2021.1.4,Linux x86_64,60.0060006,6299f149e92ead563fba08ef,62a4447017671de91027f922,,,,,,,,,,,,,9,,,,,,,,,,Task,16,(3x8) - 15,9,,,,,,,,,,,,,,,,,,,1,,,,,,,,,,,,,,,,,,,,,,,"[""9""]",1,[5.304200000047672],0,0,0,15,1,,,,,,,,,,,,,,,,,,,,,,,,,,
,,,,,,,,,,,X V Q F H G B L J M P D K C T S W R N Z,5ea93d40fb690101aa21e97a,32,Kobieta,2022-06-11_09h30.57.608,task,2021.1.4,Linux x86_64,60.0060006,6299f149e92ead563fba08ef,62a4447017671de91027f922,,,,,,,,,,,,,,,,,,,,,,,,,,,,,,,,,,,,,,,,,,,,,,,,,,,,,,,,,,,,,,,,,,,,,,,,,,,,0,0,0,0,1,,,,,,,,,,,,,,,,,,,,,
,,,,,,,,,,,,5ea93d40fb690101aa21e97a,32,Kobieta,2022-06-11_09h30.57.608,task,2021.1.4,Linux x86_64,60.0060006,6299f149e92ead563fba08ef,62a4447017671de91027f922,,,,,,,,,,,,,8,,,,,,,,,,Task,39,(5x3) - 7,8,,,,,,,,,,,,,,,,,,,1,,,,,,,,,,,,,,,,,,,,,,,"[""8""]",1,[2.228099999964229],0,0,0,38,1,,,,,,,,,,,,,,,,,,,,,,,,,,
,,,,,,,,,,,X V Q F H G B L J M P D K C T S W R N Z,5ea93d40fb690101aa21e97a,32,Kobieta,2022-06-11_09h30.57.608,task,2021.1.4,Linux x86_64,60.0060006,6299f149e92ead563fba08ef,62a4447017671de91027f922,,,,,,,,,,,,,,,,,,,,,,,,,,,,,,,,,,,,,,,,,,,,,,,,,,,,,,,,,,,,,,,,,,,,,,,,,,,,1,0,1,0,1,,,,,,,,,,,,,,,,,,,,,
,,,,,,,,,,,,5ea93d40fb690101aa21e97a,32,Kobieta,2022-06-11_09h30.57.608,task,2021.1.4,Linux x86_64,60.0060006,6299f149e92ead563fba08ef,62a4447017671de91027f922,,,,,,,,,,,,,2,,,,,,,,,,Task,10,(2x5) - 8,2,,,,,,,,,,,,,,,,,,,1,,,,,,,,,,,,,,,,,,,,,,,"[""2""]",1,[2.575199999988058],0,0,0,9,1,,,,,,,,,,,,,,,,,,,,,,,,,,
,,,,,,,,,,,X V Q F H G B L J M P D K C T S W R N Z,5ea93d40fb690101aa21e97a,32,Kobieta,2022-06-11_09h30.57.608,task,2021.1.4,Linux x86_64,60.0060006,6299f149e92ead563fba08ef,62a4447017671de91027f922,,,,,,,,,,,,,,,,,,,,,,,,,,,,,,,,,,,,,,,,,,,,,,,,,,,,,,,,,,,,,,,,,,,,,,,,,,,,2,0,2,0,1,,,,,,,,,,,,,,,,,,,,,
,,,,,,,,,,,,5ea93d40fb690101aa21e97a,32,Kobieta,2022-06-11_09h30.57.608,task,2021.1.4,Linux x86_64,60.0060006,6299f149e92ead563fba08ef,62a4447017671de91027f922,,,,,,,,,,,,,4,,,,,,,,,,Task,4,(1x5) - 1,4,,,,,,,,,,,,,,,,,,,1,,,,,,,,,,,,,,,,,,,,,,,"[""4""]",1,[1.7279000000356746],0,0,0,3,1,,,,,,,,,,,,,,,,,,,,,,,,,,
,,,,,,,,,,,X V Q F H G B L J M P D K C T S W R N Z,5ea93d40fb690101aa21e97a,32,Kobieta,2022-06-11_09h30.57.608,task,2021.1.4,Linux x86_64,60.0060006,6299f149e92ead563fba08ef,62a4447017671de91027f922,,,,,,,,,,,,,,,,,,,,,,,,,,,,,,,,,,,,,,,,,,,,,,,,,,,,,,,,,,,,,,,,,,,,,,,,,,,,3,0,3,0,1,,,,,,,,,,,,,,,,,,,,,
,,,,,,,,,,,,5ea93d40fb690101aa21e97a,32,Kobieta,2022-06-11_09h30.57.608,task,2021.1.4,Linux x86_64,60.0060006,6299f149e92ead563fba08ef,62a4447017671de91027f922,,,,,,,,,,,,,7,,,,,,,,,,Task,30,(6/3) + 4 ,6,,,,,,,,,,,,,,,,,,,0,,,,,,,,,,,,,,,,,,,,,,,"[""7""]",0,[2.1806999999880645],0,0,0,29,1,,,,,,,,,,,,,,,,,,,,,,,,,,
,,,,,,,,,,,,5ea93d40fb690101aa21e97a,32,Kobieta,2022-06-11_09h30.57.608,task,2021.1.4,Linux x86_64,60.0060006,6299f149e92ead563fba08ef,62a4447017671de91027f922,,,,,,,,,,,,,3,,,,,,,,,,Task,35,(1x2) + 1,3,,,,,,,,,,,,,,,,,,,1,,,,,,,,,,,,,,,,,,,,,,,"[""3""]",1,[2.7060000000000173],0,1,1,34,1,,,,,,,,,,,,,,,,,,,,,,,,,,
,,,,,,,,,,,X V Q F H G B L J M P D K C T S W R N Z,5ea93d40fb690101aa21e97a,32,Kobieta,2022-06-11_09h30.57.608,task,2021.1.4,Linux x86_64,60.0060006,6299f149e92ead563fba08ef,62a4447017671de91027f922,,,,,,,,,,,,,,,,,,,,,,,,,,,,,,,,,,,,,,,,,,,,,,,,,,,,,,,,,,,,,,,,,,,,,,,,,,,,4,0,4,0,1,,,,,,,,,,,,,,,,,,,,,
,,,,,,,,,,,,5ea93d40fb690101aa21e97a,32,Kobieta,2022-06-11_09h30.57.608,task,2021.1.4,Linux x86_64,60.0060006,6299f149e92ead563fba08ef,62a4447017671de91027f922,,,,,,,,,,,,,3,,,,,,,,,,Task,3,(2x3) - 3,3,,,,,,,,,,,,,,,,,,,1,,,,,,,,,,,,,,,,,,,,,,,"[""3""]",1,[2.319899999976201],0,0,0,2,1,,,,,,,,,,,,,,,,,,,,,,,,,,
,,,,,,,,,,,X V Q F H G B L J M P D K C T S W R N Z,5ea93d40fb690101aa21e97a,32,Kobieta,2022-06-11_09h30.57.608,task,2021.1.4,Linux x86_64,60.0060006,6299f149e92ead563fba08ef,62a4447017671de91027f922,,,,,,,,,,,,,,,,,,,,,,,,,,,,,,,,,,,,,,,,,,,,,,,,,,,,,,,,,,,,,,,,,,,,,,,,,,,,5,0,5,0,1,,,,,,,,,,,,,,,,,,,,,
,,,,,,,,,,,,5ea93d40fb690101aa21e97a,32,Kobieta,2022-06-11_09h30.57.608,task,2021.1.4,Linux x86_64,60.0060006,6299f149e92ead563fba08ef,62a4447017671de91027f922,,,,,,,,,,,,,1,,,,,,,,,,Task,9,(3x7) - 20,1,,,,,,,,,,,,,,,,,,,1,,,,,,,,,,,,,,,,,,,,,,,"[""1""]",1,[1.8284000000356855],0,0,0,8,1,,,,,,,,,,,,,,,,,,,,,,,,,,
,,,,,,,,,,,X V Q F H G B L J M P D K C T S W R N Z,5ea93d40fb690101aa21e97a,32,Kobieta,2022-06-11_09h30.57.608,task,2021.1.4,Linux x86_64,60.0060006,6299f149e92ead563fba08ef,62a4447017671de91027f922,,,,,,,,,,,,,,,,,,,,,,,,,,,,,,,,,,,,,,,,,,,,,,,,,,,,,,,,,,,,,,,,,,,,,,,,,,,,6,0,6,0,1,,,,,,,,,,,,,,,,,,,,,
,,,,,,,,,,,,5ea93d40fb690101aa21e97a,32,Kobieta,2022-06-11_09h30.57.608,task,2021.1.4,Linux x86_64,60.0060006,6299f149e92ead563fba08ef,62a4447017671de91027f922,,,,,,,,,,,,,6,,,,,,,,,,Task,13,(3x4) - 6,6,,,,,,,,,,,,,,,,,,,1,,,,,,,,,,,,,,,,,,,,,,,"[""6""]",1,[2.3906000000238237],0,0,0,12,1,,,,,,,,,,,,,,,,,,,,,,,,,,
,,,,,,,,,,,X V Q F H G B L J M P D K C T S W R N Z,5ea93d40fb690101aa21e97a,32,Kobieta,2022-06-11_09h30.57.608,task,2021.1.4,Linux x86_64,60.0060006,6299f149e92ead563fba08ef,62a4447017671de91027f922,,,,,,,,,,,,,,,,,,,,,,,,,,,,,,,,,,,,,,,,,,,,,,,,,,,,,,,,,,,,,,,,,,,,,,,,,,,,7,0,7,0,1,,,,,,,,,,,,,,,,,,,,,
,,,,,,,,,,,,5ea93d40fb690101aa21e97a,32,Kobieta,2022-06-11_09h30.57.608,task,2021.1.4,Linux x86_64,60.0060006,6299f149e92ead563fba08ef,62a4447017671de91027f922,,,,,,,,,,,,,,,,,,,,,,,,,,,,,,,,,,,,,,,,,,,,,,,,,,,,,,,,,,,,,,,,,,,,,,,,,,,,,,,,,qrdzwljc,"[""q"",""r"",""d"",""z"",""w"",""l"",""j"",""c""]",0,"[1.7616000000238046,2.0670000000000073,2.3749000000357228,2.826999999999998,3.0662000000476155,3.3857000000476773,3.716800000011858,3.92220000004761,4.404700000047683]",1,QRDZWLJC,8,0,8,0,1,,,,,,,,,,
,,,,,,,,,,,,5ea93d40fb690101aa21e97a,32,Kobieta,2022-06-11_09h30.57.608,task,2021.1.4,Linux x86_64,60.0060006,6299f149e92ead563fba08ef,62a4447017671de91027f922,,,,,,,,,,,,,6,,,,,,,,,,Task,16,(3x8) - 15,9,,,,,,,,,,,,,,,,,,,0,,,,,,,,,,,,,,,,,,,,,,,"[""6""]",0,[4.133800000011888],0,0,0,15,1,,,,,,,,,,,,,,,,,,,,,,,,,,
,,,,,,,,,,,,5ea93d40fb690101aa21e97a,32,Kobieta,2022-06-11_09h30.57.608,task,2021.1.4,Linux x86_64,60.0060006,6299f149e92ead563fba08ef,62a4447017671de91027f922,,,,,,,,,,,,,1,,,,,,,,,,Task,18,(16/4) - 3,1,,,,,,,,,,,,,,,,,,,1,,,,,,,,,,,,,,,,,,,,,,,"[""1""]",1,[2.897999999999911],0,1,1,17,1,,,,,,,,,,,,,,,,,,,,,,,,,,
,,,,,,,,,,,X V Q F H G B L J M P D K C T S W R N Z,5ea93d40fb690101aa21e97a,32,Kobieta,2022-06-11_09h30.57.608,task,2021.1.4,Linux x86_64,60.0060006,6299f149e92ead563fba08ef,62a4447017671de91027f922,,,,,,,,,,,,,,,,,,,,,,,,,,,,,,,,,,,,,,,,,,,,,,,,,,,,,,,,,,,,,,,,,,,,,,,,,,,,0,0,0,0,1,,,,,,,,,,,,,,,,,,,,,
,,,,,,,,,,,,5ea93d40fb690101aa21e97a,32,Kobieta,2022-06-11_09h30.57.608,task,2021.1.4,Linux x86_64,60.0060006,6299f149e92ead563fba08ef,62a4447017671de91027f922,,,,,,,,,,,,,3,,,,,,,,,,Task,27,(3/3) + 2,3,,,,,,,,,,,,,,,,,,,1,,,,,,,,,,,,,,,,,,,,,,,"[""3""]",1,[2.4725999999641317],0,0,0,26,1,,,,,,,,,,,,,,,,,,,,,,,,,,
,,,,,,,,,,,X V Q F H G B L J M P D K C T S W R N Z,5ea93d40fb690101aa21e97a,32,Kobieta,2022-06-11_09h30.57.608,task,2021.1.4,Linux x86_64,60.0060006,6299f149e92ead563fba08ef,62a4447017671de91027f922,,,,,,,,,,,,,,,,,,,,,,,,,,,,,,,,,,,,,,,,,,,,,,,,,,,,,,,,,,,,,,,,,,,,,,,,,,,,1,0,1,0,1,,,,,,,,,,,,,,,,,,,,,
,,,,,,,,,,,,5ea93d40fb690101aa21e97a,32,Kobieta,2022-06-11_09h30.57.608,task,2021.1.4,Linux x86_64,60.0060006,6299f149e92ead563fba08ef,62a4447017671de91027f922,,,,,,,,,,,,,6,,,,,,,,,,Task,30,(6/3) + 4 ,6,,,,,,,,,,,,,,,,,,,1,,,,,,,,,,,,,,,,,,,,,,,"[""6""]",1,[2.1274000000357773],0,0,0,29,1,,,,,,,,,,,,,,,,,,,,,,,,,,
,,,,,,,,,,,X V Q F H G B L J M P D K C T S W R N Z,5ea93d40fb690101aa21e97a,32,Kobieta,2022-06-11_09h30.57.608,task,2021.1.4,Linux x86_64,60.0060006,6299f149e92ead563fba08ef,62a4447017671de91027f922,,,,,,,,,,,,,,,,,,,,,,,,,,,,,,,,,,,,,,,,,,,,,,,,,,,,,,,,,,,,,,,,,,,,,,,,,,,,2,0,2,0,1,,,,,,,,,,,,,,,,,,,,,
,,,,,,,,,,,,5ea93d40fb690101aa21e97a,32,Kobieta,2022-06-11_09h30.57.608,task,2021.1.4,Linux x86_64,60.0060006,6299f149e92ead563fba08ef,62a4447017671de91027f922,,,,,,,,,,,,,1,,,,,,,,,,Task,1,(12/6) - 1,1,,,,,,,,,,,,,,,,,,,1,,,,,,,,,,,,,,,,,,,,,,,"[""1""]",1,[1.8225999999642681],0,0,0,0,1,,,,,,,,,,,,,,,,,,,,,,,,,,
,,,,,,,,,,,X V Q F H G B L J M P D K C T S W R N Z,5ea93d40fb690101aa21e97a,32,Kobieta,2022-06-11_09h30.57.608,task,2021.1.4,Linux x86_64,60.0060006,6299f149e92ead563fba08ef,62a4447017671de91027f922,,,,,,,,,,,,,,,,,,,,,,,,,,,,,,,,,,,,,,,,,,,,,,,,,,,,,,,,,,,,,,,,,,,,,,,,,,,,3,0,3,0,1,,,,,,,,,,,,,,,,,,,,,
,,,,,,,,,,,,5ea93d40fb690101aa21e97a,32,Kobieta,2022-06-11_09h30.57.608,task,2021.1.4,Linux x86_64,60.0060006,6299f149e92ead563fba08ef,62a4447017671de91027f922,,,,,,,,,,,,,6,,,,,,,,,,Task,30,(6/3) + 4 ,6,,,,,,,,,,,,,,,,,,,1,,,,,,,,,,,,,,,,,,,,,,,"[""6""]",1,[1.8311999999881436],0,0,0,29,1,,,,,,,,,,,,,,,,,,,,,,,,,,
,,,,,,,,,,,X V Q F H G B L J M P D K C T S W R N Z,5ea93d40fb690101aa21e97a,32,Kobieta,2022-06-11_09h30.57.608,task,2021.1.4,Linux x86_64,60.0060006,6299f149e92ead563fba08ef,62a4447017671de91027f922,,,,,,,,,,,,,,,,,,,,,,,,,,,,,,,,,,,,,,,,,,,,,,,,,,,,,,,,,,,,,,,,,,,,,,,,,,,,4,0,4,0,1,,,,,,,,,,,,,,,,,,,,,
,,,,,,,,,,,,5ea93d40fb690101aa21e97a,32,Kobieta,2022-06-11_09h30.57.608,task,2021.1.4,Linux x86_64,60.0060006,6299f149e92ead563fba08ef,62a4447017671de91027f922,,,,,,,,,,,,,6,,,,,,,,,,Task,37,(3/3) + 5,6,,,,,,,,,,,,,,,,,,,1,,,,,,,,,,,,,,,,,,,,,,,"[""6""]",1,[4.160899999976209],0,0,0,36,1,,,,,,,,,,,,,,,,,,,,,,,,,,
,,,,,,,,,,,X V Q F H G B L J M P D K C T S W R N Z,5ea93d40fb690101aa21e97a,32,Kobieta,2022-06-11_09h30.57.608,task,2021.1.4,Linux x86_64,60.0060006,6299f149e92ead563fba08ef,62a4447017671de91027f922,,,,,,,,,,,,,,,,,,,,,,,,,,,,,,,,,,,,,,,,,,,,,,,,,,,,,,,,,,,,,,,,,,,,,,,,,,,,5,0,5,0,1,,,,,,,,,,,,,,,,,,,,,
,,,,,,,,,,,,5ea93d40fb690101aa21e97a,32,Kobieta,2022-06-11_09h30.57.608,task,2021.1.4,Linux x86_64,60.0060006,6299f149e92ead563fba08ef,62a4447017671de91027f922,,,,,,,,,,,,,3,,,,,,,,,,Task,35,(1x2) + 1,3,,,,,,,,,,,,,,,,,,,1,,,,,,,,,,,,,,,,,,,,,,,"[""3""]",1,[2.1725000000000136],0,0,0,34,1,,,,,,,,,,,,,,,,,,,,,,,,,,
,,,,,,,,,,,X V Q F H G B L J M P D K C T S W R N Z,5ea93d40fb690101aa21e97a,32,Kobieta,2022-06-11_09h30.57.608,task,2021.1.4,Linux x86_64,60.0060006,6299f149e92ead563fba08ef,62a4447017671de91027f922,,,,,,,,,,,,,,,,,,,,,,,,,,,,,,,,,,,,,,,,,,,,,,,,,,,,,,,,,,,,,,,,,,,,,,,,,,,,6,0,6,0,1,,,,,,,,,,,,,,,,,,,,,
,,,,,,,,,,,,5ea93d40fb690101aa21e97a,32,Kobieta,2022-06-11_09h30.57.608,task,2021.1.4,Linux x86_64,60.0060006,6299f149e92ead563fba08ef,62a4447017671de91027f922,,,,,,,,,,,,,5,,,,,,,,,,Task,12,(4x4) - 11,5,,,,,,,,,,,,,,,,,,,1,,,,,,,,,,,,,,,,,,,,,,,"[""5""]",1,[1.9521000000238473],0,0,0,11,1,,,,,,,,,,,,,,,,,,,,,,,,,,
,,,,,,,,,,,X V Q F H G B L J M P D K C T S W R N Z,5ea93d40fb690101aa21e97a,32,Kobieta,2022-06-11_09h30.57.608,task,2021.1.4,Linux x86_64,60.0060006,6299f149e92ead563fba08ef,62a4447017671de91027f922,,,,,,,,,,,,,,,,,,,,,,,,,,,,,,,,,,,,,,,,,,,,,,,,,,,,,,,,,,,,,,,,,,,,,,,,,,,,7,0,7,0,1,,,,,,,,,,,,,,,,,,,,,
,,,,,,,,,,,,5ea93d40fb690101aa21e97a,32,Kobieta,2022-06-11_09h30.57.608,task,2021.1.4,Linux x86_64,60.0060006,6299f149e92ead563fba08ef,62a4447017671de91027f922,,,,,,,,,,,,,6,,,,,,,,,,Task,38,(4x6) - 17,7,,,,,,,,,,,,,,,,,,,0,,,,,,,,,,,,,,,,,,,,,,,"[""6""]",0,[5.074800000012033],0,0,0,37,1,,,,,,,,,,,,,,,,,,,,,,,,,,
,,,,,,,,,,,,5ea93d40fb690101aa21e97a,32,Kobieta,2022-06-11_09h30.57.608,task,2021.1.4,Linux x86_64,60.0060006,6299f149e92ead563fba08ef,62a4447017671de91027f922,,,,,,,,,,,,,1,,,,,,,,,,Task,18,(16/4) - 3,1,,,,,,,,,,,,,,,,,,,1,,,,,,,,,,,,,,,,,,,,,,,"[""1""]",1,[2.194200000047772],0,1,1,17,1,,,,,,,,,,,,,,,,,,,,,,,,,,
,,,,,,,,,,,X V Q F H G B L J M P D K C T S W R N Z,5ea93d40fb690101aa21e97a,32,Kobieta,2022-06-11_09h30.57.608,task,2021.1.4,Linux x86_64,60.0060006,6299f149e92ead563fba08ef,62a4447017671de91027f922,,,,,,,,,,,,,,,,,,,,,,,,,,,,,,,,,,,,,,,,,,,,,,,,,,,,,,,,,,,,,,,,,,,,,,,,,,,,8,0,8,0,1,,,,,,,,,,,,,,,,,,,,,
,,,,,,,,,,,,5ea93d40fb690101aa21e97a,32,Kobieta,2022-06-11_09h30.57.608,task,2021.1.4,Linux x86_64,60.0060006,6299f149e92ead563fba08ef,62a4447017671de91027f922,,,,,,,,,,,,,,,,,,,,,,,,,,,,,,,,,,,,,,,,,,,,,,,,,,,,,,,,,,,,,,,,,,,,,,,,,,,,,,,,,fhlvqxxf,"[""f"",""h"",""l"",""v"",""q"",""x"",""x"",""f""]",0,"[1.1956999999880509,1.475999999999999,1.6776999999881355,1.887300000011919,2.52980000001196,2.8301999999880536,3.005800000011959,3.282300000011901,5.754100000023868]",0,FHLVQXXFS,9,0,9,0,1,,,,,,,,,,
,,,,,,,,,,,,5ea93d40fb690101aa21e97a,32,Kobieta,2022-06-11_09h30.57.608,task,2021.1.4,Linux x86_64,60.0060006,6299f149e92ead563fba08ef,62a4447017671de91027f922,,,,,,,,,,,,,8,,,,,,,,,,Task,15,(3x7) - 13,8,,,,,,,,,,,,,,,,,,,1,,,,,,,,,,,,,,,,,,,,,,,"[""8""]",1,[3.7486000000238846],0,0,0,14,1,,,,,,,,,,,,,,,,,,,,,,,,,,
,,,,,,,,,,,X V Q F H G B L J M P D K C T S W R N Z,5ea93d40fb690101aa21e97a,32,Kobieta,2022-06-11_09h30.57.608,task,2021.1.4,Linux x86_64,60.0060006,6299f149e92ead563fba08ef,62a4447017671de91027f922,,,,,,,,,,,,,,,,,,,,,,,,,,,,,,,,,,,,,,,,,,,,,,,,,,,,,,,,,,,,,,,,,,,,,,,,,,,,0,0,0,0,1,,,,,,,,,,,,,,,,,,,,,
,,,,,,,,,,,,5ea93d40fb690101aa21e97a,32,Kobieta,2022-06-11_09h30.57.608,task,2021.1.4,Linux x86_64,60.0060006,6299f149e92ead563fba08ef,62a4447017671de91027f922,,,,,,,,,,,,,5,,,,,,,,,,Task,36,(8/4) + 3,5,,,,,,,,,,,,,,,,,,,1,,,,,,,,,,,,,,,,,,,,,,,"[""5""]",1,[1.7450000000000045],0,0,0,35,1,,,,,,,,,,,,,,,,,,,,,,,,,,
,,,,,,,,,,,X V Q F H G B L J M P D K C T S W R N Z,5ea93d40fb690101aa21e97a,32,Kobieta,2022-06-11_09h30.57.608,task,2021.1.4,Linux x86_64,60.0060006,6299f149e92ead563fba08ef,62a4447017671de91027f922,,,,,,,,,,,,,,,,,,,,,,,,,,,,,,,,,,,,,,,,,,,,,,,,,,,,,,,,,,,,,,,,,,,,,,,,,,,,1,0,1,0,1,,,,,,,,,,,,,,,,,,,,,
,,,,,,,,,,,,5ea93d40fb690101aa21e97a,32,Kobieta,2022-06-11_09h30.57.608,task,2021.1.4,Linux x86_64,60.0060006,6299f149e92ead563fba08ef,62a4447017671de91027f922,,,,,,,,,,,,,5,,,,,,,,,,Task,12,(4x4) - 11,5,,,,,,,,,,,,,,,,,,,1,,,,,,,,,,,,,,,,,,,,,,,"[""5""]",1,[1.5153999999761254],0,0,0,11,1,,,,,,,,,,,,,,,,,,,,,,,,,,
,,,,,,,,,,,X V Q F H G B L J M P D K C T S W R N Z,5ea93d40fb690101aa21e97a,32,Kobieta,2022-06-11_09h30.57.608,task,2021.1.4,Linux x86_64,60.0060006,6299f149e92ead563fba08ef,62a4447017671de91027f922,,,,,,,,,,,,,,,,,,,,,,,,,,,,,,,,,,,,,,,,,,,,,,,,,,,,,,,,,,,,,,,,,,,,,,,,,,,,2,0,2,0,1,,,,,,,,,,,,,,,,,,,,,
,,,,,,,,,,,,5ea93d40fb690101aa21e97a,32,Kobieta,2022-06-11_09h30.57.608,task,2021.1.4,Linux x86_64,60.0060006,6299f149e92ead563fba08ef,62a4447017671de91027f922,,,,,,,,,,,,,1,,,,,,,,,,Task,34,(9/3) - 2,1,,,,,,,,,,,,,,,,,,,1,,,,,,,,,,,,,,,,,,,,,,,"[""1""]",1,[2.2379999999999427],0,0,0,33,1,,,,,,,,,,,,,,,,,,,,,,,,,,
,,,,,,,,,,,X V Q F H G B L J M P D K C T S W R N Z,5ea93d40fb690101aa21e97a,32,Kobieta,2022-06-11_09h30.57.608,task,2021.1.4,Linux x86_64,60.0060006,6299f149e92ead563fba08ef,62a4447017671de91027f922,,,,,,,,,,,,,,,,,,,,,,,,,,,,,,,,,,,,,,,,,,,,,,,,,,,,,,,,,,,,,,,,,,,,,,,,,,,,3,0,3,0,1,,,,,,,,,,,,,,,,,,,,,
,,,,,,,,,,,,5ea93d40fb690101aa21e97a,32,Kobieta,2022-06-11_09h30.57.608,task,2021.1.4,Linux x86_64,60.0060006,6299f149e92ead563fba08ef,62a4447017671de91027f922,,,,,,,,,,,,,2,,,,,,,,,,Task,2,(2x2) - 2,2,,,,,,,,,,,,,,,,,,,1,,,,,,,,,,,,,,,,,,,,,,,"[""2""]",1,[1.6951999999880627],0,0,0,1,1,,,,,,,,,,,,,,,,,,,,,,,,,,
,,,,,,,,,,,X V Q F H G B L J M P D K C T S W R N Z,5ea93d40fb690101aa21e97a,32,Kobieta,2022-06-11_09h30.57.608,task,2021.1.4,Linux x86_64,60.0060006,6299f149e92ead563fba08ef,62a4447017671de91027f922,,,,,,,,,,,,,,,,,,,,,,,,,,,,,,,,,,,,,,,,,,,,,,,,,,,,,,,,,,,,,,,,,,,,,,,,,,,,4,0,4,0,1,,,,,,,,,,,,,,,,,,,,,
,,,,,,,,,,,,5ea93d40fb690101aa21e97a,32,Kobieta,2022-06-11_09h30.57.608,task,2021.1.4,Linux x86_64,60.0060006,6299f149e92ead563fba08ef,62a4447017671de91027f922,,,,,,,,,,,,,7,,,,,,,,,,Task,6,(12/2) + 1,7,,,,,,,,,,,,,,,,,,,1,,,,,,,,,,,,,,,,,,,,,,,"[""7""]",1,[1.7221000000238291],0,0,0,5,1,,,,,,,,,,,,,,,,,,,,,,,,,,
,,,,,,,,,,,X V Q F H G B L J M P D K C T S W R N Z,5ea93d40fb690101aa21e97a,32,Kobieta,2022-06-11_09h30.57.608,task,2021.1.4,Linux x86_64,60.0060006,6299f149e92ead563fba08ef,62a4447017671de91027f922,,,,,,,,,,,,,,,,,,,,,,,,,,,,,,,,,,,,,,,,,,,,,,,,,,,,,,,,,,,,,,,,,,,,,,,,,,,,5,0,5,0,1,,,,,,,,,,,,,,,,,,,,,
