key_resp_15.keys,key_resp_15.rt,key_resp_16.keys,key_resp_16.rt,key_resp_4.keys,key_resp_4.rt,next_letter.thisRepN,next_letter.thisTrialN,next_letter.thisN,next_letter.thisIndex,next_letter.ran,letter,participant,Wiek*,Płeć,date,expName,psychopyVersion,OS,frameRate,study_id,session,simple_recall,key_resp_5.keys,key_resp_5.rt,simple_recall_corr,simple_recall_corrkeys,next_level.thisRepN,next_level.thisTrialN,next_level.thisN,next_level.thisIndex,next_level.ran,key_resp_2.keys,key_resp_2.rt,digit_answer,key_resp.keys,key_resp.corr,key_resp.rt,RT_list,next_equation.thisRepN,next_equation.thisTrialN,next_equation.thisN,next_equation.thisIndex,next_equation.ran,Task,Trial,Problem,Operation_answer,processing_score,sumRT,meanRT,sumdiff,sd,RT,key_resp_3.keys,key_resp_3.rt,repeat_practice.thisRepN,repeat_practice.thisTrialN,repeat_practice.thisN,repeat_practice.thisIndex,repeat_practice.ran,key_resp_6.keys,key_resp_6.rt,key_resp_11.keys,key_resp_11.corr,key_resp_11.rt,operation_correct,repeat_if_wrong_prac.thisRepN,repeat_if_wrong_prac.thisTrialN,repeat_if_wrong_prac.thisN,repeat_if_wrong_prac.thisIndex,repeat_if_wrong_prac.ran,span_size_prac.thisRepN,span_size_prac.thisTrialN,span_size_prac.thisN,span_size_prac.thisIndex,span_size_prac.ran,complex_recall_practice,key_resp_9.keys,key_resp_9.corr,key_resp_9.rt,complex_prac_corr,span_recall_prac.thisRepN,span_recall_prac.thisTrialN,span_recall_prac.thisN,span_recall_prac.thisIndex,span_recall_prac.ran,key_resp_10.keys,key_resp_10.rt,key_resp_7.keys,key_resp_7.corr,key_resp_7.rt,repeat_if_wrong.thisRepN,repeat_if_wrong.thisTrialN,repeat_if_wrong.thisN,repeat_if_wrong.thisIndex,repeat_if_wrong.ran,span_size.thisRepN,span_size.thisTrialN,span_size.thisN,span_size.thisIndex,span_size.ran,complex_recall,key_resp_8.keys,key_resp_8.corr,key_resp_8.rt,complex_recall_corr,complex_recall_corrkeys,span_recall.thisRepN,span_recall.thisTrialN,span_recall.thisN,span_recall.thisIndex,span_recall.ran,key_resp_13.keys,key_resp_13.corr,key_resp_13.rt,random_loop.thisRepN,random_loop.thisTrialN,random_loop.thisN,random_loop.thisIndex,random_loop.ran,key_resp_12.keys,key_resp_12.rt
space,3.3332,space,121.3364,space,6.4055,0,0,0,0,1,X V Q F H G B L J M P D K C T S W R N Z,5eb35dff41a381156be161c2,22,Mężczyzna,2022-06-11_09h37.27.723,task,2021.1.4,Win32,59.79430758,6299f149e92ead563fba08ef,62a43db63a89f22d9e40be7f,,,,,,,,,,,,,,,,,,,,,,,,,,,,,,,,,,,,,,,,,,,,,,,,,,,,,,,,,,,,,,,,,,,,,,,,,,,,,,,,,,,,,,,,,,,,,,,,,,,,,
,,,,,,1,0,1,0,1,X V Q F H G B L J M P D K C T S W R N Z,5eb35dff41a381156be161c2,22,Mężczyzna,2022-06-11_09h37.27.723,task,2021.1.4,Win32,59.79430758,6299f149e92ead563fba08ef,62a43db63a89f22d9e40be7f,,,,,,,,,,,,,,,,,,,,,,,,,,,,,,,,,,,,,,,,,,,,,,,,,,,,,,,,,,,,,,,,,,,,,,,,,,,,,,,,,,,,,,,,,,,,,,,,,,,,,
,,,,,,,,,,,,5eb35dff41a381156be161c2,22,Mężczyzna,2022-06-11_09h37.27.723,task,2021.1.4,Win32,59.79430758,6299f149e92ead563fba08ef,62a43db63a89f22d9e40be7f,zv,"[""z"",""v""]","[2.08480000001191,2.4451000000238423,3.396800000011922]",1,ZV,0,0,0,0,1,,,,,,,,,,,,,,,,,,,,,,,,,,,,,,,,,,,,,,,,,,,,,,,,,,,,,,,,,,,,,,,,,,,,,,,,,,,,,,,,,,,,,,,,,,,
,,,,,,0,0,0,0,1,X V Q F H G B L J M P D K C T S W R N Z,5eb35dff41a381156be161c2,22,Mężczyzna,2022-06-11_09h37.27.723,task,2021.1.4,Win32,59.79430758,6299f149e92ead563fba08ef,62a43db63a89f22d9e40be7f,,,,,,,,,,,,,,,,,,,,,,,,,,,,,,,,,,,,,,,,,,,,,,,,,,,,,,,,,,,,,,,,,,,,,,,,,,,,,,,,,,,,,,,,,,,,,,,,,,,,,
,,,,,,1,0,1,0,1,X V Q F H G B L J M P D K C T S W R N Z,5eb35dff41a381156be161c2,22,Mężczyzna,2022-06-11_09h37.27.723,task,2021.1.4,Win32,59.79430758,6299f149e92ead563fba08ef,62a43db63a89f22d9e40be7f,,,,,,,,,,,,,,,,,,,,,,,,,,,,,,,,,,,,,,,,,,,,,,,,,,,,,,,,,,,,,,,,,,,,,,,,,,,,,,,,,,,,,,,,,,,,,,,,,,,,,
,,,,,,,,,,,,5eb35dff41a381156be161c2,22,Mężczyzna,2022-06-11_09h37.27.723,task,2021.1.4,Win32,59.79430758,6299f149e92ead563fba08ef,62a43db63a89f22d9e40be7f,pk,"[""p"",""k""]","[0.7152000000477017,0.884700000047701,1.1990000000000123]",1,PK,1,0,1,0,1,,,,,,,,,,,,,,,,,,,,,,,,,,,,,,,,,,,,,,,,,,,,,,,,,,,,,,,,,,,,,,,,,,,,,,,,,,,,,,,,,,,,,,,,,,,
,,,,,,0,0,0,0,1,X V Q F H G B L J M P D K C T S W R N Z,5eb35dff41a381156be161c2,22,Mężczyzna,2022-06-11_09h37.27.723,task,2021.1.4,Win32,59.79430758,6299f149e92ead563fba08ef,62a43db63a89f22d9e40be7f,,,,,,,,,,,,,,,,,,,,,,,,,,,,,,,,,,,,,,,,,,,,,,,,,,,,,,,,,,,,,,,,,,,,,,,,,,,,,,,,,,,,,,,,,,,,,,,,,,,,,
,,,,,,1,0,1,0,1,X V Q F H G B L J M P D K C T S W R N Z,5eb35dff41a381156be161c2,22,Mężczyzna,2022-06-11_09h37.27.723,task,2021.1.4,Win32,59.79430758,6299f149e92ead563fba08ef,62a43db63a89f22d9e40be7f,,,,,,,,,,,,,,,,,,,,,,,,,,,,,,,,,,,,,,,,,,,,,,,,,,,,,,,,,,,,,,,,,,,,,,,,,,,,,,,,,,,,,,,,,,,,,,,,,,,,,
,,,,,,2,0,2,0,1,X V Q F H G B L J M P D K C T S W R N Z,5eb35dff41a381156be161c2,22,Mężczyzna,2022-06-11_09h37.27.723,task,2021.1.4,Win32,59.79430758,6299f149e92ead563fba08ef,62a43db63a89f22d9e40be7f,,,,,,,,,,,,,,,,,,,,,,,,,,,,,,,,,,,,,,,,,,,,,,,,,,,,,,,,,,,,,,,,,,,,,,,,,,,,,,,,,,,,,,,,,,,,,,,,,,,,,
,,,,,,,,,,,,5eb35dff41a381156be161c2,22,Mężczyzna,2022-06-11_09h37.27.723,task,2021.1.4,Win32,59.79430758,6299f149e92ead563fba08ef,62a43db63a89f22d9e40be7f,hxw,"[""h"",""x"",""w""]","[0.7388000000119348,0.8996000000238382,1.0586000000238585,1.2096999999880893]",1,HXW,2,0,2,0,1,,,,,,,,,,,,,,,,,,,,,,,,,,,,,,,,,,,,,,,,,,,,,,,,,,,,,,,,,,,,,,,,,,,,,,,,,,,,,,,,,,,,,,,,,,,
,,,,,,0,0,0,0,1,X V Q F H G B L J M P D K C T S W R N Z,5eb35dff41a381156be161c2,22,Mężczyzna,2022-06-11_09h37.27.723,task,2021.1.4,Win32,59.79430758,6299f149e92ead563fba08ef,62a43db63a89f22d9e40be7f,,,,,,,,,,,,,,,,,,,,,,,,,,,,,,,,,,,,,,,,,,,,,,,,,,,,,,,,,,,,,,,,,,,,,,,,,,,,,,,,,,,,,,,,,,,,,,,,,,,,,
,,,,,,1,0,1,0,1,X V Q F H G B L J M P D K C T S W R N Z,5eb35dff41a381156be161c2,22,Mężczyzna,2022-06-11_09h37.27.723,task,2021.1.4,Win32,59.79430758,6299f149e92ead563fba08ef,62a43db63a89f22d9e40be7f,,,,,,,,,,,,,,,,,,,,,,,,,,,,,,,,,,,,,,,,,,,,,,,,,,,,,,,,,,,,,,,,,,,,,,,,,,,,,,,,,,,,,,,,,,,,,,,,,,,,,
,,,,,,2,0,2,0,1,X V Q F H G B L J M P D K C T S W R N Z,5eb35dff41a381156be161c2,22,Mężczyzna,2022-06-11_09h37.27.723,task,2021.1.4,Win32,59.79430758,6299f149e92ead563fba08ef,62a43db63a89f22d9e40be7f,,,,,,,,,,,,,,,,,,,,,,,,,,,,,,,,,,,,,,,,,,,,,,,,,,,,,,,,,,,,,,,,,,,,,,,,,,,,,,,,,,,,,,,,,,,,,,,,,,,,,
,,,,,,,,,,,,5eb35dff41a381156be161c2,22,Mężczyzna,2022-06-11_09h37.27.723,task,2021.1.4,Win32,59.79430758,6299f149e92ead563fba08ef,62a43db63a89f22d9e40be7f,dvv,"[""d"",""v"",""v""]","[0.6681000000238555,0.878100000023835,1.0381000000238316,1.2681999999880702]",1,DVV,3,0,3,0,1,,,,,,,,,,,,,,,,,,,,,,,,,,,,,,,,,,,,,,,,,,,,,,,,,,,,,,,,,,,,,,,,,,,,,,,,,,,,,,,,,,,,,,,,,,,
,,,,,,0,0,0,0,1,X V Q F H G B L J M P D K C T S W R N Z,5eb35dff41a381156be161c2,22,Mężczyzna,2022-06-11_09h37.27.723,task,2021.1.4,Win32,59.79430758,6299f149e92ead563fba08ef,62a43db63a89f22d9e40be7f,,,,,,,,,,,,,,,,,,,,,,,,,,,,,,,,,,,,,,,,,,,,,,,,,,,,,,,,,,,,,,,,,,,,,,,,,,,,,,,,,,,,,,,,,,,,,,,,,,,,,
,,,,,,1,0,1,0,1,X V Q F H G B L J M P D K C T S W R N Z,5eb35dff41a381156be161c2,22,Mężczyzna,2022-06-11_09h37.27.723,task,2021.1.4,Win32,59.79430758,6299f149e92ead563fba08ef,62a43db63a89f22d9e40be7f,,,,,,,,,,,,,,,,,,,,,,,,,,,,,,,,,,,,,,,,,,,,,,,,,,,,,,,,,,,,,,,,,,,,,,,,,,,,,,,,,,,,,,,,,,,,,,,,,,,,,
,,,,,,2,0,2,0,1,X V Q F H G B L J M P D K C T S W R N Z,5eb35dff41a381156be161c2,22,Mężczyzna,2022-06-11_09h37.27.723,task,2021.1.4,Win32,59.79430758,6299f149e92ead563fba08ef,62a43db63a89f22d9e40be7f,,,,,,,,,,,,,,,,,,,,,,,,,,,,,,,,,,,,,,,,,,,,,,,,,,,,,,,,,,,,,,,,,,,,,,,,,,,,,,,,,,,,,,,,,,,,,,,,,,,,,
,,,,,,3,0,3,0,1,X V Q F H G B L J M P D K C T S W R N Z,5eb35dff41a381156be161c2,22,Mężczyzna,2022-06-11_09h37.27.723,task,2021.1.4,Win32,59.79430758,6299f149e92ead563fba08ef,62a43db63a89f22d9e40be7f,,,,,,,,,,,,,,,,,,,,,,,,,,,,,,,,,,,,,,,,,,,,,,,,,,,,,,,,,,,,,,,,,,,,,,,,,,,,,,,,,,,,,,,,,,,,,,,,,,,,,
,,,,,,,,,,,,5eb35dff41a381156be161c2,22,Mężczyzna,2022-06-11_09h37.27.723,task,2021.1.4,Win32,59.79430758,6299f149e92ead563fba08ef,62a43db63a89f22d9e40be7f,rfjk,"[""r"",""f"",""j"",""k""]","[0.6204999999999927,0.9264000000357555,1.2296999999880711,1.4704000000357667,1.7854000000357644]",1,RFJK,4,0,4,0,1,,,,,,,,,,,,,,,,,,,,,,,,,,,,,,,,,,,,,,,,,,,,,,,,,,,,,,,,,,,,,,,,,,,,,,,,,,,,,,,,,,,,,,,,,,,
,,,,,,0,0,0,0,1,X V Q F H G B L J M P D K C T S W R N Z,5eb35dff41a381156be161c2,22,Mężczyzna,2022-06-11_09h37.27.723,task,2021.1.4,Win32,59.79430758,6299f149e92ead563fba08ef,62a43db63a89f22d9e40be7f,,,,,,,,,,,,,,,,,,,,,,,,,,,,,,,,,,,,,,,,,,,,,,,,,,,,,,,,,,,,,,,,,,,,,,,,,,,,,,,,,,,,,,,,,,,,,,,,,,,,,
,,,,,,1,0,1,0,1,X V Q F H G B L J M P D K C T S W R N Z,5eb35dff41a381156be161c2,22,Mężczyzna,2022-06-11_09h37.27.723,task,2021.1.4,Win32,59.79430758,6299f149e92ead563fba08ef,62a43db63a89f22d9e40be7f,,,,,,,,,,,,,,,,,,,,,,,,,,,,,,,,,,,,,,,,,,,,,,,,,,,,,,,,,,,,,,,,,,,,,,,,,,,,,,,,,,,,,,,,,,,,,,,,,,,,,
,,,,,,2,0,2,0,1,X V Q F H G B L J M P D K C T S W R N Z,5eb35dff41a381156be161c2,22,Mężczyzna,2022-06-11_09h37.27.723,task,2021.1.4,Win32,59.79430758,6299f149e92ead563fba08ef,62a43db63a89f22d9e40be7f,,,,,,,,,,,,,,,,,,,,,,,,,,,,,,,,,,,,,,,,,,,,,,,,,,,,,,,,,,,,,,,,,,,,,,,,,,,,,,,,,,,,,,,,,,,,,,,,,,,,,
,,,,,,3,0,3,0,1,X V Q F H G B L J M P D K C T S W R N Z,5eb35dff41a381156be161c2,22,Mężczyzna,2022-06-11_09h37.27.723,task,2021.1.4,Win32,59.79430758,6299f149e92ead563fba08ef,62a43db63a89f22d9e40be7f,,,,,,,,,,,,,,,,,,,,,,,,,,,,,,,,,,,,,,,,,,,,,,,,,,,,,,,,,,,,,,,,,,,,,,,,,,,,,,,,,,,,,,,,,,,,,,,,,,,,,
,,,,,,,,,,,,5eb35dff41a381156be161c2,22,Mężczyzna,2022-06-11_09h37.27.723,task,2021.1.4,Win32,59.79430758,6299f149e92ead563fba08ef,62a43db63a89f22d9e40be7f,qxgl,"[""q"",""x"",""g"",""l""]","[0.8328000000119289,1.0805999999642495,1.2708999999761659,1.4726999999880945,2.0008000000119353]",1,QXGL,5,0,5,0,1,,,,,,,,,,,,,,,,,,,,,,,,,,,,,,,,,,,,,,,,,,,,,,,,,,,,,,,,,,,,,,,,,,,,,,,,,,,,,,,,,,,,,,,,,,,
,,,,,,0,0,0,0,1,X V Q F H G B L J M P D K C T S W R N Z,5eb35dff41a381156be161c2,22,Mężczyzna,2022-06-11_09h37.27.723,task,2021.1.4,Win32,59.79430758,6299f149e92ead563fba08ef,62a43db63a89f22d9e40be7f,,,,,,,,,,,,,,,,,,,,,,,,,,,,,,,,,,,,,,,,,,,,,,,,,,,,,,,,,,,,,,,,,,,,,,,,,,,,,,,,,,,,,,,,,,,,,,,,,,,,,
,,,,,,1,0,1,0,1,X V Q F H G B L J M P D K C T S W R N Z,5eb35dff41a381156be161c2,22,Mężczyzna,2022-06-11_09h37.27.723,task,2021.1.4,Win32,59.79430758,6299f149e92ead563fba08ef,62a43db63a89f22d9e40be7f,,,,,,,,,,,,,,,,,,,,,,,,,,,,,,,,,,,,,,,,,,,,,,,,,,,,,,,,,,,,,,,,,,,,,,,,,,,,,,,,,,,,,,,,,,,,,,,,,,,,,
,,,,,,2,0,2,0,1,X V Q F H G B L J M P D K C T S W R N Z,5eb35dff41a381156be161c2,22,Mężczyzna,2022-06-11_09h37.27.723,task,2021.1.4,Win32,59.79430758,6299f149e92ead563fba08ef,62a43db63a89f22d9e40be7f,,,,,,,,,,,,,,,,,,,,,,,,,,,,,,,,,,,,,,,,,,,,,,,,,,,,,,,,,,,,,,,,,,,,,,,,,,,,,,,,,,,,,,,,,,,,,,,,,,,,,
,,,,,,3,0,3,0,1,X V Q F H G B L J M P D K C T S W R N Z,5eb35dff41a381156be161c2,22,Mężczyzna,2022-06-11_09h37.27.723,task,2021.1.4,Win32,59.79430758,6299f149e92ead563fba08ef,62a43db63a89f22d9e40be7f,,,,,,,,,,,,,,,,,,,,,,,,,,,,,,,,,,,,,,,,,,,,,,,,,,,,,,,,,,,,,,,,,,,,,,,,,,,,,,,,,,,,,,,,,,,,,,,,,,,,,
,,,,,,4,0,4,0,1,X V Q F H G B L J M P D K C T S W R N Z,5eb35dff41a381156be161c2,22,Mężczyzna,2022-06-11_09h37.27.723,task,2021.1.4,Win32,59.79430758,6299f149e92ead563fba08ef,62a43db63a89f22d9e40be7f,,,,,,,,,,,,,,,,,,,,,,,,,,,,,,,,,,,,,,,,,,,,,,,,,,,,,,,,,,,,,,,,,,,,,,,,,,,,,,,,,,,,,,,,,,,,,,,,,,,,,
,,,,,,,,,,,,5eb35dff41a381156be161c2,22,Mężczyzna,2022-06-11_09h37.27.723,task,2021.1.4,Win32,59.79430758,6299f149e92ead563fba08ef,62a43db63a89f22d9e40be7f,hcqcd,"[""h"",""c"",""q"",""c"",""d""]","[0.40280000001192207,0.6836999999881073,0.9233999999761693,1.168500000000023,1.396000000000015,1.8913999999761586]",1,HCQCD,6,0,6,0,1,,,,,,,,,,,,,,,,,,,,,,,,,,,,,,,,,,,,,,,,,,,,,,,,,,,,,,,,,,,,,,,,,,,,,,,,,,,,,,,,,,,,,,,,,,,
,,,,,,0,0,0,0,1,X V Q F H G B L J M P D K C T S W R N Z,5eb35dff41a381156be161c2,22,Mężczyzna,2022-06-11_09h37.27.723,task,2021.1.4,Win32,59.79430758,6299f149e92ead563fba08ef,62a43db63a89f22d9e40be7f,,,,,,,,,,,,,,,,,,,,,,,,,,,,,,,,,,,,,,,,,,,,,,,,,,,,,,,,,,,,,,,,,,,,,,,,,,,,,,,,,,,,,,,,,,,,,,,,,,,,,
,,,,,,1,0,1,0,1,X V Q F H G B L J M P D K C T S W R N Z,5eb35dff41a381156be161c2,22,Mężczyzna,2022-06-11_09h37.27.723,task,2021.1.4,Win32,59.79430758,6299f149e92ead563fba08ef,62a43db63a89f22d9e40be7f,,,,,,,,,,,,,,,,,,,,,,,,,,,,,,,,,,,,,,,,,,,,,,,,,,,,,,,,,,,,,,,,,,,,,,,,,,,,,,,,,,,,,,,,,,,,,,,,,,,,,
,,,,,,2,0,2,0,1,X V Q F H G B L J M P D K C T S W R N Z,5eb35dff41a381156be161c2,22,Mężczyzna,2022-06-11_09h37.27.723,task,2021.1.4,Win32,59.79430758,6299f149e92ead563fba08ef,62a43db63a89f22d9e40be7f,,,,,,,,,,,,,,,,,,,,,,,,,,,,,,,,,,,,,,,,,,,,,,,,,,,,,,,,,,,,,,,,,,,,,,,,,,,,,,,,,,,,,,,,,,,,,,,,,,,,,
,,,,,,3,0,3,0,1,X V Q F H G B L J M P D K C T S W R N Z,5eb35dff41a381156be161c2,22,Mężczyzna,2022-06-11_09h37.27.723,task,2021.1.4,Win32,59.79430758,6299f149e92ead563fba08ef,62a43db63a89f22d9e40be7f,,,,,,,,,,,,,,,,,,,,,,,,,,,,,,,,,,,,,,,,,,,,,,,,,,,,,,,,,,,,,,,,,,,,,,,,,,,,,,,,,,,,,,,,,,,,,,,,,,,,,
,,,,,,4,0,4,0,1,X V Q F H G B L J M P D K C T S W R N Z,5eb35dff41a381156be161c2,22,Mężczyzna,2022-06-11_09h37.27.723,task,2021.1.4,Win32,59.79430758,6299f149e92ead563fba08ef,62a43db63a89f22d9e40be7f,,,,,,,,,,,,,,,,,,,,,,,,,,,,,,,,,,,,,,,,,,,,,,,,,,,,,,,,,,,,,,,,,,,,,,,,,,,,,,,,,,,,,,,,,,,,,,,,,,,,,
,,,,,,,,,,,,5eb35dff41a381156be161c2,22,Mężczyzna,2022-06-11_09h37.27.723,task,2021.1.4,Win32,59.79430758,6299f149e92ead563fba08ef,62a43db63a89f22d9e40be7f,xspjn,"[""x"",""s"",""p"",""j"",""n""]","[0.385699999988077,0.6918000000119093,1.2005999999642256,1.5035999999642229,1.9406999999880838,2.163499999999999]",1,XSPJN,7,0,7,0,1,,,,,,,,,,,,,,,,,,,,,,,,,,,,,,,,,,,,,,,,,,,,,,,,,,,,,,,,,,,,,,,,,,,,,,,,,,,,,,,,,,,,,,,,,,,
,,,,,,0,0,0,0,1,X V Q F H G B L J M P D K C T S W R N Z,5eb35dff41a381156be161c2,22,Mężczyzna,2022-06-11_09h37.27.723,task,2021.1.4,Win32,59.79430758,6299f149e92ead563fba08ef,62a43db63a89f22d9e40be7f,,,,,,,,,,,,,,,,,,,,,,,,,,,,,,,,,,,,,,,,,,,,,,,,,,,,,,,,,,,,,,,,,,,,,,,,,,,,,,,,,,,,,,,,,,,,,,,,,,,,,
,,,,,,1,0,1,0,1,X V Q F H G B L J M P D K C T S W R N Z,5eb35dff41a381156be161c2,22,Mężczyzna,2022-06-11_09h37.27.723,task,2021.1.4,Win32,59.79430758,6299f149e92ead563fba08ef,62a43db63a89f22d9e40be7f,,,,,,,,,,,,,,,,,,,,,,,,,,,,,,,,,,,,,,,,,,,,,,,,,,,,,,,,,,,,,,,,,,,,,,,,,,,,,,,,,,,,,,,,,,,,,,,,,,,,,
,,,,,,2,0,2,0,1,X V Q F H G B L J M P D K C T S W R N Z,5eb35dff41a381156be161c2,22,Mężczyzna,2022-06-11_09h37.27.723,task,2021.1.4,Win32,59.79430758,6299f149e92ead563fba08ef,62a43db63a89f22d9e40be7f,,,,,,,,,,,,,,,,,,,,,,,,,,,,,,,,,,,,,,,,,,,,,,,,,,,,,,,,,,,,,,,,,,,,,,,,,,,,,,,,,,,,,,,,,,,,,,,,,,,,,
,,,,,,3,0,3,0,1,X V Q F H G B L J M P D K C T S W R N Z,5eb35dff41a381156be161c2,22,Mężczyzna,2022-06-11_09h37.27.723,task,2021.1.4,Win32,59.79430758,6299f149e92ead563fba08ef,62a43db63a89f22d9e40be7f,,,,,,,,,,,,,,,,,,,,,,,,,,,,,,,,,,,,,,,,,,,,,,,,,,,,,,,,,,,,,,,,,,,,,,,,,,,,,,,,,,,,,,,,,,,,,,,,,,,,,
,,,,,,4,0,4,0,1,X V Q F H G B L J M P D K C T S W R N Z,5eb35dff41a381156be161c2,22,Mężczyzna,2022-06-11_09h37.27.723,task,2021.1.4,Win32,59.79430758,6299f149e92ead563fba08ef,62a43db63a89f22d9e40be7f,,,,,,,,,,,,,,,,,,,,,,,,,,,,,,,,,,,,,,,,,,,,,,,,,,,,,,,,,,,,,,,,,,,,,,,,,,,,,,,,,,,,,,,,,,,,,,,,,,,,,
,,,,,,5,0,5,0,1,X V Q F H G B L J M P D K C T S W R N Z,5eb35dff41a381156be161c2,22,Mężczyzna,2022-06-11_09h37.27.723,task,2021.1.4,Win32,59.79430758,6299f149e92ead563fba08ef,62a43db63a89f22d9e40be7f,,,,,,,,,,,,,,,,,,,,,,,,,,,,,,,,,,,,,,,,,,,,,,,,,,,,,,,,,,,,,,,,,,,,,,,,,,,,,,,,,,,,,,,,,,,,,,,,,,,,,
,,,,,,,,,,,,5eb35dff41a381156be161c2,22,Mężczyzna,2022-06-11_09h37.27.723,task,2021.1.4,Win32,59.79430758,6299f149e92ead563fba08ef,62a43db63a89f22d9e40be7f,mztsgz,"[""m"",""z"",""t"",""s"",""g"",""z""]","[0.36889999997617906,0.6038000000119155,1.0126000000238378,1.4420000000000073,2.367999999999995,2.666699999988083,2.927000000000021]",0,MZTSZG,8,0,8,0,1,,,,,,,,,,,,,,,,,,,,,,,,,,,,,,,,,,,,,,,,,,,,,,,,,,,,,,,,,,,,,,,,,,,,,,,,,,,,,,,,,,,,,,,,,,,
,,,,,,0,0,0,0,1,X V Q F H G B L J M P D K C T S W R N Z,5eb35dff41a381156be161c2,22,Mężczyzna,2022-06-11_09h37.27.723,task,2021.1.4,Win32,59.79430758,6299f149e92ead563fba08ef,62a43db63a89f22d9e40be7f,,,,,,,,,,,,,,,,,,,,,,,,,,,,,,,,,,,,,,,,,,,,,,,,,,,,,,,,,,,,,,,,,,,,,,,,,,,,,,,,,,,,,,,,,,,,,,,,,,,,,
,,,,,,1,0,1,0,1,X V Q F H G B L J M P D K C T S W R N Z,5eb35dff41a381156be161c2,22,Mężczyzna,2022-06-11_09h37.27.723,task,2021.1.4,Win32,59.79430758,6299f149e92ead563fba08ef,62a43db63a89f22d9e40be7f,,,,,,,,,,,,,,,,,,,,,,,,,,,,,,,,,,,,,,,,,,,,,,,,,,,,,,,,,,,,,,,,,,,,,,,,,,,,,,,,,,,,,,,,,,,,,,,,,,,,,
,,,,,,2,0,2,0,1,X V Q F H G B L J M P D K C T S W R N Z,5eb35dff41a381156be161c2,22,Mężczyzna,2022-06-11_09h37.27.723,task,2021.1.4,Win32,59.79430758,6299f149e92ead563fba08ef,62a43db63a89f22d9e40be7f,,,,,,,,,,,,,,,,,,,,,,,,,,,,,,,,,,,,,,,,,,,,,,,,,,,,,,,,,,,,,,,,,,,,,,,,,,,,,,,,,,,,,,,,,,,,,,,,,,,,,
,,,,,,3,0,3,0,1,X V Q F H G B L J M P D K C T S W R N Z,5eb35dff41a381156be161c2,22,Mężczyzna,2022-06-11_09h37.27.723,task,2021.1.4,Win32,59.79430758,6299f149e92ead563fba08ef,62a43db63a89f22d9e40be7f,,,,,,,,,,,,,,,,,,,,,,,,,,,,,,,,,,,,,,,,,,,,,,,,,,,,,,,,,,,,,,,,,,,,,,,,,,,,,,,,,,,,,,,,,,,,,,,,,,,,,
,,,,,,4,0,4,0,1,X V Q F H G B L J M P D K C T S W R N Z,5eb35dff41a381156be161c2,22,Mężczyzna,2022-06-11_09h37.27.723,task,2021.1.4,Win32,59.79430758,6299f149e92ead563fba08ef,62a43db63a89f22d9e40be7f,,,,,,,,,,,,,,,,,,,,,,,,,,,,,,,,,,,,,,,,,,,,,,,,,,,,,,,,,,,,,,,,,,,,,,,,,,,,,,,,,,,,,,,,,,,,,,,,,,,,,
,,,,,,5,0,5,0,1,X V Q F H G B L J M P D K C T S W R N Z,5eb35dff41a381156be161c2,22,Mężczyzna,2022-06-11_09h37.27.723,task,2021.1.4,Win32,59.79430758,6299f149e92ead563fba08ef,62a43db63a89f22d9e40be7f,,,,,,,,,,,,,,,,,,,,,,,,,,,,,,,,,,,,,,,,,,,,,,,,,,,,,,,,,,,,,,,,,,,,,,,,,,,,,,,,,,,,,,,,,,,,,,,,,,,,,
,,,,,,,,,,,,5eb35dff41a381156be161c2,22,Mężczyzna,2022-06-11_09h37.27.723,task,2021.1.4,Win32,59.79430758,6299f149e92ead563fba08ef,62a43db63a89f22d9e40be7f,sfmjhj,"[""s"",""f"",""m"",""j"",""h"",""j""]","[0.7334999999999923,1.7005000000000052,1.989300000011923,2.232300000011918,2.5184000000357685,2.988300000011918,4.382300000011924]",0,SMFJHN,9,0,9,0,1,,,,,,,,,,,,,,,,,,,,,,,,,,,,,,,,,,,,,,,,,,,,,,,,,,,,,,,,,,,,,,,,,,,,,,,,,,,,,,,,,,,,,,,,,,,
,,,,,,0,0,0,0,1,X V Q F H G B L J M P D K C T S W R N Z,5eb35dff41a381156be161c2,22,Mężczyzna,2022-06-11_09h37.27.723,task,2021.1.4,Win32,59.79430758,6299f149e92ead563fba08ef,62a43db63a89f22d9e40be7f,,,,,,,,,,,,,,,,,,,,,,,,,,,,,,,,,,,,,,,,,,,,,,,,,,,,,,,,,,,,,,,,,,,,,,,,,,,,,,,,,,,,,,,,,,,,,,,,,,,,,
,,,,,,1,0,1,0,1,X V Q F H G B L J M P D K C T S W R N Z,5eb35dff41a381156be161c2,22,Mężczyzna,2022-06-11_09h37.27.723,task,2021.1.4,Win32,59.79430758,6299f149e92ead563fba08ef,62a43db63a89f22d9e40be7f,,,,,,,,,,,,,,,,,,,,,,,,,,,,,,,,,,,,,,,,,,,,,,,,,,,,,,,,,,,,,,,,,,,,,,,,,,,,,,,,,,,,,,,,,,,,,,,,,,,,,
,,,,,,2,0,2,0,1,X V Q F H G B L J M P D K C T S W R N Z,5eb35dff41a381156be161c2,22,Mężczyzna,2022-06-11_09h37.27.723,task,2021.1.4,Win32,59.79430758,6299f149e92ead563fba08ef,62a43db63a89f22d9e40be7f,,,,,,,,,,,,,,,,,,,,,,,,,,,,,,,,,,,,,,,,,,,,,,,,,,,,,,,,,,,,,,,,,,,,,,,,,,,,,,,,,,,,,,,,,,,,,,,,,,,,,
,,,,,,3,0,3,0,1,X V Q F H G B L J M P D K C T S W R N Z,5eb35dff41a381156be161c2,22,Mężczyzna,2022-06-11_09h37.27.723,task,2021.1.4,Win32,59.79430758,6299f149e92ead563fba08ef,62a43db63a89f22d9e40be7f,,,,,,,,,,,,,,,,,,,,,,,,,,,,,,,,,,,,,,,,,,,,,,,,,,,,,,,,,,,,,,,,,,,,,,,,,,,,,,,,,,,,,,,,,,,,,,,,,,,,,
,,,,,,4,0,4,0,1,X V Q F H G B L J M P D K C T S W R N Z,5eb35dff41a381156be161c2,22,Mężczyzna,2022-06-11_09h37.27.723,task,2021.1.4,Win32,59.79430758,6299f149e92ead563fba08ef,62a43db63a89f22d9e40be7f,,,,,,,,,,,,,,,,,,,,,,,,,,,,,,,,,,,,,,,,,,,,,,,,,,,,,,,,,,,,,,,,,,,,,,,,,,,,,,,,,,,,,,,,,,,,,,,,,,,,,
,,,,,,5,0,5,0,1,X V Q F H G B L J M P D K C T S W R N Z,5eb35dff41a381156be161c2,22,Mężczyzna,2022-06-11_09h37.27.723,task,2021.1.4,Win32,59.79430758,6299f149e92ead563fba08ef,62a43db63a89f22d9e40be7f,,,,,,,,,,,,,,,,,,,,,,,,,,,,,,,,,,,,,,,,,,,,,,,,,,,,,,,,,,,,,,,,,,,,,,,,,,,,,,,,,,,,,,,,,,,,,,,,,,,,,
,,,,,,,,,,,,5eb35dff41a381156be161c2,22,Mężczyzna,2022-06-11_09h37.27.723,task,2021.1.4,Win32,59.79430758,6299f149e92ead563fba08ef,62a43db63a89f22d9e40be7f,kdbrrq,"[""k"",""d"",""b"",""r"",""r"",""q""]","[0.39150000000000773,0.6560000000000059,0.8700999999642249,1.1090000000000089,1.2773999999761543,1.5513000000119348,2.033699999988073]",1,KDBRRQ,10,0,10,0,1,,,,,,,,,,,,,,,,,,,,,,,,,,,,,,,,,,,,,,,,,,,,,,,,,,,,,,,,,,,,,,,,,,,,,,,,,,,,,,,,,,,,,,,,,,,
,,,,,,0,0,0,0,1,X V Q F H G B L J M P D K C T S W R N Z,5eb35dff41a381156be161c2,22,Mężczyzna,2022-06-11_09h37.27.723,task,2021.1.4,Win32,59.79430758,6299f149e92ead563fba08ef,62a43db63a89f22d9e40be7f,,,,,,,,,,,,,,,,,,,,,,,,,,,,,,,,,,,,,,,,,,,,,,,,,,,,,,,,,,,,,,,,,,,,,,,,,,,,,,,,,,,,,,,,,,,,,,,,,,,,,
,,,,,,1,0,1,0,1,X V Q F H G B L J M P D K C T S W R N Z,5eb35dff41a381156be161c2,22,Mężczyzna,2022-06-11_09h37.27.723,task,2021.1.4,Win32,59.79430758,6299f149e92ead563fba08ef,62a43db63a89f22d9e40be7f,,,,,,,,,,,,,,,,,,,,,,,,,,,,,,,,,,,,,,,,,,,,,,,,,,,,,,,,,,,,,,,,,,,,,,,,,,,,,,,,,,,,,,,,,,,,,,,,,,,,,
,,,,,,2,0,2,0,1,X V Q F H G B L J M P D K C T S W R N Z,5eb35dff41a381156be161c2,22,Mężczyzna,2022-06-11_09h37.27.723,task,2021.1.4,Win32,59.79430758,6299f149e92ead563fba08ef,62a43db63a89f22d9e40be7f,,,,,,,,,,,,,,,,,,,,,,,,,,,,,,,,,,,,,,,,,,,,,,,,,,,,,,,,,,,,,,,,,,,,,,,,,,,,,,,,,,,,,,,,,,,,,,,,,,,,,
,,,,,,3,0,3,0,1,X V Q F H G B L J M P D K C T S W R N Z,5eb35dff41a381156be161c2,22,Mężczyzna,2022-06-11_09h37.27.723,task,2021.1.4,Win32,59.79430758,6299f149e92ead563fba08ef,62a43db63a89f22d9e40be7f,,,,,,,,,,,,,,,,,,,,,,,,,,,,,,,,,,,,,,,,,,,,,,,,,,,,,,,,,,,,,,,,,,,,,,,,,,,,,,,,,,,,,,,,,,,,,,,,,,,,,
,,,,,,4,0,4,0,1,X V Q F H G B L J M P D K C T S W R N Z,5eb35dff41a381156be161c2,22,Mężczyzna,2022-06-11_09h37.27.723,task,2021.1.4,Win32,59.79430758,6299f149e92ead563fba08ef,62a43db63a89f22d9e40be7f,,,,,,,,,,,,,,,,,,,,,,,,,,,,,,,,,,,,,,,,,,,,,,,,,,,,,,,,,,,,,,,,,,,,,,,,,,,,,,,,,,,,,,,,,,,,,,,,,,,,,
,,,,,,5,0,5,0,1,X V Q F H G B L J M P D K C T S W R N Z,5eb35dff41a381156be161c2,22,Mężczyzna,2022-06-11_09h37.27.723,task,2021.1.4,Win32,59.79430758,6299f149e92ead563fba08ef,62a43db63a89f22d9e40be7f,,,,,,,,,,,,,,,,,,,,,,,,,,,,,,,,,,,,,,,,,,,,,,,,,,,,,,,,,,,,,,,,,,,,,,,,,,,,,,,,,,,,,,,,,,,,,,,,,,,,,
,,,,,,,,,,,,5eb35dff41a381156be161c2,22,Mężczyzna,2022-06-11_09h37.27.723,task,2021.1.4,Win32,59.79430758,6299f149e92ead563fba08ef,62a43db63a89f22d9e40be7f,pckqrr,"[""p"",""c"",""k"",""q"",""r"",""r""]","[0.4836000000238414,0.8678000000119255,1.117400000035758,1.3966999999880727,1.6503000000119243,1.7876999999880638,2.0010000000000048]",1,PCKQRR,11,0,11,0,1,,,,,,,,,,,,,,,,,,,,,,,,,,,,,,,,,,,,,,,,,,,,,,,,,,,,,,,,,,,,,,,,,,,,,,,,,,,,,,,,,,,,,,,,,,,
,,,,,,0,0,0,0,1,X V Q F H G B L J M P D K C T S W R N Z,5eb35dff41a381156be161c2,22,Mężczyzna,2022-06-11_09h37.27.723,task,2021.1.4,Win32,59.79430758,6299f149e92ead563fba08ef,62a43db63a89f22d9e40be7f,,,,,,,,,,,,,,,,,,,,,,,,,,,,,,,,,,,,,,,,,,,,,,,,,,,,,,,,,,,,,,,,,,,,,,,,,,,,,,,,,,,,,,,,,,,,,,,,,,,,,
,,,,,,1,0,1,0,1,X V Q F H G B L J M P D K C T S W R N Z,5eb35dff41a381156be161c2,22,Mężczyzna,2022-06-11_09h37.27.723,task,2021.1.4,Win32,59.79430758,6299f149e92ead563fba08ef,62a43db63a89f22d9e40be7f,,,,,,,,,,,,,,,,,,,,,,,,,,,,,,,,,,,,,,,,,,,,,,,,,,,,,,,,,,,,,,,,,,,,,,,,,,,,,,,,,,,,,,,,,,,,,,,,,,,,,
,,,,,,2,0,2,0,1,X V Q F H G B L J M P D K C T S W R N Z,5eb35dff41a381156be161c2,22,Mężczyzna,2022-06-11_09h37.27.723,task,2021.1.4,Win32,59.79430758,6299f149e92ead563fba08ef,62a43db63a89f22d9e40be7f,,,,,,,,,,,,,,,,,,,,,,,,,,,,,,,,,,,,,,,,,,,,,,,,,,,,,,,,,,,,,,,,,,,,,,,,,,,,,,,,,,,,,,,,,,,,,,,,,,,,,
,,,,,,3,0,3,0,1,X V Q F H G B L J M P D K C T S W R N Z,5eb35dff41a381156be161c2,22,Mężczyzna,2022-06-11_09h37.27.723,task,2021.1.4,Win32,59.79430758,6299f149e92ead563fba08ef,62a43db63a89f22d9e40be7f,,,,,,,,,,,,,,,,,,,,,,,,,,,,,,,,,,,,,,,,,,,,,,,,,,,,,,,,,,,,,,,,,,,,,,,,,,,,,,,,,,,,,,,,,,,,,,,,,,,,,
,,,,,,4,0,4,0,1,X V Q F H G B L J M P D K C T S W R N Z,5eb35dff41a381156be161c2,22,Mężczyzna,2022-06-11_09h37.27.723,task,2021.1.4,Win32,59.79430758,6299f149e92ead563fba08ef,62a43db63a89f22d9e40be7f,,,,,,,,,,,,,,,,,,,,,,,,,,,,,,,,,,,,,,,,,,,,,,,,,,,,,,,,,,,,,,,,,,,,,,,,,,,,,,,,,,,,,,,,,,,,,,,,,,,,,
,,,,,,5,0,5,0,1,X V Q F H G B L J M P D K C T S W R N Z,5eb35dff41a381156be161c2,22,Mężczyzna,2022-06-11_09h37.27.723,task,2021.1.4,Win32,59.79430758,6299f149e92ead563fba08ef,62a43db63a89f22d9e40be7f,,,,,,,,,,,,,,,,,,,,,,,,,,,,,,,,,,,,,,,,,,,,,,,,,,,,,,,,,,,,,,,,,,,,,,,,,,,,,,,,,,,,,,,,,,,,,,,,,,,,,
,,,,,,6,0,6,0,1,X V Q F H G B L J M P D K C T S W R N Z,5eb35dff41a381156be161c2,22,Mężczyzna,2022-06-11_09h37.27.723,task,2021.1.4,Win32,59.79430758,6299f149e92ead563fba08ef,62a43db63a89f22d9e40be7f,,,,,,,,,,,,,,,,,,,,,,,,,,,,,,,,,,,,,,,,,,,,,,,,,,,,,,,,,,,,,,,,,,,,,,,,,,,,,,,,,,,,,,,,,,,,,,,,,,,,,
,,,,,,,,,,,,5eb35dff41a381156be161c2,22,Mężczyzna,2022-06-11_09h37.27.723,task,2021.1.4,Win32,59.79430758,6299f149e92ead563fba08ef,62a43db63a89f22d9e40be7f,pcqlwb,"[""p"",""c"",""q"",""l"",""w"",""b""]","[0.4876000000238321,0.8731000000238396,2.002600000023847,2.324899999976168,3.441899999976158,3.6508999999761613,3.979100000023834]",0,KQGCLWB,12,0,12,0,1,,,,,,,,,,,,,,,,,,,,,,,,,,,,,,,,,,,,,,,,,,,,,,,,,,,,,,,,,,,,,,,,,,,,,,,,,,,,,,,,,,,,,,,,,,,
,,,,,,0,0,0,0,1,X V Q F H G B L J M P D K C T S W R N Z,5eb35dff41a381156be161c2,22,Mężczyzna,2022-06-11_09h37.27.723,task,2021.1.4,Win32,59.79430758,6299f149e92ead563fba08ef,62a43db63a89f22d9e40be7f,,,,,,,,,,,,,,,,,,,,,,,,,,,,,,,,,,,,,,,,,,,,,,,,,,,,,,,,,,,,,,,,,,,,,,,,,,,,,,,,,,,,,,,,,,,,,,,,,,,,,
,,,,,,1,0,1,0,1,X V Q F H G B L J M P D K C T S W R N Z,5eb35dff41a381156be161c2,22,Mężczyzna,2022-06-11_09h37.27.723,task,2021.1.4,Win32,59.79430758,6299f149e92ead563fba08ef,62a43db63a89f22d9e40be7f,,,,,,,,,,,,,,,,,,,,,,,,,,,,,,,,,,,,,,,,,,,,,,,,,,,,,,,,,,,,,,,,,,,,,,,,,,,,,,,,,,,,,,,,,,,,,,,,,,,,,
,,,,,,2,0,2,0,1,X V Q F H G B L J M P D K C T S W R N Z,5eb35dff41a381156be161c2,22,Mężczyzna,2022-06-11_09h37.27.723,task,2021.1.4,Win32,59.79430758,6299f149e92ead563fba08ef,62a43db63a89f22d9e40be7f,,,,,,,,,,,,,,,,,,,,,,,,,,,,,,,,,,,,,,,,,,,,,,,,,,,,,,,,,,,,,,,,,,,,,,,,,,,,,,,,,,,,,,,,,,,,,,,,,,,,,
,,,,,,3,0,3,0,1,X V Q F H G B L J M P D K C T S W R N Z,5eb35dff41a381156be161c2,22,Mężczyzna,2022-06-11_09h37.27.723,task,2021.1.4,Win32,59.79430758,6299f149e92ead563fba08ef,62a43db63a89f22d9e40be7f,,,,,,,,,,,,,,,,,,,,,,,,,,,,,,,,,,,,,,,,,,,,,,,,,,,,,,,,,,,,,,,,,,,,,,,,,,,,,,,,,,,,,,,,,,,,,,,,,,,,,
,,,,,,4,0,4,0,1,X V Q F H G B L J M P D K C T S W R N Z,5eb35dff41a381156be161c2,22,Mężczyzna,2022-06-11_09h37.27.723,task,2021.1.4,Win32,59.79430758,6299f149e92ead563fba08ef,62a43db63a89f22d9e40be7f,,,,,,,,,,,,,,,,,,,,,,,,,,,,,,,,,,,,,,,,,,,,,,,,,,,,,,,,,,,,,,,,,,,,,,,,,,,,,,,,,,,,,,,,,,,,,,,,,,,,,
,,,,,,5,0,5,0,1,X V Q F H G B L J M P D K C T S W R N Z,5eb35dff41a381156be161c2,22,Mężczyzna,2022-06-11_09h37.27.723,task,2021.1.4,Win32,59.79430758,6299f149e92ead563fba08ef,62a43db63a89f22d9e40be7f,,,,,,,,,,,,,,,,,,,,,,,,,,,,,,,,,,,,,,,,,,,,,,,,,,,,,,,,,,,,,,,,,,,,,,,,,,,,,,,,,,,,,,,,,,,,,,,,,,,,,
,,,,,,6,0,6,0,1,X V Q F H G B L J M P D K C T S W R N Z,5eb35dff41a381156be161c2,22,Mężczyzna,2022-06-11_09h37.27.723,task,2021.1.4,Win32,59.79430758,6299f149e92ead563fba08ef,62a43db63a89f22d9e40be7f,,,,,,,,,,,,,,,,,,,,,,,,,,,,,,,,,,,,,,,,,,,,,,,,,,,,,,,,,,,,,,,,,,,,,,,,,,,,,,,,,,,,,,,,,,,,,,,,,,,,,
,,,,,,,,,,,,5eb35dff41a381156be161c2,22,Mężczyzna,2022-06-11_09h37.27.723,task,2021.1.4,Win32,59.79430758,6299f149e92ead563fba08ef,62a43db63a89f22d9e40be7f,pdhcwl,"[""p"",""d"",""h"",""c"",""w"",""l""]","[0.7501999999880695,1.305100000023856,1.586999999999989,1.934199999988067,3.6473000000118816,3.672300000011859,4.60740000003571]",0,PDHCPWW,13,0,13,0,1,,,,,,,,,,,,,,,,,,,,,,,,,,,,,,,,,,,,,,,,,,,,,,,,,,,,,,,,,,,,,,,,,,,,,,,,,,,,,,,,,,,,,,,,,,,
,,,,,,0,0,0,0,1,X V Q F H G B L J M P D K C T S W R N Z,5eb35dff41a381156be161c2,22,Mężczyzna,2022-06-11_09h37.27.723,task,2021.1.4,Win32,59.79430758,6299f149e92ead563fba08ef,62a43db63a89f22d9e40be7f,,,,,,,,,,,,,,,,,,,,,,,,,,,,,,,,,,,,,,,,,,,,,,,,,,,,,,,,,,,,,,,,,,,,,,,,,,,,,,,,,,,,,,,,,,,,,,,,,,,,,
,,,,,,1,0,1,0,1,X V Q F H G B L J M P D K C T S W R N Z,5eb35dff41a381156be161c2,22,Mężczyzna,2022-06-11_09h37.27.723,task,2021.1.4,Win32,59.79430758,6299f149e92ead563fba08ef,62a43db63a89f22d9e40be7f,,,,,,,,,,,,,,,,,,,,,,,,,,,,,,,,,,,,,,,,,,,,,,,,,,,,,,,,,,,,,,,,,,,,,,,,,,,,,,,,,,,,,,,,,,,,,,,,,,,,,
,,,,,,2,0,2,0,1,X V Q F H G B L J M P D K C T S W R N Z,5eb35dff41a381156be161c2,22,Mężczyzna,2022-06-11_09h37.27.723,task,2021.1.4,Win32,59.79430758,6299f149e92ead563fba08ef,62a43db63a89f22d9e40be7f,,,,,,,,,,,,,,,,,,,,,,,,,,,,,,,,,,,,,,,,,,,,,,,,,,,,,,,,,,,,,,,,,,,,,,,,,,,,,,,,,,,,,,,,,,,,,,,,,,,,,
,,,,,,3,0,3,0,1,X V Q F H G B L J M P D K C T S W R N Z,5eb35dff41a381156be161c2,22,Mężczyzna,2022-06-11_09h37.27.723,task,2021.1.4,Win32,59.79430758,6299f149e92ead563fba08ef,62a43db63a89f22d9e40be7f,,,,,,,,,,,,,,,,,,,,,,,,,,,,,,,,,,,,,,,,,,,,,,,,,,,,,,,,,,,,,,,,,,,,,,,,,,,,,,,,,,,,,,,,,,,,,,,,,,,,,
,,,,,,4,0,4,0,1,X V Q F H G B L J M P D K C T S W R N Z,5eb35dff41a381156be161c2,22,Mężczyzna,2022-06-11_09h37.27.723,task,2021.1.4,Win32,59.79430758,6299f149e92ead563fba08ef,62a43db63a89f22d9e40be7f,,,,,,,,,,,,,,,,,,,,,,,,,,,,,,,,,,,,,,,,,,,,,,,,,,,,,,,,,,,,,,,,,,,,,,,,,,,,,,,,,,,,,,,,,,,,,,,,,,,,,
,,,,,,5,0,5,0,1,X V Q F H G B L J M P D K C T S W R N Z,5eb35dff41a381156be161c2,22,Mężczyzna,2022-06-11_09h37.27.723,task,2021.1.4,Win32,59.79430758,6299f149e92ead563fba08ef,62a43db63a89f22d9e40be7f,,,,,,,,,,,,,,,,,,,,,,,,,,,,,,,,,,,,,,,,,,,,,,,,,,,,,,,,,,,,,,,,,,,,,,,,,,,,,,,,,,,,,,,,,,,,,,,,,,,,,
,,,,,,6,0,6,0,1,X V Q F H G B L J M P D K C T S W R N Z,5eb35dff41a381156be161c2,22,Mężczyzna,2022-06-11_09h37.27.723,task,2021.1.4,Win32,59.79430758,6299f149e92ead563fba08ef,62a43db63a89f22d9e40be7f,,,,,,,,,,,,,,,,,,,,,,,,,,,,,,,,,,,,,,,,,,,,,,,,,,,,,,,,,,,,,,,,,,,,,,,,,,,,,,,,,,,,,,,,,,,,,,,,,,,,,
,,,,,,,,,,,,5eb35dff41a381156be161c2,22,Mężczyzna,2022-06-11_09h37.27.723,task,2021.1.4,Win32,59.79430758,6299f149e92ead563fba08ef,62a43db63a89f22d9e40be7f,xnckvh,"[""x"",""n"",""c"",""k"",""v"",""h""]","[0.5381999999880804,0.7485999999642559,1.3466999999880613,1.6900999999642181,2.1268999999761604,2.8825999999642704,4.562799999952347]",0,XNCKVKH,14,0,14,0,1,,,,,,,,,,,,,,,,,,,,,,,,,,,,,,,,,,,,,,,,,,,,,,,,,,,,,,,,,,,,,,,,,,,,,,,,,,,,,,,,,,,,,,,,,,,
,,,,,,,,,,,,5eb35dff41a381156be161c2,22,Mężczyzna,2022-06-11_09h37.27.723,task,2021.1.4,Win32,59.79430758,6299f149e92ead563fba08ef,62a43db63a89f22d9e40be7f,,,,,,,,,,,space,7.233,3,"[""3""]",1,[6.438499999999976],[6.438499999999976],0,0,0,3,1,Practice,4,(8/4) + 1,3,,,,,,,,,,,,,,,,,,,,,,,,,,,,,,,,,,,,,,,,,,,,,,,,,,,,,,,,,,,,,,,,,,,,,,,,,,,
,,,,,,,,,,,,5eb35dff41a381156be161c2,22,Mężczyzna,2022-06-11_09h37.27.723,task,2021.1.4,Win32,59.79430758,6299f149e92ead563fba08ef,62a43db63a89f22d9e40be7f,,,,,,,,,,,,,5,"[""5""]",1,[2.1404999999999745],"[6.438499999999976,2.1404999999999745]",0,1,1,5,1,Practice,6,(4/2) + 3,5,,,,,,,,,,,,,,,,,,,,,,,,,,,,,,,,,,,,,,,,,,,,,,,,,,,,,,,,,,,,,,,,,,,,,,,,,,,
,,,,,,,,,,,,5eb35dff41a381156be161c2,22,Mężczyzna,2022-06-11_09h37.27.723,task,2021.1.4,Win32,59.79430758,6299f149e92ead563fba08ef,62a43db63a89f22d9e40be7f,,,,,,,,,,,,,5,"[""5""]",0,[4.338399999976161],"[6.438499999999976,2.1404999999999745,4.338399999976161]",0,2,2,6,1,Practice,7,(25/5) + 1,6,,,,,,,,,,,,,,,,,,,,,,,,,,,,,,,,,,,,,,,,,,,,,,,,,,,,,,,,,,,,,,,,,,,,,,,,,,,
,,,,,,,,,,,,5eb35dff41a381156be161c2,22,Mężczyzna,2022-06-11_09h37.27.723,task,2021.1.4,Win32,59.79430758,6299f149e92ead563fba08ef,62a43db63a89f22d9e40be7f,,,,,,,,,,,,,8,"[""8""]",1,[3.2685000000000173],"[6.438499999999976,2.1404999999999745,4.338399999976161,3.2685000000000173]",0,3,3,8,1,Practice,9,(3x3) - 1,8,,,,,,,,,,,,,,,,,,,,,,,,,,,,,,,,,,,,,,,,,,,,,,,,,,,,,,,,,,,,,,,,,,,,,,,,,,,
,,,,,,,,,,,,5eb35dff41a381156be161c2,22,Mężczyzna,2022-06-11_09h37.27.723,task,2021.1.4,Win32,59.79430758,6299f149e92ead563fba08ef,62a43db63a89f22d9e40be7f,,,,,,,,,,,,,9,"[""9""]",1,[2.4155000000000086],"[6.438499999999976,2.1404999999999745,4.338399999976161,3.2685000000000173,2.4155000000000086]",0,4,4,9,1,Practice,10,(20/2) - 1,9,,,,,,,,,,,,,,,,,,,,,,,,,,,,,,,,,,,,,,,,,,,,,,,,,,,,,,,,,,,,,,,,,,,,,,,,,,,
,,,,,,,,,,,,5eb35dff41a381156be161c2,22,Mężczyzna,2022-06-11_09h37.27.723,task,2021.1.4,Win32,59.79430758,6299f149e92ead563fba08ef,62a43db63a89f22d9e40be7f,,,,,,,,,,,,,1,"[""1""]",1,[3.3161999999881004],"[6.438499999999976,2.1404999999999745,4.338399999976161,3.2685000000000173,2.4155000000000086,3.3161999999881004]",0,5,5,1,1,Practice,2,(4x4) - 15,1,,,,,,,,,,,,,,,,,,,,,,,,,,,,,,,,,,,,,,,,,,,,,,,,,,,,,,,,,,,,,,,,,,,,,,,,,,,
,,,,,,,,,,,,5eb35dff41a381156be161c2,22,Mężczyzna,2022-06-11_09h37.27.723,task,2021.1.4,Win32,59.79430758,6299f149e92ead563fba08ef,62a43db63a89f22d9e40be7f,,,,,,,,,,,,,4,"[""4""]",1,[4.086300000011931],"[6.438499999999976,2.1404999999999745,4.338399999976161,3.2685000000000173,2.4155000000000086,3.3161999999881004,4.086300000011931]",0,6,6,4,1,Practice,5,(2x6) - 8,4,,,,,,,,,,,,,,,,,,,,,,,,,,,,,,,,,,,,,,,,,,,,,,,,,,,,,,,,,,,,,,,,,,,,,,,,,,,
,,,,,,,,,,,,5eb35dff41a381156be161c2,22,Mężczyzna,2022-06-11_09h37.27.723,task,2021.1.4,Win32,59.79430758,6299f149e92ead563fba08ef,62a43db63a89f22d9e40be7f,,,,,,,,,,,,,0,"[""0""]",1,[2.3668999999761127],"[6.438499999999976,2.1404999999999745,4.338399999976161,3.2685000000000173,2.4155000000000086,3.3161999999881004,4.086300000011931,2.3668999999761127]",0,7,7,0,1,Practice,1,(3x3) -  9,0,,,,,,,,,,,,,,,,,,,,,,,,,,,,,,,,,,,,,,,,,,,,,,,,,,,,,,,,,,,,,,,,,,,,,,,,,,,
,,,,,,,,,,,,5eb35dff41a381156be161c2,22,Mężczyzna,2022-06-11_09h37.27.723,task,2021.1.4,Win32,59.79430758,6299f149e92ead563fba08ef,62a43db63a89f22d9e40be7f,,,,,,,,,,,,,7,"[""7""]",1,[2.5372999999523245],"[6.438499999999976,2.1404999999999745,4.338399999976161,3.2685000000000173,2.4155000000000086,3.3161999999881004,4.086300000011931,2.3668999999761127,2.5372999999523245]",0,8,8,7,1,Practice,8,(5x5) - 18,7,,,,,,,,,,,,,,,,,,,,,,,,,,,,,,,,,,,,,,,,,,,,,,,,,,,,,,,,,,,,,,,,,,,,,,,,,,,
,,,,,,,,,,,,5eb35dff41a381156be161c2,22,Mężczyzna,2022-06-11_09h37.27.723,task,2021.1.4,Win32,59.79430758,6299f149e92ead563fba08ef,62a43db63a89f22d9e40be7f,,,,,,,,,,,,,2,"[""2""]",1,[3.2820999999642027],"[6.438499999999976,2.1404999999999745,4.338399999976161,3.2685000000000173,2.4155000000000086,3.3161999999881004,4.086300000011931,2.3668999999761127,2.5372999999523245,3.2820999999642027]",0,9,9,2,1,Practice,3,(4x4) - 14,2,,,,,,,,,,,,,,,,,,,,,,,,,,,,,,,,,,,,,,,,,,,,,,,,,,,,,,,,,,,,,,,,,,,,,,,,,,,
,,,,,,,,,,,,5eb35dff41a381156be161c2,22,Mężczyzna,2022-06-11_09h37.27.723,task,2021.1.4,Win32,59.79430758,6299f149e92ead563fba08ef,62a43db63a89f22d9e40be7f,,,,,,,,,,,,,,,,,,,,,,,,,,,0.9,34.1902,2.279346667,27.97436246,1.365634467,5.802683592,space,1.6105,0,0,0,0,1,,,,,,,,,,,,,,,,,,,,,,,,,,,,,,,,,,,,,,,,,,,,,,,,,,,,,,,,,,,,,,
,,,,,,,,,,,,5eb35dff41a381156be161c2,22,Mężczyzna,2022-06-11_09h37.27.723,task,2021.1.4,Win32,59.79430758,6299f149e92ead563fba08ef,62a43db63a89f22d9e40be7f,,,,,,,,,,,,,7,,,,,,,,,,Practice,8,(5x5) - 18,7,,,,,,,,,,,,,,space,13.7511,"[""7""]",1,[2.4562000000477155],1,0,0,0,7,1,,,,,,,,,,,,,,,,,,,,,,,,,,,,,,,,,,,,,,,,,,,,,,,,,,,
,,,,,,,,,,,X V Q F H G B L J M P D K C T S W R N Z,5eb35dff41a381156be161c2,22,Mężczyzna,2022-06-11_09h37.27.723,task,2021.1.4,Win32,59.79430758,6299f149e92ead563fba08ef,62a43db63a89f22d9e40be7f,,,,,,,,,,,,,,,,,,,,,,,,,,,,,,,,,,,,,,,,,,,,,,,,,,,0,0,0,0,1,,,,,,,,,,,,,,,,,,,,,,,,,,,,,,,,,,,,,,,,,,,,,,
,,,,,,,,,,,,5eb35dff41a381156be161c2,22,Mężczyzna,2022-06-11_09h37.27.723,task,2021.1.4,Win32,59.79430758,6299f149e92ead563fba08ef,62a43db63a89f22d9e40be7f,,,,,,,,,,,,,8,,,,,,,,,,Practice,9,(3x3) - 1,8,,,,,,,,,,,,,,,,"[""8""]",1,[1.9191999999880522],1,0,0,0,8,1,,,,,,,,,,,,,,,,,,,,,,,,,,,,,,,,,,,,,,,,,,,,,,,,,,,
,,,,,,,,,,,X V Q F H G B L J M P D K C T S W R N Z,5eb35dff41a381156be161c2,22,Mężczyzna,2022-06-11_09h37.27.723,task,2021.1.4,Win32,59.79430758,6299f149e92ead563fba08ef,62a43db63a89f22d9e40be7f,,,,,,,,,,,,,,,,,,,,,,,,,,,,,,,,,,,,,,,,,,,,,,,,,,,1,0,1,0,1,,,,,,,,,,,,,,,,,,,,,,,,,,,,,,,,,,,,,,,,,,,,,,
,,,,,,,,,,,,5eb35dff41a381156be161c2,22,Mężczyzna,2022-06-11_09h37.27.723,task,2021.1.4,Win32,59.79430758,6299f149e92ead563fba08ef,62a43db63a89f22d9e40be7f,,,,,,,,,,,,,,,,,,,,,,,,,,,,,,,,,,,,,,,,,,,,,,,,,,,,,,,,zh,"[""z"",""h""]",0,"[1.3852000000476892,1.4759000000357787,1.9375]",1,0,0,0,0,1,,,,,,,,,,,,,,,,,,,,,,,,,,,,,,,,,,,,
,,,,,,,,,,,,5eb35dff41a381156be161c2,22,Mężczyzna,2022-06-11_09h37.27.723,task,2021.1.4,Win32,59.79430758,6299f149e92ead563fba08ef,62a43db63a89f22d9e40be7f,,,,,,,,,,,,,6,,,,,,,,,,Practice,7,(25/5) + 1,6,,,,,,,,,,,,,,,,"[""6""]",1,[4.166600000023834],1,0,0,0,6,1,,,,,,,,,,,,,,,,,,,,,,,,,,,,,,,,,,,,,,,,,,,,,,,,,,,
,,,,,,,,,,,X V Q F H G B L J M P D K C T S W R N Z,5eb35dff41a381156be161c2,22,Mężczyzna,2022-06-11_09h37.27.723,task,2021.1.4,Win32,59.79430758,6299f149e92ead563fba08ef,62a43db63a89f22d9e40be7f,,,,,,,,,,,,,,,,,,,,,,,,,,,,,,,,,,,,,,,,,,,,,,,,,,,0,0,0,0,1,,,,,,,,,,,,,,,,,,,,,,,,,,,,,,,,,,,,,,,,,,,,,,
,,,,,,,,,,,,5eb35dff41a381156be161c2,22,Mężczyzna,2022-06-11_09h37.27.723,task,2021.1.4,Win32,59.79430758,6299f149e92ead563fba08ef,62a43db63a89f22d9e40be7f,,,,,,,,,,,,,4,,,,,,,,,,Practice,5,(2x6) - 8,4,,,,,,,,,,,,,,,,"[""4""]",1,[1.8338000000118768],1,0,0,0,4,1,,,,,,,,,,,,,,,,,,,,,,,,,,,,,,,,,,,,,,,,,,,,,,,,,,,
,,,,,,,,,,,X V Q F H G B L J M P D K C T S W R N Z,5eb35dff41a381156be161c2,22,Mężczyzna,2022-06-11_09h37.27.723,task,2021.1.4,Win32,59.79430758,6299f149e92ead563fba08ef,62a43db63a89f22d9e40be7f,,,,,,,,,,,,,,,,,,,,,,,,,,,,,,,,,,,,,,,,,,,,,,,,,,,1,0,1,0,1,,,,,,,,,,,,,,,,,,,,,,,,,,,,,,,,,,,,,,,,,,,,,,
,,,,,,,,,,,,5eb35dff41a381156be161c2,22,Mężczyzna,2022-06-11_09h37.27.723,task,2021.1.4,Win32,59.79430758,6299f149e92ead563fba08ef,62a43db63a89f22d9e40be7f,,,,,,,,,,,,,,,,,,,,,,,,,,,,,,,,,,,,,,,,,,,,,,,,,,,,,,,,sj,"[""s"",""j""]",0,"[1.0350999999641886,1.1591999999880613,1.5013999999761154]",1,1,0,1,0,1,,,,,,,,,,,,,,,,,,,,,,,,,,,,,,,,,,,,
,,,,,,,,,,,,5eb35dff41a381156be161c2,22,Mężczyzna,2022-06-11_09h37.27.723,task,2021.1.4,Win32,59.79430758,6299f149e92ead563fba08ef,62a43db63a89f22d9e40be7f,,,,,,,,,,,,,3,,,,,,,,,,Practice,4,(8/4) + 1,3,,,,,,,,,,,,,,,,"[""3""]",1,[2.1453999999761777],1,0,0,0,3,1,,,,,,,,,,,,,,,,,,,,,,,,,,,,,,,,,,,,,,,,,,,,,,,,,,,
,,,,,,,,,,,X V Q F H G B L J M P D K C T S W R N Z,5eb35dff41a381156be161c2,22,Mężczyzna,2022-06-11_09h37.27.723,task,2021.1.4,Win32,59.79430758,6299f149e92ead563fba08ef,62a43db63a89f22d9e40be7f,,,,,,,,,,,,,,,,,,,,,,,,,,,,,,,,,,,,,,,,,,,,,,,,,,,0,0,0,0,1,,,,,,,,,,,,,,,,,,,,,,,,,,,,,,,,,,,,,,,,,,,,,,
,,,,,,,,,,,,5eb35dff41a381156be161c2,22,Mężczyzna,2022-06-11_09h37.27.723,task,2021.1.4,Win32,59.79430758,6299f149e92ead563fba08ef,62a43db63a89f22d9e40be7f,,,,,,,,,,,,,3,,,,,,,,,,Practice,4,(8/4) + 1,3,,,,,,,,,,,,,,,,"[""3""]",1,[1.9564000000357282],1,0,0,0,3,1,,,,,,,,,,,,,,,,,,,,,,,,,,,,,,,,,,,,,,,,,,,,,,,,,,,
,,,,,,,,,,,X V Q F H G B L J M P D K C T S W R N Z,5eb35dff41a381156be161c2,22,Mężczyzna,2022-06-11_09h37.27.723,task,2021.1.4,Win32,59.79430758,6299f149e92ead563fba08ef,62a43db63a89f22d9e40be7f,,,,,,,,,,,,,,,,,,,,,,,,,,,,,,,,,,,,,,,,,,,,,,,,,,,1,0,1,0,1,,,,,,,,,,,,,,,,,,,,,,,,,,,,,,,,,,,,,,,,,,,,,,
,,,,,,,,,,,,5eb35dff41a381156be161c2,22,Mężczyzna,2022-06-11_09h37.27.723,task,2021.1.4,Win32,59.79430758,6299f149e92ead563fba08ef,62a43db63a89f22d9e40be7f,,,,,,,,,,,,,,,,,,,,,,,,,,,,,,,,,,,,,,,,,,,,,,,,,,,,,,,,zq,"[""z"",""q""]",0,"[1.127199999988079,1.4110000000000014,1.8460000000000036]",1,2,0,2,0,1,,,,,,,,,,,,,,,,,,,,,,,,,,,,,,,,,,,,
,,,,,,,,,,,,5eb35dff41a381156be161c2,22,Mężczyzna,2022-06-11_09h37.27.723,task,2021.1.4,Win32,59.79430758,6299f149e92ead563fba08ef,62a43db63a89f22d9e40be7f,,,,,,,,,,,,,4,,,,,,,,,,Task,11,(18/3) - 2,4,,,,,,,,,,,,,,,,,,,1,,,,,,,,,,,,,,,,,,,,,space,11.5072,"[""4""]",1,[5.485500000000002],0,0,0,10,1,,,,,,,,,,,,,,,,,,,,,,,,,,
,,,,,,,,,,,X V Q F H G B L J M P D K C T S W R N Z,5eb35dff41a381156be161c2,22,Mężczyzna,2022-06-11_09h37.27.723,task,2021.1.4,Win32,59.79430758,6299f149e92ead563fba08ef,62a43db63a89f22d9e40be7f,,,,,,,,,,,,,,,,,,,,,,,,,,,,,,,,,,,,,,,,,,,,,,,,,,,,,,,,,,,,,,,,,,,,,,,,,,,,0,0,0,0,1,,,,,,,,,,,,,,,,,,,,,
,,,,,,,,,,,,5eb35dff41a381156be161c2,22,Mężczyzna,2022-06-11_09h37.27.723,task,2021.1.4,Win32,59.79430758,6299f149e92ead563fba08ef,62a43db63a89f22d9e40be7f,,,,,,,,,,,,,5,,,,,,,,,,Task,12,(4x4) - 11,5,,,,,,,,,,,,,,,,,,,1,,,,,,,,,,,,,,,,,,,,,,,"[""5""]",1,[2.5159000000357423],0,0,0,11,1,,,,,,,,,,,,,,,,,,,,,,,,,,
,,,,,,,,,,,X V Q F H G B L J M P D K C T S W R N Z,5eb35dff41a381156be161c2,22,Mężczyzna,2022-06-11_09h37.27.723,task,2021.1.4,Win32,59.79430758,6299f149e92ead563fba08ef,62a43db63a89f22d9e40be7f,,,,,,,,,,,,,,,,,,,,,,,,,,,,,,,,,,,,,,,,,,,,,,,,,,,,,,,,,,,,,,,,,,,,,,,,,,,,1,0,1,0,1,,,,,,,,,,,,,,,,,,,,,
,,,,,,,,,,,,5eb35dff41a381156be161c2,22,Mężczyzna,2022-06-11_09h37.27.723,task,2021.1.4,Win32,59.79430758,6299f149e92ead563fba08ef,62a43db63a89f22d9e40be7f,,,,,,,,,,,,,,,,,,,,,,,,,,,,,,,,,,,,,,,,,,,,,,,,,,,,,,,,,,,,,,,,,,,,,,,,,,,,,,,,,zn,"[""z"",""n""]",0,"[1.0000999999642204,1.1835999999642013,1.4258999999761386]",1,ZN,0,0,0,0,1,,,,,,,,,,
,,,,,,,,,,,,5eb35dff41a381156be161c2,22,Mężczyzna,2022-06-11_09h37.27.723,task,2021.1.4,Win32,59.79430758,6299f149e92ead563fba08ef,62a43db63a89f22d9e40be7f,,,,,,,,,,,,,4,,,,,,,,,,Task,21,(10/2) - 1,4,,,,,,,,,,,,,,,,,,,1,,,,,,,,,,,,,,,,,,,,,,,"[""4""]",1,[1.6063999999761336],0,0,0,20,1,,,,,,,,,,,,,,,,,,,,,,,,,,
,,,,,,,,,,,X V Q F H G B L J M P D K C T S W R N Z,5eb35dff41a381156be161c2,22,Mężczyzna,2022-06-11_09h37.27.723,task,2021.1.4,Win32,59.79430758,6299f149e92ead563fba08ef,62a43db63a89f22d9e40be7f,,,,,,,,,,,,,,,,,,,,,,,,,,,,,,,,,,,,,,,,,,,,,,,,,,,,,,,,,,,,,,,,,,,,,,,,,,,,0,0,0,0,1,,,,,,,,,,,,,,,,,,,,,
,,,,,,,,,,,,5eb35dff41a381156be161c2,22,Mężczyzna,2022-06-11_09h37.27.723,task,2021.1.4,Win32,59.79430758,6299f149e92ead563fba08ef,62a43db63a89f22d9e40be7f,,,,,,,,,,,,,1,,,,,,,,,,Task,1,(12/6) - 1,1,,,,,,,,,,,,,,,,,,,1,,,,,,,,,,,,,,,,,,,,,,,"[""1""]",1,[2.9460999999642468],0,0,0,0,1,,,,,,,,,,,,,,,,,,,,,,,,,,
,,,,,,,,,,,X V Q F H G B L J M P D K C T S W R N Z,5eb35dff41a381156be161c2,22,Mężczyzna,2022-06-11_09h37.27.723,task,2021.1.4,Win32,59.79430758,6299f149e92ead563fba08ef,62a43db63a89f22d9e40be7f,,,,,,,,,,,,,,,,,,,,,,,,,,,,,,,,,,,,,,,,,,,,,,,,,,,,,,,,,,,,,,,,,,,,,,,,,,,,1,0,1,0,1,,,,,,,,,,,,,,,,,,,,,
,,,,,,,,,,,,5eb35dff41a381156be161c2,22,Mężczyzna,2022-06-11_09h37.27.723,task,2021.1.4,Win32,59.79430758,6299f149e92ead563fba08ef,62a43db63a89f22d9e40be7f,,,,,,,,,,,,,6,,,,,,,,,,Task,37,(3/3) + 5,6,,,,,,,,,,,,,,,,,,,1,,,,,,,,,,,,,,,,,,,,,,,"[""6""]",1,[5.339199999988068],0,0,0,36,1,,,,,,,,,,,,,,,,,,,,,,,,,,
,,,,,,,,,,,X V Q F H G B L J M P D K C T S W R N Z,5eb35dff41a381156be161c2,22,Mężczyzna,2022-06-11_09h37.27.723,task,2021.1.4,Win32,59.79430758,6299f149e92ead563fba08ef,62a43db63a89f22d9e40be7f,,,,,,,,,,,,,,,,,,,,,,,,,,,,,,,,,,,,,,,,,,,,,,,,,,,,,,,,,,,,,,,,,,,,,,,,,,,,2,0,2,0,1,,,,,,,,,,,,,,,,,,,,,
,,,,,,,,,,,,5eb35dff41a381156be161c2,22,Mężczyzna,2022-06-11_09h37.27.723,task,2021.1.4,Win32,59.79430758,6299f149e92ead563fba08ef,62a43db63a89f22d9e40be7f,,,,,,,,,,,,,,,,,,,,,,,,,,,,,,,,,,,,,,,,,,,,,,,,,,,,,,,,,,,,,,,,,,,,,,,,,,,,,,,,,wdf,"[""w"",""d"",""f""]",0,"[0.9647999999523336,1.1846999999880836,1.4427999999522854,1.6833999999761318]",1,WDF,1,0,1,0,1,,,,,,,,,,
,,,,,,,,,,,,5eb35dff41a381156be161c2,22,Mężczyzna,2022-06-11_09h37.27.723,task,2021.1.4,Win32,59.79430758,6299f149e92ead563fba08ef,62a43db63a89f22d9e40be7f,,,,,,,,,,,,,5,,,,,,,,,,Task,12,(4x4) - 11,5,,,,,,,,,,,,,,,,,,,1,,,,,,,,,,,,,,,,,,,,,,,"[""5""]",1,[3.0869000000357687],0,0,0,11,1,,,,,,,,,,,,,,,,,,,,,,,,,,
,,,,,,,,,,,X V Q F H G B L J M P D K C T S W R N Z,5eb35dff41a381156be161c2,22,Mężczyzna,2022-06-11_09h37.27.723,task,2021.1.4,Win32,59.79430758,6299f149e92ead563fba08ef,62a43db63a89f22d9e40be7f,,,,,,,,,,,,,,,,,,,,,,,,,,,,,,,,,,,,,,,,,,,,,,,,,,,,,,,,,,,,,,,,,,,,,,,,,,,,0,0,0,0,1,,,,,,,,,,,,,,,,,,,,,
,,,,,,,,,,,,5eb35dff41a381156be161c2,22,Mężczyzna,2022-06-11_09h37.27.723,task,2021.1.4,Win32,59.79430758,6299f149e92ead563fba08ef,62a43db63a89f22d9e40be7f,,,,,,,,,,,,,4,,,,,,,,,,Task,28,(2x5) - 6,4,,,,,,,,,,,,,,,,,,,1,,,,,,,,,,,,,,,,,,,,,,,"[""4""]",1,[4.635599999964256],0,0,0,27,1,,,,,,,,,,,,,,,,,,,,,,,,,,
,,,,,,,,,,,X V Q F H G B L J M P D K C T S W R N Z,5eb35dff41a381156be161c2,22,Mężczyzna,2022-06-11_09h37.27.723,task,2021.1.4,Win32,59.79430758,6299f149e92ead563fba08ef,62a43db63a89f22d9e40be7f,,,,,,,,,,,,,,,,,,,,,,,,,,,,,,,,,,,,,,,,,,,,,,,,,,,,,,,,,,,,,,,,,,,,,,,,,,,,1,0,1,0,1,,,,,,,,,,,,,,,,,,,,,
,,,,,,,,,,,,5eb35dff41a381156be161c2,22,Mężczyzna,2022-06-11_09h37.27.723,task,2021.1.4,Win32,59.79430758,6299f149e92ead563fba08ef,62a43db63a89f22d9e40be7f,,,,,,,,,,,,,9,,,,,,,,,,Task,7,(3x7) - 12,9,,,,,,,,,,,,,,,,,,,1,,,,,,,,,,,,,,,,,,,,,,,"[""9""]",1,[4.750100000023849],0,0,0,6,1,,,,,,,,,,,,,,,,,,,,,,,,,,
,,,,,,,,,,,X V Q F H G B L J M P D K C T S W R N Z,5eb35dff41a381156be161c2,22,Mężczyzna,2022-06-11_09h37.27.723,task,2021.1.4,Win32,59.79430758,6299f149e92ead563fba08ef,62a43db63a89f22d9e40be7f,,,,,,,,,,,,,,,,,,,,,,,,,,,,,,,,,,,,,,,,,,,,,,,,,,,,,,,,,,,,,,,,,,,,,,,,,,,,2,0,2,0,1,,,,,,,,,,,,,,,,,,,,,
,,,,,,,,,,,,5eb35dff41a381156be161c2,22,Mężczyzna,2022-06-11_09h37.27.723,task,2021.1.4,Win32,59.79430758,6299f149e92ead563fba08ef,62a43db63a89f22d9e40be7f,,,,,,,,,,,,,4,,,,,,,,,,Task,11,(18/3) - 2,4,,,,,,,,,,,,,,,,,,,1,,,,,,,,,,,,,,,,,,,,,,,"[""4""]",1,[3.5085000000000264],0,0,0,10,1,,,,,,,,,,,,,,,,,,,,,,,,,,
,,,,,,,,,,,X V Q F H G B L J M P D K C T S W R N Z,5eb35dff41a381156be161c2,22,Mężczyzna,2022-06-11_09h37.27.723,task,2021.1.4,Win32,59.79430758,6299f149e92ead563fba08ef,62a43db63a89f22d9e40be7f,,,,,,,,,,,,,,,,,,,,,,,,,,,,,,,,,,,,,,,,,,,,,,,,,,,,,,,,,,,,,,,,,,,,,,,,,,,,3,0,3,0,1,,,,,,,,,,,,,,,,,,,,,
,,,,,,,,,,,,5eb35dff41a381156be161c2,22,Mężczyzna,2022-06-11_09h37.27.723,task,2021.1.4,Win32,59.79430758,6299f149e92ead563fba08ef,62a43db63a89f22d9e40be7f,,,,,,,,,,,,,,,,,,,,,,,,,,,,,,,,,,,,,,,,,,,,,,,,,,,,,,,,,,,,,,,,,,,,,,,,,,,,,,,,,rpqx,"[""r"",""p"",""q"",""x""]",0,"[0.8848000000119214,1.1251999999880695,1.2786999999880777,1.5768000000119287,2.067800000011914]",1,RPQX,2,0,2,0,1,,,,,,,,,,
,,,,,,,,,,,,5eb35dff41a381156be161c2,22,Mężczyzna,2022-06-11_09h37.27.723,task,2021.1.4,Win32,59.79430758,6299f149e92ead563fba08ef,62a43db63a89f22d9e40be7f,,,,,,,,,,,,,9,,,,,,,,,,Task,24,(2x2) + 5,9,,,,,,,,,,,,,,,,,,,1,,,,,,,,,,,,,,,,,,,,,,,"[""9""]",1,[2.5084999999999695],0,0,0,23,1,,,,,,,,,,,,,,,,,,,,,,,,,,
,,,,,,,,,,,X V Q F H G B L J M P D K C T S W R N Z,5eb35dff41a381156be161c2,22,Mężczyzna,2022-06-11_09h37.27.723,task,2021.1.4,Win32,59.79430758,6299f149e92ead563fba08ef,62a43db63a89f22d9e40be7f,,,,,,,,,,,,,,,,,,,,,,,,,,,,,,,,,,,,,,,,,,,,,,,,,,,,,,,,,,,,,,,,,,,,,,,,,,,,0,0,0,0,1,,,,,,,,,,,,,,,,,,,,,
,,,,,,,,,,,,5eb35dff41a381156be161c2,22,Mężczyzna,2022-06-11_09h37.27.723,task,2021.1.4,Win32,59.79430758,6299f149e92ead563fba08ef,62a43db63a89f22d9e40be7f,,,,,,,,,,,,,1,,,,,,,,,,Task,34,(9/3) - 2,1,,,,,,,,,,,,,,,,,,,1,,,,,,,,,,,,,,,,,,,,,,,"[""1""]",1,[3.633300000011957],0,0,0,33,1,,,,,,,,,,,,,,,,,,,,,,,,,,
,,,,,,,,,,,X V Q F H G B L J M P D K C T S W R N Z,5eb35dff41a381156be161c2,22,Mężczyzna,2022-06-11_09h37.27.723,task,2021.1.4,Win32,59.79430758,6299f149e92ead563fba08ef,62a43db63a89f22d9e40be7f,,,,,,,,,,,,,,,,,,,,,,,,,,,,,,,,,,,,,,,,,,,,,,,,,,,,,,,,,,,,,,,,,,,,,,,,,,,,1,0,1,0,1,,,,,,,,,,,,,,,,,,,,,
,,,,,,,,,,,,5eb35dff41a381156be161c2,22,Mężczyzna,2022-06-11_09h37.27.723,task,2021.1.4,Win32,59.79430758,6299f149e92ead563fba08ef,62a43db63a89f22d9e40be7f,,,,,,,,,,,,,2,,,,,,,,,,Task,26,(2x9) - 16,2,,,,,,,,,,,,,,,,,,,1,,,,,,,,,,,,,,,,,,,,,,,"[""2""]",1,[1.5773000000119168],0,0,0,25,1,,,,,,,,,,,,,,,,,,,,,,,,,,
,,,,,,,,,,,X V Q F H G B L J M P D K C T S W R N Z,5eb35dff41a381156be161c2,22,Mężczyzna,2022-06-11_09h37.27.723,task,2021.1.4,Win32,59.79430758,6299f149e92ead563fba08ef,62a43db63a89f22d9e40be7f,,,,,,,,,,,,,,,,,,,,,,,,,,,,,,,,,,,,,,,,,,,,,,,,,,,,,,,,,,,,,,,,,,,,,,,,,,,,2,0,2,0,1,,,,,,,,,,,,,,,,,,,,,
,,,,,,,,,,,,5eb35dff41a381156be161c2,22,Mężczyzna,2022-06-11_09h37.27.723,task,2021.1.4,Win32,59.79430758,6299f149e92ead563fba08ef,62a43db63a89f22d9e40be7f,,,,,,,,,,,,,1,,,,,,,,,,Task,18,(16/4) - 3,1,,,,,,,,,,,,,,,,,,,1,,,,,,,,,,,,,,,,,,,,,,,"[""1""]",1,[3.4739999999999895],0,0,0,17,1,,,,,,,,,,,,,,,,,,,,,,,,,,
,,,,,,,,,,,X V Q F H G B L J M P D K C T S W R N Z,5eb35dff41a381156be161c2,22,Mężczyzna,2022-06-11_09h37.27.723,task,2021.1.4,Win32,59.79430758,6299f149e92ead563fba08ef,62a43db63a89f22d9e40be7f,,,,,,,,,,,,,,,,,,,,,,,,,,,,,,,,,,,,,,,,,,,,,,,,,,,,,,,,,,,,,,,,,,,,,,,,,,,,3,0,3,0,1,,,,,,,,,,,,,,,,,,,,,
,,,,,,,,,,,,5eb35dff41a381156be161c2,22,Mężczyzna,2022-06-11_09h37.27.723,task,2021.1.4,Win32,59.79430758,6299f149e92ead563fba08ef,62a43db63a89f22d9e40be7f,,,,,,,,,,,,,4,,,,,,,,,,Task,11,(18/3) - 2,4,,,,,,,,,,,,,,,,,,,1,,,,,,,,,,,,,,,,,,,,,,,"[""4""]",1,[2.8648000000119396],0,0,0,10,1,,,,,,,,,,,,,,,,,,,,,,,,,,
,,,,,,,,,,,X V Q F H G B L J M P D K C T S W R N Z,5eb35dff41a381156be161c2,22,Mężczyzna,2022-06-11_09h37.27.723,task,2021.1.4,Win32,59.79430758,6299f149e92ead563fba08ef,62a43db63a89f22d9e40be7f,,,,,,,,,,,,,,,,,,,,,,,,,,,,,,,,,,,,,,,,,,,,,,,,,,,,,,,,,,,,,,,,,,,,,,,,,,,,4,0,4,0,1,,,,,,,,,,,,,,,,,,,,,
,,,,,,,,,,,,5eb35dff41a381156be161c2,22,Mężczyzna,2022-06-11_09h37.27.723,task,2021.1.4,Win32,59.79430758,6299f149e92ead563fba08ef,62a43db63a89f22d9e40be7f,,,,,,,,,,,,,,,,,,,,,,,,,,,,,,,,,,,,,,,,,,,,,,,,,,,,,,,,,,,,,,,,,,,,,,,,,,,,,,,,,zrmqr,"[""z"",""r"",""m"",""q"",""r""]",0,"[0.9518000000119287,1.2313999999761904,1.4991000000238728,2.402600000023881,2.743000000000052,3.12889999997617]",1,ZRMQR,3,0,3,0,1,,,,,,,,,,
,,,,,,,,,,,,5eb35dff41a381156be161c2,22,Mężczyzna,2022-06-11_09h37.27.723,task,2021.1.4,Win32,59.79430758,6299f149e92ead563fba08ef,62a43db63a89f22d9e40be7f,,,,,,,,,,,,,0,,,,,,,,,,Task,8,(1x5) - 5,0,,,,,,,,,,,,,,,,,,,1,,,,,,,,,,,,,,,,,,,,,,,"[""0""]",1,[2.120099999964225],0,0,0,7,1,,,,,,,,,,,,,,,,,,,,,,,,,,
,,,,,,,,,,,X V Q F H G B L J M P D K C T S W R N Z,5eb35dff41a381156be161c2,22,Mężczyzna,2022-06-11_09h37.27.723,task,2021.1.4,Win32,59.79430758,6299f149e92ead563fba08ef,62a43db63a89f22d9e40be7f,,,,,,,,,,,,,,,,,,,,,,,,,,,,,,,,,,,,,,,,,,,,,,,,,,,,,,,,,,,,,,,,,,,,,,,,,,,,0,0,0,0,1,,,,,,,,,,,,,,,,,,,,,
,,,,,,,,,,,,5eb35dff41a381156be161c2,22,Mężczyzna,2022-06-11_09h37.27.723,task,2021.1.4,Win32,59.79430758,6299f149e92ead563fba08ef,62a43db63a89f22d9e40be7f,,,,,,,,,,,,,2,,,,,,,,,,Task,2,(2x2) - 2,2,,,,,,,,,,,,,,,,,,,1,,,,,,,,,,,,,,,,,,,,,,,"[""2""]",1,[1.6056999999880759],0,0,0,1,1,,,,,,,,,,,,,,,,,,,,,,,,,,
,,,,,,,,,,,X V Q F H G B L J M P D K C T S W R N Z,5eb35dff41a381156be161c2,22,Mężczyzna,2022-06-11_09h37.27.723,task,2021.1.4,Win32,59.79430758,6299f149e92ead563fba08ef,62a43db63a89f22d9e40be7f,,,,,,,,,,,,,,,,,,,,,,,,,,,,,,,,,,,,,,,,,,,,,,,,,,,,,,,,,,,,,,,,,,,,,,,,,,,,1,0,1,0,1,,,,,,,,,,,,,,,,,,,,,
,,,,,,,,,,,,5eb35dff41a381156be161c2,22,Mężczyzna,2022-06-11_09h37.27.723,task,2021.1.4,Win32,59.79430758,6299f149e92ead563fba08ef,62a43db63a89f22d9e40be7f,,,,,,,,,,,,,0,,,,,,,,,,Task,8,(1x5) - 5,0,,,,,,,,,,,,,,,,,,,1,,,,,,,,,,,,,,,,,,,,,,,"[""0""]",1,[2.72329999995236],0,0,0,7,1,,,,,,,,,,,,,,,,,,,,,,,,,,
,,,,,,,,,,,X V Q F H G B L J M P D K C T S W R N Z,5eb35dff41a381156be161c2,22,Mężczyzna,2022-06-11_09h37.27.723,task,2021.1.4,Win32,59.79430758,6299f149e92ead563fba08ef,62a43db63a89f22d9e40be7f,,,,,,,,,,,,,,,,,,,,,,,,,,,,,,,,,,,,,,,,,,,,,,,,,,,,,,,,,,,,,,,,,,,,,,,,,,,,2,0,2,0,1,,,,,,,,,,,,,,,,,,,,,
,,,,,,,,,,,,5eb35dff41a381156be161c2,22,Mężczyzna,2022-06-11_09h37.27.723,task,2021.1.4,Win32,59.79430758,6299f149e92ead563fba08ef,62a43db63a89f22d9e40be7f,,,,,,,,,,,,,6,,,,,,,,,,Task,30,(6/3) + 4 ,6,,,,,,,,,,,,,,,,,,,1,,,,,,,,,,,,,,,,,,,,,,,"[""6""]",1,[2.643000000000029],0,0,0,29,1,,,,,,,,,,,,,,,,,,,,,,,,,,
,,,,,,,,,,,X V Q F H G B L J M P D K C T S W R N Z,5eb35dff41a381156be161c2,22,Mężczyzna,2022-06-11_09h37.27.723,task,2021.1.4,Win32,59.79430758,6299f149e92ead563fba08ef,62a43db63a89f22d9e40be7f,,,,,,,,,,,,,,,,,,,,,,,,,,,,,,,,,,,,,,,,,,,,,,,,,,,,,,,,,,,,,,,,,,,,,,,,,,,,3,0,3,0,1,,,,,,,,,,,,,,,,,,,,,
,,,,,,,,,,,,5eb35dff41a381156be161c2,22,Mężczyzna,2022-06-11_09h37.27.723,task,2021.1.4,Win32,59.79430758,6299f149e92ead563fba08ef,62a43db63a89f22d9e40be7f,,,,,,,,,,,,,6,,,,,,,,,,Task,30,(6/3) + 4 ,6,,,,,,,,,,,,,,,,,,,1,,,,,,,,,,,,,,,,,,,,,,,"[""6""]",1,[2.4024000000357546],0,0,0,29,1,,,,,,,,,,,,,,,,,,,,,,,,,,
,,,,,,,,,,,X V Q F H G B L J M P D K C T S W R N Z,5eb35dff41a381156be161c2,22,Mężczyzna,2022-06-11_09h37.27.723,task,2021.1.4,Win32,59.79430758,6299f149e92ead563fba08ef,62a43db63a89f22d9e40be7f,,,,,,,,,,,,,,,,,,,,,,,,,,,,,,,,,,,,,,,,,,,,,,,,,,,,,,,,,,,,,,,,,,,,,,,,,,,,4,0,4,0,1,,,,,,,,,,,,,,,,,,,,,
,,,,,,,,,,,,5eb35dff41a381156be161c2,22,Mężczyzna,2022-06-11_09h37.27.723,task,2021.1.4,Win32,59.79430758,6299f149e92ead563fba08ef,62a43db63a89f22d9e40be7f,,,,,,,,,,,,,1,,,,,,,,,,Task,34,(9/3) - 2,1,,,,,,,,,,,,,,,,,,,1,,,,,,,,,,,,,,,,,,,,,,,"[""1""]",1,[5.230100000023867],0,0,0,33,1,,,,,,,,,,,,,,,,,,,,,,,,,,
,,,,,,,,,,,X V Q F H G B L J M P D K C T S W R N Z,5eb35dff41a381156be161c2,22,Mężczyzna,2022-06-11_09h37.27.723,task,2021.1.4,Win32,59.79430758,6299f149e92ead563fba08ef,62a43db63a89f22d9e40be7f,,,,,,,,,,,,,,,,,,,,,,,,,,,,,,,,,,,,,,,,,,,,,,,,,,,,,,,,,,,,,,,,,,,,,,,,,,,,5,0,5,0,1,,,,,,,,,,,,,,,,,,,,,
,,,,,,,,,,,,5eb35dff41a381156be161c2,22,Mężczyzna,2022-06-11_09h37.27.723,task,2021.1.4,Win32,59.79430758,6299f149e92ead563fba08ef,62a43db63a89f22d9e40be7f,,,,,,,,,,,,,,,,,,,,,,,,,,,,,,,,,,,,,,,,,,,,,,,,,,,,,,,,,,,,,,,,,,,,,,,,,,,,,,,,,zjzvdx,"[""z"",""j"",""z"",""v"",""d"",""x""]",0,"[1.490300000011871,1.9241999999881045,6.267199999988065,6.883899999976165,7.974300000011908,9.700399999976185,10.134000000000015]",0,XJZVDW,4,0,4,0,1,,,,,,,,,,
,,,,,,,,,,,,5eb35dff41a381156be161c2,22,Mężczyzna,2022-06-11_09h37.27.723,task,2021.1.4,Win32,59.79430758,6299f149e92ead563fba08ef,62a43db63a89f22d9e40be7f,,,,,,,,,,,,,4,,,,,,,,,,Task,4,(1x5) - 1,4,,,,,,,,,,,,,,,,,,,1,,,,,,,,,,,,,,,,,,,,,,,"[""4""]",1,[5.317100000023856],0,0,0,3,1,,,,,,,,,,,,,,,,,,,,,,,,,,
,,,,,,,,,,,X V Q F H G B L J M P D K C T S W R N Z,5eb35dff41a381156be161c2,22,Mężczyzna,2022-06-11_09h37.27.723,task,2021.1.4,Win32,59.79430758,6299f149e92ead563fba08ef,62a43db63a89f22d9e40be7f,,,,,,,,,,,,,,,,,,,,,,,,,,,,,,,,,,,,,,,,,,,,,,,,,,,,,,,,,,,,,,,,,,,,,,,,,,,,0,0,0,0,1,,,,,,,,,,,,,,,,,,,,,
,,,,,,,,,,,,5eb35dff41a381156be161c2,22,Mężczyzna,2022-06-11_09h37.27.723,task,2021.1.4,Win32,59.79430758,6299f149e92ead563fba08ef,62a43db63a89f22d9e40be7f,,,,,,,,,,,,,8,,,,,,,,,,Task,39,(5x3) - 7,8,,,,,,,,,,,,,,,,,,,1,,,,,,,,,,,,,,,,,,,,,,,"[""8""]",1,[2.150699999988092],0,0,0,38,1,,,,,,,,,,,,,,,,,,,,,,,,,,
,,,,,,,,,,,X V Q F H G B L J M P D K C T S W R N Z,5eb35dff41a381156be161c2,22,Mężczyzna,2022-06-11_09h37.27.723,task,2021.1.4,Win32,59.79430758,6299f149e92ead563fba08ef,62a43db63a89f22d9e40be7f,,,,,,,,,,,,,,,,,,,,,,,,,,,,,,,,,,,,,,,,,,,,,,,,,,,,,,,,,,,,,,,,,,,,,,,,,,,,1,0,1,0,1,,,,,,,,,,,,,,,,,,,,,
,,,,,,,,,,,,5eb35dff41a381156be161c2,22,Mężczyzna,2022-06-11_09h37.27.723,task,2021.1.4,Win32,59.79430758,6299f149e92ead563fba08ef,62a43db63a89f22d9e40be7f,,,,,,,,,,,,,1,,,,,,,,,,Task,34,(9/3) - 2,1,,,,,,,,,,,,,,,,,,,1,,,,,,,,,,,,,,,,,,,,,,,"[""1""]",1,[2.9951000000238537],0,0,0,33,1,,,,,,,,,,,,,,,,,,,,,,,,,,
,,,,,,,,,,,X V Q F H G B L J M P D K C T S W R N Z,5eb35dff41a381156be161c2,22,Mężczyzna,2022-06-11_09h37.27.723,task,2021.1.4,Win32,59.79430758,6299f149e92ead563fba08ef,62a43db63a89f22d9e40be7f,,,,,,,,,,,,,,,,,,,,,,,,,,,,,,,,,,,,,,,,,,,,,,,,,,,,,,,,,,,,,,,,,,,,,,,,,,,,2,0,2,0,1,,,,,,,,,,,,,,,,,,,,,
,,,,,,,,,,,,5eb35dff41a381156be161c2,22,Mężczyzna,2022-06-11_09h37.27.723,task,2021.1.4,Win32,59.79430758,6299f149e92ead563fba08ef,62a43db63a89f22d9e40be7f,,,,,,,,,,,,,2,,,,,,,,,,Task,2,(2x2) - 2,2,,,,,,,,,,,,,,,,,,,1,,,,,,,,,,,,,,,,,,,,,,,"[""2""]",1,[4.244800000011992],0,0,0,1,1,,,,,,,,,,,,,,,,,,,,,,,,,,
,,,,,,,,,,,X V Q F H G B L J M P D K C T S W R N Z,5eb35dff41a381156be161c2,22,Mężczyzna,2022-06-11_09h37.27.723,task,2021.1.4,Win32,59.79430758,6299f149e92ead563fba08ef,62a43db63a89f22d9e40be7f,,,,,,,,,,,,,,,,,,,,,,,,,,,,,,,,,,,,,,,,,,,,,,,,,,,,,,,,,,,,,,,,,,,,,,,,,,,,3,0,3,0,1,,,,,,,,,,,,,,,,,,,,,
,,,,,,,,,,,,5eb35dff41a381156be161c2,22,Mężczyzna,2022-06-11_09h37.27.723,task,2021.1.4,Win32,59.79430758,6299f149e92ead563fba08ef,62a43db63a89f22d9e40be7f,,,,,,,,,,,,,,,,,,,,,,,Task,3,(2x3) - 3,3,,,,,,,,,,,,,,,,,,,0,,,,,,,,,,,,,,,,,,,,,,,,0,,0,0,0,2,1,,,,,,,,,,,,,,,,,,,,,,,,,,
,,,,,,,,,,,,5eb35dff41a381156be161c2,22,Mężczyzna,2022-06-11_09h37.27.723,task,2021.1.4,Win32,59.79430758,6299f149e92ead563fba08ef,62a43db63a89f22d9e40be7f,,,,,,,,,,,,,3,,,,,,,,,,Task,27,(3/3) + 2,3,,,,,,,,,,,,,,,,,,,1,,,,,,,,,,,,,,,,,,,,,,,"[""3""]",1,[2.286299999952348],0,1,1,26,1,,,,,,,,,,,,,,,,,,,,,,,,,,
,,,,,,,,,,,X V Q F H G B L J M P D K C T S W R N Z,5eb35dff41a381156be161c2,22,Mężczyzna,2022-06-11_09h37.27.723,task,2021.1.4,Win32,59.79430758,6299f149e92ead563fba08ef,62a43db63a89f22d9e40be7f,,,,,,,,,,,,,,,,,,,,,,,,,,,,,,,,,,,,,,,,,,,,,,,,,,,,,,,,,,,,,,,,,,,,,,,,,,,,4,0,4,0,1,,,,,,,,,,,,,,,,,,,,,
,,,,,,,,,,,,5eb35dff41a381156be161c2,22,Mężczyzna,2022-06-11_09h37.27.723,task,2021.1.4,Win32,59.79430758,6299f149e92ead563fba08ef,62a43db63a89f22d9e40be7f,,,,,,,,,,,,,3,,,,,,,,,,Task,3,(2x3) - 3,3,,,,,,,,,,,,,,,,,,,1,,,,,,,,,,,,,,,,,,,,,,,"[""3""]",1,[4.528399999976159],0,0,0,2,1,,,,,,,,,,,,,,,,,,,,,,,,,,
,,,,,,,,,,,X V Q F H G B L J M P D K C T S W R N Z,5eb35dff41a381156be161c2,22,Mężczyzna,2022-06-11_09h37.27.723,task,2021.1.4,Win32,59.79430758,6299f149e92ead563fba08ef,62a43db63a89f22d9e40be7f,,,,,,,,,,,,,,,,,,,,,,,,,,,,,,,,,,,,,,,,,,,,,,,,,,,,,,,,,,,,,,,,,,,,,,,,,,,,5,0,5,0,1,,,,,,,,,,,,,,,,,,,,,
,,,,,,,,,,,,5eb35dff41a381156be161c2,22,Mężczyzna,2022-06-11_09h37.27.723,task,2021.1.4,Win32,59.79430758,6299f149e92ead563fba08ef,62a43db63a89f22d9e40be7f,,,,,,,,,,,,,,,,,,,,,,,,,,,,,,,,,,,,,,,,,,,,,,,,,,,,,,,,,,,,,,,,,,,,,,,,,,,,,,,,,rksctc,"[""r"",""k"",""s"",""c"",""t"",""c""]",0,"[2.3700000000000045,2.6693999999761218,3.0020000000000664,3.433599999964258,4.158599999964281,4.6375000000000455,5.244599999964294]",1,RKSCTC,5,0,5,0,1,,,,,,,,,,
,,,,,,,,,,,,5eb35dff41a381156be161c2,22,Mężczyzna,2022-06-11_09h37.27.723,task,2021.1.4,Win32,59.79430758,6299f149e92ead563fba08ef,62a43db63a89f22d9e40be7f,,,,,,,,,,,,,3,,,,,,,,,,Task,3,(2x3) - 3,3,,,,,,,,,,,,,,,,,,,1,,,,,,,,,,,,,,,,,,,,,,,"[""3""]",1,[2.2244000000357573],0,0,0,2,1,,,,,,,,,,,,,,,,,,,,,,,,,,
,,,,,,,,,,,X V Q F H G B L J M P D K C T S W R N Z,5eb35dff41a381156be161c2,22,Mężczyzna,2022-06-11_09h37.27.723,task,2021.1.4,Win32,59.79430758,6299f149e92ead563fba08ef,62a43db63a89f22d9e40be7f,,,,,,,,,,,,,,,,,,,,,,,,,,,,,,,,,,,,,,,,,,,,,,,,,,,,,,,,,,,,,,,,,,,,,,,,,,,,0,0,0,0,1,,,,,,,,,,,,,,,,,,,,,
,,,,,,,,,,,,5eb35dff41a381156be161c2,22,Mężczyzna,2022-06-11_09h37.27.723,task,2021.1.4,Win32,59.79430758,6299f149e92ead563fba08ef,62a43db63a89f22d9e40be7f,,,,,,,,,,,,,5,,,,,,,,,,Task,22,(3x1) + 2,5,,,,,,,,,,,,,,,,,,,1,,,,,,,,,,,,,,,,,,,,,,,"[""5""]",1,[2.084100000023909],0,0,0,21,1,,,,,,,,,,,,,,,,,,,,,,,,,,
,,,,,,,,,,,X V Q F H G B L J M P D K C T S W R N Z,5eb35dff41a381156be161c2,22,Mężczyzna,2022-06-11_09h37.27.723,task,2021.1.4,Win32,59.79430758,6299f149e92ead563fba08ef,62a43db63a89f22d9e40be7f,,,,,,,,,,,,,,,,,,,,,,,,,,,,,,,,,,,,,,,,,,,,,,,,,,,,,,,,,,,,,,,,,,,,,,,,,,,,1,0,1,0,1,,,,,,,,,,,,,,,,,,,,,
,,,,,,,,,,,,5eb35dff41a381156be161c2,22,Mężczyzna,2022-06-11_09h37.27.723,task,2021.1.4,Win32,59.79430758,6299f149e92ead563fba08ef,62a43db63a89f22d9e40be7f,,,,,,,,,,,,,4,,,,,,,,,,Task,4,(1x5) - 1,4,,,,,,,,,,,,,,,,,,,1,,,,,,,,,,,,,,,,,,,,,,,"[""4""]",1,[3.4835999999642127],0,0,0,3,1,,,,,,,,,,,,,,,,,,,,,,,,,,
,,,,,,,,,,,X V Q F H G B L J M P D K C T S W R N Z,5eb35dff41a381156be161c2,22,Mężczyzna,2022-06-11_09h37.27.723,task,2021.1.4,Win32,59.79430758,6299f149e92ead563fba08ef,62a43db63a89f22d9e40be7f,,,,,,,,,,,,,,,,,,,,,,,,,,,,,,,,,,,,,,,,,,,,,,,,,,,,,,,,,,,,,,,,,,,,,,,,,,,,2,0,2,0,1,,,,,,,,,,,,,,,,,,,,,
,,,,,,,,,,,,5eb35dff41a381156be161c2,22,Mężczyzna,2022-06-11_09h37.27.723,task,2021.1.4,Win32,59.79430758,6299f149e92ead563fba08ef,62a43db63a89f22d9e40be7f,,,,,,,,,,,,,6,,,,,,,,,,Task,5,(2x3) + 0,6,,,,,,,,,,,,,,,,,,,1,,,,,,,,,,,,,,,,,,,,,,,"[""6""]",1,[3.1614999999999327],0,0,0,4,1,,,,,,,,,,,,,,,,,,,,,,,,,,
,,,,,,,,,,,X V Q F H G B L J M P D K C T S W R N Z,5eb35dff41a381156be161c2,22,Mężczyzna,2022-06-11_09h37.27.723,task,2021.1.4,Win32,59.79430758,6299f149e92ead563fba08ef,62a43db63a89f22d9e40be7f,,,,,,,,,,,,,,,,,,,,,,,,,,,,,,,,,,,,,,,,,,,,,,,,,,,,,,,,,,,,,,,,,,,,,,,,,,,,3,0,3,0,1,,,,,,,,,,,,,,,,,,,,,
,,,,,,,,,,,,5eb35dff41a381156be161c2,22,Mężczyzna,2022-06-11_09h37.27.723,task,2021.1.4,Win32,59.79430758,6299f149e92ead563fba08ef,62a43db63a89f22d9e40be7f,,,,,,,,,,,,,6,,,,,,,,,,Task,37,(3/3) + 5,6,,,,,,,,,,,,,,,,,,,1,,,,,,,,,,,,,,,,,,,,,,,"[""6""]",1,[4.632600000023899],0,0,0,36,1,,,,,,,,,,,,,,,,,,,,,,,,,,
,,,,,,,,,,,X V Q F H G B L J M P D K C T S W R N Z,5eb35dff41a381156be161c2,22,Mężczyzna,2022-06-11_09h37.27.723,task,2021.1.4,Win32,59.79430758,6299f149e92ead563fba08ef,62a43db63a89f22d9e40be7f,,,,,,,,,,,,,,,,,,,,,,,,,,,,,,,,,,,,,,,,,,,,,,,,,,,,,,,,,,,,,,,,,,,,,,,,,,,,4,0,4,0,1,,,,,,,,,,,,,,,,,,,,,
,,,,,,,,,,,,5eb35dff41a381156be161c2,22,Mężczyzna,2022-06-11_09h37.27.723,task,2021.1.4,Win32,59.79430758,6299f149e92ead563fba08ef,62a43db63a89f22d9e40be7f,,,,,,,,,,,,,1,,,,,,,,,,Task,12,(4x4) - 11,5,,,,,,,,,,,,,,,,,,,0,,,,,,,,,,,,,,,,,,,,,,,"[""1""]",0,[5.452499999999986],0,0,0,11,1,,,,,,,,,,,,,,,,,,,,,,,,,,
,,,,,,,,,,,,5eb35dff41a381156be161c2,22,Mężczyzna,2022-06-11_09h37.27.723,task,2021.1.4,Win32,59.79430758,6299f149e92ead563fba08ef,62a43db63a89f22d9e40be7f,,,,,,,,,,,,,6,,,,,,,,,,Task,30,(6/3) + 4 ,6,,,,,,,,,,,,,,,,,,,1,,,,,,,,,,,,,,,,,,,,,,,"[""6""]",1,[2.418300000011868],0,1,1,29,1,,,,,,,,,,,,,,,,,,,,,,,,,,
,,,,,,,,,,,X V Q F H G B L J M P D K C T S W R N Z,5eb35dff41a381156be161c2,22,Mężczyzna,2022-06-11_09h37.27.723,task,2021.1.4,Win32,59.79430758,6299f149e92ead563fba08ef,62a43db63a89f22d9e40be7f,,,,,,,,,,,,,,,,,,,,,,,,,,,,,,,,,,,,,,,,,,,,,,,,,,,,,,,,,,,,,,,,,,,,,,,,,,,,5,0,5,0,1,,,,,,,,,,,,,,,,,,,,,
,,,,,,,,,,,,5eb35dff41a381156be161c2,22,Mężczyzna,2022-06-11_09h37.27.723,task,2021.1.4,Win32,59.79430758,6299f149e92ead563fba08ef,62a43db63a89f22d9e40be7f,,,,,,,,,,,,,3,,,,,,,,,,Task,20,(18/9) + 1,3,,,,,,,,,,,,,,,,,,,1,,,,,,,,,,,,,,,,,,,,,,,"[""3""]",1,[1.6949000000357728],0,0,0,19,1,,,,,,,,,,,,,,,,,,,,,,,,,,
,,,,,,,,,,,X V Q F H G B L J M P D K C T S W R N Z,5eb35dff41a381156be161c2,22,Mężczyzna,2022-06-11_09h37.27.723,task,2021.1.4,Win32,59.79430758,6299f149e92ead563fba08ef,62a43db63a89f22d9e40be7f,,,,,,,,,,,,,,,,,,,,,,,,,,,,,,,,,,,,,,,,,,,,,,,,,,,,,,,,,,,,,,,,,,,,,,,,,,,,6,0,6,0,1,,,,,,,,,,,,,,,,,,,,,
,,,,,,,,,,,,5eb35dff41a381156be161c2,22,Mężczyzna,2022-06-11_09h37.27.723,task,2021.1.4,Win32,59.79430758,6299f149e92ead563fba08ef,62a43db63a89f22d9e40be7f,,,,,,,,,,,,,,,,,,,,,,,,,,,,,,,,,,,,,,,,,,,,,,,,,,,,,,,,,,,,,,,,,,,,,,,,,,,,,,,,,btrfkrf,"[""b"",""t"",""r"",""f"",""k"",""r"",""f""]",0,"[1.6245000000000118,2.67450000000008,3.2336000000238982,4.233699999988062,4.792100000023879,5.559100000023932,6.249800000011987,7.306600000023877]",0,BTRFKJK,6,0,6,0,1,,,,,,,,,,
,,,,,,,,,,,,5eb35dff41a381156be161c2,22,Mężczyzna,2022-06-11_09h37.27.723,task,2021.1.4,Win32,59.79430758,6299f149e92ead563fba08ef,62a43db63a89f22d9e40be7f,,,,,,,,,,,,,6,,,,,,,,,,Task,13,(3x4) - 6,6,,,,,,,,,,,,,,,,,,,1,,,,,,,,,,,,,,,,,,,,,,,"[""6""]",1,[3.9113999999761973],0,0,0,12,1,,,,,,,,,,,,,,,,,,,,,,,,,,
,,,,,,,,,,,X V Q F H G B L J M P D K C T S W R N Z,5eb35dff41a381156be161c2,22,Mężczyzna,2022-06-11_09h37.27.723,task,2021.1.4,Win32,59.79430758,6299f149e92ead563fba08ef,62a43db63a89f22d9e40be7f,,,,,,,,,,,,,,,,,,,,,,,,,,,,,,,,,,,,,,,,,,,,,,,,,,,,,,,,,,,,,,,,,,,,,,,,,,,,0,0,0,0,1,,,,,,,,,,,,,,,,,,,,,
,,,,,,,,,,,,5eb35dff41a381156be161c2,22,Mężczyzna,2022-06-11_09h37.27.723,task,2021.1.4,Win32,59.79430758,6299f149e92ead563fba08ef,62a43db63a89f22d9e40be7f,,,,,,,,,,,,,1,,,,,,,,,,Task,18,(16/4) - 3,1,,,,,,,,,,,,,,,,,,,1,,,,,,,,,,,,,,,,,,,,,,,"[""1""]",1,[4.4268000000118946],0,0,0,17,1,,,,,,,,,,,,,,,,,,,,,,,,,,
,,,,,,,,,,,X V Q F H G B L J M P D K C T S W R N Z,5eb35dff41a381156be161c2,22,Mężczyzna,2022-06-11_09h37.27.723,task,2021.1.4,Win32,59.79430758,6299f149e92ead563fba08ef,62a43db63a89f22d9e40be7f,,,,,,,,,,,,,,,,,,,,,,,,,,,,,,,,,,,,,,,,,,,,,,,,,,,,,,,,,,,,,,,,,,,,,,,,,,,,1,0,1,0,1,,,,,,,,,,,,,,,,,,,,,
,,,,,,,,,,,,5eb35dff41a381156be161c2,22,Mężczyzna,2022-06-11_09h37.27.723,task,2021.1.4,Win32,59.79430758,6299f149e92ead563fba08ef,62a43db63a89f22d9e40be7f,,,,,,,,,,,,,,,,,,,,,,,Task,35,(1x2) + 1,3,,,,,,,,,,,,,,,,,,,0,,,,,,,,,,,,,,,,,,,,,,,,0,,0,0,0,34,1,,,,,,,,,,,,,,,,,,,,,,,,,,
,,,,,,,,,,,,5eb35dff41a381156be161c2,22,Mężczyzna,2022-06-11_09h37.27.723,task,2021.1.4,Win32,59.79430758,6299f149e92ead563fba08ef,62a43db63a89f22d9e40be7f,,,,,,,,,,,,,2,,,,,,,,,,Task,26,(2x9) - 16,2,,,,,,,,,,,,,,,,,,,1,,,,,,,,,,,,,,,,,,,,,,,"[""2""]",1,[2.130199999988122],0,1,1,25,1,,,,,,,,,,,,,,,,,,,,,,,,,,
,,,,,,,,,,,X V Q F H G B L J M P D K C T S W R N Z,5eb35dff41a381156be161c2,22,Mężczyzna,2022-06-11_09h37.27.723,task,2021.1.4,Win32,59.79430758,6299f149e92ead563fba08ef,62a43db63a89f22d9e40be7f,,,,,,,,,,,,,,,,,,,,,,,,,,,,,,,,,,,,,,,,,,,,,,,,,,,,,,,,,,,,,,,,,,,,,,,,,,,,2,0,2,0,1,,,,,,,,,,,,,,,,,,,,,
,,,,,,,,,,,,5eb35dff41a381156be161c2,22,Mężczyzna,2022-06-11_09h37.27.723,task,2021.1.4,Win32,59.79430758,6299f149e92ead563fba08ef,62a43db63a89f22d9e40be7f,,,,,,,,,,,,,1,,,,,,,,,,Task,1,(12/6) - 1,1,,,,,,,,,,,,,,,,,,,1,,,,,,,,,,,,,,,,,,,,,,,"[""1""]",1,[2.55030000001193],0,0,0,0,1,,,,,,,,,,,,,,,,,,,,,,,,,,
,,,,,,,,,,,X V Q F H G B L J M P D K C T S W R N Z,5eb35dff41a381156be161c2,22,Mężczyzna,2022-06-11_09h37.27.723,task,2021.1.4,Win32,59.79430758,6299f149e92ead563fba08ef,62a43db63a89f22d9e40be7f,,,,,,,,,,,,,,,,,,,,,,,,,,,,,,,,,,,,,,,,,,,,,,,,,,,,,,,,,,,,,,,,,,,,,,,,,,,,3,0,3,0,1,,,,,,,,,,,,,,,,,,,,,
,,,,,,,,,,,,5eb35dff41a381156be161c2,22,Mężczyzna,2022-06-11_09h37.27.723,task,2021.1.4,Win32,59.79430758,6299f149e92ead563fba08ef,62a43db63a89f22d9e40be7f,,,,,,,,,,,,,3,,,,,,,,,,Task,27,(3/3) + 2,3,,,,,,,,,,,,,,,,,,,1,,,,,,,,,,,,,,,,,,,,,,,"[""3""]",1,[1.6671999999880427],0,0,0,26,1,,,,,,,,,,,,,,,,,,,,,,,,,,
,,,,,,,,,,,X V Q F H G B L J M P D K C T S W R N Z,5eb35dff41a381156be161c2,22,Mężczyzna,2022-06-11_09h37.27.723,task,2021.1.4,Win32,59.79430758,6299f149e92ead563fba08ef,62a43db63a89f22d9e40be7f,,,,,,,,,,,,,,,,,,,,,,,,,,,,,,,,,,,,,,,,,,,,,,,,,,,,,,,,,,,,,,,,,,,,,,,,,,,,4,0,4,0,1,,,,,,,,,,,,,,,,,,,,,
,,,,,,,,,,,,5eb35dff41a381156be161c2,22,Mężczyzna,2022-06-11_09h37.27.723,task,2021.1.4,Win32,59.79430758,6299f149e92ead563fba08ef,62a43db63a89f22d9e40be7f,,,,,,,,,,,,,1,,,,,,,,,,Task,1,(12/6) - 1,1,,,,,,,,,,,,,,,,,,,1,,,,,,,,,,,,,,,,,,,,,,,"[""1""]",1,[1.5666999999880318],0,0,0,0,1,,,,,,,,,,,,,,,,,,,,,,,,,,
,,,,,,,,,,,X V Q F H G B L J M P D K C T S W R N Z,5eb35dff41a381156be161c2,22,Mężczyzna,2022-06-11_09h37.27.723,task,2021.1.4,Win32,59.79430758,6299f149e92ead563fba08ef,62a43db63a89f22d9e40be7f,,,,,,,,,,,,,,,,,,,,,,,,,,,,,,,,,,,,,,,,,,,,,,,,,,,,,,,,,,,,,,,,,,,,,,,,,,,,5,0,5,0,1,,,,,,,,,,,,,,,,,,,,,
,,,,,,,,,,,,5eb35dff41a381156be161c2,22,Mężczyzna,2022-06-11_09h37.27.723,task,2021.1.4,Win32,59.79430758,6299f149e92ead563fba08ef,62a43db63a89f22d9e40be7f,,,,,,,,,,,,,,,,,,,,,,,Task,19,(6/2) - 1,2,,,,,,,,,,,,,,,,,,,0,,,,,,,,,,,,,,,,,,,,,,,,0,,0,0,0,18,1,,,,,,,,,,,,,,,,,,,,,,,,,,
,,,,,,,,,,,,5eb35dff41a381156be161c2,22,Mężczyzna,2022-06-11_09h37.27.723,task,2021.1.4,Win32,59.79430758,6299f149e92ead563fba08ef,62a43db63a89f22d9e40be7f,,,,,,,,,,,,,7,,,,,,,,,,Task,6,(12/2) + 1,7,,,,,,,,,,,,,,,,,,,1,,,,,,,,,,,,,,,,,,,,,,,"[""7""]",1,[3.9176999999881446],0,1,1,5,1,,,,,,,,,,,,,,,,,,,,,,,,,,
,,,,,,,,,,,X V Q F H G B L J M P D K C T S W R N Z,5eb35dff41a381156be161c2,22,Mężczyzna,2022-06-11_09h37.27.723,task,2021.1.4,Win32,59.79430758,6299f149e92ead563fba08ef,62a43db63a89f22d9e40be7f,,,,,,,,,,,,,,,,,,,,,,,,,,,,,,,,,,,,,,,,,,,,,,,,,,,,,,,,,,,,,,,,,,,,,,,,,,,,6,0,6,0,1,,,,,,,,,,,,,,,,,,,,,
,,,,,,,,,,,,5eb35dff41a381156be161c2,22,Mężczyzna,2022-06-11_09h37.27.723,task,2021.1.4,Win32,59.79430758,6299f149e92ead563fba08ef,62a43db63a89f22d9e40be7f,,,,,,,,,,,,,,,,,,,,,,,,,,,,,,,,,,,,,,,,,,,,,,,,,,,,,,,,,,,,,,,,,,,,,,,,,,,,,,,,,vrldvfc,"[""v"",""r"",""l"",""d"",""v"",""f"",""c""]",0,"[1.67450000000008,2.0736999999880936,2.8250000000000455,3.2321999999880973,3.8656999999881236,8.028800000011984,9.749800000011987,10.063699999988103]",0,VRLDVHC,7,0,7,0,1,,,,,,,,,,
,,,,,,,,,,,,5eb35dff41a381156be161c2,22,Mężczyzna,2022-06-11_09h37.27.723,task,2021.1.4,Win32,59.79430758,6299f149e92ead563fba08ef,62a43db63a89f22d9e40be7f,,,,,,,,,,,,,,,,,,,,,,,,,,,,,,,,,,,,,,,,,,,,,,,,,,,,,,,,,,,,,,,,,,,,,,,,,,,,,,,,,,,,,,,,,,,,"[""comma""]",0,[0.5982999999523599],0,0,0,0,1,,
,,,,,,,,,,,,5eb35dff41a381156be161c2,22,Mężczyzna,2022-06-11_09h37.27.723,task,2021.1.4,Win32,59.79430758,6299f149e92ead563fba08ef,62a43db63a89f22d9e40be7f,,,,,,,,,,,,,,,,,,,,,,,,,,,,,,,,,,,,,,,,,,,,,,,,,,,,,,,,,,,,,,,,,,,,,,,,,,,,,,,,,,,,,,,,,,,,"[""period""]",0,[0.4001999999881036],1,0,1,0,1,,
,,,,,,,,,,,,5eb35dff41a381156be161c2,22,Mężczyzna,2022-06-11_09h37.27.723,task,2021.1.4,Win32,59.79430758,6299f149e92ead563fba08ef,62a43db63a89f22d9e40be7f,,,,,,,,,,,,,,,,,,,,,,,,,,,,,,,,,,,,,,,,,,,,,,,,,,,,,,,,,,,,,,,,,,,,,,,,,,,,,,,,,,,,,,,,,,,,"[""period""]",0,[0.26780000001190274],2,0,2,0,1,,
,,,,,,,,,,,,5eb35dff41a381156be161c2,22,Mężczyzna,2022-06-11_09h37.27.723,task,2021.1.4,Win32,59.79430758,6299f149e92ead563fba08ef,62a43db63a89f22d9e40be7f,,,,,,,,,,,,,,,,,,,,,,,,,,,,,,,,,,,,,,,,,,,,,,,,,,,,,,,,,,,,,,,,,,,,,,,,,,,,,,,,,,,,,,,,,,,,"[""comma""]",0,[0.21739999997623727],3,0,3,0,1,,
,,,,,,,,,,,,5eb35dff41a381156be161c2,22,Mężczyzna,2022-06-11_09h37.27.723,task,2021.1.4,Win32,59.79430758,6299f149e92ead563fba08ef,62a43db63a89f22d9e40be7f,,,,,,,,,,,,,,,,,,,,,,,,,,,,,,,,,,,,,,,,,,,,,,,,,,,,,,,,,,,,,,,,,,,,,,,,,,,,,,,,,,,,,,,,,,,,"[""period"",""period""]",0,"[0.2836999999880163,1.9533999999761136]",4,0,4,0,1,,
,,,,,,,,,,,,5eb35dff41a381156be161c2,22,Mężczyzna,2022-06-11_09h37.27.723,task,2021.1.4,Win32,59.79430758,6299f149e92ead563fba08ef,62a43db63a89f22d9e40be7f,,,,,,,,,,,,,,,,,,,,,,,,,,,,,,,,,,,,,,,,,,,,,,,,,,,,,,,,,,,,,,,,,,,,,,,,,,,,,,,,,,,,,,,,,,,,,0,,5,0,5,0,1,,
,,,,,,,,,,,,5eb35dff41a381156be161c2,22,Mężczyzna,2022-06-11_09h37.27.723,task,2021.1.4,Win32,59.79430758,6299f149e92ead563fba08ef,62a43db63a89f22d9e40be7f,,,,,,,,,,,,,,,,,,,,,,,,,,,,,,,,,,,,,,,,,,,,,,,,,,,,,,,,,,,,,,,,,,,,,,,,,,,,,,,,,,,,,,,,,,,,"[""period""]",0,[0.38659999996423267],6,0,6,0,1,,
,,,,,,,,,,,,5eb35dff41a381156be161c2,22,Mężczyzna,2022-06-11_09h37.27.723,task,2021.1.4,Win32,59.79430758,6299f149e92ead563fba08ef,62a43db63a89f22d9e40be7f,,,,,,,,,,,,,,,,,,,,,,,,,,,,,,,,,,,,,,,,,,,,,,,,,,,,,,,,,,,,,,,,,,,,,,,,,,,,,,,,,,,,,,,,,,,,"[""comma""]",0,[0.23980000001188273],7,0,7,0,1,,
,,,,,,,,,,,,5eb35dff41a381156be161c2,22,Mężczyzna,2022-06-11_09h37.27.723,task,2021.1.4,Win32,59.79430758,6299f149e92ead563fba08ef,62a43db63a89f22d9e40be7f,,,,,,,,,,,,,,,,,,,,,,,,,,,,,,,,,,,,,,,,,,,,,,,,,,,,,,,,,,,,,,,,,,,,,,,,,,,,,,,,,,,,,,,,,,,,"[""period""]",0,[0.22360000002390734],8,0,8,0,1,,
,,,,,,,,,,,,5eb35dff41a381156be161c2,22,Mężczyzna,2022-06-11_09h37.27.723,task,2021.1.4,Win32,59.79430758,6299f149e92ead563fba08ef,62a43db63a89f22d9e40be7f,,,,,,,,,,,,,,,,,,,,,,,,,,,,,,,,,,,,,,,,,,,,,,,,,,,,,,,,,,,,,,,,,,,,,,,,,,,,,,,,,,,,,,,,,,,,"[""comma"",""comma""]",0,"[-0.014800000011859993,1.9095000000000937]",9,0,9,0,1,,
,,,,,,,,,,,,5eb35dff41a381156be161c2,22,Mężczyzna,2022-06-11_09h37.27.723,task,2021.1.4,Win32,59.79430758,6299f149e92ead563fba08ef,62a43db63a89f22d9e40be7f,,,,,,,,,,,,,,,,,,,,,,,,,,,,,,,,,,,,,,,,,,,,,,,,,,,,,,,,,,,,,,,,,,,,,,,,,,,,,,,,,,,,,,,,,,,,,0,,10,0,10,0,1,,
,,,,,,,,,,,,5eb35dff41a381156be161c2,22,Mężczyzna,2022-06-11_09h37.27.723,task,2021.1.4,Win32,59.79430758,6299f149e92ead563fba08ef,62a43db63a89f22d9e40be7f,,,,,,,,,,,,,,,,,,,,,,,,,,,,,,,,,,,,,,,,,,,,,,,,,,,,,,,,,,,,,,,,,,,,,,,,,,,,,,,,,,,,,,,,,,,,"[""period""]",0,[0.21329999995236903],11,0,11,0,1,,
,,,,,,,,,,,,5eb35dff41a381156be161c2,22,Mężczyzna,2022-06-11_09h37.27.723,task,2021.1.4,Win32,59.79430758,6299f149e92ead563fba08ef,62a43db63a89f22d9e40be7f,,,,,,,,,,,,,,,,,,,,,,,,,,,,,,,,,,,,,,,,,,,,,,,,,,,,,,,,,,,,,,,,,,,,,,,,,,,,,,,,,,,,,,,,,,,,"[""comma""]",0,[0.2596999999881291],12,0,12,0,1,,
,,,,,,,,,,,,5eb35dff41a381156be161c2,22,Mężczyzna,2022-06-11_09h37.27.723,task,2021.1.4,Win32,59.79430758,6299f149e92ead563fba08ef,62a43db63a89f22d9e40be7f,,,,,,,,,,,,,,,,,,,,,,,,,,,,,,,,,,,,,,,,,,,,,,,,,,,,,,,,,,,,,,,,,,,,,,,,,,,,,,,,,,,,,,,,,,,,"[""comma""]",0,[0.21160000002385004],13,0,13,0,1,,
,,,,,,,,,,,,5eb35dff41a381156be161c2,22,Mężczyzna,2022-06-11_09h37.27.723,task,2021.1.4,Win32,59.79430758,6299f149e92ead563fba08ef,62a43db63a89f22d9e40be7f,,,,,,,,,,,,,,,,,,,,,,,,,,,,,,,,,,,,,,,,,,,,,,,,,,,,,,,,,,,,,,,,,,,,,,,,,,,,,,,,,,,,,,,,,,,,"[""period""]",0,[0.2285999999642172],14,0,14,0,1,,
,,,,,,,,,,,,5eb35dff41a381156be161c2,22,Mężczyzna,2022-06-11_09h37.27.723,task,2021.1.4,Win32,59.79430758,6299f149e92ead563fba08ef,62a43db63a89f22d9e40be7f,,,,,,,,,,,,,,,,,,,,,,,,,,,,,,,,,,,,,,,,,,,,,,,,,,,,,,,,,,,,,,,,,,,,,,,,,,,,,,,,,,,,,,,,,,,,"[""period""]",0,[0.17630000001190638],15,0,15,0,1,,
,,,,,,,,,,,,5eb35dff41a381156be161c2,22,Mężczyzna,2022-06-11_09h37.27.723,task,2021.1.4,Win32,59.79430758,6299f149e92ead563fba08ef,62a43db63a89f22d9e40be7f,,,,,,,,,,,,,,,,,,,,,,,,,,,,,,,,,,,,,,,,,,,,,,,,,,,,,,,,,,,,,,,,,,,,,,,,,,,,,,,,,,,,,,,,,,,,"[""comma"",""period""]",0,"[0.20040000003575642,1.9764000000358237]",16,0,16,0,1,,
,,,,,,,,,,,,5eb35dff41a381156be161c2,22,Mężczyzna,2022-06-11_09h37.27.723,task,2021.1.4,Win32,59.79430758,6299f149e92ead563fba08ef,62a43db63a89f22d9e40be7f,,,,,,,,,,,,,,,,,,,,,,,,,,,,,,,,,,,,,,,,,,,,,,,,,,,,,,,,,,,,,,,,,,,,,,,,,,,,,,,,,,,,,,,,,,,,"[""period""]",0,[1.7879999999998972],17,0,17,0,1,,
,,,,,,,,,,,,5eb35dff41a381156be161c2,22,Mężczyzna,2022-06-11_09h37.27.723,task,2021.1.4,Win32,59.79430758,6299f149e92ead563fba08ef,62a43db63a89f22d9e40be7f,,,,,,,,,,,,,,,,,,,,,,,,,,,,,,,,,,,,,,,,,,,,,,,,,,,,,,,,,,,,,,,,,,,,,,,,,,,,,,,,,,,,,,,,,,,,,0,,18,0,18,0,1,,
,,,,,,,,,,,,5eb35dff41a381156be161c2,22,Mężczyzna,2022-06-11_09h37.27.723,task,2021.1.4,Win32,59.79430758,6299f149e92ead563fba08ef,62a43db63a89f22d9e40be7f,,,,,,,,,,,,,,,,,,,,,,,,,,,,,,,,,,,,,,,,,,,,,,,,,,,,,,,,,,,,,,,,,,,,,,,,,,,,,,,,,,,,,,,,,,,,"[""comma""]",0,[0.20199999999999818],19,0,19,0,1,,
,,,,,,,,,,,,5eb35dff41a381156be161c2,22,Mężczyzna,2022-06-11_09h37.27.723,task,2021.1.4,Win32,59.79430758,6299f149e92ead563fba08ef,62a43db63a89f22d9e40be7f,,,,,,,,,,,,,,,,,,,,,,,,,,,,,,,,,,,,,,,,,,,,,,,,,,,,,,,,,,,,,,,,,,,,,,,,,,,,,,,,,,,,,,,,,,,,"[""period""]",0,[0.2508999999761272],20,0,20,0,1,,
,,,,,,,,,,,,5eb35dff41a381156be161c2,22,Mężczyzna,2022-06-11_09h37.27.723,task,2021.1.4,Win32,59.79430758,6299f149e92ead563fba08ef,62a43db63a89f22d9e40be7f,,,,,,,,,,,,,,,,,,,,,,,,,,,,,,,,,,,,,,,,,,,,,,,,,,,,,,,,,,,,,,,,,,,,,,,,,,,,,,,,,,,,,,,,,,,,"[""period""]",0,[0.21630000001198368],21,0,21,0,1,,
,,,,,,,,,,,,5eb35dff41a381156be161c2,22,Mężczyzna,2022-06-11_09h37.27.723,task,2021.1.4,Win32,59.79430758,6299f149e92ead563fba08ef,62a43db63a89f22d9e40be7f,,,,,,,,,,,,,,,,,,,,,,,,,,,,,,,,,,,,,,,,,,,,,,,,,,,,,,,,,,,,,,,,,,,,,,,,,,,,,,,,,,,,,,,,,,,,"[""comma""]",0,[0.2029000000356973],22,0,22,0,1,,
,,,,,,,,,,,,5eb35dff41a381156be161c2,22,Mężczyzna,2022-06-11_09h37.27.723,task,2021.1.4,Win32,59.79430758,6299f149e92ead563fba08ef,62a43db63a89f22d9e40be7f,,,,,,,,,,,,,,,,,,,,,,,,,,,,,,,,,,,,,,,,,,,,,,,,,,,,,,,,,,,,,,,,,,,,,,,,,,,,,,,,,,,,,,,,,,,,"[""comma"",""period""]",0,"[0.0504999999999427,1.9326000000238537]",23,0,23,0,1,,
,,,,,,,,,,,,5eb35dff41a381156be161c2,22,Mężczyzna,2022-06-11_09h37.27.723,task,2021.1.4,Win32,59.79430758,6299f149e92ead563fba08ef,62a43db63a89f22d9e40be7f,,,,,,,,,,,,,,,,,,,,,,,,,,,,,,,,,,,,,,,,,,,,,,,,,,,,,,,,,,,,,,,,,,,,,,,,,,,,,,,,,,,,,,,,,,,,,0,,24,0,24,0,1,,
,,,,,,,,,,,,5eb35dff41a381156be161c2,22,Mężczyzna,2022-06-11_09h37.27.723,task,2021.1.4,Win32,59.79430758,6299f149e92ead563fba08ef,62a43db63a89f22d9e40be7f,,,,,,,,,,,,,,,,,,,,,,,,,,,,,,,,,,,,,,,,,,,,,,,,,,,,,,,,,,,,,,,,,,,,,,,,,,,,,,,,,,,,,,,,,,,,"[""period""]",0,[0.254299999952309],25,0,25,0,1,,
,,,,,,,,,,,,5eb35dff41a381156be161c2,22,Mężczyzna,2022-06-11_09h37.27.723,task,2021.1.4,Win32,59.79430758,6299f149e92ead563fba08ef,62a43db63a89f22d9e40be7f,,,,,,,,,,,,,,,,,,,,,,,,,,,,,,,,,,,,,,,,,,,,,,,,,,,,,,,,,,,,,,,,,,,,,,,,,,,,,,,,,,,,,,,,,,,,"[""period""]",0,[0.2969999999999118],26,0,26,0,1,,
,,,,,,,,,,,,5eb35dff41a381156be161c2,22,Mężczyzna,2022-06-11_09h37.27.723,task,2021.1.4,Win32,59.79430758,6299f149e92ead563fba08ef,62a43db63a89f22d9e40be7f,,,,,,,,,,,,,,,,,,,,,,,,,,,,,,,,,,,,,,,,,,,,,,,,,,,,,,,,,,,,,,,,,,,,,,,,,,,,,,,,,,,,,,,,,,,,"[""period""]",0,[0.30269999998813546],27,0,27,0,1,,
,,,,,,,,,,,,5eb35dff41a381156be161c2,22,Mężczyzna,2022-06-11_09h37.27.723,task,2021.1.4,Win32,59.79430758,6299f149e92ead563fba08ef,62a43db63a89f22d9e40be7f,,,,,,,,,,,,,,,,,,,,,,,,,,,,,,,,,,,,,,,,,,,,,,,,,,,,,,,,,,,,,,,,,,,,,,,,,,,,,,,,,,,,,,,,,,,,"[""comma""]",0,[0.2785000000000082],28,0,28,0,1,,
,,,,,,,,,,,,5eb35dff41a381156be161c2,22,Mężczyzna,2022-06-11_09h37.27.723,task,2021.1.4,Win32,59.79430758,6299f149e92ead563fba08ef,62a43db63a89f22d9e40be7f,,,,,,,,,,,,,,,,,,,,,,,,,,,,,,,,,,,,,,,,,,,,,,,,,,,,,,,,,,,,,,,,,,,,,,,,,,,,,,,,,,,,,,,,,,,,"[""comma""]",0,[0.23010000002386732],29,0,29,0,1,,
,,,,,,,,,,,,5eb35dff41a381156be161c2,22,Mężczyzna,2022-06-11_09h37.27.723,task,2021.1.4,Win32,59.79430758,6299f149e92ead563fba08ef,62a43db63a89f22d9e40be7f,,,,,,,,,,,,,,,,,,,,,,,,,,,,,,,,,,,,,,,,,,,,,,,,,,,,,,,,,,,,,,,,,,,,,,,,,,,,,,,,,,,,,,,,,,,,"[""period""]",0,[0.2051999999880536],30,0,30,0,1,,
,,,,,,,,,,,,5eb35dff41a381156be161c2,22,Mężczyzna,2022-06-11_09h37.27.723,task,2021.1.4,Win32,59.79430758,6299f149e92ead563fba08ef,62a43db63a89f22d9e40be7f,,,,,,,,,,,,,,,,,,,,,,,,,,,,,,,,,,,,,,,,,,,,,,,,,,,,,,,,,,,,,,,,,,,,,,,,,,,,,,,,,,,,,,,,,,,,"[""comma""]",0,[0.05190000003574369],31,0,31,0,1,,
,,,,,,,,,,,,5eb35dff41a381156be161c2,22,Mężczyzna,2022-06-11_09h37.27.723,task,2021.1.4,Win32,59.79430758,6299f149e92ead563fba08ef,62a43db63a89f22d9e40be7f,,,,,,,,,,,,,,,,,,,,,,,,,,,,,,,,,,,,,,,,,,,,,,,,,,,,,,,,,,,,,,,,,,,,,,,,,,,,,,,,,,,,,,,,,,,,"[""period""]",0,[0.2529000000357655],32,0,32,0,1,,
,,,,,,,,,,,,5eb35dff41a381156be161c2,22,Mężczyzna,2022-06-11_09h37.27.723,task,2021.1.4,Win32,59.79430758,6299f149e92ead563fba08ef,62a43db63a89f22d9e40be7f,,,,,,,,,,,,,,,,,,,,,,,,,,,,,,,,,,,,,,,,,,,,,,,,,,,,,,,,,,,,,,,,,,,,,,,,,,,,,,,,,,,,,,,,,,,,"[""comma""]",0,[0.24940000003584828],33,0,33,0,1,,
,,,,,,,,,,,,5eb35dff41a381156be161c2,22,Mężczyzna,2022-06-11_09h37.27.723,task,2021.1.4,Win32,59.79430758,6299f149e92ead563fba08ef,62a43db63a89f22d9e40be7f,,,,,,,,,,,,,,,,,,,,,,,,,,,,,,,,,,,,,,,,,,,,,,,,,,,,,,,,,,,,,,,,,,,,,,,,,,,,,,,,,,,,,,,,,,,,"[""comma""]",0,[0.2496999999880245],34,0,34,0,1,,
,,,,,,,,,,,,5eb35dff41a381156be161c2,22,Mężczyzna,2022-06-11_09h37.27.723,task,2021.1.4,Win32,59.79430758,6299f149e92ead563fba08ef,62a43db63a89f22d9e40be7f,,,,,,,,,,,,,,,,,,,,,,,,,,,,,,,,,,,,,,,,,,,,,,,,,,,,,,,,,,,,,,,,,,,,,,,,,,,,,,,,,,,,,,,,,,,,"[""period""]",0,[0.23680000001195367],35,0,35,0,1,,
,,,,,,,,,,,,5eb35dff41a381156be161c2,22,Mężczyzna,2022-06-11_09h37.27.723,task,2021.1.4,Win32,59.79430758,6299f149e92ead563fba08ef,62a43db63a89f22d9e40be7f,,,,,,,,,,,,,,,,,,,,,,,,,,,,,,,,,,,,,,,,,,,,,,,,,,,,,,,,,,,,,,,,,,,,,,,,,,,,,,,,,,,,,,,,,,,,"[""period""]",0,[0.27610000002380275],36,0,36,0,1,,
,,,,,,,,,,,,5eb35dff41a381156be161c2,22,Mężczyzna,2022-06-11_09h37.27.723,task,2021.1.4,Win32,59.79430758,6299f149e92ead563fba08ef,62a43db63a89f22d9e40be7f,,,,,,,,,,,,,,,,,,,,,,,,,,,,,,,,,,,,,,,,,,,,,,,,,,,,,,,,,,,,,,,,,,,,,,,,,,,,,,,,,,,,,,,,,,,,"[""comma""]",0,[0.2266000000238364],37,0,37,0,1,,
,,,,,,,,,,,,5eb35dff41a381156be161c2,22,Mężczyzna,2022-06-11_09h37.27.723,task,2021.1.4,Win32,59.79430758,6299f149e92ead563fba08ef,62a43db63a89f22d9e40be7f,,,,,,,,,,,,,,,,,,,,,,,,,,,,,,,,,,,,,,,,,,,,,,,,,,,,,,,,,,,,,,,,,,,,,,,,,,,,,,,,,,,,,,,,,,,,"[""period""]",0,[0.2442999999523181],38,0,38,0,1,,
,,,,,,,,,,,,5eb35dff41a381156be161c2,22,Mężczyzna,2022-06-11_09h37.27.723,task,2021.1.4,Win32,59.79430758,6299f149e92ead563fba08ef,62a43db63a89f22d9e40be7f,,,,,,,,,,,,,,,,,,,,,,,,,,,,,,,,,,,,,,,,,,,,,,,,,,,,,,,,,,,,,,,,,,,,,,,,,,,,,,,,,,,,,,,,,,,,"[""period""]",0,[0.4270000000000209],39,0,39,0,1,,
,,,,,,,,,,,,5eb35dff41a381156be161c2,22,Mężczyzna,2022-06-11_09h37.27.723,task,2021.1.4,Win32,59.79430758,6299f149e92ead563fba08ef,62a43db63a89f22d9e40be7f,,,,,,,,,,,,,,,,,,,,,,,,,,,,,,,,,,,,,,,,,,,,,,,,,,,,,,,,,,,,,,,,,,,,,,,,,,,,,,,,,,,,,,,,,,,,"[""comma""]",0,[0.7041000000238],40,0,40,0,1,,
,,,,,,,,,,,,5eb35dff41a381156be161c2,22,Mężczyzna,2022-06-11_09h37.27.723,task,2021.1.4,Win32,59.79430758,6299f149e92ead563fba08ef,62a43db63a89f22d9e40be7f,,,,,,,,,,,,,,,,,,,,,,,,,,,,,,,,,,,,,,,,,,,,,,,,,,,,,,,,,,,,,,,,,,,,,,,,,,,,,,,,,,,,,,,,,,,,"[""period""]",0,[0.2526000000239037],41,0,41,0,1,,
,,,,,,,,,,,,5eb35dff41a381156be161c2,22,Mężczyzna,2022-06-11_09h37.27.723,task,2021.1.4,Win32,59.79430758,6299f149e92ead563fba08ef,62a43db63a89f22d9e40be7f,,,,,,,,,,,,,,,,,,,,,,,,,,,,,,,,,,,,,,,,,,,,,,,,,,,,,,,,,,,,,,,,,,,,,,,,,,,,,,,,,,,,,,,,,,,,"[""comma""]",0,[0.037399999976173603],42,0,42,0,1,,
,,,,,,,,,,,,5eb35dff41a381156be161c2,22,Mężczyzna,2022-06-11_09h37.27.723,task,2021.1.4,Win32,59.79430758,6299f149e92ead563fba08ef,62a43db63a89f22d9e40be7f,,,,,,,,,,,,,,,,,,,,,,,,,,,,,,,,,,,,,,,,,,,,,,,,,,,,,,,,,,,,,,,,,,,,,,,,,,,,,,,,,,,,,,,,,,,,"[""period""]",0,[0.2719999999999345],43,0,43,0,1,,
,,,,,,,,,,,,5eb35dff41a381156be161c2,22,Mężczyzna,2022-06-11_09h37.27.723,task,2021.1.4,Win32,59.79430758,6299f149e92ead563fba08ef,62a43db63a89f22d9e40be7f,,,,,,,,,,,,,,,,,,,,,,,,,,,,,,,,,,,,,,,,,,,,,,,,,,,,,,,,,,,,,,,,,,,,,,,,,,,,,,,,,,,,,,,,,,,,"[""comma""]",0,[0.27730000001190547],44,0,44,0,1,,
,,,,,,,,,,,,5eb35dff41a381156be161c2,22,Mężczyzna,2022-06-11_09h37.27.723,task,2021.1.4,Win32,59.79430758,6299f149e92ead563fba08ef,62a43db63a89f22d9e40be7f,,,,,,,,,,,,,,,,,,,,,,,,,,,,,,,,,,,,,,,,,,,,,,,,,,,,,,,,,,,,,,,,,,,,,,,,,,,,,,,,,,,,,,,,,,,,"[""period""]",0,[0.23719999998797903],45,0,45,0,1,,
,,,,,,,,,,,,5eb35dff41a381156be161c2,22,Mężczyzna,2022-06-11_09h37.27.723,task,2021.1.4,Win32,59.79430758,6299f149e92ead563fba08ef,62a43db63a89f22d9e40be7f,,,,,,,,,,,,,,,,,,,,,,,,,,,,,,,,,,,,,,,,,,,,,,,,,,,,,,,,,,,,,,,,,,,,,,,,,,,,,,,,,,,,,,,,,,,,"[""comma""]",0,[0.5599000000356682],46,0,46,0,1,,
,,,,,,,,,,,,5eb35dff41a381156be161c2,22,Mężczyzna,2022-06-11_09h37.27.723,task,2021.1.4,Win32,59.79430758,6299f149e92ead563fba08ef,62a43db63a89f22d9e40be7f,,,,,,,,,,,,,,,,,,,,,,,,,,,,,,,,,,,,,,,,,,,,,,,,,,,,,,,,,,,,,,,,,,,,,,,,,,,,,,,,,,,,,,,,,,,,"[""period""]",0,[0.5193000000118673],47,0,47,0,1,,
,,,,,,,,,,,,5eb35dff41a381156be161c2,22,Mężczyzna,2022-06-11_09h37.27.723,task,2021.1.4,Win32,59.79430758,6299f149e92ead563fba08ef,62a43db63a89f22d9e40be7f,,,,,,,,,,,,,,,,,,,,,,,,,,,,,,,,,,,,,,,,,,,,,,,,,,,,,,,,,,,,,,,,,,,,,,,,,,,,,,,,,,,,,,,,,,,,"[""period""]",0,[0.7503000000119755],48,0,48,0,1,,
,,,,,,,,,,,,5eb35dff41a381156be161c2,22,Mężczyzna,2022-06-11_09h37.27.723,task,2021.1.4,Win32,59.79430758,6299f149e92ead563fba08ef,62a43db63a89f22d9e40be7f,,,,,,,,,,,,,,,,,,,,,,,,,,,,,,,,,,,,,,,,,,,,,,,,,,,,,,,,,,,,,,,,,,,,,,,,,,,,,,,,,,,,,,,,,,,,"[""comma""]",0,[0.6057000000477046],49,0,49,0,1,,
,,,,,,,,,,,,5eb35dff41a381156be161c2,22,Mężczyzna,2022-06-11_09h37.27.723,task,2021.1.4,Win32,59.79430758,6299f149e92ead563fba08ef,62a43db63a89f22d9e40be7f,,,,,,,,,,,,,,,,,,,,,,,,,,,,,,,,,,,,,,,,,,,,,,,,,,,,,,,,,,,,,,,,,,,,,,,,,,,,,,,,,,,,,,,,,,,,,0,,50,0,50,0,1,,
,,,,,,,,,,,,5eb35dff41a381156be161c2,22,Mężczyzna,2022-06-11_09h37.27.723,task,2021.1.4,Win32,59.79430758,6299f149e92ead563fba08ef,62a43db63a89f22d9e40be7f,,,,,,,,,,,,,,,,,,,,,,,,,,,,,,,,,,,,,,,,,,,,,,,,,,,,,,,,,,,,,,,,,,,,,,,,,,,,,,,,,,,,,,,,,,,,"[""period""]",0,[0.2527999999523445],51,0,51,0,1,,
,,,,,,,,,,,,5eb35dff41a381156be161c2,22,Mężczyzna,2022-06-11_09h37.27.723,task,2021.1.4,Win32,59.79430758,6299f149e92ead563fba08ef,62a43db63a89f22d9e40be7f,,,,,,,,,,,,,,,,,,,,,,,,,,,,,,,,,,,,,,,,,,,,,,,,,,,,,,,,,,,,,,,,,,,,,,,,,,,,,,,,,,,,,,,,,,,,"[""comma""]",0,[0.25130000001183816],52,0,52,0,1,,
,,,,,,,,,,,,5eb35dff41a381156be161c2,22,Mężczyzna,2022-06-11_09h37.27.723,task,2021.1.4,Win32,59.79430758,6299f149e92ead563fba08ef,62a43db63a89f22d9e40be7f,,,,,,,,,,,,,,,,,,,,,,,,,,,,,,,,,,,,,,,,,,,,,,,,,,,,,,,,,,,,,,,,,,,,,,,,,,,,,,,,,,,,,,,,,,,,"[""comma""]",0,[0.30039999997609357],53,0,53,0,1,,
,,,,,,,,,,,,5eb35dff41a381156be161c2,22,Mężczyzna,2022-06-11_09h37.27.723,task,2021.1.4,Win32,59.79430758,6299f149e92ead563fba08ef,62a43db63a89f22d9e40be7f,,,,,,,,,,,,,,,,,,,,,,,,,,,,,,,,,,,,,,,,,,,,,,,,,,,,,,,,,,,,,,,,,,,,,,,,,,,,,,,,,,,,,,,,,,,,"[""period""]",0,[0.41219999998804724],54,0,54,0,1,,
,,,,,,,,,,,,5eb35dff41a381156be161c2,22,Mężczyzna,2022-06-11_09h37.27.723,task,2021.1.4,Win32,59.79430758,6299f149e92ead563fba08ef,62a43db63a89f22d9e40be7f,,,,,,,,,,,,,,,,,,,,,,,,,,,,,,,,,,,,,,,,,,,,,,,,,,,,,,,,,,,,,,,,,,,,,,,,,,,,,,,,,,,,,,,,,,,,"[""comma""]",0,[0.34890000003576915],55,0,55,0,1,,
,,,,,,,,,,,,5eb35dff41a381156be161c2,22,Mężczyzna,2022-06-11_09h37.27.723,task,2021.1.4,Win32,59.79430758,6299f149e92ead563fba08ef,62a43db63a89f22d9e40be7f,,,,,,,,,,,,,,,,,,,,,,,,,,,,,,,,,,,,,,,,,,,,,,,,,,,,,,,,,,,,,,,,,,,,,,,,,,,,,,,,,,,,,,,,,,,,"[""comma""]",0,[0.25589999997612267],56,0,56,0,1,,
,,,,,,,,,,,,5eb35dff41a381156be161c2,22,Mężczyzna,2022-06-11_09h37.27.723,task,2021.1.4,Win32,59.79430758,6299f149e92ead563fba08ef,62a43db63a89f22d9e40be7f,,,,,,,,,,,,,,,,,,,,,,,,,,,,,,,,,,,,,,,,,,,,,,,,,,,,,,,,,,,,,,,,,,,,,,,,,,,,,,,,,,,,,,,,,,,,"[""period""]",0,[0.20819999998809635],57,0,57,0,1,,
,,,,,,,,,,,,5eb35dff41a381156be161c2,22,Mężczyzna,2022-06-11_09h37.27.723,task,2021.1.4,Win32,59.79430758,6299f149e92ead563fba08ef,62a43db63a89f22d9e40be7f,,,,,,,,,,,,,,,,,,,,,,,,,,,,,,,,,,,,,,,,,,,,,,,,,,,,,,,,,,,,,,,,,,,,,,,,,,,,,,,,,,,,,,,,,,,,"[""period""]",0,[0.24329999995234175],58,0,58,0,1,,
,,,,,,,,,,,,5eb35dff41a381156be161c2,22,Mężczyzna,2022-06-11_09h37.27.723,task,2021.1.4,Win32,59.79430758,6299f149e92ead563fba08ef,62a43db63a89f22d9e40be7f,,,,,,,,,,,,,,,,,,,,,,,,,,,,,,,,,,,,,,,,,,,,,,,,,,,,,,,,,,,,,,,,,,,,,,,,,,,,,,,,,,,,,,,,,,,,"[""period""]",0,[0.2350999999641772],59,0,59,0,1,,
,,,,,,,,,,,,5eb35dff41a381156be161c2,22,Mężczyzna,2022-06-11_09h37.27.723,task,2021.1.4,Win32,59.79430758,6299f149e92ead563fba08ef,62a43db63a89f22d9e40be7f,,,,,,,,,,,,,,,,,,,,,,,,,,,,,,,,,,,,,,,,,,,,,,,,,,,,,,,,,,,,,,,,,,,,,,,,,,,,,,,,,,,,,,,,,,,,"[""comma""]",0,[0.28319999998802814],60,0,60,0,1,,
,,,,,,,,,,,,5eb35dff41a381156be161c2,22,Mężczyzna,2022-06-11_09h37.27.723,task,2021.1.4,Win32,59.79430758,6299f149e92ead563fba08ef,62a43db63a89f22d9e40be7f,,,,,,,,,,,,,,,,,,,,,,,,,,,,,,,,,,,,,,,,,,,,,,,,,,,,,,,,,,,,,,,,,,,,,,,,,,,,,,,,,,,,,,,,,,,,"[""period""]",0,[0.2938999999761336],61,0,61,0,1,,
,,,,,,,,,,,,5eb35dff41a381156be161c2,22,Mężczyzna,2022-06-11_09h37.27.723,task,2021.1.4,Win32,59.79430758,6299f149e92ead563fba08ef,62a43db63a89f22d9e40be7f,,,,,,,,,,,,,,,,,,,,,,,,,,,,,,,,,,,,,,,,,,,,,,,,,,,,,,,,,,,,,,,,,,,,,,,,,,,,,,,,,,,,,,,,,,,,"[""comma""]",0,[0.23389999997618816],62,0,62,0,1,,
,,,,,,,,,,,,5eb35dff41a381156be161c2,22,Mężczyzna,2022-06-11_09h37.27.723,task,2021.1.4,Win32,59.79430758,6299f149e92ead563fba08ef,62a43db63a89f22d9e40be7f,,,,,,,,,,,,,,,,,,,,,,,,,,,,,,,,,,,,,,,,,,,,,,,,,,,,,,,,,,,,,,,,,,,,,,,,,,,,,,,,,,,,,,,,,,,,"[""comma""]",0,[0.27210000002378365],63,0,63,0,1,,
,,,,,,,,,,,,5eb35dff41a381156be161c2,22,Mężczyzna,2022-06-11_09h37.27.723,task,2021.1.4,Win32,59.79430758,6299f149e92ead563fba08ef,62a43db63a89f22d9e40be7f,,,,,,,,,,,,,,,,,,,,,,,,,,,,,,,,,,,,,,,,,,,,,,,,,,,,,,,,,,,,,,,,,,,,,,,,,,,,,,,,,,,,,,,,,,,,"[""period"",""comma""]",0,"[0.09450000000003911,1.9115000000000464]",64,0,64,0,1,,
,,,,,,,,,,,,5eb35dff41a381156be161c2,22,Mężczyzna,2022-06-11_09h37.27.723,task,2021.1.4,Win32,59.79430758,6299f149e92ead563fba08ef,62a43db63a89f22d9e40be7f,,,,,,,,,,,,,,,,,,,,,,,,,,,,,,,,,,,,,,,,,,,,,,,,,,,,,,,,,,,,,,,,,,,,,,,,,,,,,,,,,,,,,,,,,,,,,0,,65,0,65,0,1,,
,,,,,,,,,,,,5eb35dff41a381156be161c2,22,Mężczyzna,2022-06-11_09h37.27.723,task,2021.1.4,Win32,59.79430758,6299f149e92ead563fba08ef,62a43db63a89f22d9e40be7f,,,,,,,,,,,,,,,,,,,,,,,,,,,,,,,,,,,,,,,,,,,,,,,,,,,,,,,,,,,,,,,,,,,,,,,,,,,,,,,,,,,,,,,,,,,,"[""period""]",0,[-0.011800000011930933],66,0,66,0,1,,
,,,,,,,,,,,,5eb35dff41a381156be161c2,22,Mężczyzna,2022-06-11_09h37.27.723,task,2021.1.4,Win32,59.79430758,6299f149e92ead563fba08ef,62a43db63a89f22d9e40be7f,,,,,,,,,,,,,,,,,,,,,,,,,,,,,,,,,,,,,,,,,,,,,,,,,,,,,,,,,,,,,,,,,,,,,,,,,,,,,,,,,,,,,,,,,,,,"[""period""]",0,[0.01930000001186727],67,0,67,0,1,,
,,,,,,,,,,,,5eb35dff41a381156be161c2,22,Mężczyzna,2022-06-11_09h37.27.723,task,2021.1.4,Win32,59.79430758,6299f149e92ead563fba08ef,62a43db63a89f22d9e40be7f,,,,,,,,,,,,,,,,,,,,,,,,,,,,,,,,,,,,,,,,,,,,,,,,,,,,,,,,,,,,,,,,,,,,,,,,,,,,,,,,,,,,,,,,,,,,"[""comma""]",0,[0.20830000001194549],68,0,68,0,1,,
,,,,,,,,,,,,5eb35dff41a381156be161c2,22,Mężczyzna,2022-06-11_09h37.27.723,task,2021.1.4,Win32,59.79430758,6299f149e92ead563fba08ef,62a43db63a89f22d9e40be7f,,,,,,,,,,,,,,,,,,,,,,,,,,,,,,,,,,,,,,,,,,,,,,,,,,,,,,,,,,,,,,,,,,,,,,,,,,,,,,,,,,,,,,,,,,,,"[""period""]",0,[0.06340000003569912],69,0,69,0,1,,
,,,,,,,,,,,,5eb35dff41a381156be161c2,22,Mężczyzna,2022-06-11_09h37.27.723,task,2021.1.4,Win32,59.79430758,6299f149e92ead563fba08ef,62a43db63a89f22d9e40be7f,,,,,,,,,,,,,,,,,,,,,,,,,,,,,,,,,,,,,,,,,,,,,,,,,,,,,,,,,,,,,,,,,,,,,,,,,,,,,,,,,,,,,,,,,,,,"[""period""]",0,[0.27469999998811545],70,0,70,0,1,,
,,,,,,,,,,,,5eb35dff41a381156be161c2,22,Mężczyzna,2022-06-11_09h37.27.723,task,2021.1.4,Win32,59.79430758,6299f149e92ead563fba08ef,62a43db63a89f22d9e40be7f,,,,,,,,,,,,,,,,,,,,,,,,,,,,,,,,,,,,,,,,,,,,,,,,,,,,,,,,,,,,,,,,,,,,,,,,,,,,,,,,,,,,,,,,,,,,"[""comma""]",0,[0.24300000000005184],71,0,71,0,1,,
,,,,,,,,,,,,5eb35dff41a381156be161c2,22,Mężczyzna,2022-06-11_09h37.27.723,task,2021.1.4,Win32,59.79430758,6299f149e92ead563fba08ef,62a43db63a89f22d9e40be7f,,,,,,,,,,,,,,,,,,,,,,,,,,,,,,,,,,,,,,,,,,,,,,,,,,,,,,,,,,,,,,,,,,,,,,,,,,,,,,,,,,,,,,,,,,,,"[""period""]",0,[0.1336000000238755],72,0,72,0,1,,
,,,,,,,,,,,,5eb35dff41a381156be161c2,22,Mężczyzna,2022-06-11_09h37.27.723,task,2021.1.4,Win32,59.79430758,6299f149e92ead563fba08ef,62a43db63a89f22d9e40be7f,,,,,,,,,,,,,,,,,,,,,,,,,,,,,,,,,,,,,,,,,,,,,,,,,,,,,,,,,,,,,,,,,,,,,,,,,,,,,,,,,,,,,,,,,,,,"[""comma""]",0,[0.25619999998809817],73,0,73,0,1,,
,,,,,,,,,,,,5eb35dff41a381156be161c2,22,Mężczyzna,2022-06-11_09h37.27.723,task,2021.1.4,Win32,59.79430758,6299f149e92ead563fba08ef,62a43db63a89f22d9e40be7f,,,,,,,,,,,,,,,,,,,,,,,,,,,,,,,,,,,,,,,,,,,,,,,,,,,,,,,,,,,,,,,,,,,,,,,,,,,,,,,,,,,,,,,,,,,,"[""period""]",0,[0.3838000000118882],74,0,74,0,1,,
,,,,,,,,,,,,5eb35dff41a381156be161c2,22,Mężczyzna,2022-06-11_09h37.27.723,task,2021.1.4,Win32,59.79430758,6299f149e92ead563fba08ef,62a43db63a89f22d9e40be7f,,,,,,,,,,,,,,,,,,,,,,,,,,,,,,,,,,,,,,,,,,,,,,,,,,,,,,,,,,,,,,,,,,,,,,,,,,,,,,,,,,,,,,,,,,,,"[""comma""]",0,[0.3846000000237382],75,0,75,0,1,,
,,,,,,,,,,,,5eb35dff41a381156be161c2,22,Mężczyzna,2022-06-11_09h37.27.723,task,2021.1.4,Win32,59.79430758,6299f149e92ead563fba08ef,62a43db63a89f22d9e40be7f,,,,,,,,,,,,,,,,,,,,,,,,,,,,,,,,,,,,,,,,,,,,,,,,,,,,,,,,,,,,,,,,,,,,,,,,,,,,,,,,,,,,,,,,,,,,"[""period""]",0,[0.5685000000000855],76,0,76,0,1,,
,,,,,,,,,,,,5eb35dff41a381156be161c2,22,Mężczyzna,2022-06-11_09h37.27.723,task,2021.1.4,Win32,59.79430758,6299f149e92ead563fba08ef,62a43db63a89f22d9e40be7f,,,,,,,,,,,,,,,,,,,,,,,,,,,,,,,,,,,,,,,,,,,,,,,,,,,,,,,,,,,,,,,,,,,,,,,,,,,,,,,,,,,,,,,,,,,,"[""comma""]",0,[0.39710000002378365],77,0,77,0,1,,
,,,,,,,,,,,,5eb35dff41a381156be161c2,22,Mężczyzna,2022-06-11_09h37.27.723,task,2021.1.4,Win32,59.79430758,6299f149e92ead563fba08ef,62a43db63a89f22d9e40be7f,,,,,,,,,,,,,,,,,,,,,,,,,,,,,,,,,,,,,,,,,,,,,,,,,,,,,,,,,,,,,,,,,,,,,,,,,,,,,,,,,,,,,,,,,,,,"[""period""]",0,[0.5358000000119318],78,0,78,0,1,,
,,,,,,,,,,,,5eb35dff41a381156be161c2,22,Mężczyzna,2022-06-11_09h37.27.723,task,2021.1.4,Win32,59.79430758,6299f149e92ead563fba08ef,62a43db63a89f22d9e40be7f,,,,,,,,,,,,,,,,,,,,,,,,,,,,,,,,,,,,,,,,,,,,,,,,,,,,,,,,,,,,,,,,,,,,,,,,,,,,,,,,,,,,,,,,,,,,"[""comma""]",0,[0.5893999999761945],79,0,79,0,1,,
,,,,,,,,,,,,5eb35dff41a381156be161c2,22,Mężczyzna,2022-06-11_09h37.27.723,task,2021.1.4,Win32,59.79430758,6299f149e92ead563fba08ef,62a43db63a89f22d9e40be7f,,,,,,,,,,,,,,,,,,,,,,,,,,,,,,,,,,,,,,,,,,,,,,,,,,,,,,,,,,,,,,,,,,,,,,,,,,,,,,,,,,,,,,,,,,,,"[""comma""]",0,[0.26700000000005275],80,0,80,0,1,,
,,,,,,,,,,,,5eb35dff41a381156be161c2,22,Mężczyzna,2022-06-11_09h37.27.723,task,2021.1.4,Win32,59.79430758,6299f149e92ead563fba08ef,62a43db63a89f22d9e40be7f,,,,,,,,,,,,,,,,,,,,,,,,,,,,,,,,,,,,,,,,,,,,,,,,,,,,,,,,,,,,,,,,,,,,,,,,,,,,,,,,,,,,,,,,,,,,"[""comma""]",0,[0.26699999999993906],81,0,81,0,1,,
,,,,,,,,,,,,5eb35dff41a381156be161c2,22,Mężczyzna,2022-06-11_09h37.27.723,task,2021.1.4,Win32,59.79430758,6299f149e92ead563fba08ef,62a43db63a89f22d9e40be7f,,,,,,,,,,,,,,,,,,,,,,,,,,,,,,,,,,,,,,,,,,,,,,,,,,,,,,,,,,,,,,,,,,,,,,,,,,,,,,,,,,,,,,,,,,,,"[""period""]",0,[0.05369999998811181],82,0,82,0,1,,
,,,,,,,,,,,,5eb35dff41a381156be161c2,22,Mężczyzna,2022-06-11_09h37.27.723,task,2021.1.4,Win32,59.79430758,6299f149e92ead563fba08ef,62a43db63a89f22d9e40be7f,,,,,,,,,,,,,,,,,,,,,,,,,,,,,,,,,,,,,,,,,,,,,,,,,,,,,,,,,,,,,,,,,,,,,,,,,,,,,,,,,,,,,,,,,,,,"[""period""]",0,[0.018800000011879092],83,0,83,0,1,,
,,,,,,,,,,,,5eb35dff41a381156be161c2,22,Mężczyzna,2022-06-11_09h37.27.723,task,2021.1.4,Win32,59.79430758,6299f149e92ead563fba08ef,62a43db63a89f22d9e40be7f,,,,,,,,,,,,,,,,,,,,,,,,,,,,,,,,,,,,,,,,,,,,,,,,,,,,,,,,,,,,,,,,,,,,,,,,,,,,,,,,,,,,,,,,,,,,"[""comma""]",0,[0.28119999998807543],84,0,84,0,1,,
,,,,,,,,,,,,5eb35dff41a381156be161c2,22,Mężczyzna,2022-06-11_09h37.27.723,task,2021.1.4,Win32,59.79430758,6299f149e92ead563fba08ef,62a43db63a89f22d9e40be7f,,,,,,,,,,,,,,,,,,,,,,,,,,,,,,,,,,,,,,,,,,,,,,,,,,,,,,,,,,,,,,,,,,,,,,,,,,,,,,,,,,,,,,,,,,,,"[""period""]",0,[0.37319999998817366],85,0,85,0,1,,
,,,,,,,,,,,,5eb35dff41a381156be161c2,22,Mężczyzna,2022-06-11_09h37.27.723,task,2021.1.4,Win32,59.79430758,6299f149e92ead563fba08ef,62a43db63a89f22d9e40be7f,,,,,,,,,,,,,,,,,,,,,,,,,,,,,,,,,,,,,,,,,,,,,,,,,,,,,,,,,,,,,,,,,,,,,,,,,,,,,,,,,,,,,,,,,,,,"[""comma""]",0,[0.5699000000357728],86,0,86,0,1,,
,,,,,,,,,,,,5eb35dff41a381156be161c2,22,Mężczyzna,2022-06-11_09h37.27.723,task,2021.1.4,Win32,59.79430758,6299f149e92ead563fba08ef,62a43db63a89f22d9e40be7f,,,,,,,,,,,,,,,,,,,,,,,,,,,,,,,,,,,,,,,,,,,,,,,,,,,,,,,,,,,,,,,,,,,,,,,,,,,,,,,,,,,,,,,,,,,,"[""period""]",0,[0.53839999997615],87,0,87,0,1,,
,,,,,,,,,,,,5eb35dff41a381156be161c2,22,Mężczyzna,2022-06-11_09h37.27.723,task,2021.1.4,Win32,59.79430758,6299f149e92ead563fba08ef,62a43db63a89f22d9e40be7f,,,,,,,,,,,,,,,,,,,,,,,,,,,,,,,,,,,,,,,,,,,,,,,,,,,,,,,,,,,,,,,,,,,,,,,,,,,,,,,,,,,,,,,,,,,,"[""period""]",0,[0.2437000000476246],88,0,88,0,1,,
,,,,,,,,,,,,5eb35dff41a381156be161c2,22,Mężczyzna,2022-06-11_09h37.27.723,task,2021.1.4,Win32,59.79430758,6299f149e92ead563fba08ef,62a43db63a89f22d9e40be7f,,,,,,,,,,,,,,,,,,,,,,,,,,,,,,,,,,,,,,,,,,,,,,,,,,,,,,,,,,,,,,,,,,,,,,,,,,,,,,,,,,,,,,,,,,,,"[""comma""]",0,[0.2504999999999882],89,0,89,0,1,,
,,,,,,,,,,,,5eb35dff41a381156be161c2,22,Mężczyzna,2022-06-11_09h37.27.723,task,2021.1.4,Win32,59.79430758,6299f149e92ead563fba08ef,62a43db63a89f22d9e40be7f,,,,,,,,,,,,,,,,,,,,,,,,,,,,,,,,,,,,,,,,,,,,,,,,,,,,,,,,,,,,,,,,,,,,,,,,,,,,,,,,,,,,,,,,,,,,"[""comma""]",0,[0.4896999999880336],90,0,90,0,1,,
,,,,,,,,,,,,5eb35dff41a381156be161c2,22,Mężczyzna,2022-06-11_09h37.27.723,task,2021.1.4,Win32,59.79430758,6299f149e92ead563fba08ef,62a43db63a89f22d9e40be7f,,,,,,,,,,,,,,,,,,,,,,,,,,,,,,,,,,,,,,,,,,,,,,,,,,,,,,,,,,,,,,,,,,,,,,,,,,,,,,,,,,,,,,,,,,,,"[""comma""]",0,[0.26840000003574005],91,0,91,0,1,,
,,,,,,,,,,,,5eb35dff41a381156be161c2,22,Mężczyzna,2022-06-11_09h37.27.723,task,2021.1.4,Win32,59.79430758,6299f149e92ead563fba08ef,62a43db63a89f22d9e40be7f,,,,,,,,,,,,,,,,,,,,,,,,,,,,,,,,,,,,,,,,,,,,,,,,,,,,,,,,,,,,,,,,,,,,,,,,,,,,,,,,,,,,,,,,,,,,"[""period""]",0,[0.2613999999761063],92,0,92,0,1,,
,,,,,,,,,,,,5eb35dff41a381156be161c2,22,Mężczyzna,2022-06-11_09h37.27.723,task,2021.1.4,Win32,59.79430758,6299f149e92ead563fba08ef,62a43db63a89f22d9e40be7f,,,,,,,,,,,,,,,,,,,,,,,,,,,,,,,,,,,,,,,,,,,,,,,,,,,,,,,,,,,,,,,,,,,,,,,,,,,,,,,,,,,,,,,,,,,,"[""comma""]",0,[0.5836000000238073],93,0,93,0,1,,
,,,,,,,,,,,,5eb35dff41a381156be161c2,22,Mężczyzna,2022-06-11_09h37.27.723,task,2021.1.4,Win32,59.79430758,6299f149e92ead563fba08ef,62a43db63a89f22d9e40be7f,,,,,,,,,,,,,,,,,,,,,,,,,,,,,,,,,,,,,,,,,,,,,,,,,,,,,,,,,,,,,,,,,,,,,,,,,,,,,,,,,,,,,,,,,,,,"[""period""]",0,[0.68569999998806],94,0,94,0,1,,
,,,,,,,,,,,,5eb35dff41a381156be161c2,22,Mężczyzna,2022-06-11_09h37.27.723,task,2021.1.4,Win32,59.79430758,6299f149e92ead563fba08ef,62a43db63a89f22d9e40be7f,,,,,,,,,,,,,,,,,,,,,,,,,,,,,,,,,,,,,,,,,,,,,,,,,,,,,,,,,,,,,,,,,,,,,,,,,,,,,,,,,,,,,,,,,,,,,0,,95,0,95,0,1,,
,,,,,,,,,,,,5eb35dff41a381156be161c2,22,Mężczyzna,2022-06-11_09h37.27.723,task,2021.1.4,Win32,59.79430758,6299f149e92ead563fba08ef,62a43db63a89f22d9e40be7f,,,,,,,,,,,,,,,,,,,,,,,,,,,,,,,,,,,,,,,,,,,,,,,,,,,,,,,,,,,,,,,,,,,,,,,,,,,,,,,,,,,,,,,,,,,,"[""comma""]",0,[0.25219999998807907],96,0,96,0,1,,
,,,,,,,,,,,,5eb35dff41a381156be161c2,22,Mężczyzna,2022-06-11_09h37.27.723,task,2021.1.4,Win32,59.79430758,6299f149e92ead563fba08ef,62a43db63a89f22d9e40be7f,,,,,,,,,,,,,,,,,,,,,,,,,,,,,,,,,,,,,,,,,,,,,,,,,,,,,,,,,,,,,,,,,,,,,,,,,,,,,,,,,,,,,,,,,,,,"[""period""]",0,[0.39490000003581827],97,0,97,0,1,,
,,,,,,,,,,,,5eb35dff41a381156be161c2,22,Mężczyzna,2022-06-11_09h37.27.723,task,2021.1.4,Win32,59.79430758,6299f149e92ead563fba08ef,62a43db63a89f22d9e40be7f,,,,,,,,,,,,,,,,,,,,,,,,,,,,,,,,,,,,,,,,,,,,,,,,,,,,,,,,,,,,,,,,,,,,,,,,,,,,,,,,,,,,,,,,,,,,"[""period""]",0,[0.33119999998802996],98,0,98,0,1,,
,,,,,,,,,,,,5eb35dff41a381156be161c2,22,Mężczyzna,2022-06-11_09h37.27.723,task,2021.1.4,Win32,59.79430758,6299f149e92ead563fba08ef,62a43db63a89f22d9e40be7f,,,,,,,,,,,,,,,,,,,,,,,,,,,,,,,,,,,,,,,,,,,,,,,,,,,,,,,,,,,,,,,,,,,,,,,,,,,,,,,,,,,,,,,,,,,,"[""comma""]",0,[0.2778999999761709],99,0,99,0,1,,
,,,,,,,,,,,,5eb35dff41a381156be161c2,22,Mężczyzna,2022-06-11_09h37.27.723,task,2021.1.4,Win32,59.79430758,6299f149e92ead563fba08ef,62a43db63a89f22d9e40be7f,,,,,,,,,,,,,,,,,,,,,,,,,,,,,,,,,,,,,,,,,,,,,,,,,,,,,,,,,,,,,,,,,,,,,,,,,,,,,,,,,,,,,,,,,,,,"[""comma""]",0,[0.30659999996419174],100,0,100,0,1,,
,,,,,,,,,,,,5eb35dff41a381156be161c2,22,Mężczyzna,2022-06-11_09h37.27.723,task,2021.1.4,Win32,59.79430758,6299f149e92ead563fba08ef,62a43db63a89f22d9e40be7f,,,,,,,,,,,,,,,,,,,,,,,,,,,,,,,,,,,,,,,,,,,,,,,,,,,,,,,,,,,,,,,,,,,,,,,,,,,,,,,,,,,,,,,,,,,,"[""period""]",0,[0.2628999999761845],101,0,101,0,1,,
,,,,,,,,,,,,5eb35dff41a381156be161c2,22,Mężczyzna,2022-06-11_09h37.27.723,task,2021.1.4,Win32,59.79430758,6299f149e92ead563fba08ef,62a43db63a89f22d9e40be7f,,,,,,,,,,,,,,,,,,,,,,,,,,,,,,,,,,,,,,,,,,,,,,,,,,,,,,,,,,,,,,,,,,,,,,,,,,,,,,,,,,,,,,,,,,,,"[""comma""]",0,[0.307400000035841],102,0,102,0,1,,
,,,,,,,,,,,,5eb35dff41a381156be161c2,22,Mężczyzna,2022-06-11_09h37.27.723,task,2021.1.4,Win32,59.79430758,6299f149e92ead563fba08ef,62a43db63a89f22d9e40be7f,,,,,,,,,,,,,,,,,,,,,,,,,,,,,,,,,,,,,,,,,,,,,,,,,,,,,,,,,,,,,,,,,,,,,,,,,,,,,,,,,,,,,,,,,,,,"[""comma""]",0,[0.31119999998804815],103,0,103,0,1,,
,,,,,,,,,,,,5eb35dff41a381156be161c2,22,Mężczyzna,2022-06-11_09h37.27.723,task,2021.1.4,Win32,59.79430758,6299f149e92ead563fba08ef,62a43db63a89f22d9e40be7f,,,,,,,,,,,,,,,,,,,,,,,,,,,,,,,,,,,,,,,,,,,,,,,,,,,,,,,,,,,,,,,,,,,,,,,,,,,,,,,,,,,,,,,,,,,,"[""period""]",0,[0.548100000023851],104,0,104,0,1,,
