key_resp_15.keys,key_resp_15.rt,key_resp_16.keys,key_resp_16.rt,key_resp_4.keys,key_resp_4.rt,next_letter.thisRepN,next_letter.thisTrialN,next_letter.thisN,next_letter.thisIndex,next_letter.ran,letter,participant,Wiek*,Płeć,date,expName,psychopyVersion,OS,frameRate,study_id,session,simple_recall,key_resp_5.keys,key_resp_5.rt,simple_recall_corr,simple_recall_corrkeys,next_level.thisRepN,next_level.thisTrialN,next_level.thisN,next_level.thisIndex,next_level.ran,key_resp_2.keys,key_resp_2.rt,digit_answer,key_resp.keys,key_resp.corr,key_resp.rt,RT_list,next_equation.thisRepN,next_equation.thisTrialN,next_equation.thisN,next_equation.thisIndex,next_equation.ran,Task,Trial,Problem,Operation_answer,processing_score,sumRT,meanRT,sumdiff,sd,RT,key_resp_3.keys,key_resp_3.rt,repeat_practice.thisRepN,repeat_practice.thisTrialN,repeat_practice.thisN,repeat_practice.thisIndex,repeat_practice.ran,key_resp_6.keys,key_resp_6.rt,key_resp_11.keys,key_resp_11.corr,key_resp_11.rt,operation_correct,repeat_if_wrong_prac.thisRepN,repeat_if_wrong_prac.thisTrialN,repeat_if_wrong_prac.thisN,repeat_if_wrong_prac.thisIndex,repeat_if_wrong_prac.ran,span_size_prac.thisRepN,span_size_prac.thisTrialN,span_size_prac.thisN,span_size_prac.thisIndex,span_size_prac.ran,complex_recall_practice,key_resp_9.keys,key_resp_9.corr,key_resp_9.rt,complex_prac_corr,span_recall_prac.thisRepN,span_recall_prac.thisTrialN,span_recall_prac.thisN,span_recall_prac.thisIndex,span_recall_prac.ran,key_resp_10.keys,key_resp_10.rt,key_resp_7.keys,key_resp_7.corr,key_resp_7.rt,repeat_if_wrong.thisRepN,repeat_if_wrong.thisTrialN,repeat_if_wrong.thisN,repeat_if_wrong.thisIndex,repeat_if_wrong.ran,span_size.thisRepN,span_size.thisTrialN,span_size.thisN,span_size.thisIndex,span_size.ran,complex_recall,key_resp_8.keys,key_resp_8.corr,key_resp_8.rt,complex_recall_corr,complex_recall_corrkeys,span_recall.thisRepN,span_recall.thisTrialN,span_recall.thisN,span_recall.thisIndex,span_recall.ran,key_resp_13.keys,key_resp_13.corr,key_resp_13.rt,random_loop.thisRepN,random_loop.thisTrialN,random_loop.thisN,random_loop.thisIndex,random_loop.ran,key_resp_12.keys,key_resp_12.rt
space,4.4649,space,10.588,space,4.9746,0,0,0,0,1,X V Q F H G B L J M P D K C T S W R N Z,5ebc2fee1a174604b326e8ea,39,Kobieta,2022-06-11_08h15.26.783,task,2021.1.4,Win32,40.0160064,6299f149e92ead563fba08ef,62a440ffb2cdd044abd6ed76,,,,,,,,,,,,,,,,,,,,,,,,,,,,,,,,,,,,,,,,,,,,,,,,,,,,,,,,,,,,,,,,,,,,,,,,,,,,,,,,,,,,,,,,,,,,,,,,,,,,,
,,,,,,1,0,1,0,1,X V Q F H G B L J M P D K C T S W R N Z,5ebc2fee1a174604b326e8ea,39,Kobieta,2022-06-11_08h15.26.783,task,2021.1.4,Win32,40.0160064,6299f149e92ead563fba08ef,62a440ffb2cdd044abd6ed76,,,,,,,,,,,,,,,,,,,,,,,,,,,,,,,,,,,,,,,,,,,,,,,,,,,,,,,,,,,,,,,,,,,,,,,,,,,,,,,,,,,,,,,,,,,,,,,,,,,,,
,,,,,,,,,,,,5ebc2fee1a174604b326e8ea,39,Kobieta,2022-06-11_08h15.26.783,task,2021.1.4,Win32,40.0160064,6299f149e92ead563fba08ef,62a440ffb2cdd044abd6ed76,zz,"[""z"",""z""]","[2.571900000000028,2.775400000000026,3.7341000000000975]",1,ZZ,0,0,0,0,1,,,,,,,,,,,,,,,,,,,,,,,,,,,,,,,,,,,,,,,,,,,,,,,,,,,,,,,,,,,,,,,,,,,,,,,,,,,,,,,,,,,,,,,,,,,
,,,,,,0,0,0,0,1,X V Q F H G B L J M P D K C T S W R N Z,5ebc2fee1a174604b326e8ea,39,Kobieta,2022-06-11_08h15.26.783,task,2021.1.4,Win32,40.0160064,6299f149e92ead563fba08ef,62a440ffb2cdd044abd6ed76,,,,,,,,,,,,,,,,,,,,,,,,,,,,,,,,,,,,,,,,,,,,,,,,,,,,,,,,,,,,,,,,,,,,,,,,,,,,,,,,,,,,,,,,,,,,,,,,,,,,,
,,,,,,1,0,1,0,1,X V Q F H G B L J M P D K C T S W R N Z,5ebc2fee1a174604b326e8ea,39,Kobieta,2022-06-11_08h15.26.783,task,2021.1.4,Win32,40.0160064,6299f149e92ead563fba08ef,62a440ffb2cdd044abd6ed76,,,,,,,,,,,,,,,,,,,,,,,,,,,,,,,,,,,,,,,,,,,,,,,,,,,,,,,,,,,,,,,,,,,,,,,,,,,,,,,,,,,,,,,,,,,,,,,,,,,,,
,,,,,,,,,,,,5ebc2fee1a174604b326e8ea,39,Kobieta,2022-06-11_08h15.26.783,task,2021.1.4,Win32,40.0160064,6299f149e92ead563fba08ef,62a440ffb2cdd044abd6ed76,nm,"[""n"",""m""]","[1.8531999999999513,2.1089000000000198,3.047299999999929]",1,NM,1,0,1,0,1,,,,,,,,,,,,,,,,,,,,,,,,,,,,,,,,,,,,,,,,,,,,,,,,,,,,,,,,,,,,,,,,,,,,,,,,,,,,,,,,,,,,,,,,,,,
,,,,,,0,0,0,0,1,X V Q F H G B L J M P D K C T S W R N Z,5ebc2fee1a174604b326e8ea,39,Kobieta,2022-06-11_08h15.26.783,task,2021.1.4,Win32,40.0160064,6299f149e92ead563fba08ef,62a440ffb2cdd044abd6ed76,,,,,,,,,,,,,,,,,,,,,,,,,,,,,,,,,,,,,,,,,,,,,,,,,,,,,,,,,,,,,,,,,,,,,,,,,,,,,,,,,,,,,,,,,,,,,,,,,,,,,
,,,,,,1,0,1,0,1,X V Q F H G B L J M P D K C T S W R N Z,5ebc2fee1a174604b326e8ea,39,Kobieta,2022-06-11_08h15.26.783,task,2021.1.4,Win32,40.0160064,6299f149e92ead563fba08ef,62a440ffb2cdd044abd6ed76,,,,,,,,,,,,,,,,,,,,,,,,,,,,,,,,,,,,,,,,,,,,,,,,,,,,,,,,,,,,,,,,,,,,,,,,,,,,,,,,,,,,,,,,,,,,,,,,,,,,,
,,,,,,2,0,2,0,1,X V Q F H G B L J M P D K C T S W R N Z,5ebc2fee1a174604b326e8ea,39,Kobieta,2022-06-11_08h15.26.783,task,2021.1.4,Win32,40.0160064,6299f149e92ead563fba08ef,62a440ffb2cdd044abd6ed76,,,,,,,,,,,,,,,,,,,,,,,,,,,,,,,,,,,,,,,,,,,,,,,,,,,,,,,,,,,,,,,,,,,,,,,,,,,,,,,,,,,,,,,,,,,,,,,,,,,,,
,,,,,,,,,,,,5ebc2fee1a174604b326e8ea,39,Kobieta,2022-06-11_08h15.26.783,task,2021.1.4,Win32,40.0160064,6299f149e92ead563fba08ef,62a440ffb2cdd044abd6ed76,cwr,"[""c"",""w"",""r""]","[1.5960999999999785,1.8704999999999998,2.1341999999999572,2.857900000000022]",1,CWR,2,0,2,0,1,,,,,,,,,,,,,,,,,,,,,,,,,,,,,,,,,,,,,,,,,,,,,,,,,,,,,,,,,,,,,,,,,,,,,,,,,,,,,,,,,,,,,,,,,,,
,,,,,,0,0,0,0,1,X V Q F H G B L J M P D K C T S W R N Z,5ebc2fee1a174604b326e8ea,39,Kobieta,2022-06-11_08h15.26.783,task,2021.1.4,Win32,40.0160064,6299f149e92ead563fba08ef,62a440ffb2cdd044abd6ed76,,,,,,,,,,,,,,,,,,,,,,,,,,,,,,,,,,,,,,,,,,,,,,,,,,,,,,,,,,,,,,,,,,,,,,,,,,,,,,,,,,,,,,,,,,,,,,,,,,,,,
,,,,,,1,0,1,0,1,X V Q F H G B L J M P D K C T S W R N Z,5ebc2fee1a174604b326e8ea,39,Kobieta,2022-06-11_08h15.26.783,task,2021.1.4,Win32,40.0160064,6299f149e92ead563fba08ef,62a440ffb2cdd044abd6ed76,,,,,,,,,,,,,,,,,,,,,,,,,,,,,,,,,,,,,,,,,,,,,,,,,,,,,,,,,,,,,,,,,,,,,,,,,,,,,,,,,,,,,,,,,,,,,,,,,,,,,
,,,,,,2,0,2,0,1,X V Q F H G B L J M P D K C T S W R N Z,5ebc2fee1a174604b326e8ea,39,Kobieta,2022-06-11_08h15.26.783,task,2021.1.4,Win32,40.0160064,6299f149e92ead563fba08ef,62a440ffb2cdd044abd6ed76,,,,,,,,,,,,,,,,,,,,,,,,,,,,,,,,,,,,,,,,,,,,,,,,,,,,,,,,,,,,,,,,,,,,,,,,,,,,,,,,,,,,,,,,,,,,,,,,,,,,,
,,,,,,,,,,,,5ebc2fee1a174604b326e8ea,39,Kobieta,2022-06-11_08h15.26.783,task,2021.1.4,Win32,40.0160064,6299f149e92ead563fba08ef,62a440ffb2cdd044abd6ed76,gbp,"[""g"",""b"",""p""]","[1.471500000000006,1.8052000000000703,2.037700000000072,2.3655000000000044]",1,GBP,3,0,3,0,1,,,,,,,,,,,,,,,,,,,,,,,,,,,,,,,,,,,,,,,,,,,,,,,,,,,,,,,,,,,,,,,,,,,,,,,,,,,,,,,,,,,,,,,,,,,
,,,,,,0,0,0,0,1,X V Q F H G B L J M P D K C T S W R N Z,5ebc2fee1a174604b326e8ea,39,Kobieta,2022-06-11_08h15.26.783,task,2021.1.4,Win32,40.0160064,6299f149e92ead563fba08ef,62a440ffb2cdd044abd6ed76,,,,,,,,,,,,,,,,,,,,,,,,,,,,,,,,,,,,,,,,,,,,,,,,,,,,,,,,,,,,,,,,,,,,,,,,,,,,,,,,,,,,,,,,,,,,,,,,,,,,,
,,,,,,1,0,1,0,1,X V Q F H G B L J M P D K C T S W R N Z,5ebc2fee1a174604b326e8ea,39,Kobieta,2022-06-11_08h15.26.783,task,2021.1.4,Win32,40.0160064,6299f149e92ead563fba08ef,62a440ffb2cdd044abd6ed76,,,,,,,,,,,,,,,,,,,,,,,,,,,,,,,,,,,,,,,,,,,,,,,,,,,,,,,,,,,,,,,,,,,,,,,,,,,,,,,,,,,,,,,,,,,,,,,,,,,,,
,,,,,,2,0,2,0,1,X V Q F H G B L J M P D K C T S W R N Z,5ebc2fee1a174604b326e8ea,39,Kobieta,2022-06-11_08h15.26.783,task,2021.1.4,Win32,40.0160064,6299f149e92ead563fba08ef,62a440ffb2cdd044abd6ed76,,,,,,,,,,,,,,,,,,,,,,,,,,,,,,,,,,,,,,,,,,,,,,,,,,,,,,,,,,,,,,,,,,,,,,,,,,,,,,,,,,,,,,,,,,,,,,,,,,,,,
,,,,,,3,0,3,0,1,X V Q F H G B L J M P D K C T S W R N Z,5ebc2fee1a174604b326e8ea,39,Kobieta,2022-06-11_08h15.26.783,task,2021.1.4,Win32,40.0160064,6299f149e92ead563fba08ef,62a440ffb2cdd044abd6ed76,,,,,,,,,,,,,,,,,,,,,,,,,,,,,,,,,,,,,,,,,,,,,,,,,,,,,,,,,,,,,,,,,,,,,,,,,,,,,,,,,,,,,,,,,,,,,,,,,,,,,
,,,,,,,,,,,,5ebc2fee1a174604b326e8ea,39,Kobieta,2022-06-11_08h15.26.783,task,2021.1.4,Win32,40.0160064,6299f149e92ead563fba08ef,62a440ffb2cdd044abd6ed76,rbfm,"[""r"",""b"",""f"",""m""]","[1.4973000000000454,2.0826000000000917,2.9959000000000273,3.2741000000000966,4.017100000000092]",1,RBFM,4,0,4,0,1,,,,,,,,,,,,,,,,,,,,,,,,,,,,,,,,,,,,,,,,,,,,,,,,,,,,,,,,,,,,,,,,,,,,,,,,,,,,,,,,,,,,,,,,,,,
,,,,,,0,0,0,0,1,X V Q F H G B L J M P D K C T S W R N Z,5ebc2fee1a174604b326e8ea,39,Kobieta,2022-06-11_08h15.26.783,task,2021.1.4,Win32,40.0160064,6299f149e92ead563fba08ef,62a440ffb2cdd044abd6ed76,,,,,,,,,,,,,,,,,,,,,,,,,,,,,,,,,,,,,,,,,,,,,,,,,,,,,,,,,,,,,,,,,,,,,,,,,,,,,,,,,,,,,,,,,,,,,,,,,,,,,
,,,,,,1,0,1,0,1,X V Q F H G B L J M P D K C T S W R N Z,5ebc2fee1a174604b326e8ea,39,Kobieta,2022-06-11_08h15.26.783,task,2021.1.4,Win32,40.0160064,6299f149e92ead563fba08ef,62a440ffb2cdd044abd6ed76,,,,,,,,,,,,,,,,,,,,,,,,,,,,,,,,,,,,,,,,,,,,,,,,,,,,,,,,,,,,,,,,,,,,,,,,,,,,,,,,,,,,,,,,,,,,,,,,,,,,,
,,,,,,2,0,2,0,1,X V Q F H G B L J M P D K C T S W R N Z,5ebc2fee1a174604b326e8ea,39,Kobieta,2022-06-11_08h15.26.783,task,2021.1.4,Win32,40.0160064,6299f149e92ead563fba08ef,62a440ffb2cdd044abd6ed76,,,,,,,,,,,,,,,,,,,,,,,,,,,,,,,,,,,,,,,,,,,,,,,,,,,,,,,,,,,,,,,,,,,,,,,,,,,,,,,,,,,,,,,,,,,,,,,,,,,,,
,,,,,,3,0,3,0,1,X V Q F H G B L J M P D K C T S W R N Z,5ebc2fee1a174604b326e8ea,39,Kobieta,2022-06-11_08h15.26.783,task,2021.1.4,Win32,40.0160064,6299f149e92ead563fba08ef,62a440ffb2cdd044abd6ed76,,,,,,,,,,,,,,,,,,,,,,,,,,,,,,,,,,,,,,,,,,,,,,,,,,,,,,,,,,,,,,,,,,,,,,,,,,,,,,,,,,,,,,,,,,,,,,,,,,,,,
,,,,,,,,,,,,5ebc2fee1a174604b326e8ea,39,Kobieta,2022-06-11_08h15.26.783,task,2021.1.4,Win32,40.0160064,6299f149e92ead563fba08ef,62a440ffb2cdd044abd6ed76,gxtq,"[""g"",""x"",""t"",""q""]","[2.4755999999999716,3.6964000000000254,4.252299999999934,5.609199999999959,6.94669999999995]",1,GXTQ,5,0,5,0,1,,,,,,,,,,,,,,,,,,,,,,,,,,,,,,,,,,,,,,,,,,,,,,,,,,,,,,,,,,,,,,,,,,,,,,,,,,,,,,,,,,,,,,,,,,,
,,,,,,0,0,0,0,1,X V Q F H G B L J M P D K C T S W R N Z,5ebc2fee1a174604b326e8ea,39,Kobieta,2022-06-11_08h15.26.783,task,2021.1.4,Win32,40.0160064,6299f149e92ead563fba08ef,62a440ffb2cdd044abd6ed76,,,,,,,,,,,,,,,,,,,,,,,,,,,,,,,,,,,,,,,,,,,,,,,,,,,,,,,,,,,,,,,,,,,,,,,,,,,,,,,,,,,,,,,,,,,,,,,,,,,,,
,,,,,,1,0,1,0,1,X V Q F H G B L J M P D K C T S W R N Z,5ebc2fee1a174604b326e8ea,39,Kobieta,2022-06-11_08h15.26.783,task,2021.1.4,Win32,40.0160064,6299f149e92ead563fba08ef,62a440ffb2cdd044abd6ed76,,,,,,,,,,,,,,,,,,,,,,,,,,,,,,,,,,,,,,,,,,,,,,,,,,,,,,,,,,,,,,,,,,,,,,,,,,,,,,,,,,,,,,,,,,,,,,,,,,,,,
,,,,,,2,0,2,0,1,X V Q F H G B L J M P D K C T S W R N Z,5ebc2fee1a174604b326e8ea,39,Kobieta,2022-06-11_08h15.26.783,task,2021.1.4,Win32,40.0160064,6299f149e92ead563fba08ef,62a440ffb2cdd044abd6ed76,,,,,,,,,,,,,,,,,,,,,,,,,,,,,,,,,,,,,,,,,,,,,,,,,,,,,,,,,,,,,,,,,,,,,,,,,,,,,,,,,,,,,,,,,,,,,,,,,,,,,
,,,,,,3,0,3,0,1,X V Q F H G B L J M P D K C T S W R N Z,5ebc2fee1a174604b326e8ea,39,Kobieta,2022-06-11_08h15.26.783,task,2021.1.4,Win32,40.0160064,6299f149e92ead563fba08ef,62a440ffb2cdd044abd6ed76,,,,,,,,,,,,,,,,,,,,,,,,,,,,,,,,,,,,,,,,,,,,,,,,,,,,,,,,,,,,,,,,,,,,,,,,,,,,,,,,,,,,,,,,,,,,,,,,,,,,,
,,,,,,4,0,4,0,1,X V Q F H G B L J M P D K C T S W R N Z,5ebc2fee1a174604b326e8ea,39,Kobieta,2022-06-11_08h15.26.783,task,2021.1.4,Win32,40.0160064,6299f149e92ead563fba08ef,62a440ffb2cdd044abd6ed76,,,,,,,,,,,,,,,,,,,,,,,,,,,,,,,,,,,,,,,,,,,,,,,,,,,,,,,,,,,,,,,,,,,,,,,,,,,,,,,,,,,,,,,,,,,,,,,,,,,,,
,,,,,,,,,,,,5ebc2fee1a174604b326e8ea,39,Kobieta,2022-06-11_08h15.26.783,task,2021.1.4,Win32,40.0160064,6299f149e92ead563fba08ef,62a440ffb2cdd044abd6ed76,nzfvv,"[""n"",""z"",""f"",""v"",""v""]","[0.9102000000000601,2.3034999999999997,2.85180000000004,3.1314000000000135,3.3019000000000176,3.6374999999999886]",1,NZFVV,6,0,6,0,1,,,,,,,,,,,,,,,,,,,,,,,,,,,,,,,,,,,,,,,,,,,,,,,,,,,,,,,,,,,,,,,,,,,,,,,,,,,,,,,,,,,,,,,,,,,
,,,,,,0,0,0,0,1,X V Q F H G B L J M P D K C T S W R N Z,5ebc2fee1a174604b326e8ea,39,Kobieta,2022-06-11_08h15.26.783,task,2021.1.4,Win32,40.0160064,6299f149e92ead563fba08ef,62a440ffb2cdd044abd6ed76,,,,,,,,,,,,,,,,,,,,,,,,,,,,,,,,,,,,,,,,,,,,,,,,,,,,,,,,,,,,,,,,,,,,,,,,,,,,,,,,,,,,,,,,,,,,,,,,,,,,,
,,,,,,1,0,1,0,1,X V Q F H G B L J M P D K C T S W R N Z,5ebc2fee1a174604b326e8ea,39,Kobieta,2022-06-11_08h15.26.783,task,2021.1.4,Win32,40.0160064,6299f149e92ead563fba08ef,62a440ffb2cdd044abd6ed76,,,,,,,,,,,,,,,,,,,,,,,,,,,,,,,,,,,,,,,,,,,,,,,,,,,,,,,,,,,,,,,,,,,,,,,,,,,,,,,,,,,,,,,,,,,,,,,,,,,,,
,,,,,,2,0,2,0,1,X V Q F H G B L J M P D K C T S W R N Z,5ebc2fee1a174604b326e8ea,39,Kobieta,2022-06-11_08h15.26.783,task,2021.1.4,Win32,40.0160064,6299f149e92ead563fba08ef,62a440ffb2cdd044abd6ed76,,,,,,,,,,,,,,,,,,,,,,,,,,,,,,,,,,,,,,,,,,,,,,,,,,,,,,,,,,,,,,,,,,,,,,,,,,,,,,,,,,,,,,,,,,,,,,,,,,,,,
,,,,,,3,0,3,0,1,X V Q F H G B L J M P D K C T S W R N Z,5ebc2fee1a174604b326e8ea,39,Kobieta,2022-06-11_08h15.26.783,task,2021.1.4,Win32,40.0160064,6299f149e92ead563fba08ef,62a440ffb2cdd044abd6ed76,,,,,,,,,,,,,,,,,,,,,,,,,,,,,,,,,,,,,,,,,,,,,,,,,,,,,,,,,,,,,,,,,,,,,,,,,,,,,,,,,,,,,,,,,,,,,,,,,,,,,
,,,,,,4,0,4,0,1,X V Q F H G B L J M P D K C T S W R N Z,5ebc2fee1a174604b326e8ea,39,Kobieta,2022-06-11_08h15.26.783,task,2021.1.4,Win32,40.0160064,6299f149e92ead563fba08ef,62a440ffb2cdd044abd6ed76,,,,,,,,,,,,,,,,,,,,,,,,,,,,,,,,,,,,,,,,,,,,,,,,,,,,,,,,,,,,,,,,,,,,,,,,,,,,,,,,,,,,,,,,,,,,,,,,,,,,,
,,,,,,,,,,,,5ebc2fee1a174604b326e8ea,39,Kobieta,2022-06-11_08h15.26.783,task,2021.1.4,Win32,40.0160064,6299f149e92ead563fba08ef,62a440ffb2cdd044abd6ed76,kqsqw,"[""k"",""q"",""s"",""q"",""w""]","[1.4952000000000822,2.0082000000000733,2.580900000000028,3.0999000000000336,3.3527000000000697,3.6701000000001045]",1,KQSQW,7,0,7,0,1,,,,,,,,,,,,,,,,,,,,,,,,,,,,,,,,,,,,,,,,,,,,,,,,,,,,,,,,,,,,,,,,,,,,,,,,,,,,,,,,,,,,,,,,,,,
,,,,,,0,0,0,0,1,X V Q F H G B L J M P D K C T S W R N Z,5ebc2fee1a174604b326e8ea,39,Kobieta,2022-06-11_08h15.26.783,task,2021.1.4,Win32,40.0160064,6299f149e92ead563fba08ef,62a440ffb2cdd044abd6ed76,,,,,,,,,,,,,,,,,,,,,,,,,,,,,,,,,,,,,,,,,,,,,,,,,,,,,,,,,,,,,,,,,,,,,,,,,,,,,,,,,,,,,,,,,,,,,,,,,,,,,
,,,,,,1,0,1,0,1,X V Q F H G B L J M P D K C T S W R N Z,5ebc2fee1a174604b326e8ea,39,Kobieta,2022-06-11_08h15.26.783,task,2021.1.4,Win32,40.0160064,6299f149e92ead563fba08ef,62a440ffb2cdd044abd6ed76,,,,,,,,,,,,,,,,,,,,,,,,,,,,,,,,,,,,,,,,,,,,,,,,,,,,,,,,,,,,,,,,,,,,,,,,,,,,,,,,,,,,,,,,,,,,,,,,,,,,,
,,,,,,2,0,2,0,1,X V Q F H G B L J M P D K C T S W R N Z,5ebc2fee1a174604b326e8ea,39,Kobieta,2022-06-11_08h15.26.783,task,2021.1.4,Win32,40.0160064,6299f149e92ead563fba08ef,62a440ffb2cdd044abd6ed76,,,,,,,,,,,,,,,,,,,,,,,,,,,,,,,,,,,,,,,,,,,,,,,,,,,,,,,,,,,,,,,,,,,,,,,,,,,,,,,,,,,,,,,,,,,,,,,,,,,,,
,,,,,,3,0,3,0,1,X V Q F H G B L J M P D K C T S W R N Z,5ebc2fee1a174604b326e8ea,39,Kobieta,2022-06-11_08h15.26.783,task,2021.1.4,Win32,40.0160064,6299f149e92ead563fba08ef,62a440ffb2cdd044abd6ed76,,,,,,,,,,,,,,,,,,,,,,,,,,,,,,,,,,,,,,,,,,,,,,,,,,,,,,,,,,,,,,,,,,,,,,,,,,,,,,,,,,,,,,,,,,,,,,,,,,,,,
,,,,,,4,0,4,0,1,X V Q F H G B L J M P D K C T S W R N Z,5ebc2fee1a174604b326e8ea,39,Kobieta,2022-06-11_08h15.26.783,task,2021.1.4,Win32,40.0160064,6299f149e92ead563fba08ef,62a440ffb2cdd044abd6ed76,,,,,,,,,,,,,,,,,,,,,,,,,,,,,,,,,,,,,,,,,,,,,,,,,,,,,,,,,,,,,,,,,,,,,,,,,,,,,,,,,,,,,,,,,,,,,,,,,,,,,
,,,,,,5,0,5,0,1,X V Q F H G B L J M P D K C T S W R N Z,5ebc2fee1a174604b326e8ea,39,Kobieta,2022-06-11_08h15.26.783,task,2021.1.4,Win32,40.0160064,6299f149e92ead563fba08ef,62a440ffb2cdd044abd6ed76,,,,,,,,,,,,,,,,,,,,,,,,,,,,,,,,,,,,,,,,,,,,,,,,,,,,,,,,,,,,,,,,,,,,,,,,,,,,,,,,,,,,,,,,,,,,,,,,,,,,,
,,,,,,,,,,,,5ebc2fee1a174604b326e8ea,39,Kobieta,2022-06-11_08h15.26.783,task,2021.1.4,Win32,40.0160064,6299f149e92ead563fba08ef,62a440ffb2cdd044abd6ed76,ddqxm,"[""d"",""d"",""q"",""x"",""m""]","[1.5713000000000363,1.7463000000000477,2.4803000000000424,4.044499999999999,4.296099999999967,4.917200000000065]",0,DDQBXM,8,0,8,0,1,,,,,,,,,,,,,,,,,,,,,,,,,,,,,,,,,,,,,,,,,,,,,,,,,,,,,,,,,,,,,,,,,,,,,,,,,,,,,,,,,,,,,,,,,,,
,,,,,,0,0,0,0,1,X V Q F H G B L J M P D K C T S W R N Z,5ebc2fee1a174604b326e8ea,39,Kobieta,2022-06-11_08h15.26.783,task,2021.1.4,Win32,40.0160064,6299f149e92ead563fba08ef,62a440ffb2cdd044abd6ed76,,,,,,,,,,,,,,,,,,,,,,,,,,,,,,,,,,,,,,,,,,,,,,,,,,,,,,,,,,,,,,,,,,,,,,,,,,,,,,,,,,,,,,,,,,,,,,,,,,,,,
,,,,,,1,0,1,0,1,X V Q F H G B L J M P D K C T S W R N Z,5ebc2fee1a174604b326e8ea,39,Kobieta,2022-06-11_08h15.26.783,task,2021.1.4,Win32,40.0160064,6299f149e92ead563fba08ef,62a440ffb2cdd044abd6ed76,,,,,,,,,,,,,,,,,,,,,,,,,,,,,,,,,,,,,,,,,,,,,,,,,,,,,,,,,,,,,,,,,,,,,,,,,,,,,,,,,,,,,,,,,,,,,,,,,,,,,
,,,,,,2,0,2,0,1,X V Q F H G B L J M P D K C T S W R N Z,5ebc2fee1a174604b326e8ea,39,Kobieta,2022-06-11_08h15.26.783,task,2021.1.4,Win32,40.0160064,6299f149e92ead563fba08ef,62a440ffb2cdd044abd6ed76,,,,,,,,,,,,,,,,,,,,,,,,,,,,,,,,,,,,,,,,,,,,,,,,,,,,,,,,,,,,,,,,,,,,,,,,,,,,,,,,,,,,,,,,,,,,,,,,,,,,,
,,,,,,3,0,3,0,1,X V Q F H G B L J M P D K C T S W R N Z,5ebc2fee1a174604b326e8ea,39,Kobieta,2022-06-11_08h15.26.783,task,2021.1.4,Win32,40.0160064,6299f149e92ead563fba08ef,62a440ffb2cdd044abd6ed76,,,,,,,,,,,,,,,,,,,,,,,,,,,,,,,,,,,,,,,,,,,,,,,,,,,,,,,,,,,,,,,,,,,,,,,,,,,,,,,,,,,,,,,,,,,,,,,,,,,,,
,,,,,,4,0,4,0,1,X V Q F H G B L J M P D K C T S W R N Z,5ebc2fee1a174604b326e8ea,39,Kobieta,2022-06-11_08h15.26.783,task,2021.1.4,Win32,40.0160064,6299f149e92ead563fba08ef,62a440ffb2cdd044abd6ed76,,,,,,,,,,,,,,,,,,,,,,,,,,,,,,,,,,,,,,,,,,,,,,,,,,,,,,,,,,,,,,,,,,,,,,,,,,,,,,,,,,,,,,,,,,,,,,,,,,,,,
,,,,,,5,0,5,0,1,X V Q F H G B L J M P D K C T S W R N Z,5ebc2fee1a174604b326e8ea,39,Kobieta,2022-06-11_08h15.26.783,task,2021.1.4,Win32,40.0160064,6299f149e92ead563fba08ef,62a440ffb2cdd044abd6ed76,,,,,,,,,,,,,,,,,,,,,,,,,,,,,,,,,,,,,,,,,,,,,,,,,,,,,,,,,,,,,,,,,,,,,,,,,,,,,,,,,,,,,,,,,,,,,,,,,,,,,
,,,,,,,,,,,,5ebc2fee1a174604b326e8ea,39,Kobieta,2022-06-11_08h15.26.783,task,2021.1.4,Win32,40.0160064,6299f149e92ead563fba08ef,62a440ffb2cdd044abd6ed76,jqksmz,"[""j"",""q"",""k"",""s"",""m"",""z""]","[1.0990000000000038,1.6212000000000728,1.901200000000074,2.240700000000075,2.479800000000054,3.050200000000075,3.588000000000008]",1,JQKSMZ,9,0,9,0,1,,,,,,,,,,,,,,,,,,,,,,,,,,,,,,,,,,,,,,,,,,,,,,,,,,,,,,,,,,,,,,,,,,,,,,,,,,,,,,,,,,,,,,,,,,,
,,,,,,0,0,0,0,1,X V Q F H G B L J M P D K C T S W R N Z,5ebc2fee1a174604b326e8ea,39,Kobieta,2022-06-11_08h15.26.783,task,2021.1.4,Win32,40.0160064,6299f149e92ead563fba08ef,62a440ffb2cdd044abd6ed76,,,,,,,,,,,,,,,,,,,,,,,,,,,,,,,,,,,,,,,,,,,,,,,,,,,,,,,,,,,,,,,,,,,,,,,,,,,,,,,,,,,,,,,,,,,,,,,,,,,,,
,,,,,,1,0,1,0,1,X V Q F H G B L J M P D K C T S W R N Z,5ebc2fee1a174604b326e8ea,39,Kobieta,2022-06-11_08h15.26.783,task,2021.1.4,Win32,40.0160064,6299f149e92ead563fba08ef,62a440ffb2cdd044abd6ed76,,,,,,,,,,,,,,,,,,,,,,,,,,,,,,,,,,,,,,,,,,,,,,,,,,,,,,,,,,,,,,,,,,,,,,,,,,,,,,,,,,,,,,,,,,,,,,,,,,,,,
,,,,,,2,0,2,0,1,X V Q F H G B L J M P D K C T S W R N Z,5ebc2fee1a174604b326e8ea,39,Kobieta,2022-06-11_08h15.26.783,task,2021.1.4,Win32,40.0160064,6299f149e92ead563fba08ef,62a440ffb2cdd044abd6ed76,,,,,,,,,,,,,,,,,,,,,,,,,,,,,,,,,,,,,,,,,,,,,,,,,,,,,,,,,,,,,,,,,,,,,,,,,,,,,,,,,,,,,,,,,,,,,,,,,,,,,
,,,,,,3,0,3,0,1,X V Q F H G B L J M P D K C T S W R N Z,5ebc2fee1a174604b326e8ea,39,Kobieta,2022-06-11_08h15.26.783,task,2021.1.4,Win32,40.0160064,6299f149e92ead563fba08ef,62a440ffb2cdd044abd6ed76,,,,,,,,,,,,,,,,,,,,,,,,,,,,,,,,,,,,,,,,,,,,,,,,,,,,,,,,,,,,,,,,,,,,,,,,,,,,,,,,,,,,,,,,,,,,,,,,,,,,,
,,,,,,4,0,4,0,1,X V Q F H G B L J M P D K C T S W R N Z,5ebc2fee1a174604b326e8ea,39,Kobieta,2022-06-11_08h15.26.783,task,2021.1.4,Win32,40.0160064,6299f149e92ead563fba08ef,62a440ffb2cdd044abd6ed76,,,,,,,,,,,,,,,,,,,,,,,,,,,,,,,,,,,,,,,,,,,,,,,,,,,,,,,,,,,,,,,,,,,,,,,,,,,,,,,,,,,,,,,,,,,,,,,,,,,,,
,,,,,,5,0,5,0,1,X V Q F H G B L J M P D K C T S W R N Z,5ebc2fee1a174604b326e8ea,39,Kobieta,2022-06-11_08h15.26.783,task,2021.1.4,Win32,40.0160064,6299f149e92ead563fba08ef,62a440ffb2cdd044abd6ed76,,,,,,,,,,,,,,,,,,,,,,,,,,,,,,,,,,,,,,,,,,,,,,,,,,,,,,,,,,,,,,,,,,,,,,,,,,,,,,,,,,,,,,,,,,,,,,,,,,,,,
,,,,,,,,,,,,5ebc2fee1a174604b326e8ea,39,Kobieta,2022-06-11_08h15.26.783,task,2021.1.4,Win32,40.0160064,6299f149e92ead563fba08ef,62a440ffb2cdd044abd6ed76,mgmcch,"[""m"",""g"",""m"",""c"",""c"",""h""]","[0.7857000000000767,1.9956000000001097,2.251300000000043,2.6599999999999966,2.8468000000000586,3.6961000000000865,4.101200000000091]",1,MGMCCH,10,0,10,0,1,,,,,,,,,,,,,,,,,,,,,,,,,,,,,,,,,,,,,,,,,,,,,,,,,,,,,,,,,,,,,,,,,,,,,,,,,,,,,,,,,,,,,,,,,,,
,,,,,,0,0,0,0,1,X V Q F H G B L J M P D K C T S W R N Z,5ebc2fee1a174604b326e8ea,39,Kobieta,2022-06-11_08h15.26.783,task,2021.1.4,Win32,40.0160064,6299f149e92ead563fba08ef,62a440ffb2cdd044abd6ed76,,,,,,,,,,,,,,,,,,,,,,,,,,,,,,,,,,,,,,,,,,,,,,,,,,,,,,,,,,,,,,,,,,,,,,,,,,,,,,,,,,,,,,,,,,,,,,,,,,,,,
,,,,,,1,0,1,0,1,X V Q F H G B L J M P D K C T S W R N Z,5ebc2fee1a174604b326e8ea,39,Kobieta,2022-06-11_08h15.26.783,task,2021.1.4,Win32,40.0160064,6299f149e92ead563fba08ef,62a440ffb2cdd044abd6ed76,,,,,,,,,,,,,,,,,,,,,,,,,,,,,,,,,,,,,,,,,,,,,,,,,,,,,,,,,,,,,,,,,,,,,,,,,,,,,,,,,,,,,,,,,,,,,,,,,,,,,
,,,,,,2,0,2,0,1,X V Q F H G B L J M P D K C T S W R N Z,5ebc2fee1a174604b326e8ea,39,Kobieta,2022-06-11_08h15.26.783,task,2021.1.4,Win32,40.0160064,6299f149e92ead563fba08ef,62a440ffb2cdd044abd6ed76,,,,,,,,,,,,,,,,,,,,,,,,,,,,,,,,,,,,,,,,,,,,,,,,,,,,,,,,,,,,,,,,,,,,,,,,,,,,,,,,,,,,,,,,,,,,,,,,,,,,,
,,,,,,3,0,3,0,1,X V Q F H G B L J M P D K C T S W R N Z,5ebc2fee1a174604b326e8ea,39,Kobieta,2022-06-11_08h15.26.783,task,2021.1.4,Win32,40.0160064,6299f149e92ead563fba08ef,62a440ffb2cdd044abd6ed76,,,,,,,,,,,,,,,,,,,,,,,,,,,,,,,,,,,,,,,,,,,,,,,,,,,,,,,,,,,,,,,,,,,,,,,,,,,,,,,,,,,,,,,,,,,,,,,,,,,,,
,,,,,,4,0,4,0,1,X V Q F H G B L J M P D K C T S W R N Z,5ebc2fee1a174604b326e8ea,39,Kobieta,2022-06-11_08h15.26.783,task,2021.1.4,Win32,40.0160064,6299f149e92ead563fba08ef,62a440ffb2cdd044abd6ed76,,,,,,,,,,,,,,,,,,,,,,,,,,,,,,,,,,,,,,,,,,,,,,,,,,,,,,,,,,,,,,,,,,,,,,,,,,,,,,,,,,,,,,,,,,,,,,,,,,,,,
,,,,,,5,0,5,0,1,X V Q F H G B L J M P D K C T S W R N Z,5ebc2fee1a174604b326e8ea,39,Kobieta,2022-06-11_08h15.26.783,task,2021.1.4,Win32,40.0160064,6299f149e92ead563fba08ef,62a440ffb2cdd044abd6ed76,,,,,,,,,,,,,,,,,,,,,,,,,,,,,,,,,,,,,,,,,,,,,,,,,,,,,,,,,,,,,,,,,,,,,,,,,,,,,,,,,,,,,,,,,,,,,,,,,,,,,
,,,,,,6,0,6,0,1,X V Q F H G B L J M P D K C T S W R N Z,5ebc2fee1a174604b326e8ea,39,Kobieta,2022-06-11_08h15.26.783,task,2021.1.4,Win32,40.0160064,6299f149e92ead563fba08ef,62a440ffb2cdd044abd6ed76,,,,,,,,,,,,,,,,,,,,,,,,,,,,,,,,,,,,,,,,,,,,,,,,,,,,,,,,,,,,,,,,,,,,,,,,,,,,,,,,,,,,,,,,,,,,,,,,,,,,,
,,,,,,,,,,,,5ebc2fee1a174604b326e8ea,39,Kobieta,2022-06-11_08h15.26.783,task,2021.1.4,Win32,40.0160064,6299f149e92ead563fba08ef,62a440ffb2cdd044abd6ed76,zdfmdz,"[""z"",""d"",""f"",""m"",""d"",""z""]","[1.6298000000000457,2.7981999999999516,3.0548000000000286,3.4044999999999845,4.390300000000053,6.42859999999996,6.701800000000048]",0,ZDFDNJF,11,0,11,0,1,,,,,,,,,,,,,,,,,,,,,,,,,,,,,,,,,,,,,,,,,,,,,,,,,,,,,,,,,,,,,,,,,,,,,,,,,,,,,,,,,,,,,,,,,,,
,,,,,,0,0,0,0,1,X V Q F H G B L J M P D K C T S W R N Z,5ebc2fee1a174604b326e8ea,39,Kobieta,2022-06-11_08h15.26.783,task,2021.1.4,Win32,40.0160064,6299f149e92ead563fba08ef,62a440ffb2cdd044abd6ed76,,,,,,,,,,,,,,,,,,,,,,,,,,,,,,,,,,,,,,,,,,,,,,,,,,,,,,,,,,,,,,,,,,,,,,,,,,,,,,,,,,,,,,,,,,,,,,,,,,,,,
,,,,,,1,0,1,0,1,X V Q F H G B L J M P D K C T S W R N Z,5ebc2fee1a174604b326e8ea,39,Kobieta,2022-06-11_08h15.26.783,task,2021.1.4,Win32,40.0160064,6299f149e92ead563fba08ef,62a440ffb2cdd044abd6ed76,,,,,,,,,,,,,,,,,,,,,,,,,,,,,,,,,,,,,,,,,,,,,,,,,,,,,,,,,,,,,,,,,,,,,,,,,,,,,,,,,,,,,,,,,,,,,,,,,,,,,
,,,,,,2,0,2,0,1,X V Q F H G B L J M P D K C T S W R N Z,5ebc2fee1a174604b326e8ea,39,Kobieta,2022-06-11_08h15.26.783,task,2021.1.4,Win32,40.0160064,6299f149e92ead563fba08ef,62a440ffb2cdd044abd6ed76,,,,,,,,,,,,,,,,,,,,,,,,,,,,,,,,,,,,,,,,,,,,,,,,,,,,,,,,,,,,,,,,,,,,,,,,,,,,,,,,,,,,,,,,,,,,,,,,,,,,,
,,,,,,3,0,3,0,1,X V Q F H G B L J M P D K C T S W R N Z,5ebc2fee1a174604b326e8ea,39,Kobieta,2022-06-11_08h15.26.783,task,2021.1.4,Win32,40.0160064,6299f149e92ead563fba08ef,62a440ffb2cdd044abd6ed76,,,,,,,,,,,,,,,,,,,,,,,,,,,,,,,,,,,,,,,,,,,,,,,,,,,,,,,,,,,,,,,,,,,,,,,,,,,,,,,,,,,,,,,,,,,,,,,,,,,,,
,,,,,,4,0,4,0,1,X V Q F H G B L J M P D K C T S W R N Z,5ebc2fee1a174604b326e8ea,39,Kobieta,2022-06-11_08h15.26.783,task,2021.1.4,Win32,40.0160064,6299f149e92ead563fba08ef,62a440ffb2cdd044abd6ed76,,,,,,,,,,,,,,,,,,,,,,,,,,,,,,,,,,,,,,,,,,,,,,,,,,,,,,,,,,,,,,,,,,,,,,,,,,,,,,,,,,,,,,,,,,,,,,,,,,,,,
,,,,,,5,0,5,0,1,X V Q F H G B L J M P D K C T S W R N Z,5ebc2fee1a174604b326e8ea,39,Kobieta,2022-06-11_08h15.26.783,task,2021.1.4,Win32,40.0160064,6299f149e92ead563fba08ef,62a440ffb2cdd044abd6ed76,,,,,,,,,,,,,,,,,,,,,,,,,,,,,,,,,,,,,,,,,,,,,,,,,,,,,,,,,,,,,,,,,,,,,,,,,,,,,,,,,,,,,,,,,,,,,,,,,,,,,
,,,,,,6,0,6,0,1,X V Q F H G B L J M P D K C T S W R N Z,5ebc2fee1a174604b326e8ea,39,Kobieta,2022-06-11_08h15.26.783,task,2021.1.4,Win32,40.0160064,6299f149e92ead563fba08ef,62a440ffb2cdd044abd6ed76,,,,,,,,,,,,,,,,,,,,,,,,,,,,,,,,,,,,,,,,,,,,,,,,,,,,,,,,,,,,,,,,,,,,,,,,,,,,,,,,,,,,,,,,,,,,,,,,,,,,,
,,,,,,,,,,,,5ebc2fee1a174604b326e8ea,39,Kobieta,2022-06-11_08h15.26.783,task,2021.1.4,Win32,40.0160064,6299f149e92ead563fba08ef,62a440ffb2cdd044abd6ed76,dspjgp,"[""d"",""s"",""p"",""j"",""g"",""p""]","[1.4477000000000828,1.80540000000002,2.1265000000000214,2.939900000000023,3.3713000000000477,3.7789999999999964,4.192400000000163]",0,DSDPJGP,12,0,12,0,1,,,,,,,,,,,,,,,,,,,,,,,,,,,,,,,,,,,,,,,,,,,,,,,,,,,,,,,,,,,,,,,,,,,,,,,,,,,,,,,,,,,,,,,,,,,
,,,,,,0,0,0,0,1,X V Q F H G B L J M P D K C T S W R N Z,5ebc2fee1a174604b326e8ea,39,Kobieta,2022-06-11_08h15.26.783,task,2021.1.4,Win32,40.0160064,6299f149e92ead563fba08ef,62a440ffb2cdd044abd6ed76,,,,,,,,,,,,,,,,,,,,,,,,,,,,,,,,,,,,,,,,,,,,,,,,,,,,,,,,,,,,,,,,,,,,,,,,,,,,,,,,,,,,,,,,,,,,,,,,,,,,,
,,,,,,1,0,1,0,1,X V Q F H G B L J M P D K C T S W R N Z,5ebc2fee1a174604b326e8ea,39,Kobieta,2022-06-11_08h15.26.783,task,2021.1.4,Win32,40.0160064,6299f149e92ead563fba08ef,62a440ffb2cdd044abd6ed76,,,,,,,,,,,,,,,,,,,,,,,,,,,,,,,,,,,,,,,,,,,,,,,,,,,,,,,,,,,,,,,,,,,,,,,,,,,,,,,,,,,,,,,,,,,,,,,,,,,,,
,,,,,,2,0,2,0,1,X V Q F H G B L J M P D K C T S W R N Z,5ebc2fee1a174604b326e8ea,39,Kobieta,2022-06-11_08h15.26.783,task,2021.1.4,Win32,40.0160064,6299f149e92ead563fba08ef,62a440ffb2cdd044abd6ed76,,,,,,,,,,,,,,,,,,,,,,,,,,,,,,,,,,,,,,,,,,,,,,,,,,,,,,,,,,,,,,,,,,,,,,,,,,,,,,,,,,,,,,,,,,,,,,,,,,,,,
,,,,,,3,0,3,0,1,X V Q F H G B L J M P D K C T S W R N Z,5ebc2fee1a174604b326e8ea,39,Kobieta,2022-06-11_08h15.26.783,task,2021.1.4,Win32,40.0160064,6299f149e92ead563fba08ef,62a440ffb2cdd044abd6ed76,,,,,,,,,,,,,,,,,,,,,,,,,,,,,,,,,,,,,,,,,,,,,,,,,,,,,,,,,,,,,,,,,,,,,,,,,,,,,,,,,,,,,,,,,,,,,,,,,,,,,
,,,,,,4,0,4,0,1,X V Q F H G B L J M P D K C T S W R N Z,5ebc2fee1a174604b326e8ea,39,Kobieta,2022-06-11_08h15.26.783,task,2021.1.4,Win32,40.0160064,6299f149e92ead563fba08ef,62a440ffb2cdd044abd6ed76,,,,,,,,,,,,,,,,,,,,,,,,,,,,,,,,,,,,,,,,,,,,,,,,,,,,,,,,,,,,,,,,,,,,,,,,,,,,,,,,,,,,,,,,,,,,,,,,,,,,,
,,,,,,5,0,5,0,1,X V Q F H G B L J M P D K C T S W R N Z,5ebc2fee1a174604b326e8ea,39,Kobieta,2022-06-11_08h15.26.783,task,2021.1.4,Win32,40.0160064,6299f149e92ead563fba08ef,62a440ffb2cdd044abd6ed76,,,,,,,,,,,,,,,,,,,,,,,,,,,,,,,,,,,,,,,,,,,,,,,,,,,,,,,,,,,,,,,,,,,,,,,,,,,,,,,,,,,,,,,,,,,,,,,,,,,,,
,,,,,,6,0,6,0,1,X V Q F H G B L J M P D K C T S W R N Z,5ebc2fee1a174604b326e8ea,39,Kobieta,2022-06-11_08h15.26.783,task,2021.1.4,Win32,40.0160064,6299f149e92ead563fba08ef,62a440ffb2cdd044abd6ed76,,,,,,,,,,,,,,,,,,,,,,,,,,,,,,,,,,,,,,,,,,,,,,,,,,,,,,,,,,,,,,,,,,,,,,,,,,,,,,,,,,,,,,,,,,,,,,,,,,,,,
,,,,,,,,,,,,5ebc2fee1a174604b326e8ea,39,Kobieta,2022-06-11_08h15.26.783,task,2021.1.4,Win32,40.0160064,6299f149e92ead563fba08ef,62a440ffb2cdd044abd6ed76,pfnt,"[""p"",""f"",""n"",""t""]","[1.7711999999999364,2.251300000000043,2.7996999999999446,3.0718000000000245,3.2941000000000713]",0,FHTPFNT,13,0,13,0,1,,,,,,,,,,,,,,,,,,,,,,,,,,,,,,,,,,,,,,,,,,,,,,,,,,,,,,,,,,,,,,,,,,,,,,,,,,,,,,,,,,,,,,,,,,,
,,,,,,,,,,,,5ebc2fee1a174604b326e8ea,39,Kobieta,2022-06-11_08h15.26.783,task,2021.1.4,Win32,40.0160064,6299f149e92ead563fba08ef,62a440ffb2cdd044abd6ed76,,,,,,,,,,,space,6.5961,4,"[""4""]",1,[15.341499999999996],[15.341499999999996],0,0,0,4,1,Practice,5,(2x6) - 8,4,,,,,,,,,,,,,,,,,,,,,,,,,,,,,,,,,,,,,,,,,,,,,,,,,,,,,,,,,,,,,,,,,,,,,,,,,,,
,,,,,,,,,,,,5ebc2fee1a174604b326e8ea,39,Kobieta,2022-06-11_08h15.26.783,task,2021.1.4,Win32,40.0160064,6299f149e92ead563fba08ef,62a440ffb2cdd044abd6ed76,,,,,,,,,,,,,3,"[""3""]",1,[4.145900000000125],"[15.341499999999996,4.145900000000125]",0,1,1,3,1,Practice,4,(8/4) + 1,3,,,,,,,,,,,,,,,,,,,,,,,,,,,,,,,,,,,,,,,,,,,,,,,,,,,,,,,,,,,,,,,,,,,,,,,,,,,
,,,,,,,,,,,,5ebc2fee1a174604b326e8ea,39,Kobieta,2022-06-11_08h15.26.783,task,2021.1.4,Win32,40.0160064,6299f149e92ead563fba08ef,62a440ffb2cdd044abd6ed76,,,,,,,,,,,,,0,"[""0""]",1,[2.918100000000095],"[15.341499999999996,4.145900000000125,2.918100000000095]",0,2,2,0,1,Practice,1,(3x3) -  9,0,,,,,,,,,,,,,,,,,,,,,,,,,,,,,,,,,,,,,,,,,,,,,,,,,,,,,,,,,,,,,,,,,,,,,,,,,,,
,,,,,,,,,,,,5ebc2fee1a174604b326e8ea,39,Kobieta,2022-06-11_08h15.26.783,task,2021.1.4,Win32,40.0160064,6299f149e92ead563fba08ef,62a440ffb2cdd044abd6ed76,,,,,,,,,,,,,7,"[""7""]",1,[4.476899999999887],"[15.341499999999996,4.145900000000125,2.918100000000095,4.476899999999887]",0,3,3,7,1,Practice,8,(5x5) - 18,7,,,,,,,,,,,,,,,,,,,,,,,,,,,,,,,,,,,,,,,,,,,,,,,,,,,,,,,,,,,,,,,,,,,,,,,,,,,
,,,,,,,,,,,,5ebc2fee1a174604b326e8ea,39,Kobieta,2022-06-11_08h15.26.783,task,2021.1.4,Win32,40.0160064,6299f149e92ead563fba08ef,62a440ffb2cdd044abd6ed76,,,,,,,,,,,,,2,"[""2""]",1,[2.5209000000001254],"[15.341499999999996,4.145900000000125,2.918100000000095,4.476899999999887,2.5209000000001254]",0,4,4,2,1,Practice,3,(4x4) - 14,2,,,,,,,,,,,,,,,,,,,,,,,,,,,,,,,,,,,,,,,,,,,,,,,,,,,,,,,,,,,,,,,,,,,,,,,,,,,
,,,,,,,,,,,,5ebc2fee1a174604b326e8ea,39,Kobieta,2022-06-11_08h15.26.783,task,2021.1.4,Win32,40.0160064,6299f149e92ead563fba08ef,62a440ffb2cdd044abd6ed76,,,,,,,,,,,,,9,"[""9""]",1,[2.129099999999852],"[15.341499999999996,4.145900000000125,2.918100000000095,4.476899999999887,2.5209000000001254,2.129099999999852]",0,5,5,9,1,Practice,10,(20/2) - 1,9,,,,,,,,,,,,,,,,,,,,,,,,,,,,,,,,,,,,,,,,,,,,,,,,,,,,,,,,,,,,,,,,,,,,,,,,,,,
,,,,,,,,,,,,5ebc2fee1a174604b326e8ea,39,Kobieta,2022-06-11_08h15.26.783,task,2021.1.4,Win32,40.0160064,6299f149e92ead563fba08ef,62a440ffb2cdd044abd6ed76,,,,,,,,,,,,,5,"[""5""]",1,[4.121199999999959],"[15.341499999999996,4.145900000000125,2.918100000000095,4.476899999999887,2.5209000000001254,2.129099999999852,4.121199999999959]",0,6,6,5,1,Practice,6,(4/2) + 3,5,,,,,,,,,,,,,,,,,,,,,,,,,,,,,,,,,,,,,,,,,,,,,,,,,,,,,,,,,,,,,,,,,,,,,,,,,,,
,,,,,,,,,,,,5ebc2fee1a174604b326e8ea,39,Kobieta,2022-06-11_08h15.26.783,task,2021.1.4,Win32,40.0160064,6299f149e92ead563fba08ef,62a440ffb2cdd044abd6ed76,,,,,,,,,,,,,1,"[""1""]",1,[2.0715999999998758],"[15.341499999999996,4.145900000000125,2.918100000000095,4.476899999999887,2.5209000000001254,2.129099999999852,4.121199999999959,2.0715999999998758]",0,7,7,1,1,Practice,2,(4x4) - 15,1,,,,,,,,,,,,,,,,,,,,,,,,,,,,,,,,,,,,,,,,,,,,,,,,,,,,,,,,,,,,,,,,,,,,,,,,,,,
,,,,,,,,,,,,5ebc2fee1a174604b326e8ea,39,Kobieta,2022-06-11_08h15.26.783,task,2021.1.4,Win32,40.0160064,6299f149e92ead563fba08ef,62a440ffb2cdd044abd6ed76,,,,,,,,,,,,,6,"[""6""]",1,[2.4095999999998696],"[15.341499999999996,4.145900000000125,2.918100000000095,4.476899999999887,2.5209000000001254,2.129099999999852,4.121199999999959,2.0715999999998758,2.4095999999998696]",0,8,8,6,1,Practice,7,(25/5) + 1,6,,,,,,,,,,,,,,,,,,,,,,,,,,,,,,,,,,,,,,,,,,,,,,,,,,,,,,,,,,,,,,,,,,,,,,,,,,,
,,,,,,,,,,,,5ebc2fee1a174604b326e8ea,39,Kobieta,2022-06-11_08h15.26.783,task,2021.1.4,Win32,40.0160064,6299f149e92ead563fba08ef,62a440ffb2cdd044abd6ed76,,,,,,,,,,,,,8,"[""8""]",1,[1.7512999999998158],"[15.341499999999996,4.145900000000125,2.918100000000095,4.476899999999887,2.5209000000001254,2.129099999999852,4.121199999999959,2.0715999999998758,2.4095999999998696,1.7512999999998158]",0,9,9,8,1,Practice,9,(3x3) - 1,8,,,,,,,,,,,,,,,,,,,,,,,,,,,,,,,,,,,,,,,,,,,,,,,,,,,,,,,,,,,,,,,,,,,,,,,,,,,
,,,,,,,,,,,,5ebc2fee1a174604b326e8ea,39,Kobieta,2022-06-11_08h15.26.783,task,2021.1.4,Win32,40.0160064,6299f149e92ead563fba08ef,62a440ffb2cdd044abd6ed76,,,,,,,,,,,,,,,,,,,,,,,,,,,1,41.8861,2.792406667,166.1943939,3.328607255,11.38021339,space,1.6283,0,0,0,0,1,,,,,,,,,,,,,,,,,,,,,,,,,,,,,,,,,,,,,,,,,,,,,,,,,,,,,,,,,,,,,,
,,,,,,,,,,,,5ebc2fee1a174604b326e8ea,39,Kobieta,2022-06-11_08h15.26.783,task,2021.1.4,Win32,40.0160064,6299f149e92ead563fba08ef,62a440ffb2cdd044abd6ed76,,,,,,,,,,,,,9,,,,,,,,,,Practice,10,(20/2) - 1,9,,,,,,,,,,,,,,space,10.6055,"[""9""]",1,[4.199000000000012],1,0,0,0,9,1,,,,,,,,,,,,,,,,,,,,,,,,,,,,,,,,,,,,,,,,,,,,,,,,,,,
,,,,,,,,,,,X V Q F H G B L J M P D K C T S W R N Z,5ebc2fee1a174604b326e8ea,39,Kobieta,2022-06-11_08h15.26.783,task,2021.1.4,Win32,40.0160064,6299f149e92ead563fba08ef,62a440ffb2cdd044abd6ed76,,,,,,,,,,,,,,,,,,,,,,,,,,,,,,,,,,,,,,,,,,,,,,,,,,,0,0,0,0,1,,,,,,,,,,,,,,,,,,,,,,,,,,,,,,,,,,,,,,,,,,,,,,
,,,,,,,,,,,,5ebc2fee1a174604b326e8ea,39,Kobieta,2022-06-11_08h15.26.783,task,2021.1.4,Win32,40.0160064,6299f149e92ead563fba08ef,62a440ffb2cdd044abd6ed76,,,,,,,,,,,,,6,,,,,,,,,,Practice,7,(25/5) + 1,6,,,,,,,,,,,,,,,,"[""6""]",1,[6.656699999999944],1,0,0,0,6,1,,,,,,,,,,,,,,,,,,,,,,,,,,,,,,,,,,,,,,,,,,,,,,,,,,,
,,,,,,,,,,,X V Q F H G B L J M P D K C T S W R N Z,5ebc2fee1a174604b326e8ea,39,Kobieta,2022-06-11_08h15.26.783,task,2021.1.4,Win32,40.0160064,6299f149e92ead563fba08ef,62a440ffb2cdd044abd6ed76,,,,,,,,,,,,,,,,,,,,,,,,,,,,,,,,,,,,,,,,,,,,,,,,,,,1,0,1,0,1,,,,,,,,,,,,,,,,,,,,,,,,,,,,,,,,,,,,,,,,,,,,,,
,,,,,,,,,,,,5ebc2fee1a174604b326e8ea,39,Kobieta,2022-06-11_08h15.26.783,task,2021.1.4,Win32,40.0160064,6299f149e92ead563fba08ef,62a440ffb2cdd044abd6ed76,,,,,,,,,,,,,,,,,,,,,,,,,,,,,,,,,,,,,,,,,,,,,,,,,,,,,,,,zz,"[""z"",""z""]",0,"[2.7267000000001644,2.8687000000001603,3.860700000000179]",1,0,0,0,0,1,,,,,,,,,,,,,,,,,,,,,,,,,,,,,,,,,,,,
,,,,,,,,,,,,5ebc2fee1a174604b326e8ea,39,Kobieta,2022-06-11_08h15.26.783,task,2021.1.4,Win32,40.0160064,6299f149e92ead563fba08ef,62a440ffb2cdd044abd6ed76,,,,,,,,,,,,,3,,,,,,,,,,Practice,4,(8/4) + 1,3,,,,,,,,,,,,,,,,"[""3""]",1,[4.72219999999993],1,0,0,0,3,1,,,,,,,,,,,,,,,,,,,,,,,,,,,,,,,,,,,,,,,,,,,,,,,,,,,
,,,,,,,,,,,X V Q F H G B L J M P D K C T S W R N Z,5ebc2fee1a174604b326e8ea,39,Kobieta,2022-06-11_08h15.26.783,task,2021.1.4,Win32,40.0160064,6299f149e92ead563fba08ef,62a440ffb2cdd044abd6ed76,,,,,,,,,,,,,,,,,,,,,,,,,,,,,,,,,,,,,,,,,,,,,,,,,,,0,0,0,0,1,,,,,,,,,,,,,,,,,,,,,,,,,,,,,,,,,,,,,,,,,,,,,,
,,,,,,,,,,,,5ebc2fee1a174604b326e8ea,39,Kobieta,2022-06-11_08h15.26.783,task,2021.1.4,Win32,40.0160064,6299f149e92ead563fba08ef,62a440ffb2cdd044abd6ed76,,,,,,,,,,,,,4,,,,,,,,,,Practice,5,(2x6) - 8,4,,,,,,,,,,,,,,,,"[""4""]",1,[4.671999999999969],1,0,0,0,4,1,,,,,,,,,,,,,,,,,,,,,,,,,,,,,,,,,,,,,,,,,,,,,,,,,,,
,,,,,,,,,,,X V Q F H G B L J M P D K C T S W R N Z,5ebc2fee1a174604b326e8ea,39,Kobieta,2022-06-11_08h15.26.783,task,2021.1.4,Win32,40.0160064,6299f149e92ead563fba08ef,62a440ffb2cdd044abd6ed76,,,,,,,,,,,,,,,,,,,,,,,,,,,,,,,,,,,,,,,,,,,,,,,,,,,1,0,1,0,1,,,,,,,,,,,,,,,,,,,,,,,,,,,,,,,,,,,,,,,,,,,,,,
,,,,,,,,,,,,5ebc2fee1a174604b326e8ea,39,Kobieta,2022-06-11_08h15.26.783,task,2021.1.4,Win32,40.0160064,6299f149e92ead563fba08ef,62a440ffb2cdd044abd6ed76,,,,,,,,,,,,,,,,,,,,,,,,,,,,,,,,,,,,,,,,,,,,,,,,,,,,,,,,pb,"[""p"",""b""]",0,"[1.9360999999998967,3.428699999999992,4.277699999999982]",1,1,0,1,0,1,,,,,,,,,,,,,,,,,,,,,,,,,,,,,,,,,,,,
,,,,,,,,,,,,5ebc2fee1a174604b326e8ea,39,Kobieta,2022-06-11_08h15.26.783,task,2021.1.4,Win32,40.0160064,6299f149e92ead563fba08ef,62a440ffb2cdd044abd6ed76,,,,,,,,,,,,,8,,,,,,,,,,Practice,9,(3x3) - 1,8,,,,,,,,,,,,,,,,"[""8""]",1,[2.3863999999999237],1,0,0,0,8,1,,,,,,,,,,,,,,,,,,,,,,,,,,,,,,,,,,,,,,,,,,,,,,,,,,,
,,,,,,,,,,,X V Q F H G B L J M P D K C T S W R N Z,5ebc2fee1a174604b326e8ea,39,Kobieta,2022-06-11_08h15.26.783,task,2021.1.4,Win32,40.0160064,6299f149e92ead563fba08ef,62a440ffb2cdd044abd6ed76,,,,,,,,,,,,,,,,,,,,,,,,,,,,,,,,,,,,,,,,,,,,,,,,,,,0,0,0,0,1,,,,,,,,,,,,,,,,,,,,,,,,,,,,,,,,,,,,,,,,,,,,,,
,,,,,,,,,,,,5ebc2fee1a174604b326e8ea,39,Kobieta,2022-06-11_08h15.26.783,task,2021.1.4,Win32,40.0160064,6299f149e92ead563fba08ef,62a440ffb2cdd044abd6ed76,,,,,,,,,,,,,3,,,,,,,,,,Practice,4,(8/4) + 1,3,,,,,,,,,,,,,,,,"[""3""]",1,[2.0968999999999482],1,0,0,0,3,1,,,,,,,,,,,,,,,,,,,,,,,,,,,,,,,,,,,,,,,,,,,,,,,,,,,
,,,,,,,,,,,X V Q F H G B L J M P D K C T S W R N Z,5ebc2fee1a174604b326e8ea,39,Kobieta,2022-06-11_08h15.26.783,task,2021.1.4,Win32,40.0160064,6299f149e92ead563fba08ef,62a440ffb2cdd044abd6ed76,,,,,,,,,,,,,,,,,,,,,,,,,,,,,,,,,,,,,,,,,,,,,,,,,,,1,0,1,0,1,,,,,,,,,,,,,,,,,,,,,,,,,,,,,,,,,,,,,,,,,,,,,,
,,,,,,,,,,,,5ebc2fee1a174604b326e8ea,39,Kobieta,2022-06-11_08h15.26.783,task,2021.1.4,Win32,40.0160064,6299f149e92ead563fba08ef,62a440ffb2cdd044abd6ed76,,,,,,,,,,,,,,,,,,,,,,,,,,,,,,,,,,,,,,,,,,,,,,,,,,,,,,,,rb,"[""r"",""b""]",0,"[1.9486000000001127,4.186600000000112,5.121100000000126]",1,2,0,2,0,1,,,,,,,,,,,,,,,,,,,,,,,,,,,,,,,,,,,,
,,,,,,,,,,,,5ebc2fee1a174604b326e8ea,39,Kobieta,2022-06-11_08h15.26.783,task,2021.1.4,Win32,40.0160064,6299f149e92ead563fba08ef,62a440ffb2cdd044abd6ed76,,,,,,,,,,,,,5,,,,,,,,,,Task,22,(3x1) + 2,5,,,,,,,,,,,,,,,,,,,1,,,,,,,,,,,,,,,,,,,,,space,8.0431,"[""5""]",1,[3.0159999999999627],0,0,0,21,1,,,,,,,,,,,,,,,,,,,,,,,,,,
,,,,,,,,,,,X V Q F H G B L J M P D K C T S W R N Z,5ebc2fee1a174604b326e8ea,39,Kobieta,2022-06-11_08h15.26.783,task,2021.1.4,Win32,40.0160064,6299f149e92ead563fba08ef,62a440ffb2cdd044abd6ed76,,,,,,,,,,,,,,,,,,,,,,,,,,,,,,,,,,,,,,,,,,,,,,,,,,,,,,,,,,,,,,,,,,,,,,,,,,,,0,0,0,0,1,,,,,,,,,,,,,,,,,,,,,
,,,,,,,,,,,,5ebc2fee1a174604b326e8ea,39,Kobieta,2022-06-11_08h15.26.783,task,2021.1.4,Win32,40.0160064,6299f149e92ead563fba08ef,62a440ffb2cdd044abd6ed76,,,,,,,,,,,,,9,,,,,,,,,,Task,16,(3x8) - 15,9,,,,,,,,,,,,,,,,,,,1,,,,,,,,,,,,,,,,,,,,,,,"[""9""]",1,[5.702599999999848],0,0,0,15,1,,,,,,,,,,,,,,,,,,,,,,,,,,
,,,,,,,,,,,X V Q F H G B L J M P D K C T S W R N Z,5ebc2fee1a174604b326e8ea,39,Kobieta,2022-06-11_08h15.26.783,task,2021.1.4,Win32,40.0160064,6299f149e92ead563fba08ef,62a440ffb2cdd044abd6ed76,,,,,,,,,,,,,,,,,,,,,,,,,,,,,,,,,,,,,,,,,,,,,,,,,,,,,,,,,,,,,,,,,,,,,,,,,,,,1,0,1,0,1,,,,,,,,,,,,,,,,,,,,,
,,,,,,,,,,,,5ebc2fee1a174604b326e8ea,39,Kobieta,2022-06-11_08h15.26.783,task,2021.1.4,Win32,40.0160064,6299f149e92ead563fba08ef,62a440ffb2cdd044abd6ed76,,,,,,,,,,,,,,,,,,,,,,,,,,,,,,,,,,,,,,,,,,,,,,,,,,,,,,,,,,,,,,,,,,,,,,,,,,,,,,,,,zv,"[""z"",""v""]",0,"[1.9661000000000968,2.7853000000000634,3.7210000000000036]",1,ZV,0,0,0,0,1,,,,,,,,,,
,,,,,,,,,,,,5ebc2fee1a174604b326e8ea,39,Kobieta,2022-06-11_08h15.26.783,task,2021.1.4,Win32,40.0160064,6299f149e92ead563fba08ef,62a440ffb2cdd044abd6ed76,,,,,,,,,,,,,2,,,,,,,,,,Task,10,(2x5) - 8,2,,,,,,,,,,,,,,,,,,,1,,,,,,,,,,,,,,,,,,,,,,,"[""2""]",1,[2.0774999999999864],0,0,0,9,1,,,,,,,,,,,,,,,,,,,,,,,,,,
,,,,,,,,,,,X V Q F H G B L J M P D K C T S W R N Z,5ebc2fee1a174604b326e8ea,39,Kobieta,2022-06-11_08h15.26.783,task,2021.1.4,Win32,40.0160064,6299f149e92ead563fba08ef,62a440ffb2cdd044abd6ed76,,,,,,,,,,,,,,,,,,,,,,,,,,,,,,,,,,,,,,,,,,,,,,,,,,,,,,,,,,,,,,,,,,,,,,,,,,,,0,0,0,0,1,,,,,,,,,,,,,,,,,,,,,
,,,,,,,,,,,,5ebc2fee1a174604b326e8ea,39,Kobieta,2022-06-11_08h15.26.783,task,2021.1.4,Win32,40.0160064,6299f149e92ead563fba08ef,62a440ffb2cdd044abd6ed76,,,,,,,,,,,,,2,,,,,,,,,,Task,26,(2x9) - 16,2,,,,,,,,,,,,,,,,,,,1,,,,,,,,,,,,,,,,,,,,,,,"[""2""]",1,[2.5708000000000197],0,0,0,25,1,,,,,,,,,,,,,,,,,,,,,,,,,,
,,,,,,,,,,,X V Q F H G B L J M P D K C T S W R N Z,5ebc2fee1a174604b326e8ea,39,Kobieta,2022-06-11_08h15.26.783,task,2021.1.4,Win32,40.0160064,6299f149e92ead563fba08ef,62a440ffb2cdd044abd6ed76,,,,,,,,,,,,,,,,,,,,,,,,,,,,,,,,,,,,,,,,,,,,,,,,,,,,,,,,,,,,,,,,,,,,,,,,,,,,1,0,1,0,1,,,,,,,,,,,,,,,,,,,,,
,,,,,,,,,,,,5ebc2fee1a174604b326e8ea,39,Kobieta,2022-06-11_08h15.26.783,task,2021.1.4,Win32,40.0160064,6299f149e92ead563fba08ef,62a440ffb2cdd044abd6ed76,,,,,,,,,,,,,5,,,,,,,,,,Task,12,(4x4) - 11,5,,,,,,,,,,,,,,,,,,,1,,,,,,,,,,,,,,,,,,,,,,,"[""5""]",1,[3.249599999999873],0,0,0,11,1,,,,,,,,,,,,,,,,,,,,,,,,,,
,,,,,,,,,,,X V Q F H G B L J M P D K C T S W R N Z,5ebc2fee1a174604b326e8ea,39,Kobieta,2022-06-11_08h15.26.783,task,2021.1.4,Win32,40.0160064,6299f149e92ead563fba08ef,62a440ffb2cdd044abd6ed76,,,,,,,,,,,,,,,,,,,,,,,,,,,,,,,,,,,,,,,,,,,,,,,,,,,,,,,,,,,,,,,,,,,,,,,,,,,,2,0,2,0,1,,,,,,,,,,,,,,,,,,,,,
,,,,,,,,,,,,5ebc2fee1a174604b326e8ea,39,Kobieta,2022-06-11_08h15.26.783,task,2021.1.4,Win32,40.0160064,6299f149e92ead563fba08ef,62a440ffb2cdd044abd6ed76,,,,,,,,,,,,,,,,,,,,,,,,,,,,,,,,,,,,,,,,,,,,,,,,,,,,,,,,,,,,,,,,,,,,,,,,,,,,,,,,,pnx,"[""p"",""n"",""x""]",0,"[1.9782999999999902,2.4994000000000938,3.1281000000000745,4.000800000000027]",1,PNX,1,0,1,0,1,,,,,,,,,,
,,,,,,,,,,,,5ebc2fee1a174604b326e8ea,39,Kobieta,2022-06-11_08h15.26.783,task,2021.1.4,Win32,40.0160064,6299f149e92ead563fba08ef,62a440ffb2cdd044abd6ed76,,,,,,,,,,,,,7,,,,,,,,,,Task,6,(12/2) + 1,7,,,,,,,,,,,,,,,,,,,1,,,,,,,,,,,,,,,,,,,,,,,"[""7""]",1,[3.847200000000214],0,0,0,5,1,,,,,,,,,,,,,,,,,,,,,,,,,,
,,,,,,,,,,,X V Q F H G B L J M P D K C T S W R N Z,5ebc2fee1a174604b326e8ea,39,Kobieta,2022-06-11_08h15.26.783,task,2021.1.4,Win32,40.0160064,6299f149e92ead563fba08ef,62a440ffb2cdd044abd6ed76,,,,,,,,,,,,,,,,,,,,,,,,,,,,,,,,,,,,,,,,,,,,,,,,,,,,,,,,,,,,,,,,,,,,,,,,,,,,0,0,0,0,1,,,,,,,,,,,,,,,,,,,,,
,,,,,,,,,,,,5ebc2fee1a174604b326e8ea,39,Kobieta,2022-06-11_08h15.26.783,task,2021.1.4,Win32,40.0160064,6299f149e92ead563fba08ef,62a440ffb2cdd044abd6ed76,,,,,,,,,,,,,8,,,,,,,,,,Task,29,(3x8) - 19 ,5,,,,,,,,,,,,,,,,,,,0,,,,,,,,,,,,,,,,,,,,,,,"[""8""]",0,[5.221300000000042],0,0,0,28,1,,,,,,,,,,,,,,,,,,,,,,,,,,
,,,,,,,,,,,,5ebc2fee1a174604b326e8ea,39,Kobieta,2022-06-11_08h15.26.783,task,2021.1.4,Win32,40.0160064,6299f149e92ead563fba08ef,62a440ffb2cdd044abd6ed76,,,,,,,,,,,,,2,,,,,,,,,,Task,2,(2x2) - 2,2,,,,,,,,,,,,,,,,,,,1,,,,,,,,,,,,,,,,,,,,,,,"[""2""]",1,[3.9279999999999973],0,1,1,1,1,,,,,,,,,,,,,,,,,,,,,,,,,,
,,,,,,,,,,,X V Q F H G B L J M P D K C T S W R N Z,5ebc2fee1a174604b326e8ea,39,Kobieta,2022-06-11_08h15.26.783,task,2021.1.4,Win32,40.0160064,6299f149e92ead563fba08ef,62a440ffb2cdd044abd6ed76,,,,,,,,,,,,,,,,,,,,,,,,,,,,,,,,,,,,,,,,,,,,,,,,,,,,,,,,,,,,,,,,,,,,,,,,,,,,1,0,1,0,1,,,,,,,,,,,,,,,,,,,,,
,,,,,,,,,,,,5ebc2fee1a174604b326e8ea,39,Kobieta,2022-06-11_08h15.26.783,task,2021.1.4,Win32,40.0160064,6299f149e92ead563fba08ef,62a440ffb2cdd044abd6ed76,,,,,,,,,,,,,7,,,,,,,,,,Task,14,(2x2) + 3,7,,,,,,,,,,,,,,,,,,,1,,,,,,,,,,,,,,,,,,,,,,,"[""7""]",1,[2.4072999999997933],0,0,0,13,1,,,,,,,,,,,,,,,,,,,,,,,,,,
,,,,,,,,,,,X V Q F H G B L J M P D K C T S W R N Z,5ebc2fee1a174604b326e8ea,39,Kobieta,2022-06-11_08h15.26.783,task,2021.1.4,Win32,40.0160064,6299f149e92ead563fba08ef,62a440ffb2cdd044abd6ed76,,,,,,,,,,,,,,,,,,,,,,,,,,,,,,,,,,,,,,,,,,,,,,,,,,,,,,,,,,,,,,,,,,,,,,,,,,,,2,0,2,0,1,,,,,,,,,,,,,,,,,,,,,
,,,,,,,,,,,,5ebc2fee1a174604b326e8ea,39,Kobieta,2022-06-11_08h15.26.783,task,2021.1.4,Win32,40.0160064,6299f149e92ead563fba08ef,62a440ffb2cdd044abd6ed76,,,,,,,,,,,,,1,,,,,,,,,,Task,34,(9/3) - 2,1,,,,,,,,,,,,,,,,,,,1,,,,,,,,,,,,,,,,,,,,,,,"[""1""]",1,[2.503799999999785],0,0,0,33,1,,,,,,,,,,,,,,,,,,,,,,,,,,
,,,,,,,,,,,X V Q F H G B L J M P D K C T S W R N Z,5ebc2fee1a174604b326e8ea,39,Kobieta,2022-06-11_08h15.26.783,task,2021.1.4,Win32,40.0160064,6299f149e92ead563fba08ef,62a440ffb2cdd044abd6ed76,,,,,,,,,,,,,,,,,,,,,,,,,,,,,,,,,,,,,,,,,,,,,,,,,,,,,,,,,,,,,,,,,,,,,,,,,,,,3,0,3,0,1,,,,,,,,,,,,,,,,,,,,,
,,,,,,,,,,,,5ebc2fee1a174604b326e8ea,39,Kobieta,2022-06-11_08h15.26.783,task,2021.1.4,Win32,40.0160064,6299f149e92ead563fba08ef,62a440ffb2cdd044abd6ed76,,,,,,,,,,,,,,,,,,,,,,,,,,,,,,,,,,,,,,,,,,,,,,,,,,,,,,,,,,,,,,,,,,,,,,,,,,,,,,,,,tlhm,"[""t"",""l"",""h"",""m""]",0,"[2.0281000000001086,2.7268000000000825,3.2030000000000314,3.5321000000001277,4.499400000000151]",1,TLHM,2,0,2,0,1,,,,,,,,,,
,,,,,,,,,,,,5ebc2fee1a174604b326e8ea,39,Kobieta,2022-06-11_08h15.26.783,task,2021.1.4,Win32,40.0160064,6299f149e92ead563fba08ef,62a440ffb2cdd044abd6ed76,,,,,,,,,,,,,2,,,,,,,,,,Task,26,(2x9) - 16,2,,,,,,,,,,,,,,,,,,,1,,,,,,,,,,,,,,,,,,,,,,,"[""2""]",1,[2.4699999999999704],0,0,0,25,1,,,,,,,,,,,,,,,,,,,,,,,,,,
,,,,,,,,,,,X V Q F H G B L J M P D K C T S W R N Z,5ebc2fee1a174604b326e8ea,39,Kobieta,2022-06-11_08h15.26.783,task,2021.1.4,Win32,40.0160064,6299f149e92ead563fba08ef,62a440ffb2cdd044abd6ed76,,,,,,,,,,,,,,,,,,,,,,,,,,,,,,,,,,,,,,,,,,,,,,,,,,,,,,,,,,,,,,,,,,,,,,,,,,,,0,0,0,0,1,,,,,,,,,,,,,,,,,,,,,
,,,,,,,,,,,,5ebc2fee1a174604b326e8ea,39,Kobieta,2022-06-11_08h15.26.783,task,2021.1.4,Win32,40.0160064,6299f149e92ead563fba08ef,62a440ffb2cdd044abd6ed76,,,,,,,,,,,,,1,,,,,,,,,,Task,18,(16/4) - 3,1,,,,,,,,,,,,,,,,,,,1,,,,,,,,,,,,,,,,,,,,,,,"[""1""]",1,[2.3217999999998256],0,0,0,17,1,,,,,,,,,,,,,,,,,,,,,,,,,,
,,,,,,,,,,,X V Q F H G B L J M P D K C T S W R N Z,5ebc2fee1a174604b326e8ea,39,Kobieta,2022-06-11_08h15.26.783,task,2021.1.4,Win32,40.0160064,6299f149e92ead563fba08ef,62a440ffb2cdd044abd6ed76,,,,,,,,,,,,,,,,,,,,,,,,,,,,,,,,,,,,,,,,,,,,,,,,,,,,,,,,,,,,,,,,,,,,,,,,,,,,1,0,1,0,1,,,,,,,,,,,,,,,,,,,,,
,,,,,,,,,,,,5ebc2fee1a174604b326e8ea,39,Kobieta,2022-06-11_08h15.26.783,task,2021.1.4,Win32,40.0160064,6299f149e92ead563fba08ef,62a440ffb2cdd044abd6ed76,,,,,,,,,,,,,9,,,,,,,,,,Task,24,(2x2) + 5,9,,,,,,,,,,,,,,,,,,,1,,,,,,,,,,,,,,,,,,,,,,,"[""9""]",1,[3.1996999999999503],0,0,0,23,1,,,,,,,,,,,,,,,,,,,,,,,,,,
,,,,,,,,,,,X V Q F H G B L J M P D K C T S W R N Z,5ebc2fee1a174604b326e8ea,39,Kobieta,2022-06-11_08h15.26.783,task,2021.1.4,Win32,40.0160064,6299f149e92ead563fba08ef,62a440ffb2cdd044abd6ed76,,,,,,,,,,,,,,,,,,,,,,,,,,,,,,,,,,,,,,,,,,,,,,,,,,,,,,,,,,,,,,,,,,,,,,,,,,,,2,0,2,0,1,,,,,,,,,,,,,,,,,,,,,
,,,,,,,,,,,,5ebc2fee1a174604b326e8ea,39,Kobieta,2022-06-11_08h15.26.783,task,2021.1.4,Win32,40.0160064,6299f149e92ead563fba08ef,62a440ffb2cdd044abd6ed76,,,,,,,,,,,,,8,,,,,,,,,,Task,39,(5x3) - 7,8,,,,,,,,,,,,,,,,,,,1,,,,,,,,,,,,,,,,,,,,,,,"[""8""]",1,[2.538400000000138],0,0,0,38,1,,,,,,,,,,,,,,,,,,,,,,,,,,
,,,,,,,,,,,X V Q F H G B L J M P D K C T S W R N Z,5ebc2fee1a174604b326e8ea,39,Kobieta,2022-06-11_08h15.26.783,task,2021.1.4,Win32,40.0160064,6299f149e92ead563fba08ef,62a440ffb2cdd044abd6ed76,,,,,,,,,,,,,,,,,,,,,,,,,,,,,,,,,,,,,,,,,,,,,,,,,,,,,,,,,,,,,,,,,,,,,,,,,,,,3,0,3,0,1,,,,,,,,,,,,,,,,,,,,,
,,,,,,,,,,,,5ebc2fee1a174604b326e8ea,39,Kobieta,2022-06-11_08h15.26.783,task,2021.1.4,Win32,40.0160064,6299f149e92ead563fba08ef,62a440ffb2cdd044abd6ed76,,,,,,,,,,,,,0,,,,,,,,,,Task,33,(1/1) - 1,0,,,,,,,,,,,,,,,,,,,1,,,,,,,,,,,,,,,,,,,,,,,"[""0""]",1,[2.4503999999998882],0,0,0,32,1,,,,,,,,,,,,,,,,,,,,,,,,,,
,,,,,,,,,,,X V Q F H G B L J M P D K C T S W R N Z,5ebc2fee1a174604b326e8ea,39,Kobieta,2022-06-11_08h15.26.783,task,2021.1.4,Win32,40.0160064,6299f149e92ead563fba08ef,62a440ffb2cdd044abd6ed76,,,,,,,,,,,,,,,,,,,,,,,,,,,,,,,,,,,,,,,,,,,,,,,,,,,,,,,,,,,,,,,,,,,,,,,,,,,,4,0,4,0,1,,,,,,,,,,,,,,,,,,,,,
,,,,,,,,,,,,5ebc2fee1a174604b326e8ea,39,Kobieta,2022-06-11_08h15.26.783,task,2021.1.4,Win32,40.0160064,6299f149e92ead563fba08ef,62a440ffb2cdd044abd6ed76,,,,,,,,,,,,,,,,,,,,,,,,,,,,,,,,,,,,,,,,,,,,,,,,,,,,,,,,,,,,,,,,,,,,,,,,,,,,,,,,,sththx,"[""s"",""t"",""h"",""t"",""h"",""x""]",0,"[1.0528999999999087,1.3876999999999384,3.277499999999975,3.6269999999999527,11.170699999999954,11.470499999999959,12.286399999999901]",0,SHTHX,3,0,3,0,1,,,,,,,,,,
,,,,,,,,,,,,5ebc2fee1a174604b326e8ea,39,Kobieta,2022-06-11_08h15.26.783,task,2021.1.4,Win32,40.0160064,6299f149e92ead563fba08ef,62a440ffb2cdd044abd6ed76,,,,,,,,,,,,,2,,,,,,,,,,Task,10,(2x5) - 8,2,,,,,,,,,,,,,,,,,,,1,,,,,,,,,,,,,,,,,,,,,,,"[""2""]",1,[3.4560000000000173],0,0,0,9,1,,,,,,,,,,,,,,,,,,,,,,,,,,
,,,,,,,,,,,X V Q F H G B L J M P D K C T S W R N Z,5ebc2fee1a174604b326e8ea,39,Kobieta,2022-06-11_08h15.26.783,task,2021.1.4,Win32,40.0160064,6299f149e92ead563fba08ef,62a440ffb2cdd044abd6ed76,,,,,,,,,,,,,,,,,,,,,,,,,,,,,,,,,,,,,,,,,,,,,,,,,,,,,,,,,,,,,,,,,,,,,,,,,,,,0,0,0,0,1,,,,,,,,,,,,,,,,,,,,,
,,,,,,,,,,,,5ebc2fee1a174604b326e8ea,39,Kobieta,2022-06-11_08h15.26.783,task,2021.1.4,Win32,40.0160064,6299f149e92ead563fba08ef,62a440ffb2cdd044abd6ed76,,,,,,,,,,,,,1,,,,,,,,,,Task,9,(3x7) - 20,1,,,,,,,,,,,,,,,,,,,1,,,,,,,,,,,,,,,,,,,,,,,"[""1""]",1,[2.94560000000007],0,0,0,8,1,,,,,,,,,,,,,,,,,,,,,,,,,,
,,,,,,,,,,,X V Q F H G B L J M P D K C T S W R N Z,5ebc2fee1a174604b326e8ea,39,Kobieta,2022-06-11_08h15.26.783,task,2021.1.4,Win32,40.0160064,6299f149e92ead563fba08ef,62a440ffb2cdd044abd6ed76,,,,,,,,,,,,,,,,,,,,,,,,,,,,,,,,,,,,,,,,,,,,,,,,,,,,,,,,,,,,,,,,,,,,,,,,,,,,1,0,1,0,1,,,,,,,,,,,,,,,,,,,,,
,,,,,,,,,,,,5ebc2fee1a174604b326e8ea,39,Kobieta,2022-06-11_08h15.26.783,task,2021.1.4,Win32,40.0160064,6299f149e92ead563fba08ef,62a440ffb2cdd044abd6ed76,,,,,,,,,,,,,5,,,,,,,,,,Task,12,(4x4) - 11,5,,,,,,,,,,,,,,,,,,,1,,,,,,,,,,,,,,,,,,,,,,,"[""5""]",1,[3.6556000000001063],0,0,0,11,1,,,,,,,,,,,,,,,,,,,,,,,,,,
,,,,,,,,,,,X V Q F H G B L J M P D K C T S W R N Z,5ebc2fee1a174604b326e8ea,39,Kobieta,2022-06-11_08h15.26.783,task,2021.1.4,Win32,40.0160064,6299f149e92ead563fba08ef,62a440ffb2cdd044abd6ed76,,,,,,,,,,,,,,,,,,,,,,,,,,,,,,,,,,,,,,,,,,,,,,,,,,,,,,,,,,,,,,,,,,,,,,,,,,,,2,0,2,0,1,,,,,,,,,,,,,,,,,,,,,
,,,,,,,,,,,,5ebc2fee1a174604b326e8ea,39,Kobieta,2022-06-11_08h15.26.783,task,2021.1.4,Win32,40.0160064,6299f149e92ead563fba08ef,62a440ffb2cdd044abd6ed76,,,,,,,,,,,,,,,,,,,,,,,Task,27,(3/3) + 2,3,,,,,,,,,,,,,,,,,,,0,,,,,,,,,,,,,,,,,,,,,,,,0,,0,0,0,26,1,,,,,,,,,,,,,,,,,,,,,,,,,,
,,,,,,,,,,,,5ebc2fee1a174604b326e8ea,39,Kobieta,2022-06-11_08h15.26.783,task,2021.1.4,Win32,40.0160064,6299f149e92ead563fba08ef,62a440ffb2cdd044abd6ed76,,,,,,,,,,,,,9,,,,,,,,,,Task,7,(3x7) - 12,9,,,,,,,,,,,,,,,,,,,1,,,,,,,,,,,,,,,,,,,,,,,"[""9""]",1,[4.90339999999992],0,1,1,6,1,,,,,,,,,,,,,,,,,,,,,,,,,,
,,,,,,,,,,,X V Q F H G B L J M P D K C T S W R N Z,5ebc2fee1a174604b326e8ea,39,Kobieta,2022-06-11_08h15.26.783,task,2021.1.4,Win32,40.0160064,6299f149e92ead563fba08ef,62a440ffb2cdd044abd6ed76,,,,,,,,,,,,,,,,,,,,,,,,,,,,,,,,,,,,,,,,,,,,,,,,,,,,,,,,,,,,,,,,,,,,,,,,,,,,3,0,3,0,1,,,,,,,,,,,,,,,,,,,,,
,,,,,,,,,,,,5ebc2fee1a174604b326e8ea,39,Kobieta,2022-06-11_08h15.26.783,task,2021.1.4,Win32,40.0160064,6299f149e92ead563fba08ef,62a440ffb2cdd044abd6ed76,,,,,,,,,,,,,3,,,,,,,,,,Task,20,(18/9) + 1,3,,,,,,,,,,,,,,,,,,,1,,,,,,,,,,,,,,,,,,,,,,,"[""3""]",1,[3.024099999999862],0,0,0,19,1,,,,,,,,,,,,,,,,,,,,,,,,,,
,,,,,,,,,,,X V Q F H G B L J M P D K C T S W R N Z,5ebc2fee1a174604b326e8ea,39,Kobieta,2022-06-11_08h15.26.783,task,2021.1.4,Win32,40.0160064,6299f149e92ead563fba08ef,62a440ffb2cdd044abd6ed76,,,,,,,,,,,,,,,,,,,,,,,,,,,,,,,,,,,,,,,,,,,,,,,,,,,,,,,,,,,,,,,,,,,,,,,,,,,,4,0,4,0,1,,,,,,,,,,,,,,,,,,,,,
,,,,,,,,,,,,5ebc2fee1a174604b326e8ea,39,Kobieta,2022-06-11_08h15.26.783,task,2021.1.4,Win32,40.0160064,6299f149e92ead563fba08ef,62a440ffb2cdd044abd6ed76,,,,,,,,,,,,,,,,,,,,,,,,,,,,,,,,,,,,,,,,,,,,,,,,,,,,,,,,,,,,,,,,,,,,,,,,,,,,,,,,,tlwqd,"[""t"",""l"",""w"",""q"",""d""]",0,"[1.7902000000001408,2.402499999999975,2.875900000000115,3.533299999999997,3.9622000000001663,5.1351000000000795]",1,TLWQD,4,0,4,0,1,,,,,,,,,,
,,,,,,,,,,,,5ebc2fee1a174604b326e8ea,39,Kobieta,2022-06-11_08h15.26.783,task,2021.1.4,Win32,40.0160064,6299f149e92ead563fba08ef,62a440ffb2cdd044abd6ed76,,,,,,,,,,,,,8,,,,,,,,,,Task,15,(3x7) - 13,8,,,,,,,,,,,,,,,,,,,1,,,,,,,,,,,,,,,,,,,,,,,"[""8""]",1,[3.5453000000000543],0,0,0,14,1,,,,,,,,,,,,,,,,,,,,,,,,,,
,,,,,,,,,,,X V Q F H G B L J M P D K C T S W R N Z,5ebc2fee1a174604b326e8ea,39,Kobieta,2022-06-11_08h15.26.783,task,2021.1.4,Win32,40.0160064,6299f149e92ead563fba08ef,62a440ffb2cdd044abd6ed76,,,,,,,,,,,,,,,,,,,,,,,,,,,,,,,,,,,,,,,,,,,,,,,,,,,,,,,,,,,,,,,,,,,,,,,,,,,,0,0,0,0,1,,,,,,,,,,,,,,,,,,,,,
,,,,,,,,,,,,5ebc2fee1a174604b326e8ea,39,Kobieta,2022-06-11_08h15.26.783,task,2021.1.4,Win32,40.0160064,6299f149e92ead563fba08ef,62a440ffb2cdd044abd6ed76,,,,,,,,,,,,,2,,,,,,,,,,Task,26,(2x9) - 16,2,,,,,,,,,,,,,,,,,,,1,,,,,,,,,,,,,,,,,,,,,,,"[""2""]",1,[2.3566999999999325],0,0,0,25,1,,,,,,,,,,,,,,,,,,,,,,,,,,
,,,,,,,,,,,X V Q F H G B L J M P D K C T S W R N Z,5ebc2fee1a174604b326e8ea,39,Kobieta,2022-06-11_08h15.26.783,task,2021.1.4,Win32,40.0160064,6299f149e92ead563fba08ef,62a440ffb2cdd044abd6ed76,,,,,,,,,,,,,,,,,,,,,,,,,,,,,,,,,,,,,,,,,,,,,,,,,,,,,,,,,,,,,,,,,,,,,,,,,,,,1,0,1,0,1,,,,,,,,,,,,,,,,,,,,,
,,,,,,,,,,,,5ebc2fee1a174604b326e8ea,39,Kobieta,2022-06-11_08h15.26.783,task,2021.1.4,Win32,40.0160064,6299f149e92ead563fba08ef,62a440ffb2cdd044abd6ed76,,,,,,,,,,,,,9,,,,,,,,,,Task,7,(3x7) - 12,9,,,,,,,,,,,,,,,,,,,1,,,,,,,,,,,,,,,,,,,,,,,"[""9""]",1,[3.79729999999995],0,0,0,6,1,,,,,,,,,,,,,,,,,,,,,,,,,,
,,,,,,,,,,,X V Q F H G B L J M P D K C T S W R N Z,5ebc2fee1a174604b326e8ea,39,Kobieta,2022-06-11_08h15.26.783,task,2021.1.4,Win32,40.0160064,6299f149e92ead563fba08ef,62a440ffb2cdd044abd6ed76,,,,,,,,,,,,,,,,,,,,,,,,,,,,,,,,,,,,,,,,,,,,,,,,,,,,,,,,,,,,,,,,,,,,,,,,,,,,2,0,2,0,1,,,,,,,,,,,,,,,,,,,,,
,,,,,,,,,,,,5ebc2fee1a174604b326e8ea,39,Kobieta,2022-06-11_08h15.26.783,task,2021.1.4,Win32,40.0160064,6299f149e92ead563fba08ef,62a440ffb2cdd044abd6ed76,,,,,,,,,,,,,,,,,,,,,,,Task,13,(3x4) - 6,6,,,,,,,,,,,,,,,,,,,0,,,,,,,,,,,,,,,,,,,,,,,,0,,0,0,0,12,1,,,,,,,,,,,,,,,,,,,,,,,,,,
,,,,,,,,,,,,5ebc2fee1a174604b326e8ea,39,Kobieta,2022-06-11_08h15.26.783,task,2021.1.4,Win32,40.0160064,6299f149e92ead563fba08ef,62a440ffb2cdd044abd6ed76,,,,,,,,,,,,,9,,,,,,,,,,Task,16,(3x8) - 15,9,,,,,,,,,,,,,,,,,,,1,,,,,,,,,,,,,,,,,,,,,,,"[""9""]",1,[3.501500000000078],0,1,1,15,1,,,,,,,,,,,,,,,,,,,,,,,,,,
,,,,,,,,,,,X V Q F H G B L J M P D K C T S W R N Z,5ebc2fee1a174604b326e8ea,39,Kobieta,2022-06-11_08h15.26.783,task,2021.1.4,Win32,40.0160064,6299f149e92ead563fba08ef,62a440ffb2cdd044abd6ed76,,,,,,,,,,,,,,,,,,,,,,,,,,,,,,,,,,,,,,,,,,,,,,,,,,,,,,,,,,,,,,,,,,,,,,,,,,,,3,0,3,0,1,,,,,,,,,,,,,,,,,,,,,
,,,,,,,,,,,,5ebc2fee1a174604b326e8ea,39,Kobieta,2022-06-11_08h15.26.783,task,2021.1.4,Win32,40.0160064,6299f149e92ead563fba08ef,62a440ffb2cdd044abd6ed76,,,,,,,,,,,,,9,,,,,,,,,,Task,40,(7x2) - 5,9,,,,,,,,,,,,,,,,,,,1,,,,,,,,,,,,,,,,,,,,,,,"[""9""]",1,[1.9799999999999045],0,0,0,39,1,,,,,,,,,,,,,,,,,,,,,,,,,,
,,,,,,,,,,,X V Q F H G B L J M P D K C T S W R N Z,5ebc2fee1a174604b326e8ea,39,Kobieta,2022-06-11_08h15.26.783,task,2021.1.4,Win32,40.0160064,6299f149e92ead563fba08ef,62a440ffb2cdd044abd6ed76,,,,,,,,,,,,,,,,,,,,,,,,,,,,,,,,,,,,,,,,,,,,,,,,,,,,,,,,,,,,,,,,,,,,,,,,,,,,4,0,4,0,1,,,,,,,,,,,,,,,,,,,,,
,,,,,,,,,,,,5ebc2fee1a174604b326e8ea,39,Kobieta,2022-06-11_08h15.26.783,task,2021.1.4,Win32,40.0160064,6299f149e92ead563fba08ef,62a440ffb2cdd044abd6ed76,,,,,,,,,,,,,6,,,,,,,,,,Task,37,(3/3) + 5,6,,,,,,,,,,,,,,,,,,,1,,,,,,,,,,,,,,,,,,,,,,,"[""6""]",1,[3.1823000000000548],0,0,0,36,1,,,,,,,,,,,,,,,,,,,,,,,,,,
,,,,,,,,,,,X V Q F H G B L J M P D K C T S W R N Z,5ebc2fee1a174604b326e8ea,39,Kobieta,2022-06-11_08h15.26.783,task,2021.1.4,Win32,40.0160064,6299f149e92ead563fba08ef,62a440ffb2cdd044abd6ed76,,,,,,,,,,,,,,,,,,,,,,,,,,,,,,,,,,,,,,,,,,,,,,,,,,,,,,,,,,,,,,,,,,,,,,,,,,,,5,0,5,0,1,,,,,,,,,,,,,,,,,,,,,
,,,,,,,,,,,,5ebc2fee1a174604b326e8ea,39,Kobieta,2022-06-11_08h15.26.783,task,2021.1.4,Win32,40.0160064,6299f149e92ead563fba08ef,62a440ffb2cdd044abd6ed76,,,,,,,,,,,,,,,,,,,,,,,,,,,,,,,,,,,,,,,,,,,,,,,,,,,,,,,,,,,,,,,,,,,,,,,,,,,,,,,,,mbwvkq,"[""m"",""b"",""w"",""v"",""k"",""q""]",0,"[1.9770999999998367,2.4005999999998267,3.122500000000059,3.756599999999821,4.324799999999868,4.5267999999998665,5.500699999999938]",1,MBWVKQ,5,0,5,0,1,,,,,,,,,,
,,,,,,,,,,,,5ebc2fee1a174604b326e8ea,39,Kobieta,2022-06-11_08h15.26.783,task,2021.1.4,Win32,40.0160064,6299f149e92ead563fba08ef,62a440ffb2cdd044abd6ed76,,,,,,,,,,,,,3,,,,,,,,,,Task,27,(3/3) + 2,3,,,,,,,,,,,,,,,,,,,1,,,,,,,,,,,,,,,,,,,,,,,"[""3""]",1,[2.32669999999996],0,0,0,26,1,,,,,,,,,,,,,,,,,,,,,,,,,,
,,,,,,,,,,,X V Q F H G B L J M P D K C T S W R N Z,5ebc2fee1a174604b326e8ea,39,Kobieta,2022-06-11_08h15.26.783,task,2021.1.4,Win32,40.0160064,6299f149e92ead563fba08ef,62a440ffb2cdd044abd6ed76,,,,,,,,,,,,,,,,,,,,,,,,,,,,,,,,,,,,,,,,,,,,,,,,,,,,,,,,,,,,,,,,,,,,,,,,,,,,0,0,0,0,1,,,,,,,,,,,,,,,,,,,,,
,,,,,,,,,,,,5ebc2fee1a174604b326e8ea,39,Kobieta,2022-06-11_08h15.26.783,task,2021.1.4,Win32,40.0160064,6299f149e92ead563fba08ef,62a440ffb2cdd044abd6ed76,,,,,,,,,,,,,1,,,,,,,,,,Task,18,(16/4) - 3,1,,,,,,,,,,,,,,,,,,,1,,,,,,,,,,,,,,,,,,,,,,,"[""1""]",1,[2.1965000000000146],0,0,0,17,1,,,,,,,,,,,,,,,,,,,,,,,,,,
,,,,,,,,,,,X V Q F H G B L J M P D K C T S W R N Z,5ebc2fee1a174604b326e8ea,39,Kobieta,2022-06-11_08h15.26.783,task,2021.1.4,Win32,40.0160064,6299f149e92ead563fba08ef,62a440ffb2cdd044abd6ed76,,,,,,,,,,,,,,,,,,,,,,,,,,,,,,,,,,,,,,,,,,,,,,,,,,,,,,,,,,,,,,,,,,,,,,,,,,,,1,0,1,0,1,,,,,,,,,,,,,,,,,,,,,
,,,,,,,,,,,,5ebc2fee1a174604b326e8ea,39,Kobieta,2022-06-11_08h15.26.783,task,2021.1.4,Win32,40.0160064,6299f149e92ead563fba08ef,62a440ffb2cdd044abd6ed76,,,,,,,,,,,,,8,,,,,,,,,,Task,23,(2x3) + 2,8,,,,,,,,,,,,,,,,,,,1,,,,,,,,,,,,,,,,,,,,,,,"[""8""]",1,[2.0957999999998265],0,0,0,22,1,,,,,,,,,,,,,,,,,,,,,,,,,,
,,,,,,,,,,,X V Q F H G B L J M P D K C T S W R N Z,5ebc2fee1a174604b326e8ea,39,Kobieta,2022-06-11_08h15.26.783,task,2021.1.4,Win32,40.0160064,6299f149e92ead563fba08ef,62a440ffb2cdd044abd6ed76,,,,,,,,,,,,,,,,,,,,,,,,,,,,,,,,,,,,,,,,,,,,,,,,,,,,,,,,,,,,,,,,,,,,,,,,,,,,2,0,2,0,1,,,,,,,,,,,,,,,,,,,,,
,,,,,,,,,,,,5ebc2fee1a174604b326e8ea,39,Kobieta,2022-06-11_08h15.26.783,task,2021.1.4,Win32,40.0160064,6299f149e92ead563fba08ef,62a440ffb2cdd044abd6ed76,,,,,,,,,,,,,2,,,,,,,,,,Task,2,(2x2) - 2,2,,,,,,,,,,,,,,,,,,,1,,,,,,,,,,,,,,,,,,,,,,,"[""2""]",1,[1.947999999999979],0,0,0,1,1,,,,,,,,,,,,,,,,,,,,,,,,,,
,,,,,,,,,,,X V Q F H G B L J M P D K C T S W R N Z,5ebc2fee1a174604b326e8ea,39,Kobieta,2022-06-11_08h15.26.783,task,2021.1.4,Win32,40.0160064,6299f149e92ead563fba08ef,62a440ffb2cdd044abd6ed76,,,,,,,,,,,,,,,,,,,,,,,,,,,,,,,,,,,,,,,,,,,,,,,,,,,,,,,,,,,,,,,,,,,,,,,,,,,,3,0,3,0,1,,,,,,,,,,,,,,,,,,,,,
,,,,,,,,,,,,5ebc2fee1a174604b326e8ea,39,Kobieta,2022-06-11_08h15.26.783,task,2021.1.4,Win32,40.0160064,6299f149e92ead563fba08ef,62a440ffb2cdd044abd6ed76,,,,,,,,,,,,,7,,,,,,,,,,Task,30,(6/3) + 4 ,6,,,,,,,,,,,,,,,,,,,0,,,,,,,,,,,,,,,,,,,,,,,"[""7""]",0,[3.62170000000026],0,0,0,29,1,,,,,,,,,,,,,,,,,,,,,,,,,,
,,,,,,,,,,,,5ebc2fee1a174604b326e8ea,39,Kobieta,2022-06-11_08h15.26.783,task,2021.1.4,Win32,40.0160064,6299f149e92ead563fba08ef,62a440ffb2cdd044abd6ed76,,,,,,,,,,,,,6,,,,,,,,,,Task,13,(3x4) - 6,6,,,,,,,,,,,,,,,,,,,1,,,,,,,,,,,,,,,,,,,,,,,"[""6""]",1,[2.6550000000000864],0,1,1,12,1,,,,,,,,,,,,,,,,,,,,,,,,,,
,,,,,,,,,,,X V Q F H G B L J M P D K C T S W R N Z,5ebc2fee1a174604b326e8ea,39,Kobieta,2022-06-11_08h15.26.783,task,2021.1.4,Win32,40.0160064,6299f149e92ead563fba08ef,62a440ffb2cdd044abd6ed76,,,,,,,,,,,,,,,,,,,,,,,,,,,,,,,,,,,,,,,,,,,,,,,,,,,,,,,,,,,,,,,,,,,,,,,,,,,,4,0,4,0,1,,,,,,,,,,,,,,,,,,,,,
,,,,,,,,,,,,5ebc2fee1a174604b326e8ea,39,Kobieta,2022-06-11_08h15.26.783,task,2021.1.4,Win32,40.0160064,6299f149e92ead563fba08ef,62a440ffb2cdd044abd6ed76,,,,,,,,,,,,,2,,,,,,,,,,Task,10,(2x5) - 8,2,,,,,,,,,,,,,,,,,,,1,,,,,,,,,,,,,,,,,,,,,,,"[""2""]",1,[1.7979000000001406],0,0,0,9,1,,,,,,,,,,,,,,,,,,,,,,,,,,
,,,,,,,,,,,X V Q F H G B L J M P D K C T S W R N Z,5ebc2fee1a174604b326e8ea,39,Kobieta,2022-06-11_08h15.26.783,task,2021.1.4,Win32,40.0160064,6299f149e92ead563fba08ef,62a440ffb2cdd044abd6ed76,,,,,,,,,,,,,,,,,,,,,,,,,,,,,,,,,,,,,,,,,,,,,,,,,,,,,,,,,,,,,,,,,,,,,,,,,,,,5,0,5,0,1,,,,,,,,,,,,,,,,,,,,,
,,,,,,,,,,,,5ebc2fee1a174604b326e8ea,39,Kobieta,2022-06-11_08h15.26.783,task,2021.1.4,Win32,40.0160064,6299f149e92ead563fba08ef,62a440ffb2cdd044abd6ed76,,,,,,,,,,,,,2,,,,,,,,,,Task,26,(2x9) - 16,2,,,,,,,,,,,,,,,,,,,1,,,,,,,,,,,,,,,,,,,,,,,"[""2""]",1,[4.128399999999829],0,0,0,25,1,,,,,,,,,,,,,,,,,,,,,,,,,,
,,,,,,,,,,,X V Q F H G B L J M P D K C T S W R N Z,5ebc2fee1a174604b326e8ea,39,Kobieta,2022-06-11_08h15.26.783,task,2021.1.4,Win32,40.0160064,6299f149e92ead563fba08ef,62a440ffb2cdd044abd6ed76,,,,,,,,,,,,,,,,,,,,,,,,,,,,,,,,,,,,,,,,,,,,,,,,,,,,,,,,,,,,,,,,,,,,,,,,,,,,6,0,6,0,1,,,,,,,,,,,,,,,,,,,,,
,,,,,,,,,,,,5ebc2fee1a174604b326e8ea,39,Kobieta,2022-06-11_08h15.26.783,task,2021.1.4,Win32,40.0160064,6299f149e92ead563fba08ef,62a440ffb2cdd044abd6ed76,,,,,,,,,,,,,,,,,,,,,,,,,,,,,,,,,,,,,,,,,,,,,,,,,,,,,,,,,,,,,,,,,,,,,,,,,,,,,,,,,fzqbfmg,"[""f"",""z"",""q"",""b"",""f"",""m"",""g""]",0,"[1.793800000000033,2.5795000000000528,2.8327000000000453,3.4894000000001597,3.953700000000026,4.203700000000026,6.577699999999936,7.485699999999952]",0,FZQMZGB,6,0,6,0,1,,,,,,,,,,
,,,,,,,,,,,,5ebc2fee1a174604b326e8ea,39,Kobieta,2022-06-11_08h15.26.783,task,2021.1.4,Win32,40.0160064,6299f149e92ead563fba08ef,62a440ffb2cdd044abd6ed76,,,,,,,,,,,,,0,,,,,,,,,,Task,33,(1/1) - 1,0,,,,,,,,,,,,,,,,,,,1,,,,,,,,,,,,,,,,,,,,,,,"[""0""]",1,[2.2261000000000877],0,0,0,32,1,,,,,,,,,,,,,,,,,,,,,,,,,,
,,,,,,,,,,,X V Q F H G B L J M P D K C T S W R N Z,5ebc2fee1a174604b326e8ea,39,Kobieta,2022-06-11_08h15.26.783,task,2021.1.4,Win32,40.0160064,6299f149e92ead563fba08ef,62a440ffb2cdd044abd6ed76,,,,,,,,,,,,,,,,,,,,,,,,,,,,,,,,,,,,,,,,,,,,,,,,,,,,,,,,,,,,,,,,,,,,,,,,,,,,0,0,0,0,1,,,,,,,,,,,,,,,,,,,,,
,,,,,,,,,,,,5ebc2fee1a174604b326e8ea,39,Kobieta,2022-06-11_08h15.26.783,task,2021.1.4,Win32,40.0160064,6299f149e92ead563fba08ef,62a440ffb2cdd044abd6ed76,,,,,,,,,,,,,8,,,,,,,,,,Task,29,(3x8) - 19 ,5,,,,,,,,,,,,,,,,,,,0,,,,,,,,,,,,,,,,,,,,,,,"[""8""]",0,[4.353799999999978],0,0,0,28,1,,,,,,,,,,,,,,,,,,,,,,,,,,
,,,,,,,,,,,,5ebc2fee1a174604b326e8ea,39,Kobieta,2022-06-11_08h15.26.783,task,2021.1.4,Win32,40.0160064,6299f149e92ead563fba08ef,62a440ffb2cdd044abd6ed76,,,,,,,,,,,,,8,,,,,,,,,,Task,15,(3x7) - 13,8,,,,,,,,,,,,,,,,,,,1,,,,,,,,,,,,,,,,,,,,,,,"[""8""]",1,[2.871699999999919],0,1,1,14,1,,,,,,,,,,,,,,,,,,,,,,,,,,
,,,,,,,,,,,X V Q F H G B L J M P D K C T S W R N Z,5ebc2fee1a174604b326e8ea,39,Kobieta,2022-06-11_08h15.26.783,task,2021.1.4,Win32,40.0160064,6299f149e92ead563fba08ef,62a440ffb2cdd044abd6ed76,,,,,,,,,,,,,,,,,,,,,,,,,,,,,,,,,,,,,,,,,,,,,,,,,,,,,,,,,,,,,,,,,,,,,,,,,,,,1,0,1,0,1,,,,,,,,,,,,,,,,,,,,,
,,,,,,,,,,,,5ebc2fee1a174604b326e8ea,39,Kobieta,2022-06-11_08h15.26.783,task,2021.1.4,Win32,40.0160064,6299f149e92ead563fba08ef,62a440ffb2cdd044abd6ed76,,,,,,,,,,,,,2,,,,,,,,,,Task,10,(2x5) - 8,2,,,,,,,,,,,,,,,,,,,1,,,,,,,,,,,,,,,,,,,,,,,"[""2""]",1,[1.4864999999999782],0,0,0,9,1,,,,,,,,,,,,,,,,,,,,,,,,,,
,,,,,,,,,,,X V Q F H G B L J M P D K C T S W R N Z,5ebc2fee1a174604b326e8ea,39,Kobieta,2022-06-11_08h15.26.783,task,2021.1.4,Win32,40.0160064,6299f149e92ead563fba08ef,62a440ffb2cdd044abd6ed76,,,,,,,,,,,,,,,,,,,,,,,,,,,,,,,,,,,,,,,,,,,,,,,,,,,,,,,,,,,,,,,,,,,,,,,,,,,,2,0,2,0,1,,,,,,,,,,,,,,,,,,,,,
,,,,,,,,,,,,5ebc2fee1a174604b326e8ea,39,Kobieta,2022-06-11_08h15.26.783,task,2021.1.4,Win32,40.0160064,6299f149e92ead563fba08ef,62a440ffb2cdd044abd6ed76,,,,,,,,,,,,,3,,,,,,,,,,Task,20,(18/9) + 1,3,,,,,,,,,,,,,,,,,,,1,,,,,,,,,,,,,,,,,,,,,,,"[""3""]",1,[2.7804000000000997],0,0,0,19,1,,,,,,,,,,,,,,,,,,,,,,,,,,
,,,,,,,,,,,X V Q F H G B L J M P D K C T S W R N Z,5ebc2fee1a174604b326e8ea,39,Kobieta,2022-06-11_08h15.26.783,task,2021.1.4,Win32,40.0160064,6299f149e92ead563fba08ef,62a440ffb2cdd044abd6ed76,,,,,,,,,,,,,,,,,,,,,,,,,,,,,,,,,,,,,,,,,,,,,,,,,,,,,,,,,,,,,,,,,,,,,,,,,,,,3,0,3,0,1,,,,,,,,,,,,,,,,,,,,,
,,,,,,,,,,,,5ebc2fee1a174604b326e8ea,39,Kobieta,2022-06-11_08h15.26.783,task,2021.1.4,Win32,40.0160064,6299f149e92ead563fba08ef,62a440ffb2cdd044abd6ed76,,,,,,,,,,,,,6,,,,,,,,,,Task,30,(6/3) + 4 ,6,,,,,,,,,,,,,,,,,,,1,,,,,,,,,,,,,,,,,,,,,,,"[""6""]",1,[3.4983000000000857],0,0,0,29,1,,,,,,,,,,,,,,,,,,,,,,,,,,
,,,,,,,,,,,X V Q F H G B L J M P D K C T S W R N Z,5ebc2fee1a174604b326e8ea,39,Kobieta,2022-06-11_08h15.26.783,task,2021.1.4,Win32,40.0160064,6299f149e92ead563fba08ef,62a440ffb2cdd044abd6ed76,,,,,,,,,,,,,,,,,,,,,,,,,,,,,,,,,,,,,,,,,,,,,,,,,,,,,,,,,,,,,,,,,,,,,,,,,,,,4,0,4,0,1,,,,,,,,,,,,,,,,,,,,,
,,,,,,,,,,,,5ebc2fee1a174604b326e8ea,39,Kobieta,2022-06-11_08h15.26.783,task,2021.1.4,Win32,40.0160064,6299f149e92ead563fba08ef,62a440ffb2cdd044abd6ed76,,,,,,,,,,,,,1,,,,,,,,,,Task,34,(9/3) - 2,1,,,,,,,,,,,,,,,,,,,1,,,,,,,,,,,,,,,,,,,,,,,"[""1""]",1,[4.855800000000045],0,0,0,33,1,,,,,,,,,,,,,,,,,,,,,,,,,,
,,,,,,,,,,,X V Q F H G B L J M P D K C T S W R N Z,5ebc2fee1a174604b326e8ea,39,Kobieta,2022-06-11_08h15.26.783,task,2021.1.4,Win32,40.0160064,6299f149e92ead563fba08ef,62a440ffb2cdd044abd6ed76,,,,,,,,,,,,,,,,,,,,,,,,,,,,,,,,,,,,,,,,,,,,,,,,,,,,,,,,,,,,,,,,,,,,,,,,,,,,5,0,5,0,1,,,,,,,,,,,,,,,,,,,,,
,,,,,,,,,,,,5ebc2fee1a174604b326e8ea,39,Kobieta,2022-06-11_08h15.26.783,task,2021.1.4,Win32,40.0160064,6299f149e92ead563fba08ef,62a440ffb2cdd044abd6ed76,,,,,,,,,,,,,1,,,,,,,,,,Task,34,(9/3) - 2,1,,,,,,,,,,,,,,,,,,,1,,,,,,,,,,,,,,,,,,,,,,,"[""1""]",1,[4.777900000000159],0,0,0,33,1,,,,,,,,,,,,,,,,,,,,,,,,,,
,,,,,,,,,,,X V Q F H G B L J M P D K C T S W R N Z,5ebc2fee1a174604b326e8ea,39,Kobieta,2022-06-11_08h15.26.783,task,2021.1.4,Win32,40.0160064,6299f149e92ead563fba08ef,62a440ffb2cdd044abd6ed76,,,,,,,,,,,,,,,,,,,,,,,,,,,,,,,,,,,,,,,,,,,,,,,,,,,,,,,,,,,,,,,,,,,,,,,,,,,,6,0,6,0,1,,,,,,,,,,,,,,,,,,,,,
,,,,,,,,,,,,5ebc2fee1a174604b326e8ea,39,Kobieta,2022-06-11_08h15.26.783,task,2021.1.4,Win32,40.0160064,6299f149e92ead563fba08ef,62a440ffb2cdd044abd6ed76,,,,,,,,,,,,,,,,,,,,,,,,,,,,,,,,,,,,,,,,,,,,,,,,,,,,,,,,,,,,,,,,,,,,,,,,,,,,,,,,,ffgwnsp,"[""f"",""f"",""g"",""w"",""n"",""s"",""p""]",0,"[1.831600000000094,1.9779999999999518,2.1843000000000075,2.5573000000000548,2.898100000000113,3.5850000000000364,4.003500000000031,4.884300000000053]",0,GFNGNPS,7,0,7,0,1,,,,,,,,,,
,,,,,,,,,,,,5ebc2fee1a174604b326e8ea,39,Kobieta,2022-06-11_08h15.26.783,task,2021.1.4,Win32,40.0160064,6299f149e92ead563fba08ef,62a440ffb2cdd044abd6ed76,,,,,,,,,,,,,,,,,,,,,,,,,,,,,,,,,,,,,,,,,,,,,,,,,,,,,,,,,,,,,,,,,,,,,,,,,,,,,,,,,,,,,,,,,,,,"[""comma""]",0,[0.576900000000137],0,0,0,0,1,,
,,,,,,,,,,,,5ebc2fee1a174604b326e8ea,39,Kobieta,2022-06-11_08h15.26.783,task,2021.1.4,Win32,40.0160064,6299f149e92ead563fba08ef,62a440ffb2cdd044abd6ed76,,,,,,,,,,,,,,,,,,,,,,,,,,,,,,,,,,,,,,,,,,,,,,,,,,,,,,,,,,,,,,,,,,,,,,,,,,,,,,,,,,,,,,,,,,,,"[""comma""]",0,[0.48559999999974934],1,0,1,0,1,,
,,,,,,,,,,,,5ebc2fee1a174604b326e8ea,39,Kobieta,2022-06-11_08h15.26.783,task,2021.1.4,Win32,40.0160064,6299f149e92ead563fba08ef,62a440ffb2cdd044abd6ed76,,,,,,,,,,,,,,,,,,,,,,,,,,,,,,,,,,,,,,,,,,,,,,,,,,,,,,,,,,,,,,,,,,,,,,,,,,,,,,,,,,,,,,,,,,,,"[""comma""]",0,[0.7220999999998412],2,0,2,0,1,,
,,,,,,,,,,,,5ebc2fee1a174604b326e8ea,39,Kobieta,2022-06-11_08h15.26.783,task,2021.1.4,Win32,40.0160064,6299f149e92ead563fba08ef,62a440ffb2cdd044abd6ed76,,,,,,,,,,,,,,,,,,,,,,,,,,,,,,,,,,,,,,,,,,,,,,,,,,,,,,,,,,,,,,,,,,,,,,,,,,,,,,,,,,,,,,,,,,,,"[""period""]",0,[0.500699999999938],3,0,3,0,1,,
,,,,,,,,,,,,5ebc2fee1a174604b326e8ea,39,Kobieta,2022-06-11_08h15.26.783,task,2021.1.4,Win32,40.0160064,6299f149e92ead563fba08ef,62a440ffb2cdd044abd6ed76,,,,,,,,,,,,,,,,,,,,,,,,,,,,,,,,,,,,,,,,,,,,,,,,,,,,,,,,,,,,,,,,,,,,,,,,,,,,,,,,,,,,,,,,,,,,"[""comma""]",0,[0.34199999999998454],4,0,4,0,1,,
,,,,,,,,,,,,5ebc2fee1a174604b326e8ea,39,Kobieta,2022-06-11_08h15.26.783,task,2021.1.4,Win32,40.0160064,6299f149e92ead563fba08ef,62a440ffb2cdd044abd6ed76,,,,,,,,,,,,,,,,,,,,,,,,,,,,,,,,,,,,,,,,,,,,,,,,,,,,,,,,,,,,,,,,,,,,,,,,,,,,,,,,,,,,,,,,,,,,"[""period""]",0,[0.7615000000000691],5,0,5,0,1,,
,,,,,,,,,,,,5ebc2fee1a174604b326e8ea,39,Kobieta,2022-06-11_08h15.26.783,task,2021.1.4,Win32,40.0160064,6299f149e92ead563fba08ef,62a440ffb2cdd044abd6ed76,,,,,,,,,,,,,,,,,,,,,,,,,,,,,,,,,,,,,,,,,,,,,,,,,,,,,,,,,,,,,,,,,,,,,,,,,,,,,,,,,,,,,,,,,,,,"[""comma""]",0,[0.4313000000000784],6,0,6,0,1,,
,,,,,,,,,,,,5ebc2fee1a174604b326e8ea,39,Kobieta,2022-06-11_08h15.26.783,task,2021.1.4,Win32,40.0160064,6299f149e92ead563fba08ef,62a440ffb2cdd044abd6ed76,,,,,,,,,,,,,,,,,,,,,,,,,,,,,,,,,,,,,,,,,,,,,,,,,,,,,,,,,,,,,,,,,,,,,,,,,,,,,,,,,,,,,,,,,,,,"[""comma""]",0,[0.12810000000013133],7,0,7,0,1,,
,,,,,,,,,,,,5ebc2fee1a174604b326e8ea,39,Kobieta,2022-06-11_08h15.26.783,task,2021.1.4,Win32,40.0160064,6299f149e92ead563fba08ef,62a440ffb2cdd044abd6ed76,,,,,,,,,,,,,,,,,,,,,,,,,,,,,,,,,,,,,,,,,,,,,,,,,,,,,,,,,,,,,,,,,,,,,,,,,,,,,,,,,,,,,,,,,,,,"[""comma"",""period""]",0,"[0.3523000000000138,1.7504999999999882]",8,0,8,0,1,,
,,,,,,,,,,,,5ebc2fee1a174604b326e8ea,39,Kobieta,2022-06-11_08h15.26.783,task,2021.1.4,Win32,40.0160064,6299f149e92ead563fba08ef,62a440ffb2cdd044abd6ed76,,,,,,,,,,,,,,,,,,,,,,,,,,,,,,,,,,,,,,,,,,,,,,,,,,,,,,,,,,,,,,,,,,,,,,,,,,,,,,,,,,,,,,,,,,,,"[""period""]",0,[1.2778999999999314],9,0,9,0,1,,
,,,,,,,,,,,,5ebc2fee1a174604b326e8ea,39,Kobieta,2022-06-11_08h15.26.783,task,2021.1.4,Win32,40.0160064,6299f149e92ead563fba08ef,62a440ffb2cdd044abd6ed76,,,,,,,,,,,,,,,,,,,,,,,,,,,,,,,,,,,,,,,,,,,,,,,,,,,,,,,,,,,,,,,,,,,,,,,,,,,,,,,,,,,,,,,,,,,,,0,,10,0,10,0,1,,
,,,,,,,,,,,,5ebc2fee1a174604b326e8ea,39,Kobieta,2022-06-11_08h15.26.783,task,2021.1.4,Win32,40.0160064,6299f149e92ead563fba08ef,62a440ffb2cdd044abd6ed76,,,,,,,,,,,,,,,,,,,,,,,,,,,,,,,,,,,,,,,,,,,,,,,,,,,,,,,,,,,,,,,,,,,,,,,,,,,,,,,,,,,,,,,,,,,,"[""period""]",0,[0.3588000000000875],11,0,11,0,1,,
,,,,,,,,,,,,5ebc2fee1a174604b326e8ea,39,Kobieta,2022-06-11_08h15.26.783,task,2021.1.4,Win32,40.0160064,6299f149e92ead563fba08ef,62a440ffb2cdd044abd6ed76,,,,,,,,,,,,,,,,,,,,,,,,,,,,,,,,,,,,,,,,,,,,,,,,,,,,,,,,,,,,,,,,,,,,,,,,,,,,,,,,,,,,,,,,,,,,"[""comma""]",0,[1.129199999999969],12,0,12,0,1,,
,,,,,,,,,,,,5ebc2fee1a174604b326e8ea,39,Kobieta,2022-06-11_08h15.26.783,task,2021.1.4,Win32,40.0160064,6299f149e92ead563fba08ef,62a440ffb2cdd044abd6ed76,,,,,,,,,,,,,,,,,,,,,,,,,,,,,,,,,,,,,,,,,,,,,,,,,,,,,,,,,,,,,,,,,,,,,,,,,,,,,,,,,,,,,,,,,,,,,0,,13,0,13,0,1,,
,,,,,,,,,,,,5ebc2fee1a174604b326e8ea,39,Kobieta,2022-06-11_08h15.26.783,task,2021.1.4,Win32,40.0160064,6299f149e92ead563fba08ef,62a440ffb2cdd044abd6ed76,,,,,,,,,,,,,,,,,,,,,,,,,,,,,,,,,,,,,,,,,,,,,,,,,,,,,,,,,,,,,,,,,,,,,,,,,,,,,,,,,,,,,,,,,,,,"[""comma""]",0,[0.4516999999999598],14,0,14,0,1,,
,,,,,,,,,,,,5ebc2fee1a174604b326e8ea,39,Kobieta,2022-06-11_08h15.26.783,task,2021.1.4,Win32,40.0160064,6299f149e92ead563fba08ef,62a440ffb2cdd044abd6ed76,,,,,,,,,,,,,,,,,,,,,,,,,,,,,,,,,,,,,,,,,,,,,,,,,,,,,,,,,,,,,,,,,,,,,,,,,,,,,,,,,,,,,,,,,,,,"[""comma""]",0,[0.6438999999999169],15,0,15,0,1,,
,,,,,,,,,,,,5ebc2fee1a174604b326e8ea,39,Kobieta,2022-06-11_08h15.26.783,task,2021.1.4,Win32,40.0160064,6299f149e92ead563fba08ef,62a440ffb2cdd044abd6ed76,,,,,,,,,,,,,,,,,,,,,,,,,,,,,,,,,,,,,,,,,,,,,,,,,,,,,,,,,,,,,,,,,,,,,,,,,,,,,,,,,,,,,,,,,,,,"[""period""]",0,[0.6346000000000913],16,0,16,0,1,,
,,,,,,,,,,,,5ebc2fee1a174604b326e8ea,39,Kobieta,2022-06-11_08h15.26.783,task,2021.1.4,Win32,40.0160064,6299f149e92ead563fba08ef,62a440ffb2cdd044abd6ed76,,,,,,,,,,,,,,,,,,,,,,,,,,,,,,,,,,,,,,,,,,,,,,,,,,,,,,,,,,,,,,,,,,,,,,,,,,,,,,,,,,,,,,,,,,,,"[""period""]",0,[0.5393000000000256],17,0,17,0,1,,
,,,,,,,,,,,,5ebc2fee1a174604b326e8ea,39,Kobieta,2022-06-11_08h15.26.783,task,2021.1.4,Win32,40.0160064,6299f149e92ead563fba08ef,62a440ffb2cdd044abd6ed76,,,,,,,,,,,,,,,,,,,,,,,,,,,,,,,,,,,,,,,,,,,,,,,,,,,,,,,,,,,,,,,,,,,,,,,,,,,,,,,,,,,,,,,,,,,,"[""period""]",0,[0.36520000000018626],18,0,18,0,1,,
,,,,,,,,,,,,5ebc2fee1a174604b326e8ea,39,Kobieta,2022-06-11_08h15.26.783,task,2021.1.4,Win32,40.0160064,6299f149e92ead563fba08ef,62a440ffb2cdd044abd6ed76,,,,,,,,,,,,,,,,,,,,,,,,,,,,,,,,,,,,,,,,,,,,,,,,,,,,,,,,,,,,,,,,,,,,,,,,,,,,,,,,,,,,,,,,,,,,"[""comma""]",0,[0.4819999999999709],19,0,19,0,1,,
,,,,,,,,,,,,5ebc2fee1a174604b326e8ea,39,Kobieta,2022-06-11_08h15.26.783,task,2021.1.4,Win32,40.0160064,6299f149e92ead563fba08ef,62a440ffb2cdd044abd6ed76,,,,,,,,,,,,,,,,,,,,,,,,,,,,,,,,,,,,,,,,,,,,,,,,,,,,,,,,,,,,,,,,,,,,,,,,,,,,,,,,,,,,,,,,,,,,"[""comma""]",0,[0.7074999999999818],20,0,20,0,1,,
,,,,,,,,,,,,5ebc2fee1a174604b326e8ea,39,Kobieta,2022-06-11_08h15.26.783,task,2021.1.4,Win32,40.0160064,6299f149e92ead563fba08ef,62a440ffb2cdd044abd6ed76,,,,,,,,,,,,,,,,,,,,,,,,,,,,,,,,,,,,,,,,,,,,,,,,,,,,,,,,,,,,,,,,,,,,,,,,,,,,,,,,,,,,,,,,,,,,"[""comma""]",0,[0.40219999999999345],21,0,21,0,1,,
,,,,,,,,,,,,5ebc2fee1a174604b326e8ea,39,Kobieta,2022-06-11_08h15.26.783,task,2021.1.4,Win32,40.0160064,6299f149e92ead563fba08ef,62a440ffb2cdd044abd6ed76,,,,,,,,,,,,,,,,,,,,,,,,,,,,,,,,,,,,,,,,,,,,,,,,,,,,,,,,,,,,,,,,,,,,,,,,,,,,,,,,,,,,,,,,,,,,"[""period""]",0,[0.6826999999999543],22,0,22,0,1,,
,,,,,,,,,,,,5ebc2fee1a174604b326e8ea,39,Kobieta,2022-06-11_08h15.26.783,task,2021.1.4,Win32,40.0160064,6299f149e92ead563fba08ef,62a440ffb2cdd044abd6ed76,,,,,,,,,,,,,,,,,,,,,,,,,,,,,,,,,,,,,,,,,,,,,,,,,,,,,,,,,,,,,,,,,,,,,,,,,,,,,,,,,,,,,,,,,,,,"[""period""]",0,[0.6523999999999432],23,0,23,0,1,,
,,,,,,,,,,,,5ebc2fee1a174604b326e8ea,39,Kobieta,2022-06-11_08h15.26.783,task,2021.1.4,Win32,40.0160064,6299f149e92ead563fba08ef,62a440ffb2cdd044abd6ed76,,,,,,,,,,,,,,,,,,,,,,,,,,,,,,,,,,,,,,,,,,,,,,,,,,,,,,,,,,,,,,,,,,,,,,,,,,,,,,,,,,,,,,,,,,,,"[""period""]",0,[0.5087999999999511],24,0,24,0,1,,
,,,,,,,,,,,,5ebc2fee1a174604b326e8ea,39,Kobieta,2022-06-11_08h15.26.783,task,2021.1.4,Win32,40.0160064,6299f149e92ead563fba08ef,62a440ffb2cdd044abd6ed76,,,,,,,,,,,,,,,,,,,,,,,,,,,,,,,,,,,,,,,,,,,,,,,,,,,,,,,,,,,,,,,,,,,,,,,,,,,,,,,,,,,,,,,,,,,,"[""comma""]",0,[0.5184000000001561],25,0,25,0,1,,
,,,,,,,,,,,,5ebc2fee1a174604b326e8ea,39,Kobieta,2022-06-11_08h15.26.783,task,2021.1.4,Win32,40.0160064,6299f149e92ead563fba08ef,62a440ffb2cdd044abd6ed76,,,,,,,,,,,,,,,,,,,,,,,,,,,,,,,,,,,,,,,,,,,,,,,,,,,,,,,,,,,,,,,,,,,,,,,,,,,,,,,,,,,,,,,,,,,,"[""comma""]",0,[0.5220999999999094],26,0,26,0,1,,
,,,,,,,,,,,,5ebc2fee1a174604b326e8ea,39,Kobieta,2022-06-11_08h15.26.783,task,2021.1.4,Win32,40.0160064,6299f149e92ead563fba08ef,62a440ffb2cdd044abd6ed76,,,,,,,,,,,,,,,,,,,,,,,,,,,,,,,,,,,,,,,,,,,,,,,,,,,,,,,,,,,,,,,,,,,,,,,,,,,,,,,,,,,,,,,,,,,,"[""comma""]",0,[0.5255000000000791],27,0,27,0,1,,
,,,,,,,,,,,,5ebc2fee1a174604b326e8ea,39,Kobieta,2022-06-11_08h15.26.783,task,2021.1.4,Win32,40.0160064,6299f149e92ead563fba08ef,62a440ffb2cdd044abd6ed76,,,,,,,,,,,,,,,,,,,,,,,,,,,,,,,,,,,,,,,,,,,,,,,,,,,,,,,,,,,,,,,,,,,,,,,,,,,,,,,,,,,,,,,,,,,,"[""period""]",0,[0.6502999999997883],28,0,28,0,1,,
,,,,,,,,,,,,5ebc2fee1a174604b326e8ea,39,Kobieta,2022-06-11_08h15.26.783,task,2021.1.4,Win32,40.0160064,6299f149e92ead563fba08ef,62a440ffb2cdd044abd6ed76,,,,,,,,,,,,,,,,,,,,,,,,,,,,,,,,,,,,,,,,,,,,,,,,,,,,,,,,,,,,,,,,,,,,,,,,,,,,,,,,,,,,,,,,,,,,"[""period""]",0,[0.6548999999998841],29,0,29,0,1,,
,,,,,,,,,,,,5ebc2fee1a174604b326e8ea,39,Kobieta,2022-06-11_08h15.26.783,task,2021.1.4,Win32,40.0160064,6299f149e92ead563fba08ef,62a440ffb2cdd044abd6ed76,,,,,,,,,,,,,,,,,,,,,,,,,,,,,,,,,,,,,,,,,,,,,,,,,,,,,,,,,,,,,,,,,,,,,,,,,,,,,,,,,,,,,,,,,,,,"[""period""]",0,[0.5665000000000191],30,0,30,0,1,,
,,,,,,,,,,,,5ebc2fee1a174604b326e8ea,39,Kobieta,2022-06-11_08h15.26.783,task,2021.1.4,Win32,40.0160064,6299f149e92ead563fba08ef,62a440ffb2cdd044abd6ed76,,,,,,,,,,,,,,,,,,,,,,,,,,,,,,,,,,,,,,,,,,,,,,,,,,,,,,,,,,,,,,,,,,,,,,,,,,,,,,,,,,,,,,,,,,,,"[""comma""]",0,[0.6271999999999025],31,0,31,0,1,,
,,,,,,,,,,,,5ebc2fee1a174604b326e8ea,39,Kobieta,2022-06-11_08h15.26.783,task,2021.1.4,Win32,40.0160064,6299f149e92ead563fba08ef,62a440ffb2cdd044abd6ed76,,,,,,,,,,,,,,,,,,,,,,,,,,,,,,,,,,,,,,,,,,,,,,,,,,,,,,,,,,,,,,,,,,,,,,,,,,,,,,,,,,,,,,,,,,,,"[""comma""]",0,[0.577199999999948],32,0,32,0,1,,
,,,,,,,,,,,,5ebc2fee1a174604b326e8ea,39,Kobieta,2022-06-11_08h15.26.783,task,2021.1.4,Win32,40.0160064,6299f149e92ead563fba08ef,62a440ffb2cdd044abd6ed76,,,,,,,,,,,,,,,,,,,,,,,,,,,,,,,,,,,,,,,,,,,,,,,,,,,,,,,,,,,,,,,,,,,,,,,,,,,,,,,,,,,,,,,,,,,,"[""comma""]",0,[0.3145000000000664],33,0,33,0,1,,
,,,,,,,,,,,,5ebc2fee1a174604b326e8ea,39,Kobieta,2022-06-11_08h15.26.783,task,2021.1.4,Win32,40.0160064,6299f149e92ead563fba08ef,62a440ffb2cdd044abd6ed76,,,,,,,,,,,,,,,,,,,,,,,,,,,,,,,,,,,,,,,,,,,,,,,,,,,,,,,,,,,,,,,,,,,,,,,,,,,,,,,,,,,,,,,,,,,,"[""comma""]",0,[0.3020000000000209],34,0,34,0,1,,
,,,,,,,,,,,,5ebc2fee1a174604b326e8ea,39,Kobieta,2022-06-11_08h15.26.783,task,2021.1.4,Win32,40.0160064,6299f149e92ead563fba08ef,62a440ffb2cdd044abd6ed76,,,,,,,,,,,,,,,,,,,,,,,,,,,,,,,,,,,,,,,,,,,,,,,,,,,,,,,,,,,,,,,,,,,,,,,,,,,,,,,,,,,,,,,,,,,,"[""period""]",0,[0.2763000000001057],35,0,35,0,1,,
,,,,,,,,,,,,5ebc2fee1a174604b326e8ea,39,Kobieta,2022-06-11_08h15.26.783,task,2021.1.4,Win32,40.0160064,6299f149e92ead563fba08ef,62a440ffb2cdd044abd6ed76,,,,,,,,,,,,,,,,,,,,,,,,,,,,,,,,,,,,,,,,,,,,,,,,,,,,,,,,,,,,,,,,,,,,,,,,,,,,,,,,,,,,,,,,,,,,"[""period""]",0,[0.34219999999993433],36,0,36,0,1,,
,,,,,,,,,,,,5ebc2fee1a174604b326e8ea,39,Kobieta,2022-06-11_08h15.26.783,task,2021.1.4,Win32,40.0160064,6299f149e92ead563fba08ef,62a440ffb2cdd044abd6ed76,,,,,,,,,,,,,,,,,,,,,,,,,,,,,,,,,,,,,,,,,,,,,,,,,,,,,,,,,,,,,,,,,,,,,,,,,,,,,,,,,,,,,,,,,,,,"[""period""]",0,[0.35750000000007276],37,0,37,0,1,,
,,,,,,,,,,,,5ebc2fee1a174604b326e8ea,39,Kobieta,2022-06-11_08h15.26.783,task,2021.1.4,Win32,40.0160064,6299f149e92ead563fba08ef,62a440ffb2cdd044abd6ed76,,,,,,,,,,,,,,,,,,,,,,,,,,,,,,,,,,,,,,,,,,,,,,,,,,,,,,,,,,,,,,,,,,,,,,,,,,,,,,,,,,,,,,,,,,,,"[""comma""]",0,[0.3269999999999982],38,0,38,0,1,,
,,,,,,,,,,,,5ebc2fee1a174604b326e8ea,39,Kobieta,2022-06-11_08h15.26.783,task,2021.1.4,Win32,40.0160064,6299f149e92ead563fba08ef,62a440ffb2cdd044abd6ed76,,,,,,,,,,,,,,,,,,,,,,,,,,,,,,,,,,,,,,,,,,,,,,,,,,,,,,,,,,,,,,,,,,,,,,,,,,,,,,,,,,,,,,,,,,,,"[""period""]",0,[0.3924000000001797],39,0,39,0,1,,
,,,,,,,,,,,,5ebc2fee1a174604b326e8ea,39,Kobieta,2022-06-11_08h15.26.783,task,2021.1.4,Win32,40.0160064,6299f149e92ead563fba08ef,62a440ffb2cdd044abd6ed76,,,,,,,,,,,,,,,,,,,,,,,,,,,,,,,,,,,,,,,,,,,,,,,,,,,,,,,,,,,,,,,,,,,,,,,,,,,,,,,,,,,,,,,,,,,,"[""comma""]",0,[0.2778000000000702],40,0,40,0,1,,
,,,,,,,,,,,,5ebc2fee1a174604b326e8ea,39,Kobieta,2022-06-11_08h15.26.783,task,2021.1.4,Win32,40.0160064,6299f149e92ead563fba08ef,62a440ffb2cdd044abd6ed76,,,,,,,,,,,,,,,,,,,,,,,,,,,,,,,,,,,,,,,,,,,,,,,,,,,,,,,,,,,,,,,,,,,,,,,,,,,,,,,,,,,,,,,,,,,,"[""period""]",0,[0.2900000000000773],41,0,41,0,1,,
,,,,,,,,,,,,5ebc2fee1a174604b326e8ea,39,Kobieta,2022-06-11_08h15.26.783,task,2021.1.4,Win32,40.0160064,6299f149e92ead563fba08ef,62a440ffb2cdd044abd6ed76,,,,,,,,,,,,,,,,,,,,,,,,,,,,,,,,,,,,,,,,,,,,,,,,,,,,,,,,,,,,,,,,,,,,,,,,,,,,,,,,,,,,,,,,,,,,"[""comma""]",0,[0.33160000000009404],42,0,42,0,1,,
,,,,,,,,,,,,5ebc2fee1a174604b326e8ea,39,Kobieta,2022-06-11_08h15.26.783,task,2021.1.4,Win32,40.0160064,6299f149e92ead563fba08ef,62a440ffb2cdd044abd6ed76,,,,,,,,,,,,,,,,,,,,,,,,,,,,,,,,,,,,,,,,,,,,,,,,,,,,,,,,,,,,,,,,,,,,,,,,,,,,,,,,,,,,,,,,,,,,"[""period""]",0,[0.3815999999998212],43,0,43,0,1,,
,,,,,,,,,,,,5ebc2fee1a174604b326e8ea,39,Kobieta,2022-06-11_08h15.26.783,task,2021.1.4,Win32,40.0160064,6299f149e92ead563fba08ef,62a440ffb2cdd044abd6ed76,,,,,,,,,,,,,,,,,,,,,,,,,,,,,,,,,,,,,,,,,,,,,,,,,,,,,,,,,,,,,,,,,,,,,,,,,,,,,,,,,,,,,,,,,,,,"[""comma"",""period""]",0,"[0.3684000000000651,1.90300000000002]",44,0,44,0,1,,
,,,,,,,,,,,,5ebc2fee1a174604b326e8ea,39,Kobieta,2022-06-11_08h15.26.783,task,2021.1.4,Win32,40.0160064,6299f149e92ead563fba08ef,62a440ffb2cdd044abd6ed76,,,,,,,,,,,,,,,,,,,,,,,,,,,,,,,,,,,,,,,,,,,,,,,,,,,,,,,,,,,,,,,,,,,,,,,,,,,,,,,,,,,,,,,,,,,,,0,,45,0,45,0,1,,
,,,,,,,,,,,,5ebc2fee1a174604b326e8ea,39,Kobieta,2022-06-11_08h15.26.783,task,2021.1.4,Win32,40.0160064,6299f149e92ead563fba08ef,62a440ffb2cdd044abd6ed76,,,,,,,,,,,,,,,,,,,,,,,,,,,,,,,,,,,,,,,,,,,,,,,,,,,,,,,,,,,,,,,,,,,,,,,,,,,,,,,,,,,,,,,,,,,,"[""period""]",0,[0.3836999999998625],46,0,46,0,1,,
,,,,,,,,,,,,5ebc2fee1a174604b326e8ea,39,Kobieta,2022-06-11_08h15.26.783,task,2021.1.4,Win32,40.0160064,6299f149e92ead563fba08ef,62a440ffb2cdd044abd6ed76,,,,,,,,,,,,,,,,,,,,,,,,,,,,,,,,,,,,,,,,,,,,,,,,,,,,,,,,,,,,,,,,,,,,,,,,,,,,,,,,,,,,,,,,,,,,"[""comma""]",0,[0.3531000000000404],47,0,47,0,1,,
,,,,,,,,,,,,5ebc2fee1a174604b326e8ea,39,Kobieta,2022-06-11_08h15.26.783,task,2021.1.4,Win32,40.0160064,6299f149e92ead563fba08ef,62a440ffb2cdd044abd6ed76,,,,,,,,,,,,,,,,,,,,,,,,,,,,,,,,,,,,,,,,,,,,,,,,,,,,,,,,,,,,,,,,,,,,,,,,,,,,,,,,,,,,,,,,,,,,"[""period""]",0,[0.2980000000000018],48,0,48,0,1,,
,,,,,,,,,,,,5ebc2fee1a174604b326e8ea,39,Kobieta,2022-06-11_08h15.26.783,task,2021.1.4,Win32,40.0160064,6299f149e92ead563fba08ef,62a440ffb2cdd044abd6ed76,,,,,,,,,,,,,,,,,,,,,,,,,,,,,,,,,,,,,,,,,,,,,,,,,,,,,,,,,,,,,,,,,,,,,,,,,,,,,,,,,,,,,,,,,,,,"[""comma""]",0,[0.3906000000000631],49,0,49,0,1,,
,,,,,,,,,,,,5ebc2fee1a174604b326e8ea,39,Kobieta,2022-06-11_08h15.26.783,task,2021.1.4,Win32,40.0160064,6299f149e92ead563fba08ef,62a440ffb2cdd044abd6ed76,,,,,,,,,,,,,,,,,,,,,,,,,,,,,,,,,,,,,,,,,,,,,,,,,,,,,,,,,,,,,,,,,,,,,,,,,,,,,,,,,,,,,,,,,,,,"[""period""]",0,[0.45260000000018863],50,0,50,0,1,,
,,,,,,,,,,,,5ebc2fee1a174604b326e8ea,39,Kobieta,2022-06-11_08h15.26.783,task,2021.1.4,Win32,40.0160064,6299f149e92ead563fba08ef,62a440ffb2cdd044abd6ed76,,,,,,,,,,,,,,,,,,,,,,,,,,,,,,,,,,,,,,,,,,,,,,,,,,,,,,,,,,,,,,,,,,,,,,,,,,,,,,,,,,,,,,,,,,,,"[""period""]",0,[0.7267000000001644],51,0,51,0,1,,
,,,,,,,,,,,,5ebc2fee1a174604b326e8ea,39,Kobieta,2022-06-11_08h15.26.783,task,2021.1.4,Win32,40.0160064,6299f149e92ead563fba08ef,62a440ffb2cdd044abd6ed76,,,,,,,,,,,,,,,,,,,,,,,,,,,,,,,,,,,,,,,,,,,,,,,,,,,,,,,,,,,,,,,,,,,,,,,,,,,,,,,,,,,,,,,,,,,,"[""comma""]",0,[0.3087999999997919],52,0,52,0,1,,
,,,,,,,,,,,,5ebc2fee1a174604b326e8ea,39,Kobieta,2022-06-11_08h15.26.783,task,2021.1.4,Win32,40.0160064,6299f149e92ead563fba08ef,62a440ffb2cdd044abd6ed76,,,,,,,,,,,,,,,,,,,,,,,,,,,,,,,,,,,,,,,,,,,,,,,,,,,,,,,,,,,,,,,,,,,,,,,,,,,,,,,,,,,,,,,,,,,,"[""period""]",0,[0.3523000000000138],53,0,53,0,1,,
,,,,,,,,,,,,5ebc2fee1a174604b326e8ea,39,Kobieta,2022-06-11_08h15.26.783,task,2021.1.4,Win32,40.0160064,6299f149e92ead563fba08ef,62a440ffb2cdd044abd6ed76,,,,,,,,,,,,,,,,,,,,,,,,,,,,,,,,,,,,,,,,,,,,,,,,,,,,,,,,,,,,,,,,,,,,,,,,,,,,,,,,,,,,,,,,,,,,"[""comma""]",0,[0.3020000000000209],54,0,54,0,1,,
,,,,,,,,,,,,5ebc2fee1a174604b326e8ea,39,Kobieta,2022-06-11_08h15.26.783,task,2021.1.4,Win32,40.0160064,6299f149e92ead563fba08ef,62a440ffb2cdd044abd6ed76,,,,,,,,,,,,,,,,,,,,,,,,,,,,,,,,,,,,,,,,,,,,,,,,,,,,,,,,,,,,,,,,,,,,,,,,,,,,,,,,,,,,,,,,,,,,"[""comma""]",0,[0.35160000000018954],55,0,55,0,1,,
,,,,,,,,,,,,5ebc2fee1a174604b326e8ea,39,Kobieta,2022-06-11_08h15.26.783,task,2021.1.4,Win32,40.0160064,6299f149e92ead563fba08ef,62a440ffb2cdd044abd6ed76,,,,,,,,,,,,,,,,,,,,,,,,,,,,,,,,,,,,,,,,,,,,,,,,,,,,,,,,,,,,,,,,,,,,,,,,,,,,,,,,,,,,,,,,,,,,"[""comma""]",0,[0.2758000000000038],56,0,56,0,1,,
,,,,,,,,,,,,5ebc2fee1a174604b326e8ea,39,Kobieta,2022-06-11_08h15.26.783,task,2021.1.4,Win32,40.0160064,6299f149e92ead563fba08ef,62a440ffb2cdd044abd6ed76,,,,,,,,,,,,,,,,,,,,,,,,,,,,,,,,,,,,,,,,,,,,,,,,,,,,,,,,,,,,,,,,,,,,,,,,,,,,,,,,,,,,,,,,,,,,"[""comma""]",0,[0.8768999999999778],57,0,57,0,1,,
,,,,,,,,,,,,5ebc2fee1a174604b326e8ea,39,Kobieta,2022-06-11_08h15.26.783,task,2021.1.4,Win32,40.0160064,6299f149e92ead563fba08ef,62a440ffb2cdd044abd6ed76,,,,,,,,,,,,,,,,,,,,,,,,,,,,,,,,,,,,,,,,,,,,,,,,,,,,,,,,,,,,,,,,,,,,,,,,,,,,,,,,,,,,,,,,,,,,"[""comma""]",0,[0.25939999999980046],58,0,58,0,1,,
,,,,,,,,,,,,5ebc2fee1a174604b326e8ea,39,Kobieta,2022-06-11_08h15.26.783,task,2021.1.4,Win32,40.0160064,6299f149e92ead563fba08ef,62a440ffb2cdd044abd6ed76,,,,,,,,,,,,,,,,,,,,,,,,,,,,,,,,,,,,,,,,,,,,,,,,,,,,,,,,,,,,,,,,,,,,,,,,,,,,,,,,,,,,,,,,,,,,"[""comma""]",0,[0.27689999999995507],59,0,59,0,1,,
,,,,,,,,,,,,5ebc2fee1a174604b326e8ea,39,Kobieta,2022-06-11_08h15.26.783,task,2021.1.4,Win32,40.0160064,6299f149e92ead563fba08ef,62a440ffb2cdd044abd6ed76,,,,,,,,,,,,,,,,,,,,,,,,,,,,,,,,,,,,,,,,,,,,,,,,,,,,,,,,,,,,,,,,,,,,,,,,,,,,,,,,,,,,,,,,,,,,"[""period""]",0,[0.2522000000000162],60,0,60,0,1,,
,,,,,,,,,,,,5ebc2fee1a174604b326e8ea,39,Kobieta,2022-06-11_08h15.26.783,task,2021.1.4,Win32,40.0160064,6299f149e92ead563fba08ef,62a440ffb2cdd044abd6ed76,,,,,,,,,,,,,,,,,,,,,,,,,,,,,,,,,,,,,,,,,,,,,,,,,,,,,,,,,,,,,,,,,,,,,,,,,,,,,,,,,,,,,,,,,,,,"[""period""]",0,[0.28139999999984866],61,0,61,0,1,,
,,,,,,,,,,,,5ebc2fee1a174604b326e8ea,39,Kobieta,2022-06-11_08h15.26.783,task,2021.1.4,Win32,40.0160064,6299f149e92ead563fba08ef,62a440ffb2cdd044abd6ed76,,,,,,,,,,,,,,,,,,,,,,,,,,,,,,,,,,,,,,,,,,,,,,,,,,,,,,,,,,,,,,,,,,,,,,,,,,,,,,,,,,,,,,,,,,,,"[""period""]",0,[0.2618000000001075],62,0,62,0,1,,
,,,,,,,,,,,,5ebc2fee1a174604b326e8ea,39,Kobieta,2022-06-11_08h15.26.783,task,2021.1.4,Win32,40.0160064,6299f149e92ead563fba08ef,62a440ffb2cdd044abd6ed76,,,,,,,,,,,,,,,,,,,,,,,,,,,,,,,,,,,,,,,,,,,,,,,,,,,,,,,,,,,,,,,,,,,,,,,,,,,,,,,,,,,,,,,,,,,,"[""period""]",0,[0.2336999999999989],63,0,63,0,1,,
,,,,,,,,,,,,5ebc2fee1a174604b326e8ea,39,Kobieta,2022-06-11_08h15.26.783,task,2021.1.4,Win32,40.0160064,6299f149e92ead563fba08ef,62a440ffb2cdd044abd6ed76,,,,,,,,,,,,,,,,,,,,,,,,,,,,,,,,,,,,,,,,,,,,,,,,,,,,,,,,,,,,,,,,,,,,,,,,,,,,,,,,,,,,,,,,,,,,"[""comma""]",0,[0.25759999999991123],64,0,64,0,1,,
,,,,,,,,,,,,5ebc2fee1a174604b326e8ea,39,Kobieta,2022-06-11_08h15.26.783,task,2021.1.4,Win32,40.0160064,6299f149e92ead563fba08ef,62a440ffb2cdd044abd6ed76,,,,,,,,,,,,,,,,,,,,,,,,,,,,,,,,,,,,,,,,,,,,,,,,,,,,,,,,,,,,,,,,,,,,,,,,,,,,,,,,,,,,,,,,,,,,"[""comma""]",0,[0.2740000000000009],65,0,65,0,1,,
,,,,,,,,,,,,5ebc2fee1a174604b326e8ea,39,Kobieta,2022-06-11_08h15.26.783,task,2021.1.4,Win32,40.0160064,6299f149e92ead563fba08ef,62a440ffb2cdd044abd6ed76,,,,,,,,,,,,,,,,,,,,,,,,,,,,,,,,,,,,,,,,,,,,,,,,,,,,,,,,,,,,,,,,,,,,,,,,,,,,,,,,,,,,,,,,,,,,"[""comma""]",0,[0.24500000000000455],66,0,66,0,1,,
,,,,,,,,,,,,5ebc2fee1a174604b326e8ea,39,Kobieta,2022-06-11_08h15.26.783,task,2021.1.4,Win32,40.0160064,6299f149e92ead563fba08ef,62a440ffb2cdd044abd6ed76,,,,,,,,,,,,,,,,,,,,,,,,,,,,,,,,,,,,,,,,,,,,,,,,,,,,,,,,,,,,,,,,,,,,,,,,,,,,,,,,,,,,,,,,,,,,"[""comma""]",0,[0.2601000000000795],67,0,67,0,1,,
,,,,,,,,,,,,5ebc2fee1a174604b326e8ea,39,Kobieta,2022-06-11_08h15.26.783,task,2021.1.4,Win32,40.0160064,6299f149e92ead563fba08ef,62a440ffb2cdd044abd6ed76,,,,,,,,,,,,,,,,,,,,,,,,,,,,,,,,,,,,,,,,,,,,,,,,,,,,,,,,,,,,,,,,,,,,,,,,,,,,,,,,,,,,,,,,,,,,"[""comma""]",0,[0.22539999999992233],68,0,68,0,1,,
,,,,,,,,,,,,5ebc2fee1a174604b326e8ea,39,Kobieta,2022-06-11_08h15.26.783,task,2021.1.4,Win32,40.0160064,6299f149e92ead563fba08ef,62a440ffb2cdd044abd6ed76,,,,,,,,,,,,,,,,,,,,,,,,,,,,,,,,,,,,,,,,,,,,,,,,,,,,,,,,,,,,,,,,,,,,,,,,,,,,,,,,,,,,,,,,,,,,"[""period""]",0,[0.2816000000001395],69,0,69,0,1,,
,,,,,,,,,,,,5ebc2fee1a174604b326e8ea,39,Kobieta,2022-06-11_08h15.26.783,task,2021.1.4,Win32,40.0160064,6299f149e92ead563fba08ef,62a440ffb2cdd044abd6ed76,,,,,,,,,,,,,,,,,,,,,,,,,,,,,,,,,,,,,,,,,,,,,,,,,,,,,,,,,,,,,,,,,,,,,,,,,,,,,,,,,,,,,,,,,,,,"[""period""]",0,[0.2881999999999607],70,0,70,0,1,,
,,,,,,,,,,,,5ebc2fee1a174604b326e8ea,39,Kobieta,2022-06-11_08h15.26.783,task,2021.1.4,Win32,40.0160064,6299f149e92ead563fba08ef,62a440ffb2cdd044abd6ed76,,,,,,,,,,,,,,,,,,,,,,,,,,,,,,,,,,,,,,,,,,,,,,,,,,,,,,,,,,,,,,,,,,,,,,,,,,,,,,,,,,,,,,,,,,,,"[""period""]",0,[0.27589999999986503],71,0,71,0,1,,
,,,,,,,,,,,,5ebc2fee1a174604b326e8ea,39,Kobieta,2022-06-11_08h15.26.783,task,2021.1.4,Win32,40.0160064,6299f149e92ead563fba08ef,62a440ffb2cdd044abd6ed76,,,,,,,,,,,,,,,,,,,,,,,,,,,,,,,,,,,,,,,,,,,,,,,,,,,,,,,,,,,,,,,,,,,,,,,,,,,,,,,,,,,,,,,,,,,,"[""period""]",0,[0.3092999999997801],72,0,72,0,1,,
,,,,,,,,,,,,5ebc2fee1a174604b326e8ea,39,Kobieta,2022-06-11_08h15.26.783,task,2021.1.4,Win32,40.0160064,6299f149e92ead563fba08ef,62a440ffb2cdd044abd6ed76,,,,,,,,,,,,,,,,,,,,,,,,,,,,,,,,,,,,,,,,,,,,,,,,,,,,,,,,,,,,,,,,,,,,,,,,,,,,,,,,,,,,,,,,,,,,"[""comma""]",0,[0.3388000000001057],73,0,73,0,1,,
,,,,,,,,,,,,5ebc2fee1a174604b326e8ea,39,Kobieta,2022-06-11_08h15.26.783,task,2021.1.4,Win32,40.0160064,6299f149e92ead563fba08ef,62a440ffb2cdd044abd6ed76,,,,,,,,,,,,,,,,,,,,,,,,,,,,,,,,,,,,,,,,,,,,,,,,,,,,,,,,,,,,,,,,,,,,,,,,,,,,,,,,,,,,,,,,,,,,"[""period""]",0,[0.2598999999999023],74,0,74,0,1,,
,,,,,,,,,,,,5ebc2fee1a174604b326e8ea,39,Kobieta,2022-06-11_08h15.26.783,task,2021.1.4,Win32,40.0160064,6299f149e92ead563fba08ef,62a440ffb2cdd044abd6ed76,,,,,,,,,,,,,,,,,,,,,,,,,,,,,,,,,,,,,,,,,,,,,,,,,,,,,,,,,,,,,,,,,,,,,,,,,,,,,,,,,,,,,,,,,,,,"[""comma""]",0,[0.278400000000147],75,0,75,0,1,,
,,,,,,,,,,,,5ebc2fee1a174604b326e8ea,39,Kobieta,2022-06-11_08h15.26.783,task,2021.1.4,Win32,40.0160064,6299f149e92ead563fba08ef,62a440ffb2cdd044abd6ed76,,,,,,,,,,,,,,,,,,,,,,,,,,,,,,,,,,,,,,,,,,,,,,,,,,,,,,,,,,,,,,,,,,,,,,,,,,,,,,,,,,,,,,,,,,,,"[""period""]",0,[0.23260000000004766],76,0,76,0,1,,
,,,,,,,,,,,,5ebc2fee1a174604b326e8ea,39,Kobieta,2022-06-11_08h15.26.783,task,2021.1.4,Win32,40.0160064,6299f149e92ead563fba08ef,62a440ffb2cdd044abd6ed76,,,,,,,,,,,,,,,,,,,,,,,,,,,,,,,,,,,,,,,,,,,,,,,,,,,,,,,,,,,,,,,,,,,,,,,,,,,,,,,,,,,,,,,,,,,,"[""comma""]",0,[0.25319999999987886],77,0,77,0,1,,
,,,,,,,,,,,,5ebc2fee1a174604b326e8ea,39,Kobieta,2022-06-11_08h15.26.783,task,2021.1.4,Win32,40.0160064,6299f149e92ead563fba08ef,62a440ffb2cdd044abd6ed76,,,,,,,,,,,,,,,,,,,,,,,,,,,,,,,,,,,,,,,,,,,,,,,,,,,,,,,,,,,,,,,,,,,,,,,,,,,,,,,,,,,,,,,,,,,,"[""period""]",0,[0.5370999999997821],78,0,78,0,1,,
,,,,,,,,,,,,5ebc2fee1a174604b326e8ea,39,Kobieta,2022-06-11_08h15.26.783,task,2021.1.4,Win32,40.0160064,6299f149e92ead563fba08ef,62a440ffb2cdd044abd6ed76,,,,,,,,,,,,,,,,,,,,,,,,,,,,,,,,,,,,,,,,,,,,,,,,,,,,,,,,,,,,,,,,,,,,,,,,,,,,,,,,,,,,,,,,,,,,"[""comma""]",0,[0.7369999999999663],79,0,79,0,1,,
,,,,,,,,,,,,5ebc2fee1a174604b326e8ea,39,Kobieta,2022-06-11_08h15.26.783,task,2021.1.4,Win32,40.0160064,6299f149e92ead563fba08ef,62a440ffb2cdd044abd6ed76,,,,,,,,,,,,,,,,,,,,,,,,,,,,,,,,,,,,,,,,,,,,,,,,,,,,,,,,,,,,,,,,,,,,,,,,,,,,,,,,,,,,,,,,,,,,"[""comma""]",0,[0.6118999999998778],80,0,80,0,1,,
,,,,,,,,,,,,5ebc2fee1a174604b326e8ea,39,Kobieta,2022-06-11_08h15.26.783,task,2021.1.4,Win32,40.0160064,6299f149e92ead563fba08ef,62a440ffb2cdd044abd6ed76,,,,,,,,,,,,,,,,,,,,,,,,,,,,,,,,,,,,,,,,,,,,,,,,,,,,,,,,,,,,,,,,,,,,,,,,,,,,,,,,,,,,,,,,,,,,"[""comma""]",0,[0.32730000000003656],81,0,81,0,1,,
,,,,,,,,,,,,5ebc2fee1a174604b326e8ea,39,Kobieta,2022-06-11_08h15.26.783,task,2021.1.4,Win32,40.0160064,6299f149e92ead563fba08ef,62a440ffb2cdd044abd6ed76,,,,,,,,,,,,,,,,,,,,,,,,,,,,,,,,,,,,,,,,,,,,,,,,,,,,,,,,,,,,,,,,,,,,,,,,,,,,,,,,,,,,,,,,,,,,"[""period""]",0,[0.3771000000000413],82,0,82,0,1,,
,,,,,,,,,,,,5ebc2fee1a174604b326e8ea,39,Kobieta,2022-06-11_08h15.26.783,task,2021.1.4,Win32,40.0160064,6299f149e92ead563fba08ef,62a440ffb2cdd044abd6ed76,,,,,,,,,,,,,,,,,,,,,,,,,,,,,,,,,,,,,,,,,,,,,,,,,,,,,,,,,,,,,,,,,,,,,,,,,,,,,,,,,,,,,,,,,,,,"[""period""]",0,[0.2766000000000304],83,0,83,0,1,,
,,,,,,,,,,,,5ebc2fee1a174604b326e8ea,39,Kobieta,2022-06-11_08h15.26.783,task,2021.1.4,Win32,40.0160064,6299f149e92ead563fba08ef,62a440ffb2cdd044abd6ed76,,,,,,,,,,,,,,,,,,,,,,,,,,,,,,,,,,,,,,,,,,,,,,,,,,,,,,,,,,,,,,,,,,,,,,,,,,,,,,,,,,,,,,,,,,,,"[""comma""]",0,[0.2524999999999409],84,0,84,0,1,,
,,,,,,,,,,,,5ebc2fee1a174604b326e8ea,39,Kobieta,2022-06-11_08h15.26.783,task,2021.1.4,Win32,40.0160064,6299f149e92ead563fba08ef,62a440ffb2cdd044abd6ed76,,,,,,,,,,,,,,,,,,,,,,,,,,,,,,,,,,,,,,,,,,,,,,,,,,,,,,,,,,,,,,,,,,,,,,,,,,,,,,,,,,,,,,,,,,,,"[""comma""]",0,[0.2518999999999778],85,0,85,0,1,,
,,,,,,,,,,,,5ebc2fee1a174604b326e8ea,39,Kobieta,2022-06-11_08h15.26.783,task,2021.1.4,Win32,40.0160064,6299f149e92ead563fba08ef,62a440ffb2cdd044abd6ed76,,,,,,,,,,,,,,,,,,,,,,,,,,,,,,,,,,,,,,,,,,,,,,,,,,,,,,,,,,,,,,,,,,,,,,,,,,,,,,,,,,,,,,,,,,,,"[""comma""]",0,[0.23230000000000928],86,0,86,0,1,,
,,,,,,,,,,,,5ebc2fee1a174604b326e8ea,39,Kobieta,2022-06-11_08h15.26.783,task,2021.1.4,Win32,40.0160064,6299f149e92ead563fba08ef,62a440ffb2cdd044abd6ed76,,,,,,,,,,,,,,,,,,,,,,,,,,,,,,,,,,,,,,,,,,,,,,,,,,,,,,,,,,,,,,,,,,,,,,,,,,,,,,,,,,,,,,,,,,,,"[""comma""]",0,[0.2078000000000202],87,0,87,0,1,,
,,,,,,,,,,,,5ebc2fee1a174604b326e8ea,39,Kobieta,2022-06-11_08h15.26.783,task,2021.1.4,Win32,40.0160064,6299f149e92ead563fba08ef,62a440ffb2cdd044abd6ed76,,,,,,,,,,,,,,,,,,,,,,,,,,,,,,,,,,,,,,,,,,,,,,,,,,,,,,,,,,,,,,,,,,,,,,,,,,,,,,,,,,,,,,,,,,,,"[""comma""]",0,[0.27939999999989595],88,0,88,0,1,,
,,,,,,,,,,,,5ebc2fee1a174604b326e8ea,39,Kobieta,2022-06-11_08h15.26.783,task,2021.1.4,Win32,40.0160064,6299f149e92ead563fba08ef,62a440ffb2cdd044abd6ed76,,,,,,,,,,,,,,,,,,,,,,,,,,,,,,,,,,,,,,,,,,,,,,,,,,,,,,,,,,,,,,,,,,,,,,,,,,,,,,,,,,,,,,,,,,,,"[""period""]",0,[0.24860000000012406],89,0,89,0,1,,
,,,,,,,,,,,,5ebc2fee1a174604b326e8ea,39,Kobieta,2022-06-11_08h15.26.783,task,2021.1.4,Win32,40.0160064,6299f149e92ead563fba08ef,62a440ffb2cdd044abd6ed76,,,,,,,,,,,,,,,,,,,,,,,,,,,,,,,,,,,,,,,,,,,,,,,,,,,,,,,,,,,,,,,,,,,,,,,,,,,,,,,,,,,,,,,,,,,,"[""period""]",0,[0.2556000000001859],90,0,90,0,1,,
,,,,,,,,,,,,5ebc2fee1a174604b326e8ea,39,Kobieta,2022-06-11_08h15.26.783,task,2021.1.4,Win32,40.0160064,6299f149e92ead563fba08ef,62a440ffb2cdd044abd6ed76,,,,,,,,,,,,,,,,,,,,,,,,,,,,,,,,,,,,,,,,,,,,,,,,,,,,,,,,,,,,,,,,,,,,,,,,,,,,,,,,,,,,,,,,,,,,"[""period""]",0,[0.2616000000001577],91,0,91,0,1,,
,,,,,,,,,,,,5ebc2fee1a174604b326e8ea,39,Kobieta,2022-06-11_08h15.26.783,task,2021.1.4,Win32,40.0160064,6299f149e92ead563fba08ef,62a440ffb2cdd044abd6ed76,,,,,,,,,,,,,,,,,,,,,,,,,,,,,,,,,,,,,,,,,,,,,,,,,,,,,,,,,,,,,,,,,,,,,,,,,,,,,,,,,,,,,,,,,,,,"[""period""]",0,[0.33299999999997],92,0,92,0,1,,
,,,,,,,,,,,,5ebc2fee1a174604b326e8ea,39,Kobieta,2022-06-11_08h15.26.783,task,2021.1.4,Win32,40.0160064,6299f149e92ead563fba08ef,62a440ffb2cdd044abd6ed76,,,,,,,,,,,,,,,,,,,,,,,,,,,,,,,,,,,,,,,,,,,,,,,,,,,,,,,,,,,,,,,,,,,,,,,,,,,,,,,,,,,,,,,,,,,,"[""comma"",""comma""]",0,"[0.3020000000000209,1.9518999999999096]",93,0,93,0,1,,
,,,,,,,,,,,,5ebc2fee1a174604b326e8ea,39,Kobieta,2022-06-11_08h15.26.783,task,2021.1.4,Win32,40.0160064,6299f149e92ead563fba08ef,62a440ffb2cdd044abd6ed76,,,,,,,,,,,,,,,,,,,,,,,,,,,,,,,,,,,,,,,,,,,,,,,,,,,,,,,,,,,,,,,,,,,,,,,,,,,,,,,,,,,,,,,,,,,,,0,,94,0,94,0,1,,
,,,,,,,,,,,,5ebc2fee1a174604b326e8ea,39,Kobieta,2022-06-11_08h15.26.783,task,2021.1.4,Win32,40.0160064,6299f149e92ead563fba08ef,62a440ffb2cdd044abd6ed76,,,,,,,,,,,,,,,,,,,,,,,,,,,,,,,,,,,,,,,,,,,,,,,,,,,,,,,,,,,,,,,,,,,,,,,,,,,,,,,,,,,,,,,,,,,,"[""period""]",0,[0.26099999999996726],95,0,95,0,1,,
,,,,,,,,,,,,5ebc2fee1a174604b326e8ea,39,Kobieta,2022-06-11_08h15.26.783,task,2021.1.4,Win32,40.0160064,6299f149e92ead563fba08ef,62a440ffb2cdd044abd6ed76,,,,,,,,,,,,,,,,,,,,,,,,,,,,,,,,,,,,,,,,,,,,,,,,,,,,,,,,,,,,,,,,,,,,,,,,,,,,,,,,,,,,,,,,,,,,"[""period""]",0,[0.37819999999999254],96,0,96,0,1,,
,,,,,,,,,,,,5ebc2fee1a174604b326e8ea,39,Kobieta,2022-06-11_08h15.26.783,task,2021.1.4,Win32,40.0160064,6299f149e92ead563fba08ef,62a440ffb2cdd044abd6ed76,,,,,,,,,,,,,,,,,,,,,,,,,,,,,,,,,,,,,,,,,,,,,,,,,,,,,,,,,,,,,,,,,,,,,,,,,,,,,,,,,,,,,,,,,,,,"[""period""]",0,[0.32960000000014134],97,0,97,0,1,,
,,,,,,,,,,,,5ebc2fee1a174604b326e8ea,39,Kobieta,2022-06-11_08h15.26.783,task,2021.1.4,Win32,40.0160064,6299f149e92ead563fba08ef,62a440ffb2cdd044abd6ed76,,,,,,,,,,,,,,,,,,,,,,,,,,,,,,,,,,,,,,,,,,,,,,,,,,,,,,,,,,,,,,,,,,,,,,,,,,,,,,,,,,,,,,,,,,,,"[""period""]",0,[0.33299999999997],98,0,98,0,1,,
,,,,,,,,,,,,5ebc2fee1a174604b326e8ea,39,Kobieta,2022-06-11_08h15.26.783,task,2021.1.4,Win32,40.0160064,6299f149e92ead563fba08ef,62a440ffb2cdd044abd6ed76,,,,,,,,,,,,,,,,,,,,,,,,,,,,,,,,,,,,,,,,,,,,,,,,,,,,,,,,,,,,,,,,,,,,,,,,,,,,,,,,,,,,,,,,,,,,"[""comma""]",0,[0.2803999999998723],99,0,99,0,1,,
,,,,,,,,,,,,5ebc2fee1a174604b326e8ea,39,Kobieta,2022-06-11_08h15.26.783,task,2021.1.4,Win32,40.0160064,6299f149e92ead563fba08ef,62a440ffb2cdd044abd6ed76,,,,,,,,,,,,,,,,,,,,,,,,,,,,,,,,,,,,,,,,,,,,,,,,,,,,,,,,,,,,,,,,,,,,,,,,,,,,,,,,,,,,,,,,,,,,"[""comma""]",0,[0.27670000000023265],100,0,100,0,1,,
,,,,,,,,,,,,5ebc2fee1a174604b326e8ea,39,Kobieta,2022-06-11_08h15.26.783,task,2021.1.4,Win32,40.0160064,6299f149e92ead563fba08ef,62a440ffb2cdd044abd6ed76,,,,,,,,,,,,,,,,,,,,,,,,,,,,,,,,,,,,,,,,,,,,,,,,,,,,,,,,,,,,,,,,,,,,,,,,,,,,,,,,,,,,,,,,,,,,"[""comma""]",0,[0.27719999999999345],101,0,101,0,1,,
,,,,,,,,,,,,5ebc2fee1a174604b326e8ea,39,Kobieta,2022-06-11_08h15.26.783,task,2021.1.4,Win32,40.0160064,6299f149e92ead563fba08ef,62a440ffb2cdd044abd6ed76,,,,,,,,,,,,,,,,,,,,,,,,,,,,,,,,,,,,,,,,,,,,,,,,,,,,,,,,,,,,,,,,,,,,,,,,,,,,,,,,,,,,,,,,,,,,"[""comma""]",0,[0.30169999999998254],102,0,102,0,1,,
,,,,,,,,,,,,5ebc2fee1a174604b326e8ea,39,Kobieta,2022-06-11_08h15.26.783,task,2021.1.4,Win32,40.0160064,6299f149e92ead563fba08ef,62a440ffb2cdd044abd6ed76,,,,,,,,,,,,,,,,,,,,,,,,,,,,,,,,,,,,,,,,,,,,,,,,,,,,,,,,,,,,,,,,,,,,,,,,,,,,,,,,,,,,,,,,,,,,"[""period""]",0,[0.40370000000018536],103,0,103,0,1,,
,,,,,,,,,,,,5ebc2fee1a174604b326e8ea,39,Kobieta,2022-06-11_08h15.26.783,task,2021.1.4,Win32,40.0160064,6299f149e92ead563fba08ef,62a440ffb2cdd044abd6ed76,,,,,,,,,,,,,,,,,,,,,,,,,,,,,,,,,,,,,,,,,,,,,,,,,,,,,,,,,,,,,,,,,,,,,,,,,,,,,,,,,,,,,,,,,,,,"[""comma""]",0,[0.44299999999998363],104,0,104,0,1,,
,,,,,,,,,,,,5ebc2fee1a174604b326e8ea,39,Kobieta,2022-06-11_08h15.26.783,task,2021.1.4,Win32,40.0160064,6299f149e92ead563fba08ef,62a440ffb2cdd044abd6ed76,,,,,,,,,,,,,,,,,,,,,,,,,,,,,,,,,,,,,,,,,,,,,,,,,,,,,,,,,,,,,,,,,,,,,,,,,,,,,,,,,,,,,,,,,,,,"[""period""]",0,[0.2778000000000702],105,0,105,0,1,,
,,,,,,,,,,,,5ebc2fee1a174604b326e8ea,39,Kobieta,2022-06-11_08h15.26.783,task,2021.1.4,Win32,40.0160064,6299f149e92ead563fba08ef,62a440ffb2cdd044abd6ed76,,,,,,,,,,,,,,,,,,,,,,,,,,,,,,,,,,,,,,,,,,,,,,,,,,,,,,,,,,,,,,,,,,,,,,,,,,,,,,,,,,,,,,,,,,,,"[""comma""]",0,[0.26860000000010587],106,0,106,0,1,,
,,,,,,,,,,,,5ebc2fee1a174604b326e8ea,39,Kobieta,2022-06-11_08h15.26.783,task,2021.1.4,Win32,40.0160064,6299f149e92ead563fba08ef,62a440ffb2cdd044abd6ed76,,,,,,,,,,,,,,,,,,,,,,,,,,,,,,,,,,,,,,,,,,,,,,,,,,,,,,,,,,,,,,,,,,,,,,,,,,,,,,,,,,,,,,,,,,,,"[""comma""]",0,[0.8774000000000797],107,0,107,0,1,,
,,,,,,,,,,,,5ebc2fee1a174604b326e8ea,39,Kobieta,2022-06-11_08h15.26.783,task,2021.1.4,Win32,40.0160064,6299f149e92ead563fba08ef,62a440ffb2cdd044abd6ed76,,,,,,,,,,,,,,,,,,,,,,,,,,,,,,,,,,,,,,,,,,,,,,,,,,,,,,,,,,,,,,,,,,,,,,,,,,,,,,,,,,,,,,,,,,,,"[""comma""]",0,[0.28500000000008185],108,0,108,0,1,,
,,,,,,,,,,,,5ebc2fee1a174604b326e8ea,39,Kobieta,2022-06-11_08h15.26.783,task,2021.1.4,Win32,40.0160064,6299f149e92ead563fba08ef,62a440ffb2cdd044abd6ed76,,,,,,,,,,,,,,,,,,,,,,,,,,,,,,,,,,,,,,,,,,,,,,,,,,,,,,,,,,,,,,,,,,,,,,,,,,,,,,,,,,,,,,,,,,,,"[""comma""]",0,[0.276599999999803],109,0,109,0,1,,
,,,,,,,,,,,,5ebc2fee1a174604b326e8ea,39,Kobieta,2022-06-11_08h15.26.783,task,2021.1.4,Win32,40.0160064,6299f149e92ead563fba08ef,62a440ffb2cdd044abd6ed76,,,,,,,,,,,,,,,,,,,,,,,,,,,,,,,,,,,,,,,,,,,,,,,,,,,,,,,,,,,,,,,,,,,,,,,,,,,,,,,,,,,,,,,,,,,,"[""comma""]",0,[0.27319999999986067],110,0,110,0,1,,
,,,,,,,,,,,,5ebc2fee1a174604b326e8ea,39,Kobieta,2022-06-11_08h15.26.783,task,2021.1.4,Win32,40.0160064,6299f149e92ead563fba08ef,62a440ffb2cdd044abd6ed76,,,,,,,,,,,,,,,,,,,,,,,,,,,,,,,,,,,,,,,,,,,,,,,,,,,,,,,,,,,,,,,,,,,,,,,,,,,,,,,,,,,,,,,,,,,,"[""comma""]",0,[0.15219999999987976],111,0,111,0,1,,
,,,,,,,,,,,,5ebc2fee1a174604b326e8ea,39,Kobieta,2022-06-11_08h15.26.783,task,2021.1.4,Win32,40.0160064,6299f149e92ead563fba08ef,62a440ffb2cdd044abd6ed76,,,,,,,,,,,,,,,,,,,,,,,,,,,,,,,,,,,,,,,,,,,,,,,,,,,,,,,,,,,,,,,,,,,,,,,,,,,,,,,,,,,,,,,,,,,,"[""comma""]",0,[0.013599999999769352],112,0,112,0,1,,
,,,,,,,,,,,,5ebc2fee1a174604b326e8ea,39,Kobieta,2022-06-11_08h15.26.783,task,2021.1.4,Win32,40.0160064,6299f149e92ead563fba08ef,62a440ffb2cdd044abd6ed76,,,,,,,,,,,,,,,,,,,,,,,,,,,,,,,,,,,,,,,,,,,,,,,,,,,,,,,,,,,,,,,,,,,,,,,,,,,,,,,,,,,,,,,,,,,,"[""period""]",0,[0.3273999999998978],113,0,113,0,1,,
,,,,,,,,,,,,5ebc2fee1a174604b326e8ea,39,Kobieta,2022-06-11_08h15.26.783,task,2021.1.4,Win32,40.0160064,6299f149e92ead563fba08ef,62a440ffb2cdd044abd6ed76,,,,,,,,,,,,,,,,,,,,,,,,,,,,,,,,,,,,,,,,,,,,,,,,,,,,,,,,,,,,,,,,,,,,,,,,,,,,,,,,,,,,,,,,,,,,"[""period""]",0,[0.3113999999998214],114,0,114,0,1,,
,,,,,,,,,,,,5ebc2fee1a174604b326e8ea,39,Kobieta,2022-06-11_08h15.26.783,task,2021.1.4,Win32,40.0160064,6299f149e92ead563fba08ef,62a440ffb2cdd044abd6ed76,,,,,,,,,,,,,,,,,,,,,,,,,,,,,,,,,,,,,,,,,,,,,,,,,,,,,,,,,,,,,,,,,,,,,,,,,,,,,,,,,,,,,,,,,,,,"[""period""]",0,[0.27529999999978827],115,0,115,0,1,,
,,,,,,,,,,,,5ebc2fee1a174604b326e8ea,39,Kobieta,2022-06-11_08h15.26.783,task,2021.1.4,Win32,40.0160064,6299f149e92ead563fba08ef,62a440ffb2cdd044abd6ed76,,,,,,,,,,,,,,,,,,,,,,,,,,,,,,,,,,,,,,,,,,,,,,,,,,,,,,,,,,,,,,,,,,,,,,,,,,,,,,,,,,,,,,,,,,,,"[""period""]",0,[0.2594000000001415],116,0,116,0,1,,
