key_resp_15.keys,key_resp_15.rt,key_resp_16.keys,key_resp_16.rt,key_resp_4.keys,key_resp_4.rt,next_letter.thisRepN,next_letter.thisTrialN,next_letter.thisN,next_letter.thisIndex,next_letter.ran,letter,participant,Wiek*,Płeć,date,expName,psychopyVersion,OS,frameRate,study_id,session,simple_recall,key_resp_5.keys,key_resp_5.rt,simple_recall_corr,simple_recall_corrkeys,next_level.thisRepN,next_level.thisTrialN,next_level.thisN,next_level.thisIndex,next_level.ran,key_resp_2.keys,key_resp_2.rt,digit_answer,key_resp.keys,key_resp.corr,key_resp.rt,RT_list,next_equation.thisRepN,next_equation.thisTrialN,next_equation.thisN,next_equation.thisIndex,next_equation.ran,Task,Trial,Problem,Operation_answer,processing_score,sumRT,meanRT,sumdiff,sd,RT,key_resp_3.keys,key_resp_3.rt,repeat_practice.thisRepN,repeat_practice.thisTrialN,repeat_practice.thisN,repeat_practice.thisIndex,repeat_practice.ran,key_resp_6.keys,key_resp_6.rt,key_resp_11.keys,key_resp_11.corr,key_resp_11.rt,operation_correct,repeat_if_wrong_prac.thisRepN,repeat_if_wrong_prac.thisTrialN,repeat_if_wrong_prac.thisN,repeat_if_wrong_prac.thisIndex,repeat_if_wrong_prac.ran,span_size_prac.thisRepN,span_size_prac.thisTrialN,span_size_prac.thisN,span_size_prac.thisIndex,span_size_prac.ran,complex_recall_practice,key_resp_9.keys,key_resp_9.corr,key_resp_9.rt,complex_prac_corr,span_recall_prac.thisRepN,span_recall_prac.thisTrialN,span_recall_prac.thisN,span_recall_prac.thisIndex,span_recall_prac.ran,key_resp_10.keys,key_resp_10.rt,key_resp_7.keys,key_resp_7.corr,key_resp_7.rt,repeat_if_wrong.thisRepN,repeat_if_wrong.thisTrialN,repeat_if_wrong.thisN,repeat_if_wrong.thisIndex,repeat_if_wrong.ran,span_size.thisRepN,span_size.thisTrialN,span_size.thisN,span_size.thisIndex,span_size.ran,complex_recall,key_resp_8.keys,key_resp_8.corr,key_resp_8.rt,complex_recall_corr,complex_recall_corrkeys,span_recall.thisRepN,span_recall.thisTrialN,span_recall.thisN,span_recall.thisIndex,span_recall.ran,key_resp_13.keys,key_resp_13.corr,key_resp_13.rt,random_loop.thisRepN,random_loop.thisTrialN,random_loop.thisN,random_loop.thisIndex,random_loop.ran,key_resp_12.keys,key_resp_12.rt
space,8.7109,space,53.3214,space,6.1725,0,0,0,0,1,X V Q F H G B L J M P D K C T S W R N Z,5ebee9008ccaaa2ac3e1d210,21,Mężczyzna,2022-06-11_09h42.19.901,task,2021.1.4,Win32,74.93443237,6299f149e92ead563fba08ef,62a44672d2dd1bef33832b0b,,,,,,,,,,,,,,,,,,,,,,,,,,,,,,,,,,,,,,,,,,,,,,,,,,,,,,,,,,,,,,,,,,,,,,,,,,,,,,,,,,,,,,,,,,,,,,,,,,,,,
,,,,,,1,0,1,0,1,X V Q F H G B L J M P D K C T S W R N Z,5ebee9008ccaaa2ac3e1d210,21,Mężczyzna,2022-06-11_09h42.19.901,task,2021.1.4,Win32,74.93443237,6299f149e92ead563fba08ef,62a44672d2dd1bef33832b0b,,,,,,,,,,,,,,,,,,,,,,,,,,,,,,,,,,,,,,,,,,,,,,,,,,,,,,,,,,,,,,,,,,,,,,,,,,,,,,,,,,,,,,,,,,,,,,,,,,,,,
,,,,,,,,,,,,5ebee9008ccaaa2ac3e1d210,21,Mężczyzna,2022-06-11_09h42.19.901,task,2021.1.4,Win32,74.93443237,6299f149e92ead563fba08ef,62a44672d2dd1bef33832b0b,zc,"[""z"",""c""]","[1.4512999999523117,1.5842999999523073,2.5188999999761563]",1,ZC,0,0,0,0,1,,,,,,,,,,,,,,,,,,,,,,,,,,,,,,,,,,,,,,,,,,,,,,,,,,,,,,,,,,,,,,,,,,,,,,,,,,,,,,,,,,,,,,,,,,,
,,,,,,0,0,0,0,1,X V Q F H G B L J M P D K C T S W R N Z,5ebee9008ccaaa2ac3e1d210,21,Mężczyzna,2022-06-11_09h42.19.901,task,2021.1.4,Win32,74.93443237,6299f149e92ead563fba08ef,62a44672d2dd1bef33832b0b,,,,,,,,,,,,,,,,,,,,,,,,,,,,,,,,,,,,,,,,,,,,,,,,,,,,,,,,,,,,,,,,,,,,,,,,,,,,,,,,,,,,,,,,,,,,,,,,,,,,,
,,,,,,1,0,1,0,1,X V Q F H G B L J M P D K C T S W R N Z,5ebee9008ccaaa2ac3e1d210,21,Mężczyzna,2022-06-11_09h42.19.901,task,2021.1.4,Win32,74.93443237,6299f149e92ead563fba08ef,62a44672d2dd1bef33832b0b,,,,,,,,,,,,,,,,,,,,,,,,,,,,,,,,,,,,,,,,,,,,,,,,,,,,,,,,,,,,,,,,,,,,,,,,,,,,,,,,,,,,,,,,,,,,,,,,,,,,,
,,,,,,,,,,,,5ebee9008ccaaa2ac3e1d210,21,Mężczyzna,2022-06-11_09h42.19.901,task,2021.1.4,Win32,74.93443237,6299f149e92ead563fba08ef,62a44672d2dd1bef33832b0b,sc,"[""s"",""c""]","[0.5976000000238315,0.6718999999761479,0.853699999928466]",1,SC,1,0,1,0,1,,,,,,,,,,,,,,,,,,,,,,,,,,,,,,,,,,,,,,,,,,,,,,,,,,,,,,,,,,,,,,,,,,,,,,,,,,,,,,,,,,,,,,,,,,,
,,,,,,0,0,0,0,1,X V Q F H G B L J M P D K C T S W R N Z,5ebee9008ccaaa2ac3e1d210,21,Mężczyzna,2022-06-11_09h42.19.901,task,2021.1.4,Win32,74.93443237,6299f149e92ead563fba08ef,62a44672d2dd1bef33832b0b,,,,,,,,,,,,,,,,,,,,,,,,,,,,,,,,,,,,,,,,,,,,,,,,,,,,,,,,,,,,,,,,,,,,,,,,,,,,,,,,,,,,,,,,,,,,,,,,,,,,,
,,,,,,1,0,1,0,1,X V Q F H G B L J M P D K C T S W R N Z,5ebee9008ccaaa2ac3e1d210,21,Mężczyzna,2022-06-11_09h42.19.901,task,2021.1.4,Win32,74.93443237,6299f149e92ead563fba08ef,62a44672d2dd1bef33832b0b,,,,,,,,,,,,,,,,,,,,,,,,,,,,,,,,,,,,,,,,,,,,,,,,,,,,,,,,,,,,,,,,,,,,,,,,,,,,,,,,,,,,,,,,,,,,,,,,,,,,,
,,,,,,2,0,2,0,1,X V Q F H G B L J M P D K C T S W R N Z,5ebee9008ccaaa2ac3e1d210,21,Mężczyzna,2022-06-11_09h42.19.901,task,2021.1.4,Win32,74.93443237,6299f149e92ead563fba08ef,62a44672d2dd1bef33832b0b,,,,,,,,,,,,,,,,,,,,,,,,,,,,,,,,,,,,,,,,,,,,,,,,,,,,,,,,,,,,,,,,,,,,,,,,,,,,,,,,,,,,,,,,,,,,,,,,,,,,,
,,,,,,,,,,,,5ebee9008ccaaa2ac3e1d210,21,Mężczyzna,2022-06-11_09h42.19.901,task,2021.1.4,Win32,74.93443237,6299f149e92ead563fba08ef,62a44672d2dd1bef33832b0b,csb,"[""c"",""s"",""b""]","[0.4860000000000042,0.5563000000715306,0.9401000000238469,1.2469999999999999]",1,CSB,2,0,2,0,1,,,,,,,,,,,,,,,,,,,,,,,,,,,,,,,,,,,,,,,,,,,,,,,,,,,,,,,,,,,,,,,,,,,,,,,,,,,,,,,,,,,,,,,,,,,
,,,,,,0,0,0,0,1,X V Q F H G B L J M P D K C T S W R N Z,5ebee9008ccaaa2ac3e1d210,21,Mężczyzna,2022-06-11_09h42.19.901,task,2021.1.4,Win32,74.93443237,6299f149e92ead563fba08ef,62a44672d2dd1bef33832b0b,,,,,,,,,,,,,,,,,,,,,,,,,,,,,,,,,,,,,,,,,,,,,,,,,,,,,,,,,,,,,,,,,,,,,,,,,,,,,,,,,,,,,,,,,,,,,,,,,,,,,
,,,,,,1,0,1,0,1,X V Q F H G B L J M P D K C T S W R N Z,5ebee9008ccaaa2ac3e1d210,21,Mężczyzna,2022-06-11_09h42.19.901,task,2021.1.4,Win32,74.93443237,6299f149e92ead563fba08ef,62a44672d2dd1bef33832b0b,,,,,,,,,,,,,,,,,,,,,,,,,,,,,,,,,,,,,,,,,,,,,,,,,,,,,,,,,,,,,,,,,,,,,,,,,,,,,,,,,,,,,,,,,,,,,,,,,,,,,
,,,,,,2,0,2,0,1,X V Q F H G B L J M P D K C T S W R N Z,5ebee9008ccaaa2ac3e1d210,21,Mężczyzna,2022-06-11_09h42.19.901,task,2021.1.4,Win32,74.93443237,6299f149e92ead563fba08ef,62a44672d2dd1bef33832b0b,,,,,,,,,,,,,,,,,,,,,,,,,,,,,,,,,,,,,,,,,,,,,,,,,,,,,,,,,,,,,,,,,,,,,,,,,,,,,,,,,,,,,,,,,,,,,,,,,,,,,
,,,,,,,,,,,,5ebee9008ccaaa2ac3e1d210,21,Mężczyzna,2022-06-11_09h42.19.901,task,2021.1.4,Win32,74.93443237,6299f149e92ead563fba08ef,62a44672d2dd1bef33832b0b,xgl,"[""x"",""g"",""l""]","[0.9393999999761604,1.239799999952325,1.7406000000238464,2.5277999999523217]",1,XGL,3,0,3,0,1,,,,,,,,,,,,,,,,,,,,,,,,,,,,,,,,,,,,,,,,,,,,,,,,,,,,,,,,,,,,,,,,,,,,,,,,,,,,,,,,,,,,,,,,,,,
,,,,,,0,0,0,0,1,X V Q F H G B L J M P D K C T S W R N Z,5ebee9008ccaaa2ac3e1d210,21,Mężczyzna,2022-06-11_09h42.19.901,task,2021.1.4,Win32,74.93443237,6299f149e92ead563fba08ef,62a44672d2dd1bef33832b0b,,,,,,,,,,,,,,,,,,,,,,,,,,,,,,,,,,,,,,,,,,,,,,,,,,,,,,,,,,,,,,,,,,,,,,,,,,,,,,,,,,,,,,,,,,,,,,,,,,,,,
,,,,,,1,0,1,0,1,X V Q F H G B L J M P D K C T S W R N Z,5ebee9008ccaaa2ac3e1d210,21,Mężczyzna,2022-06-11_09h42.19.901,task,2021.1.4,Win32,74.93443237,6299f149e92ead563fba08ef,62a44672d2dd1bef33832b0b,,,,,,,,,,,,,,,,,,,,,,,,,,,,,,,,,,,,,,,,,,,,,,,,,,,,,,,,,,,,,,,,,,,,,,,,,,,,,,,,,,,,,,,,,,,,,,,,,,,,,
,,,,,,2,0,2,0,1,X V Q F H G B L J M P D K C T S W R N Z,5ebee9008ccaaa2ac3e1d210,21,Mężczyzna,2022-06-11_09h42.19.901,task,2021.1.4,Win32,74.93443237,6299f149e92ead563fba08ef,62a44672d2dd1bef33832b0b,,,,,,,,,,,,,,,,,,,,,,,,,,,,,,,,,,,,,,,,,,,,,,,,,,,,,,,,,,,,,,,,,,,,,,,,,,,,,,,,,,,,,,,,,,,,,,,,,,,,,
,,,,,,3,0,3,0,1,X V Q F H G B L J M P D K C T S W R N Z,5ebee9008ccaaa2ac3e1d210,21,Mężczyzna,2022-06-11_09h42.19.901,task,2021.1.4,Win32,74.93443237,6299f149e92ead563fba08ef,62a44672d2dd1bef33832b0b,,,,,,,,,,,,,,,,,,,,,,,,,,,,,,,,,,,,,,,,,,,,,,,,,,,,,,,,,,,,,,,,,,,,,,,,,,,,,,,,,,,,,,,,,,,,,,,,,,,,,
,,,,,,,,,,,,5ebee9008ccaaa2ac3e1d210,21,Mężczyzna,2022-06-11_09h42.19.901,task,2021.1.4,Win32,74.93443237,6299f149e92ead563fba08ef,62a44672d2dd1bef33832b0b,tbsj,"[""t"",""b"",""s"",""j""]","[0.47560000002384584,0.6126999999284806,0.8528999999761595,1.0071000000238541,1.4468999999761678]",1,TBSJ,4,0,4,0,1,,,,,,,,,,,,,,,,,,,,,,,,,,,,,,,,,,,,,,,,,,,,,,,,,,,,,,,,,,,,,,,,,,,,,,,,,,,,,,,,,,,,,,,,,,,
,,,,,,0,0,0,0,1,X V Q F H G B L J M P D K C T S W R N Z,5ebee9008ccaaa2ac3e1d210,21,Mężczyzna,2022-06-11_09h42.19.901,task,2021.1.4,Win32,74.93443237,6299f149e92ead563fba08ef,62a44672d2dd1bef33832b0b,,,,,,,,,,,,,,,,,,,,,,,,,,,,,,,,,,,,,,,,,,,,,,,,,,,,,,,,,,,,,,,,,,,,,,,,,,,,,,,,,,,,,,,,,,,,,,,,,,,,,
,,,,,,1,0,1,0,1,X V Q F H G B L J M P D K C T S W R N Z,5ebee9008ccaaa2ac3e1d210,21,Mężczyzna,2022-06-11_09h42.19.901,task,2021.1.4,Win32,74.93443237,6299f149e92ead563fba08ef,62a44672d2dd1bef33832b0b,,,,,,,,,,,,,,,,,,,,,,,,,,,,,,,,,,,,,,,,,,,,,,,,,,,,,,,,,,,,,,,,,,,,,,,,,,,,,,,,,,,,,,,,,,,,,,,,,,,,,
,,,,,,2,0,2,0,1,X V Q F H G B L J M P D K C T S W R N Z,5ebee9008ccaaa2ac3e1d210,21,Mężczyzna,2022-06-11_09h42.19.901,task,2021.1.4,Win32,74.93443237,6299f149e92ead563fba08ef,62a44672d2dd1bef33832b0b,,,,,,,,,,,,,,,,,,,,,,,,,,,,,,,,,,,,,,,,,,,,,,,,,,,,,,,,,,,,,,,,,,,,,,,,,,,,,,,,,,,,,,,,,,,,,,,,,,,,,
,,,,,,3,0,3,0,1,X V Q F H G B L J M P D K C T S W R N Z,5ebee9008ccaaa2ac3e1d210,21,Mężczyzna,2022-06-11_09h42.19.901,task,2021.1.4,Win32,74.93443237,6299f149e92ead563fba08ef,62a44672d2dd1bef33832b0b,,,,,,,,,,,,,,,,,,,,,,,,,,,,,,,,,,,,,,,,,,,,,,,,,,,,,,,,,,,,,,,,,,,,,,,,,,,,,,,,,,,,,,,,,,,,,,,,,,,,,
,,,,,,,,,,,,5ebee9008ccaaa2ac3e1d210,21,Mężczyzna,2022-06-11_09h42.19.901,task,2021.1.4,Win32,74.93443237,6299f149e92ead563fba08ef,62a44672d2dd1bef33832b0b,shzd,"[""s"",""h"",""z"",""d""]","[0.4001000000238406,0.554000000000002,0.6802000000476909,1.2341000000238438,1.9977000000476863]",1,SHZD,5,0,5,0,1,,,,,,,,,,,,,,,,,,,,,,,,,,,,,,,,,,,,,,,,,,,,,,,,,,,,,,,,,,,,,,,,,,,,,,,,,,,,,,,,,,,,,,,,,,,
,,,,,,0,0,0,0,1,X V Q F H G B L J M P D K C T S W R N Z,5ebee9008ccaaa2ac3e1d210,21,Mężczyzna,2022-06-11_09h42.19.901,task,2021.1.4,Win32,74.93443237,6299f149e92ead563fba08ef,62a44672d2dd1bef33832b0b,,,,,,,,,,,,,,,,,,,,,,,,,,,,,,,,,,,,,,,,,,,,,,,,,,,,,,,,,,,,,,,,,,,,,,,,,,,,,,,,,,,,,,,,,,,,,,,,,,,,,
,,,,,,1,0,1,0,1,X V Q F H G B L J M P D K C T S W R N Z,5ebee9008ccaaa2ac3e1d210,21,Mężczyzna,2022-06-11_09h42.19.901,task,2021.1.4,Win32,74.93443237,6299f149e92ead563fba08ef,62a44672d2dd1bef33832b0b,,,,,,,,,,,,,,,,,,,,,,,,,,,,,,,,,,,,,,,,,,,,,,,,,,,,,,,,,,,,,,,,,,,,,,,,,,,,,,,,,,,,,,,,,,,,,,,,,,,,,
,,,,,,2,0,2,0,1,X V Q F H G B L J M P D K C T S W R N Z,5ebee9008ccaaa2ac3e1d210,21,Mężczyzna,2022-06-11_09h42.19.901,task,2021.1.4,Win32,74.93443237,6299f149e92ead563fba08ef,62a44672d2dd1bef33832b0b,,,,,,,,,,,,,,,,,,,,,,,,,,,,,,,,,,,,,,,,,,,,,,,,,,,,,,,,,,,,,,,,,,,,,,,,,,,,,,,,,,,,,,,,,,,,,,,,,,,,,
,,,,,,3,0,3,0,1,X V Q F H G B L J M P D K C T S W R N Z,5ebee9008ccaaa2ac3e1d210,21,Mężczyzna,2022-06-11_09h42.19.901,task,2021.1.4,Win32,74.93443237,6299f149e92ead563fba08ef,62a44672d2dd1bef33832b0b,,,,,,,,,,,,,,,,,,,,,,,,,,,,,,,,,,,,,,,,,,,,,,,,,,,,,,,,,,,,,,,,,,,,,,,,,,,,,,,,,,,,,,,,,,,,,,,,,,,,,
,,,,,,4,0,4,0,1,X V Q F H G B L J M P D K C T S W R N Z,5ebee9008ccaaa2ac3e1d210,21,Mężczyzna,2022-06-11_09h42.19.901,task,2021.1.4,Win32,74.93443237,6299f149e92ead563fba08ef,62a44672d2dd1bef33832b0b,,,,,,,,,,,,,,,,,,,,,,,,,,,,,,,,,,,,,,,,,,,,,,,,,,,,,,,,,,,,,,,,,,,,,,,,,,,,,,,,,,,,,,,,,,,,,,,,,,,,,
,,,,,,,,,,,,5ebee9008ccaaa2ac3e1d210,21,Mężczyzna,2022-06-11_09h42.19.901,task,2021.1.4,Win32,74.93443237,6299f149e92ead563fba08ef,62a44672d2dd1bef33832b0b,tlbvv,"[""t"",""l"",""b"",""v"",""v""]","[0.8892000000476799,1.3972000000476754,1.7541000000238398,2.447700000047675,2.634799999952307,4.199100000023833]",1,TLBVV,6,0,6,0,1,,,,,,,,,,,,,,,,,,,,,,,,,,,,,,,,,,,,,,,,,,,,,,,,,,,,,,,,,,,,,,,,,,,,,,,,,,,,,,,,,,,,,,,,,,,
,,,,,,0,0,0,0,1,X V Q F H G B L J M P D K C T S W R N Z,5ebee9008ccaaa2ac3e1d210,21,Mężczyzna,2022-06-11_09h42.19.901,task,2021.1.4,Win32,74.93443237,6299f149e92ead563fba08ef,62a44672d2dd1bef33832b0b,,,,,,,,,,,,,,,,,,,,,,,,,,,,,,,,,,,,,,,,,,,,,,,,,,,,,,,,,,,,,,,,,,,,,,,,,,,,,,,,,,,,,,,,,,,,,,,,,,,,,
,,,,,,1,0,1,0,1,X V Q F H G B L J M P D K C T S W R N Z,5ebee9008ccaaa2ac3e1d210,21,Mężczyzna,2022-06-11_09h42.19.901,task,2021.1.4,Win32,74.93443237,6299f149e92ead563fba08ef,62a44672d2dd1bef33832b0b,,,,,,,,,,,,,,,,,,,,,,,,,,,,,,,,,,,,,,,,,,,,,,,,,,,,,,,,,,,,,,,,,,,,,,,,,,,,,,,,,,,,,,,,,,,,,,,,,,,,,
,,,,,,2,0,2,0,1,X V Q F H G B L J M P D K C T S W R N Z,5ebee9008ccaaa2ac3e1d210,21,Mężczyzna,2022-06-11_09h42.19.901,task,2021.1.4,Win32,74.93443237,6299f149e92ead563fba08ef,62a44672d2dd1bef33832b0b,,,,,,,,,,,,,,,,,,,,,,,,,,,,,,,,,,,,,,,,,,,,,,,,,,,,,,,,,,,,,,,,,,,,,,,,,,,,,,,,,,,,,,,,,,,,,,,,,,,,,
,,,,,,3,0,3,0,1,X V Q F H G B L J M P D K C T S W R N Z,5ebee9008ccaaa2ac3e1d210,21,Mężczyzna,2022-06-11_09h42.19.901,task,2021.1.4,Win32,74.93443237,6299f149e92ead563fba08ef,62a44672d2dd1bef33832b0b,,,,,,,,,,,,,,,,,,,,,,,,,,,,,,,,,,,,,,,,,,,,,,,,,,,,,,,,,,,,,,,,,,,,,,,,,,,,,,,,,,,,,,,,,,,,,,,,,,,,,
,,,,,,4,0,4,0,1,X V Q F H G B L J M P D K C T S W R N Z,5ebee9008ccaaa2ac3e1d210,21,Mężczyzna,2022-06-11_09h42.19.901,task,2021.1.4,Win32,74.93443237,6299f149e92ead563fba08ef,62a44672d2dd1bef33832b0b,,,,,,,,,,,,,,,,,,,,,,,,,,,,,,,,,,,,,,,,,,,,,,,,,,,,,,,,,,,,,,,,,,,,,,,,,,,,,,,,,,,,,,,,,,,,,,,,,,,,,
,,,,,,,,,,,,5ebee9008ccaaa2ac3e1d210,21,Mężczyzna,2022-06-11_09h42.19.901,task,2021.1.4,Win32,74.93443237,6299f149e92ead563fba08ef,62a44672d2dd1bef33832b0b,pkgtd,"[""p"",""k"",""g"",""t"",""d""]","[0.6728999999761527,0.9064999999999941,1.654500000000013,1.967300000071532,2.516600000023857,3.075300000071536]",1,PKGTD,7,0,7,0,1,,,,,,,,,,,,,,,,,,,,,,,,,,,,,,,,,,,,,,,,,,,,,,,,,,,,,,,,,,,,,,,,,,,,,,,,,,,,,,,,,,,,,,,,,,,
,,,,,,0,0,0,0,1,X V Q F H G B L J M P D K C T S W R N Z,5ebee9008ccaaa2ac3e1d210,21,Mężczyzna,2022-06-11_09h42.19.901,task,2021.1.4,Win32,74.93443237,6299f149e92ead563fba08ef,62a44672d2dd1bef33832b0b,,,,,,,,,,,,,,,,,,,,,,,,,,,,,,,,,,,,,,,,,,,,,,,,,,,,,,,,,,,,,,,,,,,,,,,,,,,,,,,,,,,,,,,,,,,,,,,,,,,,,
,,,,,,1,0,1,0,1,X V Q F H G B L J M P D K C T S W R N Z,5ebee9008ccaaa2ac3e1d210,21,Mężczyzna,2022-06-11_09h42.19.901,task,2021.1.4,Win32,74.93443237,6299f149e92ead563fba08ef,62a44672d2dd1bef33832b0b,,,,,,,,,,,,,,,,,,,,,,,,,,,,,,,,,,,,,,,,,,,,,,,,,,,,,,,,,,,,,,,,,,,,,,,,,,,,,,,,,,,,,,,,,,,,,,,,,,,,,
,,,,,,2,0,2,0,1,X V Q F H G B L J M P D K C T S W R N Z,5ebee9008ccaaa2ac3e1d210,21,Mężczyzna,2022-06-11_09h42.19.901,task,2021.1.4,Win32,74.93443237,6299f149e92ead563fba08ef,62a44672d2dd1bef33832b0b,,,,,,,,,,,,,,,,,,,,,,,,,,,,,,,,,,,,,,,,,,,,,,,,,,,,,,,,,,,,,,,,,,,,,,,,,,,,,,,,,,,,,,,,,,,,,,,,,,,,,
,,,,,,3,0,3,0,1,X V Q F H G B L J M P D K C T S W R N Z,5ebee9008ccaaa2ac3e1d210,21,Mężczyzna,2022-06-11_09h42.19.901,task,2021.1.4,Win32,74.93443237,6299f149e92ead563fba08ef,62a44672d2dd1bef33832b0b,,,,,,,,,,,,,,,,,,,,,,,,,,,,,,,,,,,,,,,,,,,,,,,,,,,,,,,,,,,,,,,,,,,,,,,,,,,,,,,,,,,,,,,,,,,,,,,,,,,,,
,,,,,,4,0,4,0,1,X V Q F H G B L J M P D K C T S W R N Z,5ebee9008ccaaa2ac3e1d210,21,Mężczyzna,2022-06-11_09h42.19.901,task,2021.1.4,Win32,74.93443237,6299f149e92ead563fba08ef,62a44672d2dd1bef33832b0b,,,,,,,,,,,,,,,,,,,,,,,,,,,,,,,,,,,,,,,,,,,,,,,,,,,,,,,,,,,,,,,,,,,,,,,,,,,,,,,,,,,,,,,,,,,,,,,,,,,,,
,,,,,,5,0,5,0,1,X V Q F H G B L J M P D K C T S W R N Z,5ebee9008ccaaa2ac3e1d210,21,Mężczyzna,2022-06-11_09h42.19.901,task,2021.1.4,Win32,74.93443237,6299f149e92ead563fba08ef,62a44672d2dd1bef33832b0b,,,,,,,,,,,,,,,,,,,,,,,,,,,,,,,,,,,,,,,,,,,,,,,,,,,,,,,,,,,,,,,,,,,,,,,,,,,,,,,,,,,,,,,,,,,,,,,,,,,,,
,,,,,,,,,,,,5ebee9008ccaaa2ac3e1d210,21,Mężczyzna,2022-06-11_09h42.19.901,task,2021.1.4,Win32,74.93443237,6299f149e92ead563fba08ef,62a44672d2dd1bef33832b0b,bbjgbv,"[""b"",""b"",""j"",""g"",""b"",""v""]","[1.9037999999523265,2.047799999952332,2.328000000000003,3.758100000023859,4.143600000023866,4.3226999999284885,4.744799999952335]",1,BBJGBV,8,0,8,0,1,,,,,,,,,,,,,,,,,,,,,,,,,,,,,,,,,,,,,,,,,,,,,,,,,,,,,,,,,,,,,,,,,,,,,,,,,,,,,,,,,,,,,,,,,,,
,,,,,,0,0,0,0,1,X V Q F H G B L J M P D K C T S W R N Z,5ebee9008ccaaa2ac3e1d210,21,Mężczyzna,2022-06-11_09h42.19.901,task,2021.1.4,Win32,74.93443237,6299f149e92ead563fba08ef,62a44672d2dd1bef33832b0b,,,,,,,,,,,,,,,,,,,,,,,,,,,,,,,,,,,,,,,,,,,,,,,,,,,,,,,,,,,,,,,,,,,,,,,,,,,,,,,,,,,,,,,,,,,,,,,,,,,,,
,,,,,,1,0,1,0,1,X V Q F H G B L J M P D K C T S W R N Z,5ebee9008ccaaa2ac3e1d210,21,Mężczyzna,2022-06-11_09h42.19.901,task,2021.1.4,Win32,74.93443237,6299f149e92ead563fba08ef,62a44672d2dd1bef33832b0b,,,,,,,,,,,,,,,,,,,,,,,,,,,,,,,,,,,,,,,,,,,,,,,,,,,,,,,,,,,,,,,,,,,,,,,,,,,,,,,,,,,,,,,,,,,,,,,,,,,,,
,,,,,,2,0,2,0,1,X V Q F H G B L J M P D K C T S W R N Z,5ebee9008ccaaa2ac3e1d210,21,Mężczyzna,2022-06-11_09h42.19.901,task,2021.1.4,Win32,74.93443237,6299f149e92ead563fba08ef,62a44672d2dd1bef33832b0b,,,,,,,,,,,,,,,,,,,,,,,,,,,,,,,,,,,,,,,,,,,,,,,,,,,,,,,,,,,,,,,,,,,,,,,,,,,,,,,,,,,,,,,,,,,,,,,,,,,,,
,,,,,,3,0,3,0,1,X V Q F H G B L J M P D K C T S W R N Z,5ebee9008ccaaa2ac3e1d210,21,Mężczyzna,2022-06-11_09h42.19.901,task,2021.1.4,Win32,74.93443237,6299f149e92ead563fba08ef,62a44672d2dd1bef33832b0b,,,,,,,,,,,,,,,,,,,,,,,,,,,,,,,,,,,,,,,,,,,,,,,,,,,,,,,,,,,,,,,,,,,,,,,,,,,,,,,,,,,,,,,,,,,,,,,,,,,,,
,,,,,,4,0,4,0,1,X V Q F H G B L J M P D K C T S W R N Z,5ebee9008ccaaa2ac3e1d210,21,Mężczyzna,2022-06-11_09h42.19.901,task,2021.1.4,Win32,74.93443237,6299f149e92ead563fba08ef,62a44672d2dd1bef33832b0b,,,,,,,,,,,,,,,,,,,,,,,,,,,,,,,,,,,,,,,,,,,,,,,,,,,,,,,,,,,,,,,,,,,,,,,,,,,,,,,,,,,,,,,,,,,,,,,,,,,,,
,,,,,,5,0,5,0,1,X V Q F H G B L J M P D K C T S W R N Z,5ebee9008ccaaa2ac3e1d210,21,Mężczyzna,2022-06-11_09h42.19.901,task,2021.1.4,Win32,74.93443237,6299f149e92ead563fba08ef,62a44672d2dd1bef33832b0b,,,,,,,,,,,,,,,,,,,,,,,,,,,,,,,,,,,,,,,,,,,,,,,,,,,,,,,,,,,,,,,,,,,,,,,,,,,,,,,,,,,,,,,,,,,,,,,,,,,,,
,,,,,,,,,,,,5ebee9008ccaaa2ac3e1d210,21,Mężczyzna,2022-06-11_09h42.19.901,task,2021.1.4,Win32,74.93443237,6299f149e92ead563fba08ef,62a44672d2dd1bef33832b0b,slgcdv,"[""s"",""l"",""g"",""c"",""d"",""v""]","[1.247200000047684,1.3802000000476653,1.7013000000715124,2.101300000071518,2.7207000000476853,3.0096000000238234,3.599800000071525]",1,SLGCDV,9,0,9,0,1,,,,,,,,,,,,,,,,,,,,,,,,,,,,,,,,,,,,,,,,,,,,,,,,,,,,,,,,,,,,,,,,,,,,,,,,,,,,,,,,,,,,,,,,,,,
,,,,,,0,0,0,0,1,X V Q F H G B L J M P D K C T S W R N Z,5ebee9008ccaaa2ac3e1d210,21,Mężczyzna,2022-06-11_09h42.19.901,task,2021.1.4,Win32,74.93443237,6299f149e92ead563fba08ef,62a44672d2dd1bef33832b0b,,,,,,,,,,,,,,,,,,,,,,,,,,,,,,,,,,,,,,,,,,,,,,,,,,,,,,,,,,,,,,,,,,,,,,,,,,,,,,,,,,,,,,,,,,,,,,,,,,,,,
,,,,,,1,0,1,0,1,X V Q F H G B L J M P D K C T S W R N Z,5ebee9008ccaaa2ac3e1d210,21,Mężczyzna,2022-06-11_09h42.19.901,task,2021.1.4,Win32,74.93443237,6299f149e92ead563fba08ef,62a44672d2dd1bef33832b0b,,,,,,,,,,,,,,,,,,,,,,,,,,,,,,,,,,,,,,,,,,,,,,,,,,,,,,,,,,,,,,,,,,,,,,,,,,,,,,,,,,,,,,,,,,,,,,,,,,,,,
,,,,,,2,0,2,0,1,X V Q F H G B L J M P D K C T S W R N Z,5ebee9008ccaaa2ac3e1d210,21,Mężczyzna,2022-06-11_09h42.19.901,task,2021.1.4,Win32,74.93443237,6299f149e92ead563fba08ef,62a44672d2dd1bef33832b0b,,,,,,,,,,,,,,,,,,,,,,,,,,,,,,,,,,,,,,,,,,,,,,,,,,,,,,,,,,,,,,,,,,,,,,,,,,,,,,,,,,,,,,,,,,,,,,,,,,,,,
,,,,,,3,0,3,0,1,X V Q F H G B L J M P D K C T S W R N Z,5ebee9008ccaaa2ac3e1d210,21,Mężczyzna,2022-06-11_09h42.19.901,task,2021.1.4,Win32,74.93443237,6299f149e92ead563fba08ef,62a44672d2dd1bef33832b0b,,,,,,,,,,,,,,,,,,,,,,,,,,,,,,,,,,,,,,,,,,,,,,,,,,,,,,,,,,,,,,,,,,,,,,,,,,,,,,,,,,,,,,,,,,,,,,,,,,,,,
,,,,,,4,0,4,0,1,X V Q F H G B L J M P D K C T S W R N Z,5ebee9008ccaaa2ac3e1d210,21,Mężczyzna,2022-06-11_09h42.19.901,task,2021.1.4,Win32,74.93443237,6299f149e92ead563fba08ef,62a44672d2dd1bef33832b0b,,,,,,,,,,,,,,,,,,,,,,,,,,,,,,,,,,,,,,,,,,,,,,,,,,,,,,,,,,,,,,,,,,,,,,,,,,,,,,,,,,,,,,,,,,,,,,,,,,,,,
,,,,,,5,0,5,0,1,X V Q F H G B L J M P D K C T S W R N Z,5ebee9008ccaaa2ac3e1d210,21,Mężczyzna,2022-06-11_09h42.19.901,task,2021.1.4,Win32,74.93443237,6299f149e92ead563fba08ef,62a44672d2dd1bef33832b0b,,,,,,,,,,,,,,,,,,,,,,,,,,,,,,,,,,,,,,,,,,,,,,,,,,,,,,,,,,,,,,,,,,,,,,,,,,,,,,,,,,,,,,,,,,,,,,,,,,,,,
,,,,,,6,0,6,0,1,X V Q F H G B L J M P D K C T S W R N Z,5ebee9008ccaaa2ac3e1d210,21,Mężczyzna,2022-06-11_09h42.19.901,task,2021.1.4,Win32,74.93443237,6299f149e92ead563fba08ef,62a44672d2dd1bef33832b0b,,,,,,,,,,,,,,,,,,,,,,,,,,,,,,,,,,,,,,,,,,,,,,,,,,,,,,,,,,,,,,,,,,,,,,,,,,,,,,,,,,,,,,,,,,,,,,,,,,,,,
,,,,,,,,,,,,5ebee9008ccaaa2ac3e1d210,21,Mężczyzna,2022-06-11_09h42.19.901,task,2021.1.4,Win32,74.93443237,6299f149e92ead563fba08ef,62a44672d2dd1bef33832b0b,hpfbwfg,"[""h"",""p"",""f"",""b"",""w"",""f"",""g""]","[1.9189999999999827,2.6378000000715076,3.141999999999996,3.5023000000715285,3.81270000004767,4.1440000000000055,8.042000000000002,8.49389999997615]",0,HPFBWFS,10,0,10,0,1,,,,,,,,,,,,,,,,,,,,,,,,,,,,,,,,,,,,,,,,,,,,,,,,,,,,,,,,,,,,,,,,,,,,,,,,,,,,,,,,,,,,,,,,,,,
,,,,,,0,0,0,0,1,X V Q F H G B L J M P D K C T S W R N Z,5ebee9008ccaaa2ac3e1d210,21,Mężczyzna,2022-06-11_09h42.19.901,task,2021.1.4,Win32,74.93443237,6299f149e92ead563fba08ef,62a44672d2dd1bef33832b0b,,,,,,,,,,,,,,,,,,,,,,,,,,,,,,,,,,,,,,,,,,,,,,,,,,,,,,,,,,,,,,,,,,,,,,,,,,,,,,,,,,,,,,,,,,,,,,,,,,,,,
,,,,,,1,0,1,0,1,X V Q F H G B L J M P D K C T S W R N Z,5ebee9008ccaaa2ac3e1d210,21,Mężczyzna,2022-06-11_09h42.19.901,task,2021.1.4,Win32,74.93443237,6299f149e92ead563fba08ef,62a44672d2dd1bef33832b0b,,,,,,,,,,,,,,,,,,,,,,,,,,,,,,,,,,,,,,,,,,,,,,,,,,,,,,,,,,,,,,,,,,,,,,,,,,,,,,,,,,,,,,,,,,,,,,,,,,,,,
,,,,,,2,0,2,0,1,X V Q F H G B L J M P D K C T S W R N Z,5ebee9008ccaaa2ac3e1d210,21,Mężczyzna,2022-06-11_09h42.19.901,task,2021.1.4,Win32,74.93443237,6299f149e92ead563fba08ef,62a44672d2dd1bef33832b0b,,,,,,,,,,,,,,,,,,,,,,,,,,,,,,,,,,,,,,,,,,,,,,,,,,,,,,,,,,,,,,,,,,,,,,,,,,,,,,,,,,,,,,,,,,,,,,,,,,,,,
,,,,,,3,0,3,0,1,X V Q F H G B L J M P D K C T S W R N Z,5ebee9008ccaaa2ac3e1d210,21,Mężczyzna,2022-06-11_09h42.19.901,task,2021.1.4,Win32,74.93443237,6299f149e92ead563fba08ef,62a44672d2dd1bef33832b0b,,,,,,,,,,,,,,,,,,,,,,,,,,,,,,,,,,,,,,,,,,,,,,,,,,,,,,,,,,,,,,,,,,,,,,,,,,,,,,,,,,,,,,,,,,,,,,,,,,,,,
,,,,,,4,0,4,0,1,X V Q F H G B L J M P D K C T S W R N Z,5ebee9008ccaaa2ac3e1d210,21,Mężczyzna,2022-06-11_09h42.19.901,task,2021.1.4,Win32,74.93443237,6299f149e92ead563fba08ef,62a44672d2dd1bef33832b0b,,,,,,,,,,,,,,,,,,,,,,,,,,,,,,,,,,,,,,,,,,,,,,,,,,,,,,,,,,,,,,,,,,,,,,,,,,,,,,,,,,,,,,,,,,,,,,,,,,,,,
,,,,,,5,0,5,0,1,X V Q F H G B L J M P D K C T S W R N Z,5ebee9008ccaaa2ac3e1d210,21,Mężczyzna,2022-06-11_09h42.19.901,task,2021.1.4,Win32,74.93443237,6299f149e92ead563fba08ef,62a44672d2dd1bef33832b0b,,,,,,,,,,,,,,,,,,,,,,,,,,,,,,,,,,,,,,,,,,,,,,,,,,,,,,,,,,,,,,,,,,,,,,,,,,,,,,,,,,,,,,,,,,,,,,,,,,,,,
,,,,,,6,0,6,0,1,X V Q F H G B L J M P D K C T S W R N Z,5ebee9008ccaaa2ac3e1d210,21,Mężczyzna,2022-06-11_09h42.19.901,task,2021.1.4,Win32,74.93443237,6299f149e92ead563fba08ef,62a44672d2dd1bef33832b0b,,,,,,,,,,,,,,,,,,,,,,,,,,,,,,,,,,,,,,,,,,,,,,,,,,,,,,,,,,,,,,,,,,,,,,,,,,,,,,,,,,,,,,,,,,,,,,,,,,,,,
,,,,,,,,,,,,5ebee9008ccaaa2ac3e1d210,21,Mężczyzna,2022-06-11_09h42.19.901,task,2021.1.4,Win32,74.93443237,6299f149e92ead563fba08ef,62a44672d2dd1bef33832b0b,cvnpkzx,"[""c"",""v"",""n"",""p"",""k"",""z"",""x""]","[1.6797000000476885,2.027400000095355,2.447999999999979,3.1154999999999973,3.488600000023837,3.813300000071507,4.0224000000953595,4.453300000071522]",1,CVNPKZX,11,0,11,0,1,,,,,,,,,,,,,,,,,,,,,,,,,,,,,,,,,,,,,,,,,,,,,,,,,,,,,,,,,,,,,,,,,,,,,,,,,,,,,,,,,,,,,,,,,,,
,,,,,,0,0,0,0,1,X V Q F H G B L J M P D K C T S W R N Z,5ebee9008ccaaa2ac3e1d210,21,Mężczyzna,2022-06-11_09h42.19.901,task,2021.1.4,Win32,74.93443237,6299f149e92ead563fba08ef,62a44672d2dd1bef33832b0b,,,,,,,,,,,,,,,,,,,,,,,,,,,,,,,,,,,,,,,,,,,,,,,,,,,,,,,,,,,,,,,,,,,,,,,,,,,,,,,,,,,,,,,,,,,,,,,,,,,,,
,,,,,,1,0,1,0,1,X V Q F H G B L J M P D K C T S W R N Z,5ebee9008ccaaa2ac3e1d210,21,Mężczyzna,2022-06-11_09h42.19.901,task,2021.1.4,Win32,74.93443237,6299f149e92ead563fba08ef,62a44672d2dd1bef33832b0b,,,,,,,,,,,,,,,,,,,,,,,,,,,,,,,,,,,,,,,,,,,,,,,,,,,,,,,,,,,,,,,,,,,,,,,,,,,,,,,,,,,,,,,,,,,,,,,,,,,,,
,,,,,,2,0,2,0,1,X V Q F H G B L J M P D K C T S W R N Z,5ebee9008ccaaa2ac3e1d210,21,Mężczyzna,2022-06-11_09h42.19.901,task,2021.1.4,Win32,74.93443237,6299f149e92ead563fba08ef,62a44672d2dd1bef33832b0b,,,,,,,,,,,,,,,,,,,,,,,,,,,,,,,,,,,,,,,,,,,,,,,,,,,,,,,,,,,,,,,,,,,,,,,,,,,,,,,,,,,,,,,,,,,,,,,,,,,,,
,,,,,,3,0,3,0,1,X V Q F H G B L J M P D K C T S W R N Z,5ebee9008ccaaa2ac3e1d210,21,Mężczyzna,2022-06-11_09h42.19.901,task,2021.1.4,Win32,74.93443237,6299f149e92ead563fba08ef,62a44672d2dd1bef33832b0b,,,,,,,,,,,,,,,,,,,,,,,,,,,,,,,,,,,,,,,,,,,,,,,,,,,,,,,,,,,,,,,,,,,,,,,,,,,,,,,,,,,,,,,,,,,,,,,,,,,,,
,,,,,,4,0,4,0,1,X V Q F H G B L J M P D K C T S W R N Z,5ebee9008ccaaa2ac3e1d210,21,Mężczyzna,2022-06-11_09h42.19.901,task,2021.1.4,Win32,74.93443237,6299f149e92ead563fba08ef,62a44672d2dd1bef33832b0b,,,,,,,,,,,,,,,,,,,,,,,,,,,,,,,,,,,,,,,,,,,,,,,,,,,,,,,,,,,,,,,,,,,,,,,,,,,,,,,,,,,,,,,,,,,,,,,,,,,,,
,,,,,,5,0,5,0,1,X V Q F H G B L J M P D K C T S W R N Z,5ebee9008ccaaa2ac3e1d210,21,Mężczyzna,2022-06-11_09h42.19.901,task,2021.1.4,Win32,74.93443237,6299f149e92ead563fba08ef,62a44672d2dd1bef33832b0b,,,,,,,,,,,,,,,,,,,,,,,,,,,,,,,,,,,,,,,,,,,,,,,,,,,,,,,,,,,,,,,,,,,,,,,,,,,,,,,,,,,,,,,,,,,,,,,,,,,,,
,,,,,,6,0,6,0,1,X V Q F H G B L J M P D K C T S W R N Z,5ebee9008ccaaa2ac3e1d210,21,Mężczyzna,2022-06-11_09h42.19.901,task,2021.1.4,Win32,74.93443237,6299f149e92ead563fba08ef,62a44672d2dd1bef33832b0b,,,,,,,,,,,,,,,,,,,,,,,,,,,,,,,,,,,,,,,,,,,,,,,,,,,,,,,,,,,,,,,,,,,,,,,,,,,,,,,,,,,,,,,,,,,,,,,,,,,,,
,,,,,,,,,,,,5ebee9008ccaaa2ac3e1d210,21,Mężczyzna,2022-06-11_09h42.19.901,task,2021.1.4,Win32,74.93443237,6299f149e92ead563fba08ef,62a44672d2dd1bef33832b0b,rlvndjk,"[""r"",""l"",""v"",""n"",""d"",""j"",""k""]","[2.6481999999284653,2.861799999952325,3.3148999999761486,4.3714999999999975,4.623299999952309,5.063399999976156,5.2675000000000125,7.601499999999987]",0,RLVNDJH,12,0,12,0,1,,,,,,,,,,,,,,,,,,,,,,,,,,,,,,,,,,,,,,,,,,,,,,,,,,,,,,,,,,,,,,,,,,,,,,,,,,,,,,,,,,,,,,,,,,,
,,,,,,0,0,0,0,1,X V Q F H G B L J M P D K C T S W R N Z,5ebee9008ccaaa2ac3e1d210,21,Mężczyzna,2022-06-11_09h42.19.901,task,2021.1.4,Win32,74.93443237,6299f149e92ead563fba08ef,62a44672d2dd1bef33832b0b,,,,,,,,,,,,,,,,,,,,,,,,,,,,,,,,,,,,,,,,,,,,,,,,,,,,,,,,,,,,,,,,,,,,,,,,,,,,,,,,,,,,,,,,,,,,,,,,,,,,,
,,,,,,1,0,1,0,1,X V Q F H G B L J M P D K C T S W R N Z,5ebee9008ccaaa2ac3e1d210,21,Mężczyzna,2022-06-11_09h42.19.901,task,2021.1.4,Win32,74.93443237,6299f149e92ead563fba08ef,62a44672d2dd1bef33832b0b,,,,,,,,,,,,,,,,,,,,,,,,,,,,,,,,,,,,,,,,,,,,,,,,,,,,,,,,,,,,,,,,,,,,,,,,,,,,,,,,,,,,,,,,,,,,,,,,,,,,,
,,,,,,2,0,2,0,1,X V Q F H G B L J M P D K C T S W R N Z,5ebee9008ccaaa2ac3e1d210,21,Mężczyzna,2022-06-11_09h42.19.901,task,2021.1.4,Win32,74.93443237,6299f149e92ead563fba08ef,62a44672d2dd1bef33832b0b,,,,,,,,,,,,,,,,,,,,,,,,,,,,,,,,,,,,,,,,,,,,,,,,,,,,,,,,,,,,,,,,,,,,,,,,,,,,,,,,,,,,,,,,,,,,,,,,,,,,,
,,,,,,3,0,3,0,1,X V Q F H G B L J M P D K C T S W R N Z,5ebee9008ccaaa2ac3e1d210,21,Mężczyzna,2022-06-11_09h42.19.901,task,2021.1.4,Win32,74.93443237,6299f149e92ead563fba08ef,62a44672d2dd1bef33832b0b,,,,,,,,,,,,,,,,,,,,,,,,,,,,,,,,,,,,,,,,,,,,,,,,,,,,,,,,,,,,,,,,,,,,,,,,,,,,,,,,,,,,,,,,,,,,,,,,,,,,,
,,,,,,4,0,4,0,1,X V Q F H G B L J M P D K C T S W R N Z,5ebee9008ccaaa2ac3e1d210,21,Mężczyzna,2022-06-11_09h42.19.901,task,2021.1.4,Win32,74.93443237,6299f149e92ead563fba08ef,62a44672d2dd1bef33832b0b,,,,,,,,,,,,,,,,,,,,,,,,,,,,,,,,,,,,,,,,,,,,,,,,,,,,,,,,,,,,,,,,,,,,,,,,,,,,,,,,,,,,,,,,,,,,,,,,,,,,,
,,,,,,5,0,5,0,1,X V Q F H G B L J M P D K C T S W R N Z,5ebee9008ccaaa2ac3e1d210,21,Mężczyzna,2022-06-11_09h42.19.901,task,2021.1.4,Win32,74.93443237,6299f149e92ead563fba08ef,62a44672d2dd1bef33832b0b,,,,,,,,,,,,,,,,,,,,,,,,,,,,,,,,,,,,,,,,,,,,,,,,,,,,,,,,,,,,,,,,,,,,,,,,,,,,,,,,,,,,,,,,,,,,,,,,,,,,,
,,,,,,6,0,6,0,1,X V Q F H G B L J M P D K C T S W R N Z,5ebee9008ccaaa2ac3e1d210,21,Mężczyzna,2022-06-11_09h42.19.901,task,2021.1.4,Win32,74.93443237,6299f149e92ead563fba08ef,62a44672d2dd1bef33832b0b,,,,,,,,,,,,,,,,,,,,,,,,,,,,,,,,,,,,,,,,,,,,,,,,,,,,,,,,,,,,,,,,,,,,,,,,,,,,,,,,,,,,,,,,,,,,,,,,,,,,,
,,,,,,,,,,,,5ebee9008ccaaa2ac3e1d210,21,Mężczyzna,2022-06-11_09h42.19.901,task,2021.1.4,Win32,74.93443237,6299f149e92ead563fba08ef,62a44672d2dd1bef33832b0b,qvmfbj,"[""q"",""v"",""m"",""f"",""b"",""j""]","[2.3972999999523097,3.264199999928479,3.589600000023836,4.609799999952315,5.41129999995232,5.694999999999993,6.799699999928492]",0,QVPMFJB,13,0,13,0,1,,,,,,,,,,,,,,,,,,,,,,,,,,,,,,,,,,,,,,,,,,,,,,,,,,,,,,,,,,,,,,,,,,,,,,,,,,,,,,,,,,,,,,,,,,,
,,,,,,,,,,,,5ebee9008ccaaa2ac3e1d210,21,Mężczyzna,2022-06-11_09h42.19.901,task,2021.1.4,Win32,74.93443237,6299f149e92ead563fba08ef,62a44672d2dd1bef33832b0b,,,,,,,,,,,space,13.7673,1,"[""1""]",1,[16.818000000000012],[16.818000000000012],0,0,0,1,1,Practice,2,(4x4) - 15,1,,,,,,,,,,,,,,,,,,,,,,,,,,,,,,,,,,,,,,,,,,,,,,,,,,,,,,,,,,,,,,,,,,,,,,,,,,,
,,,,,,,,,,,,5ebee9008ccaaa2ac3e1d210,21,Mężczyzna,2022-06-11_09h42.19.901,task,2021.1.4,Win32,74.93443237,6299f149e92ead563fba08ef,62a44672d2dd1bef33832b0b,,,,,,,,,,,,,7,"[""7""]",1,[3.2833000000715344],"[16.818000000000012,3.2833000000715344]",0,1,1,7,1,Practice,8,(5x5) - 18,7,,,,,,,,,,,,,,,,,,,,,,,,,,,,,,,,,,,,,,,,,,,,,,,,,,,,,,,,,,,,,,,,,,,,,,,,,,,
,,,,,,,,,,,,5ebee9008ccaaa2ac3e1d210,21,Mężczyzna,2022-06-11_09h42.19.901,task,2021.1.4,Win32,74.93443237,6299f149e92ead563fba08ef,62a44672d2dd1bef33832b0b,,,,,,,,,,,,,2,"[""2""]",1,[2.780499999999961],"[16.818000000000012,3.2833000000715344,2.780499999999961]",0,2,2,2,1,Practice,3,(4x4) - 14,2,,,,,,,,,,,,,,,,,,,,,,,,,,,,,,,,,,,,,,,,,,,,,,,,,,,,,,,,,,,,,,,,,,,,,,,,,,,
,,,,,,,,,,,,5ebee9008ccaaa2ac3e1d210,21,Mężczyzna,2022-06-11_09h42.19.901,task,2021.1.4,Win32,74.93443237,6299f149e92ead563fba08ef,62a44672d2dd1bef33832b0b,,,,,,,,,,,,,6,"[""6""]",1,[2.0536000000238346],"[16.818000000000012,3.2833000000715344,2.780499999999961,2.0536000000238346]",0,3,3,6,1,Practice,7,(25/5) + 1,6,,,,,,,,,,,,,,,,,,,,,,,,,,,,,,,,,,,,,,,,,,,,,,,,,,,,,,,,,,,,,,,,,,,,,,,,,,,
,,,,,,,,,,,,5ebee9008ccaaa2ac3e1d210,21,Mężczyzna,2022-06-11_09h42.19.901,task,2021.1.4,Win32,74.93443237,6299f149e92ead563fba08ef,62a44672d2dd1bef33832b0b,,,,,,,,,,,,,0,"[""0""]",1,[1.7971000000238746],"[16.818000000000012,3.2833000000715344,2.780499999999961,2.0536000000238346,1.7971000000238746]",0,4,4,0,1,Practice,1,(3x3) -  9,0,,,,,,,,,,,,,,,,,,,,,,,,,,,,,,,,,,,,,,,,,,,,,,,,,,,,,,,,,,,,,,,,,,,,,,,,,,,
,,,,,,,,,,,,5ebee9008ccaaa2ac3e1d210,21,Mężczyzna,2022-06-11_09h42.19.901,task,2021.1.4,Win32,74.93443237,6299f149e92ead563fba08ef,62a44672d2dd1bef33832b0b,,,,,,,,,,,,,9,"[""9""]",1,[2.353800000071544],"[16.818000000000012,3.2833000000715344,2.780499999999961,2.0536000000238346,1.7971000000238746,2.353800000071544]",0,5,5,9,1,Practice,10,(20/2) - 1,9,,,,,,,,,,,,,,,,,,,,,,,,,,,,,,,,,,,,,,,,,,,,,,,,,,,,,,,,,,,,,,,,,,,,,,,,,,,
,,,,,,,,,,,,5ebee9008ccaaa2ac3e1d210,21,Mężczyzna,2022-06-11_09h42.19.901,task,2021.1.4,Win32,74.93443237,6299f149e92ead563fba08ef,62a44672d2dd1bef33832b0b,,,,,,,,,,,,,8,"[""8""]",1,[1.5409000000954052],"[16.818000000000012,3.2833000000715344,2.780499999999961,2.0536000000238346,1.7971000000238746,2.353800000071544,1.5409000000954052]",0,6,6,8,1,Practice,9,(3x3) - 1,8,,,,,,,,,,,,,,,,,,,,,,,,,,,,,,,,,,,,,,,,,,,,,,,,,,,,,,,,,,,,,,,,,,,,,,,,,,,
,,,,,,,,,,,,5ebee9008ccaaa2ac3e1d210,21,Mężczyzna,2022-06-11_09h42.19.901,task,2021.1.4,Win32,74.93443237,6299f149e92ead563fba08ef,62a44672d2dd1bef33832b0b,,,,,,,,,,,,,3,"[""3""]",1,[3.1757999999522895],"[16.818000000000012,3.2833000000715344,2.780499999999961,2.0536000000238346,1.7971000000238746,2.353800000071544,1.5409000000954052,3.1757999999522895]",0,7,7,3,1,Practice,4,(8/4) + 1,3,,,,,,,,,,,,,,,,,,,,,,,,,,,,,,,,,,,,,,,,,,,,,,,,,,,,,,,,,,,,,,,,,,,,,,,,,,,
,,,,,,,,,,,,5ebee9008ccaaa2ac3e1d210,21,Mężczyzna,2022-06-11_09h42.19.901,task,2021.1.4,Win32,74.93443237,6299f149e92ead563fba08ef,62a44672d2dd1bef33832b0b,,,,,,,,,,,,,4,"[""4""]",1,[4.503100000023835],"[16.818000000000012,3.2833000000715344,2.780499999999961,2.0536000000238346,1.7971000000238746,2.353800000071544,1.5409000000954052,3.1757999999522895,4.503100000023835]",0,8,8,4,1,Practice,5,(2x6) - 8,4,,,,,,,,,,,,,,,,,,,,,,,,,,,,,,,,,,,,,,,,,,,,,,,,,,,,,,,,,,,,,,,,,,,,,,,,,,,
,,,,,,,,,,,,5ebee9008ccaaa2ac3e1d210,21,Mężczyzna,2022-06-11_09h42.19.901,task,2021.1.4,Win32,74.93443237,6299f149e92ead563fba08ef,62a44672d2dd1bef33832b0b,,,,,,,,,,,,,5,"[""5""]",1,[1.6872999999523586],"[16.818000000000012,3.2833000000715344,2.780499999999961,2.0536000000238346,1.7971000000238746,2.353800000071544,1.5409000000954052,3.1757999999522895,4.503100000023835,1.6872999999523586]",0,9,9,5,1,Practice,6,(4/2) + 3,5,,,,,,,,,,,,,,,,,,,,,,,,,,,,,,,,,,,,,,,,,,,,,,,,,,,,,,,,,,,,,,,,,,,,,,,,,,,
,,,,,,,,,,,,5ebee9008ccaaa2ac3e1d210,21,Mężczyzna,2022-06-11_09h42.19.901,task,2021.1.4,Win32,74.93443237,6299f149e92ead563fba08ef,62a44672d2dd1bef33832b0b,,,,,,,,,,,,,,,,,,,,,,,,,,,1,39.9934,2.666226667,207.7532555,3.721587972,12.26792364,space,2.1685,0,0,0,0,1,,,,,,,,,,,,,,,,,,,,,,,,,,,,,,,,,,,,,,,,,,,,,,,,,,,,,,,,,,,,,,
,,,,,,,,,,,,5ebee9008ccaaa2ac3e1d210,21,Mężczyzna,2022-06-11_09h42.19.901,task,2021.1.4,Win32,74.93443237,6299f149e92ead563fba08ef,62a44672d2dd1bef33832b0b,,,,,,,,,,,,,5,,,,,,,,,,Practice,6,(4/2) + 3,5,,,,,,,,,,,,,,space,19.6283,"[""5""]",1,[2.9983999999761295],1,0,0,0,5,1,,,,,,,,,,,,,,,,,,,,,,,,,,,,,,,,,,,,,,,,,,,,,,,,,,,
,,,,,,,,,,,X V Q F H G B L J M P D K C T S W R N Z,5ebee9008ccaaa2ac3e1d210,21,Mężczyzna,2022-06-11_09h42.19.901,task,2021.1.4,Win32,74.93443237,6299f149e92ead563fba08ef,62a44672d2dd1bef33832b0b,,,,,,,,,,,,,,,,,,,,,,,,,,,,,,,,,,,,,,,,,,,,,,,,,,,0,0,0,0,1,,,,,,,,,,,,,,,,,,,,,,,,,,,,,,,,,,,,,,,,,,,,,,
,,,,,,,,,,,,5ebee9008ccaaa2ac3e1d210,21,Mężczyzna,2022-06-11_09h42.19.901,task,2021.1.4,Win32,74.93443237,6299f149e92ead563fba08ef,62a44672d2dd1bef33832b0b,,,,,,,,,,,,,9,,,,,,,,,,Practice,10,(20/2) - 1,9,,,,,,,,,,,,,,,,"[""9""]",1,[7.577700000047685],1,0,0,0,9,1,,,,,,,,,,,,,,,,,,,,,,,,,,,,,,,,,,,,,,,,,,,,,,,,,,,
,,,,,,,,,,,X V Q F H G B L J M P D K C T S W R N Z,5ebee9008ccaaa2ac3e1d210,21,Mężczyzna,2022-06-11_09h42.19.901,task,2021.1.4,Win32,74.93443237,6299f149e92ead563fba08ef,62a44672d2dd1bef33832b0b,,,,,,,,,,,,,,,,,,,,,,,,,,,,,,,,,,,,,,,,,,,,,,,,,,,1,0,1,0,1,,,,,,,,,,,,,,,,,,,,,,,,,,,,,,,,,,,,,,,,,,,,,,
,,,,,,,,,,,,5ebee9008ccaaa2ac3e1d210,21,Mężczyzna,2022-06-11_09h42.19.901,task,2021.1.4,Win32,74.93443237,6299f149e92ead563fba08ef,62a44672d2dd1bef33832b0b,,,,,,,,,,,,,,,,,,,,,,,,,,,,,,,,,,,,,,,,,,,,,,,,,,,,,,,,zw,"[""z"",""w""]",0,"[1.9136000000238482,2.7336000000238414,3.3859999999999673]",1,0,0,0,0,1,,,,,,,,,,,,,,,,,,,,,,,,,,,,,,,,,,,,
,,,,,,,,,,,,5ebee9008ccaaa2ac3e1d210,21,Mężczyzna,2022-06-11_09h42.19.901,task,2021.1.4,Win32,74.93443237,6299f149e92ead563fba08ef,62a44672d2dd1bef33832b0b,,,,,,,,,,,,,8,,,,,,,,,,Practice,9,(3x3) - 1,8,,,,,,,,,,,,,,,,"[""8""]",1,[3.8096000000238064],1,0,0,0,8,1,,,,,,,,,,,,,,,,,,,,,,,,,,,,,,,,,,,,,,,,,,,,,,,,,,,
,,,,,,,,,,,X V Q F H G B L J M P D K C T S W R N Z,5ebee9008ccaaa2ac3e1d210,21,Mężczyzna,2022-06-11_09h42.19.901,task,2021.1.4,Win32,74.93443237,6299f149e92ead563fba08ef,62a44672d2dd1bef33832b0b,,,,,,,,,,,,,,,,,,,,,,,,,,,,,,,,,,,,,,,,,,,,,,,,,,,0,0,0,0,1,,,,,,,,,,,,,,,,,,,,,,,,,,,,,,,,,,,,,,,,,,,,,,
,,,,,,,,,,,,5ebee9008ccaaa2ac3e1d210,21,Mężczyzna,2022-06-11_09h42.19.901,task,2021.1.4,Win32,74.93443237,6299f149e92ead563fba08ef,62a44672d2dd1bef33832b0b,,,,,,,,,,,,,6,,,,,,,,,,Practice,7,(25/5) + 1,6,,,,,,,,,,,,,,,,"[""6""]",1,[3.4232999999522917],1,0,0,0,6,1,,,,,,,,,,,,,,,,,,,,,,,,,,,,,,,,,,,,,,,,,,,,,,,,,,,
,,,,,,,,,,,X V Q F H G B L J M P D K C T S W R N Z,5ebee9008ccaaa2ac3e1d210,21,Mężczyzna,2022-06-11_09h42.19.901,task,2021.1.4,Win32,74.93443237,6299f149e92ead563fba08ef,62a44672d2dd1bef33832b0b,,,,,,,,,,,,,,,,,,,,,,,,,,,,,,,,,,,,,,,,,,,,,,,,,,,1,0,1,0,1,,,,,,,,,,,,,,,,,,,,,,,,,,,,,,,,,,,,,,,,,,,,,,
,,,,,,,,,,,,5ebee9008ccaaa2ac3e1d210,21,Mężczyzna,2022-06-11_09h42.19.901,task,2021.1.4,Win32,74.93443237,6299f149e92ead563fba08ef,62a44672d2dd1bef33832b0b,,,,,,,,,,,,,,,,,,,,,,,,,,,,,,,,,,,,,,,,,,,,,,,,,,,,,,,,wd,"[""w"",""d""]",0,"[1.7162000000476496,1.807800000071495,5.442700000047694]",1,1,0,1,0,1,,,,,,,,,,,,,,,,,,,,,,,,,,,,,,,,,,,,
,,,,,,,,,,,,5ebee9008ccaaa2ac3e1d210,21,Mężczyzna,2022-06-11_09h42.19.901,task,2021.1.4,Win32,74.93443237,6299f149e92ead563fba08ef,62a44672d2dd1bef33832b0b,,,,,,,,,,,,,6,,,,,,,,,,Practice,7,(25/5) + 1,6,,,,,,,,,,,,,,,,"[""6""]",1,[3.2533000000714765],1,0,0,0,6,1,,,,,,,,,,,,,,,,,,,,,,,,,,,,,,,,,,,,,,,,,,,,,,,,,,,
,,,,,,,,,,,X V Q F H G B L J M P D K C T S W R N Z,5ebee9008ccaaa2ac3e1d210,21,Mężczyzna,2022-06-11_09h42.19.901,task,2021.1.4,Win32,74.93443237,6299f149e92ead563fba08ef,62a44672d2dd1bef33832b0b,,,,,,,,,,,,,,,,,,,,,,,,,,,,,,,,,,,,,,,,,,,,,,,,,,,0,0,0,0,1,,,,,,,,,,,,,,,,,,,,,,,,,,,,,,,,,,,,,,,,,,,,,,
,,,,,,,,,,,,5ebee9008ccaaa2ac3e1d210,21,Mężczyzna,2022-06-11_09h42.19.901,task,2021.1.4,Win32,74.93443237,6299f149e92ead563fba08ef,62a44672d2dd1bef33832b0b,,,,,,,,,,,,,2,,,,,,,,,,Practice,3,(4x4) - 14,2,,,,,,,,,,,,,,,,"[""2""]",1,[2.3941000000238546],1,0,0,0,2,1,,,,,,,,,,,,,,,,,,,,,,,,,,,,,,,,,,,,,,,,,,,,,,,,,,,
,,,,,,,,,,,X V Q F H G B L J M P D K C T S W R N Z,5ebee9008ccaaa2ac3e1d210,21,Mężczyzna,2022-06-11_09h42.19.901,task,2021.1.4,Win32,74.93443237,6299f149e92ead563fba08ef,62a44672d2dd1bef33832b0b,,,,,,,,,,,,,,,,,,,,,,,,,,,,,,,,,,,,,,,,,,,,,,,,,,,1,0,1,0,1,,,,,,,,,,,,,,,,,,,,,,,,,,,,,,,,,,,,,,,,,,,,,,
,,,,,,,,,,,,5ebee9008ccaaa2ac3e1d210,21,Mężczyzna,2022-06-11_09h42.19.901,task,2021.1.4,Win32,74.93443237,6299f149e92ead563fba08ef,62a44672d2dd1bef33832b0b,,,,,,,,,,,,,,,,,,,,,,,,,,,,,,,,,,,,,,,,,,,,,,,,,,,,,,,,vw,"[""v"",""w""]",0,"[1.446300000071517,1.593899999976145,2.20770000004768]",1,2,0,2,0,1,,,,,,,,,,,,,,,,,,,,,,,,,,,,,,,,,,,,
,,,,,,,,,,,,5ebee9008ccaaa2ac3e1d210,21,Mężczyzna,2022-06-11_09h42.19.901,task,2021.1.4,Win32,74.93443237,6299f149e92ead563fba08ef,62a44672d2dd1bef33832b0b,,,,,,,,,,,,,2,,,,,,,,,,Task,26,(2x9) - 16,2,,,,,,,,,,,,,,,,,,,1,,,,,,,,,,,,,,,,,,,,,space,61.9107,"[""2""]",1,[2.1657999999523554],0,0,0,25,1,,,,,,,,,,,,,,,,,,,,,,,,,,
,,,,,,,,,,,X V Q F H G B L J M P D K C T S W R N Z,5ebee9008ccaaa2ac3e1d210,21,Mężczyzna,2022-06-11_09h42.19.901,task,2021.1.4,Win32,74.93443237,6299f149e92ead563fba08ef,62a44672d2dd1bef33832b0b,,,,,,,,,,,,,,,,,,,,,,,,,,,,,,,,,,,,,,,,,,,,,,,,,,,,,,,,,,,,,,,,,,,,,,,,,,,,0,0,0,0,1,,,,,,,,,,,,,,,,,,,,,
,,,,,,,,,,,,5ebee9008ccaaa2ac3e1d210,21,Mężczyzna,2022-06-11_09h42.19.901,task,2021.1.4,Win32,74.93443237,6299f149e92ead563fba08ef,62a44672d2dd1bef33832b0b,,,,,,,,,,,,,6,,,,,,,,,,Task,5,(2x3) + 0,6,,,,,,,,,,,,,,,,,,,1,,,,,,,,,,,,,,,,,,,,,,,"[""6""]",1,[3.102099999904624],0,0,0,4,1,,,,,,,,,,,,,,,,,,,,,,,,,,
,,,,,,,,,,,X V Q F H G B L J M P D K C T S W R N Z,5ebee9008ccaaa2ac3e1d210,21,Mężczyzna,2022-06-11_09h42.19.901,task,2021.1.4,Win32,74.93443237,6299f149e92ead563fba08ef,62a44672d2dd1bef33832b0b,,,,,,,,,,,,,,,,,,,,,,,,,,,,,,,,,,,,,,,,,,,,,,,,,,,,,,,,,,,,,,,,,,,,,,,,,,,,1,0,1,0,1,,,,,,,,,,,,,,,,,,,,,
,,,,,,,,,,,,5ebee9008ccaaa2ac3e1d210,21,Mężczyzna,2022-06-11_09h42.19.901,task,2021.1.4,Win32,74.93443237,6299f149e92ead563fba08ef,62a44672d2dd1bef33832b0b,,,,,,,,,,,,,,,,,,,,,,,,,,,,,,,,,,,,,,,,,,,,,,,,,,,,,,,,,,,,,,,,,,,,,,,,,,,,,,,,,zh,"[""z"",""h""]",0,"[1.3269999999999982,1.475100000023815,1.7928999999761572]",1,ZH,0,0,0,0,1,,,,,,,,,,
,,,,,,,,,,,,5ebee9008ccaaa2ac3e1d210,21,Mężczyzna,2022-06-11_09h42.19.901,task,2021.1.4,Win32,74.93443237,6299f149e92ead563fba08ef,62a44672d2dd1bef33832b0b,,,,,,,,,,,,,9,,,,,,,,,,Task,7,(3x7) - 12,9,,,,,,,,,,,,,,,,,,,1,,,,,,,,,,,,,,,,,,,,,,,"[""9""]",1,[4.7822000000476805],0,0,0,6,1,,,,,,,,,,,,,,,,,,,,,,,,,,
,,,,,,,,,,,X V Q F H G B L J M P D K C T S W R N Z,5ebee9008ccaaa2ac3e1d210,21,Mężczyzna,2022-06-11_09h42.19.901,task,2021.1.4,Win32,74.93443237,6299f149e92ead563fba08ef,62a44672d2dd1bef33832b0b,,,,,,,,,,,,,,,,,,,,,,,,,,,,,,,,,,,,,,,,,,,,,,,,,,,,,,,,,,,,,,,,,,,,,,,,,,,,0,0,0,0,1,,,,,,,,,,,,,,,,,,,,,
,,,,,,,,,,,,5ebee9008ccaaa2ac3e1d210,21,Mężczyzna,2022-06-11_09h42.19.901,task,2021.1.4,Win32,74.93443237,6299f149e92ead563fba08ef,62a44672d2dd1bef33832b0b,,,,,,,,,,,,,9,,,,,,,,,,Task,24,(2x2) + 5,9,,,,,,,,,,,,,,,,,,,1,,,,,,,,,,,,,,,,,,,,,,,"[""9""]",1,[4.280200000047671],0,0,0,23,1,,,,,,,,,,,,,,,,,,,,,,,,,,
,,,,,,,,,,,X V Q F H G B L J M P D K C T S W R N Z,5ebee9008ccaaa2ac3e1d210,21,Mężczyzna,2022-06-11_09h42.19.901,task,2021.1.4,Win32,74.93443237,6299f149e92ead563fba08ef,62a44672d2dd1bef33832b0b,,,,,,,,,,,,,,,,,,,,,,,,,,,,,,,,,,,,,,,,,,,,,,,,,,,,,,,,,,,,,,,,,,,,,,,,,,,,1,0,1,0,1,,,,,,,,,,,,,,,,,,,,,
,,,,,,,,,,,,5ebee9008ccaaa2ac3e1d210,21,Mężczyzna,2022-06-11_09h42.19.901,task,2021.1.4,Win32,74.93443237,6299f149e92ead563fba08ef,62a44672d2dd1bef33832b0b,,,,,,,,,,,,,1,,,,,,,,,,Task,18,(16/4) - 3,1,,,,,,,,,,,,,,,,,,,1,,,,,,,,,,,,,,,,,,,,,,,"[""1""]",1,[3.9555999999046207],0,0,0,17,1,,,,,,,,,,,,,,,,,,,,,,,,,,
,,,,,,,,,,,X V Q F H G B L J M P D K C T S W R N Z,5ebee9008ccaaa2ac3e1d210,21,Mężczyzna,2022-06-11_09h42.19.901,task,2021.1.4,Win32,74.93443237,6299f149e92ead563fba08ef,62a44672d2dd1bef33832b0b,,,,,,,,,,,,,,,,,,,,,,,,,,,,,,,,,,,,,,,,,,,,,,,,,,,,,,,,,,,,,,,,,,,,,,,,,,,,2,0,2,0,1,,,,,,,,,,,,,,,,,,,,,
,,,,,,,,,,,,5ebee9008ccaaa2ac3e1d210,21,Mężczyzna,2022-06-11_09h42.19.901,task,2021.1.4,Win32,74.93443237,6299f149e92ead563fba08ef,62a44672d2dd1bef33832b0b,,,,,,,,,,,,,,,,,,,,,,,,,,,,,,,,,,,,,,,,,,,,,,,,,,,,,,,,,,,,,,,,,,,,,,,,,,,,,,,,,vqj,"[""v"",""q"",""j""]",0,"[1.5053000000715429,1.9554000000953806,2.2753000000715247,2.7952000000476573]",1,VQJ,1,0,1,0,1,,,,,,,,,,
,,,,,,,,,,,,5ebee9008ccaaa2ac3e1d210,21,Mężczyzna,2022-06-11_09h42.19.901,task,2021.1.4,Win32,74.93443237,6299f149e92ead563fba08ef,62a44672d2dd1bef33832b0b,,,,,,,,,,,,,1,,,,,,,,,,Task,34,(9/3) - 2,1,,,,,,,,,,,,,,,,,,,1,,,,,,,,,,,,,,,,,,,,,,,"[""1""]",1,[4.147299999952338],0,0,0,33,1,,,,,,,,,,,,,,,,,,,,,,,,,,
,,,,,,,,,,,X V Q F H G B L J M P D K C T S W R N Z,5ebee9008ccaaa2ac3e1d210,21,Mężczyzna,2022-06-11_09h42.19.901,task,2021.1.4,Win32,74.93443237,6299f149e92ead563fba08ef,62a44672d2dd1bef33832b0b,,,,,,,,,,,,,,,,,,,,,,,,,,,,,,,,,,,,,,,,,,,,,,,,,,,,,,,,,,,,,,,,,,,,,,,,,,,,0,0,0,0,1,,,,,,,,,,,,,,,,,,,,,
,,,,,,,,,,,,5ebee9008ccaaa2ac3e1d210,21,Mężczyzna,2022-06-11_09h42.19.901,task,2021.1.4,Win32,74.93443237,6299f149e92ead563fba08ef,62a44672d2dd1bef33832b0b,,,,,,,,,,,,,4,,,,,,,,,,Task,28,(2x5) - 6,4,,,,,,,,,,,,,,,,,,,1,,,,,,,,,,,,,,,,,,,,,,,"[""4""]",1,[1.7571000000238541],0,0,0,27,1,,,,,,,,,,,,,,,,,,,,,,,,,,
,,,,,,,,,,,X V Q F H G B L J M P D K C T S W R N Z,5ebee9008ccaaa2ac3e1d210,21,Mężczyzna,2022-06-11_09h42.19.901,task,2021.1.4,Win32,74.93443237,6299f149e92ead563fba08ef,62a44672d2dd1bef33832b0b,,,,,,,,,,,,,,,,,,,,,,,,,,,,,,,,,,,,,,,,,,,,,,,,,,,,,,,,,,,,,,,,,,,,,,,,,,,,1,0,1,0,1,,,,,,,,,,,,,,,,,,,,,
,,,,,,,,,,,,5ebee9008ccaaa2ac3e1d210,21,Mężczyzna,2022-06-11_09h42.19.901,task,2021.1.4,Win32,74.93443237,6299f149e92ead563fba08ef,62a44672d2dd1bef33832b0b,,,,,,,,,,,,,8,,,,,,,,,,Task,23,(2x3) + 2,8,,,,,,,,,,,,,,,,,,,1,,,,,,,,,,,,,,,,,,,,,,,"[""8""]",1,[2.3286000000238687],0,0,0,22,1,,,,,,,,,,,,,,,,,,,,,,,,,,
,,,,,,,,,,,X V Q F H G B L J M P D K C T S W R N Z,5ebee9008ccaaa2ac3e1d210,21,Mężczyzna,2022-06-11_09h42.19.901,task,2021.1.4,Win32,74.93443237,6299f149e92ead563fba08ef,62a44672d2dd1bef33832b0b,,,,,,,,,,,,,,,,,,,,,,,,,,,,,,,,,,,,,,,,,,,,,,,,,,,,,,,,,,,,,,,,,,,,,,,,,,,,2,0,2,0,1,,,,,,,,,,,,,,,,,,,,,
,,,,,,,,,,,,5ebee9008ccaaa2ac3e1d210,21,Mężczyzna,2022-06-11_09h42.19.901,task,2021.1.4,Win32,74.93443237,6299f149e92ead563fba08ef,62a44672d2dd1bef33832b0b,,,,,,,,,,,,,5,,,,,,,,,,Task,36,(8/4) + 3,5,,,,,,,,,,,,,,,,,,,1,,,,,,,,,,,,,,,,,,,,,,,"[""5""]",1,[3.3689000000953797],0,0,0,35,1,,,,,,,,,,,,,,,,,,,,,,,,,,
,,,,,,,,,,,X V Q F H G B L J M P D K C T S W R N Z,5ebee9008ccaaa2ac3e1d210,21,Mężczyzna,2022-06-11_09h42.19.901,task,2021.1.4,Win32,74.93443237,6299f149e92ead563fba08ef,62a44672d2dd1bef33832b0b,,,,,,,,,,,,,,,,,,,,,,,,,,,,,,,,,,,,,,,,,,,,,,,,,,,,,,,,,,,,,,,,,,,,,,,,,,,,3,0,3,0,1,,,,,,,,,,,,,,,,,,,,,
,,,,,,,,,,,,5ebee9008ccaaa2ac3e1d210,21,Mężczyzna,2022-06-11_09h42.19.901,task,2021.1.4,Win32,74.93443237,6299f149e92ead563fba08ef,62a44672d2dd1bef33832b0b,,,,,,,,,,,,,,,,,,,,,,,,,,,,,,,,,,,,,,,,,,,,,,,,,,,,,,,,,,,,,,,,,,,,,,,,,,,,,,,,,nllb,"[""n"",""l"",""l"",""b""]",0,"[1.25,1.5010000000000332,1.6730000000000018,1.809100000023875,3.4361000000238278]",1,NLLB,2,0,2,0,1,,,,,,,,,,
,,,,,,,,,,,,5ebee9008ccaaa2ac3e1d210,21,Mężczyzna,2022-06-11_09h42.19.901,task,2021.1.4,Win32,74.93443237,6299f149e92ead563fba08ef,62a44672d2dd1bef33832b0b,,,,,,,,,,,,,7,,,,,,,,,,Task,14,(2x2) + 3,7,,,,,,,,,,,,,,,,,,,1,,,,,,,,,,,,,,,,,,,,,,,"[""7""]",1,[2.5953999999761663],0,0,0,13,1,,,,,,,,,,,,,,,,,,,,,,,,,,
,,,,,,,,,,,X V Q F H G B L J M P D K C T S W R N Z,5ebee9008ccaaa2ac3e1d210,21,Mężczyzna,2022-06-11_09h42.19.901,task,2021.1.4,Win32,74.93443237,6299f149e92ead563fba08ef,62a44672d2dd1bef33832b0b,,,,,,,,,,,,,,,,,,,,,,,,,,,,,,,,,,,,,,,,,,,,,,,,,,,,,,,,,,,,,,,,,,,,,,,,,,,,0,0,0,0,1,,,,,,,,,,,,,,,,,,,,,
,,,,,,,,,,,,5ebee9008ccaaa2ac3e1d210,21,Mężczyzna,2022-06-11_09h42.19.901,task,2021.1.4,Win32,74.93443237,6299f149e92ead563fba08ef,62a44672d2dd1bef33832b0b,,,,,,,,,,,,,8,,,,,,,,,,Task,23,(2x3) + 2,8,,,,,,,,,,,,,,,,,,,1,,,,,,,,,,,,,,,,,,,,,,,"[""8""]",1,[2.3935000000000173],0,0,0,22,1,,,,,,,,,,,,,,,,,,,,,,,,,,
,,,,,,,,,,,X V Q F H G B L J M P D K C T S W R N Z,5ebee9008ccaaa2ac3e1d210,21,Mężczyzna,2022-06-11_09h42.19.901,task,2021.1.4,Win32,74.93443237,6299f149e92ead563fba08ef,62a44672d2dd1bef33832b0b,,,,,,,,,,,,,,,,,,,,,,,,,,,,,,,,,,,,,,,,,,,,,,,,,,,,,,,,,,,,,,,,,,,,,,,,,,,,1,0,1,0,1,,,,,,,,,,,,,,,,,,,,,
,,,,,,,,,,,,5ebee9008ccaaa2ac3e1d210,21,Mężczyzna,2022-06-11_09h42.19.901,task,2021.1.4,Win32,74.93443237,6299f149e92ead563fba08ef,62a44672d2dd1bef33832b0b,,,,,,,,,,,,,7,,,,,,,,,,Task,31,(4/2) + 5,7,,,,,,,,,,,,,,,,,,,1,,,,,,,,,,,,,,,,,,,,,,,"[""7""]",1,[3.7208999999762113],0,0,0,30,1,,,,,,,,,,,,,,,,,,,,,,,,,,
,,,,,,,,,,,X V Q F H G B L J M P D K C T S W R N Z,5ebee9008ccaaa2ac3e1d210,21,Mężczyzna,2022-06-11_09h42.19.901,task,2021.1.4,Win32,74.93443237,6299f149e92ead563fba08ef,62a44672d2dd1bef33832b0b,,,,,,,,,,,,,,,,,,,,,,,,,,,,,,,,,,,,,,,,,,,,,,,,,,,,,,,,,,,,,,,,,,,,,,,,,,,,2,0,2,0,1,,,,,,,,,,,,,,,,,,,,,
,,,,,,,,,,,,5ebee9008ccaaa2ac3e1d210,21,Mężczyzna,2022-06-11_09h42.19.901,task,2021.1.4,Win32,74.93443237,6299f149e92ead563fba08ef,62a44672d2dd1bef33832b0b,,,,,,,,,,,,,0,,,,,,,,,,Task,25,(10/5) - 2,0,,,,,,,,,,,,,,,,,,,1,,,,,,,,,,,,,,,,,,,,,,,"[""0""]",1,[3.80210000002387],0,0,0,24,1,,,,,,,,,,,,,,,,,,,,,,,,,,
,,,,,,,,,,,X V Q F H G B L J M P D K C T S W R N Z,5ebee9008ccaaa2ac3e1d210,21,Mężczyzna,2022-06-11_09h42.19.901,task,2021.1.4,Win32,74.93443237,6299f149e92ead563fba08ef,62a44672d2dd1bef33832b0b,,,,,,,,,,,,,,,,,,,,,,,,,,,,,,,,,,,,,,,,,,,,,,,,,,,,,,,,,,,,,,,,,,,,,,,,,,,,3,0,3,0,1,,,,,,,,,,,,,,,,,,,,,
,,,,,,,,,,,,5ebee9008ccaaa2ac3e1d210,21,Mężczyzna,2022-06-11_09h42.19.901,task,2021.1.4,Win32,74.93443237,6299f149e92ead563fba08ef,62a44672d2dd1bef33832b0b,,,,,,,,,,,,,7,,,,,,,,,,Task,31,(4/2) + 5,7,,,,,,,,,,,,,,,,,,,1,,,,,,,,,,,,,,,,,,,,,,,"[""7""]",1,[2.610500000000002],0,0,0,30,1,,,,,,,,,,,,,,,,,,,,,,,,,,
,,,,,,,,,,,X V Q F H G B L J M P D K C T S W R N Z,5ebee9008ccaaa2ac3e1d210,21,Mężczyzna,2022-06-11_09h42.19.901,task,2021.1.4,Win32,74.93443237,6299f149e92ead563fba08ef,62a44672d2dd1bef33832b0b,,,,,,,,,,,,,,,,,,,,,,,,,,,,,,,,,,,,,,,,,,,,,,,,,,,,,,,,,,,,,,,,,,,,,,,,,,,,4,0,4,0,1,,,,,,,,,,,,,,,,,,,,,
,,,,,,,,,,,,5ebee9008ccaaa2ac3e1d210,21,Mężczyzna,2022-06-11_09h42.19.901,task,2021.1.4,Win32,74.93443237,6299f149e92ead563fba08ef,62a44672d2dd1bef33832b0b,,,,,,,,,,,,,,,,,,,,,,,,,,,,,,,,,,,,,,,,,,,,,,,,,,,,,,,,,,,,,,,,,,,,,,,,,,,,,,,,,hzhd,"[""h"",""z"",""h"",""d""]",0,"[1.532000000000039,2.7425000000000637,3.2502000000476983,3.7348999999761645,5.78520000004778]",0,HDZHD,3,0,3,0,1,,,,,,,,,,
,,,,,,,,,,,,5ebee9008ccaaa2ac3e1d210,21,Mężczyzna,2022-06-11_09h42.19.901,task,2021.1.4,Win32,74.93443237,6299f149e92ead563fba08ef,62a44672d2dd1bef33832b0b,,,,,,,,,,,,,9,,,,,,,,,,Task,24,(2x2) + 5,9,,,,,,,,,,,,,,,,,,,1,,,,,,,,,,,,,,,,,,,,,,,"[""9""]",1,[7.2661000000239255],0,0,0,23,1,,,,,,,,,,,,,,,,,,,,,,,,,,
,,,,,,,,,,,X V Q F H G B L J M P D K C T S W R N Z,5ebee9008ccaaa2ac3e1d210,21,Mężczyzna,2022-06-11_09h42.19.901,task,2021.1.4,Win32,74.93443237,6299f149e92ead563fba08ef,62a44672d2dd1bef33832b0b,,,,,,,,,,,,,,,,,,,,,,,,,,,,,,,,,,,,,,,,,,,,,,,,,,,,,,,,,,,,,,,,,,,,,,,,,,,,0,0,0,0,1,,,,,,,,,,,,,,,,,,,,,
,,,,,,,,,,,,5ebee9008ccaaa2ac3e1d210,21,Mężczyzna,2022-06-11_09h42.19.901,task,2021.1.4,Win32,74.93443237,6299f149e92ead563fba08ef,62a44672d2dd1bef33832b0b,,,,,,,,,,,,,6,,,,,,,,,,Task,13,(3x4) - 6,6,,,,,,,,,,,,,,,,,,,1,,,,,,,,,,,,,,,,,,,,,,,"[""6""]",1,[3.1961000000238755],0,0,0,12,1,,,,,,,,,,,,,,,,,,,,,,,,,,
,,,,,,,,,,,X V Q F H G B L J M P D K C T S W R N Z,5ebee9008ccaaa2ac3e1d210,21,Mężczyzna,2022-06-11_09h42.19.901,task,2021.1.4,Win32,74.93443237,6299f149e92ead563fba08ef,62a44672d2dd1bef33832b0b,,,,,,,,,,,,,,,,,,,,,,,,,,,,,,,,,,,,,,,,,,,,,,,,,,,,,,,,,,,,,,,,,,,,,,,,,,,,1,0,1,0,1,,,,,,,,,,,,,,,,,,,,,
,,,,,,,,,,,,5ebee9008ccaaa2ac3e1d210,21,Mężczyzna,2022-06-11_09h42.19.901,task,2021.1.4,Win32,74.93443237,6299f149e92ead563fba08ef,62a44672d2dd1bef33832b0b,,,,,,,,,,,,,7,,,,,,,,,,Task,38,(4x6) - 17,7,,,,,,,,,,,,,,,,,,,1,,,,,,,,,,,,,,,,,,,,,,,"[""7""]",1,[7.199999999999932],0,0,0,37,1,,,,,,,,,,,,,,,,,,,,,,,,,,
,,,,,,,,,,,X V Q F H G B L J M P D K C T S W R N Z,5ebee9008ccaaa2ac3e1d210,21,Mężczyzna,2022-06-11_09h42.19.901,task,2021.1.4,Win32,74.93443237,6299f149e92ead563fba08ef,62a44672d2dd1bef33832b0b,,,,,,,,,,,,,,,,,,,,,,,,,,,,,,,,,,,,,,,,,,,,,,,,,,,,,,,,,,,,,,,,,,,,,,,,,,,,2,0,2,0,1,,,,,,,,,,,,,,,,,,,,,
,,,,,,,,,,,,5ebee9008ccaaa2ac3e1d210,21,Mężczyzna,2022-06-11_09h42.19.901,task,2021.1.4,Win32,74.93443237,6299f149e92ead563fba08ef,62a44672d2dd1bef33832b0b,,,,,,,,,,,,,8,,,,,,,,,,Task,15,(3x7) - 13,8,,,,,,,,,,,,,,,,,,,1,,,,,,,,,,,,,,,,,,,,,,,"[""8""]",1,[4.315700000047627],0,0,0,14,1,,,,,,,,,,,,,,,,,,,,,,,,,,
,,,,,,,,,,,X V Q F H G B L J M P D K C T S W R N Z,5ebee9008ccaaa2ac3e1d210,21,Mężczyzna,2022-06-11_09h42.19.901,task,2021.1.4,Win32,74.93443237,6299f149e92ead563fba08ef,62a44672d2dd1bef33832b0b,,,,,,,,,,,,,,,,,,,,,,,,,,,,,,,,,,,,,,,,,,,,,,,,,,,,,,,,,,,,,,,,,,,,,,,,,,,,3,0,3,0,1,,,,,,,,,,,,,,,,,,,,,
,,,,,,,,,,,,5ebee9008ccaaa2ac3e1d210,21,Mężczyzna,2022-06-11_09h42.19.901,task,2021.1.4,Win32,74.93443237,6299f149e92ead563fba08ef,62a44672d2dd1bef33832b0b,,,,,,,,,,,,,8,,,,,,,,,,Task,23,(2x3) + 2,8,,,,,,,,,,,,,,,,,,,1,,,,,,,,,,,,,,,,,,,,,,,"[""8""]",1,[2.6219999999999573],0,0,0,22,1,,,,,,,,,,,,,,,,,,,,,,,,,,
,,,,,,,,,,,X V Q F H G B L J M P D K C T S W R N Z,5ebee9008ccaaa2ac3e1d210,21,Mężczyzna,2022-06-11_09h42.19.901,task,2021.1.4,Win32,74.93443237,6299f149e92ead563fba08ef,62a44672d2dd1bef33832b0b,,,,,,,,,,,,,,,,,,,,,,,,,,,,,,,,,,,,,,,,,,,,,,,,,,,,,,,,,,,,,,,,,,,,,,,,,,,,4,0,4,0,1,,,,,,,,,,,,,,,,,,,,,
,,,,,,,,,,,,5ebee9008ccaaa2ac3e1d210,21,Mężczyzna,2022-06-11_09h42.19.901,task,2021.1.4,Win32,74.93443237,6299f149e92ead563fba08ef,62a44672d2dd1bef33832b0b,,,,,,,,,,,,,,,,,,,,,,,,,,,,,,,,,,,,,,,,,,,,,,,,,,,,,,,,,,,,,,,,,,,,,,,,,,,,,,,,,fpzld,"[""f"",""p"",""z"",""l"",""d""]",0,"[2.774600000023838,3.12860000002388,7.4536000000239255,7.920399999976212,8.120600000023842,10.072399999976255]",1,FPZLD,4,0,4,0,1,,,,,,,,,,
,,,,,,,,,,,,5ebee9008ccaaa2ac3e1d210,21,Mężczyzna,2022-06-11_09h42.19.901,task,2021.1.4,Win32,74.93443237,6299f149e92ead563fba08ef,62a44672d2dd1bef33832b0b,,,,,,,,,,,,,,,,,,,,,,,Task,38,(4x6) - 17,7,,,,,,,,,,,,,,,,,,,0,,,,,,,,,,,,,,,,,,,,,,,,0,,0,0,0,37,1,,,,,,,,,,,,,,,,,,,,,,,,,,
,,,,,,,,,,,,5ebee9008ccaaa2ac3e1d210,21,Mężczyzna,2022-06-11_09h42.19.901,task,2021.1.4,Win32,74.93443237,6299f149e92ead563fba08ef,62a44672d2dd1bef33832b0b,,,,,,,,,,,,,3,,,,,,,,,,Task,3,(2x3) - 3,3,,,,,,,,,,,,,,,,,,,1,,,,,,,,,,,,,,,,,,,,,,,"[""3""]",1,[2.569100000023809],0,1,1,2,1,,,,,,,,,,,,,,,,,,,,,,,,,,
,,,,,,,,,,,X V Q F H G B L J M P D K C T S W R N Z,5ebee9008ccaaa2ac3e1d210,21,Mężczyzna,2022-06-11_09h42.19.901,task,2021.1.4,Win32,74.93443237,6299f149e92ead563fba08ef,62a44672d2dd1bef33832b0b,,,,,,,,,,,,,,,,,,,,,,,,,,,,,,,,,,,,,,,,,,,,,,,,,,,,,,,,,,,,,,,,,,,,,,,,,,,,0,0,0,0,1,,,,,,,,,,,,,,,,,,,,,
,,,,,,,,,,,,5ebee9008ccaaa2ac3e1d210,21,Mężczyzna,2022-06-11_09h42.19.901,task,2021.1.4,Win32,74.93443237,6299f149e92ead563fba08ef,62a44672d2dd1bef33832b0b,,,,,,,,,,,,,7,,,,,,,,,,Task,14,(2x2) + 3,7,,,,,,,,,,,,,,,,,,,1,,,,,,,,,,,,,,,,,,,,,,,"[""7""]",1,[2.63669999992851],0,0,0,13,1,,,,,,,,,,,,,,,,,,,,,,,,,,
,,,,,,,,,,,X V Q F H G B L J M P D K C T S W R N Z,5ebee9008ccaaa2ac3e1d210,21,Mężczyzna,2022-06-11_09h42.19.901,task,2021.1.4,Win32,74.93443237,6299f149e92ead563fba08ef,62a44672d2dd1bef33832b0b,,,,,,,,,,,,,,,,,,,,,,,,,,,,,,,,,,,,,,,,,,,,,,,,,,,,,,,,,,,,,,,,,,,,,,,,,,,,1,0,1,0,1,,,,,,,,,,,,,,,,,,,,,
,,,,,,,,,,,,5ebee9008ccaaa2ac3e1d210,21,Mężczyzna,2022-06-11_09h42.19.901,task,2021.1.4,Win32,74.93443237,6299f149e92ead563fba08ef,62a44672d2dd1bef33832b0b,,,,,,,,,,,,,1,,,,,,,,,,Task,34,(9/3) - 2,1,,,,,,,,,,,,,,,,,,,1,,,,,,,,,,,,,,,,,,,,,,,"[""1""]",1,[2.6504999999999654],0,0,0,33,1,,,,,,,,,,,,,,,,,,,,,,,,,,
,,,,,,,,,,,X V Q F H G B L J M P D K C T S W R N Z,5ebee9008ccaaa2ac3e1d210,21,Mężczyzna,2022-06-11_09h42.19.901,task,2021.1.4,Win32,74.93443237,6299f149e92ead563fba08ef,62a44672d2dd1bef33832b0b,,,,,,,,,,,,,,,,,,,,,,,,,,,,,,,,,,,,,,,,,,,,,,,,,,,,,,,,,,,,,,,,,,,,,,,,,,,,2,0,2,0,1,,,,,,,,,,,,,,,,,,,,,
,,,,,,,,,,,,5ebee9008ccaaa2ac3e1d210,21,Mężczyzna,2022-06-11_09h42.19.901,task,2021.1.4,Win32,74.93443237,6299f149e92ead563fba08ef,62a44672d2dd1bef33832b0b,,,,,,,,,,,,,8,,,,,,,,,,Task,16,(3x8) - 15,9,,,,,,,,,,,,,,,,,,,0,,,,,,,,,,,,,,,,,,,,,,,"[""8""]",0,[4.66729999995232],0,0,0,15,1,,,,,,,,,,,,,,,,,,,,,,,,,,
,,,,,,,,,,,,5ebee9008ccaaa2ac3e1d210,21,Mężczyzna,2022-06-11_09h42.19.901,task,2021.1.4,Win32,74.93443237,6299f149e92ead563fba08ef,62a44672d2dd1bef33832b0b,,,,,,,,,,,,,9,,,,,,,,,,Task,40,(7x2) - 5,9,,,,,,,,,,,,,,,,,,,1,,,,,,,,,,,,,,,,,,,,,,,"[""9""]",1,[3.3691000000238773],0,1,1,39,1,,,,,,,,,,,,,,,,,,,,,,,,,,
,,,,,,,,,,,X V Q F H G B L J M P D K C T S W R N Z,5ebee9008ccaaa2ac3e1d210,21,Mężczyzna,2022-06-11_09h42.19.901,task,2021.1.4,Win32,74.93443237,6299f149e92ead563fba08ef,62a44672d2dd1bef33832b0b,,,,,,,,,,,,,,,,,,,,,,,,,,,,,,,,,,,,,,,,,,,,,,,,,,,,,,,,,,,,,,,,,,,,,,,,,,,,3,0,3,0,1,,,,,,,,,,,,,,,,,,,,,
,,,,,,,,,,,,5ebee9008ccaaa2ac3e1d210,21,Mężczyzna,2022-06-11_09h42.19.901,task,2021.1.4,Win32,74.93443237,6299f149e92ead563fba08ef,62a44672d2dd1bef33832b0b,,,,,,,,,,,,,9,,,,,,,,,,Task,7,(3x7) - 12,9,,,,,,,,,,,,,,,,,,,1,,,,,,,,,,,,,,,,,,,,,,,"[""9""]",1,[4.169699999928412],0,0,0,6,1,,,,,,,,,,,,,,,,,,,,,,,,,,
,,,,,,,,,,,X V Q F H G B L J M P D K C T S W R N Z,5ebee9008ccaaa2ac3e1d210,21,Mężczyzna,2022-06-11_09h42.19.901,task,2021.1.4,Win32,74.93443237,6299f149e92ead563fba08ef,62a44672d2dd1bef33832b0b,,,,,,,,,,,,,,,,,,,,,,,,,,,,,,,,,,,,,,,,,,,,,,,,,,,,,,,,,,,,,,,,,,,,,,,,,,,,4,0,4,0,1,,,,,,,,,,,,,,,,,,,,,
,,,,,,,,,,,,5ebee9008ccaaa2ac3e1d210,21,Mężczyzna,2022-06-11_09h42.19.901,task,2021.1.4,Win32,74.93443237,6299f149e92ead563fba08ef,62a44672d2dd1bef33832b0b,,,,,,,,,,,,,2,,,,,,,,,,Task,26,(2x9) - 16,2,,,,,,,,,,,,,,,,,,,1,,,,,,,,,,,,,,,,,,,,,,,"[""2""]",1,[3.47950000000003],0,0,0,25,1,,,,,,,,,,,,,,,,,,,,,,,,,,
,,,,,,,,,,,X V Q F H G B L J M P D K C T S W R N Z,5ebee9008ccaaa2ac3e1d210,21,Mężczyzna,2022-06-11_09h42.19.901,task,2021.1.4,Win32,74.93443237,6299f149e92ead563fba08ef,62a44672d2dd1bef33832b0b,,,,,,,,,,,,,,,,,,,,,,,,,,,,,,,,,,,,,,,,,,,,,,,,,,,,,,,,,,,,,,,,,,,,,,,,,,,,5,0,5,0,1,,,,,,,,,,,,,,,,,,,,,
,,,,,,,,,,,,5ebee9008ccaaa2ac3e1d210,21,Mężczyzna,2022-06-11_09h42.19.901,task,2021.1.4,Win32,74.93443237,6299f149e92ead563fba08ef,62a44672d2dd1bef33832b0b,,,,,,,,,,,,,,,,,,,,,,,,,,,,,,,,,,,,,,,,,,,,,,,,,,,,,,,,,,,,,,,,,,,,,,,,,,,,,,,,,ktht,"[""k"",""t"",""h"",""t""]",0,"[2.207499999999982,3.5310000000000628,4.18330000007154,4.382899999976189,5.122899999976198]",0,KTPDHT,5,0,5,0,1,,,,,,,,,,
,,,,,,,,,,,,5ebee9008ccaaa2ac3e1d210,21,Mężczyzna,2022-06-11_09h42.19.901,task,2021.1.4,Win32,74.93443237,6299f149e92ead563fba08ef,62a44672d2dd1bef33832b0b,,,,,,,,,,,,,9,,,,,,,,,,Task,24,(2x2) + 5,9,,,,,,,,,,,,,,,,,,,1,,,,,,,,,,,,,,,,,,,,,,,"[""9""]",1,[1.9175000000000182],0,0,0,23,1,,,,,,,,,,,,,,,,,,,,,,,,,,
,,,,,,,,,,,X V Q F H G B L J M P D K C T S W R N Z,5ebee9008ccaaa2ac3e1d210,21,Mężczyzna,2022-06-11_09h42.19.901,task,2021.1.4,Win32,74.93443237,6299f149e92ead563fba08ef,62a44672d2dd1bef33832b0b,,,,,,,,,,,,,,,,,,,,,,,,,,,,,,,,,,,,,,,,,,,,,,,,,,,,,,,,,,,,,,,,,,,,,,,,,,,,0,0,0,0,1,,,,,,,,,,,,,,,,,,,,,
,,,,,,,,,,,,5ebee9008ccaaa2ac3e1d210,21,Mężczyzna,2022-06-11_09h42.19.901,task,2021.1.4,Win32,74.93443237,6299f149e92ead563fba08ef,62a44672d2dd1bef33832b0b,,,,,,,,,,,,,2,,,,,,,,,,Task,10,(2x5) - 8,2,,,,,,,,,,,,,,,,,,,1,,,,,,,,,,,,,,,,,,,,,,,"[""2""]",1,[2.078999999999951],0,0,0,9,1,,,,,,,,,,,,,,,,,,,,,,,,,,
,,,,,,,,,,,X V Q F H G B L J M P D K C T S W R N Z,5ebee9008ccaaa2ac3e1d210,21,Mężczyzna,2022-06-11_09h42.19.901,task,2021.1.4,Win32,74.93443237,6299f149e92ead563fba08ef,62a44672d2dd1bef33832b0b,,,,,,,,,,,,,,,,,,,,,,,,,,,,,,,,,,,,,,,,,,,,,,,,,,,,,,,,,,,,,,,,,,,,,,,,,,,,1,0,1,0,1,,,,,,,,,,,,,,,,,,,,,
,,,,,,,,,,,,5ebee9008ccaaa2ac3e1d210,21,Mężczyzna,2022-06-11_09h42.19.901,task,2021.1.4,Win32,74.93443237,6299f149e92ead563fba08ef,62a44672d2dd1bef33832b0b,,,,,,,,,,,,,0,,,,,,,,,,Task,25,(10/5) - 2,0,,,,,,,,,,,,,,,,,,,1,,,,,,,,,,,,,,,,,,,,,,,"[""0""]",1,[2.3276000000238355],0,0,0,24,1,,,,,,,,,,,,,,,,,,,,,,,,,,
,,,,,,,,,,,X V Q F H G B L J M P D K C T S W R N Z,5ebee9008ccaaa2ac3e1d210,21,Mężczyzna,2022-06-11_09h42.19.901,task,2021.1.4,Win32,74.93443237,6299f149e92ead563fba08ef,62a44672d2dd1bef33832b0b,,,,,,,,,,,,,,,,,,,,,,,,,,,,,,,,,,,,,,,,,,,,,,,,,,,,,,,,,,,,,,,,,,,,,,,,,,,,2,0,2,0,1,,,,,,,,,,,,,,,,,,,,,
,,,,,,,,,,,,5ebee9008ccaaa2ac3e1d210,21,Mężczyzna,2022-06-11_09h42.19.901,task,2021.1.4,Win32,74.93443237,6299f149e92ead563fba08ef,62a44672d2dd1bef33832b0b,,,,,,,,,,,,,4,,,,,,,,,,Task,4,(1x5) - 1,4,,,,,,,,,,,,,,,,,,,1,,,,,,,,,,,,,,,,,,,,,,,"[""4""]",1,[3.007199999928389],0,0,0,3,1,,,,,,,,,,,,,,,,,,,,,,,,,,
,,,,,,,,,,,X V Q F H G B L J M P D K C T S W R N Z,5ebee9008ccaaa2ac3e1d210,21,Mężczyzna,2022-06-11_09h42.19.901,task,2021.1.4,Win32,74.93443237,6299f149e92ead563fba08ef,62a44672d2dd1bef33832b0b,,,,,,,,,,,,,,,,,,,,,,,,,,,,,,,,,,,,,,,,,,,,,,,,,,,,,,,,,,,,,,,,,,,,,,,,,,,,3,0,3,0,1,,,,,,,,,,,,,,,,,,,,,
,,,,,,,,,,,,5ebee9008ccaaa2ac3e1d210,21,Mężczyzna,2022-06-11_09h42.19.901,task,2021.1.4,Win32,74.93443237,6299f149e92ead563fba08ef,62a44672d2dd1bef33832b0b,,,,,,,,,,,,,2,,,,,,,,,,Task,19,(6/2) - 1,2,,,,,,,,,,,,,,,,,,,1,,,,,,,,,,,,,,,,,,,,,,,"[""2""]",1,[2.2611000000238164],0,0,0,18,1,,,,,,,,,,,,,,,,,,,,,,,,,,
,,,,,,,,,,,X V Q F H G B L J M P D K C T S W R N Z,5ebee9008ccaaa2ac3e1d210,21,Mężczyzna,2022-06-11_09h42.19.901,task,2021.1.4,Win32,74.93443237,6299f149e92ead563fba08ef,62a44672d2dd1bef33832b0b,,,,,,,,,,,,,,,,,,,,,,,,,,,,,,,,,,,,,,,,,,,,,,,,,,,,,,,,,,,,,,,,,,,,,,,,,,,,4,0,4,0,1,,,,,,,,,,,,,,,,,,,,,
,,,,,,,,,,,,5ebee9008ccaaa2ac3e1d210,21,Mężczyzna,2022-06-11_09h42.19.901,task,2021.1.4,Win32,74.93443237,6299f149e92ead563fba08ef,62a44672d2dd1bef33832b0b,,,,,,,,,,,,,5,,,,,,,,,,Task,22,(3x1) + 2,5,,,,,,,,,,,,,,,,,,,1,,,,,,,,,,,,,,,,,,,,,,,"[""5""]",1,[2.7815999999046426],0,0,0,21,1,,,,,,,,,,,,,,,,,,,,,,,,,,
,,,,,,,,,,,X V Q F H G B L J M P D K C T S W R N Z,5ebee9008ccaaa2ac3e1d210,21,Mężczyzna,2022-06-11_09h42.19.901,task,2021.1.4,Win32,74.93443237,6299f149e92ead563fba08ef,62a44672d2dd1bef33832b0b,,,,,,,,,,,,,,,,,,,,,,,,,,,,,,,,,,,,,,,,,,,,,,,,,,,,,,,,,,,,,,,,,,,,,,,,,,,,5,0,5,0,1,,,,,,,,,,,,,,,,,,,,,
,,,,,,,,,,,,5ebee9008ccaaa2ac3e1d210,21,Mężczyzna,2022-06-11_09h42.19.901,task,2021.1.4,Win32,74.93443237,6299f149e92ead563fba08ef,62a44672d2dd1bef33832b0b,,,,,,,,,,,,,,,,,,,,,,,,,,,,,,,,,,,,,,,,,,,,,,,,,,,,,,,,,,,,,,,,,,,,,,,,,,,,,,,,,rgkrtx,"[""r"",""g"",""k"",""r"",""t"",""x""]",0,"[1.51789999997618,2.021399999976097,2.3408000000714537,2.6538999999761472,3.19630000007146,3.6639999999999873,5.1238999999761745]",1,RGKRTX,6,0,6,0,1,,,,,,,,,,
,,,,,,,,,,,,5ebee9008ccaaa2ac3e1d210,21,Mężczyzna,2022-06-11_09h42.19.901,task,2021.1.4,Win32,74.93443237,6299f149e92ead563fba08ef,62a44672d2dd1bef33832b0b,,,,,,,,,,,,,7,,,,,,,,,,Task,14,(2x2) + 3,7,,,,,,,,,,,,,,,,,,,1,,,,,,,,,,,,,,,,,,,,,,,"[""7""]",1,[2.9311000000237755],0,0,0,13,1,,,,,,,,,,,,,,,,,,,,,,,,,,
,,,,,,,,,,,X V Q F H G B L J M P D K C T S W R N Z,5ebee9008ccaaa2ac3e1d210,21,Mężczyzna,2022-06-11_09h42.19.901,task,2021.1.4,Win32,74.93443237,6299f149e92ead563fba08ef,62a44672d2dd1bef33832b0b,,,,,,,,,,,,,,,,,,,,,,,,,,,,,,,,,,,,,,,,,,,,,,,,,,,,,,,,,,,,,,,,,,,,,,,,,,,,0,0,0,0,1,,,,,,,,,,,,,,,,,,,,,
,,,,,,,,,,,,5ebee9008ccaaa2ac3e1d210,21,Mężczyzna,2022-06-11_09h42.19.901,task,2021.1.4,Win32,74.93443237,6299f149e92ead563fba08ef,62a44672d2dd1bef33832b0b,,,,,,,,,,,,,1,,,,,,,,,,Task,18,(16/4) - 3,1,,,,,,,,,,,,,,,,,,,1,,,,,,,,,,,,,,,,,,,,,,,"[""1""]",1,[1.45150000000001],0,0,0,17,1,,,,,,,,,,,,,,,,,,,,,,,,,,
,,,,,,,,,,,X V Q F H G B L J M P D K C T S W R N Z,5ebee9008ccaaa2ac3e1d210,21,Mężczyzna,2022-06-11_09h42.19.901,task,2021.1.4,Win32,74.93443237,6299f149e92ead563fba08ef,62a44672d2dd1bef33832b0b,,,,,,,,,,,,,,,,,,,,,,,,,,,,,,,,,,,,,,,,,,,,,,,,,,,,,,,,,,,,,,,,,,,,,,,,,,,,1,0,1,0,1,,,,,,,,,,,,,,,,,,,,,
,,,,,,,,,,,,5ebee9008ccaaa2ac3e1d210,21,Mężczyzna,2022-06-11_09h42.19.901,task,2021.1.4,Win32,74.93443237,6299f149e92ead563fba08ef,62a44672d2dd1bef33832b0b,,,,,,,,,,,,,9,,,,,,,,,,Task,24,(2x2) + 5,9,,,,,,,,,,,,,,,,,,,1,,,,,,,,,,,,,,,,,,,,,,,"[""9""]",1,[3.649499999999989],0,0,0,23,1,,,,,,,,,,,,,,,,,,,,,,,,,,
,,,,,,,,,,,X V Q F H G B L J M P D K C T S W R N Z,5ebee9008ccaaa2ac3e1d210,21,Mężczyzna,2022-06-11_09h42.19.901,task,2021.1.4,Win32,74.93443237,6299f149e92ead563fba08ef,62a44672d2dd1bef33832b0b,,,,,,,,,,,,,,,,,,,,,,,,,,,,,,,,,,,,,,,,,,,,,,,,,,,,,,,,,,,,,,,,,,,,,,,,,,,,2,0,2,0,1,,,,,,,,,,,,,,,,,,,,,
,,,,,,,,,,,,5ebee9008ccaaa2ac3e1d210,21,Mężczyzna,2022-06-11_09h42.19.901,task,2021.1.4,Win32,74.93443237,6299f149e92ead563fba08ef,62a44672d2dd1bef33832b0b,,,,,,,,,,,,,4,,,,,,,,,,Task,28,(2x5) - 6,4,,,,,,,,,,,,,,,,,,,1,,,,,,,,,,,,,,,,,,,,,,,"[""4""]",1,[2.466199999928449],0,0,0,27,1,,,,,,,,,,,,,,,,,,,,,,,,,,
,,,,,,,,,,,X V Q F H G B L J M P D K C T S W R N Z,5ebee9008ccaaa2ac3e1d210,21,Mężczyzna,2022-06-11_09h42.19.901,task,2021.1.4,Win32,74.93443237,6299f149e92ead563fba08ef,62a44672d2dd1bef33832b0b,,,,,,,,,,,,,,,,,,,,,,,,,,,,,,,,,,,,,,,,,,,,,,,,,,,,,,,,,,,,,,,,,,,,,,,,,,,,3,0,3,0,1,,,,,,,,,,,,,,,,,,,,,
,,,,,,,,,,,,5ebee9008ccaaa2ac3e1d210,21,Mężczyzna,2022-06-11_09h42.19.901,task,2021.1.4,Win32,74.93443237,6299f149e92ead563fba08ef,62a44672d2dd1bef33832b0b,,,,,,,,,,,,,8,,,,,,,,,,Task,15,(3x7) - 13,8,,,,,,,,,,,,,,,,,,,1,,,,,,,,,,,,,,,,,,,,,,,"[""8""]",1,[3.5965999999045835],0,0,0,14,1,,,,,,,,,,,,,,,,,,,,,,,,,,
,,,,,,,,,,,X V Q F H G B L J M P D K C T S W R N Z,5ebee9008ccaaa2ac3e1d210,21,Mężczyzna,2022-06-11_09h42.19.901,task,2021.1.4,Win32,74.93443237,6299f149e92ead563fba08ef,62a44672d2dd1bef33832b0b,,,,,,,,,,,,,,,,,,,,,,,,,,,,,,,,,,,,,,,,,,,,,,,,,,,,,,,,,,,,,,,,,,,,,,,,,,,,4,0,4,0,1,,,,,,,,,,,,,,,,,,,,,
,,,,,,,,,,,,5ebee9008ccaaa2ac3e1d210,21,Mężczyzna,2022-06-11_09h42.19.901,task,2021.1.4,Win32,74.93443237,6299f149e92ead563fba08ef,62a44672d2dd1bef33832b0b,,,,,,,,,,,,,8,,,,,,,,,,Task,15,(3x7) - 13,8,,,,,,,,,,,,,,,,,,,1,,,,,,,,,,,,,,,,,,,,,,,"[""8""]",1,[2.8084000000953893],0,0,0,14,1,,,,,,,,,,,,,,,,,,,,,,,,,,
,,,,,,,,,,,X V Q F H G B L J M P D K C T S W R N Z,5ebee9008ccaaa2ac3e1d210,21,Mężczyzna,2022-06-11_09h42.19.901,task,2021.1.4,Win32,74.93443237,6299f149e92ead563fba08ef,62a44672d2dd1bef33832b0b,,,,,,,,,,,,,,,,,,,,,,,,,,,,,,,,,,,,,,,,,,,,,,,,,,,,,,,,,,,,,,,,,,,,,,,,,,,,5,0,5,0,1,,,,,,,,,,,,,,,,,,,,,
,,,,,,,,,,,,5ebee9008ccaaa2ac3e1d210,21,Mężczyzna,2022-06-11_09h42.19.901,task,2021.1.4,Win32,74.93443237,6299f149e92ead563fba08ef,62a44672d2dd1bef33832b0b,,,,,,,,,,,,,4,,,,,,,,,,Task,28,(2x5) - 6,4,,,,,,,,,,,,,,,,,,,1,,,,,,,,,,,,,,,,,,,,,,,"[""4""]",1,[4.129700000047592],0,0,0,27,1,,,,,,,,,,,,,,,,,,,,,,,,,,
,,,,,,,,,,,X V Q F H G B L J M P D K C T S W R N Z,5ebee9008ccaaa2ac3e1d210,21,Mężczyzna,2022-06-11_09h42.19.901,task,2021.1.4,Win32,74.93443237,6299f149e92ead563fba08ef,62a44672d2dd1bef33832b0b,,,,,,,,,,,,,,,,,,,,,,,,,,,,,,,,,,,,,,,,,,,,,,,,,,,,,,,,,,,,,,,,,,,,,,,,,,,,6,0,6,0,1,,,,,,,,,,,,,,,,,,,,,
,,,,,,,,,,,,5ebee9008ccaaa2ac3e1d210,21,Mężczyzna,2022-06-11_09h42.19.901,task,2021.1.4,Win32,74.93443237,6299f149e92ead563fba08ef,62a44672d2dd1bef33832b0b,,,,,,,,,,,,,,,,,,,,,,,,,,,,,,,,,,,,,,,,,,,,,,,,,,,,,,,,,,,,,,,,,,,,,,,,,,,,,,,,,bkkzbxk,"[""b"",""k"",""k"",""z"",""b"",""x"",""k""]",0,"[1.1712999999522253,1.6227000000476437,1.833799999952248,2.238200000047641,2.661700000047631,3.5566000000237636,4.823600000023816,9.747999999999934]",1,BKKZBXK,7,0,7,0,1,,,,,,,,,,
,,,,,,,,,,,,5ebee9008ccaaa2ac3e1d210,21,Mężczyzna,2022-06-11_09h42.19.901,task,2021.1.4,Win32,74.93443237,6299f149e92ead563fba08ef,62a44672d2dd1bef33832b0b,,,,,,,,,,,,,3,,,,,,,,,,Task,12,(4x4) - 11,5,,,,,,,,,,,,,,,,,,,0,,,,,,,,,,,,,,,,,,,,,,,"[""3""]",0,[2.7318999999761218],0,0,0,11,1,,,,,,,,,,,,,,,,,,,,,,,,,,
,,,,,,,,,,,,5ebee9008ccaaa2ac3e1d210,21,Mężczyzna,2022-06-11_09h42.19.901,task,2021.1.4,Win32,74.93443237,6299f149e92ead563fba08ef,62a44672d2dd1bef33832b0b,,,,,,,,,,,,,1,,,,,,,,,,Task,9,(3x7) - 20,1,,,,,,,,,,,,,,,,,,,1,,,,,,,,,,,,,,,,,,,,,,,"[""1""]",1,[3.72950000000003],0,1,1,8,1,,,,,,,,,,,,,,,,,,,,,,,,,,
,,,,,,,,,,,X V Q F H G B L J M P D K C T S W R N Z,5ebee9008ccaaa2ac3e1d210,21,Mężczyzna,2022-06-11_09h42.19.901,task,2021.1.4,Win32,74.93443237,6299f149e92ead563fba08ef,62a44672d2dd1bef33832b0b,,,,,,,,,,,,,,,,,,,,,,,,,,,,,,,,,,,,,,,,,,,,,,,,,,,,,,,,,,,,,,,,,,,,,,,,,,,,0,0,0,0,1,,,,,,,,,,,,,,,,,,,,,
,,,,,,,,,,,,5ebee9008ccaaa2ac3e1d210,21,Mężczyzna,2022-06-11_09h42.19.901,task,2021.1.4,Win32,74.93443237,6299f149e92ead563fba08ef,62a44672d2dd1bef33832b0b,,,,,,,,,,,,,7,,,,,,,,,,Task,6,(12/2) + 1,7,,,,,,,,,,,,,,,,,,,1,,,,,,,,,,,,,,,,,,,,,,,"[""7""]",1,[3.9582000000476683],0,0,0,5,1,,,,,,,,,,,,,,,,,,,,,,,,,,
,,,,,,,,,,,X V Q F H G B L J M P D K C T S W R N Z,5ebee9008ccaaa2ac3e1d210,21,Mężczyzna,2022-06-11_09h42.19.901,task,2021.1.4,Win32,74.93443237,6299f149e92ead563fba08ef,62a44672d2dd1bef33832b0b,,,,,,,,,,,,,,,,,,,,,,,,,,,,,,,,,,,,,,,,,,,,,,,,,,,,,,,,,,,,,,,,,,,,,,,,,,,,1,0,1,0,1,,,,,,,,,,,,,,,,,,,,,
,,,,,,,,,,,,5ebee9008ccaaa2ac3e1d210,21,Mężczyzna,2022-06-11_09h42.19.901,task,2021.1.4,Win32,74.93443237,6299f149e92ead563fba08ef,62a44672d2dd1bef33832b0b,,,,,,,,,,,,,4,,,,,,,,,,Task,11,(18/3) - 2,4,,,,,,,,,,,,,,,,,,,1,,,,,,,,,,,,,,,,,,,,,,,"[""4""]",1,[2.6213000000715283],0,0,0,10,1,,,,,,,,,,,,,,,,,,,,,,,,,,
,,,,,,,,,,,X V Q F H G B L J M P D K C T S W R N Z,5ebee9008ccaaa2ac3e1d210,21,Mężczyzna,2022-06-11_09h42.19.901,task,2021.1.4,Win32,74.93443237,6299f149e92ead563fba08ef,62a44672d2dd1bef33832b0b,,,,,,,,,,,,,,,,,,,,,,,,,,,,,,,,,,,,,,,,,,,,,,,,,,,,,,,,,,,,,,,,,,,,,,,,,,,,2,0,2,0,1,,,,,,,,,,,,,,,,,,,,,
,,,,,,,,,,,,5ebee9008ccaaa2ac3e1d210,21,Mężczyzna,2022-06-11_09h42.19.901,task,2021.1.4,Win32,74.93443237,6299f149e92ead563fba08ef,62a44672d2dd1bef33832b0b,,,,,,,,,,,,,0,,,,,,,,,,Task,17,(2x3) - 6,0,,,,,,,,,,,,,,,,,,,1,,,,,,,,,,,,,,,,,,,,,,,"[""0""]",1,[1.88799999999992],0,0,0,16,1,,,,,,,,,,,,,,,,,,,,,,,,,,
,,,,,,,,,,,X V Q F H G B L J M P D K C T S W R N Z,5ebee9008ccaaa2ac3e1d210,21,Mężczyzna,2022-06-11_09h42.19.901,task,2021.1.4,Win32,74.93443237,6299f149e92ead563fba08ef,62a44672d2dd1bef33832b0b,,,,,,,,,,,,,,,,,,,,,,,,,,,,,,,,,,,,,,,,,,,,,,,,,,,,,,,,,,,,,,,,,,,,,,,,,,,,3,0,3,0,1,,,,,,,,,,,,,,,,,,,,,
,,,,,,,,,,,,5ebee9008ccaaa2ac3e1d210,21,Mężczyzna,2022-06-11_09h42.19.901,task,2021.1.4,Win32,74.93443237,6299f149e92ead563fba08ef,62a44672d2dd1bef33832b0b,,,,,,,,,,,,,9,,,,,,,,,,Task,7,(3x7) - 12,9,,,,,,,,,,,,,,,,,,,1,,,,,,,,,,,,,,,,,,,,,,,"[""9""]",1,[5.04099999999994],0,0,0,6,1,,,,,,,,,,,,,,,,,,,,,,,,,,
,,,,,,,,,,,X V Q F H G B L J M P D K C T S W R N Z,5ebee9008ccaaa2ac3e1d210,21,Mężczyzna,2022-06-11_09h42.19.901,task,2021.1.4,Win32,74.93443237,6299f149e92ead563fba08ef,62a44672d2dd1bef33832b0b,,,,,,,,,,,,,,,,,,,,,,,,,,,,,,,,,,,,,,,,,,,,,,,,,,,,,,,,,,,,,,,,,,,,,,,,,,,,4,0,4,0,1,,,,,,,,,,,,,,,,,,,,,
,,,,,,,,,,,,5ebee9008ccaaa2ac3e1d210,21,Mężczyzna,2022-06-11_09h42.19.901,task,2021.1.4,Win32,74.93443237,6299f149e92ead563fba08ef,62a44672d2dd1bef33832b0b,,,,,,,,,,,,,6,,,,,,,,,,Task,37,(3/3) + 5,6,,,,,,,,,,,,,,,,,,,1,,,,,,,,,,,,,,,,,,,,,,,"[""6""]",1,[3.1994999999999436],0,0,0,36,1,,,,,,,,,,,,,,,,,,,,,,,,,,
,,,,,,,,,,,X V Q F H G B L J M P D K C T S W R N Z,5ebee9008ccaaa2ac3e1d210,21,Mężczyzna,2022-06-11_09h42.19.901,task,2021.1.4,Win32,74.93443237,6299f149e92ead563fba08ef,62a44672d2dd1bef33832b0b,,,,,,,,,,,,,,,,,,,,,,,,,,,,,,,,,,,,,,,,,,,,,,,,,,,,,,,,,,,,,,,,,,,,,,,,,,,,5,0,5,0,1,,,,,,,,,,,,,,,,,,,,,
,,,,,,,,,,,,5ebee9008ccaaa2ac3e1d210,21,Mężczyzna,2022-06-11_09h42.19.901,task,2021.1.4,Win32,74.93443237,6299f149e92ead563fba08ef,62a44672d2dd1bef33832b0b,,,,,,,,,,,,,3,,,,,,,,,,Task,27,(3/3) + 2,3,,,,,,,,,,,,,,,,,,,1,,,,,,,,,,,,,,,,,,,,,,,"[""3""]",1,[2.714600000023893],0,0,0,26,1,,,,,,,,,,,,,,,,,,,,,,,,,,
,,,,,,,,,,,X V Q F H G B L J M P D K C T S W R N Z,5ebee9008ccaaa2ac3e1d210,21,Mężczyzna,2022-06-11_09h42.19.901,task,2021.1.4,Win32,74.93443237,6299f149e92ead563fba08ef,62a44672d2dd1bef33832b0b,,,,,,,,,,,,,,,,,,,,,,,,,,,,,,,,,,,,,,,,,,,,,,,,,,,,,,,,,,,,,,,,,,,,,,,,,,,,6,0,6,0,1,,,,,,,,,,,,,,,,,,,,,
,,,,,,,,,,,,5ebee9008ccaaa2ac3e1d210,21,Mężczyzna,2022-06-11_09h42.19.901,task,2021.1.4,Win32,74.93443237,6299f149e92ead563fba08ef,62a44672d2dd1bef33832b0b,,,,,,,,,,,,,6,,,,,,,,,,Task,37,(3/3) + 5,6,,,,,,,,,,,,,,,,,,,1,,,,,,,,,,,,,,,,,,,,,,,"[""6""]",1,[2.648200000047723],0,0,0,36,1,,,,,,,,,,,,,,,,,,,,,,,,,,
,,,,,,,,,,,X V Q F H G B L J M P D K C T S W R N Z,5ebee9008ccaaa2ac3e1d210,21,Mężczyzna,2022-06-11_09h42.19.901,task,2021.1.4,Win32,74.93443237,6299f149e92ead563fba08ef,62a44672d2dd1bef33832b0b,,,,,,,,,,,,,,,,,,,,,,,,,,,,,,,,,,,,,,,,,,,,,,,,,,,,,,,,,,,,,,,,,,,,,,,,,,,,7,0,7,0,1,,,,,,,,,,,,,,,,,,,,,
,,,,,,,,,,,,5ebee9008ccaaa2ac3e1d210,21,Mężczyzna,2022-06-11_09h42.19.901,task,2021.1.4,Win32,74.93443237,6299f149e92ead563fba08ef,62a44672d2dd1bef33832b0b,,,,,,,,,,,,,,,,,,,,,,,,,,,,,,,,,,,,,,,,,,,,,,,,,,,,,,,,,,,,,,,,,,,,,,,,,,,,,,,,,lrjpjcgp,"[""l"",""r"",""j"",""p"",""j"",""c"",""g"",""p""]",0,"[1.544999999999959,1.9407999999523327,2.2876999999284635,3.228099999904657,3.9468999999761536,4.4950000000000045,5.237099999904672,6.548999999999978,12.739299999952323]",0,LRJPJCGL,8,0,8,0,1,,,,,,,,,,
,,,,,,,,,,,,5ebee9008ccaaa2ac3e1d210,21,Mężczyzna,2022-06-11_09h42.19.901,task,2021.1.4,Win32,74.93443237,6299f149e92ead563fba08ef,62a44672d2dd1bef33832b0b,,,,,,,,,,,,,2,,,,,,,,,,Task,2,(2x2) - 2,2,,,,,,,,,,,,,,,,,,,1,,,,,,,,,,,,,,,,,,,,,,,"[""2""]",1,[3.086700000047699],0,0,0,1,1,,,,,,,,,,,,,,,,,,,,,,,,,,
,,,,,,,,,,,X V Q F H G B L J M P D K C T S W R N Z,5ebee9008ccaaa2ac3e1d210,21,Mężczyzna,2022-06-11_09h42.19.901,task,2021.1.4,Win32,74.93443237,6299f149e92ead563fba08ef,62a44672d2dd1bef33832b0b,,,,,,,,,,,,,,,,,,,,,,,,,,,,,,,,,,,,,,,,,,,,,,,,,,,,,,,,,,,,,,,,,,,,,,,,,,,,0,0,0,0,1,,,,,,,,,,,,,,,,,,,,,
,,,,,,,,,,,,5ebee9008ccaaa2ac3e1d210,21,Mężczyzna,2022-06-11_09h42.19.901,task,2021.1.4,Win32,74.93443237,6299f149e92ead563fba08ef,62a44672d2dd1bef33832b0b,,,,,,,,,,,,,9,,,,,,,,,,Task,24,(2x2) + 5,9,,,,,,,,,,,,,,,,,,,1,,,,,,,,,,,,,,,,,,,,,,,"[""9""]",1,[2.70120000004772],0,0,0,23,1,,,,,,,,,,,,,,,,,,,,,,,,,,
,,,,,,,,,,,X V Q F H G B L J M P D K C T S W R N Z,5ebee9008ccaaa2ac3e1d210,21,Mężczyzna,2022-06-11_09h42.19.901,task,2021.1.4,Win32,74.93443237,6299f149e92ead563fba08ef,62a44672d2dd1bef33832b0b,,,,,,,,,,,,,,,,,,,,,,,,,,,,,,,,,,,,,,,,,,,,,,,,,,,,,,,,,,,,,,,,,,,,,,,,,,,,1,0,1,0,1,,,,,,,,,,,,,,,,,,,,,
,,,,,,,,,,,,5ebee9008ccaaa2ac3e1d210,21,Mężczyzna,2022-06-11_09h42.19.901,task,2021.1.4,Win32,74.93443237,6299f149e92ead563fba08ef,62a44672d2dd1bef33832b0b,,,,,,,,,,,,,0,,,,,,,,,,Task,33,(1/1) - 1,0,,,,,,,,,,,,,,,,,,,1,,,,,,,,,,,,,,,,,,,,,,,"[""0""]",1,[2.0742999999522453],0,0,0,32,1,,,,,,,,,,,,,,,,,,,,,,,,,,
,,,,,,,,,,,X V Q F H G B L J M P D K C T S W R N Z,5ebee9008ccaaa2ac3e1d210,21,Mężczyzna,2022-06-11_09h42.19.901,task,2021.1.4,Win32,74.93443237,6299f149e92ead563fba08ef,62a44672d2dd1bef33832b0b,,,,,,,,,,,,,,,,,,,,,,,,,,,,,,,,,,,,,,,,,,,,,,,,,,,,,,,,,,,,,,,,,,,,,,,,,,,,2,0,2,0,1,,,,,,,,,,,,,,,,,,,,,
,,,,,,,,,,,,5ebee9008ccaaa2ac3e1d210,21,Mężczyzna,2022-06-11_09h42.19.901,task,2021.1.4,Win32,74.93443237,6299f149e92ead563fba08ef,62a44672d2dd1bef33832b0b,,,,,,,,,,,,,7,,,,,,,,,,Task,14,(2x2) + 3,7,,,,,,,,,,,,,,,,,,,1,,,,,,,,,,,,,,,,,,,,,,,"[""7""]",1,[2.852300000071523],0,0,0,13,1,,,,,,,,,,,,,,,,,,,,,,,,,,
,,,,,,,,,,,X V Q F H G B L J M P D K C T S W R N Z,5ebee9008ccaaa2ac3e1d210,21,Mężczyzna,2022-06-11_09h42.19.901,task,2021.1.4,Win32,74.93443237,6299f149e92ead563fba08ef,62a44672d2dd1bef33832b0b,,,,,,,,,,,,,,,,,,,,,,,,,,,,,,,,,,,,,,,,,,,,,,,,,,,,,,,,,,,,,,,,,,,,,,,,,,,,3,0,3,0,1,,,,,,,,,,,,,,,,,,,,,
,,,,,,,,,,,,5ebee9008ccaaa2ac3e1d210,21,Mężczyzna,2022-06-11_09h42.19.901,task,2021.1.4,Win32,74.93443237,6299f149e92ead563fba08ef,62a44672d2dd1bef33832b0b,,,,,,,,,,,,,6,,,,,,,,,,Task,30,(6/3) + 4 ,6,,,,,,,,,,,,,,,,,,,1,,,,,,,,,,,,,,,,,,,,,,,"[""6""]",1,[3.5025000000000546],0,0,0,29,1,,,,,,,,,,,,,,,,,,,,,,,,,,
,,,,,,,,,,,X V Q F H G B L J M P D K C T S W R N Z,5ebee9008ccaaa2ac3e1d210,21,Mężczyzna,2022-06-11_09h42.19.901,task,2021.1.4,Win32,74.93443237,6299f149e92ead563fba08ef,62a44672d2dd1bef33832b0b,,,,,,,,,,,,,,,,,,,,,,,,,,,,,,,,,,,,,,,,,,,,,,,,,,,,,,,,,,,,,,,,,,,,,,,,,,,,4,0,4,0,1,,,,,,,,,,,,,,,,,,,,,
,,,,,,,,,,,,5ebee9008ccaaa2ac3e1d210,21,Mężczyzna,2022-06-11_09h42.19.901,task,2021.1.4,Win32,74.93443237,6299f149e92ead563fba08ef,62a44672d2dd1bef33832b0b,,,,,,,,,,,,,8,,,,,,,,,,Task,32,(8/2) + 4,8,,,,,,,,,,,,,,,,,,,1,,,,,,,,,,,,,,,,,,,,,,,"[""8""]",1,[3.3312000000477155],0,0,0,31,1,,,,,,,,,,,,,,,,,,,,,,,,,,
,,,,,,,,,,,X V Q F H G B L J M P D K C T S W R N Z,5ebee9008ccaaa2ac3e1d210,21,Mężczyzna,2022-06-11_09h42.19.901,task,2021.1.4,Win32,74.93443237,6299f149e92ead563fba08ef,62a44672d2dd1bef33832b0b,,,,,,,,,,,,,,,,,,,,,,,,,,,,,,,,,,,,,,,,,,,,,,,,,,,,,,,,,,,,,,,,,,,,,,,,,,,,5,0,5,0,1,,,,,,,,,,,,,,,,,,,,,
,,,,,,,,,,,,5ebee9008ccaaa2ac3e1d210,21,Mężczyzna,2022-06-11_09h42.19.901,task,2021.1.4,Win32,74.93443237,6299f149e92ead563fba08ef,62a44672d2dd1bef33832b0b,,,,,,,,,,,,,7,,,,,,,,,,Task,6,(12/2) + 1,7,,,,,,,,,,,,,,,,,,,1,,,,,,,,,,,,,,,,,,,,,,,"[""7""]",1,[10.175700000047641],0,0,0,5,1,,,,,,,,,,,,,,,,,,,,,,,,,,
,,,,,,,,,,,X V Q F H G B L J M P D K C T S W R N Z,5ebee9008ccaaa2ac3e1d210,21,Mężczyzna,2022-06-11_09h42.19.901,task,2021.1.4,Win32,74.93443237,6299f149e92ead563fba08ef,62a44672d2dd1bef33832b0b,,,,,,,,,,,,,,,,,,,,,,,,,,,,,,,,,,,,,,,,,,,,,,,,,,,,,,,,,,,,,,,,,,,,,,,,,,,,6,0,6,0,1,,,,,,,,,,,,,,,,,,,,,
,,,,,,,,,,,,5ebee9008ccaaa2ac3e1d210,21,Mężczyzna,2022-06-11_09h42.19.901,task,2021.1.4,Win32,74.93443237,6299f149e92ead563fba08ef,62a44672d2dd1bef33832b0b,,,,,,,,,,,,,4,,,,,,,,,,Task,4,(1x5) - 1,4,,,,,,,,,,,,,,,,,,,1,,,,,,,,,,,,,,,,,,,,,,,"[""4""]",1,[2.0526000000238582],0,0,0,3,1,,,,,,,,,,,,,,,,,,,,,,,,,,
,,,,,,,,,,,X V Q F H G B L J M P D K C T S W R N Z,5ebee9008ccaaa2ac3e1d210,21,Mężczyzna,2022-06-11_09h42.19.901,task,2021.1.4,Win32,74.93443237,6299f149e92ead563fba08ef,62a44672d2dd1bef33832b0b,,,,,,,,,,,,,,,,,,,,,,,,,,,,,,,,,,,,,,,,,,,,,,,,,,,,,,,,,,,,,,,,,,,,,,,,,,,,7,0,7,0,1,,,,,,,,,,,,,,,,,,,,,
,,,,,,,,,,,,5ebee9008ccaaa2ac3e1d210,21,Mężczyzna,2022-06-11_09h42.19.901,task,2021.1.4,Win32,74.93443237,6299f149e92ead563fba08ef,62a44672d2dd1bef33832b0b,,,,,,,,,,,,,,,,,,,,,,,,,,,,,,,,,,,,,,,,,,,,,,,,,,,,,,,,,,,,,,,,,,,,,,,,,,,,,,,,,hqbtqz,"[""h"",""q"",""b"",""t"",""q"",""z""]",0,"[2.5677000000476937,8.366700000047786,9.096300000071551,9.541500000000042,17.278300000071567,17.675500000000056,19.133200000047736]",0,HTBQTFZP,9,0,9,0,1,,,,,,,,,,
,,,,,,,,,,,,5ebee9008ccaaa2ac3e1d210,21,Mężczyzna,2022-06-11_09h42.19.901,task,2021.1.4,Win32,74.93443237,6299f149e92ead563fba08ef,62a44672d2dd1bef33832b0b,,,,,,,,,,,,,,,,,,,,,,,,,,,,,,,,,,,,,,,,,,,,,,,,,,,,,,,,,,,,,,,,,,,,,,,,,,,,,,,,,,,,,,,,,,,,"[""comma""]",0,[1.547099999904617],0,0,0,0,1,,
,,,,,,,,,,,,5ebee9008ccaaa2ac3e1d210,21,Mężczyzna,2022-06-11_09h42.19.901,task,2021.1.4,Win32,74.93443237,6299f149e92ead563fba08ef,62a44672d2dd1bef33832b0b,,,,,,,,,,,,,,,,,,,,,,,,,,,,,,,,,,,,,,,,,,,,,,,,,,,,,,,,,,,,,,,,,,,,,,,,,,,,,,,,,,,,,,,,,,,,"[""comma""]",0,[1.3269000000952929],1,0,1,0,1,,
,,,,,,,,,,,,5ebee9008ccaaa2ac3e1d210,21,Mężczyzna,2022-06-11_09h42.19.901,task,2021.1.4,Win32,74.93443237,6299f149e92ead563fba08ef,62a44672d2dd1bef33832b0b,,,,,,,,,,,,,,,,,,,,,,,,,,,,,,,,,,,,,,,,,,,,,,,,,,,,,,,,,,,,,,,,,,,,,,,,,,,,,,,,,,,,,,,,,,,,"[""period""]",0,[1.100500000000011],2,0,2,0,1,,
,,,,,,,,,,,,5ebee9008ccaaa2ac3e1d210,21,Mężczyzna,2022-06-11_09h42.19.901,task,2021.1.4,Win32,74.93443237,6299f149e92ead563fba08ef,62a44672d2dd1bef33832b0b,,,,,,,,,,,,,,,,,,,,,,,,,,,,,,,,,,,,,,,,,,,,,,,,,,,,,,,,,,,,,,,,,,,,,,,,,,,,,,,,,,,,,,,,,,,,"[""comma""]",0,[0.9184999999999945],3,0,3,0,1,,
,,,,,,,,,,,,5ebee9008ccaaa2ac3e1d210,21,Mężczyzna,2022-06-11_09h42.19.901,task,2021.1.4,Win32,74.93443237,6299f149e92ead563fba08ef,62a44672d2dd1bef33832b0b,,,,,,,,,,,,,,,,,,,,,,,,,,,,,,,,,,,,,,,,,,,,,,,,,,,,,,,,,,,,,,,,,,,,,,,,,,,,,,,,,,,,,,,,,,,,"[""period""]",0,[0.5141000000237455],4,0,4,0,1,,
,,,,,,,,,,,,5ebee9008ccaaa2ac3e1d210,21,Mężczyzna,2022-06-11_09h42.19.901,task,2021.1.4,Win32,74.93443237,6299f149e92ead563fba08ef,62a44672d2dd1bef33832b0b,,,,,,,,,,,,,,,,,,,,,,,,,,,,,,,,,,,,,,,,,,,,,,,,,,,,,,,,,,,,,,,,,,,,,,,,,,,,,,,,,,,,,,,,,,,,"[""comma""]",0,[0.4072000000477374],5,0,5,0,1,,
,,,,,,,,,,,,5ebee9008ccaaa2ac3e1d210,21,Mężczyzna,2022-06-11_09h42.19.901,task,2021.1.4,Win32,74.93443237,6299f149e92ead563fba08ef,62a44672d2dd1bef33832b0b,,,,,,,,,,,,,,,,,,,,,,,,,,,,,,,,,,,,,,,,,,,,,,,,,,,,,,,,,,,,,,,,,,,,,,,,,,,,,,,,,,,,,,,,,,,,"[""comma""]",0,[0.2884999999999991],6,0,6,0,1,,
,,,,,,,,,,,,5ebee9008ccaaa2ac3e1d210,21,Mężczyzna,2022-06-11_09h42.19.901,task,2021.1.4,Win32,74.93443237,6299f149e92ead563fba08ef,62a44672d2dd1bef33832b0b,,,,,,,,,,,,,,,,,,,,,,,,,,,,,,,,,,,,,,,,,,,,,,,,,,,,,,,,,,,,,,,,,,,,,,,,,,,,,,,,,,,,,,,,,,,,"[""period""]",0,[0.2897000000476737],7,0,7,0,1,,
,,,,,,,,,,,,5ebee9008ccaaa2ac3e1d210,21,Mężczyzna,2022-06-11_09h42.19.901,task,2021.1.4,Win32,74.93443237,6299f149e92ead563fba08ef,62a44672d2dd1bef33832b0b,,,,,,,,,,,,,,,,,,,,,,,,,,,,,,,,,,,,,,,,,,,,,,,,,,,,,,,,,,,,,,,,,,,,,,,,,,,,,,,,,,,,,,,,,,,,"[""period""]",0,[0.24789999997619816],8,0,8,0,1,,
,,,,,,,,,,,,5ebee9008ccaaa2ac3e1d210,21,Mężczyzna,2022-06-11_09h42.19.901,task,2021.1.4,Win32,74.93443237,6299f149e92ead563fba08ef,62a44672d2dd1bef33832b0b,,,,,,,,,,,,,,,,,,,,,,,,,,,,,,,,,,,,,,,,,,,,,,,,,,,,,,,,,,,,,,,,,,,,,,,,,,,,,,,,,,,,,,,,,,,,"[""comma""]",0,[0.3037000000476837],9,0,9,0,1,,
,,,,,,,,,,,,5ebee9008ccaaa2ac3e1d210,21,Mężczyzna,2022-06-11_09h42.19.901,task,2021.1.4,Win32,74.93443237,6299f149e92ead563fba08ef,62a44672d2dd1bef33832b0b,,,,,,,,,,,,,,,,,,,,,,,,,,,,,,,,,,,,,,,,,,,,,,,,,,,,,,,,,,,,,,,,,,,,,,,,,,,,,,,,,,,,,,,,,,,,"[""comma""]",0,[0.35450000000003],10,0,10,0,1,,
,,,,,,,,,,,,5ebee9008ccaaa2ac3e1d210,21,Mężczyzna,2022-06-11_09h42.19.901,task,2021.1.4,Win32,74.93443237,6299f149e92ead563fba08ef,62a44672d2dd1bef33832b0b,,,,,,,,,,,,,,,,,,,,,,,,,,,,,,,,,,,,,,,,,,,,,,,,,,,,,,,,,,,,,,,,,,,,,,,,,,,,,,,,,,,,,,,,,,,,"[""comma""]",0,[0.2871000000238837],11,0,11,0,1,,
,,,,,,,,,,,,5ebee9008ccaaa2ac3e1d210,21,Mężczyzna,2022-06-11_09h42.19.901,task,2021.1.4,Win32,74.93443237,6299f149e92ead563fba08ef,62a44672d2dd1bef33832b0b,,,,,,,,,,,,,,,,,,,,,,,,,,,,,,,,,,,,,,,,,,,,,,,,,,,,,,,,,,,,,,,,,,,,,,,,,,,,,,,,,,,,,,,,,,,,"[""period""]",0,[0.2486000000238846],12,0,12,0,1,,
,,,,,,,,,,,,5ebee9008ccaaa2ac3e1d210,21,Mężczyzna,2022-06-11_09h42.19.901,task,2021.1.4,Win32,74.93443237,6299f149e92ead563fba08ef,62a44672d2dd1bef33832b0b,,,,,,,,,,,,,,,,,,,,,,,,,,,,,,,,,,,,,,,,,,,,,,,,,,,,,,,,,,,,,,,,,,,,,,,,,,,,,,,,,,,,,,,,,,,,"[""period""]",0,[0.2613999999761063],13,0,13,0,1,,
,,,,,,,,,,,,5ebee9008ccaaa2ac3e1d210,21,Mężczyzna,2022-06-11_09h42.19.901,task,2021.1.4,Win32,74.93443237,6299f149e92ead563fba08ef,62a44672d2dd1bef33832b0b,,,,,,,,,,,,,,,,,,,,,,,,,,,,,,,,,,,,,,,,,,,,,,,,,,,,,,,,,,,,,,,,,,,,,,,,,,,,,,,,,,,,,,,,,,,,"[""period""]",0,[0.26160000002380457],14,0,14,0,1,,
,,,,,,,,,,,,5ebee9008ccaaa2ac3e1d210,21,Mężczyzna,2022-06-11_09h42.19.901,task,2021.1.4,Win32,74.93443237,6299f149e92ead563fba08ef,62a44672d2dd1bef33832b0b,,,,,,,,,,,,,,,,,,,,,,,,,,,,,,,,,,,,,,,,,,,,,,,,,,,,,,,,,,,,,,,,,,,,,,,,,,,,,,,,,,,,,,,,,,,,"[""period""]",0,[0.2479999999999336],15,0,15,0,1,,
,,,,,,,,,,,,5ebee9008ccaaa2ac3e1d210,21,Mężczyzna,2022-06-11_09h42.19.901,task,2021.1.4,Win32,74.93443237,6299f149e92ead563fba08ef,62a44672d2dd1bef33832b0b,,,,,,,,,,,,,,,,,,,,,,,,,,,,,,,,,,,,,,,,,,,,,,,,,,,,,,,,,,,,,,,,,,,,,,,,,,,,,,,,,,,,,,,,,,,,"[""comma""]",0,[0.23410000002377274],16,0,16,0,1,,
,,,,,,,,,,,,5ebee9008ccaaa2ac3e1d210,21,Mężczyzna,2022-06-11_09h42.19.901,task,2021.1.4,Win32,74.93443237,6299f149e92ead563fba08ef,62a44672d2dd1bef33832b0b,,,,,,,,,,,,,,,,,,,,,,,,,,,,,,,,,,,,,,,,,,,,,,,,,,,,,,,,,,,,,,,,,,,,,,,,,,,,,,,,,,,,,,,,,,,,"[""period""]",0,[0.22000000000002728],17,0,17,0,1,,
,,,,,,,,,,,,5ebee9008ccaaa2ac3e1d210,21,Mężczyzna,2022-06-11_09h42.19.901,task,2021.1.4,Win32,74.93443237,6299f149e92ead563fba08ef,62a44672d2dd1bef33832b0b,,,,,,,,,,,,,,,,,,,,,,,,,,,,,,,,,,,,,,,,,,,,,,,,,,,,,,,,,,,,,,,,,,,,,,,,,,,,,,,,,,,,,,,,,,,,"[""comma""]",0,[0.23389999997618816],18,0,18,0,1,,
,,,,,,,,,,,,5ebee9008ccaaa2ac3e1d210,21,Mężczyzna,2022-06-11_09h42.19.901,task,2021.1.4,Win32,74.93443237,6299f149e92ead563fba08ef,62a44672d2dd1bef33832b0b,,,,,,,,,,,,,,,,,,,,,,,,,,,,,,,,,,,,,,,,,,,,,,,,,,,,,,,,,,,,,,,,,,,,,,,,,,,,,,,,,,,,,,,,,,,,"[""period""]",0,[0.2106000000238737],19,0,19,0,1,,
,,,,,,,,,,,,5ebee9008ccaaa2ac3e1d210,21,Mężczyzna,2022-06-11_09h42.19.901,task,2021.1.4,Win32,74.93443237,6299f149e92ead563fba08ef,62a44672d2dd1bef33832b0b,,,,,,,,,,,,,,,,,,,,,,,,,,,,,,,,,,,,,,,,,,,,,,,,,,,,,,,,,,,,,,,,,,,,,,,,,,,,,,,,,,,,,,,,,,,,"[""period""]",0,[0.22309999990466167],20,0,20,0,1,,
,,,,,,,,,,,,5ebee9008ccaaa2ac3e1d210,21,Mężczyzna,2022-06-11_09h42.19.901,task,2021.1.4,Win32,74.93443237,6299f149e92ead563fba08ef,62a44672d2dd1bef33832b0b,,,,,,,,,,,,,,,,,,,,,,,,,,,,,,,,,,,,,,,,,,,,,,,,,,,,,,,,,,,,,,,,,,,,,,,,,,,,,,,,,,,,,,,,,,,,"[""comma""]",0,[0.30130000007159197],21,0,21,0,1,,
,,,,,,,,,,,,5ebee9008ccaaa2ac3e1d210,21,Mężczyzna,2022-06-11_09h42.19.901,task,2021.1.4,Win32,74.93443237,6299f149e92ead563fba08ef,62a44672d2dd1bef33832b0b,,,,,,,,,,,,,,,,,,,,,,,,,,,,,,,,,,,,,,,,,,,,,,,,,,,,,,,,,,,,,,,,,,,,,,,,,,,,,,,,,,,,,,,,,,,,"[""period""]",0,[0.07780000007153376],22,0,22,0,1,,
,,,,,,,,,,,,5ebee9008ccaaa2ac3e1d210,21,Mężczyzna,2022-06-11_09h42.19.901,task,2021.1.4,Win32,74.93443237,6299f149e92ead563fba08ef,62a44672d2dd1bef33832b0b,,,,,,,,,,,,,,,,,,,,,,,,,,,,,,,,,,,,,,,,,,,,,,,,,,,,,,,,,,,,,,,,,,,,,,,,,,,,,,,,,,,,,,,,,,,,"[""comma""]",0,[0.23470000004772373],23,0,23,0,1,,
,,,,,,,,,,,,5ebee9008ccaaa2ac3e1d210,21,Mężczyzna,2022-06-11_09h42.19.901,task,2021.1.4,Win32,74.93443237,6299f149e92ead563fba08ef,62a44672d2dd1bef33832b0b,,,,,,,,,,,,,,,,,,,,,,,,,,,,,,,,,,,,,,,,,,,,,,,,,,,,,,,,,,,,,,,,,,,,,,,,,,,,,,,,,,,,,,,,,,,,"[""comma""]",0,[0.27499999999997726],24,0,24,0,1,,
,,,,,,,,,,,,5ebee9008ccaaa2ac3e1d210,21,Mężczyzna,2022-06-11_09h42.19.901,task,2021.1.4,Win32,74.93443237,6299f149e92ead563fba08ef,62a44672d2dd1bef33832b0b,,,,,,,,,,,,,,,,,,,,,,,,,,,,,,,,,,,,,,,,,,,,,,,,,,,,,,,,,,,,,,,,,,,,,,,,,,,,,,,,,,,,,,,,,,,,"[""comma""]",0,[0.30070000004764097],25,0,25,0,1,,
,,,,,,,,,,,,5ebee9008ccaaa2ac3e1d210,21,Mężczyzna,2022-06-11_09h42.19.901,task,2021.1.4,Win32,74.93443237,6299f149e92ead563fba08ef,62a44672d2dd1bef33832b0b,,,,,,,,,,,,,,,,,,,,,,,,,,,,,,,,,,,,,,,,,,,,,,,,,,,,,,,,,,,,,,,,,,,,,,,,,,,,,,,,,,,,,,,,,,,,"[""period""]",0,[0.30349999999998545],26,0,26,0,1,,
,,,,,,,,,,,,5ebee9008ccaaa2ac3e1d210,21,Mężczyzna,2022-06-11_09h42.19.901,task,2021.1.4,Win32,74.93443237,6299f149e92ead563fba08ef,62a44672d2dd1bef33832b0b,,,,,,,,,,,,,,,,,,,,,,,,,,,,,,,,,,,,,,,,,,,,,,,,,,,,,,,,,,,,,,,,,,,,,,,,,,,,,,,,,,,,,,,,,,,,"[""period""]",0,[0.3271000000238473],27,0,27,0,1,,
,,,,,,,,,,,,5ebee9008ccaaa2ac3e1d210,21,Mężczyzna,2022-06-11_09h42.19.901,task,2021.1.4,Win32,74.93443237,6299f149e92ead563fba08ef,62a44672d2dd1bef33832b0b,,,,,,,,,,,,,,,,,,,,,,,,,,,,,,,,,,,,,,,,,,,,,,,,,,,,,,,,,,,,,,,,,,,,,,,,,,,,,,,,,,,,,,,,,,,,"[""comma""]",0,[0.3308000000715765],28,0,28,0,1,,
,,,,,,,,,,,,5ebee9008ccaaa2ac3e1d210,21,Mężczyzna,2022-06-11_09h42.19.901,task,2021.1.4,Win32,74.93443237,6299f149e92ead563fba08ef,62a44672d2dd1bef33832b0b,,,,,,,,,,,,,,,,,,,,,,,,,,,,,,,,,,,,,,,,,,,,,,,,,,,,,,,,,,,,,,,,,,,,,,,,,,,,,,,,,,,,,,,,,,,,"[""period""]",0,[0.18330000007154013],29,0,29,0,1,,
,,,,,,,,,,,,5ebee9008ccaaa2ac3e1d210,21,Mężczyzna,2022-06-11_09h42.19.901,task,2021.1.4,Win32,74.93443237,6299f149e92ead563fba08ef,62a44672d2dd1bef33832b0b,,,,,,,,,,,,,,,,,,,,,,,,,,,,,,,,,,,,,,,,,,,,,,,,,,,,,,,,,,,,,,,,,,,,,,,,,,,,,,,,,,,,,,,,,,,,"[""comma""]",0,[0.16700000000003],30,0,30,0,1,,
,,,,,,,,,,,,5ebee9008ccaaa2ac3e1d210,21,Mężczyzna,2022-06-11_09h42.19.901,task,2021.1.4,Win32,74.93443237,6299f149e92ead563fba08ef,62a44672d2dd1bef33832b0b,,,,,,,,,,,,,,,,,,,,,,,,,,,,,,,,,,,,,,,,,,,,,,,,,,,,,,,,,,,,,,,,,,,,,,,,,,,,,,,,,,,,,,,,,,,,"[""comma""]",0,[0.1327000000477483],31,0,31,0,1,,
,,,,,,,,,,,,5ebee9008ccaaa2ac3e1d210,21,Mężczyzna,2022-06-11_09h42.19.901,task,2021.1.4,Win32,74.93443237,6299f149e92ead563fba08ef,62a44672d2dd1bef33832b0b,,,,,,,,,,,,,,,,,,,,,,,,,,,,,,,,,,,,,,,,,,,,,,,,,,,,,,,,,,,,,,,,,,,,,,,,,,,,,,,,,,,,,,,,,,,,"[""period""]",0,[0.11609999990457709],32,0,32,0,1,,
,,,,,,,,,,,,5ebee9008ccaaa2ac3e1d210,21,Mężczyzna,2022-06-11_09h42.19.901,task,2021.1.4,Win32,74.93443237,6299f149e92ead563fba08ef,62a44672d2dd1bef33832b0b,,,,,,,,,,,,,,,,,,,,,,,,,,,,,,,,,,,,,,,,,,,,,,,,,,,,,,,,,,,,,,,,,,,,,,,,,,,,,,,,,,,,,,,,,,,,"[""comma""]",0,[0.22069999992845624],33,0,33,0,1,,
,,,,,,,,,,,,5ebee9008ccaaa2ac3e1d210,21,Mężczyzna,2022-06-11_09h42.19.901,task,2021.1.4,Win32,74.93443237,6299f149e92ead563fba08ef,62a44672d2dd1bef33832b0b,,,,,,,,,,,,,,,,,,,,,,,,,,,,,,,,,,,,,,,,,,,,,,,,,,,,,,,,,,,,,,,,,,,,,,,,,,,,,,,,,,,,,,,,,,,,"[""period""]",0,[0.24749999999994543],34,0,34,0,1,,
,,,,,,,,,,,,5ebee9008ccaaa2ac3e1d210,21,Mężczyzna,2022-06-11_09h42.19.901,task,2021.1.4,Win32,74.93443237,6299f149e92ead563fba08ef,62a44672d2dd1bef33832b0b,,,,,,,,,,,,,,,,,,,,,,,,,,,,,,,,,,,,,,,,,,,,,,,,,,,,,,,,,,,,,,,,,,,,,,,,,,,,,,,,,,,,,,,,,,,,"[""period""]",0,[0.21110000002386187],35,0,35,0,1,,
,,,,,,,,,,,,5ebee9008ccaaa2ac3e1d210,21,Mężczyzna,2022-06-11_09h42.19.901,task,2021.1.4,Win32,74.93443237,6299f149e92ead563fba08ef,62a44672d2dd1bef33832b0b,,,,,,,,,,,,,,,,,,,,,,,,,,,,,,,,,,,,,,,,,,,,,,,,,,,,,,,,,,,,,,,,,,,,,,,,,,,,,,,,,,,,,,,,,,,,"[""comma""]",0,[0.3007999999522326],36,0,36,0,1,,
,,,,,,,,,,,,5ebee9008ccaaa2ac3e1d210,21,Mężczyzna,2022-06-11_09h42.19.901,task,2021.1.4,Win32,74.93443237,6299f149e92ead563fba08ef,62a44672d2dd1bef33832b0b,,,,,,,,,,,,,,,,,,,,,,,,,,,,,,,,,,,,,,,,,,,,,,,,,,,,,,,,,,,,,,,,,,,,,,,,,,,,,,,,,,,,,,,,,,,,"[""period""]",0,[0.25989999997614177],37,0,37,0,1,,
,,,,,,,,,,,,5ebee9008ccaaa2ac3e1d210,21,Mężczyzna,2022-06-11_09h42.19.901,task,2021.1.4,Win32,74.93443237,6299f149e92ead563fba08ef,62a44672d2dd1bef33832b0b,,,,,,,,,,,,,,,,,,,,,,,,,,,,,,,,,,,,,,,,,,,,,,,,,,,,,,,,,,,,,,,,,,,,,,,,,,,,,,,,,,,,,,,,,,,,"[""period""]",0,[0.20770000004768008],38,0,38,0,1,,
,,,,,,,,,,,,5ebee9008ccaaa2ac3e1d210,21,Mężczyzna,2022-06-11_09h42.19.901,task,2021.1.4,Win32,74.93443237,6299f149e92ead563fba08ef,62a44672d2dd1bef33832b0b,,,,,,,,,,,,,,,,,,,,,,,,,,,,,,,,,,,,,,,,,,,,,,,,,,,,,,,,,,,,,,,,,,,,,,,,,,,,,,,,,,,,,,,,,,,,"[""comma""]",0,[0.2340000000000373],39,0,39,0,1,,
,,,,,,,,,,,,5ebee9008ccaaa2ac3e1d210,21,Mężczyzna,2022-06-11_09h42.19.901,task,2021.1.4,Win32,74.93443237,6299f149e92ead563fba08ef,62a44672d2dd1bef33832b0b,,,,,,,,,,,,,,,,,,,,,,,,,,,,,,,,,,,,,,,,,,,,,,,,,,,,,,,,,,,,,,,,,,,,,,,,,,,,,,,,,,,,,,,,,,,,"[""comma""]",0,[0.2749000000953856],40,0,40,0,1,,
,,,,,,,,,,,,5ebee9008ccaaa2ac3e1d210,21,Mężczyzna,2022-06-11_09h42.19.901,task,2021.1.4,Win32,74.93443237,6299f149e92ead563fba08ef,62a44672d2dd1bef33832b0b,,,,,,,,,,,,,,,,,,,,,,,,,,,,,,,,,,,,,,,,,,,,,,,,,,,,,,,,,,,,,,,,,,,,,,,,,,,,,,,,,,,,,,,,,,,,"[""comma"",""period""]",0,"[0.1541000000238455,1.9146000000238246]",41,0,41,0,1,,
,,,,,,,,,,,,5ebee9008ccaaa2ac3e1d210,21,Mężczyzna,2022-06-11_09h42.19.901,task,2021.1.4,Win32,74.93443237,6299f149e92ead563fba08ef,62a44672d2dd1bef33832b0b,,,,,,,,,,,,,,,,,,,,,,,,,,,,,,,,,,,,,,,,,,,,,,,,,,,,,,,,,,,,,,,,,,,,,,,,,,,,,,,,,,,,,,,,,,,,,0,,42,0,42,0,1,,
,,,,,,,,,,,,5ebee9008ccaaa2ac3e1d210,21,Mężczyzna,2022-06-11_09h42.19.901,task,2021.1.4,Win32,74.93443237,6299f149e92ead563fba08ef,62a44672d2dd1bef33832b0b,,,,,,,,,,,,,,,,,,,,,,,,,,,,,,,,,,,,,,,,,,,,,,,,,,,,,,,,,,,,,,,,,,,,,,,,,,,,,,,,,,,,,,,,,,,,"[""period""]",0,[0.21239999997612813],43,0,43,0,1,,
,,,,,,,,,,,,5ebee9008ccaaa2ac3e1d210,21,Mężczyzna,2022-06-11_09h42.19.901,task,2021.1.4,Win32,74.93443237,6299f149e92ead563fba08ef,62a44672d2dd1bef33832b0b,,,,,,,,,,,,,,,,,,,,,,,,,,,,,,,,,,,,,,,,,,,,,,,,,,,,,,,,,,,,,,,,,,,,,,,,,,,,,,,,,,,,,,,,,,,,"[""comma""]",0,[0.24789999997619816],44,0,44,0,1,,
,,,,,,,,,,,,5ebee9008ccaaa2ac3e1d210,21,Mężczyzna,2022-06-11_09h42.19.901,task,2021.1.4,Win32,74.93443237,6299f149e92ead563fba08ef,62a44672d2dd1bef33832b0b,,,,,,,,,,,,,,,,,,,,,,,,,,,,,,,,,,,,,,,,,,,,,,,,,,,,,,,,,,,,,,,,,,,,,,,,,,,,,,,,,,,,,,,,,,,,"[""period""]",0,[0.26139999997622],45,0,45,0,1,,
,,,,,,,,,,,,5ebee9008ccaaa2ac3e1d210,21,Mężczyzna,2022-06-11_09h42.19.901,task,2021.1.4,Win32,74.93443237,6299f149e92ead563fba08ef,62a44672d2dd1bef33832b0b,,,,,,,,,,,,,,,,,,,,,,,,,,,,,,,,,,,,,,,,,,,,,,,,,,,,,,,,,,,,,,,,,,,,,,,,,,,,,,,,,,,,,,,,,,,,"[""period""]",0,[0.2216999999284326],46,0,46,0,1,,
,,,,,,,,,,,,5ebee9008ccaaa2ac3e1d210,21,Mężczyzna,2022-06-11_09h42.19.901,task,2021.1.4,Win32,74.93443237,6299f149e92ead563fba08ef,62a44672d2dd1bef33832b0b,,,,,,,,,,,,,,,,,,,,,,,,,,,,,,,,,,,,,,,,,,,,,,,,,,,,,,,,,,,,,,,,,,,,,,,,,,,,,,,,,,,,,,,,,,,,"[""period""]",0,[0.03529999995237176],47,0,47,0,1,,
,,,,,,,,,,,,5ebee9008ccaaa2ac3e1d210,21,Mężczyzna,2022-06-11_09h42.19.901,task,2021.1.4,Win32,74.93443237,6299f149e92ead563fba08ef,62a44672d2dd1bef33832b0b,,,,,,,,,,,,,,,,,,,,,,,,,,,,,,,,,,,,,,,,,,,,,,,,,,,,,,,,,,,,,,,,,,,,,,,,,,,,,,,,,,,,,,,,,,,,"[""comma""]",0,[0.24789999997619816],48,0,48,0,1,,
,,,,,,,,,,,,5ebee9008ccaaa2ac3e1d210,21,Mężczyzna,2022-06-11_09h42.19.901,task,2021.1.4,Win32,74.93443237,6299f149e92ead563fba08ef,62a44672d2dd1bef33832b0b,,,,,,,,,,,,,,,,,,,,,,,,,,,,,,,,,,,,,,,,,,,,,,,,,,,,,,,,,,,,,,,,,,,,,,,,,,,,,,,,,,,,,,,,,,,,"[""comma""]",0,[0.314700000047651],49,0,49,0,1,,
,,,,,,,,,,,,5ebee9008ccaaa2ac3e1d210,21,Mężczyzna,2022-06-11_09h42.19.901,task,2021.1.4,Win32,74.93443237,6299f149e92ead563fba08ef,62a44672d2dd1bef33832b0b,,,,,,,,,,,,,,,,,,,,,,,,,,,,,,,,,,,,,,,,,,,,,,,,,,,,,,,,,,,,,,,,,,,,,,,,,,,,,,,,,,,,,,,,,,,,"[""comma""]",0,[0.22500000000002274],50,0,50,0,1,,
,,,,,,,,,,,,5ebee9008ccaaa2ac3e1d210,21,Mężczyzna,2022-06-11_09h42.19.901,task,2021.1.4,Win32,74.93443237,6299f149e92ead563fba08ef,62a44672d2dd1bef33832b0b,,,,,,,,,,,,,,,,,,,,,,,,,,,,,,,,,,,,,,,,,,,,,,,,,,,,,,,,,,,,,,,,,,,,,,,,,,,,,,,,,,,,,,,,,,,,"[""period""]",0,[-0.006999999999948159],51,0,51,0,1,,
,,,,,,,,,,,,5ebee9008ccaaa2ac3e1d210,21,Mężczyzna,2022-06-11_09h42.19.901,task,2021.1.4,Win32,74.93443237,6299f149e92ead563fba08ef,62a44672d2dd1bef33832b0b,,,,,,,,,,,,,,,,,,,,,,,,,,,,,,,,,,,,,,,,,,,,,,,,,,,,,,,,,,,,,,,,,,,,,,,,,,,,,,,,,,,,,,,,,,,,"[""comma""]",0,[0.27659999990453343],52,0,52,0,1,,
,,,,,,,,,,,,5ebee9008ccaaa2ac3e1d210,21,Mężczyzna,2022-06-11_09h42.19.901,task,2021.1.4,Win32,74.93443237,6299f149e92ead563fba08ef,62a44672d2dd1bef33832b0b,,,,,,,,,,,,,,,,,,,,,,,,,,,,,,,,,,,,,,,,,,,,,,,,,,,,,,,,,,,,,,,,,,,,,,,,,,,,,,,,,,,,,,,,,,,,"[""period""]",0,[0.3582000000477592],53,0,53,0,1,,
,,,,,,,,,,,,5ebee9008ccaaa2ac3e1d210,21,Mężczyzna,2022-06-11_09h42.19.901,task,2021.1.4,Win32,74.93443237,6299f149e92ead563fba08ef,62a44672d2dd1bef33832b0b,,,,,,,,,,,,,,,,,,,,,,,,,,,,,,,,,,,,,,,,,,,,,,,,,,,,,,,,,,,,,,,,,,,,,,,,,,,,,,,,,,,,,,,,,,,,"[""period""]",0,[0.3544999999999163],54,0,54,0,1,,
,,,,,,,,,,,,5ebee9008ccaaa2ac3e1d210,21,Mężczyzna,2022-06-11_09h42.19.901,task,2021.1.4,Win32,74.93443237,6299f149e92ead563fba08ef,62a44672d2dd1bef33832b0b,,,,,,,,,,,,,,,,,,,,,,,,,,,,,,,,,,,,,,,,,,,,,,,,,,,,,,,,,,,,,,,,,,,,,,,,,,,,,,,,,,,,,,,,,,,,"[""comma""]",0,[0.4076000000238764],55,0,55,0,1,,
,,,,,,,,,,,,5ebee9008ccaaa2ac3e1d210,21,Mężczyzna,2022-06-11_09h42.19.901,task,2021.1.4,Win32,74.93443237,6299f149e92ead563fba08ef,62a44672d2dd1bef33832b0b,,,,,,,,,,,,,,,,,,,,,,,,,,,,,,,,,,,,,,,,,,,,,,,,,,,,,,,,,,,,,,,,,,,,,,,,,,,,,,,,,,,,,,,,,,,,"[""comma""]",0,[0.3004999999999427],56,0,56,0,1,,
,,,,,,,,,,,,5ebee9008ccaaa2ac3e1d210,21,Mężczyzna,2022-06-11_09h42.19.901,task,2021.1.4,Win32,74.93443237,6299f149e92ead563fba08ef,62a44672d2dd1bef33832b0b,,,,,,,,,,,,,,,,,,,,,,,,,,,,,,,,,,,,,,,,,,,,,,,,,,,,,,,,,,,,,,,,,,,,,,,,,,,,,,,,,,,,,,,,,,,,"[""comma""]",0,[0.4878000000715019],57,0,57,0,1,,
,,,,,,,,,,,,5ebee9008ccaaa2ac3e1d210,21,Mężczyzna,2022-06-11_09h42.19.901,task,2021.1.4,Win32,74.93443237,6299f149e92ead563fba08ef,62a44672d2dd1bef33832b0b,,,,,,,,,,,,,,,,,,,,,,,,,,,,,,,,,,,,,,,,,,,,,,,,,,,,,,,,,,,,,,,,,,,,,,,,,,,,,,,,,,,,,,,,,,,,"[""period""]",0,[0.34580000007167655],58,0,58,0,1,,
,,,,,,,,,,,,5ebee9008ccaaa2ac3e1d210,21,Mężczyzna,2022-06-11_09h42.19.901,task,2021.1.4,Win32,74.93443237,6299f149e92ead563fba08ef,62a44672d2dd1bef33832b0b,,,,,,,,,,,,,,,,,,,,,,,,,,,,,,,,,,,,,,,,,,,,,,,,,,,,,,,,,,,,,,,,,,,,,,,,,,,,,,,,,,,,,,,,,,,,"[""comma""]",0,[0.3424999999999727],59,0,59,0,1,,
,,,,,,,,,,,,5ebee9008ccaaa2ac3e1d210,21,Mężczyzna,2022-06-11_09h42.19.901,task,2021.1.4,Win32,74.93443237,6299f149e92ead563fba08ef,62a44672d2dd1bef33832b0b,,,,,,,,,,,,,,,,,,,,,,,,,,,,,,,,,,,,,,,,,,,,,,,,,,,,,,,,,,,,,,,,,,,,,,,,,,,,,,,,,,,,,,,,,,,,"[""period""]",0,[0.3545000000001437],60,0,60,0,1,,
,,,,,,,,,,,,5ebee9008ccaaa2ac3e1d210,21,Mężczyzna,2022-06-11_09h42.19.901,task,2021.1.4,Win32,74.93443237,6299f149e92ead563fba08ef,62a44672d2dd1bef33832b0b,,,,,,,,,,,,,,,,,,,,,,,,,,,,,,,,,,,,,,,,,,,,,,,,,,,,,,,,,,,,,,,,,,,,,,,,,,,,,,,,,,,,,,,,,,,,"[""period""]",0,[0.33010000002400375],61,0,61,0,1,,
,,,,,,,,,,,,5ebee9008ccaaa2ac3e1d210,21,Mężczyzna,2022-06-11_09h42.19.901,task,2021.1.4,Win32,74.93443237,6299f149e92ead563fba08ef,62a44672d2dd1bef33832b0b,,,,,,,,,,,,,,,,,,,,,,,,,,,,,,,,,,,,,,,,,,,,,,,,,,,,,,,,,,,,,,,,,,,,,,,,,,,,,,,,,,,,,,,,,,,,"[""comma""]",0,[0.344799999952329],62,0,62,0,1,,
,,,,,,,,,,,,5ebee9008ccaaa2ac3e1d210,21,Mężczyzna,2022-06-11_09h42.19.901,task,2021.1.4,Win32,74.93443237,6299f149e92ead563fba08ef,62a44672d2dd1bef33832b0b,,,,,,,,,,,,,,,,,,,,,,,,,,,,,,,,,,,,,,,,,,,,,,,,,,,,,,,,,,,,,,,,,,,,,,,,,,,,,,,,,,,,,,,,,,,,"[""period""]",0,[0.3563999999762473],63,0,63,0,1,,
,,,,,,,,,,,,5ebee9008ccaaa2ac3e1d210,21,Mężczyzna,2022-06-11_09h42.19.901,task,2021.1.4,Win32,74.93443237,6299f149e92ead563fba08ef,62a44672d2dd1bef33832b0b,,,,,,,,,,,,,,,,,,,,,,,,,,,,,,,,,,,,,,,,,,,,,,,,,,,,,,,,,,,,,,,,,,,,,,,,,,,,,,,,,,,,,,,,,,,,"[""period""]",0,[0.2615999999045471],64,0,64,0,1,,
,,,,,,,,,,,,5ebee9008ccaaa2ac3e1d210,21,Mężczyzna,2022-06-11_09h42.19.901,task,2021.1.4,Win32,74.93443237,6299f149e92ead563fba08ef,62a44672d2dd1bef33832b0b,,,,,,,,,,,,,,,,,,,,,,,,,,,,,,,,,,,,,,,,,,,,,,,,,,,,,,,,,,,,,,,,,,,,,,,,,,,,,,,,,,,,,,,,,,,,"[""comma""]",0,[0.38219999992838893],65,0,65,0,1,,
,,,,,,,,,,,,5ebee9008ccaaa2ac3e1d210,21,Mężczyzna,2022-06-11_09h42.19.901,task,2021.1.4,Win32,74.93443237,6299f149e92ead563fba08ef,62a44672d2dd1bef33832b0b,,,,,,,,,,,,,,,,,,,,,,,,,,,,,,,,,,,,,,,,,,,,,,,,,,,,,,,,,,,,,,,,,,,,,,,,,,,,,,,,,,,,,,,,,,,,"[""period""]",0,[0.40660000002390007],66,0,66,0,1,,
,,,,,,,,,,,,5ebee9008ccaaa2ac3e1d210,21,Mężczyzna,2022-06-11_09h42.19.901,task,2021.1.4,Win32,74.93443237,6299f149e92ead563fba08ef,62a44672d2dd1bef33832b0b,,,,,,,,,,,,,,,,,,,,,,,,,,,,,,,,,,,,,,,,,,,,,,,,,,,,,,,,,,,,,,,,,,,,,,,,,,,,,,,,,,,,,,,,,,,,"[""comma""]",0,[0.30199999999990723],67,0,67,0,1,,
,,,,,,,,,,,,5ebee9008ccaaa2ac3e1d210,21,Mężczyzna,2022-06-11_09h42.19.901,task,2021.1.4,Win32,74.93443237,6299f149e92ead563fba08ef,62a44672d2dd1bef33832b0b,,,,,,,,,,,,,,,,,,,,,,,,,,,,,,,,,,,,,,,,,,,,,,,,,,,,,,,,,,,,,,,,,,,,,,,,,,,,,,,,,,,,,,,,,,,,"[""comma""]",0,[0.3409999999998945],68,0,68,0,1,,
,,,,,,,,,,,,5ebee9008ccaaa2ac3e1d210,21,Mężczyzna,2022-06-11_09h42.19.901,task,2021.1.4,Win32,74.93443237,6299f149e92ead563fba08ef,62a44672d2dd1bef33832b0b,,,,,,,,,,,,,,,,,,,,,,,,,,,,,,,,,,,,,,,,,,,,,,,,,,,,,,,,,,,,,,,,,,,,,,,,,,,,,,,,,,,,,,,,,,,,"[""period""]",0,[0.3458999999761545],69,0,69,0,1,,
,,,,,,,,,,,,5ebee9008ccaaa2ac3e1d210,21,Mężczyzna,2022-06-11_09h42.19.901,task,2021.1.4,Win32,74.93443237,6299f149e92ead563fba08ef,62a44672d2dd1bef33832b0b,,,,,,,,,,,,,,,,,,,,,,,,,,,,,,,,,,,,,,,,,,,,,,,,,,,,,,,,,,,,,,,,,,,,,,,,,,,,,,,,,,,,,,,,,,,,"[""period""]",0,[0.407299999952329],70,0,70,0,1,,
,,,,,,,,,,,,5ebee9008ccaaa2ac3e1d210,21,Mężczyzna,2022-06-11_09h42.19.901,task,2021.1.4,Win32,74.93443237,6299f149e92ead563fba08ef,62a44672d2dd1bef33832b0b,,,,,,,,,,,,,,,,,,,,,,,,,,,,,,,,,,,,,,,,,,,,,,,,,,,,,,,,,,,,,,,,,,,,,,,,,,,,,,,,,,,,,,,,,,,,"[""comma""]",0,[0.3271000000238473],71,0,71,0,1,,
,,,,,,,,,,,,5ebee9008ccaaa2ac3e1d210,21,Mężczyzna,2022-06-11_09h42.19.901,task,2021.1.4,Win32,74.93443237,6299f149e92ead563fba08ef,62a44672d2dd1bef33832b0b,,,,,,,,,,,,,,,,,,,,,,,,,,,,,,,,,,,,,,,,,,,,,,,,,,,,,,,,,,,,,,,,,,,,,,,,,,,,,,,,,,,,,,,,,,,,"[""period""]",0,[0.34060000002386914],72,0,72,0,1,,
,,,,,,,,,,,,5ebee9008ccaaa2ac3e1d210,21,Mężczyzna,2022-06-11_09h42.19.901,task,2021.1.4,Win32,74.93443237,6299f149e92ead563fba08ef,62a44672d2dd1bef33832b0b,,,,,,,,,,,,,,,,,,,,,,,,,,,,,,,,,,,,,,,,,,,,,,,,,,,,,,,,,,,,,,,,,,,,,,,,,,,,,,,,,,,,,,,,,,,,"[""comma""]",0,[0.3681000000237873],73,0,73,0,1,,
,,,,,,,,,,,,5ebee9008ccaaa2ac3e1d210,21,Mężczyzna,2022-06-11_09h42.19.901,task,2021.1.4,Win32,74.93443237,6299f149e92ead563fba08ef,62a44672d2dd1bef33832b0b,,,,,,,,,,,,,,,,,,,,,,,,,,,,,,,,,,,,,,,,,,,,,,,,,,,,,,,,,,,,,,,,,,,,,,,,,,,,,,,,,,,,,,,,,,,,"[""comma""]",0,[0.23619999992843077],74,0,74,0,1,,
,,,,,,,,,,,,5ebee9008ccaaa2ac3e1d210,21,Mężczyzna,2022-06-11_09h42.19.901,task,2021.1.4,Win32,74.93443237,6299f149e92ead563fba08ef,62a44672d2dd1bef33832b0b,,,,,,,,,,,,,,,,,,,,,,,,,,,,,,,,,,,,,,,,,,,,,,,,,,,,,,,,,,,,,,,,,,,,,,,,,,,,,,,,,,,,,,,,,,,,"[""period""]",0,[0.23949999999990723],75,0,75,0,1,,
,,,,,,,,,,,,5ebee9008ccaaa2ac3e1d210,21,Mężczyzna,2022-06-11_09h42.19.901,task,2021.1.4,Win32,74.93443237,6299f149e92ead563fba08ef,62a44672d2dd1bef33832b0b,,,,,,,,,,,,,,,,,,,,,,,,,,,,,,,,,,,,,,,,,,,,,,,,,,,,,,,,,,,,,,,,,,,,,,,,,,,,,,,,,,,,,,,,,,,,"[""comma""]",0,[0.4347000000477692],76,0,76,0,1,,
,,,,,,,,,,,,5ebee9008ccaaa2ac3e1d210,21,Mężczyzna,2022-06-11_09h42.19.901,task,2021.1.4,Win32,74.93443237,6299f149e92ead563fba08ef,62a44672d2dd1bef33832b0b,,,,,,,,,,,,,,,,,,,,,,,,,,,,,,,,,,,,,,,,,,,,,,,,,,,,,,,,,,,,,,,,,,,,,,,,,,,,,,,,,,,,,,,,,,,,"[""period""]",0,[0.32810000002405104],77,0,77,0,1,,
,,,,,,,,,,,,5ebee9008ccaaa2ac3e1d210,21,Mężczyzna,2022-06-11_09h42.19.901,task,2021.1.4,Win32,74.93443237,6299f149e92ead563fba08ef,62a44672d2dd1bef33832b0b,,,,,,,,,,,,,,,,,,,,,,,,,,,,,,,,,,,,,,,,,,,,,,,,,,,,,,,,,,,,,,,,,,,,,,,,,,,,,,,,,,,,,,,,,,,,"[""period""]",0,[0.31520000004752546],78,0,78,0,1,,
,,,,,,,,,,,,5ebee9008ccaaa2ac3e1d210,21,Mężczyzna,2022-06-11_09h42.19.901,task,2021.1.4,Win32,74.93443237,6299f149e92ead563fba08ef,62a44672d2dd1bef33832b0b,,,,,,,,,,,,,,,,,,,,,,,,,,,,,,,,,,,,,,,,,,,,,,,,,,,,,,,,,,,,,,,,,,,,,,,,,,,,,,,,,,,,,,,,,,,,"[""period""]",0,[0.3162000000477292],79,0,79,0,1,,
,,,,,,,,,,,,5ebee9008ccaaa2ac3e1d210,21,Mężczyzna,2022-06-11_09h42.19.901,task,2021.1.4,Win32,74.93443237,6299f149e92ead563fba08ef,62a44672d2dd1bef33832b0b,,,,,,,,,,,,,,,,,,,,,,,,,,,,,,,,,,,,,,,,,,,,,,,,,,,,,,,,,,,,,,,,,,,,,,,,,,,,,,,,,,,,,,,,,,,,"[""comma""]",0,[0.3963999999762109],80,0,80,0,1,,
