key_resp_15.keys,key_resp_15.rt,key_resp_13.keys,key_resp_13.corr,key_resp_13.rt,ranodm_loop.thisRepN,ranodm_loop.thisTrialN,ranodm_loop.thisN,ranodm_loop.thisIndex,ranodm_loop.ran,participant,Wiek*,Płeć,date,expName,psychopyVersion,OS,frameRate,study_id,session,key_resp_16.keys,key_resp_16.rt,key_resp_4.keys,key_resp_4.rt,next_letter.thisRepN,next_letter.thisTrialN,next_letter.thisN,next_letter.thisIndex,next_letter.ran,letter,simple_recall,key_resp_5.keys,key_resp_5.rt,simple_recall_corr,simple_recall_corrkeys,next_level.thisRepN,next_level.thisTrialN,next_level.thisN,next_level.thisIndex,next_level.ran,key_resp_2.keys,key_resp_2.rt,digit_answer,key_resp.keys,key_resp.corr,key_resp.rt,RT_list,next_equation.thisRepN,next_equation.thisTrialN,next_equation.thisN,next_equation.thisIndex,next_equation.ran,Task,Trial,Problem,Operation_answer,processing_score,sumRT,meanRT,sumdiff,sd,RT,key_resp_3.keys,key_resp_3.rt,repeat_practice.thisRepN,repeat_practice.thisTrialN,repeat_practice.thisN,repeat_practice.thisIndex,repeat_practice.ran,key_resp_6.keys,key_resp_6.rt,key_resp_11.keys,key_resp_11.corr,operation_correct,repeat_if_wrong_prac.thisRepN,repeat_if_wrong_prac.thisTrialN,repeat_if_wrong_prac.thisN,repeat_if_wrong_prac.thisIndex,repeat_if_wrong_prac.ran,key_resp_11.rt,span_size_prac.thisRepN,span_size_prac.thisTrialN,span_size_prac.thisN,span_size_prac.thisIndex,span_size_prac.ran,complex_recall_practice,key_resp_9.keys,key_resp_9.corr,key_resp_9.rt,complex_prac_corr,span_recall_prac.thisRepN,span_recall_prac.thisTrialN,span_recall_prac.thisN,span_recall_prac.thisIndex,span_recall_prac.ran,key_resp_10.keys,key_resp_10.rt,key_resp_7.keys,key_resp_7.corr,key_resp_7.rt,repeat_if_wrong.thisRepN,repeat_if_wrong.thisTrialN,repeat_if_wrong.thisN,repeat_if_wrong.thisIndex,repeat_if_wrong.ran,span_size.thisRepN,span_size.thisTrialN,span_size.thisN,span_size.thisIndex,span_size.ran,complex_recall,key_resp_8.keys,key_resp_8.corr,key_resp_8.rt,complex_recall_corr,complex_recall_corrkeys,span_recall.thisRepN,span_recall.thisTrialN,span_recall.thisN,span_recall.thisIndex,span_recall.ran,key_resp_12.keys,key_resp_12.rt
space,16.792,"[""comma""]",0,[0.7650000000000006],0,0,0,0,1,5edaa4924ea9bd6f14f3d618,19,Mężczyzna,2022-06-04_08h10.26.602,task,2021.1.4,Win32,144.092219,628b806c463b948bc644b84f,629af733d2e9718bda33dcb4,,,,,,,,,,,,,,,,,,,,,,,,,,,,,,,,,,,,,,,,,,,,,,,,,,,,,,,,,,,,,,,,,,,,,,,,,,,,,,,,,,,,,,,,,,,,,,,,,,,,,,,
,,"[""period""]",0,[0.4479999999999933],1,0,1,0,1,5edaa4924ea9bd6f14f3d618,19,Mężczyzna,2022-06-04_08h10.26.602,task,2021.1.4,Win32,144.092219,628b806c463b948bc644b84f,629af733d2e9718bda33dcb4,,,,,,,,,,,,,,,,,,,,,,,,,,,,,,,,,,,,,,,,,,,,,,,,,,,,,,,,,,,,,,,,,,,,,,,,,,,,,,,,,,,,,,,,,,,,,,,,,,,,,,,
,,"[""period""]",0,[0.3199999999999932],2,0,2,0,1,5edaa4924ea9bd6f14f3d618,19,Mężczyzna,2022-06-04_08h10.26.602,task,2021.1.4,Win32,144.092219,628b806c463b948bc644b84f,629af733d2e9718bda33dcb4,,,,,,,,,,,,,,,,,,,,,,,,,,,,,,,,,,,,,,,,,,,,,,,,,,,,,,,,,,,,,,,,,,,,,,,,,,,,,,,,,,,,,,,,,,,,,,,,,,,,,,,
,,"[""comma""]",0,[0.4579999999999984],3,0,3,0,1,5edaa4924ea9bd6f14f3d618,19,Mężczyzna,2022-06-04_08h10.26.602,task,2021.1.4,Win32,144.092219,628b806c463b948bc644b84f,629af733d2e9718bda33dcb4,,,,,,,,,,,,,,,,,,,,,,,,,,,,,,,,,,,,,,,,,,,,,,,,,,,,,,,,,,,,,,,,,,,,,,,,,,,,,,,,,,,,,,,,,,,,,,,,,,,,,,,
,,"[""comma""]",0,[0.27299999999999613],4,0,4,0,1,5edaa4924ea9bd6f14f3d618,19,Mężczyzna,2022-06-04_08h10.26.602,task,2021.1.4,Win32,144.092219,628b806c463b948bc644b84f,629af733d2e9718bda33dcb4,,,,,,,,,,,,,,,,,,,,,,,,,,,,,,,,,,,,,,,,,,,,,,,,,,,,,,,,,,,,,,,,,,,,,,,,,,,,,,,,,,,,,,,,,,,,,,,,,,,,,,,
,,"[""comma""]",0,[0.26499999999998636],5,0,5,0,1,5edaa4924ea9bd6f14f3d618,19,Mężczyzna,2022-06-04_08h10.26.602,task,2021.1.4,Win32,144.092219,628b806c463b948bc644b84f,629af733d2e9718bda33dcb4,,,,,,,,,,,,,,,,,,,,,,,,,,,,,,,,,,,,,,,,,,,,,,,,,,,,,,,,,,,,,,,,,,,,,,,,,,,,,,,,,,,,,,,,,,,,,,,,,,,,,,,
,,"[""period""]",0,[0.2569999999999908],6,0,6,0,1,5edaa4924ea9bd6f14f3d618,19,Mężczyzna,2022-06-04_08h10.26.602,task,2021.1.4,Win32,144.092219,628b806c463b948bc644b84f,629af733d2e9718bda33dcb4,,,,,,,,,,,,,,,,,,,,,,,,,,,,,,,,,,,,,,,,,,,,,,,,,,,,,,,,,,,,,,,,,,,,,,,,,,,,,,,,,,,,,,,,,,,,,,,,,,,,,,,
,,"[""period""]",0,[0.25],7,0,7,0,1,5edaa4924ea9bd6f14f3d618,19,Mężczyzna,2022-06-04_08h10.26.602,task,2021.1.4,Win32,144.092219,628b806c463b948bc644b84f,629af733d2e9718bda33dcb4,,,,,,,,,,,,,,,,,,,,,,,,,,,,,,,,,,,,,,,,,,,,,,,,,,,,,,,,,,,,,,,,,,,,,,,,,,,,,,,,,,,,,,,,,,,,,,,,,,,,,,,
,,"[""comma""]",0,[0.2909999999999968],8,0,8,0,1,5edaa4924ea9bd6f14f3d618,19,Mężczyzna,2022-06-04_08h10.26.602,task,2021.1.4,Win32,144.092219,628b806c463b948bc644b84f,629af733d2e9718bda33dcb4,,,,,,,,,,,,,,,,,,,,,,,,,,,,,,,,,,,,,,,,,,,,,,,,,,,,,,,,,,,,,,,,,,,,,,,,,,,,,,,,,,,,,,,,,,,,,,,,,,,,,,,
,,"[""period""]",0,[0.25900000000000034],9,0,9,0,1,5edaa4924ea9bd6f14f3d618,19,Mężczyzna,2022-06-04_08h10.26.602,task,2021.1.4,Win32,144.092219,628b806c463b948bc644b84f,629af733d2e9718bda33dcb4,,,,,,,,,,,,,,,,,,,,,,,,,,,,,,,,,,,,,,,,,,,,,,,,,,,,,,,,,,,,,,,,,,,,,,,,,,,,,,,,,,,,,,,,,,,,,,,,,,,,,,,
,,"[""period""]",0,[0.2179999999999893],10,0,10,0,1,5edaa4924ea9bd6f14f3d618,19,Mężczyzna,2022-06-04_08h10.26.602,task,2021.1.4,Win32,144.092219,628b806c463b948bc644b84f,629af733d2e9718bda33dcb4,,,,,,,,,,,,,,,,,,,,,,,,,,,,,,,,,,,,,,,,,,,,,,,,,,,,,,,,,,,,,,,,,,,,,,,,,,,,,,,,,,,,,,,,,,,,,,,,,,,,,,,
,,"[""period""]",0,[0.2779999999999916],11,0,11,0,1,5edaa4924ea9bd6f14f3d618,19,Mężczyzna,2022-06-04_08h10.26.602,task,2021.1.4,Win32,144.092219,628b806c463b948bc644b84f,629af733d2e9718bda33dcb4,,,,,,,,,,,,,,,,,,,,,,,,,,,,,,,,,,,,,,,,,,,,,,,,,,,,,,,,,,,,,,,,,,,,,,,,,,,,,,,,,,,,,,,,,,,,,,,,,,,,,,,
,,"[""comma""]",0,[0.28300000000000125],12,0,12,0,1,5edaa4924ea9bd6f14f3d618,19,Mężczyzna,2022-06-04_08h10.26.602,task,2021.1.4,Win32,144.092219,628b806c463b948bc644b84f,629af733d2e9718bda33dcb4,,,,,,,,,,,,,,,,,,,,,,,,,,,,,,,,,,,,,,,,,,,,,,,,,,,,,,,,,,,,,,,,,,,,,,,,,,,,,,,,,,,,,,,,,,,,,,,,,,,,,,,
,,,0,,13,0,13,0,1,5edaa4924ea9bd6f14f3d618,19,Mężczyzna,2022-06-04_08h10.26.602,task,2021.1.4,Win32,144.092219,628b806c463b948bc644b84f,629af733d2e9718bda33dcb4,,,,,,,,,,,,,,,,,,,,,,,,,,,,,,,,,,,,,,,,,,,,,,,,,,,,,,,,,,,,,,,,,,,,,,,,,,,,,,,,,,,,,,,,,,,,,,,,,,,,,,,
,,"[""comma""]",0,[0.19499999999999318],14,0,14,0,1,5edaa4924ea9bd6f14f3d618,19,Mężczyzna,2022-06-04_08h10.26.602,task,2021.1.4,Win32,144.092219,628b806c463b948bc644b84f,629af733d2e9718bda33dcb4,,,,,,,,,,,,,,,,,,,,,,,,,,,,,,,,,,,,,,,,,,,,,,,,,,,,,,,,,,,,,,,,,,,,,,,,,,,,,,,,,,,,,,,,,,,,,,,,,,,,,,,
,,"[""period""]",0,[0.25],15,0,15,0,1,5edaa4924ea9bd6f14f3d618,19,Mężczyzna,2022-06-04_08h10.26.602,task,2021.1.4,Win32,144.092219,628b806c463b948bc644b84f,629af733d2e9718bda33dcb4,,,,,,,,,,,,,,,,,,,,,,,,,,,,,,,,,,,,,,,,,,,,,,,,,,,,,,,,,,,,,,,,,,,,,,,,,,,,,,,,,,,,,,,,,,,,,,,,,,,,,,,
,,"[""period""]",0,[0.3329999999999984],16,0,16,0,1,5edaa4924ea9bd6f14f3d618,19,Mężczyzna,2022-06-04_08h10.26.602,task,2021.1.4,Win32,144.092219,628b806c463b948bc644b84f,629af733d2e9718bda33dcb4,,,,,,,,,,,,,,,,,,,,,,,,,,,,,,,,,,,,,,,,,,,,,,,,,,,,,,,,,,,,,,,,,,,,,,,,,,,,,,,,,,,,,,,,,,,,,,,,,,,,,,,
,,"[""period""]",0,[0.28600000000000136],17,0,17,0,1,5edaa4924ea9bd6f14f3d618,19,Mężczyzna,2022-06-04_08h10.26.602,task,2021.1.4,Win32,144.092219,628b806c463b948bc644b84f,629af733d2e9718bda33dcb4,,,,,,,,,,,,,,,,,,,,,,,,,,,,,,,,,,,,,,,,,,,,,,,,,,,,,,,,,,,,,,,,,,,,,,,,,,,,,,,,,,,,,,,,,,,,,,,,,,,,,,,
,,"[""comma""]",0,[0.1729999999999876],18,0,18,0,1,5edaa4924ea9bd6f14f3d618,19,Mężczyzna,2022-06-04_08h10.26.602,task,2021.1.4,Win32,144.092219,628b806c463b948bc644b84f,629af733d2e9718bda33dcb4,,,,,,,,,,,,,,,,,,,,,,,,,,,,,,,,,,,,,,,,,,,,,,,,,,,,,,,,,,,,,,,,,,,,,,,,,,,,,,,,,,,,,,,,,,,,,,,,,,,,,,,
,,"[""period""]",0,[0.2769999999999868],19,0,19,0,1,5edaa4924ea9bd6f14f3d618,19,Mężczyzna,2022-06-04_08h10.26.602,task,2021.1.4,Win32,144.092219,628b806c463b948bc644b84f,629af733d2e9718bda33dcb4,,,,,,,,,,,,,,,,,,,,,,,,,,,,,,,,,,,,,,,,,,,,,,,,,,,,,,,,,,,,,,,,,,,,,,,,,,,,,,,,,,,,,,,,,,,,,,,,,,,,,,,
,,"[""comma""]",0,[0.045000000000001705],20,0,20,0,1,5edaa4924ea9bd6f14f3d618,19,Mężczyzna,2022-06-04_08h10.26.602,task,2021.1.4,Win32,144.092219,628b806c463b948bc644b84f,629af733d2e9718bda33dcb4,,,,,,,,,,,,,,,,,,,,,,,,,,,,,,,,,,,,,,,,,,,,,,,,,,,,,,,,,,,,,,,,,,,,,,,,,,,,,,,,,,,,,,,,,,,,,,,,,,,,,,,
,,"[""comma""]",0,[0.23799999999999955],21,0,21,0,1,5edaa4924ea9bd6f14f3d618,19,Mężczyzna,2022-06-04_08h10.26.602,task,2021.1.4,Win32,144.092219,628b806c463b948bc644b84f,629af733d2e9718bda33dcb4,,,,,,,,,,,,,,,,,,,,,,,,,,,,,,,,,,,,,,,,,,,,,,,,,,,,,,,,,,,,,,,,,,,,,,,,,,,,,,,,,,,,,,,,,,,,,,,,,,,,,,,
,,"[""period""]",0,[0.2769999999999868],22,0,22,0,1,5edaa4924ea9bd6f14f3d618,19,Mężczyzna,2022-06-04_08h10.26.602,task,2021.1.4,Win32,144.092219,628b806c463b948bc644b84f,629af733d2e9718bda33dcb4,,,,,,,,,,,,,,,,,,,,,,,,,,,,,,,,,,,,,,,,,,,,,,,,,,,,,,,,,,,,,,,,,,,,,,,,,,,,,,,,,,,,,,,,,,,,,,,,,,,,,,,
,,"[""period""]",0,[0.3009999999999877],23,0,23,0,1,5edaa4924ea9bd6f14f3d618,19,Mężczyzna,2022-06-04_08h10.26.602,task,2021.1.4,Win32,144.092219,628b806c463b948bc644b84f,629af733d2e9718bda33dcb4,,,,,,,,,,,,,,,,,,,,,,,,,,,,,,,,,,,,,,,,,,,,,,,,,,,,,,,,,,,,,,,,,,,,,,,,,,,,,,,,,,,,,,,,,,,,,,,,,,,,,,,
,,"[""comma""]",0,[0.25200000000000955],24,0,24,0,1,5edaa4924ea9bd6f14f3d618,19,Mężczyzna,2022-06-04_08h10.26.602,task,2021.1.4,Win32,144.092219,628b806c463b948bc644b84f,629af733d2e9718bda33dcb4,,,,,,,,,,,,,,,,,,,,,,,,,,,,,,,,,,,,,,,,,,,,,,,,,,,,,,,,,,,,,,,,,,,,,,,,,,,,,,,,,,,,,,,,,,,,,,,,,,,,,,,
,,"[""period""]",0,[0.23799999999999955],25,0,25,0,1,5edaa4924ea9bd6f14f3d618,19,Mężczyzna,2022-06-04_08h10.26.602,task,2021.1.4,Win32,144.092219,628b806c463b948bc644b84f,629af733d2e9718bda33dcb4,,,,,,,,,,,,,,,,,,,,,,,,,,,,,,,,,,,,,,,,,,,,,,,,,,,,,,,,,,,,,,,,,,,,,,,,,,,,,,,,,,,,,,,,,,,,,,,,,,,,,,,
,,"[""comma""]",0,[0.2150000000000034],26,0,26,0,1,5edaa4924ea9bd6f14f3d618,19,Mężczyzna,2022-06-04_08h10.26.602,task,2021.1.4,Win32,144.092219,628b806c463b948bc644b84f,629af733d2e9718bda33dcb4,,,,,,,,,,,,,,,,,,,,,,,,,,,,,,,,,,,,,,,,,,,,,,,,,,,,,,,,,,,,,,,,,,,,,,,,,,,,,,,,,,,,,,,,,,,,,,,,,,,,,,,
,,"[""comma"",""comma""]",0,"[0.28700000000000614,0.6560000000000059]",27,0,27,0,1,5edaa4924ea9bd6f14f3d618,19,Mężczyzna,2022-06-04_08h10.26.602,task,2021.1.4,Win32,144.092219,628b806c463b948bc644b84f,629af733d2e9718bda33dcb4,,,,,,,,,,,,,,,,,,,,,,,,,,,,,,,,,,,,,,,,,,,,,,,,,,,,,,,,,,,,,,,,,,,,,,,,,,,,,,,,,,,,,,,,,,,,,,,,,,,,,,,
,,"[""period""]",0,[0.26400000000001],28,0,28,0,1,5edaa4924ea9bd6f14f3d618,19,Mężczyzna,2022-06-04_08h10.26.602,task,2021.1.4,Win32,144.092219,628b806c463b948bc644b84f,629af733d2e9718bda33dcb4,,,,,,,,,,,,,,,,,,,,,,,,,,,,,,,,,,,,,,,,,,,,,,,,,,,,,,,,,,,,,,,,,,,,,,,,,,,,,,,,,,,,,,,,,,,,,,,,,,,,,,,
,,"[""comma""]",0,[0.25],29,0,29,0,1,5edaa4924ea9bd6f14f3d618,19,Mężczyzna,2022-06-04_08h10.26.602,task,2021.1.4,Win32,144.092219,628b806c463b948bc644b84f,629af733d2e9718bda33dcb4,,,,,,,,,,,,,,,,,,,,,,,,,,,,,,,,,,,,,,,,,,,,,,,,,,,,,,,,,,,,,,,,,,,,,,,,,,,,,,,,,,,,,,,,,,,,,,,,,,,,,,,
,,"[""period""]",0,[0.2949999999999875],30,0,30,0,1,5edaa4924ea9bd6f14f3d618,19,Mężczyzna,2022-06-04_08h10.26.602,task,2021.1.4,Win32,144.092219,628b806c463b948bc644b84f,629af733d2e9718bda33dcb4,,,,,,,,,,,,,,,,,,,,,,,,,,,,,,,,,,,,,,,,,,,,,,,,,,,,,,,,,,,,,,,,,,,,,,,,,,,,,,,,,,,,,,,,,,,,,,,,,,,,,,,
,,"[""period""]",0,[0.2709999999999866],31,0,31,0,1,5edaa4924ea9bd6f14f3d618,19,Mężczyzna,2022-06-04_08h10.26.602,task,2021.1.4,Win32,144.092219,628b806c463b948bc644b84f,629af733d2e9718bda33dcb4,,,,,,,,,,,,,,,,,,,,,,,,,,,,,,,,,,,,,,,,,,,,,,,,,,,,,,,,,,,,,,,,,,,,,,,,,,,,,,,,,,,,,,,,,,,,,,,,,,,,,,,
,,"[""period""]",0,[0.22399999999998954],32,0,32,0,1,5edaa4924ea9bd6f14f3d618,19,Mężczyzna,2022-06-04_08h10.26.602,task,2021.1.4,Win32,144.092219,628b806c463b948bc644b84f,629af733d2e9718bda33dcb4,,,,,,,,,,,,,,,,,,,,,,,,,,,,,,,,,,,,,,,,,,,,,,,,,,,,,,,,,,,,,,,,,,,,,,,,,,,,,,,,,,,,,,,,,,,,,,,,,,,,,,,
,,"[""period""]",0,[0.2510000000000048],33,0,33,0,1,5edaa4924ea9bd6f14f3d618,19,Mężczyzna,2022-06-04_08h10.26.602,task,2021.1.4,Win32,144.092219,628b806c463b948bc644b84f,629af733d2e9718bda33dcb4,,,,,,,,,,,,,,,,,,,,,,,,,,,,,,,,,,,,,,,,,,,,,,,,,,,,,,,,,,,,,,,,,,,,,,,,,,,,,,,,,,,,,,,,,,,,,,,,,,,,,,,
,,"[""comma""]",0,[0.23099999999999454],34,0,34,0,1,5edaa4924ea9bd6f14f3d618,19,Mężczyzna,2022-06-04_08h10.26.602,task,2021.1.4,Win32,144.092219,628b806c463b948bc644b84f,629af733d2e9718bda33dcb4,,,,,,,,,,,,,,,,,,,,,,,,,,,,,,,,,,,,,,,,,,,,,,,,,,,,,,,,,,,,,,,,,,,,,,,,,,,,,,,,,,,,,,,,,,,,,,,,,,,,,,,
,,"[""period""]",0,[0.21700000000001296],35,0,35,0,1,5edaa4924ea9bd6f14f3d618,19,Mężczyzna,2022-06-04_08h10.26.602,task,2021.1.4,Win32,144.092219,628b806c463b948bc644b84f,629af733d2e9718bda33dcb4,,,,,,,,,,,,,,,,,,,,,,,,,,,,,,,,,,,,,,,,,,,,,,,,,,,,,,,,,,,,,,,,,,,,,,,,,,,,,,,,,,,,,,,,,,,,,,,,,,,,,,,
,,"[""period""]",0,[0.3060000000000116],36,0,36,0,1,5edaa4924ea9bd6f14f3d618,19,Mężczyzna,2022-06-04_08h10.26.602,task,2021.1.4,Win32,144.092219,628b806c463b948bc644b84f,629af733d2e9718bda33dcb4,,,,,,,,,,,,,,,,,,,,,,,,,,,,,,,,,,,,,,,,,,,,,,,,,,,,,,,,,,,,,,,,,,,,,,,,,,,,,,,,,,,,,,,,,,,,,,,,,,,,,,,
,,"[""comma""]",0,[0.23599999999999],37,0,37,0,1,5edaa4924ea9bd6f14f3d618,19,Mężczyzna,2022-06-04_08h10.26.602,task,2021.1.4,Win32,144.092219,628b806c463b948bc644b84f,629af733d2e9718bda33dcb4,,,,,,,,,,,,,,,,,,,,,,,,,,,,,,,,,,,,,,,,,,,,,,,,,,,,,,,,,,,,,,,,,,,,,,,,,,,,,,,,,,,,,,,,,,,,,,,,,,,,,,,
,,"[""comma""]",0,[0.2920000000000016],38,0,38,0,1,5edaa4924ea9bd6f14f3d618,19,Mężczyzna,2022-06-04_08h10.26.602,task,2021.1.4,Win32,144.092219,628b806c463b948bc644b84f,629af733d2e9718bda33dcb4,,,,,,,,,,,,,,,,,,,,,,,,,,,,,,,,,,,,,,,,,,,,,,,,,,,,,,,,,,,,,,,,,,,,,,,,,,,,,,,,,,,,,,,,,,,,,,,,,,,,,,,
,,"[""comma""]",0,[0.24899999999999523],39,0,39,0,1,5edaa4924ea9bd6f14f3d618,19,Mężczyzna,2022-06-04_08h10.26.602,task,2021.1.4,Win32,144.092219,628b806c463b948bc644b84f,629af733d2e9718bda33dcb4,,,,,,,,,,,,,,,,,,,,,,,,,,,,,,,,,,,,,,,,,,,,,,,,,,,,,,,,,,,,,,,,,,,,,,,,,,,,,,,,,,,,,,,,,,,,,,,,,,,,,,,
,,"[""comma""]",0,[0.2990000000000066],40,0,40,0,1,5edaa4924ea9bd6f14f3d618,19,Mężczyzna,2022-06-04_08h10.26.602,task,2021.1.4,Win32,144.092219,628b806c463b948bc644b84f,629af733d2e9718bda33dcb4,,,,,,,,,,,,,,,,,,,,,,,,,,,,,,,,,,,,,,,,,,,,,,,,,,,,,,,,,,,,,,,,,,,,,,,,,,,,,,,,,,,,,,,,,,,,,,,,,,,,,,,
,,"[""comma"",""comma""]",0,"[0.257000000000005,0.6809999999999832]",41,0,41,0,1,5edaa4924ea9bd6f14f3d618,19,Mężczyzna,2022-06-04_08h10.26.602,task,2021.1.4,Win32,144.092219,628b806c463b948bc644b84f,629af733d2e9718bda33dcb4,,,,,,,,,,,,,,,,,,,,,,,,,,,,,,,,,,,,,,,,,,,,,,,,,,,,,,,,,,,,,,,,,,,,,,,,,,,,,,,,,,,,,,,,,,,,,,,,,,,,,,,
,,"[""period""]",0,[0.26599999999999113],42,0,42,0,1,5edaa4924ea9bd6f14f3d618,19,Mężczyzna,2022-06-04_08h10.26.602,task,2021.1.4,Win32,144.092219,628b806c463b948bc644b84f,629af733d2e9718bda33dcb4,,,,,,,,,,,,,,,,,,,,,,,,,,,,,,,,,,,,,,,,,,,,,,,,,,,,,,,,,,,,,,,,,,,,,,,,,,,,,,,,,,,,,,,,,,,,,,,,,,,,,,,
,,"[""period""]",0,[0.2849999999999966],43,0,43,0,1,5edaa4924ea9bd6f14f3d618,19,Mężczyzna,2022-06-04_08h10.26.602,task,2021.1.4,Win32,144.092219,628b806c463b948bc644b84f,629af733d2e9718bda33dcb4,,,,,,,,,,,,,,,,,,,,,,,,,,,,,,,,,,,,,,,,,,,,,,,,,,,,,,,,,,,,,,,,,,,,,,,,,,,,,,,,,,,,,,,,,,,,,,,,,,,,,,,
,,"[""period""]",0,[0.30000000000001137],44,0,44,0,1,5edaa4924ea9bd6f14f3d618,19,Mężczyzna,2022-06-04_08h10.26.602,task,2021.1.4,Win32,144.092219,628b806c463b948bc644b84f,629af733d2e9718bda33dcb4,,,,,,,,,,,,,,,,,,,,,,,,,,,,,,,,,,,,,,,,,,,,,,,,,,,,,,,,,,,,,,,,,,,,,,,,,,,,,,,,,,,,,,,,,,,,,,,,,,,,,,,
,,"[""comma""]",0,[0.3340000000000032],45,0,45,0,1,5edaa4924ea9bd6f14f3d618,19,Mężczyzna,2022-06-04_08h10.26.602,task,2021.1.4,Win32,144.092219,628b806c463b948bc644b84f,629af733d2e9718bda33dcb4,,,,,,,,,,,,,,,,,,,,,,,,,,,,,,,,,,,,,,,,,,,,,,,,,,,,,,,,,,,,,,,,,,,,,,,,,,,,,,,,,,,,,,,,,,,,,,,,,,,,,,,
,,"[""period""]",0,[0.2669999999999959],46,0,46,0,1,5edaa4924ea9bd6f14f3d618,19,Mężczyzna,2022-06-04_08h10.26.602,task,2021.1.4,Win32,144.092219,628b806c463b948bc644b84f,629af733d2e9718bda33dcb4,,,,,,,,,,,,,,,,,,,,,,,,,,,,,,,,,,,,,,,,,,,,,,,,,,,,,,,,,,,,,,,,,,,,,,,,,,,,,,,,,,,,,,,,,,,,,,,,,,,,,,,
,,"[""comma""]",0,[0.2779999999999916],47,0,47,0,1,5edaa4924ea9bd6f14f3d618,19,Mężczyzna,2022-06-04_08h10.26.602,task,2021.1.4,Win32,144.092219,628b806c463b948bc644b84f,629af733d2e9718bda33dcb4,,,,,,,,,,,,,,,,,,,,,,,,,,,,,,,,,,,,,,,,,,,,,,,,,,,,,,,,,,,,,,,,,,,,,,,,,,,,,,,,,,,,,,,,,,,,,,,,,,,,,,,
,,"[""comma""]",0,[0.2980000000000018],48,0,48,0,1,5edaa4924ea9bd6f14f3d618,19,Mężczyzna,2022-06-04_08h10.26.602,task,2021.1.4,Win32,144.092219,628b806c463b948bc644b84f,629af733d2e9718bda33dcb4,,,,,,,,,,,,,,,,,,,,,,,,,,,,,,,,,,,,,,,,,,,,,,,,,,,,,,,,,,,,,,,,,,,,,,,,,,,,,,,,,,,,,,,,,,,,,,,,,,,,,,,
,,"[""period""]",0,[0.28999999999999204],49,0,49,0,1,5edaa4924ea9bd6f14f3d618,19,Mężczyzna,2022-06-04_08h10.26.602,task,2021.1.4,Win32,144.092219,628b806c463b948bc644b84f,629af733d2e9718bda33dcb4,,,,,,,,,,,,,,,,,,,,,,,,,,,,,,,,,,,,,,,,,,,,,,,,,,,,,,,,,,,,,,,,,,,,,,,,,,,,,,,,,,,,,,,,,,,,,,,,,,,,,,,
,,"[""period""]",0,[0.30100000000001614],50,0,50,0,1,5edaa4924ea9bd6f14f3d618,19,Mężczyzna,2022-06-04_08h10.26.602,task,2021.1.4,Win32,144.092219,628b806c463b948bc644b84f,629af733d2e9718bda33dcb4,,,,,,,,,,,,,,,,,,,,,,,,,,,,,,,,,,,,,,,,,,,,,,,,,,,,,,,,,,,,,,,,,,,,,,,,,,,,,,,,,,,,,,,,,,,,,,,,,,,,,,,
,,"[""comma""]",0,[0.30000000000001137],51,0,51,0,1,5edaa4924ea9bd6f14f3d618,19,Mężczyzna,2022-06-04_08h10.26.602,task,2021.1.4,Win32,144.092219,628b806c463b948bc644b84f,629af733d2e9718bda33dcb4,,,,,,,,,,,,,,,,,,,,,,,,,,,,,,,,,,,,,,,,,,,,,,,,,,,,,,,,,,,,,,,,,,,,,,,,,,,,,,,,,,,,,,,,,,,,,,,,,,,,,,,
,,"[""period""]",0,[0.2510000000000048],52,0,52,0,1,5edaa4924ea9bd6f14f3d618,19,Mężczyzna,2022-06-04_08h10.26.602,task,2021.1.4,Win32,144.092219,628b806c463b948bc644b84f,629af733d2e9718bda33dcb4,,,,,,,,,,,,,,,,,,,,,,,,,,,,,,,,,,,,,,,,,,,,,,,,,,,,,,,,,,,,,,,,,,,,,,,,,,,,,,,,,,,,,,,,,,,,,,,,,,,,,,,
,,"[""comma""]",0,[0.26900000000000546],53,0,53,0,1,5edaa4924ea9bd6f14f3d618,19,Mężczyzna,2022-06-04_08h10.26.602,task,2021.1.4,Win32,144.092219,628b806c463b948bc644b84f,629af733d2e9718bda33dcb4,,,,,,,,,,,,,,,,,,,,,,,,,,,,,,,,,,,,,,,,,,,,,,,,,,,,,,,,,,,,,,,,,,,,,,,,,,,,,,,,,,,,,,,,,,,,,,,,,,,,,,,
,,"[""comma""]",0,[0.26400000000001],54,0,54,0,1,5edaa4924ea9bd6f14f3d618,19,Mężczyzna,2022-06-04_08h10.26.602,task,2021.1.4,Win32,144.092219,628b806c463b948bc644b84f,629af733d2e9718bda33dcb4,,,,,,,,,,,,,,,,,,,,,,,,,,,,,,,,,,,,,,,,,,,,,,,,,,,,,,,,,,,,,,,,,,,,,,,,,,,,,,,,,,,,,,,,,,,,,,,,,,,,,,,
,,"[""period""]",0,[0.28700000000000614],55,0,55,0,1,5edaa4924ea9bd6f14f3d618,19,Mężczyzna,2022-06-04_08h10.26.602,task,2021.1.4,Win32,144.092219,628b806c463b948bc644b84f,629af733d2e9718bda33dcb4,,,,,,,,,,,,,,,,,,,,,,,,,,,,,,,,,,,,,,,,,,,,,,,,,,,,,,,,,,,,,,,,,,,,,,,,,,,,,,,,,,,,,,,,,,,,,,,,,,,,,,,
,,"[""comma""]",0,[0.2779999999999916],56,0,56,0,1,5edaa4924ea9bd6f14f3d618,19,Mężczyzna,2022-06-04_08h10.26.602,task,2021.1.4,Win32,144.092219,628b806c463b948bc644b84f,629af733d2e9718bda33dcb4,,,,,,,,,,,,,,,,,,,,,,,,,,,,,,,,,,,,,,,,,,,,,,,,,,,,,,,,,,,,,,,,,,,,,,,,,,,,,,,,,,,,,,,,,,,,,,,,,,,,,,,
,,"[""period""]",0,[0.24600000000000932],57,0,57,0,1,5edaa4924ea9bd6f14f3d618,19,Mężczyzna,2022-06-04_08h10.26.602,task,2021.1.4,Win32,144.092219,628b806c463b948bc644b84f,629af733d2e9718bda33dcb4,,,,,,,,,,,,,,,,,,,,,,,,,,,,,,,,,,,,,,,,,,,,,,,,,,,,,,,,,,,,,,,,,,,,,,,,,,,,,,,,,,,,,,,,,,,,,,,,,,,,,,,
,,"[""period""]",0,[0.2779999999999916],58,0,58,0,1,5edaa4924ea9bd6f14f3d618,19,Mężczyzna,2022-06-04_08h10.26.602,task,2021.1.4,Win32,144.092219,628b806c463b948bc644b84f,629af733d2e9718bda33dcb4,,,,,,,,,,,,,,,,,,,,,,,,,,,,,,,,,,,,,,,,,,,,,,,,,,,,,,,,,,,,,,,,,,,,,,,,,,,,,,,,,,,,,,,,,,,,,,,,,,,,,,,
,,"[""comma""]",0,[0.23099999999999454],59,0,59,0,1,5edaa4924ea9bd6f14f3d618,19,Mężczyzna,2022-06-04_08h10.26.602,task,2021.1.4,Win32,144.092219,628b806c463b948bc644b84f,629af733d2e9718bda33dcb4,,,,,,,,,,,,,,,,,,,,,,,,,,,,,,,,,,,,,,,,,,,,,,,,,,,,,,,,,,,,,,,,,,,,,,,,,,,,,,,,,,,,,,,,,,,,,,,,,,,,,,,
,,"[""comma""]",0,[0.23799999999999955],60,0,60,0,1,5edaa4924ea9bd6f14f3d618,19,Mężczyzna,2022-06-04_08h10.26.602,task,2021.1.4,Win32,144.092219,628b806c463b948bc644b84f,629af733d2e9718bda33dcb4,,,,,,,,,,,,,,,,,,,,,,,,,,,,,,,,,,,,,,,,,,,,,,,,,,,,,,,,,,,,,,,,,,,,,,,,,,,,,,,,,,,,,,,,,,,,,,,,,,,,,,,
,,"[""period""]",0,[0.31100000000000705],61,0,61,0,1,5edaa4924ea9bd6f14f3d618,19,Mężczyzna,2022-06-04_08h10.26.602,task,2021.1.4,Win32,144.092219,628b806c463b948bc644b84f,629af733d2e9718bda33dcb4,,,,,,,,,,,,,,,,,,,,,,,,,,,,,,,,,,,,,,,,,,,,,,,,,,,,,,,,,,,,,,,,,,,,,,,,,,,,,,,,,,,,,,,,,,,,,,,,,,,,,,,
,,"[""period""]",0,[0.39099999999999113],62,0,62,0,1,5edaa4924ea9bd6f14f3d618,19,Mężczyzna,2022-06-04_08h10.26.602,task,2021.1.4,Win32,144.092219,628b806c463b948bc644b84f,629af733d2e9718bda33dcb4,,,,,,,,,,,,,,,,,,,,,,,,,,,,,,,,,,,,,,,,,,,,,,,,,,,,,,,,,,,,,,,,,,,,,,,,,,,,,,,,,,,,,,,,,,,,,,,,,,,,,,,
,,"[""comma""]",0,[0.23199999999999932],63,0,63,0,1,5edaa4924ea9bd6f14f3d618,19,Mężczyzna,2022-06-04_08h10.26.602,task,2021.1.4,Win32,144.092219,628b806c463b948bc644b84f,629af733d2e9718bda33dcb4,,,,,,,,,,,,,,,,,,,,,,,,,,,,,,,,,,,,,,,,,,,,,,,,,,,,,,,,,,,,,,,,,,,,,,,,,,,,,,,,,,,,,,,,,,,,,,,,,,,,,,,
,,"[""period""]",0,[0.2810000000000059],64,0,64,0,1,5edaa4924ea9bd6f14f3d618,19,Mężczyzna,2022-06-04_08h10.26.602,task,2021.1.4,Win32,144.092219,628b806c463b948bc644b84f,629af733d2e9718bda33dcb4,,,,,,,,,,,,,,,,,,,,,,,,,,,,,,,,,,,,,,,,,,,,,,,,,,,,,,,,,,,,,,,,,,,,,,,,,,,,,,,,,,,,,,,,,,,,,,,,,,,,,,,
,,"[""period""]",0,[0.2880000000000109],65,0,65,0,1,5edaa4924ea9bd6f14f3d618,19,Mężczyzna,2022-06-04_08h10.26.602,task,2021.1.4,Win32,144.092219,628b806c463b948bc644b84f,629af733d2e9718bda33dcb4,,,,,,,,,,,,,,,,,,,,,,,,,,,,,,,,,,,,,,,,,,,,,,,,,,,,,,,,,,,,,,,,,,,,,,,,,,,,,,,,,,,,,,,,,,,,,,,,,,,,,,,
,,"[""comma""]",0,[0.29300000000000637],66,0,66,0,1,5edaa4924ea9bd6f14f3d618,19,Mężczyzna,2022-06-04_08h10.26.602,task,2021.1.4,Win32,144.092219,628b806c463b948bc644b84f,629af733d2e9718bda33dcb4,,,,,,,,,,,,,,,,,,,,,,,,,,,,,,,,,,,,,,,,,,,,,,,,,,,,,,,,,,,,,,,,,,,,,,,,,,,,,,,,,,,,,,,,,,,,,,,,,,,,,,,
,,"[""period""]",0,[0.25],67,0,67,0,1,5edaa4924ea9bd6f14f3d618,19,Mężczyzna,2022-06-04_08h10.26.602,task,2021.1.4,Win32,144.092219,628b806c463b948bc644b84f,629af733d2e9718bda33dcb4,,,,,,,,,,,,,,,,,,,,,,,,,,,,,,,,,,,,,,,,,,,,,,,,,,,,,,,,,,,,,,,,,,,,,,,,,,,,,,,,,,,,,,,,,,,,,,,,,,,,,,,
,,"[""comma""]",0,[0.3060000000000116],68,0,68,0,1,5edaa4924ea9bd6f14f3d618,19,Mężczyzna,2022-06-04_08h10.26.602,task,2021.1.4,Win32,144.092219,628b806c463b948bc644b84f,629af733d2e9718bda33dcb4,,,,,,,,,,,,,,,,,,,,,,,,,,,,,,,,,,,,,,,,,,,,,,,,,,,,,,,,,,,,,,,,,,,,,,,,,,,,,,,,,,,,,,,,,,,,,,,,,,,,,,,
,,"[""period""]",0,[0.36099999999999],69,0,69,0,1,5edaa4924ea9bd6f14f3d618,19,Mężczyzna,2022-06-04_08h10.26.602,task,2021.1.4,Win32,144.092219,628b806c463b948bc644b84f,629af733d2e9718bda33dcb4,,,,,,,,,,,,,,,,,,,,,,,,,,,,,,,,,,,,,,,,,,,,,,,,,,,,,,,,,,,,,,,,,,,,,,,,,,,,,,,,,,,,,,,,,,,,,,,,,,,,,,,
,,"[""comma""]",0,[0.2909999999999968],70,0,70,0,1,5edaa4924ea9bd6f14f3d618,19,Mężczyzna,2022-06-04_08h10.26.602,task,2021.1.4,Win32,144.092219,628b806c463b948bc644b84f,629af733d2e9718bda33dcb4,,,,,,,,,,,,,,,,,,,,,,,,,,,,,,,,,,,,,,,,,,,,,,,,,,,,,,,,,,,,,,,,,,,,,,,,,,,,,,,,,,,,,,,,,,,,,,,,,,,,,,,
,,"[""period""]",0,[0.2189999999999941],71,0,71,0,1,5edaa4924ea9bd6f14f3d618,19,Mężczyzna,2022-06-04_08h10.26.602,task,2021.1.4,Win32,144.092219,628b806c463b948bc644b84f,629af733d2e9718bda33dcb4,,,,,,,,,,,,,,,,,,,,,,,,,,,,,,,,,,,,,,,,,,,,,,,,,,,,,,,,,,,,,,,,,,,,,,,,,,,,,,,,,,,,,,,,,,,,,,,,,,,,,,,
,,"[""period""]",0,[0.10599999999999454],72,0,72,0,1,5edaa4924ea9bd6f14f3d618,19,Mężczyzna,2022-06-04_08h10.26.602,task,2021.1.4,Win32,144.092219,628b806c463b948bc644b84f,629af733d2e9718bda33dcb4,,,,,,,,,,,,,,,,,,,,,,,,,,,,,,,,,,,,,,,,,,,,,,,,,,,,,,,,,,,,,,,,,,,,,,,,,,,,,,,,,,,,,,,,,,,,,,,,,,,,,,,
,,"[""comma""]",0,[0.16200000000000614],73,0,73,0,1,5edaa4924ea9bd6f14f3d618,19,Mężczyzna,2022-06-04_08h10.26.602,task,2021.1.4,Win32,144.092219,628b806c463b948bc644b84f,629af733d2e9718bda33dcb4,,,,,,,,,,,,,,,,,,,,,,,,,,,,,,,,,,,,,,,,,,,,,,,,,,,,,,,,,,,,,,,,,,,,,,,,,,,,,,,,,,,,,,,,,,,,,,,,,,,,,,,
,,"[""period""]",0,[-0.006000000000000227],74,0,74,0,1,5edaa4924ea9bd6f14f3d618,19,Mężczyzna,2022-06-04_08h10.26.602,task,2021.1.4,Win32,144.092219,628b806c463b948bc644b84f,629af733d2e9718bda33dcb4,,,,,,,,,,,,,,,,,,,,,,,,,,,,,,,,,,,,,,,,,,,,,,,,,,,,,,,,,,,,,,,,,,,,,,,,,,,,,,,,,,,,,,,,,,,,,,,,,,,,,,,
,,"[""comma"",""period""]",0,"[0.1880000000000166,1.9869999999999948]",75,0,75,0,1,5edaa4924ea9bd6f14f3d618,19,Mężczyzna,2022-06-04_08h10.26.602,task,2021.1.4,Win32,144.092219,628b806c463b948bc644b84f,629af733d2e9718bda33dcb4,,,,,,,,,,,,,,,,,,,,,,,,,,,,,,,,,,,,,,,,,,,,,,,,,,,,,,,,,,,,,,,,,,,,,,,,,,,,,,,,,,,,,,,,,,,,,,,,,,,,,,,
,,"[""period""]",0,[1.9790000000000134],76,0,76,0,1,5edaa4924ea9bd6f14f3d618,19,Mężczyzna,2022-06-04_08h10.26.602,task,2021.1.4,Win32,144.092219,628b806c463b948bc644b84f,629af733d2e9718bda33dcb4,,,,,,,,,,,,,,,,,,,,,,,,,,,,,,,,,,,,,,,,,,,,,,,,,,,,,,,,,,,,,,,,,,,,,,,,,,,,,,,,,,,,,,,,,,,,,,,,,,,,,,,
,,,0,,77,0,77,0,1,5edaa4924ea9bd6f14f3d618,19,Mężczyzna,2022-06-04_08h10.26.602,task,2021.1.4,Win32,144.092219,628b806c463b948bc644b84f,629af733d2e9718bda33dcb4,,,,,,,,,,,,,,,,,,,,,,,,,,,,,,,,,,,,,,,,,,,,,,,,,,,,,,,,,,,,,,,,,,,,,,,,,,,,,,,,,,,,,,,,,,,,,,,,,,,,,,,
,,"[""comma""]",0,[0.12600000000000477],78,0,78,0,1,5edaa4924ea9bd6f14f3d618,19,Mężczyzna,2022-06-04_08h10.26.602,task,2021.1.4,Win32,144.092219,628b806c463b948bc644b84f,629af733d2e9718bda33dcb4,,,,,,,,,,,,,,,,,,,,,,,,,,,,,,,,,,,,,,,,,,,,,,,,,,,,,,,,,,,,,,,,,,,,,,,,,,,,,,,,,,,,,,,,,,,,,,,,,,,,,,,
,,"[""comma""]",0,[0.2230000000000132],79,0,79,0,1,5edaa4924ea9bd6f14f3d618,19,Mężczyzna,2022-06-04_08h10.26.602,task,2021.1.4,Win32,144.092219,628b806c463b948bc644b84f,629af733d2e9718bda33dcb4,,,,,,,,,,,,,,,,,,,,,,,,,,,,,,,,,,,,,,,,,,,,,,,,,,,,,,,,,,,,,,,,,,,,,,,,,,,,,,,,,,,,,,,,,,,,,,,,,,,,,,,
,,"[""period""]",0,[0.2540000000000191],80,0,80,0,1,5edaa4924ea9bd6f14f3d618,19,Mężczyzna,2022-06-04_08h10.26.602,task,2021.1.4,Win32,144.092219,628b806c463b948bc644b84f,629af733d2e9718bda33dcb4,,,,,,,,,,,,,,,,,,,,,,,,,,,,,,,,,,,,,,,,,,,,,,,,,,,,,,,,,,,,,,,,,,,,,,,,,,,,,,,,,,,,,,,,,,,,,,,,,,,,,,,
,,"[""period""]",0,[0.24500000000000455],81,0,81,0,1,5edaa4924ea9bd6f14f3d618,19,Mężczyzna,2022-06-04_08h10.26.602,task,2021.1.4,Win32,144.092219,628b806c463b948bc644b84f,629af733d2e9718bda33dcb4,,,,,,,,,,,,,,,,,,,,,,,,,,,,,,,,,,,,,,,,,,,,,,,,,,,,,,,,,,,,,,,,,,,,,,,,,,,,,,,,,,,,,,,,,,,,,,,,,,,,,,,
,,"[""period""]",0,[0.3200000000000216],82,0,82,0,1,5edaa4924ea9bd6f14f3d618,19,Mężczyzna,2022-06-04_08h10.26.602,task,2021.1.4,Win32,144.092219,628b806c463b948bc644b84f,629af733d2e9718bda33dcb4,,,,,,,,,,,,,,,,,,,,,,,,,,,,,,,,,,,,,,,,,,,,,,,,,,,,,,,,,,,,,,,,,,,,,,,,,,,,,,,,,,,,,,,,,,,,,,,,,,,,,,,
,,"[""period""]",0,[0.3480000000000132],83,0,83,0,1,5edaa4924ea9bd6f14f3d618,19,Mężczyzna,2022-06-04_08h10.26.602,task,2021.1.4,Win32,144.092219,628b806c463b948bc644b84f,629af733d2e9718bda33dcb4,,,,,,,,,,,,,,,,,,,,,,,,,,,,,,,,,,,,,,,,,,,,,,,,,,,,,,,,,,,,,,,,,,,,,,,,,,,,,,,,,,,,,,,,,,,,,,,,,,,,,,,
,,"[""comma""]",0,[0.2920000000000016],84,0,84,0,1,5edaa4924ea9bd6f14f3d618,19,Mężczyzna,2022-06-04_08h10.26.602,task,2021.1.4,Win32,144.092219,628b806c463b948bc644b84f,629af733d2e9718bda33dcb4,,,,,,,,,,,,,,,,,,,,,,,,,,,,,,,,,,,,,,,,,,,,,,,,,,,,,,,,,,,,,,,,,,,,,,,,,,,,,,,,,,,,,,,,,,,,,,,,,,,,,,,
,,"[""comma""]",0,[0.34899999999998954],85,0,85,0,1,5edaa4924ea9bd6f14f3d618,19,Mężczyzna,2022-06-04_08h10.26.602,task,2021.1.4,Win32,144.092219,628b806c463b948bc644b84f,629af733d2e9718bda33dcb4,,,,,,,,,,,,,,,,,,,,,,,,,,,,,,,,,,,,,,,,,,,,,,,,,,,,,,,,,,,,,,,,,,,,,,,,,,,,,,,,,,,,,,,,,,,,,,,,,,,,,,,
,,"[""comma""]",0,[0.30100000000001614],86,0,86,0,1,5edaa4924ea9bd6f14f3d618,19,Mężczyzna,2022-06-04_08h10.26.602,task,2021.1.4,Win32,144.092219,628b806c463b948bc644b84f,629af733d2e9718bda33dcb4,,,,,,,,,,,,,,,,,,,,,,,,,,,,,,,,,,,,,,,,,,,,,,,,,,,,,,,,,,,,,,,,,,,,,,,,,,,,,,,,,,,,,,,,,,,,,,,,,,,,,,,
,,"[""period""]",0,[0.27000000000001023],87,0,87,0,1,5edaa4924ea9bd6f14f3d618,19,Mężczyzna,2022-06-04_08h10.26.602,task,2021.1.4,Win32,144.092219,628b806c463b948bc644b84f,629af733d2e9718bda33dcb4,,,,,,,,,,,,,,,,,,,,,,,,,,,,,,,,,,,,,,,,,,,,,,,,,,,,,,,,,,,,,,,,,,,,,,,,,,,,,,,,,,,,,,,,,,,,,,,,,,,,,,,
,,"[""comma""]",0,[0.3900000000000148],88,0,88,0,1,5edaa4924ea9bd6f14f3d618,19,Mężczyzna,2022-06-04_08h10.26.602,task,2021.1.4,Win32,144.092219,628b806c463b948bc644b84f,629af733d2e9718bda33dcb4,,,,,,,,,,,,,,,,,,,,,,,,,,,,,,,,,,,,,,,,,,,,,,,,,,,,,,,,,,,,,,,,,,,,,,,,,,,,,,,,,,,,,,,,,,,,,,,,,,,,,,,
,,"[""period""]",0,[0.424000000000035],89,0,89,0,1,5edaa4924ea9bd6f14f3d618,19,Mężczyzna,2022-06-04_08h10.26.602,task,2021.1.4,Win32,144.092219,628b806c463b948bc644b84f,629af733d2e9718bda33dcb4,,,,,,,,,,,,,,,,,,,,,,,,,,,,,,,,,,,,,,,,,,,,,,,,,,,,,,,,,,,,,,,,,,,,,,,,,,,,,,,,,,,,,,,,,,,,,,,,,,,,,,,
,,"[""comma""]",0,[0.39699999999999136],90,0,90,0,1,5edaa4924ea9bd6f14f3d618,19,Mężczyzna,2022-06-04_08h10.26.602,task,2021.1.4,Win32,144.092219,628b806c463b948bc644b84f,629af733d2e9718bda33dcb4,,,,,,,,,,,,,,,,,,,,,,,,,,,,,,,,,,,,,,,,,,,,,,,,,,,,,,,,,,,,,,,,,,,,,,,,,,,,,,,,,,,,,,,,,,,,,,,,,,,,,,,
,,"[""comma""]",0,[0.410000000000025],91,0,91,0,1,5edaa4924ea9bd6f14f3d618,19,Mężczyzna,2022-06-04_08h10.26.602,task,2021.1.4,Win32,144.092219,628b806c463b948bc644b84f,629af733d2e9718bda33dcb4,,,,,,,,,,,,,,,,,,,,,,,,,,,,,,,,,,,,,,,,,,,,,,,,,,,,,,,,,,,,,,,,,,,,,,,,,,,,,,,,,,,,,,,,,,,,,,,,,,,,,,,
,,"[""period""]",0,[0.40999999999996817],92,0,92,0,1,5edaa4924ea9bd6f14f3d618,19,Mężczyzna,2022-06-04_08h10.26.602,task,2021.1.4,Win32,144.092219,628b806c463b948bc644b84f,629af733d2e9718bda33dcb4,,,,,,,,,,,,,,,,,,,,,,,,,,,,,,,,,,,,,,,,,,,,,,,,,,,,,,,,,,,,,,,,,,,,,,,,,,,,,,,,,,,,,,,,,,,,,,,,,,,,,,,
,,"[""comma""]",0,[0.52800000000002],93,0,93,0,1,5edaa4924ea9bd6f14f3d618,19,Mężczyzna,2022-06-04_08h10.26.602,task,2021.1.4,Win32,144.092219,628b806c463b948bc644b84f,629af733d2e9718bda33dcb4,,,,,,,,,,,,,,,,,,,,,,,,,,,,,,,,,,,,,,,,,,,,,,,,,,,,,,,,,,,,,,,,,,,,,,,,,,,,,,,,,,,,,,,,,,,,,,,,,,,,,,,
,,"[""comma""]",0,[0.6550000000000296],94,0,94,0,1,5edaa4924ea9bd6f14f3d618,19,Mężczyzna,2022-06-04_08h10.26.602,task,2021.1.4,Win32,144.092219,628b806c463b948bc644b84f,629af733d2e9718bda33dcb4,,,,,,,,,,,,,,,,,,,,,,,,,,,,,,,,,,,,,,,,,,,,,,,,,,,,,,,,,,,,,,,,,,,,,,,,,,,,,,,,,,,,,,,,,,,,,,,,,,,,,,,
,,"[""period""]",0,[0.5919999999999845],95,0,95,0,1,5edaa4924ea9bd6f14f3d618,19,Mężczyzna,2022-06-04_08h10.26.602,task,2021.1.4,Win32,144.092219,628b806c463b948bc644b84f,629af733d2e9718bda33dcb4,,,,,,,,,,,,,,,,,,,,,,,,,,,,,,,,,,,,,,,,,,,,,,,,,,,,,,,,,,,,,,,,,,,,,,,,,,,,,,,,,,,,,,,,,,,,,,,,,,,,,,,
,,"[""period""]",0,[0.6480000000000246],96,0,96,0,1,5edaa4924ea9bd6f14f3d618,19,Mężczyzna,2022-06-04_08h10.26.602,task,2021.1.4,Win32,144.092219,628b806c463b948bc644b84f,629af733d2e9718bda33dcb4,,,,,,,,,,,,,,,,,,,,,,,,,,,,,,,,,,,,,,,,,,,,,,,,,,,,,,,,,,,,,,,,,,,,,,,,,,,,,,,,,,,,,,,,,,,,,,,,,,,,,,,
,,"[""comma""]",0,[0.375],97,0,97,0,1,5edaa4924ea9bd6f14f3d618,19,Mężczyzna,2022-06-04_08h10.26.602,task,2021.1.4,Win32,144.092219,628b806c463b948bc644b84f,629af733d2e9718bda33dcb4,,,,,,,,,,,,,,,,,,,,,,,,,,,,,,,,,,,,,,,,,,,,,,,,,,,,,,,,,,,,,,,,,,,,,,,,,,,,,,,,,,,,,,,,,,,,,,,,,,,,,,,
,,"[""period""]",0,[0.4730000000000132],98,0,98,0,1,5edaa4924ea9bd6f14f3d618,19,Mężczyzna,2022-06-04_08h10.26.602,task,2021.1.4,Win32,144.092219,628b806c463b948bc644b84f,629af733d2e9718bda33dcb4,,,,,,,,,,,,,,,,,,,,,,,,,,,,,,,,,,,,,,,,,,,,,,,,,,,,,,,,,,,,,,,,,,,,,,,,,,,,,,,,,,,,,,,,,,,,,,,,,,,,,,,
,,"[""comma""]",0,[0.3299999999999841],99,0,99,0,1,5edaa4924ea9bd6f14f3d618,19,Mężczyzna,2022-06-04_08h10.26.602,task,2021.1.4,Win32,144.092219,628b806c463b948bc644b84f,629af733d2e9718bda33dcb4,,,,,,,,,,,,,,,,,,,,,,,,,,,,,,,,,,,,,,,,,,,,,,,,,,,,,,,,,,,,,,,,,,,,,,,,,,,,,,,,,,,,,,,,,,,,,,,,,,,,,,,
,,"[""comma""]",0,[0.4900000000000091],100,0,100,0,1,5edaa4924ea9bd6f14f3d618,19,Mężczyzna,2022-06-04_08h10.26.602,task,2021.1.4,Win32,144.092219,628b806c463b948bc644b84f,629af733d2e9718bda33dcb4,,,,,,,,,,,,,,,,,,,,,,,,,,,,,,,,,,,,,,,,,,,,,,,,,,,,,,,,,,,,,,,,,,,,,,,,,,,,,,,,,,,,,,,,,,,,,,,,,,,,,,,
,,"[""comma""]",0,[0.46500000000003183],101,0,101,0,1,5edaa4924ea9bd6f14f3d618,19,Mężczyzna,2022-06-04_08h10.26.602,task,2021.1.4,Win32,144.092219,628b806c463b948bc644b84f,629af733d2e9718bda33dcb4,,,,,,,,,,,,,,,,,,,,,,,,,,,,,,,,,,,,,,,,,,,,,,,,,,,,,,,,,,,,,,,,,,,,,,,,,,,,,,,,,,,,,,,,,,,,,,,,,,,,,,,
,,"[""period""]",0,[0.5369999999999777],102,0,102,0,1,5edaa4924ea9bd6f14f3d618,19,Mężczyzna,2022-06-04_08h10.26.602,task,2021.1.4,Win32,144.092219,628b806c463b948bc644b84f,629af733d2e9718bda33dcb4,,,,,,,,,,,,,,,,,,,,,,,,,,,,,,,,,,,,,,,,,,,,,,,,,,,,,,,,,,,,,,,,,,,,,,,,,,,,,,,,,,,,,,,,,,,,,,,,,,,,,,,
,,"[""period""]",0,[0.5229999999999677],103,0,103,0,1,5edaa4924ea9bd6f14f3d618,19,Mężczyzna,2022-06-04_08h10.26.602,task,2021.1.4,Win32,144.092219,628b806c463b948bc644b84f,629af733d2e9718bda33dcb4,,,,,,,,,,,,,,,,,,,,,,,,,,,,,,,,,,,,,,,,,,,,,,,,,,,,,,,,,,,,,,,,,,,,,,,,,,,,,,,,,,,,,,,,,,,,,,,,,,,,,,,
,,"[""comma""]",0,[0.4340000000000259],104,0,104,0,1,5edaa4924ea9bd6f14f3d618,19,Mężczyzna,2022-06-04_08h10.26.602,task,2021.1.4,Win32,144.092219,628b806c463b948bc644b84f,629af733d2e9718bda33dcb4,,,,,,,,,,,,,,,,,,,,,,,,,,,,,,,,,,,,,,,,,,,,,,,,,,,,,,,,,,,,,,,,,,,,,,,,,,,,,,,,,,,,,,,,,,,,,,,,,,,,,,,
,,"[""period""]",0,[0.38900000000001],105,0,105,0,1,5edaa4924ea9bd6f14f3d618,19,Mężczyzna,2022-06-04_08h10.26.602,task,2021.1.4,Win32,144.092219,628b806c463b948bc644b84f,629af733d2e9718bda33dcb4,,,,,,,,,,,,,,,,,,,,,,,,,,,,,,,,,,,,,,,,,,,,,,,,,,,,,,,,,,,,,,,,,,,,,,,,,,,,,,,,,,,,,,,,,,,,,,,,,,,,,,,
,,"[""period""]",0,[0.37000000000000455],106,0,106,0,1,5edaa4924ea9bd6f14f3d618,19,Mężczyzna,2022-06-04_08h10.26.602,task,2021.1.4,Win32,144.092219,628b806c463b948bc644b84f,629af733d2e9718bda33dcb4,,,,,,,,,,,,,,,,,,,,,,,,,,,,,,,,,,,,,,,,,,,,,,,,,,,,,,,,,,,,,,,,,,,,,,,,,,,,,,,,,,,,,,,,,,,,,,,,,,,,,,,
,,"[""comma""]",0,[0.30700000000001637],107,0,107,0,1,5edaa4924ea9bd6f14f3d618,19,Mężczyzna,2022-06-04_08h10.26.602,task,2021.1.4,Win32,144.092219,628b806c463b948bc644b84f,629af733d2e9718bda33dcb4,,,,,,,,,,,,,,,,,,,,,,,,,,,,,,,,,,,,,,,,,,,,,,,,,,,,,,,,,,,,,,,,,,,,,,,,,,,,,,,,,,,,,,,,,,,,,,,,,,,,,,,
,,"[""comma""]",0,[0.3340000000000032],108,0,108,0,1,5edaa4924ea9bd6f14f3d618,19,Mężczyzna,2022-06-04_08h10.26.602,task,2021.1.4,Win32,144.092219,628b806c463b948bc644b84f,629af733d2e9718bda33dcb4,,,,,,,,,,,,,,,,,,,,,,,,,,,,,,,,,,,,,,,,,,,,,,,,,,,,,,,,,,,,,,,,,,,,,,,,,,,,,,,,,,,,,,,,,,,,,,,,,,,,,,,
,,"[""comma""]",0,[0.38800000000003365],109,0,109,0,1,5edaa4924ea9bd6f14f3d618,19,Mężczyzna,2022-06-04_08h10.26.602,task,2021.1.4,Win32,144.092219,628b806c463b948bc644b84f,629af733d2e9718bda33dcb4,,,,,,,,,,,,,,,,,,,,,,,,,,,,,,,,,,,,,,,,,,,,,,,,,,,,,,,,,,,,,,,,,,,,,,,,,,,,,,,,,,,,,,,,,,,,,,,,,,,,,,,
,,"[""comma""]",0,[0.33300000000002683],110,0,110,0,1,5edaa4924ea9bd6f14f3d618,19,Mężczyzna,2022-06-04_08h10.26.602,task,2021.1.4,Win32,144.092219,628b806c463b948bc644b84f,629af733d2e9718bda33dcb4,,,,,,,,,,,,,,,,,,,,,,,,,,,,,,,,,,,,,,,,,,,,,,,,,,,,,,,,,,,,,,,,,,,,,,,,,,,,,,,,,,,,,,,,,,,,,,,,,,,,,,,
,,"[""period""]",0,[0.33199999999999363],111,0,111,0,1,5edaa4924ea9bd6f14f3d618,19,Mężczyzna,2022-06-04_08h10.26.602,task,2021.1.4,Win32,144.092219,628b806c463b948bc644b84f,629af733d2e9718bda33dcb4,,,,,,,,,,,,,,,,,,,,,,,,,,,,,,,,,,,,,,,,,,,,,,,,,,,,,,,,,,,,,,,,,,,,,,,,,,,,,,,,,,,,,,,,,,,,,,,,,,,,,,,
,,"[""period""]",0,[0.26099999999996726],112,0,112,0,1,5edaa4924ea9bd6f14f3d618,19,Mężczyzna,2022-06-04_08h10.26.602,task,2021.1.4,Win32,144.092219,628b806c463b948bc644b84f,629af733d2e9718bda33dcb4,,,,,,,,,,,,,,,,,,,,,,,,,,,,,,,,,,,,,,,,,,,,,,,,,,,,,,,,,,,,,,,,,,,,,,,,,,,,,,,,,,,,,,,,,,,,,,,,,,,,,,,
,,"[""period""]",0,[0.3480000000000132],113,0,113,0,1,5edaa4924ea9bd6f14f3d618,19,Mężczyzna,2022-06-04_08h10.26.602,task,2021.1.4,Win32,144.092219,628b806c463b948bc644b84f,629af733d2e9718bda33dcb4,,,,,,,,,,,,,,,,,,,,,,,,,,,,,,,,,,,,,,,,,,,,,,,,,,,,,,,,,,,,,,,,,,,,,,,,,,,,,,,,,,,,,,,,,,,,,,,,,,,,,,,
,,"[""comma""]",0,[0.2629999999999768],114,0,114,0,1,5edaa4924ea9bd6f14f3d618,19,Mężczyzna,2022-06-04_08h10.26.602,task,2021.1.4,Win32,144.092219,628b806c463b948bc644b84f,629af733d2e9718bda33dcb4,,,,,,,,,,,,,,,,,,,,,,,,,,,,,,,,,,,,,,,,,,,,,,,,,,,,,,,,,,,,,,,,,,,,,,,,,,,,,,,,,,,,,,,,,,,,,,,,,,,,,,,
,,"[""period""]",0,[0.26600000000001955],115,0,115,0,1,5edaa4924ea9bd6f14f3d618,19,Mężczyzna,2022-06-04_08h10.26.602,task,2021.1.4,Win32,144.092219,628b806c463b948bc644b84f,629af733d2e9718bda33dcb4,,,,,,,,,,,,,,,,,,,,,,,,,,,,,,,,,,,,,,,,,,,,,,,,,,,,,,,,,,,,,,,,,,,,,,,,,,,,,,,,,,,,,,,,,,,,,,,,,,,,,,,
,,"[""period""]",0,[0.228999999999985],116,0,116,0,1,5edaa4924ea9bd6f14f3d618,19,Mężczyzna,2022-06-04_08h10.26.602,task,2021.1.4,Win32,144.092219,628b806c463b948bc644b84f,629af733d2e9718bda33dcb4,,,,,,,,,,,,,,,,,,,,,,,,,,,,,,,,,,,,,,,,,,,,,,,,,,,,,,,,,,,,,,,,,,,,,,,,,,,,,,,,,,,,,,,,,,,,,,,,,,,,,,,
,,"[""comma""]",0,[0.22399999999998954],117,0,117,0,1,5edaa4924ea9bd6f14f3d618,19,Mężczyzna,2022-06-04_08h10.26.602,task,2021.1.4,Win32,144.092219,628b806c463b948bc644b84f,629af733d2e9718bda33dcb4,,,,,,,,,,,,,,,,,,,,,,,,,,,,,,,,,,,,,,,,,,,,,,,,,,,,,,,,,,,,,,,,,,,,,,,,,,,,,,,,,,,,,,,,,,,,,,,,,,,,,,,
,,"[""period""]",0,[0.38400000000001455],118,0,118,0,1,5edaa4924ea9bd6f14f3d618,19,Mężczyzna,2022-06-04_08h10.26.602,task,2021.1.4,Win32,144.092219,628b806c463b948bc644b84f,629af733d2e9718bda33dcb4,,,,,,,,,,,,,,,,,,,,,,,,,,,,,,,,,,,,,,,,,,,,,,,,,,,,,,,,,,,,,,,,,,,,,,,,,,,,,,,,,,,,,,,,,,,,,,,,,,,,,,,
,,"[""comma""]",0,[0.27799999999996317],119,0,119,0,1,5edaa4924ea9bd6f14f3d618,19,Mężczyzna,2022-06-04_08h10.26.602,task,2021.1.4,Win32,144.092219,628b806c463b948bc644b84f,629af733d2e9718bda33dcb4,,,,,,,,,,,,,,,,,,,,,,,,,,,,,,,,,,,,,,,,,,,,,,,,,,,,,,,,,,,,,,,,,,,,,,,,,,,,,,,,,,,,,,,,,,,,,,,,,,,,,,,
,,,,,,,,,,5edaa4924ea9bd6f14f3d618,19,Mężczyzna,2022-06-04_08h10.26.602,task,2021.1.4,Win32,144.092219,628b806c463b948bc644b84f,629af733d2e9718bda33dcb4,space,38.114,space,12.223,0,0,0,0,1,X V Q F H G B L J M P D K C T S W R N Z,,,,,,,,,,,,,,,,,,,,,,,,,,,,,,,,,,,,,,,,,,,,,,,,,,,,,,,,,,,,,,,,,,,,,,,,,,,,,,,,,,,,,,,,,,,,,
,,,,,,,,,,5edaa4924ea9bd6f14f3d618,19,Mężczyzna,2022-06-04_08h10.26.602,task,2021.1.4,Win32,144.092219,628b806c463b948bc644b84f,629af733d2e9718bda33dcb4,,,,,1,0,1,0,1,X V Q F H G B L J M P D K C T S W R N Z,,,,,,,,,,,,,,,,,,,,,,,,,,,,,,,,,,,,,,,,,,,,,,,,,,,,,,,,,,,,,,,,,,,,,,,,,,,,,,,,,,,,,,,,,,,,,
,,,,,,,,,,5edaa4924ea9bd6f14f3d618,19,Mężczyzna,2022-06-04_08h10.26.602,task,2021.1.4,Win32,144.092219,628b806c463b948bc644b84f,629af733d2e9718bda33dcb4,,,,,,,,,,,zj,"[""z"",""j""]","[1.710999999999956,1.822999999999979,2.662999999999954]",1,ZJ,0,0,0,0,1,,,,,,,,,,,,,,,,,,,,,,,,,,,,,,,,,,,,,,,,,,,,,,,,,,,,,,,,,,,,,,,,,,,,,,,,,,,,,,,,,,,
,,,,,,,,,,5edaa4924ea9bd6f14f3d618,19,Mężczyzna,2022-06-04_08h10.26.602,task,2021.1.4,Win32,144.092219,628b806c463b948bc644b84f,629af733d2e9718bda33dcb4,,,,,0,0,0,0,1,X V Q F H G B L J M P D K C T S W R N Z,,,,,,,,,,,,,,,,,,,,,,,,,,,,,,,,,,,,,,,,,,,,,,,,,,,,,,,,,,,,,,,,,,,,,,,,,,,,,,,,,,,,,,,,,,,,,
,,,,,,,,,,5edaa4924ea9bd6f14f3d618,19,Mężczyzna,2022-06-04_08h10.26.602,task,2021.1.4,Win32,144.092219,628b806c463b948bc644b84f,629af733d2e9718bda33dcb4,,,,,1,0,1,0,1,X V Q F H G B L J M P D K C T S W R N Z,,,,,,,,,,,,,,,,,,,,,,,,,,,,,,,,,,,,,,,,,,,,,,,,,,,,,,,,,,,,,,,,,,,,,,,,,,,,,,,,,,,,,,,,,,,,,
,,,,,,,,,,5edaa4924ea9bd6f14f3d618,19,Mężczyzna,2022-06-04_08h10.26.602,task,2021.1.4,Win32,144.092219,628b806c463b948bc644b84f,629af733d2e9718bda33dcb4,,,,,,,,,,,wg,"[""w"",""g""]","[1.4090000000000487,1.4870000000000232,1.7590000000000146]",1,WG,1,0,1,0,1,,,,,,,,,,,,,,,,,,,,,,,,,,,,,,,,,,,,,,,,,,,,,,,,,,,,,,,,,,,,,,,,,,,,,,,,,,,,,,,,,,,
,,,,,,,,,,5edaa4924ea9bd6f14f3d618,19,Mężczyzna,2022-06-04_08h10.26.602,task,2021.1.4,Win32,144.092219,628b806c463b948bc644b84f,629af733d2e9718bda33dcb4,,,,,0,0,0,0,1,X V Q F H G B L J M P D K C T S W R N Z,,,,,,,,,,,,,,,,,,,,,,,,,,,,,,,,,,,,,,,,,,,,,,,,,,,,,,,,,,,,,,,,,,,,,,,,,,,,,,,,,,,,,,,,,,,,,
,,,,,,,,,,5edaa4924ea9bd6f14f3d618,19,Mężczyzna,2022-06-04_08h10.26.602,task,2021.1.4,Win32,144.092219,628b806c463b948bc644b84f,629af733d2e9718bda33dcb4,,,,,1,0,1,0,1,X V Q F H G B L J M P D K C T S W R N Z,,,,,,,,,,,,,,,,,,,,,,,,,,,,,,,,,,,,,,,,,,,,,,,,,,,,,,,,,,,,,,,,,,,,,,,,,,,,,,,,,,,,,,,,,,,,,
,,,,,,,,,,5edaa4924ea9bd6f14f3d618,19,Mężczyzna,2022-06-04_08h10.26.602,task,2021.1.4,Win32,144.092219,628b806c463b948bc644b84f,629af733d2e9718bda33dcb4,,,,,2,0,2,0,1,X V Q F H G B L J M P D K C T S W R N Z,,,,,,,,,,,,,,,,,,,,,,,,,,,,,,,,,,,,,,,,,,,,,,,,,,,,,,,,,,,,,,,,,,,,,,,,,,,,,,,,,,,,,,,,,,,,,
,,,,,,,,,,5edaa4924ea9bd6f14f3d618,19,Mężczyzna,2022-06-04_08h10.26.602,task,2021.1.4,Win32,144.092219,628b806c463b948bc644b84f,629af733d2e9718bda33dcb4,,,,,,,,,,,sqt,"[""s"",""q"",""t""]","[0.5160000000000196,0.5799999999999841,1.339999999999975,1.4990000000000236]",1,SQT,2,0,2,0,1,,,,,,,,,,,,,,,,,,,,,,,,,,,,,,,,,,,,,,,,,,,,,,,,,,,,,,,,,,,,,,,,,,,,,,,,,,,,,,,,,,,
,,,,,,,,,,5edaa4924ea9bd6f14f3d618,19,Mężczyzna,2022-06-04_08h10.26.602,task,2021.1.4,Win32,144.092219,628b806c463b948bc644b84f,629af733d2e9718bda33dcb4,,,,,0,0,0,0,1,X V Q F H G B L J M P D K C T S W R N Z,,,,,,,,,,,,,,,,,,,,,,,,,,,,,,,,,,,,,,,,,,,,,,,,,,,,,,,,,,,,,,,,,,,,,,,,,,,,,,,,,,,,,,,,,,,,,
,,,,,,,,,,5edaa4924ea9bd6f14f3d618,19,Mężczyzna,2022-06-04_08h10.26.602,task,2021.1.4,Win32,144.092219,628b806c463b948bc644b84f,629af733d2e9718bda33dcb4,,,,,1,0,1,0,1,X V Q F H G B L J M P D K C T S W R N Z,,,,,,,,,,,,,,,,,,,,,,,,,,,,,,,,,,,,,,,,,,,,,,,,,,,,,,,,,,,,,,,,,,,,,,,,,,,,,,,,,,,,,,,,,,,,,
,,,,,,,,,,5edaa4924ea9bd6f14f3d618,19,Mężczyzna,2022-06-04_08h10.26.602,task,2021.1.4,Win32,144.092219,628b806c463b948bc644b84f,629af733d2e9718bda33dcb4,,,,,2,0,2,0,1,X V Q F H G B L J M P D K C T S W R N Z,,,,,,,,,,,,,,,,,,,,,,,,,,,,,,,,,,,,,,,,,,,,,,,,,,,,,,,,,,,,,,,,,,,,,,,,,,,,,,,,,,,,,,,,,,,,,
,,,,,,,,,,5edaa4924ea9bd6f14f3d618,19,Mężczyzna,2022-06-04_08h10.26.602,task,2021.1.4,Win32,144.092219,628b806c463b948bc644b84f,629af733d2e9718bda33dcb4,,,,,,,,,,,tjs,"[""t"",""j"",""s""]","[0.450999999999965,0.5129999999999768,0.5769999999999982,0.6970000000000027]",1,TJS,3,0,3,0,1,,,,,,,,,,,,,,,,,,,,,,,,,,,,,,,,,,,,,,,,,,,,,,,,,,,,,,,,,,,,,,,,,,,,,,,,,,,,,,,,,,,
,,,,,,,,,,5edaa4924ea9bd6f14f3d618,19,Mężczyzna,2022-06-04_08h10.26.602,task,2021.1.4,Win32,144.092219,628b806c463b948bc644b84f,629af733d2e9718bda33dcb4,,,,,0,0,0,0,1,X V Q F H G B L J M P D K C T S W R N Z,,,,,,,,,,,,,,,,,,,,,,,,,,,,,,,,,,,,,,,,,,,,,,,,,,,,,,,,,,,,,,,,,,,,,,,,,,,,,,,,,,,,,,,,,,,,,
,,,,,,,,,,5edaa4924ea9bd6f14f3d618,19,Mężczyzna,2022-06-04_08h10.26.602,task,2021.1.4,Win32,144.092219,628b806c463b948bc644b84f,629af733d2e9718bda33dcb4,,,,,1,0,1,0,1,X V Q F H G B L J M P D K C T S W R N Z,,,,,,,,,,,,,,,,,,,,,,,,,,,,,,,,,,,,,,,,,,,,,,,,,,,,,,,,,,,,,,,,,,,,,,,,,,,,,,,,,,,,,,,,,,,,,
,,,,,,,,,,5edaa4924ea9bd6f14f3d618,19,Mężczyzna,2022-06-04_08h10.26.602,task,2021.1.4,Win32,144.092219,628b806c463b948bc644b84f,629af733d2e9718bda33dcb4,,,,,2,0,2,0,1,X V Q F H G B L J M P D K C T S W R N Z,,,,,,,,,,,,,,,,,,,,,,,,,,,,,,,,,,,,,,,,,,,,,,,,,,,,,,,,,,,,,,,,,,,,,,,,,,,,,,,,,,,,,,,,,,,,,
,,,,,,,,,,5edaa4924ea9bd6f14f3d618,19,Mężczyzna,2022-06-04_08h10.26.602,task,2021.1.4,Win32,144.092219,628b806c463b948bc644b84f,629af733d2e9718bda33dcb4,,,,,3,0,3,0,1,X V Q F H G B L J M P D K C T S W R N Z,,,,,,,,,,,,,,,,,,,,,,,,,,,,,,,,,,,,,,,,,,,,,,,,,,,,,,,,,,,,,,,,,,,,,,,,,,,,,,,,,,,,,,,,,,,,,
,,,,,,,,,,5edaa4924ea9bd6f14f3d618,19,Mężczyzna,2022-06-04_08h10.26.602,task,2021.1.4,Win32,144.092219,628b806c463b948bc644b84f,629af733d2e9718bda33dcb4,,,,,,,,,,,wztl,"[""w"",""z"",""t"",""l""]","[0.4189999999999827,0.492999999999995,0.5559999999999832,0.7160000000000082,0.9660000000000082]",1,WZTL,4,0,4,0,1,,,,,,,,,,,,,,,,,,,,,,,,,,,,,,,,,,,,,,,,,,,,,,,,,,,,,,,,,,,,,,,,,,,,,,,,,,,,,,,,,,,
,,,,,,,,,,5edaa4924ea9bd6f14f3d618,19,Mężczyzna,2022-06-04_08h10.26.602,task,2021.1.4,Win32,144.092219,628b806c463b948bc644b84f,629af733d2e9718bda33dcb4,,,,,0,0,0,0,1,X V Q F H G B L J M P D K C T S W R N Z,,,,,,,,,,,,,,,,,,,,,,,,,,,,,,,,,,,,,,,,,,,,,,,,,,,,,,,,,,,,,,,,,,,,,,,,,,,,,,,,,,,,,,,,,,,,,
,,,,,,,,,,5edaa4924ea9bd6f14f3d618,19,Mężczyzna,2022-06-04_08h10.26.602,task,2021.1.4,Win32,144.092219,628b806c463b948bc644b84f,629af733d2e9718bda33dcb4,,,,,1,0,1,0,1,X V Q F H G B L J M P D K C T S W R N Z,,,,,,,,,,,,,,,,,,,,,,,,,,,,,,,,,,,,,,,,,,,,,,,,,,,,,,,,,,,,,,,,,,,,,,,,,,,,,,,,,,,,,,,,,,,,,
,,,,,,,,,,5edaa4924ea9bd6f14f3d618,19,Mężczyzna,2022-06-04_08h10.26.602,task,2021.1.4,Win32,144.092219,628b806c463b948bc644b84f,629af733d2e9718bda33dcb4,,,,,2,0,2,0,1,X V Q F H G B L J M P D K C T S W R N Z,,,,,,,,,,,,,,,,,,,,,,,,,,,,,,,,,,,,,,,,,,,,,,,,,,,,,,,,,,,,,,,,,,,,,,,,,,,,,,,,,,,,,,,,,,,,,
,,,,,,,,,,5edaa4924ea9bd6f14f3d618,19,Mężczyzna,2022-06-04_08h10.26.602,task,2021.1.4,Win32,144.092219,628b806c463b948bc644b84f,629af733d2e9718bda33dcb4,,,,,3,0,3,0,1,X V Q F H G B L J M P D K C T S W R N Z,,,,,,,,,,,,,,,,,,,,,,,,,,,,,,,,,,,,,,,,,,,,,,,,,,,,,,,,,,,,,,,,,,,,,,,,,,,,,,,,,,,,,,,,,,,,,
,,,,,,,,,,5edaa4924ea9bd6f14f3d618,19,Mężczyzna,2022-06-04_08h10.26.602,task,2021.1.4,Win32,144.092219,628b806c463b948bc644b84f,629af733d2e9718bda33dcb4,,,,,,,,,,,bvpf,"[""b"",""v"",""p"",""f""]","[0.6380000000000337,0.8120000000000118,0.867999999999995,1.205000000000041,1.5649999999999977]",1,BVPF,5,0,5,0,1,,,,,,,,,,,,,,,,,,,,,,,,,,,,,,,,,,,,,,,,,,,,,,,,,,,,,,,,,,,,,,,,,,,,,,,,,,,,,,,,,,,
,,,,,,,,,,5edaa4924ea9bd6f14f3d618,19,Mężczyzna,2022-06-04_08h10.26.602,task,2021.1.4,Win32,144.092219,628b806c463b948bc644b84f,629af733d2e9718bda33dcb4,,,,,0,0,0,0,1,X V Q F H G B L J M P D K C T S W R N Z,,,,,,,,,,,,,,,,,,,,,,,,,,,,,,,,,,,,,,,,,,,,,,,,,,,,,,,,,,,,,,,,,,,,,,,,,,,,,,,,,,,,,,,,,,,,,
,,,,,,,,,,5edaa4924ea9bd6f14f3d618,19,Mężczyzna,2022-06-04_08h10.26.602,task,2021.1.4,Win32,144.092219,628b806c463b948bc644b84f,629af733d2e9718bda33dcb4,,,,,1,0,1,0,1,X V Q F H G B L J M P D K C T S W R N Z,,,,,,,,,,,,,,,,,,,,,,,,,,,,,,,,,,,,,,,,,,,,,,,,,,,,,,,,,,,,,,,,,,,,,,,,,,,,,,,,,,,,,,,,,,,,,
,,,,,,,,,,5edaa4924ea9bd6f14f3d618,19,Mężczyzna,2022-06-04_08h10.26.602,task,2021.1.4,Win32,144.092219,628b806c463b948bc644b84f,629af733d2e9718bda33dcb4,,,,,2,0,2,0,1,X V Q F H G B L J M P D K C T S W R N Z,,,,,,,,,,,,,,,,,,,,,,,,,,,,,,,,,,,,,,,,,,,,,,,,,,,,,,,,,,,,,,,,,,,,,,,,,,,,,,,,,,,,,,,,,,,,,
,,,,,,,,,,5edaa4924ea9bd6f14f3d618,19,Mężczyzna,2022-06-04_08h10.26.602,task,2021.1.4,Win32,144.092219,628b806c463b948bc644b84f,629af733d2e9718bda33dcb4,,,,,3,0,3,0,1,X V Q F H G B L J M P D K C T S W R N Z,,,,,,,,,,,,,,,,,,,,,,,,,,,,,,,,,,,,,,,,,,,,,,,,,,,,,,,,,,,,,,,,,,,,,,,,,,,,,,,,,,,,,,,,,,,,,
,,,,,,,,,,5edaa4924ea9bd6f14f3d618,19,Mężczyzna,2022-06-04_08h10.26.602,task,2021.1.4,Win32,144.092219,628b806c463b948bc644b84f,629af733d2e9718bda33dcb4,,,,,4,0,4,0,1,X V Q F H G B L J M P D K C T S W R N Z,,,,,,,,,,,,,,,,,,,,,,,,,,,,,,,,,,,,,,,,,,,,,,,,,,,,,,,,,,,,,,,,,,,,,,,,,,,,,,,,,,,,,,,,,,,,,
,,,,,,,,,,5edaa4924ea9bd6f14f3d618,19,Mężczyzna,2022-06-04_08h10.26.602,task,2021.1.4,Win32,144.092219,628b806c463b948bc644b84f,629af733d2e9718bda33dcb4,,,,,,,,,,,btpnrv,"[""b"",""t"",""p"",""n"",""r"",""v""]","[0.4660000000000082,0.5289999999999964,0.6189999999999714,0.9379999999999882,1.0639999999999645,1.336999999999989,1.6089999999999804]",0,NTNRV,6,0,6,0,1,,,,,,,,,,,,,,,,,,,,,,,,,,,,,,,,,,,,,,,,,,,,,,,,,,,,,,,,,,,,,,,,,,,,,,,,,,,,,,,,,,,
,,,,,,,,,,5edaa4924ea9bd6f14f3d618,19,Mężczyzna,2022-06-04_08h10.26.602,task,2021.1.4,Win32,144.092219,628b806c463b948bc644b84f,629af733d2e9718bda33dcb4,,,,,0,0,0,0,1,X V Q F H G B L J M P D K C T S W R N Z,,,,,,,,,,,,,,,,,,,,,,,,,,,,,,,,,,,,,,,,,,,,,,,,,,,,,,,,,,,,,,,,,,,,,,,,,,,,,,,,,,,,,,,,,,,,,
,,,,,,,,,,5edaa4924ea9bd6f14f3d618,19,Mężczyzna,2022-06-04_08h10.26.602,task,2021.1.4,Win32,144.092219,628b806c463b948bc644b84f,629af733d2e9718bda33dcb4,,,,,1,0,1,0,1,X V Q F H G B L J M P D K C T S W R N Z,,,,,,,,,,,,,,,,,,,,,,,,,,,,,,,,,,,,,,,,,,,,,,,,,,,,,,,,,,,,,,,,,,,,,,,,,,,,,,,,,,,,,,,,,,,,,
,,,,,,,,,,5edaa4924ea9bd6f14f3d618,19,Mężczyzna,2022-06-04_08h10.26.602,task,2021.1.4,Win32,144.092219,628b806c463b948bc644b84f,629af733d2e9718bda33dcb4,,,,,2,0,2,0,1,X V Q F H G B L J M P D K C T S W R N Z,,,,,,,,,,,,,,,,,,,,,,,,,,,,,,,,,,,,,,,,,,,,,,,,,,,,,,,,,,,,,,,,,,,,,,,,,,,,,,,,,,,,,,,,,,,,,
,,,,,,,,,,5edaa4924ea9bd6f14f3d618,19,Mężczyzna,2022-06-04_08h10.26.602,task,2021.1.4,Win32,144.092219,628b806c463b948bc644b84f,629af733d2e9718bda33dcb4,,,,,3,0,3,0,1,X V Q F H G B L J M P D K C T S W R N Z,,,,,,,,,,,,,,,,,,,,,,,,,,,,,,,,,,,,,,,,,,,,,,,,,,,,,,,,,,,,,,,,,,,,,,,,,,,,,,,,,,,,,,,,,,,,,
,,,,,,,,,,5edaa4924ea9bd6f14f3d618,19,Mężczyzna,2022-06-04_08h10.26.602,task,2021.1.4,Win32,144.092219,628b806c463b948bc644b84f,629af733d2e9718bda33dcb4,,,,,4,0,4,0,1,X V Q F H G B L J M P D K C T S W R N Z,,,,,,,,,,,,,,,,,,,,,,,,,,,,,,,,,,,,,,,,,,,,,,,,,,,,,,,,,,,,,,,,,,,,,,,,,,,,,,,,,,,,,,,,,,,,,
,,,,,,,,,,5edaa4924ea9bd6f14f3d618,19,Mężczyzna,2022-06-04_08h10.26.602,task,2021.1.4,Win32,144.092219,628b806c463b948bc644b84f,629af733d2e9718bda33dcb4,,,,,,,,,,,zfbpw,"[""z"",""f"",""b"",""p"",""w""]","[0.7600000000000477,0.9210000000000491,1.146000000000015,1.4720000000000368,2.035000000000025,2.305000000000007]",1,ZFBPW,7,0,7,0,1,,,,,,,,,,,,,,,,,,,,,,,,,,,,,,,,,,,,,,,,,,,,,,,,,,,,,,,,,,,,,,,,,,,,,,,,,,,,,,,,,,,
,,,,,,,,,,5edaa4924ea9bd6f14f3d618,19,Mężczyzna,2022-06-04_08h10.26.602,task,2021.1.4,Win32,144.092219,628b806c463b948bc644b84f,629af733d2e9718bda33dcb4,,,,,0,0,0,0,1,X V Q F H G B L J M P D K C T S W R N Z,,,,,,,,,,,,,,,,,,,,,,,,,,,,,,,,,,,,,,,,,,,,,,,,,,,,,,,,,,,,,,,,,,,,,,,,,,,,,,,,,,,,,,,,,,,,,
,,,,,,,,,,5edaa4924ea9bd6f14f3d618,19,Mężczyzna,2022-06-04_08h10.26.602,task,2021.1.4,Win32,144.092219,628b806c463b948bc644b84f,629af733d2e9718bda33dcb4,,,,,1,0,1,0,1,X V Q F H G B L J M P D K C T S W R N Z,,,,,,,,,,,,,,,,,,,,,,,,,,,,,,,,,,,,,,,,,,,,,,,,,,,,,,,,,,,,,,,,,,,,,,,,,,,,,,,,,,,,,,,,,,,,,
,,,,,,,,,,5edaa4924ea9bd6f14f3d618,19,Mężczyzna,2022-06-04_08h10.26.602,task,2021.1.4,Win32,144.092219,628b806c463b948bc644b84f,629af733d2e9718bda33dcb4,,,,,2,0,2,0,1,X V Q F H G B L J M P D K C T S W R N Z,,,,,,,,,,,,,,,,,,,,,,,,,,,,,,,,,,,,,,,,,,,,,,,,,,,,,,,,,,,,,,,,,,,,,,,,,,,,,,,,,,,,,,,,,,,,,
,,,,,,,,,,5edaa4924ea9bd6f14f3d618,19,Mężczyzna,2022-06-04_08h10.26.602,task,2021.1.4,Win32,144.092219,628b806c463b948bc644b84f,629af733d2e9718bda33dcb4,,,,,3,0,3,0,1,X V Q F H G B L J M P D K C T S W R N Z,,,,,,,,,,,,,,,,,,,,,,,,,,,,,,,,,,,,,,,,,,,,,,,,,,,,,,,,,,,,,,,,,,,,,,,,,,,,,,,,,,,,,,,,,,,,,
,,,,,,,,,,5edaa4924ea9bd6f14f3d618,19,Mężczyzna,2022-06-04_08h10.26.602,task,2021.1.4,Win32,144.092219,628b806c463b948bc644b84f,629af733d2e9718bda33dcb4,,,,,4,0,4,0,1,X V Q F H G B L J M P D K C T S W R N Z,,,,,,,,,,,,,,,,,,,,,,,,,,,,,,,,,,,,,,,,,,,,,,,,,,,,,,,,,,,,,,,,,,,,,,,,,,,,,,,,,,,,,,,,,,,,,
,,,,,,,,,,5edaa4924ea9bd6f14f3d618,19,Mężczyzna,2022-06-04_08h10.26.602,task,2021.1.4,Win32,144.092219,628b806c463b948bc644b84f,629af733d2e9718bda33dcb4,,,,,,,,,,,djlhb,"[""d"",""j"",""l"",""h"",""b""]","[0.6210000000000377,0.8840000000000146,1.9660000000000082,2.0289999999999964,2.140000000000043,2.444999999999993]",1,DJLHB,8,0,8,0,1,,,,,,,,,,,,,,,,,,,,,,,,,,,,,,,,,,,,,,,,,,,,,,,,,,,,,,,,,,,,,,,,,,,,,,,,,,,,,,,,,,,
,,,,,,,,,,5edaa4924ea9bd6f14f3d618,19,Mężczyzna,2022-06-04_08h10.26.602,task,2021.1.4,Win32,144.092219,628b806c463b948bc644b84f,629af733d2e9718bda33dcb4,,,,,0,0,0,0,1,X V Q F H G B L J M P D K C T S W R N Z,,,,,,,,,,,,,,,,,,,,,,,,,,,,,,,,,,,,,,,,,,,,,,,,,,,,,,,,,,,,,,,,,,,,,,,,,,,,,,,,,,,,,,,,,,,,,
,,,,,,,,,,5edaa4924ea9bd6f14f3d618,19,Mężczyzna,2022-06-04_08h10.26.602,task,2021.1.4,Win32,144.092219,628b806c463b948bc644b84f,629af733d2e9718bda33dcb4,,,,,1,0,1,0,1,X V Q F H G B L J M P D K C T S W R N Z,,,,,,,,,,,,,,,,,,,,,,,,,,,,,,,,,,,,,,,,,,,,,,,,,,,,,,,,,,,,,,,,,,,,,,,,,,,,,,,,,,,,,,,,,,,,,
,,,,,,,,,,5edaa4924ea9bd6f14f3d618,19,Mężczyzna,2022-06-04_08h10.26.602,task,2021.1.4,Win32,144.092219,628b806c463b948bc644b84f,629af733d2e9718bda33dcb4,,,,,2,0,2,0,1,X V Q F H G B L J M P D K C T S W R N Z,,,,,,,,,,,,,,,,,,,,,,,,,,,,,,,,,,,,,,,,,,,,,,,,,,,,,,,,,,,,,,,,,,,,,,,,,,,,,,,,,,,,,,,,,,,,,
,,,,,,,,,,5edaa4924ea9bd6f14f3d618,19,Mężczyzna,2022-06-04_08h10.26.602,task,2021.1.4,Win32,144.092219,628b806c463b948bc644b84f,629af733d2e9718bda33dcb4,,,,,3,0,3,0,1,X V Q F H G B L J M P D K C T S W R N Z,,,,,,,,,,,,,,,,,,,,,,,,,,,,,,,,,,,,,,,,,,,,,,,,,,,,,,,,,,,,,,,,,,,,,,,,,,,,,,,,,,,,,,,,,,,,,
,,,,,,,,,,5edaa4924ea9bd6f14f3d618,19,Mężczyzna,2022-06-04_08h10.26.602,task,2021.1.4,Win32,144.092219,628b806c463b948bc644b84f,629af733d2e9718bda33dcb4,,,,,4,0,4,0,1,X V Q F H G B L J M P D K C T S W R N Z,,,,,,,,,,,,,,,,,,,,,,,,,,,,,,,,,,,,,,,,,,,,,,,,,,,,,,,,,,,,,,,,,,,,,,,,,,,,,,,,,,,,,,,,,,,,,
,,,,,,,,,,5edaa4924ea9bd6f14f3d618,19,Mężczyzna,2022-06-04_08h10.26.602,task,2021.1.4,Win32,144.092219,628b806c463b948bc644b84f,629af733d2e9718bda33dcb4,,,,,5,0,5,0,1,X V Q F H G B L J M P D K C T S W R N Z,,,,,,,,,,,,,,,,,,,,,,,,,,,,,,,,,,,,,,,,,,,,,,,,,,,,,,,,,,,,,,,,,,,,,,,,,,,,,,,,,,,,,,,,,,,,,
,,,,,,,,,,5edaa4924ea9bd6f14f3d618,19,Mężczyzna,2022-06-04_08h10.26.602,task,2021.1.4,Win32,144.092219,628b806c463b948bc644b84f,629af733d2e9718bda33dcb4,,,,,,,,,,,fmffjf,"[""f"",""m"",""f"",""f"",""j"",""f""]","[0.32200000000000273,0.51400000000001,0.6820000000000164,0.8670000000000186,1.0269999999999868,1.170000000000016,1.4569999999999936]",1,FMFFJF,9,0,9,0,1,,,,,,,,,,,,,,,,,,,,,,,,,,,,,,,,,,,,,,,,,,,,,,,,,,,,,,,,,,,,,,,,,,,,,,,,,,,,,,,,,,,
,,,,,,,,,,5edaa4924ea9bd6f14f3d618,19,Mężczyzna,2022-06-04_08h10.26.602,task,2021.1.4,Win32,144.092219,628b806c463b948bc644b84f,629af733d2e9718bda33dcb4,,,,,0,0,0,0,1,X V Q F H G B L J M P D K C T S W R N Z,,,,,,,,,,,,,,,,,,,,,,,,,,,,,,,,,,,,,,,,,,,,,,,,,,,,,,,,,,,,,,,,,,,,,,,,,,,,,,,,,,,,,,,,,,,,,
,,,,,,,,,,5edaa4924ea9bd6f14f3d618,19,Mężczyzna,2022-06-04_08h10.26.602,task,2021.1.4,Win32,144.092219,628b806c463b948bc644b84f,629af733d2e9718bda33dcb4,,,,,1,0,1,0,1,X V Q F H G B L J M P D K C T S W R N Z,,,,,,,,,,,,,,,,,,,,,,,,,,,,,,,,,,,,,,,,,,,,,,,,,,,,,,,,,,,,,,,,,,,,,,,,,,,,,,,,,,,,,,,,,,,,,
,,,,,,,,,,5edaa4924ea9bd6f14f3d618,19,Mężczyzna,2022-06-04_08h10.26.602,task,2021.1.4,Win32,144.092219,628b806c463b948bc644b84f,629af733d2e9718bda33dcb4,,,,,2,0,2,0,1,X V Q F H G B L J M P D K C T S W R N Z,,,,,,,,,,,,,,,,,,,,,,,,,,,,,,,,,,,,,,,,,,,,,,,,,,,,,,,,,,,,,,,,,,,,,,,,,,,,,,,,,,,,,,,,,,,,,
,,,,,,,,,,5edaa4924ea9bd6f14f3d618,19,Mężczyzna,2022-06-04_08h10.26.602,task,2021.1.4,Win32,144.092219,628b806c463b948bc644b84f,629af733d2e9718bda33dcb4,,,,,3,0,3,0,1,X V Q F H G B L J M P D K C T S W R N Z,,,,,,,,,,,,,,,,,,,,,,,,,,,,,,,,,,,,,,,,,,,,,,,,,,,,,,,,,,,,,,,,,,,,,,,,,,,,,,,,,,,,,,,,,,,,,
,,,,,,,,,,5edaa4924ea9bd6f14f3d618,19,Mężczyzna,2022-06-04_08h10.26.602,task,2021.1.4,Win32,144.092219,628b806c463b948bc644b84f,629af733d2e9718bda33dcb4,,,,,4,0,4,0,1,X V Q F H G B L J M P D K C T S W R N Z,,,,,,,,,,,,,,,,,,,,,,,,,,,,,,,,,,,,,,,,,,,,,,,,,,,,,,,,,,,,,,,,,,,,,,,,,,,,,,,,,,,,,,,,,,,,,
,,,,,,,,,,5edaa4924ea9bd6f14f3d618,19,Mężczyzna,2022-06-04_08h10.26.602,task,2021.1.4,Win32,144.092219,628b806c463b948bc644b84f,629af733d2e9718bda33dcb4,,,,,5,0,5,0,1,X V Q F H G B L J M P D K C T S W R N Z,,,,,,,,,,,,,,,,,,,,,,,,,,,,,,,,,,,,,,,,,,,,,,,,,,,,,,,,,,,,,,,,,,,,,,,,,,,,,,,,,,,,,,,,,,,,,
,,,,,,,,,,5edaa4924ea9bd6f14f3d618,19,Mężczyzna,2022-06-04_08h10.26.602,task,2021.1.4,Win32,144.092219,628b806c463b948bc644b84f,629af733d2e9718bda33dcb4,,,,,,,,,,,njzjds,"[""n"",""j"",""z"",""j"",""d"",""s""]","[0.36199999999996635,0.5209999999999582,0.8109999999999786,1.009999999999991,1.217999999999961,1.6519999999999868,1.98599999999999]",1,NJZJDS,10,0,10,0,1,,,,,,,,,,,,,,,,,,,,,,,,,,,,,,,,,,,,,,,,,,,,,,,,,,,,,,,,,,,,,,,,,,,,,,,,,,,,,,,,,,,
,,,,,,,,,,5edaa4924ea9bd6f14f3d618,19,Mężczyzna,2022-06-04_08h10.26.602,task,2021.1.4,Win32,144.092219,628b806c463b948bc644b84f,629af733d2e9718bda33dcb4,,,,,0,0,0,0,1,X V Q F H G B L J M P D K C T S W R N Z,,,,,,,,,,,,,,,,,,,,,,,,,,,,,,,,,,,,,,,,,,,,,,,,,,,,,,,,,,,,,,,,,,,,,,,,,,,,,,,,,,,,,,,,,,,,,
,,,,,,,,,,5edaa4924ea9bd6f14f3d618,19,Mężczyzna,2022-06-04_08h10.26.602,task,2021.1.4,Win32,144.092219,628b806c463b948bc644b84f,629af733d2e9718bda33dcb4,,,,,1,0,1,0,1,X V Q F H G B L J M P D K C T S W R N Z,,,,,,,,,,,,,,,,,,,,,,,,,,,,,,,,,,,,,,,,,,,,,,,,,,,,,,,,,,,,,,,,,,,,,,,,,,,,,,,,,,,,,,,,,,,,,
,,,,,,,,,,5edaa4924ea9bd6f14f3d618,19,Mężczyzna,2022-06-04_08h10.26.602,task,2021.1.4,Win32,144.092219,628b806c463b948bc644b84f,629af733d2e9718bda33dcb4,,,,,2,0,2,0,1,X V Q F H G B L J M P D K C T S W R N Z,,,,,,,,,,,,,,,,,,,,,,,,,,,,,,,,,,,,,,,,,,,,,,,,,,,,,,,,,,,,,,,,,,,,,,,,,,,,,,,,,,,,,,,,,,,,,
,,,,,,,,,,5edaa4924ea9bd6f14f3d618,19,Mężczyzna,2022-06-04_08h10.26.602,task,2021.1.4,Win32,144.092219,628b806c463b948bc644b84f,629af733d2e9718bda33dcb4,,,,,3,0,3,0,1,X V Q F H G B L J M P D K C T S W R N Z,,,,,,,,,,,,,,,,,,,,,,,,,,,,,,,,,,,,,,,,,,,,,,,,,,,,,,,,,,,,,,,,,,,,,,,,,,,,,,,,,,,,,,,,,,,,,
,,,,,,,,,,5edaa4924ea9bd6f14f3d618,19,Mężczyzna,2022-06-04_08h10.26.602,task,2021.1.4,Win32,144.092219,628b806c463b948bc644b84f,629af733d2e9718bda33dcb4,,,,,4,0,4,0,1,X V Q F H G B L J M P D K C T S W R N Z,,,,,,,,,,,,,,,,,,,,,,,,,,,,,,,,,,,,,,,,,,,,,,,,,,,,,,,,,,,,,,,,,,,,,,,,,,,,,,,,,,,,,,,,,,,,,
,,,,,,,,,,5edaa4924ea9bd6f14f3d618,19,Mężczyzna,2022-06-04_08h10.26.602,task,2021.1.4,Win32,144.092219,628b806c463b948bc644b84f,629af733d2e9718bda33dcb4,,,,,5,0,5,0,1,X V Q F H G B L J M P D K C T S W R N Z,,,,,,,,,,,,,,,,,,,,,,,,,,,,,,,,,,,,,,,,,,,,,,,,,,,,,,,,,,,,,,,,,,,,,,,,,,,,,,,,,,,,,,,,,,,,,
,,,,,,,,,,5edaa4924ea9bd6f14f3d618,19,Mężczyzna,2022-06-04_08h10.26.602,task,2021.1.4,Win32,144.092219,628b806c463b948bc644b84f,629af733d2e9718bda33dcb4,,,,,6,0,6,0,1,X V Q F H G B L J M P D K C T S W R N Z,,,,,,,,,,,,,,,,,,,,,,,,,,,,,,,,,,,,,,,,,,,,,,,,,,,,,,,,,,,,,,,,,,,,,,,,,,,,,,,,,,,,,,,,,,,,,
,,,,,,,,,,5edaa4924ea9bd6f14f3d618,19,Mężczyzna,2022-06-04_08h10.26.602,task,2021.1.4,Win32,144.092219,628b806c463b948bc644b84f,629af733d2e9718bda33dcb4,,,,,,,,,,,ktdvtdw,"[""k"",""t"",""d"",""v"",""t"",""d"",""w""]","[0.25600000000002865,0.4519999999999982,0.6659999999999968,0.9780000000000086,1.26400000000001,2.5540000000000305,2.61099999999999,3.1999999999999886]",0,KTDVTWN,11,0,11,0,1,,,,,,,,,,,,,,,,,,,,,,,,,,,,,,,,,,,,,,,,,,,,,,,,,,,,,,,,,,,,,,,,,,,,,,,,,,,,,,,,,,,
,,,,,,,,,,5edaa4924ea9bd6f14f3d618,19,Mężczyzna,2022-06-04_08h10.26.602,task,2021.1.4,Win32,144.092219,628b806c463b948bc644b84f,629af733d2e9718bda33dcb4,,,,,0,0,0,0,1,X V Q F H G B L J M P D K C T S W R N Z,,,,,,,,,,,,,,,,,,,,,,,,,,,,,,,,,,,,,,,,,,,,,,,,,,,,,,,,,,,,,,,,,,,,,,,,,,,,,,,,,,,,,,,,,,,,,
,,,,,,,,,,5edaa4924ea9bd6f14f3d618,19,Mężczyzna,2022-06-04_08h10.26.602,task,2021.1.4,Win32,144.092219,628b806c463b948bc644b84f,629af733d2e9718bda33dcb4,,,,,1,0,1,0,1,X V Q F H G B L J M P D K C T S W R N Z,,,,,,,,,,,,,,,,,,,,,,,,,,,,,,,,,,,,,,,,,,,,,,,,,,,,,,,,,,,,,,,,,,,,,,,,,,,,,,,,,,,,,,,,,,,,,
,,,,,,,,,,5edaa4924ea9bd6f14f3d618,19,Mężczyzna,2022-06-04_08h10.26.602,task,2021.1.4,Win32,144.092219,628b806c463b948bc644b84f,629af733d2e9718bda33dcb4,,,,,2,0,2,0,1,X V Q F H G B L J M P D K C T S W R N Z,,,,,,,,,,,,,,,,,,,,,,,,,,,,,,,,,,,,,,,,,,,,,,,,,,,,,,,,,,,,,,,,,,,,,,,,,,,,,,,,,,,,,,,,,,,,,
,,,,,,,,,,5edaa4924ea9bd6f14f3d618,19,Mężczyzna,2022-06-04_08h10.26.602,task,2021.1.4,Win32,144.092219,628b806c463b948bc644b84f,629af733d2e9718bda33dcb4,,,,,3,0,3,0,1,X V Q F H G B L J M P D K C T S W R N Z,,,,,,,,,,,,,,,,,,,,,,,,,,,,,,,,,,,,,,,,,,,,,,,,,,,,,,,,,,,,,,,,,,,,,,,,,,,,,,,,,,,,,,,,,,,,,
,,,,,,,,,,5edaa4924ea9bd6f14f3d618,19,Mężczyzna,2022-06-04_08h10.26.602,task,2021.1.4,Win32,144.092219,628b806c463b948bc644b84f,629af733d2e9718bda33dcb4,,,,,4,0,4,0,1,X V Q F H G B L J M P D K C T S W R N Z,,,,,,,,,,,,,,,,,,,,,,,,,,,,,,,,,,,,,,,,,,,,,,,,,,,,,,,,,,,,,,,,,,,,,,,,,,,,,,,,,,,,,,,,,,,,,
,,,,,,,,,,5edaa4924ea9bd6f14f3d618,19,Mężczyzna,2022-06-04_08h10.26.602,task,2021.1.4,Win32,144.092219,628b806c463b948bc644b84f,629af733d2e9718bda33dcb4,,,,,5,0,5,0,1,X V Q F H G B L J M P D K C T S W R N Z,,,,,,,,,,,,,,,,,,,,,,,,,,,,,,,,,,,,,,,,,,,,,,,,,,,,,,,,,,,,,,,,,,,,,,,,,,,,,,,,,,,,,,,,,,,,,
,,,,,,,,,,5edaa4924ea9bd6f14f3d618,19,Mężczyzna,2022-06-04_08h10.26.602,task,2021.1.4,Win32,144.092219,628b806c463b948bc644b84f,629af733d2e9718bda33dcb4,,,,,6,0,6,0,1,X V Q F H G B L J M P D K C T S W R N Z,,,,,,,,,,,,,,,,,,,,,,,,,,,,,,,,,,,,,,,,,,,,,,,,,,,,,,,,,,,,,,,,,,,,,,,,,,,,,,,,,,,,,,,,,,,,,
,,,,,,,,,,5edaa4924ea9bd6f14f3d618,19,Mężczyzna,2022-06-04_08h10.26.602,task,2021.1.4,Win32,144.092219,628b806c463b948bc644b84f,629af733d2e9718bda33dcb4,,,,,,,,,,,mtzrrwd,"[""m"",""t"",""z"",""r"",""r"",""w"",""d""]","[0.3050000000000068,0.43200000000001637,0.5830000000000268,1.30600000000004,1.4650000000000318,2.73599999999999,2.930000000000007,3.151999999999987]",0,TMZFRRW,12,0,12,0,1,,,,,,,,,,,,,,,,,,,,,,,,,,,,,,,,,,,,,,,,,,,,,,,,,,,,,,,,,,,,,,,,,,,,,,,,,,,,,,,,,,,
,,,,,,,,,,5edaa4924ea9bd6f14f3d618,19,Mężczyzna,2022-06-04_08h10.26.602,task,2021.1.4,Win32,144.092219,628b806c463b948bc644b84f,629af733d2e9718bda33dcb4,,,,,0,0,0,0,1,X V Q F H G B L J M P D K C T S W R N Z,,,,,,,,,,,,,,,,,,,,,,,,,,,,,,,,,,,,,,,,,,,,,,,,,,,,,,,,,,,,,,,,,,,,,,,,,,,,,,,,,,,,,,,,,,,,,
,,,,,,,,,,5edaa4924ea9bd6f14f3d618,19,Mężczyzna,2022-06-04_08h10.26.602,task,2021.1.4,Win32,144.092219,628b806c463b948bc644b84f,629af733d2e9718bda33dcb4,,,,,1,0,1,0,1,X V Q F H G B L J M P D K C T S W R N Z,,,,,,,,,,,,,,,,,,,,,,,,,,,,,,,,,,,,,,,,,,,,,,,,,,,,,,,,,,,,,,,,,,,,,,,,,,,,,,,,,,,,,,,,,,,,,
,,,,,,,,,,5edaa4924ea9bd6f14f3d618,19,Mężczyzna,2022-06-04_08h10.26.602,task,2021.1.4,Win32,144.092219,628b806c463b948bc644b84f,629af733d2e9718bda33dcb4,,,,,2,0,2,0,1,X V Q F H G B L J M P D K C T S W R N Z,,,,,,,,,,,,,,,,,,,,,,,,,,,,,,,,,,,,,,,,,,,,,,,,,,,,,,,,,,,,,,,,,,,,,,,,,,,,,,,,,,,,,,,,,,,,,
,,,,,,,,,,5edaa4924ea9bd6f14f3d618,19,Mężczyzna,2022-06-04_08h10.26.602,task,2021.1.4,Win32,144.092219,628b806c463b948bc644b84f,629af733d2e9718bda33dcb4,,,,,3,0,3,0,1,X V Q F H G B L J M P D K C T S W R N Z,,,,,,,,,,,,,,,,,,,,,,,,,,,,,,,,,,,,,,,,,,,,,,,,,,,,,,,,,,,,,,,,,,,,,,,,,,,,,,,,,,,,,,,,,,,,,
,,,,,,,,,,5edaa4924ea9bd6f14f3d618,19,Mężczyzna,2022-06-04_08h10.26.602,task,2021.1.4,Win32,144.092219,628b806c463b948bc644b84f,629af733d2e9718bda33dcb4,,,,,4,0,4,0,1,X V Q F H G B L J M P D K C T S W R N Z,,,,,,,,,,,,,,,,,,,,,,,,,,,,,,,,,,,,,,,,,,,,,,,,,,,,,,,,,,,,,,,,,,,,,,,,,,,,,,,,,,,,,,,,,,,,,
,,,,,,,,,,5edaa4924ea9bd6f14f3d618,19,Mężczyzna,2022-06-04_08h10.26.602,task,2021.1.4,Win32,144.092219,628b806c463b948bc644b84f,629af733d2e9718bda33dcb4,,,,,5,0,5,0,1,X V Q F H G B L J M P D K C T S W R N Z,,,,,,,,,,,,,,,,,,,,,,,,,,,,,,,,,,,,,,,,,,,,,,,,,,,,,,,,,,,,,,,,,,,,,,,,,,,,,,,,,,,,,,,,,,,,,
,,,,,,,,,,5edaa4924ea9bd6f14f3d618,19,Mężczyzna,2022-06-04_08h10.26.602,task,2021.1.4,Win32,144.092219,628b806c463b948bc644b84f,629af733d2e9718bda33dcb4,,,,,6,0,6,0,1,X V Q F H G B L J M P D K C T S W R N Z,,,,,,,,,,,,,,,,,,,,,,,,,,,,,,,,,,,,,,,,,,,,,,,,,,,,,,,,,,,,,,,,,,,,,,,,,,,,,,,,,,,,,,,,,,,,,
,,,,,,,,,,5edaa4924ea9bd6f14f3d618,19,Mężczyzna,2022-06-04_08h10.26.602,task,2021.1.4,Win32,144.092219,628b806c463b948bc644b84f,629af733d2e9718bda33dcb4,,,,,,,,,,,pwdnqnw,"[""p"",""w"",""d"",""n"",""q"",""n"",""w""]","[0.3190000000000168,0.4460000000000264,0.6800000000000068,0.8620000000000232,0.9190000000000396,4.175000000000011,4.239000000000033,4.834000000000003]",0,PWNDQNW,13,0,13,0,1,,,,,,,,,,,,,,,,,,,,,,,,,,,,,,,,,,,,,,,,,,,,,,,,,,,,,,,,,,,,,,,,,,,,,,,,,,,,,,,,,,,
,,,,,,,,,,5edaa4924ea9bd6f14f3d618,19,Mężczyzna,2022-06-04_08h10.26.602,task,2021.1.4,Win32,144.092219,628b806c463b948bc644b84f,629af733d2e9718bda33dcb4,,,,,,,,,,,,,,,,,,,,,space,15.521,6,"[""6""]",1,[2.909999999999968],[2.909999999999968],0,0,0,6,1,Practice,7,(25/5) + 1,6,,,,,,,,,,,,,,,,,,,,,,,,,,,,,,,,,,,,,,,,,,,,,,,,,,,,,,,,,,,,,,,,,,,
,,,,,,,,,,5edaa4924ea9bd6f14f3d618,19,Mężczyzna,2022-06-04_08h10.26.602,task,2021.1.4,Win32,144.092219,628b806c463b948bc644b84f,629af733d2e9718bda33dcb4,,,,,,,,,,,,,,,,,,,,,,,3,"[""3""]",1,[1.426999999999964],"[2.909999999999968,1.426999999999964]",0,1,1,3,1,Practice,4,(8/4) + 1,3,,,,,,,,,,,,,,,,,,,,,,,,,,,,,,,,,,,,,,,,,,,,,,,,,,,,,,,,,,,,,,,,,,,
,,,,,,,,,,5edaa4924ea9bd6f14f3d618,19,Mężczyzna,2022-06-04_08h10.26.602,task,2021.1.4,Win32,144.092219,628b806c463b948bc644b84f,629af733d2e9718bda33dcb4,,,,,,,,,,,,,,,,,,,,,,,5,"[""5""]",1,[2.4729999999999563],"[2.909999999999968,1.426999999999964,2.4729999999999563]",0,2,2,5,1,Practice,6,(4/2) + 3,5,,,,,,,,,,,,,,,,,,,,,,,,,,,,,,,,,,,,,,,,,,,,,,,,,,,,,,,,,,,,,,,,,,,
,,,,,,,,,,5edaa4924ea9bd6f14f3d618,19,Mężczyzna,2022-06-04_08h10.26.602,task,2021.1.4,Win32,144.092219,628b806c463b948bc644b84f,629af733d2e9718bda33dcb4,,,,,,,,,,,,,,,,,,,,,,,0,"[""0""]",1,[1.4649999999999181],"[2.909999999999968,1.426999999999964,2.4729999999999563,1.4649999999999181]",0,3,3,0,1,Practice,1,(3x3) -  9,0,,,,,,,,,,,,,,,,,,,,,,,,,,,,,,,,,,,,,,,,,,,,,,,,,,,,,,,,,,,,,,,,,,,
,,,,,,,,,,5edaa4924ea9bd6f14f3d618,19,Mężczyzna,2022-06-04_08h10.26.602,task,2021.1.4,Win32,144.092219,628b806c463b948bc644b84f,629af733d2e9718bda33dcb4,,,,,,,,,,,,,,,,,,,,,,,8,"[""8""]",1,[2.244000000000028],"[2.909999999999968,1.426999999999964,2.4729999999999563,1.4649999999999181,2.244000000000028]",0,4,4,8,1,Practice,9,(3x3) - 1,8,,,,,,,,,,,,,,,,,,,,,,,,,,,,,,,,,,,,,,,,,,,,,,,,,,,,,,,,,,,,,,,,,,,
,,,,,,,,,,5edaa4924ea9bd6f14f3d618,19,Mężczyzna,2022-06-04_08h10.26.602,task,2021.1.4,Win32,144.092219,628b806c463b948bc644b84f,629af733d2e9718bda33dcb4,,,,,,,,,,,,,,,,,,,,,,,2,"[""2""]",1,[2.19399999999996],"[2.909999999999968,1.426999999999964,2.4729999999999563,1.4649999999999181,2.244000000000028,2.19399999999996]",0,5,5,2,1,Practice,3,(4x4) - 14,2,,,,,,,,,,,,,,,,,,,,,,,,,,,,,,,,,,,,,,,,,,,,,,,,,,,,,,,,,,,,,,,,,,,
,,,,,,,,,,5edaa4924ea9bd6f14f3d618,19,Mężczyzna,2022-06-04_08h10.26.602,task,2021.1.4,Win32,144.092219,628b806c463b948bc644b84f,629af733d2e9718bda33dcb4,,,,,,,,,,,,,,,,,,,,,,,4,"[""4""]",1,[2.759999999999991],"[2.909999999999968,1.426999999999964,2.4729999999999563,1.4649999999999181,2.244000000000028,2.19399999999996,2.759999999999991]",0,6,6,4,1,Practice,5,(2x6) - 8,4,,,,,,,,,,,,,,,,,,,,,,,,,,,,,,,,,,,,,,,,,,,,,,,,,,,,,,,,,,,,,,,,,,,
,,,,,,,,,,5edaa4924ea9bd6f14f3d618,19,Mężczyzna,2022-06-04_08h10.26.602,task,2021.1.4,Win32,144.092219,628b806c463b948bc644b84f,629af733d2e9718bda33dcb4,,,,,,,,,,,,,,,,,,,,,,,7,"[""7""]",1,[2.20900000000006],"[2.909999999999968,1.426999999999964,2.4729999999999563,1.4649999999999181,2.244000000000028,2.19399999999996,2.759999999999991,2.20900000000006]",0,7,7,7,1,Practice,8,(5x5) - 18,7,,,,,,,,,,,,,,,,,,,,,,,,,,,,,,,,,,,,,,,,,,,,,,,,,,,,,,,,,,,,,,,,,,,
,,,,,,,,,,5edaa4924ea9bd6f14f3d618,19,Mężczyzna,2022-06-04_08h10.26.602,task,2021.1.4,Win32,144.092219,628b806c463b948bc644b84f,629af733d2e9718bda33dcb4,,,,,,,,,,,,,,,,,,,,,,,1,"[""1""]",1,[1.086999999999989],"[2.909999999999968,1.426999999999964,2.4729999999999563,1.4649999999999181,2.244000000000028,2.19399999999996,2.759999999999991,2.20900000000006,1.086999999999989]",0,8,8,1,1,Practice,2,(4x4) - 15,1,,,,,,,,,,,,,,,,,,,,,,,,,,,,,,,,,,,,,,,,,,,,,,,,,,,,,,,,,,,,,,,,,,,
,,,,,,,,,,5edaa4924ea9bd6f14f3d618,19,Mężczyzna,2022-06-04_08h10.26.602,task,2021.1.4,Win32,144.092219,628b806c463b948bc644b84f,629af733d2e9718bda33dcb4,,,,,,,,,,,,,,,,,,,,,,,9,"[""9""]",1,[1.8679999999999382],"[2.909999999999968,1.426999999999964,2.4729999999999563,1.4649999999999181,2.244000000000028,2.19399999999996,2.759999999999991,2.20900000000006,1.086999999999989,1.8679999999999382]",0,9,9,9,1,Practice,10,(20/2) - 1,9,,,,,,,,,,,,,,,,,,,,,,,,,,,,,,,,,,,,,,,,,,,,,,,,,,,,,,,,,,,,,,,,,,,
,,,,,,,,,,5edaa4924ea9bd6f14f3d618,19,Mężczyzna,2022-06-04_08h10.26.602,task,2021.1.4,Win32,144.092219,628b806c463b948bc644b84f,629af733d2e9718bda33dcb4,,,,,,,,,,,,,,,,,,,,,,,,,,,,,,,,,,,,,1,20.637,1.3758,7.9273162,0.726971627,3.251386798,space,7.613,0,0,0,0,1,,,,,,,,,,,,,,,,,,,,,,,,,,,,,,,,,,,,,,,,,,,,,,,,,,,,,,
,,,,,,,,,,5edaa4924ea9bd6f14f3d618,19,Mężczyzna,2022-06-04_08h10.26.602,task,2021.1.4,Win32,144.092219,628b806c463b948bc644b84f,629af733d2e9718bda33dcb4,,,,,,,,,,,,,,,,,,,,,,,,,,,,,,,,,Practice,5,(2x6) - 8,4,,,,,,,,,,,,,,space,18.729,,0,0,0,0,0,4,1,,,,,,,,,,,,,,,,,,,,,,,,,,,,,,,,,,,,,,,,,,,,
,,,,,,,,,,5edaa4924ea9bd6f14f3d618,19,Mężczyzna,2022-06-04_08h10.26.602,task,2021.1.4,Win32,144.092219,628b806c463b948bc644b84f,629af733d2e9718bda33dcb4,,,,,,,,,,,,,,,,,,,,,,,2,,,,,,,,,,Practice,3,(4x4) - 14,2,,,,,,,,,,,,,,,,"[""2""]",1,1,0,1,1,2,1,[1.8190000000000737],,,,,,,,,,,,,,,,,,,,,,,,,,,,,,,,,,,,,,,,,,,
,,,,,,,,,,5edaa4924ea9bd6f14f3d618,19,Mężczyzna,2022-06-04_08h10.26.602,task,2021.1.4,Win32,144.092219,628b806c463b948bc644b84f,629af733d2e9718bda33dcb4,,,,,,,,,,X V Q F H G B L J M P D K C T S W R N Z,,,,,,,,,,,,,,,,,,,,,,,,,,,,,,,,,,,,,,,,,,,,,,,,,,,0,0,0,0,1,,,,,,,,,,,,,,,,,,,,,,,,,,,,,,,,,,,,,,
,,,,,,,,,,5edaa4924ea9bd6f14f3d618,19,Mężczyzna,2022-06-04_08h10.26.602,task,2021.1.4,Win32,144.092219,628b806c463b948bc644b84f,629af733d2e9718bda33dcb4,,,,,,,,,,,,,,,,,,,,,,,7,,,,,,,,,,Practice,8,(5x5) - 18,7,,,,,,,,,,,,,,,,"[""7""]",1,1,0,0,0,7,1,[2.090000000000032],,,,,,,,,,,,,,,,,,,,,,,,,,,,,,,,,,,,,,,,,,,
,,,,,,,,,,5edaa4924ea9bd6f14f3d618,19,Mężczyzna,2022-06-04_08h10.26.602,task,2021.1.4,Win32,144.092219,628b806c463b948bc644b84f,629af733d2e9718bda33dcb4,,,,,,,,,,X V Q F H G B L J M P D K C T S W R N Z,,,,,,,,,,,,,,,,,,,,,,,,,,,,,,,,,,,,,,,,,,,,,,,,,,,1,0,1,0,1,,,,,,,,,,,,,,,,,,,,,,,,,,,,,,,,,,,,,,
,,,,,,,,,,5edaa4924ea9bd6f14f3d618,19,Mężczyzna,2022-06-04_08h10.26.602,task,2021.1.4,Win32,144.092219,628b806c463b948bc644b84f,629af733d2e9718bda33dcb4,,,,,,,,,,,,,,,,,,,,,,,,,,,,,,,,,,,,,,,,,,,,,,,,,,,,,,,,,,,,,,,,,,zx,"[""z"",""x""]",0,"[1.9139999999999873,2.002999999999929,2.4109999999999445]",1,0,0,0,0,1,,,,,,,,,,,,,,,,,,,,,,,,,,,,
,,,,,,,,,,5edaa4924ea9bd6f14f3d618,19,Mężczyzna,2022-06-04_08h10.26.602,task,2021.1.4,Win32,144.092219,628b806c463b948bc644b84f,629af733d2e9718bda33dcb4,,,,,,,,,,,,,,,,,,,,,,,7,,,,,,,,,,Practice,8,(5x5) - 18,7,,,,,,,,,,,,,,,,"[""7""]",1,1,0,0,0,7,1,[1.5830000000000837],,,,,,,,,,,,,,,,,,,,,,,,,,,,,,,,,,,,,,,,,,,
,,,,,,,,,,5edaa4924ea9bd6f14f3d618,19,Mężczyzna,2022-06-04_08h10.26.602,task,2021.1.4,Win32,144.092219,628b806c463b948bc644b84f,629af733d2e9718bda33dcb4,,,,,,,,,,X V Q F H G B L J M P D K C T S W R N Z,,,,,,,,,,,,,,,,,,,,,,,,,,,,,,,,,,,,,,,,,,,,,,,,,,,0,0,0,0,1,,,,,,,,,,,,,,,,,,,,,,,,,,,,,,,,,,,,,,
,,,,,,,,,,5edaa4924ea9bd6f14f3d618,19,Mężczyzna,2022-06-04_08h10.26.602,task,2021.1.4,Win32,144.092219,628b806c463b948bc644b84f,629af733d2e9718bda33dcb4,,,,,,,,,,,,,,,,,,,,,,,9,,,,,,,,,,Practice,10,(20/2) - 1,9,,,,,,,,,,,,,,,,"[""9""]",1,1,0,0,0,9,1,[1.6869999999998981],,,,,,,,,,,,,,,,,,,,,,,,,,,,,,,,,,,,,,,,,,,
,,,,,,,,,,5edaa4924ea9bd6f14f3d618,19,Mężczyzna,2022-06-04_08h10.26.602,task,2021.1.4,Win32,144.092219,628b806c463b948bc644b84f,629af733d2e9718bda33dcb4,,,,,,,,,,X V Q F H G B L J M P D K C T S W R N Z,,,,,,,,,,,,,,,,,,,,,,,,,,,,,,,,,,,,,,,,,,,,,,,,,,,1,0,1,0,1,,,,,,,,,,,,,,,,,,,,,,,,,,,,,,,,,,,,,,
,,,,,,,,,,5edaa4924ea9bd6f14f3d618,19,Mężczyzna,2022-06-04_08h10.26.602,task,2021.1.4,Win32,144.092219,628b806c463b948bc644b84f,629af733d2e9718bda33dcb4,,,,,,,,,,,,,,,,,,,,,,,,,,,,,,,,,,,,,,,,,,,,,,,,,,,,,,,,,,,,,,,,,,kz,"[""k"",""z""]",0,"[1.9309999999999263,1.9869999999999663,2.0570000000000164]",1,1,0,1,0,1,,,,,,,,,,,,,,,,,,,,,,,,,,,,
,,,,,,,,,,5edaa4924ea9bd6f14f3d618,19,Mężczyzna,2022-06-04_08h10.26.602,task,2021.1.4,Win32,144.092219,628b806c463b948bc644b84f,629af733d2e9718bda33dcb4,,,,,,,,,,,,,,,,,,,,,,,2,,,,,,,,,,Practice,3,(4x4) - 14,2,,,,,,,,,,,,,,,,"[""2""]",1,1,0,0,0,2,1,[1.6739999999999782],,,,,,,,,,,,,,,,,,,,,,,,,,,,,,,,,,,,,,,,,,,
,,,,,,,,,,5edaa4924ea9bd6f14f3d618,19,Mężczyzna,2022-06-04_08h10.26.602,task,2021.1.4,Win32,144.092219,628b806c463b948bc644b84f,629af733d2e9718bda33dcb4,,,,,,,,,,X V Q F H G B L J M P D K C T S W R N Z,,,,,,,,,,,,,,,,,,,,,,,,,,,,,,,,,,,,,,,,,,,,,,,,,,,0,0,0,0,1,,,,,,,,,,,,,,,,,,,,,,,,,,,,,,,,,,,,,,
,,,,,,,,,,5edaa4924ea9bd6f14f3d618,19,Mężczyzna,2022-06-04_08h10.26.602,task,2021.1.4,Win32,144.092219,628b806c463b948bc644b84f,629af733d2e9718bda33dcb4,,,,,,,,,,,,,,,,,,,,,,,2,,,,,,,,,,Practice,3,(4x4) - 14,2,,,,,,,,,,,,,,,,"[""2""]",1,1,0,0,0,2,1,[1.2800000000000864],,,,,,,,,,,,,,,,,,,,,,,,,,,,,,,,,,,,,,,,,,,
,,,,,,,,,,5edaa4924ea9bd6f14f3d618,19,Mężczyzna,2022-06-04_08h10.26.602,task,2021.1.4,Win32,144.092219,628b806c463b948bc644b84f,629af733d2e9718bda33dcb4,,,,,,,,,,X V Q F H G B L J M P D K C T S W R N Z,,,,,,,,,,,,,,,,,,,,,,,,,,,,,,,,,,,,,,,,,,,,,,,,,,,1,0,1,0,1,,,,,,,,,,,,,,,,,,,,,,,,,,,,,,,,,,,,,,
,,,,,,,,,,5edaa4924ea9bd6f14f3d618,19,Mężczyzna,2022-06-04_08h10.26.602,task,2021.1.4,Win32,144.092219,628b806c463b948bc644b84f,629af733d2e9718bda33dcb4,,,,,,,,,,,,,,,,,,,,,,,,,,,,,,,,,,,,,,,,,,,,,,,,,,,,,,,,,,,,,,,,,,nh,"[""n"",""h""]",0,"[1.3679999999999382,1.509999999999991,1.6319999999999482]",1,2,0,2,0,1,,,,,,,,,,,,,,,,,,,,,,,,,,,,
,,,,,,,,,,5edaa4924ea9bd6f14f3d618,19,Mężczyzna,2022-06-04_08h10.26.602,task,2021.1.4,Win32,144.092219,628b806c463b948bc644b84f,629af733d2e9718bda33dcb4,,,,,,,,,,,,,,,,,,,,,,,1,,,,,,,,,,Task,9,(3x7) - 20,1,,,,,,,,,,,,,,,,,,1,,,,,,,,,,,,,,,,,,,,,,space,161.73,"[""1""]",1,[2.8110000000000355],0,0,0,8,1,,,,,,,,,,,,,,,,,,
,,,,,,,,,,5edaa4924ea9bd6f14f3d618,19,Mężczyzna,2022-06-04_08h10.26.602,task,2021.1.4,Win32,144.092219,628b806c463b948bc644b84f,629af733d2e9718bda33dcb4,,,,,,,,,,X V Q F H G B L J M P D K C T S W R N Z,,,,,,,,,,,,,,,,,,,,,,,,,,,,,,,,,,,,,,,,,,,,,,,,,,,,,,,,,,,,,,,,,,,,,,,,,,,,0,0,0,0,1,,,,,,,,,,,,,
,,,,,,,,,,5edaa4924ea9bd6f14f3d618,19,Mężczyzna,2022-06-04_08h10.26.602,task,2021.1.4,Win32,144.092219,628b806c463b948bc644b84f,629af733d2e9718bda33dcb4,,,,,,,,,,,,,,,,,,,,,,,5,,,,,,,,,,Task,1,(12/6) - 1,1,,,,,,,,,,,,,,,,,,0,,,,,,,,,,,,,,,,,,,,,,,,"[""5""]",0,[2.770999999999958],0,0,0,0,1,,,,,,,,,,,,,,,,,,
,,,,,,,,,,5edaa4924ea9bd6f14f3d618,19,Mężczyzna,2022-06-04_08h10.26.602,task,2021.1.4,Win32,144.092219,628b806c463b948bc644b84f,629af733d2e9718bda33dcb4,,,,,,,,,,,,,,,,,,,,,,,3,,,,,,,,,,Task,35,(1x2) + 1,3,,,,,,,,,,,,,,,,,,1,,,,,,,,,,,,,,,,,,,,,,,,"[""3""]",1,[1.7699999999999818],0,1,1,34,1,,,,,,,,,,,,,,,,,,
,,,,,,,,,,5edaa4924ea9bd6f14f3d618,19,Mężczyzna,2022-06-04_08h10.26.602,task,2021.1.4,Win32,144.092219,628b806c463b948bc644b84f,629af733d2e9718bda33dcb4,,,,,,,,,,X V Q F H G B L J M P D K C T S W R N Z,,,,,,,,,,,,,,,,,,,,,,,,,,,,,,,,,,,,,,,,,,,,,,,,,,,,,,,,,,,,,,,,,,,,,,,,,,,,1,0,1,0,1,,,,,,,,,,,,,
,,,,,,,,,,5edaa4924ea9bd6f14f3d618,19,Mężczyzna,2022-06-04_08h10.26.602,task,2021.1.4,Win32,144.092219,628b806c463b948bc644b84f,629af733d2e9718bda33dcb4,,,,,,,,,,,,,,,,,,,,,,,,,,,,,,,,,,,,,,,,,,,,,,,,,,,,,,,,,,,,,,,,,,,,,,,,,,,,,,,,,,,,,,,,,,,zf,"[""z"",""f""]",0,"[1.1970000000000027,1.2300000000000182,1.629000000000019]",1,ZF,0,0,0,0,1,,
,,,,,,,,,,5edaa4924ea9bd6f14f3d618,19,Mężczyzna,2022-06-04_08h10.26.602,task,2021.1.4,Win32,144.092219,628b806c463b948bc644b84f,629af733d2e9718bda33dcb4,,,,,,,,,,,,,,,,,,,,,,,2,,,,,,,,,,Task,2,(2x2) - 2,2,,,,,,,,,,,,,,,,,,1,,,,,,,,,,,,,,,,,,,,,,,,"[""2""]",1,[1.481999999999971],0,0,0,1,1,,,,,,,,,,,,,,,,,,
,,,,,,,,,,5edaa4924ea9bd6f14f3d618,19,Mężczyzna,2022-06-04_08h10.26.602,task,2021.1.4,Win32,144.092219,628b806c463b948bc644b84f,629af733d2e9718bda33dcb4,,,,,,,,,,X V Q F H G B L J M P D K C T S W R N Z,,,,,,,,,,,,,,,,,,,,,,,,,,,,,,,,,,,,,,,,,,,,,,,,,,,,,,,,,,,,,,,,,,,,,,,,,,,,0,0,0,0,1,,,,,,,,,,,,,
,,,,,,,,,,5edaa4924ea9bd6f14f3d618,19,Mężczyzna,2022-06-04_08h10.26.602,task,2021.1.4,Win32,144.092219,628b806c463b948bc644b84f,629af733d2e9718bda33dcb4,,,,,,,,,,,,,,,,,,,,,,,8,,,,,,,,,,Task,39,(5x3) - 7,8,,,,,,,,,,,,,,,,,,1,,,,,,,,,,,,,,,,,,,,,,,,"[""8""]",1,[3.035000000000082],0,0,0,38,1,,,,,,,,,,,,,,,,,,
,,,,,,,,,,5edaa4924ea9bd6f14f3d618,19,Mężczyzna,2022-06-04_08h10.26.602,task,2021.1.4,Win32,144.092219,628b806c463b948bc644b84f,629af733d2e9718bda33dcb4,,,,,,,,,,X V Q F H G B L J M P D K C T S W R N Z,,,,,,,,,,,,,,,,,,,,,,,,,,,,,,,,,,,,,,,,,,,,,,,,,,,,,,,,,,,,,,,,,,,,,,,,,,,,1,0,1,0,1,,,,,,,,,,,,,
,,,,,,,,,,5edaa4924ea9bd6f14f3d618,19,Mężczyzna,2022-06-04_08h10.26.602,task,2021.1.4,Win32,144.092219,628b806c463b948bc644b84f,629af733d2e9718bda33dcb4,,,,,,,,,,,,,,,,,,,,,,,,,,,,,,,,,Task,11,(18/3) - 2,4,,,,,,,,,,,,,,,,,,0,,,,,,,,,,,,,,,,,,,,,,,,,0,,0,0,0,10,1,,,,,,,,,,,,,,,,,,
,,,,,,,,,,5edaa4924ea9bd6f14f3d618,19,Mężczyzna,2022-06-04_08h10.26.602,task,2021.1.4,Win32,144.092219,628b806c463b948bc644b84f,629af733d2e9718bda33dcb4,,,,,,,,,,,,,,,,,,,,,,,5,,,,,,,,,,Task,36,(8/4) + 3,5,,,,,,,,,,,,,,,,,,1,,,,,,,,,,,,,,,,,,,,,,,,"[""5""]",1,[2.5830000000000837],0,1,1,35,1,,,,,,,,,,,,,,,,,,
,,,,,,,,,,5edaa4924ea9bd6f14f3d618,19,Mężczyzna,2022-06-04_08h10.26.602,task,2021.1.4,Win32,144.092219,628b806c463b948bc644b84f,629af733d2e9718bda33dcb4,,,,,,,,,,X V Q F H G B L J M P D K C T S W R N Z,,,,,,,,,,,,,,,,,,,,,,,,,,,,,,,,,,,,,,,,,,,,,,,,,,,,,,,,,,,,,,,,,,,,,,,,,,,,2,0,2,0,1,,,,,,,,,,,,,
,,,,,,,,,,5edaa4924ea9bd6f14f3d618,19,Mężczyzna,2022-06-04_08h10.26.602,task,2021.1.4,Win32,144.092219,628b806c463b948bc644b84f,629af733d2e9718bda33dcb4,,,,,,,,,,,,,,,,,,,,,,,,,,,,,,,,,,,,,,,,,,,,,,,,,,,,,,,,,,,,,,,,,,,,,,,,,,,,,,,,,,,,,,,,,,,ppl,"[""p"",""p"",""l""]",0,"[1.65300000000002,1.7999999999999545,1.891999999999939,2.0370000000000346]",1,PPL,1,0,1,0,1,,
,,,,,,,,,,5edaa4924ea9bd6f14f3d618,19,Mężczyzna,2022-06-04_08h10.26.602,task,2021.1.4,Win32,144.092219,628b806c463b948bc644b84f,629af733d2e9718bda33dcb4,,,,,,,,,,,,,,,,,,,,,,,8,,,,,,,,,,Task,7,(3x7) - 12,9,,,,,,,,,,,,,,,,,,0,,,,,,,,,,,,,,,,,,,,,,,,"[""8""]",0,[2.576000000000022],0,0,0,6,1,,,,,,,,,,,,,,,,,,
,,,,,,,,,,5edaa4924ea9bd6f14f3d618,19,Mężczyzna,2022-06-04_08h10.26.602,task,2021.1.4,Win32,144.092219,628b806c463b948bc644b84f,629af733d2e9718bda33dcb4,,,,,,,,,,,,,,,,,,,,,,,8,,,,,,,,,,Task,38,(4x6) - 17,7,,,,,,,,,,,,,,,,,,0,,,,,,,,,,,,,,,,,,,,,,,,"[""8""]",0,[2.84699999999998],0,1,1,37,1,,,,,,,,,,,,,,,,,,
,,,,,,,,,,5edaa4924ea9bd6f14f3d618,19,Mężczyzna,2022-06-04_08h10.26.602,task,2021.1.4,Win32,144.092219,628b806c463b948bc644b84f,629af733d2e9718bda33dcb4,,,,,,,,,,,,,,,,,,,,,,,0,,,,,,,,,,Task,17,(2x3) - 6,0,,,,,,,,,,,,,,,,,,1,,,,,,,,,,,,,,,,,,,,,,,,"[""0""]",1,[1.33299999999997],0,2,2,16,1,,,,,,,,,,,,,,,,,,
,,,,,,,,,,5edaa4924ea9bd6f14f3d618,19,Mężczyzna,2022-06-04_08h10.26.602,task,2021.1.4,Win32,144.092219,628b806c463b948bc644b84f,629af733d2e9718bda33dcb4,,,,,,,,,,X V Q F H G B L J M P D K C T S W R N Z,,,,,,,,,,,,,,,,,,,,,,,,,,,,,,,,,,,,,,,,,,,,,,,,,,,,,,,,,,,,,,,,,,,,,,,,,,,,0,0,0,0,1,,,,,,,,,,,,,
,,,,,,,,,,5edaa4924ea9bd6f14f3d618,19,Mężczyzna,2022-06-04_08h10.26.602,task,2021.1.4,Win32,144.092219,628b806c463b948bc644b84f,629af733d2e9718bda33dcb4,,,,,,,,,,,,,,,,,,,,,,,3,,,,,,,,,,Task,20,(18/9) + 1,3,,,,,,,,,,,,,,,,,,1,,,,,,,,,,,,,,,,,,,,,,,,"[""3""]",1,[2.048000000000002],0,0,0,19,1,,,,,,,,,,,,,,,,,,
,,,,,,,,,,5edaa4924ea9bd6f14f3d618,19,Mężczyzna,2022-06-04_08h10.26.602,task,2021.1.4,Win32,144.092219,628b806c463b948bc644b84f,629af733d2e9718bda33dcb4,,,,,,,,,,X V Q F H G B L J M P D K C T S W R N Z,,,,,,,,,,,,,,,,,,,,,,,,,,,,,,,,,,,,,,,,,,,,,,,,,,,,,,,,,,,,,,,,,,,,,,,,,,,,1,0,1,0,1,,,,,,,,,,,,,
,,,,,,,,,,5edaa4924ea9bd6f14f3d618,19,Mężczyzna,2022-06-04_08h10.26.602,task,2021.1.4,Win32,144.092219,628b806c463b948bc644b84f,629af733d2e9718bda33dcb4,,,,,,,,,,,,,,,,,,,,,,,3,,,,,,,,,,Task,35,(1x2) + 1,3,,,,,,,,,,,,,,,,,,1,,,,,,,,,,,,,,,,,,,,,,,,"[""3""]",1,[2.6800000000000637],0,0,0,34,1,,,,,,,,,,,,,,,,,,
,,,,,,,,,,5edaa4924ea9bd6f14f3d618,19,Mężczyzna,2022-06-04_08h10.26.602,task,2021.1.4,Win32,144.092219,628b806c463b948bc644b84f,629af733d2e9718bda33dcb4,,,,,,,,,,X V Q F H G B L J M P D K C T S W R N Z,,,,,,,,,,,,,,,,,,,,,,,,,,,,,,,,,,,,,,,,,,,,,,,,,,,,,,,,,,,,,,,,,,,,,,,,,,,,2,0,2,0,1,,,,,,,,,,,,,
,,,,,,,,,,5edaa4924ea9bd6f14f3d618,19,Mężczyzna,2022-06-04_08h10.26.602,task,2021.1.4,Win32,144.092219,628b806c463b948bc644b84f,629af733d2e9718bda33dcb4,,,,,,,,,,,,,,,,,,,,,,,0,,,,,,,,,,Task,18,(16/4) - 3,1,,,,,,,,,,,,,,,,,,0,,,,,,,,,,,,,,,,,,,,,,,,"[""0""]",0,[1.9029999999999063],0,0,0,17,1,,,,,,,,,,,,,,,,,,
,,,,,,,,,,5edaa4924ea9bd6f14f3d618,19,Mężczyzna,2022-06-04_08h10.26.602,task,2021.1.4,Win32,144.092219,628b806c463b948bc644b84f,629af733d2e9718bda33dcb4,,,,,,,,,,,,,,,,,,,,,,,7,,,,,,,,,,Task,7,(3x7) - 12,9,,,,,,,,,,,,,,,,,,0,,,,,,,,,,,,,,,,,,,,,,,,"[""7""]",0,[3.23599999999999],0,1,1,6,1,,,,,,,,,,,,,,,,,,
,,,,,,,,,,5edaa4924ea9bd6f14f3d618,19,Mężczyzna,2022-06-04_08h10.26.602,task,2021.1.4,Win32,144.092219,628b806c463b948bc644b84f,629af733d2e9718bda33dcb4,,,,,,,,,,,,,,,,,,,,,,,6,,,,,,,,,,Task,30,(6/3) + 4 ,6,,,,,,,,,,,,,,,,,,1,,,,,,,,,,,,,,,,,,,,,,,,"[""6""]",1,[2.1949999999999363],0,2,2,29,1,,,,,,,,,,,,,,,,,,
,,,,,,,,,,5edaa4924ea9bd6f14f3d618,19,Mężczyzna,2022-06-04_08h10.26.602,task,2021.1.4,Win32,144.092219,628b806c463b948bc644b84f,629af733d2e9718bda33dcb4,,,,,,,,,,X V Q F H G B L J M P D K C T S W R N Z,,,,,,,,,,,,,,,,,,,,,,,,,,,,,,,,,,,,,,,,,,,,,,,,,,,,,,,,,,,,,,,,,,,,,,,,,,,,3,0,3,0,1,,,,,,,,,,,,,
,,,,,,,,,,5edaa4924ea9bd6f14f3d618,19,Mężczyzna,2022-06-04_08h10.26.602,task,2021.1.4,Win32,144.092219,628b806c463b948bc644b84f,629af733d2e9718bda33dcb4,,,,,,,,,,,,,,,,,,,,,,,,,,,,,,,,,,,,,,,,,,,,,,,,,,,,,,,,,,,,,,,,,,,,,,,,,,,,,,,,,,,,,,,,,,,thjf,"[""t"",""h"",""j"",""f""]",0,"[2.688000000000102,2.8330000000000837,2.9610000000000127,3.15300000000002,4.466000000000008]",1,THJF,2,0,2,0,1,,
,,,,,,,,,,5edaa4924ea9bd6f14f3d618,19,Mężczyzna,2022-06-04_08h10.26.602,task,2021.1.4,Win32,144.092219,628b806c463b948bc644b84f,629af733d2e9718bda33dcb4,,,,,,,,,,,,,,,,,,,,,,,,,,,,,,,,,Task,11,(18/3) - 2,4,,,,,,,,,,,,,,,,,,0,,,,,,,,,,,,,,,,,,,,,,,,,0,,0,0,0,10,1,,,,,,,,,,,,,,,,,,
,,,,,,,,,,5edaa4924ea9bd6f14f3d618,19,Mężczyzna,2022-06-04_08h10.26.602,task,2021.1.4,Win32,144.092219,628b806c463b948bc644b84f,629af733d2e9718bda33dcb4,,,,,,,,,,,,,,,,,,,,,,,4,,,,,,,,,,Task,4,(1x5) - 1,4,,,,,,,,,,,,,,,,,,1,,,,,,,,,,,,,,,,,,,,,,,,"[""4""]",1,[1.375],0,1,1,3,1,,,,,,,,,,,,,,,,,,
,,,,,,,,,,5edaa4924ea9bd6f14f3d618,19,Mężczyzna,2022-06-04_08h10.26.602,task,2021.1.4,Win32,144.092219,628b806c463b948bc644b84f,629af733d2e9718bda33dcb4,,,,,,,,,,X V Q F H G B L J M P D K C T S W R N Z,,,,,,,,,,,,,,,,,,,,,,,,,,,,,,,,,,,,,,,,,,,,,,,,,,,,,,,,,,,,,,,,,,,,,,,,,,,,0,0,0,0,1,,,,,,,,,,,,,
,,,,,,,,,,5edaa4924ea9bd6f14f3d618,19,Mężczyzna,2022-06-04_08h10.26.602,task,2021.1.4,Win32,144.092219,628b806c463b948bc644b84f,629af733d2e9718bda33dcb4,,,,,,,,,,,,,,,,,,,,,,,,,,,,,,,,,Task,38,(4x6) - 17,7,,,,,,,,,,,,,,,,,,0,,,,,,,,,,,,,,,,,,,,,,,,,0,,0,0,0,37,1,,,,,,,,,,,,,,,,,,
,,,,,,,,,,5edaa4924ea9bd6f14f3d618,19,Mężczyzna,2022-06-04_08h10.26.602,task,2021.1.4,Win32,144.092219,628b806c463b948bc644b84f,629af733d2e9718bda33dcb4,,,,,,,,,,,,,,,,,,,,,,,,,,,,,,,,,Task,16,(3x8) - 15,9,,,,,,,,,,,,,,,,,,0,,,,,,,,,,,,,,,,,,,,,,,,,0,,0,1,1,15,1,,,,,,,,,,,,,,,,,,
,,,,,,,,,,5edaa4924ea9bd6f14f3d618,19,Mężczyzna,2022-06-04_08h10.26.602,task,2021.1.4,Win32,144.092219,628b806c463b948bc644b84f,629af733d2e9718bda33dcb4,,,,,,,,,,,,,,,,,,,,,,,8,,,,,,,,,,Task,7,(3x7) - 12,9,,,,,,,,,,,,,,,,,,0,,,,,,,,,,,,,,,,,,,,,,,,"[""8""]",0,[2.7650000000001],0,2,2,6,1,,,,,,,,,,,,,,,,,,
,,,,,,,,,,5edaa4924ea9bd6f14f3d618,19,Mężczyzna,2022-06-04_08h10.26.602,task,2021.1.4,Win32,144.092219,628b806c463b948bc644b84f,629af733d2e9718bda33dcb4,,,,,,,,,,,,,,,,,,,,,,,1,,,,,,,,,,Task,9,(3x7) - 20,1,,,,,,,,,,,,,,,,,,1,,,,,,,,,,,,,,,,,,,,,,,,"[""1""]",1,[3.0130000000000337],0,3,3,8,1,,,,,,,,,,,,,,,,,,
,,,,,,,,,,5edaa4924ea9bd6f14f3d618,19,Mężczyzna,2022-06-04_08h10.26.602,task,2021.1.4,Win32,144.092219,628b806c463b948bc644b84f,629af733d2e9718bda33dcb4,,,,,,,,,,X V Q F H G B L J M P D K C T S W R N Z,,,,,,,,,,,,,,,,,,,,,,,,,,,,,,,,,,,,,,,,,,,,,,,,,,,,,,,,,,,,,,,,,,,,,,,,,,,,1,0,1,0,1,,,,,,,,,,,,,
,,,,,,,,,,5edaa4924ea9bd6f14f3d618,19,Mężczyzna,2022-06-04_08h10.26.602,task,2021.1.4,Win32,144.092219,628b806c463b948bc644b84f,629af733d2e9718bda33dcb4,,,,,,,,,,,,,,,,,,,,,,,,,,,,,,,,,Task,32,(8/2) + 4,8,,,,,,,,,,,,,,,,,,0,,,,,,,,,,,,,,,,,,,,,,,,,0,,0,0,0,31,1,,,,,,,,,,,,,,,,,,
,,,,,,,,,,5edaa4924ea9bd6f14f3d618,19,Mężczyzna,2022-06-04_08h10.26.602,task,2021.1.4,Win32,144.092219,628b806c463b948bc644b84f,629af733d2e9718bda33dcb4,,,,,,,,,,,,,,,,,,,,,,,4,,,,,,,,,,Task,28,(2x5) - 6,4,,,,,,,,,,,,,,,,,,1,,,,,,,,,,,,,,,,,,,,,,,,"[""4""]",1,[3.0310000000000628],0,1,1,27,1,,,,,,,,,,,,,,,,,,
,,,,,,,,,,5edaa4924ea9bd6f14f3d618,19,Mężczyzna,2022-06-04_08h10.26.602,task,2021.1.4,Win32,144.092219,628b806c463b948bc644b84f,629af733d2e9718bda33dcb4,,,,,,,,,,X V Q F H G B L J M P D K C T S W R N Z,,,,,,,,,,,,,,,,,,,,,,,,,,,,,,,,,,,,,,,,,,,,,,,,,,,,,,,,,,,,,,,,,,,,,,,,,,,,2,0,2,0,1,,,,,,,,,,,,,
,,,,,,,,,,5edaa4924ea9bd6f14f3d618,19,Mężczyzna,2022-06-04_08h10.26.602,task,2021.1.4,Win32,144.092219,628b806c463b948bc644b84f,629af733d2e9718bda33dcb4,,,,,,,,,,,,,,,,,,,,,,,5,,,,,,,,,,Task,36,(8/4) + 3,5,,,,,,,,,,,,,,,,,,1,,,,,,,,,,,,,,,,,,,,,,,,"[""5""]",1,[2.51400000000001],0,0,0,35,1,,,,,,,,,,,,,,,,,,
,,,,,,,,,,5edaa4924ea9bd6f14f3d618,19,Mężczyzna,2022-06-04_08h10.26.602,task,2021.1.4,Win32,144.092219,628b806c463b948bc644b84f,629af733d2e9718bda33dcb4,,,,,,,,,,X V Q F H G B L J M P D K C T S W R N Z,,,,,,,,,,,,,,,,,,,,,,,,,,,,,,,,,,,,,,,,,,,,,,,,,,,,,,,,,,,,,,,,,,,,,,,,,,,,3,0,3,0,1,,,,,,,,,,,,,
,,,,,,,,,,5edaa4924ea9bd6f14f3d618,19,Mężczyzna,2022-06-04_08h10.26.602,task,2021.1.4,Win32,144.092219,628b806c463b948bc644b84f,629af733d2e9718bda33dcb4,,,,,,,,,,,,,,,,,,,,,,,2,,,,,,,,,,Task,19,(6/2) - 1,2,,,,,,,,,,,,,,,,,,1,,,,,,,,,,,,,,,,,,,,,,,,"[""2""]",1,[2.1549999999999727],0,0,0,18,1,,,,,,,,,,,,,,,,,,
,,,,,,,,,,5edaa4924ea9bd6f14f3d618,19,Mężczyzna,2022-06-04_08h10.26.602,task,2021.1.4,Win32,144.092219,628b806c463b948bc644b84f,629af733d2e9718bda33dcb4,,,,,,,,,,X V Q F H G B L J M P D K C T S W R N Z,,,,,,,,,,,,,,,,,,,,,,,,,,,,,,,,,,,,,,,,,,,,,,,,,,,,,,,,,,,,,,,,,,,,,,,,,,,,4,0,4,0,1,,,,,,,,,,,,,
,,,,,,,,,,5edaa4924ea9bd6f14f3d618,19,Mężczyzna,2022-06-04_08h10.26.602,task,2021.1.4,Win32,144.092219,628b806c463b948bc644b84f,629af733d2e9718bda33dcb4,,,,,,,,,,,,,,,,,,,,,,,,,,,,,,,,,,,,,,,,,,,,,,,,,,,,,,,,,,,,,,,,,,,,,,,,,,,,,,,,,,,,,,,,,,,thnj,"[""t"",""h"",""n"",""j""]",0,"[20.188999999999965,20.229000000000042,20.397000000000048,20.42100000000005,21.043999999999983]",0,VQSLN,3,0,3,0,1,,
,,,,,,,,,,5edaa4924ea9bd6f14f3d618,19,Mężczyzna,2022-06-04_08h10.26.602,task,2021.1.4,Win32,144.092219,628b806c463b948bc644b84f,629af733d2e9718bda33dcb4,,,,,,,,,,,,,,,,,,,,,,,1,,,,,,,,,,Task,16,(3x8) - 15,9,,,,,,,,,,,,,,,,,,0,,,,,,,,,,,,,,,,,,,,,,,,"[""1""]",0,[2.98599999999999],0,0,0,15,1,,,,,,,,,,,,,,,,,,
,,,,,,,,,,5edaa4924ea9bd6f14f3d618,19,Mężczyzna,2022-06-04_08h10.26.602,task,2021.1.4,Win32,144.092219,628b806c463b948bc644b84f,629af733d2e9718bda33dcb4,,,,,,,,,,,,,,,,,,,,,,,6,,,,,,,,,,Task,37,(3/3) + 5,6,,,,,,,,,,,,,,,,,,1,,,,,,,,,,,,,,,,,,,,,,,,"[""6""]",1,[2.391999999999939],0,1,1,36,1,,,,,,,,,,,,,,,,,,
,,,,,,,,,,5edaa4924ea9bd6f14f3d618,19,Mężczyzna,2022-06-04_08h10.26.602,task,2021.1.4,Win32,144.092219,628b806c463b948bc644b84f,629af733d2e9718bda33dcb4,,,,,,,,,,X V Q F H G B L J M P D K C T S W R N Z,,,,,,,,,,,,,,,,,,,,,,,,,,,,,,,,,,,,,,,,,,,,,,,,,,,,,,,,,,,,,,,,,,,,,,,,,,,,0,0,0,0,1,,,,,,,,,,,,,
,,,,,,,,,,5edaa4924ea9bd6f14f3d618,19,Mężczyzna,2022-06-04_08h10.26.602,task,2021.1.4,Win32,144.092219,628b806c463b948bc644b84f,629af733d2e9718bda33dcb4,,,,,,,,,,,,,,,,,,,,,,,1,,,,,,,,,,Task,18,(16/4) - 3,1,,,,,,,,,,,,,,,,,,1,,,,,,,,,,,,,,,,,,,,,,,,"[""1""]",1,[1.7710000000000719],0,0,0,17,1,,,,,,,,,,,,,,,,,,
,,,,,,,,,,5edaa4924ea9bd6f14f3d618,19,Mężczyzna,2022-06-04_08h10.26.602,task,2021.1.4,Win32,144.092219,628b806c463b948bc644b84f,629af733d2e9718bda33dcb4,,,,,,,,,,X V Q F H G B L J M P D K C T S W R N Z,,,,,,,,,,,,,,,,,,,,,,,,,,,,,,,,,,,,,,,,,,,,,,,,,,,,,,,,,,,,,,,,,,,,,,,,,,,,1,0,1,0,1,,,,,,,,,,,,,
,,,,,,,,,,5edaa4924ea9bd6f14f3d618,19,Mężczyzna,2022-06-04_08h10.26.602,task,2021.1.4,Win32,144.092219,628b806c463b948bc644b84f,629af733d2e9718bda33dcb4,,,,,,,,,,,,,,,,,,,,,,,7,,,,,,,,,,Task,31,(4/2) + 5,7,,,,,,,,,,,,,,,,,,1,,,,,,,,,,,,,,,,,,,,,,,,"[""7""]",1,[1.66599999999994],0,0,0,30,1,,,,,,,,,,,,,,,,,,
,,,,,,,,,,5edaa4924ea9bd6f14f3d618,19,Mężczyzna,2022-06-04_08h10.26.602,task,2021.1.4,Win32,144.092219,628b806c463b948bc644b84f,629af733d2e9718bda33dcb4,,,,,,,,,,X V Q F H G B L J M P D K C T S W R N Z,,,,,,,,,,,,,,,,,,,,,,,,,,,,,,,,,,,,,,,,,,,,,,,,,,,,,,,,,,,,,,,,,,,,,,,,,,,,2,0,2,0,1,,,,,,,,,,,,,
,,,,,,,,,,5edaa4924ea9bd6f14f3d618,19,Mężczyzna,2022-06-04_08h10.26.602,task,2021.1.4,Win32,144.092219,628b806c463b948bc644b84f,629af733d2e9718bda33dcb4,,,,,,,,,,,,,,,,,,,,,,,,,,,,,,,,,Task,38,(4x6) - 17,7,,,,,,,,,,,,,,,,,,0,,,,,,,,,,,,,,,,,,,,,,,,,0,,0,0,0,37,1,,,,,,,,,,,,,,,,,,
,,,,,,,,,,5edaa4924ea9bd6f14f3d618,19,Mężczyzna,2022-06-04_08h10.26.602,task,2021.1.4,Win32,144.092219,628b806c463b948bc644b84f,629af733d2e9718bda33dcb4,,,,,,,,,,,,,,,,,,,,,,,0,,,,,,,,,,Task,25,(10/5) - 2,0,,,,,,,,,,,,,,,,,,1,,,,,,,,,,,,,,,,,,,,,,,,"[""0""]",1,[2.0699999999999363],0,1,1,24,1,,,,,,,,,,,,,,,,,,
,,,,,,,,,,5edaa4924ea9bd6f14f3d618,19,Mężczyzna,2022-06-04_08h10.26.602,task,2021.1.4,Win32,144.092219,628b806c463b948bc644b84f,629af733d2e9718bda33dcb4,,,,,,,,,,X V Q F H G B L J M P D K C T S W R N Z,,,,,,,,,,,,,,,,,,,,,,,,,,,,,,,,,,,,,,,,,,,,,,,,,,,,,,,,,,,,,,,,,,,,,,,,,,,,3,0,3,0,1,,,,,,,,,,,,,
,,,,,,,,,,5edaa4924ea9bd6f14f3d618,19,Mężczyzna,2022-06-04_08h10.26.602,task,2021.1.4,Win32,144.092219,628b806c463b948bc644b84f,629af733d2e9718bda33dcb4,,,,,,,,,,,,,,,,,,,,,,,5,,,,,,,,,,Task,12,(4x4) - 11,5,,,,,,,,,,,,,,,,,,1,,,,,,,,,,,,,,,,,,,,,,,,"[""5""]",1,[2.3339999999999463],0,0,0,11,1,,,,,,,,,,,,,,,,,,
,,,,,,,,,,5edaa4924ea9bd6f14f3d618,19,Mężczyzna,2022-06-04_08h10.26.602,task,2021.1.4,Win32,144.092219,628b806c463b948bc644b84f,629af733d2e9718bda33dcb4,,,,,,,,,,X V Q F H G B L J M P D K C T S W R N Z,,,,,,,,,,,,,,,,,,,,,,,,,,,,,,,,,,,,,,,,,,,,,,,,,,,,,,,,,,,,,,,,,,,,,,,,,,,,4,0,4,0,1,,,,,,,,,,,,,
,,,,,,,,,,5edaa4924ea9bd6f14f3d618,19,Mężczyzna,2022-06-04_08h10.26.602,task,2021.1.4,Win32,144.092219,628b806c463b948bc644b84f,629af733d2e9718bda33dcb4,,,,,,,,,,,,,,,,,,,,,,,,,,,,,,,,,,,,,,,,,,,,,,,,,,,,,,,,,,,,,,,,,,,,,,,,,,,,,,,,,,,,,,,,,,,hkxg,"[""h"",""k"",""x"",""g""]",0,"[12.282000000000039,12.442000000000007,13.314000000000078,13.557000000000016,13.771000000000072]",0,HQKXG,4,0,4,0,1,,
,,,,,,,,,,5edaa4924ea9bd6f14f3d618,19,Mężczyzna,2022-06-04_08h10.26.602,task,2021.1.4,Win32,144.092219,628b806c463b948bc644b84f,629af733d2e9718bda33dcb4,,,,,,,,,,,,,,,,,,,,,,,,,,,,,,,,,,,,,,,,,,,,,,,,,,,,,,,,,,,,,,,,,,,,,,,,,,,,,,,,,,,,,,,,,,,,,,,,,,,,,,space,1.7
