key_resp_15.keys,key_resp_15.rt,key_resp_13.keys,key_resp_13.corr,key_resp_13.rt,ranodm_loop.thisRepN,ranodm_loop.thisTrialN,ranodm_loop.thisN,ranodm_loop.thisIndex,ranodm_loop.ran,participant,Wiek*,Płeć,date,expName,psychopyVersion,OS,frameRate,study_id,session,key_resp_16.keys,key_resp_16.rt,key_resp_4.keys,key_resp_4.rt,next_letter.thisRepN,next_letter.thisTrialN,next_letter.thisN,next_letter.thisIndex,next_letter.ran,letter,simple_recall,key_resp_5.keys,key_resp_5.rt,simple_recall_corr,simple_recall_corrkeys,next_level.thisRepN,next_level.thisTrialN,next_level.thisN,next_level.thisIndex,next_level.ran,key_resp_2.keys,key_resp_2.rt,digit_answer,key_resp.keys,key_resp.corr,key_resp.rt,RT_list,next_equation.thisRepN,next_equation.thisTrialN,next_equation.thisN,next_equation.thisIndex,next_equation.ran,Task,Trial,Problem,Operation_answer,processing_score,sumRT,meanRT,sumdiff,sd,RT,key_resp_3.keys,key_resp_3.rt,repeat_practice.thisRepN,repeat_practice.thisTrialN,repeat_practice.thisN,repeat_practice.thisIndex,repeat_practice.ran,key_resp_6.keys,key_resp_6.rt,key_resp_11.keys,key_resp_11.corr,operation_correct,repeat_if_wrong_prac.thisRepN,repeat_if_wrong_prac.thisTrialN,repeat_if_wrong_prac.thisN,repeat_if_wrong_prac.thisIndex,repeat_if_wrong_prac.ran,key_resp_11.rt,span_size_prac.thisRepN,span_size_prac.thisTrialN,span_size_prac.thisN,span_size_prac.thisIndex,span_size_prac.ran,complex_recall_practice,key_resp_9.keys,key_resp_9.corr,key_resp_9.rt,complex_prac_corr,span_recall_prac.thisRepN,span_recall_prac.thisTrialN,span_recall_prac.thisN,span_recall_prac.thisIndex,span_recall_prac.ran,key_resp_10.keys,key_resp_10.rt,key_resp_7.keys,key_resp_7.corr,key_resp_7.rt,repeat_if_wrong.thisRepN,repeat_if_wrong.thisTrialN,repeat_if_wrong.thisN,repeat_if_wrong.thisIndex,repeat_if_wrong.ran,span_size.thisRepN,span_size.thisTrialN,span_size.thisN,span_size.thisIndex,span_size.ran,complex_recall,key_resp_8.keys,key_resp_8.corr,key_resp_8.rt,complex_recall_corr,complex_recall_corrkeys,span_recall.thisRepN,span_recall.thisTrialN,span_recall.thisN,span_recall.thisIndex,span_recall.ran,key_resp_12.keys,key_resp_12.rt
space,15.058,"[""period""]",0,[1.7150000000000034],0,0,0,0,1,5ee23a0d9586fe6a598e58ea,22,Kobieta,2022-06-04_08h09.42.927,task,2021.1.4,MacIntel,64.1025641,628b806c463b948bc644b84f,629af719975b6f3d3e34ed89,,,,,,,,,,,,,,,,,,,,,,,,,,,,,,,,,,,,,,,,,,,,,,,,,,,,,,,,,,,,,,,,,,,,,,,,,,,,,,,,,,,,,,,,,,,,,,,,,,,,,,,
,,,0,,1,0,1,0,1,5ee23a0d9586fe6a598e58ea,22,Kobieta,2022-06-04_08h09.42.927,task,2021.1.4,MacIntel,64.1025641,628b806c463b948bc644b84f,629af719975b6f3d3e34ed89,,,,,,,,,,,,,,,,,,,,,,,,,,,,,,,,,,,,,,,,,,,,,,,,,,,,,,,,,,,,,,,,,,,,,,,,,,,,,,,,,,,,,,,,,,,,,,,,,,,,,,,
,,,0,,2,0,2,0,1,5ee23a0d9586fe6a598e58ea,22,Kobieta,2022-06-04_08h09.42.927,task,2021.1.4,MacIntel,64.1025641,628b806c463b948bc644b84f,629af719975b6f3d3e34ed89,,,,,,,,,,,,,,,,,,,,,,,,,,,,,,,,,,,,,,,,,,,,,,,,,,,,,,,,,,,,,,,,,,,,,,,,,,,,,,,,,,,,,,,,,,,,,,,,,,,,,,,
,,,0,,3,0,3,0,1,5ee23a0d9586fe6a598e58ea,22,Kobieta,2022-06-04_08h09.42.927,task,2021.1.4,MacIntel,64.1025641,628b806c463b948bc644b84f,629af719975b6f3d3e34ed89,,,,,,,,,,,,,,,,,,,,,,,,,,,,,,,,,,,,,,,,,,,,,,,,,,,,,,,,,,,,,,,,,,,,,,,,,,,,,,,,,,,,,,,,,,,,,,,,,,,,,,,
,,"[""period""]",0,[0.7560000000000002],4,0,4,0,1,5ee23a0d9586fe6a598e58ea,22,Kobieta,2022-06-04_08h09.42.927,task,2021.1.4,MacIntel,64.1025641,628b806c463b948bc644b84f,629af719975b6f3d3e34ed89,,,,,,,,,,,,,,,,,,,,,,,,,,,,,,,,,,,,,,,,,,,,,,,,,,,,,,,,,,,,,,,,,,,,,,,,,,,,,,,,,,,,,,,,,,,,,,,,,,,,,,,
,,"[""comma""]",0,[0.4200000000000017],5,0,5,0,1,5ee23a0d9586fe6a598e58ea,22,Kobieta,2022-06-04_08h09.42.927,task,2021.1.4,MacIntel,64.1025641,628b806c463b948bc644b84f,629af719975b6f3d3e34ed89,,,,,,,,,,,,,,,,,,,,,,,,,,,,,,,,,,,,,,,,,,,,,,,,,,,,,,,,,,,,,,,,,,,,,,,,,,,,,,,,,,,,,,,,,,,,,,,,,,,,,,,
,,"[""comma""]",0,[0.3329999999999984],6,0,6,0,1,5ee23a0d9586fe6a598e58ea,22,Kobieta,2022-06-04_08h09.42.927,task,2021.1.4,MacIntel,64.1025641,628b806c463b948bc644b84f,629af719975b6f3d3e34ed89,,,,,,,,,,,,,,,,,,,,,,,,,,,,,,,,,,,,,,,,,,,,,,,,,,,,,,,,,,,,,,,,,,,,,,,,,,,,,,,,,,,,,,,,,,,,,,,,,,,,,,,
,,"[""period""]",0,[0.40399999999999636],7,0,7,0,1,5ee23a0d9586fe6a598e58ea,22,Kobieta,2022-06-04_08h09.42.927,task,2021.1.4,MacIntel,64.1025641,628b806c463b948bc644b84f,629af719975b6f3d3e34ed89,,,,,,,,,,,,,,,,,,,,,,,,,,,,,,,,,,,,,,,,,,,,,,,,,,,,,,,,,,,,,,,,,,,,,,,,,,,,,,,,,,,,,,,,,,,,,,,,,,,,,,,
,,"[""comma"",""period""]",0,"[0.29000000000000625,0.6570000000000107]",8,0,8,0,1,5ee23a0d9586fe6a598e58ea,22,Kobieta,2022-06-04_08h09.42.927,task,2021.1.4,MacIntel,64.1025641,628b806c463b948bc644b84f,629af719975b6f3d3e34ed89,,,,,,,,,,,,,,,,,,,,,,,,,,,,,,,,,,,,,,,,,,,,,,,,,,,,,,,,,,,,,,,,,,,,,,,,,,,,,,,,,,,,,,,,,,,,,,,,,,,,,,,
,,"[""period""]",0,[0.6569999999999965],9,0,9,0,1,5ee23a0d9586fe6a598e58ea,22,Kobieta,2022-06-04_08h09.42.927,task,2021.1.4,MacIntel,64.1025641,628b806c463b948bc644b84f,629af719975b6f3d3e34ed89,,,,,,,,,,,,,,,,,,,,,,,,,,,,,,,,,,,,,,,,,,,,,,,,,,,,,,,,,,,,,,,,,,,,,,,,,,,,,,,,,,,,,,,,,,,,,,,,,,,,,,,
,,"[""period""]",0,[0.5679999999999978],10,0,10,0,1,5ee23a0d9586fe6a598e58ea,22,Kobieta,2022-06-04_08h09.42.927,task,2021.1.4,MacIntel,64.1025641,628b806c463b948bc644b84f,629af719975b6f3d3e34ed89,,,,,,,,,,,,,,,,,,,,,,,,,,,,,,,,,,,,,,,,,,,,,,,,,,,,,,,,,,,,,,,,,,,,,,,,,,,,,,,,,,,,,,,,,,,,,,,,,,,,,,,
,,"[""comma""]",0,[0.3689999999999998],11,0,11,0,1,5ee23a0d9586fe6a598e58ea,22,Kobieta,2022-06-04_08h09.42.927,task,2021.1.4,MacIntel,64.1025641,628b806c463b948bc644b84f,629af719975b6f3d3e34ed89,,,,,,,,,,,,,,,,,,,,,,,,,,,,,,,,,,,,,,,,,,,,,,,,,,,,,,,,,,,,,,,,,,,,,,,,,,,,,,,,,,,,,,,,,,,,,,,,,,,,,,,
,,"[""period""]",0,[0.41800000000000637],12,0,12,0,1,5ee23a0d9586fe6a598e58ea,22,Kobieta,2022-06-04_08h09.42.927,task,2021.1.4,MacIntel,64.1025641,628b806c463b948bc644b84f,629af719975b6f3d3e34ed89,,,,,,,,,,,,,,,,,,,,,,,,,,,,,,,,,,,,,,,,,,,,,,,,,,,,,,,,,,,,,,,,,,,,,,,,,,,,,,,,,,,,,,,,,,,,,,,,,,,,,,,
,,"[""comma"",""comma""]",0,"[0.2510000000000048,0.6210000000000093]",13,0,13,0,1,5ee23a0d9586fe6a598e58ea,22,Kobieta,2022-06-04_08h09.42.927,task,2021.1.4,MacIntel,64.1025641,628b806c463b948bc644b84f,629af719975b6f3d3e34ed89,,,,,,,,,,,,,,,,,,,,,,,,,,,,,,,,,,,,,,,,,,,,,,,,,,,,,,,,,,,,,,,,,,,,,,,,,,,,,,,,,,,,,,,,,,,,,,,,,,,,,,,
,,"[""period""]",0,[1.355000000000004],14,0,14,0,1,5ee23a0d9586fe6a598e58ea,22,Kobieta,2022-06-04_08h09.42.927,task,2021.1.4,MacIntel,64.1025641,628b806c463b948bc644b84f,629af719975b6f3d3e34ed89,,,,,,,,,,,,,,,,,,,,,,,,,,,,,,,,,,,,,,,,,,,,,,,,,,,,,,,,,,,,,,,,,,,,,,,,,,,,,,,,,,,,,,,,,,,,,,,,,,,,,,,
,,,0,,15,0,15,0,1,5ee23a0d9586fe6a598e58ea,22,Kobieta,2022-06-04_08h09.42.927,task,2021.1.4,MacIntel,64.1025641,628b806c463b948bc644b84f,629af719975b6f3d3e34ed89,,,,,,,,,,,,,,,,,,,,,,,,,,,,,,,,,,,,,,,,,,,,,,,,,,,,,,,,,,,,,,,,,,,,,,,,,,,,,,,,,,,,,,,,,,,,,,,,,,,,,,,
,,"[""comma"",""period""]",0,"[0.02400000000000091,1.1380000000000052]",16,0,16,0,1,5ee23a0d9586fe6a598e58ea,22,Kobieta,2022-06-04_08h09.42.927,task,2021.1.4,MacIntel,64.1025641,628b806c463b948bc644b84f,629af719975b6f3d3e34ed89,,,,,,,,,,,,,,,,,,,,,,,,,,,,,,,,,,,,,,,,,,,,,,,,,,,,,,,,,,,,,,,,,,,,,,,,,,,,,,,,,,,,,,,,,,,,,,,,,,,,,,,
,,,0,,17,0,17,0,1,5ee23a0d9586fe6a598e58ea,22,Kobieta,2022-06-04_08h09.42.927,task,2021.1.4,MacIntel,64.1025641,628b806c463b948bc644b84f,629af719975b6f3d3e34ed89,,,,,,,,,,,,,,,,,,,,,,,,,,,,,,,,,,,,,,,,,,,,,,,,,,,,,,,,,,,,,,,,,,,,,,,,,,,,,,,,,,,,,,,,,,,,,,,,,,,,,,,
,,"[""comma"",""comma""]",0,"[0.2710000000000008,0.9369999999999976]",18,0,18,0,1,5ee23a0d9586fe6a598e58ea,22,Kobieta,2022-06-04_08h09.42.927,task,2021.1.4,MacIntel,64.1025641,628b806c463b948bc644b84f,629af719975b6f3d3e34ed89,,,,,,,,,,,,,,,,,,,,,,,,,,,,,,,,,,,,,,,,,,,,,,,,,,,,,,,,,,,,,,,,,,,,,,,,,,,,,,,,,,,,,,,,,,,,,,,,,,,,,,,
,,"[""period""]",0,[1.5060000000000002],19,0,19,0,1,5ee23a0d9586fe6a598e58ea,22,Kobieta,2022-06-04_08h09.42.927,task,2021.1.4,MacIntel,64.1025641,628b806c463b948bc644b84f,629af719975b6f3d3e34ed89,,,,,,,,,,,,,,,,,,,,,,,,,,,,,,,,,,,,,,,,,,,,,,,,,,,,,,,,,,,,,,,,,,,,,,,,,,,,,,,,,,,,,,,,,,,,,,,,,,,,,,,
,,"[""period""]",0,[0.9719999999999942],20,0,20,0,1,5ee23a0d9586fe6a598e58ea,22,Kobieta,2022-06-04_08h09.42.927,task,2021.1.4,MacIntel,64.1025641,628b806c463b948bc644b84f,629af719975b6f3d3e34ed89,,,,,,,,,,,,,,,,,,,,,,,,,,,,,,,,,,,,,,,,,,,,,,,,,,,,,,,,,,,,,,,,,,,,,,,,,,,,,,,,,,,,,,,,,,,,,,,,,,,,,,,
,,"[""period""]",0,[1.1700000000000017],21,0,21,0,1,5ee23a0d9586fe6a598e58ea,22,Kobieta,2022-06-04_08h09.42.927,task,2021.1.4,MacIntel,64.1025641,628b806c463b948bc644b84f,629af719975b6f3d3e34ed89,,,,,,,,,,,,,,,,,,,,,,,,,,,,,,,,,,,,,,,,,,,,,,,,,,,,,,,,,,,,,,,,,,,,,,,,,,,,,,,,,,,,,,,,,,,,,,,,,,,,,,,
,,,0,,22,0,22,0,1,5ee23a0d9586fe6a598e58ea,22,Kobieta,2022-06-04_08h09.42.927,task,2021.1.4,MacIntel,64.1025641,628b806c463b948bc644b84f,629af719975b6f3d3e34ed89,,,,,,,,,,,,,,,,,,,,,,,,,,,,,,,,,,,,,,,,,,,,,,,,,,,,,,,,,,,,,,,,,,,,,,,,,,,,,,,,,,,,,,,,,,,,,,,,,,,,,,,
,,"[""comma""]",0,[0.35599999999999454],23,0,23,0,1,5ee23a0d9586fe6a598e58ea,22,Kobieta,2022-06-04_08h09.42.927,task,2021.1.4,MacIntel,64.1025641,628b806c463b948bc644b84f,629af719975b6f3d3e34ed89,,,,,,,,,,,,,,,,,,,,,,,,,,,,,,,,,,,,,,,,,,,,,,,,,,,,,,,,,,,,,,,,,,,,,,,,,,,,,,,,,,,,,,,,,,,,,,,,,,,,,,,
,,"[""period""]",0,[0.5739999999999981],24,0,24,0,1,5ee23a0d9586fe6a598e58ea,22,Kobieta,2022-06-04_08h09.42.927,task,2021.1.4,MacIntel,64.1025641,628b806c463b948bc644b84f,629af719975b6f3d3e34ed89,,,,,,,,,,,,,,,,,,,,,,,,,,,,,,,,,,,,,,,,,,,,,,,,,,,,,,,,,,,,,,,,,,,,,,,,,,,,,,,,,,,,,,,,,,,,,,,,,,,,,,,
,,"[""comma""]",0,[0.6620000000000061],25,0,25,0,1,5ee23a0d9586fe6a598e58ea,22,Kobieta,2022-06-04_08h09.42.927,task,2021.1.4,MacIntel,64.1025641,628b806c463b948bc644b84f,629af719975b6f3d3e34ed89,,,,,,,,,,,,,,,,,,,,,,,,,,,,,,,,,,,,,,,,,,,,,,,,,,,,,,,,,,,,,,,,,,,,,,,,,,,,,,,,,,,,,,,,,,,,,,,,,,,,,,,
,,"[""comma""]",0,[0.28700000000000614],26,0,26,0,1,5ee23a0d9586fe6a598e58ea,22,Kobieta,2022-06-04_08h09.42.927,task,2021.1.4,MacIntel,64.1025641,628b806c463b948bc644b84f,629af719975b6f3d3e34ed89,,,,,,,,,,,,,,,,,,,,,,,,,,,,,,,,,,,,,,,,,,,,,,,,,,,,,,,,,,,,,,,,,,,,,,,,,,,,,,,,,,,,,,,,,,,,,,,,,,,,,,,
,,"[""period""]",0,[0.5550000000000068],27,0,27,0,1,5ee23a0d9586fe6a598e58ea,22,Kobieta,2022-06-04_08h09.42.927,task,2021.1.4,MacIntel,64.1025641,628b806c463b948bc644b84f,629af719975b6f3d3e34ed89,,,,,,,,,,,,,,,,,,,,,,,,,,,,,,,,,,,,,,,,,,,,,,,,,,,,,,,,,,,,,,,,,,,,,,,,,,,,,,,,,,,,,,,,,,,,,,,,,,,,,,,
,,"[""comma""]",0,[0.9220000000000113],28,0,28,0,1,5ee23a0d9586fe6a598e58ea,22,Kobieta,2022-06-04_08h09.42.927,task,2021.1.4,MacIntel,64.1025641,628b806c463b948bc644b84f,629af719975b6f3d3e34ed89,,,,,,,,,,,,,,,,,,,,,,,,,,,,,,,,,,,,,,,,,,,,,,,,,,,,,,,,,,,,,,,,,,,,,,,,,,,,,,,,,,,,,,,,,,,,,,,,,,,,,,,
,,"[""period""]",0,[0.3580000000000041],29,0,29,0,1,5ee23a0d9586fe6a598e58ea,22,Kobieta,2022-06-04_08h09.42.927,task,2021.1.4,MacIntel,64.1025641,628b806c463b948bc644b84f,629af719975b6f3d3e34ed89,,,,,,,,,,,,,,,,,,,,,,,,,,,,,,,,,,,,,,,,,,,,,,,,,,,,,,,,,,,,,,,,,,,,,,,,,,,,,,,,,,,,,,,,,,,,,,,,,,,,,,,
,,"[""period""]",0,[0.03799999999998249],30,0,30,0,1,5ee23a0d9586fe6a598e58ea,22,Kobieta,2022-06-04_08h09.42.927,task,2021.1.4,MacIntel,64.1025641,628b806c463b948bc644b84f,629af719975b6f3d3e34ed89,,,,,,,,,,,,,,,,,,,,,,,,,,,,,,,,,,,,,,,,,,,,,,,,,,,,,,,,,,,,,,,,,,,,,,,,,,,,,,,,,,,,,,,,,,,,,,,,,,,,,,,
,,"[""period""]",0,[0.03799999999998249],31,0,31,0,1,5ee23a0d9586fe6a598e58ea,22,Kobieta,2022-06-04_08h09.42.927,task,2021.1.4,MacIntel,64.1025641,628b806c463b948bc644b84f,629af719975b6f3d3e34ed89,,,,,,,,,,,,,,,,,,,,,,,,,,,,,,,,,,,,,,,,,,,,,,,,,,,,,,,,,,,,,,,,,,,,,,,,,,,,,,,,,,,,,,,,,,,,,,,,,,,,,,,
,,"[""comma""]",0,[0.367999999999995],32,0,32,0,1,5ee23a0d9586fe6a598e58ea,22,Kobieta,2022-06-04_08h09.42.927,task,2021.1.4,MacIntel,64.1025641,628b806c463b948bc644b84f,629af719975b6f3d3e34ed89,,,,,,,,,,,,,,,,,,,,,,,,,,,,,,,,,,,,,,,,,,,,,,,,,,,,,,,,,,,,,,,,,,,,,,,,,,,,,,,,,,,,,,,,,,,,,,,,,,,,,,,
,,"[""period""]",0,[0.5340000000000202],33,0,33,0,1,5ee23a0d9586fe6a598e58ea,22,Kobieta,2022-06-04_08h09.42.927,task,2021.1.4,MacIntel,64.1025641,628b806c463b948bc644b84f,629af719975b6f3d3e34ed89,,,,,,,,,,,,,,,,,,,,,,,,,,,,,,,,,,,,,,,,,,,,,,,,,,,,,,,,,,,,,,,,,,,,,,,,,,,,,,,,,,,,,,,,,,,,,,,,,,,,,,,
,,"[""comma""]",0,[0.7700000000000102],34,0,34,0,1,5ee23a0d9586fe6a598e58ea,22,Kobieta,2022-06-04_08h09.42.927,task,2021.1.4,MacIntel,64.1025641,628b806c463b948bc644b84f,629af719975b6f3d3e34ed89,,,,,,,,,,,,,,,,,,,,,,,,,,,,,,,,,,,,,,,,,,,,,,,,,,,,,,,,,,,,,,,,,,,,,,,,,,,,,,,,,,,,,,,,,,,,,,,,,,,,,,,
,,"[""period""]",0,[0.46999999999999886],35,0,35,0,1,5ee23a0d9586fe6a598e58ea,22,Kobieta,2022-06-04_08h09.42.927,task,2021.1.4,MacIntel,64.1025641,628b806c463b948bc644b84f,629af719975b6f3d3e34ed89,,,,,,,,,,,,,,,,,,,,,,,,,,,,,,,,,,,,,,,,,,,,,,,,,,,,,,,,,,,,,,,,,,,,,,,,,,,,,,,,,,,,,,,,,,,,,,,,,,,,,,,
,,"[""comma""]",0,[0.35200000000000387],36,0,36,0,1,5ee23a0d9586fe6a598e58ea,22,Kobieta,2022-06-04_08h09.42.927,task,2021.1.4,MacIntel,64.1025641,628b806c463b948bc644b84f,629af719975b6f3d3e34ed89,,,,,,,,,,,,,,,,,,,,,,,,,,,,,,,,,,,,,,,,,,,,,,,,,,,,,,,,,,,,,,,,,,,,,,,,,,,,,,,,,,,,,,,,,,,,,,,,,,,,,,,
,,"[""period""]",0,[0.3089999999999975],37,0,37,0,1,5ee23a0d9586fe6a598e58ea,22,Kobieta,2022-06-04_08h09.42.927,task,2021.1.4,MacIntel,64.1025641,628b806c463b948bc644b84f,629af719975b6f3d3e34ed89,,,,,,,,,,,,,,,,,,,,,,,,,,,,,,,,,,,,,,,,,,,,,,,,,,,,,,,,,,,,,,,,,,,,,,,,,,,,,,,,,,,,,,,,,,,,,,,,,,,,,,,
,,"[""period""]",0,[0.37300000000001887],38,0,38,0,1,5ee23a0d9586fe6a598e58ea,22,Kobieta,2022-06-04_08h09.42.927,task,2021.1.4,MacIntel,64.1025641,628b806c463b948bc644b84f,629af719975b6f3d3e34ed89,,,,,,,,,,,,,,,,,,,,,,,,,,,,,,,,,,,,,,,,,,,,,,,,,,,,,,,,,,,,,,,,,,,,,,,,,,,,,,,,,,,,,,,,,,,,,,,,,,,,,,,
,,"[""comma""]",0,[0.3210000000000264],39,0,39,0,1,5ee23a0d9586fe6a598e58ea,22,Kobieta,2022-06-04_08h09.42.927,task,2021.1.4,MacIntel,64.1025641,628b806c463b948bc644b84f,629af719975b6f3d3e34ed89,,,,,,,,,,,,,,,,,,,,,,,,,,,,,,,,,,,,,,,,,,,,,,,,,,,,,,,,,,,,,,,,,,,,,,,,,,,,,,,,,,,,,,,,,,,,,,,,,,,,,,,
,,"[""period""]",0,[0.24200000000001864],40,0,40,0,1,5ee23a0d9586fe6a598e58ea,22,Kobieta,2022-06-04_08h09.42.927,task,2021.1.4,MacIntel,64.1025641,628b806c463b948bc644b84f,629af719975b6f3d3e34ed89,,,,,,,,,,,,,,,,,,,,,,,,,,,,,,,,,,,,,,,,,,,,,,,,,,,,,,,,,,,,,,,,,,,,,,,,,,,,,,,,,,,,,,,,,,,,,,,,,,,,,,,
,,"[""comma""]",0,[0.3710000000000093],41,0,41,0,1,5ee23a0d9586fe6a598e58ea,22,Kobieta,2022-06-04_08h09.42.927,task,2021.1.4,MacIntel,64.1025641,628b806c463b948bc644b84f,629af719975b6f3d3e34ed89,,,,,,,,,,,,,,,,,,,,,,,,,,,,,,,,,,,,,,,,,,,,,,,,,,,,,,,,,,,,,,,,,,,,,,,,,,,,,,,,,,,,,,,,,,,,,,,,,,,,,,,
,,"[""comma""]",0,[0.271000000000015],42,0,42,0,1,5ee23a0d9586fe6a598e58ea,22,Kobieta,2022-06-04_08h09.42.927,task,2021.1.4,MacIntel,64.1025641,628b806c463b948bc644b84f,629af719975b6f3d3e34ed89,,,,,,,,,,,,,,,,,,,,,,,,,,,,,,,,,,,,,,,,,,,,,,,,,,,,,,,,,,,,,,,,,,,,,,,,,,,,,,,,,,,,,,,,,,,,,,,,,,,,,,,
,,"[""comma""]",0,[0.31800000000001205],43,0,43,0,1,5ee23a0d9586fe6a598e58ea,22,Kobieta,2022-06-04_08h09.42.927,task,2021.1.4,MacIntel,64.1025641,628b806c463b948bc644b84f,629af719975b6f3d3e34ed89,,,,,,,,,,,,,,,,,,,,,,,,,,,,,,,,,,,,,,,,,,,,,,,,,,,,,,,,,,,,,,,,,,,,,,,,,,,,,,,,,,,,,,,,,,,,,,,,,,,,,,,
,,"[""comma""]",0,[0.25499999999999545],44,0,44,0,1,5ee23a0d9586fe6a598e58ea,22,Kobieta,2022-06-04_08h09.42.927,task,2021.1.4,MacIntel,64.1025641,628b806c463b948bc644b84f,629af719975b6f3d3e34ed89,,,,,,,,,,,,,,,,,,,,,,,,,,,,,,,,,,,,,,,,,,,,,,,,,,,,,,,,,,,,,,,,,,,,,,,,,,,,,,,,,,,,,,,,,,,,,,,,,,,,,,,
,,"[""period""]",0,[0.3580000000000041],45,0,45,0,1,5ee23a0d9586fe6a598e58ea,22,Kobieta,2022-06-04_08h09.42.927,task,2021.1.4,MacIntel,64.1025641,628b806c463b948bc644b84f,629af719975b6f3d3e34ed89,,,,,,,,,,,,,,,,,,,,,,,,,,,,,,,,,,,,,,,,,,,,,,,,,,,,,,,,,,,,,,,,,,,,,,,,,,,,,,,,,,,,,,,,,,,,,,,,,,,,,,,
,,"[""period""]",0,[0.4860000000000184],46,0,46,0,1,5ee23a0d9586fe6a598e58ea,22,Kobieta,2022-06-04_08h09.42.927,task,2021.1.4,MacIntel,64.1025641,628b806c463b948bc644b84f,629af719975b6f3d3e34ed89,,,,,,,,,,,,,,,,,,,,,,,,,,,,,,,,,,,,,,,,,,,,,,,,,,,,,,,,,,,,,,,,,,,,,,,,,,,,,,,,,,,,,,,,,,,,,,,,,,,,,,,
,,"[""comma""]",0,[0.3160000000000025],47,0,47,0,1,5ee23a0d9586fe6a598e58ea,22,Kobieta,2022-06-04_08h09.42.927,task,2021.1.4,MacIntel,64.1025641,628b806c463b948bc644b84f,629af719975b6f3d3e34ed89,,,,,,,,,,,,,,,,,,,,,,,,,,,,,,,,,,,,,,,,,,,,,,,,,,,,,,,,,,,,,,,,,,,,,,,,,,,,,,,,,,,,,,,,,,,,,,,,,,,,,,,
,,"[""period""]",0,[0.32200000000000273],48,0,48,0,1,5ee23a0d9586fe6a598e58ea,22,Kobieta,2022-06-04_08h09.42.927,task,2021.1.4,MacIntel,64.1025641,628b806c463b948bc644b84f,629af719975b6f3d3e34ed89,,,,,,,,,,,,,,,,,,,,,,,,,,,,,,,,,,,,,,,,,,,,,,,,,,,,,,,,,,,,,,,,,,,,,,,,,,,,,,,,,,,,,,,,,,,,,,,,,,,,,,,
,,"[""period""]",0,[0.22499999999999432],49,0,49,0,1,5ee23a0d9586fe6a598e58ea,22,Kobieta,2022-06-04_08h09.42.927,task,2021.1.4,MacIntel,64.1025641,628b806c463b948bc644b84f,629af719975b6f3d3e34ed89,,,,,,,,,,,,,,,,,,,,,,,,,,,,,,,,,,,,,,,,,,,,,,,,,,,,,,,,,,,,,,,,,,,,,,,,,,,,,,,,,,,,,,,,,,,,,,,,,,,,,,,
,,"[""period""]",0,[0.3329999999999984],50,0,50,0,1,5ee23a0d9586fe6a598e58ea,22,Kobieta,2022-06-04_08h09.42.927,task,2021.1.4,MacIntel,64.1025641,628b806c463b948bc644b84f,629af719975b6f3d3e34ed89,,,,,,,,,,,,,,,,,,,,,,,,,,,,,,,,,,,,,,,,,,,,,,,,,,,,,,,,,,,,,,,,,,,,,,,,,,,,,,,,,,,,,,,,,,,,,,,,,,,,,,,
,,"[""comma"",""period""]",0,"[0.2909999999999968,1.8379999999999939]",51,0,51,0,1,5ee23a0d9586fe6a598e58ea,22,Kobieta,2022-06-04_08h09.42.927,task,2021.1.4,MacIntel,64.1025641,628b806c463b948bc644b84f,629af719975b6f3d3e34ed89,,,,,,,,,,,,,,,,,,,,,,,,,,,,,,,,,,,,,,,,,,,,,,,,,,,,,,,,,,,,,,,,,,,,,,,,,,,,,,,,,,,,,,,,,,,,,,,,,,,,,,,
,,,0,,52,0,52,0,1,5ee23a0d9586fe6a598e58ea,22,Kobieta,2022-06-04_08h09.42.927,task,2021.1.4,MacIntel,64.1025641,628b806c463b948bc644b84f,629af719975b6f3d3e34ed89,,,,,,,,,,,,,,,,,,,,,,,,,,,,,,,,,,,,,,,,,,,,,,,,,,,,,,,,,,,,,,,,,,,,,,,,,,,,,,,,,,,,,,,,,,,,,,,,,,,,,,,
,,"[""comma""]",0,[0.07600000000002183],53,0,53,0,1,5ee23a0d9586fe6a598e58ea,22,Kobieta,2022-06-04_08h09.42.927,task,2021.1.4,MacIntel,64.1025641,628b806c463b948bc644b84f,629af719975b6f3d3e34ed89,,,,,,,,,,,,,,,,,,,,,,,,,,,,,,,,,,,,,,,,,,,,,,,,,,,,,,,,,,,,,,,,,,,,,,,,,,,,,,,,,,,,,,,,,,,,,,,,,,,,,,,
,,"[""period""]",0,[0.20599999999998886],54,0,54,0,1,5ee23a0d9586fe6a598e58ea,22,Kobieta,2022-06-04_08h09.42.927,task,2021.1.4,MacIntel,64.1025641,628b806c463b948bc644b84f,629af719975b6f3d3e34ed89,,,,,,,,,,,,,,,,,,,,,,,,,,,,,,,,,,,,,,,,,,,,,,,,,,,,,,,,,,,,,,,,,,,,,,,,,,,,,,,,,,,,,,,,,,,,,,,,,,,,,,,
,,"[""comma""]",0,[0.2600000000000193],55,0,55,0,1,5ee23a0d9586fe6a598e58ea,22,Kobieta,2022-06-04_08h09.42.927,task,2021.1.4,MacIntel,64.1025641,628b806c463b948bc644b84f,629af719975b6f3d3e34ed89,,,,,,,,,,,,,,,,,,,,,,,,,,,,,,,,,,,,,,,,,,,,,,,,,,,,,,,,,,,,,,,,,,,,,,,,,,,,,,,,,,,,,,,,,,,,,,,,,,,,,,,
,,"[""comma""]",0,[0.18700000000001182],56,0,56,0,1,5ee23a0d9586fe6a598e58ea,22,Kobieta,2022-06-04_08h09.42.927,task,2021.1.4,MacIntel,64.1025641,628b806c463b948bc644b84f,629af719975b6f3d3e34ed89,,,,,,,,,,,,,,,,,,,,,,,,,,,,,,,,,,,,,,,,,,,,,,,,,,,,,,,,,,,,,,,,,,,,,,,,,,,,,,,,,,,,,,,,,,,,,,,,,,,,,,,
,,"[""period""]",0,[0.5190000000000055],57,0,57,0,1,5ee23a0d9586fe6a598e58ea,22,Kobieta,2022-06-04_08h09.42.927,task,2021.1.4,MacIntel,64.1025641,628b806c463b948bc644b84f,629af719975b6f3d3e34ed89,,,,,,,,,,,,,,,,,,,,,,,,,,,,,,,,,,,,,,,,,,,,,,,,,,,,,,,,,,,,,,,,,,,,,,,,,,,,,,,,,,,,,,,,,,,,,,,,,,,,,,,
,,"[""period""]",0,[0.7669999999999959],58,0,58,0,1,5ee23a0d9586fe6a598e58ea,22,Kobieta,2022-06-04_08h09.42.927,task,2021.1.4,MacIntel,64.1025641,628b806c463b948bc644b84f,629af719975b6f3d3e34ed89,,,,,,,,,,,,,,,,,,,,,,,,,,,,,,,,,,,,,,,,,,,,,,,,,,,,,,,,,,,,,,,,,,,,,,,,,,,,,,,,,,,,,,,,,,,,,,,,,,,,,,,
,,"[""period""]",0,[0.3410000000000082],59,0,59,0,1,5ee23a0d9586fe6a598e58ea,22,Kobieta,2022-06-04_08h09.42.927,task,2021.1.4,MacIntel,64.1025641,628b806c463b948bc644b84f,629af719975b6f3d3e34ed89,,,,,,,,,,,,,,,,,,,,,,,,,,,,,,,,,,,,,,,,,,,,,,,,,,,,,,,,,,,,,,,,,,,,,,,,,,,,,,,,,,,,,,,,,,,,,,,,,,,,,,,
,,"[""comma""]",0,[0.3050000000000068],60,0,60,0,1,5ee23a0d9586fe6a598e58ea,22,Kobieta,2022-06-04_08h09.42.927,task,2021.1.4,MacIntel,64.1025641,628b806c463b948bc644b84f,629af719975b6f3d3e34ed89,,,,,,,,,,,,,,,,,,,,,,,,,,,,,,,,,,,,,,,,,,,,,,,,,,,,,,,,,,,,,,,,,,,,,,,,,,,,,,,,,,,,,,,,,,,,,,,,,,,,,,,
,,"[""period""]",0,[0.28899999999998727],61,0,61,0,1,5ee23a0d9586fe6a598e58ea,22,Kobieta,2022-06-04_08h09.42.927,task,2021.1.4,MacIntel,64.1025641,628b806c463b948bc644b84f,629af719975b6f3d3e34ed89,,,,,,,,,,,,,,,,,,,,,,,,,,,,,,,,,,,,,,,,,,,,,,,,,,,,,,,,,,,,,,,,,,,,,,,,,,,,,,,,,,,,,,,,,,,,,,,,,,,,,,,
,,"[""comma"",""comma""]",0,"[0.20400000000000773,1.6740000000000066]",62,0,62,0,1,5ee23a0d9586fe6a598e58ea,22,Kobieta,2022-06-04_08h09.42.927,task,2021.1.4,MacIntel,64.1025641,628b806c463b948bc644b84f,629af719975b6f3d3e34ed89,,,,,,,,,,,,,,,,,,,,,,,,,,,,,,,,,,,,,,,,,,,,,,,,,,,,,,,,,,,,,,,,,,,,,,,,,,,,,,,,,,,,,,,,,,,,,,,,,,,,,,,
,,"[""period""]",0,[1.3049999999999784],63,0,63,0,1,5ee23a0d9586fe6a598e58ea,22,Kobieta,2022-06-04_08h09.42.927,task,2021.1.4,MacIntel,64.1025641,628b806c463b948bc644b84f,629af719975b6f3d3e34ed89,,,,,,,,,,,,,,,,,,,,,,,,,,,,,,,,,,,,,,,,,,,,,,,,,,,,,,,,,,,,,,,,,,,,,,,,,,,,,,,,,,,,,,,,,,,,,,,,,,,,,,,
,,"[""period""]",0,[1.5900000000000034],64,0,64,0,1,5ee23a0d9586fe6a598e58ea,22,Kobieta,2022-06-04_08h09.42.927,task,2021.1.4,MacIntel,64.1025641,628b806c463b948bc644b84f,629af719975b6f3d3e34ed89,,,,,,,,,,,,,,,,,,,,,,,,,,,,,,,,,,,,,,,,,,,,,,,,,,,,,,,,,,,,,,,,,,,,,,,,,,,,,,,,,,,,,,,,,,,,,,,,,,,,,,,
,,"[""period""]",0,[1.2879999999999825],65,0,65,0,1,5ee23a0d9586fe6a598e58ea,22,Kobieta,2022-06-04_08h09.42.927,task,2021.1.4,MacIntel,64.1025641,628b806c463b948bc644b84f,629af719975b6f3d3e34ed89,,,,,,,,,,,,,,,,,,,,,,,,,,,,,,,,,,,,,,,,,,,,,,,,,,,,,,,,,,,,,,,,,,,,,,,,,,,,,,,,,,,,,,,,,,,,,,,,,,,,,,,
,,"[""period""]",0,[1.0550000000000068],66,0,66,0,1,5ee23a0d9586fe6a598e58ea,22,Kobieta,2022-06-04_08h09.42.927,task,2021.1.4,MacIntel,64.1025641,628b806c463b948bc644b84f,629af719975b6f3d3e34ed89,,,,,,,,,,,,,,,,,,,,,,,,,,,,,,,,,,,,,,,,,,,,,,,,,,,,,,,,,,,,,,,,,,,,,,,,,,,,,,,,,,,,,,,,,,,,,,,,,,,,,,,
,,"[""comma""]",0,[0.6569999999999823],67,0,67,0,1,5ee23a0d9586fe6a598e58ea,22,Kobieta,2022-06-04_08h09.42.927,task,2021.1.4,MacIntel,64.1025641,628b806c463b948bc644b84f,629af719975b6f3d3e34ed89,,,,,,,,,,,,,,,,,,,,,,,,,,,,,,,,,,,,,,,,,,,,,,,,,,,,,,,,,,,,,,,,,,,,,,,,,,,,,,,,,,,,,,,,,,,,,,,,,,,,,,,
,,,0,,68,0,68,0,1,5ee23a0d9586fe6a598e58ea,22,Kobieta,2022-06-04_08h09.42.927,task,2021.1.4,MacIntel,64.1025641,628b806c463b948bc644b84f,629af719975b6f3d3e34ed89,,,,,,,,,,,,,,,,,,,,,,,,,,,,,,,,,,,,,,,,,,,,,,,,,,,,,,,,,,,,,,,,,,,,,,,,,,,,,,,,,,,,,,,,,,,,,,,,,,,,,,,
,,"[""comma""]",0,[0.1910000000000025],69,0,69,0,1,5ee23a0d9586fe6a598e58ea,22,Kobieta,2022-06-04_08h09.42.927,task,2021.1.4,MacIntel,64.1025641,628b806c463b948bc644b84f,629af719975b6f3d3e34ed89,,,,,,,,,,,,,,,,,,,,,,,,,,,,,,,,,,,,,,,,,,,,,,,,,,,,,,,,,,,,,,,,,,,,,,,,,,,,,,,,,,,,,,,,,,,,,,,,,,,,,,,
,,"[""period""]",0,[0.40500000000000114],70,0,70,0,1,5ee23a0d9586fe6a598e58ea,22,Kobieta,2022-06-04_08h09.42.927,task,2021.1.4,MacIntel,64.1025641,628b806c463b948bc644b84f,629af719975b6f3d3e34ed89,,,,,,,,,,,,,,,,,,,,,,,,,,,,,,,,,,,,,,,,,,,,,,,,,,,,,,,,,,,,,,,,,,,,,,,,,,,,,,,,,,,,,,,,,,,,,,,,,,,,,,,
,,"[""comma""]",0,[0.5049999999999955],71,0,71,0,1,5ee23a0d9586fe6a598e58ea,22,Kobieta,2022-06-04_08h09.42.927,task,2021.1.4,MacIntel,64.1025641,628b806c463b948bc644b84f,629af719975b6f3d3e34ed89,,,,,,,,,,,,,,,,,,,,,,,,,,,,,,,,,,,,,,,,,,,,,,,,,,,,,,,,,,,,,,,,,,,,,,,,,,,,,,,,,,,,,,,,,,,,,,,,,,,,,,,
,,"[""period""]",0,[0.5720000000000027],72,0,72,0,1,5ee23a0d9586fe6a598e58ea,22,Kobieta,2022-06-04_08h09.42.927,task,2021.1.4,MacIntel,64.1025641,628b806c463b948bc644b84f,629af719975b6f3d3e34ed89,,,,,,,,,,,,,,,,,,,,,,,,,,,,,,,,,,,,,,,,,,,,,,,,,,,,,,,,,,,,,,,,,,,,,,,,,,,,,,,,,,,,,,,,,,,,,,,,,,,,,,,
,,"[""comma""]",0,[0.6389999999999816],73,0,73,0,1,5ee23a0d9586fe6a598e58ea,22,Kobieta,2022-06-04_08h09.42.927,task,2021.1.4,MacIntel,64.1025641,628b806c463b948bc644b84f,629af719975b6f3d3e34ed89,,,,,,,,,,,,,,,,,,,,,,,,,,,,,,,,,,,,,,,,,,,,,,,,,,,,,,,,,,,,,,,,,,,,,,,,,,,,,,,,,,,,,,,,,,,,,,,,,,,,,,,
,,"[""period""]",0,[0.42199999999999704],74,0,74,0,1,5ee23a0d9586fe6a598e58ea,22,Kobieta,2022-06-04_08h09.42.927,task,2021.1.4,MacIntel,64.1025641,628b806c463b948bc644b84f,629af719975b6f3d3e34ed89,,,,,,,,,,,,,,,,,,,,,,,,,,,,,,,,,,,,,,,,,,,,,,,,,,,,,,,,,,,,,,,,,,,,,,,,,,,,,,,,,,,,,,,,,,,,,,,,,,,,,,,
,,"[""period""]",0,[0.6550000000000011],75,0,75,0,1,5ee23a0d9586fe6a598e58ea,22,Kobieta,2022-06-04_08h09.42.927,task,2021.1.4,MacIntel,64.1025641,628b806c463b948bc644b84f,629af719975b6f3d3e34ed89,,,,,,,,,,,,,,,,,,,,,,,,,,,,,,,,,,,,,,,,,,,,,,,,,,,,,,,,,,,,,,,,,,,,,,,,,,,,,,,,,,,,,,,,,,,,,,,,,,,,,,,
,,"[""comma""]",0,[0.5039999999999907],76,0,76,0,1,5ee23a0d9586fe6a598e58ea,22,Kobieta,2022-06-04_08h09.42.927,task,2021.1.4,MacIntel,64.1025641,628b806c463b948bc644b84f,629af719975b6f3d3e34ed89,,,,,,,,,,,,,,,,,,,,,,,,,,,,,,,,,,,,,,,,,,,,,,,,,,,,,,,,,,,,,,,,,,,,,,,,,,,,,,,,,,,,,,,,,,,,,,,,,,,,,,,
,,"[""period"",""comma""]",0,"[0.27599999999998204,1.8019999999999925]",77,0,77,0,1,5ee23a0d9586fe6a598e58ea,22,Kobieta,2022-06-04_08h09.42.927,task,2021.1.4,MacIntel,64.1025641,628b806c463b948bc644b84f,629af719975b6f3d3e34ed89,,,,,,,,,,,,,,,,,,,,,,,,,,,,,,,,,,,,,,,,,,,,,,,,,,,,,,,,,,,,,,,,,,,,,,,,,,,,,,,,,,,,,,,,,,,,,,,,,,,,,,,
,,"[""comma""]",0,[1.254000000000019],78,0,78,0,1,5ee23a0d9586fe6a598e58ea,22,Kobieta,2022-06-04_08h09.42.927,task,2021.1.4,MacIntel,64.1025641,628b806c463b948bc644b84f,629af719975b6f3d3e34ed89,,,,,,,,,,,,,,,,,,,,,,,,,,,,,,,,,,,,,,,,,,,,,,,,,,,,,,,,,,,,,,,,,,,,,,,,,,,,,,,,,,,,,,,,,,,,,,,,,,,,,,,
,,"[""period""]",0,[0.9710000000000036],79,0,79,0,1,5ee23a0d9586fe6a598e58ea,22,Kobieta,2022-06-04_08h09.42.927,task,2021.1.4,MacIntel,64.1025641,628b806c463b948bc644b84f,629af719975b6f3d3e34ed89,,,,,,,,,,,,,,,,,,,,,,,,,,,,,,,,,,,,,,,,,,,,,,,,,,,,,,,,,,,,,,,,,,,,,,,,,,,,,,,,,,,,,,,,,,,,,,,,,,,,,,,
,,"[""comma""]",0,[0.6570000000000107],80,0,80,0,1,5ee23a0d9586fe6a598e58ea,22,Kobieta,2022-06-04_08h09.42.927,task,2021.1.4,MacIntel,64.1025641,628b806c463b948bc644b84f,629af719975b6f3d3e34ed89,,,,,,,,,,,,,,,,,,,,,,,,,,,,,,,,,,,,,,,,,,,,,,,,,,,,,,,,,,,,,,,,,,,,,,,,,,,,,,,,,,,,,,,,,,,,,,,,,,,,,,,
,,"[""comma"",""period""]",0,"[0.30800000000002115,1.4510000000000218]",81,0,81,0,1,5ee23a0d9586fe6a598e58ea,22,Kobieta,2022-06-04_08h09.42.927,task,2021.1.4,MacIntel,64.1025641,628b806c463b948bc644b84f,629af719975b6f3d3e34ed89,,,,,,,,,,,,,,,,,,,,,,,,,,,,,,,,,,,,,,,,,,,,,,,,,,,,,,,,,,,,,,,,,,,,,,,,,,,,,,,,,,,,,,,,,,,,,,,,,,,,,,,
,,"[""period""]",0,[0.8710000000000093],82,0,82,0,1,5ee23a0d9586fe6a598e58ea,22,Kobieta,2022-06-04_08h09.42.927,task,2021.1.4,MacIntel,64.1025641,628b806c463b948bc644b84f,629af719975b6f3d3e34ed89,,,,,,,,,,,,,,,,,,,,,,,,,,,,,,,,,,,,,,,,,,,,,,,,,,,,,,,,,,,,,,,,,,,,,,,,,,,,,,,,,,,,,,,,,,,,,,,,,,,,,,,
,,"[""period""]",0,[0.5550000000000068],83,0,83,0,1,5ee23a0d9586fe6a598e58ea,22,Kobieta,2022-06-04_08h09.42.927,task,2021.1.4,MacIntel,64.1025641,628b806c463b948bc644b84f,629af719975b6f3d3e34ed89,,,,,,,,,,,,,,,,,,,,,,,,,,,,,,,,,,,,,,,,,,,,,,,,,,,,,,,,,,,,,,,,,,,,,,,,,,,,,,,,,,,,,,,,,,,,,,,,,,,,,,,
,,"[""comma""]",0,[0.08599999999998431],84,0,84,0,1,5ee23a0d9586fe6a598e58ea,22,Kobieta,2022-06-04_08h09.42.927,task,2021.1.4,MacIntel,64.1025641,628b806c463b948bc644b84f,629af719975b6f3d3e34ed89,,,,,,,,,,,,,,,,,,,,,,,,,,,,,,,,,,,,,,,,,,,,,,,,,,,,,,,,,,,,,,,,,,,,,,,,,,,,,,,,,,,,,,,,,,,,,,,,,,,,,,,
,,"[""period"",""comma""]",0,"[0.4370000000000118,1.8379999999999939]",85,0,85,0,1,5ee23a0d9586fe6a598e58ea,22,Kobieta,2022-06-04_08h09.42.927,task,2021.1.4,MacIntel,64.1025641,628b806c463b948bc644b84f,629af719975b6f3d3e34ed89,,,,,,,,,,,,,,,,,,,,,,,,,,,,,,,,,,,,,,,,,,,,,,,,,,,,,,,,,,,,,,,,,,,,,,,,,,,,,,,,,,,,,,,,,,,,,,,,,,,,,,,
,,"[""period""]",0,[1.538000000000011],86,0,86,0,1,5ee23a0d9586fe6a598e58ea,22,Kobieta,2022-06-04_08h09.42.927,task,2021.1.4,MacIntel,64.1025641,628b806c463b948bc644b84f,629af719975b6f3d3e34ed89,,,,,,,,,,,,,,,,,,,,,,,,,,,,,,,,,,,,,,,,,,,,,,,,,,,,,,,,,,,,,,,,,,,,,,,,,,,,,,,,,,,,,,,,,,,,,,,,,,,,,,,
,,"[""comma""]",0,[1.3060000000000116],87,0,87,0,1,5ee23a0d9586fe6a598e58ea,22,Kobieta,2022-06-04_08h09.42.927,task,2021.1.4,MacIntel,64.1025641,628b806c463b948bc644b84f,629af719975b6f3d3e34ed89,,,,,,,,,,,,,,,,,,,,,,,,,,,,,,,,,,,,,,,,,,,,,,,,,,,,,,,,,,,,,,,,,,,,,,,,,,,,,,,,,,,,,,,,,,,,,,,,,,,,,,,
,,"[""comma""]",0,[1.7980000000000018],88,0,88,0,1,5ee23a0d9586fe6a598e58ea,22,Kobieta,2022-06-04_08h09.42.927,task,2021.1.4,MacIntel,64.1025641,628b806c463b948bc644b84f,629af719975b6f3d3e34ed89,,,,,,,,,,,,,,,,,,,,,,,,,,,,,,,,,,,,,,,,,,,,,,,,,,,,,,,,,,,,,,,,,,,,,,,,,,,,,,,,,,,,,,,,,,,,,,,,,,,,,,,
,,"[""period""]",0,[1.2390000000000043],89,0,89,0,1,5ee23a0d9586fe6a598e58ea,22,Kobieta,2022-06-04_08h09.42.927,task,2021.1.4,MacIntel,64.1025641,628b806c463b948bc644b84f,629af719975b6f3d3e34ed89,,,,,,,,,,,,,,,,,,,,,,,,,,,,,,,,,,,,,,,,,,,,,,,,,,,,,,,,,,,,,,,,,,,,,,,,,,,,,,,,,,,,,,,,,,,,,,,,,,,,,,,
,,,0,,90,0,90,0,1,5ee23a0d9586fe6a598e58ea,22,Kobieta,2022-06-04_08h09.42.927,task,2021.1.4,MacIntel,64.1025641,628b806c463b948bc644b84f,629af719975b6f3d3e34ed89,,,,,,,,,,,,,,,,,,,,,,,,,,,,,,,,,,,,,,,,,,,,,,,,,,,,,,,,,,,,,,,,,,,,,,,,,,,,,,,,,,,,,,,,,,,,,,,,,,,,,,,
,,"[""period""]",0,[0.17500000000001137],91,0,91,0,1,5ee23a0d9586fe6a598e58ea,22,Kobieta,2022-06-04_08h09.42.927,task,2021.1.4,MacIntel,64.1025641,628b806c463b948bc644b84f,629af719975b6f3d3e34ed89,,,,,,,,,,,,,,,,,,,,,,,,,,,,,,,,,,,,,,,,,,,,,,,,,,,,,,,,,,,,,,,,,,,,,,,,,,,,,,,,,,,,,,,,,,,,,,,,,,,,,,,
,,"[""comma""]",0,[0.27299999999999613],92,0,92,0,1,5ee23a0d9586fe6a598e58ea,22,Kobieta,2022-06-04_08h09.42.927,task,2021.1.4,MacIntel,64.1025641,628b806c463b948bc644b84f,629af719975b6f3d3e34ed89,,,,,,,,,,,,,,,,,,,,,,,,,,,,,,,,,,,,,,,,,,,,,,,,,,,,,,,,,,,,,,,,,,,,,,,,,,,,,,,,,,,,,,,,,,,,,,,,,,,,,,,
,,"[""period""]",0,[0.42200000000002547],93,0,93,0,1,5ee23a0d9586fe6a598e58ea,22,Kobieta,2022-06-04_08h09.42.927,task,2021.1.4,MacIntel,64.1025641,628b806c463b948bc644b84f,629af719975b6f3d3e34ed89,,,,,,,,,,,,,,,,,,,,,,,,,,,,,,,,,,,,,,,,,,,,,,,,,,,,,,,,,,,,,,,,,,,,,,,,,,,,,,,,,,,,,,,,,,,,,,,,,,,,,,,
,,,0,,94,0,94,0,1,5ee23a0d9586fe6a598e58ea,22,Kobieta,2022-06-04_08h09.42.927,task,2021.1.4,MacIntel,64.1025641,628b806c463b948bc644b84f,629af719975b6f3d3e34ed89,,,,,,,,,,,,,,,,,,,,,,,,,,,,,,,,,,,,,,,,,,,,,,,,,,,,,,,,,,,,,,,,,,,,,,,,,,,,,,,,,,,,,,,,,,,,,,,,,,,,,,,
,,"[""comma""]",0,[0.3170000000000073],95,0,95,0,1,5ee23a0d9586fe6a598e58ea,22,Kobieta,2022-06-04_08h09.42.927,task,2021.1.4,MacIntel,64.1025641,628b806c463b948bc644b84f,629af719975b6f3d3e34ed89,,,,,,,,,,,,,,,,,,,,,,,,,,,,,,,,,,,,,,,,,,,,,,,,,,,,,,,,,,,,,,,,,,,,,,,,,,,,,,,,,,,,,,,,,,,,,,,,,,,,,,,
,,"[""period""]",0,[1.6030000000000086],96,0,96,0,1,5ee23a0d9586fe6a598e58ea,22,Kobieta,2022-06-04_08h09.42.927,task,2021.1.4,MacIntel,64.1025641,628b806c463b948bc644b84f,629af719975b6f3d3e34ed89,,,,,,,,,,,,,,,,,,,,,,,,,,,,,,,,,,,,,,,,,,,,,,,,,,,,,,,,,,,,,,,,,,,,,,,,,,,,,,,,,,,,,,,,,,,,,,,,,,,,,,,
,,,0,,97,0,97,0,1,5ee23a0d9586fe6a598e58ea,22,Kobieta,2022-06-04_08h09.42.927,task,2021.1.4,MacIntel,64.1025641,628b806c463b948bc644b84f,629af719975b6f3d3e34ed89,,,,,,,,,,,,,,,,,,,,,,,,,,,,,,,,,,,,,,,,,,,,,,,,,,,,,,,,,,,,,,,,,,,,,,,,,,,,,,,,,,,,,,,,,,,,,,,,,,,,,,,
,,"[""period""]",0,[0.2230000000000132],98,0,98,0,1,5ee23a0d9586fe6a598e58ea,22,Kobieta,2022-06-04_08h09.42.927,task,2021.1.4,MacIntel,64.1025641,628b806c463b948bc644b84f,629af719975b6f3d3e34ed89,,,,,,,,,,,,,,,,,,,,,,,,,,,,,,,,,,,,,,,,,,,,,,,,,,,,,,,,,,,,,,,,,,,,,,,,,,,,,,,,,,,,,,,,,,,,,,,,,,,,,,,
,,"[""comma""]",0,[0.29000000000002046],99,0,99,0,1,5ee23a0d9586fe6a598e58ea,22,Kobieta,2022-06-04_08h09.42.927,task,2021.1.4,MacIntel,64.1025641,628b806c463b948bc644b84f,629af719975b6f3d3e34ed89,,,,,,,,,,,,,,,,,,,,,,,,,,,,,,,,,,,,,,,,,,,,,,,,,,,,,,,,,,,,,,,,,,,,,,,,,,,,,,,,,,,,,,,,,,,,,,,,,,,,,,,
,,"[""comma""]",0,[0.3170000000000073],100,0,100,0,1,5ee23a0d9586fe6a598e58ea,22,Kobieta,2022-06-04_08h09.42.927,task,2021.1.4,MacIntel,64.1025641,628b806c463b948bc644b84f,629af719975b6f3d3e34ed89,,,,,,,,,,,,,,,,,,,,,,,,,,,,,,,,,,,,,,,,,,,,,,,,,,,,,,,,,,,,,,,,,,,,,,,,,,,,,,,,,,,,,,,,,,,,,,,,,,,,,,,
,,"[""period""]",0,[0.3039999999999736],101,0,101,0,1,5ee23a0d9586fe6a598e58ea,22,Kobieta,2022-06-04_08h09.42.927,task,2021.1.4,MacIntel,64.1025641,628b806c463b948bc644b84f,629af719975b6f3d3e34ed89,,,,,,,,,,,,,,,,,,,,,,,,,,,,,,,,,,,,,,,,,,,,,,,,,,,,,,,,,,,,,,,,,,,,,,,,,,,,,,,,,,,,,,,,,,,,,,,,,,,,,,,
,,"[""period""]",0,[0.2759999999999536],102,0,102,0,1,5ee23a0d9586fe6a598e58ea,22,Kobieta,2022-06-04_08h09.42.927,task,2021.1.4,MacIntel,64.1025641,628b806c463b948bc644b84f,629af719975b6f3d3e34ed89,,,,,,,,,,,,,,,,,,,,,,,,,,,,,,,,,,,,,,,,,,,,,,,,,,,,,,,,,,,,,,,,,,,,,,,,,,,,,,,,,,,,,,,,,,,,,,,,,,,,,,,
,,"[""period""]",0,[0.16599999999999682],103,0,103,0,1,5ee23a0d9586fe6a598e58ea,22,Kobieta,2022-06-04_08h09.42.927,task,2021.1.4,MacIntel,64.1025641,628b806c463b948bc644b84f,629af719975b6f3d3e34ed89,,,,,,,,,,,,,,,,,,,,,,,,,,,,,,,,,,,,,,,,,,,,,,,,,,,,,,,,,,,,,,,,,,,,,,,,,,,,,,,,,,,,,,,,,,,,,,,,,,,,,,,
,,"[""comma""]",0,[0.30100000000004457],104,0,104,0,1,5ee23a0d9586fe6a598e58ea,22,Kobieta,2022-06-04_08h09.42.927,task,2021.1.4,MacIntel,64.1025641,628b806c463b948bc644b84f,629af719975b6f3d3e34ed89,,,,,,,,,,,,,,,,,,,,,,,,,,,,,,,,,,,,,,,,,,,,,,,,,,,,,,,,,,,,,,,,,,,,,,,,,,,,,,,,,,,,,,,,,,,,,,,,,,,,,,,
,,"[""period""]",0,[0.257000000000005],105,0,105,0,1,5ee23a0d9586fe6a598e58ea,22,Kobieta,2022-06-04_08h09.42.927,task,2021.1.4,MacIntel,64.1025641,628b806c463b948bc644b84f,629af719975b6f3d3e34ed89,,,,,,,,,,,,,,,,,,,,,,,,,,,,,,,,,,,,,,,,,,,,,,,,,,,,,,,,,,,,,,,,,,,,,,,,,,,,,,,,,,,,,,,,,,,,,,,,,,,,,,,
,,"[""comma""]",0,[0.4049999999999727],106,0,106,0,1,5ee23a0d9586fe6a598e58ea,22,Kobieta,2022-06-04_08h09.42.927,task,2021.1.4,MacIntel,64.1025641,628b806c463b948bc644b84f,629af719975b6f3d3e34ed89,,,,,,,,,,,,,,,,,,,,,,,,,,,,,,,,,,,,,,,,,,,,,,,,,,,,,,,,,,,,,,,,,,,,,,,,,,,,,,,,,,,,,,,,,,,,,,,,,,,,,,,
,,"[""period""]",0,[0.285000000000025],107,0,107,0,1,5ee23a0d9586fe6a598e58ea,22,Kobieta,2022-06-04_08h09.42.927,task,2021.1.4,MacIntel,64.1025641,628b806c463b948bc644b84f,629af719975b6f3d3e34ed89,,,,,,,,,,,,,,,,,,,,,,,,,,,,,,,,,,,,,,,,,,,,,,,,,,,,,,,,,,,,,,,,,,,,,,,,,,,,,,,,,,,,,,,,,,,,,,,,,,,,,,,
,,"[""comma""]",0,[0.2880000000000109],108,0,108,0,1,5ee23a0d9586fe6a598e58ea,22,Kobieta,2022-06-04_08h09.42.927,task,2021.1.4,MacIntel,64.1025641,628b806c463b948bc644b84f,629af719975b6f3d3e34ed89,,,,,,,,,,,,,,,,,,,,,,,,,,,,,,,,,,,,,,,,,,,,,,,,,,,,,,,,,,,,,,,,,,,,,,,,,,,,,,,,,,,,,,,,,,,,,,,,,,,,,,,
,,"[""comma""]",0,[0.038000000000010914],109,0,109,0,1,5ee23a0d9586fe6a598e58ea,22,Kobieta,2022-06-04_08h09.42.927,task,2021.1.4,MacIntel,64.1025641,628b806c463b948bc644b84f,629af719975b6f3d3e34ed89,,,,,,,,,,,,,,,,,,,,,,,,,,,,,,,,,,,,,,,,,,,,,,,,,,,,,,,,,,,,,,,,,,,,,,,,,,,,,,,,,,,,,,,,,,,,,,,,,,,,,,,
,,"[""comma""]",0,[0.33299999999997],110,0,110,0,1,5ee23a0d9586fe6a598e58ea,22,Kobieta,2022-06-04_08h09.42.927,task,2021.1.4,MacIntel,64.1025641,628b806c463b948bc644b84f,629af719975b6f3d3e34ed89,,,,,,,,,,,,,,,,,,,,,,,,,,,,,,,,,,,,,,,,,,,,,,,,,,,,,,,,,,,,,,,,,,,,,,,,,,,,,,,,,,,,,,,,,,,,,,,,,,,,,,,
,,"[""period""]",0,[0.3709999999999809],111,0,111,0,1,5ee23a0d9586fe6a598e58ea,22,Kobieta,2022-06-04_08h09.42.927,task,2021.1.4,MacIntel,64.1025641,628b806c463b948bc644b84f,629af719975b6f3d3e34ed89,,,,,,,,,,,,,,,,,,,,,,,,,,,,,,,,,,,,,,,,,,,,,,,,,,,,,,,,,,,,,,,,,,,,,,,,,,,,,,,,,,,,,,,,,,,,,,,,,,,,,,,
,,"[""comma""]",0,[0.339999999999975],112,0,112,0,1,5ee23a0d9586fe6a598e58ea,22,Kobieta,2022-06-04_08h09.42.927,task,2021.1.4,MacIntel,64.1025641,628b806c463b948bc644b84f,629af719975b6f3d3e34ed89,,,,,,,,,,,,,,,,,,,,,,,,,,,,,,,,,,,,,,,,,,,,,,,,,,,,,,,,,,,,,,,,,,,,,,,,,,,,,,,,,,,,,,,,,,,,,,,,,,,,,,,
,,"[""period"",""period""]",0,"[0.18899999999996453,1.7559999999999718]",113,0,113,0,1,5ee23a0d9586fe6a598e58ea,22,Kobieta,2022-06-04_08h09.42.927,task,2021.1.4,MacIntel,64.1025641,628b806c463b948bc644b84f,629af719975b6f3d3e34ed89,,,,,,,,,,,,,,,,,,,,,,,,,,,,,,,,,,,,,,,,,,,,,,,,,,,,,,,,,,,,,,,,,,,,,,,,,,,,,,,,,,,,,,,,,,,,,,,,,,,,,,,
,,"[""period""]",0,[1.1189999999999714],114,0,114,0,1,5ee23a0d9586fe6a598e58ea,22,Kobieta,2022-06-04_08h09.42.927,task,2021.1.4,MacIntel,64.1025641,628b806c463b948bc644b84f,629af719975b6f3d3e34ed89,,,,,,,,,,,,,,,,,,,,,,,,,,,,,,,,,,,,,,,,,,,,,,,,,,,,,,,,,,,,,,,,,,,,,,,,,,,,,,,,,,,,,,,,,,,,,,,,,,,,,,,
,,"[""comma""]",0,[0.8590000000000373],115,0,115,0,1,5ee23a0d9586fe6a598e58ea,22,Kobieta,2022-06-04_08h09.42.927,task,2021.1.4,MacIntel,64.1025641,628b806c463b948bc644b84f,629af719975b6f3d3e34ed89,,,,,,,,,,,,,,,,,,,,,,,,,,,,,,,,,,,,,,,,,,,,,,,,,,,,,,,,,,,,,,,,,,,,,,,,,,,,,,,,,,,,,,,,,,,,,,,,,,,,,,,
,,"[""comma""]",0,[0.5709999999999695],116,0,116,0,1,5ee23a0d9586fe6a598e58ea,22,Kobieta,2022-06-04_08h09.42.927,task,2021.1.4,MacIntel,64.1025641,628b806c463b948bc644b84f,629af719975b6f3d3e34ed89,,,,,,,,,,,,,,,,,,,,,,,,,,,,,,,,,,,,,,,,,,,,,,,,,,,,,,,,,,,,,,,,,,,,,,,,,,,,,,,,,,,,,,,,,,,,,,,,,,,,,,,
,,"[""period""]",0,[0.4519999999999982],117,0,117,0,1,5ee23a0d9586fe6a598e58ea,22,Kobieta,2022-06-04_08h09.42.927,task,2021.1.4,MacIntel,64.1025641,628b806c463b948bc644b84f,629af719975b6f3d3e34ed89,,,,,,,,,,,,,,,,,,,,,,,,,,,,,,,,,,,,,,,,,,,,,,,,,,,,,,,,,,,,,,,,,,,,,,,,,,,,,,,,,,,,,,,,,,,,,,,,,,,,,,,
,,"[""comma""]",0,[0.5749999999999886],118,0,118,0,1,5ee23a0d9586fe6a598e58ea,22,Kobieta,2022-06-04_08h09.42.927,task,2021.1.4,MacIntel,64.1025641,628b806c463b948bc644b84f,629af719975b6f3d3e34ed89,,,,,,,,,,,,,,,,,,,,,,,,,,,,,,,,,,,,,,,,,,,,,,,,,,,,,,,,,,,,,,,,,,,,,,,,,,,,,,,,,,,,,,,,,,,,,,,,,,,,,,,
,,"[""period""]",0,[0.6159999999999854],119,0,119,0,1,5ee23a0d9586fe6a598e58ea,22,Kobieta,2022-06-04_08h09.42.927,task,2021.1.4,MacIntel,64.1025641,628b806c463b948bc644b84f,629af719975b6f3d3e34ed89,,,,,,,,,,,,,,,,,,,,,,,,,,,,,,,,,,,,,,,,,,,,,,,,,,,,,,,,,,,,,,,,,,,,,,,,,,,,,,,,,,,,,,,,,,,,,,,,,,,,,,,
,,,,,,,,,,5ee23a0d9586fe6a598e58ea,22,Kobieta,2022-06-04_08h09.42.927,task,2021.1.4,MacIntel,64.1025641,628b806c463b948bc644b84f,629af719975b6f3d3e34ed89,space,170.92,space,9.872,0,0,0,0,1,X V Q F H G B L J M P D K C T S W R N Z,,,,,,,,,,,,,,,,,,,,,,,,,,,,,,,,,,,,,,,,,,,,,,,,,,,,,,,,,,,,,,,,,,,,,,,,,,,,,,,,,,,,,,,,,,,,,
,,,,,,,,,,5ee23a0d9586fe6a598e58ea,22,Kobieta,2022-06-04_08h09.42.927,task,2021.1.4,MacIntel,64.1025641,628b806c463b948bc644b84f,629af719975b6f3d3e34ed89,,,,,1,0,1,0,1,X V Q F H G B L J M P D K C T S W R N Z,,,,,,,,,,,,,,,,,,,,,,,,,,,,,,,,,,,,,,,,,,,,,,,,,,,,,,,,,,,,,,,,,,,,,,,,,,,,,,,,,,,,,,,,,,,,,
,,,,,,,,,,5ee23a0d9586fe6a598e58ea,22,Kobieta,2022-06-04_08h09.42.927,task,2021.1.4,MacIntel,64.1025641,628b806c463b948bc644b84f,629af719975b6f3d3e34ed89,,,,,,,,,,,zn,"[""z"",""n""]","[3.259999999999991,3.941000000000031,5.180000000000007]",1,ZN,0,0,0,0,1,,,,,,,,,,,,,,,,,,,,,,,,,,,,,,,,,,,,,,,,,,,,,,,,,,,,,,,,,,,,,,,,,,,,,,,,,,,,,,,,,,,
,,,,,,,,,,5ee23a0d9586fe6a598e58ea,22,Kobieta,2022-06-04_08h09.42.927,task,2021.1.4,MacIntel,64.1025641,628b806c463b948bc644b84f,629af719975b6f3d3e34ed89,,,,,0,0,0,0,1,X V Q F H G B L J M P D K C T S W R N Z,,,,,,,,,,,,,,,,,,,,,,,,,,,,,,,,,,,,,,,,,,,,,,,,,,,,,,,,,,,,,,,,,,,,,,,,,,,,,,,,,,,,,,,,,,,,,
,,,,,,,,,,5ee23a0d9586fe6a598e58ea,22,Kobieta,2022-06-04_08h09.42.927,task,2021.1.4,MacIntel,64.1025641,628b806c463b948bc644b84f,629af719975b6f3d3e34ed89,,,,,1,0,1,0,1,X V Q F H G B L J M P D K C T S W R N Z,,,,,,,,,,,,,,,,,,,,,,,,,,,,,,,,,,,,,,,,,,,,,,,,,,,,,,,,,,,,,,,,,,,,,,,,,,,,,,,,,,,,,,,,,,,,,
,,,,,,,,,,5ee23a0d9586fe6a598e58ea,22,Kobieta,2022-06-04_08h09.42.927,task,2021.1.4,MacIntel,64.1025641,628b806c463b948bc644b84f,629af719975b6f3d3e34ed89,,,,,,,,,,,gf,"[""g"",""f""]","[1.9180000000000064,2.684000000000026,3.3980000000000246]",1,GF,1,0,1,0,1,,,,,,,,,,,,,,,,,,,,,,,,,,,,,,,,,,,,,,,,,,,,,,,,,,,,,,,,,,,,,,,,,,,,,,,,,,,,,,,,,,,
,,,,,,,,,,5ee23a0d9586fe6a598e58ea,22,Kobieta,2022-06-04_08h09.42.927,task,2021.1.4,MacIntel,64.1025641,628b806c463b948bc644b84f,629af719975b6f3d3e34ed89,,,,,0,0,0,0,1,X V Q F H G B L J M P D K C T S W R N Z,,,,,,,,,,,,,,,,,,,,,,,,,,,,,,,,,,,,,,,,,,,,,,,,,,,,,,,,,,,,,,,,,,,,,,,,,,,,,,,,,,,,,,,,,,,,,
,,,,,,,,,,5ee23a0d9586fe6a598e58ea,22,Kobieta,2022-06-04_08h09.42.927,task,2021.1.4,MacIntel,64.1025641,628b806c463b948bc644b84f,629af719975b6f3d3e34ed89,,,,,1,0,1,0,1,X V Q F H G B L J M P D K C T S W R N Z,,,,,,,,,,,,,,,,,,,,,,,,,,,,,,,,,,,,,,,,,,,,,,,,,,,,,,,,,,,,,,,,,,,,,,,,,,,,,,,,,,,,,,,,,,,,,
,,,,,,,,,,5ee23a0d9586fe6a598e58ea,22,Kobieta,2022-06-04_08h09.42.927,task,2021.1.4,MacIntel,64.1025641,628b806c463b948bc644b84f,629af719975b6f3d3e34ed89,,,,,2,0,2,0,1,X V Q F H G B L J M P D K C T S W R N Z,,,,,,,,,,,,,,,,,,,,,,,,,,,,,,,,,,,,,,,,,,,,,,,,,,,,,,,,,,,,,,,,,,,,,,,,,,,,,,,,,,,,,,,,,,,,,
,,,,,,,,,,5ee23a0d9586fe6a598e58ea,22,Kobieta,2022-06-04_08h09.42.927,task,2021.1.4,MacIntel,64.1025641,628b806c463b948bc644b84f,629af719975b6f3d3e34ed89,,,,,,,,,,,bwq,"[""b"",""w"",""q""]","[1.516999999999996,2.5860000000000127,3.3909999999999627,4.437999999999988]",1,BWQ,2,0,2,0,1,,,,,,,,,,,,,,,,,,,,,,,,,,,,,,,,,,,,,,,,,,,,,,,,,,,,,,,,,,,,,,,,,,,,,,,,,,,,,,,,,,,
,,,,,,,,,,5ee23a0d9586fe6a598e58ea,22,Kobieta,2022-06-04_08h09.42.927,task,2021.1.4,MacIntel,64.1025641,628b806c463b948bc644b84f,629af719975b6f3d3e34ed89,,,,,0,0,0,0,1,X V Q F H G B L J M P D K C T S W R N Z,,,,,,,,,,,,,,,,,,,,,,,,,,,,,,,,,,,,,,,,,,,,,,,,,,,,,,,,,,,,,,,,,,,,,,,,,,,,,,,,,,,,,,,,,,,,,
,,,,,,,,,,5ee23a0d9586fe6a598e58ea,22,Kobieta,2022-06-04_08h09.42.927,task,2021.1.4,MacIntel,64.1025641,628b806c463b948bc644b84f,629af719975b6f3d3e34ed89,,,,,1,0,1,0,1,X V Q F H G B L J M P D K C T S W R N Z,,,,,,,,,,,,,,,,,,,,,,,,,,,,,,,,,,,,,,,,,,,,,,,,,,,,,,,,,,,,,,,,,,,,,,,,,,,,,,,,,,,,,,,,,,,,,
,,,,,,,,,,5ee23a0d9586fe6a598e58ea,22,Kobieta,2022-06-04_08h09.42.927,task,2021.1.4,MacIntel,64.1025641,628b806c463b948bc644b84f,629af719975b6f3d3e34ed89,,,,,2,0,2,0,1,X V Q F H G B L J M P D K C T S W R N Z,,,,,,,,,,,,,,,,,,,,,,,,,,,,,,,,,,,,,,,,,,,,,,,,,,,,,,,,,,,,,,,,,,,,,,,,,,,,,,,,,,,,,,,,,,,,,
,,,,,,,,,,5ee23a0d9586fe6a598e58ea,22,Kobieta,2022-06-04_08h09.42.927,task,2021.1.4,MacIntel,64.1025641,628b806c463b948bc644b84f,629af719975b6f3d3e34ed89,,,,,,,,,,,qhw,"[""q"",""h"",""w""]","[1.620999999999981,2.5879999999999654,3.353999999999928,3.87399999999991]",1,QHW,3,0,3,0,1,,,,,,,,,,,,,,,,,,,,,,,,,,,,,,,,,,,,,,,,,,,,,,,,,,,,,,,,,,,,,,,,,,,,,,,,,,,,,,,,,,,
,,,,,,,,,,5ee23a0d9586fe6a598e58ea,22,Kobieta,2022-06-04_08h09.42.927,task,2021.1.4,MacIntel,64.1025641,628b806c463b948bc644b84f,629af719975b6f3d3e34ed89,,,,,0,0,0,0,1,X V Q F H G B L J M P D K C T S W R N Z,,,,,,,,,,,,,,,,,,,,,,,,,,,,,,,,,,,,,,,,,,,,,,,,,,,,,,,,,,,,,,,,,,,,,,,,,,,,,,,,,,,,,,,,,,,,,
,,,,,,,,,,5ee23a0d9586fe6a598e58ea,22,Kobieta,2022-06-04_08h09.42.927,task,2021.1.4,MacIntel,64.1025641,628b806c463b948bc644b84f,629af719975b6f3d3e34ed89,,,,,1,0,1,0,1,X V Q F H G B L J M P D K C T S W R N Z,,,,,,,,,,,,,,,,,,,,,,,,,,,,,,,,,,,,,,,,,,,,,,,,,,,,,,,,,,,,,,,,,,,,,,,,,,,,,,,,,,,,,,,,,,,,,
,,,,,,,,,,5ee23a0d9586fe6a598e58ea,22,Kobieta,2022-06-04_08h09.42.927,task,2021.1.4,MacIntel,64.1025641,628b806c463b948bc644b84f,629af719975b6f3d3e34ed89,,,,,2,0,2,0,1,X V Q F H G B L J M P D K C T S W R N Z,,,,,,,,,,,,,,,,,,,,,,,,,,,,,,,,,,,,,,,,,,,,,,,,,,,,,,,,,,,,,,,,,,,,,,,,,,,,,,,,,,,,,,,,,,,,,
,,,,,,,,,,5ee23a0d9586fe6a598e58ea,22,Kobieta,2022-06-04_08h09.42.927,task,2021.1.4,MacIntel,64.1025641,628b806c463b948bc644b84f,629af719975b6f3d3e34ed89,,,,,3,0,3,0,1,X V Q F H G B L J M P D K C T S W R N Z,,,,,,,,,,,,,,,,,,,,,,,,,,,,,,,,,,,,,,,,,,,,,,,,,,,,,,,,,,,,,,,,,,,,,,,,,,,,,,,,,,,,,,,,,,,,,
,,,,,,,,,,5ee23a0d9586fe6a598e58ea,22,Kobieta,2022-06-04_08h09.42.927,task,2021.1.4,MacIntel,64.1025641,628b806c463b948bc644b84f,629af719975b6f3d3e34ed89,,,,,,,,,,,kczd,"[""k"",""c"",""z"",""d""]","[1.4379999999999882,1.7900000000000773,2.3880000000000337,2.8029999999999973,3.8700000000000045]",1,KCZD,4,0,4,0,1,,,,,,,,,,,,,,,,,,,,,,,,,,,,,,,,,,,,,,,,,,,,,,,,,,,,,,,,,,,,,,,,,,,,,,,,,,,,,,,,,,,
,,,,,,,,,,5ee23a0d9586fe6a598e58ea,22,Kobieta,2022-06-04_08h09.42.927,task,2021.1.4,MacIntel,64.1025641,628b806c463b948bc644b84f,629af719975b6f3d3e34ed89,,,,,0,0,0,0,1,X V Q F H G B L J M P D K C T S W R N Z,,,,,,,,,,,,,,,,,,,,,,,,,,,,,,,,,,,,,,,,,,,,,,,,,,,,,,,,,,,,,,,,,,,,,,,,,,,,,,,,,,,,,,,,,,,,,
,,,,,,,,,,5ee23a0d9586fe6a598e58ea,22,Kobieta,2022-06-04_08h09.42.927,task,2021.1.4,MacIntel,64.1025641,628b806c463b948bc644b84f,629af719975b6f3d3e34ed89,,,,,1,0,1,0,1,X V Q F H G B L J M P D K C T S W R N Z,,,,,,,,,,,,,,,,,,,,,,,,,,,,,,,,,,,,,,,,,,,,,,,,,,,,,,,,,,,,,,,,,,,,,,,,,,,,,,,,,,,,,,,,,,,,,
,,,,,,,,,,5ee23a0d9586fe6a598e58ea,22,Kobieta,2022-06-04_08h09.42.927,task,2021.1.4,MacIntel,64.1025641,628b806c463b948bc644b84f,629af719975b6f3d3e34ed89,,,,,2,0,2,0,1,X V Q F H G B L J M P D K C T S W R N Z,,,,,,,,,,,,,,,,,,,,,,,,,,,,,,,,,,,,,,,,,,,,,,,,,,,,,,,,,,,,,,,,,,,,,,,,,,,,,,,,,,,,,,,,,,,,,
,,,,,,,,,,5ee23a0d9586fe6a598e58ea,22,Kobieta,2022-06-04_08h09.42.927,task,2021.1.4,MacIntel,64.1025641,628b806c463b948bc644b84f,629af719975b6f3d3e34ed89,,,,,3,0,3,0,1,X V Q F H G B L J M P D K C T S W R N Z,,,,,,,,,,,,,,,,,,,,,,,,,,,,,,,,,,,,,,,,,,,,,,,,,,,,,,,,,,,,,,,,,,,,,,,,,,,,,,,,,,,,,,,,,,,,,
,,,,,,,,,,5ee23a0d9586fe6a598e58ea,22,Kobieta,2022-06-04_08h09.42.927,task,2021.1.4,MacIntel,64.1025641,628b806c463b948bc644b84f,629af719975b6f3d3e34ed89,,,,,,,,,,,ffpx,"[""f"",""f"",""p"",""x""]","[1.3870000000000573,1.5499999999999545,1.7690000000000055,2.288000000000011,3.82000000000005]",1,FFPX,5,0,5,0,1,,,,,,,,,,,,,,,,,,,,,,,,,,,,,,,,,,,,,,,,,,,,,,,,,,,,,,,,,,,,,,,,,,,,,,,,,,,,,,,,,,,
,,,,,,,,,,5ee23a0d9586fe6a598e58ea,22,Kobieta,2022-06-04_08h09.42.927,task,2021.1.4,MacIntel,64.1025641,628b806c463b948bc644b84f,629af719975b6f3d3e34ed89,,,,,0,0,0,0,1,X V Q F H G B L J M P D K C T S W R N Z,,,,,,,,,,,,,,,,,,,,,,,,,,,,,,,,,,,,,,,,,,,,,,,,,,,,,,,,,,,,,,,,,,,,,,,,,,,,,,,,,,,,,,,,,,,,,
,,,,,,,,,,5ee23a0d9586fe6a598e58ea,22,Kobieta,2022-06-04_08h09.42.927,task,2021.1.4,MacIntel,64.1025641,628b806c463b948bc644b84f,629af719975b6f3d3e34ed89,,,,,1,0,1,0,1,X V Q F H G B L J M P D K C T S W R N Z,,,,,,,,,,,,,,,,,,,,,,,,,,,,,,,,,,,,,,,,,,,,,,,,,,,,,,,,,,,,,,,,,,,,,,,,,,,,,,,,,,,,,,,,,,,,,
,,,,,,,,,,5ee23a0d9586fe6a598e58ea,22,Kobieta,2022-06-04_08h09.42.927,task,2021.1.4,MacIntel,64.1025641,628b806c463b948bc644b84f,629af719975b6f3d3e34ed89,,,,,2,0,2,0,1,X V Q F H G B L J M P D K C T S W R N Z,,,,,,,,,,,,,,,,,,,,,,,,,,,,,,,,,,,,,,,,,,,,,,,,,,,,,,,,,,,,,,,,,,,,,,,,,,,,,,,,,,,,,,,,,,,,,
,,,,,,,,,,5ee23a0d9586fe6a598e58ea,22,Kobieta,2022-06-04_08h09.42.927,task,2021.1.4,MacIntel,64.1025641,628b806c463b948bc644b84f,629af719975b6f3d3e34ed89,,,,,3,0,3,0,1,X V Q F H G B L J M P D K C T S W R N Z,,,,,,,,,,,,,,,,,,,,,,,,,,,,,,,,,,,,,,,,,,,,,,,,,,,,,,,,,,,,,,,,,,,,,,,,,,,,,,,,,,,,,,,,,,,,,
,,,,,,,,,,5ee23a0d9586fe6a598e58ea,22,Kobieta,2022-06-04_08h09.42.927,task,2021.1.4,MacIntel,64.1025641,628b806c463b948bc644b84f,629af719975b6f3d3e34ed89,,,,,4,0,4,0,1,X V Q F H G B L J M P D K C T S W R N Z,,,,,,,,,,,,,,,,,,,,,,,,,,,,,,,,,,,,,,,,,,,,,,,,,,,,,,,,,,,,,,,,,,,,,,,,,,,,,,,,,,,,,,,,,,,,,
,,,,,,,,,,5ee23a0d9586fe6a598e58ea,22,Kobieta,2022-06-04_08h09.42.927,task,2021.1.4,MacIntel,64.1025641,628b806c463b948bc644b84f,629af719975b6f3d3e34ed89,,,,,,,,,,,jqhjs,"[""j"",""q"",""h"",""j"",""s""]","[1.5369999999999209,2.0519999999999072,2.6669999999999163,3.002999999999929,3.3519999999999754,3.8519999999999754]",1,JQHJS,6,0,6,0,1,,,,,,,,,,,,,,,,,,,,,,,,,,,,,,,,,,,,,,,,,,,,,,,,,,,,,,,,,,,,,,,,,,,,,,,,,,,,,,,,,,,
,,,,,,,,,,5ee23a0d9586fe6a598e58ea,22,Kobieta,2022-06-04_08h09.42.927,task,2021.1.4,MacIntel,64.1025641,628b806c463b948bc644b84f,629af719975b6f3d3e34ed89,,,,,0,0,0,0,1,X V Q F H G B L J M P D K C T S W R N Z,,,,,,,,,,,,,,,,,,,,,,,,,,,,,,,,,,,,,,,,,,,,,,,,,,,,,,,,,,,,,,,,,,,,,,,,,,,,,,,,,,,,,,,,,,,,,
,,,,,,,,,,5ee23a0d9586fe6a598e58ea,22,Kobieta,2022-06-04_08h09.42.927,task,2021.1.4,MacIntel,64.1025641,628b806c463b948bc644b84f,629af719975b6f3d3e34ed89,,,,,1,0,1,0,1,X V Q F H G B L J M P D K C T S W R N Z,,,,,,,,,,,,,,,,,,,,,,,,,,,,,,,,,,,,,,,,,,,,,,,,,,,,,,,,,,,,,,,,,,,,,,,,,,,,,,,,,,,,,,,,,,,,,
,,,,,,,,,,5ee23a0d9586fe6a598e58ea,22,Kobieta,2022-06-04_08h09.42.927,task,2021.1.4,MacIntel,64.1025641,628b806c463b948bc644b84f,629af719975b6f3d3e34ed89,,,,,2,0,2,0,1,X V Q F H G B L J M P D K C T S W R N Z,,,,,,,,,,,,,,,,,,,,,,,,,,,,,,,,,,,,,,,,,,,,,,,,,,,,,,,,,,,,,,,,,,,,,,,,,,,,,,,,,,,,,,,,,,,,,
,,,,,,,,,,5ee23a0d9586fe6a598e58ea,22,Kobieta,2022-06-04_08h09.42.927,task,2021.1.4,MacIntel,64.1025641,628b806c463b948bc644b84f,629af719975b6f3d3e34ed89,,,,,3,0,3,0,1,X V Q F H G B L J M P D K C T S W R N Z,,,,,,,,,,,,,,,,,,,,,,,,,,,,,,,,,,,,,,,,,,,,,,,,,,,,,,,,,,,,,,,,,,,,,,,,,,,,,,,,,,,,,,,,,,,,,
,,,,,,,,,,5ee23a0d9586fe6a598e58ea,22,Kobieta,2022-06-04_08h09.42.927,task,2021.1.4,MacIntel,64.1025641,628b806c463b948bc644b84f,629af719975b6f3d3e34ed89,,,,,4,0,4,0,1,X V Q F H G B L J M P D K C T S W R N Z,,,,,,,,,,,,,,,,,,,,,,,,,,,,,,,,,,,,,,,,,,,,,,,,,,,,,,,,,,,,,,,,,,,,,,,,,,,,,,,,,,,,,,,,,,,,,
,,,,,,,,,,5ee23a0d9586fe6a598e58ea,22,Kobieta,2022-06-04_08h09.42.927,task,2021.1.4,MacIntel,64.1025641,628b806c463b948bc644b84f,629af719975b6f3d3e34ed89,,,,,,,,,,,lncmq,"[""l"",""n"",""c"",""m"",""q""]","[1.733000000000061,2.536000000000058,3.407000000000039,4.222999999999956,4.802000000000021,5.553999999999974]",1,LNCMQ,7,0,7,0,1,,,,,,,,,,,,,,,,,,,,,,,,,,,,,,,,,,,,,,,,,,,,,,,,,,,,,,,,,,,,,,,,,,,,,,,,,,,,,,,,,,,
,,,,,,,,,,5ee23a0d9586fe6a598e58ea,22,Kobieta,2022-06-04_08h09.42.927,task,2021.1.4,MacIntel,64.1025641,628b806c463b948bc644b84f,629af719975b6f3d3e34ed89,,,,,0,0,0,0,1,X V Q F H G B L J M P D K C T S W R N Z,,,,,,,,,,,,,,,,,,,,,,,,,,,,,,,,,,,,,,,,,,,,,,,,,,,,,,,,,,,,,,,,,,,,,,,,,,,,,,,,,,,,,,,,,,,,,
,,,,,,,,,,5ee23a0d9586fe6a598e58ea,22,Kobieta,2022-06-04_08h09.42.927,task,2021.1.4,MacIntel,64.1025641,628b806c463b948bc644b84f,629af719975b6f3d3e34ed89,,,,,1,0,1,0,1,X V Q F H G B L J M P D K C T S W R N Z,,,,,,,,,,,,,,,,,,,,,,,,,,,,,,,,,,,,,,,,,,,,,,,,,,,,,,,,,,,,,,,,,,,,,,,,,,,,,,,,,,,,,,,,,,,,,
,,,,,,,,,,5ee23a0d9586fe6a598e58ea,22,Kobieta,2022-06-04_08h09.42.927,task,2021.1.4,MacIntel,64.1025641,628b806c463b948bc644b84f,629af719975b6f3d3e34ed89,,,,,2,0,2,0,1,X V Q F H G B L J M P D K C T S W R N Z,,,,,,,,,,,,,,,,,,,,,,,,,,,,,,,,,,,,,,,,,,,,,,,,,,,,,,,,,,,,,,,,,,,,,,,,,,,,,,,,,,,,,,,,,,,,,
,,,,,,,,,,5ee23a0d9586fe6a598e58ea,22,Kobieta,2022-06-04_08h09.42.927,task,2021.1.4,MacIntel,64.1025641,628b806c463b948bc644b84f,629af719975b6f3d3e34ed89,,,,,3,0,3,0,1,X V Q F H G B L J M P D K C T S W R N Z,,,,,,,,,,,,,,,,,,,,,,,,,,,,,,,,,,,,,,,,,,,,,,,,,,,,,,,,,,,,,,,,,,,,,,,,,,,,,,,,,,,,,,,,,,,,,
,,,,,,,,,,5ee23a0d9586fe6a598e58ea,22,Kobieta,2022-06-04_08h09.42.927,task,2021.1.4,MacIntel,64.1025641,628b806c463b948bc644b84f,629af719975b6f3d3e34ed89,,,,,4,0,4,0,1,X V Q F H G B L J M P D K C T S W R N Z,,,,,,,,,,,,,,,,,,,,,,,,,,,,,,,,,,,,,,,,,,,,,,,,,,,,,,,,,,,,,,,,,,,,,,,,,,,,,,,,,,,,,,,,,,,,,
,,,,,,,,,,5ee23a0d9586fe6a598e58ea,22,Kobieta,2022-06-04_08h09.42.927,task,2021.1.4,MacIntel,64.1025641,628b806c463b948bc644b84f,629af719975b6f3d3e34ed89,,,,,5,0,5,0,1,X V Q F H G B L J M P D K C T S W R N Z,,,,,,,,,,,,,,,,,,,,,,,,,,,,,,,,,,,,,,,,,,,,,,,,,,,,,,,,,,,,,,,,,,,,,,,,,,,,,,,,,,,,,,,,,,,,,
,,,,,,,,,,5ee23a0d9586fe6a598e58ea,22,Kobieta,2022-06-04_08h09.42.927,task,2021.1.4,MacIntel,64.1025641,628b806c463b948bc644b84f,629af719975b6f3d3e34ed89,,,,,,,,,,,vncknz,"[""v"",""n"",""c"",""k"",""n"",""z""]","[1.48599999999999,1.9850000000000136,2.3799999999999955,2.798999999999978,3.2509999999999764,3.6829999999999927,4.453999999999951]",1,VNCKNZ,8,0,8,0,1,,,,,,,,,,,,,,,,,,,,,,,,,,,,,,,,,,,,,,,,,,,,,,,,,,,,,,,,,,,,,,,,,,,,,,,,,,,,,,,,,,,
,,,,,,,,,,5ee23a0d9586fe6a598e58ea,22,Kobieta,2022-06-04_08h09.42.927,task,2021.1.4,MacIntel,64.1025641,628b806c463b948bc644b84f,629af719975b6f3d3e34ed89,,,,,0,0,0,0,1,X V Q F H G B L J M P D K C T S W R N Z,,,,,,,,,,,,,,,,,,,,,,,,,,,,,,,,,,,,,,,,,,,,,,,,,,,,,,,,,,,,,,,,,,,,,,,,,,,,,,,,,,,,,,,,,,,,,
,,,,,,,,,,5ee23a0d9586fe6a598e58ea,22,Kobieta,2022-06-04_08h09.42.927,task,2021.1.4,MacIntel,64.1025641,628b806c463b948bc644b84f,629af719975b6f3d3e34ed89,,,,,1,0,1,0,1,X V Q F H G B L J M P D K C T S W R N Z,,,,,,,,,,,,,,,,,,,,,,,,,,,,,,,,,,,,,,,,,,,,,,,,,,,,,,,,,,,,,,,,,,,,,,,,,,,,,,,,,,,,,,,,,,,,,
,,,,,,,,,,5ee23a0d9586fe6a598e58ea,22,Kobieta,2022-06-04_08h09.42.927,task,2021.1.4,MacIntel,64.1025641,628b806c463b948bc644b84f,629af719975b6f3d3e34ed89,,,,,2,0,2,0,1,X V Q F H G B L J M P D K C T S W R N Z,,,,,,,,,,,,,,,,,,,,,,,,,,,,,,,,,,,,,,,,,,,,,,,,,,,,,,,,,,,,,,,,,,,,,,,,,,,,,,,,,,,,,,,,,,,,,
,,,,,,,,,,5ee23a0d9586fe6a598e58ea,22,Kobieta,2022-06-04_08h09.42.927,task,2021.1.4,MacIntel,64.1025641,628b806c463b948bc644b84f,629af719975b6f3d3e34ed89,,,,,3,0,3,0,1,X V Q F H G B L J M P D K C T S W R N Z,,,,,,,,,,,,,,,,,,,,,,,,,,,,,,,,,,,,,,,,,,,,,,,,,,,,,,,,,,,,,,,,,,,,,,,,,,,,,,,,,,,,,,,,,,,,,
,,,,,,,,,,5ee23a0d9586fe6a598e58ea,22,Kobieta,2022-06-04_08h09.42.927,task,2021.1.4,MacIntel,64.1025641,628b806c463b948bc644b84f,629af719975b6f3d3e34ed89,,,,,4,0,4,0,1,X V Q F H G B L J M P D K C T S W R N Z,,,,,,,,,,,,,,,,,,,,,,,,,,,,,,,,,,,,,,,,,,,,,,,,,,,,,,,,,,,,,,,,,,,,,,,,,,,,,,,,,,,,,,,,,,,,,
,,,,,,,,,,5ee23a0d9586fe6a598e58ea,22,Kobieta,2022-06-04_08h09.42.927,task,2021.1.4,MacIntel,64.1025641,628b806c463b948bc644b84f,629af719975b6f3d3e34ed89,,,,,5,0,5,0,1,X V Q F H G B L J M P D K C T S W R N Z,,,,,,,,,,,,,,,,,,,,,,,,,,,,,,,,,,,,,,,,,,,,,,,,,,,,,,,,,,,,,,,,,,,,,,,,,,,,,,,,,,,,,,,,,,,,,
,,,,,,,,,,5ee23a0d9586fe6a598e58ea,22,Kobieta,2022-06-04_08h09.42.927,task,2021.1.4,MacIntel,64.1025641,628b806c463b948bc644b84f,629af719975b6f3d3e34ed89,,,,,,,,,,,ftpbmz,"[""f"",""t"",""p"",""b"",""m"",""z""]","[1.3870000000000573,1.7380000000000564,2.3659999999999854,3.1829999999999927,3.586999999999989,4.052999999999997,5.1860000000000355]",1,FTPBMZ,9,0,9,0,1,,,,,,,,,,,,,,,,,,,,,,,,,,,,,,,,,,,,,,,,,,,,,,,,,,,,,,,,,,,,,,,,,,,,,,,,,,,,,,,,,,,
,,,,,,,,,,5ee23a0d9586fe6a598e58ea,22,Kobieta,2022-06-04_08h09.42.927,task,2021.1.4,MacIntel,64.1025641,628b806c463b948bc644b84f,629af719975b6f3d3e34ed89,,,,,0,0,0,0,1,X V Q F H G B L J M P D K C T S W R N Z,,,,,,,,,,,,,,,,,,,,,,,,,,,,,,,,,,,,,,,,,,,,,,,,,,,,,,,,,,,,,,,,,,,,,,,,,,,,,,,,,,,,,,,,,,,,,
,,,,,,,,,,5ee23a0d9586fe6a598e58ea,22,Kobieta,2022-06-04_08h09.42.927,task,2021.1.4,MacIntel,64.1025641,628b806c463b948bc644b84f,629af719975b6f3d3e34ed89,,,,,1,0,1,0,1,X V Q F H G B L J M P D K C T S W R N Z,,,,,,,,,,,,,,,,,,,,,,,,,,,,,,,,,,,,,,,,,,,,,,,,,,,,,,,,,,,,,,,,,,,,,,,,,,,,,,,,,,,,,,,,,,,,,
,,,,,,,,,,5ee23a0d9586fe6a598e58ea,22,Kobieta,2022-06-04_08h09.42.927,task,2021.1.4,MacIntel,64.1025641,628b806c463b948bc644b84f,629af719975b6f3d3e34ed89,,,,,2,0,2,0,1,X V Q F H G B L J M P D K C T S W R N Z,,,,,,,,,,,,,,,,,,,,,,,,,,,,,,,,,,,,,,,,,,,,,,,,,,,,,,,,,,,,,,,,,,,,,,,,,,,,,,,,,,,,,,,,,,,,,
,,,,,,,,,,5ee23a0d9586fe6a598e58ea,22,Kobieta,2022-06-04_08h09.42.927,task,2021.1.4,MacIntel,64.1025641,628b806c463b948bc644b84f,629af719975b6f3d3e34ed89,,,,,3,0,3,0,1,X V Q F H G B L J M P D K C T S W R N Z,,,,,,,,,,,,,,,,,,,,,,,,,,,,,,,,,,,,,,,,,,,,,,,,,,,,,,,,,,,,,,,,,,,,,,,,,,,,,,,,,,,,,,,,,,,,,
,,,,,,,,,,5ee23a0d9586fe6a598e58ea,22,Kobieta,2022-06-04_08h09.42.927,task,2021.1.4,MacIntel,64.1025641,628b806c463b948bc644b84f,629af719975b6f3d3e34ed89,,,,,4,0,4,0,1,X V Q F H G B L J M P D K C T S W R N Z,,,,,,,,,,,,,,,,,,,,,,,,,,,,,,,,,,,,,,,,,,,,,,,,,,,,,,,,,,,,,,,,,,,,,,,,,,,,,,,,,,,,,,,,,,,,,
,,,,,,,,,,5ee23a0d9586fe6a598e58ea,22,Kobieta,2022-06-04_08h09.42.927,task,2021.1.4,MacIntel,64.1025641,628b806c463b948bc644b84f,629af719975b6f3d3e34ed89,,,,,5,0,5,0,1,X V Q F H G B L J M P D K C T S W R N Z,,,,,,,,,,,,,,,,,,,,,,,,,,,,,,,,,,,,,,,,,,,,,,,,,,,,,,,,,,,,,,,,,,,,,,,,,,,,,,,,,,,,,,,,,,,,,
,,,,,,,,,,5ee23a0d9586fe6a598e58ea,22,Kobieta,2022-06-04_08h09.42.927,task,2021.1.4,MacIntel,64.1025641,628b806c463b948bc644b84f,629af719975b6f3d3e34ed89,,,,,6,0,6,0,1,X V Q F H G B L J M P D K C T S W R N Z,,,,,,,,,,,,,,,,,,,,,,,,,,,,,,,,,,,,,,,,,,,,,,,,,,,,,,,,,,,,,,,,,,,,,,,,,,,,,,,,,,,,,,,,,,,,,
,,,,,,,,,,5ee23a0d9586fe6a598e58ea,22,Kobieta,2022-06-04_08h09.42.927,task,2021.1.4,MacIntel,64.1025641,628b806c463b948bc644b84f,629af719975b6f3d3e34ed89,,,,,,,,,,,sclqznk,"[""s"",""c"",""l"",""q"",""z"",""n"",""k""]","[1.316000000000031,1.73599999999999,2.052000000000021,3.0359999999999445,3.3490000000000464,3.81899999999996,4.099000000000046,5.102999999999952]",1,SCLQZNK,10,0,10,0,1,,,,,,,,,,,,,,,,,,,,,,,,,,,,,,,,,,,,,,,,,,,,,,,,,,,,,,,,,,,,,,,,,,,,,,,,,,,,,,,,,,,
,,,,,,,,,,5ee23a0d9586fe6a598e58ea,22,Kobieta,2022-06-04_08h09.42.927,task,2021.1.4,MacIntel,64.1025641,628b806c463b948bc644b84f,629af719975b6f3d3e34ed89,,,,,0,0,0,0,1,X V Q F H G B L J M P D K C T S W R N Z,,,,,,,,,,,,,,,,,,,,,,,,,,,,,,,,,,,,,,,,,,,,,,,,,,,,,,,,,,,,,,,,,,,,,,,,,,,,,,,,,,,,,,,,,,,,,
,,,,,,,,,,5ee23a0d9586fe6a598e58ea,22,Kobieta,2022-06-04_08h09.42.927,task,2021.1.4,MacIntel,64.1025641,628b806c463b948bc644b84f,629af719975b6f3d3e34ed89,,,,,1,0,1,0,1,X V Q F H G B L J M P D K C T S W R N Z,,,,,,,,,,,,,,,,,,,,,,,,,,,,,,,,,,,,,,,,,,,,,,,,,,,,,,,,,,,,,,,,,,,,,,,,,,,,,,,,,,,,,,,,,,,,,
,,,,,,,,,,5ee23a0d9586fe6a598e58ea,22,Kobieta,2022-06-04_08h09.42.927,task,2021.1.4,MacIntel,64.1025641,628b806c463b948bc644b84f,629af719975b6f3d3e34ed89,,,,,2,0,2,0,1,X V Q F H G B L J M P D K C T S W R N Z,,,,,,,,,,,,,,,,,,,,,,,,,,,,,,,,,,,,,,,,,,,,,,,,,,,,,,,,,,,,,,,,,,,,,,,,,,,,,,,,,,,,,,,,,,,,,
,,,,,,,,,,5ee23a0d9586fe6a598e58ea,22,Kobieta,2022-06-04_08h09.42.927,task,2021.1.4,MacIntel,64.1025641,628b806c463b948bc644b84f,629af719975b6f3d3e34ed89,,,,,3,0,3,0,1,X V Q F H G B L J M P D K C T S W R N Z,,,,,,,,,,,,,,,,,,,,,,,,,,,,,,,,,,,,,,,,,,,,,,,,,,,,,,,,,,,,,,,,,,,,,,,,,,,,,,,,,,,,,,,,,,,,,
,,,,,,,,,,5ee23a0d9586fe6a598e58ea,22,Kobieta,2022-06-04_08h09.42.927,task,2021.1.4,MacIntel,64.1025641,628b806c463b948bc644b84f,629af719975b6f3d3e34ed89,,,,,4,0,4,0,1,X V Q F H G B L J M P D K C T S W R N Z,,,,,,,,,,,,,,,,,,,,,,,,,,,,,,,,,,,,,,,,,,,,,,,,,,,,,,,,,,,,,,,,,,,,,,,,,,,,,,,,,,,,,,,,,,,,,
,,,,,,,,,,5ee23a0d9586fe6a598e58ea,22,Kobieta,2022-06-04_08h09.42.927,task,2021.1.4,MacIntel,64.1025641,628b806c463b948bc644b84f,629af719975b6f3d3e34ed89,,,,,5,0,5,0,1,X V Q F H G B L J M P D K C T S W R N Z,,,,,,,,,,,,,,,,,,,,,,,,,,,,,,,,,,,,,,,,,,,,,,,,,,,,,,,,,,,,,,,,,,,,,,,,,,,,,,,,,,,,,,,,,,,,,
,,,,,,,,,,5ee23a0d9586fe6a598e58ea,22,Kobieta,2022-06-04_08h09.42.927,task,2021.1.4,MacIntel,64.1025641,628b806c463b948bc644b84f,629af719975b6f3d3e34ed89,,,,,6,0,6,0,1,X V Q F H G B L J M P D K C T S W R N Z,,,,,,,,,,,,,,,,,,,,,,,,,,,,,,,,,,,,,,,,,,,,,,,,,,,,,,,,,,,,,,,,,,,,,,,,,,,,,,,,,,,,,,,,,,,,,
,,,,,,,,,,5ee23a0d9586fe6a598e58ea,22,Kobieta,2022-06-04_08h09.42.927,task,2021.1.4,MacIntel,64.1025641,628b806c463b948bc644b84f,629af719975b6f3d3e34ed89,,,,,,,,,,,cdtmmjp,"[""c"",""d"",""t"",""m"",""m"",""j"",""p""]","[1.3199999999999363,2.25,2.953999999999951,3.4039999999999964,3.63900000000001,4.005999999999972,4.451000000000022,5.104000000000042]",1,CDTMMJP,11,0,11,0,1,,,,,,,,,,,,,,,,,,,,,,,,,,,,,,,,,,,,,,,,,,,,,,,,,,,,,,,,,,,,,,,,,,,,,,,,,,,,,,,,,,,
,,,,,,,,,,5ee23a0d9586fe6a598e58ea,22,Kobieta,2022-06-04_08h09.42.927,task,2021.1.4,MacIntel,64.1025641,628b806c463b948bc644b84f,629af719975b6f3d3e34ed89,,,,,0,0,0,0,1,X V Q F H G B L J M P D K C T S W R N Z,,,,,,,,,,,,,,,,,,,,,,,,,,,,,,,,,,,,,,,,,,,,,,,,,,,,,,,,,,,,,,,,,,,,,,,,,,,,,,,,,,,,,,,,,,,,,
,,,,,,,,,,5ee23a0d9586fe6a598e58ea,22,Kobieta,2022-06-04_08h09.42.927,task,2021.1.4,MacIntel,64.1025641,628b806c463b948bc644b84f,629af719975b6f3d3e34ed89,,,,,1,0,1,0,1,X V Q F H G B L J M P D K C T S W R N Z,,,,,,,,,,,,,,,,,,,,,,,,,,,,,,,,,,,,,,,,,,,,,,,,,,,,,,,,,,,,,,,,,,,,,,,,,,,,,,,,,,,,,,,,,,,,,
,,,,,,,,,,5ee23a0d9586fe6a598e58ea,22,Kobieta,2022-06-04_08h09.42.927,task,2021.1.4,MacIntel,64.1025641,628b806c463b948bc644b84f,629af719975b6f3d3e34ed89,,,,,2,0,2,0,1,X V Q F H G B L J M P D K C T S W R N Z,,,,,,,,,,,,,,,,,,,,,,,,,,,,,,,,,,,,,,,,,,,,,,,,,,,,,,,,,,,,,,,,,,,,,,,,,,,,,,,,,,,,,,,,,,,,,
,,,,,,,,,,5ee23a0d9586fe6a598e58ea,22,Kobieta,2022-06-04_08h09.42.927,task,2021.1.4,MacIntel,64.1025641,628b806c463b948bc644b84f,629af719975b6f3d3e34ed89,,,,,3,0,3,0,1,X V Q F H G B L J M P D K C T S W R N Z,,,,,,,,,,,,,,,,,,,,,,,,,,,,,,,,,,,,,,,,,,,,,,,,,,,,,,,,,,,,,,,,,,,,,,,,,,,,,,,,,,,,,,,,,,,,,
,,,,,,,,,,5ee23a0d9586fe6a598e58ea,22,Kobieta,2022-06-04_08h09.42.927,task,2021.1.4,MacIntel,64.1025641,628b806c463b948bc644b84f,629af719975b6f3d3e34ed89,,,,,4,0,4,0,1,X V Q F H G B L J M P D K C T S W R N Z,,,,,,,,,,,,,,,,,,,,,,,,,,,,,,,,,,,,,,,,,,,,,,,,,,,,,,,,,,,,,,,,,,,,,,,,,,,,,,,,,,,,,,,,,,,,,
,,,,,,,,,,5ee23a0d9586fe6a598e58ea,22,Kobieta,2022-06-04_08h09.42.927,task,2021.1.4,MacIntel,64.1025641,628b806c463b948bc644b84f,629af719975b6f3d3e34ed89,,,,,5,0,5,0,1,X V Q F H G B L J M P D K C T S W R N Z,,,,,,,,,,,,,,,,,,,,,,,,,,,,,,,,,,,,,,,,,,,,,,,,,,,,,,,,,,,,,,,,,,,,,,,,,,,,,,,,,,,,,,,,,,,,,
,,,,,,,,,,5ee23a0d9586fe6a598e58ea,22,Kobieta,2022-06-04_08h09.42.927,task,2021.1.4,MacIntel,64.1025641,628b806c463b948bc644b84f,629af719975b6f3d3e34ed89,,,,,6,0,6,0,1,X V Q F H G B L J M P D K C T S W R N Z,,,,,,,,,,,,,,,,,,,,,,,,,,,,,,,,,,,,,,,,,,,,,,,,,,,,,,,,,,,,,,,,,,,,,,,,,,,,,,,,,,,,,,,,,,,,,
,,,,,,,,,,5ee23a0d9586fe6a598e58ea,22,Kobieta,2022-06-04_08h09.42.927,task,2021.1.4,MacIntel,64.1025641,628b806c463b948bc644b84f,629af719975b6f3d3e34ed89,,,,,7,0,7,0,1,X V Q F H G B L J M P D K C T S W R N Z,,,,,,,,,,,,,,,,,,,,,,,,,,,,,,,,,,,,,,,,,,,,,,,,,,,,,,,,,,,,,,,,,,,,,,,,,,,,,,,,,,,,,,,,,,,,,
,,,,,,,,,,5ee23a0d9586fe6a598e58ea,22,Kobieta,2022-06-04_08h09.42.927,task,2021.1.4,MacIntel,64.1025641,628b806c463b948bc644b84f,629af719975b6f3d3e34ed89,,,,,,,,,,,dvwfdxsz,"[""d"",""v"",""w"",""f"",""d"",""x"",""s"",""z""]","[1.6689999999999827,1.981999999999971,2.8880000000000337,3.9470000000000027,4.635999999999967,6.932000000000016,8.797000000000025,9.271999999999935,11.65300000000002]",0,DVWFDXSF,12,0,12,0,1,,,,,,,,,,,,,,,,,,,,,,,,,,,,,,,,,,,,,,,,,,,,,,,,,,,,,,,,,,,,,,,,,,,,,,,,,,,,,,,,,,,
,,,,,,,,,,5ee23a0d9586fe6a598e58ea,22,Kobieta,2022-06-04_08h09.42.927,task,2021.1.4,MacIntel,64.1025641,628b806c463b948bc644b84f,629af719975b6f3d3e34ed89,,,,,0,0,0,0,1,X V Q F H G B L J M P D K C T S W R N Z,,,,,,,,,,,,,,,,,,,,,,,,,,,,,,,,,,,,,,,,,,,,,,,,,,,,,,,,,,,,,,,,,,,,,,,,,,,,,,,,,,,,,,,,,,,,,
,,,,,,,,,,5ee23a0d9586fe6a598e58ea,22,Kobieta,2022-06-04_08h09.42.927,task,2021.1.4,MacIntel,64.1025641,628b806c463b948bc644b84f,629af719975b6f3d3e34ed89,,,,,1,0,1,0,1,X V Q F H G B L J M P D K C T S W R N Z,,,,,,,,,,,,,,,,,,,,,,,,,,,,,,,,,,,,,,,,,,,,,,,,,,,,,,,,,,,,,,,,,,,,,,,,,,,,,,,,,,,,,,,,,,,,,
,,,,,,,,,,5ee23a0d9586fe6a598e58ea,22,Kobieta,2022-06-04_08h09.42.927,task,2021.1.4,MacIntel,64.1025641,628b806c463b948bc644b84f,629af719975b6f3d3e34ed89,,,,,2,0,2,0,1,X V Q F H G B L J M P D K C T S W R N Z,,,,,,,,,,,,,,,,,,,,,,,,,,,,,,,,,,,,,,,,,,,,,,,,,,,,,,,,,,,,,,,,,,,,,,,,,,,,,,,,,,,,,,,,,,,,,
,,,,,,,,,,5ee23a0d9586fe6a598e58ea,22,Kobieta,2022-06-04_08h09.42.927,task,2021.1.4,MacIntel,64.1025641,628b806c463b948bc644b84f,629af719975b6f3d3e34ed89,,,,,3,0,3,0,1,X V Q F H G B L J M P D K C T S W R N Z,,,,,,,,,,,,,,,,,,,,,,,,,,,,,,,,,,,,,,,,,,,,,,,,,,,,,,,,,,,,,,,,,,,,,,,,,,,,,,,,,,,,,,,,,,,,,
,,,,,,,,,,5ee23a0d9586fe6a598e58ea,22,Kobieta,2022-06-04_08h09.42.927,task,2021.1.4,MacIntel,64.1025641,628b806c463b948bc644b84f,629af719975b6f3d3e34ed89,,,,,4,0,4,0,1,X V Q F H G B L J M P D K C T S W R N Z,,,,,,,,,,,,,,,,,,,,,,,,,,,,,,,,,,,,,,,,,,,,,,,,,,,,,,,,,,,,,,,,,,,,,,,,,,,,,,,,,,,,,,,,,,,,,
,,,,,,,,,,5ee23a0d9586fe6a598e58ea,22,Kobieta,2022-06-04_08h09.42.927,task,2021.1.4,MacIntel,64.1025641,628b806c463b948bc644b84f,629af719975b6f3d3e34ed89,,,,,5,0,5,0,1,X V Q F H G B L J M P D K C T S W R N Z,,,,,,,,,,,,,,,,,,,,,,,,,,,,,,,,,,,,,,,,,,,,,,,,,,,,,,,,,,,,,,,,,,,,,,,,,,,,,,,,,,,,,,,,,,,,,
,,,,,,,,,,5ee23a0d9586fe6a598e58ea,22,Kobieta,2022-06-04_08h09.42.927,task,2021.1.4,MacIntel,64.1025641,628b806c463b948bc644b84f,629af719975b6f3d3e34ed89,,,,,6,0,6,0,1,X V Q F H G B L J M P D K C T S W R N Z,,,,,,,,,,,,,,,,,,,,,,,,,,,,,,,,,,,,,,,,,,,,,,,,,,,,,,,,,,,,,,,,,,,,,,,,,,,,,,,,,,,,,,,,,,,,,
,,,,,,,,,,5ee23a0d9586fe6a598e58ea,22,Kobieta,2022-06-04_08h09.42.927,task,2021.1.4,MacIntel,64.1025641,628b806c463b948bc644b84f,629af719975b6f3d3e34ed89,,,,,7,0,7,0,1,X V Q F H G B L J M P D K C T S W R N Z,,,,,,,,,,,,,,,,,,,,,,,,,,,,,,,,,,,,,,,,,,,,,,,,,,,,,,,,,,,,,,,,,,,,,,,,,,,,,,,,,,,,,,,,,,,,,
,,,,,,,,,,5ee23a0d9586fe6a598e58ea,22,Kobieta,2022-06-04_08h09.42.927,task,2021.1.4,MacIntel,64.1025641,628b806c463b948bc644b84f,629af719975b6f3d3e34ed89,,,,,,,,,,,wwgqggnt,"[""w"",""w"",""g"",""q"",""g"",""g"",""n"",""t""]","[1.5,1.7200000000000273,3.106999999999971,3.8840000000000146,4.668000000000006,5.821000000000026,6.701999999999998,7.071000000000026,7.701999999999998]",1,WWGQGGNT,13,0,13,0,1,,,,,,,,,,,,,,,,,,,,,,,,,,,,,,,,,,,,,,,,,,,,,,,,,,,,,,,,,,,,,,,,,,,,,,,,,,,,,,,,,,,
,,,,,,,,,,5ee23a0d9586fe6a598e58ea,22,Kobieta,2022-06-04_08h09.42.927,task,2021.1.4,MacIntel,64.1025641,628b806c463b948bc644b84f,629af719975b6f3d3e34ed89,,,,,0,0,0,0,1,X V Q F H G B L J M P D K C T S W R N Z,,,,,,,,,,,,,,,,,,,,,,,,,,,,,,,,,,,,,,,,,,,,,,,,,,,,,,,,,,,,,,,,,,,,,,,,,,,,,,,,,,,,,,,,,,,,,
,,,,,,,,,,5ee23a0d9586fe6a598e58ea,22,Kobieta,2022-06-04_08h09.42.927,task,2021.1.4,MacIntel,64.1025641,628b806c463b948bc644b84f,629af719975b6f3d3e34ed89,,,,,1,0,1,0,1,X V Q F H G B L J M P D K C T S W R N Z,,,,,,,,,,,,,,,,,,,,,,,,,,,,,,,,,,,,,,,,,,,,,,,,,,,,,,,,,,,,,,,,,,,,,,,,,,,,,,,,,,,,,,,,,,,,,
,,,,,,,,,,5ee23a0d9586fe6a598e58ea,22,Kobieta,2022-06-04_08h09.42.927,task,2021.1.4,MacIntel,64.1025641,628b806c463b948bc644b84f,629af719975b6f3d3e34ed89,,,,,2,0,2,0,1,X V Q F H G B L J M P D K C T S W R N Z,,,,,,,,,,,,,,,,,,,,,,,,,,,,,,,,,,,,,,,,,,,,,,,,,,,,,,,,,,,,,,,,,,,,,,,,,,,,,,,,,,,,,,,,,,,,,
,,,,,,,,,,5ee23a0d9586fe6a598e58ea,22,Kobieta,2022-06-04_08h09.42.927,task,2021.1.4,MacIntel,64.1025641,628b806c463b948bc644b84f,629af719975b6f3d3e34ed89,,,,,3,0,3,0,1,X V Q F H G B L J M P D K C T S W R N Z,,,,,,,,,,,,,,,,,,,,,,,,,,,,,,,,,,,,,,,,,,,,,,,,,,,,,,,,,,,,,,,,,,,,,,,,,,,,,,,,,,,,,,,,,,,,,
,,,,,,,,,,5ee23a0d9586fe6a598e58ea,22,Kobieta,2022-06-04_08h09.42.927,task,2021.1.4,MacIntel,64.1025641,628b806c463b948bc644b84f,629af719975b6f3d3e34ed89,,,,,4,0,4,0,1,X V Q F H G B L J M P D K C T S W R N Z,,,,,,,,,,,,,,,,,,,,,,,,,,,,,,,,,,,,,,,,,,,,,,,,,,,,,,,,,,,,,,,,,,,,,,,,,,,,,,,,,,,,,,,,,,,,,
,,,,,,,,,,5ee23a0d9586fe6a598e58ea,22,Kobieta,2022-06-04_08h09.42.927,task,2021.1.4,MacIntel,64.1025641,628b806c463b948bc644b84f,629af719975b6f3d3e34ed89,,,,,5,0,5,0,1,X V Q F H G B L J M P D K C T S W R N Z,,,,,,,,,,,,,,,,,,,,,,,,,,,,,,,,,,,,,,,,,,,,,,,,,,,,,,,,,,,,,,,,,,,,,,,,,,,,,,,,,,,,,,,,,,,,,
,,,,,,,,,,5ee23a0d9586fe6a598e58ea,22,Kobieta,2022-06-04_08h09.42.927,task,2021.1.4,MacIntel,64.1025641,628b806c463b948bc644b84f,629af719975b6f3d3e34ed89,,,,,6,0,6,0,1,X V Q F H G B L J M P D K C T S W R N Z,,,,,,,,,,,,,,,,,,,,,,,,,,,,,,,,,,,,,,,,,,,,,,,,,,,,,,,,,,,,,,,,,,,,,,,,,,,,,,,,,,,,,,,,,,,,,
,,,,,,,,,,5ee23a0d9586fe6a598e58ea,22,Kobieta,2022-06-04_08h09.42.927,task,2021.1.4,MacIntel,64.1025641,628b806c463b948bc644b84f,629af719975b6f3d3e34ed89,,,,,7,0,7,0,1,X V Q F H G B L J M P D K C T S W R N Z,,,,,,,,,,,,,,,,,,,,,,,,,,,,,,,,,,,,,,,,,,,,,,,,,,,,,,,,,,,,,,,,,,,,,,,,,,,,,,,,,,,,,,,,,,,,,
,,,,,,,,,,5ee23a0d9586fe6a598e58ea,22,Kobieta,2022-06-04_08h09.42.927,task,2021.1.4,MacIntel,64.1025641,628b806c463b948bc644b84f,629af719975b6f3d3e34ed89,,,,,,,,,,,wpljxjsl,"[""w"",""p"",""l"",""j"",""x"",""j"",""s"",""l""]","[2.134999999999991,2.48599999999999,2.8170000000000073,4.883000000000038,5.225000000000023,5.57000000000005,5.9220000000000255,6.317000000000007,6.8559999999999945]",0,WPLJXJSR,14,0,14,0,1,,,,,,,,,,,,,,,,,,,,,,,,,,,,,,,,,,,,,,,,,,,,,,,,,,,,,,,,,,,,,,,,,,,,,,,,,,,,,,,,,,,
,,,,,,,,,,5ee23a0d9586fe6a598e58ea,22,Kobieta,2022-06-04_08h09.42.927,task,2021.1.4,MacIntel,64.1025641,628b806c463b948bc644b84f,629af719975b6f3d3e34ed89,,,,,0,0,0,0,1,X V Q F H G B L J M P D K C T S W R N Z,,,,,,,,,,,,,,,,,,,,,,,,,,,,,,,,,,,,,,,,,,,,,,,,,,,,,,,,,,,,,,,,,,,,,,,,,,,,,,,,,,,,,,,,,,,,,
,,,,,,,,,,5ee23a0d9586fe6a598e58ea,22,Kobieta,2022-06-04_08h09.42.927,task,2021.1.4,MacIntel,64.1025641,628b806c463b948bc644b84f,629af719975b6f3d3e34ed89,,,,,1,0,1,0,1,X V Q F H G B L J M P D K C T S W R N Z,,,,,,,,,,,,,,,,,,,,,,,,,,,,,,,,,,,,,,,,,,,,,,,,,,,,,,,,,,,,,,,,,,,,,,,,,,,,,,,,,,,,,,,,,,,,,
,,,,,,,,,,5ee23a0d9586fe6a598e58ea,22,Kobieta,2022-06-04_08h09.42.927,task,2021.1.4,MacIntel,64.1025641,628b806c463b948bc644b84f,629af719975b6f3d3e34ed89,,,,,2,0,2,0,1,X V Q F H G B L J M P D K C T S W R N Z,,,,,,,,,,,,,,,,,,,,,,,,,,,,,,,,,,,,,,,,,,,,,,,,,,,,,,,,,,,,,,,,,,,,,,,,,,,,,,,,,,,,,,,,,,,,,
,,,,,,,,,,5ee23a0d9586fe6a598e58ea,22,Kobieta,2022-06-04_08h09.42.927,task,2021.1.4,MacIntel,64.1025641,628b806c463b948bc644b84f,629af719975b6f3d3e34ed89,,,,,3,0,3,0,1,X V Q F H G B L J M P D K C T S W R N Z,,,,,,,,,,,,,,,,,,,,,,,,,,,,,,,,,,,,,,,,,,,,,,,,,,,,,,,,,,,,,,,,,,,,,,,,,,,,,,,,,,,,,,,,,,,,,
,,,,,,,,,,5ee23a0d9586fe6a598e58ea,22,Kobieta,2022-06-04_08h09.42.927,task,2021.1.4,MacIntel,64.1025641,628b806c463b948bc644b84f,629af719975b6f3d3e34ed89,,,,,4,0,4,0,1,X V Q F H G B L J M P D K C T S W R N Z,,,,,,,,,,,,,,,,,,,,,,,,,,,,,,,,,,,,,,,,,,,,,,,,,,,,,,,,,,,,,,,,,,,,,,,,,,,,,,,,,,,,,,,,,,,,,
,,,,,,,,,,5ee23a0d9586fe6a598e58ea,22,Kobieta,2022-06-04_08h09.42.927,task,2021.1.4,MacIntel,64.1025641,628b806c463b948bc644b84f,629af719975b6f3d3e34ed89,,,,,5,0,5,0,1,X V Q F H G B L J M P D K C T S W R N Z,,,,,,,,,,,,,,,,,,,,,,,,,,,,,,,,,,,,,,,,,,,,,,,,,,,,,,,,,,,,,,,,,,,,,,,,,,,,,,,,,,,,,,,,,,,,,
,,,,,,,,,,5ee23a0d9586fe6a598e58ea,22,Kobieta,2022-06-04_08h09.42.927,task,2021.1.4,MacIntel,64.1025641,628b806c463b948bc644b84f,629af719975b6f3d3e34ed89,,,,,6,0,6,0,1,X V Q F H G B L J M P D K C T S W R N Z,,,,,,,,,,,,,,,,,,,,,,,,,,,,,,,,,,,,,,,,,,,,,,,,,,,,,,,,,,,,,,,,,,,,,,,,,,,,,,,,,,,,,,,,,,,,,
,,,,,,,,,,5ee23a0d9586fe6a598e58ea,22,Kobieta,2022-06-04_08h09.42.927,task,2021.1.4,MacIntel,64.1025641,628b806c463b948bc644b84f,629af719975b6f3d3e34ed89,,,,,7,0,7,0,1,X V Q F H G B L J M P D K C T S W R N Z,,,,,,,,,,,,,,,,,,,,,,,,,,,,,,,,,,,,,,,,,,,,,,,,,,,,,,,,,,,,,,,,,,,,,,,,,,,,,,,,,,,,,,,,,,,,,
,,,,,,,,,,5ee23a0d9586fe6a598e58ea,22,Kobieta,2022-06-04_08h09.42.927,task,2021.1.4,MacIntel,64.1025641,628b806c463b948bc644b84f,629af719975b6f3d3e34ed89,,,,,,,,,,,scvgwnth,"[""s"",""c"",""v"",""g"",""w"",""n"",""t"",""h""]","[1.7350000000000136,2.0289999999999964,2.6129999999999427,3.284999999999968,3.9009999999999536,4.682999999999993,5.384999999999991,5.798999999999978,6.346000000000004]",1,SCVGWNTH,15,0,15,0,1,,,,,,,,,,,,,,,,,,,,,,,,,,,,,,,,,,,,,,,,,,,,,,,,,,,,,,,,,,,,,,,,,,,,,,,,,,,,,,,,,,,
,,,,,,,,,,5ee23a0d9586fe6a598e58ea,22,Kobieta,2022-06-04_08h09.42.927,task,2021.1.4,MacIntel,64.1025641,628b806c463b948bc644b84f,629af719975b6f3d3e34ed89,,,,,0,0,0,0,1,X V Q F H G B L J M P D K C T S W R N Z,,,,,,,,,,,,,,,,,,,,,,,,,,,,,,,,,,,,,,,,,,,,,,,,,,,,,,,,,,,,,,,,,,,,,,,,,,,,,,,,,,,,,,,,,,,,,
,,,,,,,,,,5ee23a0d9586fe6a598e58ea,22,Kobieta,2022-06-04_08h09.42.927,task,2021.1.4,MacIntel,64.1025641,628b806c463b948bc644b84f,629af719975b6f3d3e34ed89,,,,,1,0,1,0,1,X V Q F H G B L J M P D K C T S W R N Z,,,,,,,,,,,,,,,,,,,,,,,,,,,,,,,,,,,,,,,,,,,,,,,,,,,,,,,,,,,,,,,,,,,,,,,,,,,,,,,,,,,,,,,,,,,,,
,,,,,,,,,,5ee23a0d9586fe6a598e58ea,22,Kobieta,2022-06-04_08h09.42.927,task,2021.1.4,MacIntel,64.1025641,628b806c463b948bc644b84f,629af719975b6f3d3e34ed89,,,,,2,0,2,0,1,X V Q F H G B L J M P D K C T S W R N Z,,,,,,,,,,,,,,,,,,,,,,,,,,,,,,,,,,,,,,,,,,,,,,,,,,,,,,,,,,,,,,,,,,,,,,,,,,,,,,,,,,,,,,,,,,,,,
,,,,,,,,,,5ee23a0d9586fe6a598e58ea,22,Kobieta,2022-06-04_08h09.42.927,task,2021.1.4,MacIntel,64.1025641,628b806c463b948bc644b84f,629af719975b6f3d3e34ed89,,,,,3,0,3,0,1,X V Q F H G B L J M P D K C T S W R N Z,,,,,,,,,,,,,,,,,,,,,,,,,,,,,,,,,,,,,,,,,,,,,,,,,,,,,,,,,,,,,,,,,,,,,,,,,,,,,,,,,,,,,,,,,,,,,
,,,,,,,,,,5ee23a0d9586fe6a598e58ea,22,Kobieta,2022-06-04_08h09.42.927,task,2021.1.4,MacIntel,64.1025641,628b806c463b948bc644b84f,629af719975b6f3d3e34ed89,,,,,4,0,4,0,1,X V Q F H G B L J M P D K C T S W R N Z,,,,,,,,,,,,,,,,,,,,,,,,,,,,,,,,,,,,,,,,,,,,,,,,,,,,,,,,,,,,,,,,,,,,,,,,,,,,,,,,,,,,,,,,,,,,,
,,,,,,,,,,5ee23a0d9586fe6a598e58ea,22,Kobieta,2022-06-04_08h09.42.927,task,2021.1.4,MacIntel,64.1025641,628b806c463b948bc644b84f,629af719975b6f3d3e34ed89,,,,,5,0,5,0,1,X V Q F H G B L J M P D K C T S W R N Z,,,,,,,,,,,,,,,,,,,,,,,,,,,,,,,,,,,,,,,,,,,,,,,,,,,,,,,,,,,,,,,,,,,,,,,,,,,,,,,,,,,,,,,,,,,,,
,,,,,,,,,,5ee23a0d9586fe6a598e58ea,22,Kobieta,2022-06-04_08h09.42.927,task,2021.1.4,MacIntel,64.1025641,628b806c463b948bc644b84f,629af719975b6f3d3e34ed89,,,,,6,0,6,0,1,X V Q F H G B L J M P D K C T S W R N Z,,,,,,,,,,,,,,,,,,,,,,,,,,,,,,,,,,,,,,,,,,,,,,,,,,,,,,,,,,,,,,,,,,,,,,,,,,,,,,,,,,,,,,,,,,,,,
,,,,,,,,,,5ee23a0d9586fe6a598e58ea,22,Kobieta,2022-06-04_08h09.42.927,task,2021.1.4,MacIntel,64.1025641,628b806c463b948bc644b84f,629af719975b6f3d3e34ed89,,,,,7,0,7,0,1,X V Q F H G B L J M P D K C T S W R N Z,,,,,,,,,,,,,,,,,,,,,,,,,,,,,,,,,,,,,,,,,,,,,,,,,,,,,,,,,,,,,,,,,,,,,,,,,,,,,,,,,,,,,,,,,,,,,
,,,,,,,,,,5ee23a0d9586fe6a598e58ea,22,Kobieta,2022-06-04_08h09.42.927,task,2021.1.4,MacIntel,64.1025641,628b806c463b948bc644b84f,629af719975b6f3d3e34ed89,,,,,8,0,8,0,1,X V Q F H G B L J M P D K C T S W R N Z,,,,,,,,,,,,,,,,,,,,,,,,,,,,,,,,,,,,,,,,,,,,,,,,,,,,,,,,,,,,,,,,,,,,,,,,,,,,,,,,,,,,,,,,,,,,,
,,,,,,,,,,5ee23a0d9586fe6a598e58ea,22,Kobieta,2022-06-04_08h09.42.927,task,2021.1.4,MacIntel,64.1025641,628b806c463b948bc644b84f,629af719975b6f3d3e34ed89,,,,,,,,,,,llmdsbvql,"[""l"",""l"",""m"",""d"",""s"",""b"",""v"",""q"",""l""]","[1.1549999999999727,1.3870000000000573,1.7160000000000082,2.6520000000000437,3.57000000000005,4.138000000000034,4.819000000000074,5.673999999999978,6.437000000000012,7.48599999999999]",0,LMMDSBVQB,16,0,16,0,1,,,,,,,,,,,,,,,,,,,,,,,,,,,,,,,,,,,,,,,,,,,,,,,,,,,,,,,,,,,,,,,,,,,,,,,,,,,,,,,,,,,
,,,,,,,,,,5ee23a0d9586fe6a598e58ea,22,Kobieta,2022-06-04_08h09.42.927,task,2021.1.4,MacIntel,64.1025641,628b806c463b948bc644b84f,629af719975b6f3d3e34ed89,,,,,0,0,0,0,1,X V Q F H G B L J M P D K C T S W R N Z,,,,,,,,,,,,,,,,,,,,,,,,,,,,,,,,,,,,,,,,,,,,,,,,,,,,,,,,,,,,,,,,,,,,,,,,,,,,,,,,,,,,,,,,,,,,,
,,,,,,,,,,5ee23a0d9586fe6a598e58ea,22,Kobieta,2022-06-04_08h09.42.927,task,2021.1.4,MacIntel,64.1025641,628b806c463b948bc644b84f,629af719975b6f3d3e34ed89,,,,,1,0,1,0,1,X V Q F H G B L J M P D K C T S W R N Z,,,,,,,,,,,,,,,,,,,,,,,,,,,,,,,,,,,,,,,,,,,,,,,,,,,,,,,,,,,,,,,,,,,,,,,,,,,,,,,,,,,,,,,,,,,,,
,,,,,,,,,,5ee23a0d9586fe6a598e58ea,22,Kobieta,2022-06-04_08h09.42.927,task,2021.1.4,MacIntel,64.1025641,628b806c463b948bc644b84f,629af719975b6f3d3e34ed89,,,,,2,0,2,0,1,X V Q F H G B L J M P D K C T S W R N Z,,,,,,,,,,,,,,,,,,,,,,,,,,,,,,,,,,,,,,,,,,,,,,,,,,,,,,,,,,,,,,,,,,,,,,,,,,,,,,,,,,,,,,,,,,,,,
,,,,,,,,,,5ee23a0d9586fe6a598e58ea,22,Kobieta,2022-06-04_08h09.42.927,task,2021.1.4,MacIntel,64.1025641,628b806c463b948bc644b84f,629af719975b6f3d3e34ed89,,,,,3,0,3,0,1,X V Q F H G B L J M P D K C T S W R N Z,,,,,,,,,,,,,,,,,,,,,,,,,,,,,,,,,,,,,,,,,,,,,,,,,,,,,,,,,,,,,,,,,,,,,,,,,,,,,,,,,,,,,,,,,,,,,
,,,,,,,,,,5ee23a0d9586fe6a598e58ea,22,Kobieta,2022-06-04_08h09.42.927,task,2021.1.4,MacIntel,64.1025641,628b806c463b948bc644b84f,629af719975b6f3d3e34ed89,,,,,4,0,4,0,1,X V Q F H G B L J M P D K C T S W R N Z,,,,,,,,,,,,,,,,,,,,,,,,,,,,,,,,,,,,,,,,,,,,,,,,,,,,,,,,,,,,,,,,,,,,,,,,,,,,,,,,,,,,,,,,,,,,,
,,,,,,,,,,5ee23a0d9586fe6a598e58ea,22,Kobieta,2022-06-04_08h09.42.927,task,2021.1.4,MacIntel,64.1025641,628b806c463b948bc644b84f,629af719975b6f3d3e34ed89,,,,,5,0,5,0,1,X V Q F H G B L J M P D K C T S W R N Z,,,,,,,,,,,,,,,,,,,,,,,,,,,,,,,,,,,,,,,,,,,,,,,,,,,,,,,,,,,,,,,,,,,,,,,,,,,,,,,,,,,,,,,,,,,,,
,,,,,,,,,,5ee23a0d9586fe6a598e58ea,22,Kobieta,2022-06-04_08h09.42.927,task,2021.1.4,MacIntel,64.1025641,628b806c463b948bc644b84f,629af719975b6f3d3e34ed89,,,,,6,0,6,0,1,X V Q F H G B L J M P D K C T S W R N Z,,,,,,,,,,,,,,,,,,,,,,,,,,,,,,,,,,,,,,,,,,,,,,,,,,,,,,,,,,,,,,,,,,,,,,,,,,,,,,,,,,,,,,,,,,,,,
,,,,,,,,,,5ee23a0d9586fe6a598e58ea,22,Kobieta,2022-06-04_08h09.42.927,task,2021.1.4,MacIntel,64.1025641,628b806c463b948bc644b84f,629af719975b6f3d3e34ed89,,,,,7,0,7,0,1,X V Q F H G B L J M P D K C T S W R N Z,,,,,,,,,,,,,,,,,,,,,,,,,,,,,,,,,,,,,,,,,,,,,,,,,,,,,,,,,,,,,,,,,,,,,,,,,,,,,,,,,,,,,,,,,,,,,
,,,,,,,,,,5ee23a0d9586fe6a598e58ea,22,Kobieta,2022-06-04_08h09.42.927,task,2021.1.4,MacIntel,64.1025641,628b806c463b948bc644b84f,629af719975b6f3d3e34ed89,,,,,8,0,8,0,1,X V Q F H G B L J M P D K C T S W R N Z,,,,,,,,,,,,,,,,,,,,,,,,,,,,,,,,,,,,,,,,,,,,,,,,,,,,,,,,,,,,,,,,,,,,,,,,,,,,,,,,,,,,,,,,,,,,,
,,,,,,,,,,5ee23a0d9586fe6a598e58ea,22,Kobieta,2022-06-04_08h09.42.927,task,2021.1.4,MacIntel,64.1025641,628b806c463b948bc644b84f,629af719975b6f3d3e34ed89,,,,,,,,,,,dljwfncwl,"[""d"",""l"",""j"",""w"",""f"",""n"",""c"",""w"",""l""]","[1.3540000000000418,1.7360000000001037,2.399000000000001,7.083000000000084,8.120000000000005,8.68500000000006,9.081999999999994,10.017000000000053,10.43100000000004,11.168000000000006]",0,DLJWFNCWR,17,0,17,0,1,,,,,,,,,,,,,,,,,,,,,,,,,,,,,,,,,,,,,,,,,,,,,,,,,,,,,,,,,,,,,,,,,,,,,,,,,,,,,,,,,,,
,,,,,,,,,,5ee23a0d9586fe6a598e58ea,22,Kobieta,2022-06-04_08h09.42.927,task,2021.1.4,MacIntel,64.1025641,628b806c463b948bc644b84f,629af719975b6f3d3e34ed89,,,,,0,0,0,0,1,X V Q F H G B L J M P D K C T S W R N Z,,,,,,,,,,,,,,,,,,,,,,,,,,,,,,,,,,,,,,,,,,,,,,,,,,,,,,,,,,,,,,,,,,,,,,,,,,,,,,,,,,,,,,,,,,,,,
,,,,,,,,,,5ee23a0d9586fe6a598e58ea,22,Kobieta,2022-06-04_08h09.42.927,task,2021.1.4,MacIntel,64.1025641,628b806c463b948bc644b84f,629af719975b6f3d3e34ed89,,,,,1,0,1,0,1,X V Q F H G B L J M P D K C T S W R N Z,,,,,,,,,,,,,,,,,,,,,,,,,,,,,,,,,,,,,,,,,,,,,,,,,,,,,,,,,,,,,,,,,,,,,,,,,,,,,,,,,,,,,,,,,,,,,
,,,,,,,,,,5ee23a0d9586fe6a598e58ea,22,Kobieta,2022-06-04_08h09.42.927,task,2021.1.4,MacIntel,64.1025641,628b806c463b948bc644b84f,629af719975b6f3d3e34ed89,,,,,2,0,2,0,1,X V Q F H G B L J M P D K C T S W R N Z,,,,,,,,,,,,,,,,,,,,,,,,,,,,,,,,,,,,,,,,,,,,,,,,,,,,,,,,,,,,,,,,,,,,,,,,,,,,,,,,,,,,,,,,,,,,,
,,,,,,,,,,5ee23a0d9586fe6a598e58ea,22,Kobieta,2022-06-04_08h09.42.927,task,2021.1.4,MacIntel,64.1025641,628b806c463b948bc644b84f,629af719975b6f3d3e34ed89,,,,,3,0,3,0,1,X V Q F H G B L J M P D K C T S W R N Z,,,,,,,,,,,,,,,,,,,,,,,,,,,,,,,,,,,,,,,,,,,,,,,,,,,,,,,,,,,,,,,,,,,,,,,,,,,,,,,,,,,,,,,,,,,,,
,,,,,,,,,,5ee23a0d9586fe6a598e58ea,22,Kobieta,2022-06-04_08h09.42.927,task,2021.1.4,MacIntel,64.1025641,628b806c463b948bc644b84f,629af719975b6f3d3e34ed89,,,,,4,0,4,0,1,X V Q F H G B L J M P D K C T S W R N Z,,,,,,,,,,,,,,,,,,,,,,,,,,,,,,,,,,,,,,,,,,,,,,,,,,,,,,,,,,,,,,,,,,,,,,,,,,,,,,,,,,,,,,,,,,,,,
,,,,,,,,,,5ee23a0d9586fe6a598e58ea,22,Kobieta,2022-06-04_08h09.42.927,task,2021.1.4,MacIntel,64.1025641,628b806c463b948bc644b84f,629af719975b6f3d3e34ed89,,,,,5,0,5,0,1,X V Q F H G B L J M P D K C T S W R N Z,,,,,,,,,,,,,,,,,,,,,,,,,,,,,,,,,,,,,,,,,,,,,,,,,,,,,,,,,,,,,,,,,,,,,,,,,,,,,,,,,,,,,,,,,,,,,
,,,,,,,,,,5ee23a0d9586fe6a598e58ea,22,Kobieta,2022-06-04_08h09.42.927,task,2021.1.4,MacIntel,64.1025641,628b806c463b948bc644b84f,629af719975b6f3d3e34ed89,,,,,6,0,6,0,1,X V Q F H G B L J M P D K C T S W R N Z,,,,,,,,,,,,,,,,,,,,,,,,,,,,,,,,,,,,,,,,,,,,,,,,,,,,,,,,,,,,,,,,,,,,,,,,,,,,,,,,,,,,,,,,,,,,,
,,,,,,,,,,5ee23a0d9586fe6a598e58ea,22,Kobieta,2022-06-04_08h09.42.927,task,2021.1.4,MacIntel,64.1025641,628b806c463b948bc644b84f,629af719975b6f3d3e34ed89,,,,,7,0,7,0,1,X V Q F H G B L J M P D K C T S W R N Z,,,,,,,,,,,,,,,,,,,,,,,,,,,,,,,,,,,,,,,,,,,,,,,,,,,,,,,,,,,,,,,,,,,,,,,,,,,,,,,,,,,,,,,,,,,,,
,,,,,,,,,,5ee23a0d9586fe6a598e58ea,22,Kobieta,2022-06-04_08h09.42.927,task,2021.1.4,MacIntel,64.1025641,628b806c463b948bc644b84f,629af719975b6f3d3e34ed89,,,,,8,0,8,0,1,X V Q F H G B L J M P D K C T S W R N Z,,,,,,,,,,,,,,,,,,,,,,,,,,,,,,,,,,,,,,,,,,,,,,,,,,,,,,,,,,,,,,,,,,,,,,,,,,,,,,,,,,,,,,,,,,,,,
,,,,,,,,,,5ee23a0d9586fe6a598e58ea,22,Kobieta,2022-06-04_08h09.42.927,task,2021.1.4,MacIntel,64.1025641,628b806c463b948bc644b84f,629af719975b6f3d3e34ed89,,,,,,,,,,,xjvceftjk,"[""x"",""j"",""v"",""c"",""e"",""f"",""t"",""j"",""k""]","[6.518000000000029,6.953000000000088,7.522000000000048,8.437000000000012,10.403999999999996,10.753000000000043,11.886000000000081,12.317000000000007,12.572000000000003,13.336999999999989]",0,XVNQRTFJK,18,0,18,0,1,,,,,,,,,,,,,,,,,,,,,,,,,,,,,,,,,,,,,,,,,,,,,,,,,,,,,,,,,,,,,,,,,,,,,,,,,,,,,,,,,,,
,,,,,,,,,,5ee23a0d9586fe6a598e58ea,22,Kobieta,2022-06-04_08h09.42.927,task,2021.1.4,MacIntel,64.1025641,628b806c463b948bc644b84f,629af719975b6f3d3e34ed89,,,,,,,,,,,,,,,,,,,,,space,11.389,9,"[""9""]",1,[2.980000000000018],[2.980000000000018],0,0,0,9,1,Practice,10,(20/2) - 1,9,,,,,,,,,,,,,,,,,,,,,,,,,,,,,,,,,,,,,,,,,,,,,,,,,,,,,,,,,,,,,,,,,,,
,,,,,,,,,,5ee23a0d9586fe6a598e58ea,22,Kobieta,2022-06-04_08h09.42.927,task,2021.1.4,MacIntel,64.1025641,628b806c463b948bc644b84f,629af719975b6f3d3e34ed89,,,,,,,,,,,,,,,,,,,,,,,6,"[""6""]",1,[3.187999999999988],"[2.980000000000018,3.187999999999988]",0,1,1,6,1,Practice,7,(25/5) + 1,6,,,,,,,,,,,,,,,,,,,,,,,,,,,,,,,,,,,,,,,,,,,,,,,,,,,,,,,,,,,,,,,,,,,
,,,,,,,,,,5ee23a0d9586fe6a598e58ea,22,Kobieta,2022-06-04_08h09.42.927,task,2021.1.4,MacIntel,64.1025641,628b806c463b948bc644b84f,629af719975b6f3d3e34ed89,,,,,,,,,,,,,,,,,,,,,,,7,"[""7""]",1,[4.47199999999998],"[2.980000000000018,3.187999999999988,4.47199999999998]",0,2,2,7,1,Practice,8,(5x5) - 18,7,,,,,,,,,,,,,,,,,,,,,,,,,,,,,,,,,,,,,,,,,,,,,,,,,,,,,,,,,,,,,,,,,,,
,,,,,,,,,,5ee23a0d9586fe6a598e58ea,22,Kobieta,2022-06-04_08h09.42.927,task,2021.1.4,MacIntel,64.1025641,628b806c463b948bc644b84f,629af719975b6f3d3e34ed89,,,,,,,,,,,,,,,,,,,,,,,2,"[""2""]",1,[2.9029999999999063],"[2.980000000000018,3.187999999999988,4.47199999999998,2.9029999999999063]",0,3,3,2,1,Practice,3,(4x4) - 14,2,,,,,,,,,,,,,,,,,,,,,,,,,,,,,,,,,,,,,,,,,,,,,,,,,,,,,,,,,,,,,,,,,,,
,,,,,,,,,,5ee23a0d9586fe6a598e58ea,22,Kobieta,2022-06-04_08h09.42.927,task,2021.1.4,MacIntel,64.1025641,628b806c463b948bc644b84f,629af719975b6f3d3e34ed89,,,,,,,,,,,,,,,,,,,,,,,4,"[""4""]",1,[2.63799999999992],"[2.980000000000018,3.187999999999988,4.47199999999998,2.9029999999999063,2.63799999999992]",0,4,4,4,1,Practice,5,(2x6) - 8,4,,,,,,,,,,,,,,,,,,,,,,,,,,,,,,,,,,,,,,,,,,,,,,,,,,,,,,,,,,,,,,,,,,,
,,,,,,,,,,5ee23a0d9586fe6a598e58ea,22,Kobieta,2022-06-04_08h09.42.927,task,2021.1.4,MacIntel,64.1025641,628b806c463b948bc644b84f,629af719975b6f3d3e34ed89,,,,,,,,,,,,,,,,,,,,,,,8,"[""8""]",1,[2.0720000000000027],"[2.980000000000018,3.187999999999988,4.47199999999998,2.9029999999999063,2.63799999999992,2.0720000000000027]",0,5,5,8,1,Practice,9,(3x3) - 1,8,,,,,,,,,,,,,,,,,,,,,,,,,,,,,,,,,,,,,,,,,,,,,,,,,,,,,,,,,,,,,,,,,,,
,,,,,,,,,,5ee23a0d9586fe6a598e58ea,22,Kobieta,2022-06-04_08h09.42.927,task,2021.1.4,MacIntel,64.1025641,628b806c463b948bc644b84f,629af719975b6f3d3e34ed89,,,,,,,,,,,,,,,,,,,,,,,0,"[""0""]",1,[1.8700000000000045],"[2.980000000000018,3.187999999999988,4.47199999999998,2.9029999999999063,2.63799999999992,2.0720000000000027,1.8700000000000045]",0,6,6,0,1,Practice,1,(3x3) -  9,0,,,,,,,,,,,,,,,,,,,,,,,,,,,,,,,,,,,,,,,,,,,,,,,,,,,,,,,,,,,,,,,,,,,
,,,,,,,,,,5ee23a0d9586fe6a598e58ea,22,Kobieta,2022-06-04_08h09.42.927,task,2021.1.4,MacIntel,64.1025641,628b806c463b948bc644b84f,629af719975b6f3d3e34ed89,,,,,,,,,,,,,,,,,,,,,,,3,"[""3""]",1,[2.9010000000000673],"[2.980000000000018,3.187999999999988,4.47199999999998,2.9029999999999063,2.63799999999992,2.0720000000000027,1.8700000000000045,2.9010000000000673]",0,7,7,3,1,Practice,4,(8/4) + 1,3,,,,,,,,,,,,,,,,,,,,,,,,,,,,,,,,,,,,,,,,,,,,,,,,,,,,,,,,,,,,,,,,,,,
,,,,,,,,,,5ee23a0d9586fe6a598e58ea,22,Kobieta,2022-06-04_08h09.42.927,task,2021.1.4,MacIntel,64.1025641,628b806c463b948bc644b84f,629af719975b6f3d3e34ed89,,,,,,,,,,,,,,,,,,,,,,,5,"[""5""]",1,[2.772000000000048],"[2.980000000000018,3.187999999999988,4.47199999999998,2.9029999999999063,2.63799999999992,2.0720000000000027,1.8700000000000045,2.9010000000000673,2.772000000000048]",0,8,8,5,1,Practice,6,(4/2) + 3,5,,,,,,,,,,,,,,,,,,,,,,,,,,,,,,,,,,,,,,,,,,,,,,,,,,,,,,,,,,,,,,,,,,,
,,,,,,,,,,5ee23a0d9586fe6a598e58ea,22,Kobieta,2022-06-04_08h09.42.927,task,2021.1.4,MacIntel,64.1025641,628b806c463b948bc644b84f,629af719975b6f3d3e34ed89,,,,,,,,,,,,,,,,,,,,,,,1,"[""1""]",1,[2.54200000000003],"[2.980000000000018,3.187999999999988,4.47199999999998,2.9029999999999063,2.63799999999992,2.0720000000000027,1.8700000000000045,2.9010000000000673,2.772000000000048,2.54200000000003]",0,9,9,1,1,Practice,2,(4x4) - 15,1,,,,,,,,,,,,,,,,,,,,,,,,,,,,,,,,,,,,,,,,,,,,,,,,,,,,,,,,,,,,,,,,,,,
,,,,,,,,,,5ee23a0d9586fe6a598e58ea,22,Kobieta,2022-06-04_08h09.42.927,task,2021.1.4,MacIntel,64.1025641,628b806c463b948bc644b84f,629af719975b6f3d3e34ed89,,,,,,,,,,,,,,,,,,,,,,,,,,,,,,,,,,,,,1,28.338,1.8892,13.3990812,0.945130721,4.32763726,space,3.653,0,0,0,0,1,,,,,,,,,,,,,,,,,,,,,,,,,,,,,,,,,,,,,,,,,,,,,,,,,,,,,,
,,,,,,,,,,5ee23a0d9586fe6a598e58ea,22,Kobieta,2022-06-04_08h09.42.927,task,2021.1.4,MacIntel,64.1025641,628b806c463b948bc644b84f,629af719975b6f3d3e34ed89,,,,,,,,,,,,,,,,,,,,,,,,,,,,,,,,,Practice,7,(25/5) + 1,6,,,,,,,,,,,,,,space,37.726,,0,0,0,0,0,6,1,,,,,,,,,,,,,,,,,,,,,,,,,,,,,,,,,,,,,,,,,,,,
,,,,,,,,,,5ee23a0d9586fe6a598e58ea,22,Kobieta,2022-06-04_08h09.42.927,task,2021.1.4,MacIntel,64.1025641,628b806c463b948bc644b84f,629af719975b6f3d3e34ed89,,,,,,,,,,,,,,,,,,,,,,,8,,,,,,,,,,Practice,9,(3x3) - 1,8,,,,,,,,,,,,,,,,"[""8""]",1,1,0,1,1,8,1,[2.83299999999997],,,,,,,,,,,,,,,,,,,,,,,,,,,,,,,,,,,,,,,,,,,
,,,,,,,,,,5ee23a0d9586fe6a598e58ea,22,Kobieta,2022-06-04_08h09.42.927,task,2021.1.4,MacIntel,64.1025641,628b806c463b948bc644b84f,629af719975b6f3d3e34ed89,,,,,,,,,,X V Q F H G B L J M P D K C T S W R N Z,,,,,,,,,,,,,,,,,,,,,,,,,,,,,,,,,,,,,,,,,,,,,,,,,,,0,0,0,0,1,,,,,,,,,,,,,,,,,,,,,,,,,,,,,,,,,,,,,,
,,,,,,,,,,5ee23a0d9586fe6a598e58ea,22,Kobieta,2022-06-04_08h09.42.927,task,2021.1.4,MacIntel,64.1025641,628b806c463b948bc644b84f,629af719975b6f3d3e34ed89,,,,,,,,,,,,,,,,,,,,,,,8,,,,,,,,,,Practice,9,(3x3) - 1,8,,,,,,,,,,,,,,,,"[""8""]",1,1,0,0,0,8,1,[3.1059999999999945],,,,,,,,,,,,,,,,,,,,,,,,,,,,,,,,,,,,,,,,,,,
,,,,,,,,,,5ee23a0d9586fe6a598e58ea,22,Kobieta,2022-06-04_08h09.42.927,task,2021.1.4,MacIntel,64.1025641,628b806c463b948bc644b84f,629af719975b6f3d3e34ed89,,,,,,,,,,X V Q F H G B L J M P D K C T S W R N Z,,,,,,,,,,,,,,,,,,,,,,,,,,,,,,,,,,,,,,,,,,,,,,,,,,,1,0,1,0,1,,,,,,,,,,,,,,,,,,,,,,,,,,,,,,,,,,,,,,
,,,,,,,,,,5ee23a0d9586fe6a598e58ea,22,Kobieta,2022-06-04_08h09.42.927,task,2021.1.4,MacIntel,64.1025641,628b806c463b948bc644b84f,629af719975b6f3d3e34ed89,,,,,,,,,,,,,,,,,,,,,,,,,,,,,,,,,,,,,,,,,,,,,,,,,,,,,,,,,,,,,,,,,,zf,"[""z"",""f""]",0,"[2.45799999999997,3.006999999999948,5.008999999999901]",1,0,0,0,0,1,,,,,,,,,,,,,,,,,,,,,,,,,,,,
,,,,,,,,,,5ee23a0d9586fe6a598e58ea,22,Kobieta,2022-06-04_08h09.42.927,task,2021.1.4,MacIntel,64.1025641,628b806c463b948bc644b84f,629af719975b6f3d3e34ed89,,,,,,,,,,,,,,,,,,,,,,,4,,,,,,,,,,Practice,5,(2x6) - 8,4,,,,,,,,,,,,,,,,"[""4""]",1,1,0,0,0,4,1,[2.6840000000000828],,,,,,,,,,,,,,,,,,,,,,,,,,,,,,,,,,,,,,,,,,,
,,,,,,,,,,5ee23a0d9586fe6a598e58ea,22,Kobieta,2022-06-04_08h09.42.927,task,2021.1.4,MacIntel,64.1025641,628b806c463b948bc644b84f,629af719975b6f3d3e34ed89,,,,,,,,,,X V Q F H G B L J M P D K C T S W R N Z,,,,,,,,,,,,,,,,,,,,,,,,,,,,,,,,,,,,,,,,,,,,,,,,,,,0,0,0,0,1,,,,,,,,,,,,,,,,,,,,,,,,,,,,,,,,,,,,,,
,,,,,,,,,,5ee23a0d9586fe6a598e58ea,22,Kobieta,2022-06-04_08h09.42.927,task,2021.1.4,MacIntel,64.1025641,628b806c463b948bc644b84f,629af719975b6f3d3e34ed89,,,,,,,,,,,,,,,,,,,,,,,1,,,,,,,,,,Practice,2,(4x4) - 15,1,,,,,,,,,,,,,,,,"[""1""]",1,1,0,0,0,1,1,[1.907000000000039],,,,,,,,,,,,,,,,,,,,,,,,,,,,,,,,,,,,,,,,,,,
,,,,,,,,,,5ee23a0d9586fe6a598e58ea,22,Kobieta,2022-06-04_08h09.42.927,task,2021.1.4,MacIntel,64.1025641,628b806c463b948bc644b84f,629af719975b6f3d3e34ed89,,,,,,,,,,X V Q F H G B L J M P D K C T S W R N Z,,,,,,,,,,,,,,,,,,,,,,,,,,,,,,,,,,,,,,,,,,,,,,,,,,,1,0,1,0,1,,,,,,,,,,,,,,,,,,,,,,,,,,,,,,,,,,,,,,
,,,,,,,,,,5ee23a0d9586fe6a598e58ea,22,Kobieta,2022-06-04_08h09.42.927,task,2021.1.4,MacIntel,64.1025641,628b806c463b948bc644b84f,629af719975b6f3d3e34ed89,,,,,,,,,,,,,,,,,,,,,,,,,,,,,,,,,,,,,,,,,,,,,,,,,,,,,,,,,,,,,,,,,,nl,"[""n"",""l""]",0,"[3.356999999999971,3.7069999999999936,4.384999999999991]",0,1,0,1,0,1,,,,,,,,,,,,,,,,,,,,,,,,,,,,
,,,,,,,,,,5ee23a0d9586fe6a598e58ea,22,Kobieta,2022-06-04_08h09.42.927,task,2021.1.4,MacIntel,64.1025641,628b806c463b948bc644b84f,629af719975b6f3d3e34ed89,,,,,,,,,,,,,,,,,,,,,,,3,,,,,,,,,,Practice,4,(8/4) + 1,3,,,,,,,,,,,,,,,,"[""3""]",1,1,0,0,0,3,1,[4.123000000000047],,,,,,,,,,,,,,,,,,,,,,,,,,,,,,,,,,,,,,,,,,,
,,,,,,,,,,5ee23a0d9586fe6a598e58ea,22,Kobieta,2022-06-04_08h09.42.927,task,2021.1.4,MacIntel,64.1025641,628b806c463b948bc644b84f,629af719975b6f3d3e34ed89,,,,,,,,,,X V Q F H G B L J M P D K C T S W R N Z,,,,,,,,,,,,,,,,,,,,,,,,,,,,,,,,,,,,,,,,,,,,,,,,,,,0,0,0,0,1,,,,,,,,,,,,,,,,,,,,,,,,,,,,,,,,,,,,,,
,,,,,,,,,,5ee23a0d9586fe6a598e58ea,22,Kobieta,2022-06-04_08h09.42.927,task,2021.1.4,MacIntel,64.1025641,628b806c463b948bc644b84f,629af719975b6f3d3e34ed89,,,,,,,,,,,,,,,,,,,,,,,9,,,,,,,,,,Practice,10,(20/2) - 1,9,,,,,,,,,,,,,,,,"[""9""]",1,1,0,0,0,9,1,[3.3719999999999573],,,,,,,,,,,,,,,,,,,,,,,,,,,,,,,,,,,,,,,,,,,
,,,,,,,,,,5ee23a0d9586fe6a598e58ea,22,Kobieta,2022-06-04_08h09.42.927,task,2021.1.4,MacIntel,64.1025641,628b806c463b948bc644b84f,629af719975b6f3d3e34ed89,,,,,,,,,,X V Q F H G B L J M P D K C T S W R N Z,,,,,,,,,,,,,,,,,,,,,,,,,,,,,,,,,,,,,,,,,,,,,,,,,,,1,0,1,0,1,,,,,,,,,,,,,,,,,,,,,,,,,,,,,,,,,,,,,,
,,,,,,,,,,5ee23a0d9586fe6a598e58ea,22,Kobieta,2022-06-04_08h09.42.927,task,2021.1.4,MacIntel,64.1025641,628b806c463b948bc644b84f,629af719975b6f3d3e34ed89,,,,,,,,,,,,,,,,,,,,,,,,,,,,,,,,,,,,,,,,,,,,,,,,,,,,,,,,,,,,,,,,,,nq,"[""n"",""q""]",0,"[1.933999999999969,2.5529999999999973,3.034999999999968]",1,2,0,2,0,1,,,,,,,,,,,,,,,,,,,,,,,,,,,,
,,,,,,,,,,5ee23a0d9586fe6a598e58ea,22,Kobieta,2022-06-04_08h09.42.927,task,2021.1.4,MacIntel,64.1025641,628b806c463b948bc644b84f,629af719975b6f3d3e34ed89,,,,,,,,,,,,,,,,,,,,,,,5,,,,,,,,,,Practice,6,(4/2) + 3,5,,,,,,,,,,,,,,,,"[""5""]",1,1,0,0,0,5,1,[3.606999999999971],,,,,,,,,,,,,,,,,,,,,,,,,,,,,,,,,,,,,,,,,,,
,,,,,,,,,,5ee23a0d9586fe6a598e58ea,22,Kobieta,2022-06-04_08h09.42.927,task,2021.1.4,MacIntel,64.1025641,628b806c463b948bc644b84f,629af719975b6f3d3e34ed89,,,,,,,,,,X V Q F H G B L J M P D K C T S W R N Z,,,,,,,,,,,,,,,,,,,,,,,,,,,,,,,,,,,,,,,,,,,,,,,,,,,0,0,0,0,1,,,,,,,,,,,,,,,,,,,,,,,,,,,,,,,,,,,,,,
,,,,,,,,,,5ee23a0d9586fe6a598e58ea,22,Kobieta,2022-06-04_08h09.42.927,task,2021.1.4,MacIntel,64.1025641,628b806c463b948bc644b84f,629af719975b6f3d3e34ed89,,,,,,,,,,,,,,,,,,,,,,,8,,,,,,,,,,Practice,9,(3x3) - 1,8,,,,,,,,,,,,,,,,"[""8""]",1,1,0,0,0,8,1,[1.955000000000041],,,,,,,,,,,,,,,,,,,,,,,,,,,,,,,,,,,,,,,,,,,
,,,,,,,,,,5ee23a0d9586fe6a598e58ea,22,Kobieta,2022-06-04_08h09.42.927,task,2021.1.4,MacIntel,64.1025641,628b806c463b948bc644b84f,629af719975b6f3d3e34ed89,,,,,,,,,,X V Q F H G B L J M P D K C T S W R N Z,,,,,,,,,,,,,,,,,,,,,,,,,,,,,,,,,,,,,,,,,,,,,,,,,,,1,0,1,0,1,,,,,,,,,,,,,,,,,,,,,,,,,,,,,,,,,,,,,,
,,,,,,,,,,5ee23a0d9586fe6a598e58ea,22,Kobieta,2022-06-04_08h09.42.927,task,2021.1.4,MacIntel,64.1025641,628b806c463b948bc644b84f,629af719975b6f3d3e34ed89,,,,,,,,,,,,,,,,,,,,,,,,,,,,,,,,,,,,,,,,,,,,,,,,,,,,,,,,,,,,,,,,,,gj,"[""g"",""j""]",0,"[1.967999999999961,2.191000000000031,2.6580000000000155]",1,3,0,3,0,1,,,,,,,,,,,,,,,,,,,,,,,,,,,,
,,,,,,,,,,5ee23a0d9586fe6a598e58ea,22,Kobieta,2022-06-04_08h09.42.927,task,2021.1.4,MacIntel,64.1025641,628b806c463b948bc644b84f,629af719975b6f3d3e34ed89,,,,,,,,,,,,,,,,,,,,,,,1,,,,,,,,,,Practice,2,(4x4) - 15,1,,,,,,,,,,,,,,,,"[""1""]",1,1,0,0,0,1,1,[2.034999999999968],,,,,,,,,,,,,,,,,,,,,,,,,,,,,,,,,,,,,,,,,,,
,,,,,,,,,,5ee23a0d9586fe6a598e58ea,22,Kobieta,2022-06-04_08h09.42.927,task,2021.1.4,MacIntel,64.1025641,628b806c463b948bc644b84f,629af719975b6f3d3e34ed89,,,,,,,,,,X V Q F H G B L J M P D K C T S W R N Z,,,,,,,,,,,,,,,,,,,,,,,,,,,,,,,,,,,,,,,,,,,,,,,,,,,0,0,0,0,1,,,,,,,,,,,,,,,,,,,,,,,,,,,,,,,,,,,,,,
,,,,,,,,,,5ee23a0d9586fe6a598e58ea,22,Kobieta,2022-06-04_08h09.42.927,task,2021.1.4,MacIntel,64.1025641,628b806c463b948bc644b84f,629af719975b6f3d3e34ed89,,,,,,,,,,,,,,,,,,,,,,,6,,,,,,,,,,Practice,8,(5x5) - 18,7,,,,,,,,,,,,,,,,"[""6""]",0,0,0,0,0,7,1,[3],,,,,,,,,,,,,,,,,,,,,,,,,,,,,,,,,,,,,,,,,,,
,,,,,,,,,,5ee23a0d9586fe6a598e58ea,22,Kobieta,2022-06-04_08h09.42.927,task,2021.1.4,MacIntel,64.1025641,628b806c463b948bc644b84f,629af719975b6f3d3e34ed89,,,,,,,,,,,,,,,,,,,,,,,5,,,,,,,,,,Practice,6,(4/2) + 3,5,,,,,,,,,,,,,,,,"[""5""]",1,1,0,1,1,5,1,[3.884999999999991],,,,,,,,,,,,,,,,,,,,,,,,,,,,,,,,,,,,,,,,,,,
,,,,,,,,,,5ee23a0d9586fe6a598e58ea,22,Kobieta,2022-06-04_08h09.42.927,task,2021.1.4,MacIntel,64.1025641,628b806c463b948bc644b84f,629af719975b6f3d3e34ed89,,,,,,,,,,X V Q F H G B L J M P D K C T S W R N Z,,,,,,,,,,,,,,,,,,,,,,,,,,,,,,,,,,,,,,,,,,,,,,,,,,,1,0,1,0,1,,,,,,,,,,,,,,,,,,,,,,,,,,,,,,,,,,,,,,
,,,,,,,,,,5ee23a0d9586fe6a598e58ea,22,Kobieta,2022-06-04_08h09.42.927,task,2021.1.4,MacIntel,64.1025641,628b806c463b948bc644b84f,629af719975b6f3d3e34ed89,,,,,,,,,,,,,,,,,,,,,,,,,,,,,,,,,,,,,,,,,,,,,,,,,,,,,,,,,,,,,,,,,,gm,"[""g"",""m""]",0,"[4.151000000000067,4.768000000000029,5.206999999999994]",0,4,0,4,0,1,,,,,,,,,,,,,,,,,,,,,,,,,,,,
,,,,,,,,,,5ee23a0d9586fe6a598e58ea,22,Kobieta,2022-06-04_08h09.42.927,task,2021.1.4,MacIntel,64.1025641,628b806c463b948bc644b84f,629af719975b6f3d3e34ed89,,,,,,,,,,,,,,,,,,,,,,,8,,,,,,,,,,Practice,9,(3x3) - 1,8,,,,,,,,,,,,,,,,"[""8""]",1,1,0,0,0,8,1,[1.9209999999999354],,,,,,,,,,,,,,,,,,,,,,,,,,,,,,,,,,,,,,,,,,,
,,,,,,,,,,5ee23a0d9586fe6a598e58ea,22,Kobieta,2022-06-04_08h09.42.927,task,2021.1.4,MacIntel,64.1025641,628b806c463b948bc644b84f,629af719975b6f3d3e34ed89,,,,,,,,,,X V Q F H G B L J M P D K C T S W R N Z,,,,,,,,,,,,,,,,,,,,,,,,,,,,,,,,,,,,,,,,,,,,,,,,,,,0,0,0,0,1,,,,,,,,,,,,,,,,,,,,,,,,,,,,,,,,,,,,,,
,,,,,,,,,,5ee23a0d9586fe6a598e58ea,22,Kobieta,2022-06-04_08h09.42.927,task,2021.1.4,MacIntel,64.1025641,628b806c463b948bc644b84f,629af719975b6f3d3e34ed89,,,,,,,,,,,,,,,,,,,,,,,7,,,,,,,,,,Practice,8,(5x5) - 18,7,,,,,,,,,,,,,,,,"[""7""]",1,1,0,0,0,7,1,[3.772000000000048],,,,,,,,,,,,,,,,,,,,,,,,,,,,,,,,,,,,,,,,,,,
,,,,,,,,,,5ee23a0d9586fe6a598e58ea,22,Kobieta,2022-06-04_08h09.42.927,task,2021.1.4,MacIntel,64.1025641,628b806c463b948bc644b84f,629af719975b6f3d3e34ed89,,,,,,,,,,X V Q F H G B L J M P D K C T S W R N Z,,,,,,,,,,,,,,,,,,,,,,,,,,,,,,,,,,,,,,,,,,,,,,,,,,,1,0,1,0,1,,,,,,,,,,,,,,,,,,,,,,,,,,,,,,,,,,,,,,
,,,,,,,,,,5ee23a0d9586fe6a598e58ea,22,Kobieta,2022-06-04_08h09.42.927,task,2021.1.4,MacIntel,64.1025641,628b806c463b948bc644b84f,629af719975b6f3d3e34ed89,,,,,,,,,,,,,,,,,,,,,,,,,,,,,,,,,,,,,,,,,,,,,,,,,,,,,,,,,,,,,,,,,,zn,"[""z"",""n""]",0,"[2.008000000000038,2.4060000000000628,2.935000000000059]",1,5,0,5,0,1,,,,,,,,,,,,,,,,,,,,,,,,,,,,
,,,,,,,,,,5ee23a0d9586fe6a598e58ea,22,Kobieta,2022-06-04_08h09.42.927,task,2021.1.4,MacIntel,64.1025641,628b806c463b948bc644b84f,629af719975b6f3d3e34ed89,,,,,,,,,,,,,,,,,,,,,,,5,,,,,,,,,,Practice,6,(4/2) + 3,5,,,,,,,,,,,,,,,,"[""5""]",1,1,0,0,0,5,1,[1.8070000000000164],,,,,,,,,,,,,,,,,,,,,,,,,,,,,,,,,,,,,,,,,,,
,,,,,,,,,,5ee23a0d9586fe6a598e58ea,22,Kobieta,2022-06-04_08h09.42.927,task,2021.1.4,MacIntel,64.1025641,628b806c463b948bc644b84f,629af719975b6f3d3e34ed89,,,,,,,,,,X V Q F H G B L J M P D K C T S W R N Z,,,,,,,,,,,,,,,,,,,,,,,,,,,,,,,,,,,,,,,,,,,,,,,,,,,0,0,0,0,1,,,,,,,,,,,,,,,,,,,,,,,,,,,,,,,,,,,,,,
,,,,,,,,,,5ee23a0d9586fe6a598e58ea,22,Kobieta,2022-06-04_08h09.42.927,task,2021.1.4,MacIntel,64.1025641,628b806c463b948bc644b84f,629af719975b6f3d3e34ed89,,,,,,,,,,,,,,,,,,,,,,,0,,,,,,,,,,Practice,1,(3x3) -  9,0,,,,,,,,,,,,,,,,"[""0""]",1,1,0,0,0,0,1,[1.683999999999969],,,,,,,,,,,,,,,,,,,,,,,,,,,,,,,,,,,,,,,,,,,
,,,,,,,,,,5ee23a0d9586fe6a598e58ea,22,Kobieta,2022-06-04_08h09.42.927,task,2021.1.4,MacIntel,64.1025641,628b806c463b948bc644b84f,629af719975b6f3d3e34ed89,,,,,,,,,,X V Q F H G B L J M P D K C T S W R N Z,,,,,,,,,,,,,,,,,,,,,,,,,,,,,,,,,,,,,,,,,,,,,,,,,,,1,0,1,0,1,,,,,,,,,,,,,,,,,,,,,,,,,,,,,,,,,,,,,,
,,,,,,,,,,5ee23a0d9586fe6a598e58ea,22,Kobieta,2022-06-04_08h09.42.927,task,2021.1.4,MacIntel,64.1025641,628b806c463b948bc644b84f,629af719975b6f3d3e34ed89,,,,,,,,,,,,,,,,,,,,,,,,,,,,,,,,,,,,,,,,,,,,,,,,,,,,,,,,,,,,,,,,,,zd,"[""z"",""d""]",0,"[1.822999999999979,2.29200000000003,3.203999999999951]",1,6,0,6,0,1,,,,,,,,,,,,,,,,,,,,,,,,,,,,
,,,,,,,,,,5ee23a0d9586fe6a598e58ea,22,Kobieta,2022-06-04_08h09.42.927,task,2021.1.4,MacIntel,64.1025641,628b806c463b948bc644b84f,629af719975b6f3d3e34ed89,,,,,,,,,,,,,,,,,,,,,,,3,,,,,,,,,,Practice,4,(8/4) + 1,3,,,,,,,,,,,,,,,,"[""3""]",1,1,0,0,0,3,1,[2.6680000000000064],,,,,,,,,,,,,,,,,,,,,,,,,,,,,,,,,,,,,,,,,,,
,,,,,,,,,,5ee23a0d9586fe6a598e58ea,22,Kobieta,2022-06-04_08h09.42.927,task,2021.1.4,MacIntel,64.1025641,628b806c463b948bc644b84f,629af719975b6f3d3e34ed89,,,,,,,,,,X V Q F H G B L J M P D K C T S W R N Z,,,,,,,,,,,,,,,,,,,,,,,,,,,,,,,,,,,,,,,,,,,,,,,,,,,0,0,0,0,1,,,,,,,,,,,,,,,,,,,,,,,,,,,,,,,,,,,,,,
,,,,,,,,,,5ee23a0d9586fe6a598e58ea,22,Kobieta,2022-06-04_08h09.42.927,task,2021.1.4,MacIntel,64.1025641,628b806c463b948bc644b84f,629af719975b6f3d3e34ed89,,,,,,,,,,,,,,,,,,,,,,,4,,,,,,,,,,Practice,5,(2x6) - 8,4,,,,,,,,,,,,,,,,"[""4""]",1,1,0,0,0,4,1,[3.669999999999959],,,,,,,,,,,,,,,,,,,,,,,,,,,,,,,,,,,,,,,,,,,
,,,,,,,,,,5ee23a0d9586fe6a598e58ea,22,Kobieta,2022-06-04_08h09.42.927,task,2021.1.4,MacIntel,64.1025641,628b806c463b948bc644b84f,629af719975b6f3d3e34ed89,,,,,,,,,,X V Q F H G B L J M P D K C T S W R N Z,,,,,,,,,,,,,,,,,,,,,,,,,,,,,,,,,,,,,,,,,,,,,,,,,,,1,0,1,0,1,,,,,,,,,,,,,,,,,,,,,,,,,,,,,,,,,,,,,,
,,,,,,,,,,5ee23a0d9586fe6a598e58ea,22,Kobieta,2022-06-04_08h09.42.927,task,2021.1.4,MacIntel,64.1025641,628b806c463b948bc644b84f,629af719975b6f3d3e34ed89,,,,,,,,,,,,,,,,,,,,,,,,,,,,,,,,,,,,,,,,,,,,,,,,,,,,,,,,,,,,,,,,,,nl,"[""n"",""l""]",0,"[1.3390000000000555,1.6730000000000018,2.3170000000000073]",1,7,0,7,0,1,,,,,,,,,,,,,,,,,,,,,,,,,,,,
,,,,,,,,,,5ee23a0d9586fe6a598e58ea,22,Kobieta,2022-06-04_08h09.42.927,task,2021.1.4,MacIntel,64.1025641,628b806c463b948bc644b84f,629af719975b6f3d3e34ed89,,,,,,,,,,,,,,,,,,,,,,,4,,,,,,,,,,Task,28,(2x5) - 6,4,,,,,,,,,,,,,,,,,,1,,,,,,,,,,,,,,,,,,,,,,space,58.043,"[""4""]",1,[3.7339999999999236],0,0,0,27,1,,,,,,,,,,,,,,,,,,
,,,,,,,,,,5ee23a0d9586fe6a598e58ea,22,Kobieta,2022-06-04_08h09.42.927,task,2021.1.4,MacIntel,64.1025641,628b806c463b948bc644b84f,629af719975b6f3d3e34ed89,,,,,,,,,,X V Q F H G B L J M P D K C T S W R N Z,,,,,,,,,,,,,,,,,,,,,,,,,,,,,,,,,,,,,,,,,,,,,,,,,,,,,,,,,,,,,,,,,,,,,,,,,,,,0,0,0,0,1,,,,,,,,,,,,,
,,,,,,,,,,5ee23a0d9586fe6a598e58ea,22,Kobieta,2022-06-04_08h09.42.927,task,2021.1.4,MacIntel,64.1025641,628b806c463b948bc644b84f,629af719975b6f3d3e34ed89,,,,,,,,,,,,,,,,,,,,,,,3,,,,,,,,,,Task,27,(3/3) + 2,3,,,,,,,,,,,,,,,,,,1,,,,,,,,,,,,,,,,,,,,,,,,"[""3""]",1,[3.9370000000001255],0,0,0,26,1,,,,,,,,,,,,,,,,,,
,,,,,,,,,,5ee23a0d9586fe6a598e58ea,22,Kobieta,2022-06-04_08h09.42.927,task,2021.1.4,MacIntel,64.1025641,628b806c463b948bc644b84f,629af719975b6f3d3e34ed89,,,,,,,,,,X V Q F H G B L J M P D K C T S W R N Z,,,,,,,,,,,,,,,,,,,,,,,,,,,,,,,,,,,,,,,,,,,,,,,,,,,,,,,,,,,,,,,,,,,,,,,,,,,,1,0,1,0,1,,,,,,,,,,,,,
,,,,,,,,,,5ee23a0d9586fe6a598e58ea,22,Kobieta,2022-06-04_08h09.42.927,task,2021.1.4,MacIntel,64.1025641,628b806c463b948bc644b84f,629af719975b6f3d3e34ed89,,,,,,,,,,,,,,,,,,,,,,,,,,,,,,,,,,,,,,,,,,,,,,,,,,,,,,,,,,,,,,,,,,,,,,,,,,,,,,,,,,,,,,,,,,,zw,"[""z"",""w""]",0,"[1.9080000000001291,2.5699999999999363,3.953999999999951]",1,ZW,0,0,0,0,1,,
,,,,,,,,,,5ee23a0d9586fe6a598e58ea,22,Kobieta,2022-06-04_08h09.42.927,task,2021.1.4,MacIntel,64.1025641,628b806c463b948bc644b84f,629af719975b6f3d3e34ed89,,,,,,,,,,,,,,,,,,,,,,,1,,,,,,,,,,Task,34,(9/3) - 2,1,,,,,,,,,,,,,,,,,,1,,,,,,,,,,,,,,,,,,,,,,,,"[""1""]",1,[3.7230000000001837],0,0,0,33,1,,,,,,,,,,,,,,,,,,
