key_resp_15.keys,key_resp_15.rt,key_resp_13.keys,key_resp_13.corr,key_resp_13.rt,ranodm_loop.thisRepN,ranodm_loop.thisTrialN,ranodm_loop.thisN,ranodm_loop.thisIndex,ranodm_loop.ran,participant,Wiek*,Płeć,date,expName,psychopyVersion,OS,frameRate,study_id,session,key_resp_16.keys,key_resp_16.rt,key_resp_4.keys,key_resp_4.rt,next_letter.thisRepN,next_letter.thisTrialN,next_letter.thisN,next_letter.thisIndex,next_letter.ran,letter,simple_recall,key_resp_5.keys,key_resp_5.rt,simple_recall_corr,simple_recall_corrkeys,next_level.thisRepN,next_level.thisTrialN,next_level.thisN,next_level.thisIndex,next_level.ran,key_resp_2.keys,key_resp_2.rt,digit_answer,key_resp.keys,key_resp.corr,key_resp.rt,RT_list,next_equation.thisRepN,next_equation.thisTrialN,next_equation.thisN,next_equation.thisIndex,next_equation.ran,Task,Trial,Problem,Operation_answer,processing_score,sumRT,meanRT,sumdiff,sd,RT,key_resp_3.keys,key_resp_3.rt,repeat_practice.thisRepN,repeat_practice.thisTrialN,repeat_practice.thisN,repeat_practice.thisIndex,repeat_practice.ran,key_resp_6.keys,key_resp_6.rt,key_resp_11.keys,key_resp_11.corr,key_resp_11.rt,operation_correct,repeat_if_wrong_prac.thisRepN,repeat_if_wrong_prac.thisTrialN,repeat_if_wrong_prac.thisN,repeat_if_wrong_prac.thisIndex,repeat_if_wrong_prac.ran,span_size_prac.thisRepN,span_size_prac.thisTrialN,span_size_prac.thisN,span_size_prac.thisIndex,span_size_prac.ran,complex_recall_practice,key_resp_9.keys,key_resp_9.corr,key_resp_9.rt,complex_prac_corr,span_recall_prac.thisRepN,span_recall_prac.thisTrialN,span_recall_prac.thisN,span_recall_prac.thisIndex,span_recall_prac.ran,key_resp_10.keys,key_resp_10.rt,key_resp_7.keys,key_resp_7.corr,key_resp_7.rt,repeat_if_wrong.thisRepN,repeat_if_wrong.thisTrialN,repeat_if_wrong.thisN,repeat_if_wrong.thisIndex,repeat_if_wrong.ran,span_size.thisRepN,span_size.thisTrialN,span_size.thisN,span_size.thisIndex,span_size.ran,complex_recall,key_resp_8.keys,key_resp_8.corr,key_resp_8.rt,complex_recall_corr,complex_recall_corrkeys,span_recall.thisRepN,span_recall.thisTrialN,span_recall.thisN,span_recall.thisIndex,span_recall.ran,key_resp_12.keys,key_resp_12.rt
space,5.224,"[""comma""]",0,[0.6129999999999995],0,0,0,0,1,5ee3348f8cfe2d49e6dc98ff,22,Mężczyzna,2022-05-28_09h14.53.791,task,2021.1.4,Win32,60.0240096,628b806c463b948bc644b84f,6291cbe5e7a4c89ca765c862,,,,,,,,,,,,,,,,,,,,,,,,,,,,,,,,,,,,,,,,,,,,,,,,,,,,,,,,,,,,,,,,,,,,,,,,,,,,,,,,,,,,,,,,,,,,,,,,,,,,,,,
,,"[""period""]",0,[0.3359999999999985],1,0,1,0,1,5ee3348f8cfe2d49e6dc98ff,22,Mężczyzna,2022-05-28_09h14.53.791,task,2021.1.4,Win32,60.0240096,628b806c463b948bc644b84f,6291cbe5e7a4c89ca765c862,,,,,,,,,,,,,,,,,,,,,,,,,,,,,,,,,,,,,,,,,,,,,,,,,,,,,,,,,,,,,,,,,,,,,,,,,,,,,,,,,,,,,,,,,,,,,,,,,,,,,,,
,,"[""period"",""period""]",0,"[0.23499999999999943,1.850999999999999]",2,0,2,0,1,5ee3348f8cfe2d49e6dc98ff,22,Mężczyzna,2022-05-28_09h14.53.791,task,2021.1.4,Win32,60.0240096,628b806c463b948bc644b84f,6291cbe5e7a4c89ca765c862,,,,,,,,,,,,,,,,,,,,,,,,,,,,,,,,,,,,,,,,,,,,,,,,,,,,,,,,,,,,,,,,,,,,,,,,,,,,,,,,,,,,,,,,,,,,,,,,,,,,,,,
,,"[""period""]",0,[0.4029999999999987],3,0,3,0,1,5ee3348f8cfe2d49e6dc98ff,22,Mężczyzna,2022-05-28_09h14.53.791,task,2021.1.4,Win32,60.0240096,628b806c463b948bc644b84f,6291cbe5e7a4c89ca765c862,,,,,,,,,,,,,,,,,,,,,,,,,,,,,,,,,,,,,,,,,,,,,,,,,,,,,,,,,,,,,,,,,,,,,,,,,,,,,,,,,,,,,,,,,,,,,,,,,,,,,,,
,,"[""comma""]",0,[0.2569999999999979],4,0,4,0,1,5ee3348f8cfe2d49e6dc98ff,22,Mężczyzna,2022-05-28_09h14.53.791,task,2021.1.4,Win32,60.0240096,628b806c463b948bc644b84f,6291cbe5e7a4c89ca765c862,,,,,,,,,,,,,,,,,,,,,,,,,,,,,,,,,,,,,,,,,,,,,,,,,,,,,,,,,,,,,,,,,,,,,,,,,,,,,,,,,,,,,,,,,,,,,,,,,,,,,,,
,,"[""comma""]",0,[0.2530000000000001],5,0,5,0,1,5ee3348f8cfe2d49e6dc98ff,22,Mężczyzna,2022-05-28_09h14.53.791,task,2021.1.4,Win32,60.0240096,628b806c463b948bc644b84f,6291cbe5e7a4c89ca765c862,,,,,,,,,,,,,,,,,,,,,,,,,,,,,,,,,,,,,,,,,,,,,,,,,,,,,,,,,,,,,,,,,,,,,,,,,,,,,,,,,,,,,,,,,,,,,,,,,,,,,,,
,,"[""period"",""comma""]",0,"[0.08599999999999852,1.9329999999999998]",6,0,6,0,1,5ee3348f8cfe2d49e6dc98ff,22,Mężczyzna,2022-05-28_09h14.53.791,task,2021.1.4,Win32,60.0240096,628b806c463b948bc644b84f,6291cbe5e7a4c89ca765c862,,,,,,,,,,,,,,,,,,,,,,,,,,,,,,,,,,,,,,,,,,,,,,,,,,,,,,,,,,,,,,,,,,,,,,,,,,,,,,,,,,,,,,,,,,,,,,,,,,,,,,,
,,"[""comma""]",0,[0.41900000000000404],7,0,7,0,1,5ee3348f8cfe2d49e6dc98ff,22,Mężczyzna,2022-05-28_09h14.53.791,task,2021.1.4,Win32,60.0240096,628b806c463b948bc644b84f,6291cbe5e7a4c89ca765c862,,,,,,,,,,,,,,,,,,,,,,,,,,,,,,,,,,,,,,,,,,,,,,,,,,,,,,,,,,,,,,,,,,,,,,,,,,,,,,,,,,,,,,,,,,,,,,,,,,,,,,,
,,"[""period""]",0,[0.2680000000000007],8,0,8,0,1,5ee3348f8cfe2d49e6dc98ff,22,Mężczyzna,2022-05-28_09h14.53.791,task,2021.1.4,Win32,60.0240096,628b806c463b948bc644b84f,6291cbe5e7a4c89ca765c862,,,,,,,,,,,,,,,,,,,,,,,,,,,,,,,,,,,,,,,,,,,,,,,,,,,,,,,,,,,,,,,,,,,,,,,,,,,,,,,,,,,,,,,,,,,,,,,,,,,,,,,
,,"[""comma""]",0,[0.25199999999999534],9,0,9,0,1,5ee3348f8cfe2d49e6dc98ff,22,Mężczyzna,2022-05-28_09h14.53.791,task,2021.1.4,Win32,60.0240096,628b806c463b948bc644b84f,6291cbe5e7a4c89ca765c862,,,,,,,,,,,,,,,,,,,,,,,,,,,,,,,,,,,,,,,,,,,,,,,,,,,,,,,,,,,,,,,,,,,,,,,,,,,,,,,,,,,,,,,,,,,,,,,,,,,,,,,
,,"[""comma"",""period""]",0,"[0.24900000000000233,1.9710000000000036]",10,0,10,0,1,5ee3348f8cfe2d49e6dc98ff,22,Mężczyzna,2022-05-28_09h14.53.791,task,2021.1.4,Win32,60.0240096,628b806c463b948bc644b84f,6291cbe5e7a4c89ca765c862,,,,,,,,,,,,,,,,,,,,,,,,,,,,,,,,,,,,,,,,,,,,,,,,,,,,,,,,,,,,,,,,,,,,,,,,,,,,,,,,,,,,,,,,,,,,,,,,,,,,,,,
,,"[""period""]",0,[0.5859999999999985],11,0,11,0,1,5ee3348f8cfe2d49e6dc98ff,22,Mężczyzna,2022-05-28_09h14.53.791,task,2021.1.4,Win32,60.0240096,628b806c463b948bc644b84f,6291cbe5e7a4c89ca765c862,,,,,,,,,,,,,,,,,,,,,,,,,,,,,,,,,,,,,,,,,,,,,,,,,,,,,,,,,,,,,,,,,,,,,,,,,,,,,,,,,,,,,,,,,,,,,,,,,,,,,,,
,,"[""period""]",0,[0.2640000000000029],12,0,12,0,1,5ee3348f8cfe2d49e6dc98ff,22,Mężczyzna,2022-05-28_09h14.53.791,task,2021.1.4,Win32,60.0240096,628b806c463b948bc644b84f,6291cbe5e7a4c89ca765c862,,,,,,,,,,,,,,,,,,,,,,,,,,,,,,,,,,,,,,,,,,,,,,,,,,,,,,,,,,,,,,,,,,,,,,,,,,,,,,,,,,,,,,,,,,,,,,,,,,,,,,,
,,"[""comma""]",0,[0.2710000000000008],13,0,13,0,1,5ee3348f8cfe2d49e6dc98ff,22,Mężczyzna,2022-05-28_09h14.53.791,task,2021.1.4,Win32,60.0240096,628b806c463b948bc644b84f,6291cbe5e7a4c89ca765c862,,,,,,,,,,,,,,,,,,,,,,,,,,,,,,,,,,,,,,,,,,,,,,,,,,,,,,,,,,,,,,,,,,,,,,,,,,,,,,,,,,,,,,,,,,,,,,,,,,,,,,,
,,"[""period"",""comma""]",0,"[0.22500000000000142,1.9560000000000102]",14,0,14,0,1,5ee3348f8cfe2d49e6dc98ff,22,Mężczyzna,2022-05-28_09h14.53.791,task,2021.1.4,Win32,60.0240096,628b806c463b948bc644b84f,6291cbe5e7a4c89ca765c862,,,,,,,,,,,,,,,,,,,,,,,,,,,,,,,,,,,,,,,,,,,,,,,,,,,,,,,,,,,,,,,,,,,,,,,,,,,,,,,,,,,,,,,,,,,,,,,,,,,,,,,
,,"[""period""]",0,[1.7819999999999965],15,0,15,0,1,5ee3348f8cfe2d49e6dc98ff,22,Mężczyzna,2022-05-28_09h14.53.791,task,2021.1.4,Win32,60.0240096,628b806c463b948bc644b84f,6291cbe5e7a4c89ca765c862,,,,,,,,,,,,,,,,,,,,,,,,,,,,,,,,,,,,,,,,,,,,,,,,,,,,,,,,,,,,,,,,,,,,,,,,,,,,,,,,,,,,,,,,,,,,,,,,,,,,,,,
,,"[""period""]",0,[0.664999999999992],16,0,16,0,1,5ee3348f8cfe2d49e6dc98ff,22,Mężczyzna,2022-05-28_09h14.53.791,task,2021.1.4,Win32,60.0240096,628b806c463b948bc644b84f,6291cbe5e7a4c89ca765c862,,,,,,,,,,,,,,,,,,,,,,,,,,,,,,,,,,,,,,,,,,,,,,,,,,,,,,,,,,,,,,,,,,,,,,,,,,,,,,,,,,,,,,,,,,,,,,,,,,,,,,,
,,"[""period""]",0,[0.26300000000000523],17,0,17,0,1,5ee3348f8cfe2d49e6dc98ff,22,Mężczyzna,2022-05-28_09h14.53.791,task,2021.1.4,Win32,60.0240096,628b806c463b948bc644b84f,6291cbe5e7a4c89ca765c862,,,,,,,,,,,,,,,,,,,,,,,,,,,,,,,,,,,,,,,,,,,,,,,,,,,,,,,,,,,,,,,,,,,,,,,,,,,,,,,,,,,,,,,,,,,,,,,,,,,,,,,
,,"[""comma"",""comma""]",0,"[0.0020000000000095497,1.9490000000000123]",18,0,18,0,1,5ee3348f8cfe2d49e6dc98ff,22,Mężczyzna,2022-05-28_09h14.53.791,task,2021.1.4,Win32,60.0240096,628b806c463b948bc644b84f,6291cbe5e7a4c89ca765c862,,,,,,,,,,,,,,,,,,,,,,,,,,,,,,,,,,,,,,,,,,,,,,,,,,,,,,,,,,,,,,,,,,,,,,,,,,,,,,,,,,,,,,,,,,,,,,,,,,,,,,,
,,,0,,19,0,19,0,1,5ee3348f8cfe2d49e6dc98ff,22,Mężczyzna,2022-05-28_09h14.53.791,task,2021.1.4,Win32,60.0240096,628b806c463b948bc644b84f,6291cbe5e7a4c89ca765c862,,,,,,,,,,,,,,,,,,,,,,,,,,,,,,,,,,,,,,,,,,,,,,,,,,,,,,,,,,,,,,,,,,,,,,,,,,,,,,,,,,,,,,,,,,,,,,,,,,,,,,,
,,"[""comma""]",0,[0.19899999999999807],20,0,20,0,1,5ee3348f8cfe2d49e6dc98ff,22,Mężczyzna,2022-05-28_09h14.53.791,task,2021.1.4,Win32,60.0240096,628b806c463b948bc644b84f,6291cbe5e7a4c89ca765c862,,,,,,,,,,,,,,,,,,,,,,,,,,,,,,,,,,,,,,,,,,,,,,,,,,,,,,,,,,,,,,,,,,,,,,,,,,,,,,,,,,,,,,,,,,,,,,,,,,,,,,,
,,"[""period""]",0,[0.2189999999999941],21,0,21,0,1,5ee3348f8cfe2d49e6dc98ff,22,Mężczyzna,2022-05-28_09h14.53.791,task,2021.1.4,Win32,60.0240096,628b806c463b948bc644b84f,6291cbe5e7a4c89ca765c862,,,,,,,,,,,,,,,,,,,,,,,,,,,,,,,,,,,,,,,,,,,,,,,,,,,,,,,,,,,,,,,,,,,,,,,,,,,,,,,,,,,,,,,,,,,,,,,,,,,,,,,
,,"[""comma""]",0,[0.19400000000000261],22,0,22,0,1,5ee3348f8cfe2d49e6dc98ff,22,Mężczyzna,2022-05-28_09h14.53.791,task,2021.1.4,Win32,60.0240096,628b806c463b948bc644b84f,6291cbe5e7a4c89ca765c862,,,,,,,,,,,,,,,,,,,,,,,,,,,,,,,,,,,,,,,,,,,,,,,,,,,,,,,,,,,,,,,,,,,,,,,,,,,,,,,,,,,,,,,,,,,,,,,,,,,,,,,
,,"[""period""]",0,[0.3030000000000115],23,0,23,0,1,5ee3348f8cfe2d49e6dc98ff,22,Mężczyzna,2022-05-28_09h14.53.791,task,2021.1.4,Win32,60.0240096,628b806c463b948bc644b84f,6291cbe5e7a4c89ca765c862,,,,,,,,,,,,,,,,,,,,,,,,,,,,,,,,,,,,,,,,,,,,,,,,,,,,,,,,,,,,,,,,,,,,,,,,,,,,,,,,,,,,,,,,,,,,,,,,,,,,,,,
,,"[""period""]",0,[0.21800000000000352],24,0,24,0,1,5ee3348f8cfe2d49e6dc98ff,22,Mężczyzna,2022-05-28_09h14.53.791,task,2021.1.4,Win32,60.0240096,628b806c463b948bc644b84f,6291cbe5e7a4c89ca765c862,,,,,,,,,,,,,,,,,,,,,,,,,,,,,,,,,,,,,,,,,,,,,,,,,,,,,,,,,,,,,,,,,,,,,,,,,,,,,,,,,,,,,,,,,,,,,,,,,,,,,,,
,,"[""comma"",""comma""]",0,"[0.2400000000000091,1.9540000000000077]",25,0,25,0,1,5ee3348f8cfe2d49e6dc98ff,22,Mężczyzna,2022-05-28_09h14.53.791,task,2021.1.4,Win32,60.0240096,628b806c463b948bc644b84f,6291cbe5e7a4c89ca765c862,,,,,,,,,,,,,,,,,,,,,,,,,,,,,,,,,,,,,,,,,,,,,,,,,,,,,,,,,,,,,,,,,,,,,,,,,,,,,,,,,,,,,,,,,,,,,,,,,,,,,,,
,,,0,,26,0,26,0,1,5ee3348f8cfe2d49e6dc98ff,22,Mężczyzna,2022-05-28_09h14.53.791,task,2021.1.4,Win32,60.0240096,628b806c463b948bc644b84f,6291cbe5e7a4c89ca765c862,,,,,,,,,,,,,,,,,,,,,,,,,,,,,,,,,,,,,,,,,,,,,,,,,,,,,,,,,,,,,,,,,,,,,,,,,,,,,,,,,,,,,,,,,,,,,,,,,,,,,,,
,,"[""comma""]",0,[0.284000000000006],27,0,27,0,1,5ee3348f8cfe2d49e6dc98ff,22,Mężczyzna,2022-05-28_09h14.53.791,task,2021.1.4,Win32,60.0240096,628b806c463b948bc644b84f,6291cbe5e7a4c89ca765c862,,,,,,,,,,,,,,,,,,,,,,,,,,,,,,,,,,,,,,,,,,,,,,,,,,,,,,,,,,,,,,,,,,,,,,,,,,,,,,,,,,,,,,,,,,,,,,,,,,,,,,,
,,"[""period""]",0,[0.29299999999999216],28,0,28,0,1,5ee3348f8cfe2d49e6dc98ff,22,Mężczyzna,2022-05-28_09h14.53.791,task,2021.1.4,Win32,60.0240096,628b806c463b948bc644b84f,6291cbe5e7a4c89ca765c862,,,,,,,,,,,,,,,,,,,,,,,,,,,,,,,,,,,,,,,,,,,,,,,,,,,,,,,,,,,,,,,,,,,,,,,,,,,,,,,,,,,,,,,,,,,,,,,,,,,,,,,
,,"[""comma""]",0,[0.2179999999999893],29,0,29,0,1,5ee3348f8cfe2d49e6dc98ff,22,Mężczyzna,2022-05-28_09h14.53.791,task,2021.1.4,Win32,60.0240096,628b806c463b948bc644b84f,6291cbe5e7a4c89ca765c862,,,,,,,,,,,,,,,,,,,,,,,,,,,,,,,,,,,,,,,,,,,,,,,,,,,,,,,,,,,,,,,,,,,,,,,,,,,,,,,,,,,,,,,,,,,,,,,,,,,,,,,
,,"[""period""]",0,[0.2510000000000048],30,0,30,0,1,5ee3348f8cfe2d49e6dc98ff,22,Mężczyzna,2022-05-28_09h14.53.791,task,2021.1.4,Win32,60.0240096,628b806c463b948bc644b84f,6291cbe5e7a4c89ca765c862,,,,,,,,,,,,,,,,,,,,,,,,,,,,,,,,,,,,,,,,,,,,,,,,,,,,,,,,,,,,,,,,,,,,,,,,,,,,,,,,,,,,,,,,,,,,,,,,,,,,,,,
,,"[""comma""]",0,[0.22400000000000375],31,0,31,0,1,5ee3348f8cfe2d49e6dc98ff,22,Mężczyzna,2022-05-28_09h14.53.791,task,2021.1.4,Win32,60.0240096,628b806c463b948bc644b84f,6291cbe5e7a4c89ca765c862,,,,,,,,,,,,,,,,,,,,,,,,,,,,,,,,,,,,,,,,,,,,,,,,,,,,,,,,,,,,,,,,,,,,,,,,,,,,,,,,,,,,,,,,,,,,,,,,,,,,,,,
,,"[""period""]",0,[-0.010000000000005116],32,0,32,0,1,5ee3348f8cfe2d49e6dc98ff,22,Mężczyzna,2022-05-28_09h14.53.791,task,2021.1.4,Win32,60.0240096,628b806c463b948bc644b84f,6291cbe5e7a4c89ca765c862,,,,,,,,,,,,,,,,,,,,,,,,,,,,,,,,,,,,,,,,,,,,,,,,,,,,,,,,,,,,,,,,,,,,,,,,,,,,,,,,,,,,,,,,,,,,,,,,,,,,,,,
,,"[""period""]",0,[0.18900000000000716],33,0,33,0,1,5ee3348f8cfe2d49e6dc98ff,22,Mężczyzna,2022-05-28_09h14.53.791,task,2021.1.4,Win32,60.0240096,628b806c463b948bc644b84f,6291cbe5e7a4c89ca765c862,,,,,,,,,,,,,,,,,,,,,,,,,,,,,,,,,,,,,,,,,,,,,,,,,,,,,,,,,,,,,,,,,,,,,,,,,,,,,,,,,,,,,,,,,,,,,,,,,,,,,,,
,,"[""comma"",""period""]",0,"[0.13800000000000523,1.9309999999999974]",34,0,34,0,1,5ee3348f8cfe2d49e6dc98ff,22,Mężczyzna,2022-05-28_09h14.53.791,task,2021.1.4,Win32,60.0240096,628b806c463b948bc644b84f,6291cbe5e7a4c89ca765c862,,,,,,,,,,,,,,,,,,,,,,,,,,,,,,,,,,,,,,,,,,,,,,,,,,,,,,,,,,,,,,,,,,,,,,,,,,,,,,,,,,,,,,,,,,,,,,,,,,,,,,,
,,"[""comma""]",0,[1.960000000000008],35,0,35,0,1,5ee3348f8cfe2d49e6dc98ff,22,Mężczyzna,2022-05-28_09h14.53.791,task,2021.1.4,Win32,60.0240096,628b806c463b948bc644b84f,6291cbe5e7a4c89ca765c862,,,,,,,,,,,,,,,,,,,,,,,,,,,,,,,,,,,,,,,,,,,,,,,,,,,,,,,,,,,,,,,,,,,,,,,,,,,,,,,,,,,,,,,,,,,,,,,,,,,,,,,
,,,0,,36,0,36,0,1,5ee3348f8cfe2d49e6dc98ff,22,Mężczyzna,2022-05-28_09h14.53.791,task,2021.1.4,Win32,60.0240096,628b806c463b948bc644b84f,6291cbe5e7a4c89ca765c862,,,,,,,,,,,,,,,,,,,,,,,,,,,,,,,,,,,,,,,,,,,,,,,,,,,,,,,,,,,,,,,,,,,,,,,,,,,,,,,,,,,,,,,,,,,,,,,,,,,,,,,
,,"[""comma""]",0,[0.1559999999999917],37,0,37,0,1,5ee3348f8cfe2d49e6dc98ff,22,Mężczyzna,2022-05-28_09h14.53.791,task,2021.1.4,Win32,60.0240096,628b806c463b948bc644b84f,6291cbe5e7a4c89ca765c862,,,,,,,,,,,,,,,,,,,,,,,,,,,,,,,,,,,,,,,,,,,,,,,,,,,,,,,,,,,,,,,,,,,,,,,,,,,,,,,,,,,,,,,,,,,,,,,,,,,,,,,
,,"[""comma""]",0,[0.20000000000000284],38,0,38,0,1,5ee3348f8cfe2d49e6dc98ff,22,Mężczyzna,2022-05-28_09h14.53.791,task,2021.1.4,Win32,60.0240096,628b806c463b948bc644b84f,6291cbe5e7a4c89ca765c862,,,,,,,,,,,,,,,,,,,,,,,,,,,,,,,,,,,,,,,,,,,,,,,,,,,,,,,,,,,,,,,,,,,,,,,,,,,,,,,,,,,,,,,,,,,,,,,,,,,,,,,
,,"[""comma""]",0,[0.23700000000000898],39,0,39,0,1,5ee3348f8cfe2d49e6dc98ff,22,Mężczyzna,2022-05-28_09h14.53.791,task,2021.1.4,Win32,60.0240096,628b806c463b948bc644b84f,6291cbe5e7a4c89ca765c862,,,,,,,,,,,,,,,,,,,,,,,,,,,,,,,,,,,,,,,,,,,,,,,,,,,,,,,,,,,,,,,,,,,,,,,,,,,,,,,,,,,,,,,,,,,,,,,,,,,,,,,
,,"[""period""]",0,[0.18600000000000705],40,0,40,0,1,5ee3348f8cfe2d49e6dc98ff,22,Mężczyzna,2022-05-28_09h14.53.791,task,2021.1.4,Win32,60.0240096,628b806c463b948bc644b84f,6291cbe5e7a4c89ca765c862,,,,,,,,,,,,,,,,,,,,,,,,,,,,,,,,,,,,,,,,,,,,,,,,,,,,,,,,,,,,,,,,,,,,,,,,,,,,,,,,,,,,,,,,,,,,,,,,,,,,,,,
,,"[""comma""]",0,[0.019000000000005457],41,0,41,0,1,5ee3348f8cfe2d49e6dc98ff,22,Mężczyzna,2022-05-28_09h14.53.791,task,2021.1.4,Win32,60.0240096,628b806c463b948bc644b84f,6291cbe5e7a4c89ca765c862,,,,,,,,,,,,,,,,,,,,,,,,,,,,,,,,,,,,,,,,,,,,,,,,,,,,,,,,,,,,,,,,,,,,,,,,,,,,,,,,,,,,,,,,,,,,,,,,,,,,,,,
,,"[""period""]",0,[0.015000000000000568],42,0,42,0,1,5ee3348f8cfe2d49e6dc98ff,22,Mężczyzna,2022-05-28_09h14.53.791,task,2021.1.4,Win32,60.0240096,628b806c463b948bc644b84f,6291cbe5e7a4c89ca765c862,,,,,,,,,,,,,,,,,,,,,,,,,,,,,,,,,,,,,,,,,,,,,,,,,,,,,,,,,,,,,,,,,,,,,,,,,,,,,,,,,,,,,,,,,,,,,,,,,,,,,,,
,,"[""comma""]",0,[0.03900000000000148],43,0,43,0,1,5ee3348f8cfe2d49e6dc98ff,22,Mężczyzna,2022-05-28_09h14.53.791,task,2021.1.4,Win32,60.0240096,628b806c463b948bc644b84f,6291cbe5e7a4c89ca765c862,,,,,,,,,,,,,,,,,,,,,,,,,,,,,,,,,,,,,,,,,,,,,,,,,,,,,,,,,,,,,,,,,,,,,,,,,,,,,,,,,,,,,,,,,,,,,,,,,,,,,,,
,,"[""comma""]",0,[0.13400000000000034],44,0,44,0,1,5ee3348f8cfe2d49e6dc98ff,22,Mężczyzna,2022-05-28_09h14.53.791,task,2021.1.4,Win32,60.0240096,628b806c463b948bc644b84f,6291cbe5e7a4c89ca765c862,,,,,,,,,,,,,,,,,,,,,,,,,,,,,,,,,,,,,,,,,,,,,,,,,,,,,,,,,,,,,,,,,,,,,,,,,,,,,,,,,,,,,,,,,,,,,,,,,,,,,,,
,,"[""period""]",0,[0.3149999999999977],45,0,45,0,1,5ee3348f8cfe2d49e6dc98ff,22,Mężczyzna,2022-05-28_09h14.53.791,task,2021.1.4,Win32,60.0240096,628b806c463b948bc644b84f,6291cbe5e7a4c89ca765c862,,,,,,,,,,,,,,,,,,,,,,,,,,,,,,,,,,,,,,,,,,,,,,,,,,,,,,,,,,,,,,,,,,,,,,,,,,,,,,,,,,,,,,,,,,,,,,,,,,,,,,,
,,"[""comma""]",0,[0.18500000000000227],46,0,46,0,1,5ee3348f8cfe2d49e6dc98ff,22,Mężczyzna,2022-05-28_09h14.53.791,task,2021.1.4,Win32,60.0240096,628b806c463b948bc644b84f,6291cbe5e7a4c89ca765c862,,,,,,,,,,,,,,,,,,,,,,,,,,,,,,,,,,,,,,,,,,,,,,,,,,,,,,,,,,,,,,,,,,,,,,,,,,,,,,,,,,,,,,,,,,,,,,,,,,,,,,,
,,"[""period""]",0,[0.016999999999995907],47,0,47,0,1,5ee3348f8cfe2d49e6dc98ff,22,Mężczyzna,2022-05-28_09h14.53.791,task,2021.1.4,Win32,60.0240096,628b806c463b948bc644b84f,6291cbe5e7a4c89ca765c862,,,,,,,,,,,,,,,,,,,,,,,,,,,,,,,,,,,,,,,,,,,,,,,,,,,,,,,,,,,,,,,,,,,,,,,,,,,,,,,,,,,,,,,,,,,,,,,,,,,,,,,
,,"[""period""]",0,[0.018000000000000682],48,0,48,0,1,5ee3348f8cfe2d49e6dc98ff,22,Mężczyzna,2022-05-28_09h14.53.791,task,2021.1.4,Win32,60.0240096,628b806c463b948bc644b84f,6291cbe5e7a4c89ca765c862,,,,,,,,,,,,,,,,,,,,,,,,,,,,,,,,,,,,,,,,,,,,,,,,,,,,,,,,,,,,,,,,,,,,,,,,,,,,,,,,,,,,,,,,,,,,,,,,,,,,,,,
,,"[""period"",""comma""]",0,"[0.16599999999999682,1.8329999999999984]",49,0,49,0,1,5ee3348f8cfe2d49e6dc98ff,22,Mężczyzna,2022-05-28_09h14.53.791,task,2021.1.4,Win32,60.0240096,628b806c463b948bc644b84f,6291cbe5e7a4c89ca765c862,,,,,,,,,,,,,,,,,,,,,,,,,,,,,,,,,,,,,,,,,,,,,,,,,,,,,,,,,,,,,,,,,,,,,,,,,,,,,,,,,,,,,,,,,,,,,,,,,,,,,,,
,,"[""comma""]",0,[0.8990000000000009],50,0,50,0,1,5ee3348f8cfe2d49e6dc98ff,22,Mężczyzna,2022-05-28_09h14.53.791,task,2021.1.4,Win32,60.0240096,628b806c463b948bc644b84f,6291cbe5e7a4c89ca765c862,,,,,,,,,,,,,,,,,,,,,,,,,,,,,,,,,,,,,,,,,,,,,,,,,,,,,,,,,,,,,,,,,,,,,,,,,,,,,,,,,,,,,,,,,,,,,,,,,,,,,,,
,,"[""comma"",""period""]",0,"[0.2880000000000109,1.9050000000000011]",51,0,51,0,1,5ee3348f8cfe2d49e6dc98ff,22,Mężczyzna,2022-05-28_09h14.53.791,task,2021.1.4,Win32,60.0240096,628b806c463b948bc644b84f,6291cbe5e7a4c89ca765c862,,,,,,,,,,,,,,,,,,,,,,,,,,,,,,,,,,,,,,,,,,,,,,,,,,,,,,,,,,,,,,,,,,,,,,,,,,,,,,,,,,,,,,,,,,,,,,,,,,,,,,,
,,"[""comma""]",0,[1.8309999999999889],52,0,52,0,1,5ee3348f8cfe2d49e6dc98ff,22,Mężczyzna,2022-05-28_09h14.53.791,task,2021.1.4,Win32,60.0240096,628b806c463b948bc644b84f,6291cbe5e7a4c89ca765c862,,,,,,,,,,,,,,,,,,,,,,,,,,,,,,,,,,,,,,,,,,,,,,,,,,,,,,,,,,,,,,,,,,,,,,,,,,,,,,,,,,,,,,,,,,,,,,,,,,,,,,,
,,,0,,53,0,53,0,1,5ee3348f8cfe2d49e6dc98ff,22,Mężczyzna,2022-05-28_09h14.53.791,task,2021.1.4,Win32,60.0240096,628b806c463b948bc644b84f,6291cbe5e7a4c89ca765c862,,,,,,,,,,,,,,,,,,,,,,,,,,,,,,,,,,,,,,,,,,,,,,,,,,,,,,,,,,,,,,,,,,,,,,,,,,,,,,,,,,,,,,,,,,,,,,,,,,,,,,,
,,"[""period""]",0,[0.16800000000000637],54,0,54,0,1,5ee3348f8cfe2d49e6dc98ff,22,Mężczyzna,2022-05-28_09h14.53.791,task,2021.1.4,Win32,60.0240096,628b806c463b948bc644b84f,6291cbe5e7a4c89ca765c862,,,,,,,,,,,,,,,,,,,,,,,,,,,,,,,,,,,,,,,,,,,,,,,,,,,,,,,,,,,,,,,,,,,,,,,,,,,,,,,,,,,,,,,,,,,,,,,,,,,,,,,
,,"[""period""]",0,[0.3640000000000043],55,0,55,0,1,5ee3348f8cfe2d49e6dc98ff,22,Mężczyzna,2022-05-28_09h14.53.791,task,2021.1.4,Win32,60.0240096,628b806c463b948bc644b84f,6291cbe5e7a4c89ca765c862,,,,,,,,,,,,,,,,,,,,,,,,,,,,,,,,,,,,,,,,,,,,,,,,,,,,,,,,,,,,,,,,,,,,,,,,,,,,,,,,,,,,,,,,,,,,,,,,,,,,,,,
,,"[""comma""]",0,[0.24800000000001887],56,0,56,0,1,5ee3348f8cfe2d49e6dc98ff,22,Mężczyzna,2022-05-28_09h14.53.791,task,2021.1.4,Win32,60.0240096,628b806c463b948bc644b84f,6291cbe5e7a4c89ca765c862,,,,,,,,,,,,,,,,,,,,,,,,,,,,,,,,,,,,,,,,,,,,,,,,,,,,,,,,,,,,,,,,,,,,,,,,,,,,,,,,,,,,,,,,,,,,,,,,,,,,,,,
,,"[""period""]",0,[0.2879999999999825],57,0,57,0,1,5ee3348f8cfe2d49e6dc98ff,22,Mężczyzna,2022-05-28_09h14.53.791,task,2021.1.4,Win32,60.0240096,628b806c463b948bc644b84f,6291cbe5e7a4c89ca765c862,,,,,,,,,,,,,,,,,,,,,,,,,,,,,,,,,,,,,,,,,,,,,,,,,,,,,,,,,,,,,,,,,,,,,,,,,,,,,,,,,,,,,,,,,,,,,,,,,,,,,,,
,,"[""comma""]",0,[0.1490000000000009],58,0,58,0,1,5ee3348f8cfe2d49e6dc98ff,22,Mężczyzna,2022-05-28_09h14.53.791,task,2021.1.4,Win32,60.0240096,628b806c463b948bc644b84f,6291cbe5e7a4c89ca765c862,,,,,,,,,,,,,,,,,,,,,,,,,,,,,,,,,,,,,,,,,,,,,,,,,,,,,,,,,,,,,,,,,,,,,,,,,,,,,,,,,,,,,,,,,,,,,,,,,,,,,,,
,,"[""comma""]",0,[0.2230000000000132],59,0,59,0,1,5ee3348f8cfe2d49e6dc98ff,22,Mężczyzna,2022-05-28_09h14.53.791,task,2021.1.4,Win32,60.0240096,628b806c463b948bc644b84f,6291cbe5e7a4c89ca765c862,,,,,,,,,,,,,,,,,,,,,,,,,,,,,,,,,,,,,,,,,,,,,,,,,,,,,,,,,,,,,,,,,,,,,,,,,,,,,,,,,,,,,,,,,,,,,,,,,,,,,,,
,,"[""comma""]",0,[0.06399999999999295],60,0,60,0,1,5ee3348f8cfe2d49e6dc98ff,22,Mężczyzna,2022-05-28_09h14.53.791,task,2021.1.4,Win32,60.0240096,628b806c463b948bc644b84f,6291cbe5e7a4c89ca765c862,,,,,,,,,,,,,,,,,,,,,,,,,,,,,,,,,,,,,,,,,,,,,,,,,,,,,,,,,,,,,,,,,,,,,,,,,,,,,,,,,,,,,,,,,,,,,,,,,,,,,,,
,,"[""comma""]",0,[0.0010000000000047748],61,0,61,0,1,5ee3348f8cfe2d49e6dc98ff,22,Mężczyzna,2022-05-28_09h14.53.791,task,2021.1.4,Win32,60.0240096,628b806c463b948bc644b84f,6291cbe5e7a4c89ca765c862,,,,,,,,,,,,,,,,,,,,,,,,,,,,,,,,,,,,,,,,,,,,,,,,,,,,,,,,,,,,,,,,,,,,,,,,,,,,,,,,,,,,,,,,,,,,,,,,,,,,,,,
,,"[""period""]",0,[0.11400000000000432],62,0,62,0,1,5ee3348f8cfe2d49e6dc98ff,22,Mężczyzna,2022-05-28_09h14.53.791,task,2021.1.4,Win32,60.0240096,628b806c463b948bc644b84f,6291cbe5e7a4c89ca765c862,,,,,,,,,,,,,,,,,,,,,,,,,,,,,,,,,,,,,,,,,,,,,,,,,,,,,,,,,,,,,,,,,,,,,,,,,,,,,,,,,,,,,,,,,,,,,,,,,,,,,,,
,,"[""comma""]",0,[0.32099999999999795],63,0,63,0,1,5ee3348f8cfe2d49e6dc98ff,22,Mężczyzna,2022-05-28_09h14.53.791,task,2021.1.4,Win32,60.0240096,628b806c463b948bc644b84f,6291cbe5e7a4c89ca765c862,,,,,,,,,,,,,,,,,,,,,,,,,,,,,,,,,,,,,,,,,,,,,,,,,,,,,,,,,,,,,,,,,,,,,,,,,,,,,,,,,,,,,,,,,,,,,,,,,,,,,,,
,,"[""period""]",0,[0.3669999999999902],64,0,64,0,1,5ee3348f8cfe2d49e6dc98ff,22,Mężczyzna,2022-05-28_09h14.53.791,task,2021.1.4,Win32,60.0240096,628b806c463b948bc644b84f,6291cbe5e7a4c89ca765c862,,,,,,,,,,,,,,,,,,,,,,,,,,,,,,,,,,,,,,,,,,,,,,,,,,,,,,,,,,,,,,,,,,,,,,,,,,,,,,,,,,,,,,,,,,,,,,,,,,,,,,,
,,"[""comma""]",0,[0.25],65,0,65,0,1,5ee3348f8cfe2d49e6dc98ff,22,Mężczyzna,2022-05-28_09h14.53.791,task,2021.1.4,Win32,60.0240096,628b806c463b948bc644b84f,6291cbe5e7a4c89ca765c862,,,,,,,,,,,,,,,,,,,,,,,,,,,,,,,,,,,,,,,,,,,,,,,,,,,,,,,,,,,,,,,,,,,,,,,,,,,,,,,,,,,,,,,,,,,,,,,,,,,,,,,
,,"[""comma""]",0,[0.36199999999999477],66,0,66,0,1,5ee3348f8cfe2d49e6dc98ff,22,Mężczyzna,2022-05-28_09h14.53.791,task,2021.1.4,Win32,60.0240096,628b806c463b948bc644b84f,6291cbe5e7a4c89ca765c862,,,,,,,,,,,,,,,,,,,,,,,,,,,,,,,,,,,,,,,,,,,,,,,,,,,,,,,,,,,,,,,,,,,,,,,,,,,,,,,,,,,,,,,,,,,,,,,,,,,,,,,
,,"[""period""]",0,[0.42900000000000205],67,0,67,0,1,5ee3348f8cfe2d49e6dc98ff,22,Mężczyzna,2022-05-28_09h14.53.791,task,2021.1.4,Win32,60.0240096,628b806c463b948bc644b84f,6291cbe5e7a4c89ca765c862,,,,,,,,,,,,,,,,,,,,,,,,,,,,,,,,,,,,,,,,,,,,,,,,,,,,,,,,,,,,,,,,,,,,,,,,,,,,,,,,,,,,,,,,,,,,,,,,,,,,,,,
,,"[""period""]",0,[0.11899999999999977],68,0,68,0,1,5ee3348f8cfe2d49e6dc98ff,22,Mężczyzna,2022-05-28_09h14.53.791,task,2021.1.4,Win32,60.0240096,628b806c463b948bc644b84f,6291cbe5e7a4c89ca765c862,,,,,,,,,,,,,,,,,,,,,,,,,,,,,,,,,,,,,,,,,,,,,,,,,,,,,,,,,,,,,,,,,,,,,,,,,,,,,,,,,,,,,,,,,,,,,,,,,,,,,,,
,,"[""period"",""period""]",0,"[0.03699999999997772,1.6550000000000011]",69,0,69,0,1,5ee3348f8cfe2d49e6dc98ff,22,Mężczyzna,2022-05-28_09h14.53.791,task,2021.1.4,Win32,60.0240096,628b806c463b948bc644b84f,6291cbe5e7a4c89ca765c862,,,,,,,,,,,,,,,,,,,,,,,,,,,,,,,,,,,,,,,,,,,,,,,,,,,,,,,,,,,,,,,,,,,,,,,,,,,,,,,,,,,,,,,,,,,,,,,,,,,,,,,
,,"[""period""]",0,[0.5229999999999961],70,0,70,0,1,5ee3348f8cfe2d49e6dc98ff,22,Mężczyzna,2022-05-28_09h14.53.791,task,2021.1.4,Win32,60.0240096,628b806c463b948bc644b84f,6291cbe5e7a4c89ca765c862,,,,,,,,,,,,,,,,,,,,,,,,,,,,,,,,,,,,,,,,,,,,,,,,,,,,,,,,,,,,,,,,,,,,,,,,,,,,,,,,,,,,,,,,,,,,,,,,,,,,,,,
,,"[""comma""]",0,[0.47100000000000364],71,0,71,0,1,5ee3348f8cfe2d49e6dc98ff,22,Mężczyzna,2022-05-28_09h14.53.791,task,2021.1.4,Win32,60.0240096,628b806c463b948bc644b84f,6291cbe5e7a4c89ca765c862,,,,,,,,,,,,,,,,,,,,,,,,,,,,,,,,,,,,,,,,,,,,,,,,,,,,,,,,,,,,,,,,,,,,,,,,,,,,,,,,,,,,,,,,,,,,,,,,,,,,,,,
,,"[""comma""]",0,[0.31399999999999295],72,0,72,0,1,5ee3348f8cfe2d49e6dc98ff,22,Mężczyzna,2022-05-28_09h14.53.791,task,2021.1.4,Win32,60.0240096,628b806c463b948bc644b84f,6291cbe5e7a4c89ca765c862,,,,,,,,,,,,,,,,,,,,,,,,,,,,,,,,,,,,,,,,,,,,,,,,,,,,,,,,,,,,,,,,,,,,,,,,,,,,,,,,,,,,,,,,,,,,,,,,,,,,,,,
,,"[""period""]",0,[0.24399999999999977],73,0,73,0,1,5ee3348f8cfe2d49e6dc98ff,22,Mężczyzna,2022-05-28_09h14.53.791,task,2021.1.4,Win32,60.0240096,628b806c463b948bc644b84f,6291cbe5e7a4c89ca765c862,,,,,,,,,,,,,,,,,,,,,,,,,,,,,,,,,,,,,,,,,,,,,,,,,,,,,,,,,,,,,,,,,,,,,,,,,,,,,,,,,,,,,,,,,,,,,,,,,,,,,,,
,,"[""comma""]",0,[0.25499999999999545],74,0,74,0,1,5ee3348f8cfe2d49e6dc98ff,22,Mężczyzna,2022-05-28_09h14.53.791,task,2021.1.4,Win32,60.0240096,628b806c463b948bc644b84f,6291cbe5e7a4c89ca765c862,,,,,,,,,,,,,,,,,,,,,,,,,,,,,,,,,,,,,,,,,,,,,,,,,,,,,,,,,,,,,,,,,,,,,,,,,,,,,,,,,,,,,,,,,,,,,,,,,,,,,,,
,,"[""comma""]",0,[0.13399999999998613],75,0,75,0,1,5ee3348f8cfe2d49e6dc98ff,22,Mężczyzna,2022-05-28_09h14.53.791,task,2021.1.4,Win32,60.0240096,628b806c463b948bc644b84f,6291cbe5e7a4c89ca765c862,,,,,,,,,,,,,,,,,,,,,,,,,,,,,,,,,,,,,,,,,,,,,,,,,,,,,,,,,,,,,,,,,,,,,,,,,,,,,,,,,,,,,,,,,,,,,,,,,,,,,,,
,,"[""period""]",0,[0.0630000000000166],76,0,76,0,1,5ee3348f8cfe2d49e6dc98ff,22,Mężczyzna,2022-05-28_09h14.53.791,task,2021.1.4,Win32,60.0240096,628b806c463b948bc644b84f,6291cbe5e7a4c89ca765c862,,,,,,,,,,,,,,,,,,,,,,,,,,,,,,,,,,,,,,,,,,,,,,,,,,,,,,,,,,,,,,,,,,,,,,,,,,,,,,,,,,,,,,,,,,,,,,,,,,,,,,,
,,"[""period""]",0,[0.23400000000000887],77,0,77,0,1,5ee3348f8cfe2d49e6dc98ff,22,Mężczyzna,2022-05-28_09h14.53.791,task,2021.1.4,Win32,60.0240096,628b806c463b948bc644b84f,6291cbe5e7a4c89ca765c862,,,,,,,,,,,,,,,,,,,,,,,,,,,,,,,,,,,,,,,,,,,,,,,,,,,,,,,,,,,,,,,,,,,,,,,,,,,,,,,,,,,,,,,,,,,,,,,,,,,,,,,
,,"[""period""]",0,[0.30299999999999727],78,0,78,0,1,5ee3348f8cfe2d49e6dc98ff,22,Mężczyzna,2022-05-28_09h14.53.791,task,2021.1.4,Win32,60.0240096,628b806c463b948bc644b84f,6291cbe5e7a4c89ca765c862,,,,,,,,,,,,,,,,,,,,,,,,,,,,,,,,,,,,,,,,,,,,,,,,,,,,,,,,,,,,,,,,,,,,,,,,,,,,,,,,,,,,,,,,,,,,,,,,,,,,,,,
,,"[""comma""]",0,[0.2669999999999959],79,0,79,0,1,5ee3348f8cfe2d49e6dc98ff,22,Mężczyzna,2022-05-28_09h14.53.791,task,2021.1.4,Win32,60.0240096,628b806c463b948bc644b84f,6291cbe5e7a4c89ca765c862,,,,,,,,,,,,,,,,,,,,,,,,,,,,,,,,,,,,,,,,,,,,,,,,,,,,,,,,,,,,,,,,,,,,,,,,,,,,,,,,,,,,,,,,,,,,,,,,,,,,,,,
,,"[""period""]",0,[0.25],80,0,80,0,1,5ee3348f8cfe2d49e6dc98ff,22,Mężczyzna,2022-05-28_09h14.53.791,task,2021.1.4,Win32,60.0240096,628b806c463b948bc644b84f,6291cbe5e7a4c89ca765c862,,,,,,,,,,,,,,,,,,,,,,,,,,,,,,,,,,,,,,,,,,,,,,,,,,,,,,,,,,,,,,,,,,,,,,,,,,,,,,,,,,,,,,,,,,,,,,,,,,,,,,,
,,"[""comma"",""comma""]",0,"[0.15699999999998226,1.7009999999999934]",81,0,81,0,1,5ee3348f8cfe2d49e6dc98ff,22,Mężczyzna,2022-05-28_09h14.53.791,task,2021.1.4,Win32,60.0240096,628b806c463b948bc644b84f,6291cbe5e7a4c89ca765c862,,,,,,,,,,,,,,,,,,,,,,,,,,,,,,,,,,,,,,,,,,,,,,,,,,,,,,,,,,,,,,,,,,,,,,,,,,,,,,,,,,,,,,,,,,,,,,,,,,,,,,,
,,,0,,82,0,82,0,1,5ee3348f8cfe2d49e6dc98ff,22,Mężczyzna,2022-05-28_09h14.53.791,task,2021.1.4,Win32,60.0240096,628b806c463b948bc644b84f,6291cbe5e7a4c89ca765c862,,,,,,,,,,,,,,,,,,,,,,,,,,,,,,,,,,,,,,,,,,,,,,,,,,,,,,,,,,,,,,,,,,,,,,,,,,,,,,,,,,,,,,,,,,,,,,,,,,,,,,,
,,"[""comma""]",0,[0.0030000000000143245],83,0,83,0,1,5ee3348f8cfe2d49e6dc98ff,22,Mężczyzna,2022-05-28_09h14.53.791,task,2021.1.4,Win32,60.0240096,628b806c463b948bc644b84f,6291cbe5e7a4c89ca765c862,,,,,,,,,,,,,,,,,,,,,,,,,,,,,,,,,,,,,,,,,,,,,,,,,,,,,,,,,,,,,,,,,,,,,,,,,,,,,,,,,,,,,,,,,,,,,,,,,,,,,,,
,,"[""comma""]",0,[0.3400000000000034],84,0,84,0,1,5ee3348f8cfe2d49e6dc98ff,22,Mężczyzna,2022-05-28_09h14.53.791,task,2021.1.4,Win32,60.0240096,628b806c463b948bc644b84f,6291cbe5e7a4c89ca765c862,,,,,,,,,,,,,,,,,,,,,,,,,,,,,,,,,,,,,,,,,,,,,,,,,,,,,,,,,,,,,,,,,,,,,,,,,,,,,,,,,,,,,,,,,,,,,,,,,,,,,,,
,,"[""period""]",0,[0.2680000000000007],85,0,85,0,1,5ee3348f8cfe2d49e6dc98ff,22,Mężczyzna,2022-05-28_09h14.53.791,task,2021.1.4,Win32,60.0240096,628b806c463b948bc644b84f,6291cbe5e7a4c89ca765c862,,,,,,,,,,,,,,,,,,,,,,,,,,,,,,,,,,,,,,,,,,,,,,,,,,,,,,,,,,,,,,,,,,,,,,,,,,,,,,,,,,,,,,,,,,,,,,,,,,,,,,,
,,"[""period""]",0,[0.3170000000000073],86,0,86,0,1,5ee3348f8cfe2d49e6dc98ff,22,Mężczyzna,2022-05-28_09h14.53.791,task,2021.1.4,Win32,60.0240096,628b806c463b948bc644b84f,6291cbe5e7a4c89ca765c862,,,,,,,,,,,,,,,,,,,,,,,,,,,,,,,,,,,,,,,,,,,,,,,,,,,,,,,,,,,,,,,,,,,,,,,,,,,,,,,,,,,,,,,,,,,,,,,,,,,,,,,
,,"[""comma""]",0,[0.28600000000000136],87,0,87,0,1,5ee3348f8cfe2d49e6dc98ff,22,Mężczyzna,2022-05-28_09h14.53.791,task,2021.1.4,Win32,60.0240096,628b806c463b948bc644b84f,6291cbe5e7a4c89ca765c862,,,,,,,,,,,,,,,,,,,,,,,,,,,,,,,,,,,,,,,,,,,,,,,,,,,,,,,,,,,,,,,,,,,,,,,,,,,,,,,,,,,,,,,,,,,,,,,,,,,,,,,
,,"[""comma""]",0,[0.31699999999997885],88,0,88,0,1,5ee3348f8cfe2d49e6dc98ff,22,Mężczyzna,2022-05-28_09h14.53.791,task,2021.1.4,Win32,60.0240096,628b806c463b948bc644b84f,6291cbe5e7a4c89ca765c862,,,,,,,,,,,,,,,,,,,,,,,,,,,,,,,,,,,,,,,,,,,,,,,,,,,,,,,,,,,,,,,,,,,,,,,,,,,,,,,,,,,,,,,,,,,,,,,,,,,,,,,
,,"[""comma""]",0,[0.28199999999998226],89,0,89,0,1,5ee3348f8cfe2d49e6dc98ff,22,Mężczyzna,2022-05-28_09h14.53.791,task,2021.1.4,Win32,60.0240096,628b806c463b948bc644b84f,6291cbe5e7a4c89ca765c862,,,,,,,,,,,,,,,,,,,,,,,,,,,,,,,,,,,,,,,,,,,,,,,,,,,,,,,,,,,,,,,,,,,,,,,,,,,,,,,,,,,,,,,,,,,,,,,,,,,,,,,
,,"[""period""]",0,[0.2539999999999907],90,0,90,0,1,5ee3348f8cfe2d49e6dc98ff,22,Mężczyzna,2022-05-28_09h14.53.791,task,2021.1.4,Win32,60.0240096,628b806c463b948bc644b84f,6291cbe5e7a4c89ca765c862,,,,,,,,,,,,,,,,,,,,,,,,,,,,,,,,,,,,,,,,,,,,,,,,,,,,,,,,,,,,,,,,,,,,,,,,,,,,,,,,,,,,,,,,,,,,,,,,,,,,,,,
,,"[""comma""]",0,[0.03499999999999659],91,0,91,0,1,5ee3348f8cfe2d49e6dc98ff,22,Mężczyzna,2022-05-28_09h14.53.791,task,2021.1.4,Win32,60.0240096,628b806c463b948bc644b84f,6291cbe5e7a4c89ca765c862,,,,,,,,,,,,,,,,,,,,,,,,,,,,,,,,,,,,,,,,,,,,,,,,,,,,,,,,,,,,,,,,,,,,,,,,,,,,,,,,,,,,,,,,,,,,,,,,,,,,,,,
,,"[""period""]",0,[-0.01300000000000523],92,0,92,0,1,5ee3348f8cfe2d49e6dc98ff,22,Mężczyzna,2022-05-28_09h14.53.791,task,2021.1.4,Win32,60.0240096,628b806c463b948bc644b84f,6291cbe5e7a4c89ca765c862,,,,,,,,,,,,,,,,,,,,,,,,,,,,,,,,,,,,,,,,,,,,,,,,,,,,,,,,,,,,,,,,,,,,,,,,,,,,,,,,,,,,,,,,,,,,,,,,,,,,,,,
,,"[""comma""]",0,[0.020999999999986585],93,0,93,0,1,5ee3348f8cfe2d49e6dc98ff,22,Mężczyzna,2022-05-28_09h14.53.791,task,2021.1.4,Win32,60.0240096,628b806c463b948bc644b84f,6291cbe5e7a4c89ca765c862,,,,,,,,,,,,,,,,,,,,,,,,,,,,,,,,,,,,,,,,,,,,,,,,,,,,,,,,,,,,,,,,,,,,,,,,,,,,,,,,,,,,,,,,,,,,,,,,,,,,,,,
,,"[""comma""]",0,[0.18299999999999272],94,0,94,0,1,5ee3348f8cfe2d49e6dc98ff,22,Mężczyzna,2022-05-28_09h14.53.791,task,2021.1.4,Win32,60.0240096,628b806c463b948bc644b84f,6291cbe5e7a4c89ca765c862,,,,,,,,,,,,,,,,,,,,,,,,,,,,,,,,,,,,,,,,,,,,,,,,,,,,,,,,,,,,,,,,,,,,,,,,,,,,,,,,,,,,,,,,,,,,,,,,,,,,,,,
,,"[""period""]",0,[0.14699999999999136],95,0,95,0,1,5ee3348f8cfe2d49e6dc98ff,22,Mężczyzna,2022-05-28_09h14.53.791,task,2021.1.4,Win32,60.0240096,628b806c463b948bc644b84f,6291cbe5e7a4c89ca765c862,,,,,,,,,,,,,,,,,,,,,,,,,,,,,,,,,,,,,,,,,,,,,,,,,,,,,,,,,,,,,,,,,,,,,,,,,,,,,,,,,,,,,,,,,,,,,,,,,,,,,,,
,,"[""period""]",0,[0.0689999999999884],96,0,96,0,1,5ee3348f8cfe2d49e6dc98ff,22,Mężczyzna,2022-05-28_09h14.53.791,task,2021.1.4,Win32,60.0240096,628b806c463b948bc644b84f,6291cbe5e7a4c89ca765c862,,,,,,,,,,,,,,,,,,,,,,,,,,,,,,,,,,,,,,,,,,,,,,,,,,,,,,,,,,,,,,,,,,,,,,,,,,,,,,,,,,,,,,,,,,,,,,,,,,,,,,,
,,"[""comma""]",0,[0.11899999999999977],97,0,97,0,1,5ee3348f8cfe2d49e6dc98ff,22,Mężczyzna,2022-05-28_09h14.53.791,task,2021.1.4,Win32,60.0240096,628b806c463b948bc644b84f,6291cbe5e7a4c89ca765c862,,,,,,,,,,,,,,,,,,,,,,,,,,,,,,,,,,,,,,,,,,,,,,,,,,,,,,,,,,,,,,,,,,,,,,,,,,,,,,,,,,,,,,,,,,,,,,,,,,,,,,,
,,"[""comma""]",0,[0.35300000000000864],98,0,98,0,1,5ee3348f8cfe2d49e6dc98ff,22,Mężczyzna,2022-05-28_09h14.53.791,task,2021.1.4,Win32,60.0240096,628b806c463b948bc644b84f,6291cbe5e7a4c89ca765c862,,,,,,,,,,,,,,,,,,,,,,,,,,,,,,,,,,,,,,,,,,,,,,,,,,,,,,,,,,,,,,,,,,,,,,,,,,,,,,,,,,,,,,,,,,,,,,,,,,,,,,,
,,"[""period""]",0,[0.2009999999999934],99,0,99,0,1,5ee3348f8cfe2d49e6dc98ff,22,Mężczyzna,2022-05-28_09h14.53.791,task,2021.1.4,Win32,60.0240096,628b806c463b948bc644b84f,6291cbe5e7a4c89ca765c862,,,,,,,,,,,,,,,,,,,,,,,,,,,,,,,,,,,,,,,,,,,,,,,,,,,,,,,,,,,,,,,,,,,,,,,,,,,,,,,,,,,,,,,,,,,,,,,,,,,,,,,
,,"[""comma""]",0,[0.03499999999999659],100,0,100,0,1,5ee3348f8cfe2d49e6dc98ff,22,Mężczyzna,2022-05-28_09h14.53.791,task,2021.1.4,Win32,60.0240096,628b806c463b948bc644b84f,6291cbe5e7a4c89ca765c862,,,,,,,,,,,,,,,,,,,,,,,,,,,,,,,,,,,,,,,,,,,,,,,,,,,,,,,,,,,,,,,,,,,,,,,,,,,,,,,,,,,,,,,,,,,,,,,,,,,,,,,
,,"[""period""]",0,[0.03999999999999204],101,0,101,0,1,5ee3348f8cfe2d49e6dc98ff,22,Mężczyzna,2022-05-28_09h14.53.791,task,2021.1.4,Win32,60.0240096,628b806c463b948bc644b84f,6291cbe5e7a4c89ca765c862,,,,,,,,,,,,,,,,,,,,,,,,,,,,,,,,,,,,,,,,,,,,,,,,,,,,,,,,,,,,,,,,,,,,,,,,,,,,,,,,,,,,,,,,,,,,,,,,,,,,,,,
,,"[""period""]",0,[0.011000000000024102],102,0,102,0,1,5ee3348f8cfe2d49e6dc98ff,22,Mężczyzna,2022-05-28_09h14.53.791,task,2021.1.4,Win32,60.0240096,628b806c463b948bc644b84f,6291cbe5e7a4c89ca765c862,,,,,,,,,,,,,,,,,,,,,,,,,,,,,,,,,,,,,,,,,,,,,,,,,,,,,,,,,,,,,,,,,,,,,,,,,,,,,,,,,,,,,,,,,,,,,,,,,,,,,,,
,,"[""comma""]",0,[0.2009999999999934],103,0,103,0,1,5ee3348f8cfe2d49e6dc98ff,22,Mężczyzna,2022-05-28_09h14.53.791,task,2021.1.4,Win32,60.0240096,628b806c463b948bc644b84f,6291cbe5e7a4c89ca765c862,,,,,,,,,,,,,,,,,,,,,,,,,,,,,,,,,,,,,,,,,,,,,,,,,,,,,,,,,,,,,,,,,,,,,,,,,,,,,,,,,,,,,,,,,,,,,,,,,,,,,,,
,,"[""period"",""comma""]",0,"[0.13400000000001455,1.9220000000000255]",104,0,104,0,1,5ee3348f8cfe2d49e6dc98ff,22,Mężczyzna,2022-05-28_09h14.53.791,task,2021.1.4,Win32,60.0240096,628b806c463b948bc644b84f,6291cbe5e7a4c89ca765c862,,,,,,,,,,,,,,,,,,,,,,,,,,,,,,,,,,,,,,,,,,,,,,,,,,,,,,,,,,,,,,,,,,,,,,,,,,,,,,,,,,,,,,,,,,,,,,,,,,,,,,,
,,"[""period""]",0,[1.953000000000003],105,0,105,0,1,5ee3348f8cfe2d49e6dc98ff,22,Mężczyzna,2022-05-28_09h14.53.791,task,2021.1.4,Win32,60.0240096,628b806c463b948bc644b84f,6291cbe5e7a4c89ca765c862,,,,,,,,,,,,,,,,,,,,,,,,,,,,,,,,,,,,,,,,,,,,,,,,,,,,,,,,,,,,,,,,,,,,,,,,,,,,,,,,,,,,,,,,,,,,,,,,,,,,,,,
,,,0,,106,0,106,0,1,5ee3348f8cfe2d49e6dc98ff,22,Mężczyzna,2022-05-28_09h14.53.791,task,2021.1.4,Win32,60.0240096,628b806c463b948bc644b84f,6291cbe5e7a4c89ca765c862,,,,,,,,,,,,,,,,,,,,,,,,,,,,,,,,,,,,,,,,,,,,,,,,,,,,,,,,,,,,,,,,,,,,,,,,,,,,,,,,,,,,,,,,,,,,,,,,,,,,,,,
,,"[""comma""]",0,[0.053999999999973625],107,0,107,0,1,5ee3348f8cfe2d49e6dc98ff,22,Mężczyzna,2022-05-28_09h14.53.791,task,2021.1.4,Win32,60.0240096,628b806c463b948bc644b84f,6291cbe5e7a4c89ca765c862,,,,,,,,,,,,,,,,,,,,,,,,,,,,,,,,,,,,,,,,,,,,,,,,,,,,,,,,,,,,,,,,,,,,,,,,,,,,,,,,,,,,,,,,,,,,,,,,,,,,,,,
,,"[""period""]",0,[0.09800000000001319],108,0,108,0,1,5ee3348f8cfe2d49e6dc98ff,22,Mężczyzna,2022-05-28_09h14.53.791,task,2021.1.4,Win32,60.0240096,628b806c463b948bc644b84f,6291cbe5e7a4c89ca765c862,,,,,,,,,,,,,,,,,,,,,,,,,,,,,,,,,,,,,,,,,,,,,,,,,,,,,,,,,,,,,,,,,,,,,,,,,,,,,,,,,,,,,,,,,,,,,,,,,,,,,,,
,,"[""period""]",0,[0.12000000000000455],109,0,109,0,1,5ee3348f8cfe2d49e6dc98ff,22,Mężczyzna,2022-05-28_09h14.53.791,task,2021.1.4,Win32,60.0240096,628b806c463b948bc644b84f,6291cbe5e7a4c89ca765c862,,,,,,,,,,,,,,,,,,,,,,,,,,,,,,,,,,,,,,,,,,,,,,,,,,,,,,,,,,,,,,,,,,,,,,,,,,,,,,,,,,,,,,,,,,,,,,,,,,,,,,,
,,"[""period""]",0,[0.21299999999999386],110,0,110,0,1,5ee3348f8cfe2d49e6dc98ff,22,Mężczyzna,2022-05-28_09h14.53.791,task,2021.1.4,Win32,60.0240096,628b806c463b948bc644b84f,6291cbe5e7a4c89ca765c862,,,,,,,,,,,,,,,,,,,,,,,,,,,,,,,,,,,,,,,,,,,,,,,,,,,,,,,,,,,,,,,,,,,,,,,,,,,,,,,,,,,,,,,,,,,,,,,,,,,,,,,
,,"[""comma""]",0,[0.1239999999999668],111,0,111,0,1,5ee3348f8cfe2d49e6dc98ff,22,Mężczyzna,2022-05-28_09h14.53.791,task,2021.1.4,Win32,60.0240096,628b806c463b948bc644b84f,6291cbe5e7a4c89ca765c862,,,,,,,,,,,,,,,,,,,,,,,,,,,,,,,,,,,,,,,,,,,,,,,,,,,,,,,,,,,,,,,,,,,,,,,,,,,,,,,,,,,,,,,,,,,,,,,,,,,,,,,
,,"[""period"",""comma""]",0,"[-0.016000000000019554,1.399000000000001]",112,0,112,0,1,5ee3348f8cfe2d49e6dc98ff,22,Mężczyzna,2022-05-28_09h14.53.791,task,2021.1.4,Win32,60.0240096,628b806c463b948bc644b84f,6291cbe5e7a4c89ca765c862,,,,,,,,,,,,,,,,,,,,,,,,,,,,,,,,,,,,,,,,,,,,,,,,,,,,,,,,,,,,,,,,,,,,,,,,,,,,,,,,,,,,,,,,,,,,,,,,,,,,,,,
,,"[""period""]",0,[0.5300000000000296],113,0,113,0,1,5ee3348f8cfe2d49e6dc98ff,22,Mężczyzna,2022-05-28_09h14.53.791,task,2021.1.4,Win32,60.0240096,628b806c463b948bc644b84f,6291cbe5e7a4c89ca765c862,,,,,,,,,,,,,,,,,,,,,,,,,,,,,,,,,,,,,,,,,,,,,,,,,,,,,,,,,,,,,,,,,,,,,,,,,,,,,,,,,,,,,,,,,,,,,,,,,,,,,,,
,,"[""period"",""comma""]",0,"[0.2540000000000191,1.4670000000000414]",114,0,114,0,1,5ee3348f8cfe2d49e6dc98ff,22,Mężczyzna,2022-05-28_09h14.53.791,task,2021.1.4,Win32,60.0240096,628b806c463b948bc644b84f,6291cbe5e7a4c89ca765c862,,,,,,,,,,,,,,,,,,,,,,,,,,,,,,,,,,,,,,,,,,,,,,,,,,,,,,,,,,,,,,,,,,,,,,,,,,,,,,,,,,,,,,,,,,,,,,,,,,,,,,,
,,"[""comma""]",0,[0.674000000000035],115,0,115,0,1,5ee3348f8cfe2d49e6dc98ff,22,Mężczyzna,2022-05-28_09h14.53.791,task,2021.1.4,Win32,60.0240096,628b806c463b948bc644b84f,6291cbe5e7a4c89ca765c862,,,,,,,,,,,,,,,,,,,,,,,,,,,,,,,,,,,,,,,,,,,,,,,,,,,,,,,,,,,,,,,,,,,,,,,,,,,,,,,,,,,,,,,,,,,,,,,,,,,,,,,
,,"[""comma"",""period""]",0,"[0.242999999999995,1.9220000000000255]",116,0,116,0,1,5ee3348f8cfe2d49e6dc98ff,22,Mężczyzna,2022-05-28_09h14.53.791,task,2021.1.4,Win32,60.0240096,628b806c463b948bc644b84f,6291cbe5e7a4c89ca765c862,,,,,,,,,,,,,,,,,,,,,,,,,,,,,,,,,,,,,,,,,,,,,,,,,,,,,,,,,,,,,,,,,,,,,,,,,,,,,,,,,,,,,,,,,,,,,,,,,,,,,,,
,,"[""comma""]",0,[1.6030000000000086],117,0,117,0,1,5ee3348f8cfe2d49e6dc98ff,22,Mężczyzna,2022-05-28_09h14.53.791,task,2021.1.4,Win32,60.0240096,628b806c463b948bc644b84f,6291cbe5e7a4c89ca765c862,,,,,,,,,,,,,,,,,,,,,,,,,,,,,,,,,,,,,,,,,,,,,,,,,,,,,,,,,,,,,,,,,,,,,,,,,,,,,,,,,,,,,,,,,,,,,,,,,,,,,,,
,,"[""period""]",0,[0.7659999999999627],118,0,118,0,1,5ee3348f8cfe2d49e6dc98ff,22,Mężczyzna,2022-05-28_09h14.53.791,task,2021.1.4,Win32,60.0240096,628b806c463b948bc644b84f,6291cbe5e7a4c89ca765c862,,,,,,,,,,,,,,,,,,,,,,,,,,,,,,,,,,,,,,,,,,,,,,,,,,,,,,,,,,,,,,,,,,,,,,,,,,,,,,,,,,,,,,,,,,,,,,,,,,,,,,,
,,"[""comma""]",0,[0.29700000000002547],119,0,119,0,1,5ee3348f8cfe2d49e6dc98ff,22,Mężczyzna,2022-05-28_09h14.53.791,task,2021.1.4,Win32,60.0240096,628b806c463b948bc644b84f,6291cbe5e7a4c89ca765c862,,,,,,,,,,,,,,,,,,,,,,,,,,,,,,,,,,,,,,,,,,,,,,,,,,,,,,,,,,,,,,,,,,,,,,,,,,,,,,,,,,,,,,,,,,,,,,,,,,,,,,,
,,,,,,,,,,5ee3348f8cfe2d49e6dc98ff,22,Mężczyzna,2022-05-28_09h14.53.791,task,2021.1.4,Win32,60.0240096,628b806c463b948bc644b84f,6291cbe5e7a4c89ca765c862,space,9.853,space,3.985,0,0,0,0,1,"X V Q F H G B L J M P D K C T S W R N Z
",,,,,,,,,,,,,,,,,,,,,,,,,,,,,,,,,,,,,,,,,,,,,,,,,,,,,,,,,,,,,,,,,,,,,,,,,,,,,,,,,,,,,,,,,,,,,
,,,,,,,,,,5ee3348f8cfe2d49e6dc98ff,22,Mężczyzna,2022-05-28_09h14.53.791,task,2021.1.4,Win32,60.0240096,628b806c463b948bc644b84f,6291cbe5e7a4c89ca765c862,,,,,1,0,1,0,1,"X V Q F H G B L J M P D K C T S W R N Z
",,,,,,,,,,,,,,,,,,,,,,,,,,,,,,,,,,,,,,,,,,,,,,,,,,,,,,,,,,,,,,,,,,,,,,,,,,,,,,,,,,,,,,,,,,,,,
,,,,,,,,,,5ee3348f8cfe2d49e6dc98ff,22,Mężczyzna,2022-05-28_09h14.53.791,task,2021.1.4,Win32,60.0240096,628b806c463b948bc644b84f,6291cbe5e7a4c89ca765c862,,,,,,,,,,,zh,"[""z"",""h""]","[1.5299999999999727,1.5910000000000082,2.69399999999996]",1,ZH,0,0,0,0,1,,,,,,,,,,,,,,,,,,,,,,,,,,,,,,,,,,,,,,,,,,,,,,,,,,,,,,,,,,,,,,,,,,,,,,,,,,,,,,,,,,,
,,,,,,,,,,5ee3348f8cfe2d49e6dc98ff,22,Mężczyzna,2022-05-28_09h14.53.791,task,2021.1.4,Win32,60.0240096,628b806c463b948bc644b84f,6291cbe5e7a4c89ca765c862,,,,,0,0,0,0,1,"X V Q F H G B L J M P D K C T S W R N Z
",,,,,,,,,,,,,,,,,,,,,,,,,,,,,,,,,,,,,,,,,,,,,,,,,,,,,,,,,,,,,,,,,,,,,,,,,,,,,,,,,,,,,,,,,,,,,
,,,,,,,,,,5ee3348f8cfe2d49e6dc98ff,22,Mężczyzna,2022-05-28_09h14.53.791,task,2021.1.4,Win32,60.0240096,628b806c463b948bc644b84f,6291cbe5e7a4c89ca765c862,,,,,1,0,1,0,1,"X V Q F H G B L J M P D K C T S W R N Z
",,,,,,,,,,,,,,,,,,,,,,,,,,,,,,,,,,,,,,,,,,,,,,,,,,,,,,,,,,,,,,,,,,,,,,,,,,,,,,,,,,,,,,,,,,,,,
,,,,,,,,,,5ee3348f8cfe2d49e6dc98ff,22,Mężczyzna,2022-05-28_09h14.53.791,task,2021.1.4,Win32,60.0240096,628b806c463b948bc644b84f,6291cbe5e7a4c89ca765c862,,,,,,,,,,,dh,"[""d"",""h""]","[1.3600000000000136,1.4279999999999973,1.86099999999999]",1,DH,1,0,1,0,1,,,,,,,,,,,,,,,,,,,,,,,,,,,,,,,,,,,,,,,,,,,,,,,,,,,,,,,,,,,,,,,,,,,,,,,,,,,,,,,,,,,
,,,,,,,,,,5ee3348f8cfe2d49e6dc98ff,22,Mężczyzna,2022-05-28_09h14.53.791,task,2021.1.4,Win32,60.0240096,628b806c463b948bc644b84f,6291cbe5e7a4c89ca765c862,,,,,0,0,0,0,1,"X V Q F H G B L J M P D K C T S W R N Z
",,,,,,,,,,,,,,,,,,,,,,,,,,,,,,,,,,,,,,,,,,,,,,,,,,,,,,,,,,,,,,,,,,,,,,,,,,,,,,,,,,,,,,,,,,,,,
,,,,,,,,,,5ee3348f8cfe2d49e6dc98ff,22,Mężczyzna,2022-05-28_09h14.53.791,task,2021.1.4,Win32,60.0240096,628b806c463b948bc644b84f,6291cbe5e7a4c89ca765c862,,,,,1,0,1,0,1,"X V Q F H G B L J M P D K C T S W R N Z
",,,,,,,,,,,,,,,,,,,,,,,,,,,,,,,,,,,,,,,,,,,,,,,,,,,,,,,,,,,,,,,,,,,,,,,,,,,,,,,,,,,,,,,,,,,,,
,,,,,,,,,,5ee3348f8cfe2d49e6dc98ff,22,Mężczyzna,2022-05-28_09h14.53.791,task,2021.1.4,Win32,60.0240096,628b806c463b948bc644b84f,6291cbe5e7a4c89ca765c862,,,,,2,0,2,0,1,"X V Q F H G B L J M P D K C T S W R N Z
",,,,,,,,,,,,,,,,,,,,,,,,,,,,,,,,,,,,,,,,,,,,,,,,,,,,,,,,,,,,,,,,,,,,,,,,,,,,,,,,,,,,,,,,,,,,,
,,,,,,,,,,5ee3348f8cfe2d49e6dc98ff,22,Mężczyzna,2022-05-28_09h14.53.791,task,2021.1.4,Win32,60.0240096,628b806c463b948bc644b84f,6291cbe5e7a4c89ca765c862,,,,,,,,,,,dqg,"[""d"",""q"",""g""]","[0.5980000000000132,0.7520000000000095,1.086999999999989,2.1310000000000286]",1,DQG,2,0,2,0,1,,,,,,,,,,,,,,,,,,,,,,,,,,,,,,,,,,,,,,,,,,,,,,,,,,,,,,,,,,,,,,,,,,,,,,,,,,,,,,,,,,,
,,,,,,,,,,5ee3348f8cfe2d49e6dc98ff,22,Mężczyzna,2022-05-28_09h14.53.791,task,2021.1.4,Win32,60.0240096,628b806c463b948bc644b84f,6291cbe5e7a4c89ca765c862,,,,,0,0,0,0,1,"X V Q F H G B L J M P D K C T S W R N Z
",,,,,,,,,,,,,,,,,,,,,,,,,,,,,,,,,,,,,,,,,,,,,,,,,,,,,,,,,,,,,,,,,,,,,,,,,,,,,,,,,,,,,,,,,,,,,
,,,,,,,,,,5ee3348f8cfe2d49e6dc98ff,22,Mężczyzna,2022-05-28_09h14.53.791,task,2021.1.4,Win32,60.0240096,628b806c463b948bc644b84f,6291cbe5e7a4c89ca765c862,,,,,1,0,1,0,1,"X V Q F H G B L J M P D K C T S W R N Z
",,,,,,,,,,,,,,,,,,,,,,,,,,,,,,,,,,,,,,,,,,,,,,,,,,,,,,,,,,,,,,,,,,,,,,,,,,,,,,,,,,,,,,,,,,,,,
,,,,,,,,,,5ee3348f8cfe2d49e6dc98ff,22,Mężczyzna,2022-05-28_09h14.53.791,task,2021.1.4,Win32,60.0240096,628b806c463b948bc644b84f,6291cbe5e7a4c89ca765c862,,,,,2,0,2,0,1,"X V Q F H G B L J M P D K C T S W R N Z
",,,,,,,,,,,,,,,,,,,,,,,,,,,,,,,,,,,,,,,,,,,,,,,,,,,,,,,,,,,,,,,,,,,,,,,,,,,,,,,,,,,,,,,,,,,,,
,,,,,,,,,,5ee3348f8cfe2d49e6dc98ff,22,Mężczyzna,2022-05-28_09h14.53.791,task,2021.1.4,Win32,60.0240096,628b806c463b948bc644b84f,6291cbe5e7a4c89ca765c862,,,,,,,,,,,lrj,"[""l"",""r"",""j""]","[1.34699999999998,1.5319999999999823,2.334000000000003,2.815999999999974]",1,LRJ,3,0,3,0,1,,,,,,,,,,,,,,,,,,,,,,,,,,,,,,,,,,,,,,,,,,,,,,,,,,,,,,,,,,,,,,,,,,,,,,,,,,,,,,,,,,,
,,,,,,,,,,5ee3348f8cfe2d49e6dc98ff,22,Mężczyzna,2022-05-28_09h14.53.791,task,2021.1.4,Win32,60.0240096,628b806c463b948bc644b84f,6291cbe5e7a4c89ca765c862,,,,,0,0,0,0,1,"X V Q F H G B L J M P D K C T S W R N Z
",,,,,,,,,,,,,,,,,,,,,,,,,,,,,,,,,,,,,,,,,,,,,,,,,,,,,,,,,,,,,,,,,,,,,,,,,,,,,,,,,,,,,,,,,,,,,
,,,,,,,,,,5ee3348f8cfe2d49e6dc98ff,22,Mężczyzna,2022-05-28_09h14.53.791,task,2021.1.4,Win32,60.0240096,628b806c463b948bc644b84f,6291cbe5e7a4c89ca765c862,,,,,1,0,1,0,1,"X V Q F H G B L J M P D K C T S W R N Z
",,,,,,,,,,,,,,,,,,,,,,,,,,,,,,,,,,,,,,,,,,,,,,,,,,,,,,,,,,,,,,,,,,,,,,,,,,,,,,,,,,,,,,,,,,,,,
,,,,,,,,,,5ee3348f8cfe2d49e6dc98ff,22,Mężczyzna,2022-05-28_09h14.53.791,task,2021.1.4,Win32,60.0240096,628b806c463b948bc644b84f,6291cbe5e7a4c89ca765c862,,,,,2,0,2,0,1,"X V Q F H G B L J M P D K C T S W R N Z
",,,,,,,,,,,,,,,,,,,,,,,,,,,,,,,,,,,,,,,,,,,,,,,,,,,,,,,,,,,,,,,,,,,,,,,,,,,,,,,,,,,,,,,,,,,,,
,,,,,,,,,,5ee3348f8cfe2d49e6dc98ff,22,Mężczyzna,2022-05-28_09h14.53.791,task,2021.1.4,Win32,60.0240096,628b806c463b948bc644b84f,6291cbe5e7a4c89ca765c862,,,,,3,0,3,0,1,"X V Q F H G B L J M P D K C T S W R N Z
",,,,,,,,,,,,,,,,,,,,,,,,,,,,,,,,,,,,,,,,,,,,,,,,,,,,,,,,,,,,,,,,,,,,,,,,,,,,,,,,,,,,,,,,,,,,,
,,,,,,,,,,5ee3348f8cfe2d49e6dc98ff,22,Mężczyzna,2022-05-28_09h14.53.791,task,2021.1.4,Win32,60.0240096,628b806c463b948bc644b84f,6291cbe5e7a4c89ca765c862,,,,,,,,,,,kbvh,"[""k"",""b"",""v"",""h""]","[0.8760000000000332,1.1580000000000155,1.4080000000000155,1.6470000000000482,1.941000000000031]",1,KBVH,4,0,4,0,1,,,,,,,,,,,,,,,,,,,,,,,,,,,,,,,,,,,,,,,,,,,,,,,,,,,,,,,,,,,,,,,,,,,,,,,,,,,,,,,,,,,
,,,,,,,,,,5ee3348f8cfe2d49e6dc98ff,22,Mężczyzna,2022-05-28_09h14.53.791,task,2021.1.4,Win32,60.0240096,628b806c463b948bc644b84f,6291cbe5e7a4c89ca765c862,,,,,0,0,0,0,1,"X V Q F H G B L J M P D K C T S W R N Z
",,,,,,,,,,,,,,,,,,,,,,,,,,,,,,,,,,,,,,,,,,,,,,,,,,,,,,,,,,,,,,,,,,,,,,,,,,,,,,,,,,,,,,,,,,,,,
,,,,,,,,,,5ee3348f8cfe2d49e6dc98ff,22,Mężczyzna,2022-05-28_09h14.53.791,task,2021.1.4,Win32,60.0240096,628b806c463b948bc644b84f,6291cbe5e7a4c89ca765c862,,,,,1,0,1,0,1,"X V Q F H G B L J M P D K C T S W R N Z
",,,,,,,,,,,,,,,,,,,,,,,,,,,,,,,,,,,,,,,,,,,,,,,,,,,,,,,,,,,,,,,,,,,,,,,,,,,,,,,,,,,,,,,,,,,,,
,,,,,,,,,,5ee3348f8cfe2d49e6dc98ff,22,Mężczyzna,2022-05-28_09h14.53.791,task,2021.1.4,Win32,60.0240096,628b806c463b948bc644b84f,6291cbe5e7a4c89ca765c862,,,,,2,0,2,0,1,"X V Q F H G B L J M P D K C T S W R N Z
",,,,,,,,,,,,,,,,,,,,,,,,,,,,,,,,,,,,,,,,,,,,,,,,,,,,,,,,,,,,,,,,,,,,,,,,,,,,,,,,,,,,,,,,,,,,,
,,,,,,,,,,5ee3348f8cfe2d49e6dc98ff,22,Mężczyzna,2022-05-28_09h14.53.791,task,2021.1.4,Win32,60.0240096,628b806c463b948bc644b84f,6291cbe5e7a4c89ca765c862,,,,,3,0,3,0,1,"X V Q F H G B L J M P D K C T S W R N Z
",,,,,,,,,,,,,,,,,,,,,,,,,,,,,,,,,,,,,,,,,,,,,,,,,,,,,,,,,,,,,,,,,,,,,,,,,,,,,,,,,,,,,,,,,,,,,
,,,,,,,,,,5ee3348f8cfe2d49e6dc98ff,22,Mężczyzna,2022-05-28_09h14.53.791,task,2021.1.4,Win32,60.0240096,628b806c463b948bc644b84f,6291cbe5e7a4c89ca765c862,,,,,,,,,,,mxst,"[""m"",""x"",""s"",""t""]","[0.8369999999999891,1.1199999999999477,1.3129999999999882,1.5499999999999545,1.697999999999979]",1,MXST,5,0,5,0,1,,,,,,,,,,,,,,,,,,,,,,,,,,,,,,,,,,,,,,,,,,,,,,,,,,,,,,,,,,,,,,,,,,,,,,,,,,,,,,,,,,,
,,,,,,,,,,5ee3348f8cfe2d49e6dc98ff,22,Mężczyzna,2022-05-28_09h14.53.791,task,2021.1.4,Win32,60.0240096,628b806c463b948bc644b84f,6291cbe5e7a4c89ca765c862,,,,,0,0,0,0,1,"X V Q F H G B L J M P D K C T S W R N Z
",,,,,,,,,,,,,,,,,,,,,,,,,,,,,,,,,,,,,,,,,,,,,,,,,,,,,,,,,,,,,,,,,,,,,,,,,,,,,,,,,,,,,,,,,,,,,
,,,,,,,,,,5ee3348f8cfe2d49e6dc98ff,22,Mężczyzna,2022-05-28_09h14.53.791,task,2021.1.4,Win32,60.0240096,628b806c463b948bc644b84f,6291cbe5e7a4c89ca765c862,,,,,1,0,1,0,1,"X V Q F H G B L J M P D K C T S W R N Z
",,,,,,,,,,,,,,,,,,,,,,,,,,,,,,,,,,,,,,,,,,,,,,,,,,,,,,,,,,,,,,,,,,,,,,,,,,,,,,,,,,,,,,,,,,,,,
,,,,,,,,,,5ee3348f8cfe2d49e6dc98ff,22,Mężczyzna,2022-05-28_09h14.53.791,task,2021.1.4,Win32,60.0240096,628b806c463b948bc644b84f,6291cbe5e7a4c89ca765c862,,,,,2,0,2,0,1,"X V Q F H G B L J M P D K C T S W R N Z
",,,,,,,,,,,,,,,,,,,,,,,,,,,,,,,,,,,,,,,,,,,,,,,,,,,,,,,,,,,,,,,,,,,,,,,,,,,,,,,,,,,,,,,,,,,,,
,,,,,,,,,,5ee3348f8cfe2d49e6dc98ff,22,Mężczyzna,2022-05-28_09h14.53.791,task,2021.1.4,Win32,60.0240096,628b806c463b948bc644b84f,6291cbe5e7a4c89ca765c862,,,,,3,0,3,0,1,"X V Q F H G B L J M P D K C T S W R N Z
",,,,,,,,,,,,,,,,,,,,,,,,,,,,,,,,,,,,,,,,,,,,,,,,,,,,,,,,,,,,,,,,,,,,,,,,,,,,,,,,,,,,,,,,,,,,,
,,,,,,,,,,5ee3348f8cfe2d49e6dc98ff,22,Mężczyzna,2022-05-28_09h14.53.791,task,2021.1.4,Win32,60.0240096,628b806c463b948bc644b84f,6291cbe5e7a4c89ca765c862,,,,,4,0,4,0,1,"X V Q F H G B L J M P D K C T S W R N Z
",,,,,,,,,,,,,,,,,,,,,,,,,,,,,,,,,,,,,,,,,,,,,,,,,,,,,,,,,,,,,,,,,,,,,,,,,,,,,,,,,,,,,,,,,,,,,
,,,,,,,,,,5ee3348f8cfe2d49e6dc98ff,22,Mężczyzna,2022-05-28_09h14.53.791,task,2021.1.4,Win32,60.0240096,628b806c463b948bc644b84f,6291cbe5e7a4c89ca765c862,,,,,,,,,,,lqjrn,"[""l"",""q"",""j"",""r"",""n""]","[0.7699999999999818,1.1159999999999854,1.367999999999995,1.5819999999999936,1.7309999999999945,1.98599999999999]",1,LQJRN,6,0,6,0,1,,,,,,,,,,,,,,,,,,,,,,,,,,,,,,,,,,,,,,,,,,,,,,,,,,,,,,,,,,,,,,,,,,,,,,,,,,,,,,,,,,,
,,,,,,,,,,5ee3348f8cfe2d49e6dc98ff,22,Mężczyzna,2022-05-28_09h14.53.791,task,2021.1.4,Win32,60.0240096,628b806c463b948bc644b84f,6291cbe5e7a4c89ca765c862,,,,,0,0,0,0,1,"X V Q F H G B L J M P D K C T S W R N Z
",,,,,,,,,,,,,,,,,,,,,,,,,,,,,,,,,,,,,,,,,,,,,,,,,,,,,,,,,,,,,,,,,,,,,,,,,,,,,,,,,,,,,,,,,,,,,
,,,,,,,,,,5ee3348f8cfe2d49e6dc98ff,22,Mężczyzna,2022-05-28_09h14.53.791,task,2021.1.4,Win32,60.0240096,628b806c463b948bc644b84f,6291cbe5e7a4c89ca765c862,,,,,1,0,1,0,1,"X V Q F H G B L J M P D K C T S W R N Z
",,,,,,,,,,,,,,,,,,,,,,,,,,,,,,,,,,,,,,,,,,,,,,,,,,,,,,,,,,,,,,,,,,,,,,,,,,,,,,,,,,,,,,,,,,,,,
,,,,,,,,,,5ee3348f8cfe2d49e6dc98ff,22,Mężczyzna,2022-05-28_09h14.53.791,task,2021.1.4,Win32,60.0240096,628b806c463b948bc644b84f,6291cbe5e7a4c89ca765c862,,,,,2,0,2,0,1,"X V Q F H G B L J M P D K C T S W R N Z
",,,,,,,,,,,,,,,,,,,,,,,,,,,,,,,,,,,,,,,,,,,,,,,,,,,,,,,,,,,,,,,,,,,,,,,,,,,,,,,,,,,,,,,,,,,,,
,,,,,,,,,,5ee3348f8cfe2d49e6dc98ff,22,Mężczyzna,2022-05-28_09h14.53.791,task,2021.1.4,Win32,60.0240096,628b806c463b948bc644b84f,6291cbe5e7a4c89ca765c862,,,,,3,0,3,0,1,"X V Q F H G B L J M P D K C T S W R N Z
",,,,,,,,,,,,,,,,,,,,,,,,,,,,,,,,,,,,,,,,,,,,,,,,,,,,,,,,,,,,,,,,,,,,,,,,,,,,,,,,,,,,,,,,,,,,,
,,,,,,,,,,5ee3348f8cfe2d49e6dc98ff,22,Mężczyzna,2022-05-28_09h14.53.791,task,2021.1.4,Win32,60.0240096,628b806c463b948bc644b84f,6291cbe5e7a4c89ca765c862,,,,,4,0,4,0,1,"X V Q F H G B L J M P D K C T S W R N Z
",,,,,,,,,,,,,,,,,,,,,,,,,,,,,,,,,,,,,,,,,,,,,,,,,,,,,,,,,,,,,,,,,,,,,,,,,,,,,,,,,,,,,,,,,,,,,
,,,,,,,,,,5ee3348f8cfe2d49e6dc98ff,22,Mężczyzna,2022-05-28_09h14.53.791,task,2021.1.4,Win32,60.0240096,628b806c463b948bc644b84f,6291cbe5e7a4c89ca765c862,,,,,,,,,,,fzrvf,"[""f"",""z"",""r"",""v"",""f""]","[1.47199999999998,1.7339999999999804,1.9539999999999509,2.2169999999999845,2.384999999999991,2.520999999999958]",0,"FZ
RVF",7,0,7,0,1,,,,,,,,,,,,,,,,,,,,,,,,,,,,,,,,,,,,,,,,,,,,,,,,,,,,,,,,,,,,,,,,,,,,,,,,,,,,,,,,,,,
,,,,,,,,,,5ee3348f8cfe2d49e6dc98ff,22,Mężczyzna,2022-05-28_09h14.53.791,task,2021.1.4,Win32,60.0240096,628b806c463b948bc644b84f,6291cbe5e7a4c89ca765c862,,,,,0,0,0,0,1,"X V Q F H G B L J M P D K C T S W R N Z
",,,,,,,,,,,,,,,,,,,,,,,,,,,,,,,,,,,,,,,,,,,,,,,,,,,,,,,,,,,,,,,,,,,,,,,,,,,,,,,,,,,,,,,,,,,,,
,,,,,,,,,,5ee3348f8cfe2d49e6dc98ff,22,Mężczyzna,2022-05-28_09h14.53.791,task,2021.1.4,Win32,60.0240096,628b806c463b948bc644b84f,6291cbe5e7a4c89ca765c862,,,,,1,0,1,0,1,"X V Q F H G B L J M P D K C T S W R N Z
",,,,,,,,,,,,,,,,,,,,,,,,,,,,,,,,,,,,,,,,,,,,,,,,,,,,,,,,,,,,,,,,,,,,,,,,,,,,,,,,,,,,,,,,,,,,,
,,,,,,,,,,5ee3348f8cfe2d49e6dc98ff,22,Mężczyzna,2022-05-28_09h14.53.791,task,2021.1.4,Win32,60.0240096,628b806c463b948bc644b84f,6291cbe5e7a4c89ca765c862,,,,,2,0,2,0,1,"X V Q F H G B L J M P D K C T S W R N Z
",,,,,,,,,,,,,,,,,,,,,,,,,,,,,,,,,,,,,,,,,,,,,,,,,,,,,,,,,,,,,,,,,,,,,,,,,,,,,,,,,,,,,,,,,,,,,
,,,,,,,,,,5ee3348f8cfe2d49e6dc98ff,22,Mężczyzna,2022-05-28_09h14.53.791,task,2021.1.4,Win32,60.0240096,628b806c463b948bc644b84f,6291cbe5e7a4c89ca765c862,,,,,3,0,3,0,1,"X V Q F H G B L J M P D K C T S W R N Z
",,,,,,,,,,,,,,,,,,,,,,,,,,,,,,,,,,,,,,,,,,,,,,,,,,,,,,,,,,,,,,,,,,,,,,,,,,,,,,,,,,,,,,,,,,,,,
,,,,,,,,,,5ee3348f8cfe2d49e6dc98ff,22,Mężczyzna,2022-05-28_09h14.53.791,task,2021.1.4,Win32,60.0240096,628b806c463b948bc644b84f,6291cbe5e7a4c89ca765c862,,,,,4,0,4,0,1,"X V Q F H G B L J M P D K C T S W R N Z
",,,,,,,,,,,,,,,,,,,,,,,,,,,,,,,,,,,,,,,,,,,,,,,,,,,,,,,,,,,,,,,,,,,,,,,,,,,,,,,,,,,,,,,,,,,,,
,,,,,,,,,,5ee3348f8cfe2d49e6dc98ff,22,Mężczyzna,2022-05-28_09h14.53.791,task,2021.1.4,Win32,60.0240096,628b806c463b948bc644b84f,6291cbe5e7a4c89ca765c862,,,,,,,,,,,cvdcr,"[""c"",""v"",""d"",""c"",""r""]","[1.1789999999999736,1.399000000000001,1.6639999999999873,1.8899999999999864,2.108000000000004,2.2239999999999895]",1,CVDCR,8,0,8,0,1,,,,,,,,,,,,,,,,,,,,,,,,,,,,,,,,,,,,,,,,,,,,,,,,,,,,,,,,,,,,,,,,,,,,,,,,,,,,,,,,,,,
,,,,,,,,,,5ee3348f8cfe2d49e6dc98ff,22,Mężczyzna,2022-05-28_09h14.53.791,task,2021.1.4,Win32,60.0240096,628b806c463b948bc644b84f,6291cbe5e7a4c89ca765c862,,,,,0,0,0,0,1,"X V Q F H G B L J M P D K C T S W R N Z
",,,,,,,,,,,,,,,,,,,,,,,,,,,,,,,,,,,,,,,,,,,,,,,,,,,,,,,,,,,,,,,,,,,,,,,,,,,,,,,,,,,,,,,,,,,,,
,,,,,,,,,,5ee3348f8cfe2d49e6dc98ff,22,Mężczyzna,2022-05-28_09h14.53.791,task,2021.1.4,Win32,60.0240096,628b806c463b948bc644b84f,6291cbe5e7a4c89ca765c862,,,,,1,0,1,0,1,"X V Q F H G B L J M P D K C T S W R N Z
",,,,,,,,,,,,,,,,,,,,,,,,,,,,,,,,,,,,,,,,,,,,,,,,,,,,,,,,,,,,,,,,,,,,,,,,,,,,,,,,,,,,,,,,,,,,,
,,,,,,,,,,5ee3348f8cfe2d49e6dc98ff,22,Mężczyzna,2022-05-28_09h14.53.791,task,2021.1.4,Win32,60.0240096,628b806c463b948bc644b84f,6291cbe5e7a4c89ca765c862,,,,,2,0,2,0,1,"X V Q F H G B L J M P D K C T S W R N Z
",,,,,,,,,,,,,,,,,,,,,,,,,,,,,,,,,,,,,,,,,,,,,,,,,,,,,,,,,,,,,,,,,,,,,,,,,,,,,,,,,,,,,,,,,,,,,
,,,,,,,,,,5ee3348f8cfe2d49e6dc98ff,22,Mężczyzna,2022-05-28_09h14.53.791,task,2021.1.4,Win32,60.0240096,628b806c463b948bc644b84f,6291cbe5e7a4c89ca765c862,,,,,3,0,3,0,1,"X V Q F H G B L J M P D K C T S W R N Z
",,,,,,,,,,,,,,,,,,,,,,,,,,,,,,,,,,,,,,,,,,,,,,,,,,,,,,,,,,,,,,,,,,,,,,,,,,,,,,,,,,,,,,,,,,,,,
,,,,,,,,,,5ee3348f8cfe2d49e6dc98ff,22,Mężczyzna,2022-05-28_09h14.53.791,task,2021.1.4,Win32,60.0240096,628b806c463b948bc644b84f,6291cbe5e7a4c89ca765c862,,,,,4,0,4,0,1,"X V Q F H G B L J M P D K C T S W R N Z
",,,,,,,,,,,,,,,,,,,,,,,,,,,,,,,,,,,,,,,,,,,,,,,,,,,,,,,,,,,,,,,,,,,,,,,,,,,,,,,,,,,,,,,,,,,,,
,,,,,,,,,,5ee3348f8cfe2d49e6dc98ff,22,Mężczyzna,2022-05-28_09h14.53.791,task,2021.1.4,Win32,60.0240096,628b806c463b948bc644b84f,6291cbe5e7a4c89ca765c862,,,,,5,0,5,0,1,"X V Q F H G B L J M P D K C T S W R N Z
",,,,,,,,,,,,,,,,,,,,,,,,,,,,,,,,,,,,,,,,,,,,,,,,,,,,,,,,,,,,,,,,,,,,,,,,,,,,,,,,,,,,,,,,,,,,,
,,,,,,,,,,5ee3348f8cfe2d49e6dc98ff,22,Mężczyzna,2022-05-28_09h14.53.791,task,2021.1.4,Win32,60.0240096,628b806c463b948bc644b84f,6291cbe5e7a4c89ca765c862,,,,,,,,,,,qmvcjx,"[""q"",""m"",""v"",""c"",""j"",""x""]","[1.0020000000000095,1.9019999999999868,2.1380000000000337,2.5149999999999864,2.8520000000000323,3.0649999999999977,3.3170000000000073]",1,QMVCJX,9,0,9,0,1,,,,,,,,,,,,,,,,,,,,,,,,,,,,,,,,,,,,,,,,,,,,,,,,,,,,,,,,,,,,,,,,,,,,,,,,,,,,,,,,,,,
,,,,,,,,,,5ee3348f8cfe2d49e6dc98ff,22,Mężczyzna,2022-05-28_09h14.53.791,task,2021.1.4,Win32,60.0240096,628b806c463b948bc644b84f,6291cbe5e7a4c89ca765c862,,,,,0,0,0,0,1,"X V Q F H G B L J M P D K C T S W R N Z
",,,,,,,,,,,,,,,,,,,,,,,,,,,,,,,,,,,,,,,,,,,,,,,,,,,,,,,,,,,,,,,,,,,,,,,,,,,,,,,,,,,,,,,,,,,,,
,,,,,,,,,,5ee3348f8cfe2d49e6dc98ff,22,Mężczyzna,2022-05-28_09h14.53.791,task,2021.1.4,Win32,60.0240096,628b806c463b948bc644b84f,6291cbe5e7a4c89ca765c862,,,,,1,0,1,0,1,"X V Q F H G B L J M P D K C T S W R N Z
",,,,,,,,,,,,,,,,,,,,,,,,,,,,,,,,,,,,,,,,,,,,,,,,,,,,,,,,,,,,,,,,,,,,,,,,,,,,,,,,,,,,,,,,,,,,,
,,,,,,,,,,5ee3348f8cfe2d49e6dc98ff,22,Mężczyzna,2022-05-28_09h14.53.791,task,2021.1.4,Win32,60.0240096,628b806c463b948bc644b84f,6291cbe5e7a4c89ca765c862,,,,,2,0,2,0,1,"X V Q F H G B L J M P D K C T S W R N Z
",,,,,,,,,,,,,,,,,,,,,,,,,,,,,,,,,,,,,,,,,,,,,,,,,,,,,,,,,,,,,,,,,,,,,,,,,,,,,,,,,,,,,,,,,,,,,
,,,,,,,,,,5ee3348f8cfe2d49e6dc98ff,22,Mężczyzna,2022-05-28_09h14.53.791,task,2021.1.4,Win32,60.0240096,628b806c463b948bc644b84f,6291cbe5e7a4c89ca765c862,,,,,3,0,3,0,1,"X V Q F H G B L J M P D K C T S W R N Z
",,,,,,,,,,,,,,,,,,,,,,,,,,,,,,,,,,,,,,,,,,,,,,,,,,,,,,,,,,,,,,,,,,,,,,,,,,,,,,,,,,,,,,,,,,,,,
,,,,,,,,,,5ee3348f8cfe2d49e6dc98ff,22,Mężczyzna,2022-05-28_09h14.53.791,task,2021.1.4,Win32,60.0240096,628b806c463b948bc644b84f,6291cbe5e7a4c89ca765c862,,,,,4,0,4,0,1,"X V Q F H G B L J M P D K C T S W R N Z
",,,,,,,,,,,,,,,,,,,,,,,,,,,,,,,,,,,,,,,,,,,,,,,,,,,,,,,,,,,,,,,,,,,,,,,,,,,,,,,,,,,,,,,,,,,,,
,,,,,,,,,,5ee3348f8cfe2d49e6dc98ff,22,Mężczyzna,2022-05-28_09h14.53.791,task,2021.1.4,Win32,60.0240096,628b806c463b948bc644b84f,6291cbe5e7a4c89ca765c862,,,,,5,0,5,0,1,"X V Q F H G B L J M P D K C T S W R N Z
",,,,,,,,,,,,,,,,,,,,,,,,,,,,,,,,,,,,,,,,,,,,,,,,,,,,,,,,,,,,,,,,,,,,,,,,,,,,,,,,,,,,,,,,,,,,,
,,,,,,,,,,5ee3348f8cfe2d49e6dc98ff,22,Mężczyzna,2022-05-28_09h14.53.791,task,2021.1.4,Win32,60.0240096,628b806c463b948bc644b84f,6291cbe5e7a4c89ca765c862,,,,,,,,,,,hgnnvx,"[""h"",""g"",""n"",""n"",""v"",""x""]","[1.285000000000025,1.5389999999999873,1.781000000000006,2.3029999999999973,3.465000000000032,3.6499999999999773,3.8360000000000127]",1,HGNNVX,10,0,10,0,1,,,,,,,,,,,,,,,,,,,,,,,,,,,,,,,,,,,,,,,,,,,,,,,,,,,,,,,,,,,,,,,,,,,,,,,,,,,,,,,,,,,
,,,,,,,,,,5ee3348f8cfe2d49e6dc98ff,22,Mężczyzna,2022-05-28_09h14.53.791,task,2021.1.4,Win32,60.0240096,628b806c463b948bc644b84f,6291cbe5e7a4c89ca765c862,,,,,0,0,0,0,1,"X V Q F H G B L J M P D K C T S W R N Z
",,,,,,,,,,,,,,,,,,,,,,,,,,,,,,,,,,,,,,,,,,,,,,,,,,,,,,,,,,,,,,,,,,,,,,,,,,,,,,,,,,,,,,,,,,,,,
,,,,,,,,,,5ee3348f8cfe2d49e6dc98ff,22,Mężczyzna,2022-05-28_09h14.53.791,task,2021.1.4,Win32,60.0240096,628b806c463b948bc644b84f,6291cbe5e7a4c89ca765c862,,,,,1,0,1,0,1,"X V Q F H G B L J M P D K C T S W R N Z
",,,,,,,,,,,,,,,,,,,,,,,,,,,,,,,,,,,,,,,,,,,,,,,,,,,,,,,,,,,,,,,,,,,,,,,,,,,,,,,,,,,,,,,,,,,,,
,,,,,,,,,,5ee3348f8cfe2d49e6dc98ff,22,Mężczyzna,2022-05-28_09h14.53.791,task,2021.1.4,Win32,60.0240096,628b806c463b948bc644b84f,6291cbe5e7a4c89ca765c862,,,,,2,0,2,0,1,"X V Q F H G B L J M P D K C T S W R N Z
",,,,,,,,,,,,,,,,,,,,,,,,,,,,,,,,,,,,,,,,,,,,,,,,,,,,,,,,,,,,,,,,,,,,,,,,,,,,,,,,,,,,,,,,,,,,,
,,,,,,,,,,5ee3348f8cfe2d49e6dc98ff,22,Mężczyzna,2022-05-28_09h14.53.791,task,2021.1.4,Win32,60.0240096,628b806c463b948bc644b84f,6291cbe5e7a4c89ca765c862,,,,,3,0,3,0,1,"X V Q F H G B L J M P D K C T S W R N Z
",,,,,,,,,,,,,,,,,,,,,,,,,,,,,,,,,,,,,,,,,,,,,,,,,,,,,,,,,,,,,,,,,,,,,,,,,,,,,,,,,,,,,,,,,,,,,
,,,,,,,,,,5ee3348f8cfe2d49e6dc98ff,22,Mężczyzna,2022-05-28_09h14.53.791,task,2021.1.4,Win32,60.0240096,628b806c463b948bc644b84f,6291cbe5e7a4c89ca765c862,,,,,4,0,4,0,1,"X V Q F H G B L J M P D K C T S W R N Z
",,,,,,,,,,,,,,,,,,,,,,,,,,,,,,,,,,,,,,,,,,,,,,,,,,,,,,,,,,,,,,,,,,,,,,,,,,,,,,,,,,,,,,,,,,,,,
,,,,,,,,,,5ee3348f8cfe2d49e6dc98ff,22,Mężczyzna,2022-05-28_09h14.53.791,task,2021.1.4,Win32,60.0240096,628b806c463b948bc644b84f,6291cbe5e7a4c89ca765c862,,,,,5,0,5,0,1,"X V Q F H G B L J M P D K C T S W R N Z
",,,,,,,,,,,,,,,,,,,,,,,,,,,,,,,,,,,,,,,,,,,,,,,,,,,,,,,,,,,,,,,,,,,,,,,,,,,,,,,,,,,,,,,,,,,,,
,,,,,,,,,,5ee3348f8cfe2d49e6dc98ff,22,Mężczyzna,2022-05-28_09h14.53.791,task,2021.1.4,Win32,60.0240096,628b806c463b948bc644b84f,6291cbe5e7a4c89ca765c862,,,,,6,0,6,0,1,"X V Q F H G B L J M P D K C T S W R N Z
",,,,,,,,,,,,,,,,,,,,,,,,,,,,,,,,,,,,,,,,,,,,,,,,,,,,,,,,,,,,,,,,,,,,,,,,,,,,,,,,,,,,,,,,,,,,,
,,,,,,,,,,5ee3348f8cfe2d49e6dc98ff,22,Mężczyzna,2022-05-28_09h14.53.791,task,2021.1.4,Win32,60.0240096,628b806c463b948bc644b84f,6291cbe5e7a4c89ca765c862,,,,,,,,,,,dtzwxe,"[""d"",""t"",""z"",""w"",""x"",""e""]","[1.016999999999996,1.2699999999999818,1.6339999999999577,2.3179999999999836,2.882000000000005,3.335999999999956,3.5679999999999836]",0,"DTZ
WXSD",11,0,11,0,1,,,,,,,,,,,,,,,,,,,,,,,,,,,,,,,,,,,,,,,,,,,,,,,,,,,,,,,,,,,,,,,,,,,,,,,,,,,,,,,,,,,
,,,,,,,,,,5ee3348f8cfe2d49e6dc98ff,22,Mężczyzna,2022-05-28_09h14.53.791,task,2021.1.4,Win32,60.0240096,628b806c463b948bc644b84f,6291cbe5e7a4c89ca765c862,,,,,0,0,0,0,1,"X V Q F H G B L J M P D K C T S W R N Z
",,,,,,,,,,,,,,,,,,,,,,,,,,,,,,,,,,,,,,,,,,,,,,,,,,,,,,,,,,,,,,,,,,,,,,,,,,,,,,,,,,,,,,,,,,,,,
,,,,,,,,,,5ee3348f8cfe2d49e6dc98ff,22,Mężczyzna,2022-05-28_09h14.53.791,task,2021.1.4,Win32,60.0240096,628b806c463b948bc644b84f,6291cbe5e7a4c89ca765c862,,,,,1,0,1,0,1,"X V Q F H G B L J M P D K C T S W R N Z
",,,,,,,,,,,,,,,,,,,,,,,,,,,,,,,,,,,,,,,,,,,,,,,,,,,,,,,,,,,,,,,,,,,,,,,,,,,,,,,,,,,,,,,,,,,,,
,,,,,,,,,,5ee3348f8cfe2d49e6dc98ff,22,Mężczyzna,2022-05-28_09h14.53.791,task,2021.1.4,Win32,60.0240096,628b806c463b948bc644b84f,6291cbe5e7a4c89ca765c862,,,,,2,0,2,0,1,"X V Q F H G B L J M P D K C T S W R N Z
",,,,,,,,,,,,,,,,,,,,,,,,,,,,,,,,,,,,,,,,,,,,,,,,,,,,,,,,,,,,,,,,,,,,,,,,,,,,,,,,,,,,,,,,,,,,,
,,,,,,,,,,5ee3348f8cfe2d49e6dc98ff,22,Mężczyzna,2022-05-28_09h14.53.791,task,2021.1.4,Win32,60.0240096,628b806c463b948bc644b84f,6291cbe5e7a4c89ca765c862,,,,,3,0,3,0,1,"X V Q F H G B L J M P D K C T S W R N Z
",,,,,,,,,,,,,,,,,,,,,,,,,,,,,,,,,,,,,,,,,,,,,,,,,,,,,,,,,,,,,,,,,,,,,,,,,,,,,,,,,,,,,,,,,,,,,
,,,,,,,,,,5ee3348f8cfe2d49e6dc98ff,22,Mężczyzna,2022-05-28_09h14.53.791,task,2021.1.4,Win32,60.0240096,628b806c463b948bc644b84f,6291cbe5e7a4c89ca765c862,,,,,4,0,4,0,1,"X V Q F H G B L J M P D K C T S W R N Z
",,,,,,,,,,,,,,,,,,,,,,,,,,,,,,,,,,,,,,,,,,,,,,,,,,,,,,,,,,,,,,,,,,,,,,,,,,,,,,,,,,,,,,,,,,,,,
,,,,,,,,,,5ee3348f8cfe2d49e6dc98ff,22,Mężczyzna,2022-05-28_09h14.53.791,task,2021.1.4,Win32,60.0240096,628b806c463b948bc644b84f,6291cbe5e7a4c89ca765c862,,,,,5,0,5,0,1,"X V Q F H G B L J M P D K C T S W R N Z
",,,,,,,,,,,,,,,,,,,,,,,,,,,,,,,,,,,,,,,,,,,,,,,,,,,,,,,,,,,,,,,,,,,,,,,,,,,,,,,,,,,,,,,,,,,,,
,,,,,,,,,,5ee3348f8cfe2d49e6dc98ff,22,Mężczyzna,2022-05-28_09h14.53.791,task,2021.1.4,Win32,60.0240096,628b806c463b948bc644b84f,6291cbe5e7a4c89ca765c862,,,,,6,0,6,0,1,"X V Q F H G B L J M P D K C T S W R N Z
",,,,,,,,,,,,,,,,,,,,,,,,,,,,,,,,,,,,,,,,,,,,,,,,,,,,,,,,,,,,,,,,,,,,,,,,,,,,,,,,,,,,,,,,,,,,,
,,,,,,,,,,5ee3348f8cfe2d49e6dc98ff,22,Mężczyzna,2022-05-28_09h14.53.791,task,2021.1.4,Win32,60.0240096,628b806c463b948bc644b84f,6291cbe5e7a4c89ca765c862,,,,,,,,,,,wbnbzqf,"[""w"",""b"",""n"",""b"",""z"",""q"",""f""]","[0.9329999999999927,1.343999999999994,1.5950000000000273,2.2309999999999945,2.7649999999999864,4.430999999999983,4.5470000000000255,4.7590000000000146]",0,"WBNBZ
FQ",12,0,12,0,1,,,,,,,,,,,,,,,,,,,,,,,,,,,,,,,,,,,,,,,,,,,,,,,,,,,,,,,,,,,,,,,,,,,,,,,,,,,,,,,,,,,
,,,,,,,,,,5ee3348f8cfe2d49e6dc98ff,22,Mężczyzna,2022-05-28_09h14.53.791,task,2021.1.4,Win32,60.0240096,628b806c463b948bc644b84f,6291cbe5e7a4c89ca765c862,,,,,0,0,0,0,1,"X V Q F H G B L J M P D K C T S W R N Z
",,,,,,,,,,,,,,,,,,,,,,,,,,,,,,,,,,,,,,,,,,,,,,,,,,,,,,,,,,,,,,,,,,,,,,,,,,,,,,,,,,,,,,,,,,,,,
,,,,,,,,,,5ee3348f8cfe2d49e6dc98ff,22,Mężczyzna,2022-05-28_09h14.53.791,task,2021.1.4,Win32,60.0240096,628b806c463b948bc644b84f,6291cbe5e7a4c89ca765c862,,,,,1,0,1,0,1,"X V Q F H G B L J M P D K C T S W R N Z
",,,,,,,,,,,,,,,,,,,,,,,,,,,,,,,,,,,,,,,,,,,,,,,,,,,,,,,,,,,,,,,,,,,,,,,,,,,,,,,,,,,,,,,,,,,,,
,,,,,,,,,,5ee3348f8cfe2d49e6dc98ff,22,Mężczyzna,2022-05-28_09h14.53.791,task,2021.1.4,Win32,60.0240096,628b806c463b948bc644b84f,6291cbe5e7a4c89ca765c862,,,,,2,0,2,0,1,"X V Q F H G B L J M P D K C T S W R N Z
",,,,,,,,,,,,,,,,,,,,,,,,,,,,,,,,,,,,,,,,,,,,,,,,,,,,,,,,,,,,,,,,,,,,,,,,,,,,,,,,,,,,,,,,,,,,,
,,,,,,,,,,5ee3348f8cfe2d49e6dc98ff,22,Mężczyzna,2022-05-28_09h14.53.791,task,2021.1.4,Win32,60.0240096,628b806c463b948bc644b84f,6291cbe5e7a4c89ca765c862,,,,,3,0,3,0,1,"X V Q F H G B L J M P D K C T S W R N Z
",,,,,,,,,,,,,,,,,,,,,,,,,,,,,,,,,,,,,,,,,,,,,,,,,,,,,,,,,,,,,,,,,,,,,,,,,,,,,,,,,,,,,,,,,,,,,
,,,,,,,,,,5ee3348f8cfe2d49e6dc98ff,22,Mężczyzna,2022-05-28_09h14.53.791,task,2021.1.4,Win32,60.0240096,628b806c463b948bc644b84f,6291cbe5e7a4c89ca765c862,,,,,4,0,4,0,1,"X V Q F H G B L J M P D K C T S W R N Z
",,,,,,,,,,,,,,,,,,,,,,,,,,,,,,,,,,,,,,,,,,,,,,,,,,,,,,,,,,,,,,,,,,,,,,,,,,,,,,,,,,,,,,,,,,,,,
,,,,,,,,,,5ee3348f8cfe2d49e6dc98ff,22,Mężczyzna,2022-05-28_09h14.53.791,task,2021.1.4,Win32,60.0240096,628b806c463b948bc644b84f,6291cbe5e7a4c89ca765c862,,,,,5,0,5,0,1,"X V Q F H G B L J M P D K C T S W R N Z
",,,,,,,,,,,,,,,,,,,,,,,,,,,,,,,,,,,,,,,,,,,,,,,,,,,,,,,,,,,,,,,,,,,,,,,,,,,,,,,,,,,,,,,,,,,,,
,,,,,,,,,,5ee3348f8cfe2d49e6dc98ff,22,Mężczyzna,2022-05-28_09h14.53.791,task,2021.1.4,Win32,60.0240096,628b806c463b948bc644b84f,6291cbe5e7a4c89ca765c862,,,,,6,0,6,0,1,"X V Q F H G B L J M P D K C T S W R N Z
",,,,,,,,,,,,,,,,,,,,,,,,,,,,,,,,,,,,,,,,,,,,,,,,,,,,,,,,,,,,,,,,,,,,,,,,,,,,,,,,,,,,,,,,,,,,,
,,,,,,,,,,5ee3348f8cfe2d49e6dc98ff,22,Mężczyzna,2022-05-28_09h14.53.791,task,2021.1.4,Win32,60.0240096,628b806c463b948bc644b84f,6291cbe5e7a4c89ca765c862,,,,,,,,,,,mtfpckq,"[""m"",""t"",""f"",""p"",""c"",""k"",""q""]","[1.414000000000044,1.5990000000000464,2.0200000000000387,2.6350000000000477,2.833000000000027,3.0820000000000505,3.2460000000000377,3.3799999999999955]",0,MTFPCQX,13,0,13,0,1,,,,,,,,,,,,,,,,,,,,,,,,,,,,,,,,,,,,,,,,,,,,,,,,,,,,,,,,,,,,,,,,,,,,,,,,,,,,,,,,,,,
,,,,,,,,,,5ee3348f8cfe2d49e6dc98ff,22,Mężczyzna,2022-05-28_09h14.53.791,task,2021.1.4,Win32,60.0240096,628b806c463b948bc644b84f,6291cbe5e7a4c89ca765c862,,,,,,,,,,,,,,,,,,,,,space,3.456,7,"[""7""]",1,[2.632000000000005],[2.632000000000005],0,0,0,7,1,Practice,8,(5x5) - 18,7,,,,,,,,,,,,,,,,,,,,,,,,,,,,,,,,,,,,,,,,,,,,,,,,,,,,,,,,,,,,,,,,,,,
,,,,,,,,,,5ee3348f8cfe2d49e6dc98ff,22,Mężczyzna,2022-05-28_09h14.53.791,task,2021.1.4,Win32,60.0240096,628b806c463b948bc644b84f,6291cbe5e7a4c89ca765c862,,,,,,,,,,,,,,,,,,,,,,,8,"[""8""]",1,[1.2269999999999754],"[2.632000000000005,1.2269999999999754]",0,1,1,8,1,Practice,9,(3x3) - 1,8,,,,,,,,,,,,,,,,,,,,,,,,,,,,,,,,,,,,,,,,,,,,,,,,,,,,,,,,,,,,,,,,,,,
,,,,,,,,,,5ee3348f8cfe2d49e6dc98ff,22,Mężczyzna,2022-05-28_09h14.53.791,task,2021.1.4,Win32,60.0240096,628b806c463b948bc644b84f,6291cbe5e7a4c89ca765c862,,,,,,,,,,,,,,,,,,,,,,,6,"[""6""]",1,[2.072999999999979],"[2.632000000000005,1.2269999999999754,2.072999999999979]",0,2,2,6,1,Practice,7,(25/5) + 1,6,,,,,,,,,,,,,,,,,,,,,,,,,,,,,,,,,,,,,,,,,,,,,,,,,,,,,,,,,,,,,,,,,,,
,,,,,,,,,,5ee3348f8cfe2d49e6dc98ff,22,Mężczyzna,2022-05-28_09h14.53.791,task,2021.1.4,Win32,60.0240096,628b806c463b948bc644b84f,6291cbe5e7a4c89ca765c862,,,,,,,,,,,,,,,,,,,,,,,1,"[""1""]",1,[1.468999999999994],"[2.632000000000005,1.2269999999999754,2.072999999999979,1.468999999999994]",0,3,3,1,1,Practice,2,(4x4) - 15,1,,,,,,,,,,,,,,,,,,,,,,,,,,,,,,,,,,,,,,,,,,,,,,,,,,,,,,,,,,,,,,,,,,,
,,,,,,,,,,5ee3348f8cfe2d49e6dc98ff,22,Mężczyzna,2022-05-28_09h14.53.791,task,2021.1.4,Win32,60.0240096,628b806c463b948bc644b84f,6291cbe5e7a4c89ca765c862,,,,,,,,,,,,,,,,,,,,,,,3,"[""3""]",1,[1.3350000000000364],"[2.632000000000005,1.2269999999999754,2.072999999999979,1.468999999999994,1.3350000000000364]",0,4,4,3,1,Practice,4,(8/4) + 1,3,,,,,,,,,,,,,,,,,,,,,,,,,,,,,,,,,,,,,,,,,,,,,,,,,,,,,,,,,,,,,,,,,,,
,,,,,,,,,,5ee3348f8cfe2d49e6dc98ff,22,Mężczyzna,2022-05-28_09h14.53.791,task,2021.1.4,Win32,60.0240096,628b806c463b948bc644b84f,6291cbe5e7a4c89ca765c862,,,,,,,,,,,,,,,,,,,,,,,0,"[""0""]",1,[1.4190000000000396],"[2.632000000000005,1.2269999999999754,2.072999999999979,1.468999999999994,1.3350000000000364,1.4190000000000396]",0,5,5,0,1,Practice,1,(3x3) -  9,0,,,,,,,,,,,,,,,,,,,,,,,,,,,,,,,,,,,,,,,,,,,,,,,,,,,,,,,,,,,,,,,,,,,
,,,,,,,,,,5ee3348f8cfe2d49e6dc98ff,22,Mężczyzna,2022-05-28_09h14.53.791,task,2021.1.4,Win32,60.0240096,628b806c463b948bc644b84f,6291cbe5e7a4c89ca765c862,,,,,,,,,,,,,,,,,,,,,,,2,"[""2""]",1,[1.5469999999999686],"[2.632000000000005,1.2269999999999754,2.072999999999979,1.468999999999994,1.3350000000000364,1.4190000000000396,1.5469999999999686]",0,6,6,2,1,Practice,3,(4x4) - 14,2,,,,,,,,,,,,,,,,,,,,,,,,,,,,,,,,,,,,,,,,,,,,,,,,,,,,,,,,,,,,,,,,,,,
,,,,,,,,,,5ee3348f8cfe2d49e6dc98ff,22,Mężczyzna,2022-05-28_09h14.53.791,task,2021.1.4,Win32,60.0240096,628b806c463b948bc644b84f,6291cbe5e7a4c89ca765c862,,,,,,,,,,,,,,,,,,,,,,,5,"[""5""]",1,[1.363999999999976],"[2.632000000000005,1.2269999999999754,2.072999999999979,1.468999999999994,1.3350000000000364,1.4190000000000396,1.5469999999999686,1.363999999999976]",0,7,7,5,1,Practice,6,(4/2) + 3,5,,,,,,,,,,,,,,,,,,,,,,,,,,,,,,,,,,,,,,,,,,,,,,,,,,,,,,,,,,,,,,,,,,,
,,,,,,,,,,5ee3348f8cfe2d49e6dc98ff,22,Mężczyzna,2022-05-28_09h14.53.791,task,2021.1.4,Win32,60.0240096,628b806c463b948bc644b84f,6291cbe5e7a4c89ca765c862,,,,,,,,,,,,,,,,,,,,,,,6,"[""6""]",0,[1.6359999999999673],"[2.632000000000005,1.2269999999999754,2.072999999999979,1.468999999999994,1.3350000000000364,1.4190000000000396,1.5469999999999686,1.363999999999976,1.6359999999999673]",0,8,8,4,1,Practice,5,(2x6) - 8,4,,,,,,,,,,,,,,,,,,,,,,,,,,,,,,,,,,,,,,,,,,,,,,,,,,,,,,,,,,,,,,,,,,,
,,,,,,,,,,5ee3348f8cfe2d49e6dc98ff,22,Mężczyzna,2022-05-28_09h14.53.791,task,2021.1.4,Win32,60.0240096,628b806c463b948bc644b84f,6291cbe5e7a4c89ca765c862,,,,,,,,,,,,,,,,,,,,,,,9,"[""9""]",1,[1.8350000000000364],"[2.632000000000005,1.2269999999999754,2.072999999999979,1.468999999999994,1.3350000000000364,1.4190000000000396,1.5469999999999686,1.363999999999976,1.6359999999999673,1.8350000000000364]",0,9,9,9,1,Practice,10,(20/2) - 1,9,,,,,,,,,,,,,,,,,,,,,,,,,,,,,,,,,,,,,,,,,,,,,,,,,,,,,,,,,,,,,,,,,,,
,,,,,,,,,,5ee3348f8cfe2d49e6dc98ff,22,Mężczyzna,2022-05-28_09h14.53.791,task,2021.1.4,Win32,60.0240096,628b806c463b948bc644b84f,6291cbe5e7a4c89ca765c862,,,,,,,,,,,,,,,,,,,,,,,,,,,,,,,,,,,,,0.9,16.537,1.102466667,4.672799978,0.558139766,2.542467263,space,1.322,0,0,0,0,1,,,,,,,,,,,,,,,,,,,,,,,,,,,,,,,,,,,,,,,,,,,,,,,,,,,,,,
,,,,,,,,,,5ee3348f8cfe2d49e6dc98ff,22,Mężczyzna,2022-05-28_09h14.53.791,task,2021.1.4,Win32,60.0240096,628b806c463b948bc644b84f,6291cbe5e7a4c89ca765c862,,,,,,,,,,,,,,,,,,,,,,,8,,,,,,,,,,Practice,9,(3x3) - 1,8,,,,,,,,,,,,,,space,12.75,"[""8""]",1,[1.86099999999999],1,0,0,0,8,1,,,,,,,,,,,,,,,,,,,,,,,,,,,,,,,,,,,,,,,,,,,
,,,,,,,,,,5ee3348f8cfe2d49e6dc98ff,22,Mężczyzna,2022-05-28_09h14.53.791,task,2021.1.4,Win32,60.0240096,628b806c463b948bc644b84f,6291cbe5e7a4c89ca765c862,,,,,,,,,,"X V Q F H G B L J M P D K C T S W R N Z
",,,,,,,,,,,,,,,,,,,,,,,,,,,,,,,,,,,,,,,,,,,,,,,,,,,0,0,0,0,1,,,,,,,,,,,,,,,,,,,,,,,,,,,,,,,,,,,,,,
,,,,,,,,,,5ee3348f8cfe2d49e6dc98ff,22,Mężczyzna,2022-05-28_09h14.53.791,task,2021.1.4,Win32,60.0240096,628b806c463b948bc644b84f,6291cbe5e7a4c89ca765c862,,,,,,,,,,,,,,,,,,,,,,,4,,,,,,,,,,Practice,5,(2x6) - 8,4,,,,,,,,,,,,,,,,"[""4""]",1,[2.2549999999999955],1,0,0,0,4,1,,,,,,,,,,,,,,,,,,,,,,,,,,,,,,,,,,,,,,,,,,,
,,,,,,,,,,5ee3348f8cfe2d49e6dc98ff,22,Mężczyzna,2022-05-28_09h14.53.791,task,2021.1.4,Win32,60.0240096,628b806c463b948bc644b84f,6291cbe5e7a4c89ca765c862,,,,,,,,,,"X V Q F H G B L J M P D K C T S W R N Z
",,,,,,,,,,,,,,,,,,,,,,,,,,,,,,,,,,,,,,,,,,,,,,,,,,,1,0,1,0,1,,,,,,,,,,,,,,,,,,,,,,,,,,,,,,,,,,,,,,
,,,,,,,,,,5ee3348f8cfe2d49e6dc98ff,22,Mężczyzna,2022-05-28_09h14.53.791,task,2021.1.4,Win32,60.0240096,628b806c463b948bc644b84f,6291cbe5e7a4c89ca765c862,,,,,,,,,,,,,,,,,,,,,,,,,,,,,,,,,,,,,,,,,,,,,,,,,,,,,,,,,,,,,,,,,,zd,"[""z"",""d""]",0,"[1.933999999999969,2.116999999999962,3.1850000000000023]",1,0,0,0,0,1,,,,,,,,,,,,,,,,,,,,,,,,,,,,
,,,,,,,,,,5ee3348f8cfe2d49e6dc98ff,22,Mężczyzna,2022-05-28_09h14.53.791,task,2021.1.4,Win32,60.0240096,628b806c463b948bc644b84f,6291cbe5e7a4c89ca765c862,,,,,,,,,,,,,,,,,,,,,,,3,,,,,,,,,,Practice,4,(8/4) + 1,3,,,,,,,,,,,,,,,,"[""3""]",1,[1.5300000000000296],1,0,0,0,3,1,,,,,,,,,,,,,,,,,,,,,,,,,,,,,,,,,,,,,,,,,,,
,,,,,,,,,,5ee3348f8cfe2d49e6dc98ff,22,Mężczyzna,2022-05-28_09h14.53.791,task,2021.1.4,Win32,60.0240096,628b806c463b948bc644b84f,6291cbe5e7a4c89ca765c862,,,,,,,,,,"X V Q F H G B L J M P D K C T S W R N Z
",,,,,,,,,,,,,,,,,,,,,,,,,,,,,,,,,,,,,,,,,,,,,,,,,,,0,0,0,0,1,,,,,,,,,,,,,,,,,,,,,,,,,,,,,,,,,,,,,,
,,,,,,,,,,5ee3348f8cfe2d49e6dc98ff,22,Mężczyzna,2022-05-28_09h14.53.791,task,2021.1.4,Win32,60.0240096,628b806c463b948bc644b84f,6291cbe5e7a4c89ca765c862,,,,,,,,,,,,,,,,,,,,,,,5,,,,,,,,,,Practice,6,(4/2) + 3,5,,,,,,,,,,,,,,,,"[""5""]",1,[1.9350000000000023],1,0,0,0,5,1,,,,,,,,,,,,,,,,,,,,,,,,,,,,,,,,,,,,,,,,,,,
,,,,,,,,,,5ee3348f8cfe2d49e6dc98ff,22,Mężczyzna,2022-05-28_09h14.53.791,task,2021.1.4,Win32,60.0240096,628b806c463b948bc644b84f,6291cbe5e7a4c89ca765c862,,,,,,,,,,"X V Q F H G B L J M P D K C T S W R N Z
",,,,,,,,,,,,,,,,,,,,,,,,,,,,,,,,,,,,,,,,,,,,,,,,,,,1,0,1,0,1,,,,,,,,,,,,,,,,,,,,,,,,,,,,,,,,,,,,,,
,,,,,,,,,,5ee3348f8cfe2d49e6dc98ff,22,Mężczyzna,2022-05-28_09h14.53.791,task,2021.1.4,Win32,60.0240096,628b806c463b948bc644b84f,6291cbe5e7a4c89ca765c862,,,,,,,,,,,,,,,,,,,,,,,,,,,,,,,,,,,,,,,,,,,,,,,,,,,,,,,,,,,,,,,,,,mj,"[""m"",""j""]",0,"[1.5720000000000027,1.6720000000000255,3.7350000000000136]",1,1,0,1,0,1,,,,,,,,,,,,,,,,,,,,,,,,,,,,
,,,,,,,,,,5ee3348f8cfe2d49e6dc98ff,22,Mężczyzna,2022-05-28_09h14.53.791,task,2021.1.4,Win32,60.0240096,628b806c463b948bc644b84f,6291cbe5e7a4c89ca765c862,,,,,,,,,,,,,,,,,,,,,,,,,,,,,,,,,Practice,8,(5x5) - 18,7,,,,,,,,,,,,,,,,,0,,0,0,0,0,7,1,,,,,,,,,,,,,,,,,,,,,,,,,,,,,,,,,,,,,,,,,,,
,,,,,,,,,,5ee3348f8cfe2d49e6dc98ff,22,Mężczyzna,2022-05-28_09h14.53.791,task,2021.1.4,Win32,60.0240096,628b806c463b948bc644b84f,6291cbe5e7a4c89ca765c862,,,,,,,,,,,,,,,,,,,,,,,4,,,,,,,,,,Practice,5,(2x6) - 8,4,,,,,,,,,,,,,,,,"[""4""]",1,[1.4370000000000118],1,0,1,1,4,1,,,,,,,,,,,,,,,,,,,,,,,,,,,,,,,,,,,,,,,,,,,
,,,,,,,,,,5ee3348f8cfe2d49e6dc98ff,22,Mężczyzna,2022-05-28_09h14.53.791,task,2021.1.4,Win32,60.0240096,628b806c463b948bc644b84f,6291cbe5e7a4c89ca765c862,,,,,,,,,,"X V Q F H G B L J M P D K C T S W R N Z
",,,,,,,,,,,,,,,,,,,,,,,,,,,,,,,,,,,,,,,,,,,,,,,,,,,0,0,0,0,1,,,,,,,,,,,,,,,,,,,,,,,,,,,,,,,,,,,,,,
,,,,,,,,,,5ee3348f8cfe2d49e6dc98ff,22,Mężczyzna,2022-05-28_09h14.53.791,task,2021.1.4,Win32,60.0240096,628b806c463b948bc644b84f,6291cbe5e7a4c89ca765c862,,,,,,,,,,,,,,,,,,,,,,,6,,,,,,,,,,Practice,7,(25/5) + 1,6,,,,,,,,,,,,,,,,"[""6""]",1,[1.641999999999996],1,0,0,0,6,1,,,,,,,,,,,,,,,,,,,,,,,,,,,,,,,,,,,,,,,,,,,
,,,,,,,,,,5ee3348f8cfe2d49e6dc98ff,22,Mężczyzna,2022-05-28_09h14.53.791,task,2021.1.4,Win32,60.0240096,628b806c463b948bc644b84f,6291cbe5e7a4c89ca765c862,,,,,,,,,,"X V Q F H G B L J M P D K C T S W R N Z
",,,,,,,,,,,,,,,,,,,,,,,,,,,,,,,,,,,,,,,,,,,,,,,,,,,1,0,1,0,1,,,,,,,,,,,,,,,,,,,,,,,,,,,,,,,,,,,,,,
,,,,,,,,,,5ee3348f8cfe2d49e6dc98ff,22,Mężczyzna,2022-05-28_09h14.53.791,task,2021.1.4,Win32,60.0240096,628b806c463b948bc644b84f,6291cbe5e7a4c89ca765c862,,,,,,,,,,,,,,,,,,,,,,,,,,,,,,,,,,,,,,,,,,,,,,,,,,,,,,,,,,,,,,,,,,xp,"[""x"",""p""]",0,"[1.83400000000006,1.9560000000000173,2.302000000000021]",1,2,0,2,0,1,,,,,,,,,,,,,,,,,,,,,,,,,,,,
,,,,,,,,,,5ee3348f8cfe2d49e6dc98ff,22,Mężczyzna,2022-05-28_09h14.53.791,task,2021.1.4,Win32,60.0240096,628b806c463b948bc644b84f,6291cbe5e7a4c89ca765c862,,,,,,,,,,,,,,,,,,,,,,,9,,,,,,,,,,Task,24,(2x2) + 5,9,,,,,,,,,,,,,,,,,,,1,,,,,,,,,,,,,,,,,,,,,space,8.068,"[""9""]",1,[1.8250000000000455],0,0,0,23,1,,,,,,,,,,,,,,,,,,
,,,,,,,,,,5ee3348f8cfe2d49e6dc98ff,22,Mężczyzna,2022-05-28_09h14.53.791,task,2021.1.4,Win32,60.0240096,628b806c463b948bc644b84f,6291cbe5e7a4c89ca765c862,,,,,,,,,,"X V Q F H G B L J M P D K C T S W R N Z
",,,,,,,,,,,,,,,,,,,,,,,,,,,,,,,,,,,,,,,,,,,,,,,,,,,,,,,,,,,,,,,,,,,,,,,,,,,,0,0,0,0,1,,,,,,,,,,,,,
,,,,,,,,,,5ee3348f8cfe2d49e6dc98ff,22,Mężczyzna,2022-05-28_09h14.53.791,task,2021.1.4,Win32,60.0240096,628b806c463b948bc644b84f,6291cbe5e7a4c89ca765c862,,,,,,,,,,,,,,,,,,,,,,,0,,,,,,,,,,Task,8,(1x5) - 5,0,,,,,,,,,,,,,,,,,,,1,,,,,,,,,,,,,,,,,,,,,,,"[""0""]",1,[2.252999999999929],0,0,0,7,1,,,,,,,,,,,,,,,,,,
,,,,,,,,,,5ee3348f8cfe2d49e6dc98ff,22,Mężczyzna,2022-05-28_09h14.53.791,task,2021.1.4,Win32,60.0240096,628b806c463b948bc644b84f,6291cbe5e7a4c89ca765c862,,,,,,,,,,"X V Q F H G B L J M P D K C T S W R N Z
",,,,,,,,,,,,,,,,,,,,,,,,,,,,,,,,,,,,,,,,,,,,,,,,,,,,,,,,,,,,,,,,,,,,,,,,,,,,1,0,1,0,1,,,,,,,,,,,,,
,,,,,,,,,,5ee3348f8cfe2d49e6dc98ff,22,Mężczyzna,2022-05-28_09h14.53.791,task,2021.1.4,Win32,60.0240096,628b806c463b948bc644b84f,6291cbe5e7a4c89ca765c862,,,,,,,,,,,,,,,,,,,,,,,,,,,,,,,,,,,,,,,,,,,,,,,,,,,,,,,,,,,,,,,,,,,,,,,,,,,,,,,,,,,,,,,,,,,zz,"[""z"",""z""]",0,"[1.63900000000001,1.789000000000101,1.8520000000000891]",0,"ZZ
",0,0,0,0,1,,
,,,,,,,,,,5ee3348f8cfe2d49e6dc98ff,22,Mężczyzna,2022-05-28_09h14.53.791,task,2021.1.4,Win32,60.0240096,628b806c463b948bc644b84f,6291cbe5e7a4c89ca765c862,,,,,,,,,,,,,,,,,,,,,,,2,,,,,,,,,,Task,19,(6/2) - 1,2,,,,,,,,,,,,,,,,,,,1,,,,,,,,,,,,,,,,,,,,,,,"[""2""]",1,[2.213999999999942],0,0,0,18,1,,,,,,,,,,,,,,,,,,
,,,,,,,,,,5ee3348f8cfe2d49e6dc98ff,22,Mężczyzna,2022-05-28_09h14.53.791,task,2021.1.4,Win32,60.0240096,628b806c463b948bc644b84f,6291cbe5e7a4c89ca765c862,,,,,,,,,,"X V Q F H G B L J M P D K C T S W R N Z
",,,,,,,,,,,,,,,,,,,,,,,,,,,,,,,,,,,,,,,,,,,,,,,,,,,,,,,,,,,,,,,,,,,,,,,,,,,,0,0,0,0,1,,,,,,,,,,,,,
,,,,,,,,,,5ee3348f8cfe2d49e6dc98ff,22,Mężczyzna,2022-05-28_09h14.53.791,task,2021.1.4,Win32,60.0240096,628b806c463b948bc644b84f,6291cbe5e7a4c89ca765c862,,,,,,,,,,,,,,,,,,,,,,,4,,,,,,,,,,Task,21,(10/2) - 1,4,,,,,,,,,,,,,,,,,,,1,,,,,,,,,,,,,,,,,,,,,,,"[""4""]",1,[1.6520000000000437],0,0,0,20,1,,,,,,,,,,,,,,,,,,
,,,,,,,,,,5ee3348f8cfe2d49e6dc98ff,22,Mężczyzna,2022-05-28_09h14.53.791,task,2021.1.4,Win32,60.0240096,628b806c463b948bc644b84f,6291cbe5e7a4c89ca765c862,,,,,,,,,,"X V Q F H G B L J M P D K C T S W R N Z
",,,,,,,,,,,,,,,,,,,,,,,,,,,,,,,,,,,,,,,,,,,,,,,,,,,,,,,,,,,,,,,,,,,,,,,,,,,,1,0,1,0,1,,,,,,,,,,,,,
,,,,,,,,,,5ee3348f8cfe2d49e6dc98ff,22,Mężczyzna,2022-05-28_09h14.53.791,task,2021.1.4,Win32,60.0240096,628b806c463b948bc644b84f,6291cbe5e7a4c89ca765c862,,,,,,,,,,,,,,,,,,,,,,,,,,,,,,,,,,,,,,,,,,,,,,,,,,,,,,,,,,,,,,,,,,,,,,,,,,,,,,,,,,,,,,,,,,,cg,"[""c"",""g""]",0,"[0.9410000000000309,1.4279999999999973,2.4869999999999663]",1,CG,1,0,1,0,1,,
,,,,,,,,,,5ee3348f8cfe2d49e6dc98ff,22,Mężczyzna,2022-05-28_09h14.53.791,task,2021.1.4,Win32,60.0240096,628b806c463b948bc644b84f,6291cbe5e7a4c89ca765c862,,,,,,,,,,,,,,,,,,,,,,,9,,,,,,,,,,Task,24,(2x2) + 5,9,,,,,,,,,,,,,,,,,,,1,,,,,,,,,,,,,,,,,,,,,,,"[""9""]",1,[2.495999999999981],0,0,0,23,1,,,,,,,,,,,,,,,,,,
,,,,,,,,,,5ee3348f8cfe2d49e6dc98ff,22,Mężczyzna,2022-05-28_09h14.53.791,task,2021.1.4,Win32,60.0240096,628b806c463b948bc644b84f,6291cbe5e7a4c89ca765c862,,,,,,,,,,"X V Q F H G B L J M P D K C T S W R N Z
",,,,,,,,,,,,,,,,,,,,,,,,,,,,,,,,,,,,,,,,,,,,,,,,,,,,,,,,,,,,,,,,,,,,,,,,,,,,0,0,0,0,1,,,,,,,,,,,,,
,,,,,,,,,,5ee3348f8cfe2d49e6dc98ff,22,Mężczyzna,2022-05-28_09h14.53.791,task,2021.1.4,Win32,60.0240096,628b806c463b948bc644b84f,6291cbe5e7a4c89ca765c862,,,,,,,,,,,,,,,,,,,,,,,9,,,,,,,,,,Task,24,(2x2) + 5,9,,,,,,,,,,,,,,,,,,,1,,,,,,,,,,,,,,,,,,,,,,,"[""9""]",1,[1.3530000000000655],0,0,0,23,1,,,,,,,,,,,,,,,,,,
,,,,,,,,,,5ee3348f8cfe2d49e6dc98ff,22,Mężczyzna,2022-05-28_09h14.53.791,task,2021.1.4,Win32,60.0240096,628b806c463b948bc644b84f,6291cbe5e7a4c89ca765c862,,,,,,,,,,"X V Q F H G B L J M P D K C T S W R N Z
",,,,,,,,,,,,,,,,,,,,,,,,,,,,,,,,,,,,,,,,,,,,,,,,,,,,,,,,,,,,,,,,,,,,,,,,,,,,1,0,1,0,1,,,,,,,,,,,,,
,,,,,,,,,,5ee3348f8cfe2d49e6dc98ff,22,Mężczyzna,2022-05-28_09h14.53.791,task,2021.1.4,Win32,60.0240096,628b806c463b948bc644b84f,6291cbe5e7a4c89ca765c862,,,,,,,,,,,,,,,,,,,,,,,9,,,,,,,,,,Task,40,(7x2) - 5,9,,,,,,,,,,,,,,,,,,,1,,,,,,,,,,,,,,,,,,,,,,,"[""9""]",1,[2.1369999999999436],0,0,0,39,1,,,,,,,,,,,,,,,,,,
,,,,,,,,,,5ee3348f8cfe2d49e6dc98ff,22,Mężczyzna,2022-05-28_09h14.53.791,task,2021.1.4,Win32,60.0240096,628b806c463b948bc644b84f,6291cbe5e7a4c89ca765c862,,,,,,,,,,"X V Q F H G B L J M P D K C T S W R N Z
",,,,,,,,,,,,,,,,,,,,,,,,,,,,,,,,,,,,,,,,,,,,,,,,,,,,,,,,,,,,,,,,,,,,,,,,,,,,2,0,2,0,1,,,,,,,,,,,,,
,,,,,,,,,,5ee3348f8cfe2d49e6dc98ff,22,Mężczyzna,2022-05-28_09h14.53.791,task,2021.1.4,Win32,60.0240096,628b806c463b948bc644b84f,6291cbe5e7a4c89ca765c862,,,,,,,,,,,,,,,,,,,,,,,,,,,,,,,,,,,,,,,,,,,,,,,,,,,,,,,,,,,,,,,,,,,,,,,,,,,,,,,,,,,,,,,,,,,xdk,"[""x"",""d"",""k""]",0,"[2.1399999999999864,2.3010000000000446,2.75100000000009,3.136000000000081]",1,XDK,2,0,2,0,1,,
,,,,,,,,,,5ee3348f8cfe2d49e6dc98ff,22,Mężczyzna,2022-05-28_09h14.53.791,task,2021.1.4,Win32,60.0240096,628b806c463b948bc644b84f,6291cbe5e7a4c89ca765c862,,,,,,,,,,,,,,,,,,,,,,,2,,,,,,,,,,Task,26,(2x9) - 16,2,,,,,,,,,,,,,,,,,,,1,,,,,,,,,,,,,,,,,,,,,,,"[""2""]",1,[2.118000000000052],0,0,0,25,1,,,,,,,,,,,,,,,,,,
,,,,,,,,,,5ee3348f8cfe2d49e6dc98ff,22,Mężczyzna,2022-05-28_09h14.53.791,task,2021.1.4,Win32,60.0240096,628b806c463b948bc644b84f,6291cbe5e7a4c89ca765c862,,,,,,,,,,"X V Q F H G B L J M P D K C T S W R N Z
",,,,,,,,,,,,,,,,,,,,,,,,,,,,,,,,,,,,,,,,,,,,,,,,,,,,,,,,,,,,,,,,,,,,,,,,,,,,0,0,0,0,1,,,,,,,,,,,,,
,,,,,,,,,,5ee3348f8cfe2d49e6dc98ff,22,Mężczyzna,2022-05-28_09h14.53.791,task,2021.1.4,Win32,60.0240096,628b806c463b948bc644b84f,6291cbe5e7a4c89ca765c862,,,,,,,,,,,,,,,,,,,,,,,,,,,,,,,,,Task,29,(3x8) - 19 ,5,,,,,,,,,,,,,,,,,,,0,,,,,,,,,,,,,,,,,,,,,,,,0,,0,0,0,28,1,,,,,,,,,,,,,,,,,,
,,,,,,,,,,5ee3348f8cfe2d49e6dc98ff,22,Mężczyzna,2022-05-28_09h14.53.791,task,2021.1.4,Win32,60.0240096,628b806c463b948bc644b84f,6291cbe5e7a4c89ca765c862,,,,,,,,,,,,,,,,,,,,,,,4,,,,,,,,,,Task,11,(18/3) - 2,4,,,,,,,,,,,,,,,,,,,1,,,,,,,,,,,,,,,,,,,,,,,"[""4""]",1,[2.2630000000000337],0,1,1,10,1,,,,,,,,,,,,,,,,,,
,,,,,,,,,,5ee3348f8cfe2d49e6dc98ff,22,Mężczyzna,2022-05-28_09h14.53.791,task,2021.1.4,Win32,60.0240096,628b806c463b948bc644b84f,6291cbe5e7a4c89ca765c862,,,,,,,,,,"X V Q F H G B L J M P D K C T S W R N Z
",,,,,,,,,,,,,,,,,,,,,,,,,,,,,,,,,,,,,,,,,,,,,,,,,,,,,,,,,,,,,,,,,,,,,,,,,,,,1,0,1,0,1,,,,,,,,,,,,,
,,,,,,,,,,5ee3348f8cfe2d49e6dc98ff,22,Mężczyzna,2022-05-28_09h14.53.791,task,2021.1.4,Win32,60.0240096,628b806c463b948bc644b84f,6291cbe5e7a4c89ca765c862,,,,,,,,,,,,,,,,,,,,,,,,,,,,,,,,,Task,5,(2x3) + 0,6,,,,,,,,,,,,,,,,,,,0,,,,,,,,,,,,,,,,,,,,,,,,0,,0,0,0,4,1,,,,,,,,,,,,,,,,,,
,,,,,,,,,,5ee3348f8cfe2d49e6dc98ff,22,Mężczyzna,2022-05-28_09h14.53.791,task,2021.1.4,Win32,60.0240096,628b806c463b948bc644b84f,6291cbe5e7a4c89ca765c862,,,,,,,,,,,,,,,,,,,,,,,2,,,,,,,,,,Task,26,(2x9) - 16,2,,,,,,,,,,,,,,,,,,,1,,,,,,,,,,,,,,,,,,,,,,,"[""2""]",1,[1.245999999999981],0,1,1,25,1,,,,,,,,,,,,,,,,,,
,,,,,,,,,,5ee3348f8cfe2d49e6dc98ff,22,Mężczyzna,2022-05-28_09h14.53.791,task,2021.1.4,Win32,60.0240096,628b806c463b948bc644b84f,6291cbe5e7a4c89ca765c862,,,,,,,,,,"X V Q F H G B L J M P D K C T S W R N Z
",,,,,,,,,,,,,,,,,,,,,,,,,,,,,,,,,,,,,,,,,,,,,,,,,,,,,,,,,,,,,,,,,,,,,,,,,,,,2,0,2,0,1,,,,,,,,,,,,,
,,,,,,,,,,5ee3348f8cfe2d49e6dc98ff,22,Mężczyzna,2022-05-28_09h14.53.791,task,2021.1.4,Win32,60.0240096,628b806c463b948bc644b84f,6291cbe5e7a4c89ca765c862,,,,,,,,,,,,,,,,,,,,,,,9,,,,,,,,,,Task,7,(3x7) - 12,9,,,,,,,,,,,,,,,,,,,1,,,,,,,,,,,,,,,,,,,,,,,"[""9""]",1,[2.2749999999999773],0,0,0,6,1,,,,,,,,,,,,,,,,,,
,,,,,,,,,,5ee3348f8cfe2d49e6dc98ff,22,Mężczyzna,2022-05-28_09h14.53.791,task,2021.1.4,Win32,60.0240096,628b806c463b948bc644b84f,6291cbe5e7a4c89ca765c862,,,,,,,,,,"X V Q F H G B L J M P D K C T S W R N Z
",,,,,,,,,,,,,,,,,,,,,,,,,,,,,,,,,,,,,,,,,,,,,,,,,,,,,,,,,,,,,,,,,,,,,,,,,,,,3,0,3,0,1,,,,,,,,,,,,,
,,,,,,,,,,5ee3348f8cfe2d49e6dc98ff,22,Mężczyzna,2022-05-28_09h14.53.791,task,2021.1.4,Win32,60.0240096,628b806c463b948bc644b84f,6291cbe5e7a4c89ca765c862,,,,,,,,,,,,,,,,,,,,,,,,,,,,,,,,,,,,,,,,,,,,,,,,,,,,,,,,,,,,,,,,,,,,,,,,,,,,,,,,,,,,,,,,,,,kdw,"[""k"",""d"",""w""]",0,"[1.6920000000000073,1.7899999999999636,1.9220000000000255,2.024000000000001]",0,KKDW,3,0,3,0,1,,
,,,,,,,,,,5ee3348f8cfe2d49e6dc98ff,22,Mężczyzna,2022-05-28_09h14.53.791,task,2021.1.4,Win32,60.0240096,628b806c463b948bc644b84f,6291cbe5e7a4c89ca765c862,,,,,,,,,,,,,,,,,,,,,,,,,,,,,,,,,Task,19,(6/2) - 1,2,,,,,,,,,,,,,,,,,,,0,,,,,,,,,,,,,,,,,,,,,,,,0,,0,0,0,18,1,,,,,,,,,,,,,,,,,,
,,,,,,,,,,5ee3348f8cfe2d49e6dc98ff,22,Mężczyzna,2022-05-28_09h14.53.791,task,2021.1.4,Win32,60.0240096,628b806c463b948bc644b84f,6291cbe5e7a4c89ca765c862,,,,,,,,,,,,,,,,,,,,,,,5,,,,,,,,,,Task,22,(3x1) + 2,5,,,,,,,,,,,,,,,,,,,1,,,,,,,,,,,,,,,,,,,,,,,"[""5""]",1,[1.4660000000000082],0,1,1,21,1,,,,,,,,,,,,,,,,,,
,,,,,,,,,,5ee3348f8cfe2d49e6dc98ff,22,Mężczyzna,2022-05-28_09h14.53.791,task,2021.1.4,Win32,60.0240096,628b806c463b948bc644b84f,6291cbe5e7a4c89ca765c862,,,,,,,,,,"X V Q F H G B L J M P D K C T S W R N Z
",,,,,,,,,,,,,,,,,,,,,,,,,,,,,,,,,,,,,,,,,,,,,,,,,,,,,,,,,,,,,,,,,,,,,,,,,,,,0,0,0,0,1,,,,,,,,,,,,,
,,,,,,,,,,5ee3348f8cfe2d49e6dc98ff,22,Mężczyzna,2022-05-28_09h14.53.791,task,2021.1.4,Win32,60.0240096,628b806c463b948bc644b84f,6291cbe5e7a4c89ca765c862,,,,,,,,,,,,,,,,,,,,,,,1,,,,,,,,,,Task,38,(4x6) - 17,7,,,,,,,,,,,,,,,,,,,0,,,,,,,,,,,,,,,,,,,,,,,"[""1""]",0,[1.9020000000000437],0,0,0,37,1,,,,,,,,,,,,,,,,,,
,,,,,,,,,,5ee3348f8cfe2d49e6dc98ff,22,Mężczyzna,2022-05-28_09h14.53.791,task,2021.1.4,Win32,60.0240096,628b806c463b948bc644b84f,6291cbe5e7a4c89ca765c862,,,,,,,,,,,,,,,,,,,,,,,7,,,,,,,,,,Task,6,(12/2) + 1,7,,,,,,,,,,,,,,,,,,,1,,,,,,,,,,,,,,,,,,,,,,,"[""7""]",1,[1.4400000000000546],0,1,1,5,1,,,,,,,,,,,,,,,,,,
,,,,,,,,,,5ee3348f8cfe2d49e6dc98ff,22,Mężczyzna,2022-05-28_09h14.53.791,task,2021.1.4,Win32,60.0240096,628b806c463b948bc644b84f,6291cbe5e7a4c89ca765c862,,,,,,,,,,"X V Q F H G B L J M P D K C T S W R N Z
",,,,,,,,,,,,,,,,,,,,,,,,,,,,,,,,,,,,,,,,,,,,,,,,,,,,,,,,,,,,,,,,,,,,,,,,,,,,1,0,1,0,1,,,,,,,,,,,,,
,,,,,,,,,,5ee3348f8cfe2d49e6dc98ff,22,Mężczyzna,2022-05-28_09h14.53.791,task,2021.1.4,Win32,60.0240096,628b806c463b948bc644b84f,6291cbe5e7a4c89ca765c862,,,,,,,,,,,,,,,,,,,,,,,5,,,,,,,,,,Task,1,(12/6) - 1,1,,,,,,,,,,,,,,,,,,,0,,,,,,,,,,,,,,,,,,,,,,,"[""5""]",0,[1.3659999999999854],0,0,0,0,1,,,,,,,,,,,,,,,,,,
,,,,,,,,,,5ee3348f8cfe2d49e6dc98ff,22,Mężczyzna,2022-05-28_09h14.53.791,task,2021.1.4,Win32,60.0240096,628b806c463b948bc644b84f,6291cbe5e7a4c89ca765c862,,,,,,,,,,,,,,,,,,,,,,,3,,,,,,,,,,Task,25,(10/5) - 2,0,,,,,,,,,,,,,,,,,,,0,,,,,,,,,,,,,,,,,,,,,,,"[""3""]",0,[2.2480000000000473],0,1,1,24,1,,,,,,,,,,,,,,,,,,
,,,,,,,,,,5ee3348f8cfe2d49e6dc98ff,22,Mężczyzna,2022-05-28_09h14.53.791,task,2021.1.4,Win32,60.0240096,628b806c463b948bc644b84f,6291cbe5e7a4c89ca765c862,,,,,,,,,,,,,,,,,,,,,,,0,,,,,,,,,,Task,33,(1/1) - 1,0,,,,,,,,,,,,,,,,,,,1,,,,,,,,,,,,,,,,,,,,,,,"[""0""]",1,[1.36099999999999],0,2,2,32,1,,,,,,,,,,,,,,,,,,
,,,,,,,,,,5ee3348f8cfe2d49e6dc98ff,22,Mężczyzna,2022-05-28_09h14.53.791,task,2021.1.4,Win32,60.0240096,628b806c463b948bc644b84f,6291cbe5e7a4c89ca765c862,,,,,,,,,,"X V Q F H G B L J M P D K C T S W R N Z
",,,,,,,,,,,,,,,,,,,,,,,,,,,,,,,,,,,,,,,,,,,,,,,,,,,,,,,,,,,,,,,,,,,,,,,,,,,,2,0,2,0,1,,,,,,,,,,,,,
,,,,,,,,,,5ee3348f8cfe2d49e6dc98ff,22,Mężczyzna,2022-05-28_09h14.53.791,task,2021.1.4,Win32,60.0240096,628b806c463b948bc644b84f,6291cbe5e7a4c89ca765c862,,,,,,,,,,,,,,,,,,,,,,,6,,,,,,,,,,Task,13,(3x4) - 6,6,,,,,,,,,,,,,,,,,,,1,,,,,,,,,,,,,,,,,,,,,,,"[""6""]",1,[1.9180000000000064],0,0,0,12,1,,,,,,,,,,,,,,,,,,
,,,,,,,,,,5ee3348f8cfe2d49e6dc98ff,22,Mężczyzna,2022-05-28_09h14.53.791,task,2021.1.4,Win32,60.0240096,628b806c463b948bc644b84f,6291cbe5e7a4c89ca765c862,,,,,,,,,,"X V Q F H G B L J M P D K C T S W R N Z
",,,,,,,,,,,,,,,,,,,,,,,,,,,,,,,,,,,,,,,,,,,,,,,,,,,,,,,,,,,,,,,,,,,,,,,,,,,,3,0,3,0,1,,,,,,,,,,,,,
,,,,,,,,,,5ee3348f8cfe2d49e6dc98ff,22,Mężczyzna,2022-05-28_09h14.53.791,task,2021.1.4,Win32,60.0240096,628b806c463b948bc644b84f,6291cbe5e7a4c89ca765c862,,,,,,,,,,,,,,,,,,,,,,,,,,,,,,,,,,,,,,,,,,,,,,,,,,,,,,,,,,,,,,,,,,,,,,,,,,,,,,,,,,,,,,,,,,,dstk,"[""d"",""s"",""t"",""k""]",0,"[1.302000000000021,1.4519999999999982,1.683999999999969,1.7530000000000427,1.9510000000000218]",1,DSTK,4,0,4,0,1,,
,,,,,,,,,,5ee3348f8cfe2d49e6dc98ff,22,Mężczyzna,2022-05-28_09h14.53.791,task,2021.1.4,Win32,60.0240096,628b806c463b948bc644b84f,6291cbe5e7a4c89ca765c862,,,,,,,,,,,,,,,,,,,,,,,4,,,,,,,,,,Task,21,(10/2) - 1,4,,,,,,,,,,,,,,,,,,,1,,,,,,,,,,,,,,,,,,,,,,,"[""4""]",1,[1.1189999999999145],0,0,0,20,1,,,,,,,,,,,,,,,,,,
,,,,,,,,,,5ee3348f8cfe2d49e6dc98ff,22,Mężczyzna,2022-05-28_09h14.53.791,task,2021.1.4,Win32,60.0240096,628b806c463b948bc644b84f,6291cbe5e7a4c89ca765c862,,,,,,,,,,"X V Q F H G B L J M P D K C T S W R N Z
",,,,,,,,,,,,,,,,,,,,,,,,,,,,,,,,,,,,,,,,,,,,,,,,,,,,,,,,,,,,,,,,,,,,,,,,,,,,0,0,0,0,1,,,,,,,,,,,,,
,,,,,,,,,,5ee3348f8cfe2d49e6dc98ff,22,Mężczyzna,2022-05-28_09h14.53.791,task,2021.1.4,Win32,60.0240096,628b806c463b948bc644b84f,6291cbe5e7a4c89ca765c862,,,,,,,,,,,,,,,,,,,,,,,1,,,,,,,,,,Task,34,(9/3) - 2,1,,,,,,,,,,,,,,,,,,,1,,,,,,,,,,,,,,,,,,,,,,,"[""1""]",1,[1.5950000000000273],0,0,0,33,1,,,,,,,,,,,,,,,,,,
,,,,,,,,,,5ee3348f8cfe2d49e6dc98ff,22,Mężczyzna,2022-05-28_09h14.53.791,task,2021.1.4,Win32,60.0240096,628b806c463b948bc644b84f,6291cbe5e7a4c89ca765c862,,,,,,,,,,"X V Q F H G B L J M P D K C T S W R N Z
",,,,,,,,,,,,,,,,,,,,,,,,,,,,,,,,,,,,,,,,,,,,,,,,,,,,,,,,,,,,,,,,,,,,,,,,,,,,1,0,1,0,1,,,,,,,,,,,,,
,,,,,,,,,,5ee3348f8cfe2d49e6dc98ff,22,Mężczyzna,2022-05-28_09h14.53.791,task,2021.1.4,Win32,60.0240096,628b806c463b948bc644b84f,6291cbe5e7a4c89ca765c862,,,,,,,,,,,,,,,,,,,,,,,1,,,,,,,,,,Task,34,(9/3) - 2,1,,,,,,,,,,,,,,,,,,,1,,,,,,,,,,,,,,,,,,,,,,,"[""1""]",1,[1.3600000000000136],0,0,0,33,1,,,,,,,,,,,,,,,,,,
,,,,,,,,,,5ee3348f8cfe2d49e6dc98ff,22,Mężczyzna,2022-05-28_09h14.53.791,task,2021.1.4,Win32,60.0240096,628b806c463b948bc644b84f,6291cbe5e7a4c89ca765c862,,,,,,,,,,"X V Q F H G B L J M P D K C T S W R N Z
",,,,,,,,,,,,,,,,,,,,,,,,,,,,,,,,,,,,,,,,,,,,,,,,,,,,,,,,,,,,,,,,,,,,,,,,,,,,2,0,2,0,1,,,,,,,,,,,,,
,,,,,,,,,,5ee3348f8cfe2d49e6dc98ff,22,Mężczyzna,2022-05-28_09h14.53.791,task,2021.1.4,Win32,60.0240096,628b806c463b948bc644b84f,6291cbe5e7a4c89ca765c862,,,,,,,,,,,,,,,,,,,,,,,6,,,,,,,,,,Task,5,(2x3) + 0,6,,,,,,,,,,,,,,,,,,,1,,,,,,,,,,,,,,,,,,,,,,,"[""6""]",1,[1.54200000000003],0,0,0,4,1,,,,,,,,,,,,,,,,,,
,,,,,,,,,,5ee3348f8cfe2d49e6dc98ff,22,Mężczyzna,2022-05-28_09h14.53.791,task,2021.1.4,Win32,60.0240096,628b806c463b948bc644b84f,6291cbe5e7a4c89ca765c862,,,,,,,,,,"X V Q F H G B L J M P D K C T S W R N Z
",,,,,,,,,,,,,,,,,,,,,,,,,,,,,,,,,,,,,,,,,,,,,,,,,,,,,,,,,,,,,,,,,,,,,,,,,,,,3,0,3,0,1,,,,,,,,,,,,,
,,,,,,,,,,5ee3348f8cfe2d49e6dc98ff,22,Mężczyzna,2022-05-28_09h14.53.791,task,2021.1.4,Win32,60.0240096,628b806c463b948bc644b84f,6291cbe5e7a4c89ca765c862,,,,,,,,,,,,,,,,,,,,,,,1,,,,,,,,,,Task,9,(3x7) - 20,1,,,,,,,,,,,,,,,,,,,1,,,,,,,,,,,,,,,,,,,,,,,"[""1""]",1,[1.455000000000041],0,0,0,8,1,,,,,,,,,,,,,,,,,,
,,,,,,,,,,5ee3348f8cfe2d49e6dc98ff,22,Mężczyzna,2022-05-28_09h14.53.791,task,2021.1.4,Win32,60.0240096,628b806c463b948bc644b84f,6291cbe5e7a4c89ca765c862,,,,,,,,,,"X V Q F H G B L J M P D K C T S W R N Z
",,,,,,,,,,,,,,,,,,,,,,,,,,,,,,,,,,,,,,,,,,,,,,,,,,,,,,,,,,,,,,,,,,,,,,,,,,,,4,0,4,0,1,,,,,,,,,,,,,
,,,,,,,,,,5ee3348f8cfe2d49e6dc98ff,22,Mężczyzna,2022-05-28_09h14.53.791,task,2021.1.4,Win32,60.0240096,628b806c463b948bc644b84f,6291cbe5e7a4c89ca765c862,,,,,,,,,,,,,,,,,,,,,,,,,,,,,,,,,,,,,,,,,,,,,,,,,,,,,,,,,,,,,,,,,,,,,,,,,,,,,,,,,,,,,,,,,,,cxsvz,"[""c"",""x"",""s"",""v"",""z""]",0,"[1.47199999999998,1.8830000000000382,2.280999999999949,2.7690000000000055,2.98599999999999,3.1849999999999454]",0,"CXSFZ
",5,0,5,0,1,,
,,,,,,,,,,5ee3348f8cfe2d49e6dc98ff,22,Mężczyzna,2022-05-28_09h14.53.791,task,2021.1.4,Win32,60.0240096,628b806c463b948bc644b84f,6291cbe5e7a4c89ca765c862,,,,,,,,,,,,,,,,,,,,,,,5,,,,,,,,,,Task,12,(4x4) - 11,5,,,,,,,,,,,,,,,,,,,1,,,,,,,,,,,,,,,,,,,,,,,"[""5""]",1,[2.04200000000003],0,0,0,11,1,,,,,,,,,,,,,,,,,,
,,,,,,,,,,5ee3348f8cfe2d49e6dc98ff,22,Mężczyzna,2022-05-28_09h14.53.791,task,2021.1.4,Win32,60.0240096,628b806c463b948bc644b84f,6291cbe5e7a4c89ca765c862,,,,,,,,,,"X V Q F H G B L J M P D K C T S W R N Z
",,,,,,,,,,,,,,,,,,,,,,,,,,,,,,,,,,,,,,,,,,,,,,,,,,,,,,,,,,,,,,,,,,,,,,,,,,,,0,0,0,0,1,,,,,,,,,,,,,
,,,,,,,,,,5ee3348f8cfe2d49e6dc98ff,22,Mężczyzna,2022-05-28_09h14.53.791,task,2021.1.4,Win32,60.0240096,628b806c463b948bc644b84f,6291cbe5e7a4c89ca765c862,,,,,,,,,,,,,,,,,,,,,,,,,,,,,,,,,Task,38,(4x6) - 17,7,,,,,,,,,,,,,,,,,,,0,,,,,,,,,,,,,,,,,,,,,,,,0,,0,0,0,37,1,,,,,,,,,,,,,,,,,,
,,,,,,,,,,5ee3348f8cfe2d49e6dc98ff,22,Mężczyzna,2022-05-28_09h14.53.791,task,2021.1.4,Win32,60.0240096,628b806c463b948bc644b84f,6291cbe5e7a4c89ca765c862,,,,,,,,,,,,,,,,,,,,,,,8,,,,,,,,,,Task,32,(8/2) + 4,8,,,,,,,,,,,,,,,,,,,1,,,,,,,,,,,,,,,,,,,,,,,"[""8""]",1,[2.130000000000109],0,1,1,31,1,,,,,,,,,,,,,,,,,,
,,,,,,,,,,5ee3348f8cfe2d49e6dc98ff,22,Mężczyzna,2022-05-28_09h14.53.791,task,2021.1.4,Win32,60.0240096,628b806c463b948bc644b84f,6291cbe5e7a4c89ca765c862,,,,,,,,,,"X V Q F H G B L J M P D K C T S W R N Z
",,,,,,,,,,,,,,,,,,,,,,,,,,,,,,,,,,,,,,,,,,,,,,,,,,,,,,,,,,,,,,,,,,,,,,,,,,,,1,0,1,0,1,,,,,,,,,,,,,
,,,,,,,,,,5ee3348f8cfe2d49e6dc98ff,22,Mężczyzna,2022-05-28_09h14.53.791,task,2021.1.4,Win32,60.0240096,628b806c463b948bc644b84f,6291cbe5e7a4c89ca765c862,,,,,,,,,,,,,,,,,,,,,,,7,,,,,,,,,,Task,38,(4x6) - 17,7,,,,,,,,,,,,,,,,,,,1,,,,,,,,,,,,,,,,,,,,,,,"[""7""]",1,[2.3199999999999363],0,0,0,37,1,,,,,,,,,,,,,,,,,,
,,,,,,,,,,5ee3348f8cfe2d49e6dc98ff,22,Mężczyzna,2022-05-28_09h14.53.791,task,2021.1.4,Win32,60.0240096,628b806c463b948bc644b84f,6291cbe5e7a4c89ca765c862,,,,,,,,,,"X V Q F H G B L J M P D K C T S W R N Z
",,,,,,,,,,,,,,,,,,,,,,,,,,,,,,,,,,,,,,,,,,,,,,,,,,,,,,,,,,,,,,,,,,,,,,,,,,,,2,0,2,0,1,,,,,,,,,,,,,
,,,,,,,,,,5ee3348f8cfe2d49e6dc98ff,22,Mężczyzna,2022-05-28_09h14.53.791,task,2021.1.4,Win32,60.0240096,628b806c463b948bc644b84f,6291cbe5e7a4c89ca765c862,,,,,,,,,,,,,,,,,,,,,,,5,,,,,,,,,,Task,29,(3x8) - 19 ,5,,,,,,,,,,,,,,,,,,,1,,,,,,,,,,,,,,,,,,,,,,,"[""5""]",1,[2.495999999999981],0,0,0,28,1,,,,,,,,,,,,,,,,,,
,,,,,,,,,,5ee3348f8cfe2d49e6dc98ff,22,Mężczyzna,2022-05-28_09h14.53.791,task,2021.1.4,Win32,60.0240096,628b806c463b948bc644b84f,6291cbe5e7a4c89ca765c862,,,,,,,,,,"X V Q F H G B L J M P D K C T S W R N Z
",,,,,,,,,,,,,,,,,,,,,,,,,,,,,,,,,,,,,,,,,,,,,,,,,,,,,,,,,,,,,,,,,,,,,,,,,,,,3,0,3,0,1,,,,,,,,,,,,,
,,,,,,,,,,5ee3348f8cfe2d49e6dc98ff,22,Mężczyzna,2022-05-28_09h14.53.791,task,2021.1.4,Win32,60.0240096,628b806c463b948bc644b84f,6291cbe5e7a4c89ca765c862,,,,,,,,,,,,,,,,,,,,,,,7,,,,,,,,,,Task,30,(6/3) + 4 ,6,,,,,,,,,,,,,,,,,,,0,,,,,,,,,,,,,,,,,,,,,,,"[""7""]",0,[2.423999999999978],0,0,0,29,1,,,,,,,,,,,,,,,,,,
,,,,,,,,,,5ee3348f8cfe2d49e6dc98ff,22,Mężczyzna,2022-05-28_09h14.53.791,task,2021.1.4,Win32,60.0240096,628b806c463b948bc644b84f,6291cbe5e7a4c89ca765c862,,,,,,,,,,,,,,,,,,,,,,,4,,,,,,,,,,Task,21,(10/2) - 1,4,,,,,,,,,,,,,,,,,,,1,,,,,,,,,,,,,,,,,,,,,,,"[""4""]",1,[1.620999999999981],0,1,1,20,1,,,,,,,,,,,,,,,,,,
,,,,,,,,,,5ee3348f8cfe2d49e6dc98ff,22,Mężczyzna,2022-05-28_09h14.53.791,task,2021.1.4,Win32,60.0240096,628b806c463b948bc644b84f,6291cbe5e7a4c89ca765c862,,,,,,,,,,"X V Q F H G B L J M P D K C T S W R N Z
",,,,,,,,,,,,,,,,,,,,,,,,,,,,,,,,,,,,,,,,,,,,,,,,,,,,,,,,,,,,,,,,,,,,,,,,,,,,4,0,4,0,1,,,,,,,,,,,,,
,,,,,,,,,,5ee3348f8cfe2d49e6dc98ff,22,Mężczyzna,2022-05-28_09h14.53.791,task,2021.1.4,Win32,60.0240096,628b806c463b948bc644b84f,6291cbe5e7a4c89ca765c862,,,,,,,,,,,,,,,,,,,,,,,,,,,,,,,,,,,,,,,,,,,,,,,,,,,,,,,,,,,,,,,,,,,,,,,,,,,,,,,,,,,,,,,,,,,msbs,"[""m"",""s"",""b"",""s""]",0,"[1.90199999999993,2.838999999999942,3.3079999999999927,8.784999999999968,8.882999999999925]",0,MSBPS,6,0,6,0,1,,
,,,,,,,,,,5ee3348f8cfe2d49e6dc98ff,22,Mężczyzna,2022-05-28_09h14.53.791,task,2021.1.4,Win32,60.0240096,628b806c463b948bc644b84f,6291cbe5e7a4c89ca765c862,,,,,,,,,,,,,,,,,,,,,,,,,,,,,,,,,,,,,,,,,,,,,,,,,,,,,,,,,,,,,,,,,,,,,,,,,,,,,,,,,,,,,,,,,,,,,,,,,,,,,,space,1.367
