key_resp_15.keys,key_resp_15.rt,key_resp_13.keys,key_resp_13.corr,key_resp_13.rt,ranodm_loop.thisRepN,ranodm_loop.thisTrialN,ranodm_loop.thisN,ranodm_loop.thisIndex,ranodm_loop.ran,participant,Wiek*,Płeć,date,expName,psychopyVersion,OS,frameRate,study_id,session,key_resp_16.keys,key_resp_16.rt,key_resp_4.keys,key_resp_4.rt,next_letter.thisRepN,next_letter.thisTrialN,next_letter.thisN,next_letter.thisIndex,next_letter.ran,letter,simple_recall,key_resp_5.keys,key_resp_5.rt,simple_recall_corr,simple_recall_corrkeys,next_level.thisRepN,next_level.thisTrialN,next_level.thisN,next_level.thisIndex,next_level.ran,key_resp_2.keys,key_resp_2.rt,digit_answer,key_resp.keys,key_resp.corr,key_resp.rt,RT_list,next_equation.thisRepN,next_equation.thisTrialN,next_equation.thisN,next_equation.thisIndex,next_equation.ran,Task,Trial,Problem,Operation_answer,processing_score,sumRT,meanRT,sumdiff,sd,RT,key_resp_3.keys,key_resp_3.rt,repeat_practice.thisRepN,repeat_practice.thisTrialN,repeat_practice.thisN,repeat_practice.thisIndex,repeat_practice.ran,key_resp_6.keys,key_resp_6.rt,key_resp_11.keys,key_resp_11.corr,key_resp_11.rt,operation_correct,repeat_if_wrong_prac.thisRepN,repeat_if_wrong_prac.thisTrialN,repeat_if_wrong_prac.thisN,repeat_if_wrong_prac.thisIndex,repeat_if_wrong_prac.ran,span_size_prac.thisRepN,span_size_prac.thisTrialN,span_size_prac.thisN,span_size_prac.thisIndex,span_size_prac.ran,complex_recall_practice,key_resp_9.keys,key_resp_9.corr,key_resp_9.rt,complex_prac_corr,span_recall_prac.thisRepN,span_recall_prac.thisTrialN,span_recall_prac.thisN,span_recall_prac.thisIndex,span_recall_prac.ran,key_resp_10.keys,key_resp_10.rt,key_resp_7.keys,key_resp_7.corr,key_resp_7.rt,repeat_if_wrong.thisRepN,repeat_if_wrong.thisTrialN,repeat_if_wrong.thisN,repeat_if_wrong.thisIndex,repeat_if_wrong.ran,span_size.thisRepN,span_size.thisTrialN,span_size.thisN,span_size.thisIndex,span_size.ran,complex_recall,key_resp_8.keys,key_resp_8.corr,key_resp_8.rt,complex_recall_corr,complex_recall_corrkeys,span_recall.thisRepN,span_recall.thisTrialN,span_recall.thisN,span_recall.thisIndex,span_recall.ran,key_resp_12.keys,key_resp_12.rt
space,39.3868,"[""comma""]",0,[0.9889000000953274],0,0,0,0,1,5ee43a8e2ec5ba13df088f5e,45,Mężczyzna,2022-05-28_09h20.51.243,task,2021.1.4,Win32,60.16847172,628b806c463b948bc644b84f,6291cce7bf88a1be90e21286,,,,,,,,,,,,,,,,,,,,,,,,,,,,,,,,,,,,,,,,,,,,,,,,,,,,,,,,,,,,,,,,,,,,,,,,,,,,,,,,,,,,,,,,,,,,,,,,,,,,,,,
,,"[""period""]",0,[0.8363999998568943],1,0,1,0,1,5ee43a8e2ec5ba13df088f5e,45,Mężczyzna,2022-05-28_09h20.51.243,task,2021.1.4,Win32,60.16847172,628b806c463b948bc644b84f,6291cce7bf88a1be90e21286,,,,,,,,,,,,,,,,,,,,,,,,,,,,,,,,,,,,,,,,,,,,,,,,,,,,,,,,,,,,,,,,,,,,,,,,,,,,,,,,,,,,,,,,,,,,,,,,,,,,,,,
,,"[""comma""]",0,[0.934799999952304],2,0,2,0,1,5ee43a8e2ec5ba13df088f5e,45,Mężczyzna,2022-05-28_09h20.51.243,task,2021.1.4,Win32,60.16847172,628b806c463b948bc644b84f,6291cce7bf88a1be90e21286,,,,,,,,,,,,,,,,,,,,,,,,,,,,,,,,,,,,,,,,,,,,,,,,,,,,,,,,,,,,,,,,,,,,,,,,,,,,,,,,,,,,,,,,,,,,,,,,,,,,,,,
,,"[""period""]",0,[0.625500000000045],3,0,3,0,1,5ee43a8e2ec5ba13df088f5e,45,Mężczyzna,2022-05-28_09h20.51.243,task,2021.1.4,Win32,60.16847172,628b806c463b948bc644b84f,6291cce7bf88a1be90e21286,,,,,,,,,,,,,,,,,,,,,,,,,,,,,,,,,,,,,,,,,,,,,,,,,,,,,,,,,,,,,,,,,,,,,,,,,,,,,,,,,,,,,,,,,,,,,,,,,,,,,,,
,,"[""comma""]",0,[0.3833999998569766],4,0,4,0,1,5ee43a8e2ec5ba13df088f5e,45,Mężczyzna,2022-05-28_09h20.51.243,task,2021.1.4,Win32,60.16847172,628b806c463b948bc644b84f,6291cce7bf88a1be90e21286,,,,,,,,,,,,,,,,,,,,,,,,,,,,,,,,,,,,,,,,,,,,,,,,,,,,,,,,,,,,,,,,,,,,,,,,,,,,,,,,,,,,,,,,,,,,,,,,,,,,,,,
,,"[""period""]",0,[0.41700000000003],5,0,5,0,1,5ee43a8e2ec5ba13df088f5e,45,Mężczyzna,2022-05-28_09h20.51.243,task,2021.1.4,Win32,60.16847172,628b806c463b948bc644b84f,6291cce7bf88a1be90e21286,,,,,,,,,,,,,,,,,,,,,,,,,,,,,,,,,,,,,,,,,,,,,,,,,,,,,,,,,,,,,,,,,,,,,,,,,,,,,,,,,,,,,,,,,,,,,,,,,,,,,,,
,,"[""comma""]",0,[0.588400000095362],6,0,6,0,1,5ee43a8e2ec5ba13df088f5e,45,Mężczyzna,2022-05-28_09h20.51.243,task,2021.1.4,Win32,60.16847172,628b806c463b948bc644b84f,6291cce7bf88a1be90e21286,,,,,,,,,,,,,,,,,,,,,,,,,,,,,,,,,,,,,,,,,,,,,,,,,,,,,,,,,,,,,,,,,,,,,,,,,,,,,,,,,,,,,,,,,,,,,,,,,,,,,,,
,,"[""period""]",0,[0.6569999999999823],7,0,7,0,1,5ee43a8e2ec5ba13df088f5e,45,Mężczyzna,2022-05-28_09h20.51.243,task,2021.1.4,Win32,60.16847172,628b806c463b948bc644b84f,6291cce7bf88a1be90e21286,,,,,,,,,,,,,,,,,,,,,,,,,,,,,,,,,,,,,,,,,,,,,,,,,,,,,,,,,,,,,,,,,,,,,,,,,,,,,,,,,,,,,,,,,,,,,,,,,,,,,,,
,,"[""comma""]",0,[0.4335999999046294],8,0,8,0,1,5ee43a8e2ec5ba13df088f5e,45,Mężczyzna,2022-05-28_09h20.51.243,task,2021.1.4,Win32,60.16847172,628b806c463b948bc644b84f,6291cce7bf88a1be90e21286,,,,,,,,,,,,,,,,,,,,,,,,,,,,,,,,,,,,,,,,,,,,,,,,,,,,,,,,,,,,,,,,,,,,,,,,,,,,,,,,,,,,,,,,,,,,,,,,,,,,,,,
,,"[""period""]",0,[0.6770000000000209],9,0,9,0,1,5ee43a8e2ec5ba13df088f5e,45,Mężczyzna,2022-05-28_09h20.51.243,task,2021.1.4,Win32,60.16847172,628b806c463b948bc644b84f,6291cce7bf88a1be90e21286,,,,,,,,,,,,,,,,,,,,,,,,,,,,,,,,,,,,,,,,,,,,,,,,,,,,,,,,,,,,,,,,,,,,,,,,,,,,,,,,,,,,,,,,,,,,,,,,,,,,,,,
,,"[""comma""]",0,[0.49639999985697614],10,0,10,0,1,5ee43a8e2ec5ba13df088f5e,45,Mężczyzna,2022-05-28_09h20.51.243,task,2021.1.4,Win32,60.16847172,628b806c463b948bc644b84f,6291cce7bf88a1be90e21286,,,,,,,,,,,,,,,,,,,,,,,,,,,,,,,,,,,,,,,,,,,,,,,,,,,,,,,,,,,,,,,,,,,,,,,,,,,,,,,,,,,,,,,,,,,,,,,,,,,,,,,
,,"[""comma""]",0,[0.41800000000000637],11,0,11,0,1,5ee43a8e2ec5ba13df088f5e,45,Mężczyzna,2022-05-28_09h20.51.243,task,2021.1.4,Win32,60.16847172,628b806c463b948bc644b84f,6291cce7bf88a1be90e21286,,,,,,,,,,,,,,,,,,,,,,,,,,,,,,,,,,,,,,,,,,,,,,,,,,,,,,,,,,,,,,,,,,,,,,,,,,,,,,,,,,,,,,,,,,,,,,,,,,,,,,,
,,"[""period""]",0,[0.4365999999046153],12,0,12,0,1,5ee43a8e2ec5ba13df088f5e,45,Mężczyzna,2022-05-28_09h20.51.243,task,2021.1.4,Win32,60.16847172,628b806c463b948bc644b84f,6291cce7bf88a1be90e21286,,,,,,,,,,,,,,,,,,,,,,,,,,,,,,,,,,,,,,,,,,,,,,,,,,,,,,,,,,,,,,,,,,,,,,,,,,,,,,,,,,,,,,,,,,,,,,,,,,,,,,,
,,"[""period""]",0,[0.3212000000476678],13,0,13,0,1,5ee43a8e2ec5ba13df088f5e,45,Mężczyzna,2022-05-28_09h20.51.243,task,2021.1.4,Win32,60.16847172,628b806c463b948bc644b84f,6291cce7bf88a1be90e21286,,,,,,,,,,,,,,,,,,,,,,,,,,,,,,,,,,,,,,,,,,,,,,,,,,,,,,,,,,,,,,,,,,,,,,,,,,,,,,,,,,,,,,,,,,,,,,,,,,,,,,,
,,"[""period""]",0,[0.7205999999046071],14,0,14,0,1,5ee43a8e2ec5ba13df088f5e,45,Mężczyzna,2022-05-28_09h20.51.243,task,2021.1.4,Win32,60.16847172,628b806c463b948bc644b84f,6291cce7bf88a1be90e21286,,,,,,,,,,,,,,,,,,,,,,,,,,,,,,,,,,,,,,,,,,,,,,,,,,,,,,,,,,,,,,,,,,,,,,,,,,,,,,,,,,,,,,,,,,,,,,,,,,,,,,,
,,"[""comma""]",0,[0.5517999999523227],15,0,15,0,1,5ee43a8e2ec5ba13df088f5e,45,Mężczyzna,2022-05-28_09h20.51.243,task,2021.1.4,Win32,60.16847172,628b806c463b948bc644b84f,6291cce7bf88a1be90e21286,,,,,,,,,,,,,,,,,,,,,,,,,,,,,,,,,,,,,,,,,,,,,,,,,,,,,,,,,,,,,,,,,,,,,,,,,,,,,,,,,,,,,,,,,,,,,,,,,,,,,,,
,,"[""comma""]",0,[0.4661999998092483],16,0,16,0,1,5ee43a8e2ec5ba13df088f5e,45,Mężczyzna,2022-05-28_09h20.51.243,task,2021.1.4,Win32,60.16847172,628b806c463b948bc644b84f,6291cce7bf88a1be90e21286,,,,,,,,,,,,,,,,,,,,,,,,,,,,,,,,,,,,,,,,,,,,,,,,,,,,,,,,,,,,,,,,,,,,,,,,,,,,,,,,,,,,,,,,,,,,,,,,,,,,,,,
,,"[""comma""]",0,[0.335099999904628],17,0,17,0,1,5ee43a8e2ec5ba13df088f5e,45,Mężczyzna,2022-05-28_09h20.51.243,task,2021.1.4,Win32,60.16847172,628b806c463b948bc644b84f,6291cce7bf88a1be90e21286,,,,,,,,,,,,,,,,,,,,,,,,,,,,,,,,,,,,,,,,,,,,,,,,,,,,,,,,,,,,,,,,,,,,,,,,,,,,,,,,,,,,,,,,,,,,,,,,,,,,,,,
,,"[""period""]",0,[0.43340000009538926],18,0,18,0,1,5ee43a8e2ec5ba13df088f5e,45,Mężczyzna,2022-05-28_09h20.51.243,task,2021.1.4,Win32,60.16847172,628b806c463b948bc644b84f,6291cce7bf88a1be90e21286,,,,,,,,,,,,,,,,,,,,,,,,,,,,,,,,,,,,,,,,,,,,,,,,,,,,,,,,,,,,,,,,,,,,,,,,,,,,,,,,,,,,,,,,,,,,,,,,,,,,,,,
,,"[""comma""]",0,[0.3520000000000323],19,0,19,0,1,5ee43a8e2ec5ba13df088f5e,45,Mężczyzna,2022-05-28_09h20.51.243,task,2021.1.4,Win32,60.16847172,628b806c463b948bc644b84f,6291cce7bf88a1be90e21286,,,,,,,,,,,,,,,,,,,,,,,,,,,,,,,,,,,,,,,,,,,,,,,,,,,,,,,,,,,,,,,,,,,,,,,,,,,,,,,,,,,,,,,,,,,,,,,,,,,,,,,
,,"[""period""]",0,[0.33629999995230264],20,0,20,0,1,5ee43a8e2ec5ba13df088f5e,45,Mężczyzna,2022-05-28_09h20.51.243,task,2021.1.4,Win32,60.16847172,628b806c463b948bc644b84f,6291cce7bf88a1be90e21286,,,,,,,,,,,,,,,,,,,,,,,,,,,,,,,,,,,,,,,,,,,,,,,,,,,,,,,,,,,,,,,,,,,,,,,,,,,,,,,,,,,,,,,,,,,,,,,,,,,,,,,
,,"[""period""]",0,[0.3103000001907503],21,0,21,0,1,5ee43a8e2ec5ba13df088f5e,45,Mężczyzna,2022-05-28_09h20.51.243,task,2021.1.4,Win32,60.16847172,628b806c463b948bc644b84f,6291cce7bf88a1be90e21286,,,,,,,,,,,,,,,,,,,,,,,,,,,,,,,,,,,,,,,,,,,,,,,,,,,,,,,,,,,,,,,,,,,,,,,,,,,,,,,,,,,,,,,,,,,,,,,,,,,,,,,
,,"[""comma""]",0,[0.30079999995228945],22,0,22,0,1,5ee43a8e2ec5ba13df088f5e,45,Mężczyzna,2022-05-28_09h20.51.243,task,2021.1.4,Win32,60.16847172,628b806c463b948bc644b84f,6291cce7bf88a1be90e21286,,,,,,,,,,,,,,,,,,,,,,,,,,,,,,,,,,,,,,,,,,,,,,,,,,,,,,,,,,,,,,,,,,,,,,,,,,,,,,,,,,,,,,,,,,,,,,,,,,,,,,,
,,"[""comma""]",0,[0.5069000000954134],23,0,23,0,1,5ee43a8e2ec5ba13df088f5e,45,Mężczyzna,2022-05-28_09h20.51.243,task,2021.1.4,Win32,60.16847172,628b806c463b948bc644b84f,6291cce7bf88a1be90e21286,,,,,,,,,,,,,,,,,,,,,,,,,,,,,,,,,,,,,,,,,,,,,,,,,,,,,,,,,,,,,,,,,,,,,,,,,,,,,,,,,,,,,,,,,,,,,,,,,,,,,,,
,,"[""period""]",0,[0.3495999999046262],24,0,24,0,1,5ee43a8e2ec5ba13df088f5e,45,Mężczyzna,2022-05-28_09h20.51.243,task,2021.1.4,Win32,60.16847172,628b806c463b948bc644b84f,6291cce7bf88a1be90e21286,,,,,,,,,,,,,,,,,,,,,,,,,,,,,,,,,,,,,,,,,,,,,,,,,,,,,,,,,,,,,,,,,,,,,,,,,,,,,,,,,,,,,,,,,,,,,,,,,,,,,,,
,,"[""comma""]",0,[0.01759999990463257],25,0,25,0,1,5ee43a8e2ec5ba13df088f5e,45,Mężczyzna,2022-05-28_09h20.51.243,task,2021.1.4,Win32,60.16847172,628b806c463b948bc644b84f,6291cce7bf88a1be90e21286,,,,,,,,,,,,,,,,,,,,,,,,,,,,,,,,,,,,,,,,,,,,,,,,,,,,,,,,,,,,,,,,,,,,,,,,,,,,,,,,,,,,,,,,,,,,,,,,,,,,,,,
,,"[""period""]",0,[0.3743999998569052],26,0,26,0,1,5ee43a8e2ec5ba13df088f5e,45,Mężczyzna,2022-05-28_09h20.51.243,task,2021.1.4,Win32,60.16847172,628b806c463b948bc644b84f,6291cce7bf88a1be90e21286,,,,,,,,,,,,,,,,,,,,,,,,,,,,,,,,,,,,,,,,,,,,,,,,,,,,,,,,,,,,,,,,,,,,,,,,,,,,,,,,,,,,,,,,,,,,,,,,,,,,,,,
,,"[""period""]",0,[0.40409999990464485],27,0,27,0,1,5ee43a8e2ec5ba13df088f5e,45,Mężczyzna,2022-05-28_09h20.51.243,task,2021.1.4,Win32,60.16847172,628b806c463b948bc644b84f,6291cce7bf88a1be90e21286,,,,,,,,,,,,,,,,,,,,,,,,,,,,,,,,,,,,,,,,,,,,,,,,,,,,,,,,,,,,,,,,,,,,,,,,,,,,,,,,,,,,,,,,,,,,,,,,,,,,,,,
,,"[""period""]",0,[0.5497999999523131],28,0,28,0,1,5ee43a8e2ec5ba13df088f5e,45,Mężczyzna,2022-05-28_09h20.51.243,task,2021.1.4,Win32,60.16847172,628b806c463b948bc644b84f,6291cce7bf88a1be90e21286,,,,,,,,,,,,,,,,,,,,,,,,,,,,,,,,,,,,,,,,,,,,,,,,,,,,,,,,,,,,,,,,,,,,,,,,,,,,,,,,,,,,,,,,,,,,,,,,,,,,,,,
,,"[""comma""]",0,[0.45650000000000546],29,0,29,0,1,5ee43a8e2ec5ba13df088f5e,45,Mężczyzna,2022-05-28_09h20.51.243,task,2021.1.4,Win32,60.16847172,628b806c463b948bc644b84f,6291cce7bf88a1be90e21286,,,,,,,,,,,,,,,,,,,,,,,,,,,,,,,,,,,,,,,,,,,,,,,,,,,,,,,,,,,,,,,,,,,,,,,,,,,,,,,,,,,,,,,,,,,,,,,,,,,,,,,
,,"[""comma""]",0,[0.3338999998569534],30,0,30,0,1,5ee43a8e2ec5ba13df088f5e,45,Mężczyzna,2022-05-28_09h20.51.243,task,2021.1.4,Win32,60.16847172,628b806c463b948bc644b84f,6291cce7bf88a1be90e21286,,,,,,,,,,,,,,,,,,,,,,,,,,,,,,,,,,,,,,,,,,,,,,,,,,,,,,,,,,,,,,,,,,,,,,,,,,,,,,,,,,,,,,,,,,,,,,,,,,,,,,,
,,"[""comma""]",0,[0.3837000000476678],31,0,31,0,1,5ee43a8e2ec5ba13df088f5e,45,Mężczyzna,2022-05-28_09h20.51.243,task,2021.1.4,Win32,60.16847172,628b806c463b948bc644b84f,6291cce7bf88a1be90e21286,,,,,,,,,,,,,,,,,,,,,,,,,,,,,,,,,,,,,,,,,,,,,,,,,,,,,,,,,,,,,,,,,,,,,,,,,,,,,,,,,,,,,,,,,,,,,,,,,,,,,,,
,,"[""period""]",0,[0.38240000009540154],32,0,32,0,1,5ee43a8e2ec5ba13df088f5e,45,Mężczyzna,2022-05-28_09h20.51.243,task,2021.1.4,Win32,60.16847172,628b806c463b948bc644b84f,6291cce7bf88a1be90e21286,,,,,,,,,,,,,,,,,,,,,,,,,,,,,,,,,,,,,,,,,,,,,,,,,,,,,,,,,,,,,,,,,,,,,,,,,,,,,,,,,,,,,,,,,,,,,,,,,,,,,,,
,,"[""period""]",0,[0.3383000001907135],33,0,33,0,1,5ee43a8e2ec5ba13df088f5e,45,Mężczyzna,2022-05-28_09h20.51.243,task,2021.1.4,Win32,60.16847172,628b806c463b948bc644b84f,6291cce7bf88a1be90e21286,,,,,,,,,,,,,,,,,,,,,,,,,,,,,,,,,,,,,,,,,,,,,,,,,,,,,,,,,,,,,,,,,,,,,,,,,,,,,,,,,,,,,,,,,,,,,,,,,,,,,,,
,,"[""comma""]",0,[0.33199999999999363],34,0,34,0,1,5ee43a8e2ec5ba13df088f5e,45,Mężczyzna,2022-05-28_09h20.51.243,task,2021.1.4,Win32,60.16847172,628b806c463b948bc644b84f,6291cce7bf88a1be90e21286,,,,,,,,,,,,,,,,,,,,,,,,,,,,,,,,,,,,,,,,,,,,,,,,,,,,,,,,,,,,,,,,,,,,,,,,,,,,,,,,,,,,,,,,,,,,,,,,,,,,,,,
,,"[""period""]",0,[0.3483999998569516],35,0,35,0,1,5ee43a8e2ec5ba13df088f5e,45,Mężczyzna,2022-05-28_09h20.51.243,task,2021.1.4,Win32,60.16847172,628b806c463b948bc644b84f,6291cce7bf88a1be90e21286,,,,,,,,,,,,,,,,,,,,,,,,,,,,,,,,,,,,,,,,,,,,,,,,,,,,,,,,,,,,,,,,,,,,,,,,,,,,,,,,,,,,,,,,,,,,,,,,,,,,,,,
,,"[""period""]",0,[0.2686999998092574],36,0,36,0,1,5ee43a8e2ec5ba13df088f5e,45,Mężczyzna,2022-05-28_09h20.51.243,task,2021.1.4,Win32,60.16847172,628b806c463b948bc644b84f,6291cce7bf88a1be90e21286,,,,,,,,,,,,,,,,,,,,,,,,,,,,,,,,,,,,,,,,,,,,,,,,,,,,,,,,,,,,,,,,,,,,,,,,,,,,,,,,,,,,,,,,,,,,,,,,,,,,,,,
,,"[""comma""]",0,[0.3540999999046335],37,0,37,0,1,5ee43a8e2ec5ba13df088f5e,45,Mężczyzna,2022-05-28_09h20.51.243,task,2021.1.4,Win32,60.16847172,628b806c463b948bc644b84f,6291cce7bf88a1be90e21286,,,,,,,,,,,,,,,,,,,,,,,,,,,,,,,,,,,,,,,,,,,,,,,,,,,,,,,,,,,,,,,,,,,,,,,,,,,,,,,,,,,,,,,,,,,,,,,,,,,,,,,
,,"[""comma""]",0,[0.32540000009538517],38,0,38,0,1,5ee43a8e2ec5ba13df088f5e,45,Mężczyzna,2022-05-28_09h20.51.243,task,2021.1.4,Win32,60.16847172,628b806c463b948bc644b84f,6291cce7bf88a1be90e21286,,,,,,,,,,,,,,,,,,,,,,,,,,,,,,,,,,,,,,,,,,,,,,,,,,,,,,,,,,,,,,,,,,,,,,,,,,,,,,,,,,,,,,,,,,,,,,,,,,,,,,,
,,"[""period""]",0,[0.6277999999522876],39,0,39,0,1,5ee43a8e2ec5ba13df088f5e,45,Mężczyzna,2022-05-28_09h20.51.243,task,2021.1.4,Win32,60.16847172,628b806c463b948bc644b84f,6291cce7bf88a1be90e21286,,,,,,,,,,,,,,,,,,,,,,,,,,,,,,,,,,,,,,,,,,,,,,,,,,,,,,,,,,,,,,,,,,,,,,,,,,,,,,,,,,,,,,,,,,,,,,,,,,,,,,,
,,"[""comma""]",0,[0.317900000095392],40,0,40,0,1,5ee43a8e2ec5ba13df088f5e,45,Mężczyzna,2022-05-28_09h20.51.243,task,2021.1.4,Win32,60.16847172,628b806c463b948bc644b84f,6291cce7bf88a1be90e21286,,,,,,,,,,,,,,,,,,,,,,,,,,,,,,,,,,,,,,,,,,,,,,,,,,,,,,,,,,,,,,,,,,,,,,,,,,,,,,,,,,,,,,,,,,,,,,,,,,,,,,,
,,"[""period""]",0,[0.46660000014304615],41,0,41,0,1,5ee43a8e2ec5ba13df088f5e,45,Mężczyzna,2022-05-28_09h20.51.243,task,2021.1.4,Win32,60.16847172,628b806c463b948bc644b84f,6291cce7bf88a1be90e21286,,,,,,,,,,,,,,,,,,,,,,,,,,,,,,,,,,,,,,,,,,,,,,,,,,,,,,,,,,,,,,,,,,,,,,,,,,,,,,,,,,,,,,,,,,,,,,,,,,,,,,,
,,"[""comma""]",0,[0.35040000009536243],42,0,42,0,1,5ee43a8e2ec5ba13df088f5e,45,Mężczyzna,2022-05-28_09h20.51.243,task,2021.1.4,Win32,60.16847172,628b806c463b948bc644b84f,6291cce7bf88a1be90e21286,,,,,,,,,,,,,,,,,,,,,,,,,,,,,,,,,,,,,,,,,,,,,,,,,,,,,,,,,,,,,,,,,,,,,,,,,,,,,,,,,,,,,,,,,,,,,,,,,,,,,,,
,,"[""period""]",0,[0.45490000009539244],43,0,43,0,1,5ee43a8e2ec5ba13df088f5e,45,Mężczyzna,2022-05-28_09h20.51.243,task,2021.1.4,Win32,60.16847172,628b806c463b948bc644b84f,6291cce7bf88a1be90e21286,,,,,,,,,,,,,,,,,,,,,,,,,,,,,,,,,,,,,,,,,,,,,,,,,,,,,,,,,,,,,,,,,,,,,,,,,,,,,,,,,,,,,,,,,,,,,,,,,,,,,,,
,,"[""comma""]",0,[0.27079999995231674],44,0,44,0,1,5ee43a8e2ec5ba13df088f5e,45,Mężczyzna,2022-05-28_09h20.51.243,task,2021.1.4,Win32,60.16847172,628b806c463b948bc644b84f,6291cce7bf88a1be90e21286,,,,,,,,,,,,,,,,,,,,,,,,,,,,,,,,,,,,,,,,,,,,,,,,,,,,,,,,,,,,,,,,,,,,,,,,,,,,,,,,,,,,,,,,,,,,,,,,,,,,,,,
,,"[""comma"",""comma""]",0,"[0.2685000000000173,1.9181999998092465]",45,0,45,0,1,5ee43a8e2ec5ba13df088f5e,45,Mężczyzna,2022-05-28_09h20.51.243,task,2021.1.4,Win32,60.16847172,628b806c463b948bc644b84f,6291cce7bf88a1be90e21286,,,,,,,,,,,,,,,,,,,,,,,,,,,,,,,,,,,,,,,,,,,,,,,,,,,,,,,,,,,,,,,,,,,,,,,,,,,,,,,,,,,,,,,,,,,,,,,,,,,,,,,
,,"[""period""]",0,[1.722600000143018],46,0,46,0,1,5ee43a8e2ec5ba13df088f5e,45,Mężczyzna,2022-05-28_09h20.51.243,task,2021.1.4,Win32,60.16847172,628b806c463b948bc644b84f,6291cce7bf88a1be90e21286,,,,,,,,,,,,,,,,,,,,,,,,,,,,,,,,,,,,,,,,,,,,,,,,,,,,,,,,,,,,,,,,,,,,,,,,,,,,,,,,,,,,,,,,,,,,,,,,,,,,,,,
,,"[""period""]",0,[1.4339000000953774],47,0,47,0,1,5ee43a8e2ec5ba13df088f5e,45,Mężczyzna,2022-05-28_09h20.51.243,task,2021.1.4,Win32,60.16847172,628b806c463b948bc644b84f,6291cce7bf88a1be90e21286,,,,,,,,,,,,,,,,,,,,,,,,,,,,,,,,,,,,,,,,,,,,,,,,,,,,,,,,,,,,,,,,,,,,,,,,,,,,,,,,,,,,,,,,,,,,,,,,,,,,,,,
,,,0,,48,0,48,0,1,5ee43a8e2ec5ba13df088f5e,45,Mężczyzna,2022-05-28_09h20.51.243,task,2021.1.4,Win32,60.16847172,628b806c463b948bc644b84f,6291cce7bf88a1be90e21286,,,,,,,,,,,,,,,,,,,,,,,,,,,,,,,,,,,,,,,,,,,,,,,,,,,,,,,,,,,,,,,,,,,,,,,,,,,,,,,,,,,,,,,,,,,,,,,,,,,,,,,
,,"[""comma""]",0,[0.5536000001430352],49,0,49,0,1,5ee43a8e2ec5ba13df088f5e,45,Mężczyzna,2022-05-28_09h20.51.243,task,2021.1.4,Win32,60.16847172,628b806c463b948bc644b84f,6291cce7bf88a1be90e21286,,,,,,,,,,,,,,,,,,,,,,,,,,,,,,,,,,,,,,,,,,,,,,,,,,,,,,,,,,,,,,,,,,,,,,,,,,,,,,,,,,,,,,,,,,,,,,,,,,,,,,,
,,"[""period""]",0,[0.4683000001907658],50,0,50,0,1,5ee43a8e2ec5ba13df088f5e,45,Mężczyzna,2022-05-28_09h20.51.243,task,2021.1.4,Win32,60.16847172,628b806c463b948bc644b84f,6291cce7bf88a1be90e21286,,,,,,,,,,,,,,,,,,,,,,,,,,,,,,,,,,,,,,,,,,,,,,,,,,,,,,,,,,,,,,,,,,,,,,,,,,,,,,,,,,,,,,,,,,,,,,,,,,,,,,,
,,"[""comma""]",0,[0.5913999998569466],51,0,51,0,1,5ee43a8e2ec5ba13df088f5e,45,Mężczyzna,2022-05-28_09h20.51.243,task,2021.1.4,Win32,60.16847172,628b806c463b948bc644b84f,6291cce7bf88a1be90e21286,,,,,,,,,,,,,,,,,,,,,,,,,,,,,,,,,,,,,,,,,,,,,,,,,,,,,,,,,,,,,,,,,,,,,,,,,,,,,,,,,,,,,,,,,,,,,,,,,,,,,,,
,,"[""period""]",0,[0.4781000001430584],52,0,52,0,1,5ee43a8e2ec5ba13df088f5e,45,Mężczyzna,2022-05-28_09h20.51.243,task,2021.1.4,Win32,60.16847172,628b806c463b948bc644b84f,6291cce7bf88a1be90e21286,,,,,,,,,,,,,,,,,,,,,,,,,,,,,,,,,,,,,,,,,,,,,,,,,,,,,,,,,,,,,,,,,,,,,,,,,,,,,,,,,,,,,,,,,,,,,,,,,,,,,,,
,,"[""comma""]",0,[0.5671000001430571],53,0,53,0,1,5ee43a8e2ec5ba13df088f5e,45,Mężczyzna,2022-05-28_09h20.51.243,task,2021.1.4,Win32,60.16847172,628b806c463b948bc644b84f,6291cce7bf88a1be90e21286,,,,,,,,,,,,,,,,,,,,,,,,,,,,,,,,,,,,,,,,,,,,,,,,,,,,,,,,,,,,,,,,,,,,,,,,,,,,,,,,,,,,,,,,,,,,,,,,,,,,,,,
,,"[""period""]",0,[0.45920000004770145],54,0,54,0,1,5ee43a8e2ec5ba13df088f5e,45,Mężczyzna,2022-05-28_09h20.51.243,task,2021.1.4,Win32,60.16847172,628b806c463b948bc644b84f,6291cce7bf88a1be90e21286,,,,,,,,,,,,,,,,,,,,,,,,,,,,,,,,,,,,,,,,,,,,,,,,,,,,,,,,,,,,,,,,,,,,,,,,,,,,,,,,,,,,,,,,,,,,,,,,,,,,,,,
,,"[""comma""]",0,[0.5003999998569384],55,0,55,0,1,5ee43a8e2ec5ba13df088f5e,45,Mężczyzna,2022-05-28_09h20.51.243,task,2021.1.4,Win32,60.16847172,628b806c463b948bc644b84f,6291cce7bf88a1be90e21286,,,,,,,,,,,,,,,,,,,,,,,,,,,,,,,,,,,,,,,,,,,,,,,,,,,,,,,,,,,,,,,,,,,,,,,,,,,,,,,,,,,,,,,,,,,,,,,,,,,,,,,
,,"[""comma""]",0,[0.5557999999522849],56,0,56,0,1,5ee43a8e2ec5ba13df088f5e,45,Mężczyzna,2022-05-28_09h20.51.243,task,2021.1.4,Win32,60.16847172,628b806c463b948bc644b84f,6291cce7bf88a1be90e21286,,,,,,,,,,,,,,,,,,,,,,,,,,,,,,,,,,,,,,,,,,,,,,,,,,,,,,,,,,,,,,,,,,,,,,,,,,,,,,,,,,,,,,,,,,,,,,,,,,,,,,,
,,"[""comma""]",0,[0.5927000000477278],57,0,57,0,1,5ee43a8e2ec5ba13df088f5e,45,Mężczyzna,2022-05-28_09h20.51.243,task,2021.1.4,Win32,60.16847172,628b806c463b948bc644b84f,6291cce7bf88a1be90e21286,,,,,,,,,,,,,,,,,,,,,,,,,,,,,,,,,,,,,,,,,,,,,,,,,,,,,,,,,,,,,,,,,,,,,,,,,,,,,,,,,,,,,,,,,,,,,,,,,,,,,,,
,,,0,,58,0,58,0,1,5ee43a8e2ec5ba13df088f5e,45,Mężczyzna,2022-05-28_09h20.51.243,task,2021.1.4,Win32,60.16847172,628b806c463b948bc644b84f,6291cce7bf88a1be90e21286,,,,,,,,,,,,,,,,,,,,,,,,,,,,,,,,,,,,,,,,,,,,,,,,,,,,,,,,,,,,,,,,,,,,,,,,,,,,,,,,,,,,,,,,,,,,,,,,,,,,,,,
,,"[""comma""]",0,[0.2850999999046735],59,0,59,0,1,5ee43a8e2ec5ba13df088f5e,45,Mężczyzna,2022-05-28_09h20.51.243,task,2021.1.4,Win32,60.16847172,628b806c463b948bc644b84f,6291cce7bf88a1be90e21286,,,,,,,,,,,,,,,,,,,,,,,,,,,,,,,,,,,,,,,,,,,,,,,,,,,,,,,,,,,,,,,,,,,,,,,,,,,,,,,,,,,,,,,,,,,,,,,,,,,,,,,
,,"[""period""]",0,[0.2813999998569443],60,0,60,0,1,5ee43a8e2ec5ba13df088f5e,45,Mężczyzna,2022-05-28_09h20.51.243,task,2021.1.4,Win32,60.16847172,628b806c463b948bc644b84f,6291cce7bf88a1be90e21286,,,,,,,,,,,,,,,,,,,,,,,,,,,,,,,,,,,,,,,,,,,,,,,,,,,,,,,,,,,,,,,,,,,,,,,,,,,,,,,,,,,,,,,,,,,,,,,,,,,,,,,
,,"[""period""]",0,[0.3394999999999868],61,0,61,0,1,5ee43a8e2ec5ba13df088f5e,45,Mężczyzna,2022-05-28_09h20.51.243,task,2021.1.4,Win32,60.16847172,628b806c463b948bc644b84f,6291cce7bf88a1be90e21286,,,,,,,,,,,,,,,,,,,,,,,,,,,,,,,,,,,,,,,,,,,,,,,,,,,,,,,,,,,,,,,,,,,,,,,,,,,,,,,,,,,,,,,,,,,,,,,,,,,,,,,
,,"[""period""]",0,[0.295799999952294],62,0,62,0,1,5ee43a8e2ec5ba13df088f5e,45,Mężczyzna,2022-05-28_09h20.51.243,task,2021.1.4,Win32,60.16847172,628b806c463b948bc644b84f,6291cce7bf88a1be90e21286,,,,,,,,,,,,,,,,,,,,,,,,,,,,,,,,,,,,,,,,,,,,,,,,,,,,,,,,,,,,,,,,,,,,,,,,,,,,,,,,,,,,,,,,,,,,,,,,,,,,,,,
,,"[""period""]",0,[0.2685000000000173],63,0,63,0,1,5ee43a8e2ec5ba13df088f5e,45,Mężczyzna,2022-05-28_09h20.51.243,task,2021.1.4,Win32,60.16847172,628b806c463b948bc644b84f,6291cce7bf88a1be90e21286,,,,,,,,,,,,,,,,,,,,,,,,,,,,,,,,,,,,,,,,,,,,,,,,,,,,,,,,,,,,,,,,,,,,,,,,,,,,,,,,,,,,,,,,,,,,,,,,,,,,,,,
,,"[""comma""]",0,[0.28569999980931016],64,0,64,0,1,5ee43a8e2ec5ba13df088f5e,45,Mężczyzna,2022-05-28_09h20.51.243,task,2021.1.4,Win32,60.16847172,628b806c463b948bc644b84f,6291cce7bf88a1be90e21286,,,,,,,,,,,,,,,,,,,,,,,,,,,,,,,,,,,,,,,,,,,,,,,,,,,,,,,,,,,,,,,,,,,,,,,,,,,,,,,,,,,,,,,,,,,,,,,,,,,,,,,
,,"[""period""]",0,[0.25200000000000955],65,0,65,0,1,5ee43a8e2ec5ba13df088f5e,45,Mężczyzna,2022-05-28_09h20.51.243,task,2021.1.4,Win32,60.16847172,628b806c463b948bc644b84f,6291cce7bf88a1be90e21286,,,,,,,,,,,,,,,,,,,,,,,,,,,,,,,,,,,,,,,,,,,,,,,,,,,,,,,,,,,,,,,,,,,,,,,,,,,,,,,,,,,,,,,,,,,,,,,,,,,,,,,
,,"[""comma""]",0,[0.37670000004771964],66,0,66,0,1,5ee43a8e2ec5ba13df088f5e,45,Mężczyzna,2022-05-28_09h20.51.243,task,2021.1.4,Win32,60.16847172,628b806c463b948bc644b84f,6291cce7bf88a1be90e21286,,,,,,,,,,,,,,,,,,,,,,,,,,,,,,,,,,,,,,,,,,,,,,,,,,,,,,,,,,,,,,,,,,,,,,,,,,,,,,,,,,,,,,,,,,,,,,,,,,,,,,,
,,"[""period""]",0,[0.3507000000477092],67,0,67,0,1,5ee43a8e2ec5ba13df088f5e,45,Mężczyzna,2022-05-28_09h20.51.243,task,2021.1.4,Win32,60.16847172,628b806c463b948bc644b84f,6291cce7bf88a1be90e21286,,,,,,,,,,,,,,,,,,,,,,,,,,,,,,,,,,,,,,,,,,,,,,,,,,,,,,,,,,,,,,,,,,,,,,,,,,,,,,,,,,,,,,,,,,,,,,,,,,,,,,,
,,"[""period""]",0,[0.6739999999999782],68,0,68,0,1,5ee43a8e2ec5ba13df088f5e,45,Mężczyzna,2022-05-28_09h20.51.243,task,2021.1.4,Win32,60.16847172,628b806c463b948bc644b84f,6291cce7bf88a1be90e21286,,,,,,,,,,,,,,,,,,,,,,,,,,,,,,,,,,,,,,,,,,,,,,,,,,,,,,,,,,,,,,,,,,,,,,,,,,,,,,,,,,,,,,,,,,,,,,,,,,,,,,,
,,"[""comma""]",0,[0.36820000004769327],69,0,69,0,1,5ee43a8e2ec5ba13df088f5e,45,Mężczyzna,2022-05-28_09h20.51.243,task,2021.1.4,Win32,60.16847172,628b806c463b948bc644b84f,6291cce7bf88a1be90e21286,,,,,,,,,,,,,,,,,,,,,,,,,,,,,,,,,,,,,,,,,,,,,,,,,,,,,,,,,,,,,,,,,,,,,,,,,,,,,,,,,,,,,,,,,,,,,,,,,,,,,,,
,,"[""comma""]",0,[0.3340000000000032],70,0,70,0,1,5ee43a8e2ec5ba13df088f5e,45,Mężczyzna,2022-05-28_09h20.51.243,task,2021.1.4,Win32,60.16847172,628b806c463b948bc644b84f,6291cce7bf88a1be90e21286,,,,,,,,,,,,,,,,,,,,,,,,,,,,,,,,,,,,,,,,,,,,,,,,,,,,,,,,,,,,,,,,,,,,,,,,,,,,,,,,,,,,,,,,,,,,,,,,,,,,,,,
,,"[""period""]",0,[0.3697000000476578],71,0,71,0,1,5ee43a8e2ec5ba13df088f5e,45,Mężczyzna,2022-05-28_09h20.51.243,task,2021.1.4,Win32,60.16847172,628b806c463b948bc644b84f,6291cce7bf88a1be90e21286,,,,,,,,,,,,,,,,,,,,,,,,,,,,,,,,,,,,,,,,,,,,,,,,,,,,,,,,,,,,,,,,,,,,,,,,,,,,,,,,,,,,,,,,,,,,,,,,,,,,,,,
,,"[""comma""]",0,[0.35039999985696113],72,0,72,0,1,5ee43a8e2ec5ba13df088f5e,45,Mężczyzna,2022-05-28_09h20.51.243,task,2021.1.4,Win32,60.16847172,628b806c463b948bc644b84f,6291cce7bf88a1be90e21286,,,,,,,,,,,,,,,,,,,,,,,,,,,,,,,,,,,,,,,,,,,,,,,,,,,,,,,,,,,,,,,,,,,,,,,,,,,,,,,,,,,,,,,,,,,,,,,,,,,,,,,
,,"[""period""]",0,[0.5230000000000246],73,0,73,0,1,5ee43a8e2ec5ba13df088f5e,45,Mężczyzna,2022-05-28_09h20.51.243,task,2021.1.4,Win32,60.16847172,628b806c463b948bc644b84f,6291cce7bf88a1be90e21286,,,,,,,,,,,,,,,,,,,,,,,,,,,,,,,,,,,,,,,,,,,,,,,,,,,,,,,,,,,,,,,,,,,,,,,,,,,,,,,,,,,,,,,,,,,,,,,,,,,,,,,
,,"[""comma""]",0,[0.535000000000025],74,0,74,0,1,5ee43a8e2ec5ba13df088f5e,45,Mężczyzna,2022-05-28_09h20.51.243,task,2021.1.4,Win32,60.16847172,628b806c463b948bc644b84f,6291cce7bf88a1be90e21286,,,,,,,,,,,,,,,,,,,,,,,,,,,,,,,,,,,,,,,,,,,,,,,,,,,,,,,,,,,,,,,,,,,,,,,,,,,,,,,,,,,,,,,,,,,,,,,,,,,,,,,
,,"[""comma""]",0,[0.6754999999999995],75,0,75,0,1,5ee43a8e2ec5ba13df088f5e,45,Mężczyzna,2022-05-28_09h20.51.243,task,2021.1.4,Win32,60.16847172,628b806c463b948bc644b84f,6291cce7bf88a1be90e21286,,,,,,,,,,,,,,,,,,,,,,,,,,,,,,,,,,,,,,,,,,,,,,,,,,,,,,,,,,,,,,,,,,,,,,,,,,,,,,,,,,,,,,,,,,,,,,,,,,,,,,,
,,,0,,76,0,76,0,1,5ee43a8e2ec5ba13df088f5e,45,Mężczyzna,2022-05-28_09h20.51.243,task,2021.1.4,Win32,60.16847172,628b806c463b948bc644b84f,6291cce7bf88a1be90e21286,,,,,,,,,,,,,,,,,,,,,,,,,,,,,,,,,,,,,,,,,,,,,,,,,,,,,,,,,,,,,,,,,,,,,,,,,,,,,,,,,,,,,,,,,,,,,,,,,,,,,,,
,,"[""comma""]",0,[0.23879999995233447],77,0,77,0,1,5ee43a8e2ec5ba13df088f5e,45,Mężczyzna,2022-05-28_09h20.51.243,task,2021.1.4,Win32,60.16847172,628b806c463b948bc644b84f,6291cce7bf88a1be90e21286,,,,,,,,,,,,,,,,,,,,,,,,,,,,,,,,,,,,,,,,,,,,,,,,,,,,,,,,,,,,,,,,,,,,,,,,,,,,,,,,,,,,,,,,,,,,,,,,,,,,,,,
,,"[""period""]",0,[0.27049999999997],78,0,78,0,1,5ee43a8e2ec5ba13df088f5e,45,Mężczyzna,2022-05-28_09h20.51.243,task,2021.1.4,Win32,60.16847172,628b806c463b948bc644b84f,6291cce7bf88a1be90e21286,,,,,,,,,,,,,,,,,,,,,,,,,,,,,,,,,,,,,,,,,,,,,,,,,,,,,,,,,,,,,,,,,,,,,,,,,,,,,,,,,,,,,,,,,,,,,,,,,,,,,,,
,,"[""period""]",0,[0.2189999999999941],79,0,79,0,1,5ee43a8e2ec5ba13df088f5e,45,Mężczyzna,2022-05-28_09h20.51.243,task,2021.1.4,Win32,60.16847172,628b806c463b948bc644b84f,6291cce7bf88a1be90e21286,,,,,,,,,,,,,,,,,,,,,,,,,,,,,,,,,,,,,,,,,,,,,,,,,,,,,,,,,,,,,,,,,,,,,,,,,,,,,,,,,,,,,,,,,,,,,,,,,,,,,,,
,,"[""period""]",0,[0.29220000004767144],80,0,80,0,1,5ee43a8e2ec5ba13df088f5e,45,Mężczyzna,2022-05-28_09h20.51.243,task,2021.1.4,Win32,60.16847172,628b806c463b948bc644b84f,6291cce7bf88a1be90e21286,,,,,,,,,,,,,,,,,,,,,,,,,,,,,,,,,,,,,,,,,,,,,,,,,,,,,,,,,,,,,,,,,,,,,,,,,,,,,,,,,,,,,,,,,,,,,,,,,,,,,,,
,,"[""comma""]",0,[0.43390000009537744],81,0,81,0,1,5ee43a8e2ec5ba13df088f5e,45,Mężczyzna,2022-05-28_09h20.51.243,task,2021.1.4,Win32,60.16847172,628b806c463b948bc644b84f,6291cce7bf88a1be90e21286,,,,,,,,,,,,,,,,,,,,,,,,,,,,,,,,,,,,,,,,,,,,,,,,,,,,,,,,,,,,,,,,,,,,,,,,,,,,,,,,,,,,,,,,,,,,,,,,,,,,,,,
,,"[""comma""]",0,[0.5905999999046116],82,0,82,0,1,5ee43a8e2ec5ba13df088f5e,45,Mężczyzna,2022-05-28_09h20.51.243,task,2021.1.4,Win32,60.16847172,628b806c463b948bc644b84f,6291cce7bf88a1be90e21286,,,,,,,,,,,,,,,,,,,,,,,,,,,,,,,,,,,,,,,,,,,,,,,,,,,,,,,,,,,,,,,,,,,,,,,,,,,,,,,,,,,,,,,,,,,,,,,,,,,,,,,
,,"[""comma""]",0,[0.4215000000000373],83,0,83,0,1,5ee43a8e2ec5ba13df088f5e,45,Mężczyzna,2022-05-28_09h20.51.243,task,2021.1.4,Win32,60.16847172,628b806c463b948bc644b84f,6291cce7bf88a1be90e21286,,,,,,,,,,,,,,,,,,,,,,,,,,,,,,,,,,,,,,,,,,,,,,,,,,,,,,,,,,,,,,,,,,,,,,,,,,,,,,,,,,,,,,,,,,,,,,,,,,,,,,,
,,"[""period""]",0,[0.2982000000477001],84,0,84,0,1,5ee43a8e2ec5ba13df088f5e,45,Mężczyzna,2022-05-28_09h20.51.243,task,2021.1.4,Win32,60.16847172,628b806c463b948bc644b84f,6291cce7bf88a1be90e21286,,,,,,,,,,,,,,,,,,,,,,,,,,,,,,,,,,,,,,,,,,,,,,,,,,,,,,,,,,,,,,,,,,,,,,,,,,,,,,,,,,,,,,,,,,,,,,,,,,,,,,,
,,"[""period"",""comma""]",0,"[0.14949999999998909,0.5026000001430475]",85,0,85,0,1,5ee43a8e2ec5ba13df088f5e,45,Mężczyzna,2022-05-28_09h20.51.243,task,2021.1.4,Win32,60.16847172,628b806c463b948bc644b84f,6291cce7bf88a1be90e21286,,,,,,,,,,,,,,,,,,,,,,,,,,,,,,,,,,,,,,,,,,,,,,,,,,,,,,,,,,,,,,,,,,,,,,,,,,,,,,,,,,,,,,,,,,,,,,,,,,,,,,,
,,"[""period""]",0,[0.7197000000476805],86,0,86,0,1,5ee43a8e2ec5ba13df088f5e,45,Mężczyzna,2022-05-28_09h20.51.243,task,2021.1.4,Win32,60.16847172,628b806c463b948bc644b84f,6291cce7bf88a1be90e21286,,,,,,,,,,,,,,,,,,,,,,,,,,,,,,,,,,,,,,,,,,,,,,,,,,,,,,,,,,,,,,,,,,,,,,,,,,,,,,,,,,,,,,,,,,,,,,,,,,,,,,,
,,,0,,87,0,87,0,1,5ee43a8e2ec5ba13df088f5e,45,Mężczyzna,2022-05-28_09h20.51.243,task,2021.1.4,Win32,60.16847172,628b806c463b948bc644b84f,6291cce7bf88a1be90e21286,,,,,,,,,,,,,,,,,,,,,,,,,,,,,,,,,,,,,,,,,,,,,,,,,,,,,,,,,,,,,,,,,,,,,,,,,,,,,,,,,,,,,,,,,,,,,,,,,,,,,,,
,,"[""comma""]",0,[0.26839999985691065],88,0,88,0,1,5ee43a8e2ec5ba13df088f5e,45,Mężczyzna,2022-05-28_09h20.51.243,task,2021.1.4,Win32,60.16847172,628b806c463b948bc644b84f,6291cce7bf88a1be90e21286,,,,,,,,,,,,,,,,,,,,,,,,,,,,,,,,,,,,,,,,,,,,,,,,,,,,,,,,,,,,,,,,,,,,,,,,,,,,,,,,,,,,,,,,,,,,,,,,,,,,,,,
,,"[""period"",""period""]",0,"[0.5693999998569552,1.603399999856947]",89,0,89,0,1,5ee43a8e2ec5ba13df088f5e,45,Mężczyzna,2022-05-28_09h20.51.243,task,2021.1.4,Win32,60.16847172,628b806c463b948bc644b84f,6291cce7bf88a1be90e21286,,,,,,,,,,,,,,,,,,,,,,,,,,,,,,,,,,,,,,,,,,,,,,,,,,,,,,,,,,,,,,,,,,,,,,,,,,,,,,,,,,,,,,,,,,,,,,,,,,,,,,,
,,,0,,90,0,90,0,1,5ee43a8e2ec5ba13df088f5e,45,Mężczyzna,2022-05-28_09h20.51.243,task,2021.1.4,Win32,60.16847172,628b806c463b948bc644b84f,6291cce7bf88a1be90e21286,,,,,,,,,,,,,,,,,,,,,,,,,,,,,,,,,,,,,,,,,,,,,,,,,,,,,,,,,,,,,,,,,,,,,,,,,,,,,,,,,,,,,,,,,,,,,,,,,,,,,,,
,,"[""comma""]",0,[0.30359999990463393],91,0,91,0,1,5ee43a8e2ec5ba13df088f5e,45,Mężczyzna,2022-05-28_09h20.51.243,task,2021.1.4,Win32,60.16847172,628b806c463b948bc644b84f,6291cce7bf88a1be90e21286,,,,,,,,,,,,,,,,,,,,,,,,,,,,,,,,,,,,,,,,,,,,,,,,,,,,,,,,,,,,,,,,,,,,,,,,,,,,,,,,,,,,,,,,,,,,,,,,,,,,,,,
,,"[""period""]",0,[0.3041000001430234],92,0,92,0,1,5ee43a8e2ec5ba13df088f5e,45,Mężczyzna,2022-05-28_09h20.51.243,task,2021.1.4,Win32,60.16847172,628b806c463b948bc644b84f,6291cce7bf88a1be90e21286,,,,,,,,,,,,,,,,,,,,,,,,,,,,,,,,,,,,,,,,,,,,,,,,,,,,,,,,,,,,,,,,,,,,,,,,,,,,,,,,,,,,,,,,,,,,,,,,,,,,,,,
,,"[""comma""]",0,[0.4217999999523272],93,0,93,0,1,5ee43a8e2ec5ba13df088f5e,45,Mężczyzna,2022-05-28_09h20.51.243,task,2021.1.4,Win32,60.16847172,628b806c463b948bc644b84f,6291cce7bf88a1be90e21286,,,,,,,,,,,,,,,,,,,,,,,,,,,,,,,,,,,,,,,,,,,,,,,,,,,,,,,,,,,,,,,,,,,,,,,,,,,,,,,,,,,,,,,,,,,,,,,,,,,,,,,
,,"[""period""]",0,[0.3155999999046344],94,0,94,0,1,5ee43a8e2ec5ba13df088f5e,45,Mężczyzna,2022-05-28_09h20.51.243,task,2021.1.4,Win32,60.16847172,628b806c463b948bc644b84f,6291cce7bf88a1be90e21286,,,,,,,,,,,,,,,,,,,,,,,,,,,,,,,,,,,,,,,,,,,,,,,,,,,,,,,,,,,,,,,,,,,,,,,,,,,,,,,,,,,,,,,,,,,,,,,,,,,,,,,
,,"[""comma""]",0,[0.4160999999046453],95,0,95,0,1,5ee43a8e2ec5ba13df088f5e,45,Mężczyzna,2022-05-28_09h20.51.243,task,2021.1.4,Win32,60.16847172,628b806c463b948bc644b84f,6291cce7bf88a1be90e21286,,,,,,,,,,,,,,,,,,,,,,,,,,,,,,,,,,,,,,,,,,,,,,,,,,,,,,,,,,,,,,,,,,,,,,,,,,,,,,,,,,,,,,,,,,,,,,,,,,,,,,,
,,"[""period"",""period""]",0,"[0.16489999985697068,0.2668999998569461]",96,0,96,0,1,5ee43a8e2ec5ba13df088f5e,45,Mężczyzna,2022-05-28_09h20.51.243,task,2021.1.4,Win32,60.16847172,628b806c463b948bc644b84f,6291cce7bf88a1be90e21286,,,,,,,,,,,,,,,,,,,,,,,,,,,,,,,,,,,,,,,,,,,,,,,,,,,,,,,,,,,,,,,,,,,,,,,,,,,,,,,,,,,,,,,,,,,,,,,,,,,,,,,
,,"[""comma""]",0,[0.6582999999523054],97,0,97,0,1,5ee43a8e2ec5ba13df088f5e,45,Mężczyzna,2022-05-28_09h20.51.243,task,2021.1.4,Win32,60.16847172,628b806c463b948bc644b84f,6291cce7bf88a1be90e21286,,,,,,,,,,,,,,,,,,,,,,,,,,,,,,,,,,,,,,,,,,,,,,,,,,,,,,,,,,,,,,,,,,,,,,,,,,,,,,,,,,,,,,,,,,,,,,,,,,,,,,,
,,"[""comma""]",0,[0.5035999999046226],98,0,98,0,1,5ee43a8e2ec5ba13df088f5e,45,Mężczyzna,2022-05-28_09h20.51.243,task,2021.1.4,Win32,60.16847172,628b806c463b948bc644b84f,6291cce7bf88a1be90e21286,,,,,,,,,,,,,,,,,,,,,,,,,,,,,,,,,,,,,,,,,,,,,,,,,,,,,,,,,,,,,,,,,,,,,,,,,,,,,,,,,,,,,,,,,,,,,,,,,,,,,,,
,,"[""comma""]",0,[0.6352000000476892],99,0,99,0,1,5ee43a8e2ec5ba13df088f5e,45,Mężczyzna,2022-05-28_09h20.51.243,task,2021.1.4,Win32,60.16847172,628b806c463b948bc644b84f,6291cce7bf88a1be90e21286,,,,,,,,,,,,,,,,,,,,,,,,,,,,,,,,,,,,,,,,,,,,,,,,,,,,,,,,,,,,,,,,,,,,,,,,,,,,,,,,,,,,,,,,,,,,,,,,,,,,,,,
,,"[""period""]",0,[0.06159999990461529],100,0,100,0,1,5ee43a8e2ec5ba13df088f5e,45,Mężczyzna,2022-05-28_09h20.51.243,task,2021.1.4,Win32,60.16847172,628b806c463b948bc644b84f,6291cce7bf88a1be90e21286,,,,,,,,,,,,,,,,,,,,,,,,,,,,,,,,,,,,,,,,,,,,,,,,,,,,,,,,,,,,,,,,,,,,,,,,,,,,,,,,,,,,,,,,,,,,,,,,,,,,,,,
,,"[""period""]",0,[0.49109999990463393],101,0,101,0,1,5ee43a8e2ec5ba13df088f5e,45,Mężczyzna,2022-05-28_09h20.51.243,task,2021.1.4,Win32,60.16847172,628b806c463b948bc644b84f,6291cce7bf88a1be90e21286,,,,,,,,,,,,,,,,,,,,,,,,,,,,,,,,,,,,,,,,,,,,,,,,,,,,,,,,,,,,,,,,,,,,,,,,,,,,,,,,,,,,,,,,,,,,,,,,,,,,,,,
,,"[""period""]",0,[0.40439999985693476],102,0,102,0,1,5ee43a8e2ec5ba13df088f5e,45,Mężczyzna,2022-05-28_09h20.51.243,task,2021.1.4,Win32,60.16847172,628b806c463b948bc644b84f,6291cce7bf88a1be90e21286,,,,,,,,,,,,,,,,,,,,,,,,,,,,,,,,,,,,,,,,,,,,,,,,,,,,,,,,,,,,,,,,,,,,,,,,,,,,,,,,,,,,,,,,,,,,,,,,,,,,,,,
,,"[""comma""]",0,[0.56899999999996],103,0,103,0,1,5ee43a8e2ec5ba13df088f5e,45,Mężczyzna,2022-05-28_09h20.51.243,task,2021.1.4,Win32,60.16847172,628b806c463b948bc644b84f,6291cce7bf88a1be90e21286,,,,,,,,,,,,,,,,,,,,,,,,,,,,,,,,,,,,,,,,,,,,,,,,,,,,,,,,,,,,,,,,,,,,,,,,,,,,,,,,,,,,,,,,,,,,,,,,,,,,,,,
,,"[""comma""]",0,[0.6923999998569457],104,0,104,0,1,5ee43a8e2ec5ba13df088f5e,45,Mężczyzna,2022-05-28_09h20.51.243,task,2021.1.4,Win32,60.16847172,628b806c463b948bc644b84f,6291cce7bf88a1be90e21286,,,,,,,,,,,,,,,,,,,,,,,,,,,,,,,,,,,,,,,,,,,,,,,,,,,,,,,,,,,,,,,,,,,,,,,,,,,,,,,,,,,,,,,,,,,,,,,,,,,,,,,
,,"[""comma""]",0,[0.7497000000476532],105,0,105,0,1,5ee43a8e2ec5ba13df088f5e,45,Mężczyzna,2022-05-28_09h20.51.243,task,2021.1.4,Win32,60.16847172,628b806c463b948bc644b84f,6291cce7bf88a1be90e21286,,,,,,,,,,,,,,,,,,,,,,,,,,,,,,,,,,,,,,,,,,,,,,,,,,,,,,,,,,,,,,,,,,,,,,,,,,,,,,,,,,,,,,,,,,,,,,,,,,,,,,,
,,"[""period""]",0,[0.599899999856973],106,0,106,0,1,5ee43a8e2ec5ba13df088f5e,45,Mężczyzna,2022-05-28_09h20.51.243,task,2021.1.4,Win32,60.16847172,628b806c463b948bc644b84f,6291cce7bf88a1be90e21286,,,,,,,,,,,,,,,,,,,,,,,,,,,,,,,,,,,,,,,,,,,,,,,,,,,,,,,,,,,,,,,,,,,,,,,,,,,,,,,,,,,,,,,,,,,,,,,,,,,,,,,
,,"[""comma""]",0,[0.6352000000476892],107,0,107,0,1,5ee43a8e2ec5ba13df088f5e,45,Mężczyzna,2022-05-28_09h20.51.243,task,2021.1.4,Win32,60.16847172,628b806c463b948bc644b84f,6291cce7bf88a1be90e21286,,,,,,,,,,,,,,,,,,,,,,,,,,,,,,,,,,,,,,,,,,,,,,,,,,,,,,,,,,,,,,,,,,,,,,,,,,,,,,,,,,,,,,,,,,,,,,,,,,,,,,,
,,"[""period""]",0,[0.8247999999522904],108,0,108,0,1,5ee43a8e2ec5ba13df088f5e,45,Mężczyzna,2022-05-28_09h20.51.243,task,2021.1.4,Win32,60.16847172,628b806c463b948bc644b84f,6291cce7bf88a1be90e21286,,,,,,,,,,,,,,,,,,,,,,,,,,,,,,,,,,,,,,,,,,,,,,,,,,,,,,,,,,,,,,,,,,,,,,,,,,,,,,,,,,,,,,,,,,,,,,,,,,,,,,,
,,"[""comma""]",0,[0.7007000000476751],109,0,109,0,1,5ee43a8e2ec5ba13df088f5e,45,Mężczyzna,2022-05-28_09h20.51.243,task,2021.1.4,Win32,60.16847172,628b806c463b948bc644b84f,6291cce7bf88a1be90e21286,,,,,,,,,,,,,,,,,,,,,,,,,,,,,,,,,,,,,,,,,,,,,,,,,,,,,,,,,,,,,,,,,,,,,,,,,,,,,,,,,,,,,,,,,,,,,,,,,,,,,,,
,,"[""period""]",0,[0.5135000000000218],110,0,110,0,1,5ee43a8e2ec5ba13df088f5e,45,Mężczyzna,2022-05-28_09h20.51.243,task,2021.1.4,Win32,60.16847172,628b806c463b948bc644b84f,6291cce7bf88a1be90e21286,,,,,,,,,,,,,,,,,,,,,,,,,,,,,,,,,,,,,,,,,,,,,,,,,,,,,,,,,,,,,,,,,,,,,,,,,,,,,,,,,,,,,,,,,,,,,,,,,,,,,,,
,,"[""comma""]",0,[0.4872000000476646],111,0,111,0,1,5ee43a8e2ec5ba13df088f5e,45,Mężczyzna,2022-05-28_09h20.51.243,task,2021.1.4,Win32,60.16847172,628b806c463b948bc644b84f,6291cce7bf88a1be90e21286,,,,,,,,,,,,,,,,,,,,,,,,,,,,,,,,,,,,,,,,,,,,,,,,,,,,,,,,,,,,,,,,,,,,,,,,,,,,,,,,,,,,,,,,,,,,,,,,,,,,,,,
,,"[""period""]",0,[0.3952000000476801],112,0,112,0,1,5ee43a8e2ec5ba13df088f5e,45,Mężczyzna,2022-05-28_09h20.51.243,task,2021.1.4,Win32,60.16847172,628b806c463b948bc644b84f,6291cce7bf88a1be90e21286,,,,,,,,,,,,,,,,,,,,,,,,,,,,,,,,,,,,,,,,,,,,,,,,,,,,,,,,,,,,,,,,,,,,,,,,,,,,,,,,,,,,,,,,,,,,,,,,,,,,,,,
,,"[""comma""]",0,[0.3667000000476719],113,0,113,0,1,5ee43a8e2ec5ba13df088f5e,45,Mężczyzna,2022-05-28_09h20.51.243,task,2021.1.4,Win32,60.16847172,628b806c463b948bc644b84f,6291cce7bf88a1be90e21286,,,,,,,,,,,,,,,,,,,,,,,,,,,,,,,,,,,,,,,,,,,,,,,,,,,,,,,,,,,,,,,,,,,,,,,,,,,,,,,,,,,,,,,,,,,,,,,,,,,,,,,
,,"[""comma""]",0,[0.3194000000953565],114,0,114,0,1,5ee43a8e2ec5ba13df088f5e,45,Mężczyzna,2022-05-28_09h20.51.243,task,2021.1.4,Win32,60.16847172,628b806c463b948bc644b84f,6291cce7bf88a1be90e21286,,,,,,,,,,,,,,,,,,,,,,,,,,,,,,,,,,,,,,,,,,,,,,,,,,,,,,,,,,,,,,,,,,,,,,,,,,,,,,,,,,,,,,,,,,,,,,,,,,,,,,,
,,"[""comma""]",0,[0.30759999990465303],115,0,115,0,1,5ee43a8e2ec5ba13df088f5e,45,Mężczyzna,2022-05-28_09h20.51.243,task,2021.1.4,Win32,60.16847172,628b806c463b948bc644b84f,6291cce7bf88a1be90e21286,,,,,,,,,,,,,,,,,,,,,,,,,,,,,,,,,,,,,,,,,,,,,,,,,,,,,,,,,,,,,,,,,,,,,,,,,,,,,,,,,,,,,,,,,,,,,,,,,,,,,,,
,,"[""period""]",0,[0.28329999995230537],116,0,116,0,1,5ee43a8e2ec5ba13df088f5e,45,Mężczyzna,2022-05-28_09h20.51.243,task,2021.1.4,Win32,60.16847172,628b806c463b948bc644b84f,6291cce7bf88a1be90e21286,,,,,,,,,,,,,,,,,,,,,,,,,,,,,,,,,,,,,,,,,,,,,,,,,,,,,,,,,,,,,,,,,,,,,,,,,,,,,,,,,,,,,,,,,,,,,,,,,,,,,,,
,,"[""period""]",0,[0.37740000009534924],117,0,117,0,1,5ee43a8e2ec5ba13df088f5e,45,Mężczyzna,2022-05-28_09h20.51.243,task,2021.1.4,Win32,60.16847172,628b806c463b948bc644b84f,6291cce7bf88a1be90e21286,,,,,,,,,,,,,,,,,,,,,,,,,,,,,,,,,,,,,,,,,,,,,,,,,,,,,,,,,,,,,,,,,,,,,,,,,,,,,,,,,,,,,,,,,,,,,,,,,,,,,,,
,,"[""period""]",0,[0.30620000004768144],118,0,118,0,1,5ee43a8e2ec5ba13df088f5e,45,Mężczyzna,2022-05-28_09h20.51.243,task,2021.1.4,Win32,60.16847172,628b806c463b948bc644b84f,6291cce7bf88a1be90e21286,,,,,,,,,,,,,,,,,,,,,,,,,,,,,,,,,,,,,,,,,,,,,,,,,,,,,,,,,,,,,,,,,,,,,,,,,,,,,,,,,,,,,,,,,,,,,,,,,,,,,,,
,,"[""period""]",0,[0.38260000014315665],119,0,119,0,1,5ee43a8e2ec5ba13df088f5e,45,Mężczyzna,2022-05-28_09h20.51.243,task,2021.1.4,Win32,60.16847172,628b806c463b948bc644b84f,6291cce7bf88a1be90e21286,,,,,,,,,,,,,,,,,,,,,,,,,,,,,,,,,,,,,,,,,,,,,,,,,,,,,,,,,,,,,,,,,,,,,,,,,,,,,,,,,,,,,,,,,,,,,,,,,,,,,,,
,,,,,,,,,,5ee43a8e2ec5ba13df088f5e,45,Mężczyzna,2022-05-28_09h20.51.243,task,2021.1.4,Win32,60.16847172,628b806c463b948bc644b84f,6291cce7bf88a1be90e21286,space,52.984,space,13.767,0,0,0,0,1,"X V Q F H G B L J M P D K C T S W R N Z
",,,,,,,,,,,,,,,,,,,,,,,,,,,,,,,,,,,,,,,,,,,,,,,,,,,,,,,,,,,,,,,,,,,,,,,,,,,,,,,,,,,,,,,,,,,,,
,,,,,,,,,,5ee43a8e2ec5ba13df088f5e,45,Mężczyzna,2022-05-28_09h20.51.243,task,2021.1.4,Win32,60.16847172,628b806c463b948bc644b84f,6291cce7bf88a1be90e21286,,,,,1,0,1,0,1,"X V Q F H G B L J M P D K C T S W R N Z
",,,,,,,,,,,,,,,,,,,,,,,,,,,,,,,,,,,,,,,,,,,,,,,,,,,,,,,,,,,,,,,,,,,,,,,,,,,,,,,,,,,,,,,,,,,,,
,,,,,,,,,,5ee43a8e2ec5ba13df088f5e,45,Mężczyzna,2022-05-28_09h20.51.243,task,2021.1.4,Win32,60.16847172,628b806c463b948bc644b84f,6291cce7bf88a1be90e21286,,,,,,,,,,,zc,"[""z"",""c""]","[4.443899999856853,5.043399999856888,6.992199999809259]",1,ZC,0,0,0,0,1,,,,,,,,,,,,,,,,,,,,,,,,,,,,,,,,,,,,,,,,,,,,,,,,,,,,,,,,,,,,,,,,,,,,,,,,,,,,,,,,,,,
,,,,,,,,,,5ee43a8e2ec5ba13df088f5e,45,Mężczyzna,2022-05-28_09h20.51.243,task,2021.1.4,Win32,60.16847172,628b806c463b948bc644b84f,6291cce7bf88a1be90e21286,,,,,0,0,0,0,1,"X V Q F H G B L J M P D K C T S W R N Z
",,,,,,,,,,,,,,,,,,,,,,,,,,,,,,,,,,,,,,,,,,,,,,,,,,,,,,,,,,,,,,,,,,,,,,,,,,,,,,,,,,,,,,,,,,,,,
,,,,,,,,,,5ee43a8e2ec5ba13df088f5e,45,Mężczyzna,2022-05-28_09h20.51.243,task,2021.1.4,Win32,60.16847172,628b806c463b948bc644b84f,6291cce7bf88a1be90e21286,,,,,1,0,1,0,1,"X V Q F H G B L J M P D K C T S W R N Z
",,,,,,,,,,,,,,,,,,,,,,,,,,,,,,,,,,,,,,,,,,,,,,,,,,,,,,,,,,,,,,,,,,,,,,,,,,,,,,,,,,,,,,,,,,,,,
,,,,,,,,,,5ee43a8e2ec5ba13df088f5e,45,Mężczyzna,2022-05-28_09h20.51.243,task,2021.1.4,Win32,60.16847172,628b806c463b948bc644b84f,6291cce7bf88a1be90e21286,,,,,,,,,,,fn,"[""f"",""n""]","[1.8942999999522954,2.578200000047673,4.529700000047683]",1,FN,1,0,1,0,1,,,,,,,,,,,,,,,,,,,,,,,,,,,,,,,,,,,,,,,,,,,,,,,,,,,,,,,,,,,,,,,,,,,,,,,,,,,,,,,,,,,
,,,,,,,,,,5ee43a8e2ec5ba13df088f5e,45,Mężczyzna,2022-05-28_09h20.51.243,task,2021.1.4,Win32,60.16847172,628b806c463b948bc644b84f,6291cce7bf88a1be90e21286,,,,,0,0,0,0,1,"X V Q F H G B L J M P D K C T S W R N Z
",,,,,,,,,,,,,,,,,,,,,,,,,,,,,,,,,,,,,,,,,,,,,,,,,,,,,,,,,,,,,,,,,,,,,,,,,,,,,,,,,,,,,,,,,,,,,
,,,,,,,,,,5ee43a8e2ec5ba13df088f5e,45,Mężczyzna,2022-05-28_09h20.51.243,task,2021.1.4,Win32,60.16847172,628b806c463b948bc644b84f,6291cce7bf88a1be90e21286,,,,,1,0,1,0,1,"X V Q F H G B L J M P D K C T S W R N Z
",,,,,,,,,,,,,,,,,,,,,,,,,,,,,,,,,,,,,,,,,,,,,,,,,,,,,,,,,,,,,,,,,,,,,,,,,,,,,,,,,,,,,,,,,,,,,
,,,,,,,,,,5ee43a8e2ec5ba13df088f5e,45,Mężczyzna,2022-05-28_09h20.51.243,task,2021.1.4,Win32,60.16847172,628b806c463b948bc644b84f,6291cce7bf88a1be90e21286,,,,,2,0,2,0,1,"X V Q F H G B L J M P D K C T S W R N Z
",,,,,,,,,,,,,,,,,,,,,,,,,,,,,,,,,,,,,,,,,,,,,,,,,,,,,,,,,,,,,,,,,,,,,,,,,,,,,,,,,,,,,,,,,,,,,
,,,,,,,,,,5ee43a8e2ec5ba13df088f5e,45,Mężczyzna,2022-05-28_09h20.51.243,task,2021.1.4,Win32,60.16847172,628b806c463b948bc644b84f,6291cce7bf88a1be90e21286,,,,,,,,,,,qmn,"[""q"",""m"",""n""]","[1.6232000000476319,2.326000000000022,2.770999999999958,3.5617999999523136]",1,QMN,2,0,2,0,1,,,,,,,,,,,,,,,,,,,,,,,,,,,,,,,,,,,,,,,,,,,,,,,,,,,,,,,,,,,,,,,,,,,,,,,,,,,,,,,,,,,
,,,,,,,,,,5ee43a8e2ec5ba13df088f5e,45,Mężczyzna,2022-05-28_09h20.51.243,task,2021.1.4,Win32,60.16847172,628b806c463b948bc644b84f,6291cce7bf88a1be90e21286,,,,,0,0,0,0,1,"X V Q F H G B L J M P D K C T S W R N Z
",,,,,,,,,,,,,,,,,,,,,,,,,,,,,,,,,,,,,,,,,,,,,,,,,,,,,,,,,,,,,,,,,,,,,,,,,,,,,,,,,,,,,,,,,,,,,
,,,,,,,,,,5ee43a8e2ec5ba13df088f5e,45,Mężczyzna,2022-05-28_09h20.51.243,task,2021.1.4,Win32,60.16847172,628b806c463b948bc644b84f,6291cce7bf88a1be90e21286,,,,,1,0,1,0,1,"X V Q F H G B L J M P D K C T S W R N Z
",,,,,,,,,,,,,,,,,,,,,,,,,,,,,,,,,,,,,,,,,,,,,,,,,,,,,,,,,,,,,,,,,,,,,,,,,,,,,,,,,,,,,,,,,,,,,
,,,,,,,,,,5ee43a8e2ec5ba13df088f5e,45,Mężczyzna,2022-05-28_09h20.51.243,task,2021.1.4,Win32,60.16847172,628b806c463b948bc644b84f,6291cce7bf88a1be90e21286,,,,,2,0,2,0,1,"X V Q F H G B L J M P D K C T S W R N Z
",,,,,,,,,,,,,,,,,,,,,,,,,,,,,,,,,,,,,,,,,,,,,,,,,,,,,,,,,,,,,,,,,,,,,,,,,,,,,,,,,,,,,,,,,,,,,
,,,,,,,,,,5ee43a8e2ec5ba13df088f5e,45,Mężczyzna,2022-05-28_09h20.51.243,task,2021.1.4,Win32,60.16847172,628b806c463b948bc644b84f,6291cce7bf88a1be90e21286,,,,,,,,,,,qlq,"[""q"",""l"",""q""]","[1.7685000000000173,2.4344000000953656,3.0187000000477155,3.8180000000000973]",1,QLQ,3,0,3,0,1,,,,,,,,,,,,,,,,,,,,,,,,,,,,,,,,,,,,,,,,,,,,,,,,,,,,,,,,,,,,,,,,,,,,,,,,,,,,,,,,,,,
,,,,,,,,,,5ee43a8e2ec5ba13df088f5e,45,Mężczyzna,2022-05-28_09h20.51.243,task,2021.1.4,Win32,60.16847172,628b806c463b948bc644b84f,6291cce7bf88a1be90e21286,,,,,0,0,0,0,1,"X V Q F H G B L J M P D K C T S W R N Z
",,,,,,,,,,,,,,,,,,,,,,,,,,,,,,,,,,,,,,,,,,,,,,,,,,,,,,,,,,,,,,,,,,,,,,,,,,,,,,,,,,,,,,,,,,,,,
,,,,,,,,,,5ee43a8e2ec5ba13df088f5e,45,Mężczyzna,2022-05-28_09h20.51.243,task,2021.1.4,Win32,60.16847172,628b806c463b948bc644b84f,6291cce7bf88a1be90e21286,,,,,1,0,1,0,1,"X V Q F H G B L J M P D K C T S W R N Z
",,,,,,,,,,,,,,,,,,,,,,,,,,,,,,,,,,,,,,,,,,,,,,,,,,,,,,,,,,,,,,,,,,,,,,,,,,,,,,,,,,,,,,,,,,,,,
,,,,,,,,,,5ee43a8e2ec5ba13df088f5e,45,Mężczyzna,2022-05-28_09h20.51.243,task,2021.1.4,Win32,60.16847172,628b806c463b948bc644b84f,6291cce7bf88a1be90e21286,,,,,2,0,2,0,1,"X V Q F H G B L J M P D K C T S W R N Z
",,,,,,,,,,,,,,,,,,,,,,,,,,,,,,,,,,,,,,,,,,,,,,,,,,,,,,,,,,,,,,,,,,,,,,,,,,,,,,,,,,,,,,,,,,,,,
,,,,,,,,,,5ee43a8e2ec5ba13df088f5e,45,Mężczyzna,2022-05-28_09h20.51.243,task,2021.1.4,Win32,60.16847172,628b806c463b948bc644b84f,6291cce7bf88a1be90e21286,,,,,3,0,3,0,1,"X V Q F H G B L J M P D K C T S W R N Z
",,,,,,,,,,,,,,,,,,,,,,,,,,,,,,,,,,,,,,,,,,,,,,,,,,,,,,,,,,,,,,,,,,,,,,,,,,,,,,,,,,,,,,,,,,,,,
,,,,,,,,,,5ee43a8e2ec5ba13df088f5e,45,Mężczyzna,2022-05-28_09h20.51.243,task,2021.1.4,Win32,60.16847172,628b806c463b948bc644b84f,6291cce7bf88a1be90e21286,,,,,,,,,,,kndl,"[""k"",""n"",""d"",""l""]","[1.7023999998568797,2.1754999999999427,2.711999999999989,3.2140999999045334,4.720299999952317]",1,KNDL,4,0,4,0,1,,,,,,,,,,,,,,,,,,,,,,,,,,,,,,,,,,,,,,,,,,,,,,,,,,,,,,,,,,,,,,,,,,,,,,,,,,,,,,,,,,,
,,,,,,,,,,5ee43a8e2ec5ba13df088f5e,45,Mężczyzna,2022-05-28_09h20.51.243,task,2021.1.4,Win32,60.16847172,628b806c463b948bc644b84f,6291cce7bf88a1be90e21286,,,,,0,0,0,0,1,"X V Q F H G B L J M P D K C T S W R N Z
",,,,,,,,,,,,,,,,,,,,,,,,,,,,,,,,,,,,,,,,,,,,,,,,,,,,,,,,,,,,,,,,,,,,,,,,,,,,,,,,,,,,,,,,,,,,,
,,,,,,,,,,5ee43a8e2ec5ba13df088f5e,45,Mężczyzna,2022-05-28_09h20.51.243,task,2021.1.4,Win32,60.16847172,628b806c463b948bc644b84f,6291cce7bf88a1be90e21286,,,,,1,0,1,0,1,"X V Q F H G B L J M P D K C T S W R N Z
",,,,,,,,,,,,,,,,,,,,,,,,,,,,,,,,,,,,,,,,,,,,,,,,,,,,,,,,,,,,,,,,,,,,,,,,,,,,,,,,,,,,,,,,,,,,,
,,,,,,,,,,5ee43a8e2ec5ba13df088f5e,45,Mężczyzna,2022-05-28_09h20.51.243,task,2021.1.4,Win32,60.16847172,628b806c463b948bc644b84f,6291cce7bf88a1be90e21286,,,,,2,0,2,0,1,"X V Q F H G B L J M P D K C T S W R N Z
",,,,,,,,,,,,,,,,,,,,,,,,,,,,,,,,,,,,,,,,,,,,,,,,,,,,,,,,,,,,,,,,,,,,,,,,,,,,,,,,,,,,,,,,,,,,,
,,,,,,,,,,5ee43a8e2ec5ba13df088f5e,45,Mężczyzna,2022-05-28_09h20.51.243,task,2021.1.4,Win32,60.16847172,628b806c463b948bc644b84f,6291cce7bf88a1be90e21286,,,,,3,0,3,0,1,"X V Q F H G B L J M P D K C T S W R N Z
",,,,,,,,,,,,,,,,,,,,,,,,,,,,,,,,,,,,,,,,,,,,,,,,,,,,,,,,,,,,,,,,,,,,,,,,,,,,,,,,,,,,,,,,,,,,,
,,,,,,,,,,5ee43a8e2ec5ba13df088f5e,45,Mężczyzna,2022-05-28_09h20.51.243,task,2021.1.4,Win32,60.16847172,628b806c463b948bc644b84f,6291cce7bf88a1be90e21286,,,,,,,,,,,spzr,"[""s"",""p"",""z"",""r""]","[1.418400000095403,2.0529000000954056,2.5739999999999554,3.171000000000049,4.4972000000476555]",0,"SPZ
R",5,0,5,0,1,,,,,,,,,,,,,,,,,,,,,,,,,,,,,,,,,,,,,,,,,,,,,,,,,,,,,,,,,,,,,,,,,,,,,,,,,,,,,,,,,,,
,,,,,,,,,,5ee43a8e2ec5ba13df088f5e,45,Mężczyzna,2022-05-28_09h20.51.243,task,2021.1.4,Win32,60.16847172,628b806c463b948bc644b84f,6291cce7bf88a1be90e21286,,,,,0,0,0,0,1,"X V Q F H G B L J M P D K C T S W R N Z
",,,,,,,,,,,,,,,,,,,,,,,,,,,,,,,,,,,,,,,,,,,,,,,,,,,,,,,,,,,,,,,,,,,,,,,,,,,,,,,,,,,,,,,,,,,,,
,,,,,,,,,,5ee43a8e2ec5ba13df088f5e,45,Mężczyzna,2022-05-28_09h20.51.243,task,2021.1.4,Win32,60.16847172,628b806c463b948bc644b84f,6291cce7bf88a1be90e21286,,,,,1,0,1,0,1,"X V Q F H G B L J M P D K C T S W R N Z
",,,,,,,,,,,,,,,,,,,,,,,,,,,,,,,,,,,,,,,,,,,,,,,,,,,,,,,,,,,,,,,,,,,,,,,,,,,,,,,,,,,,,,,,,,,,,
,,,,,,,,,,5ee43a8e2ec5ba13df088f5e,45,Mężczyzna,2022-05-28_09h20.51.243,task,2021.1.4,Win32,60.16847172,628b806c463b948bc644b84f,6291cce7bf88a1be90e21286,,,,,2,0,2,0,1,"X V Q F H G B L J M P D K C T S W R N Z
",,,,,,,,,,,,,,,,,,,,,,,,,,,,,,,,,,,,,,,,,,,,,,,,,,,,,,,,,,,,,,,,,,,,,,,,,,,,,,,,,,,,,,,,,,,,,
,,,,,,,,,,5ee43a8e2ec5ba13df088f5e,45,Mężczyzna,2022-05-28_09h20.51.243,task,2021.1.4,Win32,60.16847172,628b806c463b948bc644b84f,6291cce7bf88a1be90e21286,,,,,3,0,3,0,1,"X V Q F H G B L J M P D K C T S W R N Z
",,,,,,,,,,,,,,,,,,,,,,,,,,,,,,,,,,,,,,,,,,,,,,,,,,,,,,,,,,,,,,,,,,,,,,,,,,,,,,,,,,,,,,,,,,,,,
,,,,,,,,,,5ee43a8e2ec5ba13df088f5e,45,Mężczyzna,2022-05-28_09h20.51.243,task,2021.1.4,Win32,60.16847172,628b806c463b948bc644b84f,6291cce7bf88a1be90e21286,,,,,,,,,,,sprq,"[""s"",""p"",""r"",""q""]","[1.1626000001430157,1.7421000001430684,2.29200000000003,2.785300000190773,3.3869999999999436]",1,SPRQ,6,0,6,0,1,,,,,,,,,,,,,,,,,,,,,,,,,,,,,,,,,,,,,,,,,,,,,,,,,,,,,,,,,,,,,,,,,,,,,,,,,,,,,,,,,,,
,,,,,,,,,,5ee43a8e2ec5ba13df088f5e,45,Mężczyzna,2022-05-28_09h20.51.243,task,2021.1.4,Win32,60.16847172,628b806c463b948bc644b84f,6291cce7bf88a1be90e21286,,,,,0,0,0,0,1,"X V Q F H G B L J M P D K C T S W R N Z
",,,,,,,,,,,,,,,,,,,,,,,,,,,,,,,,,,,,,,,,,,,,,,,,,,,,,,,,,,,,,,,,,,,,,,,,,,,,,,,,,,,,,,,,,,,,,
,,,,,,,,,,5ee43a8e2ec5ba13df088f5e,45,Mężczyzna,2022-05-28_09h20.51.243,task,2021.1.4,Win32,60.16847172,628b806c463b948bc644b84f,6291cce7bf88a1be90e21286,,,,,1,0,1,0,1,"X V Q F H G B L J M P D K C T S W R N Z
",,,,,,,,,,,,,,,,,,,,,,,,,,,,,,,,,,,,,,,,,,,,,,,,,,,,,,,,,,,,,,,,,,,,,,,,,,,,,,,,,,,,,,,,,,,,,
,,,,,,,,,,5ee43a8e2ec5ba13df088f5e,45,Mężczyzna,2022-05-28_09h20.51.243,task,2021.1.4,Win32,60.16847172,628b806c463b948bc644b84f,6291cce7bf88a1be90e21286,,,,,2,0,2,0,1,"X V Q F H G B L J M P D K C T S W R N Z
",,,,,,,,,,,,,,,,,,,,,,,,,,,,,,,,,,,,,,,,,,,,,,,,,,,,,,,,,,,,,,,,,,,,,,,,,,,,,,,,,,,,,,,,,,,,,
,,,,,,,,,,5ee43a8e2ec5ba13df088f5e,45,Mężczyzna,2022-05-28_09h20.51.243,task,2021.1.4,Win32,60.16847172,628b806c463b948bc644b84f,6291cce7bf88a1be90e21286,,,,,3,0,3,0,1,"X V Q F H G B L J M P D K C T S W R N Z
",,,,,,,,,,,,,,,,,,,,,,,,,,,,,,,,,,,,,,,,,,,,,,,,,,,,,,,,,,,,,,,,,,,,,,,,,,,,,,,,,,,,,,,,,,,,,
,,,,,,,,,,5ee43a8e2ec5ba13df088f5e,45,Mężczyzna,2022-05-28_09h20.51.243,task,2021.1.4,Win32,60.16847172,628b806c463b948bc644b84f,6291cce7bf88a1be90e21286,,,,,4,0,4,0,1,"X V Q F H G B L J M P D K C T S W R N Z
",,,,,,,,,,,,,,,,,,,,,,,,,,,,,,,,,,,,,,,,,,,,,,,,,,,,,,,,,,,,,,,,,,,,,,,,,,,,,,,,,,,,,,,,,,,,,
,,,,,,,,,,5ee43a8e2ec5ba13df088f5e,45,Mężczyzna,2022-05-28_09h20.51.243,task,2021.1.4,Win32,60.16847172,628b806c463b948bc644b84f,6291cce7bf88a1be90e21286,,,,,,,,,,,kwrss,"[""k"",""w"",""r"",""s"",""s""]","[1.8037999999522754,2.352799999952367,2.8759999999999764,3.476299999952289,3.961700000047699,4.976499999999987]",1,KWRSS,7,0,7,0,1,,,,,,,,,,,,,,,,,,,,,,,,,,,,,,,,,,,,,,,,,,,,,,,,,,,,,,,,,,,,,,,,,,,,,,,,,,,,,,,,,,,
,,,,,,,,,,5ee43a8e2ec5ba13df088f5e,45,Mężczyzna,2022-05-28_09h20.51.243,task,2021.1.4,Win32,60.16847172,628b806c463b948bc644b84f,6291cce7bf88a1be90e21286,,,,,0,0,0,0,1,"X V Q F H G B L J M P D K C T S W R N Z
",,,,,,,,,,,,,,,,,,,,,,,,,,,,,,,,,,,,,,,,,,,,,,,,,,,,,,,,,,,,,,,,,,,,,,,,,,,,,,,,,,,,,,,,,,,,,
,,,,,,,,,,5ee43a8e2ec5ba13df088f5e,45,Mężczyzna,2022-05-28_09h20.51.243,task,2021.1.4,Win32,60.16847172,628b806c463b948bc644b84f,6291cce7bf88a1be90e21286,,,,,1,0,1,0,1,"X V Q F H G B L J M P D K C T S W R N Z
",,,,,,,,,,,,,,,,,,,,,,,,,,,,,,,,,,,,,,,,,,,,,,,,,,,,,,,,,,,,,,,,,,,,,,,,,,,,,,,,,,,,,,,,,,,,,
,,,,,,,,,,5ee43a8e2ec5ba13df088f5e,45,Mężczyzna,2022-05-28_09h20.51.243,task,2021.1.4,Win32,60.16847172,628b806c463b948bc644b84f,6291cce7bf88a1be90e21286,,,,,2,0,2,0,1,"X V Q F H G B L J M P D K C T S W R N Z
",,,,,,,,,,,,,,,,,,,,,,,,,,,,,,,,,,,,,,,,,,,,,,,,,,,,,,,,,,,,,,,,,,,,,,,,,,,,,,,,,,,,,,,,,,,,,
,,,,,,,,,,5ee43a8e2ec5ba13df088f5e,45,Mężczyzna,2022-05-28_09h20.51.243,task,2021.1.4,Win32,60.16847172,628b806c463b948bc644b84f,6291cce7bf88a1be90e21286,,,,,3,0,3,0,1,"X V Q F H G B L J M P D K C T S W R N Z
",,,,,,,,,,,,,,,,,,,,,,,,,,,,,,,,,,,,,,,,,,,,,,,,,,,,,,,,,,,,,,,,,,,,,,,,,,,,,,,,,,,,,,,,,,,,,
,,,,,,,,,,5ee43a8e2ec5ba13df088f5e,45,Mężczyzna,2022-05-28_09h20.51.243,task,2021.1.4,Win32,60.16847172,628b806c463b948bc644b84f,6291cce7bf88a1be90e21286,,,,,4,0,4,0,1,"X V Q F H G B L J M P D K C T S W R N Z
",,,,,,,,,,,,,,,,,,,,,,,,,,,,,,,,,,,,,,,,,,,,,,,,,,,,,,,,,,,,,,,,,,,,,,,,,,,,,,,,,,,,,,,,,,,,,
,,,,,,,,,,5ee43a8e2ec5ba13df088f5e,45,Mężczyzna,2022-05-28_09h20.51.243,task,2021.1.4,Win32,60.16847172,628b806c463b948bc644b84f,6291cce7bf88a1be90e21286,,,,,,,,,,,rrwfd,"[""r"",""r"",""w"",""f"",""d""]","[1.0370999999046262,1.5010999999046817,2.1420999999046444,3.463000000000079,4.069399999856955,5.7687000000477155]",1,RRWFD,8,0,8,0,1,,,,,,,,,,,,,,,,,,,,,,,,,,,,,,,,,,,,,,,,,,,,,,,,,,,,,,,,,,,,,,,,,,,,,,,,,,,,,,,,,,,
,,,,,,,,,,5ee43a8e2ec5ba13df088f5e,45,Mężczyzna,2022-05-28_09h20.51.243,task,2021.1.4,Win32,60.16847172,628b806c463b948bc644b84f,6291cce7bf88a1be90e21286,,,,,0,0,0,0,1,"X V Q F H G B L J M P D K C T S W R N Z
",,,,,,,,,,,,,,,,,,,,,,,,,,,,,,,,,,,,,,,,,,,,,,,,,,,,,,,,,,,,,,,,,,,,,,,,,,,,,,,,,,,,,,,,,,,,,
,,,,,,,,,,5ee43a8e2ec5ba13df088f5e,45,Mężczyzna,2022-05-28_09h20.51.243,task,2021.1.4,Win32,60.16847172,628b806c463b948bc644b84f,6291cce7bf88a1be90e21286,,,,,1,0,1,0,1,"X V Q F H G B L J M P D K C T S W R N Z
",,,,,,,,,,,,,,,,,,,,,,,,,,,,,,,,,,,,,,,,,,,,,,,,,,,,,,,,,,,,,,,,,,,,,,,,,,,,,,,,,,,,,,,,,,,,,
,,,,,,,,,,5ee43a8e2ec5ba13df088f5e,45,Mężczyzna,2022-05-28_09h20.51.243,task,2021.1.4,Win32,60.16847172,628b806c463b948bc644b84f,6291cce7bf88a1be90e21286,,,,,2,0,2,0,1,"X V Q F H G B L J M P D K C T S W R N Z
",,,,,,,,,,,,,,,,,,,,,,,,,,,,,,,,,,,,,,,,,,,,,,,,,,,,,,,,,,,,,,,,,,,,,,,,,,,,,,,,,,,,,,,,,,,,,
,,,,,,,,,,5ee43a8e2ec5ba13df088f5e,45,Mężczyzna,2022-05-28_09h20.51.243,task,2021.1.4,Win32,60.16847172,628b806c463b948bc644b84f,6291cce7bf88a1be90e21286,,,,,3,0,3,0,1,"X V Q F H G B L J M P D K C T S W R N Z
",,,,,,,,,,,,,,,,,,,,,,,,,,,,,,,,,,,,,,,,,,,,,,,,,,,,,,,,,,,,,,,,,,,,,,,,,,,,,,,,,,,,,,,,,,,,,
,,,,,,,,,,5ee43a8e2ec5ba13df088f5e,45,Mężczyzna,2022-05-28_09h20.51.243,task,2021.1.4,Win32,60.16847172,628b806c463b948bc644b84f,6291cce7bf88a1be90e21286,,,,,4,0,4,0,1,"X V Q F H G B L J M P D K C T S W R N Z
",,,,,,,,,,,,,,,,,,,,,,,,,,,,,,,,,,,,,,,,,,,,,,,,,,,,,,,,,,,,,,,,,,,,,,,,,,,,,,,,,,,,,,,,,,,,,
,,,,,,,,,,5ee43a8e2ec5ba13df088f5e,45,Mężczyzna,2022-05-28_09h20.51.243,task,2021.1.4,Win32,60.16847172,628b806c463b948bc644b84f,6291cce7bf88a1be90e21286,,,,,5,0,5,0,1,"X V Q F H G B L J M P D K C T S W R N Z
",,,,,,,,,,,,,,,,,,,,,,,,,,,,,,,,,,,,,,,,,,,,,,,,,,,,,,,,,,,,,,,,,,,,,,,,,,,,,,,,,,,,,,,,,,,,,
,,,,,,,,,,5ee43a8e2ec5ba13df088f5e,45,Mężczyzna,2022-05-28_09h20.51.243,task,2021.1.4,Win32,60.16847172,628b806c463b948bc644b84f,6291cce7bf88a1be90e21286,,,,,,,,,,,pvfw,"[""p"",""v"",""f"",""w""]","[2.601900000095384,4.33760000014297,7.287400000095317,9.106999999999971,12.089600000143037]",0,PVBQPW,9,0,9,0,1,,,,,,,,,,,,,,,,,,,,,,,,,,,,,,,,,,,,,,,,,,,,,,,,,,,,,,,,,,,,,,,,,,,,,,,,,,,,,,,,,,,
,,,,,,,,,,5ee43a8e2ec5ba13df088f5e,45,Mężczyzna,2022-05-28_09h20.51.243,task,2021.1.4,Win32,60.16847172,628b806c463b948bc644b84f,6291cce7bf88a1be90e21286,,,,,0,0,0,0,1,"X V Q F H G B L J M P D K C T S W R N Z
",,,,,,,,,,,,,,,,,,,,,,,,,,,,,,,,,,,,,,,,,,,,,,,,,,,,,,,,,,,,,,,,,,,,,,,,,,,,,,,,,,,,,,,,,,,,,
,,,,,,,,,,5ee43a8e2ec5ba13df088f5e,45,Mężczyzna,2022-05-28_09h20.51.243,task,2021.1.4,Win32,60.16847172,628b806c463b948bc644b84f,6291cce7bf88a1be90e21286,,,,,1,0,1,0,1,"X V Q F H G B L J M P D K C T S W R N Z
",,,,,,,,,,,,,,,,,,,,,,,,,,,,,,,,,,,,,,,,,,,,,,,,,,,,,,,,,,,,,,,,,,,,,,,,,,,,,,,,,,,,,,,,,,,,,
,,,,,,,,,,5ee43a8e2ec5ba13df088f5e,45,Mężczyzna,2022-05-28_09h20.51.243,task,2021.1.4,Win32,60.16847172,628b806c463b948bc644b84f,6291cce7bf88a1be90e21286,,,,,2,0,2,0,1,"X V Q F H G B L J M P D K C T S W R N Z
",,,,,,,,,,,,,,,,,,,,,,,,,,,,,,,,,,,,,,,,,,,,,,,,,,,,,,,,,,,,,,,,,,,,,,,,,,,,,,,,,,,,,,,,,,,,,
,,,,,,,,,,5ee43a8e2ec5ba13df088f5e,45,Mężczyzna,2022-05-28_09h20.51.243,task,2021.1.4,Win32,60.16847172,628b806c463b948bc644b84f,6291cce7bf88a1be90e21286,,,,,3,0,3,0,1,"X V Q F H G B L J M P D K C T S W R N Z
",,,,,,,,,,,,,,,,,,,,,,,,,,,,,,,,,,,,,,,,,,,,,,,,,,,,,,,,,,,,,,,,,,,,,,,,,,,,,,,,,,,,,,,,,,,,,
,,,,,,,,,,5ee43a8e2ec5ba13df088f5e,45,Mężczyzna,2022-05-28_09h20.51.243,task,2021.1.4,Win32,60.16847172,628b806c463b948bc644b84f,6291cce7bf88a1be90e21286,,,,,4,0,4,0,1,"X V Q F H G B L J M P D K C T S W R N Z
",,,,,,,,,,,,,,,,,,,,,,,,,,,,,,,,,,,,,,,,,,,,,,,,,,,,,,,,,,,,,,,,,,,,,,,,,,,,,,,,,,,,,,,,,,,,,
,,,,,,,,,,5ee43a8e2ec5ba13df088f5e,45,Mężczyzna,2022-05-28_09h20.51.243,task,2021.1.4,Win32,60.16847172,628b806c463b948bc644b84f,6291cce7bf88a1be90e21286,,,,,5,0,5,0,1,"X V Q F H G B L J M P D K C T S W R N Z
",,,,,,,,,,,,,,,,,,,,,,,,,,,,,,,,,,,,,,,,,,,,,,,,,,,,,,,,,,,,,,,,,,,,,,,,,,,,,,,,,,,,,,,,,,,,,
,,,,,,,,,,5ee43a8e2ec5ba13df088f5e,45,Mężczyzna,2022-05-28_09h20.51.243,task,2021.1.4,Win32,60.16847172,628b806c463b948bc644b84f,6291cce7bf88a1be90e21286,,,,,,,,,,,xlbqf,"[""x"",""l"",""b"",""q"",""f""]","[1.0387999999524027,1.7270000000000891,3.5974000000953765,5.202400000095395,5.872000000000071,7.137799999952335]",0,"XLBQZ
H",10,0,10,0,1,,,,,,,,,,,,,,,,,,,,,,,,,,,,,,,,,,,,,,,,,,,,,,,,,,,,,,,,,,,,,,,,,,,,,,,,,,,,,,,,,,,
,,,,,,,,,,5ee43a8e2ec5ba13df088f5e,45,Mężczyzna,2022-05-28_09h20.51.243,task,2021.1.4,Win32,60.16847172,628b806c463b948bc644b84f,6291cce7bf88a1be90e21286,,,,,0,0,0,0,1,"X V Q F H G B L J M P D K C T S W R N Z
",,,,,,,,,,,,,,,,,,,,,,,,,,,,,,,,,,,,,,,,,,,,,,,,,,,,,,,,,,,,,,,,,,,,,,,,,,,,,,,,,,,,,,,,,,,,,
,,,,,,,,,,5ee43a8e2ec5ba13df088f5e,45,Mężczyzna,2022-05-28_09h20.51.243,task,2021.1.4,Win32,60.16847172,628b806c463b948bc644b84f,6291cce7bf88a1be90e21286,,,,,1,0,1,0,1,"X V Q F H G B L J M P D K C T S W R N Z
",,,,,,,,,,,,,,,,,,,,,,,,,,,,,,,,,,,,,,,,,,,,,,,,,,,,,,,,,,,,,,,,,,,,,,,,,,,,,,,,,,,,,,,,,,,,,
,,,,,,,,,,5ee43a8e2ec5ba13df088f5e,45,Mężczyzna,2022-05-28_09h20.51.243,task,2021.1.4,Win32,60.16847172,628b806c463b948bc644b84f,6291cce7bf88a1be90e21286,,,,,2,0,2,0,1,"X V Q F H G B L J M P D K C T S W R N Z
",,,,,,,,,,,,,,,,,,,,,,,,,,,,,,,,,,,,,,,,,,,,,,,,,,,,,,,,,,,,,,,,,,,,,,,,,,,,,,,,,,,,,,,,,,,,,
,,,,,,,,,,5ee43a8e2ec5ba13df088f5e,45,Mężczyzna,2022-05-28_09h20.51.243,task,2021.1.4,Win32,60.16847172,628b806c463b948bc644b84f,6291cce7bf88a1be90e21286,,,,,3,0,3,0,1,"X V Q F H G B L J M P D K C T S W R N Z
",,,,,,,,,,,,,,,,,,,,,,,,,,,,,,,,,,,,,,,,,,,,,,,,,,,,,,,,,,,,,,,,,,,,,,,,,,,,,,,,,,,,,,,,,,,,,
,,,,,,,,,,5ee43a8e2ec5ba13df088f5e,45,Mężczyzna,2022-05-28_09h20.51.243,task,2021.1.4,Win32,60.16847172,628b806c463b948bc644b84f,6291cce7bf88a1be90e21286,,,,,4,0,4,0,1,"X V Q F H G B L J M P D K C T S W R N Z
",,,,,,,,,,,,,,,,,,,,,,,,,,,,,,,,,,,,,,,,,,,,,,,,,,,,,,,,,,,,,,,,,,,,,,,,,,,,,,,,,,,,,,,,,,,,,
,,,,,,,,,,5ee43a8e2ec5ba13df088f5e,45,Mężczyzna,2022-05-28_09h20.51.243,task,2021.1.4,Win32,60.16847172,628b806c463b948bc644b84f,6291cce7bf88a1be90e21286,,,,,5,0,5,0,1,"X V Q F H G B L J M P D K C T S W R N Z
",,,,,,,,,,,,,,,,,,,,,,,,,,,,,,,,,,,,,,,,,,,,,,,,,,,,,,,,,,,,,,,,,,,,,,,,,,,,,,,,,,,,,,,,,,,,,
,,,,,,,,,,5ee43a8e2ec5ba13df088f5e,45,Mężczyzna,2022-05-28_09h20.51.243,task,2021.1.4,Win32,60.16847172,628b806c463b948bc644b84f,6291cce7bf88a1be90e21286,,,,,,,,,,,fvwps,"[""f"",""v"",""w"",""p"",""s""]","[4.781399999856944,5.755299999952285,11.469399999856932,12.523399999856906,13.406500000000051,14.755099999904587]",0,FVWPSK,11,0,11,0,1,,,,,,,,,,,,,,,,,,,,,,,,,,,,,,,,,,,,,,,,,,,,,,,,,,,,,,,,,,,,,,,,,,,,,,,,,,,,,,,,,,,
,,,,,,,,,,5ee43a8e2ec5ba13df088f5e,45,Mężczyzna,2022-05-28_09h20.51.243,task,2021.1.4,Win32,60.16847172,628b806c463b948bc644b84f,6291cce7bf88a1be90e21286,,,,,,,,,,,,,,,,,,,,,space,28.2458,4,"[""4""]",1,[7.539899999856971],[7.539899999856971],0,0,0,4,1,Practice,5,(2x6) - 8,4,,,,,,,,,,,,,,,,,,,,,,,,,,,,,,,,,,,,,,,,,,,,,,,,,,,,,,,,,,,,,,,,,,,
,,,,,,,,,,5ee43a8e2ec5ba13df088f5e,45,Mężczyzna,2022-05-28_09h20.51.243,task,2021.1.4,Win32,60.16847172,628b806c463b948bc644b84f,6291cce7bf88a1be90e21286,,,,,,,,,,,,,,,,,,,,,,,9,"[""9""]",1,[4.1397000000476964],"[7.539899999856971,4.1397000000476964]",0,1,1,9,1,Practice,10,(20/2) - 1,9,,,,,,,,,,,,,,,,,,,,,,,,,,,,,,,,,,,,,,,,,,,,,,,,,,,,,,,,,,,,,,,,,,,
,,,,,,,,,,5ee43a8e2ec5ba13df088f5e,45,Mężczyzna,2022-05-28_09h20.51.243,task,2021.1.4,Win32,60.16847172,628b806c463b948bc644b84f,6291cce7bf88a1be90e21286,,,,,,,,,,,,,,,,,,,,,,,0,"[""0""]",1,[2.8869999999999436],"[7.539899999856971,4.1397000000476964,2.8869999999999436]",0,2,2,0,1,Practice,1,(3x3) -  9,0,,,,,,,,,,,,,,,,,,,,,,,,,,,,,,,,,,,,,,,,,,,,,,,,,,,,,,,,,,,,,,,,,,,
,,,,,,,,,,5ee43a8e2ec5ba13df088f5e,45,Mężczyzna,2022-05-28_09h20.51.243,task,2021.1.4,Win32,60.16847172,628b806c463b948bc644b84f,6291cce7bf88a1be90e21286,,,,,,,,,,,,,,,,,,,,,,,3,"[""3""]",0,[11.250500000000102],"[7.539899999856971,4.1397000000476964,2.8869999999999436,11.250500000000102]",0,3,3,7,1,Practice,8,(5x5) - 18,7,,,,,,,,,,,,,,,,,,,,,,,,,,,,,,,,,,,,,,,,,,,,,,,,,,,,,,,,,,,,,,,,,,,
,,,,,,,,,,5ee43a8e2ec5ba13df088f5e,45,Mężczyzna,2022-05-28_09h20.51.243,task,2021.1.4,Win32,60.16847172,628b806c463b948bc644b84f,6291cce7bf88a1be90e21286,,,,,,,,,,,,,,,,,,,,,,,1,"[""1""]",0,[8.137599999904637],"[7.539899999856971,4.1397000000476964,2.8869999999999436,11.250500000000102,8.137599999904637]",0,4,4,2,1,Practice,3,(4x4) - 14,2,,,,,,,,,,,,,,,,,,,,,,,,,,,,,,,,,,,,,,,,,,,,,,,,,,,,,,,,,,,,,,,,,,,
,,,,,,,,,,5ee43a8e2ec5ba13df088f5e,45,Mężczyzna,2022-05-28_09h20.51.243,task,2021.1.4,Win32,60.16847172,628b806c463b948bc644b84f,6291cce7bf88a1be90e21286,,,,,,,,,,,,,,,,,,,,,,,5,"[""5""]",1,[3.7812999999523527],"[7.539899999856971,4.1397000000476964,2.8869999999999436,11.250500000000102,8.137599999904637,3.7812999999523527]",0,5,5,5,1,Practice,6,(4/2) + 3,5,,,,,,,,,,,,,,,,,,,,,,,,,,,,,,,,,,,,,,,,,,,,,,,,,,,,,,,,,,,,,,,,,,,
,,,,,,,,,,5ee43a8e2ec5ba13df088f5e,45,Mężczyzna,2022-05-28_09h20.51.243,task,2021.1.4,Win32,60.16847172,628b806c463b948bc644b84f,6291cce7bf88a1be90e21286,,,,,,,,,,,,,,,,,,,,,,,3,"[""3""]",1,[3.4463999998570216],"[7.539899999856971,4.1397000000476964,2.8869999999999436,11.250500000000102,8.137599999904637,3.7812999999523527,3.4463999998570216]",0,6,6,3,1,Practice,4,(8/4) + 1,3,,,,,,,,,,,,,,,,,,,,,,,,,,,,,,,,,,,,,,,,,,,,,,,,,,,,,,,,,,,,,,,,,,,
,,,,,,,,,,5ee43a8e2ec5ba13df088f5e,45,Mężczyzna,2022-05-28_09h20.51.243,task,2021.1.4,Win32,60.16847172,628b806c463b948bc644b84f,6291cce7bf88a1be90e21286,,,,,,,,,,,,,,,,,,,,,,,1,"[""1""]",1,[2.755399999856877],"[7.539899999856971,4.1397000000476964,2.8869999999999436,11.250500000000102,8.137599999904637,3.7812999999523527,3.4463999998570216,2.755399999856877]",0,7,7,1,1,Practice,2,(4x4) - 15,1,,,,,,,,,,,,,,,,,,,,,,,,,,,,,,,,,,,,,,,,,,,,,,,,,,,,,,,,,,,,,,,,,,,
,,,,,,,,,,5ee43a8e2ec5ba13df088f5e,45,Mężczyzna,2022-05-28_09h20.51.243,task,2021.1.4,Win32,60.16847172,628b806c463b948bc644b84f,6291cce7bf88a1be90e21286,,,,,,,,,,,,,,,,,,,,,,,6,"[""6""]",1,[6.5704999999999245],"[7.539899999856971,4.1397000000476964,2.8869999999999436,11.250500000000102,8.137599999904637,3.7812999999523527,3.4463999998570216,2.755399999856877,6.5704999999999245]",0,8,8,6,1,Practice,7,(25/5) + 1,6,,,,,,,,,,,,,,,,,,,,,,,,,,,,,,,,,,,,,,,,,,,,,,,,,,,,,,,,,,,,,,,,,,,
,,,,,,,,,,5ee43a8e2ec5ba13df088f5e,45,Mężczyzna,2022-05-28_09h20.51.243,task,2021.1.4,Win32,60.16847172,628b806c463b948bc644b84f,6291cce7bf88a1be90e21286,,,,,,,,,,,,,,,,,,,,,,,8,"[""8""]",1,[3.580199999809224],"[7.539899999856971,4.1397000000476964,2.8869999999999436,11.250500000000102,8.137599999904637,3.7812999999523527,3.4463999998570216,2.755399999856877,6.5704999999999245,3.580199999809224]",0,9,9,8,1,Practice,9,(3x3) - 1,8,,,,,,,,,,,,,,,,,,,,,,,,,,,,,,,,,,,,,,,,,,,,,,,,,,,,,,,,,,,,,,,,,,,
,,,,,,,,,,5ee43a8e2ec5ba13df088f5e,45,Mężczyzna,2022-05-28_09h20.51.243,task,2021.1.4,Win32,60.16847172,628b806c463b948bc644b84f,6291cce7bf88a1be90e21286,,,,,,,,,,,,,,,,,,,,,,,,,,,,,,,,,,,,,0.8,54.0885,3.6059,104.823399,2.643525411,10.42619556,space,3.6399,0,0,0,0,1,,,,,,,,,,,,,,,,,,,,,,,,,,,,,,,,,,,,,,,,,,,,,,,,,,,,,,
,,,,,,,,,,5ee43a8e2ec5ba13df088f5e,45,Mężczyzna,2022-05-28_09h20.51.243,task,2021.1.4,Win32,60.16847172,628b806c463b948bc644b84f,6291cce7bf88a1be90e21286,,,,,,,,,,,,,,,,,,,,,,,5,,,,,,,,,,Practice,6,(4/2) + 3,5,,,,,,,,,,,,,,space,44.3678,"[""5""]",1,[5.970399999856909],1,0,0,0,5,1,,,,,,,,,,,,,,,,,,,,,,,,,,,,,,,,,,,,,,,,,,,
,,,,,,,,,,5ee43a8e2ec5ba13df088f5e,45,Mężczyzna,2022-05-28_09h20.51.243,task,2021.1.4,Win32,60.16847172,628b806c463b948bc644b84f,6291cce7bf88a1be90e21286,,,,,,,,,,"X V Q F H G B L J M P D K C T S W R N Z
",,,,,,,,,,,,,,,,,,,,,,,,,,,,,,,,,,,,,,,,,,,,,,,,,,,0,0,0,0,1,,,,,,,,,,,,,,,,,,,,,,,,,,,,,,,,,,,,,,
,,,,,,,,,,5ee43a8e2ec5ba13df088f5e,45,Mężczyzna,2022-05-28_09h20.51.243,task,2021.1.4,Win32,60.16847172,628b806c463b948bc644b84f,6291cce7bf88a1be90e21286,,,,,,,,,,,,,,,,,,,,,,,,,,,,,,,,,Practice,10,(20/2) - 1,9,,,,,,,,,,,,,,,,,0,,0,0,0,0,9,1,,,,,,,,,,,,,,,,,,,,,,,,,,,,,,,,,,,,,,,,,,,
,,,,,,,,,,5ee43a8e2ec5ba13df088f5e,45,Mężczyzna,2022-05-28_09h20.51.243,task,2021.1.4,Win32,60.16847172,628b806c463b948bc644b84f,6291cce7bf88a1be90e21286,,,,,,,,,,,,,,,,,,,,,,,,,,,,,,,,,Practice,3,(4x4) - 14,2,,,,,,,,,,,,,,,,,0,,0,0,1,1,2,1,,,,,,,,,,,,,,,,,,,,,,,,,,,,,,,,,,,,,,,,,,,
,,,,,,,,,,5ee43a8e2ec5ba13df088f5e,45,Mężczyzna,2022-05-28_09h20.51.243,task,2021.1.4,Win32,60.16847172,628b806c463b948bc644b84f,6291cce7bf88a1be90e21286,,,,,,,,,,,,,,,,,,,,,,,3,,,,,,,,,,Practice,4,(8/4) + 1,3,,,,,,,,,,,,,,,,"[""3""]",1,[4.215199999809329],1,0,2,2,3,1,,,,,,,,,,,,,,,,,,,,,,,,,,,,,,,,,,,,,,,,,,,
,,,,,,,,,,5ee43a8e2ec5ba13df088f5e,45,Mężczyzna,2022-05-28_09h20.51.243,task,2021.1.4,Win32,60.16847172,628b806c463b948bc644b84f,6291cce7bf88a1be90e21286,,,,,,,,,,"X V Q F H G B L J M P D K C T S W R N Z
",,,,,,,,,,,,,,,,,,,,,,,,,,,,,,,,,,,,,,,,,,,,,,,,,,,1,0,1,0,1,,,,,,,,,,,,,,,,,,,,,,,,,,,,,,,,,,,,,,
,,,,,,,,,,5ee43a8e2ec5ba13df088f5e,45,Mężczyzna,2022-05-28_09h20.51.243,task,2021.1.4,Win32,60.16847172,628b806c463b948bc644b84f,6291cce7bf88a1be90e21286,,,,,,,,,,,,,,,,,,,,,,,,,,,,,,,,,,,,,,,,,,,,,,,,,,,,,,,,,,,,,,,,,,z,"[""z""]",0,"[5.512599999904637,6.667799999952308]",0,0,0,0,0,1,,,,,,,,,,,,,,,,,,,,,,,,,,,,
,,,,,,,,,,5ee43a8e2ec5ba13df088f5e,45,Mężczyzna,2022-05-28_09h20.51.243,task,2021.1.4,Win32,60.16847172,628b806c463b948bc644b84f,6291cce7bf88a1be90e21286,,,,,,,,,,,,,,,,,,,,,,,4,,,,,,,,,,Practice,5,(2x6) - 8,4,,,,,,,,,,,,,,,,"[""4""]",1,[5.723200000047655],1,0,0,0,4,1,,,,,,,,,,,,,,,,,,,,,,,,,,,,,,,,,,,,,,,,,,,
,,,,,,,,,,5ee43a8e2ec5ba13df088f5e,45,Mężczyzna,2022-05-28_09h20.51.243,task,2021.1.4,Win32,60.16847172,628b806c463b948bc644b84f,6291cce7bf88a1be90e21286,,,,,,,,,,"X V Q F H G B L J M P D K C T S W R N Z
",,,,,,,,,,,,,,,,,,,,,,,,,,,,,,,,,,,,,,,,,,,,,,,,,,,0,0,0,0,1,,,,,,,,,,,,,,,,,,,,,,,,,,,,,,,,,,,,,,
,,,,,,,,,,5ee43a8e2ec5ba13df088f5e,45,Mężczyzna,2022-05-28_09h20.51.243,task,2021.1.4,Win32,60.16847172,628b806c463b948bc644b84f,6291cce7bf88a1be90e21286,,,,,,,,,,,,,,,,,,,,,,,6,,,,,,,,,,Practice,7,(25/5) + 1,6,,,,,,,,,,,,,,,,"[""6""]",1,[3.6477999999523263],1,0,0,0,6,1,,,,,,,,,,,,,,,,,,,,,,,,,,,,,,,,,,,,,,,,,,,
,,,,,,,,,,5ee43a8e2ec5ba13df088f5e,45,Mężczyzna,2022-05-28_09h20.51.243,task,2021.1.4,Win32,60.16847172,628b806c463b948bc644b84f,6291cce7bf88a1be90e21286,,,,,,,,,,"X V Q F H G B L J M P D K C T S W R N Z
",,,,,,,,,,,,,,,,,,,,,,,,,,,,,,,,,,,,,,,,,,,,,,,,,,,1,0,1,0,1,,,,,,,,,,,,,,,,,,,,,,,,,,,,,,,,,,,,,,
,,,,,,,,,,5ee43a8e2ec5ba13df088f5e,45,Mężczyzna,2022-05-28_09h20.51.243,task,2021.1.4,Win32,60.16847172,628b806c463b948bc644b84f,6291cce7bf88a1be90e21286,,,,,,,,,,,,,,,,,,,,,,,,,,,,,,,,,,,,,,,,,,,,,,,,,,,,,,,,,,,,,,,,,,dz,"[""d"",""z""]",0,"[6.1889999999999645,7.360900000095398,9.056200000047625]",0,1,0,1,0,1,,,,,,,,,,,,,,,,,,,,,,,,,,,,
,,,,,,,,,,5ee43a8e2ec5ba13df088f5e,45,Mężczyzna,2022-05-28_09h20.51.243,task,2021.1.4,Win32,60.16847172,628b806c463b948bc644b84f,6291cce7bf88a1be90e21286,,,,,,,,,,,,,,,,,,,,,,,3,,,,,,,,,,Practice,4,(8/4) + 1,3,,,,,,,,,,,,,,,,"[""3""]",1,[4.462499999999977],1,0,0,0,3,1,,,,,,,,,,,,,,,,,,,,,,,,,,,,,,,,,,,,,,,,,,,
,,,,,,,,,,5ee43a8e2ec5ba13df088f5e,45,Mężczyzna,2022-05-28_09h20.51.243,task,2021.1.4,Win32,60.16847172,628b806c463b948bc644b84f,6291cce7bf88a1be90e21286,,,,,,,,,,"X V Q F H G B L J M P D K C T S W R N Z
",,,,,,,,,,,,,,,,,,,,,,,,,,,,,,,,,,,,,,,,,,,,,,,,,,,0,0,0,0,1,,,,,,,,,,,,,,,,,,,,,,,,,,,,,,,,,,,,,,
,,,,,,,,,,5ee43a8e2ec5ba13df088f5e,45,Mężczyzna,2022-05-28_09h20.51.243,task,2021.1.4,Win32,60.16847172,628b806c463b948bc644b84f,6291cce7bf88a1be90e21286,,,,,,,,,,,,,,,,,,,,,,,9,,,,,,,,,,Practice,10,(20/2) - 1,9,,,,,,,,,,,,,,,,"[""9""]",1,[4.0620999999046035],1,0,0,0,9,1,,,,,,,,,,,,,,,,,,,,,,,,,,,,,,,,,,,,,,,,,,,
,,,,,,,,,,5ee43a8e2ec5ba13df088f5e,45,Mężczyzna,2022-05-28_09h20.51.243,task,2021.1.4,Win32,60.16847172,628b806c463b948bc644b84f,6291cce7bf88a1be90e21286,,,,,,,,,,"X V Q F H G B L J M P D K C T S W R N Z
",,,,,,,,,,,,,,,,,,,,,,,,,,,,,,,,,,,,,,,,,,,,,,,,,,,1,0,1,0,1,,,,,,,,,,,,,,,,,,,,,,,,,,,,,,,,,,,,,,
,,,,,,,,,,5ee43a8e2ec5ba13df088f5e,45,Mężczyzna,2022-05-28_09h20.51.243,task,2021.1.4,Win32,60.16847172,628b806c463b948bc644b84f,6291cce7bf88a1be90e21286,,,,,,,,,,,,,,,,,,,,,,,,,,,,,,,,,,,,,,,,,,,,,,,,,,,,,,,,,,,,,,,,,,vt,"[""v"",""t""]",0,"[4.458799999952362,5.56970000004776,7.610900000095398]",1,2,0,2,0,1,,,,,,,,,,,,,,,,,,,,,,,,,,,,
,,,,,,,,,,5ee43a8e2ec5ba13df088f5e,45,Mężczyzna,2022-05-28_09h20.51.243,task,2021.1.4,Win32,60.16847172,628b806c463b948bc644b84f,6291cce7bf88a1be90e21286,,,,,,,,,,,,,,,,,,,,,,,8,,,,,,,,,,Practice,9,(3x3) - 1,8,,,,,,,,,,,,,,,,"[""8""]",1,[3.412700000047721],1,0,0,0,8,1,,,,,,,,,,,,,,,,,,,,,,,,,,,,,,,,,,,,,,,,,,,
,,,,,,,,,,5ee43a8e2ec5ba13df088f5e,45,Mężczyzna,2022-05-28_09h20.51.243,task,2021.1.4,Win32,60.16847172,628b806c463b948bc644b84f,6291cce7bf88a1be90e21286,,,,,,,,,,"X V Q F H G B L J M P D K C T S W R N Z
",,,,,,,,,,,,,,,,,,,,,,,,,,,,,,,,,,,,,,,,,,,,,,,,,,,0,0,0,0,1,,,,,,,,,,,,,,,,,,,,,,,,,,,,,,,,,,,,,,
,,,,,,,,,,5ee43a8e2ec5ba13df088f5e,45,Mężczyzna,2022-05-28_09h20.51.243,task,2021.1.4,Win32,60.16847172,628b806c463b948bc644b84f,6291cce7bf88a1be90e21286,,,,,,,,,,,,,,,,,,,,,,,4,,,,,,,,,,Practice,5,(2x6) - 8,4,,,,,,,,,,,,,,,,"[""4""]",1,[4.46769999980927],1,0,0,0,4,1,,,,,,,,,,,,,,,,,,,,,,,,,,,,,,,,,,,,,,,,,,,
,,,,,,,,,,5ee43a8e2ec5ba13df088f5e,45,Mężczyzna,2022-05-28_09h20.51.243,task,2021.1.4,Win32,60.16847172,628b806c463b948bc644b84f,6291cce7bf88a1be90e21286,,,,,,,,,,"X V Q F H G B L J M P D K C T S W R N Z
",,,,,,,,,,,,,,,,,,,,,,,,,,,,,,,,,,,,,,,,,,,,,,,,,,,1,0,1,0,1,,,,,,,,,,,,,,,,,,,,,,,,,,,,,,,,,,,,,,
,,,,,,,,,,5ee43a8e2ec5ba13df088f5e,45,Mężczyzna,2022-05-28_09h20.51.243,task,2021.1.4,Win32,60.16847172,628b806c463b948bc644b84f,6291cce7bf88a1be90e21286,,,,,,,,,,,,,,,,,,,,,,,,,,,,,,,,,,,,,,,,,,,,,,,,,,,,,,,,,,,,,,,,,,rj,"[""r"",""j""]",0,"[3.7287999999523436,4.942799999952399,5.708700000047656]",1,3,0,3,0,1,,,,,,,,,,,,,,,,,,,,,,,,,,,,
,,,,,,,,,,5ee43a8e2ec5ba13df088f5e,45,Mężczyzna,2022-05-28_09h20.51.243,task,2021.1.4,Win32,60.16847172,628b806c463b948bc644b84f,6291cce7bf88a1be90e21286,,,,,,,,,,,,,,,,,,,,,,,6,,,,,,,,,,Practice,7,(25/5) + 1,6,,,,,,,,,,,,,,,,"[""6""]",1,[3.232199999809268],1,0,0,0,6,1,,,,,,,,,,,,,,,,,,,,,,,,,,,,,,,,,,,,,,,,,,,
,,,,,,,,,,5ee43a8e2ec5ba13df088f5e,45,Mężczyzna,2022-05-28_09h20.51.243,task,2021.1.4,Win32,60.16847172,628b806c463b948bc644b84f,6291cce7bf88a1be90e21286,,,,,,,,,,"X V Q F H G B L J M P D K C T S W R N Z
",,,,,,,,,,,,,,,,,,,,,,,,,,,,,,,,,,,,,,,,,,,,,,,,,,,0,0,0,0,1,,,,,,,,,,,,,,,,,,,,,,,,,,,,,,,,,,,,,,
,,,,,,,,,,5ee43a8e2ec5ba13df088f5e,45,Mężczyzna,2022-05-28_09h20.51.243,task,2021.1.4,Win32,60.16847172,628b806c463b948bc644b84f,6291cce7bf88a1be90e21286,,,,,,,,,,,,,,,,,,,,,,,8,,,,,,,,,,Practice,9,(3x3) - 1,8,,,,,,,,,,,,,,,,"[""8""]",1,[4.082900000095378],1,0,0,0,8,1,,,,,,,,,,,,,,,,,,,,,,,,,,,,,,,,,,,,,,,,,,,
,,,,,,,,,,5ee43a8e2ec5ba13df088f5e,45,Mężczyzna,2022-05-28_09h20.51.243,task,2021.1.4,Win32,60.16847172,628b806c463b948bc644b84f,6291cce7bf88a1be90e21286,,,,,,,,,,"X V Q F H G B L J M P D K C T S W R N Z
",,,,,,,,,,,,,,,,,,,,,,,,,,,,,,,,,,,,,,,,,,,,,,,,,,,1,0,1,0,1,,,,,,,,,,,,,,,,,,,,,,,,,,,,,,,,,,,,,,
,,,,,,,,,,5ee43a8e2ec5ba13df088f5e,45,Mężczyzna,2022-05-28_09h20.51.243,task,2021.1.4,Win32,60.16847172,628b806c463b948bc644b84f,6291cce7bf88a1be90e21286,,,,,,,,,,,,,,,,,,,,,,,,,,,,,,,,,,,,,,,,,,,,,,,,,,,,,,,,,,,,,,,,,,nx,"[""n"",""x""]",0,"[3.7863999998569398,4.723200000047768,8.460200000047735]",1,4,0,4,0,1,,,,,,,,,,,,,,,,,,,,,,,,,,,,
,,,,,,,,,,5ee43a8e2ec5ba13df088f5e,45,Mężczyzna,2022-05-28_09h20.51.243,task,2021.1.4,Win32,60.16847172,628b806c463b948bc644b84f,6291cce7bf88a1be90e21286,,,,,,,,,,,,,,,,,,,,,,,2,,,,,,,,,,Task,2,(2x2) - 2,2,,,,,,,,,,,,,,,,,,,1,,,,,,,,,,,,,,,,,,,,,space,22.7835,"[""2""]",1,[2.9762000000475837],0,0,0,1,1,,,,,,,,,,,,,,,,,,
,,,,,,,,,,5ee43a8e2ec5ba13df088f5e,45,Mężczyzna,2022-05-28_09h20.51.243,task,2021.1.4,Win32,60.16847172,628b806c463b948bc644b84f,6291cce7bf88a1be90e21286,,,,,,,,,,"X V Q F H G B L J M P D K C T S W R N Z
",,,,,,,,,,,,,,,,,,,,,,,,,,,,,,,,,,,,,,,,,,,,,,,,,,,,,,,,,,,,,,,,,,,,,,,,,,,,0,0,0,0,1,,,,,,,,,,,,,
,,,,,,,,,,5ee43a8e2ec5ba13df088f5e,45,Mężczyzna,2022-05-28_09h20.51.243,task,2021.1.4,Win32,60.16847172,628b806c463b948bc644b84f,6291cce7bf88a1be90e21286,,,,,,,,,,,,,,,,,,,,,,,3,,,,,,,,,,Task,3,(2x3) - 3,3,,,,,,,,,,,,,,,,,,,1,,,,,,,,,,,,,,,,,,,,,,,"[""3""]",1,[3.977700000047662],0,0,0,2,1,,,,,,,,,,,,,,,,,,
,,,,,,,,,,5ee43a8e2ec5ba13df088f5e,45,Mężczyzna,2022-05-28_09h20.51.243,task,2021.1.4,Win32,60.16847172,628b806c463b948bc644b84f,6291cce7bf88a1be90e21286,,,,,,,,,,"X V Q F H G B L J M P D K C T S W R N Z
",,,,,,,,,,,,,,,,,,,,,,,,,,,,,,,,,,,,,,,,,,,,,,,,,,,,,,,,,,,,,,,,,,,,,,,,,,,,1,0,1,0,1,,,,,,,,,,,,,
,,,,,,,,,,5ee43a8e2ec5ba13df088f5e,45,Mężczyzna,2022-05-28_09h20.51.243,task,2021.1.4,Win32,60.16847172,628b806c463b948bc644b84f,6291cce7bf88a1be90e21286,,,,,,,,,,,,,,,,,,,,,,,,,,,,,,,,,,,,,,,,,,,,,,,,,,,,,,,,,,,,,,,,,,,,,,,,,,,,,,,,,,,,,,,,,,,zt,"[""z"",""t""]",0,"[4.393299999952205,5.089099999904647,6.386999999999944]",1,ZT,0,0,0,0,1,,
,,,,,,,,,,5ee43a8e2ec5ba13df088f5e,45,Mężczyzna,2022-05-28_09h20.51.243,task,2021.1.4,Win32,60.16847172,628b806c463b948bc644b84f,6291cce7bf88a1be90e21286,,,,,,,,,,,,,,,,,,,,,,,6,,,,,,,,,,Task,13,(3x4) - 6,6,,,,,,,,,,,,,,,,,,,1,,,,,,,,,,,,,,,,,,,,,,,"[""6""]",1,[4.988000000000056],0,0,0,12,1,,,,,,,,,,,,,,,,,,
,,,,,,,,,,5ee43a8e2ec5ba13df088f5e,45,Mężczyzna,2022-05-28_09h20.51.243,task,2021.1.4,Win32,60.16847172,628b806c463b948bc644b84f,6291cce7bf88a1be90e21286,,,,,,,,,,"X V Q F H G B L J M P D K C T S W R N Z
",,,,,,,,,,,,,,,,,,,,,,,,,,,,,,,,,,,,,,,,,,,,,,,,,,,,,,,,,,,,,,,,,,,,,,,,,,,,0,0,0,0,1,,,,,,,,,,,,,
,,,,,,,,,,5ee43a8e2ec5ba13df088f5e,45,Mężczyzna,2022-05-28_09h20.51.243,task,2021.1.4,Win32,60.16847172,628b806c463b948bc644b84f,6291cce7bf88a1be90e21286,,,,,,,,,,,,,,,,,,,,,,,2,,,,,,,,,,Task,2,(2x2) - 2,2,,,,,,,,,,,,,,,,,,,1,,,,,,,,,,,,,,,,,,,,,,,"[""2""]",1,[5.423499999999876],0,0,0,1,1,,,,,,,,,,,,,,,,,,
,,,,,,,,,,5ee43a8e2ec5ba13df088f5e,45,Mężczyzna,2022-05-28_09h20.51.243,task,2021.1.4,Win32,60.16847172,628b806c463b948bc644b84f,6291cce7bf88a1be90e21286,,,,,,,,,,"X V Q F H G B L J M P D K C T S W R N Z
",,,,,,,,,,,,,,,,,,,,,,,,,,,,,,,,,,,,,,,,,,,,,,,,,,,,,,,,,,,,,,,,,,,,,,,,,,,,1,0,1,0,1,,,,,,,,,,,,,
,,,,,,,,,,5ee43a8e2ec5ba13df088f5e,45,Mężczyzna,2022-05-28_09h20.51.243,task,2021.1.4,Win32,60.16847172,628b806c463b948bc644b84f,6291cce7bf88a1be90e21286,,,,,,,,,,,,,,,,,,,,,,,2,,,,,,,,,,Task,30,(6/3) + 4 ,6,,,,,,,,,,,,,,,,,,,0,,,,,,,,,,,,,,,,,,,,,,,"[""2""]",0,[5.105600000143113],0,0,0,29,1,,,,,,,,,,,,,,,,,,
,,,,,,,,,,5ee43a8e2ec5ba13df088f5e,45,Mężczyzna,2022-05-28_09h20.51.243,task,2021.1.4,Win32,60.16847172,628b806c463b948bc644b84f,6291cce7bf88a1be90e21286,,,,,,,,,,,,,,,,,,,,,,,5,,,,,,,,,,Task,36,(8/4) + 3,5,,,,,,,,,,,,,,,,,,,1,,,,,,,,,,,,,,,,,,,,,,,"[""5""]",1,[3.6394000000955202],0,1,1,35,1,,,,,,,,,,,,,,,,,,
,,,,,,,,,,5ee43a8e2ec5ba13df088f5e,45,Mężczyzna,2022-05-28_09h20.51.243,task,2021.1.4,Win32,60.16847172,628b806c463b948bc644b84f,6291cce7bf88a1be90e21286,,,,,,,,,,"X V Q F H G B L J M P D K C T S W R N Z
",,,,,,,,,,,,,,,,,,,,,,,,,,,,,,,,,,,,,,,,,,,,,,,,,,,,,,,,,,,,,,,,,,,,,,,,,,,,2,0,2,0,1,,,,,,,,,,,,,
,,,,,,,,,,5ee43a8e2ec5ba13df088f5e,45,Mężczyzna,2022-05-28_09h20.51.243,task,2021.1.4,Win32,60.16847172,628b806c463b948bc644b84f,6291cce7bf88a1be90e21286,,,,,,,,,,,,,,,,,,,,,,,,,,,,,,,,,,,,,,,,,,,,,,,,,,,,,,,,,,,,,,,,,,,,,,,,,,,,,,,,,,,,,,,,,,,npm,"[""n"",""p"",""m""]",0,"[4.035299999952258,5.840899999856902,6.82669999980908,8.407299999952329]",1,NPM,1,0,1,0,1,,
,,,,,,,,,,5ee43a8e2ec5ba13df088f5e,45,Mężczyzna,2022-05-28_09h20.51.243,task,2021.1.4,Win32,60.16847172,628b806c463b948bc644b84f,6291cce7bf88a1be90e21286,,,,,,,,,,,,,,,,,,,,,,,1,,,,,,,,,,Task,34,(9/3) - 2,1,,,,,,,,,,,,,,,,,,,1,,,,,,,,,,,,,,,,,,,,,,,"[""1""]",1,[4.292099999904622],0,0,0,33,1,,,,,,,,,,,,,,,,,,
,,,,,,,,,,5ee43a8e2ec5ba13df088f5e,45,Mężczyzna,2022-05-28_09h20.51.243,task,2021.1.4,Win32,60.16847172,628b806c463b948bc644b84f,6291cce7bf88a1be90e21286,,,,,,,,,,"X V Q F H G B L J M P D K C T S W R N Z
",,,,,,,,,,,,,,,,,,,,,,,,,,,,,,,,,,,,,,,,,,,,,,,,,,,,,,,,,,,,,,,,,,,,,,,,,,,,0,0,0,0,1,,,,,,,,,,,,,
,,,,,,,,,,5ee43a8e2ec5ba13df088f5e,45,Mężczyzna,2022-05-28_09h20.51.243,task,2021.1.4,Win32,60.16847172,628b806c463b948bc644b84f,6291cce7bf88a1be90e21286,,,,,,,,,,,,,,,,,,,,,,,3,,,,,,,,,,Task,3,(2x3) - 3,3,,,,,,,,,,,,,,,,,,,1,,,,,,,,,,,,,,,,,,,,,,,"[""3""]",1,[3.6638999998569943],0,0,0,2,1,,,,,,,,,,,,,,,,,,
,,,,,,,,,,5ee43a8e2ec5ba13df088f5e,45,Mężczyzna,2022-05-28_09h20.51.243,task,2021.1.4,Win32,60.16847172,628b806c463b948bc644b84f,6291cce7bf88a1be90e21286,,,,,,,,,,"X V Q F H G B L J M P D K C T S W R N Z
",,,,,,,,,,,,,,,,,,,,,,,,,,,,,,,,,,,,,,,,,,,,,,,,,,,,,,,,,,,,,,,,,,,,,,,,,,,,1,0,1,0,1,,,,,,,,,,,,,
,,,,,,,,,,5ee43a8e2ec5ba13df088f5e,45,Mężczyzna,2022-05-28_09h20.51.243,task,2021.1.4,Win32,60.16847172,628b806c463b948bc644b84f,6291cce7bf88a1be90e21286,,,,,,,,,,,,,,,,,,,,,,,4,,,,,,,,,,Task,11,(18/3) - 2,4,,,,,,,,,,,,,,,,,,,1,,,,,,,,,,,,,,,,,,,,,,,"[""4""]",1,[6.737300000190544],0,0,0,10,1,,,,,,,,,,,,,,,,,,
,,,,,,,,,,5ee43a8e2ec5ba13df088f5e,45,Mężczyzna,2022-05-28_09h20.51.243,task,2021.1.4,Win32,60.16847172,628b806c463b948bc644b84f,6291cce7bf88a1be90e21286,,,,,,,,,,"X V Q F H G B L J M P D K C T S W R N Z
",,,,,,,,,,,,,,,,,,,,,,,,,,,,,,,,,,,,,,,,,,,,,,,,,,,,,,,,,,,,,,,,,,,,,,,,,,,,2,0,2,0,1,,,,,,,,,,,,,
,,,,,,,,,,5ee43a8e2ec5ba13df088f5e,45,Mężczyzna,2022-05-28_09h20.51.243,task,2021.1.4,Win32,60.16847172,628b806c463b948bc644b84f,6291cce7bf88a1be90e21286,,,,,,,,,,,,,,,,,,,,,,,4,,,,,,,,,,Task,4,(1x5) - 1,4,,,,,,,,,,,,,,,,,,,1,,,,,,,,,,,,,,,,,,,,,,,"[""4""]",1,[4.478899999857049],0,0,0,3,1,,,,,,,,,,,,,,,,,,
,,,,,,,,,,5ee43a8e2ec5ba13df088f5e,45,Mężczyzna,2022-05-28_09h20.51.243,task,2021.1.4,Win32,60.16847172,628b806c463b948bc644b84f,6291cce7bf88a1be90e21286,,,,,,,,,,"X V Q F H G B L J M P D K C T S W R N Z
",,,,,,,,,,,,,,,,,,,,,,,,,,,,,,,,,,,,,,,,,,,,,,,,,,,,,,,,,,,,,,,,,,,,,,,,,,,,3,0,3,0,1,,,,,,,,,,,,,
,,,,,,,,,,5ee43a8e2ec5ba13df088f5e,45,Mężczyzna,2022-05-28_09h20.51.243,task,2021.1.4,Win32,60.16847172,628b806c463b948bc644b84f,6291cce7bf88a1be90e21286,,,,,,,,,,,,,,,,,,,,,,,,,,,,,,,,,,,,,,,,,,,,,,,,,,,,,,,,,,,,,,,,,,,,,,,,,,,,,,,,,,,,,,,,,,,ppqn,"[""p"",""p"",""q"",""n""]",0,"[4.814900000095349,5.434600000143064,6.925700000047527,8.822200000047587,10.36960000014301]",1,PPQN,2,0,2,0,1,,
,,,,,,,,,,5ee43a8e2ec5ba13df088f5e,45,Mężczyzna,2022-05-28_09h20.51.243,task,2021.1.4,Win32,60.16847172,628b806c463b948bc644b84f,6291cce7bf88a1be90e21286,,,,,,,,,,,,,,,,,,,,,,,8,,,,,,,,,,Task,15,(3x7) - 13,8,,,,,,,,,,,,,,,,,,,1,,,,,,,,,,,,,,,,,,,,,,,"[""8""]",1,[7.899999999999864],0,0,0,14,1,,,,,,,,,,,,,,,,,,
,,,,,,,,,,5ee43a8e2ec5ba13df088f5e,45,Mężczyzna,2022-05-28_09h20.51.243,task,2021.1.4,Win32,60.16847172,628b806c463b948bc644b84f,6291cce7bf88a1be90e21286,,,,,,,,,,"X V Q F H G B L J M P D K C T S W R N Z
",,,,,,,,,,,,,,,,,,,,,,,,,,,,,,,,,,,,,,,,,,,,,,,,,,,,,,,,,,,,,,,,,,,,,,,,,,,,0,0,0,0,1,,,,,,,,,,,,,
,,,,,,,,,,5ee43a8e2ec5ba13df088f5e,45,Mężczyzna,2022-05-28_09h20.51.243,task,2021.1.4,Win32,60.16847172,628b806c463b948bc644b84f,6291cce7bf88a1be90e21286,,,,,,,,,,,,,,,,,,,,,,,2,,,,,,,,,,Task,10,(2x5) - 8,2,,,,,,,,,,,,,,,,,,,1,,,,,,,,,,,,,,,,,,,,,,,"[""2""]",1,[4.004300000190824],0,0,0,9,1,,,,,,,,,,,,,,,,,,
,,,,,,,,,,5ee43a8e2ec5ba13df088f5e,45,Mężczyzna,2022-05-28_09h20.51.243,task,2021.1.4,Win32,60.16847172,628b806c463b948bc644b84f,6291cce7bf88a1be90e21286,,,,,,,,,,"X V Q F H G B L J M P D K C T S W R N Z
",,,,,,,,,,,,,,,,,,,,,,,,,,,,,,,,,,,,,,,,,,,,,,,,,,,,,,,,,,,,,,,,,,,,,,,,,,,,1,0,1,0,1,,,,,,,,,,,,,
,,,,,,,,,,5ee43a8e2ec5ba13df088f5e,45,Mężczyzna,2022-05-28_09h20.51.243,task,2021.1.4,Win32,60.16847172,628b806c463b948bc644b84f,6291cce7bf88a1be90e21286,,,,,,,,,,,,,,,,,,,,,,,0,,,,,,,,,,Task,17,(2x3) - 6,0,,,,,,,,,,,,,,,,,,,1,,,,,,,,,,,,,,,,,,,,,,,"[""0""]",1,[3.929599999904667],0,0,0,16,1,,,,,,,,,,,,,,,,,,
,,,,,,,,,,5ee43a8e2ec5ba13df088f5e,45,Mężczyzna,2022-05-28_09h20.51.243,task,2021.1.4,Win32,60.16847172,628b806c463b948bc644b84f,6291cce7bf88a1be90e21286,,,,,,,,,,"X V Q F H G B L J M P D K C T S W R N Z
",,,,,,,,,,,,,,,,,,,,,,,,,,,,,,,,,,,,,,,,,,,,,,,,,,,,,,,,,,,,,,,,,,,,,,,,,,,,2,0,2,0,1,,,,,,,,,,,,,
,,,,,,,,,,5ee43a8e2ec5ba13df088f5e,45,Mężczyzna,2022-05-28_09h20.51.243,task,2021.1.4,Win32,60.16847172,628b806c463b948bc644b84f,6291cce7bf88a1be90e21286,,,,,,,,,,,,,,,,,,,,,,,2,,,,,,,,,,Task,10,(2x5) - 8,2,,,,,,,,,,,,,,,,,,,1,,,,,,,,,,,,,,,,,,,,,,,"[""2""]",1,[3.2437999999524436],0,0,0,9,1,,,,,,,,,,,,,,,,,,
,,,,,,,,,,5ee43a8e2ec5ba13df088f5e,45,Mężczyzna,2022-05-28_09h20.51.243,task,2021.1.4,Win32,60.16847172,628b806c463b948bc644b84f,6291cce7bf88a1be90e21286,,,,,,,,,,"X V Q F H G B L J M P D K C T S W R N Z
",,,,,,,,,,,,,,,,,,,,,,,,,,,,,,,,,,,,,,,,,,,,,,,,,,,,,,,,,,,,,,,,,,,,,,,,,,,,3,0,3,0,1,,,,,,,,,,,,,
,,,,,,,,,,5ee43a8e2ec5ba13df088f5e,45,Mężczyzna,2022-05-28_09h20.51.243,task,2021.1.4,Win32,60.16847172,628b806c463b948bc644b84f,6291cce7bf88a1be90e21286,,,,,,,,,,,,,,,,,,,,,,,9,,,,,,,,,,Task,7,(3x7) - 12,9,,,,,,,,,,,,,,,,,,,1,,,,,,,,,,,,,,,,,,,,,,,"[""9""]",1,[6.318099999904689],0,0,0,6,1,,,,,,,,,,,,,,,,,,
,,,,,,,,,,5ee43a8e2ec5ba13df088f5e,45,Mężczyzna,2022-05-28_09h20.51.243,task,2021.1.4,Win32,60.16847172,628b806c463b948bc644b84f,6291cce7bf88a1be90e21286,,,,,,,,,,"X V Q F H G B L J M P D K C T S W R N Z
",,,,,,,,,,,,,,,,,,,,,,,,,,,,,,,,,,,,,,,,,,,,,,,,,,,,,,,,,,,,,,,,,,,,,,,,,,,,4,0,4,0,1,,,,,,,,,,,,,
,,,,,,,,,,5ee43a8e2ec5ba13df088f5e,45,Mężczyzna,2022-05-28_09h20.51.243,task,2021.1.4,Win32,60.16847172,628b806c463b948bc644b84f,6291cce7bf88a1be90e21286,,,,,,,,,,,,,,,,,,,,,,,,,,,,,,,,,,,,,,,,,,,,,,,,,,,,,,,,,,,,,,,,,,,,,,,,,,,,,,,,,,,,,,,,,,,xstlh,"[""x"",""s"",""t"",""l"",""h""]",0,"[4.6879000000953965,6.34510000014302,8.129799999952183,9.80710000014301,11.08790000009526,13.02800000000002]",1,XSTLH,3,0,3,0,1,,
,,,,,,,,,,5ee43a8e2ec5ba13df088f5e,45,Mężczyzna,2022-05-28_09h20.51.243,task,2021.1.4,Win32,60.16847172,628b806c463b948bc644b84f,6291cce7bf88a1be90e21286,,,,,,,,,,,,,,,,,,,,,,,7,,,,,,,,,,Task,14,(2x2) + 3,7,,,,,,,,,,,,,,,,,,,1,,,,,,,,,,,,,,,,,,,,,,,"[""7""]",1,[3.379299999952309],0,0,0,13,1,,,,,,,,,,,,,,,,,,
,,,,,,,,,,5ee43a8e2ec5ba13df088f5e,45,Mężczyzna,2022-05-28_09h20.51.243,task,2021.1.4,Win32,60.16847172,628b806c463b948bc644b84f,6291cce7bf88a1be90e21286,,,,,,,,,,"X V Q F H G B L J M P D K C T S W R N Z
",,,,,,,,,,,,,,,,,,,,,,,,,,,,,,,,,,,,,,,,,,,,,,,,,,,,,,,,,,,,,,,,,,,,,,,,,,,,0,0,0,0,1,,,,,,,,,,,,,
,,,,,,,,,,5ee43a8e2ec5ba13df088f5e,45,Mężczyzna,2022-05-28_09h20.51.243,task,2021.1.4,Win32,60.16847172,628b806c463b948bc644b84f,6291cce7bf88a1be90e21286,,,,,,,,,,,,,,,,,,,,,,,0,,,,,,,,,,Task,25,(10/5) - 2,0,,,,,,,,,,,,,,,,,,,1,,,,,,,,,,,,,,,,,,,,,,,"[""0""]",1,[4.507499999999936],0,0,0,24,1,,,,,,,,,,,,,,,,,,
,,,,,,,,,,5ee43a8e2ec5ba13df088f5e,45,Mężczyzna,2022-05-28_09h20.51.243,task,2021.1.4,Win32,60.16847172,628b806c463b948bc644b84f,6291cce7bf88a1be90e21286,,,,,,,,,,"X V Q F H G B L J M P D K C T S W R N Z
",,,,,,,,,,,,,,,,,,,,,,,,,,,,,,,,,,,,,,,,,,,,,,,,,,,,,,,,,,,,,,,,,,,,,,,,,,,,1,0,1,0,1,,,,,,,,,,,,,
,,,,,,,,,,5ee43a8e2ec5ba13df088f5e,45,Mężczyzna,2022-05-28_09h20.51.243,task,2021.1.4,Win32,60.16847172,628b806c463b948bc644b84f,6291cce7bf88a1be90e21286,,,,,,,,,,,,,,,,,,,,,,,1,,,,,,,,,,Task,1,(12/6) - 1,1,,,,,,,,,,,,,,,,,,,1,,,,,,,,,,,,,,,,,,,,,,,"[""1""]",1,[3.4509000000953165],0,0,0,0,1,,,,,,,,,,,,,,,,,,
,,,,,,,,,,5ee43a8e2ec5ba13df088f5e,45,Mężczyzna,2022-05-28_09h20.51.243,task,2021.1.4,Win32,60.16847172,628b806c463b948bc644b84f,6291cce7bf88a1be90e21286,,,,,,,,,,"X V Q F H G B L J M P D K C T S W R N Z
",,,,,,,,,,,,,,,,,,,,,,,,,,,,,,,,,,,,,,,,,,,,,,,,,,,,,,,,,,,,,,,,,,,,,,,,,,,,2,0,2,0,1,,,,,,,,,,,,,
,,,,,,,,,,5ee43a8e2ec5ba13df088f5e,45,Mężczyzna,2022-05-28_09h20.51.243,task,2021.1.4,Win32,60.16847172,628b806c463b948bc644b84f,6291cce7bf88a1be90e21286,,,,,,,,,,,,,,,,,,,,,,,8,,,,,,,,,,Task,32,(8/2) + 4,8,,,,,,,,,,,,,,,,,,,1,,,,,,,,,,,,,,,,,,,,,,,"[""8""]",1,[4.948799999952371],0,0,0,31,1,,,,,,,,,,,,,,,,,,
,,,,,,,,,,5ee43a8e2ec5ba13df088f5e,45,Mężczyzna,2022-05-28_09h20.51.243,task,2021.1.4,Win32,60.16847172,628b806c463b948bc644b84f,6291cce7bf88a1be90e21286,,,,,,,,,,"X V Q F H G B L J M P D K C T S W R N Z
",,,,,,,,,,,,,,,,,,,,,,,,,,,,,,,,,,,,,,,,,,,,,,,,,,,,,,,,,,,,,,,,,,,,,,,,,,,,3,0,3,0,1,,,,,,,,,,,,,
,,,,,,,,,,5ee43a8e2ec5ba13df088f5e,45,Mężczyzna,2022-05-28_09h20.51.243,task,2021.1.4,Win32,60.16847172,628b806c463b948bc644b84f,6291cce7bf88a1be90e21286,,,,,,,,,,,,,,,,,,,,,,,4,,,,,,,,,,Task,28,(2x5) - 6,4,,,,,,,,,,,,,,,,,,,1,,,,,,,,,,,,,,,,,,,,,,,"[""4""]",1,[4.864799999952311],0,0,0,27,1,,,,,,,,,,,,,,,,,,
,,,,,,,,,,5ee43a8e2ec5ba13df088f5e,45,Mężczyzna,2022-05-28_09h20.51.243,task,2021.1.4,Win32,60.16847172,628b806c463b948bc644b84f,6291cce7bf88a1be90e21286,,,,,,,,,,"X V Q F H G B L J M P D K C T S W R N Z
",,,,,,,,,,,,,,,,,,,,,,,,,,,,,,,,,,,,,,,,,,,,,,,,,,,,,,,,,,,,,,,,,,,,,,,,,,,,4,0,4,0,1,,,,,,,,,,,,,
,,,,,,,,,,5ee43a8e2ec5ba13df088f5e,45,Mężczyzna,2022-05-28_09h20.51.243,task,2021.1.4,Win32,60.16847172,628b806c463b948bc644b84f,6291cce7bf88a1be90e21286,,,,,,,,,,,,,,,,,,,,,,,0,,,,,,,,,,Task,17,(2x3) - 6,0,,,,,,,,,,,,,,,,,,,1,,,,,,,,,,,,,,,,,,,,,,,"[""0""]",1,[3.9394999999999527],0,0,0,16,1,,,,,,,,,,,,,,,,,,
,,,,,,,,,,5ee43a8e2ec5ba13df088f5e,45,Mężczyzna,2022-05-28_09h20.51.243,task,2021.1.4,Win32,60.16847172,628b806c463b948bc644b84f,6291cce7bf88a1be90e21286,,,,,,,,,,"X V Q F H G B L J M P D K C T S W R N Z
",,,,,,,,,,,,,,,,,,,,,,,,,,,,,,,,,,,,,,,,,,,,,,,,,,,,,,,,,,,,,,,,,,,,,,,,,,,,5,0,5,0,1,,,,,,,,,,,,,
,,,,,,,,,,5ee43a8e2ec5ba13df088f5e,45,Mężczyzna,2022-05-28_09h20.51.243,task,2021.1.4,Win32,60.16847172,628b806c463b948bc644b84f,6291cce7bf88a1be90e21286,,,,,,,,,,,,,,,,,,,,,,,,,,,,,,,,,,,,,,,,,,,,,,,,,,,,,,,,,,,,,,,,,,,,,,,,,,,,,,,,,,,,,,,,,,,msrpsv,"[""m"",""s"",""r"",""p"",""s"",""v""]",0,"[3.976099999904818,5.686799999952427,8.394999999999982,9.794399999856978,11.454099999904656,12.424099999904684,13.81439999985696]",1,MSRPSV,4,0,4,0,1,,
,,,,,,,,,,5ee43a8e2ec5ba13df088f5e,45,Mężczyzna,2022-05-28_09h20.51.243,task,2021.1.4,Win32,60.16847172,628b806c463b948bc644b84f,6291cce7bf88a1be90e21286,,,,,,,,,,,,,,,,,,,,,,,2,,,,,,,,,,Task,26,(2x9) - 16,2,,,,,,,,,,,,,,,,,,,1,,,,,,,,,,,,,,,,,,,,,,,"[""2""]",1,[6.539299999952391],0,0,0,25,1,,,,,,,,,,,,,,,,,,
,,,,,,,,,,5ee43a8e2ec5ba13df088f5e,45,Mężczyzna,2022-05-28_09h20.51.243,task,2021.1.4,Win32,60.16847172,628b806c463b948bc644b84f,6291cce7bf88a1be90e21286,,,,,,,,,,"X V Q F H G B L J M P D K C T S W R N Z
",,,,,,,,,,,,,,,,,,,,,,,,,,,,,,,,,,,,,,,,,,,,,,,,,,,,,,,,,,,,,,,,,,,,,,,,,,,,0,0,0,0,1,,,,,,,,,,,,,
,,,,,,,,,,5ee43a8e2ec5ba13df088f5e,45,Mężczyzna,2022-05-28_09h20.51.243,task,2021.1.4,Win32,60.16847172,628b806c463b948bc644b84f,6291cce7bf88a1be90e21286,,,,,,,,,,,,,,,,,,,,,,,9,,,,,,,,,,Task,7,(3x7) - 12,9,,,,,,,,,,,,,,,,,,,1,,,,,,,,,,,,,,,,,,,,,,,"[""9""]",1,[6.990799999952287],0,0,0,6,1,,,,,,,,,,,,,,,,,,
,,,,,,,,,,5ee43a8e2ec5ba13df088f5e,45,Mężczyzna,2022-05-28_09h20.51.243,task,2021.1.4,Win32,60.16847172,628b806c463b948bc644b84f,6291cce7bf88a1be90e21286,,,,,,,,,,"X V Q F H G B L J M P D K C T S W R N Z
",,,,,,,,,,,,,,,,,,,,,,,,,,,,,,,,,,,,,,,,,,,,,,,,,,,,,,,,,,,,,,,,,,,,,,,,,,,,1,0,1,0,1,,,,,,,,,,,,,
,,,,,,,,,,5ee43a8e2ec5ba13df088f5e,45,Mężczyzna,2022-05-28_09h20.51.243,task,2021.1.4,Win32,60.16847172,628b806c463b948bc644b84f,6291cce7bf88a1be90e21286,,,,,,,,,,,,,,,,,,,,,,,6,,,,,,,,,,Task,5,(2x3) + 0,6,,,,,,,,,,,,,,,,,,,1,,,,,,,,,,,,,,,,,,,,,,,"[""6""]",1,[4.8128999998568815],0,0,0,4,1,,,,,,,,,,,,,,,,,,
,,,,,,,,,,5ee43a8e2ec5ba13df088f5e,45,Mężczyzna,2022-05-28_09h20.51.243,task,2021.1.4,Win32,60.16847172,628b806c463b948bc644b84f,6291cce7bf88a1be90e21286,,,,,,,,,,"X V Q F H G B L J M P D K C T S W R N Z
",,,,,,,,,,,,,,,,,,,,,,,,,,,,,,,,,,,,,,,,,,,,,,,,,,,,,,,,,,,,,,,,,,,,,,,,,,,,2,0,2,0,1,,,,,,,,,,,,,
,,,,,,,,,,5ee43a8e2ec5ba13df088f5e,45,Mężczyzna,2022-05-28_09h20.51.243,task,2021.1.4,Win32,60.16847172,628b806c463b948bc644b84f,6291cce7bf88a1be90e21286,,,,,,,,,,,,,,,,,,,,,,,1,,,,,,,,,,Task,31,(4/2) + 5,7,,,,,,,,,,,,,,,,,,,0,,,,,,,,,,,,,,,,,,,,,,,"[""1""]",0,[5.936999999999898],0,0,0,30,1,,,,,,,,,,,,,,,,,,
,,,,,,,,,,5ee43a8e2ec5ba13df088f5e,45,Mężczyzna,2022-05-28_09h20.51.243,task,2021.1.4,Win32,60.16847172,628b806c463b948bc644b84f,6291cce7bf88a1be90e21286,,,,,,,,,,,,,,,,,,,,,,,6,,,,,,,,,,Task,13,(3x4) - 6,6,,,,,,,,,,,,,,,,,,,1,,,,,,,,,,,,,,,,,,,,,,,"[""6""]",1,[3.2422999999523654],0,1,1,12,1,,,,,,,,,,,,,,,,,,
,,,,,,,,,,5ee43a8e2ec5ba13df088f5e,45,Mężczyzna,2022-05-28_09h20.51.243,task,2021.1.4,Win32,60.16847172,628b806c463b948bc644b84f,6291cce7bf88a1be90e21286,,,,,,,,,,"X V Q F H G B L J M P D K C T S W R N Z
",,,,,,,,,,,,,,,,,,,,,,,,,,,,,,,,,,,,,,,,,,,,,,,,,,,,,,,,,,,,,,,,,,,,,,,,,,,,3,0,3,0,1,,,,,,,,,,,,,
,,,,,,,,,,5ee43a8e2ec5ba13df088f5e,45,Mężczyzna,2022-05-28_09h20.51.243,task,2021.1.4,Win32,60.16847172,628b806c463b948bc644b84f,6291cce7bf88a1be90e21286,,,,,,,,,,,,,,,,,,,,,,,4,,,,,,,,,,Task,12,(4x4) - 11,5,,,,,,,,,,,,,,,,,,,0,,,,,,,,,,,,,,,,,,,,,,,"[""4""]",0,[5.933699999809278],0,0,0,11,1,,,,,,,,,,,,,,,,,,
,,,,,,,,,,5ee43a8e2ec5ba13df088f5e,45,Mężczyzna,2022-05-28_09h20.51.243,task,2021.1.4,Win32,60.16847172,628b806c463b948bc644b84f,6291cce7bf88a1be90e21286,,,,,,,,,,,,,,,,,,,,,,,0,,,,,,,,,,Task,8,(1x5) - 5,0,,,,,,,,,,,,,,,,,,,1,,,,,,,,,,,,,,,,,,,,,,,"[""0""]",1,[2.713400000095362],0,1,1,7,1,,,,,,,,,,,,,,,,,,
,,,,,,,,,,5ee43a8e2ec5ba13df088f5e,45,Mężczyzna,2022-05-28_09h20.51.243,task,2021.1.4,Win32,60.16847172,628b806c463b948bc644b84f,6291cce7bf88a1be90e21286,,,,,,,,,,"X V Q F H G B L J M P D K C T S W R N Z
",,,,,,,,,,,,,,,,,,,,,,,,,,,,,,,,,,,,,,,,,,,,,,,,,,,,,,,,,,,,,,,,,,,,,,,,,,,,4,0,4,0,1,,,,,,,,,,,,,
,,,,,,,,,,5ee43a8e2ec5ba13df088f5e,45,Mężczyzna,2022-05-28_09h20.51.243,task,2021.1.4,Win32,60.16847172,628b806c463b948bc644b84f,6291cce7bf88a1be90e21286,,,,,,,,,,,,,,,,,,,,,,,3,,,,,,,,,,Task,35,(1x2) + 1,3,,,,,,,,,,,,,,,,,,,1,,,,,,,,,,,,,,,,,,,,,,,"[""3""]",1,[3.3827000000476346],0,0,0,34,1,,,,,,,,,,,,,,,,,,
,,,,,,,,,,5ee43a8e2ec5ba13df088f5e,45,Mężczyzna,2022-05-28_09h20.51.243,task,2021.1.4,Win32,60.16847172,628b806c463b948bc644b84f,6291cce7bf88a1be90e21286,,,,,,,,,,"X V Q F H G B L J M P D K C T S W R N Z
",,,,,,,,,,,,,,,,,,,,,,,,,,,,,,,,,,,,,,,,,,,,,,,,,,,,,,,,,,,,,,,,,,,,,,,,,,,,5,0,5,0,1,,,,,,,,,,,,,
,,,,,,,,,,5ee43a8e2ec5ba13df088f5e,45,Mężczyzna,2022-05-28_09h20.51.243,task,2021.1.4,Win32,60.16847172,628b806c463b948bc644b84f,6291cce7bf88a1be90e21286,,,,,,,,,,,,,,,,,,,,,,,2,,,,,,,,,,Task,30,(6/3) + 4 ,6,,,,,,,,,,,,,,,,,,,0,,,,,,,,,,,,,,,,,,,,,,,"[""2""]",0,[5.2193999998569325],0,0,0,29,1,,,,,,,,,,,,,,,,,,
,,,,,,,,,,5ee43a8e2ec5ba13df088f5e,45,Mężczyzna,2022-05-28_09h20.51.243,task,2021.1.4,Win32,60.16847172,628b806c463b948bc644b84f,6291cce7bf88a1be90e21286,,,,,,,,,,,,,,,,,,,,,,,7,,,,,,,,,,Task,14,(2x2) + 3,7,,,,,,,,,,,,,,,,,,,1,,,,,,,,,,,,,,,,,,,,,,,"[""7""]",1,[4.0292999999524],0,1,1,13,1,,,,,,,,,,,,,,,,,,
,,,,,,,,,,5ee43a8e2ec5ba13df088f5e,45,Mężczyzna,2022-05-28_09h20.51.243,task,2021.1.4,Win32,60.16847172,628b806c463b948bc644b84f,6291cce7bf88a1be90e21286,,,,,,,,,,"X V Q F H G B L J M P D K C T S W R N Z
",,,,,,,,,,,,,,,,,,,,,,,,,,,,,,,,,,,,,,,,,,,,,,,,,,,,,,,,,,,,,,,,,,,,,,,,,,,,6,0,6,0,1,,,,,,,,,,,,,
,,,,,,,,,,5ee43a8e2ec5ba13df088f5e,45,Mężczyzna,2022-05-28_09h20.51.243,task,2021.1.4,Win32,60.16847172,628b806c463b948bc644b84f,6291cce7bf88a1be90e21286,,,,,,,,,,,,,,,,,,,,,,,,,,,,,,,,,,,,,,,,,,,,,,,,,,,,,,,,,,,,,,,,,,,,,,,,,,,,,,,,,,,,,,,,,,,rxkjrq,"[""r"",""x"",""k"",""j"",""r"",""q""]",0,"[6.701400000095418,8.385099999904696,9.351200000047584,10.814299999952254,13.46290000009526,15.889099999904602,17.603400000095462]",0,RXKJRQP,5,0,5,0,1,,
,,,,,,,,,,5ee43a8e2ec5ba13df088f5e,45,Mężczyzna,2022-05-28_09h20.51.243,task,2021.1.4,Win32,60.16847172,628b806c463b948bc644b84f,6291cce7bf88a1be90e21286,,,,,,,,,,,,,,,,,,,,,,,1,,,,,,,,,,Task,38,(4x6) - 17,7,,,,,,,,,,,,,,,,,,,0,,,,,,,,,,,,,,,,,,,,,,,"[""1""]",0,[4.895500000000084],0,0,0,37,1,,,,,,,,,,,,,,,,,,
,,,,,,,,,,5ee43a8e2ec5ba13df088f5e,45,Mężczyzna,2022-05-28_09h20.51.243,task,2021.1.4,Win32,60.16847172,628b806c463b948bc644b84f,6291cce7bf88a1be90e21286,,,,,,,,,,,,,,,,,,,,,,,6,,,,,,,,,,Task,5,(2x3) + 0,6,,,,,,,,,,,,,,,,,,,1,,,,,,,,,,,,,,,,,,,,,,,"[""6""]",1,[3.6445999999045853],0,1,1,4,1,,,,,,,,,,,,,,,,,,
,,,,,,,,,,5ee43a8e2ec5ba13df088f5e,45,Mężczyzna,2022-05-28_09h20.51.243,task,2021.1.4,Win32,60.16847172,628b806c463b948bc644b84f,6291cce7bf88a1be90e21286,,,,,,,,,,"X V Q F H G B L J M P D K C T S W R N Z
",,,,,,,,,,,,,,,,,,,,,,,,,,,,,,,,,,,,,,,,,,,,,,,,,,,,,,,,,,,,,,,,,,,,,,,,,,,,0,0,0,0,1,,,,,,,,,,,,,
,,,,,,,,,,5ee43a8e2ec5ba13df088f5e,45,Mężczyzna,2022-05-28_09h20.51.243,task,2021.1.4,Win32,60.16847172,628b806c463b948bc644b84f,6291cce7bf88a1be90e21286,,,,,,,,,,,,,,,,,,,,,,,3,,,,,,,,,,Task,29,(3x8) - 19 ,5,,,,,,,,,,,,,,,,,,,0,,,,,,,,,,,,,,,,,,,,,,,"[""3""]",0,[5.246499999999969],0,0,0,28,1,,,,,,,,,,,,,,,,,,
,,,,,,,,,,5ee43a8e2ec5ba13df088f5e,45,Mężczyzna,2022-05-28_09h20.51.243,task,2021.1.4,Win32,60.16847172,628b806c463b948bc644b84f,6291cce7bf88a1be90e21286,,,,,,,,,,,,,,,,,,,,,,,8,,,,,,,,,,Task,15,(3x7) - 13,8,,,,,,,,,,,,,,,,,,,1,,,,,,,,,,,,,,,,,,,,,,,"[""8""]",1,[5.37440000009542],0,1,1,14,1,,,,,,,,,,,,,,,,,,
,,,,,,,,,,5ee43a8e2ec5ba13df088f5e,45,Mężczyzna,2022-05-28_09h20.51.243,task,2021.1.4,Win32,60.16847172,628b806c463b948bc644b84f,6291cce7bf88a1be90e21286,,,,,,,,,,"X V Q F H G B L J M P D K C T S W R N Z
",,,,,,,,,,,,,,,,,,,,,,,,,,,,,,,,,,,,,,,,,,,,,,,,,,,,,,,,,,,,,,,,,,,,,,,,,,,,1,0,1,0,1,,,,,,,,,,,,,
,,,,,,,,,,5ee43a8e2ec5ba13df088f5e,45,Mężczyzna,2022-05-28_09h20.51.243,task,2021.1.4,Win32,60.16847172,628b806c463b948bc644b84f,6291cce7bf88a1be90e21286,,,,,,,,,,,,,,,,,,,,,,,2,,,,,,,,,,Task,34,(9/3) - 2,1,,,,,,,,,,,,,,,,,,,0,,,,,,,,,,,,,,,,,,,,,,,"[""2""]",0,[6.02599999999984],0,0,0,33,1,,,,,,,,,,,,,,,,,,
,,,,,,,,,,5ee43a8e2ec5ba13df088f5e,45,Mężczyzna,2022-05-28_09h20.51.243,task,2021.1.4,Win32,60.16847172,628b806c463b948bc644b84f,6291cce7bf88a1be90e21286,,,,,,,,,,,,,,,,,,,,,,,7,,,,,,,,,,Task,38,(4x6) - 17,7,,,,,,,,,,,,,,,,,,,1,,,,,,,,,,,,,,,,,,,,,,,"[""7""]",1,[9.559299999952373],0,1,1,37,1,,,,,,,,,,,,,,,,,,
,,,,,,,,,,5ee43a8e2ec5ba13df088f5e,45,Mężczyzna,2022-05-28_09h20.51.243,task,2021.1.4,Win32,60.16847172,628b806c463b948bc644b84f,6291cce7bf88a1be90e21286,,,,,,,,,,"X V Q F H G B L J M P D K C T S W R N Z
",,,,,,,,,,,,,,,,,,,,,,,,,,,,,,,,,,,,,,,,,,,,,,,,,,,,,,,,,,,,,,,,,,,,,,,,,,,,2,0,2,0,1,,,,,,,,,,,,,
,,,,,,,,,,5ee43a8e2ec5ba13df088f5e,45,Mężczyzna,2022-05-28_09h20.51.243,task,2021.1.4,Win32,60.16847172,628b806c463b948bc644b84f,6291cce7bf88a1be90e21286,,,,,,,,,,,,,,,,,,,,,,,0,,,,,,,,,,Task,33,(1/1) - 1,0,,,,,,,,,,,,,,,,,,,1,,,,,,,,,,,,,,,,,,,,,,,"[""0""]",1,[3.97329999995236],0,0,0,32,1,,,,,,,,,,,,,,,,,,
,,,,,,,,,,5ee43a8e2ec5ba13df088f5e,45,Mężczyzna,2022-05-28_09h20.51.243,task,2021.1.4,Win32,60.16847172,628b806c463b948bc644b84f,6291cce7bf88a1be90e21286,,,,,,,,,,"X V Q F H G B L J M P D K C T S W R N Z
",,,,,,,,,,,,,,,,,,,,,,,,,,,,,,,,,,,,,,,,,,,,,,,,,,,,,,,,,,,,,,,,,,,,,,,,,,,,3,0,3,0,1,,,,,,,,,,,,,
,,,,,,,,,,5ee43a8e2ec5ba13df088f5e,45,Mężczyzna,2022-05-28_09h20.51.243,task,2021.1.4,Win32,60.16847172,628b806c463b948bc644b84f,6291cce7bf88a1be90e21286,,,,,,,,,,,,,,,,,,,,,,,9,,,,,,,,,,Task,40,(7x2) - 5,9,,,,,,,,,,,,,,,,,,,1,,,,,,,,,,,,,,,,,,,,,,,"[""9""]",1,[6.418700000047693],0,0,0,39,1,,,,,,,,,,,,,,,,,,
,,,,,,,,,,5ee43a8e2ec5ba13df088f5e,45,Mężczyzna,2022-05-28_09h20.51.243,task,2021.1.4,Win32,60.16847172,628b806c463b948bc644b84f,6291cce7bf88a1be90e21286,,,,,,,,,,"X V Q F H G B L J M P D K C T S W R N Z
",,,,,,,,,,,,,,,,,,,,,,,,,,,,,,,,,,,,,,,,,,,,,,,,,,,,,,,,,,,,,,,,,,,,,,,,,,,,4,0,4,0,1,,,,,,,,,,,,,
,,,,,,,,,,5ee43a8e2ec5ba13df088f5e,45,Mężczyzna,2022-05-28_09h20.51.243,task,2021.1.4,Win32,60.16847172,628b806c463b948bc644b84f,6291cce7bf88a1be90e21286,,,,,,,,,,,,,,,,,,,,,,,2,,,,,,,,,,Task,26,(2x9) - 16,2,,,,,,,,,,,,,,,,,,,1,,,,,,,,,,,,,,,,,,,,,,,"[""2""]",1,[6.090499999999793],0,0,0,25,1,,,,,,,,,,,,,,,,,,
,,,,,,,,,,5ee43a8e2ec5ba13df088f5e,45,Mężczyzna,2022-05-28_09h20.51.243,task,2021.1.4,Win32,60.16847172,628b806c463b948bc644b84f,6291cce7bf88a1be90e21286,,,,,,,,,,"X V Q F H G B L J M P D K C T S W R N Z
",,,,,,,,,,,,,,,,,,,,,,,,,,,,,,,,,,,,,,,,,,,,,,,,,,,,,,,,,,,,,,,,,,,,,,,,,,,,5,0,5,0,1,,,,,,,,,,,,,
,,,,,,,,,,5ee43a8e2ec5ba13df088f5e,45,Mężczyzna,2022-05-28_09h20.51.243,task,2021.1.4,Win32,60.16847172,628b806c463b948bc644b84f,6291cce7bf88a1be90e21286,,,,,,,,,,,,,,,,,,,,,,,1,,,,,,,,,,Task,21,(10/2) - 1,4,,,,,,,,,,,,,,,,,,,0,,,,,,,,,,,,,,,,,,,,,,,"[""1""]",0,[4.098099999904662],0,0,0,20,1,,,,,,,,,,,,,,,,,,
,,,,,,,,,,5ee43a8e2ec5ba13df088f5e,45,Mężczyzna,2022-05-28_09h20.51.243,task,2021.1.4,Win32,60.16847172,628b806c463b948bc644b84f,6291cce7bf88a1be90e21286,,,,,,,,,,,,,,,,,,,,,,,2,,,,,,,,,,Task,19,(6/2) - 1,2,,,,,,,,,,,,,,,,,,,1,,,,,,,,,,,,,,,,,,,,,,,"[""2""]",1,[5.70770000004768],0,1,1,18,1,,,,,,,,,,,,,,,,,,
,,,,,,,,,,5ee43a8e2ec5ba13df088f5e,45,Mężczyzna,2022-05-28_09h20.51.243,task,2021.1.4,Win32,60.16847172,628b806c463b948bc644b84f,6291cce7bf88a1be90e21286,,,,,,,,,,"X V Q F H G B L J M P D K C T S W R N Z
",,,,,,,,,,,,,,,,,,,,,,,,,,,,,,,,,,,,,,,,,,,,,,,,,,,,,,,,,,,,,,,,,,,,,,,,,,,,6,0,6,0,1,,,,,,,,,,,,,
,,,,,,,,,,5ee43a8e2ec5ba13df088f5e,45,Mężczyzna,2022-05-28_09h20.51.243,task,2021.1.4,Win32,60.16847172,628b806c463b948bc644b84f,6291cce7bf88a1be90e21286,,,,,,,,,,,,,,,,,,,,,,,,,,,,,,,,,,,,,,,,,,,,,,,,,,,,,,,,,,,,,,,,,,,,,,,,,,,,,,,,,,,,,,,,,,,njdrwhh,"[""n"",""j"",""d"",""r"",""w"",""h"",""h""]",0,"[5.631500000000187,6.074000000000069,7.573200000047791,8.619900000095413,9.644500000000107,11.623000000000047,11.965099999904623,13.824799999952347]",1,NJDRWHH,6,0,6,0,1,,
,,,,,,,,,,5ee43a8e2ec5ba13df088f5e,45,Mężczyzna,2022-05-28_09h20.51.243,task,2021.1.4,Win32,60.16847172,628b806c463b948bc644b84f,6291cce7bf88a1be90e21286,,,,,,,,,,,,,,,,,,,,,,,1,,,,,,,,,,Task,9,(3x7) - 20,1,,,,,,,,,,,,,,,,,,,1,,,,,,,,,,,,,,,,,,,,,,,"[""1""]",1,[2.7110000000000127],0,0,0,8,1,,,,,,,,,,,,,,,,,,
,,,,,,,,,,5ee43a8e2ec5ba13df088f5e,45,Mężczyzna,2022-05-28_09h20.51.243,task,2021.1.4,Win32,60.16847172,628b806c463b948bc644b84f,6291cce7bf88a1be90e21286,,,,,,,,,,"X V Q F H G B L J M P D K C T S W R N Z
",,,,,,,,,,,,,,,,,,,,,,,,,,,,,,,,,,,,,,,,,,,,,,,,,,,,,,,,,,,,,,,,,,,,,,,,,,,,0,0,0,0,1,,,,,,,,,,,,,
,,,,,,,,,,5ee43a8e2ec5ba13df088f5e,45,Mężczyzna,2022-05-28_09h20.51.243,task,2021.1.4,Win32,60.16847172,628b806c463b948bc644b84f,6291cce7bf88a1be90e21286,,,,,,,,,,,,,,,,,,,,,,,1,,,,,,,,,,Task,1,(12/6) - 1,1,,,,,,,,,,,,,,,,,,,1,,,,,,,,,,,,,,,,,,,,,,,"[""1""]",1,[4.646299999952362],0,0,0,0,1,,,,,,,,,,,,,,,,,,
,,,,,,,,,,5ee43a8e2ec5ba13df088f5e,45,Mężczyzna,2022-05-28_09h20.51.243,task,2021.1.4,Win32,60.16847172,628b806c463b948bc644b84f,6291cce7bf88a1be90e21286,,,,,,,,,,"X V Q F H G B L J M P D K C T S W R N Z
",,,,,,,,,,,,,,,,,,,,,,,,,,,,,,,,,,,,,,,,,,,,,,,,,,,,,,,,,,,,,,,,,,,,,,,,,,,,1,0,1,0,1,,,,,,,,,,,,,
,,,,,,,,,,5ee43a8e2ec5ba13df088f5e,45,Mężczyzna,2022-05-28_09h20.51.243,task,2021.1.4,Win32,60.16847172,628b806c463b948bc644b84f,6291cce7bf88a1be90e21286,,,,,,,,,,,,,,,,,,,,,,,1,,,,,,,,,,Task,34,(9/3) - 2,1,,,,,,,,,,,,,,,,,,,1,,,,,,,,,,,,,,,,,,,,,,,"[""1""]",1,[3.9500000000000455],0,0,0,33,1,,,,,,,,,,,,,,,,,,
,,,,,,,,,,5ee43a8e2ec5ba13df088f5e,45,Mężczyzna,2022-05-28_09h20.51.243,task,2021.1.4,Win32,60.16847172,628b806c463b948bc644b84f,6291cce7bf88a1be90e21286,,,,,,,,,,"X V Q F H G B L J M P D K C T S W R N Z
",,,,,,,,,,,,,,,,,,,,,,,,,,,,,,,,,,,,,,,,,,,,,,,,,,,,,,,,,,,,,,,,,,,,,,,,,,,,2,0,2,0,1,,,,,,,,,,,,,
,,,,,,,,,,5ee43a8e2ec5ba13df088f5e,45,Mężczyzna,2022-05-28_09h20.51.243,task,2021.1.4,Win32,60.16847172,628b806c463b948bc644b84f,6291cce7bf88a1be90e21286,,,,,,,,,,,,,,,,,,,,,,,4,,,,,,,,,,Task,21,(10/2) - 1,4,,,,,,,,,,,,,,,,,,,1,,,,,,,,,,,,,,,,,,,,,,,"[""4""]",1,[3.4539000000952456],0,0,0,20,1,,,,,,,,,,,,,,,,,,
,,,,,,,,,,5ee43a8e2ec5ba13df088f5e,45,Mężczyzna,2022-05-28_09h20.51.243,task,2021.1.4,Win32,60.16847172,628b806c463b948bc644b84f,6291cce7bf88a1be90e21286,,,,,,,,,,"X V Q F H G B L J M P D K C T S W R N Z
",,,,,,,,,,,,,,,,,,,,,,,,,,,,,,,,,,,,,,,,,,,,,,,,,,,,,,,,,,,,,,,,,,,,,,,,,,,,3,0,3,0,1,,,,,,,,,,,,,
,,,,,,,,,,5ee43a8e2ec5ba13df088f5e,45,Mężczyzna,2022-05-28_09h20.51.243,task,2021.1.4,Win32,60.16847172,628b806c463b948bc644b84f,6291cce7bf88a1be90e21286,,,,,,,,,,,,,,,,,,,,,,,5,,,,,,,,,,Task,22,(3x1) + 2,5,,,,,,,,,,,,,,,,,,,1,,,,,,,,,,,,,,,,,,,,,,,"[""5""]",1,[3.3196000001428274],0,0,0,21,1,,,,,,,,,,,,,,,,,,
