key_resp_15.keys,key_resp_15.rt,key_resp_16.keys,key_resp_16.rt,key_resp_4.keys,key_resp_4.rt,next_letter.thisRepN,next_letter.thisTrialN,next_letter.thisN,next_letter.thisIndex,next_letter.ran,letter,participant,Wiek*,Płeć,date,expName,psychopyVersion,OS,frameRate,study_id,session,simple_recall,key_resp_5.keys,key_resp_5.rt,simple_recall_corr,simple_recall_corrkeys,next_level.thisRepN,next_level.thisTrialN,next_level.thisN,next_level.thisIndex,next_level.ran,key_resp_2.keys,key_resp_2.rt,digit_answer,key_resp.keys,key_resp.corr,key_resp.rt,RT_list,next_equation.thisRepN,next_equation.thisTrialN,next_equation.thisN,next_equation.thisIndex,next_equation.ran,Task,Trial,Problem,Operation_answer,processing_score,sumRT,meanRT,sumdiff,sd,RT,key_resp_3.keys,key_resp_3.rt,repeat_practice.thisRepN,repeat_practice.thisTrialN,repeat_practice.thisN,repeat_practice.thisIndex,repeat_practice.ran,key_resp_6.keys,key_resp_6.rt,key_resp_11.keys,key_resp_11.corr,key_resp_11.rt,operation_correct,repeat_if_wrong_prac.thisRepN,repeat_if_wrong_prac.thisTrialN,repeat_if_wrong_prac.thisN,repeat_if_wrong_prac.thisIndex,repeat_if_wrong_prac.ran,span_size_prac.thisRepN,span_size_prac.thisTrialN,span_size_prac.thisN,span_size_prac.thisIndex,span_size_prac.ran,complex_recall_practice,key_resp_9.keys,key_resp_9.corr,key_resp_9.rt,complex_prac_corr,span_recall_prac.thisRepN,span_recall_prac.thisTrialN,span_recall_prac.thisN,span_recall_prac.thisIndex,span_recall_prac.ran,key_resp_10.keys,key_resp_10.rt,key_resp_7.keys,key_resp_7.corr,key_resp_7.rt,repeat_if_wrong.thisRepN,repeat_if_wrong.thisTrialN,repeat_if_wrong.thisN,repeat_if_wrong.thisIndex,repeat_if_wrong.ran,span_size.thisRepN,span_size.thisTrialN,span_size.thisN,span_size.thisIndex,span_size.ran,complex_recall,key_resp_8.keys,key_resp_8.corr,key_resp_8.rt,complex_recall_corr,complex_recall_corrkeys,span_recall.thisRepN,span_recall.thisTrialN,span_recall.thisN,span_recall.thisIndex,span_recall.ran,key_resp_13.keys,key_resp_13.corr,key_resp_13.rt,random_loop.thisRepN,random_loop.thisTrialN,random_loop.thisN,random_loop.thisIndex,random_loop.ran,key_resp_12.keys,key_resp_12.rt
space,4.3682,space,0.6501,space,6.6854,0,0,0,0,1,X V Q F H G B L J M P D K C T S W R N Z,5ee7bb3aded1b807aac68f9f,20,Mężczyzna,2022-06-11_11h15.40.615,task,2021.1.4,Win32,59.91611744,6299f149e92ead563fba08ef,62a45d1b9929010d865390af,,,,,,,,,,,,,,,,,,,,,,,,,,,,,,,,,,,,,,,,,,,,,,,,,,,,,,,,,,,,,,,,,,,,,,,,,,,,,,,,,,,,,,,,,,,,,,,,,,,,,
,,,,,,1,0,1,0,1,X V Q F H G B L J M P D K C T S W R N Z,5ee7bb3aded1b807aac68f9f,20,Mężczyzna,2022-06-11_11h15.40.615,task,2021.1.4,Win32,59.91611744,6299f149e92ead563fba08ef,62a45d1b9929010d865390af,,,,,,,,,,,,,,,,,,,,,,,,,,,,,,,,,,,,,,,,,,,,,,,,,,,,,,,,,,,,,,,,,,,,,,,,,,,,,,,,,,,,,,,,,,,,,,,,,,,,,
,,,,,,,,,,,,5ee7bb3aded1b807aac68f9f,20,Mężczyzna,2022-06-11_11h15.40.615,task,2021.1.4,Win32,59.91611744,6299f149e92ead563fba08ef,62a45d1b9929010d865390af,zd,"[""z"",""d""]","[2.325899999999912,2.6023999999999106,3.787600000000097]",1,ZD,0,0,0,0,1,,,,,,,,,,,,,,,,,,,,,,,,,,,,,,,,,,,,,,,,,,,,,,,,,,,,,,,,,,,,,,,,,,,,,,,,,,,,,,,,,,,,,,,,,,,
,,,,,,0,0,0,0,1,X V Q F H G B L J M P D K C T S W R N Z,5ee7bb3aded1b807aac68f9f,20,Mężczyzna,2022-06-11_11h15.40.615,task,2021.1.4,Win32,59.91611744,6299f149e92ead563fba08ef,62a45d1b9929010d865390af,,,,,,,,,,,,,,,,,,,,,,,,,,,,,,,,,,,,,,,,,,,,,,,,,,,,,,,,,,,,,,,,,,,,,,,,,,,,,,,,,,,,,,,,,,,,,,,,,,,,,
,,,,,,1,0,1,0,1,X V Q F H G B L J M P D K C T S W R N Z,5ee7bb3aded1b807aac68f9f,20,Mężczyzna,2022-06-11_11h15.40.615,task,2021.1.4,Win32,59.91611744,6299f149e92ead563fba08ef,62a45d1b9929010d865390af,,,,,,,,,,,,,,,,,,,,,,,,,,,,,,,,,,,,,,,,,,,,,,,,,,,,,,,,,,,,,,,,,,,,,,,,,,,,,,,,,,,,,,,,,,,,,,,,,,,,,
,,,,,,,,,,,,5ee7bb3aded1b807aac68f9f,20,Mężczyzna,2022-06-11_11h15.40.615,task,2021.1.4,Win32,59.91611744,6299f149e92ead563fba08ef,62a45d1b9929010d865390af,kh,"[""k"",""h""]","[1.2541000000000935,1.6005000000000038,1.8616000000000952]",1,KH,1,0,1,0,1,,,,,,,,,,,,,,,,,,,,,,,,,,,,,,,,,,,,,,,,,,,,,,,,,,,,,,,,,,,,,,,,,,,,,,,,,,,,,,,,,,,,,,,,,,,
,,,,,,0,0,0,0,1,X V Q F H G B L J M P D K C T S W R N Z,5ee7bb3aded1b807aac68f9f,20,Mężczyzna,2022-06-11_11h15.40.615,task,2021.1.4,Win32,59.91611744,6299f149e92ead563fba08ef,62a45d1b9929010d865390af,,,,,,,,,,,,,,,,,,,,,,,,,,,,,,,,,,,,,,,,,,,,,,,,,,,,,,,,,,,,,,,,,,,,,,,,,,,,,,,,,,,,,,,,,,,,,,,,,,,,,
,,,,,,1,0,1,0,1,X V Q F H G B L J M P D K C T S W R N Z,5ee7bb3aded1b807aac68f9f,20,Mężczyzna,2022-06-11_11h15.40.615,task,2021.1.4,Win32,59.91611744,6299f149e92ead563fba08ef,62a45d1b9929010d865390af,,,,,,,,,,,,,,,,,,,,,,,,,,,,,,,,,,,,,,,,,,,,,,,,,,,,,,,,,,,,,,,,,,,,,,,,,,,,,,,,,,,,,,,,,,,,,,,,,,,,,
,,,,,,2,0,2,0,1,X V Q F H G B L J M P D K C T S W R N Z,5ee7bb3aded1b807aac68f9f,20,Mężczyzna,2022-06-11_11h15.40.615,task,2021.1.4,Win32,59.91611744,6299f149e92ead563fba08ef,62a45d1b9929010d865390af,,,,,,,,,,,,,,,,,,,,,,,,,,,,,,,,,,,,,,,,,,,,,,,,,,,,,,,,,,,,,,,,,,,,,,,,,,,,,,,,,,,,,,,,,,,,,,,,,,,,,
,,,,,,,,,,,,5ee7bb3aded1b807aac68f9f,20,Mężczyzna,2022-06-11_11h15.40.615,task,2021.1.4,Win32,59.91611744,6299f149e92ead563fba08ef,62a45d1b9929010d865390af,nck,"[""n"",""c"",""k""]","[0.9546000000000987,1.142299999999814,1.3335000000000008,1.8381000000000967]",1,NCK,2,0,2,0,1,,,,,,,,,,,,,,,,,,,,,,,,,,,,,,,,,,,,,,,,,,,,,,,,,,,,,,,,,,,,,,,,,,,,,,,,,,,,,,,,,,,,,,,,,,,
,,,,,,0,0,0,0,1,X V Q F H G B L J M P D K C T S W R N Z,5ee7bb3aded1b807aac68f9f,20,Mężczyzna,2022-06-11_11h15.40.615,task,2021.1.4,Win32,59.91611744,6299f149e92ead563fba08ef,62a45d1b9929010d865390af,,,,,,,,,,,,,,,,,,,,,,,,,,,,,,,,,,,,,,,,,,,,,,,,,,,,,,,,,,,,,,,,,,,,,,,,,,,,,,,,,,,,,,,,,,,,,,,,,,,,,
,,,,,,1,0,1,0,1,X V Q F H G B L J M P D K C T S W R N Z,5ee7bb3aded1b807aac68f9f,20,Mężczyzna,2022-06-11_11h15.40.615,task,2021.1.4,Win32,59.91611744,6299f149e92ead563fba08ef,62a45d1b9929010d865390af,,,,,,,,,,,,,,,,,,,,,,,,,,,,,,,,,,,,,,,,,,,,,,,,,,,,,,,,,,,,,,,,,,,,,,,,,,,,,,,,,,,,,,,,,,,,,,,,,,,,,
,,,,,,2,0,2,0,1,X V Q F H G B L J M P D K C T S W R N Z,5ee7bb3aded1b807aac68f9f,20,Mężczyzna,2022-06-11_11h15.40.615,task,2021.1.4,Win32,59.91611744,6299f149e92ead563fba08ef,62a45d1b9929010d865390af,,,,,,,,,,,,,,,,,,,,,,,,,,,,,,,,,,,,,,,,,,,,,,,,,,,,,,,,,,,,,,,,,,,,,,,,,,,,,,,,,,,,,,,,,,,,,,,,,,,,,
,,,,,,,,,,,,5ee7bb3aded1b807aac68f9f,20,Mężczyzna,2022-06-11_11h15.40.615,task,2021.1.4,Win32,59.91611744,6299f149e92ead563fba08ef,62a45d1b9929010d865390af,njh,"[""n"",""j"",""h""]","[1.5908000000002858,2.055600000000098,2.559200000000189,2.932600000000093]",0,RJH,3,0,3,0,1,,,,,,,,,,,,,,,,,,,,,,,,,,,,,,,,,,,,,,,,,,,,,,,,,,,,,,,,,,,,,,,,,,,,,,,,,,,,,,,,,,,,,,,,,,,
,,,,,,0,0,0,0,1,X V Q F H G B L J M P D K C T S W R N Z,5ee7bb3aded1b807aac68f9f,20,Mężczyzna,2022-06-11_11h15.40.615,task,2021.1.4,Win32,59.91611744,6299f149e92ead563fba08ef,62a45d1b9929010d865390af,,,,,,,,,,,,,,,,,,,,,,,,,,,,,,,,,,,,,,,,,,,,,,,,,,,,,,,,,,,,,,,,,,,,,,,,,,,,,,,,,,,,,,,,,,,,,,,,,,,,,
,,,,,,1,0,1,0,1,X V Q F H G B L J M P D K C T S W R N Z,5ee7bb3aded1b807aac68f9f,20,Mężczyzna,2022-06-11_11h15.40.615,task,2021.1.4,Win32,59.91611744,6299f149e92ead563fba08ef,62a45d1b9929010d865390af,,,,,,,,,,,,,,,,,,,,,,,,,,,,,,,,,,,,,,,,,,,,,,,,,,,,,,,,,,,,,,,,,,,,,,,,,,,,,,,,,,,,,,,,,,,,,,,,,,,,,
,,,,,,2,0,2,0,1,X V Q F H G B L J M P D K C T S W R N Z,5ee7bb3aded1b807aac68f9f,20,Mężczyzna,2022-06-11_11h15.40.615,task,2021.1.4,Win32,59.91611744,6299f149e92ead563fba08ef,62a45d1b9929010d865390af,,,,,,,,,,,,,,,,,,,,,,,,,,,,,,,,,,,,,,,,,,,,,,,,,,,,,,,,,,,,,,,,,,,,,,,,,,,,,,,,,,,,,,,,,,,,,,,,,,,,,
,,,,,,,,,,,,5ee7bb3aded1b807aac68f9f,20,Mężczyzna,2022-06-11_11h15.40.615,task,2021.1.4,Win32,59.91611744,6299f149e92ead563fba08ef,62a45d1b9929010d865390af,dvf,"[""d"",""v"",""f""]","[1.7736000000001013,2.2341000000000975,3.57680000000029,4.1822000000001935]",1,DVF,4,0,4,0,1,,,,,,,,,,,,,,,,,,,,,,,,,,,,,,,,,,,,,,,,,,,,,,,,,,,,,,,,,,,,,,,,,,,,,,,,,,,,,,,,,,,,,,,,,,,
,,,,,,0,0,0,0,1,X V Q F H G B L J M P D K C T S W R N Z,5ee7bb3aded1b807aac68f9f,20,Mężczyzna,2022-06-11_11h15.40.615,task,2021.1.4,Win32,59.91611744,6299f149e92ead563fba08ef,62a45d1b9929010d865390af,,,,,,,,,,,,,,,,,,,,,,,,,,,,,,,,,,,,,,,,,,,,,,,,,,,,,,,,,,,,,,,,,,,,,,,,,,,,,,,,,,,,,,,,,,,,,,,,,,,,,
,,,,,,1,0,1,0,1,X V Q F H G B L J M P D K C T S W R N Z,5ee7bb3aded1b807aac68f9f,20,Mężczyzna,2022-06-11_11h15.40.615,task,2021.1.4,Win32,59.91611744,6299f149e92ead563fba08ef,62a45d1b9929010d865390af,,,,,,,,,,,,,,,,,,,,,,,,,,,,,,,,,,,,,,,,,,,,,,,,,,,,,,,,,,,,,,,,,,,,,,,,,,,,,,,,,,,,,,,,,,,,,,,,,,,,,
,,,,,,2,0,2,0,1,X V Q F H G B L J M P D K C T S W R N Z,5ee7bb3aded1b807aac68f9f,20,Mężczyzna,2022-06-11_11h15.40.615,task,2021.1.4,Win32,59.91611744,6299f149e92ead563fba08ef,62a45d1b9929010d865390af,,,,,,,,,,,,,,,,,,,,,,,,,,,,,,,,,,,,,,,,,,,,,,,,,,,,,,,,,,,,,,,,,,,,,,,,,,,,,,,,,,,,,,,,,,,,,,,,,,,,,
,,,,,,3,0,3,0,1,X V Q F H G B L J M P D K C T S W R N Z,5ee7bb3aded1b807aac68f9f,20,Mężczyzna,2022-06-11_11h15.40.615,task,2021.1.4,Win32,59.91611744,6299f149e92ead563fba08ef,62a45d1b9929010d865390af,,,,,,,,,,,,,,,,,,,,,,,,,,,,,,,,,,,,,,,,,,,,,,,,,,,,,,,,,,,,,,,,,,,,,,,,,,,,,,,,,,,,,,,,,,,,,,,,,,,,,
,,,,,,,,,,,,5ee7bb3aded1b807aac68f9f,20,Mężczyzna,2022-06-11_11h15.40.615,task,2021.1.4,Win32,59.91611744,6299f149e92ead563fba08ef,62a45d1b9929010d865390af,nmjz,"[""n"",""m"",""j"",""z""]","[0.7605000000000075,0.9771000000000925,1.1530000000000058,1.3296000000000987,1.5646000000000981]",1,NMJZ,5,0,5,0,1,,,,,,,,,,,,,,,,,,,,,,,,,,,,,,,,,,,,,,,,,,,,,,,,,,,,,,,,,,,,,,,,,,,,,,,,,,,,,,,,,,,,,,,,,,,
,,,,,,0,0,0,0,1,X V Q F H G B L J M P D K C T S W R N Z,5ee7bb3aded1b807aac68f9f,20,Mężczyzna,2022-06-11_11h15.40.615,task,2021.1.4,Win32,59.91611744,6299f149e92ead563fba08ef,62a45d1b9929010d865390af,,,,,,,,,,,,,,,,,,,,,,,,,,,,,,,,,,,,,,,,,,,,,,,,,,,,,,,,,,,,,,,,,,,,,,,,,,,,,,,,,,,,,,,,,,,,,,,,,,,,,
,,,,,,1,0,1,0,1,X V Q F H G B L J M P D K C T S W R N Z,5ee7bb3aded1b807aac68f9f,20,Mężczyzna,2022-06-11_11h15.40.615,task,2021.1.4,Win32,59.91611744,6299f149e92ead563fba08ef,62a45d1b9929010d865390af,,,,,,,,,,,,,,,,,,,,,,,,,,,,,,,,,,,,,,,,,,,,,,,,,,,,,,,,,,,,,,,,,,,,,,,,,,,,,,,,,,,,,,,,,,,,,,,,,,,,,
,,,,,,2,0,2,0,1,X V Q F H G B L J M P D K C T S W R N Z,5ee7bb3aded1b807aac68f9f,20,Mężczyzna,2022-06-11_11h15.40.615,task,2021.1.4,Win32,59.91611744,6299f149e92ead563fba08ef,62a45d1b9929010d865390af,,,,,,,,,,,,,,,,,,,,,,,,,,,,,,,,,,,,,,,,,,,,,,,,,,,,,,,,,,,,,,,,,,,,,,,,,,,,,,,,,,,,,,,,,,,,,,,,,,,,,
,,,,,,3,0,3,0,1,X V Q F H G B L J M P D K C T S W R N Z,5ee7bb3aded1b807aac68f9f,20,Mężczyzna,2022-06-11_11h15.40.615,task,2021.1.4,Win32,59.91611744,6299f149e92ead563fba08ef,62a45d1b9929010d865390af,,,,,,,,,,,,,,,,,,,,,,,,,,,,,,,,,,,,,,,,,,,,,,,,,,,,,,,,,,,,,,,,,,,,,,,,,,,,,,,,,,,,,,,,,,,,,,,,,,,,,
,,,,,,,,,,,,5ee7bb3aded1b807aac68f9f,20,Mężczyzna,2022-06-11_11h15.40.615,task,2021.1.4,Win32,59.91611744,6299f149e92ead563fba08ef,62a45d1b9929010d865390af,lxql,"[""l"",""x"",""q"",""l""]","[1.1667999999998102,1.3261000000000962,1.5201000000000846,1.8701000000000931,2.4552999999998093]",1,LXQL,6,0,6,0,1,,,,,,,,,,,,,,,,,,,,,,,,,,,,,,,,,,,,,,,,,,,,,,,,,,,,,,,,,,,,,,,,,,,,,,,,,,,,,,,,,,,,,,,,,,,
,,,,,,0,0,0,0,1,X V Q F H G B L J M P D K C T S W R N Z,5ee7bb3aded1b807aac68f9f,20,Mężczyzna,2022-06-11_11h15.40.615,task,2021.1.4,Win32,59.91611744,6299f149e92ead563fba08ef,62a45d1b9929010d865390af,,,,,,,,,,,,,,,,,,,,,,,,,,,,,,,,,,,,,,,,,,,,,,,,,,,,,,,,,,,,,,,,,,,,,,,,,,,,,,,,,,,,,,,,,,,,,,,,,,,,,
,,,,,,1,0,1,0,1,X V Q F H G B L J M P D K C T S W R N Z,5ee7bb3aded1b807aac68f9f,20,Mężczyzna,2022-06-11_11h15.40.615,task,2021.1.4,Win32,59.91611744,6299f149e92ead563fba08ef,62a45d1b9929010d865390af,,,,,,,,,,,,,,,,,,,,,,,,,,,,,,,,,,,,,,,,,,,,,,,,,,,,,,,,,,,,,,,,,,,,,,,,,,,,,,,,,,,,,,,,,,,,,,,,,,,,,
,,,,,,2,0,2,0,1,X V Q F H G B L J M P D K C T S W R N Z,5ee7bb3aded1b807aac68f9f,20,Mężczyzna,2022-06-11_11h15.40.615,task,2021.1.4,Win32,59.91611744,6299f149e92ead563fba08ef,62a45d1b9929010d865390af,,,,,,,,,,,,,,,,,,,,,,,,,,,,,,,,,,,,,,,,,,,,,,,,,,,,,,,,,,,,,,,,,,,,,,,,,,,,,,,,,,,,,,,,,,,,,,,,,,,,,
,,,,,,3,0,3,0,1,X V Q F H G B L J M P D K C T S W R N Z,5ee7bb3aded1b807aac68f9f,20,Mężczyzna,2022-06-11_11h15.40.615,task,2021.1.4,Win32,59.91611744,6299f149e92ead563fba08ef,62a45d1b9929010d865390af,,,,,,,,,,,,,,,,,,,,,,,,,,,,,,,,,,,,,,,,,,,,,,,,,,,,,,,,,,,,,,,,,,,,,,,,,,,,,,,,,,,,,,,,,,,,,,,,,,,,,
,,,,,,4,0,4,0,1,X V Q F H G B L J M P D K C T S W R N Z,5ee7bb3aded1b807aac68f9f,20,Mężczyzna,2022-06-11_11h15.40.615,task,2021.1.4,Win32,59.91611744,6299f149e92ead563fba08ef,62a45d1b9929010d865390af,,,,,,,,,,,,,,,,,,,,,,,,,,,,,,,,,,,,,,,,,,,,,,,,,,,,,,,,,,,,,,,,,,,,,,,,,,,,,,,,,,,,,,,,,,,,,,,,,,,,,
,,,,,,,,,,,,5ee7bb3aded1b807aac68f9f,20,Mężczyzna,2022-06-11_11h15.40.615,task,2021.1.4,Win32,59.91611744,6299f149e92ead563fba08ef,62a45d1b9929010d865390af,vdtnb,"[""v"",""d"",""t"",""n"",""b""]","[0.49269999999972924,0.7853999999999104,1.2086999999997232,1.5775000000000006,2.736000000000004,3.2750999999996395]",1,VDTNB,7,0,7,0,1,,,,,,,,,,,,,,,,,,,,,,,,,,,,,,,,,,,,,,,,,,,,,,,,,,,,,,,,,,,,,,,,,,,,,,,,,,,,,,,,,,,,,,,,,,,
,,,,,,0,0,0,0,1,X V Q F H G B L J M P D K C T S W R N Z,5ee7bb3aded1b807aac68f9f,20,Mężczyzna,2022-06-11_11h15.40.615,task,2021.1.4,Win32,59.91611744,6299f149e92ead563fba08ef,62a45d1b9929010d865390af,,,,,,,,,,,,,,,,,,,,,,,,,,,,,,,,,,,,,,,,,,,,,,,,,,,,,,,,,,,,,,,,,,,,,,,,,,,,,,,,,,,,,,,,,,,,,,,,,,,,,
,,,,,,1,0,1,0,1,X V Q F H G B L J M P D K C T S W R N Z,5ee7bb3aded1b807aac68f9f,20,Mężczyzna,2022-06-11_11h15.40.615,task,2021.1.4,Win32,59.91611744,6299f149e92ead563fba08ef,62a45d1b9929010d865390af,,,,,,,,,,,,,,,,,,,,,,,,,,,,,,,,,,,,,,,,,,,,,,,,,,,,,,,,,,,,,,,,,,,,,,,,,,,,,,,,,,,,,,,,,,,,,,,,,,,,,
,,,,,,2,0,2,0,1,X V Q F H G B L J M P D K C T S W R N Z,5ee7bb3aded1b807aac68f9f,20,Mężczyzna,2022-06-11_11h15.40.615,task,2021.1.4,Win32,59.91611744,6299f149e92ead563fba08ef,62a45d1b9929010d865390af,,,,,,,,,,,,,,,,,,,,,,,,,,,,,,,,,,,,,,,,,,,,,,,,,,,,,,,,,,,,,,,,,,,,,,,,,,,,,,,,,,,,,,,,,,,,,,,,,,,,,
,,,,,,3,0,3,0,1,X V Q F H G B L J M P D K C T S W R N Z,5ee7bb3aded1b807aac68f9f,20,Mężczyzna,2022-06-11_11h15.40.615,task,2021.1.4,Win32,59.91611744,6299f149e92ead563fba08ef,62a45d1b9929010d865390af,,,,,,,,,,,,,,,,,,,,,,,,,,,,,,,,,,,,,,,,,,,,,,,,,,,,,,,,,,,,,,,,,,,,,,,,,,,,,,,,,,,,,,,,,,,,,,,,,,,,,
,,,,,,4,0,4,0,1,X V Q F H G B L J M P D K C T S W R N Z,5ee7bb3aded1b807aac68f9f,20,Mężczyzna,2022-06-11_11h15.40.615,task,2021.1.4,Win32,59.91611744,6299f149e92ead563fba08ef,62a45d1b9929010d865390af,,,,,,,,,,,,,,,,,,,,,,,,,,,,,,,,,,,,,,,,,,,,,,,,,,,,,,,,,,,,,,,,,,,,,,,,,,,,,,,,,,,,,,,,,,,,,,,,,,,,,
,,,,,,,,,,,,5ee7bb3aded1b807aac68f9f,20,Mężczyzna,2022-06-11_11h15.40.615,task,2021.1.4,Win32,59.91611744,6299f149e92ead563fba08ef,62a45d1b9929010d865390af,mxsfm,"[""m"",""x"",""s"",""f"",""m""]","[0.8419999999999987,1.1520999999996349,1.581299999999814,2.5655,2.7434999999999974,3.47329999999981]",0,MXSMF,8,0,8,0,1,,,,,,,,,,,,,,,,,,,,,,,,,,,,,,,,,,,,,,,,,,,,,,,,,,,,,,,,,,,,,,,,,,,,,,,,,,,,,,,,,,,,,,,,,,,
,,,,,,0,0,0,0,1,X V Q F H G B L J M P D K C T S W R N Z,5ee7bb3aded1b807aac68f9f,20,Mężczyzna,2022-06-11_11h15.40.615,task,2021.1.4,Win32,59.91611744,6299f149e92ead563fba08ef,62a45d1b9929010d865390af,,,,,,,,,,,,,,,,,,,,,,,,,,,,,,,,,,,,,,,,,,,,,,,,,,,,,,,,,,,,,,,,,,,,,,,,,,,,,,,,,,,,,,,,,,,,,,,,,,,,,
,,,,,,1,0,1,0,1,X V Q F H G B L J M P D K C T S W R N Z,5ee7bb3aded1b807aac68f9f,20,Mężczyzna,2022-06-11_11h15.40.615,task,2021.1.4,Win32,59.91611744,6299f149e92ead563fba08ef,62a45d1b9929010d865390af,,,,,,,,,,,,,,,,,,,,,,,,,,,,,,,,,,,,,,,,,,,,,,,,,,,,,,,,,,,,,,,,,,,,,,,,,,,,,,,,,,,,,,,,,,,,,,,,,,,,,
,,,,,,2,0,2,0,1,X V Q F H G B L J M P D K C T S W R N Z,5ee7bb3aded1b807aac68f9f,20,Mężczyzna,2022-06-11_11h15.40.615,task,2021.1.4,Win32,59.91611744,6299f149e92ead563fba08ef,62a45d1b9929010d865390af,,,,,,,,,,,,,,,,,,,,,,,,,,,,,,,,,,,,,,,,,,,,,,,,,,,,,,,,,,,,,,,,,,,,,,,,,,,,,,,,,,,,,,,,,,,,,,,,,,,,,
,,,,,,3,0,3,0,1,X V Q F H G B L J M P D K C T S W R N Z,5ee7bb3aded1b807aac68f9f,20,Mężczyzna,2022-06-11_11h15.40.615,task,2021.1.4,Win32,59.91611744,6299f149e92ead563fba08ef,62a45d1b9929010d865390af,,,,,,,,,,,,,,,,,,,,,,,,,,,,,,,,,,,,,,,,,,,,,,,,,,,,,,,,,,,,,,,,,,,,,,,,,,,,,,,,,,,,,,,,,,,,,,,,,,,,,
,,,,,,4,0,4,0,1,X V Q F H G B L J M P D K C T S W R N Z,5ee7bb3aded1b807aac68f9f,20,Mężczyzna,2022-06-11_11h15.40.615,task,2021.1.4,Win32,59.91611744,6299f149e92ead563fba08ef,62a45d1b9929010d865390af,,,,,,,,,,,,,,,,,,,,,,,,,,,,,,,,,,,,,,,,,,,,,,,,,,,,,,,,,,,,,,,,,,,,,,,,,,,,,,,,,,,,,,,,,,,,,,,,,,,,,
,,,,,,,,,,,,5ee7bb3aded1b807aac68f9f,20,Mężczyzna,2022-06-11_11h15.40.615,task,2021.1.4,Win32,59.91611744,6299f149e92ead563fba08ef,62a45d1b9929010d865390af,scmhs,"[""s"",""c"",""m"",""h"",""s""]","[0.9996000000000862,1.546700000000186,1.7813999999999055,2.0927000000001783,3.410700000000176,3.578600000000094]",0,SMVHS,9,0,9,0,1,,,,,,,,,,,,,,,,,,,,,,,,,,,,,,,,,,,,,,,,,,,,,,,,,,,,,,,,,,,,,,,,,,,,,,,,,,,,,,,,,,,,,,,,,,,
,,,,,,0,0,0,0,1,X V Q F H G B L J M P D K C T S W R N Z,5ee7bb3aded1b807aac68f9f,20,Mężczyzna,2022-06-11_11h15.40.615,task,2021.1.4,Win32,59.91611744,6299f149e92ead563fba08ef,62a45d1b9929010d865390af,,,,,,,,,,,,,,,,,,,,,,,,,,,,,,,,,,,,,,,,,,,,,,,,,,,,,,,,,,,,,,,,,,,,,,,,,,,,,,,,,,,,,,,,,,,,,,,,,,,,,
,,,,,,1,0,1,0,1,X V Q F H G B L J M P D K C T S W R N Z,5ee7bb3aded1b807aac68f9f,20,Mężczyzna,2022-06-11_11h15.40.615,task,2021.1.4,Win32,59.91611744,6299f149e92ead563fba08ef,62a45d1b9929010d865390af,,,,,,,,,,,,,,,,,,,,,,,,,,,,,,,,,,,,,,,,,,,,,,,,,,,,,,,,,,,,,,,,,,,,,,,,,,,,,,,,,,,,,,,,,,,,,,,,,,,,,
,,,,,,2,0,2,0,1,X V Q F H G B L J M P D K C T S W R N Z,5ee7bb3aded1b807aac68f9f,20,Mężczyzna,2022-06-11_11h15.40.615,task,2021.1.4,Win32,59.91611744,6299f149e92ead563fba08ef,62a45d1b9929010d865390af,,,,,,,,,,,,,,,,,,,,,,,,,,,,,,,,,,,,,,,,,,,,,,,,,,,,,,,,,,,,,,,,,,,,,,,,,,,,,,,,,,,,,,,,,,,,,,,,,,,,,
,,,,,,3,0,3,0,1,X V Q F H G B L J M P D K C T S W R N Z,5ee7bb3aded1b807aac68f9f,20,Mężczyzna,2022-06-11_11h15.40.615,task,2021.1.4,Win32,59.91611744,6299f149e92ead563fba08ef,62a45d1b9929010d865390af,,,,,,,,,,,,,,,,,,,,,,,,,,,,,,,,,,,,,,,,,,,,,,,,,,,,,,,,,,,,,,,,,,,,,,,,,,,,,,,,,,,,,,,,,,,,,,,,,,,,,
,,,,,,4,0,4,0,1,X V Q F H G B L J M P D K C T S W R N Z,5ee7bb3aded1b807aac68f9f,20,Mężczyzna,2022-06-11_11h15.40.615,task,2021.1.4,Win32,59.91611744,6299f149e92ead563fba08ef,62a45d1b9929010d865390af,,,,,,,,,,,,,,,,,,,,,,,,,,,,,,,,,,,,,,,,,,,,,,,,,,,,,,,,,,,,,,,,,,,,,,,,,,,,,,,,,,,,,,,,,,,,,,,,,,,,,
,,,,,,,,,,,,5ee7bb3aded1b807aac68f9f,20,Mężczyzna,2022-06-11_11h15.40.615,task,2021.1.4,Win32,59.91611744,6299f149e92ead563fba08ef,62a45d1b9929010d865390af,spzjq,"[""s"",""p"",""z"",""j"",""q""]","[0.6990000000000265,0.9377000000002198,1.1548999999999268,1.592600000000104,1.964899999999929,2.1805000000000376]",1,SPZJQ,10,0,10,0,1,,,,,,,,,,,,,,,,,,,,,,,,,,,,,,,,,,,,,,,,,,,,,,,,,,,,,,,,,,,,,,,,,,,,,,,,,,,,,,,,,,,,,,,,,,,
,,,,,,0,0,0,0,1,X V Q F H G B L J M P D K C T S W R N Z,5ee7bb3aded1b807aac68f9f,20,Mężczyzna,2022-06-11_11h15.40.615,task,2021.1.4,Win32,59.91611744,6299f149e92ead563fba08ef,62a45d1b9929010d865390af,,,,,,,,,,,,,,,,,,,,,,,,,,,,,,,,,,,,,,,,,,,,,,,,,,,,,,,,,,,,,,,,,,,,,,,,,,,,,,,,,,,,,,,,,,,,,,,,,,,,,
,,,,,,1,0,1,0,1,X V Q F H G B L J M P D K C T S W R N Z,5ee7bb3aded1b807aac68f9f,20,Mężczyzna,2022-06-11_11h15.40.615,task,2021.1.4,Win32,59.91611744,6299f149e92ead563fba08ef,62a45d1b9929010d865390af,,,,,,,,,,,,,,,,,,,,,,,,,,,,,,,,,,,,,,,,,,,,,,,,,,,,,,,,,,,,,,,,,,,,,,,,,,,,,,,,,,,,,,,,,,,,,,,,,,,,,
,,,,,,2,0,2,0,1,X V Q F H G B L J M P D K C T S W R N Z,5ee7bb3aded1b807aac68f9f,20,Mężczyzna,2022-06-11_11h15.40.615,task,2021.1.4,Win32,59.91611744,6299f149e92ead563fba08ef,62a45d1b9929010d865390af,,,,,,,,,,,,,,,,,,,,,,,,,,,,,,,,,,,,,,,,,,,,,,,,,,,,,,,,,,,,,,,,,,,,,,,,,,,,,,,,,,,,,,,,,,,,,,,,,,,,,
,,,,,,3,0,3,0,1,X V Q F H G B L J M P D K C T S W R N Z,5ee7bb3aded1b807aac68f9f,20,Mężczyzna,2022-06-11_11h15.40.615,task,2021.1.4,Win32,59.91611744,6299f149e92ead563fba08ef,62a45d1b9929010d865390af,,,,,,,,,,,,,,,,,,,,,,,,,,,,,,,,,,,,,,,,,,,,,,,,,,,,,,,,,,,,,,,,,,,,,,,,,,,,,,,,,,,,,,,,,,,,,,,,,,,,,
,,,,,,4,0,4,0,1,X V Q F H G B L J M P D K C T S W R N Z,5ee7bb3aded1b807aac68f9f,20,Mężczyzna,2022-06-11_11h15.40.615,task,2021.1.4,Win32,59.91611744,6299f149e92ead563fba08ef,62a45d1b9929010d865390af,,,,,,,,,,,,,,,,,,,,,,,,,,,,,,,,,,,,,,,,,,,,,,,,,,,,,,,,,,,,,,,,,,,,,,,,,,,,,,,,,,,,,,,,,,,,,,,,,,,,,
,,,,,,5,0,5,0,1,X V Q F H G B L J M P D K C T S W R N Z,5ee7bb3aded1b807aac68f9f,20,Mężczyzna,2022-06-11_11h15.40.615,task,2021.1.4,Win32,59.91611744,6299f149e92ead563fba08ef,62a45d1b9929010d865390af,,,,,,,,,,,,,,,,,,,,,,,,,,,,,,,,,,,,,,,,,,,,,,,,,,,,,,,,,,,,,,,,,,,,,,,,,,,,,,,,,,,,,,,,,,,,,,,,,,,,,
,,,,,,,,,,,,5ee7bb3aded1b807aac68f9f,20,Mężczyzna,2022-06-11_11h15.40.615,task,2021.1.4,Win32,59.91611744,6299f149e92ead563fba08ef,62a45d1b9929010d865390af,ndjbvb,"[""n"",""d"",""j"",""b"",""v"",""b""]","[0.5491000000000952,3.6214000000003637,3.9546000000000845,4.332999999999998,5.0586000000000695,5.243300000000261,5.705800000000266]",1,NDJBVB,11,0,11,0,1,,,,,,,,,,,,,,,,,,,,,,,,,,,,,,,,,,,,,,,,,,,,,,,,,,,,,,,,,,,,,,,,,,,,,,,,,,,,,,,,,,,,,,,,,,,
,,,,,,0,0,0,0,1,X V Q F H G B L J M P D K C T S W R N Z,5ee7bb3aded1b807aac68f9f,20,Mężczyzna,2022-06-11_11h15.40.615,task,2021.1.4,Win32,59.91611744,6299f149e92ead563fba08ef,62a45d1b9929010d865390af,,,,,,,,,,,,,,,,,,,,,,,,,,,,,,,,,,,,,,,,,,,,,,,,,,,,,,,,,,,,,,,,,,,,,,,,,,,,,,,,,,,,,,,,,,,,,,,,,,,,,
,,,,,,1,0,1,0,1,X V Q F H G B L J M P D K C T S W R N Z,5ee7bb3aded1b807aac68f9f,20,Mężczyzna,2022-06-11_11h15.40.615,task,2021.1.4,Win32,59.91611744,6299f149e92ead563fba08ef,62a45d1b9929010d865390af,,,,,,,,,,,,,,,,,,,,,,,,,,,,,,,,,,,,,,,,,,,,,,,,,,,,,,,,,,,,,,,,,,,,,,,,,,,,,,,,,,,,,,,,,,,,,,,,,,,,,
,,,,,,2,0,2,0,1,X V Q F H G B L J M P D K C T S W R N Z,5ee7bb3aded1b807aac68f9f,20,Mężczyzna,2022-06-11_11h15.40.615,task,2021.1.4,Win32,59.91611744,6299f149e92ead563fba08ef,62a45d1b9929010d865390af,,,,,,,,,,,,,,,,,,,,,,,,,,,,,,,,,,,,,,,,,,,,,,,,,,,,,,,,,,,,,,,,,,,,,,,,,,,,,,,,,,,,,,,,,,,,,,,,,,,,,
,,,,,,3,0,3,0,1,X V Q F H G B L J M P D K C T S W R N Z,5ee7bb3aded1b807aac68f9f,20,Mężczyzna,2022-06-11_11h15.40.615,task,2021.1.4,Win32,59.91611744,6299f149e92ead563fba08ef,62a45d1b9929010d865390af,,,,,,,,,,,,,,,,,,,,,,,,,,,,,,,,,,,,,,,,,,,,,,,,,,,,,,,,,,,,,,,,,,,,,,,,,,,,,,,,,,,,,,,,,,,,,,,,,,,,,
,,,,,,4,0,4,0,1,X V Q F H G B L J M P D K C T S W R N Z,5ee7bb3aded1b807aac68f9f,20,Mężczyzna,2022-06-11_11h15.40.615,task,2021.1.4,Win32,59.91611744,6299f149e92ead563fba08ef,62a45d1b9929010d865390af,,,,,,,,,,,,,,,,,,,,,,,,,,,,,,,,,,,,,,,,,,,,,,,,,,,,,,,,,,,,,,,,,,,,,,,,,,,,,,,,,,,,,,,,,,,,,,,,,,,,,
,,,,,,5,0,5,0,1,X V Q F H G B L J M P D K C T S W R N Z,5ee7bb3aded1b807aac68f9f,20,Mężczyzna,2022-06-11_11h15.40.615,task,2021.1.4,Win32,59.91611744,6299f149e92ead563fba08ef,62a45d1b9929010d865390af,,,,,,,,,,,,,,,,,,,,,,,,,,,,,,,,,,,,,,,,,,,,,,,,,,,,,,,,,,,,,,,,,,,,,,,,,,,,,,,,,,,,,,,,,,,,,,,,,,,,,
,,,,,,,,,,,,5ee7bb3aded1b807aac68f9f,20,Mężczyzna,2022-06-11_11h15.40.615,task,2021.1.4,Win32,59.91611744,6299f149e92ead563fba08ef,62a45d1b9929010d865390af,zhwxvw,"[""z"",""h"",""w"",""x"",""v"",""w""]","[1.5461000000001093,2.1670000000000016,3.2498000000002776,4.233500000000021,5.599899999999906,6.049800000000289,6.477000000000004]",0,ZHWXFW,12,0,12,0,1,,,,,,,,,,,,,,,,,,,,,,,,,,,,,,,,,,,,,,,,,,,,,,,,,,,,,,,,,,,,,,,,,,,,,,,,,,,,,,,,,,,,,,,,,,,
,,,,,,0,0,0,0,1,X V Q F H G B L J M P D K C T S W R N Z,5ee7bb3aded1b807aac68f9f,20,Mężczyzna,2022-06-11_11h15.40.615,task,2021.1.4,Win32,59.91611744,6299f149e92ead563fba08ef,62a45d1b9929010d865390af,,,,,,,,,,,,,,,,,,,,,,,,,,,,,,,,,,,,,,,,,,,,,,,,,,,,,,,,,,,,,,,,,,,,,,,,,,,,,,,,,,,,,,,,,,,,,,,,,,,,,
,,,,,,1,0,1,0,1,X V Q F H G B L J M P D K C T S W R N Z,5ee7bb3aded1b807aac68f9f,20,Mężczyzna,2022-06-11_11h15.40.615,task,2021.1.4,Win32,59.91611744,6299f149e92ead563fba08ef,62a45d1b9929010d865390af,,,,,,,,,,,,,,,,,,,,,,,,,,,,,,,,,,,,,,,,,,,,,,,,,,,,,,,,,,,,,,,,,,,,,,,,,,,,,,,,,,,,,,,,,,,,,,,,,,,,,
,,,,,,2,0,2,0,1,X V Q F H G B L J M P D K C T S W R N Z,5ee7bb3aded1b807aac68f9f,20,Mężczyzna,2022-06-11_11h15.40.615,task,2021.1.4,Win32,59.91611744,6299f149e92ead563fba08ef,62a45d1b9929010d865390af,,,,,,,,,,,,,,,,,,,,,,,,,,,,,,,,,,,,,,,,,,,,,,,,,,,,,,,,,,,,,,,,,,,,,,,,,,,,,,,,,,,,,,,,,,,,,,,,,,,,,
,,,,,,3,0,3,0,1,X V Q F H G B L J M P D K C T S W R N Z,5ee7bb3aded1b807aac68f9f,20,Mężczyzna,2022-06-11_11h15.40.615,task,2021.1.4,Win32,59.91611744,6299f149e92ead563fba08ef,62a45d1b9929010d865390af,,,,,,,,,,,,,,,,,,,,,,,,,,,,,,,,,,,,,,,,,,,,,,,,,,,,,,,,,,,,,,,,,,,,,,,,,,,,,,,,,,,,,,,,,,,,,,,,,,,,,
,,,,,,4,0,4,0,1,X V Q F H G B L J M P D K C T S W R N Z,5ee7bb3aded1b807aac68f9f,20,Mężczyzna,2022-06-11_11h15.40.615,task,2021.1.4,Win32,59.91611744,6299f149e92ead563fba08ef,62a45d1b9929010d865390af,,,,,,,,,,,,,,,,,,,,,,,,,,,,,,,,,,,,,,,,,,,,,,,,,,,,,,,,,,,,,,,,,,,,,,,,,,,,,,,,,,,,,,,,,,,,,,,,,,,,,
,,,,,,5,0,5,0,1,X V Q F H G B L J M P D K C T S W R N Z,5ee7bb3aded1b807aac68f9f,20,Mężczyzna,2022-06-11_11h15.40.615,task,2021.1.4,Win32,59.91611744,6299f149e92ead563fba08ef,62a45d1b9929010d865390af,,,,,,,,,,,,,,,,,,,,,,,,,,,,,,,,,,,,,,,,,,,,,,,,,,,,,,,,,,,,,,,,,,,,,,,,,,,,,,,,,,,,,,,,,,,,,,,,,,,,,
,,,,,,,,,,,,5ee7bb3aded1b807aac68f9f,20,Mężczyzna,2022-06-11_11h15.40.615,task,2021.1.4,Win32,59.91611744,6299f149e92ead563fba08ef,62a45d1b9929010d865390af,snjwv,"[""s"",""n"",""j"",""w"",""v""]","[4.405200000000178,4.560400000000357,4.750300000000266,5.187300000000278,6.151499999999999,6.561600000000084]",0,SNVJWZ,13,0,13,0,1,,,,,,,,,,,,,,,,,,,,,,,,,,,,,,,,,,,,,,,,,,,,,,,,,,,,,,,,,,,,,,,,,,,,,,,,,,,,,,,,,,,,,,,,,,,
,,,,,,0,0,0,0,1,X V Q F H G B L J M P D K C T S W R N Z,5ee7bb3aded1b807aac68f9f,20,Mężczyzna,2022-06-11_11h15.40.615,task,2021.1.4,Win32,59.91611744,6299f149e92ead563fba08ef,62a45d1b9929010d865390af,,,,,,,,,,,,,,,,,,,,,,,,,,,,,,,,,,,,,,,,,,,,,,,,,,,,,,,,,,,,,,,,,,,,,,,,,,,,,,,,,,,,,,,,,,,,,,,,,,,,,
,,,,,,1,0,1,0,1,X V Q F H G B L J M P D K C T S W R N Z,5ee7bb3aded1b807aac68f9f,20,Mężczyzna,2022-06-11_11h15.40.615,task,2021.1.4,Win32,59.91611744,6299f149e92ead563fba08ef,62a45d1b9929010d865390af,,,,,,,,,,,,,,,,,,,,,,,,,,,,,,,,,,,,,,,,,,,,,,,,,,,,,,,,,,,,,,,,,,,,,,,,,,,,,,,,,,,,,,,,,,,,,,,,,,,,,
,,,,,,2,0,2,0,1,X V Q F H G B L J M P D K C T S W R N Z,5ee7bb3aded1b807aac68f9f,20,Mężczyzna,2022-06-11_11h15.40.615,task,2021.1.4,Win32,59.91611744,6299f149e92ead563fba08ef,62a45d1b9929010d865390af,,,,,,,,,,,,,,,,,,,,,,,,,,,,,,,,,,,,,,,,,,,,,,,,,,,,,,,,,,,,,,,,,,,,,,,,,,,,,,,,,,,,,,,,,,,,,,,,,,,,,
,,,,,,3,0,3,0,1,X V Q F H G B L J M P D K C T S W R N Z,5ee7bb3aded1b807aac68f9f,20,Mężczyzna,2022-06-11_11h15.40.615,task,2021.1.4,Win32,59.91611744,6299f149e92ead563fba08ef,62a45d1b9929010d865390af,,,,,,,,,,,,,,,,,,,,,,,,,,,,,,,,,,,,,,,,,,,,,,,,,,,,,,,,,,,,,,,,,,,,,,,,,,,,,,,,,,,,,,,,,,,,,,,,,,,,,
,,,,,,4,0,4,0,1,X V Q F H G B L J M P D K C T S W R N Z,5ee7bb3aded1b807aac68f9f,20,Mężczyzna,2022-06-11_11h15.40.615,task,2021.1.4,Win32,59.91611744,6299f149e92ead563fba08ef,62a45d1b9929010d865390af,,,,,,,,,,,,,,,,,,,,,,,,,,,,,,,,,,,,,,,,,,,,,,,,,,,,,,,,,,,,,,,,,,,,,,,,,,,,,,,,,,,,,,,,,,,,,,,,,,,,,
,,,,,,5,0,5,0,1,X V Q F H G B L J M P D K C T S W R N Z,5ee7bb3aded1b807aac68f9f,20,Mężczyzna,2022-06-11_11h15.40.615,task,2021.1.4,Win32,59.91611744,6299f149e92ead563fba08ef,62a45d1b9929010d865390af,,,,,,,,,,,,,,,,,,,,,,,,,,,,,,,,,,,,,,,,,,,,,,,,,,,,,,,,,,,,,,,,,,,,,,,,,,,,,,,,,,,,,,,,,,,,,,,,,,,,,
,,,,,,,,,,,,5ee7bb3aded1b807aac68f9f,20,Mężczyzna,2022-06-11_11h15.40.615,task,2021.1.4,Win32,59.91611744,6299f149e92ead563fba08ef,62a45d1b9929010d865390af,xdfwmw,"[""x"",""d"",""f"",""w"",""m"",""w""]","[5.956600000000094,6.796100000000081,7.452100000000087,9.184799999999825,9.644699999999716,9.764600000000087,10.23269999999971]",1,XDFWMW,14,0,14,0,1,,,,,,,,,,,,,,,,,,,,,,,,,,,,,,,,,,,,,,,,,,,,,,,,,,,,,,,,,,,,,,,,,,,,,,,,,,,,,,,,,,,,,,,,,,,
,,,,,,0,0,0,0,1,X V Q F H G B L J M P D K C T S W R N Z,5ee7bb3aded1b807aac68f9f,20,Mężczyzna,2022-06-11_11h15.40.615,task,2021.1.4,Win32,59.91611744,6299f149e92ead563fba08ef,62a45d1b9929010d865390af,,,,,,,,,,,,,,,,,,,,,,,,,,,,,,,,,,,,,,,,,,,,,,,,,,,,,,,,,,,,,,,,,,,,,,,,,,,,,,,,,,,,,,,,,,,,,,,,,,,,,
,,,,,,1,0,1,0,1,X V Q F H G B L J M P D K C T S W R N Z,5ee7bb3aded1b807aac68f9f,20,Mężczyzna,2022-06-11_11h15.40.615,task,2021.1.4,Win32,59.91611744,6299f149e92ead563fba08ef,62a45d1b9929010d865390af,,,,,,,,,,,,,,,,,,,,,,,,,,,,,,,,,,,,,,,,,,,,,,,,,,,,,,,,,,,,,,,,,,,,,,,,,,,,,,,,,,,,,,,,,,,,,,,,,,,,,
,,,,,,2,0,2,0,1,X V Q F H G B L J M P D K C T S W R N Z,5ee7bb3aded1b807aac68f9f,20,Mężczyzna,2022-06-11_11h15.40.615,task,2021.1.4,Win32,59.91611744,6299f149e92ead563fba08ef,62a45d1b9929010d865390af,,,,,,,,,,,,,,,,,,,,,,,,,,,,,,,,,,,,,,,,,,,,,,,,,,,,,,,,,,,,,,,,,,,,,,,,,,,,,,,,,,,,,,,,,,,,,,,,,,,,,
,,,,,,3,0,3,0,1,X V Q F H G B L J M P D K C T S W R N Z,5ee7bb3aded1b807aac68f9f,20,Mężczyzna,2022-06-11_11h15.40.615,task,2021.1.4,Win32,59.91611744,6299f149e92ead563fba08ef,62a45d1b9929010d865390af,,,,,,,,,,,,,,,,,,,,,,,,,,,,,,,,,,,,,,,,,,,,,,,,,,,,,,,,,,,,,,,,,,,,,,,,,,,,,,,,,,,,,,,,,,,,,,,,,,,,,
,,,,,,4,0,4,0,1,X V Q F H G B L J M P D K C T S W R N Z,5ee7bb3aded1b807aac68f9f,20,Mężczyzna,2022-06-11_11h15.40.615,task,2021.1.4,Win32,59.91611744,6299f149e92ead563fba08ef,62a45d1b9929010d865390af,,,,,,,,,,,,,,,,,,,,,,,,,,,,,,,,,,,,,,,,,,,,,,,,,,,,,,,,,,,,,,,,,,,,,,,,,,,,,,,,,,,,,,,,,,,,,,,,,,,,,
,,,,,,5,0,5,0,1,X V Q F H G B L J M P D K C T S W R N Z,5ee7bb3aded1b807aac68f9f,20,Mężczyzna,2022-06-11_11h15.40.615,task,2021.1.4,Win32,59.91611744,6299f149e92ead563fba08ef,62a45d1b9929010d865390af,,,,,,,,,,,,,,,,,,,,,,,,,,,,,,,,,,,,,,,,,,,,,,,,,,,,,,,,,,,,,,,,,,,,,,,,,,,,,,,,,,,,,,,,,,,,,,,,,,,,,
,,,,,,6,0,6,0,1,X V Q F H G B L J M P D K C T S W R N Z,5ee7bb3aded1b807aac68f9f,20,Mężczyzna,2022-06-11_11h15.40.615,task,2021.1.4,Win32,59.91611744,6299f149e92ead563fba08ef,62a45d1b9929010d865390af,,,,,,,,,,,,,,,,,,,,,,,,,,,,,,,,,,,,,,,,,,,,,,,,,,,,,,,,,,,,,,,,,,,,,,,,,,,,,,,,,,,,,,,,,,,,,,,,,,,,,
,,,,,,,,,,,,5ee7bb3aded1b807aac68f9f,20,Mężczyzna,2022-06-11_11h15.40.615,task,2021.1.4,Win32,59.91611744,6299f149e92ead563fba08ef,62a45d1b9929010d865390af,cmjjwmww,"[""c"",""m"",""j"",""j"",""w"",""m"",""w"",""w""]","[0.7248999999999057,1.0176999999997065,1.3197999999997876,1.5516999999996983,3.4347999999997967,3.9342999999998085,4.3386999999997045,4.551600000000093,4.817199999999701]",0,CMJJFWW,15,0,15,0,1,,,,,,,,,,,,,,,,,,,,,,,,,,,,,,,,,,,,,,,,,,,,,,,,,,,,,,,,,,,,,,,,,,,,,,,,,,,,,,,,,,,,,,,,,,,
,,,,,,0,0,0,0,1,X V Q F H G B L J M P D K C T S W R N Z,5ee7bb3aded1b807aac68f9f,20,Mężczyzna,2022-06-11_11h15.40.615,task,2021.1.4,Win32,59.91611744,6299f149e92ead563fba08ef,62a45d1b9929010d865390af,,,,,,,,,,,,,,,,,,,,,,,,,,,,,,,,,,,,,,,,,,,,,,,,,,,,,,,,,,,,,,,,,,,,,,,,,,,,,,,,,,,,,,,,,,,,,,,,,,,,,
,,,,,,1,0,1,0,1,X V Q F H G B L J M P D K C T S W R N Z,5ee7bb3aded1b807aac68f9f,20,Mężczyzna,2022-06-11_11h15.40.615,task,2021.1.4,Win32,59.91611744,6299f149e92ead563fba08ef,62a45d1b9929010d865390af,,,,,,,,,,,,,,,,,,,,,,,,,,,,,,,,,,,,,,,,,,,,,,,,,,,,,,,,,,,,,,,,,,,,,,,,,,,,,,,,,,,,,,,,,,,,,,,,,,,,,
,,,,,,2,0,2,0,1,X V Q F H G B L J M P D K C T S W R N Z,5ee7bb3aded1b807aac68f9f,20,Mężczyzna,2022-06-11_11h15.40.615,task,2021.1.4,Win32,59.91611744,6299f149e92ead563fba08ef,62a45d1b9929010d865390af,,,,,,,,,,,,,,,,,,,,,,,,,,,,,,,,,,,,,,,,,,,,,,,,,,,,,,,,,,,,,,,,,,,,,,,,,,,,,,,,,,,,,,,,,,,,,,,,,,,,,
,,,,,,3,0,3,0,1,X V Q F H G B L J M P D K C T S W R N Z,5ee7bb3aded1b807aac68f9f,20,Mężczyzna,2022-06-11_11h15.40.615,task,2021.1.4,Win32,59.91611744,6299f149e92ead563fba08ef,62a45d1b9929010d865390af,,,,,,,,,,,,,,,,,,,,,,,,,,,,,,,,,,,,,,,,,,,,,,,,,,,,,,,,,,,,,,,,,,,,,,,,,,,,,,,,,,,,,,,,,,,,,,,,,,,,,
,,,,,,4,0,4,0,1,X V Q F H G B L J M P D K C T S W R N Z,5ee7bb3aded1b807aac68f9f,20,Mężczyzna,2022-06-11_11h15.40.615,task,2021.1.4,Win32,59.91611744,6299f149e92ead563fba08ef,62a45d1b9929010d865390af,,,,,,,,,,,,,,,,,,,,,,,,,,,,,,,,,,,,,,,,,,,,,,,,,,,,,,,,,,,,,,,,,,,,,,,,,,,,,,,,,,,,,,,,,,,,,,,,,,,,,
,,,,,,5,0,5,0,1,X V Q F H G B L J M P D K C T S W R N Z,5ee7bb3aded1b807aac68f9f,20,Mężczyzna,2022-06-11_11h15.40.615,task,2021.1.4,Win32,59.91611744,6299f149e92ead563fba08ef,62a45d1b9929010d865390af,,,,,,,,,,,,,,,,,,,,,,,,,,,,,,,,,,,,,,,,,,,,,,,,,,,,,,,,,,,,,,,,,,,,,,,,,,,,,,,,,,,,,,,,,,,,,,,,,,,,,
,,,,,,6,0,6,0,1,X V Q F H G B L J M P D K C T S W R N Z,5ee7bb3aded1b807aac68f9f,20,Mężczyzna,2022-06-11_11h15.40.615,task,2021.1.4,Win32,59.91611744,6299f149e92ead563fba08ef,62a45d1b9929010d865390af,,,,,,,,,,,,,,,,,,,,,,,,,,,,,,,,,,,,,,,,,,,,,,,,,,,,,,,,,,,,,,,,,,,,,,,,,,,,,,,,,,,,,,,,,,,,,,,,,,,,,
,,,,,,,,,,,,5ee7bb3aded1b807aac68f9f,20,Mężczyzna,2022-06-11_11h15.40.615,task,2021.1.4,Win32,59.91611744,6299f149e92ead563fba08ef,62a45d1b9929010d865390af,vvkmwjr,"[""v"",""v"",""k"",""m"",""w"",""j"",""r""]","[9.160600000000102,9.585000000000008,10.004600000000096,11.367500000000007,13.302700000000186,13.598299999999824,14.087799999999817,14.889299999999821]",1,VVKMWJR,16,0,16,0,1,,,,,,,,,,,,,,,,,,,,,,,,,,,,,,,,,,,,,,,,,,,,,,,,,,,,,,,,,,,,,,,,,,,,,,,,,,,,,,,,,,,,,,,,,,,
,,,,,,0,0,0,0,1,X V Q F H G B L J M P D K C T S W R N Z,5ee7bb3aded1b807aac68f9f,20,Mężczyzna,2022-06-11_11h15.40.615,task,2021.1.4,Win32,59.91611744,6299f149e92ead563fba08ef,62a45d1b9929010d865390af,,,,,,,,,,,,,,,,,,,,,,,,,,,,,,,,,,,,,,,,,,,,,,,,,,,,,,,,,,,,,,,,,,,,,,,,,,,,,,,,,,,,,,,,,,,,,,,,,,,,,
,,,,,,1,0,1,0,1,X V Q F H G B L J M P D K C T S W R N Z,5ee7bb3aded1b807aac68f9f,20,Mężczyzna,2022-06-11_11h15.40.615,task,2021.1.4,Win32,59.91611744,6299f149e92ead563fba08ef,62a45d1b9929010d865390af,,,,,,,,,,,,,,,,,,,,,,,,,,,,,,,,,,,,,,,,,,,,,,,,,,,,,,,,,,,,,,,,,,,,,,,,,,,,,,,,,,,,,,,,,,,,,,,,,,,,,
,,,,,,2,0,2,0,1,X V Q F H G B L J M P D K C T S W R N Z,5ee7bb3aded1b807aac68f9f,20,Mężczyzna,2022-06-11_11h15.40.615,task,2021.1.4,Win32,59.91611744,6299f149e92ead563fba08ef,62a45d1b9929010d865390af,,,,,,,,,,,,,,,,,,,,,,,,,,,,,,,,,,,,,,,,,,,,,,,,,,,,,,,,,,,,,,,,,,,,,,,,,,,,,,,,,,,,,,,,,,,,,,,,,,,,,
,,,,,,3,0,3,0,1,X V Q F H G B L J M P D K C T S W R N Z,5ee7bb3aded1b807aac68f9f,20,Mężczyzna,2022-06-11_11h15.40.615,task,2021.1.4,Win32,59.91611744,6299f149e92ead563fba08ef,62a45d1b9929010d865390af,,,,,,,,,,,,,,,,,,,,,,,,,,,,,,,,,,,,,,,,,,,,,,,,,,,,,,,,,,,,,,,,,,,,,,,,,,,,,,,,,,,,,,,,,,,,,,,,,,,,,
,,,,,,4,0,4,0,1,X V Q F H G B L J M P D K C T S W R N Z,5ee7bb3aded1b807aac68f9f,20,Mężczyzna,2022-06-11_11h15.40.615,task,2021.1.4,Win32,59.91611744,6299f149e92ead563fba08ef,62a45d1b9929010d865390af,,,,,,,,,,,,,,,,,,,,,,,,,,,,,,,,,,,,,,,,,,,,,,,,,,,,,,,,,,,,,,,,,,,,,,,,,,,,,,,,,,,,,,,,,,,,,,,,,,,,,
,,,,,,5,0,5,0,1,X V Q F H G B L J M P D K C T S W R N Z,5ee7bb3aded1b807aac68f9f,20,Mężczyzna,2022-06-11_11h15.40.615,task,2021.1.4,Win32,59.91611744,6299f149e92ead563fba08ef,62a45d1b9929010d865390af,,,,,,,,,,,,,,,,,,,,,,,,,,,,,,,,,,,,,,,,,,,,,,,,,,,,,,,,,,,,,,,,,,,,,,,,,,,,,,,,,,,,,,,,,,,,,,,,,,,,,
,,,,,,6,0,6,0,1,X V Q F H G B L J M P D K C T S W R N Z,5ee7bb3aded1b807aac68f9f,20,Mężczyzna,2022-06-11_11h15.40.615,task,2021.1.4,Win32,59.91611744,6299f149e92ead563fba08ef,62a45d1b9929010d865390af,,,,,,,,,,,,,,,,,,,,,,,,,,,,,,,,,,,,,,,,,,,,,,,,,,,,,,,,,,,,,,,,,,,,,,,,,,,,,,,,,,,,,,,,,,,,,,,,,,,,,
,,,,,,,,,,,,5ee7bb3aded1b807aac68f9f,20,Mężczyzna,2022-06-11_11h15.40.615,task,2021.1.4,Win32,59.91611744,6299f149e92ead563fba08ef,62a45d1b9929010d865390af,nxhhqws,"[""n"",""x"",""h"",""h"",""q"",""w"",""s""]","[2.966600000000085,4.001200000000182,5.587500000000006,5.979300000000279,7.521899999999903,7.846499999999992,8.184200000000203,8.908200000000193]",1,NXHHQWS,17,0,17,0,1,,,,,,,,,,,,,,,,,,,,,,,,,,,,,,,,,,,,,,,,,,,,,,,,,,,,,,,,,,,,,,,,,,,,,,,,,,,,,,,,,,,,,,,,,,,
,,,,,,0,0,0,0,1,X V Q F H G B L J M P D K C T S W R N Z,5ee7bb3aded1b807aac68f9f,20,Mężczyzna,2022-06-11_11h15.40.615,task,2021.1.4,Win32,59.91611744,6299f149e92ead563fba08ef,62a45d1b9929010d865390af,,,,,,,,,,,,,,,,,,,,,,,,,,,,,,,,,,,,,,,,,,,,,,,,,,,,,,,,,,,,,,,,,,,,,,,,,,,,,,,,,,,,,,,,,,,,,,,,,,,,,
,,,,,,1,0,1,0,1,X V Q F H G B L J M P D K C T S W R N Z,5ee7bb3aded1b807aac68f9f,20,Mężczyzna,2022-06-11_11h15.40.615,task,2021.1.4,Win32,59.91611744,6299f149e92ead563fba08ef,62a45d1b9929010d865390af,,,,,,,,,,,,,,,,,,,,,,,,,,,,,,,,,,,,,,,,,,,,,,,,,,,,,,,,,,,,,,,,,,,,,,,,,,,,,,,,,,,,,,,,,,,,,,,,,,,,,
,,,,,,2,0,2,0,1,X V Q F H G B L J M P D K C T S W R N Z,5ee7bb3aded1b807aac68f9f,20,Mężczyzna,2022-06-11_11h15.40.615,task,2021.1.4,Win32,59.91611744,6299f149e92ead563fba08ef,62a45d1b9929010d865390af,,,,,,,,,,,,,,,,,,,,,,,,,,,,,,,,,,,,,,,,,,,,,,,,,,,,,,,,,,,,,,,,,,,,,,,,,,,,,,,,,,,,,,,,,,,,,,,,,,,,,
,,,,,,3,0,3,0,1,X V Q F H G B L J M P D K C T S W R N Z,5ee7bb3aded1b807aac68f9f,20,Mężczyzna,2022-06-11_11h15.40.615,task,2021.1.4,Win32,59.91611744,6299f149e92ead563fba08ef,62a45d1b9929010d865390af,,,,,,,,,,,,,,,,,,,,,,,,,,,,,,,,,,,,,,,,,,,,,,,,,,,,,,,,,,,,,,,,,,,,,,,,,,,,,,,,,,,,,,,,,,,,,,,,,,,,,
,,,,,,4,0,4,0,1,X V Q F H G B L J M P D K C T S W R N Z,5ee7bb3aded1b807aac68f9f,20,Mężczyzna,2022-06-11_11h15.40.615,task,2021.1.4,Win32,59.91611744,6299f149e92ead563fba08ef,62a45d1b9929010d865390af,,,,,,,,,,,,,,,,,,,,,,,,,,,,,,,,,,,,,,,,,,,,,,,,,,,,,,,,,,,,,,,,,,,,,,,,,,,,,,,,,,,,,,,,,,,,,,,,,,,,,
,,,,,,5,0,5,0,1,X V Q F H G B L J M P D K C T S W R N Z,5ee7bb3aded1b807aac68f9f,20,Mężczyzna,2022-06-11_11h15.40.615,task,2021.1.4,Win32,59.91611744,6299f149e92ead563fba08ef,62a45d1b9929010d865390af,,,,,,,,,,,,,,,,,,,,,,,,,,,,,,,,,,,,,,,,,,,,,,,,,,,,,,,,,,,,,,,,,,,,,,,,,,,,,,,,,,,,,,,,,,,,,,,,,,,,,
,,,,,,6,0,6,0,1,X V Q F H G B L J M P D K C T S W R N Z,5ee7bb3aded1b807aac68f9f,20,Mężczyzna,2022-06-11_11h15.40.615,task,2021.1.4,Win32,59.91611744,6299f149e92ead563fba08ef,62a45d1b9929010d865390af,,,,,,,,,,,,,,,,,,,,,,,,,,,,,,,,,,,,,,,,,,,,,,,,,,,,,,,,,,,,,,,,,,,,,,,,,,,,,,,,,,,,,,,,,,,,,,,,,,,,,
,,,,,,7,0,7,0,1,X V Q F H G B L J M P D K C T S W R N Z,5ee7bb3aded1b807aac68f9f,20,Mężczyzna,2022-06-11_11h15.40.615,task,2021.1.4,Win32,59.91611744,6299f149e92ead563fba08ef,62a45d1b9929010d865390af,,,,,,,,,,,,,,,,,,,,,,,,,,,,,,,,,,,,,,,,,,,,,,,,,,,,,,,,,,,,,,,,,,,,,,,,,,,,,,,,,,,,,,,,,,,,,,,,,,,,,
,,,,,,,,,,,,5ee7bb3aded1b807aac68f9f,20,Mężczyzna,2022-06-11_11h15.40.615,task,2021.1.4,Win32,59.91611744,6299f149e92ead563fba08ef,62a45d1b9929010d865390af,sbsvkrnh,"[""s"",""b"",""s"",""v"",""k"",""r"",""n"",""h""]","[3.2458999999998923,4.050800000000265,4.40749999999997,5.70760000000007,7.013700000000142,7.400800000000231,7.839399999999898,8.408500000000004,8.704800000000262]",1,SBSVKRNH,18,0,18,0,1,,,,,,,,,,,,,,,,,,,,,,,,,,,,,,,,,,,,,,,,,,,,,,,,,,,,,,,,,,,,,,,,,,,,,,,,,,,,,,,,,,,,,,,,,,,
,,,,,,0,0,0,0,1,X V Q F H G B L J M P D K C T S W R N Z,5ee7bb3aded1b807aac68f9f,20,Mężczyzna,2022-06-11_11h15.40.615,task,2021.1.4,Win32,59.91611744,6299f149e92ead563fba08ef,62a45d1b9929010d865390af,,,,,,,,,,,,,,,,,,,,,,,,,,,,,,,,,,,,,,,,,,,,,,,,,,,,,,,,,,,,,,,,,,,,,,,,,,,,,,,,,,,,,,,,,,,,,,,,,,,,,
,,,,,,1,0,1,0,1,X V Q F H G B L J M P D K C T S W R N Z,5ee7bb3aded1b807aac68f9f,20,Mężczyzna,2022-06-11_11h15.40.615,task,2021.1.4,Win32,59.91611744,6299f149e92ead563fba08ef,62a45d1b9929010d865390af,,,,,,,,,,,,,,,,,,,,,,,,,,,,,,,,,,,,,,,,,,,,,,,,,,,,,,,,,,,,,,,,,,,,,,,,,,,,,,,,,,,,,,,,,,,,,,,,,,,,,
,,,,,,2,0,2,0,1,X V Q F H G B L J M P D K C T S W R N Z,5ee7bb3aded1b807aac68f9f,20,Mężczyzna,2022-06-11_11h15.40.615,task,2021.1.4,Win32,59.91611744,6299f149e92ead563fba08ef,62a45d1b9929010d865390af,,,,,,,,,,,,,,,,,,,,,,,,,,,,,,,,,,,,,,,,,,,,,,,,,,,,,,,,,,,,,,,,,,,,,,,,,,,,,,,,,,,,,,,,,,,,,,,,,,,,,
,,,,,,3,0,3,0,1,X V Q F H G B L J M P D K C T S W R N Z,5ee7bb3aded1b807aac68f9f,20,Mężczyzna,2022-06-11_11h15.40.615,task,2021.1.4,Win32,59.91611744,6299f149e92ead563fba08ef,62a45d1b9929010d865390af,,,,,,,,,,,,,,,,,,,,,,,,,,,,,,,,,,,,,,,,,,,,,,,,,,,,,,,,,,,,,,,,,,,,,,,,,,,,,,,,,,,,,,,,,,,,,,,,,,,,,
,,,,,,4,0,4,0,1,X V Q F H G B L J M P D K C T S W R N Z,5ee7bb3aded1b807aac68f9f,20,Mężczyzna,2022-06-11_11h15.40.615,task,2021.1.4,Win32,59.91611744,6299f149e92ead563fba08ef,62a45d1b9929010d865390af,,,,,,,,,,,,,,,,,,,,,,,,,,,,,,,,,,,,,,,,,,,,,,,,,,,,,,,,,,,,,,,,,,,,,,,,,,,,,,,,,,,,,,,,,,,,,,,,,,,,,
,,,,,,5,0,5,0,1,X V Q F H G B L J M P D K C T S W R N Z,5ee7bb3aded1b807aac68f9f,20,Mężczyzna,2022-06-11_11h15.40.615,task,2021.1.4,Win32,59.91611744,6299f149e92ead563fba08ef,62a45d1b9929010d865390af,,,,,,,,,,,,,,,,,,,,,,,,,,,,,,,,,,,,,,,,,,,,,,,,,,,,,,,,,,,,,,,,,,,,,,,,,,,,,,,,,,,,,,,,,,,,,,,,,,,,,
,,,,,,6,0,6,0,1,X V Q F H G B L J M P D K C T S W R N Z,5ee7bb3aded1b807aac68f9f,20,Mężczyzna,2022-06-11_11h15.40.615,task,2021.1.4,Win32,59.91611744,6299f149e92ead563fba08ef,62a45d1b9929010d865390af,,,,,,,,,,,,,,,,,,,,,,,,,,,,,,,,,,,,,,,,,,,,,,,,,,,,,,,,,,,,,,,,,,,,,,,,,,,,,,,,,,,,,,,,,,,,,,,,,,,,,
,,,,,,7,0,7,0,1,X V Q F H G B L J M P D K C T S W R N Z,5ee7bb3aded1b807aac68f9f,20,Mężczyzna,2022-06-11_11h15.40.615,task,2021.1.4,Win32,59.91611744,6299f149e92ead563fba08ef,62a45d1b9929010d865390af,,,,,,,,,,,,,,,,,,,,,,,,,,,,,,,,,,,,,,,,,,,,,,,,,,,,,,,,,,,,,,,,,,,,,,,,,,,,,,,,,,,,,,,,,,,,,,,,,,,,,
,,,,,,,,,,,,5ee7bb3aded1b807aac68f9f,20,Mężczyzna,2022-06-11_11h15.40.615,task,2021.1.4,Win32,59.91611744,6299f149e92ead563fba08ef,62a45d1b9929010d865390af,bvklxwwp,"[""b"",""v"",""k"",""l"",""x"",""w"",""w"",""p""]","[2.7751999999997565,4.606399999999951,5.626399999999933,5.775299999999845,7.084000000000003,7.571799999999826,7.740799999999808,7.967199999999764,8.25429999999983]",1,BVKLXWWP,19,0,19,0,1,,,,,,,,,,,,,,,,,,,,,,,,,,,,,,,,,,,,,,,,,,,,,,,,,,,,,,,,,,,,,,,,,,,,,,,,,,,,,,,,,,,,,,,,,,,
,,,,,,0,0,0,0,1,X V Q F H G B L J M P D K C T S W R N Z,5ee7bb3aded1b807aac68f9f,20,Mężczyzna,2022-06-11_11h15.40.615,task,2021.1.4,Win32,59.91611744,6299f149e92ead563fba08ef,62a45d1b9929010d865390af,,,,,,,,,,,,,,,,,,,,,,,,,,,,,,,,,,,,,,,,,,,,,,,,,,,,,,,,,,,,,,,,,,,,,,,,,,,,,,,,,,,,,,,,,,,,,,,,,,,,,
,,,,,,1,0,1,0,1,X V Q F H G B L J M P D K C T S W R N Z,5ee7bb3aded1b807aac68f9f,20,Mężczyzna,2022-06-11_11h15.40.615,task,2021.1.4,Win32,59.91611744,6299f149e92ead563fba08ef,62a45d1b9929010d865390af,,,,,,,,,,,,,,,,,,,,,,,,,,,,,,,,,,,,,,,,,,,,,,,,,,,,,,,,,,,,,,,,,,,,,,,,,,,,,,,,,,,,,,,,,,,,,,,,,,,,,
,,,,,,2,0,2,0,1,X V Q F H G B L J M P D K C T S W R N Z,5ee7bb3aded1b807aac68f9f,20,Mężczyzna,2022-06-11_11h15.40.615,task,2021.1.4,Win32,59.91611744,6299f149e92ead563fba08ef,62a45d1b9929010d865390af,,,,,,,,,,,,,,,,,,,,,,,,,,,,,,,,,,,,,,,,,,,,,,,,,,,,,,,,,,,,,,,,,,,,,,,,,,,,,,,,,,,,,,,,,,,,,,,,,,,,,
,,,,,,3,0,3,0,1,X V Q F H G B L J M P D K C T S W R N Z,5ee7bb3aded1b807aac68f9f,20,Mężczyzna,2022-06-11_11h15.40.615,task,2021.1.4,Win32,59.91611744,6299f149e92ead563fba08ef,62a45d1b9929010d865390af,,,,,,,,,,,,,,,,,,,,,,,,,,,,,,,,,,,,,,,,,,,,,,,,,,,,,,,,,,,,,,,,,,,,,,,,,,,,,,,,,,,,,,,,,,,,,,,,,,,,,
,,,,,,4,0,4,0,1,X V Q F H G B L J M P D K C T S W R N Z,5ee7bb3aded1b807aac68f9f,20,Mężczyzna,2022-06-11_11h15.40.615,task,2021.1.4,Win32,59.91611744,6299f149e92ead563fba08ef,62a45d1b9929010d865390af,,,,,,,,,,,,,,,,,,,,,,,,,,,,,,,,,,,,,,,,,,,,,,,,,,,,,,,,,,,,,,,,,,,,,,,,,,,,,,,,,,,,,,,,,,,,,,,,,,,,,
,,,,,,5,0,5,0,1,X V Q F H G B L J M P D K C T S W R N Z,5ee7bb3aded1b807aac68f9f,20,Mężczyzna,2022-06-11_11h15.40.615,task,2021.1.4,Win32,59.91611744,6299f149e92ead563fba08ef,62a45d1b9929010d865390af,,,,,,,,,,,,,,,,,,,,,,,,,,,,,,,,,,,,,,,,,,,,,,,,,,,,,,,,,,,,,,,,,,,,,,,,,,,,,,,,,,,,,,,,,,,,,,,,,,,,,
,,,,,,6,0,6,0,1,X V Q F H G B L J M P D K C T S W R N Z,5ee7bb3aded1b807aac68f9f,20,Mężczyzna,2022-06-11_11h15.40.615,task,2021.1.4,Win32,59.91611744,6299f149e92ead563fba08ef,62a45d1b9929010d865390af,,,,,,,,,,,,,,,,,,,,,,,,,,,,,,,,,,,,,,,,,,,,,,,,,,,,,,,,,,,,,,,,,,,,,,,,,,,,,,,,,,,,,,,,,,,,,,,,,,,,,
,,,,,,7,0,7,0,1,X V Q F H G B L J M P D K C T S W R N Z,5ee7bb3aded1b807aac68f9f,20,Mężczyzna,2022-06-11_11h15.40.615,task,2021.1.4,Win32,59.91611744,6299f149e92ead563fba08ef,62a45d1b9929010d865390af,,,,,,,,,,,,,,,,,,,,,,,,,,,,,,,,,,,,,,,,,,,,,,,,,,,,,,,,,,,,,,,,,,,,,,,,,,,,,,,,,,,,,,,,,,,,,,,,,,,,,
,,,,,,8,0,8,0,1,X V Q F H G B L J M P D K C T S W R N Z,5ee7bb3aded1b807aac68f9f,20,Mężczyzna,2022-06-11_11h15.40.615,task,2021.1.4,Win32,59.91611744,6299f149e92ead563fba08ef,62a45d1b9929010d865390af,,,,,,,,,,,,,,,,,,,,,,,,,,,,,,,,,,,,,,,,,,,,,,,,,,,,,,,,,,,,,,,,,,,,,,,,,,,,,,,,,,,,,,,,,,,,,,,,,,,,,
,,,,,,,,,,,,5ee7bb3aded1b807aac68f9f,20,Mężczyzna,2022-06-11_11h15.40.615,task,2021.1.4,Win32,59.91611744,6299f149e92ead563fba08ef,62a45d1b9929010d865390af,chzkjwmhh,"[""c"",""h"",""z"",""k"",""j"",""w"",""m"",""h"",""h""]","[2.0216000000000918,2.46979999999985,4.4044999999999845,6.912600000000111,7.1426999999997065,8.938799999999844,9.486199999999712,10.657500000000027,10.786600000000078,14.049399999999935]",1,CHZKJWMHH,20,0,20,0,1,,,,,,,,,,,,,,,,,,,,,,,,,,,,,,,,,,,,,,,,,,,,,,,,,,,,,,,,,,,,,,,,,,,,,,,,,,,,,,,,,,,,,,,,,,,
,,,,,,0,0,0,0,1,X V Q F H G B L J M P D K C T S W R N Z,5ee7bb3aded1b807aac68f9f,20,Mężczyzna,2022-06-11_11h15.40.615,task,2021.1.4,Win32,59.91611744,6299f149e92ead563fba08ef,62a45d1b9929010d865390af,,,,,,,,,,,,,,,,,,,,,,,,,,,,,,,,,,,,,,,,,,,,,,,,,,,,,,,,,,,,,,,,,,,,,,,,,,,,,,,,,,,,,,,,,,,,,,,,,,,,,
,,,,,,1,0,1,0,1,X V Q F H G B L J M P D K C T S W R N Z,5ee7bb3aded1b807aac68f9f,20,Mężczyzna,2022-06-11_11h15.40.615,task,2021.1.4,Win32,59.91611744,6299f149e92ead563fba08ef,62a45d1b9929010d865390af,,,,,,,,,,,,,,,,,,,,,,,,,,,,,,,,,,,,,,,,,,,,,,,,,,,,,,,,,,,,,,,,,,,,,,,,,,,,,,,,,,,,,,,,,,,,,,,,,,,,,
,,,,,,2,0,2,0,1,X V Q F H G B L J M P D K C T S W R N Z,5ee7bb3aded1b807aac68f9f,20,Mężczyzna,2022-06-11_11h15.40.615,task,2021.1.4,Win32,59.91611744,6299f149e92ead563fba08ef,62a45d1b9929010d865390af,,,,,,,,,,,,,,,,,,,,,,,,,,,,,,,,,,,,,,,,,,,,,,,,,,,,,,,,,,,,,,,,,,,,,,,,,,,,,,,,,,,,,,,,,,,,,,,,,,,,,
,,,,,,3,0,3,0,1,X V Q F H G B L J M P D K C T S W R N Z,5ee7bb3aded1b807aac68f9f,20,Mężczyzna,2022-06-11_11h15.40.615,task,2021.1.4,Win32,59.91611744,6299f149e92ead563fba08ef,62a45d1b9929010d865390af,,,,,,,,,,,,,,,,,,,,,,,,,,,,,,,,,,,,,,,,,,,,,,,,,,,,,,,,,,,,,,,,,,,,,,,,,,,,,,,,,,,,,,,,,,,,,,,,,,,,,
,,,,,,4,0,4,0,1,X V Q F H G B L J M P D K C T S W R N Z,5ee7bb3aded1b807aac68f9f,20,Mężczyzna,2022-06-11_11h15.40.615,task,2021.1.4,Win32,59.91611744,6299f149e92ead563fba08ef,62a45d1b9929010d865390af,,,,,,,,,,,,,,,,,,,,,,,,,,,,,,,,,,,,,,,,,,,,,,,,,,,,,,,,,,,,,,,,,,,,,,,,,,,,,,,,,,,,,,,,,,,,,,,,,,,,,
,,,,,,5,0,5,0,1,X V Q F H G B L J M P D K C T S W R N Z,5ee7bb3aded1b807aac68f9f,20,Mężczyzna,2022-06-11_11h15.40.615,task,2021.1.4,Win32,59.91611744,6299f149e92ead563fba08ef,62a45d1b9929010d865390af,,,,,,,,,,,,,,,,,,,,,,,,,,,,,,,,,,,,,,,,,,,,,,,,,,,,,,,,,,,,,,,,,,,,,,,,,,,,,,,,,,,,,,,,,,,,,,,,,,,,,
,,,,,,6,0,6,0,1,X V Q F H G B L J M P D K C T S W R N Z,5ee7bb3aded1b807aac68f9f,20,Mężczyzna,2022-06-11_11h15.40.615,task,2021.1.4,Win32,59.91611744,6299f149e92ead563fba08ef,62a45d1b9929010d865390af,,,,,,,,,,,,,,,,,,,,,,,,,,,,,,,,,,,,,,,,,,,,,,,,,,,,,,,,,,,,,,,,,,,,,,,,,,,,,,,,,,,,,,,,,,,,,,,,,,,,,
,,,,,,7,0,7,0,1,X V Q F H G B L J M P D K C T S W R N Z,5ee7bb3aded1b807aac68f9f,20,Mężczyzna,2022-06-11_11h15.40.615,task,2021.1.4,Win32,59.91611744,6299f149e92ead563fba08ef,62a45d1b9929010d865390af,,,,,,,,,,,,,,,,,,,,,,,,,,,,,,,,,,,,,,,,,,,,,,,,,,,,,,,,,,,,,,,,,,,,,,,,,,,,,,,,,,,,,,,,,,,,,,,,,,,,,
,,,,,,8,0,8,0,1,X V Q F H G B L J M P D K C T S W R N Z,5ee7bb3aded1b807aac68f9f,20,Mężczyzna,2022-06-11_11h15.40.615,task,2021.1.4,Win32,59.91611744,6299f149e92ead563fba08ef,62a45d1b9929010d865390af,,,,,,,,,,,,,,,,,,,,,,,,,,,,,,,,,,,,,,,,,,,,,,,,,,,,,,,,,,,,,,,,,,,,,,,,,,,,,,,,,,,,,,,,,,,,,,,,,,,,,
,,,,,,,,,,,,5ee7bb3aded1b807aac68f9f,20,Mężczyzna,2022-06-11_11h15.40.615,task,2021.1.4,Win32,59.91611744,6299f149e92ead563fba08ef,62a45d1b9929010d865390af,mtcdxvpqf,"[""m"",""t"",""c"",""d"",""x"",""v"",""p"",""q"",""f""]","[4.751199999999756,5.125,6.369699999999739,6.961000000000013,8.91779999999983,9.605699999999729,11.218099999999652,11.49429999999984,11.907099999999616,12.555499999999995]",1,MTCDXVPQF,21,0,21,0,1,,,,,,,,,,,,,,,,,,,,,,,,,,,,,,,,,,,,,,,,,,,,,,,,,,,,,,,,,,,,,,,,,,,,,,,,,,,,,,,,,,,,,,,,,,,
,,,,,,0,0,0,0,1,X V Q F H G B L J M P D K C T S W R N Z,5ee7bb3aded1b807aac68f9f,20,Mężczyzna,2022-06-11_11h15.40.615,task,2021.1.4,Win32,59.91611744,6299f149e92ead563fba08ef,62a45d1b9929010d865390af,,,,,,,,,,,,,,,,,,,,,,,,,,,,,,,,,,,,,,,,,,,,,,,,,,,,,,,,,,,,,,,,,,,,,,,,,,,,,,,,,,,,,,,,,,,,,,,,,,,,,
,,,,,,1,0,1,0,1,X V Q F H G B L J M P D K C T S W R N Z,5ee7bb3aded1b807aac68f9f,20,Mężczyzna,2022-06-11_11h15.40.615,task,2021.1.4,Win32,59.91611744,6299f149e92ead563fba08ef,62a45d1b9929010d865390af,,,,,,,,,,,,,,,,,,,,,,,,,,,,,,,,,,,,,,,,,,,,,,,,,,,,,,,,,,,,,,,,,,,,,,,,,,,,,,,,,,,,,,,,,,,,,,,,,,,,,
,,,,,,2,0,2,0,1,X V Q F H G B L J M P D K C T S W R N Z,5ee7bb3aded1b807aac68f9f,20,Mężczyzna,2022-06-11_11h15.40.615,task,2021.1.4,Win32,59.91611744,6299f149e92ead563fba08ef,62a45d1b9929010d865390af,,,,,,,,,,,,,,,,,,,,,,,,,,,,,,,,,,,,,,,,,,,,,,,,,,,,,,,,,,,,,,,,,,,,,,,,,,,,,,,,,,,,,,,,,,,,,,,,,,,,,
,,,,,,3,0,3,0,1,X V Q F H G B L J M P D K C T S W R N Z,5ee7bb3aded1b807aac68f9f,20,Mężczyzna,2022-06-11_11h15.40.615,task,2021.1.4,Win32,59.91611744,6299f149e92ead563fba08ef,62a45d1b9929010d865390af,,,,,,,,,,,,,,,,,,,,,,,,,,,,,,,,,,,,,,,,,,,,,,,,,,,,,,,,,,,,,,,,,,,,,,,,,,,,,,,,,,,,,,,,,,,,,,,,,,,,,
,,,,,,4,0,4,0,1,X V Q F H G B L J M P D K C T S W R N Z,5ee7bb3aded1b807aac68f9f,20,Mężczyzna,2022-06-11_11h15.40.615,task,2021.1.4,Win32,59.91611744,6299f149e92ead563fba08ef,62a45d1b9929010d865390af,,,,,,,,,,,,,,,,,,,,,,,,,,,,,,,,,,,,,,,,,,,,,,,,,,,,,,,,,,,,,,,,,,,,,,,,,,,,,,,,,,,,,,,,,,,,,,,,,,,,,
,,,,,,5,0,5,0,1,X V Q F H G B L J M P D K C T S W R N Z,5ee7bb3aded1b807aac68f9f,20,Mężczyzna,2022-06-11_11h15.40.615,task,2021.1.4,Win32,59.91611744,6299f149e92ead563fba08ef,62a45d1b9929010d865390af,,,,,,,,,,,,,,,,,,,,,,,,,,,,,,,,,,,,,,,,,,,,,,,,,,,,,,,,,,,,,,,,,,,,,,,,,,,,,,,,,,,,,,,,,,,,,,,,,,,,,
,,,,,,6,0,6,0,1,X V Q F H G B L J M P D K C T S W R N Z,5ee7bb3aded1b807aac68f9f,20,Mężczyzna,2022-06-11_11h15.40.615,task,2021.1.4,Win32,59.91611744,6299f149e92ead563fba08ef,62a45d1b9929010d865390af,,,,,,,,,,,,,,,,,,,,,,,,,,,,,,,,,,,,,,,,,,,,,,,,,,,,,,,,,,,,,,,,,,,,,,,,,,,,,,,,,,,,,,,,,,,,,,,,,,,,,
,,,,,,7,0,7,0,1,X V Q F H G B L J M P D K C T S W R N Z,5ee7bb3aded1b807aac68f9f,20,Mężczyzna,2022-06-11_11h15.40.615,task,2021.1.4,Win32,59.91611744,6299f149e92ead563fba08ef,62a45d1b9929010d865390af,,,,,,,,,,,,,,,,,,,,,,,,,,,,,,,,,,,,,,,,,,,,,,,,,,,,,,,,,,,,,,,,,,,,,,,,,,,,,,,,,,,,,,,,,,,,,,,,,,,,,
,,,,,,8,0,8,0,1,X V Q F H G B L J M P D K C T S W R N Z,5ee7bb3aded1b807aac68f9f,20,Mężczyzna,2022-06-11_11h15.40.615,task,2021.1.4,Win32,59.91611744,6299f149e92ead563fba08ef,62a45d1b9929010d865390af,,,,,,,,,,,,,,,,,,,,,,,,,,,,,,,,,,,,,,,,,,,,,,,,,,,,,,,,,,,,,,,,,,,,,,,,,,,,,,,,,,,,,,,,,,,,,,,,,,,,,
,,,,,,9,0,9,0,1,X V Q F H G B L J M P D K C T S W R N Z,5ee7bb3aded1b807aac68f9f,20,Mężczyzna,2022-06-11_11h15.40.615,task,2021.1.4,Win32,59.91611744,6299f149e92ead563fba08ef,62a45d1b9929010d865390af,,,,,,,,,,,,,,,,,,,,,,,,,,,,,,,,,,,,,,,,,,,,,,,,,,,,,,,,,,,,,,,,,,,,,,,,,,,,,,,,,,,,,,,,,,,,,,,,,,,,,
,,,,,,,,,,,,5ee7bb3aded1b807aac68f9f,20,Mężczyzna,2022-06-11_11h15.40.615,task,2021.1.4,Win32,59.91611744,6299f149e92ead563fba08ef,62a45d1b9929010d865390af,lzcjsrjfcn,"[""l"",""z"",""c"",""j"",""s"",""r"",""j"",""f"",""c"",""n""]","[3.3686000000000718,3.8502999999998337,4.8172000000001844,7.051100000000076,7.633600000000115,8.323200000000156,10.253600000000063,11.478399999999908,12.20920000000018,12.3877999999998,13.085500000000025]",1,LZCJSRJFCN,22,0,22,0,1,,,,,,,,,,,,,,,,,,,,,,,,,,,,,,,,,,,,,,,,,,,,,,,,,,,,,,,,,,,,,,,,,,,,,,,,,,,,,,,,,,,,,,,,,,,
,,,,,,0,0,0,0,1,X V Q F H G B L J M P D K C T S W R N Z,5ee7bb3aded1b807aac68f9f,20,Mężczyzna,2022-06-11_11h15.40.615,task,2021.1.4,Win32,59.91611744,6299f149e92ead563fba08ef,62a45d1b9929010d865390af,,,,,,,,,,,,,,,,,,,,,,,,,,,,,,,,,,,,,,,,,,,,,,,,,,,,,,,,,,,,,,,,,,,,,,,,,,,,,,,,,,,,,,,,,,,,,,,,,,,,,
,,,,,,1,0,1,0,1,X V Q F H G B L J M P D K C T S W R N Z,5ee7bb3aded1b807aac68f9f,20,Mężczyzna,2022-06-11_11h15.40.615,task,2021.1.4,Win32,59.91611744,6299f149e92ead563fba08ef,62a45d1b9929010d865390af,,,,,,,,,,,,,,,,,,,,,,,,,,,,,,,,,,,,,,,,,,,,,,,,,,,,,,,,,,,,,,,,,,,,,,,,,,,,,,,,,,,,,,,,,,,,,,,,,,,,,
,,,,,,2,0,2,0,1,X V Q F H G B L J M P D K C T S W R N Z,5ee7bb3aded1b807aac68f9f,20,Mężczyzna,2022-06-11_11h15.40.615,task,2021.1.4,Win32,59.91611744,6299f149e92ead563fba08ef,62a45d1b9929010d865390af,,,,,,,,,,,,,,,,,,,,,,,,,,,,,,,,,,,,,,,,,,,,,,,,,,,,,,,,,,,,,,,,,,,,,,,,,,,,,,,,,,,,,,,,,,,,,,,,,,,,,
,,,,,,3,0,3,0,1,X V Q F H G B L J M P D K C T S W R N Z,5ee7bb3aded1b807aac68f9f,20,Mężczyzna,2022-06-11_11h15.40.615,task,2021.1.4,Win32,59.91611744,6299f149e92ead563fba08ef,62a45d1b9929010d865390af,,,,,,,,,,,,,,,,,,,,,,,,,,,,,,,,,,,,,,,,,,,,,,,,,,,,,,,,,,,,,,,,,,,,,,,,,,,,,,,,,,,,,,,,,,,,,,,,,,,,,
,,,,,,4,0,4,0,1,X V Q F H G B L J M P D K C T S W R N Z,5ee7bb3aded1b807aac68f9f,20,Mężczyzna,2022-06-11_11h15.40.615,task,2021.1.4,Win32,59.91611744,6299f149e92ead563fba08ef,62a45d1b9929010d865390af,,,,,,,,,,,,,,,,,,,,,,,,,,,,,,,,,,,,,,,,,,,,,,,,,,,,,,,,,,,,,,,,,,,,,,,,,,,,,,,,,,,,,,,,,,,,,,,,,,,,,
,,,,,,5,0,5,0,1,X V Q F H G B L J M P D K C T S W R N Z,5ee7bb3aded1b807aac68f9f,20,Mężczyzna,2022-06-11_11h15.40.615,task,2021.1.4,Win32,59.91611744,6299f149e92ead563fba08ef,62a45d1b9929010d865390af,,,,,,,,,,,,,,,,,,,,,,,,,,,,,,,,,,,,,,,,,,,,,,,,,,,,,,,,,,,,,,,,,,,,,,,,,,,,,,,,,,,,,,,,,,,,,,,,,,,,,
,,,,,,6,0,6,0,1,X V Q F H G B L J M P D K C T S W R N Z,5ee7bb3aded1b807aac68f9f,20,Mężczyzna,2022-06-11_11h15.40.615,task,2021.1.4,Win32,59.91611744,6299f149e92ead563fba08ef,62a45d1b9929010d865390af,,,,,,,,,,,,,,,,,,,,,,,,,,,,,,,,,,,,,,,,,,,,,,,,,,,,,,,,,,,,,,,,,,,,,,,,,,,,,,,,,,,,,,,,,,,,,,,,,,,,,
,,,,,,7,0,7,0,1,X V Q F H G B L J M P D K C T S W R N Z,5ee7bb3aded1b807aac68f9f,20,Mężczyzna,2022-06-11_11h15.40.615,task,2021.1.4,Win32,59.91611744,6299f149e92ead563fba08ef,62a45d1b9929010d865390af,,,,,,,,,,,,,,,,,,,,,,,,,,,,,,,,,,,,,,,,,,,,,,,,,,,,,,,,,,,,,,,,,,,,,,,,,,,,,,,,,,,,,,,,,,,,,,,,,,,,,
,,,,,,8,0,8,0,1,X V Q F H G B L J M P D K C T S W R N Z,5ee7bb3aded1b807aac68f9f,20,Mężczyzna,2022-06-11_11h15.40.615,task,2021.1.4,Win32,59.91611744,6299f149e92ead563fba08ef,62a45d1b9929010d865390af,,,,,,,,,,,,,,,,,,,,,,,,,,,,,,,,,,,,,,,,,,,,,,,,,,,,,,,,,,,,,,,,,,,,,,,,,,,,,,,,,,,,,,,,,,,,,,,,,,,,,
,,,,,,9,0,9,0,1,X V Q F H G B L J M P D K C T S W R N Z,5ee7bb3aded1b807aac68f9f,20,Mężczyzna,2022-06-11_11h15.40.615,task,2021.1.4,Win32,59.91611744,6299f149e92ead563fba08ef,62a45d1b9929010d865390af,,,,,,,,,,,,,,,,,,,,,,,,,,,,,,,,,,,,,,,,,,,,,,,,,,,,,,,,,,,,,,,,,,,,,,,,,,,,,,,,,,,,,,,,,,,,,,,,,,,,,
,,,,,,,,,,,,5ee7bb3aded1b807aac68f9f,20,Mężczyzna,2022-06-11_11h15.40.615,task,2021.1.4,Win32,59.91611744,6299f149e92ead563fba08ef,62a45d1b9929010d865390af,hhlmsjmxvl,"[""h"",""h"",""l"",""m"",""s"",""j"",""m"",""x"",""v"",""l""]","[10.934000000000026,11.404299999999864,12.479299999999853,12.876199999999756,14.968000000000018,15.609899999999925,16.900500000000022,17.975299999999834,18.70629999999983,18.95619999999974,19.383000000000038]",1,HHLMSJMXVL,23,0,23,0,1,,,,,,,,,,,,,,,,,,,,,,,,,,,,,,,,,,,,,,,,,,,,,,,,,,,,,,,,,,,,,,,,,,,,,,,,,,,,,,,,,,,,,,,,,,,
,,,,,,0,0,0,0,1,X V Q F H G B L J M P D K C T S W R N Z,5ee7bb3aded1b807aac68f9f,20,Mężczyzna,2022-06-11_11h15.40.615,task,2021.1.4,Win32,59.91611744,6299f149e92ead563fba08ef,62a45d1b9929010d865390af,,,,,,,,,,,,,,,,,,,,,,,,,,,,,,,,,,,,,,,,,,,,,,,,,,,,,,,,,,,,,,,,,,,,,,,,,,,,,,,,,,,,,,,,,,,,,,,,,,,,,
,,,,,,1,0,1,0,1,X V Q F H G B L J M P D K C T S W R N Z,5ee7bb3aded1b807aac68f9f,20,Mężczyzna,2022-06-11_11h15.40.615,task,2021.1.4,Win32,59.91611744,6299f149e92ead563fba08ef,62a45d1b9929010d865390af,,,,,,,,,,,,,,,,,,,,,,,,,,,,,,,,,,,,,,,,,,,,,,,,,,,,,,,,,,,,,,,,,,,,,,,,,,,,,,,,,,,,,,,,,,,,,,,,,,,,,
,,,,,,2,0,2,0,1,X V Q F H G B L J M P D K C T S W R N Z,5ee7bb3aded1b807aac68f9f,20,Mężczyzna,2022-06-11_11h15.40.615,task,2021.1.4,Win32,59.91611744,6299f149e92ead563fba08ef,62a45d1b9929010d865390af,,,,,,,,,,,,,,,,,,,,,,,,,,,,,,,,,,,,,,,,,,,,,,,,,,,,,,,,,,,,,,,,,,,,,,,,,,,,,,,,,,,,,,,,,,,,,,,,,,,,,
,,,,,,3,0,3,0,1,X V Q F H G B L J M P D K C T S W R N Z,5ee7bb3aded1b807aac68f9f,20,Mężczyzna,2022-06-11_11h15.40.615,task,2021.1.4,Win32,59.91611744,6299f149e92ead563fba08ef,62a45d1b9929010d865390af,,,,,,,,,,,,,,,,,,,,,,,,,,,,,,,,,,,,,,,,,,,,,,,,,,,,,,,,,,,,,,,,,,,,,,,,,,,,,,,,,,,,,,,,,,,,,,,,,,,,,
,,,,,,4,0,4,0,1,X V Q F H G B L J M P D K C T S W R N Z,5ee7bb3aded1b807aac68f9f,20,Mężczyzna,2022-06-11_11h15.40.615,task,2021.1.4,Win32,59.91611744,6299f149e92ead563fba08ef,62a45d1b9929010d865390af,,,,,,,,,,,,,,,,,,,,,,,,,,,,,,,,,,,,,,,,,,,,,,,,,,,,,,,,,,,,,,,,,,,,,,,,,,,,,,,,,,,,,,,,,,,,,,,,,,,,,
,,,,,,5,0,5,0,1,X V Q F H G B L J M P D K C T S W R N Z,5ee7bb3aded1b807aac68f9f,20,Mężczyzna,2022-06-11_11h15.40.615,task,2021.1.4,Win32,59.91611744,6299f149e92ead563fba08ef,62a45d1b9929010d865390af,,,,,,,,,,,,,,,,,,,,,,,,,,,,,,,,,,,,,,,,,,,,,,,,,,,,,,,,,,,,,,,,,,,,,,,,,,,,,,,,,,,,,,,,,,,,,,,,,,,,,
,,,,,,6,0,6,0,1,X V Q F H G B L J M P D K C T S W R N Z,5ee7bb3aded1b807aac68f9f,20,Mężczyzna,2022-06-11_11h15.40.615,task,2021.1.4,Win32,59.91611744,6299f149e92ead563fba08ef,62a45d1b9929010d865390af,,,,,,,,,,,,,,,,,,,,,,,,,,,,,,,,,,,,,,,,,,,,,,,,,,,,,,,,,,,,,,,,,,,,,,,,,,,,,,,,,,,,,,,,,,,,,,,,,,,,,
,,,,,,7,0,7,0,1,X V Q F H G B L J M P D K C T S W R N Z,5ee7bb3aded1b807aac68f9f,20,Mężczyzna,2022-06-11_11h15.40.615,task,2021.1.4,Win32,59.91611744,6299f149e92ead563fba08ef,62a45d1b9929010d865390af,,,,,,,,,,,,,,,,,,,,,,,,,,,,,,,,,,,,,,,,,,,,,,,,,,,,,,,,,,,,,,,,,,,,,,,,,,,,,,,,,,,,,,,,,,,,,,,,,,,,,
,,,,,,8,0,8,0,1,X V Q F H G B L J M P D K C T S W R N Z,5ee7bb3aded1b807aac68f9f,20,Mężczyzna,2022-06-11_11h15.40.615,task,2021.1.4,Win32,59.91611744,6299f149e92ead563fba08ef,62a45d1b9929010d865390af,,,,,,,,,,,,,,,,,,,,,,,,,,,,,,,,,,,,,,,,,,,,,,,,,,,,,,,,,,,,,,,,,,,,,,,,,,,,,,,,,,,,,,,,,,,,,,,,,,,,,
,,,,,,9,0,9,0,1,X V Q F H G B L J M P D K C T S W R N Z,5ee7bb3aded1b807aac68f9f,20,Mężczyzna,2022-06-11_11h15.40.615,task,2021.1.4,Win32,59.91611744,6299f149e92ead563fba08ef,62a45d1b9929010d865390af,,,,,,,,,,,,,,,,,,,,,,,,,,,,,,,,,,,,,,,,,,,,,,,,,,,,,,,,,,,,,,,,,,,,,,,,,,,,,,,,,,,,,,,,,,,,,,,,,,,,,
,,,,,,10,0,10,0,1,X V Q F H G B L J M P D K C T S W R N Z,5ee7bb3aded1b807aac68f9f,20,Mężczyzna,2022-06-11_11h15.40.615,task,2021.1.4,Win32,59.91611744,6299f149e92ead563fba08ef,62a45d1b9929010d865390af,,,,,,,,,,,,,,,,,,,,,,,,,,,,,,,,,,,,,,,,,,,,,,,,,,,,,,,,,,,,,,,,,,,,,,,,,,,,,,,,,,,,,,,,,,,,,,,,,,,,,
,,,,,,,,,,,,5ee7bb3aded1b807aac68f9f,20,Mężczyzna,2022-06-11_11h15.40.615,task,2021.1.4,Win32,59.91611744,6299f149e92ead563fba08ef,62a45d1b9929010d865390af,rwkwcdlxgf,"[""r"",""w"",""k"",""w"",""c"",""d"",""l"",""x"",""g"",""f""]","[2.4486999999997465,2.658699999999726,4.468000000000018,5.842399999999941,6.437799999999868,8.136299999999835,9.012699999999768,9.727699999999743,10.702699999999766,11.190000000000055,12.062099999999646]",0,RWKWCDLRXGF,24,0,24,0,1,,,,,,,,,,,,,,,,,,,,,,,,,,,,,,,,,,,,,,,,,,,,,,,,,,,,,,,,,,,,,,,,,,,,,,,,,,,,,,,,,,,,,,,,,,,
,,,,,,0,0,0,0,1,X V Q F H G B L J M P D K C T S W R N Z,5ee7bb3aded1b807aac68f9f,20,Mężczyzna,2022-06-11_11h15.40.615,task,2021.1.4,Win32,59.91611744,6299f149e92ead563fba08ef,62a45d1b9929010d865390af,,,,,,,,,,,,,,,,,,,,,,,,,,,,,,,,,,,,,,,,,,,,,,,,,,,,,,,,,,,,,,,,,,,,,,,,,,,,,,,,,,,,,,,,,,,,,,,,,,,,,
,,,,,,1,0,1,0,1,X V Q F H G B L J M P D K C T S W R N Z,5ee7bb3aded1b807aac68f9f,20,Mężczyzna,2022-06-11_11h15.40.615,task,2021.1.4,Win32,59.91611744,6299f149e92ead563fba08ef,62a45d1b9929010d865390af,,,,,,,,,,,,,,,,,,,,,,,,,,,,,,,,,,,,,,,,,,,,,,,,,,,,,,,,,,,,,,,,,,,,,,,,,,,,,,,,,,,,,,,,,,,,,,,,,,,,,
,,,,,,2,0,2,0,1,X V Q F H G B L J M P D K C T S W R N Z,5ee7bb3aded1b807aac68f9f,20,Mężczyzna,2022-06-11_11h15.40.615,task,2021.1.4,Win32,59.91611744,6299f149e92ead563fba08ef,62a45d1b9929010d865390af,,,,,,,,,,,,,,,,,,,,,,,,,,,,,,,,,,,,,,,,,,,,,,,,,,,,,,,,,,,,,,,,,,,,,,,,,,,,,,,,,,,,,,,,,,,,,,,,,,,,,
,,,,,,3,0,3,0,1,X V Q F H G B L J M P D K C T S W R N Z,5ee7bb3aded1b807aac68f9f,20,Mężczyzna,2022-06-11_11h15.40.615,task,2021.1.4,Win32,59.91611744,6299f149e92ead563fba08ef,62a45d1b9929010d865390af,,,,,,,,,,,,,,,,,,,,,,,,,,,,,,,,,,,,,,,,,,,,,,,,,,,,,,,,,,,,,,,,,,,,,,,,,,,,,,,,,,,,,,,,,,,,,,,,,,,,,
,,,,,,4,0,4,0,1,X V Q F H G B L J M P D K C T S W R N Z,5ee7bb3aded1b807aac68f9f,20,Mężczyzna,2022-06-11_11h15.40.615,task,2021.1.4,Win32,59.91611744,6299f149e92ead563fba08ef,62a45d1b9929010d865390af,,,,,,,,,,,,,,,,,,,,,,,,,,,,,,,,,,,,,,,,,,,,,,,,,,,,,,,,,,,,,,,,,,,,,,,,,,,,,,,,,,,,,,,,,,,,,,,,,,,,,
,,,,,,5,0,5,0,1,X V Q F H G B L J M P D K C T S W R N Z,5ee7bb3aded1b807aac68f9f,20,Mężczyzna,2022-06-11_11h15.40.615,task,2021.1.4,Win32,59.91611744,6299f149e92ead563fba08ef,62a45d1b9929010d865390af,,,,,,,,,,,,,,,,,,,,,,,,,,,,,,,,,,,,,,,,,,,,,,,,,,,,,,,,,,,,,,,,,,,,,,,,,,,,,,,,,,,,,,,,,,,,,,,,,,,,,
,,,,,,6,0,6,0,1,X V Q F H G B L J M P D K C T S W R N Z,5ee7bb3aded1b807aac68f9f,20,Mężczyzna,2022-06-11_11h15.40.615,task,2021.1.4,Win32,59.91611744,6299f149e92ead563fba08ef,62a45d1b9929010d865390af,,,,,,,,,,,,,,,,,,,,,,,,,,,,,,,,,,,,,,,,,,,,,,,,,,,,,,,,,,,,,,,,,,,,,,,,,,,,,,,,,,,,,,,,,,,,,,,,,,,,,
,,,,,,7,0,7,0,1,X V Q F H G B L J M P D K C T S W R N Z,5ee7bb3aded1b807aac68f9f,20,Mężczyzna,2022-06-11_11h15.40.615,task,2021.1.4,Win32,59.91611744,6299f149e92ead563fba08ef,62a45d1b9929010d865390af,,,,,,,,,,,,,,,,,,,,,,,,,,,,,,,,,,,,,,,,,,,,,,,,,,,,,,,,,,,,,,,,,,,,,,,,,,,,,,,,,,,,,,,,,,,,,,,,,,,,,
,,,,,,8,0,8,0,1,X V Q F H G B L J M P D K C T S W R N Z,5ee7bb3aded1b807aac68f9f,20,Mężczyzna,2022-06-11_11h15.40.615,task,2021.1.4,Win32,59.91611744,6299f149e92ead563fba08ef,62a45d1b9929010d865390af,,,,,,,,,,,,,,,,,,,,,,,,,,,,,,,,,,,,,,,,,,,,,,,,,,,,,,,,,,,,,,,,,,,,,,,,,,,,,,,,,,,,,,,,,,,,,,,,,,,,,
,,,,,,9,0,9,0,1,X V Q F H G B L J M P D K C T S W R N Z,5ee7bb3aded1b807aac68f9f,20,Mężczyzna,2022-06-11_11h15.40.615,task,2021.1.4,Win32,59.91611744,6299f149e92ead563fba08ef,62a45d1b9929010d865390af,,,,,,,,,,,,,,,,,,,,,,,,,,,,,,,,,,,,,,,,,,,,,,,,,,,,,,,,,,,,,,,,,,,,,,,,,,,,,,,,,,,,,,,,,,,,,,,,,,,,,
,,,,,,10,0,10,0,1,X V Q F H G B L J M P D K C T S W R N Z,5ee7bb3aded1b807aac68f9f,20,Mężczyzna,2022-06-11_11h15.40.615,task,2021.1.4,Win32,59.91611744,6299f149e92ead563fba08ef,62a45d1b9929010d865390af,,,,,,,,,,,,,,,,,,,,,,,,,,,,,,,,,,,,,,,,,,,,,,,,,,,,,,,,,,,,,,,,,,,,,,,,,,,,,,,,,,,,,,,,,,,,,,,,,,,,,
,,,,,,,,,,,,5ee7bb3aded1b807aac68f9f,20,Mężczyzna,2022-06-11_11h15.40.615,task,2021.1.4,Win32,59.91611744,6299f149e92ead563fba08ef,62a45d1b9929010d865390af,gwchvxjtqqb,"[""g"",""w"",""c"",""h"",""v"",""x"",""j"",""t"",""q"",""q"",""b""]","[3.849399999999946,4.78879999999981,5.3174999999999955,5.682399999999916,7.638899999999921,9.140299999999854,9.336999999999989,11.093799999999817,11.559399999999926,11.742999999999995,12.885299999999802,13.490399999999909]",0,GWCHVCJTQQB,25,0,25,0,1,,,,,,,,,,,,,,,,,,,,,,,,,,,,,,,,,,,,,,,,,,,,,,,,,,,,,,,,,,,,,,,,,,,,,,,,,,,,,,,,,,,,,,,,,,,
,,,,,,0,0,0,0,1,X V Q F H G B L J M P D K C T S W R N Z,5ee7bb3aded1b807aac68f9f,20,Mężczyzna,2022-06-11_11h15.40.615,task,2021.1.4,Win32,59.91611744,6299f149e92ead563fba08ef,62a45d1b9929010d865390af,,,,,,,,,,,,,,,,,,,,,,,,,,,,,,,,,,,,,,,,,,,,,,,,,,,,,,,,,,,,,,,,,,,,,,,,,,,,,,,,,,,,,,,,,,,,,,,,,,,,,
,,,,,,1,0,1,0,1,X V Q F H G B L J M P D K C T S W R N Z,5ee7bb3aded1b807aac68f9f,20,Mężczyzna,2022-06-11_11h15.40.615,task,2021.1.4,Win32,59.91611744,6299f149e92ead563fba08ef,62a45d1b9929010d865390af,,,,,,,,,,,,,,,,,,,,,,,,,,,,,,,,,,,,,,,,,,,,,,,,,,,,,,,,,,,,,,,,,,,,,,,,,,,,,,,,,,,,,,,,,,,,,,,,,,,,,
,,,,,,2,0,2,0,1,X V Q F H G B L J M P D K C T S W R N Z,5ee7bb3aded1b807aac68f9f,20,Mężczyzna,2022-06-11_11h15.40.615,task,2021.1.4,Win32,59.91611744,6299f149e92ead563fba08ef,62a45d1b9929010d865390af,,,,,,,,,,,,,,,,,,,,,,,,,,,,,,,,,,,,,,,,,,,,,,,,,,,,,,,,,,,,,,,,,,,,,,,,,,,,,,,,,,,,,,,,,,,,,,,,,,,,,
,,,,,,3,0,3,0,1,X V Q F H G B L J M P D K C T S W R N Z,5ee7bb3aded1b807aac68f9f,20,Mężczyzna,2022-06-11_11h15.40.615,task,2021.1.4,Win32,59.91611744,6299f149e92ead563fba08ef,62a45d1b9929010d865390af,,,,,,,,,,,,,,,,,,,,,,,,,,,,,,,,,,,,,,,,,,,,,,,,,,,,,,,,,,,,,,,,,,,,,,,,,,,,,,,,,,,,,,,,,,,,,,,,,,,,,
,,,,,,4,0,4,0,1,X V Q F H G B L J M P D K C T S W R N Z,5ee7bb3aded1b807aac68f9f,20,Mężczyzna,2022-06-11_11h15.40.615,task,2021.1.4,Win32,59.91611744,6299f149e92ead563fba08ef,62a45d1b9929010d865390af,,,,,,,,,,,,,,,,,,,,,,,,,,,,,,,,,,,,,,,,,,,,,,,,,,,,,,,,,,,,,,,,,,,,,,,,,,,,,,,,,,,,,,,,,,,,,,,,,,,,,
,,,,,,5,0,5,0,1,X V Q F H G B L J M P D K C T S W R N Z,5ee7bb3aded1b807aac68f9f,20,Mężczyzna,2022-06-11_11h15.40.615,task,2021.1.4,Win32,59.91611744,6299f149e92ead563fba08ef,62a45d1b9929010d865390af,,,,,,,,,,,,,,,,,,,,,,,,,,,,,,,,,,,,,,,,,,,,,,,,,,,,,,,,,,,,,,,,,,,,,,,,,,,,,,,,,,,,,,,,,,,,,,,,,,,,,
,,,,,,6,0,6,0,1,X V Q F H G B L J M P D K C T S W R N Z,5ee7bb3aded1b807aac68f9f,20,Mężczyzna,2022-06-11_11h15.40.615,task,2021.1.4,Win32,59.91611744,6299f149e92ead563fba08ef,62a45d1b9929010d865390af,,,,,,,,,,,,,,,,,,,,,,,,,,,,,,,,,,,,,,,,,,,,,,,,,,,,,,,,,,,,,,,,,,,,,,,,,,,,,,,,,,,,,,,,,,,,,,,,,,,,,
,,,,,,7,0,7,0,1,X V Q F H G B L J M P D K C T S W R N Z,5ee7bb3aded1b807aac68f9f,20,Mężczyzna,2022-06-11_11h15.40.615,task,2021.1.4,Win32,59.91611744,6299f149e92ead563fba08ef,62a45d1b9929010d865390af,,,,,,,,,,,,,,,,,,,,,,,,,,,,,,,,,,,,,,,,,,,,,,,,,,,,,,,,,,,,,,,,,,,,,,,,,,,,,,,,,,,,,,,,,,,,,,,,,,,,,
,,,,,,8,0,8,0,1,X V Q F H G B L J M P D K C T S W R N Z,5ee7bb3aded1b807aac68f9f,20,Mężczyzna,2022-06-11_11h15.40.615,task,2021.1.4,Win32,59.91611744,6299f149e92ead563fba08ef,62a45d1b9929010d865390af,,,,,,,,,,,,,,,,,,,,,,,,,,,,,,,,,,,,,,,,,,,,,,,,,,,,,,,,,,,,,,,,,,,,,,,,,,,,,,,,,,,,,,,,,,,,,,,,,,,,,
,,,,,,9,0,9,0,1,X V Q F H G B L J M P D K C T S W R N Z,5ee7bb3aded1b807aac68f9f,20,Mężczyzna,2022-06-11_11h15.40.615,task,2021.1.4,Win32,59.91611744,6299f149e92ead563fba08ef,62a45d1b9929010d865390af,,,,,,,,,,,,,,,,,,,,,,,,,,,,,,,,,,,,,,,,,,,,,,,,,,,,,,,,,,,,,,,,,,,,,,,,,,,,,,,,,,,,,,,,,,,,,,,,,,,,,
,,,,,,10,0,10,0,1,X V Q F H G B L J M P D K C T S W R N Z,5ee7bb3aded1b807aac68f9f,20,Mężczyzna,2022-06-11_11h15.40.615,task,2021.1.4,Win32,59.91611744,6299f149e92ead563fba08ef,62a45d1b9929010d865390af,,,,,,,,,,,,,,,,,,,,,,,,,,,,,,,,,,,,,,,,,,,,,,,,,,,,,,,,,,,,,,,,,,,,,,,,,,,,,,,,,,,,,,,,,,,,,,,,,,,,,
,,,,,,,,,,,,5ee7bb3aded1b807aac68f9f,20,Mężczyzna,2022-06-11_11h15.40.615,task,2021.1.4,Win32,59.91611744,6299f149e92ead563fba08ef,62a45d1b9929010d865390af,mwkqnjzwnmp,"[""m"",""w"",""k"",""q"",""n"",""j"",""z"",""w"",""n"",""m"",""p""]","[3.0890999999996325,3.2503999999998996,6.188199999999711,6.6353999999998905,7.183699999999703,7.445699999999704,9.216999999999985,11.071500000000015,11.633500000000026,11.801099999999622,12.105099999999652,12.63969999999972]",1,MWKQNJZWNMP,26,0,26,0,1,,,,,,,,,,,,,,,,,,,,,,,,,,,,,,,,,,,,,,,,,,,,,,,,,,,,,,,,,,,,,,,,,,,,,,,,,,,,,,,,,,,,,,,,,,,
,,,,,,0,0,0,0,1,X V Q F H G B L J M P D K C T S W R N Z,5ee7bb3aded1b807aac68f9f,20,Mężczyzna,2022-06-11_11h15.40.615,task,2021.1.4,Win32,59.91611744,6299f149e92ead563fba08ef,62a45d1b9929010d865390af,,,,,,,,,,,,,,,,,,,,,,,,,,,,,,,,,,,,,,,,,,,,,,,,,,,,,,,,,,,,,,,,,,,,,,,,,,,,,,,,,,,,,,,,,,,,,,,,,,,,,
,,,,,,1,0,1,0,1,X V Q F H G B L J M P D K C T S W R N Z,5ee7bb3aded1b807aac68f9f,20,Mężczyzna,2022-06-11_11h15.40.615,task,2021.1.4,Win32,59.91611744,6299f149e92ead563fba08ef,62a45d1b9929010d865390af,,,,,,,,,,,,,,,,,,,,,,,,,,,,,,,,,,,,,,,,,,,,,,,,,,,,,,,,,,,,,,,,,,,,,,,,,,,,,,,,,,,,,,,,,,,,,,,,,,,,,
,,,,,,2,0,2,0,1,X V Q F H G B L J M P D K C T S W R N Z,5ee7bb3aded1b807aac68f9f,20,Mężczyzna,2022-06-11_11h15.40.615,task,2021.1.4,Win32,59.91611744,6299f149e92ead563fba08ef,62a45d1b9929010d865390af,,,,,,,,,,,,,,,,,,,,,,,,,,,,,,,,,,,,,,,,,,,,,,,,,,,,,,,,,,,,,,,,,,,,,,,,,,,,,,,,,,,,,,,,,,,,,,,,,,,,,
,,,,,,3,0,3,0,1,X V Q F H G B L J M P D K C T S W R N Z,5ee7bb3aded1b807aac68f9f,20,Mężczyzna,2022-06-11_11h15.40.615,task,2021.1.4,Win32,59.91611744,6299f149e92ead563fba08ef,62a45d1b9929010d865390af,,,,,,,,,,,,,,,,,,,,,,,,,,,,,,,,,,,,,,,,,,,,,,,,,,,,,,,,,,,,,,,,,,,,,,,,,,,,,,,,,,,,,,,,,,,,,,,,,,,,,
,,,,,,4,0,4,0,1,X V Q F H G B L J M P D K C T S W R N Z,5ee7bb3aded1b807aac68f9f,20,Mężczyzna,2022-06-11_11h15.40.615,task,2021.1.4,Win32,59.91611744,6299f149e92ead563fba08ef,62a45d1b9929010d865390af,,,,,,,,,,,,,,,,,,,,,,,,,,,,,,,,,,,,,,,,,,,,,,,,,,,,,,,,,,,,,,,,,,,,,,,,,,,,,,,,,,,,,,,,,,,,,,,,,,,,,
,,,,,,5,0,5,0,1,X V Q F H G B L J M P D K C T S W R N Z,5ee7bb3aded1b807aac68f9f,20,Mężczyzna,2022-06-11_11h15.40.615,task,2021.1.4,Win32,59.91611744,6299f149e92ead563fba08ef,62a45d1b9929010d865390af,,,,,,,,,,,,,,,,,,,,,,,,,,,,,,,,,,,,,,,,,,,,,,,,,,,,,,,,,,,,,,,,,,,,,,,,,,,,,,,,,,,,,,,,,,,,,,,,,,,,,
,,,,,,6,0,6,0,1,X V Q F H G B L J M P D K C T S W R N Z,5ee7bb3aded1b807aac68f9f,20,Mężczyzna,2022-06-11_11h15.40.615,task,2021.1.4,Win32,59.91611744,6299f149e92ead563fba08ef,62a45d1b9929010d865390af,,,,,,,,,,,,,,,,,,,,,,,,,,,,,,,,,,,,,,,,,,,,,,,,,,,,,,,,,,,,,,,,,,,,,,,,,,,,,,,,,,,,,,,,,,,,,,,,,,,,,
,,,,,,7,0,7,0,1,X V Q F H G B L J M P D K C T S W R N Z,5ee7bb3aded1b807aac68f9f,20,Mężczyzna,2022-06-11_11h15.40.615,task,2021.1.4,Win32,59.91611744,6299f149e92ead563fba08ef,62a45d1b9929010d865390af,,,,,,,,,,,,,,,,,,,,,,,,,,,,,,,,,,,,,,,,,,,,,,,,,,,,,,,,,,,,,,,,,,,,,,,,,,,,,,,,,,,,,,,,,,,,,,,,,,,,,
,,,,,,8,0,8,0,1,X V Q F H G B L J M P D K C T S W R N Z,5ee7bb3aded1b807aac68f9f,20,Mężczyzna,2022-06-11_11h15.40.615,task,2021.1.4,Win32,59.91611744,6299f149e92ead563fba08ef,62a45d1b9929010d865390af,,,,,,,,,,,,,,,,,,,,,,,,,,,,,,,,,,,,,,,,,,,,,,,,,,,,,,,,,,,,,,,,,,,,,,,,,,,,,,,,,,,,,,,,,,,,,,,,,,,,,
,,,,,,9,0,9,0,1,X V Q F H G B L J M P D K C T S W R N Z,5ee7bb3aded1b807aac68f9f,20,Mężczyzna,2022-06-11_11h15.40.615,task,2021.1.4,Win32,59.91611744,6299f149e92ead563fba08ef,62a45d1b9929010d865390af,,,,,,,,,,,,,,,,,,,,,,,,,,,,,,,,,,,,,,,,,,,,,,,,,,,,,,,,,,,,,,,,,,,,,,,,,,,,,,,,,,,,,,,,,,,,,,,,,,,,,
,,,,,,10,0,10,0,1,X V Q F H G B L J M P D K C T S W R N Z,5ee7bb3aded1b807aac68f9f,20,Mężczyzna,2022-06-11_11h15.40.615,task,2021.1.4,Win32,59.91611744,6299f149e92ead563fba08ef,62a45d1b9929010d865390af,,,,,,,,,,,,,,,,,,,,,,,,,,,,,,,,,,,,,,,,,,,,,,,,,,,,,,,,,,,,,,,,,,,,,,,,,,,,,,,,,,,,,,,,,,,,,,,,,,,,,
,,,,,,,,,,,,5ee7bb3aded1b807aac68f9f,20,Mężczyzna,2022-06-11_11h15.40.615,task,2021.1.4,Win32,59.91611744,6299f149e92ead563fba08ef,62a45d1b9929010d865390af,zbqztzzfjlr,"[""z"",""b"",""q"",""z"",""t"",""z"",""z"",""f"",""j"",""l"",""r""]","[3.0031999999997083,3.6381999999996992,4.51709999999963,5.459499999999991,6.084299999999814,6.441099999999608,6.834699999999714,8.768899999999917,9.42779999999982,11.167299999999841,11.534899999999936,18.098599999999635]",1,ZBQZTZZFJLR,27,0,27,0,1,,,,,,,,,,,,,,,,,,,,,,,,,,,,,,,,,,,,,,,,,,,,,,,,,,,,,,,,,,,,,,,,,,,,,,,,,,,,,,,,,,,,,,,,,,,
,,,,,,0,0,0,0,1,X V Q F H G B L J M P D K C T S W R N Z,5ee7bb3aded1b807aac68f9f,20,Mężczyzna,2022-06-11_11h15.40.615,task,2021.1.4,Win32,59.91611744,6299f149e92ead563fba08ef,62a45d1b9929010d865390af,,,,,,,,,,,,,,,,,,,,,,,,,,,,,,,,,,,,,,,,,,,,,,,,,,,,,,,,,,,,,,,,,,,,,,,,,,,,,,,,,,,,,,,,,,,,,,,,,,,,,
,,,,,,1,0,1,0,1,X V Q F H G B L J M P D K C T S W R N Z,5ee7bb3aded1b807aac68f9f,20,Mężczyzna,2022-06-11_11h15.40.615,task,2021.1.4,Win32,59.91611744,6299f149e92ead563fba08ef,62a45d1b9929010d865390af,,,,,,,,,,,,,,,,,,,,,,,,,,,,,,,,,,,,,,,,,,,,,,,,,,,,,,,,,,,,,,,,,,,,,,,,,,,,,,,,,,,,,,,,,,,,,,,,,,,,,
,,,,,,2,0,2,0,1,X V Q F H G B L J M P D K C T S W R N Z,5ee7bb3aded1b807aac68f9f,20,Mężczyzna,2022-06-11_11h15.40.615,task,2021.1.4,Win32,59.91611744,6299f149e92ead563fba08ef,62a45d1b9929010d865390af,,,,,,,,,,,,,,,,,,,,,,,,,,,,,,,,,,,,,,,,,,,,,,,,,,,,,,,,,,,,,,,,,,,,,,,,,,,,,,,,,,,,,,,,,,,,,,,,,,,,,
,,,,,,3,0,3,0,1,X V Q F H G B L J M P D K C T S W R N Z,5ee7bb3aded1b807aac68f9f,20,Mężczyzna,2022-06-11_11h15.40.615,task,2021.1.4,Win32,59.91611744,6299f149e92ead563fba08ef,62a45d1b9929010d865390af,,,,,,,,,,,,,,,,,,,,,,,,,,,,,,,,,,,,,,,,,,,,,,,,,,,,,,,,,,,,,,,,,,,,,,,,,,,,,,,,,,,,,,,,,,,,,,,,,,,,,
,,,,,,4,0,4,0,1,X V Q F H G B L J M P D K C T S W R N Z,5ee7bb3aded1b807aac68f9f,20,Mężczyzna,2022-06-11_11h15.40.615,task,2021.1.4,Win32,59.91611744,6299f149e92ead563fba08ef,62a45d1b9929010d865390af,,,,,,,,,,,,,,,,,,,,,,,,,,,,,,,,,,,,,,,,,,,,,,,,,,,,,,,,,,,,,,,,,,,,,,,,,,,,,,,,,,,,,,,,,,,,,,,,,,,,,
,,,,,,5,0,5,0,1,X V Q F H G B L J M P D K C T S W R N Z,5ee7bb3aded1b807aac68f9f,20,Mężczyzna,2022-06-11_11h15.40.615,task,2021.1.4,Win32,59.91611744,6299f149e92ead563fba08ef,62a45d1b9929010d865390af,,,,,,,,,,,,,,,,,,,,,,,,,,,,,,,,,,,,,,,,,,,,,,,,,,,,,,,,,,,,,,,,,,,,,,,,,,,,,,,,,,,,,,,,,,,,,,,,,,,,,
,,,,,,6,0,6,0,1,X V Q F H G B L J M P D K C T S W R N Z,5ee7bb3aded1b807aac68f9f,20,Mężczyzna,2022-06-11_11h15.40.615,task,2021.1.4,Win32,59.91611744,6299f149e92ead563fba08ef,62a45d1b9929010d865390af,,,,,,,,,,,,,,,,,,,,,,,,,,,,,,,,,,,,,,,,,,,,,,,,,,,,,,,,,,,,,,,,,,,,,,,,,,,,,,,,,,,,,,,,,,,,,,,,,,,,,
,,,,,,7,0,7,0,1,X V Q F H G B L J M P D K C T S W R N Z,5ee7bb3aded1b807aac68f9f,20,Mężczyzna,2022-06-11_11h15.40.615,task,2021.1.4,Win32,59.91611744,6299f149e92ead563fba08ef,62a45d1b9929010d865390af,,,,,,,,,,,,,,,,,,,,,,,,,,,,,,,,,,,,,,,,,,,,,,,,,,,,,,,,,,,,,,,,,,,,,,,,,,,,,,,,,,,,,,,,,,,,,,,,,,,,,
,,,,,,8,0,8,0,1,X V Q F H G B L J M P D K C T S W R N Z,5ee7bb3aded1b807aac68f9f,20,Mężczyzna,2022-06-11_11h15.40.615,task,2021.1.4,Win32,59.91611744,6299f149e92ead563fba08ef,62a45d1b9929010d865390af,,,,,,,,,,,,,,,,,,,,,,,,,,,,,,,,,,,,,,,,,,,,,,,,,,,,,,,,,,,,,,,,,,,,,,,,,,,,,,,,,,,,,,,,,,,,,,,,,,,,,
,,,,,,9,0,9,0,1,X V Q F H G B L J M P D K C T S W R N Z,5ee7bb3aded1b807aac68f9f,20,Mężczyzna,2022-06-11_11h15.40.615,task,2021.1.4,Win32,59.91611744,6299f149e92ead563fba08ef,62a45d1b9929010d865390af,,,,,,,,,,,,,,,,,,,,,,,,,,,,,,,,,,,,,,,,,,,,,,,,,,,,,,,,,,,,,,,,,,,,,,,,,,,,,,,,,,,,,,,,,,,,,,,,,,,,,
,,,,,,10,0,10,0,1,X V Q F H G B L J M P D K C T S W R N Z,5ee7bb3aded1b807aac68f9f,20,Mężczyzna,2022-06-11_11h15.40.615,task,2021.1.4,Win32,59.91611744,6299f149e92ead563fba08ef,62a45d1b9929010d865390af,,,,,,,,,,,,,,,,,,,,,,,,,,,,,,,,,,,,,,,,,,,,,,,,,,,,,,,,,,,,,,,,,,,,,,,,,,,,,,,,,,,,,,,,,,,,,,,,,,,,,
,,,,,,11,0,11,0,1,X V Q F H G B L J M P D K C T S W R N Z,5ee7bb3aded1b807aac68f9f,20,Mężczyzna,2022-06-11_11h15.40.615,task,2021.1.4,Win32,59.91611744,6299f149e92ead563fba08ef,62a45d1b9929010d865390af,,,,,,,,,,,,,,,,,,,,,,,,,,,,,,,,,,,,,,,,,,,,,,,,,,,,,,,,,,,,,,,,,,,,,,,,,,,,,,,,,,,,,,,,,,,,,,,,,,,,,
,,,,,,,,,,,,5ee7bb3aded1b807aac68f9f,20,Mężczyzna,2022-06-11_11h15.40.615,task,2021.1.4,Win32,59.91611744,6299f149e92ead563fba08ef,62a45d1b9929010d865390af,hmmnfdsqbqpvc,"[""h"",""m"",""m"",""n"",""f"",""d"",""s"",""q"",""b"",""q"",""p"",""v"",""c""]","[3.2363999999998896,3.78129999999976,4.119199999999637,4.903600000000097,5.252299999999764,10.129999999999995,10.907799999999725,11.839600000000019,13.535899999999856,14.427699999999732,14.889899999999898,15.315299999999752,15.944499999999948,17.017100000000028]",0,HMNFDSQBQPVC,28,0,28,0,1,,,,,,,,,,,,,,,,,,,,,,,,,,,,,,,,,,,,,,,,,,,,,,,,,,,,,,,,,,,,,,,,,,,,,,,,,,,,,,,,,,,,,,,,,,,
,,,,,,0,0,0,0,1,X V Q F H G B L J M P D K C T S W R N Z,5ee7bb3aded1b807aac68f9f,20,Mężczyzna,2022-06-11_11h15.40.615,task,2021.1.4,Win32,59.91611744,6299f149e92ead563fba08ef,62a45d1b9929010d865390af,,,,,,,,,,,,,,,,,,,,,,,,,,,,,,,,,,,,,,,,,,,,,,,,,,,,,,,,,,,,,,,,,,,,,,,,,,,,,,,,,,,,,,,,,,,,,,,,,,,,,
,,,,,,1,0,1,0,1,X V Q F H G B L J M P D K C T S W R N Z,5ee7bb3aded1b807aac68f9f,20,Mężczyzna,2022-06-11_11h15.40.615,task,2021.1.4,Win32,59.91611744,6299f149e92ead563fba08ef,62a45d1b9929010d865390af,,,,,,,,,,,,,,,,,,,,,,,,,,,,,,,,,,,,,,,,,,,,,,,,,,,,,,,,,,,,,,,,,,,,,,,,,,,,,,,,,,,,,,,,,,,,,,,,,,,,,
,,,,,,2,0,2,0,1,X V Q F H G B L J M P D K C T S W R N Z,5ee7bb3aded1b807aac68f9f,20,Mężczyzna,2022-06-11_11h15.40.615,task,2021.1.4,Win32,59.91611744,6299f149e92ead563fba08ef,62a45d1b9929010d865390af,,,,,,,,,,,,,,,,,,,,,,,,,,,,,,,,,,,,,,,,,,,,,,,,,,,,,,,,,,,,,,,,,,,,,,,,,,,,,,,,,,,,,,,,,,,,,,,,,,,,,
,,,,,,3,0,3,0,1,X V Q F H G B L J M P D K C T S W R N Z,5ee7bb3aded1b807aac68f9f,20,Mężczyzna,2022-06-11_11h15.40.615,task,2021.1.4,Win32,59.91611744,6299f149e92ead563fba08ef,62a45d1b9929010d865390af,,,,,,,,,,,,,,,,,,,,,,,,,,,,,,,,,,,,,,,,,,,,,,,,,,,,,,,,,,,,,,,,,,,,,,,,,,,,,,,,,,,,,,,,,,,,,,,,,,,,,
,,,,,,4,0,4,0,1,X V Q F H G B L J M P D K C T S W R N Z,5ee7bb3aded1b807aac68f9f,20,Mężczyzna,2022-06-11_11h15.40.615,task,2021.1.4,Win32,59.91611744,6299f149e92ead563fba08ef,62a45d1b9929010d865390af,,,,,,,,,,,,,,,,,,,,,,,,,,,,,,,,,,,,,,,,,,,,,,,,,,,,,,,,,,,,,,,,,,,,,,,,,,,,,,,,,,,,,,,,,,,,,,,,,,,,,
,,,,,,5,0,5,0,1,X V Q F H G B L J M P D K C T S W R N Z,5ee7bb3aded1b807aac68f9f,20,Mężczyzna,2022-06-11_11h15.40.615,task,2021.1.4,Win32,59.91611744,6299f149e92ead563fba08ef,62a45d1b9929010d865390af,,,,,,,,,,,,,,,,,,,,,,,,,,,,,,,,,,,,,,,,,,,,,,,,,,,,,,,,,,,,,,,,,,,,,,,,,,,,,,,,,,,,,,,,,,,,,,,,,,,,,
,,,,,,6,0,6,0,1,X V Q F H G B L J M P D K C T S W R N Z,5ee7bb3aded1b807aac68f9f,20,Mężczyzna,2022-06-11_11h15.40.615,task,2021.1.4,Win32,59.91611744,6299f149e92ead563fba08ef,62a45d1b9929010d865390af,,,,,,,,,,,,,,,,,,,,,,,,,,,,,,,,,,,,,,,,,,,,,,,,,,,,,,,,,,,,,,,,,,,,,,,,,,,,,,,,,,,,,,,,,,,,,,,,,,,,,
,,,,,,7,0,7,0,1,X V Q F H G B L J M P D K C T S W R N Z,5ee7bb3aded1b807aac68f9f,20,Mężczyzna,2022-06-11_11h15.40.615,task,2021.1.4,Win32,59.91611744,6299f149e92ead563fba08ef,62a45d1b9929010d865390af,,,,,,,,,,,,,,,,,,,,,,,,,,,,,,,,,,,,,,,,,,,,,,,,,,,,,,,,,,,,,,,,,,,,,,,,,,,,,,,,,,,,,,,,,,,,,,,,,,,,,
,,,,,,8,0,8,0,1,X V Q F H G B L J M P D K C T S W R N Z,5ee7bb3aded1b807aac68f9f,20,Mężczyzna,2022-06-11_11h15.40.615,task,2021.1.4,Win32,59.91611744,6299f149e92ead563fba08ef,62a45d1b9929010d865390af,,,,,,,,,,,,,,,,,,,,,,,,,,,,,,,,,,,,,,,,,,,,,,,,,,,,,,,,,,,,,,,,,,,,,,,,,,,,,,,,,,,,,,,,,,,,,,,,,,,,,
,,,,,,9,0,9,0,1,X V Q F H G B L J M P D K C T S W R N Z,5ee7bb3aded1b807aac68f9f,20,Mężczyzna,2022-06-11_11h15.40.615,task,2021.1.4,Win32,59.91611744,6299f149e92ead563fba08ef,62a45d1b9929010d865390af,,,,,,,,,,,,,,,,,,,,,,,,,,,,,,,,,,,,,,,,,,,,,,,,,,,,,,,,,,,,,,,,,,,,,,,,,,,,,,,,,,,,,,,,,,,,,,,,,,,,,
,,,,,,10,0,10,0,1,X V Q F H G B L J M P D K C T S W R N Z,5ee7bb3aded1b807aac68f9f,20,Mężczyzna,2022-06-11_11h15.40.615,task,2021.1.4,Win32,59.91611744,6299f149e92ead563fba08ef,62a45d1b9929010d865390af,,,,,,,,,,,,,,,,,,,,,,,,,,,,,,,,,,,,,,,,,,,,,,,,,,,,,,,,,,,,,,,,,,,,,,,,,,,,,,,,,,,,,,,,,,,,,,,,,,,,,
,,,,,,11,0,11,0,1,X V Q F H G B L J M P D K C T S W R N Z,5ee7bb3aded1b807aac68f9f,20,Mężczyzna,2022-06-11_11h15.40.615,task,2021.1.4,Win32,59.91611744,6299f149e92ead563fba08ef,62a45d1b9929010d865390af,,,,,,,,,,,,,,,,,,,,,,,,,,,,,,,,,,,,,,,,,,,,,,,,,,,,,,,,,,,,,,,,,,,,,,,,,,,,,,,,,,,,,,,,,,,,,,,,,,,,,
,,,,,,,,,,,,5ee7bb3aded1b807aac68f9f,20,Mężczyzna,2022-06-11_11h15.40.615,task,2021.1.4,Win32,59.91611744,6299f149e92ead563fba08ef,62a45d1b9929010d865390af,rprzlbprftrf,"[""r"",""p"",""r"",""z"",""l"",""b"",""p"",""r"",""f"",""t"",""r"",""f""]","[3.641699999999787,4.554399999999987,6.286399999999958,7.689100000000167,9.071000000000026,10.100799999999822,10.856699999999705,12.088600000000156,13.119000000000028,14.8376999999997,15.337399999999889,15.594600000000128,17.12329999999986]",0,RPRZLBLRFTRF,29,0,29,0,1,,,,,,,,,,,,,,,,,,,,,,,,,,,,,,,,,,,,,,,,,,,,,,,,,,,,,,,,,,,,,,,,,,,,,,,,,,,,,,,,,,,,,,,,,,,
,,,,,,0,0,0,0,1,X V Q F H G B L J M P D K C T S W R N Z,5ee7bb3aded1b807aac68f9f,20,Mężczyzna,2022-06-11_11h15.40.615,task,2021.1.4,Win32,59.91611744,6299f149e92ead563fba08ef,62a45d1b9929010d865390af,,,,,,,,,,,,,,,,,,,,,,,,,,,,,,,,,,,,,,,,,,,,,,,,,,,,,,,,,,,,,,,,,,,,,,,,,,,,,,,,,,,,,,,,,,,,,,,,,,,,,
,,,,,,1,0,1,0,1,X V Q F H G B L J M P D K C T S W R N Z,5ee7bb3aded1b807aac68f9f,20,Mężczyzna,2022-06-11_11h15.40.615,task,2021.1.4,Win32,59.91611744,6299f149e92ead563fba08ef,62a45d1b9929010d865390af,,,,,,,,,,,,,,,,,,,,,,,,,,,,,,,,,,,,,,,,,,,,,,,,,,,,,,,,,,,,,,,,,,,,,,,,,,,,,,,,,,,,,,,,,,,,,,,,,,,,,
,,,,,,2,0,2,0,1,X V Q F H G B L J M P D K C T S W R N Z,5ee7bb3aded1b807aac68f9f,20,Mężczyzna,2022-06-11_11h15.40.615,task,2021.1.4,Win32,59.91611744,6299f149e92ead563fba08ef,62a45d1b9929010d865390af,,,,,,,,,,,,,,,,,,,,,,,,,,,,,,,,,,,,,,,,,,,,,,,,,,,,,,,,,,,,,,,,,,,,,,,,,,,,,,,,,,,,,,,,,,,,,,,,,,,,,
,,,,,,3,0,3,0,1,X V Q F H G B L J M P D K C T S W R N Z,5ee7bb3aded1b807aac68f9f,20,Mężczyzna,2022-06-11_11h15.40.615,task,2021.1.4,Win32,59.91611744,6299f149e92ead563fba08ef,62a45d1b9929010d865390af,,,,,,,,,,,,,,,,,,,,,,,,,,,,,,,,,,,,,,,,,,,,,,,,,,,,,,,,,,,,,,,,,,,,,,,,,,,,,,,,,,,,,,,,,,,,,,,,,,,,,
,,,,,,4,0,4,0,1,X V Q F H G B L J M P D K C T S W R N Z,5ee7bb3aded1b807aac68f9f,20,Mężczyzna,2022-06-11_11h15.40.615,task,2021.1.4,Win32,59.91611744,6299f149e92ead563fba08ef,62a45d1b9929010d865390af,,,,,,,,,,,,,,,,,,,,,,,,,,,,,,,,,,,,,,,,,,,,,,,,,,,,,,,,,,,,,,,,,,,,,,,,,,,,,,,,,,,,,,,,,,,,,,,,,,,,,
,,,,,,5,0,5,0,1,X V Q F H G B L J M P D K C T S W R N Z,5ee7bb3aded1b807aac68f9f,20,Mężczyzna,2022-06-11_11h15.40.615,task,2021.1.4,Win32,59.91611744,6299f149e92ead563fba08ef,62a45d1b9929010d865390af,,,,,,,,,,,,,,,,,,,,,,,,,,,,,,,,,,,,,,,,,,,,,,,,,,,,,,,,,,,,,,,,,,,,,,,,,,,,,,,,,,,,,,,,,,,,,,,,,,,,,
,,,,,,6,0,6,0,1,X V Q F H G B L J M P D K C T S W R N Z,5ee7bb3aded1b807aac68f9f,20,Mężczyzna,2022-06-11_11h15.40.615,task,2021.1.4,Win32,59.91611744,6299f149e92ead563fba08ef,62a45d1b9929010d865390af,,,,,,,,,,,,,,,,,,,,,,,,,,,,,,,,,,,,,,,,,,,,,,,,,,,,,,,,,,,,,,,,,,,,,,,,,,,,,,,,,,,,,,,,,,,,,,,,,,,,,
,,,,,,7,0,7,0,1,X V Q F H G B L J M P D K C T S W R N Z,5ee7bb3aded1b807aac68f9f,20,Mężczyzna,2022-06-11_11h15.40.615,task,2021.1.4,Win32,59.91611744,6299f149e92ead563fba08ef,62a45d1b9929010d865390af,,,,,,,,,,,,,,,,,,,,,,,,,,,,,,,,,,,,,,,,,,,,,,,,,,,,,,,,,,,,,,,,,,,,,,,,,,,,,,,,,,,,,,,,,,,,,,,,,,,,,
,,,,,,8,0,8,0,1,X V Q F H G B L J M P D K C T S W R N Z,5ee7bb3aded1b807aac68f9f,20,Mężczyzna,2022-06-11_11h15.40.615,task,2021.1.4,Win32,59.91611744,6299f149e92ead563fba08ef,62a45d1b9929010d865390af,,,,,,,,,,,,,,,,,,,,,,,,,,,,,,,,,,,,,,,,,,,,,,,,,,,,,,,,,,,,,,,,,,,,,,,,,,,,,,,,,,,,,,,,,,,,,,,,,,,,,
,,,,,,9,0,9,0,1,X V Q F H G B L J M P D K C T S W R N Z,5ee7bb3aded1b807aac68f9f,20,Mężczyzna,2022-06-11_11h15.40.615,task,2021.1.4,Win32,59.91611744,6299f149e92ead563fba08ef,62a45d1b9929010d865390af,,,,,,,,,,,,,,,,,,,,,,,,,,,,,,,,,,,,,,,,,,,,,,,,,,,,,,,,,,,,,,,,,,,,,,,,,,,,,,,,,,,,,,,,,,,,,,,,,,,,,
,,,,,,10,0,10,0,1,X V Q F H G B L J M P D K C T S W R N Z,5ee7bb3aded1b807aac68f9f,20,Mężczyzna,2022-06-11_11h15.40.615,task,2021.1.4,Win32,59.91611744,6299f149e92ead563fba08ef,62a45d1b9929010d865390af,,,,,,,,,,,,,,,,,,,,,,,,,,,,,,,,,,,,,,,,,,,,,,,,,,,,,,,,,,,,,,,,,,,,,,,,,,,,,,,,,,,,,,,,,,,,,,,,,,,,,
,,,,,,11,0,11,0,1,X V Q F H G B L J M P D K C T S W R N Z,5ee7bb3aded1b807aac68f9f,20,Mężczyzna,2022-06-11_11h15.40.615,task,2021.1.4,Win32,59.91611744,6299f149e92ead563fba08ef,62a45d1b9929010d865390af,,,,,,,,,,,,,,,,,,,,,,,,,,,,,,,,,,,,,,,,,,,,,,,,,,,,,,,,,,,,,,,,,,,,,,,,,,,,,,,,,,,,,,,,,,,,,,,,,,,,,
,,,,,,,,,,,,5ee7bb3aded1b807aac68f9f,20,Mężczyzna,2022-06-11_11h15.40.615,task,2021.1.4,Win32,59.91611744,6299f149e92ead563fba08ef,62a45d1b9929010d865390af,spmrvdbdgtm,"[""s"",""p"",""m"",""r"",""v"",""d"",""b"",""d"",""g"",""t"",""m""]","[2.6620000000000346,2.79849999999999,3.044600000000173,5.078200000000265,7.000200000000177,9.234000000000037,9.853000000000065,11.104700000000207,12.160399999999981,12.72870000000023,13.237899999999968,13.665000000000077]",0,SPMRVDBDBGTM,30,0,30,0,1,,,,,,,,,,,,,,,,,,,,,,,,,,,,,,,,,,,,,,,,,,,,,,,,,,,,,,,,,,,,,,,,,,,,,,,,,,,,,,,,,,,,,,,,,,,
,,,,,,,,,,,,5ee7bb3aded1b807aac68f9f,20,Mężczyzna,2022-06-11_11h15.40.615,task,2021.1.4,Win32,59.91611744,6299f149e92ead563fba08ef,62a45d1b9929010d865390af,,,,,,,,,,,space,31.8398,9,"[""9""]",1,[4.2538999999999305],[4.2538999999999305],0,0,0,9,1,Practice,10,(20/2) - 1,9,,,,,,,,,,,,,,,,,,,,,,,,,,,,,,,,,,,,,,,,,,,,,,,,,,,,,,,,,,,,,,,,,,,,,,,,,,,
,,,,,,,,,,,,5ee7bb3aded1b807aac68f9f,20,Mężczyzna,2022-06-11_11h15.40.615,task,2021.1.4,Win32,59.91611744,6299f149e92ead563fba08ef,62a45d1b9929010d865390af,,,,,,,,,,,,,8,"[""8""]",1,[1.991899999999987],"[4.2538999999999305,1.991899999999987]",0,1,1,8,1,Practice,9,(3x3) - 1,8,,,,,,,,,,,,,,,,,,,,,,,,,,,,,,,,,,,,,,,,,,,,,,,,,,,,,,,,,,,,,,,,,,,,,,,,,,,
,,,,,,,,,,,,5ee7bb3aded1b807aac68f9f,20,Mężczyzna,2022-06-11_11h15.40.615,task,2021.1.4,Win32,59.91611744,6299f149e92ead563fba08ef,62a45d1b9929010d865390af,,,,,,,,,,,,,4,"[""4""]",1,[4.89589999999987],"[4.2538999999999305,1.991899999999987,4.89589999999987]",0,2,2,4,1,Practice,5,(2x6) - 8,4,,,,,,,,,,,,,,,,,,,,,,,,,,,,,,,,,,,,,,,,,,,,,,,,,,,,,,,,,,,,,,,,,,,,,,,,,,,
,,,,,,,,,,,,5ee7bb3aded1b807aac68f9f,20,Mężczyzna,2022-06-11_11h15.40.615,task,2021.1.4,Win32,59.91611744,6299f149e92ead563fba08ef,62a45d1b9929010d865390af,,,,,,,,,,,,,5,"[""5""]",1,[4.161600000000135],"[4.2538999999999305,1.991899999999987,4.89589999999987,4.161600000000135]",0,3,3,5,1,Practice,6,(4/2) + 3,5,,,,,,,,,,,,,,,,,,,,,,,,,,,,,,,,,,,,,,,,,,,,,,,,,,,,,,,,,,,,,,,,,,,,,,,,,,,
,,,,,,,,,,,,5ee7bb3aded1b807aac68f9f,20,Mężczyzna,2022-06-11_11h15.40.615,task,2021.1.4,Win32,59.91611744,6299f149e92ead563fba08ef,62a45d1b9929010d865390af,,,,,,,,,,,,,0,"[""0""]",1,[1.6546000000000731],"[4.2538999999999305,1.991899999999987,4.89589999999987,4.161600000000135,1.6546000000000731]",0,4,4,0,1,Practice,1,(3x3) -  9,0,,,,,,,,,,,,,,,,,,,,,,,,,,,,,,,,,,,,,,,,,,,,,,,,,,,,,,,,,,,,,,,,,,,,,,,,,,,
,,,,,,,,,,,,5ee7bb3aded1b807aac68f9f,20,Mężczyzna,2022-06-11_11h15.40.615,task,2021.1.4,Win32,59.91611744,6299f149e92ead563fba08ef,62a45d1b9929010d865390af,,,,,,,,,,,,,3,"[""3""]",1,[1.8719999999999573],"[4.2538999999999305,1.991899999999987,4.89589999999987,4.161600000000135,1.6546000000000731,1.8719999999999573]",0,5,5,3,1,Practice,4,(8/4) + 1,3,,,,,,,,,,,,,,,,,,,,,,,,,,,,,,,,,,,,,,,,,,,,,,,,,,,,,,,,,,,,,,,,,,,,,,,,,,,
,,,,,,,,,,,,5ee7bb3aded1b807aac68f9f,20,Mężczyzna,2022-06-11_11h15.40.615,task,2021.1.4,Win32,59.91611744,6299f149e92ead563fba08ef,62a45d1b9929010d865390af,,,,,,,,,,,,,6,"[""6""]",1,[3.196300000000292],"[4.2538999999999305,1.991899999999987,4.89589999999987,4.161600000000135,1.6546000000000731,1.8719999999999573,3.196300000000292]",0,6,6,6,1,Practice,7,(25/5) + 1,6,,,,,,,,,,,,,,,,,,,,,,,,,,,,,,,,,,,,,,,,,,,,,,,,,,,,,,,,,,,,,,,,,,,,,,,,,,,
,,,,,,,,,,,,5ee7bb3aded1b807aac68f9f,20,Mężczyzna,2022-06-11_11h15.40.615,task,2021.1.4,Win32,59.91611744,6299f149e92ead563fba08ef,62a45d1b9929010d865390af,,,,,,,,,,,,,7,"[""7""]",1,[5.068599999999606],"[4.2538999999999305,1.991899999999987,4.89589999999987,4.161600000000135,1.6546000000000731,1.8719999999999573,3.196300000000292,5.068599999999606]",0,7,7,7,1,Practice,8,(5x5) - 18,7,,,,,,,,,,,,,,,,,,,,,,,,,,,,,,,,,,,,,,,,,,,,,,,,,,,,,,,,,,,,,,,,,,,,,,,,,,,
,,,,,,,,,,,,5ee7bb3aded1b807aac68f9f,20,Mężczyzna,2022-06-11_11h15.40.615,task,2021.1.4,Win32,59.91611744,6299f149e92ead563fba08ef,62a45d1b9929010d865390af,,,,,,,,,,,,,2,"[""2""]",1,[1.9680000000000746],"[4.2538999999999305,1.991899999999987,4.89589999999987,4.161600000000135,1.6546000000000731,1.8719999999999573,3.196300000000292,5.068599999999606,1.9680000000000746]",0,8,8,2,1,Practice,3,(4x4) - 14,2,,,,,,,,,,,,,,,,,,,,,,,,,,,,,,,,,,,,,,,,,,,,,,,,,,,,,,,,,,,,,,,,,,,,,,,,,,,
,,,,,,,,,,,,5ee7bb3aded1b807aac68f9f,20,Mężczyzna,2022-06-11_11h15.40.615,task,2021.1.4,Win32,59.91611744,6299f149e92ead563fba08ef,62a45d1b9929010d865390af,,,,,,,,,,,,,1,"[""1""]",1,[1.9711000000000922],"[4.2538999999999305,1.991899999999987,4.89589999999987,4.161600000000135,1.6546000000000731,1.8719999999999573,3.196300000000292,5.068599999999606,1.9680000000000746,1.9711000000000922]",0,9,9,1,1,Practice,2,(4x4) - 15,1,,,,,,,,,,,,,,,,,,,,,,,,,,,,,,,,,,,,,,,,,,,,,,,,,,,,,,,,,,,,,,,,,,,,,,,,,,,
,,,,,,,,,,,,5ee7bb3aded1b807aac68f9f,20,Mężczyzna,2022-06-11_11h15.40.615,task,2021.1.4,Win32,59.91611744,6299f149e92ead563fba08ef,62a45d1b9929010d865390af,,,,,,,,,,,,,,,,,,,,,,,,,,,1,31.0339,2.068926667,27.65031517,1.357701861,5.571797469,space,1.8018,0,0,0,0,1,,,,,,,,,,,,,,,,,,,,,,,,,,,,,,,,,,,,,,,,,,,,,,,,,,,,,,,,,,,,,,
,,,,,,,,,,,,5ee7bb3aded1b807aac68f9f,20,Mężczyzna,2022-06-11_11h15.40.615,task,2021.1.4,Win32,59.91611744,6299f149e92ead563fba08ef,62a45d1b9929010d865390af,,,,,,,,,,,,,5,,,,,,,,,,Practice,6,(4/2) + 3,5,,,,,,,,,,,,,,space,30.5347,"[""5""]",1,[3.909999999999968],1,0,0,0,5,1,,,,,,,,,,,,,,,,,,,,,,,,,,,,,,,,,,,,,,,,,,,,,,,,,,,
,,,,,,,,,,,X V Q F H G B L J M P D K C T S W R N Z,5ee7bb3aded1b807aac68f9f,20,Mężczyzna,2022-06-11_11h15.40.615,task,2021.1.4,Win32,59.91611744,6299f149e92ead563fba08ef,62a45d1b9929010d865390af,,,,,,,,,,,,,,,,,,,,,,,,,,,,,,,,,,,,,,,,,,,,,,,,,,,0,0,0,0,1,,,,,,,,,,,,,,,,,,,,,,,,,,,,,,,,,,,,,,,,,,,,,,
,,,,,,,,,,,,5ee7bb3aded1b807aac68f9f,20,Mężczyzna,2022-06-11_11h15.40.615,task,2021.1.4,Win32,59.91611744,6299f149e92ead563fba08ef,62a45d1b9929010d865390af,,,,,,,,,,,,,1,,,,,,,,,,Practice,2,(4x4) - 15,1,,,,,,,,,,,,,,,,"[""1""]",1,[1.6743999999999915],1,0,0,0,1,1,,,,,,,,,,,,,,,,,,,,,,,,,,,,,,,,,,,,,,,,,,,,,,,,,,,
,,,,,,,,,,,X V Q F H G B L J M P D K C T S W R N Z,5ee7bb3aded1b807aac68f9f,20,Mężczyzna,2022-06-11_11h15.40.615,task,2021.1.4,Win32,59.91611744,6299f149e92ead563fba08ef,62a45d1b9929010d865390af,,,,,,,,,,,,,,,,,,,,,,,,,,,,,,,,,,,,,,,,,,,,,,,,,,,1,0,1,0,1,,,,,,,,,,,,,,,,,,,,,,,,,,,,,,,,,,,,,,,,,,,,,,
,,,,,,,,,,,,5ee7bb3aded1b807aac68f9f,20,Mężczyzna,2022-06-11_11h15.40.615,task,2021.1.4,Win32,59.91611744,6299f149e92ead563fba08ef,62a45d1b9929010d865390af,,,,,,,,,,,,,,,,,,,,,,,,,,,,,,,,,,,,,,,,,,,,,,,,,,,,,,,,zw,"[""z"",""w""]",0,"[2.813600000000065,3.1122999999997774,3.665899999999965]",1,0,0,0,0,1,,,,,,,,,,,,,,,,,,,,,,,,,,,,,,,,,,,,
,,,,,,,,,,,,5ee7bb3aded1b807aac68f9f,20,Mężczyzna,2022-06-11_11h15.40.615,task,2021.1.4,Win32,59.91611744,6299f149e92ead563fba08ef,62a45d1b9929010d865390af,,,,,,,,,,,,,9,,,,,,,,,,Practice,10,(20/2) - 1,9,,,,,,,,,,,,,,,,"[""9""]",1,[2.697700000000168],1,0,0,0,9,1,,,,,,,,,,,,,,,,,,,,,,,,,,,,,,,,,,,,,,,,,,,,,,,,,,,
,,,,,,,,,,,X V Q F H G B L J M P D K C T S W R N Z,5ee7bb3aded1b807aac68f9f,20,Mężczyzna,2022-06-11_11h15.40.615,task,2021.1.4,Win32,59.91611744,6299f149e92ead563fba08ef,62a45d1b9929010d865390af,,,,,,,,,,,,,,,,,,,,,,,,,,,,,,,,,,,,,,,,,,,,,,,,,,,0,0,0,0,1,,,,,,,,,,,,,,,,,,,,,,,,,,,,,,,,,,,,,,,,,,,,,,
,,,,,,,,,,,,5ee7bb3aded1b807aac68f9f,20,Mężczyzna,2022-06-11_11h15.40.615,task,2021.1.4,Win32,59.91611744,6299f149e92ead563fba08ef,62a45d1b9929010d865390af,,,,,,,,,,,,,8,,,,,,,,,,Practice,9,(3x3) - 1,8,,,,,,,,,,,,,,,,"[""8""]",1,[2.3419999999999845],1,0,0,0,8,1,,,,,,,,,,,,,,,,,,,,,,,,,,,,,,,,,,,,,,,,,,,,,,,,,,,
,,,,,,,,,,,X V Q F H G B L J M P D K C T S W R N Z,5ee7bb3aded1b807aac68f9f,20,Mężczyzna,2022-06-11_11h15.40.615,task,2021.1.4,Win32,59.91611744,6299f149e92ead563fba08ef,62a45d1b9929010d865390af,,,,,,,,,,,,,,,,,,,,,,,,,,,,,,,,,,,,,,,,,,,,,,,,,,,1,0,1,0,1,,,,,,,,,,,,,,,,,,,,,,,,,,,,,,,,,,,,,,,,,,,,,,
,,,,,,,,,,,,5ee7bb3aded1b807aac68f9f,20,Mężczyzna,2022-06-11_11h15.40.615,task,2021.1.4,Win32,59.91611744,6299f149e92ead563fba08ef,62a45d1b9929010d865390af,,,,,,,,,,,,,,,,,,,,,,,,,,,,,,,,,,,,,,,,,,,,,,,,,,,,,,,,lz,"[""l"",""z""]",0,"[2.700199999999768,3.1698999999998705,4.286500000000046]",1,1,0,1,0,1,,,,,,,,,,,,,,,,,,,,,,,,,,,,,,,,,,,,
,,,,,,,,,,,,5ee7bb3aded1b807aac68f9f,20,Mężczyzna,2022-06-11_11h15.40.615,task,2021.1.4,Win32,59.91611744,6299f149e92ead563fba08ef,62a45d1b9929010d865390af,,,,,,,,,,,,,2,,,,,,,,,,Practice,3,(4x4) - 14,2,,,,,,,,,,,,,,,,"[""2""]",1,[2.633399999999824],1,0,0,0,2,1,,,,,,,,,,,,,,,,,,,,,,,,,,,,,,,,,,,,,,,,,,,,,,,,,,,
,,,,,,,,,,,X V Q F H G B L J M P D K C T S W R N Z,5ee7bb3aded1b807aac68f9f,20,Mężczyzna,2022-06-11_11h15.40.615,task,2021.1.4,Win32,59.91611744,6299f149e92ead563fba08ef,62a45d1b9929010d865390af,,,,,,,,,,,,,,,,,,,,,,,,,,,,,,,,,,,,,,,,,,,,,,,,,,,0,0,0,0,1,,,,,,,,,,,,,,,,,,,,,,,,,,,,,,,,,,,,,,,,,,,,,,
,,,,,,,,,,,,5ee7bb3aded1b807aac68f9f,20,Mężczyzna,2022-06-11_11h15.40.615,task,2021.1.4,Win32,59.91611744,6299f149e92ead563fba08ef,62a45d1b9929010d865390af,,,,,,,,,,,,,5,,,,,,,,,,Practice,6,(4/2) + 3,5,,,,,,,,,,,,,,,,"[""5""]",1,[4.786099999999692],1,0,0,0,5,1,,,,,,,,,,,,,,,,,,,,,,,,,,,,,,,,,,,,,,,,,,,,,,,,,,,
,,,,,,,,,,,X V Q F H G B L J M P D K C T S W R N Z,5ee7bb3aded1b807aac68f9f,20,Mężczyzna,2022-06-11_11h15.40.615,task,2021.1.4,Win32,59.91611744,6299f149e92ead563fba08ef,62a45d1b9929010d865390af,,,,,,,,,,,,,,,,,,,,,,,,,,,,,,,,,,,,,,,,,,,,,,,,,,,1,0,1,0,1,,,,,,,,,,,,,,,,,,,,,,,,,,,,,,,,,,,,,,,,,,,,,,
,,,,,,,,,,,,5ee7bb3aded1b807aac68f9f,20,Mężczyzna,2022-06-11_11h15.40.615,task,2021.1.4,Win32,59.91611744,6299f149e92ead563fba08ef,62a45d1b9929010d865390af,,,,,,,,,,,,,,,,,,,,,,,,,,,,,,,,,,,,,,,,,,,,,,,,,,,,,,,,bq,"[""b"",""q""]",0,"[3.9004999999999654,4.278099999999995,4.837999999999965]",1,2,0,2,0,1,,,,,,,,,,,,,,,,,,,,,,,,,,,,,,,,,,,,
,,,,,,,,,,,,5ee7bb3aded1b807aac68f9f,20,Mężczyzna,2022-06-11_11h15.40.615,task,2021.1.4,Win32,59.91611744,6299f149e92ead563fba08ef,62a45d1b9929010d865390af,,,,,,,,,,,,,9,,,,,,,,,,Task,40,(7x2) - 5,9,,,,,,,,,,,,,,,,,,,1,,,,,,,,,,,,,,,,,,,,,space,18.5031,"[""9""]",1,[4.848299999999767],0,0,0,39,1,,,,,,,,,,,,,,,,,,,,,,,,,,
,,,,,,,,,,,X V Q F H G B L J M P D K C T S W R N Z,5ee7bb3aded1b807aac68f9f,20,Mężczyzna,2022-06-11_11h15.40.615,task,2021.1.4,Win32,59.91611744,6299f149e92ead563fba08ef,62a45d1b9929010d865390af,,,,,,,,,,,,,,,,,,,,,,,,,,,,,,,,,,,,,,,,,,,,,,,,,,,,,,,,,,,,,,,,,,,,,,,,,,,,0,0,0,0,1,,,,,,,,,,,,,,,,,,,,,
,,,,,,,,,,,,5ee7bb3aded1b807aac68f9f,20,Mężczyzna,2022-06-11_11h15.40.615,task,2021.1.4,Win32,59.91611744,6299f149e92ead563fba08ef,62a45d1b9929010d865390af,,,,,,,,,,,,,2,,,,,,,,,,Task,2,(2x2) - 2,2,,,,,,,,,,,,,,,,,,,1,,,,,,,,,,,,,,,,,,,,,,,"[""2""]",1,[2.2652000000001635],0,0,0,1,1,,,,,,,,,,,,,,,,,,,,,,,,,,
,,,,,,,,,,,X V Q F H G B L J M P D K C T S W R N Z,5ee7bb3aded1b807aac68f9f,20,Mężczyzna,2022-06-11_11h15.40.615,task,2021.1.4,Win32,59.91611744,6299f149e92ead563fba08ef,62a45d1b9929010d865390af,,,,,,,,,,,,,,,,,,,,,,,,,,,,,,,,,,,,,,,,,,,,,,,,,,,,,,,,,,,,,,,,,,,,,,,,,,,,1,0,1,0,1,,,,,,,,,,,,,,,,,,,,,
,,,,,,,,,,,,5ee7bb3aded1b807aac68f9f,20,Mężczyzna,2022-06-11_11h15.40.615,task,2021.1.4,Win32,59.91611744,6299f149e92ead563fba08ef,62a45d1b9929010d865390af,,,,,,,,,,,,,,,,,,,,,,,,,,,,,,,,,,,,,,,,,,,,,,,,,,,,,,,,,,,,,,,,,,,,,,,,,,,,,,,,,zz,"[""z"",""z""]",0,"[1.9866000000000668,2.187999999999988,2.5847000000001117]",1,ZZ,0,0,0,0,1,,,,,,,,,,
,,,,,,,,,,,,5ee7bb3aded1b807aac68f9f,20,Mężczyzna,2022-06-11_11h15.40.615,task,2021.1.4,Win32,59.91611744,6299f149e92ead563fba08ef,62a45d1b9929010d865390af,,,,,,,,,,,,,5,,,,,,,,,,Task,29,(3x8) - 19 ,5,,,,,,,,,,,,,,,,,,,1,,,,,,,,,,,,,,,,,,,,,,,"[""5""]",1,[5.367300000000341],0,0,0,28,1,,,,,,,,,,,,,,,,,,,,,,,,,,
,,,,,,,,,,,X V Q F H G B L J M P D K C T S W R N Z,5ee7bb3aded1b807aac68f9f,20,Mężczyzna,2022-06-11_11h15.40.615,task,2021.1.4,Win32,59.91611744,6299f149e92ead563fba08ef,62a45d1b9929010d865390af,,,,,,,,,,,,,,,,,,,,,,,,,,,,,,,,,,,,,,,,,,,,,,,,,,,,,,,,,,,,,,,,,,,,,,,,,,,,0,0,0,0,1,,,,,,,,,,,,,,,,,,,,,
,,,,,,,,,,,,5ee7bb3aded1b807aac68f9f,20,Mężczyzna,2022-06-11_11h15.40.615,task,2021.1.4,Win32,59.91611744,6299f149e92ead563fba08ef,62a45d1b9929010d865390af,,,,,,,,,,,,,2,,,,,,,,,,Task,19,(6/2) - 1,2,,,,,,,,,,,,,,,,,,,1,,,,,,,,,,,,,,,,,,,,,,,"[""2""]",1,[2.5375000000000227],0,0,0,18,1,,,,,,,,,,,,,,,,,,,,,,,,,,
,,,,,,,,,,,X V Q F H G B L J M P D K C T S W R N Z,5ee7bb3aded1b807aac68f9f,20,Mężczyzna,2022-06-11_11h15.40.615,task,2021.1.4,Win32,59.91611744,6299f149e92ead563fba08ef,62a45d1b9929010d865390af,,,,,,,,,,,,,,,,,,,,,,,,,,,,,,,,,,,,,,,,,,,,,,,,,,,,,,,,,,,,,,,,,,,,,,,,,,,,1,0,1,0,1,,,,,,,,,,,,,,,,,,,,,
,,,,,,,,,,,,5ee7bb3aded1b807aac68f9f,20,Mężczyzna,2022-06-11_11h15.40.615,task,2021.1.4,Win32,59.91611744,6299f149e92ead563fba08ef,62a45d1b9929010d865390af,,,,,,,,,,,,,1,,,,,,,,,,Task,18,(16/4) - 3,1,,,,,,,,,,,,,,,,,,,1,,,,,,,,,,,,,,,,,,,,,,,"[""1""]",1,[3.0516000000001213],0,0,0,17,1,,,,,,,,,,,,,,,,,,,,,,,,,,
,,,,,,,,,,,X V Q F H G B L J M P D K C T S W R N Z,5ee7bb3aded1b807aac68f9f,20,Mężczyzna,2022-06-11_11h15.40.615,task,2021.1.4,Win32,59.91611744,6299f149e92ead563fba08ef,62a45d1b9929010d865390af,,,,,,,,,,,,,,,,,,,,,,,,,,,,,,,,,,,,,,,,,,,,,,,,,,,,,,,,,,,,,,,,,,,,,,,,,,,,2,0,2,0,1,,,,,,,,,,,,,,,,,,,,,
,,,,,,,,,,,,5ee7bb3aded1b807aac68f9f,20,Mężczyzna,2022-06-11_11h15.40.615,task,2021.1.4,Win32,59.91611744,6299f149e92ead563fba08ef,62a45d1b9929010d865390af,,,,,,,,,,,,,,,,,,,,,,,,,,,,,,,,,,,,,,,,,,,,,,,,,,,,,,,,,,,,,,,,,,,,,,,,,,,,,,,,,xsl,"[""x"",""s"",""l""]",0,"[2.394300000000271,2.9341000000000577,3.5096000000000913,4.023900000000367]",1,XSL,1,0,1,0,1,,,,,,,,,,
,,,,,,,,,,,,5ee7bb3aded1b807aac68f9f,20,Mężczyzna,2022-06-11_11h15.40.615,task,2021.1.4,Win32,59.91611744,6299f149e92ead563fba08ef,62a45d1b9929010d865390af,,,,,,,,,,,,,0,,,,,,,,,,Task,25,(10/5) - 2,0,,,,,,,,,,,,,,,,,,,1,,,,,,,,,,,,,,,,,,,,,,,"[""0""]",1,[1.7591000000001031],0,0,0,24,1,,,,,,,,,,,,,,,,,,,,,,,,,,
,,,,,,,,,,,X V Q F H G B L J M P D K C T S W R N Z,5ee7bb3aded1b807aac68f9f,20,Mężczyzna,2022-06-11_11h15.40.615,task,2021.1.4,Win32,59.91611744,6299f149e92ead563fba08ef,62a45d1b9929010d865390af,,,,,,,,,,,,,,,,,,,,,,,,,,,,,,,,,,,,,,,,,,,,,,,,,,,,,,,,,,,,,,,,,,,,,,,,,,,,0,0,0,0,1,,,,,,,,,,,,,,,,,,,,,
,,,,,,,,,,,,5ee7bb3aded1b807aac68f9f,20,Mężczyzna,2022-06-11_11h15.40.615,task,2021.1.4,Win32,59.91611744,6299f149e92ead563fba08ef,62a45d1b9929010d865390af,,,,,,,,,,,,,8,,,,,,,,,,Task,39,(5x3) - 7,8,,,,,,,,,,,,,,,,,,,1,,,,,,,,,,,,,,,,,,,,,,,"[""8""]",1,[3.4287999999997965],0,0,0,38,1,,,,,,,,,,,,,,,,,,,,,,,,,,
,,,,,,,,,,,X V Q F H G B L J M P D K C T S W R N Z,5ee7bb3aded1b807aac68f9f,20,Mężczyzna,2022-06-11_11h15.40.615,task,2021.1.4,Win32,59.91611744,6299f149e92ead563fba08ef,62a45d1b9929010d865390af,,,,,,,,,,,,,,,,,,,,,,,,,,,,,,,,,,,,,,,,,,,,,,,,,,,,,,,,,,,,,,,,,,,,,,,,,,,,1,0,1,0,1,,,,,,,,,,,,,,,,,,,,,
,,,,,,,,,,,,5ee7bb3aded1b807aac68f9f,20,Mężczyzna,2022-06-11_11h15.40.615,task,2021.1.4,Win32,59.91611744,6299f149e92ead563fba08ef,62a45d1b9929010d865390af,,,,,,,,,,,,,1,,,,,,,,,,Task,34,(9/3) - 2,1,,,,,,,,,,,,,,,,,,,1,,,,,,,,,,,,,,,,,,,,,,,"[""1""]",1,[3.178800000000251],0,0,0,33,1,,,,,,,,,,,,,,,,,,,,,,,,,,
,,,,,,,,,,,X V Q F H G B L J M P D K C T S W R N Z,5ee7bb3aded1b807aac68f9f,20,Mężczyzna,2022-06-11_11h15.40.615,task,2021.1.4,Win32,59.91611744,6299f149e92ead563fba08ef,62a45d1b9929010d865390af,,,,,,,,,,,,,,,,,,,,,,,,,,,,,,,,,,,,,,,,,,,,,,,,,,,,,,,,,,,,,,,,,,,,,,,,,,,,2,0,2,0,1,,,,,,,,,,,,,,,,,,,,,
,,,,,,,,,,,,5ee7bb3aded1b807aac68f9f,20,Mężczyzna,2022-06-11_11h15.40.615,task,2021.1.4,Win32,59.91611744,6299f149e92ead563fba08ef,62a45d1b9929010d865390af,,,,,,,,,,,,,7,,,,,,,,,,Task,14,(2x2) + 3,7,,,,,,,,,,,,,,,,,,,1,,,,,,,,,,,,,,,,,,,,,,,"[""7""]",1,[3.312000000000012],0,0,0,13,1,,,,,,,,,,,,,,,,,,,,,,,,,,
,,,,,,,,,,,X V Q F H G B L J M P D K C T S W R N Z,5ee7bb3aded1b807aac68f9f,20,Mężczyzna,2022-06-11_11h15.40.615,task,2021.1.4,Win32,59.91611744,6299f149e92ead563fba08ef,62a45d1b9929010d865390af,,,,,,,,,,,,,,,,,,,,,,,,,,,,,,,,,,,,,,,,,,,,,,,,,,,,,,,,,,,,,,,,,,,,,,,,,,,,3,0,3,0,1,,,,,,,,,,,,,,,,,,,,,
,,,,,,,,,,,,5ee7bb3aded1b807aac68f9f,20,Mężczyzna,2022-06-11_11h15.40.615,task,2021.1.4,Win32,59.91611744,6299f149e92ead563fba08ef,62a45d1b9929010d865390af,,,,,,,,,,,,,,,,,,,,,,,,,,,,,,,,,,,,,,,,,,,,,,,,,,,,,,,,,,,,,,,,,,,,,,,,,,,,,,,,,vdqj,"[""v"",""d"",""q"",""j""]",0,"[3.3220000000000027,3.6175000000000637,6.0178999999999405,6.794600000000173,7.435600000000136]",1,VDQJ,2,0,2,0,1,,,,,,,,,,
,,,,,,,,,,,,5ee7bb3aded1b807aac68f9f,20,Mężczyzna,2022-06-11_11h15.40.615,task,2021.1.4,Win32,59.91611744,6299f149e92ead563fba08ef,62a45d1b9929010d865390af,,,,,,,,,,,,,9,,,,,,,,,,Task,40,(7x2) - 5,9,,,,,,,,,,,,,,,,,,,1,,,,,,,,,,,,,,,,,,,,,,,"[""9""]",1,[3.1415000000000646],0,0,0,39,1,,,,,,,,,,,,,,,,,,,,,,,,,,
,,,,,,,,,,,X V Q F H G B L J M P D K C T S W R N Z,5ee7bb3aded1b807aac68f9f,20,Mężczyzna,2022-06-11_11h15.40.615,task,2021.1.4,Win32,59.91611744,6299f149e92ead563fba08ef,62a45d1b9929010d865390af,,,,,,,,,,,,,,,,,,,,,,,,,,,,,,,,,,,,,,,,,,,,,,,,,,,,,,,,,,,,,,,,,,,,,,,,,,,,0,0,0,0,1,,,,,,,,,,,,,,,,,,,,,
,,,,,,,,,,,,5ee7bb3aded1b807aac68f9f,20,Mężczyzna,2022-06-11_11h15.40.615,task,2021.1.4,Win32,59.91611744,6299f149e92ead563fba08ef,62a45d1b9929010d865390af,,,,,,,,,,,,,8,,,,,,,,,,Task,32,(8/2) + 4,8,,,,,,,,,,,,,,,,,,,1,,,,,,,,,,,,,,,,,,,,,,,"[""8""]",1,[1.9934999999999263],0,0,0,31,1,,,,,,,,,,,,,,,,,,,,,,,,,,
