key_resp_15.keys,key_resp_15.rt,key_resp_16.keys,key_resp_16.rt,key_resp_4.keys,key_resp_4.rt,next_letter.thisRepN,next_letter.thisTrialN,next_letter.thisN,next_letter.thisIndex,next_letter.ran,letter,participant,Wiek*,Płeć,date,expName,psychopyVersion,OS,frameRate,study_id,session,simple_recall,key_resp_5.keys,key_resp_5.rt,simple_recall_corr,simple_recall_corrkeys,next_level.thisRepN,next_level.thisTrialN,next_level.thisN,next_level.thisIndex,next_level.ran,key_resp_2.keys,key_resp_2.rt,digit_answer,key_resp.keys,key_resp.corr,key_resp.rt,RT_list,next_equation.thisRepN,next_equation.thisTrialN,next_equation.thisN,next_equation.thisIndex,next_equation.ran,Task,Trial,Problem,Operation_answer,processing_score,sumRT,meanRT,sumdiff,sd,RT,key_resp_3.keys,key_resp_3.rt,repeat_practice.thisRepN,repeat_practice.thisTrialN,repeat_practice.thisN,repeat_practice.thisIndex,repeat_practice.ran,key_resp_6.keys,key_resp_6.rt,key_resp_11.keys,key_resp_11.corr,operation_correct,repeat_if_wrong_prac.thisRepN,repeat_if_wrong_prac.thisTrialN,repeat_if_wrong_prac.thisN,repeat_if_wrong_prac.thisIndex,repeat_if_wrong_prac.ran,key_resp_11.rt,span_size_prac.thisRepN,span_size_prac.thisTrialN,span_size_prac.thisN,span_size_prac.thisIndex,span_size_prac.ran,complex_recall_practice,key_resp_9.keys,key_resp_9.corr,key_resp_9.rt,complex_prac_corr,span_recall_prac.thisRepN,span_recall_prac.thisTrialN,span_recall_prac.thisN,span_recall_prac.thisIndex,span_recall_prac.ran,key_resp_10.keys,key_resp_10.rt,key_resp_7.keys,key_resp_7.corr,key_resp_7.rt,repeat_if_wrong.thisRepN,repeat_if_wrong.thisTrialN,repeat_if_wrong.thisN,repeat_if_wrong.thisIndex,repeat_if_wrong.ran,span_size.thisRepN,span_size.thisTrialN,span_size.thisN,span_size.thisIndex,span_size.ran,complex_recall,key_resp_8.keys,key_resp_8.corr,key_resp_8.rt,complex_recall_corr,complex_recall_corrkeys,span_recall.thisRepN,span_recall.thisTrialN,span_recall.thisN,span_recall.thisIndex,span_recall.ran,key_resp_13.keys,key_resp_13.corr,key_resp_13.rt,random_loop.thisRepN,random_loop.thisTrialN,random_loop.thisN,random_loop.thisIndex,random_loop.ran,key_resp_12.keys,key_resp_12.rt
space,33.3381,space,32.4031,space,11.0151,0,0,0,0,1,X V Q F H G B L J M P D K C T S W R N Z,5eed4cf07aa39616c79b7346,23,Kobieta,2022-06-11_09h27.05.868,task,2021.1.4,Win32,59.89458553,6299f149e92ead563fba08ef,62a442a920a8f585f2a4bc3c,,,,,,,,,,,,,,,,,,,,,,,,,,,,,,,,,,,,,,,,,,,,,,,,,,,,,,,,,,,,,,,,,,,,,,,,,,,,,,,,,,,,,,,,,,,,,,,,,,,,,
,,,,,,1,0,1,0,1,X V Q F H G B L J M P D K C T S W R N Z,5eed4cf07aa39616c79b7346,23,Kobieta,2022-06-11_09h27.05.868,task,2021.1.4,Win32,59.89458553,6299f149e92ead563fba08ef,62a442a920a8f585f2a4bc3c,,,,,,,,,,,,,,,,,,,,,,,,,,,,,,,,,,,,,,,,,,,,,,,,,,,,,,,,,,,,,,,,,,,,,,,,,,,,,,,,,,,,,,,,,,,,,,,,,,,,,
,,,,,,,,,,,,5eed4cf07aa39616c79b7346,23,Kobieta,2022-06-11_09h27.05.868,task,2021.1.4,Win32,59.89458553,6299f149e92ead563fba08ef,62a442a920a8f585f2a4bc3c,zj,"[""z"",""j""]","[3.528600000023843,3.9780000000000086,5.548000000000002]",1,ZJ,0,0,0,0,1,,,,,,,,,,,,,,,,,,,,,,,,,,,,,,,,,,,,,,,,,,,,,,,,,,,,,,,,,,,,,,,,,,,,,,,,,,,,,,,,,,,,,,,,,,,
,,,,,,0,0,0,0,1,X V Q F H G B L J M P D K C T S W R N Z,5eed4cf07aa39616c79b7346,23,Kobieta,2022-06-11_09h27.05.868,task,2021.1.4,Win32,59.89458553,6299f149e92ead563fba08ef,62a442a920a8f585f2a4bc3c,,,,,,,,,,,,,,,,,,,,,,,,,,,,,,,,,,,,,,,,,,,,,,,,,,,,,,,,,,,,,,,,,,,,,,,,,,,,,,,,,,,,,,,,,,,,,,,,,,,,,
,,,,,,1,0,1,0,1,X V Q F H G B L J M P D K C T S W R N Z,5eed4cf07aa39616c79b7346,23,Kobieta,2022-06-11_09h27.05.868,task,2021.1.4,Win32,59.89458553,6299f149e92ead563fba08ef,62a442a920a8f585f2a4bc3c,,,,,,,,,,,,,,,,,,,,,,,,,,,,,,,,,,,,,,,,,,,,,,,,,,,,,,,,,,,,,,,,,,,,,,,,,,,,,,,,,,,,,,,,,,,,,,,,,,,,,
,,,,,,,,,,,,5eed4cf07aa39616c79b7346,23,Kobieta,2022-06-11_09h27.05.868,task,2021.1.4,Win32,59.89458553,6299f149e92ead563fba08ef,62a442a920a8f585f2a4bc3c,mx,"[""m"",""x""]","[2.0828999999761635,2.501200000047689,3.0818999999761587]",1,MX,1,0,1,0,1,,,,,,,,,,,,,,,,,,,,,,,,,,,,,,,,,,,,,,,,,,,,,,,,,,,,,,,,,,,,,,,,,,,,,,,,,,,,,,,,,,,,,,,,,,,
,,,,,,0,0,0,0,1,X V Q F H G B L J M P D K C T S W R N Z,5eed4cf07aa39616c79b7346,23,Kobieta,2022-06-11_09h27.05.868,task,2021.1.4,Win32,59.89458553,6299f149e92ead563fba08ef,62a442a920a8f585f2a4bc3c,,,,,,,,,,,,,,,,,,,,,,,,,,,,,,,,,,,,,,,,,,,,,,,,,,,,,,,,,,,,,,,,,,,,,,,,,,,,,,,,,,,,,,,,,,,,,,,,,,,,,
,,,,,,1,0,1,0,1,X V Q F H G B L J M P D K C T S W R N Z,5eed4cf07aa39616c79b7346,23,Kobieta,2022-06-11_09h27.05.868,task,2021.1.4,Win32,59.89458553,6299f149e92ead563fba08ef,62a442a920a8f585f2a4bc3c,,,,,,,,,,,,,,,,,,,,,,,,,,,,,,,,,,,,,,,,,,,,,,,,,,,,,,,,,,,,,,,,,,,,,,,,,,,,,,,,,,,,,,,,,,,,,,,,,,,,,
,,,,,,2,0,2,0,1,X V Q F H G B L J M P D K C T S W R N Z,5eed4cf07aa39616c79b7346,23,Kobieta,2022-06-11_09h27.05.868,task,2021.1.4,Win32,59.89458553,6299f149e92ead563fba08ef,62a442a920a8f585f2a4bc3c,,,,,,,,,,,,,,,,,,,,,,,,,,,,,,,,,,,,,,,,,,,,,,,,,,,,,,,,,,,,,,,,,,,,,,,,,,,,,,,,,,,,,,,,,,,,,,,,,,,,,
,,,,,,,,,,,,5eed4cf07aa39616c79b7346,23,Kobieta,2022-06-11_09h27.05.868,task,2021.1.4,Win32,59.89458553,6299f149e92ead563fba08ef,62a442a920a8f585f2a4bc3c,xbx,"[""x"",""b"",""x""]","[1.7252000000476784,2.0672000000476913,2.3983000000715293,3.1345000000000027]",1,XBX,2,0,2,0,1,,,,,,,,,,,,,,,,,,,,,,,,,,,,,,,,,,,,,,,,,,,,,,,,,,,,,,,,,,,,,,,,,,,,,,,,,,,,,,,,,,,,,,,,,,,
,,,,,,0,0,0,0,1,X V Q F H G B L J M P D K C T S W R N Z,5eed4cf07aa39616c79b7346,23,Kobieta,2022-06-11_09h27.05.868,task,2021.1.4,Win32,59.89458553,6299f149e92ead563fba08ef,62a442a920a8f585f2a4bc3c,,,,,,,,,,,,,,,,,,,,,,,,,,,,,,,,,,,,,,,,,,,,,,,,,,,,,,,,,,,,,,,,,,,,,,,,,,,,,,,,,,,,,,,,,,,,,,,,,,,,,
,,,,,,1,0,1,0,1,X V Q F H G B L J M P D K C T S W R N Z,5eed4cf07aa39616c79b7346,23,Kobieta,2022-06-11_09h27.05.868,task,2021.1.4,Win32,59.89458553,6299f149e92ead563fba08ef,62a442a920a8f585f2a4bc3c,,,,,,,,,,,,,,,,,,,,,,,,,,,,,,,,,,,,,,,,,,,,,,,,,,,,,,,,,,,,,,,,,,,,,,,,,,,,,,,,,,,,,,,,,,,,,,,,,,,,,
,,,,,,2,0,2,0,1,X V Q F H G B L J M P D K C T S W R N Z,5eed4cf07aa39616c79b7346,23,Kobieta,2022-06-11_09h27.05.868,task,2021.1.4,Win32,59.89458553,6299f149e92ead563fba08ef,62a442a920a8f585f2a4bc3c,,,,,,,,,,,,,,,,,,,,,,,,,,,,,,,,,,,,,,,,,,,,,,,,,,,,,,,,,,,,,,,,,,,,,,,,,,,,,,,,,,,,,,,,,,,,,,,,,,,,,
,,,,,,,,,,,,5eed4cf07aa39616c79b7346,23,Kobieta,2022-06-11_09h27.05.868,task,2021.1.4,Win32,59.89458553,6299f149e92ead563fba08ef,62a442a920a8f585f2a4bc3c,rlf,"[""r"",""l"",""f""]","[1.3216999999284837,1.9383999999761556,2.301399999976155,3.304000000000002]",1,RLF,3,0,3,0,1,,,,,,,,,,,,,,,,,,,,,,,,,,,,,,,,,,,,,,,,,,,,,,,,,,,,,,,,,,,,,,,,,,,,,,,,,,,,,,,,,,,,,,,,,,,
,,,,,,0,0,0,0,1,X V Q F H G B L J M P D K C T S W R N Z,5eed4cf07aa39616c79b7346,23,Kobieta,2022-06-11_09h27.05.868,task,2021.1.4,Win32,59.89458553,6299f149e92ead563fba08ef,62a442a920a8f585f2a4bc3c,,,,,,,,,,,,,,,,,,,,,,,,,,,,,,,,,,,,,,,,,,,,,,,,,,,,,,,,,,,,,,,,,,,,,,,,,,,,,,,,,,,,,,,,,,,,,,,,,,,,,
,,,,,,1,0,1,0,1,X V Q F H G B L J M P D K C T S W R N Z,5eed4cf07aa39616c79b7346,23,Kobieta,2022-06-11_09h27.05.868,task,2021.1.4,Win32,59.89458553,6299f149e92ead563fba08ef,62a442a920a8f585f2a4bc3c,,,,,,,,,,,,,,,,,,,,,,,,,,,,,,,,,,,,,,,,,,,,,,,,,,,,,,,,,,,,,,,,,,,,,,,,,,,,,,,,,,,,,,,,,,,,,,,,,,,,,
,,,,,,2,0,2,0,1,X V Q F H G B L J M P D K C T S W R N Z,5eed4cf07aa39616c79b7346,23,Kobieta,2022-06-11_09h27.05.868,task,2021.1.4,Win32,59.89458553,6299f149e92ead563fba08ef,62a442a920a8f585f2a4bc3c,,,,,,,,,,,,,,,,,,,,,,,,,,,,,,,,,,,,,,,,,,,,,,,,,,,,,,,,,,,,,,,,,,,,,,,,,,,,,,,,,,,,,,,,,,,,,,,,,,,,,
,,,,,,3,0,3,0,1,X V Q F H G B L J M P D K C T S W R N Z,5eed4cf07aa39616c79b7346,23,Kobieta,2022-06-11_09h27.05.868,task,2021.1.4,Win32,59.89458553,6299f149e92ead563fba08ef,62a442a920a8f585f2a4bc3c,,,,,,,,,,,,,,,,,,,,,,,,,,,,,,,,,,,,,,,,,,,,,,,,,,,,,,,,,,,,,,,,,,,,,,,,,,,,,,,,,,,,,,,,,,,,,,,,,,,,,
,,,,,,,,,,,,5eed4cf07aa39616c79b7346,23,Kobieta,2022-06-11_09h27.05.868,task,2021.1.4,Win32,59.89458553,6299f149e92ead563fba08ef,62a442a920a8f585f2a4bc3c,sprw,"[""s"",""p"",""r"",""w""]","[1.353999999999985,1.7014000000953615,2.035700000047683,2.3992000000476708,3.2815000000000083]",1,SPRW,4,0,4,0,1,,,,,,,,,,,,,,,,,,,,,,,,,,,,,,,,,,,,,,,,,,,,,,,,,,,,,,,,,,,,,,,,,,,,,,,,,,,,,,,,,,,,,,,,,,,
,,,,,,0,0,0,0,1,X V Q F H G B L J M P D K C T S W R N Z,5eed4cf07aa39616c79b7346,23,Kobieta,2022-06-11_09h27.05.868,task,2021.1.4,Win32,59.89458553,6299f149e92ead563fba08ef,62a442a920a8f585f2a4bc3c,,,,,,,,,,,,,,,,,,,,,,,,,,,,,,,,,,,,,,,,,,,,,,,,,,,,,,,,,,,,,,,,,,,,,,,,,,,,,,,,,,,,,,,,,,,,,,,,,,,,,
,,,,,,1,0,1,0,1,X V Q F H G B L J M P D K C T S W R N Z,5eed4cf07aa39616c79b7346,23,Kobieta,2022-06-11_09h27.05.868,task,2021.1.4,Win32,59.89458553,6299f149e92ead563fba08ef,62a442a920a8f585f2a4bc3c,,,,,,,,,,,,,,,,,,,,,,,,,,,,,,,,,,,,,,,,,,,,,,,,,,,,,,,,,,,,,,,,,,,,,,,,,,,,,,,,,,,,,,,,,,,,,,,,,,,,,
,,,,,,2,0,2,0,1,X V Q F H G B L J M P D K C T S W R N Z,5eed4cf07aa39616c79b7346,23,Kobieta,2022-06-11_09h27.05.868,task,2021.1.4,Win32,59.89458553,6299f149e92ead563fba08ef,62a442a920a8f585f2a4bc3c,,,,,,,,,,,,,,,,,,,,,,,,,,,,,,,,,,,,,,,,,,,,,,,,,,,,,,,,,,,,,,,,,,,,,,,,,,,,,,,,,,,,,,,,,,,,,,,,,,,,,
,,,,,,3,0,3,0,1,X V Q F H G B L J M P D K C T S W R N Z,5eed4cf07aa39616c79b7346,23,Kobieta,2022-06-11_09h27.05.868,task,2021.1.4,Win32,59.89458553,6299f149e92ead563fba08ef,62a442a920a8f585f2a4bc3c,,,,,,,,,,,,,,,,,,,,,,,,,,,,,,,,,,,,,,,,,,,,,,,,,,,,,,,,,,,,,,,,,,,,,,,,,,,,,,,,,,,,,,,,,,,,,,,,,,,,,
,,,,,,,,,,,,5eed4cf07aa39616c79b7346,23,Kobieta,2022-06-11_09h27.05.868,task,2021.1.4,Win32,59.89458553,6299f149e92ead563fba08ef,62a442a920a8f585f2a4bc3c,hdpj,"[""h"",""d"",""p"",""j""]","[1.4008000000715128,2.6393000000715006,3.6814999999999998,8.994300000071519,9.42560000002382]",0,HDPG,5,0,5,0,1,,,,,,,,,,,,,,,,,,,,,,,,,,,,,,,,,,,,,,,,,,,,,,,,,,,,,,,,,,,,,,,,,,,,,,,,,,,,,,,,,,,,,,,,,,,
,,,,,,0,0,0,0,1,X V Q F H G B L J M P D K C T S W R N Z,5eed4cf07aa39616c79b7346,23,Kobieta,2022-06-11_09h27.05.868,task,2021.1.4,Win32,59.89458553,6299f149e92ead563fba08ef,62a442a920a8f585f2a4bc3c,,,,,,,,,,,,,,,,,,,,,,,,,,,,,,,,,,,,,,,,,,,,,,,,,,,,,,,,,,,,,,,,,,,,,,,,,,,,,,,,,,,,,,,,,,,,,,,,,,,,,
,,,,,,1,0,1,0,1,X V Q F H G B L J M P D K C T S W R N Z,5eed4cf07aa39616c79b7346,23,Kobieta,2022-06-11_09h27.05.868,task,2021.1.4,Win32,59.89458553,6299f149e92ead563fba08ef,62a442a920a8f585f2a4bc3c,,,,,,,,,,,,,,,,,,,,,,,,,,,,,,,,,,,,,,,,,,,,,,,,,,,,,,,,,,,,,,,,,,,,,,,,,,,,,,,,,,,,,,,,,,,,,,,,,,,,,
,,,,,,2,0,2,0,1,X V Q F H G B L J M P D K C T S W R N Z,5eed4cf07aa39616c79b7346,23,Kobieta,2022-06-11_09h27.05.868,task,2021.1.4,Win32,59.89458553,6299f149e92ead563fba08ef,62a442a920a8f585f2a4bc3c,,,,,,,,,,,,,,,,,,,,,,,,,,,,,,,,,,,,,,,,,,,,,,,,,,,,,,,,,,,,,,,,,,,,,,,,,,,,,,,,,,,,,,,,,,,,,,,,,,,,,
,,,,,,3,0,3,0,1,X V Q F H G B L J M P D K C T S W R N Z,5eed4cf07aa39616c79b7346,23,Kobieta,2022-06-11_09h27.05.868,task,2021.1.4,Win32,59.89458553,6299f149e92ead563fba08ef,62a442a920a8f585f2a4bc3c,,,,,,,,,,,,,,,,,,,,,,,,,,,,,,,,,,,,,,,,,,,,,,,,,,,,,,,,,,,,,,,,,,,,,,,,,,,,,,,,,,,,,,,,,,,,,,,,,,,,,
,,,,,,,,,,,,5eed4cf07aa39616c79b7346,23,Kobieta,2022-06-11_09h27.05.868,task,2021.1.4,Win32,59.89458553,6299f149e92ead563fba08ef,62a442a920a8f585f2a4bc3c,jldg,"[""j"",""l"",""d"",""g""]","[2.292999999999978,2.765500000000003,3.4072999999523006,4.400199999928475,5.799599999904615]",1,JLDG,6,0,6,0,1,,,,,,,,,,,,,,,,,,,,,,,,,,,,,,,,,,,,,,,,,,,,,,,,,,,,,,,,,,,,,,,,,,,,,,,,,,,,,,,,,,,,,,,,,,,
,,,,,,0,0,0,0,1,X V Q F H G B L J M P D K C T S W R N Z,5eed4cf07aa39616c79b7346,23,Kobieta,2022-06-11_09h27.05.868,task,2021.1.4,Win32,59.89458553,6299f149e92ead563fba08ef,62a442a920a8f585f2a4bc3c,,,,,,,,,,,,,,,,,,,,,,,,,,,,,,,,,,,,,,,,,,,,,,,,,,,,,,,,,,,,,,,,,,,,,,,,,,,,,,,,,,,,,,,,,,,,,,,,,,,,,
,,,,,,1,0,1,0,1,X V Q F H G B L J M P D K C T S W R N Z,5eed4cf07aa39616c79b7346,23,Kobieta,2022-06-11_09h27.05.868,task,2021.1.4,Win32,59.89458553,6299f149e92ead563fba08ef,62a442a920a8f585f2a4bc3c,,,,,,,,,,,,,,,,,,,,,,,,,,,,,,,,,,,,,,,,,,,,,,,,,,,,,,,,,,,,,,,,,,,,,,,,,,,,,,,,,,,,,,,,,,,,,,,,,,,,,
,,,,,,2,0,2,0,1,X V Q F H G B L J M P D K C T S W R N Z,5eed4cf07aa39616c79b7346,23,Kobieta,2022-06-11_09h27.05.868,task,2021.1.4,Win32,59.89458553,6299f149e92ead563fba08ef,62a442a920a8f585f2a4bc3c,,,,,,,,,,,,,,,,,,,,,,,,,,,,,,,,,,,,,,,,,,,,,,,,,,,,,,,,,,,,,,,,,,,,,,,,,,,,,,,,,,,,,,,,,,,,,,,,,,,,,
,,,,,,3,0,3,0,1,X V Q F H G B L J M P D K C T S W R N Z,5eed4cf07aa39616c79b7346,23,Kobieta,2022-06-11_09h27.05.868,task,2021.1.4,Win32,59.89458553,6299f149e92ead563fba08ef,62a442a920a8f585f2a4bc3c,,,,,,,,,,,,,,,,,,,,,,,,,,,,,,,,,,,,,,,,,,,,,,,,,,,,,,,,,,,,,,,,,,,,,,,,,,,,,,,,,,,,,,,,,,,,,,,,,,,,,
,,,,,,4,0,4,0,1,X V Q F H G B L J M P D K C T S W R N Z,5eed4cf07aa39616c79b7346,23,Kobieta,2022-06-11_09h27.05.868,task,2021.1.4,Win32,59.89458553,6299f149e92ead563fba08ef,62a442a920a8f585f2a4bc3c,,,,,,,,,,,,,,,,,,,,,,,,,,,,,,,,,,,,,,,,,,,,,,,,,,,,,,,,,,,,,,,,,,,,,,,,,,,,,,,,,,,,,,,,,,,,,,,,,,,,,
,,,,,,,,,,,,5eed4cf07aa39616c79b7346,23,Kobieta,2022-06-11_09h27.05.868,task,2021.1.4,Win32,59.89458553,6299f149e92ead563fba08ef,62a442a920a8f585f2a4bc3c,wvgxm,"[""w"",""v"",""g"",""x"",""m""]","[3.546899999976148,4.282899999976138,5.570699999928479,7.426399999976155,10.259799999952321,11.170799999952322]",1,WVGXM,7,0,7,0,1,,,,,,,,,,,,,,,,,,,,,,,,,,,,,,,,,,,,,,,,,,,,,,,,,,,,,,,,,,,,,,,,,,,,,,,,,,,,,,,,,,,,,,,,,,,
,,,,,,0,0,0,0,1,X V Q F H G B L J M P D K C T S W R N Z,5eed4cf07aa39616c79b7346,23,Kobieta,2022-06-11_09h27.05.868,task,2021.1.4,Win32,59.89458553,6299f149e92ead563fba08ef,62a442a920a8f585f2a4bc3c,,,,,,,,,,,,,,,,,,,,,,,,,,,,,,,,,,,,,,,,,,,,,,,,,,,,,,,,,,,,,,,,,,,,,,,,,,,,,,,,,,,,,,,,,,,,,,,,,,,,,
,,,,,,1,0,1,0,1,X V Q F H G B L J M P D K C T S W R N Z,5eed4cf07aa39616c79b7346,23,Kobieta,2022-06-11_09h27.05.868,task,2021.1.4,Win32,59.89458553,6299f149e92ead563fba08ef,62a442a920a8f585f2a4bc3c,,,,,,,,,,,,,,,,,,,,,,,,,,,,,,,,,,,,,,,,,,,,,,,,,,,,,,,,,,,,,,,,,,,,,,,,,,,,,,,,,,,,,,,,,,,,,,,,,,,,,
,,,,,,2,0,2,0,1,X V Q F H G B L J M P D K C T S W R N Z,5eed4cf07aa39616c79b7346,23,Kobieta,2022-06-11_09h27.05.868,task,2021.1.4,Win32,59.89458553,6299f149e92ead563fba08ef,62a442a920a8f585f2a4bc3c,,,,,,,,,,,,,,,,,,,,,,,,,,,,,,,,,,,,,,,,,,,,,,,,,,,,,,,,,,,,,,,,,,,,,,,,,,,,,,,,,,,,,,,,,,,,,,,,,,,,,
,,,,,,3,0,3,0,1,X V Q F H G B L J M P D K C T S W R N Z,5eed4cf07aa39616c79b7346,23,Kobieta,2022-06-11_09h27.05.868,task,2021.1.4,Win32,59.89458553,6299f149e92ead563fba08ef,62a442a920a8f585f2a4bc3c,,,,,,,,,,,,,,,,,,,,,,,,,,,,,,,,,,,,,,,,,,,,,,,,,,,,,,,,,,,,,,,,,,,,,,,,,,,,,,,,,,,,,,,,,,,,,,,,,,,,,
,,,,,,4,0,4,0,1,X V Q F H G B L J M P D K C T S W R N Z,5eed4cf07aa39616c79b7346,23,Kobieta,2022-06-11_09h27.05.868,task,2021.1.4,Win32,59.89458553,6299f149e92ead563fba08ef,62a442a920a8f585f2a4bc3c,,,,,,,,,,,,,,,,,,,,,,,,,,,,,,,,,,,,,,,,,,,,,,,,,,,,,,,,,,,,,,,,,,,,,,,,,,,,,,,,,,,,,,,,,,,,,,,,,,,,,
,,,,,,,,,,,,5eed4cf07aa39616c79b7346,23,Kobieta,2022-06-11_09h27.05.868,task,2021.1.4,Win32,59.89458553,6299f149e92ead563fba08ef,62a442a920a8f585f2a4bc3c,pvhxr,"[""p"",""v"",""h"",""x"",""r""]","[3.7649999999999864,10.79029999995231,11.305999999999983,14.013299999952324,14.379299999952309,16.800799999952318]",0,PVNHS,8,0,8,0,1,,,,,,,,,,,,,,,,,,,,,,,,,,,,,,,,,,,,,,,,,,,,,,,,,,,,,,,,,,,,,,,,,,,,,,,,,,,,,,,,,,,,,,,,,,,
,,,,,,0,0,0,0,1,X V Q F H G B L J M P D K C T S W R N Z,5eed4cf07aa39616c79b7346,23,Kobieta,2022-06-11_09h27.05.868,task,2021.1.4,Win32,59.89458553,6299f149e92ead563fba08ef,62a442a920a8f585f2a4bc3c,,,,,,,,,,,,,,,,,,,,,,,,,,,,,,,,,,,,,,,,,,,,,,,,,,,,,,,,,,,,,,,,,,,,,,,,,,,,,,,,,,,,,,,,,,,,,,,,,,,,,
,,,,,,1,0,1,0,1,X V Q F H G B L J M P D K C T S W R N Z,5eed4cf07aa39616c79b7346,23,Kobieta,2022-06-11_09h27.05.868,task,2021.1.4,Win32,59.89458553,6299f149e92ead563fba08ef,62a442a920a8f585f2a4bc3c,,,,,,,,,,,,,,,,,,,,,,,,,,,,,,,,,,,,,,,,,,,,,,,,,,,,,,,,,,,,,,,,,,,,,,,,,,,,,,,,,,,,,,,,,,,,,,,,,,,,,
,,,,,,2,0,2,0,1,X V Q F H G B L J M P D K C T S W R N Z,5eed4cf07aa39616c79b7346,23,Kobieta,2022-06-11_09h27.05.868,task,2021.1.4,Win32,59.89458553,6299f149e92ead563fba08ef,62a442a920a8f585f2a4bc3c,,,,,,,,,,,,,,,,,,,,,,,,,,,,,,,,,,,,,,,,,,,,,,,,,,,,,,,,,,,,,,,,,,,,,,,,,,,,,,,,,,,,,,,,,,,,,,,,,,,,,
,,,,,,3,0,3,0,1,X V Q F H G B L J M P D K C T S W R N Z,5eed4cf07aa39616c79b7346,23,Kobieta,2022-06-11_09h27.05.868,task,2021.1.4,Win32,59.89458553,6299f149e92ead563fba08ef,62a442a920a8f585f2a4bc3c,,,,,,,,,,,,,,,,,,,,,,,,,,,,,,,,,,,,,,,,,,,,,,,,,,,,,,,,,,,,,,,,,,,,,,,,,,,,,,,,,,,,,,,,,,,,,,,,,,,,,
,,,,,,4,0,4,0,1,X V Q F H G B L J M P D K C T S W R N Z,5eed4cf07aa39616c79b7346,23,Kobieta,2022-06-11_09h27.05.868,task,2021.1.4,Win32,59.89458553,6299f149e92ead563fba08ef,62a442a920a8f585f2a4bc3c,,,,,,,,,,,,,,,,,,,,,,,,,,,,,,,,,,,,,,,,,,,,,,,,,,,,,,,,,,,,,,,,,,,,,,,,,,,,,,,,,,,,,,,,,,,,,,,,,,,,,
,,,,,,,,,,,,5eed4cf07aa39616c79b7346,23,Kobieta,2022-06-11_09h27.05.868,task,2021.1.4,Win32,59.89458553,6299f149e92ead563fba08ef,62a442a920a8f585f2a4bc3c,wqvvm,"[""w"",""q"",""v"",""v"",""m""]","[1.3647999999523108,1.7541999999284883,2.3636999999284853,2.6847999999523324,3.0797999999523142,3.717399999976152]",1,WQVVM,9,0,9,0,1,,,,,,,,,,,,,,,,,,,,,,,,,,,,,,,,,,,,,,,,,,,,,,,,,,,,,,,,,,,,,,,,,,,,,,,,,,,,,,,,,,,,,,,,,,,
,,,,,,0,0,0,0,1,X V Q F H G B L J M P D K C T S W R N Z,5eed4cf07aa39616c79b7346,23,Kobieta,2022-06-11_09h27.05.868,task,2021.1.4,Win32,59.89458553,6299f149e92ead563fba08ef,62a442a920a8f585f2a4bc3c,,,,,,,,,,,,,,,,,,,,,,,,,,,,,,,,,,,,,,,,,,,,,,,,,,,,,,,,,,,,,,,,,,,,,,,,,,,,,,,,,,,,,,,,,,,,,,,,,,,,,
,,,,,,1,0,1,0,1,X V Q F H G B L J M P D K C T S W R N Z,5eed4cf07aa39616c79b7346,23,Kobieta,2022-06-11_09h27.05.868,task,2021.1.4,Win32,59.89458553,6299f149e92ead563fba08ef,62a442a920a8f585f2a4bc3c,,,,,,,,,,,,,,,,,,,,,,,,,,,,,,,,,,,,,,,,,,,,,,,,,,,,,,,,,,,,,,,,,,,,,,,,,,,,,,,,,,,,,,,,,,,,,,,,,,,,,
,,,,,,2,0,2,0,1,X V Q F H G B L J M P D K C T S W R N Z,5eed4cf07aa39616c79b7346,23,Kobieta,2022-06-11_09h27.05.868,task,2021.1.4,Win32,59.89458553,6299f149e92ead563fba08ef,62a442a920a8f585f2a4bc3c,,,,,,,,,,,,,,,,,,,,,,,,,,,,,,,,,,,,,,,,,,,,,,,,,,,,,,,,,,,,,,,,,,,,,,,,,,,,,,,,,,,,,,,,,,,,,,,,,,,,,
,,,,,,3,0,3,0,1,X V Q F H G B L J M P D K C T S W R N Z,5eed4cf07aa39616c79b7346,23,Kobieta,2022-06-11_09h27.05.868,task,2021.1.4,Win32,59.89458553,6299f149e92ead563fba08ef,62a442a920a8f585f2a4bc3c,,,,,,,,,,,,,,,,,,,,,,,,,,,,,,,,,,,,,,,,,,,,,,,,,,,,,,,,,,,,,,,,,,,,,,,,,,,,,,,,,,,,,,,,,,,,,,,,,,,,,
,,,,,,4,0,4,0,1,X V Q F H G B L J M P D K C T S W R N Z,5eed4cf07aa39616c79b7346,23,Kobieta,2022-06-11_09h27.05.868,task,2021.1.4,Win32,59.89458553,6299f149e92ead563fba08ef,62a442a920a8f585f2a4bc3c,,,,,,,,,,,,,,,,,,,,,,,,,,,,,,,,,,,,,,,,,,,,,,,,,,,,,,,,,,,,,,,,,,,,,,,,,,,,,,,,,,,,,,,,,,,,,,,,,,,,,
,,,,,,5,0,5,0,1,X V Q F H G B L J M P D K C T S W R N Z,5eed4cf07aa39616c79b7346,23,Kobieta,2022-06-11_09h27.05.868,task,2021.1.4,Win32,59.89458553,6299f149e92ead563fba08ef,62a442a920a8f585f2a4bc3c,,,,,,,,,,,,,,,,,,,,,,,,,,,,,,,,,,,,,,,,,,,,,,,,,,,,,,,,,,,,,,,,,,,,,,,,,,,,,,,,,,,,,,,,,,,,,,,,,,,,,
,,,,,,,,,,,,5eed4cf07aa39616c79b7346,23,Kobieta,2022-06-11_09h27.05.868,task,2021.1.4,Win32,59.89458553,6299f149e92ead563fba08ef,62a442a920a8f585f2a4bc3c,qtmjkd,"[""q"",""t"",""m"",""j"",""k"",""d""]","[1.5938999999761734,2.3017999999523227,2.9961000000238585,3.5992999999523363,4.173799999952337,4.706200000047687,5.255600000023861]",1,QTMJKD,10,0,10,0,1,,,,,,,,,,,,,,,,,,,,,,,,,,,,,,,,,,,,,,,,,,,,,,,,,,,,,,,,,,,,,,,,,,,,,,,,,,,,,,,,,,,,,,,,,,,
,,,,,,0,0,0,0,1,X V Q F H G B L J M P D K C T S W R N Z,5eed4cf07aa39616c79b7346,23,Kobieta,2022-06-11_09h27.05.868,task,2021.1.4,Win32,59.89458553,6299f149e92ead563fba08ef,62a442a920a8f585f2a4bc3c,,,,,,,,,,,,,,,,,,,,,,,,,,,,,,,,,,,,,,,,,,,,,,,,,,,,,,,,,,,,,,,,,,,,,,,,,,,,,,,,,,,,,,,,,,,,,,,,,,,,,
,,,,,,1,0,1,0,1,X V Q F H G B L J M P D K C T S W R N Z,5eed4cf07aa39616c79b7346,23,Kobieta,2022-06-11_09h27.05.868,task,2021.1.4,Win32,59.89458553,6299f149e92ead563fba08ef,62a442a920a8f585f2a4bc3c,,,,,,,,,,,,,,,,,,,,,,,,,,,,,,,,,,,,,,,,,,,,,,,,,,,,,,,,,,,,,,,,,,,,,,,,,,,,,,,,,,,,,,,,,,,,,,,,,,,,,
,,,,,,2,0,2,0,1,X V Q F H G B L J M P D K C T S W R N Z,5eed4cf07aa39616c79b7346,23,Kobieta,2022-06-11_09h27.05.868,task,2021.1.4,Win32,59.89458553,6299f149e92ead563fba08ef,62a442a920a8f585f2a4bc3c,,,,,,,,,,,,,,,,,,,,,,,,,,,,,,,,,,,,,,,,,,,,,,,,,,,,,,,,,,,,,,,,,,,,,,,,,,,,,,,,,,,,,,,,,,,,,,,,,,,,,
,,,,,,3,0,3,0,1,X V Q F H G B L J M P D K C T S W R N Z,5eed4cf07aa39616c79b7346,23,Kobieta,2022-06-11_09h27.05.868,task,2021.1.4,Win32,59.89458553,6299f149e92ead563fba08ef,62a442a920a8f585f2a4bc3c,,,,,,,,,,,,,,,,,,,,,,,,,,,,,,,,,,,,,,,,,,,,,,,,,,,,,,,,,,,,,,,,,,,,,,,,,,,,,,,,,,,,,,,,,,,,,,,,,,,,,
,,,,,,4,0,4,0,1,X V Q F H G B L J M P D K C T S W R N Z,5eed4cf07aa39616c79b7346,23,Kobieta,2022-06-11_09h27.05.868,task,2021.1.4,Win32,59.89458553,6299f149e92ead563fba08ef,62a442a920a8f585f2a4bc3c,,,,,,,,,,,,,,,,,,,,,,,,,,,,,,,,,,,,,,,,,,,,,,,,,,,,,,,,,,,,,,,,,,,,,,,,,,,,,,,,,,,,,,,,,,,,,,,,,,,,,
,,,,,,5,0,5,0,1,X V Q F H G B L J M P D K C T S W R N Z,5eed4cf07aa39616c79b7346,23,Kobieta,2022-06-11_09h27.05.868,task,2021.1.4,Win32,59.89458553,6299f149e92ead563fba08ef,62a442a920a8f585f2a4bc3c,,,,,,,,,,,,,,,,,,,,,,,,,,,,,,,,,,,,,,,,,,,,,,,,,,,,,,,,,,,,,,,,,,,,,,,,,,,,,,,,,,,,,,,,,,,,,,,,,,,,,
,,,,,,,,,,,,5eed4cf07aa39616c79b7346,23,Kobieta,2022-06-11_09h27.05.868,task,2021.1.4,Win32,59.89458553,6299f149e92ead563fba08ef,62a442a920a8f585f2a4bc3c,tvqpwk,"[""t"",""v"",""q"",""p"",""w"",""k""]","[2.1648999999761713,3.5705000000000098,4.018700000047687,4.64910000002385,5.259700000047701,5.466899999976164,6.124700000047682]",1,TVQPWK,11,0,11,0,1,,,,,,,,,,,,,,,,,,,,,,,,,,,,,,,,,,,,,,,,,,,,,,,,,,,,,,,,,,,,,,,,,,,,,,,,,,,,,,,,,,,,,,,,,,,
,,,,,,0,0,0,0,1,X V Q F H G B L J M P D K C T S W R N Z,5eed4cf07aa39616c79b7346,23,Kobieta,2022-06-11_09h27.05.868,task,2021.1.4,Win32,59.89458553,6299f149e92ead563fba08ef,62a442a920a8f585f2a4bc3c,,,,,,,,,,,,,,,,,,,,,,,,,,,,,,,,,,,,,,,,,,,,,,,,,,,,,,,,,,,,,,,,,,,,,,,,,,,,,,,,,,,,,,,,,,,,,,,,,,,,,
,,,,,,1,0,1,0,1,X V Q F H G B L J M P D K C T S W R N Z,5eed4cf07aa39616c79b7346,23,Kobieta,2022-06-11_09h27.05.868,task,2021.1.4,Win32,59.89458553,6299f149e92ead563fba08ef,62a442a920a8f585f2a4bc3c,,,,,,,,,,,,,,,,,,,,,,,,,,,,,,,,,,,,,,,,,,,,,,,,,,,,,,,,,,,,,,,,,,,,,,,,,,,,,,,,,,,,,,,,,,,,,,,,,,,,,
,,,,,,2,0,2,0,1,X V Q F H G B L J M P D K C T S W R N Z,5eed4cf07aa39616c79b7346,23,Kobieta,2022-06-11_09h27.05.868,task,2021.1.4,Win32,59.89458553,6299f149e92ead563fba08ef,62a442a920a8f585f2a4bc3c,,,,,,,,,,,,,,,,,,,,,,,,,,,,,,,,,,,,,,,,,,,,,,,,,,,,,,,,,,,,,,,,,,,,,,,,,,,,,,,,,,,,,,,,,,,,,,,,,,,,,
,,,,,,3,0,3,0,1,X V Q F H G B L J M P D K C T S W R N Z,5eed4cf07aa39616c79b7346,23,Kobieta,2022-06-11_09h27.05.868,task,2021.1.4,Win32,59.89458553,6299f149e92ead563fba08ef,62a442a920a8f585f2a4bc3c,,,,,,,,,,,,,,,,,,,,,,,,,,,,,,,,,,,,,,,,,,,,,,,,,,,,,,,,,,,,,,,,,,,,,,,,,,,,,,,,,,,,,,,,,,,,,,,,,,,,,
,,,,,,4,0,4,0,1,X V Q F H G B L J M P D K C T S W R N Z,5eed4cf07aa39616c79b7346,23,Kobieta,2022-06-11_09h27.05.868,task,2021.1.4,Win32,59.89458553,6299f149e92ead563fba08ef,62a442a920a8f585f2a4bc3c,,,,,,,,,,,,,,,,,,,,,,,,,,,,,,,,,,,,,,,,,,,,,,,,,,,,,,,,,,,,,,,,,,,,,,,,,,,,,,,,,,,,,,,,,,,,,,,,,,,,,
,,,,,,5,0,5,0,1,X V Q F H G B L J M P D K C T S W R N Z,5eed4cf07aa39616c79b7346,23,Kobieta,2022-06-11_09h27.05.868,task,2021.1.4,Win32,59.89458553,6299f149e92ead563fba08ef,62a442a920a8f585f2a4bc3c,,,,,,,,,,,,,,,,,,,,,,,,,,,,,,,,,,,,,,,,,,,,,,,,,,,,,,,,,,,,,,,,,,,,,,,,,,,,,,,,,,,,,,,,,,,,,,,,,,,,,
,,,,,,6,0,6,0,1,X V Q F H G B L J M P D K C T S W R N Z,5eed4cf07aa39616c79b7346,23,Kobieta,2022-06-11_09h27.05.868,task,2021.1.4,Win32,59.89458553,6299f149e92ead563fba08ef,62a442a920a8f585f2a4bc3c,,,,,,,,,,,,,,,,,,,,,,,,,,,,,,,,,,,,,,,,,,,,,,,,,,,,,,,,,,,,,,,,,,,,,,,,,,,,,,,,,,,,,,,,,,,,,,,,,,,,,
,,,,,,,,,,,,5eed4cf07aa39616c79b7346,23,Kobieta,2022-06-11_09h27.05.868,task,2021.1.4,Win32,59.89458553,6299f149e92ead563fba08ef,62a442a920a8f585f2a4bc3c,dzqlfz,"[""d"",""z"",""q"",""l"",""f"",""z""]","[1.7291999999284542,2.162600000023815,3.028799999952298,3.6999999999999886,4.379399999976158,6.2592999999523045,9.820499999999981]",0,DZQLFZD,12,0,12,0,1,,,,,,,,,,,,,,,,,,,,,,,,,,,,,,,,,,,,,,,,,,,,,,,,,,,,,,,,,,,,,,,,,,,,,,,,,,,,,,,,,,,,,,,,,,,
,,,,,,0,0,0,0,1,X V Q F H G B L J M P D K C T S W R N Z,5eed4cf07aa39616c79b7346,23,Kobieta,2022-06-11_09h27.05.868,task,2021.1.4,Win32,59.89458553,6299f149e92ead563fba08ef,62a442a920a8f585f2a4bc3c,,,,,,,,,,,,,,,,,,,,,,,,,,,,,,,,,,,,,,,,,,,,,,,,,,,,,,,,,,,,,,,,,,,,,,,,,,,,,,,,,,,,,,,,,,,,,,,,,,,,,
,,,,,,1,0,1,0,1,X V Q F H G B L J M P D K C T S W R N Z,5eed4cf07aa39616c79b7346,23,Kobieta,2022-06-11_09h27.05.868,task,2021.1.4,Win32,59.89458553,6299f149e92ead563fba08ef,62a442a920a8f585f2a4bc3c,,,,,,,,,,,,,,,,,,,,,,,,,,,,,,,,,,,,,,,,,,,,,,,,,,,,,,,,,,,,,,,,,,,,,,,,,,,,,,,,,,,,,,,,,,,,,,,,,,,,,
,,,,,,2,0,2,0,1,X V Q F H G B L J M P D K C T S W R N Z,5eed4cf07aa39616c79b7346,23,Kobieta,2022-06-11_09h27.05.868,task,2021.1.4,Win32,59.89458553,6299f149e92ead563fba08ef,62a442a920a8f585f2a4bc3c,,,,,,,,,,,,,,,,,,,,,,,,,,,,,,,,,,,,,,,,,,,,,,,,,,,,,,,,,,,,,,,,,,,,,,,,,,,,,,,,,,,,,,,,,,,,,,,,,,,,,
,,,,,,3,0,3,0,1,X V Q F H G B L J M P D K C T S W R N Z,5eed4cf07aa39616c79b7346,23,Kobieta,2022-06-11_09h27.05.868,task,2021.1.4,Win32,59.89458553,6299f149e92ead563fba08ef,62a442a920a8f585f2a4bc3c,,,,,,,,,,,,,,,,,,,,,,,,,,,,,,,,,,,,,,,,,,,,,,,,,,,,,,,,,,,,,,,,,,,,,,,,,,,,,,,,,,,,,,,,,,,,,,,,,,,,,
,,,,,,4,0,4,0,1,X V Q F H G B L J M P D K C T S W R N Z,5eed4cf07aa39616c79b7346,23,Kobieta,2022-06-11_09h27.05.868,task,2021.1.4,Win32,59.89458553,6299f149e92ead563fba08ef,62a442a920a8f585f2a4bc3c,,,,,,,,,,,,,,,,,,,,,,,,,,,,,,,,,,,,,,,,,,,,,,,,,,,,,,,,,,,,,,,,,,,,,,,,,,,,,,,,,,,,,,,,,,,,,,,,,,,,,
,,,,,,5,0,5,0,1,X V Q F H G B L J M P D K C T S W R N Z,5eed4cf07aa39616c79b7346,23,Kobieta,2022-06-11_09h27.05.868,task,2021.1.4,Win32,59.89458553,6299f149e92ead563fba08ef,62a442a920a8f585f2a4bc3c,,,,,,,,,,,,,,,,,,,,,,,,,,,,,,,,,,,,,,,,,,,,,,,,,,,,,,,,,,,,,,,,,,,,,,,,,,,,,,,,,,,,,,,,,,,,,,,,,,,,,
,,,,,,6,0,6,0,1,X V Q F H G B L J M P D K C T S W R N Z,5eed4cf07aa39616c79b7346,23,Kobieta,2022-06-11_09h27.05.868,task,2021.1.4,Win32,59.89458553,6299f149e92ead563fba08ef,62a442a920a8f585f2a4bc3c,,,,,,,,,,,,,,,,,,,,,,,,,,,,,,,,,,,,,,,,,,,,,,,,,,,,,,,,,,,,,,,,,,,,,,,,,,,,,,,,,,,,,,,,,,,,,,,,,,,,,
,,,,,,,,,,,,5eed4cf07aa39616c79b7346,23,Kobieta,2022-06-11_09h27.05.868,task,2021.1.4,Win32,59.89458553,6299f149e92ead563fba08ef,62a442a920a8f585f2a4bc3c,dvdmdtm,"[""d"",""v"",""d"",""m"",""d"",""t"",""m""]","[2.1733000000714924,2.8691000000238205,3.3677000000476482,4.198499999999967,9.6273000000715,10.340400000095372,12.642999999999972,13.120700000047691]",0,DVDMDTC,13,0,13,0,1,,,,,,,,,,,,,,,,,,,,,,,,,,,,,,,,,,,,,,,,,,,,,,,,,,,,,,,,,,,,,,,,,,,,,,,,,,,,,,,,,,,,,,,,,,,
,,,,,,0,0,0,0,1,X V Q F H G B L J M P D K C T S W R N Z,5eed4cf07aa39616c79b7346,23,Kobieta,2022-06-11_09h27.05.868,task,2021.1.4,Win32,59.89458553,6299f149e92ead563fba08ef,62a442a920a8f585f2a4bc3c,,,,,,,,,,,,,,,,,,,,,,,,,,,,,,,,,,,,,,,,,,,,,,,,,,,,,,,,,,,,,,,,,,,,,,,,,,,,,,,,,,,,,,,,,,,,,,,,,,,,,
,,,,,,1,0,1,0,1,X V Q F H G B L J M P D K C T S W R N Z,5eed4cf07aa39616c79b7346,23,Kobieta,2022-06-11_09h27.05.868,task,2021.1.4,Win32,59.89458553,6299f149e92ead563fba08ef,62a442a920a8f585f2a4bc3c,,,,,,,,,,,,,,,,,,,,,,,,,,,,,,,,,,,,,,,,,,,,,,,,,,,,,,,,,,,,,,,,,,,,,,,,,,,,,,,,,,,,,,,,,,,,,,,,,,,,,
,,,,,,2,0,2,0,1,X V Q F H G B L J M P D K C T S W R N Z,5eed4cf07aa39616c79b7346,23,Kobieta,2022-06-11_09h27.05.868,task,2021.1.4,Win32,59.89458553,6299f149e92ead563fba08ef,62a442a920a8f585f2a4bc3c,,,,,,,,,,,,,,,,,,,,,,,,,,,,,,,,,,,,,,,,,,,,,,,,,,,,,,,,,,,,,,,,,,,,,,,,,,,,,,,,,,,,,,,,,,,,,,,,,,,,,
,,,,,,3,0,3,0,1,X V Q F H G B L J M P D K C T S W R N Z,5eed4cf07aa39616c79b7346,23,Kobieta,2022-06-11_09h27.05.868,task,2021.1.4,Win32,59.89458553,6299f149e92ead563fba08ef,62a442a920a8f585f2a4bc3c,,,,,,,,,,,,,,,,,,,,,,,,,,,,,,,,,,,,,,,,,,,,,,,,,,,,,,,,,,,,,,,,,,,,,,,,,,,,,,,,,,,,,,,,,,,,,,,,,,,,,
,,,,,,4,0,4,0,1,X V Q F H G B L J M P D K C T S W R N Z,5eed4cf07aa39616c79b7346,23,Kobieta,2022-06-11_09h27.05.868,task,2021.1.4,Win32,59.89458553,6299f149e92ead563fba08ef,62a442a920a8f585f2a4bc3c,,,,,,,,,,,,,,,,,,,,,,,,,,,,,,,,,,,,,,,,,,,,,,,,,,,,,,,,,,,,,,,,,,,,,,,,,,,,,,,,,,,,,,,,,,,,,,,,,,,,,
,,,,,,5,0,5,0,1,X V Q F H G B L J M P D K C T S W R N Z,5eed4cf07aa39616c79b7346,23,Kobieta,2022-06-11_09h27.05.868,task,2021.1.4,Win32,59.89458553,6299f149e92ead563fba08ef,62a442a920a8f585f2a4bc3c,,,,,,,,,,,,,,,,,,,,,,,,,,,,,,,,,,,,,,,,,,,,,,,,,,,,,,,,,,,,,,,,,,,,,,,,,,,,,,,,,,,,,,,,,,,,,,,,,,,,,
,,,,,,6,0,6,0,1,X V Q F H G B L J M P D K C T S W R N Z,5eed4cf07aa39616c79b7346,23,Kobieta,2022-06-11_09h27.05.868,task,2021.1.4,Win32,59.89458553,6299f149e92ead563fba08ef,62a442a920a8f585f2a4bc3c,,,,,,,,,,,,,,,,,,,,,,,,,,,,,,,,,,,,,,,,,,,,,,,,,,,,,,,,,,,,,,,,,,,,,,,,,,,,,,,,,,,,,,,,,,,,,,,,,,,,,
,,,,,,,,,,,,5eed4cf07aa39616c79b7346,23,Kobieta,2022-06-11_09h27.05.868,task,2021.1.4,Win32,59.89458553,6299f149e92ead563fba08ef,62a442a920a8f585f2a4bc3c,hnzrmt,"[""h"",""n"",""z"",""r"",""m"",""t""]","[0.9269999999999641,1.8891000000238023,6.086000000000013,7.0624000000953515,7.49420000004767,9.12120000004768,11.100999999999999]",0,HNZRMDS,14,0,14,0,1,,,,,,,,,,,,,,,,,,,,,,,,,,,,,,,,,,,,,,,,,,,,,,,,,,,,,,,,,,,,,,,,,,,,,,,,,,,,,,,,,,,,,,,,,,,
,,,,,,,,,,,,5eed4cf07aa39616c79b7346,23,Kobieta,2022-06-11_09h27.05.868,task,2021.1.4,Win32,59.89458553,6299f149e92ead563fba08ef,62a442a920a8f585f2a4bc3c,,,,,,,,,,,space,12.5905,5,"[""5""]",1,[4.003399999976182],[4.003399999976182],0,0,0,5,1,Practice,6,(4/2) + 3,5,,,,,,,,,,,,,,,,,,,,,,,,,,,,,,,,,,,,,,,,,,,,,,,,,,,,,,,,,,,,,,,,,,,,,,,,,,,
,,,,,,,,,,,,5eed4cf07aa39616c79b7346,23,Kobieta,2022-06-11_09h27.05.868,task,2021.1.4,Win32,59.89458553,6299f149e92ead563fba08ef,62a442a920a8f585f2a4bc3c,,,,,,,,,,,,,9,"[""9""]",1,[3.426200000047686],"[4.003399999976182,3.426200000047686]",0,1,1,9,1,Practice,10,(20/2) - 1,9,,,,,,,,,,,,,,,,,,,,,,,,,,,,,,,,,,,,,,,,,,,,,,,,,,,,,,,,,,,,,,,,,,,,,,,,,,,
,,,,,,,,,,,,5eed4cf07aa39616c79b7346,23,Kobieta,2022-06-11_09h27.05.868,task,2021.1.4,Win32,59.89458553,6299f149e92ead563fba08ef,62a442a920a8f585f2a4bc3c,,,,,,,,,,,,,0,"[""0""]",1,[1.8672999999523086],"[4.003399999976182,3.426200000047686,1.8672999999523086]",0,2,2,0,1,Practice,1,(3x3) -  9,0,,,,,,,,,,,,,,,,,,,,,,,,,,,,,,,,,,,,,,,,,,,,,,,,,,,,,,,,,,,,,,,,,,,,,,,,,,,
,,,,,,,,,,,,5eed4cf07aa39616c79b7346,23,Kobieta,2022-06-11_09h27.05.868,task,2021.1.4,Win32,59.89458553,6299f149e92ead563fba08ef,62a442a920a8f585f2a4bc3c,,,,,,,,,,,,,7,"[""7""]",1,[4.786600000023839],"[4.003399999976182,3.426200000047686,1.8672999999523086,4.786600000023839]",0,3,3,7,1,Practice,8,(5x5) - 18,7,,,,,,,,,,,,,,,,,,,,,,,,,,,,,,,,,,,,,,,,,,,,,,,,,,,,,,,,,,,,,,,,,,,,,,,,,,,
,,,,,,,,,,,,5eed4cf07aa39616c79b7346,23,Kobieta,2022-06-11_09h27.05.868,task,2021.1.4,Win32,59.89458553,6299f149e92ead563fba08ef,62a442a920a8f585f2a4bc3c,,,,,,,,,,,,,2,"[""2""]",1,[1.8696999999284571],"[4.003399999976182,3.426200000047686,1.8672999999523086,4.786600000023839,1.8696999999284571]",0,4,4,2,1,Practice,3,(4x4) - 14,2,,,,,,,,,,,,,,,,,,,,,,,,,,,,,,,,,,,,,,,,,,,,,,,,,,,,,,,,,,,,,,,,,,,,,,,,,,,
,,,,,,,,,,,,5eed4cf07aa39616c79b7346,23,Kobieta,2022-06-11_09h27.05.868,task,2021.1.4,Win32,59.89458553,6299f149e92ead563fba08ef,62a442a920a8f585f2a4bc3c,,,,,,,,,,,,,1,"[""1""]",1,[1.7422999999523086],"[4.003399999976182,3.426200000047686,1.8672999999523086,4.786600000023839,1.8696999999284571,1.7422999999523086]",0,5,5,1,1,Practice,2,(4x4) - 15,1,,,,,,,,,,,,,,,,,,,,,,,,,,,,,,,,,,,,,,,,,,,,,,,,,,,,,,,,,,,,,,,,,,,,,,,,,,,
,,,,,,,,,,,,5eed4cf07aa39616c79b7346,23,Kobieta,2022-06-11_09h27.05.868,task,2021.1.4,Win32,59.89458553,6299f149e92ead563fba08ef,62a442a920a8f585f2a4bc3c,,,,,,,,,,,,,4,"[""4""]",1,[1.8398999999761259],"[4.003399999976182,3.426200000047686,1.8672999999523086,4.786600000023839,1.8696999999284571,1.7422999999523086,1.8398999999761259]",0,6,6,4,1,Practice,5,(2x6) - 8,4,,,,,,,,,,,,,,,,,,,,,,,,,,,,,,,,,,,,,,,,,,,,,,,,,,,,,,,,,,,,,,,,,,,,,,,,,,,
,,,,,,,,,,,,5eed4cf07aa39616c79b7346,23,Kobieta,2022-06-11_09h27.05.868,task,2021.1.4,Win32,59.89458553,6299f149e92ead563fba08ef,62a442a920a8f585f2a4bc3c,,,,,,,,,,,,,3,"[""3""]",1,[2.399600000023838],"[4.003399999976182,3.426200000047686,1.8672999999523086,4.786600000023839,1.8696999999284571,1.7422999999523086,1.8398999999761259,2.399600000023838]",0,7,7,3,1,Practice,4,(8/4) + 1,3,,,,,,,,,,,,,,,,,,,,,,,,,,,,,,,,,,,,,,,,,,,,,,,,,,,,,,,,,,,,,,,,,,,,,,,,,,,
,,,,,,,,,,,,5eed4cf07aa39616c79b7346,23,Kobieta,2022-06-11_09h27.05.868,task,2021.1.4,Win32,59.89458553,6299f149e92ead563fba08ef,62a442a920a8f585f2a4bc3c,,,,,,,,,,,,,6,"[""6""]",1,[2.2017000000477083],"[4.003399999976182,3.426200000047686,1.8672999999523086,4.786600000023839,1.8696999999284571,1.7422999999523086,1.8398999999761259,2.399600000023838,2.2017000000477083]",0,8,8,6,1,Practice,7,(25/5) + 1,6,,,,,,,,,,,,,,,,,,,,,,,,,,,,,,,,,,,,,,,,,,,,,,,,,,,,,,,,,,,,,,,,,,,,,,,,,,,
,,,,,,,,,,,,5eed4cf07aa39616c79b7346,23,Kobieta,2022-06-11_09h27.05.868,task,2021.1.4,Win32,59.89458553,6299f149e92ead563fba08ef,62a442a920a8f585f2a4bc3c,,,,,,,,,,,,,8,"[""8""]",1,[2.0538999999761813],"[4.003399999976182,3.426200000047686,1.8672999999523086,4.786600000023839,1.8696999999284571,1.7422999999523086,1.8398999999761259,2.399600000023838,2.2017000000477083,2.0538999999761813]",0,9,9,8,1,Practice,9,(3x3) - 1,8,,,,,,,,,,,,,,,,,,,,,,,,,,,,,,,,,,,,,,,,,,,,,,,,,,,,,,,,,,,,,,,,,,,,,,,,,,,
,,,,,,,,,,,,5eed4cf07aa39616c79b7346,23,Kobieta,2022-06-11_09h27.05.868,task,2021.1.4,Win32,59.89458553,6299f149e92ead563fba08ef,62a442a920a8f585f2a4bc3c,,,,,,,,,,,,,,,,,,,,,,,,,,,1,26.1906,1.74604,17.93198087,1.0933734,4.566943371,space,2.1425,0,0,0,0,1,,,,,,,,,,,,,,,,,,,,,,,,,,,,,,,,,,,,,,,,,,,,,,,,,,,,,,,,,,,,,,
,,,,,,,,,,,,5eed4cf07aa39616c79b7346,23,Kobieta,2022-06-11_09h27.05.868,task,2021.1.4,Win32,59.89458553,6299f149e92ead563fba08ef,62a442a920a8f585f2a4bc3c,,,,,,,,,,,,,,,,,,,,,,,Practice,10,(20/2) - 1,9,,,,,,,,,,,,,,space,32.7368,,0,0,0,0,0,9,1,,,,,,,,,,,,,,,,,,,,,,,,,,,,,,,,,,,,,,,,,,,,,,,,,,,,
,,,,,,,,,,,,5eed4cf07aa39616c79b7346,23,Kobieta,2022-06-11_09h27.05.868,task,2021.1.4,Win32,59.89458553,6299f149e92ead563fba08ef,62a442a920a8f585f2a4bc3c,,,,,,,,,,,,,1,,,,,,,,,,Practice,2,(4x4) - 15,1,,,,,,,,,,,,,,,,"[""1""]",1,1,0,1,1,1,1,[1.7866999999284872],,,,,,,,,,,,,,,,,,,,,,,,,,,,,,,,,,,,,,,,,,,,,,,,,,,
,,,,,,,,,,,X V Q F H G B L J M P D K C T S W R N Z,5eed4cf07aa39616c79b7346,23,Kobieta,2022-06-11_09h27.05.868,task,2021.1.4,Win32,59.89458553,6299f149e92ead563fba08ef,62a442a920a8f585f2a4bc3c,,,,,,,,,,,,,,,,,,,,,,,,,,,,,,,,,,,,,,,,,,,,,,,,,,,0,0,0,0,1,,,,,,,,,,,,,,,,,,,,,,,,,,,,,,,,,,,,,,,,,,,,,,
,,,,,,,,,,,,5eed4cf07aa39616c79b7346,23,Kobieta,2022-06-11_09h27.05.868,task,2021.1.4,Win32,59.89458553,6299f149e92ead563fba08ef,62a442a920a8f585f2a4bc3c,,,,,,,,,,,,,5,,,,,,,,,,Practice,6,(4/2) + 3,5,,,,,,,,,,,,,,,,"[""5""]",1,1,0,0,0,5,1,[3.136000000000024],,,,,,,,,,,,,,,,,,,,,,,,,,,,,,,,,,,,,,,,,,,,,,,,,,,
,,,,,,,,,,,X V Q F H G B L J M P D K C T S W R N Z,5eed4cf07aa39616c79b7346,23,Kobieta,2022-06-11_09h27.05.868,task,2021.1.4,Win32,59.89458553,6299f149e92ead563fba08ef,62a442a920a8f585f2a4bc3c,,,,,,,,,,,,,,,,,,,,,,,,,,,,,,,,,,,,,,,,,,,,,,,,,,,1,0,1,0,1,,,,,,,,,,,,,,,,,,,,,,,,,,,,,,,,,,,,,,,,,,,,,,
,,,,,,,,,,,,5eed4cf07aa39616c79b7346,23,Kobieta,2022-06-11_09h27.05.868,task,2021.1.4,Win32,59.89458553,6299f149e92ead563fba08ef,62a442a920a8f585f2a4bc3c,,,,,,,,,,,,,,,,,,,,,,,,,,,,,,,,,,,,,,,,,,,,,,,,,,,,,,,,zb,"[""z"",""b""]",0,"[2.2177999999523195,2.7040000000000077,3.2141999999284963]",1,0,0,0,0,1,,,,,,,,,,,,,,,,,,,,,,,,,,,,,,,,,,,,
,,,,,,,,,,,,5eed4cf07aa39616c79b7346,23,Kobieta,2022-06-11_09h27.05.868,task,2021.1.4,Win32,59.89458553,6299f149e92ead563fba08ef,62a442a920a8f585f2a4bc3c,,,,,,,,,,,,,8,,,,,,,,,,Practice,9,(3x3) - 1,8,,,,,,,,,,,,,,,,"[""8""]",1,1,0,0,0,8,1,[2.118399999976191],,,,,,,,,,,,,,,,,,,,,,,,,,,,,,,,,,,,,,,,,,,,,,,,,,,
,,,,,,,,,,,X V Q F H G B L J M P D K C T S W R N Z,5eed4cf07aa39616c79b7346,23,Kobieta,2022-06-11_09h27.05.868,task,2021.1.4,Win32,59.89458553,6299f149e92ead563fba08ef,62a442a920a8f585f2a4bc3c,,,,,,,,,,,,,,,,,,,,,,,,,,,,,,,,,,,,,,,,,,,,,,,,,,,0,0,0,0,1,,,,,,,,,,,,,,,,,,,,,,,,,,,,,,,,,,,,,,,,,,,,,,
,,,,,,,,,,,,5eed4cf07aa39616c79b7346,23,Kobieta,2022-06-11_09h27.05.868,task,2021.1.4,Win32,59.89458553,6299f149e92ead563fba08ef,62a442a920a8f585f2a4bc3c,,,,,,,,,,,,,0,,,,,,,,,,Practice,1,(3x3) -  9,0,,,,,,,,,,,,,,,,"[""0""]",1,1,0,0,0,0,1,[1.8004999999999995],,,,,,,,,,,,,,,,,,,,,,,,,,,,,,,,,,,,,,,,,,,,,,,,,,,
,,,,,,,,,,,X V Q F H G B L J M P D K C T S W R N Z,5eed4cf07aa39616c79b7346,23,Kobieta,2022-06-11_09h27.05.868,task,2021.1.4,Win32,59.89458553,6299f149e92ead563fba08ef,62a442a920a8f585f2a4bc3c,,,,,,,,,,,,,,,,,,,,,,,,,,,,,,,,,,,,,,,,,,,,,,,,,,,1,0,1,0,1,,,,,,,,,,,,,,,,,,,,,,,,,,,,,,,,,,,,,,,,,,,,,,
,,,,,,,,,,,,5eed4cf07aa39616c79b7346,23,Kobieta,2022-06-11_09h27.05.868,task,2021.1.4,Win32,59.89458553,6299f149e92ead563fba08ef,62a442a920a8f585f2a4bc3c,,,,,,,,,,,,,,,,,,,,,,,,,,,,,,,,,,,,,,,,,,,,,,,,,,,,,,,,gs,"[""g"",""s""]",0,"[2.249500000000012,2.767100000023845,3.2484999999999786]",1,1,0,1,0,1,,,,,,,,,,,,,,,,,,,,,,,,,,,,,,,,,,,,
,,,,,,,,,,,,5eed4cf07aa39616c79b7346,23,Kobieta,2022-06-11_09h27.05.868,task,2021.1.4,Win32,59.89458553,6299f149e92ead563fba08ef,62a442a920a8f585f2a4bc3c,,,,,,,,,,,,,7,,,,,,,,,,Practice,8,(5x5) - 18,7,,,,,,,,,,,,,,,,"[""7""]",1,1,0,0,0,7,1,[2.7028999999761254],,,,,,,,,,,,,,,,,,,,,,,,,,,,,,,,,,,,,,,,,,,,,,,,,,,
,,,,,,,,,,,X V Q F H G B L J M P D K C T S W R N Z,5eed4cf07aa39616c79b7346,23,Kobieta,2022-06-11_09h27.05.868,task,2021.1.4,Win32,59.89458553,6299f149e92ead563fba08ef,62a442a920a8f585f2a4bc3c,,,,,,,,,,,,,,,,,,,,,,,,,,,,,,,,,,,,,,,,,,,,,,,,,,,0,0,0,0,1,,,,,,,,,,,,,,,,,,,,,,,,,,,,,,,,,,,,,,,,,,,,,,
,,,,,,,,,,,,5eed4cf07aa39616c79b7346,23,Kobieta,2022-06-11_09h27.05.868,task,2021.1.4,Win32,59.89458553,6299f149e92ead563fba08ef,62a442a920a8f585f2a4bc3c,,,,,,,,,,,,,5,,,,,,,,,,Practice,6,(4/2) + 3,5,,,,,,,,,,,,,,,,"[""5""]",1,1,0,0,0,5,1,[3.6431000000238214],,,,,,,,,,,,,,,,,,,,,,,,,,,,,,,,,,,,,,,,,,,,,,,,,,,
,,,,,,,,,,,X V Q F H G B L J M P D K C T S W R N Z,5eed4cf07aa39616c79b7346,23,Kobieta,2022-06-11_09h27.05.868,task,2021.1.4,Win32,59.89458553,6299f149e92ead563fba08ef,62a442a920a8f585f2a4bc3c,,,,,,,,,,,,,,,,,,,,,,,,,,,,,,,,,,,,,,,,,,,,,,,,,,,1,0,1,0,1,,,,,,,,,,,,,,,,,,,,,,,,,,,,,,,,,,,,,,,,,,,,,,
,,,,,,,,,,,,5eed4cf07aa39616c79b7346,23,Kobieta,2022-06-11_09h27.05.868,task,2021.1.4,Win32,59.89458553,6299f149e92ead563fba08ef,62a442a920a8f585f2a4bc3c,,,,,,,,,,,,,,,,,,,,,,,,,,,,,,,,,,,,,,,,,,,,,,,,,,,,,,,,bj,"[""b"",""j""]",0,"[1.467700000047671,1.8687000000476814,2.3376000000238264]",1,2,0,2,0,1,,,,,,,,,,,,,,,,,,,,,,,,,,,,,,,,,,,,
,,,,,,,,,,,,5eed4cf07aa39616c79b7346,23,Kobieta,2022-06-11_09h27.05.868,task,2021.1.4,Win32,59.89458553,6299f149e92ead563fba08ef,62a442a920a8f585f2a4bc3c,,,,,,,,,,,,,0,,,,,,,,,,Task,17,(2x3) - 6,0,,,,,,,,,,,,,,,,,,1,,,,,,,,,,,,,,,,,,,,,,space,23.7466,"[""0""]",1,[2.079600000023845],0,0,0,16,1,,,,,,,,,,,,,,,,,,,,,,,,,,
,,,,,,,,,,,X V Q F H G B L J M P D K C T S W R N Z,5eed4cf07aa39616c79b7346,23,Kobieta,2022-06-11_09h27.05.868,task,2021.1.4,Win32,59.89458553,6299f149e92ead563fba08ef,62a442a920a8f585f2a4bc3c,,,,,,,,,,,,,,,,,,,,,,,,,,,,,,,,,,,,,,,,,,,,,,,,,,,,,,,,,,,,,,,,,,,,,,,,,,,,0,0,0,0,1,,,,,,,,,,,,,,,,,,,,,
,,,,,,,,,,,,5eed4cf07aa39616c79b7346,23,Kobieta,2022-06-11_09h27.05.868,task,2021.1.4,Win32,59.89458553,6299f149e92ead563fba08ef,62a442a920a8f585f2a4bc3c,,,,,,,,,,,,,8,,,,,,,,,,Task,23,(2x3) + 2,8,,,,,,,,,,,,,,,,,,1,,,,,,,,,,,,,,,,,,,,,,,,"[""8""]",1,[2.14709999990464],0,0,0,22,1,,,,,,,,,,,,,,,,,,,,,,,,,,
,,,,,,,,,,,X V Q F H G B L J M P D K C T S W R N Z,5eed4cf07aa39616c79b7346,23,Kobieta,2022-06-11_09h27.05.868,task,2021.1.4,Win32,59.89458553,6299f149e92ead563fba08ef,62a442a920a8f585f2a4bc3c,,,,,,,,,,,,,,,,,,,,,,,,,,,,,,,,,,,,,,,,,,,,,,,,,,,,,,,,,,,,,,,,,,,,,,,,,,,,1,0,1,0,1,,,,,,,,,,,,,,,,,,,,,
,,,,,,,,,,,,5eed4cf07aa39616c79b7346,23,Kobieta,2022-06-11_09h27.05.868,task,2021.1.4,Win32,59.89458553,6299f149e92ead563fba08ef,62a442a920a8f585f2a4bc3c,,,,,,,,,,,,,,,,,,,,,,,,,,,,,,,,,,,,,,,,,,,,,,,,,,,,,,,,,,,,,,,,,,,,,,,,,,,,,,,,,zq,"[""z"",""q""]",0,"[2.0219999999999914,2.4796000000238223,3.186999999999955]",1,ZQ,0,0,0,0,1,,,,,,,,,,
,,,,,,,,,,,,5eed4cf07aa39616c79b7346,23,Kobieta,2022-06-11_09h27.05.868,task,2021.1.4,Win32,59.89458553,6299f149e92ead563fba08ef,62a442a920a8f585f2a4bc3c,,,,,,,,,,,,,0,,,,,,,,,,Task,8,(1x5) - 5,0,,,,,,,,,,,,,,,,,,1,,,,,,,,,,,,,,,,,,,,,,,,"[""0""]",1,[1.9432999999523304],0,0,0,7,1,,,,,,,,,,,,,,,,,,,,,,,,,,
,,,,,,,,,,,X V Q F H G B L J M P D K C T S W R N Z,5eed4cf07aa39616c79b7346,23,Kobieta,2022-06-11_09h27.05.868,task,2021.1.4,Win32,59.89458553,6299f149e92ead563fba08ef,62a442a920a8f585f2a4bc3c,,,,,,,,,,,,,,,,,,,,,,,,,,,,,,,,,,,,,,,,,,,,,,,,,,,,,,,,,,,,,,,,,,,,,,,,,,,,0,0,0,0,1,,,,,,,,,,,,,,,,,,,,,
,,,,,,,,,,,,5eed4cf07aa39616c79b7346,23,Kobieta,2022-06-11_09h27.05.868,task,2021.1.4,Win32,59.89458553,6299f149e92ead563fba08ef,62a442a920a8f585f2a4bc3c,,,,,,,,,,,,,7,,,,,,,,,,Task,31,(4/2) + 5,7,,,,,,,,,,,,,,,,,,1,,,,,,,,,,,,,,,,,,,,,,,,"[""7""]",1,[4.4995999999046035],0,0,0,30,1,,,,,,,,,,,,,,,,,,,,,,,,,,
,,,,,,,,,,,X V Q F H G B L J M P D K C T S W R N Z,5eed4cf07aa39616c79b7346,23,Kobieta,2022-06-11_09h27.05.868,task,2021.1.4,Win32,59.89458553,6299f149e92ead563fba08ef,62a442a920a8f585f2a4bc3c,,,,,,,,,,,,,,,,,,,,,,,,,,,,,,,,,,,,,,,,,,,,,,,,,,,,,,,,,,,,,,,,,,,,,,,,,,,,1,0,1,0,1,,,,,,,,,,,,,,,,,,,,,
,,,,,,,,,,,,5eed4cf07aa39616c79b7346,23,Kobieta,2022-06-11_09h27.05.868,task,2021.1.4,Win32,59.89458553,6299f149e92ead563fba08ef,62a442a920a8f585f2a4bc3c,,,,,,,,,,,,,0,,,,,,,,,,Task,25,(10/5) - 2,0,,,,,,,,,,,,,,,,,,1,,,,,,,,,,,,,,,,,,,,,,,,"[""0""]",1,[3.8202000000476914],0,0,0,24,1,,,,,,,,,,,,,,,,,,,,,,,,,,
,,,,,,,,,,,X V Q F H G B L J M P D K C T S W R N Z,5eed4cf07aa39616c79b7346,23,Kobieta,2022-06-11_09h27.05.868,task,2021.1.4,Win32,59.89458553,6299f149e92ead563fba08ef,62a442a920a8f585f2a4bc3c,,,,,,,,,,,,,,,,,,,,,,,,,,,,,,,,,,,,,,,,,,,,,,,,,,,,,,,,,,,,,,,,,,,,,,,,,,,,2,0,2,0,1,,,,,,,,,,,,,,,,,,,,,
,,,,,,,,,,,,5eed4cf07aa39616c79b7346,23,Kobieta,2022-06-11_09h27.05.868,task,2021.1.4,Win32,59.89458553,6299f149e92ead563fba08ef,62a442a920a8f585f2a4bc3c,,,,,,,,,,,,,,,,,,,,,,,,,,,,,,,,,,,,,,,,,,,,,,,,,,,,,,,,,,,,,,,,,,,,,,,,,,,,,,,,,zzf,"[""z"",""z"",""f""]",0,"[1.83660000002385,2.0981000000238623,2.630300000071543,3.1289000000953706]",1,ZZF,1,0,1,0,1,,,,,,,,,,
,,,,,,,,,,,,5eed4cf07aa39616c79b7346,23,Kobieta,2022-06-11_09h27.05.868,task,2021.1.4,Win32,59.89458553,6299f149e92ead563fba08ef,62a442a920a8f585f2a4bc3c,,,,,,,,,,,,,2,,,,,,,,,,Task,26,(2x9) - 16,2,,,,,,,,,,,,,,,,,,1,,,,,,,,,,,,,,,,,,,,,,,,"[""2""]",1,[2.9817999999523295],0,0,0,25,1,,,,,,,,,,,,,,,,,,,,,,,,,,
,,,,,,,,,,,X V Q F H G B L J M P D K C T S W R N Z,5eed4cf07aa39616c79b7346,23,Kobieta,2022-06-11_09h27.05.868,task,2021.1.4,Win32,59.89458553,6299f149e92ead563fba08ef,62a442a920a8f585f2a4bc3c,,,,,,,,,,,,,,,,,,,,,,,,,,,,,,,,,,,,,,,,,,,,,,,,,,,,,,,,,,,,,,,,,,,,,,,,,,,,0,0,0,0,1,,,,,,,,,,,,,,,,,,,,,
,,,,,,,,,,,,5eed4cf07aa39616c79b7346,23,Kobieta,2022-06-11_09h27.05.868,task,2021.1.4,Win32,59.89458553,6299f149e92ead563fba08ef,62a442a920a8f585f2a4bc3c,,,,,,,,,,,,,6,,,,,,,,,,Task,30,(6/3) + 4 ,6,,,,,,,,,,,,,,,,,,1,,,,,,,,,,,,,,,,,,,,,,,,"[""6""]",1,[3.3257999999523236],0,0,0,29,1,,,,,,,,,,,,,,,,,,,,,,,,,,
,,,,,,,,,,,X V Q F H G B L J M P D K C T S W R N Z,5eed4cf07aa39616c79b7346,23,Kobieta,2022-06-11_09h27.05.868,task,2021.1.4,Win32,59.89458553,6299f149e92ead563fba08ef,62a442a920a8f585f2a4bc3c,,,,,,,,,,,,,,,,,,,,,,,,,,,,,,,,,,,,,,,,,,,,,,,,,,,,,,,,,,,,,,,,,,,,,,,,,,,,1,0,1,0,1,,,,,,,,,,,,,,,,,,,,,
,,,,,,,,,,,,5eed4cf07aa39616c79b7346,23,Kobieta,2022-06-11_09h27.05.868,task,2021.1.4,Win32,59.89458553,6299f149e92ead563fba08ef,62a442a920a8f585f2a4bc3c,,,,,,,,,,,,,0,,,,,,,,,,Task,17,(2x3) - 6,0,,,,,,,,,,,,,,,,,,1,,,,,,,,,,,,,,,,,,,,,,,,"[""0""]",1,[2.084199999928501],0,0,0,16,1,,,,,,,,,,,,,,,,,,,,,,,,,,
,,,,,,,,,,,X V Q F H G B L J M P D K C T S W R N Z,5eed4cf07aa39616c79b7346,23,Kobieta,2022-06-11_09h27.05.868,task,2021.1.4,Win32,59.89458553,6299f149e92ead563fba08ef,62a442a920a8f585f2a4bc3c,,,,,,,,,,,,,,,,,,,,,,,,,,,,,,,,,,,,,,,,,,,,,,,,,,,,,,,,,,,,,,,,,,,,,,,,,,,,2,0,2,0,1,,,,,,,,,,,,,,,,,,,,,
,,,,,,,,,,,,5eed4cf07aa39616c79b7346,23,Kobieta,2022-06-11_09h27.05.868,task,2021.1.4,Win32,59.89458553,6299f149e92ead563fba08ef,62a442a920a8f585f2a4bc3c,,,,,,,,,,,,,3,,,,,,,,,,Task,35,(1x2) + 1,3,,,,,,,,,,,,,,,,,,1,,,,,,,,,,,,,,,,,,,,,,,,"[""3""]",1,[2.6773000000715683],0,0,0,34,1,,,,,,,,,,,,,,,,,,,,,,,,,,
,,,,,,,,,,,X V Q F H G B L J M P D K C T S W R N Z,5eed4cf07aa39616c79b7346,23,Kobieta,2022-06-11_09h27.05.868,task,2021.1.4,Win32,59.89458553,6299f149e92ead563fba08ef,62a442a920a8f585f2a4bc3c,,,,,,,,,,,,,,,,,,,,,,,,,,,,,,,,,,,,,,,,,,,,,,,,,,,,,,,,,,,,,,,,,,,,,,,,,,,,3,0,3,0,1,,,,,,,,,,,,,,,,,,,,,
,,,,,,,,,,,,5eed4cf07aa39616c79b7346,23,Kobieta,2022-06-11_09h27.05.868,task,2021.1.4,Win32,59.89458553,6299f149e92ead563fba08ef,62a442a920a8f585f2a4bc3c,,,,,,,,,,,,,,,,,,,,,,,,,,,,,,,,,,,,,,,,,,,,,,,,,,,,,,,,,,,,,,,,,,,,,,,,,,,,,,,,,xbcj,"[""x"",""b"",""c"",""j""]",0,"[2.403800000071442,2.964300000071489,3.5638000000715238,4.151800000071489,4.785300000071516]",1,XBCJ,2,0,2,0,1,,,,,,,,,,
,,,,,,,,,,,,5eed4cf07aa39616c79b7346,23,Kobieta,2022-06-11_09h27.05.868,task,2021.1.4,Win32,59.89458553,6299f149e92ead563fba08ef,62a442a920a8f585f2a4bc3c,,,,,,,,,,,,,,,,,,,,,,,Task,7,(3x7) - 12,9,,,,,,,,,,,,,,,,,,0,,,,,,,,,,,,,,,,,,,,,,,,,0,,0,0,0,6,1,,,,,,,,,,,,,,,,,,,,,,,,,,
,,,,,,,,,,,,5eed4cf07aa39616c79b7346,23,Kobieta,2022-06-11_09h27.05.868,task,2021.1.4,Win32,59.89458553,6299f149e92ead563fba08ef,62a442a920a8f585f2a4bc3c,,,,,,,,,,,,,,,,,,,,,,,Task,36,(8/4) + 3,5,,,,,,,,,,,,,,,,,,0,,,,,,,,,,,,,,,,,,,,,,,,,0,,0,1,1,35,1,,,,,,,,,,,,,,,,,,,,,,,,,,
,,,,,,,,,,,,5eed4cf07aa39616c79b7346,23,Kobieta,2022-06-11_09h27.05.868,task,2021.1.4,Win32,59.89458553,6299f149e92ead563fba08ef,62a442a920a8f585f2a4bc3c,,,,,,,,,,,,,4,,,,,,,,,,Task,4,(1x5) - 1,4,,,,,,,,,,,,,,,,,,1,,,,,,,,,,,,,,,,,,,,,,,,"[""4""]",1,[3.8583000000714947],0,2,2,3,1,,,,,,,,,,,,,,,,,,,,,,,,,,
,,,,,,,,,,,X V Q F H G B L J M P D K C T S W R N Z,5eed4cf07aa39616c79b7346,23,Kobieta,2022-06-11_09h27.05.868,task,2021.1.4,Win32,59.89458553,6299f149e92ead563fba08ef,62a442a920a8f585f2a4bc3c,,,,,,,,,,,,,,,,,,,,,,,,,,,,,,,,,,,,,,,,,,,,,,,,,,,,,,,,,,,,,,,,,,,,,,,,,,,,0,0,0,0,1,,,,,,,,,,,,,,,,,,,,,
,,,,,,,,,,,,5eed4cf07aa39616c79b7346,23,Kobieta,2022-06-11_09h27.05.868,task,2021.1.4,Win32,59.89458553,6299f149e92ead563fba08ef,62a442a920a8f585f2a4bc3c,,,,,,,,,,,,,9,,,,,,,,,,Task,24,(2x2) + 5,9,,,,,,,,,,,,,,,,,,1,,,,,,,,,,,,,,,,,,,,,,,,"[""9""]",1,[1.9171000000238791],0,0,0,23,1,,,,,,,,,,,,,,,,,,,,,,,,,,
,,,,,,,,,,,X V Q F H G B L J M P D K C T S W R N Z,5eed4cf07aa39616c79b7346,23,Kobieta,2022-06-11_09h27.05.868,task,2021.1.4,Win32,59.89458553,6299f149e92ead563fba08ef,62a442a920a8f585f2a4bc3c,,,,,,,,,,,,,,,,,,,,,,,,,,,,,,,,,,,,,,,,,,,,,,,,,,,,,,,,,,,,,,,,,,,,,,,,,,,,1,0,1,0,1,,,,,,,,,,,,,,,,,,,,,
,,,,,,,,,,,,5eed4cf07aa39616c79b7346,23,Kobieta,2022-06-11_09h27.05.868,task,2021.1.4,Win32,59.89458553,6299f149e92ead563fba08ef,62a442a920a8f585f2a4bc3c,,,,,,,,,,,,,,,,,,,,,,,Task,38,(4x6) - 17,7,,,,,,,,,,,,,,,,,,0,,,,,,,,,,,,,,,,,,,,,,,,,0,,0,0,0,37,1,,,,,,,,,,,,,,,,,,,,,,,,,,
,,,,,,,,,,,,5eed4cf07aa39616c79b7346,23,Kobieta,2022-06-11_09h27.05.868,task,2021.1.4,Win32,59.89458553,6299f149e92ead563fba08ef,62a442a920a8f585f2a4bc3c,,,,,,,,,,,,,0,,,,,,,,,,Task,17,(2x3) - 6,0,,,,,,,,,,,,,,,,,,1,,,,,,,,,,,,,,,,,,,,,,,,"[""0""]",1,[3.143799999952421],0,1,1,16,1,,,,,,,,,,,,,,,,,,,,,,,,,,
,,,,,,,,,,,X V Q F H G B L J M P D K C T S W R N Z,5eed4cf07aa39616c79b7346,23,Kobieta,2022-06-11_09h27.05.868,task,2021.1.4,Win32,59.89458553,6299f149e92ead563fba08ef,62a442a920a8f585f2a4bc3c,,,,,,,,,,,,,,,,,,,,,,,,,,,,,,,,,,,,,,,,,,,,,,,,,,,,,,,,,,,,,,,,,,,,,,,,,,,,2,0,2,0,1,,,,,,,,,,,,,,,,,,,,,
,,,,,,,,,,,,5eed4cf07aa39616c79b7346,23,Kobieta,2022-06-11_09h27.05.868,task,2021.1.4,Win32,59.89458553,6299f149e92ead563fba08ef,62a442a920a8f585f2a4bc3c,,,,,,,,,,,,,0,,,,,,,,,,Task,8,(1x5) - 5,0,,,,,,,,,,,,,,,,,,1,,,,,,,,,,,,,,,,,,,,,,,,"[""0""]",1,[2.350100000023872],0,0,0,7,1,,,,,,,,,,,,,,,,,,,,,,,,,,
,,,,,,,,,,,X V Q F H G B L J M P D K C T S W R N Z,5eed4cf07aa39616c79b7346,23,Kobieta,2022-06-11_09h27.05.868,task,2021.1.4,Win32,59.89458553,6299f149e92ead563fba08ef,62a442a920a8f585f2a4bc3c,,,,,,,,,,,,,,,,,,,,,,,,,,,,,,,,,,,,,,,,,,,,,,,,,,,,,,,,,,,,,,,,,,,,,,,,,,,,3,0,3,0,1,,,,,,,,,,,,,,,,,,,,,
,,,,,,,,,,,,5eed4cf07aa39616c79b7346,23,Kobieta,2022-06-11_09h27.05.868,task,2021.1.4,Win32,59.89458553,6299f149e92ead563fba08ef,62a442a920a8f585f2a4bc3c,,,,,,,,,,,,,4,,,,,,,,,,Task,28,(2x5) - 6,4,,,,,,,,,,,,,,,,,,1,,,,,,,,,,,,,,,,,,,,,,,,"[""4""]",1,[2.479399999976181],0,0,0,27,1,,,,,,,,,,,,,,,,,,,,,,,,,,
,,,,,,,,,,,X V Q F H G B L J M P D K C T S W R N Z,5eed4cf07aa39616c79b7346,23,Kobieta,2022-06-11_09h27.05.868,task,2021.1.4,Win32,59.89458553,6299f149e92ead563fba08ef,62a442a920a8f585f2a4bc3c,,,,,,,,,,,,,,,,,,,,,,,,,,,,,,,,,,,,,,,,,,,,,,,,,,,,,,,,,,,,,,,,,,,,,,,,,,,,4,0,4,0,1,,,,,,,,,,,,,,,,,,,,,
,,,,,,,,,,,,5eed4cf07aa39616c79b7346,23,Kobieta,2022-06-11_09h27.05.868,task,2021.1.4,Win32,59.89458553,6299f149e92ead563fba08ef,62a442a920a8f585f2a4bc3c,,,,,,,,,,,,,,,,,,,,,,,,,,,,,,,,,,,,,,,,,,,,,,,,,,,,,,,,,,,,,,,,,,,,,,,,,,,,,,,,,tcvmk,"[""t"",""c"",""v"",""m"",""k""]",0,"[2.1375000000000455,3.3726000000239083,4.113299999952346,4.967100000023834,8.132299999952352,8.54950000000008]",1,TCVMK,3,0,3,0,1,,,,,,,,,,
,,,,,,,,,,,,5eed4cf07aa39616c79b7346,23,Kobieta,2022-06-11_09h27.05.868,task,2021.1.4,Win32,59.89458553,6299f149e92ead563fba08ef,62a442a920a8f585f2a4bc3c,,,,,,,,,,,,,2,,,,,,,,,,Task,2,(2x2) - 2,2,,,,,,,,,,,,,,,,,,1,,,,,,,,,,,,,,,,,,,,,,,,"[""2""]",1,[1.9277000000475937],0,0,0,1,1,,,,,,,,,,,,,,,,,,,,,,,,,,
,,,,,,,,,,,X V Q F H G B L J M P D K C T S W R N Z,5eed4cf07aa39616c79b7346,23,Kobieta,2022-06-11_09h27.05.868,task,2021.1.4,Win32,59.89458553,6299f149e92ead563fba08ef,62a442a920a8f585f2a4bc3c,,,,,,,,,,,,,,,,,,,,,,,,,,,,,,,,,,,,,,,,,,,,,,,,,,,,,,,,,,,,,,,,,,,,,,,,,,,,0,0,0,0,1,,,,,,,,,,,,,,,,,,,,,
,,,,,,,,,,,,5eed4cf07aa39616c79b7346,23,Kobieta,2022-06-11_09h27.05.868,task,2021.1.4,Win32,59.89458553,6299f149e92ead563fba08ef,62a442a920a8f585f2a4bc3c,,,,,,,,,,,,,0,,,,,,,,,,Task,17,(2x3) - 6,0,,,,,,,,,,,,,,,,,,1,,,,,,,,,,,,,,,,,,,,,,,,"[""0""]",1,[1.3626000000238037],0,0,0,16,1,,,,,,,,,,,,,,,,,,,,,,,,,,
,,,,,,,,,,,X V Q F H G B L J M P D K C T S W R N Z,5eed4cf07aa39616c79b7346,23,Kobieta,2022-06-11_09h27.05.868,task,2021.1.4,Win32,59.89458553,6299f149e92ead563fba08ef,62a442a920a8f585f2a4bc3c,,,,,,,,,,,,,,,,,,,,,,,,,,,,,,,,,,,,,,,,,,,,,,,,,,,,,,,,,,,,,,,,,,,,,,,,,,,,1,0,1,0,1,,,,,,,,,,,,,,,,,,,,,
,,,,,,,,,,,,5eed4cf07aa39616c79b7346,23,Kobieta,2022-06-11_09h27.05.868,task,2021.1.4,Win32,59.89458553,6299f149e92ead563fba08ef,62a442a920a8f585f2a4bc3c,,,,,,,,,,,,,5,,,,,,,,,,Task,12,(4x4) - 11,5,,,,,,,,,,,,,,,,,,1,,,,,,,,,,,,,,,,,,,,,,,,"[""5""]",1,[2.4781999999283926],0,0,0,11,1,,,,,,,,,,,,,,,,,,,,,,,,,,
,,,,,,,,,,,X V Q F H G B L J M P D K C T S W R N Z,5eed4cf07aa39616c79b7346,23,Kobieta,2022-06-11_09h27.05.868,task,2021.1.4,Win32,59.89458553,6299f149e92ead563fba08ef,62a442a920a8f585f2a4bc3c,,,,,,,,,,,,,,,,,,,,,,,,,,,,,,,,,,,,,,,,,,,,,,,,,,,,,,,,,,,,,,,,,,,,,,,,,,,,2,0,2,0,1,,,,,,,,,,,,,,,,,,,,,
,,,,,,,,,,,,5eed4cf07aa39616c79b7346,23,Kobieta,2022-06-11_09h27.05.868,task,2021.1.4,Win32,59.89458553,6299f149e92ead563fba08ef,62a442a920a8f585f2a4bc3c,,,,,,,,,,,,,5,,,,,,,,,,Task,36,(8/4) + 3,5,,,,,,,,,,,,,,,,,,1,,,,,,,,,,,,,,,,,,,,,,,,"[""5""]",1,[3.01990000009539],0,0,0,35,1,,,,,,,,,,,,,,,,,,,,,,,,,,
,,,,,,,,,,,X V Q F H G B L J M P D K C T S W R N Z,5eed4cf07aa39616c79b7346,23,Kobieta,2022-06-11_09h27.05.868,task,2021.1.4,Win32,59.89458553,6299f149e92ead563fba08ef,62a442a920a8f585f2a4bc3c,,,,,,,,,,,,,,,,,,,,,,,,,,,,,,,,,,,,,,,,,,,,,,,,,,,,,,,,,,,,,,,,,,,,,,,,,,,,3,0,3,0,1,,,,,,,,,,,,,,,,,,,,,
,,,,,,,,,,,,5eed4cf07aa39616c79b7346,23,Kobieta,2022-06-11_09h27.05.868,task,2021.1.4,Win32,59.89458553,6299f149e92ead563fba08ef,62a442a920a8f585f2a4bc3c,,,,,,,,,,,,,2,,,,,,,,,,Task,26,(2x9) - 16,2,,,,,,,,,,,,,,,,,,1,,,,,,,,,,,,,,,,,,,,,,,,"[""2""]",1,[2.9366999999284644],0,0,0,25,1,,,,,,,,,,,,,,,,,,,,,,,,,,
,,,,,,,,,,,X V Q F H G B L J M P D K C T S W R N Z,5eed4cf07aa39616c79b7346,23,Kobieta,2022-06-11_09h27.05.868,task,2021.1.4,Win32,59.89458553,6299f149e92ead563fba08ef,62a442a920a8f585f2a4bc3c,,,,,,,,,,,,,,,,,,,,,,,,,,,,,,,,,,,,,,,,,,,,,,,,,,,,,,,,,,,,,,,,,,,,,,,,,,,,4,0,4,0,1,,,,,,,,,,,,,,,,,,,,,
,,,,,,,,,,,,5eed4cf07aa39616c79b7346,23,Kobieta,2022-06-11_09h27.05.868,task,2021.1.4,Win32,59.89458553,6299f149e92ead563fba08ef,62a442a920a8f585f2a4bc3c,,,,,,,,,,,,,5,,,,,,,,,,Task,36,(8/4) + 3,5,,,,,,,,,,,,,,,,,,1,,,,,,,,,,,,,,,,,,,,,,,,"[""5""]",1,[2.4853999999761527],0,0,0,35,1,,,,,,,,,,,,,,,,,,,,,,,,,,
,,,,,,,,,,,X V Q F H G B L J M P D K C T S W R N Z,5eed4cf07aa39616c79b7346,23,Kobieta,2022-06-11_09h27.05.868,task,2021.1.4,Win32,59.89458553,6299f149e92ead563fba08ef,62a442a920a8f585f2a4bc3c,,,,,,,,,,,,,,,,,,,,,,,,,,,,,,,,,,,,,,,,,,,,,,,,,,,,,,,,,,,,,,,,,,,,,,,,,,,,5,0,5,0,1,,,,,,,,,,,,,,,,,,,,,
,,,,,,,,,,,,5eed4cf07aa39616c79b7346,23,Kobieta,2022-06-11_09h27.05.868,task,2021.1.4,Win32,59.89458553,6299f149e92ead563fba08ef,62a442a920a8f585f2a4bc3c,,,,,,,,,,,,,,,,,,,,,,,,,,,,,,,,,,,,,,,,,,,,,,,,,,,,,,,,,,,,,,,,,,,,,,,,,,,,,,,,,xkxrvg,"[""x"",""k"",""x"",""r"",""v"",""g""]",0,"[2.4540000000000646,2.948100000023828,7.245200000047703,9.148500000000013,9.75240000009535,10.393000000000029,11.263300000071581]",0,XQXRVG,4,0,4,0,1,,,,,,,,,,
,,,,,,,,,,,,5eed4cf07aa39616c79b7346,23,Kobieta,2022-06-11_09h27.05.868,task,2021.1.4,Win32,59.89458553,6299f149e92ead563fba08ef,62a442a920a8f585f2a4bc3c,,,,,,,,,,,,,1,,,,,,,,,,Task,18,(16/4) - 3,1,,,,,,,,,,,,,,,,,,1,,,,,,,,,,,,,,,,,,,,,,,,"[""1""]",1,[3.468099999904666],0,0,0,17,1,,,,,,,,,,,,,,,,,,,,,,,,,,
,,,,,,,,,,,X V Q F H G B L J M P D K C T S W R N Z,5eed4cf07aa39616c79b7346,23,Kobieta,2022-06-11_09h27.05.868,task,2021.1.4,Win32,59.89458553,6299f149e92ead563fba08ef,62a442a920a8f585f2a4bc3c,,,,,,,,,,,,,,,,,,,,,,,,,,,,,,,,,,,,,,,,,,,,,,,,,,,,,,,,,,,,,,,,,,,,,,,,,,,,0,0,0,0,1,,,,,,,,,,,,,,,,,,,,,
,,,,,,,,,,,,5eed4cf07aa39616c79b7346,23,Kobieta,2022-06-11_09h27.05.868,task,2021.1.4,Win32,59.89458553,6299f149e92ead563fba08ef,62a442a920a8f585f2a4bc3c,,,,,,,,,,,,,3,,,,,,,,,,Task,19,(6/2) - 1,2,,,,,,,,,,,,,,,,,,0,,,,,,,,,,,,,,,,,,,,,,,,"[""3""]",0,[3.1698999999762236],0,0,0,18,1,,,,,,,,,,,,,,,,,,,,,,,,,,
,,,,,,,,,,,,5eed4cf07aa39616c79b7346,23,Kobieta,2022-06-11_09h27.05.868,task,2021.1.4,Win32,59.89458553,6299f149e92ead563fba08ef,62a442a920a8f585f2a4bc3c,,,,,,,,,,,,,2,,,,,,,,,,Task,2,(2x2) - 2,2,,,,,,,,,,,,,,,,,,1,,,,,,,,,,,,,,,,,,,,,,,,"[""2""]",1,[3.2607000000476773],0,1,1,1,1,,,,,,,,,,,,,,,,,,,,,,,,,,
,,,,,,,,,,,X V Q F H G B L J M P D K C T S W R N Z,5eed4cf07aa39616c79b7346,23,Kobieta,2022-06-11_09h27.05.868,task,2021.1.4,Win32,59.89458553,6299f149e92ead563fba08ef,62a442a920a8f585f2a4bc3c,,,,,,,,,,,,,,,,,,,,,,,,,,,,,,,,,,,,,,,,,,,,,,,,,,,,,,,,,,,,,,,,,,,,,,,,,,,,1,0,1,0,1,,,,,,,,,,,,,,,,,,,,,
,,,,,,,,,,,,5eed4cf07aa39616c79b7346,23,Kobieta,2022-06-11_09h27.05.868,task,2021.1.4,Win32,59.89458553,6299f149e92ead563fba08ef,62a442a920a8f585f2a4bc3c,,,,,,,,,,,,,0,,,,,,,,,,Task,33,(1/1) - 1,0,,,,,,,,,,,,,,,,,,1,,,,,,,,,,,,,,,,,,,,,,,,"[""0""]",1,[2.01400000000001],0,0,0,32,1,,,,,,,,,,,,,,,,,,,,,,,,,,
,,,,,,,,,,,X V Q F H G B L J M P D K C T S W R N Z,5eed4cf07aa39616c79b7346,23,Kobieta,2022-06-11_09h27.05.868,task,2021.1.4,Win32,59.89458553,6299f149e92ead563fba08ef,62a442a920a8f585f2a4bc3c,,,,,,,,,,,,,,,,,,,,,,,,,,,,,,,,,,,,,,,,,,,,,,,,,,,,,,,,,,,,,,,,,,,,,,,,,,,,2,0,2,0,1,,,,,,,,,,,,,,,,,,,,,
,,,,,,,,,,,,5eed4cf07aa39616c79b7346,23,Kobieta,2022-06-11_09h27.05.868,task,2021.1.4,Win32,59.89458553,6299f149e92ead563fba08ef,62a442a920a8f585f2a4bc3c,,,,,,,,,,,,,4,,,,,,,,,,Task,28,(2x5) - 6,4,,,,,,,,,,,,,,,,,,1,,,,,,,,,,,,,,,,,,,,,,,,"[""4""]",1,[2.6135000000000446],0,0,0,27,1,,,,,,,,,,,,,,,,,,,,,,,,,,
,,,,,,,,,,,X V Q F H G B L J M P D K C T S W R N Z,5eed4cf07aa39616c79b7346,23,Kobieta,2022-06-11_09h27.05.868,task,2021.1.4,Win32,59.89458553,6299f149e92ead563fba08ef,62a442a920a8f585f2a4bc3c,,,,,,,,,,,,,,,,,,,,,,,,,,,,,,,,,,,,,,,,,,,,,,,,,,,,,,,,,,,,,,,,,,,,,,,,,,,,3,0,3,0,1,,,,,,,,,,,,,,,,,,,,,
,,,,,,,,,,,,5eed4cf07aa39616c79b7346,23,Kobieta,2022-06-11_09h27.05.868,task,2021.1.4,Win32,59.89458553,6299f149e92ead563fba08ef,62a442a920a8f585f2a4bc3c,,,,,,,,,,,,,0,,,,,,,,,,Task,8,(1x5) - 5,0,,,,,,,,,,,,,,,,,,1,,,,,,,,,,,,,,,,,,,,,,,,"[""0""]",1,[1.370300000071552],0,0,0,7,1,,,,,,,,,,,,,,,,,,,,,,,,,,
,,,,,,,,,,,X V Q F H G B L J M P D K C T S W R N Z,5eed4cf07aa39616c79b7346,23,Kobieta,2022-06-11_09h27.05.868,task,2021.1.4,Win32,59.89458553,6299f149e92ead563fba08ef,62a442a920a8f585f2a4bc3c,,,,,,,,,,,,,,,,,,,,,,,,,,,,,,,,,,,,,,,,,,,,,,,,,,,,,,,,,,,,,,,,,,,,,,,,,,,,4,0,4,0,1,,,,,,,,,,,,,,,,,,,,,
,,,,,,,,,,,,5eed4cf07aa39616c79b7346,23,Kobieta,2022-06-11_09h27.05.868,task,2021.1.4,Win32,59.89458553,6299f149e92ead563fba08ef,62a442a920a8f585f2a4bc3c,,,,,,,,,,,,,0,,,,,,,,,,Task,17,(2x3) - 6,0,,,,,,,,,,,,,,,,,,1,,,,,,,,,,,,,,,,,,,,,,,,"[""0""]",1,[1.9548999999761918],0,0,0,16,1,,,,,,,,,,,,,,,,,,,,,,,,,,
,,,,,,,,,,,X V Q F H G B L J M P D K C T S W R N Z,5eed4cf07aa39616c79b7346,23,Kobieta,2022-06-11_09h27.05.868,task,2021.1.4,Win32,59.89458553,6299f149e92ead563fba08ef,62a442a920a8f585f2a4bc3c,,,,,,,,,,,,,,,,,,,,,,,,,,,,,,,,,,,,,,,,,,,,,,,,,,,,,,,,,,,,,,,,,,,,,,,,,,,,5,0,5,0,1,,,,,,,,,,,,,,,,,,,,,
,,,,,,,,,,,,5eed4cf07aa39616c79b7346,23,Kobieta,2022-06-11_09h27.05.868,task,2021.1.4,Win32,59.89458553,6299f149e92ead563fba08ef,62a442a920a8f585f2a4bc3c,,,,,,,,,,,,,,,,,,,,,,,,,,,,,,,,,,,,,,,,,,,,,,,,,,,,,,,,,,,,,,,,,,,,,,,,,,,,,,,,,kclbj,"[""k"",""c"",""l"",""b"",""j""]",0,"[2.682200000047601,3.4452999999522262,4.051299999952221,4.828700000047661,5.831799999952295,6.88179999995225]",0,QCLBJN,5,0,5,0,1,,,,,,,,,,
,,,,,,,,,,,,5eed4cf07aa39616c79b7346,23,Kobieta,2022-06-11_09h27.05.868,task,2021.1.4,Win32,59.89458553,6299f149e92ead563fba08ef,62a442a920a8f585f2a4bc3c,,,,,,,,,,,,,,,,,,,,,,,,,,,,,,,,,,,,,,,,,,,,,,,,,,,,,,,,,,,,,,,,,,,,,,,,,,,,,,,,,,,,,,,,,,,,"[""comma""]",0,[0.92450000000008],0,0,0,0,1,,
,,,,,,,,,,,,5eed4cf07aa39616c79b7346,23,Kobieta,2022-06-11_09h27.05.868,task,2021.1.4,Win32,59.89458553,6299f149e92ead563fba08ef,62a442a920a8f585f2a4bc3c,,,,,,,,,,,,,,,,,,,,,,,,,,,,,,,,,,,,,,,,,,,,,,,,,,,,,,,,,,,,,,,,,,,,,,,,,,,,,,,,,,,,,,,,,,,,"[""comma""]",0,[1.2164999999999964],1,0,1,0,1,,
,,,,,,,,,,,,5eed4cf07aa39616c79b7346,23,Kobieta,2022-06-11_09h27.05.868,task,2021.1.4,Win32,59.89458553,6299f149e92ead563fba08ef,62a442a920a8f585f2a4bc3c,,,,,,,,,,,,,,,,,,,,,,,,,,,,,,,,,,,,,,,,,,,,,,,,,,,,,,,,,,,,,,,,,,,,,,,,,,,,,,,,,,,,,,,,,,,,"[""comma""]",0,[0.42189999997606265],2,0,2,0,1,,
,,,,,,,,,,,,5eed4cf07aa39616c79b7346,23,Kobieta,2022-06-11_09h27.05.868,task,2021.1.4,Win32,59.89458553,6299f149e92ead563fba08ef,62a442a920a8f585f2a4bc3c,,,,,,,,,,,,,,,,,,,,,,,,,,,,,,,,,,,,,,,,,,,,,,,,,,,,,,,,,,,,,,,,,,,,,,,,,,,,,,,,,,,,,,,,,,,,"[""period""]",0,[0.24940000009542018],3,0,3,0,1,,
,,,,,,,,,,,,5eed4cf07aa39616c79b7346,23,Kobieta,2022-06-11_09h27.05.868,task,2021.1.4,Win32,59.89458553,6299f149e92ead563fba08ef,62a442a920a8f585f2a4bc3c,,,,,,,,,,,,,,,,,,,,,,,,,,,,,,,,,,,,,,,,,,,,,,,,,,,,,,,,,,,,,,,,,,,,,,,,,,,,,,,,,,,,,,,,,,,,"[""comma""]",0,[0.22270000004766644],4,0,4,0,1,,
,,,,,,,,,,,,5eed4cf07aa39616c79b7346,23,Kobieta,2022-06-11_09h27.05.868,task,2021.1.4,Win32,59.89458553,6299f149e92ead563fba08ef,62a442a920a8f585f2a4bc3c,,,,,,,,,,,,,,,,,,,,,,,,,,,,,,,,,,,,,,,,,,,,,,,,,,,,,,,,,,,,,,,,,,,,,,,,,,,,,,,,,,,,,,,,,,,,"[""comma""]",0,[0.22310000002380548],5,0,5,0,1,,
,,,,,,,,,,,,5eed4cf07aa39616c79b7346,23,Kobieta,2022-06-11_09h27.05.868,task,2021.1.4,Win32,59.89458553,6299f149e92ead563fba08ef,62a442a920a8f585f2a4bc3c,,,,,,,,,,,,,,,,,,,,,,,,,,,,,,,,,,,,,,,,,,,,,,,,,,,,,,,,,,,,,,,,,,,,,,,,,,,,,,,,,,,,,,,,,,,,"[""period""]",0,[0.23680000007152557],6,0,6,0,1,,
,,,,,,,,,,,,5eed4cf07aa39616c79b7346,23,Kobieta,2022-06-11_09h27.05.868,task,2021.1.4,Win32,59.89458553,6299f149e92ead563fba08ef,62a442a920a8f585f2a4bc3c,,,,,,,,,,,,,,,,,,,,,,,,,,,,,,,,,,,,,,,,,,,,,,,,,,,,,,,,,,,,,,,,,,,,,,,,,,,,,,,,,,,,,,,,,,,,"[""period""]",0,[0.20789999997623454],7,0,7,0,1,,
,,,,,,,,,,,,5eed4cf07aa39616c79b7346,23,Kobieta,2022-06-11_09h27.05.868,task,2021.1.4,Win32,59.89458553,6299f149e92ead563fba08ef,62a442a920a8f585f2a4bc3c,,,,,,,,,,,,,,,,,,,,,,,,,,,,,,,,,,,,,,,,,,,,,,,,,,,,,,,,,,,,,,,,,,,,,,,,,,,,,,,,,,,,,,,,,,,,"[""period""]",0,[0.21529999995232174],8,0,8,0,1,,
,,,,,,,,,,,,5eed4cf07aa39616c79b7346,23,Kobieta,2022-06-11_09h27.05.868,task,2021.1.4,Win32,59.89458553,6299f149e92ead563fba08ef,62a442a920a8f585f2a4bc3c,,,,,,,,,,,,,,,,,,,,,,,,,,,,,,,,,,,,,,,,,,,,,,,,,,,,,,,,,,,,,,,,,,,,,,,,,,,,,,,,,,,,,,,,,,,,"[""period""]",0,[0.19589999997617724],9,0,9,0,1,,
,,,,,,,,,,,,5eed4cf07aa39616c79b7346,23,Kobieta,2022-06-11_09h27.05.868,task,2021.1.4,Win32,59.89458553,6299f149e92ead563fba08ef,62a442a920a8f585f2a4bc3c,,,,,,,,,,,,,,,,,,,,,,,,,,,,,,,,,,,,,,,,,,,,,,,,,,,,,,,,,,,,,,,,,,,,,,,,,,,,,,,,,,,,,,,,,,,,"[""comma""]",0,[0.2511000000239392],10,0,10,0,1,,
,,,,,,,,,,,,5eed4cf07aa39616c79b7346,23,Kobieta,2022-06-11_09h27.05.868,task,2021.1.4,Win32,59.89458553,6299f149e92ead563fba08ef,62a442a920a8f585f2a4bc3c,,,,,,,,,,,,,,,,,,,,,,,,,,,,,,,,,,,,,,,,,,,,,,,,,,,,,,,,,,,,,,,,,,,,,,,,,,,,,,,,,,,,,,,,,,,,"[""comma""]",0,[0.5641000000238137],11,0,11,0,1,,
,,,,,,,,,,,,5eed4cf07aa39616c79b7346,23,Kobieta,2022-06-11_09h27.05.868,task,2021.1.4,Win32,59.89458553,6299f149e92ead563fba08ef,62a442a920a8f585f2a4bc3c,,,,,,,,,,,,,,,,,,,,,,,,,,,,,,,,,,,,,,,,,,,,,,,,,,,,,,,,,,,,,,,,,,,,,,,,,,,,,,,,,,,,,,,,,,,,"[""period""]",0,[0.23649999999997817],12,0,12,0,1,,
,,,,,,,,,,,,5eed4cf07aa39616c79b7346,23,Kobieta,2022-06-11_09h27.05.868,task,2021.1.4,Win32,59.89458553,6299f149e92ead563fba08ef,62a442a920a8f585f2a4bc3c,,,,,,,,,,,,,,,,,,,,,,,,,,,,,,,,,,,,,,,,,,,,,,,,,,,,,,,,,,,,,,,,,,,,,,,,,,,,,,,,,,,,,,,,,,,,"[""comma"",""period""]",0,"[0.2039999999999509,1.9642999999523454]",13,0,13,0,1,,
,,,,,,,,,,,,5eed4cf07aa39616c79b7346,23,Kobieta,2022-06-11_09h27.05.868,task,2021.1.4,Win32,59.89458553,6299f149e92ead563fba08ef,62a442a920a8f585f2a4bc3c,,,,,,,,,,,,,,,,,,,,,,,,,,,,,,,,,,,,,,,,,,,,,,,,,,,,,,,,,,,,,,,,,,,,,,,,,,,,,,,,,,,,,,,,,,,,,0,,14,0,14,0,1,,
,,,,,,,,,,,,5eed4cf07aa39616c79b7346,23,Kobieta,2022-06-11_09h27.05.868,task,2021.1.4,Win32,59.89458553,6299f149e92ead563fba08ef,62a442a920a8f585f2a4bc3c,,,,,,,,,,,,,,,,,,,,,,,,,,,,,,,,,,,,,,,,,,,,,,,,,,,,,,,,,,,,,,,,,,,,,,,,,,,,,,,,,,,,,,,,,,,,"[""comma""]",0,[0.18169999992846897],15,0,15,0,1,,
,,,,,,,,,,,,5eed4cf07aa39616c79b7346,23,Kobieta,2022-06-11_09h27.05.868,task,2021.1.4,Win32,59.89458553,6299f149e92ead563fba08ef,62a442a920a8f585f2a4bc3c,,,,,,,,,,,,,,,,,,,,,,,,,,,,,,,,,,,,,,,,,,,,,,,,,,,,,,,,,,,,,,,,,,,,,,,,,,,,,,,,,,,,,,,,,,,,"[""period""]",0,[0.22010000002387642],16,0,16,0,1,,
,,,,,,,,,,,,5eed4cf07aa39616c79b7346,23,Kobieta,2022-06-11_09h27.05.868,task,2021.1.4,Win32,59.89458553,6299f149e92ead563fba08ef,62a442a920a8f585f2a4bc3c,,,,,,,,,,,,,,,,,,,,,,,,,,,,,,,,,,,,,,,,,,,,,,,,,,,,,,,,,,,,,,,,,,,,,,,,,,,,,,,,,,,,,,,,,,,,"[""period""]",0,[0.17960000002392462],17,0,17,0,1,,
,,,,,,,,,,,,5eed4cf07aa39616c79b7346,23,Kobieta,2022-06-11_09h27.05.868,task,2021.1.4,Win32,59.89458553,6299f149e92ead563fba08ef,62a442a920a8f585f2a4bc3c,,,,,,,,,,,,,,,,,,,,,,,,,,,,,,,,,,,,,,,,,,,,,,,,,,,,,,,,,,,,,,,,,,,,,,,,,,,,,,,,,,,,,,,,,,,,"[""period""]",0,[0.21699999999998454],18,0,18,0,1,,
,,,,,,,,,,,,5eed4cf07aa39616c79b7346,23,Kobieta,2022-06-11_09h27.05.868,task,2021.1.4,Win32,59.89458553,6299f149e92ead563fba08ef,62a442a920a8f585f2a4bc3c,,,,,,,,,,,,,,,,,,,,,,,,,,,,,,,,,,,,,,,,,,,,,,,,,,,,,,,,,,,,,,,,,,,,,,,,,,,,,,,,,,,,,,,,,,,,"[""period""]",0,[0.20799999999997],19,0,19,0,1,,
,,,,,,,,,,,,5eed4cf07aa39616c79b7346,23,Kobieta,2022-06-11_09h27.05.868,task,2021.1.4,Win32,59.89458553,6299f149e92ead563fba08ef,62a442a920a8f585f2a4bc3c,,,,,,,,,,,,,,,,,,,,,,,,,,,,,,,,,,,,,,,,,,,,,,,,,,,,,,,,,,,,,,,,,,,,,,,,,,,,,,,,,,,,,,,,,,,,"[""period""]",0,[0.182099999904608],20,0,20,0,1,,
,,,,,,,,,,,,5eed4cf07aa39616c79b7346,23,Kobieta,2022-06-11_09h27.05.868,task,2021.1.4,Win32,59.89458553,6299f149e92ead563fba08ef,62a442a920a8f585f2a4bc3c,,,,,,,,,,,,,,,,,,,,,,,,,,,,,,,,,,,,,,,,,,,,,,,,,,,,,,,,,,,,,,,,,,,,,,,,,,,,,,,,,,,,,,,,,,,,"[""period""]",0,[0.03150000000005093],21,0,21,0,1,,
,,,,,,,,,,,,5eed4cf07aa39616c79b7346,23,Kobieta,2022-06-11_09h27.05.868,task,2021.1.4,Win32,59.89458553,6299f149e92ead563fba08ef,62a442a920a8f585f2a4bc3c,,,,,,,,,,,,,,,,,,,,,,,,,,,,,,,,,,,,,,,,,,,,,,,,,,,,,,,,,,,,,,,,,,,,,,,,,,,,,,,,,,,,,,,,,,,,"[""comma""]",0,[0.24100000000009913],22,0,22,0,1,,
,,,,,,,,,,,,5eed4cf07aa39616c79b7346,23,Kobieta,2022-06-11_09h27.05.868,task,2021.1.4,Win32,59.89458553,6299f149e92ead563fba08ef,62a442a920a8f585f2a4bc3c,,,,,,,,,,,,,,,,,,,,,,,,,,,,,,,,,,,,,,,,,,,,,,,,,,,,,,,,,,,,,,,,,,,,,,,,,,,,,,,,,,,,,,,,,,,,"[""comma""]",0,[0.15789999997616633],23,0,23,0,1,,
,,,,,,,,,,,,5eed4cf07aa39616c79b7346,23,Kobieta,2022-06-11_09h27.05.868,task,2021.1.4,Win32,59.89458553,6299f149e92ead563fba08ef,62a442a920a8f585f2a4bc3c,,,,,,,,,,,,,,,,,,,,,,,,,,,,,,,,,,,,,,,,,,,,,,,,,,,,,,,,,,,,,,,,,,,,,,,,,,,,,,,,,,,,,,,,,,,,"[""period""]",0,[0.039499999999975444],24,0,24,0,1,,
,,,,,,,,,,,,5eed4cf07aa39616c79b7346,23,Kobieta,2022-06-11_09h27.05.868,task,2021.1.4,Win32,59.89458553,6299f149e92ead563fba08ef,62a442a920a8f585f2a4bc3c,,,,,,,,,,,,,,,,,,,,,,,,,,,,,,,,,,,,,,,,,,,,,,,,,,,,,,,,,,,,,,,,,,,,,,,,,,,,,,,,,,,,,,,,,,,,"[""period""]",0,[0.20239999997613722],25,0,25,0,1,,
,,,,,,,,,,,,5eed4cf07aa39616c79b7346,23,Kobieta,2022-06-11_09h27.05.868,task,2021.1.4,Win32,59.89458553,6299f149e92ead563fba08ef,62a442a920a8f585f2a4bc3c,,,,,,,,,,,,,,,,,,,,,,,,,,,,,,,,,,,,,,,,,,,,,,,,,,,,,,,,,,,,,,,,,,,,,,,,,,,,,,,,,,,,,,,,,,,,"[""comma""]",0,[0.23529999995230355],26,0,26,0,1,,
,,,,,,,,,,,,5eed4cf07aa39616c79b7346,23,Kobieta,2022-06-11_09h27.05.868,task,2021.1.4,Win32,59.89458553,6299f149e92ead563fba08ef,62a442a920a8f585f2a4bc3c,,,,,,,,,,,,,,,,,,,,,,,,,,,,,,,,,,,,,,,,,,,,,,,,,,,,,,,,,,,,,,,,,,,,,,,,,,,,,,,,,,,,,,,,,,,,"[""comma""]",0,[0.30349999999998545],27,0,27,0,1,,
,,,,,,,,,,,,5eed4cf07aa39616c79b7346,23,Kobieta,2022-06-11_09h27.05.868,task,2021.1.4,Win32,59.89458553,6299f149e92ead563fba08ef,62a442a920a8f585f2a4bc3c,,,,,,,,,,,,,,,,,,,,,,,,,,,,,,,,,,,,,,,,,,,,,,,,,,,,,,,,,,,,,,,,,,,,,,,,,,,,,,,,,,,,,,,,,,,,"[""comma""]",0,[0.26820000004772737],28,0,28,0,1,,
,,,,,,,,,,,,5eed4cf07aa39616c79b7346,23,Kobieta,2022-06-11_09h27.05.868,task,2021.1.4,Win32,59.89458553,6299f149e92ead563fba08ef,62a442a920a8f585f2a4bc3c,,,,,,,,,,,,,,,,,,,,,,,,,,,,,,,,,,,,,,,,,,,,,,,,,,,,,,,,,,,,,,,,,,,,,,,,,,,,,,,,,,,,,,,,,,,,"[""comma""]",0,[0.23419999992847806],29,0,29,0,1,,
,,,,,,,,,,,,5eed4cf07aa39616c79b7346,23,Kobieta,2022-06-11_09h27.05.868,task,2021.1.4,Win32,59.89458553,6299f149e92ead563fba08ef,62a442a920a8f585f2a4bc3c,,,,,,,,,,,,,,,,,,,,,,,,,,,,,,,,,,,,,,,,,,,,,,,,,,,,,,,,,,,,,,,,,,,,,,,,,,,,,,,,,,,,,,,,,,,,"[""period""]",0,[0.21240000009538562],30,0,30,0,1,,
,,,,,,,,,,,,5eed4cf07aa39616c79b7346,23,Kobieta,2022-06-11_09h27.05.868,task,2021.1.4,Win32,59.89458553,6299f149e92ead563fba08ef,62a442a920a8f585f2a4bc3c,,,,,,,,,,,,,,,,,,,,,,,,,,,,,,,,,,,,,,,,,,,,,,,,,,,,,,,,,,,,,,,,,,,,,,,,,,,,,,,,,,,,,,,,,,,,"[""comma""]",0,[0.23410000002388642],31,0,31,0,1,,
,,,,,,,,,,,,5eed4cf07aa39616c79b7346,23,Kobieta,2022-06-11_09h27.05.868,task,2021.1.4,Win32,59.89458553,6299f149e92ead563fba08ef,62a442a920a8f585f2a4bc3c,,,,,,,,,,,,,,,,,,,,,,,,,,,,,,,,,,,,,,,,,,,,,,,,,,,,,,,,,,,,,,,,,,,,,,,,,,,,,,,,,,,,,,,,,,,,"[""period""]",0,[0.22149999999999181],32,0,32,0,1,,
,,,,,,,,,,,,5eed4cf07aa39616c79b7346,23,Kobieta,2022-06-11_09h27.05.868,task,2021.1.4,Win32,59.89458553,6299f149e92ead563fba08ef,62a442a920a8f585f2a4bc3c,,,,,,,,,,,,,,,,,,,,,,,,,,,,,,,,,,,,,,,,,,,,,,,,,,,,,,,,,,,,,,,,,,,,,,,,,,,,,,,,,,,,,,,,,,,,"[""comma""]",0,[0.22740000009537198],33,0,33,0,1,,
,,,,,,,,,,,,5eed4cf07aa39616c79b7346,23,Kobieta,2022-06-11_09h27.05.868,task,2021.1.4,Win32,59.89458553,6299f149e92ead563fba08ef,62a442a920a8f585f2a4bc3c,,,,,,,,,,,,,,,,,,,,,,,,,,,,,,,,,,,,,,,,,,,,,,,,,,,,,,,,,,,,,,,,,,,,,,,,,,,,,,,,,,,,,,,,,,,,"[""period""]",0,[0.27210000002378365],34,0,34,0,1,,
,,,,,,,,,,,,5eed4cf07aa39616c79b7346,23,Kobieta,2022-06-11_09h27.05.868,task,2021.1.4,Win32,59.89458553,6299f149e92ead563fba08ef,62a442a920a8f585f2a4bc3c,,,,,,,,,,,,,,,,,,,,,,,,,,,,,,,,,,,,,,,,,,,,,,,,,,,,,,,,,,,,,,,,,,,,,,,,,,,,,,,,,,,,,,,,,,,,"[""comma""]",0,[0.23670000004767644],35,0,35,0,1,,
,,,,,,,,,,,,5eed4cf07aa39616c79b7346,23,Kobieta,2022-06-11_09h27.05.868,task,2021.1.4,Win32,59.89458553,6299f149e92ead563fba08ef,62a442a920a8f585f2a4bc3c,,,,,,,,,,,,,,,,,,,,,,,,,,,,,,,,,,,,,,,,,,,,,,,,,,,,,,,,,,,,,,,,,,,,,,,,,,,,,,,,,,,,,,,,,,,,"[""comma""]",0,[0.22949999999991633],36,0,36,0,1,,
,,,,,,,,,,,,5eed4cf07aa39616c79b7346,23,Kobieta,2022-06-11_09h27.05.868,task,2021.1.4,Win32,59.89458553,6299f149e92ead563fba08ef,62a442a920a8f585f2a4bc3c,,,,,,,,,,,,,,,,,,,,,,,,,,,,,,,,,,,,,,,,,,,,,,,,,,,,,,,,,,,,,,,,,,,,,,,,,,,,,,,,,,,,,,,,,,,,"[""comma""]",0,[0.23579999995240541],37,0,37,0,1,,
,,,,,,,,,,,,5eed4cf07aa39616c79b7346,23,Kobieta,2022-06-11_09h27.05.868,task,2021.1.4,Win32,59.89458553,6299f149e92ead563fba08ef,62a442a920a8f585f2a4bc3c,,,,,,,,,,,,,,,,,,,,,,,,,,,,,,,,,,,,,,,,,,,,,,,,,,,,,,,,,,,,,,,,,,,,,,,,,,,,,,,,,,,,,,,,,,,,"[""period""]",0,[0.20249999999998636],38,0,38,0,1,,
,,,,,,,,,,,,5eed4cf07aa39616c79b7346,23,Kobieta,2022-06-11_09h27.05.868,task,2021.1.4,Win32,59.89458553,6299f149e92ead563fba08ef,62a442a920a8f585f2a4bc3c,,,,,,,,,,,,,,,,,,,,,,,,,,,,,,,,,,,,,,,,,,,,,,,,,,,,,,,,,,,,,,,,,,,,,,,,,,,,,,,,,,,,,,,,,,,,"[""comma""]",0,[0.24610000002383003],39,0,39,0,1,,
,,,,,,,,,,,,5eed4cf07aa39616c79b7346,23,Kobieta,2022-06-11_09h27.05.868,task,2021.1.4,Win32,59.89458553,6299f149e92ead563fba08ef,62a442a920a8f585f2a4bc3c,,,,,,,,,,,,,,,,,,,,,,,,,,,,,,,,,,,,,,,,,,,,,,,,,,,,,,,,,,,,,,,,,,,,,,,,,,,,,,,,,,,,,,,,,,,,"[""comma""]",0,[0.23670000004767644],40,0,40,0,1,,
,,,,,,,,,,,,5eed4cf07aa39616c79b7346,23,Kobieta,2022-06-11_09h27.05.868,task,2021.1.4,Win32,59.89458553,6299f149e92ead563fba08ef,62a442a920a8f585f2a4bc3c,,,,,,,,,,,,,,,,,,,,,,,,,,,,,,,,,,,,,,,,,,,,,,,,,,,,,,,,,,,,,,,,,,,,,,,,,,,,,,,,,,,,,,,,,,,,"[""period""]",0,[0.28750000000002274],41,0,41,0,1,,
,,,,,,,,,,,,5eed4cf07aa39616c79b7346,23,Kobieta,2022-06-11_09h27.05.868,task,2021.1.4,Win32,59.89458553,6299f149e92ead563fba08ef,62a442a920a8f585f2a4bc3c,,,,,,,,,,,,,,,,,,,,,,,,,,,,,,,,,,,,,,,,,,,,,,,,,,,,,,,,,,,,,,,,,,,,,,,,,,,,,,,,,,,,,,,,,,,,"[""period""]",0,[0.23980000007145463],42,0,42,0,1,,
,,,,,,,,,,,,5eed4cf07aa39616c79b7346,23,Kobieta,2022-06-11_09h27.05.868,task,2021.1.4,Win32,59.89458553,6299f149e92ead563fba08ef,62a442a920a8f585f2a4bc3c,,,,,,,,,,,,,,,,,,,,,,,,,,,,,,,,,,,,,,,,,,,,,,,,,,,,,,,,,,,,,,,,,,,,,,,,,,,,,,,,,,,,,,,,,,,,"[""period""]",0,[0.24179999995237722],43,0,43,0,1,,
,,,,,,,,,,,,5eed4cf07aa39616c79b7346,23,Kobieta,2022-06-11_09h27.05.868,task,2021.1.4,Win32,59.89458553,6299f149e92ead563fba08ef,62a442a920a8f585f2a4bc3c,,,,,,,,,,,,,,,,,,,,,,,,,,,,,,,,,,,,,,,,,,,,,,,,,,,,,,,,,,,,,,,,,,,,,,,,,,,,,,,,,,,,,,,,,,,,"[""period""]",0,[0.2192000000476355],44,0,44,0,1,,
,,,,,,,,,,,,5eed4cf07aa39616c79b7346,23,Kobieta,2022-06-11_09h27.05.868,task,2021.1.4,Win32,59.89458553,6299f149e92ead563fba08ef,62a442a920a8f585f2a4bc3c,,,,,,,,,,,,,,,,,,,,,,,,,,,,,,,,,,,,,,,,,,,,,,,,,,,,,,,,,,,,,,,,,,,,,,,,,,,,,,,,,,,,,,,,,,,,"[""comma""]",0,[0.22810000002391462],45,0,45,0,1,,
,,,,,,,,,,,,5eed4cf07aa39616c79b7346,23,Kobieta,2022-06-11_09h27.05.868,task,2021.1.4,Win32,59.89458553,6299f149e92ead563fba08ef,62a442a920a8f585f2a4bc3c,,,,,,,,,,,,,,,,,,,,,,,,,,,,,,,,,,,,,,,,,,,,,,,,,,,,,,,,,,,,,,,,,,,,,,,,,,,,,,,,,,,,,,,,,,,,"[""period""]",0,[0.20390000009535925],46,0,46,0,1,,
,,,,,,,,,,,,5eed4cf07aa39616c79b7346,23,Kobieta,2022-06-11_09h27.05.868,task,2021.1.4,Win32,59.89458553,6299f149e92ead563fba08ef,62a442a920a8f585f2a4bc3c,,,,,,,,,,,,,,,,,,,,,,,,,,,,,,,,,,,,,,,,,,,,,,,,,,,,,,,,,,,,,,,,,,,,,,,,,,,,,,,,,,,,,,,,,,,,"[""comma""]",0,[0.23129999995239814],47,0,47,0,1,,
,,,,,,,,,,,,5eed4cf07aa39616c79b7346,23,Kobieta,2022-06-11_09h27.05.868,task,2021.1.4,Win32,59.89458553,6299f149e92ead563fba08ef,62a442a920a8f585f2a4bc3c,,,,,,,,,,,,,,,,,,,,,,,,,,,,,,,,,,,,,,,,,,,,,,,,,,,,,,,,,,,,,,,,,,,,,,,,,,,,,,,,,,,,,,,,,,,,"[""period""]",0,[0.18789999997613904],48,0,48,0,1,,
,,,,,,,,,,,,5eed4cf07aa39616c79b7346,23,Kobieta,2022-06-11_09h27.05.868,task,2021.1.4,Win32,59.89458553,6299f149e92ead563fba08ef,62a442a920a8f585f2a4bc3c,,,,,,,,,,,,,,,,,,,,,,,,,,,,,,,,,,,,,,,,,,,,,,,,,,,,,,,,,,,,,,,,,,,,,,,,,,,,,,,,,,,,,,,,,,,,"[""period""]",0,[0.2851000000238173],49,0,49,0,1,,
,,,,,,,,,,,,5eed4cf07aa39616c79b7346,23,Kobieta,2022-06-11_09h27.05.868,task,2021.1.4,Win32,59.89458553,6299f149e92ead563fba08ef,62a442a920a8f585f2a4bc3c,,,,,,,,,,,,,,,,,,,,,,,,,,,,,,,,,,,,,,,,,,,,,,,,,,,,,,,,,,,,,,,,,,,,,,,,,,,,,,,,,,,,,,,,,,,,"[""period""]",0,[0.25389999997616997],50,0,50,0,1,,
,,,,,,,,,,,,5eed4cf07aa39616c79b7346,23,Kobieta,2022-06-11_09h27.05.868,task,2021.1.4,Win32,59.89458553,6299f149e92ead563fba08ef,62a442a920a8f585f2a4bc3c,,,,,,,,,,,,,,,,,,,,,,,,,,,,,,,,,,,,,,,,,,,,,,,,,,,,,,,,,,,,,,,,,,,,,,,,,,,,,,,,,,,,,,,,,,,,"[""period""]",0,[0.324800000071491],51,0,51,0,1,,
,,,,,,,,,,,,5eed4cf07aa39616c79b7346,23,Kobieta,2022-06-11_09h27.05.868,task,2021.1.4,Win32,59.89458553,6299f149e92ead563fba08ef,62a442a920a8f585f2a4bc3c,,,,,,,,,,,,,,,,,,,,,,,,,,,,,,,,,,,,,,,,,,,,,,,,,,,,,,,,,,,,,,,,,,,,,,,,,,,,,,,,,,,,,,,,,,,,"[""comma""]",0,[0.3342000000476446],52,0,52,0,1,,
,,,,,,,,,,,,5eed4cf07aa39616c79b7346,23,Kobieta,2022-06-11_09h27.05.868,task,2021.1.4,Win32,59.89458553,6299f149e92ead563fba08ef,62a442a920a8f585f2a4bc3c,,,,,,,,,,,,,,,,,,,,,,,,,,,,,,,,,,,,,,,,,,,,,,,,,,,,,,,,,,,,,,,,,,,,,,,,,,,,,,,,,,,,,,,,,,,,"[""comma""]",0,[0.23239999997622363],53,0,53,0,1,,
,,,,,,,,,,,,5eed4cf07aa39616c79b7346,23,Kobieta,2022-06-11_09h27.05.868,task,2021.1.4,Win32,59.89458553,6299f149e92ead563fba08ef,62a442a920a8f585f2a4bc3c,,,,,,,,,,,,,,,,,,,,,,,,,,,,,,,,,,,,,,,,,,,,,,,,,,,,,,,,,,,,,,,,,,,,,,,,,,,,,,,,,,,,,,,,,,,,"[""comma""]",0,[0.23849999999993088],54,0,54,0,1,,
,,,,,,,,,,,,5eed4cf07aa39616c79b7346,23,Kobieta,2022-06-11_09h27.05.868,task,2021.1.4,Win32,59.89458553,6299f149e92ead563fba08ef,62a442a920a8f585f2a4bc3c,,,,,,,,,,,,,,,,,,,,,,,,,,,,,,,,,,,,,,,,,,,,,,,,,,,,,,,,,,,,,,,,,,,,,,,,,,,,,,,,,,,,,,,,,,,,"[""period""]",0,[0.302799999952299],55,0,55,0,1,,
,,,,,,,,,,,,5eed4cf07aa39616c79b7346,23,Kobieta,2022-06-11_09h27.05.868,task,2021.1.4,Win32,59.89458553,6299f149e92ead563fba08ef,62a442a920a8f585f2a4bc3c,,,,,,,,,,,,,,,,,,,,,,,,,,,,,,,,,,,,,,,,,,,,,,,,,,,,,,,,,,,,,,,,,,,,,,,,,,,,,,,,,,,,,,,,,,,,"[""comma""]",0,[0.2900000000000773],56,0,56,0,1,,
,,,,,,,,,,,,5eed4cf07aa39616c79b7346,23,Kobieta,2022-06-11_09h27.05.868,task,2021.1.4,Win32,59.89458553,6299f149e92ead563fba08ef,62a442a920a8f585f2a4bc3c,,,,,,,,,,,,,,,,,,,,,,,,,,,,,,,,,,,,,,,,,,,,,,,,,,,,,,,,,,,,,,,,,,,,,,,,,,,,,,,,,,,,,,,,,,,,"[""period""]",0,[0.43170000004772646],57,0,57,0,1,,
,,,,,,,,,,,,5eed4cf07aa39616c79b7346,23,Kobieta,2022-06-11_09h27.05.868,task,2021.1.4,Win32,59.89458553,6299f149e92ead563fba08ef,62a442a920a8f585f2a4bc3c,,,,,,,,,,,,,,,,,,,,,,,,,,,,,,,,,,,,,,,,,,,,,,,,,,,,,,,,,,,,,,,,,,,,,,,,,,,,,,,,,,,,,,,,,,,,"[""period""]",0,[0.4675000000000864],58,0,58,0,1,,
,,,,,,,,,,,,5eed4cf07aa39616c79b7346,23,Kobieta,2022-06-11_09h27.05.868,task,2021.1.4,Win32,59.89458553,6299f149e92ead563fba08ef,62a442a920a8f585f2a4bc3c,,,,,,,,,,,,,,,,,,,,,,,,,,,,,,,,,,,,,,,,,,,,,,,,,,,,,,,,,,,,,,,,,,,,,,,,,,,,,,,,,,,,,,,,,,,,"[""period""]",0,[0.2653999999761254],59,0,59,0,1,,
,,,,,,,,,,,,5eed4cf07aa39616c79b7346,23,Kobieta,2022-06-11_09h27.05.868,task,2021.1.4,Win32,59.89458553,6299f149e92ead563fba08ef,62a442a920a8f585f2a4bc3c,,,,,,,,,,,,,,,,,,,,,,,,,,,,,,,,,,,,,,,,,,,,,,,,,,,,,,,,,,,,,,,,,,,,,,,,,,,,,,,,,,,,,,,,,,,,"[""period""]",0,[0.21559999990461165],60,0,60,0,1,,
,,,,,,,,,,,,5eed4cf07aa39616c79b7346,23,Kobieta,2022-06-11_09h27.05.868,task,2021.1.4,Win32,59.89458553,6299f149e92ead563fba08ef,62a442a920a8f585f2a4bc3c,,,,,,,,,,,,,,,,,,,,,,,,,,,,,,,,,,,,,,,,,,,,,,,,,,,,,,,,,,,,,,,,,,,,,,,,,,,,,,,,,,,,,,,,,,,,"[""period""]",0,[0.22000000000002728],61,0,61,0,1,,
,,,,,,,,,,,,5eed4cf07aa39616c79b7346,23,Kobieta,2022-06-11_09h27.05.868,task,2021.1.4,Win32,59.89458553,6299f149e92ead563fba08ef,62a442a920a8f585f2a4bc3c,,,,,,,,,,,,,,,,,,,,,,,,,,,,,,,,,,,,,,,,,,,,,,,,,,,,,,,,,,,,,,,,,,,,,,,,,,,,,,,,,,,,,,,,,,,,"[""comma""]",0,[0.2352000000477119],62,0,62,0,1,,
,,,,,,,,,,,,5eed4cf07aa39616c79b7346,23,Kobieta,2022-06-11_09h27.05.868,task,2021.1.4,Win32,59.89458553,6299f149e92ead563fba08ef,62a442a920a8f585f2a4bc3c,,,,,,,,,,,,,,,,,,,,,,,,,,,,,,,,,,,,,,,,,,,,,,,,,,,,,,,,,,,,,,,,,,,,,,,,,,,,,,,,,,,,,,,,,,,,"[""comma""]",0,[0.1997999999523472],63,0,63,0,1,,
,,,,,,,,,,,,5eed4cf07aa39616c79b7346,23,Kobieta,2022-06-11_09h27.05.868,task,2021.1.4,Win32,59.89458553,6299f149e92ead563fba08ef,62a442a920a8f585f2a4bc3c,,,,,,,,,,,,,,,,,,,,,,,,,,,,,,,,,,,,,,,,,,,,,,,,,,,,,,,,,,,,,,,,,,,,,,,,,,,,,,,,,,,,,,,,,,,,"[""comma""]",0,[0.3473000000714137],64,0,64,0,1,,
,,,,,,,,,,,,5eed4cf07aa39616c79b7346,23,Kobieta,2022-06-11_09h27.05.868,task,2021.1.4,Win32,59.89458553,6299f149e92ead563fba08ef,62a442a920a8f585f2a4bc3c,,,,,,,,,,,,,,,,,,,,,,,,,,,,,,,,,,,,,,,,,,,,,,,,,,,,,,,,,,,,,,,,,,,,,,,,,,,,,,,,,,,,,,,,,,,,"[""comma""]",0,[0.43739999997615087],65,0,65,0,1,,
,,,,,,,,,,,,5eed4cf07aa39616c79b7346,23,Kobieta,2022-06-11_09h27.05.868,task,2021.1.4,Win32,59.89458553,6299f149e92ead563fba08ef,62a442a920a8f585f2a4bc3c,,,,,,,,,,,,,,,,,,,,,,,,,,,,,,,,,,,,,,,,,,,,,,,,,,,,,,,,,,,,,,,,,,,,,,,,,,,,,,,,,,,,,,,,,,,,"[""comma""]",0,[0.5028999999761936],66,0,66,0,1,,
,,,,,,,,,,,,5eed4cf07aa39616c79b7346,23,Kobieta,2022-06-11_09h27.05.868,task,2021.1.4,Win32,59.89458553,6299f149e92ead563fba08ef,62a442a920a8f585f2a4bc3c,,,,,,,,,,,,,,,,,,,,,,,,,,,,,,,,,,,,,,,,,,,,,,,,,,,,,,,,,,,,,,,,,,,,,,,,,,,,,,,,,,,,,,,,,,,,"[""comma""]",0,[0.23669999992841895],67,0,67,0,1,,
,,,,,,,,,,,,5eed4cf07aa39616c79b7346,23,Kobieta,2022-06-11_09h27.05.868,task,2021.1.4,Win32,59.89458553,6299f149e92ead563fba08ef,62a442a920a8f585f2a4bc3c,,,,,,,,,,,,,,,,,,,,,,,,,,,,,,,,,,,,,,,,,,,,,,,,,,,,,,,,,,,,,,,,,,,,,,,,,,,,,,,,,,,,,,,,,,,,"[""comma""]",0,[0.1994999999999436],68,0,68,0,1,,
,,,,,,,,,,,,5eed4cf07aa39616c79b7346,23,Kobieta,2022-06-11_09h27.05.868,task,2021.1.4,Win32,59.89458553,6299f149e92ead563fba08ef,62a442a920a8f585f2a4bc3c,,,,,,,,,,,,,,,,,,,,,,,,,,,,,,,,,,,,,,,,,,,,,,,,,,,,,,,,,,,,,,,,,,,,,,,,,,,,,,,,,,,,,,,,,,,,"[""comma""]",0,[0.23010000002386732],69,0,69,0,1,,
,,,,,,,,,,,,5eed4cf07aa39616c79b7346,23,Kobieta,2022-06-11_09h27.05.868,task,2021.1.4,Win32,59.89458553,6299f149e92ead563fba08ef,62a442a920a8f585f2a4bc3c,,,,,,,,,,,,,,,,,,,,,,,,,,,,,,,,,,,,,,,,,,,,,,,,,,,,,,,,,,,,,,,,,,,,,,,,,,,,,,,,,,,,,,,,,,,,"[""comma""]",0,[0.31489999997609175],70,0,70,0,1,,
,,,,,,,,,,,,5eed4cf07aa39616c79b7346,23,Kobieta,2022-06-11_09h27.05.868,task,2021.1.4,Win32,59.89458553,6299f149e92ead563fba08ef,62a442a920a8f585f2a4bc3c,,,,,,,,,,,,,,,,,,,,,,,,,,,,,,,,,,,,,,,,,,,,,,,,,,,,,,,,,,,,,,,,,,,,,,,,,,,,,,,,,,,,,,,,,,,,"[""comma""]",0,[0.3416000000238455],71,0,71,0,1,,
,,,,,,,,,,,,5eed4cf07aa39616c79b7346,23,Kobieta,2022-06-11_09h27.05.868,task,2021.1.4,Win32,59.89458553,6299f149e92ead563fba08ef,62a442a920a8f585f2a4bc3c,,,,,,,,,,,,,,,,,,,,,,,,,,,,,,,,,,,,,,,,,,,,,,,,,,,,,,,,,,,,,,,,,,,,,,,,,,,,,,,,,,,,,,,,,,,,"[""comma""]",0,[0.25410000002386823],72,0,72,0,1,,
,,,,,,,,,,,,5eed4cf07aa39616c79b7346,23,Kobieta,2022-06-11_09h27.05.868,task,2021.1.4,Win32,59.89458553,6299f149e92ead563fba08ef,62a442a920a8f585f2a4bc3c,,,,,,,,,,,,,,,,,,,,,,,,,,,,,,,,,,,,,,,,,,,,,,,,,,,,,,,,,,,,,,,,,,,,,,,,,,,,,,,,,,,,,,,,,,,,"[""period""]",0,[0.2549000000954038],73,0,73,0,1,,
,,,,,,,,,,,,5eed4cf07aa39616c79b7346,23,Kobieta,2022-06-11_09h27.05.868,task,2021.1.4,Win32,59.89458553,6299f149e92ead563fba08ef,62a442a920a8f585f2a4bc3c,,,,,,,,,,,,,,,,,,,,,,,,,,,,,,,,,,,,,,,,,,,,,,,,,,,,,,,,,,,,,,,,,,,,,,,,,,,,,,,,,,,,,,,,,,,,"[""comma""]",0,[0.17160000002388642],74,0,74,0,1,,
,,,,,,,,,,,,5eed4cf07aa39616c79b7346,23,Kobieta,2022-06-11_09h27.05.868,task,2021.1.4,Win32,59.89458553,6299f149e92ead563fba08ef,62a442a920a8f585f2a4bc3c,,,,,,,,,,,,,,,,,,,,,,,,,,,,,,,,,,,,,,,,,,,,,,,,,,,,,,,,,,,,,,,,,,,,,,,,,,,,,,,,,,,,,,,,,,,,"[""comma""]",0,[0.19930000007150284],75,0,75,0,1,,
,,,,,,,,,,,,5eed4cf07aa39616c79b7346,23,Kobieta,2022-06-11_09h27.05.868,task,2021.1.4,Win32,59.89458553,6299f149e92ead563fba08ef,62a442a920a8f585f2a4bc3c,,,,,,,,,,,,,,,,,,,,,,,,,,,,,,,,,,,,,,,,,,,,,,,,,,,,,,,,,,,,,,,,,,,,,,,,,,,,,,,,,,,,,,,,,,,,"[""comma""]",0,[0.30750000000000455],76,0,76,0,1,,
,,,,,,,,,,,,5eed4cf07aa39616c79b7346,23,Kobieta,2022-06-11_09h27.05.868,task,2021.1.4,Win32,59.89458553,6299f149e92ead563fba08ef,62a442a920a8f585f2a4bc3c,,,,,,,,,,,,,,,,,,,,,,,,,,,,,,,,,,,,,,,,,,,,,,,,,,,,,,,,,,,,,,,,,,,,,,,,,,,,,,,,,,,,,,,,,,,,"[""period""]",0,[0.26639999997610175],77,0,77,0,1,,
,,,,,,,,,,,,5eed4cf07aa39616c79b7346,23,Kobieta,2022-06-11_09h27.05.868,task,2021.1.4,Win32,59.89458553,6299f149e92ead563fba08ef,62a442a920a8f585f2a4bc3c,,,,,,,,,,,,,,,,,,,,,,,,,,,,,,,,,,,,,,,,,,,,,,,,,,,,,,,,,,,,,,,,,,,,,,,,,,,,,,,,,,,,,,,,,,,,"[""period""]",0,[0.48210000002382003],78,0,78,0,1,,
,,,,,,,,,,,,5eed4cf07aa39616c79b7346,23,Kobieta,2022-06-11_09h27.05.868,task,2021.1.4,Win32,59.89458553,6299f149e92ead563fba08ef,62a442a920a8f585f2a4bc3c,,,,,,,,,,,,,,,,,,,,,,,,,,,,,,,,,,,,,,,,,,,,,,,,,,,,,,,,,,,,,,,,,,,,,,,,,,,,,,,,,,,,,,,,,,,,"[""comma""]",0,[0.30260000002385823],79,0,79,0,1,,
,,,,,,,,,,,,5eed4cf07aa39616c79b7346,23,Kobieta,2022-06-11_09h27.05.868,task,2021.1.4,Win32,59.89458553,6299f149e92ead563fba08ef,62a442a920a8f585f2a4bc3c,,,,,,,,,,,,,,,,,,,,,,,,,,,,,,,,,,,,,,,,,,,,,,,,,,,,,,,,,,,,,,,,,,,,,,,,,,,,,,,,,,,,,,,,,,,,"[""period""]",0,[0.23300000000006094],80,0,80,0,1,,
,,,,,,,,,,,,5eed4cf07aa39616c79b7346,23,Kobieta,2022-06-11_09h27.05.868,task,2021.1.4,Win32,59.89458553,6299f149e92ead563fba08ef,62a442a920a8f585f2a4bc3c,,,,,,,,,,,,,,,,,,,,,,,,,,,,,,,,,,,,,,,,,,,,,,,,,,,,,,,,,,,,,,,,,,,,,,,,,,,,,,,,,,,,,,,,,,,,"[""period""]",0,[0.2017999999522999],81,0,81,0,1,,
,,,,,,,,,,,,5eed4cf07aa39616c79b7346,23,Kobieta,2022-06-11_09h27.05.868,task,2021.1.4,Win32,59.89458553,6299f149e92ead563fba08ef,62a442a920a8f585f2a4bc3c,,,,,,,,,,,,,,,,,,,,,,,,,,,,,,,,,,,,,,,,,,,,,,,,,,,,,,,,,,,,,,,,,,,,,,,,,,,,,,,,,,,,,,,,,,,,"[""period""]",0,[0.2534000000953256],82,0,82,0,1,,
,,,,,,,,,,,,5eed4cf07aa39616c79b7346,23,Kobieta,2022-06-11_09h27.05.868,task,2021.1.4,Win32,59.89458553,6299f149e92ead563fba08ef,62a442a920a8f585f2a4bc3c,,,,,,,,,,,,,,,,,,,,,,,,,,,,,,,,,,,,,,,,,,,,,,,,,,,,,,,,,,,,,,,,,,,,,,,,,,,,,,,,,,,,,,,,,,,,"[""period""]",0,[0.22789999997621635],83,0,83,0,1,,
,,,,,,,,,,,,5eed4cf07aa39616c79b7346,23,Kobieta,2022-06-11_09h27.05.868,task,2021.1.4,Win32,59.89458553,6299f149e92ead563fba08ef,62a442a920a8f585f2a4bc3c,,,,,,,,,,,,,,,,,,,,,,,,,,,,,,,,,,,,,,,,,,,,,,,,,,,,,,,,,,,,,,,,,,,,,,,,,,,,,,,,,,,,,,,,,,,,"[""period""]",0,[0.2195000000000391],84,0,84,0,1,,
,,,,,,,,,,,,5eed4cf07aa39616c79b7346,23,Kobieta,2022-06-11_09h27.05.868,task,2021.1.4,Win32,59.89458553,6299f149e92ead563fba08ef,62a442a920a8f585f2a4bc3c,,,,,,,,,,,,,,,,,,,,,,,,,,,,,,,,,,,,,,,,,,,,,,,,,,,,,,,,,,,,,,,,,,,,,,,,,,,,,,,,,,,,,,,,,,,,"[""comma""]",0,[0.25950000000000273],85,0,85,0,1,,
,,,,,,,,,,,,5eed4cf07aa39616c79b7346,23,Kobieta,2022-06-11_09h27.05.868,task,2021.1.4,Win32,59.89458553,6299f149e92ead563fba08ef,62a442a920a8f585f2a4bc3c,,,,,,,,,,,,,,,,,,,,,,,,,,,,,,,,,,,,,,,,,,,,,,,,,,,,,,,,,,,,,,,,,,,,,,,,,,,,,,,,,,,,,,,,,,,,"[""period""]",0,[0.2667999999523545],86,0,86,0,1,,
,,,,,,,,,,,,5eed4cf07aa39616c79b7346,23,Kobieta,2022-06-11_09h27.05.868,task,2021.1.4,Win32,59.89458553,6299f149e92ead563fba08ef,62a442a920a8f585f2a4bc3c,,,,,,,,,,,,,,,,,,,,,,,,,,,,,,,,,,,,,,,,,,,,,,,,,,,,,,,,,,,,,,,,,,,,,,,,,,,,,,,,,,,,,,,,,,,,"[""comma""]",0,[0.2032000000476728],87,0,87,0,1,,
,,,,,,,,,,,,5eed4cf07aa39616c79b7346,23,Kobieta,2022-06-11_09h27.05.868,task,2021.1.4,Win32,59.89458553,6299f149e92ead563fba08ef,62a442a920a8f585f2a4bc3c,,,,,,,,,,,,,,,,,,,,,,,,,,,,,,,,,,,,,,,,,,,,,,,,,,,,,,,,,,,,,,,,,,,,,,,,,,,,,,,,,,,,,,,,,,,,"[""period""]",0,[0.22010000002376273],88,0,88,0,1,,
,,,,,,,,,,,,5eed4cf07aa39616c79b7346,23,Kobieta,2022-06-11_09h27.05.868,task,2021.1.4,Win32,59.89458553,6299f149e92ead563fba08ef,62a442a920a8f585f2a4bc3c,,,,,,,,,,,,,,,,,,,,,,,,,,,,,,,,,,,,,,,,,,,,,,,,,,,,,,,,,,,,,,,,,,,,,,,,,,,,,,,,,,,,,,,,,,,,"[""comma""]",0,[0.2680000000000291],89,0,89,0,1,,
,,,,,,,,,,,,5eed4cf07aa39616c79b7346,23,Kobieta,2022-06-11_09h27.05.868,task,2021.1.4,Win32,59.89458553,6299f149e92ead563fba08ef,62a442a920a8f585f2a4bc3c,,,,,,,,,,,,,,,,,,,,,,,,,,,,,,,,,,,,,,,,,,,,,,,,,,,,,,,,,,,,,,,,,,,,,,,,,,,,,,,,,,,,,,,,,,,,"[""period"",""comma""]",0,"[0.25839999997606355,1.6678999999761572]",90,0,90,0,1,,
,,,,,,,,,,,,5eed4cf07aa39616c79b7346,23,Kobieta,2022-06-11_09h27.05.868,task,2021.1.4,Win32,59.89458553,6299f149e92ead563fba08ef,62a442a920a8f585f2a4bc3c,,,,,,,,,,,,,,,,,,,,,,,,,,,,,,,,,,,,,,,,,,,,,,,,,,,,,,,,,,,,,,,,,,,,,,,,,,,,,,,,,,,,,,,,,,,,,0,,91,0,91,0,1,,
,,,,,,,,,,,,5eed4cf07aa39616c79b7346,23,Kobieta,2022-06-11_09h27.05.868,task,2021.1.4,Win32,59.89458553,6299f149e92ead563fba08ef,62a442a920a8f585f2a4bc3c,,,,,,,,,,,,,,,,,,,,,,,,,,,,,,,,,,,,,,,,,,,,,,,,,,,,,,,,,,,,,,,,,,,,,,,,,,,,,,,,,,,,,,,,,,,,"[""period""]",0,[0.2671999999284935],92,0,92,0,1,,
,,,,,,,,,,,,5eed4cf07aa39616c79b7346,23,Kobieta,2022-06-11_09h27.05.868,task,2021.1.4,Win32,59.89458553,6299f149e92ead563fba08ef,62a442a920a8f585f2a4bc3c,,,,,,,,,,,,,,,,,,,,,,,,,,,,,,,,,,,,,,,,,,,,,,,,,,,,,,,,,,,,,,,,,,,,,,,,,,,,,,,,,,,,,,,,,,,,"[""period""]",0,[0.4828999999760981],93,0,93,0,1,,
,,,,,,,,,,,,5eed4cf07aa39616c79b7346,23,Kobieta,2022-06-11_09h27.05.868,task,2021.1.4,Win32,59.89458553,6299f149e92ead563fba08ef,62a442a920a8f585f2a4bc3c,,,,,,,,,,,,,,,,,,,,,,,,,,,,,,,,,,,,,,,,,,,,,,,,,,,,,,,,,,,,,,,,,,,,,,,,,,,,,,,,,,,,,,,,,,,,"[""period""]",0,[0.3216000000238637],94,0,94,0,1,,
,,,,,,,,,,,,5eed4cf07aa39616c79b7346,23,Kobieta,2022-06-11_09h27.05.868,task,2021.1.4,Win32,59.89458553,6299f149e92ead563fba08ef,62a442a920a8f585f2a4bc3c,,,,,,,,,,,,,,,,,,,,,,,,,,,,,,,,,,,,,,,,,,,,,,,,,,,,,,,,,,,,,,,,,,,,,,,,,,,,,,,,,,,,,,,,,,,,"[""period""]",0,[0.27270000004773465],95,0,95,0,1,,
,,,,,,,,,,,,5eed4cf07aa39616c79b7346,23,Kobieta,2022-06-11_09h27.05.868,task,2021.1.4,Win32,59.89458553,6299f149e92ead563fba08ef,62a442a920a8f585f2a4bc3c,,,,,,,,,,,,,,,,,,,,,,,,,,,,,,,,,,,,,,,,,,,,,,,,,,,,,,,,,,,,,,,,,,,,,,,,,,,,,,,,,,,,,,,,,,,,"[""period""]",0,[0.2352000000477119],96,0,96,0,1,,
,,,,,,,,,,,,5eed4cf07aa39616c79b7346,23,Kobieta,2022-06-11_09h27.05.868,task,2021.1.4,Win32,59.89458553,6299f149e92ead563fba08ef,62a442a920a8f585f2a4bc3c,,,,,,,,,,,,,,,,,,,,,,,,,,,,,,,,,,,,,,,,,,,,,,,,,,,,,,,,,,,,,,,,,,,,,,,,,,,,,,,,,,,,,,,,,,,,"[""period""]",0,[0.23790000009546475],97,0,97,0,1,,
,,,,,,,,,,,,5eed4cf07aa39616c79b7346,23,Kobieta,2022-06-11_09h27.05.868,task,2021.1.4,Win32,59.89458553,6299f149e92ead563fba08ef,62a442a920a8f585f2a4bc3c,,,,,,,,,,,,,,,,,,,,,,,,,,,,,,,,,,,,,,,,,,,,,,,,,,,,,,,,,,,,,,,,,,,,,,,,,,,,,,,,,,,,,,,,,,,,"[""comma""]",0,[0.2873999999761736],98,0,98,0,1,,
,,,,,,,,,,,,5eed4cf07aa39616c79b7346,23,Kobieta,2022-06-11_09h27.05.868,task,2021.1.4,Win32,59.89458553,6299f149e92ead563fba08ef,62a442a920a8f585f2a4bc3c,,,,,,,,,,,,,,,,,,,,,,,,,,,,,,,,,,,,,,,,,,,,,,,,,,,,,,,,,,,,,,,,,,,,,,,,,,,,,,,,,,,,,,,,,,,,"[""period""]",0,[0.30720000004760095],99,0,99,0,1,,
,,,,,,,,,,,,5eed4cf07aa39616c79b7346,23,Kobieta,2022-06-11_09h27.05.868,task,2021.1.4,Win32,59.89458553,6299f149e92ead563fba08ef,62a442a920a8f585f2a4bc3c,,,,,,,,,,,,,,,,,,,,,,,,,,,,,,,,,,,,,,,,,,,,,,,,,,,,,,,,,,,,,,,,,,,,,,,,,,,,,,,,,,,,,,,,,,,,"[""comma""]",0,[0.26839999997616815],100,0,100,0,1,,
,,,,,,,,,,,,5eed4cf07aa39616c79b7346,23,Kobieta,2022-06-11_09h27.05.868,task,2021.1.4,Win32,59.89458553,6299f149e92ead563fba08ef,62a442a920a8f585f2a4bc3c,,,,,,,,,,,,,,,,,,,,,,,,,,,,,,,,,,,,,,,,,,,,,,,,,,,,,,,,,,,,,,,,,,,,,,,,,,,,,,,,,,,,,,,,,,,,"[""comma""]",0,[0.3010999999046362],101,0,101,0,1,,
,,,,,,,,,,,,5eed4cf07aa39616c79b7346,23,Kobieta,2022-06-11_09h27.05.868,task,2021.1.4,Win32,59.89458553,6299f149e92ead563fba08ef,62a442a920a8f585f2a4bc3c,,,,,,,,,,,,,,,,,,,,,,,,,,,,,,,,,,,,,,,,,,,,,,,,,,,,,,,,,,,,,,,,,,,,,,,,,,,,,,,,,,,,,,,,,,,,"[""comma""]",0,[0.28240000009543564],102,0,102,0,1,,
,,,,,,,,,,,,5eed4cf07aa39616c79b7346,23,Kobieta,2022-06-11_09h27.05.868,task,2021.1.4,Win32,59.89458553,6299f149e92ead563fba08ef,62a442a920a8f585f2a4bc3c,,,,,,,,,,,,,,,,,,,,,,,,,,,,,,,,,,,,,,,,,,,,,,,,,,,,,,,,,,,,,,,,,,,,,,,,,,,,,,,,,,,,,,,,,,,,"[""comma""]",0,[0.2186000000239119],103,0,103,0,1,,
,,,,,,,,,,,,5eed4cf07aa39616c79b7346,23,Kobieta,2022-06-11_09h27.05.868,task,2021.1.4,Win32,59.89458553,6299f149e92ead563fba08ef,62a442a920a8f585f2a4bc3c,,,,,,,,,,,,,,,,,,,,,,,,,,,,,,,,,,,,,,,,,,,,,,,,,,,,,,,,,,,,,,,,,,,,,,,,,,,,,,,,,,,,,,,,,,,,"[""period""]",0,[0.20679999995240905],104,0,104,0,1,,
,,,,,,,,,,,,5eed4cf07aa39616c79b7346,23,Kobieta,2022-06-11_09h27.05.868,task,2021.1.4,Win32,59.89458553,6299f149e92ead563fba08ef,62a442a920a8f585f2a4bc3c,,,,,,,,,,,,,,,,,,,,,,,,,,,,,,,,,,,,,,,,,,,,,,,,,,,,,,,,,,,,,,,,,,,,,,,,,,,,,,,,,,,,,,,,,,,,"[""period""]",0,[0.2259999999999991],105,0,105,0,1,,
,,,,,,,,,,,,5eed4cf07aa39616c79b7346,23,Kobieta,2022-06-11_09h27.05.868,task,2021.1.4,Win32,59.89458553,6299f149e92ead563fba08ef,62a442a920a8f585f2a4bc3c,,,,,,,,,,,,,,,,,,,,,,,,,,,,,,,,,,,,,,,,,,,,,,,,,,,,,,,,,,,,,,,,,,,,,,,,,,,,,,,,,,,,,,,,,,,,"[""period""]",0,[0.2586000000237618],106,0,106,0,1,,
,,,,,,,,,,,,5eed4cf07aa39616c79b7346,23,Kobieta,2022-06-11_09h27.05.868,task,2021.1.4,Win32,59.89458553,6299f149e92ead563fba08ef,62a442a920a8f585f2a4bc3c,,,,,,,,,,,,,,,,,,,,,,,,,,,,,,,,,,,,,,,,,,,,,,,,,,,,,,,,,,,,,,,,,,,,,,,,,,,,,,,,,,,,,,,,,,,,"[""period""]",0,[0.4371999999284526],107,0,107,0,1,,
,,,,,,,,,,,,5eed4cf07aa39616c79b7346,23,Kobieta,2022-06-11_09h27.05.868,task,2021.1.4,Win32,59.89458553,6299f149e92ead563fba08ef,62a442a920a8f585f2a4bc3c,,,,,,,,,,,,,,,,,,,,,,,,,,,,,,,,,,,,,,,,,,,,,,,,,,,,,,,,,,,,,,,,,,,,,,,,,,,,,,,,,,,,,,,,,,,,"[""period""]",0,[0.28210000002377456],108,0,108,0,1,,
,,,,,,,,,,,,5eed4cf07aa39616c79b7346,23,Kobieta,2022-06-11_09h27.05.868,task,2021.1.4,Win32,59.89458553,6299f149e92ead563fba08ef,62a442a920a8f585f2a4bc3c,,,,,,,,,,,,,,,,,,,,,,,,,,,,,,,,,,,,,,,,,,,,,,,,,,,,,,,,,,,,,,,,,,,,,,,,,,,,,,,,,,,,,,,,,,,,"[""period""]",0,[0.2356999999284426],109,0,109,0,1,,
,,,,,,,,,,,,5eed4cf07aa39616c79b7346,23,Kobieta,2022-06-11_09h27.05.868,task,2021.1.4,Win32,59.89458553,6299f149e92ead563fba08ef,62a442a920a8f585f2a4bc3c,,,,,,,,,,,,,,,,,,,,,,,,,,,,,,,,,,,,,,,,,,,,,,,,,,,,,,,,,,,,,,,,,,,,,,,,,,,,,,,,,,,,,,,,,,,,"[""period""]",0,[0.21800000000007458],110,0,110,0,1,,
,,,,,,,,,,,,5eed4cf07aa39616c79b7346,23,Kobieta,2022-06-11_09h27.05.868,task,2021.1.4,Win32,59.89458553,6299f149e92ead563fba08ef,62a442a920a8f585f2a4bc3c,,,,,,,,,,,,,,,,,,,,,,,,,,,,,,,,,,,,,,,,,,,,,,,,,,,,,,,,,,,,,,,,,,,,,,,,,,,,,,,,,,,,,,,,,,,,"[""period""]",0,[0.1029999999999518],111,0,111,0,1,,
,,,,,,,,,,,,5eed4cf07aa39616c79b7346,23,Kobieta,2022-06-11_09h27.05.868,task,2021.1.4,Win32,59.89458553,6299f149e92ead563fba08ef,62a442a920a8f585f2a4bc3c,,,,,,,,,,,,,,,,,,,,,,,,,,,,,,,,,,,,,,,,,,,,,,,,,,,,,,,,,,,,,,,,,,,,,,,,,,,,,,,,,,,,,,,,,,,,"[""period""]",0,[0.20330000007152194],112,0,112,0,1,,
,,,,,,,,,,,,5eed4cf07aa39616c79b7346,23,Kobieta,2022-06-11_09h27.05.868,task,2021.1.4,Win32,59.89458553,6299f149e92ead563fba08ef,62a442a920a8f585f2a4bc3c,,,,,,,,,,,,,,,,,,,,,,,,,,,,,,,,,,,,,,,,,,,,,,,,,,,,,,,,,,,,,,,,,,,,,,,,,,,,,,,,,,,,,,,,,,,,"[""period"",""comma""]",0,"[0.08660000002385004,1.93129999995233]",113,0,113,0,1,,
,,,,,,,,,,,,5eed4cf07aa39616c79b7346,23,Kobieta,2022-06-11_09h27.05.868,task,2021.1.4,Win32,59.89458553,6299f149e92ead563fba08ef,62a442a920a8f585f2a4bc3c,,,,,,,,,,,,,,,,,,,,,,,,,,,,,,,,,,,,,,,,,,,,,,,,,,,,,,,,,,,,,,,,,,,,,,,,,,,,,,,,,,,,,,,,,,,,"[""period""]",0,[1.852800000071511],114,0,114,0,1,,
,,,,,,,,,,,,5eed4cf07aa39616c79b7346,23,Kobieta,2022-06-11_09h27.05.868,task,2021.1.4,Win32,59.89458553,6299f149e92ead563fba08ef,62a442a920a8f585f2a4bc3c,,,,,,,,,,,,,,,,,,,,,,,,,,,,,,,,,,,,,,,,,,,,,,,,,,,,,,,,,,,,,,,,,,,,,,,,,,,,,,,,,,,,,,,,,,,,,0,,115,0,115,0,1,,
,,,,,,,,,,,,5eed4cf07aa39616c79b7346,23,Kobieta,2022-06-11_09h27.05.868,task,2021.1.4,Win32,59.89458553,6299f149e92ead563fba08ef,62a442a920a8f585f2a4bc3c,,,,,,,,,,,,,,,,,,,,,,,,,,,,,,,,,,,,,,,,,,,,,,,,,,,,,,,,,,,,,,,,,,,,,,,,,,,,,,,,,,,,,,,,,,,,"[""comma""]",0,[0.20480000007148647],116,0,116,0,1,,
,,,,,,,,,,,,5eed4cf07aa39616c79b7346,23,Kobieta,2022-06-11_09h27.05.868,task,2021.1.4,Win32,59.89458553,6299f149e92ead563fba08ef,62a442a920a8f585f2a4bc3c,,,,,,,,,,,,,,,,,,,,,,,,,,,,,,,,,,,,,,,,,,,,,,,,,,,,,,,,,,,,,,,,,,,,,,,,,,,,,,,,,,,,,,,,,,,,"[""period""]",0,[0.23950000000002092],117,0,117,0,1,,
,,,,,,,,,,,,5eed4cf07aa39616c79b7346,23,Kobieta,2022-06-11_09h27.05.868,task,2021.1.4,Win32,59.89458553,6299f149e92ead563fba08ef,62a442a920a8f585f2a4bc3c,,,,,,,,,,,,,,,,,,,,,,,,,,,,,,,,,,,,,,,,,,,,,,,,,,,,,,,,,,,,,,,,,,,,,,,,,,,,,,,,,,,,,,,,,,,,"[""comma""]",0,[0.2686000000238664],118,0,118,0,1,,
,,,,,,,,,,,,5eed4cf07aa39616c79b7346,23,Kobieta,2022-06-11_09h27.05.868,task,2021.1.4,Win32,59.89458553,6299f149e92ead563fba08ef,62a442a920a8f585f2a4bc3c,,,,,,,,,,,,,,,,,,,,,,,,,,,,,,,,,,,,,,,,,,,,,,,,,,,,,,,,,,,,,,,,,,,,,,,,,,,,,,,,,,,,,,,,,,,,"[""period""]",0,[0.08610000002386187],119,0,119,0,1,,
,,,,,,,,,,,,5eed4cf07aa39616c79b7346,23,Kobieta,2022-06-11_09h27.05.868,task,2021.1.4,Win32,59.89458553,6299f149e92ead563fba08ef,62a442a920a8f585f2a4bc3c,,,,,,,,,,,,,,,,,,,,,,,,,,,,,,,,,,,,,,,,,,,,,,,,,,,,,,,,,,,,,,,,,,,,,,,,,,,,,,,,,,,,,,,,,,,,,,,,,,,,space,2.1194
