key_resp_15.keys,key_resp_15.rt,key_resp_13.keys,key_resp_13.corr,key_resp_13.rt,ranodm_loop.thisRepN,ranodm_loop.thisTrialN,ranodm_loop.thisN,ranodm_loop.thisIndex,ranodm_loop.ran,participant,Wiek*,Płeć,date,expName,psychopyVersion,OS,frameRate,study_id,session,key_resp_16.keys,key_resp_16.rt,key_resp_4.keys,key_resp_4.rt,next_letter.thisRepN,next_letter.thisTrialN,next_letter.thisN,next_letter.thisIndex,next_letter.ran,letter,simple_recall,key_resp_5.keys,key_resp_5.rt,simple_recall_corr,simple_recall_corrkeys,next_level.thisRepN,next_level.thisTrialN,next_level.thisN,next_level.thisIndex,next_level.ran,key_resp_2.keys,key_resp_2.rt,digit_answer,key_resp.keys,key_resp.corr,key_resp.rt,RT_list,next_equation.thisRepN,next_equation.thisTrialN,next_equation.thisN,next_equation.thisIndex,next_equation.ran,Task,Trial,Problem,Operation_answer,processing_score,sumRT,meanRT,sumdiff,sd,RT,key_resp_3.keys,key_resp_3.rt,repeat_practice.thisRepN,repeat_practice.thisTrialN,repeat_practice.thisN,repeat_practice.thisIndex,repeat_practice.ran,key_resp_6.keys,key_resp_6.rt,key_resp_11.keys,key_resp_11.corr,key_resp_11.rt,operation_correct,repeat_if_wrong_prac.thisRepN,repeat_if_wrong_prac.thisTrialN,repeat_if_wrong_prac.thisN,repeat_if_wrong_prac.thisIndex,repeat_if_wrong_prac.ran,span_size_prac.thisRepN,span_size_prac.thisTrialN,span_size_prac.thisN,span_size_prac.thisIndex,span_size_prac.ran,complex_recall_practice,key_resp_9.keys,key_resp_9.corr,key_resp_9.rt,complex_prac_corr,span_recall_prac.thisRepN,span_recall_prac.thisTrialN,span_recall_prac.thisN,span_recall_prac.thisIndex,span_recall_prac.ran,key_resp_10.keys,key_resp_10.rt,key_resp_7.keys,key_resp_7.corr,key_resp_7.rt,repeat_if_wrong.thisRepN,repeat_if_wrong.thisTrialN,repeat_if_wrong.thisN,repeat_if_wrong.thisIndex,repeat_if_wrong.ran,span_size.thisRepN,span_size.thisTrialN,span_size.thisN,span_size.thisIndex,span_size.ran,complex_recall,key_resp_8.keys,key_resp_8.corr,key_resp_8.rt,complex_recall_corr,complex_recall_corrkeys,span_recall.thisRepN,span_recall.thisTrialN,span_recall.thisN,span_recall.thisIndex,span_recall.ran,key_resp_12.keys,key_resp_12.rt
space,20.0231,"[""comma""]",0,[1.1295999999046415],0,0,0,0,1,5ef05cee60a444581ce3d0dd,24,Mężczyzna,2022-06-04_08h32.59.862,task,2021.1.4,Win32,164.8804617,628b806c463b948bc644b84f,629af96b5b47ef4a7228d6e6,,,,,,,,,,,,,,,,,,,,,,,,,,,,,,,,,,,,,,,,,,,,,,,,,,,,,,,,,,,,,,,,,,,,,,,,,,,,,,,,,,,,,,,,,,,,,,,,,,,,,,,
,,"[""comma""]",0,[0.5435999999046288],1,0,1,0,1,5ef05cee60a444581ce3d0dd,24,Mężczyzna,2022-06-04_08h32.59.862,task,2021.1.4,Win32,164.8804617,628b806c463b948bc644b84f,629af96b5b47ef4a7228d6e6,,,,,,,,,,,,,,,,,,,,,,,,,,,,,,,,,,,,,,,,,,,,,,,,,,,,,,,,,,,,,,,,,,,,,,,,,,,,,,,,,,,,,,,,,,,,,,,,,,,,,,,
,,"[""period""]",0,[0.345400000095367],2,0,2,0,1,5ef05cee60a444581ce3d0dd,24,Mężczyzna,2022-06-04_08h32.59.862,task,2021.1.4,Win32,164.8804617,628b806c463b948bc644b84f,629af96b5b47ef4a7228d6e6,,,,,,,,,,,,,,,,,,,,,,,,,,,,,,,,,,,,,,,,,,,,,,,,,,,,,,,,,,,,,,,,,,,,,,,,,,,,,,,,,,,,,,,,,,,,,,,,,,,,,,,
,,"[""comma""]",0,[0.4179000000953721],3,0,3,0,1,5ef05cee60a444581ce3d0dd,24,Mężczyzna,2022-06-04_08h32.59.862,task,2021.1.4,Win32,164.8804617,628b806c463b948bc644b84f,629af96b5b47ef4a7228d6e6,,,,,,,,,,,,,,,,,,,,,,,,,,,,,,,,,,,,,,,,,,,,,,,,,,,,,,,,,,,,,,,,,,,,,,,,,,,,,,,,,,,,,,,,,,,,,,,,,,,,,,,
,,"[""comma""]",0,[0.30670000004768383],4,0,4,0,1,5ef05cee60a444581ce3d0dd,24,Mężczyzna,2022-06-04_08h32.59.862,task,2021.1.4,Win32,164.8804617,628b806c463b948bc644b84f,629af96b5b47ef4a7228d6e6,,,,,,,,,,,,,,,,,,,,,,,,,,,,,,,,,,,,,,,,,,,,,,,,,,,,,,,,,,,,,,,,,,,,,,,,,,,,,,,,,,,,,,,,,,,,,,,,,,,,,,,
,,"[""comma""]",0,[0.3312999999523214],5,0,5,0,1,5ef05cee60a444581ce3d0dd,24,Mężczyzna,2022-06-04_08h32.59.862,task,2021.1.4,Win32,164.8804617,628b806c463b948bc644b84f,629af96b5b47ef4a7228d6e6,,,,,,,,,,,,,,,,,,,,,,,,,,,,,,,,,,,,,,,,,,,,,,,,,,,,,,,,,,,,,,,,,,,,,,,,,,,,,,,,,,,,,,,,,,,,,,,,,,,,,,,
,,"[""comma""]",0,[0.2927000000476738],6,0,6,0,1,5ef05cee60a444581ce3d0dd,24,Mężczyzna,2022-06-04_08h32.59.862,task,2021.1.4,Win32,164.8804617,628b806c463b948bc644b84f,629af96b5b47ef4a7228d6e6,,,,,,,,,,,,,,,,,,,,,,,,,,,,,,,,,,,,,,,,,,,,,,,,,,,,,,,,,,,,,,,,,,,,,,,,,,,,,,,,,,,,,,,,,,,,,,,,,,,,,,,
,,"[""period""]",0,[0.32579999995230935],7,0,7,0,1,5ef05cee60a444581ce3d0dd,24,Mężczyzna,2022-06-04_08h32.59.862,task,2021.1.4,Win32,164.8804617,628b806c463b948bc644b84f,629af96b5b47ef4a7228d6e6,,,,,,,,,,,,,,,,,,,,,,,,,,,,,,,,,,,,,,,,,,,,,,,,,,,,,,,,,,,,,,,,,,,,,,,,,,,,,,,,,,,,,,,,,,,,,,,,,,,,,,,
,,"[""comma""]",0,[0.3519000000953696],8,0,8,0,1,5ef05cee60a444581ce3d0dd,24,Mężczyzna,2022-06-04_08h32.59.862,task,2021.1.4,Win32,164.8804617,628b806c463b948bc644b84f,629af96b5b47ef4a7228d6e6,,,,,,,,,,,,,,,,,,,,,,,,,,,,,,,,,,,,,,,,,,,,,,,,,,,,,,,,,,,,,,,,,,,,,,,,,,,,,,,,,,,,,,,,,,,,,,,,,,,,,,,
,,"[""period""]",0,[0.28779999995231265],9,0,9,0,1,5ef05cee60a444581ce3d0dd,24,Mężczyzna,2022-06-04_08h32.59.862,task,2021.1.4,Win32,164.8804617,628b806c463b948bc644b84f,629af96b5b47ef4a7228d6e6,,,,,,,,,,,,,,,,,,,,,,,,,,,,,,,,,,,,,,,,,,,,,,,,,,,,,,,,,,,,,,,,,,,,,,,,,,,,,,,,,,,,,,,,,,,,,,,,,,,,,,,
,,"[""comma""]",0,[0.4007000000476779],10,0,10,0,1,5ef05cee60a444581ce3d0dd,24,Mężczyzna,2022-06-04_08h32.59.862,task,2021.1.4,Win32,164.8804617,628b806c463b948bc644b84f,629af96b5b47ef4a7228d6e6,,,,,,,,,,,,,,,,,,,,,,,,,,,,,,,,,,,,,,,,,,,,,,,,,,,,,,,,,,,,,,,,,,,,,,,,,,,,,,,,,,,,,,,,,,,,,,,,,,,,,,,
,,"[""period""]",0,[0.24890000009536095],11,0,11,0,1,5ef05cee60a444581ce3d0dd,24,Mężczyzna,2022-06-04_08h32.59.862,task,2021.1.4,Win32,164.8804617,628b806c463b948bc644b84f,629af96b5b47ef4a7228d6e6,,,,,,,,,,,,,,,,,,,,,,,,,,,,,,,,,,,,,,,,,,,,,,,,,,,,,,,,,,,,,,,,,,,,,,,,,,,,,,,,,,,,,,,,,,,,,,,,,,,,,,,
,,"[""period""]",0,[0.24259999990462688],12,0,12,0,1,5ef05cee60a444581ce3d0dd,24,Mężczyzna,2022-06-04_08h32.59.862,task,2021.1.4,Win32,164.8804617,628b806c463b948bc644b84f,629af96b5b47ef4a7228d6e6,,,,,,,,,,,,,,,,,,,,,,,,,,,,,,,,,,,,,,,,,,,,,,,,,,,,,,,,,,,,,,,,,,,,,,,,,,,,,,,,,,,,,,,,,,,,,,,,,,,,,,,
,,"[""period"",""comma""]",0,"[0.03559999990463325,1.9875999999046314]",13,0,13,0,1,5ef05cee60a444581ce3d0dd,24,Mężczyzna,2022-06-04_08h32.59.862,task,2021.1.4,Win32,164.8804617,628b806c463b948bc644b84f,629af96b5b47ef4a7228d6e6,,,,,,,,,,,,,,,,,,,,,,,,,,,,,,,,,,,,,,,,,,,,,,,,,,,,,,,,,,,,,,,,,,,,,,,,,,,,,,,,,,,,,,,,,,,,,,,,,,,,,,,
,,"[""comma""]",0,[1.9002000000476897],14,0,14,0,1,5ef05cee60a444581ce3d0dd,24,Mężczyzna,2022-06-04_08h32.59.862,task,2021.1.4,Win32,164.8804617,628b806c463b948bc644b84f,629af96b5b47ef4a7228d6e6,,,,,,,,,,,,,,,,,,,,,,,,,,,,,,,,,,,,,,,,,,,,,,,,,,,,,,,,,,,,,,,,,,,,,,,,,,,,,,,,,,,,,,,,,,,,,,,,,,,,,,,
,,,0,,15,0,15,0,1,5ef05cee60a444581ce3d0dd,24,Mężczyzna,2022-06-04_08h32.59.862,task,2021.1.4,Win32,164.8804617,628b806c463b948bc644b84f,629af96b5b47ef4a7228d6e6,,,,,,,,,,,,,,,,,,,,,,,,,,,,,,,,,,,,,,,,,,,,,,,,,,,,,,,,,,,,,,,,,,,,,,,,,,,,,,,,,,,,,,,,,,,,,,,,,,,,,,,
,,"[""period""]",0,[0.42240000009536516],16,0,16,0,1,5ef05cee60a444581ce3d0dd,24,Mężczyzna,2022-06-04_08h32.59.862,task,2021.1.4,Win32,164.8804617,628b806c463b948bc644b84f,629af96b5b47ef4a7228d6e6,,,,,,,,,,,,,,,,,,,,,,,,,,,,,,,,,,,,,,,,,,,,,,,,,,,,,,,,,,,,,,,,,,,,,,,,,,,,,,,,,,,,,,,,,,,,,,,,,,,,,,,
,,"[""comma""]",0,[0.3514000000953672],17,0,17,0,1,5ef05cee60a444581ce3d0dd,24,Mężczyzna,2022-06-04_08h32.59.862,task,2021.1.4,Win32,164.8804617,628b806c463b948bc644b84f,629af96b5b47ef4a7228d6e6,,,,,,,,,,,,,,,,,,,,,,,,,,,,,,,,,,,,,,,,,,,,,,,,,,,,,,,,,,,,,,,,,,,,,,,,,,,,,,,,,,,,,,,,,,,,,,,,,,,,,,,
,,"[""period""]",0,[0.2801000001430509],18,0,18,0,1,5ef05cee60a444581ce3d0dd,24,Mężczyzna,2022-06-04_08h32.59.862,task,2021.1.4,Win32,164.8804617,628b806c463b948bc644b84f,629af96b5b47ef4a7228d6e6,,,,,,,,,,,,,,,,,,,,,,,,,,,,,,,,,,,,,,,,,,,,,,,,,,,,,,,,,,,,,,,,,,,,,,,,,,,,,,,,,,,,,,,,,,,,,,,,,,,,,,,
,,"[""comma""]",0,[0.40890000009535754],19,0,19,0,1,5ef05cee60a444581ce3d0dd,24,Mężczyzna,2022-06-04_08h32.59.862,task,2021.1.4,Win32,164.8804617,628b806c463b948bc644b84f,629af96b5b47ef4a7228d6e6,,,,,,,,,,,,,,,,,,,,,,,,,,,,,,,,,,,,,,,,,,,,,,,,,,,,,,,,,,,,,,,,,,,,,,,,,,,,,,,,,,,,,,,,,,,,,,,,,,,,,,,
,,"[""comma""]",0,[0.20199999999999818],20,0,20,0,1,5ef05cee60a444581ce3d0dd,24,Mężczyzna,2022-06-04_08h32.59.862,task,2021.1.4,Win32,164.8804617,628b806c463b948bc644b84f,629af96b5b47ef4a7228d6e6,,,,,,,,,,,,,,,,,,,,,,,,,,,,,,,,,,,,,,,,,,,,,,,,,,,,,,,,,,,,,,,,,,,,,,,,,,,,,,,,,,,,,,,,,,,,,,,,,,,,,,,
,,"[""comma""]",0,[0.3230999999046418],21,0,21,0,1,5ef05cee60a444581ce3d0dd,24,Mężczyzna,2022-06-04_08h32.59.862,task,2021.1.4,Win32,164.8804617,628b806c463b948bc644b84f,629af96b5b47ef4a7228d6e6,,,,,,,,,,,,,,,,,,,,,,,,,,,,,,,,,,,,,,,,,,,,,,,,,,,,,,,,,,,,,,,,,,,,,,,,,,,,,,,,,,,,,,,,,,,,,,,,,,,,,,,
,,"[""comma""]",0,[0.2762000000476803],22,0,22,0,1,5ef05cee60a444581ce3d0dd,24,Mężczyzna,2022-06-04_08h32.59.862,task,2021.1.4,Win32,164.8804617,628b806c463b948bc644b84f,629af96b5b47ef4a7228d6e6,,,,,,,,,,,,,,,,,,,,,,,,,,,,,,,,,,,,,,,,,,,,,,,,,,,,,,,,,,,,,,,,,,,,,,,,,,,,,,,,,,,,,,,,,,,,,,,,,,,,,,,
,,"[""comma""]",0,[0.3091000001430473],23,0,23,0,1,5ef05cee60a444581ce3d0dd,24,Mężczyzna,2022-06-04_08h32.59.862,task,2021.1.4,Win32,164.8804617,628b806c463b948bc644b84f,629af96b5b47ef4a7228d6e6,,,,,,,,,,,,,,,,,,,,,,,,,,,,,,,,,,,,,,,,,,,,,,,,,,,,,,,,,,,,,,,,,,,,,,,,,,,,,,,,,,,,,,,,,,,,,,,,,,,,,,,
,,"[""period""]",0,[0.3018999998569569],24,0,24,0,1,5ef05cee60a444581ce3d0dd,24,Mężczyzna,2022-06-04_08h32.59.862,task,2021.1.4,Win32,164.8804617,628b806c463b948bc644b84f,629af96b5b47ef4a7228d6e6,,,,,,,,,,,,,,,,,,,,,,,,,,,,,,,,,,,,,,,,,,,,,,,,,,,,,,,,,,,,,,,,,,,,,,,,,,,,,,,,,,,,,,,,,,,,,,,,,,,,,,,
,,"[""comma""]",0,[0.29490000009536743],25,0,25,0,1,5ef05cee60a444581ce3d0dd,24,Mężczyzna,2022-06-04_08h32.59.862,task,2021.1.4,Win32,164.8804617,628b806c463b948bc644b84f,629af96b5b47ef4a7228d6e6,,,,,,,,,,,,,,,,,,,,,,,,,,,,,,,,,,,,,,,,,,,,,,,,,,,,,,,,,,,,,,,,,,,,,,,,,,,,,,,,,,,,,,,,,,,,,,,,,,,,,,,
,,"[""period""]",0,[0.24809999990463893],26,0,26,0,1,5ef05cee60a444581ce3d0dd,24,Mężczyzna,2022-06-04_08h32.59.862,task,2021.1.4,Win32,164.8804617,628b806c463b948bc644b84f,629af96b5b47ef4a7228d6e6,,,,,,,,,,,,,,,,,,,,,,,,,,,,,,,,,,,,,,,,,,,,,,,,,,,,,,,,,,,,,,,,,,,,,,,,,,,,,,,,,,,,,,,,,,,,,,,,,,,,,,,
,,"[""period""]",0,[0.08079999995231901],27,0,27,0,1,5ef05cee60a444581ce3d0dd,24,Mężczyzna,2022-06-04_08h32.59.862,task,2021.1.4,Win32,164.8804617,628b806c463b948bc644b84f,629af96b5b47ef4a7228d6e6,,,,,,,,,,,,,,,,,,,,,,,,,,,,,,,,,,,,,,,,,,,,,,,,,,,,,,,,,,,,,,,,,,,,,,,,,,,,,,,,,,,,,,,,,,,,,,,,,,,,,,,
,,"[""period""]",0,[0.29779999995230355],28,0,28,0,1,5ef05cee60a444581ce3d0dd,24,Mężczyzna,2022-06-04_08h32.59.862,task,2021.1.4,Win32,164.8804617,628b806c463b948bc644b84f,629af96b5b47ef4a7228d6e6,,,,,,,,,,,,,,,,,,,,,,,,,,,,,,,,,,,,,,,,,,,,,,,,,,,,,,,,,,,,,,,,,,,,,,,,,,,,,,,,,,,,,,,,,,,,,,,,,,,,,,,
,,"[""comma""]",0,[0.01070000004767735],29,0,29,0,1,5ef05cee60a444581ce3d0dd,24,Mężczyzna,2022-06-04_08h32.59.862,task,2021.1.4,Win32,164.8804617,628b806c463b948bc644b84f,629af96b5b47ef4a7228d6e6,,,,,,,,,,,,,,,,,,,,,,,,,,,,,,,,,,,,,,,,,,,,,,,,,,,,,,,,,,,,,,,,,,,,,,,,,,,,,,,,,,,,,,,,,,,,,,,,,,,,,,,
,,"[""comma""]",0,[0.3237000000476655],30,0,30,0,1,5ef05cee60a444581ce3d0dd,24,Mężczyzna,2022-06-04_08h32.59.862,task,2021.1.4,Win32,164.8804617,628b806c463b948bc644b84f,629af96b5b47ef4a7228d6e6,,,,,,,,,,,,,,,,,,,,,,,,,,,,,,,,,,,,,,,,,,,,,,,,,,,,,,,,,,,,,,,,,,,,,,,,,,,,,,,,,,,,,,,,,,,,,,,,,,,,,,,
,,"[""period""]",0,[0.5082999999522997],31,0,31,0,1,5ef05cee60a444581ce3d0dd,24,Mężczyzna,2022-06-04_08h32.59.862,task,2021.1.4,Win32,164.8804617,628b806c463b948bc644b84f,629af96b5b47ef4a7228d6e6,,,,,,,,,,,,,,,,,,,,,,,,,,,,,,,,,,,,,,,,,,,,,,,,,,,,,,,,,,,,,,,,,,,,,,,,,,,,,,,,,,,,,,,,,,,,,,,,,,,,,,,
,,"[""comma""]",0,[0.5656000001430641],32,0,32,0,1,5ef05cee60a444581ce3d0dd,24,Mężczyzna,2022-06-04_08h32.59.862,task,2021.1.4,Win32,164.8804617,628b806c463b948bc644b84f,629af96b5b47ef4a7228d6e6,,,,,,,,,,,,,,,,,,,,,,,,,,,,,,,,,,,,,,,,,,,,,,,,,,,,,,,,,,,,,,,,,,,,,,,,,,,,,,,,,,,,,,,,,,,,,,,,,,,,,,,
,,"[""comma""]",0,[0.7530999999046344],33,0,33,0,1,5ef05cee60a444581ce3d0dd,24,Mężczyzna,2022-06-04_08h32.59.862,task,2021.1.4,Win32,164.8804617,628b806c463b948bc644b84f,629af96b5b47ef4a7228d6e6,,,,,,,,,,,,,,,,,,,,,,,,,,,,,,,,,,,,,,,,,,,,,,,,,,,,,,,,,,,,,,,,,,,,,,,,,,,,,,,,,,,,,,,,,,,,,,,,,,,,,,,
,,"[""period""]",0,[0.9754999999999825],34,0,34,0,1,5ef05cee60a444581ce3d0dd,24,Mężczyzna,2022-06-04_08h32.59.862,task,2021.1.4,Win32,164.8804617,628b806c463b948bc644b84f,629af96b5b47ef4a7228d6e6,,,,,,,,,,,,,,,,,,,,,,,,,,,,,,,,,,,,,,,,,,,,,,,,,,,,,,,,,,,,,,,,,,,,,,,,,,,,,,,,,,,,,,,,,,,,,,,,,,,,,,,
,,"[""comma""]",0,[0.7363999998569568],35,0,35,0,1,5ef05cee60a444581ce3d0dd,24,Mężczyzna,2022-06-04_08h32.59.862,task,2021.1.4,Win32,164.8804617,628b806c463b948bc644b84f,629af96b5b47ef4a7228d6e6,,,,,,,,,,,,,,,,,,,,,,,,,,,,,,,,,,,,,,,,,,,,,,,,,,,,,,,,,,,,,,,,,,,,,,,,,,,,,,,,,,,,,,,,,,,,,,,,,,,,,,,
,,"[""period""]",0,[0.642400000095364],36,0,36,0,1,5ef05cee60a444581ce3d0dd,24,Mężczyzna,2022-06-04_08h32.59.862,task,2021.1.4,Win32,164.8804617,628b806c463b948bc644b84f,629af96b5b47ef4a7228d6e6,,,,,,,,,,,,,,,,,,,,,,,,,,,,,,,,,,,,,,,,,,,,,,,,,,,,,,,,,,,,,,,,,,,,,,,,,,,,,,,,,,,,,,,,,,,,,,,,,,,,,,,
,,"[""period""]",0,[0.3064999999999998],37,0,37,0,1,5ef05cee60a444581ce3d0dd,24,Mężczyzna,2022-06-04_08h32.59.862,task,2021.1.4,Win32,164.8804617,628b806c463b948bc644b84f,629af96b5b47ef4a7228d6e6,,,,,,,,,,,,,,,,,,,,,,,,,,,,,,,,,,,,,,,,,,,,,,,,,,,,,,,,,,,,,,,,,,,,,,,,,,,,,,,,,,,,,,,,,,,,,,,,,,,,,,,
,,"[""period""]",0,[0.25120000004770304],38,0,38,0,1,5ef05cee60a444581ce3d0dd,24,Mężczyzna,2022-06-04_08h32.59.862,task,2021.1.4,Win32,164.8804617,628b806c463b948bc644b84f,629af96b5b47ef4a7228d6e6,,,,,,,,,,,,,,,,,,,,,,,,,,,,,,,,,,,,,,,,,,,,,,,,,,,,,,,,,,,,,,,,,,,,,,,,,,,,,,,,,,,,,,,,,,,,,,,,,,,,,,,
,,"[""comma""]",0,[0.2609999999999957],39,0,39,0,1,5ef05cee60a444581ce3d0dd,24,Mężczyzna,2022-06-04_08h32.59.862,task,2021.1.4,Win32,164.8804617,628b806c463b948bc644b84f,629af96b5b47ef4a7228d6e6,,,,,,,,,,,,,,,,,,,,,,,,,,,,,,,,,,,,,,,,,,,,,,,,,,,,,,,,,,,,,,,,,,,,,,,,,,,,,,,,,,,,,,,,,,,,,,,,,,,,,,,
,,"[""period""]",0,[0.34159999990464485],40,0,40,0,1,5ef05cee60a444581ce3d0dd,24,Mężczyzna,2022-06-04_08h32.59.862,task,2021.1.4,Win32,164.8804617,628b806c463b948bc644b84f,629af96b5b47ef4a7228d6e6,,,,,,,,,,,,,,,,,,,,,,,,,,,,,,,,,,,,,,,,,,,,,,,,,,,,,,,,,,,,,,,,,,,,,,,,,,,,,,,,,,,,,,,,,,,,,,,,,,,,,,,
,,"[""period""]",0,[0.39050000000000296],41,0,41,0,1,5ef05cee60a444581ce3d0dd,24,Mężczyzna,2022-06-04_08h32.59.862,task,2021.1.4,Win32,164.8804617,628b806c463b948bc644b84f,629af96b5b47ef4a7228d6e6,,,,,,,,,,,,,,,,,,,,,,,,,,,,,,,,,,,,,,,,,,,,,,,,,,,,,,,,,,,,,,,,,,,,,,,,,,,,,,,,,,,,,,,,,,,,,,,,,,,,,,,
,,"[""comma""]",0,[0.2633999998569436],42,0,42,0,1,5ef05cee60a444581ce3d0dd,24,Mężczyzna,2022-06-04_08h32.59.862,task,2021.1.4,Win32,164.8804617,628b806c463b948bc644b84f,629af96b5b47ef4a7228d6e6,,,,,,,,,,,,,,,,,,,,,,,,,,,,,,,,,,,,,,,,,,,,,,,,,,,,,,,,,,,,,,,,,,,,,,,,,,,,,,,,,,,,,,,,,,,,,,,,,,,,,,,
,,"[""comma"",""comma""]",0,"[0.2967000000476787,1.8402999999523217]",43,0,43,0,1,5ef05cee60a444581ce3d0dd,24,Mężczyzna,2022-06-04_08h32.59.862,task,2021.1.4,Win32,164.8804617,628b806c463b948bc644b84f,629af96b5b47ef4a7228d6e6,,,,,,,,,,,,,,,,,,,,,,,,,,,,,,,,,,,,,,,,,,,,,,,,,,,,,,,,,,,,,,,,,,,,,,,,,,,,,,,,,,,,,,,,,,,,,,,,,,,,,,,
,,,0,,44,0,44,0,1,5ef05cee60a444581ce3d0dd,24,Mężczyzna,2022-06-04_08h32.59.862,task,2021.1.4,Win32,164.8804617,628b806c463b948bc644b84f,629af96b5b47ef4a7228d6e6,,,,,,,,,,,,,,,,,,,,,,,,,,,,,,,,,,,,,,,,,,,,,,,,,,,,,,,,,,,,,,,,,,,,,,,,,,,,,,,,,,,,,,,,,,,,,,,,,,,,,,,
,,"[""period""]",0,[0.2504000000953681],45,0,45,0,1,5ef05cee60a444581ce3d0dd,24,Mężczyzna,2022-06-04_08h32.59.862,task,2021.1.4,Win32,164.8804617,628b806c463b948bc644b84f,629af96b5b47ef4a7228d6e6,,,,,,,,,,,,,,,,,,,,,,,,,,,,,,,,,,,,,,,,,,,,,,,,,,,,,,,,,,,,,,,,,,,,,,,,,,,,,,,,,,,,,,,,,,,,,,,,,,,,,,,
,,"[""comma""]",0,[0.2988999998569284],46,0,46,0,1,5ef05cee60a444581ce3d0dd,24,Mężczyzna,2022-06-04_08h32.59.862,task,2021.1.4,Win32,164.8804617,628b806c463b948bc644b84f,629af96b5b47ef4a7228d6e6,,,,,,,,,,,,,,,,,,,,,,,,,,,,,,,,,,,,,,,,,,,,,,,,,,,,,,,,,,,,,,,,,,,,,,,,,,,,,,,,,,,,,,,,,,,,,,,,,,,,,,,
,,"[""comma""]",0,[0.2120000000000175],47,0,47,0,1,5ef05cee60a444581ce3d0dd,24,Mężczyzna,2022-06-04_08h32.59.862,task,2021.1.4,Win32,164.8804617,628b806c463b948bc644b84f,629af96b5b47ef4a7228d6e6,,,,,,,,,,,,,,,,,,,,,,,,,,,,,,,,,,,,,,,,,,,,,,,,,,,,,,,,,,,,,,,,,,,,,,,,,,,,,,,,,,,,,,,,,,,,,,,,,,,,,,,
,,"[""period""]",0,[0.45299999999997453],48,0,48,0,1,5ef05cee60a444581ce3d0dd,24,Mężczyzna,2022-06-04_08h32.59.862,task,2021.1.4,Win32,164.8804617,628b806c463b948bc644b84f,629af96b5b47ef4a7228d6e6,,,,,,,,,,,,,,,,,,,,,,,,,,,,,,,,,,,,,,,,,,,,,,,,,,,,,,,,,,,,,,,,,,,,,,,,,,,,,,,,,,,,,,,,,,,,,,,,,,,,,,,
,,"[""period""]",0,[0.4544999999999959],49,0,49,0,1,5ef05cee60a444581ce3d0dd,24,Mężczyzna,2022-06-04_08h32.59.862,task,2021.1.4,Win32,164.8804617,628b806c463b948bc644b84f,629af96b5b47ef4a7228d6e6,,,,,,,,,,,,,,,,,,,,,,,,,,,,,,,,,,,,,,,,,,,,,,,,,,,,,,,,,,,,,,,,,,,,,,,,,,,,,,,,,,,,,,,,,,,,,,,,,,,,,,,
,,"[""period""]",0,[0.3269999999999982],50,0,50,0,1,5ef05cee60a444581ce3d0dd,24,Mężczyzna,2022-06-04_08h32.59.862,task,2021.1.4,Win32,164.8804617,628b806c463b948bc644b84f,629af96b5b47ef4a7228d6e6,,,,,,,,,,,,,,,,,,,,,,,,,,,,,,,,,,,,,,,,,,,,,,,,,,,,,,,,,,,,,,,,,,,,,,,,,,,,,,,,,,,,,,,,,,,,,,,,,,,,,,,
,,"[""comma""]",0,[0.5678999998569623],51,0,51,0,1,5ef05cee60a444581ce3d0dd,24,Mężczyzna,2022-06-04_08h32.59.862,task,2021.1.4,Win32,164.8804617,628b806c463b948bc644b84f,629af96b5b47ef4a7228d6e6,,,,,,,,,,,,,,,,,,,,,,,,,,,,,,,,,,,,,,,,,,,,,,,,,,,,,,,,,,,,,,,,,,,,,,,,,,,,,,,,,,,,,,,,,,,,,,,,,,,,,,,
,,"[""comma""]",0,[0.3934000000953688],52,0,52,0,1,5ef05cee60a444581ce3d0dd,24,Mężczyzna,2022-06-04_08h32.59.862,task,2021.1.4,Win32,164.8804617,628b806c463b948bc644b84f,629af96b5b47ef4a7228d6e6,,,,,,,,,,,,,,,,,,,,,,,,,,,,,,,,,,,,,,,,,,,,,,,,,,,,,,,,,,,,,,,,,,,,,,,,,,,,,,,,,,,,,,,,,,,,,,,,,,,,,,,
,,"[""period""]",0,[0.4497999999523188],53,0,53,0,1,5ef05cee60a444581ce3d0dd,24,Mężczyzna,2022-06-04_08h32.59.862,task,2021.1.4,Win32,164.8804617,628b806c463b948bc644b84f,629af96b5b47ef4a7228d6e6,,,,,,,,,,,,,,,,,,,,,,,,,,,,,,,,,,,,,,,,,,,,,,,,,,,,,,,,,,,,,,,,,,,,,,,,,,,,,,,,,,,,,,,,,,,,,,,,,,,,,,,
,,"[""period""]",0,[0.4831000001430539],54,0,54,0,1,5ef05cee60a444581ce3d0dd,24,Mężczyzna,2022-06-04_08h32.59.862,task,2021.1.4,Win32,164.8804617,628b806c463b948bc644b84f,629af96b5b47ef4a7228d6e6,,,,,,,,,,,,,,,,,,,,,,,,,,,,,,,,,,,,,,,,,,,,,,,,,,,,,,,,,,,,,,,,,,,,,,,,,,,,,,,,,,,,,,,,,,,,,,,,,,,,,,,
,,"[""period""]",0,[0.3959000000953665],55,0,55,0,1,5ef05cee60a444581ce3d0dd,24,Mężczyzna,2022-06-04_08h32.59.862,task,2021.1.4,Win32,164.8804617,628b806c463b948bc644b84f,629af96b5b47ef4a7228d6e6,,,,,,,,,,,,,,,,,,,,,,,,,,,,,,,,,,,,,,,,,,,,,,,,,,,,,,,,,,,,,,,,,,,,,,,,,,,,,,,,,,,,,,,,,,,,,,,,,,,,,,,
,,"[""comma""]",0,[0.36469999980928947],56,0,56,0,1,5ef05cee60a444581ce3d0dd,24,Mężczyzna,2022-06-04_08h32.59.862,task,2021.1.4,Win32,164.8804617,628b806c463b948bc644b84f,629af96b5b47ef4a7228d6e6,,,,,,,,,,,,,,,,,,,,,,,,,,,,,,,,,,,,,,,,,,,,,,,,,,,,,,,,,,,,,,,,,,,,,,,,,,,,,,,,,,,,,,,,,,,,,,,,,,,,,,,
,,"[""comma""]",0,[0.30959999990463416],57,0,57,0,1,5ef05cee60a444581ce3d0dd,24,Mężczyzna,2022-06-04_08h32.59.862,task,2021.1.4,Win32,164.8804617,628b806c463b948bc644b84f,629af96b5b47ef4a7228d6e6,,,,,,,,,,,,,,,,,,,,,,,,,,,,,,,,,,,,,,,,,,,,,,,,,,,,,,,,,,,,,,,,,,,,,,,,,,,,,,,,,,,,,,,,,,,,,,,,,,,,,,,
,,"[""comma""]",0,[0.5756999998092454],58,0,58,0,1,5ef05cee60a444581ce3d0dd,24,Mężczyzna,2022-06-04_08h32.59.862,task,2021.1.4,Win32,164.8804617,628b806c463b948bc644b84f,629af96b5b47ef4a7228d6e6,,,,,,,,,,,,,,,,,,,,,,,,,,,,,,,,,,,,,,,,,,,,,,,,,,,,,,,,,,,,,,,,,,,,,,,,,,,,,,,,,,,,,,,,,,,,,,,,,,,,,,,
,,"[""comma""]",0,[0.5116999998092524],59,0,59,0,1,5ef05cee60a444581ce3d0dd,24,Mężczyzna,2022-06-04_08h32.59.862,task,2021.1.4,Win32,164.8804617,628b806c463b948bc644b84f,629af96b5b47ef4a7228d6e6,,,,,,,,,,,,,,,,,,,,,,,,,,,,,,,,,,,,,,,,,,,,,,,,,,,,,,,,,,,,,,,,,,,,,,,,,,,,,,,,,,,,,,,,,,,,,,,,,,,,,,,
,,"[""period""]",0,[0.4645999999046069],60,0,60,0,1,5ef05cee60a444581ce3d0dd,24,Mężczyzna,2022-06-04_08h32.59.862,task,2021.1.4,Win32,164.8804617,628b806c463b948bc644b84f,629af96b5b47ef4a7228d6e6,,,,,,,,,,,,,,,,,,,,,,,,,,,,,,,,,,,,,,,,,,,,,,,,,,,,,,,,,,,,,,,,,,,,,,,,,,,,,,,,,,,,,,,,,,,,,,,,,,,,,,,
,,"[""period""]",0,[0.3774999999999977],61,0,61,0,1,5ef05cee60a444581ce3d0dd,24,Mężczyzna,2022-06-04_08h32.59.862,task,2021.1.4,Win32,164.8804617,628b806c463b948bc644b84f,629af96b5b47ef4a7228d6e6,,,,,,,,,,,,,,,,,,,,,,,,,,,,,,,,,,,,,,,,,,,,,,,,,,,,,,,,,,,,,,,,,,,,,,,,,,,,,,,,,,,,,,,,,,,,,,,,,,,,,,,
,,"[""comma""]",0,[0.3147000000476794],62,0,62,0,1,5ef05cee60a444581ce3d0dd,24,Mężczyzna,2022-06-04_08h32.59.862,task,2021.1.4,Win32,164.8804617,628b806c463b948bc644b84f,629af96b5b47ef4a7228d6e6,,,,,,,,,,,,,,,,,,,,,,,,,,,,,,,,,,,,,,,,,,,,,,,,,,,,,,,,,,,,,,,,,,,,,,,,,,,,,,,,,,,,,,,,,,,,,,,,,,,,,,,
,,"[""period""]",0,[0.19540000009538971],63,0,63,0,1,5ef05cee60a444581ce3d0dd,24,Mężczyzna,2022-06-04_08h32.59.862,task,2021.1.4,Win32,164.8804617,628b806c463b948bc644b84f,629af96b5b47ef4a7228d6e6,,,,,,,,,,,,,,,,,,,,,,,,,,,,,,,,,,,,,,,,,,,,,,,,,,,,,,,,,,,,,,,,,,,,,,,,,,,,,,,,,,,,,,,,,,,,,,,,,,,,,,,
,,"[""comma""]",0,[0.3086000001430307],64,0,64,0,1,5ef05cee60a444581ce3d0dd,24,Mężczyzna,2022-06-04_08h32.59.862,task,2021.1.4,Win32,164.8804617,628b806c463b948bc644b84f,629af96b5b47ef4a7228d6e6,,,,,,,,,,,,,,,,,,,,,,,,,,,,,,,,,,,,,,,,,,,,,,,,,,,,,,,,,,,,,,,,,,,,,,,,,,,,,,,,,,,,,,,,,,,,,,,,,,,,,,,
,,"[""period""]",0,[0.757600000143043],65,0,65,0,1,5ef05cee60a444581ce3d0dd,24,Mężczyzna,2022-06-04_08h32.59.862,task,2021.1.4,Win32,164.8804617,628b806c463b948bc644b84f,629af96b5b47ef4a7228d6e6,,,,,,,,,,,,,,,,,,,,,,,,,,,,,,,,,,,,,,,,,,,,,,,,,,,,,,,,,,,,,,,,,,,,,,,,,,,,,,,,,,,,,,,,,,,,,,,,,,,,,,,
,,"[""comma""]",0,[0.406400000095374],66,0,66,0,1,5ef05cee60a444581ce3d0dd,24,Mężczyzna,2022-06-04_08h32.59.862,task,2021.1.4,Win32,164.8804617,628b806c463b948bc644b84f,629af96b5b47ef4a7228d6e6,,,,,,,,,,,,,,,,,,,,,,,,,,,,,,,,,,,,,,,,,,,,,,,,,,,,,,,,,,,,,,,,,,,,,,,,,,,,,,,,,,,,,,,,,,,,,,,,,,,,,,,
,,"[""period""]",0,[0.43950000000000955],67,0,67,0,1,5ef05cee60a444581ce3d0dd,24,Mężczyzna,2022-06-04_08h32.59.862,task,2021.1.4,Win32,164.8804617,628b806c463b948bc644b84f,629af96b5b47ef4a7228d6e6,,,,,,,,,,,,,,,,,,,,,,,,,,,,,,,,,,,,,,,,,,,,,,,,,,,,,,,,,,,,,,,,,,,,,,,,,,,,,,,,,,,,,,,,,,,,,,,,,,,,,,,
,,"[""period""]",0,[0.19249999999999545],68,0,68,0,1,5ef05cee60a444581ce3d0dd,24,Mężczyzna,2022-06-04_08h32.59.862,task,2021.1.4,Win32,164.8804617,628b806c463b948bc644b84f,629af96b5b47ef4a7228d6e6,,,,,,,,,,,,,,,,,,,,,,,,,,,,,,,,,,,,,,,,,,,,,,,,,,,,,,,,,,,,,,,,,,,,,,,,,,,,,,,,,,,,,,,,,,,,,,,,,,,,,,,
,,"[""period""]",0,[0.46520000004767326],69,0,69,0,1,5ef05cee60a444581ce3d0dd,24,Mężczyzna,2022-06-04_08h32.59.862,task,2021.1.4,Win32,164.8804617,628b806c463b948bc644b84f,629af96b5b47ef4a7228d6e6,,,,,,,,,,,,,,,,,,,,,,,,,,,,,,,,,,,,,,,,,,,,,,,,,,,,,,,,,,,,,,,,,,,,,,,,,,,,,,,,,,,,,,,,,,,,,,,,,,,,,,,
,,"[""comma""]",0,[0.5062000000476701],70,0,70,0,1,5ef05cee60a444581ce3d0dd,24,Mężczyzna,2022-06-04_08h32.59.862,task,2021.1.4,Win32,164.8804617,628b806c463b948bc644b84f,629af96b5b47ef4a7228d6e6,,,,,,,,,,,,,,,,,,,,,,,,,,,,,,,,,,,,,,,,,,,,,,,,,,,,,,,,,,,,,,,,,,,,,,,,,,,,,,,,,,,,,,,,,,,,,,,,,,,,,,,
,,"[""comma""]",0,[0.5473999998569354],71,0,71,0,1,5ef05cee60a444581ce3d0dd,24,Mężczyzna,2022-06-04_08h32.59.862,task,2021.1.4,Win32,164.8804617,628b806c463b948bc644b84f,629af96b5b47ef4a7228d6e6,,,,,,,,,,,,,,,,,,,,,,,,,,,,,,,,,,,,,,,,,,,,,,,,,,,,,,,,,,,,,,,,,,,,,,,,,,,,,,,,,,,,,,,,,,,,,,,,,,,,,,,
,,"[""comma""]",0,[0.5721000001430525],72,0,72,0,1,5ef05cee60a444581ce3d0dd,24,Mężczyzna,2022-06-04_08h32.59.862,task,2021.1.4,Win32,164.8804617,628b806c463b948bc644b84f,629af96b5b47ef4a7228d6e6,,,,,,,,,,,,,,,,,,,,,,,,,,,,,,,,,,,,,,,,,,,,,,,,,,,,,,,,,,,,,,,,,,,,,,,,,,,,,,,,,,,,,,,,,,,,,,,,,,,,,,,
,,"[""period""]",0,[0.44549999999998136],73,0,73,0,1,5ef05cee60a444581ce3d0dd,24,Mężczyzna,2022-06-04_08h32.59.862,task,2021.1.4,Win32,164.8804617,628b806c463b948bc644b84f,629af96b5b47ef4a7228d6e6,,,,,,,,,,,,,,,,,,,,,,,,,,,,,,,,,,,,,,,,,,,,,,,,,,,,,,,,,,,,,,,,,,,,,,,,,,,,,,,,,,,,,,,,,,,,,,,,,,,,,,,
,,"[""comma""]",0,[0.8704000000953727],74,0,74,0,1,5ef05cee60a444581ce3d0dd,24,Mężczyzna,2022-06-04_08h32.59.862,task,2021.1.4,Win32,164.8804617,628b806c463b948bc644b84f,629af96b5b47ef4a7228d6e6,,,,,,,,,,,,,,,,,,,,,,,,,,,,,,,,,,,,,,,,,,,,,,,,,,,,,,,,,,,,,,,,,,,,,,,,,,,,,,,,,,,,,,,,,,,,,,,,,,,,,,,
,,"[""period""]",0,[0.5504999999999995],75,0,75,0,1,5ef05cee60a444581ce3d0dd,24,Mężczyzna,2022-06-04_08h32.59.862,task,2021.1.4,Win32,164.8804617,628b806c463b948bc644b84f,629af96b5b47ef4a7228d6e6,,,,,,,,,,,,,,,,,,,,,,,,,,,,,,,,,,,,,,,,,,,,,,,,,,,,,,,,,,,,,,,,,,,,,,,,,,,,,,,,,,,,,,,,,,,,,,,,,,,,,,,
,,"[""comma""]",0,[0.4242999999522965],76,0,76,0,1,5ef05cee60a444581ce3d0dd,24,Mężczyzna,2022-06-04_08h32.59.862,task,2021.1.4,Win32,164.8804617,628b806c463b948bc644b84f,629af96b5b47ef4a7228d6e6,,,,,,,,,,,,,,,,,,,,,,,,,,,,,,,,,,,,,,,,,,,,,,,,,,,,,,,,,,,,,,,,,,,,,,,,,,,,,,,,,,,,,,,,,,,,,,,,,,,,,,,
,,"[""comma""]",0,[0.32929999995232606],77,0,77,0,1,5ef05cee60a444581ce3d0dd,24,Mężczyzna,2022-06-04_08h32.59.862,task,2021.1.4,Win32,164.8804617,628b806c463b948bc644b84f,629af96b5b47ef4a7228d6e6,,,,,,,,,,,,,,,,,,,,,,,,,,,,,,,,,,,,,,,,,,,,,,,,,,,,,,,,,,,,,,,,,,,,,,,,,,,,,,,,,,,,,,,,,,,,,,,,,,,,,,,
,,"[""comma""]",0,[0.5381000001430607],78,0,78,0,1,5ef05cee60a444581ce3d0dd,24,Mężczyzna,2022-06-04_08h32.59.862,task,2021.1.4,Win32,164.8804617,628b806c463b948bc644b84f,629af96b5b47ef4a7228d6e6,,,,,,,,,,,,,,,,,,,,,,,,,,,,,,,,,,,,,,,,,,,,,,,,,,,,,,,,,,,,,,,,,,,,,,,,,,,,,,,,,,,,,,,,,,,,,,,,,,,,,,,
,,"[""comma""]",0,[0.6986000001430455],79,0,79,0,1,5ef05cee60a444581ce3d0dd,24,Mężczyzna,2022-06-04_08h32.59.862,task,2021.1.4,Win32,164.8804617,628b806c463b948bc644b84f,629af96b5b47ef4a7228d6e6,,,,,,,,,,,,,,,,,,,,,,,,,,,,,,,,,,,,,,,,,,,,,,,,,,,,,,,,,,,,,,,,,,,,,,,,,,,,,,,,,,,,,,,,,,,,,,,,,,,,,,,
,,"[""period""]",0,[0.41190000009535765],80,0,80,0,1,5ef05cee60a444581ce3d0dd,24,Mężczyzna,2022-06-04_08h32.59.862,task,2021.1.4,Win32,164.8804617,628b806c463b948bc644b84f,629af96b5b47ef4a7228d6e6,,,,,,,,,,,,,,,,,,,,,,,,,,,,,,,,,,,,,,,,,,,,,,,,,,,,,,,,,,,,,,,,,,,,,,,,,,,,,,,,,,,,,,,,,,,,,,,,,,,,,,,
,,"[""comma""]",0,[0.5569000000953679],81,0,81,0,1,5ef05cee60a444581ce3d0dd,24,Mężczyzna,2022-06-04_08h32.59.862,task,2021.1.4,Win32,164.8804617,628b806c463b948bc644b84f,629af96b5b47ef4a7228d6e6,,,,,,,,,,,,,,,,,,,,,,,,,,,,,,,,,,,,,,,,,,,,,,,,,,,,,,,,,,,,,,,,,,,,,,,,,,,,,,,,,,,,,,,,,,,,,,,,,,,,,,,
,,"[""period""]",0,[0.29390000009536266],82,0,82,0,1,5ef05cee60a444581ce3d0dd,24,Mężczyzna,2022-06-04_08h32.59.862,task,2021.1.4,Win32,164.8804617,628b806c463b948bc644b84f,629af96b5b47ef4a7228d6e6,,,,,,,,,,,,,,,,,,,,,,,,,,,,,,,,,,,,,,,,,,,,,,,,,,,,,,,,,,,,,,,,,,,,,,,,,,,,,,,,,,,,,,,,,,,,,,,,,,,,,,,
,,"[""comma""]",0,[0.5512999999523345],83,0,83,0,1,5ef05cee60a444581ce3d0dd,24,Mężczyzna,2022-06-04_08h32.59.862,task,2021.1.4,Win32,164.8804617,628b806c463b948bc644b84f,629af96b5b47ef4a7228d6e6,,,,,,,,,,,,,,,,,,,,,,,,,,,,,,,,,,,,,,,,,,,,,,,,,,,,,,,,,,,,,,,,,,,,,,,,,,,,,,,,,,,,,,,,,,,,,,,,,,,,,,,
,,"[""comma""]",0,[0.5676000001430452],84,0,84,0,1,5ef05cee60a444581ce3d0dd,24,Mężczyzna,2022-06-04_08h32.59.862,task,2021.1.4,Win32,164.8804617,628b806c463b948bc644b84f,629af96b5b47ef4a7228d6e6,,,,,,,,,,,,,,,,,,,,,,,,,,,,,,,,,,,,,,,,,,,,,,,,,,,,,,,,,,,,,,,,,,,,,,,,,,,,,,,,,,,,,,,,,,,,,,,,,,,,,,,
,,"[""comma""]",0,[0.4406000001430641],85,0,85,0,1,5ef05cee60a444581ce3d0dd,24,Mężczyzna,2022-06-04_08h32.59.862,task,2021.1.4,Win32,164.8804617,628b806c463b948bc644b84f,629af96b5b47ef4a7228d6e6,,,,,,,,,,,,,,,,,,,,,,,,,,,,,,,,,,,,,,,,,,,,,,,,,,,,,,,,,,,,,,,,,,,,,,,,,,,,,,,,,,,,,,,,,,,,,,,,,,,,,,,
,,"[""period""]",0,[0.3297000000476942],86,0,86,0,1,5ef05cee60a444581ce3d0dd,24,Mężczyzna,2022-06-04_08h32.59.862,task,2021.1.4,Win32,164.8804617,628b806c463b948bc644b84f,629af96b5b47ef4a7228d6e6,,,,,,,,,,,,,,,,,,,,,,,,,,,,,,,,,,,,,,,,,,,,,,,,,,,,,,,,,,,,,,,,,,,,,,,,,,,,,,,,,,,,,,,,,,,,,,,,,,,,,,,
,,"[""comma""]",0,[0.33979999995233356],87,0,87,0,1,5ef05cee60a444581ce3d0dd,24,Mężczyzna,2022-06-04_08h32.59.862,task,2021.1.4,Win32,164.8804617,628b806c463b948bc644b84f,629af96b5b47ef4a7228d6e6,,,,,,,,,,,,,,,,,,,,,,,,,,,,,,,,,,,,,,,,,,,,,,,,,,,,,,,,,,,,,,,,,,,,,,,,,,,,,,,,,,,,,,,,,,,,,,,,,,,,,,,
,,"[""period""]",0,[0.3076000001430259],88,0,88,0,1,5ef05cee60a444581ce3d0dd,24,Mężczyzna,2022-06-04_08h32.59.862,task,2021.1.4,Win32,164.8804617,628b806c463b948bc644b84f,629af96b5b47ef4a7228d6e6,,,,,,,,,,,,,,,,,,,,,,,,,,,,,,,,,,,,,,,,,,,,,,,,,,,,,,,,,,,,,,,,,,,,,,,,,,,,,,,,,,,,,,,,,,,,,,,,,,,,,,,
,,"[""comma""]",0,[0.2687000000476871],89,0,89,0,1,5ef05cee60a444581ce3d0dd,24,Mężczyzna,2022-06-04_08h32.59.862,task,2021.1.4,Win32,164.8804617,628b806c463b948bc644b84f,629af96b5b47ef4a7228d6e6,,,,,,,,,,,,,,,,,,,,,,,,,,,,,,,,,,,,,,,,,,,,,,,,,,,,,,,,,,,,,,,,,,,,,,,,,,,,,,,,,,,,,,,,,,,,,,,,,,,,,,,
,,"[""period""]",0,[0.28549999999998477],90,0,90,0,1,5ef05cee60a444581ce3d0dd,24,Mężczyzna,2022-06-04_08h32.59.862,task,2021.1.4,Win32,164.8804617,628b806c463b948bc644b84f,629af96b5b47ef4a7228d6e6,,,,,,,,,,,,,,,,,,,,,,,,,,,,,,,,,,,,,,,,,,,,,,,,,,,,,,,,,,,,,,,,,,,,,,,,,,,,,,,,,,,,,,,,,,,,,,,,,,,,,,,
,,"[""period""]",0,[0.2790999999046164],91,0,91,0,1,5ef05cee60a444581ce3d0dd,24,Mężczyzna,2022-06-04_08h32.59.862,task,2021.1.4,Win32,164.8804617,628b806c463b948bc644b84f,629af96b5b47ef4a7228d6e6,,,,,,,,,,,,,,,,,,,,,,,,,,,,,,,,,,,,,,,,,,,,,,,,,,,,,,,,,,,,,,,,,,,,,,,,,,,,,,,,,,,,,,,,,,,,,,,,,,,,,,,
,,"[""period""]",0,[0.3434000000953574],92,0,92,0,1,5ef05cee60a444581ce3d0dd,24,Mężczyzna,2022-06-04_08h32.59.862,task,2021.1.4,Win32,164.8804617,628b806c463b948bc644b84f,629af96b5b47ef4a7228d6e6,,,,,,,,,,,,,,,,,,,,,,,,,,,,,,,,,,,,,,,,,,,,,,,,,,,,,,,,,,,,,,,,,,,,,,,,,,,,,,,,,,,,,,,,,,,,,,,,,,,,,,,
,,"[""comma""]",0,[0.3764000000953729],93,0,93,0,1,5ef05cee60a444581ce3d0dd,24,Mężczyzna,2022-06-04_08h32.59.862,task,2021.1.4,Win32,164.8804617,628b806c463b948bc644b84f,629af96b5b47ef4a7228d6e6,,,,,,,,,,,,,,,,,,,,,,,,,,,,,,,,,,,,,,,,,,,,,,,,,,,,,,,,,,,,,,,,,,,,,,,,,,,,,,,,,,,,,,,,,,,,,,,,,,,,,,,
,,"[""comma""]",0,[0.5937000000476758],94,0,94,0,1,5ef05cee60a444581ce3d0dd,24,Mężczyzna,2022-06-04_08h32.59.862,task,2021.1.4,Win32,164.8804617,628b806c463b948bc644b84f,629af96b5b47ef4a7228d6e6,,,,,,,,,,,,,,,,,,,,,,,,,,,,,,,,,,,,,,,,,,,,,,,,,,,,,,,,,,,,,,,,,,,,,,,,,,,,,,,,,,,,,,,,,,,,,,,,,,,,,,,
,,"[""period""]",0,[0.3149999999999977],95,0,95,0,1,5ef05cee60a444581ce3d0dd,24,Mężczyzna,2022-06-04_08h32.59.862,task,2021.1.4,Win32,164.8804617,628b806c463b948bc644b84f,629af96b5b47ef4a7228d6e6,,,,,,,,,,,,,,,,,,,,,,,,,,,,,,,,,,,,,,,,,,,,,,,,,,,,,,,,,,,,,,,,,,,,,,,,,,,,,,,,,,,,,,,,,,,,,,,,,,,,,,,
,,"[""period""]",0,[0.3873000001907485],96,0,96,0,1,5ef05cee60a444581ce3d0dd,24,Mężczyzna,2022-06-04_08h32.59.862,task,2021.1.4,Win32,164.8804617,628b806c463b948bc644b84f,629af96b5b47ef4a7228d6e6,,,,,,,,,,,,,,,,,,,,,,,,,,,,,,,,,,,,,,,,,,,,,,,,,,,,,,,,,,,,,,,,,,,,,,,,,,,,,,,,,,,,,,,,,,,,,,,,,,,,,,,
,,"[""period""]",0,[0.45230000019074623],97,0,97,0,1,5ef05cee60a444581ce3d0dd,24,Mężczyzna,2022-06-04_08h32.59.862,task,2021.1.4,Win32,164.8804617,628b806c463b948bc644b84f,629af96b5b47ef4a7228d6e6,,,,,,,,,,,,,,,,,,,,,,,,,,,,,,,,,,,,,,,,,,,,,,,,,,,,,,,,,,,,,,,,,,,,,,,,,,,,,,,,,,,,,,,,,,,,,,,,,,,,,,,
,,"[""period""]",0,[0.6452999999523286],98,0,98,0,1,5ef05cee60a444581ce3d0dd,24,Mężczyzna,2022-06-04_08h32.59.862,task,2021.1.4,Win32,164.8804617,628b806c463b948bc644b84f,629af96b5b47ef4a7228d6e6,,,,,,,,,,,,,,,,,,,,,,,,,,,,,,,,,,,,,,,,,,,,,,,,,,,,,,,,,,,,,,,,,,,,,,,,,,,,,,,,,,,,,,,,,,,,,,,,,,,,,,,
,,"[""period""]",0,[0.5901000001430816],99,0,99,0,1,5ef05cee60a444581ce3d0dd,24,Mężczyzna,2022-06-04_08h32.59.862,task,2021.1.4,Win32,164.8804617,628b806c463b948bc644b84f,629af96b5b47ef4a7228d6e6,,,,,,,,,,,,,,,,,,,,,,,,,,,,,,,,,,,,,,,,,,,,,,,,,,,,,,,,,,,,,,,,,,,,,,,,,,,,,,,,,,,,,,,,,,,,,,,,,,,,,,,
,,"[""comma""]",0,[0.5512999999523345],100,0,100,0,1,5ef05cee60a444581ce3d0dd,24,Mężczyzna,2022-06-04_08h32.59.862,task,2021.1.4,Win32,164.8804617,628b806c463b948bc644b84f,629af96b5b47ef4a7228d6e6,,,,,,,,,,,,,,,,,,,,,,,,,,,,,,,,,,,,,,,,,,,,,,,,,,,,,,,,,,,,,,,,,,,,,,,,,,,,,,,,,,,,,,,,,,,,,,,,,,,,,,,
,,"[""period""]",0,[0.3440999999046426],101,0,101,0,1,5ef05cee60a444581ce3d0dd,24,Mężczyzna,2022-06-04_08h32.59.862,task,2021.1.4,Win32,164.8804617,628b806c463b948bc644b84f,629af96b5b47ef4a7228d6e6,,,,,,,,,,,,,,,,,,,,,,,,,,,,,,,,,,,,,,,,,,,,,,,,,,,,,,,,,,,,,,,,,,,,,,,,,,,,,,,,,,,,,,,,,,,,,,,,,,,,,,,
,,"[""comma""]",0,[0.36120000004768826],102,0,102,0,1,5ef05cee60a444581ce3d0dd,24,Mężczyzna,2022-06-04_08h32.59.862,task,2021.1.4,Win32,164.8804617,628b806c463b948bc644b84f,629af96b5b47ef4a7228d6e6,,,,,,,,,,,,,,,,,,,,,,,,,,,,,,,,,,,,,,,,,,,,,,,,,,,,,,,,,,,,,,,,,,,,,,,,,,,,,,,,,,,,,,,,,,,,,,,,,,,,,,,
,,"[""period""]",0,[0.25020000004769827],103,0,103,0,1,5ef05cee60a444581ce3d0dd,24,Mężczyzna,2022-06-04_08h32.59.862,task,2021.1.4,Win32,164.8804617,628b806c463b948bc644b84f,629af96b5b47ef4a7228d6e6,,,,,,,,,,,,,,,,,,,,,,,,,,,,,,,,,,,,,,,,,,,,,,,,,,,,,,,,,,,,,,,,,,,,,,,,,,,,,,,,,,,,,,,,,,,,,,,,,,,,,,,
,,"[""period""]",0,[0.3552000000476596],104,0,104,0,1,5ef05cee60a444581ce3d0dd,24,Mężczyzna,2022-06-04_08h32.59.862,task,2021.1.4,Win32,164.8804617,628b806c463b948bc644b84f,629af96b5b47ef4a7228d6e6,,,,,,,,,,,,,,,,,,,,,,,,,,,,,,,,,,,,,,,,,,,,,,,,,,,,,,,,,,,,,,,,,,,,,,,,,,,,,,,,,,,,,,,,,,,,,,,,,,,,,,,
,,"[""comma""]",0,[0.2125000000000341],105,0,105,0,1,5ef05cee60a444581ce3d0dd,24,Mężczyzna,2022-06-04_08h32.59.862,task,2021.1.4,Win32,164.8804617,628b806c463b948bc644b84f,629af96b5b47ef4a7228d6e6,,,,,,,,,,,,,,,,,,,,,,,,,,,,,,,,,,,,,,,,,,,,,,,,,,,,,,,,,,,,,,,,,,,,,,,,,,,,,,,,,,,,,,,,,,,,,,,,,,,,,,,
,,"[""comma""]",0,[0.30060000014304933],106,0,106,0,1,5ef05cee60a444581ce3d0dd,24,Mężczyzna,2022-06-04_08h32.59.862,task,2021.1.4,Win32,164.8804617,628b806c463b948bc644b84f,629af96b5b47ef4a7228d6e6,,,,,,,,,,,,,,,,,,,,,,,,,,,,,,,,,,,,,,,,,,,,,,,,,,,,,,,,,,,,,,,,,,,,,,,,,,,,,,,,,,,,,,,,,,,,,,,,,,,,,,,
,,"[""comma""]",0,[0.29349999999999454],107,0,107,0,1,5ef05cee60a444581ce3d0dd,24,Mężczyzna,2022-06-04_08h32.59.862,task,2021.1.4,Win32,164.8804617,628b806c463b948bc644b84f,629af96b5b47ef4a7228d6e6,,,,,,,,,,,,,,,,,,,,,,,,,,,,,,,,,,,,,,,,,,,,,,,,,,,,,,,,,,,,,,,,,,,,,,,,,,,,,,,,,,,,,,,,,,,,,,,,,,,,,,,
,,"[""comma""]",0,[0.40670000004769236],108,0,108,0,1,5ef05cee60a444581ce3d0dd,24,Mężczyzna,2022-06-04_08h32.59.862,task,2021.1.4,Win32,164.8804617,628b806c463b948bc644b84f,629af96b5b47ef4a7228d6e6,,,,,,,,,,,,,,,,,,,,,,,,,,,,,,,,,,,,,,,,,,,,,,,,,,,,,,,,,,,,,,,,,,,,,,,,,,,,,,,,,,,,,,,,,,,,,,,,,,,,,,,
,,"[""period""]",0,[0.40009999990462575],109,0,109,0,1,5ef05cee60a444581ce3d0dd,24,Mężczyzna,2022-06-04_08h32.59.862,task,2021.1.4,Win32,164.8804617,628b806c463b948bc644b84f,629af96b5b47ef4a7228d6e6,,,,,,,,,,,,,,,,,,,,,,,,,,,,,,,,,,,,,,,,,,,,,,,,,,,,,,,,,,,,,,,,,,,,,,,,,,,,,,,,,,,,,,,,,,,,,,,,,,,,,,,
,,"[""comma""]",0,[0.48879999995227763],110,0,110,0,1,5ef05cee60a444581ce3d0dd,24,Mężczyzna,2022-06-04_08h32.59.862,task,2021.1.4,Win32,164.8804617,628b806c463b948bc644b84f,629af96b5b47ef4a7228d6e6,,,,,,,,,,,,,,,,,,,,,,,,,,,,,,,,,,,,,,,,,,,,,,,,,,,,,,,,,,,,,,,,,,,,,,,,,,,,,,,,,,,,,,,,,,,,,,,,,,,,,,,
,,"[""period""]",0,[0.3137000000476746],111,0,111,0,1,5ef05cee60a444581ce3d0dd,24,Mężczyzna,2022-06-04_08h32.59.862,task,2021.1.4,Win32,164.8804617,628b806c463b948bc644b84f,629af96b5b47ef4a7228d6e6,,,,,,,,,,,,,,,,,,,,,,,,,,,,,,,,,,,,,,,,,,,,,,,,,,,,,,,,,,,,,,,,,,,,,,,,,,,,,,,,,,,,,,,,,,,,,,,,,,,,,,,
,,"[""comma""]",0,[0.2910999999046453],112,0,112,0,1,5ef05cee60a444581ce3d0dd,24,Mężczyzna,2022-06-04_08h32.59.862,task,2021.1.4,Win32,164.8804617,628b806c463b948bc644b84f,629af96b5b47ef4a7228d6e6,,,,,,,,,,,,,,,,,,,,,,,,,,,,,,,,,,,,,,,,,,,,,,,,,,,,,,,,,,,,,,,,,,,,,,,,,,,,,,,,,,,,,,,,,,,,,,,,,,,,,,,
,,"[""comma""]",0,[0.4119000000953861],113,0,113,0,1,5ef05cee60a444581ce3d0dd,24,Mężczyzna,2022-06-04_08h32.59.862,task,2021.1.4,Win32,164.8804617,628b806c463b948bc644b84f,629af96b5b47ef4a7228d6e6,,,,,,,,,,,,,,,,,,,,,,,,,,,,,,,,,,,,,,,,,,,,,,,,,,,,,,,,,,,,,,,,,,,,,,,,,,,,,,,,,,,,,,,,,,,,,,,,,,,,,,,
,,"[""period""]",0,[0.3965999999045948],114,0,114,0,1,5ef05cee60a444581ce3d0dd,24,Mężczyzna,2022-06-04_08h32.59.862,task,2021.1.4,Win32,164.8804617,628b806c463b948bc644b84f,629af96b5b47ef4a7228d6e6,,,,,,,,,,,,,,,,,,,,,,,,,,,,,,,,,,,,,,,,,,,,,,,,,,,,,,,,,,,,,,,,,,,,,,,,,,,,,,,,,,,,,,,,,,,,,,,,,,,,,,,
,,"[""comma""]",0,[0.3735999999046271],115,0,115,0,1,5ef05cee60a444581ce3d0dd,24,Mężczyzna,2022-06-04_08h32.59.862,task,2021.1.4,Win32,164.8804617,628b806c463b948bc644b84f,629af96b5b47ef4a7228d6e6,,,,,,,,,,,,,,,,,,,,,,,,,,,,,,,,,,,,,,,,,,,,,,,,,,,,,,,,,,,,,,,,,,,,,,,,,,,,,,,,,,,,,,,,,,,,,,,,,,,,,,,
,,"[""period""]",0,[0.2385999999046362],116,0,116,0,1,5ef05cee60a444581ce3d0dd,24,Mężczyzna,2022-06-04_08h32.59.862,task,2021.1.4,Win32,164.8804617,628b806c463b948bc644b84f,629af96b5b47ef4a7228d6e6,,,,,,,,,,,,,,,,,,,,,,,,,,,,,,,,,,,,,,,,,,,,,,,,,,,,,,,,,,,,,,,,,,,,,,,,,,,,,,,,,,,,,,,,,,,,,,,,,,,,,,,
,,"[""period""]",0,[0.37579999995233493],117,0,117,0,1,5ef05cee60a444581ce3d0dd,24,Mężczyzna,2022-06-04_08h32.59.862,task,2021.1.4,Win32,164.8804617,628b806c463b948bc644b84f,629af96b5b47ef4a7228d6e6,,,,,,,,,,,,,,,,,,,,,,,,,,,,,,,,,,,,,,,,,,,,,,,,,,,,,,,,,,,,,,,,,,,,,,,,,,,,,,,,,,,,,,,,,,,,,,,,,,,,,,,
,,"[""comma""]",0,[0.40840000009535515],118,0,118,0,1,5ef05cee60a444581ce3d0dd,24,Mężczyzna,2022-06-04_08h32.59.862,task,2021.1.4,Win32,164.8804617,628b806c463b948bc644b84f,629af96b5b47ef4a7228d6e6,,,,,,,,,,,,,,,,,,,,,,,,,,,,,,,,,,,,,,,,,,,,,,,,,,,,,,,,,,,,,,,,,,,,,,,,,,,,,,,,,,,,,,,,,,,,,,,,,,,,,,,
,,"[""period""]",0,[0.40149999999999864],119,0,119,0,1,5ef05cee60a444581ce3d0dd,24,Mężczyzna,2022-06-04_08h32.59.862,task,2021.1.4,Win32,164.8804617,628b806c463b948bc644b84f,629af96b5b47ef4a7228d6e6,,,,,,,,,,,,,,,,,,,,,,,,,,,,,,,,,,,,,,,,,,,,,,,,,,,,,,,,,,,,,,,,,,,,,,,,,,,,,,,,,,,,,,,,,,,,,,,,,,,,,,,
,,,,,,,,,,5ef05cee60a444581ce3d0dd,24,Mężczyzna,2022-06-04_08h32.59.862,task,2021.1.4,Win32,164.8804617,628b806c463b948bc644b84f,629af96b5b47ef4a7228d6e6,space,27.1524,space,7.2289,0,0,0,0,1,X V Q F H G B L J M P D K C T S W R N Z,,,,,,,,,,,,,,,,,,,,,,,,,,,,,,,,,,,,,,,,,,,,,,,,,,,,,,,,,,,,,,,,,,,,,,,,,,,,,,,,,,,,,,,,,,,,,
,,,,,,,,,,5ef05cee60a444581ce3d0dd,24,Mężczyzna,2022-06-04_08h32.59.862,task,2021.1.4,Win32,164.8804617,628b806c463b948bc644b84f,629af96b5b47ef4a7228d6e6,,,,,1,0,1,0,1,X V Q F H G B L J M P D K C T S W R N Z,,,,,,,,,,,,,,,,,,,,,,,,,,,,,,,,,,,,,,,,,,,,,,,,,,,,,,,,,,,,,,,,,,,,,,,,,,,,,,,,,,,,,,,,,,,,,
,,,,,,,,,,5ef05cee60a444581ce3d0dd,24,Mężczyzna,2022-06-04_08h32.59.862,task,2021.1.4,Win32,164.8804617,628b806c463b948bc644b84f,629af96b5b47ef4a7228d6e6,,,,,,,,,,,zj,"[""z"",""j""]","[4.051899999856914,4.275799999952312,5.660499999999956]",1,ZJ,0,0,0,0,1,,,,,,,,,,,,,,,,,,,,,,,,,,,,,,,,,,,,,,,,,,,,,,,,,,,,,,,,,,,,,,,,,,,,,,,,,,,,,,,,,,,
,,,,,,,,,,5ef05cee60a444581ce3d0dd,24,Mężczyzna,2022-06-04_08h32.59.862,task,2021.1.4,Win32,164.8804617,628b806c463b948bc644b84f,629af96b5b47ef4a7228d6e6,,,,,0,0,0,0,1,X V Q F H G B L J M P D K C T S W R N Z,,,,,,,,,,,,,,,,,,,,,,,,,,,,,,,,,,,,,,,,,,,,,,,,,,,,,,,,,,,,,,,,,,,,,,,,,,,,,,,,,,,,,,,,,,,,,
,,,,,,,,,,5ef05cee60a444581ce3d0dd,24,Mężczyzna,2022-06-04_08h32.59.862,task,2021.1.4,Win32,164.8804617,628b806c463b948bc644b84f,629af96b5b47ef4a7228d6e6,,,,,1,0,1,0,1,X V Q F H G B L J M P D K C T S W R N Z,,,,,,,,,,,,,,,,,,,,,,,,,,,,,,,,,,,,,,,,,,,,,,,,,,,,,,,,,,,,,,,,,,,,,,,,,,,,,,,,,,,,,,,,,,,,,
,,,,,,,,,,5ef05cee60a444581ce3d0dd,24,Mężczyzna,2022-06-04_08h32.59.862,task,2021.1.4,Win32,164.8804617,628b806c463b948bc644b84f,629af96b5b47ef4a7228d6e6,,,,,,,,,,,sw,"[""s"",""w""]","[0.9620999999046376,1.1536999998093052,1.8978999998569748]",1,SW,1,0,1,0,1,,,,,,,,,,,,,,,,,,,,,,,,,,,,,,,,,,,,,,,,,,,,,,,,,,,,,,,,,,,,,,,,,,,,,,,,,,,,,,,,,,,
,,,,,,,,,,5ef05cee60a444581ce3d0dd,24,Mężczyzna,2022-06-04_08h32.59.862,task,2021.1.4,Win32,164.8804617,628b806c463b948bc644b84f,629af96b5b47ef4a7228d6e6,,,,,0,0,0,0,1,X V Q F H G B L J M P D K C T S W R N Z,,,,,,,,,,,,,,,,,,,,,,,,,,,,,,,,,,,,,,,,,,,,,,,,,,,,,,,,,,,,,,,,,,,,,,,,,,,,,,,,,,,,,,,,,,,,,
,,,,,,,,,,5ef05cee60a444581ce3d0dd,24,Mężczyzna,2022-06-04_08h32.59.862,task,2021.1.4,Win32,164.8804617,628b806c463b948bc644b84f,629af96b5b47ef4a7228d6e6,,,,,1,0,1,0,1,X V Q F H G B L J M P D K C T S W R N Z,,,,,,,,,,,,,,,,,,,,,,,,,,,,,,,,,,,,,,,,,,,,,,,,,,,,,,,,,,,,,,,,,,,,,,,,,,,,,,,,,,,,,,,,,,,,,
,,,,,,,,,,5ef05cee60a444581ce3d0dd,24,Mężczyzna,2022-06-04_08h32.59.862,task,2021.1.4,Win32,164.8804617,628b806c463b948bc644b84f,629af96b5b47ef4a7228d6e6,,,,,2,0,2,0,1,X V Q F H G B L J M P D K C T S W R N Z,,,,,,,,,,,,,,,,,,,,,,,,,,,,,,,,,,,,,,,,,,,,,,,,,,,,,,,,,,,,,,,,,,,,,,,,,,,,,,,,,,,,,,,,,,,,,
,,,,,,,,,,5ef05cee60a444581ce3d0dd,24,Mężczyzna,2022-06-04_08h32.59.862,task,2021.1.4,Win32,164.8804617,628b806c463b948bc644b84f,629af96b5b47ef4a7228d6e6,,,,,,,,,,,csb,"[""c"",""s"",""b""]","[0.8203999998569316,0.932099999904608,1.2122999999523358,2.684199999809266]",1,CSB,2,0,2,0,1,,,,,,,,,,,,,,,,,,,,,,,,,,,,,,,,,,,,,,,,,,,,,,,,,,,,,,,,,,,,,,,,,,,,,,,,,,,,,,,,,,,
,,,,,,,,,,5ef05cee60a444581ce3d0dd,24,Mężczyzna,2022-06-04_08h32.59.862,task,2021.1.4,Win32,164.8804617,628b806c463b948bc644b84f,629af96b5b47ef4a7228d6e6,,,,,0,0,0,0,1,X V Q F H G B L J M P D K C T S W R N Z,,,,,,,,,,,,,,,,,,,,,,,,,,,,,,,,,,,,,,,,,,,,,,,,,,,,,,,,,,,,,,,,,,,,,,,,,,,,,,,,,,,,,,,,,,,,,
,,,,,,,,,,5ef05cee60a444581ce3d0dd,24,Mężczyzna,2022-06-04_08h32.59.862,task,2021.1.4,Win32,164.8804617,628b806c463b948bc644b84f,629af96b5b47ef4a7228d6e6,,,,,1,0,1,0,1,X V Q F H G B L J M P D K C T S W R N Z,,,,,,,,,,,,,,,,,,,,,,,,,,,,,,,,,,,,,,,,,,,,,,,,,,,,,,,,,,,,,,,,,,,,,,,,,,,,,,,,,,,,,,,,,,,,,
,,,,,,,,,,5ef05cee60a444581ce3d0dd,24,Mężczyzna,2022-06-04_08h32.59.862,task,2021.1.4,Win32,164.8804617,628b806c463b948bc644b84f,629af96b5b47ef4a7228d6e6,,,,,2,0,2,0,1,X V Q F H G B L J M P D K C T S W R N Z,,,,,,,,,,,,,,,,,,,,,,,,,,,,,,,,,,,,,,,,,,,,,,,,,,,,,,,,,,,,,,,,,,,,,,,,,,,,,,,,,,,,,,,,,,,,,
,,,,,,,,,,5ef05cee60a444581ce3d0dd,24,Mężczyzna,2022-06-04_08h32.59.862,task,2021.1.4,Win32,164.8804617,628b806c463b948bc644b84f,629af96b5b47ef4a7228d6e6,,,,,,,,,,,gbq,"[""g"",""b"",""q""]","[1.1316000001430666,1.2432999999523418,1.435299999952349,2.011299999952314]",1,GBQ,3,0,3,0,1,,,,,,,,,,,,,,,,,,,,,,,,,,,,,,,,,,,,,,,,,,,,,,,,,,,,,,,,,,,,,,,,,,,,,,,,,,,,,,,,,,,
,,,,,,,,,,5ef05cee60a444581ce3d0dd,24,Mężczyzna,2022-06-04_08h32.59.862,task,2021.1.4,Win32,164.8804617,628b806c463b948bc644b84f,629af96b5b47ef4a7228d6e6,,,,,0,0,0,0,1,X V Q F H G B L J M P D K C T S W R N Z,,,,,,,,,,,,,,,,,,,,,,,,,,,,,,,,,,,,,,,,,,,,,,,,,,,,,,,,,,,,,,,,,,,,,,,,,,,,,,,,,,,,,,,,,,,,,
,,,,,,,,,,5ef05cee60a444581ce3d0dd,24,Mężczyzna,2022-06-04_08h32.59.862,task,2021.1.4,Win32,164.8804617,628b806c463b948bc644b84f,629af96b5b47ef4a7228d6e6,,,,,1,0,1,0,1,X V Q F H G B L J M P D K C T S W R N Z,,,,,,,,,,,,,,,,,,,,,,,,,,,,,,,,,,,,,,,,,,,,,,,,,,,,,,,,,,,,,,,,,,,,,,,,,,,,,,,,,,,,,,,,,,,,,
,,,,,,,,,,5ef05cee60a444581ce3d0dd,24,Mężczyzna,2022-06-04_08h32.59.862,task,2021.1.4,Win32,164.8804617,628b806c463b948bc644b84f,629af96b5b47ef4a7228d6e6,,,,,2,0,2,0,1,X V Q F H G B L J M P D K C T S W R N Z,,,,,,,,,,,,,,,,,,,,,,,,,,,,,,,,,,,,,,,,,,,,,,,,,,,,,,,,,,,,,,,,,,,,,,,,,,,,,,,,,,,,,,,,,,,,,
,,,,,,,,,,5ef05cee60a444581ce3d0dd,24,Mężczyzna,2022-06-04_08h32.59.862,task,2021.1.4,Win32,164.8804617,628b806c463b948bc644b84f,629af96b5b47ef4a7228d6e6,,,,,3,0,3,0,1,X V Q F H G B L J M P D K C T S W R N Z,,,,,,,,,,,,,,,,,,,,,,,,,,,,,,,,,,,,,,,,,,,,,,,,,,,,,,,,,,,,,,,,,,,,,,,,,,,,,,,,,,,,,,,,,,,,,
,,,,,,,,,,5ef05cee60a444581ce3d0dd,24,Mężczyzna,2022-06-04_08h32.59.862,task,2021.1.4,Win32,164.8804617,628b806c463b948bc644b84f,629af96b5b47ef4a7228d6e6,,,,,,,,,,,jxrq,"[""j"",""x"",""r"",""q""]","[0.9469000000953542,1.250799999952335,2.066799999952309,3.1069000000953793,3.642799999952331]",0,JXDR,4,0,4,0,1,,,,,,,,,,,,,,,,,,,,,,,,,,,,,,,,,,,,,,,,,,,,,,,,,,,,,,,,,,,,,,,,,,,,,,,,,,,,,,,,,,,
,,,,,,,,,,5ef05cee60a444581ce3d0dd,24,Mężczyzna,2022-06-04_08h32.59.862,task,2021.1.4,Win32,164.8804617,628b806c463b948bc644b84f,629af96b5b47ef4a7228d6e6,,,,,0,0,0,0,1,X V Q F H G B L J M P D K C T S W R N Z,,,,,,,,,,,,,,,,,,,,,,,,,,,,,,,,,,,,,,,,,,,,,,,,,,,,,,,,,,,,,,,,,,,,,,,,,,,,,,,,,,,,,,,,,,,,,
,,,,,,,,,,5ef05cee60a444581ce3d0dd,24,Mężczyzna,2022-06-04_08h32.59.862,task,2021.1.4,Win32,164.8804617,628b806c463b948bc644b84f,629af96b5b47ef4a7228d6e6,,,,,1,0,1,0,1,X V Q F H G B L J M P D K C T S W R N Z,,,,,,,,,,,,,,,,,,,,,,,,,,,,,,,,,,,,,,,,,,,,,,,,,,,,,,,,,,,,,,,,,,,,,,,,,,,,,,,,,,,,,,,,,,,,,
,,,,,,,,,,5ef05cee60a444581ce3d0dd,24,Mężczyzna,2022-06-04_08h32.59.862,task,2021.1.4,Win32,164.8804617,628b806c463b948bc644b84f,629af96b5b47ef4a7228d6e6,,,,,2,0,2,0,1,X V Q F H G B L J M P D K C T S W R N Z,,,,,,,,,,,,,,,,,,,,,,,,,,,,,,,,,,,,,,,,,,,,,,,,,,,,,,,,,,,,,,,,,,,,,,,,,,,,,,,,,,,,,,,,,,,,,
,,,,,,,,,,5ef05cee60a444581ce3d0dd,24,Mężczyzna,2022-06-04_08h32.59.862,task,2021.1.4,Win32,164.8804617,628b806c463b948bc644b84f,629af96b5b47ef4a7228d6e6,,,,,3,0,3,0,1,X V Q F H G B L J M P D K C T S W R N Z,,,,,,,,,,,,,,,,,,,,,,,,,,,,,,,,,,,,,,,,,,,,,,,,,,,,,,,,,,,,,,,,,,,,,,,,,,,,,,,,,,,,,,,,,,,,,
,,,,,,,,,,5ef05cee60a444581ce3d0dd,24,Mężczyzna,2022-06-04_08h32.59.862,task,2021.1.4,Win32,164.8804617,628b806c463b948bc644b84f,629af96b5b47ef4a7228d6e6,,,,,,,,,,,bnjg,"[""b"",""n"",""j"",""g""]","[0.6051000001430111,0.8127999999522899,2.4609000000953642,2.5567000000476696,3.8287999999523095]",1,BNJG,5,0,5,0,1,,,,,,,,,,,,,,,,,,,,,,,,,,,,,,,,,,,,,,,,,,,,,,,,,,,,,,,,,,,,,,,,,,,,,,,,,,,,,,,,,,,
,,,,,,,,,,5ef05cee60a444581ce3d0dd,24,Mężczyzna,2022-06-04_08h32.59.862,task,2021.1.4,Win32,164.8804617,628b806c463b948bc644b84f,629af96b5b47ef4a7228d6e6,,,,,0,0,0,0,1,X V Q F H G B L J M P D K C T S W R N Z,,,,,,,,,,,,,,,,,,,,,,,,,,,,,,,,,,,,,,,,,,,,,,,,,,,,,,,,,,,,,,,,,,,,,,,,,,,,,,,,,,,,,,,,,,,,,
,,,,,,,,,,5ef05cee60a444581ce3d0dd,24,Mężczyzna,2022-06-04_08h32.59.862,task,2021.1.4,Win32,164.8804617,628b806c463b948bc644b84f,629af96b5b47ef4a7228d6e6,,,,,1,0,1,0,1,X V Q F H G B L J M P D K C T S W R N Z,,,,,,,,,,,,,,,,,,,,,,,,,,,,,,,,,,,,,,,,,,,,,,,,,,,,,,,,,,,,,,,,,,,,,,,,,,,,,,,,,,,,,,,,,,,,,
,,,,,,,,,,5ef05cee60a444581ce3d0dd,24,Mężczyzna,2022-06-04_08h32.59.862,task,2021.1.4,Win32,164.8804617,628b806c463b948bc644b84f,629af96b5b47ef4a7228d6e6,,,,,2,0,2,0,1,X V Q F H G B L J M P D K C T S W R N Z,,,,,,,,,,,,,,,,,,,,,,,,,,,,,,,,,,,,,,,,,,,,,,,,,,,,,,,,,,,,,,,,,,,,,,,,,,,,,,,,,,,,,,,,,,,,,
,,,,,,,,,,5ef05cee60a444581ce3d0dd,24,Mężczyzna,2022-06-04_08h32.59.862,task,2021.1.4,Win32,164.8804617,628b806c463b948bc644b84f,629af96b5b47ef4a7228d6e6,,,,,3,0,3,0,1,X V Q F H G B L J M P D K C T S W R N Z,,,,,,,,,,,,,,,,,,,,,,,,,,,,,,,,,,,,,,,,,,,,,,,,,,,,,,,,,,,,,,,,,,,,,,,,,,,,,,,,,,,,,,,,,,,,,
,,,,,,,,,,5ef05cee60a444581ce3d0dd,24,Mężczyzna,2022-06-04_08h32.59.862,task,2021.1.4,Win32,164.8804617,628b806c463b948bc644b84f,629af96b5b47ef4a7228d6e6,,,,,,,,,,,zbrm,"[""z"",""b"",""r"",""m""]","[0.9227999999523036,1.1147999999523108,1.434799999952304,1.5544999999999618,2.6831000001430425]",1,ZBRM,6,0,6,0,1,,,,,,,,,,,,,,,,,,,,,,,,,,,,,,,,,,,,,,,,,,,,,,,,,,,,,,,,,,,,,,,,,,,,,,,,,,,,,,,,,,,
,,,,,,,,,,5ef05cee60a444581ce3d0dd,24,Mężczyzna,2022-06-04_08h32.59.862,task,2021.1.4,Win32,164.8804617,628b806c463b948bc644b84f,629af96b5b47ef4a7228d6e6,,,,,0,0,0,0,1,X V Q F H G B L J M P D K C T S W R N Z,,,,,,,,,,,,,,,,,,,,,,,,,,,,,,,,,,,,,,,,,,,,,,,,,,,,,,,,,,,,,,,,,,,,,,,,,,,,,,,,,,,,,,,,,,,,,
,,,,,,,,,,5ef05cee60a444581ce3d0dd,24,Mężczyzna,2022-06-04_08h32.59.862,task,2021.1.4,Win32,164.8804617,628b806c463b948bc644b84f,629af96b5b47ef4a7228d6e6,,,,,1,0,1,0,1,X V Q F H G B L J M P D K C T S W R N Z,,,,,,,,,,,,,,,,,,,,,,,,,,,,,,,,,,,,,,,,,,,,,,,,,,,,,,,,,,,,,,,,,,,,,,,,,,,,,,,,,,,,,,,,,,,,,
,,,,,,,,,,5ef05cee60a444581ce3d0dd,24,Mężczyzna,2022-06-04_08h32.59.862,task,2021.1.4,Win32,164.8804617,628b806c463b948bc644b84f,629af96b5b47ef4a7228d6e6,,,,,2,0,2,0,1,X V Q F H G B L J M P D K C T S W R N Z,,,,,,,,,,,,,,,,,,,,,,,,,,,,,,,,,,,,,,,,,,,,,,,,,,,,,,,,,,,,,,,,,,,,,,,,,,,,,,,,,,,,,,,,,,,,,
,,,,,,,,,,5ef05cee60a444581ce3d0dd,24,Mężczyzna,2022-06-04_08h32.59.862,task,2021.1.4,Win32,164.8804617,628b806c463b948bc644b84f,629af96b5b47ef4a7228d6e6,,,,,3,0,3,0,1,X V Q F H G B L J M P D K C T S W R N Z,,,,,,,,,,,,,,,,,,,,,,,,,,,,,,,,,,,,,,,,,,,,,,,,,,,,,,,,,,,,,,,,,,,,,,,,,,,,,,,,,,,,,,,,,,,,,
,,,,,,,,,,5ef05cee60a444581ce3d0dd,24,Mężczyzna,2022-06-04_08h32.59.862,task,2021.1.4,Win32,164.8804617,628b806c463b948bc644b84f,629af96b5b47ef4a7228d6e6,,,,,4,0,4,0,1,X V Q F H G B L J M P D K C T S W R N Z,,,,,,,,,,,,,,,,,,,,,,,,,,,,,,,,,,,,,,,,,,,,,,,,,,,,,,,,,,,,,,,,,,,,,,,,,,,,,,,,,,,,,,,,,,,,,
,,,,,,,,,,5ef05cee60a444581ce3d0dd,24,Mężczyzna,2022-06-04_08h32.59.862,task,2021.1.4,Win32,164.8804617,628b806c463b948bc644b84f,629af96b5b47ef4a7228d6e6,,,,,,,,,,,tlwhg,"[""t"",""l"",""w"",""h"",""g""]","[0.5137999999523117,0.6415000000000077,1.121499999999969,1.7862000000476996,2.193499999999972,3.4975999999046508]",1,TLWHG,7,0,7,0,1,,,,,,,,,,,,,,,,,,,,,,,,,,,,,,,,,,,,,,,,,,,,,,,,,,,,,,,,,,,,,,,,,,,,,,,,,,,,,,,,,,,
,,,,,,,,,,5ef05cee60a444581ce3d0dd,24,Mężczyzna,2022-06-04_08h32.59.862,task,2021.1.4,Win32,164.8804617,628b806c463b948bc644b84f,629af96b5b47ef4a7228d6e6,,,,,0,0,0,0,1,X V Q F H G B L J M P D K C T S W R N Z,,,,,,,,,,,,,,,,,,,,,,,,,,,,,,,,,,,,,,,,,,,,,,,,,,,,,,,,,,,,,,,,,,,,,,,,,,,,,,,,,,,,,,,,,,,,,
,,,,,,,,,,5ef05cee60a444581ce3d0dd,24,Mężczyzna,2022-06-04_08h32.59.862,task,2021.1.4,Win32,164.8804617,628b806c463b948bc644b84f,629af96b5b47ef4a7228d6e6,,,,,1,0,1,0,1,X V Q F H G B L J M P D K C T S W R N Z,,,,,,,,,,,,,,,,,,,,,,,,,,,,,,,,,,,,,,,,,,,,,,,,,,,,,,,,,,,,,,,,,,,,,,,,,,,,,,,,,,,,,,,,,,,,,
,,,,,,,,,,5ef05cee60a444581ce3d0dd,24,Mężczyzna,2022-06-04_08h32.59.862,task,2021.1.4,Win32,164.8804617,628b806c463b948bc644b84f,629af96b5b47ef4a7228d6e6,,,,,2,0,2,0,1,X V Q F H G B L J M P D K C T S W R N Z,,,,,,,,,,,,,,,,,,,,,,,,,,,,,,,,,,,,,,,,,,,,,,,,,,,,,,,,,,,,,,,,,,,,,,,,,,,,,,,,,,,,,,,,,,,,,
,,,,,,,,,,5ef05cee60a444581ce3d0dd,24,Mężczyzna,2022-06-04_08h32.59.862,task,2021.1.4,Win32,164.8804617,628b806c463b948bc644b84f,629af96b5b47ef4a7228d6e6,,,,,3,0,3,0,1,X V Q F H G B L J M P D K C T S W R N Z,,,,,,,,,,,,,,,,,,,,,,,,,,,,,,,,,,,,,,,,,,,,,,,,,,,,,,,,,,,,,,,,,,,,,,,,,,,,,,,,,,,,,,,,,,,,,
,,,,,,,,,,5ef05cee60a444581ce3d0dd,24,Mężczyzna,2022-06-04_08h32.59.862,task,2021.1.4,Win32,164.8804617,628b806c463b948bc644b84f,629af96b5b47ef4a7228d6e6,,,,,4,0,4,0,1,X V Q F H G B L J M P D K C T S W R N Z,,,,,,,,,,,,,,,,,,,,,,,,,,,,,,,,,,,,,,,,,,,,,,,,,,,,,,,,,,,,,,,,,,,,,,,,,,,,,,,,,,,,,,,,,,,,,
,,,,,,,,,,5ef05cee60a444581ce3d0dd,24,Mężczyzna,2022-06-04_08h32.59.862,task,2021.1.4,Win32,164.8804617,628b806c463b948bc644b84f,629af96b5b47ef4a7228d6e6,,,,,,,,,,,fvpkw,"[""f"",""v"",""p"",""k"",""w""]","[1.4360999999046271,1.70799999999997,2.2529000000953374,2.524799999952279,2.7399999999999523,3.3004999999999995]",1,FVPKW,8,0,8,0,1,,,,,,,,,,,,,,,,,,,,,,,,,,,,,,,,,,,,,,,,,,,,,,,,,,,,,,,,,,,,,,,,,,,,,,,,,,,,,,,,,,,
,,,,,,,,,,5ef05cee60a444581ce3d0dd,24,Mężczyzna,2022-06-04_08h32.59.862,task,2021.1.4,Win32,164.8804617,628b806c463b948bc644b84f,629af96b5b47ef4a7228d6e6,,,,,0,0,0,0,1,X V Q F H G B L J M P D K C T S W R N Z,,,,,,,,,,,,,,,,,,,,,,,,,,,,,,,,,,,,,,,,,,,,,,,,,,,,,,,,,,,,,,,,,,,,,,,,,,,,,,,,,,,,,,,,,,,,,
,,,,,,,,,,5ef05cee60a444581ce3d0dd,24,Mężczyzna,2022-06-04_08h32.59.862,task,2021.1.4,Win32,164.8804617,628b806c463b948bc644b84f,629af96b5b47ef4a7228d6e6,,,,,1,0,1,0,1,X V Q F H G B L J M P D K C T S W R N Z,,,,,,,,,,,,,,,,,,,,,,,,,,,,,,,,,,,,,,,,,,,,,,,,,,,,,,,,,,,,,,,,,,,,,,,,,,,,,,,,,,,,,,,,,,,,,
,,,,,,,,,,5ef05cee60a444581ce3d0dd,24,Mężczyzna,2022-06-04_08h32.59.862,task,2021.1.4,Win32,164.8804617,628b806c463b948bc644b84f,629af96b5b47ef4a7228d6e6,,,,,2,0,2,0,1,X V Q F H G B L J M P D K C T S W R N Z,,,,,,,,,,,,,,,,,,,,,,,,,,,,,,,,,,,,,,,,,,,,,,,,,,,,,,,,,,,,,,,,,,,,,,,,,,,,,,,,,,,,,,,,,,,,,
,,,,,,,,,,5ef05cee60a444581ce3d0dd,24,Mężczyzna,2022-06-04_08h32.59.862,task,2021.1.4,Win32,164.8804617,628b806c463b948bc644b84f,629af96b5b47ef4a7228d6e6,,,,,3,0,3,0,1,X V Q F H G B L J M P D K C T S W R N Z,,,,,,,,,,,,,,,,,,,,,,,,,,,,,,,,,,,,,,,,,,,,,,,,,,,,,,,,,,,,,,,,,,,,,,,,,,,,,,,,,,,,,,,,,,,,,
,,,,,,,,,,5ef05cee60a444581ce3d0dd,24,Mężczyzna,2022-06-04_08h32.59.862,task,2021.1.4,Win32,164.8804617,628b806c463b948bc644b84f,629af96b5b47ef4a7228d6e6,,,,,4,0,4,0,1,X V Q F H G B L J M P D K C T S W R N Z,,,,,,,,,,,,,,,,,,,,,,,,,,,,,,,,,,,,,,,,,,,,,,,,,,,,,,,,,,,,,,,,,,,,,,,,,,,,,,,,,,,,,,,,,,,,,
,,,,,,,,,,5ef05cee60a444581ce3d0dd,24,Mężczyzna,2022-06-04_08h32.59.862,task,2021.1.4,Win32,164.8804617,628b806c463b948bc644b84f,629af96b5b47ef4a7228d6e6,,,,,5,0,5,0,1,X V Q F H G B L J M P D K C T S W R N Z,,,,,,,,,,,,,,,,,,,,,,,,,,,,,,,,,,,,,,,,,,,,,,,,,,,,,,,,,,,,,,,,,,,,,,,,,,,,,,,,,,,,,,,,,,,,,
,,,,,,,,,,5ef05cee60a444581ce3d0dd,24,Mężczyzna,2022-06-04_08h32.59.862,task,2021.1.4,Win32,164.8804617,628b806c463b948bc644b84f,629af96b5b47ef4a7228d6e6,,,,,,,,,,,cmzxf,"[""c"",""m"",""z"",""x"",""f""]","[0.7687999999523072,1.8246999998092406,2.008599999904618,2.6805999999046435,3.2645999999046467,67.28059999990461]",0,CMZXFQ,9,0,9,0,1,,,,,,,,,,,,,,,,,,,,,,,,,,,,,,,,,,,,,,,,,,,,,,,,,,,,,,,,,,,,,,,,,,,,,,,,,,,,,,,,,,,
,,,,,,,,,,5ef05cee60a444581ce3d0dd,24,Mężczyzna,2022-06-04_08h32.59.862,task,2021.1.4,Win32,164.8804617,628b806c463b948bc644b84f,629af96b5b47ef4a7228d6e6,,,,,0,0,0,0,1,X V Q F H G B L J M P D K C T S W R N Z,,,,,,,,,,,,,,,,,,,,,,,,,,,,,,,,,,,,,,,,,,,,,,,,,,,,,,,,,,,,,,,,,,,,,,,,,,,,,,,,,,,,,,,,,,,,,
,,,,,,,,,,5ef05cee60a444581ce3d0dd,24,Mężczyzna,2022-06-04_08h32.59.862,task,2021.1.4,Win32,164.8804617,628b806c463b948bc644b84f,629af96b5b47ef4a7228d6e6,,,,,1,0,1,0,1,X V Q F H G B L J M P D K C T S W R N Z,,,,,,,,,,,,,,,,,,,,,,,,,,,,,,,,,,,,,,,,,,,,,,,,,,,,,,,,,,,,,,,,,,,,,,,,,,,,,,,,,,,,,,,,,,,,,
,,,,,,,,,,5ef05cee60a444581ce3d0dd,24,Mężczyzna,2022-06-04_08h32.59.862,task,2021.1.4,Win32,164.8804617,628b806c463b948bc644b84f,629af96b5b47ef4a7228d6e6,,,,,2,0,2,0,1,X V Q F H G B L J M P D K C T S W R N Z,,,,,,,,,,,,,,,,,,,,,,,,,,,,,,,,,,,,,,,,,,,,,,,,,,,,,,,,,,,,,,,,,,,,,,,,,,,,,,,,,,,,,,,,,,,,,
,,,,,,,,,,5ef05cee60a444581ce3d0dd,24,Mężczyzna,2022-06-04_08h32.59.862,task,2021.1.4,Win32,164.8804617,628b806c463b948bc644b84f,629af96b5b47ef4a7228d6e6,,,,,3,0,3,0,1,X V Q F H G B L J M P D K C T S W R N Z,,,,,,,,,,,,,,,,,,,,,,,,,,,,,,,,,,,,,,,,,,,,,,,,,,,,,,,,,,,,,,,,,,,,,,,,,,,,,,,,,,,,,,,,,,,,,
,,,,,,,,,,5ef05cee60a444581ce3d0dd,24,Mężczyzna,2022-06-04_08h32.59.862,task,2021.1.4,Win32,164.8804617,628b806c463b948bc644b84f,629af96b5b47ef4a7228d6e6,,,,,4,0,4,0,1,X V Q F H G B L J M P D K C T S W R N Z,,,,,,,,,,,,,,,,,,,,,,,,,,,,,,,,,,,,,,,,,,,,,,,,,,,,,,,,,,,,,,,,,,,,,,,,,,,,,,,,,,,,,,,,,,,,,
,,,,,,,,,,5ef05cee60a444581ce3d0dd,24,Mężczyzna,2022-06-04_08h32.59.862,task,2021.1.4,Win32,164.8804617,628b806c463b948bc644b84f,629af96b5b47ef4a7228d6e6,,,,,5,0,5,0,1,X V Q F H G B L J M P D K C T S W R N Z,,,,,,,,,,,,,,,,,,,,,,,,,,,,,,,,,,,,,,,,,,,,,,,,,,,,,,,,,,,,,,,,,,,,,,,,,,,,,,,,,,,,,,,,,,,,,
,,,,,,,,,,5ef05cee60a444581ce3d0dd,24,Mężczyzna,2022-06-04_08h32.59.862,task,2021.1.4,Win32,164.8804617,628b806c463b948bc644b84f,629af96b5b47ef4a7228d6e6,,,,,,,,,,,hzlltc,"[""h"",""z"",""l"",""l"",""t"",""c""]","[3.237900000095408,3.605799999952353,5.205799999952319,5.421700000047679,6.01400000000001,6.293799999952341,9.00579999995233]",1,HZLLTC,10,0,10,0,1,,,,,,,,,,,,,,,,,,,,,,,,,,,,,,,,,,,,,,,,,,,,,,,,,,,,,,,,,,,,,,,,,,,,,,,,,,,,,,,,,,,
,,,,,,,,,,5ef05cee60a444581ce3d0dd,24,Mężczyzna,2022-06-04_08h32.59.862,task,2021.1.4,Win32,164.8804617,628b806c463b948bc644b84f,629af96b5b47ef4a7228d6e6,,,,,0,0,0,0,1,X V Q F H G B L J M P D K C T S W R N Z,,,,,,,,,,,,,,,,,,,,,,,,,,,,,,,,,,,,,,,,,,,,,,,,,,,,,,,,,,,,,,,,,,,,,,,,,,,,,,,,,,,,,,,,,,,,,
,,,,,,,,,,5ef05cee60a444581ce3d0dd,24,Mężczyzna,2022-06-04_08h32.59.862,task,2021.1.4,Win32,164.8804617,628b806c463b948bc644b84f,629af96b5b47ef4a7228d6e6,,,,,1,0,1,0,1,X V Q F H G B L J M P D K C T S W R N Z,,,,,,,,,,,,,,,,,,,,,,,,,,,,,,,,,,,,,,,,,,,,,,,,,,,,,,,,,,,,,,,,,,,,,,,,,,,,,,,,,,,,,,,,,,,,,
,,,,,,,,,,5ef05cee60a444581ce3d0dd,24,Mężczyzna,2022-06-04_08h32.59.862,task,2021.1.4,Win32,164.8804617,628b806c463b948bc644b84f,629af96b5b47ef4a7228d6e6,,,,,2,0,2,0,1,X V Q F H G B L J M P D K C T S W R N Z,,,,,,,,,,,,,,,,,,,,,,,,,,,,,,,,,,,,,,,,,,,,,,,,,,,,,,,,,,,,,,,,,,,,,,,,,,,,,,,,,,,,,,,,,,,,,
,,,,,,,,,,5ef05cee60a444581ce3d0dd,24,Mężczyzna,2022-06-04_08h32.59.862,task,2021.1.4,Win32,164.8804617,628b806c463b948bc644b84f,629af96b5b47ef4a7228d6e6,,,,,3,0,3,0,1,X V Q F H G B L J M P D K C T S W R N Z,,,,,,,,,,,,,,,,,,,,,,,,,,,,,,,,,,,,,,,,,,,,,,,,,,,,,,,,,,,,,,,,,,,,,,,,,,,,,,,,,,,,,,,,,,,,,
,,,,,,,,,,5ef05cee60a444581ce3d0dd,24,Mężczyzna,2022-06-04_08h32.59.862,task,2021.1.4,Win32,164.8804617,628b806c463b948bc644b84f,629af96b5b47ef4a7228d6e6,,,,,4,0,4,0,1,X V Q F H G B L J M P D K C T S W R N Z,,,,,,,,,,,,,,,,,,,,,,,,,,,,,,,,,,,,,,,,,,,,,,,,,,,,,,,,,,,,,,,,,,,,,,,,,,,,,,,,,,,,,,,,,,,,,
,,,,,,,,,,5ef05cee60a444581ce3d0dd,24,Mężczyzna,2022-06-04_08h32.59.862,task,2021.1.4,Win32,164.8804617,628b806c463b948bc644b84f,629af96b5b47ef4a7228d6e6,,,,,5,0,5,0,1,X V Q F H G B L J M P D K C T S W R N Z,,,,,,,,,,,,,,,,,,,,,,,,,,,,,,,,,,,,,,,,,,,,,,,,,,,,,,,,,,,,,,,,,,,,,,,,,,,,,,,,,,,,,,,,,,,,,
,,,,,,,,,,5ef05cee60a444581ce3d0dd,24,Mężczyzna,2022-06-04_08h32.59.862,task,2021.1.4,Win32,164.8804617,628b806c463b948bc644b84f,629af96b5b47ef4a7228d6e6,,,,,,,,,,,mjblcx,"[""m"",""j"",""b"",""l"",""c"",""x""]","[3.078100000143081,3.349900000095431,7.901900000095452,11.26990000009539,11.5339000000954,12.021900000095457,12.413900000095396]",1,MJBLCX,11,0,11,0,1,,,,,,,,,,,,,,,,,,,,,,,,,,,,,,,,,,,,,,,,,,,,,,,,,,,,,,,,,,,,,,,,,,,,,,,,,,,,,,,,,,,
,,,,,,,,,,5ef05cee60a444581ce3d0dd,24,Mężczyzna,2022-06-04_08h32.59.862,task,2021.1.4,Win32,164.8804617,628b806c463b948bc644b84f,629af96b5b47ef4a7228d6e6,,,,,0,0,0,0,1,X V Q F H G B L J M P D K C T S W R N Z,,,,,,,,,,,,,,,,,,,,,,,,,,,,,,,,,,,,,,,,,,,,,,,,,,,,,,,,,,,,,,,,,,,,,,,,,,,,,,,,,,,,,,,,,,,,,
,,,,,,,,,,5ef05cee60a444581ce3d0dd,24,Mężczyzna,2022-06-04_08h32.59.862,task,2021.1.4,Win32,164.8804617,628b806c463b948bc644b84f,629af96b5b47ef4a7228d6e6,,,,,1,0,1,0,1,X V Q F H G B L J M P D K C T S W R N Z,,,,,,,,,,,,,,,,,,,,,,,,,,,,,,,,,,,,,,,,,,,,,,,,,,,,,,,,,,,,,,,,,,,,,,,,,,,,,,,,,,,,,,,,,,,,,
,,,,,,,,,,5ef05cee60a444581ce3d0dd,24,Mężczyzna,2022-06-04_08h32.59.862,task,2021.1.4,Win32,164.8804617,628b806c463b948bc644b84f,629af96b5b47ef4a7228d6e6,,,,,2,0,2,0,1,X V Q F H G B L J M P D K C T S W R N Z,,,,,,,,,,,,,,,,,,,,,,,,,,,,,,,,,,,,,,,,,,,,,,,,,,,,,,,,,,,,,,,,,,,,,,,,,,,,,,,,,,,,,,,,,,,,,
,,,,,,,,,,5ef05cee60a444581ce3d0dd,24,Mężczyzna,2022-06-04_08h32.59.862,task,2021.1.4,Win32,164.8804617,628b806c463b948bc644b84f,629af96b5b47ef4a7228d6e6,,,,,3,0,3,0,1,X V Q F H G B L J M P D K C T S W R N Z,,,,,,,,,,,,,,,,,,,,,,,,,,,,,,,,,,,,,,,,,,,,,,,,,,,,,,,,,,,,,,,,,,,,,,,,,,,,,,,,,,,,,,,,,,,,,
,,,,,,,,,,5ef05cee60a444581ce3d0dd,24,Mężczyzna,2022-06-04_08h32.59.862,task,2021.1.4,Win32,164.8804617,628b806c463b948bc644b84f,629af96b5b47ef4a7228d6e6,,,,,4,0,4,0,1,X V Q F H G B L J M P D K C T S W R N Z,,,,,,,,,,,,,,,,,,,,,,,,,,,,,,,,,,,,,,,,,,,,,,,,,,,,,,,,,,,,,,,,,,,,,,,,,,,,,,,,,,,,,,,,,,,,,
,,,,,,,,,,5ef05cee60a444581ce3d0dd,24,Mężczyzna,2022-06-04_08h32.59.862,task,2021.1.4,Win32,164.8804617,628b806c463b948bc644b84f,629af96b5b47ef4a7228d6e6,,,,,5,0,5,0,1,X V Q F H G B L J M P D K C T S W R N Z,,,,,,,,,,,,,,,,,,,,,,,,,,,,,,,,,,,,,,,,,,,,,,,,,,,,,,,,,,,,,,,,,,,,,,,,,,,,,,,,,,,,,,,,,,,,,
,,,,,,,,,,5ef05cee60a444581ce3d0dd,24,Mężczyzna,2022-06-04_08h32.59.862,task,2021.1.4,Win32,164.8804617,628b806c463b948bc644b84f,629af96b5b47ef4a7228d6e6,,,,,6,0,6,0,1,X V Q F H G B L J M P D K C T S W R N Z,,,,,,,,,,,,,,,,,,,,,,,,,,,,,,,,,,,,,,,,,,,,,,,,,,,,,,,,,,,,,,,,,,,,,,,,,,,,,,,,,,,,,,,,,,,,,
,,,,,,,,,,5ef05cee60a444581ce3d0dd,24,Mężczyzna,2022-06-04_08h32.59.862,task,2021.1.4,Win32,164.8804617,628b806c463b948bc644b84f,629af96b5b47ef4a7228d6e6,,,,,,,,,,,zwbptck,"[""z"",""w"",""b"",""p"",""t"",""c"",""k""]","[2.051399999856926,2.771299999952248,3.1872999999523017,4.987299999952256,5.259199999809198,5.627299999952243,6.883299999952328,8.899199999809184]",1,ZWBPTCK,12,0,12,0,1,,,,,,,,,,,,,,,,,,,,,,,,,,,,,,,,,,,,,,,,,,,,,,,,,,,,,,,,,,,,,,,,,,,,,,,,,,,,,,,,,,,
,,,,,,,,,,5ef05cee60a444581ce3d0dd,24,Mężczyzna,2022-06-04_08h32.59.862,task,2021.1.4,Win32,164.8804617,628b806c463b948bc644b84f,629af96b5b47ef4a7228d6e6,,,,,0,0,0,0,1,X V Q F H G B L J M P D K C T S W R N Z,,,,,,,,,,,,,,,,,,,,,,,,,,,,,,,,,,,,,,,,,,,,,,,,,,,,,,,,,,,,,,,,,,,,,,,,,,,,,,,,,,,,,,,,,,,,,
,,,,,,,,,,5ef05cee60a444581ce3d0dd,24,Mężczyzna,2022-06-04_08h32.59.862,task,2021.1.4,Win32,164.8804617,628b806c463b948bc644b84f,629af96b5b47ef4a7228d6e6,,,,,1,0,1,0,1,X V Q F H G B L J M P D K C T S W R N Z,,,,,,,,,,,,,,,,,,,,,,,,,,,,,,,,,,,,,,,,,,,,,,,,,,,,,,,,,,,,,,,,,,,,,,,,,,,,,,,,,,,,,,,,,,,,,
,,,,,,,,,,5ef05cee60a444581ce3d0dd,24,Mężczyzna,2022-06-04_08h32.59.862,task,2021.1.4,Win32,164.8804617,628b806c463b948bc644b84f,629af96b5b47ef4a7228d6e6,,,,,2,0,2,0,1,X V Q F H G B L J M P D K C T S W R N Z,,,,,,,,,,,,,,,,,,,,,,,,,,,,,,,,,,,,,,,,,,,,,,,,,,,,,,,,,,,,,,,,,,,,,,,,,,,,,,,,,,,,,,,,,,,,,
,,,,,,,,,,5ef05cee60a444581ce3d0dd,24,Mężczyzna,2022-06-04_08h32.59.862,task,2021.1.4,Win32,164.8804617,628b806c463b948bc644b84f,629af96b5b47ef4a7228d6e6,,,,,3,0,3,0,1,X V Q F H G B L J M P D K C T S W R N Z,,,,,,,,,,,,,,,,,,,,,,,,,,,,,,,,,,,,,,,,,,,,,,,,,,,,,,,,,,,,,,,,,,,,,,,,,,,,,,,,,,,,,,,,,,,,,
,,,,,,,,,,5ef05cee60a444581ce3d0dd,24,Mężczyzna,2022-06-04_08h32.59.862,task,2021.1.4,Win32,164.8804617,628b806c463b948bc644b84f,629af96b5b47ef4a7228d6e6,,,,,4,0,4,0,1,X V Q F H G B L J M P D K C T S W R N Z,,,,,,,,,,,,,,,,,,,,,,,,,,,,,,,,,,,,,,,,,,,,,,,,,,,,,,,,,,,,,,,,,,,,,,,,,,,,,,,,,,,,,,,,,,,,,
,,,,,,,,,,5ef05cee60a444581ce3d0dd,24,Mężczyzna,2022-06-04_08h32.59.862,task,2021.1.4,Win32,164.8804617,628b806c463b948bc644b84f,629af96b5b47ef4a7228d6e6,,,,,5,0,5,0,1,X V Q F H G B L J M P D K C T S W R N Z,,,,,,,,,,,,,,,,,,,,,,,,,,,,,,,,,,,,,,,,,,,,,,,,,,,,,,,,,,,,,,,,,,,,,,,,,,,,,,,,,,,,,,,,,,,,,
,,,,,,,,,,5ef05cee60a444581ce3d0dd,24,Mężczyzna,2022-06-04_08h32.59.862,task,2021.1.4,Win32,164.8804617,628b806c463b948bc644b84f,629af96b5b47ef4a7228d6e6,,,,,6,0,6,0,1,X V Q F H G B L J M P D K C T S W R N Z,,,,,,,,,,,,,,,,,,,,,,,,,,,,,,,,,,,,,,,,,,,,,,,,,,,,,,,,,,,,,,,,,,,,,,,,,,,,,,,,,,,,,,,,,,,,,
,,,,,,,,,,5ef05cee60a444581ce3d0dd,24,Mężczyzna,2022-06-04_08h32.59.862,task,2021.1.4,Win32,164.8804617,628b806c463b948bc644b84f,629af96b5b47ef4a7228d6e6,,,,,,,,,,,wkndhjr,"[""w"",""k"",""n"",""d"",""h"",""j"",""r""]","[2.4419000000954156,2.786000000000058,4.065799999952333,4.345799999952305,5.049900000095363,5.337799999952381,5.545799999952351,6.24190000009537]",0,NKNDHJR,13,0,13,0,1,,,,,,,,,,,,,,,,,,,,,,,,,,,,,,,,,,,,,,,,,,,,,,,,,,,,,,,,,,,,,,,,,,,,,,,,,,,,,,,,,,,
,,,,,,,,,,5ef05cee60a444581ce3d0dd,24,Mężczyzna,2022-06-04_08h32.59.862,task,2021.1.4,Win32,164.8804617,628b806c463b948bc644b84f,629af96b5b47ef4a7228d6e6,,,,,0,0,0,0,1,X V Q F H G B L J M P D K C T S W R N Z,,,,,,,,,,,,,,,,,,,,,,,,,,,,,,,,,,,,,,,,,,,,,,,,,,,,,,,,,,,,,,,,,,,,,,,,,,,,,,,,,,,,,,,,,,,,,
,,,,,,,,,,5ef05cee60a444581ce3d0dd,24,Mężczyzna,2022-06-04_08h32.59.862,task,2021.1.4,Win32,164.8804617,628b806c463b948bc644b84f,629af96b5b47ef4a7228d6e6,,,,,1,0,1,0,1,X V Q F H G B L J M P D K C T S W R N Z,,,,,,,,,,,,,,,,,,,,,,,,,,,,,,,,,,,,,,,,,,,,,,,,,,,,,,,,,,,,,,,,,,,,,,,,,,,,,,,,,,,,,,,,,,,,,
,,,,,,,,,,5ef05cee60a444581ce3d0dd,24,Mężczyzna,2022-06-04_08h32.59.862,task,2021.1.4,Win32,164.8804617,628b806c463b948bc644b84f,629af96b5b47ef4a7228d6e6,,,,,2,0,2,0,1,X V Q F H G B L J M P D K C T S W R N Z,,,,,,,,,,,,,,,,,,,,,,,,,,,,,,,,,,,,,,,,,,,,,,,,,,,,,,,,,,,,,,,,,,,,,,,,,,,,,,,,,,,,,,,,,,,,,
,,,,,,,,,,5ef05cee60a444581ce3d0dd,24,Mężczyzna,2022-06-04_08h32.59.862,task,2021.1.4,Win32,164.8804617,628b806c463b948bc644b84f,629af96b5b47ef4a7228d6e6,,,,,3,0,3,0,1,X V Q F H G B L J M P D K C T S W R N Z,,,,,,,,,,,,,,,,,,,,,,,,,,,,,,,,,,,,,,,,,,,,,,,,,,,,,,,,,,,,,,,,,,,,,,,,,,,,,,,,,,,,,,,,,,,,,
,,,,,,,,,,5ef05cee60a444581ce3d0dd,24,Mężczyzna,2022-06-04_08h32.59.862,task,2021.1.4,Win32,164.8804617,628b806c463b948bc644b84f,629af96b5b47ef4a7228d6e6,,,,,4,0,4,0,1,X V Q F H G B L J M P D K C T S W R N Z,,,,,,,,,,,,,,,,,,,,,,,,,,,,,,,,,,,,,,,,,,,,,,,,,,,,,,,,,,,,,,,,,,,,,,,,,,,,,,,,,,,,,,,,,,,,,
,,,,,,,,,,5ef05cee60a444581ce3d0dd,24,Mężczyzna,2022-06-04_08h32.59.862,task,2021.1.4,Win32,164.8804617,628b806c463b948bc644b84f,629af96b5b47ef4a7228d6e6,,,,,5,0,5,0,1,X V Q F H G B L J M P D K C T S W R N Z,,,,,,,,,,,,,,,,,,,,,,,,,,,,,,,,,,,,,,,,,,,,,,,,,,,,,,,,,,,,,,,,,,,,,,,,,,,,,,,,,,,,,,,,,,,,,
,,,,,,,,,,5ef05cee60a444581ce3d0dd,24,Mężczyzna,2022-06-04_08h32.59.862,task,2021.1.4,Win32,164.8804617,628b806c463b948bc644b84f,629af96b5b47ef4a7228d6e6,,,,,6,0,6,0,1,X V Q F H G B L J M P D K C T S W R N Z,,,,,,,,,,,,,,,,,,,,,,,,,,,,,,,,,,,,,,,,,,,,,,,,,,,,,,,,,,,,,,,,,,,,,,,,,,,,,,,,,,,,,,,,,,,,,
,,,,,,,,,,5ef05cee60a444581ce3d0dd,24,Mężczyzna,2022-06-04_08h32.59.862,task,2021.1.4,Win32,164.8804617,628b806c463b948bc644b84f,629af96b5b47ef4a7228d6e6,,,,,,,,,,,khjrvqg,"[""k"",""h"",""j"",""r"",""v"",""q"",""g""]","[4.364200000047731,4.7483000001907385,5.620200000047703,5.9080000000000155,6.220400000095424,6.548000000000002,8.748000000000047,12.06030000019075]",1,KHJRVQG,14,0,14,0,1,,,,,,,,,,,,,,,,,,,,,,,,,,,,,,,,,,,,,,,,,,,,,,,,,,,,,,,,,,,,,,,,,,,,,,,,,,,,,,,,,,,
,,,,,,,,,,5ef05cee60a444581ce3d0dd,24,Mężczyzna,2022-06-04_08h32.59.862,task,2021.1.4,Win32,164.8804617,628b806c463b948bc644b84f,629af96b5b47ef4a7228d6e6,,,,,0,0,0,0,1,X V Q F H G B L J M P D K C T S W R N Z,,,,,,,,,,,,,,,,,,,,,,,,,,,,,,,,,,,,,,,,,,,,,,,,,,,,,,,,,,,,,,,,,,,,,,,,,,,,,,,,,,,,,,,,,,,,,
,,,,,,,,,,5ef05cee60a444581ce3d0dd,24,Mężczyzna,2022-06-04_08h32.59.862,task,2021.1.4,Win32,164.8804617,628b806c463b948bc644b84f,629af96b5b47ef4a7228d6e6,,,,,1,0,1,0,1,X V Q F H G B L J M P D K C T S W R N Z,,,,,,,,,,,,,,,,,,,,,,,,,,,,,,,,,,,,,,,,,,,,,,,,,,,,,,,,,,,,,,,,,,,,,,,,,,,,,,,,,,,,,,,,,,,,,
,,,,,,,,,,5ef05cee60a444581ce3d0dd,24,Mężczyzna,2022-06-04_08h32.59.862,task,2021.1.4,Win32,164.8804617,628b806c463b948bc644b84f,629af96b5b47ef4a7228d6e6,,,,,2,0,2,0,1,X V Q F H G B L J M P D K C T S W R N Z,,,,,,,,,,,,,,,,,,,,,,,,,,,,,,,,,,,,,,,,,,,,,,,,,,,,,,,,,,,,,,,,,,,,,,,,,,,,,,,,,,,,,,,,,,,,,
,,,,,,,,,,5ef05cee60a444581ce3d0dd,24,Mężczyzna,2022-06-04_08h32.59.862,task,2021.1.4,Win32,164.8804617,628b806c463b948bc644b84f,629af96b5b47ef4a7228d6e6,,,,,3,0,3,0,1,X V Q F H G B L J M P D K C T S W R N Z,,,,,,,,,,,,,,,,,,,,,,,,,,,,,,,,,,,,,,,,,,,,,,,,,,,,,,,,,,,,,,,,,,,,,,,,,,,,,,,,,,,,,,,,,,,,,
,,,,,,,,,,5ef05cee60a444581ce3d0dd,24,Mężczyzna,2022-06-04_08h32.59.862,task,2021.1.4,Win32,164.8804617,628b806c463b948bc644b84f,629af96b5b47ef4a7228d6e6,,,,,4,0,4,0,1,X V Q F H G B L J M P D K C T S W R N Z,,,,,,,,,,,,,,,,,,,,,,,,,,,,,,,,,,,,,,,,,,,,,,,,,,,,,,,,,,,,,,,,,,,,,,,,,,,,,,,,,,,,,,,,,,,,,
,,,,,,,,,,5ef05cee60a444581ce3d0dd,24,Mężczyzna,2022-06-04_08h32.59.862,task,2021.1.4,Win32,164.8804617,628b806c463b948bc644b84f,629af96b5b47ef4a7228d6e6,,,,,5,0,5,0,1,X V Q F H G B L J M P D K C T S W R N Z,,,,,,,,,,,,,,,,,,,,,,,,,,,,,,,,,,,,,,,,,,,,,,,,,,,,,,,,,,,,,,,,,,,,,,,,,,,,,,,,,,,,,,,,,,,,,
,,,,,,,,,,5ef05cee60a444581ce3d0dd,24,Mężczyzna,2022-06-04_08h32.59.862,task,2021.1.4,Win32,164.8804617,628b806c463b948bc644b84f,629af96b5b47ef4a7228d6e6,,,,,6,0,6,0,1,X V Q F H G B L J M P D K C T S W R N Z,,,,,,,,,,,,,,,,,,,,,,,,,,,,,,,,,,,,,,,,,,,,,,,,,,,,,,,,,,,,,,,,,,,,,,,,,,,,,,,,,,,,,,,,,,,,,
,,,,,,,,,,5ef05cee60a444581ce3d0dd,24,Mężczyzna,2022-06-04_08h32.59.862,task,2021.1.4,Win32,164.8804617,628b806c463b948bc644b84f,629af96b5b47ef4a7228d6e6,,,,,7,0,7,0,1,X V Q F H G B L J M P D K C T S W R N Z,,,,,,,,,,,,,,,,,,,,,,,,,,,,,,,,,,,,,,,,,,,,,,,,,,,,,,,,,,,,,,,,,,,,,,,,,,,,,,,,,,,,,,,,,,,,,
,,,,,,,,,,5ef05cee60a444581ce3d0dd,24,Mężczyzna,2022-06-04_08h32.59.862,task,2021.1.4,Win32,164.8804617,628b806c463b948bc644b84f,629af96b5b47ef4a7228d6e6,,,,,,,,,,,hsrqhlcs,"[""h"",""s"",""r"",""q"",""h"",""l"",""c"",""s""]","[2.392500000000041,3.9042999999522863,4.792200000047728,5.168299999952296,7.144299999952295,7.656299999952353,10.08029999995233,10.160200000047666,12.848400000095353]",1,HSRQHLCS,15,0,15,0,1,,,,,,,,,,,,,,,,,,,,,,,,,,,,,,,,,,,,,,,,,,,,,,,,,,,,,,,,,,,,,,,,,,,,,,,,,,,,,,,,,,,
,,,,,,,,,,5ef05cee60a444581ce3d0dd,24,Mężczyzna,2022-06-04_08h32.59.862,task,2021.1.4,Win32,164.8804617,628b806c463b948bc644b84f,629af96b5b47ef4a7228d6e6,,,,,0,0,0,0,1,X V Q F H G B L J M P D K C T S W R N Z,,,,,,,,,,,,,,,,,,,,,,,,,,,,,,,,,,,,,,,,,,,,,,,,,,,,,,,,,,,,,,,,,,,,,,,,,,,,,,,,,,,,,,,,,,,,,
,,,,,,,,,,5ef05cee60a444581ce3d0dd,24,Mężczyzna,2022-06-04_08h32.59.862,task,2021.1.4,Win32,164.8804617,628b806c463b948bc644b84f,629af96b5b47ef4a7228d6e6,,,,,1,0,1,0,1,X V Q F H G B L J M P D K C T S W R N Z,,,,,,,,,,,,,,,,,,,,,,,,,,,,,,,,,,,,,,,,,,,,,,,,,,,,,,,,,,,,,,,,,,,,,,,,,,,,,,,,,,,,,,,,,,,,,
,,,,,,,,,,5ef05cee60a444581ce3d0dd,24,Mężczyzna,2022-06-04_08h32.59.862,task,2021.1.4,Win32,164.8804617,628b806c463b948bc644b84f,629af96b5b47ef4a7228d6e6,,,,,2,0,2,0,1,X V Q F H G B L J M P D K C T S W R N Z,,,,,,,,,,,,,,,,,,,,,,,,,,,,,,,,,,,,,,,,,,,,,,,,,,,,,,,,,,,,,,,,,,,,,,,,,,,,,,,,,,,,,,,,,,,,,
,,,,,,,,,,5ef05cee60a444581ce3d0dd,24,Mężczyzna,2022-06-04_08h32.59.862,task,2021.1.4,Win32,164.8804617,628b806c463b948bc644b84f,629af96b5b47ef4a7228d6e6,,,,,3,0,3,0,1,X V Q F H G B L J M P D K C T S W R N Z,,,,,,,,,,,,,,,,,,,,,,,,,,,,,,,,,,,,,,,,,,,,,,,,,,,,,,,,,,,,,,,,,,,,,,,,,,,,,,,,,,,,,,,,,,,,,
,,,,,,,,,,5ef05cee60a444581ce3d0dd,24,Mężczyzna,2022-06-04_08h32.59.862,task,2021.1.4,Win32,164.8804617,628b806c463b948bc644b84f,629af96b5b47ef4a7228d6e6,,,,,4,0,4,0,1,X V Q F H G B L J M P D K C T S W R N Z,,,,,,,,,,,,,,,,,,,,,,,,,,,,,,,,,,,,,,,,,,,,,,,,,,,,,,,,,,,,,,,,,,,,,,,,,,,,,,,,,,,,,,,,,,,,,
,,,,,,,,,,5ef05cee60a444581ce3d0dd,24,Mężczyzna,2022-06-04_08h32.59.862,task,2021.1.4,Win32,164.8804617,628b806c463b948bc644b84f,629af96b5b47ef4a7228d6e6,,,,,5,0,5,0,1,X V Q F H G B L J M P D K C T S W R N Z,,,,,,,,,,,,,,,,,,,,,,,,,,,,,,,,,,,,,,,,,,,,,,,,,,,,,,,,,,,,,,,,,,,,,,,,,,,,,,,,,,,,,,,,,,,,,
,,,,,,,,,,5ef05cee60a444581ce3d0dd,24,Mężczyzna,2022-06-04_08h32.59.862,task,2021.1.4,Win32,164.8804617,628b806c463b948bc644b84f,629af96b5b47ef4a7228d6e6,,,,,6,0,6,0,1,X V Q F H G B L J M P D K C T S W R N Z,,,,,,,,,,,,,,,,,,,,,,,,,,,,,,,,,,,,,,,,,,,,,,,,,,,,,,,,,,,,,,,,,,,,,,,,,,,,,,,,,,,,,,,,,,,,,
,,,,,,,,,,5ef05cee60a444581ce3d0dd,24,Mężczyzna,2022-06-04_08h32.59.862,task,2021.1.4,Win32,164.8804617,628b806c463b948bc644b84f,629af96b5b47ef4a7228d6e6,,,,,7,0,7,0,1,X V Q F H G B L J M P D K C T S W R N Z,,,,,,,,,,,,,,,,,,,,,,,,,,,,,,,,,,,,,,,,,,,,,,,,,,,,,,,,,,,,,,,,,,,,,,,,,,,,,,,,,,,,,,,,,,,,,
,,,,,,,,,,5ef05cee60a444581ce3d0dd,24,Mężczyzna,2022-06-04_08h32.59.862,task,2021.1.4,Win32,164.8804617,628b806c463b948bc644b84f,629af96b5b47ef4a7228d6e6,,,,,,,,,,,kljhlhlsp,"[""k"",""l"",""j"",""h"",""l"",""h"",""l"",""s"",""p""]","[3.6337000000477246,3.8095999999046626,5.712900000095374,8.264999999999986,8.688999999999965,11.312999999999988,11.784900000095377,13.962099999904694,15.497000000000071,17.257400000095345]",0,KLJLHLSP,16,0,16,0,1,,,,,,,,,,,,,,,,,,,,,,,,,,,,,,,,,,,,,,,,,,,,,,,,,,,,,,,,,,,,,,,,,,,,,,,,,,,,,,,,,,,
,,,,,,,,,,5ef05cee60a444581ce3d0dd,24,Mężczyzna,2022-06-04_08h32.59.862,task,2021.1.4,Win32,164.8804617,628b806c463b948bc644b84f,629af96b5b47ef4a7228d6e6,,,,,0,0,0,0,1,X V Q F H G B L J M P D K C T S W R N Z,,,,,,,,,,,,,,,,,,,,,,,,,,,,,,,,,,,,,,,,,,,,,,,,,,,,,,,,,,,,,,,,,,,,,,,,,,,,,,,,,,,,,,,,,,,,,
,,,,,,,,,,5ef05cee60a444581ce3d0dd,24,Mężczyzna,2022-06-04_08h32.59.862,task,2021.1.4,Win32,164.8804617,628b806c463b948bc644b84f,629af96b5b47ef4a7228d6e6,,,,,1,0,1,0,1,X V Q F H G B L J M P D K C T S W R N Z,,,,,,,,,,,,,,,,,,,,,,,,,,,,,,,,,,,,,,,,,,,,,,,,,,,,,,,,,,,,,,,,,,,,,,,,,,,,,,,,,,,,,,,,,,,,,
,,,,,,,,,,5ef05cee60a444581ce3d0dd,24,Mężczyzna,2022-06-04_08h32.59.862,task,2021.1.4,Win32,164.8804617,628b806c463b948bc644b84f,629af96b5b47ef4a7228d6e6,,,,,2,0,2,0,1,X V Q F H G B L J M P D K C T S W R N Z,,,,,,,,,,,,,,,,,,,,,,,,,,,,,,,,,,,,,,,,,,,,,,,,,,,,,,,,,,,,,,,,,,,,,,,,,,,,,,,,,,,,,,,,,,,,,
,,,,,,,,,,5ef05cee60a444581ce3d0dd,24,Mężczyzna,2022-06-04_08h32.59.862,task,2021.1.4,Win32,164.8804617,628b806c463b948bc644b84f,629af96b5b47ef4a7228d6e6,,,,,3,0,3,0,1,X V Q F H G B L J M P D K C T S W R N Z,,,,,,,,,,,,,,,,,,,,,,,,,,,,,,,,,,,,,,,,,,,,,,,,,,,,,,,,,,,,,,,,,,,,,,,,,,,,,,,,,,,,,,,,,,,,,
,,,,,,,,,,5ef05cee60a444581ce3d0dd,24,Mężczyzna,2022-06-04_08h32.59.862,task,2021.1.4,Win32,164.8804617,628b806c463b948bc644b84f,629af96b5b47ef4a7228d6e6,,,,,4,0,4,0,1,X V Q F H G B L J M P D K C T S W R N Z,,,,,,,,,,,,,,,,,,,,,,,,,,,,,,,,,,,,,,,,,,,,,,,,,,,,,,,,,,,,,,,,,,,,,,,,,,,,,,,,,,,,,,,,,,,,,
,,,,,,,,,,5ef05cee60a444581ce3d0dd,24,Mężczyzna,2022-06-04_08h32.59.862,task,2021.1.4,Win32,164.8804617,628b806c463b948bc644b84f,629af96b5b47ef4a7228d6e6,,,,,5,0,5,0,1,X V Q F H G B L J M P D K C T S W R N Z,,,,,,,,,,,,,,,,,,,,,,,,,,,,,,,,,,,,,,,,,,,,,,,,,,,,,,,,,,,,,,,,,,,,,,,,,,,,,,,,,,,,,,,,,,,,,
,,,,,,,,,,5ef05cee60a444581ce3d0dd,24,Mężczyzna,2022-06-04_08h32.59.862,task,2021.1.4,Win32,164.8804617,628b806c463b948bc644b84f,629af96b5b47ef4a7228d6e6,,,,,6,0,6,0,1,X V Q F H G B L J M P D K C T S W R N Z,,,,,,,,,,,,,,,,,,,,,,,,,,,,,,,,,,,,,,,,,,,,,,,,,,,,,,,,,,,,,,,,,,,,,,,,,,,,,,,,,,,,,,,,,,,,,
,,,,,,,,,,5ef05cee60a444581ce3d0dd,24,Mężczyzna,2022-06-04_08h32.59.862,task,2021.1.4,Win32,164.8804617,628b806c463b948bc644b84f,629af96b5b47ef4a7228d6e6,,,,,7,0,7,0,1,X V Q F H G B L J M P D K C T S W R N Z,,,,,,,,,,,,,,,,,,,,,,,,,,,,,,,,,,,,,,,,,,,,,,,,,,,,,,,,,,,,,,,,,,,,,,,,,,,,,,,,,,,,,,,,,,,,,
,,,,,,,,,,5ef05cee60a444581ce3d0dd,24,Mężczyzna,2022-06-04_08h32.59.862,task,2021.1.4,Win32,164.8804617,628b806c463b948bc644b84f,629af96b5b47ef4a7228d6e6,,,,,,,,,,,nqgfqkwf,"[""n"",""q"",""g"",""f"",""q"",""k"",""w"",""f""]","[1.1039999999999281,1.5359000000953529,2.5679999999999836,2.9679000000953693,3.607800000190764,4.19180000019071,4.6718000001907285,4.999900000095295,8.887800000190737]",0,NQGFQKWQ,17,0,17,0,1,,,,,,,,,,,,,,,,,,,,,,,,,,,,,,,,,,,,,,,,,,,,,,,,,,,,,,,,,,,,,,,,,,,,,,,,,,,,,,,,,,,
,,,,,,,,,,5ef05cee60a444581ce3d0dd,24,Mężczyzna,2022-06-04_08h32.59.862,task,2021.1.4,Win32,164.8804617,628b806c463b948bc644b84f,629af96b5b47ef4a7228d6e6,,,,,0,0,0,0,1,X V Q F H G B L J M P D K C T S W R N Z,,,,,,,,,,,,,,,,,,,,,,,,,,,,,,,,,,,,,,,,,,,,,,,,,,,,,,,,,,,,,,,,,,,,,,,,,,,,,,,,,,,,,,,,,,,,,
,,,,,,,,,,5ef05cee60a444581ce3d0dd,24,Mężczyzna,2022-06-04_08h32.59.862,task,2021.1.4,Win32,164.8804617,628b806c463b948bc644b84f,629af96b5b47ef4a7228d6e6,,,,,1,0,1,0,1,X V Q F H G B L J M P D K C T S W R N Z,,,,,,,,,,,,,,,,,,,,,,,,,,,,,,,,,,,,,,,,,,,,,,,,,,,,,,,,,,,,,,,,,,,,,,,,,,,,,,,,,,,,,,,,,,,,,
,,,,,,,,,,5ef05cee60a444581ce3d0dd,24,Mężczyzna,2022-06-04_08h32.59.862,task,2021.1.4,Win32,164.8804617,628b806c463b948bc644b84f,629af96b5b47ef4a7228d6e6,,,,,2,0,2,0,1,X V Q F H G B L J M P D K C T S W R N Z,,,,,,,,,,,,,,,,,,,,,,,,,,,,,,,,,,,,,,,,,,,,,,,,,,,,,,,,,,,,,,,,,,,,,,,,,,,,,,,,,,,,,,,,,,,,,
,,,,,,,,,,5ef05cee60a444581ce3d0dd,24,Mężczyzna,2022-06-04_08h32.59.862,task,2021.1.4,Win32,164.8804617,628b806c463b948bc644b84f,629af96b5b47ef4a7228d6e6,,,,,3,0,3,0,1,X V Q F H G B L J M P D K C T S W R N Z,,,,,,,,,,,,,,,,,,,,,,,,,,,,,,,,,,,,,,,,,,,,,,,,,,,,,,,,,,,,,,,,,,,,,,,,,,,,,,,,,,,,,,,,,,,,,
,,,,,,,,,,5ef05cee60a444581ce3d0dd,24,Mężczyzna,2022-06-04_08h32.59.862,task,2021.1.4,Win32,164.8804617,628b806c463b948bc644b84f,629af96b5b47ef4a7228d6e6,,,,,4,0,4,0,1,X V Q F H G B L J M P D K C T S W R N Z,,,,,,,,,,,,,,,,,,,,,,,,,,,,,,,,,,,,,,,,,,,,,,,,,,,,,,,,,,,,,,,,,,,,,,,,,,,,,,,,,,,,,,,,,,,,,
,,,,,,,,,,5ef05cee60a444581ce3d0dd,24,Mężczyzna,2022-06-04_08h32.59.862,task,2021.1.4,Win32,164.8804617,628b806c463b948bc644b84f,629af96b5b47ef4a7228d6e6,,,,,5,0,5,0,1,X V Q F H G B L J M P D K C T S W R N Z,,,,,,,,,,,,,,,,,,,,,,,,,,,,,,,,,,,,,,,,,,,,,,,,,,,,,,,,,,,,,,,,,,,,,,,,,,,,,,,,,,,,,,,,,,,,,
,,,,,,,,,,5ef05cee60a444581ce3d0dd,24,Mężczyzna,2022-06-04_08h32.59.862,task,2021.1.4,Win32,164.8804617,628b806c463b948bc644b84f,629af96b5b47ef4a7228d6e6,,,,,6,0,6,0,1,X V Q F H G B L J M P D K C T S W R N Z,,,,,,,,,,,,,,,,,,,,,,,,,,,,,,,,,,,,,,,,,,,,,,,,,,,,,,,,,,,,,,,,,,,,,,,,,,,,,,,,,,,,,,,,,,,,,
,,,,,,,,,,5ef05cee60a444581ce3d0dd,24,Mężczyzna,2022-06-04_08h32.59.862,task,2021.1.4,Win32,164.8804617,628b806c463b948bc644b84f,629af96b5b47ef4a7228d6e6,,,,,7,0,7,0,1,X V Q F H G B L J M P D K C T S W R N Z,,,,,,,,,,,,,,,,,,,,,,,,,,,,,,,,,,,,,,,,,,,,,,,,,,,,,,,,,,,,,,,,,,,,,,,,,,,,,,,,,,,,,,,,,,,,,
,,,,,,,,,,5ef05cee60a444581ce3d0dd,24,Mężczyzna,2022-06-04_08h32.59.862,task,2021.1.4,Win32,164.8804617,628b806c463b948bc644b84f,629af96b5b47ef4a7228d6e6,,,,,,,,,,,dgnvvrql,"[""d"",""g"",""n"",""v"",""v"",""r"",""q"",""l""]","[2.6579999999999018,3.2499000000952947,6.2417999999522635,7.570799999952328,7.77020000004768,8.81870000004767,17.354099999904633,25.129799999952297,25.56259999990459]",0,DGNVVRQH,18,0,18,0,1,,,,,,,,,,,,,,,,,,,,,,,,,,,,,,,,,,,,,,,,,,,,,,,,,,,,,,,,,,,,,,,,,,,,,,,,,,,,,,,,,,,
,,,,,,,,,,5ef05cee60a444581ce3d0dd,24,Mężczyzna,2022-06-04_08h32.59.862,task,2021.1.4,Win32,164.8804617,628b806c463b948bc644b84f,629af96b5b47ef4a7228d6e6,,,,,,,,,,,,,,,,,,,,,space,9.6115,6,"[""6""]",1,[40.01060000014297],[40.01060000014297],0,0,0,6,1,Practice,7,(25/5) + 1,6,,,,,,,,,,,,,,,,,,,,,,,,,,,,,,,,,,,,,,,,,,,,,,,,,,,,,,,,,,,,,,,,,,,
,,,,,,,,,,5ef05cee60a444581ce3d0dd,24,Mężczyzna,2022-06-04_08h32.59.862,task,2021.1.4,Win32,164.8804617,628b806c463b948bc644b84f,629af96b5b47ef4a7228d6e6,,,,,,,,,,,,,,,,,,,,,,,0,"[""0""]",1,[11.841000000000008],"[40.01060000014297,11.841000000000008]",0,1,1,0,1,Practice,1,(3x3) -  9,0,,,,,,,,,,,,,,,,,,,,,,,,,,,,,,,,,,,,,,,,,,,,,,,,,,,,,,,,,,,,,,,,,,,
,,,,,,,,,,5ef05cee60a444581ce3d0dd,24,Mężczyzna,2022-06-04_08h32.59.862,task,2021.1.4,Win32,164.8804617,628b806c463b948bc644b84f,629af96b5b47ef4a7228d6e6,,,,,,,,,,,,,,,,,,,,,,,3,"[""3""]",1,[16.83320000004767],"[40.01060000014297,11.841000000000008,16.83320000004767]",0,2,2,3,1,Practice,4,(8/4) + 1,3,,,,,,,,,,,,,,,,,,,,,,,,,,,,,,,,,,,,,,,,,,,,,,,,,,,,,,,,,,,,,,,,,,,
,,,,,,,,,,5ef05cee60a444581ce3d0dd,24,Mężczyzna,2022-06-04_08h32.59.862,task,2021.1.4,Win32,164.8804617,628b806c463b948bc644b84f,629af96b5b47ef4a7228d6e6,,,,,,,,,,,,,,,,,,,,,,,2,"[""2""]",1,[9.105899999856888],"[40.01060000014297,11.841000000000008,16.83320000004767,9.105899999856888]",0,3,3,2,1,Practice,3,(4x4) - 14,2,,,,,,,,,,,,,,,,,,,,,,,,,,,,,,,,,,,,,,,,,,,,,,,,,,,,,,,,,,,,,,,,,,,
,,,,,,,,,,5ef05cee60a444581ce3d0dd,24,Mężczyzna,2022-06-04_08h32.59.862,task,2021.1.4,Win32,164.8804617,628b806c463b948bc644b84f,629af96b5b47ef4a7228d6e6,,,,,,,,,,,,,,,,,,,,,,,9,"[""9""]",1,[10.643599999904609],"[40.01060000014297,11.841000000000008,16.83320000004767,9.105899999856888,10.643599999904609]",0,4,4,9,1,Practice,10,(20/2) - 1,9,,,,,,,,,,,,,,,,,,,,,,,,,,,,,,,,,,,,,,,,,,,,,,,,,,,,,,,,,,,,,,,,,,,
,,,,,,,,,,5ef05cee60a444581ce3d0dd,24,Mężczyzna,2022-06-04_08h32.59.862,task,2021.1.4,Win32,164.8804617,628b806c463b948bc644b84f,629af96b5b47ef4a7228d6e6,,,,,,,,,,,,,,,,,,,,,,,5,"[""5""]",1,[10.789700000047674],"[40.01060000014297,11.841000000000008,16.83320000004767,9.105899999856888,10.643599999904609,10.789700000047674]",0,5,5,5,1,Practice,6,(4/2) + 3,5,,,,,,,,,,,,,,,,,,,,,,,,,,,,,,,,,,,,,,,,,,,,,,,,,,,,,,,,,,,,,,,,,,,
,,,,,,,,,,5ef05cee60a444581ce3d0dd,24,Mężczyzna,2022-06-04_08h32.59.862,task,2021.1.4,Win32,164.8804617,628b806c463b948bc644b84f,629af96b5b47ef4a7228d6e6,,,,,,,,,,,,,,,,,,,,,,,1,"[""1""]",1,[5.3497999999523245],"[40.01060000014297,11.841000000000008,16.83320000004767,9.105899999856888,10.643599999904609,10.789700000047674,5.3497999999523245]",0,6,6,1,1,Practice,2,(4x4) - 15,1,,,,,,,,,,,,,,,,,,,,,,,,,,,,,,,,,,,,,,,,,,,,,,,,,,,,,,,,,,,,,,,,,,,
,,,,,,,,,,5ef05cee60a444581ce3d0dd,24,Mężczyzna,2022-06-04_08h32.59.862,task,2021.1.4,Win32,164.8804617,628b806c463b948bc644b84f,629af96b5b47ef4a7228d6e6,,,,,,,,,,,,,,,,,,,,,,,4,"[""4""]",1,[10.125600000142981],"[40.01060000014297,11.841000000000008,16.83320000004767,9.105899999856888,10.643599999904609,10.789700000047674,5.3497999999523245,10.125600000142981]",0,7,7,4,1,Practice,5,(2x6) - 8,4,,,,,,,,,,,,,,,,,,,,,,,,,,,,,,,,,,,,,,,,,,,,,,,,,,,,,,,,,,,,,,,,,,,
,,,,,,,,,,5ef05cee60a444581ce3d0dd,24,Mężczyzna,2022-06-04_08h32.59.862,task,2021.1.4,Win32,164.8804617,628b806c463b948bc644b84f,629af96b5b47ef4a7228d6e6,,,,,,,,,,,,,,,,,,,,,,,8,"[""8""]",1,[8.432100000143123],"[40.01060000014297,11.841000000000008,16.83320000004767,9.105899999856888,10.643599999904609,10.789700000047674,5.3497999999523245,10.125600000142981,8.432100000143123]",0,8,8,8,1,Practice,9,(3x3) - 1,8,,,,,,,,,,,,,,,,,,,,,,,,,,,,,,,,,,,,,,,,,,,,,,,,,,,,,,,,,,,,,,,,,,,
,,,,,,,,,,5ef05cee60a444581ce3d0dd,24,Mężczyzna,2022-06-04_08h32.59.862,task,2021.1.4,Win32,164.8804617,628b806c463b948bc644b84f,629af96b5b47ef4a7228d6e6,,,,,,,,,,,,,,,,,,,,,,,7,"[""7""]",1,[4.943200000047682],"[40.01060000014297,11.841000000000008,16.83320000004767,9.105899999856888,10.643599999904609,10.789700000047674,5.3497999999523245,10.125600000142981,8.432100000143123,4.943200000047682]",0,9,9,7,1,Practice,8,(5x5) - 18,7,,,,,,,,,,,,,,,,,,,,,,,,,,,,,,,,,,,,,,,,,,,,,,,,,,,,,,,,,,,,,,,,,,,
,,,,,,,,,,5ef05cee60a444581ce3d0dd,24,Mężczyzna,2022-06-04_08h32.59.862,task,2021.1.4,Win32,164.8804617,628b806c463b948bc644b84f,629af96b5b47ef4a7228d6e6,,,,,,,,,,,,,,,,,,,,,,,,,,,,,,,,,,,,,1,128.0747,8.538313333,1105.663058,8.585503511,30.68891239,space,4.6599,0,0,0,0,1,,,,,,,,,,,,,,,,,,,,,,,,,,,,,,,,,,,,,,,,,,,,,,,,,,,,,,
,,,,,,,,,,5ef05cee60a444581ce3d0dd,24,Mężczyzna,2022-06-04_08h32.59.862,task,2021.1.4,Win32,164.8804617,628b806c463b948bc644b84f,629af96b5b47ef4a7228d6e6,,,,,,,,,,,,,,,,,,,,,,,7,,,,,,,,,,Practice,8,(5x5) - 18,7,,,,,,,,,,,,,,space,13.2552,"[""7""]",1,[5.690700000047741],1,0,0,0,7,1,,,,,,,,,,,,,,,,,,,,,,,,,,,,,,,,,,,,,,,,,,,
,,,,,,,,,,5ef05cee60a444581ce3d0dd,24,Mężczyzna,2022-06-04_08h32.59.862,task,2021.1.4,Win32,164.8804617,628b806c463b948bc644b84f,629af96b5b47ef4a7228d6e6,,,,,,,,,,X V Q F H G B L J M P D K C T S W R N Z,,,,,,,,,,,,,,,,,,,,,,,,,,,,,,,,,,,,,,,,,,,,,,,,,,,0,0,0,0,1,,,,,,,,,,,,,,,,,,,,,,,,,,,,,,,,,,,,,,
,,,,,,,,,,5ef05cee60a444581ce3d0dd,24,Mężczyzna,2022-06-04_08h32.59.862,task,2021.1.4,Win32,164.8804617,628b806c463b948bc644b84f,629af96b5b47ef4a7228d6e6,,,,,,,,,,,,,,,,,,,,,,,5,,,,,,,,,,Practice,6,(4/2) + 3,5,,,,,,,,,,,,,,,,"[""5""]",1,[17.582800000190787],1,0,0,0,5,1,,,,,,,,,,,,,,,,,,,,,,,,,,,,,,,,,,,,,,,,,,,
,,,,,,,,,,5ef05cee60a444581ce3d0dd,24,Mężczyzna,2022-06-04_08h32.59.862,task,2021.1.4,Win32,164.8804617,628b806c463b948bc644b84f,629af96b5b47ef4a7228d6e6,,,,,,,,,,X V Q F H G B L J M P D K C T S W R N Z,,,,,,,,,,,,,,,,,,,,,,,,,,,,,,,,,,,,,,,,,,,,,,,,,,,1,0,1,0,1,,,,,,,,,,,,,,,,,,,,,,,,,,,,,,,,,,,,,,
,,,,,,,,,,5ef05cee60a444581ce3d0dd,24,Mężczyzna,2022-06-04_08h32.59.862,task,2021.1.4,Win32,164.8804617,628b806c463b948bc644b84f,629af96b5b47ef4a7228d6e6,,,,,,,,,,,,,,,,,,,,,,,,,,,,,,,,,,,,,,,,,,,,,,,,,,,,,,,,,,,,,,,,,,zr,"[""z"",""r""]",0,"[4.182700000047703,4.4305999999046435,6.110799999952292]",1,0,0,0,0,1,,,,,,,,,,,,,,,,,,,,,,,,,,,,
,,,,,,,,,,5ef05cee60a444581ce3d0dd,24,Mężczyzna,2022-06-04_08h32.59.862,task,2021.1.4,Win32,164.8804617,628b806c463b948bc644b84f,629af96b5b47ef4a7228d6e6,,,,,,,,,,,,,,,,,,,,,,,7,,,,,,,,,,Practice,8,(5x5) - 18,7,,,,,,,,,,,,,,,,"[""7""]",1,[4.9382000000476864],1,0,0,0,7,1,,,,,,,,,,,,,,,,,,,,,,,,,,,,,,,,,,,,,,,,,,,
,,,,,,,,,,5ef05cee60a444581ce3d0dd,24,Mężczyzna,2022-06-04_08h32.59.862,task,2021.1.4,Win32,164.8804617,628b806c463b948bc644b84f,629af96b5b47ef4a7228d6e6,,,,,,,,,,X V Q F H G B L J M P D K C T S W R N Z,,,,,,,,,,,,,,,,,,,,,,,,,,,,,,,,,,,,,,,,,,,,,,,,,,,0,0,0,0,1,,,,,,,,,,,,,,,,,,,,,,,,,,,,,,,,,,,,,,
,,,,,,,,,,5ef05cee60a444581ce3d0dd,24,Mężczyzna,2022-06-04_08h32.59.862,task,2021.1.4,Win32,164.8804617,628b806c463b948bc644b84f,629af96b5b47ef4a7228d6e6,,,,,,,,,,,,,,,,,,,,,,,4,,,,,,,,,,Practice,5,(2x6) - 8,4,,,,,,,,,,,,,,,,"[""4""]",1,[5.8419999999999845],1,0,0,0,4,1,,,,,,,,,,,,,,,,,,,,,,,,,,,,,,,,,,,,,,,,,,,
,,,,,,,,,,5ef05cee60a444581ce3d0dd,24,Mężczyzna,2022-06-04_08h32.59.862,task,2021.1.4,Win32,164.8804617,628b806c463b948bc644b84f,629af96b5b47ef4a7228d6e6,,,,,,,,,,X V Q F H G B L J M P D K C T S W R N Z,,,,,,,,,,,,,,,,,,,,,,,,,,,,,,,,,,,,,,,,,,,,,,,,,,,1,0,1,0,1,,,,,,,,,,,,,,,,,,,,,,,,,,,,,,,,,,,,,,
,,,,,,,,,,5ef05cee60a444581ce3d0dd,24,Mężczyzna,2022-06-04_08h32.59.862,task,2021.1.4,Win32,164.8804617,628b806c463b948bc644b84f,629af96b5b47ef4a7228d6e6,,,,,,,,,,,,,,,,,,,,,,,,,,,,,,,,,,,,,,,,,,,,,,,,,,,,,,,,,,,,,,,,,,tl,"[""t"",""l""]",0,"[3.8617000000476764,4.405500000000075,5.28550000000007]",1,1,0,1,0,1,,,,,,,,,,,,,,,,,,,,,,,,,,,,
,,,,,,,,,,5ef05cee60a444581ce3d0dd,24,Mężczyzna,2022-06-04_08h32.59.862,task,2021.1.4,Win32,164.8804617,628b806c463b948bc644b84f,629af96b5b47ef4a7228d6e6,,,,,,,,,,,,,,,,,,,,,,,2,,,,,,,,,,Practice,3,(4x4) - 14,2,,,,,,,,,,,,,,,,"[""2""]",1,[4.084500000000048],1,0,0,0,2,1,,,,,,,,,,,,,,,,,,,,,,,,,,,,,,,,,,,,,,,,,,,
,,,,,,,,,,5ef05cee60a444581ce3d0dd,24,Mężczyzna,2022-06-04_08h32.59.862,task,2021.1.4,Win32,164.8804617,628b806c463b948bc644b84f,629af96b5b47ef4a7228d6e6,,,,,,,,,,X V Q F H G B L J M P D K C T S W R N Z,,,,,,,,,,,,,,,,,,,,,,,,,,,,,,,,,,,,,,,,,,,,,,,,,,,0,0,0,0,1,,,,,,,,,,,,,,,,,,,,,,,,,,,,,,,,,,,,,,
,,,,,,,,,,5ef05cee60a444581ce3d0dd,24,Mężczyzna,2022-06-04_08h32.59.862,task,2021.1.4,Win32,164.8804617,628b806c463b948bc644b84f,629af96b5b47ef4a7228d6e6,,,,,,,,,,,,,,,,,,,,,,,2,,,,,,,,,,Practice,3,(4x4) - 14,2,,,,,,,,,,,,,,,,"[""2""]",1,[6.452400000095395],1,0,0,0,2,1,,,,,,,,,,,,,,,,,,,,,,,,,,,,,,,,,,,,,,,,,,,
,,,,,,,,,,5ef05cee60a444581ce3d0dd,24,Mężczyzna,2022-06-04_08h32.59.862,task,2021.1.4,Win32,164.8804617,628b806c463b948bc644b84f,629af96b5b47ef4a7228d6e6,,,,,,,,,,X V Q F H G B L J M P D K C T S W R N Z,,,,,,,,,,,,,,,,,,,,,,,,,,,,,,,,,,,,,,,,,,,,,,,,,,,1,0,1,0,1,,,,,,,,,,,,,,,,,,,,,,,,,,,,,,,,,,,,,,
,,,,,,,,,,5ef05cee60a444581ce3d0dd,24,Mężczyzna,2022-06-04_08h32.59.862,task,2021.1.4,Win32,164.8804617,628b806c463b948bc644b84f,629af96b5b47ef4a7228d6e6,,,,,,,,,,,,,,,,,,,,,,,,,,,,,,,,,,,,,,,,,,,,,,,,,,,,,,,,,,,,,,,,,,bh,"[""b"",""h""]",0,"[3.62600000000009,3.8186000001430784,5.010700000047677]",1,2,0,2,0,1,,,,,,,,,,,,,,,,,,,,,,,,,,,,
,,,,,,,,,,5ef05cee60a444581ce3d0dd,24,Mężczyzna,2022-06-04_08h32.59.862,task,2021.1.4,Win32,164.8804617,628b806c463b948bc644b84f,629af96b5b47ef4a7228d6e6,,,,,,,,,,,,,,,,,,,,,,,7,,,,,,,,,,Task,14,(2x2) + 3,7,,,,,,,,,,,,,,,,,,,1,,,,,,,,,,,,,,,,,,,,,space,15.6845,"[""7""]",1,[7.08400000000006],0,0,0,13,1,,,,,,,,,,,,,,,,,,
,,,,,,,,,,5ef05cee60a444581ce3d0dd,24,Mężczyzna,2022-06-04_08h32.59.862,task,2021.1.4,Win32,164.8804617,628b806c463b948bc644b84f,629af96b5b47ef4a7228d6e6,,,,,,,,,,X V Q F H G B L J M P D K C T S W R N Z,,,,,,,,,,,,,,,,,,,,,,,,,,,,,,,,,,,,,,,,,,,,,,,,,,,,,,,,,,,,,,,,,,,,,,,,,,,,0,0,0,0,1,,,,,,,,,,,,,
,,,,,,,,,,5ef05cee60a444581ce3d0dd,24,Mężczyzna,2022-06-04_08h32.59.862,task,2021.1.4,Win32,164.8804617,628b806c463b948bc644b84f,629af96b5b47ef4a7228d6e6,,,,,,,,,,,,,,,,,,,,,,,3,,,,,,,,,,Task,20,(18/9) + 1,3,,,,,,,,,,,,,,,,,,,1,,,,,,,,,,,,,,,,,,,,,,,"[""3""]",1,[12.195799999952328],0,0,0,19,1,,,,,,,,,,,,,,,,,,
,,,,,,,,,,5ef05cee60a444581ce3d0dd,24,Mężczyzna,2022-06-04_08h32.59.862,task,2021.1.4,Win32,164.8804617,628b806c463b948bc644b84f,629af96b5b47ef4a7228d6e6,,,,,,,,,,X V Q F H G B L J M P D K C T S W R N Z,,,,,,,,,,,,,,,,,,,,,,,,,,,,,,,,,,,,,,,,,,,,,,,,,,,,,,,,,,,,,,,,,,,,,,,,,,,,1,0,1,0,1,,,,,,,,,,,,,
,,,,,,,,,,5ef05cee60a444581ce3d0dd,24,Mężczyzna,2022-06-04_08h32.59.862,task,2021.1.4,Win32,164.8804617,628b806c463b948bc644b84f,629af96b5b47ef4a7228d6e6,,,,,,,,,,,,,,,,,,,,,,,,,,,,,,,,,,,,,,,,,,,,,,,,,,,,,,,,,,,,,,,,,,,,,,,,,,,,,,,,,,,,,,,,,,,zw,"[""z"",""w""]",0,"[3.1909000000953256,3.4309000000953347,4.57490000009534]",1,ZW,0,0,0,0,1,,
,,,,,,,,,,5ef05cee60a444581ce3d0dd,24,Mężczyzna,2022-06-04_08h32.59.862,task,2021.1.4,Win32,164.8804617,628b806c463b948bc644b84f,629af96b5b47ef4a7228d6e6,,,,,,,,,,,,,,,,,,,,,,,0,,,,,,,,,,Task,33,(1/1) - 1,0,,,,,,,,,,,,,,,,,,,1,,,,,,,,,,,,,,,,,,,,,,,"[""0""]",1,[5.278100000143013],0,0,0,32,1,,,,,,,,,,,,,,,,,,
,,,,,,,,,,5ef05cee60a444581ce3d0dd,24,Mężczyzna,2022-06-04_08h32.59.862,task,2021.1.4,Win32,164.8804617,628b806c463b948bc644b84f,629af96b5b47ef4a7228d6e6,,,,,,,,,,X V Q F H G B L J M P D K C T S W R N Z,,,,,,,,,,,,,,,,,,,,,,,,,,,,,,,,,,,,,,,,,,,,,,,,,,,,,,,,,,,,,,,,,,,,,,,,,,,,0,0,0,0,1,,,,,,,,,,,,,
,,,,,,,,,,5ef05cee60a444581ce3d0dd,24,Mężczyzna,2022-06-04_08h32.59.862,task,2021.1.4,Win32,164.8804617,628b806c463b948bc644b84f,629af96b5b47ef4a7228d6e6,,,,,,,,,,,,,,,,,,,,,,,5,,,,,,,,,,Task,22,(3x1) + 2,5,,,,,,,,,,,,,,,,,,,1,,,,,,,,,,,,,,,,,,,,,,,"[""5""]",1,[11.29410000014309],0,0,0,21,1,,,,,,,,,,,,,,,,,,
,,,,,,,,,,5ef05cee60a444581ce3d0dd,24,Mężczyzna,2022-06-04_08h32.59.862,task,2021.1.4,Win32,164.8804617,628b806c463b948bc644b84f,629af96b5b47ef4a7228d6e6,,,,,,,,,,X V Q F H G B L J M P D K C T S W R N Z,,,,,,,,,,,,,,,,,,,,,,,,,,,,,,,,,,,,,,,,,,,,,,,,,,,,,,,,,,,,,,,,,,,,,,,,,,,,1,0,1,0,1,,,,,,,,,,,,,
,,,,,,,,,,5ef05cee60a444581ce3d0dd,24,Mężczyzna,2022-06-04_08h32.59.862,task,2021.1.4,Win32,164.8804617,628b806c463b948bc644b84f,629af96b5b47ef4a7228d6e6,,,,,,,,,,,,,,,,,,,,,,,6,,,,,,,,,,Task,30,(6/3) + 4 ,6,,,,,,,,,,,,,,,,,,,1,,,,,,,,,,,,,,,,,,,,,,,"[""6""]",1,[6.476500000000101],0,0,0,29,1,,,,,,,,,,,,,,,,,,
,,,,,,,,,,5ef05cee60a444581ce3d0dd,24,Mężczyzna,2022-06-04_08h32.59.862,task,2021.1.4,Win32,164.8804617,628b806c463b948bc644b84f,629af96b5b47ef4a7228d6e6,,,,,,,,,,X V Q F H G B L J M P D K C T S W R N Z,,,,,,,,,,,,,,,,,,,,,,,,,,,,,,,,,,,,,,,,,,,,,,,,,,,,,,,,,,,,,,,,,,,,,,,,,,,,2,0,2,0,1,,,,,,,,,,,,,
,,,,,,,,,,5ef05cee60a444581ce3d0dd,24,Mężczyzna,2022-06-04_08h32.59.862,task,2021.1.4,Win32,164.8804617,628b806c463b948bc644b84f,629af96b5b47ef4a7228d6e6,,,,,,,,,,,,,,,,,,,,,,,,,,,,,,,,,,,,,,,,,,,,,,,,,,,,,,,,,,,,,,,,,,,,,,,,,,,,,,,,,,,,,,,,,,,lwn,"[""l"",""w"",""n""]",0,"[4.325399999857041,4.741399999856981,5.245499999999879,9.013399999856915]",1,LWN,1,0,1,0,1,,
,,,,,,,,,,5ef05cee60a444581ce3d0dd,24,Mężczyzna,2022-06-04_08h32.59.862,task,2021.1.4,Win32,164.8804617,628b806c463b948bc644b84f,629af96b5b47ef4a7228d6e6,,,,,,,,,,,,,,,,,,,,,,,7,,,,,,,,,,Task,14,(2x2) + 3,7,,,,,,,,,,,,,,,,,,,1,,,,,,,,,,,,,,,,,,,,,,,"[""7""]",1,[5.715200000047616],0,0,0,13,1,,,,,,,,,,,,,,,,,,
,,,,,,,,,,5ef05cee60a444581ce3d0dd,24,Mężczyzna,2022-06-04_08h32.59.862,task,2021.1.4,Win32,164.8804617,628b806c463b948bc644b84f,629af96b5b47ef4a7228d6e6,,,,,,,,,,X V Q F H G B L J M P D K C T S W R N Z,,,,,,,,,,,,,,,,,,,,,,,,,,,,,,,,,,,,,,,,,,,,,,,,,,,,,,,,,,,,,,,,,,,,,,,,,,,,0,0,0,0,1,,,,,,,,,,,,,
,,,,,,,,,,5ef05cee60a444581ce3d0dd,24,Mężczyzna,2022-06-04_08h32.59.862,task,2021.1.4,Win32,164.8804617,628b806c463b948bc644b84f,629af96b5b47ef4a7228d6e6,,,,,,,,,,,,,,,,,,,,,,,5,,,,,,,,,,Task,36,(8/4) + 3,5,,,,,,,,,,,,,,,,,,,1,,,,,,,,,,,,,,,,,,,,,,,"[""5""]",1,[8.755199999809292],0,0,0,35,1,,,,,,,,,,,,,,,,,,
,,,,,,,,,,5ef05cee60a444581ce3d0dd,24,Mężczyzna,2022-06-04_08h32.59.862,task,2021.1.4,Win32,164.8804617,628b806c463b948bc644b84f,629af96b5b47ef4a7228d6e6,,,,,,,,,,X V Q F H G B L J M P D K C T S W R N Z,,,,,,,,,,,,,,,,,,,,,,,,,,,,,,,,,,,,,,,,,,,,,,,,,,,,,,,,,,,,,,,,,,,,,,,,,,,,1,0,1,0,1,,,,,,,,,,,,,
,,,,,,,,,,5ef05cee60a444581ce3d0dd,24,Mężczyzna,2022-06-04_08h32.59.862,task,2021.1.4,Win32,164.8804617,628b806c463b948bc644b84f,629af96b5b47ef4a7228d6e6,,,,,,,,,,,,,,,,,,,,,,,8,,,,,,,,,,Task,39,(5x3) - 7,8,,,,,,,,,,,,,,,,,,,1,,,,,,,,,,,,,,,,,,,,,,,"[""8""]",1,[6.197400000095286],0,0,0,38,1,,,,,,,,,,,,,,,,,,
,,,,,,,,,,5ef05cee60a444581ce3d0dd,24,Mężczyzna,2022-06-04_08h32.59.862,task,2021.1.4,Win32,164.8804617,628b806c463b948bc644b84f,629af96b5b47ef4a7228d6e6,,,,,,,,,,X V Q F H G B L J M P D K C T S W R N Z,,,,,,,,,,,,,,,,,,,,,,,,,,,,,,,,,,,,,,,,,,,,,,,,,,,,,,,,,,,,,,,,,,,,,,,,,,,,2,0,2,0,1,,,,,,,,,,,,,
,,,,,,,,,,5ef05cee60a444581ce3d0dd,24,Mężczyzna,2022-06-04_08h32.59.862,task,2021.1.4,Win32,164.8804617,628b806c463b948bc644b84f,629af96b5b47ef4a7228d6e6,,,,,,,,,,,,,,,,,,,,,,,8,,,,,,,,,,Task,39,(5x3) - 7,8,,,,,,,,,,,,,,,,,,,1,,,,,,,,,,,,,,,,,,,,,,,"[""8""]",1,[8.935799999952224],0,0,0,38,1,,,,,,,,,,,,,,,,,,
,,,,,,,,,,5ef05cee60a444581ce3d0dd,24,Mężczyzna,2022-06-04_08h32.59.862,task,2021.1.4,Win32,164.8804617,628b806c463b948bc644b84f,629af96b5b47ef4a7228d6e6,,,,,,,,,,X V Q F H G B L J M P D K C T S W R N Z,,,,,,,,,,,,,,,,,,,,,,,,,,,,,,,,,,,,,,,,,,,,,,,,,,,,,,,,,,,,,,,,,,,,,,,,,,,,3,0,3,0,1,,,,,,,,,,,,,
,,,,,,,,,,5ef05cee60a444581ce3d0dd,24,Mężczyzna,2022-06-04_08h32.59.862,task,2021.1.4,Win32,164.8804617,628b806c463b948bc644b84f,629af96b5b47ef4a7228d6e6,,,,,,,,,,,,,,,,,,,,,,,,,,,,,,,,,,,,,,,,,,,,,,,,,,,,,,,,,,,,,,,,,,,,,,,,,,,,,,,,,,,,,,,,,,,drb,"[""d"",""r"",""b""]",0,"[4.788899999856994,34.052599999904714,35.18869999980939,36.50039999985688]",0,DSRB,2,0,2,0,1,,
,,,,,,,,,,5ef05cee60a444581ce3d0dd,24,Mężczyzna,2022-06-04_08h32.59.862,task,2021.1.4,Win32,164.8804617,628b806c463b948bc644b84f,629af96b5b47ef4a7228d6e6,,,,,,,,,,,,,,,,,,,,,,,8,,,,,,,,,,Task,23,(2x3) + 2,8,,,,,,,,,,,,,,,,,,,1,,,,,,,,,,,,,,,,,,,,,,,"[""8""]",1,[12.543199999809303],0,0,0,22,1,,,,,,,,,,,,,,,,,,
,,,,,,,,,,5ef05cee60a444581ce3d0dd,24,Mężczyzna,2022-06-04_08h32.59.862,task,2021.1.4,Win32,164.8804617,628b806c463b948bc644b84f,629af96b5b47ef4a7228d6e6,,,,,,,,,,X V Q F H G B L J M P D K C T S W R N Z,,,,,,,,,,,,,,,,,,,,,,,,,,,,,,,,,,,,,,,,,,,,,,,,,,,,,,,,,,,,,,,,,,,,,,,,,,,,0,0,0,0,1,,,,,,,,,,,,,
,,,,,,,,,,5ef05cee60a444581ce3d0dd,24,Mężczyzna,2022-06-04_08h32.59.862,task,2021.1.4,Win32,164.8804617,628b806c463b948bc644b84f,629af96b5b47ef4a7228d6e6,,,,,,,,,,,,,,,,,,,,,,,1,,,,,,,,,,Task,9,(3x7) - 20,1,,,,,,,,,,,,,,,,,,,1,,,,,,,,,,,,,,,,,,,,,,,"[""1""]",1,[6.322499999999991],0,0,0,8,1,,,,,,,,,,,,,,,,,,
,,,,,,,,,,5ef05cee60a444581ce3d0dd,24,Mężczyzna,2022-06-04_08h32.59.862,task,2021.1.4,Win32,164.8804617,628b806c463b948bc644b84f,629af96b5b47ef4a7228d6e6,,,,,,,,,,X V Q F H G B L J M P D K C T S W R N Z,,,,,,,,,,,,,,,,,,,,,,,,,,,,,,,,,,,,,,,,,,,,,,,,,,,,,,,,,,,,,,,,,,,,,,,,,,,,1,0,1,0,1,,,,,,,,,,,,,
,,,,,,,,,,5ef05cee60a444581ce3d0dd,24,Mężczyzna,2022-06-04_08h32.59.862,task,2021.1.4,Win32,164.8804617,628b806c463b948bc644b84f,629af96b5b47ef4a7228d6e6,,,,,,,,,,,,,,,,,,,,,,,3,,,,,,,,,,Task,20,(18/9) + 1,3,,,,,,,,,,,,,,,,,,,1,,,,,,,,,,,,,,,,,,,,,,,"[""3""]",1,[8.104800000190608],0,0,0,19,1,,,,,,,,,,,,,,,,,,
,,,,,,,,,,5ef05cee60a444581ce3d0dd,24,Mężczyzna,2022-06-04_08h32.59.862,task,2021.1.4,Win32,164.8804617,628b806c463b948bc644b84f,629af96b5b47ef4a7228d6e6,,,,,,,,,,X V Q F H G B L J M P D K C T S W R N Z,,,,,,,,,,,,,,,,,,,,,,,,,,,,,,,,,,,,,,,,,,,,,,,,,,,,,,,,,,,,,,,,,,,,,,,,,,,,2,0,2,0,1,,,,,,,,,,,,,
,,,,,,,,,,5ef05cee60a444581ce3d0dd,24,Mężczyzna,2022-06-04_08h32.59.862,task,2021.1.4,Win32,164.8804617,628b806c463b948bc644b84f,629af96b5b47ef4a7228d6e6,,,,,,,,,,,,,,,,,,,,,,,9,,,,,,,,,,Task,7,(3x7) - 12,9,,,,,,,,,,,,,,,,,,,1,,,,,,,,,,,,,,,,,,,,,,,"[""9""]",1,[5.307799999952522],0,0,0,6,1,,,,,,,,,,,,,,,,,,
,,,,,,,,,,5ef05cee60a444581ce3d0dd,24,Mężczyzna,2022-06-04_08h32.59.862,task,2021.1.4,Win32,164.8804617,628b806c463b948bc644b84f,629af96b5b47ef4a7228d6e6,,,,,,,,,,X V Q F H G B L J M P D K C T S W R N Z,,,,,,,,,,,,,,,,,,,,,,,,,,,,,,,,,,,,,,,,,,,,,,,,,,,,,,,,,,,,,,,,,,,,,,,,,,,,3,0,3,0,1,,,,,,,,,,,,,
,,,,,,,,,,5ef05cee60a444581ce3d0dd,24,Mężczyzna,2022-06-04_08h32.59.862,task,2021.1.4,Win32,164.8804617,628b806c463b948bc644b84f,629af96b5b47ef4a7228d6e6,,,,,,,,,,,,,,,,,,,,,,,,,,,,,,,,,,,,,,,,,,,,,,,,,,,,,,,,,,,,,,,,,,,,,,,,,,,,,,,,,,,,,,,,,,,gqsm,"[""g"",""q"",""s"",""m""]",0,"[2.9505999999046253,3.4227999999523036,3.8623999998569616,4.4542999999523545,5.502399999857062]",1,GQSM,3,0,3,0,1,,
,,,,,,,,,,5ef05cee60a444581ce3d0dd,24,Mężczyzna,2022-06-04_08h32.59.862,task,2021.1.4,Win32,164.8804617,628b806c463b948bc644b84f,629af96b5b47ef4a7228d6e6,,,,,,,,,,,,,,,,,,,,,,,7,,,,,,,,,,Task,6,(12/2) + 1,7,,,,,,,,,,,,,,,,,,,1,,,,,,,,,,,,,,,,,,,,,,,"[""7""]",1,[12.934899999856725],0,0,0,5,1,,,,,,,,,,,,,,,,,,
,,,,,,,,,,5ef05cee60a444581ce3d0dd,24,Mężczyzna,2022-06-04_08h32.59.862,task,2021.1.4,Win32,164.8804617,628b806c463b948bc644b84f,629af96b5b47ef4a7228d6e6,,,,,,,,,,X V Q F H G B L J M P D K C T S W R N Z,,,,,,,,,,,,,,,,,,,,,,,,,,,,,,,,,,,,,,,,,,,,,,,,,,,,,,,,,,,,,,,,,,,,,,,,,,,,0,0,0,0,1,,,,,,,,,,,,,
,,,,,,,,,,5ef05cee60a444581ce3d0dd,24,Mężczyzna,2022-06-04_08h32.59.862,task,2021.1.4,Win32,164.8804617,628b806c463b948bc644b84f,629af96b5b47ef4a7228d6e6,,,,,,,,,,,,,,,,,,,,,,,7,,,,,,,,,,Task,38,(4x6) - 17,7,,,,,,,,,,,,,,,,,,,1,,,,,,,,,,,,,,,,,,,,,,,"[""7""]",1,[14.44029999995223],0,0,0,37,1,,,,,,,,,,,,,,,,,,
,,,,,,,,,,5ef05cee60a444581ce3d0dd,24,Mężczyzna,2022-06-04_08h32.59.862,task,2021.1.4,Win32,164.8804617,628b806c463b948bc644b84f,629af96b5b47ef4a7228d6e6,,,,,,,,,,X V Q F H G B L J M P D K C T S W R N Z,,,,,,,,,,,,,,,,,,,,,,,,,,,,,,,,,,,,,,,,,,,,,,,,,,,,,,,,,,,,,,,,,,,,,,,,,,,,1,0,1,0,1,,,,,,,,,,,,,
,,,,,,,,,,5ef05cee60a444581ce3d0dd,24,Mężczyzna,2022-06-04_08h32.59.862,task,2021.1.4,Win32,164.8804617,628b806c463b948bc644b84f,629af96b5b47ef4a7228d6e6,,,,,,,,,,,,,,,,,,,,,,,5,,,,,,,,,,Task,12,(4x4) - 11,5,,,,,,,,,,,,,,,,,,,1,,,,,,,,,,,,,,,,,,,,,,,"[""5""]",1,[16.534200000047804],0,0,0,11,1,,,,,,,,,,,,,,,,,,
,,,,,,,,,,5ef05cee60a444581ce3d0dd,24,Mężczyzna,2022-06-04_08h32.59.862,task,2021.1.4,Win32,164.8804617,628b806c463b948bc644b84f,629af96b5b47ef4a7228d6e6,,,,,,,,,,X V Q F H G B L J M P D K C T S W R N Z,,,,,,,,,,,,,,,,,,,,,,,,,,,,,,,,,,,,,,,,,,,,,,,,,,,,,,,,,,,,,,,,,,,,,,,,,,,,2,0,2,0,1,,,,,,,,,,,,,
,,,,,,,,,,5ef05cee60a444581ce3d0dd,24,Mężczyzna,2022-06-04_08h32.59.862,task,2021.1.4,Win32,164.8804617,628b806c463b948bc644b84f,629af96b5b47ef4a7228d6e6,,,,,,,,,,,,,,,,,,,,,,,4,,,,,,,,,,Task,28,(2x5) - 6,4,,,,,,,,,,,,,,,,,,,1,,,,,,,,,,,,,,,,,,,,,,,"[""4""]",1,[10.769299999952182],0,0,0,27,1,,,,,,,,,,,,,,,,,,
,,,,,,,,,,5ef05cee60a444581ce3d0dd,24,Mężczyzna,2022-06-04_08h32.59.862,task,2021.1.4,Win32,164.8804617,628b806c463b948bc644b84f,629af96b5b47ef4a7228d6e6,,,,,,,,,,X V Q F H G B L J M P D K C T S W R N Z,,,,,,,,,,,,,,,,,,,,,,,,,,,,,,,,,,,,,,,,,,,,,,,,,,,,,,,,,,,,,,,,,,,,,,,,,,,,3,0,3,0,1,,,,,,,,,,,,,
,,,,,,,,,,5ef05cee60a444581ce3d0dd,24,Mężczyzna,2022-06-04_08h32.59.862,task,2021.1.4,Win32,164.8804617,628b806c463b948bc644b84f,629af96b5b47ef4a7228d6e6,,,,,,,,,,,,,,,,,,,,,,,0,,,,,,,,,,Task,8,(1x5) - 5,0,,,,,,,,,,,,,,,,,,,1,,,,,,,,,,,,,,,,,,,,,,,"[""0""]",1,[6.732099999904676],0,0,0,7,1,,,,,,,,,,,,,,,,,,
,,,,,,,,,,5ef05cee60a444581ce3d0dd,24,Mężczyzna,2022-06-04_08h32.59.862,task,2021.1.4,Win32,164.8804617,628b806c463b948bc644b84f,629af96b5b47ef4a7228d6e6,,,,,,,,,,X V Q F H G B L J M P D K C T S W R N Z,,,,,,,,,,,,,,,,,,,,,,,,,,,,,,,,,,,,,,,,,,,,,,,,,,,,,,,,,,,,,,,,,,,,,,,,,,,,4,0,4,0,1,,,,,,,,,,,,,
,,,,,,,,,,5ef05cee60a444581ce3d0dd,24,Mężczyzna,2022-06-04_08h32.59.862,task,2021.1.4,Win32,164.8804617,628b806c463b948bc644b84f,629af96b5b47ef4a7228d6e6,,,,,,,,,,,,,,,,,,,,,,,,,,,,,,,,,,,,,,,,,,,,,,,,,,,,,,,,,,,,,,,,,,,,,,,,,,,,,,,,,,,,,,,,,,,hqgsm,"[""h"",""q"",""g"",""s"",""m""]",0,"[2.135200000047689,2.90300000000002,3.5590999999046744,3.910999999999831,4.582999999999856,5.8637999999523345]",1,HQGSM,4,0,4,0,1,,
,,,,,,,,,,5ef05cee60a444581ce3d0dd,24,Mężczyzna,2022-06-04_08h32.59.862,task,2021.1.4,Win32,164.8804617,628b806c463b948bc644b84f,629af96b5b47ef4a7228d6e6,,,,,,,,,,,,,,,,,,,,,,,0,,,,,,,,,,Task,17,(2x3) - 6,0,,,,,,,,,,,,,,,,,,,1,,,,,,,,,,,,,,,,,,,,,,,"[""0""]",1,[9.756400000095255],0,0,0,16,1,,,,,,,,,,,,,,,,,,
,,,,,,,,,,5ef05cee60a444581ce3d0dd,24,Mężczyzna,2022-06-04_08h32.59.862,task,2021.1.4,Win32,164.8804617,628b806c463b948bc644b84f,629af96b5b47ef4a7228d6e6,,,,,,,,,,X V Q F H G B L J M P D K C T S W R N Z,,,,,,,,,,,,,,,,,,,,,,,,,,,,,,,,,,,,,,,,,,,,,,,,,,,,,,,,,,,,,,,,,,,,,,,,,,,,0,0,0,0,1,,,,,,,,,,,,,
