key_resp_15.keys,key_resp_15.rt,key_resp_13.keys,key_resp_13.corr,key_resp_13.rt,ranodm_loop.thisRepN,ranodm_loop.thisTrialN,ranodm_loop.thisN,ranodm_loop.thisIndex,ranodm_loop.ran,participant,Wiek*,Płeć,date,expName,psychopyVersion,OS,frameRate,study_id,session,key_resp_16.keys,key_resp_16.rt,key_resp_4.keys,key_resp_4.rt,next_letter.thisRepN,next_letter.thisTrialN,next_letter.thisN,next_letter.thisIndex,next_letter.ran,letter,simple_recall,key_resp_5.keys,key_resp_5.rt,simple_recall_corr,simple_recall_corrkeys,next_level.thisRepN,next_level.thisTrialN,next_level.thisN,next_level.thisIndex,next_level.ran,key_resp_2.keys,key_resp_2.rt,digit_answer,key_resp.keys,key_resp.corr,key_resp.rt,RT_list,next_equation.thisRepN,next_equation.thisTrialN,next_equation.thisN,next_equation.thisIndex,next_equation.ran,Task,Trial,Problem,Operation_answer,processing_score,sumRT,meanRT,sumdiff,sd,RT,key_resp_3.keys,key_resp_3.rt,repeat_practice.thisRepN,repeat_practice.thisTrialN,repeat_practice.thisN,repeat_practice.thisIndex,repeat_practice.ran,key_resp_6.keys,key_resp_6.rt,key_resp_11.keys,key_resp_11.corr,key_resp_11.rt,operation_correct,repeat_if_wrong_prac.thisRepN,repeat_if_wrong_prac.thisTrialN,repeat_if_wrong_prac.thisN,repeat_if_wrong_prac.thisIndex,repeat_if_wrong_prac.ran,span_size_prac.thisRepN,span_size_prac.thisTrialN,span_size_prac.thisN,span_size_prac.thisIndex,span_size_prac.ran,complex_recall_practice,key_resp_9.keys,key_resp_9.corr,key_resp_9.rt,complex_prac_corr,span_recall_prac.thisRepN,span_recall_prac.thisTrialN,span_recall_prac.thisN,span_recall_prac.thisIndex,span_recall_prac.ran,key_resp_10.keys,key_resp_10.rt,key_resp_7.keys,key_resp_7.corr,key_resp_7.rt,repeat_if_wrong.thisRepN,repeat_if_wrong.thisTrialN,repeat_if_wrong.thisN,repeat_if_wrong.thisIndex,repeat_if_wrong.ran,span_size.thisRepN,span_size.thisTrialN,span_size.thisN,span_size.thisIndex,span_size.ran,complex_recall,key_resp_8.keys,key_resp_8.corr,key_resp_8.rt,complex_recall_corr,complex_recall_corrkeys,span_recall.thisRepN,span_recall.thisTrialN,span_recall.thisN,span_recall.thisIndex,span_recall.ran,key_resp_12.keys,key_resp_12.rt
space,27.257,"[""comma""]",0,[0.44360000000055777],0,0,0,0,1,5efb2d098c96a40459575a3f,20,Mężczyzna,2022-05-28_09h16.13.485,task,2021.1.4,Win32,75.21058965,628b806c463b948bc644b84f,6291cc247de78e09c1e49373,,,,,,,,,,,,,,,,,,,,,,,,,,,,,,,,,,,,,,,,,,,,,,,,,,,,,,,,,,,,,,,,,,,,,,,,,,,,,,,,,,,,,,,,,,,,,,,,,,,,,,,
,,"[""comma""]",0,[0.6810999999996312],1,0,1,0,1,5efb2d098c96a40459575a3f,20,Mężczyzna,2022-05-28_09h16.13.485,task,2021.1.4,Win32,75.21058965,628b806c463b948bc644b84f,6291cc247de78e09c1e49373,,,,,,,,,,,,,,,,,,,,,,,,,,,,,,,,,,,,,,,,,,,,,,,,,,,,,,,,,,,,,,,,,,,,,,,,,,,,,,,,,,,,,,,,,,,,,,,,,,,,,,,
,,"[""comma""]",0,[0.7430999999996288],2,0,2,0,1,5efb2d098c96a40459575a3f,20,Mężczyzna,2022-05-28_09h16.13.485,task,2021.1.4,Win32,75.21058965,628b806c463b948bc644b84f,6291cc247de78e09c1e49373,,,,,,,,,,,,,,,,,,,,,,,,,,,,,,,,,,,,,,,,,,,,,,,,,,,,,,,,,,,,,,,,,,,,,,,,,,,,,,,,,,,,,,,,,,,,,,,,,,,,,,,
,,"[""period""]",0,[0.5863999999994434],3,0,3,0,1,5efb2d098c96a40459575a3f,20,Mężczyzna,2022-05-28_09h16.13.485,task,2021.1.4,Win32,75.21058965,628b806c463b948bc644b84f,6291cc247de78e09c1e49373,,,,,,,,,,,,,,,,,,,,,,,,,,,,,,,,,,,,,,,,,,,,,,,,,,,,,,,,,,,,,,,,,,,,,,,,,,,,,,,,,,,,,,,,,,,,,,,,,,,,,,,
,,"[""period""]",0,[0.6190999999996336],4,0,4,0,1,5efb2d098c96a40459575a3f,20,Mężczyzna,2022-05-28_09h16.13.485,task,2021.1.4,Win32,75.21058965,628b806c463b948bc644b84f,6291cc247de78e09c1e49373,,,,,,,,,,,,,,,,,,,,,,,,,,,,,,,,,,,,,,,,,,,,,,,,,,,,,,,,,,,,,,,,,,,,,,,,,,,,,,,,,,,,,,,,,,,,,,,,,,,,,,,
,,"[""comma""]",0,[0.4485999999996295],5,0,5,0,1,5efb2d098c96a40459575a3f,20,Mężczyzna,2022-05-28_09h16.13.485,task,2021.1.4,Win32,75.21058965,628b806c463b948bc644b84f,6291cc247de78e09c1e49373,,,,,,,,,,,,,,,,,,,,,,,,,,,,,,,,,,,,,,,,,,,,,,,,,,,,,,,,,,,,,,,,,,,,,,,,,,,,,,,,,,,,,,,,,,,,,,,,,,,,,,,
,,"[""period""]",0,[0.5592999999998085],6,0,6,0,1,5efb2d098c96a40459575a3f,20,Mężczyzna,2022-05-28_09h16.13.485,task,2021.1.4,Win32,75.21058965,628b806c463b948bc644b84f,6291cc247de78e09c1e49373,,,,,,,,,,,,,,,,,,,,,,,,,,,,,,,,,,,,,,,,,,,,,,,,,,,,,,,,,,,,,,,,,,,,,,,,,,,,,,,,,,,,,,,,,,,,,,,,,,,,,,,
,,"[""period""]",0,[0.6189000000003659],7,0,7,0,1,5efb2d098c96a40459575a3f,20,Mężczyzna,2022-05-28_09h16.13.485,task,2021.1.4,Win32,75.21058965,628b806c463b948bc644b84f,6291cc247de78e09c1e49373,,,,,,,,,,,,,,,,,,,,,,,,,,,,,,,,,,,,,,,,,,,,,,,,,,,,,,,,,,,,,,,,,,,,,,,,,,,,,,,,,,,,,,,,,,,,,,,,,,,,,,,
,,"[""comma""]",0,[0.6718999999994537],8,0,8,0,1,5efb2d098c96a40459575a3f,20,Mężczyzna,2022-05-28_09h16.13.485,task,2021.1.4,Win32,75.21058965,628b806c463b948bc644b84f,6291cc247de78e09c1e49373,,,,,,,,,,,,,,,,,,,,,,,,,,,,,,,,,,,,,,,,,,,,,,,,,,,,,,,,,,,,,,,,,,,,,,,,,,,,,,,,,,,,,,,,,,,,,,,,,,,,,,,
,,"[""period""]",0,[0.7308999999994228],9,0,9,0,1,5efb2d098c96a40459575a3f,20,Mężczyzna,2022-05-28_09h16.13.485,task,2021.1.4,Win32,75.21058965,628b806c463b948bc644b84f,6291cc247de78e09c1e49373,,,,,,,,,,,,,,,,,,,,,,,,,,,,,,,,,,,,,,,,,,,,,,,,,,,,,,,,,,,,,,,,,,,,,,,,,,,,,,,,,,,,,,,,,,,,,,,,,,,,,,,
,,"[""period""]",0,[0.6109000000003562],10,0,10,0,1,5efb2d098c96a40459575a3f,20,Mężczyzna,2022-05-28_09h16.13.485,task,2021.1.4,Win32,75.21058965,628b806c463b948bc644b84f,6291cc247de78e09c1e49373,,,,,,,,,,,,,,,,,,,,,,,,,,,,,,,,,,,,,,,,,,,,,,,,,,,,,,,,,,,,,,,,,,,,,,,,,,,,,,,,,,,,,,,,,,,,,,,,,,,,,,,
,,"[""comma""]",0,[0.35389999999944166],11,0,11,0,1,5efb2d098c96a40459575a3f,20,Mężczyzna,2022-05-28_09h16.13.485,task,2021.1.4,Win32,75.21058965,628b806c463b948bc644b84f,6291cc247de78e09c1e49373,,,,,,,,,,,,,,,,,,,,,,,,,,,,,,,,,,,,,,,,,,,,,,,,,,,,,,,,,,,,,,,,,,,,,,,,,,,,,,,,,,,,,,,,,,,,,,,,,,,,,,,
,,"[""period""]",0,[0.5974999999999966],12,0,12,0,1,5efb2d098c96a40459575a3f,20,Mężczyzna,2022-05-28_09h16.13.485,task,2021.1.4,Win32,75.21058965,628b806c463b948bc644b84f,6291cc247de78e09c1e49373,,,,,,,,,,,,,,,,,,,,,,,,,,,,,,,,,,,,,,,,,,,,,,,,,,,,,,,,,,,,,,,,,,,,,,,,,,,,,,,,,,,,,,,,,,,,,,,,,,,,,,,
,,"[""comma""]",0,[0.405099999999635],13,0,13,0,1,5efb2d098c96a40459575a3f,20,Mężczyzna,2022-05-28_09h16.13.485,task,2021.1.4,Win32,75.21058965,628b806c463b948bc644b84f,6291cc247de78e09c1e49373,,,,,,,,,,,,,,,,,,,,,,,,,,,,,,,,,,,,,,,,,,,,,,,,,,,,,,,,,,,,,,,,,,,,,,,,,,,,,,,,,,,,,,,,,,,,,,,,,,,,,,,
,,"[""period""]",0,[0.4420999999996411],14,0,14,0,1,5efb2d098c96a40459575a3f,20,Mężczyzna,2022-05-28_09h16.13.485,task,2021.1.4,Win32,75.21058965,628b806c463b948bc644b84f,6291cc247de78e09c1e49373,,,,,,,,,,,,,,,,,,,,,,,,,,,,,,,,,,,,,,,,,,,,,,,,,,,,,,,,,,,,,,,,,,,,,,,,,,,,,,,,,,,,,,,,,,,,,,,,,,,,,,,
,,"[""period""]",0,[0.3792999999998017],15,0,15,0,1,5efb2d098c96a40459575a3f,20,Mężczyzna,2022-05-28_09h16.13.485,task,2021.1.4,Win32,75.21058965,628b806c463b948bc644b84f,6291cc247de78e09c1e49373,,,,,,,,,,,,,,,,,,,,,,,,,,,,,,,,,,,,,,,,,,,,,,,,,,,,,,,,,,,,,,,,,,,,,,,,,,,,,,,,,,,,,,,,,,,,,,,,,,,,,,,
,,"[""comma""]",0,[0.5954000000003816],16,0,16,0,1,5efb2d098c96a40459575a3f,20,Mężczyzna,2022-05-28_09h16.13.485,task,2021.1.4,Win32,75.21058965,628b806c463b948bc644b84f,6291cc247de78e09c1e49373,,,,,,,,,,,,,,,,,,,,,,,,,,,,,,,,,,,,,,,,,,,,,,,,,,,,,,,,,,,,,,,,,,,,,,,,,,,,,,,,,,,,,,,,,,,,,,,,,,,,,,,
,,"[""comma""]",0,[0.650700000000171],17,0,17,0,1,5efb2d098c96a40459575a3f,20,Mężczyzna,2022-05-28_09h16.13.485,task,2021.1.4,Win32,75.21058965,628b806c463b948bc644b84f,6291cc247de78e09c1e49373,,,,,,,,,,,,,,,,,,,,,,,,,,,,,,,,,,,,,,,,,,,,,,,,,,,,,,,,,,,,,,,,,,,,,,,,,,,,,,,,,,,,,,,,,,,,,,,,,,,,,,,
,,"[""comma""]",0,[0.9503999999994619],18,0,18,0,1,5efb2d098c96a40459575a3f,20,Mężczyzna,2022-05-28_09h16.13.485,task,2021.1.4,Win32,75.21058965,628b806c463b948bc644b84f,6291cc247de78e09c1e49373,,,,,,,,,,,,,,,,,,,,,,,,,,,,,,,,,,,,,,,,,,,,,,,,,,,,,,,,,,,,,,,,,,,,,,,,,,,,,,,,,,,,,,,,,,,,,,,,,,,,,,,
,,"[""comma""]",0,[0.3615000000000066],19,0,19,0,1,5efb2d098c96a40459575a3f,20,Mężczyzna,2022-05-28_09h16.13.485,task,2021.1.4,Win32,75.21058965,628b806c463b948bc644b84f,6291cc247de78e09c1e49373,,,,,,,,,,,,,,,,,,,,,,,,,,,,,,,,,,,,,,,,,,,,,,,,,,,,,,,,,,,,,,,,,,,,,,,,,,,,,,,,,,,,,,,,,,,,,,,,,,,,,,,
,,"[""period""]",0,[0.2807999999998003],20,0,20,0,1,5efb2d098c96a40459575a3f,20,Mężczyzna,2022-05-28_09h16.13.485,task,2021.1.4,Win32,75.21058965,628b806c463b948bc644b84f,6291cc247de78e09c1e49373,,,,,,,,,,,,,,,,,,,,,,,,,,,,,,,,,,,,,,,,,,,,,,,,,,,,,,,,,,,,,,,,,,,,,,,,,,,,,,,,,,,,,,,,,,,,,,,,,,,,,,,
,,"[""comma""]",0,[0.35890000000037503],21,0,21,0,1,5efb2d098c96a40459575a3f,20,Mężczyzna,2022-05-28_09h16.13.485,task,2021.1.4,Win32,75.21058965,628b806c463b948bc644b84f,6291cc247de78e09c1e49373,,,,,,,,,,,,,,,,,,,,,,,,,,,,,,,,,,,,,,,,,,,,,,,,,,,,,,,,,,,,,,,,,,,,,,,,,,,,,,,,,,,,,,,,,,,,,,,,,,,,,,,
,,"[""comma""]",0,[0.38939999999945485],22,0,22,0,1,5efb2d098c96a40459575a3f,20,Mężczyzna,2022-05-28_09h16.13.485,task,2021.1.4,Win32,75.21058965,628b806c463b948bc644b84f,6291cc247de78e09c1e49373,,,,,,,,,,,,,,,,,,,,,,,,,,,,,,,,,,,,,,,,,,,,,,,,,,,,,,,,,,,,,,,,,,,,,,,,,,,,,,,,,,,,,,,,,,,,,,,,,,,,,,,
,,"[""comma""]",0,[0.3284000000003573],23,0,23,0,1,5efb2d098c96a40459575a3f,20,Mężczyzna,2022-05-28_09h16.13.485,task,2021.1.4,Win32,75.21058965,628b806c463b948bc644b84f,6291cc247de78e09c1e49373,,,,,,,,,,,,,,,,,,,,,,,,,,,,,,,,,,,,,,,,,,,,,,,,,,,,,,,,,,,,,,,,,,,,,,,,,,,,,,,,,,,,,,,,,,,,,,,,,,,,,,,
,,"[""period""]",0,[0.3647000000001981],24,0,24,0,1,5efb2d098c96a40459575a3f,20,Mężczyzna,2022-05-28_09h16.13.485,task,2021.1.4,Win32,75.21058965,628b806c463b948bc644b84f,6291cc247de78e09c1e49373,,,,,,,,,,,,,,,,,,,,,,,,,,,,,,,,,,,,,,,,,,,,,,,,,,,,,,,,,,,,,,,,,,,,,,,,,,,,,,,,,,,,,,,,,,,,,,,,,,,,,,,
,,"[""comma""]",0,[0.35090000000036525],25,0,25,0,1,5efb2d098c96a40459575a3f,20,Mężczyzna,2022-05-28_09h16.13.485,task,2021.1.4,Win32,75.21058965,628b806c463b948bc644b84f,6291cc247de78e09c1e49373,,,,,,,,,,,,,,,,,,,,,,,,,,,,,,,,,,,,,,,,,,,,,,,,,,,,,,,,,,,,,,,,,,,,,,,,,,,,,,,,,,,,,,,,,,,,,,,,,,,,,,,
,,"[""period""]",0,[0.3598999999994419],26,0,26,0,1,5efb2d098c96a40459575a3f,20,Mężczyzna,2022-05-28_09h16.13.485,task,2021.1.4,Win32,75.21058965,628b806c463b948bc644b84f,6291cc247de78e09c1e49373,,,,,,,,,,,,,,,,,,,,,,,,,,,,,,,,,,,,,,,,,,,,,,,,,,,,,,,,,,,,,,,,,,,,,,,,,,,,,,,,,,,,,,,,,,,,,,,,,,,,,,,
,,"[""period""]",0,[0.2877000000001999],27,0,27,0,1,5efb2d098c96a40459575a3f,20,Mężczyzna,2022-05-28_09h16.13.485,task,2021.1.4,Win32,75.21058965,628b806c463b948bc644b84f,6291cc247de78e09c1e49373,,,,,,,,,,,,,,,,,,,,,,,,,,,,,,,,,,,,,,,,,,,,,,,,,,,,,,,,,,,,,,,,,,,,,,,,,,,,,,,,,,,,,,,,,,,,,,,,,,,,,,,
,,"[""comma""]",0,[0.3202999999998042],28,0,28,0,1,5efb2d098c96a40459575a3f,20,Mężczyzna,2022-05-28_09h16.13.485,task,2021.1.4,Win32,75.21058965,628b806c463b948bc644b84f,6291cc247de78e09c1e49373,,,,,,,,,,,,,,,,,,,,,,,,,,,,,,,,,,,,,,,,,,,,,,,,,,,,,,,,,,,,,,,,,,,,,,,,,,,,,,,,,,,,,,,,,,,,,,,,,,,,,,,
,,"[""period""]",0,[0.31969999999924426],29,0,29,0,1,5efb2d098c96a40459575a3f,20,Mężczyzna,2022-05-28_09h16.13.485,task,2021.1.4,Win32,75.21058965,628b806c463b948bc644b84f,6291cc247de78e09c1e49373,,,,,,,,,,,,,,,,,,,,,,,,,,,,,,,,,,,,,,,,,,,,,,,,,,,,,,,,,,,,,,,,,,,,,,,,,,,,,,,,,,,,,,,,,,,,,,,,,,,,,,,
,,"[""period""]",0,[0.36159999999964043],30,0,30,0,1,5efb2d098c96a40459575a3f,20,Mężczyzna,2022-05-28_09h16.13.485,task,2021.1.4,Win32,75.21058965,628b806c463b948bc644b84f,6291cc247de78e09c1e49373,,,,,,,,,,,,,,,,,,,,,,,,,,,,,,,,,,,,,,,,,,,,,,,,,,,,,,,,,,,,,,,,,,,,,,,,,,,,,,,,,,,,,,,,,,,,,,,,,,,,,,,
,,"[""comma""]",0,[0.2882999999998219],31,0,31,0,1,5efb2d098c96a40459575a3f,20,Mężczyzna,2022-05-28_09h16.13.485,task,2021.1.4,Win32,75.21058965,628b806c463b948bc644b84f,6291cc247de78e09c1e49373,,,,,,,,,,,,,,,,,,,,,,,,,,,,,,,,,,,,,,,,,,,,,,,,,,,,,,,,,,,,,,,,,,,,,,,,,,,,,,,,,,,,,,,,,,,,,,,,,,,,,,,
,,"[""period""]",0,[0.3275999999996202],32,0,32,0,1,5efb2d098c96a40459575a3f,20,Mężczyzna,2022-05-28_09h16.13.485,task,2021.1.4,Win32,75.21058965,628b806c463b948bc644b84f,6291cc247de78e09c1e49373,,,,,,,,,,,,,,,,,,,,,,,,,,,,,,,,,,,,,,,,,,,,,,,,,,,,,,,,,,,,,,,,,,,,,,,,,,,,,,,,,,,,,,,,,,,,,,,,,,,,,,,
,,"[""period""]",0,[0.38990000000038094],33,0,33,0,1,5efb2d098c96a40459575a3f,20,Mężczyzna,2022-05-28_09h16.13.485,task,2021.1.4,Win32,75.21058965,628b806c463b948bc644b84f,6291cc247de78e09c1e49373,,,,,,,,,,,,,,,,,,,,,,,,,,,,,,,,,,,,,,,,,,,,,,,,,,,,,,,,,,,,,,,,,,,,,,,,,,,,,,,,,,,,,,,,,,,,,,,,,,,,,,,
,,"[""comma""]",0,[0.3900999999996202],34,0,34,0,1,5efb2d098c96a40459575a3f,20,Mężczyzna,2022-05-28_09h16.13.485,task,2021.1.4,Win32,75.21058965,628b806c463b948bc644b84f,6291cc247de78e09c1e49373,,,,,,,,,,,,,,,,,,,,,,,,,,,,,,,,,,,,,,,,,,,,,,,,,,,,,,,,,,,,,,,,,,,,,,,,,,,,,,,,,,,,,,,,,,,,,,,,,,,,,,,
,,"[""comma""]",0,[0.34200000000001296],35,0,35,0,1,5efb2d098c96a40459575a3f,20,Mężczyzna,2022-05-28_09h16.13.485,task,2021.1.4,Win32,75.21058965,628b806c463b948bc644b84f,6291cc247de78e09c1e49373,,,,,,,,,,,,,,,,,,,,,,,,,,,,,,,,,,,,,,,,,,,,,,,,,,,,,,,,,,,,,,,,,,,,,,,,,,,,,,,,,,,,,,,,,,,,,,,,,,,,,,,
,,"[""comma""]",0,[0.4000999999996111],36,0,36,0,1,5efb2d098c96a40459575a3f,20,Mężczyzna,2022-05-28_09h16.13.485,task,2021.1.4,Win32,75.21058965,628b806c463b948bc644b84f,6291cc247de78e09c1e49373,,,,,,,,,,,,,,,,,,,,,,,,,,,,,,,,,,,,,,,,,,,,,,,,,,,,,,,,,,,,,,,,,,,,,,,,,,,,,,,,,,,,,,,,,,,,,,,,,,,,,,,
,,"[""period""]",0,[0.319799999999816],37,0,37,0,1,5efb2d098c96a40459575a3f,20,Mężczyzna,2022-05-28_09h16.13.485,task,2021.1.4,Win32,75.21058965,628b806c463b948bc644b84f,6291cc247de78e09c1e49373,,,,,,,,,,,,,,,,,,,,,,,,,,,,,,,,,,,,,,,,,,,,,,,,,,,,,,,,,,,,,,,,,,,,,,,,,,,,,,,,,,,,,,,,,,,,,,,,,,,,,,,
,,"[""period""]",0,[0.42609999999965],38,0,38,0,1,5efb2d098c96a40459575a3f,20,Mężczyzna,2022-05-28_09h16.13.485,task,2021.1.4,Win32,75.21058965,628b806c463b948bc644b84f,6291cc247de78e09c1e49373,,,,,,,,,,,,,,,,,,,,,,,,,,,,,,,,,,,,,,,,,,,,,,,,,,,,,,,,,,,,,,,,,,,,,,,,,,,,,,,,,,,,,,,,,,,,,,,,,,,,,,,
,,"[""period""]",0,[0.30100000000001614],39,0,39,0,1,5efb2d098c96a40459575a3f,20,Mężczyzna,2022-05-28_09h16.13.485,task,2021.1.4,Win32,75.21058965,628b806c463b948bc644b84f,6291cc247de78e09c1e49373,,,,,,,,,,,,,,,,,,,,,,,,,,,,,,,,,,,,,,,,,,,,,,,,,,,,,,,,,,,,,,,,,,,,,,,,,,,,,,,,,,,,,,,,,,,,,,,,,,,,,,,
,,"[""period""]",0,[0.2648000000007471],40,0,40,0,1,5efb2d098c96a40459575a3f,20,Mężczyzna,2022-05-28_09h16.13.485,task,2021.1.4,Win32,75.21058965,628b806c463b948bc644b84f,6291cc247de78e09c1e49373,,,,,,,,,,,,,,,,,,,,,,,,,,,,,,,,,,,,,,,,,,,,,,,,,,,,,,,,,,,,,,,,,,,,,,,,,,,,,,,,,,,,,,,,,,,,,,,,,,,,,,,
,,"[""comma""]",0,[0.3671999999992579],41,0,41,0,1,5efb2d098c96a40459575a3f,20,Mężczyzna,2022-05-28_09h16.13.485,task,2021.1.4,Win32,75.21058965,628b806c463b948bc644b84f,6291cc247de78e09c1e49373,,,,,,,,,,,,,,,,,,,,,,,,,,,,,,,,,,,,,,,,,,,,,,,,,,,,,,,,,,,,,,,,,,,,,,,,,,,,,,,,,,,,,,,,,,,,,,,,,,,,,,,
,,"[""comma""]",0,[0.37400000000002365],42,0,42,0,1,5efb2d098c96a40459575a3f,20,Mężczyzna,2022-05-28_09h16.13.485,task,2021.1.4,Win32,75.21058965,628b806c463b948bc644b84f,6291cc247de78e09c1e49373,,,,,,,,,,,,,,,,,,,,,,,,,,,,,,,,,,,,,,,,,,,,,,,,,,,,,,,,,,,,,,,,,,,,,,,,,,,,,,,,,,,,,,,,,,,,,,,,,,,,,,,
,,"[""period""]",0,[0.360700000000179],43,0,43,0,1,5efb2d098c96a40459575a3f,20,Mężczyzna,2022-05-28_09h16.13.485,task,2021.1.4,Win32,75.21058965,628b806c463b948bc644b84f,6291cc247de78e09c1e49373,,,,,,,,,,,,,,,,,,,,,,,,,,,,,,,,,,,,,,,,,,,,,,,,,,,,,,,,,,,,,,,,,,,,,,,,,,,,,,,,,,,,,,,,,,,,,,,,,,,,,,,
,,"[""comma""]",0,[0.2847999999998194],44,0,44,0,1,5efb2d098c96a40459575a3f,20,Mężczyzna,2022-05-28_09h16.13.485,task,2021.1.4,Win32,75.21058965,628b806c463b948bc644b84f,6291cc247de78e09c1e49373,,,,,,,,,,,,,,,,,,,,,,,,,,,,,,,,,,,,,,,,,,,,,,,,,,,,,,,,,,,,,,,,,,,,,,,,,,,,,,,,,,,,,,,,,,,,,,,,,,,,,,,
,,"[""period""]",0,[0.2790999999996302],45,0,45,0,1,5efb2d098c96a40459575a3f,20,Mężczyzna,2022-05-28_09h16.13.485,task,2021.1.4,Win32,75.21058965,628b806c463b948bc644b84f,6291cc247de78e09c1e49373,,,,,,,,,,,,,,,,,,,,,,,,,,,,,,,,,,,,,,,,,,,,,,,,,,,,,,,,,,,,,,,,,,,,,,,,,,,,,,,,,,,,,,,,,,,,,,,,,,,,,,,
,,"[""comma""]",0,[0.3014000000003705],46,0,46,0,1,5efb2d098c96a40459575a3f,20,Mężczyzna,2022-05-28_09h16.13.485,task,2021.1.4,Win32,75.21058965,628b806c463b948bc644b84f,6291cc247de78e09c1e49373,,,,,,,,,,,,,,,,,,,,,,,,,,,,,,,,,,,,,,,,,,,,,,,,,,,,,,,,,,,,,,,,,,,,,,,,,,,,,,,,,,,,,,,,,,,,,,,,,,,,,,,
,,"[""comma""]",0,[0.32020000000017035],47,0,47,0,1,5efb2d098c96a40459575a3f,20,Mężczyzna,2022-05-28_09h16.13.485,task,2021.1.4,Win32,75.21058965,628b806c463b948bc644b84f,6291cc247de78e09c1e49373,,,,,,,,,,,,,,,,,,,,,,,,,,,,,,,,,,,,,,,,,,,,,,,,,,,,,,,,,,,,,,,,,,,,,,,,,,,,,,,,,,,,,,,,,,,,,,,,,,,,,,,
,,"[""period""]",0,[0.3232999999998185],48,0,48,0,1,5efb2d098c96a40459575a3f,20,Mężczyzna,2022-05-28_09h16.13.485,task,2021.1.4,Win32,75.21058965,628b806c463b948bc644b84f,6291cc247de78e09c1e49373,,,,,,,,,,,,,,,,,,,,,,,,,,,,,,,,,,,,,,,,,,,,,,,,,,,,,,,,,,,,,,,,,,,,,,,,,,,,,,,,,,,,,,,,,,,,,,,,,,,,,,,
,,"[""period""]",0,[0.3007000000001767],49,0,49,0,1,5efb2d098c96a40459575a3f,20,Mężczyzna,2022-05-28_09h16.13.485,task,2021.1.4,Win32,75.21058965,628b806c463b948bc644b84f,6291cc247de78e09c1e49373,,,,,,,,,,,,,,,,,,,,,,,,,,,,,,,,,,,,,,,,,,,,,,,,,,,,,,,,,,,,,,,,,,,,,,,,,,,,,,,,,,,,,,,,,,,,,,,,,,,,,,,
,,"[""comma""]",0,[0.3092999999998085],50,0,50,0,1,5efb2d098c96a40459575a3f,20,Mężczyzna,2022-05-28_09h16.13.485,task,2021.1.4,Win32,75.21058965,628b806c463b948bc644b84f,6291cc247de78e09c1e49373,,,,,,,,,,,,,,,,,,,,,,,,,,,,,,,,,,,,,,,,,,,,,,,,,,,,,,,,,,,,,,,,,,,,,,,,,,,,,,,,,,,,,,,,,,,,,,,,,,,,,,,
,,"[""period""]",0,[0.2780999999996254],51,0,51,0,1,5efb2d098c96a40459575a3f,20,Mężczyzna,2022-05-28_09h16.13.485,task,2021.1.4,Win32,75.21058965,628b806c463b948bc644b84f,6291cc247de78e09c1e49373,,,,,,,,,,,,,,,,,,,,,,,,,,,,,,,,,,,,,,,,,,,,,,,,,,,,,,,,,,,,,,,,,,,,,,,,,,,,,,,,,,,,,,,,,,,,,,,,,,,,,,,
,,"[""period""]",0,[0.33820000000019945],52,0,52,0,1,5efb2d098c96a40459575a3f,20,Mężczyzna,2022-05-28_09h16.13.485,task,2021.1.4,Win32,75.21058965,628b806c463b948bc644b84f,6291cc247de78e09c1e49373,,,,,,,,,,,,,,,,,,,,,,,,,,,,,,,,,,,,,,,,,,,,,,,,,,,,,,,,,,,,,,,,,,,,,,,,,,,,,,,,,,,,,,,,,,,,,,,,,,,,,,,
,,"[""comma""]",0,[0.39560000000054174],53,0,53,0,1,5efb2d098c96a40459575a3f,20,Mężczyzna,2022-05-28_09h16.13.485,task,2021.1.4,Win32,75.21058965,628b806c463b948bc644b84f,6291cc247de78e09c1e49373,,,,,,,,,,,,,,,,,,,,,,,,,,,,,,,,,,,,,,,,,,,,,,,,,,,,,,,,,,,,,,,,,,,,,,,,,,,,,,,,,,,,,,,,,,,,,,,,,,,,,,,
,,"[""comma""]",0,[0.2775000000000034],54,0,54,0,1,5efb2d098c96a40459575a3f,20,Mężczyzna,2022-05-28_09h16.13.485,task,2021.1.4,Win32,75.21058965,628b806c463b948bc644b84f,6291cc247de78e09c1e49373,,,,,,,,,,,,,,,,,,,,,,,,,,,,,,,,,,,,,,,,,,,,,,,,,,,,,,,,,,,,,,,,,,,,,,,,,,,,,,,,,,,,,,,,,,,,,,,,,,,,,,,
,,"[""period""]",0,[0.29670000000018604],55,0,55,0,1,5efb2d098c96a40459575a3f,20,Mężczyzna,2022-05-28_09h16.13.485,task,2021.1.4,Win32,75.21058965,628b806c463b948bc644b84f,6291cc247de78e09c1e49373,,,,,,,,,,,,,,,,,,,,,,,,,,,,,,,,,,,,,,,,,,,,,,,,,,,,,,,,,,,,,,,,,,,,,,,,,,,,,,,,,,,,,,,,,,,,,,,,,,,,,,,
,,"[""comma""]",0,[0.22229999999981942],56,0,56,0,1,5efb2d098c96a40459575a3f,20,Mężczyzna,2022-05-28_09h16.13.485,task,2021.1.4,Win32,75.21058965,628b806c463b948bc644b84f,6291cc247de78e09c1e49373,,,,,,,,,,,,,,,,,,,,,,,,,,,,,,,,,,,,,,,,,,,,,,,,,,,,,,,,,,,,,,,,,,,,,,,,,,,,,,,,,,,,,,,,,,,,,,,,,,,,,,,
,,"[""period""]",0,[0.2877000000001999],57,0,57,0,1,5efb2d098c96a40459575a3f,20,Mężczyzna,2022-05-28_09h16.13.485,task,2021.1.4,Win32,75.21058965,628b806c463b948bc644b84f,6291cc247de78e09c1e49373,,,,,,,,,,,,,,,,,,,,,,,,,,,,,,,,,,,,,,,,,,,,,,,,,,,,,,,,,,,,,,,,,,,,,,,,,,,,,,,,,,,,,,,,,,,,,,,,,,,,,,,
,,"[""comma""]",0,[0.2811999999992736],58,0,58,0,1,5efb2d098c96a40459575a3f,20,Mężczyzna,2022-05-28_09h16.13.485,task,2021.1.4,Win32,75.21058965,628b806c463b948bc644b84f,6291cc247de78e09c1e49373,,,,,,,,,,,,,,,,,,,,,,,,,,,,,,,,,,,,,,,,,,,,,,,,,,,,,,,,,,,,,,,,,,,,,,,,,,,,,,,,,,,,,,,,,,,,,,,,,,,,,,,
,,"[""comma""]",0,[0.3109000000003732],59,0,59,0,1,5efb2d098c96a40459575a3f,20,Mężczyzna,2022-05-28_09h16.13.485,task,2021.1.4,Win32,75.21058965,628b806c463b948bc644b84f,6291cc247de78e09c1e49373,,,,,,,,,,,,,,,,,,,,,,,,,,,,,,,,,,,,,,,,,,,,,,,,,,,,,,,,,,,,,,,,,,,,,,,,,,,,,,,,,,,,,,,,,,,,,,,,,,,,,,,
,,"[""period""]",0,[0.2890999999996211],60,0,60,0,1,5efb2d098c96a40459575a3f,20,Mężczyzna,2022-05-28_09h16.13.485,task,2021.1.4,Win32,75.21058965,628b806c463b948bc644b84f,6291cc247de78e09c1e49373,,,,,,,,,,,,,,,,,,,,,,,,,,,,,,,,,,,,,,,,,,,,,,,,,,,,,,,,,,,,,,,,,,,,,,,,,,,,,,,,,,,,,,,,,,,,,,,,,,,,,,,
,,"[""comma""]",0,[0.24619999999924858],61,0,61,0,1,5efb2d098c96a40459575a3f,20,Mężczyzna,2022-05-28_09h16.13.485,task,2021.1.4,Win32,75.21058965,628b806c463b948bc644b84f,6291cc247de78e09c1e49373,,,,,,,,,,,,,,,,,,,,,,,,,,,,,,,,,,,,,,,,,,,,,,,,,,,,,,,,,,,,,,,,,,,,,,,,,,,,,,,,,,,,,,,,,,,,,,,,,,,,,,,
,,"[""period""]",0,[0.1999000000003548],62,0,62,0,1,5efb2d098c96a40459575a3f,20,Mężczyzna,2022-05-28_09h16.13.485,task,2021.1.4,Win32,75.21058965,628b806c463b948bc644b84f,6291cc247de78e09c1e49373,,,,,,,,,,,,,,,,,,,,,,,,,,,,,,,,,,,,,,,,,,,,,,,,,,,,,,,,,,,,,,,,,,,,,,,,,,,,,,,,,,,,,,,,,,,,,,,,,,,,,,,
,,"[""period""]",0,[0.2651000000005581],63,0,63,0,1,5efb2d098c96a40459575a3f,20,Mężczyzna,2022-05-28_09h16.13.485,task,2021.1.4,Win32,75.21058965,628b806c463b948bc644b84f,6291cc247de78e09c1e49373,,,,,,,,,,,,,,,,,,,,,,,,,,,,,,,,,,,,,,,,,,,,,,,,,,,,,,,,,,,,,,,,,,,,,,,,,,,,,,,,,,,,,,,,,,,,,,,,,,,,,,,
,,"[""comma""]",0,[0.27359999999964657],64,0,64,0,1,5efb2d098c96a40459575a3f,20,Mężczyzna,2022-05-28_09h16.13.485,task,2021.1.4,Win32,75.21058965,628b806c463b948bc644b84f,6291cc247de78e09c1e49373,,,,,,,,,,,,,,,,,,,,,,,,,,,,,,,,,,,,,,,,,,,,,,,,,,,,,,,,,,,,,,,,,,,,,,,,,,,,,,,,,,,,,,,,,,,,,,,,,,,,,,,
,,"[""period""]",0,[0.32550000000000523],65,0,65,0,1,5efb2d098c96a40459575a3f,20,Mężczyzna,2022-05-28_09h16.13.485,task,2021.1.4,Win32,75.21058965,628b806c463b948bc644b84f,6291cc247de78e09c1e49373,,,,,,,,,,,,,,,,,,,,,,,,,,,,,,,,,,,,,,,,,,,,,,,,,,,,,,,,,,,,,,,,,,,,,,,,,,,,,,,,,,,,,,,,,,,,,,,,,,,,,,,
,,"[""period""]",0,[0.43090000000037776],66,0,66,0,1,5efb2d098c96a40459575a3f,20,Mężczyzna,2022-05-28_09h16.13.485,task,2021.1.4,Win32,75.21058965,628b806c463b948bc644b84f,6291cc247de78e09c1e49373,,,,,,,,,,,,,,,,,,,,,,,,,,,,,,,,,,,,,,,,,,,,,,,,,,,,,,,,,,,,,,,,,,,,,,,,,,,,,,,,,,,,,,,,,,,,,,,,,,,,,,,
,,"[""comma""]",0,[0.3729000000003566],67,0,67,0,1,5efb2d098c96a40459575a3f,20,Mężczyzna,2022-05-28_09h16.13.485,task,2021.1.4,Win32,75.21058965,628b806c463b948bc644b84f,6291cc247de78e09c1e49373,,,,,,,,,,,,,,,,,,,,,,,,,,,,,,,,,,,,,,,,,,,,,,,,,,,,,,,,,,,,,,,,,,,,,,,,,,,,,,,,,,,,,,,,,,,,,,,,,,,,,,,
,,"[""period""]",0,[0.3112000000001842],68,0,68,0,1,5efb2d098c96a40459575a3f,20,Mężczyzna,2022-05-28_09h16.13.485,task,2021.1.4,Win32,75.21058965,628b806c463b948bc644b84f,6291cc247de78e09c1e49373,,,,,,,,,,,,,,,,,,,,,,,,,,,,,,,,,,,,,,,,,,,,,,,,,,,,,,,,,,,,,,,,,,,,,,,,,,,,,,,,,,,,,,,,,,,,,,,,,,,,,,,
,,"[""comma""]",0,[0.20809999999963225],69,0,69,0,1,5efb2d098c96a40459575a3f,20,Mężczyzna,2022-05-28_09h16.13.485,task,2021.1.4,Win32,75.21058965,628b806c463b948bc644b84f,6291cc247de78e09c1e49373,,,,,,,,,,,,,,,,,,,,,,,,,,,,,,,,,,,,,,,,,,,,,,,,,,,,,,,,,,,,,,,,,,,,,,,,,,,,,,,,,,,,,,,,,,,,,,,,,,,,,,,
,,"[""comma""]",0,[0.32019999999923243],70,0,70,0,1,5efb2d098c96a40459575a3f,20,Mężczyzna,2022-05-28_09h16.13.485,task,2021.1.4,Win32,75.21058965,628b806c463b948bc644b84f,6291cc247de78e09c1e49373,,,,,,,,,,,,,,,,,,,,,,,,,,,,,,,,,,,,,,,,,,,,,,,,,,,,,,,,,,,,,,,,,,,,,,,,,,,,,,,,,,,,,,,,,,,,,,,,,,,,,,,
,,"[""period""]",0,[0.28859999999963293],71,0,71,0,1,5efb2d098c96a40459575a3f,20,Mężczyzna,2022-05-28_09h16.13.485,task,2021.1.4,Win32,75.21058965,628b806c463b948bc644b84f,6291cc247de78e09c1e49373,,,,,,,,,,,,,,,,,,,,,,,,,,,,,,,,,,,,,,,,,,,,,,,,,,,,,,,,,,,,,,,,,,,,,,,,,,,,,,,,,,,,,,,,,,,,,,,,,,,,,,,
,,"[""period""]",0,[0.30450000000001864],72,0,72,0,1,5efb2d098c96a40459575a3f,20,Mężczyzna,2022-05-28_09h16.13.485,task,2021.1.4,Win32,75.21058965,628b806c463b948bc644b84f,6291cc247de78e09c1e49373,,,,,,,,,,,,,,,,,,,,,,,,,,,,,,,,,,,,,,,,,,,,,,,,,,,,,,,,,,,,,,,,,,,,,,,,,,,,,,,,,,,,,,,,,,,,,,,,,,,,,,,
,,"[""period""]",0,[0.2897999999998433],73,0,73,0,1,5efb2d098c96a40459575a3f,20,Mężczyzna,2022-05-28_09h16.13.485,task,2021.1.4,Win32,75.21058965,628b806c463b948bc644b84f,6291cc247de78e09c1e49373,,,,,,,,,,,,,,,,,,,,,,,,,,,,,,,,,,,,,,,,,,,,,,,,,,,,,,,,,,,,,,,,,,,,,,,,,,,,,,,,,,,,,,,,,,,,,,,,,,,,,,,
,,"[""comma""]",0,[0.26120000000014443],74,0,74,0,1,5efb2d098c96a40459575a3f,20,Mężczyzna,2022-05-28_09h16.13.485,task,2021.1.4,Win32,75.21058965,628b806c463b948bc644b84f,6291cc247de78e09c1e49373,,,,,,,,,,,,,,,,,,,,,,,,,,,,,,,,,,,,,,,,,,,,,,,,,,,,,,,,,,,,,,,,,,,,,,,,,,,,,,,,,,,,,,,,,,,,,,,,,,,,,,,
,,"[""period""]",0,[0.34220000000021855],75,0,75,0,1,5efb2d098c96a40459575a3f,20,Mężczyzna,2022-05-28_09h16.13.485,task,2021.1.4,Win32,75.21058965,628b806c463b948bc644b84f,6291cc247de78e09c1e49373,,,,,,,,,,,,,,,,,,,,,,,,,,,,,,,,,,,,,,,,,,,,,,,,,,,,,,,,,,,,,,,,,,,,,,,,,,,,,,,,,,,,,,,,,,,,,,,,,,,,,,,
,,"[""comma""]",0,[0.3047000000001958],76,0,76,0,1,5efb2d098c96a40459575a3f,20,Mężczyzna,2022-05-28_09h16.13.485,task,2021.1.4,Win32,75.21058965,628b806c463b948bc644b84f,6291cc247de78e09c1e49373,,,,,,,,,,,,,,,,,,,,,,,,,,,,,,,,,,,,,,,,,,,,,,,,,,,,,,,,,,,,,,,,,,,,,,,,,,,,,,,,,,,,,,,,,,,,,,,,,,,,,,,
,,"[""period""]",0,[0.3093000000007464],77,0,77,0,1,5efb2d098c96a40459575a3f,20,Mężczyzna,2022-05-28_09h16.13.485,task,2021.1.4,Win32,75.21058965,628b806c463b948bc644b84f,6291cc247de78e09c1e49373,,,,,,,,,,,,,,,,,,,,,,,,,,,,,,,,,,,,,,,,,,,,,,,,,,,,,,,,,,,,,,,,,,,,,,,,,,,,,,,,,,,,,,,,,,,,,,,,,,,,,,,
,,"[""comma""]",0,[0.2629000000003998],78,0,78,0,1,5efb2d098c96a40459575a3f,20,Mężczyzna,2022-05-28_09h16.13.485,task,2021.1.4,Win32,75.21058965,628b806c463b948bc644b84f,6291cc247de78e09c1e49373,,,,,,,,,,,,,,,,,,,,,,,,,,,,,,,,,,,,,,,,,,,,,,,,,,,,,,,,,,,,,,,,,,,,,,,,,,,,,,,,,,,,,,,,,,,,,,,,,,,,,,,
,,"[""period""]",0,[0.22139999999939164],79,0,79,0,1,5efb2d098c96a40459575a3f,20,Mężczyzna,2022-05-28_09h16.13.485,task,2021.1.4,Win32,75.21058965,628b806c463b948bc644b84f,6291cc247de78e09c1e49373,,,,,,,,,,,,,,,,,,,,,,,,,,,,,,,,,,,,,,,,,,,,,,,,,,,,,,,,,,,,,,,,,,,,,,,,,,,,,,,,,,,,,,,,,,,,,,,,,,,,,,,
,,"[""comma""]",0,[0.21440000000035297],80,0,80,0,1,5efb2d098c96a40459575a3f,20,Mężczyzna,2022-05-28_09h16.13.485,task,2021.1.4,Win32,75.21058965,628b806c463b948bc644b84f,6291cc247de78e09c1e49373,,,,,,,,,,,,,,,,,,,,,,,,,,,,,,,,,,,,,,,,,,,,,,,,,,,,,,,,,,,,,,,,,,,,,,,,,,,,,,,,,,,,,,,,,,,,,,,,,,,,,,,
,,"[""comma""]",0,[0.16979999999983875],81,0,81,0,1,5efb2d098c96a40459575a3f,20,Mężczyzna,2022-05-28_09h16.13.485,task,2021.1.4,Win32,75.21058965,628b806c463b948bc644b84f,6291cc247de78e09c1e49373,,,,,,,,,,,,,,,,,,,,,,,,,,,,,,,,,,,,,,,,,,,,,,,,,,,,,,,,,,,,,,,,,,,,,,,,,,,,,,,,,,,,,,,,,,,,,,,,,,,,,,,
,,"[""period""]",0,[0.242999999999995],82,0,82,0,1,5efb2d098c96a40459575a3f,20,Mężczyzna,2022-05-28_09h16.13.485,task,2021.1.4,Win32,75.21058965,628b806c463b948bc644b84f,6291cc247de78e09c1e49373,,,,,,,,,,,,,,,,,,,,,,,,,,,,,,,,,,,,,,,,,,,,,,,,,,,,,,,,,,,,,,,,,,,,,,,,,,,,,,,,,,,,,,,,,,,,,,,,,,,,,,,
,,"[""comma""]",0,[0.24120000000016262],83,0,83,0,1,5efb2d098c96a40459575a3f,20,Mężczyzna,2022-05-28_09h16.13.485,task,2021.1.4,Win32,75.21058965,628b806c463b948bc644b84f,6291cc247de78e09c1e49373,,,,,,,,,,,,,,,,,,,,,,,,,,,,,,,,,,,,,,,,,,,,,,,,,,,,,,,,,,,,,,,,,,,,,,,,,,,,,,,,,,,,,,,,,,,,,,,,,,,,,,,
,,"[""period""]",0,[0.2962999999998033],84,0,84,0,1,5efb2d098c96a40459575a3f,20,Mężczyzna,2022-05-28_09h16.13.485,task,2021.1.4,Win32,75.21058965,628b806c463b948bc644b84f,6291cc247de78e09c1e49373,,,,,,,,,,,,,,,,,,,,,,,,,,,,,,,,,,,,,,,,,,,,,,,,,,,,,,,,,,,,,,,,,,,,,,,,,,,,,,,,,,,,,,,,,,,,,,,,,,,,,,,
,,"[""period""]",0,[0.2790000000000532],85,0,85,0,1,5efb2d098c96a40459575a3f,20,Mężczyzna,2022-05-28_09h16.13.485,task,2021.1.4,Win32,75.21058965,628b806c463b948bc644b84f,6291cc247de78e09c1e49373,,,,,,,,,,,,,,,,,,,,,,,,,,,,,,,,,,,,,,,,,,,,,,,,,,,,,,,,,,,,,,,,,,,,,,,,,,,,,,,,,,,,,,,,,,,,,,,,,,,,,,,
,,"[""comma""]",0,[0.28619999999926904],86,0,86,0,1,5efb2d098c96a40459575a3f,20,Mężczyzna,2022-05-28_09h16.13.485,task,2021.1.4,Win32,75.21058965,628b806c463b948bc644b84f,6291cc247de78e09c1e49373,,,,,,,,,,,,,,,,,,,,,,,,,,,,,,,,,,,,,,,,,,,,,,,,,,,,,,,,,,,,,,,,,,,,,,,,,,,,,,,,,,,,,,,,,,,,,,,,,,,,,,,
,,"[""comma""]",0,[0.33859999999958745],87,0,87,0,1,5efb2d098c96a40459575a3f,20,Mężczyzna,2022-05-28_09h16.13.485,task,2021.1.4,Win32,75.21058965,628b806c463b948bc644b84f,6291cc247de78e09c1e49373,,,,,,,,,,,,,,,,,,,,,,,,,,,,,,,,,,,,,,,,,,,,,,,,,,,,,,,,,,,,,,,,,,,,,,,,,,,,,,,,,,,,,,,,,,,,,,,,,,,,,,,
,,"[""comma""]",0,[0.3205999999996152],88,0,88,0,1,5efb2d098c96a40459575a3f,20,Mężczyzna,2022-05-28_09h16.13.485,task,2021.1.4,Win32,75.21058965,628b806c463b948bc644b84f,6291cc247de78e09c1e49373,,,,,,,,,,,,,,,,,,,,,,,,,,,,,,,,,,,,,,,,,,,,,,,,,,,,,,,,,,,,,,,,,,,,,,,,,,,,,,,,,,,,,,,,,,,,,,,,,,,,,,,
,,"[""period""]",0,[0.35029999999983374],89,0,89,0,1,5efb2d098c96a40459575a3f,20,Mężczyzna,2022-05-28_09h16.13.485,task,2021.1.4,Win32,75.21058965,628b806c463b948bc644b84f,6291cc247de78e09c1e49373,,,,,,,,,,,,,,,,,,,,,,,,,,,,,,,,,,,,,,,,,,,,,,,,,,,,,,,,,,,,,,,,,,,,,,,,,,,,,,,,,,,,,,,,,,,,,,,,,,,,,,,
,,"[""period""]",0,[0.25690000000037116],90,0,90,0,1,5efb2d098c96a40459575a3f,20,Mężczyzna,2022-05-28_09h16.13.485,task,2021.1.4,Win32,75.21058965,628b806c463b948bc644b84f,6291cc247de78e09c1e49373,,,,,,,,,,,,,,,,,,,,,,,,,,,,,,,,,,,,,,,,,,,,,,,,,,,,,,,,,,,,,,,,,,,,,,,,,,,,,,,,,,,,,,,,,,,,,,,,,,,,,,,
,,"[""comma""]",0,[0.2169000000003507],91,0,91,0,1,5efb2d098c96a40459575a3f,20,Mężczyzna,2022-05-28_09h16.13.485,task,2021.1.4,Win32,75.21058965,628b806c463b948bc644b84f,6291cc247de78e09c1e49373,,,,,,,,,,,,,,,,,,,,,,,,,,,,,,,,,,,,,,,,,,,,,,,,,,,,,,,,,,,,,,,,,,,,,,,,,,,,,,,,,,,,,,,,,,,,,,,,,,,,,,,
,,"[""period""]",0,[0.27979999999979555],92,0,92,0,1,5efb2d098c96a40459575a3f,20,Mężczyzna,2022-05-28_09h16.13.485,task,2021.1.4,Win32,75.21058965,628b806c463b948bc644b84f,6291cc247de78e09c1e49373,,,,,,,,,,,,,,,,,,,,,,,,,,,,,,,,,,,,,,,,,,,,,,,,,,,,,,,,,,,,,,,,,,,,,,,,,,,,,,,,,,,,,,,,,,,,,,,,,,,,,,,
,,"[""period""]",0,[0.28069999999922857],93,0,93,0,1,5efb2d098c96a40459575a3f,20,Mężczyzna,2022-05-28_09h16.13.485,task,2021.1.4,Win32,75.21058965,628b806c463b948bc644b84f,6291cc247de78e09c1e49373,,,,,,,,,,,,,,,,,,,,,,,,,,,,,,,,,,,,,,,,,,,,,,,,,,,,,,,,,,,,,,,,,,,,,,,,,,,,,,,,,,,,,,,,,,,,,,,,,,,,,,,
,,"[""comma""]",0,[0.2548999999994521],94,0,94,0,1,5efb2d098c96a40459575a3f,20,Mężczyzna,2022-05-28_09h16.13.485,task,2021.1.4,Win32,75.21058965,628b806c463b948bc644b84f,6291cc247de78e09c1e49373,,,,,,,,,,,,,,,,,,,,,,,,,,,,,,,,,,,,,,,,,,,,,,,,,,,,,,,,,,,,,,,,,,,,,,,,,,,,,,,,,,,,,,,,,,,,,,,,,,,,,,,
,,"[""period""]",0,[0.2551000000005388],95,0,95,0,1,5efb2d098c96a40459575a3f,20,Mężczyzna,2022-05-28_09h16.13.485,task,2021.1.4,Win32,75.21058965,628b806c463b948bc644b84f,6291cc247de78e09c1e49373,,,,,,,,,,,,,,,,,,,,,,,,,,,,,,,,,,,,,,,,,,,,,,,,,,,,,,,,,,,,,,,,,,,,,,,,,,,,,,,,,,,,,,,,,,,,,,,,,,,,,,,
,,"[""comma""]",0,[0.27029999999984966],96,0,96,0,1,5efb2d098c96a40459575a3f,20,Mężczyzna,2022-05-28_09h16.13.485,task,2021.1.4,Win32,75.21058965,628b806c463b948bc644b84f,6291cc247de78e09c1e49373,,,,,,,,,,,,,,,,,,,,,,,,,,,,,,,,,,,,,,,,,,,,,,,,,,,,,,,,,,,,,,,,,,,,,,,,,,,,,,,,,,,,,,,,,,,,,,,,,,,,,,,
,,"[""comma""]",0,[0.24909999999960064],97,0,97,0,1,5efb2d098c96a40459575a3f,20,Mężczyzna,2022-05-28_09h16.13.485,task,2021.1.4,Win32,75.21058965,628b806c463b948bc644b84f,6291cc247de78e09c1e49373,,,,,,,,,,,,,,,,,,,,,,,,,,,,,,,,,,,,,,,,,,,,,,,,,,,,,,,,,,,,,,,,,,,,,,,,,,,,,,,,,,,,,,,,,,,,,,,,,,,,,,,
,,"[""period""]",0,[0.2493999999994685],98,0,98,0,1,5efb2d098c96a40459575a3f,20,Mężczyzna,2022-05-28_09h16.13.485,task,2021.1.4,Win32,75.21058965,628b806c463b948bc644b84f,6291cc247de78e09c1e49373,,,,,,,,,,,,,,,,,,,,,,,,,,,,,,,,,,,,,,,,,,,,,,,,,,,,,,,,,,,,,,,,,,,,,,,,,,,,,,,,,,,,,,,,,,,,,,,,,,,,,,,
,,"[""comma""]",0,[0.22399999999998954],99,0,99,0,1,5efb2d098c96a40459575a3f,20,Mężczyzna,2022-05-28_09h16.13.485,task,2021.1.4,Win32,75.21058965,628b806c463b948bc644b84f,6291cc247de78e09c1e49373,,,,,,,,,,,,,,,,,,,,,,,,,,,,,,,,,,,,,,,,,,,,,,,,,,,,,,,,,,,,,,,,,,,,,,,,,,,,,,,,,,,,,,,,,,,,,,,,,,,,,,,
,,"[""period""]",0,[0.1150000000000091],100,0,100,0,1,5efb2d098c96a40459575a3f,20,Mężczyzna,2022-05-28_09h16.13.485,task,2021.1.4,Win32,75.21058965,628b806c463b948bc644b84f,6291cc247de78e09c1e49373,,,,,,,,,,,,,,,,,,,,,,,,,,,,,,,,,,,,,,,,,,,,,,,,,,,,,,,,,,,,,,,,,,,,,,,,,,,,,,,,,,,,,,,,,,,,,,,,,,,,,,,
,,"[""comma""]",0,[0.28170000000017126],101,0,101,0,1,5efb2d098c96a40459575a3f,20,Mężczyzna,2022-05-28_09h16.13.485,task,2021.1.4,Win32,75.21058965,628b806c463b948bc644b84f,6291cc247de78e09c1e49373,,,,,,,,,,,,,,,,,,,,,,,,,,,,,,,,,,,,,,,,,,,,,,,,,,,,,,,,,,,,,,,,,,,,,,,,,,,,,,,,,,,,,,,,,,,,,,,,,,,,,,,
,,"[""period""]",0,[0.29640000000040345],102,0,102,0,1,5efb2d098c96a40459575a3f,20,Mężczyzna,2022-05-28_09h16.13.485,task,2021.1.4,Win32,75.21058965,628b806c463b948bc644b84f,6291cc247de78e09c1e49373,,,,,,,,,,,,,,,,,,,,,,,,,,,,,,,,,,,,,,,,,,,,,,,,,,,,,,,,,,,,,,,,,,,,,,,,,,,,,,,,,,,,,,,,,,,,,,,,,,,,,,,
,,"[""comma""]",0,[0.2182000000001949],103,0,103,0,1,5efb2d098c96a40459575a3f,20,Mężczyzna,2022-05-28_09h16.13.485,task,2021.1.4,Win32,75.21058965,628b806c463b948bc644b84f,6291cc247de78e09c1e49373,,,,,,,,,,,,,,,,,,,,,,,,,,,,,,,,,,,,,,,,,,,,,,,,,,,,,,,,,,,,,,,,,,,,,,,,,,,,,,,,,,,,,,,,,,,,,,,,,,,,,,,
,,"[""comma""]",0,[0.21940000000040527],104,0,104,0,1,5efb2d098c96a40459575a3f,20,Mężczyzna,2022-05-28_09h16.13.485,task,2021.1.4,Win32,75.21058965,628b806c463b948bc644b84f,6291cc247de78e09c1e49373,,,,,,,,,,,,,,,,,,,,,,,,,,,,,,,,,,,,,,,,,,,,,,,,,,,,,,,,,,,,,,,,,,,,,,,,,,,,,,,,,,,,,,,,,,,,,,,,,,,,,,,
,,"[""comma""]",0,[0.24389999999942802],105,0,105,0,1,5efb2d098c96a40459575a3f,20,Mężczyzna,2022-05-28_09h16.13.485,task,2021.1.4,Win32,75.21058965,628b806c463b948bc644b84f,6291cc247de78e09c1e49373,,,,,,,,,,,,,,,,,,,,,,,,,,,,,,,,,,,,,,,,,,,,,,,,,,,,,,,,,,,,,,,,,,,,,,,,,,,,,,,,,,,,,,,,,,,,,,,,,,,,,,,
,,"[""comma""]",0,[0.27679999999980964],106,0,106,0,1,5efb2d098c96a40459575a3f,20,Mężczyzna,2022-05-28_09h16.13.485,task,2021.1.4,Win32,75.21058965,628b806c463b948bc644b84f,6291cc247de78e09c1e49373,,,,,,,,,,,,,,,,,,,,,,,,,,,,,,,,,,,,,,,,,,,,,,,,,,,,,,,,,,,,,,,,,,,,,,,,,,,,,,,,,,,,,,,,,,,,,,,,,,,,,,,
,,"[""period""]",0,[0.25370000000015125],107,0,107,0,1,5efb2d098c96a40459575a3f,20,Mężczyzna,2022-05-28_09h16.13.485,task,2021.1.4,Win32,75.21058965,628b806c463b948bc644b84f,6291cc247de78e09c1e49373,,,,,,,,,,,,,,,,,,,,,,,,,,,,,,,,,,,,,,,,,,,,,,,,,,,,,,,,,,,,,,,,,,,,,,,,,,,,,,,,,,,,,,,,,,,,,,,,,,,,,,,
,,"[""comma""]",0,[0.27049999999997],108,0,108,0,1,5efb2d098c96a40459575a3f,20,Mężczyzna,2022-05-28_09h16.13.485,task,2021.1.4,Win32,75.21058965,628b806c463b948bc644b84f,6291cc247de78e09c1e49373,,,,,,,,,,,,,,,,,,,,,,,,,,,,,,,,,,,,,,,,,,,,,,,,,,,,,,,,,,,,,,,,,,,,,,,,,,,,,,,,,,,,,,,,,,,,,,,,,,,,,,,
,,"[""period""]",0,[0.2643000000007305],109,0,109,0,1,5efb2d098c96a40459575a3f,20,Mężczyzna,2022-05-28_09h16.13.485,task,2021.1.4,Win32,75.21058965,628b806c463b948bc644b84f,6291cc247de78e09c1e49373,,,,,,,,,,,,,,,,,,,,,,,,,,,,,,,,,,,,,,,,,,,,,,,,,,,,,,,,,,,,,,,,,,,,,,,,,,,,,,,,,,,,,,,,,,,,,,,,,,,,,,,
,,"[""period""]",0,[0.2489000000003898],110,0,110,0,1,5efb2d098c96a40459575a3f,20,Mężczyzna,2022-05-28_09h16.13.485,task,2021.1.4,Win32,75.21058965,628b806c463b948bc644b84f,6291cc247de78e09c1e49373,,,,,,,,,,,,,,,,,,,,,,,,,,,,,,,,,,,,,,,,,,,,,,,,,,,,,,,,,,,,,,,,,,,,,,,,,,,,,,,,,,,,,,,,,,,,,,,,,,,,,,,
,,"[""comma""]",0,[0.2697000000001708],111,0,111,0,1,5efb2d098c96a40459575a3f,20,Mężczyzna,2022-05-28_09h16.13.485,task,2021.1.4,Win32,75.21058965,628b806c463b948bc644b84f,6291cc247de78e09c1e49373,,,,,,,,,,,,,,,,,,,,,,,,,,,,,,,,,,,,,,,,,,,,,,,,,,,,,,,,,,,,,,,,,,,,,,,,,,,,,,,,,,,,,,,,,,,,,,,,,,,,,,,
,,"[""period""]",0,[0.09339999999946258],112,0,112,0,1,5efb2d098c96a40459575a3f,20,Mężczyzna,2022-05-28_09h16.13.485,task,2021.1.4,Win32,75.21058965,628b806c463b948bc644b84f,6291cc247de78e09c1e49373,,,,,,,,,,,,,,,,,,,,,,,,,,,,,,,,,,,,,,,,,,,,,,,,,,,,,,,,,,,,,,,,,,,,,,,,,,,,,,,,,,,,,,,,,,,,,,,,,,,,,,,
,,"[""comma""]",0,[0.2454000000003589],113,0,113,0,1,5efb2d098c96a40459575a3f,20,Mężczyzna,2022-05-28_09h16.13.485,task,2021.1.4,Win32,75.21058965,628b806c463b948bc644b84f,6291cc247de78e09c1e49373,,,,,,,,,,,,,,,,,,,,,,,,,,,,,,,,,,,,,,,,,,,,,,,,,,,,,,,,,,,,,,,,,,,,,,,,,,,,,,,,,,,,,,,,,,,,,,,,,,,,,,,
,,"[""period""]",0,[0.3202999999998042],114,0,114,0,1,5efb2d098c96a40459575a3f,20,Mężczyzna,2022-05-28_09h16.13.485,task,2021.1.4,Win32,75.21058965,628b806c463b948bc644b84f,6291cc247de78e09c1e49373,,,,,,,,,,,,,,,,,,,,,,,,,,,,,,,,,,,,,,,,,,,,,,,,,,,,,,,,,,,,,,,,,,,,,,,,,,,,,,,,,,,,,,,,,,,,,,,,,,,,,,,
,,"[""period""]",0,[0.2905999999996425],115,0,115,0,1,5efb2d098c96a40459575a3f,20,Mężczyzna,2022-05-28_09h16.13.485,task,2021.1.4,Win32,75.21058965,628b806c463b948bc644b84f,6291cc247de78e09c1e49373,,,,,,,,,,,,,,,,,,,,,,,,,,,,,,,,,,,,,,,,,,,,,,,,,,,,,,,,,,,,,,,,,,,,,,,,,,,,,,,,,,,,,,,,,,,,,,,,,,,,,,,
,,"[""period""]",0,[0.31360000000057653],116,0,116,0,1,5efb2d098c96a40459575a3f,20,Mężczyzna,2022-05-28_09h16.13.485,task,2021.1.4,Win32,75.21058965,628b806c463b948bc644b84f,6291cc247de78e09c1e49373,,,,,,,,,,,,,,,,,,,,,,,,,,,,,,,,,,,,,,,,,,,,,,,,,,,,,,,,,,,,,,,,,,,,,,,,,,,,,,,,,,,,,,,,,,,,,,,,,,,,,,,
,,"[""period""]",0,[0.264299999999821],117,0,117,0,1,5efb2d098c96a40459575a3f,20,Mężczyzna,2022-05-28_09h16.13.485,task,2021.1.4,Win32,75.21058965,628b806c463b948bc644b84f,6291cc247de78e09c1e49373,,,,,,,,,,,,,,,,,,,,,,,,,,,,,,,,,,,,,,,,,,,,,,,,,,,,,,,,,,,,,,,,,,,,,,,,,,,,,,,,,,,,,,,,,,,,,,,,,,,,,,,
,,"[""comma""]",0,[0.3459000000003698],118,0,118,0,1,5efb2d098c96a40459575a3f,20,Mężczyzna,2022-05-28_09h16.13.485,task,2021.1.4,Win32,75.21058965,628b806c463b948bc644b84f,6291cc247de78e09c1e49373,,,,,,,,,,,,,,,,,,,,,,,,,,,,,,,,,,,,,,,,,,,,,,,,,,,,,,,,,,,,,,,,,,,,,,,,,,,,,,,,,,,,,,,,,,,,,,,,,,,,,,,
,,"[""period""]",0,[0.23270000000019309],119,0,119,0,1,5efb2d098c96a40459575a3f,20,Mężczyzna,2022-05-28_09h16.13.485,task,2021.1.4,Win32,75.21058965,628b806c463b948bc644b84f,6291cc247de78e09c1e49373,,,,,,,,,,,,,,,,,,,,,,,,,,,,,,,,,,,,,,,,,,,,,,,,,,,,,,,,,,,,,,,,,,,,,,,,,,,,,,,,,,,,,,,,,,,,,,,,,,,,,,,
,,,,,,,,,,5efb2d098c96a40459575a3f,20,Mężczyzna,2022-05-28_09h16.13.485,task,2021.1.4,Win32,75.21058965,628b806c463b948bc644b84f,6291cc247de78e09c1e49373,space,24.2425,space,11.347,0,0,0,0,1,"X V Q F H G B L J M P D K C T S W R N Z
",,,,,,,,,,,,,,,,,,,,,,,,,,,,,,,,,,,,,,,,,,,,,,,,,,,,,,,,,,,,,,,,,,,,,,,,,,,,,,,,,,,,,,,,,,,,,
,,,,,,,,,,5efb2d098c96a40459575a3f,20,Mężczyzna,2022-05-28_09h16.13.485,task,2021.1.4,Win32,75.21058965,628b806c463b948bc644b84f,6291cc247de78e09c1e49373,,,,,1,0,1,0,1,"X V Q F H G B L J M P D K C T S W R N Z
",,,,,,,,,,,,,,,,,,,,,,,,,,,,,,,,,,,,,,,,,,,,,,,,,,,,,,,,,,,,,,,,,,,,,,,,,,,,,,,,,,,,,,,,,,,,,
,,,,,,,,,,5efb2d098c96a40459575a3f,20,Mężczyzna,2022-05-28_09h16.13.485,task,2021.1.4,Win32,75.21058965,628b806c463b948bc644b84f,6291cc247de78e09c1e49373,,,,,,,,,,,zj,"[""z"",""j""]","[1.6539999999999964,4.77920000000023,5.32220000000018]",1,ZJ,0,0,0,0,1,,,,,,,,,,,,,,,,,,,,,,,,,,,,,,,,,,,,,,,,,,,,,,,,,,,,,,,,,,,,,,,,,,,,,,,,,,,,,,,,,,,
,,,,,,,,,,5efb2d098c96a40459575a3f,20,Mężczyzna,2022-05-28_09h16.13.485,task,2021.1.4,Win32,75.21058965,628b806c463b948bc644b84f,6291cc247de78e09c1e49373,,,,,0,0,0,0,1,"X V Q F H G B L J M P D K C T S W R N Z
",,,,,,,,,,,,,,,,,,,,,,,,,,,,,,,,,,,,,,,,,,,,,,,,,,,,,,,,,,,,,,,,,,,,,,,,,,,,,,,,,,,,,,,,,,,,,
,,,,,,,,,,5efb2d098c96a40459575a3f,20,Mężczyzna,2022-05-28_09h16.13.485,task,2021.1.4,Win32,75.21058965,628b806c463b948bc644b84f,6291cc247de78e09c1e49373,,,,,1,0,1,0,1,"X V Q F H G B L J M P D K C T S W R N Z
",,,,,,,,,,,,,,,,,,,,,,,,,,,,,,,,,,,,,,,,,,,,,,,,,,,,,,,,,,,,,,,,,,,,,,,,,,,,,,,,,,,,,,,,,,,,,
,,,,,,,,,,5efb2d098c96a40459575a3f,20,Mężczyzna,2022-05-28_09h16.13.485,task,2021.1.4,Win32,75.21058965,628b806c463b948bc644b84f,6291cc247de78e09c1e49373,,,,,,,,,,,nt,"[""n"",""t""]","[0.9886999999992554,1.2913999999994417,2.6680000000000064]",1,NT,1,0,1,0,1,,,,,,,,,,,,,,,,,,,,,,,,,,,,,,,,,,,,,,,,,,,,,,,,,,,,,,,,,,,,,,,,,,,,,,,,,,,,,,,,,,,
,,,,,,,,,,5efb2d098c96a40459575a3f,20,Mężczyzna,2022-05-28_09h16.13.485,task,2021.1.4,Win32,75.21058965,628b806c463b948bc644b84f,6291cc247de78e09c1e49373,,,,,0,0,0,0,1,"X V Q F H G B L J M P D K C T S W R N Z
",,,,,,,,,,,,,,,,,,,,,,,,,,,,,,,,,,,,,,,,,,,,,,,,,,,,,,,,,,,,,,,,,,,,,,,,,,,,,,,,,,,,,,,,,,,,,
,,,,,,,,,,5efb2d098c96a40459575a3f,20,Mężczyzna,2022-05-28_09h16.13.485,task,2021.1.4,Win32,75.21058965,628b806c463b948bc644b84f,6291cc247de78e09c1e49373,,,,,1,0,1,0,1,"X V Q F H G B L J M P D K C T S W R N Z
",,,,,,,,,,,,,,,,,,,,,,,,,,,,,,,,,,,,,,,,,,,,,,,,,,,,,,,,,,,,,,,,,,,,,,,,,,,,,,,,,,,,,,,,,,,,,
,,,,,,,,,,5efb2d098c96a40459575a3f,20,Mężczyzna,2022-05-28_09h16.13.485,task,2021.1.4,Win32,75.21058965,628b806c463b948bc644b84f,6291cc247de78e09c1e49373,,,,,2,0,2,0,1,"X V Q F H G B L J M P D K C T S W R N Z
",,,,,,,,,,,,,,,,,,,,,,,,,,,,,,,,,,,,,,,,,,,,,,,,,,,,,,,,,,,,,,,,,,,,,,,,,,,,,,,,,,,,,,,,,,,,,
,,,,,,,,,,5efb2d098c96a40459575a3f,20,Mężczyzna,2022-05-28_09h16.13.485,task,2021.1.4,Win32,75.21058965,628b806c463b948bc644b84f,6291cc247de78e09c1e49373,,,,,,,,,,,xcl,"[""x"",""c"",""l""]","[0.9952999999998156,1.2363999999994348,1.3423999999994294,3.235500000000002]",1,XCL,2,0,2,0,1,,,,,,,,,,,,,,,,,,,,,,,,,,,,,,,,,,,,,,,,,,,,,,,,,,,,,,,,,,,,,,,,,,,,,,,,,,,,,,,,,,,
,,,,,,,,,,5efb2d098c96a40459575a3f,20,Mężczyzna,2022-05-28_09h16.13.485,task,2021.1.4,Win32,75.21058965,628b806c463b948bc644b84f,6291cc247de78e09c1e49373,,,,,0,0,0,0,1,"X V Q F H G B L J M P D K C T S W R N Z
",,,,,,,,,,,,,,,,,,,,,,,,,,,,,,,,,,,,,,,,,,,,,,,,,,,,,,,,,,,,,,,,,,,,,,,,,,,,,,,,,,,,,,,,,,,,,
,,,,,,,,,,5efb2d098c96a40459575a3f,20,Mężczyzna,2022-05-28_09h16.13.485,task,2021.1.4,Win32,75.21058965,628b806c463b948bc644b84f,6291cc247de78e09c1e49373,,,,,1,0,1,0,1,"X V Q F H G B L J M P D K C T S W R N Z
",,,,,,,,,,,,,,,,,,,,,,,,,,,,,,,,,,,,,,,,,,,,,,,,,,,,,,,,,,,,,,,,,,,,,,,,,,,,,,,,,,,,,,,,,,,,,
,,,,,,,,,,5efb2d098c96a40459575a3f,20,Mężczyzna,2022-05-28_09h16.13.485,task,2021.1.4,Win32,75.21058965,628b806c463b948bc644b84f,6291cc247de78e09c1e49373,,,,,2,0,2,0,1,"X V Q F H G B L J M P D K C T S W R N Z
",,,,,,,,,,,,,,,,,,,,,,,,,,,,,,,,,,,,,,,,,,,,,,,,,,,,,,,,,,,,,,,,,,,,,,,,,,,,,,,,,,,,,,,,,,,,,
,,,,,,,,,,5efb2d098c96a40459575a3f,20,Mężczyzna,2022-05-28_09h16.13.485,task,2021.1.4,Win32,75.21058965,628b806c463b948bc644b84f,6291cc247de78e09c1e49373,,,,,,,,,,,vlz,"[""v"",""l"",""z""]","[0.9289999999999736,1.028299999999831,1.2022000000001754,2.1240999999996006]",0,"VLZ
",3,0,3,0,1,,,,,,,,,,,,,,,,,,,,,,,,,,,,,,,,,,,,,,,,,,,,,,,,,,,,,,,,,,,,,,,,,,,,,,,,,,,,,,,,,,,
,,,,,,,,,,5efb2d098c96a40459575a3f,20,Mężczyzna,2022-05-28_09h16.13.485,task,2021.1.4,Win32,75.21058965,628b806c463b948bc644b84f,6291cc247de78e09c1e49373,,,,,0,0,0,0,1,"X V Q F H G B L J M P D K C T S W R N Z
",,,,,,,,,,,,,,,,,,,,,,,,,,,,,,,,,,,,,,,,,,,,,,,,,,,,,,,,,,,,,,,,,,,,,,,,,,,,,,,,,,,,,,,,,,,,,
,,,,,,,,,,5efb2d098c96a40459575a3f,20,Mężczyzna,2022-05-28_09h16.13.485,task,2021.1.4,Win32,75.21058965,628b806c463b948bc644b84f,6291cc247de78e09c1e49373,,,,,1,0,1,0,1,"X V Q F H G B L J M P D K C T S W R N Z
",,,,,,,,,,,,,,,,,,,,,,,,,,,,,,,,,,,,,,,,,,,,,,,,,,,,,,,,,,,,,,,,,,,,,,,,,,,,,,,,,,,,,,,,,,,,,
,,,,,,,,,,5efb2d098c96a40459575a3f,20,Mężczyzna,2022-05-28_09h16.13.485,task,2021.1.4,Win32,75.21058965,628b806c463b948bc644b84f,6291cc247de78e09c1e49373,,,,,2,0,2,0,1,"X V Q F H G B L J M P D K C T S W R N Z
",,,,,,,,,,,,,,,,,,,,,,,,,,,,,,,,,,,,,,,,,,,,,,,,,,,,,,,,,,,,,,,,,,,,,,,,,,,,,,,,,,,,,,,,,,,,,
,,,,,,,,,,5efb2d098c96a40459575a3f,20,Mężczyzna,2022-05-28_09h16.13.485,task,2021.1.4,Win32,75.21058965,628b806c463b948bc644b84f,6291cc247de78e09c1e49373,,,,,,,,,,,pwr,"[""p"",""w"",""r""]","[0.7522000000001867,0.9237999999998578,1.135700000000213,2.27370000000019]",1,PWR,4,0,4,0,1,,,,,,,,,,,,,,,,,,,,,,,,,,,,,,,,,,,,,,,,,,,,,,,,,,,,,,,,,,,,,,,,,,,,,,,,,,,,,,,,,,,
,,,,,,,,,,5efb2d098c96a40459575a3f,20,Mężczyzna,2022-05-28_09h16.13.485,task,2021.1.4,Win32,75.21058965,628b806c463b948bc644b84f,6291cc247de78e09c1e49373,,,,,0,0,0,0,1,"X V Q F H G B L J M P D K C T S W R N Z
",,,,,,,,,,,,,,,,,,,,,,,,,,,,,,,,,,,,,,,,,,,,,,,,,,,,,,,,,,,,,,,,,,,,,,,,,,,,,,,,,,,,,,,,,,,,,
,,,,,,,,,,5efb2d098c96a40459575a3f,20,Mężczyzna,2022-05-28_09h16.13.485,task,2021.1.4,Win32,75.21058965,628b806c463b948bc644b84f,6291cc247de78e09c1e49373,,,,,1,0,1,0,1,"X V Q F H G B L J M P D K C T S W R N Z
",,,,,,,,,,,,,,,,,,,,,,,,,,,,,,,,,,,,,,,,,,,,,,,,,,,,,,,,,,,,,,,,,,,,,,,,,,,,,,,,,,,,,,,,,,,,,
,,,,,,,,,,5efb2d098c96a40459575a3f,20,Mężczyzna,2022-05-28_09h16.13.485,task,2021.1.4,Win32,75.21058965,628b806c463b948bc644b84f,6291cc247de78e09c1e49373,,,,,2,0,2,0,1,"X V Q F H G B L J M P D K C T S W R N Z
",,,,,,,,,,,,,,,,,,,,,,,,,,,,,,,,,,,,,,,,,,,,,,,,,,,,,,,,,,,,,,,,,,,,,,,,,,,,,,,,,,,,,,,,,,,,,
,,,,,,,,,,5efb2d098c96a40459575a3f,20,Mężczyzna,2022-05-28_09h16.13.485,task,2021.1.4,Win32,75.21058965,628b806c463b948bc644b84f,6291cc247de78e09c1e49373,,,,,3,0,3,0,1,"X V Q F H G B L J M P D K C T S W R N Z
",,,,,,,,,,,,,,,,,,,,,,,,,,,,,,,,,,,,,,,,,,,,,,,,,,,,,,,,,,,,,,,,,,,,,,,,,,,,,,,,,,,,,,,,,,,,,
,,,,,,,,,,5efb2d098c96a40459575a3f,20,Mężczyzna,2022-05-28_09h16.13.485,task,2021.1.4,Win32,75.21058965,628b806c463b948bc644b84f,6291cc247de78e09c1e49373,,,,,,,,,,,lxcw,"[""l"",""x"",""c"",""w""]","[0.8687000000002172,1.0907000000001972,1.2159000000003743,1.434500000000014,2.655700000000195]",1,LXCW,5,0,5,0,1,,,,,,,,,,,,,,,,,,,,,,,,,,,,,,,,,,,,,,,,,,,,,,,,,,,,,,,,,,,,,,,,,,,,,,,,,,,,,,,,,,,
,,,,,,,,,,5efb2d098c96a40459575a3f,20,Mężczyzna,2022-05-28_09h16.13.485,task,2021.1.4,Win32,75.21058965,628b806c463b948bc644b84f,6291cc247de78e09c1e49373,,,,,0,0,0,0,1,"X V Q F H G B L J M P D K C T S W R N Z
",,,,,,,,,,,,,,,,,,,,,,,,,,,,,,,,,,,,,,,,,,,,,,,,,,,,,,,,,,,,,,,,,,,,,,,,,,,,,,,,,,,,,,,,,,,,,
,,,,,,,,,,5efb2d098c96a40459575a3f,20,Mężczyzna,2022-05-28_09h16.13.485,task,2021.1.4,Win32,75.21058965,628b806c463b948bc644b84f,6291cc247de78e09c1e49373,,,,,1,0,1,0,1,"X V Q F H G B L J M P D K C T S W R N Z
",,,,,,,,,,,,,,,,,,,,,,,,,,,,,,,,,,,,,,,,,,,,,,,,,,,,,,,,,,,,,,,,,,,,,,,,,,,,,,,,,,,,,,,,,,,,,
,,,,,,,,,,5efb2d098c96a40459575a3f,20,Mężczyzna,2022-05-28_09h16.13.485,task,2021.1.4,Win32,75.21058965,628b806c463b948bc644b84f,6291cc247de78e09c1e49373,,,,,2,0,2,0,1,"X V Q F H G B L J M P D K C T S W R N Z
",,,,,,,,,,,,,,,,,,,,,,,,,,,,,,,,,,,,,,,,,,,,,,,,,,,,,,,,,,,,,,,,,,,,,,,,,,,,,,,,,,,,,,,,,,,,,
,,,,,,,,,,5efb2d098c96a40459575a3f,20,Mężczyzna,2022-05-28_09h16.13.485,task,2021.1.4,Win32,75.21058965,628b806c463b948bc644b84f,6291cc247de78e09c1e49373,,,,,3,0,3,0,1,"X V Q F H G B L J M P D K C T S W R N Z
",,,,,,,,,,,,,,,,,,,,,,,,,,,,,,,,,,,,,,,,,,,,,,,,,,,,,,,,,,,,,,,,,,,,,,,,,,,,,,,,,,,,,,,,,,,,,
,,,,,,,,,,5efb2d098c96a40459575a3f,20,Mężczyzna,2022-05-28_09h16.13.485,task,2021.1.4,Win32,75.21058965,628b806c463b948bc644b84f,6291cc247de78e09c1e49373,,,,,,,,,,,jxcm,"[""j"",""x"",""c"",""m""]","[0.9219000000003348,1.0262999999998215,1.5675999999996293,1.7794999999999845,2.6432000000001494]",0,JNXM,6,0,6,0,1,,,,,,,,,,,,,,,,,,,,,,,,,,,,,,,,,,,,,,,,,,,,,,,,,,,,,,,,,,,,,,,,,,,,,,,,,,,,,,,,,,,
,,,,,,,,,,5efb2d098c96a40459575a3f,20,Mężczyzna,2022-05-28_09h16.13.485,task,2021.1.4,Win32,75.21058965,628b806c463b948bc644b84f,6291cc247de78e09c1e49373,,,,,0,0,0,0,1,"X V Q F H G B L J M P D K C T S W R N Z
",,,,,,,,,,,,,,,,,,,,,,,,,,,,,,,,,,,,,,,,,,,,,,,,,,,,,,,,,,,,,,,,,,,,,,,,,,,,,,,,,,,,,,,,,,,,,
,,,,,,,,,,5efb2d098c96a40459575a3f,20,Mężczyzna,2022-05-28_09h16.13.485,task,2021.1.4,Win32,75.21058965,628b806c463b948bc644b84f,6291cc247de78e09c1e49373,,,,,1,0,1,0,1,"X V Q F H G B L J M P D K C T S W R N Z
",,,,,,,,,,,,,,,,,,,,,,,,,,,,,,,,,,,,,,,,,,,,,,,,,,,,,,,,,,,,,,,,,,,,,,,,,,,,,,,,,,,,,,,,,,,,,
,,,,,,,,,,5efb2d098c96a40459575a3f,20,Mężczyzna,2022-05-28_09h16.13.485,task,2021.1.4,Win32,75.21058965,628b806c463b948bc644b84f,6291cc247de78e09c1e49373,,,,,2,0,2,0,1,"X V Q F H G B L J M P D K C T S W R N Z
",,,,,,,,,,,,,,,,,,,,,,,,,,,,,,,,,,,,,,,,,,,,,,,,,,,,,,,,,,,,,,,,,,,,,,,,,,,,,,,,,,,,,,,,,,,,,
,,,,,,,,,,5efb2d098c96a40459575a3f,20,Mężczyzna,2022-05-28_09h16.13.485,task,2021.1.4,Win32,75.21058965,628b806c463b948bc644b84f,6291cc247de78e09c1e49373,,,,,3,0,3,0,1,"X V Q F H G B L J M P D K C T S W R N Z
",,,,,,,,,,,,,,,,,,,,,,,,,,,,,,,,,,,,,,,,,,,,,,,,,,,,,,,,,,,,,,,,,,,,,,,,,,,,,,,,,,,,,,,,,,,,,
,,,,,,,,,,5efb2d098c96a40459575a3f,20,Mężczyzna,2022-05-28_09h16.13.485,task,2021.1.4,Win32,75.21058965,628b806c463b948bc644b84f,6291cc247de78e09c1e49373,,,,,,,,,,,nwmw,"[""n"",""w"",""m"",""w""]","[0.4921999999992863,0.6530999999996538,0.799299999999846,0.973099999999647,2.122000000000014]",1,NWMW,7,0,7,0,1,,,,,,,,,,,,,,,,,,,,,,,,,,,,,,,,,,,,,,,,,,,,,,,,,,,,,,,,,,,,,,,,,,,,,,,,,,,,,,,,,,,
,,,,,,,,,,5efb2d098c96a40459575a3f,20,Mężczyzna,2022-05-28_09h16.13.485,task,2021.1.4,Win32,75.21058965,628b806c463b948bc644b84f,6291cc247de78e09c1e49373,,,,,0,0,0,0,1,"X V Q F H G B L J M P D K C T S W R N Z
",,,,,,,,,,,,,,,,,,,,,,,,,,,,,,,,,,,,,,,,,,,,,,,,,,,,,,,,,,,,,,,,,,,,,,,,,,,,,,,,,,,,,,,,,,,,,
,,,,,,,,,,5efb2d098c96a40459575a3f,20,Mężczyzna,2022-05-28_09h16.13.485,task,2021.1.4,Win32,75.21058965,628b806c463b948bc644b84f,6291cc247de78e09c1e49373,,,,,1,0,1,0,1,"X V Q F H G B L J M P D K C T S W R N Z
",,,,,,,,,,,,,,,,,,,,,,,,,,,,,,,,,,,,,,,,,,,,,,,,,,,,,,,,,,,,,,,,,,,,,,,,,,,,,,,,,,,,,,,,,,,,,
,,,,,,,,,,5efb2d098c96a40459575a3f,20,Mężczyzna,2022-05-28_09h16.13.485,task,2021.1.4,Win32,75.21058965,628b806c463b948bc644b84f,6291cc247de78e09c1e49373,,,,,2,0,2,0,1,"X V Q F H G B L J M P D K C T S W R N Z
",,,,,,,,,,,,,,,,,,,,,,,,,,,,,,,,,,,,,,,,,,,,,,,,,,,,,,,,,,,,,,,,,,,,,,,,,,,,,,,,,,,,,,,,,,,,,
,,,,,,,,,,5efb2d098c96a40459575a3f,20,Mężczyzna,2022-05-28_09h16.13.485,task,2021.1.4,Win32,75.21058965,628b806c463b948bc644b84f,6291cc247de78e09c1e49373,,,,,3,0,3,0,1,"X V Q F H G B L J M P D K C T S W R N Z
",,,,,,,,,,,,,,,,,,,,,,,,,,,,,,,,,,,,,,,,,,,,,,,,,,,,,,,,,,,,,,,,,,,,,,,,,,,,,,,,,,,,,,,,,,,,,
,,,,,,,,,,5efb2d098c96a40459575a3f,20,Mężczyzna,2022-05-28_09h16.13.485,task,2021.1.4,Win32,75.21058965,628b806c463b948bc644b84f,6291cc247de78e09c1e49373,,,,,4,0,4,0,1,"X V Q F H G B L J M P D K C T S W R N Z
",,,,,,,,,,,,,,,,,,,,,,,,,,,,,,,,,,,,,,,,,,,,,,,,,,,,,,,,,,,,,,,,,,,,,,,,,,,,,,,,,,,,,,,,,,,,,
,,,,,,,,,,5efb2d098c96a40459575a3f,20,Mężczyzna,2022-05-28_09h16.13.485,task,2021.1.4,Win32,75.21058965,628b806c463b948bc644b84f,6291cc247de78e09c1e49373,,,,,,,,,,,xqjpz,"[""x"",""q"",""j"",""p"",""z""]","[0.4807999999998174,0.6616999999992572,0.7671999999992636,1.17779999999982,1.2837999999998146,2.2762999999998215]",0,"XJQPZ
",8,0,8,0,1,,,,,,,,,,,,,,,,,,,,,,,,,,,,,,,,,,,,,,,,,,,,,,,,,,,,,,,,,,,,,,,,,,,,,,,,,,,,,,,,,,,
,,,,,,,,,,5efb2d098c96a40459575a3f,20,Mężczyzna,2022-05-28_09h16.13.485,task,2021.1.4,Win32,75.21058965,628b806c463b948bc644b84f,6291cc247de78e09c1e49373,,,,,0,0,0,0,1,"X V Q F H G B L J M P D K C T S W R N Z
",,,,,,,,,,,,,,,,,,,,,,,,,,,,,,,,,,,,,,,,,,,,,,,,,,,,,,,,,,,,,,,,,,,,,,,,,,,,,,,,,,,,,,,,,,,,,
,,,,,,,,,,5efb2d098c96a40459575a3f,20,Mężczyzna,2022-05-28_09h16.13.485,task,2021.1.4,Win32,75.21058965,628b806c463b948bc644b84f,6291cc247de78e09c1e49373,,,,,1,0,1,0,1,"X V Q F H G B L J M P D K C T S W R N Z
",,,,,,,,,,,,,,,,,,,,,,,,,,,,,,,,,,,,,,,,,,,,,,,,,,,,,,,,,,,,,,,,,,,,,,,,,,,,,,,,,,,,,,,,,,,,,
,,,,,,,,,,5efb2d098c96a40459575a3f,20,Mężczyzna,2022-05-28_09h16.13.485,task,2021.1.4,Win32,75.21058965,628b806c463b948bc644b84f,6291cc247de78e09c1e49373,,,,,2,0,2,0,1,"X V Q F H G B L J M P D K C T S W R N Z
",,,,,,,,,,,,,,,,,,,,,,,,,,,,,,,,,,,,,,,,,,,,,,,,,,,,,,,,,,,,,,,,,,,,,,,,,,,,,,,,,,,,,,,,,,,,,
,,,,,,,,,,5efb2d098c96a40459575a3f,20,Mężczyzna,2022-05-28_09h16.13.485,task,2021.1.4,Win32,75.21058965,628b806c463b948bc644b84f,6291cc247de78e09c1e49373,,,,,3,0,3,0,1,"X V Q F H G B L J M P D K C T S W R N Z
",,,,,,,,,,,,,,,,,,,,,,,,,,,,,,,,,,,,,,,,,,,,,,,,,,,,,,,,,,,,,,,,,,,,,,,,,,,,,,,,,,,,,,,,,,,,,
,,,,,,,,,,5efb2d098c96a40459575a3f,20,Mężczyzna,2022-05-28_09h16.13.485,task,2021.1.4,Win32,75.21058965,628b806c463b948bc644b84f,6291cc247de78e09c1e49373,,,,,4,0,4,0,1,"X V Q F H G B L J M P D K C T S W R N Z
",,,,,,,,,,,,,,,,,,,,,,,,,,,,,,,,,,,,,,,,,,,,,,,,,,,,,,,,,,,,,,,,,,,,,,,,,,,,,,,,,,,,,,,,,,,,,
,,,,,,,,,,5efb2d098c96a40459575a3f,20,Mężczyzna,2022-05-28_09h16.13.485,task,2021.1.4,Win32,75.21058965,628b806c463b948bc644b84f,6291cc247de78e09c1e49373,,,,,,,,,,,mnzpt,"[""m"",""n"",""z"",""p"",""t""]","[0.7517000000001985,0.7963000000007128,1.2337000000001694,1.3173000000007278,2.0162000000001967,3.0498000000007437]",0,"MZ
TPM",9,0,9,0,1,,,,,,,,,,,,,,,,,,,,,,,,,,,,,,,,,,,,,,,,,,,,,,,,,,,,,,,,,,,,,,,,,,,,,,,,,,,,,,,,,,,
,,,,,,,,,,5efb2d098c96a40459575a3f,20,Mężczyzna,2022-05-28_09h16.13.485,task,2021.1.4,Win32,75.21058965,628b806c463b948bc644b84f,6291cc247de78e09c1e49373,,,,,0,0,0,0,1,"X V Q F H G B L J M P D K C T S W R N Z
",,,,,,,,,,,,,,,,,,,,,,,,,,,,,,,,,,,,,,,,,,,,,,,,,,,,,,,,,,,,,,,,,,,,,,,,,,,,,,,,,,,,,,,,,,,,,
,,,,,,,,,,5efb2d098c96a40459575a3f,20,Mężczyzna,2022-05-28_09h16.13.485,task,2021.1.4,Win32,75.21058965,628b806c463b948bc644b84f,6291cc247de78e09c1e49373,,,,,1,0,1,0,1,"X V Q F H G B L J M P D K C T S W R N Z
",,,,,,,,,,,,,,,,,,,,,,,,,,,,,,,,,,,,,,,,,,,,,,,,,,,,,,,,,,,,,,,,,,,,,,,,,,,,,,,,,,,,,,,,,,,,,
,,,,,,,,,,5efb2d098c96a40459575a3f,20,Mężczyzna,2022-05-28_09h16.13.485,task,2021.1.4,Win32,75.21058965,628b806c463b948bc644b84f,6291cc247de78e09c1e49373,,,,,2,0,2,0,1,"X V Q F H G B L J M P D K C T S W R N Z
",,,,,,,,,,,,,,,,,,,,,,,,,,,,,,,,,,,,,,,,,,,,,,,,,,,,,,,,,,,,,,,,,,,,,,,,,,,,,,,,,,,,,,,,,,,,,
,,,,,,,,,,5efb2d098c96a40459575a3f,20,Mężczyzna,2022-05-28_09h16.13.485,task,2021.1.4,Win32,75.21058965,628b806c463b948bc644b84f,6291cc247de78e09c1e49373,,,,,3,0,3,0,1,"X V Q F H G B L J M P D K C T S W R N Z
",,,,,,,,,,,,,,,,,,,,,,,,,,,,,,,,,,,,,,,,,,,,,,,,,,,,,,,,,,,,,,,,,,,,,,,,,,,,,,,,,,,,,,,,,,,,,
,,,,,,,,,,5efb2d098c96a40459575a3f,20,Mężczyzna,2022-05-28_09h16.13.485,task,2021.1.4,Win32,75.21058965,628b806c463b948bc644b84f,6291cc247de78e09c1e49373,,,,,4,0,4,0,1,"X V Q F H G B L J M P D K C T S W R N Z
",,,,,,,,,,,,,,,,,,,,,,,,,,,,,,,,,,,,,,,,,,,,,,,,,,,,,,,,,,,,,,,,,,,,,,,,,,,,,,,,,,,,,,,,,,,,,
,,,,,,,,,,5efb2d098c96a40459575a3f,20,Mężczyzna,2022-05-28_09h16.13.485,task,2021.1.4,Win32,75.21058965,628b806c463b948bc644b84f,6291cc247de78e09c1e49373,,,,,,,,,,,hpfhr,"[""h"",""p"",""f"",""h"",""r""]","[0.8008999999994444,0.8707000000001699,1.356999999999971,1.5497999999997774,1.628200000000163,3.5473999999994135]",0,PHFHR,10,0,10,0,1,,,,,,,,,,,,,,,,,,,,,,,,,,,,,,,,,,,,,,,,,,,,,,,,,,,,,,,,,,,,,,,,,,,,,,,,,,,,,,,,,,,
,,,,,,,,,,5efb2d098c96a40459575a3f,20,Mężczyzna,2022-05-28_09h16.13.485,task,2021.1.4,Win32,75.21058965,628b806c463b948bc644b84f,6291cc247de78e09c1e49373,,,,,,,,,,,,,,,,,,,,,space,12.5409,4,"[""4""]",1,[10.22199999999998],[10.22199999999998],0,0,0,4,1,Practice,5,(2x6) - 8,4,,,,,,,,,,,,,,,,,,,,,,,,,,,,,,,,,,,,,,,,,,,,,,,,,,,,,,,,,,,,,,,,,,,
,,,,,,,,,,5efb2d098c96a40459575a3f,20,Mężczyzna,2022-05-28_09h16.13.485,task,2021.1.4,Win32,75.21058965,628b806c463b948bc644b84f,6291cc247de78e09c1e49373,,,,,,,,,,,,,,,,,,,,,,,1,"[""1""]",1,[5.432000000000016],"[10.22199999999998,5.432000000000016]",0,1,1,1,1,Practice,2,(4x4) - 15,1,,,,,,,,,,,,,,,,,,,,,,,,,,,,,,,,,,,,,,,,,,,,,,,,,,,,,,,,,,,,,,,,,,,
,,,,,,,,,,5efb2d098c96a40459575a3f,20,Mężczyzna,2022-05-28_09h16.13.485,task,2021.1.4,Win32,75.21058965,628b806c463b948bc644b84f,6291cc247de78e09c1e49373,,,,,,,,,,,,,,,,,,,,,,,5,"[""5""]",1,[4.852700000000141],"[10.22199999999998,5.432000000000016,4.852700000000141]",0,2,2,5,1,Practice,6,(4/2) + 3,5,,,,,,,,,,,,,,,,,,,,,,,,,,,,,,,,,,,,,,,,,,,,,,,,,,,,,,,,,,,,,,,,,,,
,,,,,,,,,,5efb2d098c96a40459575a3f,20,Mężczyzna,2022-05-28_09h16.13.485,task,2021.1.4,Win32,75.21058965,628b806c463b948bc644b84f,6291cc247de78e09c1e49373,,,,,,,,,,,,,,,,,,,,,,,0,"[""0""]",1,[2.856199999999262],"[10.22199999999998,5.432000000000016,4.852700000000141,2.856199999999262]",0,3,3,0,1,Practice,1,(3x3) -  9,0,,,,,,,,,,,,,,,,,,,,,,,,,,,,,,,,,,,,,,,,,,,,,,,,,,,,,,,,,,,,,,,,,,,
,,,,,,,,,,5efb2d098c96a40459575a3f,20,Mężczyzna,2022-05-28_09h16.13.485,task,2021.1.4,Win32,75.21058965,628b806c463b948bc644b84f,6291cc247de78e09c1e49373,,,,,,,,,,,,,,,,,,,,,,,9,"[""9""]",1,[4.22420000000011],"[10.22199999999998,5.432000000000016,4.852700000000141,2.856199999999262,4.22420000000011]",0,4,4,9,1,Practice,10,(20/2) - 1,9,,,,,,,,,,,,,,,,,,,,,,,,,,,,,,,,,,,,,,,,,,,,,,,,,,,,,,,,,,,,,,,,,,,
,,,,,,,,,,5efb2d098c96a40459575a3f,20,Mężczyzna,2022-05-28_09h16.13.485,task,2021.1.4,Win32,75.21058965,628b806c463b948bc644b84f,6291cc247de78e09c1e49373,,,,,,,,,,,,,,,,,,,,,,,3,"[""3""]",1,[2.7045000000000528],"[10.22199999999998,5.432000000000016,4.852700000000141,2.856199999999262,4.22420000000011,2.7045000000000528]",0,5,5,3,1,Practice,4,(8/4) + 1,3,,,,,,,,,,,,,,,,,,,,,,,,,,,,,,,,,,,,,,,,,,,,,,,,,,,,,,,,,,,,,,,,,,,
,,,,,,,,,,5efb2d098c96a40459575a3f,20,Mężczyzna,2022-05-28_09h16.13.485,task,2021.1.4,Win32,75.21058965,628b806c463b948bc644b84f,6291cc247de78e09c1e49373,,,,,,,,,,,,,,,,,,,,,,,6,"[""6""]",1,[2.718499999999949],"[10.22199999999998,5.432000000000016,4.852700000000141,2.856199999999262,4.22420000000011,2.7045000000000528,2.718499999999949]",0,6,6,6,1,Practice,7,(25/5) + 1,6,,,,,,,,,,,,,,,,,,,,,,,,,,,,,,,,,,,,,,,,,,,,,,,,,,,,,,,,,,,,,,,,,,,
,,,,,,,,,,5efb2d098c96a40459575a3f,20,Mężczyzna,2022-05-28_09h16.13.485,task,2021.1.4,Win32,75.21058965,628b806c463b948bc644b84f,6291cc247de78e09c1e49373,,,,,,,,,,,,,,,,,,,,,,,7,"[""7""]",1,[3.957600000000525],"[10.22199999999998,5.432000000000016,4.852700000000141,2.856199999999262,4.22420000000011,2.7045000000000528,2.718499999999949,3.957600000000525]",0,7,7,7,1,Practice,8,(5x5) - 18,7,,,,,,,,,,,,,,,,,,,,,,,,,,,,,,,,,,,,,,,,,,,,,,,,,,,,,,,,,,,,,,,,,,,
,,,,,,,,,,5efb2d098c96a40459575a3f,20,Mężczyzna,2022-05-28_09h16.13.485,task,2021.1.4,Win32,75.21058965,628b806c463b948bc644b84f,6291cc247de78e09c1e49373,,,,,,,,,,,,,,,,,,,,,,,8,"[""8""]",1,[2.4685000000000628],"[10.22199999999998,5.432000000000016,4.852700000000141,2.856199999999262,4.22420000000011,2.7045000000000528,2.718499999999949,3.957600000000525,2.4685000000000628]",0,8,8,8,1,Practice,9,(3x3) - 1,8,,,,,,,,,,,,,,,,,,,,,,,,,,,,,,,,,,,,,,,,,,,,,,,,,,,,,,,,,,,,,,,,,,,
,,,,,,,,,,5efb2d098c96a40459575a3f,20,Mężczyzna,2022-05-28_09h16.13.485,task,2021.1.4,Win32,75.21058965,628b806c463b948bc644b84f,6291cc247de78e09c1e49373,,,,,,,,,,,,,,,,,,,,,,,2,"[""2""]",1,[2.3874000000004116],"[10.22199999999998,5.432000000000016,4.852700000000141,2.856199999999262,4.22420000000011,2.7045000000000528,2.718499999999949,3.957600000000525,2.4685000000000628,2.3874000000004116]",0,9,9,2,1,Practice,3,(4x4) - 14,2,,,,,,,,,,,,,,,,,,,,,,,,,,,,,,,,,,,,,,,,,,,,,,,,,,,,,,,,,,,,,,,,,,,
,,,,,,,,,,5efb2d098c96a40459575a3f,20,Mężczyzna,2022-05-28_09h16.13.485,task,2021.1.4,Win32,75.21058965,628b806c463b948bc644b84f,6291cc247de78e09c1e49373,,,,,,,,,,,,,,,,,,,,,,,,,,,,,,,,,,,,,1,41.8236,2.78824,70.22103469,2.163654851,8.370469515,space,2.8484,0,0,0,0,1,,,,,,,,,,,,,,,,,,,,,,,,,,,,,,,,,,,,,,,,,,,,,,,,,,,,,,
,,,,,,,,,,5efb2d098c96a40459575a3f,20,Mężczyzna,2022-05-28_09h16.13.485,task,2021.1.4,Win32,75.21058965,628b806c463b948bc644b84f,6291cc247de78e09c1e49373,,,,,,,,,,,,,,,,,,,,,,,2,,,,,,,,,,Practice,3,(4x4) - 14,2,,,,,,,,,,,,,,space,34.0159,"[""2""]",1,[4.384500000000003],1,0,0,0,2,1,,,,,,,,,,,,,,,,,,,,,,,,,,,,,,,,,,,,,,,,,,,
,,,,,,,,,,5efb2d098c96a40459575a3f,20,Mężczyzna,2022-05-28_09h16.13.485,task,2021.1.4,Win32,75.21058965,628b806c463b948bc644b84f,6291cc247de78e09c1e49373,,,,,,,,,,"X V Q F H G B L J M P D K C T S W R N Z
",,,,,,,,,,,,,,,,,,,,,,,,,,,,,,,,,,,,,,,,,,,,,,,,,,,0,0,0,0,1,,,,,,,,,,,,,,,,,,,,,,,,,,,,,,,,,,,,,,
,,,,,,,,,,5efb2d098c96a40459575a3f,20,Mężczyzna,2022-05-28_09h16.13.485,task,2021.1.4,Win32,75.21058965,628b806c463b948bc644b84f,6291cc247de78e09c1e49373,,,,,,,,,,,,,,,,,,,,,,,5,,,,,,,,,,Practice,6,(4/2) + 3,5,,,,,,,,,,,,,,,,"[""5""]",1,[5.374200000000201],1,0,0,0,5,1,,,,,,,,,,,,,,,,,,,,,,,,,,,,,,,,,,,,,,,,,,,
,,,,,,,,,,5efb2d098c96a40459575a3f,20,Mężczyzna,2022-05-28_09h16.13.485,task,2021.1.4,Win32,75.21058965,628b806c463b948bc644b84f,6291cc247de78e09c1e49373,,,,,,,,,,"X V Q F H G B L J M P D K C T S W R N Z
",,,,,,,,,,,,,,,,,,,,,,,,,,,,,,,,,,,,,,,,,,,,,,,,,,,1,0,1,0,1,,,,,,,,,,,,,,,,,,,,,,,,,,,,,,,,,,,,,,
,,,,,,,,,,5efb2d098c96a40459575a3f,20,Mężczyzna,2022-05-28_09h16.13.485,task,2021.1.4,Win32,75.21058965,628b806c463b948bc644b84f,6291cc247de78e09c1e49373,,,,,,,,,,,,,,,,,,,,,,,,,,,,,,,,,,,,,,,,,,,,,,,,,,,,,,,,,,,,,,,,,,zg,"[""z"",""g""]",0,"[2.1200000000000045,2.2532999999998538,3.028200000000197]",1,0,0,0,0,1,,,,,,,,,,,,,,,,,,,,,,,,,,,,
,,,,,,,,,,5efb2d098c96a40459575a3f,20,Mężczyzna,2022-05-28_09h16.13.485,task,2021.1.4,Win32,75.21058965,628b806c463b948bc644b84f,6291cc247de78e09c1e49373,,,,,,,,,,,,,,,,,,,,,,,0,,,,,,,,,,Practice,1,(3x3) -  9,0,,,,,,,,,,,,,,,,"[""0""]",1,[2.330599999999663],1,0,0,0,0,1,,,,,,,,,,,,,,,,,,,,,,,,,,,,,,,,,,,,,,,,,,,
,,,,,,,,,,5efb2d098c96a40459575a3f,20,Mężczyzna,2022-05-28_09h16.13.485,task,2021.1.4,Win32,75.21058965,628b806c463b948bc644b84f,6291cc247de78e09c1e49373,,,,,,,,,,"X V Q F H G B L J M P D K C T S W R N Z
",,,,,,,,,,,,,,,,,,,,,,,,,,,,,,,,,,,,,,,,,,,,,,,,,,,0,0,0,0,1,,,,,,,,,,,,,,,,,,,,,,,,,,,,,,,,,,,,,,
,,,,,,,,,,5efb2d098c96a40459575a3f,20,Mężczyzna,2022-05-28_09h16.13.485,task,2021.1.4,Win32,75.21058965,628b806c463b948bc644b84f,6291cc247de78e09c1e49373,,,,,,,,,,,,,,,,,,,,,,,8,,,,,,,,,,Practice,9,(3x3) - 1,8,,,,,,,,,,,,,,,,"[""8""]",1,[3.5710000000000264],1,0,0,0,8,1,,,,,,,,,,,,,,,,,,,,,,,,,,,,,,,,,,,,,,,,,,,
,,,,,,,,,,5efb2d098c96a40459575a3f,20,Mężczyzna,2022-05-28_09h16.13.485,task,2021.1.4,Win32,75.21058965,628b806c463b948bc644b84f,6291cc247de78e09c1e49373,,,,,,,,,,"X V Q F H G B L J M P D K C T S W R N Z
",,,,,,,,,,,,,,,,,,,,,,,,,,,,,,,,,,,,,,,,,,,,,,,,,,,1,0,1,0,1,,,,,,,,,,,,,,,,,,,,,,,,,,,,,,,,,,,,,,
,,,,,,,,,,5efb2d098c96a40459575a3f,20,Mężczyzna,2022-05-28_09h16.13.485,task,2021.1.4,Win32,75.21058965,628b806c463b948bc644b84f,6291cc247de78e09c1e49373,,,,,,,,,,,,,,,,,,,,,,,,,,,,,,,,,,,,,,,,,,,,,,,,,,,,,,,,,,,,,,,,,,sl,"[""s"",""l""]",0,"[2.080200000000218,2.1695000000000846,2.8360999999996466]",1,1,0,1,0,1,,,,,,,,,,,,,,,,,,,,,,,,,,,,
,,,,,,,,,,5efb2d098c96a40459575a3f,20,Mężczyzna,2022-05-28_09h16.13.485,task,2021.1.4,Win32,75.21058965,628b806c463b948bc644b84f,6291cc247de78e09c1e49373,,,,,,,,,,,,,,,,,,,,,,,6,,,,,,,,,,Practice,7,(25/5) + 1,6,,,,,,,,,,,,,,,,"[""6""]",1,[3.21870000000024],1,0,0,0,6,1,,,,,,,,,,,,,,,,,,,,,,,,,,,,,,,,,,,,,,,,,,,
,,,,,,,,,,5efb2d098c96a40459575a3f,20,Mężczyzna,2022-05-28_09h16.13.485,task,2021.1.4,Win32,75.21058965,628b806c463b948bc644b84f,6291cc247de78e09c1e49373,,,,,,,,,,"X V Q F H G B L J M P D K C T S W R N Z
",,,,,,,,,,,,,,,,,,,,,,,,,,,,,,,,,,,,,,,,,,,,,,,,,,,0,0,0,0,1,,,,,,,,,,,,,,,,,,,,,,,,,,,,,,,,,,,,,,
,,,,,,,,,,5efb2d098c96a40459575a3f,20,Mężczyzna,2022-05-28_09h16.13.485,task,2021.1.4,Win32,75.21058965,628b806c463b948bc644b84f,6291cc247de78e09c1e49373,,,,,,,,,,,,,,,,,,,,,,,8,,,,,,,,,,Practice,9,(3x3) - 1,8,,,,,,,,,,,,,,,,"[""8""]",1,[1.9217999999998483],1,0,0,0,8,1,,,,,,,,,,,,,,,,,,,,,,,,,,,,,,,,,,,,,,,,,,,
,,,,,,,,,,5efb2d098c96a40459575a3f,20,Mężczyzna,2022-05-28_09h16.13.485,task,2021.1.4,Win32,75.21058965,628b806c463b948bc644b84f,6291cc247de78e09c1e49373,,,,,,,,,,"X V Q F H G B L J M P D K C T S W R N Z
",,,,,,,,,,,,,,,,,,,,,,,,,,,,,,,,,,,,,,,,,,,,,,,,,,,1,0,1,0,1,,,,,,,,,,,,,,,,,,,,,,,,,,,,,,,,,,,,,,
,,,,,,,,,,5efb2d098c96a40459575a3f,20,Mężczyzna,2022-05-28_09h16.13.485,task,2021.1.4,Win32,75.21058965,628b806c463b948bc644b84f,6291cc247de78e09c1e49373,,,,,,,,,,,,,,,,,,,,,,,,,,,,,,,,,,,,,,,,,,,,,,,,,,,,,,,,,,,,,,,,,,qg,"[""q"",""g""]",0,"[1.6687000000002854,1.902400000000398,2.6625999999996566]",1,2,0,2,0,1,,,,,,,,,,,,,,,,,,,,,,,,,,,,
,,,,,,,,,,5efb2d098c96a40459575a3f,20,Mężczyzna,2022-05-28_09h16.13.485,task,2021.1.4,Win32,75.21058965,628b806c463b948bc644b84f,6291cc247de78e09c1e49373,,,,,,,,,,,,,,,,,,,,,,,1,,,,,,,,,,Task,34,(9/3) - 2,1,,,,,,,,,,,,,,,,,,,1,,,,,,,,,,,,,,,,,,,,,space,21.1968,"[""1""]",1,[4.713900000000422],0,0,0,33,1,,,,,,,,,,,,,,,,,,
,,,,,,,,,,5efb2d098c96a40459575a3f,20,Mężczyzna,2022-05-28_09h16.13.485,task,2021.1.4,Win32,75.21058965,628b806c463b948bc644b84f,6291cc247de78e09c1e49373,,,,,,,,,,"X V Q F H G B L J M P D K C T S W R N Z
",,,,,,,,,,,,,,,,,,,,,,,,,,,,,,,,,,,,,,,,,,,,,,,,,,,,,,,,,,,,,,,,,,,,,,,,,,,,0,0,0,0,1,,,,,,,,,,,,,
,,,,,,,,,,5efb2d098c96a40459575a3f,20,Mężczyzna,2022-05-28_09h16.13.485,task,2021.1.4,Win32,75.21058965,628b806c463b948bc644b84f,6291cc247de78e09c1e49373,,,,,,,,,,,,,,,,,,,,,,,7,,,,,,,,,,Task,6,(12/2) + 1,7,,,,,,,,,,,,,,,,,,,1,,,,,,,,,,,,,,,,,,,,,,,"[""7""]",1,[2.4564000000003716],0,0,0,5,1,,,,,,,,,,,,,,,,,,
,,,,,,,,,,5efb2d098c96a40459575a3f,20,Mężczyzna,2022-05-28_09h16.13.485,task,2021.1.4,Win32,75.21058965,628b806c463b948bc644b84f,6291cc247de78e09c1e49373,,,,,,,,,,"X V Q F H G B L J M P D K C T S W R N Z
",,,,,,,,,,,,,,,,,,,,,,,,,,,,,,,,,,,,,,,,,,,,,,,,,,,,,,,,,,,,,,,,,,,,,,,,,,,,1,0,1,0,1,,,,,,,,,,,,,
,,,,,,,,,,5efb2d098c96a40459575a3f,20,Mężczyzna,2022-05-28_09h16.13.485,task,2021.1.4,Win32,75.21058965,628b806c463b948bc644b84f,6291cc247de78e09c1e49373,,,,,,,,,,,,,,,,,,,,,,,,,,,,,,,,,,,,,,,,,,,,,,,,,,,,,,,,,,,,,,,,,,,,,,,,,,,,,,,,,,,,,,,,,,,zw,"[""z"",""w""]",0,"[1.4315000000000282,1.759900000000357,2.447700000000168]",1,ZW,0,0,0,0,1,,
,,,,,,,,,,5efb2d098c96a40459575a3f,20,Mężczyzna,2022-05-28_09h16.13.485,task,2021.1.4,Win32,75.21058965,628b806c463b948bc644b84f,6291cc247de78e09c1e49373,,,,,,,,,,,,,,,,,,,,,,,2,,,,,,,,,,Task,2,(2x2) - 2,2,,,,,,,,,,,,,,,,,,,1,,,,,,,,,,,,,,,,,,,,,,,"[""2""]",1,[4.203299999999899],0,0,0,1,1,,,,,,,,,,,,,,,,,,
,,,,,,,,,,5efb2d098c96a40459575a3f,20,Mężczyzna,2022-05-28_09h16.13.485,task,2021.1.4,Win32,75.21058965,628b806c463b948bc644b84f,6291cc247de78e09c1e49373,,,,,,,,,,"X V Q F H G B L J M P D K C T S W R N Z
",,,,,,,,,,,,,,,,,,,,,,,,,,,,,,,,,,,,,,,,,,,,,,,,,,,,,,,,,,,,,,,,,,,,,,,,,,,,0,0,0,0,1,,,,,,,,,,,,,
,,,,,,,,,,5efb2d098c96a40459575a3f,20,Mężczyzna,2022-05-28_09h16.13.485,task,2021.1.4,Win32,75.21058965,628b806c463b948bc644b84f,6291cc247de78e09c1e49373,,,,,,,,,,,,,,,,,,,,,,,9,,,,,,,,,,Task,40,(7x2) - 5,9,,,,,,,,,,,,,,,,,,,1,,,,,,,,,,,,,,,,,,,,,,,"[""9""]",1,[4.42239999999947],0,0,0,39,1,,,,,,,,,,,,,,,,,,
,,,,,,,,,,5efb2d098c96a40459575a3f,20,Mężczyzna,2022-05-28_09h16.13.485,task,2021.1.4,Win32,75.21058965,628b806c463b948bc644b84f,6291cc247de78e09c1e49373,,,,,,,,,,"X V Q F H G B L J M P D K C T S W R N Z
",,,,,,,,,,,,,,,,,,,,,,,,,,,,,,,,,,,,,,,,,,,,,,,,,,,,,,,,,,,,,,,,,,,,,,,,,,,,1,0,1,0,1,,,,,,,,,,,,,
,,,,,,,,,,5efb2d098c96a40459575a3f,20,Mężczyzna,2022-05-28_09h16.13.485,task,2021.1.4,Win32,75.21058965,628b806c463b948bc644b84f,6291cc247de78e09c1e49373,,,,,,,,,,,,,,,,,,,,,,,,,,,,,,,,,Task,38,(4x6) - 17,7,,,,,,,,,,,,,,,,,,,0,,,,,,,,,,,,,,,,,,,,,,,,0,,0,0,0,37,1,,,,,,,,,,,,,,,,,,
,,,,,,,,,,5efb2d098c96a40459575a3f,20,Mężczyzna,2022-05-28_09h16.13.485,task,2021.1.4,Win32,75.21058965,628b806c463b948bc644b84f,6291cc247de78e09c1e49373,,,,,,,,,,,,,,,,,,,,,,,4,,,,,,,,,,Task,11,(18/3) - 2,4,,,,,,,,,,,,,,,,,,,1,,,,,,,,,,,,,,,,,,,,,,,"[""4""]",1,[4.499899999999457],0,1,1,10,1,,,,,,,,,,,,,,,,,,
,,,,,,,,,,5efb2d098c96a40459575a3f,20,Mężczyzna,2022-05-28_09h16.13.485,task,2021.1.4,Win32,75.21058965,628b806c463b948bc644b84f,6291cc247de78e09c1e49373,,,,,,,,,,"X V Q F H G B L J M P D K C T S W R N Z
",,,,,,,,,,,,,,,,,,,,,,,,,,,,,,,,,,,,,,,,,,,,,,,,,,,,,,,,,,,,,,,,,,,,,,,,,,,,2,0,2,0,1,,,,,,,,,,,,,
,,,,,,,,,,5efb2d098c96a40459575a3f,20,Mężczyzna,2022-05-28_09h16.13.485,task,2021.1.4,Win32,75.21058965,628b806c463b948bc644b84f,6291cc247de78e09c1e49373,,,,,,,,,,,,,,,,,,,,,,,,,,,,,,,,,,,,,,,,,,,,,,,,,,,,,,,,,,,,,,,,,,,,,,,,,,,,,,,,,,,,,,,,,,,sqc,"[""s"",""q"",""c""]",0,"[1.7242999999997437,1.8202999999997473,2.0190000000000055,2.5879999999999654]",1,SQC,1,0,1,0,1,,
,,,,,,,,,,5efb2d098c96a40459575a3f,20,Mężczyzna,2022-05-28_09h16.13.485,task,2021.1.4,Win32,75.21058965,628b806c463b948bc644b84f,6291cc247de78e09c1e49373,,,,,,,,,,,,,,,,,,,,,,,5,,,,,,,,,,Task,36,(8/4) + 3,5,,,,,,,,,,,,,,,,,,,1,,,,,,,,,,,,,,,,,,,,,,,"[""5""]",1,[4.741900000000328],0,0,0,35,1,,,,,,,,,,,,,,,,,,
,,,,,,,,,,5efb2d098c96a40459575a3f,20,Mężczyzna,2022-05-28_09h16.13.485,task,2021.1.4,Win32,75.21058965,628b806c463b948bc644b84f,6291cc247de78e09c1e49373,,,,,,,,,,"X V Q F H G B L J M P D K C T S W R N Z
",,,,,,,,,,,,,,,,,,,,,,,,,,,,,,,,,,,,,,,,,,,,,,,,,,,,,,,,,,,,,,,,,,,,,,,,,,,,0,0,0,0,1,,,,,,,,,,,,,
,,,,,,,,,,5efb2d098c96a40459575a3f,20,Mężczyzna,2022-05-28_09h16.13.485,task,2021.1.4,Win32,75.21058965,628b806c463b948bc644b84f,6291cc247de78e09c1e49373,,,,,,,,,,,,,,,,,,,,,,,5,,,,,,,,,,Task,29,(3x8) - 19 ,5,,,,,,,,,,,,,,,,,,,1,,,,,,,,,,,,,,,,,,,,,,,"[""5""]",1,[5.372099999999705],0,0,0,28,1,,,,,,,,,,,,,,,,,,
,,,,,,,,,,5efb2d098c96a40459575a3f,20,Mężczyzna,2022-05-28_09h16.13.485,task,2021.1.4,Win32,75.21058965,628b806c463b948bc644b84f,6291cc247de78e09c1e49373,,,,,,,,,,"X V Q F H G B L J M P D K C T S W R N Z
",,,,,,,,,,,,,,,,,,,,,,,,,,,,,,,,,,,,,,,,,,,,,,,,,,,,,,,,,,,,,,,,,,,,,,,,,,,,1,0,1,0,1,,,,,,,,,,,,,
,,,,,,,,,,5efb2d098c96a40459575a3f,20,Mężczyzna,2022-05-28_09h16.13.485,task,2021.1.4,Win32,75.21058965,628b806c463b948bc644b84f,6291cc247de78e09c1e49373,,,,,,,,,,,,,,,,,,,,,,,4,,,,,,,,,,Task,28,(2x5) - 6,4,,,,,,,,,,,,,,,,,,,1,,,,,,,,,,,,,,,,,,,,,,,"[""4""]",1,[3.7255999999996448],0,0,0,27,1,,,,,,,,,,,,,,,,,,
,,,,,,,,,,5efb2d098c96a40459575a3f,20,Mężczyzna,2022-05-28_09h16.13.485,task,2021.1.4,Win32,75.21058965,628b806c463b948bc644b84f,6291cc247de78e09c1e49373,,,,,,,,,,"X V Q F H G B L J M P D K C T S W R N Z
",,,,,,,,,,,,,,,,,,,,,,,,,,,,,,,,,,,,,,,,,,,,,,,,,,,,,,,,,,,,,,,,,,,,,,,,,,,,2,0,2,0,1,,,,,,,,,,,,,
,,,,,,,,,,5efb2d098c96a40459575a3f,20,Mężczyzna,2022-05-28_09h16.13.485,task,2021.1.4,Win32,75.21058965,628b806c463b948bc644b84f,6291cc247de78e09c1e49373,,,,,,,,,,,,,,,,,,,,,,,4,,,,,,,,,,Task,21,(10/2) - 1,4,,,,,,,,,,,,,,,,,,,1,,,,,,,,,,,,,,,,,,,,,,,"[""4""]",1,[2.3079999999999927],0,0,0,20,1,,,,,,,,,,,,,,,,,,
,,,,,,,,,,5efb2d098c96a40459575a3f,20,Mężczyzna,2022-05-28_09h16.13.485,task,2021.1.4,Win32,75.21058965,628b806c463b948bc644b84f,6291cc247de78e09c1e49373,,,,,,,,,,"X V Q F H G B L J M P D K C T S W R N Z
",,,,,,,,,,,,,,,,,,,,,,,,,,,,,,,,,,,,,,,,,,,,,,,,,,,,,,,,,,,,,,,,,,,,,,,,,,,,3,0,3,0,1,,,,,,,,,,,,,
,,,,,,,,,,5efb2d098c96a40459575a3f,20,Mężczyzna,2022-05-28_09h16.13.485,task,2021.1.4,Win32,75.21058965,628b806c463b948bc644b84f,6291cc247de78e09c1e49373,,,,,,,,,,,,,,,,,,,,,,,,,,,,,,,,,,,,,,,,,,,,,,,,,,,,,,,,,,,,,,,,,,,,,,,,,,,,,,,,,,,,,,,,,,,slpn,"[""s"",""l"",""p"",""n""]",0,"[1.4572000000001708,1.557800000000725,1.5976000000005115,1.9653000000007523,3.097499999999968]",1,SLPN,2,0,2,0,1,,
,,,,,,,,,,5efb2d098c96a40459575a3f,20,Mężczyzna,2022-05-28_09h16.13.485,task,2021.1.4,Win32,75.21058965,628b806c463b948bc644b84f,6291cc247de78e09c1e49373,,,,,,,,,,,,,,,,,,,,,,,3,,,,,,,,,,Task,20,(18/9) + 1,3,,,,,,,,,,,,,,,,,,,1,,,,,,,,,,,,,,,,,,,,,,,"[""3""]",1,[2.0376999999992904],0,0,0,19,1,,,,,,,,,,,,,,,,,,
,,,,,,,,,,5efb2d098c96a40459575a3f,20,Mężczyzna,2022-05-28_09h16.13.485,task,2021.1.4,Win32,75.21058965,628b806c463b948bc644b84f,6291cc247de78e09c1e49373,,,,,,,,,,"X V Q F H G B L J M P D K C T S W R N Z
",,,,,,,,,,,,,,,,,,,,,,,,,,,,,,,,,,,,,,,,,,,,,,,,,,,,,,,,,,,,,,,,,,,,,,,,,,,,0,0,0,0,1,,,,,,,,,,,,,
,,,,,,,,,,5efb2d098c96a40459575a3f,20,Mężczyzna,2022-05-28_09h16.13.485,task,2021.1.4,Win32,75.21058965,628b806c463b948bc644b84f,6291cc247de78e09c1e49373,,,,,,,,,,,,,,,,,,,,,,,3,,,,,,,,,,Task,3,(2x3) - 3,3,,,,,,,,,,,,,,,,,,,1,,,,,,,,,,,,,,,,,,,,,,,"[""3""]",1,[2.5386000000005424],0,0,0,2,1,,,,,,,,,,,,,,,,,,
,,,,,,,,,,5efb2d098c96a40459575a3f,20,Mężczyzna,2022-05-28_09h16.13.485,task,2021.1.4,Win32,75.21058965,628b806c463b948bc644b84f,6291cc247de78e09c1e49373,,,,,,,,,,"X V Q F H G B L J M P D K C T S W R N Z
",,,,,,,,,,,,,,,,,,,,,,,,,,,,,,,,,,,,,,,,,,,,,,,,,,,,,,,,,,,,,,,,,,,,,,,,,,,,1,0,1,0,1,,,,,,,,,,,,,
,,,,,,,,,,5efb2d098c96a40459575a3f,20,Mężczyzna,2022-05-28_09h16.13.485,task,2021.1.4,Win32,75.21058965,628b806c463b948bc644b84f,6291cc247de78e09c1e49373,,,,,,,,,,,,,,,,,,,,,,,2,,,,,,,,,,Task,10,(2x5) - 8,2,,,,,,,,,,,,,,,,,,,1,,,,,,,,,,,,,,,,,,,,,,,"[""2""]",1,[2.7158000000007405],0,0,0,9,1,,,,,,,,,,,,,,,,,,
,,,,,,,,,,5efb2d098c96a40459575a3f,20,Mężczyzna,2022-05-28_09h16.13.485,task,2021.1.4,Win32,75.21058965,628b806c463b948bc644b84f,6291cc247de78e09c1e49373,,,,,,,,,,"X V Q F H G B L J M P D K C T S W R N Z
",,,,,,,,,,,,,,,,,,,,,,,,,,,,,,,,,,,,,,,,,,,,,,,,,,,,,,,,,,,,,,,,,,,,,,,,,,,,2,0,2,0,1,,,,,,,,,,,,,
,,,,,,,,,,5efb2d098c96a40459575a3f,20,Mężczyzna,2022-05-28_09h16.13.485,task,2021.1.4,Win32,75.21058965,628b806c463b948bc644b84f,6291cc247de78e09c1e49373,,,,,,,,,,,,,,,,,,,,,,,1,,,,,,,,,,Task,18,(16/4) - 3,1,,,,,,,,,,,,,,,,,,,1,,,,,,,,,,,,,,,,,,,,,,,"[""1""]",1,[2.653099999999654],0,0,0,17,1,,,,,,,,,,,,,,,,,,
,,,,,,,,,,5efb2d098c96a40459575a3f,20,Mężczyzna,2022-05-28_09h16.13.485,task,2021.1.4,Win32,75.21058965,628b806c463b948bc644b84f,6291cc247de78e09c1e49373,,,,,,,,,,"X V Q F H G B L J M P D K C T S W R N Z
",,,,,,,,,,,,,,,,,,,,,,,,,,,,,,,,,,,,,,,,,,,,,,,,,,,,,,,,,,,,,,,,,,,,,,,,,,,,3,0,3,0,1,,,,,,,,,,,,,
,,,,,,,,,,5efb2d098c96a40459575a3f,20,Mężczyzna,2022-05-28_09h16.13.485,task,2021.1.4,Win32,75.21058965,628b806c463b948bc644b84f,6291cc247de78e09c1e49373,,,,,,,,,,,,,,,,,,,,,,,1,,,,,,,,,,Task,1,(12/6) - 1,1,,,,,,,,,,,,,,,,,,,1,,,,,,,,,,,,,,,,,,,,,,,"[""1""]",1,[5.611099999999624],0,0,0,0,1,,,,,,,,,,,,,,,,,,
,,,,,,,,,,5efb2d098c96a40459575a3f,20,Mężczyzna,2022-05-28_09h16.13.485,task,2021.1.4,Win32,75.21058965,628b806c463b948bc644b84f,6291cc247de78e09c1e49373,,,,,,,,,,"X V Q F H G B L J M P D K C T S W R N Z
",,,,,,,,,,,,,,,,,,,,,,,,,,,,,,,,,,,,,,,,,,,,,,,,,,,,,,,,,,,,,,,,,,,,,,,,,,,,4,0,4,0,1,,,,,,,,,,,,,
,,,,,,,,,,5efb2d098c96a40459575a3f,20,Mężczyzna,2022-05-28_09h16.13.485,task,2021.1.4,Win32,75.21058965,628b806c463b948bc644b84f,6291cc247de78e09c1e49373,,,,,,,,,,,,,,,,,,,,,,,,,,,,,,,,,,,,,,,,,,,,,,,,,,,,,,,,,,,,,,,,,,,,,,,,,,,,,,,,,,,,,,,,,,,sxfgg,"[""s"",""x"",""f"",""g"",""g""]",0,"[1.6002999999998337,2.0384000000003653,3.128700000000208,9.530400000000327,9.681299999999737,11.556500000000028]",0,CXGFQ,3,0,3,0,1,,
,,,,,,,,,,5efb2d098c96a40459575a3f,20,Mężczyzna,2022-05-28_09h16.13.485,task,2021.1.4,Win32,75.21058965,628b806c463b948bc644b84f,6291cc247de78e09c1e49373,,,,,,,,,,,,,,,,,,,,,,,1,,,,,,,,,,Task,34,(9/3) - 2,1,,,,,,,,,,,,,,,,,,,1,,,,,,,,,,,,,,,,,,,,,,,"[""1""]",1,[2.855000000000018],0,0,0,33,1,,,,,,,,,,,,,,,,,,
,,,,,,,,,,5efb2d098c96a40459575a3f,20,Mężczyzna,2022-05-28_09h16.13.485,task,2021.1.4,Win32,75.21058965,628b806c463b948bc644b84f,6291cc247de78e09c1e49373,,,,,,,,,,"X V Q F H G B L J M P D K C T S W R N Z
",,,,,,,,,,,,,,,,,,,,,,,,,,,,,,,,,,,,,,,,,,,,,,,,,,,,,,,,,,,,,,,,,,,,,,,,,,,,0,0,0,0,1,,,,,,,,,,,,,
,,,,,,,,,,5efb2d098c96a40459575a3f,20,Mężczyzna,2022-05-28_09h16.13.485,task,2021.1.4,Win32,75.21058965,628b806c463b948bc644b84f,6291cc247de78e09c1e49373,,,,,,,,,,,,,,,,,,,,,,,6,,,,,,,,,,Task,30,(6/3) + 4 ,6,,,,,,,,,,,,,,,,,,,1,,,,,,,,,,,,,,,,,,,,,,,"[""6""]",1,[4.764400000000364],0,0,0,29,1,,,,,,,,,,,,,,,,,,
,,,,,,,,,,5efb2d098c96a40459575a3f,20,Mężczyzna,2022-05-28_09h16.13.485,task,2021.1.4,Win32,75.21058965,628b806c463b948bc644b84f,6291cc247de78e09c1e49373,,,,,,,,,,"X V Q F H G B L J M P D K C T S W R N Z
",,,,,,,,,,,,,,,,,,,,,,,,,,,,,,,,,,,,,,,,,,,,,,,,,,,,,,,,,,,,,,,,,,,,,,,,,,,,1,0,1,0,1,,,,,,,,,,,,,
,,,,,,,,,,5efb2d098c96a40459575a3f,20,Mężczyzna,2022-05-28_09h16.13.485,task,2021.1.4,Win32,75.21058965,628b806c463b948bc644b84f,6291cc247de78e09c1e49373,,,,,,,,,,,,,,,,,,,,,,,1,,,,,,,,,,Task,1,(12/6) - 1,1,,,,,,,,,,,,,,,,,,,1,,,,,,,,,,,,,,,,,,,,,,,"[""1""]",1,[3.315400000000409],0,0,0,0,1,,,,,,,,,,,,,,,,,,
,,,,,,,,,,5efb2d098c96a40459575a3f,20,Mężczyzna,2022-05-28_09h16.13.485,task,2021.1.4,Win32,75.21058965,628b806c463b948bc644b84f,6291cc247de78e09c1e49373,,,,,,,,,,"X V Q F H G B L J M P D K C T S W R N Z
",,,,,,,,,,,,,,,,,,,,,,,,,,,,,,,,,,,,,,,,,,,,,,,,,,,,,,,,,,,,,,,,,,,,,,,,,,,,2,0,2,0,1,,,,,,,,,,,,,
,,,,,,,,,,5efb2d098c96a40459575a3f,20,Mężczyzna,2022-05-28_09h16.13.485,task,2021.1.4,Win32,75.21058965,628b806c463b948bc644b84f,6291cc247de78e09c1e49373,,,,,,,,,,,,,,,,,,,,,,,6,,,,,,,,,,Task,37,(3/3) + 5,6,,,,,,,,,,,,,,,,,,,1,,,,,,,,,,,,,,,,,,,,,,,"[""6""]",1,[1.84800000000007],0,0,0,36,1,,,,,,,,,,,,,,,,,,
,,,,,,,,,,5efb2d098c96a40459575a3f,20,Mężczyzna,2022-05-28_09h16.13.485,task,2021.1.4,Win32,75.21058965,628b806c463b948bc644b84f,6291cc247de78e09c1e49373,,,,,,,,,,"X V Q F H G B L J M P D K C T S W R N Z
",,,,,,,,,,,,,,,,,,,,,,,,,,,,,,,,,,,,,,,,,,,,,,,,,,,,,,,,,,,,,,,,,,,,,,,,,,,,3,0,3,0,1,,,,,,,,,,,,,
,,,,,,,,,,5efb2d098c96a40459575a3f,20,Mężczyzna,2022-05-28_09h16.13.485,task,2021.1.4,Win32,75.21058965,628b806c463b948bc644b84f,6291cc247de78e09c1e49373,,,,,,,,,,,,,,,,,,,,,,,9,,,,,,,,,,Task,7,(3x7) - 12,9,,,,,,,,,,,,,,,,,,,1,,,,,,,,,,,,,,,,,,,,,,,"[""9""]",1,[4.768900000000372],0,0,0,6,1,,,,,,,,,,,,,,,,,,
,,,,,,,,,,5efb2d098c96a40459575a3f,20,Mężczyzna,2022-05-28_09h16.13.485,task,2021.1.4,Win32,75.21058965,628b806c463b948bc644b84f,6291cc247de78e09c1e49373,,,,,,,,,,"X V Q F H G B L J M P D K C T S W R N Z
",,,,,,,,,,,,,,,,,,,,,,,,,,,,,,,,,,,,,,,,,,,,,,,,,,,,,,,,,,,,,,,,,,,,,,,,,,,,4,0,4,0,1,,,,,,,,,,,,,
,,,,,,,,,,5efb2d098c96a40459575a3f,20,Mężczyzna,2022-05-28_09h16.13.485,task,2021.1.4,Win32,75.21058965,628b806c463b948bc644b84f,6291cc247de78e09c1e49373,,,,,,,,,,,,,,,,,,,,,,,,,,,,,,,,,,,,,,,,,,,,,,,,,,,,,,,,,,,,,,,,,,,,,,,,,,,,,,,,,,,,,,,,,,,pldbr,"[""p"",""l"",""d"",""b"",""r""]",0,"[1.7305000000000064,1.7919000000003962,1.99029999999982,2.2590000000000146,2.347299999999791,3.7752999999997883]",1,PLDBR,4,0,4,0,1,,
,,,,,,,,,,5efb2d098c96a40459575a3f,20,Mężczyzna,2022-05-28_09h16.13.485,task,2021.1.4,Win32,75.21058965,628b806c463b948bc644b84f,6291cc247de78e09c1e49373,,,,,,,,,,,,,,,,,,,,,,,5,,,,,,,,,,Task,12,(4x4) - 11,5,,,,,,,,,,,,,,,,,,,1,,,,,,,,,,,,,,,,,,,,,,,"[""5""]",1,[4.856200000000172],0,0,0,11,1,,,,,,,,,,,,,,,,,,
,,,,,,,,,,5efb2d098c96a40459575a3f,20,Mężczyzna,2022-05-28_09h16.13.485,task,2021.1.4,Win32,75.21058965,628b806c463b948bc644b84f,6291cc247de78e09c1e49373,,,,,,,,,,"X V Q F H G B L J M P D K C T S W R N Z
",,,,,,,,,,,,,,,,,,,,,,,,,,,,,,,,,,,,,,,,,,,,,,,,,,,,,,,,,,,,,,,,,,,,,,,,,,,,0,0,0,0,1,,,,,,,,,,,,,
,,,,,,,,,,5efb2d098c96a40459575a3f,20,Mężczyzna,2022-05-28_09h16.13.485,task,2021.1.4,Win32,75.21058965,628b806c463b948bc644b84f,6291cc247de78e09c1e49373,,,,,,,,,,,,,,,,,,,,,,,8,,,,,,,,,,Task,32,(8/2) + 4,8,,,,,,,,,,,,,,,,,,,1,,,,,,,,,,,,,,,,,,,,,,,"[""8""]",1,[3.8663000000008196],0,0,0,31,1,,,,,,,,,,,,,,,,,,
,,,,,,,,,,5efb2d098c96a40459575a3f,20,Mężczyzna,2022-05-28_09h16.13.485,task,2021.1.4,Win32,75.21058965,628b806c463b948bc644b84f,6291cc247de78e09c1e49373,,,,,,,,,,"X V Q F H G B L J M P D K C T S W R N Z
",,,,,,,,,,,,,,,,,,,,,,,,,,,,,,,,,,,,,,,,,,,,,,,,,,,,,,,,,,,,,,,,,,,,,,,,,,,,1,0,1,0,1,,,,,,,,,,,,,
,,,,,,,,,,5efb2d098c96a40459575a3f,20,Mężczyzna,2022-05-28_09h16.13.485,task,2021.1.4,Win32,75.21058965,628b806c463b948bc644b84f,6291cc247de78e09c1e49373,,,,,,,,,,,,,,,,,,,,,,,9,,,,,,,,,,Task,7,(3x7) - 12,9,,,,,,,,,,,,,,,,,,,1,,,,,,,,,,,,,,,,,,,,,,,"[""9""]",1,[1.969899999999484],0,0,0,6,1,,,,,,,,,,,,,,,,,,
,,,,,,,,,,5efb2d098c96a40459575a3f,20,Mężczyzna,2022-05-28_09h16.13.485,task,2021.1.4,Win32,75.21058965,628b806c463b948bc644b84f,6291cc247de78e09c1e49373,,,,,,,,,,"X V Q F H G B L J M P D K C T S W R N Z
",,,,,,,,,,,,,,,,,,,,,,,,,,,,,,,,,,,,,,,,,,,,,,,,,,,,,,,,,,,,,,,,,,,,,,,,,,,,2,0,2,0,1,,,,,,,,,,,,,
,,,,,,,,,,5efb2d098c96a40459575a3f,20,Mężczyzna,2022-05-28_09h16.13.485,task,2021.1.4,Win32,75.21058965,628b806c463b948bc644b84f,6291cc247de78e09c1e49373,,,,,,,,,,,,,,,,,,,,,,,8,,,,,,,,,,Task,32,(8/2) + 4,8,,,,,,,,,,,,,,,,,,,1,,,,,,,,,,,,,,,,,,,,,,,"[""8""]",1,[2.4041000000005397],0,0,0,31,1,,,,,,,,,,,,,,,,,,
,,,,,,,,,,5efb2d098c96a40459575a3f,20,Mężczyzna,2022-05-28_09h16.13.485,task,2021.1.4,Win32,75.21058965,628b806c463b948bc644b84f,6291cc247de78e09c1e49373,,,,,,,,,,"X V Q F H G B L J M P D K C T S W R N Z
",,,,,,,,,,,,,,,,,,,,,,,,,,,,,,,,,,,,,,,,,,,,,,,,,,,,,,,,,,,,,,,,,,,,,,,,,,,,3,0,3,0,1,,,,,,,,,,,,,
,,,,,,,,,,5efb2d098c96a40459575a3f,20,Mężczyzna,2022-05-28_09h16.13.485,task,2021.1.4,Win32,75.21058965,628b806c463b948bc644b84f,6291cc247de78e09c1e49373,,,,,,,,,,,,,,,,,,,,,,,8,,,,,,,,,,Task,23,(2x3) + 2,8,,,,,,,,,,,,,,,,,,,1,,,,,,,,,,,,,,,,,,,,,,,"[""8""]",1,[3.6291000000005624],0,0,0,22,1,,,,,,,,,,,,,,,,,,
,,,,,,,,,,5efb2d098c96a40459575a3f,20,Mężczyzna,2022-05-28_09h16.13.485,task,2021.1.4,Win32,75.21058965,628b806c463b948bc644b84f,6291cc247de78e09c1e49373,,,,,,,,,,"X V Q F H G B L J M P D K C T S W R N Z
",,,,,,,,,,,,,,,,,,,,,,,,,,,,,,,,,,,,,,,,,,,,,,,,,,,,,,,,,,,,,,,,,,,,,,,,,,,,4,0,4,0,1,,,,,,,,,,,,,
,,,,,,,,,,5efb2d098c96a40459575a3f,20,Mężczyzna,2022-05-28_09h16.13.485,task,2021.1.4,Win32,75.21058965,628b806c463b948bc644b84f,6291cc247de78e09c1e49373,,,,,,,,,,,,,,,,,,,,,,,4,,,,,,,,,,Task,28,(2x5) - 6,4,,,,,,,,,,,,,,,,,,,1,,,,,,,,,,,,,,,,,,,,,,,"[""4""]",1,[4.589999999999918],0,0,0,27,1,,,,,,,,,,,,,,,,,,
,,,,,,,,,,5efb2d098c96a40459575a3f,20,Mężczyzna,2022-05-28_09h16.13.485,task,2021.1.4,Win32,75.21058965,628b806c463b948bc644b84f,6291cc247de78e09c1e49373,,,,,,,,,,"X V Q F H G B L J M P D K C T S W R N Z
",,,,,,,,,,,,,,,,,,,,,,,,,,,,,,,,,,,,,,,,,,,,,,,,,,,,,,,,,,,,,,,,,,,,,,,,,,,,5,0,5,0,1,,,,,,,,,,,,,
,,,,,,,,,,5efb2d098c96a40459575a3f,20,Mężczyzna,2022-05-28_09h16.13.485,task,2021.1.4,Win32,75.21058965,628b806c463b948bc644b84f,6291cc247de78e09c1e49373,,,,,,,,,,,,,,,,,,,,,,,,,,,,,,,,,,,,,,,,,,,,,,,,,,,,,,,,,,,,,,,,,,,,,,,,,,,,,,,,,,,,,,,,,,,llnmrz,"[""l"",""l"",""n"",""m"",""r"",""z""]",0,"[0.9478999999994357,1.2138999999993985,1.6540999999996302,1.868399999999383,7.256200000000149,7.437000000000012,9.686299999999846]",0,"LLNMRZ
",5,0,5,0,1,,
,,,,,,,,,,5efb2d098c96a40459575a3f,20,Mężczyzna,2022-05-28_09h16.13.485,task,2021.1.4,Win32,75.21058965,628b806c463b948bc644b84f,6291cc247de78e09c1e49373,,,,,,,,,,,,,,,,,,,,,,,6,,,,,,,,,,Task,30,(6/3) + 4 ,6,,,,,,,,,,,,,,,,,,,1,,,,,,,,,,,,,,,,,,,,,,,"[""6""]",1,[4.124799999999823],0,0,0,29,1,,,,,,,,,,,,,,,,,,
,,,,,,,,,,5efb2d098c96a40459575a3f,20,Mężczyzna,2022-05-28_09h16.13.485,task,2021.1.4,Win32,75.21058965,628b806c463b948bc644b84f,6291cc247de78e09c1e49373,,,,,,,,,,"X V Q F H G B L J M P D K C T S W R N Z
",,,,,,,,,,,,,,,,,,,,,,,,,,,,,,,,,,,,,,,,,,,,,,,,,,,,,,,,,,,,,,,,,,,,,,,,,,,,0,0,0,0,1,,,,,,,,,,,,,
,,,,,,,,,,5efb2d098c96a40459575a3f,20,Mężczyzna,2022-05-28_09h16.13.485,task,2021.1.4,Win32,75.21058965,628b806c463b948bc644b84f,6291cc247de78e09c1e49373,,,,,,,,,,,,,,,,,,,,,,,3,,,,,,,,,,Task,27,(3/3) + 2,3,,,,,,,,,,,,,,,,,,,1,,,,,,,,,,,,,,,,,,,,,,,"[""3""]",1,[2.9373000000007323],0,0,0,26,1,,,,,,,,,,,,,,,,,,
,,,,,,,,,,5efb2d098c96a40459575a3f,20,Mężczyzna,2022-05-28_09h16.13.485,task,2021.1.4,Win32,75.21058965,628b806c463b948bc644b84f,6291cc247de78e09c1e49373,,,,,,,,,,"X V Q F H G B L J M P D K C T S W R N Z
",,,,,,,,,,,,,,,,,,,,,,,,,,,,,,,,,,,,,,,,,,,,,,,,,,,,,,,,,,,,,,,,,,,,,,,,,,,,1,0,1,0,1,,,,,,,,,,,,,
,,,,,,,,,,5efb2d098c96a40459575a3f,20,Mężczyzna,2022-05-28_09h16.13.485,task,2021.1.4,Win32,75.21058965,628b806c463b948bc644b84f,6291cc247de78e09c1e49373,,,,,,,,,,,,,,,,,,,,,,,5,,,,,,,,,,Task,36,(8/4) + 3,5,,,,,,,,,,,,,,,,,,,1,,,,,,,,,,,,,,,,,,,,,,,"[""5""]",1,[2.96979999999985],0,0,0,35,1,,,,,,,,,,,,,,,,,,
,,,,,,,,,,5efb2d098c96a40459575a3f,20,Mężczyzna,2022-05-28_09h16.13.485,task,2021.1.4,Win32,75.21058965,628b806c463b948bc644b84f,6291cc247de78e09c1e49373,,,,,,,,,,"X V Q F H G B L J M P D K C T S W R N Z
",,,,,,,,,,,,,,,,,,,,,,,,,,,,,,,,,,,,,,,,,,,,,,,,,,,,,,,,,,,,,,,,,,,,,,,,,,,,2,0,2,0,1,,,,,,,,,,,,,
,,,,,,,,,,5efb2d098c96a40459575a3f,20,Mężczyzna,2022-05-28_09h16.13.485,task,2021.1.4,Win32,75.21058965,628b806c463b948bc644b84f,6291cc247de78e09c1e49373,,,,,,,,,,,,,,,,,,,,,,,5,,,,,,,,,,Task,29,(3x8) - 19 ,5,,,,,,,,,,,,,,,,,,,1,,,,,,,,,,,,,,,,,,,,,,,"[""5""]",1,[4.056200000000217],0,0,0,28,1,,,,,,,,,,,,,,,,,,
,,,,,,,,,,5efb2d098c96a40459575a3f,20,Mężczyzna,2022-05-28_09h16.13.485,task,2021.1.4,Win32,75.21058965,628b806c463b948bc644b84f,6291cc247de78e09c1e49373,,,,,,,,,,"X V Q F H G B L J M P D K C T S W R N Z
",,,,,,,,,,,,,,,,,,,,,,,,,,,,,,,,,,,,,,,,,,,,,,,,,,,,,,,,,,,,,,,,,,,,,,,,,,,,3,0,3,0,1,,,,,,,,,,,,,
,,,,,,,,,,5efb2d098c96a40459575a3f,20,Mężczyzna,2022-05-28_09h16.13.485,task,2021.1.4,Win32,75.21058965,628b806c463b948bc644b84f,6291cc247de78e09c1e49373,,,,,,,,,,,,,,,,,,,,,,,9,,,,,,,,,,Task,24,(2x2) + 5,9,,,,,,,,,,,,,,,,,,,1,,,,,,,,,,,,,,,,,,,,,,,"[""9""]",1,[3.7757000000001426],0,0,0,23,1,,,,,,,,,,,,,,,,,,
,,,,,,,,,,5efb2d098c96a40459575a3f,20,Mężczyzna,2022-05-28_09h16.13.485,task,2021.1.4,Win32,75.21058965,628b806c463b948bc644b84f,6291cc247de78e09c1e49373,,,,,,,,,,"X V Q F H G B L J M P D K C T S W R N Z
",,,,,,,,,,,,,,,,,,,,,,,,,,,,,,,,,,,,,,,,,,,,,,,,,,,,,,,,,,,,,,,,,,,,,,,,,,,,4,0,4,0,1,,,,,,,,,,,,,
,,,,,,,,,,5efb2d098c96a40459575a3f,20,Mężczyzna,2022-05-28_09h16.13.485,task,2021.1.4,Win32,75.21058965,628b806c463b948bc644b84f,6291cc247de78e09c1e49373,,,,,,,,,,,,,,,,,,,,,,,1,,,,,,,,,,Task,18,(16/4) - 3,1,,,,,,,,,,,,,,,,,,,1,,,,,,,,,,,,,,,,,,,,,,,"[""1""]",1,[2.336500000000001],0,0,0,17,1,,,,,,,,,,,,,,,,,,
,,,,,,,,,,5efb2d098c96a40459575a3f,20,Mężczyzna,2022-05-28_09h16.13.485,task,2021.1.4,Win32,75.21058965,628b806c463b948bc644b84f,6291cc247de78e09c1e49373,,,,,,,,,,"X V Q F H G B L J M P D K C T S W R N Z
",,,,,,,,,,,,,,,,,,,,,,,,,,,,,,,,,,,,,,,,,,,,,,,,,,,,,,,,,,,,,,,,,,,,,,,,,,,,5,0,5,0,1,,,,,,,,,,,,,
,,,,,,,,,,5efb2d098c96a40459575a3f,20,Mężczyzna,2022-05-28_09h16.13.485,task,2021.1.4,Win32,75.21058965,628b806c463b948bc644b84f,6291cc247de78e09c1e49373,,,,,,,,,,,,,,,,,,,,,,,,,,,,,,,,,,,,,,,,,,,,,,,,,,,,,,,,,,,,,,,,,,,,,,,,,,,,,,,,,,,,,,,,,,,frghrn,"[""f"",""r"",""g"",""h"",""r"",""n""]",0,"[1.5716000000005579,3.1947000000001253,3.472499999999968,3.6022999999997865,4.552600000000552,5.933600000000524,10.917900000000373]",1,FRGHRN,6,0,6,0,1,,
,,,,,,,,,,5efb2d098c96a40459575a3f,20,Mężczyzna,2022-05-28_09h16.13.485,task,2021.1.4,Win32,75.21058965,628b806c463b948bc644b84f,6291cc247de78e09c1e49373,,,,,,,,,,,,,,,,,,,,,,,8,,,,,,,,,,Task,39,(5x3) - 7,8,,,,,,,,,,,,,,,,,,,1,,,,,,,,,,,,,,,,,,,,,,,"[""8""]",1,[3.2450000000000045],0,0,0,38,1,,,,,,,,,,,,,,,,,,
,,,,,,,,,,5efb2d098c96a40459575a3f,20,Mężczyzna,2022-05-28_09h16.13.485,task,2021.1.4,Win32,75.21058965,628b806c463b948bc644b84f,6291cc247de78e09c1e49373,,,,,,,,,,"X V Q F H G B L J M P D K C T S W R N Z
",,,,,,,,,,,,,,,,,,,,,,,,,,,,,,,,,,,,,,,,,,,,,,,,,,,,,,,,,,,,,,,,,,,,,,,,,,,,0,0,0,0,1,,,,,,,,,,,,,
,,,,,,,,,,5efb2d098c96a40459575a3f,20,Mężczyzna,2022-05-28_09h16.13.485,task,2021.1.4,Win32,75.21058965,628b806c463b948bc644b84f,6291cc247de78e09c1e49373,,,,,,,,,,,,,,,,,,,,,,,9,,,,,,,,,,Task,7,(3x7) - 12,9,,,,,,,,,,,,,,,,,,,1,,,,,,,,,,,,,,,,,,,,,,,"[""9""]",1,[2.586500000000001],0,0,0,6,1,,,,,,,,,,,,,,,,,,
,,,,,,,,,,5efb2d098c96a40459575a3f,20,Mężczyzna,2022-05-28_09h16.13.485,task,2021.1.4,Win32,75.21058965,628b806c463b948bc644b84f,6291cc247de78e09c1e49373,,,,,,,,,,"X V Q F H G B L J M P D K C T S W R N Z
",,,,,,,,,,,,,,,,,,,,,,,,,,,,,,,,,,,,,,,,,,,,,,,,,,,,,,,,,,,,,,,,,,,,,,,,,,,,1,0,1,0,1,,,,,,,,,,,,,
,,,,,,,,,,5efb2d098c96a40459575a3f,20,Mężczyzna,2022-05-28_09h16.13.485,task,2021.1.4,Win32,75.21058965,628b806c463b948bc644b84f,6291cc247de78e09c1e49373,,,,,,,,,,,,,,,,,,,,,,,8,,,,,,,,,,Task,15,(3x7) - 13,8,,,,,,,,,,,,,,,,,,,1,,,,,,,,,,,,,,,,,,,,,,,"[""8""]",1,[3.0004000000003543],0,0,0,14,1,,,,,,,,,,,,,,,,,,
,,,,,,,,,,5efb2d098c96a40459575a3f,20,Mężczyzna,2022-05-28_09h16.13.485,task,2021.1.4,Win32,75.21058965,628b806c463b948bc644b84f,6291cc247de78e09c1e49373,,,,,,,,,,"X V Q F H G B L J M P D K C T S W R N Z
",,,,,,,,,,,,,,,,,,,,,,,,,,,,,,,,,,,,,,,,,,,,,,,,,,,,,,,,,,,,,,,,,,,,,,,,,,,,2,0,2,0,1,,,,,,,,,,,,,
,,,,,,,,,,5efb2d098c96a40459575a3f,20,Mężczyzna,2022-05-28_09h16.13.485,task,2021.1.4,Win32,75.21058965,628b806c463b948bc644b84f,6291cc247de78e09c1e49373,,,,,,,,,,,,,,,,,,,,,,,4,,,,,,,,,,Task,28,(2x5) - 6,4,,,,,,,,,,,,,,,,,,,1,,,,,,,,,,,,,,,,,,,,,,,"[""4""]",1,[2.7065000000000055],0,0,0,27,1,,,,,,,,,,,,,,,,,,
,,,,,,,,,,5efb2d098c96a40459575a3f,20,Mężczyzna,2022-05-28_09h16.13.485,task,2021.1.4,Win32,75.21058965,628b806c463b948bc644b84f,6291cc247de78e09c1e49373,,,,,,,,,,"X V Q F H G B L J M P D K C T S W R N Z
",,,,,,,,,,,,,,,,,,,,,,,,,,,,,,,,,,,,,,,,,,,,,,,,,,,,,,,,,,,,,,,,,,,,,,,,,,,,3,0,3,0,1,,,,,,,,,,,,,
,,,,,,,,,,5efb2d098c96a40459575a3f,20,Mężczyzna,2022-05-28_09h16.13.485,task,2021.1.4,Win32,75.21058965,628b806c463b948bc644b84f,6291cc247de78e09c1e49373,,,,,,,,,,,,,,,,,,,,,,,5,,,,,,,,,,Task,29,(3x8) - 19 ,5,,,,,,,,,,,,,,,,,,,1,,,,,,,,,,,,,,,,,,,,,,,"[""5""]",1,[6.249799999999823],0,0,0,28,1,,,,,,,,,,,,,,,,,,
,,,,,,,,,,5efb2d098c96a40459575a3f,20,Mężczyzna,2022-05-28_09h16.13.485,task,2021.1.4,Win32,75.21058965,628b806c463b948bc644b84f,6291cc247de78e09c1e49373,,,,,,,,,,"X V Q F H G B L J M P D K C T S W R N Z
",,,,,,,,,,,,,,,,,,,,,,,,,,,,,,,,,,,,,,,,,,,,,,,,,,,,,,,,,,,,,,,,,,,,,,,,,,,,4,0,4,0,1,,,,,,,,,,,,,
,,,,,,,,,,5efb2d098c96a40459575a3f,20,Mężczyzna,2022-05-28_09h16.13.485,task,2021.1.4,Win32,75.21058965,628b806c463b948bc644b84f,6291cc247de78e09c1e49373,,,,,,,,,,,,,,,,,,,,,,,7,,,,,,,,,,Task,14,(2x2) + 3,7,,,,,,,,,,,,,,,,,,,1,,,,,,,,,,,,,,,,,,,,,,,"[""7""]",1,[5.041799999999739],0,0,0,13,1,,,,,,,,,,,,,,,,,,
,,,,,,,,,,5efb2d098c96a40459575a3f,20,Mężczyzna,2022-05-28_09h16.13.485,task,2021.1.4,Win32,75.21058965,628b806c463b948bc644b84f,6291cc247de78e09c1e49373,,,,,,,,,,"X V Q F H G B L J M P D K C T S W R N Z
",,,,,,,,,,,,,,,,,,,,,,,,,,,,,,,,,,,,,,,,,,,,,,,,,,,,,,,,,,,,,,,,,,,,,,,,,,,,5,0,5,0,1,,,,,,,,,,,,,
,,,,,,,,,,5efb2d098c96a40459575a3f,20,Mężczyzna,2022-05-28_09h16.13.485,task,2021.1.4,Win32,75.21058965,628b806c463b948bc644b84f,6291cc247de78e09c1e49373,,,,,,,,,,,,,,,,,,,,,,,0,,,,,,,,,,Task,17,(2x3) - 6,0,,,,,,,,,,,,,,,,,,,1,,,,,,,,,,,,,,,,,,,,,,,"[""0""]",1,[7.342799999999784],0,0,0,16,1,,,,,,,,,,,,,,,,,,
,,,,,,,,,,5efb2d098c96a40459575a3f,20,Mężczyzna,2022-05-28_09h16.13.485,task,2021.1.4,Win32,75.21058965,628b806c463b948bc644b84f,6291cc247de78e09c1e49373,,,,,,,,,,"X V Q F H G B L J M P D K C T S W R N Z
",,,,,,,,,,,,,,,,,,,,,,,,,,,,,,,,,,,,,,,,,,,,,,,,,,,,,,,,,,,,,,,,,,,,,,,,,,,,6,0,6,0,1,,,,,,,,,,,,,
,,,,,,,,,,5efb2d098c96a40459575a3f,20,Mężczyzna,2022-05-28_09h16.13.485,task,2021.1.4,Win32,75.21058965,628b806c463b948bc644b84f,6291cc247de78e09c1e49373,,,,,,,,,,,,,,,,,,,,,,,,,,,,,,,,,,,,,,,,,,,,,,,,,,,,,,,,,,,,,,,,,,,,,,,,,,,,,,,,,,,,,,,,,,,lgbtgpq,"[""l"",""g"",""b"",""t"",""g"",""p"",""q""]",0,"[1.4686000000004924,1.6062000000001717,2.246499999999969,2.660800000000677,2.9984000000004016,4.072999999999979,4.44070000000022,7.039499999999975]",0,GBTLGPQ,7,0,7,0,1,,
,,,,,,,,,,5efb2d098c96a40459575a3f,20,Mężczyzna,2022-05-28_09h16.13.485,task,2021.1.4,Win32,75.21058965,628b806c463b948bc644b84f,6291cc247de78e09c1e49373,,,,,,,,,,,,,,,,,,,,,,,3,,,,,,,,,,Task,20,(18/9) + 1,3,,,,,,,,,,,,,,,,,,,1,,,,,,,,,,,,,,,,,,,,,,,"[""3""]",1,[3.2340000000000373],0,0,0,19,1,,,,,,,,,,,,,,,,,,
,,,,,,,,,,5efb2d098c96a40459575a3f,20,Mężczyzna,2022-05-28_09h16.13.485,task,2021.1.4,Win32,75.21058965,628b806c463b948bc644b84f,6291cc247de78e09c1e49373,,,,,,,,,,"X V Q F H G B L J M P D K C T S W R N Z
",,,,,,,,,,,,,,,,,,,,,,,,,,,,,,,,,,,,,,,,,,,,,,,,,,,,,,,,,,,,,,,,,,,,,,,,,,,,0,0,0,0,1,,,,,,,,,,,,,
,,,,,,,,,,5efb2d098c96a40459575a3f,20,Mężczyzna,2022-05-28_09h16.13.485,task,2021.1.4,Win32,75.21058965,628b806c463b948bc644b84f,6291cc247de78e09c1e49373,,,,,,,,,,,,,,,,,,,,,,,2,,,,,,,,,,Task,2,(2x2) - 2,2,,,,,,,,,,,,,,,,,,,1,,,,,,,,,,,,,,,,,,,,,,,"[""2""]",1,[2.5063999999994167],0,0,0,1,1,,,,,,,,,,,,,,,,,,
,,,,,,,,,,5efb2d098c96a40459575a3f,20,Mężczyzna,2022-05-28_09h16.13.485,task,2021.1.4,Win32,75.21058965,628b806c463b948bc644b84f,6291cc247de78e09c1e49373,,,,,,,,,,"X V Q F H G B L J M P D K C T S W R N Z
",,,,,,,,,,,,,,,,,,,,,,,,,,,,,,,,,,,,,,,,,,,,,,,,,,,,,,,,,,,,,,,,,,,,,,,,,,,,1,0,1,0,1,,,,,,,,,,,,,
,,,,,,,,,,5efb2d098c96a40459575a3f,20,Mężczyzna,2022-05-28_09h16.13.485,task,2021.1.4,Win32,75.21058965,628b806c463b948bc644b84f,6291cc247de78e09c1e49373,,,,,,,,,,,,,,,,,,,,,,,7,,,,,,,,,,Task,14,(2x2) + 3,7,,,,,,,,,,,,,,,,,,,1,,,,,,,,,,,,,,,,,,,,,,,"[""7""]",1,[2.098500000000058],0,0,0,13,1,,,,,,,,,,,,,,,,,,
,,,,,,,,,,5efb2d098c96a40459575a3f,20,Mężczyzna,2022-05-28_09h16.13.485,task,2021.1.4,Win32,75.21058965,628b806c463b948bc644b84f,6291cc247de78e09c1e49373,,,,,,,,,,"X V Q F H G B L J M P D K C T S W R N Z
",,,,,,,,,,,,,,,,,,,,,,,,,,,,,,,,,,,,,,,,,,,,,,,,,,,,,,,,,,,,,,,,,,,,,,,,,,,,2,0,2,0,1,,,,,,,,,,,,,
,,,,,,,,,,5efb2d098c96a40459575a3f,20,Mężczyzna,2022-05-28_09h16.13.485,task,2021.1.4,Win32,75.21058965,628b806c463b948bc644b84f,6291cc247de78e09c1e49373,,,,,,,,,,,,,,,,,,,,,,,0,,,,,,,,,,Task,8,(1x5) - 5,0,,,,,,,,,,,,,,,,,,,1,,,,,,,,,,,,,,,,,,,,,,,"[""0""]",1,[3.0757999999998447],0,0,0,7,1,,,,,,,,,,,,,,,,,,
,,,,,,,,,,5efb2d098c96a40459575a3f,20,Mężczyzna,2022-05-28_09h16.13.485,task,2021.1.4,Win32,75.21058965,628b806c463b948bc644b84f,6291cc247de78e09c1e49373,,,,,,,,,,"X V Q F H G B L J M P D K C T S W R N Z
",,,,,,,,,,,,,,,,,,,,,,,,,,,,,,,,,,,,,,,,,,,,,,,,,,,,,,,,,,,,,,,,,,,,,,,,,,,,3,0,3,0,1,,,,,,,,,,,,,
,,,,,,,,,,5efb2d098c96a40459575a3f,20,Mężczyzna,2022-05-28_09h16.13.485,task,2021.1.4,Win32,75.21058965,628b806c463b948bc644b84f,6291cc247de78e09c1e49373,,,,,,,,,,,,,,,,,,,,,,,6,,,,,,,,,,Task,37,(3/3) + 5,6,,,,,,,,,,,,,,,,,,,1,,,,,,,,,,,,,,,,,,,,,,,"[""6""]",1,[1.9942000000002054],0,0,0,36,1,,,,,,,,,,,,,,,,,,
,,,,,,,,,,5efb2d098c96a40459575a3f,20,Mężczyzna,2022-05-28_09h16.13.485,task,2021.1.4,Win32,75.21058965,628b806c463b948bc644b84f,6291cc247de78e09c1e49373,,,,,,,,,,"X V Q F H G B L J M P D K C T S W R N Z
",,,,,,,,,,,,,,,,,,,,,,,,,,,,,,,,,,,,,,,,,,,,,,,,,,,,,,,,,,,,,,,,,,,,,,,,,,,,4,0,4,0,1,,,,,,,,,,,,,
,,,,,,,,,,5efb2d098c96a40459575a3f,20,Mężczyzna,2022-05-28_09h16.13.485,task,2021.1.4,Win32,75.21058965,628b806c463b948bc644b84f,6291cc247de78e09c1e49373,,,,,,,,,,,,,,,,,,,,,,,6,,,,,,,,,,Task,30,(6/3) + 4 ,6,,,,,,,,,,,,,,,,,,,1,,,,,,,,,,,,,,,,,,,,,,,"[""6""]",1,[4.881200000000149],0,0,0,29,1,,,,,,,,,,,,,,,,,,
,,,,,,,,,,5efb2d098c96a40459575a3f,20,Mężczyzna,2022-05-28_09h16.13.485,task,2021.1.4,Win32,75.21058965,628b806c463b948bc644b84f,6291cc247de78e09c1e49373,,,,,,,,,,"X V Q F H G B L J M P D K C T S W R N Z
",,,,,,,,,,,,,,,,,,,,,,,,,,,,,,,,,,,,,,,,,,,,,,,,,,,,,,,,,,,,,,,,,,,,,,,,,,,,5,0,5,0,1,,,,,,,,,,,,,
,,,,,,,,,,5efb2d098c96a40459575a3f,20,Mężczyzna,2022-05-28_09h16.13.485,task,2021.1.4,Win32,75.21058965,628b806c463b948bc644b84f,6291cc247de78e09c1e49373,,,,,,,,,,,,,,,,,,,,,,,9,,,,,,,,,,Task,24,(2x2) + 5,9,,,,,,,,,,,,,,,,,,,1,,,,,,,,,,,,,,,,,,,,,,,"[""9""]",1,[2.21559999999954],0,0,0,23,1,,,,,,,,,,,,,,,,,,
,,,,,,,,,,5efb2d098c96a40459575a3f,20,Mężczyzna,2022-05-28_09h16.13.485,task,2021.1.4,Win32,75.21058965,628b806c463b948bc644b84f,6291cc247de78e09c1e49373,,,,,,,,,,"X V Q F H G B L J M P D K C T S W R N Z
",,,,,,,,,,,,,,,,,,,,,,,,,,,,,,,,,,,,,,,,,,,,,,,,,,,,,,,,,,,,,,,,,,,,,,,,,,,,6,0,6,0,1,,,,,,,,,,,,,
,,,,,,,,,,5efb2d098c96a40459575a3f,20,Mężczyzna,2022-05-28_09h16.13.485,task,2021.1.4,Win32,75.21058965,628b806c463b948bc644b84f,6291cc247de78e09c1e49373,,,,,,,,,,,,,,,,,,,,,,,,,,,,,,,,,,,,,,,,,,,,,,,,,,,,,,,,,,,,,,,,,,,,,,,,,,,,,,,,,,,,,,,,,,,pglfq,"[""p"",""g"",""l"",""f"",""q""]",0,"[1.6602000000001453,2.691200000000208,3.6962999999998374,3.8118999999994685,4.045899999999392,10.660099999999602]",0,PFGLVQL,8,0,8,0,1,,
,,,,,,,,,,5efb2d098c96a40459575a3f,20,Mężczyzna,2022-05-28_09h16.13.485,task,2021.1.4,Win32,75.21058965,628b806c463b948bc644b84f,6291cc247de78e09c1e49373,,,,,,,,,,,,,,,,,,,,,,,,,,,,,,,,,,,,,,,,,,,,,,,,,,,,,,,,,,,,,,,,,,,,,,,,,,,,,,,,,,,,,,,,,,,,,,,,,,,,,,space,10.9304
