key_resp_15.keys,key_resp_15.rt,key_resp_16.keys,key_resp_16.rt,key_resp_4.keys,key_resp_4.rt,next_letter.thisRepN,next_letter.thisTrialN,next_letter.thisN,next_letter.thisIndex,next_letter.ran,letter,participant,Wiek*,Płeć,date,expName,psychopyVersion,OS,frameRate,study_id,session,simple_recall,key_resp_5.keys,key_resp_5.rt,simple_recall_corr,simple_recall_corrkeys,next_level.thisRepN,next_level.thisTrialN,next_level.thisN,next_level.thisIndex,next_level.ran,key_resp_2.keys,key_resp_2.rt,digit_answer,key_resp.keys,key_resp.corr,key_resp.rt,RT_list,next_equation.thisRepN,next_equation.thisTrialN,next_equation.thisN,next_equation.thisIndex,next_equation.ran,Task,Trial,Problem,Operation_answer,processing_score,sumRT,meanRT,sumdiff,sd,RT,key_resp_3.keys,key_resp_3.rt,repeat_practice.thisRepN,repeat_practice.thisTrialN,repeat_practice.thisN,repeat_practice.thisIndex,repeat_practice.ran,key_resp_6.keys,key_resp_6.rt,key_resp_11.keys,key_resp_11.corr,key_resp_11.rt,operation_correct,repeat_if_wrong_prac.thisRepN,repeat_if_wrong_prac.thisTrialN,repeat_if_wrong_prac.thisN,repeat_if_wrong_prac.thisIndex,repeat_if_wrong_prac.ran,span_size_prac.thisRepN,span_size_prac.thisTrialN,span_size_prac.thisN,span_size_prac.thisIndex,span_size_prac.ran,complex_recall_practice,key_resp_9.keys,key_resp_9.corr,key_resp_9.rt,complex_prac_corr,span_recall_prac.thisRepN,span_recall_prac.thisTrialN,span_recall_prac.thisN,span_recall_prac.thisIndex,span_recall_prac.ran,key_resp_10.keys,key_resp_10.rt,key_resp_7.keys,key_resp_7.corr,key_resp_7.rt,repeat_if_wrong.thisRepN,repeat_if_wrong.thisTrialN,repeat_if_wrong.thisN,repeat_if_wrong.thisIndex,repeat_if_wrong.ran,span_size.thisRepN,span_size.thisTrialN,span_size.thisN,span_size.thisIndex,span_size.ran,complex_recall,key_resp_8.keys,key_resp_8.corr,key_resp_8.rt,complex_recall_corr,complex_recall_corrkeys,span_recall.thisRepN,span_recall.thisTrialN,span_recall.thisN,span_recall.thisIndex,span_recall.ran,key_resp_13.keys,key_resp_13.corr,key_resp_13.rt,random_loop.thisRepN,random_loop.thisTrialN,random_loop.thisN,random_loop.thisIndex,random_loop.ran,key_resp_12.keys,key_resp_12.rt
space,21.557,space,12.917,space,5.491,0,0,0,0,1,X V Q F H G B L J M P D K C T S W R N Z,5f00dcdde2787b22556593e7,43,Mężczyzna,2022-06-11_08h41.34.335,task,2021.1.4,MacIntel,58.82352941,6299f149e92ead563fba08ef,62a4471d1c2596ffa769b042,,,,,,,,,,,,,,,,,,,,,,,,,,,,,,,,,,,,,,,,,,,,,,,,,,,,,,,,,,,,,,,,,,,,,,,,,,,,,,,,,,,,,,,,,,,,,,,,,,,,,
,,,,,,1,0,1,0,1,X V Q F H G B L J M P D K C T S W R N Z,5f00dcdde2787b22556593e7,43,Mężczyzna,2022-06-11_08h41.34.335,task,2021.1.4,MacIntel,58.82352941,6299f149e92ead563fba08ef,62a4471d1c2596ffa769b042,,,,,,,,,,,,,,,,,,,,,,,,,,,,,,,,,,,,,,,,,,,,,,,,,,,,,,,,,,,,,,,,,,,,,,,,,,,,,,,,,,,,,,,,,,,,,,,,,,,,,
,,,,,,,,,,,,5f00dcdde2787b22556593e7,43,Mężczyzna,2022-06-11_08h41.34.335,task,2021.1.4,MacIntel,58.82352941,6299f149e92ead563fba08ef,62a4471d1c2596ffa769b042,zk,"[""z"",""k""]","[1.1270000000000024,1.3689999999999998,2.5820000000000007]",1,ZK,0,0,0,0,1,,,,,,,,,,,,,,,,,,,,,,,,,,,,,,,,,,,,,,,,,,,,,,,,,,,,,,,,,,,,,,,,,,,,,,,,,,,,,,,,,,,,,,,,,,,
,,,,,,0,0,0,0,1,X V Q F H G B L J M P D K C T S W R N Z,5f00dcdde2787b22556593e7,43,Mężczyzna,2022-06-11_08h41.34.335,task,2021.1.4,MacIntel,58.82352941,6299f149e92ead563fba08ef,62a4471d1c2596ffa769b042,,,,,,,,,,,,,,,,,,,,,,,,,,,,,,,,,,,,,,,,,,,,,,,,,,,,,,,,,,,,,,,,,,,,,,,,,,,,,,,,,,,,,,,,,,,,,,,,,,,,,
,,,,,,1,0,1,0,1,X V Q F H G B L J M P D K C T S W R N Z,5f00dcdde2787b22556593e7,43,Mężczyzna,2022-06-11_08h41.34.335,task,2021.1.4,MacIntel,58.82352941,6299f149e92ead563fba08ef,62a4471d1c2596ffa769b042,,,,,,,,,,,,,,,,,,,,,,,,,,,,,,,,,,,,,,,,,,,,,,,,,,,,,,,,,,,,,,,,,,,,,,,,,,,,,,,,,,,,,,,,,,,,,,,,,,,,,
,,,,,,,,,,,,5f00dcdde2787b22556593e7,43,Mężczyzna,2022-06-11_08h41.34.335,task,2021.1.4,MacIntel,58.82352941,6299f149e92ead563fba08ef,62a4471d1c2596ffa769b042,cz,"[""c"",""z""]","[0.4299999999999997,0.9299999999999997,1.314]",1,CZ,1,0,1,0,1,,,,,,,,,,,,,,,,,,,,,,,,,,,,,,,,,,,,,,,,,,,,,,,,,,,,,,,,,,,,,,,,,,,,,,,,,,,,,,,,,,,,,,,,,,,
,,,,,,0,0,0,0,1,X V Q F H G B L J M P D K C T S W R N Z,5f00dcdde2787b22556593e7,43,Mężczyzna,2022-06-11_08h41.34.335,task,2021.1.4,MacIntel,58.82352941,6299f149e92ead563fba08ef,62a4471d1c2596ffa769b042,,,,,,,,,,,,,,,,,,,,,,,,,,,,,,,,,,,,,,,,,,,,,,,,,,,,,,,,,,,,,,,,,,,,,,,,,,,,,,,,,,,,,,,,,,,,,,,,,,,,,
,,,,,,1,0,1,0,1,X V Q F H G B L J M P D K C T S W R N Z,5f00dcdde2787b22556593e7,43,Mężczyzna,2022-06-11_08h41.34.335,task,2021.1.4,MacIntel,58.82352941,6299f149e92ead563fba08ef,62a4471d1c2596ffa769b042,,,,,,,,,,,,,,,,,,,,,,,,,,,,,,,,,,,,,,,,,,,,,,,,,,,,,,,,,,,,,,,,,,,,,,,,,,,,,,,,,,,,,,,,,,,,,,,,,,,,,
,,,,,,2,0,2,0,1,X V Q F H G B L J M P D K C T S W R N Z,5f00dcdde2787b22556593e7,43,Mężczyzna,2022-06-11_08h41.34.335,task,2021.1.4,MacIntel,58.82352941,6299f149e92ead563fba08ef,62a4471d1c2596ffa769b042,,,,,,,,,,,,,,,,,,,,,,,,,,,,,,,,,,,,,,,,,,,,,,,,,,,,,,,,,,,,,,,,,,,,,,,,,,,,,,,,,,,,,,,,,,,,,,,,,,,,,
,,,,,,,,,,,,5f00dcdde2787b22556593e7,43,Mężczyzna,2022-06-11_08h41.34.335,task,2021.1.4,MacIntel,58.82352941,6299f149e92ead563fba08ef,62a4471d1c2596ffa769b042,qsd,"[""q"",""s"",""d""]","[0.4989999999999952,1.0150000000000006,1.8999999999999915,2.4609999999999985]",1,QSD,2,0,2,0,1,,,,,,,,,,,,,,,,,,,,,,,,,,,,,,,,,,,,,,,,,,,,,,,,,,,,,,,,,,,,,,,,,,,,,,,,,,,,,,,,,,,,,,,,,,,
,,,,,,0,0,0,0,1,X V Q F H G B L J M P D K C T S W R N Z,5f00dcdde2787b22556593e7,43,Mężczyzna,2022-06-11_08h41.34.335,task,2021.1.4,MacIntel,58.82352941,6299f149e92ead563fba08ef,62a4471d1c2596ffa769b042,,,,,,,,,,,,,,,,,,,,,,,,,,,,,,,,,,,,,,,,,,,,,,,,,,,,,,,,,,,,,,,,,,,,,,,,,,,,,,,,,,,,,,,,,,,,,,,,,,,,,
,,,,,,1,0,1,0,1,X V Q F H G B L J M P D K C T S W R N Z,5f00dcdde2787b22556593e7,43,Mężczyzna,2022-06-11_08h41.34.335,task,2021.1.4,MacIntel,58.82352941,6299f149e92ead563fba08ef,62a4471d1c2596ffa769b042,,,,,,,,,,,,,,,,,,,,,,,,,,,,,,,,,,,,,,,,,,,,,,,,,,,,,,,,,,,,,,,,,,,,,,,,,,,,,,,,,,,,,,,,,,,,,,,,,,,,,
,,,,,,2,0,2,0,1,X V Q F H G B L J M P D K C T S W R N Z,5f00dcdde2787b22556593e7,43,Mężczyzna,2022-06-11_08h41.34.335,task,2021.1.4,MacIntel,58.82352941,6299f149e92ead563fba08ef,62a4471d1c2596ffa769b042,,,,,,,,,,,,,,,,,,,,,,,,,,,,,,,,,,,,,,,,,,,,,,,,,,,,,,,,,,,,,,,,,,,,,,,,,,,,,,,,,,,,,,,,,,,,,,,,,,,,,
,,,,,,,,,,,,5f00dcdde2787b22556593e7,43,Mężczyzna,2022-06-11_08h41.34.335,task,2021.1.4,MacIntel,58.82352941,6299f149e92ead563fba08ef,62a4471d1c2596ffa769b042,ggl,"[""g"",""g"",""l""]","[0.5189999999999912,0.6709999999999923,0.9689999999999941,1.2849999999999966]",1,GGL,3,0,3,0,1,,,,,,,,,,,,,,,,,,,,,,,,,,,,,,,,,,,,,,,,,,,,,,,,,,,,,,,,,,,,,,,,,,,,,,,,,,,,,,,,,,,,,,,,,,,
,,,,,,0,0,0,0,1,X V Q F H G B L J M P D K C T S W R N Z,5f00dcdde2787b22556593e7,43,Mężczyzna,2022-06-11_08h41.34.335,task,2021.1.4,MacIntel,58.82352941,6299f149e92ead563fba08ef,62a4471d1c2596ffa769b042,,,,,,,,,,,,,,,,,,,,,,,,,,,,,,,,,,,,,,,,,,,,,,,,,,,,,,,,,,,,,,,,,,,,,,,,,,,,,,,,,,,,,,,,,,,,,,,,,,,,,
,,,,,,1,0,1,0,1,X V Q F H G B L J M P D K C T S W R N Z,5f00dcdde2787b22556593e7,43,Mężczyzna,2022-06-11_08h41.34.335,task,2021.1.4,MacIntel,58.82352941,6299f149e92ead563fba08ef,62a4471d1c2596ffa769b042,,,,,,,,,,,,,,,,,,,,,,,,,,,,,,,,,,,,,,,,,,,,,,,,,,,,,,,,,,,,,,,,,,,,,,,,,,,,,,,,,,,,,,,,,,,,,,,,,,,,,
,,,,,,2,0,2,0,1,X V Q F H G B L J M P D K C T S W R N Z,5f00dcdde2787b22556593e7,43,Mężczyzna,2022-06-11_08h41.34.335,task,2021.1.4,MacIntel,58.82352941,6299f149e92ead563fba08ef,62a4471d1c2596ffa769b042,,,,,,,,,,,,,,,,,,,,,,,,,,,,,,,,,,,,,,,,,,,,,,,,,,,,,,,,,,,,,,,,,,,,,,,,,,,,,,,,,,,,,,,,,,,,,,,,,,,,,
,,,,,,3,0,3,0,1,X V Q F H G B L J M P D K C T S W R N Z,5f00dcdde2787b22556593e7,43,Mężczyzna,2022-06-11_08h41.34.335,task,2021.1.4,MacIntel,58.82352941,6299f149e92ead563fba08ef,62a4471d1c2596ffa769b042,,,,,,,,,,,,,,,,,,,,,,,,,,,,,,,,,,,,,,,,,,,,,,,,,,,,,,,,,,,,,,,,,,,,,,,,,,,,,,,,,,,,,,,,,,,,,,,,,,,,,
,,,,,,,,,,,,5f00dcdde2787b22556593e7,43,Mężczyzna,2022-06-11_08h41.34.335,task,2021.1.4,MacIntel,58.82352941,6299f149e92ead563fba08ef,62a4471d1c2596ffa769b042,cvvq,"[""c"",""v"",""v"",""q""]","[1.4639999999999986,1.8469999999999942,1.9650000000000034,2.421999999999997,3.1300000000000097]",1,CVVQ,4,0,4,0,1,,,,,,,,,,,,,,,,,,,,,,,,,,,,,,,,,,,,,,,,,,,,,,,,,,,,,,,,,,,,,,,,,,,,,,,,,,,,,,,,,,,,,,,,,,,
,,,,,,0,0,0,0,1,X V Q F H G B L J M P D K C T S W R N Z,5f00dcdde2787b22556593e7,43,Mężczyzna,2022-06-11_08h41.34.335,task,2021.1.4,MacIntel,58.82352941,6299f149e92ead563fba08ef,62a4471d1c2596ffa769b042,,,,,,,,,,,,,,,,,,,,,,,,,,,,,,,,,,,,,,,,,,,,,,,,,,,,,,,,,,,,,,,,,,,,,,,,,,,,,,,,,,,,,,,,,,,,,,,,,,,,,
,,,,,,1,0,1,0,1,X V Q F H G B L J M P D K C T S W R N Z,5f00dcdde2787b22556593e7,43,Mężczyzna,2022-06-11_08h41.34.335,task,2021.1.4,MacIntel,58.82352941,6299f149e92ead563fba08ef,62a4471d1c2596ffa769b042,,,,,,,,,,,,,,,,,,,,,,,,,,,,,,,,,,,,,,,,,,,,,,,,,,,,,,,,,,,,,,,,,,,,,,,,,,,,,,,,,,,,,,,,,,,,,,,,,,,,,
,,,,,,2,0,2,0,1,X V Q F H G B L J M P D K C T S W R N Z,5f00dcdde2787b22556593e7,43,Mężczyzna,2022-06-11_08h41.34.335,task,2021.1.4,MacIntel,58.82352941,6299f149e92ead563fba08ef,62a4471d1c2596ffa769b042,,,,,,,,,,,,,,,,,,,,,,,,,,,,,,,,,,,,,,,,,,,,,,,,,,,,,,,,,,,,,,,,,,,,,,,,,,,,,,,,,,,,,,,,,,,,,,,,,,,,,
,,,,,,3,0,3,0,1,X V Q F H G B L J M P D K C T S W R N Z,5f00dcdde2787b22556593e7,43,Mężczyzna,2022-06-11_08h41.34.335,task,2021.1.4,MacIntel,58.82352941,6299f149e92ead563fba08ef,62a4471d1c2596ffa769b042,,,,,,,,,,,,,,,,,,,,,,,,,,,,,,,,,,,,,,,,,,,,,,,,,,,,,,,,,,,,,,,,,,,,,,,,,,,,,,,,,,,,,,,,,,,,,,,,,,,,,
,,,,,,,,,,,,5f00dcdde2787b22556593e7,43,Mężczyzna,2022-06-11_08h41.34.335,task,2021.1.4,MacIntel,58.82352941,6299f149e92ead563fba08ef,62a4471d1c2596ffa769b042,qwhl,"[""q"",""w"",""h"",""l""]","[1.2489999999999952,2.153000000000006,2.8880000000000052,4.569000000000003,5.025000000000006]",0,QWHP,5,0,5,0,1,,,,,,,,,,,,,,,,,,,,,,,,,,,,,,,,,,,,,,,,,,,,,,,,,,,,,,,,,,,,,,,,,,,,,,,,,,,,,,,,,,,,,,,,,,,
,,,,,,0,0,0,0,1,X V Q F H G B L J M P D K C T S W R N Z,5f00dcdde2787b22556593e7,43,Mężczyzna,2022-06-11_08h41.34.335,task,2021.1.4,MacIntel,58.82352941,6299f149e92ead563fba08ef,62a4471d1c2596ffa769b042,,,,,,,,,,,,,,,,,,,,,,,,,,,,,,,,,,,,,,,,,,,,,,,,,,,,,,,,,,,,,,,,,,,,,,,,,,,,,,,,,,,,,,,,,,,,,,,,,,,,,
,,,,,,1,0,1,0,1,X V Q F H G B L J M P D K C T S W R N Z,5f00dcdde2787b22556593e7,43,Mężczyzna,2022-06-11_08h41.34.335,task,2021.1.4,MacIntel,58.82352941,6299f149e92ead563fba08ef,62a4471d1c2596ffa769b042,,,,,,,,,,,,,,,,,,,,,,,,,,,,,,,,,,,,,,,,,,,,,,,,,,,,,,,,,,,,,,,,,,,,,,,,,,,,,,,,,,,,,,,,,,,,,,,,,,,,,
,,,,,,2,0,2,0,1,X V Q F H G B L J M P D K C T S W R N Z,5f00dcdde2787b22556593e7,43,Mężczyzna,2022-06-11_08h41.34.335,task,2021.1.4,MacIntel,58.82352941,6299f149e92ead563fba08ef,62a4471d1c2596ffa769b042,,,,,,,,,,,,,,,,,,,,,,,,,,,,,,,,,,,,,,,,,,,,,,,,,,,,,,,,,,,,,,,,,,,,,,,,,,,,,,,,,,,,,,,,,,,,,,,,,,,,,
,,,,,,3,0,3,0,1,X V Q F H G B L J M P D K C T S W R N Z,5f00dcdde2787b22556593e7,43,Mężczyzna,2022-06-11_08h41.34.335,task,2021.1.4,MacIntel,58.82352941,6299f149e92ead563fba08ef,62a4471d1c2596ffa769b042,,,,,,,,,,,,,,,,,,,,,,,,,,,,,,,,,,,,,,,,,,,,,,,,,,,,,,,,,,,,,,,,,,,,,,,,,,,,,,,,,,,,,,,,,,,,,,,,,,,,,
,,,,,,,,,,,,5f00dcdde2787b22556593e7,43,Mężczyzna,2022-06-11_08h41.34.335,task,2021.1.4,MacIntel,58.82352941,6299f149e92ead563fba08ef,62a4471d1c2596ffa769b042,cmlz,"[""c"",""m"",""l"",""z""]","[8.004999999999995,8.203999999999994,8.530000000000001,9.447999999999993,9.698999999999998]",0,LZMS,6,0,6,0,1,,,,,,,,,,,,,,,,,,,,,,,,,,,,,,,,,,,,,,,,,,,,,,,,,,,,,,,,,,,,,,,,,,,,,,,,,,,,,,,,,,,,,,,,,,,
,,,,,,0,0,0,0,1,X V Q F H G B L J M P D K C T S W R N Z,5f00dcdde2787b22556593e7,43,Mężczyzna,2022-06-11_08h41.34.335,task,2021.1.4,MacIntel,58.82352941,6299f149e92ead563fba08ef,62a4471d1c2596ffa769b042,,,,,,,,,,,,,,,,,,,,,,,,,,,,,,,,,,,,,,,,,,,,,,,,,,,,,,,,,,,,,,,,,,,,,,,,,,,,,,,,,,,,,,,,,,,,,,,,,,,,,
,,,,,,1,0,1,0,1,X V Q F H G B L J M P D K C T S W R N Z,5f00dcdde2787b22556593e7,43,Mężczyzna,2022-06-11_08h41.34.335,task,2021.1.4,MacIntel,58.82352941,6299f149e92ead563fba08ef,62a4471d1c2596ffa769b042,,,,,,,,,,,,,,,,,,,,,,,,,,,,,,,,,,,,,,,,,,,,,,,,,,,,,,,,,,,,,,,,,,,,,,,,,,,,,,,,,,,,,,,,,,,,,,,,,,,,,
,,,,,,2,0,2,0,1,X V Q F H G B L J M P D K C T S W R N Z,5f00dcdde2787b22556593e7,43,Mężczyzna,2022-06-11_08h41.34.335,task,2021.1.4,MacIntel,58.82352941,6299f149e92ead563fba08ef,62a4471d1c2596ffa769b042,,,,,,,,,,,,,,,,,,,,,,,,,,,,,,,,,,,,,,,,,,,,,,,,,,,,,,,,,,,,,,,,,,,,,,,,,,,,,,,,,,,,,,,,,,,,,,,,,,,,,
,,,,,,3,0,3,0,1,X V Q F H G B L J M P D K C T S W R N Z,5f00dcdde2787b22556593e7,43,Mężczyzna,2022-06-11_08h41.34.335,task,2021.1.4,MacIntel,58.82352941,6299f149e92ead563fba08ef,62a4471d1c2596ffa769b042,,,,,,,,,,,,,,,,,,,,,,,,,,,,,,,,,,,,,,,,,,,,,,,,,,,,,,,,,,,,,,,,,,,,,,,,,,,,,,,,,,,,,,,,,,,,,,,,,,,,,
,,,,,,,,,,,,5f00dcdde2787b22556593e7,43,Mężczyzna,2022-06-11_08h41.34.335,task,2021.1.4,MacIntel,58.82352941,6299f149e92ead563fba08ef,62a4471d1c2596ffa769b042,gfzl,"[""g"",""f"",""z"",""l""]","[1.2310000000000088,1.8299999999999983,2.155000000000001,2.549999999999997,2.8560000000000088]",1,GFZL,7,0,7,0,1,,,,,,,,,,,,,,,,,,,,,,,,,,,,,,,,,,,,,,,,,,,,,,,,,,,,,,,,,,,,,,,,,,,,,,,,,,,,,,,,,,,,,,,,,,,
,,,,,,0,0,0,0,1,X V Q F H G B L J M P D K C T S W R N Z,5f00dcdde2787b22556593e7,43,Mężczyzna,2022-06-11_08h41.34.335,task,2021.1.4,MacIntel,58.82352941,6299f149e92ead563fba08ef,62a4471d1c2596ffa769b042,,,,,,,,,,,,,,,,,,,,,,,,,,,,,,,,,,,,,,,,,,,,,,,,,,,,,,,,,,,,,,,,,,,,,,,,,,,,,,,,,,,,,,,,,,,,,,,,,,,,,
,,,,,,1,0,1,0,1,X V Q F H G B L J M P D K C T S W R N Z,5f00dcdde2787b22556593e7,43,Mężczyzna,2022-06-11_08h41.34.335,task,2021.1.4,MacIntel,58.82352941,6299f149e92ead563fba08ef,62a4471d1c2596ffa769b042,,,,,,,,,,,,,,,,,,,,,,,,,,,,,,,,,,,,,,,,,,,,,,,,,,,,,,,,,,,,,,,,,,,,,,,,,,,,,,,,,,,,,,,,,,,,,,,,,,,,,
,,,,,,2,0,2,0,1,X V Q F H G B L J M P D K C T S W R N Z,5f00dcdde2787b22556593e7,43,Mężczyzna,2022-06-11_08h41.34.335,task,2021.1.4,MacIntel,58.82352941,6299f149e92ead563fba08ef,62a4471d1c2596ffa769b042,,,,,,,,,,,,,,,,,,,,,,,,,,,,,,,,,,,,,,,,,,,,,,,,,,,,,,,,,,,,,,,,,,,,,,,,,,,,,,,,,,,,,,,,,,,,,,,,,,,,,
,,,,,,3,0,3,0,1,X V Q F H G B L J M P D K C T S W R N Z,5f00dcdde2787b22556593e7,43,Mężczyzna,2022-06-11_08h41.34.335,task,2021.1.4,MacIntel,58.82352941,6299f149e92ead563fba08ef,62a4471d1c2596ffa769b042,,,,,,,,,,,,,,,,,,,,,,,,,,,,,,,,,,,,,,,,,,,,,,,,,,,,,,,,,,,,,,,,,,,,,,,,,,,,,,,,,,,,,,,,,,,,,,,,,,,,,
,,,,,,4,0,4,0,1,X V Q F H G B L J M P D K C T S W R N Z,5f00dcdde2787b22556593e7,43,Mężczyzna,2022-06-11_08h41.34.335,task,2021.1.4,MacIntel,58.82352941,6299f149e92ead563fba08ef,62a4471d1c2596ffa769b042,,,,,,,,,,,,,,,,,,,,,,,,,,,,,,,,,,,,,,,,,,,,,,,,,,,,,,,,,,,,,,,,,,,,,,,,,,,,,,,,,,,,,,,,,,,,,,,,,,,,,
,,,,,,,,,,,,5f00dcdde2787b22556593e7,43,Mężczyzna,2022-06-11_08h41.34.335,task,2021.1.4,MacIntel,58.82352941,6299f149e92ead563fba08ef,62a4471d1c2596ffa769b042,lfmrr,"[""l"",""f"",""m"",""r"",""r""]","[1.5730000000000075,1.9240000000000066,3.284000000000006,3.6580000000000013,3.9549999999999983,4.866]",1,LFMRR,8,0,8,0,1,,,,,,,,,,,,,,,,,,,,,,,,,,,,,,,,,,,,,,,,,,,,,,,,,,,,,,,,,,,,,,,,,,,,,,,,,,,,,,,,,,,,,,,,,,,
,,,,,,0,0,0,0,1,X V Q F H G B L J M P D K C T S W R N Z,5f00dcdde2787b22556593e7,43,Mężczyzna,2022-06-11_08h41.34.335,task,2021.1.4,MacIntel,58.82352941,6299f149e92ead563fba08ef,62a4471d1c2596ffa769b042,,,,,,,,,,,,,,,,,,,,,,,,,,,,,,,,,,,,,,,,,,,,,,,,,,,,,,,,,,,,,,,,,,,,,,,,,,,,,,,,,,,,,,,,,,,,,,,,,,,,,
,,,,,,1,0,1,0,1,X V Q F H G B L J M P D K C T S W R N Z,5f00dcdde2787b22556593e7,43,Mężczyzna,2022-06-11_08h41.34.335,task,2021.1.4,MacIntel,58.82352941,6299f149e92ead563fba08ef,62a4471d1c2596ffa769b042,,,,,,,,,,,,,,,,,,,,,,,,,,,,,,,,,,,,,,,,,,,,,,,,,,,,,,,,,,,,,,,,,,,,,,,,,,,,,,,,,,,,,,,,,,,,,,,,,,,,,
,,,,,,2,0,2,0,1,X V Q F H G B L J M P D K C T S W R N Z,5f00dcdde2787b22556593e7,43,Mężczyzna,2022-06-11_08h41.34.335,task,2021.1.4,MacIntel,58.82352941,6299f149e92ead563fba08ef,62a4471d1c2596ffa769b042,,,,,,,,,,,,,,,,,,,,,,,,,,,,,,,,,,,,,,,,,,,,,,,,,,,,,,,,,,,,,,,,,,,,,,,,,,,,,,,,,,,,,,,,,,,,,,,,,,,,,
,,,,,,3,0,3,0,1,X V Q F H G B L J M P D K C T S W R N Z,5f00dcdde2787b22556593e7,43,Mężczyzna,2022-06-11_08h41.34.335,task,2021.1.4,MacIntel,58.82352941,6299f149e92ead563fba08ef,62a4471d1c2596ffa769b042,,,,,,,,,,,,,,,,,,,,,,,,,,,,,,,,,,,,,,,,,,,,,,,,,,,,,,,,,,,,,,,,,,,,,,,,,,,,,,,,,,,,,,,,,,,,,,,,,,,,,
,,,,,,4,0,4,0,1,X V Q F H G B L J M P D K C T S W R N Z,5f00dcdde2787b22556593e7,43,Mężczyzna,2022-06-11_08h41.34.335,task,2021.1.4,MacIntel,58.82352941,6299f149e92ead563fba08ef,62a4471d1c2596ffa769b042,,,,,,,,,,,,,,,,,,,,,,,,,,,,,,,,,,,,,,,,,,,,,,,,,,,,,,,,,,,,,,,,,,,,,,,,,,,,,,,,,,,,,,,,,,,,,,,,,,,,,
,,,,,,,,,,,,5f00dcdde2787b22556593e7,43,Mężczyzna,2022-06-11_08h41.34.335,task,2021.1.4,MacIntel,58.82352941,6299f149e92ead563fba08ef,62a4471d1c2596ffa769b042,zxjgg,"[""z"",""x"",""j"",""g"",""g""]","[0.9860000000000184,1.5910000000000082,2,2.3880000000000052,2.5349999999999966,3.25]",1,ZXJGG,9,0,9,0,1,,,,,,,,,,,,,,,,,,,,,,,,,,,,,,,,,,,,,,,,,,,,,,,,,,,,,,,,,,,,,,,,,,,,,,,,,,,,,,,,,,,,,,,,,,,
,,,,,,0,0,0,0,1,X V Q F H G B L J M P D K C T S W R N Z,5f00dcdde2787b22556593e7,43,Mężczyzna,2022-06-11_08h41.34.335,task,2021.1.4,MacIntel,58.82352941,6299f149e92ead563fba08ef,62a4471d1c2596ffa769b042,,,,,,,,,,,,,,,,,,,,,,,,,,,,,,,,,,,,,,,,,,,,,,,,,,,,,,,,,,,,,,,,,,,,,,,,,,,,,,,,,,,,,,,,,,,,,,,,,,,,,
,,,,,,1,0,1,0,1,X V Q F H G B L J M P D K C T S W R N Z,5f00dcdde2787b22556593e7,43,Mężczyzna,2022-06-11_08h41.34.335,task,2021.1.4,MacIntel,58.82352941,6299f149e92ead563fba08ef,62a4471d1c2596ffa769b042,,,,,,,,,,,,,,,,,,,,,,,,,,,,,,,,,,,,,,,,,,,,,,,,,,,,,,,,,,,,,,,,,,,,,,,,,,,,,,,,,,,,,,,,,,,,,,,,,,,,,
,,,,,,2,0,2,0,1,X V Q F H G B L J M P D K C T S W R N Z,5f00dcdde2787b22556593e7,43,Mężczyzna,2022-06-11_08h41.34.335,task,2021.1.4,MacIntel,58.82352941,6299f149e92ead563fba08ef,62a4471d1c2596ffa769b042,,,,,,,,,,,,,,,,,,,,,,,,,,,,,,,,,,,,,,,,,,,,,,,,,,,,,,,,,,,,,,,,,,,,,,,,,,,,,,,,,,,,,,,,,,,,,,,,,,,,,
,,,,,,3,0,3,0,1,X V Q F H G B L J M P D K C T S W R N Z,5f00dcdde2787b22556593e7,43,Mężczyzna,2022-06-11_08h41.34.335,task,2021.1.4,MacIntel,58.82352941,6299f149e92ead563fba08ef,62a4471d1c2596ffa769b042,,,,,,,,,,,,,,,,,,,,,,,,,,,,,,,,,,,,,,,,,,,,,,,,,,,,,,,,,,,,,,,,,,,,,,,,,,,,,,,,,,,,,,,,,,,,,,,,,,,,,
,,,,,,4,0,4,0,1,X V Q F H G B L J M P D K C T S W R N Z,5f00dcdde2787b22556593e7,43,Mężczyzna,2022-06-11_08h41.34.335,task,2021.1.4,MacIntel,58.82352941,6299f149e92ead563fba08ef,62a4471d1c2596ffa769b042,,,,,,,,,,,,,,,,,,,,,,,,,,,,,,,,,,,,,,,,,,,,,,,,,,,,,,,,,,,,,,,,,,,,,,,,,,,,,,,,,,,,,,,,,,,,,,,,,,,,,
,,,,,,5,0,5,0,1,X V Q F H G B L J M P D K C T S W R N Z,5f00dcdde2787b22556593e7,43,Mężczyzna,2022-06-11_08h41.34.335,task,2021.1.4,MacIntel,58.82352941,6299f149e92ead563fba08ef,62a4471d1c2596ffa769b042,,,,,,,,,,,,,,,,,,,,,,,,,,,,,,,,,,,,,,,,,,,,,,,,,,,,,,,,,,,,,,,,,,,,,,,,,,,,,,,,,,,,,,,,,,,,,,,,,,,,,
,,,,,,,,,,,,5f00dcdde2787b22556593e7,43,Mężczyzna,2022-06-11_08h41.34.335,task,2021.1.4,MacIntel,58.82352941,6299f149e92ead563fba08ef,62a4471d1c2596ffa769b042,whnxqh,"[""w"",""h"",""n"",""x"",""q"",""h""]","[1.024000000000001,1.2980000000000018,1.7060000000000173,2.068000000000012,2.7849999999999966,4.358000000000004,4.757000000000005]",0,VHNQXH,10,0,10,0,1,,,,,,,,,,,,,,,,,,,,,,,,,,,,,,,,,,,,,,,,,,,,,,,,,,,,,,,,,,,,,,,,,,,,,,,,,,,,,,,,,,,,,,,,,,,
,,,,,,0,0,0,0,1,X V Q F H G B L J M P D K C T S W R N Z,5f00dcdde2787b22556593e7,43,Mężczyzna,2022-06-11_08h41.34.335,task,2021.1.4,MacIntel,58.82352941,6299f149e92ead563fba08ef,62a4471d1c2596ffa769b042,,,,,,,,,,,,,,,,,,,,,,,,,,,,,,,,,,,,,,,,,,,,,,,,,,,,,,,,,,,,,,,,,,,,,,,,,,,,,,,,,,,,,,,,,,,,,,,,,,,,,
,,,,,,1,0,1,0,1,X V Q F H G B L J M P D K C T S W R N Z,5f00dcdde2787b22556593e7,43,Mężczyzna,2022-06-11_08h41.34.335,task,2021.1.4,MacIntel,58.82352941,6299f149e92ead563fba08ef,62a4471d1c2596ffa769b042,,,,,,,,,,,,,,,,,,,,,,,,,,,,,,,,,,,,,,,,,,,,,,,,,,,,,,,,,,,,,,,,,,,,,,,,,,,,,,,,,,,,,,,,,,,,,,,,,,,,,
,,,,,,2,0,2,0,1,X V Q F H G B L J M P D K C T S W R N Z,5f00dcdde2787b22556593e7,43,Mężczyzna,2022-06-11_08h41.34.335,task,2021.1.4,MacIntel,58.82352941,6299f149e92ead563fba08ef,62a4471d1c2596ffa769b042,,,,,,,,,,,,,,,,,,,,,,,,,,,,,,,,,,,,,,,,,,,,,,,,,,,,,,,,,,,,,,,,,,,,,,,,,,,,,,,,,,,,,,,,,,,,,,,,,,,,,
,,,,,,3,0,3,0,1,X V Q F H G B L J M P D K C T S W R N Z,5f00dcdde2787b22556593e7,43,Mężczyzna,2022-06-11_08h41.34.335,task,2021.1.4,MacIntel,58.82352941,6299f149e92ead563fba08ef,62a4471d1c2596ffa769b042,,,,,,,,,,,,,,,,,,,,,,,,,,,,,,,,,,,,,,,,,,,,,,,,,,,,,,,,,,,,,,,,,,,,,,,,,,,,,,,,,,,,,,,,,,,,,,,,,,,,,
,,,,,,4,0,4,0,1,X V Q F H G B L J M P D K C T S W R N Z,5f00dcdde2787b22556593e7,43,Mężczyzna,2022-06-11_08h41.34.335,task,2021.1.4,MacIntel,58.82352941,6299f149e92ead563fba08ef,62a4471d1c2596ffa769b042,,,,,,,,,,,,,,,,,,,,,,,,,,,,,,,,,,,,,,,,,,,,,,,,,,,,,,,,,,,,,,,,,,,,,,,,,,,,,,,,,,,,,,,,,,,,,,,,,,,,,
,,,,,,5,0,5,0,1,X V Q F H G B L J M P D K C T S W R N Z,5f00dcdde2787b22556593e7,43,Mężczyzna,2022-06-11_08h41.34.335,task,2021.1.4,MacIntel,58.82352941,6299f149e92ead563fba08ef,62a4471d1c2596ffa769b042,,,,,,,,,,,,,,,,,,,,,,,,,,,,,,,,,,,,,,,,,,,,,,,,,,,,,,,,,,,,,,,,,,,,,,,,,,,,,,,,,,,,,,,,,,,,,,,,,,,,,
,,,,,,,,,,,,5f00dcdde2787b22556593e7,43,Mężczyzna,2022-06-11_08h41.34.335,task,2021.1.4,MacIntel,58.82352941,6299f149e92ead563fba08ef,62a4471d1c2596ffa769b042,ffgcpp,"[""f"",""f"",""g"",""c"",""p"",""p""]","[0.9619999999999891,1.1149999999999807,1.9139999999999873,2.212999999999994,2.579999999999984,2.8649999999999807,3.1689999999999827]",0,FFGCPR,11,0,11,0,1,,,,,,,,,,,,,,,,,,,,,,,,,,,,,,,,,,,,,,,,,,,,,,,,,,,,,,,,,,,,,,,,,,,,,,,,,,,,,,,,,,,,,,,,,,,
,,,,,,0,0,0,0,1,X V Q F H G B L J M P D K C T S W R N Z,5f00dcdde2787b22556593e7,43,Mężczyzna,2022-06-11_08h41.34.335,task,2021.1.4,MacIntel,58.82352941,6299f149e92ead563fba08ef,62a4471d1c2596ffa769b042,,,,,,,,,,,,,,,,,,,,,,,,,,,,,,,,,,,,,,,,,,,,,,,,,,,,,,,,,,,,,,,,,,,,,,,,,,,,,,,,,,,,,,,,,,,,,,,,,,,,,
,,,,,,1,0,1,0,1,X V Q F H G B L J M P D K C T S W R N Z,5f00dcdde2787b22556593e7,43,Mężczyzna,2022-06-11_08h41.34.335,task,2021.1.4,MacIntel,58.82352941,6299f149e92ead563fba08ef,62a4471d1c2596ffa769b042,,,,,,,,,,,,,,,,,,,,,,,,,,,,,,,,,,,,,,,,,,,,,,,,,,,,,,,,,,,,,,,,,,,,,,,,,,,,,,,,,,,,,,,,,,,,,,,,,,,,,
,,,,,,2,0,2,0,1,X V Q F H G B L J M P D K C T S W R N Z,5f00dcdde2787b22556593e7,43,Mężczyzna,2022-06-11_08h41.34.335,task,2021.1.4,MacIntel,58.82352941,6299f149e92ead563fba08ef,62a4471d1c2596ffa769b042,,,,,,,,,,,,,,,,,,,,,,,,,,,,,,,,,,,,,,,,,,,,,,,,,,,,,,,,,,,,,,,,,,,,,,,,,,,,,,,,,,,,,,,,,,,,,,,,,,,,,
,,,,,,3,0,3,0,1,X V Q F H G B L J M P D K C T S W R N Z,5f00dcdde2787b22556593e7,43,Mężczyzna,2022-06-11_08h41.34.335,task,2021.1.4,MacIntel,58.82352941,6299f149e92ead563fba08ef,62a4471d1c2596ffa769b042,,,,,,,,,,,,,,,,,,,,,,,,,,,,,,,,,,,,,,,,,,,,,,,,,,,,,,,,,,,,,,,,,,,,,,,,,,,,,,,,,,,,,,,,,,,,,,,,,,,,,
,,,,,,4,0,4,0,1,X V Q F H G B L J M P D K C T S W R N Z,5f00dcdde2787b22556593e7,43,Mężczyzna,2022-06-11_08h41.34.335,task,2021.1.4,MacIntel,58.82352941,6299f149e92ead563fba08ef,62a4471d1c2596ffa769b042,,,,,,,,,,,,,,,,,,,,,,,,,,,,,,,,,,,,,,,,,,,,,,,,,,,,,,,,,,,,,,,,,,,,,,,,,,,,,,,,,,,,,,,,,,,,,,,,,,,,,
,,,,,,5,0,5,0,1,X V Q F H G B L J M P D K C T S W R N Z,5f00dcdde2787b22556593e7,43,Mężczyzna,2022-06-11_08h41.34.335,task,2021.1.4,MacIntel,58.82352941,6299f149e92ead563fba08ef,62a4471d1c2596ffa769b042,,,,,,,,,,,,,,,,,,,,,,,,,,,,,,,,,,,,,,,,,,,,,,,,,,,,,,,,,,,,,,,,,,,,,,,,,,,,,,,,,,,,,,,,,,,,,,,,,,,,,
,,,,,,,,,,,,5f00dcdde2787b22556593e7,43,Mężczyzna,2022-06-11_08h41.34.335,task,2021.1.4,MacIntel,58.82352941,6299f149e92ead563fba08ef,62a4471d1c2596ffa769b042,hdwgpd,"[""h"",""d"",""w"",""g"",""p"",""d""]","[0.6890000000000214,1.0880000000000223,2.1810000000000116,2.5860000000000127,4.01400000000001,4.355000000000018,5.433000000000021]",0,HWDFWG,12,0,12,0,1,,,,,,,,,,,,,,,,,,,,,,,,,,,,,,,,,,,,,,,,,,,,,,,,,,,,,,,,,,,,,,,,,,,,,,,,,,,,,,,,,,,,,,,,,,,
,,,,,,,,,,,,5f00dcdde2787b22556593e7,43,Mężczyzna,2022-06-11_08h41.34.335,task,2021.1.4,MacIntel,58.82352941,6299f149e92ead563fba08ef,62a4471d1c2596ffa769b042,,,,,,,,,,,space,15.113,8,"[""8""]",1,[3.829999999999984],[3.829999999999984],0,0,0,8,1,Practice,9,(3x3) - 1,8,,,,,,,,,,,,,,,,,,,,,,,,,,,,,,,,,,,,,,,,,,,,,,,,,,,,,,,,,,,,,,,,,,,,,,,,,,,
,,,,,,,,,,,,5f00dcdde2787b22556593e7,43,Mężczyzna,2022-06-11_08h41.34.335,task,2021.1.4,MacIntel,58.82352941,6299f149e92ead563fba08ef,62a4471d1c2596ffa769b042,,,,,,,,,,,,,3,"[""3""]",1,[2.766999999999996],"[3.829999999999984,2.766999999999996]",0,1,1,3,1,Practice,4,(8/4) + 1,3,,,,,,,,,,,,,,,,,,,,,,,,,,,,,,,,,,,,,,,,,,,,,,,,,,,,,,,,,,,,,,,,,,,,,,,,,,,
,,,,,,,,,,,,5f00dcdde2787b22556593e7,43,Mężczyzna,2022-06-11_08h41.34.335,task,2021.1.4,MacIntel,58.82352941,6299f149e92ead563fba08ef,62a4471d1c2596ffa769b042,,,,,,,,,,,,,6,"[""6""]",1,[2.214000000000027],"[3.829999999999984,2.766999999999996,2.214000000000027]",0,2,2,6,1,Practice,7,(25/5) + 1,6,,,,,,,,,,,,,,,,,,,,,,,,,,,,,,,,,,,,,,,,,,,,,,,,,,,,,,,,,,,,,,,,,,,,,,,,,,,
,,,,,,,,,,,,5f00dcdde2787b22556593e7,43,Mężczyzna,2022-06-11_08h41.34.335,task,2021.1.4,MacIntel,58.82352941,6299f149e92ead563fba08ef,62a4471d1c2596ffa769b042,,,,,,,,,,,,,7,"[""7""]",1,[2.9090000000000202],"[3.829999999999984,2.766999999999996,2.214000000000027,2.9090000000000202]",0,3,3,7,1,Practice,8,(5x5) - 18,7,,,,,,,,,,,,,,,,,,,,,,,,,,,,,,,,,,,,,,,,,,,,,,,,,,,,,,,,,,,,,,,,,,,,,,,,,,,
,,,,,,,,,,,,5f00dcdde2787b22556593e7,43,Mężczyzna,2022-06-11_08h41.34.335,task,2021.1.4,MacIntel,58.82352941,6299f149e92ead563fba08ef,62a4471d1c2596ffa769b042,,,,,,,,,,,,,4,"[""4""]",1,[2.8649999999999807],"[3.829999999999984,2.766999999999996,2.214000000000027,2.9090000000000202,2.8649999999999807]",0,4,4,4,1,Practice,5,(2x6) - 8,4,,,,,,,,,,,,,,,,,,,,,,,,,,,,,,,,,,,,,,,,,,,,,,,,,,,,,,,,,,,,,,,,,,,,,,,,,,,
,,,,,,,,,,,,5f00dcdde2787b22556593e7,43,Mężczyzna,2022-06-11_08h41.34.335,task,2021.1.4,MacIntel,58.82352941,6299f149e92ead563fba08ef,62a4471d1c2596ffa769b042,,,,,,,,,,,,,9,"[""9""]",1,[3.813999999999993],"[3.829999999999984,2.766999999999996,2.214000000000027,2.9090000000000202,2.8649999999999807,3.813999999999993]",0,5,5,9,1,Practice,10,(20/2) - 1,9,,,,,,,,,,,,,,,,,,,,,,,,,,,,,,,,,,,,,,,,,,,,,,,,,,,,,,,,,,,,,,,,,,,,,,,,,,,
,,,,,,,,,,,,5f00dcdde2787b22556593e7,43,Mężczyzna,2022-06-11_08h41.34.335,task,2021.1.4,MacIntel,58.82352941,6299f149e92ead563fba08ef,62a4471d1c2596ffa769b042,,,,,,,,,,,,,0,"[""0""]",1,[1.8649999999999807],"[3.829999999999984,2.766999999999996,2.214000000000027,2.9090000000000202,2.8649999999999807,3.813999999999993,1.8649999999999807]",0,6,6,0,1,Practice,1,(3x3) -  9,0,,,,,,,,,,,,,,,,,,,,,,,,,,,,,,,,,,,,,,,,,,,,,,,,,,,,,,,,,,,,,,,,,,,,,,,,,,,
,,,,,,,,,,,,5f00dcdde2787b22556593e7,43,Mężczyzna,2022-06-11_08h41.34.335,task,2021.1.4,MacIntel,58.82352941,6299f149e92ead563fba08ef,62a4471d1c2596ffa769b042,,,,,,,,,,,,,2,"[""2""]",1,[2.4899999999999807],"[3.829999999999984,2.766999999999996,2.214000000000027,2.9090000000000202,2.8649999999999807,3.813999999999993,1.8649999999999807,2.4899999999999807]",0,7,7,2,1,Practice,3,(4x4) - 14,2,,,,,,,,,,,,,,,,,,,,,,,,,,,,,,,,,,,,,,,,,,,,,,,,,,,,,,,,,,,,,,,,,,,,,,,,,,,
,,,,,,,,,,,,5f00dcdde2787b22556593e7,43,Mężczyzna,2022-06-11_08h41.34.335,task,2021.1.4,MacIntel,58.82352941,6299f149e92ead563fba08ef,62a4471d1c2596ffa769b042,,,,,,,,,,,,,5,"[""5""]",1,[3.037000000000006],"[3.829999999999984,2.766999999999996,2.214000000000027,2.9090000000000202,2.8649999999999807,3.813999999999993,1.8649999999999807,2.4899999999999807,3.037000000000006]",0,8,8,5,1,Practice,6,(4/2) + 3,5,,,,,,,,,,,,,,,,,,,,,,,,,,,,,,,,,,,,,,,,,,,,,,,,,,,,,,,,,,,,,,,,,,,,,,,,,,,
,,,,,,,,,,,,5f00dcdde2787b22556593e7,43,Mężczyzna,2022-06-11_08h41.34.335,task,2021.1.4,MacIntel,58.82352941,6299f149e92ead563fba08ef,62a4471d1c2596ffa769b042,,,,,,,,,,,,,1,"[""1""]",1,[2.186000000000007],"[3.829999999999984,2.766999999999996,2.214000000000027,2.9090000000000202,2.8649999999999807,3.813999999999993,1.8649999999999807,2.4899999999999807,3.037000000000006,2.186000000000007]",0,9,9,1,1,Practice,2,(4x4) - 15,1,,,,,,,,,,,,,,,,,,,,,,,,,,,,,,,,,,,,,,,,,,,,,,,,,,,,,,,,,,,,,,,,,,,,,,,,,,,
,,,,,,,,,,,,5f00dcdde2787b22556593e7,43,Mężczyzna,2022-06-11_08h41.34.335,task,2021.1.4,MacIntel,58.82352941,6299f149e92ead563fba08ef,62a4471d1c2596ffa769b042,,,,,,,,,,,,,,,,,,,,,,,,,,,1,27.977,1.865133333,12.54992998,0.914692297,4.22503946,space,1.688,0,0,0,0,1,,,,,,,,,,,,,,,,,,,,,,,,,,,,,,,,,,,,,,,,,,,,,,,,,,,,,,,,,,,,,,
,,,,,,,,,,,,5f00dcdde2787b22556593e7,43,Mężczyzna,2022-06-11_08h41.34.335,task,2021.1.4,MacIntel,58.82352941,6299f149e92ead563fba08ef,62a4471d1c2596ffa769b042,,,,,,,,,,,,,4,,,,,,,,,,Practice,5,(2x6) - 8,4,,,,,,,,,,,,,,space,12.859,"[""4""]",1,[2.9099999999999966],1,0,0,0,4,1,,,,,,,,,,,,,,,,,,,,,,,,,,,,,,,,,,,,,,,,,,,,,,,,,,,
,,,,,,,,,,,X V Q F H G B L J M P D K C T S W R N Z,5f00dcdde2787b22556593e7,43,Mężczyzna,2022-06-11_08h41.34.335,task,2021.1.4,MacIntel,58.82352941,6299f149e92ead563fba08ef,62a4471d1c2596ffa769b042,,,,,,,,,,,,,,,,,,,,,,,,,,,,,,,,,,,,,,,,,,,,,,,,,,,0,0,0,0,1,,,,,,,,,,,,,,,,,,,,,,,,,,,,,,,,,,,,,,,,,,,,,,
,,,,,,,,,,,,5f00dcdde2787b22556593e7,43,Mężczyzna,2022-06-11_08h41.34.335,task,2021.1.4,MacIntel,58.82352941,6299f149e92ead563fba08ef,62a4471d1c2596ffa769b042,,,,,,,,,,,,,,,,,,,,,,,Practice,4,(8/4) + 1,3,,,,,,,,,,,,,,,,,0,,0,0,0,0,3,1,,,,,,,,,,,,,,,,,,,,,,,,,,,,,,,,,,,,,,,,,,,,,,,,,,,
,,,,,,,,,,,,5f00dcdde2787b22556593e7,43,Mężczyzna,2022-06-11_08h41.34.335,task,2021.1.4,MacIntel,58.82352941,6299f149e92ead563fba08ef,62a4471d1c2596ffa769b042,,,,,,,,,,,,,1,,,,,,,,,,Practice,2,(4x4) - 15,1,,,,,,,,,,,,,,,,"[""1""]",1,[1.5160000000000196],1,0,1,1,1,1,,,,,,,,,,,,,,,,,,,,,,,,,,,,,,,,,,,,,,,,,,,,,,,,,,,
,,,,,,,,,,,X V Q F H G B L J M P D K C T S W R N Z,5f00dcdde2787b22556593e7,43,Mężczyzna,2022-06-11_08h41.34.335,task,2021.1.4,MacIntel,58.82352941,6299f149e92ead563fba08ef,62a4471d1c2596ffa769b042,,,,,,,,,,,,,,,,,,,,,,,,,,,,,,,,,,,,,,,,,,,,,,,,,,,1,0,1,0,1,,,,,,,,,,,,,,,,,,,,,,,,,,,,,,,,,,,,,,,,,,,,,,
,,,,,,,,,,,,5f00dcdde2787b22556593e7,43,Mężczyzna,2022-06-11_08h41.34.335,task,2021.1.4,MacIntel,58.82352941,6299f149e92ead563fba08ef,62a4471d1c2596ffa769b042,,,,,,,,,,,,,,,,,,,,,,,,,,,,,,,,,,,,,,,,,,,,,,,,,,,,,,,,zg,"[""z"",""g""]",0,"[1.836999999999989,2.1610000000000014,2.6850000000000023]",1,0,0,0,0,1,,,,,,,,,,,,,,,,,,,,,,,,,,,,,,,,,,,,
,,,,,,,,,,,,5f00dcdde2787b22556593e7,43,Mężczyzna,2022-06-11_08h41.34.335,task,2021.1.4,MacIntel,58.82352941,6299f149e92ead563fba08ef,62a4471d1c2596ffa769b042,,,,,,,,,,,,,5,,,,,,,,,,Practice,6,(4/2) + 3,5,,,,,,,,,,,,,,,,"[""5""]",1,[2.2959999999999923],1,0,0,0,5,1,,,,,,,,,,,,,,,,,,,,,,,,,,,,,,,,,,,,,,,,,,,,,,,,,,,
,,,,,,,,,,,X V Q F H G B L J M P D K C T S W R N Z,5f00dcdde2787b22556593e7,43,Mężczyzna,2022-06-11_08h41.34.335,task,2021.1.4,MacIntel,58.82352941,6299f149e92ead563fba08ef,62a4471d1c2596ffa769b042,,,,,,,,,,,,,,,,,,,,,,,,,,,,,,,,,,,,,,,,,,,,,,,,,,,0,0,0,0,1,,,,,,,,,,,,,,,,,,,,,,,,,,,,,,,,,,,,,,,,,,,,,,
,,,,,,,,,,,,5f00dcdde2787b22556593e7,43,Mężczyzna,2022-06-11_08h41.34.335,task,2021.1.4,MacIntel,58.82352941,6299f149e92ead563fba08ef,62a4471d1c2596ffa769b042,,,,,,,,,,,,,1,,,,,,,,,,Practice,2,(4x4) - 15,1,,,,,,,,,,,,,,,,"[""1""]",1,[1.4290000000000305],1,0,0,0,1,1,,,,,,,,,,,,,,,,,,,,,,,,,,,,,,,,,,,,,,,,,,,,,,,,,,,
,,,,,,,,,,,X V Q F H G B L J M P D K C T S W R N Z,5f00dcdde2787b22556593e7,43,Mężczyzna,2022-06-11_08h41.34.335,task,2021.1.4,MacIntel,58.82352941,6299f149e92ead563fba08ef,62a4471d1c2596ffa769b042,,,,,,,,,,,,,,,,,,,,,,,,,,,,,,,,,,,,,,,,,,,,,,,,,,,1,0,1,0,1,,,,,,,,,,,,,,,,,,,,,,,,,,,,,,,,,,,,,,,,,,,,,,
,,,,,,,,,,,,5f00dcdde2787b22556593e7,43,Mężczyzna,2022-06-11_08h41.34.335,task,2021.1.4,MacIntel,58.82352941,6299f149e92ead563fba08ef,62a4471d1c2596ffa769b042,,,,,,,,,,,,,,,,,,,,,,,,,,,,,,,,,,,,,,,,,,,,,,,,,,,,,,,,gl,"[""g"",""l""]",0,"[1.48599999999999,1.617999999999995,1.886000000000024]",0,1,0,1,0,1,,,,,,,,,,,,,,,,,,,,,,,,,,,,,,,,,,,,
,,,,,,,,,,,,5f00dcdde2787b22556593e7,43,Mężczyzna,2022-06-11_08h41.34.335,task,2021.1.4,MacIntel,58.82352941,6299f149e92ead563fba08ef,62a4471d1c2596ffa769b042,,,,,,,,,,,,,8,,,,,,,,,,Practice,9,(3x3) - 1,8,,,,,,,,,,,,,,,,"[""8""]",1,[2.2339999999999804],1,0,0,0,8,1,,,,,,,,,,,,,,,,,,,,,,,,,,,,,,,,,,,,,,,,,,,,,,,,,,,
,,,,,,,,,,,X V Q F H G B L J M P D K C T S W R N Z,5f00dcdde2787b22556593e7,43,Mężczyzna,2022-06-11_08h41.34.335,task,2021.1.4,MacIntel,58.82352941,6299f149e92ead563fba08ef,62a4471d1c2596ffa769b042,,,,,,,,,,,,,,,,,,,,,,,,,,,,,,,,,,,,,,,,,,,,,,,,,,,0,0,0,0,1,,,,,,,,,,,,,,,,,,,,,,,,,,,,,,,,,,,,,,,,,,,,,,
,,,,,,,,,,,,5f00dcdde2787b22556593e7,43,Mężczyzna,2022-06-11_08h41.34.335,task,2021.1.4,MacIntel,58.82352941,6299f149e92ead563fba08ef,62a4471d1c2596ffa769b042,,,,,,,,,,,,,2,,,,,,,,,,Practice,3,(4x4) - 14,2,,,,,,,,,,,,,,,,"[""2""]",1,[1.4470000000000027],1,0,0,0,2,1,,,,,,,,,,,,,,,,,,,,,,,,,,,,,,,,,,,,,,,,,,,,,,,,,,,
,,,,,,,,,,,X V Q F H G B L J M P D K C T S W R N Z,5f00dcdde2787b22556593e7,43,Mężczyzna,2022-06-11_08h41.34.335,task,2021.1.4,MacIntel,58.82352941,6299f149e92ead563fba08ef,62a4471d1c2596ffa769b042,,,,,,,,,,,,,,,,,,,,,,,,,,,,,,,,,,,,,,,,,,,,,,,,,,,1,0,1,0,1,,,,,,,,,,,,,,,,,,,,,,,,,,,,,,,,,,,,,,,,,,,,,,
,,,,,,,,,,,,5f00dcdde2787b22556593e7,43,Mężczyzna,2022-06-11_08h41.34.335,task,2021.1.4,MacIntel,58.82352941,6299f149e92ead563fba08ef,62a4471d1c2596ffa769b042,,,,,,,,,,,,,,,,,,,,,,,,,,,,,,,,,,,,,,,,,,,,,,,,,,,,,,,,xg,"[""x"",""g""]",0,"[0.8269999999999982,1.1310000000000286,1.4449999999999932]",1,2,0,2,0,1,,,,,,,,,,,,,,,,,,,,,,,,,,,,,,,,,,,,
,,,,,,,,,,,,5f00dcdde2787b22556593e7,43,Mężczyzna,2022-06-11_08h41.34.335,task,2021.1.4,MacIntel,58.82352941,6299f149e92ead563fba08ef,62a4471d1c2596ffa769b042,,,,,,,,,,,,,1,,,,,,,,,,Practice,2,(4x4) - 15,1,,,,,,,,,,,,,,,,"[""1""]",1,[2.204999999999984],1,0,0,0,1,1,,,,,,,,,,,,,,,,,,,,,,,,,,,,,,,,,,,,,,,,,,,,,,,,,,,
,,,,,,,,,,,X V Q F H G B L J M P D K C T S W R N Z,5f00dcdde2787b22556593e7,43,Mężczyzna,2022-06-11_08h41.34.335,task,2021.1.4,MacIntel,58.82352941,6299f149e92ead563fba08ef,62a4471d1c2596ffa769b042,,,,,,,,,,,,,,,,,,,,,,,,,,,,,,,,,,,,,,,,,,,,,,,,,,,0,0,0,0,1,,,,,,,,,,,,,,,,,,,,,,,,,,,,,,,,,,,,,,,,,,,,,,
,,,,,,,,,,,,5f00dcdde2787b22556593e7,43,Mężczyzna,2022-06-11_08h41.34.335,task,2021.1.4,MacIntel,58.82352941,6299f149e92ead563fba08ef,62a4471d1c2596ffa769b042,,,,,,,,,,,,,1,,,,,,,,,,Practice,2,(4x4) - 15,1,,,,,,,,,,,,,,,,"[""1""]",1,[1.3350000000000364],1,0,0,0,1,1,,,,,,,,,,,,,,,,,,,,,,,,,,,,,,,,,,,,,,,,,,,,,,,,,,,
,,,,,,,,,,,X V Q F H G B L J M P D K C T S W R N Z,5f00dcdde2787b22556593e7,43,Mężczyzna,2022-06-11_08h41.34.335,task,2021.1.4,MacIntel,58.82352941,6299f149e92ead563fba08ef,62a4471d1c2596ffa769b042,,,,,,,,,,,,,,,,,,,,,,,,,,,,,,,,,,,,,,,,,,,,,,,,,,,1,0,1,0,1,,,,,,,,,,,,,,,,,,,,,,,,,,,,,,,,,,,,,,,,,,,,,,
,,,,,,,,,,,,5f00dcdde2787b22556593e7,43,Mężczyzna,2022-06-11_08h41.34.335,task,2021.1.4,MacIntel,58.82352941,6299f149e92ead563fba08ef,62a4471d1c2596ffa769b042,,,,,,,,,,,,,,,,,,,,,,,,,,,,,,,,,,,,,,,,,,,,,,,,,,,,,,,,gc,"[""g"",""c""]",0,"[0.9839999999999804,1.56899999999996,1.8349999999999795]",0,3,0,3,0,1,,,,,,,,,,,,,,,,,,,,,,,,,,,,,,,,,,,,
,,,,,,,,,,,,5f00dcdde2787b22556593e7,43,Mężczyzna,2022-06-11_08h41.34.335,task,2021.1.4,MacIntel,58.82352941,6299f149e92ead563fba08ef,62a4471d1c2596ffa769b042,,,,,,,,,,,,,5,,,,,,,,,,Practice,7,(25/5) + 1,6,,,,,,,,,,,,,,,,"[""5""]",0,[1.6870000000000118],0,0,0,0,6,1,,,,,,,,,,,,,,,,,,,,,,,,,,,,,,,,,,,,,,,,,,,,,,,,,,,
,,,,,,,,,,,,5f00dcdde2787b22556593e7,43,Mężczyzna,2022-06-11_08h41.34.335,task,2021.1.4,MacIntel,58.82352941,6299f149e92ead563fba08ef,62a4471d1c2596ffa769b042,,,,,,,,,,,,,0,,,,,,,,,,Practice,1,(3x3) -  9,0,,,,,,,,,,,,,,,,"[""0""]",1,[1.8810000000000286],1,0,1,1,0,1,,,,,,,,,,,,,,,,,,,,,,,,,,,,,,,,,,,,,,,,,,,,,,,,,,,
,,,,,,,,,,,X V Q F H G B L J M P D K C T S W R N Z,5f00dcdde2787b22556593e7,43,Mężczyzna,2022-06-11_08h41.34.335,task,2021.1.4,MacIntel,58.82352941,6299f149e92ead563fba08ef,62a4471d1c2596ffa769b042,,,,,,,,,,,,,,,,,,,,,,,,,,,,,,,,,,,,,,,,,,,,,,,,,,,0,0,0,0,1,,,,,,,,,,,,,,,,,,,,,,,,,,,,,,,,,,,,,,,,,,,,,,
,,,,,,,,,,,,5f00dcdde2787b22556593e7,43,Mężczyzna,2022-06-11_08h41.34.335,task,2021.1.4,MacIntel,58.82352941,6299f149e92ead563fba08ef,62a4471d1c2596ffa769b042,,,,,,,,,,,,,9,,,,,,,,,,Practice,10,(20/2) - 1,9,,,,,,,,,,,,,,,,"[""9""]",1,[2.8789999999999623],1,0,0,0,9,1,,,,,,,,,,,,,,,,,,,,,,,,,,,,,,,,,,,,,,,,,,,,,,,,,,,
,,,,,,,,,,,X V Q F H G B L J M P D K C T S W R N Z,5f00dcdde2787b22556593e7,43,Mężczyzna,2022-06-11_08h41.34.335,task,2021.1.4,MacIntel,58.82352941,6299f149e92ead563fba08ef,62a4471d1c2596ffa769b042,,,,,,,,,,,,,,,,,,,,,,,,,,,,,,,,,,,,,,,,,,,,,,,,,,,1,0,1,0,1,,,,,,,,,,,,,,,,,,,,,,,,,,,,,,,,,,,,,,,,,,,,,,
,,,,,,,,,,,,5f00dcdde2787b22556593e7,43,Mężczyzna,2022-06-11_08h41.34.335,task,2021.1.4,MacIntel,58.82352941,6299f149e92ead563fba08ef,62a4471d1c2596ffa769b042,,,,,,,,,,,,,,,,,,,,,,,,,,,,,,,,,,,,,,,,,,,,,,,,,,,,,,,,gj,"[""g"",""j""]",0,"[0.9540000000000077,1.2350000000000136,1.4560000000000173]",0,4,0,4,0,1,,,,,,,,,,,,,,,,,,,,,,,,,,,,,,,,,,,,
,,,,,,,,,,,,5f00dcdde2787b22556593e7,43,Mężczyzna,2022-06-11_08h41.34.335,task,2021.1.4,MacIntel,58.82352941,6299f149e92ead563fba08ef,62a4471d1c2596ffa769b042,,,,,,,,,,,,,5,,,,,,,,,,Practice,6,(4/2) + 3,5,,,,,,,,,,,,,,,,"[""5""]",1,[2.9809999999999945],1,0,0,0,5,1,,,,,,,,,,,,,,,,,,,,,,,,,,,,,,,,,,,,,,,,,,,,,,,,,,,
,,,,,,,,,,,X V Q F H G B L J M P D K C T S W R N Z,5f00dcdde2787b22556593e7,43,Mężczyzna,2022-06-11_08h41.34.335,task,2021.1.4,MacIntel,58.82352941,6299f149e92ead563fba08ef,62a4471d1c2596ffa769b042,,,,,,,,,,,,,,,,,,,,,,,,,,,,,,,,,,,,,,,,,,,,,,,,,,,0,0,0,0,1,,,,,,,,,,,,,,,,,,,,,,,,,,,,,,,,,,,,,,,,,,,,,,
,,,,,,,,,,,,5f00dcdde2787b22556593e7,43,Mężczyzna,2022-06-11_08h41.34.335,task,2021.1.4,MacIntel,58.82352941,6299f149e92ead563fba08ef,62a4471d1c2596ffa769b042,,,,,,,,,,,,,2,,,,,,,,,,Practice,3,(4x4) - 14,2,,,,,,,,,,,,,,,,"[""2""]",1,[1.51400000000001],1,0,0,0,2,1,,,,,,,,,,,,,,,,,,,,,,,,,,,,,,,,,,,,,,,,,,,,,,,,,,,
,,,,,,,,,,,X V Q F H G B L J M P D K C T S W R N Z,5f00dcdde2787b22556593e7,43,Mężczyzna,2022-06-11_08h41.34.335,task,2021.1.4,MacIntel,58.82352941,6299f149e92ead563fba08ef,62a4471d1c2596ffa769b042,,,,,,,,,,,,,,,,,,,,,,,,,,,,,,,,,,,,,,,,,,,,,,,,,,,1,0,1,0,1,,,,,,,,,,,,,,,,,,,,,,,,,,,,,,,,,,,,,,,,,,,,,,
,,,,,,,,,,,,5f00dcdde2787b22556593e7,43,Mężczyzna,2022-06-11_08h41.34.335,task,2021.1.4,MacIntel,58.82352941,6299f149e92ead563fba08ef,62a4471d1c2596ffa769b042,,,,,,,,,,,,,,,,,,,,,,,,,,,,,,,,,,,,,,,,,,,,,,,,,,,,,,,,gn,"[""g"",""n""]",0,"[1.1200000000000045,1.406000000000006,1.6510000000000105]",0,5,0,5,0,1,,,,,,,,,,,,,,,,,,,,,,,,,,,,,,,,,,,,
,,,,,,,,,,,,5f00dcdde2787b22556593e7,43,Mężczyzna,2022-06-11_08h41.34.335,task,2021.1.4,MacIntel,58.82352941,6299f149e92ead563fba08ef,62a4471d1c2596ffa769b042,,,,,,,,,,,,,0,,,,,,,,,,Practice,1,(3x3) -  9,0,,,,,,,,,,,,,,,,"[""0""]",1,[2.785000000000025],1,0,0,0,0,1,,,,,,,,,,,,,,,,,,,,,,,,,,,,,,,,,,,,,,,,,,,,,,,,,,,
,,,,,,,,,,,X V Q F H G B L J M P D K C T S W R N Z,5f00dcdde2787b22556593e7,43,Mężczyzna,2022-06-11_08h41.34.335,task,2021.1.4,MacIntel,58.82352941,6299f149e92ead563fba08ef,62a4471d1c2596ffa769b042,,,,,,,,,,,,,,,,,,,,,,,,,,,,,,,,,,,,,,,,,,,,,,,,,,,0,0,0,0,1,,,,,,,,,,,,,,,,,,,,,,,,,,,,,,,,,,,,,,,,,,,,,,
,,,,,,,,,,,,5f00dcdde2787b22556593e7,43,Mężczyzna,2022-06-11_08h41.34.335,task,2021.1.4,MacIntel,58.82352941,6299f149e92ead563fba08ef,62a4471d1c2596ffa769b042,,,,,,,,,,,,,9,,,,,,,,,,Practice,10,(20/2) - 1,9,,,,,,,,,,,,,,,,"[""9""]",1,[1.544999999999959],1,0,0,0,9,1,,,,,,,,,,,,,,,,,,,,,,,,,,,,,,,,,,,,,,,,,,,,,,,,,,,
,,,,,,,,,,,X V Q F H G B L J M P D K C T S W R N Z,5f00dcdde2787b22556593e7,43,Mężczyzna,2022-06-11_08h41.34.335,task,2021.1.4,MacIntel,58.82352941,6299f149e92ead563fba08ef,62a4471d1c2596ffa769b042,,,,,,,,,,,,,,,,,,,,,,,,,,,,,,,,,,,,,,,,,,,,,,,,,,,1,0,1,0,1,,,,,,,,,,,,,,,,,,,,,,,,,,,,,,,,,,,,,,,,,,,,,,
,,,,,,,,,,,,5f00dcdde2787b22556593e7,43,Mężczyzna,2022-06-11_08h41.34.335,task,2021.1.4,MacIntel,58.82352941,6299f149e92ead563fba08ef,62a4471d1c2596ffa769b042,,,,,,,,,,,,,,,,,,,,,,,,,,,,,,,,,,,,,,,,,,,,,,,,,,,,,,,,gz,"[""g"",""z""]",0,"[0.8450000000000273,1.120999999999981,1.4540000000000077]",1,6,0,6,0,1,,,,,,,,,,,,,,,,,,,,,,,,,,,,,,,,,,,,
,,,,,,,,,,,,5f00dcdde2787b22556593e7,43,Mężczyzna,2022-06-11_08h41.34.335,task,2021.1.4,MacIntel,58.82352941,6299f149e92ead563fba08ef,62a4471d1c2596ffa769b042,,,,,,,,,,,,,6,,,,,,,,,,Practice,7,(25/5) + 1,6,,,,,,,,,,,,,,,,"[""6""]",1,[1.896000000000015],1,0,0,0,6,1,,,,,,,,,,,,,,,,,,,,,,,,,,,,,,,,,,,,,,,,,,,,,,,,,,,
,,,,,,,,,,,X V Q F H G B L J M P D K C T S W R N Z,5f00dcdde2787b22556593e7,43,Mężczyzna,2022-06-11_08h41.34.335,task,2021.1.4,MacIntel,58.82352941,6299f149e92ead563fba08ef,62a4471d1c2596ffa769b042,,,,,,,,,,,,,,,,,,,,,,,,,,,,,,,,,,,,,,,,,,,,,,,,,,,0,0,0,0,1,,,,,,,,,,,,,,,,,,,,,,,,,,,,,,,,,,,,,,,,,,,,,,
,,,,,,,,,,,,5f00dcdde2787b22556593e7,43,Mężczyzna,2022-06-11_08h41.34.335,task,2021.1.4,MacIntel,58.82352941,6299f149e92ead563fba08ef,62a4471d1c2596ffa769b042,,,,,,,,,,,,,9,,,,,,,,,,Practice,10,(20/2) - 1,9,,,,,,,,,,,,,,,,"[""9""]",1,[1.382000000000005],1,0,0,0,9,1,,,,,,,,,,,,,,,,,,,,,,,,,,,,,,,,,,,,,,,,,,,,,,,,,,,
,,,,,,,,,,,X V Q F H G B L J M P D K C T S W R N Z,5f00dcdde2787b22556593e7,43,Mężczyzna,2022-06-11_08h41.34.335,task,2021.1.4,MacIntel,58.82352941,6299f149e92ead563fba08ef,62a4471d1c2596ffa769b042,,,,,,,,,,,,,,,,,,,,,,,,,,,,,,,,,,,,,,,,,,,,,,,,,,,1,0,1,0,1,,,,,,,,,,,,,,,,,,,,,,,,,,,,,,,,,,,,,,,,,,,,,,
,,,,,,,,,,,,5f00dcdde2787b22556593e7,43,Mężczyzna,2022-06-11_08h41.34.335,task,2021.1.4,MacIntel,58.82352941,6299f149e92ead563fba08ef,62a4471d1c2596ffa769b042,,,,,,,,,,,,,,,,,,,,,,,,,,,,,,,,,,,,,,,,,,,,,,,,,,,,,,,,fz,"[""f"",""z""]",0,"[0.9320000000000164,1.225999999999999,1.552000000000021]",1,7,0,7,0,1,,,,,,,,,,,,,,,,,,,,,,,,,,,,,,,,,,,,
,,,,,,,,,,,,5f00dcdde2787b22556593e7,43,Mężczyzna,2022-06-11_08h41.34.335,task,2021.1.4,MacIntel,58.82352941,6299f149e92ead563fba08ef,62a4471d1c2596ffa769b042,,,,,,,,,,,,,4,,,,,,,,,,Practice,5,(2x6) - 8,4,,,,,,,,,,,,,,,,"[""4""]",1,[2.3549999999999613],1,0,0,0,4,1,,,,,,,,,,,,,,,,,,,,,,,,,,,,,,,,,,,,,,,,,,,,,,,,,,,
,,,,,,,,,,,X V Q F H G B L J M P D K C T S W R N Z,5f00dcdde2787b22556593e7,43,Mężczyzna,2022-06-11_08h41.34.335,task,2021.1.4,MacIntel,58.82352941,6299f149e92ead563fba08ef,62a4471d1c2596ffa769b042,,,,,,,,,,,,,,,,,,,,,,,,,,,,,,,,,,,,,,,,,,,,,,,,,,,0,0,0,0,1,,,,,,,,,,,,,,,,,,,,,,,,,,,,,,,,,,,,,,,,,,,,,,
,,,,,,,,,,,,5f00dcdde2787b22556593e7,43,Mężczyzna,2022-06-11_08h41.34.335,task,2021.1.4,MacIntel,58.82352941,6299f149e92ead563fba08ef,62a4471d1c2596ffa769b042,,,,,,,,,,,,,8,,,,,,,,,,Practice,9,(3x3) - 1,8,,,,,,,,,,,,,,,,"[""8""]",1,[1.981999999999971],1,0,0,0,8,1,,,,,,,,,,,,,,,,,,,,,,,,,,,,,,,,,,,,,,,,,,,,,,,,,,,
,,,,,,,,,,,X V Q F H G B L J M P D K C T S W R N Z,5f00dcdde2787b22556593e7,43,Mężczyzna,2022-06-11_08h41.34.335,task,2021.1.4,MacIntel,58.82352941,6299f149e92ead563fba08ef,62a4471d1c2596ffa769b042,,,,,,,,,,,,,,,,,,,,,,,,,,,,,,,,,,,,,,,,,,,,,,,,,,,1,0,1,0,1,,,,,,,,,,,,,,,,,,,,,,,,,,,,,,,,,,,,,,,,,,,,,,
,,,,,,,,,,,,5f00dcdde2787b22556593e7,43,Mężczyzna,2022-06-11_08h41.34.335,task,2021.1.4,MacIntel,58.82352941,6299f149e92ead563fba08ef,62a4471d1c2596ffa769b042,,,,,,,,,,,,,,,,,,,,,,,,,,,,,,,,,,,,,,,,,,,,,,,,,,,,,,,,mn,"[""m"",""n""]",0,"[1.6170000000000186,1.809000000000026,2.0849999999999795]",1,8,0,8,0,1,,,,,,,,,,,,,,,,,,,,,,,,,,,,,,,,,,,,
,,,,,,,,,,,,5f00dcdde2787b22556593e7,43,Mężczyzna,2022-06-11_08h41.34.335,task,2021.1.4,MacIntel,58.82352941,6299f149e92ead563fba08ef,62a4471d1c2596ffa769b042,,,,,,,,,,,,,7,,,,,,,,,,Task,31,(4/2) + 5,7,,,,,,,,,,,,,,,,,,,1,,,,,,,,,,,,,,,,,,,,,space,107.33,"[""7""]",1,[2.7299999999999613],0,0,0,30,1,,,,,,,,,,,,,,,,,,,,,,,,,,
,,,,,,,,,,,X V Q F H G B L J M P D K C T S W R N Z,5f00dcdde2787b22556593e7,43,Mężczyzna,2022-06-11_08h41.34.335,task,2021.1.4,MacIntel,58.82352941,6299f149e92ead563fba08ef,62a4471d1c2596ffa769b042,,,,,,,,,,,,,,,,,,,,,,,,,,,,,,,,,,,,,,,,,,,,,,,,,,,,,,,,,,,,,,,,,,,,,,,,,,,,0,0,0,0,1,,,,,,,,,,,,,,,,,,,,,
,,,,,,,,,,,,5f00dcdde2787b22556593e7,43,Mężczyzna,2022-06-11_08h41.34.335,task,2021.1.4,MacIntel,58.82352941,6299f149e92ead563fba08ef,62a4471d1c2596ffa769b042,,,,,,,,,,,,,6,,,,,,,,,,Task,5,(2x3) + 0,6,,,,,,,,,,,,,,,,,,,1,,,,,,,,,,,,,,,,,,,,,,,"[""6""]",1,[2.329999999999984],0,0,0,4,1,,,,,,,,,,,,,,,,,,,,,,,,,,
,,,,,,,,,,,X V Q F H G B L J M P D K C T S W R N Z,5f00dcdde2787b22556593e7,43,Mężczyzna,2022-06-11_08h41.34.335,task,2021.1.4,MacIntel,58.82352941,6299f149e92ead563fba08ef,62a4471d1c2596ffa769b042,,,,,,,,,,,,,,,,,,,,,,,,,,,,,,,,,,,,,,,,,,,,,,,,,,,,,,,,,,,,,,,,,,,,,,,,,,,,1,0,1,0,1,,,,,,,,,,,,,,,,,,,,,
,,,,,,,,,,,,5f00dcdde2787b22556593e7,43,Mężczyzna,2022-06-11_08h41.34.335,task,2021.1.4,MacIntel,58.82352941,6299f149e92ead563fba08ef,62a4471d1c2596ffa769b042,,,,,,,,,,,,,,,,,,,,,,,,,,,,,,,,,,,,,,,,,,,,,,,,,,,,,,,,,,,,,,,,,,,,,,,,,,,,,,,,,zw,"[""z"",""w""]",0,"[1.2509999999999764,1.5329999999999586,1.825999999999965]",1,ZW,0,0,0,0,1,,,,,,,,,,
,,,,,,,,,,,,5f00dcdde2787b22556593e7,43,Mężczyzna,2022-06-11_08h41.34.335,task,2021.1.4,MacIntel,58.82352941,6299f149e92ead563fba08ef,62a4471d1c2596ffa769b042,,,,,,,,,,,,,0,,,,,,,,,,Task,25,(10/5) - 2,0,,,,,,,,,,,,,,,,,,,1,,,,,,,,,,,,,,,,,,,,,,,"[""0""]",1,[3.031000000000006],0,0,0,24,1,,,,,,,,,,,,,,,,,,,,,,,,,,
,,,,,,,,,,,X V Q F H G B L J M P D K C T S W R N Z,5f00dcdde2787b22556593e7,43,Mężczyzna,2022-06-11_08h41.34.335,task,2021.1.4,MacIntel,58.82352941,6299f149e92ead563fba08ef,62a4471d1c2596ffa769b042,,,,,,,,,,,,,,,,,,,,,,,,,,,,,,,,,,,,,,,,,,,,,,,,,,,,,,,,,,,,,,,,,,,,,,,,,,,,0,0,0,0,1,,,,,,,,,,,,,,,,,,,,,
,,,,,,,,,,,,5f00dcdde2787b22556593e7,43,Mężczyzna,2022-06-11_08h41.34.335,task,2021.1.4,MacIntel,58.82352941,6299f149e92ead563fba08ef,62a4471d1c2596ffa769b042,,,,,,,,,,,,,1,,,,,,,,,,Task,1,(12/6) - 1,1,,,,,,,,,,,,,,,,,,,1,,,,,,,,,,,,,,,,,,,,,,,"[""1""]",1,[1.9629999999999654],0,0,0,0,1,,,,,,,,,,,,,,,,,,,,,,,,,,
,,,,,,,,,,,X V Q F H G B L J M P D K C T S W R N Z,5f00dcdde2787b22556593e7,43,Mężczyzna,2022-06-11_08h41.34.335,task,2021.1.4,MacIntel,58.82352941,6299f149e92ead563fba08ef,62a4471d1c2596ffa769b042,,,,,,,,,,,,,,,,,,,,,,,,,,,,,,,,,,,,,,,,,,,,,,,,,,,,,,,,,,,,,,,,,,,,,,,,,,,,1,0,1,0,1,,,,,,,,,,,,,,,,,,,,,
,,,,,,,,,,,,5f00dcdde2787b22556593e7,43,Mężczyzna,2022-06-11_08h41.34.335,task,2021.1.4,MacIntel,58.82352941,6299f149e92ead563fba08ef,62a4471d1c2596ffa769b042,,,,,,,,,,,,,2,,,,,,,,,,Task,2,(2x2) - 2,2,,,,,,,,,,,,,,,,,,,1,,,,,,,,,,,,,,,,,,,,,,,"[""2""]",1,[2.7340000000000373],0,0,0,1,1,,,,,,,,,,,,,,,,,,,,,,,,,,
,,,,,,,,,,,X V Q F H G B L J M P D K C T S W R N Z,5f00dcdde2787b22556593e7,43,Mężczyzna,2022-06-11_08h41.34.335,task,2021.1.4,MacIntel,58.82352941,6299f149e92ead563fba08ef,62a4471d1c2596ffa769b042,,,,,,,,,,,,,,,,,,,,,,,,,,,,,,,,,,,,,,,,,,,,,,,,,,,,,,,,,,,,,,,,,,,,,,,,,,,,2,0,2,0,1,,,,,,,,,,,,,,,,,,,,,
,,,,,,,,,,,,5f00dcdde2787b22556593e7,43,Mężczyzna,2022-06-11_08h41.34.335,task,2021.1.4,MacIntel,58.82352941,6299f149e92ead563fba08ef,62a4471d1c2596ffa769b042,,,,,,,,,,,,,,,,,,,,,,,,,,,,,,,,,,,,,,,,,,,,,,,,,,,,,,,,,,,,,,,,,,,,,,,,,,,,,,,,,gmj,"[""g"",""m"",""j""]",0,"[1.2999999999999545,1.6000000000000227,1.9009999999999536,2.244000000000028]",1,GMJ,1,0,1,0,1,,,,,,,,,,
,,,,,,,,,,,,5f00dcdde2787b22556593e7,43,Mężczyzna,2022-06-11_08h41.34.335,task,2021.1.4,MacIntel,58.82352941,6299f149e92ead563fba08ef,62a4471d1c2596ffa769b042,,,,,,,,,,,,,6,,,,,,,,,,Task,30,(6/3) + 4 ,6,,,,,,,,,,,,,,,,,,,1,,,,,,,,,,,,,,,,,,,,,,,"[""6""]",1,[2.1889999999999645],0,0,0,29,1,,,,,,,,,,,,,,,,,,,,,,,,,,
,,,,,,,,,,,X V Q F H G B L J M P D K C T S W R N Z,5f00dcdde2787b22556593e7,43,Mężczyzna,2022-06-11_08h41.34.335,task,2021.1.4,MacIntel,58.82352941,6299f149e92ead563fba08ef,62a4471d1c2596ffa769b042,,,,,,,,,,,,,,,,,,,,,,,,,,,,,,,,,,,,,,,,,,,,,,,,,,,,,,,,,,,,,,,,,,,,,,,,,,,,0,0,0,0,1,,,,,,,,,,,,,,,,,,,,,
,,,,,,,,,,,,5f00dcdde2787b22556593e7,43,Mężczyzna,2022-06-11_08h41.34.335,task,2021.1.4,MacIntel,58.82352941,6299f149e92ead563fba08ef,62a4471d1c2596ffa769b042,,,,,,,,,,,,,8,,,,,,,,,,Task,32,(8/2) + 4,8,,,,,,,,,,,,,,,,,,,1,,,,,,,,,,,,,,,,,,,,,,,"[""8""]",1,[3.617999999999938],0,0,0,31,1,,,,,,,,,,,,,,,,,,,,,,,,,,
,,,,,,,,,,,X V Q F H G B L J M P D K C T S W R N Z,5f00dcdde2787b22556593e7,43,Mężczyzna,2022-06-11_08h41.34.335,task,2021.1.4,MacIntel,58.82352941,6299f149e92ead563fba08ef,62a4471d1c2596ffa769b042,,,,,,,,,,,,,,,,,,,,,,,,,,,,,,,,,,,,,,,,,,,,,,,,,,,,,,,,,,,,,,,,,,,,,,,,,,,,1,0,1,0,1,,,,,,,,,,,,,,,,,,,,,
,,,,,,,,,,,,5f00dcdde2787b22556593e7,43,Mężczyzna,2022-06-11_08h41.34.335,task,2021.1.4,MacIntel,58.82352941,6299f149e92ead563fba08ef,62a4471d1c2596ffa769b042,,,,,,,,,,,,,4,,,,,,,,,,Task,21,(10/2) - 1,4,,,,,,,,,,,,,,,,,,,1,,,,,,,,,,,,,,,,,,,,,,,"[""4""]",1,[3.0710000000000264],0,0,0,20,1,,,,,,,,,,,,,,,,,,,,,,,,,,
,,,,,,,,,,,X V Q F H G B L J M P D K C T S W R N Z,5f00dcdde2787b22556593e7,43,Mężczyzna,2022-06-11_08h41.34.335,task,2021.1.4,MacIntel,58.82352941,6299f149e92ead563fba08ef,62a4471d1c2596ffa769b042,,,,,,,,,,,,,,,,,,,,,,,,,,,,,,,,,,,,,,,,,,,,,,,,,,,,,,,,,,,,,,,,,,,,,,,,,,,,2,0,2,0,1,,,,,,,,,,,,,,,,,,,,,
,,,,,,,,,,,,5f00dcdde2787b22556593e7,43,Mężczyzna,2022-06-11_08h41.34.335,task,2021.1.4,MacIntel,58.82352941,6299f149e92ead563fba08ef,62a4471d1c2596ffa769b042,,,,,,,,,,,,,,,,,,,,,,,Task,23,(2x3) + 2,8,,,,,,,,,,,,,,,,,,,0,,,,,,,,,,,,,,,,,,,,,,,,0,,0,0,0,22,1,,,,,,,,,,,,,,,,,,,,,,,,,,
,,,,,,,,,,,,5f00dcdde2787b22556593e7,43,Mężczyzna,2022-06-11_08h41.34.335,task,2021.1.4,MacIntel,58.82352941,6299f149e92ead563fba08ef,62a4471d1c2596ffa769b042,,,,,,,,,,,,,1,,,,,,,,,,Task,1,(12/6) - 1,1,,,,,,,,,,,,,,,,,,,1,,,,,,,,,,,,,,,,,,,,,,,"[""1""]",1,[2.895999999999958],0,1,1,0,1,,,,,,,,,,,,,,,,,,,,,,,,,,
,,,,,,,,,,,X V Q F H G B L J M P D K C T S W R N Z,5f00dcdde2787b22556593e7,43,Mężczyzna,2022-06-11_08h41.34.335,task,2021.1.4,MacIntel,58.82352941,6299f149e92ead563fba08ef,62a4471d1c2596ffa769b042,,,,,,,,,,,,,,,,,,,,,,,,,,,,,,,,,,,,,,,,,,,,,,,,,,,,,,,,,,,,,,,,,,,,,,,,,,,,3,0,3,0,1,,,,,,,,,,,,,,,,,,,,,
,,,,,,,,,,,,5f00dcdde2787b22556593e7,43,Mężczyzna,2022-06-11_08h41.34.335,task,2021.1.4,MacIntel,58.82352941,6299f149e92ead563fba08ef,62a4471d1c2596ffa769b042,,,,,,,,,,,,,,,,,,,,,,,,,,,,,,,,,,,,,,,,,,,,,,,,,,,,,,,,,,,,,,,,,,,,,,,,,,,,,,,,,gdth,"[""g"",""d"",""t"",""h""]",0,"[1.0499999999999545,1.6680000000000064,2.02699999999993,2.766999999999939,3.268000000000029]",0,MDTH,2,0,2,0,1,,,,,,,,,,
,,,,,,,,,,,,5f00dcdde2787b22556593e7,43,Mężczyzna,2022-06-11_08h41.34.335,task,2021.1.4,MacIntel,58.82352941,6299f149e92ead563fba08ef,62a4471d1c2596ffa769b042,,,,,,,,,,,,,,,,,,,,,,,Task,38,(4x6) - 17,7,,,,,,,,,,,,,,,,,,,0,,,,,,,,,,,,,,,,,,,,,,,,0,,0,0,0,37,1,,,,,,,,,,,,,,,,,,,,,,,,,,
,,,,,,,,,,,,5f00dcdde2787b22556593e7,43,Mężczyzna,2022-06-11_08h41.34.335,task,2021.1.4,MacIntel,58.82352941,6299f149e92ead563fba08ef,62a4471d1c2596ffa769b042,,,,,,,,,,,,,5,,,,,,,,,,Task,22,(3x1) + 2,5,,,,,,,,,,,,,,,,,,,1,,,,,,,,,,,,,,,,,,,,,,,"[""5""]",1,[3.0310000000000628],0,1,1,21,1,,,,,,,,,,,,,,,,,,,,,,,,,,
,,,,,,,,,,,X V Q F H G B L J M P D K C T S W R N Z,5f00dcdde2787b22556593e7,43,Mężczyzna,2022-06-11_08h41.34.335,task,2021.1.4,MacIntel,58.82352941,6299f149e92ead563fba08ef,62a4471d1c2596ffa769b042,,,,,,,,,,,,,,,,,,,,,,,,,,,,,,,,,,,,,,,,,,,,,,,,,,,,,,,,,,,,,,,,,,,,,,,,,,,,0,0,0,0,1,,,,,,,,,,,,,,,,,,,,,
,,,,,,,,,,,,5f00dcdde2787b22556593e7,43,Mężczyzna,2022-06-11_08h41.34.335,task,2021.1.4,MacIntel,58.82352941,6299f149e92ead563fba08ef,62a4471d1c2596ffa769b042,,,,,,,,,,,,,1,,,,,,,,,,Task,9,(3x7) - 20,1,,,,,,,,,,,,,,,,,,,1,,,,,,,,,,,,,,,,,,,,,,,"[""1""]",1,[3.453000000000088],0,0,0,8,1,,,,,,,,,,,,,,,,,,,,,,,,,,
,,,,,,,,,,,X V Q F H G B L J M P D K C T S W R N Z,5f00dcdde2787b22556593e7,43,Mężczyzna,2022-06-11_08h41.34.335,task,2021.1.4,MacIntel,58.82352941,6299f149e92ead563fba08ef,62a4471d1c2596ffa769b042,,,,,,,,,,,,,,,,,,,,,,,,,,,,,,,,,,,,,,,,,,,,,,,,,,,,,,,,,,,,,,,,,,,,,,,,,,,,1,0,1,0,1,,,,,,,,,,,,,,,,,,,,,
,,,,,,,,,,,,5f00dcdde2787b22556593e7,43,Mężczyzna,2022-06-11_08h41.34.335,task,2021.1.4,MacIntel,58.82352941,6299f149e92ead563fba08ef,62a4471d1c2596ffa769b042,,,,,,,,,,,,,1,,,,,,,,,,Task,34,(9/3) - 2,1,,,,,,,,,,,,,,,,,,,1,,,,,,,,,,,,,,,,,,,,,,,"[""1""]",1,[3.280999999999949],0,0,0,33,1,,,,,,,,,,,,,,,,,,,,,,,,,,
,,,,,,,,,,,X V Q F H G B L J M P D K C T S W R N Z,5f00dcdde2787b22556593e7,43,Mężczyzna,2022-06-11_08h41.34.335,task,2021.1.4,MacIntel,58.82352941,6299f149e92ead563fba08ef,62a4471d1c2596ffa769b042,,,,,,,,,,,,,,,,,,,,,,,,,,,,,,,,,,,,,,,,,,,,,,,,,,,,,,,,,,,,,,,,,,,,,,,,,,,,2,0,2,0,1,,,,,,,,,,,,,,,,,,,,,
,,,,,,,,,,,,5f00dcdde2787b22556593e7,43,Mężczyzna,2022-06-11_08h41.34.335,task,2021.1.4,MacIntel,58.82352941,6299f149e92ead563fba08ef,62a4471d1c2596ffa769b042,,,,,,,,,,,,,3,,,,,,,,,,Task,35,(1x2) + 1,3,,,,,,,,,,,,,,,,,,,1,,,,,,,,,,,,,,,,,,,,,,,"[""3""]",1,[3.3670000000000755],0,0,0,34,1,,,,,,,,,,,,,,,,,,,,,,,,,,
,,,,,,,,,,,X V Q F H G B L J M P D K C T S W R N Z,5f00dcdde2787b22556593e7,43,Mężczyzna,2022-06-11_08h41.34.335,task,2021.1.4,MacIntel,58.82352941,6299f149e92ead563fba08ef,62a4471d1c2596ffa769b042,,,,,,,,,,,,,,,,,,,,,,,,,,,,,,,,,,,,,,,,,,,,,,,,,,,,,,,,,,,,,,,,,,,,,,,,,,,,3,0,3,0,1,,,,,,,,,,,,,,,,,,,,,
,,,,,,,,,,,,5f00dcdde2787b22556593e7,43,Mężczyzna,2022-06-11_08h41.34.335,task,2021.1.4,MacIntel,58.82352941,6299f149e92ead563fba08ef,62a4471d1c2596ffa769b042,,,,,,,,,,,,,,,,,,,,,,,,,,,,,,,,,,,,,,,,,,,,,,,,,,,,,,,,,,,,,,,,,,,,,,,,,,,,,,,,,bmxs,"[""b"",""m"",""x"",""s""]",0,"[1.8179999999999836,2.451999999999998,3.5670000000000073,3.8740000000000236,4.3279999999999745]",0,BLXS,3,0,3,0,1,,,,,,,,,,
,,,,,,,,,,,,5f00dcdde2787b22556593e7,43,Mężczyzna,2022-06-11_08h41.34.335,task,2021.1.4,MacIntel,58.82352941,6299f149e92ead563fba08ef,62a4471d1c2596ffa769b042,,,,,,,,,,,,,,,,,,,,,,,,,,,,,,,,,,,,,,,,,,,,,,,,,,,,,,,,,,,,,,,,,,,,,,,,,,,,,,,,,,,,,,,,,,,,"[""comma""]",0,[1.5120000000000573],0,0,0,0,1,,
,,,,,,,,,,,,5f00dcdde2787b22556593e7,43,Mężczyzna,2022-06-11_08h41.34.335,task,2021.1.4,MacIntel,58.82352941,6299f149e92ead563fba08ef,62a4471d1c2596ffa769b042,,,,,,,,,,,,,,,,,,,,,,,,,,,,,,,,,,,,,,,,,,,,,,,,,,,,,,,,,,,,,,,,,,,,,,,,,,,,,,,,,,,,,,,,,,,,,0,,1,0,1,0,1,,
,,,,,,,,,,,,5f00dcdde2787b22556593e7,43,Mężczyzna,2022-06-11_08h41.34.335,task,2021.1.4,MacIntel,58.82352941,6299f149e92ead563fba08ef,62a4471d1c2596ffa769b042,,,,,,,,,,,,,,,,,,,,,,,,,,,,,,,,,,,,,,,,,,,,,,,,,,,,,,,,,,,,,,,,,,,,,,,,,,,,,,,,,,,,,,,,,,,,"[""comma""]",0,[0.11799999999993815],2,0,2,0,1,,
,,,,,,,,,,,,5f00dcdde2787b22556593e7,43,Mężczyzna,2022-06-11_08h41.34.335,task,2021.1.4,MacIntel,58.82352941,6299f149e92ead563fba08ef,62a4471d1c2596ffa769b042,,,,,,,,,,,,,,,,,,,,,,,,,,,,,,,,,,,,,,,,,,,,,,,,,,,,,,,,,,,,,,,,,,,,,,,,,,,,,,,,,,,,,,,,,,,,"[""period""]",0,[0.2319999999999709],3,0,3,0,1,,
,,,,,,,,,,,,5f00dcdde2787b22556593e7,43,Mężczyzna,2022-06-11_08h41.34.335,task,2021.1.4,MacIntel,58.82352941,6299f149e92ead563fba08ef,62a4471d1c2596ffa769b042,,,,,,,,,,,,,,,,,,,,,,,,,,,,,,,,,,,,,,,,,,,,,,,,,,,,,,,,,,,,,,,,,,,,,,,,,,,,,,,,,,,,,,,,,,,,"[""comma"",""period""]",0,"[0.18899999999996453,1.9510000000000218]",4,0,4,0,1,,
,,,,,,,,,,,,5f00dcdde2787b22556593e7,43,Mężczyzna,2022-06-11_08h41.34.335,task,2021.1.4,MacIntel,58.82352941,6299f149e92ead563fba08ef,62a4471d1c2596ffa769b042,,,,,,,,,,,,,,,,,,,,,,,,,,,,,,,,,,,,,,,,,,,,,,,,,,,,,,,,,,,,,,,,,,,,,,,,,,,,,,,,,,,,,,,,,,,,"[""period""]",0,[1.92999999999995],5,0,5,0,1,,
,,,,,,,,,,,,5f00dcdde2787b22556593e7,43,Mężczyzna,2022-06-11_08h41.34.335,task,2021.1.4,MacIntel,58.82352941,6299f149e92ead563fba08ef,62a4471d1c2596ffa769b042,,,,,,,,,,,,,,,,,,,,,,,,,,,,,,,,,,,,,,,,,,,,,,,,,,,,,,,,,,,,,,,,,,,,,,,,,,,,,,,,,,,,,,,,,,,,"[""period""]",0,[1.8999999999999773],6,0,6,0,1,,
,,,,,,,,,,,,5f00dcdde2787b22556593e7,43,Mężczyzna,2022-06-11_08h41.34.335,task,2021.1.4,MacIntel,58.82352941,6299f149e92ead563fba08ef,62a4471d1c2596ffa769b042,,,,,,,,,,,,,,,,,,,,,,,,,,,,,,,,,,,,,,,,,,,,,,,,,,,,,,,,,,,,,,,,,,,,,,,,,,,,,,,,,,,,,,,,,,,,"[""comma""]",0,[1.9600000000000364],7,0,7,0,1,,
,,,,,,,,,,,,5f00dcdde2787b22556593e7,43,Mężczyzna,2022-06-11_08h41.34.335,task,2021.1.4,MacIntel,58.82352941,6299f149e92ead563fba08ef,62a4471d1c2596ffa769b042,,,,,,,,,,,,,,,,,,,,,,,,,,,,,,,,,,,,,,,,,,,,,,,,,,,,,,,,,,,,,,,,,,,,,,,,,,,,,,,,,,,,,,,,,,,,"[""period""]",0,[1.7870000000000346],8,0,8,0,1,,
,,,,,,,,,,,,5f00dcdde2787b22556593e7,43,Mężczyzna,2022-06-11_08h41.34.335,task,2021.1.4,MacIntel,58.82352941,6299f149e92ead563fba08ef,62a4471d1c2596ffa769b042,,,,,,,,,,,,,,,,,,,,,,,,,,,,,,,,,,,,,,,,,,,,,,,,,,,,,,,,,,,,,,,,,,,,,,,,,,,,,,,,,,,,,,,,,,,,"[""comma""]",0,[1.6689999999999827],9,0,9,0,1,,
,,,,,,,,,,,,5f00dcdde2787b22556593e7,43,Mężczyzna,2022-06-11_08h41.34.335,task,2021.1.4,MacIntel,58.82352941,6299f149e92ead563fba08ef,62a4471d1c2596ffa769b042,,,,,,,,,,,,,,,,,,,,,,,,,,,,,,,,,,,,,,,,,,,,,,,,,,,,,,,,,,,,,,,,,,,,,,,,,,,,,,,,,,,,,,,,,,,,"[""period""]",0,[1.65300000000002],10,0,10,0,1,,
,,,,,,,,,,,,5f00dcdde2787b22556593e7,43,Mężczyzna,2022-06-11_08h41.34.335,task,2021.1.4,MacIntel,58.82352941,6299f149e92ead563fba08ef,62a4471d1c2596ffa769b042,,,,,,,,,,,,,,,,,,,,,,,,,,,,,,,,,,,,,,,,,,,,,,,,,,,,,,,,,,,,,,,,,,,,,,,,,,,,,,,,,,,,,,,,,,,,,0,,11,0,11,0,1,,
,,,,,,,,,,,,5f00dcdde2787b22556593e7,43,Mężczyzna,2022-06-11_08h41.34.335,task,2021.1.4,MacIntel,58.82352941,6299f149e92ead563fba08ef,62a4471d1c2596ffa769b042,,,,,,,,,,,,,,,,,,,,,,,,,,,,,,,,,,,,,,,,,,,,,,,,,,,,,,,,,,,,,,,,,,,,,,,,,,,,,,,,,,,,,,,,,,,,"[""period""]",0,[0.23699999999996635],12,0,12,0,1,,
,,,,,,,,,,,,5f00dcdde2787b22556593e7,43,Mężczyzna,2022-06-11_08h41.34.335,task,2021.1.4,MacIntel,58.82352941,6299f149e92ead563fba08ef,62a4471d1c2596ffa769b042,,,,,,,,,,,,,,,,,,,,,,,,,,,,,,,,,,,,,,,,,,,,,,,,,,,,,,,,,,,,,,,,,,,,,,,,,,,,,,,,,,,,,,,,,,,,"[""comma"",""period""]",0,"[0.26099999999996726,1.9729999999999563]",13,0,13,0,1,,
,,,,,,,,,,,,5f00dcdde2787b22556593e7,43,Mężczyzna,2022-06-11_08h41.34.335,task,2021.1.4,MacIntel,58.82352941,6299f149e92ead563fba08ef,62a4471d1c2596ffa769b042,,,,,,,,,,,,,,,,,,,,,,,,,,,,,,,,,,,,,,,,,,,,,,,,,,,,,,,,,,,,,,,,,,,,,,,,,,,,,,,,,,,,,,,,,,,,"[""comma""]",0,[1.5529999999999973],14,0,14,0,1,,
,,,,,,,,,,,,5f00dcdde2787b22556593e7,43,Mężczyzna,2022-06-11_08h41.34.335,task,2021.1.4,MacIntel,58.82352941,6299f149e92ead563fba08ef,62a4471d1c2596ffa769b042,,,,,,,,,,,,,,,,,,,,,,,,,,,,,,,,,,,,,,,,,,,,,,,,,,,,,,,,,,,,,,,,,,,,,,,,,,,,,,,,,,,,,,,,,,,,,0,,15,0,15,0,1,,
,,,,,,,,,,,,5f00dcdde2787b22556593e7,43,Mężczyzna,2022-06-11_08h41.34.335,task,2021.1.4,MacIntel,58.82352941,6299f149e92ead563fba08ef,62a4471d1c2596ffa769b042,,,,,,,,,,,,,,,,,,,,,,,,,,,,,,,,,,,,,,,,,,,,,,,,,,,,,,,,,,,,,,,,,,,,,,,,,,,,,,,,,,,,,,,,,,,,"[""comma"",""comma""]",0,"[0.1190000000000282,1.5500000000000682]",16,0,16,0,1,,
,,,,,,,,,,,,5f00dcdde2787b22556593e7,43,Mężczyzna,2022-06-11_08h41.34.335,task,2021.1.4,MacIntel,58.82352941,6299f149e92ead563fba08ef,62a4471d1c2596ffa769b042,,,,,,,,,,,,,,,,,,,,,,,,,,,,,,,,,,,,,,,,,,,,,,,,,,,,,,,,,,,,,,,,,,,,,,,,,,,,,,,,,,,,,,,,,,,,"[""period""]",0,[1.56899999999996],17,0,17,0,1,,
,,,,,,,,,,,,5f00dcdde2787b22556593e7,43,Mężczyzna,2022-06-11_08h41.34.335,task,2021.1.4,MacIntel,58.82352941,6299f149e92ead563fba08ef,62a4471d1c2596ffa769b042,,,,,,,,,,,,,,,,,,,,,,,,,,,,,,,,,,,,,,,,,,,,,,,,,,,,,,,,,,,,,,,,,,,,,,,,,,,,,,,,,,,,,,,,,,,,,0,,18,0,18,0,1,,
,,,,,,,,,,,,5f00dcdde2787b22556593e7,43,Mężczyzna,2022-06-11_08h41.34.335,task,2021.1.4,MacIntel,58.82352941,6299f149e92ead563fba08ef,62a4471d1c2596ffa769b042,,,,,,,,,,,,,,,,,,,,,,,,,,,,,,,,,,,,,,,,,,,,,,,,,,,,,,,,,,,,,,,,,,,,,,,,,,,,,,,,,,,,,,,,,,,,"[""period""]",0,[0.07999999999992724],19,0,19,0,1,,
,,,,,,,,,,,,5f00dcdde2787b22556593e7,43,Mężczyzna,2022-06-11_08h41.34.335,task,2021.1.4,MacIntel,58.82352941,6299f149e92ead563fba08ef,62a4471d1c2596ffa769b042,,,,,,,,,,,,,,,,,,,,,,,,,,,,,,,,,,,,,,,,,,,,,,,,,,,,,,,,,,,,,,,,,,,,,,,,,,,,,,,,,,,,,,,,,,,,"[""comma""]",0,[0.23299999999994725],20,0,20,0,1,,
,,,,,,,,,,,,5f00dcdde2787b22556593e7,43,Mężczyzna,2022-06-11_08h41.34.335,task,2021.1.4,MacIntel,58.82352941,6299f149e92ead563fba08ef,62a4471d1c2596ffa769b042,,,,,,,,,,,,,,,,,,,,,,,,,,,,,,,,,,,,,,,,,,,,,,,,,,,,,,,,,,,,,,,,,,,,,,,,,,,,,,,,,,,,,,,,,,,,"[""comma"",""period""]",0,"[0.0989999999999327,1.6989999999999554]",21,0,21,0,1,,
,,,,,,,,,,,,5f00dcdde2787b22556593e7,43,Mężczyzna,2022-06-11_08h41.34.335,task,2021.1.4,MacIntel,58.82352941,6299f149e92ead563fba08ef,62a4471d1c2596ffa769b042,,,,,,,,,,,,,,,,,,,,,,,,,,,,,,,,,,,,,,,,,,,,,,,,,,,,,,,,,,,,,,,,,,,,,,,,,,,,,,,,,,,,,,,,,,,,"[""comma""]",0,[1.7829999999999018],22,0,22,0,1,,
,,,,,,,,,,,,5f00dcdde2787b22556593e7,43,Mężczyzna,2022-06-11_08h41.34.335,task,2021.1.4,MacIntel,58.82352941,6299f149e92ead563fba08ef,62a4471d1c2596ffa769b042,,,,,,,,,,,,,,,,,,,,,,,,,,,,,,,,,,,,,,,,,,,,,,,,,,,,,,,,,,,,,,,,,,,,,,,,,,,,,,,,,,,,,,,,,,,,,0,,23,0,23,0,1,,
,,,,,,,,,,,,5f00dcdde2787b22556593e7,43,Mężczyzna,2022-06-11_08h41.34.335,task,2021.1.4,MacIntel,58.82352941,6299f149e92ead563fba08ef,62a4471d1c2596ffa769b042,,,,,,,,,,,,,,,,,,,,,,,,,,,,,,,,,,,,,,,,,,,,,,,,,,,,,,,,,,,,,,,,,,,,,,,,,,,,,,,,,,,,,,,,,,,,"[""comma""]",0,[0.18599999999992178],24,0,24,0,1,,
,,,,,,,,,,,,5f00dcdde2787b22556593e7,43,Mężczyzna,2022-06-11_08h41.34.335,task,2021.1.4,MacIntel,58.82352941,6299f149e92ead563fba08ef,62a4471d1c2596ffa769b042,,,,,,,,,,,,,,,,,,,,,,,,,,,,,,,,,,,,,,,,,,,,,,,,,,,,,,,,,,,,,,,,,,,,,,,,,,,,,,,,,,,,,,,,,,,,"[""comma"",""period""]",0,"[0.024999999999977263,1.8689999999999145]",25,0,25,0,1,,
,,,,,,,,,,,,5f00dcdde2787b22556593e7,43,Mężczyzna,2022-06-11_08h41.34.335,task,2021.1.4,MacIntel,58.82352941,6299f149e92ead563fba08ef,62a4471d1c2596ffa769b042,,,,,,,,,,,,,,,,,,,,,,,,,,,,,,,,,,,,,,,,,,,,,,,,,,,,,,,,,,,,,,,,,,,,,,,,,,,,,,,,,,,,,,,,,,,,"[""period""]",0,[1.919999999999959],26,0,26,0,1,,
,,,,,,,,,,,,5f00dcdde2787b22556593e7,43,Mężczyzna,2022-06-11_08h41.34.335,task,2021.1.4,MacIntel,58.82352941,6299f149e92ead563fba08ef,62a4471d1c2596ffa769b042,,,,,,,,,,,,,,,,,,,,,,,,,,,,,,,,,,,,,,,,,,,,,,,,,,,,,,,,,,,,,,,,,,,,,,,,,,,,,,,,,,,,,,,,,,,,"[""comma""]",0,[1.6509999999999536],27,0,27,0,1,,
,,,,,,,,,,,,5f00dcdde2787b22556593e7,43,Mężczyzna,2022-06-11_08h41.34.335,task,2021.1.4,MacIntel,58.82352941,6299f149e92ead563fba08ef,62a4471d1c2596ffa769b042,,,,,,,,,,,,,,,,,,,,,,,,,,,,,,,,,,,,,,,,,,,,,,,,,,,,,,,,,,,,,,,,,,,,,,,,,,,,,,,,,,,,,,,,,,,,"[""period""]",0,[1.9029999999999063],28,0,28,0,1,,
,,,,,,,,,,,,5f00dcdde2787b22556593e7,43,Mężczyzna,2022-06-11_08h41.34.335,task,2021.1.4,MacIntel,58.82352941,6299f149e92ead563fba08ef,62a4471d1c2596ffa769b042,,,,,,,,,,,,,,,,,,,,,,,,,,,,,,,,,,,,,,,,,,,,,,,,,,,,,,,,,,,,,,,,,,,,,,,,,,,,,,,,,,,,,,,,,,,,"[""period""]",0,[1.8669999999999618],29,0,29,0,1,,
,,,,,,,,,,,,5f00dcdde2787b22556593e7,43,Mężczyzna,2022-06-11_08h41.34.335,task,2021.1.4,MacIntel,58.82352941,6299f149e92ead563fba08ef,62a4471d1c2596ffa769b042,,,,,,,,,,,,,,,,,,,,,,,,,,,,,,,,,,,,,,,,,,,,,,,,,,,,,,,,,,,,,,,,,,,,,,,,,,,,,,,,,,,,,,,,,,,,,0,,30,0,30,0,1,,
,,,,,,,,,,,,5f00dcdde2787b22556593e7,43,Mężczyzna,2022-06-11_08h41.34.335,task,2021.1.4,MacIntel,58.82352941,6299f149e92ead563fba08ef,62a4471d1c2596ffa769b042,,,,,,,,,,,,,,,,,,,,,,,,,,,,,,,,,,,,,,,,,,,,,,,,,,,,,,,,,,,,,,,,,,,,,,,,,,,,,,,,,,,,,,,,,,,,"[""period"",""comma""]",0,"[0.09199999999998454,1.9560000000000173]",31,0,31,0,1,,
,,,,,,,,,,,,5f00dcdde2787b22556593e7,43,Mężczyzna,2022-06-11_08h41.34.335,task,2021.1.4,MacIntel,58.82352941,6299f149e92ead563fba08ef,62a4471d1c2596ffa769b042,,,,,,,,,,,,,,,,,,,,,,,,,,,,,,,,,,,,,,,,,,,,,,,,,,,,,,,,,,,,,,,,,,,,,,,,,,,,,,,,,,,,,,,,,,,,"[""comma""]",0,[1.9139999999999873],32,0,32,0,1,,
,,,,,,,,,,,,5f00dcdde2787b22556593e7,43,Mężczyzna,2022-06-11_08h41.34.335,task,2021.1.4,MacIntel,58.82352941,6299f149e92ead563fba08ef,62a4471d1c2596ffa769b042,,,,,,,,,,,,,,,,,,,,,,,,,,,,,,,,,,,,,,,,,,,,,,,,,,,,,,,,,,,,,,,,,,,,,,,,,,,,,,,,,,,,,,,,,,,,,0,,33,0,33,0,1,,
,,,,,,,,,,,,5f00dcdde2787b22556593e7,43,Mężczyzna,2022-06-11_08h41.34.335,task,2021.1.4,MacIntel,58.82352941,6299f149e92ead563fba08ef,62a4471d1c2596ffa769b042,,,,,,,,,,,,,,,,,,,,,,,,,,,,,,,,,,,,,,,,,,,,,,,,,,,,,,,,,,,,,,,,,,,,,,,,,,,,,,,,,,,,,,,,,,,,"[""period""]",0,[0.27300000000002456],34,0,34,0,1,,
,,,,,,,,,,,,5f00dcdde2787b22556593e7,43,Mężczyzna,2022-06-11_08h41.34.335,task,2021.1.4,MacIntel,58.82352941,6299f149e92ead563fba08ef,62a4471d1c2596ffa769b042,,,,,,,,,,,,,,,,,,,,,,,,,,,,,,,,,,,,,,,,,,,,,,,,,,,,,,,,,,,,,,,,,,,,,,,,,,,,,,,,,,,,,,,,,,,,"[""comma""]",0,[0.2259999999999991],35,0,35,0,1,,
,,,,,,,,,,,,5f00dcdde2787b22556593e7,43,Mężczyzna,2022-06-11_08h41.34.335,task,2021.1.4,MacIntel,58.82352941,6299f149e92ead563fba08ef,62a4471d1c2596ffa769b042,,,,,,,,,,,,,,,,,,,,,,,,,,,,,,,,,,,,,,,,,,,,,,,,,,,,,,,,,,,,,,,,,,,,,,,,,,,,,,,,,,,,,,,,,,,,"[""comma""]",0,[0.2259999999999991],36,0,36,0,1,,
,,,,,,,,,,,,5f00dcdde2787b22556593e7,43,Mężczyzna,2022-06-11_08h41.34.335,task,2021.1.4,MacIntel,58.82352941,6299f149e92ead563fba08ef,62a4471d1c2596ffa769b042,,,,,,,,,,,,,,,,,,,,,,,,,,,,,,,,,,,,,,,,,,,,,,,,,,,,,,,,,,,,,,,,,,,,,,,,,,,,,,,,,,,,,,,,,,,,"[""comma""]",0,[0.22000000000002728],37,0,37,0,1,,
,,,,,,,,,,,,5f00dcdde2787b22556593e7,43,Mężczyzna,2022-06-11_08h41.34.335,task,2021.1.4,MacIntel,58.82352941,6299f149e92ead563fba08ef,62a4471d1c2596ffa769b042,,,,,,,,,,,,,,,,,,,,,,,,,,,,,,,,,,,,,,,,,,,,,,,,,,,,,,,,,,,,,,,,,,,,,,,,,,,,,,,,,,,,,,,,,,,,"[""comma""]",0,[0.20600000000001728],38,0,38,0,1,,
,,,,,,,,,,,,5f00dcdde2787b22556593e7,43,Mężczyzna,2022-06-11_08h41.34.335,task,2021.1.4,MacIntel,58.82352941,6299f149e92ead563fba08ef,62a4471d1c2596ffa769b042,,,,,,,,,,,,,,,,,,,,,,,,,,,,,,,,,,,,,,,,,,,,,,,,,,,,,,,,,,,,,,,,,,,,,,,,,,,,,,,,,,,,,,,,,,,,"[""period""]",0,[-0.009999999999990905],39,0,39,0,1,,
,,,,,,,,,,,,5f00dcdde2787b22556593e7,43,Mężczyzna,2022-06-11_08h41.34.335,task,2021.1.4,MacIntel,58.82352941,6299f149e92ead563fba08ef,62a4471d1c2596ffa769b042,,,,,,,,,,,,,,,,,,,,,,,,,,,,,,,,,,,,,,,,,,,,,,,,,,,,,,,,,,,,,,,,,,,,,,,,,,,,,,,,,,,,,,,,,,,,"[""comma""]",0,[0.3020000000000209],40,0,40,0,1,,
,,,,,,,,,,,,5f00dcdde2787b22556593e7,43,Mężczyzna,2022-06-11_08h41.34.335,task,2021.1.4,MacIntel,58.82352941,6299f149e92ead563fba08ef,62a4471d1c2596ffa769b042,,,,,,,,,,,,,,,,,,,,,,,,,,,,,,,,,,,,,,,,,,,,,,,,,,,,,,,,,,,,,,,,,,,,,,,,,,,,,,,,,,,,,,,,,,,,"[""period"",""period""]",0,"[0.20699999999999363,1.9500000000000455]",41,0,41,0,1,,
,,,,,,,,,,,,5f00dcdde2787b22556593e7,43,Mężczyzna,2022-06-11_08h41.34.335,task,2021.1.4,MacIntel,58.82352941,6299f149e92ead563fba08ef,62a4471d1c2596ffa769b042,,,,,,,,,,,,,,,,,,,,,,,,,,,,,,,,,,,,,,,,,,,,,,,,,,,,,,,,,,,,,,,,,,,,,,,,,,,,,,,,,,,,,,,,,,,,,0,,42,0,42,0,1,,
,,,,,,,,,,,,5f00dcdde2787b22556593e7,43,Mężczyzna,2022-06-11_08h41.34.335,task,2021.1.4,MacIntel,58.82352941,6299f149e92ead563fba08ef,62a4471d1c2596ffa769b042,,,,,,,,,,,,,,,,,,,,,,,,,,,,,,,,,,,,,,,,,,,,,,,,,,,,,,,,,,,,,,,,,,,,,,,,,,,,,,,,,,,,,,,,,,,,"[""period"",""comma""]",0,"[0.1069999999999709,1.8700000000000045]",43,0,43,0,1,,
,,,,,,,,,,,,5f00dcdde2787b22556593e7,43,Mężczyzna,2022-06-11_08h41.34.335,task,2021.1.4,MacIntel,58.82352941,6299f149e92ead563fba08ef,62a4471d1c2596ffa769b042,,,,,,,,,,,,,,,,,,,,,,,,,,,,,,,,,,,,,,,,,,,,,,,,,,,,,,,,,,,,,,,,,,,,,,,,,,,,,,,,,,,,,,,,,,,,,0,,44,0,44,0,1,,
,,,,,,,,,,,,5f00dcdde2787b22556593e7,43,Mężczyzna,2022-06-11_08h41.34.335,task,2021.1.4,MacIntel,58.82352941,6299f149e92ead563fba08ef,62a4471d1c2596ffa769b042,,,,,,,,,,,,,,,,,,,,,,,,,,,,,,,,,,,,,,,,,,,,,,,,,,,,,,,,,,,,,,,,,,,,,,,,,,,,,,,,,,,,,,,,,,,,"[""comma""]",0,[0.36000000000001364],45,0,45,0,1,,
,,,,,,,,,,,,5f00dcdde2787b22556593e7,43,Mężczyzna,2022-06-11_08h41.34.335,task,2021.1.4,MacIntel,58.82352941,6299f149e92ead563fba08ef,62a4471d1c2596ffa769b042,,,,,,,,,,,,,,,,,,,,,,,,,,,,,,,,,,,,,,,,,,,,,,,,,,,,,,,,,,,,,,,,,,,,,,,,,,,,,,,,,,,,,,,,,,,,"[""period""]",0,[0.34400000000005093],46,0,46,0,1,,
,,,,,,,,,,,,5f00dcdde2787b22556593e7,43,Mężczyzna,2022-06-11_08h41.34.335,task,2021.1.4,MacIntel,58.82352941,6299f149e92ead563fba08ef,62a4471d1c2596ffa769b042,,,,,,,,,,,,,,,,,,,,,,,,,,,,,,,,,,,,,,,,,,,,,,,,,,,,,,,,,,,,,,,,,,,,,,,,,,,,,,,,,,,,,,,,,,,,"[""comma""]",0,[0.22000000000002728],47,0,47,0,1,,
,,,,,,,,,,,,5f00dcdde2787b22556593e7,43,Mężczyzna,2022-06-11_08h41.34.335,task,2021.1.4,MacIntel,58.82352941,6299f149e92ead563fba08ef,62a4471d1c2596ffa769b042,,,,,,,,,,,,,,,,,,,,,,,,,,,,,,,,,,,,,,,,,,,,,,,,,,,,,,,,,,,,,,,,,,,,,,,,,,,,,,,,,,,,,,,,,,,,"[""comma""]",0,[0.2540000000000191],48,0,48,0,1,,
,,,,,,,,,,,,5f00dcdde2787b22556593e7,43,Mężczyzna,2022-06-11_08h41.34.335,task,2021.1.4,MacIntel,58.82352941,6299f149e92ead563fba08ef,62a4471d1c2596ffa769b042,,,,,,,,,,,,,,,,,,,,,,,,,,,,,,,,,,,,,,,,,,,,,,,,,,,,,,,,,,,,,,,,,,,,,,,,,,,,,,,,,,,,,,,,,,,,"[""comma""]",0,[0.004000000000019099],49,0,49,0,1,,
,,,,,,,,,,,,5f00dcdde2787b22556593e7,43,Mężczyzna,2022-06-11_08h41.34.335,task,2021.1.4,MacIntel,58.82352941,6299f149e92ead563fba08ef,62a4471d1c2596ffa769b042,,,,,,,,,,,,,,,,,,,,,,,,,,,,,,,,,,,,,,,,,,,,,,,,,,,,,,,,,,,,,,,,,,,,,,,,,,,,,,,,,,,,,,,,,,,,"[""comma"",""period""]",0,"[0.20199999999999818,1.9420000000000073]",50,0,50,0,1,,
,,,,,,,,,,,,5f00dcdde2787b22556593e7,43,Mężczyzna,2022-06-11_08h41.34.335,task,2021.1.4,MacIntel,58.82352941,6299f149e92ead563fba08ef,62a4471d1c2596ffa769b042,,,,,,,,,,,,,,,,,,,,,,,,,,,,,,,,,,,,,,,,,,,,,,,,,,,,,,,,,,,,,,,,,,,,,,,,,,,,,,,,,,,,,,,,,,,,,0,,51,0,51,0,1,,
,,,,,,,,,,,,5f00dcdde2787b22556593e7,43,Mężczyzna,2022-06-11_08h41.34.335,task,2021.1.4,MacIntel,58.82352941,6299f149e92ead563fba08ef,62a4471d1c2596ffa769b042,,,,,,,,,,,,,,,,,,,,,,,,,,,,,,,,,,,,,,,,,,,,,,,,,,,,,,,,,,,,,,,,,,,,,,,,,,,,,,,,,,,,,,,,,,,,"[""comma""]",0,[0.4759999999999991],52,0,52,0,1,,
,,,,,,,,,,,,5f00dcdde2787b22556593e7,43,Mężczyzna,2022-06-11_08h41.34.335,task,2021.1.4,MacIntel,58.82352941,6299f149e92ead563fba08ef,62a4471d1c2596ffa769b042,,,,,,,,,,,,,,,,,,,,,,,,,,,,,,,,,,,,,,,,,,,,,,,,,,,,,,,,,,,,,,,,,,,,,,,,,,,,,,,,,,,,,,,,,,,,"[""period""]",0,[0.23299999999994725],53,0,53,0,1,,
,,,,,,,,,,,,5f00dcdde2787b22556593e7,43,Mężczyzna,2022-06-11_08h41.34.335,task,2021.1.4,MacIntel,58.82352941,6299f149e92ead563fba08ef,62a4471d1c2596ffa769b042,,,,,,,,,,,,,,,,,,,,,,,,,,,,,,,,,,,,,,,,,,,,,,,,,,,,,,,,,,,,,,,,,,,,,,,,,,,,,,,,,,,,,,,,,,,,"[""period""]",0,[0.08600000000001273],54,0,54,0,1,,
,,,,,,,,,,,,5f00dcdde2787b22556593e7,43,Mężczyzna,2022-06-11_08h41.34.335,task,2021.1.4,MacIntel,58.82352941,6299f149e92ead563fba08ef,62a4471d1c2596ffa769b042,,,,,,,,,,,,,,,,,,,,,,,,,,,,,,,,,,,,,,,,,,,,,,,,,,,,,,,,,,,,,,,,,,,,,,,,,,,,,,,,,,,,,,,,,,,,"[""comma""]",0,[0.20400000000006457],55,0,55,0,1,,
,,,,,,,,,,,,5f00dcdde2787b22556593e7,43,Mężczyzna,2022-06-11_08h41.34.335,task,2021.1.4,MacIntel,58.82352941,6299f149e92ead563fba08ef,62a4471d1c2596ffa769b042,,,,,,,,,,,,,,,,,,,,,,,,,,,,,,,,,,,,,,,,,,,,,,,,,,,,,,,,,,,,,,,,,,,,,,,,,,,,,,,,,,,,,,,,,,,,"[""period""]",0,[0.15099999999995362],56,0,56,0,1,,
,,,,,,,,,,,,5f00dcdde2787b22556593e7,43,Mężczyzna,2022-06-11_08h41.34.335,task,2021.1.4,MacIntel,58.82352941,6299f149e92ead563fba08ef,62a4471d1c2596ffa769b042,,,,,,,,,,,,,,,,,,,,,,,,,,,,,,,,,,,,,,,,,,,,,,,,,,,,,,,,,,,,,,,,,,,,,,,,,,,,,,,,,,,,,,,,,,,,"[""period""]",0,[0.24299999999993815],57,0,57,0,1,,
,,,,,,,,,,,,5f00dcdde2787b22556593e7,43,Mężczyzna,2022-06-11_08h41.34.335,task,2021.1.4,MacIntel,58.82352941,6299f149e92ead563fba08ef,62a4471d1c2596ffa769b042,,,,,,,,,,,,,,,,,,,,,,,,,,,,,,,,,,,,,,,,,,,,,,,,,,,,,,,,,,,,,,,,,,,,,,,,,,,,,,,,,,,,,,,,,,,,"[""comma"",""period""]",0,"[0.1999999999999318,1.9729999999999563]",58,0,58,0,1,,
,,,,,,,,,,,,5f00dcdde2787b22556593e7,43,Mężczyzna,2022-06-11_08h41.34.335,task,2021.1.4,MacIntel,58.82352941,6299f149e92ead563fba08ef,62a4471d1c2596ffa769b042,,,,,,,,,,,,,,,,,,,,,,,,,,,,,,,,,,,,,,,,,,,,,,,,,,,,,,,,,,,,,,,,,,,,,,,,,,,,,,,,,,,,,,,,,,,,,0,,59,0,59,0,1,,
,,,,,,,,,,,,5f00dcdde2787b22556593e7,43,Mężczyzna,2022-06-11_08h41.34.335,task,2021.1.4,MacIntel,58.82352941,6299f149e92ead563fba08ef,62a4471d1c2596ffa769b042,,,,,,,,,,,,,,,,,,,,,,,,,,,,,,,,,,,,,,,,,,,,,,,,,,,,,,,,,,,,,,,,,,,,,,,,,,,,,,,,,,,,,,,,,,,,"[""comma""]",0,[0],60,0,60,0,1,,
,,,,,,,,,,,,5f00dcdde2787b22556593e7,43,Mężczyzna,2022-06-11_08h41.34.335,task,2021.1.4,MacIntel,58.82352941,6299f149e92ead563fba08ef,62a4471d1c2596ffa769b042,,,,,,,,,,,,,,,,,,,,,,,,,,,,,,,,,,,,,,,,,,,,,,,,,,,,,,,,,,,,,,,,,,,,,,,,,,,,,,,,,,,,,,,,,,,,"[""comma""]",0,[0.2659999999999627],61,0,61,0,1,,
,,,,,,,,,,,,5f00dcdde2787b22556593e7,43,Mężczyzna,2022-06-11_08h41.34.335,task,2021.1.4,MacIntel,58.82352941,6299f149e92ead563fba08ef,62a4471d1c2596ffa769b042,,,,,,,,,,,,,,,,,,,,,,,,,,,,,,,,,,,,,,,,,,,,,,,,,,,,,,,,,,,,,,,,,,,,,,,,,,,,,,,,,,,,,,,,,,,,"[""comma""]",0,[0.11799999999993815],62,0,62,0,1,,
,,,,,,,,,,,,5f00dcdde2787b22556593e7,43,Mężczyzna,2022-06-11_08h41.34.335,task,2021.1.4,MacIntel,58.82352941,6299f149e92ead563fba08ef,62a4471d1c2596ffa769b042,,,,,,,,,,,,,,,,,,,,,,,,,,,,,,,,,,,,,,,,,,,,,,,,,,,,,,,,,,,,,,,,,,,,,,,,,,,,,,,,,,,,,,,,,,,,"[""comma"",""period""]",0,"[0.03199999999992542,1.8029999999999973]",63,0,63,0,1,,
,,,,,,,,,,,,5f00dcdde2787b22556593e7,43,Mężczyzna,2022-06-11_08h41.34.335,task,2021.1.4,MacIntel,58.82352941,6299f149e92ead563fba08ef,62a4471d1c2596ffa769b042,,,,,,,,,,,,,,,,,,,,,,,,,,,,,,,,,,,,,,,,,,,,,,,,,,,,,,,,,,,,,,,,,,,,,,,,,,,,,,,,,,,,,,,,,,,,"[""comma""]",0,[1.9489999999999554],64,0,64,0,1,,
,,,,,,,,,,,,5f00dcdde2787b22556593e7,43,Mężczyzna,2022-06-11_08h41.34.335,task,2021.1.4,MacIntel,58.82352941,6299f149e92ead563fba08ef,62a4471d1c2596ffa769b042,,,,,,,,,,,,,,,,,,,,,,,,,,,,,,,,,,,,,,,,,,,,,,,,,,,,,,,,,,,,,,,,,,,,,,,,,,,,,,,,,,,,,,,,,,,,,0,,65,0,65,0,1,,
,,,,,,,,,,,,5f00dcdde2787b22556593e7,43,Mężczyzna,2022-06-11_08h41.34.335,task,2021.1.4,MacIntel,58.82352941,6299f149e92ead563fba08ef,62a4471d1c2596ffa769b042,,,,,,,,,,,,,,,,,,,,,,,,,,,,,,,,,,,,,,,,,,,,,,,,,,,,,,,,,,,,,,,,,,,,,,,,,,,,,,,,,,,,,,,,,,,,"[""period""]",0,[0.2680000000000291],66,0,66,0,1,,
,,,,,,,,,,,,5f00dcdde2787b22556593e7,43,Mężczyzna,2022-06-11_08h41.34.335,task,2021.1.4,MacIntel,58.82352941,6299f149e92ead563fba08ef,62a4471d1c2596ffa769b042,,,,,,,,,,,,,,,,,,,,,,,,,,,,,,,,,,,,,,,,,,,,,,,,,,,,,,,,,,,,,,,,,,,,,,,,,,,,,,,,,,,,,,,,,,,,"[""comma""]",0,[0.18799999999998818],67,0,67,0,1,,
,,,,,,,,,,,,5f00dcdde2787b22556593e7,43,Mężczyzna,2022-06-11_08h41.34.335,task,2021.1.4,MacIntel,58.82352941,6299f149e92ead563fba08ef,62a4471d1c2596ffa769b042,,,,,,,,,,,,,,,,,,,,,,,,,,,,,,,,,,,,,,,,,,,,,,,,,,,,,,,,,,,,,,,,,,,,,,,,,,,,,,,,,,,,,,,,,,,,"[""comma""]",0,[0.1209999999999809],68,0,68,0,1,,
,,,,,,,,,,,,5f00dcdde2787b22556593e7,43,Mężczyzna,2022-06-11_08h41.34.335,task,2021.1.4,MacIntel,58.82352941,6299f149e92ead563fba08ef,62a4471d1c2596ffa769b042,,,,,,,,,,,,,,,,,,,,,,,,,,,,,,,,,,,,,,,,,,,,,,,,,,,,,,,,,,,,,,,,,,,,,,,,,,,,,,,,,,,,,,,,,,,,"[""comma"",""period""]",0,"[0.23500000000001364,1.802000000000021]",69,0,69,0,1,,
,,,,,,,,,,,,5f00dcdde2787b22556593e7,43,Mężczyzna,2022-06-11_08h41.34.335,task,2021.1.4,MacIntel,58.82352941,6299f149e92ead563fba08ef,62a4471d1c2596ffa769b042,,,,,,,,,,,,,,,,,,,,,,,,,,,,,,,,,,,,,,,,,,,,,,,,,,,,,,,,,,,,,,,,,,,,,,,,,,,,,,,,,,,,,,,,,,,,,0,,70,0,70,0,1,,
,,,,,,,,,,,,5f00dcdde2787b22556593e7,43,Mężczyzna,2022-06-11_08h41.34.335,task,2021.1.4,MacIntel,58.82352941,6299f149e92ead563fba08ef,62a4471d1c2596ffa769b042,,,,,,,,,,,,,,,,,,,,,,,,,,,,,,,,,,,,,,,,,,,,,,,,,,,,,,,,,,,,,,,,,,,,,,,,,,,,,,,,,,,,,,,,,,,,"[""period"",""period""]",0,"[0.15300000000002,1.9710000000000036]",71,0,71,0,1,,
,,,,,,,,,,,,5f00dcdde2787b22556593e7,43,Mężczyzna,2022-06-11_08h41.34.335,task,2021.1.4,MacIntel,58.82352941,6299f149e92ead563fba08ef,62a4471d1c2596ffa769b042,,,,,,,,,,,,,,,,,,,,,,,,,,,,,,,,,,,,,,,,,,,,,,,,,,,,,,,,,,,,,,,,,,,,,,,,,,,,,,,,,,,,,,,,,,,,"[""comma""]",0,[1.0249999999999773],72,0,72,0,1,,
,,,,,,,,,,,,5f00dcdde2787b22556593e7,43,Mężczyzna,2022-06-11_08h41.34.335,task,2021.1.4,MacIntel,58.82352941,6299f149e92ead563fba08ef,62a4471d1c2596ffa769b042,,,,,,,,,,,,,,,,,,,,,,,,,,,,,,,,,,,,,,,,,,,,,,,,,,,,,,,,,,,,,,,,,,,,,,,,,,,,,,,,,,,,,,,,,,,,"[""period""]",0,[0.7730000000000246],73,0,73,0,1,,
,,,,,,,,,,,,5f00dcdde2787b22556593e7,43,Mężczyzna,2022-06-11_08h41.34.335,task,2021.1.4,MacIntel,58.82352941,6299f149e92ead563fba08ef,62a4471d1c2596ffa769b042,,,,,,,,,,,,,,,,,,,,,,,,,,,,,,,,,,,,,,,,,,,,,,,,,,,,,,,,,,,,,,,,,,,,,,,,,,,,,,,,,,,,,,,,,,,,"[""comma""]",0,[1.2069999999999936],74,0,74,0,1,,
,,,,,,,,,,,,5f00dcdde2787b22556593e7,43,Mężczyzna,2022-06-11_08h41.34.335,task,2021.1.4,MacIntel,58.82352941,6299f149e92ead563fba08ef,62a4471d1c2596ffa769b042,,,,,,,,,,,,,,,,,,,,,,,,,,,,,,,,,,,,,,,,,,,,,,,,,,,,,,,,,,,,,,,,,,,,,,,,,,,,,,,,,,,,,,,,,,,,"[""comma""]",0,[1.1200000000000045],75,0,75,0,1,,
,,,,,,,,,,,,5f00dcdde2787b22556593e7,43,Mężczyzna,2022-06-11_08h41.34.335,task,2021.1.4,MacIntel,58.82352941,6299f149e92ead563fba08ef,62a4471d1c2596ffa769b042,,,,,,,,,,,,,,,,,,,,,,,,,,,,,,,,,,,,,,,,,,,,,,,,,,,,,,,,,,,,,,,,,,,,,,,,,,,,,,,,,,,,,,,,,,,,"[""period""]",0,[1.44399999999996],76,0,76,0,1,,
,,,,,,,,,,,,5f00dcdde2787b22556593e7,43,Mężczyzna,2022-06-11_08h41.34.335,task,2021.1.4,MacIntel,58.82352941,6299f149e92ead563fba08ef,62a4471d1c2596ffa769b042,,,,,,,,,,,,,,,,,,,,,,,,,,,,,,,,,,,,,,,,,,,,,,,,,,,,,,,,,,,,,,,,,,,,,,,,,,,,,,,,,,,,,,,,,,,,,0,,77,0,77,0,1,,
,,,,,,,,,,,,5f00dcdde2787b22556593e7,43,Mężczyzna,2022-06-11_08h41.34.335,task,2021.1.4,MacIntel,58.82352941,6299f149e92ead563fba08ef,62a4471d1c2596ffa769b042,,,,,,,,,,,,,,,,,,,,,,,,,,,,,,,,,,,,,,,,,,,,,,,,,,,,,,,,,,,,,,,,,,,,,,,,,,,,,,,,,,,,,,,,,,,,"[""comma""]",0,[0.23700000000008004],78,0,78,0,1,,
,,,,,,,,,,,,5f00dcdde2787b22556593e7,43,Mężczyzna,2022-06-11_08h41.34.335,task,2021.1.4,MacIntel,58.82352941,6299f149e92ead563fba08ef,62a4471d1c2596ffa769b042,,,,,,,,,,,,,,,,,,,,,,,,,,,,,,,,,,,,,,,,,,,,,,,,,,,,,,,,,,,,,,,,,,,,,,,,,,,,,,,,,,,,,,,,,,,,"[""period""]",0,[0.25],79,0,79,0,1,,
,,,,,,,,,,,,5f00dcdde2787b22556593e7,43,Mężczyzna,2022-06-11_08h41.34.335,task,2021.1.4,MacIntel,58.82352941,6299f149e92ead563fba08ef,62a4471d1c2596ffa769b042,,,,,,,,,,,,,,,,,,,,,,,,,,,,,,,,,,,,,,,,,,,,,,,,,,,,,,,,,,,,,,,,,,,,,,,,,,,,,,,,,,,,,,,,,,,,"[""comma""]",0,[0.21900000000005093],80,0,80,0,1,,
,,,,,,,,,,,,5f00dcdde2787b22556593e7,43,Mężczyzna,2022-06-11_08h41.34.335,task,2021.1.4,MacIntel,58.82352941,6299f149e92ead563fba08ef,62a4471d1c2596ffa769b042,,,,,,,,,,,,,,,,,,,,,,,,,,,,,,,,,,,,,,,,,,,,,,,,,,,,,,,,,,,,,,,,,,,,,,,,,,,,,,,,,,,,,,,,,,,,"[""comma""]",0,[0.28899999999998727],81,0,81,0,1,,
,,,,,,,,,,,,5f00dcdde2787b22556593e7,43,Mężczyzna,2022-06-11_08h41.34.335,task,2021.1.4,MacIntel,58.82352941,6299f149e92ead563fba08ef,62a4471d1c2596ffa769b042,,,,,,,,,,,,,,,,,,,,,,,,,,,,,,,,,,,,,,,,,,,,,,,,,,,,,,,,,,,,,,,,,,,,,,,,,,,,,,,,,,,,,,,,,,,,"[""comma""]",0,[0.21300000000007913],82,0,82,0,1,,
,,,,,,,,,,,,5f00dcdde2787b22556593e7,43,Mężczyzna,2022-06-11_08h41.34.335,task,2021.1.4,MacIntel,58.82352941,6299f149e92ead563fba08ef,62a4471d1c2596ffa769b042,,,,,,,,,,,,,,,,,,,,,,,,,,,,,,,,,,,,,,,,,,,,,,,,,,,,,,,,,,,,,,,,,,,,,,,,,,,,,,,,,,,,,,,,,,,,"[""period""]",0,[0.20100000000002183],83,0,83,0,1,,
,,,,,,,,,,,,5f00dcdde2787b22556593e7,43,Mężczyzna,2022-06-11_08h41.34.335,task,2021.1.4,MacIntel,58.82352941,6299f149e92ead563fba08ef,62a4471d1c2596ffa769b042,,,,,,,,,,,,,,,,,,,,,,,,,,,,,,,,,,,,,,,,,,,,,,,,,,,,,,,,,,,,,,,,,,,,,,,,,,,,,,,,,,,,,,,,,,,,"[""period""]",0,[0.19600000000002638],84,0,84,0,1,,
,,,,,,,,,,,,5f00dcdde2787b22556593e7,43,Mężczyzna,2022-06-11_08h41.34.335,task,2021.1.4,MacIntel,58.82352941,6299f149e92ead563fba08ef,62a4471d1c2596ffa769b042,,,,,,,,,,,,,,,,,,,,,,,,,,,,,,,,,,,,,,,,,,,,,,,,,,,,,,,,,,,,,,,,,,,,,,,,,,,,,,,,,,,,,,,,,,,,"[""comma""]",0,[0.11099999999999],85,0,85,0,1,,
,,,,,,,,,,,,5f00dcdde2787b22556593e7,43,Mężczyzna,2022-06-11_08h41.34.335,task,2021.1.4,MacIntel,58.82352941,6299f149e92ead563fba08ef,62a4471d1c2596ffa769b042,,,,,,,,,,,,,,,,,,,,,,,,,,,,,,,,,,,,,,,,,,,,,,,,,,,,,,,,,,,,,,,,,,,,,,,,,,,,,,,,,,,,,,,,,,,,"[""comma""]",0,[0.2760000000000673],86,0,86,0,1,,
,,,,,,,,,,,,5f00dcdde2787b22556593e7,43,Mężczyzna,2022-06-11_08h41.34.335,task,2021.1.4,MacIntel,58.82352941,6299f149e92ead563fba08ef,62a4471d1c2596ffa769b042,,,,,,,,,,,,,,,,,,,,,,,,,,,,,,,,,,,,,,,,,,,,,,,,,,,,,,,,,,,,,,,,,,,,,,,,,,,,,,,,,,,,,,,,,,,,"[""period""]",0,[0.1710000000000491],87,0,87,0,1,,
,,,,,,,,,,,,5f00dcdde2787b22556593e7,43,Mężczyzna,2022-06-11_08h41.34.335,task,2021.1.4,MacIntel,58.82352941,6299f149e92ead563fba08ef,62a4471d1c2596ffa769b042,,,,,,,,,,,,,,,,,,,,,,,,,,,,,,,,,,,,,,,,,,,,,,,,,,,,,,,,,,,,,,,,,,,,,,,,,,,,,,,,,,,,,,,,,,,,"[""period""]",0,[0.18799999999998818],88,0,88,0,1,,
,,,,,,,,,,,,5f00dcdde2787b22556593e7,43,Mężczyzna,2022-06-11_08h41.34.335,task,2021.1.4,MacIntel,58.82352941,6299f149e92ead563fba08ef,62a4471d1c2596ffa769b042,,,,,,,,,,,,,,,,,,,,,,,,,,,,,,,,,,,,,,,,,,,,,,,,,,,,,,,,,,,,,,,,,,,,,,,,,,,,,,,,,,,,,,,,,,,,"[""period""]",0,[0.08600000000001273],89,0,89,0,1,,
,,,,,,,,,,,,5f00dcdde2787b22556593e7,43,Mężczyzna,2022-06-11_08h41.34.335,task,2021.1.4,MacIntel,58.82352941,6299f149e92ead563fba08ef,62a4471d1c2596ffa769b042,,,,,,,,,,,,,,,,,,,,,,,,,,,,,,,,,,,,,,,,,,,,,,,,,,,,,,,,,,,,,,,,,,,,,,,,,,,,,,,,,,,,,,,,,,,,"[""comma""]",0,[0.30900000000008276],90,0,90,0,1,,
,,,,,,,,,,,,5f00dcdde2787b22556593e7,43,Mężczyzna,2022-06-11_08h41.34.335,task,2021.1.4,MacIntel,58.82352941,6299f149e92ead563fba08ef,62a4471d1c2596ffa769b042,,,,,,,,,,,,,,,,,,,,,,,,,,,,,,,,,,,,,,,,,,,,,,,,,,,,,,,,,,,,,,,,,,,,,,,,,,,,,,,,,,,,,,,,,,,,"[""period""]",0,[0.2400000000000091],91,0,91,0,1,,
,,,,,,,,,,,,5f00dcdde2787b22556593e7,43,Mężczyzna,2022-06-11_08h41.34.335,task,2021.1.4,MacIntel,58.82352941,6299f149e92ead563fba08ef,62a4471d1c2596ffa769b042,,,,,,,,,,,,,,,,,,,,,,,,,,,,,,,,,,,,,,,,,,,,,,,,,,,,,,,,,,,,,,,,,,,,,,,,,,,,,,,,,,,,,,,,,,,,"[""comma""]",0,[0.2700000000000955],92,0,92,0,1,,
,,,,,,,,,,,,5f00dcdde2787b22556593e7,43,Mężczyzna,2022-06-11_08h41.34.335,task,2021.1.4,MacIntel,58.82352941,6299f149e92ead563fba08ef,62a4471d1c2596ffa769b042,,,,,,,,,,,,,,,,,,,,,,,,,,,,,,,,,,,,,,,,,,,,,,,,,,,,,,,,,,,,,,,,,,,,,,,,,,,,,,,,,,,,,,,,,,,,"[""period""]",0,[0.2839999999998781],93,0,93,0,1,,
,,,,,,,,,,,,5f00dcdde2787b22556593e7,43,Mężczyzna,2022-06-11_08h41.34.335,task,2021.1.4,MacIntel,58.82352941,6299f149e92ead563fba08ef,62a4471d1c2596ffa769b042,,,,,,,,,,,,,,,,,,,,,,,,,,,,,,,,,,,,,,,,,,,,,,,,,,,,,,,,,,,,,,,,,,,,,,,,,,,,,,,,,,,,,,,,,,,,"[""comma""]",0,[0.4659999999998945],94,0,94,0,1,,
,,,,,,,,,,,,5f00dcdde2787b22556593e7,43,Mężczyzna,2022-06-11_08h41.34.335,task,2021.1.4,MacIntel,58.82352941,6299f149e92ead563fba08ef,62a4471d1c2596ffa769b042,,,,,,,,,,,,,,,,,,,,,,,,,,,,,,,,,,,,,,,,,,,,,,,,,,,,,,,,,,,,,,,,,,,,,,,,,,,,,,,,,,,,,,,,,,,,"[""comma""]",0,[0.2019999999997708],95,0,95,0,1,,
,,,,,,,,,,,,5f00dcdde2787b22556593e7,43,Mężczyzna,2022-06-11_08h41.34.335,task,2021.1.4,MacIntel,58.82352941,6299f149e92ead563fba08ef,62a4471d1c2596ffa769b042,,,,,,,,,,,,,,,,,,,,,,,,,,,,,,,,,,,,,,,,,,,,,,,,,,,,,,,,,,,,,,,,,,,,,,,,,,,,,,,,,,,,,,,,,,,,"[""comma""]",0,[0.07599999999979445],96,0,96,0,1,,
,,,,,,,,,,,,5f00dcdde2787b22556593e7,43,Mężczyzna,2022-06-11_08h41.34.335,task,2021.1.4,MacIntel,58.82352941,6299f149e92ead563fba08ef,62a4471d1c2596ffa769b042,,,,,,,,,,,,,,,,,,,,,,,,,,,,,,,,,,,,,,,,,,,,,,,,,,,,,,,,,,,,,,,,,,,,,,,,,,,,,,,,,,,,,,,,,,,,"[""period""]",0,[0.682999999999879],97,0,97,0,1,,
,,,,,,,,,,,,5f00dcdde2787b22556593e7,43,Mężczyzna,2022-06-11_08h41.34.335,task,2021.1.4,MacIntel,58.82352941,6299f149e92ead563fba08ef,62a4471d1c2596ffa769b042,,,,,,,,,,,,,,,,,,,,,,,,,,,,,,,,,,,,,,,,,,,,,,,,,,,,,,,,,,,,,,,,,,,,,,,,,,,,,,,,,,,,,,,,,,,,"[""period""]",0,[0.9819999999999709],98,0,98,0,1,,
,,,,,,,,,,,,5f00dcdde2787b22556593e7,43,Mężczyzna,2022-06-11_08h41.34.335,task,2021.1.4,MacIntel,58.82352941,6299f149e92ead563fba08ef,62a4471d1c2596ffa769b042,,,,,,,,,,,,,,,,,,,,,,,,,,,,,,,,,,,,,,,,,,,,,,,,,,,,,,,,,,,,,,,,,,,,,,,,,,,,,,,,,,,,,,,,,,,,"[""comma""]",0,[1.2849999999999682],99,0,99,0,1,,
,,,,,,,,,,,,5f00dcdde2787b22556593e7,43,Mężczyzna,2022-06-11_08h41.34.335,task,2021.1.4,MacIntel,58.82352941,6299f149e92ead563fba08ef,62a4471d1c2596ffa769b042,,,,,,,,,,,,,,,,,,,,,,,,,,,,,,,,,,,,,,,,,,,,,,,,,,,,,,,,,,,,,,,,,,,,,,,,,,,,,,,,,,,,,,,,,,,,"[""period""]",0,[1.75],100,0,100,0,1,,
,,,,,,,,,,,,5f00dcdde2787b22556593e7,43,Mężczyzna,2022-06-11_08h41.34.335,task,2021.1.4,MacIntel,58.82352941,6299f149e92ead563fba08ef,62a4471d1c2596ffa769b042,,,,,,,,,,,,,,,,,,,,,,,,,,,,,,,,,,,,,,,,,,,,,,,,,,,,,,,,,,,,,,,,,,,,,,,,,,,,,,,,,,,,,,,,,,,,"[""period""]",0,[1.8009999999999309],101,0,101,0,1,,
,,,,,,,,,,,,5f00dcdde2787b22556593e7,43,Mężczyzna,2022-06-11_08h41.34.335,task,2021.1.4,MacIntel,58.82352941,6299f149e92ead563fba08ef,62a4471d1c2596ffa769b042,,,,,,,,,,,,,,,,,,,,,,,,,,,,,,,,,,,,,,,,,,,,,,,,,,,,,,,,,,,,,,,,,,,,,,,,,,,,,,,,,,,,,,,,,,,,"[""period""]",0,[1.9189999999999827],102,0,102,0,1,,
,,,,,,,,,,,,5f00dcdde2787b22556593e7,43,Mężczyzna,2022-06-11_08h41.34.335,task,2021.1.4,MacIntel,58.82352941,6299f149e92ead563fba08ef,62a4471d1c2596ffa769b042,,,,,,,,,,,,,,,,,,,,,,,,,,,,,,,,,,,,,,,,,,,,,,,,,,,,,,,,,,,,,,,,,,,,,,,,,,,,,,,,,,,,,,,,,,,,"[""comma""]",0,[1.5860000000000127],103,0,103,0,1,,
,,,,,,,,,,,,5f00dcdde2787b22556593e7,43,Mężczyzna,2022-06-11_08h41.34.335,task,2021.1.4,MacIntel,58.82352941,6299f149e92ead563fba08ef,62a4471d1c2596ffa769b042,,,,,,,,,,,,,,,,,,,,,,,,,,,,,,,,,,,,,,,,,,,,,,,,,,,,,,,,,,,,,,,,,,,,,,,,,,,,,,,,,,,,,,,,,,,,,0,,104,0,104,0,1,,
,,,,,,,,,,,,5f00dcdde2787b22556593e7,43,Mężczyzna,2022-06-11_08h41.34.335,task,2021.1.4,MacIntel,58.82352941,6299f149e92ead563fba08ef,62a4471d1c2596ffa769b042,,,,,,,,,,,,,,,,,,,,,,,,,,,,,,,,,,,,,,,,,,,,,,,,,,,,,,,,,,,,,,,,,,,,,,,,,,,,,,,,,,,,,,,,,,,,"[""comma""]",0,[0.16999999999995907],105,0,105,0,1,,
,,,,,,,,,,,,5f00dcdde2787b22556593e7,43,Mężczyzna,2022-06-11_08h41.34.335,task,2021.1.4,MacIntel,58.82352941,6299f149e92ead563fba08ef,62a4471d1c2596ffa769b042,,,,,,,,,,,,,,,,,,,,,,,,,,,,,,,,,,,,,,,,,,,,,,,,,,,,,,,,,,,,,,,,,,,,,,,,,,,,,,,,,,,,,,,,,,,,"[""period""]",0,[0.6029999999999518],106,0,106,0,1,,
,,,,,,,,,,,,5f00dcdde2787b22556593e7,43,Mężczyzna,2022-06-11_08h41.34.335,task,2021.1.4,MacIntel,58.82352941,6299f149e92ead563fba08ef,62a4471d1c2596ffa769b042,,,,,,,,,,,,,,,,,,,,,,,,,,,,,,,,,,,,,,,,,,,,,,,,,,,,,,,,,,,,,,,,,,,,,,,,,,,,,,,,,,,,,,,,,,,,"[""comma""]",0,[0.19200000000000728],107,0,107,0,1,,
,,,,,,,,,,,,5f00dcdde2787b22556593e7,43,Mężczyzna,2022-06-11_08h41.34.335,task,2021.1.4,MacIntel,58.82352941,6299f149e92ead563fba08ef,62a4471d1c2596ffa769b042,,,,,,,,,,,,,,,,,,,,,,,,,,,,,,,,,,,,,,,,,,,,,,,,,,,,,,,,,,,,,,,,,,,,,,,,,,,,,,,,,,,,,,,,,,,,"[""comma""]",0,[0.28700000000003456],108,0,108,0,1,,
,,,,,,,,,,,,5f00dcdde2787b22556593e7,43,Mężczyzna,2022-06-11_08h41.34.335,task,2021.1.4,MacIntel,58.82352941,6299f149e92ead563fba08ef,62a4471d1c2596ffa769b042,,,,,,,,,,,,,,,,,,,,,,,,,,,,,,,,,,,,,,,,,,,,,,,,,,,,,,,,,,,,,,,,,,,,,,,,,,,,,,,,,,,,,,,,,,,,"[""period""]",0,[0.2580000000000382],109,0,109,0,1,,
,,,,,,,,,,,,5f00dcdde2787b22556593e7,43,Mężczyzna,2022-06-11_08h41.34.335,task,2021.1.4,MacIntel,58.82352941,6299f149e92ead563fba08ef,62a4471d1c2596ffa769b042,,,,,,,,,,,,,,,,,,,,,,,,,,,,,,,,,,,,,,,,,,,,,,,,,,,,,,,,,,,,,,,,,,,,,,,,,,,,,,,,,,,,,,,,,,,,"[""period""]",0,[0.2419999999999618],110,0,110,0,1,,
,,,,,,,,,,,,5f00dcdde2787b22556593e7,43,Mężczyzna,2022-06-11_08h41.34.335,task,2021.1.4,MacIntel,58.82352941,6299f149e92ead563fba08ef,62a4471d1c2596ffa769b042,,,,,,,,,,,,,,,,,,,,,,,,,,,,,,,,,,,,,,,,,,,,,,,,,,,,,,,,,,,,,,,,,,,,,,,,,,,,,,,,,,,,,,,,,,,,"[""period"",""comma""]",0,"[0.17200000000002547,1.9499999999999318]",111,0,111,0,1,,
,,,,,,,,,,,,5f00dcdde2787b22556593e7,43,Mężczyzna,2022-06-11_08h41.34.335,task,2021.1.4,MacIntel,58.82352941,6299f149e92ead563fba08ef,62a4471d1c2596ffa769b042,,,,,,,,,,,,,,,,,,,,,,,,,,,,,,,,,,,,,,,,,,,,,,,,,,,,,,,,,,,,,,,,,,,,,,,,,,,,,,,,,,,,,,,,,,,,,0,,112,0,112,0,1,,
,,,,,,,,,,,,5f00dcdde2787b22556593e7,43,Mężczyzna,2022-06-11_08h41.34.335,task,2021.1.4,MacIntel,58.82352941,6299f149e92ead563fba08ef,62a4471d1c2596ffa769b042,,,,,,,,,,,,,,,,,,,,,,,,,,,,,,,,,,,,,,,,,,,,,,,,,,,,,,,,,,,,,,,,,,,,,,,,,,,,,,,,,,,,,,,,,,,,"[""period""]",0,[0.24300000000005184],113,0,113,0,1,,
,,,,,,,,,,,,5f00dcdde2787b22556593e7,43,Mężczyzna,2022-06-11_08h41.34.335,task,2021.1.4,MacIntel,58.82352941,6299f149e92ead563fba08ef,62a4471d1c2596ffa769b042,,,,,,,,,,,,,,,,,,,,,,,,,,,,,,,,,,,,,,,,,,,,,,,,,,,,,,,,,,,,,,,,,,,,,,,,,,,,,,,,,,,,,,,,,,,,"[""comma""]",0,[0.11599999999998545],114,0,114,0,1,,
,,,,,,,,,,,,5f00dcdde2787b22556593e7,43,Mężczyzna,2022-06-11_08h41.34.335,task,2021.1.4,MacIntel,58.82352941,6299f149e92ead563fba08ef,62a4471d1c2596ffa769b042,,,,,,,,,,,,,,,,,,,,,,,,,,,,,,,,,,,,,,,,,,,,,,,,,,,,,,,,,,,,,,,,,,,,,,,,,,,,,,,,,,,,,,,,,,,,"[""period""]",0,[0.2179999999999609],115,0,115,0,1,,
,,,,,,,,,,,,5f00dcdde2787b22556593e7,43,Mężczyzna,2022-06-11_08h41.34.335,task,2021.1.4,MacIntel,58.82352941,6299f149e92ead563fba08ef,62a4471d1c2596ffa769b042,,,,,,,,,,,,,,,,,,,,,,,,,,,,,,,,,,,,,,,,,,,,,,,,,,,,,,,,,,,,,,,,,,,,,,,,,,,,,,,,,,,,,,,,,,,,"[""period"",""comma""]",0,"[0.2520000000000664,1.9400000000000546]",116,0,116,0,1,,
,,,,,,,,,,,,5f00dcdde2787b22556593e7,43,Mężczyzna,2022-06-11_08h41.34.335,task,2021.1.4,MacIntel,58.82352941,6299f149e92ead563fba08ef,62a4471d1c2596ffa769b042,,,,,,,,,,,,,,,,,,,,,,,,,,,,,,,,,,,,,,,,,,,,,,,,,,,,,,,,,,,,,,,,,,,,,,,,,,,,,,,,,,,,,,,,,,,,"[""comma""]",0,[1.6470000000000482],117,0,117,0,1,,
,,,,,,,,,,,,5f00dcdde2787b22556593e7,43,Mężczyzna,2022-06-11_08h41.34.335,task,2021.1.4,MacIntel,58.82352941,6299f149e92ead563fba08ef,62a4471d1c2596ffa769b042,,,,,,,,,,,,,,,,,,,,,,,,,,,,,,,,,,,,,,,,,,,,,,,,,,,,,,,,,,,,,,,,,,,,,,,,,,,,,,,,,,,,,,,,,,,,,0,,118,0,118,0,1,,
,,,,,,,,,,,,5f00dcdde2787b22556593e7,43,Mężczyzna,2022-06-11_08h41.34.335,task,2021.1.4,MacIntel,58.82352941,6299f149e92ead563fba08ef,62a4471d1c2596ffa769b042,,,,,,,,,,,,,,,,,,,,,,,,,,,,,,,,,,,,,,,,,,,,,,,,,,,,,,,,,,,,,,,,,,,,,,,,,,,,,,,,,,,,,,,,,,,,"[""comma""]",0,[0.23299999999994725],119,0,119,0,1,,
,,,,,,,,,,,,5f00dcdde2787b22556593e7,43,Mężczyzna,2022-06-11_08h41.34.335,task,2021.1.4,MacIntel,58.82352941,6299f149e92ead563fba08ef,62a4471d1c2596ffa769b042,,,,,,,,,,,,,,,,,,,,,,,,,,,,,,,,,,,,,,,,,,,,,,,,,,,,,,,,,,,,,,,,,,,,,,,,,,,,,,,,,,,,,,,,,,,,,,,,,,,,space,1.574
