key_resp_15.keys,key_resp_15.rt,key_resp_16.keys,key_resp_16.rt,key_resp_4.keys,key_resp_4.rt,next_letter.thisRepN,next_letter.thisTrialN,next_letter.thisN,next_letter.thisIndex,next_letter.ran,letter,participant,Wiek*,Płeć,date,expName,psychopyVersion,OS,frameRate,study_id,session,simple_recall,key_resp_5.keys,key_resp_5.rt,simple_recall_corr,simple_recall_corrkeys,next_level.thisRepN,next_level.thisTrialN,next_level.thisN,next_level.thisIndex,next_level.ran,key_resp_2.keys,key_resp_2.rt,digit_answer,key_resp.keys,key_resp.corr,key_resp.rt,RT_list,next_equation.thisRepN,next_equation.thisTrialN,next_equation.thisN,next_equation.thisIndex,next_equation.ran,Task,Trial,Problem,Operation_answer,processing_score,sumRT,meanRT,sumdiff,sd,RT,key_resp_3.keys,key_resp_3.rt,repeat_practice.thisRepN,repeat_practice.thisTrialN,repeat_practice.thisN,repeat_practice.thisIndex,repeat_practice.ran,key_resp_6.keys,key_resp_6.rt,key_resp_11.keys,key_resp_11.corr,key_resp_11.rt,operation_correct,repeat_if_wrong_prac.thisRepN,repeat_if_wrong_prac.thisTrialN,repeat_if_wrong_prac.thisN,repeat_if_wrong_prac.thisIndex,repeat_if_wrong_prac.ran,span_size_prac.thisRepN,span_size_prac.thisTrialN,span_size_prac.thisN,span_size_prac.thisIndex,span_size_prac.ran,complex_recall_practice,key_resp_9.keys,key_resp_9.corr,key_resp_9.rt,complex_prac_corr,span_recall_prac.thisRepN,span_recall_prac.thisTrialN,span_recall_prac.thisN,span_recall_prac.thisIndex,span_recall_prac.ran,key_resp_10.keys,key_resp_10.rt,key_resp_7.keys,key_resp_7.corr,key_resp_7.rt,repeat_if_wrong.thisRepN,repeat_if_wrong.thisTrialN,repeat_if_wrong.thisN,repeat_if_wrong.thisIndex,repeat_if_wrong.ran,span_size.thisRepN,span_size.thisTrialN,span_size.thisN,span_size.thisIndex,span_size.ran,complex_recall,key_resp_8.keys,key_resp_8.corr,key_resp_8.rt,complex_recall_corr,complex_recall_corrkeys,span_recall.thisRepN,span_recall.thisTrialN,span_recall.thisN,span_recall.thisIndex,span_recall.ran,key_resp_13.keys,key_resp_13.corr,random_loop.thisRepN,random_loop.thisTrialN,random_loop.thisN,random_loop.thisIndex,random_loop.ran,key_resp_13.rt,key_resp_12.keys,key_resp_12.rt
space,1456.3139,space,3.3722,space,25.1527,0,0,0,0,1,X V Q F H G B L J M P D K C T S W R N Z,5f009c12dac7c81b0e9c0d06,36,Mężczyzna,2022-06-11_09h26.11.138,task,2021.1.4,Win32,120.0336094,6299f149e92ead563fba08ef,62a44339f345f1eaae8dbc77,,,,,,,,,,,,,,,,,,,,,,,,,,,,,,,,,,,,,,,,,,,,,,,,,,,,,,,,,,,,,,,,,,,,,,,,,,,,,,,,,,,,,,,,,,,,,,,,,,,,,
,,,,,,1,0,1,0,1,X V Q F H G B L J M P D K C T S W R N Z,5f009c12dac7c81b0e9c0d06,36,Mężczyzna,2022-06-11_09h26.11.138,task,2021.1.4,Win32,120.0336094,6299f149e92ead563fba08ef,62a44339f345f1eaae8dbc77,,,,,,,,,,,,,,,,,,,,,,,,,,,,,,,,,,,,,,,,,,,,,,,,,,,,,,,,,,,,,,,,,,,,,,,,,,,,,,,,,,,,,,,,,,,,,,,,,,,,,
,,,,,,,,,,,,5f009c12dac7c81b0e9c0d06,36,Mężczyzna,2022-06-11_09h26.11.138,task,2021.1.4,Win32,120.0336094,6299f149e92ead563fba08ef,62a44339f345f1eaae8dbc77,zm,"[""z"",""m""]","[2.360600000000659,2.6582000000003063,3.2000000000000455]",1,ZM,0,0,0,0,1,,,,,,,,,,,,,,,,,,,,,,,,,,,,,,,,,,,,,,,,,,,,,,,,,,,,,,,,,,,,,,,,,,,,,,,,,,,,,,,,,,,,,,,,,,,
,,,,,,0,0,0,0,1,X V Q F H G B L J M P D K C T S W R N Z,5f009c12dac7c81b0e9c0d06,36,Mężczyzna,2022-06-11_09h26.11.138,task,2021.1.4,Win32,120.0336094,6299f149e92ead563fba08ef,62a44339f345f1eaae8dbc77,,,,,,,,,,,,,,,,,,,,,,,,,,,,,,,,,,,,,,,,,,,,,,,,,,,,,,,,,,,,,,,,,,,,,,,,,,,,,,,,,,,,,,,,,,,,,,,,,,,,,
,,,,,,1,0,1,0,1,X V Q F H G B L J M P D K C T S W R N Z,5f009c12dac7c81b0e9c0d06,36,Mężczyzna,2022-06-11_09h26.11.138,task,2021.1.4,Win32,120.0336094,6299f149e92ead563fba08ef,62a44339f345f1eaae8dbc77,,,,,,,,,,,,,,,,,,,,,,,,,,,,,,,,,,,,,,,,,,,,,,,,,,,,,,,,,,,,,,,,,,,,,,,,,,,,,,,,,,,,,,,,,,,,,,,,,,,,,
,,,,,,,,,,,,5f009c12dac7c81b0e9c0d06,36,Mężczyzna,2022-06-11_09h26.11.138,task,2021.1.4,Win32,120.0336094,6299f149e92ead563fba08ef,62a44339f345f1eaae8dbc77,jq,"[""j"",""q""]","[0.8667000000002645,1.0659000000005108,1.3327999999999065]",1,JQ,1,0,1,0,1,,,,,,,,,,,,,,,,,,,,,,,,,,,,,,,,,,,,,,,,,,,,,,,,,,,,,,,,,,,,,,,,,,,,,,,,,,,,,,,,,,,,,,,,,,,
,,,,,,0,0,0,0,1,X V Q F H G B L J M P D K C T S W R N Z,5f009c12dac7c81b0e9c0d06,36,Mężczyzna,2022-06-11_09h26.11.138,task,2021.1.4,Win32,120.0336094,6299f149e92ead563fba08ef,62a44339f345f1eaae8dbc77,,,,,,,,,,,,,,,,,,,,,,,,,,,,,,,,,,,,,,,,,,,,,,,,,,,,,,,,,,,,,,,,,,,,,,,,,,,,,,,,,,,,,,,,,,,,,,,,,,,,,
,,,,,,1,0,1,0,1,X V Q F H G B L J M P D K C T S W R N Z,5f009c12dac7c81b0e9c0d06,36,Mężczyzna,2022-06-11_09h26.11.138,task,2021.1.4,Win32,120.0336094,6299f149e92ead563fba08ef,62a44339f345f1eaae8dbc77,,,,,,,,,,,,,,,,,,,,,,,,,,,,,,,,,,,,,,,,,,,,,,,,,,,,,,,,,,,,,,,,,,,,,,,,,,,,,,,,,,,,,,,,,,,,,,,,,,,,,
,,,,,,2,0,2,0,1,X V Q F H G B L J M P D K C T S W R N Z,5f009c12dac7c81b0e9c0d06,36,Mężczyzna,2022-06-11_09h26.11.138,task,2021.1.4,Win32,120.0336094,6299f149e92ead563fba08ef,62a44339f345f1eaae8dbc77,,,,,,,,,,,,,,,,,,,,,,,,,,,,,,,,,,,,,,,,,,,,,,,,,,,,,,,,,,,,,,,,,,,,,,,,,,,,,,,,,,,,,,,,,,,,,,,,,,,,,
,,,,,,,,,,,,5f009c12dac7c81b0e9c0d06,36,Mężczyzna,2022-06-11_09h26.11.138,task,2021.1.4,Win32,120.0336094,6299f149e92ead563fba08ef,62a44339f345f1eaae8dbc77,qfg,"[""q"",""f"",""g""]","[1.3682000000001153,1.8512000000000626,2.1119999999998527,2.336099999999533]",1,QFG,2,0,2,0,1,,,,,,,,,,,,,,,,,,,,,,,,,,,,,,,,,,,,,,,,,,,,,,,,,,,,,,,,,,,,,,,,,,,,,,,,,,,,,,,,,,,,,,,,,,,
,,,,,,0,0,0,0,1,X V Q F H G B L J M P D K C T S W R N Z,5f009c12dac7c81b0e9c0d06,36,Mężczyzna,2022-06-11_09h26.11.138,task,2021.1.4,Win32,120.0336094,6299f149e92ead563fba08ef,62a44339f345f1eaae8dbc77,,,,,,,,,,,,,,,,,,,,,,,,,,,,,,,,,,,,,,,,,,,,,,,,,,,,,,,,,,,,,,,,,,,,,,,,,,,,,,,,,,,,,,,,,,,,,,,,,,,,,
,,,,,,1,0,1,0,1,X V Q F H G B L J M P D K C T S W R N Z,5f009c12dac7c81b0e9c0d06,36,Mężczyzna,2022-06-11_09h26.11.138,task,2021.1.4,Win32,120.0336094,6299f149e92ead563fba08ef,62a44339f345f1eaae8dbc77,,,,,,,,,,,,,,,,,,,,,,,,,,,,,,,,,,,,,,,,,,,,,,,,,,,,,,,,,,,,,,,,,,,,,,,,,,,,,,,,,,,,,,,,,,,,,,,,,,,,,
,,,,,,2,0,2,0,1,X V Q F H G B L J M P D K C T S W R N Z,5f009c12dac7c81b0e9c0d06,36,Mężczyzna,2022-06-11_09h26.11.138,task,2021.1.4,Win32,120.0336094,6299f149e92ead563fba08ef,62a44339f345f1eaae8dbc77,,,,,,,,,,,,,,,,,,,,,,,,,,,,,,,,,,,,,,,,,,,,,,,,,,,,,,,,,,,,,,,,,,,,,,,,,,,,,,,,,,,,,,,,,,,,,,,,,,,,,
,,,,,,,,,,,,5f009c12dac7c81b0e9c0d06,36,Mężczyzna,2022-06-11_09h26.11.138,task,2021.1.4,Win32,120.0336094,6299f149e92ead563fba08ef,62a44339f345f1eaae8dbc77,kxq,"[""k"",""x"",""q""]","[1.0929999999998472,1.3495999999995547,1.6664000000002943,2.3582000000001244]",1,KXQ,3,0,3,0,1,,,,,,,,,,,,,,,,,,,,,,,,,,,,,,,,,,,,,,,,,,,,,,,,,,,,,,,,,,,,,,,,,,,,,,,,,,,,,,,,,,,,,,,,,,,
,,,,,,0,0,0,0,1,X V Q F H G B L J M P D K C T S W R N Z,5f009c12dac7c81b0e9c0d06,36,Mężczyzna,2022-06-11_09h26.11.138,task,2021.1.4,Win32,120.0336094,6299f149e92ead563fba08ef,62a44339f345f1eaae8dbc77,,,,,,,,,,,,,,,,,,,,,,,,,,,,,,,,,,,,,,,,,,,,,,,,,,,,,,,,,,,,,,,,,,,,,,,,,,,,,,,,,,,,,,,,,,,,,,,,,,,,,
,,,,,,1,0,1,0,1,X V Q F H G B L J M P D K C T S W R N Z,5f009c12dac7c81b0e9c0d06,36,Mężczyzna,2022-06-11_09h26.11.138,task,2021.1.4,Win32,120.0336094,6299f149e92ead563fba08ef,62a44339f345f1eaae8dbc77,,,,,,,,,,,,,,,,,,,,,,,,,,,,,,,,,,,,,,,,,,,,,,,,,,,,,,,,,,,,,,,,,,,,,,,,,,,,,,,,,,,,,,,,,,,,,,,,,,,,,
,,,,,,2,0,2,0,1,X V Q F H G B L J M P D K C T S W R N Z,5f009c12dac7c81b0e9c0d06,36,Mężczyzna,2022-06-11_09h26.11.138,task,2021.1.4,Win32,120.0336094,6299f149e92ead563fba08ef,62a44339f345f1eaae8dbc77,,,,,,,,,,,,,,,,,,,,,,,,,,,,,,,,,,,,,,,,,,,,,,,,,,,,,,,,,,,,,,,,,,,,,,,,,,,,,,,,,,,,,,,,,,,,,,,,,,,,,
,,,,,,3,0,3,0,1,X V Q F H G B L J M P D K C T S W R N Z,5f009c12dac7c81b0e9c0d06,36,Mężczyzna,2022-06-11_09h26.11.138,task,2021.1.4,Win32,120.0336094,6299f149e92ead563fba08ef,62a44339f345f1eaae8dbc77,,,,,,,,,,,,,,,,,,,,,,,,,,,,,,,,,,,,,,,,,,,,,,,,,,,,,,,,,,,,,,,,,,,,,,,,,,,,,,,,,,,,,,,,,,,,,,,,,,,,,
,,,,,,,,,,,,5f009c12dac7c81b0e9c0d06,36,Mężczyzna,2022-06-11_09h26.11.138,task,2021.1.4,Win32,120.0336094,6299f149e92ead563fba08ef,62a44339f345f1eaae8dbc77,dddv,"[""d"",""d"",""d"",""v""]","[0.8468000000000302,1.078200000000379,1.2942000000002736,1.7505000000001019,2.0862999999999374]",1,DDDV,4,0,4,0,1,,,,,,,,,,,,,,,,,,,,,,,,,,,,,,,,,,,,,,,,,,,,,,,,,,,,,,,,,,,,,,,,,,,,,,,,,,,,,,,,,,,,,,,,,,,
,,,,,,0,0,0,0,1,X V Q F H G B L J M P D K C T S W R N Z,5f009c12dac7c81b0e9c0d06,36,Mężczyzna,2022-06-11_09h26.11.138,task,2021.1.4,Win32,120.0336094,6299f149e92ead563fba08ef,62a44339f345f1eaae8dbc77,,,,,,,,,,,,,,,,,,,,,,,,,,,,,,,,,,,,,,,,,,,,,,,,,,,,,,,,,,,,,,,,,,,,,,,,,,,,,,,,,,,,,,,,,,,,,,,,,,,,,
,,,,,,1,0,1,0,1,X V Q F H G B L J M P D K C T S W R N Z,5f009c12dac7c81b0e9c0d06,36,Mężczyzna,2022-06-11_09h26.11.138,task,2021.1.4,Win32,120.0336094,6299f149e92ead563fba08ef,62a44339f345f1eaae8dbc77,,,,,,,,,,,,,,,,,,,,,,,,,,,,,,,,,,,,,,,,,,,,,,,,,,,,,,,,,,,,,,,,,,,,,,,,,,,,,,,,,,,,,,,,,,,,,,,,,,,,,
,,,,,,2,0,2,0,1,X V Q F H G B L J M P D K C T S W R N Z,5f009c12dac7c81b0e9c0d06,36,Mężczyzna,2022-06-11_09h26.11.138,task,2021.1.4,Win32,120.0336094,6299f149e92ead563fba08ef,62a44339f345f1eaae8dbc77,,,,,,,,,,,,,,,,,,,,,,,,,,,,,,,,,,,,,,,,,,,,,,,,,,,,,,,,,,,,,,,,,,,,,,,,,,,,,,,,,,,,,,,,,,,,,,,,,,,,,
,,,,,,3,0,3,0,1,X V Q F H G B L J M P D K C T S W R N Z,5f009c12dac7c81b0e9c0d06,36,Mężczyzna,2022-06-11_09h26.11.138,task,2021.1.4,Win32,120.0336094,6299f149e92ead563fba08ef,62a44339f345f1eaae8dbc77,,,,,,,,,,,,,,,,,,,,,,,,,,,,,,,,,,,,,,,,,,,,,,,,,,,,,,,,,,,,,,,,,,,,,,,,,,,,,,,,,,,,,,,,,,,,,,,,,,,,,
,,,,,,,,,,,,5f009c12dac7c81b0e9c0d06,36,Mężczyzna,2022-06-11_09h26.11.138,task,2021.1.4,Win32,120.0336094,6299f149e92ead563fba08ef,62a44339f345f1eaae8dbc77,whnq,"[""w"",""h"",""n"",""q""]","[0.7936999999992622,0.9378999999994448,1.153599999999642,1.3257999999998447,1.6420000000000528]",1,WHNQ,5,0,5,0,1,,,,,,,,,,,,,,,,,,,,,,,,,,,,,,,,,,,,,,,,,,,,,,,,,,,,,,,,,,,,,,,,,,,,,,,,,,,,,,,,,,,,,,,,,,,
,,,,,,0,0,0,0,1,X V Q F H G B L J M P D K C T S W R N Z,5f009c12dac7c81b0e9c0d06,36,Mężczyzna,2022-06-11_09h26.11.138,task,2021.1.4,Win32,120.0336094,6299f149e92ead563fba08ef,62a44339f345f1eaae8dbc77,,,,,,,,,,,,,,,,,,,,,,,,,,,,,,,,,,,,,,,,,,,,,,,,,,,,,,,,,,,,,,,,,,,,,,,,,,,,,,,,,,,,,,,,,,,,,,,,,,,,,
,,,,,,1,0,1,0,1,X V Q F H G B L J M P D K C T S W R N Z,5f009c12dac7c81b0e9c0d06,36,Mężczyzna,2022-06-11_09h26.11.138,task,2021.1.4,Win32,120.0336094,6299f149e92ead563fba08ef,62a44339f345f1eaae8dbc77,,,,,,,,,,,,,,,,,,,,,,,,,,,,,,,,,,,,,,,,,,,,,,,,,,,,,,,,,,,,,,,,,,,,,,,,,,,,,,,,,,,,,,,,,,,,,,,,,,,,,
,,,,,,2,0,2,0,1,X V Q F H G B L J M P D K C T S W R N Z,5f009c12dac7c81b0e9c0d06,36,Mężczyzna,2022-06-11_09h26.11.138,task,2021.1.4,Win32,120.0336094,6299f149e92ead563fba08ef,62a44339f345f1eaae8dbc77,,,,,,,,,,,,,,,,,,,,,,,,,,,,,,,,,,,,,,,,,,,,,,,,,,,,,,,,,,,,,,,,,,,,,,,,,,,,,,,,,,,,,,,,,,,,,,,,,,,,,
,,,,,,3,0,3,0,1,X V Q F H G B L J M P D K C T S W R N Z,5f009c12dac7c81b0e9c0d06,36,Mężczyzna,2022-06-11_09h26.11.138,task,2021.1.4,Win32,120.0336094,6299f149e92ead563fba08ef,62a44339f345f1eaae8dbc77,,,,,,,,,,,,,,,,,,,,,,,,,,,,,,,,,,,,,,,,,,,,,,,,,,,,,,,,,,,,,,,,,,,,,,,,,,,,,,,,,,,,,,,,,,,,,,,,,,,,,
,,,,,,4,0,4,0,1,X V Q F H G B L J M P D K C T S W R N Z,5f009c12dac7c81b0e9c0d06,36,Mężczyzna,2022-06-11_09h26.11.138,task,2021.1.4,Win32,120.0336094,6299f149e92ead563fba08ef,62a44339f345f1eaae8dbc77,,,,,,,,,,,,,,,,,,,,,,,,,,,,,,,,,,,,,,,,,,,,,,,,,,,,,,,,,,,,,,,,,,,,,,,,,,,,,,,,,,,,,,,,,,,,,,,,,,,,,
,,,,,,,,,,,,5f009c12dac7c81b0e9c0d06,36,Mężczyzna,2022-06-11_09h26.11.138,task,2021.1.4,Win32,120.0336094,6299f149e92ead563fba08ef,62a44339f345f1eaae8dbc77,strx,"[""s"",""t"",""r"",""x""]","[0.759499999999889,1.0509999999999309,1.141800000000785,2.0509000000004107,4.019100000000435]",0,SRTXQ,6,0,6,0,1,,,,,,,,,,,,,,,,,,,,,,,,,,,,,,,,,,,,,,,,,,,,,,,,,,,,,,,,,,,,,,,,,,,,,,,,,,,,,,,,,,,,,,,,,,,
,,,,,,0,0,0,0,1,X V Q F H G B L J M P D K C T S W R N Z,5f009c12dac7c81b0e9c0d06,36,Mężczyzna,2022-06-11_09h26.11.138,task,2021.1.4,Win32,120.0336094,6299f149e92ead563fba08ef,62a44339f345f1eaae8dbc77,,,,,,,,,,,,,,,,,,,,,,,,,,,,,,,,,,,,,,,,,,,,,,,,,,,,,,,,,,,,,,,,,,,,,,,,,,,,,,,,,,,,,,,,,,,,,,,,,,,,,
,,,,,,1,0,1,0,1,X V Q F H G B L J M P D K C T S W R N Z,5f009c12dac7c81b0e9c0d06,36,Mężczyzna,2022-06-11_09h26.11.138,task,2021.1.4,Win32,120.0336094,6299f149e92ead563fba08ef,62a44339f345f1eaae8dbc77,,,,,,,,,,,,,,,,,,,,,,,,,,,,,,,,,,,,,,,,,,,,,,,,,,,,,,,,,,,,,,,,,,,,,,,,,,,,,,,,,,,,,,,,,,,,,,,,,,,,,
,,,,,,2,0,2,0,1,X V Q F H G B L J M P D K C T S W R N Z,5f009c12dac7c81b0e9c0d06,36,Mężczyzna,2022-06-11_09h26.11.138,task,2021.1.4,Win32,120.0336094,6299f149e92ead563fba08ef,62a44339f345f1eaae8dbc77,,,,,,,,,,,,,,,,,,,,,,,,,,,,,,,,,,,,,,,,,,,,,,,,,,,,,,,,,,,,,,,,,,,,,,,,,,,,,,,,,,,,,,,,,,,,,,,,,,,,,
,,,,,,3,0,3,0,1,X V Q F H G B L J M P D K C T S W R N Z,5f009c12dac7c81b0e9c0d06,36,Mężczyzna,2022-06-11_09h26.11.138,task,2021.1.4,Win32,120.0336094,6299f149e92ead563fba08ef,62a44339f345f1eaae8dbc77,,,,,,,,,,,,,,,,,,,,,,,,,,,,,,,,,,,,,,,,,,,,,,,,,,,,,,,,,,,,,,,,,,,,,,,,,,,,,,,,,,,,,,,,,,,,,,,,,,,,,
,,,,,,4,0,4,0,1,X V Q F H G B L J M P D K C T S W R N Z,5f009c12dac7c81b0e9c0d06,36,Mężczyzna,2022-06-11_09h26.11.138,task,2021.1.4,Win32,120.0336094,6299f149e92ead563fba08ef,62a44339f345f1eaae8dbc77,,,,,,,,,,,,,,,,,,,,,,,,,,,,,,,,,,,,,,,,,,,,,,,,,,,,,,,,,,,,,,,,,,,,,,,,,,,,,,,,,,,,,,,,,,,,,,,,,,,,,
,,,,,,,,,,,,5f009c12dac7c81b0e9c0d06,36,Mężczyzna,2022-06-11_09h26.11.138,task,2021.1.4,Win32,120.0336094,6299f149e92ead563fba08ef,62a44339f345f1eaae8dbc77,qnxcl,"[""q"",""n"",""x"",""c"",""l""]","[1.2053999999995995,1.4783999999995103,1.7753000000000156,2.10129999999981,2.2390000000000327,3.2463999999995394]",1,QNXCL,7,0,7,0,1,,,,,,,,,,,,,,,,,,,,,,,,,,,,,,,,,,,,,,,,,,,,,,,,,,,,,,,,,,,,,,,,,,,,,,,,,,,,,,,,,,,,,,,,,,,
,,,,,,0,0,0,0,1,X V Q F H G B L J M P D K C T S W R N Z,5f009c12dac7c81b0e9c0d06,36,Mężczyzna,2022-06-11_09h26.11.138,task,2021.1.4,Win32,120.0336094,6299f149e92ead563fba08ef,62a44339f345f1eaae8dbc77,,,,,,,,,,,,,,,,,,,,,,,,,,,,,,,,,,,,,,,,,,,,,,,,,,,,,,,,,,,,,,,,,,,,,,,,,,,,,,,,,,,,,,,,,,,,,,,,,,,,,
,,,,,,1,0,1,0,1,X V Q F H G B L J M P D K C T S W R N Z,5f009c12dac7c81b0e9c0d06,36,Mężczyzna,2022-06-11_09h26.11.138,task,2021.1.4,Win32,120.0336094,6299f149e92ead563fba08ef,62a44339f345f1eaae8dbc77,,,,,,,,,,,,,,,,,,,,,,,,,,,,,,,,,,,,,,,,,,,,,,,,,,,,,,,,,,,,,,,,,,,,,,,,,,,,,,,,,,,,,,,,,,,,,,,,,,,,,
,,,,,,2,0,2,0,1,X V Q F H G B L J M P D K C T S W R N Z,5f009c12dac7c81b0e9c0d06,36,Mężczyzna,2022-06-11_09h26.11.138,task,2021.1.4,Win32,120.0336094,6299f149e92ead563fba08ef,62a44339f345f1eaae8dbc77,,,,,,,,,,,,,,,,,,,,,,,,,,,,,,,,,,,,,,,,,,,,,,,,,,,,,,,,,,,,,,,,,,,,,,,,,,,,,,,,,,,,,,,,,,,,,,,,,,,,,
,,,,,,3,0,3,0,1,X V Q F H G B L J M P D K C T S W R N Z,5f009c12dac7c81b0e9c0d06,36,Mężczyzna,2022-06-11_09h26.11.138,task,2021.1.4,Win32,120.0336094,6299f149e92ead563fba08ef,62a44339f345f1eaae8dbc77,,,,,,,,,,,,,,,,,,,,,,,,,,,,,,,,,,,,,,,,,,,,,,,,,,,,,,,,,,,,,,,,,,,,,,,,,,,,,,,,,,,,,,,,,,,,,,,,,,,,,
,,,,,,4,0,4,0,1,X V Q F H G B L J M P D K C T S W R N Z,5f009c12dac7c81b0e9c0d06,36,Mężczyzna,2022-06-11_09h26.11.138,task,2021.1.4,Win32,120.0336094,6299f149e92ead563fba08ef,62a44339f345f1eaae8dbc77,,,,,,,,,,,,,,,,,,,,,,,,,,,,,,,,,,,,,,,,,,,,,,,,,,,,,,,,,,,,,,,,,,,,,,,,,,,,,,,,,,,,,,,,,,,,,,,,,,,,,
,,,,,,,,,,,,5f009c12dac7c81b0e9c0d06,36,Mężczyzna,2022-06-11_09h26.11.138,task,2021.1.4,Win32,120.0336094,6299f149e92ead563fba08ef,62a44339f345f1eaae8dbc77,kxcsr,"[""k"",""x"",""c"",""s"",""r""]","[1.008899999999585,1.5086999999994077,1.7422999999998865,2.0703999999996086,2.2943999999995413,2.608799999999974]",1,KXCSR,8,0,8,0,1,,,,,,,,,,,,,,,,,,,,,,,,,,,,,,,,,,,,,,,,,,,,,,,,,,,,,,,,,,,,,,,,,,,,,,,,,,,,,,,,,,,,,,,,,,,
,,,,,,0,0,0,0,1,X V Q F H G B L J M P D K C T S W R N Z,5f009c12dac7c81b0e9c0d06,36,Mężczyzna,2022-06-11_09h26.11.138,task,2021.1.4,Win32,120.0336094,6299f149e92ead563fba08ef,62a44339f345f1eaae8dbc77,,,,,,,,,,,,,,,,,,,,,,,,,,,,,,,,,,,,,,,,,,,,,,,,,,,,,,,,,,,,,,,,,,,,,,,,,,,,,,,,,,,,,,,,,,,,,,,,,,,,,
,,,,,,1,0,1,0,1,X V Q F H G B L J M P D K C T S W R N Z,5f009c12dac7c81b0e9c0d06,36,Mężczyzna,2022-06-11_09h26.11.138,task,2021.1.4,Win32,120.0336094,6299f149e92ead563fba08ef,62a44339f345f1eaae8dbc77,,,,,,,,,,,,,,,,,,,,,,,,,,,,,,,,,,,,,,,,,,,,,,,,,,,,,,,,,,,,,,,,,,,,,,,,,,,,,,,,,,,,,,,,,,,,,,,,,,,,,
,,,,,,2,0,2,0,1,X V Q F H G B L J M P D K C T S W R N Z,5f009c12dac7c81b0e9c0d06,36,Mężczyzna,2022-06-11_09h26.11.138,task,2021.1.4,Win32,120.0336094,6299f149e92ead563fba08ef,62a44339f345f1eaae8dbc77,,,,,,,,,,,,,,,,,,,,,,,,,,,,,,,,,,,,,,,,,,,,,,,,,,,,,,,,,,,,,,,,,,,,,,,,,,,,,,,,,,,,,,,,,,,,,,,,,,,,,
,,,,,,3,0,3,0,1,X V Q F H G B L J M P D K C T S W R N Z,5f009c12dac7c81b0e9c0d06,36,Mężczyzna,2022-06-11_09h26.11.138,task,2021.1.4,Win32,120.0336094,6299f149e92ead563fba08ef,62a44339f345f1eaae8dbc77,,,,,,,,,,,,,,,,,,,,,,,,,,,,,,,,,,,,,,,,,,,,,,,,,,,,,,,,,,,,,,,,,,,,,,,,,,,,,,,,,,,,,,,,,,,,,,,,,,,,,
,,,,,,4,0,4,0,1,X V Q F H G B L J M P D K C T S W R N Z,5f009c12dac7c81b0e9c0d06,36,Mężczyzna,2022-06-11_09h26.11.138,task,2021.1.4,Win32,120.0336094,6299f149e92ead563fba08ef,62a44339f345f1eaae8dbc77,,,,,,,,,,,,,,,,,,,,,,,,,,,,,,,,,,,,,,,,,,,,,,,,,,,,,,,,,,,,,,,,,,,,,,,,,,,,,,,,,,,,,,,,,,,,,,,,,,,,,
,,,,,,5,0,5,0,1,X V Q F H G B L J M P D K C T S W R N Z,5f009c12dac7c81b0e9c0d06,36,Mężczyzna,2022-06-11_09h26.11.138,task,2021.1.4,Win32,120.0336094,6299f149e92ead563fba08ef,62a44339f345f1eaae8dbc77,,,,,,,,,,,,,,,,,,,,,,,,,,,,,,,,,,,,,,,,,,,,,,,,,,,,,,,,,,,,,,,,,,,,,,,,,,,,,,,,,,,,,,,,,,,,,,,,,,,,,
,,,,,,,,,,,,5f009c12dac7c81b0e9c0d06,36,Mężczyzna,2022-06-11_09h26.11.138,task,2021.1.4,Win32,120.0336094,6299f149e92ead563fba08ef,62a44339f345f1eaae8dbc77,bqwfns,"[""b"",""q"",""w"",""f"",""n"",""s""]","[0.7930999999996402,1.7337999999999738,3.6062999999999192,3.917500000000018,4.1422999999999774,4.653299999999945,5.045099999999593]",0,BQFWNS,9,0,9,0,1,,,,,,,,,,,,,,,,,,,,,,,,,,,,,,,,,,,,,,,,,,,,,,,,,,,,,,,,,,,,,,,,,,,,,,,,,,,,,,,,,,,,,,,,,,,
,,,,,,0,0,0,0,1,X V Q F H G B L J M P D K C T S W R N Z,5f009c12dac7c81b0e9c0d06,36,Mężczyzna,2022-06-11_09h26.11.138,task,2021.1.4,Win32,120.0336094,6299f149e92ead563fba08ef,62a44339f345f1eaae8dbc77,,,,,,,,,,,,,,,,,,,,,,,,,,,,,,,,,,,,,,,,,,,,,,,,,,,,,,,,,,,,,,,,,,,,,,,,,,,,,,,,,,,,,,,,,,,,,,,,,,,,,
,,,,,,1,0,1,0,1,X V Q F H G B L J M P D K C T S W R N Z,5f009c12dac7c81b0e9c0d06,36,Mężczyzna,2022-06-11_09h26.11.138,task,2021.1.4,Win32,120.0336094,6299f149e92ead563fba08ef,62a44339f345f1eaae8dbc77,,,,,,,,,,,,,,,,,,,,,,,,,,,,,,,,,,,,,,,,,,,,,,,,,,,,,,,,,,,,,,,,,,,,,,,,,,,,,,,,,,,,,,,,,,,,,,,,,,,,,
,,,,,,2,0,2,0,1,X V Q F H G B L J M P D K C T S W R N Z,5f009c12dac7c81b0e9c0d06,36,Mężczyzna,2022-06-11_09h26.11.138,task,2021.1.4,Win32,120.0336094,6299f149e92ead563fba08ef,62a44339f345f1eaae8dbc77,,,,,,,,,,,,,,,,,,,,,,,,,,,,,,,,,,,,,,,,,,,,,,,,,,,,,,,,,,,,,,,,,,,,,,,,,,,,,,,,,,,,,,,,,,,,,,,,,,,,,
,,,,,,3,0,3,0,1,X V Q F H G B L J M P D K C T S W R N Z,5f009c12dac7c81b0e9c0d06,36,Mężczyzna,2022-06-11_09h26.11.138,task,2021.1.4,Win32,120.0336094,6299f149e92ead563fba08ef,62a44339f345f1eaae8dbc77,,,,,,,,,,,,,,,,,,,,,,,,,,,,,,,,,,,,,,,,,,,,,,,,,,,,,,,,,,,,,,,,,,,,,,,,,,,,,,,,,,,,,,,,,,,,,,,,,,,,,
,,,,,,4,0,4,0,1,X V Q F H G B L J M P D K C T S W R N Z,5f009c12dac7c81b0e9c0d06,36,Mężczyzna,2022-06-11_09h26.11.138,task,2021.1.4,Win32,120.0336094,6299f149e92ead563fba08ef,62a44339f345f1eaae8dbc77,,,,,,,,,,,,,,,,,,,,,,,,,,,,,,,,,,,,,,,,,,,,,,,,,,,,,,,,,,,,,,,,,,,,,,,,,,,,,,,,,,,,,,,,,,,,,,,,,,,,,
,,,,,,5,0,5,0,1,X V Q F H G B L J M P D K C T S W R N Z,5f009c12dac7c81b0e9c0d06,36,Mężczyzna,2022-06-11_09h26.11.138,task,2021.1.4,Win32,120.0336094,6299f149e92ead563fba08ef,62a44339f345f1eaae8dbc77,,,,,,,,,,,,,,,,,,,,,,,,,,,,,,,,,,,,,,,,,,,,,,,,,,,,,,,,,,,,,,,,,,,,,,,,,,,,,,,,,,,,,,,,,,,,,,,,,,,,,
,,,,,,,,,,,,5f009c12dac7c81b0e9c0d06,36,Mężczyzna,2022-06-11_09h26.11.138,task,2021.1.4,Win32,120.0336094,6299f149e92ead563fba08ef,62a44339f345f1eaae8dbc77,xfmrtq,"[""x"",""f"",""m"",""r"",""t"",""q""]","[0.8589999999999236,1.617799999999761,1.7937999999996919,2.450299999999743,2.6928999999993266,2.8680999999994583,3.1139999999998054]",0,XMFRTQ,10,0,10,0,1,,,,,,,,,,,,,,,,,,,,,,,,,,,,,,,,,,,,,,,,,,,,,,,,,,,,,,,,,,,,,,,,,,,,,,,,,,,,,,,,,,,,,,,,,,,
,,,,,,0,0,0,0,1,X V Q F H G B L J M P D K C T S W R N Z,5f009c12dac7c81b0e9c0d06,36,Mężczyzna,2022-06-11_09h26.11.138,task,2021.1.4,Win32,120.0336094,6299f149e92ead563fba08ef,62a44339f345f1eaae8dbc77,,,,,,,,,,,,,,,,,,,,,,,,,,,,,,,,,,,,,,,,,,,,,,,,,,,,,,,,,,,,,,,,,,,,,,,,,,,,,,,,,,,,,,,,,,,,,,,,,,,,,
,,,,,,1,0,1,0,1,X V Q F H G B L J M P D K C T S W R N Z,5f009c12dac7c81b0e9c0d06,36,Mężczyzna,2022-06-11_09h26.11.138,task,2021.1.4,Win32,120.0336094,6299f149e92ead563fba08ef,62a44339f345f1eaae8dbc77,,,,,,,,,,,,,,,,,,,,,,,,,,,,,,,,,,,,,,,,,,,,,,,,,,,,,,,,,,,,,,,,,,,,,,,,,,,,,,,,,,,,,,,,,,,,,,,,,,,,,
,,,,,,2,0,2,0,1,X V Q F H G B L J M P D K C T S W R N Z,5f009c12dac7c81b0e9c0d06,36,Mężczyzna,2022-06-11_09h26.11.138,task,2021.1.4,Win32,120.0336094,6299f149e92ead563fba08ef,62a44339f345f1eaae8dbc77,,,,,,,,,,,,,,,,,,,,,,,,,,,,,,,,,,,,,,,,,,,,,,,,,,,,,,,,,,,,,,,,,,,,,,,,,,,,,,,,,,,,,,,,,,,,,,,,,,,,,
,,,,,,3,0,3,0,1,X V Q F H G B L J M P D K C T S W R N Z,5f009c12dac7c81b0e9c0d06,36,Mężczyzna,2022-06-11_09h26.11.138,task,2021.1.4,Win32,120.0336094,6299f149e92ead563fba08ef,62a44339f345f1eaae8dbc77,,,,,,,,,,,,,,,,,,,,,,,,,,,,,,,,,,,,,,,,,,,,,,,,,,,,,,,,,,,,,,,,,,,,,,,,,,,,,,,,,,,,,,,,,,,,,,,,,,,,,
,,,,,,4,0,4,0,1,X V Q F H G B L J M P D K C T S W R N Z,5f009c12dac7c81b0e9c0d06,36,Mężczyzna,2022-06-11_09h26.11.138,task,2021.1.4,Win32,120.0336094,6299f149e92ead563fba08ef,62a44339f345f1eaae8dbc77,,,,,,,,,,,,,,,,,,,,,,,,,,,,,,,,,,,,,,,,,,,,,,,,,,,,,,,,,,,,,,,,,,,,,,,,,,,,,,,,,,,,,,,,,,,,,,,,,,,,,
,,,,,,5,0,5,0,1,X V Q F H G B L J M P D K C T S W R N Z,5f009c12dac7c81b0e9c0d06,36,Mężczyzna,2022-06-11_09h26.11.138,task,2021.1.4,Win32,120.0336094,6299f149e92ead563fba08ef,62a44339f345f1eaae8dbc77,,,,,,,,,,,,,,,,,,,,,,,,,,,,,,,,,,,,,,,,,,,,,,,,,,,,,,,,,,,,,,,,,,,,,,,,,,,,,,,,,,,,,,,,,,,,,,,,,,,,,
,,,,,,,,,,,,5f009c12dac7c81b0e9c0d06,36,Mężczyzna,2022-06-11_09h26.11.138,task,2021.1.4,Win32,120.0336094,6299f149e92ead563fba08ef,62a44339f345f1eaae8dbc77,zfdnzt,"[""z"",""f"",""d"",""n"",""z"",""t""]","[0.917299999999841,1.2526000000004842,1.5006000000005315,1.7336000000004788,2.0685000000000855,2.2851000000005115,3.212700000000268]",1,ZFDNZT,11,0,11,0,1,,,,,,,,,,,,,,,,,,,,,,,,,,,,,,,,,,,,,,,,,,,,,,,,,,,,,,,,,,,,,,,,,,,,,,,,,,,,,,,,,,,,,,,,,,,
,,,,,,0,0,0,0,1,X V Q F H G B L J M P D K C T S W R N Z,5f009c12dac7c81b0e9c0d06,36,Mężczyzna,2022-06-11_09h26.11.138,task,2021.1.4,Win32,120.0336094,6299f149e92ead563fba08ef,62a44339f345f1eaae8dbc77,,,,,,,,,,,,,,,,,,,,,,,,,,,,,,,,,,,,,,,,,,,,,,,,,,,,,,,,,,,,,,,,,,,,,,,,,,,,,,,,,,,,,,,,,,,,,,,,,,,,,
,,,,,,1,0,1,0,1,X V Q F H G B L J M P D K C T S W R N Z,5f009c12dac7c81b0e9c0d06,36,Mężczyzna,2022-06-11_09h26.11.138,task,2021.1.4,Win32,120.0336094,6299f149e92ead563fba08ef,62a44339f345f1eaae8dbc77,,,,,,,,,,,,,,,,,,,,,,,,,,,,,,,,,,,,,,,,,,,,,,,,,,,,,,,,,,,,,,,,,,,,,,,,,,,,,,,,,,,,,,,,,,,,,,,,,,,,,
,,,,,,2,0,2,0,1,X V Q F H G B L J M P D K C T S W R N Z,5f009c12dac7c81b0e9c0d06,36,Mężczyzna,2022-06-11_09h26.11.138,task,2021.1.4,Win32,120.0336094,6299f149e92ead563fba08ef,62a44339f345f1eaae8dbc77,,,,,,,,,,,,,,,,,,,,,,,,,,,,,,,,,,,,,,,,,,,,,,,,,,,,,,,,,,,,,,,,,,,,,,,,,,,,,,,,,,,,,,,,,,,,,,,,,,,,,
,,,,,,3,0,3,0,1,X V Q F H G B L J M P D K C T S W R N Z,5f009c12dac7c81b0e9c0d06,36,Mężczyzna,2022-06-11_09h26.11.138,task,2021.1.4,Win32,120.0336094,6299f149e92ead563fba08ef,62a44339f345f1eaae8dbc77,,,,,,,,,,,,,,,,,,,,,,,,,,,,,,,,,,,,,,,,,,,,,,,,,,,,,,,,,,,,,,,,,,,,,,,,,,,,,,,,,,,,,,,,,,,,,,,,,,,,,
,,,,,,4,0,4,0,1,X V Q F H G B L J M P D K C T S W R N Z,5f009c12dac7c81b0e9c0d06,36,Mężczyzna,2022-06-11_09h26.11.138,task,2021.1.4,Win32,120.0336094,6299f149e92ead563fba08ef,62a44339f345f1eaae8dbc77,,,,,,,,,,,,,,,,,,,,,,,,,,,,,,,,,,,,,,,,,,,,,,,,,,,,,,,,,,,,,,,,,,,,,,,,,,,,,,,,,,,,,,,,,,,,,,,,,,,,,
,,,,,,5,0,5,0,1,X V Q F H G B L J M P D K C T S W R N Z,5f009c12dac7c81b0e9c0d06,36,Mężczyzna,2022-06-11_09h26.11.138,task,2021.1.4,Win32,120.0336094,6299f149e92ead563fba08ef,62a44339f345f1eaae8dbc77,,,,,,,,,,,,,,,,,,,,,,,,,,,,,,,,,,,,,,,,,,,,,,,,,,,,,,,,,,,,,,,,,,,,,,,,,,,,,,,,,,,,,,,,,,,,,,,,,,,,,
,,,,,,,,,,,,5f009c12dac7c81b0e9c0d06,36,Mężczyzna,2022-06-11_09h26.11.138,task,2021.1.4,Win32,120.0336094,6299f149e92ead563fba08ef,62a44339f345f1eaae8dbc77,fkxtgd,"[""f"",""k"",""x"",""t"",""g"",""d""]","[0.9418999999995776,1.2342999999998483,1.6585000000000036,2.3633999999995012,2.6265999999995984,2.9627999999997883,3.2917999999999665]",1,FKXTGD,12,0,12,0,1,,,,,,,,,,,,,,,,,,,,,,,,,,,,,,,,,,,,,,,,,,,,,,,,,,,,,,,,,,,,,,,,,,,,,,,,,,,,,,,,,,,,,,,,,,,
,,,,,,0,0,0,0,1,X V Q F H G B L J M P D K C T S W R N Z,5f009c12dac7c81b0e9c0d06,36,Mężczyzna,2022-06-11_09h26.11.138,task,2021.1.4,Win32,120.0336094,6299f149e92ead563fba08ef,62a44339f345f1eaae8dbc77,,,,,,,,,,,,,,,,,,,,,,,,,,,,,,,,,,,,,,,,,,,,,,,,,,,,,,,,,,,,,,,,,,,,,,,,,,,,,,,,,,,,,,,,,,,,,,,,,,,,,
,,,,,,1,0,1,0,1,X V Q F H G B L J M P D K C T S W R N Z,5f009c12dac7c81b0e9c0d06,36,Mężczyzna,2022-06-11_09h26.11.138,task,2021.1.4,Win32,120.0336094,6299f149e92ead563fba08ef,62a44339f345f1eaae8dbc77,,,,,,,,,,,,,,,,,,,,,,,,,,,,,,,,,,,,,,,,,,,,,,,,,,,,,,,,,,,,,,,,,,,,,,,,,,,,,,,,,,,,,,,,,,,,,,,,,,,,,
,,,,,,2,0,2,0,1,X V Q F H G B L J M P D K C T S W R N Z,5f009c12dac7c81b0e9c0d06,36,Mężczyzna,2022-06-11_09h26.11.138,task,2021.1.4,Win32,120.0336094,6299f149e92ead563fba08ef,62a44339f345f1eaae8dbc77,,,,,,,,,,,,,,,,,,,,,,,,,,,,,,,,,,,,,,,,,,,,,,,,,,,,,,,,,,,,,,,,,,,,,,,,,,,,,,,,,,,,,,,,,,,,,,,,,,,,,
,,,,,,3,0,3,0,1,X V Q F H G B L J M P D K C T S W R N Z,5f009c12dac7c81b0e9c0d06,36,Mężczyzna,2022-06-11_09h26.11.138,task,2021.1.4,Win32,120.0336094,6299f149e92ead563fba08ef,62a44339f345f1eaae8dbc77,,,,,,,,,,,,,,,,,,,,,,,,,,,,,,,,,,,,,,,,,,,,,,,,,,,,,,,,,,,,,,,,,,,,,,,,,,,,,,,,,,,,,,,,,,,,,,,,,,,,,
,,,,,,4,0,4,0,1,X V Q F H G B L J M P D K C T S W R N Z,5f009c12dac7c81b0e9c0d06,36,Mężczyzna,2022-06-11_09h26.11.138,task,2021.1.4,Win32,120.0336094,6299f149e92ead563fba08ef,62a44339f345f1eaae8dbc77,,,,,,,,,,,,,,,,,,,,,,,,,,,,,,,,,,,,,,,,,,,,,,,,,,,,,,,,,,,,,,,,,,,,,,,,,,,,,,,,,,,,,,,,,,,,,,,,,,,,,
,,,,,,5,0,5,0,1,X V Q F H G B L J M P D K C T S W R N Z,5f009c12dac7c81b0e9c0d06,36,Mężczyzna,2022-06-11_09h26.11.138,task,2021.1.4,Win32,120.0336094,6299f149e92ead563fba08ef,62a44339f345f1eaae8dbc77,,,,,,,,,,,,,,,,,,,,,,,,,,,,,,,,,,,,,,,,,,,,,,,,,,,,,,,,,,,,,,,,,,,,,,,,,,,,,,,,,,,,,,,,,,,,,,,,,,,,,
,,,,,,6,0,6,0,1,X V Q F H G B L J M P D K C T S W R N Z,5f009c12dac7c81b0e9c0d06,36,Mężczyzna,2022-06-11_09h26.11.138,task,2021.1.4,Win32,120.0336094,6299f149e92ead563fba08ef,62a44339f345f1eaae8dbc77,,,,,,,,,,,,,,,,,,,,,,,,,,,,,,,,,,,,,,,,,,,,,,,,,,,,,,,,,,,,,,,,,,,,,,,,,,,,,,,,,,,,,,,,,,,,,,,,,,,,,
,,,,,,,,,,,,5f009c12dac7c81b0e9c0d06,36,Mężczyzna,2022-06-11_09h26.11.138,task,2021.1.4,Win32,120.0336094,6299f149e92ead563fba08ef,62a44339f345f1eaae8dbc77,lwxtfxv,"[""l"",""w"",""x"",""t"",""f"",""x"",""v""]","[0.4752000000000862,0.818299999999681,1.1469000000004144,2.108500000000049,2.362900000000309,2.7380000000000564,3.842100000000528,4.122000000000071]",1,LWXTFXV,13,0,13,0,1,,,,,,,,,,,,,,,,,,,,,,,,,,,,,,,,,,,,,,,,,,,,,,,,,,,,,,,,,,,,,,,,,,,,,,,,,,,,,,,,,,,,,,,,,,,
,,,,,,0,0,0,0,1,X V Q F H G B L J M P D K C T S W R N Z,5f009c12dac7c81b0e9c0d06,36,Mężczyzna,2022-06-11_09h26.11.138,task,2021.1.4,Win32,120.0336094,6299f149e92ead563fba08ef,62a44339f345f1eaae8dbc77,,,,,,,,,,,,,,,,,,,,,,,,,,,,,,,,,,,,,,,,,,,,,,,,,,,,,,,,,,,,,,,,,,,,,,,,,,,,,,,,,,,,,,,,,,,,,,,,,,,,,
,,,,,,1,0,1,0,1,X V Q F H G B L J M P D K C T S W R N Z,5f009c12dac7c81b0e9c0d06,36,Mężczyzna,2022-06-11_09h26.11.138,task,2021.1.4,Win32,120.0336094,6299f149e92ead563fba08ef,62a44339f345f1eaae8dbc77,,,,,,,,,,,,,,,,,,,,,,,,,,,,,,,,,,,,,,,,,,,,,,,,,,,,,,,,,,,,,,,,,,,,,,,,,,,,,,,,,,,,,,,,,,,,,,,,,,,,,
,,,,,,2,0,2,0,1,X V Q F H G B L J M P D K C T S W R N Z,5f009c12dac7c81b0e9c0d06,36,Mężczyzna,2022-06-11_09h26.11.138,task,2021.1.4,Win32,120.0336094,6299f149e92ead563fba08ef,62a44339f345f1eaae8dbc77,,,,,,,,,,,,,,,,,,,,,,,,,,,,,,,,,,,,,,,,,,,,,,,,,,,,,,,,,,,,,,,,,,,,,,,,,,,,,,,,,,,,,,,,,,,,,,,,,,,,,
,,,,,,3,0,3,0,1,X V Q F H G B L J M P D K C T S W R N Z,5f009c12dac7c81b0e9c0d06,36,Mężczyzna,2022-06-11_09h26.11.138,task,2021.1.4,Win32,120.0336094,6299f149e92ead563fba08ef,62a44339f345f1eaae8dbc77,,,,,,,,,,,,,,,,,,,,,,,,,,,,,,,,,,,,,,,,,,,,,,,,,,,,,,,,,,,,,,,,,,,,,,,,,,,,,,,,,,,,,,,,,,,,,,,,,,,,,
,,,,,,4,0,4,0,1,X V Q F H G B L J M P D K C T S W R N Z,5f009c12dac7c81b0e9c0d06,36,Mężczyzna,2022-06-11_09h26.11.138,task,2021.1.4,Win32,120.0336094,6299f149e92ead563fba08ef,62a44339f345f1eaae8dbc77,,,,,,,,,,,,,,,,,,,,,,,,,,,,,,,,,,,,,,,,,,,,,,,,,,,,,,,,,,,,,,,,,,,,,,,,,,,,,,,,,,,,,,,,,,,,,,,,,,,,,
,,,,,,5,0,5,0,1,X V Q F H G B L J M P D K C T S W R N Z,5f009c12dac7c81b0e9c0d06,36,Mężczyzna,2022-06-11_09h26.11.138,task,2021.1.4,Win32,120.0336094,6299f149e92ead563fba08ef,62a44339f345f1eaae8dbc77,,,,,,,,,,,,,,,,,,,,,,,,,,,,,,,,,,,,,,,,,,,,,,,,,,,,,,,,,,,,,,,,,,,,,,,,,,,,,,,,,,,,,,,,,,,,,,,,,,,,,
,,,,,,6,0,6,0,1,X V Q F H G B L J M P D K C T S W R N Z,5f009c12dac7c81b0e9c0d06,36,Mężczyzna,2022-06-11_09h26.11.138,task,2021.1.4,Win32,120.0336094,6299f149e92ead563fba08ef,62a44339f345f1eaae8dbc77,,,,,,,,,,,,,,,,,,,,,,,,,,,,,,,,,,,,,,,,,,,,,,,,,,,,,,,,,,,,,,,,,,,,,,,,,,,,,,,,,,,,,,,,,,,,,,,,,,,,,
,,,,,,,,,,,,5f009c12dac7c81b0e9c0d06,36,Mężczyzna,2022-06-11_09h26.11.138,task,2021.1.4,Win32,120.0336094,6299f149e92ead563fba08ef,62a44339f345f1eaae8dbc77,hhxjqbh,"[""h"",""h"",""x"",""j"",""q"",""b"",""h""]","[1.4086000000006607,1.584100000000717,1.7683000000008633,2.0421000000005733,2.9764999999999873,3.2172000000002754,3.5752000000002226,3.888600000000679]",0,HHZJBQH,14,0,14,0,1,,,,,,,,,,,,,,,,,,,,,,,,,,,,,,,,,,,,,,,,,,,,,,,,,,,,,,,,,,,,,,,,,,,,,,,,,,,,,,,,,,,,,,,,,,,
,,,,,,0,0,0,0,1,X V Q F H G B L J M P D K C T S W R N Z,5f009c12dac7c81b0e9c0d06,36,Mężczyzna,2022-06-11_09h26.11.138,task,2021.1.4,Win32,120.0336094,6299f149e92ead563fba08ef,62a44339f345f1eaae8dbc77,,,,,,,,,,,,,,,,,,,,,,,,,,,,,,,,,,,,,,,,,,,,,,,,,,,,,,,,,,,,,,,,,,,,,,,,,,,,,,,,,,,,,,,,,,,,,,,,,,,,,
,,,,,,1,0,1,0,1,X V Q F H G B L J M P D K C T S W R N Z,5f009c12dac7c81b0e9c0d06,36,Mężczyzna,2022-06-11_09h26.11.138,task,2021.1.4,Win32,120.0336094,6299f149e92ead563fba08ef,62a44339f345f1eaae8dbc77,,,,,,,,,,,,,,,,,,,,,,,,,,,,,,,,,,,,,,,,,,,,,,,,,,,,,,,,,,,,,,,,,,,,,,,,,,,,,,,,,,,,,,,,,,,,,,,,,,,,,
,,,,,,2,0,2,0,1,X V Q F H G B L J M P D K C T S W R N Z,5f009c12dac7c81b0e9c0d06,36,Mężczyzna,2022-06-11_09h26.11.138,task,2021.1.4,Win32,120.0336094,6299f149e92ead563fba08ef,62a44339f345f1eaae8dbc77,,,,,,,,,,,,,,,,,,,,,,,,,,,,,,,,,,,,,,,,,,,,,,,,,,,,,,,,,,,,,,,,,,,,,,,,,,,,,,,,,,,,,,,,,,,,,,,,,,,,,
,,,,,,3,0,3,0,1,X V Q F H G B L J M P D K C T S W R N Z,5f009c12dac7c81b0e9c0d06,36,Mężczyzna,2022-06-11_09h26.11.138,task,2021.1.4,Win32,120.0336094,6299f149e92ead563fba08ef,62a44339f345f1eaae8dbc77,,,,,,,,,,,,,,,,,,,,,,,,,,,,,,,,,,,,,,,,,,,,,,,,,,,,,,,,,,,,,,,,,,,,,,,,,,,,,,,,,,,,,,,,,,,,,,,,,,,,,
,,,,,,4,0,4,0,1,X V Q F H G B L J M P D K C T S W R N Z,5f009c12dac7c81b0e9c0d06,36,Mężczyzna,2022-06-11_09h26.11.138,task,2021.1.4,Win32,120.0336094,6299f149e92ead563fba08ef,62a44339f345f1eaae8dbc77,,,,,,,,,,,,,,,,,,,,,,,,,,,,,,,,,,,,,,,,,,,,,,,,,,,,,,,,,,,,,,,,,,,,,,,,,,,,,,,,,,,,,,,,,,,,,,,,,,,,,
,,,,,,5,0,5,0,1,X V Q F H G B L J M P D K C T S W R N Z,5f009c12dac7c81b0e9c0d06,36,Mężczyzna,2022-06-11_09h26.11.138,task,2021.1.4,Win32,120.0336094,6299f149e92ead563fba08ef,62a44339f345f1eaae8dbc77,,,,,,,,,,,,,,,,,,,,,,,,,,,,,,,,,,,,,,,,,,,,,,,,,,,,,,,,,,,,,,,,,,,,,,,,,,,,,,,,,,,,,,,,,,,,,,,,,,,,,
,,,,,,6,0,6,0,1,X V Q F H G B L J M P D K C T S W R N Z,5f009c12dac7c81b0e9c0d06,36,Mężczyzna,2022-06-11_09h26.11.138,task,2021.1.4,Win32,120.0336094,6299f149e92ead563fba08ef,62a44339f345f1eaae8dbc77,,,,,,,,,,,,,,,,,,,,,,,,,,,,,,,,,,,,,,,,,,,,,,,,,,,,,,,,,,,,,,,,,,,,,,,,,,,,,,,,,,,,,,,,,,,,,,,,,,,,,
,,,,,,,,,,,,5f009c12dac7c81b0e9c0d06,36,Mężczyzna,2022-06-11_09h26.11.138,task,2021.1.4,Win32,120.0336094,6299f149e92ead563fba08ef,62a44339f345f1eaae8dbc77,dlpbnvd,"[""d"",""l"",""p"",""b"",""n"",""v"",""d""]","[0.6874000000002525,0.8834999999999127,1.0262999999997646,1.7032000000001517,1.9514000000003762,2.13359999999966,2.511299999999892,2.71129999999971]",0,DLPNBVD,15,0,15,0,1,,,,,,,,,,,,,,,,,,,,,,,,,,,,,,,,,,,,,,,,,,,,,,,,,,,,,,,,,,,,,,,,,,,,,,,,,,,,,,,,,,,,,,,,,,,
,,,,,,0,0,0,0,1,X V Q F H G B L J M P D K C T S W R N Z,5f009c12dac7c81b0e9c0d06,36,Mężczyzna,2022-06-11_09h26.11.138,task,2021.1.4,Win32,120.0336094,6299f149e92ead563fba08ef,62a44339f345f1eaae8dbc77,,,,,,,,,,,,,,,,,,,,,,,,,,,,,,,,,,,,,,,,,,,,,,,,,,,,,,,,,,,,,,,,,,,,,,,,,,,,,,,,,,,,,,,,,,,,,,,,,,,,,
,,,,,,1,0,1,0,1,X V Q F H G B L J M P D K C T S W R N Z,5f009c12dac7c81b0e9c0d06,36,Mężczyzna,2022-06-11_09h26.11.138,task,2021.1.4,Win32,120.0336094,6299f149e92ead563fba08ef,62a44339f345f1eaae8dbc77,,,,,,,,,,,,,,,,,,,,,,,,,,,,,,,,,,,,,,,,,,,,,,,,,,,,,,,,,,,,,,,,,,,,,,,,,,,,,,,,,,,,,,,,,,,,,,,,,,,,,
,,,,,,2,0,2,0,1,X V Q F H G B L J M P D K C T S W R N Z,5f009c12dac7c81b0e9c0d06,36,Mężczyzna,2022-06-11_09h26.11.138,task,2021.1.4,Win32,120.0336094,6299f149e92ead563fba08ef,62a44339f345f1eaae8dbc77,,,,,,,,,,,,,,,,,,,,,,,,,,,,,,,,,,,,,,,,,,,,,,,,,,,,,,,,,,,,,,,,,,,,,,,,,,,,,,,,,,,,,,,,,,,,,,,,,,,,,
,,,,,,3,0,3,0,1,X V Q F H G B L J M P D K C T S W R N Z,5f009c12dac7c81b0e9c0d06,36,Mężczyzna,2022-06-11_09h26.11.138,task,2021.1.4,Win32,120.0336094,6299f149e92ead563fba08ef,62a44339f345f1eaae8dbc77,,,,,,,,,,,,,,,,,,,,,,,,,,,,,,,,,,,,,,,,,,,,,,,,,,,,,,,,,,,,,,,,,,,,,,,,,,,,,,,,,,,,,,,,,,,,,,,,,,,,,
,,,,,,4,0,4,0,1,X V Q F H G B L J M P D K C T S W R N Z,5f009c12dac7c81b0e9c0d06,36,Mężczyzna,2022-06-11_09h26.11.138,task,2021.1.4,Win32,120.0336094,6299f149e92ead563fba08ef,62a44339f345f1eaae8dbc77,,,,,,,,,,,,,,,,,,,,,,,,,,,,,,,,,,,,,,,,,,,,,,,,,,,,,,,,,,,,,,,,,,,,,,,,,,,,,,,,,,,,,,,,,,,,,,,,,,,,,
,,,,,,5,0,5,0,1,X V Q F H G B L J M P D K C T S W R N Z,5f009c12dac7c81b0e9c0d06,36,Mężczyzna,2022-06-11_09h26.11.138,task,2021.1.4,Win32,120.0336094,6299f149e92ead563fba08ef,62a44339f345f1eaae8dbc77,,,,,,,,,,,,,,,,,,,,,,,,,,,,,,,,,,,,,,,,,,,,,,,,,,,,,,,,,,,,,,,,,,,,,,,,,,,,,,,,,,,,,,,,,,,,,,,,,,,,,
,,,,,,6,0,6,0,1,X V Q F H G B L J M P D K C T S W R N Z,5f009c12dac7c81b0e9c0d06,36,Mężczyzna,2022-06-11_09h26.11.138,task,2021.1.4,Win32,120.0336094,6299f149e92ead563fba08ef,62a44339f345f1eaae8dbc77,,,,,,,,,,,,,,,,,,,,,,,,,,,,,,,,,,,,,,,,,,,,,,,,,,,,,,,,,,,,,,,,,,,,,,,,,,,,,,,,,,,,,,,,,,,,,,,,,,,,,
,,,,,,,,,,,,5f009c12dac7c81b0e9c0d06,36,Mężczyzna,2022-06-11_09h26.11.138,task,2021.1.4,Win32,120.0336094,6299f149e92ead563fba08ef,62a44339f345f1eaae8dbc77,htnxlmd,"[""h"",""t"",""n"",""x"",""l"",""m"",""d""]","[3.3255000000001473,3.517700000000332,3.6627000000003136,4.1588999999994485,4.350500000000011,4.542099999999664,6.069599999999809,6.301500000000033]",0,HTNXMLQ,16,0,16,0,1,,,,,,,,,,,,,,,,,,,,,,,,,,,,,,,,,,,,,,,,,,,,,,,,,,,,,,,,,,,,,,,,,,,,,,,,,,,,,,,,,,,,,,,,,,,
,,,,,,,,,,,,5f009c12dac7c81b0e9c0d06,36,Mężczyzna,2022-06-11_09h26.11.138,task,2021.1.4,Win32,120.0336094,6299f149e92ead563fba08ef,62a44339f345f1eaae8dbc77,,,,,,,,,,,space,14.1606,3,"[""3""]",1,[5.279599999999618],[5.279599999999618],0,0,0,3,1,Practice,4,(8/4) + 1,3,,,,,,,,,,,,,,,,,,,,,,,,,,,,,,,,,,,,,,,,,,,,,,,,,,,,,,,,,,,,,,,,,,,,,,,,,,,
,,,,,,,,,,,,5f009c12dac7c81b0e9c0d06,36,Mężczyzna,2022-06-11_09h26.11.138,task,2021.1.4,Win32,120.0336094,6299f149e92ead563fba08ef,62a44339f345f1eaae8dbc77,,,,,,,,,,,,,8,"[""8""]",1,[2.1312000000002627],"[5.279599999999618,2.1312000000002627]",0,1,1,8,1,Practice,9,(3x3) - 1,8,,,,,,,,,,,,,,,,,,,,,,,,,,,,,,,,,,,,,,,,,,,,,,,,,,,,,,,,,,,,,,,,,,,,,,,,,,,
,,,,,,,,,,,,5f009c12dac7c81b0e9c0d06,36,Mężczyzna,2022-06-11_09h26.11.138,task,2021.1.4,Win32,120.0336094,6299f149e92ead563fba08ef,62a44339f345f1eaae8dbc77,,,,,,,,,,,,,7,"[""7""]",1,[2.525599999999713],"[5.279599999999618,2.1312000000002627,2.525599999999713]",0,2,2,7,1,Practice,8,(5x5) - 18,7,,,,,,,,,,,,,,,,,,,,,,,,,,,,,,,,,,,,,,,,,,,,,,,,,,,,,,,,,,,,,,,,,,,,,,,,,,,
,,,,,,,,,,,,5f009c12dac7c81b0e9c0d06,36,Mężczyzna,2022-06-11_09h26.11.138,task,2021.1.4,Win32,120.0336094,6299f149e92ead563fba08ef,62a44339f345f1eaae8dbc77,,,,,,,,,,,,,1,"[""1""]",1,[1.7022000000001754],"[5.279599999999618,2.1312000000002627,2.525599999999713,1.7022000000001754]",0,3,3,1,1,Practice,2,(4x4) - 15,1,,,,,,,,,,,,,,,,,,,,,,,,,,,,,,,,,,,,,,,,,,,,,,,,,,,,,,,,,,,,,,,,,,,,,,,,,,,
,,,,,,,,,,,,5f009c12dac7c81b0e9c0d06,36,Mężczyzna,2022-06-11_09h26.11.138,task,2021.1.4,Win32,120.0336094,6299f149e92ead563fba08ef,62a44339f345f1eaae8dbc77,,,,,,,,,,,,,5,"[""5""]",1,[1.8837000000003172],"[5.279599999999618,2.1312000000002627,2.525599999999713,1.7022000000001754,1.8837000000003172]",0,4,4,5,1,Practice,6,(4/2) + 3,5,,,,,,,,,,,,,,,,,,,,,,,,,,,,,,,,,,,,,,,,,,,,,,,,,,,,,,,,,,,,,,,,,,,,,,,,,,,
,,,,,,,,,,,,5f009c12dac7c81b0e9c0d06,36,Mężczyzna,2022-06-11_09h26.11.138,task,2021.1.4,Win32,120.0336094,6299f149e92ead563fba08ef,62a44339f345f1eaae8dbc77,,,,,,,,,,,,,0,"[""0""]",0,[2.0616999999999734],"[5.279599999999618,2.1312000000002627,2.525599999999713,1.7022000000001754,1.8837000000003172,2.0616999999999734]",0,5,5,2,1,Practice,3,(4x4) - 14,2,,,,,,,,,,,,,,,,,,,,,,,,,,,,,,,,,,,,,,,,,,,,,,,,,,,,,,,,,,,,,,,,,,,,,,,,,,,
,,,,,,,,,,,,5f009c12dac7c81b0e9c0d06,36,Mężczyzna,2022-06-11_09h26.11.138,task,2021.1.4,Win32,120.0336094,6299f149e92ead563fba08ef,62a44339f345f1eaae8dbc77,,,,,,,,,,,,,9,"[""9""]",1,[2.0835999999994783],"[5.279599999999618,2.1312000000002627,2.525599999999713,1.7022000000001754,1.8837000000003172,2.0616999999999734,2.0835999999994783]",0,6,6,9,1,Practice,10,(20/2) - 1,9,,,,,,,,,,,,,,,,,,,,,,,,,,,,,,,,,,,,,,,,,,,,,,,,,,,,,,,,,,,,,,,,,,,,,,,,,,,
,,,,,,,,,,,,5f009c12dac7c81b0e9c0d06,36,Mężczyzna,2022-06-11_09h26.11.138,task,2021.1.4,Win32,120.0336094,6299f149e92ead563fba08ef,62a44339f345f1eaae8dbc77,,,,,,,,,,,,,6,"[""6""]",1,[1.5169999999998254],"[5.279599999999618,2.1312000000002627,2.525599999999713,1.7022000000001754,1.8837000000003172,2.0616999999999734,2.0835999999994783,1.5169999999998254]",0,7,7,6,1,Practice,7,(25/5) + 1,6,,,,,,,,,,,,,,,,,,,,,,,,,,,,,,,,,,,,,,,,,,,,,,,,,,,,,,,,,,,,,,,,,,,,,,,,,,,
,,,,,,,,,,,,5f009c12dac7c81b0e9c0d06,36,Mężczyzna,2022-06-11_09h26.11.138,task,2021.1.4,Win32,120.0336094,6299f149e92ead563fba08ef,62a44339f345f1eaae8dbc77,,,,,,,,,,,,,4,"[""4""]",1,[4.575700000000097],"[5.279599999999618,2.1312000000002627,2.525599999999713,1.7022000000001754,1.8837000000003172,2.0616999999999734,2.0835999999994783,1.5169999999998254,4.575700000000097]",0,8,8,4,1,Practice,5,(2x6) - 8,4,,,,,,,,,,,,,,,,,,,,,,,,,,,,,,,,,,,,,,,,,,,,,,,,,,,,,,,,,,,,,,,,,,,,,,,,,,,
,,,,,,,,,,,,5f009c12dac7c81b0e9c0d06,36,Mężczyzna,2022-06-11_09h26.11.138,task,2021.1.4,Win32,120.0336094,6299f149e92ead563fba08ef,62a44339f345f1eaae8dbc77,,,,,,,,,,,,,0,"[""0""]",1,[2.9926000000004933],"[5.279599999999618,2.1312000000002627,2.525599999999713,1.7022000000001754,1.8837000000003172,2.0616999999999734,2.0835999999994783,1.5169999999998254,4.575700000000097,2.9926000000004933]",0,9,9,0,1,Practice,1,(3x3) -  9,0,,,,,,,,,,,,,,,,,,,,,,,,,,,,,,,,,,,,,,,,,,,,,,,,,,,,,,,,,,,,,,,,,,,,,,,,,,,
,,,,,,,,,,,,5f009c12dac7c81b0e9c0d06,36,Mężczyzna,2022-06-11_09h26.11.138,task,2021.1.4,Win32,120.0336094,6299f149e92ead563fba08ef,62a44339f345f1eaae8dbc77,,,,,,,,,,,,,,,,,,,,,,,,,,,0.9,26.7529,1.783526667,22.40727818,1.222218698,4.936850907,space,1.9342,0,0,0,0,1,,,,,,,,,,,,,,,,,,,,,,,,,,,,,,,,,,,,,,,,,,,,,,,,,,,,,,,,,,,,,,
,,,,,,,,,,,,5f009c12dac7c81b0e9c0d06,36,Mężczyzna,2022-06-11_09h26.11.138,task,2021.1.4,Win32,120.0336094,6299f149e92ead563fba08ef,62a44339f345f1eaae8dbc77,,,,,,,,,,,,,1,,,,,,,,,,Practice,2,(4x4) - 15,1,,,,,,,,,,,,,,space,11.9896,"[""1""]",1,[1.6340000000000146],1,0,0,0,1,1,,,,,,,,,,,,,,,,,,,,,,,,,,,,,,,,,,,,,,,,,,,,,,,,,,,
,,,,,,,,,,,X V Q F H G B L J M P D K C T S W R N Z,5f009c12dac7c81b0e9c0d06,36,Mężczyzna,2022-06-11_09h26.11.138,task,2021.1.4,Win32,120.0336094,6299f149e92ead563fba08ef,62a44339f345f1eaae8dbc77,,,,,,,,,,,,,,,,,,,,,,,,,,,,,,,,,,,,,,,,,,,,,,,,,,,0,0,0,0,1,,,,,,,,,,,,,,,,,,,,,,,,,,,,,,,,,,,,,,,,,,,,,,
,,,,,,,,,,,,5f009c12dac7c81b0e9c0d06,36,Mężczyzna,2022-06-11_09h26.11.138,task,2021.1.4,Win32,120.0336094,6299f149e92ead563fba08ef,62a44339f345f1eaae8dbc77,,,,,,,,,,,,,8,,,,,,,,,,Practice,9,(3x3) - 1,8,,,,,,,,,,,,,,,,"[""8""]",1,[2.352700000000141],1,0,0,0,8,1,,,,,,,,,,,,,,,,,,,,,,,,,,,,,,,,,,,,,,,,,,,,,,,,,,,
,,,,,,,,,,,X V Q F H G B L J M P D K C T S W R N Z,5f009c12dac7c81b0e9c0d06,36,Mężczyzna,2022-06-11_09h26.11.138,task,2021.1.4,Win32,120.0336094,6299f149e92ead563fba08ef,62a44339f345f1eaae8dbc77,,,,,,,,,,,,,,,,,,,,,,,,,,,,,,,,,,,,,,,,,,,,,,,,,,,1,0,1,0,1,,,,,,,,,,,,,,,,,,,,,,,,,,,,,,,,,,,,,,,,,,,,,,
,,,,,,,,,,,,5f009c12dac7c81b0e9c0d06,36,Mężczyzna,2022-06-11_09h26.11.138,task,2021.1.4,Win32,120.0336094,6299f149e92ead563fba08ef,62a44339f345f1eaae8dbc77,,,,,,,,,,,,,,,,,,,,,,,,,,,,,,,,,,,,,,,,,,,,,,,,,,,,,,,,zc,"[""z"",""c""]",0,"[1.7881000000004406,2.2512000000001535,2.596600000000535]",1,0,0,0,0,1,,,,,,,,,,,,,,,,,,,,,,,,,,,,,,,,,,,,
,,,,,,,,,,,,5f009c12dac7c81b0e9c0d06,36,Mężczyzna,2022-06-11_09h26.11.138,task,2021.1.4,Win32,120.0336094,6299f149e92ead563fba08ef,62a44339f345f1eaae8dbc77,,,,,,,,,,,,,8,,,,,,,,,,Practice,9,(3x3) - 1,8,,,,,,,,,,,,,,,,"[""8""]",1,[1.5727999999999156],1,0,0,0,8,1,,,,,,,,,,,,,,,,,,,,,,,,,,,,,,,,,,,,,,,,,,,,,,,,,,,
,,,,,,,,,,,X V Q F H G B L J M P D K C T S W R N Z,5f009c12dac7c81b0e9c0d06,36,Mężczyzna,2022-06-11_09h26.11.138,task,2021.1.4,Win32,120.0336094,6299f149e92ead563fba08ef,62a44339f345f1eaae8dbc77,,,,,,,,,,,,,,,,,,,,,,,,,,,,,,,,,,,,,,,,,,,,,,,,,,,0,0,0,0,1,,,,,,,,,,,,,,,,,,,,,,,,,,,,,,,,,,,,,,,,,,,,,,
,,,,,,,,,,,,5f009c12dac7c81b0e9c0d06,36,Mężczyzna,2022-06-11_09h26.11.138,task,2021.1.4,Win32,120.0336094,6299f149e92ead563fba08ef,62a44339f345f1eaae8dbc77,,,,,,,,,,,,,4,,,,,,,,,,Practice,5,(2x6) - 8,4,,,,,,,,,,,,,,,,"[""4""]",1,[2.8505999999997584],1,0,0,0,4,1,,,,,,,,,,,,,,,,,,,,,,,,,,,,,,,,,,,,,,,,,,,,,,,,,,,
,,,,,,,,,,,X V Q F H G B L J M P D K C T S W R N Z,5f009c12dac7c81b0e9c0d06,36,Mężczyzna,2022-06-11_09h26.11.138,task,2021.1.4,Win32,120.0336094,6299f149e92ead563fba08ef,62a44339f345f1eaae8dbc77,,,,,,,,,,,,,,,,,,,,,,,,,,,,,,,,,,,,,,,,,,,,,,,,,,,1,0,1,0,1,,,,,,,,,,,,,,,,,,,,,,,,,,,,,,,,,,,,,,,,,,,,,,
,,,,,,,,,,,,5f009c12dac7c81b0e9c0d06,36,Mężczyzna,2022-06-11_09h26.11.138,task,2021.1.4,Win32,120.0336094,6299f149e92ead563fba08ef,62a44339f345f1eaae8dbc77,,,,,,,,,,,,,,,,,,,,,,,,,,,,,,,,,,,,,,,,,,,,,,,,,,,,,,,,lj,"[""l"",""j""]",0,"[1.2986000000005333,1.7490000000000236,2.1692999999997937]",1,1,0,1,0,1,,,,,,,,,,,,,,,,,,,,,,,,,,,,,,,,,,,,
,,,,,,,,,,,,5f009c12dac7c81b0e9c0d06,36,Mężczyzna,2022-06-11_09h26.11.138,task,2021.1.4,Win32,120.0336094,6299f149e92ead563fba08ef,62a44339f345f1eaae8dbc77,,,,,,,,,,,,,2,,,,,,,,,,Practice,3,(4x4) - 14,2,,,,,,,,,,,,,,,,"[""2""]",1,[2.065599999999449],1,0,0,0,2,1,,,,,,,,,,,,,,,,,,,,,,,,,,,,,,,,,,,,,,,,,,,,,,,,,,,
,,,,,,,,,,,X V Q F H G B L J M P D K C T S W R N Z,5f009c12dac7c81b0e9c0d06,36,Mężczyzna,2022-06-11_09h26.11.138,task,2021.1.4,Win32,120.0336094,6299f149e92ead563fba08ef,62a44339f345f1eaae8dbc77,,,,,,,,,,,,,,,,,,,,,,,,,,,,,,,,,,,,,,,,,,,,,,,,,,,0,0,0,0,1,,,,,,,,,,,,,,,,,,,,,,,,,,,,,,,,,,,,,,,,,,,,,,
,,,,,,,,,,,,5f009c12dac7c81b0e9c0d06,36,Mężczyzna,2022-06-11_09h26.11.138,task,2021.1.4,Win32,120.0336094,6299f149e92ead563fba08ef,62a44339f345f1eaae8dbc77,,,,,,,,,,,,,5,,,,,,,,,,Practice,6,(4/2) + 3,5,,,,,,,,,,,,,,,,"[""5""]",1,[1.7471999999991112],1,0,0,0,5,1,,,,,,,,,,,,,,,,,,,,,,,,,,,,,,,,,,,,,,,,,,,,,,,,,,,
,,,,,,,,,,,X V Q F H G B L J M P D K C T S W R N Z,5f009c12dac7c81b0e9c0d06,36,Mężczyzna,2022-06-11_09h26.11.138,task,2021.1.4,Win32,120.0336094,6299f149e92ead563fba08ef,62a44339f345f1eaae8dbc77,,,,,,,,,,,,,,,,,,,,,,,,,,,,,,,,,,,,,,,,,,,,,,,,,,,1,0,1,0,1,,,,,,,,,,,,,,,,,,,,,,,,,,,,,,,,,,,,,,,,,,,,,,
,,,,,,,,,,,,5f009c12dac7c81b0e9c0d06,36,Mężczyzna,2022-06-11_09h26.11.138,task,2021.1.4,Win32,120.0336094,6299f149e92ead563fba08ef,62a44339f345f1eaae8dbc77,,,,,,,,,,,,,,,,,,,,,,,,,,,,,,,,,,,,,,,,,,,,,,,,,,,,,,,,lp,"[""l"",""p""]",0,"[1.4109000000003107,1.674900000000207,1.9242000000001553]",1,2,0,2,0,1,,,,,,,,,,,,,,,,,,,,,,,,,,,,,,,,,,,,
,,,,,,,,,,,,5f009c12dac7c81b0e9c0d06,36,Mężczyzna,2022-06-11_09h26.11.138,task,2021.1.4,Win32,120.0336094,6299f149e92ead563fba08ef,62a44339f345f1eaae8dbc77,,,,,,,,,,,,,9,,,,,,,,,,Task,40,(7x2) - 5,9,,,,,,,,,,,,,,,,,,,1,,,,,,,,,,,,,,,,,,,,,space,16.8689,"[""9""]",1,[2.478600000000597],0,0,0,39,1,,,,,,,,,,,,,,,,,,,,,,,,,,
,,,,,,,,,,,X V Q F H G B L J M P D K C T S W R N Z,5f009c12dac7c81b0e9c0d06,36,Mężczyzna,2022-06-11_09h26.11.138,task,2021.1.4,Win32,120.0336094,6299f149e92ead563fba08ef,62a44339f345f1eaae8dbc77,,,,,,,,,,,,,,,,,,,,,,,,,,,,,,,,,,,,,,,,,,,,,,,,,,,,,,,,,,,,,,,,,,,,,,,,,,,,0,0,0,0,1,,,,,,,,,,,,,,,,,,,,,
,,,,,,,,,,,,5f009c12dac7c81b0e9c0d06,36,Mężczyzna,2022-06-11_09h26.11.138,task,2021.1.4,Win32,120.0336094,6299f149e92ead563fba08ef,62a44339f345f1eaae8dbc77,,,,,,,,,,,,,2,,,,,,,,,,Task,26,(2x9) - 16,2,,,,,,,,,,,,,,,,,,,1,,,,,,,,,,,,,,,,,,,,,,,"[""2""]",1,[3.767900000000509],0,0,0,25,1,,,,,,,,,,,,,,,,,,,,,,,,,,
,,,,,,,,,,,X V Q F H G B L J M P D K C T S W R N Z,5f009c12dac7c81b0e9c0d06,36,Mężczyzna,2022-06-11_09h26.11.138,task,2021.1.4,Win32,120.0336094,6299f149e92ead563fba08ef,62a44339f345f1eaae8dbc77,,,,,,,,,,,,,,,,,,,,,,,,,,,,,,,,,,,,,,,,,,,,,,,,,,,,,,,,,,,,,,,,,,,,,,,,,,,,1,0,1,0,1,,,,,,,,,,,,,,,,,,,,,
,,,,,,,,,,,,5f009c12dac7c81b0e9c0d06,36,Mężczyzna,2022-06-11_09h26.11.138,task,2021.1.4,Win32,120.0336094,6299f149e92ead563fba08ef,62a44339f345f1eaae8dbc77,,,,,,,,,,,,,,,,,,,,,,,,,,,,,,,,,,,,,,,,,,,,,,,,,,,,,,,,,,,,,,,,,,,,,,,,,,,,,,,,,zl,"[""z"",""l""]",0,"[0.954099999999471,1.1699000000003252,1.4757999999997082]",1,ZL,0,0,0,0,1,,,,,,,,,,
,,,,,,,,,,,,5f009c12dac7c81b0e9c0d06,36,Mężczyzna,2022-06-11_09h26.11.138,task,2021.1.4,Win32,120.0336094,6299f149e92ead563fba08ef,62a44339f345f1eaae8dbc77,,,,,,,,,,,,,4,,,,,,,,,,Task,11,(18/3) - 2,4,,,,,,,,,,,,,,,,,,,1,,,,,,,,,,,,,,,,,,,,,,,"[""4""]",1,[2.7500999999997475],0,0,0,10,1,,,,,,,,,,,,,,,,,,,,,,,,,,
,,,,,,,,,,,X V Q F H G B L J M P D K C T S W R N Z,5f009c12dac7c81b0e9c0d06,36,Mężczyzna,2022-06-11_09h26.11.138,task,2021.1.4,Win32,120.0336094,6299f149e92ead563fba08ef,62a44339f345f1eaae8dbc77,,,,,,,,,,,,,,,,,,,,,,,,,,,,,,,,,,,,,,,,,,,,,,,,,,,,,,,,,,,,,,,,,,,,,,,,,,,,0,0,0,0,1,,,,,,,,,,,,,,,,,,,,,
,,,,,,,,,,,,5f009c12dac7c81b0e9c0d06,36,Mężczyzna,2022-06-11_09h26.11.138,task,2021.1.4,Win32,120.0336094,6299f149e92ead563fba08ef,62a44339f345f1eaae8dbc77,,,,,,,,,,,,,0,,,,,,,,,,Task,8,(1x5) - 5,0,,,,,,,,,,,,,,,,,,,1,,,,,,,,,,,,,,,,,,,,,,,"[""0""]",1,[1.440499999999929],0,0,0,7,1,,,,,,,,,,,,,,,,,,,,,,,,,,
,,,,,,,,,,,X V Q F H G B L J M P D K C T S W R N Z,5f009c12dac7c81b0e9c0d06,36,Mężczyzna,2022-06-11_09h26.11.138,task,2021.1.4,Win32,120.0336094,6299f149e92ead563fba08ef,62a44339f345f1eaae8dbc77,,,,,,,,,,,,,,,,,,,,,,,,,,,,,,,,,,,,,,,,,,,,,,,,,,,,,,,,,,,,,,,,,,,,,,,,,,,,1,0,1,0,1,,,,,,,,,,,,,,,,,,,,,
,,,,,,,,,,,,5f009c12dac7c81b0e9c0d06,36,Mężczyzna,2022-06-11_09h26.11.138,task,2021.1.4,Win32,120.0336094,6299f149e92ead563fba08ef,62a44339f345f1eaae8dbc77,,,,,,,,,,,,,5,,,,,,,,,,Task,29,(3x8) - 19 ,5,,,,,,,,,,,,,,,,,,,1,,,,,,,,,,,,,,,,,,,,,,,"[""5""]",1,[3.633299999999963],0,0,0,28,1,,,,,,,,,,,,,,,,,,,,,,,,,,
,,,,,,,,,,,X V Q F H G B L J M P D K C T S W R N Z,5f009c12dac7c81b0e9c0d06,36,Mężczyzna,2022-06-11_09h26.11.138,task,2021.1.4,Win32,120.0336094,6299f149e92ead563fba08ef,62a44339f345f1eaae8dbc77,,,,,,,,,,,,,,,,,,,,,,,,,,,,,,,,,,,,,,,,,,,,,,,,,,,,,,,,,,,,,,,,,,,,,,,,,,,,2,0,2,0,1,,,,,,,,,,,,,,,,,,,,,
,,,,,,,,,,,,5f009c12dac7c81b0e9c0d06,36,Mężczyzna,2022-06-11_09h26.11.138,task,2021.1.4,Win32,120.0336094,6299f149e92ead563fba08ef,62a44339f345f1eaae8dbc77,,,,,,,,,,,,,,,,,,,,,,,,,,,,,,,,,,,,,,,,,,,,,,,,,,,,,,,,,,,,,,,,,,,,,,,,,,,,,,,,,zsv,"[""z"",""s"",""v""]",0,"[1.593299999999772,2.429600000000619,4.335400000000391,4.869999999999891]",1,ZSV,1,0,1,0,1,,,,,,,,,,
,,,,,,,,,,,,5f009c12dac7c81b0e9c0d06,36,Mężczyzna,2022-06-11_09h26.11.138,task,2021.1.4,Win32,120.0336094,6299f149e92ead563fba08ef,62a44339f345f1eaae8dbc77,,,,,,,,,,,,,6,,,,,,,,,,Task,37,(3/3) + 5,6,,,,,,,,,,,,,,,,,,,1,,,,,,,,,,,,,,,,,,,,,,,"[""6""]",1,[3.214200000000119],0,0,0,36,1,,,,,,,,,,,,,,,,,,,,,,,,,,
,,,,,,,,,,,X V Q F H G B L J M P D K C T S W R N Z,5f009c12dac7c81b0e9c0d06,36,Mężczyzna,2022-06-11_09h26.11.138,task,2021.1.4,Win32,120.0336094,6299f149e92ead563fba08ef,62a44339f345f1eaae8dbc77,,,,,,,,,,,,,,,,,,,,,,,,,,,,,,,,,,,,,,,,,,,,,,,,,,,,,,,,,,,,,,,,,,,,,,,,,,,,0,0,0,0,1,,,,,,,,,,,,,,,,,,,,,
,,,,,,,,,,,,5f009c12dac7c81b0e9c0d06,36,Mężczyzna,2022-06-11_09h26.11.138,task,2021.1.4,Win32,120.0336094,6299f149e92ead563fba08ef,62a44339f345f1eaae8dbc77,,,,,,,,,,,,,3,,,,,,,,,,Task,35,(1x2) + 1,3,,,,,,,,,,,,,,,,,,,1,,,,,,,,,,,,,,,,,,,,,,,"[""3""]",1,[1.6833999999994376],0,0,0,34,1,,,,,,,,,,,,,,,,,,,,,,,,,,
,,,,,,,,,,,X V Q F H G B L J M P D K C T S W R N Z,5f009c12dac7c81b0e9c0d06,36,Mężczyzna,2022-06-11_09h26.11.138,task,2021.1.4,Win32,120.0336094,6299f149e92ead563fba08ef,62a44339f345f1eaae8dbc77,,,,,,,,,,,,,,,,,,,,,,,,,,,,,,,,,,,,,,,,,,,,,,,,,,,,,,,,,,,,,,,,,,,,,,,,,,,,1,0,1,0,1,,,,,,,,,,,,,,,,,,,,,
,,,,,,,,,,,,5f009c12dac7c81b0e9c0d06,36,Mężczyzna,2022-06-11_09h26.11.138,task,2021.1.4,Win32,120.0336094,6299f149e92ead563fba08ef,62a44339f345f1eaae8dbc77,,,,,,,,,,,,,1,,,,,,,,,,Task,1,(12/6) - 1,1,,,,,,,,,,,,,,,,,,,1,,,,,,,,,,,,,,,,,,,,,,,"[""1""]",1,[2.247100000000728],0,0,0,0,1,,,,,,,,,,,,,,,,,,,,,,,,,,
,,,,,,,,,,,X V Q F H G B L J M P D K C T S W R N Z,5f009c12dac7c81b0e9c0d06,36,Mężczyzna,2022-06-11_09h26.11.138,task,2021.1.4,Win32,120.0336094,6299f149e92ead563fba08ef,62a44339f345f1eaae8dbc77,,,,,,,,,,,,,,,,,,,,,,,,,,,,,,,,,,,,,,,,,,,,,,,,,,,,,,,,,,,,,,,,,,,,,,,,,,,,2,0,2,0,1,,,,,,,,,,,,,,,,,,,,,
,,,,,,,,,,,,5f009c12dac7c81b0e9c0d06,36,Mężczyzna,2022-06-11_09h26.11.138,task,2021.1.4,Win32,120.0336094,6299f149e92ead563fba08ef,62a44339f345f1eaae8dbc77,,,,,,,,,,,,,3,,,,,,,,,,Task,3,(2x3) - 3,3,,,,,,,,,,,,,,,,,,,1,,,,,,,,,,,,,,,,,,,,,,,"[""3""]",1,[4.725599999999758],0,0,0,2,1,,,,,,,,,,,,,,,,,,,,,,,,,,
,,,,,,,,,,,X V Q F H G B L J M P D K C T S W R N Z,5f009c12dac7c81b0e9c0d06,36,Mężczyzna,2022-06-11_09h26.11.138,task,2021.1.4,Win32,120.0336094,6299f149e92ead563fba08ef,62a44339f345f1eaae8dbc77,,,,,,,,,,,,,,,,,,,,,,,,,,,,,,,,,,,,,,,,,,,,,,,,,,,,,,,,,,,,,,,,,,,,,,,,,,,,3,0,3,0,1,,,,,,,,,,,,,,,,,,,,,
,,,,,,,,,,,,5f009c12dac7c81b0e9c0d06,36,Mężczyzna,2022-06-11_09h26.11.138,task,2021.1.4,Win32,120.0336094,6299f149e92ead563fba08ef,62a44339f345f1eaae8dbc77,,,,,,,,,,,,,,,,,,,,,,,,,,,,,,,,,,,,,,,,,,,,,,,,,,,,,,,,,,,,,,,,,,,,,,,,,,,,,,,,,wfnx,"[""w"",""f"",""n"",""x""]",0,"[1.0686000000005151,1.6407000000001517,1.9725000000000819,2.222800000000916,2.5325000000000273]",1,WFNX,2,0,2,0,1,,,,,,,,,,
,,,,,,,,,,,,5f009c12dac7c81b0e9c0d06,36,Mężczyzna,2022-06-11_09h26.11.138,task,2021.1.4,Win32,120.0336094,6299f149e92ead563fba08ef,62a44339f345f1eaae8dbc77,,,,,,,,,,,,,3,,,,,,,,,,Task,20,(18/9) + 1,3,,,,,,,,,,,,,,,,,,,1,,,,,,,,,,,,,,,,,,,,,,,"[""3""]",1,[2.208499999999958],0,0,0,19,1,,,,,,,,,,,,,,,,,,,,,,,,,,
,,,,,,,,,,,X V Q F H G B L J M P D K C T S W R N Z,5f009c12dac7c81b0e9c0d06,36,Mężczyzna,2022-06-11_09h26.11.138,task,2021.1.4,Win32,120.0336094,6299f149e92ead563fba08ef,62a44339f345f1eaae8dbc77,,,,,,,,,,,,,,,,,,,,,,,,,,,,,,,,,,,,,,,,,,,,,,,,,,,,,,,,,,,,,,,,,,,,,,,,,,,,0,0,0,0,1,,,,,,,,,,,,,,,,,,,,,
,,,,,,,,,,,,5f009c12dac7c81b0e9c0d06,36,Mężczyzna,2022-06-11_09h26.11.138,task,2021.1.4,Win32,120.0336094,6299f149e92ead563fba08ef,62a44339f345f1eaae8dbc77,,,,,,,,,,,,,1,,,,,,,,,,Task,9,(3x7) - 20,1,,,,,,,,,,,,,,,,,,,1,,,,,,,,,,,,,,,,,,,,,,,"[""1""]",1,[1.8974000000002889],0,0,0,8,1,,,,,,,,,,,,,,,,,,,,,,,,,,
,,,,,,,,,,,X V Q F H G B L J M P D K C T S W R N Z,5f009c12dac7c81b0e9c0d06,36,Mężczyzna,2022-06-11_09h26.11.138,task,2021.1.4,Win32,120.0336094,6299f149e92ead563fba08ef,62a44339f345f1eaae8dbc77,,,,,,,,,,,,,,,,,,,,,,,,,,,,,,,,,,,,,,,,,,,,,,,,,,,,,,,,,,,,,,,,,,,,,,,,,,,,1,0,1,0,1,,,,,,,,,,,,,,,,,,,,,
,,,,,,,,,,,,5f009c12dac7c81b0e9c0d06,36,Mężczyzna,2022-06-11_09h26.11.138,task,2021.1.4,Win32,120.0336094,6299f149e92ead563fba08ef,62a44339f345f1eaae8dbc77,,,,,,,,,,,,,4,,,,,,,,,,Task,11,(18/3) - 2,4,,,,,,,,,,,,,,,,,,,1,,,,,,,,,,,,,,,,,,,,,,,"[""4""]",1,[2.7788999999993393],0,0,0,10,1,,,,,,,,,,,,,,,,,,,,,,,,,,
,,,,,,,,,,,X V Q F H G B L J M P D K C T S W R N Z,5f009c12dac7c81b0e9c0d06,36,Mężczyzna,2022-06-11_09h26.11.138,task,2021.1.4,Win32,120.0336094,6299f149e92ead563fba08ef,62a44339f345f1eaae8dbc77,,,,,,,,,,,,,,,,,,,,,,,,,,,,,,,,,,,,,,,,,,,,,,,,,,,,,,,,,,,,,,,,,,,,,,,,,,,,2,0,2,0,1,,,,,,,,,,,,,,,,,,,,,
,,,,,,,,,,,,5f009c12dac7c81b0e9c0d06,36,Mężczyzna,2022-06-11_09h26.11.138,task,2021.1.4,Win32,120.0336094,6299f149e92ead563fba08ef,62a44339f345f1eaae8dbc77,,,,,,,,,,,,,3,,,,,,,,,,Task,35,(1x2) + 1,3,,,,,,,,,,,,,,,,,,,1,,,,,,,,,,,,,,,,,,,,,,,"[""3""]",1,[1.3557999999998174],0,0,0,34,1,,,,,,,,,,,,,,,,,,,,,,,,,,
,,,,,,,,,,,X V Q F H G B L J M P D K C T S W R N Z,5f009c12dac7c81b0e9c0d06,36,Mężczyzna,2022-06-11_09h26.11.138,task,2021.1.4,Win32,120.0336094,6299f149e92ead563fba08ef,62a44339f345f1eaae8dbc77,,,,,,,,,,,,,,,,,,,,,,,,,,,,,,,,,,,,,,,,,,,,,,,,,,,,,,,,,,,,,,,,,,,,,,,,,,,,3,0,3,0,1,,,,,,,,,,,,,,,,,,,,,
,,,,,,,,,,,,5f009c12dac7c81b0e9c0d06,36,Mężczyzna,2022-06-11_09h26.11.138,task,2021.1.4,Win32,120.0336094,6299f149e92ead563fba08ef,62a44339f345f1eaae8dbc77,,,,,,,,,,,,,,,,,,,,,,,Task,7,(3x7) - 12,9,,,,,,,,,,,,,,,,,,,0,,,,,,,,,,,,,,,,,,,,,,,,0,,0,0,0,6,1,,,,,,,,,,,,,,,,,,,,,,,,,,
,,,,,,,,,,,,5f009c12dac7c81b0e9c0d06,36,Mężczyzna,2022-06-11_09h26.11.138,task,2021.1.4,Win32,120.0336094,6299f149e92ead563fba08ef,62a44339f345f1eaae8dbc77,,,,,,,,,,,,,8,,,,,,,,,,Task,39,(5x3) - 7,8,,,,,,,,,,,,,,,,,,,1,,,,,,,,,,,,,,,,,,,,,,,"[""8""]",1,[2.5688999999995303],0,1,1,38,1,,,,,,,,,,,,,,,,,,,,,,,,,,
,,,,,,,,,,,X V Q F H G B L J M P D K C T S W R N Z,5f009c12dac7c81b0e9c0d06,36,Mężczyzna,2022-06-11_09h26.11.138,task,2021.1.4,Win32,120.0336094,6299f149e92ead563fba08ef,62a44339f345f1eaae8dbc77,,,,,,,,,,,,,,,,,,,,,,,,,,,,,,,,,,,,,,,,,,,,,,,,,,,,,,,,,,,,,,,,,,,,,,,,,,,,4,0,4,0,1,,,,,,,,,,,,,,,,,,,,,
,,,,,,,,,,,,5f009c12dac7c81b0e9c0d06,36,Mężczyzna,2022-06-11_09h26.11.138,task,2021.1.4,Win32,120.0336094,6299f149e92ead563fba08ef,62a44339f345f1eaae8dbc77,,,,,,,,,,,,,,,,,,,,,,,,,,,,,,,,,,,,,,,,,,,,,,,,,,,,,,,,,,,,,,,,,,,,,,,,,,,,,,,,,njpcj,"[""n"",""j"",""p"",""c"",""j""]",0,"[1.4259000000004107,1.9607999999998356,2.2256000000004406,2.4966000000003987,2.70470000000023,3.1286000000004606]",1,NJPCJ,3,0,3,0,1,,,,,,,,,,
,,,,,,,,,,,,5f009c12dac7c81b0e9c0d06,36,Mężczyzna,2022-06-11_09h26.11.138,task,2021.1.4,Win32,120.0336094,6299f149e92ead563fba08ef,62a44339f345f1eaae8dbc77,,,,,,,,,,,,,8,,,,,,,,,,Task,32,(8/2) + 4,8,,,,,,,,,,,,,,,,,,,1,,,,,,,,,,,,,,,,,,,,,,,"[""8""]",1,[2.293300000000727],0,0,0,31,1,,,,,,,,,,,,,,,,,,,,,,,,,,
,,,,,,,,,,,X V Q F H G B L J M P D K C T S W R N Z,5f009c12dac7c81b0e9c0d06,36,Mężczyzna,2022-06-11_09h26.11.138,task,2021.1.4,Win32,120.0336094,6299f149e92ead563fba08ef,62a44339f345f1eaae8dbc77,,,,,,,,,,,,,,,,,,,,,,,,,,,,,,,,,,,,,,,,,,,,,,,,,,,,,,,,,,,,,,,,,,,,,,,,,,,,0,0,0,0,1,,,,,,,,,,,,,,,,,,,,,
,,,,,,,,,,,,5f009c12dac7c81b0e9c0d06,36,Mężczyzna,2022-06-11_09h26.11.138,task,2021.1.4,Win32,120.0336094,6299f149e92ead563fba08ef,62a44339f345f1eaae8dbc77,,,,,,,,,,,,,0,,,,,,,,,,Task,17,(2x3) - 6,0,,,,,,,,,,,,,,,,,,,1,,,,,,,,,,,,,,,,,,,,,,,"[""0""]",1,[1.5974000000005617],0,0,0,16,1,,,,,,,,,,,,,,,,,,,,,,,,,,
,,,,,,,,,,,X V Q F H G B L J M P D K C T S W R N Z,5f009c12dac7c81b0e9c0d06,36,Mężczyzna,2022-06-11_09h26.11.138,task,2021.1.4,Win32,120.0336094,6299f149e92ead563fba08ef,62a44339f345f1eaae8dbc77,,,,,,,,,,,,,,,,,,,,,,,,,,,,,,,,,,,,,,,,,,,,,,,,,,,,,,,,,,,,,,,,,,,,,,,,,,,,1,0,1,0,1,,,,,,,,,,,,,,,,,,,,,
,,,,,,,,,,,,5f009c12dac7c81b0e9c0d06,36,Mężczyzna,2022-06-11_09h26.11.138,task,2021.1.4,Win32,120.0336094,6299f149e92ead563fba08ef,62a44339f345f1eaae8dbc77,,,,,,,,,,,,,5,,,,,,,,,,Task,29,(3x8) - 19 ,5,,,,,,,,,,,,,,,,,,,1,,,,,,,,,,,,,,,,,,,,,,,"[""5""]",1,[1.9294999999999618],0,0,0,28,1,,,,,,,,,,,,,,,,,,,,,,,,,,
,,,,,,,,,,,X V Q F H G B L J M P D K C T S W R N Z,5f009c12dac7c81b0e9c0d06,36,Mężczyzna,2022-06-11_09h26.11.138,task,2021.1.4,Win32,120.0336094,6299f149e92ead563fba08ef,62a44339f345f1eaae8dbc77,,,,,,,,,,,,,,,,,,,,,,,,,,,,,,,,,,,,,,,,,,,,,,,,,,,,,,,,,,,,,,,,,,,,,,,,,,,,2,0,2,0,1,,,,,,,,,,,,,,,,,,,,,
,,,,,,,,,,,,5f009c12dac7c81b0e9c0d06,36,Mężczyzna,2022-06-11_09h26.11.138,task,2021.1.4,Win32,120.0336094,6299f149e92ead563fba08ef,62a44339f345f1eaae8dbc77,,,,,,,,,,,,,1,,,,,,,,,,Task,34,(9/3) - 2,1,,,,,,,,,,,,,,,,,,,1,,,,,,,,,,,,,,,,,,,,,,,"[""1""]",1,[2.0859000000004926],0,0,0,33,1,,,,,,,,,,,,,,,,,,,,,,,,,,
,,,,,,,,,,,X V Q F H G B L J M P D K C T S W R N Z,5f009c12dac7c81b0e9c0d06,36,Mężczyzna,2022-06-11_09h26.11.138,task,2021.1.4,Win32,120.0336094,6299f149e92ead563fba08ef,62a44339f345f1eaae8dbc77,,,,,,,,,,,,,,,,,,,,,,,,,,,,,,,,,,,,,,,,,,,,,,,,,,,,,,,,,,,,,,,,,,,,,,,,,,,,3,0,3,0,1,,,,,,,,,,,,,,,,,,,,,
,,,,,,,,,,,,5f009c12dac7c81b0e9c0d06,36,Mężczyzna,2022-06-11_09h26.11.138,task,2021.1.4,Win32,120.0336094,6299f149e92ead563fba08ef,62a44339f345f1eaae8dbc77,,,,,,,,,,,,,9,,,,,,,,,,Task,24,(2x2) + 5,9,,,,,,,,,,,,,,,,,,,1,,,,,,,,,,,,,,,,,,,,,,,"[""9""]",1,[2.0911000000005515],0,0,0,23,1,,,,,,,,,,,,,,,,,,,,,,,,,,
,,,,,,,,,,,X V Q F H G B L J M P D K C T S W R N Z,5f009c12dac7c81b0e9c0d06,36,Mężczyzna,2022-06-11_09h26.11.138,task,2021.1.4,Win32,120.0336094,6299f149e92ead563fba08ef,62a44339f345f1eaae8dbc77,,,,,,,,,,,,,,,,,,,,,,,,,,,,,,,,,,,,,,,,,,,,,,,,,,,,,,,,,,,,,,,,,,,,,,,,,,,,4,0,4,0,1,,,,,,,,,,,,,,,,,,,,,
,,,,,,,,,,,,5f009c12dac7c81b0e9c0d06,36,Mężczyzna,2022-06-11_09h26.11.138,task,2021.1.4,Win32,120.0336094,6299f149e92ead563fba08ef,62a44339f345f1eaae8dbc77,,,,,,,,,,,,,0,,,,,,,,,,Task,33,(1/1) - 1,0,,,,,,,,,,,,,,,,,,,1,,,,,,,,,,,,,,,,,,,,,,,"[""0""]",1,[2.663000000000011],0,0,0,32,1,,,,,,,,,,,,,,,,,,,,,,,,,,
,,,,,,,,,,,X V Q F H G B L J M P D K C T S W R N Z,5f009c12dac7c81b0e9c0d06,36,Mężczyzna,2022-06-11_09h26.11.138,task,2021.1.4,Win32,120.0336094,6299f149e92ead563fba08ef,62a44339f345f1eaae8dbc77,,,,,,,,,,,,,,,,,,,,,,,,,,,,,,,,,,,,,,,,,,,,,,,,,,,,,,,,,,,,,,,,,,,,,,,,,,,,5,0,5,0,1,,,,,,,,,,,,,,,,,,,,,
,,,,,,,,,,,,5f009c12dac7c81b0e9c0d06,36,Mężczyzna,2022-06-11_09h26.11.138,task,2021.1.4,Win32,120.0336094,6299f149e92ead563fba08ef,62a44339f345f1eaae8dbc77,,,,,,,,,,,,,,,,,,,,,,,,,,,,,,,,,,,,,,,,,,,,,,,,,,,,,,,,,,,,,,,,,,,,,,,,,,,,,,,,,tvcmpp,"[""t"",""v"",""c"",""m"",""p"",""p""]",0,"[0.9272999999998319,1.6172999999998865,1.928400000000238,3.623600000000579,3.991600000000517,4.215200000000095,4.464700000000221]",1,TVCMPP,4,0,4,0,1,,,,,,,,,,
,,,,,,,,,,,,5f009c12dac7c81b0e9c0d06,36,Mężczyzna,2022-06-11_09h26.11.138,task,2021.1.4,Win32,120.0336094,6299f149e92ead563fba08ef,62a44339f345f1eaae8dbc77,,,,,,,,,,,,,9,,,,,,,,,,Task,15,(3x7) - 13,8,,,,,,,,,,,,,,,,,,,0,,,,,,,,,,,,,,,,,,,,,,,"[""9""]",0,[3.1415000000001783],0,0,0,14,1,,,,,,,,,,,,,,,,,,,,,,,,,,
,,,,,,,,,,,,5f009c12dac7c81b0e9c0d06,36,Mężczyzna,2022-06-11_09h26.11.138,task,2021.1.4,Win32,120.0336094,6299f149e92ead563fba08ef,62a44339f345f1eaae8dbc77,,,,,,,,,,,,,3,,,,,,,,,,Task,3,(2x3) - 3,3,,,,,,,,,,,,,,,,,,,1,,,,,,,,,,,,,,,,,,,,,,,"[""3""]",1,[4.5844999999999345],0,1,1,2,1,,,,,,,,,,,,,,,,,,,,,,,,,,
,,,,,,,,,,,X V Q F H G B L J M P D K C T S W R N Z,5f009c12dac7c81b0e9c0d06,36,Mężczyzna,2022-06-11_09h26.11.138,task,2021.1.4,Win32,120.0336094,6299f149e92ead563fba08ef,62a44339f345f1eaae8dbc77,,,,,,,,,,,,,,,,,,,,,,,,,,,,,,,,,,,,,,,,,,,,,,,,,,,,,,,,,,,,,,,,,,,,,,,,,,,,0,0,0,0,1,,,,,,,,,,,,,,,,,,,,,
,,,,,,,,,,,,5f009c12dac7c81b0e9c0d06,36,Mężczyzna,2022-06-11_09h26.11.138,task,2021.1.4,Win32,120.0336094,6299f149e92ead563fba08ef,62a44339f345f1eaae8dbc77,,,,,,,,,,,,,9,,,,,,,,,,Task,7,(3x7) - 12,9,,,,,,,,,,,,,,,,,,,1,,,,,,,,,,,,,,,,,,,,,,,"[""9""]",1,[2.616999999999962],0,0,0,6,1,,,,,,,,,,,,,,,,,,,,,,,,,,
,,,,,,,,,,,X V Q F H G B L J M P D K C T S W R N Z,5f009c12dac7c81b0e9c0d06,36,Mężczyzna,2022-06-11_09h26.11.138,task,2021.1.4,Win32,120.0336094,6299f149e92ead563fba08ef,62a44339f345f1eaae8dbc77,,,,,,,,,,,,,,,,,,,,,,,,,,,,,,,,,,,,,,,,,,,,,,,,,,,,,,,,,,,,,,,,,,,,,,,,,,,,1,0,1,0,1,,,,,,,,,,,,,,,,,,,,,
,,,,,,,,,,,,5f009c12dac7c81b0e9c0d06,36,Mężczyzna,2022-06-11_09h26.11.138,task,2021.1.4,Win32,120.0336094,6299f149e92ead563fba08ef,62a44339f345f1eaae8dbc77,,,,,,,,,,,,,5,,,,,,,,,,Task,36,(8/4) + 3,5,,,,,,,,,,,,,,,,,,,1,,,,,,,,,,,,,,,,,,,,,,,"[""5""]",1,[2.046400000000176],0,0,0,35,1,,,,,,,,,,,,,,,,,,,,,,,,,,
,,,,,,,,,,,X V Q F H G B L J M P D K C T S W R N Z,5f009c12dac7c81b0e9c0d06,36,Mężczyzna,2022-06-11_09h26.11.138,task,2021.1.4,Win32,120.0336094,6299f149e92ead563fba08ef,62a44339f345f1eaae8dbc77,,,,,,,,,,,,,,,,,,,,,,,,,,,,,,,,,,,,,,,,,,,,,,,,,,,,,,,,,,,,,,,,,,,,,,,,,,,,2,0,2,0,1,,,,,,,,,,,,,,,,,,,,,
,,,,,,,,,,,,5f009c12dac7c81b0e9c0d06,36,Mężczyzna,2022-06-11_09h26.11.138,task,2021.1.4,Win32,120.0336094,6299f149e92ead563fba08ef,62a44339f345f1eaae8dbc77,,,,,,,,,,,,,6,,,,,,,,,,Task,30,(6/3) + 4 ,6,,,,,,,,,,,,,,,,,,,1,,,,,,,,,,,,,,,,,,,,,,,"[""6""]",1,[1.9919999999999618],0,0,0,29,1,,,,,,,,,,,,,,,,,,,,,,,,,,
,,,,,,,,,,,X V Q F H G B L J M P D K C T S W R N Z,5f009c12dac7c81b0e9c0d06,36,Mężczyzna,2022-06-11_09h26.11.138,task,2021.1.4,Win32,120.0336094,6299f149e92ead563fba08ef,62a44339f345f1eaae8dbc77,,,,,,,,,,,,,,,,,,,,,,,,,,,,,,,,,,,,,,,,,,,,,,,,,,,,,,,,,,,,,,,,,,,,,,,,,,,,3,0,3,0,1,,,,,,,,,,,,,,,,,,,,,
,,,,,,,,,,,,5f009c12dac7c81b0e9c0d06,36,Mężczyzna,2022-06-11_09h26.11.138,task,2021.1.4,Win32,120.0336094,6299f149e92ead563fba08ef,62a44339f345f1eaae8dbc77,,,,,,,,,,,,,4,,,,,,,,,,Task,3,(2x3) - 3,3,,,,,,,,,,,,,,,,,,,0,,,,,,,,,,,,,,,,,,,,,,,"[""4""]",0,[1.7695999999996275],0,0,0,2,1,,,,,,,,,,,,,,,,,,,,,,,,,,
,,,,,,,,,,,,5f009c12dac7c81b0e9c0d06,36,Mężczyzna,2022-06-11_09h26.11.138,task,2021.1.4,Win32,120.0336094,6299f149e92ead563fba08ef,62a44339f345f1eaae8dbc77,,,,,,,,,,,,,1,,,,,,,,,,Task,1,(12/6) - 1,1,,,,,,,,,,,,,,,,,,,1,,,,,,,,,,,,,,,,,,,,,,,"[""1""]",1,[1.405400000000327],0,1,1,0,1,,,,,,,,,,,,,,,,,,,,,,,,,,
,,,,,,,,,,,X V Q F H G B L J M P D K C T S W R N Z,5f009c12dac7c81b0e9c0d06,36,Mężczyzna,2022-06-11_09h26.11.138,task,2021.1.4,Win32,120.0336094,6299f149e92ead563fba08ef,62a44339f345f1eaae8dbc77,,,,,,,,,,,,,,,,,,,,,,,,,,,,,,,,,,,,,,,,,,,,,,,,,,,,,,,,,,,,,,,,,,,,,,,,,,,,4,0,4,0,1,,,,,,,,,,,,,,,,,,,,,
,,,,,,,,,,,,5f009c12dac7c81b0e9c0d06,36,Mężczyzna,2022-06-11_09h26.11.138,task,2021.1.4,Win32,120.0336094,6299f149e92ead563fba08ef,62a44339f345f1eaae8dbc77,,,,,,,,,,,,,3,,,,,,,,,,Task,20,(18/9) + 1,3,,,,,,,,,,,,,,,,,,,1,,,,,,,,,,,,,,,,,,,,,,,"[""3""]",1,[2.1270999999997002],0,0,0,19,1,,,,,,,,,,,,,,,,,,,,,,,,,,
,,,,,,,,,,,X V Q F H G B L J M P D K C T S W R N Z,5f009c12dac7c81b0e9c0d06,36,Mężczyzna,2022-06-11_09h26.11.138,task,2021.1.4,Win32,120.0336094,6299f149e92ead563fba08ef,62a44339f345f1eaae8dbc77,,,,,,,,,,,,,,,,,,,,,,,,,,,,,,,,,,,,,,,,,,,,,,,,,,,,,,,,,,,,,,,,,,,,,,,,,,,,5,0,5,0,1,,,,,,,,,,,,,,,,,,,,,
,,,,,,,,,,,,5f009c12dac7c81b0e9c0d06,36,Mężczyzna,2022-06-11_09h26.11.138,task,2021.1.4,Win32,120.0336094,6299f149e92ead563fba08ef,62a44339f345f1eaae8dbc77,,,,,,,,,,,,,4,,,,,,,,,,Task,11,(18/3) - 2,4,,,,,,,,,,,,,,,,,,,1,,,,,,,,,,,,,,,,,,,,,,,"[""4""]",1,[2.046199999999999],0,0,0,10,1,,,,,,,,,,,,,,,,,,,,,,,,,,
,,,,,,,,,,,X V Q F H G B L J M P D K C T S W R N Z,5f009c12dac7c81b0e9c0d06,36,Mężczyzna,2022-06-11_09h26.11.138,task,2021.1.4,Win32,120.0336094,6299f149e92ead563fba08ef,62a44339f345f1eaae8dbc77,,,,,,,,,,,,,,,,,,,,,,,,,,,,,,,,,,,,,,,,,,,,,,,,,,,,,,,,,,,,,,,,,,,,,,,,,,,,6,0,6,0,1,,,,,,,,,,,,,,,,,,,,,
,,,,,,,,,,,,5f009c12dac7c81b0e9c0d06,36,Mężczyzna,2022-06-11_09h26.11.138,task,2021.1.4,Win32,120.0336094,6299f149e92ead563fba08ef,62a44339f345f1eaae8dbc77,,,,,,,,,,,,,,,,,,,,,,,,,,,,,,,,,,,,,,,,,,,,,,,,,,,,,,,,,,,,,,,,,,,,,,,,,,,,,,,,,nbppws,"[""n"",""b"",""p"",""p"",""w"",""s""]",0,"[1.9947999999997137,2.143700000000308,2.4094000000002325,2.609000000000151,2.8717999999996664,3.1277999999999793,3.3507999999999356]",0,NBMPWST,5,0,5,0,1,,,,,,,,,,
,,,,,,,,,,,,5f009c12dac7c81b0e9c0d06,36,Mężczyzna,2022-06-11_09h26.11.138,task,2021.1.4,Win32,120.0336094,6299f149e92ead563fba08ef,62a44339f345f1eaae8dbc77,,,,,,,,,,,,,2,,,,,,,,,,Task,19,(6/2) - 1,2,,,,,,,,,,,,,,,,,,,1,,,,,,,,,,,,,,,,,,,,,,,"[""2""]",1,[2.826499999999669],0,0,0,18,1,,,,,,,,,,,,,,,,,,,,,,,,,,
,,,,,,,,,,,X V Q F H G B L J M P D K C T S W R N Z,5f009c12dac7c81b0e9c0d06,36,Mężczyzna,2022-06-11_09h26.11.138,task,2021.1.4,Win32,120.0336094,6299f149e92ead563fba08ef,62a44339f345f1eaae8dbc77,,,,,,,,,,,,,,,,,,,,,,,,,,,,,,,,,,,,,,,,,,,,,,,,,,,,,,,,,,,,,,,,,,,,,,,,,,,,0,0,0,0,1,,,,,,,,,,,,,,,,,,,,,
,,,,,,,,,,,,5f009c12dac7c81b0e9c0d06,36,Mężczyzna,2022-06-11_09h26.11.138,task,2021.1.4,Win32,120.0336094,6299f149e92ead563fba08ef,62a44339f345f1eaae8dbc77,,,,,,,,,,,,,5,,,,,,,,,,Task,12,(4x4) - 11,5,,,,,,,,,,,,,,,,,,,1,,,,,,,,,,,,,,,,,,,,,,,"[""5""]",1,[1.6669999999999163],0,0,0,11,1,,,,,,,,,,,,,,,,,,,,,,,,,,
,,,,,,,,,,,X V Q F H G B L J M P D K C T S W R N Z,5f009c12dac7c81b0e9c0d06,36,Mężczyzna,2022-06-11_09h26.11.138,task,2021.1.4,Win32,120.0336094,6299f149e92ead563fba08ef,62a44339f345f1eaae8dbc77,,,,,,,,,,,,,,,,,,,,,,,,,,,,,,,,,,,,,,,,,,,,,,,,,,,,,,,,,,,,,,,,,,,,,,,,,,,,1,0,1,0,1,,,,,,,,,,,,,,,,,,,,,
,,,,,,,,,,,,5f009c12dac7c81b0e9c0d06,36,Mężczyzna,2022-06-11_09h26.11.138,task,2021.1.4,Win32,120.0336094,6299f149e92ead563fba08ef,62a44339f345f1eaae8dbc77,,,,,,,,,,,,,3,,,,,,,,,,Task,27,(3/3) + 2,3,,,,,,,,,,,,,,,,,,,1,,,,,,,,,,,,,,,,,,,,,,,"[""3""]",1,[2.35129999999981],0,0,0,26,1,,,,,,,,,,,,,,,,,,,,,,,,,,
,,,,,,,,,,,X V Q F H G B L J M P D K C T S W R N Z,5f009c12dac7c81b0e9c0d06,36,Mężczyzna,2022-06-11_09h26.11.138,task,2021.1.4,Win32,120.0336094,6299f149e92ead563fba08ef,62a44339f345f1eaae8dbc77,,,,,,,,,,,,,,,,,,,,,,,,,,,,,,,,,,,,,,,,,,,,,,,,,,,,,,,,,,,,,,,,,,,,,,,,,,,,2,0,2,0,1,,,,,,,,,,,,,,,,,,,,,
,,,,,,,,,,,,5f009c12dac7c81b0e9c0d06,36,Mężczyzna,2022-06-11_09h26.11.138,task,2021.1.4,Win32,120.0336094,6299f149e92ead563fba08ef,62a44339f345f1eaae8dbc77,,,,,,,,,,,,,8,,,,,,,,,,Task,25,(10/5) - 2,0,,,,,,,,,,,,,,,,,,,0,,,,,,,,,,,,,,,,,,,,,,,"[""8""]",0,[3.2312999999999192],0,0,0,24,1,,,,,,,,,,,,,,,,,,,,,,,,,,
,,,,,,,,,,,,5f009c12dac7c81b0e9c0d06,36,Mężczyzna,2022-06-11_09h26.11.138,task,2021.1.4,Win32,120.0336094,6299f149e92ead563fba08ef,62a44339f345f1eaae8dbc77,,,,,,,,,,,,,3,,,,,,,,,,Task,35,(1x2) + 1,3,,,,,,,,,,,,,,,,,,,1,,,,,,,,,,,,,,,,,,,,,,,"[""3""]",1,[1.6174000000005435],0,1,1,34,1,,,,,,,,,,,,,,,,,,,,,,,,,,
,,,,,,,,,,,X V Q F H G B L J M P D K C T S W R N Z,5f009c12dac7c81b0e9c0d06,36,Mężczyzna,2022-06-11_09h26.11.138,task,2021.1.4,Win32,120.0336094,6299f149e92ead563fba08ef,62a44339f345f1eaae8dbc77,,,,,,,,,,,,,,,,,,,,,,,,,,,,,,,,,,,,,,,,,,,,,,,,,,,,,,,,,,,,,,,,,,,,,,,,,,,,3,0,3,0,1,,,,,,,,,,,,,,,,,,,,,
,,,,,,,,,,,,5f009c12dac7c81b0e9c0d06,36,Mężczyzna,2022-06-11_09h26.11.138,task,2021.1.4,Win32,120.0336094,6299f149e92ead563fba08ef,62a44339f345f1eaae8dbc77,,,,,,,,,,,,,8,,,,,,,,,,Task,15,(3x7) - 13,8,,,,,,,,,,,,,,,,,,,1,,,,,,,,,,,,,,,,,,,,,,,"[""8""]",1,[2.0759000000002743],0,0,0,14,1,,,,,,,,,,,,,,,,,,,,,,,,,,
,,,,,,,,,,,X V Q F H G B L J M P D K C T S W R N Z,5f009c12dac7c81b0e9c0d06,36,Mężczyzna,2022-06-11_09h26.11.138,task,2021.1.4,Win32,120.0336094,6299f149e92ead563fba08ef,62a44339f345f1eaae8dbc77,,,,,,,,,,,,,,,,,,,,,,,,,,,,,,,,,,,,,,,,,,,,,,,,,,,,,,,,,,,,,,,,,,,,,,,,,,,,4,0,4,0,1,,,,,,,,,,,,,,,,,,,,,
,,,,,,,,,,,,5f009c12dac7c81b0e9c0d06,36,Mężczyzna,2022-06-11_09h26.11.138,task,2021.1.4,Win32,120.0336094,6299f149e92ead563fba08ef,62a44339f345f1eaae8dbc77,,,,,,,,,,,,,7,,,,,,,,,,Task,31,(4/2) + 5,7,,,,,,,,,,,,,,,,,,,1,,,,,,,,,,,,,,,,,,,,,,,"[""7""]",1,[1.4955999999997402],0,0,0,30,1,,,,,,,,,,,,,,,,,,,,,,,,,,
,,,,,,,,,,,X V Q F H G B L J M P D K C T S W R N Z,5f009c12dac7c81b0e9c0d06,36,Mężczyzna,2022-06-11_09h26.11.138,task,2021.1.4,Win32,120.0336094,6299f149e92ead563fba08ef,62a44339f345f1eaae8dbc77,,,,,,,,,,,,,,,,,,,,,,,,,,,,,,,,,,,,,,,,,,,,,,,,,,,,,,,,,,,,,,,,,,,,,,,,,,,,5,0,5,0,1,,,,,,,,,,,,,,,,,,,,,
,,,,,,,,,,,,5f009c12dac7c81b0e9c0d06,36,Mężczyzna,2022-06-11_09h26.11.138,task,2021.1.4,Win32,120.0336094,6299f149e92ead563fba08ef,62a44339f345f1eaae8dbc77,,,,,,,,,,,,,8,,,,,,,,,,Task,7,(3x7) - 12,9,,,,,,,,,,,,,,,,,,,0,,,,,,,,,,,,,,,,,,,,,,,"[""8""]",0,[1.7570000000000618],0,0,0,6,1,,,,,,,,,,,,,,,,,,,,,,,,,,
,,,,,,,,,,,,5f009c12dac7c81b0e9c0d06,36,Mężczyzna,2022-06-11_09h26.11.138,task,2021.1.4,Win32,120.0336094,6299f149e92ead563fba08ef,62a44339f345f1eaae8dbc77,,,,,,,,,,,,,8,,,,,,,,,,Task,32,(8/2) + 4,8,,,,,,,,,,,,,,,,,,,1,,,,,,,,,,,,,,,,,,,,,,,"[""8""]",1,[2.1973000000007232],0,1,1,31,1,,,,,,,,,,,,,,,,,,,,,,,,,,
,,,,,,,,,,,X V Q F H G B L J M P D K C T S W R N Z,5f009c12dac7c81b0e9c0d06,36,Mężczyzna,2022-06-11_09h26.11.138,task,2021.1.4,Win32,120.0336094,6299f149e92ead563fba08ef,62a44339f345f1eaae8dbc77,,,,,,,,,,,,,,,,,,,,,,,,,,,,,,,,,,,,,,,,,,,,,,,,,,,,,,,,,,,,,,,,,,,,,,,,,,,,6,0,6,0,1,,,,,,,,,,,,,,,,,,,,,
,,,,,,,,,,,,5f009c12dac7c81b0e9c0d06,36,Mężczyzna,2022-06-11_09h26.11.138,task,2021.1.4,Win32,120.0336094,6299f149e92ead563fba08ef,62a44339f345f1eaae8dbc77,,,,,,,,,,,,,,,,,,,,,,,,,,,,,,,,,,,,,,,,,,,,,,,,,,,,,,,,,,,,,,,,,,,,,,,,,,,,,,,,,nfwvv,"[""n"",""f"",""w"",""v"",""v""]",0,"[1.7924000000002707,2.0742999999997664,2.9604000000003907,3.7580000000002656,3.9627000000004955,4.290100000000621]",0,SFWSBMV,6,0,6,0,1,,,,,,,,,,
,,,,,,,,,,,,5f009c12dac7c81b0e9c0d06,36,Mężczyzna,2022-06-11_09h26.11.138,task,2021.1.4,Win32,120.0336094,6299f149e92ead563fba08ef,62a44339f345f1eaae8dbc77,,,,,,,,,,,,,,,,,,,,,,,,,,,,,,,,,,,,,,,,,,,,,,,,,,,,,,,,,,,,,,,,,,,,,,,,,,,,,,,,,,,,,,,,,,,,,0,0,0,0,0,1,,,
,,,,,,,,,,,,5f009c12dac7c81b0e9c0d06,36,Mężczyzna,2022-06-11_09h26.11.138,task,2021.1.4,Win32,120.0336094,6299f149e92ead563fba08ef,62a44339f345f1eaae8dbc77,,,,,,,,,,,,,,,,,,,,,,,,,,,,,,,,,,,,,,,,,,,,,,,,,,,,,,,,,,,,,,,,,,,,,,,,,,,,,,,,,,,,,,,,,,,,,0,1,0,1,0,1,,,
,,,,,,,,,,,,5f009c12dac7c81b0e9c0d06,36,Mężczyzna,2022-06-11_09h26.11.138,task,2021.1.4,Win32,120.0336094,6299f149e92ead563fba08ef,62a44339f345f1eaae8dbc77,,,,,,,,,,,,,,,,,,,,,,,,,,,,,,,,,,,,,,,,,,,,,,,,,,,,,,,,,,,,,,,,,,,,,,,,,,,,,,,,,,,,,,,,,,,,"[""comma""]",0,2,0,2,0,1,[0.32429999999976644],,
,,,,,,,,,,,,5f009c12dac7c81b0e9c0d06,36,Mężczyzna,2022-06-11_09h26.11.138,task,2021.1.4,Win32,120.0336094,6299f149e92ead563fba08ef,62a44339f345f1eaae8dbc77,,,,,,,,,,,,,,,,,,,,,,,,,,,,,,,,,,,,,,,,,,,,,,,,,,,,,,,,,,,,,,,,,,,,,,,,,,,,,,,,,,,,,,,,,,,,"[""comma""]",0,3,0,3,0,1,[0.3963999999996304],,
,,,,,,,,,,,,5f009c12dac7c81b0e9c0d06,36,Mężczyzna,2022-06-11_09h26.11.138,task,2021.1.4,Win32,120.0336094,6299f149e92ead563fba08ef,62a44339f345f1eaae8dbc77,,,,,,,,,,,,,,,,,,,,,,,,,,,,,,,,,,,,,,,,,,,,,,,,,,,,,,,,,,,,,,,,,,,,,,,,,,,,,,,,,,,,,,,,,,,,"[""comma""]",0,4,0,4,0,1,[0.26160000000072614],,
,,,,,,,,,,,,5f009c12dac7c81b0e9c0d06,36,Mężczyzna,2022-06-11_09h26.11.138,task,2021.1.4,Win32,120.0336094,6299f149e92ead563fba08ef,62a44339f345f1eaae8dbc77,,,,,,,,,,,,,,,,,,,,,,,,,,,,,,,,,,,,,,,,,,,,,,,,,,,,,,,,,,,,,,,,,,,,,,,,,,,,,,,,,,,,,,,,,,,,"[""comma""]",0,5,0,5,0,1,[0.24579999999969004],,
,,,,,,,,,,,,5f009c12dac7c81b0e9c0d06,36,Mężczyzna,2022-06-11_09h26.11.138,task,2021.1.4,Win32,120.0336094,6299f149e92ead563fba08ef,62a44339f345f1eaae8dbc77,,,,,,,,,,,,,,,,,,,,,,,,,,,,,,,,,,,,,,,,,,,,,,,,,,,,,,,,,,,,,,,,,,,,,,,,,,,,,,,,,,,,,,,,,,,,"[""comma""]",0,6,0,6,0,1,[0.22020000000020445],,
,,,,,,,,,,,,5f009c12dac7c81b0e9c0d06,36,Mężczyzna,2022-06-11_09h26.11.138,task,2021.1.4,Win32,120.0336094,6299f149e92ead563fba08ef,62a44339f345f1eaae8dbc77,,,,,,,,,,,,,,,,,,,,,,,,,,,,,,,,,,,,,,,,,,,,,,,,,,,,,,,,,,,,,,,,,,,,,,,,,,,,,,,,,,,,,,,,,,,,"[""period""]",0,7,0,7,0,1,[0.20530000000053406],,
,,,,,,,,,,,,5f009c12dac7c81b0e9c0d06,36,Mężczyzna,2022-06-11_09h26.11.138,task,2021.1.4,Win32,120.0336094,6299f149e92ead563fba08ef,62a44339f345f1eaae8dbc77,,,,,,,,,,,,,,,,,,,,,,,,,,,,,,,,,,,,,,,,,,,,,,,,,,,,,,,,,,,,,,,,,,,,,,,,,,,,,,,,,,,,,,,,,,,,"[""comma""]",0,8,0,8,0,1,[0.21179999999958454],,
,,,,,,,,,,,,5f009c12dac7c81b0e9c0d06,36,Mężczyzna,2022-06-11_09h26.11.138,task,2021.1.4,Win32,120.0336094,6299f149e92ead563fba08ef,62a44339f345f1eaae8dbc77,,,,,,,,,,,,,,,,,,,,,,,,,,,,,,,,,,,,,,,,,,,,,,,,,,,,,,,,,,,,,,,,,,,,,,,,,,,,,,,,,,,,,,,,,,,,"[""comma""]",0,9,0,9,0,1,[0.1574999999997999],,
,,,,,,,,,,,,5f009c12dac7c81b0e9c0d06,36,Mężczyzna,2022-06-11_09h26.11.138,task,2021.1.4,Win32,120.0336094,6299f149e92ead563fba08ef,62a44339f345f1eaae8dbc77,,,,,,,,,,,,,,,,,,,,,,,,,,,,,,,,,,,,,,,,,,,,,,,,,,,,,,,,,,,,,,,,,,,,,,,,,,,,,,,,,,,,,,,,,,,,"[""comma""]",0,10,0,10,0,1,[0.20420000000012806],,
,,,,,,,,,,,,5f009c12dac7c81b0e9c0d06,36,Mężczyzna,2022-06-11_09h26.11.138,task,2021.1.4,Win32,120.0336094,6299f149e92ead563fba08ef,62a44339f345f1eaae8dbc77,,,,,,,,,,,,,,,,,,,,,,,,,,,,,,,,,,,,,,,,,,,,,,,,,,,,,,,,,,,,,,,,,,,,,,,,,,,,,,,,,,,,,,,,,,,,"[""comma""]",0,11,0,11,0,1,[0.08359999999947831],,
,,,,,,,,,,,,5f009c12dac7c81b0e9c0d06,36,Mężczyzna,2022-06-11_09h26.11.138,task,2021.1.4,Win32,120.0336094,6299f149e92ead563fba08ef,62a44339f345f1eaae8dbc77,,,,,,,,,,,,,,,,,,,,,,,,,,,,,,,,,,,,,,,,,,,,,,,,,,,,,,,,,,,,,,,,,,,,,,,,,,,,,,,,,,,,,,,,,,,,"[""period""]",0,12,0,12,0,1,[0.13220000000001164],,
,,,,,,,,,,,,5f009c12dac7c81b0e9c0d06,36,Mężczyzna,2022-06-11_09h26.11.138,task,2021.1.4,Win32,120.0336094,6299f149e92ead563fba08ef,62a44339f345f1eaae8dbc77,,,,,,,,,,,,,,,,,,,,,,,,,,,,,,,,,,,,,,,,,,,,,,,,,,,,,,,,,,,,,,,,,,,,,,,,,,,,,,,,,,,,,,,,,,,,"[""period""]",0,13,0,13,0,1,[0.19049999999970169],,
,,,,,,,,,,,,5f009c12dac7c81b0e9c0d06,36,Mężczyzna,2022-06-11_09h26.11.138,task,2021.1.4,Win32,120.0336094,6299f149e92ead563fba08ef,62a44339f345f1eaae8dbc77,,,,,,,,,,,,,,,,,,,,,,,,,,,,,,,,,,,,,,,,,,,,,,,,,,,,,,,,,,,,,,,,,,,,,,,,,,,,,,,,,,,,,,,,,,,,"[""period""]",0,14,0,14,0,1,[0.20419999999921856],,
,,,,,,,,,,,,5f009c12dac7c81b0e9c0d06,36,Mężczyzna,2022-06-11_09h26.11.138,task,2021.1.4,Win32,120.0336094,6299f149e92ead563fba08ef,62a44339f345f1eaae8dbc77,,,,,,,,,,,,,,,,,,,,,,,,,,,,,,,,,,,,,,,,,,,,,,,,,,,,,,,,,,,,,,,,,,,,,,,,,,,,,,,,,,,,,,,,,,,,"[""comma""]",0,15,0,15,0,1,[0.16539999999940846],,
,,,,,,,,,,,,5f009c12dac7c81b0e9c0d06,36,Mężczyzna,2022-06-11_09h26.11.138,task,2021.1.4,Win32,120.0336094,6299f149e92ead563fba08ef,62a44339f345f1eaae8dbc77,,,,,,,,,,,,,,,,,,,,,,,,,,,,,,,,,,,,,,,,,,,,,,,,,,,,,,,,,,,,,,,,,,,,,,,,,,,,,,,,,,,,,,,,,,,,"[""comma""]",0,16,0,16,0,1,[0.21090000000049258],,
,,,,,,,,,,,,5f009c12dac7c81b0e9c0d06,36,Mężczyzna,2022-06-11_09h26.11.138,task,2021.1.4,Win32,120.0336094,6299f149e92ead563fba08ef,62a44339f345f1eaae8dbc77,,,,,,,,,,,,,,,,,,,,,,,,,,,,,,,,,,,,,,,,,,,,,,,,,,,,,,,,,,,,,,,,,,,,,,,,,,,,,,,,,,,,,,,,,,,,"[""period""]",0,17,0,17,0,1,[0.22699999999986176],,
,,,,,,,,,,,,5f009c12dac7c81b0e9c0d06,36,Mężczyzna,2022-06-11_09h26.11.138,task,2021.1.4,Win32,120.0336094,6299f149e92ead563fba08ef,62a44339f345f1eaae8dbc77,,,,,,,,,,,,,,,,,,,,,,,,,,,,,,,,,,,,,,,,,,,,,,,,,,,,,,,,,,,,,,,,,,,,,,,,,,,,,,,,,,,,,,,,,,,,"[""comma""]",0,18,0,18,0,1,[0.21869999999944412],,
,,,,,,,,,,,,5f009c12dac7c81b0e9c0d06,36,Mężczyzna,2022-06-11_09h26.11.138,task,2021.1.4,Win32,120.0336094,6299f149e92ead563fba08ef,62a44339f345f1eaae8dbc77,,,,,,,,,,,,,,,,,,,,,,,,,,,,,,,,,,,,,,,,,,,,,,,,,,,,,,,,,,,,,,,,,,,,,,,,,,,,,,,,,,,,,,,,,,,,"[""comma""]",0,19,0,19,0,1,[0.19460000000071886],,
,,,,,,,,,,,,5f009c12dac7c81b0e9c0d06,36,Mężczyzna,2022-06-11_09h26.11.138,task,2021.1.4,Win32,120.0336094,6299f149e92ead563fba08ef,62a44339f345f1eaae8dbc77,,,,,,,,,,,,,,,,,,,,,,,,,,,,,,,,,,,,,,,,,,,,,,,,,,,,,,,,,,,,,,,,,,,,,,,,,,,,,,,,,,,,,,,,,,,,"[""period""]",0,20,0,20,0,1,[0.2186000000006061],,
,,,,,,,,,,,,5f009c12dac7c81b0e9c0d06,36,Mężczyzna,2022-06-11_09h26.11.138,task,2021.1.4,Win32,120.0336094,6299f149e92ead563fba08ef,62a44339f345f1eaae8dbc77,,,,,,,,,,,,,,,,,,,,,,,,,,,,,,,,,,,,,,,,,,,,,,,,,,,,,,,,,,,,,,,,,,,,,,,,,,,,,,,,,,,,,,,,,,,,"[""period""]",0,21,0,21,0,1,[0.1940999999997075],,
,,,,,,,,,,,,5f009c12dac7c81b0e9c0d06,36,Mężczyzna,2022-06-11_09h26.11.138,task,2021.1.4,Win32,120.0336094,6299f149e92ead563fba08ef,62a44339f345f1eaae8dbc77,,,,,,,,,,,,,,,,,,,,,,,,,,,,,,,,,,,,,,,,,,,,,,,,,,,,,,,,,,,,,,,,,,,,,,,,,,,,,,,,,,,,,,,,,,,,"[""comma""]",0,22,0,22,0,1,[0.3616000000006352],,
,,,,,,,,,,,,5f009c12dac7c81b0e9c0d06,36,Mężczyzna,2022-06-11_09h26.11.138,task,2021.1.4,Win32,120.0336094,6299f149e92ead563fba08ef,62a44339f345f1eaae8dbc77,,,,,,,,,,,,,,,,,,,,,,,,,,,,,,,,,,,,,,,,,,,,,,,,,,,,,,,,,,,,,,,,,,,,,,,,,,,,,,,,,,,,,,,,,,,,"[""period""]",0,23,0,23,0,1,[0.38570000000026994],,
,,,,,,,,,,,,5f009c12dac7c81b0e9c0d06,36,Mężczyzna,2022-06-11_09h26.11.138,task,2021.1.4,Win32,120.0336094,6299f149e92ead563fba08ef,62a44339f345f1eaae8dbc77,,,,,,,,,,,,,,,,,,,,,,,,,,,,,,,,,,,,,,,,,,,,,,,,,,,,,,,,,,,,,,,,,,,,,,,,,,,,,,,,,,,,,,,,,,,,"[""comma""]",0,24,0,24,0,1,[0.2519999999999527],,
,,,,,,,,,,,,5f009c12dac7c81b0e9c0d06,36,Mężczyzna,2022-06-11_09h26.11.138,task,2021.1.4,Win32,120.0336094,6299f149e92ead563fba08ef,62a44339f345f1eaae8dbc77,,,,,,,,,,,,,,,,,,,,,,,,,,,,,,,,,,,,,,,,,,,,,,,,,,,,,,,,,,,,,,,,,,,,,,,,,,,,,,,,,,,,,,,,,,,,"[""period""]",0,25,0,25,0,1,[0.559400000000096],,
,,,,,,,,,,,,5f009c12dac7c81b0e9c0d06,36,Mężczyzna,2022-06-11_09h26.11.138,task,2021.1.4,Win32,120.0336094,6299f149e92ead563fba08ef,62a44339f345f1eaae8dbc77,,,,,,,,,,,,,,,,,,,,,,,,,,,,,,,,,,,,,,,,,,,,,,,,,,,,,,,,,,,,,,,,,,,,,,,,,,,,,,,,,,,,,,,,,,,,"[""comma""]",0,26,0,26,0,1,[0.24279999999998836],,
,,,,,,,,,,,,5f009c12dac7c81b0e9c0d06,36,Mężczyzna,2022-06-11_09h26.11.138,task,2021.1.4,Win32,120.0336094,6299f149e92ead563fba08ef,62a44339f345f1eaae8dbc77,,,,,,,,,,,,,,,,,,,,,,,,,,,,,,,,,,,,,,,,,,,,,,,,,,,,,,,,,,,,,,,,,,,,,,,,,,,,,,,,,,,,,,,,,,,,"[""comma""]",0,27,0,27,0,1,[0.24909999999999854],,
,,,,,,,,,,,,5f009c12dac7c81b0e9c0d06,36,Mężczyzna,2022-06-11_09h26.11.138,task,2021.1.4,Win32,120.0336094,6299f149e92ead563fba08ef,62a44339f345f1eaae8dbc77,,,,,,,,,,,,,,,,,,,,,,,,,,,,,,,,,,,,,,,,,,,,,,,,,,,,,,,,,,,,,,,,,,,,,,,,,,,,,,,,,,,,,,,,,,,,"[""period""]",0,28,0,28,0,1,[0.2256999999999607],,
,,,,,,,,,,,,5f009c12dac7c81b0e9c0d06,36,Mężczyzna,2022-06-11_09h26.11.138,task,2021.1.4,Win32,120.0336094,6299f149e92ead563fba08ef,62a44339f345f1eaae8dbc77,,,,,,,,,,,,,,,,,,,,,,,,,,,,,,,,,,,,,,,,,,,,,,,,,,,,,,,,,,,,,,,,,,,,,,,,,,,,,,,,,,,,,,,,,,,,"[""period""]",0,29,0,29,0,1,[0.2672000000002299],,
,,,,,,,,,,,,5f009c12dac7c81b0e9c0d06,36,Mężczyzna,2022-06-11_09h26.11.138,task,2021.1.4,Win32,120.0336094,6299f149e92ead563fba08ef,62a44339f345f1eaae8dbc77,,,,,,,,,,,,,,,,,,,,,,,,,,,,,,,,,,,,,,,,,,,,,,,,,,,,,,,,,,,,,,,,,,,,,,,,,,,,,,,,,,,,,,,,,,,,"[""period""]",0,30,0,30,0,1,[0.21810000000050422],,
,,,,,,,,,,,,5f009c12dac7c81b0e9c0d06,36,Mężczyzna,2022-06-11_09h26.11.138,task,2021.1.4,Win32,120.0336094,6299f149e92ead563fba08ef,62a44339f345f1eaae8dbc77,,,,,,,,,,,,,,,,,,,,,,,,,,,,,,,,,,,,,,,,,,,,,,,,,,,,,,,,,,,,,,,,,,,,,,,,,,,,,,,,,,,,,,,,,,,,"[""comma""]",0,31,0,31,0,1,[0.23530000000073414],,
,,,,,,,,,,,,5f009c12dac7c81b0e9c0d06,36,Mężczyzna,2022-06-11_09h26.11.138,task,2021.1.4,Win32,120.0336094,6299f149e92ead563fba08ef,62a44339f345f1eaae8dbc77,,,,,,,,,,,,,,,,,,,,,,,,,,,,,,,,,,,,,,,,,,,,,,,,,,,,,,,,,,,,,,,,,,,,,,,,,,,,,,,,,,,,,,,,,,,,"[""period""]",0,32,0,32,0,1,[0.21899999999959618],,
,,,,,,,,,,,,5f009c12dac7c81b0e9c0d06,36,Mężczyzna,2022-06-11_09h26.11.138,task,2021.1.4,Win32,120.0336094,6299f149e92ead563fba08ef,62a44339f345f1eaae8dbc77,,,,,,,,,,,,,,,,,,,,,,,,,,,,,,,,,,,,,,,,,,,,,,,,,,,,,,,,,,,,,,,,,,,,,,,,,,,,,,,,,,,,,,,,,,,,"[""comma""]",0,33,0,33,0,1,[0.23349999999982174],,
,,,,,,,,,,,,5f009c12dac7c81b0e9c0d06,36,Mężczyzna,2022-06-11_09h26.11.138,task,2021.1.4,Win32,120.0336094,6299f149e92ead563fba08ef,62a44339f345f1eaae8dbc77,,,,,,,,,,,,,,,,,,,,,,,,,,,,,,,,,,,,,,,,,,,,,,,,,,,,,,,,,,,,,,,,,,,,,,,,,,,,,,,,,,,,,,,,,,,,"[""period""]",0,34,0,34,0,1,[0.20249999999987267],,
,,,,,,,,,,,,5f009c12dac7c81b0e9c0d06,36,Mężczyzna,2022-06-11_09h26.11.138,task,2021.1.4,Win32,120.0336094,6299f149e92ead563fba08ef,62a44339f345f1eaae8dbc77,,,,,,,,,,,,,,,,,,,,,,,,,,,,,,,,,,,,,,,,,,,,,,,,,,,,,,,,,,,,,,,,,,,,,,,,,,,,,,,,,,,,,,,,,,,,"[""period""]",0,35,0,35,0,1,[0.21929999999974825],,
,,,,,,,,,,,,5f009c12dac7c81b0e9c0d06,36,Mężczyzna,2022-06-11_09h26.11.138,task,2021.1.4,Win32,120.0336094,6299f149e92ead563fba08ef,62a44339f345f1eaae8dbc77,,,,,,,,,,,,,,,,,,,,,,,,,,,,,,,,,,,,,,,,,,,,,,,,,,,,,,,,,,,,,,,,,,,,,,,,,,,,,,,,,,,,,,,,,,,,"[""comma""]",0,36,0,36,0,1,[0.22400000000016007],,
,,,,,,,,,,,,5f009c12dac7c81b0e9c0d06,36,Mężczyzna,2022-06-11_09h26.11.138,task,2021.1.4,Win32,120.0336094,6299f149e92ead563fba08ef,62a44339f345f1eaae8dbc77,,,,,,,,,,,,,,,,,,,,,,,,,,,,,,,,,,,,,,,,,,,,,,,,,,,,,,,,,,,,,,,,,,,,,,,,,,,,,,,,,,,,,,,,,,,,"[""period""]",0,37,0,37,0,1,[0.18529999999964275],,
,,,,,,,,,,,,5f009c12dac7c81b0e9c0d06,36,Mężczyzna,2022-06-11_09h26.11.138,task,2021.1.4,Win32,120.0336094,6299f149e92ead563fba08ef,62a44339f345f1eaae8dbc77,,,,,,,,,,,,,,,,,,,,,,,,,,,,,,,,,,,,,,,,,,,,,,,,,,,,,,,,,,,,,,,,,,,,,,,,,,,,,,,,,,,,,,,,,,,,"[""comma""]",0,38,0,38,0,1,[0.15229999999974098],,
,,,,,,,,,,,,5f009c12dac7c81b0e9c0d06,36,Mężczyzna,2022-06-11_09h26.11.138,task,2021.1.4,Win32,120.0336094,6299f149e92ead563fba08ef,62a44339f345f1eaae8dbc77,,,,,,,,,,,,,,,,,,,,,,,,,,,,,,,,,,,,,,,,,,,,,,,,,,,,,,,,,,,,,,,,,,,,,,,,,,,,,,,,,,,,,,,,,,,,"[""period"",""comma""]",0,39,0,39,0,1,"[0.04059999999935826,1.8982999999998356]",,
,,,,,,,,,,,,5f009c12dac7c81b0e9c0d06,36,Mężczyzna,2022-06-11_09h26.11.138,task,2021.1.4,Win32,120.0336094,6299f149e92ead563fba08ef,62a44339f345f1eaae8dbc77,,,,,,,,,,,,,,,,,,,,,,,,,,,,,,,,,,,,,,,,,,,,,,,,,,,,,,,,,,,,,,,,,,,,,,,,,,,,,,,,,,,,,,,,,,,,"[""period""]",0,40,0,40,0,1,[1.7368000000001302],,
,,,,,,,,,,,,5f009c12dac7c81b0e9c0d06,36,Mężczyzna,2022-06-11_09h26.11.138,task,2021.1.4,Win32,120.0336094,6299f149e92ead563fba08ef,62a44339f345f1eaae8dbc77,,,,,,,,,,,,,,,,,,,,,,,,,,,,,,,,,,,,,,,,,,,,,,,,,,,,,,,,,,,,,,,,,,,,,,,,,,,,,,,,,,,,,,,,,,,,"[""period""]",0,41,0,41,0,1,[1.9295000000001892],,
,,,,,,,,,,,,5f009c12dac7c81b0e9c0d06,36,Mężczyzna,2022-06-11_09h26.11.138,task,2021.1.4,Win32,120.0336094,6299f149e92ead563fba08ef,62a44339f345f1eaae8dbc77,,,,,,,,,,,,,,,,,,,,,,,,,,,,,,,,,,,,,,,,,,,,,,,,,,,,,,,,,,,,,,,,,,,,,,,,,,,,,,,,,,,,,,,,,,,,,0,42,0,42,0,1,,,
,,,,,,,,,,,,5f009c12dac7c81b0e9c0d06,36,Mężczyzna,2022-06-11_09h26.11.138,task,2021.1.4,Win32,120.0336094,6299f149e92ead563fba08ef,62a44339f345f1eaae8dbc77,,,,,,,,,,,,,,,,,,,,,,,,,,,,,,,,,,,,,,,,,,,,,,,,,,,,,,,,,,,,,,,,,,,,,,,,,,,,,,,,,,,,,,,,,,,,"[""comma""]",0,43,0,43,0,1,[0.2422999999998865],,
,,,,,,,,,,,,5f009c12dac7c81b0e9c0d06,36,Mężczyzna,2022-06-11_09h26.11.138,task,2021.1.4,Win32,120.0336094,6299f149e92ead563fba08ef,62a44339f345f1eaae8dbc77,,,,,,,,,,,,,,,,,,,,,,,,,,,,,,,,,,,,,,,,,,,,,,,,,,,,,,,,,,,,,,,,,,,,,,,,,,,,,,,,,,,,,,,,,,,,"[""period""]",0,44,0,44,0,1,[0.03540000000020882],,
,,,,,,,,,,,,5f009c12dac7c81b0e9c0d06,36,Mężczyzna,2022-06-11_09h26.11.138,task,2021.1.4,Win32,120.0336094,6299f149e92ead563fba08ef,62a44339f345f1eaae8dbc77,,,,,,,,,,,,,,,,,,,,,,,,,,,,,,,,,,,,,,,,,,,,,,,,,,,,,,,,,,,,,,,,,,,,,,,,,,,,,,,,,,,,,,,,,,,,"[""period"",""comma""]",0,45,0,45,0,1,"[0.050300000000788714,1.9279999999998836]",,
,,,,,,,,,,,,5f009c12dac7c81b0e9c0d06,36,Mężczyzna,2022-06-11_09h26.11.138,task,2021.1.4,Win32,120.0336094,6299f149e92ead563fba08ef,62a44339f345f1eaae8dbc77,,,,,,,,,,,,,,,,,,,,,,,,,,,,,,,,,,,,,,,,,,,,,,,,,,,,,,,,,,,,,,,,,,,,,,,,,,,,,,,,,,,,,,,,,,,,,0,46,0,46,0,1,,,
,,,,,,,,,,,,5f009c12dac7c81b0e9c0d06,36,Mężczyzna,2022-06-11_09h26.11.138,task,2021.1.4,Win32,120.0336094,6299f149e92ead563fba08ef,62a44339f345f1eaae8dbc77,,,,,,,,,,,,,,,,,,,,,,,,,,,,,,,,,,,,,,,,,,,,,,,,,,,,,,,,,,,,,,,,,,,,,,,,,,,,,,,,,,,,,,,,,,,,"[""comma""]",0,47,0,47,0,1,[0.2757000000001426],,
,,,,,,,,,,,,5f009c12dac7c81b0e9c0d06,36,Mężczyzna,2022-06-11_09h26.11.138,task,2021.1.4,Win32,120.0336094,6299f149e92ead563fba08ef,62a44339f345f1eaae8dbc77,,,,,,,,,,,,,,,,,,,,,,,,,,,,,,,,,,,,,,,,,,,,,,,,,,,,,,,,,,,,,,,,,,,,,,,,,,,,,,,,,,,,,,,,,,,,"[""comma""]",0,48,0,48,0,1,[0.24219999999922948],,
,,,,,,,,,,,,5f009c12dac7c81b0e9c0d06,36,Mężczyzna,2022-06-11_09h26.11.138,task,2021.1.4,Win32,120.0336094,6299f149e92ead563fba08ef,62a44339f345f1eaae8dbc77,,,,,,,,,,,,,,,,,,,,,,,,,,,,,,,,,,,,,,,,,,,,,,,,,,,,,,,,,,,,,,,,,,,,,,,,,,,,,,,,,,,,,,,,,,,,"[""period""]",0,49,0,49,0,1,[0.1920999999997548],,
,,,,,,,,,,,,5f009c12dac7c81b0e9c0d06,36,Mężczyzna,2022-06-11_09h26.11.138,task,2021.1.4,Win32,120.0336094,6299f149e92ead563fba08ef,62a44339f345f1eaae8dbc77,,,,,,,,,,,,,,,,,,,,,,,,,,,,,,,,,,,,,,,,,,,,,,,,,,,,,,,,,,,,,,,,,,,,,,,,,,,,,,,,,,,,,,,,,,,,"[""period""]",0,50,0,50,0,1,[0.13599999999996726],,
,,,,,,,,,,,,5f009c12dac7c81b0e9c0d06,36,Mężczyzna,2022-06-11_09h26.11.138,task,2021.1.4,Win32,120.0336094,6299f149e92ead563fba08ef,62a44339f345f1eaae8dbc77,,,,,,,,,,,,,,,,,,,,,,,,,,,,,,,,,,,,,,,,,,,,,,,,,,,,,,,,,,,,,,,,,,,,,,,,,,,,,,,,,,,,,,,,,,,,"[""period""]",0,51,0,51,0,1,[0.13609999999971478],,
,,,,,,,,,,,,5f009c12dac7c81b0e9c0d06,36,Mężczyzna,2022-06-11_09h26.11.138,task,2021.1.4,Win32,120.0336094,6299f149e92ead563fba08ef,62a44339f345f1eaae8dbc77,,,,,,,,,,,,,,,,,,,,,,,,,,,,,,,,,,,,,,,,,,,,,,,,,,,,,,,,,,,,,,,,,,,,,,,,,,,,,,,,,,,,,,,,,,,,"[""comma""]",0,52,0,52,0,1,[0.15189999999938664],,
,,,,,,,,,,,,5f009c12dac7c81b0e9c0d06,36,Mężczyzna,2022-06-11_09h26.11.138,task,2021.1.4,Win32,120.0336094,6299f149e92ead563fba08ef,62a44339f345f1eaae8dbc77,,,,,,,,,,,,,,,,,,,,,,,,,,,,,,,,,,,,,,,,,,,,,,,,,,,,,,,,,,,,,,,,,,,,,,,,,,,,,,,,,,,,,,,,,,,,"[""period""]",0,53,0,53,0,1,[0.2253999999993539],,
,,,,,,,,,,,,5f009c12dac7c81b0e9c0d06,36,Mężczyzna,2022-06-11_09h26.11.138,task,2021.1.4,Win32,120.0336094,6299f149e92ead563fba08ef,62a44339f345f1eaae8dbc77,,,,,,,,,,,,,,,,,,,,,,,,,,,,,,,,,,,,,,,,,,,,,,,,,,,,,,,,,,,,,,,,,,,,,,,,,,,,,,,,,,,,,,,,,,,,"[""comma""]",0,54,0,54,0,1,[0.32090000000016516],,
,,,,,,,,,,,,5f009c12dac7c81b0e9c0d06,36,Mężczyzna,2022-06-11_09h26.11.138,task,2021.1.4,Win32,120.0336094,6299f149e92ead563fba08ef,62a44339f345f1eaae8dbc77,,,,,,,,,,,,,,,,,,,,,,,,,,,,,,,,,,,,,,,,,,,,,,,,,,,,,,,,,,,,,,,,,,,,,,,,,,,,,,,,,,,,,,,,,,,,"[""period""]",0,55,0,55,0,1,[0.2716000000000349],,
,,,,,,,,,,,,5f009c12dac7c81b0e9c0d06,36,Mężczyzna,2022-06-11_09h26.11.138,task,2021.1.4,Win32,120.0336094,6299f149e92ead563fba08ef,62a44339f345f1eaae8dbc77,,,,,,,,,,,,,,,,,,,,,,,,,,,,,,,,,,,,,,,,,,,,,,,,,,,,,,,,,,,,,,,,,,,,,,,,,,,,,,,,,,,,,,,,,,,,"[""comma""]",0,56,0,56,0,1,[0.27529999999978827],,
,,,,,,,,,,,,5f009c12dac7c81b0e9c0d06,36,Mężczyzna,2022-06-11_09h26.11.138,task,2021.1.4,Win32,120.0336094,6299f149e92ead563fba08ef,62a44339f345f1eaae8dbc77,,,,,,,,,,,,,,,,,,,,,,,,,,,,,,,,,,,,,,,,,,,,,,,,,,,,,,,,,,,,,,,,,,,,,,,,,,,,,,,,,,,,,,,,,,,,"[""comma""]",0,57,0,57,0,1,[0.2252000000003136],,
,,,,,,,,,,,,5f009c12dac7c81b0e9c0d06,36,Mężczyzna,2022-06-11_09h26.11.138,task,2021.1.4,Win32,120.0336094,6299f149e92ead563fba08ef,62a44339f345f1eaae8dbc77,,,,,,,,,,,,,,,,,,,,,,,,,,,,,,,,,,,,,,,,,,,,,,,,,,,,,,,,,,,,,,,,,,,,,,,,,,,,,,,,,,,,,,,,,,,,"[""period""]",0,58,0,58,0,1,[0.19190000000025975],,
,,,,,,,,,,,,5f009c12dac7c81b0e9c0d06,36,Mężczyzna,2022-06-11_09h26.11.138,task,2021.1.4,Win32,120.0336094,6299f149e92ead563fba08ef,62a44339f345f1eaae8dbc77,,,,,,,,,,,,,,,,,,,,,,,,,,,,,,,,,,,,,,,,,,,,,,,,,,,,,,,,,,,,,,,,,,,,,,,,,,,,,,,,,,,,,,,,,,,,"[""period""]",0,59,0,59,0,1,[0.13539999999920838],,
,,,,,,,,,,,,5f009c12dac7c81b0e9c0d06,36,Mężczyzna,2022-06-11_09h26.11.138,task,2021.1.4,Win32,120.0336094,6299f149e92ead563fba08ef,62a44339f345f1eaae8dbc77,,,,,,,,,,,,,,,,,,,,,,,,,,,,,,,,,,,,,,,,,,,,,,,,,,,,,,,,,,,,,,,,,,,,,,,,,,,,,,,,,,,,,,,,,,,,"[""comma""]",0,60,0,60,0,1,[0.23389999999926658],,
,,,,,,,,,,,,5f009c12dac7c81b0e9c0d06,36,Mężczyzna,2022-06-11_09h26.11.138,task,2021.1.4,Win32,120.0336094,6299f149e92ead563fba08ef,62a44339f345f1eaae8dbc77,,,,,,,,,,,,,,,,,,,,,,,,,,,,,,,,,,,,,,,,,,,,,,,,,,,,,,,,,,,,,,,,,,,,,,,,,,,,,,,,,,,,,,,,,,,,"[""comma""]",0,61,0,61,0,1,[0.3269999999997708],,
,,,,,,,,,,,,5f009c12dac7c81b0e9c0d06,36,Mężczyzna,2022-06-11_09h26.11.138,task,2021.1.4,Win32,120.0336094,6299f149e92ead563fba08ef,62a44339f345f1eaae8dbc77,,,,,,,,,,,,,,,,,,,,,,,,,,,,,,,,,,,,,,,,,,,,,,,,,,,,,,,,,,,,,,,,,,,,,,,,,,,,,,,,,,,,,,,,,,,,"[""period""]",0,62,0,62,0,1,[0.23360000000047876],,
,,,,,,,,,,,,5f009c12dac7c81b0e9c0d06,36,Mężczyzna,2022-06-11_09h26.11.138,task,2021.1.4,Win32,120.0336094,6299f149e92ead563fba08ef,62a44339f345f1eaae8dbc77,,,,,,,,,,,,,,,,,,,,,,,,,,,,,,,,,,,,,,,,,,,,,,,,,,,,,,,,,,,,,,,,,,,,,,,,,,,,,,,,,,,,,,,,,,,,"[""period""]",0,63,0,63,0,1,[0.8545999999996639],,
,,,,,,,,,,,,5f009c12dac7c81b0e9c0d06,36,Mężczyzna,2022-06-11_09h26.11.138,task,2021.1.4,Win32,120.0336094,6299f149e92ead563fba08ef,62a44339f345f1eaae8dbc77,,,,,,,,,,,,,,,,,,,,,,,,,,,,,,,,,,,,,,,,,,,,,,,,,,,,,,,,,,,,,,,,,,,,,,,,,,,,,,,,,,,,,,,,,,,,"[""comma""]",0,64,0,64,0,1,[0.2171000000003005],,
,,,,,,,,,,,,5f009c12dac7c81b0e9c0d06,36,Mężczyzna,2022-06-11_09h26.11.138,task,2021.1.4,Win32,120.0336094,6299f149e92ead563fba08ef,62a44339f345f1eaae8dbc77,,,,,,,,,,,,,,,,,,,,,,,,,,,,,,,,,,,,,,,,,,,,,,,,,,,,,,,,,,,,,,,,,,,,,,,,,,,,,,,,,,,,,,,,,,,,"[""period""]",0,65,0,65,0,1,[0.21699999999964348],,
,,,,,,,,,,,,5f009c12dac7c81b0e9c0d06,36,Mężczyzna,2022-06-11_09h26.11.138,task,2021.1.4,Win32,120.0336094,6299f149e92ead563fba08ef,62a44339f345f1eaae8dbc77,,,,,,,,,,,,,,,,,,,,,,,,,,,,,,,,,,,,,,,,,,,,,,,,,,,,,,,,,,,,,,,,,,,,,,,,,,,,,,,,,,,,,,,,,,,,"[""comma""]",0,66,0,66,0,1,[0.1505000000001928],,
,,,,,,,,,,,,5f009c12dac7c81b0e9c0d06,36,Mężczyzna,2022-06-11_09h26.11.138,task,2021.1.4,Win32,120.0336094,6299f149e92ead563fba08ef,62a44339f345f1eaae8dbc77,,,,,,,,,,,,,,,,,,,,,,,,,,,,,,,,,,,,,,,,,,,,,,,,,,,,,,,,,,,,,,,,,,,,,,,,,,,,,,,,,,,,,,,,,,,,"[""period""]",0,67,0,67,0,1,[0.19200000000000728],,
,,,,,,,,,,,,5f009c12dac7c81b0e9c0d06,36,Mężczyzna,2022-06-11_09h26.11.138,task,2021.1.4,Win32,120.0336094,6299f149e92ead563fba08ef,62a44339f345f1eaae8dbc77,,,,,,,,,,,,,,,,,,,,,,,,,,,,,,,,,,,,,,,,,,,,,,,,,,,,,,,,,,,,,,,,,,,,,,,,,,,,,,,,,,,,,,,,,,,,"[""period""]",0,68,0,68,0,1,[0.008500000000367436],,
,,,,,,,,,,,,5f009c12dac7c81b0e9c0d06,36,Mężczyzna,2022-06-11_09h26.11.138,task,2021.1.4,Win32,120.0336094,6299f149e92ead563fba08ef,62a44339f345f1eaae8dbc77,,,,,,,,,,,,,,,,,,,,,,,,,,,,,,,,,,,,,,,,,,,,,,,,,,,,,,,,,,,,,,,,,,,,,,,,,,,,,,,,,,,,,,,,,,,,"[""comma""]",0,69,0,69,0,1,[0.16710000000057335],,
,,,,,,,,,,,,5f009c12dac7c81b0e9c0d06,36,Mężczyzna,2022-06-11_09h26.11.138,task,2021.1.4,Win32,120.0336094,6299f149e92ead563fba08ef,62a44339f345f1eaae8dbc77,,,,,,,,,,,,,,,,,,,,,,,,,,,,,,,,,,,,,,,,,,,,,,,,,,,,,,,,,,,,,,,,,,,,,,,,,,,,,,,,,,,,,,,,,,,,"[""period""]",0,70,0,70,0,1,[0.15860000000066066],,
,,,,,,,,,,,,5f009c12dac7c81b0e9c0d06,36,Mężczyzna,2022-06-11_09h26.11.138,task,2021.1.4,Win32,120.0336094,6299f149e92ead563fba08ef,62a44339f345f1eaae8dbc77,,,,,,,,,,,,,,,,,,,,,,,,,,,,,,,,,,,,,,,,,,,,,,,,,,,,,,,,,,,,,,,,,,,,,,,,,,,,,,,,,,,,,,,,,,,,"[""comma""]",0,71,0,71,0,1,[0.09430000000065775],,
,,,,,,,,,,,,5f009c12dac7c81b0e9c0d06,36,Mężczyzna,2022-06-11_09h26.11.138,task,2021.1.4,Win32,120.0336094,6299f149e92ead563fba08ef,62a44339f345f1eaae8dbc77,,,,,,,,,,,,,,,,,,,,,,,,,,,,,,,,,,,,,,,,,,,,,,,,,,,,,,,,,,,,,,,,,,,,,,,,,,,,,,,,,,,,,,,,,,,,"[""period""]",0,72,0,72,0,1,[0.2670999999995729],,
,,,,,,,,,,,,5f009c12dac7c81b0e9c0d06,36,Mężczyzna,2022-06-11_09h26.11.138,task,2021.1.4,Win32,120.0336094,6299f149e92ead563fba08ef,62a44339f345f1eaae8dbc77,,,,,,,,,,,,,,,,,,,,,,,,,,,,,,,,,,,,,,,,,,,,,,,,,,,,,,,,,,,,,,,,,,,,,,,,,,,,,,,,,,,,,,,,,,,,"[""comma"",""period""]",0,73,0,73,0,1,"[0.08639999999968495,1.9342999999998938]",,
,,,,,,,,,,,,5f009c12dac7c81b0e9c0d06,36,Mężczyzna,2022-06-11_09h26.11.138,task,2021.1.4,Win32,120.0336094,6299f149e92ead563fba08ef,62a44339f345f1eaae8dbc77,,,,,,,,,,,,,,,,,,,,,,,,,,,,,,,,,,,,,,,,,,,,,,,,,,,,,,,,,,,,,,,,,,,,,,,,,,,,,,,,,,,,,,,,,,,,"[""comma""]",0,74,0,74,0,1,[1.7339999999999236],,
,,,,,,,,,,,,5f009c12dac7c81b0e9c0d06,36,Mężczyzna,2022-06-11_09h26.11.138,task,2021.1.4,Win32,120.0336094,6299f149e92ead563fba08ef,62a44339f345f1eaae8dbc77,,,,,,,,,,,,,,,,,,,,,,,,,,,,,,,,,,,,,,,,,,,,,,,,,,,,,,,,,,,,,,,,,,,,,,,,,,,,,,,,,,,,,,,,,,,,"[""comma""]",0,75,0,75,0,1,[1.9499000000000706],,
,,,,,,,,,,,,5f009c12dac7c81b0e9c0d06,36,Mężczyzna,2022-06-11_09h26.11.138,task,2021.1.4,Win32,120.0336094,6299f149e92ead563fba08ef,62a44339f345f1eaae8dbc77,,,,,,,,,,,,,,,,,,,,,,,,,,,,,,,,,,,,,,,,,,,,,,,,,,,,,,,,,,,,,,,,,,,,,,,,,,,,,,,,,,,,,,,,,,,,,0,76,0,76,0,1,,,
,,,,,,,,,,,,5f009c12dac7c81b0e9c0d06,36,Mężczyzna,2022-06-11_09h26.11.138,task,2021.1.4,Win32,120.0336094,6299f149e92ead563fba08ef,62a44339f345f1eaae8dbc77,,,,,,,,,,,,,,,,,,,,,,,,,,,,,,,,,,,,,,,,,,,,,,,,,,,,,,,,,,,,,,,,,,,,,,,,,,,,,,,,,,,,,,,,,,,,"[""period""]",0,77,0,77,0,1,[0.19940000000042346],,
,,,,,,,,,,,,5f009c12dac7c81b0e9c0d06,36,Mężczyzna,2022-06-11_09h26.11.138,task,2021.1.4,Win32,120.0336094,6299f149e92ead563fba08ef,62a44339f345f1eaae8dbc77,,,,,,,,,,,,,,,,,,,,,,,,,,,,,,,,,,,,,,,,,,,,,,,,,,,,,,,,,,,,,,,,,,,,,,,,,,,,,,,,,,,,,,,,,,,,"[""comma""]",0,78,0,78,0,1,[0.10910000000058062],,
,,,,,,,,,,,,5f009c12dac7c81b0e9c0d06,36,Mężczyzna,2022-06-11_09h26.11.138,task,2021.1.4,Win32,120.0336094,6299f149e92ead563fba08ef,62a44339f345f1eaae8dbc77,,,,,,,,,,,,,,,,,,,,,,,,,,,,,,,,,,,,,,,,,,,,,,,,,,,,,,,,,,,,,,,,,,,,,,,,,,,,,,,,,,,,,,,,,,,,"[""period""]",0,79,0,79,0,1,[0.22140000000035798],,
,,,,,,,,,,,,5f009c12dac7c81b0e9c0d06,36,Mężczyzna,2022-06-11_09h26.11.138,task,2021.1.4,Win32,120.0336094,6299f149e92ead563fba08ef,62a44339f345f1eaae8dbc77,,,,,,,,,,,,,,,,,,,,,,,,,,,,,,,,,,,,,,,,,,,,,,,,,,,,,,,,,,,,,,,,,,,,,,,,,,,,,,,,,,,,,,,,,,,,"[""comma""]",0,80,0,80,0,1,[0.10919999999941865],,
,,,,,,,,,,,,5f009c12dac7c81b0e9c0d06,36,Mężczyzna,2022-06-11_09h26.11.138,task,2021.1.4,Win32,120.0336094,6299f149e92ead563fba08ef,62a44339f345f1eaae8dbc77,,,,,,,,,,,,,,,,,,,,,,,,,,,,,,,,,,,,,,,,,,,,,,,,,,,,,,,,,,,,,,,,,,,,,,,,,,,,,,,,,,,,,,,,,,,,"[""period""]",0,81,0,81,0,1,[0.22159999999939828],,
,,,,,,,,,,,,5f009c12dac7c81b0e9c0d06,36,Mężczyzna,2022-06-11_09h26.11.138,task,2021.1.4,Win32,120.0336094,6299f149e92ead563fba08ef,62a44339f345f1eaae8dbc77,,,,,,,,,,,,,,,,,,,,,,,,,,,,,,,,,,,,,,,,,,,,,,,,,,,,,,,,,,,,,,,,,,,,,,,,,,,,,,,,,,,,,,,,,,,,"[""comma""]",0,82,0,82,0,1,[0.2055000000000291],,
,,,,,,,,,,,,5f009c12dac7c81b0e9c0d06,36,Mężczyzna,2022-06-11_09h26.11.138,task,2021.1.4,Win32,120.0336094,6299f149e92ead563fba08ef,62a44339f345f1eaae8dbc77,,,,,,,,,,,,,,,,,,,,,,,,,,,,,,,,,,,,,,,,,,,,,,,,,,,,,,,,,,,,,,,,,,,,,,,,,,,,,,,,,,,,,,,,,,,,"[""period""]",0,83,0,83,0,1,[0.2695000000003347],,
,,,,,,,,,,,,5f009c12dac7c81b0e9c0d06,36,Mężczyzna,2022-06-11_09h26.11.138,task,2021.1.4,Win32,120.0336094,6299f149e92ead563fba08ef,62a44339f345f1eaae8dbc77,,,,,,,,,,,,,,,,,,,,,,,,,,,,,,,,,,,,,,,,,,,,,,,,,,,,,,,,,,,,,,,,,,,,,,,,,,,,,,,,,,,,,,,,,,,,"[""period""]",0,84,0,84,0,1,[0.2529000000004089],,
,,,,,,,,,,,,5f009c12dac7c81b0e9c0d06,36,Mężczyzna,2022-06-11_09h26.11.138,task,2021.1.4,Win32,120.0336094,6299f149e92ead563fba08ef,62a44339f345f1eaae8dbc77,,,,,,,,,,,,,,,,,,,,,,,,,,,,,,,,,,,,,,,,,,,,,,,,,,,,,,,,,,,,,,,,,,,,,,,,,,,,,,,,,,,,,,,,,,,,"[""comma""]",0,85,0,85,0,1,[0.22530000000006112],,
,,,,,,,,,,,,5f009c12dac7c81b0e9c0d06,36,Mężczyzna,2022-06-11_09h26.11.138,task,2021.1.4,Win32,120.0336094,6299f149e92ead563fba08ef,62a44339f345f1eaae8dbc77,,,,,,,,,,,,,,,,,,,,,,,,,,,,,,,,,,,,,,,,,,,,,,,,,,,,,,,,,,,,,,,,,,,,,,,,,,,,,,,,,,,,,,,,,,,,"[""period""]",0,86,0,86,0,1,[0.053400000000237924],,
,,,,,,,,,,,,5f009c12dac7c81b0e9c0d06,36,Mężczyzna,2022-06-11_09h26.11.138,task,2021.1.4,Win32,120.0336094,6299f149e92ead563fba08ef,62a44339f345f1eaae8dbc77,,,,,,,,,,,,,,,,,,,,,,,,,,,,,,,,,,,,,,,,,,,,,,,,,,,,,,,,,,,,,,,,,,,,,,,,,,,,,,,,,,,,,,,,,,,,"[""comma""]",0,87,0,87,0,1,[0.2130000000001928],,
,,,,,,,,,,,,5f009c12dac7c81b0e9c0d06,36,Mężczyzna,2022-06-11_09h26.11.138,task,2021.1.4,Win32,120.0336094,6299f149e92ead563fba08ef,62a44339f345f1eaae8dbc77,,,,,,,,,,,,,,,,,,,,,,,,,,,,,,,,,,,,,,,,,,,,,,,,,,,,,,,,,,,,,,,,,,,,,,,,,,,,,,,,,,,,,,,,,,,,"[""period""]",0,88,0,88,0,1,[0.21259999999938373],,
,,,,,,,,,,,,5f009c12dac7c81b0e9c0d06,36,Mężczyzna,2022-06-11_09h26.11.138,task,2021.1.4,Win32,120.0336094,6299f149e92ead563fba08ef,62a44339f345f1eaae8dbc77,,,,,,,,,,,,,,,,,,,,,,,,,,,,,,,,,,,,,,,,,,,,,,,,,,,,,,,,,,,,,,,,,,,,,,,,,,,,,,,,,,,,,,,,,,,,"[""comma""]",0,89,0,89,0,1,[0.20079999999961728],,
,,,,,,,,,,,,5f009c12dac7c81b0e9c0d06,36,Mężczyzna,2022-06-11_09h26.11.138,task,2021.1.4,Win32,120.0336094,6299f149e92ead563fba08ef,62a44339f345f1eaae8dbc77,,,,,,,,,,,,,,,,,,,,,,,,,,,,,,,,,,,,,,,,,,,,,,,,,,,,,,,,,,,,,,,,,,,,,,,,,,,,,,,,,,,,,,,,,,,,"[""period""]",0,90,0,90,0,1,[0.24460000000090076],,
,,,,,,,,,,,,5f009c12dac7c81b0e9c0d06,36,Mężczyzna,2022-06-11_09h26.11.138,task,2021.1.4,Win32,120.0336094,6299f149e92ead563fba08ef,62a44339f345f1eaae8dbc77,,,,,,,,,,,,,,,,,,,,,,,,,,,,,,,,,,,,,,,,,,,,,,,,,,,,,,,,,,,,,,,,,,,,,,,,,,,,,,,,,,,,,,,,,,,,"[""comma""]",0,91,0,91,0,1,[0.23670000000038272],,
,,,,,,,,,,,,5f009c12dac7c81b0e9c0d06,36,Mężczyzna,2022-06-11_09h26.11.138,task,2021.1.4,Win32,120.0336094,6299f149e92ead563fba08ef,62a44339f345f1eaae8dbc77,,,,,,,,,,,,,,,,,,,,,,,,,,,,,,,,,,,,,,,,,,,,,,,,,,,,,,,,,,,,,,,,,,,,,,,,,,,,,,,,,,,,,,,,,,,,"[""period""]",0,92,0,92,0,1,[0.37540000000035434],,
,,,,,,,,,,,,5f009c12dac7c81b0e9c0d06,36,Mężczyzna,2022-06-11_09h26.11.138,task,2021.1.4,Win32,120.0336094,6299f149e92ead563fba08ef,62a44339f345f1eaae8dbc77,,,,,,,,,,,,,,,,,,,,,,,,,,,,,,,,,,,,,,,,,,,,,,,,,,,,,,,,,,,,,,,,,,,,,,,,,,,,,,,,,,,,,,,,,,,,"[""comma""]",0,93,0,93,0,1,[0.276299999999992],,
,,,,,,,,,,,,5f009c12dac7c81b0e9c0d06,36,Mężczyzna,2022-06-11_09h26.11.138,task,2021.1.4,Win32,120.0336094,6299f149e92ead563fba08ef,62a44339f345f1eaae8dbc77,,,,,,,,,,,,,,,,,,,,,,,,,,,,,,,,,,,,,,,,,,,,,,,,,,,,,,,,,,,,,,,,,,,,,,,,,,,,,,,,,,,,,,,,,,,,"[""period""]",0,94,0,94,0,1,[0.19190000000025975],,
,,,,,,,,,,,,5f009c12dac7c81b0e9c0d06,36,Mężczyzna,2022-06-11_09h26.11.138,task,2021.1.4,Win32,120.0336094,6299f149e92ead563fba08ef,62a44339f345f1eaae8dbc77,,,,,,,,,,,,,,,,,,,,,,,,,,,,,,,,,,,,,,,,,,,,,,,,,,,,,,,,,,,,,,,,,,,,,,,,,,,,,,,,,,,,,,,,,,,,"[""period""]",0,95,0,95,0,1,[0.25989999999956126],,
,,,,,,,,,,,,5f009c12dac7c81b0e9c0d06,36,Mężczyzna,2022-06-11_09h26.11.138,task,2021.1.4,Win32,120.0336094,6299f149e92ead563fba08ef,62a44339f345f1eaae8dbc77,,,,,,,,,,,,,,,,,,,,,,,,,,,,,,,,,,,,,,,,,,,,,,,,,,,,,,,,,,,,,,,,,,,,,,,,,,,,,,,,,,,,,,,,,,,,"[""comma""]",0,96,0,96,0,1,[0.2755000000001928],,
,,,,,,,,,,,,5f009c12dac7c81b0e9c0d06,36,Mężczyzna,2022-06-11_09h26.11.138,task,2021.1.4,Win32,120.0336094,6299f149e92ead563fba08ef,62a44339f345f1eaae8dbc77,,,,,,,,,,,,,,,,,,,,,,,,,,,,,,,,,,,,,,,,,,,,,,,,,,,,,,,,,,,,,,,,,,,,,,,,,,,,,,,,,,,,,,,,,,,,"[""period""]",0,97,0,97,0,1,[0.16390000000046712],,
,,,,,,,,,,,,5f009c12dac7c81b0e9c0d06,36,Mężczyzna,2022-06-11_09h26.11.138,task,2021.1.4,Win32,120.0336094,6299f149e92ead563fba08ef,62a44339f345f1eaae8dbc77,,,,,,,,,,,,,,,,,,,,,,,,,,,,,,,,,,,,,,,,,,,,,,,,,,,,,,,,,,,,,,,,,,,,,,,,,,,,,,,,,,,,,,,,,,,,"[""comma""]",0,98,0,98,0,1,[0.11679999999978463],,
,,,,,,,,,,,,5f009c12dac7c81b0e9c0d06,36,Mężczyzna,2022-06-11_09h26.11.138,task,2021.1.4,Win32,120.0336094,6299f149e92ead563fba08ef,62a44339f345f1eaae8dbc77,,,,,,,,,,,,,,,,,,,,,,,,,,,,,,,,,,,,,,,,,,,,,,,,,,,,,,,,,,,,,,,,,,,,,,,,,,,,,,,,,,,,,,,,,,,,"[""period""]",0,99,0,99,0,1,[0.14309999999977663],,
,,,,,,,,,,,,5f009c12dac7c81b0e9c0d06,36,Mężczyzna,2022-06-11_09h26.11.138,task,2021.1.4,Win32,120.0336094,6299f149e92ead563fba08ef,62a44339f345f1eaae8dbc77,,,,,,,,,,,,,,,,,,,,,,,,,,,,,,,,,,,,,,,,,,,,,,,,,,,,,,,,,,,,,,,,,,,,,,,,,,,,,,,,,,,,,,,,,,,,"[""period""]",0,100,0,100,0,1,[0.20329999999967185],,
,,,,,,,,,,,,5f009c12dac7c81b0e9c0d06,36,Mężczyzna,2022-06-11_09h26.11.138,task,2021.1.4,Win32,120.0336094,6299f149e92ead563fba08ef,62a44339f345f1eaae8dbc77,,,,,,,,,,,,,,,,,,,,,,,,,,,,,,,,,,,,,,,,,,,,,,,,,,,,,,,,,,,,,,,,,,,,,,,,,,,,,,,,,,,,,,,,,,,,"[""period""]",0,101,0,101,0,1,[0.16320000000041546],,
