key_resp_15.keys,key_resp_15.rt,key_resp_16.keys,key_resp_16.rt,key_resp_4.keys,key_resp_4.rt,next_letter.thisRepN,next_letter.thisTrialN,next_letter.thisN,next_letter.thisIndex,next_letter.ran,letter,participant,Wiek*,Płeć,date,expName,psychopyVersion,OS,frameRate,study_id,session,simple_recall,key_resp_5.keys,key_resp_5.rt,simple_recall_corr,simple_recall_corrkeys,next_level.thisRepN,next_level.thisTrialN,next_level.thisN,next_level.thisIndex,next_level.ran,key_resp_2.keys,key_resp_2.rt,digit_answer,key_resp.keys,key_resp.corr,key_resp.rt,RT_list,next_equation.thisRepN,next_equation.thisTrialN,next_equation.thisN,next_equation.thisIndex,next_equation.ran,Task,Trial,Problem,Operation_answer,processing_score,sumRT,meanRT,sumdiff,sd,RT,key_resp_3.keys,key_resp_3.rt,repeat_practice.thisRepN,repeat_practice.thisTrialN,repeat_practice.thisN,repeat_practice.thisIndex,repeat_practice.ran,key_resp_6.keys,key_resp_6.rt,key_resp_11.keys,key_resp_11.corr,key_resp_11.rt,operation_correct,repeat_if_wrong_prac.thisRepN,repeat_if_wrong_prac.thisTrialN,repeat_if_wrong_prac.thisN,repeat_if_wrong_prac.thisIndex,repeat_if_wrong_prac.ran,span_size_prac.thisRepN,span_size_prac.thisTrialN,span_size_prac.thisN,span_size_prac.thisIndex,span_size_prac.ran,complex_recall_practice,key_resp_9.keys,key_resp_9.corr,key_resp_9.rt,complex_prac_corr,span_recall_prac.thisRepN,span_recall_prac.thisTrialN,span_recall_prac.thisN,span_recall_prac.thisIndex,span_recall_prac.ran,key_resp_10.keys,key_resp_10.rt,key_resp_7.keys,key_resp_7.corr,key_resp_7.rt,repeat_if_wrong.thisRepN,repeat_if_wrong.thisTrialN,repeat_if_wrong.thisN,repeat_if_wrong.thisIndex,repeat_if_wrong.ran,span_size.thisRepN,span_size.thisTrialN,span_size.thisN,span_size.thisIndex,span_size.ran,complex_recall,key_resp_8.keys,key_resp_8.corr,key_resp_8.rt,complex_recall_corr,complex_recall_corrkeys,span_recall.thisRepN,span_recall.thisTrialN,span_recall.thisN,span_recall.thisIndex,span_recall.ran,key_resp_13.keys,key_resp_13.corr,key_resp_13.rt,random_loop.thisRepN,random_loop.thisTrialN,random_loop.thisN,random_loop.thisIndex,random_loop.ran,key_resp_12.keys,key_resp_12.rt
space,131.158,space,245.176,space,7.685,0,0,0,0,1,X V Q F H G B L J M P D K C T S W R N Z,5f0214e58782120a8c970fd6,33,Kobieta,2022-06-11_11h06.12.810,task,2021.1.4,Win32,60.0240096,6299f149e92ead563fba08ef,62a45aa71aae361cb741fd62,,,,,,,,,,,,,,,,,,,,,,,,,,,,,,,,,,,,,,,,,,,,,,,,,,,,,,,,,,,,,,,,,,,,,,,,,,,,,,,,,,,,,,,,,,,,,,,,,,,,,
,,,,,,1,0,1,0,1,X V Q F H G B L J M P D K C T S W R N Z,5f0214e58782120a8c970fd6,33,Kobieta,2022-06-11_11h06.12.810,task,2021.1.4,Win32,60.0240096,6299f149e92ead563fba08ef,62a45aa71aae361cb741fd62,,,,,,,,,,,,,,,,,,,,,,,,,,,,,,,,,,,,,,,,,,,,,,,,,,,,,,,,,,,,,,,,,,,,,,,,,,,,,,,,,,,,,,,,,,,,,,,,,,,,,
,,,,,,,,,,,,5f0214e58782120a8c970fd6,33,Kobieta,2022-06-11_11h06.12.810,task,2021.1.4,Win32,60.0240096,6299f149e92ead563fba08ef,62a45aa71aae361cb741fd62,zm,"[""z"",""m""]","[1.5570000000000164,2.194000000000017,2.958000000000027]",1,ZM,0,0,0,0,1,,,,,,,,,,,,,,,,,,,,,,,,,,,,,,,,,,,,,,,,,,,,,,,,,,,,,,,,,,,,,,,,,,,,,,,,,,,,,,,,,,,,,,,,,,,
,,,,,,0,0,0,0,1,X V Q F H G B L J M P D K C T S W R N Z,5f0214e58782120a8c970fd6,33,Kobieta,2022-06-11_11h06.12.810,task,2021.1.4,Win32,60.0240096,6299f149e92ead563fba08ef,62a45aa71aae361cb741fd62,,,,,,,,,,,,,,,,,,,,,,,,,,,,,,,,,,,,,,,,,,,,,,,,,,,,,,,,,,,,,,,,,,,,,,,,,,,,,,,,,,,,,,,,,,,,,,,,,,,,,
,,,,,,1,0,1,0,1,X V Q F H G B L J M P D K C T S W R N Z,5f0214e58782120a8c970fd6,33,Kobieta,2022-06-11_11h06.12.810,task,2021.1.4,Win32,60.0240096,6299f149e92ead563fba08ef,62a45aa71aae361cb741fd62,,,,,,,,,,,,,,,,,,,,,,,,,,,,,,,,,,,,,,,,,,,,,,,,,,,,,,,,,,,,,,,,,,,,,,,,,,,,,,,,,,,,,,,,,,,,,,,,,,,,,
,,,,,,,,,,,,5f0214e58782120a8c970fd6,33,Kobieta,2022-06-11_11h06.12.810,task,2021.1.4,Win32,60.0240096,6299f149e92ead563fba08ef,62a45aa71aae361cb741fd62,vf,"[""v"",""f""]","[1.8979999999999677,2.408999999999992,3.127999999999986]",1,VF,1,0,1,0,1,,,,,,,,,,,,,,,,,,,,,,,,,,,,,,,,,,,,,,,,,,,,,,,,,,,,,,,,,,,,,,,,,,,,,,,,,,,,,,,,,,,,,,,,,,,
,,,,,,0,0,0,0,1,X V Q F H G B L J M P D K C T S W R N Z,5f0214e58782120a8c970fd6,33,Kobieta,2022-06-11_11h06.12.810,task,2021.1.4,Win32,60.0240096,6299f149e92ead563fba08ef,62a45aa71aae361cb741fd62,,,,,,,,,,,,,,,,,,,,,,,,,,,,,,,,,,,,,,,,,,,,,,,,,,,,,,,,,,,,,,,,,,,,,,,,,,,,,,,,,,,,,,,,,,,,,,,,,,,,,
,,,,,,1,0,1,0,1,X V Q F H G B L J M P D K C T S W R N Z,5f0214e58782120a8c970fd6,33,Kobieta,2022-06-11_11h06.12.810,task,2021.1.4,Win32,60.0240096,6299f149e92ead563fba08ef,62a45aa71aae361cb741fd62,,,,,,,,,,,,,,,,,,,,,,,,,,,,,,,,,,,,,,,,,,,,,,,,,,,,,,,,,,,,,,,,,,,,,,,,,,,,,,,,,,,,,,,,,,,,,,,,,,,,,
,,,,,,2,0,2,0,1,X V Q F H G B L J M P D K C T S W R N Z,5f0214e58782120a8c970fd6,33,Kobieta,2022-06-11_11h06.12.810,task,2021.1.4,Win32,60.0240096,6299f149e92ead563fba08ef,62a45aa71aae361cb741fd62,,,,,,,,,,,,,,,,,,,,,,,,,,,,,,,,,,,,,,,,,,,,,,,,,,,,,,,,,,,,,,,,,,,,,,,,,,,,,,,,,,,,,,,,,,,,,,,,,,,,,
,,,,,,,,,,,,5f0214e58782120a8c970fd6,33,Kobieta,2022-06-11_11h06.12.810,task,2021.1.4,Win32,60.0240096,6299f149e92ead563fba08ef,62a45aa71aae361cb741fd62,mcn,"[""m"",""c"",""n""]","[1.281000000000006,1.649000000000001,1.8830000000000382,2.6300000000000523]",1,MCN,2,0,2,0,1,,,,,,,,,,,,,,,,,,,,,,,,,,,,,,,,,,,,,,,,,,,,,,,,,,,,,,,,,,,,,,,,,,,,,,,,,,,,,,,,,,,,,,,,,,,
,,,,,,0,0,0,0,1,X V Q F H G B L J M P D K C T S W R N Z,5f0214e58782120a8c970fd6,33,Kobieta,2022-06-11_11h06.12.810,task,2021.1.4,Win32,60.0240096,6299f149e92ead563fba08ef,62a45aa71aae361cb741fd62,,,,,,,,,,,,,,,,,,,,,,,,,,,,,,,,,,,,,,,,,,,,,,,,,,,,,,,,,,,,,,,,,,,,,,,,,,,,,,,,,,,,,,,,,,,,,,,,,,,,,
,,,,,,1,0,1,0,1,X V Q F H G B L J M P D K C T S W R N Z,5f0214e58782120a8c970fd6,33,Kobieta,2022-06-11_11h06.12.810,task,2021.1.4,Win32,60.0240096,6299f149e92ead563fba08ef,62a45aa71aae361cb741fd62,,,,,,,,,,,,,,,,,,,,,,,,,,,,,,,,,,,,,,,,,,,,,,,,,,,,,,,,,,,,,,,,,,,,,,,,,,,,,,,,,,,,,,,,,,,,,,,,,,,,,
,,,,,,2,0,2,0,1,X V Q F H G B L J M P D K C T S W R N Z,5f0214e58782120a8c970fd6,33,Kobieta,2022-06-11_11h06.12.810,task,2021.1.4,Win32,60.0240096,6299f149e92ead563fba08ef,62a45aa71aae361cb741fd62,,,,,,,,,,,,,,,,,,,,,,,,,,,,,,,,,,,,,,,,,,,,,,,,,,,,,,,,,,,,,,,,,,,,,,,,,,,,,,,,,,,,,,,,,,,,,,,,,,,,,
,,,,,,,,,,,,5f0214e58782120a8c970fd6,33,Kobieta,2022-06-11_11h06.12.810,task,2021.1.4,Win32,60.0240096,6299f149e92ead563fba08ef,62a45aa71aae361cb741fd62,lzr,"[""l"",""z"",""r""]","[1.0269999999999868,1.2779999999999632,1.6219999999999573,2.2579999999999814]",1,LZR,3,0,3,0,1,,,,,,,,,,,,,,,,,,,,,,,,,,,,,,,,,,,,,,,,,,,,,,,,,,,,,,,,,,,,,,,,,,,,,,,,,,,,,,,,,,,,,,,,,,,
,,,,,,0,0,0,0,1,X V Q F H G B L J M P D K C T S W R N Z,5f0214e58782120a8c970fd6,33,Kobieta,2022-06-11_11h06.12.810,task,2021.1.4,Win32,60.0240096,6299f149e92ead563fba08ef,62a45aa71aae361cb741fd62,,,,,,,,,,,,,,,,,,,,,,,,,,,,,,,,,,,,,,,,,,,,,,,,,,,,,,,,,,,,,,,,,,,,,,,,,,,,,,,,,,,,,,,,,,,,,,,,,,,,,
,,,,,,1,0,1,0,1,X V Q F H G B L J M P D K C T S W R N Z,5f0214e58782120a8c970fd6,33,Kobieta,2022-06-11_11h06.12.810,task,2021.1.4,Win32,60.0240096,6299f149e92ead563fba08ef,62a45aa71aae361cb741fd62,,,,,,,,,,,,,,,,,,,,,,,,,,,,,,,,,,,,,,,,,,,,,,,,,,,,,,,,,,,,,,,,,,,,,,,,,,,,,,,,,,,,,,,,,,,,,,,,,,,,,
,,,,,,2,0,2,0,1,X V Q F H G B L J M P D K C T S W R N Z,5f0214e58782120a8c970fd6,33,Kobieta,2022-06-11_11h06.12.810,task,2021.1.4,Win32,60.0240096,6299f149e92ead563fba08ef,62a45aa71aae361cb741fd62,,,,,,,,,,,,,,,,,,,,,,,,,,,,,,,,,,,,,,,,,,,,,,,,,,,,,,,,,,,,,,,,,,,,,,,,,,,,,,,,,,,,,,,,,,,,,,,,,,,,,
,,,,,,3,0,3,0,1,X V Q F H G B L J M P D K C T S W R N Z,5f0214e58782120a8c970fd6,33,Kobieta,2022-06-11_11h06.12.810,task,2021.1.4,Win32,60.0240096,6299f149e92ead563fba08ef,62a45aa71aae361cb741fd62,,,,,,,,,,,,,,,,,,,,,,,,,,,,,,,,,,,,,,,,,,,,,,,,,,,,,,,,,,,,,,,,,,,,,,,,,,,,,,,,,,,,,,,,,,,,,,,,,,,,,
,,,,,,,,,,,,5f0214e58782120a8c970fd6,33,Kobieta,2022-06-11_11h06.12.810,task,2021.1.4,Win32,60.0240096,6299f149e92ead563fba08ef,62a45aa71aae361cb741fd62,gxfj,"[""g"",""x"",""f"",""j""]","[1.2860000000000014,1.8799999999999955,2.4079999999999586,2.9069999999999823,3.3079999999999927]",1,GXFJ,4,0,4,0,1,,,,,,,,,,,,,,,,,,,,,,,,,,,,,,,,,,,,,,,,,,,,,,,,,,,,,,,,,,,,,,,,,,,,,,,,,,,,,,,,,,,,,,,,,,,
,,,,,,0,0,0,0,1,X V Q F H G B L J M P D K C T S W R N Z,5f0214e58782120a8c970fd6,33,Kobieta,2022-06-11_11h06.12.810,task,2021.1.4,Win32,60.0240096,6299f149e92ead563fba08ef,62a45aa71aae361cb741fd62,,,,,,,,,,,,,,,,,,,,,,,,,,,,,,,,,,,,,,,,,,,,,,,,,,,,,,,,,,,,,,,,,,,,,,,,,,,,,,,,,,,,,,,,,,,,,,,,,,,,,
,,,,,,1,0,1,0,1,X V Q F H G B L J M P D K C T S W R N Z,5f0214e58782120a8c970fd6,33,Kobieta,2022-06-11_11h06.12.810,task,2021.1.4,Win32,60.0240096,6299f149e92ead563fba08ef,62a45aa71aae361cb741fd62,,,,,,,,,,,,,,,,,,,,,,,,,,,,,,,,,,,,,,,,,,,,,,,,,,,,,,,,,,,,,,,,,,,,,,,,,,,,,,,,,,,,,,,,,,,,,,,,,,,,,
,,,,,,2,0,2,0,1,X V Q F H G B L J M P D K C T S W R N Z,5f0214e58782120a8c970fd6,33,Kobieta,2022-06-11_11h06.12.810,task,2021.1.4,Win32,60.0240096,6299f149e92ead563fba08ef,62a45aa71aae361cb741fd62,,,,,,,,,,,,,,,,,,,,,,,,,,,,,,,,,,,,,,,,,,,,,,,,,,,,,,,,,,,,,,,,,,,,,,,,,,,,,,,,,,,,,,,,,,,,,,,,,,,,,
,,,,,,3,0,3,0,1,X V Q F H G B L J M P D K C T S W R N Z,5f0214e58782120a8c970fd6,33,Kobieta,2022-06-11_11h06.12.810,task,2021.1.4,Win32,60.0240096,6299f149e92ead563fba08ef,62a45aa71aae361cb741fd62,,,,,,,,,,,,,,,,,,,,,,,,,,,,,,,,,,,,,,,,,,,,,,,,,,,,,,,,,,,,,,,,,,,,,,,,,,,,,,,,,,,,,,,,,,,,,,,,,,,,,
,,,,,,,,,,,,5f0214e58782120a8c970fd6,33,Kobieta,2022-06-11_11h06.12.810,task,2021.1.4,Win32,60.0240096,6299f149e92ead563fba08ef,62a45aa71aae361cb741fd62,mrwj,"[""m"",""r"",""w"",""j""]","[0.9279999999999973,1.2889999999999873,2.2520000000000095,2.819999999999993,3.268000000000029]",1,MRWJ,5,0,5,0,1,,,,,,,,,,,,,,,,,,,,,,,,,,,,,,,,,,,,,,,,,,,,,,,,,,,,,,,,,,,,,,,,,,,,,,,,,,,,,,,,,,,,,,,,,,,
,,,,,,0,0,0,0,1,X V Q F H G B L J M P D K C T S W R N Z,5f0214e58782120a8c970fd6,33,Kobieta,2022-06-11_11h06.12.810,task,2021.1.4,Win32,60.0240096,6299f149e92ead563fba08ef,62a45aa71aae361cb741fd62,,,,,,,,,,,,,,,,,,,,,,,,,,,,,,,,,,,,,,,,,,,,,,,,,,,,,,,,,,,,,,,,,,,,,,,,,,,,,,,,,,,,,,,,,,,,,,,,,,,,,
,,,,,,1,0,1,0,1,X V Q F H G B L J M P D K C T S W R N Z,5f0214e58782120a8c970fd6,33,Kobieta,2022-06-11_11h06.12.810,task,2021.1.4,Win32,60.0240096,6299f149e92ead563fba08ef,62a45aa71aae361cb741fd62,,,,,,,,,,,,,,,,,,,,,,,,,,,,,,,,,,,,,,,,,,,,,,,,,,,,,,,,,,,,,,,,,,,,,,,,,,,,,,,,,,,,,,,,,,,,,,,,,,,,,
,,,,,,2,0,2,0,1,X V Q F H G B L J M P D K C T S W R N Z,5f0214e58782120a8c970fd6,33,Kobieta,2022-06-11_11h06.12.810,task,2021.1.4,Win32,60.0240096,6299f149e92ead563fba08ef,62a45aa71aae361cb741fd62,,,,,,,,,,,,,,,,,,,,,,,,,,,,,,,,,,,,,,,,,,,,,,,,,,,,,,,,,,,,,,,,,,,,,,,,,,,,,,,,,,,,,,,,,,,,,,,,,,,,,
,,,,,,3,0,3,0,1,X V Q F H G B L J M P D K C T S W R N Z,5f0214e58782120a8c970fd6,33,Kobieta,2022-06-11_11h06.12.810,task,2021.1.4,Win32,60.0240096,6299f149e92ead563fba08ef,62a45aa71aae361cb741fd62,,,,,,,,,,,,,,,,,,,,,,,,,,,,,,,,,,,,,,,,,,,,,,,,,,,,,,,,,,,,,,,,,,,,,,,,,,,,,,,,,,,,,,,,,,,,,,,,,,,,,
,,,,,,4,0,4,0,1,X V Q F H G B L J M P D K C T S W R N Z,5f0214e58782120a8c970fd6,33,Kobieta,2022-06-11_11h06.12.810,task,2021.1.4,Win32,60.0240096,6299f149e92ead563fba08ef,62a45aa71aae361cb741fd62,,,,,,,,,,,,,,,,,,,,,,,,,,,,,,,,,,,,,,,,,,,,,,,,,,,,,,,,,,,,,,,,,,,,,,,,,,,,,,,,,,,,,,,,,,,,,,,,,,,,,
,,,,,,,,,,,,5f0214e58782120a8c970fd6,33,Kobieta,2022-06-11_11h06.12.810,task,2021.1.4,Win32,60.0240096,6299f149e92ead563fba08ef,62a45aa71aae361cb741fd62,qxbtj,"[""q"",""x"",""b"",""t"",""j""]","[2.5989999999999895,3.076999999999998,3.5289999999999964,3.894999999999982,4.391999999999996,4.961000000000013]",0,QXBTL,6,0,6,0,1,,,,,,,,,,,,,,,,,,,,,,,,,,,,,,,,,,,,,,,,,,,,,,,,,,,,,,,,,,,,,,,,,,,,,,,,,,,,,,,,,,,,,,,,,,,
,,,,,,0,0,0,0,1,X V Q F H G B L J M P D K C T S W R N Z,5f0214e58782120a8c970fd6,33,Kobieta,2022-06-11_11h06.12.810,task,2021.1.4,Win32,60.0240096,6299f149e92ead563fba08ef,62a45aa71aae361cb741fd62,,,,,,,,,,,,,,,,,,,,,,,,,,,,,,,,,,,,,,,,,,,,,,,,,,,,,,,,,,,,,,,,,,,,,,,,,,,,,,,,,,,,,,,,,,,,,,,,,,,,,
,,,,,,1,0,1,0,1,X V Q F H G B L J M P D K C T S W R N Z,5f0214e58782120a8c970fd6,33,Kobieta,2022-06-11_11h06.12.810,task,2021.1.4,Win32,60.0240096,6299f149e92ead563fba08ef,62a45aa71aae361cb741fd62,,,,,,,,,,,,,,,,,,,,,,,,,,,,,,,,,,,,,,,,,,,,,,,,,,,,,,,,,,,,,,,,,,,,,,,,,,,,,,,,,,,,,,,,,,,,,,,,,,,,,
,,,,,,2,0,2,0,1,X V Q F H G B L J M P D K C T S W R N Z,5f0214e58782120a8c970fd6,33,Kobieta,2022-06-11_11h06.12.810,task,2021.1.4,Win32,60.0240096,6299f149e92ead563fba08ef,62a45aa71aae361cb741fd62,,,,,,,,,,,,,,,,,,,,,,,,,,,,,,,,,,,,,,,,,,,,,,,,,,,,,,,,,,,,,,,,,,,,,,,,,,,,,,,,,,,,,,,,,,,,,,,,,,,,,
,,,,,,3,0,3,0,1,X V Q F H G B L J M P D K C T S W R N Z,5f0214e58782120a8c970fd6,33,Kobieta,2022-06-11_11h06.12.810,task,2021.1.4,Win32,60.0240096,6299f149e92ead563fba08ef,62a45aa71aae361cb741fd62,,,,,,,,,,,,,,,,,,,,,,,,,,,,,,,,,,,,,,,,,,,,,,,,,,,,,,,,,,,,,,,,,,,,,,,,,,,,,,,,,,,,,,,,,,,,,,,,,,,,,
,,,,,,4,0,4,0,1,X V Q F H G B L J M P D K C T S W R N Z,5f0214e58782120a8c970fd6,33,Kobieta,2022-06-11_11h06.12.810,task,2021.1.4,Win32,60.0240096,6299f149e92ead563fba08ef,62a45aa71aae361cb741fd62,,,,,,,,,,,,,,,,,,,,,,,,,,,,,,,,,,,,,,,,,,,,,,,,,,,,,,,,,,,,,,,,,,,,,,,,,,,,,,,,,,,,,,,,,,,,,,,,,,,,,
,,,,,,,,,,,,5f0214e58782120a8c970fd6,33,Kobieta,2022-06-11_11h06.12.810,task,2021.1.4,Win32,60.0240096,6299f149e92ead563fba08ef,62a45aa71aae361cb741fd62,ndtfn,"[""n"",""d"",""t"",""f"",""n""]","[1.5980000000000132,3.0640000000000214,3.632000000000005,4.2309999999999945,5.228000000000009,5.798999999999978]",1,NDTFN,7,0,7,0,1,,,,,,,,,,,,,,,,,,,,,,,,,,,,,,,,,,,,,,,,,,,,,,,,,,,,,,,,,,,,,,,,,,,,,,,,,,,,,,,,,,,,,,,,,,,
,,,,,,0,0,0,0,1,X V Q F H G B L J M P D K C T S W R N Z,5f0214e58782120a8c970fd6,33,Kobieta,2022-06-11_11h06.12.810,task,2021.1.4,Win32,60.0240096,6299f149e92ead563fba08ef,62a45aa71aae361cb741fd62,,,,,,,,,,,,,,,,,,,,,,,,,,,,,,,,,,,,,,,,,,,,,,,,,,,,,,,,,,,,,,,,,,,,,,,,,,,,,,,,,,,,,,,,,,,,,,,,,,,,,
,,,,,,1,0,1,0,1,X V Q F H G B L J M P D K C T S W R N Z,5f0214e58782120a8c970fd6,33,Kobieta,2022-06-11_11h06.12.810,task,2021.1.4,Win32,60.0240096,6299f149e92ead563fba08ef,62a45aa71aae361cb741fd62,,,,,,,,,,,,,,,,,,,,,,,,,,,,,,,,,,,,,,,,,,,,,,,,,,,,,,,,,,,,,,,,,,,,,,,,,,,,,,,,,,,,,,,,,,,,,,,,,,,,,
,,,,,,2,0,2,0,1,X V Q F H G B L J M P D K C T S W R N Z,5f0214e58782120a8c970fd6,33,Kobieta,2022-06-11_11h06.12.810,task,2021.1.4,Win32,60.0240096,6299f149e92ead563fba08ef,62a45aa71aae361cb741fd62,,,,,,,,,,,,,,,,,,,,,,,,,,,,,,,,,,,,,,,,,,,,,,,,,,,,,,,,,,,,,,,,,,,,,,,,,,,,,,,,,,,,,,,,,,,,,,,,,,,,,
,,,,,,3,0,3,0,1,X V Q F H G B L J M P D K C T S W R N Z,5f0214e58782120a8c970fd6,33,Kobieta,2022-06-11_11h06.12.810,task,2021.1.4,Win32,60.0240096,6299f149e92ead563fba08ef,62a45aa71aae361cb741fd62,,,,,,,,,,,,,,,,,,,,,,,,,,,,,,,,,,,,,,,,,,,,,,,,,,,,,,,,,,,,,,,,,,,,,,,,,,,,,,,,,,,,,,,,,,,,,,,,,,,,,
,,,,,,4,0,4,0,1,X V Q F H G B L J M P D K C T S W R N Z,5f0214e58782120a8c970fd6,33,Kobieta,2022-06-11_11h06.12.810,task,2021.1.4,Win32,60.0240096,6299f149e92ead563fba08ef,62a45aa71aae361cb741fd62,,,,,,,,,,,,,,,,,,,,,,,,,,,,,,,,,,,,,,,,,,,,,,,,,,,,,,,,,,,,,,,,,,,,,,,,,,,,,,,,,,,,,,,,,,,,,,,,,,,,,
,,,,,,,,,,,,5f0214e58782120a8c970fd6,33,Kobieta,2022-06-11_11h06.12.810,task,2021.1.4,Win32,60.0240096,6299f149e92ead563fba08ef,62a45aa71aae361cb741fd62,fbwnt,"[""f"",""b"",""w"",""n"",""t""]","[1.549000000000035,2.4180000000000064,2.813000000000045,3.4600000000000364,3.7789999999999964,4.260000000000048]",0,FBWMD,8,0,8,0,1,,,,,,,,,,,,,,,,,,,,,,,,,,,,,,,,,,,,,,,,,,,,,,,,,,,,,,,,,,,,,,,,,,,,,,,,,,,,,,,,,,,,,,,,,,,
,,,,,,0,0,0,0,1,X V Q F H G B L J M P D K C T S W R N Z,5f0214e58782120a8c970fd6,33,Kobieta,2022-06-11_11h06.12.810,task,2021.1.4,Win32,60.0240096,6299f149e92ead563fba08ef,62a45aa71aae361cb741fd62,,,,,,,,,,,,,,,,,,,,,,,,,,,,,,,,,,,,,,,,,,,,,,,,,,,,,,,,,,,,,,,,,,,,,,,,,,,,,,,,,,,,,,,,,,,,,,,,,,,,,
,,,,,,1,0,1,0,1,X V Q F H G B L J M P D K C T S W R N Z,5f0214e58782120a8c970fd6,33,Kobieta,2022-06-11_11h06.12.810,task,2021.1.4,Win32,60.0240096,6299f149e92ead563fba08ef,62a45aa71aae361cb741fd62,,,,,,,,,,,,,,,,,,,,,,,,,,,,,,,,,,,,,,,,,,,,,,,,,,,,,,,,,,,,,,,,,,,,,,,,,,,,,,,,,,,,,,,,,,,,,,,,,,,,,
,,,,,,2,0,2,0,1,X V Q F H G B L J M P D K C T S W R N Z,5f0214e58782120a8c970fd6,33,Kobieta,2022-06-11_11h06.12.810,task,2021.1.4,Win32,60.0240096,6299f149e92ead563fba08ef,62a45aa71aae361cb741fd62,,,,,,,,,,,,,,,,,,,,,,,,,,,,,,,,,,,,,,,,,,,,,,,,,,,,,,,,,,,,,,,,,,,,,,,,,,,,,,,,,,,,,,,,,,,,,,,,,,,,,
,,,,,,3,0,3,0,1,X V Q F H G B L J M P D K C T S W R N Z,5f0214e58782120a8c970fd6,33,Kobieta,2022-06-11_11h06.12.810,task,2021.1.4,Win32,60.0240096,6299f149e92ead563fba08ef,62a45aa71aae361cb741fd62,,,,,,,,,,,,,,,,,,,,,,,,,,,,,,,,,,,,,,,,,,,,,,,,,,,,,,,,,,,,,,,,,,,,,,,,,,,,,,,,,,,,,,,,,,,,,,,,,,,,,
,,,,,,4,0,4,0,1,X V Q F H G B L J M P D K C T S W R N Z,5f0214e58782120a8c970fd6,33,Kobieta,2022-06-11_11h06.12.810,task,2021.1.4,Win32,60.0240096,6299f149e92ead563fba08ef,62a45aa71aae361cb741fd62,,,,,,,,,,,,,,,,,,,,,,,,,,,,,,,,,,,,,,,,,,,,,,,,,,,,,,,,,,,,,,,,,,,,,,,,,,,,,,,,,,,,,,,,,,,,,,,,,,,,,
,,,,,,,,,,,,5f0214e58782120a8c970fd6,33,Kobieta,2022-06-11_11h06.12.810,task,2021.1.4,Win32,60.0240096,6299f149e92ead563fba08ef,62a45aa71aae361cb741fd62,mrzch,"[""m"",""r"",""z"",""c"",""h""]","[2.0149999999999864,2.2969999999999686,2.6850000000000023,3.2309999999999945,3.533999999999992,3.9909999999999854]",1,MRZCH,9,0,9,0,1,,,,,,,,,,,,,,,,,,,,,,,,,,,,,,,,,,,,,,,,,,,,,,,,,,,,,,,,,,,,,,,,,,,,,,,,,,,,,,,,,,,,,,,,,,,
,,,,,,0,0,0,0,1,X V Q F H G B L J M P D K C T S W R N Z,5f0214e58782120a8c970fd6,33,Kobieta,2022-06-11_11h06.12.810,task,2021.1.4,Win32,60.0240096,6299f149e92ead563fba08ef,62a45aa71aae361cb741fd62,,,,,,,,,,,,,,,,,,,,,,,,,,,,,,,,,,,,,,,,,,,,,,,,,,,,,,,,,,,,,,,,,,,,,,,,,,,,,,,,,,,,,,,,,,,,,,,,,,,,,
,,,,,,1,0,1,0,1,X V Q F H G B L J M P D K C T S W R N Z,5f0214e58782120a8c970fd6,33,Kobieta,2022-06-11_11h06.12.810,task,2021.1.4,Win32,60.0240096,6299f149e92ead563fba08ef,62a45aa71aae361cb741fd62,,,,,,,,,,,,,,,,,,,,,,,,,,,,,,,,,,,,,,,,,,,,,,,,,,,,,,,,,,,,,,,,,,,,,,,,,,,,,,,,,,,,,,,,,,,,,,,,,,,,,
,,,,,,2,0,2,0,1,X V Q F H G B L J M P D K C T S W R N Z,5f0214e58782120a8c970fd6,33,Kobieta,2022-06-11_11h06.12.810,task,2021.1.4,Win32,60.0240096,6299f149e92ead563fba08ef,62a45aa71aae361cb741fd62,,,,,,,,,,,,,,,,,,,,,,,,,,,,,,,,,,,,,,,,,,,,,,,,,,,,,,,,,,,,,,,,,,,,,,,,,,,,,,,,,,,,,,,,,,,,,,,,,,,,,
,,,,,,3,0,3,0,1,X V Q F H G B L J M P D K C T S W R N Z,5f0214e58782120a8c970fd6,33,Kobieta,2022-06-11_11h06.12.810,task,2021.1.4,Win32,60.0240096,6299f149e92ead563fba08ef,62a45aa71aae361cb741fd62,,,,,,,,,,,,,,,,,,,,,,,,,,,,,,,,,,,,,,,,,,,,,,,,,,,,,,,,,,,,,,,,,,,,,,,,,,,,,,,,,,,,,,,,,,,,,,,,,,,,,
,,,,,,4,0,4,0,1,X V Q F H G B L J M P D K C T S W R N Z,5f0214e58782120a8c970fd6,33,Kobieta,2022-06-11_11h06.12.810,task,2021.1.4,Win32,60.0240096,6299f149e92ead563fba08ef,62a45aa71aae361cb741fd62,,,,,,,,,,,,,,,,,,,,,,,,,,,,,,,,,,,,,,,,,,,,,,,,,,,,,,,,,,,,,,,,,,,,,,,,,,,,,,,,,,,,,,,,,,,,,,,,,,,,,
,,,,,,5,0,5,0,1,X V Q F H G B L J M P D K C T S W R N Z,5f0214e58782120a8c970fd6,33,Kobieta,2022-06-11_11h06.12.810,task,2021.1.4,Win32,60.0240096,6299f149e92ead563fba08ef,62a45aa71aae361cb741fd62,,,,,,,,,,,,,,,,,,,,,,,,,,,,,,,,,,,,,,,,,,,,,,,,,,,,,,,,,,,,,,,,,,,,,,,,,,,,,,,,,,,,,,,,,,,,,,,,,,,,,
,,,,,,,,,,,,5f0214e58782120a8c970fd6,33,Kobieta,2022-06-11_11h06.12.810,task,2021.1.4,Win32,60.0240096,6299f149e92ead563fba08ef,62a45aa71aae361cb741fd62,wnrtvb,"[""w"",""n"",""r"",""t"",""v"",""b""]","[0.6009999999999991,1.125,1.537999999999954,1.7839999999999918,2.967999999999961,3.186999999999955,3.5109999999999673]",1,WNRTVB,10,0,10,0,1,,,,,,,,,,,,,,,,,,,,,,,,,,,,,,,,,,,,,,,,,,,,,,,,,,,,,,,,,,,,,,,,,,,,,,,,,,,,,,,,,,,,,,,,,,,
,,,,,,0,0,0,0,1,X V Q F H G B L J M P D K C T S W R N Z,5f0214e58782120a8c970fd6,33,Kobieta,2022-06-11_11h06.12.810,task,2021.1.4,Win32,60.0240096,6299f149e92ead563fba08ef,62a45aa71aae361cb741fd62,,,,,,,,,,,,,,,,,,,,,,,,,,,,,,,,,,,,,,,,,,,,,,,,,,,,,,,,,,,,,,,,,,,,,,,,,,,,,,,,,,,,,,,,,,,,,,,,,,,,,
,,,,,,1,0,1,0,1,X V Q F H G B L J M P D K C T S W R N Z,5f0214e58782120a8c970fd6,33,Kobieta,2022-06-11_11h06.12.810,task,2021.1.4,Win32,60.0240096,6299f149e92ead563fba08ef,62a45aa71aae361cb741fd62,,,,,,,,,,,,,,,,,,,,,,,,,,,,,,,,,,,,,,,,,,,,,,,,,,,,,,,,,,,,,,,,,,,,,,,,,,,,,,,,,,,,,,,,,,,,,,,,,,,,,
,,,,,,2,0,2,0,1,X V Q F H G B L J M P D K C T S W R N Z,5f0214e58782120a8c970fd6,33,Kobieta,2022-06-11_11h06.12.810,task,2021.1.4,Win32,60.0240096,6299f149e92ead563fba08ef,62a45aa71aae361cb741fd62,,,,,,,,,,,,,,,,,,,,,,,,,,,,,,,,,,,,,,,,,,,,,,,,,,,,,,,,,,,,,,,,,,,,,,,,,,,,,,,,,,,,,,,,,,,,,,,,,,,,,
,,,,,,3,0,3,0,1,X V Q F H G B L J M P D K C T S W R N Z,5f0214e58782120a8c970fd6,33,Kobieta,2022-06-11_11h06.12.810,task,2021.1.4,Win32,60.0240096,6299f149e92ead563fba08ef,62a45aa71aae361cb741fd62,,,,,,,,,,,,,,,,,,,,,,,,,,,,,,,,,,,,,,,,,,,,,,,,,,,,,,,,,,,,,,,,,,,,,,,,,,,,,,,,,,,,,,,,,,,,,,,,,,,,,
,,,,,,4,0,4,0,1,X V Q F H G B L J M P D K C T S W R N Z,5f0214e58782120a8c970fd6,33,Kobieta,2022-06-11_11h06.12.810,task,2021.1.4,Win32,60.0240096,6299f149e92ead563fba08ef,62a45aa71aae361cb741fd62,,,,,,,,,,,,,,,,,,,,,,,,,,,,,,,,,,,,,,,,,,,,,,,,,,,,,,,,,,,,,,,,,,,,,,,,,,,,,,,,,,,,,,,,,,,,,,,,,,,,,
,,,,,,5,0,5,0,1,X V Q F H G B L J M P D K C T S W R N Z,5f0214e58782120a8c970fd6,33,Kobieta,2022-06-11_11h06.12.810,task,2021.1.4,Win32,60.0240096,6299f149e92ead563fba08ef,62a45aa71aae361cb741fd62,,,,,,,,,,,,,,,,,,,,,,,,,,,,,,,,,,,,,,,,,,,,,,,,,,,,,,,,,,,,,,,,,,,,,,,,,,,,,,,,,,,,,,,,,,,,,,,,,,,,,
,,,,,,,,,,,,5f0214e58782120a8c970fd6,33,Kobieta,2022-06-11_11h06.12.810,task,2021.1.4,Win32,60.0240096,6299f149e92ead563fba08ef,62a45aa71aae361cb741fd62,mkvvpm,"[""m"",""k"",""v"",""v"",""p"",""m""]","[1.4429999999999836,2.3500000000000227,3.0539999999999736,3.26400000000001,3.965000000000032,4.480000000000018,5.127000000000066]",1,MKVVPM,11,0,11,0,1,,,,,,,,,,,,,,,,,,,,,,,,,,,,,,,,,,,,,,,,,,,,,,,,,,,,,,,,,,,,,,,,,,,,,,,,,,,,,,,,,,,,,,,,,,,
,,,,,,0,0,0,0,1,X V Q F H G B L J M P D K C T S W R N Z,5f0214e58782120a8c970fd6,33,Kobieta,2022-06-11_11h06.12.810,task,2021.1.4,Win32,60.0240096,6299f149e92ead563fba08ef,62a45aa71aae361cb741fd62,,,,,,,,,,,,,,,,,,,,,,,,,,,,,,,,,,,,,,,,,,,,,,,,,,,,,,,,,,,,,,,,,,,,,,,,,,,,,,,,,,,,,,,,,,,,,,,,,,,,,
,,,,,,1,0,1,0,1,X V Q F H G B L J M P D K C T S W R N Z,5f0214e58782120a8c970fd6,33,Kobieta,2022-06-11_11h06.12.810,task,2021.1.4,Win32,60.0240096,6299f149e92ead563fba08ef,62a45aa71aae361cb741fd62,,,,,,,,,,,,,,,,,,,,,,,,,,,,,,,,,,,,,,,,,,,,,,,,,,,,,,,,,,,,,,,,,,,,,,,,,,,,,,,,,,,,,,,,,,,,,,,,,,,,,
,,,,,,2,0,2,0,1,X V Q F H G B L J M P D K C T S W R N Z,5f0214e58782120a8c970fd6,33,Kobieta,2022-06-11_11h06.12.810,task,2021.1.4,Win32,60.0240096,6299f149e92ead563fba08ef,62a45aa71aae361cb741fd62,,,,,,,,,,,,,,,,,,,,,,,,,,,,,,,,,,,,,,,,,,,,,,,,,,,,,,,,,,,,,,,,,,,,,,,,,,,,,,,,,,,,,,,,,,,,,,,,,,,,,
,,,,,,3,0,3,0,1,X V Q F H G B L J M P D K C T S W R N Z,5f0214e58782120a8c970fd6,33,Kobieta,2022-06-11_11h06.12.810,task,2021.1.4,Win32,60.0240096,6299f149e92ead563fba08ef,62a45aa71aae361cb741fd62,,,,,,,,,,,,,,,,,,,,,,,,,,,,,,,,,,,,,,,,,,,,,,,,,,,,,,,,,,,,,,,,,,,,,,,,,,,,,,,,,,,,,,,,,,,,,,,,,,,,,
,,,,,,4,0,4,0,1,X V Q F H G B L J M P D K C T S W R N Z,5f0214e58782120a8c970fd6,33,Kobieta,2022-06-11_11h06.12.810,task,2021.1.4,Win32,60.0240096,6299f149e92ead563fba08ef,62a45aa71aae361cb741fd62,,,,,,,,,,,,,,,,,,,,,,,,,,,,,,,,,,,,,,,,,,,,,,,,,,,,,,,,,,,,,,,,,,,,,,,,,,,,,,,,,,,,,,,,,,,,,,,,,,,,,
,,,,,,5,0,5,0,1,X V Q F H G B L J M P D K C T S W R N Z,5f0214e58782120a8c970fd6,33,Kobieta,2022-06-11_11h06.12.810,task,2021.1.4,Win32,60.0240096,6299f149e92ead563fba08ef,62a45aa71aae361cb741fd62,,,,,,,,,,,,,,,,,,,,,,,,,,,,,,,,,,,,,,,,,,,,,,,,,,,,,,,,,,,,,,,,,,,,,,,,,,,,,,,,,,,,,,,,,,,,,,,,,,,,,
,,,,,,6,0,6,0,1,X V Q F H G B L J M P D K C T S W R N Z,5f0214e58782120a8c970fd6,33,Kobieta,2022-06-11_11h06.12.810,task,2021.1.4,Win32,60.0240096,6299f149e92ead563fba08ef,62a45aa71aae361cb741fd62,,,,,,,,,,,,,,,,,,,,,,,,,,,,,,,,,,,,,,,,,,,,,,,,,,,,,,,,,,,,,,,,,,,,,,,,,,,,,,,,,,,,,,,,,,,,,,,,,,,,,
,,,,,,,,,,,,5f0214e58782120a8c970fd6,33,Kobieta,2022-06-11_11h06.12.810,task,2021.1.4,Win32,60.0240096,6299f149e92ead563fba08ef,62a45aa71aae361cb741fd62,mchxrch,"[""m"",""c"",""h"",""x"",""r"",""c"",""h""]","[1.217999999999961,1.5319999999999254,2.2409999999999854,2.6509999999999536,3.3619999999999663,3.701999999999998,3.9169999999999163,4.221000000000004]",0,MCHXRFS,12,0,12,0,1,,,,,,,,,,,,,,,,,,,,,,,,,,,,,,,,,,,,,,,,,,,,,,,,,,,,,,,,,,,,,,,,,,,,,,,,,,,,,,,,,,,,,,,,,,,
,,,,,,0,0,0,0,1,X V Q F H G B L J M P D K C T S W R N Z,5f0214e58782120a8c970fd6,33,Kobieta,2022-06-11_11h06.12.810,task,2021.1.4,Win32,60.0240096,6299f149e92ead563fba08ef,62a45aa71aae361cb741fd62,,,,,,,,,,,,,,,,,,,,,,,,,,,,,,,,,,,,,,,,,,,,,,,,,,,,,,,,,,,,,,,,,,,,,,,,,,,,,,,,,,,,,,,,,,,,,,,,,,,,,
,,,,,,1,0,1,0,1,X V Q F H G B L J M P D K C T S W R N Z,5f0214e58782120a8c970fd6,33,Kobieta,2022-06-11_11h06.12.810,task,2021.1.4,Win32,60.0240096,6299f149e92ead563fba08ef,62a45aa71aae361cb741fd62,,,,,,,,,,,,,,,,,,,,,,,,,,,,,,,,,,,,,,,,,,,,,,,,,,,,,,,,,,,,,,,,,,,,,,,,,,,,,,,,,,,,,,,,,,,,,,,,,,,,,
,,,,,,2,0,2,0,1,X V Q F H G B L J M P D K C T S W R N Z,5f0214e58782120a8c970fd6,33,Kobieta,2022-06-11_11h06.12.810,task,2021.1.4,Win32,60.0240096,6299f149e92ead563fba08ef,62a45aa71aae361cb741fd62,,,,,,,,,,,,,,,,,,,,,,,,,,,,,,,,,,,,,,,,,,,,,,,,,,,,,,,,,,,,,,,,,,,,,,,,,,,,,,,,,,,,,,,,,,,,,,,,,,,,,
,,,,,,3,0,3,0,1,X V Q F H G B L J M P D K C T S W R N Z,5f0214e58782120a8c970fd6,33,Kobieta,2022-06-11_11h06.12.810,task,2021.1.4,Win32,60.0240096,6299f149e92ead563fba08ef,62a45aa71aae361cb741fd62,,,,,,,,,,,,,,,,,,,,,,,,,,,,,,,,,,,,,,,,,,,,,,,,,,,,,,,,,,,,,,,,,,,,,,,,,,,,,,,,,,,,,,,,,,,,,,,,,,,,,
,,,,,,4,0,4,0,1,X V Q F H G B L J M P D K C T S W R N Z,5f0214e58782120a8c970fd6,33,Kobieta,2022-06-11_11h06.12.810,task,2021.1.4,Win32,60.0240096,6299f149e92ead563fba08ef,62a45aa71aae361cb741fd62,,,,,,,,,,,,,,,,,,,,,,,,,,,,,,,,,,,,,,,,,,,,,,,,,,,,,,,,,,,,,,,,,,,,,,,,,,,,,,,,,,,,,,,,,,,,,,,,,,,,,
,,,,,,5,0,5,0,1,X V Q F H G B L J M P D K C T S W R N Z,5f0214e58782120a8c970fd6,33,Kobieta,2022-06-11_11h06.12.810,task,2021.1.4,Win32,60.0240096,6299f149e92ead563fba08ef,62a45aa71aae361cb741fd62,,,,,,,,,,,,,,,,,,,,,,,,,,,,,,,,,,,,,,,,,,,,,,,,,,,,,,,,,,,,,,,,,,,,,,,,,,,,,,,,,,,,,,,,,,,,,,,,,,,,,
,,,,,,6,0,6,0,1,X V Q F H G B L J M P D K C T S W R N Z,5f0214e58782120a8c970fd6,33,Kobieta,2022-06-11_11h06.12.810,task,2021.1.4,Win32,60.0240096,6299f149e92ead563fba08ef,62a45aa71aae361cb741fd62,,,,,,,,,,,,,,,,,,,,,,,,,,,,,,,,,,,,,,,,,,,,,,,,,,,,,,,,,,,,,,,,,,,,,,,,,,,,,,,,,,,,,,,,,,,,,,,,,,,,,
,,,,,,,,,,,,5f0214e58782120a8c970fd6,33,Kobieta,2022-06-11_11h06.12.810,task,2021.1.4,Win32,60.0240096,6299f149e92ead563fba08ef,62a45aa71aae361cb741fd62,rxtkwch,"[""r"",""x"",""t"",""k"",""w"",""c"",""h""]","[0.52800000000002,1.066000000000031,1.5590000000000828,2.2169999999999845,2.7309999999999945,3.3460000000000036,4.176000000000045,21.023000000000025]",0,RXTKWLG,13,0,13,0,1,,,,,,,,,,,,,,,,,,,,,,,,,,,,,,,,,,,,,,,,,,,,,,,,,,,,,,,,,,,,,,,,,,,,,,,,,,,,,,,,,,,,,,,,,,,
,,,,,,0,0,0,0,1,X V Q F H G B L J M P D K C T S W R N Z,5f0214e58782120a8c970fd6,33,Kobieta,2022-06-11_11h06.12.810,task,2021.1.4,Win32,60.0240096,6299f149e92ead563fba08ef,62a45aa71aae361cb741fd62,,,,,,,,,,,,,,,,,,,,,,,,,,,,,,,,,,,,,,,,,,,,,,,,,,,,,,,,,,,,,,,,,,,,,,,,,,,,,,,,,,,,,,,,,,,,,,,,,,,,,
,,,,,,1,0,1,0,1,X V Q F H G B L J M P D K C T S W R N Z,5f0214e58782120a8c970fd6,33,Kobieta,2022-06-11_11h06.12.810,task,2021.1.4,Win32,60.0240096,6299f149e92ead563fba08ef,62a45aa71aae361cb741fd62,,,,,,,,,,,,,,,,,,,,,,,,,,,,,,,,,,,,,,,,,,,,,,,,,,,,,,,,,,,,,,,,,,,,,,,,,,,,,,,,,,,,,,,,,,,,,,,,,,,,,
,,,,,,2,0,2,0,1,X V Q F H G B L J M P D K C T S W R N Z,5f0214e58782120a8c970fd6,33,Kobieta,2022-06-11_11h06.12.810,task,2021.1.4,Win32,60.0240096,6299f149e92ead563fba08ef,62a45aa71aae361cb741fd62,,,,,,,,,,,,,,,,,,,,,,,,,,,,,,,,,,,,,,,,,,,,,,,,,,,,,,,,,,,,,,,,,,,,,,,,,,,,,,,,,,,,,,,,,,,,,,,,,,,,,
,,,,,,3,0,3,0,1,X V Q F H G B L J M P D K C T S W R N Z,5f0214e58782120a8c970fd6,33,Kobieta,2022-06-11_11h06.12.810,task,2021.1.4,Win32,60.0240096,6299f149e92ead563fba08ef,62a45aa71aae361cb741fd62,,,,,,,,,,,,,,,,,,,,,,,,,,,,,,,,,,,,,,,,,,,,,,,,,,,,,,,,,,,,,,,,,,,,,,,,,,,,,,,,,,,,,,,,,,,,,,,,,,,,,
,,,,,,4,0,4,0,1,X V Q F H G B L J M P D K C T S W R N Z,5f0214e58782120a8c970fd6,33,Kobieta,2022-06-11_11h06.12.810,task,2021.1.4,Win32,60.0240096,6299f149e92ead563fba08ef,62a45aa71aae361cb741fd62,,,,,,,,,,,,,,,,,,,,,,,,,,,,,,,,,,,,,,,,,,,,,,,,,,,,,,,,,,,,,,,,,,,,,,,,,,,,,,,,,,,,,,,,,,,,,,,,,,,,,
,,,,,,5,0,5,0,1,X V Q F H G B L J M P D K C T S W R N Z,5f0214e58782120a8c970fd6,33,Kobieta,2022-06-11_11h06.12.810,task,2021.1.4,Win32,60.0240096,6299f149e92ead563fba08ef,62a45aa71aae361cb741fd62,,,,,,,,,,,,,,,,,,,,,,,,,,,,,,,,,,,,,,,,,,,,,,,,,,,,,,,,,,,,,,,,,,,,,,,,,,,,,,,,,,,,,,,,,,,,,,,,,,,,,
,,,,,,6,0,6,0,1,X V Q F H G B L J M P D K C T S W R N Z,5f0214e58782120a8c970fd6,33,Kobieta,2022-06-11_11h06.12.810,task,2021.1.4,Win32,60.0240096,6299f149e92ead563fba08ef,62a45aa71aae361cb741fd62,,,,,,,,,,,,,,,,,,,,,,,,,,,,,,,,,,,,,,,,,,,,,,,,,,,,,,,,,,,,,,,,,,,,,,,,,,,,,,,,,,,,,,,,,,,,,,,,,,,,,
,,,,,,,,,,,,5f0214e58782120a8c970fd6,33,Kobieta,2022-06-11_11h06.12.810,task,2021.1.4,Win32,60.0240096,6299f149e92ead563fba08ef,62a45aa71aae361cb741fd62,qhzzhmm,"[""q"",""h"",""z"",""z"",""h"",""m"",""m""]","[1.3680000000000518,1.8659999999999854,2.3999999999999773,2.882000000000062,3.3500000000000227,3.6510000000000673,3.8500000000000227,4.100000000000023]",0,QHZZHMH,14,0,14,0,1,,,,,,,,,,,,,,,,,,,,,,,,,,,,,,,,,,,,,,,,,,,,,,,,,,,,,,,,,,,,,,,,,,,,,,,,,,,,,,,,,,,,,,,,,,,
,,,,,,,,,,,,5f0214e58782120a8c970fd6,33,Kobieta,2022-06-11_11h06.12.810,task,2021.1.4,Win32,60.0240096,6299f149e92ead563fba08ef,62a45aa71aae361cb741fd62,,,,,,,,,,,space,58.93,5,"[""5""]",1,[18.104000000000042],[18.104000000000042],0,0,0,5,1,Practice,6,(4/2) + 3,5,,,,,,,,,,,,,,,,,,,,,,,,,,,,,,,,,,,,,,,,,,,,,,,,,,,,,,,,,,,,,,,,,,,,,,,,,,,
,,,,,,,,,,,,5f0214e58782120a8c970fd6,33,Kobieta,2022-06-11_11h06.12.810,task,2021.1.4,Win32,60.0240096,6299f149e92ead563fba08ef,62a45aa71aae361cb741fd62,,,,,,,,,,,,,1,"[""1""]",1,[5.11099999999999],"[18.104000000000042,5.11099999999999]",0,1,1,1,1,Practice,2,(4x4) - 15,1,,,,,,,,,,,,,,,,,,,,,,,,,,,,,,,,,,,,,,,,,,,,,,,,,,,,,,,,,,,,,,,,,,,,,,,,,,,
,,,,,,,,,,,,5f0214e58782120a8c970fd6,33,Kobieta,2022-06-11_11h06.12.810,task,2021.1.4,Win32,60.0240096,6299f149e92ead563fba08ef,62a45aa71aae361cb741fd62,,,,,,,,,,,,,6,"[""6""]",1,[3.9710000000000036],"[18.104000000000042,5.11099999999999,3.9710000000000036]",0,2,2,6,1,Practice,7,(25/5) + 1,6,,,,,,,,,,,,,,,,,,,,,,,,,,,,,,,,,,,,,,,,,,,,,,,,,,,,,,,,,,,,,,,,,,,,,,,,,,,
,,,,,,,,,,,,5f0214e58782120a8c970fd6,33,Kobieta,2022-06-11_11h06.12.810,task,2021.1.4,Win32,60.0240096,6299f149e92ead563fba08ef,62a45aa71aae361cb741fd62,,,,,,,,,,,,,3,"[""3""]",1,[5.149999999999977],"[18.104000000000042,5.11099999999999,3.9710000000000036,5.149999999999977]",0,3,3,3,1,Practice,4,(8/4) + 1,3,,,,,,,,,,,,,,,,,,,,,,,,,,,,,,,,,,,,,,,,,,,,,,,,,,,,,,,,,,,,,,,,,,,,,,,,,,,
,,,,,,,,,,,,5f0214e58782120a8c970fd6,33,Kobieta,2022-06-11_11h06.12.810,task,2021.1.4,Win32,60.0240096,6299f149e92ead563fba08ef,62a45aa71aae361cb741fd62,,,,,,,,,,,,,2,"[""2""]",1,[2.731999999999971],"[18.104000000000042,5.11099999999999,3.9710000000000036,5.149999999999977,2.731999999999971]",0,4,4,2,1,Practice,3,(4x4) - 14,2,,,,,,,,,,,,,,,,,,,,,,,,,,,,,,,,,,,,,,,,,,,,,,,,,,,,,,,,,,,,,,,,,,,,,,,,,,,
,,,,,,,,,,,,5f0214e58782120a8c970fd6,33,Kobieta,2022-06-11_11h06.12.810,task,2021.1.4,Win32,60.0240096,6299f149e92ead563fba08ef,62a45aa71aae361cb741fd62,,,,,,,,,,,,,9,"[""9""]",1,[3.7530000000000427],"[18.104000000000042,5.11099999999999,3.9710000000000036,5.149999999999977,2.731999999999971,3.7530000000000427]",0,5,5,9,1,Practice,10,(20/2) - 1,9,,,,,,,,,,,,,,,,,,,,,,,,,,,,,,,,,,,,,,,,,,,,,,,,,,,,,,,,,,,,,,,,,,,,,,,,,,,
,,,,,,,,,,,,5f0214e58782120a8c970fd6,33,Kobieta,2022-06-11_11h06.12.810,task,2021.1.4,Win32,60.0240096,6299f149e92ead563fba08ef,62a45aa71aae361cb741fd62,,,,,,,,,,,,,7,"[""7""]",1,[5.8700000000000045],"[18.104000000000042,5.11099999999999,3.9710000000000036,5.149999999999977,2.731999999999971,3.7530000000000427,5.8700000000000045]",0,6,6,7,1,Practice,8,(5x5) - 18,7,,,,,,,,,,,,,,,,,,,,,,,,,,,,,,,,,,,,,,,,,,,,,,,,,,,,,,,,,,,,,,,,,,,,,,,,,,,
,,,,,,,,,,,,5f0214e58782120a8c970fd6,33,Kobieta,2022-06-11_11h06.12.810,task,2021.1.4,Win32,60.0240096,6299f149e92ead563fba08ef,62a45aa71aae361cb741fd62,,,,,,,,,,,,,4,"[""4""]",1,[4.137000000000057],"[18.104000000000042,5.11099999999999,3.9710000000000036,5.149999999999977,2.731999999999971,3.7530000000000427,5.8700000000000045,4.137000000000057]",0,7,7,4,1,Practice,5,(2x6) - 8,4,,,,,,,,,,,,,,,,,,,,,,,,,,,,,,,,,,,,,,,,,,,,,,,,,,,,,,,,,,,,,,,,,,,,,,,,,,,
,,,,,,,,,,,,5f0214e58782120a8c970fd6,33,Kobieta,2022-06-11_11h06.12.810,task,2021.1.4,Win32,60.0240096,6299f149e92ead563fba08ef,62a45aa71aae361cb741fd62,,,,,,,,,,,,,0,"[""0""]",1,[3.4260000000000446],"[18.104000000000042,5.11099999999999,3.9710000000000036,5.149999999999977,2.731999999999971,3.7530000000000427,5.8700000000000045,4.137000000000057,3.4260000000000446]",0,8,8,0,1,Practice,1,(3x3) -  9,0,,,,,,,,,,,,,,,,,,,,,,,,,,,,,,,,,,,,,,,,,,,,,,,,,,,,,,,,,,,,,,,,,,,,,,,,,,,
,,,,,,,,,,,,5f0214e58782120a8c970fd6,33,Kobieta,2022-06-11_11h06.12.810,task,2021.1.4,Win32,60.0240096,6299f149e92ead563fba08ef,62a45aa71aae361cb741fd62,,,,,,,,,,,,,8,"[""8""]",1,[3.13900000000001],"[18.104000000000042,5.11099999999999,3.9710000000000036,5.149999999999977,2.731999999999971,3.7530000000000427,5.8700000000000045,4.137000000000057,3.4260000000000446,3.13900000000001]",0,9,9,8,1,Practice,9,(3x3) - 1,8,,,,,,,,,,,,,,,,,,,,,,,,,,,,,,,,,,,,,,,,,,,,,,,,,,,,,,,,,,,,,,,,,,,,,,,,,,,
,,,,,,,,,,,,5f0214e58782120a8c970fd6,33,Kobieta,2022-06-11_11h06.12.810,task,2021.1.4,Win32,60.0240096,6299f149e92ead563fba08ef,62a45aa71aae361cb741fd62,,,,,,,,,,,,,,,,,,,,,,,,,,,1,55.393,3.692866667,218.1344926,3.813436706,13.53153337,space,2.857,0,0,0,0,1,,,,,,,,,,,,,,,,,,,,,,,,,,,,,,,,,,,,,,,,,,,,,,,,,,,,,,,,,,,,,,
,,,,,,,,,,,,5f0214e58782120a8c970fd6,33,Kobieta,2022-06-11_11h06.12.810,task,2021.1.4,Win32,60.0240096,6299f149e92ead563fba08ef,62a45aa71aae361cb741fd62,,,,,,,,,,,,,5,,,,,,,,,,Practice,6,(4/2) + 3,5,,,,,,,,,,,,,,space,216.504,"[""5""]",1,[3.7620000000000573],1,0,0,0,5,1,,,,,,,,,,,,,,,,,,,,,,,,,,,,,,,,,,,,,,,,,,,,,,,,,,,
,,,,,,,,,,,X V Q F H G B L J M P D K C T S W R N Z,5f0214e58782120a8c970fd6,33,Kobieta,2022-06-11_11h06.12.810,task,2021.1.4,Win32,60.0240096,6299f149e92ead563fba08ef,62a45aa71aae361cb741fd62,,,,,,,,,,,,,,,,,,,,,,,,,,,,,,,,,,,,,,,,,,,,,,,,,,,0,0,0,0,1,,,,,,,,,,,,,,,,,,,,,,,,,,,,,,,,,,,,,,,,,,,,,,
,,,,,,,,,,,,5f0214e58782120a8c970fd6,33,Kobieta,2022-06-11_11h06.12.810,task,2021.1.4,Win32,60.0240096,6299f149e92ead563fba08ef,62a45aa71aae361cb741fd62,,,,,,,,,,,,,7,,,,,,,,,,Practice,8,(5x5) - 18,7,,,,,,,,,,,,,,,,"[""7""]",1,[7.135000000000105],1,0,0,0,7,1,,,,,,,,,,,,,,,,,,,,,,,,,,,,,,,,,,,,,,,,,,,,,,,,,,,
,,,,,,,,,,,X V Q F H G B L J M P D K C T S W R N Z,5f0214e58782120a8c970fd6,33,Kobieta,2022-06-11_11h06.12.810,task,2021.1.4,Win32,60.0240096,6299f149e92ead563fba08ef,62a45aa71aae361cb741fd62,,,,,,,,,,,,,,,,,,,,,,,,,,,,,,,,,,,,,,,,,,,,,,,,,,,1,0,1,0,1,,,,,,,,,,,,,,,,,,,,,,,,,,,,,,,,,,,,,,,,,,,,,,
,,,,,,,,,,,,5f0214e58782120a8c970fd6,33,Kobieta,2022-06-11_11h06.12.810,task,2021.1.4,Win32,60.0240096,6299f149e92ead563fba08ef,62a45aa71aae361cb741fd62,,,,,,,,,,,,,,,,,,,,,,,,,,,,,,,,,,,,,,,,,,,,,,,,,,,,,,,,zj,"[""z"",""j""]",0,"[3.77699999999993,4.5190000000000055,6.250999999999976]",1,0,0,0,0,1,,,,,,,,,,,,,,,,,,,,,,,,,,,,,,,,,,,,
,,,,,,,,,,,,5f0214e58782120a8c970fd6,33,Kobieta,2022-06-11_11h06.12.810,task,2021.1.4,Win32,60.0240096,6299f149e92ead563fba08ef,62a45aa71aae361cb741fd62,,,,,,,,,,,,,5,,,,,,,,,,Practice,6,(4/2) + 3,5,,,,,,,,,,,,,,,,"[""5""]",1,[6.411000000000058],1,0,0,0,5,1,,,,,,,,,,,,,,,,,,,,,,,,,,,,,,,,,,,,,,,,,,,,,,,,,,,
,,,,,,,,,,,X V Q F H G B L J M P D K C T S W R N Z,5f0214e58782120a8c970fd6,33,Kobieta,2022-06-11_11h06.12.810,task,2021.1.4,Win32,60.0240096,6299f149e92ead563fba08ef,62a45aa71aae361cb741fd62,,,,,,,,,,,,,,,,,,,,,,,,,,,,,,,,,,,,,,,,,,,,,,,,,,,0,0,0,0,1,,,,,,,,,,,,,,,,,,,,,,,,,,,,,,,,,,,,,,,,,,,,,,
,,,,,,,,,,,,5f0214e58782120a8c970fd6,33,Kobieta,2022-06-11_11h06.12.810,task,2021.1.4,Win32,60.0240096,6299f149e92ead563fba08ef,62a45aa71aae361cb741fd62,,,,,,,,,,,,,4,,,,,,,,,,Practice,5,(2x6) - 8,4,,,,,,,,,,,,,,,,"[""4""]",1,[8.401000000000067],1,0,0,0,4,1,,,,,,,,,,,,,,,,,,,,,,,,,,,,,,,,,,,,,,,,,,,,,,,,,,,
,,,,,,,,,,,X V Q F H G B L J M P D K C T S W R N Z,5f0214e58782120a8c970fd6,33,Kobieta,2022-06-11_11h06.12.810,task,2021.1.4,Win32,60.0240096,6299f149e92ead563fba08ef,62a45aa71aae361cb741fd62,,,,,,,,,,,,,,,,,,,,,,,,,,,,,,,,,,,,,,,,,,,,,,,,,,,1,0,1,0,1,,,,,,,,,,,,,,,,,,,,,,,,,,,,,,,,,,,,,,,,,,,,,,
,,,,,,,,,,,,5f0214e58782120a8c970fd6,33,Kobieta,2022-06-11_11h06.12.810,task,2021.1.4,Win32,60.0240096,6299f149e92ead563fba08ef,62a45aa71aae361cb741fd62,,,,,,,,,,,,,,,,,,,,,,,,,,,,,,,,,,,,,,,,,,,,,,,,,,,,,,,,pd,"[""p"",""d""]",0,"[1.90199999999993,2.2749999999999773,3.100999999999999]",1,1,0,1,0,1,,,,,,,,,,,,,,,,,,,,,,,,,,,,,,,,,,,,
,,,,,,,,,,,,5f0214e58782120a8c970fd6,33,Kobieta,2022-06-11_11h06.12.810,task,2021.1.4,Win32,60.0240096,6299f149e92ead563fba08ef,62a45aa71aae361cb741fd62,,,,,,,,,,,,,8,,,,,,,,,,Practice,9,(3x3) - 1,8,,,,,,,,,,,,,,,,"[""8""]",1,[5.081999999999994],1,0,0,0,8,1,,,,,,,,,,,,,,,,,,,,,,,,,,,,,,,,,,,,,,,,,,,,,,,,,,,
,,,,,,,,,,,X V Q F H G B L J M P D K C T S W R N Z,5f0214e58782120a8c970fd6,33,Kobieta,2022-06-11_11h06.12.810,task,2021.1.4,Win32,60.0240096,6299f149e92ead563fba08ef,62a45aa71aae361cb741fd62,,,,,,,,,,,,,,,,,,,,,,,,,,,,,,,,,,,,,,,,,,,,,,,,,,,0,0,0,0,1,,,,,,,,,,,,,,,,,,,,,,,,,,,,,,,,,,,,,,,,,,,,,,
,,,,,,,,,,,,5f0214e58782120a8c970fd6,33,Kobieta,2022-06-11_11h06.12.810,task,2021.1.4,Win32,60.0240096,6299f149e92ead563fba08ef,62a45aa71aae361cb741fd62,,,,,,,,,,,,,3,,,,,,,,,,Practice,4,(8/4) + 1,3,,,,,,,,,,,,,,,,"[""3""]",1,[9.930999999999926],1,0,0,0,3,1,,,,,,,,,,,,,,,,,,,,,,,,,,,,,,,,,,,,,,,,,,,,,,,,,,,
,,,,,,,,,,,X V Q F H G B L J M P D K C T S W R N Z,5f0214e58782120a8c970fd6,33,Kobieta,2022-06-11_11h06.12.810,task,2021.1.4,Win32,60.0240096,6299f149e92ead563fba08ef,62a45aa71aae361cb741fd62,,,,,,,,,,,,,,,,,,,,,,,,,,,,,,,,,,,,,,,,,,,,,,,,,,,1,0,1,0,1,,,,,,,,,,,,,,,,,,,,,,,,,,,,,,,,,,,,,,,,,,,,,,
,,,,,,,,,,,,5f0214e58782120a8c970fd6,33,Kobieta,2022-06-11_11h06.12.810,task,2021.1.4,Win32,60.0240096,6299f149e92ead563fba08ef,62a45aa71aae361cb741fd62,,,,,,,,,,,,,,,,,,,,,,,,,,,,,,,,,,,,,,,,,,,,,,,,,,,,,,,,gj,"[""g"",""j""]",0,"[2.2749999999999773,2.6200000000000045,3.3490000000000464]",1,2,0,2,0,1,,,,,,,,,,,,,,,,,,,,,,,,,,,,,,,,,,,,
,,,,,,,,,,,,5f0214e58782120a8c970fd6,33,Kobieta,2022-06-11_11h06.12.810,task,2021.1.4,Win32,60.0240096,6299f149e92ead563fba08ef,62a45aa71aae361cb741fd62,,,,,,,,,,,,,9,,,,,,,,,,Task,7,(3x7) - 12,9,,,,,,,,,,,,,,,,,,,1,,,,,,,,,,,,,,,,,,,,,space,22.101,"[""9""]",1,[9.923000000000002],0,0,0,6,1,,,,,,,,,,,,,,,,,,,,,,,,,,
,,,,,,,,,,,X V Q F H G B L J M P D K C T S W R N Z,5f0214e58782120a8c970fd6,33,Kobieta,2022-06-11_11h06.12.810,task,2021.1.4,Win32,60.0240096,6299f149e92ead563fba08ef,62a45aa71aae361cb741fd62,,,,,,,,,,,,,,,,,,,,,,,,,,,,,,,,,,,,,,,,,,,,,,,,,,,,,,,,,,,,,,,,,,,,,,,,,,,,0,0,0,0,1,,,,,,,,,,,,,,,,,,,,,
,,,,,,,,,,,,5f0214e58782120a8c970fd6,33,Kobieta,2022-06-11_11h06.12.810,task,2021.1.4,Win32,60.0240096,6299f149e92ead563fba08ef,62a45aa71aae361cb741fd62,,,,,,,,,,,,,2,,,,,,,,,,Task,19,(6/2) - 1,2,,,,,,,,,,,,,,,,,,,1,,,,,,,,,,,,,,,,,,,,,,,"[""2""]",1,[3.990000000000009],0,0,0,18,1,,,,,,,,,,,,,,,,,,,,,,,,,,
,,,,,,,,,,,X V Q F H G B L J M P D K C T S W R N Z,5f0214e58782120a8c970fd6,33,Kobieta,2022-06-11_11h06.12.810,task,2021.1.4,Win32,60.0240096,6299f149e92ead563fba08ef,62a45aa71aae361cb741fd62,,,,,,,,,,,,,,,,,,,,,,,,,,,,,,,,,,,,,,,,,,,,,,,,,,,,,,,,,,,,,,,,,,,,,,,,,,,,1,0,1,0,1,,,,,,,,,,,,,,,,,,,,,
,,,,,,,,,,,,5f0214e58782120a8c970fd6,33,Kobieta,2022-06-11_11h06.12.810,task,2021.1.4,Win32,60.0240096,6299f149e92ead563fba08ef,62a45aa71aae361cb741fd62,,,,,,,,,,,,,,,,,,,,,,,,,,,,,,,,,,,,,,,,,,,,,,,,,,,,,,,,,,,,,,,,,,,,,,,,,,,,,,,,,zr,"[""z"",""r""]",0,"[2.7239999999999327,3.4739999999999327,5.488999999999805]",1,ZR,0,0,0,0,1,,,,,,,,,,
,,,,,,,,,,,,5f0214e58782120a8c970fd6,33,Kobieta,2022-06-11_11h06.12.810,task,2021.1.4,Win32,60.0240096,6299f149e92ead563fba08ef,62a45aa71aae361cb741fd62,,,,,,,,,,,,,0,,,,,,,,,,Task,25,(10/5) - 2,0,,,,,,,,,,,,,,,,,,,1,,,,,,,,,,,,,,,,,,,,,,,"[""0""]",1,[3.3360000000000127],0,0,0,24,1,,,,,,,,,,,,,,,,,,,,,,,,,,
,,,,,,,,,,,X V Q F H G B L J M P D K C T S W R N Z,5f0214e58782120a8c970fd6,33,Kobieta,2022-06-11_11h06.12.810,task,2021.1.4,Win32,60.0240096,6299f149e92ead563fba08ef,62a45aa71aae361cb741fd62,,,,,,,,,,,,,,,,,,,,,,,,,,,,,,,,,,,,,,,,,,,,,,,,,,,,,,,,,,,,,,,,,,,,,,,,,,,,0,0,0,0,1,,,,,,,,,,,,,,,,,,,,,
,,,,,,,,,,,,5f0214e58782120a8c970fd6,33,Kobieta,2022-06-11_11h06.12.810,task,2021.1.4,Win32,60.0240096,6299f149e92ead563fba08ef,62a45aa71aae361cb741fd62,,,,,,,,,,,,,6,,,,,,,,,,Task,13,(3x4) - 6,6,,,,,,,,,,,,,,,,,,,1,,,,,,,,,,,,,,,,,,,,,,,"[""6""]",1,[2.966999999999871],0,0,0,12,1,,,,,,,,,,,,,,,,,,,,,,,,,,
,,,,,,,,,,,X V Q F H G B L J M P D K C T S W R N Z,5f0214e58782120a8c970fd6,33,Kobieta,2022-06-11_11h06.12.810,task,2021.1.4,Win32,60.0240096,6299f149e92ead563fba08ef,62a45aa71aae361cb741fd62,,,,,,,,,,,,,,,,,,,,,,,,,,,,,,,,,,,,,,,,,,,,,,,,,,,,,,,,,,,,,,,,,,,,,,,,,,,,1,0,1,0,1,,,,,,,,,,,,,,,,,,,,,
,,,,,,,,,,,,5f0214e58782120a8c970fd6,33,Kobieta,2022-06-11_11h06.12.810,task,2021.1.4,Win32,60.0240096,6299f149e92ead563fba08ef,62a45aa71aae361cb741fd62,,,,,,,,,,,,,9,,,,,,,,,,Task,7,(3x7) - 12,9,,,,,,,,,,,,,,,,,,,1,,,,,,,,,,,,,,,,,,,,,,,"[""9""]",1,[6.545999999999822],0,0,0,6,1,,,,,,,,,,,,,,,,,,,,,,,,,,
,,,,,,,,,,,X V Q F H G B L J M P D K C T S W R N Z,5f0214e58782120a8c970fd6,33,Kobieta,2022-06-11_11h06.12.810,task,2021.1.4,Win32,60.0240096,6299f149e92ead563fba08ef,62a45aa71aae361cb741fd62,,,,,,,,,,,,,,,,,,,,,,,,,,,,,,,,,,,,,,,,,,,,,,,,,,,,,,,,,,,,,,,,,,,,,,,,,,,,2,0,2,0,1,,,,,,,,,,,,,,,,,,,,,
,,,,,,,,,,,,5f0214e58782120a8c970fd6,33,Kobieta,2022-06-11_11h06.12.810,task,2021.1.4,Win32,60.0240096,6299f149e92ead563fba08ef,62a45aa71aae361cb741fd62,,,,,,,,,,,,,,,,,,,,,,,,,,,,,,,,,,,,,,,,,,,,,,,,,,,,,,,,,,,,,,,,,,,,,,,,,,,,,,,,,fmd,"[""f"",""m"",""d""]",0,"[1.8330000000000837,2.25,2.6310000000000855,7.182000000000016]",1,FMD,1,0,1,0,1,,,,,,,,,,
,,,,,,,,,,,,5f0214e58782120a8c970fd6,33,Kobieta,2022-06-11_11h06.12.810,task,2021.1.4,Win32,60.0240096,6299f149e92ead563fba08ef,62a45aa71aae361cb741fd62,,,,,,,,,,,,,1,,,,,,,,,,Task,34,(9/3) - 2,1,,,,,,,,,,,,,,,,,,,1,,,,,,,,,,,,,,,,,,,,,,,"[""1""]",1,[4.1599999999998545],0,0,0,33,1,,,,,,,,,,,,,,,,,,,,,,,,,,
,,,,,,,,,,,X V Q F H G B L J M P D K C T S W R N Z,5f0214e58782120a8c970fd6,33,Kobieta,2022-06-11_11h06.12.810,task,2021.1.4,Win32,60.0240096,6299f149e92ead563fba08ef,62a45aa71aae361cb741fd62,,,,,,,,,,,,,,,,,,,,,,,,,,,,,,,,,,,,,,,,,,,,,,,,,,,,,,,,,,,,,,,,,,,,,,,,,,,,0,0,0,0,1,,,,,,,,,,,,,,,,,,,,,
,,,,,,,,,,,,5f0214e58782120a8c970fd6,33,Kobieta,2022-06-11_11h06.12.810,task,2021.1.4,Win32,60.0240096,6299f149e92ead563fba08ef,62a45aa71aae361cb741fd62,,,,,,,,,,,,,0,,,,,,,,,,Task,17,(2x3) - 6,0,,,,,,,,,,,,,,,,,,,1,,,,,,,,,,,,,,,,,,,,,,,"[""0""]",1,[4.681999999999789],0,0,0,16,1,,,,,,,,,,,,,,,,,,,,,,,,,,
,,,,,,,,,,,X V Q F H G B L J M P D K C T S W R N Z,5f0214e58782120a8c970fd6,33,Kobieta,2022-06-11_11h06.12.810,task,2021.1.4,Win32,60.0240096,6299f149e92ead563fba08ef,62a45aa71aae361cb741fd62,,,,,,,,,,,,,,,,,,,,,,,,,,,,,,,,,,,,,,,,,,,,,,,,,,,,,,,,,,,,,,,,,,,,,,,,,,,,1,0,1,0,1,,,,,,,,,,,,,,,,,,,,,
,,,,,,,,,,,,5f0214e58782120a8c970fd6,33,Kobieta,2022-06-11_11h06.12.810,task,2021.1.4,Win32,60.0240096,6299f149e92ead563fba08ef,62a45aa71aae361cb741fd62,,,,,,,,,,,,,5,,,,,,,,,,Task,36,(8/4) + 3,5,,,,,,,,,,,,,,,,,,,1,,,,,,,,,,,,,,,,,,,,,,,"[""5""]",1,[3.8360000000000127],0,0,0,35,1,,,,,,,,,,,,,,,,,,,,,,,,,,
,,,,,,,,,,,X V Q F H G B L J M P D K C T S W R N Z,5f0214e58782120a8c970fd6,33,Kobieta,2022-06-11_11h06.12.810,task,2021.1.4,Win32,60.0240096,6299f149e92ead563fba08ef,62a45aa71aae361cb741fd62,,,,,,,,,,,,,,,,,,,,,,,,,,,,,,,,,,,,,,,,,,,,,,,,,,,,,,,,,,,,,,,,,,,,,,,,,,,,2,0,2,0,1,,,,,,,,,,,,,,,,,,,,,
,,,,,,,,,,,,5f0214e58782120a8c970fd6,33,Kobieta,2022-06-11_11h06.12.810,task,2021.1.4,Win32,60.0240096,6299f149e92ead563fba08ef,62a45aa71aae361cb741fd62,,,,,,,,,,,,,4,,,,,,,,,,Task,28,(2x5) - 6,4,,,,,,,,,,,,,,,,,,,1,,,,,,,,,,,,,,,,,,,,,,,"[""4""]",1,[2.758999999999787],0,0,0,27,1,,,,,,,,,,,,,,,,,,,,,,,,,,
,,,,,,,,,,,X V Q F H G B L J M P D K C T S W R N Z,5f0214e58782120a8c970fd6,33,Kobieta,2022-06-11_11h06.12.810,task,2021.1.4,Win32,60.0240096,6299f149e92ead563fba08ef,62a45aa71aae361cb741fd62,,,,,,,,,,,,,,,,,,,,,,,,,,,,,,,,,,,,,,,,,,,,,,,,,,,,,,,,,,,,,,,,,,,,,,,,,,,,3,0,3,0,1,,,,,,,,,,,,,,,,,,,,,
,,,,,,,,,,,,5f0214e58782120a8c970fd6,33,Kobieta,2022-06-11_11h06.12.810,task,2021.1.4,Win32,60.0240096,6299f149e92ead563fba08ef,62a45aa71aae361cb741fd62,,,,,,,,,,,,,,,,,,,,,,,,,,,,,,,,,,,,,,,,,,,,,,,,,,,,,,,,,,,,,,,,,,,,,,,,,,,,,,,,,lnh,"[""l"",""n"",""h""]",0,"[1.7829999999999018,2.689999999999827,3.352999999999838,4.1189999999999145]",0,KLNH,2,0,2,0,1,,,,,,,,,,
,,,,,,,,,,,,5f0214e58782120a8c970fd6,33,Kobieta,2022-06-11_11h06.12.810,task,2021.1.4,Win32,60.0240096,6299f149e92ead563fba08ef,62a45aa71aae361cb741fd62,,,,,,,,,,,,,2,,,,,,,,,,Task,2,(2x2) - 2,2,,,,,,,,,,,,,,,,,,,1,,,,,,,,,,,,,,,,,,,,,,,"[""2""]",1,[2.7100000000000364],0,0,0,1,1,,,,,,,,,,,,,,,,,,,,,,,,,,
,,,,,,,,,,,X V Q F H G B L J M P D K C T S W R N Z,5f0214e58782120a8c970fd6,33,Kobieta,2022-06-11_11h06.12.810,task,2021.1.4,Win32,60.0240096,6299f149e92ead563fba08ef,62a45aa71aae361cb741fd62,,,,,,,,,,,,,,,,,,,,,,,,,,,,,,,,,,,,,,,,,,,,,,,,,,,,,,,,,,,,,,,,,,,,,,,,,,,,0,0,0,0,1,,,,,,,,,,,,,,,,,,,,,
,,,,,,,,,,,,5f0214e58782120a8c970fd6,33,Kobieta,2022-06-11_11h06.12.810,task,2021.1.4,Win32,60.0240096,6299f149e92ead563fba08ef,62a45aa71aae361cb741fd62,,,,,,,,,,,,,7,,,,,,,,,,Task,6,(12/2) + 1,7,,,,,,,,,,,,,,,,,,,1,,,,,,,,,,,,,,,,,,,,,,,"[""7""]",1,[2.7640000000001237],0,0,0,5,1,,,,,,,,,,,,,,,,,,,,,,,,,,
,,,,,,,,,,,X V Q F H G B L J M P D K C T S W R N Z,5f0214e58782120a8c970fd6,33,Kobieta,2022-06-11_11h06.12.810,task,2021.1.4,Win32,60.0240096,6299f149e92ead563fba08ef,62a45aa71aae361cb741fd62,,,,,,,,,,,,,,,,,,,,,,,,,,,,,,,,,,,,,,,,,,,,,,,,,,,,,,,,,,,,,,,,,,,,,,,,,,,,1,0,1,0,1,,,,,,,,,,,,,,,,,,,,,
,,,,,,,,,,,,5f0214e58782120a8c970fd6,33,Kobieta,2022-06-11_11h06.12.810,task,2021.1.4,Win32,60.0240096,6299f149e92ead563fba08ef,62a45aa71aae361cb741fd62,,,,,,,,,,,,,1,,,,,,,,,,Task,34,(9/3) - 2,1,,,,,,,,,,,,,,,,,,,1,,,,,,,,,,,,,,,,,,,,,,,"[""1""]",1,[3.463999999999942],0,0,0,33,1,,,,,,,,,,,,,,,,,,,,,,,,,,
,,,,,,,,,,,X V Q F H G B L J M P D K C T S W R N Z,5f0214e58782120a8c970fd6,33,Kobieta,2022-06-11_11h06.12.810,task,2021.1.4,Win32,60.0240096,6299f149e92ead563fba08ef,62a45aa71aae361cb741fd62,,,,,,,,,,,,,,,,,,,,,,,,,,,,,,,,,,,,,,,,,,,,,,,,,,,,,,,,,,,,,,,,,,,,,,,,,,,,2,0,2,0,1,,,,,,,,,,,,,,,,,,,,,
,,,,,,,,,,,,5f0214e58782120a8c970fd6,33,Kobieta,2022-06-11_11h06.12.810,task,2021.1.4,Win32,60.0240096,6299f149e92ead563fba08ef,62a45aa71aae361cb741fd62,,,,,,,,,,,,,6,,,,,,,,,,Task,13,(3x4) - 6,6,,,,,,,,,,,,,,,,,,,1,,,,,,,,,,,,,,,,,,,,,,,"[""6""]",1,[6.454999999999927],0,0,0,12,1,,,,,,,,,,,,,,,,,,,,,,,,,,
,,,,,,,,,,,X V Q F H G B L J M P D K C T S W R N Z,5f0214e58782120a8c970fd6,33,Kobieta,2022-06-11_11h06.12.810,task,2021.1.4,Win32,60.0240096,6299f149e92ead563fba08ef,62a45aa71aae361cb741fd62,,,,,,,,,,,,,,,,,,,,,,,,,,,,,,,,,,,,,,,,,,,,,,,,,,,,,,,,,,,,,,,,,,,,,,,,,,,,3,0,3,0,1,,,,,,,,,,,,,,,,,,,,,
,,,,,,,,,,,,5f0214e58782120a8c970fd6,33,Kobieta,2022-06-11_11h06.12.810,task,2021.1.4,Win32,60.0240096,6299f149e92ead563fba08ef,62a45aa71aae361cb741fd62,,,,,,,,,,,,,,,,,,,,,,,,,,,,,,,,,,,,,,,,,,,,,,,,,,,,,,,,,,,,,,,,,,,,,,,,,,,,,,,,,zxjp,"[""z"",""x"",""j"",""p""]",0,"[1.234000000000151,1.6520000000000437,2.216000000000122,2.762000000000171,3.4950000000001182]",1,ZXJP,3,0,3,0,1,,,,,,,,,,
,,,,,,,,,,,,5f0214e58782120a8c970fd6,33,Kobieta,2022-06-11_11h06.12.810,task,2021.1.4,Win32,60.0240096,6299f149e92ead563fba08ef,62a45aa71aae361cb741fd62,,,,,,,,,,,,,1,,,,,,,,,,Task,1,(12/6) - 1,1,,,,,,,,,,,,,,,,,,,1,,,,,,,,,,,,,,,,,,,,,,,"[""1""]",1,[5.723999999999933],0,0,0,0,1,,,,,,,,,,,,,,,,,,,,,,,,,,
,,,,,,,,,,,X V Q F H G B L J M P D K C T S W R N Z,5f0214e58782120a8c970fd6,33,Kobieta,2022-06-11_11h06.12.810,task,2021.1.4,Win32,60.0240096,6299f149e92ead563fba08ef,62a45aa71aae361cb741fd62,,,,,,,,,,,,,,,,,,,,,,,,,,,,,,,,,,,,,,,,,,,,,,,,,,,,,,,,,,,,,,,,,,,,,,,,,,,,0,0,0,0,1,,,,,,,,,,,,,,,,,,,,,
,,,,,,,,,,,,5f0214e58782120a8c970fd6,33,Kobieta,2022-06-11_11h06.12.810,task,2021.1.4,Win32,60.0240096,6299f149e92ead563fba08ef,62a45aa71aae361cb741fd62,,,,,,,,,,,,,2,,,,,,,,,,Task,2,(2x2) - 2,2,,,,,,,,,,,,,,,,,,,1,,,,,,,,,,,,,,,,,,,,,,,"[""2""]",1,[13.366999999999962],0,0,0,1,1,,,,,,,,,,,,,,,,,,,,,,,,,,
,,,,,,,,,,,X V Q F H G B L J M P D K C T S W R N Z,5f0214e58782120a8c970fd6,33,Kobieta,2022-06-11_11h06.12.810,task,2021.1.4,Win32,60.0240096,6299f149e92ead563fba08ef,62a45aa71aae361cb741fd62,,,,,,,,,,,,,,,,,,,,,,,,,,,,,,,,,,,,,,,,,,,,,,,,,,,,,,,,,,,,,,,,,,,,,,,,,,,,1,0,1,0,1,,,,,,,,,,,,,,,,,,,,,
,,,,,,,,,,,,5f0214e58782120a8c970fd6,33,Kobieta,2022-06-11_11h06.12.810,task,2021.1.4,Win32,60.0240096,6299f149e92ead563fba08ef,62a45aa71aae361cb741fd62,,,,,,,,,,,,,2,,,,,,,,,,Task,25,(10/5) - 2,0,,,,,,,,,,,,,,,,,,,0,,,,,,,,,,,,,,,,,,,,,,,"[""2""]",0,[4.073000000000093],0,0,0,24,1,,,,,,,,,,,,,,,,,,,,,,,,,,
,,,,,,,,,,,,5f0214e58782120a8c970fd6,33,Kobieta,2022-06-11_11h06.12.810,task,2021.1.4,Win32,60.0240096,6299f149e92ead563fba08ef,62a45aa71aae361cb741fd62,,,,,,,,,,,,,6,,,,,,,,,,Task,13,(3x4) - 6,6,,,,,,,,,,,,,,,,,,,1,,,,,,,,,,,,,,,,,,,,,,,"[""6""]",1,[2.8869999999999436],0,1,1,12,1,,,,,,,,,,,,,,,,,,,,,,,,,,
,,,,,,,,,,,X V Q F H G B L J M P D K C T S W R N Z,5f0214e58782120a8c970fd6,33,Kobieta,2022-06-11_11h06.12.810,task,2021.1.4,Win32,60.0240096,6299f149e92ead563fba08ef,62a45aa71aae361cb741fd62,,,,,,,,,,,,,,,,,,,,,,,,,,,,,,,,,,,,,,,,,,,,,,,,,,,,,,,,,,,,,,,,,,,,,,,,,,,,2,0,2,0,1,,,,,,,,,,,,,,,,,,,,,
,,,,,,,,,,,,5f0214e58782120a8c970fd6,33,Kobieta,2022-06-11_11h06.12.810,task,2021.1.4,Win32,60.0240096,6299f149e92ead563fba08ef,62a45aa71aae361cb741fd62,,,,,,,,,,,,,3,,,,,,,,,,Task,20,(18/9) + 1,3,,,,,,,,,,,,,,,,,,,1,,,,,,,,,,,,,,,,,,,,,,,"[""3""]",1,[4],0,0,0,19,1,,,,,,,,,,,,,,,,,,,,,,,,,,
,,,,,,,,,,,X V Q F H G B L J M P D K C T S W R N Z,5f0214e58782120a8c970fd6,33,Kobieta,2022-06-11_11h06.12.810,task,2021.1.4,Win32,60.0240096,6299f149e92ead563fba08ef,62a45aa71aae361cb741fd62,,,,,,,,,,,,,,,,,,,,,,,,,,,,,,,,,,,,,,,,,,,,,,,,,,,,,,,,,,,,,,,,,,,,,,,,,,,,3,0,3,0,1,,,,,,,,,,,,,,,,,,,,,
,,,,,,,,,,,,5f0214e58782120a8c970fd6,33,Kobieta,2022-06-11_11h06.12.810,task,2021.1.4,Win32,60.0240096,6299f149e92ead563fba08ef,62a45aa71aae361cb741fd62,,,,,,,,,,,,,1,,,,,,,,,,Task,9,(3x7) - 20,1,,,,,,,,,,,,,,,,,,,1,,,,,,,,,,,,,,,,,,,,,,,"[""1""]",1,[5.2590000000000146],0,0,0,8,1,,,,,,,,,,,,,,,,,,,,,,,,,,
,,,,,,,,,,,X V Q F H G B L J M P D K C T S W R N Z,5f0214e58782120a8c970fd6,33,Kobieta,2022-06-11_11h06.12.810,task,2021.1.4,Win32,60.0240096,6299f149e92ead563fba08ef,62a45aa71aae361cb741fd62,,,,,,,,,,,,,,,,,,,,,,,,,,,,,,,,,,,,,,,,,,,,,,,,,,,,,,,,,,,,,,,,,,,,,,,,,,,,4,0,4,0,1,,,,,,,,,,,,,,,,,,,,,
,,,,,,,,,,,,5f0214e58782120a8c970fd6,33,Kobieta,2022-06-11_11h06.12.810,task,2021.1.4,Win32,60.0240096,6299f149e92ead563fba08ef,62a45aa71aae361cb741fd62,,,,,,,,,,,,,,,,,,,,,,,,,,,,,,,,,,,,,,,,,,,,,,,,,,,,,,,,,,,,,,,,,,,,,,,,,,,,,,,,,hwmf,"[""h"",""w"",""m"",""f""]",0,"[2.2049999999999272,3.0039999999999054,3.518000000000029,4.1030000000000655,4.872000000000071]",0,HFWMF,4,0,4,0,1,,,,,,,,,,
,,,,,,,,,,,,5f0214e58782120a8c970fd6,33,Kobieta,2022-06-11_11h06.12.810,task,2021.1.4,Win32,60.0240096,6299f149e92ead563fba08ef,62a45aa71aae361cb741fd62,,,,,,,,,,,,,1,,,,,,,,,,Task,12,(4x4) - 11,5,,,,,,,,,,,,,,,,,,,0,,,,,,,,,,,,,,,,,,,,,,,"[""1""]",0,[2.625],0,0,0,11,1,,,,,,,,,,,,,,,,,,,,,,,,,,
,,,,,,,,,,,,5f0214e58782120a8c970fd6,33,Kobieta,2022-06-11_11h06.12.810,task,2021.1.4,Win32,60.0240096,6299f149e92ead563fba08ef,62a45aa71aae361cb741fd62,,,,,,,,,,,,,3,,,,,,,,,,Task,3,(2x3) - 3,3,,,,,,,,,,,,,,,,,,,1,,,,,,,,,,,,,,,,,,,,,,,"[""3""]",1,[3.6820000000000164],0,1,1,2,1,,,,,,,,,,,,,,,,,,,,,,,,,,
,,,,,,,,,,,X V Q F H G B L J M P D K C T S W R N Z,5f0214e58782120a8c970fd6,33,Kobieta,2022-06-11_11h06.12.810,task,2021.1.4,Win32,60.0240096,6299f149e92ead563fba08ef,62a45aa71aae361cb741fd62,,,,,,,,,,,,,,,,,,,,,,,,,,,,,,,,,,,,,,,,,,,,,,,,,,,,,,,,,,,,,,,,,,,,,,,,,,,,0,0,0,0,1,,,,,,,,,,,,,,,,,,,,,
,,,,,,,,,,,,5f0214e58782120a8c970fd6,33,Kobieta,2022-06-11_11h06.12.810,task,2021.1.4,Win32,60.0240096,6299f149e92ead563fba08ef,62a45aa71aae361cb741fd62,,,,,,,,,,,,,1,,,,,,,,,,Task,1,(12/6) - 1,1,,,,,,,,,,,,,,,,,,,1,,,,,,,,,,,,,,,,,,,,,,,"[""1""]",1,[3.7539999999999054],0,0,0,0,1,,,,,,,,,,,,,,,,,,,,,,,,,,
,,,,,,,,,,,X V Q F H G B L J M P D K C T S W R N Z,5f0214e58782120a8c970fd6,33,Kobieta,2022-06-11_11h06.12.810,task,2021.1.4,Win32,60.0240096,6299f149e92ead563fba08ef,62a45aa71aae361cb741fd62,,,,,,,,,,,,,,,,,,,,,,,,,,,,,,,,,,,,,,,,,,,,,,,,,,,,,,,,,,,,,,,,,,,,,,,,,,,,1,0,1,0,1,,,,,,,,,,,,,,,,,,,,,
,,,,,,,,,,,,5f0214e58782120a8c970fd6,33,Kobieta,2022-06-11_11h06.12.810,task,2021.1.4,Win32,60.0240096,6299f149e92ead563fba08ef,62a45aa71aae361cb741fd62,,,,,,,,,,,,,1,,,,,,,,,,Task,12,(4x4) - 11,5,,,,,,,,,,,,,,,,,,,0,,,,,,,,,,,,,,,,,,,,,,,"[""1""]",0,[4.484000000000151],0,0,0,11,1,,,,,,,,,,,,,,,,,,,,,,,,,,
,,,,,,,,,,,,5f0214e58782120a8c970fd6,33,Kobieta,2022-06-11_11h06.12.810,task,2021.1.4,Win32,60.0240096,6299f149e92ead563fba08ef,62a45aa71aae361cb741fd62,,,,,,,,,,,,,3,,,,,,,,,,Task,3,(2x3) - 3,3,,,,,,,,,,,,,,,,,,,1,,,,,,,,,,,,,,,,,,,,,,,"[""3""]",1,[5.616999999999962],0,1,1,2,1,,,,,,,,,,,,,,,,,,,,,,,,,,
,,,,,,,,,,,X V Q F H G B L J M P D K C T S W R N Z,5f0214e58782120a8c970fd6,33,Kobieta,2022-06-11_11h06.12.810,task,2021.1.4,Win32,60.0240096,6299f149e92ead563fba08ef,62a45aa71aae361cb741fd62,,,,,,,,,,,,,,,,,,,,,,,,,,,,,,,,,,,,,,,,,,,,,,,,,,,,,,,,,,,,,,,,,,,,,,,,,,,,2,0,2,0,1,,,,,,,,,,,,,,,,,,,,,
,,,,,,,,,,,,5f0214e58782120a8c970fd6,33,Kobieta,2022-06-11_11h06.12.810,task,2021.1.4,Win32,60.0240096,6299f149e92ead563fba08ef,62a45aa71aae361cb741fd62,,,,,,,,,,,,,3,,,,,,,,,,Task,3,(2x3) - 3,3,,,,,,,,,,,,,,,,,,,1,,,,,,,,,,,,,,,,,,,,,,,"[""3""]",1,[1.9610000000000127],0,0,0,2,1,,,,,,,,,,,,,,,,,,,,,,,,,,
,,,,,,,,,,,X V Q F H G B L J M P D K C T S W R N Z,5f0214e58782120a8c970fd6,33,Kobieta,2022-06-11_11h06.12.810,task,2021.1.4,Win32,60.0240096,6299f149e92ead563fba08ef,62a45aa71aae361cb741fd62,,,,,,,,,,,,,,,,,,,,,,,,,,,,,,,,,,,,,,,,,,,,,,,,,,,,,,,,,,,,,,,,,,,,,,,,,,,,3,0,3,0,1,,,,,,,,,,,,,,,,,,,,,
,,,,,,,,,,,,5f0214e58782120a8c970fd6,33,Kobieta,2022-06-11_11h06.12.810,task,2021.1.4,Win32,60.0240096,6299f149e92ead563fba08ef,62a45aa71aae361cb741fd62,,,,,,,,,,,,,8,,,,,,,,,,Task,23,(2x3) + 2,8,,,,,,,,,,,,,,,,,,,1,,,,,,,,,,,,,,,,,,,,,,,"[""8""]",1,[3.0900000000001455],0,0,0,22,1,,,,,,,,,,,,,,,,,,,,,,,,,,
,,,,,,,,,,,X V Q F H G B L J M P D K C T S W R N Z,5f0214e58782120a8c970fd6,33,Kobieta,2022-06-11_11h06.12.810,task,2021.1.4,Win32,60.0240096,6299f149e92ead563fba08ef,62a45aa71aae361cb741fd62,,,,,,,,,,,,,,,,,,,,,,,,,,,,,,,,,,,,,,,,,,,,,,,,,,,,,,,,,,,,,,,,,,,,,,,,,,,,4,0,4,0,1,,,,,,,,,,,,,,,,,,,,,
,,,,,,,,,,,,5f0214e58782120a8c970fd6,33,Kobieta,2022-06-11_11h06.12.810,task,2021.1.4,Win32,60.0240096,6299f149e92ead563fba08ef,62a45aa71aae361cb741fd62,,,,,,,,,,,,,,,,,,,,,,,,,,,,,,,,,,,,,,,,,,,,,,,,,,,,,,,,,,,,,,,,,,,,,,,,,,,,,,,,,vhtpk,"[""v"",""h"",""t"",""p"",""k""]",0,"[2.433999999999969,3.520999999999958,4.569999999999936,5.218000000000075,5.905999999999949,6.76299999999992]",1,VHTPK,5,0,5,0,1,,,,,,,,,,
,,,,,,,,,,,,5f0214e58782120a8c970fd6,33,Kobieta,2022-06-11_11h06.12.810,task,2021.1.4,Win32,60.0240096,6299f149e92ead563fba08ef,62a45aa71aae361cb741fd62,,,,,,,,,,,,,7,,,,,,,,,,Task,14,(2x2) + 3,7,,,,,,,,,,,,,,,,,,,1,,,,,,,,,,,,,,,,,,,,,,,"[""7""]",1,[3.816000000000031],0,0,0,13,1,,,,,,,,,,,,,,,,,,,,,,,,,,
,,,,,,,,,,,X V Q F H G B L J M P D K C T S W R N Z,5f0214e58782120a8c970fd6,33,Kobieta,2022-06-11_11h06.12.810,task,2021.1.4,Win32,60.0240096,6299f149e92ead563fba08ef,62a45aa71aae361cb741fd62,,,,,,,,,,,,,,,,,,,,,,,,,,,,,,,,,,,,,,,,,,,,,,,,,,,,,,,,,,,,,,,,,,,,,,,,,,,,0,0,0,0,1,,,,,,,,,,,,,,,,,,,,,
,,,,,,,,,,,,5f0214e58782120a8c970fd6,33,Kobieta,2022-06-11_11h06.12.810,task,2021.1.4,Win32,60.0240096,6299f149e92ead563fba08ef,62a45aa71aae361cb741fd62,,,,,,,,,,,,,3,,,,,,,,,,Task,35,(1x2) + 1,3,,,,,,,,,,,,,,,,,,,1,,,,,,,,,,,,,,,,,,,,,,,"[""3""]",1,[2.283000000000129],0,0,0,34,1,,,,,,,,,,,,,,,,,,,,,,,,,,
,,,,,,,,,,,X V Q F H G B L J M P D K C T S W R N Z,5f0214e58782120a8c970fd6,33,Kobieta,2022-06-11_11h06.12.810,task,2021.1.4,Win32,60.0240096,6299f149e92ead563fba08ef,62a45aa71aae361cb741fd62,,,,,,,,,,,,,,,,,,,,,,,,,,,,,,,,,,,,,,,,,,,,,,,,,,,,,,,,,,,,,,,,,,,,,,,,,,,,1,0,1,0,1,,,,,,,,,,,,,,,,,,,,,
,,,,,,,,,,,,5f0214e58782120a8c970fd6,33,Kobieta,2022-06-11_11h06.12.810,task,2021.1.4,Win32,60.0240096,6299f149e92ead563fba08ef,62a45aa71aae361cb741fd62,,,,,,,,,,,,,,,,,,,,,,,Task,16,(3x8) - 15,9,,,,,,,,,,,,,,,,,,,0,,,,,,,,,,,,,,,,,,,,,,,,0,,0,0,0,15,1,,,,,,,,,,,,,,,,,,,,,,,,,,
,,,,,,,,,,,,5f0214e58782120a8c970fd6,33,Kobieta,2022-06-11_11h06.12.810,task,2021.1.4,Win32,60.0240096,6299f149e92ead563fba08ef,62a45aa71aae361cb741fd62,,,,,,,,,,,,,3,,,,,,,,,,Task,27,(3/3) + 2,3,,,,,,,,,,,,,,,,,,,1,,,,,,,,,,,,,,,,,,,,,,,"[""3""]",1,[3.203000000000202],0,1,1,26,1,,,,,,,,,,,,,,,,,,,,,,,,,,
,,,,,,,,,,,X V Q F H G B L J M P D K C T S W R N Z,5f0214e58782120a8c970fd6,33,Kobieta,2022-06-11_11h06.12.810,task,2021.1.4,Win32,60.0240096,6299f149e92ead563fba08ef,62a45aa71aae361cb741fd62,,,,,,,,,,,,,,,,,,,,,,,,,,,,,,,,,,,,,,,,,,,,,,,,,,,,,,,,,,,,,,,,,,,,,,,,,,,,2,0,2,0,1,,,,,,,,,,,,,,,,,,,,,
,,,,,,,,,,,,5f0214e58782120a8c970fd6,33,Kobieta,2022-06-11_11h06.12.810,task,2021.1.4,Win32,60.0240096,6299f149e92ead563fba08ef,62a45aa71aae361cb741fd62,,,,,,,,,,,,,6,,,,,,,,,,Task,37,(3/3) + 5,6,,,,,,,,,,,,,,,,,,,1,,,,,,,,,,,,,,,,,,,,,,,"[""6""]",1,[2.3559999999999945],0,0,0,36,1,,,,,,,,,,,,,,,,,,,,,,,,,,
,,,,,,,,,,,X V Q F H G B L J M P D K C T S W R N Z,5f0214e58782120a8c970fd6,33,Kobieta,2022-06-11_11h06.12.810,task,2021.1.4,Win32,60.0240096,6299f149e92ead563fba08ef,62a45aa71aae361cb741fd62,,,,,,,,,,,,,,,,,,,,,,,,,,,,,,,,,,,,,,,,,,,,,,,,,,,,,,,,,,,,,,,,,,,,,,,,,,,,3,0,3,0,1,,,,,,,,,,,,,,,,,,,,,
,,,,,,,,,,,,5f0214e58782120a8c970fd6,33,Kobieta,2022-06-11_11h06.12.810,task,2021.1.4,Win32,60.0240096,6299f149e92ead563fba08ef,62a45aa71aae361cb741fd62,,,,,,,,,,,,,6,,,,,,,,,,Task,30,(6/3) + 4 ,6,,,,,,,,,,,,,,,,,,,1,,,,,,,,,,,,,,,,,,,,,,,"[""6""]",1,[2.94399999999996],0,0,0,29,1,,,,,,,,,,,,,,,,,,,,,,,,,,
,,,,,,,,,,,X V Q F H G B L J M P D K C T S W R N Z,5f0214e58782120a8c970fd6,33,Kobieta,2022-06-11_11h06.12.810,task,2021.1.4,Win32,60.0240096,6299f149e92ead563fba08ef,62a45aa71aae361cb741fd62,,,,,,,,,,,,,,,,,,,,,,,,,,,,,,,,,,,,,,,,,,,,,,,,,,,,,,,,,,,,,,,,,,,,,,,,,,,,4,0,4,0,1,,,,,,,,,,,,,,,,,,,,,
,,,,,,,,,,,,5f0214e58782120a8c970fd6,33,Kobieta,2022-06-11_11h06.12.810,task,2021.1.4,Win32,60.0240096,6299f149e92ead563fba08ef,62a45aa71aae361cb741fd62,,,,,,,,,,,,,3,,,,,,,,,,Task,20,(18/9) + 1,3,,,,,,,,,,,,,,,,,,,1,,,,,,,,,,,,,,,,,,,,,,,"[""3""]",1,[3.673000000000002],0,0,0,19,1,,,,,,,,,,,,,,,,,,,,,,,,,,
,,,,,,,,,,,X V Q F H G B L J M P D K C T S W R N Z,5f0214e58782120a8c970fd6,33,Kobieta,2022-06-11_11h06.12.810,task,2021.1.4,Win32,60.0240096,6299f149e92ead563fba08ef,62a45aa71aae361cb741fd62,,,,,,,,,,,,,,,,,,,,,,,,,,,,,,,,,,,,,,,,,,,,,,,,,,,,,,,,,,,,,,,,,,,,,,,,,,,,5,0,5,0,1,,,,,,,,,,,,,,,,,,,,,
,,,,,,,,,,,,5f0214e58782120a8c970fd6,33,Kobieta,2022-06-11_11h06.12.810,task,2021.1.4,Win32,60.0240096,6299f149e92ead563fba08ef,62a45aa71aae361cb741fd62,,,,,,,,,,,,,,,,,,,,,,,,,,,,,,,,,,,,,,,,,,,,,,,,,,,,,,,,,,,,,,,,,,,,,,,,,,,,,,,,,nbwvtm,"[""n"",""b"",""w"",""v"",""t"",""m""]",0,"[2.463999999999942,2.9739999999999327,4.15300000000002,4.9809999999999945,6.354000000000042,6.767000000000053,7.8840000000000146]",1,NBWVTM,6,0,6,0,1,,,,,,,,,,
,,,,,,,,,,,,5f0214e58782120a8c970fd6,33,Kobieta,2022-06-11_11h06.12.810,task,2021.1.4,Win32,60.0240096,6299f149e92ead563fba08ef,62a45aa71aae361cb741fd62,,,,,,,,,,,,,6,,,,,,,,,,Task,13,(3x4) - 6,6,,,,,,,,,,,,,,,,,,,1,,,,,,,,,,,,,,,,,,,,,,,"[""6""]",1,[2.65300000000002],0,0,0,12,1,,,,,,,,,,,,,,,,,,,,,,,,,,
,,,,,,,,,,,X V Q F H G B L J M P D K C T S W R N Z,5f0214e58782120a8c970fd6,33,Kobieta,2022-06-11_11h06.12.810,task,2021.1.4,Win32,60.0240096,6299f149e92ead563fba08ef,62a45aa71aae361cb741fd62,,,,,,,,,,,,,,,,,,,,,,,,,,,,,,,,,,,,,,,,,,,,,,,,,,,,,,,,,,,,,,,,,,,,,,,,,,,,0,0,0,0,1,,,,,,,,,,,,,,,,,,,,,
,,,,,,,,,,,,5f0214e58782120a8c970fd6,33,Kobieta,2022-06-11_11h06.12.810,task,2021.1.4,Win32,60.0240096,6299f149e92ead563fba08ef,62a45aa71aae361cb741fd62,,,,,,,,,,,,,8,,,,,,,,,,Task,39,(5x3) - 7,8,,,,,,,,,,,,,,,,,,,1,,,,,,,,,,,,,,,,,,,,,,,"[""8""]",1,[8.270999999999958],0,0,0,38,1,,,,,,,,,,,,,,,,,,,,,,,,,,
,,,,,,,,,,,X V Q F H G B L J M P D K C T S W R N Z,5f0214e58782120a8c970fd6,33,Kobieta,2022-06-11_11h06.12.810,task,2021.1.4,Win32,60.0240096,6299f149e92ead563fba08ef,62a45aa71aae361cb741fd62,,,,,,,,,,,,,,,,,,,,,,,,,,,,,,,,,,,,,,,,,,,,,,,,,,,,,,,,,,,,,,,,,,,,,,,,,,,,1,0,1,0,1,,,,,,,,,,,,,,,,,,,,,
,,,,,,,,,,,,5f0214e58782120a8c970fd6,33,Kobieta,2022-06-11_11h06.12.810,task,2021.1.4,Win32,60.0240096,6299f149e92ead563fba08ef,62a45aa71aae361cb741fd62,,,,,,,,,,,,,2,,,,,,,,,,Task,26,(2x9) - 16,2,,,,,,,,,,,,,,,,,,,1,,,,,,,,,,,,,,,,,,,,,,,"[""2""]",1,[4.141000000000076],0,0,0,25,1,,,,,,,,,,,,,,,,,,,,,,,,,,
,,,,,,,,,,,X V Q F H G B L J M P D K C T S W R N Z,5f0214e58782120a8c970fd6,33,Kobieta,2022-06-11_11h06.12.810,task,2021.1.4,Win32,60.0240096,6299f149e92ead563fba08ef,62a45aa71aae361cb741fd62,,,,,,,,,,,,,,,,,,,,,,,,,,,,,,,,,,,,,,,,,,,,,,,,,,,,,,,,,,,,,,,,,,,,,,,,,,,,2,0,2,0,1,,,,,,,,,,,,,,,,,,,,,
,,,,,,,,,,,,5f0214e58782120a8c970fd6,33,Kobieta,2022-06-11_11h06.12.810,task,2021.1.4,Win32,60.0240096,6299f149e92ead563fba08ef,62a45aa71aae361cb741fd62,,,,,,,,,,,,,6,,,,,,,,,,Task,13,(3x4) - 6,6,,,,,,,,,,,,,,,,,,,1,,,,,,,,,,,,,,,,,,,,,,,"[""6""]",1,[2.035000000000082],0,0,0,12,1,,,,,,,,,,,,,,,,,,,,,,,,,,
,,,,,,,,,,,X V Q F H G B L J M P D K C T S W R N Z,5f0214e58782120a8c970fd6,33,Kobieta,2022-06-11_11h06.12.810,task,2021.1.4,Win32,60.0240096,6299f149e92ead563fba08ef,62a45aa71aae361cb741fd62,,,,,,,,,,,,,,,,,,,,,,,,,,,,,,,,,,,,,,,,,,,,,,,,,,,,,,,,,,,,,,,,,,,,,,,,,,,,3,0,3,0,1,,,,,,,,,,,,,,,,,,,,,
,,,,,,,,,,,,5f0214e58782120a8c970fd6,33,Kobieta,2022-06-11_11h06.12.810,task,2021.1.4,Win32,60.0240096,6299f149e92ead563fba08ef,62a45aa71aae361cb741fd62,,,,,,,,,,,,,5,,,,,,,,,,Task,22,(3x1) + 2,5,,,,,,,,,,,,,,,,,,,1,,,,,,,,,,,,,,,,,,,,,,,"[""5""]",1,[2.2950000000000728],0,0,0,21,1,,,,,,,,,,,,,,,,,,,,,,,,,,
,,,,,,,,,,,X V Q F H G B L J M P D K C T S W R N Z,5f0214e58782120a8c970fd6,33,Kobieta,2022-06-11_11h06.12.810,task,2021.1.4,Win32,60.0240096,6299f149e92ead563fba08ef,62a45aa71aae361cb741fd62,,,,,,,,,,,,,,,,,,,,,,,,,,,,,,,,,,,,,,,,,,,,,,,,,,,,,,,,,,,,,,,,,,,,,,,,,,,,4,0,4,0,1,,,,,,,,,,,,,,,,,,,,,
,,,,,,,,,,,,5f0214e58782120a8c970fd6,33,Kobieta,2022-06-11_11h06.12.810,task,2021.1.4,Win32,60.0240096,6299f149e92ead563fba08ef,62a45aa71aae361cb741fd62,,,,,,,,,,,,,3,,,,,,,,,,Task,20,(18/9) + 1,3,,,,,,,,,,,,,,,,,,,1,,,,,,,,,,,,,,,,,,,,,,,"[""3""]",1,[2.8199999999999363],0,0,0,19,1,,,,,,,,,,,,,,,,,,,,,,,,,,
,,,,,,,,,,,X V Q F H G B L J M P D K C T S W R N Z,5f0214e58782120a8c970fd6,33,Kobieta,2022-06-11_11h06.12.810,task,2021.1.4,Win32,60.0240096,6299f149e92ead563fba08ef,62a45aa71aae361cb741fd62,,,,,,,,,,,,,,,,,,,,,,,,,,,,,,,,,,,,,,,,,,,,,,,,,,,,,,,,,,,,,,,,,,,,,,,,,,,,5,0,5,0,1,,,,,,,,,,,,,,,,,,,,,
,,,,,,,,,,,,5f0214e58782120a8c970fd6,33,Kobieta,2022-06-11_11h06.12.810,task,2021.1.4,Win32,60.0240096,6299f149e92ead563fba08ef,62a45aa71aae361cb741fd62,,,,,,,,,,,,,0,,,,,,,,,,Task,25,(10/5) - 2,0,,,,,,,,,,,,,,,,,,,1,,,,,,,,,,,,,,,,,,,,,,,"[""0""]",1,[3.5820000000001073],0,0,0,24,1,,,,,,,,,,,,,,,,,,,,,,,,,,
,,,,,,,,,,,X V Q F H G B L J M P D K C T S W R N Z,5f0214e58782120a8c970fd6,33,Kobieta,2022-06-11_11h06.12.810,task,2021.1.4,Win32,60.0240096,6299f149e92ead563fba08ef,62a45aa71aae361cb741fd62,,,,,,,,,,,,,,,,,,,,,,,,,,,,,,,,,,,,,,,,,,,,,,,,,,,,,,,,,,,,,,,,,,,,,,,,,,,,6,0,6,0,1,,,,,,,,,,,,,,,,,,,,,
,,,,,,,,,,,,5f0214e58782120a8c970fd6,33,Kobieta,2022-06-11_11h06.12.810,task,2021.1.4,Win32,60.0240096,6299f149e92ead563fba08ef,62a45aa71aae361cb741fd62,,,,,,,,,,,,,,,,,,,,,,,,,,,,,,,,,,,,,,,,,,,,,,,,,,,,,,,,,,,,,,,,,,,,,,,,,,,,,,,,,hcppxtm,"[""h"",""c"",""p"",""p"",""x"",""t"",""m""]",0,"[3.627999999999929,4.3900000000001,5.817000000000007,6.031999999999925,6.942000000000007,7.347999999999956,7.751999999999953,8.624000000000024]",1,HCPPXTM,7,0,7,0,1,,,,,,,,,,
,,,,,,,,,,,,5f0214e58782120a8c970fd6,33,Kobieta,2022-06-11_11h06.12.810,task,2021.1.4,Win32,60.0240096,6299f149e92ead563fba08ef,62a45aa71aae361cb741fd62,,,,,,,,,,,,,9,,,,,,,,,,Task,7,(3x7) - 12,9,,,,,,,,,,,,,,,,,,,1,,,,,,,,,,,,,,,,,,,,,,,"[""9""]",1,[6.305999999999813],0,0,0,6,1,,,,,,,,,,,,,,,,,,,,,,,,,,
,,,,,,,,,,,X V Q F H G B L J M P D K C T S W R N Z,5f0214e58782120a8c970fd6,33,Kobieta,2022-06-11_11h06.12.810,task,2021.1.4,Win32,60.0240096,6299f149e92ead563fba08ef,62a45aa71aae361cb741fd62,,,,,,,,,,,,,,,,,,,,,,,,,,,,,,,,,,,,,,,,,,,,,,,,,,,,,,,,,,,,,,,,,,,,,,,,,,,,0,0,0,0,1,,,,,,,,,,,,,,,,,,,,,
,,,,,,,,,,,,5f0214e58782120a8c970fd6,33,Kobieta,2022-06-11_11h06.12.810,task,2021.1.4,Win32,60.0240096,6299f149e92ead563fba08ef,62a45aa71aae361cb741fd62,,,,,,,,,,,,,6,,,,,,,,,,Task,37,(3/3) + 5,6,,,,,,,,,,,,,,,,,,,1,,,,,,,,,,,,,,,,,,,,,,,"[""6""]",1,[2.349999999999909],0,0,0,36,1,,,,,,,,,,,,,,,,,,,,,,,,,,
,,,,,,,,,,,X V Q F H G B L J M P D K C T S W R N Z,5f0214e58782120a8c970fd6,33,Kobieta,2022-06-11_11h06.12.810,task,2021.1.4,Win32,60.0240096,6299f149e92ead563fba08ef,62a45aa71aae361cb741fd62,,,,,,,,,,,,,,,,,,,,,,,,,,,,,,,,,,,,,,,,,,,,,,,,,,,,,,,,,,,,,,,,,,,,,,,,,,,,1,0,1,0,1,,,,,,,,,,,,,,,,,,,,,
,,,,,,,,,,,,5f0214e58782120a8c970fd6,33,Kobieta,2022-06-11_11h06.12.810,task,2021.1.4,Win32,60.0240096,6299f149e92ead563fba08ef,62a45aa71aae361cb741fd62,,,,,,,,,,,,,2,,,,,,,,,,Task,10,(2x5) - 8,2,,,,,,,,,,,,,,,,,,,1,,,,,,,,,,,,,,,,,,,,,,,"[""2""]",1,[2.7819999999999254],0,0,0,9,1,,,,,,,,,,,,,,,,,,,,,,,,,,
,,,,,,,,,,,X V Q F H G B L J M P D K C T S W R N Z,5f0214e58782120a8c970fd6,33,Kobieta,2022-06-11_11h06.12.810,task,2021.1.4,Win32,60.0240096,6299f149e92ead563fba08ef,62a45aa71aae361cb741fd62,,,,,,,,,,,,,,,,,,,,,,,,,,,,,,,,,,,,,,,,,,,,,,,,,,,,,,,,,,,,,,,,,,,,,,,,,,,,2,0,2,0,1,,,,,,,,,,,,,,,,,,,,,
,,,,,,,,,,,,5f0214e58782120a8c970fd6,33,Kobieta,2022-06-11_11h06.12.810,task,2021.1.4,Win32,60.0240096,6299f149e92ead563fba08ef,62a45aa71aae361cb741fd62,,,,,,,,,,,,,2,,,,,,,,,,Task,2,(2x2) - 2,2,,,,,,,,,,,,,,,,,,,1,,,,,,,,,,,,,,,,,,,,,,,"[""2""]",1,[2.328999999999951],0,0,0,1,1,,,,,,,,,,,,,,,,,,,,,,,,,,
,,,,,,,,,,,X V Q F H G B L J M P D K C T S W R N Z,5f0214e58782120a8c970fd6,33,Kobieta,2022-06-11_11h06.12.810,task,2021.1.4,Win32,60.0240096,6299f149e92ead563fba08ef,62a45aa71aae361cb741fd62,,,,,,,,,,,,,,,,,,,,,,,,,,,,,,,,,,,,,,,,,,,,,,,,,,,,,,,,,,,,,,,,,,,,,,,,,,,,3,0,3,0,1,,,,,,,,,,,,,,,,,,,,,
,,,,,,,,,,,,5f0214e58782120a8c970fd6,33,Kobieta,2022-06-11_11h06.12.810,task,2021.1.4,Win32,60.0240096,6299f149e92ead563fba08ef,62a45aa71aae361cb741fd62,,,,,,,,,,,,,8,,,,,,,,,,Task,15,(3x7) - 13,8,,,,,,,,,,,,,,,,,,,1,,,,,,,,,,,,,,,,,,,,,,,"[""8""]",1,[4.7690000000000055],0,0,0,14,1,,,,,,,,,,,,,,,,,,,,,,,,,,
,,,,,,,,,,,X V Q F H G B L J M P D K C T S W R N Z,5f0214e58782120a8c970fd6,33,Kobieta,2022-06-11_11h06.12.810,task,2021.1.4,Win32,60.0240096,6299f149e92ead563fba08ef,62a45aa71aae361cb741fd62,,,,,,,,,,,,,,,,,,,,,,,,,,,,,,,,,,,,,,,,,,,,,,,,,,,,,,,,,,,,,,,,,,,,,,,,,,,,4,0,4,0,1,,,,,,,,,,,,,,,,,,,,,
,,,,,,,,,,,,5f0214e58782120a8c970fd6,33,Kobieta,2022-06-11_11h06.12.810,task,2021.1.4,Win32,60.0240096,6299f149e92ead563fba08ef,62a45aa71aae361cb741fd62,,,,,,,,,,,,,8,,,,,,,,,,Task,39,(5x3) - 7,8,,,,,,,,,,,,,,,,,,,1,,,,,,,,,,,,,,,,,,,,,,,"[""8""]",1,[7.401000000000067],0,0,0,38,1,,,,,,,,,,,,,,,,,,,,,,,,,,
,,,,,,,,,,,X V Q F H G B L J M P D K C T S W R N Z,5f0214e58782120a8c970fd6,33,Kobieta,2022-06-11_11h06.12.810,task,2021.1.4,Win32,60.0240096,6299f149e92ead563fba08ef,62a45aa71aae361cb741fd62,,,,,,,,,,,,,,,,,,,,,,,,,,,,,,,,,,,,,,,,,,,,,,,,,,,,,,,,,,,,,,,,,,,,,,,,,,,,5,0,5,0,1,,,,,,,,,,,,,,,,,,,,,
,,,,,,,,,,,,5f0214e58782120a8c970fd6,33,Kobieta,2022-06-11_11h06.12.810,task,2021.1.4,Win32,60.0240096,6299f149e92ead563fba08ef,62a45aa71aae361cb741fd62,,,,,,,,,,,,,7,,,,,,,,,,Task,14,(2x2) + 3,7,,,,,,,,,,,,,,,,,,,1,,,,,,,,,,,,,,,,,,,,,,,"[""7""]",1,[4.564000000000078],0,0,0,13,1,,,,,,,,,,,,,,,,,,,,,,,,,,
,,,,,,,,,,,X V Q F H G B L J M P D K C T S W R N Z,5f0214e58782120a8c970fd6,33,Kobieta,2022-06-11_11h06.12.810,task,2021.1.4,Win32,60.0240096,6299f149e92ead563fba08ef,62a45aa71aae361cb741fd62,,,,,,,,,,,,,,,,,,,,,,,,,,,,,,,,,,,,,,,,,,,,,,,,,,,,,,,,,,,,,,,,,,,,,,,,,,,,6,0,6,0,1,,,,,,,,,,,,,,,,,,,,,
,,,,,,,,,,,,5f0214e58782120a8c970fd6,33,Kobieta,2022-06-11_11h06.12.810,task,2021.1.4,Win32,60.0240096,6299f149e92ead563fba08ef,62a45aa71aae361cb741fd62,,,,,,,,,,,,,0,,,,,,,,,,Task,25,(10/5) - 2,0,,,,,,,,,,,,,,,,,,,1,,,,,,,,,,,,,,,,,,,,,,,"[""0""]",1,[5.04099999999994],0,0,0,24,1,,,,,,,,,,,,,,,,,,,,,,,,,,
,,,,,,,,,,,X V Q F H G B L J M P D K C T S W R N Z,5f0214e58782120a8c970fd6,33,Kobieta,2022-06-11_11h06.12.810,task,2021.1.4,Win32,60.0240096,6299f149e92ead563fba08ef,62a45aa71aae361cb741fd62,,,,,,,,,,,,,,,,,,,,,,,,,,,,,,,,,,,,,,,,,,,,,,,,,,,,,,,,,,,,,,,,,,,,,,,,,,,,7,0,7,0,1,,,,,,,,,,,,,,,,,,,,,
,,,,,,,,,,,,5f0214e58782120a8c970fd6,33,Kobieta,2022-06-11_11h06.12.810,task,2021.1.4,Win32,60.0240096,6299f149e92ead563fba08ef,62a45aa71aae361cb741fd62,,,,,,,,,,,,,,,,,,,,,,,,,,,,,,,,,,,,,,,,,,,,,,,,,,,,,,,,,,,,,,,,,,,,,,,,,,,,,,,,,pqzrzdtb,"[""p"",""q"",""z"",""r"",""z"",""d"",""t"",""b""]",0,"[2.201000000000022,2.961999999999989,3.4859999999998763,4.593000000000075,4.97199999999998,7.104000000000042,10.701999999999998,12.961000000000013,13.873000000000047]",0,PQZRZDWT,8,0,8,0,1,,,,,,,,,,
,,,,,,,,,,,,5f0214e58782120a8c970fd6,33,Kobieta,2022-06-11_11h06.12.810,task,2021.1.4,Win32,60.0240096,6299f149e92ead563fba08ef,62a45aa71aae361cb741fd62,,,,,,,,,,,,,9,,,,,,,,,,Task,24,(2x2) + 5,9,,,,,,,,,,,,,,,,,,,1,,,,,,,,,,,,,,,,,,,,,,,"[""9""]",1,[4.229000000000042],0,0,0,23,1,,,,,,,,,,,,,,,,,,,,,,,,,,
,,,,,,,,,,,X V Q F H G B L J M P D K C T S W R N Z,5f0214e58782120a8c970fd6,33,Kobieta,2022-06-11_11h06.12.810,task,2021.1.4,Win32,60.0240096,6299f149e92ead563fba08ef,62a45aa71aae361cb741fd62,,,,,,,,,,,,,,,,,,,,,,,,,,,,,,,,,,,,,,,,,,,,,,,,,,,,,,,,,,,,,,,,,,,,,,,,,,,,0,0,0,0,1,,,,,,,,,,,,,,,,,,,,,
,,,,,,,,,,,,5f0214e58782120a8c970fd6,33,Kobieta,2022-06-11_11h06.12.810,task,2021.1.4,Win32,60.0240096,6299f149e92ead563fba08ef,62a45aa71aae361cb741fd62,,,,,,,,,,,,,2,,,,,,,,,,Task,2,(2x2) - 2,2,,,,,,,,,,,,,,,,,,,1,,,,,,,,,,,,,,,,,,,,,,,"[""2""]",1,[2.3159999999998035],0,0,0,1,1,,,,,,,,,,,,,,,,,,,,,,,,,,
,,,,,,,,,,,X V Q F H G B L J M P D K C T S W R N Z,5f0214e58782120a8c970fd6,33,Kobieta,2022-06-11_11h06.12.810,task,2021.1.4,Win32,60.0240096,6299f149e92ead563fba08ef,62a45aa71aae361cb741fd62,,,,,,,,,,,,,,,,,,,,,,,,,,,,,,,,,,,,,,,,,,,,,,,,,,,,,,,,,,,,,,,,,,,,,,,,,,,,1,0,1,0,1,,,,,,,,,,,,,,,,,,,,,
,,,,,,,,,,,,5f0214e58782120a8c970fd6,33,Kobieta,2022-06-11_11h06.12.810,task,2021.1.4,Win32,60.0240096,6299f149e92ead563fba08ef,62a45aa71aae361cb741fd62,,,,,,,,,,,,,6,,,,,,,,,,Task,5,(2x3) + 0,6,,,,,,,,,,,,,,,,,,,1,,,,,,,,,,,,,,,,,,,,,,,"[""6""]",1,[2.923999999999978],0,0,0,4,1,,,,,,,,,,,,,,,,,,,,,,,,,,
,,,,,,,,,,,X V Q F H G B L J M P D K C T S W R N Z,5f0214e58782120a8c970fd6,33,Kobieta,2022-06-11_11h06.12.810,task,2021.1.4,Win32,60.0240096,6299f149e92ead563fba08ef,62a45aa71aae361cb741fd62,,,,,,,,,,,,,,,,,,,,,,,,,,,,,,,,,,,,,,,,,,,,,,,,,,,,,,,,,,,,,,,,,,,,,,,,,,,,2,0,2,0,1,,,,,,,,,,,,,,,,,,,,,
,,,,,,,,,,,,5f0214e58782120a8c970fd6,33,Kobieta,2022-06-11_11h06.12.810,task,2021.1.4,Win32,60.0240096,6299f149e92ead563fba08ef,62a45aa71aae361cb741fd62,,,,,,,,,,,,,0,,,,,,,,,,Task,8,(1x5) - 5,0,,,,,,,,,,,,,,,,,,,1,,,,,,,,,,,,,,,,,,,,,,,"[""0""]",1,[2.508000000000038],0,0,0,7,1,,,,,,,,,,,,,,,,,,,,,,,,,,
,,,,,,,,,,,X V Q F H G B L J M P D K C T S W R N Z,5f0214e58782120a8c970fd6,33,Kobieta,2022-06-11_11h06.12.810,task,2021.1.4,Win32,60.0240096,6299f149e92ead563fba08ef,62a45aa71aae361cb741fd62,,,,,,,,,,,,,,,,,,,,,,,,,,,,,,,,,,,,,,,,,,,,,,,,,,,,,,,,,,,,,,,,,,,,,,,,,,,,3,0,3,0,1,,,,,,,,,,,,,,,,,,,,,
,,,,,,,,,,,,5f0214e58782120a8c970fd6,33,Kobieta,2022-06-11_11h06.12.810,task,2021.1.4,Win32,60.0240096,6299f149e92ead563fba08ef,62a45aa71aae361cb741fd62,,,,,,,,,,,,,9,,,,,,,,,,Task,7,(3x7) - 12,9,,,,,,,,,,,,,,,,,,,1,,,,,,,,,,,,,,,,,,,,,,,"[""9""]",1,[4.680999999999813],0,0,0,6,1,,,,,,,,,,,,,,,,,,,,,,,,,,
,,,,,,,,,,,X V Q F H G B L J M P D K C T S W R N Z,5f0214e58782120a8c970fd6,33,Kobieta,2022-06-11_11h06.12.810,task,2021.1.4,Win32,60.0240096,6299f149e92ead563fba08ef,62a45aa71aae361cb741fd62,,,,,,,,,,,,,,,,,,,,,,,,,,,,,,,,,,,,,,,,,,,,,,,,,,,,,,,,,,,,,,,,,,,,,,,,,,,,4,0,4,0,1,,,,,,,,,,,,,,,,,,,,,
,,,,,,,,,,,,5f0214e58782120a8c970fd6,33,Kobieta,2022-06-11_11h06.12.810,task,2021.1.4,Win32,60.0240096,6299f149e92ead563fba08ef,62a45aa71aae361cb741fd62,,,,,,,,,,,,,6,,,,,,,,,,Task,5,(2x3) + 0,6,,,,,,,,,,,,,,,,,,,1,,,,,,,,,,,,,,,,,,,,,,,"[""6""]",1,[2.8010000000001583],0,0,0,4,1,,,,,,,,,,,,,,,,,,,,,,,,,,
,,,,,,,,,,,X V Q F H G B L J M P D K C T S W R N Z,5f0214e58782120a8c970fd6,33,Kobieta,2022-06-11_11h06.12.810,task,2021.1.4,Win32,60.0240096,6299f149e92ead563fba08ef,62a45aa71aae361cb741fd62,,,,,,,,,,,,,,,,,,,,,,,,,,,,,,,,,,,,,,,,,,,,,,,,,,,,,,,,,,,,,,,,,,,,,,,,,,,,5,0,5,0,1,,,,,,,,,,,,,,,,,,,,,
,,,,,,,,,,,,5f0214e58782120a8c970fd6,33,Kobieta,2022-06-11_11h06.12.810,task,2021.1.4,Win32,60.0240096,6299f149e92ead563fba08ef,62a45aa71aae361cb741fd62,,,,,,,,,,,,,3,,,,,,,,,,Task,20,(18/9) + 1,3,,,,,,,,,,,,,,,,,,,1,,,,,,,,,,,,,,,,,,,,,,,"[""3""]",1,[3.52800000000002],0,0,0,19,1,,,,,,,,,,,,,,,,,,,,,,,,,,
,,,,,,,,,,,X V Q F H G B L J M P D K C T S W R N Z,5f0214e58782120a8c970fd6,33,Kobieta,2022-06-11_11h06.12.810,task,2021.1.4,Win32,60.0240096,6299f149e92ead563fba08ef,62a45aa71aae361cb741fd62,,,,,,,,,,,,,,,,,,,,,,,,,,,,,,,,,,,,,,,,,,,,,,,,,,,,,,,,,,,,,,,,,,,,,,,,,,,,6,0,6,0,1,,,,,,,,,,,,,,,,,,,,,
,,,,,,,,,,,,5f0214e58782120a8c970fd6,33,Kobieta,2022-06-11_11h06.12.810,task,2021.1.4,Win32,60.0240096,6299f149e92ead563fba08ef,62a45aa71aae361cb741fd62,,,,,,,,,,,,,7,,,,,,,,,,Task,31,(4/2) + 5,7,,,,,,,,,,,,,,,,,,,1,,,,,,,,,,,,,,,,,,,,,,,"[""7""]",1,[3.594000000000051],0,0,0,30,1,,,,,,,,,,,,,,,,,,,,,,,,,,
,,,,,,,,,,,X V Q F H G B L J M P D K C T S W R N Z,5f0214e58782120a8c970fd6,33,Kobieta,2022-06-11_11h06.12.810,task,2021.1.4,Win32,60.0240096,6299f149e92ead563fba08ef,62a45aa71aae361cb741fd62,,,,,,,,,,,,,,,,,,,,,,,,,,,,,,,,,,,,,,,,,,,,,,,,,,,,,,,,,,,,,,,,,,,,,,,,,,,,7,0,7,0,1,,,,,,,,,,,,,,,,,,,,,
,,,,,,,,,,,,5f0214e58782120a8c970fd6,33,Kobieta,2022-06-11_11h06.12.810,task,2021.1.4,Win32,60.0240096,6299f149e92ead563fba08ef,62a45aa71aae361cb741fd62,,,,,,,,,,,,,,,,,,,,,,,,,,,,,,,,,,,,,,,,,,,,,,,,,,,,,,,,,,,,,,,,,,,,,,,,,,,,,,,,,zqbcsrqs,"[""z"",""q"",""b"",""c"",""s"",""r"",""q"",""s""]",0,"[1.856999999999971,2.5599999999999454,3.55600000000004,4.22199999999998,6.988000000000056,7.836999999999989,10.504000000000133,12.471000000000004,13.707000000000107]",0,ZQBCRSQK,9,0,9,0,1,,,,,,,,,,
,,,,,,,,,,,,5f0214e58782120a8c970fd6,33,Kobieta,2022-06-11_11h06.12.810,task,2021.1.4,Win32,60.0240096,6299f149e92ead563fba08ef,62a45aa71aae361cb741fd62,,,,,,,,,,,,,,,,,,,,,,,,,,,,,,,,,,,,,,,,,,,,,,,,,,,,,,,,,,,,,,,,,,,,,,,,,,,,,,,,,,,,,,,,,,,,"[""comma""]",0,[0.7210000000000036],0,0,0,0,1,,
,,,,,,,,,,,,5f0214e58782120a8c970fd6,33,Kobieta,2022-06-11_11h06.12.810,task,2021.1.4,Win32,60.0240096,6299f149e92ead563fba08ef,62a45aa71aae361cb741fd62,,,,,,,,,,,,,,,,,,,,,,,,,,,,,,,,,,,,,,,,,,,,,,,,,,,,,,,,,,,,,,,,,,,,,,,,,,,,,,,,,,,,,,,,,,,,"[""comma""]",0,[0.6620000000000346],1,0,1,0,1,,
,,,,,,,,,,,,5f0214e58782120a8c970fd6,33,Kobieta,2022-06-11_11h06.12.810,task,2021.1.4,Win32,60.0240096,6299f149e92ead563fba08ef,62a45aa71aae361cb741fd62,,,,,,,,,,,,,,,,,,,,,,,,,,,,,,,,,,,,,,,,,,,,,,,,,,,,,,,,,,,,,,,,,,,,,,,,,,,,,,,,,,,,,,,,,,,,"[""period""]",0,[1.106000000000222],2,0,2,0,1,,
,,,,,,,,,,,,5f0214e58782120a8c970fd6,33,Kobieta,2022-06-11_11h06.12.810,task,2021.1.4,Win32,60.0240096,6299f149e92ead563fba08ef,62a45aa71aae361cb741fd62,,,,,,,,,,,,,,,,,,,,,,,,,,,,,,,,,,,,,,,,,,,,,,,,,,,,,,,,,,,,,,,,,,,,,,,,,,,,,,,,,,,,,,,,,,,,"[""period""]",0,[0.7330000000001746],3,0,3,0,1,,
,,,,,,,,,,,,5f0214e58782120a8c970fd6,33,Kobieta,2022-06-11_11h06.12.810,task,2021.1.4,Win32,60.0240096,6299f149e92ead563fba08ef,62a45aa71aae361cb741fd62,,,,,,,,,,,,,,,,,,,,,,,,,,,,,,,,,,,,,,,,,,,,,,,,,,,,,,,,,,,,,,,,,,,,,,,,,,,,,,,,,,,,,,,,,,,,"[""period""]",0,[0.6310000000000855],4,0,4,0,1,,
,,,,,,,,,,,,5f0214e58782120a8c970fd6,33,Kobieta,2022-06-11_11h06.12.810,task,2021.1.4,Win32,60.0240096,6299f149e92ead563fba08ef,62a45aa71aae361cb741fd62,,,,,,,,,,,,,,,,,,,,,,,,,,,,,,,,,,,,,,,,,,,,,,,,,,,,,,,,,,,,,,,,,,,,,,,,,,,,,,,,,,,,,,,,,,,,"[""comma""]",0,[0.4919999999999618],5,0,5,0,1,,
,,,,,,,,,,,,5f0214e58782120a8c970fd6,33,Kobieta,2022-06-11_11h06.12.810,task,2021.1.4,Win32,60.0240096,6299f149e92ead563fba08ef,62a45aa71aae361cb741fd62,,,,,,,,,,,,,,,,,,,,,,,,,,,,,,,,,,,,,,,,,,,,,,,,,,,,,,,,,,,,,,,,,,,,,,,,,,,,,,,,,,,,,,,,,,,,"[""comma""]",0,[0.44899999999984175],6,0,6,0,1,,
,,,,,,,,,,,,5f0214e58782120a8c970fd6,33,Kobieta,2022-06-11_11h06.12.810,task,2021.1.4,Win32,60.0240096,6299f149e92ead563fba08ef,62a45aa71aae361cb741fd62,,,,,,,,,,,,,,,,,,,,,,,,,,,,,,,,,,,,,,,,,,,,,,,,,,,,,,,,,,,,,,,,,,,,,,,,,,,,,,,,,,,,,,,,,,,,"[""comma""]",0,[0.6140000000000327],7,0,7,0,1,,
,,,,,,,,,,,,5f0214e58782120a8c970fd6,33,Kobieta,2022-06-11_11h06.12.810,task,2021.1.4,Win32,60.0240096,6299f149e92ead563fba08ef,62a45aa71aae361cb741fd62,,,,,,,,,,,,,,,,,,,,,,,,,,,,,,,,,,,,,,,,,,,,,,,,,,,,,,,,,,,,,,,,,,,,,,,,,,,,,,,,,,,,,,,,,,,,"[""period""]",0,[0.5709999999999127],8,0,8,0,1,,
,,,,,,,,,,,,5f0214e58782120a8c970fd6,33,Kobieta,2022-06-11_11h06.12.810,task,2021.1.4,Win32,60.0240096,6299f149e92ead563fba08ef,62a45aa71aae361cb741fd62,,,,,,,,,,,,,,,,,,,,,,,,,,,,,,,,,,,,,,,,,,,,,,,,,,,,,,,,,,,,,,,,,,,,,,,,,,,,,,,,,,,,,,,,,,,,"[""comma""]",0,[0.43200000000001637],9,0,9,0,1,,
,,,,,,,,,,,,5f0214e58782120a8c970fd6,33,Kobieta,2022-06-11_11h06.12.810,task,2021.1.4,Win32,60.0240096,6299f149e92ead563fba08ef,62a45aa71aae361cb741fd62,,,,,,,,,,,,,,,,,,,,,,,,,,,,,,,,,,,,,,,,,,,,,,,,,,,,,,,,,,,,,,,,,,,,,,,,,,,,,,,,,,,,,,,,,,,,"[""period""]",0,[0.3330000000000837],10,0,10,0,1,,
,,,,,,,,,,,,5f0214e58782120a8c970fd6,33,Kobieta,2022-06-11_11h06.12.810,task,2021.1.4,Win32,60.0240096,6299f149e92ead563fba08ef,62a45aa71aae361cb741fd62,,,,,,,,,,,,,,,,,,,,,,,,,,,,,,,,,,,,,,,,,,,,,,,,,,,,,,,,,,,,,,,,,,,,,,,,,,,,,,,,,,,,,,,,,,,,"[""period""]",0,[0.46499999999991815],11,0,11,0,1,,
,,,,,,,,,,,,5f0214e58782120a8c970fd6,33,Kobieta,2022-06-11_11h06.12.810,task,2021.1.4,Win32,60.0240096,6299f149e92ead563fba08ef,62a45aa71aae361cb741fd62,,,,,,,,,,,,,,,,,,,,,,,,,,,,,,,,,,,,,,,,,,,,,,,,,,,,,,,,,,,,,,,,,,,,,,,,,,,,,,,,,,,,,,,,,,,,"[""comma""]",0,[0.41399999999998727],12,0,12,0,1,,
,,,,,,,,,,,,5f0214e58782120a8c970fd6,33,Kobieta,2022-06-11_11h06.12.810,task,2021.1.4,Win32,60.0240096,6299f149e92ead563fba08ef,62a45aa71aae361cb741fd62,,,,,,,,,,,,,,,,,,,,,,,,,,,,,,,,,,,,,,,,,,,,,,,,,,,,,,,,,,,,,,,,,,,,,,,,,,,,,,,,,,,,,,,,,,,,"[""comma""]",0,[0.5339999999998781],13,0,13,0,1,,
,,,,,,,,,,,,5f0214e58782120a8c970fd6,33,Kobieta,2022-06-11_11h06.12.810,task,2021.1.4,Win32,60.0240096,6299f149e92ead563fba08ef,62a45aa71aae361cb741fd62,,,,,,,,,,,,,,,,,,,,,,,,,,,,,,,,,,,,,,,,,,,,,,,,,,,,,,,,,,,,,,,,,,,,,,,,,,,,,,,,,,,,,,,,,,,,"[""comma""]",0,[0.5649999999998272],14,0,14,0,1,,
,,,,,,,,,,,,5f0214e58782120a8c970fd6,33,Kobieta,2022-06-11_11h06.12.810,task,2021.1.4,Win32,60.0240096,6299f149e92ead563fba08ef,62a45aa71aae361cb741fd62,,,,,,,,,,,,,,,,,,,,,,,,,,,,,,,,,,,,,,,,,,,,,,,,,,,,,,,,,,,,,,,,,,,,,,,,,,,,,,,,,,,,,,,,,,,,"[""period""]",0,[0.5879999999999654],15,0,15,0,1,,
,,,,,,,,,,,,5f0214e58782120a8c970fd6,33,Kobieta,2022-06-11_11h06.12.810,task,2021.1.4,Win32,60.0240096,6299f149e92ead563fba08ef,62a45aa71aae361cb741fd62,,,,,,,,,,,,,,,,,,,,,,,,,,,,,,,,,,,,,,,,,,,,,,,,,,,,,,,,,,,,,,,,,,,,,,,,,,,,,,,,,,,,,,,,,,,,"[""period""]",0,[0.33400000000006],16,0,16,0,1,,
,,,,,,,,,,,,5f0214e58782120a8c970fd6,33,Kobieta,2022-06-11_11h06.12.810,task,2021.1.4,Win32,60.0240096,6299f149e92ead563fba08ef,62a45aa71aae361cb741fd62,,,,,,,,,,,,,,,,,,,,,,,,,,,,,,,,,,,,,,,,,,,,,,,,,,,,,,,,,,,,,,,,,,,,,,,,,,,,,,,,,,,,,,,,,,,,"[""comma""]",0,[0.2400000000000091],17,0,17,0,1,,
,,,,,,,,,,,,5f0214e58782120a8c970fd6,33,Kobieta,2022-06-11_11h06.12.810,task,2021.1.4,Win32,60.0240096,6299f149e92ead563fba08ef,62a45aa71aae361cb741fd62,,,,,,,,,,,,,,,,,,,,,,,,,,,,,,,,,,,,,,,,,,,,,,,,,,,,,,,,,,,,,,,,,,,,,,,,,,,,,,,,,,,,,,,,,,,,"[""period""]",0,[0.06799999999998363],18,0,18,0,1,,
,,,,,,,,,,,,5f0214e58782120a8c970fd6,33,Kobieta,2022-06-11_11h06.12.810,task,2021.1.4,Win32,60.0240096,6299f149e92ead563fba08ef,62a45aa71aae361cb741fd62,,,,,,,,,,,,,,,,,,,,,,,,,,,,,,,,,,,,,,,,,,,,,,,,,,,,,,,,,,,,,,,,,,,,,,,,,,,,,,,,,,,,,,,,,,,,"[""period""]",0,[0.2960000000000491],19,0,19,0,1,,
,,,,,,,,,,,,5f0214e58782120a8c970fd6,33,Kobieta,2022-06-11_11h06.12.810,task,2021.1.4,Win32,60.0240096,6299f149e92ead563fba08ef,62a45aa71aae361cb741fd62,,,,,,,,,,,,,,,,,,,,,,,,,,,,,,,,,,,,,,,,,,,,,,,,,,,,,,,,,,,,,,,,,,,,,,,,,,,,,,,,,,,,,,,,,,,,"[""comma""]",0,[0.40300000000002],20,0,20,0,1,,
,,,,,,,,,,,,5f0214e58782120a8c970fd6,33,Kobieta,2022-06-11_11h06.12.810,task,2021.1.4,Win32,60.0240096,6299f149e92ead563fba08ef,62a45aa71aae361cb741fd62,,,,,,,,,,,,,,,,,,,,,,,,,,,,,,,,,,,,,,,,,,,,,,,,,,,,,,,,,,,,,,,,,,,,,,,,,,,,,,,,,,,,,,,,,,,,"[""comma""]",0,[0.23299999999994725],21,0,21,0,1,,
,,,,,,,,,,,,5f0214e58782120a8c970fd6,33,Kobieta,2022-06-11_11h06.12.810,task,2021.1.4,Win32,60.0240096,6299f149e92ead563fba08ef,62a45aa71aae361cb741fd62,,,,,,,,,,,,,,,,,,,,,,,,,,,,,,,,,,,,,,,,,,,,,,,,,,,,,,,,,,,,,,,,,,,,,,,,,,,,,,,,,,,,,,,,,,,,"[""comma""]",0,[0.23300000000017462],22,0,22,0,1,,
,,,,,,,,,,,,5f0214e58782120a8c970fd6,33,Kobieta,2022-06-11_11h06.12.810,task,2021.1.4,Win32,60.0240096,6299f149e92ead563fba08ef,62a45aa71aae361cb741fd62,,,,,,,,,,,,,,,,,,,,,,,,,,,,,,,,,,,,,,,,,,,,,,,,,,,,,,,,,,,,,,,,,,,,,,,,,,,,,,,,,,,,,,,,,,,,"[""period""]",0,[0.3209999999999127],23,0,23,0,1,,
,,,,,,,,,,,,5f0214e58782120a8c970fd6,33,Kobieta,2022-06-11_11h06.12.810,task,2021.1.4,Win32,60.0240096,6299f149e92ead563fba08ef,62a45aa71aae361cb741fd62,,,,,,,,,,,,,,,,,,,,,,,,,,,,,,,,,,,,,,,,,,,,,,,,,,,,,,,,,,,,,,,,,,,,,,,,,,,,,,,,,,,,,,,,,,,,"[""period""]",0,[0.5009999999999764],24,0,24,0,1,,
,,,,,,,,,,,,5f0214e58782120a8c970fd6,33,Kobieta,2022-06-11_11h06.12.810,task,2021.1.4,Win32,60.0240096,6299f149e92ead563fba08ef,62a45aa71aae361cb741fd62,,,,,,,,,,,,,,,,,,,,,,,,,,,,,,,,,,,,,,,,,,,,,,,,,,,,,,,,,,,,,,,,,,,,,,,,,,,,,,,,,,,,,,,,,,,,"[""period""]",0,[0.7889999999999873],25,0,25,0,1,,
,,,,,,,,,,,,5f0214e58782120a8c970fd6,33,Kobieta,2022-06-11_11h06.12.810,task,2021.1.4,Win32,60.0240096,6299f149e92ead563fba08ef,62a45aa71aae361cb741fd62,,,,,,,,,,,,,,,,,,,,,,,,,,,,,,,,,,,,,,,,,,,,,,,,,,,,,,,,,,,,,,,,,,,,,,,,,,,,,,,,,,,,,,,,,,,,"[""period""]",0,[0.7449999999998909],26,0,26,0,1,,
,,,,,,,,,,,,5f0214e58782120a8c970fd6,33,Kobieta,2022-06-11_11h06.12.810,task,2021.1.4,Win32,60.0240096,6299f149e92ead563fba08ef,62a45aa71aae361cb741fd62,,,,,,,,,,,,,,,,,,,,,,,,,,,,,,,,,,,,,,,,,,,,,,,,,,,,,,,,,,,,,,,,,,,,,,,,,,,,,,,,,,,,,,,,,,,,"[""period""]",0,[0.72199999999998],27,0,27,0,1,,
,,,,,,,,,,,,5f0214e58782120a8c970fd6,33,Kobieta,2022-06-11_11h06.12.810,task,2021.1.4,Win32,60.0240096,6299f149e92ead563fba08ef,62a45aa71aae361cb741fd62,,,,,,,,,,,,,,,,,,,,,,,,,,,,,,,,,,,,,,,,,,,,,,,,,,,,,,,,,,,,,,,,,,,,,,,,,,,,,,,,,,,,,,,,,,,,"[""comma""]",0,[0.47700000000008913],28,0,28,0,1,,
,,,,,,,,,,,,5f0214e58782120a8c970fd6,33,Kobieta,2022-06-11_11h06.12.810,task,2021.1.4,Win32,60.0240096,6299f149e92ead563fba08ef,62a45aa71aae361cb741fd62,,,,,,,,,,,,,,,,,,,,,,,,,,,,,,,,,,,,,,,,,,,,,,,,,,,,,,,,,,,,,,,,,,,,,,,,,,,,,,,,,,,,,,,,,,,,"[""comma""]",0,[0.41899999999986903],29,0,29,0,1,,
,,,,,,,,,,,,5f0214e58782120a8c970fd6,33,Kobieta,2022-06-11_11h06.12.810,task,2021.1.4,Win32,60.0240096,6299f149e92ead563fba08ef,62a45aa71aae361cb741fd62,,,,,,,,,,,,,,,,,,,,,,,,,,,,,,,,,,,,,,,,,,,,,,,,,,,,,,,,,,,,,,,,,,,,,,,,,,,,,,,,,,,,,,,,,,,,"[""comma""]",0,[0.40300000000002],30,0,30,0,1,,
,,,,,,,,,,,,5f0214e58782120a8c970fd6,33,Kobieta,2022-06-11_11h06.12.810,task,2021.1.4,Win32,60.0240096,6299f149e92ead563fba08ef,62a45aa71aae361cb741fd62,,,,,,,,,,,,,,,,,,,,,,,,,,,,,,,,,,,,,,,,,,,,,,,,,,,,,,,,,,,,,,,,,,,,,,,,,,,,,,,,,,,,,,,,,,,,"[""comma""]",0,[0.40200000000004366],31,0,31,0,1,,
,,,,,,,,,,,,5f0214e58782120a8c970fd6,33,Kobieta,2022-06-11_11h06.12.810,task,2021.1.4,Win32,60.0240096,6299f149e92ead563fba08ef,62a45aa71aae361cb741fd62,,,,,,,,,,,,,,,,,,,,,,,,,,,,,,,,,,,,,,,,,,,,,,,,,,,,,,,,,,,,,,,,,,,,,,,,,,,,,,,,,,,,,,,,,,,,"[""comma""]",0,[0.4090000000001055],32,0,32,0,1,,
,,,,,,,,,,,,5f0214e58782120a8c970fd6,33,Kobieta,2022-06-11_11h06.12.810,task,2021.1.4,Win32,60.0240096,6299f149e92ead563fba08ef,62a45aa71aae361cb741fd62,,,,,,,,,,,,,,,,,,,,,,,,,,,,,,,,,,,,,,,,,,,,,,,,,,,,,,,,,,,,,,,,,,,,,,,,,,,,,,,,,,,,,,,,,,,,"[""comma""]",0,[0.3869999999999436],33,0,33,0,1,,
,,,,,,,,,,,,5f0214e58782120a8c970fd6,33,Kobieta,2022-06-11_11h06.12.810,task,2021.1.4,Win32,60.0240096,6299f149e92ead563fba08ef,62a45aa71aae361cb741fd62,,,,,,,,,,,,,,,,,,,,,,,,,,,,,,,,,,,,,,,,,,,,,,,,,,,,,,,,,,,,,,,,,,,,,,,,,,,,,,,,,,,,,,,,,,,,"[""comma""]",0,[0.38599999999996726],34,0,34,0,1,,
,,,,,,,,,,,,5f0214e58782120a8c970fd6,33,Kobieta,2022-06-11_11h06.12.810,task,2021.1.4,Win32,60.0240096,6299f149e92ead563fba08ef,62a45aa71aae361cb741fd62,,,,,,,,,,,,,,,,,,,,,,,,,,,,,,,,,,,,,,,,,,,,,,,,,,,,,,,,,,,,,,,,,,,,,,,,,,,,,,,,,,,,,,,,,,,,"[""period""]",0,[0.3710000000000946],35,0,35,0,1,,
,,,,,,,,,,,,5f0214e58782120a8c970fd6,33,Kobieta,2022-06-11_11h06.12.810,task,2021.1.4,Win32,60.0240096,6299f149e92ead563fba08ef,62a45aa71aae361cb741fd62,,,,,,,,,,,,,,,,,,,,,,,,,,,,,,,,,,,,,,,,,,,,,,,,,,,,,,,,,,,,,,,,,,,,,,,,,,,,,,,,,,,,,,,,,,,,"[""period""]",0,[0.34999999999990905],36,0,36,0,1,,
,,,,,,,,,,,,5f0214e58782120a8c970fd6,33,Kobieta,2022-06-11_11h06.12.810,task,2021.1.4,Win32,60.0240096,6299f149e92ead563fba08ef,62a45aa71aae361cb741fd62,,,,,,,,,,,,,,,,,,,,,,,,,,,,,,,,,,,,,,,,,,,,,,,,,,,,,,,,,,,,,,,,,,,,,,,,,,,,,,,,,,,,,,,,,,,,"[""period""]",0,[0.3889999999998963],37,0,37,0,1,,
,,,,,,,,,,,,5f0214e58782120a8c970fd6,33,Kobieta,2022-06-11_11h06.12.810,task,2021.1.4,Win32,60.0240096,6299f149e92ead563fba08ef,62a45aa71aae361cb741fd62,,,,,,,,,,,,,,,,,,,,,,,,,,,,,,,,,,,,,,,,,,,,,,,,,,,,,,,,,,,,,,,,,,,,,,,,,,,,,,,,,,,,,,,,,,,,"[""comma""]",0,[0.37599999999997635],38,0,38,0,1,,
,,,,,,,,,,,,5f0214e58782120a8c970fd6,33,Kobieta,2022-06-11_11h06.12.810,task,2021.1.4,Win32,60.0240096,6299f149e92ead563fba08ef,62a45aa71aae361cb741fd62,,,,,,,,,,,,,,,,,,,,,,,,,,,,,,,,,,,,,,,,,,,,,,,,,,,,,,,,,,,,,,,,,,,,,,,,,,,,,,,,,,,,,,,,,,,,"[""comma""]",0,[0.375],39,0,39,0,1,,
,,,,,,,,,,,,5f0214e58782120a8c970fd6,33,Kobieta,2022-06-11_11h06.12.810,task,2021.1.4,Win32,60.0240096,6299f149e92ead563fba08ef,62a45aa71aae361cb741fd62,,,,,,,,,,,,,,,,,,,,,,,,,,,,,,,,,,,,,,,,,,,,,,,,,,,,,,,,,,,,,,,,,,,,,,,,,,,,,,,,,,,,,,,,,,,,"[""period""]",0,[0.49099999999998545],40,0,40,0,1,,
,,,,,,,,,,,,5f0214e58782120a8c970fd6,33,Kobieta,2022-06-11_11h06.12.810,task,2021.1.4,Win32,60.0240096,6299f149e92ead563fba08ef,62a45aa71aae361cb741fd62,,,,,,,,,,,,,,,,,,,,,,,,,,,,,,,,,,,,,,,,,,,,,,,,,,,,,,,,,,,,,,,,,,,,,,,,,,,,,,,,,,,,,,,,,,,,"[""period""]",0,[0.3849999999999909],41,0,41,0,1,,
,,,,,,,,,,,,5f0214e58782120a8c970fd6,33,Kobieta,2022-06-11_11h06.12.810,task,2021.1.4,Win32,60.0240096,6299f149e92ead563fba08ef,62a45aa71aae361cb741fd62,,,,,,,,,,,,,,,,,,,,,,,,,,,,,,,,,,,,,,,,,,,,,,,,,,,,,,,,,,,,,,,,,,,,,,,,,,,,,,,,,,,,,,,,,,,,"[""period""]",0,[0.4170000000001437],42,0,42,0,1,,
,,,,,,,,,,,,5f0214e58782120a8c970fd6,33,Kobieta,2022-06-11_11h06.12.810,task,2021.1.4,Win32,60.0240096,6299f149e92ead563fba08ef,62a45aa71aae361cb741fd62,,,,,,,,,,,,,,,,,,,,,,,,,,,,,,,,,,,,,,,,,,,,,,,,,,,,,,,,,,,,,,,,,,,,,,,,,,,,,,,,,,,,,,,,,,,,"[""period""]",0,[0.4819999999999709],43,0,43,0,1,,
,,,,,,,,,,,,5f0214e58782120a8c970fd6,33,Kobieta,2022-06-11_11h06.12.810,task,2021.1.4,Win32,60.0240096,6299f149e92ead563fba08ef,62a45aa71aae361cb741fd62,,,,,,,,,,,,,,,,,,,,,,,,,,,,,,,,,,,,,,,,,,,,,,,,,,,,,,,,,,,,,,,,,,,,,,,,,,,,,,,,,,,,,,,,,,,,"[""comma""]",0,[0.38599999999996726],44,0,44,0,1,,
,,,,,,,,,,,,5f0214e58782120a8c970fd6,33,Kobieta,2022-06-11_11h06.12.810,task,2021.1.4,Win32,60.0240096,6299f149e92ead563fba08ef,62a45aa71aae361cb741fd62,,,,,,,,,,,,,,,,,,,,,,,,,,,,,,,,,,,,,,,,,,,,,,,,,,,,,,,,,,,,,,,,,,,,,,,,,,,,,,,,,,,,,,,,,,,,"[""comma""]",0,[0.33400000000006],45,0,45,0,1,,
,,,,,,,,,,,,5f0214e58782120a8c970fd6,33,Kobieta,2022-06-11_11h06.12.810,task,2021.1.4,Win32,60.0240096,6299f149e92ead563fba08ef,62a45aa71aae361cb741fd62,,,,,,,,,,,,,,,,,,,,,,,,,,,,,,,,,,,,,,,,,,,,,,,,,,,,,,,,,,,,,,,,,,,,,,,,,,,,,,,,,,,,,,,,,,,,"[""period""]",0,[0.4329999999999927],46,0,46,0,1,,
,,,,,,,,,,,,5f0214e58782120a8c970fd6,33,Kobieta,2022-06-11_11h06.12.810,task,2021.1.4,Win32,60.0240096,6299f149e92ead563fba08ef,62a45aa71aae361cb741fd62,,,,,,,,,,,,,,,,,,,,,,,,,,,,,,,,,,,,,,,,,,,,,,,,,,,,,,,,,,,,,,,,,,,,,,,,,,,,,,,,,,,,,,,,,,,,"[""period""]",0,[0.40600000000017644],47,0,47,0,1,,
,,,,,,,,,,,,5f0214e58782120a8c970fd6,33,Kobieta,2022-06-11_11h06.12.810,task,2021.1.4,Win32,60.0240096,6299f149e92ead563fba08ef,62a45aa71aae361cb741fd62,,,,,,,,,,,,,,,,,,,,,,,,,,,,,,,,,,,,,,,,,,,,,,,,,,,,,,,,,,,,,,,,,,,,,,,,,,,,,,,,,,,,,,,,,,,,"[""comma""]",0,[0.47099999999977626],48,0,48,0,1,,
,,,,,,,,,,,,5f0214e58782120a8c970fd6,33,Kobieta,2022-06-11_11h06.12.810,task,2021.1.4,Win32,60.0240096,6299f149e92ead563fba08ef,62a45aa71aae361cb741fd62,,,,,,,,,,,,,,,,,,,,,,,,,,,,,,,,,,,,,,,,,,,,,,,,,,,,,,,,,,,,,,,,,,,,,,,,,,,,,,,,,,,,,,,,,,,,"[""comma""]",0,[0.650000000000091],49,0,49,0,1,,
,,,,,,,,,,,,5f0214e58782120a8c970fd6,33,Kobieta,2022-06-11_11h06.12.810,task,2021.1.4,Win32,60.0240096,6299f149e92ead563fba08ef,62a45aa71aae361cb741fd62,,,,,,,,,,,,,,,,,,,,,,,,,,,,,,,,,,,,,,,,,,,,,,,,,,,,,,,,,,,,,,,,,,,,,,,,,,,,,,,,,,,,,,,,,,,,"[""period""]",0,[0.6549999999999727],50,0,50,0,1,,
,,,,,,,,,,,,5f0214e58782120a8c970fd6,33,Kobieta,2022-06-11_11h06.12.810,task,2021.1.4,Win32,60.0240096,6299f149e92ead563fba08ef,62a45aa71aae361cb741fd62,,,,,,,,,,,,,,,,,,,,,,,,,,,,,,,,,,,,,,,,,,,,,,,,,,,,,,,,,,,,,,,,,,,,,,,,,,,,,,,,,,,,,,,,,,,,"[""comma""]",0,[0.8150000000000546],51,0,51,0,1,,
,,,,,,,,,,,,5f0214e58782120a8c970fd6,33,Kobieta,2022-06-11_11h06.12.810,task,2021.1.4,Win32,60.0240096,6299f149e92ead563fba08ef,62a45aa71aae361cb741fd62,,,,,,,,,,,,,,,,,,,,,,,,,,,,,,,,,,,,,,,,,,,,,,,,,,,,,,,,,,,,,,,,,,,,,,,,,,,,,,,,,,,,,,,,,,,,"[""comma""]",0,[0.4679999999998472],52,0,52,0,1,,
,,,,,,,,,,,,5f0214e58782120a8c970fd6,33,Kobieta,2022-06-11_11h06.12.810,task,2021.1.4,Win32,60.0240096,6299f149e92ead563fba08ef,62a45aa71aae361cb741fd62,,,,,,,,,,,,,,,,,,,,,,,,,,,,,,,,,,,,,,,,,,,,,,,,,,,,,,,,,,,,,,,,,,,,,,,,,,,,,,,,,,,,,,,,,,,,"[""comma""]",0,[0.3530000000000655],53,0,53,0,1,,
,,,,,,,,,,,,5f0214e58782120a8c970fd6,33,Kobieta,2022-06-11_11h06.12.810,task,2021.1.4,Win32,60.0240096,6299f149e92ead563fba08ef,62a45aa71aae361cb741fd62,,,,,,,,,,,,,,,,,,,,,,,,,,,,,,,,,,,,,,,,,,,,,,,,,,,,,,,,,,,,,,,,,,,,,,,,,,,,,,,,,,,,,,,,,,,,"[""period""]",0,[0.6039999999998145],54,0,54,0,1,,
,,,,,,,,,,,,5f0214e58782120a8c970fd6,33,Kobieta,2022-06-11_11h06.12.810,task,2021.1.4,Win32,60.0240096,6299f149e92ead563fba08ef,62a45aa71aae361cb741fd62,,,,,,,,,,,,,,,,,,,,,,,,,,,,,,,,,,,,,,,,,,,,,,,,,,,,,,,,,,,,,,,,,,,,,,,,,,,,,,,,,,,,,,,,,,,,"[""period""]",0,[0.5340000000001055],55,0,55,0,1,,
,,,,,,,,,,,,5f0214e58782120a8c970fd6,33,Kobieta,2022-06-11_11h06.12.810,task,2021.1.4,Win32,60.0240096,6299f149e92ead563fba08ef,62a45aa71aae361cb741fd62,,,,,,,,,,,,,,,,,,,,,,,,,,,,,,,,,,,,,,,,,,,,,,,,,,,,,,,,,,,,,,,,,,,,,,,,,,,,,,,,,,,,,,,,,,,,"[""period""]",0,[0.61200000000008],56,0,56,0,1,,
,,,,,,,,,,,,5f0214e58782120a8c970fd6,33,Kobieta,2022-06-11_11h06.12.810,task,2021.1.4,Win32,60.0240096,6299f149e92ead563fba08ef,62a45aa71aae361cb741fd62,,,,,,,,,,,,,,,,,,,,,,,,,,,,,,,,,,,,,,,,,,,,,,,,,,,,,,,,,,,,,,,,,,,,,,,,,,,,,,,,,,,,,,,,,,,,"[""period""]",0,[0.6150000000000091],57,0,57,0,1,,
,,,,,,,,,,,,5f0214e58782120a8c970fd6,33,Kobieta,2022-06-11_11h06.12.810,task,2021.1.4,Win32,60.0240096,6299f149e92ead563fba08ef,62a45aa71aae361cb741fd62,,,,,,,,,,,,,,,,,,,,,,,,,,,,,,,,,,,,,,,,,,,,,,,,,,,,,,,,,,,,,,,,,,,,,,,,,,,,,,,,,,,,,,,,,,,,"[""period""]",0,[0.5360000000000582],58,0,58,0,1,,
,,,,,,,,,,,,5f0214e58782120a8c970fd6,33,Kobieta,2022-06-11_11h06.12.810,task,2021.1.4,Win32,60.0240096,6299f149e92ead563fba08ef,62a45aa71aae361cb741fd62,,,,,,,,,,,,,,,,,,,,,,,,,,,,,,,,,,,,,,,,,,,,,,,,,,,,,,,,,,,,,,,,,,,,,,,,,,,,,,,,,,,,,,,,,,,,"[""comma""]",0,[0.4979999999998199],59,0,59,0,1,,
,,,,,,,,,,,,5f0214e58782120a8c970fd6,33,Kobieta,2022-06-11_11h06.12.810,task,2021.1.4,Win32,60.0240096,6299f149e92ead563fba08ef,62a45aa71aae361cb741fd62,,,,,,,,,,,,,,,,,,,,,,,,,,,,,,,,,,,,,,,,,,,,,,,,,,,,,,,,,,,,,,,,,,,,,,,,,,,,,,,,,,,,,,,,,,,,"[""comma""]",0,[0.3160000000000309],60,0,60,0,1,,
,,,,,,,,,,,,5f0214e58782120a8c970fd6,33,Kobieta,2022-06-11_11h06.12.810,task,2021.1.4,Win32,60.0240096,6299f149e92ead563fba08ef,62a45aa71aae361cb741fd62,,,,,,,,,,,,,,,,,,,,,,,,,,,,,,,,,,,,,,,,,,,,,,,,,,,,,,,,,,,,,,,,,,,,,,,,,,,,,,,,,,,,,,,,,,,,"[""comma""]",0,[0.4130000000000109],61,0,61,0,1,,
,,,,,,,,,,,,5f0214e58782120a8c970fd6,33,Kobieta,2022-06-11_11h06.12.810,task,2021.1.4,Win32,60.0240096,6299f149e92ead563fba08ef,62a45aa71aae361cb741fd62,,,,,,,,,,,,,,,,,,,,,,,,,,,,,,,,,,,,,,,,,,,,,,,,,,,,,,,,,,,,,,,,,,,,,,,,,,,,,,,,,,,,,,,,,,,,"[""comma""]",0,[0.33199999999987995],62,0,62,0,1,,
,,,,,,,,,,,,5f0214e58782120a8c970fd6,33,Kobieta,2022-06-11_11h06.12.810,task,2021.1.4,Win32,60.0240096,6299f149e92ead563fba08ef,62a45aa71aae361cb741fd62,,,,,,,,,,,,,,,,,,,,,,,,,,,,,,,,,,,,,,,,,,,,,,,,,,,,,,,,,,,,,,,,,,,,,,,,,,,,,,,,,,,,,,,,,,,,"[""period""]",0,[0.3049999999998363],63,0,63,0,1,,
,,,,,,,,,,,,5f0214e58782120a8c970fd6,33,Kobieta,2022-06-11_11h06.12.810,task,2021.1.4,Win32,60.0240096,6299f149e92ead563fba08ef,62a45aa71aae361cb741fd62,,,,,,,,,,,,,,,,,,,,,,,,,,,,,,,,,,,,,,,,,,,,,,,,,,,,,,,,,,,,,,,,,,,,,,,,,,,,,,,,,,,,,,,,,,,,"[""period"",""period""]",0,"[0.43699999999989814,1.8179999999999836]",64,0,64,0,1,,
,,,,,,,,,,,,5f0214e58782120a8c970fd6,33,Kobieta,2022-06-11_11h06.12.810,task,2021.1.4,Win32,60.0240096,6299f149e92ead563fba08ef,62a45aa71aae361cb741fd62,,,,,,,,,,,,,,,,,,,,,,,,,,,,,,,,,,,,,,,,,,,,,,,,,,,,,,,,,,,,,,,,,,,,,,,,,,,,,,,,,,,,,,,,,,,,,0,,65,0,65,0,1,,
,,,,,,,,,,,,5f0214e58782120a8c970fd6,33,Kobieta,2022-06-11_11h06.12.810,task,2021.1.4,Win32,60.0240096,6299f149e92ead563fba08ef,62a45aa71aae361cb741fd62,,,,,,,,,,,,,,,,,,,,,,,,,,,,,,,,,,,,,,,,,,,,,,,,,,,,,,,,,,,,,,,,,,,,,,,,,,,,,,,,,,,,,,,,,,,,"[""comma""]",0,[0.2599999999999909],66,0,66,0,1,,
,,,,,,,,,,,,5f0214e58782120a8c970fd6,33,Kobieta,2022-06-11_11h06.12.810,task,2021.1.4,Win32,60.0240096,6299f149e92ead563fba08ef,62a45aa71aae361cb741fd62,,,,,,,,,,,,,,,,,,,,,,,,,,,,,,,,,,,,,,,,,,,,,,,,,,,,,,,,,,,,,,,,,,,,,,,,,,,,,,,,,,,,,,,,,,,,"[""comma""]",0,[0.5890000000001692],67,0,67,0,1,,
,,,,,,,,,,,,5f0214e58782120a8c970fd6,33,Kobieta,2022-06-11_11h06.12.810,task,2021.1.4,Win32,60.0240096,6299f149e92ead563fba08ef,62a45aa71aae361cb741fd62,,,,,,,,,,,,,,,,,,,,,,,,,,,,,,,,,,,,,,,,,,,,,,,,,,,,,,,,,,,,,,,,,,,,,,,,,,,,,,,,,,,,,,,,,,,,"[""comma""]",0,[0.4519999999999982],68,0,68,0,1,,
,,,,,,,,,,,,5f0214e58782120a8c970fd6,33,Kobieta,2022-06-11_11h06.12.810,task,2021.1.4,Win32,60.0240096,6299f149e92ead563fba08ef,62a45aa71aae361cb741fd62,,,,,,,,,,,,,,,,,,,,,,,,,,,,,,,,,,,,,,,,,,,,,,,,,,,,,,,,,,,,,,,,,,,,,,,,,,,,,,,,,,,,,,,,,,,,"[""comma""]",0,[0.6489999999998872],69,0,69,0,1,,
,,,,,,,,,,,,5f0214e58782120a8c970fd6,33,Kobieta,2022-06-11_11h06.12.810,task,2021.1.4,Win32,60.0240096,6299f149e92ead563fba08ef,62a45aa71aae361cb741fd62,,,,,,,,,,,,,,,,,,,,,,,,,,,,,,,,,,,,,,,,,,,,,,,,,,,,,,,,,,,,,,,,,,,,,,,,,,,,,,,,,,,,,,,,,,,,"[""comma""]",0,[0.46299999999996544],70,0,70,0,1,,
,,,,,,,,,,,,5f0214e58782120a8c970fd6,33,Kobieta,2022-06-11_11h06.12.810,task,2021.1.4,Win32,60.0240096,6299f149e92ead563fba08ef,62a45aa71aae361cb741fd62,,,,,,,,,,,,,,,,,,,,,,,,,,,,,,,,,,,,,,,,,,,,,,,,,,,,,,,,,,,,,,,,,,,,,,,,,,,,,,,,,,,,,,,,,,,,"[""comma""]",0,[0.5839999999998327],71,0,71,0,1,,
,,,,,,,,,,,,5f0214e58782120a8c970fd6,33,Kobieta,2022-06-11_11h06.12.810,task,2021.1.4,Win32,60.0240096,6299f149e92ead563fba08ef,62a45aa71aae361cb741fd62,,,,,,,,,,,,,,,,,,,,,,,,,,,,,,,,,,,,,,,,,,,,,,,,,,,,,,,,,,,,,,,,,,,,,,,,,,,,,,,,,,,,,,,,,,,,"[""period""]",0,[0.31999999999993634],72,0,72,0,1,,
,,,,,,,,,,,,5f0214e58782120a8c970fd6,33,Kobieta,2022-06-11_11h06.12.810,task,2021.1.4,Win32,60.0240096,6299f149e92ead563fba08ef,62a45aa71aae361cb741fd62,,,,,,,,,,,,,,,,,,,,,,,,,,,,,,,,,,,,,,,,,,,,,,,,,,,,,,,,,,,,,,,,,,,,,,,,,,,,,,,,,,,,,,,,,,,,"[""period""]",0,[0.2960000000000491],73,0,73,0,1,,
,,,,,,,,,,,,5f0214e58782120a8c970fd6,33,Kobieta,2022-06-11_11h06.12.810,task,2021.1.4,Win32,60.0240096,6299f149e92ead563fba08ef,62a45aa71aae361cb741fd62,,,,,,,,,,,,,,,,,,,,,,,,,,,,,,,,,,,,,,,,,,,,,,,,,,,,,,,,,,,,,,,,,,,,,,,,,,,,,,,,,,,,,,,,,,,,"[""comma""]",0,[0.2130000000001928],74,0,74,0,1,,
,,,,,,,,,,,,5f0214e58782120a8c970fd6,33,Kobieta,2022-06-11_11h06.12.810,task,2021.1.4,Win32,60.0240096,6299f149e92ead563fba08ef,62a45aa71aae361cb741fd62,,,,,,,,,,,,,,,,,,,,,,,,,,,,,,,,,,,,,,,,,,,,,,,,,,,,,,,,,,,,,,,,,,,,,,,,,,,,,,,,,,,,,,,,,,,,"[""period"",""period""]",0,"[0.12299999999981992,1.6209999999998672]",75,0,75,0,1,,
,,,,,,,,,,,,5f0214e58782120a8c970fd6,33,Kobieta,2022-06-11_11h06.12.810,task,2021.1.4,Win32,60.0240096,6299f149e92ead563fba08ef,62a45aa71aae361cb741fd62,,,,,,,,,,,,,,,,,,,,,,,,,,,,,,,,,,,,,,,,,,,,,,,,,,,,,,,,,,,,,,,,,,,,,,,,,,,,,,,,,,,,,,,,,,,,,0,,76,0,76,0,1,,
,,,,,,,,,,,,5f0214e58782120a8c970fd6,33,Kobieta,2022-06-11_11h06.12.810,task,2021.1.4,Win32,60.0240096,6299f149e92ead563fba08ef,62a45aa71aae361cb741fd62,,,,,,,,,,,,,,,,,,,,,,,,,,,,,,,,,,,,,,,,,,,,,,,,,,,,,,,,,,,,,,,,,,,,,,,,,,,,,,,,,,,,,,,,,,,,"[""comma""]",0,[0.2259999999998854],77,0,77,0,1,,
,,,,,,,,,,,,5f0214e58782120a8c970fd6,33,Kobieta,2022-06-11_11h06.12.810,task,2021.1.4,Win32,60.0240096,6299f149e92ead563fba08ef,62a45aa71aae361cb741fd62,,,,,,,,,,,,,,,,,,,,,,,,,,,,,,,,,,,,,,,,,,,,,,,,,,,,,,,,,,,,,,,,,,,,,,,,,,,,,,,,,,,,,,,,,,,,"[""period""]",0,[0.3250000000000455],78,0,78,0,1,,
,,,,,,,,,,,,5f0214e58782120a8c970fd6,33,Kobieta,2022-06-11_11h06.12.810,task,2021.1.4,Win32,60.0240096,6299f149e92ead563fba08ef,62a45aa71aae361cb741fd62,,,,,,,,,,,,,,,,,,,,,,,,,,,,,,,,,,,,,,,,,,,,,,,,,,,,,,,,,,,,,,,,,,,,,,,,,,,,,,,,,,,,,,,,,,,,"[""period""]",0,[0.3710000000000946],79,0,79,0,1,,
,,,,,,,,,,,,5f0214e58782120a8c970fd6,33,Kobieta,2022-06-11_11h06.12.810,task,2021.1.4,Win32,60.0240096,6299f149e92ead563fba08ef,62a45aa71aae361cb741fd62,,,,,,,,,,,,,,,,,,,,,,,,,,,,,,,,,,,,,,,,,,,,,,,,,,,,,,,,,,,,,,,,,,,,,,,,,,,,,,,,,,,,,,,,,,,,"[""period""]",0,[0.23900000000003274],80,0,80,0,1,,
,,,,,,,,,,,,5f0214e58782120a8c970fd6,33,Kobieta,2022-06-11_11h06.12.810,task,2021.1.4,Win32,60.0240096,6299f149e92ead563fba08ef,62a45aa71aae361cb741fd62,,,,,,,,,,,,,,,,,,,,,,,,,,,,,,,,,,,,,,,,,,,,,,,,,,,,,,,,,,,,,,,,,,,,,,,,,,,,,,,,,,,,,,,,,,,,"[""comma""]",0,[0.26300000000014734],81,0,81,0,1,,
,,,,,,,,,,,,5f0214e58782120a8c970fd6,33,Kobieta,2022-06-11_11h06.12.810,task,2021.1.4,Win32,60.0240096,6299f149e92ead563fba08ef,62a45aa71aae361cb741fd62,,,,,,,,,,,,,,,,,,,,,,,,,,,,,,,,,,,,,,,,,,,,,,,,,,,,,,,,,,,,,,,,,,,,,,,,,,,,,,,,,,,,,,,,,,,,"[""comma""]",0,[0.25700000000006185],82,0,82,0,1,,
