key_resp_15.keys,key_resp_15.rt,key_resp_16.keys,key_resp_16.rt,key_resp_4.keys,key_resp_4.rt,next_letter.thisRepN,next_letter.thisTrialN,next_letter.thisN,next_letter.thisIndex,next_letter.ran,letter,participant,Wiek*,Płeć,date,expName,psychopyVersion,OS,frameRate,study_id,session,simple_recall,key_resp_5.keys,key_resp_5.rt,simple_recall_corr,simple_recall_corrkeys,next_level.thisRepN,next_level.thisTrialN,next_level.thisN,next_level.thisIndex,next_level.ran,key_resp_2.keys,key_resp_2.rt,digit_answer,key_resp.keys,key_resp.corr,key_resp.rt,RT_list,next_equation.thisRepN,next_equation.thisTrialN,next_equation.thisN,next_equation.thisIndex,next_equation.ran,Task,Trial,Problem,Operation_answer,processing_score,sumRT,meanRT,sumdiff,sd,RT,key_resp_3.keys,key_resp_3.rt,repeat_practice.thisRepN,repeat_practice.thisTrialN,repeat_practice.thisN,repeat_practice.thisIndex,repeat_practice.ran,key_resp_6.keys,key_resp_6.rt,key_resp_11.keys,key_resp_11.corr,key_resp_11.rt,operation_correct,repeat_if_wrong_prac.thisRepN,repeat_if_wrong_prac.thisTrialN,repeat_if_wrong_prac.thisN,repeat_if_wrong_prac.thisIndex,repeat_if_wrong_prac.ran,span_size_prac.thisRepN,span_size_prac.thisTrialN,span_size_prac.thisN,span_size_prac.thisIndex,span_size_prac.ran,complex_recall_practice,key_resp_9.keys,key_resp_9.corr,key_resp_9.rt,complex_prac_corr,span_recall_prac.thisRepN,span_recall_prac.thisTrialN,span_recall_prac.thisN,span_recall_prac.thisIndex,span_recall_prac.ran,key_resp_10.keys,key_resp_10.rt,key_resp_7.keys,key_resp_7.corr,key_resp_7.rt,repeat_if_wrong.thisRepN,repeat_if_wrong.thisTrialN,repeat_if_wrong.thisN,repeat_if_wrong.thisIndex,repeat_if_wrong.ran,span_size.thisRepN,span_size.thisTrialN,span_size.thisN,span_size.thisIndex,span_size.ran,complex_recall,key_resp_8.keys,key_resp_8.corr,key_resp_8.rt,complex_recall_corr,complex_recall_corrkeys,span_recall.thisRepN,span_recall.thisTrialN,span_recall.thisN,span_recall.thisIndex,span_recall.ran,key_resp_13.keys,key_resp_13.corr,key_resp_13.rt,random_loop.thisRepN,random_loop.thisTrialN,random_loop.thisN,random_loop.thisIndex,random_loop.ran,key_resp_12.keys,key_resp_12.rt
space,4.6842,space,33.9174,space,3.9966,0,0,0,0,1,X V Q F H G B L J M P D K C T S W R N Z,5f05c47cf4abed071ef4f83c,29,Mężczyzna,2022-06-11_09h20.18.316,task,2021.1.4,Win32,60.24096386,6299f149e92ead563fba08ef,62a442261de0783e131bedde,,,,,,,,,,,,,,,,,,,,,,,,,,,,,,,,,,,,,,,,,,,,,,,,,,,,,,,,,,,,,,,,,,,,,,,,,,,,,,,,,,,,,,,,,,,,,,,,,,,,,
,,,,,,1,0,1,0,1,X V Q F H G B L J M P D K C T S W R N Z,5f05c47cf4abed071ef4f83c,29,Mężczyzna,2022-06-11_09h20.18.316,task,2021.1.4,Win32,60.24096386,6299f149e92ead563fba08ef,62a442261de0783e131bedde,,,,,,,,,,,,,,,,,,,,,,,,,,,,,,,,,,,,,,,,,,,,,,,,,,,,,,,,,,,,,,,,,,,,,,,,,,,,,,,,,,,,,,,,,,,,,,,,,,,,,
,,,,,,,,,,,,5f05c47cf4abed071ef4f83c,29,Mężczyzna,2022-06-11_09h20.18.316,task,2021.1.4,Win32,60.24096386,6299f149e92ead563fba08ef,62a442261de0783e131bedde,zf,"[""z"",""f""]","[2.04529999995232,2.4718999999761593,4.054599999904632]",1,ZF,0,0,0,0,1,,,,,,,,,,,,,,,,,,,,,,,,,,,,,,,,,,,,,,,,,,,,,,,,,,,,,,,,,,,,,,,,,,,,,,,,,,,,,,,,,,,,,,,,,,,
,,,,,,0,0,0,0,1,X V Q F H G B L J M P D K C T S W R N Z,5f05c47cf4abed071ef4f83c,29,Mężczyzna,2022-06-11_09h20.18.316,task,2021.1.4,Win32,60.24096386,6299f149e92ead563fba08ef,62a442261de0783e131bedde,,,,,,,,,,,,,,,,,,,,,,,,,,,,,,,,,,,,,,,,,,,,,,,,,,,,,,,,,,,,,,,,,,,,,,,,,,,,,,,,,,,,,,,,,,,,,,,,,,,,,
,,,,,,1,0,1,0,1,X V Q F H G B L J M P D K C T S W R N Z,5f05c47cf4abed071ef4f83c,29,Mężczyzna,2022-06-11_09h20.18.316,task,2021.1.4,Win32,60.24096386,6299f149e92ead563fba08ef,62a442261de0783e131bedde,,,,,,,,,,,,,,,,,,,,,,,,,,,,,,,,,,,,,,,,,,,,,,,,,,,,,,,,,,,,,,,,,,,,,,,,,,,,,,,,,,,,,,,,,,,,,,,,,,,,,
,,,,,,,,,,,,5f05c47cf4abed071ef4f83c,29,Mężczyzna,2022-06-11_09h20.18.316,task,2021.1.4,Win32,60.24096386,6299f149e92ead563fba08ef,62a442261de0783e131bedde,zk,"[""z"",""k""]","[1.2717999999523215,1.4718999999761593,1.8396999999284702]",1,ZK,1,0,1,0,1,,,,,,,,,,,,,,,,,,,,,,,,,,,,,,,,,,,,,,,,,,,,,,,,,,,,,,,,,,,,,,,,,,,,,,,,,,,,,,,,,,,,,,,,,,,
,,,,,,0,0,0,0,1,X V Q F H G B L J M P D K C T S W R N Z,5f05c47cf4abed071ef4f83c,29,Mężczyzna,2022-06-11_09h20.18.316,task,2021.1.4,Win32,60.24096386,6299f149e92ead563fba08ef,62a442261de0783e131bedde,,,,,,,,,,,,,,,,,,,,,,,,,,,,,,,,,,,,,,,,,,,,,,,,,,,,,,,,,,,,,,,,,,,,,,,,,,,,,,,,,,,,,,,,,,,,,,,,,,,,,
,,,,,,1,0,1,0,1,X V Q F H G B L J M P D K C T S W R N Z,5f05c47cf4abed071ef4f83c,29,Mężczyzna,2022-06-11_09h20.18.316,task,2021.1.4,Win32,60.24096386,6299f149e92ead563fba08ef,62a442261de0783e131bedde,,,,,,,,,,,,,,,,,,,,,,,,,,,,,,,,,,,,,,,,,,,,,,,,,,,,,,,,,,,,,,,,,,,,,,,,,,,,,,,,,,,,,,,,,,,,,,,,,,,,,
,,,,,,2,0,2,0,1,X V Q F H G B L J M P D K C T S W R N Z,5f05c47cf4abed071ef4f83c,29,Mężczyzna,2022-06-11_09h20.18.316,task,2021.1.4,Win32,60.24096386,6299f149e92ead563fba08ef,62a442261de0783e131bedde,,,,,,,,,,,,,,,,,,,,,,,,,,,,,,,,,,,,,,,,,,,,,,,,,,,,,,,,,,,,,,,,,,,,,,,,,,,,,,,,,,,,,,,,,,,,,,,,,,,,,
,,,,,,,,,,,,5f05c47cf4abed071ef4f83c,29,Mężczyzna,2022-06-11_09h20.18.316,task,2021.1.4,Win32,60.24096386,6299f149e92ead563fba08ef,62a442261de0783e131bedde,grv,"[""g"",""r"",""v""]","[1.383299999952314,1.6879999999999882,1.943399999976151,2.967399999976152]",1,GRV,2,0,2,0,1,,,,,,,,,,,,,,,,,,,,,,,,,,,,,,,,,,,,,,,,,,,,,,,,,,,,,,,,,,,,,,,,,,,,,,,,,,,,,,,,,,,,,,,,,,,
,,,,,,0,0,0,0,1,X V Q F H G B L J M P D K C T S W R N Z,5f05c47cf4abed071ef4f83c,29,Mężczyzna,2022-06-11_09h20.18.316,task,2021.1.4,Win32,60.24096386,6299f149e92ead563fba08ef,62a442261de0783e131bedde,,,,,,,,,,,,,,,,,,,,,,,,,,,,,,,,,,,,,,,,,,,,,,,,,,,,,,,,,,,,,,,,,,,,,,,,,,,,,,,,,,,,,,,,,,,,,,,,,,,,,
,,,,,,1,0,1,0,1,X V Q F H G B L J M P D K C T S W R N Z,5f05c47cf4abed071ef4f83c,29,Mężczyzna,2022-06-11_09h20.18.316,task,2021.1.4,Win32,60.24096386,6299f149e92ead563fba08ef,62a442261de0783e131bedde,,,,,,,,,,,,,,,,,,,,,,,,,,,,,,,,,,,,,,,,,,,,,,,,,,,,,,,,,,,,,,,,,,,,,,,,,,,,,,,,,,,,,,,,,,,,,,,,,,,,,
,,,,,,2,0,2,0,1,X V Q F H G B L J M P D K C T S W R N Z,5f05c47cf4abed071ef4f83c,29,Mężczyzna,2022-06-11_09h20.18.316,task,2021.1.4,Win32,60.24096386,6299f149e92ead563fba08ef,62a442261de0783e131bedde,,,,,,,,,,,,,,,,,,,,,,,,,,,,,,,,,,,,,,,,,,,,,,,,,,,,,,,,,,,,,,,,,,,,,,,,,,,,,,,,,,,,,,,,,,,,,,,,,,,,,
,,,,,,,,,,,,5f05c47cf4abed071ef4f83c,29,Mężczyzna,2022-06-11_09h20.18.316,task,2021.1.4,Win32,60.24096386,6299f149e92ead563fba08ef,62a442261de0783e131bedde,drs,"[""d"",""r"",""s""]","[1.1146000000238416,1.3063999999761506,1.5542999999523204,2.0024999999999977]",1,DRS,3,0,3,0,1,,,,,,,,,,,,,,,,,,,,,,,,,,,,,,,,,,,,,,,,,,,,,,,,,,,,,,,,,,,,,,,,,,,,,,,,,,,,,,,,,,,,,,,,,,,
,,,,,,0,0,0,0,1,X V Q F H G B L J M P D K C T S W R N Z,5f05c47cf4abed071ef4f83c,29,Mężczyzna,2022-06-11_09h20.18.316,task,2021.1.4,Win32,60.24096386,6299f149e92ead563fba08ef,62a442261de0783e131bedde,,,,,,,,,,,,,,,,,,,,,,,,,,,,,,,,,,,,,,,,,,,,,,,,,,,,,,,,,,,,,,,,,,,,,,,,,,,,,,,,,,,,,,,,,,,,,,,,,,,,,
,,,,,,1,0,1,0,1,X V Q F H G B L J M P D K C T S W R N Z,5f05c47cf4abed071ef4f83c,29,Mężczyzna,2022-06-11_09h20.18.316,task,2021.1.4,Win32,60.24096386,6299f149e92ead563fba08ef,62a442261de0783e131bedde,,,,,,,,,,,,,,,,,,,,,,,,,,,,,,,,,,,,,,,,,,,,,,,,,,,,,,,,,,,,,,,,,,,,,,,,,,,,,,,,,,,,,,,,,,,,,,,,,,,,,
,,,,,,2,0,2,0,1,X V Q F H G B L J M P D K C T S W R N Z,5f05c47cf4abed071ef4f83c,29,Mężczyzna,2022-06-11_09h20.18.316,task,2021.1.4,Win32,60.24096386,6299f149e92ead563fba08ef,62a442261de0783e131bedde,,,,,,,,,,,,,,,,,,,,,,,,,,,,,,,,,,,,,,,,,,,,,,,,,,,,,,,,,,,,,,,,,,,,,,,,,,,,,,,,,,,,,,,,,,,,,,,,,,,,,
,,,,,,3,0,3,0,1,X V Q F H G B L J M P D K C T S W R N Z,5f05c47cf4abed071ef4f83c,29,Mężczyzna,2022-06-11_09h20.18.316,task,2021.1.4,Win32,60.24096386,6299f149e92ead563fba08ef,62a442261de0783e131bedde,,,,,,,,,,,,,,,,,,,,,,,,,,,,,,,,,,,,,,,,,,,,,,,,,,,,,,,,,,,,,,,,,,,,,,,,,,,,,,,,,,,,,,,,,,,,,,,,,,,,,
,,,,,,,,,,,,5f05c47cf4abed071ef4f83c,29,Mężczyzna,2022-06-11_09h20.18.316,task,2021.1.4,Win32,60.24096386,6299f149e92ead563fba08ef,62a442261de0783e131bedde,bdgg,"[""b"",""d"",""g"",""g""]","[0.8811000000238494,1.5763999999761609,1.9206000000238532,2.056399999976165,2.376399999976158]",1,BDGG,4,0,4,0,1,,,,,,,,,,,,,,,,,,,,,,,,,,,,,,,,,,,,,,,,,,,,,,,,,,,,,,,,,,,,,,,,,,,,,,,,,,,,,,,,,,,,,,,,,,,
,,,,,,0,0,0,0,1,X V Q F H G B L J M P D K C T S W R N Z,5f05c47cf4abed071ef4f83c,29,Mężczyzna,2022-06-11_09h20.18.316,task,2021.1.4,Win32,60.24096386,6299f149e92ead563fba08ef,62a442261de0783e131bedde,,,,,,,,,,,,,,,,,,,,,,,,,,,,,,,,,,,,,,,,,,,,,,,,,,,,,,,,,,,,,,,,,,,,,,,,,,,,,,,,,,,,,,,,,,,,,,,,,,,,,
,,,,,,1,0,1,0,1,X V Q F H G B L J M P D K C T S W R N Z,5f05c47cf4abed071ef4f83c,29,Mężczyzna,2022-06-11_09h20.18.316,task,2021.1.4,Win32,60.24096386,6299f149e92ead563fba08ef,62a442261de0783e131bedde,,,,,,,,,,,,,,,,,,,,,,,,,,,,,,,,,,,,,,,,,,,,,,,,,,,,,,,,,,,,,,,,,,,,,,,,,,,,,,,,,,,,,,,,,,,,,,,,,,,,,
,,,,,,2,0,2,0,1,X V Q F H G B L J M P D K C T S W R N Z,5f05c47cf4abed071ef4f83c,29,Mężczyzna,2022-06-11_09h20.18.316,task,2021.1.4,Win32,60.24096386,6299f149e92ead563fba08ef,62a442261de0783e131bedde,,,,,,,,,,,,,,,,,,,,,,,,,,,,,,,,,,,,,,,,,,,,,,,,,,,,,,,,,,,,,,,,,,,,,,,,,,,,,,,,,,,,,,,,,,,,,,,,,,,,,
,,,,,,3,0,3,0,1,X V Q F H G B L J M P D K C T S W R N Z,5f05c47cf4abed071ef4f83c,29,Mężczyzna,2022-06-11_09h20.18.316,task,2021.1.4,Win32,60.24096386,6299f149e92ead563fba08ef,62a442261de0783e131bedde,,,,,,,,,,,,,,,,,,,,,,,,,,,,,,,,,,,,,,,,,,,,,,,,,,,,,,,,,,,,,,,,,,,,,,,,,,,,,,,,,,,,,,,,,,,,,,,,,,,,,
,,,,,,,,,,,,5f05c47cf4abed071ef4f83c,29,Mężczyzna,2022-06-11_09h20.18.316,task,2021.1.4,Win32,60.24096386,6299f149e92ead563fba08ef,62a442261de0783e131bedde,tgsv,"[""t"",""g"",""s"",""v""]","[0.9843999999761621,1.1844999999999999,1.3363999999761518,1.5762999999523117,2.008399999976149]",1,TGSV,5,0,5,0,1,,,,,,,,,,,,,,,,,,,,,,,,,,,,,,,,,,,,,,,,,,,,,,,,,,,,,,,,,,,,,,,,,,,,,,,,,,,,,,,,,,,,,,,,,,,
,,,,,,0,0,0,0,1,X V Q F H G B L J M P D K C T S W R N Z,5f05c47cf4abed071ef4f83c,29,Mężczyzna,2022-06-11_09h20.18.316,task,2021.1.4,Win32,60.24096386,6299f149e92ead563fba08ef,62a442261de0783e131bedde,,,,,,,,,,,,,,,,,,,,,,,,,,,,,,,,,,,,,,,,,,,,,,,,,,,,,,,,,,,,,,,,,,,,,,,,,,,,,,,,,,,,,,,,,,,,,,,,,,,,,
,,,,,,1,0,1,0,1,X V Q F H G B L J M P D K C T S W R N Z,5f05c47cf4abed071ef4f83c,29,Mężczyzna,2022-06-11_09h20.18.316,task,2021.1.4,Win32,60.24096386,6299f149e92ead563fba08ef,62a442261de0783e131bedde,,,,,,,,,,,,,,,,,,,,,,,,,,,,,,,,,,,,,,,,,,,,,,,,,,,,,,,,,,,,,,,,,,,,,,,,,,,,,,,,,,,,,,,,,,,,,,,,,,,,,
,,,,,,2,0,2,0,1,X V Q F H G B L J M P D K C T S W R N Z,5f05c47cf4abed071ef4f83c,29,Mężczyzna,2022-06-11_09h20.18.316,task,2021.1.4,Win32,60.24096386,6299f149e92ead563fba08ef,62a442261de0783e131bedde,,,,,,,,,,,,,,,,,,,,,,,,,,,,,,,,,,,,,,,,,,,,,,,,,,,,,,,,,,,,,,,,,,,,,,,,,,,,,,,,,,,,,,,,,,,,,,,,,,,,,
,,,,,,3,0,3,0,1,X V Q F H G B L J M P D K C T S W R N Z,5f05c47cf4abed071ef4f83c,29,Mężczyzna,2022-06-11_09h20.18.316,task,2021.1.4,Win32,60.24096386,6299f149e92ead563fba08ef,62a442261de0783e131bedde,,,,,,,,,,,,,,,,,,,,,,,,,,,,,,,,,,,,,,,,,,,,,,,,,,,,,,,,,,,,,,,,,,,,,,,,,,,,,,,,,,,,,,,,,,,,,,,,,,,,,
,,,,,,4,0,4,0,1,X V Q F H G B L J M P D K C T S W R N Z,5f05c47cf4abed071ef4f83c,29,Mężczyzna,2022-06-11_09h20.18.316,task,2021.1.4,Win32,60.24096386,6299f149e92ead563fba08ef,62a442261de0783e131bedde,,,,,,,,,,,,,,,,,,,,,,,,,,,,,,,,,,,,,,,,,,,,,,,,,,,,,,,,,,,,,,,,,,,,,,,,,,,,,,,,,,,,,,,,,,,,,,,,,,,,,
,,,,,,,,,,,,5f05c47cf4abed071ef4f83c,29,Mężczyzna,2022-06-11_09h20.18.316,task,2021.1.4,Win32,60.24096386,6299f149e92ead563fba08ef,62a442261de0783e131bedde,xjbnr,"[""x"",""j"",""b"",""n"",""r""]","[0.8760999999046248,1.1555999999046378,1.4142999999523198,1.6141999999284735,1.9876999999284664,2.3156999999284693]",1,XJBNR,6,0,6,0,1,,,,,,,,,,,,,,,,,,,,,,,,,,,,,,,,,,,,,,,,,,,,,,,,,,,,,,,,,,,,,,,,,,,,,,,,,,,,,,,,,,,,,,,,,,,
,,,,,,0,0,0,0,1,X V Q F H G B L J M P D K C T S W R N Z,5f05c47cf4abed071ef4f83c,29,Mężczyzna,2022-06-11_09h20.18.316,task,2021.1.4,Win32,60.24096386,6299f149e92ead563fba08ef,62a442261de0783e131bedde,,,,,,,,,,,,,,,,,,,,,,,,,,,,,,,,,,,,,,,,,,,,,,,,,,,,,,,,,,,,,,,,,,,,,,,,,,,,,,,,,,,,,,,,,,,,,,,,,,,,,
,,,,,,1,0,1,0,1,X V Q F H G B L J M P D K C T S W R N Z,5f05c47cf4abed071ef4f83c,29,Mężczyzna,2022-06-11_09h20.18.316,task,2021.1.4,Win32,60.24096386,6299f149e92ead563fba08ef,62a442261de0783e131bedde,,,,,,,,,,,,,,,,,,,,,,,,,,,,,,,,,,,,,,,,,,,,,,,,,,,,,,,,,,,,,,,,,,,,,,,,,,,,,,,,,,,,,,,,,,,,,,,,,,,,,
,,,,,,2,0,2,0,1,X V Q F H G B L J M P D K C T S W R N Z,5f05c47cf4abed071ef4f83c,29,Mężczyzna,2022-06-11_09h20.18.316,task,2021.1.4,Win32,60.24096386,6299f149e92ead563fba08ef,62a442261de0783e131bedde,,,,,,,,,,,,,,,,,,,,,,,,,,,,,,,,,,,,,,,,,,,,,,,,,,,,,,,,,,,,,,,,,,,,,,,,,,,,,,,,,,,,,,,,,,,,,,,,,,,,,
,,,,,,3,0,3,0,1,X V Q F H G B L J M P D K C T S W R N Z,5f05c47cf4abed071ef4f83c,29,Mężczyzna,2022-06-11_09h20.18.316,task,2021.1.4,Win32,60.24096386,6299f149e92ead563fba08ef,62a442261de0783e131bedde,,,,,,,,,,,,,,,,,,,,,,,,,,,,,,,,,,,,,,,,,,,,,,,,,,,,,,,,,,,,,,,,,,,,,,,,,,,,,,,,,,,,,,,,,,,,,,,,,,,,,
,,,,,,4,0,4,0,1,X V Q F H G B L J M P D K C T S W R N Z,5f05c47cf4abed071ef4f83c,29,Mężczyzna,2022-06-11_09h20.18.316,task,2021.1.4,Win32,60.24096386,6299f149e92ead563fba08ef,62a442261de0783e131bedde,,,,,,,,,,,,,,,,,,,,,,,,,,,,,,,,,,,,,,,,,,,,,,,,,,,,,,,,,,,,,,,,,,,,,,,,,,,,,,,,,,,,,,,,,,,,,,,,,,,,,
,,,,,,,,,,,,5f05c47cf4abed071ef4f83c,29,Mężczyzna,2022-06-11_09h20.18.316,task,2021.1.4,Win32,60.24096386,6299f149e92ead563fba08ef,62a442261de0783e131bedde,jmcqf,"[""j"",""m"",""c"",""q"",""f""]","[1.2506999999284716,1.515299999952319,2.3230999999046276,3.114699999928476,3.45869999992847,4.098699999928471]",1,JMCQF,7,0,7,0,1,,,,,,,,,,,,,,,,,,,,,,,,,,,,,,,,,,,,,,,,,,,,,,,,,,,,,,,,,,,,,,,,,,,,,,,,,,,,,,,,,,,,,,,,,,,
,,,,,,0,0,0,0,1,X V Q F H G B L J M P D K C T S W R N Z,5f05c47cf4abed071ef4f83c,29,Mężczyzna,2022-06-11_09h20.18.316,task,2021.1.4,Win32,60.24096386,6299f149e92ead563fba08ef,62a442261de0783e131bedde,,,,,,,,,,,,,,,,,,,,,,,,,,,,,,,,,,,,,,,,,,,,,,,,,,,,,,,,,,,,,,,,,,,,,,,,,,,,,,,,,,,,,,,,,,,,,,,,,,,,,
,,,,,,1,0,1,0,1,X V Q F H G B L J M P D K C T S W R N Z,5f05c47cf4abed071ef4f83c,29,Mężczyzna,2022-06-11_09h20.18.316,task,2021.1.4,Win32,60.24096386,6299f149e92ead563fba08ef,62a442261de0783e131bedde,,,,,,,,,,,,,,,,,,,,,,,,,,,,,,,,,,,,,,,,,,,,,,,,,,,,,,,,,,,,,,,,,,,,,,,,,,,,,,,,,,,,,,,,,,,,,,,,,,,,,
,,,,,,2,0,2,0,1,X V Q F H G B L J M P D K C T S W R N Z,5f05c47cf4abed071ef4f83c,29,Mężczyzna,2022-06-11_09h20.18.316,task,2021.1.4,Win32,60.24096386,6299f149e92ead563fba08ef,62a442261de0783e131bedde,,,,,,,,,,,,,,,,,,,,,,,,,,,,,,,,,,,,,,,,,,,,,,,,,,,,,,,,,,,,,,,,,,,,,,,,,,,,,,,,,,,,,,,,,,,,,,,,,,,,,
,,,,,,3,0,3,0,1,X V Q F H G B L J M P D K C T S W R N Z,5f05c47cf4abed071ef4f83c,29,Mężczyzna,2022-06-11_09h20.18.316,task,2021.1.4,Win32,60.24096386,6299f149e92ead563fba08ef,62a442261de0783e131bedde,,,,,,,,,,,,,,,,,,,,,,,,,,,,,,,,,,,,,,,,,,,,,,,,,,,,,,,,,,,,,,,,,,,,,,,,,,,,,,,,,,,,,,,,,,,,,,,,,,,,,
,,,,,,4,0,4,0,1,X V Q F H G B L J M P D K C T S W R N Z,5f05c47cf4abed071ef4f83c,29,Mężczyzna,2022-06-11_09h20.18.316,task,2021.1.4,Win32,60.24096386,6299f149e92ead563fba08ef,62a442261de0783e131bedde,,,,,,,,,,,,,,,,,,,,,,,,,,,,,,,,,,,,,,,,,,,,,,,,,,,,,,,,,,,,,,,,,,,,,,,,,,,,,,,,,,,,,,,,,,,,,,,,,,,,,
,,,,,,5,0,5,0,1,X V Q F H G B L J M P D K C T S W R N Z,5f05c47cf4abed071ef4f83c,29,Mężczyzna,2022-06-11_09h20.18.316,task,2021.1.4,Win32,60.24096386,6299f149e92ead563fba08ef,62a442261de0783e131bedde,,,,,,,,,,,,,,,,,,,,,,,,,,,,,,,,,,,,,,,,,,,,,,,,,,,,,,,,,,,,,,,,,,,,,,,,,,,,,,,,,,,,,,,,,,,,,,,,,,,,,
,,,,,,,,,,,,5f05c47cf4abed071ef4f83c,29,Mężczyzna,2022-06-11_09h20.18.316,task,2021.1.4,Win32,60.24096386,6299f149e92ead563fba08ef,62a442261de0783e131bedde,sbndlx,"[""s"",""b"",""n"",""d"",""l"",""x""]","[1.169100000023846,1.4407999999523184,1.9470000000000027,2.2567999999523067,3.1370000000000005,3.336899999976154,3.817100000023842]",1,SBNDLX,8,0,8,0,1,,,,,,,,,,,,,,,,,,,,,,,,,,,,,,,,,,,,,,,,,,,,,,,,,,,,,,,,,,,,,,,,,,,,,,,,,,,,,,,,,,,,,,,,,,,
,,,,,,0,0,0,0,1,X V Q F H G B L J M P D K C T S W R N Z,5f05c47cf4abed071ef4f83c,29,Mężczyzna,2022-06-11_09h20.18.316,task,2021.1.4,Win32,60.24096386,6299f149e92ead563fba08ef,62a442261de0783e131bedde,,,,,,,,,,,,,,,,,,,,,,,,,,,,,,,,,,,,,,,,,,,,,,,,,,,,,,,,,,,,,,,,,,,,,,,,,,,,,,,,,,,,,,,,,,,,,,,,,,,,,
,,,,,,1,0,1,0,1,X V Q F H G B L J M P D K C T S W R N Z,5f05c47cf4abed071ef4f83c,29,Mężczyzna,2022-06-11_09h20.18.316,task,2021.1.4,Win32,60.24096386,6299f149e92ead563fba08ef,62a442261de0783e131bedde,,,,,,,,,,,,,,,,,,,,,,,,,,,,,,,,,,,,,,,,,,,,,,,,,,,,,,,,,,,,,,,,,,,,,,,,,,,,,,,,,,,,,,,,,,,,,,,,,,,,,
,,,,,,2,0,2,0,1,X V Q F H G B L J M P D K C T S W R N Z,5f05c47cf4abed071ef4f83c,29,Mężczyzna,2022-06-11_09h20.18.316,task,2021.1.4,Win32,60.24096386,6299f149e92ead563fba08ef,62a442261de0783e131bedde,,,,,,,,,,,,,,,,,,,,,,,,,,,,,,,,,,,,,,,,,,,,,,,,,,,,,,,,,,,,,,,,,,,,,,,,,,,,,,,,,,,,,,,,,,,,,,,,,,,,,
,,,,,,3,0,3,0,1,X V Q F H G B L J M P D K C T S W R N Z,5f05c47cf4abed071ef4f83c,29,Mężczyzna,2022-06-11_09h20.18.316,task,2021.1.4,Win32,60.24096386,6299f149e92ead563fba08ef,62a442261de0783e131bedde,,,,,,,,,,,,,,,,,,,,,,,,,,,,,,,,,,,,,,,,,,,,,,,,,,,,,,,,,,,,,,,,,,,,,,,,,,,,,,,,,,,,,,,,,,,,,,,,,,,,,
,,,,,,4,0,4,0,1,X V Q F H G B L J M P D K C T S W R N Z,5f05c47cf4abed071ef4f83c,29,Mężczyzna,2022-06-11_09h20.18.316,task,2021.1.4,Win32,60.24096386,6299f149e92ead563fba08ef,62a442261de0783e131bedde,,,,,,,,,,,,,,,,,,,,,,,,,,,,,,,,,,,,,,,,,,,,,,,,,,,,,,,,,,,,,,,,,,,,,,,,,,,,,,,,,,,,,,,,,,,,,,,,,,,,,
,,,,,,5,0,5,0,1,X V Q F H G B L J M P D K C T S W R N Z,5f05c47cf4abed071ef4f83c,29,Mężczyzna,2022-06-11_09h20.18.316,task,2021.1.4,Win32,60.24096386,6299f149e92ead563fba08ef,62a442261de0783e131bedde,,,,,,,,,,,,,,,,,,,,,,,,,,,,,,,,,,,,,,,,,,,,,,,,,,,,,,,,,,,,,,,,,,,,,,,,,,,,,,,,,,,,,,,,,,,,,,,,,,,,,
,,,,,,,,,,,,5f05c47cf4abed071ef4f83c,29,Mężczyzna,2022-06-11_09h20.18.316,task,2021.1.4,Win32,60.24096386,6299f149e92ead563fba08ef,62a442261de0783e131bedde,htmnzp,"[""h"",""t"",""m"",""n"",""z"",""p""]","[0.9548999999761634,1.2028000000715338,1.3944999999999936,1.6585000000000036,1.9471000000238234,2.4132000000476808,2.954600000023845]",1,HTMNZP,9,0,9,0,1,,,,,,,,,,,,,,,,,,,,,,,,,,,,,,,,,,,,,,,,,,,,,,,,,,,,,,,,,,,,,,,,,,,,,,,,,,,,,,,,,,,,,,,,,,,
,,,,,,0,0,0,0,1,X V Q F H G B L J M P D K C T S W R N Z,5f05c47cf4abed071ef4f83c,29,Mężczyzna,2022-06-11_09h20.18.316,task,2021.1.4,Win32,60.24096386,6299f149e92ead563fba08ef,62a442261de0783e131bedde,,,,,,,,,,,,,,,,,,,,,,,,,,,,,,,,,,,,,,,,,,,,,,,,,,,,,,,,,,,,,,,,,,,,,,,,,,,,,,,,,,,,,,,,,,,,,,,,,,,,,
,,,,,,1,0,1,0,1,X V Q F H G B L J M P D K C T S W R N Z,5f05c47cf4abed071ef4f83c,29,Mężczyzna,2022-06-11_09h20.18.316,task,2021.1.4,Win32,60.24096386,6299f149e92ead563fba08ef,62a442261de0783e131bedde,,,,,,,,,,,,,,,,,,,,,,,,,,,,,,,,,,,,,,,,,,,,,,,,,,,,,,,,,,,,,,,,,,,,,,,,,,,,,,,,,,,,,,,,,,,,,,,,,,,,,
,,,,,,2,0,2,0,1,X V Q F H G B L J M P D K C T S W R N Z,5f05c47cf4abed071ef4f83c,29,Mężczyzna,2022-06-11_09h20.18.316,task,2021.1.4,Win32,60.24096386,6299f149e92ead563fba08ef,62a442261de0783e131bedde,,,,,,,,,,,,,,,,,,,,,,,,,,,,,,,,,,,,,,,,,,,,,,,,,,,,,,,,,,,,,,,,,,,,,,,,,,,,,,,,,,,,,,,,,,,,,,,,,,,,,
,,,,,,3,0,3,0,1,X V Q F H G B L J M P D K C T S W R N Z,5f05c47cf4abed071ef4f83c,29,Mężczyzna,2022-06-11_09h20.18.316,task,2021.1.4,Win32,60.24096386,6299f149e92ead563fba08ef,62a442261de0783e131bedde,,,,,,,,,,,,,,,,,,,,,,,,,,,,,,,,,,,,,,,,,,,,,,,,,,,,,,,,,,,,,,,,,,,,,,,,,,,,,,,,,,,,,,,,,,,,,,,,,,,,,
,,,,,,4,0,4,0,1,X V Q F H G B L J M P D K C T S W R N Z,5f05c47cf4abed071ef4f83c,29,Mężczyzna,2022-06-11_09h20.18.316,task,2021.1.4,Win32,60.24096386,6299f149e92ead563fba08ef,62a442261de0783e131bedde,,,,,,,,,,,,,,,,,,,,,,,,,,,,,,,,,,,,,,,,,,,,,,,,,,,,,,,,,,,,,,,,,,,,,,,,,,,,,,,,,,,,,,,,,,,,,,,,,,,,,
,,,,,,5,0,5,0,1,X V Q F H G B L J M P D K C T S W R N Z,5f05c47cf4abed071ef4f83c,29,Mężczyzna,2022-06-11_09h20.18.316,task,2021.1.4,Win32,60.24096386,6299f149e92ead563fba08ef,62a442261de0783e131bedde,,,,,,,,,,,,,,,,,,,,,,,,,,,,,,,,,,,,,,,,,,,,,,,,,,,,,,,,,,,,,,,,,,,,,,,,,,,,,,,,,,,,,,,,,,,,,,,,,,,,,
,,,,,,6,0,6,0,1,X V Q F H G B L J M P D K C T S W R N Z,5f05c47cf4abed071ef4f83c,29,Mężczyzna,2022-06-11_09h20.18.316,task,2021.1.4,Win32,60.24096386,6299f149e92ead563fba08ef,62a442261de0783e131bedde,,,,,,,,,,,,,,,,,,,,,,,,,,,,,,,,,,,,,,,,,,,,,,,,,,,,,,,,,,,,,,,,,,,,,,,,,,,,,,,,,,,,,,,,,,,,,,,,,,,,,
,,,,,,,,,,,,5f05c47cf4abed071ef4f83c,29,Mężczyzna,2022-06-11_09h20.18.316,task,2021.1.4,Win32,60.24096386,6299f149e92ead563fba08ef,62a442261de0783e131bedde,xpnbrhp,"[""x"",""p"",""n"",""b"",""r"",""h"",""p""]","[1.2917000000476833,1.6671000000238507,1.980200000047688,2.2593000000715335,2.507100000023854,2.923100000023851,3.4292000000477003,3.795300000071535]",0,XPNRBHP,10,0,10,0,1,,,,,,,,,,,,,,,,,,,,,,,,,,,,,,,,,,,,,,,,,,,,,,,,,,,,,,,,,,,,,,,,,,,,,,,,,,,,,,,,,,,,,,,,,,,
,,,,,,0,0,0,0,1,X V Q F H G B L J M P D K C T S W R N Z,5f05c47cf4abed071ef4f83c,29,Mężczyzna,2022-06-11_09h20.18.316,task,2021.1.4,Win32,60.24096386,6299f149e92ead563fba08ef,62a442261de0783e131bedde,,,,,,,,,,,,,,,,,,,,,,,,,,,,,,,,,,,,,,,,,,,,,,,,,,,,,,,,,,,,,,,,,,,,,,,,,,,,,,,,,,,,,,,,,,,,,,,,,,,,,
,,,,,,1,0,1,0,1,X V Q F H G B L J M P D K C T S W R N Z,5f05c47cf4abed071ef4f83c,29,Mężczyzna,2022-06-11_09h20.18.316,task,2021.1.4,Win32,60.24096386,6299f149e92ead563fba08ef,62a442261de0783e131bedde,,,,,,,,,,,,,,,,,,,,,,,,,,,,,,,,,,,,,,,,,,,,,,,,,,,,,,,,,,,,,,,,,,,,,,,,,,,,,,,,,,,,,,,,,,,,,,,,,,,,,
,,,,,,2,0,2,0,1,X V Q F H G B L J M P D K C T S W R N Z,5f05c47cf4abed071ef4f83c,29,Mężczyzna,2022-06-11_09h20.18.316,task,2021.1.4,Win32,60.24096386,6299f149e92ead563fba08ef,62a442261de0783e131bedde,,,,,,,,,,,,,,,,,,,,,,,,,,,,,,,,,,,,,,,,,,,,,,,,,,,,,,,,,,,,,,,,,,,,,,,,,,,,,,,,,,,,,,,,,,,,,,,,,,,,,
,,,,,,3,0,3,0,1,X V Q F H G B L J M P D K C T S W R N Z,5f05c47cf4abed071ef4f83c,29,Mężczyzna,2022-06-11_09h20.18.316,task,2021.1.4,Win32,60.24096386,6299f149e92ead563fba08ef,62a442261de0783e131bedde,,,,,,,,,,,,,,,,,,,,,,,,,,,,,,,,,,,,,,,,,,,,,,,,,,,,,,,,,,,,,,,,,,,,,,,,,,,,,,,,,,,,,,,,,,,,,,,,,,,,,
,,,,,,4,0,4,0,1,X V Q F H G B L J M P D K C T S W R N Z,5f05c47cf4abed071ef4f83c,29,Mężczyzna,2022-06-11_09h20.18.316,task,2021.1.4,Win32,60.24096386,6299f149e92ead563fba08ef,62a442261de0783e131bedde,,,,,,,,,,,,,,,,,,,,,,,,,,,,,,,,,,,,,,,,,,,,,,,,,,,,,,,,,,,,,,,,,,,,,,,,,,,,,,,,,,,,,,,,,,,,,,,,,,,,,
,,,,,,5,0,5,0,1,X V Q F H G B L J M P D K C T S W R N Z,5f05c47cf4abed071ef4f83c,29,Mężczyzna,2022-06-11_09h20.18.316,task,2021.1.4,Win32,60.24096386,6299f149e92ead563fba08ef,62a442261de0783e131bedde,,,,,,,,,,,,,,,,,,,,,,,,,,,,,,,,,,,,,,,,,,,,,,,,,,,,,,,,,,,,,,,,,,,,,,,,,,,,,,,,,,,,,,,,,,,,,,,,,,,,,
,,,,,,6,0,6,0,1,X V Q F H G B L J M P D K C T S W R N Z,5f05c47cf4abed071ef4f83c,29,Mężczyzna,2022-06-11_09h20.18.316,task,2021.1.4,Win32,60.24096386,6299f149e92ead563fba08ef,62a442261de0783e131bedde,,,,,,,,,,,,,,,,,,,,,,,,,,,,,,,,,,,,,,,,,,,,,,,,,,,,,,,,,,,,,,,,,,,,,,,,,,,,,,,,,,,,,,,,,,,,,,,,,,,,,
,,,,,,,,,,,,5f05c47cf4abed071ef4f83c,29,Mężczyzna,2022-06-11_09h20.18.316,task,2021.1.4,Win32,60.24096386,6299f149e92ead563fba08ef,62a442261de0783e131bedde,vlqssfh,"[""v"",""l"",""q"",""s"",""s"",""f"",""h""]","[1.85069999992848,2.1382999999523236,2.3967999999523215,2.690199999928467,2.8342999999523215,3.0827999999523286,3.498600000023856,3.9223999999761645]",1,VLQSSFH,11,0,11,0,1,,,,,,,,,,,,,,,,,,,,,,,,,,,,,,,,,,,,,,,,,,,,,,,,,,,,,,,,,,,,,,,,,,,,,,,,,,,,,,,,,,,,,,,,,,,
,,,,,,0,0,0,0,1,X V Q F H G B L J M P D K C T S W R N Z,5f05c47cf4abed071ef4f83c,29,Mężczyzna,2022-06-11_09h20.18.316,task,2021.1.4,Win32,60.24096386,6299f149e92ead563fba08ef,62a442261de0783e131bedde,,,,,,,,,,,,,,,,,,,,,,,,,,,,,,,,,,,,,,,,,,,,,,,,,,,,,,,,,,,,,,,,,,,,,,,,,,,,,,,,,,,,,,,,,,,,,,,,,,,,,
,,,,,,1,0,1,0,1,X V Q F H G B L J M P D K C T S W R N Z,5f05c47cf4abed071ef4f83c,29,Mężczyzna,2022-06-11_09h20.18.316,task,2021.1.4,Win32,60.24096386,6299f149e92ead563fba08ef,62a442261de0783e131bedde,,,,,,,,,,,,,,,,,,,,,,,,,,,,,,,,,,,,,,,,,,,,,,,,,,,,,,,,,,,,,,,,,,,,,,,,,,,,,,,,,,,,,,,,,,,,,,,,,,,,,
,,,,,,2,0,2,0,1,X V Q F H G B L J M P D K C T S W R N Z,5f05c47cf4abed071ef4f83c,29,Mężczyzna,2022-06-11_09h20.18.316,task,2021.1.4,Win32,60.24096386,6299f149e92ead563fba08ef,62a442261de0783e131bedde,,,,,,,,,,,,,,,,,,,,,,,,,,,,,,,,,,,,,,,,,,,,,,,,,,,,,,,,,,,,,,,,,,,,,,,,,,,,,,,,,,,,,,,,,,,,,,,,,,,,,
,,,,,,3,0,3,0,1,X V Q F H G B L J M P D K C T S W R N Z,5f05c47cf4abed071ef4f83c,29,Mężczyzna,2022-06-11_09h20.18.316,task,2021.1.4,Win32,60.24096386,6299f149e92ead563fba08ef,62a442261de0783e131bedde,,,,,,,,,,,,,,,,,,,,,,,,,,,,,,,,,,,,,,,,,,,,,,,,,,,,,,,,,,,,,,,,,,,,,,,,,,,,,,,,,,,,,,,,,,,,,,,,,,,,,
,,,,,,4,0,4,0,1,X V Q F H G B L J M P D K C T S W R N Z,5f05c47cf4abed071ef4f83c,29,Mężczyzna,2022-06-11_09h20.18.316,task,2021.1.4,Win32,60.24096386,6299f149e92ead563fba08ef,62a442261de0783e131bedde,,,,,,,,,,,,,,,,,,,,,,,,,,,,,,,,,,,,,,,,,,,,,,,,,,,,,,,,,,,,,,,,,,,,,,,,,,,,,,,,,,,,,,,,,,,,,,,,,,,,,
,,,,,,5,0,5,0,1,X V Q F H G B L J M P D K C T S W R N Z,5f05c47cf4abed071ef4f83c,29,Mężczyzna,2022-06-11_09h20.18.316,task,2021.1.4,Win32,60.24096386,6299f149e92ead563fba08ef,62a442261de0783e131bedde,,,,,,,,,,,,,,,,,,,,,,,,,,,,,,,,,,,,,,,,,,,,,,,,,,,,,,,,,,,,,,,,,,,,,,,,,,,,,,,,,,,,,,,,,,,,,,,,,,,,,
,,,,,,6,0,6,0,1,X V Q F H G B L J M P D K C T S W R N Z,5f05c47cf4abed071ef4f83c,29,Mężczyzna,2022-06-11_09h20.18.316,task,2021.1.4,Win32,60.24096386,6299f149e92ead563fba08ef,62a442261de0783e131bedde,,,,,,,,,,,,,,,,,,,,,,,,,,,,,,,,,,,,,,,,,,,,,,,,,,,,,,,,,,,,,,,,,,,,,,,,,,,,,,,,,,,,,,,,,,,,,,,,,,,,,
,,,,,,,,,,,,5f05c47cf4abed071ef4f83c,29,Mężczyzna,2022-06-11_09h20.18.316,task,2021.1.4,Win32,60.24096386,6299f149e92ead563fba08ef,62a442261de0783e131bedde,thvpmtq,"[""t"",""h"",""v"",""p"",""m"",""t"",""q""]","[1.6057999999523247,1.8695000000000164,2.2135000000000105,2.5416999999284826,2.853299999952327,4.711099999904633,6.309599999904634,6.701299999952312]",0,TKVPMTG,12,0,12,0,1,,,,,,,,,,,,,,,,,,,,,,,,,,,,,,,,,,,,,,,,,,,,,,,,,,,,,,,,,,,,,,,,,,,,,,,,,,,,,,,,,,,,,,,,,,,
,,,,,,0,0,0,0,1,X V Q F H G B L J M P D K C T S W R N Z,5f05c47cf4abed071ef4f83c,29,Mężczyzna,2022-06-11_09h20.18.316,task,2021.1.4,Win32,60.24096386,6299f149e92ead563fba08ef,62a442261de0783e131bedde,,,,,,,,,,,,,,,,,,,,,,,,,,,,,,,,,,,,,,,,,,,,,,,,,,,,,,,,,,,,,,,,,,,,,,,,,,,,,,,,,,,,,,,,,,,,,,,,,,,,,
,,,,,,1,0,1,0,1,X V Q F H G B L J M P D K C T S W R N Z,5f05c47cf4abed071ef4f83c,29,Mężczyzna,2022-06-11_09h20.18.316,task,2021.1.4,Win32,60.24096386,6299f149e92ead563fba08ef,62a442261de0783e131bedde,,,,,,,,,,,,,,,,,,,,,,,,,,,,,,,,,,,,,,,,,,,,,,,,,,,,,,,,,,,,,,,,,,,,,,,,,,,,,,,,,,,,,,,,,,,,,,,,,,,,,
,,,,,,2,0,2,0,1,X V Q F H G B L J M P D K C T S W R N Z,5f05c47cf4abed071ef4f83c,29,Mężczyzna,2022-06-11_09h20.18.316,task,2021.1.4,Win32,60.24096386,6299f149e92ead563fba08ef,62a442261de0783e131bedde,,,,,,,,,,,,,,,,,,,,,,,,,,,,,,,,,,,,,,,,,,,,,,,,,,,,,,,,,,,,,,,,,,,,,,,,,,,,,,,,,,,,,,,,,,,,,,,,,,,,,
,,,,,,3,0,3,0,1,X V Q F H G B L J M P D K C T S W R N Z,5f05c47cf4abed071ef4f83c,29,Mężczyzna,2022-06-11_09h20.18.316,task,2021.1.4,Win32,60.24096386,6299f149e92ead563fba08ef,62a442261de0783e131bedde,,,,,,,,,,,,,,,,,,,,,,,,,,,,,,,,,,,,,,,,,,,,,,,,,,,,,,,,,,,,,,,,,,,,,,,,,,,,,,,,,,,,,,,,,,,,,,,,,,,,,
,,,,,,4,0,4,0,1,X V Q F H G B L J M P D K C T S W R N Z,5f05c47cf4abed071ef4f83c,29,Mężczyzna,2022-06-11_09h20.18.316,task,2021.1.4,Win32,60.24096386,6299f149e92ead563fba08ef,62a442261de0783e131bedde,,,,,,,,,,,,,,,,,,,,,,,,,,,,,,,,,,,,,,,,,,,,,,,,,,,,,,,,,,,,,,,,,,,,,,,,,,,,,,,,,,,,,,,,,,,,,,,,,,,,,
,,,,,,5,0,5,0,1,X V Q F H G B L J M P D K C T S W R N Z,5f05c47cf4abed071ef4f83c,29,Mężczyzna,2022-06-11_09h20.18.316,task,2021.1.4,Win32,60.24096386,6299f149e92ead563fba08ef,62a442261de0783e131bedde,,,,,,,,,,,,,,,,,,,,,,,,,,,,,,,,,,,,,,,,,,,,,,,,,,,,,,,,,,,,,,,,,,,,,,,,,,,,,,,,,,,,,,,,,,,,,,,,,,,,,
,,,,,,6,0,6,0,1,X V Q F H G B L J M P D K C T S W R N Z,5f05c47cf4abed071ef4f83c,29,Mężczyzna,2022-06-11_09h20.18.316,task,2021.1.4,Win32,60.24096386,6299f149e92ead563fba08ef,62a442261de0783e131bedde,,,,,,,,,,,,,,,,,,,,,,,,,,,,,,,,,,,,,,,,,,,,,,,,,,,,,,,,,,,,,,,,,,,,,,,,,,,,,,,,,,,,,,,,,,,,,,,,,,,,,
,,,,,,,,,,,,5f05c47cf4abed071ef4f83c,29,Mężczyzna,2022-06-11_09h20.18.316,task,2021.1.4,Win32,60.24096386,6299f149e92ead563fba08ef,62a442261de0783e131bedde,vcxsbsp,"[""v"",""c"",""x"",""s"",""b"",""s"",""p""]","[1.5973999999761475,1.7972999999523154,2.1802000000476767,2.779700000047683,3.0196000000238428,3.195999999999998,6.123500000000007,6.611600000023856]",0,VCXSBSF,13,0,13,0,1,,,,,,,,,,,,,,,,,,,,,,,,,,,,,,,,,,,,,,,,,,,,,,,,,,,,,,,,,,,,,,,,,,,,,,,,,,,,,,,,,,,,,,,,,,,
,,,,,,,,,,,,5f05c47cf4abed071ef4f83c,29,Mężczyzna,2022-06-11_09h20.18.316,task,2021.1.4,Win32,60.24096386,6299f149e92ead563fba08ef,62a442261de0783e131bedde,,,,,,,,,,,space,11.8857,8,"[""8""]",1,[5.841499999999996],[5.841499999999996],0,0,0,8,1,Practice,9,(3x3) - 1,8,,,,,,,,,,,,,,,,,,,,,,,,,,,,,,,,,,,,,,,,,,,,,,,,,,,,,,,,,,,,,,,,,,,,,,,,,,,
,,,,,,,,,,,,5f05c47cf4abed071ef4f83c,29,Mężczyzna,2022-06-11_09h20.18.316,task,2021.1.4,Win32,60.24096386,6299f149e92ead563fba08ef,62a442261de0783e131bedde,,,,,,,,,,,,,1,"[""1""]",1,[2.6267999999523113],"[5.841499999999996,2.6267999999523113]",0,1,1,1,1,Practice,2,(4x4) - 15,1,,,,,,,,,,,,,,,,,,,,,,,,,,,,,,,,,,,,,,,,,,,,,,,,,,,,,,,,,,,,,,,,,,,,,,,,,,,
,,,,,,,,,,,,5f05c47cf4abed071ef4f83c,29,Mężczyzna,2022-06-11_09h20.18.316,task,2021.1.4,Win32,60.24096386,6299f149e92ead563fba08ef,62a442261de0783e131bedde,,,,,,,,,,,,,7,"[""7""]",1,[3.379600000023828],"[5.841499999999996,2.6267999999523113,3.379600000023828]",0,2,2,7,1,Practice,8,(5x5) - 18,7,,,,,,,,,,,,,,,,,,,,,,,,,,,,,,,,,,,,,,,,,,,,,,,,,,,,,,,,,,,,,,,,,,,,,,,,,,,
,,,,,,,,,,,,5f05c47cf4abed071ef4f83c,29,Mężczyzna,2022-06-11_09h20.18.316,task,2021.1.4,Win32,60.24096386,6299f149e92ead563fba08ef,62a442261de0783e131bedde,,,,,,,,,,,,,6,"[""6""]",1,[2.8731999999284596],"[5.841499999999996,2.6267999999523113,3.379600000023828,2.8731999999284596]",0,3,3,6,1,Practice,7,(25/5) + 1,6,,,,,,,,,,,,,,,,,,,,,,,,,,,,,,,,,,,,,,,,,,,,,,,,,,,,,,,,,,,,,,,,,,,,,,,,,,,
,,,,,,,,,,,,5f05c47cf4abed071ef4f83c,29,Mężczyzna,2022-06-11_09h20.18.316,task,2021.1.4,Win32,60.24096386,6299f149e92ead563fba08ef,62a442261de0783e131bedde,,,,,,,,,,,,,5,"[""5""]",1,[3.146000000000015],"[5.841499999999996,2.6267999999523113,3.379600000023828,2.8731999999284596,3.146000000000015]",0,4,4,5,1,Practice,6,(4/2) + 3,5,,,,,,,,,,,,,,,,,,,,,,,,,,,,,,,,,,,,,,,,,,,,,,,,,,,,,,,,,,,,,,,,,,,,,,,,,,,
,,,,,,,,,,,,5f05c47cf4abed071ef4f83c,29,Mężczyzna,2022-06-11_09h20.18.316,task,2021.1.4,Win32,60.24096386,6299f149e92ead563fba08ef,62a442261de0783e131bedde,,,,,,,,,,,,,0,"[""0""]",1,[3.999699999928481],"[5.841499999999996,2.6267999999523113,3.379600000023828,2.8731999999284596,3.146000000000015,3.999699999928481]",0,5,5,0,1,Practice,1,(3x3) -  9,0,,,,,,,,,,,,,,,,,,,,,,,,,,,,,,,,,,,,,,,,,,,,,,,,,,,,,,,,,,,,,,,,,,,,,,,,,,,
,,,,,,,,,,,,5f05c47cf4abed071ef4f83c,29,Mężczyzna,2022-06-11_09h20.18.316,task,2021.1.4,Win32,60.24096386,6299f149e92ead563fba08ef,62a442261de0783e131bedde,,,,,,,,,,,,,4,"[""4""]",1,[2.555499999999995],"[5.841499999999996,2.6267999999523113,3.379600000023828,2.8731999999284596,3.146000000000015,3.999699999928481,2.555499999999995]",0,6,6,4,1,Practice,5,(2x6) - 8,4,,,,,,,,,,,,,,,,,,,,,,,,,,,,,,,,,,,,,,,,,,,,,,,,,,,,,,,,,,,,,,,,,,,,,,,,,,,
,,,,,,,,,,,,5f05c47cf4abed071ef4f83c,29,Mężczyzna,2022-06-11_09h20.18.316,task,2021.1.4,Win32,60.24096386,6299f149e92ead563fba08ef,62a442261de0783e131bedde,,,,,,,,,,,,,9,"[""9""]",1,[1.8485000000000014],"[5.841499999999996,2.6267999999523113,3.379600000023828,2.8731999999284596,3.146000000000015,3.999699999928481,2.555499999999995,1.8485000000000014]",0,7,7,9,1,Practice,10,(20/2) - 1,9,,,,,,,,,,,,,,,,,,,,,,,,,,,,,,,,,,,,,,,,,,,,,,,,,,,,,,,,,,,,,,,,,,,,,,,,,,,
,,,,,,,,,,,,5f05c47cf4abed071ef4f83c,29,Mężczyzna,2022-06-11_09h20.18.316,task,2021.1.4,Win32,60.24096386,6299f149e92ead563fba08ef,62a442261de0783e131bedde,,,,,,,,,,,,,3,"[""3""]",1,[3.489399999976172],"[5.841499999999996,2.6267999999523113,3.379600000023828,2.8731999999284596,3.146000000000015,3.999699999928481,2.555499999999995,1.8485000000000014,3.489399999976172]",0,8,8,3,1,Practice,4,(8/4) + 1,3,,,,,,,,,,,,,,,,,,,,,,,,,,,,,,,,,,,,,,,,,,,,,,,,,,,,,,,,,,,,,,,,,,,,,,,,,,,
,,,,,,,,,,,,5f05c47cf4abed071ef4f83c,29,Mężczyzna,2022-06-11_09h20.18.316,task,2021.1.4,Win32,60.24096386,6299f149e92ead563fba08ef,62a442261de0783e131bedde,,,,,,,,,,,,,2,"[""2""]",1,[2.025499999999994],"[5.841499999999996,2.6267999999523113,3.379600000023828,2.8731999999284596,3.146000000000015,3.999699999928481,2.555499999999995,1.8485000000000014,3.489399999976172,2.025499999999994]",0,9,9,2,1,Practice,3,(4x4) - 14,2,,,,,,,,,,,,,,,,,,,,,,,,,,,,,,,,,,,,,,,,,,,,,,,,,,,,,,,,,,,,,,,,,,,,,,,,,,,
,,,,,,,,,,,,5f05c47cf4abed071ef4f83c,29,Mężczyzna,2022-06-11_09h20.18.316,task,2021.1.4,Win32,60.24096386,6299f149e92ead563fba08ef,62a442261de0783e131bedde,,,,,,,,,,,,,,,,,,,,,,,,,,,1,31.7857,2.119046667,23.01401058,1.238655469,5.314777778,space,1.0688,0,0,0,0,1,,,,,,,,,,,,,,,,,,,,,,,,,,,,,,,,,,,,,,,,,,,,,,,,,,,,,,,,,,,,,,
,,,,,,,,,,,,5f05c47cf4abed071ef4f83c,29,Mężczyzna,2022-06-11_09h20.18.316,task,2021.1.4,Win32,60.24096386,6299f149e92ead563fba08ef,62a442261de0783e131bedde,,,,,,,,,,,,,6,,,,,,,,,,Practice,7,(25/5) + 1,6,,,,,,,,,,,,,,space,13.5102,"[""6""]",1,[2.245200000047646],1,0,0,0,6,1,,,,,,,,,,,,,,,,,,,,,,,,,,,,,,,,,,,,,,,,,,,,,,,,,,,
,,,,,,,,,,,X V Q F H G B L J M P D K C T S W R N Z,5f05c47cf4abed071ef4f83c,29,Mężczyzna,2022-06-11_09h20.18.316,task,2021.1.4,Win32,60.24096386,6299f149e92ead563fba08ef,62a442261de0783e131bedde,,,,,,,,,,,,,,,,,,,,,,,,,,,,,,,,,,,,,,,,,,,,,,,,,,,0,0,0,0,1,,,,,,,,,,,,,,,,,,,,,,,,,,,,,,,,,,,,,,,,,,,,,,
,,,,,,,,,,,,5f05c47cf4abed071ef4f83c,29,Mężczyzna,2022-06-11_09h20.18.316,task,2021.1.4,Win32,60.24096386,6299f149e92ead563fba08ef,62a442261de0783e131bedde,,,,,,,,,,,,,6,,,,,,,,,,Practice,7,(25/5) + 1,6,,,,,,,,,,,,,,,,"[""6""]",1,[4.63900000000001],1,0,0,0,6,1,,,,,,,,,,,,,,,,,,,,,,,,,,,,,,,,,,,,,,,,,,,,,,,,,,,
,,,,,,,,,,,X V Q F H G B L J M P D K C T S W R N Z,5f05c47cf4abed071ef4f83c,29,Mężczyzna,2022-06-11_09h20.18.316,task,2021.1.4,Win32,60.24096386,6299f149e92ead563fba08ef,62a442261de0783e131bedde,,,,,,,,,,,,,,,,,,,,,,,,,,,,,,,,,,,,,,,,,,,,,,,,,,,1,0,1,0,1,,,,,,,,,,,,,,,,,,,,,,,,,,,,,,,,,,,,,,,,,,,,,,
,,,,,,,,,,,,5f05c47cf4abed071ef4f83c,29,Mężczyzna,2022-06-11_09h20.18.316,task,2021.1.4,Win32,60.24096386,6299f149e92ead563fba08ef,62a442261de0783e131bedde,,,,,,,,,,,,,,,,,,,,,,,,,,,,,,,,,,,,,,,,,,,,,,,,,,,,,,,,zm,"[""z"",""m""]",0,"[2.031399999976202,2.2318999999761786,3.0391000000238932]",1,0,0,0,0,1,,,,,,,,,,,,,,,,,,,,,,,,,,,,,,,,,,,,
,,,,,,,,,,,,5f05c47cf4abed071ef4f83c,29,Mężczyzna,2022-06-11_09h20.18.316,task,2021.1.4,Win32,60.24096386,6299f149e92ead563fba08ef,62a442261de0783e131bedde,,,,,,,,,,,,,4,,,,,,,,,,Practice,5,(2x6) - 8,4,,,,,,,,,,,,,,,,"[""4""]",1,[4.039299999952334],1,0,0,0,4,1,,,,,,,,,,,,,,,,,,,,,,,,,,,,,,,,,,,,,,,,,,,,,,,,,,,
,,,,,,,,,,,X V Q F H G B L J M P D K C T S W R N Z,5f05c47cf4abed071ef4f83c,29,Mężczyzna,2022-06-11_09h20.18.316,task,2021.1.4,Win32,60.24096386,6299f149e92ead563fba08ef,62a442261de0783e131bedde,,,,,,,,,,,,,,,,,,,,,,,,,,,,,,,,,,,,,,,,,,,,,,,,,,,0,0,0,0,1,,,,,,,,,,,,,,,,,,,,,,,,,,,,,,,,,,,,,,,,,,,,,,
,,,,,,,,,,,,5f05c47cf4abed071ef4f83c,29,Mężczyzna,2022-06-11_09h20.18.316,task,2021.1.4,Win32,60.24096386,6299f149e92ead563fba08ef,62a442261de0783e131bedde,,,,,,,,,,,,,1,,,,,,,,,,Practice,2,(4x4) - 15,1,,,,,,,,,,,,,,,,"[""1""]",1,[4.554300000071521],1,0,0,0,1,1,,,,,,,,,,,,,,,,,,,,,,,,,,,,,,,,,,,,,,,,,,,,,,,,,,,
,,,,,,,,,,,X V Q F H G B L J M P D K C T S W R N Z,5f05c47cf4abed071ef4f83c,29,Mężczyzna,2022-06-11_09h20.18.316,task,2021.1.4,Win32,60.24096386,6299f149e92ead563fba08ef,62a442261de0783e131bedde,,,,,,,,,,,,,,,,,,,,,,,,,,,,,,,,,,,,,,,,,,,,,,,,,,,1,0,1,0,1,,,,,,,,,,,,,,,,,,,,,,,,,,,,,,,,,,,,,,,,,,,,,,
,,,,,,,,,,,,5f05c47cf4abed071ef4f83c,29,Mężczyzna,2022-06-11_09h20.18.316,task,2021.1.4,Win32,60.24096386,6299f149e92ead563fba08ef,62a442261de0783e131bedde,,,,,,,,,,,,,,,,,,,,,,,,,,,,,,,,,,,,,,,,,,,,,,,,,,,,,,,,sv,"[""s"",""v""]",0,"[2.1995000000000005,2.430899999976134,3.1026000000238128]",1,1,0,1,0,1,,,,,,,,,,,,,,,,,,,,,,,,,,,,,,,,,,,,
,,,,,,,,,,,,5f05c47cf4abed071ef4f83c,29,Mężczyzna,2022-06-11_09h20.18.316,task,2021.1.4,Win32,60.24096386,6299f149e92ead563fba08ef,62a442261de0783e131bedde,,,,,,,,,,,,,7,,,,,,,,,,Practice,8,(5x5) - 18,7,,,,,,,,,,,,,,,,"[""7""]",1,[2.397000000000048],1,0,0,0,7,1,,,,,,,,,,,,,,,,,,,,,,,,,,,,,,,,,,,,,,,,,,,,,,,,,,,
,,,,,,,,,,,X V Q F H G B L J M P D K C T S W R N Z,5f05c47cf4abed071ef4f83c,29,Mężczyzna,2022-06-11_09h20.18.316,task,2021.1.4,Win32,60.24096386,6299f149e92ead563fba08ef,62a442261de0783e131bedde,,,,,,,,,,,,,,,,,,,,,,,,,,,,,,,,,,,,,,,,,,,,,,,,,,,0,0,0,0,1,,,,,,,,,,,,,,,,,,,,,,,,,,,,,,,,,,,,,,,,,,,,,,
,,,,,,,,,,,,5f05c47cf4abed071ef4f83c,29,Mężczyzna,2022-06-11_09h20.18.316,task,2021.1.4,Win32,60.24096386,6299f149e92ead563fba08ef,62a442261de0783e131bedde,,,,,,,,,,,,,5,,,,,,,,,,Practice,6,(4/2) + 3,5,,,,,,,,,,,,,,,,"[""5""]",1,[2.191899999976158],1,0,0,0,5,1,,,,,,,,,,,,,,,,,,,,,,,,,,,,,,,,,,,,,,,,,,,,,,,,,,,
,,,,,,,,,,,X V Q F H G B L J M P D K C T S W R N Z,5f05c47cf4abed071ef4f83c,29,Mężczyzna,2022-06-11_09h20.18.316,task,2021.1.4,Win32,60.24096386,6299f149e92ead563fba08ef,62a442261de0783e131bedde,,,,,,,,,,,,,,,,,,,,,,,,,,,,,,,,,,,,,,,,,,,,,,,,,,,1,0,1,0,1,,,,,,,,,,,,,,,,,,,,,,,,,,,,,,,,,,,,,,,,,,,,,,
,,,,,,,,,,,,5f05c47cf4abed071ef4f83c,29,Mężczyzna,2022-06-11_09h20.18.316,task,2021.1.4,Win32,60.24096386,6299f149e92ead563fba08ef,62a442261de0783e131bedde,,,,,,,,,,,,,,,,,,,,,,,,,,,,,,,,,,,,,,,,,,,,,,,,,,,,,,,,zd,"[""z"",""d""]",0,"[1.6820000000000164,1.9366000000238728,2.440600000023835]",1,2,0,2,0,1,,,,,,,,,,,,,,,,,,,,,,,,,,,,,,,,,,,,
,,,,,,,,,,,,5f05c47cf4abed071ef4f83c,29,Mężczyzna,2022-06-11_09h20.18.316,task,2021.1.4,Win32,60.24096386,6299f149e92ead563fba08ef,62a442261de0783e131bedde,,,,,,,,,,,,,4,,,,,,,,,,Task,28,(2x5) - 6,4,,,,,,,,,,,,,,,,,,,1,,,,,,,,,,,,,,,,,,,,,space,9.435,"[""4""]",1,[2.661599999904638],0,0,0,27,1,,,,,,,,,,,,,,,,,,,,,,,,,,
,,,,,,,,,,,X V Q F H G B L J M P D K C T S W R N Z,5f05c47cf4abed071ef4f83c,29,Mężczyzna,2022-06-11_09h20.18.316,task,2021.1.4,Win32,60.24096386,6299f149e92ead563fba08ef,62a442261de0783e131bedde,,,,,,,,,,,,,,,,,,,,,,,,,,,,,,,,,,,,,,,,,,,,,,,,,,,,,,,,,,,,,,,,,,,,,,,,,,,,0,0,0,0,1,,,,,,,,,,,,,,,,,,,,,
,,,,,,,,,,,,5f05c47cf4abed071ef4f83c,29,Mężczyzna,2022-06-11_09h20.18.316,task,2021.1.4,Win32,60.24096386,6299f149e92ead563fba08ef,62a442261de0783e131bedde,,,,,,,,,,,,,1,,,,,,,,,,Task,9,(3x7) - 20,1,,,,,,,,,,,,,,,,,,,1,,,,,,,,,,,,,,,,,,,,,,,"[""1""]",1,[2.242899999976146],0,0,0,8,1,,,,,,,,,,,,,,,,,,,,,,,,,,
,,,,,,,,,,,X V Q F H G B L J M P D K C T S W R N Z,5f05c47cf4abed071ef4f83c,29,Mężczyzna,2022-06-11_09h20.18.316,task,2021.1.4,Win32,60.24096386,6299f149e92ead563fba08ef,62a442261de0783e131bedde,,,,,,,,,,,,,,,,,,,,,,,,,,,,,,,,,,,,,,,,,,,,,,,,,,,,,,,,,,,,,,,,,,,,,,,,,,,,1,0,1,0,1,,,,,,,,,,,,,,,,,,,,,
,,,,,,,,,,,,5f05c47cf4abed071ef4f83c,29,Mężczyzna,2022-06-11_09h20.18.316,task,2021.1.4,Win32,60.24096386,6299f149e92ead563fba08ef,62a442261de0783e131bedde,,,,,,,,,,,,,,,,,,,,,,,,,,,,,,,,,,,,,,,,,,,,,,,,,,,,,,,,,,,,,,,,,,,,,,,,,,,,,,,,,zd,"[""z"",""d""]",0,"[1.41079999995236,1.7153999999761709,2.490399999976148]",1,ZD,0,0,0,0,1,,,,,,,,,,
,,,,,,,,,,,,5f05c47cf4abed071ef4f83c,29,Mężczyzna,2022-06-11_09h20.18.316,task,2021.1.4,Win32,60.24096386,6299f149e92ead563fba08ef,62a442261de0783e131bedde,,,,,,,,,,,,,9,,,,,,,,,,Task,7,(3x7) - 12,9,,,,,,,,,,,,,,,,,,,1,,,,,,,,,,,,,,,,,,,,,,,"[""9""]",1,[4.774499999999989],0,0,0,6,1,,,,,,,,,,,,,,,,,,,,,,,,,,
,,,,,,,,,,,X V Q F H G B L J M P D K C T S W R N Z,5f05c47cf4abed071ef4f83c,29,Mężczyzna,2022-06-11_09h20.18.316,task,2021.1.4,Win32,60.24096386,6299f149e92ead563fba08ef,62a442261de0783e131bedde,,,,,,,,,,,,,,,,,,,,,,,,,,,,,,,,,,,,,,,,,,,,,,,,,,,,,,,,,,,,,,,,,,,,,,,,,,,,0,0,0,0,1,,,,,,,,,,,,,,,,,,,,,
,,,,,,,,,,,,5f05c47cf4abed071ef4f83c,29,Mężczyzna,2022-06-11_09h20.18.316,task,2021.1.4,Win32,60.24096386,6299f149e92ead563fba08ef,62a442261de0783e131bedde,,,,,,,,,,,,,9,,,,,,,,,,Task,16,(3x8) - 15,9,,,,,,,,,,,,,,,,,,,1,,,,,,,,,,,,,,,,,,,,,,,"[""9""]",1,[3.937000000000012],0,0,0,15,1,,,,,,,,,,,,,,,,,,,,,,,,,,
,,,,,,,,,,,X V Q F H G B L J M P D K C T S W R N Z,5f05c47cf4abed071ef4f83c,29,Mężczyzna,2022-06-11_09h20.18.316,task,2021.1.4,Win32,60.24096386,6299f149e92ead563fba08ef,62a442261de0783e131bedde,,,,,,,,,,,,,,,,,,,,,,,,,,,,,,,,,,,,,,,,,,,,,,,,,,,,,,,,,,,,,,,,,,,,,,,,,,,,1,0,1,0,1,,,,,,,,,,,,,,,,,,,,,
,,,,,,,,,,,,5f05c47cf4abed071ef4f83c,29,Mężczyzna,2022-06-11_09h20.18.316,task,2021.1.4,Win32,60.24096386,6299f149e92ead563fba08ef,62a442261de0783e131bedde,,,,,,,,,,,,,1,,,,,,,,,,Task,34,(9/3) - 2,1,,,,,,,,,,,,,,,,,,,1,,,,,,,,,,,,,,,,,,,,,,,"[""1""]",1,[2.54849999999999],0,0,0,33,1,,,,,,,,,,,,,,,,,,,,,,,,,,
,,,,,,,,,,,X V Q F H G B L J M P D K C T S W R N Z,5f05c47cf4abed071ef4f83c,29,Mężczyzna,2022-06-11_09h20.18.316,task,2021.1.4,Win32,60.24096386,6299f149e92ead563fba08ef,62a442261de0783e131bedde,,,,,,,,,,,,,,,,,,,,,,,,,,,,,,,,,,,,,,,,,,,,,,,,,,,,,,,,,,,,,,,,,,,,,,,,,,,,2,0,2,0,1,,,,,,,,,,,,,,,,,,,,,
,,,,,,,,,,,,5f05c47cf4abed071ef4f83c,29,Mężczyzna,2022-06-11_09h20.18.316,task,2021.1.4,Win32,60.24096386,6299f149e92ead563fba08ef,62a442261de0783e131bedde,,,,,,,,,,,,,,,,,,,,,,,,,,,,,,,,,,,,,,,,,,,,,,,,,,,,,,,,,,,,,,,,,,,,,,,,,,,,,,,,,kfn,"[""k"",""f"",""n""]",0,"[2.376000000000033,2.6555000000000177,2.823500000000024,4.079799999952343]",1,KFN,1,0,1,0,1,,,,,,,,,,
,,,,,,,,,,,,5f05c47cf4abed071ef4f83c,29,Mężczyzna,2022-06-11_09h20.18.316,task,2021.1.4,Win32,60.24096386,6299f149e92ead563fba08ef,62a442261de0783e131bedde,,,,,,,,,,,,,2,,,,,,,,,,Task,2,(2x2) - 2,2,,,,,,,,,,,,,,,,,,,1,,,,,,,,,,,,,,,,,,,,,,,"[""2""]",1,[3.0538999999761813],0,0,0,1,1,,,,,,,,,,,,,,,,,,,,,,,,,,
,,,,,,,,,,,X V Q F H G B L J M P D K C T S W R N Z,5f05c47cf4abed071ef4f83c,29,Mężczyzna,2022-06-11_09h20.18.316,task,2021.1.4,Win32,60.24096386,6299f149e92ead563fba08ef,62a442261de0783e131bedde,,,,,,,,,,,,,,,,,,,,,,,,,,,,,,,,,,,,,,,,,,,,,,,,,,,,,,,,,,,,,,,,,,,,,,,,,,,,0,0,0,0,1,,,,,,,,,,,,,,,,,,,,,
,,,,,,,,,,,,5f05c47cf4abed071ef4f83c,29,Mężczyzna,2022-06-11_09h20.18.316,task,2021.1.4,Win32,60.24096386,6299f149e92ead563fba08ef,62a442261de0783e131bedde,,,,,,,,,,,,,6,,,,,,,,,,Task,5,(2x3) + 0,6,,,,,,,,,,,,,,,,,,,1,,,,,,,,,,,,,,,,,,,,,,,"[""6""]",1,[3.6295000000000073],0,0,0,4,1,,,,,,,,,,,,,,,,,,,,,,,,,,
,,,,,,,,,,,X V Q F H G B L J M P D K C T S W R N Z,5f05c47cf4abed071ef4f83c,29,Mężczyzna,2022-06-11_09h20.18.316,task,2021.1.4,Win32,60.24096386,6299f149e92ead563fba08ef,62a442261de0783e131bedde,,,,,,,,,,,,,,,,,,,,,,,,,,,,,,,,,,,,,,,,,,,,,,,,,,,,,,,,,,,,,,,,,,,,,,,,,,,,1,0,1,0,1,,,,,,,,,,,,,,,,,,,,,
,,,,,,,,,,,,5f05c47cf4abed071ef4f83c,29,Mężczyzna,2022-06-11_09h20.18.316,task,2021.1.4,Win32,60.24096386,6299f149e92ead563fba08ef,62a442261de0783e131bedde,,,,,,,,,,,,,8,,,,,,,,,,Task,39,(5x3) - 7,8,,,,,,,,,,,,,,,,,,,1,,,,,,,,,,,,,,,,,,,,,,,"[""8""]",1,[3.346899999976131],0,0,0,38,1,,,,,,,,,,,,,,,,,,,,,,,,,,
,,,,,,,,,,,X V Q F H G B L J M P D K C T S W R N Z,5f05c47cf4abed071ef4f83c,29,Mężczyzna,2022-06-11_09h20.18.316,task,2021.1.4,Win32,60.24096386,6299f149e92ead563fba08ef,62a442261de0783e131bedde,,,,,,,,,,,,,,,,,,,,,,,,,,,,,,,,,,,,,,,,,,,,,,,,,,,,,,,,,,,,,,,,,,,,,,,,,,,,2,0,2,0,1,,,,,,,,,,,,,,,,,,,,,
,,,,,,,,,,,,5f05c47cf4abed071ef4f83c,29,Mężczyzna,2022-06-11_09h20.18.316,task,2021.1.4,Win32,60.24096386,6299f149e92ead563fba08ef,62a442261de0783e131bedde,,,,,,,,,,,,,,,,,,,,,,,Task,7,(3x7) - 12,9,,,,,,,,,,,,,,,,,,,0,,,,,,,,,,,,,,,,,,,,,,,,0,,0,0,0,6,1,,,,,,,,,,,,,,,,,,,,,,,,,,
,,,,,,,,,,,,5f05c47cf4abed071ef4f83c,29,Mężczyzna,2022-06-11_09h20.18.316,task,2021.1.4,Win32,60.24096386,6299f149e92ead563fba08ef,62a442261de0783e131bedde,,,,,,,,,,,,,9,,,,,,,,,,Task,40,(7x2) - 5,9,,,,,,,,,,,,,,,,,,,1,,,,,,,,,,,,,,,,,,,,,,,"[""9""]",1,[2.9388999999761154],0,1,1,39,1,,,,,,,,,,,,,,,,,,,,,,,,,,
,,,,,,,,,,,X V Q F H G B L J M P D K C T S W R N Z,5f05c47cf4abed071ef4f83c,29,Mężczyzna,2022-06-11_09h20.18.316,task,2021.1.4,Win32,60.24096386,6299f149e92ead563fba08ef,62a442261de0783e131bedde,,,,,,,,,,,,,,,,,,,,,,,,,,,,,,,,,,,,,,,,,,,,,,,,,,,,,,,,,,,,,,,,,,,,,,,,,,,,3,0,3,0,1,,,,,,,,,,,,,,,,,,,,,
,,,,,,,,,,,,5f05c47cf4abed071ef4f83c,29,Mężczyzna,2022-06-11_09h20.18.316,task,2021.1.4,Win32,60.24096386,6299f149e92ead563fba08ef,62a442261de0783e131bedde,,,,,,,,,,,,,,,,,,,,,,,,,,,,,,,,,,,,,,,,,,,,,,,,,,,,,,,,,,,,,,,,,,,,,,,,,,,,,,,,,qvrg,"[""q"",""v"",""r"",""g""]",0,"[2.0643999999761604,2.502999999999986,2.8387000000477087,3.0968999999761877,4.064000000000021]",1,QVRG,2,0,2,0,1,,,,,,,,,,
,,,,,,,,,,,,5f05c47cf4abed071ef4f83c,29,Mężczyzna,2022-06-11_09h20.18.316,task,2021.1.4,Win32,60.24096386,6299f149e92ead563fba08ef,62a442261de0783e131bedde,,,,,,,,,,,,,8,,,,,,,,,,Task,15,(3x7) - 13,8,,,,,,,,,,,,,,,,,,,1,,,,,,,,,,,,,,,,,,,,,,,"[""8""]",1,[3.165200000047662],0,0,0,14,1,,,,,,,,,,,,,,,,,,,,,,,,,,
,,,,,,,,,,,X V Q F H G B L J M P D K C T S W R N Z,5f05c47cf4abed071ef4f83c,29,Mężczyzna,2022-06-11_09h20.18.316,task,2021.1.4,Win32,60.24096386,6299f149e92ead563fba08ef,62a442261de0783e131bedde,,,,,,,,,,,,,,,,,,,,,,,,,,,,,,,,,,,,,,,,,,,,,,,,,,,,,,,,,,,,,,,,,,,,,,,,,,,,0,0,0,0,1,,,,,,,,,,,,,,,,,,,,,
,,,,,,,,,,,,5f05c47cf4abed071ef4f83c,29,Mężczyzna,2022-06-11_09h20.18.316,task,2021.1.4,Win32,60.24096386,6299f149e92ead563fba08ef,62a442261de0783e131bedde,,,,,,,,,,,,,4,,,,,,,,,,Task,4,(1x5) - 1,4,,,,,,,,,,,,,,,,,,,1,,,,,,,,,,,,,,,,,,,,,,,"[""4""]",1,[1.7262000000476974],0,0,0,3,1,,,,,,,,,,,,,,,,,,,,,,,,,,
,,,,,,,,,,,X V Q F H G B L J M P D K C T S W R N Z,5f05c47cf4abed071ef4f83c,29,Mężczyzna,2022-06-11_09h20.18.316,task,2021.1.4,Win32,60.24096386,6299f149e92ead563fba08ef,62a442261de0783e131bedde,,,,,,,,,,,,,,,,,,,,,,,,,,,,,,,,,,,,,,,,,,,,,,,,,,,,,,,,,,,,,,,,,,,,,,,,,,,,1,0,1,0,1,,,,,,,,,,,,,,,,,,,,,
,,,,,,,,,,,,5f05c47cf4abed071ef4f83c,29,Mężczyzna,2022-06-11_09h20.18.316,task,2021.1.4,Win32,60.24096386,6299f149e92ead563fba08ef,62a442261de0783e131bedde,,,,,,,,,,,,,1,,,,,,,,,,Task,18,(16/4) - 3,1,,,,,,,,,,,,,,,,,,,1,,,,,,,,,,,,,,,,,,,,,,,"[""1""]",1,[1.4736000000237937],0,0,0,17,1,,,,,,,,,,,,,,,,,,,,,,,,,,
,,,,,,,,,,,X V Q F H G B L J M P D K C T S W R N Z,5f05c47cf4abed071ef4f83c,29,Mężczyzna,2022-06-11_09h20.18.316,task,2021.1.4,Win32,60.24096386,6299f149e92ead563fba08ef,62a442261de0783e131bedde,,,,,,,,,,,,,,,,,,,,,,,,,,,,,,,,,,,,,,,,,,,,,,,,,,,,,,,,,,,,,,,,,,,,,,,,,,,,2,0,2,0,1,,,,,,,,,,,,,,,,,,,,,
,,,,,,,,,,,,5f05c47cf4abed071ef4f83c,29,Mężczyzna,2022-06-11_09h20.18.316,task,2021.1.4,Win32,60.24096386,6299f149e92ead563fba08ef,62a442261de0783e131bedde,,,,,,,,,,,,,4,,,,,,,,,,Task,4,(1x5) - 1,4,,,,,,,,,,,,,,,,,,,1,,,,,,,,,,,,,,,,,,,,,,,"[""4""]",1,[1.6065000000000396],0,0,0,3,1,,,,,,,,,,,,,,,,,,,,,,,,,,
,,,,,,,,,,,X V Q F H G B L J M P D K C T S W R N Z,5f05c47cf4abed071ef4f83c,29,Mężczyzna,2022-06-11_09h20.18.316,task,2021.1.4,Win32,60.24096386,6299f149e92ead563fba08ef,62a442261de0783e131bedde,,,,,,,,,,,,,,,,,,,,,,,,,,,,,,,,,,,,,,,,,,,,,,,,,,,,,,,,,,,,,,,,,,,,,,,,,,,,3,0,3,0,1,,,,,,,,,,,,,,,,,,,,,
,,,,,,,,,,,,5f05c47cf4abed071ef4f83c,29,Mężczyzna,2022-06-11_09h20.18.316,task,2021.1.4,Win32,60.24096386,6299f149e92ead563fba08ef,62a442261de0783e131bedde,,,,,,,,,,,,,3,,,,,,,,,,Task,35,(1x2) + 1,3,,,,,,,,,,,,,,,,,,,1,,,,,,,,,,,,,,,,,,,,,,,"[""3""]",1,[2.206199999928515],0,0,0,34,1,,,,,,,,,,,,,,,,,,,,,,,,,,
,,,,,,,,,,,X V Q F H G B L J M P D K C T S W R N Z,5f05c47cf4abed071ef4f83c,29,Mężczyzna,2022-06-11_09h20.18.316,task,2021.1.4,Win32,60.24096386,6299f149e92ead563fba08ef,62a442261de0783e131bedde,,,,,,,,,,,,,,,,,,,,,,,,,,,,,,,,,,,,,,,,,,,,,,,,,,,,,,,,,,,,,,,,,,,,,,,,,,,,4,0,4,0,1,,,,,,,,,,,,,,,,,,,,,
,,,,,,,,,,,,5f05c47cf4abed071ef4f83c,29,Mężczyzna,2022-06-11_09h20.18.316,task,2021.1.4,Win32,60.24096386,6299f149e92ead563fba08ef,62a442261de0783e131bedde,,,,,,,,,,,,,,,,,,,,,,,,,,,,,,,,,,,,,,,,,,,,,,,,,,,,,,,,,,,,,,,,,,,,,,,,,,,,,,,,,dxtxt,"[""d"",""x"",""t"",""x"",""t""]",0,"[2.2477000000476437,2.5184999999999604,2.880400000095335,3.334400000095343,5.198499999999967,5.766200000047661]",1,DXTXT,3,0,3,0,1,,,,,,,,,,
,,,,,,,,,,,,5f05c47cf4abed071ef4f83c,29,Mężczyzna,2022-06-11_09h20.18.316,task,2021.1.4,Win32,60.24096386,6299f149e92ead563fba08ef,62a442261de0783e131bedde,,,,,,,,,,,,,3,,,,,,,,,,Task,3,(2x3) - 3,3,,,,,,,,,,,,,,,,,,,1,,,,,,,,,,,,,,,,,,,,,,,"[""3""]",1,[2.475399999976162],0,0,0,2,1,,,,,,,,,,,,,,,,,,,,,,,,,,
,,,,,,,,,,,X V Q F H G B L J M P D K C T S W R N Z,5f05c47cf4abed071ef4f83c,29,Mężczyzna,2022-06-11_09h20.18.316,task,2021.1.4,Win32,60.24096386,6299f149e92ead563fba08ef,62a442261de0783e131bedde,,,,,,,,,,,,,,,,,,,,,,,,,,,,,,,,,,,,,,,,,,,,,,,,,,,,,,,,,,,,,,,,,,,,,,,,,,,,0,0,0,0,1,,,,,,,,,,,,,,,,,,,,,
,,,,,,,,,,,,5f05c47cf4abed071ef4f83c,29,Mężczyzna,2022-06-11_09h20.18.316,task,2021.1.4,Win32,60.24096386,6299f149e92ead563fba08ef,62a442261de0783e131bedde,,,,,,,,,,,,,9,,,,,,,,,,Task,40,(7x2) - 5,9,,,,,,,,,,,,,,,,,,,1,,,,,,,,,,,,,,,,,,,,,,,"[""9""]",1,[2.6407000000477296],0,0,0,39,1,,,,,,,,,,,,,,,,,,,,,,,,,,
,,,,,,,,,,,X V Q F H G B L J M P D K C T S W R N Z,5f05c47cf4abed071ef4f83c,29,Mężczyzna,2022-06-11_09h20.18.316,task,2021.1.4,Win32,60.24096386,6299f149e92ead563fba08ef,62a442261de0783e131bedde,,,,,,,,,,,,,,,,,,,,,,,,,,,,,,,,,,,,,,,,,,,,,,,,,,,,,,,,,,,,,,,,,,,,,,,,,,,,1,0,1,0,1,,,,,,,,,,,,,,,,,,,,,
,,,,,,,,,,,,5f05c47cf4abed071ef4f83c,29,Mężczyzna,2022-06-11_09h20.18.316,task,2021.1.4,Win32,60.24096386,6299f149e92ead563fba08ef,62a442261de0783e131bedde,,,,,,,,,,,,,5,,,,,,,,,,Task,22,(3x1) + 2,5,,,,,,,,,,,,,,,,,,,1,,,,,,,,,,,,,,,,,,,,,,,"[""5""]",1,[1.863200000047641],0,0,0,21,1,,,,,,,,,,,,,,,,,,,,,,,,,,
,,,,,,,,,,,X V Q F H G B L J M P D K C T S W R N Z,5f05c47cf4abed071ef4f83c,29,Mężczyzna,2022-06-11_09h20.18.316,task,2021.1.4,Win32,60.24096386,6299f149e92ead563fba08ef,62a442261de0783e131bedde,,,,,,,,,,,,,,,,,,,,,,,,,,,,,,,,,,,,,,,,,,,,,,,,,,,,,,,,,,,,,,,,,,,,,,,,,,,,2,0,2,0,1,,,,,,,,,,,,,,,,,,,,,
,,,,,,,,,,,,5f05c47cf4abed071ef4f83c,29,Mężczyzna,2022-06-11_09h20.18.316,task,2021.1.4,Win32,60.24096386,6299f149e92ead563fba08ef,62a442261de0783e131bedde,,,,,,,,,,,,,7,,,,,,,,,,Task,6,(12/2) + 1,7,,,,,,,,,,,,,,,,,,,1,,,,,,,,,,,,,,,,,,,,,,,"[""7""]",1,[2.8138999999761722],0,0,0,5,1,,,,,,,,,,,,,,,,,,,,,,,,,,
,,,,,,,,,,,X V Q F H G B L J M P D K C T S W R N Z,5f05c47cf4abed071ef4f83c,29,Mężczyzna,2022-06-11_09h20.18.316,task,2021.1.4,Win32,60.24096386,6299f149e92ead563fba08ef,62a442261de0783e131bedde,,,,,,,,,,,,,,,,,,,,,,,,,,,,,,,,,,,,,,,,,,,,,,,,,,,,,,,,,,,,,,,,,,,,,,,,,,,,3,0,3,0,1,,,,,,,,,,,,,,,,,,,,,
,,,,,,,,,,,,5f05c47cf4abed071ef4f83c,29,Mężczyzna,2022-06-11_09h20.18.316,task,2021.1.4,Win32,60.24096386,6299f149e92ead563fba08ef,62a442261de0783e131bedde,,,,,,,,,,,,,0,,,,,,,,,,Task,33,(1/1) - 1,0,,,,,,,,,,,,,,,,,,,1,,,,,,,,,,,,,,,,,,,,,,,"[""0""]",1,[3.2056000000238782],0,0,0,32,1,,,,,,,,,,,,,,,,,,,,,,,,,,
,,,,,,,,,,,X V Q F H G B L J M P D K C T S W R N Z,5f05c47cf4abed071ef4f83c,29,Mężczyzna,2022-06-11_09h20.18.316,task,2021.1.4,Win32,60.24096386,6299f149e92ead563fba08ef,62a442261de0783e131bedde,,,,,,,,,,,,,,,,,,,,,,,,,,,,,,,,,,,,,,,,,,,,,,,,,,,,,,,,,,,,,,,,,,,,,,,,,,,,4,0,4,0,1,,,,,,,,,,,,,,,,,,,,,
,,,,,,,,,,,,5f05c47cf4abed071ef4f83c,29,Mężczyzna,2022-06-11_09h20.18.316,task,2021.1.4,Win32,60.24096386,6299f149e92ead563fba08ef,62a442261de0783e131bedde,,,,,,,,,,,,,3,,,,,,,,,,Task,20,(18/9) + 1,3,,,,,,,,,,,,,,,,,,,1,,,,,,,,,,,,,,,,,,,,,,,"[""3""]",1,[1.9513999999761609],0,0,0,19,1,,,,,,,,,,,,,,,,,,,,,,,,,,
,,,,,,,,,,,X V Q F H G B L J M P D K C T S W R N Z,5f05c47cf4abed071ef4f83c,29,Mężczyzna,2022-06-11_09h20.18.316,task,2021.1.4,Win32,60.24096386,6299f149e92ead563fba08ef,62a442261de0783e131bedde,,,,,,,,,,,,,,,,,,,,,,,,,,,,,,,,,,,,,,,,,,,,,,,,,,,,,,,,,,,,,,,,,,,,,,,,,,,,5,0,5,0,1,,,,,,,,,,,,,,,,,,,,,
,,,,,,,,,,,,5f05c47cf4abed071ef4f83c,29,Mężczyzna,2022-06-11_09h20.18.316,task,2021.1.4,Win32,60.24096386,6299f149e92ead563fba08ef,62a442261de0783e131bedde,,,,,,,,,,,,,,,,,,,,,,,,,,,,,,,,,,,,,,,,,,,,,,,,,,,,,,,,,,,,,,,,,,,,,,,,,,,,,,,,,nhknzg,"[""n"",""h"",""k"",""n"",""z"",""g""]",0,"[2.314200000047663,2.601400000095339,3.6333000000715288,4.36270000004771,5.329600000023845,6.305300000071497,7.20970000004769]",1,NHKNZG,4,0,4,0,1,,,,,,,,,,
,,,,,,,,,,,,5f05c47cf4abed071ef4f83c,29,Mężczyzna,2022-06-11_09h20.18.316,task,2021.1.4,Win32,60.24096386,6299f149e92ead563fba08ef,62a442261de0783e131bedde,,,,,,,,,,,,,0,,,,,,,,,,Task,17,(2x3) - 6,0,,,,,,,,,,,,,,,,,,,1,,,,,,,,,,,,,,,,,,,,,,,"[""0""]",1,[2.516600000023857],0,0,0,16,1,,,,,,,,,,,,,,,,,,,,,,,,,,
,,,,,,,,,,,X V Q F H G B L J M P D K C T S W R N Z,5f05c47cf4abed071ef4f83c,29,Mężczyzna,2022-06-11_09h20.18.316,task,2021.1.4,Win32,60.24096386,6299f149e92ead563fba08ef,62a442261de0783e131bedde,,,,,,,,,,,,,,,,,,,,,,,,,,,,,,,,,,,,,,,,,,,,,,,,,,,,,,,,,,,,,,,,,,,,,,,,,,,,0,0,0,0,1,,,,,,,,,,,,,,,,,,,,,
,,,,,,,,,,,,5f05c47cf4abed071ef4f83c,29,Mężczyzna,2022-06-11_09h20.18.316,task,2021.1.4,Win32,60.24096386,6299f149e92ead563fba08ef,62a442261de0783e131bedde,,,,,,,,,,,,,2,,,,,,,,,,Task,2,(2x2) - 2,2,,,,,,,,,,,,,,,,,,,1,,,,,,,,,,,,,,,,,,,,,,,"[""2""]",1,[2.648200000047666],0,0,0,1,1,,,,,,,,,,,,,,,,,,,,,,,,,,
,,,,,,,,,,,X V Q F H G B L J M P D K C T S W R N Z,5f05c47cf4abed071ef4f83c,29,Mężczyzna,2022-06-11_09h20.18.316,task,2021.1.4,Win32,60.24096386,6299f149e92ead563fba08ef,62a442261de0783e131bedde,,,,,,,,,,,,,,,,,,,,,,,,,,,,,,,,,,,,,,,,,,,,,,,,,,,,,,,,,,,,,,,,,,,,,,,,,,,,1,0,1,0,1,,,,,,,,,,,,,,,,,,,,,
,,,,,,,,,,,,5f05c47cf4abed071ef4f83c,29,Mężczyzna,2022-06-11_09h20.18.316,task,2021.1.4,Win32,60.24096386,6299f149e92ead563fba08ef,62a442261de0783e131bedde,,,,,,,,,,,,,6,,,,,,,,,,Task,30,(6/3) + 4 ,6,,,,,,,,,,,,,,,,,,,1,,,,,,,,,,,,,,,,,,,,,,,"[""6""]",1,[3.776200000047652],0,0,0,29,1,,,,,,,,,,,,,,,,,,,,,,,,,,
,,,,,,,,,,,X V Q F H G B L J M P D K C T S W R N Z,5f05c47cf4abed071ef4f83c,29,Mężczyzna,2022-06-11_09h20.18.316,task,2021.1.4,Win32,60.24096386,6299f149e92ead563fba08ef,62a442261de0783e131bedde,,,,,,,,,,,,,,,,,,,,,,,,,,,,,,,,,,,,,,,,,,,,,,,,,,,,,,,,,,,,,,,,,,,,,,,,,,,,2,0,2,0,1,,,,,,,,,,,,,,,,,,,,,
,,,,,,,,,,,,5f05c47cf4abed071ef4f83c,29,Mężczyzna,2022-06-11_09h20.18.316,task,2021.1.4,Win32,60.24096386,6299f149e92ead563fba08ef,62a442261de0783e131bedde,,,,,,,,,,,,,2,,,,,,,,,,Task,2,(2x2) - 2,2,,,,,,,,,,,,,,,,,,,1,,,,,,,,,,,,,,,,,,,,,,,"[""2""]",1,[3.8316000000238546],0,0,0,1,1,,,,,,,,,,,,,,,,,,,,,,,,,,
,,,,,,,,,,,X V Q F H G B L J M P D K C T S W R N Z,5f05c47cf4abed071ef4f83c,29,Mężczyzna,2022-06-11_09h20.18.316,task,2021.1.4,Win32,60.24096386,6299f149e92ead563fba08ef,62a442261de0783e131bedde,,,,,,,,,,,,,,,,,,,,,,,,,,,,,,,,,,,,,,,,,,,,,,,,,,,,,,,,,,,,,,,,,,,,,,,,,,,,3,0,3,0,1,,,,,,,,,,,,,,,,,,,,,
,,,,,,,,,,,,5f05c47cf4abed071ef4f83c,29,Mężczyzna,2022-06-11_09h20.18.316,task,2021.1.4,Win32,60.24096386,6299f149e92ead563fba08ef,62a442261de0783e131bedde,,,,,,,,,,,,,7,,,,,,,,,,Task,38,(4x6) - 17,7,,,,,,,,,,,,,,,,,,,1,,,,,,,,,,,,,,,,,,,,,,,"[""7""]",1,[4.5715000000000146],0,0,0,37,1,,,,,,,,,,,,,,,,,,,,,,,,,,
,,,,,,,,,,,X V Q F H G B L J M P D K C T S W R N Z,5f05c47cf4abed071ef4f83c,29,Mężczyzna,2022-06-11_09h20.18.316,task,2021.1.4,Win32,60.24096386,6299f149e92ead563fba08ef,62a442261de0783e131bedde,,,,,,,,,,,,,,,,,,,,,,,,,,,,,,,,,,,,,,,,,,,,,,,,,,,,,,,,,,,,,,,,,,,,,,,,,,,,4,0,4,0,1,,,,,,,,,,,,,,,,,,,,,
,,,,,,,,,,,,5f05c47cf4abed071ef4f83c,29,Mężczyzna,2022-06-11_09h20.18.316,task,2021.1.4,Win32,60.24096386,6299f149e92ead563fba08ef,62a442261de0783e131bedde,,,,,,,,,,,,,3,,,,,,,,,,Task,35,(1x2) + 1,3,,,,,,,,,,,,,,,,,,,1,,,,,,,,,,,,,,,,,,,,,,,"[""3""]",1,[2.7438000000715306],0,0,0,34,1,,,,,,,,,,,,,,,,,,,,,,,,,,
,,,,,,,,,,,X V Q F H G B L J M P D K C T S W R N Z,5f05c47cf4abed071ef4f83c,29,Mężczyzna,2022-06-11_09h20.18.316,task,2021.1.4,Win32,60.24096386,6299f149e92ead563fba08ef,62a442261de0783e131bedde,,,,,,,,,,,,,,,,,,,,,,,,,,,,,,,,,,,,,,,,,,,,,,,,,,,,,,,,,,,,,,,,,,,,,,,,,,,,5,0,5,0,1,,,,,,,,,,,,,,,,,,,,,
,,,,,,,,,,,,5f05c47cf4abed071ef4f83c,29,Mężczyzna,2022-06-11_09h20.18.316,task,2021.1.4,Win32,60.24096386,6299f149e92ead563fba08ef,62a442261de0783e131bedde,,,,,,,,,,,,,5,,,,,,,,,,Task,29,(3x8) - 19 ,5,,,,,,,,,,,,,,,,,,,1,,,,,,,,,,,,,,,,,,,,,,,"[""5""]",1,[4.434600000023806],0,0,0,28,1,,,,,,,,,,,,,,,,,,,,,,,,,,
,,,,,,,,,,,X V Q F H G B L J M P D K C T S W R N Z,5f05c47cf4abed071ef4f83c,29,Mężczyzna,2022-06-11_09h20.18.316,task,2021.1.4,Win32,60.24096386,6299f149e92ead563fba08ef,62a442261de0783e131bedde,,,,,,,,,,,,,,,,,,,,,,,,,,,,,,,,,,,,,,,,,,,,,,,,,,,,,,,,,,,,,,,,,,,,,,,,,,,,6,0,6,0,1,,,,,,,,,,,,,,,,,,,,,
,,,,,,,,,,,,5f05c47cf4abed071ef4f83c,29,Mężczyzna,2022-06-11_09h20.18.316,task,2021.1.4,Win32,60.24096386,6299f149e92ead563fba08ef,62a442261de0783e131bedde,,,,,,,,,,,,,,,,,,,,,,,,,,,,,,,,,,,,,,,,,,,,,,,,,,,,,,,,,,,,,,,,,,,,,,,,,,,,,,,,,vlxrmsr,"[""v"",""l"",""x"",""r"",""m"",""s"",""r""]",0,"[1.971200000047702,2.2271000000239383,2.53189999997619,3.3232999999523827,3.9640000000000555,4.228899999976193,4.507299999952352,5.707200000047692]",1,VLXRMSR,5,0,5,0,1,,,,,,,,,,
,,,,,,,,,,,,5f05c47cf4abed071ef4f83c,29,Mężczyzna,2022-06-11_09h20.18.316,task,2021.1.4,Win32,60.24096386,6299f149e92ead563fba08ef,62a442261de0783e131bedde,,,,,,,,,,,,,5,,,,,,,,,,Task,22,(3x1) + 2,5,,,,,,,,,,,,,,,,,,,1,,,,,,,,,,,,,,,,,,,,,,,"[""5""]",1,[3.2363000000715374],0,0,0,21,1,,,,,,,,,,,,,,,,,,,,,,,,,,
,,,,,,,,,,,X V Q F H G B L J M P D K C T S W R N Z,5f05c47cf4abed071ef4f83c,29,Mężczyzna,2022-06-11_09h20.18.316,task,2021.1.4,Win32,60.24096386,6299f149e92ead563fba08ef,62a442261de0783e131bedde,,,,,,,,,,,,,,,,,,,,,,,,,,,,,,,,,,,,,,,,,,,,,,,,,,,,,,,,,,,,,,,,,,,,,,,,,,,,0,0,0,0,1,,,,,,,,,,,,,,,,,,,,,
,,,,,,,,,,,,5f05c47cf4abed071ef4f83c,29,Mężczyzna,2022-06-11_09h20.18.316,task,2021.1.4,Win32,60.24096386,6299f149e92ead563fba08ef,62a442261de0783e131bedde,,,,,,,,,,,,,9,,,,,,,,,,Task,7,(3x7) - 12,9,,,,,,,,,,,,,,,,,,,1,,,,,,,,,,,,,,,,,,,,,,,"[""9""]",1,[4.28449999999998],0,0,0,6,1,,,,,,,,,,,,,,,,,,,,,,,,,,
,,,,,,,,,,,X V Q F H G B L J M P D K C T S W R N Z,5f05c47cf4abed071ef4f83c,29,Mężczyzna,2022-06-11_09h20.18.316,task,2021.1.4,Win32,60.24096386,6299f149e92ead563fba08ef,62a442261de0783e131bedde,,,,,,,,,,,,,,,,,,,,,,,,,,,,,,,,,,,,,,,,,,,,,,,,,,,,,,,,,,,,,,,,,,,,,,,,,,,,1,0,1,0,1,,,,,,,,,,,,,,,,,,,,,
,,,,,,,,,,,,5f05c47cf4abed071ef4f83c,29,Mężczyzna,2022-06-11_09h20.18.316,task,2021.1.4,Win32,60.24096386,6299f149e92ead563fba08ef,62a442261de0783e131bedde,,,,,,,,,,,,,8,,,,,,,,,,Task,15,(3x7) - 13,8,,,,,,,,,,,,,,,,,,,1,,,,,,,,,,,,,,,,,,,,,,,"[""8""]",1,[3.96289999997623],0,0,0,14,1,,,,,,,,,,,,,,,,,,,,,,,,,,
,,,,,,,,,,,X V Q F H G B L J M P D K C T S W R N Z,5f05c47cf4abed071ef4f83c,29,Mężczyzna,2022-06-11_09h20.18.316,task,2021.1.4,Win32,60.24096386,6299f149e92ead563fba08ef,62a442261de0783e131bedde,,,,,,,,,,,,,,,,,,,,,,,,,,,,,,,,,,,,,,,,,,,,,,,,,,,,,,,,,,,,,,,,,,,,,,,,,,,,2,0,2,0,1,,,,,,,,,,,,,,,,,,,,,
,,,,,,,,,,,,5f05c47cf4abed071ef4f83c,29,Mężczyzna,2022-06-11_09h20.18.316,task,2021.1.4,Win32,60.24096386,6299f149e92ead563fba08ef,62a442261de0783e131bedde,,,,,,,,,,,,,7,,,,,,,,,,Task,38,(4x6) - 17,7,,,,,,,,,,,,,,,,,,,1,,,,,,,,,,,,,,,,,,,,,,,"[""7""]",1,[3.6862999999523254],0,0,0,37,1,,,,,,,,,,,,,,,,,,,,,,,,,,
,,,,,,,,,,,X V Q F H G B L J M P D K C T S W R N Z,5f05c47cf4abed071ef4f83c,29,Mężczyzna,2022-06-11_09h20.18.316,task,2021.1.4,Win32,60.24096386,6299f149e92ead563fba08ef,62a442261de0783e131bedde,,,,,,,,,,,,,,,,,,,,,,,,,,,,,,,,,,,,,,,,,,,,,,,,,,,,,,,,,,,,,,,,,,,,,,,,,,,,3,0,3,0,1,,,,,,,,,,,,,,,,,,,,,
,,,,,,,,,,,,5f05c47cf4abed071ef4f83c,29,Mężczyzna,2022-06-11_09h20.18.316,task,2021.1.4,Win32,60.24096386,6299f149e92ead563fba08ef,62a442261de0783e131bedde,,,,,,,,,,,,,8,,,,,,,,,,Task,15,(3x7) - 13,8,,,,,,,,,,,,,,,,,,,1,,,,,,,,,,,,,,,,,,,,,,,"[""8""]",1,[3.3563999999761336],0,0,0,14,1,,,,,,,,,,,,,,,,,,,,,,,,,,
,,,,,,,,,,,X V Q F H G B L J M P D K C T S W R N Z,5f05c47cf4abed071ef4f83c,29,Mężczyzna,2022-06-11_09h20.18.316,task,2021.1.4,Win32,60.24096386,6299f149e92ead563fba08ef,62a442261de0783e131bedde,,,,,,,,,,,,,,,,,,,,,,,,,,,,,,,,,,,,,,,,,,,,,,,,,,,,,,,,,,,,,,,,,,,,,,,,,,,,4,0,4,0,1,,,,,,,,,,,,,,,,,,,,,
,,,,,,,,,,,,5f05c47cf4abed071ef4f83c,29,Mężczyzna,2022-06-11_09h20.18.316,task,2021.1.4,Win32,60.24096386,6299f149e92ead563fba08ef,62a442261de0783e131bedde,,,,,,,,,,,,,2,,,,,,,,,,Task,10,(2x5) - 8,2,,,,,,,,,,,,,,,,,,,1,,,,,,,,,,,,,,,,,,,,,,,"[""2""]",1,[2.055699999928379],0,0,0,9,1,,,,,,,,,,,,,,,,,,,,,,,,,,
,,,,,,,,,,,X V Q F H G B L J M P D K C T S W R N Z,5f05c47cf4abed071ef4f83c,29,Mężczyzna,2022-06-11_09h20.18.316,task,2021.1.4,Win32,60.24096386,6299f149e92ead563fba08ef,62a442261de0783e131bedde,,,,,,,,,,,,,,,,,,,,,,,,,,,,,,,,,,,,,,,,,,,,,,,,,,,,,,,,,,,,,,,,,,,,,,,,,,,,5,0,5,0,1,,,,,,,,,,,,,,,,,,,,,
,,,,,,,,,,,,5f05c47cf4abed071ef4f83c,29,Mężczyzna,2022-06-11_09h20.18.316,task,2021.1.4,Win32,60.24096386,6299f149e92ead563fba08ef,62a442261de0783e131bedde,,,,,,,,,,,,,6,,,,,,,,,,Task,13,(3x4) - 6,6,,,,,,,,,,,,,,,,,,,1,,,,,,,,,,,,,,,,,,,,,,,"[""6""]",1,[4.174200000047676],0,0,0,12,1,,,,,,,,,,,,,,,,,,,,,,,,,,
,,,,,,,,,,,X V Q F H G B L J M P D K C T S W R N Z,5f05c47cf4abed071ef4f83c,29,Mężczyzna,2022-06-11_09h20.18.316,task,2021.1.4,Win32,60.24096386,6299f149e92ead563fba08ef,62a442261de0783e131bedde,,,,,,,,,,,,,,,,,,,,,,,,,,,,,,,,,,,,,,,,,,,,,,,,,,,,,,,,,,,,,,,,,,,,,,,,,,,,6,0,6,0,1,,,,,,,,,,,,,,,,,,,,,
,,,,,,,,,,,,5f05c47cf4abed071ef4f83c,29,Mężczyzna,2022-06-11_09h20.18.316,task,2021.1.4,Win32,60.24096386,6299f149e92ead563fba08ef,62a442261de0783e131bedde,,,,,,,,,,,,,8,,,,,,,,,,Task,39,(5x3) - 7,8,,,,,,,,,,,,,,,,,,,1,,,,,,,,,,,,,,,,,,,,,,,"[""8""]",1,[5.146299999952362],0,0,0,38,1,,,,,,,,,,,,,,,,,,,,,,,,,,
,,,,,,,,,,,X V Q F H G B L J M P D K C T S W R N Z,5f05c47cf4abed071ef4f83c,29,Mężczyzna,2022-06-11_09h20.18.316,task,2021.1.4,Win32,60.24096386,6299f149e92ead563fba08ef,62a442261de0783e131bedde,,,,,,,,,,,,,,,,,,,,,,,,,,,,,,,,,,,,,,,,,,,,,,,,,,,,,,,,,,,,,,,,,,,,,,,,,,,,7,0,7,0,1,,,,,,,,,,,,,,,,,,,,,
,,,,,,,,,,,,5f05c47cf4abed071ef4f83c,29,Mężczyzna,2022-06-11_09h20.18.316,task,2021.1.4,Win32,60.24096386,6299f149e92ead563fba08ef,62a442261de0783e131bedde,,,,,,,,,,,,,,,,,,,,,,,,,,,,,,,,,,,,,,,,,,,,,,,,,,,,,,,,,,,,,,,,,,,,,,,,,,,,,,,,,pkrvgzrk,"[""p"",""k"",""r"",""v"",""g"",""z"",""r"",""k""]",0,"[1.7584999999999127,1.973900000095341,3.3021000000237564,4.022100000023784,6.461999999999989,8.22210000002383,10.070800000071472,10.262200000047642,10.990800000071545]",0,PHRVGZRK,6,0,6,0,1,,,,,,,,,,
,,,,,,,,,,,,5f05c47cf4abed071ef4f83c,29,Mężczyzna,2022-06-11_09h20.18.316,task,2021.1.4,Win32,60.24096386,6299f149e92ead563fba08ef,62a442261de0783e131bedde,,,,,,,,,,,,,2,,,,,,,,,,Task,2,(2x2) - 2,2,,,,,,,,,,,,,,,,,,,1,,,,,,,,,,,,,,,,,,,,,,,"[""2""]",1,[1.909100000023841],0,0,0,1,1,,,,,,,,,,,,,,,,,,,,,,,,,,
,,,,,,,,,,,X V Q F H G B L J M P D K C T S W R N Z,5f05c47cf4abed071ef4f83c,29,Mężczyzna,2022-06-11_09h20.18.316,task,2021.1.4,Win32,60.24096386,6299f149e92ead563fba08ef,62a442261de0783e131bedde,,,,,,,,,,,,,,,,,,,,,,,,,,,,,,,,,,,,,,,,,,,,,,,,,,,,,,,,,,,,,,,,,,,,,,,,,,,,0,0,0,0,1,,,,,,,,,,,,,,,,,,,,,
,,,,,,,,,,,,5f05c47cf4abed071ef4f83c,29,Mężczyzna,2022-06-11_09h20.18.316,task,2021.1.4,Win32,60.24096386,6299f149e92ead563fba08ef,62a442261de0783e131bedde,,,,,,,,,,,,,0,,,,,,,,,,Task,8,(1x5) - 5,0,,,,,,,,,,,,,,,,,,,1,,,,,,,,,,,,,,,,,,,,,,,"[""0""]",1,[2.593899999976202],0,0,0,7,1,,,,,,,,,,,,,,,,,,,,,,,,,,
,,,,,,,,,,,X V Q F H G B L J M P D K C T S W R N Z,5f05c47cf4abed071ef4f83c,29,Mężczyzna,2022-06-11_09h20.18.316,task,2021.1.4,Win32,60.24096386,6299f149e92ead563fba08ef,62a442261de0783e131bedde,,,,,,,,,,,,,,,,,,,,,,,,,,,,,,,,,,,,,,,,,,,,,,,,,,,,,,,,,,,,,,,,,,,,,,,,,,,,1,0,1,0,1,,,,,,,,,,,,,,,,,,,,,
,,,,,,,,,,,,5f05c47cf4abed071ef4f83c,29,Mężczyzna,2022-06-11_09h20.18.316,task,2021.1.4,Win32,60.24096386,6299f149e92ead563fba08ef,62a442261de0783e131bedde,,,,,,,,,,,,,4,,,,,,,,,,Task,21,(10/2) - 1,4,,,,,,,,,,,,,,,,,,,1,,,,,,,,,,,,,,,,,,,,,,,"[""4""]",1,[1.764399999976149],0,0,0,20,1,,,,,,,,,,,,,,,,,,,,,,,,,,
,,,,,,,,,,,X V Q F H G B L J M P D K C T S W R N Z,5f05c47cf4abed071ef4f83c,29,Mężczyzna,2022-06-11_09h20.18.316,task,2021.1.4,Win32,60.24096386,6299f149e92ead563fba08ef,62a442261de0783e131bedde,,,,,,,,,,,,,,,,,,,,,,,,,,,,,,,,,,,,,,,,,,,,,,,,,,,,,,,,,,,,,,,,,,,,,,,,,,,,2,0,2,0,1,,,,,,,,,,,,,,,,,,,,,
,,,,,,,,,,,,5f05c47cf4abed071ef4f83c,29,Mężczyzna,2022-06-11_09h20.18.316,task,2021.1.4,Win32,60.24096386,6299f149e92ead563fba08ef,62a442261de0783e131bedde,,,,,,,,,,,,,4,,,,,,,,,,Task,28,(2x5) - 6,4,,,,,,,,,,,,,,,,,,,1,,,,,,,,,,,,,,,,,,,,,,,"[""4""]",1,[3.18070000004775],0,0,0,27,1,,,,,,,,,,,,,,,,,,,,,,,,,,
,,,,,,,,,,,X V Q F H G B L J M P D K C T S W R N Z,5f05c47cf4abed071ef4f83c,29,Mężczyzna,2022-06-11_09h20.18.316,task,2021.1.4,Win32,60.24096386,6299f149e92ead563fba08ef,62a442261de0783e131bedde,,,,,,,,,,,,,,,,,,,,,,,,,,,,,,,,,,,,,,,,,,,,,,,,,,,,,,,,,,,,,,,,,,,,,,,,,,,,3,0,3,0,1,,,,,,,,,,,,,,,,,,,,,
,,,,,,,,,,,,5f05c47cf4abed071ef4f83c,29,Mężczyzna,2022-06-11_09h20.18.316,task,2021.1.4,Win32,60.24096386,6299f149e92ead563fba08ef,62a442261de0783e131bedde,,,,,,,,,,,,,6,,,,,,,,,,Task,30,(6/3) + 4 ,6,,,,,,,,,,,,,,,,,,,1,,,,,,,,,,,,,,,,,,,,,,,"[""6""]",1,[2.617800000071611],0,0,0,29,1,,,,,,,,,,,,,,,,,,,,,,,,,,
,,,,,,,,,,,X V Q F H G B L J M P D K C T S W R N Z,5f05c47cf4abed071ef4f83c,29,Mężczyzna,2022-06-11_09h20.18.316,task,2021.1.4,Win32,60.24096386,6299f149e92ead563fba08ef,62a442261de0783e131bedde,,,,,,,,,,,,,,,,,,,,,,,,,,,,,,,,,,,,,,,,,,,,,,,,,,,,,,,,,,,,,,,,,,,,,,,,,,,,4,0,4,0,1,,,,,,,,,,,,,,,,,,,,,
,,,,,,,,,,,,5f05c47cf4abed071ef4f83c,29,Mężczyzna,2022-06-11_09h20.18.316,task,2021.1.4,Win32,60.24096386,6299f149e92ead563fba08ef,62a442261de0783e131bedde,,,,,,,,,,,,,3,,,,,,,,,,Task,20,(18/9) + 1,3,,,,,,,,,,,,,,,,,,,1,,,,,,,,,,,,,,,,,,,,,,,"[""3""]",1,[2.425299999952358],0,0,0,19,1,,,,,,,,,,,,,,,,,,,,,,,,,,
,,,,,,,,,,,X V Q F H G B L J M P D K C T S W R N Z,5f05c47cf4abed071ef4f83c,29,Mężczyzna,2022-06-11_09h20.18.316,task,2021.1.4,Win32,60.24096386,6299f149e92ead563fba08ef,62a442261de0783e131bedde,,,,,,,,,,,,,,,,,,,,,,,,,,,,,,,,,,,,,,,,,,,,,,,,,,,,,,,,,,,,,,,,,,,,,,,,,,,,5,0,5,0,1,,,,,,,,,,,,,,,,,,,,,
,,,,,,,,,,,,5f05c47cf4abed071ef4f83c,29,Mężczyzna,2022-06-11_09h20.18.316,task,2021.1.4,Win32,60.24096386,6299f149e92ead563fba08ef,62a442261de0783e131bedde,,,,,,,,,,,,,9,,,,,,,,,,Task,24,(2x2) + 5,9,,,,,,,,,,,,,,,,,,,1,,,,,,,,,,,,,,,,,,,,,,,"[""9""]",1,[2.13149999999996],0,0,0,23,1,,,,,,,,,,,,,,,,,,,,,,,,,,
,,,,,,,,,,,X V Q F H G B L J M P D K C T S W R N Z,5f05c47cf4abed071ef4f83c,29,Mężczyzna,2022-06-11_09h20.18.316,task,2021.1.4,Win32,60.24096386,6299f149e92ead563fba08ef,62a442261de0783e131bedde,,,,,,,,,,,,,,,,,,,,,,,,,,,,,,,,,,,,,,,,,,,,,,,,,,,,,,,,,,,,,,,,,,,,,,,,,,,,6,0,6,0,1,,,,,,,,,,,,,,,,,,,,,
,,,,,,,,,,,,5f05c47cf4abed071ef4f83c,29,Mężczyzna,2022-06-11_09h20.18.316,task,2021.1.4,Win32,60.24096386,6299f149e92ead563fba08ef,62a442261de0783e131bedde,,,,,,,,,,,,,,,,,,,,,,,Task,14,(2x2) + 3,7,,,,,,,,,,,,,,,,,,,0,,,,,,,,,,,,,,,,,,,,,,,,0,,0,0,0,13,1,,,,,,,,,,,,,,,,,,,,,,,,,,
,,,,,,,,,,,,5f05c47cf4abed071ef4f83c,29,Mężczyzna,2022-06-11_09h20.18.316,task,2021.1.4,Win32,60.24096386,6299f149e92ead563fba08ef,62a442261de0783e131bedde,,,,,,,,,,,,,1,,,,,,,,,,Task,9,(3x7) - 20,1,,,,,,,,,,,,,,,,,,,1,,,,,,,,,,,,,,,,,,,,,,,"[""1""]",1,[1.2018000000715574],0,1,1,8,1,,,,,,,,,,,,,,,,,,,,,,,,,,
,,,,,,,,,,,X V Q F H G B L J M P D K C T S W R N Z,5f05c47cf4abed071ef4f83c,29,Mężczyzna,2022-06-11_09h20.18.316,task,2021.1.4,Win32,60.24096386,6299f149e92ead563fba08ef,62a442261de0783e131bedde,,,,,,,,,,,,,,,,,,,,,,,,,,,,,,,,,,,,,,,,,,,,,,,,,,,,,,,,,,,,,,,,,,,,,,,,,,,,7,0,7,0,1,,,,,,,,,,,,,,,,,,,,,
,,,,,,,,,,,,5f05c47cf4abed071ef4f83c,29,Mężczyzna,2022-06-11_09h20.18.316,task,2021.1.4,Win32,60.24096386,6299f149e92ead563fba08ef,62a442261de0783e131bedde,,,,,,,,,,,,,,,,,,,,,,,,,,,,,,,,,,,,,,,,,,,,,,,,,,,,,,,,,,,,,,,,,,,,,,,,,,,,,,,,,gxmngmhq,"[""g"",""x"",""m"",""n"",""g"",""m"",""h"",""q""]",0,"[2.9208000000714947,3.2813000000714965,4.761899999976208,5.025100000023826,6.801100000023894,7.344899999976178,8.3773000000715,8.520899999976109,9.105100000023867]",1,GXMNGMHQ,7,0,7,0,1,,,,,,,,,,
,,,,,,,,,,,,5f05c47cf4abed071ef4f83c,29,Mężczyzna,2022-06-11_09h20.18.316,task,2021.1.4,Win32,60.24096386,6299f149e92ead563fba08ef,62a442261de0783e131bedde,,,,,,,,,,,,,8,,,,,,,,,,Task,23,(2x3) + 2,8,,,,,,,,,,,,,,,,,,,1,,,,,,,,,,,,,,,,,,,,,,,"[""8""]",1,[3.451399999976161],0,0,0,22,1,,,,,,,,,,,,,,,,,,,,,,,,,,
,,,,,,,,,,,X V Q F H G B L J M P D K C T S W R N Z,5f05c47cf4abed071ef4f83c,29,Mężczyzna,2022-06-11_09h20.18.316,task,2021.1.4,Win32,60.24096386,6299f149e92ead563fba08ef,62a442261de0783e131bedde,,,,,,,,,,,,,,,,,,,,,,,,,,,,,,,,,,,,,,,,,,,,,,,,,,,,,,,,,,,,,,,,,,,,,,,,,,,,0,0,0,0,1,,,,,,,,,,,,,,,,,,,,,
,,,,,,,,,,,,5f05c47cf4abed071ef4f83c,29,Mężczyzna,2022-06-11_09h20.18.316,task,2021.1.4,Win32,60.24096386,6299f149e92ead563fba08ef,62a442261de0783e131bedde,,,,,,,,,,,,,4,,,,,,,,,,Task,4,(1x5) - 1,4,,,,,,,,,,,,,,,,,,,1,,,,,,,,,,,,,,,,,,,,,,,"[""4""]",1,[2.0583999999762455],0,0,0,3,1,,,,,,,,,,,,,,,,,,,,,,,,,,
,,,,,,,,,,,X V Q F H G B L J M P D K C T S W R N Z,5f05c47cf4abed071ef4f83c,29,Mężczyzna,2022-06-11_09h20.18.316,task,2021.1.4,Win32,60.24096386,6299f149e92ead563fba08ef,62a442261de0783e131bedde,,,,,,,,,,,,,,,,,,,,,,,,,,,,,,,,,,,,,,,,,,,,,,,,,,,,,,,,,,,,,,,,,,,,,,,,,,,,1,0,1,0,1,,,,,,,,,,,,,,,,,,,,,
,,,,,,,,,,,,5f05c47cf4abed071ef4f83c,29,Mężczyzna,2022-06-11_09h20.18.316,task,2021.1.4,Win32,60.24096386,6299f149e92ead563fba08ef,62a442261de0783e131bedde,,,,,,,,,,,,,9,,,,,,,,,,Task,40,(7x2) - 5,9,,,,,,,,,,,,,,,,,,,1,,,,,,,,,,,,,,,,,,,,,,,"[""9""]",1,[2.358200000047759],0,0,0,39,1,,,,,,,,,,,,,,,,,,,,,,,,,,
,,,,,,,,,,,X V Q F H G B L J M P D K C T S W R N Z,5f05c47cf4abed071ef4f83c,29,Mężczyzna,2022-06-11_09h20.18.316,task,2021.1.4,Win32,60.24096386,6299f149e92ead563fba08ef,62a442261de0783e131bedde,,,,,,,,,,,,,,,,,,,,,,,,,,,,,,,,,,,,,,,,,,,,,,,,,,,,,,,,,,,,,,,,,,,,,,,,,,,,2,0,2,0,1,,,,,,,,,,,,,,,,,,,,,
,,,,,,,,,,,,5f05c47cf4abed071ef4f83c,29,Mężczyzna,2022-06-11_09h20.18.316,task,2021.1.4,Win32,60.24096386,6299f149e92ead563fba08ef,62a442261de0783e131bedde,,,,,,,,,,,,,0,,,,,,,,,,Task,8,(1x5) - 5,0,,,,,,,,,,,,,,,,,,,1,,,,,,,,,,,,,,,,,,,,,,,"[""0""]",1,[2.5924999999999727],0,0,0,7,1,,,,,,,,,,,,,,,,,,,,,,,,,,
,,,,,,,,,,,X V Q F H G B L J M P D K C T S W R N Z,5f05c47cf4abed071ef4f83c,29,Mężczyzna,2022-06-11_09h20.18.316,task,2021.1.4,Win32,60.24096386,6299f149e92ead563fba08ef,62a442261de0783e131bedde,,,,,,,,,,,,,,,,,,,,,,,,,,,,,,,,,,,,,,,,,,,,,,,,,,,,,,,,,,,,,,,,,,,,,,,,,,,,3,0,3,0,1,,,,,,,,,,,,,,,,,,,,,
,,,,,,,,,,,,5f05c47cf4abed071ef4f83c,29,Mężczyzna,2022-06-11_09h20.18.316,task,2021.1.4,Win32,60.24096386,6299f149e92ead563fba08ef,62a442261de0783e131bedde,,,,,,,,,,,,,9,,,,,,,,,,Task,7,(3x7) - 12,9,,,,,,,,,,,,,,,,,,,1,,,,,,,,,,,,,,,,,,,,,,,"[""9""]",1,[2.1833999999761318],0,0,0,6,1,,,,,,,,,,,,,,,,,,,,,,,,,,
,,,,,,,,,,,X V Q F H G B L J M P D K C T S W R N Z,5f05c47cf4abed071ef4f83c,29,Mężczyzna,2022-06-11_09h20.18.316,task,2021.1.4,Win32,60.24096386,6299f149e92ead563fba08ef,62a442261de0783e131bedde,,,,,,,,,,,,,,,,,,,,,,,,,,,,,,,,,,,,,,,,,,,,,,,,,,,,,,,,,,,,,,,,,,,,,,,,,,,,4,0,4,0,1,,,,,,,,,,,,,,,,,,,,,
,,,,,,,,,,,,5f05c47cf4abed071ef4f83c,29,Mężczyzna,2022-06-11_09h20.18.316,task,2021.1.4,Win32,60.24096386,6299f149e92ead563fba08ef,62a442261de0783e131bedde,,,,,,,,,,,,,6,,,,,,,,,,Task,30,(6/3) + 4 ,6,,,,,,,,,,,,,,,,,,,1,,,,,,,,,,,,,,,,,,,,,,,"[""6""]",1,[2.45670000004759],0,0,0,29,1,,,,,,,,,,,,,,,,,,,,,,,,,,
,,,,,,,,,,,X V Q F H G B L J M P D K C T S W R N Z,5f05c47cf4abed071ef4f83c,29,Mężczyzna,2022-06-11_09h20.18.316,task,2021.1.4,Win32,60.24096386,6299f149e92ead563fba08ef,62a442261de0783e131bedde,,,,,,,,,,,,,,,,,,,,,,,,,,,,,,,,,,,,,,,,,,,,,,,,,,,,,,,,,,,,,,,,,,,,,,,,,,,,5,0,5,0,1,,,,,,,,,,,,,,,,,,,,,
,,,,,,,,,,,,5f05c47cf4abed071ef4f83c,29,Mężczyzna,2022-06-11_09h20.18.316,task,2021.1.4,Win32,60.24096386,6299f149e92ead563fba08ef,62a442261de0783e131bedde,,,,,,,,,,,,,5,,,,,,,,,,Task,22,(3x1) + 2,5,,,,,,,,,,,,,,,,,,,1,,,,,,,,,,,,,,,,,,,,,,,"[""5""]",1,[2.405499999999961],0,0,0,21,1,,,,,,,,,,,,,,,,,,,,,,,,,,
,,,,,,,,,,,X V Q F H G B L J M P D K C T S W R N Z,5f05c47cf4abed071ef4f83c,29,Mężczyzna,2022-06-11_09h20.18.316,task,2021.1.4,Win32,60.24096386,6299f149e92ead563fba08ef,62a442261de0783e131bedde,,,,,,,,,,,,,,,,,,,,,,,,,,,,,,,,,,,,,,,,,,,,,,,,,,,,,,,,,,,,,,,,,,,,,,,,,,,,6,0,6,0,1,,,,,,,,,,,,,,,,,,,,,
,,,,,,,,,,,,5f05c47cf4abed071ef4f83c,29,Mężczyzna,2022-06-11_09h20.18.316,task,2021.1.4,Win32,60.24096386,6299f149e92ead563fba08ef,62a442261de0783e131bedde,,,,,,,,,,,,,3,,,,,,,,,,Task,3,(2x3) - 3,3,,,,,,,,,,,,,,,,,,,1,,,,,,,,,,,,,,,,,,,,,,,"[""3""]",1,[1.9333000000714264],0,0,0,2,1,,,,,,,,,,,,,,,,,,,,,,,,,,
,,,,,,,,,,,X V Q F H G B L J M P D K C T S W R N Z,5f05c47cf4abed071ef4f83c,29,Mężczyzna,2022-06-11_09h20.18.316,task,2021.1.4,Win32,60.24096386,6299f149e92ead563fba08ef,62a442261de0783e131bedde,,,,,,,,,,,,,,,,,,,,,,,,,,,,,,,,,,,,,,,,,,,,,,,,,,,,,,,,,,,,,,,,,,,,,,,,,,,,7,0,7,0,1,,,,,,,,,,,,,,,,,,,,,
,,,,,,,,,,,,5f05c47cf4abed071ef4f83c,29,Mężczyzna,2022-06-11_09h20.18.316,task,2021.1.4,Win32,60.24096386,6299f149e92ead563fba08ef,62a442261de0783e131bedde,,,,,,,,,,,,,8,,,,,,,,,,Task,39,(5x3) - 7,8,,,,,,,,,,,,,,,,,,,1,,,,,,,,,,,,,,,,,,,,,,,"[""8""]",1,[2.6388000000714555],0,0,0,38,1,,,,,,,,,,,,,,,,,,,,,,,,,,
,,,,,,,,,,,X V Q F H G B L J M P D K C T S W R N Z,5f05c47cf4abed071ef4f83c,29,Mężczyzna,2022-06-11_09h20.18.316,task,2021.1.4,Win32,60.24096386,6299f149e92ead563fba08ef,62a442261de0783e131bedde,,,,,,,,,,,,,,,,,,,,,,,,,,,,,,,,,,,,,,,,,,,,,,,,,,,,,,,,,,,,,,,,,,,,,,,,,,,,8,0,8,0,1,,,,,,,,,,,,,,,,,,,,,
,,,,,,,,,,,,5f05c47cf4abed071ef4f83c,29,Mężczyzna,2022-06-11_09h20.18.316,task,2021.1.4,Win32,60.24096386,6299f149e92ead563fba08ef,62a442261de0783e131bedde,,,,,,,,,,,,,,,,,,,,,,,,,,,,,,,,,,,,,,,,,,,,,,,,,,,,,,,,,,,,,,,,,,,,,,,,,,,,,,,,,tgpngnnkl,"[""t"",""g"",""p"",""n"",""g"",""n"",""n"",""k"",""l""]",0,"[1.7901000000238128,2.07000000000005,2.46490000009544,3.4381000000238373,4.495700000047691,5.111800000071526,5.328300000071522,6.9181000000238555,7.398000000000025,8.126900000095361]",0,TGPMGNNKL,8,0,8,0,1,,,,,,,,,,
,,,,,,,,,,,,5f05c47cf4abed071ef4f83c,29,Mężczyzna,2022-06-11_09h20.18.316,task,2021.1.4,Win32,60.24096386,6299f149e92ead563fba08ef,62a442261de0783e131bedde,,,,,,,,,,,,,6,,,,,,,,,,Task,37,(3/3) + 5,6,,,,,,,,,,,,,,,,,,,1,,,,,,,,,,,,,,,,,,,,,,,"[""6""]",1,[2.8636999999284853],0,0,0,36,1,,,,,,,,,,,,,,,,,,,,,,,,,,
,,,,,,,,,,,X V Q F H G B L J M P D K C T S W R N Z,5f05c47cf4abed071ef4f83c,29,Mężczyzna,2022-06-11_09h20.18.316,task,2021.1.4,Win32,60.24096386,6299f149e92ead563fba08ef,62a442261de0783e131bedde,,,,,,,,,,,,,,,,,,,,,,,,,,,,,,,,,,,,,,,,,,,,,,,,,,,,,,,,,,,,,,,,,,,,,,,,,,,,0,0,0,0,1,,,,,,,,,,,,,,,,,,,,,
,,,,,,,,,,,,5f05c47cf4abed071ef4f83c,29,Mężczyzna,2022-06-11_09h20.18.316,task,2021.1.4,Win32,60.24096386,6299f149e92ead563fba08ef,62a442261de0783e131bedde,,,,,,,,,,,,,2,,,,,,,,,,Task,10,(2x5) - 8,2,,,,,,,,,,,,,,,,,,,1,,,,,,,,,,,,,,,,,,,,,,,"[""2""]",1,[3.8356000000238737],0,0,0,9,1,,,,,,,,,,,,,,,,,,,,,,,,,,
,,,,,,,,,,,X V Q F H G B L J M P D K C T S W R N Z,5f05c47cf4abed071ef4f83c,29,Mężczyzna,2022-06-11_09h20.18.316,task,2021.1.4,Win32,60.24096386,6299f149e92ead563fba08ef,62a442261de0783e131bedde,,,,,,,,,,,,,,,,,,,,,,,,,,,,,,,,,,,,,,,,,,,,,,,,,,,,,,,,,,,,,,,,,,,,,,,,,,,,1,0,1,0,1,,,,,,,,,,,,,,,,,,,,,
,,,,,,,,,,,,5f05c47cf4abed071ef4f83c,29,Mężczyzna,2022-06-11_09h20.18.316,task,2021.1.4,Win32,60.24096386,6299f149e92ead563fba08ef,62a442261de0783e131bedde,,,,,,,,,,,,,1,,,,,,,,,,Task,9,(3x7) - 20,1,,,,,,,,,,,,,,,,,,,1,,,,,,,,,,,,,,,,,,,,,,,"[""1""]",1,[1.19760000002384],0,0,0,8,1,,,,,,,,,,,,,,,,,,,,,,,,,,
,,,,,,,,,,,X V Q F H G B L J M P D K C T S W R N Z,5f05c47cf4abed071ef4f83c,29,Mężczyzna,2022-06-11_09h20.18.316,task,2021.1.4,Win32,60.24096386,6299f149e92ead563fba08ef,62a442261de0783e131bedde,,,,,,,,,,,,,,,,,,,,,,,,,,,,,,,,,,,,,,,,,,,,,,,,,,,,,,,,,,,,,,,,,,,,,,,,,,,,2,0,2,0,1,,,,,,,,,,,,,,,,,,,,,
,,,,,,,,,,,,5f05c47cf4abed071ef4f83c,29,Mężczyzna,2022-06-11_09h20.18.316,task,2021.1.4,Win32,60.24096386,6299f149e92ead563fba08ef,62a442261de0783e131bedde,,,,,,,,,,,,,5,,,,,,,,,,Task,22,(3x1) + 2,5,,,,,,,,,,,,,,,,,,,1,,,,,,,,,,,,,,,,,,,,,,,"[""5""]",1,[1.8263999999761609],0,0,0,21,1,,,,,,,,,,,,,,,,,,,,,,,,,,
,,,,,,,,,,,X V Q F H G B L J M P D K C T S W R N Z,5f05c47cf4abed071ef4f83c,29,Mężczyzna,2022-06-11_09h20.18.316,task,2021.1.4,Win32,60.24096386,6299f149e92ead563fba08ef,62a442261de0783e131bedde,,,,,,,,,,,,,,,,,,,,,,,,,,,,,,,,,,,,,,,,,,,,,,,,,,,,,,,,,,,,,,,,,,,,,,,,,,,,3,0,3,0,1,,,,,,,,,,,,,,,,,,,,,
,,,,,,,,,,,,5f05c47cf4abed071ef4f83c,29,Mężczyzna,2022-06-11_09h20.18.316,task,2021.1.4,Win32,60.24096386,6299f149e92ead563fba08ef,62a442261de0783e131bedde,,,,,,,,,,,,,0,,,,,,,,,,Task,17,(2x3) - 6,0,,,,,,,,,,,,,,,,,,,1,,,,,,,,,,,,,,,,,,,,,,,"[""0""]",1,[2.6018999999761263],0,0,0,16,1,,,,,,,,,,,,,,,,,,,,,,,,,,
,,,,,,,,,,,X V Q F H G B L J M P D K C T S W R N Z,5f05c47cf4abed071ef4f83c,29,Mężczyzna,2022-06-11_09h20.18.316,task,2021.1.4,Win32,60.24096386,6299f149e92ead563fba08ef,62a442261de0783e131bedde,,,,,,,,,,,,,,,,,,,,,,,,,,,,,,,,,,,,,,,,,,,,,,,,,,,,,,,,,,,,,,,,,,,,,,,,,,,,4,0,4,0,1,,,,,,,,,,,,,,,,,,,,,
,,,,,,,,,,,,5f05c47cf4abed071ef4f83c,29,Mężczyzna,2022-06-11_09h20.18.316,task,2021.1.4,Win32,60.24096386,6299f149e92ead563fba08ef,62a442261de0783e131bedde,,,,,,,,,,,,,4,,,,,,,,,,Task,21,(10/2) - 1,4,,,,,,,,,,,,,,,,,,,1,,,,,,,,,,,,,,,,,,,,,,,"[""4""]",1,[2.8980000000000246],0,0,0,20,1,,,,,,,,,,,,,,,,,,,,,,,,,,
,,,,,,,,,,,X V Q F H G B L J M P D K C T S W R N Z,5f05c47cf4abed071ef4f83c,29,Mężczyzna,2022-06-11_09h20.18.316,task,2021.1.4,Win32,60.24096386,6299f149e92ead563fba08ef,62a442261de0783e131bedde,,,,,,,,,,,,,,,,,,,,,,,,,,,,,,,,,,,,,,,,,,,,,,,,,,,,,,,,,,,,,,,,,,,,,,,,,,,,5,0,5,0,1,,,,,,,,,,,,,,,,,,,,,
,,,,,,,,,,,,5f05c47cf4abed071ef4f83c,29,Mężczyzna,2022-06-11_09h20.18.316,task,2021.1.4,Win32,60.24096386,6299f149e92ead563fba08ef,62a442261de0783e131bedde,,,,,,,,,,,,,9,,,,,,,,,,Task,7,(3x7) - 12,9,,,,,,,,,,,,,,,,,,,1,,,,,,,,,,,,,,,,,,,,,,,"[""9""]",1,[1.9596000000237837],0,0,0,6,1,,,,,,,,,,,,,,,,,,,,,,,,,,
,,,,,,,,,,,X V Q F H G B L J M P D K C T S W R N Z,5f05c47cf4abed071ef4f83c,29,Mężczyzna,2022-06-11_09h20.18.316,task,2021.1.4,Win32,60.24096386,6299f149e92ead563fba08ef,62a442261de0783e131bedde,,,,,,,,,,,,,,,,,,,,,,,,,,,,,,,,,,,,,,,,,,,,,,,,,,,,,,,,,,,,,,,,,,,,,,,,,,,,6,0,6,0,1,,,,,,,,,,,,,,,,,,,,,
,,,,,,,,,,,,5f05c47cf4abed071ef4f83c,29,Mężczyzna,2022-06-11_09h20.18.316,task,2021.1.4,Win32,60.24096386,6299f149e92ead563fba08ef,62a442261de0783e131bedde,,,,,,,,,,,,,8,,,,,,,,,,Task,32,(8/2) + 4,8,,,,,,,,,,,,,,,,,,,1,,,,,,,,,,,,,,,,,,,,,,,"[""8""]",1,[3.7997999999522563],0,0,0,31,1,,,,,,,,,,,,,,,,,,,,,,,,,,
,,,,,,,,,,,X V Q F H G B L J M P D K C T S W R N Z,5f05c47cf4abed071ef4f83c,29,Mężczyzna,2022-06-11_09h20.18.316,task,2021.1.4,Win32,60.24096386,6299f149e92ead563fba08ef,62a442261de0783e131bedde,,,,,,,,,,,,,,,,,,,,,,,,,,,,,,,,,,,,,,,,,,,,,,,,,,,,,,,,,,,,,,,,,,,,,,,,,,,,7,0,7,0,1,,,,,,,,,,,,,,,,,,,,,
,,,,,,,,,,,,5f05c47cf4abed071ef4f83c,29,Mężczyzna,2022-06-11_09h20.18.316,task,2021.1.4,Win32,60.24096386,6299f149e92ead563fba08ef,62a442261de0783e131bedde,,,,,,,,,,,,,8,,,,,,,,,,Task,15,(3x7) - 13,8,,,,,,,,,,,,,,,,,,,1,,,,,,,,,,,,,,,,,,,,,,,"[""8""]",1,[2.0819999999999936],0,0,0,14,1,,,,,,,,,,,,,,,,,,,,,,,,,,
,,,,,,,,,,,X V Q F H G B L J M P D K C T S W R N Z,5f05c47cf4abed071ef4f83c,29,Mężczyzna,2022-06-11_09h20.18.316,task,2021.1.4,Win32,60.24096386,6299f149e92ead563fba08ef,62a442261de0783e131bedde,,,,,,,,,,,,,,,,,,,,,,,,,,,,,,,,,,,,,,,,,,,,,,,,,,,,,,,,,,,,,,,,,,,,,,,,,,,,8,0,8,0,1,,,,,,,,,,,,,,,,,,,,,
,,,,,,,,,,,,5f05c47cf4abed071ef4f83c,29,Mężczyzna,2022-06-11_09h20.18.316,task,2021.1.4,Win32,60.24096386,6299f149e92ead563fba08ef,62a442261de0783e131bedde,,,,,,,,,,,,,,,,,,,,,,,,,,,,,,,,,,,,,,,,,,,,,,,,,,,,,,,,,,,,,,,,,,,,,,,,,,,,,,,,,jrzhmkpgl,"[""j"",""r"",""z"",""h"",""m"",""k"",""p"",""g"",""l""]",0,"[2.264499999999998,2.6155999999047026,2.903199999928461,4.287199999928475,4.879799999952297,6.031000000000063,6.311699999928464,6.607199999928525,6.7990999999046835,7.343599999904654]",0,JRZHMHPGL,9,0,9,0,1,,,,,,,,,,
,,,,,,,,,,,,5f05c47cf4abed071ef4f83c,29,Mężczyzna,2022-06-11_09h20.18.316,task,2021.1.4,Win32,60.24096386,6299f149e92ead563fba08ef,62a442261de0783e131bedde,,,,,,,,,,,,,,,,,,,,,,,,,,,,,,,,,,,,,,,,,,,,,,,,,,,,,,,,,,,,,,,,,,,,,,,,,,,,,,,,,,,,,,,,,,,,"[""comma""]",0,[0.7164999999999964],0,0,0,0,1,,
,,,,,,,,,,,,5f05c47cf4abed071ef4f83c,29,Mężczyzna,2022-06-11_09h20.18.316,task,2021.1.4,Win32,60.24096386,6299f149e92ead563fba08ef,62a442261de0783e131bedde,,,,,,,,,,,,,,,,,,,,,,,,,,,,,,,,,,,,,,,,,,,,,,,,,,,,,,,,,,,,,,,,,,,,,,,,,,,,,,,,,,,,,,,,,,,,"[""comma""]",0,[0.6997000000476419],1,0,1,0,1,,
,,,,,,,,,,,,5f05c47cf4abed071ef4f83c,29,Mężczyzna,2022-06-11_09h20.18.316,task,2021.1.4,Win32,60.24096386,6299f149e92ead563fba08ef,62a442261de0783e131bedde,,,,,,,,,,,,,,,,,,,,,,,,,,,,,,,,,,,,,,,,,,,,,,,,,,,,,,,,,,,,,,,,,,,,,,,,,,,,,,,,,,,,,,,,,,,,"[""comma""]",0,[0.7863999999761973],2,0,2,0,1,,
,,,,,,,,,,,,5f05c47cf4abed071ef4f83c,29,Mężczyzna,2022-06-11_09h20.18.316,task,2021.1.4,Win32,60.24096386,6299f149e92ead563fba08ef,62a442261de0783e131bedde,,,,,,,,,,,,,,,,,,,,,,,,,,,,,,,,,,,,,,,,,,,,,,,,,,,,,,,,,,,,,,,,,,,,,,,,,,,,,,,,,,,,,,,,,,,,"[""period""]",0,[0.7243999999760717],3,0,3,0,1,,
,,,,,,,,,,,,5f05c47cf4abed071ef4f83c,29,Mężczyzna,2022-06-11_09h20.18.316,task,2021.1.4,Win32,60.24096386,6299f149e92ead563fba08ef,62a442261de0783e131bedde,,,,,,,,,,,,,,,,,,,,,,,,,,,,,,,,,,,,,,,,,,,,,,,,,,,,,,,,,,,,,,,,,,,,,,,,,,,,,,,,,,,,,,,,,,,,"[""comma""]",0,[0.8781000000237782],4,0,4,0,1,,
,,,,,,,,,,,,5f05c47cf4abed071ef4f83c,29,Mężczyzna,2022-06-11_09h20.18.316,task,2021.1.4,Win32,60.24096386,6299f149e92ead563fba08ef,62a442261de0783e131bedde,,,,,,,,,,,,,,,,,,,,,,,,,,,,,,,,,,,,,,,,,,,,,,,,,,,,,,,,,,,,,,,,,,,,,,,,,,,,,,,,,,,,,,,,,,,,"[""period""]",0,[0.26610000002381184],5,0,5,0,1,,
,,,,,,,,,,,,5f05c47cf4abed071ef4f83c,29,Mężczyzna,2022-06-11_09h20.18.316,task,2021.1.4,Win32,60.24096386,6299f149e92ead563fba08ef,62a442261de0783e131bedde,,,,,,,,,,,,,,,,,,,,,,,,,,,,,,,,,,,,,,,,,,,,,,,,,,,,,,,,,,,,,,,,,,,,,,,,,,,,,,,,,,,,,,,,,,,,"[""comma""]",0,[0.2738999999761518],6,0,6,0,1,,
,,,,,,,,,,,,5f05c47cf4abed071ef4f83c,29,Mężczyzna,2022-06-11_09h20.18.316,task,2021.1.4,Win32,60.24096386,6299f149e92ead563fba08ef,62a442261de0783e131bedde,,,,,,,,,,,,,,,,,,,,,,,,,,,,,,,,,,,,,,,,,,,,,,,,,,,,,,,,,,,,,,,,,,,,,,,,,,,,,,,,,,,,,,,,,,,,"[""comma""]",0,[0.2676999999284817],7,0,7,0,1,,
,,,,,,,,,,,,5f05c47cf4abed071ef4f83c,29,Mężczyzna,2022-06-11_09h20.18.316,task,2021.1.4,Win32,60.24096386,6299f149e92ead563fba08ef,62a442261de0783e131bedde,,,,,,,,,,,,,,,,,,,,,,,,,,,,,,,,,,,,,,,,,,,,,,,,,,,,,,,,,,,,,,,,,,,,,,,,,,,,,,,,,,,,,,,,,,,,"[""period""]",0,[0.2937000000476928],8,0,8,0,1,,
,,,,,,,,,,,,5f05c47cf4abed071ef4f83c,29,Mężczyzna,2022-06-11_09h20.18.316,task,2021.1.4,Win32,60.24096386,6299f149e92ead563fba08ef,62a442261de0783e131bedde,,,,,,,,,,,,,,,,,,,,,,,,,,,,,,,,,,,,,,,,,,,,,,,,,,,,,,,,,,,,,,,,,,,,,,,,,,,,,,,,,,,,,,,,,,,,"[""period""]",0,[0.2553999999761345],9,0,9,0,1,,
,,,,,,,,,,,,5f05c47cf4abed071ef4f83c,29,Mężczyzna,2022-06-11_09h20.18.316,task,2021.1.4,Win32,60.24096386,6299f149e92ead563fba08ef,62a442261de0783e131bedde,,,,,,,,,,,,,,,,,,,,,,,,,,,,,,,,,,,,,,,,,,,,,,,,,,,,,,,,,,,,,,,,,,,,,,,,,,,,,,,,,,,,,,,,,,,,"[""period""]",0,[0.2413999999761245],10,0,10,0,1,,
,,,,,,,,,,,,5f05c47cf4abed071ef4f83c,29,Mężczyzna,2022-06-11_09h20.18.316,task,2021.1.4,Win32,60.24096386,6299f149e92ead563fba08ef,62a442261de0783e131bedde,,,,,,,,,,,,,,,,,,,,,,,,,,,,,,,,,,,,,,,,,,,,,,,,,,,,,,,,,,,,,,,,,,,,,,,,,,,,,,,,,,,,,,,,,,,,"[""period""]",0,[0.29150000000004184],11,0,11,0,1,,
,,,,,,,,,,,,5f05c47cf4abed071ef4f83c,29,Mężczyzna,2022-06-11_09h20.18.316,task,2021.1.4,Win32,60.24096386,6299f149e92ead563fba08ef,62a442261de0783e131bedde,,,,,,,,,,,,,,,,,,,,,,,,,,,,,,,,,,,,,,,,,,,,,,,,,,,,,,,,,,,,,,,,,,,,,,,,,,,,,,,,,,,,,,,,,,,,"[""period""]",0,[0.25300000000004275],12,0,12,0,1,,
,,,,,,,,,,,,5f05c47cf4abed071ef4f83c,29,Mężczyzna,2022-06-11_09h20.18.316,task,2021.1.4,Win32,60.24096386,6299f149e92ead563fba08ef,62a442261de0783e131bedde,,,,,,,,,,,,,,,,,,,,,,,,,,,,,,,,,,,,,,,,,,,,,,,,,,,,,,,,,,,,,,,,,,,,,,,,,,,,,,,,,,,,,,,,,,,,"[""comma""]",0,[0.2706000000238191],13,0,13,0,1,,
,,,,,,,,,,,,5f05c47cf4abed071ef4f83c,29,Mężczyzna,2022-06-11_09h20.18.316,task,2021.1.4,Win32,60.24096386,6299f149e92ead563fba08ef,62a442261de0783e131bedde,,,,,,,,,,,,,,,,,,,,,,,,,,,,,,,,,,,,,,,,,,,,,,,,,,,,,,,,,,,,,,,,,,,,,,,,,,,,,,,,,,,,,,,,,,,,"[""comma""]",0,[0.26699999999993906],14,0,14,0,1,,
,,,,,,,,,,,,5f05c47cf4abed071ef4f83c,29,Mężczyzna,2022-06-11_09h20.18.316,task,2021.1.4,Win32,60.24096386,6299f149e92ead563fba08ef,62a442261de0783e131bedde,,,,,,,,,,,,,,,,,,,,,,,,,,,,,,,,,,,,,,,,,,,,,,,,,,,,,,,,,,,,,,,,,,,,,,,,,,,,,,,,,,,,,,,,,,,,"[""period""]",0,[0.29070000004776375],15,0,15,0,1,,
,,,,,,,,,,,,5f05c47cf4abed071ef4f83c,29,Mężczyzna,2022-06-11_09h20.18.316,task,2021.1.4,Win32,60.24096386,6299f149e92ead563fba08ef,62a442261de0783e131bedde,,,,,,,,,,,,,,,,,,,,,,,,,,,,,,,,,,,,,,,,,,,,,,,,,,,,,,,,,,,,,,,,,,,,,,,,,,,,,,,,,,,,,,,,,,,,"[""comma""]",0,[0.30060000002379184],16,0,16,0,1,,
,,,,,,,,,,,,5f05c47cf4abed071ef4f83c,29,Mężczyzna,2022-06-11_09h20.18.316,task,2021.1.4,Win32,60.24096386,6299f149e92ead563fba08ef,62a442261de0783e131bedde,,,,,,,,,,,,,,,,,,,,,,,,,,,,,,,,,,,,,,,,,,,,,,,,,,,,,,,,,,,,,,,,,,,,,,,,,,,,,,,,,,,,,,,,,,,,"[""period""]",0,[0.2866000000238955],17,0,17,0,1,,
,,,,,,,,,,,,5f05c47cf4abed071ef4f83c,29,Mężczyzna,2022-06-11_09h20.18.316,task,2021.1.4,Win32,60.24096386,6299f149e92ead563fba08ef,62a442261de0783e131bedde,,,,,,,,,,,,,,,,,,,,,,,,,,,,,,,,,,,,,,,,,,,,,,,,,,,,,,,,,,,,,,,,,,,,,,,,,,,,,,,,,,,,,,,,,,,,"[""comma""]",0,[0.296299999952339],18,0,18,0,1,,
,,,,,,,,,,,,5f05c47cf4abed071ef4f83c,29,Mężczyzna,2022-06-11_09h20.18.316,task,2021.1.4,Win32,60.24096386,6299f149e92ead563fba08ef,62a442261de0783e131bedde,,,,,,,,,,,,,,,,,,,,,,,,,,,,,,,,,,,,,,,,,,,,,,,,,,,,,,,,,,,,,,,,,,,,,,,,,,,,,,,,,,,,,,,,,,,,"[""period""]",0,[0.2902000000476619],19,0,19,0,1,,
,,,,,,,,,,,,5f05c47cf4abed071ef4f83c,29,Mężczyzna,2022-06-11_09h20.18.316,task,2021.1.4,Win32,60.24096386,6299f149e92ead563fba08ef,62a442261de0783e131bedde,,,,,,,,,,,,,,,,,,,,,,,,,,,,,,,,,,,,,,,,,,,,,,,,,,,,,,,,,,,,,,,,,,,,,,,,,,,,,,,,,,,,,,,,,,,,"[""period""]",0,[0.3079999999999927],20,0,20,0,1,,
,,,,,,,,,,,,5f05c47cf4abed071ef4f83c,29,Mężczyzna,2022-06-11_09h20.18.316,task,2021.1.4,Win32,60.24096386,6299f149e92ead563fba08ef,62a442261de0783e131bedde,,,,,,,,,,,,,,,,,,,,,,,,,,,,,,,,,,,,,,,,,,,,,,,,,,,,,,,,,,,,,,,,,,,,,,,,,,,,,,,,,,,,,,,,,,,,"[""comma""]",0,[0.28579999995224625],21,0,21,0,1,,
,,,,,,,,,,,,5f05c47cf4abed071ef4f83c,29,Mężczyzna,2022-06-11_09h20.18.316,task,2021.1.4,Win32,60.24096386,6299f149e92ead563fba08ef,62a442261de0783e131bedde,,,,,,,,,,,,,,,,,,,,,,,,,,,,,,,,,,,,,,,,,,,,,,,,,,,,,,,,,,,,,,,,,,,,,,,,,,,,,,,,,,,,,,,,,,,,"[""comma""]",0,[0.2800000000000864],22,0,22,0,1,,
,,,,,,,,,,,,5f05c47cf4abed071ef4f83c,29,Mężczyzna,2022-06-11_09h20.18.316,task,2021.1.4,Win32,60.24096386,6299f149e92ead563fba08ef,62a442261de0783e131bedde,,,,,,,,,,,,,,,,,,,,,,,,,,,,,,,,,,,,,,,,,,,,,,,,,,,,,,,,,,,,,,,,,,,,,,,,,,,,,,,,,,,,,,,,,,,,"[""comma""]",0,[0.36200000000008004],23,0,23,0,1,,
,,,,,,,,,,,,5f05c47cf4abed071ef4f83c,29,Mężczyzna,2022-06-11_09h20.18.316,task,2021.1.4,Win32,60.24096386,6299f149e92ead563fba08ef,62a442261de0783e131bedde,,,,,,,,,,,,,,,,,,,,,,,,,,,,,,,,,,,,,,,,,,,,,,,,,,,,,,,,,,,,,,,,,,,,,,,,,,,,,,,,,,,,,,,,,,,,"[""period""]",0,[0.30750000000000455],24,0,24,0,1,,
,,,,,,,,,,,,5f05c47cf4abed071ef4f83c,29,Mężczyzna,2022-06-11_09h20.18.316,task,2021.1.4,Win32,60.24096386,6299f149e92ead563fba08ef,62a442261de0783e131bedde,,,,,,,,,,,,,,,,,,,,,,,,,,,,,,,,,,,,,,,,,,,,,,,,,,,,,,,,,,,,,,,,,,,,,,,,,,,,,,,,,,,,,,,,,,,,"[""comma""]",0,[0.2773999999761827],25,0,25,0,1,,
,,,,,,,,,,,,5f05c47cf4abed071ef4f83c,29,Mężczyzna,2022-06-11_09h20.18.316,task,2021.1.4,Win32,60.24096386,6299f149e92ead563fba08ef,62a442261de0783e131bedde,,,,,,,,,,,,,,,,,,,,,,,,,,,,,,,,,,,,,,,,,,,,,,,,,,,,,,,,,,,,,,,,,,,,,,,,,,,,,,,,,,,,,,,,,,,,"[""period""]",0,[0.3432999999522508],26,0,26,0,1,,
,,,,,,,,,,,,5f05c47cf4abed071ef4f83c,29,Mężczyzna,2022-06-11_09h20.18.316,task,2021.1.4,Win32,60.24096386,6299f149e92ead563fba08ef,62a442261de0783e131bedde,,,,,,,,,,,,,,,,,,,,,,,,,,,,,,,,,,,,,,,,,,,,,,,,,,,,,,,,,,,,,,,,,,,,,,,,,,,,,,,,,,,,,,,,,,,,"[""comma""]",0,[0.2659999999999627],27,0,27,0,1,,
,,,,,,,,,,,,5f05c47cf4abed071ef4f83c,29,Mężczyzna,2022-06-11_09h20.18.316,task,2021.1.4,Win32,60.24096386,6299f149e92ead563fba08ef,62a442261de0783e131bedde,,,,,,,,,,,,,,,,,,,,,,,,,,,,,,,,,,,,,,,,,,,,,,,,,,,,,,,,,,,,,,,,,,,,,,,,,,,,,,,,,,,,,,,,,,,,"[""comma""]",0,[0.26729999995234266],28,0,28,0,1,,
,,,,,,,,,,,,5f05c47cf4abed071ef4f83c,29,Mężczyzna,2022-06-11_09h20.18.316,task,2021.1.4,Win32,60.24096386,6299f149e92ead563fba08ef,62a442261de0783e131bedde,,,,,,,,,,,,,,,,,,,,,,,,,,,,,,,,,,,,,,,,,,,,,,,,,,,,,,,,,,,,,,,,,,,,,,,,,,,,,,,,,,,,,,,,,,,,"[""comma""]",0,[0.2547999999522972],29,0,29,0,1,,
,,,,,,,,,,,,5f05c47cf4abed071ef4f83c,29,Mężczyzna,2022-06-11_09h20.18.316,task,2021.1.4,Win32,60.24096386,6299f149e92ead563fba08ef,62a442261de0783e131bedde,,,,,,,,,,,,,,,,,,,,,,,,,,,,,,,,,,,,,,,,,,,,,,,,,,,,,,,,,,,,,,,,,,,,,,,,,,,,,,,,,,,,,,,,,,,,"[""period""]",0,[0.27860000002374363],30,0,30,0,1,,
,,,,,,,,,,,,5f05c47cf4abed071ef4f83c,29,Mężczyzna,2022-06-11_09h20.18.316,task,2021.1.4,Win32,60.24096386,6299f149e92ead563fba08ef,62a442261de0783e131bedde,,,,,,,,,,,,,,,,,,,,,,,,,,,,,,,,,,,,,,,,,,,,,,,,,,,,,,,,,,,,,,,,,,,,,,,,,,,,,,,,,,,,,,,,,,,,"[""period""]",0,[0.23269999992851353],31,0,31,0,1,,
,,,,,,,,,,,,5f05c47cf4abed071ef4f83c,29,Mężczyzna,2022-06-11_09h20.18.316,task,2021.1.4,Win32,60.24096386,6299f149e92ead563fba08ef,62a442261de0783e131bedde,,,,,,,,,,,,,,,,,,,,,,,,,,,,,,,,,,,,,,,,,,,,,,,,,,,,,,,,,,,,,,,,,,,,,,,,,,,,,,,,,,,,,,,,,,,,"[""comma""]",0,[0.12219999992851172],32,0,32,0,1,,
,,,,,,,,,,,,5f05c47cf4abed071ef4f83c,29,Mężczyzna,2022-06-11_09h20.18.316,task,2021.1.4,Win32,60.24096386,6299f149e92ead563fba08ef,62a442261de0783e131bedde,,,,,,,,,,,,,,,,,,,,,,,,,,,,,,,,,,,,,,,,,,,,,,,,,,,,,,,,,,,,,,,,,,,,,,,,,,,,,,,,,,,,,,,,,,,,"[""period""]",0,[-0.01190000009535197],33,0,33,0,1,,
,,,,,,,,,,,,5f05c47cf4abed071ef4f83c,29,Mężczyzna,2022-06-11_09h20.18.316,task,2021.1.4,Win32,60.24096386,6299f149e92ead563fba08ef,62a442261de0783e131bedde,,,,,,,,,,,,,,,,,,,,,,,,,,,,,,,,,,,,,,,,,,,,,,,,,,,,,,,,,,,,,,,,,,,,,,,,,,,,,,,,,,,,,,,,,,,,"[""comma""]",0,[0.28610000002379365],34,0,34,0,1,,
,,,,,,,,,,,,5f05c47cf4abed071ef4f83c,29,Mężczyzna,2022-06-11_09h20.18.316,task,2021.1.4,Win32,60.24096386,6299f149e92ead563fba08ef,62a442261de0783e131bedde,,,,,,,,,,,,,,,,,,,,,,,,,,,,,,,,,,,,,,,,,,,,,,,,,,,,,,,,,,,,,,,,,,,,,,,,,,,,,,,,,,,,,,,,,,,,"[""period""]",0,[0.00029999995240359567],35,0,35,0,1,,
,,,,,,,,,,,,5f05c47cf4abed071ef4f83c,29,Mężczyzna,2022-06-11_09h20.18.316,task,2021.1.4,Win32,60.24096386,6299f149e92ead563fba08ef,62a442261de0783e131bedde,,,,,,,,,,,,,,,,,,,,,,,,,,,,,,,,,,,,,,,,,,,,,,,,,,,,,,,,,,,,,,,,,,,,,,,,,,,,,,,,,,,,,,,,,,,,"[""comma""]",0,[0.22589999997614996],36,0,36,0,1,,
,,,,,,,,,,,,5f05c47cf4abed071ef4f83c,29,Mężczyzna,2022-06-11_09h20.18.316,task,2021.1.4,Win32,60.24096386,6299f149e92ead563fba08ef,62a442261de0783e131bedde,,,,,,,,,,,,,,,,,,,,,,,,,,,,,,,,,,,,,,,,,,,,,,,,,,,,,,,,,,,,,,,,,,,,,,,,,,,,,,,,,,,,,,,,,,,,"[""comma""]",0,[0.3077000000477028],37,0,37,0,1,,
,,,,,,,,,,,,5f05c47cf4abed071ef4f83c,29,Mężczyzna,2022-06-11_09h20.18.316,task,2021.1.4,Win32,60.24096386,6299f149e92ead563fba08ef,62a442261de0783e131bedde,,,,,,,,,,,,,,,,,,,,,,,,,,,,,,,,,,,,,,,,,,,,,,,,,,,,,,,,,,,,,,,,,,,,,,,,,,,,,,,,,,,,,,,,,,,,"[""comma""]",0,[0.30950000000007094],38,0,38,0,1,,
,,,,,,,,,,,,5f05c47cf4abed071ef4f83c,29,Mężczyzna,2022-06-11_09h20.18.316,task,2021.1.4,Win32,60.24096386,6299f149e92ead563fba08ef,62a442261de0783e131bedde,,,,,,,,,,,,,,,,,,,,,,,,,,,,,,,,,,,,,,,,,,,,,,,,,,,,,,,,,,,,,,,,,,,,,,,,,,,,,,,,,,,,,,,,,,,,"[""comma""]",0,[0.2793999999761354],39,0,39,0,1,,
,,,,,,,,,,,,5f05c47cf4abed071ef4f83c,29,Mężczyzna,2022-06-11_09h20.18.316,task,2021.1.4,Win32,60.24096386,6299f149e92ead563fba08ef,62a442261de0783e131bedde,,,,,,,,,,,,,,,,,,,,,,,,,,,,,,,,,,,,,,,,,,,,,,,,,,,,,,,,,,,,,,,,,,,,,,,,,,,,,,,,,,,,,,,,,,,,"[""comma""]",0,[0.3166999999284599],40,0,40,0,1,,
,,,,,,,,,,,,5f05c47cf4abed071ef4f83c,29,Mężczyzna,2022-06-11_09h20.18.316,task,2021.1.4,Win32,60.24096386,6299f149e92ead563fba08ef,62a442261de0783e131bedde,,,,,,,,,,,,,,,,,,,,,,,,,,,,,,,,,,,,,,,,,,,,,,,,,,,,,,,,,,,,,,,,,,,,,,,,,,,,,,,,,,,,,,,,,,,,"[""period""]",0,[0.2837000000477019],41,0,41,0,1,,
,,,,,,,,,,,,5f05c47cf4abed071ef4f83c,29,Mężczyzna,2022-06-11_09h20.18.316,task,2021.1.4,Win32,60.24096386,6299f149e92ead563fba08ef,62a442261de0783e131bedde,,,,,,,,,,,,,,,,,,,,,,,,,,,,,,,,,,,,,,,,,,,,,,,,,,,,,,,,,,,,,,,,,,,,,,,,,,,,,,,,,,,,,,,,,,,,"[""comma""]",0,[0.29289999997615723],42,0,42,0,1,,
,,,,,,,,,,,,5f05c47cf4abed071ef4f83c,29,Mężczyzna,2022-06-11_09h20.18.316,task,2021.1.4,Win32,60.24096386,6299f149e92ead563fba08ef,62a442261de0783e131bedde,,,,,,,,,,,,,,,,,,,,,,,,,,,,,,,,,,,,,,,,,,,,,,,,,,,,,,,,,,,,,,,,,,,,,,,,,,,,,,,,,,,,,,,,,,,,"[""period""]",0,[0.31089999997618634],43,0,43,0,1,,
,,,,,,,,,,,,5f05c47cf4abed071ef4f83c,29,Mężczyzna,2022-06-11_09h20.18.316,task,2021.1.4,Win32,60.24096386,6299f149e92ead563fba08ef,62a442261de0783e131bedde,,,,,,,,,,,,,,,,,,,,,,,,,,,,,,,,,,,,,,,,,,,,,,,,,,,,,,,,,,,,,,,,,,,,,,,,,,,,,,,,,,,,,,,,,,,,"[""period""]",0,[0.28870000004769736],44,0,44,0,1,,
,,,,,,,,,,,,5f05c47cf4abed071ef4f83c,29,Mężczyzna,2022-06-11_09h20.18.316,task,2021.1.4,Win32,60.24096386,6299f149e92ead563fba08ef,62a442261de0783e131bedde,,,,,,,,,,,,,,,,,,,,,,,,,,,,,,,,,,,,,,,,,,,,,,,,,,,,,,,,,,,,,,,,,,,,,,,,,,,,,,,,,,,,,,,,,,,,"[""comma""]",0,[0.2586000000237618],45,0,45,0,1,,
,,,,,,,,,,,,5f05c47cf4abed071ef4f83c,29,Mężczyzna,2022-06-11_09h20.18.316,task,2021.1.4,Win32,60.24096386,6299f149e92ead563fba08ef,62a442261de0783e131bedde,,,,,,,,,,,,,,,,,,,,,,,,,,,,,,,,,,,,,,,,,,,,,,,,,,,,,,,,,,,,,,,,,,,,,,,,,,,,,,,,,,,,,,,,,,,,"[""period""]",0,[0.2768999999761945],46,0,46,0,1,,
,,,,,,,,,,,,5f05c47cf4abed071ef4f83c,29,Mężczyzna,2022-06-11_09h20.18.316,task,2021.1.4,Win32,60.24096386,6299f149e92ead563fba08ef,62a442261de0783e131bedde,,,,,,,,,,,,,,,,,,,,,,,,,,,,,,,,,,,,,,,,,,,,,,,,,,,,,,,,,,,,,,,,,,,,,,,,,,,,,,,,,,,,,,,,,,,,"[""period""]",0,[0.2702999999522717],47,0,47,0,1,,
,,,,,,,,,,,,5f05c47cf4abed071ef4f83c,29,Mężczyzna,2022-06-11_09h20.18.316,task,2021.1.4,Win32,60.24096386,6299f149e92ead563fba08ef,62a442261de0783e131bedde,,,,,,,,,,,,,,,,,,,,,,,,,,,,,,,,,,,,,,,,,,,,,,,,,,,,,,,,,,,,,,,,,,,,,,,,,,,,,,,,,,,,,,,,,,,,"[""period""]",0,[0.3042000000476719],48,0,48,0,1,,
,,,,,,,,,,,,5f05c47cf4abed071ef4f83c,29,Mężczyzna,2022-06-11_09h20.18.316,task,2021.1.4,Win32,60.24096386,6299f149e92ead563fba08ef,62a442261de0783e131bedde,,,,,,,,,,,,,,,,,,,,,,,,,,,,,,,,,,,,,,,,,,,,,,,,,,,,,,,,,,,,,,,,,,,,,,,,,,,,,,,,,,,,,,,,,,,,"[""period""]",0,[0.28270000004772555],49,0,49,0,1,,
,,,,,,,,,,,,5f05c47cf4abed071ef4f83c,29,Mężczyzna,2022-06-11_09h20.18.316,task,2021.1.4,Win32,60.24096386,6299f149e92ead563fba08ef,62a442261de0783e131bedde,,,,,,,,,,,,,,,,,,,,,,,,,,,,,,,,,,,,,,,,,,,,,,,,,,,,,,,,,,,,,,,,,,,,,,,,,,,,,,,,,,,,,,,,,,,,"[""comma""]",0,[0.2843000000715392],50,0,50,0,1,,
,,,,,,,,,,,,5f05c47cf4abed071ef4f83c,29,Mężczyzna,2022-06-11_09h20.18.316,task,2021.1.4,Win32,60.24096386,6299f149e92ead563fba08ef,62a442261de0783e131bedde,,,,,,,,,,,,,,,,,,,,,,,,,,,,,,,,,,,,,,,,,,,,,,,,,,,,,,,,,,,,,,,,,,,,,,,,,,,,,,,,,,,,,,,,,,,,"[""comma""]",0,[0.23279999995236267],51,0,51,0,1,,
,,,,,,,,,,,,5f05c47cf4abed071ef4f83c,29,Mężczyzna,2022-06-11_09h20.18.316,task,2021.1.4,Win32,60.24096386,6299f149e92ead563fba08ef,62a442261de0783e131bedde,,,,,,,,,,,,,,,,,,,,,,,,,,,,,,,,,,,,,,,,,,,,,,,,,,,,,,,,,,,,,,,,,,,,,,,,,,,,,,,,,,,,,,,,,,,,"[""period""]",0,[0.2719999999999345],52,0,52,0,1,,
,,,,,,,,,,,,5f05c47cf4abed071ef4f83c,29,Mężczyzna,2022-06-11_09h20.18.316,task,2021.1.4,Win32,60.24096386,6299f149e92ead563fba08ef,62a442261de0783e131bedde,,,,,,,,,,,,,,,,,,,,,,,,,,,,,,,,,,,,,,,,,,,,,,,,,,,,,,,,,,,,,,,,,,,,,,,,,,,,,,,,,,,,,,,,,,,,"[""period""]",0,[0.2737000000475973],53,0,53,0,1,,
,,,,,,,,,,,,5f05c47cf4abed071ef4f83c,29,Mężczyzna,2022-06-11_09h20.18.316,task,2021.1.4,Win32,60.24096386,6299f149e92ead563fba08ef,62a442261de0783e131bedde,,,,,,,,,,,,,,,,,,,,,,,,,,,,,,,,,,,,,,,,,,,,,,,,,,,,,,,,,,,,,,,,,,,,,,,,,,,,,,,,,,,,,,,,,,,,"[""comma""]",0,[0.1501000000238264],54,0,54,0,1,,
,,,,,,,,,,,,5f05c47cf4abed071ef4f83c,29,Mężczyzna,2022-06-11_09h20.18.316,task,2021.1.4,Win32,60.24096386,6299f149e92ead563fba08ef,62a442261de0783e131bedde,,,,,,,,,,,,,,,,,,,,,,,,,,,,,,,,,,,,,,,,,,,,,,,,,,,,,,,,,,,,,,,,,,,,,,,,,,,,,,,,,,,,,,,,,,,,"[""comma""]",0,[0.24529999995229446],55,0,55,0,1,,
,,,,,,,,,,,,5f05c47cf4abed071ef4f83c,29,Mężczyzna,2022-06-11_09h20.18.316,task,2021.1.4,Win32,60.24096386,6299f149e92ead563fba08ef,62a442261de0783e131bedde,,,,,,,,,,,,,,,,,,,,,,,,,,,,,,,,,,,,,,,,,,,,,,,,,,,,,,,,,,,,,,,,,,,,,,,,,,,,,,,,,,,,,,,,,,,,"[""comma""]",0,[0.09489999997617815],56,0,56,0,1,,
,,,,,,,,,,,,5f05c47cf4abed071ef4f83c,29,Mężczyzna,2022-06-11_09h20.18.316,task,2021.1.4,Win32,60.24096386,6299f149e92ead563fba08ef,62a442261de0783e131bedde,,,,,,,,,,,,,,,,,,,,,,,,,,,,,,,,,,,,,,,,,,,,,,,,,,,,,,,,,,,,,,,,,,,,,,,,,,,,,,,,,,,,,,,,,,,,"[""comma""]",0,[0.2659999999999627],57,0,57,0,1,,
,,,,,,,,,,,,5f05c47cf4abed071ef4f83c,29,Mężczyzna,2022-06-11_09h20.18.316,task,2021.1.4,Win32,60.24096386,6299f149e92ead563fba08ef,62a442261de0783e131bedde,,,,,,,,,,,,,,,,,,,,,,,,,,,,,,,,,,,,,,,,,,,,,,,,,,,,,,,,,,,,,,,,,,,,,,,,,,,,,,,,,,,,,,,,,,,,"[""period""]",0,[0.26779999995221715],58,0,58,0,1,,
,,,,,,,,,,,,5f05c47cf4abed071ef4f83c,29,Mężczyzna,2022-06-11_09h20.18.316,task,2021.1.4,Win32,60.24096386,6299f149e92ead563fba08ef,62a442261de0783e131bedde,,,,,,,,,,,,,,,,,,,,,,,,,,,,,,,,,,,,,,,,,,,,,,,,,,,,,,,,,,,,,,,,,,,,,,,,,,,,,,,,,,,,,,,,,,,,"[""comma""]",0,[0.21299999999996544],59,0,59,0,1,,
,,,,,,,,,,,,5f05c47cf4abed071ef4f83c,29,Mężczyzna,2022-06-11_09h20.18.316,task,2021.1.4,Win32,60.24096386,6299f149e92ead563fba08ef,62a442261de0783e131bedde,,,,,,,,,,,,,,,,,,,,,,,,,,,,,,,,,,,,,,,,,,,,,,,,,,,,,,,,,,,,,,,,,,,,,,,,,,,,,,,,,,,,,,,,,,,,"[""comma""]",0,[0.0003999999761390427],60,0,60,0,1,,
,,,,,,,,,,,,5f05c47cf4abed071ef4f83c,29,Mężczyzna,2022-06-11_09h20.18.316,task,2021.1.4,Win32,60.24096386,6299f149e92ead563fba08ef,62a442261de0783e131bedde,,,,,,,,,,,,,,,,,,,,,,,,,,,,,,,,,,,,,,,,,,,,,,,,,,,,,,,,,,,,,,,,,,,,,,,,,,,,,,,,,,,,,,,,,,,,"[""comma""]",0,[0.20879999995236176],61,0,61,0,1,,
,,,,,,,,,,,,5f05c47cf4abed071ef4f83c,29,Mężczyzna,2022-06-11_09h20.18.316,task,2021.1.4,Win32,60.24096386,6299f149e92ead563fba08ef,62a442261de0783e131bedde,,,,,,,,,,,,,,,,,,,,,,,,,,,,,,,,,,,,,,,,,,,,,,,,,,,,,,,,,,,,,,,,,,,,,,,,,,,,,,,,,,,,,,,,,,,,"[""comma""]",0,[0.2742999999522908],62,0,62,0,1,,
,,,,,,,,,,,,5f05c47cf4abed071ef4f83c,29,Mężczyzna,2022-06-11_09h20.18.316,task,2021.1.4,Win32,60.24096386,6299f149e92ead563fba08ef,62a442261de0783e131bedde,,,,,,,,,,,,,,,,,,,,,,,,,,,,,,,,,,,,,,,,,,,,,,,,,,,,,,,,,,,,,,,,,,,,,,,,,,,,,,,,,,,,,,,,,,,,"[""period""]",0,[0.07640000009530468],63,0,63,0,1,,
,,,,,,,,,,,,5f05c47cf4abed071ef4f83c,29,Mężczyzna,2022-06-11_09h20.18.316,task,2021.1.4,Win32,60.24096386,6299f149e92ead563fba08ef,62a442261de0783e131bedde,,,,,,,,,,,,,,,,,,,,,,,,,,,,,,,,,,,,,,,,,,,,,,,,,,,,,,,,,,,,,,,,,,,,,,,,,,,,,,,,,,,,,,,,,,,,"[""period""]",0,[0.2862000000477565],64,0,64,0,1,,
,,,,,,,,,,,,5f05c47cf4abed071ef4f83c,29,Mężczyzna,2022-06-11_09h20.18.316,task,2021.1.4,Win32,60.24096386,6299f149e92ead563fba08ef,62a442261de0783e131bedde,,,,,,,,,,,,,,,,,,,,,,,,,,,,,,,,,,,,,,,,,,,,,,,,,,,,,,,,,,,,,,,,,,,,,,,,,,,,,,,,,,,,,,,,,,,,"[""comma""]",0,[0.2559999999999718],65,0,65,0,1,,
