key_resp_15.keys,key_resp_15.rt,key_resp_13.keys,key_resp_13.corr,ranodm_loop.thisRepN,ranodm_loop.thisTrialN,ranodm_loop.thisN,ranodm_loop.thisIndex,ranodm_loop.ran,participant,Wiek*,Płeć,date,expName,psychopyVersion,OS,frameRate,study_id,session,key_resp_13.rt,key_resp_16.keys,key_resp_16.rt,key_resp_4.keys,key_resp_4.rt,next_letter.thisRepN,next_letter.thisTrialN,next_letter.thisN,next_letter.thisIndex,next_letter.ran,letter,simple_recall,key_resp_5.keys,key_resp_5.rt,simple_recall_corr,simple_recall_corrkeys,next_level.thisRepN,next_level.thisTrialN,next_level.thisN,next_level.thisIndex,next_level.ran,key_resp_2.keys,key_resp_2.rt,digit_answer,key_resp.keys,key_resp.corr,key_resp.rt,RT_list,next_equation.thisRepN,next_equation.thisTrialN,next_equation.thisN,next_equation.thisIndex,next_equation.ran,Task,Trial,Problem,Operation_answer,processing_score,sumRT,meanRT,sumdiff,sd,RT,key_resp_3.keys,key_resp_3.rt,repeat_practice.thisRepN,repeat_practice.thisTrialN,repeat_practice.thisN,repeat_practice.thisIndex,repeat_practice.ran,key_resp_6.keys,key_resp_6.rt,key_resp_11.keys,key_resp_11.corr,operation_correct,repeat_if_wrong_prac.thisRepN,repeat_if_wrong_prac.thisTrialN,repeat_if_wrong_prac.thisN,repeat_if_wrong_prac.thisIndex,repeat_if_wrong_prac.ran,key_resp_11.rt,span_size_prac.thisRepN,span_size_prac.thisTrialN,span_size_prac.thisN,span_size_prac.thisIndex,span_size_prac.ran,complex_recall_practice,key_resp_9.keys,key_resp_9.corr,key_resp_9.rt,complex_prac_corr,span_recall_prac.thisRepN,span_recall_prac.thisTrialN,span_recall_prac.thisN,span_recall_prac.thisIndex,span_recall_prac.ran,key_resp_10.keys,key_resp_10.rt,key_resp_7.keys,key_resp_7.corr,key_resp_7.rt,repeat_if_wrong.thisRepN,repeat_if_wrong.thisTrialN,repeat_if_wrong.thisN,repeat_if_wrong.thisIndex,repeat_if_wrong.ran,span_size.thisRepN,span_size.thisTrialN,span_size.thisN,span_size.thisIndex,span_size.ran,complex_recall,key_resp_8.keys,key_resp_8.corr,key_resp_8.rt,complex_recall_corr,complex_recall_corrkeys,span_recall.thisRepN,span_recall.thisTrialN,span_recall.thisN,span_recall.thisIndex,span_recall.ran,key_resp_12.keys,key_resp_12.rt
space,15.487,,0,0,0,0,0,1,5f108dea719866356702d26f,23,Mężczyzna,2022-06-04_08h10.23.013,task,2021.1.4,Win32,75.18231712,628b806c463b948bc644b84f,629af6c74ba1548534425c7a,,,,,,,,,,,,,,,,,,,,,,,,,,,,,,,,,,,,,,,,,,,,,,,,,,,,,,,,,,,,,,,,,,,,,,,,,,,,,,,,,,,,,,,,,,,,,,,,,,,,,,,,
,,"[""comma""]",0,1,0,1,0,1,5f108dea719866356702d26f,23,Mężczyzna,2022-06-04_08h10.23.013,task,2021.1.4,Win32,75.18231712,628b806c463b948bc644b84f,629af6c74ba1548534425c7a,[0.474200000000188],,,,,,,,,,,,,,,,,,,,,,,,,,,,,,,,,,,,,,,,,,,,,,,,,,,,,,,,,,,,,,,,,,,,,,,,,,,,,,,,,,,,,,,,,,,,,,,,,,,,,,,
,,"[""period""]",0,2,0,2,0,1,5f108dea719866356702d26f,23,Mężczyzna,2022-06-04_08h10.23.013,task,2021.1.4,Win32,75.18231712,628b806c463b948bc644b84f,629af6c74ba1548534425c7a,[0.2182000000001878],,,,,,,,,,,,,,,,,,,,,,,,,,,,,,,,,,,,,,,,,,,,,,,,,,,,,,,,,,,,,,,,,,,,,,,,,,,,,,,,,,,,,,,,,,,,,,,,,,,,,,,
,,"[""comma""]",0,3,0,3,0,1,5f108dea719866356702d26f,23,Mężczyzna,2022-06-04_08h10.23.013,task,2021.1.4,Win32,75.18231712,628b806c463b948bc644b84f,629af6c74ba1548534425c7a,[0.3302999999998093],,,,,,,,,,,,,,,,,,,,,,,,,,,,,,,,,,,,,,,,,,,,,,,,,,,,,,,,,,,,,,,,,,,,,,,,,,,,,,,,,,,,,,,,,,,,,,,,,,,,,,,
,,"[""comma""]",0,4,0,4,0,1,5f108dea719866356702d26f,23,Mężczyzna,2022-06-04_08h10.23.013,task,2021.1.4,Win32,75.18231712,628b806c463b948bc644b84f,629af6c74ba1548534425c7a,[0.5303999999999078],,,,,,,,,,,,,,,,,,,,,,,,,,,,,,,,,,,,,,,,,,,,,,,,,,,,,,,,,,,,,,,,,,,,,,,,,,,,,,,,,,,,,,,,,,,,,,,,,,,,,,,
,,"[""period""]",0,5,0,5,0,1,5f108dea719866356702d26f,23,Mężczyzna,2022-06-04_08h10.23.013,task,2021.1.4,Win32,75.18231712,628b806c463b948bc644b84f,629af6c74ba1548534425c7a,[0.6177999999998107],,,,,,,,,,,,,,,,,,,,,,,,,,,,,,,,,,,,,,,,,,,,,,,,,,,,,,,,,,,,,,,,,,,,,,,,,,,,,,,,,,,,,,,,,,,,,,,,,,,,,,,
,,"[""period""]",0,6,0,6,0,1,5f108dea719866356702d26f,23,Mężczyzna,2022-06-04_08h10.23.013,task,2021.1.4,Win32,75.18231712,628b806c463b948bc644b84f,629af6c74ba1548534425c7a,[0.9222999999998223],,,,,,,,,,,,,,,,,,,,,,,,,,,,,,,,,,,,,,,,,,,,,,,,,,,,,,,,,,,,,,,,,,,,,,,,,,,,,,,,,,,,,,,,,,,,,,,,,,,,,,,
,,"[""comma""]",0,7,0,7,0,1,5f108dea719866356702d26f,23,Mężczyzna,2022-06-04_08h10.23.013,task,2021.1.4,Win32,75.18231712,628b806c463b948bc644b84f,629af6c74ba1548534425c7a,[0.5292000000001735],,,,,,,,,,,,,,,,,,,,,,,,,,,,,,,,,,,,,,,,,,,,,,,,,,,,,,,,,,,,,,,,,,,,,,,,,,,,,,,,,,,,,,,,,,,,,,,,,,,,,,,
,,"[""comma""]",0,8,0,8,0,1,5f108dea719866356702d26f,23,Mężczyzna,2022-06-04_08h10.23.013,task,2021.1.4,Win32,75.18231712,628b806c463b948bc644b84f,629af6c74ba1548534425c7a,[0.5691000000000912],,,,,,,,,,,,,,,,,,,,,,,,,,,,,,,,,,,,,,,,,,,,,,,,,,,,,,,,,,,,,,,,,,,,,,,,,,,,,,,,,,,,,,,,,,,,,,,,,,,,,,,
,,"[""comma""]",0,9,0,9,0,1,5f108dea719866356702d26f,23,Mężczyzna,2022-06-04_08h10.23.013,task,2021.1.4,Win32,75.18231712,628b806c463b948bc644b84f,629af6c74ba1548534425c7a,[0.6172000000001958],,,,,,,,,,,,,,,,,,,,,,,,,,,,,,,,,,,,,,,,,,,,,,,,,,,,,,,,,,,,,,,,,,,,,,,,,,,,,,,,,,,,,,,,,,,,,,,,,,,,,,,
,,"[""period""]",0,10,0,10,0,1,5f108dea719866356702d26f,23,Mężczyzna,2022-06-04_08h10.23.013,task,2021.1.4,Win32,75.18231712,628b806c463b948bc644b84f,629af6c74ba1548534425c7a,[0.6814999999999998],,,,,,,,,,,,,,,,,,,,,,,,,,,,,,,,,,,,,,,,,,,,,,,,,,,,,,,,,,,,,,,,,,,,,,,,,,,,,,,,,,,,,,,,,,,,,,,,,,,,,,,
,,"[""comma""]",0,11,0,11,0,1,5f108dea719866356702d26f,23,Mężczyzna,2022-06-04_08h10.23.013,task,2021.1.4,Win32,75.18231712,628b806c463b948bc644b84f,629af6c74ba1548534425c7a,[0.8974999999999937],,,,,,,,,,,,,,,,,,,,,,,,,,,,,,,,,,,,,,,,,,,,,,,,,,,,,,,,,,,,,,,,,,,,,,,,,,,,,,,,,,,,,,,,,,,,,,,,,,,,,,,
,,"[""period""]",0,12,0,12,0,1,5f108dea719866356702d26f,23,Mężczyzna,2022-06-04_08h10.23.013,task,2021.1.4,Win32,75.18231712,628b806c463b948bc644b84f,629af6c74ba1548534425c7a,[0.7203000000002788],,,,,,,,,,,,,,,,,,,,,,,,,,,,,,,,,,,,,,,,,,,,,,,,,,,,,,,,,,,,,,,,,,,,,,,,,,,,,,,,,,,,,,,,,,,,,,,,,,,,,,,
,,"[""period""]",0,13,0,13,0,1,5f108dea719866356702d26f,23,Mężczyzna,2022-06-04_08h10.23.013,task,2021.1.4,Win32,75.18231712,628b806c463b948bc644b84f,629af6c74ba1548534425c7a,[0.320399999999907],,,,,,,,,,,,,,,,,,,,,,,,,,,,,,,,,,,,,,,,,,,,,,,,,,,,,,,,,,,,,,,,,,,,,,,,,,,,,,,,,,,,,,,,,,,,,,,,,,,,,,,
,,"[""period""]",0,14,0,14,0,1,5f108dea719866356702d26f,23,Mężczyzna,2022-06-04_08h10.23.013,task,2021.1.4,Win32,75.18231712,628b806c463b948bc644b84f,629af6c74ba1548534425c7a,[0.3189000000003688],,,,,,,,,,,,,,,,,,,,,,,,,,,,,,,,,,,,,,,,,,,,,,,,,,,,,,,,,,,,,,,,,,,,,,,,,,,,,,,,,,,,,,,,,,,,,,,,,,,,,,,
,,"[""period""]",0,15,0,15,0,1,5f108dea719866356702d26f,23,Mężczyzna,2022-06-04_08h10.23.013,task,2021.1.4,Win32,75.18231712,628b806c463b948bc644b84f,629af6c74ba1548534425c7a,[0.31270000000017717],,,,,,,,,,,,,,,,,,,,,,,,,,,,,,,,,,,,,,,,,,,,,,,,,,,,,,,,,,,,,,,,,,,,,,,,,,,,,,,,,,,,,,,,,,,,,,,,,,,,,,,
,,"[""comma""]",0,16,0,16,0,1,5f108dea719866356702d26f,23,Mężczyzna,2022-06-04_08h10.23.013,task,2021.1.4,Win32,75.18231712,628b806c463b948bc644b84f,629af6c74ba1548534425c7a,[0.2811000000000945],,,,,,,,,,,,,,,,,,,,,,,,,,,,,,,,,,,,,,,,,,,,,,,,,,,,,,,,,,,,,,,,,,,,,,,,,,,,,,,,,,,,,,,,,,,,,,,,,,,,,,,
,,"[""comma""]",0,17,0,17,0,1,5f108dea719866356702d26f,23,Mężczyzna,2022-06-04_08h10.23.013,task,2021.1.4,Win32,75.18231712,628b806c463b948bc644b84f,629af6c74ba1548534425c7a,[0.2805000000000035],,,,,,,,,,,,,,,,,,,,,,,,,,,,,,,,,,,,,,,,,,,,,,,,,,,,,,,,,,,,,,,,,,,,,,,,,,,,,,,,,,,,,,,,,,,,,,,,,,,,,,,
,,"[""period""]",0,18,0,18,0,1,5f108dea719866356702d26f,23,Mężczyzna,2022-06-04_08h10.23.013,task,2021.1.4,Win32,75.18231712,628b806c463b948bc644b84f,629af6c74ba1548534425c7a,[0.3123999999999114],,,,,,,,,,,,,,,,,,,,,,,,,,,,,,,,,,,,,,,,,,,,,,,,,,,,,,,,,,,,,,,,,,,,,,,,,,,,,,,,,,,,,,,,,,,,,,,,,,,,,,,
,,"[""period""]",0,19,0,19,0,1,5f108dea719866356702d26f,23,Mężczyzna,2022-06-04_08h10.23.013,task,2021.1.4,Win32,75.18231712,628b806c463b948bc644b84f,629af6c74ba1548534425c7a,[0.5998999999999057],,,,,,,,,,,,,,,,,,,,,,,,,,,,,,,,,,,,,,,,,,,,,,,,,,,,,,,,,,,,,,,,,,,,,,,,,,,,,,,,,,,,,,,,,,,,,,,,,,,,,,,
,,"[""comma""]",0,20,0,20,0,1,5f108dea719866356702d26f,23,Mężczyzna,2022-06-04_08h10.23.013,task,2021.1.4,Win32,75.18231712,628b806c463b948bc644b84f,629af6c74ba1548534425c7a,[0.264899999999912],,,,,,,,,,,,,,,,,,,,,,,,,,,,,,,,,,,,,,,,,,,,,,,,,,,,,,,,,,,,,,,,,,,,,,,,,,,,,,,,,,,,,,,,,,,,,,,,,,,,,,,
,,"[""period""]",0,21,0,21,0,1,5f108dea719866356702d26f,23,Mężczyzna,2022-06-04_08h10.23.013,task,2021.1.4,Win32,75.18231712,628b806c463b948bc644b84f,629af6c74ba1548534425c7a,[0.23270000000019309],,,,,,,,,,,,,,,,,,,,,,,,,,,,,,,,,,,,,,,,,,,,,,,,,,,,,,,,,,,,,,,,,,,,,,,,,,,,,,,,,,,,,,,,,,,,,,,,,,,,,,,
,,"[""comma""]",0,22,0,22,0,1,5f108dea719866356702d26f,23,Mężczyzna,2022-06-04_08h10.23.013,task,2021.1.4,Win32,75.18231712,628b806c463b948bc644b84f,629af6c74ba1548534425c7a,[0.25720000000018217],,,,,,,,,,,,,,,,,,,,,,,,,,,,,,,,,,,,,,,,,,,,,,,,,,,,,,,,,,,,,,,,,,,,,,,,,,,,,,,,,,,,,,,,,,,,,,,,,,,,,,,
,,"[""comma""]",0,23,0,23,0,1,5f108dea719866356702d26f,23,Mężczyzna,2022-06-04_08h10.23.013,task,2021.1.4,Win32,75.18231712,628b806c463b948bc644b84f,629af6c74ba1548534425c7a,[0.38379999999980896],,,,,,,,,,,,,,,,,,,,,,,,,,,,,,,,,,,,,,,,,,,,,,,,,,,,,,,,,,,,,,,,,,,,,,,,,,,,,,,,,,,,,,,,,,,,,,,,,,,,,,,
,,"[""comma""]",0,24,0,24,0,1,5f108dea719866356702d26f,23,Mężczyzna,2022-06-04_08h10.23.013,task,2021.1.4,Win32,75.18231712,628b806c463b948bc644b84f,629af6c74ba1548534425c7a,[0.327100000000101],,,,,,,,,,,,,,,,,,,,,,,,,,,,,,,,,,,,,,,,,,,,,,,,,,,,,,,,,,,,,,,,,,,,,,,,,,,,,,,,,,,,,,,,,,,,,,,,,,,,,,,
,,"[""period""]",0,25,0,25,0,1,5f108dea719866356702d26f,23,Mężczyzna,2022-06-04_08h10.23.013,task,2021.1.4,Win32,75.18231712,628b806c463b948bc644b84f,629af6c74ba1548534425c7a,[0.8076000000000931],,,,,,,,,,,,,,,,,,,,,,,,,,,,,,,,,,,,,,,,,,,,,,,,,,,,,,,,,,,,,,,,,,,,,,,,,,,,,,,,,,,,,,,,,,,,,,,,,,,,,,,
,,"[""comma""]",0,26,0,26,0,1,5f108dea719866356702d26f,23,Mężczyzna,2022-06-04_08h10.23.013,task,2021.1.4,Win32,75.18231712,628b806c463b948bc644b84f,629af6c74ba1548534425c7a,[1.0962000000001808],,,,,,,,,,,,,,,,,,,,,,,,,,,,,,,,,,,,,,,,,,,,,,,,,,,,,,,,,,,,,,,,,,,,,,,,,,,,,,,,,,,,,,,,,,,,,,,,,,,,,,,
,,"[""period""]",0,27,0,27,0,1,5f108dea719866356702d26f,23,Mężczyzna,2022-06-04_08h10.23.013,task,2021.1.4,Win32,75.18231712,628b806c463b948bc644b84f,629af6c74ba1548534425c7a,[0.8163999999999021],,,,,,,,,,,,,,,,,,,,,,,,,,,,,,,,,,,,,,,,,,,,,,,,,,,,,,,,,,,,,,,,,,,,,,,,,,,,,,,,,,,,,,,,,,,,,,,,,,,,,,,
,,"[""comma""]",0,28,0,28,0,1,5f108dea719866356702d26f,23,Mężczyzna,2022-06-04_08h10.23.013,task,2021.1.4,Win32,75.18231712,628b806c463b948bc644b84f,629af6c74ba1548534425c7a,[0.3437999999998027],,,,,,,,,,,,,,,,,,,,,,,,,,,,,,,,,,,,,,,,,,,,,,,,,,,,,,,,,,,,,,,,,,,,,,,,,,,,,,,,,,,,,,,,,,,,,,,,,,,,,,,
,,"[""comma""]",0,29,0,29,0,1,5f108dea719866356702d26f,23,Mężczyzna,2022-06-04_08h10.23.013,task,2021.1.4,Win32,75.18231712,628b806c463b948bc644b84f,629af6c74ba1548534425c7a,[0.1204000000003731],,,,,,,,,,,,,,,,,,,,,,,,,,,,,,,,,,,,,,,,,,,,,,,,,,,,,,,,,,,,,,,,,,,,,,,,,,,,,,,,,,,,,,,,,,,,,,,,,,,,,,,
,,"[""comma""]",0,30,0,30,0,1,5f108dea719866356702d26f,23,Mężczyzna,2022-06-04_08h10.23.013,task,2021.1.4,Win32,75.18231712,628b806c463b948bc644b84f,629af6c74ba1548534425c7a,[0.16750000000000398],,,,,,,,,,,,,,,,,,,,,,,,,,,,,,,,,,,,,,,,,,,,,,,,,,,,,,,,,,,,,,,,,,,,,,,,,,,,,,,,,,,,,,,,,,,,,,,,,,,,,,,
,,"[""period""]",0,31,0,31,0,1,5f108dea719866356702d26f,23,Mężczyzna,2022-06-04_08h10.23.013,task,2021.1.4,Win32,75.18231712,628b806c463b948bc644b84f,629af6c74ba1548534425c7a,[0.2557000000001892],,,,,,,,,,,,,,,,,,,,,,,,,,,,,,,,,,,,,,,,,,,,,,,,,,,,,,,,,,,,,,,,,,,,,,,,,,,,,,,,,,,,,,,,,,,,,,,,,,,,,,,
,,"[""period""]",0,32,0,32,0,1,5f108dea719866356702d26f,23,Mężczyzna,2022-06-04_08h10.23.013,task,2021.1.4,Win32,75.18231712,628b806c463b948bc644b84f,629af6c74ba1548534425c7a,[0.43160000000008836],,,,,,,,,,,,,,,,,,,,,,,,,,,,,,,,,,,,,,,,,,,,,,,,,,,,,,,,,,,,,,,,,,,,,,,,,,,,,,,,,,,,,,,,,,,,,,,,,,,,,,,
,,"[""period""]",0,33,0,33,0,1,5f108dea719866356702d26f,23,Mężczyzna,2022-06-04_08h10.23.013,task,2021.1.4,Win32,75.18231712,628b806c463b948bc644b84f,629af6c74ba1548534425c7a,[0.4238999999999038],,,,,,,,,,,,,,,,,,,,,,,,,,,,,,,,,,,,,,,,,,,,,,,,,,,,,,,,,,,,,,,,,,,,,,,,,,,,,,,,,,,,,,,,,,,,,,,,,,,,,,,
,,"[""comma""]",0,34,0,34,0,1,5f108dea719866356702d26f,23,Mężczyzna,2022-06-04_08h10.23.013,task,2021.1.4,Win32,75.18231712,628b806c463b948bc644b84f,629af6c74ba1548534425c7a,[0.39119999999971355],,,,,,,,,,,,,,,,,,,,,,,,,,,,,,,,,,,,,,,,,,,,,,,,,,,,,,,,,,,,,,,,,,,,,,,,,,,,,,,,,,,,,,,,,,,,,,,,,,,,,,,
,,"[""comma"",""period""]",0,35,0,35,0,1,5f108dea719866356702d26f,23,Mężczyzna,2022-06-04_08h10.23.013,task,2021.1.4,Win32,75.18231712,628b806c463b948bc644b84f,629af6c74ba1548534425c7a,"[0.32640000000037617,1.8142000000001843]",,,,,,,,,,,,,,,,,,,,,,,,,,,,,,,,,,,,,,,,,,,,,,,,,,,,,,,,,,,,,,,,,,,,,,,,,,,,,,,,,,,,,,,,,,,,,,,,,,,,,,,
,,"[""comma""]",0,36,0,36,0,1,5f108dea719866356702d26f,23,Mężczyzna,2022-06-04_08h10.23.013,task,2021.1.4,Win32,75.18231712,628b806c463b948bc644b84f,629af6c74ba1548534425c7a,[1.280600000000092],,,,,,,,,,,,,,,,,,,,,,,,,,,,,,,,,,,,,,,,,,,,,,,,,,,,,,,,,,,,,,,,,,,,,,,,,,,,,,,,,,,,,,,,,,,,,,,,,,,,,,,
,,"[""period""]",0,37,0,37,0,1,5f108dea719866356702d26f,23,Mężczyzna,2022-06-04_08h10.23.013,task,2021.1.4,Win32,75.18231712,628b806c463b948bc644b84f,629af6c74ba1548534425c7a,[0.7271999999997405],,,,,,,,,,,,,,,,,,,,,,,,,,,,,,,,,,,,,,,,,,,,,,,,,,,,,,,,,,,,,,,,,,,,,,,,,,,,,,,,,,,,,,,,,,,,,,,,,,,,,,,
,,"[""comma"",""period""]",0,38,0,38,0,1,5f108dea719866356702d26f,23,Mężczyzna,2022-06-04_08h10.23.013,task,2021.1.4,Win32,75.18231712,628b806c463b948bc644b84f,629af6c74ba1548534425c7a,"[0.4474999999999909,1.9106000000001018]",,,,,,,,,,,,,,,,,,,,,,,,,,,,,,,,,,,,,,,,,,,,,,,,,,,,,,,,,,,,,,,,,,,,,,,,,,,,,,,,,,,,,,,,,,,,,,,,,,,,,,,
,,"[""comma""]",0,39,0,39,0,1,5f108dea719866356702d26f,23,Mężczyzna,2022-06-04_08h10.23.013,task,2021.1.4,Win32,75.18231712,628b806c463b948bc644b84f,629af6c74ba1548534425c7a,[0.8147999999997921],,,,,,,,,,,,,,,,,,,,,,,,,,,,,,,,,,,,,,,,,,,,,,,,,,,,,,,,,,,,,,,,,,,,,,,,,,,,,,,,,,,,,,,,,,,,,,,,,,,,,,,
,,"[""period"",""period""]",0,40,0,40,0,1,5f108dea719866356702d26f,23,Mężczyzna,2022-06-04_08h10.23.013,task,2021.1.4,Win32,75.18231712,628b806c463b948bc644b84f,629af6c74ba1548534425c7a,"[0.48010000000007835,1.9263999999998873]",,,,,,,,,,,,,,,,,,,,,,,,,,,,,,,,,,,,,,,,,,,,,,,,,,,,,,,,,,,,,,,,,,,,,,,,,,,,,,,,,,,,,,,,,,,,,,,,,,,,,,,
,,"[""comma""]",0,41,0,41,0,1,5f108dea719866356702d26f,23,Mężczyzna,2022-06-04_08h10.23.013,task,2021.1.4,Win32,75.18231712,628b806c463b948bc644b84f,629af6c74ba1548534425c7a,[1.022399999999891],,,,,,,,,,,,,,,,,,,,,,,,,,,,,,,,,,,,,,,,,,,,,,,,,,,,,,,,,,,,,,,,,,,,,,,,,,,,,,,,,,,,,,,,,,,,,,,,,,,,,,,
,,"[""comma""]",0,42,0,42,0,1,5f108dea719866356702d26f,23,Mężczyzna,2022-06-04_08h10.23.013,task,2021.1.4,Win32,75.18231712,628b806c463b948bc644b84f,629af6c74ba1548534425c7a,[0.5581000000001097],,,,,,,,,,,,,,,,,,,,,,,,,,,,,,,,,,,,,,,,,,,,,,,,,,,,,,,,,,,,,,,,,,,,,,,,,,,,,,,,,,,,,,,,,,,,,,,,,,,,,,,
,,"[""period""]",0,43,0,43,0,1,5f108dea719866356702d26f,23,Mężczyzna,2022-06-04_08h10.23.013,task,2021.1.4,Win32,75.18231712,628b806c463b948bc644b84f,629af6c74ba1548534425c7a,[0.6705000000000041],,,,,,,,,,,,,,,,,,,,,,,,,,,,,,,,,,,,,,,,,,,,,,,,,,,,,,,,,,,,,,,,,,,,,,,,,,,,,,,,,,,,,,,,,,,,,,,,,,,,,,,
,,"[""period""]",0,44,0,44,0,1,5f108dea719866356702d26f,23,Mężczyzna,2022-06-04_08h10.23.013,task,2021.1.4,Win32,75.18231712,628b806c463b948bc644b84f,629af6c74ba1548534425c7a,[0.42210000000008563],,,,,,,,,,,,,,,,,,,,,,,,,,,,,,,,,,,,,,,,,,,,,,,,,,,,,,,,,,,,,,,,,,,,,,,,,,,,,,,,,,,,,,,,,,,,,,,,,,,,,,,
,,"[""comma""]",0,45,0,45,0,1,5f108dea719866356702d26f,23,Mężczyzna,2022-06-04_08h10.23.013,task,2021.1.4,Win32,75.18231712,628b806c463b948bc644b84f,629af6c74ba1548534425c7a,[0.2685999999996511],,,,,,,,,,,,,,,,,,,,,,,,,,,,,,,,,,,,,,,,,,,,,,,,,,,,,,,,,,,,,,,,,,,,,,,,,,,,,,,,,,,,,,,,,,,,,,,,,,,,,,,
,,"[""comma""]",0,46,0,46,0,1,5f108dea719866356702d26f,23,Mężczyzna,2022-06-04_08h10.23.013,task,2021.1.4,Win32,75.18231712,628b806c463b948bc644b84f,629af6c74ba1548534425c7a,[0.34170000000020195],,,,,,,,,,,,,,,,,,,,,,,,,,,,,,,,,,,,,,,,,,,,,,,,,,,,,,,,,,,,,,,,,,,,,,,,,,,,,,,,,,,,,,,,,,,,,,,,,,,,,,,
,,"[""comma""]",0,47,0,47,0,1,5f108dea719866356702d26f,23,Mężczyzna,2022-06-04_08h10.23.013,task,2021.1.4,Win32,75.18231712,628b806c463b948bc644b84f,629af6c74ba1548534425c7a,[0.40529999999981214],,,,,,,,,,,,,,,,,,,,,,,,,,,,,,,,,,,,,,,,,,,,,,,,,,,,,,,,,,,,,,,,,,,,,,,,,,,,,,,,,,,,,,,,,,,,,,,,,,,,,,,
,,"[""period""]",0,48,0,48,0,1,5f108dea719866356702d26f,23,Mężczyzna,2022-06-04_08h10.23.013,task,2021.1.4,Win32,75.18231712,628b806c463b948bc644b84f,629af6c74ba1548534425c7a,[0.30069999999972197],,,,,,,,,,,,,,,,,,,,,,,,,,,,,,,,,,,,,,,,,,,,,,,,,,,,,,,,,,,,,,,,,,,,,,,,,,,,,,,,,,,,,,,,,,,,,,,,,,,,,,,
,,"[""period""]",0,49,0,49,0,1,5f108dea719866356702d26f,23,Mężczyzna,2022-06-04_08h10.23.013,task,2021.1.4,Win32,75.18231712,628b806c463b948bc644b84f,629af6c74ba1548534425c7a,[0.4373999999999114],,,,,,,,,,,,,,,,,,,,,,,,,,,,,,,,,,,,,,,,,,,,,,,,,,,,,,,,,,,,,,,,,,,,,,,,,,,,,,,,,,,,,,,,,,,,,,,,,,,,,,,
,,"[""comma""]",0,50,0,50,0,1,5f108dea719866356702d26f,23,Mężczyzna,2022-06-04_08h10.23.013,task,2021.1.4,Win32,75.18231712,628b806c463b948bc644b84f,629af6c74ba1548534425c7a,[0.18130000000027735],,,,,,,,,,,,,,,,,,,,,,,,,,,,,,,,,,,,,,,,,,,,,,,,,,,,,,,,,,,,,,,,,,,,,,,,,,,,,,,,,,,,,,,,,,,,,,,,,,,,,,,
,,"[""comma""]",0,51,0,51,0,1,5f108dea719866356702d26f,23,Mężczyzna,2022-06-04_08h10.23.013,task,2021.1.4,Win32,75.18231712,628b806c463b948bc644b84f,629af6c74ba1548534425c7a,[0.09289999999990073],,,,,,,,,,,,,,,,,,,,,,,,,,,,,,,,,,,,,,,,,,,,,,,,,,,,,,,,,,,,,,,,,,,,,,,,,,,,,,,,,,,,,,,,,,,,,,,,,,,,,,,
,,"[""period""]",0,52,0,52,0,1,5f108dea719866356702d26f,23,Mężczyzna,2022-06-04_08h10.23.013,task,2021.1.4,Win32,75.18231712,628b806c463b948bc644b84f,629af6c74ba1548534425c7a,[0.6689999999999827],,,,,,,,,,,,,,,,,,,,,,,,,,,,,,,,,,,,,,,,,,,,,,,,,,,,,,,,,,,,,,,,,,,,,,,,,,,,,,,,,,,,,,,,,,,,,,,,,,,,,,,
,,"[""comma""]",0,53,0,53,0,1,5f108dea719866356702d26f,23,Mężczyzna,2022-06-04_08h10.23.013,task,2021.1.4,Win32,75.18231712,628b806c463b948bc644b84f,629af6c74ba1548534425c7a,[0.5568999999998994],,,,,,,,,,,,,,,,,,,,,,,,,,,,,,,,,,,,,,,,,,,,,,,,,,,,,,,,,,,,,,,,,,,,,,,,,,,,,,,,,,,,,,,,,,,,,,,,,,,,,,,
,,"[""period""]",0,54,0,54,0,1,5f108dea719866356702d26f,23,Mężczyzna,2022-06-04_08h10.23.013,task,2021.1.4,Win32,75.18231712,628b806c463b948bc644b84f,629af6c74ba1548534425c7a,[0.6613000000002671],,,,,,,,,,,,,,,,,,,,,,,,,,,,,,,,,,,,,,,,,,,,,,,,,,,,,,,,,,,,,,,,,,,,,,,,,,,,,,,,,,,,,,,,,,,,,,,,,,,,,,,
,,"[""comma""]",0,55,0,55,0,1,5f108dea719866356702d26f,23,Mężczyzna,2022-06-04_08h10.23.013,task,2021.1.4,Win32,75.18231712,628b806c463b948bc644b84f,629af6c74ba1548534425c7a,[0.31710000000009586],,,,,,,,,,,,,,,,,,,,,,,,,,,,,,,,,,,,,,,,,,,,,,,,,,,,,,,,,,,,,,,,,,,,,,,,,,,,,,,,,,,,,,,,,,,,,,,,,,,,,,,
,,"[""period""]",0,56,0,56,0,1,5f108dea719866356702d26f,23,Mężczyzna,2022-06-04_08h10.23.013,task,2021.1.4,Win32,75.18231712,628b806c463b948bc644b84f,629af6c74ba1548534425c7a,[0.5568999999998994],,,,,,,,,,,,,,,,,,,,,,,,,,,,,,,,,,,,,,,,,,,,,,,,,,,,,,,,,,,,,,,,,,,,,,,,,,,,,,,,,,,,,,,,,,,,,,,,,,,,,,,
,,"[""comma""]",0,57,0,57,0,1,5f108dea719866356702d26f,23,Mężczyzna,2022-06-04_08h10.23.013,task,2021.1.4,Win32,75.18231712,628b806c463b948bc644b84f,629af6c74ba1548534425c7a,[0.31659999999965294],,,,,,,,,,,,,,,,,,,,,,,,,,,,,,,,,,,,,,,,,,,,,,,,,,,,,,,,,,,,,,,,,,,,,,,,,,,,,,,,,,,,,,,,,,,,,,,,,,,,,,,
,,"[""period""]",0,58,0,58,0,1,5f108dea719866356702d26f,23,Mężczyzna,2022-06-04_08h10.23.013,task,2021.1.4,Win32,75.18231712,628b806c463b948bc644b84f,629af6c74ba1548534425c7a,[0.30869999999973174],,,,,,,,,,,,,,,,,,,,,,,,,,,,,,,,,,,,,,,,,,,,,,,,,,,,,,,,,,,,,,,,,,,,,,,,,,,,,,,,,,,,,,,,,,,,,,,,,,,,,,,
,,"[""comma""]",0,59,0,59,0,1,5f108dea719866356702d26f,23,Mężczyzna,2022-06-04_08h10.23.013,task,2021.1.4,Win32,75.18231712,628b806c463b948bc644b84f,629af6c74ba1548534425c7a,[0.1568999999999221],,,,,,,,,,,,,,,,,,,,,,,,,,,,,,,,,,,,,,,,,,,,,,,,,,,,,,,,,,,,,,,,,,,,,,,,,,,,,,,,,,,,,,,,,,,,,,,,,,,,,,,
,,"[""comma""]",0,60,0,60,0,1,5f108dea719866356702d26f,23,Mężczyzna,2022-06-04_08h10.23.013,task,2021.1.4,Win32,75.18231712,628b806c463b948bc644b84f,629af6c74ba1548534425c7a,[0.5646999999997036],,,,,,,,,,,,,,,,,,,,,,,,,,,,,,,,,,,,,,,,,,,,,,,,,,,,,,,,,,,,,,,,,,,,,,,,,,,,,,,,,,,,,,,,,,,,,,,,,,,,,,,
,,"[""comma""]",0,61,0,61,0,1,5f108dea719866356702d26f,23,Mężczyzna,2022-06-04_08h10.23.013,task,2021.1.4,Win32,75.18231712,628b806c463b948bc644b84f,629af6c74ba1548534425c7a,[0.4137999999998101],,,,,,,,,,,,,,,,,,,,,,,,,,,,,,,,,,,,,,,,,,,,,,,,,,,,,,,,,,,,,,,,,,,,,,,,,,,,,,,,,,,,,,,,,,,,,,,,,,,,,,,
,,"[""period""]",0,62,0,62,0,1,5f108dea719866356702d26f,23,Mężczyzna,2022-06-04_08h10.23.013,task,2021.1.4,Win32,75.18231712,628b806c463b948bc644b84f,629af6c74ba1548534425c7a,[0.4201999999997099],,,,,,,,,,,,,,,,,,,,,,,,,,,,,,,,,,,,,,,,,,,,,,,,,,,,,,,,,,,,,,,,,,,,,,,,,,,,,,,,,,,,,,,,,,,,,,,,,,,,,,,
,,"[""comma""]",0,63,0,63,0,1,5f108dea719866356702d26f,23,Mężczyzna,2022-06-04_08h10.23.013,task,2021.1.4,Win32,75.18231712,628b806c463b948bc644b84f,629af6c74ba1548534425c7a,[0.40439999999989595],,,,,,,,,,,,,,,,,,,,,,,,,,,,,,,,,,,,,,,,,,,,,,,,,,,,,,,,,,,,,,,,,,,,,,,,,,,,,,,,,,,,,,,,,,,,,,,,,,,,,,,
,,"[""period""]",0,64,0,64,0,1,5f108dea719866356702d26f,23,Mężczyzna,2022-06-04_08h10.23.013,task,2021.1.4,Win32,75.18231712,628b806c463b948bc644b84f,629af6c74ba1548534425c7a,[0.4358000000002846],,,,,,,,,,,,,,,,,,,,,,,,,,,,,,,,,,,,,,,,,,,,,,,,,,,,,,,,,,,,,,,,,,,,,,,,,,,,,,,,,,,,,,,,,,,,,,,,,,,,,,,
,,"[""comma""]",0,65,0,65,0,1,5f108dea719866356702d26f,23,Mężczyzna,2022-06-04_08h10.23.013,task,2021.1.4,Win32,75.18231712,628b806c463b948bc644b84f,629af6c74ba1548534425c7a,[0.09309999999962315],,,,,,,,,,,,,,,,,,,,,,,,,,,,,,,,,,,,,,,,,,,,,,,,,,,,,,,,,,,,,,,,,,,,,,,,,,,,,,,,,,,,,,,,,,,,,,,,,,,,,,,
,,"[""comma"",""period""]",0,66,0,66,0,1,5f108dea719866356702d26f,23,Mężczyzna,2022-06-04_08h10.23.013,task,2021.1.4,Win32,75.18231712,628b806c463b948bc644b84f,629af6c74ba1548534425c7a,"[0.07619999999971583,1.5561000000001002]",,,,,,,,,,,,,,,,,,,,,,,,,,,,,,,,,,,,,,,,,,,,,,,,,,,,,,,,,,,,,,,,,,,,,,,,,,,,,,,,,,,,,,,,,,,,,,,,,,,,,,,
,,"[""comma""]",0,67,0,67,0,1,5f108dea719866356702d26f,23,Mężczyzna,2022-06-04_08h10.23.013,task,2021.1.4,Win32,75.18231712,628b806c463b948bc644b84f,629af6c74ba1548534425c7a,[1.1238000000002728],,,,,,,,,,,,,,,,,,,,,,,,,,,,,,,,,,,,,,,,,,,,,,,,,,,,,,,,,,,,,,,,,,,,,,,,,,,,,,,,,,,,,,,,,,,,,,,,,,,,,,,
,,"[""period""]",0,68,0,68,0,1,5f108dea719866356702d26f,23,Mężczyzna,2022-06-04_08h10.23.013,task,2021.1.4,Win32,75.18231712,628b806c463b948bc644b84f,629af6c74ba1548534425c7a,[1.0197000000001992],,,,,,,,,,,,,,,,,,,,,,,,,,,,,,,,,,,,,,,,,,,,,,,,,,,,,,,,,,,,,,,,,,,,,,,,,,,,,,,,,,,,,,,,,,,,,,,,,,,,,,,
,,"[""period""]",0,69,0,69,0,1,5f108dea719866356702d26f,23,Mężczyzna,2022-06-04_08h10.23.013,task,2021.1.4,Win32,75.18231712,628b806c463b948bc644b84f,629af6c74ba1548534425c7a,[0.5546999999997126],,,,,,,,,,,,,,,,,,,,,,,,,,,,,,,,,,,,,,,,,,,,,,,,,,,,,,,,,,,,,,,,,,,,,,,,,,,,,,,,,,,,,,,,,,,,,,,,,,,,,,,
,,"[""comma""]",0,70,0,70,0,1,5f108dea719866356702d26f,23,Mężczyzna,2022-06-04_08h10.23.013,task,2021.1.4,Win32,75.18231712,628b806c463b948bc644b84f,629af6c74ba1548534425c7a,[0.37389999999990664],,,,,,,,,,,,,,,,,,,,,,,,,,,,,,,,,,,,,,,,,,,,,,,,,,,,,,,,,,,,,,,,,,,,,,,,,,,,,,,,,,,,,,,,,,,,,,,,,,,,,,,
,,"[""comma"",""period""]",0,71,0,71,0,1,5f108dea719866356702d26f,23,Mężczyzna,2022-06-04_08h10.23.013,task,2021.1.4,Win32,75.18231712,628b806c463b948bc644b84f,629af6c74ba1548534425c7a,"[0.27510000000009427,1.8272000000001754]",,,,,,,,,,,,,,,,,,,,,,,,,,,,,,,,,,,,,,,,,,,,,,,,,,,,,,,,,,,,,,,,,,,,,,,,,,,,,,,,,,,,,,,,,,,,,,,,,,,,,,,
,,,0,72,0,72,0,1,5f108dea719866356702d26f,23,Mężczyzna,2022-06-04_08h10.23.013,task,2021.1.4,Win32,75.18231712,628b806c463b948bc644b84f,629af6c74ba1548534425c7a,,,,,,,,,,,,,,,,,,,,,,,,,,,,,,,,,,,,,,,,,,,,,,,,,,,,,,,,,,,,,,,,,,,,,,,,,,,,,,,,,,,,,,,,,,,,,,,,,,,,,,,,
,,"[""comma"",""period""]",0,73,0,73,0,1,5f108dea719866356702d26f,23,Mężczyzna,2022-06-04_08h10.23.013,task,2021.1.4,Win32,75.18231712,628b806c463b948bc644b84f,629af6c74ba1548534425c7a,"[0.06779999999983488,1.4913999999999135]",,,,,,,,,,,,,,,,,,,,,,,,,,,,,,,,,,,,,,,,,,,,,,,,,,,,,,,,,,,,,,,,,,,,,,,,,,,,,,,,,,,,,,,,,,,,,,,,,,,,,,,
,,"[""comma""]",0,74,0,74,0,1,5f108dea719866356702d26f,23,Mężczyzna,2022-06-04_08h10.23.013,task,2021.1.4,Win32,75.18231712,628b806c463b948bc644b84f,629af6c74ba1548534425c7a,[0.9230000000000018],,,,,,,,,,,,,,,,,,,,,,,,,,,,,,,,,,,,,,,,,,,,,,,,,,,,,,,,,,,,,,,,,,,,,,,,,,,,,,,,,,,,,,,,,,,,,,,,,,,,,,,
,,"[""period""]",0,75,0,75,0,1,5f108dea719866356702d26f,23,Mężczyzna,2022-06-04_08h10.23.013,task,2021.1.4,Win32,75.18231712,628b806c463b948bc644b84f,629af6c74ba1548534425c7a,[0.6588999999999032],,,,,,,,,,,,,,,,,,,,,,,,,,,,,,,,,,,,,,,,,,,,,,,,,,,,,,,,,,,,,,,,,,,,,,,,,,,,,,,,,,,,,,,,,,,,,,,,,,,,,,,
,,"[""comma""]",0,76,0,76,0,1,5f108dea719866356702d26f,23,Mężczyzna,2022-06-04_08h10.23.013,task,2021.1.4,Win32,75.18231712,628b806c463b948bc644b84f,629af6c74ba1548534425c7a,[0.43549999999999045],,,,,,,,,,,,,,,,,,,,,,,,,,,,,,,,,,,,,,,,,,,,,,,,,,,,,,,,,,,,,,,,,,,,,,,,,,,,,,,,,,,,,,,,,,,,,,,,,,,,,,,
,,"[""comma""]",0,77,0,77,0,1,5f108dea719866356702d26f,23,Mężczyzna,2022-06-04_08h10.23.013,task,2021.1.4,Win32,75.18231712,628b806c463b948bc644b84f,629af6c74ba1548534425c7a,[0.3226999999997133],,,,,,,,,,,,,,,,,,,,,,,,,,,,,,,,,,,,,,,,,,,,,,,,,,,,,,,,,,,,,,,,,,,,,,,,,,,,,,,,,,,,,,,,,,,,,,,,,,,,,,,
,,"[""period"",""comma""]",0,78,0,78,0,1,5f108dea719866356702d26f,23,Mężczyzna,2022-06-04_08h10.23.013,task,2021.1.4,Win32,75.18231712,628b806c463b948bc644b84f,629af6c74ba1548534425c7a,"[0.16239999999990573,1.6106000000000904]",,,,,,,,,,,,,,,,,,,,,,,,,,,,,,,,,,,,,,,,,,,,,,,,,,,,,,,,,,,,,,,,,,,,,,,,,,,,,,,,,,,,,,,,,,,,,,,,,,,,,,,
,,"[""period""]",0,79,0,79,0,1,5f108dea719866356702d26f,23,Mężczyzna,2022-06-04_08h10.23.013,task,2021.1.4,Win32,75.18231712,628b806c463b948bc644b84f,629af6c74ba1548534425c7a,[1.4427000000001726],,,,,,,,,,,,,,,,,,,,,,,,,,,,,,,,,,,,,,,,,,,,,,,,,,,,,,,,,,,,,,,,,,,,,,,,,,,,,,,,,,,,,,,,,,,,,,,,,,,,,,,
,,"[""comma""]",0,80,0,80,0,1,5f108dea719866356702d26f,23,Mężczyzna,2022-06-04_08h10.23.013,task,2021.1.4,Win32,75.18231712,628b806c463b948bc644b84f,629af6c74ba1548534425c7a,[0.6983999999999071],,,,,,,,,,,,,,,,,,,,,,,,,,,,,,,,,,,,,,,,,,,,,,,,,,,,,,,,,,,,,,,,,,,,,,,,,,,,,,,,,,,,,,,,,,,,,,,,,,,,,,,
,,"[""comma""]",0,81,0,81,0,1,5f108dea719866356702d26f,23,Mężczyzna,2022-06-04_08h10.23.013,task,2021.1.4,Win32,75.18231712,628b806c463b948bc644b84f,629af6c74ba1548534425c7a,[0.6580000000000155],,,,,,,,,,,,,,,,,,,,,,,,,,,,,,,,,,,,,,,,,,,,,,,,,,,,,,,,,,,,,,,,,,,,,,,,,,,,,,,,,,,,,,,,,,,,,,,,,,,,,,,
,,"[""period"",""comma""]",0,82,0,82,0,1,5f108dea719866356702d26f,23,Mężczyzna,2022-06-04_08h10.23.013,task,2021.1.4,Win32,75.18231712,628b806c463b948bc644b84f,629af6c74ba1548534425c7a,"[0.09800000000001319,1.4660000000000082]",,,,,,,,,,,,,,,,,,,,,,,,,,,,,,,,,,,,,,,,,,,,,,,,,,,,,,,,,,,,,,,,,,,,,,,,,,,,,,,,,,,,,,,,,,,,,,,,,,,,,,,
,,"[""comma""]",0,83,0,83,0,1,5f108dea719866356702d26f,23,Mężczyzna,2022-06-04_08h10.23.013,task,2021.1.4,Win32,75.18231712,628b806c463b948bc644b84f,629af6c74ba1548534425c7a,[0.8171000000000959],,,,,,,,,,,,,,,,,,,,,,,,,,,,,,,,,,,,,,,,,,,,,,,,,,,,,,,,,,,,,,,,,,,,,,,,,,,,,,,,,,,,,,,,,,,,,,,,,,,,,,,
,,"[""period""]",0,84,0,84,0,1,5f108dea719866356702d26f,23,Mężczyzna,2022-06-04_08h10.23.013,task,2021.1.4,Win32,75.18231712,628b806c463b948bc644b84f,629af6c74ba1548534425c7a,[0.5941999999997449],,,,,,,,,,,,,,,,,,,,,,,,,,,,,,,,,,,,,,,,,,,,,,,,,,,,,,,,,,,,,,,,,,,,,,,,,,,,,,,,,,,,,,,,,,,,,,,,,,,,,,,
,,"[""comma""]",0,85,0,85,0,1,5f108dea719866356702d26f,23,Mężczyzna,2022-06-04_08h10.23.013,task,2021.1.4,Win32,75.18231712,628b806c463b948bc644b84f,629af6c74ba1548534425c7a,[0.36130000000028417],,,,,,,,,,,,,,,,,,,,,,,,,,,,,,,,,,,,,,,,,,,,,,,,,,,,,,,,,,,,,,,,,,,,,,,,,,,,,,,,,,,,,,,,,,,,,,,,,,,,,,,
,,"[""comma""]",0,86,0,86,0,1,5f108dea719866356702d26f,23,Mężczyzna,2022-06-04_08h10.23.013,task,2021.1.4,Win32,75.18231712,628b806c463b948bc644b84f,629af6c74ba1548534425c7a,[0.3689999999999998],,,,,,,,,,,,,,,,,,,,,,,,,,,,,,,,,,,,,,,,,,,,,,,,,,,,,,,,,,,,,,,,,,,,,,,,,,,,,,,,,,,,,,,,,,,,,,,,,,,,,,,
,,"[""period""]",0,87,0,87,0,1,5f108dea719866356702d26f,23,Mężczyzna,2022-06-04_08h10.23.013,task,2021.1.4,Win32,75.18231712,628b806c463b948bc644b84f,629af6c74ba1548534425c7a,[0.29020000000019763],,,,,,,,,,,,,,,,,,,,,,,,,,,,,,,,,,,,,,,,,,,,,,,,,,,,,,,,,,,,,,,,,,,,,,,,,,,,,,,,,,,,,,,,,,,,,,,,,,,,,,,
,,"[""period"",""period""]",0,88,0,88,0,1,5f108dea719866356702d26f,23,Mężczyzna,2022-06-04_08h10.23.013,task,2021.1.4,Win32,75.18231712,628b806c463b948bc644b84f,629af6c74ba1548534425c7a,"[-0.006399999999899819,0.6898000000003037]",,,,,,,,,,,,,,,,,,,,,,,,,,,,,,,,,,,,,,,,,,,,,,,,,,,,,,,,,,,,,,,,,,,,,,,,,,,,,,,,,,,,,,,,,,,,,,,,,,,,,,,
,,"[""period""]",0,89,0,89,0,1,5f108dea719866356702d26f,23,Mężczyzna,2022-06-04_08h10.23.013,task,2021.1.4,Win32,75.18231712,628b806c463b948bc644b84f,629af6c74ba1548534425c7a,[0.46769999999972356],,,,,,,,,,,,,,,,,,,,,,,,,,,,,,,,,,,,,,,,,,,,,,,,,,,,,,,,,,,,,,,,,,,,,,,,,,,,,,,,,,,,,,,,,,,,,,,,,,,,,,,
,,"[""comma""]",0,90,0,90,0,1,5f108dea719866356702d26f,23,Mężczyzna,2022-06-04_08h10.23.013,task,2021.1.4,Win32,75.18231712,628b806c463b948bc644b84f,629af6c74ba1548534425c7a,[0.8269999999999982],,,,,,,,,,,,,,,,,,,,,,,,,,,,,,,,,,,,,,,,,,,,,,,,,,,,,,,,,,,,,,,,,,,,,,,,,,,,,,,,,,,,,,,,,,,,,,,,,,,,,,,
,,"[""comma""]",0,91,0,91,0,1,5f108dea719866356702d26f,23,Mężczyzna,2022-06-04_08h10.23.013,task,2021.1.4,Win32,75.18231712,628b806c463b948bc644b84f,629af6c74ba1548534425c7a,[0.5931000000001063],,,,,,,,,,,,,,,,,,,,,,,,,,,,,,,,,,,,,,,,,,,,,,,,,,,,,,,,,,,,,,,,,,,,,,,,,,,,,,,,,,,,,,,,,,,,,,,,,,,,,,,
,,"[""comma""]",0,92,0,92,0,1,5f108dea719866356702d26f,23,Mężczyzna,2022-06-04_08h10.23.013,task,2021.1.4,Win32,75.18231712,628b806c463b948bc644b84f,629af6c74ba1548534425c7a,[0.41789999999988936],,,,,,,,,,,,,,,,,,,,,,,,,,,,,,,,,,,,,,,,,,,,,,,,,,,,,,,,,,,,,,,,,,,,,,,,,,,,,,,,,,,,,,,,,,,,,,,,,,,,,,,
,,"[""comma""]",0,93,0,93,0,1,5f108dea719866356702d26f,23,Mężczyzna,2022-06-04_08h10.23.013,task,2021.1.4,Win32,75.18231712,628b806c463b948bc644b84f,629af6c74ba1548534425c7a,[0.6674999999999898],,,,,,,,,,,,,,,,,,,,,,,,,,,,,,,,,,,,,,,,,,,,,,,,,,,,,,,,,,,,,,,,,,,,,,,,,,,,,,,,,,,,,,,,,,,,,,,,,,,,,,,
,,"[""period""]",0,94,0,94,0,1,5f108dea719866356702d26f,23,Mężczyzna,2022-06-04_08h10.23.013,task,2021.1.4,Win32,75.18231712,628b806c463b948bc644b84f,629af6c74ba1548534425c7a,[0.5769999999999982],,,,,,,,,,,,,,,,,,,,,,,,,,,,,,,,,,,,,,,,,,,,,,,,,,,,,,,,,,,,,,,,,,,,,,,,,,,,,,,,,,,,,,,,,,,,,,,,,,,,,,,
,,"[""comma""]",0,95,0,95,0,1,5f108dea719866356702d26f,23,Mężczyzna,2022-06-04_08h10.23.013,task,2021.1.4,Win32,75.18231712,628b806c463b948bc644b84f,629af6c74ba1548534425c7a,[0.6647000000002095],,,,,,,,,,,,,,,,,,,,,,,,,,,,,,,,,,,,,,,,,,,,,,,,,,,,,,,,,,,,,,,,,,,,,,,,,,,,,,,,,,,,,,,,,,,,,,,,,,,,,,,
,,"[""period""]",0,96,0,96,0,1,5f108dea719866356702d26f,23,Mężczyzna,2022-06-04_08h10.23.013,task,2021.1.4,Win32,75.18231712,628b806c463b948bc644b84f,629af6c74ba1548534425c7a,[0.4089000000003864],,,,,,,,,,,,,,,,,,,,,,,,,,,,,,,,,,,,,,,,,,,,,,,,,,,,,,,,,,,,,,,,,,,,,,,,,,,,,,,,,,,,,,,,,,,,,,,,,,,,,,,
,,"[""comma""]",0,97,0,97,0,1,5f108dea719866356702d26f,23,Mężczyzna,2022-06-04_08h10.23.013,task,2021.1.4,Win32,75.18231712,628b806c463b948bc644b84f,629af6c74ba1548534425c7a,[0.5373999999999057],,,,,,,,,,,,,,,,,,,,,,,,,,,,,,,,,,,,,,,,,,,,,,,,,,,,,,,,,,,,,,,,,,,,,,,,,,,,,,,,,,,,,,,,,,,,,,,,,,,,,,,
,,"[""comma""]",0,98,0,98,0,1,5f108dea719866356702d26f,23,Mężczyzna,2022-06-04_08h10.23.013,task,2021.1.4,Win32,75.18231712,628b806c463b948bc644b84f,629af6c74ba1548534425c7a,[0.3130000000000166],,,,,,,,,,,,,,,,,,,,,,,,,,,,,,,,,,,,,,,,,,,,,,,,,,,,,,,,,,,,,,,,,,,,,,,,,,,,,,,,,,,,,,,,,,,,,,,,,,,,,,,
,,"[""period""]",0,99,0,99,0,1,5f108dea719866356702d26f,23,Mężczyzna,2022-06-04_08h10.23.013,task,2021.1.4,Win32,75.18231712,628b806c463b948bc644b84f,629af6c74ba1548534425c7a,[0.46509999999963725],,,,,,,,,,,,,,,,,,,,,,,,,,,,,,,,,,,,,,,,,,,,,,,,,,,,,,,,,,,,,,,,,,,,,,,,,,,,,,,,,,,,,,,,,,,,,,,,,,,,,,,
,,"[""period"",""comma""]",0,100,0,100,0,1,5f108dea719866356702d26f,23,Mężczyzna,2022-06-04_08h10.23.013,task,2021.1.4,Win32,75.18231712,628b806c463b948bc644b84f,629af6c74ba1548534425c7a,"[0.032699999999721285,1.6410999999996534]",,,,,,,,,,,,,,,,,,,,,,,,,,,,,,,,,,,,,,,,,,,,,,,,,,,,,,,,,,,,,,,,,,,,,,,,,,,,,,,,,,,,,,,,,,,,,,,,,,,,,,,
,,"[""comma""]",0,101,0,101,0,1,5f108dea719866356702d26f,23,Mężczyzna,2022-06-04_08h10.23.013,task,2021.1.4,Win32,75.18231712,628b806c463b948bc644b84f,629af6c74ba1548534425c7a,[1.4568999999998766],,,,,,,,,,,,,,,,,,,,,,,,,,,,,,,,,,,,,,,,,,,,,,,,,,,,,,,,,,,,,,,,,,,,,,,,,,,,,,,,,,,,,,,,,,,,,,,,,,,,,,,
,,"[""period""]",0,102,0,102,0,1,5f108dea719866356702d26f,23,Mężczyzna,2022-06-04_08h10.23.013,task,2021.1.4,Win32,75.18231712,628b806c463b948bc644b84f,629af6c74ba1548534425c7a,[1.5846999999997138],,,,,,,,,,,,,,,,,,,,,,,,,,,,,,,,,,,,,,,,,,,,,,,,,,,,,,,,,,,,,,,,,,,,,,,,,,,,,,,,,,,,,,,,,,,,,,,,,,,,,,,
,,"[""period""]",0,103,0,103,0,1,5f108dea719866356702d26f,23,Mężczyzna,2022-06-04_08h10.23.013,task,2021.1.4,Win32,75.18231712,628b806c463b948bc644b84f,629af6c74ba1548534425c7a,[1.3126999999997224],,,,,,,,,,,,,,,,,,,,,,,,,,,,,,,,,,,,,,,,,,,,,,,,,,,,,,,,,,,,,,,,,,,,,,,,,,,,,,,,,,,,,,,,,,,,,,,,,,,,,,,
,,"[""comma""]",0,104,0,104,0,1,5f108dea719866356702d26f,23,Mężczyzna,2022-06-04_08h10.23.013,task,2021.1.4,Win32,75.18231712,628b806c463b948bc644b84f,629af6c74ba1548534425c7a,[0.6006000000000995],,,,,,,,,,,,,,,,,,,,,,,,,,,,,,,,,,,,,,,,,,,,,,,,,,,,,,,,,,,,,,,,,,,,,,,,,,,,,,,,,,,,,,,,,,,,,,,,,,,,,,,
,,"[""period""]",0,105,0,105,0,1,5f108dea719866356702d26f,23,Mężczyzna,2022-06-04_08h10.23.013,task,2021.1.4,Win32,75.18231712,628b806c463b948bc644b84f,629af6c74ba1548534425c7a,[0.8637999999997987],,,,,,,,,,,,,,,,,,,,,,,,,,,,,,,,,,,,,,,,,,,,,,,,,,,,,,,,,,,,,,,,,,,,,,,,,,,,,,,,,,,,,,,,,,,,,,,,,,,,,,,
,,"[""comma""]",0,106,0,106,0,1,5f108dea719866356702d26f,23,Mężczyzna,2022-06-04_08h10.23.013,task,2021.1.4,Win32,75.18231712,628b806c463b948bc644b84f,629af6c74ba1548534425c7a,[0.6486999999996783],,,,,,,,,,,,,,,,,,,,,,,,,,,,,,,,,,,,,,,,,,,,,,,,,,,,,,,,,,,,,,,,,,,,,,,,,,,,,,,,,,,,,,,,,,,,,,,,,,,,,,,
,,"[""comma"",""period""]",0,107,0,107,0,1,5f108dea719866356702d26f,23,Mężczyzna,2022-06-04_08h10.23.013,task,2021.1.4,Win32,75.18231712,628b806c463b948bc644b84f,629af6c74ba1548534425c7a,"[0.32780000000030896,1.4080000000000155]",,,,,,,,,,,,,,,,,,,,,,,,,,,,,,,,,,,,,,,,,,,,,,,,,,,,,,,,,,,,,,,,,,,,,,,,,,,,,,,,,,,,,,,,,,,,,,,,,,,,,,,
,,"[""comma""]",0,108,0,108,0,1,5f108dea719866356702d26f,23,Mężczyzna,2022-06-04_08h10.23.013,task,2021.1.4,Win32,75.18231712,628b806c463b948bc644b84f,629af6c74ba1548534425c7a,[1.0002000000001772],,,,,,,,,,,,,,,,,,,,,,,,,,,,,,,,,,,,,,,,,,,,,,,,,,,,,,,,,,,,,,,,,,,,,,,,,,,,,,,,,,,,,,,,,,,,,,,,,,,,,,,
,,"[""comma""]",0,109,0,109,0,1,5f108dea719866356702d26f,23,Mężczyzna,2022-06-04_08h10.23.013,task,2021.1.4,Win32,75.18231712,628b806c463b948bc644b84f,629af6c74ba1548534425c7a,[0.6703999999999155],,,,,,,,,,,,,,,,,,,,,,,,,,,,,,,,,,,,,,,,,,,,,,,,,,,,,,,,,,,,,,,,,,,,,,,,,,,,,,,,,,,,,,,,,,,,,,,,,,,,,,,
,,"[""period""]",0,110,0,110,0,1,5f108dea719866356702d26f,23,Mężczyzna,2022-06-04_08h10.23.013,task,2021.1.4,Win32,75.18231712,628b806c463b948bc644b84f,629af6c74ba1548534425c7a,[0.14339999999987185],,,,,,,,,,,,,,,,,,,,,,,,,,,,,,,,,,,,,,,,,,,,,,,,,,,,,,,,,,,,,,,,,,,,,,,,,,,,,,,,,,,,,,,,,,,,,,,,,,,,,,,
,,"[""comma"",""period""]",0,111,0,111,0,1,5f108dea719866356702d26f,23,Mężczyzna,2022-06-04_08h10.23.013,task,2021.1.4,Win32,75.18231712,628b806c463b948bc644b84f,629af6c74ba1548534425c7a,"[0.19139999999987367,1.6396999999997206]",,,,,,,,,,,,,,,,,,,,,,,,,,,,,,,,,,,,,,,,,,,,,,,,,,,,,,,,,,,,,,,,,,,,,,,,,,,,,,,,,,,,,,,,,,,,,,,,,,,,,,,
,,"[""comma""]",0,112,0,112,0,1,5f108dea719866356702d26f,23,Mężczyzna,2022-06-04_08h10.23.013,task,2021.1.4,Win32,75.18231712,628b806c463b948bc644b84f,629af6c74ba1548534425c7a,[0.734600000000114],,,,,,,,,,,,,,,,,,,,,,,,,,,,,,,,,,,,,,,,,,,,,,,,,,,,,,,,,,,,,,,,,,,,,,,,,,,,,,,,,,,,,,,,,,,,,,,,,,,,,,,
,,"[""comma""]",0,113,0,113,0,1,5f108dea719866356702d26f,23,Mężczyzna,2022-06-04_08h10.23.013,task,2021.1.4,Win32,75.18231712,628b806c463b948bc644b84f,629af6c74ba1548534425c7a,[0.6001000000001113],,,,,,,,,,,,,,,,,,,,,,,,,,,,,,,,,,,,,,,,,,,,,,,,,,,,,,,,,,,,,,,,,,,,,,,,,,,,,,,,,,,,,,,,,,,,,,,,,,,,,,,
,,"[""comma""]",0,114,0,114,0,1,5f108dea719866356702d26f,23,Mężczyzna,2022-06-04_08h10.23.013,task,2021.1.4,Win32,75.18231712,628b806c463b948bc644b84f,629af6c74ba1548534425c7a,[0.5674999999999955],,,,,,,,,,,,,,,,,,,,,,,,,,,,,,,,,,,,,,,,,,,,,,,,,,,,,,,,,,,,,,,,,,,,,,,,,,,,,,,,,,,,,,,,,,,,,,,,,,,,,,,
,,"[""period""]",0,115,0,115,0,1,5f108dea719866356702d26f,23,Mężczyzna,2022-06-04_08h10.23.013,task,2021.1.4,Win32,75.18231712,628b806c463b948bc644b84f,629af6c74ba1548534425c7a,[0.6865000000000236],,,,,,,,,,,,,,,,,,,,,,,,,,,,,,,,,,,,,,,,,,,,,,,,,,,,,,,,,,,,,,,,,,,,,,,,,,,,,,,,,,,,,,,,,,,,,,,,,,,,,,,
,,"[""period"",""comma""]",0,116,0,116,0,1,5f108dea719866356702d26f,23,Mężczyzna,2022-06-04_08h10.23.013,task,2021.1.4,Win32,75.18231712,628b806c463b948bc644b84f,629af6c74ba1548534425c7a,"[0.5992999999998005,1.7825000000000273]",,,,,,,,,,,,,,,,,,,,,,,,,,,,,,,,,,,,,,,,,,,,,,,,,,,,,,,,,,,,,,,,,,,,,,,,,,,,,,,,,,,,,,,,,,,,,,,,,,,,,,,
,,"[""comma""]",0,117,0,117,0,1,5f108dea719866356702d26f,23,Mężczyzna,2022-06-04_08h10.23.013,task,2021.1.4,Win32,75.18231712,628b806c463b948bc644b84f,629af6c74ba1548534425c7a,[1.8401000000001204],,,,,,,,,,,,,,,,,,,,,,,,,,,,,,,,,,,,,,,,,,,,,,,,,,,,,,,,,,,,,,,,,,,,,,,,,,,,,,,,,,,,,,,,,,,,,,,,,,,,,,,
,,"[""period""]",0,118,0,118,0,1,5f108dea719866356702d26f,23,Mężczyzna,2022-06-04_08h10.23.013,task,2021.1.4,Win32,75.18231712,628b806c463b948bc644b84f,629af6c74ba1548534425c7a,[1.4066000000000827],,,,,,,,,,,,,,,,,,,,,,,,,,,,,,,,,,,,,,,,,,,,,,,,,,,,,,,,,,,,,,,,,,,,,,,,,,,,,,,,,,,,,,,,,,,,,,,,,,,,,,,
,,"[""comma""]",0,119,0,119,0,1,5f108dea719866356702d26f,23,Mężczyzna,2022-06-04_08h10.23.013,task,2021.1.4,Win32,75.18231712,628b806c463b948bc644b84f,629af6c74ba1548534425c7a,[1.3907999999998424],,,,,,,,,,,,,,,,,,,,,,,,,,,,,,,,,,,,,,,,,,,,,,,,,,,,,,,,,,,,,,,,,,,,,,,,,,,,,,,,,,,,,,,,,,,,,,,,,,,,,,,
,,,,,,,,,5f108dea719866356702d26f,23,Mężczyzna,2022-06-04_08h10.23.013,task,2021.1.4,Win32,75.18231712,628b806c463b948bc644b84f,629af6c74ba1548534425c7a,,space,59.8342,space,20.6556,0,0,0,0,1,X V Q F H G B L J M P D K C T S W R N Z,,,,,,,,,,,,,,,,,,,,,,,,,,,,,,,,,,,,,,,,,,,,,,,,,,,,,,,,,,,,,,,,,,,,,,,,,,,,,,,,,,,,,,,,,,,,,
,,,,,,,,,5f108dea719866356702d26f,23,Mężczyzna,2022-06-04_08h10.23.013,task,2021.1.4,Win32,75.18231712,628b806c463b948bc644b84f,629af6c74ba1548534425c7a,,,,,,1,0,1,0,1,X V Q F H G B L J M P D K C T S W R N Z,,,,,,,,,,,,,,,,,,,,,,,,,,,,,,,,,,,,,,,,,,,,,,,,,,,,,,,,,,,,,,,,,,,,,,,,,,,,,,,,,,,,,,,,,,,,,
,,,,,,,,,5f108dea719866356702d26f,23,Mężczyzna,2022-06-04_08h10.23.013,task,2021.1.4,Win32,75.18231712,628b806c463b948bc644b84f,629af6c74ba1548534425c7a,,,,,,,,,,,,zd,"[""z"",""d""]","[1.8221000000000913,2.4538000000002853,3.285899999999913]",1,ZD,0,0,0,0,1,,,,,,,,,,,,,,,,,,,,,,,,,,,,,,,,,,,,,,,,,,,,,,,,,,,,,,,,,,,,,,,,,,,,,,,,,,,,,,,,,,,
,,,,,,,,,5f108dea719866356702d26f,23,Mężczyzna,2022-06-04_08h10.23.013,task,2021.1.4,Win32,75.18231712,628b806c463b948bc644b84f,629af6c74ba1548534425c7a,,,,,,0,0,0,0,1,X V Q F H G B L J M P D K C T S W R N Z,,,,,,,,,,,,,,,,,,,,,,,,,,,,,,,,,,,,,,,,,,,,,,,,,,,,,,,,,,,,,,,,,,,,,,,,,,,,,,,,,,,,,,,,,,,,,
,,,,,,,,,5f108dea719866356702d26f,23,Mężczyzna,2022-06-04_08h10.23.013,task,2021.1.4,Win32,75.18231712,628b806c463b948bc644b84f,629af6c74ba1548534425c7a,,,,,,1,0,1,0,1,X V Q F H G B L J M P D K C T S W R N Z,,,,,,,,,,,,,,,,,,,,,,,,,,,,,,,,,,,,,,,,,,,,,,,,,,,,,,,,,,,,,,,,,,,,,,,,,,,,,,,,,,,,,,,,,,,,,
,,,,,,,,,5f108dea719866356702d26f,23,Mężczyzna,2022-06-04_08h10.23.013,task,2021.1.4,Win32,75.18231712,628b806c463b948bc644b84f,629af6c74ba1548534425c7a,,,,,,,,,,,,dn,"[""d"",""n""]","[1.3718999999999255,1.7333000000002698,2.1477000000002135]",1,DN,1,0,1,0,1,,,,,,,,,,,,,,,,,,,,,,,,,,,,,,,,,,,,,,,,,,,,,,,,,,,,,,,,,,,,,,,,,,,,,,,,,,,,,,,,,,,
,,,,,,,,,5f108dea719866356702d26f,23,Mężczyzna,2022-06-04_08h10.23.013,task,2021.1.4,Win32,75.18231712,628b806c463b948bc644b84f,629af6c74ba1548534425c7a,,,,,,0,0,0,0,1,X V Q F H G B L J M P D K C T S W R N Z,,,,,,,,,,,,,,,,,,,,,,,,,,,,,,,,,,,,,,,,,,,,,,,,,,,,,,,,,,,,,,,,,,,,,,,,,,,,,,,,,,,,,,,,,,,,,
,,,,,,,,,5f108dea719866356702d26f,23,Mężczyzna,2022-06-04_08h10.23.013,task,2021.1.4,Win32,75.18231712,628b806c463b948bc644b84f,629af6c74ba1548534425c7a,,,,,,1,0,1,0,1,X V Q F H G B L J M P D K C T S W R N Z,,,,,,,,,,,,,,,,,,,,,,,,,,,,,,,,,,,,,,,,,,,,,,,,,,,,,,,,,,,,,,,,,,,,,,,,,,,,,,,,,,,,,,,,,,,,,
,,,,,,,,,5f108dea719866356702d26f,23,Mężczyzna,2022-06-04_08h10.23.013,task,2021.1.4,Win32,75.18231712,628b806c463b948bc644b84f,629af6c74ba1548534425c7a,,,,,,2,0,2,0,1,X V Q F H G B L J M P D K C T S W R N Z,,,,,,,,,,,,,,,,,,,,,,,,,,,,,,,,,,,,,,,,,,,,,,,,,,,,,,,,,,,,,,,,,,,,,,,,,,,,,,,,,,,,,,,,,,,,,
,,,,,,,,,5f108dea719866356702d26f,23,Mężczyzna,2022-06-04_08h10.23.013,task,2021.1.4,Win32,75.18231712,628b806c463b948bc644b84f,629af6c74ba1548534425c7a,,,,,,,,,,,,zjr,"[""z"",""j"",""r""]","[0.4831999999997265,1.0674999999999955,1.7392999999998437,2.1630999999996448]",1,ZJR,2,0,2,0,1,,,,,,,,,,,,,,,,,,,,,,,,,,,,,,,,,,,,,,,,,,,,,,,,,,,,,,,,,,,,,,,,,,,,,,,,,,,,,,,,,,,
,,,,,,,,,5f108dea719866356702d26f,23,Mężczyzna,2022-06-04_08h10.23.013,task,2021.1.4,Win32,75.18231712,628b806c463b948bc644b84f,629af6c74ba1548534425c7a,,,,,,0,0,0,0,1,X V Q F H G B L J M P D K C T S W R N Z,,,,,,,,,,,,,,,,,,,,,,,,,,,,,,,,,,,,,,,,,,,,,,,,,,,,,,,,,,,,,,,,,,,,,,,,,,,,,,,,,,,,,,,,,,,,,
,,,,,,,,,5f108dea719866356702d26f,23,Mężczyzna,2022-06-04_08h10.23.013,task,2021.1.4,Win32,75.18231712,628b806c463b948bc644b84f,629af6c74ba1548534425c7a,,,,,,1,0,1,0,1,X V Q F H G B L J M P D K C T S W R N Z,,,,,,,,,,,,,,,,,,,,,,,,,,,,,,,,,,,,,,,,,,,,,,,,,,,,,,,,,,,,,,,,,,,,,,,,,,,,,,,,,,,,,,,,,,,,,
,,,,,,,,,5f108dea719866356702d26f,23,Mężczyzna,2022-06-04_08h10.23.013,task,2021.1.4,Win32,75.18231712,628b806c463b948bc644b84f,629af6c74ba1548534425c7a,,,,,,2,0,2,0,1,X V Q F H G B L J M P D K C T S W R N Z,,,,,,,,,,,,,,,,,,,,,,,,,,,,,,,,,,,,,,,,,,,,,,,,,,,,,,,,,,,,,,,,,,,,,,,,,,,,,,,,,,,,,,,,,,,,,
,,,,,,,,,5f108dea719866356702d26f,23,Mężczyzna,2022-06-04_08h10.23.013,task,2021.1.4,Win32,75.18231712,628b806c463b948bc644b84f,629af6c74ba1548534425c7a,,,,,,,,,,,,bgk,"[""b"",""g"",""k""]","[2.079400000000362,2.253700000000208,4.173400000000356,5.358499999999992]",1,BGK,3,0,3,0,1,,,,,,,,,,,,,,,,,,,,,,,,,,,,,,,,,,,,,,,,,,,,,,,,,,,,,,,,,,,,,,,,,,,,,,,,,,,,,,,,,,,
,,,,,,,,,5f108dea719866356702d26f,23,Mężczyzna,2022-06-04_08h10.23.013,task,2021.1.4,Win32,75.18231712,628b806c463b948bc644b84f,629af6c74ba1548534425c7a,,,,,,0,0,0,0,1,X V Q F H G B L J M P D K C T S W R N Z,,,,,,,,,,,,,,,,,,,,,,,,,,,,,,,,,,,,,,,,,,,,,,,,,,,,,,,,,,,,,,,,,,,,,,,,,,,,,,,,,,,,,,,,,,,,,
,,,,,,,,,5f108dea719866356702d26f,23,Mężczyzna,2022-06-04_08h10.23.013,task,2021.1.4,Win32,75.18231712,628b806c463b948bc644b84f,629af6c74ba1548534425c7a,,,,,,1,0,1,0,1,X V Q F H G B L J M P D K C T S W R N Z,,,,,,,,,,,,,,,,,,,,,,,,,,,,,,,,,,,,,,,,,,,,,,,,,,,,,,,,,,,,,,,,,,,,,,,,,,,,,,,,,,,,,,,,,,,,,
,,,,,,,,,5f108dea719866356702d26f,23,Mężczyzna,2022-06-04_08h10.23.013,task,2021.1.4,Win32,75.18231712,628b806c463b948bc644b84f,629af6c74ba1548534425c7a,,,,,,2,0,2,0,1,X V Q F H G B L J M P D K C T S W R N Z,,,,,,,,,,,,,,,,,,,,,,,,,,,,,,,,,,,,,,,,,,,,,,,,,,,,,,,,,,,,,,,,,,,,,,,,,,,,,,,,,,,,,,,,,,,,,
,,,,,,,,,5f108dea719866356702d26f,23,Mężczyzna,2022-06-04_08h10.23.013,task,2021.1.4,Win32,75.18231712,628b806c463b948bc644b84f,629af6c74ba1548534425c7a,,,,,,3,0,3,0,1,X V Q F H G B L J M P D K C T S W R N Z,,,,,,,,,,,,,,,,,,,,,,,,,,,,,,,,,,,,,,,,,,,,,,,,,,,,,,,,,,,,,,,,,,,,,,,,,,,,,,,,,,,,,,,,,,,,,
,,,,,,,,,5f108dea719866356702d26f,23,Mężczyzna,2022-06-04_08h10.23.013,task,2021.1.4,Win32,75.18231712,628b806c463b948bc644b84f,629af6c74ba1548534425c7a,,,,,,,,,,,,ttnz,"[""t"",""t"",""n"",""z""]","[0.9936999999997624,1.1614999999999895,1.385299999999802,1.8657999999998083,3.201599999999644]",1,TTNZ,4,0,4,0,1,,,,,,,,,,,,,,,,,,,,,,,,,,,,,,,,,,,,,,,,,,,,,,,,,,,,,,,,,,,,,,,,,,,,,,,,,,,,,,,,,,,
,,,,,,,,,5f108dea719866356702d26f,23,Mężczyzna,2022-06-04_08h10.23.013,task,2021.1.4,Win32,75.18231712,628b806c463b948bc644b84f,629af6c74ba1548534425c7a,,,,,,0,0,0,0,1,X V Q F H G B L J M P D K C T S W R N Z,,,,,,,,,,,,,,,,,,,,,,,,,,,,,,,,,,,,,,,,,,,,,,,,,,,,,,,,,,,,,,,,,,,,,,,,,,,,,,,,,,,,,,,,,,,,,
,,,,,,,,,5f108dea719866356702d26f,23,Mężczyzna,2022-06-04_08h10.23.013,task,2021.1.4,Win32,75.18231712,628b806c463b948bc644b84f,629af6c74ba1548534425c7a,,,,,,1,0,1,0,1,X V Q F H G B L J M P D K C T S W R N Z,,,,,,,,,,,,,,,,,,,,,,,,,,,,,,,,,,,,,,,,,,,,,,,,,,,,,,,,,,,,,,,,,,,,,,,,,,,,,,,,,,,,,,,,,,,,,
,,,,,,,,,5f108dea719866356702d26f,23,Mężczyzna,2022-06-04_08h10.23.013,task,2021.1.4,Win32,75.18231712,628b806c463b948bc644b84f,629af6c74ba1548534425c7a,,,,,,2,0,2,0,1,X V Q F H G B L J M P D K C T S W R N Z,,,,,,,,,,,,,,,,,,,,,,,,,,,,,,,,,,,,,,,,,,,,,,,,,,,,,,,,,,,,,,,,,,,,,,,,,,,,,,,,,,,,,,,,,,,,,
,,,,,,,,,5f108dea719866356702d26f,23,Mężczyzna,2022-06-04_08h10.23.013,task,2021.1.4,Win32,75.18231712,628b806c463b948bc644b84f,629af6c74ba1548534425c7a,,,,,,3,0,3,0,1,X V Q F H G B L J M P D K C T S W R N Z,,,,,,,,,,,,,,,,,,,,,,,,,,,,,,,,,,,,,,,,,,,,,,,,,,,,,,,,,,,,,,,,,,,,,,,,,,,,,,,,,,,,,,,,,,,,,
,,,,,,,,,5f108dea719866356702d26f,23,Mężczyzna,2022-06-04_08h10.23.013,task,2021.1.4,Win32,75.18231712,628b806c463b948bc644b84f,629af6c74ba1548534425c7a,,,,,,,,,,,,jdnt,"[""j"",""d"",""n"",""t""]","[1.327600000000075,1.5594000000003803,1.7034000000003857,1.9196000000000595,2.8714000000003352]",1,JDNT,5,0,5,0,1,,,,,,,,,,,,,,,,,,,,,,,,,,,,,,,,,,,,,,,,,,,,,,,,,,,,,,,,,,,,,,,,,,,,,,,,,,,,,,,,,,,
,,,,,,,,,5f108dea719866356702d26f,23,Mężczyzna,2022-06-04_08h10.23.013,task,2021.1.4,Win32,75.18231712,628b806c463b948bc644b84f,629af6c74ba1548534425c7a,,,,,,0,0,0,0,1,X V Q F H G B L J M P D K C T S W R N Z,,,,,,,,,,,,,,,,,,,,,,,,,,,,,,,,,,,,,,,,,,,,,,,,,,,,,,,,,,,,,,,,,,,,,,,,,,,,,,,,,,,,,,,,,,,,,
,,,,,,,,,5f108dea719866356702d26f,23,Mężczyzna,2022-06-04_08h10.23.013,task,2021.1.4,Win32,75.18231712,628b806c463b948bc644b84f,629af6c74ba1548534425c7a,,,,,,1,0,1,0,1,X V Q F H G B L J M P D K C T S W R N Z,,,,,,,,,,,,,,,,,,,,,,,,,,,,,,,,,,,,,,,,,,,,,,,,,,,,,,,,,,,,,,,,,,,,,,,,,,,,,,,,,,,,,,,,,,,,,
,,,,,,,,,5f108dea719866356702d26f,23,Mężczyzna,2022-06-04_08h10.23.013,task,2021.1.4,Win32,75.18231712,628b806c463b948bc644b84f,629af6c74ba1548534425c7a,,,,,,2,0,2,0,1,X V Q F H G B L J M P D K C T S W R N Z,,,,,,,,,,,,,,,,,,,,,,,,,,,,,,,,,,,,,,,,,,,,,,,,,,,,,,,,,,,,,,,,,,,,,,,,,,,,,,,,,,,,,,,,,,,,,
,,,,,,,,,5f108dea719866356702d26f,23,Mężczyzna,2022-06-04_08h10.23.013,task,2021.1.4,Win32,75.18231712,628b806c463b948bc644b84f,629af6c74ba1548534425c7a,,,,,,3,0,3,0,1,X V Q F H G B L J M P D K C T S W R N Z,,,,,,,,,,,,,,,,,,,,,,,,,,,,,,,,,,,,,,,,,,,,,,,,,,,,,,,,,,,,,,,,,,,,,,,,,,,,,,,,,,,,,,,,,,,,,
,,,,,,,,,5f108dea719866356702d26f,23,Mężczyzna,2022-06-04_08h10.23.013,task,2021.1.4,Win32,75.18231712,628b806c463b948bc644b84f,629af6c74ba1548534425c7a,,,,,,4,0,4,0,1,X V Q F H G B L J M P D K C T S W R N Z,,,,,,,,,,,,,,,,,,,,,,,,,,,,,,,,,,,,,,,,,,,,,,,,,,,,,,,,,,,,,,,,,,,,,,,,,,,,,,,,,,,,,,,,,,,,,
,,,,,,,,,5f108dea719866356702d26f,23,Mężczyzna,2022-06-04_08h10.23.013,task,2021.1.4,Win32,75.18231712,628b806c463b948bc644b84f,629af6c74ba1548534425c7a,,,,,,,,,,,,qtsff,"[""q"",""t"",""s"",""f"",""f""]","[1.5319000000003484,1.899200000000178,2.0990999999996234,2.563299999999799,2.7070999999996275,3.523200000000145]",1,QTSFF,6,0,6,0,1,,,,,,,,,,,,,,,,,,,,,,,,,,,,,,,,,,,,,,,,,,,,,,,,,,,,,,,,,,,,,,,,,,,,,,,,,,,,,,,,,,,
,,,,,,,,,5f108dea719866356702d26f,23,Mężczyzna,2022-06-04_08h10.23.013,task,2021.1.4,Win32,75.18231712,628b806c463b948bc644b84f,629af6c74ba1548534425c7a,,,,,,0,0,0,0,1,X V Q F H G B L J M P D K C T S W R N Z,,,,,,,,,,,,,,,,,,,,,,,,,,,,,,,,,,,,,,,,,,,,,,,,,,,,,,,,,,,,,,,,,,,,,,,,,,,,,,,,,,,,,,,,,,,,,
,,,,,,,,,5f108dea719866356702d26f,23,Mężczyzna,2022-06-04_08h10.23.013,task,2021.1.4,Win32,75.18231712,628b806c463b948bc644b84f,629af6c74ba1548534425c7a,,,,,,1,0,1,0,1,X V Q F H G B L J M P D K C T S W R N Z,,,,,,,,,,,,,,,,,,,,,,,,,,,,,,,,,,,,,,,,,,,,,,,,,,,,,,,,,,,,,,,,,,,,,,,,,,,,,,,,,,,,,,,,,,,,,
,,,,,,,,,5f108dea719866356702d26f,23,Mężczyzna,2022-06-04_08h10.23.013,task,2021.1.4,Win32,75.18231712,628b806c463b948bc644b84f,629af6c74ba1548534425c7a,,,,,,2,0,2,0,1,X V Q F H G B L J M P D K C T S W R N Z,,,,,,,,,,,,,,,,,,,,,,,,,,,,,,,,,,,,,,,,,,,,,,,,,,,,,,,,,,,,,,,,,,,,,,,,,,,,,,,,,,,,,,,,,,,,,
,,,,,,,,,5f108dea719866356702d26f,23,Mężczyzna,2022-06-04_08h10.23.013,task,2021.1.4,Win32,75.18231712,628b806c463b948bc644b84f,629af6c74ba1548534425c7a,,,,,,3,0,3,0,1,X V Q F H G B L J M P D K C T S W R N Z,,,,,,,,,,,,,,,,,,,,,,,,,,,,,,,,,,,,,,,,,,,,,,,,,,,,,,,,,,,,,,,,,,,,,,,,,,,,,,,,,,,,,,,,,,,,,
,,,,,,,,,5f108dea719866356702d26f,23,Mężczyzna,2022-06-04_08h10.23.013,task,2021.1.4,Win32,75.18231712,628b806c463b948bc644b84f,629af6c74ba1548534425c7a,,,,,,4,0,4,0,1,X V Q F H G B L J M P D K C T S W R N Z,,,,,,,,,,,,,,,,,,,,,,,,,,,,,,,,,,,,,,,,,,,,,,,,,,,,,,,,,,,,,,,,,,,,,,,,,,,,,,,,,,,,,,,,,,,,,
,,,,,,,,,5f108dea719866356702d26f,23,Mężczyzna,2022-06-04_08h10.23.013,task,2021.1.4,Win32,75.18231712,628b806c463b948bc644b84f,629af6c74ba1548534425c7a,,,,,,,,,,,,bwqzs,"[""b"",""w"",""q"",""z"",""s""]","[1.347299999999791,2.3234999999999673,2.4912999999997965,3.3632999999998106,3.683499999999981,4.6674000000003275]",1,BWQZS,7,0,7,0,1,,,,,,,,,,,,,,,,,,,,,,,,,,,,,,,,,,,,,,,,,,,,,,,,,,,,,,,,,,,,,,,,,,,,,,,,,,,,,,,,,,,
,,,,,,,,,5f108dea719866356702d26f,23,Mężczyzna,2022-06-04_08h10.23.013,task,2021.1.4,Win32,75.18231712,628b806c463b948bc644b84f,629af6c74ba1548534425c7a,,,,,,0,0,0,0,1,X V Q F H G B L J M P D K C T S W R N Z,,,,,,,,,,,,,,,,,,,,,,,,,,,,,,,,,,,,,,,,,,,,,,,,,,,,,,,,,,,,,,,,,,,,,,,,,,,,,,,,,,,,,,,,,,,,,
,,,,,,,,,5f108dea719866356702d26f,23,Mężczyzna,2022-06-04_08h10.23.013,task,2021.1.4,Win32,75.18231712,628b806c463b948bc644b84f,629af6c74ba1548534425c7a,,,,,,1,0,1,0,1,X V Q F H G B L J M P D K C T S W R N Z,,,,,,,,,,,,,,,,,,,,,,,,,,,,,,,,,,,,,,,,,,,,,,,,,,,,,,,,,,,,,,,,,,,,,,,,,,,,,,,,,,,,,,,,,,,,,
,,,,,,,,,5f108dea719866356702d26f,23,Mężczyzna,2022-06-04_08h10.23.013,task,2021.1.4,Win32,75.18231712,628b806c463b948bc644b84f,629af6c74ba1548534425c7a,,,,,,2,0,2,0,1,X V Q F H G B L J M P D K C T S W R N Z,,,,,,,,,,,,,,,,,,,,,,,,,,,,,,,,,,,,,,,,,,,,,,,,,,,,,,,,,,,,,,,,,,,,,,,,,,,,,,,,,,,,,,,,,,,,,
,,,,,,,,,5f108dea719866356702d26f,23,Mężczyzna,2022-06-04_08h10.23.013,task,2021.1.4,Win32,75.18231712,628b806c463b948bc644b84f,629af6c74ba1548534425c7a,,,,,,3,0,3,0,1,X V Q F H G B L J M P D K C T S W R N Z,,,,,,,,,,,,,,,,,,,,,,,,,,,,,,,,,,,,,,,,,,,,,,,,,,,,,,,,,,,,,,,,,,,,,,,,,,,,,,,,,,,,,,,,,,,,,
,,,,,,,,,5f108dea719866356702d26f,23,Mężczyzna,2022-06-04_08h10.23.013,task,2021.1.4,Win32,75.18231712,628b806c463b948bc644b84f,629af6c74ba1548534425c7a,,,,,,4,0,4,0,1,X V Q F H G B L J M P D K C T S W R N Z,,,,,,,,,,,,,,,,,,,,,,,,,,,,,,,,,,,,,,,,,,,,,,,,,,,,,,,,,,,,,,,,,,,,,,,,,,,,,,,,,,,,,,,,,,,,,
,,,,,,,,,5f108dea719866356702d26f,23,Mężczyzna,2022-06-04_08h10.23.013,task,2021.1.4,Win32,75.18231712,628b806c463b948bc644b84f,629af6c74ba1548534425c7a,,,,,,5,0,5,0,1,X V Q F H G B L J M P D K C T S W R N Z,,,,,,,,,,,,,,,,,,,,,,,,,,,,,,,,,,,,,,,,,,,,,,,,,,,,,,,,,,,,,,,,,,,,,,,,,,,,,,,,,,,,,,,,,,,,,
,,,,,,,,,5f108dea719866356702d26f,23,Mężczyzna,2022-06-04_08h10.23.013,task,2021.1.4,Win32,75.18231712,628b806c463b948bc644b84f,629af6c74ba1548534425c7a,,,,,,,,,,,,sdnsrr,"[""s"",""d"",""n"",""s"",""r"",""r""]","[1.1877000000001772,2.1949000000003593,2.7867999999998005,3.106900000000337,3.5386000000005424,3.714799999999798,4.138900000000376]",1,SDNSRR,8,0,8,0,1,,,,,,,,,,,,,,,,,,,,,,,,,,,,,,,,,,,,,,,,,,,,,,,,,,,,,,,,,,,,,,,,,,,,,,,,,,,,,,,,,,,
,,,,,,,,,5f108dea719866356702d26f,23,Mężczyzna,2022-06-04_08h10.23.013,task,2021.1.4,Win32,75.18231712,628b806c463b948bc644b84f,629af6c74ba1548534425c7a,,,,,,0,0,0,0,1,X V Q F H G B L J M P D K C T S W R N Z,,,,,,,,,,,,,,,,,,,,,,,,,,,,,,,,,,,,,,,,,,,,,,,,,,,,,,,,,,,,,,,,,,,,,,,,,,,,,,,,,,,,,,,,,,,,,
,,,,,,,,,5f108dea719866356702d26f,23,Mężczyzna,2022-06-04_08h10.23.013,task,2021.1.4,Win32,75.18231712,628b806c463b948bc644b84f,629af6c74ba1548534425c7a,,,,,,1,0,1,0,1,X V Q F H G B L J M P D K C T S W R N Z,,,,,,,,,,,,,,,,,,,,,,,,,,,,,,,,,,,,,,,,,,,,,,,,,,,,,,,,,,,,,,,,,,,,,,,,,,,,,,,,,,,,,,,,,,,,,
,,,,,,,,,5f108dea719866356702d26f,23,Mężczyzna,2022-06-04_08h10.23.013,task,2021.1.4,Win32,75.18231712,628b806c463b948bc644b84f,629af6c74ba1548534425c7a,,,,,,2,0,2,0,1,X V Q F H G B L J M P D K C T S W R N Z,,,,,,,,,,,,,,,,,,,,,,,,,,,,,,,,,,,,,,,,,,,,,,,,,,,,,,,,,,,,,,,,,,,,,,,,,,,,,,,,,,,,,,,,,,,,,
,,,,,,,,,5f108dea719866356702d26f,23,Mężczyzna,2022-06-04_08h10.23.013,task,2021.1.4,Win32,75.18231712,628b806c463b948bc644b84f,629af6c74ba1548534425c7a,,,,,,3,0,3,0,1,X V Q F H G B L J M P D K C T S W R N Z,,,,,,,,,,,,,,,,,,,,,,,,,,,,,,,,,,,,,,,,,,,,,,,,,,,,,,,,,,,,,,,,,,,,,,,,,,,,,,,,,,,,,,,,,,,,,
,,,,,,,,,5f108dea719866356702d26f,23,Mężczyzna,2022-06-04_08h10.23.013,task,2021.1.4,Win32,75.18231712,628b806c463b948bc644b84f,629af6c74ba1548534425c7a,,,,,,4,0,4,0,1,X V Q F H G B L J M P D K C T S W R N Z,,,,,,,,,,,,,,,,,,,,,,,,,,,,,,,,,,,,,,,,,,,,,,,,,,,,,,,,,,,,,,,,,,,,,,,,,,,,,,,,,,,,,,,,,,,,,
,,,,,,,,,5f108dea719866356702d26f,23,Mężczyzna,2022-06-04_08h10.23.013,task,2021.1.4,Win32,75.18231712,628b806c463b948bc644b84f,629af6c74ba1548534425c7a,,,,,,5,0,5,0,1,X V Q F H G B L J M P D K C T S W R N Z,,,,,,,,,,,,,,,,,,,,,,,,,,,,,,,,,,,,,,,,,,,,,,,,,,,,,,,,,,,,,,,,,,,,,,,,,,,,,,,,,,,,,,,,,,,,,
,,,,,,,,,5f108dea719866356702d26f,23,Mężczyzna,2022-06-04_08h10.23.013,task,2021.1.4,Win32,75.18231712,628b806c463b948bc644b84f,629af6c74ba1548534425c7a,,,,,,,,,,,,hcnczn,"[""h"",""c"",""n"",""c"",""z"",""n""]","[1.9453000000007705,2.2956000000005474,2.6398000000007755,4.215300000000752,4.2716000000005465,4.583700000000192,5.511600000000556]",1,HCNCZN,9,0,9,0,1,,,,,,,,,,,,,,,,,,,,,,,,,,,,,,,,,,,,,,,,,,,,,,,,,,,,,,,,,,,,,,,,,,,,,,,,,,,,,,,,,,,
,,,,,,,,,5f108dea719866356702d26f,23,Mężczyzna,2022-06-04_08h10.23.013,task,2021.1.4,Win32,75.18231712,628b806c463b948bc644b84f,629af6c74ba1548534425c7a,,,,,,0,0,0,0,1,X V Q F H G B L J M P D K C T S W R N Z,,,,,,,,,,,,,,,,,,,,,,,,,,,,,,,,,,,,,,,,,,,,,,,,,,,,,,,,,,,,,,,,,,,,,,,,,,,,,,,,,,,,,,,,,,,,,
,,,,,,,,,5f108dea719866356702d26f,23,Mężczyzna,2022-06-04_08h10.23.013,task,2021.1.4,Win32,75.18231712,628b806c463b948bc644b84f,629af6c74ba1548534425c7a,,,,,,1,0,1,0,1,X V Q F H G B L J M P D K C T S W R N Z,,,,,,,,,,,,,,,,,,,,,,,,,,,,,,,,,,,,,,,,,,,,,,,,,,,,,,,,,,,,,,,,,,,,,,,,,,,,,,,,,,,,,,,,,,,,,
,,,,,,,,,5f108dea719866356702d26f,23,Mężczyzna,2022-06-04_08h10.23.013,task,2021.1.4,Win32,75.18231712,628b806c463b948bc644b84f,629af6c74ba1548534425c7a,,,,,,2,0,2,0,1,X V Q F H G B L J M P D K C T S W R N Z,,,,,,,,,,,,,,,,,,,,,,,,,,,,,,,,,,,,,,,,,,,,,,,,,,,,,,,,,,,,,,,,,,,,,,,,,,,,,,,,,,,,,,,,,,,,,
,,,,,,,,,5f108dea719866356702d26f,23,Mężczyzna,2022-06-04_08h10.23.013,task,2021.1.4,Win32,75.18231712,628b806c463b948bc644b84f,629af6c74ba1548534425c7a,,,,,,3,0,3,0,1,X V Q F H G B L J M P D K C T S W R N Z,,,,,,,,,,,,,,,,,,,,,,,,,,,,,,,,,,,,,,,,,,,,,,,,,,,,,,,,,,,,,,,,,,,,,,,,,,,,,,,,,,,,,,,,,,,,,
,,,,,,,,,5f108dea719866356702d26f,23,Mężczyzna,2022-06-04_08h10.23.013,task,2021.1.4,Win32,75.18231712,628b806c463b948bc644b84f,629af6c74ba1548534425c7a,,,,,,4,0,4,0,1,X V Q F H G B L J M P D K C T S W R N Z,,,,,,,,,,,,,,,,,,,,,,,,,,,,,,,,,,,,,,,,,,,,,,,,,,,,,,,,,,,,,,,,,,,,,,,,,,,,,,,,,,,,,,,,,,,,,
,,,,,,,,,5f108dea719866356702d26f,23,Mężczyzna,2022-06-04_08h10.23.013,task,2021.1.4,Win32,75.18231712,628b806c463b948bc644b84f,629af6c74ba1548534425c7a,,,,,,5,0,5,0,1,X V Q F H G B L J M P D K C T S W R N Z,,,,,,,,,,,,,,,,,,,,,,,,,,,,,,,,,,,,,,,,,,,,,,,,,,,,,,,,,,,,,,,,,,,,,,,,,,,,,,,,,,,,,,,,,,,,,
,,,,,,,,,5f108dea719866356702d26f,23,Mężczyzna,2022-06-04_08h10.23.013,task,2021.1.4,Win32,75.18231712,628b806c463b948bc644b84f,629af6c74ba1548534425c7a,,,,,,6,0,6,0,1,X V Q F H G B L J M P D K C T S W R N Z,,,,,,,,,,,,,,,,,,,,,,,,,,,,,,,,,,,,,,,,,,,,,,,,,,,,,,,,,,,,,,,,,,,,,,,,,,,,,,,,,,,,,,,,,,,,,
,,,,,,,,,5f108dea719866356702d26f,23,Mężczyzna,2022-06-04_08h10.23.013,task,2021.1.4,Win32,75.18231712,628b806c463b948bc644b84f,629af6c74ba1548534425c7a,,,,,,,,,,,,nrlrqhr,"[""n"",""r"",""l"",""r"",""q"",""h"",""r""]","[1.6978999999994357,2.625499999999988,3.1612999999998124,3.5612000000002126,5.78539999999947,6.20920000000018,6.3533999999994535,6.945299999999804]",1,NRLRQHR,10,0,10,0,1,,,,,,,,,,,,,,,,,,,,,,,,,,,,,,,,,,,,,,,,,,,,,,,,,,,,,,,,,,,,,,,,,,,,,,,,,,,,,,,,,,,
,,,,,,,,,5f108dea719866356702d26f,23,Mężczyzna,2022-06-04_08h10.23.013,task,2021.1.4,Win32,75.18231712,628b806c463b948bc644b84f,629af6c74ba1548534425c7a,,,,,,0,0,0,0,1,X V Q F H G B L J M P D K C T S W R N Z,,,,,,,,,,,,,,,,,,,,,,,,,,,,,,,,,,,,,,,,,,,,,,,,,,,,,,,,,,,,,,,,,,,,,,,,,,,,,,,,,,,,,,,,,,,,,
,,,,,,,,,5f108dea719866356702d26f,23,Mężczyzna,2022-06-04_08h10.23.013,task,2021.1.4,Win32,75.18231712,628b806c463b948bc644b84f,629af6c74ba1548534425c7a,,,,,,1,0,1,0,1,X V Q F H G B L J M P D K C T S W R N Z,,,,,,,,,,,,,,,,,,,,,,,,,,,,,,,,,,,,,,,,,,,,,,,,,,,,,,,,,,,,,,,,,,,,,,,,,,,,,,,,,,,,,,,,,,,,,
,,,,,,,,,5f108dea719866356702d26f,23,Mężczyzna,2022-06-04_08h10.23.013,task,2021.1.4,Win32,75.18231712,628b806c463b948bc644b84f,629af6c74ba1548534425c7a,,,,,,2,0,2,0,1,X V Q F H G B L J M P D K C T S W R N Z,,,,,,,,,,,,,,,,,,,,,,,,,,,,,,,,,,,,,,,,,,,,,,,,,,,,,,,,,,,,,,,,,,,,,,,,,,,,,,,,,,,,,,,,,,,,,
,,,,,,,,,5f108dea719866356702d26f,23,Mężczyzna,2022-06-04_08h10.23.013,task,2021.1.4,Win32,75.18231712,628b806c463b948bc644b84f,629af6c74ba1548534425c7a,,,,,,3,0,3,0,1,X V Q F H G B L J M P D K C T S W R N Z,,,,,,,,,,,,,,,,,,,,,,,,,,,,,,,,,,,,,,,,,,,,,,,,,,,,,,,,,,,,,,,,,,,,,,,,,,,,,,,,,,,,,,,,,,,,,
,,,,,,,,,5f108dea719866356702d26f,23,Mężczyzna,2022-06-04_08h10.23.013,task,2021.1.4,Win32,75.18231712,628b806c463b948bc644b84f,629af6c74ba1548534425c7a,,,,,,4,0,4,0,1,X V Q F H G B L J M P D K C T S W R N Z,,,,,,,,,,,,,,,,,,,,,,,,,,,,,,,,,,,,,,,,,,,,,,,,,,,,,,,,,,,,,,,,,,,,,,,,,,,,,,,,,,,,,,,,,,,,,
,,,,,,,,,5f108dea719866356702d26f,23,Mężczyzna,2022-06-04_08h10.23.013,task,2021.1.4,Win32,75.18231712,628b806c463b948bc644b84f,629af6c74ba1548534425c7a,,,,,,5,0,5,0,1,X V Q F H G B L J M P D K C T S W R N Z,,,,,,,,,,,,,,,,,,,,,,,,,,,,,,,,,,,,,,,,,,,,,,,,,,,,,,,,,,,,,,,,,,,,,,,,,,,,,,,,,,,,,,,,,,,,,
,,,,,,,,,5f108dea719866356702d26f,23,Mężczyzna,2022-06-04_08h10.23.013,task,2021.1.4,Win32,75.18231712,628b806c463b948bc644b84f,629af6c74ba1548534425c7a,,,,,,6,0,6,0,1,X V Q F H G B L J M P D K C T S W R N Z,,,,,,,,,,,,,,,,,,,,,,,,,,,,,,,,,,,,,,,,,,,,,,,,,,,,,,,,,,,,,,,,,,,,,,,,,,,,,,,,,,,,,,,,,,,,,
,,,,,,,,,5f108dea719866356702d26f,23,Mężczyzna,2022-06-04_08h10.23.013,task,2021.1.4,Win32,75.18231712,628b806c463b948bc644b84f,629af6c74ba1548534425c7a,,,,,,,,,,,,xlwrnnk,"[""x"",""l"",""w"",""r"",""n"",""n"",""k""]","[2.314900000000364,3.0669000000003734,3.714900000000398,4.226800000000765,4.626800000000742,4.770700000000204,4.954400000000362,5.570700000000215]",1,XLWRNNK,11,0,11,0,1,,,,,,,,,,,,,,,,,,,,,,,,,,,,,,,,,,,,,,,,,,,,,,,,,,,,,,,,,,,,,,,,,,,,,,,,,,,,,,,,,,,
,,,,,,,,,5f108dea719866356702d26f,23,Mężczyzna,2022-06-04_08h10.23.013,task,2021.1.4,Win32,75.18231712,628b806c463b948bc644b84f,629af6c74ba1548534425c7a,,,,,,0,0,0,0,1,X V Q F H G B L J M P D K C T S W R N Z,,,,,,,,,,,,,,,,,,,,,,,,,,,,,,,,,,,,,,,,,,,,,,,,,,,,,,,,,,,,,,,,,,,,,,,,,,,,,,,,,,,,,,,,,,,,,
,,,,,,,,,5f108dea719866356702d26f,23,Mężczyzna,2022-06-04_08h10.23.013,task,2021.1.4,Win32,75.18231712,628b806c463b948bc644b84f,629af6c74ba1548534425c7a,,,,,,1,0,1,0,1,X V Q F H G B L J M P D K C T S W R N Z,,,,,,,,,,,,,,,,,,,,,,,,,,,,,,,,,,,,,,,,,,,,,,,,,,,,,,,,,,,,,,,,,,,,,,,,,,,,,,,,,,,,,,,,,,,,,
,,,,,,,,,5f108dea719866356702d26f,23,Mężczyzna,2022-06-04_08h10.23.013,task,2021.1.4,Win32,75.18231712,628b806c463b948bc644b84f,629af6c74ba1548534425c7a,,,,,,2,0,2,0,1,X V Q F H G B L J M P D K C T S W R N Z,,,,,,,,,,,,,,,,,,,,,,,,,,,,,,,,,,,,,,,,,,,,,,,,,,,,,,,,,,,,,,,,,,,,,,,,,,,,,,,,,,,,,,,,,,,,,
,,,,,,,,,5f108dea719866356702d26f,23,Mężczyzna,2022-06-04_08h10.23.013,task,2021.1.4,Win32,75.18231712,628b806c463b948bc644b84f,629af6c74ba1548534425c7a,,,,,,3,0,3,0,1,X V Q F H G B L J M P D K C T S W R N Z,,,,,,,,,,,,,,,,,,,,,,,,,,,,,,,,,,,,,,,,,,,,,,,,,,,,,,,,,,,,,,,,,,,,,,,,,,,,,,,,,,,,,,,,,,,,,
,,,,,,,,,5f108dea719866356702d26f,23,Mężczyzna,2022-06-04_08h10.23.013,task,2021.1.4,Win32,75.18231712,628b806c463b948bc644b84f,629af6c74ba1548534425c7a,,,,,,4,0,4,0,1,X V Q F H G B L J M P D K C T S W R N Z,,,,,,,,,,,,,,,,,,,,,,,,,,,,,,,,,,,,,,,,,,,,,,,,,,,,,,,,,,,,,,,,,,,,,,,,,,,,,,,,,,,,,,,,,,,,,
,,,,,,,,,5f108dea719866356702d26f,23,Mężczyzna,2022-06-04_08h10.23.013,task,2021.1.4,Win32,75.18231712,628b806c463b948bc644b84f,629af6c74ba1548534425c7a,,,,,,5,0,5,0,1,X V Q F H G B L J M P D K C T S W R N Z,,,,,,,,,,,,,,,,,,,,,,,,,,,,,,,,,,,,,,,,,,,,,,,,,,,,,,,,,,,,,,,,,,,,,,,,,,,,,,,,,,,,,,,,,,,,,
,,,,,,,,,5f108dea719866356702d26f,23,Mężczyzna,2022-06-04_08h10.23.013,task,2021.1.4,Win32,75.18231712,628b806c463b948bc644b84f,629af6c74ba1548534425c7a,,,,,,6,0,6,0,1,X V Q F H G B L J M P D K C T S W R N Z,,,,,,,,,,,,,,,,,,,,,,,,,,,,,,,,,,,,,,,,,,,,,,,,,,,,,,,,,,,,,,,,,,,,,,,,,,,,,,,,,,,,,,,,,,,,,
,,,,,,,,,5f108dea719866356702d26f,23,Mężczyzna,2022-06-04_08h10.23.013,task,2021.1.4,Win32,75.18231712,628b806c463b948bc644b84f,629af6c74ba1548534425c7a,,,,,,7,0,7,0,1,X V Q F H G B L J M P D K C T S W R N Z,,,,,,,,,,,,,,,,,,,,,,,,,,,,,,,,,,,,,,,,,,,,,,,,,,,,,,,,,,,,,,,,,,,,,,,,,,,,,,,,,,,,,,,,,,,,,
,,,,,,,,,5f108dea719866356702d26f,23,Mężczyzna,2022-06-04_08h10.23.013,task,2021.1.4,Win32,75.18231712,628b806c463b948bc644b84f,629af6c74ba1548534425c7a,,,,,,,,,,,,bhddrqhk,"[""b"",""h"",""d"",""d"",""r"",""q"",""h"",""k""]","[2.245600000000593,2.5184000000003834,3.9012000000001876,4.141200000000197,4.8212000000002035,5.02920000000023,7.2794000000004075,7.478700000000174,7.89320000000032]",1,BHDDRQHK,12,0,12,0,1,,,,,,,,,,,,,,,,,,,,,,,,,,,,,,,,,,,,,,,,,,,,,,,,,,,,,,,,,,,,,,,,,,,,,,,,,,,,,,,,,,,
,,,,,,,,,5f108dea719866356702d26f,23,Mężczyzna,2022-06-04_08h10.23.013,task,2021.1.4,Win32,75.18231712,628b806c463b948bc644b84f,629af6c74ba1548534425c7a,,,,,,0,0,0,0,1,X V Q F H G B L J M P D K C T S W R N Z,,,,,,,,,,,,,,,,,,,,,,,,,,,,,,,,,,,,,,,,,,,,,,,,,,,,,,,,,,,,,,,,,,,,,,,,,,,,,,,,,,,,,,,,,,,,,
,,,,,,,,,5f108dea719866356702d26f,23,Mężczyzna,2022-06-04_08h10.23.013,task,2021.1.4,Win32,75.18231712,628b806c463b948bc644b84f,629af6c74ba1548534425c7a,,,,,,1,0,1,0,1,X V Q F H G B L J M P D K C T S W R N Z,,,,,,,,,,,,,,,,,,,,,,,,,,,,,,,,,,,,,,,,,,,,,,,,,,,,,,,,,,,,,,,,,,,,,,,,,,,,,,,,,,,,,,,,,,,,,
,,,,,,,,,5f108dea719866356702d26f,23,Mężczyzna,2022-06-04_08h10.23.013,task,2021.1.4,Win32,75.18231712,628b806c463b948bc644b84f,629af6c74ba1548534425c7a,,,,,,2,0,2,0,1,X V Q F H G B L J M P D K C T S W R N Z,,,,,,,,,,,,,,,,,,,,,,,,,,,,,,,,,,,,,,,,,,,,,,,,,,,,,,,,,,,,,,,,,,,,,,,,,,,,,,,,,,,,,,,,,,,,,
,,,,,,,,,5f108dea719866356702d26f,23,Mężczyzna,2022-06-04_08h10.23.013,task,2021.1.4,Win32,75.18231712,628b806c463b948bc644b84f,629af6c74ba1548534425c7a,,,,,,3,0,3,0,1,X V Q F H G B L J M P D K C T S W R N Z,,,,,,,,,,,,,,,,,,,,,,,,,,,,,,,,,,,,,,,,,,,,,,,,,,,,,,,,,,,,,,,,,,,,,,,,,,,,,,,,,,,,,,,,,,,,,
,,,,,,,,,5f108dea719866356702d26f,23,Mężczyzna,2022-06-04_08h10.23.013,task,2021.1.4,Win32,75.18231712,628b806c463b948bc644b84f,629af6c74ba1548534425c7a,,,,,,4,0,4,0,1,X V Q F H G B L J M P D K C T S W R N Z,,,,,,,,,,,,,,,,,,,,,,,,,,,,,,,,,,,,,,,,,,,,,,,,,,,,,,,,,,,,,,,,,,,,,,,,,,,,,,,,,,,,,,,,,,,,,
,,,,,,,,,5f108dea719866356702d26f,23,Mężczyzna,2022-06-04_08h10.23.013,task,2021.1.4,Win32,75.18231712,628b806c463b948bc644b84f,629af6c74ba1548534425c7a,,,,,,5,0,5,0,1,X V Q F H G B L J M P D K C T S W R N Z,,,,,,,,,,,,,,,,,,,,,,,,,,,,,,,,,,,,,,,,,,,,,,,,,,,,,,,,,,,,,,,,,,,,,,,,,,,,,,,,,,,,,,,,,,,,,
,,,,,,,,,5f108dea719866356702d26f,23,Mężczyzna,2022-06-04_08h10.23.013,task,2021.1.4,Win32,75.18231712,628b806c463b948bc644b84f,629af6c74ba1548534425c7a,,,,,,6,0,6,0,1,X V Q F H G B L J M P D K C T S W R N Z,,,,,,,,,,,,,,,,,,,,,,,,,,,,,,,,,,,,,,,,,,,,,,,,,,,,,,,,,,,,,,,,,,,,,,,,,,,,,,,,,,,,,,,,,,,,,
,,,,,,,,,5f108dea719866356702d26f,23,Mężczyzna,2022-06-04_08h10.23.013,task,2021.1.4,Win32,75.18231712,628b806c463b948bc644b84f,629af6c74ba1548534425c7a,,,,,,7,0,7,0,1,X V Q F H G B L J M P D K C T S W R N Z,,,,,,,,,,,,,,,,,,,,,,,,,,,,,,,,,,,,,,,,,,,,,,,,,,,,,,,,,,,,,,,,,,,,,,,,,,,,,,,,,,,,,,,,,,,,,
,,,,,,,,,5f108dea719866356702d26f,23,Mężczyzna,2022-06-04_08h10.23.013,task,2021.1.4,Win32,75.18231712,628b806c463b948bc644b84f,629af6c74ba1548534425c7a,,,,,,,,,,,,bgmsdwbb,"[""b"",""g"",""m"",""s"",""d"",""w"",""b"",""b""]","[2.750399999999445,2.958299999999781,3.8940999999996393,4.990099999999643,7.134099999999648,7.214200000000119,7.8942999999998165,8.022299999999746,8.622299999999768]",1,BGMSDWBB,13,0,13,0,1,,,,,,,,,,,,,,,,,,,,,,,,,,,,,,,,,,,,,,,,,,,,,,,,,,,,,,,,,,,,,,,,,,,,,,,,,,,,,,,,,,,
,,,,,,,,,5f108dea719866356702d26f,23,Mężczyzna,2022-06-04_08h10.23.013,task,2021.1.4,Win32,75.18231712,628b806c463b948bc644b84f,629af6c74ba1548534425c7a,,,,,,0,0,0,0,1,X V Q F H G B L J M P D K C T S W R N Z,,,,,,,,,,,,,,,,,,,,,,,,,,,,,,,,,,,,,,,,,,,,,,,,,,,,,,,,,,,,,,,,,,,,,,,,,,,,,,,,,,,,,,,,,,,,,
,,,,,,,,,5f108dea719866356702d26f,23,Mężczyzna,2022-06-04_08h10.23.013,task,2021.1.4,Win32,75.18231712,628b806c463b948bc644b84f,629af6c74ba1548534425c7a,,,,,,1,0,1,0,1,X V Q F H G B L J M P D K C T S W R N Z,,,,,,,,,,,,,,,,,,,,,,,,,,,,,,,,,,,,,,,,,,,,,,,,,,,,,,,,,,,,,,,,,,,,,,,,,,,,,,,,,,,,,,,,,,,,,
,,,,,,,,,5f108dea719866356702d26f,23,Mężczyzna,2022-06-04_08h10.23.013,task,2021.1.4,Win32,75.18231712,628b806c463b948bc644b84f,629af6c74ba1548534425c7a,,,,,,2,0,2,0,1,X V Q F H G B L J M P D K C T S W R N Z,,,,,,,,,,,,,,,,,,,,,,,,,,,,,,,,,,,,,,,,,,,,,,,,,,,,,,,,,,,,,,,,,,,,,,,,,,,,,,,,,,,,,,,,,,,,,
,,,,,,,,,5f108dea719866356702d26f,23,Mężczyzna,2022-06-04_08h10.23.013,task,2021.1.4,Win32,75.18231712,628b806c463b948bc644b84f,629af6c74ba1548534425c7a,,,,,,3,0,3,0,1,X V Q F H G B L J M P D K C T S W R N Z,,,,,,,,,,,,,,,,,,,,,,,,,,,,,,,,,,,,,,,,,,,,,,,,,,,,,,,,,,,,,,,,,,,,,,,,,,,,,,,,,,,,,,,,,,,,,
,,,,,,,,,5f108dea719866356702d26f,23,Mężczyzna,2022-06-04_08h10.23.013,task,2021.1.4,Win32,75.18231712,628b806c463b948bc644b84f,629af6c74ba1548534425c7a,,,,,,4,0,4,0,1,X V Q F H G B L J M P D K C T S W R N Z,,,,,,,,,,,,,,,,,,,,,,,,,,,,,,,,,,,,,,,,,,,,,,,,,,,,,,,,,,,,,,,,,,,,,,,,,,,,,,,,,,,,,,,,,,,,,
,,,,,,,,,5f108dea719866356702d26f,23,Mężczyzna,2022-06-04_08h10.23.013,task,2021.1.4,Win32,75.18231712,628b806c463b948bc644b84f,629af6c74ba1548534425c7a,,,,,,5,0,5,0,1,X V Q F H G B L J M P D K C T S W R N Z,,,,,,,,,,,,,,,,,,,,,,,,,,,,,,,,,,,,,,,,,,,,,,,,,,,,,,,,,,,,,,,,,,,,,,,,,,,,,,,,,,,,,,,,,,,,,
,,,,,,,,,5f108dea719866356702d26f,23,Mężczyzna,2022-06-04_08h10.23.013,task,2021.1.4,Win32,75.18231712,628b806c463b948bc644b84f,629af6c74ba1548534425c7a,,,,,,6,0,6,0,1,X V Q F H G B L J M P D K C T S W R N Z,,,,,,,,,,,,,,,,,,,,,,,,,,,,,,,,,,,,,,,,,,,,,,,,,,,,,,,,,,,,,,,,,,,,,,,,,,,,,,,,,,,,,,,,,,,,,
,,,,,,,,,5f108dea719866356702d26f,23,Mężczyzna,2022-06-04_08h10.23.013,task,2021.1.4,Win32,75.18231712,628b806c463b948bc644b84f,629af6c74ba1548534425c7a,,,,,,7,0,7,0,1,X V Q F H G B L J M P D K C T S W R N Z,,,,,,,,,,,,,,,,,,,,,,,,,,,,,,,,,,,,,,,,,,,,,,,,,,,,,,,,,,,,,,,,,,,,,,,,,,,,,,,,,,,,,,,,,,,,,
,,,,,,,,,5f108dea719866356702d26f,23,Mężczyzna,2022-06-04_08h10.23.013,task,2021.1.4,Win32,75.18231712,628b806c463b948bc644b84f,629af6c74ba1548534425c7a,,,,,,8,0,8,0,1,X V Q F H G B L J M P D K C T S W R N Z,,,,,,,,,,,,,,,,,,,,,,,,,,,,,,,,,,,,,,,,,,,,,,,,,,,,,,,,,,,,,,,,,,,,,,,,,,,,,,,,,,,,,,,,,,,,,
,,,,,,,,,5f108dea719866356702d26f,23,Mężczyzna,2022-06-04_08h10.23.013,task,2021.1.4,Win32,75.18231712,628b806c463b948bc644b84f,629af6c74ba1548534425c7a,,,,,,,,,,,,btlmfgxgx,"[""b"",""t"",""l"",""m"",""f"",""g"",""x"",""g"",""x""]","[1.9715999999996257,2.3315000000000055,2.779399999999441,3.2592999999998256,4.195399999999495,4.691299999999842,6.259099999999648,6.883099999999672,7.611500000000092,8.332700000000273]",1,BTLMFGXGX,14,0,14,0,1,,,,,,,,,,,,,,,,,,,,,,,,,,,,,,,,,,,,,,,,,,,,,,,,,,,,,,,,,,,,,,,,,,,,,,,,,,,,,,,,,,,
,,,,,,,,,5f108dea719866356702d26f,23,Mężczyzna,2022-06-04_08h10.23.013,task,2021.1.4,Win32,75.18231712,628b806c463b948bc644b84f,629af6c74ba1548534425c7a,,,,,,0,0,0,0,1,X V Q F H G B L J M P D K C T S W R N Z,,,,,,,,,,,,,,,,,,,,,,,,,,,,,,,,,,,,,,,,,,,,,,,,,,,,,,,,,,,,,,,,,,,,,,,,,,,,,,,,,,,,,,,,,,,,,
,,,,,,,,,5f108dea719866356702d26f,23,Mężczyzna,2022-06-04_08h10.23.013,task,2021.1.4,Win32,75.18231712,628b806c463b948bc644b84f,629af6c74ba1548534425c7a,,,,,,1,0,1,0,1,X V Q F H G B L J M P D K C T S W R N Z,,,,,,,,,,,,,,,,,,,,,,,,,,,,,,,,,,,,,,,,,,,,,,,,,,,,,,,,,,,,,,,,,,,,,,,,,,,,,,,,,,,,,,,,,,,,,
,,,,,,,,,5f108dea719866356702d26f,23,Mężczyzna,2022-06-04_08h10.23.013,task,2021.1.4,Win32,75.18231712,628b806c463b948bc644b84f,629af6c74ba1548534425c7a,,,,,,2,0,2,0,1,X V Q F H G B L J M P D K C T S W R N Z,,,,,,,,,,,,,,,,,,,,,,,,,,,,,,,,,,,,,,,,,,,,,,,,,,,,,,,,,,,,,,,,,,,,,,,,,,,,,,,,,,,,,,,,,,,,,
,,,,,,,,,5f108dea719866356702d26f,23,Mężczyzna,2022-06-04_08h10.23.013,task,2021.1.4,Win32,75.18231712,628b806c463b948bc644b84f,629af6c74ba1548534425c7a,,,,,,3,0,3,0,1,X V Q F H G B L J M P D K C T S W R N Z,,,,,,,,,,,,,,,,,,,,,,,,,,,,,,,,,,,,,,,,,,,,,,,,,,,,,,,,,,,,,,,,,,,,,,,,,,,,,,,,,,,,,,,,,,,,,
,,,,,,,,,5f108dea719866356702d26f,23,Mężczyzna,2022-06-04_08h10.23.013,task,2021.1.4,Win32,75.18231712,628b806c463b948bc644b84f,629af6c74ba1548534425c7a,,,,,,4,0,4,0,1,X V Q F H G B L J M P D K C T S W R N Z,,,,,,,,,,,,,,,,,,,,,,,,,,,,,,,,,,,,,,,,,,,,,,,,,,,,,,,,,,,,,,,,,,,,,,,,,,,,,,,,,,,,,,,,,,,,,
,,,,,,,,,5f108dea719866356702d26f,23,Mężczyzna,2022-06-04_08h10.23.013,task,2021.1.4,Win32,75.18231712,628b806c463b948bc644b84f,629af6c74ba1548534425c7a,,,,,,5,0,5,0,1,X V Q F H G B L J M P D K C T S W R N Z,,,,,,,,,,,,,,,,,,,,,,,,,,,,,,,,,,,,,,,,,,,,,,,,,,,,,,,,,,,,,,,,,,,,,,,,,,,,,,,,,,,,,,,,,,,,,
,,,,,,,,,5f108dea719866356702d26f,23,Mężczyzna,2022-06-04_08h10.23.013,task,2021.1.4,Win32,75.18231712,628b806c463b948bc644b84f,629af6c74ba1548534425c7a,,,,,,6,0,6,0,1,X V Q F H G B L J M P D K C T S W R N Z,,,,,,,,,,,,,,,,,,,,,,,,,,,,,,,,,,,,,,,,,,,,,,,,,,,,,,,,,,,,,,,,,,,,,,,,,,,,,,,,,,,,,,,,,,,,,
,,,,,,,,,5f108dea719866356702d26f,23,Mężczyzna,2022-06-04_08h10.23.013,task,2021.1.4,Win32,75.18231712,628b806c463b948bc644b84f,629af6c74ba1548534425c7a,,,,,,7,0,7,0,1,X V Q F H G B L J M P D K C T S W R N Z,,,,,,,,,,,,,,,,,,,,,,,,,,,,,,,,,,,,,,,,,,,,,,,,,,,,,,,,,,,,,,,,,,,,,,,,,,,,,,,,,,,,,,,,,,,,,
,,,,,,,,,5f108dea719866356702d26f,23,Mężczyzna,2022-06-04_08h10.23.013,task,2021.1.4,Win32,75.18231712,628b806c463b948bc644b84f,629af6c74ba1548534425c7a,,,,,,8,0,8,0,1,X V Q F H G B L J M P D K C T S W R N Z,,,,,,,,,,,,,,,,,,,,,,,,,,,,,,,,,,,,,,,,,,,,,,,,,,,,,,,,,,,,,,,,,,,,,,,,,,,,,,,,,,,,,,,,,,,,,
,,,,,,,,,5f108dea719866356702d26f,23,Mężczyzna,2022-06-04_08h10.23.013,task,2021.1.4,Win32,75.18231712,628b806c463b948bc644b84f,629af6c74ba1548534425c7a,,,,,,,,,,,,xdmwzfzfb,"[""x"",""d"",""m"",""w"",""z"",""f"",""z"",""f"",""b""]","[2.2000999999995656,3.21550000000002,4.415599999999586,5.90520000000015,6.807700000000182,7.367899999999395,7.631799999999771,8.22389999999939,8.543499999999995,8.951700000000187]",0,XMDWZFZFB,15,0,15,0,1,,,,,,,,,,,,,,,,,,,,,,,,,,,,,,,,,,,,,,,,,,,,,,,,,,,,,,,,,,,,,,,,,,,,,,,,,,,,,,,,,,,
,,,,,,,,,5f108dea719866356702d26f,23,Mężczyzna,2022-06-04_08h10.23.013,task,2021.1.4,Win32,75.18231712,628b806c463b948bc644b84f,629af6c74ba1548534425c7a,,,,,,0,0,0,0,1,X V Q F H G B L J M P D K C T S W R N Z,,,,,,,,,,,,,,,,,,,,,,,,,,,,,,,,,,,,,,,,,,,,,,,,,,,,,,,,,,,,,,,,,,,,,,,,,,,,,,,,,,,,,,,,,,,,,
,,,,,,,,,5f108dea719866356702d26f,23,Mężczyzna,2022-06-04_08h10.23.013,task,2021.1.4,Win32,75.18231712,628b806c463b948bc644b84f,629af6c74ba1548534425c7a,,,,,,1,0,1,0,1,X V Q F H G B L J M P D K C T S W R N Z,,,,,,,,,,,,,,,,,,,,,,,,,,,,,,,,,,,,,,,,,,,,,,,,,,,,,,,,,,,,,,,,,,,,,,,,,,,,,,,,,,,,,,,,,,,,,
,,,,,,,,,5f108dea719866356702d26f,23,Mężczyzna,2022-06-04_08h10.23.013,task,2021.1.4,Win32,75.18231712,628b806c463b948bc644b84f,629af6c74ba1548534425c7a,,,,,,2,0,2,0,1,X V Q F H G B L J M P D K C T S W R N Z,,,,,,,,,,,,,,,,,,,,,,,,,,,,,,,,,,,,,,,,,,,,,,,,,,,,,,,,,,,,,,,,,,,,,,,,,,,,,,,,,,,,,,,,,,,,,
,,,,,,,,,5f108dea719866356702d26f,23,Mężczyzna,2022-06-04_08h10.23.013,task,2021.1.4,Win32,75.18231712,628b806c463b948bc644b84f,629af6c74ba1548534425c7a,,,,,,3,0,3,0,1,X V Q F H G B L J M P D K C T S W R N Z,,,,,,,,,,,,,,,,,,,,,,,,,,,,,,,,,,,,,,,,,,,,,,,,,,,,,,,,,,,,,,,,,,,,,,,,,,,,,,,,,,,,,,,,,,,,,
,,,,,,,,,5f108dea719866356702d26f,23,Mężczyzna,2022-06-04_08h10.23.013,task,2021.1.4,Win32,75.18231712,628b806c463b948bc644b84f,629af6c74ba1548534425c7a,,,,,,4,0,4,0,1,X V Q F H G B L J M P D K C T S W R N Z,,,,,,,,,,,,,,,,,,,,,,,,,,,,,,,,,,,,,,,,,,,,,,,,,,,,,,,,,,,,,,,,,,,,,,,,,,,,,,,,,,,,,,,,,,,,,
,,,,,,,,,5f108dea719866356702d26f,23,Mężczyzna,2022-06-04_08h10.23.013,task,2021.1.4,Win32,75.18231712,628b806c463b948bc644b84f,629af6c74ba1548534425c7a,,,,,,5,0,5,0,1,X V Q F H G B L J M P D K C T S W R N Z,,,,,,,,,,,,,,,,,,,,,,,,,,,,,,,,,,,,,,,,,,,,,,,,,,,,,,,,,,,,,,,,,,,,,,,,,,,,,,,,,,,,,,,,,,,,,
,,,,,,,,,5f108dea719866356702d26f,23,Mężczyzna,2022-06-04_08h10.23.013,task,2021.1.4,Win32,75.18231712,628b806c463b948bc644b84f,629af6c74ba1548534425c7a,,,,,,6,0,6,0,1,X V Q F H G B L J M P D K C T S W R N Z,,,,,,,,,,,,,,,,,,,,,,,,,,,,,,,,,,,,,,,,,,,,,,,,,,,,,,,,,,,,,,,,,,,,,,,,,,,,,,,,,,,,,,,,,,,,,
,,,,,,,,,5f108dea719866356702d26f,23,Mężczyzna,2022-06-04_08h10.23.013,task,2021.1.4,Win32,75.18231712,628b806c463b948bc644b84f,629af6c74ba1548534425c7a,,,,,,7,0,7,0,1,X V Q F H G B L J M P D K C T S W R N Z,,,,,,,,,,,,,,,,,,,,,,,,,,,,,,,,,,,,,,,,,,,,,,,,,,,,,,,,,,,,,,,,,,,,,,,,,,,,,,,,,,,,,,,,,,,,,
,,,,,,,,,5f108dea719866356702d26f,23,Mężczyzna,2022-06-04_08h10.23.013,task,2021.1.4,Win32,75.18231712,628b806c463b948bc644b84f,629af6c74ba1548534425c7a,,,,,,8,0,8,0,1,X V Q F H G B L J M P D K C T S W R N Z,,,,,,,,,,,,,,,,,,,,,,,,,,,,,,,,,,,,,,,,,,,,,,,,,,,,,,,,,,,,,,,,,,,,,,,,,,,,,,,,,,,,,,,,,,,,,
,,,,,,,,,5f108dea719866356702d26f,23,Mężczyzna,2022-06-04_08h10.23.013,task,2021.1.4,Win32,75.18231712,628b806c463b948bc644b84f,629af6c74ba1548534425c7a,,,,,,,,,,,,qxxqtntbt,"[""q"",""x"",""x"",""q"",""t"",""n"",""t"",""b"",""t""]","[2.3671999999992295,2.726899999999432,2.927099999999541,3.1427999999997382,3.999099999999544,4.871099999999615,5.974899999999366,6.47089999999946,6.838799999999765,7.270899999999415]",0,QXXQTNRBT,16,0,16,0,1,,,,,,,,,,,,,,,,,,,,,,,,,,,,,,,,,,,,,,,,,,,,,,,,,,,,,,,,,,,,,,,,,,,,,,,,,,,,,,,,,,,
,,,,,,,,,5f108dea719866356702d26f,23,Mężczyzna,2022-06-04_08h10.23.013,task,2021.1.4,Win32,75.18231712,628b806c463b948bc644b84f,629af6c74ba1548534425c7a,,,,,,0,0,0,0,1,X V Q F H G B L J M P D K C T S W R N Z,,,,,,,,,,,,,,,,,,,,,,,,,,,,,,,,,,,,,,,,,,,,,,,,,,,,,,,,,,,,,,,,,,,,,,,,,,,,,,,,,,,,,,,,,,,,,
,,,,,,,,,5f108dea719866356702d26f,23,Mężczyzna,2022-06-04_08h10.23.013,task,2021.1.4,Win32,75.18231712,628b806c463b948bc644b84f,629af6c74ba1548534425c7a,,,,,,1,0,1,0,1,X V Q F H G B L J M P D K C T S W R N Z,,,,,,,,,,,,,,,,,,,,,,,,,,,,,,,,,,,,,,,,,,,,,,,,,,,,,,,,,,,,,,,,,,,,,,,,,,,,,,,,,,,,,,,,,,,,,
,,,,,,,,,5f108dea719866356702d26f,23,Mężczyzna,2022-06-04_08h10.23.013,task,2021.1.4,Win32,75.18231712,628b806c463b948bc644b84f,629af6c74ba1548534425c7a,,,,,,2,0,2,0,1,X V Q F H G B L J M P D K C T S W R N Z,,,,,,,,,,,,,,,,,,,,,,,,,,,,,,,,,,,,,,,,,,,,,,,,,,,,,,,,,,,,,,,,,,,,,,,,,,,,,,,,,,,,,,,,,,,,,
,,,,,,,,,5f108dea719866356702d26f,23,Mężczyzna,2022-06-04_08h10.23.013,task,2021.1.4,Win32,75.18231712,628b806c463b948bc644b84f,629af6c74ba1548534425c7a,,,,,,3,0,3,0,1,X V Q F H G B L J M P D K C T S W R N Z,,,,,,,,,,,,,,,,,,,,,,,,,,,,,,,,,,,,,,,,,,,,,,,,,,,,,,,,,,,,,,,,,,,,,,,,,,,,,,,,,,,,,,,,,,,,,
,,,,,,,,,5f108dea719866356702d26f,23,Mężczyzna,2022-06-04_08h10.23.013,task,2021.1.4,Win32,75.18231712,628b806c463b948bc644b84f,629af6c74ba1548534425c7a,,,,,,4,0,4,0,1,X V Q F H G B L J M P D K C T S W R N Z,,,,,,,,,,,,,,,,,,,,,,,,,,,,,,,,,,,,,,,,,,,,,,,,,,,,,,,,,,,,,,,,,,,,,,,,,,,,,,,,,,,,,,,,,,,,,
,,,,,,,,,5f108dea719866356702d26f,23,Mężczyzna,2022-06-04_08h10.23.013,task,2021.1.4,Win32,75.18231712,628b806c463b948bc644b84f,629af6c74ba1548534425c7a,,,,,,5,0,5,0,1,X V Q F H G B L J M P D K C T S W R N Z,,,,,,,,,,,,,,,,,,,,,,,,,,,,,,,,,,,,,,,,,,,,,,,,,,,,,,,,,,,,,,,,,,,,,,,,,,,,,,,,,,,,,,,,,,,,,
,,,,,,,,,5f108dea719866356702d26f,23,Mężczyzna,2022-06-04_08h10.23.013,task,2021.1.4,Win32,75.18231712,628b806c463b948bc644b84f,629af6c74ba1548534425c7a,,,,,,6,0,6,0,1,X V Q F H G B L J M P D K C T S W R N Z,,,,,,,,,,,,,,,,,,,,,,,,,,,,,,,,,,,,,,,,,,,,,,,,,,,,,,,,,,,,,,,,,,,,,,,,,,,,,,,,,,,,,,,,,,,,,
,,,,,,,,,5f108dea719866356702d26f,23,Mężczyzna,2022-06-04_08h10.23.013,task,2021.1.4,Win32,75.18231712,628b806c463b948bc644b84f,629af6c74ba1548534425c7a,,,,,,7,0,7,0,1,X V Q F H G B L J M P D K C T S W R N Z,,,,,,,,,,,,,,,,,,,,,,,,,,,,,,,,,,,,,,,,,,,,,,,,,,,,,,,,,,,,,,,,,,,,,,,,,,,,,,,,,,,,,,,,,,,,,
,,,,,,,,,5f108dea719866356702d26f,23,Mężczyzna,2022-06-04_08h10.23.013,task,2021.1.4,Win32,75.18231712,628b806c463b948bc644b84f,629af6c74ba1548534425c7a,,,,,,8,0,8,0,1,X V Q F H G B L J M P D K C T S W R N Z,,,,,,,,,,,,,,,,,,,,,,,,,,,,,,,,,,,,,,,,,,,,,,,,,,,,,,,,,,,,,,,,,,,,,,,,,,,,,,,,,,,,,,,,,,,,,
,,,,,,,,,5f108dea719866356702d26f,23,Mężczyzna,2022-06-04_08h10.23.013,task,2021.1.4,Win32,75.18231712,628b806c463b948bc644b84f,629af6c74ba1548534425c7a,,,,,,,,,,,,qcnvknklm,"[""q"",""c"",""n"",""v"",""k"",""n"",""k"",""l"",""m""]","[2.757299999999759,3.116999999999962,5.284599999999614,6.084399999999391,14.365299999999706,14.73279999999977,15.244599999999537,15.844499999999925,16.140499999999975,16.428700000000163]",1,QCNVKNKLM,17,0,17,0,1,,,,,,,,,,,,,,,,,,,,,,,,,,,,,,,,,,,,,,,,,,,,,,,,,,,,,,,,,,,,,,,,,,,,,,,,,,,,,,,,,,,
,,,,,,,,,5f108dea719866356702d26f,23,Mężczyzna,2022-06-04_08h10.23.013,task,2021.1.4,Win32,75.18231712,628b806c463b948bc644b84f,629af6c74ba1548534425c7a,,,,,,0,0,0,0,1,X V Q F H G B L J M P D K C T S W R N Z,,,,,,,,,,,,,,,,,,,,,,,,,,,,,,,,,,,,,,,,,,,,,,,,,,,,,,,,,,,,,,,,,,,,,,,,,,,,,,,,,,,,,,,,,,,,,
,,,,,,,,,5f108dea719866356702d26f,23,Mężczyzna,2022-06-04_08h10.23.013,task,2021.1.4,Win32,75.18231712,628b806c463b948bc644b84f,629af6c74ba1548534425c7a,,,,,,1,0,1,0,1,X V Q F H G B L J M P D K C T S W R N Z,,,,,,,,,,,,,,,,,,,,,,,,,,,,,,,,,,,,,,,,,,,,,,,,,,,,,,,,,,,,,,,,,,,,,,,,,,,,,,,,,,,,,,,,,,,,,
,,,,,,,,,5f108dea719866356702d26f,23,Mężczyzna,2022-06-04_08h10.23.013,task,2021.1.4,Win32,75.18231712,628b806c463b948bc644b84f,629af6c74ba1548534425c7a,,,,,,2,0,2,0,1,X V Q F H G B L J M P D K C T S W R N Z,,,,,,,,,,,,,,,,,,,,,,,,,,,,,,,,,,,,,,,,,,,,,,,,,,,,,,,,,,,,,,,,,,,,,,,,,,,,,,,,,,,,,,,,,,,,,
,,,,,,,,,5f108dea719866356702d26f,23,Mężczyzna,2022-06-04_08h10.23.013,task,2021.1.4,Win32,75.18231712,628b806c463b948bc644b84f,629af6c74ba1548534425c7a,,,,,,3,0,3,0,1,X V Q F H G B L J M P D K C T S W R N Z,,,,,,,,,,,,,,,,,,,,,,,,,,,,,,,,,,,,,,,,,,,,,,,,,,,,,,,,,,,,,,,,,,,,,,,,,,,,,,,,,,,,,,,,,,,,,
,,,,,,,,,5f108dea719866356702d26f,23,Mężczyzna,2022-06-04_08h10.23.013,task,2021.1.4,Win32,75.18231712,628b806c463b948bc644b84f,629af6c74ba1548534425c7a,,,,,,4,0,4,0,1,X V Q F H G B L J M P D K C T S W R N Z,,,,,,,,,,,,,,,,,,,,,,,,,,,,,,,,,,,,,,,,,,,,,,,,,,,,,,,,,,,,,,,,,,,,,,,,,,,,,,,,,,,,,,,,,,,,,
,,,,,,,,,5f108dea719866356702d26f,23,Mężczyzna,2022-06-04_08h10.23.013,task,2021.1.4,Win32,75.18231712,628b806c463b948bc644b84f,629af6c74ba1548534425c7a,,,,,,5,0,5,0,1,X V Q F H G B L J M P D K C T S W R N Z,,,,,,,,,,,,,,,,,,,,,,,,,,,,,,,,,,,,,,,,,,,,,,,,,,,,,,,,,,,,,,,,,,,,,,,,,,,,,,,,,,,,,,,,,,,,,
,,,,,,,,,5f108dea719866356702d26f,23,Mężczyzna,2022-06-04_08h10.23.013,task,2021.1.4,Win32,75.18231712,628b806c463b948bc644b84f,629af6c74ba1548534425c7a,,,,,,6,0,6,0,1,X V Q F H G B L J M P D K C T S W R N Z,,,,,,,,,,,,,,,,,,,,,,,,,,,,,,,,,,,,,,,,,,,,,,,,,,,,,,,,,,,,,,,,,,,,,,,,,,,,,,,,,,,,,,,,,,,,,
,,,,,,,,,5f108dea719866356702d26f,23,Mężczyzna,2022-06-04_08h10.23.013,task,2021.1.4,Win32,75.18231712,628b806c463b948bc644b84f,629af6c74ba1548534425c7a,,,,,,7,0,7,0,1,X V Q F H G B L J M P D K C T S W R N Z,,,,,,,,,,,,,,,,,,,,,,,,,,,,,,,,,,,,,,,,,,,,,,,,,,,,,,,,,,,,,,,,,,,,,,,,,,,,,,,,,,,,,,,,,,,,,
,,,,,,,,,5f108dea719866356702d26f,23,Mężczyzna,2022-06-04_08h10.23.013,task,2021.1.4,Win32,75.18231712,628b806c463b948bc644b84f,629af6c74ba1548534425c7a,,,,,,8,0,8,0,1,X V Q F H G B L J M P D K C T S W R N Z,,,,,,,,,,,,,,,,,,,,,,,,,,,,,,,,,,,,,,,,,,,,,,,,,,,,,,,,,,,,,,,,,,,,,,,,,,,,,,,,,,,,,,,,,,,,,
,,,,,,,,,5f108dea719866356702d26f,23,Mężczyzna,2022-06-04_08h10.23.013,task,2021.1.4,Win32,75.18231712,628b806c463b948bc644b84f,629af6c74ba1548534425c7a,,,,,,9,0,9,0,1,X V Q F H G B L J M P D K C T S W R N Z,,,,,,,,,,,,,,,,,,,,,,,,,,,,,,,,,,,,,,,,,,,,,,,,,,,,,,,,,,,,,,,,,,,,,,,,,,,,,,,,,,,,,,,,,,,,,
,,,,,,,,,5f108dea719866356702d26f,23,Mężczyzna,2022-06-04_08h10.23.013,task,2021.1.4,Win32,75.18231712,628b806c463b948bc644b84f,629af6c74ba1548534425c7a,,,,,,,,,,,,gqpllzjtcp,"[""g"",""q"",""p"",""l"",""l"",""z"",""j"",""t"",""c"",""p""]","[2.223500000000058,2.8710999999996147,3.3112999999998465,3.5432999999998174,5.0470000000000255,5.574799999999868,6.838799999999878,10.047000000000025,10.678999999999974,11.366799999999785,11.72709999999961]",1,GQPLLZJTCP,18,0,18,0,1,,,,,,,,,,,,,,,,,,,,,,,,,,,,,,,,,,,,,,,,,,,,,,,,,,,,,,,,,,,,,,,,,,,,,,,,,,,,,,,,,,,
,,,,,,,,,5f108dea719866356702d26f,23,Mężczyzna,2022-06-04_08h10.23.013,task,2021.1.4,Win32,75.18231712,628b806c463b948bc644b84f,629af6c74ba1548534425c7a,,,,,,0,0,0,0,1,X V Q F H G B L J M P D K C T S W R N Z,,,,,,,,,,,,,,,,,,,,,,,,,,,,,,,,,,,,,,,,,,,,,,,,,,,,,,,,,,,,,,,,,,,,,,,,,,,,,,,,,,,,,,,,,,,,,
,,,,,,,,,5f108dea719866356702d26f,23,Mężczyzna,2022-06-04_08h10.23.013,task,2021.1.4,Win32,75.18231712,628b806c463b948bc644b84f,629af6c74ba1548534425c7a,,,,,,1,0,1,0,1,X V Q F H G B L J M P D K C T S W R N Z,,,,,,,,,,,,,,,,,,,,,,,,,,,,,,,,,,,,,,,,,,,,,,,,,,,,,,,,,,,,,,,,,,,,,,,,,,,,,,,,,,,,,,,,,,,,,
,,,,,,,,,5f108dea719866356702d26f,23,Mężczyzna,2022-06-04_08h10.23.013,task,2021.1.4,Win32,75.18231712,628b806c463b948bc644b84f,629af6c74ba1548534425c7a,,,,,,2,0,2,0,1,X V Q F H G B L J M P D K C T S W R N Z,,,,,,,,,,,,,,,,,,,,,,,,,,,,,,,,,,,,,,,,,,,,,,,,,,,,,,,,,,,,,,,,,,,,,,,,,,,,,,,,,,,,,,,,,,,,,
,,,,,,,,,5f108dea719866356702d26f,23,Mężczyzna,2022-06-04_08h10.23.013,task,2021.1.4,Win32,75.18231712,628b806c463b948bc644b84f,629af6c74ba1548534425c7a,,,,,,3,0,3,0,1,X V Q F H G B L J M P D K C T S W R N Z,,,,,,,,,,,,,,,,,,,,,,,,,,,,,,,,,,,,,,,,,,,,,,,,,,,,,,,,,,,,,,,,,,,,,,,,,,,,,,,,,,,,,,,,,,,,,
,,,,,,,,,5f108dea719866356702d26f,23,Mężczyzna,2022-06-04_08h10.23.013,task,2021.1.4,Win32,75.18231712,628b806c463b948bc644b84f,629af6c74ba1548534425c7a,,,,,,4,0,4,0,1,X V Q F H G B L J M P D K C T S W R N Z,,,,,,,,,,,,,,,,,,,,,,,,,,,,,,,,,,,,,,,,,,,,,,,,,,,,,,,,,,,,,,,,,,,,,,,,,,,,,,,,,,,,,,,,,,,,,
,,,,,,,,,5f108dea719866356702d26f,23,Mężczyzna,2022-06-04_08h10.23.013,task,2021.1.4,Win32,75.18231712,628b806c463b948bc644b84f,629af6c74ba1548534425c7a,,,,,,5,0,5,0,1,X V Q F H G B L J M P D K C T S W R N Z,,,,,,,,,,,,,,,,,,,,,,,,,,,,,,,,,,,,,,,,,,,,,,,,,,,,,,,,,,,,,,,,,,,,,,,,,,,,,,,,,,,,,,,,,,,,,
,,,,,,,,,5f108dea719866356702d26f,23,Mężczyzna,2022-06-04_08h10.23.013,task,2021.1.4,Win32,75.18231712,628b806c463b948bc644b84f,629af6c74ba1548534425c7a,,,,,,6,0,6,0,1,X V Q F H G B L J M P D K C T S W R N Z,,,,,,,,,,,,,,,,,,,,,,,,,,,,,,,,,,,,,,,,,,,,,,,,,,,,,,,,,,,,,,,,,,,,,,,,,,,,,,,,,,,,,,,,,,,,,
,,,,,,,,,5f108dea719866356702d26f,23,Mężczyzna,2022-06-04_08h10.23.013,task,2021.1.4,Win32,75.18231712,628b806c463b948bc644b84f,629af6c74ba1548534425c7a,,,,,,7,0,7,0,1,X V Q F H G B L J M P D K C T S W R N Z,,,,,,,,,,,,,,,,,,,,,,,,,,,,,,,,,,,,,,,,,,,,,,,,,,,,,,,,,,,,,,,,,,,,,,,,,,,,,,,,,,,,,,,,,,,,,
,,,,,,,,,5f108dea719866356702d26f,23,Mężczyzna,2022-06-04_08h10.23.013,task,2021.1.4,Win32,75.18231712,628b806c463b948bc644b84f,629af6c74ba1548534425c7a,,,,,,8,0,8,0,1,X V Q F H G B L J M P D K C T S W R N Z,,,,,,,,,,,,,,,,,,,,,,,,,,,,,,,,,,,,,,,,,,,,,,,,,,,,,,,,,,,,,,,,,,,,,,,,,,,,,,,,,,,,,,,,,,,,,
,,,,,,,,,5f108dea719866356702d26f,23,Mężczyzna,2022-06-04_08h10.23.013,task,2021.1.4,Win32,75.18231712,628b806c463b948bc644b84f,629af6c74ba1548534425c7a,,,,,,9,0,9,0,1,X V Q F H G B L J M P D K C T S W R N Z,,,,,,,,,,,,,,,,,,,,,,,,,,,,,,,,,,,,,,,,,,,,,,,,,,,,,,,,,,,,,,,,,,,,,,,,,,,,,,,,,,,,,,,,,,,,,
,,,,,,,,,5f108dea719866356702d26f,23,Mężczyzna,2022-06-04_08h10.23.013,task,2021.1.4,Win32,75.18231712,628b806c463b948bc644b84f,629af6c74ba1548534425c7a,,,,,,,,,,,,mrrctrzffrt,"[""m"",""r"",""r"",""c"",""t"",""r"",""z"",""f"",""f"",""r"",""t""]","[4.523500000000013,6.0752999999998565,6.635599999999613,8.33189999999945,9.995199999999272,11.292199999999298,11.587399999999434,11.987299999999777,12.163299999999822,13.123099999999681,13.962999999999965,14.419099999999617]",0,MRCTRZFFRT,19,0,19,0,1,,,,,,,,,,,,,,,,,,,,,,,,,,,,,,,,,,,,,,,,,,,,,,,,,,,,,,,,,,,,,,,,,,,,,,,,,,,,,,,,,,,
,,,,,,,,,5f108dea719866356702d26f,23,Mężczyzna,2022-06-04_08h10.23.013,task,2021.1.4,Win32,75.18231712,628b806c463b948bc644b84f,629af6c74ba1548534425c7a,,,,,,0,0,0,0,1,X V Q F H G B L J M P D K C T S W R N Z,,,,,,,,,,,,,,,,,,,,,,,,,,,,,,,,,,,,,,,,,,,,,,,,,,,,,,,,,,,,,,,,,,,,,,,,,,,,,,,,,,,,,,,,,,,,,
,,,,,,,,,5f108dea719866356702d26f,23,Mężczyzna,2022-06-04_08h10.23.013,task,2021.1.4,Win32,75.18231712,628b806c463b948bc644b84f,629af6c74ba1548534425c7a,,,,,,1,0,1,0,1,X V Q F H G B L J M P D K C T S W R N Z,,,,,,,,,,,,,,,,,,,,,,,,,,,,,,,,,,,,,,,,,,,,,,,,,,,,,,,,,,,,,,,,,,,,,,,,,,,,,,,,,,,,,,,,,,,,,
,,,,,,,,,5f108dea719866356702d26f,23,Mężczyzna,2022-06-04_08h10.23.013,task,2021.1.4,Win32,75.18231712,628b806c463b948bc644b84f,629af6c74ba1548534425c7a,,,,,,2,0,2,0,1,X V Q F H G B L J M P D K C T S W R N Z,,,,,,,,,,,,,,,,,,,,,,,,,,,,,,,,,,,,,,,,,,,,,,,,,,,,,,,,,,,,,,,,,,,,,,,,,,,,,,,,,,,,,,,,,,,,,
,,,,,,,,,5f108dea719866356702d26f,23,Mężczyzna,2022-06-04_08h10.23.013,task,2021.1.4,Win32,75.18231712,628b806c463b948bc644b84f,629af6c74ba1548534425c7a,,,,,,3,0,3,0,1,X V Q F H G B L J M P D K C T S W R N Z,,,,,,,,,,,,,,,,,,,,,,,,,,,,,,,,,,,,,,,,,,,,,,,,,,,,,,,,,,,,,,,,,,,,,,,,,,,,,,,,,,,,,,,,,,,,,
,,,,,,,,,5f108dea719866356702d26f,23,Mężczyzna,2022-06-04_08h10.23.013,task,2021.1.4,Win32,75.18231712,628b806c463b948bc644b84f,629af6c74ba1548534425c7a,,,,,,4,0,4,0,1,X V Q F H G B L J M P D K C T S W R N Z,,,,,,,,,,,,,,,,,,,,,,,,,,,,,,,,,,,,,,,,,,,,,,,,,,,,,,,,,,,,,,,,,,,,,,,,,,,,,,,,,,,,,,,,,,,,,
,,,,,,,,,5f108dea719866356702d26f,23,Mężczyzna,2022-06-04_08h10.23.013,task,2021.1.4,Win32,75.18231712,628b806c463b948bc644b84f,629af6c74ba1548534425c7a,,,,,,5,0,5,0,1,X V Q F H G B L J M P D K C T S W R N Z,,,,,,,,,,,,,,,,,,,,,,,,,,,,,,,,,,,,,,,,,,,,,,,,,,,,,,,,,,,,,,,,,,,,,,,,,,,,,,,,,,,,,,,,,,,,,
,,,,,,,,,5f108dea719866356702d26f,23,Mężczyzna,2022-06-04_08h10.23.013,task,2021.1.4,Win32,75.18231712,628b806c463b948bc644b84f,629af6c74ba1548534425c7a,,,,,,6,0,6,0,1,X V Q F H G B L J M P D K C T S W R N Z,,,,,,,,,,,,,,,,,,,,,,,,,,,,,,,,,,,,,,,,,,,,,,,,,,,,,,,,,,,,,,,,,,,,,,,,,,,,,,,,,,,,,,,,,,,,,
,,,,,,,,,5f108dea719866356702d26f,23,Mężczyzna,2022-06-04_08h10.23.013,task,2021.1.4,Win32,75.18231712,628b806c463b948bc644b84f,629af6c74ba1548534425c7a,,,,,,7,0,7,0,1,X V Q F H G B L J M P D K C T S W R N Z,,,,,,,,,,,,,,,,,,,,,,,,,,,,,,,,,,,,,,,,,,,,,,,,,,,,,,,,,,,,,,,,,,,,,,,,,,,,,,,,,,,,,,,,,,,,,
,,,,,,,,,5f108dea719866356702d26f,23,Mężczyzna,2022-06-04_08h10.23.013,task,2021.1.4,Win32,75.18231712,628b806c463b948bc644b84f,629af6c74ba1548534425c7a,,,,,,8,0,8,0,1,X V Q F H G B L J M P D K C T S W R N Z,,,,,,,,,,,,,,,,,,,,,,,,,,,,,,,,,,,,,,,,,,,,,,,,,,,,,,,,,,,,,,,,,,,,,,,,,,,,,,,,,,,,,,,,,,,,,
,,,,,,,,,5f108dea719866356702d26f,23,Mężczyzna,2022-06-04_08h10.23.013,task,2021.1.4,Win32,75.18231712,628b806c463b948bc644b84f,629af6c74ba1548534425c7a,,,,,,9,0,9,0,1,X V Q F H G B L J M P D K C T S W R N Z,,,,,,,,,,,,,,,,,,,,,,,,,,,,,,,,,,,,,,,,,,,,,,,,,,,,,,,,,,,,,,,,,,,,,,,,,,,,,,,,,,,,,,,,,,,,,
,,,,,,,,,5f108dea719866356702d26f,23,Mężczyzna,2022-06-04_08h10.23.013,task,2021.1.4,Win32,75.18231712,628b806c463b948bc644b84f,629af6c74ba1548534425c7a,,,,,,,,,,,,bqjjdzhtdh,"[""b"",""q"",""j"",""j"",""d"",""z"",""h"",""t"",""d"",""h""]","[1.86529999999982,2.0970000000000937,2.8085999999997284,2.976599999999735,4.352899999999522,4.528899999999453,5.6652000000002545,6.5208999999995285,6.824899999999502,7.240700000000288,7.600700000000188]",1,BQJJDZHTDH,20,0,20,0,1,,,,,,,,,,,,,,,,,,,,,,,,,,,,,,,,,,,,,,,,,,,,,,,,,,,,,,,,,,,,,,,,,,,,,,,,,,,,,,,,,,,
,,,,,,,,,5f108dea719866356702d26f,23,Mężczyzna,2022-06-04_08h10.23.013,task,2021.1.4,Win32,75.18231712,628b806c463b948bc644b84f,629af6c74ba1548534425c7a,,,,,,0,0,0,0,1,X V Q F H G B L J M P D K C T S W R N Z,,,,,,,,,,,,,,,,,,,,,,,,,,,,,,,,,,,,,,,,,,,,,,,,,,,,,,,,,,,,,,,,,,,,,,,,,,,,,,,,,,,,,,,,,,,,,
,,,,,,,,,5f108dea719866356702d26f,23,Mężczyzna,2022-06-04_08h10.23.013,task,2021.1.4,Win32,75.18231712,628b806c463b948bc644b84f,629af6c74ba1548534425c7a,,,,,,1,0,1,0,1,X V Q F H G B L J M P D K C T S W R N Z,,,,,,,,,,,,,,,,,,,,,,,,,,,,,,,,,,,,,,,,,,,,,,,,,,,,,,,,,,,,,,,,,,,,,,,,,,,,,,,,,,,,,,,,,,,,,
,,,,,,,,,5f108dea719866356702d26f,23,Mężczyzna,2022-06-04_08h10.23.013,task,2021.1.4,Win32,75.18231712,628b806c463b948bc644b84f,629af6c74ba1548534425c7a,,,,,,2,0,2,0,1,X V Q F H G B L J M P D K C T S W R N Z,,,,,,,,,,,,,,,,,,,,,,,,,,,,,,,,,,,,,,,,,,,,,,,,,,,,,,,,,,,,,,,,,,,,,,,,,,,,,,,,,,,,,,,,,,,,,
,,,,,,,,,5f108dea719866356702d26f,23,Mężczyzna,2022-06-04_08h10.23.013,task,2021.1.4,Win32,75.18231712,628b806c463b948bc644b84f,629af6c74ba1548534425c7a,,,,,,3,0,3,0,1,X V Q F H G B L J M P D K C T S W R N Z,,,,,,,,,,,,,,,,,,,,,,,,,,,,,,,,,,,,,,,,,,,,,,,,,,,,,,,,,,,,,,,,,,,,,,,,,,,,,,,,,,,,,,,,,,,,,
,,,,,,,,,5f108dea719866356702d26f,23,Mężczyzna,2022-06-04_08h10.23.013,task,2021.1.4,Win32,75.18231712,628b806c463b948bc644b84f,629af6c74ba1548534425c7a,,,,,,4,0,4,0,1,X V Q F H G B L J M P D K C T S W R N Z,,,,,,,,,,,,,,,,,,,,,,,,,,,,,,,,,,,,,,,,,,,,,,,,,,,,,,,,,,,,,,,,,,,,,,,,,,,,,,,,,,,,,,,,,,,,,
,,,,,,,,,5f108dea719866356702d26f,23,Mężczyzna,2022-06-04_08h10.23.013,task,2021.1.4,Win32,75.18231712,628b806c463b948bc644b84f,629af6c74ba1548534425c7a,,,,,,5,0,5,0,1,X V Q F H G B L J M P D K C T S W R N Z,,,,,,,,,,,,,,,,,,,,,,,,,,,,,,,,,,,,,,,,,,,,,,,,,,,,,,,,,,,,,,,,,,,,,,,,,,,,,,,,,,,,,,,,,,,,,
,,,,,,,,,5f108dea719866356702d26f,23,Mężczyzna,2022-06-04_08h10.23.013,task,2021.1.4,Win32,75.18231712,628b806c463b948bc644b84f,629af6c74ba1548534425c7a,,,,,,6,0,6,0,1,X V Q F H G B L J M P D K C T S W R N Z,,,,,,,,,,,,,,,,,,,,,,,,,,,,,,,,,,,,,,,,,,,,,,,,,,,,,,,,,,,,,,,,,,,,,,,,,,,,,,,,,,,,,,,,,,,,,
,,,,,,,,,5f108dea719866356702d26f,23,Mężczyzna,2022-06-04_08h10.23.013,task,2021.1.4,Win32,75.18231712,628b806c463b948bc644b84f,629af6c74ba1548534425c7a,,,,,,7,0,7,0,1,X V Q F H G B L J M P D K C T S W R N Z,,,,,,,,,,,,,,,,,,,,,,,,,,,,,,,,,,,,,,,,,,,,,,,,,,,,,,,,,,,,,,,,,,,,,,,,,,,,,,,,,,,,,,,,,,,,,
,,,,,,,,,5f108dea719866356702d26f,23,Mężczyzna,2022-06-04_08h10.23.013,task,2021.1.4,Win32,75.18231712,628b806c463b948bc644b84f,629af6c74ba1548534425c7a,,,,,,8,0,8,0,1,X V Q F H G B L J M P D K C T S W R N Z,,,,,,,,,,,,,,,,,,,,,,,,,,,,,,,,,,,,,,,,,,,,,,,,,,,,,,,,,,,,,,,,,,,,,,,,,,,,,,,,,,,,,,,,,,,,,
,,,,,,,,,5f108dea719866356702d26f,23,Mężczyzna,2022-06-04_08h10.23.013,task,2021.1.4,Win32,75.18231712,628b806c463b948bc644b84f,629af6c74ba1548534425c7a,,,,,,9,0,9,0,1,X V Q F H G B L J M P D K C T S W R N Z,,,,,,,,,,,,,,,,,,,,,,,,,,,,,,,,,,,,,,,,,,,,,,,,,,,,,,,,,,,,,,,,,,,,,,,,,,,,,,,,,,,,,,,,,,,,,
,,,,,,,,,5f108dea719866356702d26f,23,Mężczyzna,2022-06-04_08h10.23.013,task,2021.1.4,Win32,75.18231712,628b806c463b948bc644b84f,629af6c74ba1548534425c7a,,,,,,10,0,10,0,1,X V Q F H G B L J M P D K C T S W R N Z,,,,,,,,,,,,,,,,,,,,,,,,,,,,,,,,,,,,,,,,,,,,,,,,,,,,,,,,,,,,,,,,,,,,,,,,,,,,,,,,,,,,,,,,,,,,,
,,,,,,,,,5f108dea719866356702d26f,23,Mężczyzna,2022-06-04_08h10.23.013,task,2021.1.4,Win32,75.18231712,628b806c463b948bc644b84f,629af6c74ba1548534425c7a,,,,,,,,,,,,smvmqhbbsnz,"[""s"",""m"",""v"",""m"",""q"",""h"",""b"",""b"",""s"",""n"",""z""]","[2.6480000000000246,2.951700000000187,3.5518000000007532,4.951700000000187,5.705100000000584,6.391800000000785,7.439900000000421,7.624400000000378,8.384900000000357,8.735700000000179,8.895900000000438,10.367800000000784]",1,SMVMQHBBSNZ,21,0,21,0,1,,,,,,,,,,,,,,,,,,,,,,,,,,,,,,,,,,,,,,,,,,,,,,,,,,,,,,,,,,,,,,,,,,,,,,,,,,,,,,,,,,,
,,,,,,,,,5f108dea719866356702d26f,23,Mężczyzna,2022-06-04_08h10.23.013,task,2021.1.4,Win32,75.18231712,628b806c463b948bc644b84f,629af6c74ba1548534425c7a,,,,,,0,0,0,0,1,X V Q F H G B L J M P D K C T S W R N Z,,,,,,,,,,,,,,,,,,,,,,,,,,,,,,,,,,,,,,,,,,,,,,,,,,,,,,,,,,,,,,,,,,,,,,,,,,,,,,,,,,,,,,,,,,,,,
,,,,,,,,,5f108dea719866356702d26f,23,Mężczyzna,2022-06-04_08h10.23.013,task,2021.1.4,Win32,75.18231712,628b806c463b948bc644b84f,629af6c74ba1548534425c7a,,,,,,1,0,1,0,1,X V Q F H G B L J M P D K C T S W R N Z,,,,,,,,,,,,,,,,,,,,,,,,,,,,,,,,,,,,,,,,,,,,,,,,,,,,,,,,,,,,,,,,,,,,,,,,,,,,,,,,,,,,,,,,,,,,,
,,,,,,,,,5f108dea719866356702d26f,23,Mężczyzna,2022-06-04_08h10.23.013,task,2021.1.4,Win32,75.18231712,628b806c463b948bc644b84f,629af6c74ba1548534425c7a,,,,,,2,0,2,0,1,X V Q F H G B L J M P D K C T S W R N Z,,,,,,,,,,,,,,,,,,,,,,,,,,,,,,,,,,,,,,,,,,,,,,,,,,,,,,,,,,,,,,,,,,,,,,,,,,,,,,,,,,,,,,,,,,,,,
,,,,,,,,,5f108dea719866356702d26f,23,Mężczyzna,2022-06-04_08h10.23.013,task,2021.1.4,Win32,75.18231712,628b806c463b948bc644b84f,629af6c74ba1548534425c7a,,,,,,3,0,3,0,1,X V Q F H G B L J M P D K C T S W R N Z,,,,,,,,,,,,,,,,,,,,,,,,,,,,,,,,,,,,,,,,,,,,,,,,,,,,,,,,,,,,,,,,,,,,,,,,,,,,,,,,,,,,,,,,,,,,,
,,,,,,,,,5f108dea719866356702d26f,23,Mężczyzna,2022-06-04_08h10.23.013,task,2021.1.4,Win32,75.18231712,628b806c463b948bc644b84f,629af6c74ba1548534425c7a,,,,,,4,0,4,0,1,X V Q F H G B L J M P D K C T S W R N Z,,,,,,,,,,,,,,,,,,,,,,,,,,,,,,,,,,,,,,,,,,,,,,,,,,,,,,,,,,,,,,,,,,,,,,,,,,,,,,,,,,,,,,,,,,,,,
,,,,,,,,,5f108dea719866356702d26f,23,Mężczyzna,2022-06-04_08h10.23.013,task,2021.1.4,Win32,75.18231712,628b806c463b948bc644b84f,629af6c74ba1548534425c7a,,,,,,5,0,5,0,1,X V Q F H G B L J M P D K C T S W R N Z,,,,,,,,,,,,,,,,,,,,,,,,,,,,,,,,,,,,,,,,,,,,,,,,,,,,,,,,,,,,,,,,,,,,,,,,,,,,,,,,,,,,,,,,,,,,,
,,,,,,,,,5f108dea719866356702d26f,23,Mężczyzna,2022-06-04_08h10.23.013,task,2021.1.4,Win32,75.18231712,628b806c463b948bc644b84f,629af6c74ba1548534425c7a,,,,,,6,0,6,0,1,X V Q F H G B L J M P D K C T S W R N Z,,,,,,,,,,,,,,,,,,,,,,,,,,,,,,,,,,,,,,,,,,,,,,,,,,,,,,,,,,,,,,,,,,,,,,,,,,,,,,,,,,,,,,,,,,,,,
,,,,,,,,,5f108dea719866356702d26f,23,Mężczyzna,2022-06-04_08h10.23.013,task,2021.1.4,Win32,75.18231712,628b806c463b948bc644b84f,629af6c74ba1548534425c7a,,,,,,7,0,7,0,1,X V Q F H G B L J M P D K C T S W R N Z,,,,,,,,,,,,,,,,,,,,,,,,,,,,,,,,,,,,,,,,,,,,,,,,,,,,,,,,,,,,,,,,,,,,,,,,,,,,,,,,,,,,,,,,,,,,,
,,,,,,,,,5f108dea719866356702d26f,23,Mężczyzna,2022-06-04_08h10.23.013,task,2021.1.4,Win32,75.18231712,628b806c463b948bc644b84f,629af6c74ba1548534425c7a,,,,,,8,0,8,0,1,X V Q F H G B L J M P D K C T S W R N Z,,,,,,,,,,,,,,,,,,,,,,,,,,,,,,,,,,,,,,,,,,,,,,,,,,,,,,,,,,,,,,,,,,,,,,,,,,,,,,,,,,,,,,,,,,,,,
,,,,,,,,,5f108dea719866356702d26f,23,Mężczyzna,2022-06-04_08h10.23.013,task,2021.1.4,Win32,75.18231712,628b806c463b948bc644b84f,629af6c74ba1548534425c7a,,,,,,9,0,9,0,1,X V Q F H G B L J M P D K C T S W R N Z,,,,,,,,,,,,,,,,,,,,,,,,,,,,,,,,,,,,,,,,,,,,,,,,,,,,,,,,,,,,,,,,,,,,,,,,,,,,,,,,,,,,,,,,,,,,,
,,,,,,,,,5f108dea719866356702d26f,23,Mężczyzna,2022-06-04_08h10.23.013,task,2021.1.4,Win32,75.18231712,628b806c463b948bc644b84f,629af6c74ba1548534425c7a,,,,,,10,0,10,0,1,X V Q F H G B L J M P D K C T S W R N Z,,,,,,,,,,,,,,,,,,,,,,,,,,,,,,,,,,,,,,,,,,,,,,,,,,,,,,,,,,,,,,,,,,,,,,,,,,,,,,,,,,,,,,,,,,,,,
,,,,,,,,,5f108dea719866356702d26f,23,Mężczyzna,2022-06-04_08h10.23.013,task,2021.1.4,Win32,75.18231712,628b806c463b948bc644b84f,629af6c74ba1548534425c7a,,,,,,,,,,,,pcjdtqmdzml,"[""p"",""c"",""j"",""d"",""t"",""q"",""m"",""d"",""z"",""m"",""l""]","[2.8158999999994876,3.98379999999986,4.3597999999998365,5.0475999999996475,6.319700000000239,6.42349999999999,7.343899999999508,8.3757999999998,11.599799999999846,17.93609999999967,18.096499999999992,19.54420000000016]",1,PCJDTQMDZML,22,0,22,0,1,,,,,,,,,,,,,,,,,,,,,,,,,,,,,,,,,,,,,,,,,,,,,,,,,,,,,,,,,,,,,,,,,,,,,,,,,,,,,,,,,,,
,,,,,,,,,5f108dea719866356702d26f,23,Mężczyzna,2022-06-04_08h10.23.013,task,2021.1.4,Win32,75.18231712,628b806c463b948bc644b84f,629af6c74ba1548534425c7a,,,,,,0,0,0,0,1,X V Q F H G B L J M P D K C T S W R N Z,,,,,,,,,,,,,,,,,,,,,,,,,,,,,,,,,,,,,,,,,,,,,,,,,,,,,,,,,,,,,,,,,,,,,,,,,,,,,,,,,,,,,,,,,,,,,
,,,,,,,,,5f108dea719866356702d26f,23,Mężczyzna,2022-06-04_08h10.23.013,task,2021.1.4,Win32,75.18231712,628b806c463b948bc644b84f,629af6c74ba1548534425c7a,,,,,,1,0,1,0,1,X V Q F H G B L J M P D K C T S W R N Z,,,,,,,,,,,,,,,,,,,,,,,,,,,,,,,,,,,,,,,,,,,,,,,,,,,,,,,,,,,,,,,,,,,,,,,,,,,,,,,,,,,,,,,,,,,,,
,,,,,,,,,5f108dea719866356702d26f,23,Mężczyzna,2022-06-04_08h10.23.013,task,2021.1.4,Win32,75.18231712,628b806c463b948bc644b84f,629af6c74ba1548534425c7a,,,,,,2,0,2,0,1,X V Q F H G B L J M P D K C T S W R N Z,,,,,,,,,,,,,,,,,,,,,,,,,,,,,,,,,,,,,,,,,,,,,,,,,,,,,,,,,,,,,,,,,,,,,,,,,,,,,,,,,,,,,,,,,,,,,
,,,,,,,,,5f108dea719866356702d26f,23,Mężczyzna,2022-06-04_08h10.23.013,task,2021.1.4,Win32,75.18231712,628b806c463b948bc644b84f,629af6c74ba1548534425c7a,,,,,,3,0,3,0,1,X V Q F H G B L J M P D K C T S W R N Z,,,,,,,,,,,,,,,,,,,,,,,,,,,,,,,,,,,,,,,,,,,,,,,,,,,,,,,,,,,,,,,,,,,,,,,,,,,,,,,,,,,,,,,,,,,,,
,,,,,,,,,5f108dea719866356702d26f,23,Mężczyzna,2022-06-04_08h10.23.013,task,2021.1.4,Win32,75.18231712,628b806c463b948bc644b84f,629af6c74ba1548534425c7a,,,,,,4,0,4,0,1,X V Q F H G B L J M P D K C T S W R N Z,,,,,,,,,,,,,,,,,,,,,,,,,,,,,,,,,,,,,,,,,,,,,,,,,,,,,,,,,,,,,,,,,,,,,,,,,,,,,,,,,,,,,,,,,,,,,
,,,,,,,,,5f108dea719866356702d26f,23,Mężczyzna,2022-06-04_08h10.23.013,task,2021.1.4,Win32,75.18231712,628b806c463b948bc644b84f,629af6c74ba1548534425c7a,,,,,,5,0,5,0,1,X V Q F H G B L J M P D K C T S W R N Z,,,,,,,,,,,,,,,,,,,,,,,,,,,,,,,,,,,,,,,,,,,,,,,,,,,,,,,,,,,,,,,,,,,,,,,,,,,,,,,,,,,,,,,,,,,,,
,,,,,,,,,5f108dea719866356702d26f,23,Mężczyzna,2022-06-04_08h10.23.013,task,2021.1.4,Win32,75.18231712,628b806c463b948bc644b84f,629af6c74ba1548534425c7a,,,,,,6,0,6,0,1,X V Q F H G B L J M P D K C T S W R N Z,,,,,,,,,,,,,,,,,,,,,,,,,,,,,,,,,,,,,,,,,,,,,,,,,,,,,,,,,,,,,,,,,,,,,,,,,,,,,,,,,,,,,,,,,,,,,
,,,,,,,,,5f108dea719866356702d26f,23,Mężczyzna,2022-06-04_08h10.23.013,task,2021.1.4,Win32,75.18231712,628b806c463b948bc644b84f,629af6c74ba1548534425c7a,,,,,,7,0,7,0,1,X V Q F H G B L J M P D K C T S W R N Z,,,,,,,,,,,,,,,,,,,,,,,,,,,,,,,,,,,,,,,,,,,,,,,,,,,,,,,,,,,,,,,,,,,,,,,,,,,,,,,,,,,,,,,,,,,,,
,,,,,,,,,5f108dea719866356702d26f,23,Mężczyzna,2022-06-04_08h10.23.013,task,2021.1.4,Win32,75.18231712,628b806c463b948bc644b84f,629af6c74ba1548534425c7a,,,,,,8,0,8,0,1,X V Q F H G B L J M P D K C T S W R N Z,,,,,,,,,,,,,,,,,,,,,,,,,,,,,,,,,,,,,,,,,,,,,,,,,,,,,,,,,,,,,,,,,,,,,,,,,,,,,,,,,,,,,,,,,,,,,
,,,,,,,,,5f108dea719866356702d26f,23,Mężczyzna,2022-06-04_08h10.23.013,task,2021.1.4,Win32,75.18231712,628b806c463b948bc644b84f,629af6c74ba1548534425c7a,,,,,,9,0,9,0,1,X V Q F H G B L J M P D K C T S W R N Z,,,,,,,,,,,,,,,,,,,,,,,,,,,,,,,,,,,,,,,,,,,,,,,,,,,,,,,,,,,,,,,,,,,,,,,,,,,,,,,,,,,,,,,,,,,,,
