key_resp_15.keys,key_resp_15.rt,key_resp_16.keys,key_resp_16.rt,key_resp_4.keys,key_resp_4.rt,next_letter.thisRepN,next_letter.thisTrialN,next_letter.thisN,next_letter.thisIndex,next_letter.ran,letter,participant,Wiek*,Płeć,date,expName,psychopyVersion,OS,frameRate,study_id,session,simple_recall,key_resp_5.keys,key_resp_5.rt,simple_recall_corr,simple_recall_corrkeys,next_level.thisRepN,next_level.thisTrialN,next_level.thisN,next_level.thisIndex,next_level.ran,key_resp_2.keys,key_resp_2.rt,digit_answer,key_resp.keys,key_resp.corr,key_resp.rt,RT_list,next_equation.thisRepN,next_equation.thisTrialN,next_equation.thisN,next_equation.thisIndex,next_equation.ran,Task,Trial,Problem,Operation_answer,processing_score,sumRT,meanRT,sumdiff,sd,RT,key_resp_3.keys,key_resp_3.rt,repeat_practice.thisRepN,repeat_practice.thisTrialN,repeat_practice.thisN,repeat_practice.thisIndex,repeat_practice.ran,key_resp_6.keys,key_resp_6.rt,key_resp_11.keys,key_resp_11.corr,key_resp_11.rt,operation_correct,repeat_if_wrong_prac.thisRepN,repeat_if_wrong_prac.thisTrialN,repeat_if_wrong_prac.thisN,repeat_if_wrong_prac.thisIndex,repeat_if_wrong_prac.ran,span_size_prac.thisRepN,span_size_prac.thisTrialN,span_size_prac.thisN,span_size_prac.thisIndex,span_size_prac.ran,complex_recall_practice,key_resp_9.keys,key_resp_9.corr,key_resp_9.rt,complex_prac_corr,span_recall_prac.thisRepN,span_recall_prac.thisTrialN,span_recall_prac.thisN,span_recall_prac.thisIndex,span_recall_prac.ran,key_resp_10.keys,key_resp_10.rt,key_resp_7.keys,key_resp_7.corr,key_resp_7.rt,repeat_if_wrong.thisRepN,repeat_if_wrong.thisTrialN,repeat_if_wrong.thisN,repeat_if_wrong.thisIndex,repeat_if_wrong.ran,span_size.thisRepN,span_size.thisTrialN,span_size.thisN,span_size.thisIndex,span_size.ran,complex_recall,key_resp_8.keys,key_resp_8.corr,key_resp_8.rt,complex_recall_corr,complex_recall_corrkeys,span_recall.thisRepN,span_recall.thisTrialN,span_recall.thisN,span_recall.thisIndex,span_recall.ran,key_resp_13.keys,key_resp_13.corr,random_loop.thisRepN,random_loop.thisTrialN,random_loop.thisN,random_loop.thisIndex,random_loop.ran,key_resp_13.rt,key_resp_12.keys,key_resp_12.rt
space,28.8509,space,121.3656,space,7.6353,0,0,0,0,1,X V Q F H G B L J M P D K C T S W R N Z,5f108fa8c5a6a7355ba78bbd,21,Kobieta,2022-06-11_09h25.32.575,task,2021.1.4,Win32,65.37229522,6299f149e92ead563fba08ef,62a4434402a1b988756fcdd1,,,,,,,,,,,,,,,,,,,,,,,,,,,,,,,,,,,,,,,,,,,,,,,,,,,,,,,,,,,,,,,,,,,,,,,,,,,,,,,,,,,,,,,,,,,,,,,,,,,,,
,,,,,,1,0,1,0,1,X V Q F H G B L J M P D K C T S W R N Z,5f108fa8c5a6a7355ba78bbd,21,Kobieta,2022-06-11_09h25.32.575,task,2021.1.4,Win32,65.37229522,6299f149e92ead563fba08ef,62a4434402a1b988756fcdd1,,,,,,,,,,,,,,,,,,,,,,,,,,,,,,,,,,,,,,,,,,,,,,,,,,,,,,,,,,,,,,,,,,,,,,,,,,,,,,,,,,,,,,,,,,,,,,,,,,,,,
,,,,,,,,,,,,5f108fa8c5a6a7355ba78bbd,21,Kobieta,2022-06-11_09h25.32.575,task,2021.1.4,Win32,65.37229522,6299f149e92ead563fba08ef,62a4434402a1b988756fcdd1,zh,"[""z"",""h""]","[3.393799999952307,4.343700000047676,5.450799999952324]",1,ZH,0,0,0,0,1,,,,,,,,,,,,,,,,,,,,,,,,,,,,,,,,,,,,,,,,,,,,,,,,,,,,,,,,,,,,,,,,,,,,,,,,,,,,,,,,,,,,,,,,,,,
,,,,,,0,0,0,0,1,X V Q F H G B L J M P D K C T S W R N Z,5f108fa8c5a6a7355ba78bbd,21,Kobieta,2022-06-11_09h25.32.575,task,2021.1.4,Win32,65.37229522,6299f149e92ead563fba08ef,62a4434402a1b988756fcdd1,,,,,,,,,,,,,,,,,,,,,,,,,,,,,,,,,,,,,,,,,,,,,,,,,,,,,,,,,,,,,,,,,,,,,,,,,,,,,,,,,,,,,,,,,,,,,,,,,,,,,
,,,,,,1,0,1,0,1,X V Q F H G B L J M P D K C T S W R N Z,5f108fa8c5a6a7355ba78bbd,21,Kobieta,2022-06-11_09h25.32.575,task,2021.1.4,Win32,65.37229522,6299f149e92ead563fba08ef,62a4434402a1b988756fcdd1,,,,,,,,,,,,,,,,,,,,,,,,,,,,,,,,,,,,,,,,,,,,,,,,,,,,,,,,,,,,,,,,,,,,,,,,,,,,,,,,,,,,,,,,,,,,,,,,,,,,,
,,,,,,,,,,,,5f108fa8c5a6a7355ba78bbd,21,Kobieta,2022-06-11_09h25.32.575,task,2021.1.4,Win32,65.37229522,6299f149e92ead563fba08ef,62a4434402a1b988756fcdd1,rx,"[""r"",""x""]","[1.2943000000715017,1.6544000000953645,3.0120000000000005]",1,RX,1,0,1,0,1,,,,,,,,,,,,,,,,,,,,,,,,,,,,,,,,,,,,,,,,,,,,,,,,,,,,,,,,,,,,,,,,,,,,,,,,,,,,,,,,,,,,,,,,,,,
,,,,,,0,0,0,0,1,X V Q F H G B L J M P D K C T S W R N Z,5f108fa8c5a6a7355ba78bbd,21,Kobieta,2022-06-11_09h25.32.575,task,2021.1.4,Win32,65.37229522,6299f149e92ead563fba08ef,62a4434402a1b988756fcdd1,,,,,,,,,,,,,,,,,,,,,,,,,,,,,,,,,,,,,,,,,,,,,,,,,,,,,,,,,,,,,,,,,,,,,,,,,,,,,,,,,,,,,,,,,,,,,,,,,,,,,
,,,,,,1,0,1,0,1,X V Q F H G B L J M P D K C T S W R N Z,5f108fa8c5a6a7355ba78bbd,21,Kobieta,2022-06-11_09h25.32.575,task,2021.1.4,Win32,65.37229522,6299f149e92ead563fba08ef,62a4434402a1b988756fcdd1,,,,,,,,,,,,,,,,,,,,,,,,,,,,,,,,,,,,,,,,,,,,,,,,,,,,,,,,,,,,,,,,,,,,,,,,,,,,,,,,,,,,,,,,,,,,,,,,,,,,,
,,,,,,2,0,2,0,1,X V Q F H G B L J M P D K C T S W R N Z,5f108fa8c5a6a7355ba78bbd,21,Kobieta,2022-06-11_09h25.32.575,task,2021.1.4,Win32,65.37229522,6299f149e92ead563fba08ef,62a4434402a1b988756fcdd1,,,,,,,,,,,,,,,,,,,,,,,,,,,,,,,,,,,,,,,,,,,,,,,,,,,,,,,,,,,,,,,,,,,,,,,,,,,,,,,,,,,,,,,,,,,,,,,,,,,,,
,,,,,,,,,,,,5f108fa8c5a6a7355ba78bbd,21,Kobieta,2022-06-11_09h25.32.575,task,2021.1.4,Win32,65.37229522,6299f149e92ead563fba08ef,62a4434402a1b988756fcdd1,mlr,"[""m"",""l"",""r""]","[0.8172000000476771,1.079900000095364,1.6303000000715429,2.8316000000238546]",1,MLR,2,0,2,0,1,,,,,,,,,,,,,,,,,,,,,,,,,,,,,,,,,,,,,,,,,,,,,,,,,,,,,,,,,,,,,,,,,,,,,,,,,,,,,,,,,,,,,,,,,,,
,,,,,,0,0,0,0,1,X V Q F H G B L J M P D K C T S W R N Z,5f108fa8c5a6a7355ba78bbd,21,Kobieta,2022-06-11_09h25.32.575,task,2021.1.4,Win32,65.37229522,6299f149e92ead563fba08ef,62a4434402a1b988756fcdd1,,,,,,,,,,,,,,,,,,,,,,,,,,,,,,,,,,,,,,,,,,,,,,,,,,,,,,,,,,,,,,,,,,,,,,,,,,,,,,,,,,,,,,,,,,,,,,,,,,,,,
,,,,,,1,0,1,0,1,X V Q F H G B L J M P D K C T S W R N Z,5f108fa8c5a6a7355ba78bbd,21,Kobieta,2022-06-11_09h25.32.575,task,2021.1.4,Win32,65.37229522,6299f149e92ead563fba08ef,62a4434402a1b988756fcdd1,,,,,,,,,,,,,,,,,,,,,,,,,,,,,,,,,,,,,,,,,,,,,,,,,,,,,,,,,,,,,,,,,,,,,,,,,,,,,,,,,,,,,,,,,,,,,,,,,,,,,
,,,,,,2,0,2,0,1,X V Q F H G B L J M P D K C T S W R N Z,5f108fa8c5a6a7355ba78bbd,21,Kobieta,2022-06-11_09h25.32.575,task,2021.1.4,Win32,65.37229522,6299f149e92ead563fba08ef,62a4434402a1b988756fcdd1,,,,,,,,,,,,,,,,,,,,,,,,,,,,,,,,,,,,,,,,,,,,,,,,,,,,,,,,,,,,,,,,,,,,,,,,,,,,,,,,,,,,,,,,,,,,,,,,,,,,,
,,,,,,,,,,,,5f108fa8c5a6a7355ba78bbd,21,Kobieta,2022-06-11_09h25.32.575,task,2021.1.4,Win32,65.37229522,6299f149e92ead563fba08ef,62a4434402a1b988756fcdd1,shj,"[""s"",""h"",""j""]","[1.064899999976177,1.5821000000238428,1.8996000000238666,2.6200000000000045]",1,SHJ,3,0,3,0,1,,,,,,,,,,,,,,,,,,,,,,,,,,,,,,,,,,,,,,,,,,,,,,,,,,,,,,,,,,,,,,,,,,,,,,,,,,,,,,,,,,,,,,,,,,,
,,,,,,0,0,0,0,1,X V Q F H G B L J M P D K C T S W R N Z,5f108fa8c5a6a7355ba78bbd,21,Kobieta,2022-06-11_09h25.32.575,task,2021.1.4,Win32,65.37229522,6299f149e92ead563fba08ef,62a4434402a1b988756fcdd1,,,,,,,,,,,,,,,,,,,,,,,,,,,,,,,,,,,,,,,,,,,,,,,,,,,,,,,,,,,,,,,,,,,,,,,,,,,,,,,,,,,,,,,,,,,,,,,,,,,,,
,,,,,,1,0,1,0,1,X V Q F H G B L J M P D K C T S W R N Z,5f108fa8c5a6a7355ba78bbd,21,Kobieta,2022-06-11_09h25.32.575,task,2021.1.4,Win32,65.37229522,6299f149e92ead563fba08ef,62a4434402a1b988756fcdd1,,,,,,,,,,,,,,,,,,,,,,,,,,,,,,,,,,,,,,,,,,,,,,,,,,,,,,,,,,,,,,,,,,,,,,,,,,,,,,,,,,,,,,,,,,,,,,,,,,,,,
,,,,,,2,0,2,0,1,X V Q F H G B L J M P D K C T S W R N Z,5f108fa8c5a6a7355ba78bbd,21,Kobieta,2022-06-11_09h25.32.575,task,2021.1.4,Win32,65.37229522,6299f149e92ead563fba08ef,62a4434402a1b988756fcdd1,,,,,,,,,,,,,,,,,,,,,,,,,,,,,,,,,,,,,,,,,,,,,,,,,,,,,,,,,,,,,,,,,,,,,,,,,,,,,,,,,,,,,,,,,,,,,,,,,,,,,
,,,,,,3,0,3,0,1,X V Q F H G B L J M P D K C T S W R N Z,5f108fa8c5a6a7355ba78bbd,21,Kobieta,2022-06-11_09h25.32.575,task,2021.1.4,Win32,65.37229522,6299f149e92ead563fba08ef,62a4434402a1b988756fcdd1,,,,,,,,,,,,,,,,,,,,,,,,,,,,,,,,,,,,,,,,,,,,,,,,,,,,,,,,,,,,,,,,,,,,,,,,,,,,,,,,,,,,,,,,,,,,,,,,,,,,,
,,,,,,,,,,,,5f108fa8c5a6a7355ba78bbd,21,Kobieta,2022-06-11_09h25.32.575,task,2021.1.4,Win32,65.37229522,6299f149e92ead563fba08ef,62a4434402a1b988756fcdd1,xlbt,"[""x"",""l"",""b"",""t""]","[0.7978999999761527,1.498500000000007,1.9703999999761663,2.3491000000238387,3.332600000023831]",1,XLBT,4,0,4,0,1,,,,,,,,,,,,,,,,,,,,,,,,,,,,,,,,,,,,,,,,,,,,,,,,,,,,,,,,,,,,,,,,,,,,,,,,,,,,,,,,,,,,,,,,,,,
,,,,,,0,0,0,0,1,X V Q F H G B L J M P D K C T S W R N Z,5f108fa8c5a6a7355ba78bbd,21,Kobieta,2022-06-11_09h25.32.575,task,2021.1.4,Win32,65.37229522,6299f149e92ead563fba08ef,62a4434402a1b988756fcdd1,,,,,,,,,,,,,,,,,,,,,,,,,,,,,,,,,,,,,,,,,,,,,,,,,,,,,,,,,,,,,,,,,,,,,,,,,,,,,,,,,,,,,,,,,,,,,,,,,,,,,
,,,,,,1,0,1,0,1,X V Q F H G B L J M P D K C T S W R N Z,5f108fa8c5a6a7355ba78bbd,21,Kobieta,2022-06-11_09h25.32.575,task,2021.1.4,Win32,65.37229522,6299f149e92ead563fba08ef,62a4434402a1b988756fcdd1,,,,,,,,,,,,,,,,,,,,,,,,,,,,,,,,,,,,,,,,,,,,,,,,,,,,,,,,,,,,,,,,,,,,,,,,,,,,,,,,,,,,,,,,,,,,,,,,,,,,,
,,,,,,2,0,2,0,1,X V Q F H G B L J M P D K C T S W R N Z,5f108fa8c5a6a7355ba78bbd,21,Kobieta,2022-06-11_09h25.32.575,task,2021.1.4,Win32,65.37229522,6299f149e92ead563fba08ef,62a4434402a1b988756fcdd1,,,,,,,,,,,,,,,,,,,,,,,,,,,,,,,,,,,,,,,,,,,,,,,,,,,,,,,,,,,,,,,,,,,,,,,,,,,,,,,,,,,,,,,,,,,,,,,,,,,,,
,,,,,,3,0,3,0,1,X V Q F H G B L J M P D K C T S W R N Z,5f108fa8c5a6a7355ba78bbd,21,Kobieta,2022-06-11_09h25.32.575,task,2021.1.4,Win32,65.37229522,6299f149e92ead563fba08ef,62a4434402a1b988756fcdd1,,,,,,,,,,,,,,,,,,,,,,,,,,,,,,,,,,,,,,,,,,,,,,,,,,,,,,,,,,,,,,,,,,,,,,,,,,,,,,,,,,,,,,,,,,,,,,,,,,,,,
,,,,,,,,,,,,5f108fa8c5a6a7355ba78bbd,21,Kobieta,2022-06-11_09h25.32.575,task,2021.1.4,Win32,65.37229522,6299f149e92ead563fba08ef,62a4434402a1b988756fcdd1,nxfk,"[""n"",""x"",""f"",""k""]","[0.8810999999046487,7.69529999995234,8.251399999976172,8.883599999904646,12.11509999990463]",1,NXFK,5,0,5,0,1,,,,,,,,,,,,,,,,,,,,,,,,,,,,,,,,,,,,,,,,,,,,,,,,,,,,,,,,,,,,,,,,,,,,,,,,,,,,,,,,,,,,,,,,,,,
,,,,,,0,0,0,0,1,X V Q F H G B L J M P D K C T S W R N Z,5f108fa8c5a6a7355ba78bbd,21,Kobieta,2022-06-11_09h25.32.575,task,2021.1.4,Win32,65.37229522,6299f149e92ead563fba08ef,62a4434402a1b988756fcdd1,,,,,,,,,,,,,,,,,,,,,,,,,,,,,,,,,,,,,,,,,,,,,,,,,,,,,,,,,,,,,,,,,,,,,,,,,,,,,,,,,,,,,,,,,,,,,,,,,,,,,
,,,,,,1,0,1,0,1,X V Q F H G B L J M P D K C T S W R N Z,5f108fa8c5a6a7355ba78bbd,21,Kobieta,2022-06-11_09h25.32.575,task,2021.1.4,Win32,65.37229522,6299f149e92ead563fba08ef,62a4434402a1b988756fcdd1,,,,,,,,,,,,,,,,,,,,,,,,,,,,,,,,,,,,,,,,,,,,,,,,,,,,,,,,,,,,,,,,,,,,,,,,,,,,,,,,,,,,,,,,,,,,,,,,,,,,,
,,,,,,2,0,2,0,1,X V Q F H G B L J M P D K C T S W R N Z,5f108fa8c5a6a7355ba78bbd,21,Kobieta,2022-06-11_09h25.32.575,task,2021.1.4,Win32,65.37229522,6299f149e92ead563fba08ef,62a4434402a1b988756fcdd1,,,,,,,,,,,,,,,,,,,,,,,,,,,,,,,,,,,,,,,,,,,,,,,,,,,,,,,,,,,,,,,,,,,,,,,,,,,,,,,,,,,,,,,,,,,,,,,,,,,,,
,,,,,,3,0,3,0,1,X V Q F H G B L J M P D K C T S W R N Z,5f108fa8c5a6a7355ba78bbd,21,Kobieta,2022-06-11_09h25.32.575,task,2021.1.4,Win32,65.37229522,6299f149e92ead563fba08ef,62a4434402a1b988756fcdd1,,,,,,,,,,,,,,,,,,,,,,,,,,,,,,,,,,,,,,,,,,,,,,,,,,,,,,,,,,,,,,,,,,,,,,,,,,,,,,,,,,,,,,,,,,,,,,,,,,,,,
,,,,,,4,0,4,0,1,X V Q F H G B L J M P D K C T S W R N Z,5f108fa8c5a6a7355ba78bbd,21,Kobieta,2022-06-11_09h25.32.575,task,2021.1.4,Win32,65.37229522,6299f149e92ead563fba08ef,62a4434402a1b988756fcdd1,,,,,,,,,,,,,,,,,,,,,,,,,,,,,,,,,,,,,,,,,,,,,,,,,,,,,,,,,,,,,,,,,,,,,,,,,,,,,,,,,,,,,,,,,,,,,,,,,,,,,
,,,,,,,,,,,,5f108fa8c5a6a7355ba78bbd,21,Kobieta,2022-06-11_09h25.32.575,task,2021.1.4,Win32,65.37229522,6299f149e92ead563fba08ef,62a4434402a1b988756fcdd1,rbqpt,"[""r"",""b"",""q"",""p"",""t""]","[0.603600000023846,1.3151000000238469,2.8652999999523274,10.799100000023856,11.534500000000008,12.482499999999987]",1,RBQPT,6,0,6,0,1,,,,,,,,,,,,,,,,,,,,,,,,,,,,,,,,,,,,,,,,,,,,,,,,,,,,,,,,,,,,,,,,,,,,,,,,,,,,,,,,,,,,,,,,,,,
,,,,,,0,0,0,0,1,X V Q F H G B L J M P D K C T S W R N Z,5f108fa8c5a6a7355ba78bbd,21,Kobieta,2022-06-11_09h25.32.575,task,2021.1.4,Win32,65.37229522,6299f149e92ead563fba08ef,62a4434402a1b988756fcdd1,,,,,,,,,,,,,,,,,,,,,,,,,,,,,,,,,,,,,,,,,,,,,,,,,,,,,,,,,,,,,,,,,,,,,,,,,,,,,,,,,,,,,,,,,,,,,,,,,,,,,
,,,,,,1,0,1,0,1,X V Q F H G B L J M P D K C T S W R N Z,5f108fa8c5a6a7355ba78bbd,21,Kobieta,2022-06-11_09h25.32.575,task,2021.1.4,Win32,65.37229522,6299f149e92ead563fba08ef,62a4434402a1b988756fcdd1,,,,,,,,,,,,,,,,,,,,,,,,,,,,,,,,,,,,,,,,,,,,,,,,,,,,,,,,,,,,,,,,,,,,,,,,,,,,,,,,,,,,,,,,,,,,,,,,,,,,,
,,,,,,2,0,2,0,1,X V Q F H G B L J M P D K C T S W R N Z,5f108fa8c5a6a7355ba78bbd,21,Kobieta,2022-06-11_09h25.32.575,task,2021.1.4,Win32,65.37229522,6299f149e92ead563fba08ef,62a4434402a1b988756fcdd1,,,,,,,,,,,,,,,,,,,,,,,,,,,,,,,,,,,,,,,,,,,,,,,,,,,,,,,,,,,,,,,,,,,,,,,,,,,,,,,,,,,,,,,,,,,,,,,,,,,,,
,,,,,,3,0,3,0,1,X V Q F H G B L J M P D K C T S W R N Z,5f108fa8c5a6a7355ba78bbd,21,Kobieta,2022-06-11_09h25.32.575,task,2021.1.4,Win32,65.37229522,6299f149e92ead563fba08ef,62a4434402a1b988756fcdd1,,,,,,,,,,,,,,,,,,,,,,,,,,,,,,,,,,,,,,,,,,,,,,,,,,,,,,,,,,,,,,,,,,,,,,,,,,,,,,,,,,,,,,,,,,,,,,,,,,,,,
,,,,,,4,0,4,0,1,X V Q F H G B L J M P D K C T S W R N Z,5f108fa8c5a6a7355ba78bbd,21,Kobieta,2022-06-11_09h25.32.575,task,2021.1.4,Win32,65.37229522,6299f149e92ead563fba08ef,62a4434402a1b988756fcdd1,,,,,,,,,,,,,,,,,,,,,,,,,,,,,,,,,,,,,,,,,,,,,,,,,,,,,,,,,,,,,,,,,,,,,,,,,,,,,,,,,,,,,,,,,,,,,,,,,,,,,
,,,,,,,,,,,,5f108fa8c5a6a7355ba78bbd,21,Kobieta,2022-06-11_09h25.32.575,task,2021.1.4,Win32,65.37229522,6299f149e92ead563fba08ef,62a4434402a1b988756fcdd1,szxwt,"[""s"",""z"",""x"",""w"",""t""]","[1.1655000000000086,5.348199999928454,15.886399999976163,16.25410000002381,19.287799999952313,20.13310000002383]",0,SZXWD,7,0,7,0,1,,,,,,,,,,,,,,,,,,,,,,,,,,,,,,,,,,,,,,,,,,,,,,,,,,,,,,,,,,,,,,,,,,,,,,,,,,,,,,,,,,,,,,,,,,,
,,,,,,0,0,0,0,1,X V Q F H G B L J M P D K C T S W R N Z,5f108fa8c5a6a7355ba78bbd,21,Kobieta,2022-06-11_09h25.32.575,task,2021.1.4,Win32,65.37229522,6299f149e92ead563fba08ef,62a4434402a1b988756fcdd1,,,,,,,,,,,,,,,,,,,,,,,,,,,,,,,,,,,,,,,,,,,,,,,,,,,,,,,,,,,,,,,,,,,,,,,,,,,,,,,,,,,,,,,,,,,,,,,,,,,,,
,,,,,,1,0,1,0,1,X V Q F H G B L J M P D K C T S W R N Z,5f108fa8c5a6a7355ba78bbd,21,Kobieta,2022-06-11_09h25.32.575,task,2021.1.4,Win32,65.37229522,6299f149e92ead563fba08ef,62a4434402a1b988756fcdd1,,,,,,,,,,,,,,,,,,,,,,,,,,,,,,,,,,,,,,,,,,,,,,,,,,,,,,,,,,,,,,,,,,,,,,,,,,,,,,,,,,,,,,,,,,,,,,,,,,,,,
,,,,,,2,0,2,0,1,X V Q F H G B L J M P D K C T S W R N Z,5f108fa8c5a6a7355ba78bbd,21,Kobieta,2022-06-11_09h25.32.575,task,2021.1.4,Win32,65.37229522,6299f149e92ead563fba08ef,62a4434402a1b988756fcdd1,,,,,,,,,,,,,,,,,,,,,,,,,,,,,,,,,,,,,,,,,,,,,,,,,,,,,,,,,,,,,,,,,,,,,,,,,,,,,,,,,,,,,,,,,,,,,,,,,,,,,
,,,,,,3,0,3,0,1,X V Q F H G B L J M P D K C T S W R N Z,5f108fa8c5a6a7355ba78bbd,21,Kobieta,2022-06-11_09h25.32.575,task,2021.1.4,Win32,65.37229522,6299f149e92ead563fba08ef,62a4434402a1b988756fcdd1,,,,,,,,,,,,,,,,,,,,,,,,,,,,,,,,,,,,,,,,,,,,,,,,,,,,,,,,,,,,,,,,,,,,,,,,,,,,,,,,,,,,,,,,,,,,,,,,,,,,,
,,,,,,4,0,4,0,1,X V Q F H G B L J M P D K C T S W R N Z,5f108fa8c5a6a7355ba78bbd,21,Kobieta,2022-06-11_09h25.32.575,task,2021.1.4,Win32,65.37229522,6299f149e92ead563fba08ef,62a4434402a1b988756fcdd1,,,,,,,,,,,,,,,,,,,,,,,,,,,,,,,,,,,,,,,,,,,,,,,,,,,,,,,,,,,,,,,,,,,,,,,,,,,,,,,,,,,,,,,,,,,,,,,,,,,,,
,,,,,,,,,,,,5f108fa8c5a6a7355ba78bbd,21,Kobieta,2022-06-11_09h25.32.575,task,2021.1.4,Win32,65.37229522,6299f149e92ead563fba08ef,62a4434402a1b988756fcdd1,vwvbq,"[""v"",""w"",""v"",""b"",""q""]","[1.7827000000476687,2.632000000000005,3.1651000000238128,5.214800000071534,8.21580000007151,13.389100000023802]",1,VWVBQ,8,0,8,0,1,,,,,,,,,,,,,,,,,,,,,,,,,,,,,,,,,,,,,,,,,,,,,,,,,,,,,,,,,,,,,,,,,,,,,,,,,,,,,,,,,,,,,,,,,,,
,,,,,,0,0,0,0,1,X V Q F H G B L J M P D K C T S W R N Z,5f108fa8c5a6a7355ba78bbd,21,Kobieta,2022-06-11_09h25.32.575,task,2021.1.4,Win32,65.37229522,6299f149e92ead563fba08ef,62a4434402a1b988756fcdd1,,,,,,,,,,,,,,,,,,,,,,,,,,,,,,,,,,,,,,,,,,,,,,,,,,,,,,,,,,,,,,,,,,,,,,,,,,,,,,,,,,,,,,,,,,,,,,,,,,,,,
,,,,,,1,0,1,0,1,X V Q F H G B L J M P D K C T S W R N Z,5f108fa8c5a6a7355ba78bbd,21,Kobieta,2022-06-11_09h25.32.575,task,2021.1.4,Win32,65.37229522,6299f149e92ead563fba08ef,62a4434402a1b988756fcdd1,,,,,,,,,,,,,,,,,,,,,,,,,,,,,,,,,,,,,,,,,,,,,,,,,,,,,,,,,,,,,,,,,,,,,,,,,,,,,,,,,,,,,,,,,,,,,,,,,,,,,
,,,,,,2,0,2,0,1,X V Q F H G B L J M P D K C T S W R N Z,5f108fa8c5a6a7355ba78bbd,21,Kobieta,2022-06-11_09h25.32.575,task,2021.1.4,Win32,65.37229522,6299f149e92ead563fba08ef,62a4434402a1b988756fcdd1,,,,,,,,,,,,,,,,,,,,,,,,,,,,,,,,,,,,,,,,,,,,,,,,,,,,,,,,,,,,,,,,,,,,,,,,,,,,,,,,,,,,,,,,,,,,,,,,,,,,,
,,,,,,3,0,3,0,1,X V Q F H G B L J M P D K C T S W R N Z,5f108fa8c5a6a7355ba78bbd,21,Kobieta,2022-06-11_09h25.32.575,task,2021.1.4,Win32,65.37229522,6299f149e92ead563fba08ef,62a4434402a1b988756fcdd1,,,,,,,,,,,,,,,,,,,,,,,,,,,,,,,,,,,,,,,,,,,,,,,,,,,,,,,,,,,,,,,,,,,,,,,,,,,,,,,,,,,,,,,,,,,,,,,,,,,,,
,,,,,,4,0,4,0,1,X V Q F H G B L J M P D K C T S W R N Z,5f108fa8c5a6a7355ba78bbd,21,Kobieta,2022-06-11_09h25.32.575,task,2021.1.4,Win32,65.37229522,6299f149e92ead563fba08ef,62a4434402a1b988756fcdd1,,,,,,,,,,,,,,,,,,,,,,,,,,,,,,,,,,,,,,,,,,,,,,,,,,,,,,,,,,,,,,,,,,,,,,,,,,,,,,,,,,,,,,,,,,,,,,,,,,,,,
,,,,,,5,0,5,0,1,X V Q F H G B L J M P D K C T S W R N Z,5f108fa8c5a6a7355ba78bbd,21,Kobieta,2022-06-11_09h25.32.575,task,2021.1.4,Win32,65.37229522,6299f149e92ead563fba08ef,62a4434402a1b988756fcdd1,,,,,,,,,,,,,,,,,,,,,,,,,,,,,,,,,,,,,,,,,,,,,,,,,,,,,,,,,,,,,,,,,,,,,,,,,,,,,,,,,,,,,,,,,,,,,,,,,,,,,
,,,,,,,,,,,,5f108fa8c5a6a7355ba78bbd,21,Kobieta,2022-06-11_09h25.32.575,task,2021.1.4,Win32,65.37229522,6299f149e92ead563fba08ef,62a4434402a1b988756fcdd1,gztbfn,"[""g"",""z"",""t"",""b"",""f"",""n""]","[3.4377000000476983,12.836000000000013,15.071700000047713,27.664500000000032,28.019499999999994,28.39329999995232,30.159799999952327]",0,GZTFBN,9,0,9,0,1,,,,,,,,,,,,,,,,,,,,,,,,,,,,,,,,,,,,,,,,,,,,,,,,,,,,,,,,,,,,,,,,,,,,,,,,,,,,,,,,,,,,,,,,,,,
,,,,,,0,0,0,0,1,X V Q F H G B L J M P D K C T S W R N Z,5f108fa8c5a6a7355ba78bbd,21,Kobieta,2022-06-11_09h25.32.575,task,2021.1.4,Win32,65.37229522,6299f149e92ead563fba08ef,62a4434402a1b988756fcdd1,,,,,,,,,,,,,,,,,,,,,,,,,,,,,,,,,,,,,,,,,,,,,,,,,,,,,,,,,,,,,,,,,,,,,,,,,,,,,,,,,,,,,,,,,,,,,,,,,,,,,
,,,,,,1,0,1,0,1,X V Q F H G B L J M P D K C T S W R N Z,5f108fa8c5a6a7355ba78bbd,21,Kobieta,2022-06-11_09h25.32.575,task,2021.1.4,Win32,65.37229522,6299f149e92ead563fba08ef,62a4434402a1b988756fcdd1,,,,,,,,,,,,,,,,,,,,,,,,,,,,,,,,,,,,,,,,,,,,,,,,,,,,,,,,,,,,,,,,,,,,,,,,,,,,,,,,,,,,,,,,,,,,,,,,,,,,,
,,,,,,2,0,2,0,1,X V Q F H G B L J M P D K C T S W R N Z,5f108fa8c5a6a7355ba78bbd,21,Kobieta,2022-06-11_09h25.32.575,task,2021.1.4,Win32,65.37229522,6299f149e92ead563fba08ef,62a4434402a1b988756fcdd1,,,,,,,,,,,,,,,,,,,,,,,,,,,,,,,,,,,,,,,,,,,,,,,,,,,,,,,,,,,,,,,,,,,,,,,,,,,,,,,,,,,,,,,,,,,,,,,,,,,,,
,,,,,,3,0,3,0,1,X V Q F H G B L J M P D K C T S W R N Z,5f108fa8c5a6a7355ba78bbd,21,Kobieta,2022-06-11_09h25.32.575,task,2021.1.4,Win32,65.37229522,6299f149e92ead563fba08ef,62a4434402a1b988756fcdd1,,,,,,,,,,,,,,,,,,,,,,,,,,,,,,,,,,,,,,,,,,,,,,,,,,,,,,,,,,,,,,,,,,,,,,,,,,,,,,,,,,,,,,,,,,,,,,,,,,,,,
,,,,,,4,0,4,0,1,X V Q F H G B L J M P D K C T S W R N Z,5f108fa8c5a6a7355ba78bbd,21,Kobieta,2022-06-11_09h25.32.575,task,2021.1.4,Win32,65.37229522,6299f149e92ead563fba08ef,62a4434402a1b988756fcdd1,,,,,,,,,,,,,,,,,,,,,,,,,,,,,,,,,,,,,,,,,,,,,,,,,,,,,,,,,,,,,,,,,,,,,,,,,,,,,,,,,,,,,,,,,,,,,,,,,,,,,
,,,,,,5,0,5,0,1,X V Q F H G B L J M P D K C T S W R N Z,5f108fa8c5a6a7355ba78bbd,21,Kobieta,2022-06-11_09h25.32.575,task,2021.1.4,Win32,65.37229522,6299f149e92ead563fba08ef,62a4434402a1b988756fcdd1,,,,,,,,,,,,,,,,,,,,,,,,,,,,,,,,,,,,,,,,,,,,,,,,,,,,,,,,,,,,,,,,,,,,,,,,,,,,,,,,,,,,,,,,,,,,,,,,,,,,,
,,,,,,,,,,,,5f108fa8c5a6a7355ba78bbd,21,Kobieta,2022-06-11_09h25.32.575,task,2021.1.4,Win32,65.37229522,6299f149e92ead563fba08ef,62a4434402a1b988756fcdd1,wqlzmf,"[""w"",""q"",""l"",""z"",""m"",""f""]","[5.026899999976138,5.23429999995227,5.79679999995227,6.274799999952279,6.814100000023814,10.74799999999999,13.520100000023831]",1,WQLZMF,10,0,10,0,1,,,,,,,,,,,,,,,,,,,,,,,,,,,,,,,,,,,,,,,,,,,,,,,,,,,,,,,,,,,,,,,,,,,,,,,,,,,,,,,,,,,,,,,,,,,
,,,,,,0,0,0,0,1,X V Q F H G B L J M P D K C T S W R N Z,5f108fa8c5a6a7355ba78bbd,21,Kobieta,2022-06-11_09h25.32.575,task,2021.1.4,Win32,65.37229522,6299f149e92ead563fba08ef,62a4434402a1b988756fcdd1,,,,,,,,,,,,,,,,,,,,,,,,,,,,,,,,,,,,,,,,,,,,,,,,,,,,,,,,,,,,,,,,,,,,,,,,,,,,,,,,,,,,,,,,,,,,,,,,,,,,,
,,,,,,1,0,1,0,1,X V Q F H G B L J M P D K C T S W R N Z,5f108fa8c5a6a7355ba78bbd,21,Kobieta,2022-06-11_09h25.32.575,task,2021.1.4,Win32,65.37229522,6299f149e92ead563fba08ef,62a4434402a1b988756fcdd1,,,,,,,,,,,,,,,,,,,,,,,,,,,,,,,,,,,,,,,,,,,,,,,,,,,,,,,,,,,,,,,,,,,,,,,,,,,,,,,,,,,,,,,,,,,,,,,,,,,,,
,,,,,,2,0,2,0,1,X V Q F H G B L J M P D K C T S W R N Z,5f108fa8c5a6a7355ba78bbd,21,Kobieta,2022-06-11_09h25.32.575,task,2021.1.4,Win32,65.37229522,6299f149e92ead563fba08ef,62a4434402a1b988756fcdd1,,,,,,,,,,,,,,,,,,,,,,,,,,,,,,,,,,,,,,,,,,,,,,,,,,,,,,,,,,,,,,,,,,,,,,,,,,,,,,,,,,,,,,,,,,,,,,,,,,,,,
,,,,,,3,0,3,0,1,X V Q F H G B L J M P D K C T S W R N Z,5f108fa8c5a6a7355ba78bbd,21,Kobieta,2022-06-11_09h25.32.575,task,2021.1.4,Win32,65.37229522,6299f149e92ead563fba08ef,62a4434402a1b988756fcdd1,,,,,,,,,,,,,,,,,,,,,,,,,,,,,,,,,,,,,,,,,,,,,,,,,,,,,,,,,,,,,,,,,,,,,,,,,,,,,,,,,,,,,,,,,,,,,,,,,,,,,
,,,,,,4,0,4,0,1,X V Q F H G B L J M P D K C T S W R N Z,5f108fa8c5a6a7355ba78bbd,21,Kobieta,2022-06-11_09h25.32.575,task,2021.1.4,Win32,65.37229522,6299f149e92ead563fba08ef,62a4434402a1b988756fcdd1,,,,,,,,,,,,,,,,,,,,,,,,,,,,,,,,,,,,,,,,,,,,,,,,,,,,,,,,,,,,,,,,,,,,,,,,,,,,,,,,,,,,,,,,,,,,,,,,,,,,,
,,,,,,5,0,5,0,1,X V Q F H G B L J M P D K C T S W R N Z,5f108fa8c5a6a7355ba78bbd,21,Kobieta,2022-06-11_09h25.32.575,task,2021.1.4,Win32,65.37229522,6299f149e92ead563fba08ef,62a4434402a1b988756fcdd1,,,,,,,,,,,,,,,,,,,,,,,,,,,,,,,,,,,,,,,,,,,,,,,,,,,,,,,,,,,,,,,,,,,,,,,,,,,,,,,,,,,,,,,,,,,,,,,,,,,,,
,,,,,,,,,,,,5f108fa8c5a6a7355ba78bbd,21,Kobieta,2022-06-11_09h25.32.575,task,2021.1.4,Win32,65.37229522,6299f149e92ead563fba08ef,62a4434402a1b988756fcdd1,wlctlw,"[""w"",""l"",""c"",""t"",""l"",""w""]","[1.1463000000715056,1.7703000000715292,2.2266000000238364,3.1738000000714806,3.597499999999968,4.427900000095349,12.47010000002382]",1,WLCTLW,11,0,11,0,1,,,,,,,,,,,,,,,,,,,,,,,,,,,,,,,,,,,,,,,,,,,,,,,,,,,,,,,,,,,,,,,,,,,,,,,,,,,,,,,,,,,,,,,,,,,
,,,,,,0,0,0,0,1,X V Q F H G B L J M P D K C T S W R N Z,5f108fa8c5a6a7355ba78bbd,21,Kobieta,2022-06-11_09h25.32.575,task,2021.1.4,Win32,65.37229522,6299f149e92ead563fba08ef,62a4434402a1b988756fcdd1,,,,,,,,,,,,,,,,,,,,,,,,,,,,,,,,,,,,,,,,,,,,,,,,,,,,,,,,,,,,,,,,,,,,,,,,,,,,,,,,,,,,,,,,,,,,,,,,,,,,,
,,,,,,1,0,1,0,1,X V Q F H G B L J M P D K C T S W R N Z,5f108fa8c5a6a7355ba78bbd,21,Kobieta,2022-06-11_09h25.32.575,task,2021.1.4,Win32,65.37229522,6299f149e92ead563fba08ef,62a4434402a1b988756fcdd1,,,,,,,,,,,,,,,,,,,,,,,,,,,,,,,,,,,,,,,,,,,,,,,,,,,,,,,,,,,,,,,,,,,,,,,,,,,,,,,,,,,,,,,,,,,,,,,,,,,,,
,,,,,,2,0,2,0,1,X V Q F H G B L J M P D K C T S W R N Z,5f108fa8c5a6a7355ba78bbd,21,Kobieta,2022-06-11_09h25.32.575,task,2021.1.4,Win32,65.37229522,6299f149e92ead563fba08ef,62a4434402a1b988756fcdd1,,,,,,,,,,,,,,,,,,,,,,,,,,,,,,,,,,,,,,,,,,,,,,,,,,,,,,,,,,,,,,,,,,,,,,,,,,,,,,,,,,,,,,,,,,,,,,,,,,,,,
,,,,,,3,0,3,0,1,X V Q F H G B L J M P D K C T S W R N Z,5f108fa8c5a6a7355ba78bbd,21,Kobieta,2022-06-11_09h25.32.575,task,2021.1.4,Win32,65.37229522,6299f149e92ead563fba08ef,62a4434402a1b988756fcdd1,,,,,,,,,,,,,,,,,,,,,,,,,,,,,,,,,,,,,,,,,,,,,,,,,,,,,,,,,,,,,,,,,,,,,,,,,,,,,,,,,,,,,,,,,,,,,,,,,,,,,
,,,,,,4,0,4,0,1,X V Q F H G B L J M P D K C T S W R N Z,5f108fa8c5a6a7355ba78bbd,21,Kobieta,2022-06-11_09h25.32.575,task,2021.1.4,Win32,65.37229522,6299f149e92ead563fba08ef,62a4434402a1b988756fcdd1,,,,,,,,,,,,,,,,,,,,,,,,,,,,,,,,,,,,,,,,,,,,,,,,,,,,,,,,,,,,,,,,,,,,,,,,,,,,,,,,,,,,,,,,,,,,,,,,,,,,,
,,,,,,5,0,5,0,1,X V Q F H G B L J M P D K C T S W R N Z,5f108fa8c5a6a7355ba78bbd,21,Kobieta,2022-06-11_09h25.32.575,task,2021.1.4,Win32,65.37229522,6299f149e92ead563fba08ef,62a4434402a1b988756fcdd1,,,,,,,,,,,,,,,,,,,,,,,,,,,,,,,,,,,,,,,,,,,,,,,,,,,,,,,,,,,,,,,,,,,,,,,,,,,,,,,,,,,,,,,,,,,,,,,,,,,,,
,,,,,,6,0,6,0,1,X V Q F H G B L J M P D K C T S W R N Z,5f108fa8c5a6a7355ba78bbd,21,Kobieta,2022-06-11_09h25.32.575,task,2021.1.4,Win32,65.37229522,6299f149e92ead563fba08ef,62a4434402a1b988756fcdd1,,,,,,,,,,,,,,,,,,,,,,,,,,,,,,,,,,,,,,,,,,,,,,,,,,,,,,,,,,,,,,,,,,,,,,,,,,,,,,,,,,,,,,,,,,,,,,,,,,,,,
,,,,,,,,,,,,5f108fa8c5a6a7355ba78bbd,21,Kobieta,2022-06-11_09h25.32.575,task,2021.1.4,Win32,65.37229522,6299f149e92ead563fba08ef,62a4434402a1b988756fcdd1,gzmngg,"[""g"",""z"",""m"",""n"",""g"",""g""]","[0.9807999999522963,1.3773999999761486,1.9809999999999945,2.2978999999761527,10.737399999976162,10.94339999997618,12.048299999952292]",0,GZNMGGS,12,0,12,0,1,,,,,,,,,,,,,,,,,,,,,,,,,,,,,,,,,,,,,,,,,,,,,,,,,,,,,,,,,,,,,,,,,,,,,,,,,,,,,,,,,,,,,,,,,,,
,,,,,,0,0,0,0,1,X V Q F H G B L J M P D K C T S W R N Z,5f108fa8c5a6a7355ba78bbd,21,Kobieta,2022-06-11_09h25.32.575,task,2021.1.4,Win32,65.37229522,6299f149e92ead563fba08ef,62a4434402a1b988756fcdd1,,,,,,,,,,,,,,,,,,,,,,,,,,,,,,,,,,,,,,,,,,,,,,,,,,,,,,,,,,,,,,,,,,,,,,,,,,,,,,,,,,,,,,,,,,,,,,,,,,,,,
,,,,,,1,0,1,0,1,X V Q F H G B L J M P D K C T S W R N Z,5f108fa8c5a6a7355ba78bbd,21,Kobieta,2022-06-11_09h25.32.575,task,2021.1.4,Win32,65.37229522,6299f149e92ead563fba08ef,62a4434402a1b988756fcdd1,,,,,,,,,,,,,,,,,,,,,,,,,,,,,,,,,,,,,,,,,,,,,,,,,,,,,,,,,,,,,,,,,,,,,,,,,,,,,,,,,,,,,,,,,,,,,,,,,,,,,
,,,,,,2,0,2,0,1,X V Q F H G B L J M P D K C T S W R N Z,5f108fa8c5a6a7355ba78bbd,21,Kobieta,2022-06-11_09h25.32.575,task,2021.1.4,Win32,65.37229522,6299f149e92ead563fba08ef,62a4434402a1b988756fcdd1,,,,,,,,,,,,,,,,,,,,,,,,,,,,,,,,,,,,,,,,,,,,,,,,,,,,,,,,,,,,,,,,,,,,,,,,,,,,,,,,,,,,,,,,,,,,,,,,,,,,,
,,,,,,3,0,3,0,1,X V Q F H G B L J M P D K C T S W R N Z,5f108fa8c5a6a7355ba78bbd,21,Kobieta,2022-06-11_09h25.32.575,task,2021.1.4,Win32,65.37229522,6299f149e92ead563fba08ef,62a4434402a1b988756fcdd1,,,,,,,,,,,,,,,,,,,,,,,,,,,,,,,,,,,,,,,,,,,,,,,,,,,,,,,,,,,,,,,,,,,,,,,,,,,,,,,,,,,,,,,,,,,,,,,,,,,,,
,,,,,,4,0,4,0,1,X V Q F H G B L J M P D K C T S W R N Z,5f108fa8c5a6a7355ba78bbd,21,Kobieta,2022-06-11_09h25.32.575,task,2021.1.4,Win32,65.37229522,6299f149e92ead563fba08ef,62a4434402a1b988756fcdd1,,,,,,,,,,,,,,,,,,,,,,,,,,,,,,,,,,,,,,,,,,,,,,,,,,,,,,,,,,,,,,,,,,,,,,,,,,,,,,,,,,,,,,,,,,,,,,,,,,,,,
,,,,,,5,0,5,0,1,X V Q F H G B L J M P D K C T S W R N Z,5f108fa8c5a6a7355ba78bbd,21,Kobieta,2022-06-11_09h25.32.575,task,2021.1.4,Win32,65.37229522,6299f149e92ead563fba08ef,62a4434402a1b988756fcdd1,,,,,,,,,,,,,,,,,,,,,,,,,,,,,,,,,,,,,,,,,,,,,,,,,,,,,,,,,,,,,,,,,,,,,,,,,,,,,,,,,,,,,,,,,,,,,,,,,,,,,
,,,,,,6,0,6,0,1,X V Q F H G B L J M P D K C T S W R N Z,5f108fa8c5a6a7355ba78bbd,21,Kobieta,2022-06-11_09h25.32.575,task,2021.1.4,Win32,65.37229522,6299f149e92ead563fba08ef,62a4434402a1b988756fcdd1,,,,,,,,,,,,,,,,,,,,,,,,,,,,,,,,,,,,,,,,,,,,,,,,,,,,,,,,,,,,,,,,,,,,,,,,,,,,,,,,,,,,,,,,,,,,,,,,,,,,,
,,,,,,,,,,,,5f108fa8c5a6a7355ba78bbd,21,Kobieta,2022-06-11_09h25.32.575,task,2021.1.4,Win32,65.37229522,6299f149e92ead563fba08ef,62a4434402a1b988756fcdd1,hpvlspv,"[""h"",""p"",""v"",""l"",""s"",""p"",""v""]","[1.1518999999761377,1.7016000000238591,2.1683999999761454,2.5849999999999795,3.1707000000477024,4.069500000000005,4.55670000004767,9.319700000047703]",0,HPVSLWB,13,0,13,0,1,,,,,,,,,,,,,,,,,,,,,,,,,,,,,,,,,,,,,,,,,,,,,,,,,,,,,,,,,,,,,,,,,,,,,,,,,,,,,,,,,,,,,,,,,,,
,,,,,,0,0,0,0,1,X V Q F H G B L J M P D K C T S W R N Z,5f108fa8c5a6a7355ba78bbd,21,Kobieta,2022-06-11_09h25.32.575,task,2021.1.4,Win32,65.37229522,6299f149e92ead563fba08ef,62a4434402a1b988756fcdd1,,,,,,,,,,,,,,,,,,,,,,,,,,,,,,,,,,,,,,,,,,,,,,,,,,,,,,,,,,,,,,,,,,,,,,,,,,,,,,,,,,,,,,,,,,,,,,,,,,,,,
,,,,,,1,0,1,0,1,X V Q F H G B L J M P D K C T S W R N Z,5f108fa8c5a6a7355ba78bbd,21,Kobieta,2022-06-11_09h25.32.575,task,2021.1.4,Win32,65.37229522,6299f149e92ead563fba08ef,62a4434402a1b988756fcdd1,,,,,,,,,,,,,,,,,,,,,,,,,,,,,,,,,,,,,,,,,,,,,,,,,,,,,,,,,,,,,,,,,,,,,,,,,,,,,,,,,,,,,,,,,,,,,,,,,,,,,
,,,,,,2,0,2,0,1,X V Q F H G B L J M P D K C T S W R N Z,5f108fa8c5a6a7355ba78bbd,21,Kobieta,2022-06-11_09h25.32.575,task,2021.1.4,Win32,65.37229522,6299f149e92ead563fba08ef,62a4434402a1b988756fcdd1,,,,,,,,,,,,,,,,,,,,,,,,,,,,,,,,,,,,,,,,,,,,,,,,,,,,,,,,,,,,,,,,,,,,,,,,,,,,,,,,,,,,,,,,,,,,,,,,,,,,,
,,,,,,3,0,3,0,1,X V Q F H G B L J M P D K C T S W R N Z,5f108fa8c5a6a7355ba78bbd,21,Kobieta,2022-06-11_09h25.32.575,task,2021.1.4,Win32,65.37229522,6299f149e92ead563fba08ef,62a4434402a1b988756fcdd1,,,,,,,,,,,,,,,,,,,,,,,,,,,,,,,,,,,,,,,,,,,,,,,,,,,,,,,,,,,,,,,,,,,,,,,,,,,,,,,,,,,,,,,,,,,,,,,,,,,,,
,,,,,,4,0,4,0,1,X V Q F H G B L J M P D K C T S W R N Z,5f108fa8c5a6a7355ba78bbd,21,Kobieta,2022-06-11_09h25.32.575,task,2021.1.4,Win32,65.37229522,6299f149e92ead563fba08ef,62a4434402a1b988756fcdd1,,,,,,,,,,,,,,,,,,,,,,,,,,,,,,,,,,,,,,,,,,,,,,,,,,,,,,,,,,,,,,,,,,,,,,,,,,,,,,,,,,,,,,,,,,,,,,,,,,,,,
,,,,,,5,0,5,0,1,X V Q F H G B L J M P D K C T S W R N Z,5f108fa8c5a6a7355ba78bbd,21,Kobieta,2022-06-11_09h25.32.575,task,2021.1.4,Win32,65.37229522,6299f149e92ead563fba08ef,62a4434402a1b988756fcdd1,,,,,,,,,,,,,,,,,,,,,,,,,,,,,,,,,,,,,,,,,,,,,,,,,,,,,,,,,,,,,,,,,,,,,,,,,,,,,,,,,,,,,,,,,,,,,,,,,,,,,
,,,,,,6,0,6,0,1,X V Q F H G B L J M P D K C T S W R N Z,5f108fa8c5a6a7355ba78bbd,21,Kobieta,2022-06-11_09h25.32.575,task,2021.1.4,Win32,65.37229522,6299f149e92ead563fba08ef,62a4434402a1b988756fcdd1,,,,,,,,,,,,,,,,,,,,,,,,,,,,,,,,,,,,,,,,,,,,,,,,,,,,,,,,,,,,,,,,,,,,,,,,,,,,,,,,,,,,,,,,,,,,,,,,,,,,,
,,,,,,,,,,,,5f108fa8c5a6a7355ba78bbd,21,Kobieta,2022-06-11_09h25.32.575,task,2021.1.4,Win32,65.37229522,6299f149e92ead563fba08ef,62a4434402a1b988756fcdd1,rqmzwf,"[""r"",""q"",""m"",""z"",""w"",""f""]","[0.9986000000238846,1.416100000023846,4.414300000071535,10.99780000007155,14.060800000071538,14.383300000071529,19.547400000095365]",0,RKQMGZJ,14,0,14,0,1,,,,,,,,,,,,,,,,,,,,,,,,,,,,,,,,,,,,,,,,,,,,,,,,,,,,,,,,,,,,,,,,,,,,,,,,,,,,,,,,,,,,,,,,,,,
,,,,,,,,,,,,5f108fa8c5a6a7355ba78bbd,21,Kobieta,2022-06-11_09h25.32.575,task,2021.1.4,Win32,65.37229522,6299f149e92ead563fba08ef,62a4434402a1b988756fcdd1,,,,,,,,,,,space,29.7032,2,"[""2""]",1,[7.1924999999999955],[7.1924999999999955],0,0,0,2,1,Practice,3,(4x4) - 14,2,,,,,,,,,,,,,,,,,,,,,,,,,,,,,,,,,,,,,,,,,,,,,,,,,,,,,,,,,,,,,,,,,,,,,,,,,,,
,,,,,,,,,,,,5f108fa8c5a6a7355ba78bbd,21,Kobieta,2022-06-11_09h25.32.575,task,2021.1.4,Win32,65.37229522,6299f149e92ead563fba08ef,62a4434402a1b988756fcdd1,,,,,,,,,,,,,5,"[""5""]",1,[3.59699999999998],"[7.1924999999999955,3.59699999999998]",0,1,1,5,1,Practice,6,(4/2) + 3,5,,,,,,,,,,,,,,,,,,,,,,,,,,,,,,,,,,,,,,,,,,,,,,,,,,,,,,,,,,,,,,,,,,,,,,,,,,,
,,,,,,,,,,,,5f108fa8c5a6a7355ba78bbd,21,Kobieta,2022-06-11_09h25.32.575,task,2021.1.4,Win32,65.37229522,6299f149e92ead563fba08ef,62a4434402a1b988756fcdd1,,,,,,,,,,,,,6,"[""6""]",1,[2.2643000000715006],"[7.1924999999999955,3.59699999999998,2.2643000000715006]",0,2,2,6,1,Practice,7,(25/5) + 1,6,,,,,,,,,,,,,,,,,,,,,,,,,,,,,,,,,,,,,,,,,,,,,,,,,,,,,,,,,,,,,,,,,,,,,,,,,,,
,,,,,,,,,,,,5f108fa8c5a6a7355ba78bbd,21,Kobieta,2022-06-11_09h25.32.575,task,2021.1.4,Win32,65.37229522,6299f149e92ead563fba08ef,62a4434402a1b988756fcdd1,,,,,,,,,,,,,9,"[""9""]",1,[2.109099999904629],"[7.1924999999999955,3.59699999999998,2.2643000000715006,2.109099999904629]",0,3,3,9,1,Practice,10,(20/2) - 1,9,,,,,,,,,,,,,,,,,,,,,,,,,,,,,,,,,,,,,,,,,,,,,,,,,,,,,,,,,,,,,,,,,,,,,,,,,,,
,,,,,,,,,,,,5f108fa8c5a6a7355ba78bbd,21,Kobieta,2022-06-11_09h25.32.575,task,2021.1.4,Win32,65.37229522,6299f149e92ead563fba08ef,62a4434402a1b988756fcdd1,,,,,,,,,,,,,0,"[""0""]",1,[1.7501000000237923],"[7.1924999999999955,3.59699999999998,2.2643000000715006,2.109099999904629,1.7501000000237923]",0,4,4,0,1,Practice,1,(3x3) -  9,0,,,,,,,,,,,,,,,,,,,,,,,,,,,,,,,,,,,,,,,,,,,,,,,,,,,,,,,,,,,,,,,,,,,,,,,,,,,
,,,,,,,,,,,,5f108fa8c5a6a7355ba78bbd,21,Kobieta,2022-06-11_09h25.32.575,task,2021.1.4,Win32,65.37229522,6299f149e92ead563fba08ef,62a4434402a1b988756fcdd1,,,,,,,,,,,,,8,"[""8""]",1,[1.6377000000477437],"[7.1924999999999955,3.59699999999998,2.2643000000715006,2.109099999904629,1.7501000000237923,1.6377000000477437]",0,5,5,8,1,Practice,9,(3x3) - 1,8,,,,,,,,,,,,,,,,,,,,,,,,,,,,,,,,,,,,,,,,,,,,,,,,,,,,,,,,,,,,,,,,,,,,,,,,,,,
,,,,,,,,,,,,5f108fa8c5a6a7355ba78bbd,21,Kobieta,2022-06-11_09h25.32.575,task,2021.1.4,Win32,65.37229522,6299f149e92ead563fba08ef,62a4434402a1b988756fcdd1,,,,,,,,,,,,,4,"[""4""]",1,[5.197700000047689],"[7.1924999999999955,3.59699999999998,2.2643000000715006,2.109099999904629,1.7501000000237923,1.6377000000477437,5.197700000047689]",0,6,6,4,1,Practice,5,(2x6) - 8,4,,,,,,,,,,,,,,,,,,,,,,,,,,,,,,,,,,,,,,,,,,,,,,,,,,,,,,,,,,,,,,,,,,,,,,,,,,,
,,,,,,,,,,,,5f108fa8c5a6a7355ba78bbd,21,Kobieta,2022-06-11_09h25.32.575,task,2021.1.4,Win32,65.37229522,6299f149e92ead563fba08ef,62a4434402a1b988756fcdd1,,,,,,,,,,,,,5,"[""5""]",0,[1.7137999999522435],"[7.1924999999999955,3.59699999999998,2.2643000000715006,2.109099999904629,1.7501000000237923,1.6377000000477437,5.197700000047689,1.7137999999522435]",0,7,7,3,1,Practice,4,(8/4) + 1,3,,,,,,,,,,,,,,,,,,,,,,,,,,,,,,,,,,,,,,,,,,,,,,,,,,,,,,,,,,,,,,,,,,,,,,,,,,,
,,,,,,,,,,,,5f108fa8c5a6a7355ba78bbd,21,Kobieta,2022-06-11_09h25.32.575,task,2021.1.4,Win32,65.37229522,6299f149e92ead563fba08ef,62a4434402a1b988756fcdd1,,,,,,,,,,,,,1,"[""1""]",1,[7.882199999928503],"[7.1924999999999955,3.59699999999998,2.2643000000715006,2.109099999904629,1.7501000000237923,1.6377000000477437,5.197700000047689,1.7137999999522435,7.882199999928503]",0,8,8,1,1,Practice,2,(4x4) - 15,1,,,,,,,,,,,,,,,,,,,,,,,,,,,,,,,,,,,,,,,,,,,,,,,,,,,,,,,,,,,,,,,,,,,,,,,,,,,
,,,,,,,,,,,,5f108fa8c5a6a7355ba78bbd,21,Kobieta,2022-06-11_09h25.32.575,task,2021.1.4,Win32,65.37229522,6299f149e92ead563fba08ef,62a4434402a1b988756fcdd1,,,,,,,,,,,,,7,"[""7""]",1,[5.934699999928512],"[7.1924999999999955,3.59699999999998,2.2643000000715006,2.109099999904629,1.7501000000237923,1.6377000000477437,5.197700000047689,1.7137999999522435,7.882199999928503,5.934699999928512]",0,9,9,7,1,Practice,8,(5x5) - 18,7,,,,,,,,,,,,,,,,,,,,,,,,,,,,,,,,,,,,,,,,,,,,,,,,,,,,,,,,,,,,,,,,,,,,,,,,,,,
,,,,,,,,,,,,5f108fa8c5a6a7355ba78bbd,21,Kobieta,2022-06-11_09h25.32.575,task,2021.1.4,Win32,65.37229522,6299f149e92ead563fba08ef,62a4434402a1b988756fcdd1,,,,,,,,,,,,,,,,,,,,,,,,,,,0.9,39.2791,2.618606667,70.15165301,2.16258569,8.198077747,space,4.7165,0,0,0,0,1,,,,,,,,,,,,,,,,,,,,,,,,,,,,,,,,,,,,,,,,,,,,,,,,,,,,,,,,,,,,,,
,,,,,,,,,,,,5f108fa8c5a6a7355ba78bbd,21,Kobieta,2022-06-11_09h25.32.575,task,2021.1.4,Win32,65.37229522,6299f149e92ead563fba08ef,62a4434402a1b988756fcdd1,,,,,,,,,,,,,0,,,,,,,,,,Practice,1,(3x3) -  9,0,,,,,,,,,,,,,,space,47.2369,"[""0""]",1,[3.020100000023831],1,0,0,0,0,1,,,,,,,,,,,,,,,,,,,,,,,,,,,,,,,,,,,,,,,,,,,,,,,,,,,
,,,,,,,,,,,X V Q F H G B L J M P D K C T S W R N Z,5f108fa8c5a6a7355ba78bbd,21,Kobieta,2022-06-11_09h25.32.575,task,2021.1.4,Win32,65.37229522,6299f149e92ead563fba08ef,62a4434402a1b988756fcdd1,,,,,,,,,,,,,,,,,,,,,,,,,,,,,,,,,,,,,,,,,,,,,,,,,,,0,0,0,0,1,,,,,,,,,,,,,,,,,,,,,,,,,,,,,,,,,,,,,,,,,,,,,,
,,,,,,,,,,,,5f108fa8c5a6a7355ba78bbd,21,Kobieta,2022-06-11_09h25.32.575,task,2021.1.4,Win32,65.37229522,6299f149e92ead563fba08ef,62a4434402a1b988756fcdd1,,,,,,,,,,,,,,,,,,,,,,,Practice,4,(8/4) + 1,3,,,,,,,,,,,,,,,,,0,,0,0,0,0,3,1,,,,,,,,,,,,,,,,,,,,,,,,,,,,,,,,,,,,,,,,,,,,,,,,,,,
,,,,,,,,,,,,5f108fa8c5a6a7355ba78bbd,21,Kobieta,2022-06-11_09h25.32.575,task,2021.1.4,Win32,65.37229522,6299f149e92ead563fba08ef,62a4434402a1b988756fcdd1,,,,,,,,,,,,,8,,,,,,,,,,Practice,9,(3x3) - 1,8,,,,,,,,,,,,,,,,"[""8""]",1,[1.8269999999999982],1,0,1,1,8,1,,,,,,,,,,,,,,,,,,,,,,,,,,,,,,,,,,,,,,,,,,,,,,,,,,,
,,,,,,,,,,,X V Q F H G B L J M P D K C T S W R N Z,5f108fa8c5a6a7355ba78bbd,21,Kobieta,2022-06-11_09h25.32.575,task,2021.1.4,Win32,65.37229522,6299f149e92ead563fba08ef,62a4434402a1b988756fcdd1,,,,,,,,,,,,,,,,,,,,,,,,,,,,,,,,,,,,,,,,,,,,,,,,,,,1,0,1,0,1,,,,,,,,,,,,,,,,,,,,,,,,,,,,,,,,,,,,,,,,,,,,,,
,,,,,,,,,,,,5f108fa8c5a6a7355ba78bbd,21,Kobieta,2022-06-11_09h25.32.575,task,2021.1.4,Win32,65.37229522,6299f149e92ead563fba08ef,62a4434402a1b988756fcdd1,,,,,,,,,,,,,,,,,,,,,,,,,,,,,,,,,,,,,,,,,,,,,,,,,,,,,,,,zw,"[""z"",""w""]",0,"[4.502699999928495,4.8745999999046035,5.985000000000014]",1,0,0,0,0,1,,,,,,,,,,,,,,,,,,,,,,,,,,,,,,,,,,,,
,,,,,,,,,,,,5f108fa8c5a6a7355ba78bbd,21,Kobieta,2022-06-11_09h25.32.575,task,2021.1.4,Win32,65.37229522,6299f149e92ead563fba08ef,62a4434402a1b988756fcdd1,,,,,,,,,,,,,4,,,,,,,,,,Practice,5,(2x6) - 8,4,,,,,,,,,,,,,,,,"[""4""]",1,[4.384600000023852],1,0,0,0,4,1,,,,,,,,,,,,,,,,,,,,,,,,,,,,,,,,,,,,,,,,,,,,,,,,,,,
,,,,,,,,,,,X V Q F H G B L J M P D K C T S W R N Z,5f108fa8c5a6a7355ba78bbd,21,Kobieta,2022-06-11_09h25.32.575,task,2021.1.4,Win32,65.37229522,6299f149e92ead563fba08ef,62a4434402a1b988756fcdd1,,,,,,,,,,,,,,,,,,,,,,,,,,,,,,,,,,,,,,,,,,,,,,,,,,,0,0,0,0,1,,,,,,,,,,,,,,,,,,,,,,,,,,,,,,,,,,,,,,,,,,,,,,
,,,,,,,,,,,,5f108fa8c5a6a7355ba78bbd,21,Kobieta,2022-06-11_09h25.32.575,task,2021.1.4,Win32,65.37229522,6299f149e92ead563fba08ef,62a4434402a1b988756fcdd1,,,,,,,,,,,,,2,,,,,,,,,,Practice,3,(4x4) - 14,2,,,,,,,,,,,,,,,,"[""2""]",1,[2.774499999999989],1,0,0,0,2,1,,,,,,,,,,,,,,,,,,,,,,,,,,,,,,,,,,,,,,,,,,,,,,,,,,,
,,,,,,,,,,,X V Q F H G B L J M P D K C T S W R N Z,5f108fa8c5a6a7355ba78bbd,21,Kobieta,2022-06-11_09h25.32.575,task,2021.1.4,Win32,65.37229522,6299f149e92ead563fba08ef,62a4434402a1b988756fcdd1,,,,,,,,,,,,,,,,,,,,,,,,,,,,,,,,,,,,,,,,,,,,,,,,,,,1,0,1,0,1,,,,,,,,,,,,,,,,,,,,,,,,,,,,,,,,,,,,,,,,,,,,,,
,,,,,,,,,,,,5f108fa8c5a6a7355ba78bbd,21,Kobieta,2022-06-11_09h25.32.575,task,2021.1.4,Win32,65.37229522,6299f149e92ead563fba08ef,62a4434402a1b988756fcdd1,,,,,,,,,,,,,,,,,,,,,,,,,,,,,,,,,,,,,,,,,,,,,,,,,,,,,,,,vz,"[""v"",""z""]",0,"[2.6913999999760563,3.5743999999760945,4.9041000000238455]",1,1,0,1,0,1,,,,,,,,,,,,,,,,,,,,,,,,,,,,,,,,,,,,
,,,,,,,,,,,,5f108fa8c5a6a7355ba78bbd,21,Kobieta,2022-06-11_09h25.32.575,task,2021.1.4,Win32,65.37229522,6299f149e92ead563fba08ef,62a4434402a1b988756fcdd1,,,,,,,,,,,,,0,,,,,,,,,,Practice,1,(3x3) -  9,0,,,,,,,,,,,,,,,,"[""0""]",1,[2.3876000000238946],1,0,0,0,0,1,,,,,,,,,,,,,,,,,,,,,,,,,,,,,,,,,,,,,,,,,,,,,,,,,,,
,,,,,,,,,,,X V Q F H G B L J M P D K C T S W R N Z,5f108fa8c5a6a7355ba78bbd,21,Kobieta,2022-06-11_09h25.32.575,task,2021.1.4,Win32,65.37229522,6299f149e92ead563fba08ef,62a4434402a1b988756fcdd1,,,,,,,,,,,,,,,,,,,,,,,,,,,,,,,,,,,,,,,,,,,,,,,,,,,0,0,0,0,1,,,,,,,,,,,,,,,,,,,,,,,,,,,,,,,,,,,,,,,,,,,,,,
,,,,,,,,,,,,5f108fa8c5a6a7355ba78bbd,21,Kobieta,2022-06-11_09h25.32.575,task,2021.1.4,Win32,65.37229522,6299f149e92ead563fba08ef,62a4434402a1b988756fcdd1,,,,,,,,,,,,,8,,,,,,,,,,Practice,9,(3x3) - 1,8,,,,,,,,,,,,,,,,"[""8""]",1,[2.5271999999284844],1,0,0,0,8,1,,,,,,,,,,,,,,,,,,,,,,,,,,,,,,,,,,,,,,,,,,,,,,,,,,,
,,,,,,,,,,,X V Q F H G B L J M P D K C T S W R N Z,5f108fa8c5a6a7355ba78bbd,21,Kobieta,2022-06-11_09h25.32.575,task,2021.1.4,Win32,65.37229522,6299f149e92ead563fba08ef,62a4434402a1b988756fcdd1,,,,,,,,,,,,,,,,,,,,,,,,,,,,,,,,,,,,,,,,,,,,,,,,,,,1,0,1,0,1,,,,,,,,,,,,,,,,,,,,,,,,,,,,,,,,,,,,,,,,,,,,,,
,,,,,,,,,,,,5f108fa8c5a6a7355ba78bbd,21,Kobieta,2022-06-11_09h25.32.575,task,2021.1.4,Win32,65.37229522,6299f149e92ead563fba08ef,62a4434402a1b988756fcdd1,,,,,,,,,,,,,,,,,,,,,,,,,,,,,,,,,,,,,,,,,,,,,,,,,,,,,,,,pt,"[""p"",""t""]",0,"[2.6692999999522726,3.1857999999522235,4.386699999928396]",1,2,0,2,0,1,,,,,,,,,,,,,,,,,,,,,,,,,,,,,,,,,,,,
,,,,,,,,,,,,5f108fa8c5a6a7355ba78bbd,21,Kobieta,2022-06-11_09h25.32.575,task,2021.1.4,Win32,65.37229522,6299f149e92ead563fba08ef,62a4434402a1b988756fcdd1,,,,,,,,,,,,,7,,,,,,,,,,Task,6,(12/2) + 1,7,,,,,,,,,,,,,,,,,,,1,,,,,,,,,,,,,,,,,,,,,space,43.6347,"[""7""]",1,[3.403699999928449],0,0,0,5,1,,,,,,,,,,,,,,,,,,,,,,,,,,
,,,,,,,,,,,X V Q F H G B L J M P D K C T S W R N Z,5f108fa8c5a6a7355ba78bbd,21,Kobieta,2022-06-11_09h25.32.575,task,2021.1.4,Win32,65.37229522,6299f149e92ead563fba08ef,62a4434402a1b988756fcdd1,,,,,,,,,,,,,,,,,,,,,,,,,,,,,,,,,,,,,,,,,,,,,,,,,,,,,,,,,,,,,,,,,,,,,,,,,,,,0,0,0,0,1,,,,,,,,,,,,,,,,,,,,,
,,,,,,,,,,,,5f108fa8c5a6a7355ba78bbd,21,Kobieta,2022-06-11_09h25.32.575,task,2021.1.4,Win32,65.37229522,6299f149e92ead563fba08ef,62a4434402a1b988756fcdd1,,,,,,,,,,,,,9,,,,,,,,,,Task,24,(2x2) + 5,9,,,,,,,,,,,,,,,,,,,1,,,,,,,,,,,,,,,,,,,,,,,"[""9""]",1,[2.3974999999999227],0,0,0,23,1,,,,,,,,,,,,,,,,,,,,,,,,,,
,,,,,,,,,,,X V Q F H G B L J M P D K C T S W R N Z,5f108fa8c5a6a7355ba78bbd,21,Kobieta,2022-06-11_09h25.32.575,task,2021.1.4,Win32,65.37229522,6299f149e92ead563fba08ef,62a4434402a1b988756fcdd1,,,,,,,,,,,,,,,,,,,,,,,,,,,,,,,,,,,,,,,,,,,,,,,,,,,,,,,,,,,,,,,,,,,,,,,,,,,,1,0,1,0,1,,,,,,,,,,,,,,,,,,,,,
,,,,,,,,,,,,5f108fa8c5a6a7355ba78bbd,21,Kobieta,2022-06-11_09h25.32.575,task,2021.1.4,Win32,65.37229522,6299f149e92ead563fba08ef,62a4434402a1b988756fcdd1,,,,,,,,,,,,,,,,,,,,,,,,,,,,,,,,,,,,,,,,,,,,,,,,,,,,,,,,,,,,,,,,,,,,,,,,,,,,,,,,,zw,"[""z"",""w""]",0,"[2.1506000000239283,2.350399999976162,3.250899999976241]",1,ZW,0,0,0,0,1,,,,,,,,,,
,,,,,,,,,,,,5f108fa8c5a6a7355ba78bbd,21,Kobieta,2022-06-11_09h25.32.575,task,2021.1.4,Win32,65.37229522,6299f149e92ead563fba08ef,62a4434402a1b988756fcdd1,,,,,,,,,,,,,9,,,,,,,,,,Task,40,(7x2) - 5,9,,,,,,,,,,,,,,,,,,,1,,,,,,,,,,,,,,,,,,,,,,,"[""9""]",1,[4.401699999928496],0,0,0,39,1,,,,,,,,,,,,,,,,,,,,,,,,,,
,,,,,,,,,,,X V Q F H G B L J M P D K C T S W R N Z,5f108fa8c5a6a7355ba78bbd,21,Kobieta,2022-06-11_09h25.32.575,task,2021.1.4,Win32,65.37229522,6299f149e92ead563fba08ef,62a4434402a1b988756fcdd1,,,,,,,,,,,,,,,,,,,,,,,,,,,,,,,,,,,,,,,,,,,,,,,,,,,,,,,,,,,,,,,,,,,,,,,,,,,,0,0,0,0,1,,,,,,,,,,,,,,,,,,,,,
,,,,,,,,,,,,5f108fa8c5a6a7355ba78bbd,21,Kobieta,2022-06-11_09h25.32.575,task,2021.1.4,Win32,65.37229522,6299f149e92ead563fba08ef,62a4434402a1b988756fcdd1,,,,,,,,,,,,,0,,,,,,,,,,Task,17,(2x3) - 6,0,,,,,,,,,,,,,,,,,,,1,,,,,,,,,,,,,,,,,,,,,,,"[""0""]",1,[2.5287000000477065],0,0,0,16,1,,,,,,,,,,,,,,,,,,,,,,,,,,
,,,,,,,,,,,X V Q F H G B L J M P D K C T S W R N Z,5f108fa8c5a6a7355ba78bbd,21,Kobieta,2022-06-11_09h25.32.575,task,2021.1.4,Win32,65.37229522,6299f149e92ead563fba08ef,62a4434402a1b988756fcdd1,,,,,,,,,,,,,,,,,,,,,,,,,,,,,,,,,,,,,,,,,,,,,,,,,,,,,,,,,,,,,,,,,,,,,,,,,,,,1,0,1,0,1,,,,,,,,,,,,,,,,,,,,,
,,,,,,,,,,,,5f108fa8c5a6a7355ba78bbd,21,Kobieta,2022-06-11_09h25.32.575,task,2021.1.4,Win32,65.37229522,6299f149e92ead563fba08ef,62a4434402a1b988756fcdd1,,,,,,,,,,,,,2,,,,,,,,,,Task,2,(2x2) - 2,2,,,,,,,,,,,,,,,,,,,1,,,,,,,,,,,,,,,,,,,,,,,"[""2""]",1,[3.7649000000953947],0,0,0,1,1,,,,,,,,,,,,,,,,,,,,,,,,,,
,,,,,,,,,,,X V Q F H G B L J M P D K C T S W R N Z,5f108fa8c5a6a7355ba78bbd,21,Kobieta,2022-06-11_09h25.32.575,task,2021.1.4,Win32,65.37229522,6299f149e92ead563fba08ef,62a4434402a1b988756fcdd1,,,,,,,,,,,,,,,,,,,,,,,,,,,,,,,,,,,,,,,,,,,,,,,,,,,,,,,,,,,,,,,,,,,,,,,,,,,,2,0,2,0,1,,,,,,,,,,,,,,,,,,,,,
,,,,,,,,,,,,5f108fa8c5a6a7355ba78bbd,21,Kobieta,2022-06-11_09h25.32.575,task,2021.1.4,Win32,65.37229522,6299f149e92ead563fba08ef,62a4434402a1b988756fcdd1,,,,,,,,,,,,,,,,,,,,,,,,,,,,,,,,,,,,,,,,,,,,,,,,,,,,,,,,,,,,,,,,,,,,,,,,,,,,,,,,,clk,"[""c"",""l"",""k""]",0,"[3.445799999952328,3.9522999999524018,4.13900000000001,4.92119999992849]",1,CLK,1,0,1,0,1,,,,,,,,,,
,,,,,,,,,,,,5f108fa8c5a6a7355ba78bbd,21,Kobieta,2022-06-11_09h25.32.575,task,2021.1.4,Win32,65.37229522,6299f149e92ead563fba08ef,62a4434402a1b988756fcdd1,,,,,,,,,,,,,5,,,,,,,,,,Task,12,(4x4) - 11,5,,,,,,,,,,,,,,,,,,,1,,,,,,,,,,,,,,,,,,,,,,,"[""5""]",1,[2.748299999952337],0,0,0,11,1,,,,,,,,,,,,,,,,,,,,,,,,,,
,,,,,,,,,,,X V Q F H G B L J M P D K C T S W R N Z,5f108fa8c5a6a7355ba78bbd,21,Kobieta,2022-06-11_09h25.32.575,task,2021.1.4,Win32,65.37229522,6299f149e92ead563fba08ef,62a4434402a1b988756fcdd1,,,,,,,,,,,,,,,,,,,,,,,,,,,,,,,,,,,,,,,,,,,,,,,,,,,,,,,,,,,,,,,,,,,,,,,,,,,,0,0,0,0,1,,,,,,,,,,,,,,,,,,,,,
,,,,,,,,,,,,5f108fa8c5a6a7355ba78bbd,21,Kobieta,2022-06-11_09h25.32.575,task,2021.1.4,Win32,65.37229522,6299f149e92ead563fba08ef,62a4434402a1b988756fcdd1,,,,,,,,,,,,,9,,,,,,,,,,Task,24,(2x2) + 5,9,,,,,,,,,,,,,,,,,,,1,,,,,,,,,,,,,,,,,,,,,,,"[""9""]",1,[3.033999999999992],0,0,0,23,1,,,,,,,,,,,,,,,,,,,,,,,,,,
,,,,,,,,,,,X V Q F H G B L J M P D K C T S W R N Z,5f108fa8c5a6a7355ba78bbd,21,Kobieta,2022-06-11_09h25.32.575,task,2021.1.4,Win32,65.37229522,6299f149e92ead563fba08ef,62a4434402a1b988756fcdd1,,,,,,,,,,,,,,,,,,,,,,,,,,,,,,,,,,,,,,,,,,,,,,,,,,,,,,,,,,,,,,,,,,,,,,,,,,,,1,0,1,0,1,,,,,,,,,,,,,,,,,,,,,
,,,,,,,,,,,,5f108fa8c5a6a7355ba78bbd,21,Kobieta,2022-06-11_09h25.32.575,task,2021.1.4,Win32,65.37229522,6299f149e92ead563fba08ef,62a4434402a1b988756fcdd1,,,,,,,,,,,,,1,,,,,,,,,,Task,9,(3x7) - 20,1,,,,,,,,,,,,,,,,,,,1,,,,,,,,,,,,,,,,,,,,,,,"[""1""]",1,[3.4299000000953583],0,0,0,8,1,,,,,,,,,,,,,,,,,,,,,,,,,,
,,,,,,,,,,,X V Q F H G B L J M P D K C T S W R N Z,5f108fa8c5a6a7355ba78bbd,21,Kobieta,2022-06-11_09h25.32.575,task,2021.1.4,Win32,65.37229522,6299f149e92ead563fba08ef,62a4434402a1b988756fcdd1,,,,,,,,,,,,,,,,,,,,,,,,,,,,,,,,,,,,,,,,,,,,,,,,,,,,,,,,,,,,,,,,,,,,,,,,,,,,2,0,2,0,1,,,,,,,,,,,,,,,,,,,,,
,,,,,,,,,,,,5f108fa8c5a6a7355ba78bbd,21,Kobieta,2022-06-11_09h25.32.575,task,2021.1.4,Win32,65.37229522,6299f149e92ead563fba08ef,62a4434402a1b988756fcdd1,,,,,,,,,,,,,5,,,,,,,,,,Task,22,(3x1) + 2,5,,,,,,,,,,,,,,,,,,,1,,,,,,,,,,,,,,,,,,,,,,,"[""5""]",1,[2.34699999999998],0,0,0,21,1,,,,,,,,,,,,,,,,,,,,,,,,,,
,,,,,,,,,,,X V Q F H G B L J M P D K C T S W R N Z,5f108fa8c5a6a7355ba78bbd,21,Kobieta,2022-06-11_09h25.32.575,task,2021.1.4,Win32,65.37229522,6299f149e92ead563fba08ef,62a4434402a1b988756fcdd1,,,,,,,,,,,,,,,,,,,,,,,,,,,,,,,,,,,,,,,,,,,,,,,,,,,,,,,,,,,,,,,,,,,,,,,,,,,,3,0,3,0,1,,,,,,,,,,,,,,,,,,,,,
,,,,,,,,,,,,5f108fa8c5a6a7355ba78bbd,21,Kobieta,2022-06-11_09h25.32.575,task,2021.1.4,Win32,65.37229522,6299f149e92ead563fba08ef,62a4434402a1b988756fcdd1,,,,,,,,,,,,,,,,,,,,,,,,,,,,,,,,,,,,,,,,,,,,,,,,,,,,,,,,,,,,,,,,,,,,,,,,,,,,,,,,,cclm,"[""c"",""c"",""l"",""m""]",0,"[1.9670999999046899,3.73989999997616,4.285699999928511,4.507199999928503,10.452299999952288]",0,CFLM,2,0,2,0,1,,,,,,,,,,
,,,,,,,,,,,,5f108fa8c5a6a7355ba78bbd,21,Kobieta,2022-06-11_09h25.32.575,task,2021.1.4,Win32,65.37229522,6299f149e92ead563fba08ef,62a4434402a1b988756fcdd1,,,,,,,,,,,,,8,,,,,,,,,,Task,15,(3x7) - 13,8,,,,,,,,,,,,,,,,,,,1,,,,,,,,,,,,,,,,,,,,,,,"[""8""]",1,[7.23599999999999],0,0,0,14,1,,,,,,,,,,,,,,,,,,,,,,,,,,
,,,,,,,,,,,X V Q F H G B L J M P D K C T S W R N Z,5f108fa8c5a6a7355ba78bbd,21,Kobieta,2022-06-11_09h25.32.575,task,2021.1.4,Win32,65.37229522,6299f149e92ead563fba08ef,62a4434402a1b988756fcdd1,,,,,,,,,,,,,,,,,,,,,,,,,,,,,,,,,,,,,,,,,,,,,,,,,,,,,,,,,,,,,,,,,,,,,,,,,,,,0,0,0,0,1,,,,,,,,,,,,,,,,,,,,,
,,,,,,,,,,,,5f108fa8c5a6a7355ba78bbd,21,Kobieta,2022-06-11_09h25.32.575,task,2021.1.4,Win32,65.37229522,6299f149e92ead563fba08ef,62a4434402a1b988756fcdd1,,,,,,,,,,,,,2,,,,,,,,,,Task,26,(2x9) - 16,2,,,,,,,,,,,,,,,,,,,1,,,,,,,,,,,,,,,,,,,,,,,"[""2""]",1,[3.814700000047651],0,0,0,25,1,,,,,,,,,,,,,,,,,,,,,,,,,,
,,,,,,,,,,,X V Q F H G B L J M P D K C T S W R N Z,5f108fa8c5a6a7355ba78bbd,21,Kobieta,2022-06-11_09h25.32.575,task,2021.1.4,Win32,65.37229522,6299f149e92ead563fba08ef,62a4434402a1b988756fcdd1,,,,,,,,,,,,,,,,,,,,,,,,,,,,,,,,,,,,,,,,,,,,,,,,,,,,,,,,,,,,,,,,,,,,,,,,,,,,1,0,1,0,1,,,,,,,,,,,,,,,,,,,,,
,,,,,,,,,,,,5f108fa8c5a6a7355ba78bbd,21,Kobieta,2022-06-11_09h25.32.575,task,2021.1.4,Win32,65.37229522,6299f149e92ead563fba08ef,62a4434402a1b988756fcdd1,,,,,,,,,,,,,7,,,,,,,,,,Task,31,(4/2) + 5,7,,,,,,,,,,,,,,,,,,,1,,,,,,,,,,,,,,,,,,,,,,,"[""7""]",1,[3.345199999928468],0,0,0,30,1,,,,,,,,,,,,,,,,,,,,,,,,,,
,,,,,,,,,,,X V Q F H G B L J M P D K C T S W R N Z,5f108fa8c5a6a7355ba78bbd,21,Kobieta,2022-06-11_09h25.32.575,task,2021.1.4,Win32,65.37229522,6299f149e92ead563fba08ef,62a4434402a1b988756fcdd1,,,,,,,,,,,,,,,,,,,,,,,,,,,,,,,,,,,,,,,,,,,,,,,,,,,,,,,,,,,,,,,,,,,,,,,,,,,,2,0,2,0,1,,,,,,,,,,,,,,,,,,,,,
,,,,,,,,,,,,5f108fa8c5a6a7355ba78bbd,21,Kobieta,2022-06-11_09h25.32.575,task,2021.1.4,Win32,65.37229522,6299f149e92ead563fba08ef,62a4434402a1b988756fcdd1,,,,,,,,,,,,,8,,,,,,,,,,Task,32,(8/2) + 4,8,,,,,,,,,,,,,,,,,,,1,,,,,,,,,,,,,,,,,,,,,,,"[""8""]",1,[3.8482999999522463],0,0,0,31,1,,,,,,,,,,,,,,,,,,,,,,,,,,
,,,,,,,,,,,X V Q F H G B L J M P D K C T S W R N Z,5f108fa8c5a6a7355ba78bbd,21,Kobieta,2022-06-11_09h25.32.575,task,2021.1.4,Win32,65.37229522,6299f149e92ead563fba08ef,62a4434402a1b988756fcdd1,,,,,,,,,,,,,,,,,,,,,,,,,,,,,,,,,,,,,,,,,,,,,,,,,,,,,,,,,,,,,,,,,,,,,,,,,,,,3,0,3,0,1,,,,,,,,,,,,,,,,,,,,,
,,,,,,,,,,,,5f108fa8c5a6a7355ba78bbd,21,Kobieta,2022-06-11_09h25.32.575,task,2021.1.4,Win32,65.37229522,6299f149e92ead563fba08ef,62a4434402a1b988756fcdd1,,,,,,,,,,,,,,,,,,,,,,,,,,,,,,,,,,,,,,,,,,,,,,,,,,,,,,,,,,,,,,,,,,,,,,,,,,,,,,,,,vzqx,"[""v"",""z"",""q"",""x""]",0,"[10.870400000095401,11.236700000047676,13.087600000023826,19.25720000004776,26.74980000007156]",1,VZQX,3,0,3,0,1,,,,,,,,,,
,,,,,,,,,,,,5f108fa8c5a6a7355ba78bbd,21,Kobieta,2022-06-11_09h25.32.575,task,2021.1.4,Win32,65.37229522,6299f149e92ead563fba08ef,62a4434402a1b988756fcdd1,,,,,,,,,,,,,7,,,,,,,,,,Task,6,(12/2) + 1,7,,,,,,,,,,,,,,,,,,,1,,,,,,,,,,,,,,,,,,,,,,,"[""7""]",1,[2.5733000000715265],0,0,0,5,1,,,,,,,,,,,,,,,,,,,,,,,,,,
,,,,,,,,,,,X V Q F H G B L J M P D K C T S W R N Z,5f108fa8c5a6a7355ba78bbd,21,Kobieta,2022-06-11_09h25.32.575,task,2021.1.4,Win32,65.37229522,6299f149e92ead563fba08ef,62a4434402a1b988756fcdd1,,,,,,,,,,,,,,,,,,,,,,,,,,,,,,,,,,,,,,,,,,,,,,,,,,,,,,,,,,,,,,,,,,,,,,,,,,,,0,0,0,0,1,,,,,,,,,,,,,,,,,,,,,
,,,,,,,,,,,,5f108fa8c5a6a7355ba78bbd,21,Kobieta,2022-06-11_09h25.32.575,task,2021.1.4,Win32,65.37229522,6299f149e92ead563fba08ef,62a4434402a1b988756fcdd1,,,,,,,,,,,,,1,,,,,,,,,,Task,34,(9/3) - 2,1,,,,,,,,,,,,,,,,,,,1,,,,,,,,,,,,,,,,,,,,,,,"[""1""]",1,[4.319600000023797],0,0,0,33,1,,,,,,,,,,,,,,,,,,,,,,,,,,
,,,,,,,,,,,X V Q F H G B L J M P D K C T S W R N Z,5f108fa8c5a6a7355ba78bbd,21,Kobieta,2022-06-11_09h25.32.575,task,2021.1.4,Win32,65.37229522,6299f149e92ead563fba08ef,62a4434402a1b988756fcdd1,,,,,,,,,,,,,,,,,,,,,,,,,,,,,,,,,,,,,,,,,,,,,,,,,,,,,,,,,,,,,,,,,,,,,,,,,,,,1,0,1,0,1,,,,,,,,,,,,,,,,,,,,,
,,,,,,,,,,,,5f108fa8c5a6a7355ba78bbd,21,Kobieta,2022-06-11_09h25.32.575,task,2021.1.4,Win32,65.37229522,6299f149e92ead563fba08ef,62a4434402a1b988756fcdd1,,,,,,,,,,,,,2,,,,,,,,,,Task,26,(2x9) - 16,2,,,,,,,,,,,,,,,,,,,1,,,,,,,,,,,,,,,,,,,,,,,"[""2""]",1,[2.657799999952317],0,0,0,25,1,,,,,,,,,,,,,,,,,,,,,,,,,,
,,,,,,,,,,,X V Q F H G B L J M P D K C T S W R N Z,5f108fa8c5a6a7355ba78bbd,21,Kobieta,2022-06-11_09h25.32.575,task,2021.1.4,Win32,65.37229522,6299f149e92ead563fba08ef,62a4434402a1b988756fcdd1,,,,,,,,,,,,,,,,,,,,,,,,,,,,,,,,,,,,,,,,,,,,,,,,,,,,,,,,,,,,,,,,,,,,,,,,,,,,2,0,2,0,1,,,,,,,,,,,,,,,,,,,,,
,,,,,,,,,,,,5f108fa8c5a6a7355ba78bbd,21,Kobieta,2022-06-11_09h25.32.575,task,2021.1.4,Win32,65.37229522,6299f149e92ead563fba08ef,62a4434402a1b988756fcdd1,,,,,,,,,,,,,7,,,,,,,,,,Task,6,(12/2) + 1,7,,,,,,,,,,,,,,,,,,,1,,,,,,,,,,,,,,,,,,,,,,,"[""7""]",1,[1.6657999999522417],0,0,0,5,1,,,,,,,,,,,,,,,,,,,,,,,,,,
,,,,,,,,,,,X V Q F H G B L J M P D K C T S W R N Z,5f108fa8c5a6a7355ba78bbd,21,Kobieta,2022-06-11_09h25.32.575,task,2021.1.4,Win32,65.37229522,6299f149e92ead563fba08ef,62a4434402a1b988756fcdd1,,,,,,,,,,,,,,,,,,,,,,,,,,,,,,,,,,,,,,,,,,,,,,,,,,,,,,,,,,,,,,,,,,,,,,,,,,,,3,0,3,0,1,,,,,,,,,,,,,,,,,,,,,
,,,,,,,,,,,,5f108fa8c5a6a7355ba78bbd,21,Kobieta,2022-06-11_09h25.32.575,task,2021.1.4,Win32,65.37229522,6299f149e92ead563fba08ef,62a4434402a1b988756fcdd1,,,,,,,,,,,,,5,,,,,,,,,,Task,29,(3x8) - 19 ,5,,,,,,,,,,,,,,,,,,,1,,,,,,,,,,,,,,,,,,,,,,,"[""5""]",1,[3.9517000000477083],0,0,0,28,1,,,,,,,,,,,,,,,,,,,,,,,,,,
,,,,,,,,,,,X V Q F H G B L J M P D K C T S W R N Z,5f108fa8c5a6a7355ba78bbd,21,Kobieta,2022-06-11_09h25.32.575,task,2021.1.4,Win32,65.37229522,6299f149e92ead563fba08ef,62a4434402a1b988756fcdd1,,,,,,,,,,,,,,,,,,,,,,,,,,,,,,,,,,,,,,,,,,,,,,,,,,,,,,,,,,,,,,,,,,,,,,,,,,,,4,0,4,0,1,,,,,,,,,,,,,,,,,,,,,
,,,,,,,,,,,,5f108fa8c5a6a7355ba78bbd,21,Kobieta,2022-06-11_09h25.32.575,task,2021.1.4,Win32,65.37229522,6299f149e92ead563fba08ef,62a4434402a1b988756fcdd1,,,,,,,,,,,,,,,,,,,,,,,,,,,,,,,,,,,,,,,,,,,,,,,,,,,,,,,,,,,,,,,,,,,,,,,,,,,,,,,,,hmfkq,"[""h"",""m"",""f"",""k"",""q""]",0,"[1.703300000071522,2.01340000009543,2.4460000000000264,2.9638000000716147,3.512400000095454,7.969600000023888]",1,HMFKQ,4,0,4,0,1,,,,,,,,,,
,,,,,,,,,,,,5f108fa8c5a6a7355ba78bbd,21,Kobieta,2022-06-11_09h25.32.575,task,2021.1.4,Win32,65.37229522,6299f149e92ead563fba08ef,62a4434402a1b988756fcdd1,,,,,,,,,,,,,8,,,,,,,,,,Task,39,(5x3) - 7,8,,,,,,,,,,,,,,,,,,,1,,,,,,,,,,,,,,,,,,,,,,,"[""8""]",1,[6.472499999999968],0,0,0,38,1,,,,,,,,,,,,,,,,,,,,,,,,,,
,,,,,,,,,,,X V Q F H G B L J M P D K C T S W R N Z,5f108fa8c5a6a7355ba78bbd,21,Kobieta,2022-06-11_09h25.32.575,task,2021.1.4,Win32,65.37229522,6299f149e92ead563fba08ef,62a4434402a1b988756fcdd1,,,,,,,,,,,,,,,,,,,,,,,,,,,,,,,,,,,,,,,,,,,,,,,,,,,,,,,,,,,,,,,,,,,,,,,,,,,,0,0,0,0,1,,,,,,,,,,,,,,,,,,,,,
,,,,,,,,,,,,5f108fa8c5a6a7355ba78bbd,21,Kobieta,2022-06-11_09h25.32.575,task,2021.1.4,Win32,65.37229522,6299f149e92ead563fba08ef,62a4434402a1b988756fcdd1,,,,,,,,,,,,,5,,,,,,,,,,Task,36,(8/4) + 3,5,,,,,,,,,,,,,,,,,,,1,,,,,,,,,,,,,,,,,,,,,,,"[""5""]",1,[3.021600000023909],0,0,0,35,1,,,,,,,,,,,,,,,,,,,,,,,,,,
,,,,,,,,,,,X V Q F H G B L J M P D K C T S W R N Z,5f108fa8c5a6a7355ba78bbd,21,Kobieta,2022-06-11_09h25.32.575,task,2021.1.4,Win32,65.37229522,6299f149e92ead563fba08ef,62a4434402a1b988756fcdd1,,,,,,,,,,,,,,,,,,,,,,,,,,,,,,,,,,,,,,,,,,,,,,,,,,,,,,,,,,,,,,,,,,,,,,,,,,,,1,0,1,0,1,,,,,,,,,,,,,,,,,,,,,
,,,,,,,,,,,,5f108fa8c5a6a7355ba78bbd,21,Kobieta,2022-06-11_09h25.32.575,task,2021.1.4,Win32,65.37229522,6299f149e92ead563fba08ef,62a4434402a1b988756fcdd1,,,,,,,,,,,,,1,,,,,,,,,,Task,9,(3x7) - 20,1,,,,,,,,,,,,,,,,,,,1,,,,,,,,,,,,,,,,,,,,,,,"[""1""]",1,[2.4802000000477165],0,0,0,8,1,,,,,,,,,,,,,,,,,,,,,,,,,,
,,,,,,,,,,,X V Q F H G B L J M P D K C T S W R N Z,5f108fa8c5a6a7355ba78bbd,21,Kobieta,2022-06-11_09h25.32.575,task,2021.1.4,Win32,65.37229522,6299f149e92ead563fba08ef,62a4434402a1b988756fcdd1,,,,,,,,,,,,,,,,,,,,,,,,,,,,,,,,,,,,,,,,,,,,,,,,,,,,,,,,,,,,,,,,,,,,,,,,,,,,2,0,2,0,1,,,,,,,,,,,,,,,,,,,,,
,,,,,,,,,,,,5f108fa8c5a6a7355ba78bbd,21,Kobieta,2022-06-11_09h25.32.575,task,2021.1.4,Win32,65.37229522,6299f149e92ead563fba08ef,62a4434402a1b988756fcdd1,,,,,,,,,,,,,,,,,,,,,,,Task,27,(3/3) + 2,3,,,,,,,,,,,,,,,,,,,0,,,,,,,,,,,,,,,,,,,,,,,,0,,0,0,0,26,1,,,,,,,,,,,,,,,,,,,,,,,,,,
,,,,,,,,,,,,5f108fa8c5a6a7355ba78bbd,21,Kobieta,2022-06-11_09h25.32.575,task,2021.1.4,Win32,65.37229522,6299f149e92ead563fba08ef,62a4434402a1b988756fcdd1,,,,,,,,,,,,,0,,,,,,,,,,Task,25,(10/5) - 2,0,,,,,,,,,,,,,,,,,,,1,,,,,,,,,,,,,,,,,,,,,,,"[""0""]",1,[5.236499999999978],0,1,1,24,1,,,,,,,,,,,,,,,,,,,,,,,,,,
,,,,,,,,,,,X V Q F H G B L J M P D K C T S W R N Z,5f108fa8c5a6a7355ba78bbd,21,Kobieta,2022-06-11_09h25.32.575,task,2021.1.4,Win32,65.37229522,6299f149e92ead563fba08ef,62a4434402a1b988756fcdd1,,,,,,,,,,,,,,,,,,,,,,,,,,,,,,,,,,,,,,,,,,,,,,,,,,,,,,,,,,,,,,,,,,,,,,,,,,,,3,0,3,0,1,,,,,,,,,,,,,,,,,,,,,
,,,,,,,,,,,,5f108fa8c5a6a7355ba78bbd,21,Kobieta,2022-06-11_09h25.32.575,task,2021.1.4,Win32,65.37229522,6299f149e92ead563fba08ef,62a4434402a1b988756fcdd1,,,,,,,,,,,,,3,,,,,,,,,,Task,3,(2x3) - 3,3,,,,,,,,,,,,,,,,,,,1,,,,,,,,,,,,,,,,,,,,,,,"[""3""]",1,[1.8968000000714937],0,0,0,2,1,,,,,,,,,,,,,,,,,,,,,,,,,,
,,,,,,,,,,,X V Q F H G B L J M P D K C T S W R N Z,5f108fa8c5a6a7355ba78bbd,21,Kobieta,2022-06-11_09h25.32.575,task,2021.1.4,Win32,65.37229522,6299f149e92ead563fba08ef,62a4434402a1b988756fcdd1,,,,,,,,,,,,,,,,,,,,,,,,,,,,,,,,,,,,,,,,,,,,,,,,,,,,,,,,,,,,,,,,,,,,,,,,,,,,4,0,4,0,1,,,,,,,,,,,,,,,,,,,,,
,,,,,,,,,,,,5f108fa8c5a6a7355ba78bbd,21,Kobieta,2022-06-11_09h25.32.575,task,2021.1.4,Win32,65.37229522,6299f149e92ead563fba08ef,62a4434402a1b988756fcdd1,,,,,,,,,,,,,0,,,,,,,,,,Task,17,(2x3) - 6,0,,,,,,,,,,,,,,,,,,,1,,,,,,,,,,,,,,,,,,,,,,,"[""0""]",1,[1.53839999997615],0,0,0,16,1,,,,,,,,,,,,,,,,,,,,,,,,,,
,,,,,,,,,,,X V Q F H G B L J M P D K C T S W R N Z,5f108fa8c5a6a7355ba78bbd,21,Kobieta,2022-06-11_09h25.32.575,task,2021.1.4,Win32,65.37229522,6299f149e92ead563fba08ef,62a4434402a1b988756fcdd1,,,,,,,,,,,,,,,,,,,,,,,,,,,,,,,,,,,,,,,,,,,,,,,,,,,,,,,,,,,,,,,,,,,,,,,,,,,,5,0,5,0,1,,,,,,,,,,,,,,,,,,,,,
,,,,,,,,,,,,5f108fa8c5a6a7355ba78bbd,21,Kobieta,2022-06-11_09h25.32.575,task,2021.1.4,Win32,65.37229522,6299f149e92ead563fba08ef,62a4434402a1b988756fcdd1,,,,,,,,,,,,,,,,,,,,,,,,,,,,,,,,,,,,,,,,,,,,,,,,,,,,,,,,,,,,,,,,,,,,,,,,,,,,,,,,,jgvgjp,"[""j"",""g"",""v"",""g"",""j"",""p""]",0,"[6.49249999999995,9.803699999928426,12.705899999976168,20.65289999997617,26.36919999992847,30.0986999999285,33.956899999976144]",1,JGVGJP,5,0,5,0,1,,,,,,,,,,
,,,,,,,,,,,,5f108fa8c5a6a7355ba78bbd,21,Kobieta,2022-06-11_09h25.32.575,task,2021.1.4,Win32,65.37229522,6299f149e92ead563fba08ef,62a4434402a1b988756fcdd1,,,,,,,,,,,,,,,,,,,,,,,Task,7,(3x7) - 12,9,,,,,,,,,,,,,,,,,,,0,,,,,,,,,,,,,,,,,,,,,,,,0,,0,0,0,6,1,,,,,,,,,,,,,,,,,,,,,,,,,,
,,,,,,,,,,,,5f108fa8c5a6a7355ba78bbd,21,Kobieta,2022-06-11_09h25.32.575,task,2021.1.4,Win32,65.37229522,6299f149e92ead563fba08ef,62a4434402a1b988756fcdd1,,,,,,,,,,,,,4,,,,,,,,,,Task,11,(18/3) - 2,4,,,,,,,,,,,,,,,,,,,1,,,,,,,,,,,,,,,,,,,,,,,"[""4""]",1,[6.185899999976186],0,1,1,10,1,,,,,,,,,,,,,,,,,,,,,,,,,,
,,,,,,,,,,,X V Q F H G B L J M P D K C T S W R N Z,5f108fa8c5a6a7355ba78bbd,21,Kobieta,2022-06-11_09h25.32.575,task,2021.1.4,Win32,65.37229522,6299f149e92ead563fba08ef,62a4434402a1b988756fcdd1,,,,,,,,,,,,,,,,,,,,,,,,,,,,,,,,,,,,,,,,,,,,,,,,,,,,,,,,,,,,,,,,,,,,,,,,,,,,0,0,0,0,1,,,,,,,,,,,,,,,,,,,,,
,,,,,,,,,,,,5f108fa8c5a6a7355ba78bbd,21,Kobieta,2022-06-11_09h25.32.575,task,2021.1.4,Win32,65.37229522,6299f149e92ead563fba08ef,62a4434402a1b988756fcdd1,,,,,,,,,,,,,6,,,,,,,,,,Task,37,(3/3) + 5,6,,,,,,,,,,,,,,,,,,,1,,,,,,,,,,,,,,,,,,,,,,,"[""6""]",1,[3.7357999999522917],0,0,0,36,1,,,,,,,,,,,,,,,,,,,,,,,,,,
,,,,,,,,,,,X V Q F H G B L J M P D K C T S W R N Z,5f108fa8c5a6a7355ba78bbd,21,Kobieta,2022-06-11_09h25.32.575,task,2021.1.4,Win32,65.37229522,6299f149e92ead563fba08ef,62a4434402a1b988756fcdd1,,,,,,,,,,,,,,,,,,,,,,,,,,,,,,,,,,,,,,,,,,,,,,,,,,,,,,,,,,,,,,,,,,,,,,,,,,,,1,0,1,0,1,,,,,,,,,,,,,,,,,,,,,
,,,,,,,,,,,,5f108fa8c5a6a7355ba78bbd,21,Kobieta,2022-06-11_09h25.32.575,task,2021.1.4,Win32,65.37229522,6299f149e92ead563fba08ef,62a4434402a1b988756fcdd1,,,,,,,,,,,,,7,,,,,,,,,,Task,30,(6/3) + 4 ,6,,,,,,,,,,,,,,,,,,,0,,,,,,,,,,,,,,,,,,,,,,,"[""7""]",0,[2.5998999999761736],0,0,0,29,1,,,,,,,,,,,,,,,,,,,,,,,,,,
,,,,,,,,,,,,5f108fa8c5a6a7355ba78bbd,21,Kobieta,2022-06-11_09h25.32.575,task,2021.1.4,Win32,65.37229522,6299f149e92ead563fba08ef,62a4434402a1b988756fcdd1,,,,,,,,,,,,,8,,,,,,,,,,Task,23,(2x3) + 2,8,,,,,,,,,,,,,,,,,,,1,,,,,,,,,,,,,,,,,,,,,,,"[""8""]",1,[5.148200000047723],0,1,1,22,1,,,,,,,,,,,,,,,,,,,,,,,,,,
,,,,,,,,,,,X V Q F H G B L J M P D K C T S W R N Z,5f108fa8c5a6a7355ba78bbd,21,Kobieta,2022-06-11_09h25.32.575,task,2021.1.4,Win32,65.37229522,6299f149e92ead563fba08ef,62a4434402a1b988756fcdd1,,,,,,,,,,,,,,,,,,,,,,,,,,,,,,,,,,,,,,,,,,,,,,,,,,,,,,,,,,,,,,,,,,,,,,,,,,,,2,0,2,0,1,,,,,,,,,,,,,,,,,,,,,
,,,,,,,,,,,,5f108fa8c5a6a7355ba78bbd,21,Kobieta,2022-06-11_09h25.32.575,task,2021.1.4,Win32,65.37229522,6299f149e92ead563fba08ef,62a4434402a1b988756fcdd1,,,,,,,,,,,,,0,,,,,,,,,,Task,17,(2x3) - 6,0,,,,,,,,,,,,,,,,,,,1,,,,,,,,,,,,,,,,,,,,,,,"[""0""]",1,[1.54950000000008],0,0,0,16,1,,,,,,,,,,,,,,,,,,,,,,,,,,
,,,,,,,,,,,X V Q F H G B L J M P D K C T S W R N Z,5f108fa8c5a6a7355ba78bbd,21,Kobieta,2022-06-11_09h25.32.575,task,2021.1.4,Win32,65.37229522,6299f149e92ead563fba08ef,62a4434402a1b988756fcdd1,,,,,,,,,,,,,,,,,,,,,,,,,,,,,,,,,,,,,,,,,,,,,,,,,,,,,,,,,,,,,,,,,,,,,,,,,,,,3,0,3,0,1,,,,,,,,,,,,,,,,,,,,,
,,,,,,,,,,,,5f108fa8c5a6a7355ba78bbd,21,Kobieta,2022-06-11_09h25.32.575,task,2021.1.4,Win32,65.37229522,6299f149e92ead563fba08ef,62a4434402a1b988756fcdd1,,,,,,,,,,,,,1,,,,,,,,,,Task,9,(3x7) - 20,1,,,,,,,,,,,,,,,,,,,1,,,,,,,,,,,,,,,,,,,,,,,"[""1""]",1,[2.068499999999972],0,0,0,8,1,,,,,,,,,,,,,,,,,,,,,,,,,,
,,,,,,,,,,,X V Q F H G B L J M P D K C T S W R N Z,5f108fa8c5a6a7355ba78bbd,21,Kobieta,2022-06-11_09h25.32.575,task,2021.1.4,Win32,65.37229522,6299f149e92ead563fba08ef,62a4434402a1b988756fcdd1,,,,,,,,,,,,,,,,,,,,,,,,,,,,,,,,,,,,,,,,,,,,,,,,,,,,,,,,,,,,,,,,,,,,,,,,,,,,4,0,4,0,1,,,,,,,,,,,,,,,,,,,,,
,,,,,,,,,,,,5f108fa8c5a6a7355ba78bbd,21,Kobieta,2022-06-11_09h25.32.575,task,2021.1.4,Win32,65.37229522,6299f149e92ead563fba08ef,62a4434402a1b988756fcdd1,,,,,,,,,,,,,0,,,,,,,,,,Task,8,(1x5) - 5,0,,,,,,,,,,,,,,,,,,,1,,,,,,,,,,,,,,,,,,,,,,,"[""0""]",1,[2.1881000000238373],0,0,0,7,1,,,,,,,,,,,,,,,,,,,,,,,,,,
,,,,,,,,,,,X V Q F H G B L J M P D K C T S W R N Z,5f108fa8c5a6a7355ba78bbd,21,Kobieta,2022-06-11_09h25.32.575,task,2021.1.4,Win32,65.37229522,6299f149e92ead563fba08ef,62a4434402a1b988756fcdd1,,,,,,,,,,,,,,,,,,,,,,,,,,,,,,,,,,,,,,,,,,,,,,,,,,,,,,,,,,,,,,,,,,,,,,,,,,,,5,0,5,0,1,,,,,,,,,,,,,,,,,,,,,
,,,,,,,,,,,,5f108fa8c5a6a7355ba78bbd,21,Kobieta,2022-06-11_09h25.32.575,task,2021.1.4,Win32,65.37229522,6299f149e92ead563fba08ef,62a4434402a1b988756fcdd1,,,,,,,,,,,,,6,,,,,,,,,,Task,37,(3/3) + 5,6,,,,,,,,,,,,,,,,,,,1,,,,,,,,,,,,,,,,,,,,,,,"[""6""]",1,[3.404100000023732],0,0,0,36,1,,,,,,,,,,,,,,,,,,,,,,,,,,
,,,,,,,,,,,X V Q F H G B L J M P D K C T S W R N Z,5f108fa8c5a6a7355ba78bbd,21,Kobieta,2022-06-11_09h25.32.575,task,2021.1.4,Win32,65.37229522,6299f149e92ead563fba08ef,62a4434402a1b988756fcdd1,,,,,,,,,,,,,,,,,,,,,,,,,,,,,,,,,,,,,,,,,,,,,,,,,,,,,,,,,,,,,,,,,,,,,,,,,,,,6,0,6,0,1,,,,,,,,,,,,,,,,,,,,,
,,,,,,,,,,,,5f108fa8c5a6a7355ba78bbd,21,Kobieta,2022-06-11_09h25.32.575,task,2021.1.4,Win32,65.37229522,6299f149e92ead563fba08ef,62a4434402a1b988756fcdd1,,,,,,,,,,,,,,,,,,,,,,,,,,,,,,,,,,,,,,,,,,,,,,,,,,,,,,,,,,,,,,,,,,,,,,,,,,,,,,,,,dwgcqj,"[""d"",""w"",""g"",""c"",""q"",""j""]",0,"[17.553400000095507,17.85349999999994,19.82270000004769,24.24880000007147,36.28540000009548,38.48070000004782,39.87699999999995]",0,MDWGCQJ,6,0,6,0,1,,,,,,,,,,
,,,,,,,,,,,,5f108fa8c5a6a7355ba78bbd,21,Kobieta,2022-06-11_09h25.32.575,task,2021.1.4,Win32,65.37229522,6299f149e92ead563fba08ef,62a4434402a1b988756fcdd1,,,,,,,,,,,,,7,,,,,,,,,,Task,38,(4x6) - 17,7,,,,,,,,,,,,,,,,,,,1,,,,,,,,,,,,,,,,,,,,,,,"[""7""]",1,[6.478899999976193],0,0,0,37,1,,,,,,,,,,,,,,,,,,,,,,,,,,
,,,,,,,,,,,X V Q F H G B L J M P D K C T S W R N Z,5f108fa8c5a6a7355ba78bbd,21,Kobieta,2022-06-11_09h25.32.575,task,2021.1.4,Win32,65.37229522,6299f149e92ead563fba08ef,62a4434402a1b988756fcdd1,,,,,,,,,,,,,,,,,,,,,,,,,,,,,,,,,,,,,,,,,,,,,,,,,,,,,,,,,,,,,,,,,,,,,,,,,,,,0,0,0,0,1,,,,,,,,,,,,,,,,,,,,,
,,,,,,,,,,,,5f108fa8c5a6a7355ba78bbd,21,Kobieta,2022-06-11_09h25.32.575,task,2021.1.4,Win32,65.37229522,6299f149e92ead563fba08ef,62a4434402a1b988756fcdd1,,,,,,,,,,,,,7,,,,,,,,,,Task,6,(12/2) + 1,7,,,,,,,,,,,,,,,,,,,1,,,,,,,,,,,,,,,,,,,,,,,"[""7""]",1,[3.11489999997616],0,0,0,5,1,,,,,,,,,,,,,,,,,,,,,,,,,,
,,,,,,,,,,,X V Q F H G B L J M P D K C T S W R N Z,5f108fa8c5a6a7355ba78bbd,21,Kobieta,2022-06-11_09h25.32.575,task,2021.1.4,Win32,65.37229522,6299f149e92ead563fba08ef,62a4434402a1b988756fcdd1,,,,,,,,,,,,,,,,,,,,,,,,,,,,,,,,,,,,,,,,,,,,,,,,,,,,,,,,,,,,,,,,,,,,,,,,,,,,1,0,1,0,1,,,,,,,,,,,,,,,,,,,,,
,,,,,,,,,,,,5f108fa8c5a6a7355ba78bbd,21,Kobieta,2022-06-11_09h25.32.575,task,2021.1.4,Win32,65.37229522,6299f149e92ead563fba08ef,62a4434402a1b988756fcdd1,,,,,,,,,,,,,9,,,,,,,,,,Task,7,(3x7) - 12,9,,,,,,,,,,,,,,,,,,,1,,,,,,,,,,,,,,,,,,,,,,,"[""9""]",1,[5.563499999999976],0,0,0,6,1,,,,,,,,,,,,,,,,,,,,,,,,,,
,,,,,,,,,,,X V Q F H G B L J M P D K C T S W R N Z,5f108fa8c5a6a7355ba78bbd,21,Kobieta,2022-06-11_09h25.32.575,task,2021.1.4,Win32,65.37229522,6299f149e92ead563fba08ef,62a4434402a1b988756fcdd1,,,,,,,,,,,,,,,,,,,,,,,,,,,,,,,,,,,,,,,,,,,,,,,,,,,,,,,,,,,,,,,,,,,,,,,,,,,,2,0,2,0,1,,,,,,,,,,,,,,,,,,,,,
,,,,,,,,,,,,5f108fa8c5a6a7355ba78bbd,21,Kobieta,2022-06-11_09h25.32.575,task,2021.1.4,Win32,65.37229522,6299f149e92ead563fba08ef,62a4434402a1b988756fcdd1,,,,,,,,,,,,,7,,,,,,,,,,Task,31,(4/2) + 5,7,,,,,,,,,,,,,,,,,,,1,,,,,,,,,,,,,,,,,,,,,,,"[""7""]",1,[3.49220000004766],0,0,0,30,1,,,,,,,,,,,,,,,,,,,,,,,,,,
,,,,,,,,,,,X V Q F H G B L J M P D K C T S W R N Z,5f108fa8c5a6a7355ba78bbd,21,Kobieta,2022-06-11_09h25.32.575,task,2021.1.4,Win32,65.37229522,6299f149e92ead563fba08ef,62a4434402a1b988756fcdd1,,,,,,,,,,,,,,,,,,,,,,,,,,,,,,,,,,,,,,,,,,,,,,,,,,,,,,,,,,,,,,,,,,,,,,,,,,,,3,0,3,0,1,,,,,,,,,,,,,,,,,,,,,
,,,,,,,,,,,,5f108fa8c5a6a7355ba78bbd,21,Kobieta,2022-06-11_09h25.32.575,task,2021.1.4,Win32,65.37229522,6299f149e92ead563fba08ef,62a4434402a1b988756fcdd1,,,,,,,,,,,,,1,,,,,,,,,,Task,34,(9/3) - 2,1,,,,,,,,,,,,,,,,,,,1,,,,,,,,,,,,,,,,,,,,,,,"[""1""]",1,[3.446199999928467],0,0,0,33,1,,,,,,,,,,,,,,,,,,,,,,,,,,
,,,,,,,,,,,X V Q F H G B L J M P D K C T S W R N Z,5f108fa8c5a6a7355ba78bbd,21,Kobieta,2022-06-11_09h25.32.575,task,2021.1.4,Win32,65.37229522,6299f149e92ead563fba08ef,62a4434402a1b988756fcdd1,,,,,,,,,,,,,,,,,,,,,,,,,,,,,,,,,,,,,,,,,,,,,,,,,,,,,,,,,,,,,,,,,,,,,,,,,,,,4,0,4,0,1,,,,,,,,,,,,,,,,,,,,,
,,,,,,,,,,,,5f108fa8c5a6a7355ba78bbd,21,Kobieta,2022-06-11_09h25.32.575,task,2021.1.4,Win32,65.37229522,6299f149e92ead563fba08ef,62a4434402a1b988756fcdd1,,,,,,,,,,,,,8,,,,,,,,,,Task,23,(2x3) + 2,8,,,,,,,,,,,,,,,,,,,1,,,,,,,,,,,,,,,,,,,,,,,"[""8""]",1,[3.6478999999760617],0,0,0,22,1,,,,,,,,,,,,,,,,,,,,,,,,,,
,,,,,,,,,,,X V Q F H G B L J M P D K C T S W R N Z,5f108fa8c5a6a7355ba78bbd,21,Kobieta,2022-06-11_09h25.32.575,task,2021.1.4,Win32,65.37229522,6299f149e92ead563fba08ef,62a4434402a1b988756fcdd1,,,,,,,,,,,,,,,,,,,,,,,,,,,,,,,,,,,,,,,,,,,,,,,,,,,,,,,,,,,,,,,,,,,,,,,,,,,,5,0,5,0,1,,,,,,,,,,,,,,,,,,,,,
,,,,,,,,,,,,5f108fa8c5a6a7355ba78bbd,21,Kobieta,2022-06-11_09h25.32.575,task,2021.1.4,Win32,65.37229522,6299f149e92ead563fba08ef,62a4434402a1b988756fcdd1,,,,,,,,,,,,,9,,,,,,,,,,Task,24,(2x2) + 5,9,,,,,,,,,,,,,,,,,,,1,,,,,,,,,,,,,,,,,,,,,,,"[""9""]",1,[2.7513999999760017],0,0,0,23,1,,,,,,,,,,,,,,,,,,,,,,,,,,
,,,,,,,,,,,X V Q F H G B L J M P D K C T S W R N Z,5f108fa8c5a6a7355ba78bbd,21,Kobieta,2022-06-11_09h25.32.575,task,2021.1.4,Win32,65.37229522,6299f149e92ead563fba08ef,62a4434402a1b988756fcdd1,,,,,,,,,,,,,,,,,,,,,,,,,,,,,,,,,,,,,,,,,,,,,,,,,,,,,,,,,,,,,,,,,,,,,,,,,,,,6,0,6,0,1,,,,,,,,,,,,,,,,,,,,,
,,,,,,,,,,,,5f108fa8c5a6a7355ba78bbd,21,Kobieta,2022-06-11_09h25.32.575,task,2021.1.4,Win32,65.37229522,6299f149e92ead563fba08ef,62a4434402a1b988756fcdd1,,,,,,,,,,,,,,,,,,,,,,,,,,,,,,,,,,,,,,,,,,,,,,,,,,,,,,,,,,,,,,,,,,,,,,,,,,,,,,,,,sfqlwmc,"[""s"",""f"",""q"",""l"",""w"",""m"",""c""]",0,"[6.348500000000058,7.638399999976173,11.58529999995244,12.281100000023798,14.323000000000093,15.285700000047655,22.19600000000014,26.83060000002388]",1,SFQLWMC,7,0,7,0,1,,,,,,,,,,
,,,,,,,,,,,,5f108fa8c5a6a7355ba78bbd,21,Kobieta,2022-06-11_09h25.32.575,task,2021.1.4,Win32,65.37229522,6299f149e92ead563fba08ef,62a4434402a1b988756fcdd1,,,,,,,,,,,,,2,,,,,,,,,,Task,2,(2x2) - 2,2,,,,,,,,,,,,,,,,,,,1,,,,,,,,,,,,,,,,,,,,,,,"[""2""]",1,[2.1538000000716693],0,0,0,1,1,,,,,,,,,,,,,,,,,,,,,,,,,,
,,,,,,,,,,,X V Q F H G B L J M P D K C T S W R N Z,5f108fa8c5a6a7355ba78bbd,21,Kobieta,2022-06-11_09h25.32.575,task,2021.1.4,Win32,65.37229522,6299f149e92ead563fba08ef,62a4434402a1b988756fcdd1,,,,,,,,,,,,,,,,,,,,,,,,,,,,,,,,,,,,,,,,,,,,,,,,,,,,,,,,,,,,,,,,,,,,,,,,,,,,0,0,0,0,1,,,,,,,,,,,,,,,,,,,,,
,,,,,,,,,,,,5f108fa8c5a6a7355ba78bbd,21,Kobieta,2022-06-11_09h25.32.575,task,2021.1.4,Win32,65.37229522,6299f149e92ead563fba08ef,62a4434402a1b988756fcdd1,,,,,,,,,,,,,3,,,,,,,,,,Task,20,(18/9) + 1,3,,,,,,,,,,,,,,,,,,,1,,,,,,,,,,,,,,,,,,,,,,,"[""3""]",1,[3.2905999999045434],0,0,0,19,1,,,,,,,,,,,,,,,,,,,,,,,,,,
,,,,,,,,,,,X V Q F H G B L J M P D K C T S W R N Z,5f108fa8c5a6a7355ba78bbd,21,Kobieta,2022-06-11_09h25.32.575,task,2021.1.4,Win32,65.37229522,6299f149e92ead563fba08ef,62a4434402a1b988756fcdd1,,,,,,,,,,,,,,,,,,,,,,,,,,,,,,,,,,,,,,,,,,,,,,,,,,,,,,,,,,,,,,,,,,,,,,,,,,,,1,0,1,0,1,,,,,,,,,,,,,,,,,,,,,
,,,,,,,,,,,,5f108fa8c5a6a7355ba78bbd,21,Kobieta,2022-06-11_09h25.32.575,task,2021.1.4,Win32,65.37229522,6299f149e92ead563fba08ef,62a4434402a1b988756fcdd1,,,,,,,,,,,,,3,,,,,,,,,,Task,27,(3/3) + 2,3,,,,,,,,,,,,,,,,,,,1,,,,,,,,,,,,,,,,,,,,,,,"[""3""]",1,[2.0957000000478274],0,0,0,26,1,,,,,,,,,,,,,,,,,,,,,,,,,,
,,,,,,,,,,,X V Q F H G B L J M P D K C T S W R N Z,5f108fa8c5a6a7355ba78bbd,21,Kobieta,2022-06-11_09h25.32.575,task,2021.1.4,Win32,65.37229522,6299f149e92ead563fba08ef,62a4434402a1b988756fcdd1,,,,,,,,,,,,,,,,,,,,,,,,,,,,,,,,,,,,,,,,,,,,,,,,,,,,,,,,,,,,,,,,,,,,,,,,,,,,2,0,2,0,1,,,,,,,,,,,,,,,,,,,,,
,,,,,,,,,,,,5f108fa8c5a6a7355ba78bbd,21,Kobieta,2022-06-11_09h25.32.575,task,2021.1.4,Win32,65.37229522,6299f149e92ead563fba08ef,62a4434402a1b988756fcdd1,,,,,,,,,,,,,0,,,,,,,,,,Task,33,(1/1) - 1,0,,,,,,,,,,,,,,,,,,,1,,,,,,,,,,,,,,,,,,,,,,,"[""0""]",1,[3.316299999952207],0,0,0,32,1,,,,,,,,,,,,,,,,,,,,,,,,,,
,,,,,,,,,,,X V Q F H G B L J M P D K C T S W R N Z,5f108fa8c5a6a7355ba78bbd,21,Kobieta,2022-06-11_09h25.32.575,task,2021.1.4,Win32,65.37229522,6299f149e92ead563fba08ef,62a4434402a1b988756fcdd1,,,,,,,,,,,,,,,,,,,,,,,,,,,,,,,,,,,,,,,,,,,,,,,,,,,,,,,,,,,,,,,,,,,,,,,,,,,,3,0,3,0,1,,,,,,,,,,,,,,,,,,,,,
,,,,,,,,,,,,5f108fa8c5a6a7355ba78bbd,21,Kobieta,2022-06-11_09h25.32.575,task,2021.1.4,Win32,65.37229522,6299f149e92ead563fba08ef,62a4434402a1b988756fcdd1,,,,,,,,,,,,,5,,,,,,,,,,Task,22,(3x1) + 2,5,,,,,,,,,,,,,,,,,,,1,,,,,,,,,,,,,,,,,,,,,,,"[""5""]",1,[2.2186999999285035],0,0,0,21,1,,,,,,,,,,,,,,,,,,,,,,,,,,
,,,,,,,,,,,X V Q F H G B L J M P D K C T S W R N Z,5f108fa8c5a6a7355ba78bbd,21,Kobieta,2022-06-11_09h25.32.575,task,2021.1.4,Win32,65.37229522,6299f149e92ead563fba08ef,62a4434402a1b988756fcdd1,,,,,,,,,,,,,,,,,,,,,,,,,,,,,,,,,,,,,,,,,,,,,,,,,,,,,,,,,,,,,,,,,,,,,,,,,,,,4,0,4,0,1,,,,,,,,,,,,,,,,,,,,,
,,,,,,,,,,,,5f108fa8c5a6a7355ba78bbd,21,Kobieta,2022-06-11_09h25.32.575,task,2021.1.4,Win32,65.37229522,6299f149e92ead563fba08ef,62a4434402a1b988756fcdd1,,,,,,,,,,,,,2,,,,,,,,,,Task,10,(2x5) - 8,2,,,,,,,,,,,,,,,,,,,1,,,,,,,,,,,,,,,,,,,,,,,"[""2""]",1,[1.882100000023911],0,0,0,9,1,,,,,,,,,,,,,,,,,,,,,,,,,,
,,,,,,,,,,,X V Q F H G B L J M P D K C T S W R N Z,5f108fa8c5a6a7355ba78bbd,21,Kobieta,2022-06-11_09h25.32.575,task,2021.1.4,Win32,65.37229522,6299f149e92ead563fba08ef,62a4434402a1b988756fcdd1,,,,,,,,,,,,,,,,,,,,,,,,,,,,,,,,,,,,,,,,,,,,,,,,,,,,,,,,,,,,,,,,,,,,,,,,,,,,5,0,5,0,1,,,,,,,,,,,,,,,,,,,,,
,,,,,,,,,,,,5f108fa8c5a6a7355ba78bbd,21,Kobieta,2022-06-11_09h25.32.575,task,2021.1.4,Win32,65.37229522,6299f149e92ead563fba08ef,62a4434402a1b988756fcdd1,,,,,,,,,,,,,3,,,,,,,,,,Task,35,(1x2) + 1,3,,,,,,,,,,,,,,,,,,,1,,,,,,,,,,,,,,,,,,,,,,,"[""3""]",1,[2.0715000000000146],0,0,0,34,1,,,,,,,,,,,,,,,,,,,,,,,,,,
,,,,,,,,,,,X V Q F H G B L J M P D K C T S W R N Z,5f108fa8c5a6a7355ba78bbd,21,Kobieta,2022-06-11_09h25.32.575,task,2021.1.4,Win32,65.37229522,6299f149e92ead563fba08ef,62a4434402a1b988756fcdd1,,,,,,,,,,,,,,,,,,,,,,,,,,,,,,,,,,,,,,,,,,,,,,,,,,,,,,,,,,,,,,,,,,,,,,,,,,,,6,0,6,0,1,,,,,,,,,,,,,,,,,,,,,
,,,,,,,,,,,,5f108fa8c5a6a7355ba78bbd,21,Kobieta,2022-06-11_09h25.32.575,task,2021.1.4,Win32,65.37229522,6299f149e92ead563fba08ef,62a4434402a1b988756fcdd1,,,,,,,,,,,,,8,,,,,,,,,,Task,15,(3x7) - 13,8,,,,,,,,,,,,,,,,,,,1,,,,,,,,,,,,,,,,,,,,,,,"[""8""]",1,[3.878500000000031],0,0,0,14,1,,,,,,,,,,,,,,,,,,,,,,,,,,
,,,,,,,,,,,X V Q F H G B L J M P D K C T S W R N Z,5f108fa8c5a6a7355ba78bbd,21,Kobieta,2022-06-11_09h25.32.575,task,2021.1.4,Win32,65.37229522,6299f149e92ead563fba08ef,62a4434402a1b988756fcdd1,,,,,,,,,,,,,,,,,,,,,,,,,,,,,,,,,,,,,,,,,,,,,,,,,,,,,,,,,,,,,,,,,,,,,,,,,,,,7,0,7,0,1,,,,,,,,,,,,,,,,,,,,,
,,,,,,,,,,,,5f108fa8c5a6a7355ba78bbd,21,Kobieta,2022-06-11_09h25.32.575,task,2021.1.4,Win32,65.37229522,6299f149e92ead563fba08ef,62a4434402a1b988756fcdd1,,,,,,,,,,,,,,,,,,,,,,,,,,,,,,,,,,,,,,,,,,,,,,,,,,,,,,,,,,,,,,,,,,,,,,,,,,,,,,,,,qhdsfzww,"[""q"",""h"",""d"",""s"",""f"",""z"",""w"",""w""]",0,"[4.702600000023722,5.321399999976165,15.381200000047556,18.58560000002376,23.38639999997622,28.91960000002382,29.486499999999978,34.50360000002388,44.08629999995219]",0,QHDSTZWW,8,0,8,0,1,,,,,,,,,,
,,,,,,,,,,,,5f108fa8c5a6a7355ba78bbd,21,Kobieta,2022-06-11_09h25.32.575,task,2021.1.4,Win32,65.37229522,6299f149e92ead563fba08ef,62a4434402a1b988756fcdd1,,,,,,,,,,,,,4,,,,,,,,,,Task,21,(10/2) - 1,4,,,,,,,,,,,,,,,,,,,1,,,,,,,,,,,,,,,,,,,,,,,"[""4""]",1,[3.3113999999761745],0,0,0,20,1,,,,,,,,,,,,,,,,,,,,,,,,,,
,,,,,,,,,,,X V Q F H G B L J M P D K C T S W R N Z,5f108fa8c5a6a7355ba78bbd,21,Kobieta,2022-06-11_09h25.32.575,task,2021.1.4,Win32,65.37229522,6299f149e92ead563fba08ef,62a4434402a1b988756fcdd1,,,,,,,,,,,,,,,,,,,,,,,,,,,,,,,,,,,,,,,,,,,,,,,,,,,,,,,,,,,,,,,,,,,,,,,,,,,,0,0,0,0,1,,,,,,,,,,,,,,,,,,,,,
,,,,,,,,,,,,5f108fa8c5a6a7355ba78bbd,21,Kobieta,2022-06-11_09h25.32.575,task,2021.1.4,Win32,65.37229522,6299f149e92ead563fba08ef,62a4434402a1b988756fcdd1,,,,,,,,,,,,,0,,,,,,,,,,Task,25,(10/5) - 2,0,,,,,,,,,,,,,,,,,,,1,,,,,,,,,,,,,,,,,,,,,,,"[""0""]",1,[4.214599999904749],0,0,0,24,1,,,,,,,,,,,,,,,,,,,,,,,,,,
,,,,,,,,,,,X V Q F H G B L J M P D K C T S W R N Z,5f108fa8c5a6a7355ba78bbd,21,Kobieta,2022-06-11_09h25.32.575,task,2021.1.4,Win32,65.37229522,6299f149e92ead563fba08ef,62a4434402a1b988756fcdd1,,,,,,,,,,,,,,,,,,,,,,,,,,,,,,,,,,,,,,,,,,,,,,,,,,,,,,,,,,,,,,,,,,,,,,,,,,,,1,0,1,0,1,,,,,,,,,,,,,,,,,,,,,
,,,,,,,,,,,,5f108fa8c5a6a7355ba78bbd,21,Kobieta,2022-06-11_09h25.32.575,task,2021.1.4,Win32,65.37229522,6299f149e92ead563fba08ef,62a4434402a1b988756fcdd1,,,,,,,,,,,,,6,,,,,,,,,,Task,13,(3x4) - 6,6,,,,,,,,,,,,,,,,,,,1,,,,,,,,,,,,,,,,,,,,,,,"[""6""]",1,[2.4811000000238437],0,0,0,12,1,,,,,,,,,,,,,,,,,,,,,,,,,,
,,,,,,,,,,,X V Q F H G B L J M P D K C T S W R N Z,5f108fa8c5a6a7355ba78bbd,21,Kobieta,2022-06-11_09h25.32.575,task,2021.1.4,Win32,65.37229522,6299f149e92ead563fba08ef,62a4434402a1b988756fcdd1,,,,,,,,,,,,,,,,,,,,,,,,,,,,,,,,,,,,,,,,,,,,,,,,,,,,,,,,,,,,,,,,,,,,,,,,,,,,2,0,2,0,1,,,,,,,,,,,,,,,,,,,,,
,,,,,,,,,,,,5f108fa8c5a6a7355ba78bbd,21,Kobieta,2022-06-11_09h25.32.575,task,2021.1.4,Win32,65.37229522,6299f149e92ead563fba08ef,62a4434402a1b988756fcdd1,,,,,,,,,,,,,9,,,,,,,,,,Task,40,(7x2) - 5,9,,,,,,,,,,,,,,,,,,,1,,,,,,,,,,,,,,,,,,,,,,,"[""9""]",1,[3.395100000023831],0,0,0,39,1,,,,,,,,,,,,,,,,,,,,,,,,,,
,,,,,,,,,,,X V Q F H G B L J M P D K C T S W R N Z,5f108fa8c5a6a7355ba78bbd,21,Kobieta,2022-06-11_09h25.32.575,task,2021.1.4,Win32,65.37229522,6299f149e92ead563fba08ef,62a4434402a1b988756fcdd1,,,,,,,,,,,,,,,,,,,,,,,,,,,,,,,,,,,,,,,,,,,,,,,,,,,,,,,,,,,,,,,,,,,,,,,,,,,,3,0,3,0,1,,,,,,,,,,,,,,,,,,,,,
,,,,,,,,,,,,5f108fa8c5a6a7355ba78bbd,21,Kobieta,2022-06-11_09h25.32.575,task,2021.1.4,Win32,65.37229522,6299f149e92ead563fba08ef,62a4434402a1b988756fcdd1,,,,,,,,,,,,,3,,,,,,,,,,Task,27,(3/3) + 2,3,,,,,,,,,,,,,,,,,,,1,,,,,,,,,,,,,,,,,,,,,,,"[""3""]",1,[2.3980000000001382],0,0,0,26,1,,,,,,,,,,,,,,,,,,,,,,,,,,
,,,,,,,,,,,X V Q F H G B L J M P D K C T S W R N Z,5f108fa8c5a6a7355ba78bbd,21,Kobieta,2022-06-11_09h25.32.575,task,2021.1.4,Win32,65.37229522,6299f149e92ead563fba08ef,62a4434402a1b988756fcdd1,,,,,,,,,,,,,,,,,,,,,,,,,,,,,,,,,,,,,,,,,,,,,,,,,,,,,,,,,,,,,,,,,,,,,,,,,,,,4,0,4,0,1,,,,,,,,,,,,,,,,,,,,,
,,,,,,,,,,,,5f108fa8c5a6a7355ba78bbd,21,Kobieta,2022-06-11_09h25.32.575,task,2021.1.4,Win32,65.37229522,6299f149e92ead563fba08ef,62a4434402a1b988756fcdd1,,,,,,,,,,,,,1,,,,,,,,,,Task,18,(16/4) - 3,1,,,,,,,,,,,,,,,,,,,1,,,,,,,,,,,,,,,,,,,,,,,"[""1""]",1,[3.1647999999522654],0,0,0,17,1,,,,,,,,,,,,,,,,,,,,,,,,,,
,,,,,,,,,,,X V Q F H G B L J M P D K C T S W R N Z,5f108fa8c5a6a7355ba78bbd,21,Kobieta,2022-06-11_09h25.32.575,task,2021.1.4,Win32,65.37229522,6299f149e92ead563fba08ef,62a4434402a1b988756fcdd1,,,,,,,,,,,,,,,,,,,,,,,,,,,,,,,,,,,,,,,,,,,,,,,,,,,,,,,,,,,,,,,,,,,,,,,,,,,,5,0,5,0,1,,,,,,,,,,,,,,,,,,,,,
,,,,,,,,,,,,5f108fa8c5a6a7355ba78bbd,21,Kobieta,2022-06-11_09h25.32.575,task,2021.1.4,Win32,65.37229522,6299f149e92ead563fba08ef,62a4434402a1b988756fcdd1,,,,,,,,,,,,,1,,,,,,,,,,Task,34,(9/3) - 2,1,,,,,,,,,,,,,,,,,,,1,,,,,,,,,,,,,,,,,,,,,,,"[""1""]",1,[2.7164999999999964],0,0,0,33,1,,,,,,,,,,,,,,,,,,,,,,,,,,
,,,,,,,,,,,X V Q F H G B L J M P D K C T S W R N Z,5f108fa8c5a6a7355ba78bbd,21,Kobieta,2022-06-11_09h25.32.575,task,2021.1.4,Win32,65.37229522,6299f149e92ead563fba08ef,62a4434402a1b988756fcdd1,,,,,,,,,,,,,,,,,,,,,,,,,,,,,,,,,,,,,,,,,,,,,,,,,,,,,,,,,,,,,,,,,,,,,,,,,,,,6,0,6,0,1,,,,,,,,,,,,,,,,,,,,,
,,,,,,,,,,,,5f108fa8c5a6a7355ba78bbd,21,Kobieta,2022-06-11_09h25.32.575,task,2021.1.4,Win32,65.37229522,6299f149e92ead563fba08ef,62a4434402a1b988756fcdd1,,,,,,,,,,,,,1,,,,,,,,,,Task,9,(3x7) - 20,1,,,,,,,,,,,,,,,,,,,1,,,,,,,,,,,,,,,,,,,,,,,"[""1""]",1,[2.952600000023949],0,0,0,8,1,,,,,,,,,,,,,,,,,,,,,,,,,,
,,,,,,,,,,,X V Q F H G B L J M P D K C T S W R N Z,5f108fa8c5a6a7355ba78bbd,21,Kobieta,2022-06-11_09h25.32.575,task,2021.1.4,Win32,65.37229522,6299f149e92ead563fba08ef,62a4434402a1b988756fcdd1,,,,,,,,,,,,,,,,,,,,,,,,,,,,,,,,,,,,,,,,,,,,,,,,,,,,,,,,,,,,,,,,,,,,,,,,,,,,7,0,7,0,1,,,,,,,,,,,,,,,,,,,,,
,,,,,,,,,,,,5f108fa8c5a6a7355ba78bbd,21,Kobieta,2022-06-11_09h25.32.575,task,2021.1.4,Win32,65.37229522,6299f149e92ead563fba08ef,62a4434402a1b988756fcdd1,,,,,,,,,,,,,,,,,,,,,,,,,,,,,,,,,,,,,,,,,,,,,,,,,,,,,,,,,,,,,,,,,,,,,,,,,,,,,,,,,wtgxnntn,"[""w"",""t"",""g"",""x"",""n"",""n"",""t"",""n""]",0,"[6.335900000095307,9.369400000095311,13.3314000000953,17.948100000023942,19.935500000000047,21.736900000095375,25.853800000071487,38.76649999999995,44.65570000004777]",0,WTHXNNGW,9,0,9,0,1,,,,,,,,,,
,,,,,,,,,,,,5f108fa8c5a6a7355ba78bbd,21,Kobieta,2022-06-11_09h25.32.575,task,2021.1.4,Win32,65.37229522,6299f149e92ead563fba08ef,62a4434402a1b988756fcdd1,,,,,,,,,,,,,,,,,,,,,,,,,,,,,,,,,,,,,,,,,,,,,,,,,,,,,,,,,,,,,,,,,,,,,,,,,,,,,,,,,,,,,,,,,,,,,0,0,0,0,0,1,,,
,,,,,,,,,,,,5f108fa8c5a6a7355ba78bbd,21,Kobieta,2022-06-11_09h25.32.575,task,2021.1.4,Win32,65.37229522,6299f149e92ead563fba08ef,62a4434402a1b988756fcdd1,,,,,,,,,,,,,,,,,,,,,,,,,,,,,,,,,,,,,,,,,,,,,,,,,,,,,,,,,,,,,,,,,,,,,,,,,,,,,,,,,,,,,,,,,,,,"[""period""]",0,1,0,1,0,1,[0.4327000000478165],,
,,,,,,,,,,,,5f108fa8c5a6a7355ba78bbd,21,Kobieta,2022-06-11_09h25.32.575,task,2021.1.4,Win32,65.37229522,6299f149e92ead563fba08ef,62a4434402a1b988756fcdd1,,,,,,,,,,,,,,,,,,,,,,,,,,,,,,,,,,,,,,,,,,,,,,,,,,,,,,,,,,,,,,,,,,,,,,,,,,,,,,,,,,,,,,,,,,,,"[""period""]",0,2,0,2,0,1,[0.7192000000477492],,
,,,,,,,,,,,,5f108fa8c5a6a7355ba78bbd,21,Kobieta,2022-06-11_09h25.32.575,task,2021.1.4,Win32,65.37229522,6299f149e92ead563fba08ef,62a4434402a1b988756fcdd1,,,,,,,,,,,,,,,,,,,,,,,,,,,,,,,,,,,,,,,,,,,,,,,,,,,,,,,,,,,,,,,,,,,,,,,,,,,,,,,,,,,,,,,,,,,,"[""comma""]",0,3,0,3,0,1,[1.0285000000001219],,
,,,,,,,,,,,,5f108fa8c5a6a7355ba78bbd,21,Kobieta,2022-06-11_09h25.32.575,task,2021.1.4,Win32,65.37229522,6299f149e92ead563fba08ef,62a4434402a1b988756fcdd1,,,,,,,,,,,,,,,,,,,,,,,,,,,,,,,,,,,,,,,,,,,,,,,,,,,,,,,,,,,,,,,,,,,,,,,,,,,,,,,,,,,,,,,,,,,,"[""comma""]",0,4,0,4,0,1,[1.067600000023731],,
,,,,,,,,,,,,5f108fa8c5a6a7355ba78bbd,21,Kobieta,2022-06-11_09h25.32.575,task,2021.1.4,Win32,65.37229522,6299f149e92ead563fba08ef,62a4434402a1b988756fcdd1,,,,,,,,,,,,,,,,,,,,,,,,,,,,,,,,,,,,,,,,,,,,,,,,,,,,,,,,,,,,,,,,,,,,,,,,,,,,,,,,,,,,,,,,,,,,"[""period""]",0,5,0,5,0,1,[0.6459999999999582],,
,,,,,,,,,,,,5f108fa8c5a6a7355ba78bbd,21,Kobieta,2022-06-11_09h25.32.575,task,2021.1.4,Win32,65.37229522,6299f149e92ead563fba08ef,62a4434402a1b988756fcdd1,,,,,,,,,,,,,,,,,,,,,,,,,,,,,,,,,,,,,,,,,,,,,,,,,,,,,,,,,,,,,,,,,,,,,,,,,,,,,,,,,,,,,,,,,,,,"[""comma""]",0,6,0,6,0,1,[1.0081000000238873],,
,,,,,,,,,,,,5f108fa8c5a6a7355ba78bbd,21,Kobieta,2022-06-11_09h25.32.575,task,2021.1.4,Win32,65.37229522,6299f149e92ead563fba08ef,62a4434402a1b988756fcdd1,,,,,,,,,,,,,,,,,,,,,,,,,,,,,,,,,,,,,,,,,,,,,,,,,,,,,,,,,,,,,,,,,,,,,,,,,,,,,,,,,,,,,,,,,,,,"[""period""]",0,7,0,7,0,1,[1.0506999999283835],,
,,,,,,,,,,,,5f108fa8c5a6a7355ba78bbd,21,Kobieta,2022-06-11_09h25.32.575,task,2021.1.4,Win32,65.37229522,6299f149e92ead563fba08ef,62a4434402a1b988756fcdd1,,,,,,,,,,,,,,,,,,,,,,,,,,,,,,,,,,,,,,,,,,,,,,,,,,,,,,,,,,,,,,,,,,,,,,,,,,,,,,,,,,,,,,,,,,,,"[""comma""]",0,8,0,8,0,1,[0.6039000000953365],,
,,,,,,,,,,,,5f108fa8c5a6a7355ba78bbd,21,Kobieta,2022-06-11_09h25.32.575,task,2021.1.4,Win32,65.37229522,6299f149e92ead563fba08ef,62a4434402a1b988756fcdd1,,,,,,,,,,,,,,,,,,,,,,,,,,,,,,,,,,,,,,,,,,,,,,,,,,,,,,,,,,,,,,,,,,,,,,,,,,,,,,,,,,,,,,,,,,,,"[""period""]",0,9,0,9,0,1,[0.8208999999762909],,
,,,,,,,,,,,,5f108fa8c5a6a7355ba78bbd,21,Kobieta,2022-06-11_09h25.32.575,task,2021.1.4,Win32,65.37229522,6299f149e92ead563fba08ef,62a4434402a1b988756fcdd1,,,,,,,,,,,,,,,,,,,,,,,,,,,,,,,,,,,,,,,,,,,,,,,,,,,,,,,,,,,,,,,,,,,,,,,,,,,,,,,,,,,,,,,,,,,,"[""comma""]",0,10,0,10,0,1,[0.45159999990460165],,
,,,,,,,,,,,,5f108fa8c5a6a7355ba78bbd,21,Kobieta,2022-06-11_09h25.32.575,task,2021.1.4,Win32,65.37229522,6299f149e92ead563fba08ef,62a4434402a1b988756fcdd1,,,,,,,,,,,,,,,,,,,,,,,,,,,,,,,,,,,,,,,,,,,,,,,,,,,,,,,,,,,,,,,,,,,,,,,,,,,,,,,,,,,,,,,,,,,,"[""comma""]",0,11,0,11,0,1,[0.7041000000238],,
,,,,,,,,,,,,5f108fa8c5a6a7355ba78bbd,21,Kobieta,2022-06-11_09h25.32.575,task,2021.1.4,Win32,65.37229522,6299f149e92ead563fba08ef,62a4434402a1b988756fcdd1,,,,,,,,,,,,,,,,,,,,,,,,,,,,,,,,,,,,,,,,,,,,,,,,,,,,,,,,,,,,,,,,,,,,,,,,,,,,,,,,,,,,,,,,,,,,"[""period""]",0,12,0,12,0,1,[0.8904999999999745],,
,,,,,,,,,,,,5f108fa8c5a6a7355ba78bbd,21,Kobieta,2022-06-11_09h25.32.575,task,2021.1.4,Win32,65.37229522,6299f149e92ead563fba08ef,62a4434402a1b988756fcdd1,,,,,,,,,,,,,,,,,,,,,,,,,,,,,,,,,,,,,,,,,,,,,,,,,,,,,,,,,,,,,,,,,,,,,,,,,,,,,,,,,,,,,,,,,,,,"[""period""]",0,13,0,13,0,1,[0.8123999999761509],,
,,,,,,,,,,,,5f108fa8c5a6a7355ba78bbd,21,Kobieta,2022-06-11_09h25.32.575,task,2021.1.4,Win32,65.37229522,6299f149e92ead563fba08ef,62a4434402a1b988756fcdd1,,,,,,,,,,,,,,,,,,,,,,,,,,,,,,,,,,,,,,,,,,,,,,,,,,,,,,,,,,,,,,,,,,,,,,,,,,,,,,,,,,,,,,,,,,,,"[""comma""]",0,14,0,14,0,1,[1.2183999999761],,
,,,,,,,,,,,,5f108fa8c5a6a7355ba78bbd,21,Kobieta,2022-06-11_09h25.32.575,task,2021.1.4,Win32,65.37229522,6299f149e92ead563fba08ef,62a4434402a1b988756fcdd1,,,,,,,,,,,,,,,,,,,,,,,,,,,,,,,,,,,,,,,,,,,,,,,,,,,,,,,,,,,,,,,,,,,,,,,,,,,,,,,,,,,,,,,,,,,,"[""period""]",0,15,0,15,0,1,[1.3152000000477528],,
,,,,,,,,,,,,5f108fa8c5a6a7355ba78bbd,21,Kobieta,2022-06-11_09h25.32.575,task,2021.1.4,Win32,65.37229522,6299f149e92ead563fba08ef,62a4434402a1b988756fcdd1,,,,,,,,,,,,,,,,,,,,,,,,,,,,,,,,,,,,,,,,,,,,,,,,,,,,,,,,,,,,,,,,,,,,,,,,,,,,,,,,,,,,,,,,,,,,"[""period""]",0,16,0,16,0,1,[1.4782000000477638],,
,,,,,,,,,,,,5f108fa8c5a6a7355ba78bbd,21,Kobieta,2022-06-11_09h25.32.575,task,2021.1.4,Win32,65.37229522,6299f149e92ead563fba08ef,62a4434402a1b988756fcdd1,,,,,,,,,,,,,,,,,,,,,,,,,,,,,,,,,,,,,,,,,,,,,,,,,,,,,,,,,,,,,,,,,,,,,,,,,,,,,,,,,,,,,,,,,,,,,0,17,0,17,0,1,,,
,,,,,,,,,,,,5f108fa8c5a6a7355ba78bbd,21,Kobieta,2022-06-11_09h25.32.575,task,2021.1.4,Win32,65.37229522,6299f149e92ead563fba08ef,62a4434402a1b988756fcdd1,,,,,,,,,,,,,,,,,,,,,,,,,,,,,,,,,,,,,,,,,,,,,,,,,,,,,,,,,,,,,,,,,,,,,,,,,,,,,,,,,,,,,,,,,,,,"[""period""]",0,18,0,18,0,1,[0.16050000000018372],,
,,,,,,,,,,,,5f108fa8c5a6a7355ba78bbd,21,Kobieta,2022-06-11_09h25.32.575,task,2021.1.4,Win32,65.37229522,6299f149e92ead563fba08ef,62a4434402a1b988756fcdd1,,,,,,,,,,,,,,,,,,,,,,,,,,,,,,,,,,,,,,,,,,,,,,,,,,,,,,,,,,,,,,,,,,,,,,,,,,,,,,,,,,,,,,,,,,,,"[""comma""]",0,19,0,19,0,1,[0.26839999997605446],,
,,,,,,,,,,,,5f108fa8c5a6a7355ba78bbd,21,Kobieta,2022-06-11_09h25.32.575,task,2021.1.4,Win32,65.37229522,6299f149e92ead563fba08ef,62a4434402a1b988756fcdd1,,,,,,,,,,,,,,,,,,,,,,,,,,,,,,,,,,,,,,,,,,,,,,,,,,,,,,,,,,,,,,,,,,,,,,,,,,,,,,,,,,,,,,,,,,,,"[""comma""]",0,20,0,20,0,1,[0.9542999999521271],,
,,,,,,,,,,,,5f108fa8c5a6a7355ba78bbd,21,Kobieta,2022-06-11_09h25.32.575,task,2021.1.4,Win32,65.37229522,6299f149e92ead563fba08ef,62a4434402a1b988756fcdd1,,,,,,,,,,,,,,,,,,,,,,,,,,,,,,,,,,,,,,,,,,,,,,,,,,,,,,,,,,,,,,,,,,,,,,,,,,,,,,,,,,,,,,,,,,,,"[""period""]",0,21,0,21,0,1,[0.9132999999521871],,
,,,,,,,,,,,,5f108fa8c5a6a7355ba78bbd,21,Kobieta,2022-06-11_09h25.32.575,task,2021.1.4,Win32,65.37229522,6299f149e92ead563fba08ef,62a4434402a1b988756fcdd1,,,,,,,,,,,,,,,,,,,,,,,,,,,,,,,,,,,,,,,,,,,,,,,,,,,,,,,,,,,,,,,,,,,,,,,,,,,,,,,,,,,,,,,,,,,,"[""period""]",0,22,0,22,0,1,[1.0016000000239274],,
,,,,,,,,,,,,5f108fa8c5a6a7355ba78bbd,21,Kobieta,2022-06-11_09h25.32.575,task,2021.1.4,Win32,65.37229522,6299f149e92ead563fba08ef,62a4434402a1b988756fcdd1,,,,,,,,,,,,,,,,,,,,,,,,,,,,,,,,,,,,,,,,,,,,,,,,,,,,,,,,,,,,,,,,,,,,,,,,,,,,,,,,,,,,,,,,,,,,"[""period""]",0,23,0,23,0,1,[1.1388999999762746],,
,,,,,,,,,,,,5f108fa8c5a6a7355ba78bbd,21,Kobieta,2022-06-11_09h25.32.575,task,2021.1.4,Win32,65.37229522,6299f149e92ead563fba08ef,62a4434402a1b988756fcdd1,,,,,,,,,,,,,,,,,,,,,,,,,,,,,,,,,,,,,,,,,,,,,,,,,,,,,,,,,,,,,,,,,,,,,,,,,,,,,,,,,,,,,,,,,,,,"[""period""]",0,24,0,24,0,1,[1.23989999997616],,
,,,,,,,,,,,,5f108fa8c5a6a7355ba78bbd,21,Kobieta,2022-06-11_09h25.32.575,task,2021.1.4,Win32,65.37229522,6299f149e92ead563fba08ef,62a4434402a1b988756fcdd1,,,,,,,,,,,,,,,,,,,,,,,,,,,,,,,,,,,,,,,,,,,,,,,,,,,,,,,,,,,,,,,,,,,,,,,,,,,,,,,,,,,,,,,,,,,,"[""comma""]",0,25,0,25,0,1,[1.0323000000714728],,
,,,,,,,,,,,,5f108fa8c5a6a7355ba78bbd,21,Kobieta,2022-06-11_09h25.32.575,task,2021.1.4,Win32,65.37229522,6299f149e92ead563fba08ef,62a4434402a1b988756fcdd1,,,,,,,,,,,,,,,,,,,,,,,,,,,,,,,,,,,,,,,,,,,,,,,,,,,,,,,,,,,,,,,,,,,,,,,,,,,,,,,,,,,,,,,,,,,,"[""comma""]",0,26,0,26,0,1,[0.7357000000477001],,
,,,,,,,,,,,,5f108fa8c5a6a7355ba78bbd,21,Kobieta,2022-06-11_09h25.32.575,task,2021.1.4,Win32,65.37229522,6299f149e92ead563fba08ef,62a4434402a1b988756fcdd1,,,,,,,,,,,,,,,,,,,,,,,,,,,,,,,,,,,,,,,,,,,,,,,,,,,,,,,,,,,,,,,,,,,,,,,,,,,,,,,,,,,,,,,,,,,,"[""comma""]",0,27,0,27,0,1,[1.0208999999763364],,
,,,,,,,,,,,,5f108fa8c5a6a7355ba78bbd,21,Kobieta,2022-06-11_09h25.32.575,task,2021.1.4,Win32,65.37229522,6299f149e92ead563fba08ef,62a4434402a1b988756fcdd1,,,,,,,,,,,,,,,,,,,,,,,,,,,,,,,,,,,,,,,,,,,,,,,,,,,,,,,,,,,,,,,,,,,,,,,,,,,,,,,,,,,,,,,,,,,,"[""comma""]",0,28,0,28,0,1,[0.75649999999996],,
,,,,,,,,,,,,5f108fa8c5a6a7355ba78bbd,21,Kobieta,2022-06-11_09h25.32.575,task,2021.1.4,Win32,65.37229522,6299f149e92ead563fba08ef,62a4434402a1b988756fcdd1,,,,,,,,,,,,,,,,,,,,,,,,,,,,,,,,,,,,,,,,,,,,,,,,,,,,,,,,,,,,,,,,,,,,,,,,,,,,,,,,,,,,,,,,,,,,"[""period""]",0,29,0,29,0,1,[0.48900000000003274],,
,,,,,,,,,,,,5f108fa8c5a6a7355ba78bbd,21,Kobieta,2022-06-11_09h25.32.575,task,2021.1.4,Win32,65.37229522,6299f149e92ead563fba08ef,62a4434402a1b988756fcdd1,,,,,,,,,,,,,,,,,,,,,,,,,,,,,,,,,,,,,,,,,,,,,,,,,,,,,,,,,,,,,,,,,,,,,,,,,,,,,,,,,,,,,,,,,,,,"[""comma""]",0,30,0,30,0,1,[0.7447000000477146],,
,,,,,,,,,,,,5f108fa8c5a6a7355ba78bbd,21,Kobieta,2022-06-11_09h25.32.575,task,2021.1.4,Win32,65.37229522,6299f149e92ead563fba08ef,62a4434402a1b988756fcdd1,,,,,,,,,,,,,,,,,,,,,,,,,,,,,,,,,,,,,,,,,,,,,,,,,,,,,,,,,,,,,,,,,,,,,,,,,,,,,,,,,,,,,,,,,,,,"[""comma""]",0,31,0,31,0,1,[1.1013999999761381],,
,,,,,,,,,,,,5f108fa8c5a6a7355ba78bbd,21,Kobieta,2022-06-11_09h25.32.575,task,2021.1.4,Win32,65.37229522,6299f149e92ead563fba08ef,62a4434402a1b988756fcdd1,,,,,,,,,,,,,,,,,,,,,,,,,,,,,,,,,,,,,,,,,,,,,,,,,,,,,,,,,,,,,,,,,,,,,,,,,,,,,,,,,,,,,,,,,,,,"[""period""]",0,32,0,32,0,1,[0.8617000000476764],,
,,,,,,,,,,,,5f108fa8c5a6a7355ba78bbd,21,Kobieta,2022-06-11_09h25.32.575,task,2021.1.4,Win32,65.37229522,6299f149e92ead563fba08ef,62a4434402a1b988756fcdd1,,,,,,,,,,,,,,,,,,,,,,,,,,,,,,,,,,,,,,,,,,,,,,,,,,,,,,,,,,,,,,,,,,,,,,,,,,,,,,,,,,,,,,,,,,,,"[""period""]",0,33,0,33,0,1,[1.1682999999522963],,
,,,,,,,,,,,,5f108fa8c5a6a7355ba78bbd,21,Kobieta,2022-06-11_09h25.32.575,task,2021.1.4,Win32,65.37229522,6299f149e92ead563fba08ef,62a4434402a1b988756fcdd1,,,,,,,,,,,,,,,,,,,,,,,,,,,,,,,,,,,,,,,,,,,,,,,,,,,,,,,,,,,,,,,,,,,,,,,,,,,,,,,,,,,,,,,,,,,,"[""comma""]",0,34,0,34,0,1,[1.0438999999762473],,
,,,,,,,,,,,,5f108fa8c5a6a7355ba78bbd,21,Kobieta,2022-06-11_09h25.32.575,task,2021.1.4,Win32,65.37229522,6299f149e92ead563fba08ef,62a4434402a1b988756fcdd1,,,,,,,,,,,,,,,,,,,,,,,,,,,,,,,,,,,,,,,,,,,,,,,,,,,,,,,,,,,,,,,,,,,,,,,,,,,,,,,,,,,,,,,,,,,,"[""comma""]",0,35,0,35,0,1,[1.012099999904649],,
,,,,,,,,,,,,5f108fa8c5a6a7355ba78bbd,21,Kobieta,2022-06-11_09h25.32.575,task,2021.1.4,Win32,65.37229522,6299f149e92ead563fba08ef,62a4434402a1b988756fcdd1,,,,,,,,,,,,,,,,,,,,,,,,,,,,,,,,,,,,,,,,,,,,,,,,,,,,,,,,,,,,,,,,,,,,,,,,,,,,,,,,,,,,,,,,,,,,"[""comma""]",0,36,0,36,0,1,[1.1850999999046508],,
,,,,,,,,,,,,5f108fa8c5a6a7355ba78bbd,21,Kobieta,2022-06-11_09h25.32.575,task,2021.1.4,Win32,65.37229522,6299f149e92ead563fba08ef,62a4434402a1b988756fcdd1,,,,,,,,,,,,,,,,,,,,,,,,,,,,,,,,,,,,,,,,,,,,,,,,,,,,,,,,,,,,,,,,,,,,,,,,,,,,,,,,,,,,,,,,,,,,"[""period""]",0,37,0,37,0,1,[1.0520999999046126],,
,,,,,,,,,,,,5f108fa8c5a6a7355ba78bbd,21,Kobieta,2022-06-11_09h25.32.575,task,2021.1.4,Win32,65.37229522,6299f149e92ead563fba08ef,62a4434402a1b988756fcdd1,,,,,,,,,,,,,,,,,,,,,,,,,,,,,,,,,,,,,,,,,,,,,,,,,,,,,,,,,,,,,,,,,,,,,,,,,,,,,,,,,,,,,,,,,,,,"[""comma""]",0,38,0,38,0,1,[1.7019999999999982],,
,,,,,,,,,,,,5f108fa8c5a6a7355ba78bbd,21,Kobieta,2022-06-11_09h25.32.575,task,2021.1.4,Win32,65.37229522,6299f149e92ead563fba08ef,62a4434402a1b988756fcdd1,,,,,,,,,,,,,,,,,,,,,,,,,,,,,,,,,,,,,,,,,,,,,,,,,,,,,,,,,,,,,,,,,,,,,,,,,,,,,,,,,,,,,,,,,,,,,0,39,0,39,0,1,,,
,,,,,,,,,,,,5f108fa8c5a6a7355ba78bbd,21,Kobieta,2022-06-11_09h25.32.575,task,2021.1.4,Win32,65.37229522,6299f149e92ead563fba08ef,62a4434402a1b988756fcdd1,,,,,,,,,,,,,,,,,,,,,,,,,,,,,,,,,,,,,,,,,,,,,,,,,,,,,,,,,,,,,,,,,,,,,,,,,,,,,,,,,,,,,,,,,,,,"[""period""]",0,40,0,40,0,1,[0.2513999999762291],,
,,,,,,,,,,,,5f108fa8c5a6a7355ba78bbd,21,Kobieta,2022-06-11_09h25.32.575,task,2021.1.4,Win32,65.37229522,6299f149e92ead563fba08ef,62a4434402a1b988756fcdd1,,,,,,,,,,,,,,,,,,,,,,,,,,,,,,,,,,,,,,,,,,,,,,,,,,,,,,,,,,,,,,,,,,,,,,,,,,,,,,,,,,,,,,,,,,,,"[""period""]",0,41,0,41,0,1,[0.834600000024011],,
,,,,,,,,,,,,5f108fa8c5a6a7355ba78bbd,21,Kobieta,2022-06-11_09h25.32.575,task,2021.1.4,Win32,65.37229522,6299f149e92ead563fba08ef,62a4434402a1b988756fcdd1,,,,,,,,,,,,,,,,,,,,,,,,,,,,,,,,,,,,,,,,,,,,,,,,,,,,,,,,,,,,,,,,,,,,,,,,,,,,,,,,,,,,,,,,,,,,"[""comma""]",0,42,0,42,0,1,[1.0325000000000273],,
,,,,,,,,,,,,5f108fa8c5a6a7355ba78bbd,21,Kobieta,2022-06-11_09h25.32.575,task,2021.1.4,Win32,65.37229522,6299f149e92ead563fba08ef,62a4434402a1b988756fcdd1,,,,,,,,,,,,,,,,,,,,,,,,,,,,,,,,,,,,,,,,,,,,,,,,,,,,,,,,,,,,,,,,,,,,,,,,,,,,,,,,,,,,,,,,,,,,"[""comma""]",0,43,0,43,0,1,[1.1826000000239674],,
,,,,,,,,,,,,5f108fa8c5a6a7355ba78bbd,21,Kobieta,2022-06-11_09h25.32.575,task,2021.1.4,Win32,65.37229522,6299f149e92ead563fba08ef,62a4434402a1b988756fcdd1,,,,,,,,,,,,,,,,,,,,,,,,,,,,,,,,,,,,,,,,,,,,,,,,,,,,,,,,,,,,,,,,,,,,,,,,,,,,,,,,,,,,,,,,,,,,"[""period""]",0,44,0,44,0,1,[1.4391000000239274],,
,,,,,,,,,,,,5f108fa8c5a6a7355ba78bbd,21,Kobieta,2022-06-11_09h25.32.575,task,2021.1.4,Win32,65.37229522,6299f149e92ead563fba08ef,62a4434402a1b988756fcdd1,,,,,,,,,,,,,,,,,,,,,,,,,,,,,,,,,,,,,,,,,,,,,,,,,,,,,,,,,,,,,,,,,,,,,,,,,,,,,,,,,,,,,,,,,,,,,0,45,0,45,0,1,,,
,,,,,,,,,,,,5f108fa8c5a6a7355ba78bbd,21,Kobieta,2022-06-11_09h25.32.575,task,2021.1.4,Win32,65.37229522,6299f149e92ead563fba08ef,62a4434402a1b988756fcdd1,,,,,,,,,,,,,,,,,,,,,,,,,,,,,,,,,,,,,,,,,,,,,,,,,,,,,,,,,,,,,,,,,,,,,,,,,,,,,,,,,,,,,,,,,,,,"[""comma""]",0,46,0,46,0,1,[0.234300000071471],,
,,,,,,,,,,,,5f108fa8c5a6a7355ba78bbd,21,Kobieta,2022-06-11_09h25.32.575,task,2021.1.4,Win32,65.37229522,6299f149e92ead563fba08ef,62a4434402a1b988756fcdd1,,,,,,,,,,,,,,,,,,,,,,,,,,,,,,,,,,,,,,,,,,,,,,,,,,,,,,,,,,,,,,,,,,,,,,,,,,,,,,,,,,,,,,,,,,,,"[""period""]",0,47,0,47,0,1,[0.29040000009536016],,
,,,,,,,,,,,,5f108fa8c5a6a7355ba78bbd,21,Kobieta,2022-06-11_09h25.32.575,task,2021.1.4,Win32,65.37229522,6299f149e92ead563fba08ef,62a4434402a1b988756fcdd1,,,,,,,,,,,,,,,,,,,,,,,,,,,,,,,,,,,,,,,,,,,,,,,,,,,,,,,,,,,,,,,,,,,,,,,,,,,,,,,,,,,,,,,,,,,,"[""period""]",0,48,0,48,0,1,[0.5017000000477765],,
,,,,,,,,,,,,5f108fa8c5a6a7355ba78bbd,21,Kobieta,2022-06-11_09h25.32.575,task,2021.1.4,Win32,65.37229522,6299f149e92ead563fba08ef,62a4434402a1b988756fcdd1,,,,,,,,,,,,,,,,,,,,,,,,,,,,,,,,,,,,,,,,,,,,,,,,,,,,,,,,,,,,,,,,,,,,,,,,,,,,,,,,,,,,,,,,,,,,"[""comma""]",0,49,0,49,0,1,[0.3125],,
,,,,,,,,,,,,5f108fa8c5a6a7355ba78bbd,21,Kobieta,2022-06-11_09h25.32.575,task,2021.1.4,Win32,65.37229522,6299f149e92ead563fba08ef,62a4434402a1b988756fcdd1,,,,,,,,,,,,,,,,,,,,,,,,,,,,,,,,,,,,,,,,,,,,,,,,,,,,,,,,,,,,,,,,,,,,,,,,,,,,,,,,,,,,,,,,,,,,"[""comma""]",0,50,0,50,0,1,[0.2669999999998254],,
,,,,,,,,,,,,5f108fa8c5a6a7355ba78bbd,21,Kobieta,2022-06-11_09h25.32.575,task,2021.1.4,Win32,65.37229522,6299f149e92ead563fba08ef,62a4434402a1b988756fcdd1,,,,,,,,,,,,,,,,,,,,,,,,,,,,,,,,,,,,,,,,,,,,,,,,,,,,,,,,,,,,,,,,,,,,,,,,,,,,,,,,,,,,,,,,,,,,"[""comma""]",0,51,0,51,0,1,[0.2546000000238564],,
,,,,,,,,,,,,5f108fa8c5a6a7355ba78bbd,21,Kobieta,2022-06-11_09h25.32.575,task,2021.1.4,Win32,65.37229522,6299f149e92ead563fba08ef,62a4434402a1b988756fcdd1,,,,,,,,,,,,,,,,,,,,,,,,,,,,,,,,,,,,,,,,,,,,,,,,,,,,,,,,,,,,,,,,,,,,,,,,,,,,,,,,,,,,,,,,,,,,"[""period""]",0,52,0,52,0,1,[0.47199999999998],,
,,,,,,,,,,,,5f108fa8c5a6a7355ba78bbd,21,Kobieta,2022-06-11_09h25.32.575,task,2021.1.4,Win32,65.37229522,6299f149e92ead563fba08ef,62a4434402a1b988756fcdd1,,,,,,,,,,,,,,,,,,,,,,,,,,,,,,,,,,,,,,,,,,,,,,,,,,,,,,,,,,,,,,,,,,,,,,,,,,,,,,,,,,,,,,,,,,,,"[""period""]",0,53,0,53,0,1,[0.30600000000004],,
,,,,,,,,,,,,5f108fa8c5a6a7355ba78bbd,21,Kobieta,2022-06-11_09h25.32.575,task,2021.1.4,Win32,65.37229522,6299f149e92ead563fba08ef,62a4434402a1b988756fcdd1,,,,,,,,,,,,,,,,,,,,,,,,,,,,,,,,,,,,,,,,,,,,,,,,,,,,,,,,,,,,,,,,,,,,,,,,,,,,,,,,,,,,,,,,,,,,"[""comma""]",0,54,0,54,0,1,[0.3473000000715274],,
,,,,,,,,,,,,5f108fa8c5a6a7355ba78bbd,21,Kobieta,2022-06-11_09h25.32.575,task,2021.1.4,Win32,65.37229522,6299f149e92ead563fba08ef,62a4434402a1b988756fcdd1,,,,,,,,,,,,,,,,,,,,,,,,,,,,,,,,,,,,,,,,,,,,,,,,,,,,,,,,,,,,,,,,,,,,,,,,,,,,,,,,,,,,,,,,,,,,"[""period""]",0,55,0,55,0,1,[0.29640000009544565],,
,,,,,,,,,,,,5f108fa8c5a6a7355ba78bbd,21,Kobieta,2022-06-11_09h25.32.575,task,2021.1.4,Win32,65.37229522,6299f149e92ead563fba08ef,62a4434402a1b988756fcdd1,,,,,,,,,,,,,,,,,,,,,,,,,,,,,,,,,,,,,,,,,,,,,,,,,,,,,,,,,,,,,,,,,,,,,,,,,,,,,,,,,,,,,,,,,,,,"[""period""]",0,56,0,56,0,1,[0.3173000000715547],,
,,,,,,,,,,,,5f108fa8c5a6a7355ba78bbd,21,Kobieta,2022-06-11_09h25.32.575,task,2021.1.4,Win32,65.37229522,6299f149e92ead563fba08ef,62a4434402a1b988756fcdd1,,,,,,,,,,,,,,,,,,,,,,,,,,,,,,,,,,,,,,,,,,,,,,,,,,,,,,,,,,,,,,,,,,,,,,,,,,,,,,,,,,,,,,,,,,,,"[""period""]",0,57,0,57,0,1,[0.78449999999998],,
,,,,,,,,,,,,5f108fa8c5a6a7355ba78bbd,21,Kobieta,2022-06-11_09h25.32.575,task,2021.1.4,Win32,65.37229522,6299f149e92ead563fba08ef,62a4434402a1b988756fcdd1,,,,,,,,,,,,,,,,,,,,,,,,,,,,,,,,,,,,,,,,,,,,,,,,,,,,,,,,,,,,,,,,,,,,,,,,,,,,,,,,,,,,,,,,,,,,"[""comma""]",0,58,0,58,0,1,[0.41139999997608356],,
,,,,,,,,,,,,5f108fa8c5a6a7355ba78bbd,21,Kobieta,2022-06-11_09h25.32.575,task,2021.1.4,Win32,65.37229522,6299f149e92ead563fba08ef,62a4434402a1b988756fcdd1,,,,,,,,,,,,,,,,,,,,,,,,,,,,,,,,,,,,,,,,,,,,,,,,,,,,,,,,,,,,,,,,,,,,,,,,,,,,,,,,,,,,,,,,,,,,"[""comma""]",0,59,0,59,0,1,[0.8016000000236545],,
,,,,,,,,,,,,5f108fa8c5a6a7355ba78bbd,21,Kobieta,2022-06-11_09h25.32.575,task,2021.1.4,Win32,65.37229522,6299f149e92ead563fba08ef,62a4434402a1b988756fcdd1,,,,,,,,,,,,,,,,,,,,,,,,,,,,,,,,,,,,,,,,,,,,,,,,,,,,,,,,,,,,,,,,,,,,,,,,,,,,,,,,,,,,,,,,,,,,"[""comma""]",0,60,0,60,0,1,[1.2091999999286145],,
,,,,,,,,,,,,5f108fa8c5a6a7355ba78bbd,21,Kobieta,2022-06-11_09h25.32.575,task,2021.1.4,Win32,65.37229522,6299f149e92ead563fba08ef,62a4434402a1b988756fcdd1,,,,,,,,,,,,,,,,,,,,,,,,,,,,,,,,,,,,,,,,,,,,,,,,,,,,,,,,,,,,,,,,,,,,,,,,,,,,,,,,,,,,,,,,,,,,"[""period""]",0,61,0,61,0,1,[0.7111000000238619],,
,,,,,,,,,,,,5f108fa8c5a6a7355ba78bbd,21,Kobieta,2022-06-11_09h25.32.575,task,2021.1.4,Win32,65.37229522,6299f149e92ead563fba08ef,62a4434402a1b988756fcdd1,,,,,,,,,,,,,,,,,,,,,,,,,,,,,,,,,,,,,,,,,,,,,,,,,,,,,,,,,,,,,,,,,,,,,,,,,,,,,,,,,,,,,,,,,,,,"[""period""]",0,62,0,62,0,1,[0.842700000047671],,
,,,,,,,,,,,,5f108fa8c5a6a7355ba78bbd,21,Kobieta,2022-06-11_09h25.32.575,task,2021.1.4,Win32,65.37229522,6299f149e92ead563fba08ef,62a4434402a1b988756fcdd1,,,,,,,,,,,,,,,,,,,,,,,,,,,,,,,,,,,,,,,,,,,,,,,,,,,,,,,,,,,,,,,,,,,,,,,,,,,,,,,,,,,,,,,,,,,,"[""comma""]",0,63,0,63,0,1,[0.8532000000475364],,
,,,,,,,,,,,,5f108fa8c5a6a7355ba78bbd,21,Kobieta,2022-06-11_09h25.32.575,task,2021.1.4,Win32,65.37229522,6299f149e92ead563fba08ef,62a4434402a1b988756fcdd1,,,,,,,,,,,,,,,,,,,,,,,,,,,,,,,,,,,,,,,,,,,,,,,,,,,,,,,,,,,,,,,,,,,,,,,,,,,,,,,,,,,,,,,,,,,,"[""comma""]",0,64,0,64,0,1,[1.1169999999999618],,
,,,,,,,,,,,,5f108fa8c5a6a7355ba78bbd,21,Kobieta,2022-06-11_09h25.32.575,task,2021.1.4,Win32,65.37229522,6299f149e92ead563fba08ef,62a4434402a1b988756fcdd1,,,,,,,,,,,,,,,,,,,,,,,,,,,,,,,,,,,,,,,,,,,,,,,,,,,,,,,,,,,,,,,,,,,,,,,,,,,,,,,,,,,,,,,,,,,,"[""comma""]",0,65,0,65,0,1,[0.7509999999999764],,
,,,,,,,,,,,,5f108fa8c5a6a7355ba78bbd,21,Kobieta,2022-06-11_09h25.32.575,task,2021.1.4,Win32,65.37229522,6299f149e92ead563fba08ef,62a4434402a1b988756fcdd1,,,,,,,,,,,,,,,,,,,,,,,,,,,,,,,,,,,,,,,,,,,,,,,,,,,,,,,,,,,,,,,,,,,,,,,,,,,,,,,,,,,,,,,,,,,,"[""period""]",0,66,0,66,0,1,[0.4348999999760963],,
,,,,,,,,,,,,5f108fa8c5a6a7355ba78bbd,21,Kobieta,2022-06-11_09h25.32.575,task,2021.1.4,Win32,65.37229522,6299f149e92ead563fba08ef,62a4434402a1b988756fcdd1,,,,,,,,,,,,,,,,,,,,,,,,,,,,,,,,,,,,,,,,,,,,,,,,,,,,,,,,,,,,,,,,,,,,,,,,,,,,,,,,,,,,,,,,,,,,"[""period""]",0,67,0,67,0,1,[0.49700000000007094],,
,,,,,,,,,,,,5f108fa8c5a6a7355ba78bbd,21,Kobieta,2022-06-11_09h25.32.575,task,2021.1.4,Win32,65.37229522,6299f149e92ead563fba08ef,62a4434402a1b988756fcdd1,,,,,,,,,,,,,,,,,,,,,,,,,,,,,,,,,,,,,,,,,,,,,,,,,,,,,,,,,,,,,,,,,,,,,,,,,,,,,,,,,,,,,,,,,,,,"[""period""]",0,68,0,68,0,1,[0.43539999997619816],,
,,,,,,,,,,,,5f108fa8c5a6a7355ba78bbd,21,Kobieta,2022-06-11_09h25.32.575,task,2021.1.4,Win32,65.37229522,6299f149e92ead563fba08ef,62a4434402a1b988756fcdd1,,,,,,,,,,,,,,,,,,,,,,,,,,,,,,,,,,,,,,,,,,,,,,,,,,,,,,,,,,,,,,,,,,,,,,,,,,,,,,,,,,,,,,,,,,,,"[""period""]",0,69,0,69,0,1,[0.3330000000000837],,
,,,,,,,,,,,,5f108fa8c5a6a7355ba78bbd,21,Kobieta,2022-06-11_09h25.32.575,task,2021.1.4,Win32,65.37229522,6299f149e92ead563fba08ef,62a4434402a1b988756fcdd1,,,,,,,,,,,,,,,,,,,,,,,,,,,,,,,,,,,,,,,,,,,,,,,,,,,,,,,,,,,,,,,,,,,,,,,,,,,,,,,,,,,,,,,,,,,,"[""comma""]",0,70,0,70,0,1,[0.30300000000011096],,
,,,,,,,,,,,,5f108fa8c5a6a7355ba78bbd,21,Kobieta,2022-06-11_09h25.32.575,task,2021.1.4,Win32,65.37229522,6299f149e92ead563fba08ef,62a4434402a1b988756fcdd1,,,,,,,,,,,,,,,,,,,,,,,,,,,,,,,,,,,,,,,,,,,,,,,,,,,,,,,,,,,,,,,,,,,,,,,,,,,,,,,,,,,,,,,,,,,,"[""comma""]",0,71,0,71,0,1,[0.5026000000236763],,
,,,,,,,,,,,,5f108fa8c5a6a7355ba78bbd,21,Kobieta,2022-06-11_09h25.32.575,task,2021.1.4,Win32,65.37229522,6299f149e92ead563fba08ef,62a4434402a1b988756fcdd1,,,,,,,,,,,,,,,,,,,,,,,,,,,,,,,,,,,,,,,,,,,,,,,,,,,,,,,,,,,,,,,,,,,,,,,,,,,,,,,,,,,,,,,,,,,,"[""comma""]",0,72,0,72,0,1,[0.28380000007155104],,
,,,,,,,,,,,,5f108fa8c5a6a7355ba78bbd,21,Kobieta,2022-06-11_09h25.32.575,task,2021.1.4,Win32,65.37229522,6299f149e92ead563fba08ef,62a4434402a1b988756fcdd1,,,,,,,,,,,,,,,,,,,,,,,,,,,,,,,,,,,,,,,,,,,,,,,,,,,,,,,,,,,,,,,,,,,,,,,,,,,,,,,,,,,,,,,,,,,,"[""period""]",0,73,0,73,0,1,[0.28289999997605264],,
,,,,,,,,,,,,5f108fa8c5a6a7355ba78bbd,21,Kobieta,2022-06-11_09h25.32.575,task,2021.1.4,Win32,65.37229522,6299f149e92ead563fba08ef,62a4434402a1b988756fcdd1,,,,,,,,,,,,,,,,,,,,,,,,,,,,,,,,,,,,,,,,,,,,,,,,,,,,,,,,,,,,,,,,,,,,,,,,,,,,,,,,,,,,,,,,,,,,"[""comma""]",0,74,0,74,0,1,[0.5865999999045926],,
,,,,,,,,,,,,5f108fa8c5a6a7355ba78bbd,21,Kobieta,2022-06-11_09h25.32.575,task,2021.1.4,Win32,65.37229522,6299f149e92ead563fba08ef,62a4434402a1b988756fcdd1,,,,,,,,,,,,,,,,,,,,,,,,,,,,,,,,,,,,,,,,,,,,,,,,,,,,,,,,,,,,,,,,,,,,,,,,,,,,,,,,,,,,,,,,,,,,"[""period""]",0,75,0,75,0,1,[0.40000000000009095],,
,,,,,,,,,,,,5f108fa8c5a6a7355ba78bbd,21,Kobieta,2022-06-11_09h25.32.575,task,2021.1.4,Win32,65.37229522,6299f149e92ead563fba08ef,62a4434402a1b988756fcdd1,,,,,,,,,,,,,,,,,,,,,,,,,,,,,,,,,,,,,,,,,,,,,,,,,,,,,,,,,,,,,,,,,,,,,,,,,,,,,,,,,,,,,,,,,,,,"[""comma""]",0,76,0,76,0,1,[0.3645000000001346],,
