key_resp_15.keys,key_resp_15.rt,key_resp_16.keys,key_resp_16.rt,key_resp_4.keys,key_resp_4.rt,next_letter.thisRepN,next_letter.thisTrialN,next_letter.thisN,next_letter.thisIndex,next_letter.ran,letter,participant,Wiek*,Płeć,date,expName,psychopyVersion,OS,frameRate,study_id,session,simple_recall,key_resp_5.keys,key_resp_5.rt,simple_recall_corr,simple_recall_corrkeys,next_level.thisRepN,next_level.thisTrialN,next_level.thisN,next_level.thisIndex,next_level.ran,key_resp_2.keys,key_resp_2.rt,digit_answer,key_resp.keys,key_resp.corr,key_resp.rt,RT_list,next_equation.thisRepN,next_equation.thisTrialN,next_equation.thisN,next_equation.thisIndex,next_equation.ran,Task,Trial,Problem,Operation_answer,processing_score,sumRT,meanRT,sumdiff,sd,RT,key_resp_3.keys,key_resp_3.rt,repeat_practice.thisRepN,repeat_practice.thisTrialN,repeat_practice.thisN,repeat_practice.thisIndex,repeat_practice.ran,key_resp_6.keys,key_resp_6.rt,key_resp_11.keys,key_resp_11.corr,key_resp_11.rt,operation_correct,repeat_if_wrong_prac.thisRepN,repeat_if_wrong_prac.thisTrialN,repeat_if_wrong_prac.thisN,repeat_if_wrong_prac.thisIndex,repeat_if_wrong_prac.ran,span_size_prac.thisRepN,span_size_prac.thisTrialN,span_size_prac.thisN,span_size_prac.thisIndex,span_size_prac.ran,complex_recall_practice,key_resp_9.keys,key_resp_9.corr,key_resp_9.rt,complex_prac_corr,span_recall_prac.thisRepN,span_recall_prac.thisTrialN,span_recall_prac.thisN,span_recall_prac.thisIndex,span_recall_prac.ran,key_resp_10.keys,key_resp_10.rt,key_resp_7.keys,key_resp_7.corr,key_resp_7.rt,repeat_if_wrong.thisRepN,repeat_if_wrong.thisTrialN,repeat_if_wrong.thisN,repeat_if_wrong.thisIndex,repeat_if_wrong.ran,span_size.thisRepN,span_size.thisTrialN,span_size.thisN,span_size.thisIndex,span_size.ran,complex_recall,key_resp_8.keys,key_resp_8.corr,key_resp_8.rt,complex_recall_corr,complex_recall_corrkeys,span_recall.thisRepN,span_recall.thisTrialN,span_recall.thisN,span_recall.thisIndex,span_recall.ran,key_resp_13.keys,key_resp_13.corr,random_loop.thisRepN,random_loop.thisTrialN,random_loop.thisN,random_loop.thisIndex,random_loop.ran,key_resp_13.rt,key_resp_12.keys,key_resp_12.rt
space,20.3465,space,17.1112,space,10.1818,0,0,0,0,1,X V Q F H G B L J M P D K C T S W R N Z,5f120c9ff7955b128346ea12,21,Mężczyzna,2022-06-11_09h41.30.315,task,2021.1.4,Win32,59.99520038,6299f149e92ead563fba08ef,62a4471e3649a9bd57c82389,,,,,,,,,,,,,,,,,,,,,,,,,,,,,,,,,,,,,,,,,,,,,,,,,,,,,,,,,,,,,,,,,,,,,,,,,,,,,,,,,,,,,,,,,,,,,,,,,,,,,
,,,,,,1,0,1,0,1,X V Q F H G B L J M P D K C T S W R N Z,5f120c9ff7955b128346ea12,21,Mężczyzna,2022-06-11_09h41.30.315,task,2021.1.4,Win32,59.99520038,6299f149e92ead563fba08ef,62a4471e3649a9bd57c82389,,,,,,,,,,,,,,,,,,,,,,,,,,,,,,,,,,,,,,,,,,,,,,,,,,,,,,,,,,,,,,,,,,,,,,,,,,,,,,,,,,,,,,,,,,,,,,,,,,,,,
,,,,,,,,,,,,5f120c9ff7955b128346ea12,21,Mężczyzna,2022-06-11_09h41.30.315,task,2021.1.4,Win32,59.99520038,6299f149e92ead563fba08ef,62a4471e3649a9bd57c82389,zk,"[""z"",""k""]","[2.157600000023841,2.741600000023837,13.004300000011924]",1,ZK,0,0,0,0,1,,,,,,,,,,,,,,,,,,,,,,,,,,,,,,,,,,,,,,,,,,,,,,,,,,,,,,,,,,,,,,,,,,,,,,,,,,,,,,,,,,,,,,,,,,,
,,,,,,0,0,0,0,1,X V Q F H G B L J M P D K C T S W R N Z,5f120c9ff7955b128346ea12,21,Mężczyzna,2022-06-11_09h41.30.315,task,2021.1.4,Win32,59.99520038,6299f149e92ead563fba08ef,62a4471e3649a9bd57c82389,,,,,,,,,,,,,,,,,,,,,,,,,,,,,,,,,,,,,,,,,,,,,,,,,,,,,,,,,,,,,,,,,,,,,,,,,,,,,,,,,,,,,,,,,,,,,,,,,,,,,
,,,,,,1,0,1,0,1,X V Q F H G B L J M P D K C T S W R N Z,5f120c9ff7955b128346ea12,21,Mężczyzna,2022-06-11_09h41.30.315,task,2021.1.4,Win32,59.99520038,6299f149e92ead563fba08ef,62a4471e3649a9bd57c82389,,,,,,,,,,,,,,,,,,,,,,,,,,,,,,,,,,,,,,,,,,,,,,,,,,,,,,,,,,,,,,,,,,,,,,,,,,,,,,,,,,,,,,,,,,,,,,,,,,,,,
,,,,,,,,,,,,5f120c9ff7955b128346ea12,21,Mężczyzna,2022-06-11_09h41.30.315,task,2021.1.4,Win32,59.99520038,6299f149e92ead563fba08ef,62a4471e3649a9bd57c82389,xc,"[""x"",""c""]","[1.8710000000000093,2.095599999964236,2.3990999999642355]",1,XC,1,0,1,0,1,,,,,,,,,,,,,,,,,,,,,,,,,,,,,,,,,,,,,,,,,,,,,,,,,,,,,,,,,,,,,,,,,,,,,,,,,,,,,,,,,,,,,,,,,,,
,,,,,,0,0,0,0,1,X V Q F H G B L J M P D K C T S W R N Z,5f120c9ff7955b128346ea12,21,Mężczyzna,2022-06-11_09h41.30.315,task,2021.1.4,Win32,59.99520038,6299f149e92ead563fba08ef,62a4471e3649a9bd57c82389,,,,,,,,,,,,,,,,,,,,,,,,,,,,,,,,,,,,,,,,,,,,,,,,,,,,,,,,,,,,,,,,,,,,,,,,,,,,,,,,,,,,,,,,,,,,,,,,,,,,,
,,,,,,1,0,1,0,1,X V Q F H G B L J M P D K C T S W R N Z,5f120c9ff7955b128346ea12,21,Mężczyzna,2022-06-11_09h41.30.315,task,2021.1.4,Win32,59.99520038,6299f149e92ead563fba08ef,62a4471e3649a9bd57c82389,,,,,,,,,,,,,,,,,,,,,,,,,,,,,,,,,,,,,,,,,,,,,,,,,,,,,,,,,,,,,,,,,,,,,,,,,,,,,,,,,,,,,,,,,,,,,,,,,,,,,
,,,,,,2,0,2,0,1,X V Q F H G B L J M P D K C T S W R N Z,5f120c9ff7955b128346ea12,21,Mężczyzna,2022-06-11_09h41.30.315,task,2021.1.4,Win32,59.99520038,6299f149e92ead563fba08ef,62a4471e3649a9bd57c82389,,,,,,,,,,,,,,,,,,,,,,,,,,,,,,,,,,,,,,,,,,,,,,,,,,,,,,,,,,,,,,,,,,,,,,,,,,,,,,,,,,,,,,,,,,,,,,,,,,,,,
,,,,,,,,,,,,5f120c9ff7955b128346ea12,21,Mężczyzna,2022-06-11_09h41.30.315,task,2021.1.4,Win32,59.99520038,6299f149e92ead563fba08ef,62a4471e3649a9bd57c82389,jrj,"[""j"",""r"",""j""]","[0.7884999999999991,0.9180000000000064,1.0200000000000102,2.076999999999998]",1,JRJ,2,0,2,0,1,,,,,,,,,,,,,,,,,,,,,,,,,,,,,,,,,,,,,,,,,,,,,,,,,,,,,,,,,,,,,,,,,,,,,,,,,,,,,,,,,,,,,,,,,,,
,,,,,,0,0,0,0,1,X V Q F H G B L J M P D K C T S W R N Z,5f120c9ff7955b128346ea12,21,Mężczyzna,2022-06-11_09h41.30.315,task,2021.1.4,Win32,59.99520038,6299f149e92ead563fba08ef,62a4471e3649a9bd57c82389,,,,,,,,,,,,,,,,,,,,,,,,,,,,,,,,,,,,,,,,,,,,,,,,,,,,,,,,,,,,,,,,,,,,,,,,,,,,,,,,,,,,,,,,,,,,,,,,,,,,,
,,,,,,1,0,1,0,1,X V Q F H G B L J M P D K C T S W R N Z,5f120c9ff7955b128346ea12,21,Mężczyzna,2022-06-11_09h41.30.315,task,2021.1.4,Win32,59.99520038,6299f149e92ead563fba08ef,62a4471e3649a9bd57c82389,,,,,,,,,,,,,,,,,,,,,,,,,,,,,,,,,,,,,,,,,,,,,,,,,,,,,,,,,,,,,,,,,,,,,,,,,,,,,,,,,,,,,,,,,,,,,,,,,,,,,
,,,,,,2,0,2,0,1,X V Q F H G B L J M P D K C T S W R N Z,5f120c9ff7955b128346ea12,21,Mężczyzna,2022-06-11_09h41.30.315,task,2021.1.4,Win32,59.99520038,6299f149e92ead563fba08ef,62a4471e3649a9bd57c82389,,,,,,,,,,,,,,,,,,,,,,,,,,,,,,,,,,,,,,,,,,,,,,,,,,,,,,,,,,,,,,,,,,,,,,,,,,,,,,,,,,,,,,,,,,,,,,,,,,,,,
,,,,,,,,,,,,5f120c9ff7955b128346ea12,21,Mężczyzna,2022-06-11_09h41.30.315,task,2021.1.4,Win32,59.99520038,6299f149e92ead563fba08ef,62a4471e3649a9bd57c82389,sbd,"[""s"",""b"",""d""]","[0.6946999999880745,1.7524000000357631,1.990900000035765,2.803300000011916]",1,SBD,3,0,3,0,1,,,,,,,,,,,,,,,,,,,,,,,,,,,,,,,,,,,,,,,,,,,,,,,,,,,,,,,,,,,,,,,,,,,,,,,,,,,,,,,,,,,,,,,,,,,
,,,,,,0,0,0,0,1,X V Q F H G B L J M P D K C T S W R N Z,5f120c9ff7955b128346ea12,21,Mężczyzna,2022-06-11_09h41.30.315,task,2021.1.4,Win32,59.99520038,6299f149e92ead563fba08ef,62a4471e3649a9bd57c82389,,,,,,,,,,,,,,,,,,,,,,,,,,,,,,,,,,,,,,,,,,,,,,,,,,,,,,,,,,,,,,,,,,,,,,,,,,,,,,,,,,,,,,,,,,,,,,,,,,,,,
,,,,,,1,0,1,0,1,X V Q F H G B L J M P D K C T S W R N Z,5f120c9ff7955b128346ea12,21,Mężczyzna,2022-06-11_09h41.30.315,task,2021.1.4,Win32,59.99520038,6299f149e92ead563fba08ef,62a4471e3649a9bd57c82389,,,,,,,,,,,,,,,,,,,,,,,,,,,,,,,,,,,,,,,,,,,,,,,,,,,,,,,,,,,,,,,,,,,,,,,,,,,,,,,,,,,,,,,,,,,,,,,,,,,,,
,,,,,,2,0,2,0,1,X V Q F H G B L J M P D K C T S W R N Z,5f120c9ff7955b128346ea12,21,Mężczyzna,2022-06-11_09h41.30.315,task,2021.1.4,Win32,59.99520038,6299f149e92ead563fba08ef,62a4471e3649a9bd57c82389,,,,,,,,,,,,,,,,,,,,,,,,,,,,,,,,,,,,,,,,,,,,,,,,,,,,,,,,,,,,,,,,,,,,,,,,,,,,,,,,,,,,,,,,,,,,,,,,,,,,,
,,,,,,3,0,3,0,1,X V Q F H G B L J M P D K C T S W R N Z,5f120c9ff7955b128346ea12,21,Mężczyzna,2022-06-11_09h41.30.315,task,2021.1.4,Win32,59.99520038,6299f149e92ead563fba08ef,62a4471e3649a9bd57c82389,,,,,,,,,,,,,,,,,,,,,,,,,,,,,,,,,,,,,,,,,,,,,,,,,,,,,,,,,,,,,,,,,,,,,,,,,,,,,,,,,,,,,,,,,,,,,,,,,,,,,
,,,,,,,,,,,,5f120c9ff7955b128346ea12,21,Mężczyzna,2022-06-11_09h41.30.315,task,2021.1.4,Win32,59.99520038,6299f149e92ead563fba08ef,62a4471e3649a9bd57c82389,ksdg,"[""k"",""s"",""d"",""g""]","[0.7578999999761606,0.9658000000119245,1.3511999999880828,1.597899999976164,11.574099999964247]",1,KSDG,4,0,4,0,1,,,,,,,,,,,,,,,,,,,,,,,,,,,,,,,,,,,,,,,,,,,,,,,,,,,,,,,,,,,,,,,,,,,,,,,,,,,,,,,,,,,,,,,,,,,
,,,,,,0,0,0,0,1,X V Q F H G B L J M P D K C T S W R N Z,5f120c9ff7955b128346ea12,21,Mężczyzna,2022-06-11_09h41.30.315,task,2021.1.4,Win32,59.99520038,6299f149e92ead563fba08ef,62a4471e3649a9bd57c82389,,,,,,,,,,,,,,,,,,,,,,,,,,,,,,,,,,,,,,,,,,,,,,,,,,,,,,,,,,,,,,,,,,,,,,,,,,,,,,,,,,,,,,,,,,,,,,,,,,,,,
,,,,,,1,0,1,0,1,X V Q F H G B L J M P D K C T S W R N Z,5f120c9ff7955b128346ea12,21,Mężczyzna,2022-06-11_09h41.30.315,task,2021.1.4,Win32,59.99520038,6299f149e92ead563fba08ef,62a4471e3649a9bd57c82389,,,,,,,,,,,,,,,,,,,,,,,,,,,,,,,,,,,,,,,,,,,,,,,,,,,,,,,,,,,,,,,,,,,,,,,,,,,,,,,,,,,,,,,,,,,,,,,,,,,,,
,,,,,,2,0,2,0,1,X V Q F H G B L J M P D K C T S W R N Z,5f120c9ff7955b128346ea12,21,Mężczyzna,2022-06-11_09h41.30.315,task,2021.1.4,Win32,59.99520038,6299f149e92ead563fba08ef,62a4471e3649a9bd57c82389,,,,,,,,,,,,,,,,,,,,,,,,,,,,,,,,,,,,,,,,,,,,,,,,,,,,,,,,,,,,,,,,,,,,,,,,,,,,,,,,,,,,,,,,,,,,,,,,,,,,,
,,,,,,3,0,3,0,1,X V Q F H G B L J M P D K C T S W R N Z,5f120c9ff7955b128346ea12,21,Mężczyzna,2022-06-11_09h41.30.315,task,2021.1.4,Win32,59.99520038,6299f149e92ead563fba08ef,62a4471e3649a9bd57c82389,,,,,,,,,,,,,,,,,,,,,,,,,,,,,,,,,,,,,,,,,,,,,,,,,,,,,,,,,,,,,,,,,,,,,,,,,,,,,,,,,,,,,,,,,,,,,,,,,,,,,
,,,,,,,,,,,,5f120c9ff7955b128346ea12,21,Mężczyzna,2022-06-11_09h41.30.315,task,2021.1.4,Win32,59.99520038,6299f149e92ead563fba08ef,62a4471e3649a9bd57c82389,dcxz,"[""d"",""c"",""x"",""z""]","[1.4055999999642381,1.8375000000000057,2.3738999999761603,2.6053000000119226,3.4375]",1,DCXZ,5,0,5,0,1,,,,,,,,,,,,,,,,,,,,,,,,,,,,,,,,,,,,,,,,,,,,,,,,,,,,,,,,,,,,,,,,,,,,,,,,,,,,,,,,,,,,,,,,,,,
,,,,,,0,0,0,0,1,X V Q F H G B L J M P D K C T S W R N Z,5f120c9ff7955b128346ea12,21,Mężczyzna,2022-06-11_09h41.30.315,task,2021.1.4,Win32,59.99520038,6299f149e92ead563fba08ef,62a4471e3649a9bd57c82389,,,,,,,,,,,,,,,,,,,,,,,,,,,,,,,,,,,,,,,,,,,,,,,,,,,,,,,,,,,,,,,,,,,,,,,,,,,,,,,,,,,,,,,,,,,,,,,,,,,,,
,,,,,,1,0,1,0,1,X V Q F H G B L J M P D K C T S W R N Z,5f120c9ff7955b128346ea12,21,Mężczyzna,2022-06-11_09h41.30.315,task,2021.1.4,Win32,59.99520038,6299f149e92ead563fba08ef,62a4471e3649a9bd57c82389,,,,,,,,,,,,,,,,,,,,,,,,,,,,,,,,,,,,,,,,,,,,,,,,,,,,,,,,,,,,,,,,,,,,,,,,,,,,,,,,,,,,,,,,,,,,,,,,,,,,,
,,,,,,2,0,2,0,1,X V Q F H G B L J M P D K C T S W R N Z,5f120c9ff7955b128346ea12,21,Mężczyzna,2022-06-11_09h41.30.315,task,2021.1.4,Win32,59.99520038,6299f149e92ead563fba08ef,62a4471e3649a9bd57c82389,,,,,,,,,,,,,,,,,,,,,,,,,,,,,,,,,,,,,,,,,,,,,,,,,,,,,,,,,,,,,,,,,,,,,,,,,,,,,,,,,,,,,,,,,,,,,,,,,,,,,
,,,,,,3,0,3,0,1,X V Q F H G B L J M P D K C T S W R N Z,5f120c9ff7955b128346ea12,21,Mężczyzna,2022-06-11_09h41.30.315,task,2021.1.4,Win32,59.99520038,6299f149e92ead563fba08ef,62a4471e3649a9bd57c82389,,,,,,,,,,,,,,,,,,,,,,,,,,,,,,,,,,,,,,,,,,,,,,,,,,,,,,,,,,,,,,,,,,,,,,,,,,,,,,,,,,,,,,,,,,,,,,,,,,,,,
,,,,,,4,0,4,0,1,X V Q F H G B L J M P D K C T S W R N Z,5f120c9ff7955b128346ea12,21,Mężczyzna,2022-06-11_09h41.30.315,task,2021.1.4,Win32,59.99520038,6299f149e92ead563fba08ef,62a4471e3649a9bd57c82389,,,,,,,,,,,,,,,,,,,,,,,,,,,,,,,,,,,,,,,,,,,,,,,,,,,,,,,,,,,,,,,,,,,,,,,,,,,,,,,,,,,,,,,,,,,,,,,,,,,,,
,,,,,,,,,,,,5f120c9ff7955b128346ea12,21,Mężczyzna,2022-06-11_09h41.30.315,task,2021.1.4,Win32,59.99520038,6299f149e92ead563fba08ef,62a4471e3649a9bd57c82389,cfmvk,"[""c"",""f"",""m"",""v"",""k""]","[0.8529999999999944,1.0682999999523162,1.7091999999880727,2.086099999964233,2.5174999999999983,2.781499999999994]",1,CFMVK,6,0,6,0,1,,,,,,,,,,,,,,,,,,,,,,,,,,,,,,,,,,,,,,,,,,,,,,,,,,,,,,,,,,,,,,,,,,,,,,,,,,,,,,,,,,,,,,,,,,,
,,,,,,0,0,0,0,1,X V Q F H G B L J M P D K C T S W R N Z,5f120c9ff7955b128346ea12,21,Mężczyzna,2022-06-11_09h41.30.315,task,2021.1.4,Win32,59.99520038,6299f149e92ead563fba08ef,62a4471e3649a9bd57c82389,,,,,,,,,,,,,,,,,,,,,,,,,,,,,,,,,,,,,,,,,,,,,,,,,,,,,,,,,,,,,,,,,,,,,,,,,,,,,,,,,,,,,,,,,,,,,,,,,,,,,
,,,,,,1,0,1,0,1,X V Q F H G B L J M P D K C T S W R N Z,5f120c9ff7955b128346ea12,21,Mężczyzna,2022-06-11_09h41.30.315,task,2021.1.4,Win32,59.99520038,6299f149e92ead563fba08ef,62a4471e3649a9bd57c82389,,,,,,,,,,,,,,,,,,,,,,,,,,,,,,,,,,,,,,,,,,,,,,,,,,,,,,,,,,,,,,,,,,,,,,,,,,,,,,,,,,,,,,,,,,,,,,,,,,,,,
,,,,,,2,0,2,0,1,X V Q F H G B L J M P D K C T S W R N Z,5f120c9ff7955b128346ea12,21,Mężczyzna,2022-06-11_09h41.30.315,task,2021.1.4,Win32,59.99520038,6299f149e92ead563fba08ef,62a4471e3649a9bd57c82389,,,,,,,,,,,,,,,,,,,,,,,,,,,,,,,,,,,,,,,,,,,,,,,,,,,,,,,,,,,,,,,,,,,,,,,,,,,,,,,,,,,,,,,,,,,,,,,,,,,,,
,,,,,,3,0,3,0,1,X V Q F H G B L J M P D K C T S W R N Z,5f120c9ff7955b128346ea12,21,Mężczyzna,2022-06-11_09h41.30.315,task,2021.1.4,Win32,59.99520038,6299f149e92ead563fba08ef,62a4471e3649a9bd57c82389,,,,,,,,,,,,,,,,,,,,,,,,,,,,,,,,,,,,,,,,,,,,,,,,,,,,,,,,,,,,,,,,,,,,,,,,,,,,,,,,,,,,,,,,,,,,,,,,,,,,,
,,,,,,4,0,4,0,1,X V Q F H G B L J M P D K C T S W R N Z,5f120c9ff7955b128346ea12,21,Mężczyzna,2022-06-11_09h41.30.315,task,2021.1.4,Win32,59.99520038,6299f149e92ead563fba08ef,62a4471e3649a9bd57c82389,,,,,,,,,,,,,,,,,,,,,,,,,,,,,,,,,,,,,,,,,,,,,,,,,,,,,,,,,,,,,,,,,,,,,,,,,,,,,,,,,,,,,,,,,,,,,,,,,,,,,
,,,,,,,,,,,,5f120c9ff7955b128346ea12,21,Mężczyzna,2022-06-11_09h41.30.315,task,2021.1.4,Win32,59.99520038,6299f149e92ead563fba08ef,62a4471e3649a9bd57c82389,clwln,"[""c"",""l"",""w"",""l"",""n""]","[1.0873999999761566,1.5852999999523263,2.087299999952336,2.569500000000005,2.968099999964238,3.551899999976172]",1,CLWLN,7,0,7,0,1,,,,,,,,,,,,,,,,,,,,,,,,,,,,,,,,,,,,,,,,,,,,,,,,,,,,,,,,,,,,,,,,,,,,,,,,,,,,,,,,,,,,,,,,,,,
,,,,,,0,0,0,0,1,X V Q F H G B L J M P D K C T S W R N Z,5f120c9ff7955b128346ea12,21,Mężczyzna,2022-06-11_09h41.30.315,task,2021.1.4,Win32,59.99520038,6299f149e92ead563fba08ef,62a4471e3649a9bd57c82389,,,,,,,,,,,,,,,,,,,,,,,,,,,,,,,,,,,,,,,,,,,,,,,,,,,,,,,,,,,,,,,,,,,,,,,,,,,,,,,,,,,,,,,,,,,,,,,,,,,,,
,,,,,,1,0,1,0,1,X V Q F H G B L J M P D K C T S W R N Z,5f120c9ff7955b128346ea12,21,Mężczyzna,2022-06-11_09h41.30.315,task,2021.1.4,Win32,59.99520038,6299f149e92ead563fba08ef,62a4471e3649a9bd57c82389,,,,,,,,,,,,,,,,,,,,,,,,,,,,,,,,,,,,,,,,,,,,,,,,,,,,,,,,,,,,,,,,,,,,,,,,,,,,,,,,,,,,,,,,,,,,,,,,,,,,,
,,,,,,2,0,2,0,1,X V Q F H G B L J M P D K C T S W R N Z,5f120c9ff7955b128346ea12,21,Mężczyzna,2022-06-11_09h41.30.315,task,2021.1.4,Win32,59.99520038,6299f149e92ead563fba08ef,62a4471e3649a9bd57c82389,,,,,,,,,,,,,,,,,,,,,,,,,,,,,,,,,,,,,,,,,,,,,,,,,,,,,,,,,,,,,,,,,,,,,,,,,,,,,,,,,,,,,,,,,,,,,,,,,,,,,
,,,,,,3,0,3,0,1,X V Q F H G B L J M P D K C T S W R N Z,5f120c9ff7955b128346ea12,21,Mężczyzna,2022-06-11_09h41.30.315,task,2021.1.4,Win32,59.99520038,6299f149e92ead563fba08ef,62a4471e3649a9bd57c82389,,,,,,,,,,,,,,,,,,,,,,,,,,,,,,,,,,,,,,,,,,,,,,,,,,,,,,,,,,,,,,,,,,,,,,,,,,,,,,,,,,,,,,,,,,,,,,,,,,,,,
,,,,,,4,0,4,0,1,X V Q F H G B L J M P D K C T S W R N Z,5f120c9ff7955b128346ea12,21,Mężczyzna,2022-06-11_09h41.30.315,task,2021.1.4,Win32,59.99520038,6299f149e92ead563fba08ef,62a4471e3649a9bd57c82389,,,,,,,,,,,,,,,,,,,,,,,,,,,,,,,,,,,,,,,,,,,,,,,,,,,,,,,,,,,,,,,,,,,,,,,,,,,,,,,,,,,,,,,,,,,,,,,,,,,,,
,,,,,,5,0,5,0,1,X V Q F H G B L J M P D K C T S W R N Z,5f120c9ff7955b128346ea12,21,Mężczyzna,2022-06-11_09h41.30.315,task,2021.1.4,Win32,59.99520038,6299f149e92ead563fba08ef,62a4471e3649a9bd57c82389,,,,,,,,,,,,,,,,,,,,,,,,,,,,,,,,,,,,,,,,,,,,,,,,,,,,,,,,,,,,,,,,,,,,,,,,,,,,,,,,,,,,,,,,,,,,,,,,,,,,,
,,,,,,,,,,,,5f120c9ff7955b128346ea12,21,Mężczyzna,2022-06-11_09h41.30.315,task,2021.1.4,Win32,59.99520038,6299f149e92ead563fba08ef,62a4471e3649a9bd57c82389,cmctcw,"[""c"",""m"",""c"",""t"",""c"",""w""]","[0.806099999964232,1.318399999976151,2.4028999999761425,2.957499999999982,4.725799999952301,5.021899999976142,5.685799999952309]",0,CMTCWH,8,0,8,0,1,,,,,,,,,,,,,,,,,,,,,,,,,,,,,,,,,,,,,,,,,,,,,,,,,,,,,,,,,,,,,,,,,,,,,,,,,,,,,,,,,,,,,,,,,,,
,,,,,,0,0,0,0,1,X V Q F H G B L J M P D K C T S W R N Z,5f120c9ff7955b128346ea12,21,Mężczyzna,2022-06-11_09h41.30.315,task,2021.1.4,Win32,59.99520038,6299f149e92ead563fba08ef,62a4471e3649a9bd57c82389,,,,,,,,,,,,,,,,,,,,,,,,,,,,,,,,,,,,,,,,,,,,,,,,,,,,,,,,,,,,,,,,,,,,,,,,,,,,,,,,,,,,,,,,,,,,,,,,,,,,,
,,,,,,1,0,1,0,1,X V Q F H G B L J M P D K C T S W R N Z,5f120c9ff7955b128346ea12,21,Mężczyzna,2022-06-11_09h41.30.315,task,2021.1.4,Win32,59.99520038,6299f149e92ead563fba08ef,62a4471e3649a9bd57c82389,,,,,,,,,,,,,,,,,,,,,,,,,,,,,,,,,,,,,,,,,,,,,,,,,,,,,,,,,,,,,,,,,,,,,,,,,,,,,,,,,,,,,,,,,,,,,,,,,,,,,
,,,,,,2,0,2,0,1,X V Q F H G B L J M P D K C T S W R N Z,5f120c9ff7955b128346ea12,21,Mężczyzna,2022-06-11_09h41.30.315,task,2021.1.4,Win32,59.99520038,6299f149e92ead563fba08ef,62a4471e3649a9bd57c82389,,,,,,,,,,,,,,,,,,,,,,,,,,,,,,,,,,,,,,,,,,,,,,,,,,,,,,,,,,,,,,,,,,,,,,,,,,,,,,,,,,,,,,,,,,,,,,,,,,,,,
,,,,,,3,0,3,0,1,X V Q F H G B L J M P D K C T S W R N Z,5f120c9ff7955b128346ea12,21,Mężczyzna,2022-06-11_09h41.30.315,task,2021.1.4,Win32,59.99520038,6299f149e92ead563fba08ef,62a4471e3649a9bd57c82389,,,,,,,,,,,,,,,,,,,,,,,,,,,,,,,,,,,,,,,,,,,,,,,,,,,,,,,,,,,,,,,,,,,,,,,,,,,,,,,,,,,,,,,,,,,,,,,,,,,,,
,,,,,,4,0,4,0,1,X V Q F H G B L J M P D K C T S W R N Z,5f120c9ff7955b128346ea12,21,Mężczyzna,2022-06-11_09h41.30.315,task,2021.1.4,Win32,59.99520038,6299f149e92ead563fba08ef,62a4471e3649a9bd57c82389,,,,,,,,,,,,,,,,,,,,,,,,,,,,,,,,,,,,,,,,,,,,,,,,,,,,,,,,,,,,,,,,,,,,,,,,,,,,,,,,,,,,,,,,,,,,,,,,,,,,,
,,,,,,5,0,5,0,1,X V Q F H G B L J M P D K C T S W R N Z,5f120c9ff7955b128346ea12,21,Mężczyzna,2022-06-11_09h41.30.315,task,2021.1.4,Win32,59.99520038,6299f149e92ead563fba08ef,62a4471e3649a9bd57c82389,,,,,,,,,,,,,,,,,,,,,,,,,,,,,,,,,,,,,,,,,,,,,,,,,,,,,,,,,,,,,,,,,,,,,,,,,,,,,,,,,,,,,,,,,,,,,,,,,,,,,
,,,,,,,,,,,,5f120c9ff7955b128346ea12,21,Mężczyzna,2022-06-11_09h41.30.315,task,2021.1.4,Win32,59.99520038,6299f149e92ead563fba08ef,62a4471e3649a9bd57c82389,jxpbtw,"[""j"",""x"",""p"",""b"",""t"",""w""]","[1.94139999997617,2.5250000000000057,5.148500000000013,6.244099999964249,7.174299999952325,7.657899999976166,106.42899999999997]",1,JXPBTW,9,0,9,0,1,,,,,,,,,,,,,,,,,,,,,,,,,,,,,,,,,,,,,,,,,,,,,,,,,,,,,,,,,,,,,,,,,,,,,,,,,,,,,,,,,,,,,,,,,,,
,,,,,,0,0,0,0,1,X V Q F H G B L J M P D K C T S W R N Z,5f120c9ff7955b128346ea12,21,Mężczyzna,2022-06-11_09h41.30.315,task,2021.1.4,Win32,59.99520038,6299f149e92ead563fba08ef,62a4471e3649a9bd57c82389,,,,,,,,,,,,,,,,,,,,,,,,,,,,,,,,,,,,,,,,,,,,,,,,,,,,,,,,,,,,,,,,,,,,,,,,,,,,,,,,,,,,,,,,,,,,,,,,,,,,,
,,,,,,1,0,1,0,1,X V Q F H G B L J M P D K C T S W R N Z,5f120c9ff7955b128346ea12,21,Mężczyzna,2022-06-11_09h41.30.315,task,2021.1.4,Win32,59.99520038,6299f149e92ead563fba08ef,62a4471e3649a9bd57c82389,,,,,,,,,,,,,,,,,,,,,,,,,,,,,,,,,,,,,,,,,,,,,,,,,,,,,,,,,,,,,,,,,,,,,,,,,,,,,,,,,,,,,,,,,,,,,,,,,,,,,
,,,,,,2,0,2,0,1,X V Q F H G B L J M P D K C T S W R N Z,5f120c9ff7955b128346ea12,21,Mężczyzna,2022-06-11_09h41.30.315,task,2021.1.4,Win32,59.99520038,6299f149e92ead563fba08ef,62a4471e3649a9bd57c82389,,,,,,,,,,,,,,,,,,,,,,,,,,,,,,,,,,,,,,,,,,,,,,,,,,,,,,,,,,,,,,,,,,,,,,,,,,,,,,,,,,,,,,,,,,,,,,,,,,,,,
,,,,,,3,0,3,0,1,X V Q F H G B L J M P D K C T S W R N Z,5f120c9ff7955b128346ea12,21,Mężczyzna,2022-06-11_09h41.30.315,task,2021.1.4,Win32,59.99520038,6299f149e92ead563fba08ef,62a4471e3649a9bd57c82389,,,,,,,,,,,,,,,,,,,,,,,,,,,,,,,,,,,,,,,,,,,,,,,,,,,,,,,,,,,,,,,,,,,,,,,,,,,,,,,,,,,,,,,,,,,,,,,,,,,,,
,,,,,,4,0,4,0,1,X V Q F H G B L J M P D K C T S W R N Z,5f120c9ff7955b128346ea12,21,Mężczyzna,2022-06-11_09h41.30.315,task,2021.1.4,Win32,59.99520038,6299f149e92ead563fba08ef,62a4471e3649a9bd57c82389,,,,,,,,,,,,,,,,,,,,,,,,,,,,,,,,,,,,,,,,,,,,,,,,,,,,,,,,,,,,,,,,,,,,,,,,,,,,,,,,,,,,,,,,,,,,,,,,,,,,,
,,,,,,5,0,5,0,1,X V Q F H G B L J M P D K C T S W R N Z,5f120c9ff7955b128346ea12,21,Mężczyzna,2022-06-11_09h41.30.315,task,2021.1.4,Win32,59.99520038,6299f149e92ead563fba08ef,62a4471e3649a9bd57c82389,,,,,,,,,,,,,,,,,,,,,,,,,,,,,,,,,,,,,,,,,,,,,,,,,,,,,,,,,,,,,,,,,,,,,,,,,,,,,,,,,,,,,,,,,,,,,,,,,,,,,
,,,,,,,,,,,,5f120c9ff7955b128346ea12,21,Mężczyzna,2022-06-11_09h41.30.315,task,2021.1.4,Win32,59.99520038,6299f149e92ead563fba08ef,62a4471e3649a9bd57c82389,nbmhwm,"[""n"",""b"",""m"",""h"",""w"",""m""]","[1.4209000000357719,1.8046999999880882,2.9728000000119437,3.4775000000000205,4.045400000035784,4.8455000000000155,5.389600000023847]",1,NBMHWM,10,0,10,0,1,,,,,,,,,,,,,,,,,,,,,,,,,,,,,,,,,,,,,,,,,,,,,,,,,,,,,,,,,,,,,,,,,,,,,,,,,,,,,,,,,,,,,,,,,,,
,,,,,,0,0,0,0,1,X V Q F H G B L J M P D K C T S W R N Z,5f120c9ff7955b128346ea12,21,Mężczyzna,2022-06-11_09h41.30.315,task,2021.1.4,Win32,59.99520038,6299f149e92ead563fba08ef,62a4471e3649a9bd57c82389,,,,,,,,,,,,,,,,,,,,,,,,,,,,,,,,,,,,,,,,,,,,,,,,,,,,,,,,,,,,,,,,,,,,,,,,,,,,,,,,,,,,,,,,,,,,,,,,,,,,,
,,,,,,1,0,1,0,1,X V Q F H G B L J M P D K C T S W R N Z,5f120c9ff7955b128346ea12,21,Mężczyzna,2022-06-11_09h41.30.315,task,2021.1.4,Win32,59.99520038,6299f149e92ead563fba08ef,62a4471e3649a9bd57c82389,,,,,,,,,,,,,,,,,,,,,,,,,,,,,,,,,,,,,,,,,,,,,,,,,,,,,,,,,,,,,,,,,,,,,,,,,,,,,,,,,,,,,,,,,,,,,,,,,,,,,
,,,,,,2,0,2,0,1,X V Q F H G B L J M P D K C T S W R N Z,5f120c9ff7955b128346ea12,21,Mężczyzna,2022-06-11_09h41.30.315,task,2021.1.4,Win32,59.99520038,6299f149e92ead563fba08ef,62a4471e3649a9bd57c82389,,,,,,,,,,,,,,,,,,,,,,,,,,,,,,,,,,,,,,,,,,,,,,,,,,,,,,,,,,,,,,,,,,,,,,,,,,,,,,,,,,,,,,,,,,,,,,,,,,,,,
,,,,,,3,0,3,0,1,X V Q F H G B L J M P D K C T S W R N Z,5f120c9ff7955b128346ea12,21,Mężczyzna,2022-06-11_09h41.30.315,task,2021.1.4,Win32,59.99520038,6299f149e92ead563fba08ef,62a4471e3649a9bd57c82389,,,,,,,,,,,,,,,,,,,,,,,,,,,,,,,,,,,,,,,,,,,,,,,,,,,,,,,,,,,,,,,,,,,,,,,,,,,,,,,,,,,,,,,,,,,,,,,,,,,,,
,,,,,,4,0,4,0,1,X V Q F H G B L J M P D K C T S W R N Z,5f120c9ff7955b128346ea12,21,Mężczyzna,2022-06-11_09h41.30.315,task,2021.1.4,Win32,59.99520038,6299f149e92ead563fba08ef,62a4471e3649a9bd57c82389,,,,,,,,,,,,,,,,,,,,,,,,,,,,,,,,,,,,,,,,,,,,,,,,,,,,,,,,,,,,,,,,,,,,,,,,,,,,,,,,,,,,,,,,,,,,,,,,,,,,,
,,,,,,5,0,5,0,1,X V Q F H G B L J M P D K C T S W R N Z,5f120c9ff7955b128346ea12,21,Mężczyzna,2022-06-11_09h41.30.315,task,2021.1.4,Win32,59.99520038,6299f149e92ead563fba08ef,62a4471e3649a9bd57c82389,,,,,,,,,,,,,,,,,,,,,,,,,,,,,,,,,,,,,,,,,,,,,,,,,,,,,,,,,,,,,,,,,,,,,,,,,,,,,,,,,,,,,,,,,,,,,,,,,,,,,
,,,,,,6,0,6,0,1,X V Q F H G B L J M P D K C T S W R N Z,5f120c9ff7955b128346ea12,21,Mężczyzna,2022-06-11_09h41.30.315,task,2021.1.4,Win32,59.99520038,6299f149e92ead563fba08ef,62a4471e3649a9bd57c82389,,,,,,,,,,,,,,,,,,,,,,,,,,,,,,,,,,,,,,,,,,,,,,,,,,,,,,,,,,,,,,,,,,,,,,,,,,,,,,,,,,,,,,,,,,,,,,,,,,,,,
,,,,,,,,,,,,5f120c9ff7955b128346ea12,21,Mężczyzna,2022-06-11_09h41.30.315,task,2021.1.4,Win32,59.99520038,6299f149e92ead563fba08ef,62a4471e3649a9bd57c82389,gnbtwfp,"[""g"",""n"",""b"",""t"",""w"",""f"",""p""]","[0.9309999999999832,1.3378999999761163,1.962800000011896,2.4661000000238005,3.070399999976132,3.7374999999999545,5.2393000000118946,5.362199999988036]",1,GNBTWFP,11,0,11,0,1,,,,,,,,,,,,,,,,,,,,,,,,,,,,,,,,,,,,,,,,,,,,,,,,,,,,,,,,,,,,,,,,,,,,,,,,,,,,,,,,,,,,,,,,,,,
,,,,,,0,0,0,0,1,X V Q F H G B L J M P D K C T S W R N Z,5f120c9ff7955b128346ea12,21,Mężczyzna,2022-06-11_09h41.30.315,task,2021.1.4,Win32,59.99520038,6299f149e92ead563fba08ef,62a4471e3649a9bd57c82389,,,,,,,,,,,,,,,,,,,,,,,,,,,,,,,,,,,,,,,,,,,,,,,,,,,,,,,,,,,,,,,,,,,,,,,,,,,,,,,,,,,,,,,,,,,,,,,,,,,,,
,,,,,,1,0,1,0,1,X V Q F H G B L J M P D K C T S W R N Z,5f120c9ff7955b128346ea12,21,Mężczyzna,2022-06-11_09h41.30.315,task,2021.1.4,Win32,59.99520038,6299f149e92ead563fba08ef,62a4471e3649a9bd57c82389,,,,,,,,,,,,,,,,,,,,,,,,,,,,,,,,,,,,,,,,,,,,,,,,,,,,,,,,,,,,,,,,,,,,,,,,,,,,,,,,,,,,,,,,,,,,,,,,,,,,,
,,,,,,2,0,2,0,1,X V Q F H G B L J M P D K C T S W R N Z,5f120c9ff7955b128346ea12,21,Mężczyzna,2022-06-11_09h41.30.315,task,2021.1.4,Win32,59.99520038,6299f149e92ead563fba08ef,62a4471e3649a9bd57c82389,,,,,,,,,,,,,,,,,,,,,,,,,,,,,,,,,,,,,,,,,,,,,,,,,,,,,,,,,,,,,,,,,,,,,,,,,,,,,,,,,,,,,,,,,,,,,,,,,,,,,
,,,,,,3,0,3,0,1,X V Q F H G B L J M P D K C T S W R N Z,5f120c9ff7955b128346ea12,21,Mężczyzna,2022-06-11_09h41.30.315,task,2021.1.4,Win32,59.99520038,6299f149e92ead563fba08ef,62a4471e3649a9bd57c82389,,,,,,,,,,,,,,,,,,,,,,,,,,,,,,,,,,,,,,,,,,,,,,,,,,,,,,,,,,,,,,,,,,,,,,,,,,,,,,,,,,,,,,,,,,,,,,,,,,,,,
,,,,,,4,0,4,0,1,X V Q F H G B L J M P D K C T S W R N Z,5f120c9ff7955b128346ea12,21,Mężczyzna,2022-06-11_09h41.30.315,task,2021.1.4,Win32,59.99520038,6299f149e92ead563fba08ef,62a4471e3649a9bd57c82389,,,,,,,,,,,,,,,,,,,,,,,,,,,,,,,,,,,,,,,,,,,,,,,,,,,,,,,,,,,,,,,,,,,,,,,,,,,,,,,,,,,,,,,,,,,,,,,,,,,,,
,,,,,,5,0,5,0,1,X V Q F H G B L J M P D K C T S W R N Z,5f120c9ff7955b128346ea12,21,Mężczyzna,2022-06-11_09h41.30.315,task,2021.1.4,Win32,59.99520038,6299f149e92ead563fba08ef,62a4471e3649a9bd57c82389,,,,,,,,,,,,,,,,,,,,,,,,,,,,,,,,,,,,,,,,,,,,,,,,,,,,,,,,,,,,,,,,,,,,,,,,,,,,,,,,,,,,,,,,,,,,,,,,,,,,,
,,,,,,6,0,6,0,1,X V Q F H G B L J M P D K C T S W R N Z,5f120c9ff7955b128346ea12,21,Mężczyzna,2022-06-11_09h41.30.315,task,2021.1.4,Win32,59.99520038,6299f149e92ead563fba08ef,62a4471e3649a9bd57c82389,,,,,,,,,,,,,,,,,,,,,,,,,,,,,,,,,,,,,,,,,,,,,,,,,,,,,,,,,,,,,,,,,,,,,,,,,,,,,,,,,,,,,,,,,,,,,,,,,,,,,
,,,,,,,,,,,,5f120c9ff7955b128346ea12,21,Mężczyzna,2022-06-11_09h41.30.315,task,2021.1.4,Win32,59.99520038,6299f149e92ead563fba08ef,62a4471e3649a9bd57c82389,bthqpjz,"[""b"",""t"",""h"",""q"",""p"",""j"",""z""]","[1.1292000000476605,1.2808000000119364,1.5285000000000082,3.0872000000476874,4.016200000047661,4.905800000011936,5.032700000047669,143.32690000003578]",1,BTHQPJZ,12,0,12,0,1,,,,,,,,,,,,,,,,,,,,,,,,,,,,,,,,,,,,,,,,,,,,,,,,,,,,,,,,,,,,,,,,,,,,,,,,,,,,,,,,,,,,,,,,,,,
,,,,,,0,0,0,0,1,X V Q F H G B L J M P D K C T S W R N Z,5f120c9ff7955b128346ea12,21,Mężczyzna,2022-06-11_09h41.30.315,task,2021.1.4,Win32,59.99520038,6299f149e92ead563fba08ef,62a4471e3649a9bd57c82389,,,,,,,,,,,,,,,,,,,,,,,,,,,,,,,,,,,,,,,,,,,,,,,,,,,,,,,,,,,,,,,,,,,,,,,,,,,,,,,,,,,,,,,,,,,,,,,,,,,,,
,,,,,,1,0,1,0,1,X V Q F H G B L J M P D K C T S W R N Z,5f120c9ff7955b128346ea12,21,Mężczyzna,2022-06-11_09h41.30.315,task,2021.1.4,Win32,59.99520038,6299f149e92ead563fba08ef,62a4471e3649a9bd57c82389,,,,,,,,,,,,,,,,,,,,,,,,,,,,,,,,,,,,,,,,,,,,,,,,,,,,,,,,,,,,,,,,,,,,,,,,,,,,,,,,,,,,,,,,,,,,,,,,,,,,,
,,,,,,2,0,2,0,1,X V Q F H G B L J M P D K C T S W R N Z,5f120c9ff7955b128346ea12,21,Mężczyzna,2022-06-11_09h41.30.315,task,2021.1.4,Win32,59.99520038,6299f149e92ead563fba08ef,62a4471e3649a9bd57c82389,,,,,,,,,,,,,,,,,,,,,,,,,,,,,,,,,,,,,,,,,,,,,,,,,,,,,,,,,,,,,,,,,,,,,,,,,,,,,,,,,,,,,,,,,,,,,,,,,,,,,
,,,,,,3,0,3,0,1,X V Q F H G B L J M P D K C T S W R N Z,5f120c9ff7955b128346ea12,21,Mężczyzna,2022-06-11_09h41.30.315,task,2021.1.4,Win32,59.99520038,6299f149e92ead563fba08ef,62a4471e3649a9bd57c82389,,,,,,,,,,,,,,,,,,,,,,,,,,,,,,,,,,,,,,,,,,,,,,,,,,,,,,,,,,,,,,,,,,,,,,,,,,,,,,,,,,,,,,,,,,,,,,,,,,,,,
,,,,,,4,0,4,0,1,X V Q F H G B L J M P D K C T S W R N Z,5f120c9ff7955b128346ea12,21,Mężczyzna,2022-06-11_09h41.30.315,task,2021.1.4,Win32,59.99520038,6299f149e92ead563fba08ef,62a4471e3649a9bd57c82389,,,,,,,,,,,,,,,,,,,,,,,,,,,,,,,,,,,,,,,,,,,,,,,,,,,,,,,,,,,,,,,,,,,,,,,,,,,,,,,,,,,,,,,,,,,,,,,,,,,,,
,,,,,,5,0,5,0,1,X V Q F H G B L J M P D K C T S W R N Z,5f120c9ff7955b128346ea12,21,Mężczyzna,2022-06-11_09h41.30.315,task,2021.1.4,Win32,59.99520038,6299f149e92ead563fba08ef,62a4471e3649a9bd57c82389,,,,,,,,,,,,,,,,,,,,,,,,,,,,,,,,,,,,,,,,,,,,,,,,,,,,,,,,,,,,,,,,,,,,,,,,,,,,,,,,,,,,,,,,,,,,,,,,,,,,,
,,,,,,6,0,6,0,1,X V Q F H G B L J M P D K C T S W R N Z,5f120c9ff7955b128346ea12,21,Mężczyzna,2022-06-11_09h41.30.315,task,2021.1.4,Win32,59.99520038,6299f149e92ead563fba08ef,62a4471e3649a9bd57c82389,,,,,,,,,,,,,,,,,,,,,,,,,,,,,,,,,,,,,,,,,,,,,,,,,,,,,,,,,,,,,,,,,,,,,,,,,,,,,,,,,,,,,,,,,,,,,,,,,,,,,
,,,,,,7,0,7,0,1,X V Q F H G B L J M P D K C T S W R N Z,5f120c9ff7955b128346ea12,21,Mężczyzna,2022-06-11_09h41.30.315,task,2021.1.4,Win32,59.99520038,6299f149e92ead563fba08ef,62a4471e3649a9bd57c82389,,,,,,,,,,,,,,,,,,,,,,,,,,,,,,,,,,,,,,,,,,,,,,,,,,,,,,,,,,,,,,,,,,,,,,,,,,,,,,,,,,,,,,,,,,,,,,,,,,,,,
,,,,,,,,,,,,5f120c9ff7955b128346ea12,21,Mężczyzna,2022-06-11_09h41.30.315,task,2021.1.4,Win32,59.99520038,6299f149e92ead563fba08ef,62a4471e3649a9bd57c82389,jqnthjqhz,"[""j"",""q"",""n"",""t"",""h"",""j"",""q"",""h"",""z""]","[0.5115000000000123,1.0793999999761468,1.7024999999999864,2.3192999999523067,3.0310999999642263,3.9112999999522913,4.7275000000000205,5.358599999964213,6.039799999952322,6.391699999988077]",0,JQNTHJZH,13,0,13,0,1,,,,,,,,,,,,,,,,,,,,,,,,,,,,,,,,,,,,,,,,,,,,,,,,,,,,,,,,,,,,,,,,,,,,,,,,,,,,,,,,,,,,,,,,,,,
,,,,,,0,0,0,0,1,X V Q F H G B L J M P D K C T S W R N Z,5f120c9ff7955b128346ea12,21,Mężczyzna,2022-06-11_09h41.30.315,task,2021.1.4,Win32,59.99520038,6299f149e92ead563fba08ef,62a4471e3649a9bd57c82389,,,,,,,,,,,,,,,,,,,,,,,,,,,,,,,,,,,,,,,,,,,,,,,,,,,,,,,,,,,,,,,,,,,,,,,,,,,,,,,,,,,,,,,,,,,,,,,,,,,,,
,,,,,,1,0,1,0,1,X V Q F H G B L J M P D K C T S W R N Z,5f120c9ff7955b128346ea12,21,Mężczyzna,2022-06-11_09h41.30.315,task,2021.1.4,Win32,59.99520038,6299f149e92ead563fba08ef,62a4471e3649a9bd57c82389,,,,,,,,,,,,,,,,,,,,,,,,,,,,,,,,,,,,,,,,,,,,,,,,,,,,,,,,,,,,,,,,,,,,,,,,,,,,,,,,,,,,,,,,,,,,,,,,,,,,,
,,,,,,2,0,2,0,1,X V Q F H G B L J M P D K C T S W R N Z,5f120c9ff7955b128346ea12,21,Mężczyzna,2022-06-11_09h41.30.315,task,2021.1.4,Win32,59.99520038,6299f149e92ead563fba08ef,62a4471e3649a9bd57c82389,,,,,,,,,,,,,,,,,,,,,,,,,,,,,,,,,,,,,,,,,,,,,,,,,,,,,,,,,,,,,,,,,,,,,,,,,,,,,,,,,,,,,,,,,,,,,,,,,,,,,
,,,,,,3,0,3,0,1,X V Q F H G B L J M P D K C T S W R N Z,5f120c9ff7955b128346ea12,21,Mężczyzna,2022-06-11_09h41.30.315,task,2021.1.4,Win32,59.99520038,6299f149e92ead563fba08ef,62a4471e3649a9bd57c82389,,,,,,,,,,,,,,,,,,,,,,,,,,,,,,,,,,,,,,,,,,,,,,,,,,,,,,,,,,,,,,,,,,,,,,,,,,,,,,,,,,,,,,,,,,,,,,,,,,,,,
,,,,,,4,0,4,0,1,X V Q F H G B L J M P D K C T S W R N Z,5f120c9ff7955b128346ea12,21,Mężczyzna,2022-06-11_09h41.30.315,task,2021.1.4,Win32,59.99520038,6299f149e92ead563fba08ef,62a4471e3649a9bd57c82389,,,,,,,,,,,,,,,,,,,,,,,,,,,,,,,,,,,,,,,,,,,,,,,,,,,,,,,,,,,,,,,,,,,,,,,,,,,,,,,,,,,,,,,,,,,,,,,,,,,,,
,,,,,,5,0,5,0,1,X V Q F H G B L J M P D K C T S W R N Z,5f120c9ff7955b128346ea12,21,Mężczyzna,2022-06-11_09h41.30.315,task,2021.1.4,Win32,59.99520038,6299f149e92ead563fba08ef,62a4471e3649a9bd57c82389,,,,,,,,,,,,,,,,,,,,,,,,,,,,,,,,,,,,,,,,,,,,,,,,,,,,,,,,,,,,,,,,,,,,,,,,,,,,,,,,,,,,,,,,,,,,,,,,,,,,,
,,,,,,6,0,6,0,1,X V Q F H G B L J M P D K C T S W R N Z,5f120c9ff7955b128346ea12,21,Mężczyzna,2022-06-11_09h41.30.315,task,2021.1.4,Win32,59.99520038,6299f149e92ead563fba08ef,62a4471e3649a9bd57c82389,,,,,,,,,,,,,,,,,,,,,,,,,,,,,,,,,,,,,,,,,,,,,,,,,,,,,,,,,,,,,,,,,,,,,,,,,,,,,,,,,,,,,,,,,,,,,,,,,,,,,
,,,,,,7,0,7,0,1,X V Q F H G B L J M P D K C T S W R N Z,5f120c9ff7955b128346ea12,21,Mężczyzna,2022-06-11_09h41.30.315,task,2021.1.4,Win32,59.99520038,6299f149e92ead563fba08ef,62a4471e3649a9bd57c82389,,,,,,,,,,,,,,,,,,,,,,,,,,,,,,,,,,,,,,,,,,,,,,,,,,,,,,,,,,,,,,,,,,,,,,,,,,,,,,,,,,,,,,,,,,,,,,,,,,,,,
,,,,,,,,,,,,5f120c9ff7955b128346ea12,21,Mężczyzna,2022-06-11_09h41.30.315,task,2021.1.4,Win32,59.99520038,6299f149e92ead563fba08ef,62a4471e3649a9bd57c82389,fbqphflm,"[""f"",""b"",""q"",""p"",""h"",""f"",""l"",""m""]","[1.5193000000119241,1.9903000000119278,2.398300000011943,3.694100000023866,4.28810000002386,7.117999999999995,10.021900000035771,10.302200000047662,10.527600000023824]",0,FBQPHFKF,14,0,14,0,1,,,,,,,,,,,,,,,,,,,,,,,,,,,,,,,,,,,,,,,,,,,,,,,,,,,,,,,,,,,,,,,,,,,,,,,,,,,,,,,,,,,,,,,,,,,
,,,,,,0,0,0,0,1,X V Q F H G B L J M P D K C T S W R N Z,5f120c9ff7955b128346ea12,21,Mężczyzna,2022-06-11_09h41.30.315,task,2021.1.4,Win32,59.99520038,6299f149e92ead563fba08ef,62a4471e3649a9bd57c82389,,,,,,,,,,,,,,,,,,,,,,,,,,,,,,,,,,,,,,,,,,,,,,,,,,,,,,,,,,,,,,,,,,,,,,,,,,,,,,,,,,,,,,,,,,,,,,,,,,,,,
,,,,,,1,0,1,0,1,X V Q F H G B L J M P D K C T S W R N Z,5f120c9ff7955b128346ea12,21,Mężczyzna,2022-06-11_09h41.30.315,task,2021.1.4,Win32,59.99520038,6299f149e92ead563fba08ef,62a4471e3649a9bd57c82389,,,,,,,,,,,,,,,,,,,,,,,,,,,,,,,,,,,,,,,,,,,,,,,,,,,,,,,,,,,,,,,,,,,,,,,,,,,,,,,,,,,,,,,,,,,,,,,,,,,,,
,,,,,,2,0,2,0,1,X V Q F H G B L J M P D K C T S W R N Z,5f120c9ff7955b128346ea12,21,Mężczyzna,2022-06-11_09h41.30.315,task,2021.1.4,Win32,59.99520038,6299f149e92ead563fba08ef,62a4471e3649a9bd57c82389,,,,,,,,,,,,,,,,,,,,,,,,,,,,,,,,,,,,,,,,,,,,,,,,,,,,,,,,,,,,,,,,,,,,,,,,,,,,,,,,,,,,,,,,,,,,,,,,,,,,,
,,,,,,3,0,3,0,1,X V Q F H G B L J M P D K C T S W R N Z,5f120c9ff7955b128346ea12,21,Mężczyzna,2022-06-11_09h41.30.315,task,2021.1.4,Win32,59.99520038,6299f149e92ead563fba08ef,62a4471e3649a9bd57c82389,,,,,,,,,,,,,,,,,,,,,,,,,,,,,,,,,,,,,,,,,,,,,,,,,,,,,,,,,,,,,,,,,,,,,,,,,,,,,,,,,,,,,,,,,,,,,,,,,,,,,
,,,,,,4,0,4,0,1,X V Q F H G B L J M P D K C T S W R N Z,5f120c9ff7955b128346ea12,21,Mężczyzna,2022-06-11_09h41.30.315,task,2021.1.4,Win32,59.99520038,6299f149e92ead563fba08ef,62a4471e3649a9bd57c82389,,,,,,,,,,,,,,,,,,,,,,,,,,,,,,,,,,,,,,,,,,,,,,,,,,,,,,,,,,,,,,,,,,,,,,,,,,,,,,,,,,,,,,,,,,,,,,,,,,,,,
,,,,,,5,0,5,0,1,X V Q F H G B L J M P D K C T S W R N Z,5f120c9ff7955b128346ea12,21,Mężczyzna,2022-06-11_09h41.30.315,task,2021.1.4,Win32,59.99520038,6299f149e92ead563fba08ef,62a4471e3649a9bd57c82389,,,,,,,,,,,,,,,,,,,,,,,,,,,,,,,,,,,,,,,,,,,,,,,,,,,,,,,,,,,,,,,,,,,,,,,,,,,,,,,,,,,,,,,,,,,,,,,,,,,,,
,,,,,,6,0,6,0,1,X V Q F H G B L J M P D K C T S W R N Z,5f120c9ff7955b128346ea12,21,Mężczyzna,2022-06-11_09h41.30.315,task,2021.1.4,Win32,59.99520038,6299f149e92ead563fba08ef,62a4471e3649a9bd57c82389,,,,,,,,,,,,,,,,,,,,,,,,,,,,,,,,,,,,,,,,,,,,,,,,,,,,,,,,,,,,,,,,,,,,,,,,,,,,,,,,,,,,,,,,,,,,,,,,,,,,,
,,,,,,7,0,7,0,1,X V Q F H G B L J M P D K C T S W R N Z,5f120c9ff7955b128346ea12,21,Mężczyzna,2022-06-11_09h41.30.315,task,2021.1.4,Win32,59.99520038,6299f149e92ead563fba08ef,62a4471e3649a9bd57c82389,,,,,,,,,,,,,,,,,,,,,,,,,,,,,,,,,,,,,,,,,,,,,,,,,,,,,,,,,,,,,,,,,,,,,,,,,,,,,,,,,,,,,,,,,,,,,,,,,,,,,
,,,,,,,,,,,,5f120c9ff7955b128346ea12,21,Mężczyzna,2022-06-11_09h41.30.315,task,2021.1.4,Win32,59.99520038,6299f149e92ead563fba08ef,62a4471e3649a9bd57c82389,grmbwhsq,"[""g"",""r"",""m"",""b"",""w"",""h"",""s"",""q""]","[2.0117000000476537,2.403500000000008,2.6112000000476883,4.621400000035749,5.282800000011889,7.435999999999979,7.741200000047684,8.292500000000018,27.283000000000015]",0,GRMBWSHQ,15,0,15,0,1,,,,,,,,,,,,,,,,,,,,,,,,,,,,,,,,,,,,,,,,,,,,,,,,,,,,,,,,,,,,,,,,,,,,,,,,,,,,,,,,,,,,,,,,,,,
,,,,,,,,,,,,5f120c9ff7955b128346ea12,21,Mężczyzna,2022-06-11_09h41.30.315,task,2021.1.4,Win32,59.99520038,6299f149e92ead563fba08ef,62a4471e3649a9bd57c82389,,,,,,,,,,,space,12.95,4,"[""4""]",1,[5.425400000035779],[5.425400000035779],0,0,0,4,1,Practice,5,(2x6) - 8,4,,,,,,,,,,,,,,,,,,,,,,,,,,,,,,,,,,,,,,,,,,,,,,,,,,,,,,,,,,,,,,,,,,,,,,,,,,,
,,,,,,,,,,,,5f120c9ff7955b128346ea12,21,Mężczyzna,2022-06-11_09h41.30.315,task,2021.1.4,Win32,59.99520038,6299f149e92ead563fba08ef,62a4471e3649a9bd57c82389,,,,,,,,,,,,,5,"[""5""]",1,[2.6443000000118673],"[5.425400000035779,2.6443000000118673]",0,1,1,5,1,Practice,6,(4/2) + 3,5,,,,,,,,,,,,,,,,,,,,,,,,,,,,,,,,,,,,,,,,,,,,,,,,,,,,,,,,,,,,,,,,,,,,,,,,,,,
,,,,,,,,,,,,5f120c9ff7955b128346ea12,21,Mężczyzna,2022-06-11_09h41.30.315,task,2021.1.4,Win32,59.99520038,6299f149e92ead563fba08ef,62a4471e3649a9bd57c82389,,,,,,,,,,,,,1,"[""1""]",1,[1.8040999999642509],"[5.425400000035779,2.6443000000118673,1.8040999999642509]",0,2,2,1,1,Practice,2,(4x4) - 15,1,,,,,,,,,,,,,,,,,,,,,,,,,,,,,,,,,,,,,,,,,,,,,,,,,,,,,,,,,,,,,,,,,,,,,,,,,,,
,,,,,,,,,,,,5f120c9ff7955b128346ea12,21,Mężczyzna,2022-06-11_09h41.30.315,task,2021.1.4,Win32,59.99520038,6299f149e92ead563fba08ef,62a4471e3649a9bd57c82389,,,,,,,,,,,,,2,"[""2""]",1,[1.9272999999523108],"[5.425400000035779,2.6443000000118673,1.8040999999642509,1.9272999999523108]",0,3,3,2,1,Practice,3,(4x4) - 14,2,,,,,,,,,,,,,,,,,,,,,,,,,,,,,,,,,,,,,,,,,,,,,,,,,,,,,,,,,,,,,,,,,,,,,,,,,,,
,,,,,,,,,,,,5f120c9ff7955b128346ea12,21,Mężczyzna,2022-06-11_09h41.30.315,task,2021.1.4,Win32,59.99520038,6299f149e92ead563fba08ef,62a4471e3649a9bd57c82389,,,,,,,,,,,,,9,"[""9""]",1,[2.953600000023812],"[5.425400000035779,2.6443000000118673,1.8040999999642509,1.9272999999523108,2.953600000023812]",0,4,4,9,1,Practice,10,(20/2) - 1,9,,,,,,,,,,,,,,,,,,,,,,,,,,,,,,,,,,,,,,,,,,,,,,,,,,,,,,,,,,,,,,,,,,,,,,,,,,,
,,,,,,,,,,,,5f120c9ff7955b128346ea12,21,Mężczyzna,2022-06-11_09h41.30.315,task,2021.1.4,Win32,59.99520038,6299f149e92ead563fba08ef,62a4471e3649a9bd57c82389,,,,,,,,,,,,,7,"[""7""]",1,[2.1598000000119555],"[5.425400000035779,2.6443000000118673,1.8040999999642509,1.9272999999523108,2.953600000023812,2.1598000000119555]",0,5,5,7,1,Practice,8,(5x5) - 18,7,,,,,,,,,,,,,,,,,,,,,,,,,,,,,,,,,,,,,,,,,,,,,,,,,,,,,,,,,,,,,,,,,,,,,,,,,,,
,,,,,,,,,,,,5f120c9ff7955b128346ea12,21,Mężczyzna,2022-06-11_09h41.30.315,task,2021.1.4,Win32,59.99520038,6299f149e92ead563fba08ef,62a4471e3649a9bd57c82389,,,,,,,,,,,,,5,"[""5""]",0,[2.243800000011902],"[5.425400000035779,2.6443000000118673,1.8040999999642509,1.9272999999523108,2.953600000023812,2.1598000000119555,2.243800000011902]",0,6,6,3,1,Practice,4,(8/4) + 1,3,,,,,,,,,,,,,,,,,,,,,,,,,,,,,,,,,,,,,,,,,,,,,,,,,,,,,,,,,,,,,,,,,,,,,,,,,,,
,,,,,,,,,,,,5f120c9ff7955b128346ea12,21,Mężczyzna,2022-06-11_09h41.30.315,task,2021.1.4,Win32,59.99520038,6299f149e92ead563fba08ef,62a4471e3649a9bd57c82389,,,,,,,,,,,,,6,"[""6""]",1,[4.124300000011999],"[5.425400000035779,2.6443000000118673,1.8040999999642509,1.9272999999523108,2.953600000023812,2.1598000000119555,2.243800000011902,4.124300000011999]",0,7,7,6,1,Practice,7,(25/5) + 1,6,,,,,,,,,,,,,,,,,,,,,,,,,,,,,,,,,,,,,,,,,,,,,,,,,,,,,,,,,,,,,,,,,,,,,,,,,,,
,,,,,,,,,,,,5f120c9ff7955b128346ea12,21,Mężczyzna,2022-06-11_09h41.30.315,task,2021.1.4,Win32,59.99520038,6299f149e92ead563fba08ef,62a4471e3649a9bd57c82389,,,,,,,,,,,,,8,"[""8""]",1,[3.8328000000119573],"[5.425400000035779,2.6443000000118673,1.8040999999642509,1.9272999999523108,2.953600000023812,2.1598000000119555,2.243800000011902,4.124300000011999,3.8328000000119573]",0,8,8,8,1,Practice,9,(3x3) - 1,8,,,,,,,,,,,,,,,,,,,,,,,,,,,,,,,,,,,,,,,,,,,,,,,,,,,,,,,,,,,,,,,,,,,,,,,,,,,
,,,,,,,,,,,,5f120c9ff7955b128346ea12,21,Mężczyzna,2022-06-11_09h41.30.315,task,2021.1.4,Win32,59.99520038,6299f149e92ead563fba08ef,62a4471e3649a9bd57c82389,,,,,,,,,,,,,0,"[""0""]",1,[3.1284000000357537],"[5.425400000035779,2.6443000000118673,1.8040999999642509,1.9272999999523108,2.953600000023812,2.1598000000119555,2.243800000011902,4.124300000011999,3.8328000000119573,3.1284000000357537]",0,9,9,0,1,Practice,1,(3x3) -  9,0,,,,,,,,,,,,,,,,,,,,,,,,,,,,,,,,,,,,,,,,,,,,,,,,,,,,,,,,,,,,,,,,,,,,,,,,,,,
,,,,,,,,,,,,5f120c9ff7955b128346ea12,21,Mężczyzna,2022-06-11_09h41.30.315,task,2021.1.4,Win32,59.99520038,6299f149e92ead563fba08ef,62a4471e3649a9bd57c82389,,,,,,,,,,,,,,,,,,,,,,,,,,,0.9,30.2438,2.016253333,22.00122,1.21109372,5.140875132,space,1.5321,0,0,0,0,1,,,,,,,,,,,,,,,,,,,,,,,,,,,,,,,,,,,,,,,,,,,,,,,,,,,,,,,,,,,,,,
,,,,,,,,,,,,5f120c9ff7955b128346ea12,21,Mężczyzna,2022-06-11_09h41.30.315,task,2021.1.4,Win32,59.99520038,6299f149e92ead563fba08ef,62a4471e3649a9bd57c82389,,,,,,,,,,,,,5,,,,,,,,,,Practice,6,(4/2) + 3,5,,,,,,,,,,,,,,space,43.1749,"[""5""]",1,[2.3892000000477083],1,0,0,0,5,1,,,,,,,,,,,,,,,,,,,,,,,,,,,,,,,,,,,,,,,,,,,,,,,,,,,
,,,,,,,,,,,X V Q F H G B L J M P D K C T S W R N Z,5f120c9ff7955b128346ea12,21,Mężczyzna,2022-06-11_09h41.30.315,task,2021.1.4,Win32,59.99520038,6299f149e92ead563fba08ef,62a4471e3649a9bd57c82389,,,,,,,,,,,,,,,,,,,,,,,,,,,,,,,,,,,,,,,,,,,,,,,,,,,0,0,0,0,1,,,,,,,,,,,,,,,,,,,,,,,,,,,,,,,,,,,,,,,,,,,,,,
,,,,,,,,,,,,5f120c9ff7955b128346ea12,21,Mężczyzna,2022-06-11_09h41.30.315,task,2021.1.4,Win32,59.99520038,6299f149e92ead563fba08ef,62a4471e3649a9bd57c82389,,,,,,,,,,,,,7,,,,,,,,,,Practice,8,(5x5) - 18,7,,,,,,,,,,,,,,,,"[""7""]",1,[2.479800000011892],1,0,0,0,7,1,,,,,,,,,,,,,,,,,,,,,,,,,,,,,,,,,,,,,,,,,,,,,,,,,,,
,,,,,,,,,,,X V Q F H G B L J M P D K C T S W R N Z,5f120c9ff7955b128346ea12,21,Mężczyzna,2022-06-11_09h41.30.315,task,2021.1.4,Win32,59.99520038,6299f149e92ead563fba08ef,62a4471e3649a9bd57c82389,,,,,,,,,,,,,,,,,,,,,,,,,,,,,,,,,,,,,,,,,,,,,,,,,,,1,0,1,0,1,,,,,,,,,,,,,,,,,,,,,,,,,,,,,,,,,,,,,,,,,,,,,,
,,,,,,,,,,,,5f120c9ff7955b128346ea12,21,Mężczyzna,2022-06-11_09h41.30.315,task,2021.1.4,Win32,59.99520038,6299f149e92ead563fba08ef,62a4471e3649a9bd57c82389,,,,,,,,,,,,,,,,,,,,,,,,,,,,,,,,,,,,,,,,,,,,,,,,,,,,,,,,zn,"[""z"",""n""]",0,"[3.141199999988089,3.3661000000238346,3.9565000000000055]",1,0,0,0,0,1,,,,,,,,,,,,,,,,,,,,,,,,,,,,,,,,,,,,
,,,,,,,,,,,,5f120c9ff7955b128346ea12,21,Mężczyzna,2022-06-11_09h41.30.315,task,2021.1.4,Win32,59.99520038,6299f149e92ead563fba08ef,62a4471e3649a9bd57c82389,,,,,,,,,,,,,7,,,,,,,,,,Practice,8,(5x5) - 18,7,,,,,,,,,,,,,,,,"[""7""]",1,[2.3996999999881155],1,0,0,0,7,1,,,,,,,,,,,,,,,,,,,,,,,,,,,,,,,,,,,,,,,,,,,,,,,,,,,
,,,,,,,,,,,X V Q F H G B L J M P D K C T S W R N Z,5f120c9ff7955b128346ea12,21,Mężczyzna,2022-06-11_09h41.30.315,task,2021.1.4,Win32,59.99520038,6299f149e92ead563fba08ef,62a4471e3649a9bd57c82389,,,,,,,,,,,,,,,,,,,,,,,,,,,,,,,,,,,,,,,,,,,,,,,,,,,0,0,0,0,1,,,,,,,,,,,,,,,,,,,,,,,,,,,,,,,,,,,,,,,,,,,,,,
,,,,,,,,,,,,5f120c9ff7955b128346ea12,21,Mężczyzna,2022-06-11_09h41.30.315,task,2021.1.4,Win32,59.99520038,6299f149e92ead563fba08ef,62a4471e3649a9bd57c82389,,,,,,,,,,,,,4,,,,,,,,,,Practice,5,(2x6) - 8,4,,,,,,,,,,,,,,,,"[""4""]",1,[3.496099999964258],1,0,0,0,4,1,,,,,,,,,,,,,,,,,,,,,,,,,,,,,,,,,,,,,,,,,,,,,,,,,,,
,,,,,,,,,,,X V Q F H G B L J M P D K C T S W R N Z,5f120c9ff7955b128346ea12,21,Mężczyzna,2022-06-11_09h41.30.315,task,2021.1.4,Win32,59.99520038,6299f149e92ead563fba08ef,62a4471e3649a9bd57c82389,,,,,,,,,,,,,,,,,,,,,,,,,,,,,,,,,,,,,,,,,,,,,,,,,,,1,0,1,0,1,,,,,,,,,,,,,,,,,,,,,,,,,,,,,,,,,,,,,,,,,,,,,,
,,,,,,,,,,,,5f120c9ff7955b128346ea12,21,Mężczyzna,2022-06-11_09h41.30.315,task,2021.1.4,Win32,59.99520038,6299f149e92ead563fba08ef,62a4471e3649a9bd57c82389,,,,,,,,,,,,,,,,,,,,,,,,,,,,,,,,,,,,,,,,,,,,,,,,,,,,,,,,zg,"[""z"",""g""]",0,"[2.784999999999968,3.1291000000238682,3.833500000000072]",1,1,0,1,0,1,,,,,,,,,,,,,,,,,,,,,,,,,,,,,,,,,,,,
,,,,,,,,,,,,5f120c9ff7955b128346ea12,21,Mężczyzna,2022-06-11_09h41.30.315,task,2021.1.4,Win32,59.99520038,6299f149e92ead563fba08ef,62a4471e3649a9bd57c82389,,,,,,,,,,,,,6,,,,,,,,,,Practice,7,(25/5) + 1,6,,,,,,,,,,,,,,,,"[""6""]",1,[2.418300000011868],1,0,0,0,6,1,,,,,,,,,,,,,,,,,,,,,,,,,,,,,,,,,,,,,,,,,,,,,,,,,,,
,,,,,,,,,,,X V Q F H G B L J M P D K C T S W R N Z,5f120c9ff7955b128346ea12,21,Mężczyzna,2022-06-11_09h41.30.315,task,2021.1.4,Win32,59.99520038,6299f149e92ead563fba08ef,62a4471e3649a9bd57c82389,,,,,,,,,,,,,,,,,,,,,,,,,,,,,,,,,,,,,,,,,,,,,,,,,,,0,0,0,0,1,,,,,,,,,,,,,,,,,,,,,,,,,,,,,,,,,,,,,,,,,,,,,,
,,,,,,,,,,,,5f120c9ff7955b128346ea12,21,Mężczyzna,2022-06-11_09h41.30.315,task,2021.1.4,Win32,59.99520038,6299f149e92ead563fba08ef,62a4471e3649a9bd57c82389,,,,,,,,,,,,,4,,,,,,,,,,Practice,5,(2x6) - 8,4,,,,,,,,,,,,,,,,"[""4""]",1,[2.497800000011921],1,0,0,0,4,1,,,,,,,,,,,,,,,,,,,,,,,,,,,,,,,,,,,,,,,,,,,,,,,,,,,
,,,,,,,,,,,X V Q F H G B L J M P D K C T S W R N Z,5f120c9ff7955b128346ea12,21,Mężczyzna,2022-06-11_09h41.30.315,task,2021.1.4,Win32,59.99520038,6299f149e92ead563fba08ef,62a4471e3649a9bd57c82389,,,,,,,,,,,,,,,,,,,,,,,,,,,,,,,,,,,,,,,,,,,,,,,,,,,1,0,1,0,1,,,,,,,,,,,,,,,,,,,,,,,,,,,,,,,,,,,,,,,,,,,,,,
,,,,,,,,,,,,5f120c9ff7955b128346ea12,21,Mężczyzna,2022-06-11_09h41.30.315,task,2021.1.4,Win32,59.99520038,6299f149e92ead563fba08ef,62a4471e3649a9bd57c82389,,,,,,,,,,,,,,,,,,,,,,,,,,,,,,,,,,,,,,,,,,,,,,,,,,,,,,,,jw,"[""j"",""w""]",0,"[1.830799999952319,1.98909999996431,72.56629999995232]",1,2,0,2,0,1,,,,,,,,,,,,,,,,,,,,,,,,,,,,,,,,,,,,
,,,,,,,,,,,,5f120c9ff7955b128346ea12,21,Mężczyzna,2022-06-11_09h41.30.315,task,2021.1.4,Win32,59.99520038,6299f149e92ead563fba08ef,62a4471e3649a9bd57c82389,,,,,,,,,,,,,0,,,,,,,,,,Task,17,(2x3) - 6,0,,,,,,,,,,,,,,,,,,,1,,,,,,,,,,,,,,,,,,,,,space,22.2795,"[""0""]",1,[2.273300000012],0,0,0,16,1,,,,,,,,,,,,,,,,,,,,,,,,,,
,,,,,,,,,,,X V Q F H G B L J M P D K C T S W R N Z,5f120c9ff7955b128346ea12,21,Mężczyzna,2022-06-11_09h41.30.315,task,2021.1.4,Win32,59.99520038,6299f149e92ead563fba08ef,62a4471e3649a9bd57c82389,,,,,,,,,,,,,,,,,,,,,,,,,,,,,,,,,,,,,,,,,,,,,,,,,,,,,,,,,,,,,,,,,,,,,,,,,,,,0,0,0,0,1,,,,,,,,,,,,,,,,,,,,,
,,,,,,,,,,,,5f120c9ff7955b128346ea12,21,Mężczyzna,2022-06-11_09h41.30.315,task,2021.1.4,Win32,59.99520038,6299f149e92ead563fba08ef,62a4471e3649a9bd57c82389,,,,,,,,,,,,,9,,,,,,,,,,Task,40,(7x2) - 5,9,,,,,,,,,,,,,,,,,,,1,,,,,,,,,,,,,,,,,,,,,,,"[""9""]",1,[2.4845000000000255],0,0,0,39,1,,,,,,,,,,,,,,,,,,,,,,,,,,
,,,,,,,,,,,X V Q F H G B L J M P D K C T S W R N Z,5f120c9ff7955b128346ea12,21,Mężczyzna,2022-06-11_09h41.30.315,task,2021.1.4,Win32,59.99520038,6299f149e92ead563fba08ef,62a4471e3649a9bd57c82389,,,,,,,,,,,,,,,,,,,,,,,,,,,,,,,,,,,,,,,,,,,,,,,,,,,,,,,,,,,,,,,,,,,,,,,,,,,,1,0,1,0,1,,,,,,,,,,,,,,,,,,,,,
,,,,,,,,,,,,5f120c9ff7955b128346ea12,21,Mężczyzna,2022-06-11_09h41.30.315,task,2021.1.4,Win32,59.99520038,6299f149e92ead563fba08ef,62a4471e3649a9bd57c82389,,,,,,,,,,,,,,,,,,,,,,,,,,,,,,,,,,,,,,,,,,,,,,,,,,,,,,,,,,,,,,,,,,,,,,,,,,,,,,,,,zr,"[""z"",""r""]",0,"[3.080699999988042,3.2081999999880964,3.519800000011969]",1,ZR,0,0,0,0,1,,,,,,,,,,
,,,,,,,,,,,,5f120c9ff7955b128346ea12,21,Mężczyzna,2022-06-11_09h41.30.315,task,2021.1.4,Win32,59.99520038,6299f149e92ead563fba08ef,62a4471e3649a9bd57c82389,,,,,,,,,,,,,5,,,,,,,,,,Task,29,(3x8) - 19 ,5,,,,,,,,,,,,,,,,,,,1,,,,,,,,,,,,,,,,,,,,,,,"[""5""]",1,[2.3564999999999827],0,0,0,28,1,,,,,,,,,,,,,,,,,,,,,,,,,,
,,,,,,,,,,,X V Q F H G B L J M P D K C T S W R N Z,5f120c9ff7955b128346ea12,21,Mężczyzna,2022-06-11_09h41.30.315,task,2021.1.4,Win32,59.99520038,6299f149e92ead563fba08ef,62a4471e3649a9bd57c82389,,,,,,,,,,,,,,,,,,,,,,,,,,,,,,,,,,,,,,,,,,,,,,,,,,,,,,,,,,,,,,,,,,,,,,,,,,,,0,0,0,0,1,,,,,,,,,,,,,,,,,,,,,
,,,,,,,,,,,,5f120c9ff7955b128346ea12,21,Mężczyzna,2022-06-11_09h41.30.315,task,2021.1.4,Win32,59.99520038,6299f149e92ead563fba08ef,62a4471e3649a9bd57c82389,,,,,,,,,,,,,5,,,,,,,,,,Task,22,(3x1) + 2,5,,,,,,,,,,,,,,,,,,,1,,,,,,,,,,,,,,,,,,,,,,,"[""5""]",1,[2.884600000023852],0,0,0,21,1,,,,,,,,,,,,,,,,,,,,,,,,,,
,,,,,,,,,,,X V Q F H G B L J M P D K C T S W R N Z,5f120c9ff7955b128346ea12,21,Mężczyzna,2022-06-11_09h41.30.315,task,2021.1.4,Win32,59.99520038,6299f149e92ead563fba08ef,62a4471e3649a9bd57c82389,,,,,,,,,,,,,,,,,,,,,,,,,,,,,,,,,,,,,,,,,,,,,,,,,,,,,,,,,,,,,,,,,,,,,,,,,,,,1,0,1,0,1,,,,,,,,,,,,,,,,,,,,,
,,,,,,,,,,,,5f120c9ff7955b128346ea12,21,Mężczyzna,2022-06-11_09h41.30.315,task,2021.1.4,Win32,59.99520038,6299f149e92ead563fba08ef,62a4471e3649a9bd57c82389,,,,,,,,,,,,,1,,,,,,,,,,Task,9,(3x7) - 20,1,,,,,,,,,,,,,,,,,,,1,,,,,,,,,,,,,,,,,,,,,,,"[""1""]",1,[1.985600000023851],0,0,0,8,1,,,,,,,,,,,,,,,,,,,,,,,,,,
,,,,,,,,,,,X V Q F H G B L J M P D K C T S W R N Z,5f120c9ff7955b128346ea12,21,Mężczyzna,2022-06-11_09h41.30.315,task,2021.1.4,Win32,59.99520038,6299f149e92ead563fba08ef,62a4471e3649a9bd57c82389,,,,,,,,,,,,,,,,,,,,,,,,,,,,,,,,,,,,,,,,,,,,,,,,,,,,,,,,,,,,,,,,,,,,,,,,,,,,2,0,2,0,1,,,,,,,,,,,,,,,,,,,,,
,,,,,,,,,,,,5f120c9ff7955b128346ea12,21,Mężczyzna,2022-06-11_09h41.30.315,task,2021.1.4,Win32,59.99520038,6299f149e92ead563fba08ef,62a4471e3649a9bd57c82389,,,,,,,,,,,,,,,,,,,,,,,,,,,,,,,,,,,,,,,,,,,,,,,,,,,,,,,,,,,,,,,,,,,,,,,,,,,,,,,,,zrcf,"[""z"",""r"",""c"",""f""]",0,"[1.7968999999761763,2.236499999999978,2.5408999999762045,2.78839999997615,3.172599999964291]",0,CJF,1,0,1,0,1,,,,,,,,,,
,,,,,,,,,,,,5f120c9ff7955b128346ea12,21,Mężczyzna,2022-06-11_09h41.30.315,task,2021.1.4,Win32,59.99520038,6299f149e92ead563fba08ef,62a4471e3649a9bd57c82389,,,,,,,,,,,,,2,,,,,,,,,,Task,26,(2x9) - 16,2,,,,,,,,,,,,,,,,,,,1,,,,,,,,,,,,,,,,,,,,,,,"[""2""]",1,[2.1899000000357773],0,0,0,25,1,,,,,,,,,,,,,,,,,,,,,,,,,,
,,,,,,,,,,,X V Q F H G B L J M P D K C T S W R N Z,5f120c9ff7955b128346ea12,21,Mężczyzna,2022-06-11_09h41.30.315,task,2021.1.4,Win32,59.99520038,6299f149e92ead563fba08ef,62a4471e3649a9bd57c82389,,,,,,,,,,,,,,,,,,,,,,,,,,,,,,,,,,,,,,,,,,,,,,,,,,,,,,,,,,,,,,,,,,,,,,,,,,,,0,0,0,0,1,,,,,,,,,,,,,,,,,,,,,
,,,,,,,,,,,,5f120c9ff7955b128346ea12,21,Mężczyzna,2022-06-11_09h41.30.315,task,2021.1.4,Win32,59.99520038,6299f149e92ead563fba08ef,62a4471e3649a9bd57c82389,,,,,,,,,,,,,8,,,,,,,,,,Task,15,(3x7) - 13,8,,,,,,,,,,,,,,,,,,,1,,,,,,,,,,,,,,,,,,,,,,,"[""8""]",1,[4.61280000001193],0,0,0,14,1,,,,,,,,,,,,,,,,,,,,,,,,,,
,,,,,,,,,,,X V Q F H G B L J M P D K C T S W R N Z,5f120c9ff7955b128346ea12,21,Mężczyzna,2022-06-11_09h41.30.315,task,2021.1.4,Win32,59.99520038,6299f149e92ead563fba08ef,62a4471e3649a9bd57c82389,,,,,,,,,,,,,,,,,,,,,,,,,,,,,,,,,,,,,,,,,,,,,,,,,,,,,,,,,,,,,,,,,,,,,,,,,,,,1,0,1,0,1,,,,,,,,,,,,,,,,,,,,,
,,,,,,,,,,,,5f120c9ff7955b128346ea12,21,Mężczyzna,2022-06-11_09h41.30.315,task,2021.1.4,Win32,59.99520038,6299f149e92ead563fba08ef,62a4471e3649a9bd57c82389,,,,,,,,,,,,,7,,,,,,,,,,Task,31,(4/2) + 5,7,,,,,,,,,,,,,,,,,,,1,,,,,,,,,,,,,,,,,,,,,,,"[""7""]",1,[2.9896999999880336],0,0,0,30,1,,,,,,,,,,,,,,,,,,,,,,,,,,
,,,,,,,,,,,X V Q F H G B L J M P D K C T S W R N Z,5f120c9ff7955b128346ea12,21,Mężczyzna,2022-06-11_09h41.30.315,task,2021.1.4,Win32,59.99520038,6299f149e92ead563fba08ef,62a4471e3649a9bd57c82389,,,,,,,,,,,,,,,,,,,,,,,,,,,,,,,,,,,,,,,,,,,,,,,,,,,,,,,,,,,,,,,,,,,,,,,,,,,,2,0,2,0,1,,,,,,,,,,,,,,,,,,,,,
,,,,,,,,,,,,5f120c9ff7955b128346ea12,21,Mężczyzna,2022-06-11_09h41.30.315,task,2021.1.4,Win32,59.99520038,6299f149e92ead563fba08ef,62a4471e3649a9bd57c82389,,,,,,,,,,,,,,,,,,,,,,,,,,,,,,,,,,,,,,,,,,,,,,,,,,,,,,,,,,,,,,,,,,,,,,,,,,,,,,,,,zkr,"[""z"",""k"",""r""]",0,"[3.2938999999761336,3.7093999999760854,4.101300000011861,47.22149999999999]",1,ZKR,2,0,2,0,1,,,,,,,,,,
,,,,,,,,,,,,5f120c9ff7955b128346ea12,21,Mężczyzna,2022-06-11_09h41.30.315,task,2021.1.4,Win32,59.99520038,6299f149e92ead563fba08ef,62a4471e3649a9bd57c82389,,,,,,,,,,,,,1,,,,,,,,,,Task,1,(12/6) - 1,1,,,,,,,,,,,,,,,,,,,1,,,,,,,,,,,,,,,,,,,,,,,"[""1""]",1,[4.185499999999934],0,0,0,0,1,,,,,,,,,,,,,,,,,,,,,,,,,,
,,,,,,,,,,,X V Q F H G B L J M P D K C T S W R N Z,5f120c9ff7955b128346ea12,21,Mężczyzna,2022-06-11_09h41.30.315,task,2021.1.4,Win32,59.99520038,6299f149e92ead563fba08ef,62a4471e3649a9bd57c82389,,,,,,,,,,,,,,,,,,,,,,,,,,,,,,,,,,,,,,,,,,,,,,,,,,,,,,,,,,,,,,,,,,,,,,,,,,,,0,0,0,0,1,,,,,,,,,,,,,,,,,,,,,
,,,,,,,,,,,,5f120c9ff7955b128346ea12,21,Mężczyzna,2022-06-11_09h41.30.315,task,2021.1.4,Win32,59.99520038,6299f149e92ead563fba08ef,62a4471e3649a9bd57c82389,,,,,,,,,,,,,4,,,,,,,,,,Task,11,(18/3) - 2,4,,,,,,,,,,,,,,,,,,,1,,,,,,,,,,,,,,,,,,,,,,,"[""4""]",1,[3.745199999988131],0,0,0,10,1,,,,,,,,,,,,,,,,,,,,,,,,,,
,,,,,,,,,,,X V Q F H G B L J M P D K C T S W R N Z,5f120c9ff7955b128346ea12,21,Mężczyzna,2022-06-11_09h41.30.315,task,2021.1.4,Win32,59.99520038,6299f149e92ead563fba08ef,62a4471e3649a9bd57c82389,,,,,,,,,,,,,,,,,,,,,,,,,,,,,,,,,,,,,,,,,,,,,,,,,,,,,,,,,,,,,,,,,,,,,,,,,,,,1,0,1,0,1,,,,,,,,,,,,,,,,,,,,,
,,,,,,,,,,,,5f120c9ff7955b128346ea12,21,Mężczyzna,2022-06-11_09h41.30.315,task,2021.1.4,Win32,59.99520038,6299f149e92ead563fba08ef,62a4471e3649a9bd57c82389,,,,,,,,,,,,,3,,,,,,,,,,Task,3,(2x3) - 3,3,,,,,,,,,,,,,,,,,,,1,,,,,,,,,,,,,,,,,,,,,,,"[""3""]",1,[3.936600000023873],0,0,0,2,1,,,,,,,,,,,,,,,,,,,,,,,,,,
,,,,,,,,,,,X V Q F H G B L J M P D K C T S W R N Z,5f120c9ff7955b128346ea12,21,Mężczyzna,2022-06-11_09h41.30.315,task,2021.1.4,Win32,59.99520038,6299f149e92ead563fba08ef,62a4471e3649a9bd57c82389,,,,,,,,,,,,,,,,,,,,,,,,,,,,,,,,,,,,,,,,,,,,,,,,,,,,,,,,,,,,,,,,,,,,,,,,,,,,2,0,2,0,1,,,,,,,,,,,,,,,,,,,,,
,,,,,,,,,,,,5f120c9ff7955b128346ea12,21,Mężczyzna,2022-06-11_09h41.30.315,task,2021.1.4,Win32,59.99520038,6299f149e92ead563fba08ef,62a4471e3649a9bd57c82389,,,,,,,,,,,,,6,,,,,,,,,,Task,37,(3/3) + 5,6,,,,,,,,,,,,,,,,,,,1,,,,,,,,,,,,,,,,,,,,,,,"[""6""]",1,[3.06279999995229],0,0,0,36,1,,,,,,,,,,,,,,,,,,,,,,,,,,
,,,,,,,,,,,X V Q F H G B L J M P D K C T S W R N Z,5f120c9ff7955b128346ea12,21,Mężczyzna,2022-06-11_09h41.30.315,task,2021.1.4,Win32,59.99520038,6299f149e92ead563fba08ef,62a4471e3649a9bd57c82389,,,,,,,,,,,,,,,,,,,,,,,,,,,,,,,,,,,,,,,,,,,,,,,,,,,,,,,,,,,,,,,,,,,,,,,,,,,,3,0,3,0,1,,,,,,,,,,,,,,,,,,,,,
,,,,,,,,,,,,5f120c9ff7955b128346ea12,21,Mężczyzna,2022-06-11_09h41.30.315,task,2021.1.4,Win32,59.99520038,6299f149e92ead563fba08ef,62a4471e3649a9bd57c82389,,,,,,,,,,,,,,,,,,,,,,,,,,,,,,,,,,,,,,,,,,,,,,,,,,,,,,,,,,,,,,,,,,,,,,,,,,,,,,,,,ttdf,"[""t"",""t"",""d"",""f""]",0,"[2.9139999999999873,3.1057999999522963,4.329699999988065,4.546099999964213,5.3616999999881045]",1,TTDF,3,0,3,0,1,,,,,,,,,,
,,,,,,,,,,,,5f120c9ff7955b128346ea12,21,Mężczyzna,2022-06-11_09h41.30.315,task,2021.1.4,Win32,59.99520038,6299f149e92ead563fba08ef,62a4471e3649a9bd57c82389,,,,,,,,,,,,,0,,,,,,,,,,Task,25,(10/5) - 2,0,,,,,,,,,,,,,,,,,,,1,,,,,,,,,,,,,,,,,,,,,,,"[""0""]",1,[3.1666999999880545],0,0,0,24,1,,,,,,,,,,,,,,,,,,,,,,,,,,
,,,,,,,,,,,X V Q F H G B L J M P D K C T S W R N Z,5f120c9ff7955b128346ea12,21,Mężczyzna,2022-06-11_09h41.30.315,task,2021.1.4,Win32,59.99520038,6299f149e92ead563fba08ef,62a4471e3649a9bd57c82389,,,,,,,,,,,,,,,,,,,,,,,,,,,,,,,,,,,,,,,,,,,,,,,,,,,,,,,,,,,,,,,,,,,,,,,,,,,,0,0,0,0,1,,,,,,,,,,,,,,,,,,,,,
,,,,,,,,,,,,5f120c9ff7955b128346ea12,21,Mężczyzna,2022-06-11_09h41.30.315,task,2021.1.4,Win32,59.99520038,6299f149e92ead563fba08ef,62a4471e3649a9bd57c82389,,,,,,,,,,,,,8,,,,,,,,,,Task,23,(2x3) + 2,8,,,,,,,,,,,,,,,,,,,1,,,,,,,,,,,,,,,,,,,,,,,"[""8""]",1,[3.29950000000008],0,0,0,22,1,,,,,,,,,,,,,,,,,,,,,,,,,,
,,,,,,,,,,,X V Q F H G B L J M P D K C T S W R N Z,5f120c9ff7955b128346ea12,21,Mężczyzna,2022-06-11_09h41.30.315,task,2021.1.4,Win32,59.99520038,6299f149e92ead563fba08ef,62a4471e3649a9bd57c82389,,,,,,,,,,,,,,,,,,,,,,,,,,,,,,,,,,,,,,,,,,,,,,,,,,,,,,,,,,,,,,,,,,,,,,,,,,,,1,0,1,0,1,,,,,,,,,,,,,,,,,,,,,
,,,,,,,,,,,,5f120c9ff7955b128346ea12,21,Mężczyzna,2022-06-11_09h41.30.315,task,2021.1.4,Win32,59.99520038,6299f149e92ead563fba08ef,62a4471e3649a9bd57c82389,,,,,,,,,,,,,4,,,,,,,,,,Task,21,(10/2) - 1,4,,,,,,,,,,,,,,,,,,,1,,,,,,,,,,,,,,,,,,,,,,,"[""4""]",1,[2.7735000000000127],0,0,0,20,1,,,,,,,,,,,,,,,,,,,,,,,,,,
,,,,,,,,,,,X V Q F H G B L J M P D K C T S W R N Z,5f120c9ff7955b128346ea12,21,Mężczyzna,2022-06-11_09h41.30.315,task,2021.1.4,Win32,59.99520038,6299f149e92ead563fba08ef,62a4471e3649a9bd57c82389,,,,,,,,,,,,,,,,,,,,,,,,,,,,,,,,,,,,,,,,,,,,,,,,,,,,,,,,,,,,,,,,,,,,,,,,,,,,2,0,2,0,1,,,,,,,,,,,,,,,,,,,,,
,,,,,,,,,,,,5f120c9ff7955b128346ea12,21,Mężczyzna,2022-06-11_09h41.30.315,task,2021.1.4,Win32,59.99520038,6299f149e92ead563fba08ef,62a4471e3649a9bd57c82389,,,,,,,,,,,,,4,,,,,,,,,,Task,4,(1x5) - 1,4,,,,,,,,,,,,,,,,,,,1,,,,,,,,,,,,,,,,,,,,,,,"[""4""]",1,[1.9643000000119173],0,0,0,3,1,,,,,,,,,,,,,,,,,,,,,,,,,,
,,,,,,,,,,,X V Q F H G B L J M P D K C T S W R N Z,5f120c9ff7955b128346ea12,21,Mężczyzna,2022-06-11_09h41.30.315,task,2021.1.4,Win32,59.99520038,6299f149e92ead563fba08ef,62a4471e3649a9bd57c82389,,,,,,,,,,,,,,,,,,,,,,,,,,,,,,,,,,,,,,,,,,,,,,,,,,,,,,,,,,,,,,,,,,,,,,,,,,,,3,0,3,0,1,,,,,,,,,,,,,,,,,,,,,
,,,,,,,,,,,,5f120c9ff7955b128346ea12,21,Mężczyzna,2022-06-11_09h41.30.315,task,2021.1.4,Win32,59.99520038,6299f149e92ead563fba08ef,62a4471e3649a9bd57c82389,,,,,,,,,,,,,5,,,,,,,,,,Task,12,(4x4) - 11,5,,,,,,,,,,,,,,,,,,,1,,,,,,,,,,,,,,,,,,,,,,,"[""5""]",1,[2.467699999988099],0,0,0,11,1,,,,,,,,,,,,,,,,,,,,,,,,,,
,,,,,,,,,,,X V Q F H G B L J M P D K C T S W R N Z,5f120c9ff7955b128346ea12,21,Mężczyzna,2022-06-11_09h41.30.315,task,2021.1.4,Win32,59.99520038,6299f149e92ead563fba08ef,62a4471e3649a9bd57c82389,,,,,,,,,,,,,,,,,,,,,,,,,,,,,,,,,,,,,,,,,,,,,,,,,,,,,,,,,,,,,,,,,,,,,,,,,,,,4,0,4,0,1,,,,,,,,,,,,,,,,,,,,,
,,,,,,,,,,,,5f120c9ff7955b128346ea12,21,Mężczyzna,2022-06-11_09h41.30.315,task,2021.1.4,Win32,59.99520038,6299f149e92ead563fba08ef,62a4471e3649a9bd57c82389,,,,,,,,,,,,,,,,,,,,,,,,,,,,,,,,,,,,,,,,,,,,,,,,,,,,,,,,,,,,,,,,,,,,,,,,,,,,,,,,,nwfmk,"[""n"",""w"",""f"",""m"",""k""]",0,"[2.895100000023831,3.4628000000119528,4.030899999976214,4.536899999976185,4.743000000000052,5.509899999976142]",1,NWFMK,4,0,4,0,1,,,,,,,,,,
,,,,,,,,,,,,5f120c9ff7955b128346ea12,21,Mężczyzna,2022-06-11_09h41.30.315,task,2021.1.4,Win32,59.99520038,6299f149e92ead563fba08ef,62a4471e3649a9bd57c82389,,,,,,,,,,,,,0,,,,,,,,,,Task,25,(10/5) - 2,0,,,,,,,,,,,,,,,,,,,1,,,,,,,,,,,,,,,,,,,,,,,"[""0""]",1,[4.21289999997623],0,0,0,24,1,,,,,,,,,,,,,,,,,,,,,,,,,,
,,,,,,,,,,,X V Q F H G B L J M P D K C T S W R N Z,5f120c9ff7955b128346ea12,21,Mężczyzna,2022-06-11_09h41.30.315,task,2021.1.4,Win32,59.99520038,6299f149e92ead563fba08ef,62a4471e3649a9bd57c82389,,,,,,,,,,,,,,,,,,,,,,,,,,,,,,,,,,,,,,,,,,,,,,,,,,,,,,,,,,,,,,,,,,,,,,,,,,,,0,0,0,0,1,,,,,,,,,,,,,,,,,,,,,
,,,,,,,,,,,,5f120c9ff7955b128346ea12,21,Mężczyzna,2022-06-11_09h41.30.315,task,2021.1.4,Win32,59.99520038,6299f149e92ead563fba08ef,62a4471e3649a9bd57c82389,,,,,,,,,,,,,5,,,,,,,,,,Task,36,(8/4) + 3,5,,,,,,,,,,,,,,,,,,,1,,,,,,,,,,,,,,,,,,,,,,,"[""5""]",1,[3.1116999999881045],0,0,0,35,1,,,,,,,,,,,,,,,,,,,,,,,,,,
,,,,,,,,,,,X V Q F H G B L J M P D K C T S W R N Z,5f120c9ff7955b128346ea12,21,Mężczyzna,2022-06-11_09h41.30.315,task,2021.1.4,Win32,59.99520038,6299f149e92ead563fba08ef,62a4471e3649a9bd57c82389,,,,,,,,,,,,,,,,,,,,,,,,,,,,,,,,,,,,,,,,,,,,,,,,,,,,,,,,,,,,,,,,,,,,,,,,,,,,1,0,1,0,1,,,,,,,,,,,,,,,,,,,,,
,,,,,,,,,,,,5f120c9ff7955b128346ea12,21,Mężczyzna,2022-06-11_09h41.30.315,task,2021.1.4,Win32,59.99520038,6299f149e92ead563fba08ef,62a4471e3649a9bd57c82389,,,,,,,,,,,,,6,,,,,,,,,,Task,13,(3x4) - 6,6,,,,,,,,,,,,,,,,,,,1,,,,,,,,,,,,,,,,,,,,,,,"[""6""]",1,[1.727300000011951],0,0,0,12,1,,,,,,,,,,,,,,,,,,,,,,,,,,
,,,,,,,,,,,X V Q F H G B L J M P D K C T S W R N Z,5f120c9ff7955b128346ea12,21,Mężczyzna,2022-06-11_09h41.30.315,task,2021.1.4,Win32,59.99520038,6299f149e92ead563fba08ef,62a4471e3649a9bd57c82389,,,,,,,,,,,,,,,,,,,,,,,,,,,,,,,,,,,,,,,,,,,,,,,,,,,,,,,,,,,,,,,,,,,,,,,,,,,,2,0,2,0,1,,,,,,,,,,,,,,,,,,,,,
,,,,,,,,,,,,5f120c9ff7955b128346ea12,21,Mężczyzna,2022-06-11_09h41.30.315,task,2021.1.4,Win32,59.99520038,6299f149e92ead563fba08ef,62a4471e3649a9bd57c82389,,,,,,,,,,,,,0,,,,,,,,,,Task,8,(1x5) - 5,0,,,,,,,,,,,,,,,,,,,1,,,,,,,,,,,,,,,,,,,,,,,"[""0""]",1,[2.697499999999991],0,0,0,7,1,,,,,,,,,,,,,,,,,,,,,,,,,,
,,,,,,,,,,,X V Q F H G B L J M P D K C T S W R N Z,5f120c9ff7955b128346ea12,21,Mężczyzna,2022-06-11_09h41.30.315,task,2021.1.4,Win32,59.99520038,6299f149e92ead563fba08ef,62a4471e3649a9bd57c82389,,,,,,,,,,,,,,,,,,,,,,,,,,,,,,,,,,,,,,,,,,,,,,,,,,,,,,,,,,,,,,,,,,,,,,,,,,,,3,0,3,0,1,,,,,,,,,,,,,,,,,,,,,
,,,,,,,,,,,,5f120c9ff7955b128346ea12,21,Mężczyzna,2022-06-11_09h41.30.315,task,2021.1.4,Win32,59.99520038,6299f149e92ead563fba08ef,62a4471e3649a9bd57c82389,,,,,,,,,,,,,7,,,,,,,,,,Task,31,(4/2) + 5,7,,,,,,,,,,,,,,,,,,,1,,,,,,,,,,,,,,,,,,,,,,,"[""7""]",1,[2.602999999999952],0,0,0,30,1,,,,,,,,,,,,,,,,,,,,,,,,,,
,,,,,,,,,,,X V Q F H G B L J M P D K C T S W R N Z,5f120c9ff7955b128346ea12,21,Mężczyzna,2022-06-11_09h41.30.315,task,2021.1.4,Win32,59.99520038,6299f149e92ead563fba08ef,62a4471e3649a9bd57c82389,,,,,,,,,,,,,,,,,,,,,,,,,,,,,,,,,,,,,,,,,,,,,,,,,,,,,,,,,,,,,,,,,,,,,,,,,,,,4,0,4,0,1,,,,,,,,,,,,,,,,,,,,,
,,,,,,,,,,,,5f120c9ff7955b128346ea12,21,Mężczyzna,2022-06-11_09h41.30.315,task,2021.1.4,Win32,59.99520038,6299f149e92ead563fba08ef,62a4471e3649a9bd57c82389,,,,,,,,,,,,,2,,,,,,,,,,Task,19,(6/2) - 1,2,,,,,,,,,,,,,,,,,,,1,,,,,,,,,,,,,,,,,,,,,,,"[""2""]",1,[3.0019999999999527],0,0,0,18,1,,,,,,,,,,,,,,,,,,,,,,,,,,
,,,,,,,,,,,X V Q F H G B L J M P D K C T S W R N Z,5f120c9ff7955b128346ea12,21,Mężczyzna,2022-06-11_09h41.30.315,task,2021.1.4,Win32,59.99520038,6299f149e92ead563fba08ef,62a4471e3649a9bd57c82389,,,,,,,,,,,,,,,,,,,,,,,,,,,,,,,,,,,,,,,,,,,,,,,,,,,,,,,,,,,,,,,,,,,,,,,,,,,,5,0,5,0,1,,,,,,,,,,,,,,,,,,,,,
,,,,,,,,,,,,5f120c9ff7955b128346ea12,21,Mężczyzna,2022-06-11_09h41.30.315,task,2021.1.4,Win32,59.99520038,6299f149e92ead563fba08ef,62a4471e3649a9bd57c82389,,,,,,,,,,,,,,,,,,,,,,,,,,,,,,,,,,,,,,,,,,,,,,,,,,,,,,,,,,,,,,,,,,,,,,,,,,,,,,,,,kcfxln,"[""k"",""c"",""f"",""x"",""l"",""n""]",0,"[2.5521999999880336,3.599199999988059,4.520900000035795,4.998699999988048,5.505300000011857,5.905199999988099,6.430999999999926]",1,KCFXLN,5,0,5,0,1,,,,,,,,,,
,,,,,,,,,,,,5f120c9ff7955b128346ea12,21,Mężczyzna,2022-06-11_09h41.30.315,task,2021.1.4,Win32,59.99520038,6299f149e92ead563fba08ef,62a4471e3649a9bd57c82389,,,,,,,,,,,,,9,,,,,,,,,,Task,16,(3x8) - 15,9,,,,,,,,,,,,,,,,,,,1,,,,,,,,,,,,,,,,,,,,,,,"[""9""]",1,[3.613200000047641],0,0,0,15,1,,,,,,,,,,,,,,,,,,,,,,,,,,
,,,,,,,,,,,X V Q F H G B L J M P D K C T S W R N Z,5f120c9ff7955b128346ea12,21,Mężczyzna,2022-06-11_09h41.30.315,task,2021.1.4,Win32,59.99520038,6299f149e92ead563fba08ef,62a4471e3649a9bd57c82389,,,,,,,,,,,,,,,,,,,,,,,,,,,,,,,,,,,,,,,,,,,,,,,,,,,,,,,,,,,,,,,,,,,,,,,,,,,,0,0,0,0,1,,,,,,,,,,,,,,,,,,,,,
,,,,,,,,,,,,5f120c9ff7955b128346ea12,21,Mężczyzna,2022-06-11_09h41.30.315,task,2021.1.4,Win32,59.99520038,6299f149e92ead563fba08ef,62a4471e3649a9bd57c82389,,,,,,,,,,,,,8,,,,,,,,,,Task,39,(5x3) - 7,8,,,,,,,,,,,,,,,,,,,1,,,,,,,,,,,,,,,,,,,,,,,"[""8""]",1,[2.668399999976259],0,0,0,38,1,,,,,,,,,,,,,,,,,,,,,,,,,,
,,,,,,,,,,,X V Q F H G B L J M P D K C T S W R N Z,5f120c9ff7955b128346ea12,21,Mężczyzna,2022-06-11_09h41.30.315,task,2021.1.4,Win32,59.99520038,6299f149e92ead563fba08ef,62a4471e3649a9bd57c82389,,,,,,,,,,,,,,,,,,,,,,,,,,,,,,,,,,,,,,,,,,,,,,,,,,,,,,,,,,,,,,,,,,,,,,,,,,,,1,0,1,0,1,,,,,,,,,,,,,,,,,,,,,
,,,,,,,,,,,,5f120c9ff7955b128346ea12,21,Mężczyzna,2022-06-11_09h41.30.315,task,2021.1.4,Win32,59.99520038,6299f149e92ead563fba08ef,62a4471e3649a9bd57c82389,,,,,,,,,,,,,7,,,,,,,,,,Task,38,(4x6) - 17,7,,,,,,,,,,,,,,,,,,,1,,,,,,,,,,,,,,,,,,,,,,,"[""7""]",1,[3.5025000000000546],0,0,0,37,1,,,,,,,,,,,,,,,,,,,,,,,,,,
,,,,,,,,,,,X V Q F H G B L J M P D K C T S W R N Z,5f120c9ff7955b128346ea12,21,Mężczyzna,2022-06-11_09h41.30.315,task,2021.1.4,Win32,59.99520038,6299f149e92ead563fba08ef,62a4471e3649a9bd57c82389,,,,,,,,,,,,,,,,,,,,,,,,,,,,,,,,,,,,,,,,,,,,,,,,,,,,,,,,,,,,,,,,,,,,,,,,,,,,2,0,2,0,1,,,,,,,,,,,,,,,,,,,,,
,,,,,,,,,,,,5f120c9ff7955b128346ea12,21,Mężczyzna,2022-06-11_09h41.30.315,task,2021.1.4,Win32,59.99520038,6299f149e92ead563fba08ef,62a4471e3649a9bd57c82389,,,,,,,,,,,,,6,,,,,,,,,,Task,13,(3x4) - 6,6,,,,,,,,,,,,,,,,,,,1,,,,,,,,,,,,,,,,,,,,,,,"[""6""]",1,[2.1681000000238555],0,0,0,12,1,,,,,,,,,,,,,,,,,,,,,,,,,,
,,,,,,,,,,,X V Q F H G B L J M P D K C T S W R N Z,5f120c9ff7955b128346ea12,21,Mężczyzna,2022-06-11_09h41.30.315,task,2021.1.4,Win32,59.99520038,6299f149e92ead563fba08ef,62a4471e3649a9bd57c82389,,,,,,,,,,,,,,,,,,,,,,,,,,,,,,,,,,,,,,,,,,,,,,,,,,,,,,,,,,,,,,,,,,,,,,,,,,,,3,0,3,0,1,,,,,,,,,,,,,,,,,,,,,
,,,,,,,,,,,,5f120c9ff7955b128346ea12,21,Mężczyzna,2022-06-11_09h41.30.315,task,2021.1.4,Win32,59.99520038,6299f149e92ead563fba08ef,62a4471e3649a9bd57c82389,,,,,,,,,,,,,5,,,,,,,,,,Task,12,(4x4) - 11,5,,,,,,,,,,,,,,,,,,,1,,,,,,,,,,,,,,,,,,,,,,,"[""5""]",1,[1.6066000000238319],0,0,0,11,1,,,,,,,,,,,,,,,,,,,,,,,,,,
,,,,,,,,,,,X V Q F H G B L J M P D K C T S W R N Z,5f120c9ff7955b128346ea12,21,Mężczyzna,2022-06-11_09h41.30.315,task,2021.1.4,Win32,59.99520038,6299f149e92ead563fba08ef,62a4471e3649a9bd57c82389,,,,,,,,,,,,,,,,,,,,,,,,,,,,,,,,,,,,,,,,,,,,,,,,,,,,,,,,,,,,,,,,,,,,,,,,,,,,4,0,4,0,1,,,,,,,,,,,,,,,,,,,,,
,,,,,,,,,,,,5f120c9ff7955b128346ea12,21,Mężczyzna,2022-06-11_09h41.30.315,task,2021.1.4,Win32,59.99520038,6299f149e92ead563fba08ef,62a4471e3649a9bd57c82389,,,,,,,,,,,,,5,,,,,,,,,,Task,22,(3x1) + 2,5,,,,,,,,,,,,,,,,,,,1,,,,,,,,,,,,,,,,,,,,,,,"[""5""]",1,[2.30860000002383],0,0,0,21,1,,,,,,,,,,,,,,,,,,,,,,,,,,
,,,,,,,,,,,X V Q F H G B L J M P D K C T S W R N Z,5f120c9ff7955b128346ea12,21,Mężczyzna,2022-06-11_09h41.30.315,task,2021.1.4,Win32,59.99520038,6299f149e92ead563fba08ef,62a4471e3649a9bd57c82389,,,,,,,,,,,,,,,,,,,,,,,,,,,,,,,,,,,,,,,,,,,,,,,,,,,,,,,,,,,,,,,,,,,,,,,,,,,,5,0,5,0,1,,,,,,,,,,,,,,,,,,,,,
,,,,,,,,,,,,5f120c9ff7955b128346ea12,21,Mężczyzna,2022-06-11_09h41.30.315,task,2021.1.4,Win32,59.99520038,6299f149e92ead563fba08ef,62a4471e3649a9bd57c82389,,,,,,,,,,,,,8,,,,,,,,,,Task,32,(8/2) + 4,8,,,,,,,,,,,,,,,,,,,1,,,,,,,,,,,,,,,,,,,,,,,"[""8""]",1,[2.245600000023842],0,0,0,31,1,,,,,,,,,,,,,,,,,,,,,,,,,,
,,,,,,,,,,,X V Q F H G B L J M P D K C T S W R N Z,5f120c9ff7955b128346ea12,21,Mężczyzna,2022-06-11_09h41.30.315,task,2021.1.4,Win32,59.99520038,6299f149e92ead563fba08ef,62a4471e3649a9bd57c82389,,,,,,,,,,,,,,,,,,,,,,,,,,,,,,,,,,,,,,,,,,,,,,,,,,,,,,,,,,,,,,,,,,,,,,,,,,,,6,0,6,0,1,,,,,,,,,,,,,,,,,,,,,
,,,,,,,,,,,,5f120c9ff7955b128346ea12,21,Mężczyzna,2022-06-11_09h41.30.315,task,2021.1.4,Win32,59.99520038,6299f149e92ead563fba08ef,62a4471e3649a9bd57c82389,,,,,,,,,,,,,,,,,,,,,,,,,,,,,,,,,,,,,,,,,,,,,,,,,,,,,,,,,,,,,,,,,,,,,,,,,,,,,,,,,mrhhfjx,"[""m"",""r"",""h"",""h"",""f"",""j"",""x""]",0,"[1.9376999999881264,2.298000000000002,2.706300000011879,2.905599999964238,3.8658999999761363,4.321300000011888,4.620199999988131,5.081999999999994]",1,MRHHFJX,6,0,6,0,1,,,,,,,,,,
,,,,,,,,,,,,5f120c9ff7955b128346ea12,21,Mężczyzna,2022-06-11_09h41.30.315,task,2021.1.4,Win32,59.99520038,6299f149e92ead563fba08ef,62a4471e3649a9bd57c82389,,,,,,,,,,,,,1,,,,,,,,,,Task,1,(12/6) - 1,1,,,,,,,,,,,,,,,,,,,1,,,,,,,,,,,,,,,,,,,,,,,"[""1""]",1,[4.3053000000119255],0,0,0,0,1,,,,,,,,,,,,,,,,,,,,,,,,,,
,,,,,,,,,,,X V Q F H G B L J M P D K C T S W R N Z,5f120c9ff7955b128346ea12,21,Mężczyzna,2022-06-11_09h41.30.315,task,2021.1.4,Win32,59.99520038,6299f149e92ead563fba08ef,62a4471e3649a9bd57c82389,,,,,,,,,,,,,,,,,,,,,,,,,,,,,,,,,,,,,,,,,,,,,,,,,,,,,,,,,,,,,,,,,,,,,,,,,,,,0,0,0,0,1,,,,,,,,,,,,,,,,,,,,,
,,,,,,,,,,,,5f120c9ff7955b128346ea12,21,Mężczyzna,2022-06-11_09h41.30.315,task,2021.1.4,Win32,59.99520038,6299f149e92ead563fba08ef,62a4471e3649a9bd57c82389,,,,,,,,,,,,,3,,,,,,,,,,Task,27,(3/3) + 2,3,,,,,,,,,,,,,,,,,,,1,,,,,,,,,,,,,,,,,,,,,,,"[""3""]",1,[3.2728000000117845],0,0,0,26,1,,,,,,,,,,,,,,,,,,,,,,,,,,
,,,,,,,,,,,X V Q F H G B L J M P D K C T S W R N Z,5f120c9ff7955b128346ea12,21,Mężczyzna,2022-06-11_09h41.30.315,task,2021.1.4,Win32,59.99520038,6299f149e92ead563fba08ef,62a4471e3649a9bd57c82389,,,,,,,,,,,,,,,,,,,,,,,,,,,,,,,,,,,,,,,,,,,,,,,,,,,,,,,,,,,,,,,,,,,,,,,,,,,,1,0,1,0,1,,,,,,,,,,,,,,,,,,,,,
,,,,,,,,,,,,5f120c9ff7955b128346ea12,21,Mężczyzna,2022-06-11_09h41.30.315,task,2021.1.4,Win32,59.99520038,6299f149e92ead563fba08ef,62a4471e3649a9bd57c82389,,,,,,,,,,,,,3,,,,,,,,,,Task,3,(2x3) - 3,3,,,,,,,,,,,,,,,,,,,1,,,,,,,,,,,,,,,,,,,,,,,"[""3""]",1,[5.069800000012037],0,0,0,2,1,,,,,,,,,,,,,,,,,,,,,,,,,,
,,,,,,,,,,,X V Q F H G B L J M P D K C T S W R N Z,5f120c9ff7955b128346ea12,21,Mężczyzna,2022-06-11_09h41.30.315,task,2021.1.4,Win32,59.99520038,6299f149e92ead563fba08ef,62a4471e3649a9bd57c82389,,,,,,,,,,,,,,,,,,,,,,,,,,,,,,,,,,,,,,,,,,,,,,,,,,,,,,,,,,,,,,,,,,,,,,,,,,,,2,0,2,0,1,,,,,,,,,,,,,,,,,,,,,
,,,,,,,,,,,,5f120c9ff7955b128346ea12,21,Mężczyzna,2022-06-11_09h41.30.315,task,2021.1.4,Win32,59.99520038,6299f149e92ead563fba08ef,62a4471e3649a9bd57c82389,,,,,,,,,,,,,1,,,,,,,,,,Task,18,(16/4) - 3,1,,,,,,,,,,,,,,,,,,,1,,,,,,,,,,,,,,,,,,,,,,,"[""1""]",1,[2.556100000023889],0,0,0,17,1,,,,,,,,,,,,,,,,,,,,,,,,,,
,,,,,,,,,,,X V Q F H G B L J M P D K C T S W R N Z,5f120c9ff7955b128346ea12,21,Mężczyzna,2022-06-11_09h41.30.315,task,2021.1.4,Win32,59.99520038,6299f149e92ead563fba08ef,62a4471e3649a9bd57c82389,,,,,,,,,,,,,,,,,,,,,,,,,,,,,,,,,,,,,,,,,,,,,,,,,,,,,,,,,,,,,,,,,,,,,,,,,,,,3,0,3,0,1,,,,,,,,,,,,,,,,,,,,,
,,,,,,,,,,,,5f120c9ff7955b128346ea12,21,Mężczyzna,2022-06-11_09h41.30.315,task,2021.1.4,Win32,59.99520038,6299f149e92ead563fba08ef,62a4471e3649a9bd57c82389,,,,,,,,,,,,,4,,,,,,,,,,Task,28,(2x5) - 6,4,,,,,,,,,,,,,,,,,,,1,,,,,,,,,,,,,,,,,,,,,,,"[""4""]",1,[1.9574999999999818],0,0,0,27,1,,,,,,,,,,,,,,,,,,,,,,,,,,
,,,,,,,,,,,X V Q F H G B L J M P D K C T S W R N Z,5f120c9ff7955b128346ea12,21,Mężczyzna,2022-06-11_09h41.30.315,task,2021.1.4,Win32,59.99520038,6299f149e92ead563fba08ef,62a4471e3649a9bd57c82389,,,,,,,,,,,,,,,,,,,,,,,,,,,,,,,,,,,,,,,,,,,,,,,,,,,,,,,,,,,,,,,,,,,,,,,,,,,,4,0,4,0,1,,,,,,,,,,,,,,,,,,,,,
,,,,,,,,,,,,5f120c9ff7955b128346ea12,21,Mężczyzna,2022-06-11_09h41.30.315,task,2021.1.4,Win32,59.99520038,6299f149e92ead563fba08ef,62a4471e3649a9bd57c82389,,,,,,,,,,,,,9,,,,,,,,,,Task,24,(2x2) + 5,9,,,,,,,,,,,,,,,,,,,1,,,,,,,,,,,,,,,,,,,,,,,"[""9""]",1,[2.429900000035559],0,0,0,23,1,,,,,,,,,,,,,,,,,,,,,,,,,,
,,,,,,,,,,,X V Q F H G B L J M P D K C T S W R N Z,5f120c9ff7955b128346ea12,21,Mężczyzna,2022-06-11_09h41.30.315,task,2021.1.4,Win32,59.99520038,6299f149e92ead563fba08ef,62a4471e3649a9bd57c82389,,,,,,,,,,,,,,,,,,,,,,,,,,,,,,,,,,,,,,,,,,,,,,,,,,,,,,,,,,,,,,,,,,,,,,,,,,,,5,0,5,0,1,,,,,,,,,,,,,,,,,,,,,
,,,,,,,,,,,,5f120c9ff7955b128346ea12,21,Mężczyzna,2022-06-11_09h41.30.315,task,2021.1.4,Win32,59.99520038,6299f149e92ead563fba08ef,62a4471e3649a9bd57c82389,,,,,,,,,,,,,3,,,,,,,,,,Task,27,(3/3) + 2,3,,,,,,,,,,,,,,,,,,,1,,,,,,,,,,,,,,,,,,,,,,,"[""3""]",1,[2.44110000002388],0,0,0,26,1,,,,,,,,,,,,,,,,,,,,,,,,,,
,,,,,,,,,,,X V Q F H G B L J M P D K C T S W R N Z,5f120c9ff7955b128346ea12,21,Mężczyzna,2022-06-11_09h41.30.315,task,2021.1.4,Win32,59.99520038,6299f149e92ead563fba08ef,62a4471e3649a9bd57c82389,,,,,,,,,,,,,,,,,,,,,,,,,,,,,,,,,,,,,,,,,,,,,,,,,,,,,,,,,,,,,,,,,,,,,,,,,,,,6,0,6,0,1,,,,,,,,,,,,,,,,,,,,,
,,,,,,,,,,,,5f120c9ff7955b128346ea12,21,Mężczyzna,2022-06-11_09h41.30.315,task,2021.1.4,Win32,59.99520038,6299f149e92ead563fba08ef,62a4471e3649a9bd57c82389,,,,,,,,,,,,,0,,,,,,,,,,Task,8,(1x5) - 5,0,,,,,,,,,,,,,,,,,,,1,,,,,,,,,,,,,,,,,,,,,,,"[""0""]",1,[2.9184999999999945],0,0,0,7,1,,,,,,,,,,,,,,,,,,,,,,,,,,
,,,,,,,,,,,X V Q F H G B L J M P D K C T S W R N Z,5f120c9ff7955b128346ea12,21,Mężczyzna,2022-06-11_09h41.30.315,task,2021.1.4,Win32,59.99520038,6299f149e92ead563fba08ef,62a4471e3649a9bd57c82389,,,,,,,,,,,,,,,,,,,,,,,,,,,,,,,,,,,,,,,,,,,,,,,,,,,,,,,,,,,,,,,,,,,,,,,,,,,,7,0,7,0,1,,,,,,,,,,,,,,,,,,,,,
,,,,,,,,,,,,5f120c9ff7955b128346ea12,21,Mężczyzna,2022-06-11_09h41.30.315,task,2021.1.4,Win32,59.99520038,6299f149e92ead563fba08ef,62a4471e3649a9bd57c82389,,,,,,,,,,,,,,,,,,,,,,,,,,,,,,,,,,,,,,,,,,,,,,,,,,,,,,,,,,,,,,,,,,,,,,,,,,,,,,,,,mhrdxtlt,"[""m"",""h"",""r"",""d"",""x"",""t"",""l"",""t""]",0,"[1.9012999999522435,2.5577999999522945,3.180899999976191,3.7568999999759853,4.0708999999760636,8.069499999999834,8.277000000000044,8.517599999964204,8.797199999987924]",0,THRDXTLT,7,0,7,0,1,,,,,,,,,,
,,,,,,,,,,,,5f120c9ff7955b128346ea12,21,Mężczyzna,2022-06-11_09h41.30.315,task,2021.1.4,Win32,59.99520038,6299f149e92ead563fba08ef,62a4471e3649a9bd57c82389,,,,,,,,,,,,,5,,,,,,,,,,Task,29,(3x8) - 19 ,5,,,,,,,,,,,,,,,,,,,1,,,,,,,,,,,,,,,,,,,,,,,"[""5""]",1,[1.9629999999999654],0,0,0,28,1,,,,,,,,,,,,,,,,,,,,,,,,,,
,,,,,,,,,,,X V Q F H G B L J M P D K C T S W R N Z,5f120c9ff7955b128346ea12,21,Mężczyzna,2022-06-11_09h41.30.315,task,2021.1.4,Win32,59.99520038,6299f149e92ead563fba08ef,62a4471e3649a9bd57c82389,,,,,,,,,,,,,,,,,,,,,,,,,,,,,,,,,,,,,,,,,,,,,,,,,,,,,,,,,,,,,,,,,,,,,,,,,,,,0,0,0,0,1,,,,,,,,,,,,,,,,,,,,,
,,,,,,,,,,,,5f120c9ff7955b128346ea12,21,Mężczyzna,2022-06-11_09h41.30.315,task,2021.1.4,Win32,59.99520038,6299f149e92ead563fba08ef,62a4471e3649a9bd57c82389,,,,,,,,,,,,,9,,,,,,,,,,Task,24,(2x2) + 5,9,,,,,,,,,,,,,,,,,,,1,,,,,,,,,,,,,,,,,,,,,,,"[""9""]",1,[1.7738000000119882],0,0,0,23,1,,,,,,,,,,,,,,,,,,,,,,,,,,
,,,,,,,,,,,X V Q F H G B L J M P D K C T S W R N Z,5f120c9ff7955b128346ea12,21,Mężczyzna,2022-06-11_09h41.30.315,task,2021.1.4,Win32,59.99520038,6299f149e92ead563fba08ef,62a4471e3649a9bd57c82389,,,,,,,,,,,,,,,,,,,,,,,,,,,,,,,,,,,,,,,,,,,,,,,,,,,,,,,,,,,,,,,,,,,,,,,,,,,,1,0,1,0,1,,,,,,,,,,,,,,,,,,,,,
,,,,,,,,,,,,5f120c9ff7955b128346ea12,21,Mężczyzna,2022-06-11_09h41.30.315,task,2021.1.4,Win32,59.99520038,6299f149e92ead563fba08ef,62a4471e3649a9bd57c82389,,,,,,,,,,,,,3,,,,,,,,,,Task,20,(18/9) + 1,3,,,,,,,,,,,,,,,,,,,1,,,,,,,,,,,,,,,,,,,,,,,"[""3""]",1,[4.338900000035892],0,0,0,19,1,,,,,,,,,,,,,,,,,,,,,,,,,,
,,,,,,,,,,,X V Q F H G B L J M P D K C T S W R N Z,5f120c9ff7955b128346ea12,21,Mężczyzna,2022-06-11_09h41.30.315,task,2021.1.4,Win32,59.99520038,6299f149e92ead563fba08ef,62a4471e3649a9bd57c82389,,,,,,,,,,,,,,,,,,,,,,,,,,,,,,,,,,,,,,,,,,,,,,,,,,,,,,,,,,,,,,,,,,,,,,,,,,,,2,0,2,0,1,,,,,,,,,,,,,,,,,,,,,
,,,,,,,,,,,,5f120c9ff7955b128346ea12,21,Mężczyzna,2022-06-11_09h41.30.315,task,2021.1.4,Win32,59.99520038,6299f149e92ead563fba08ef,62a4471e3649a9bd57c82389,,,,,,,,,,,,,5,,,,,,,,,,Task,36,(8/4) + 3,5,,,,,,,,,,,,,,,,,,,1,,,,,,,,,,,,,,,,,,,,,,,"[""5""]",1,[2.5706999999881646],0,0,0,35,1,,,,,,,,,,,,,,,,,,,,,,,,,,
,,,,,,,,,,,X V Q F H G B L J M P D K C T S W R N Z,5f120c9ff7955b128346ea12,21,Mężczyzna,2022-06-11_09h41.30.315,task,2021.1.4,Win32,59.99520038,6299f149e92ead563fba08ef,62a4471e3649a9bd57c82389,,,,,,,,,,,,,,,,,,,,,,,,,,,,,,,,,,,,,,,,,,,,,,,,,,,,,,,,,,,,,,,,,,,,,,,,,,,,3,0,3,0,1,,,,,,,,,,,,,,,,,,,,,
,,,,,,,,,,,,5f120c9ff7955b128346ea12,21,Mężczyzna,2022-06-11_09h41.30.315,task,2021.1.4,Win32,59.99520038,6299f149e92ead563fba08ef,62a4471e3649a9bd57c82389,,,,,,,,,,,,,6,,,,,,,,,,Task,30,(6/3) + 4 ,6,,,,,,,,,,,,,,,,,,,1,,,,,,,,,,,,,,,,,,,,,,,"[""6""]",1,[3.5367999999523363],0,0,0,29,1,,,,,,,,,,,,,,,,,,,,,,,,,,
,,,,,,,,,,,X V Q F H G B L J M P D K C T S W R N Z,5f120c9ff7955b128346ea12,21,Mężczyzna,2022-06-11_09h41.30.315,task,2021.1.4,Win32,59.99520038,6299f149e92ead563fba08ef,62a4471e3649a9bd57c82389,,,,,,,,,,,,,,,,,,,,,,,,,,,,,,,,,,,,,,,,,,,,,,,,,,,,,,,,,,,,,,,,,,,,,,,,,,,,4,0,4,0,1,,,,,,,,,,,,,,,,,,,,,
,,,,,,,,,,,,5f120c9ff7955b128346ea12,21,Mężczyzna,2022-06-11_09h41.30.315,task,2021.1.4,Win32,59.99520038,6299f149e92ead563fba08ef,62a4471e3649a9bd57c82389,,,,,,,,,,,,,1,,,,,,,,,,Task,34,(9/3) - 2,1,,,,,,,,,,,,,,,,,,,1,,,,,,,,,,,,,,,,,,,,,,,"[""1""]",1,[3.872500000000173],0,0,0,33,1,,,,,,,,,,,,,,,,,,,,,,,,,,
,,,,,,,,,,,X V Q F H G B L J M P D K C T S W R N Z,5f120c9ff7955b128346ea12,21,Mężczyzna,2022-06-11_09h41.30.315,task,2021.1.4,Win32,59.99520038,6299f149e92ead563fba08ef,62a4471e3649a9bd57c82389,,,,,,,,,,,,,,,,,,,,,,,,,,,,,,,,,,,,,,,,,,,,,,,,,,,,,,,,,,,,,,,,,,,,,,,,,,,,5,0,5,0,1,,,,,,,,,,,,,,,,,,,,,
,,,,,,,,,,,,5f120c9ff7955b128346ea12,21,Mężczyzna,2022-06-11_09h41.30.315,task,2021.1.4,Win32,59.99520038,6299f149e92ead563fba08ef,62a4471e3649a9bd57c82389,,,,,,,,,,,,,8,,,,,,,,,,Task,23,(2x3) + 2,8,,,,,,,,,,,,,,,,,,,1,,,,,,,,,,,,,,,,,,,,,,,"[""8""]",1,[3.35420000004774],0,0,0,22,1,,,,,,,,,,,,,,,,,,,,,,,,,,
,,,,,,,,,,,X V Q F H G B L J M P D K C T S W R N Z,5f120c9ff7955b128346ea12,21,Mężczyzna,2022-06-11_09h41.30.315,task,2021.1.4,Win32,59.99520038,6299f149e92ead563fba08ef,62a4471e3649a9bd57c82389,,,,,,,,,,,,,,,,,,,,,,,,,,,,,,,,,,,,,,,,,,,,,,,,,,,,,,,,,,,,,,,,,,,,,,,,,,,,6,0,6,0,1,,,,,,,,,,,,,,,,,,,,,
,,,,,,,,,,,,5f120c9ff7955b128346ea12,21,Mężczyzna,2022-06-11_09h41.30.315,task,2021.1.4,Win32,59.99520038,6299f149e92ead563fba08ef,62a4471e3649a9bd57c82389,,,,,,,,,,,,,9,,,,,,,,,,Task,7,(3x7) - 12,9,,,,,,,,,,,,,,,,,,,1,,,,,,,,,,,,,,,,,,,,,,,"[""9""]",1,[3.4307999999521144],0,0,0,6,1,,,,,,,,,,,,,,,,,,,,,,,,,,
,,,,,,,,,,,X V Q F H G B L J M P D K C T S W R N Z,5f120c9ff7955b128346ea12,21,Mężczyzna,2022-06-11_09h41.30.315,task,2021.1.4,Win32,59.99520038,6299f149e92ead563fba08ef,62a4471e3649a9bd57c82389,,,,,,,,,,,,,,,,,,,,,,,,,,,,,,,,,,,,,,,,,,,,,,,,,,,,,,,,,,,,,,,,,,,,,,,,,,,,7,0,7,0,1,,,,,,,,,,,,,,,,,,,,,
,,,,,,,,,,,,5f120c9ff7955b128346ea12,21,Mężczyzna,2022-06-11_09h41.30.315,task,2021.1.4,Win32,59.99520038,6299f149e92ead563fba08ef,62a4471e3649a9bd57c82389,,,,,,,,,,,,,,,,,,,,,,,,,,,,,,,,,,,,,,,,,,,,,,,,,,,,,,,,,,,,,,,,,,,,,,,,,,,,,,,,,ccjzmqzl,"[""c"",""c"",""j"",""z"",""m"",""q"",""z"",""l""]",0,"[2.276499999999942,2.7964000000356464,3.292300000011892,3.7482000000477456,4.220100000023876,4.684100000023818,5.196300000011888,5.7000000000000455,58.628300000011905]",1,CCJZMQZL,8,0,8,0,1,,,,,,,,,,
,,,,,,,,,,,,5f120c9ff7955b128346ea12,21,Mężczyzna,2022-06-11_09h41.30.315,task,2021.1.4,Win32,59.99520038,6299f149e92ead563fba08ef,62a4471e3649a9bd57c82389,,,,,,,,,,,,,4,,,,,,,,,,Task,28,(2x5) - 6,4,,,,,,,,,,,,,,,,,,,1,,,,,,,,,,,,,,,,,,,,,,,"[""4""]",1,[2.4020000000000437],0,0,0,27,1,,,,,,,,,,,,,,,,,,,,,,,,,,
,,,,,,,,,,,X V Q F H G B L J M P D K C T S W R N Z,5f120c9ff7955b128346ea12,21,Mężczyzna,2022-06-11_09h41.30.315,task,2021.1.4,Win32,59.99520038,6299f149e92ead563fba08ef,62a4471e3649a9bd57c82389,,,,,,,,,,,,,,,,,,,,,,,,,,,,,,,,,,,,,,,,,,,,,,,,,,,,,,,,,,,,,,,,,,,,,,,,,,,,0,0,0,0,1,,,,,,,,,,,,,,,,,,,,,
,,,,,,,,,,,,5f120c9ff7955b128346ea12,21,Mężczyzna,2022-06-11_09h41.30.315,task,2021.1.4,Win32,59.99520038,6299f149e92ead563fba08ef,62a4471e3649a9bd57c82389,,,,,,,,,,,,,6,,,,,,,,,,Task,37,(3/3) + 5,6,,,,,,,,,,,,,,,,,,,1,,,,,,,,,,,,,,,,,,,,,,,"[""6""]",1,[2.007000000000062],0,0,0,36,1,,,,,,,,,,,,,,,,,,,,,,,,,,
,,,,,,,,,,,X V Q F H G B L J M P D K C T S W R N Z,5f120c9ff7955b128346ea12,21,Mężczyzna,2022-06-11_09h41.30.315,task,2021.1.4,Win32,59.99520038,6299f149e92ead563fba08ef,62a4471e3649a9bd57c82389,,,,,,,,,,,,,,,,,,,,,,,,,,,,,,,,,,,,,,,,,,,,,,,,,,,,,,,,,,,,,,,,,,,,,,,,,,,,1,0,1,0,1,,,,,,,,,,,,,,,,,,,,,
,,,,,,,,,,,,5f120c9ff7955b128346ea12,21,Mężczyzna,2022-06-11_09h41.30.315,task,2021.1.4,Win32,59.99520038,6299f149e92ead563fba08ef,62a4471e3649a9bd57c82389,,,,,,,,,,,,,3,,,,,,,,,,Task,3,(2x3) - 3,3,,,,,,,,,,,,,,,,,,,1,,,,,,,,,,,,,,,,,,,,,,,"[""3""]",1,[1.8285000000000764],0,0,0,2,1,,,,,,,,,,,,,,,,,,,,,,,,,,
,,,,,,,,,,,X V Q F H G B L J M P D K C T S W R N Z,5f120c9ff7955b128346ea12,21,Mężczyzna,2022-06-11_09h41.30.315,task,2021.1.4,Win32,59.99520038,6299f149e92ead563fba08ef,62a4471e3649a9bd57c82389,,,,,,,,,,,,,,,,,,,,,,,,,,,,,,,,,,,,,,,,,,,,,,,,,,,,,,,,,,,,,,,,,,,,,,,,,,,,2,0,2,0,1,,,,,,,,,,,,,,,,,,,,,
,,,,,,,,,,,,5f120c9ff7955b128346ea12,21,Mężczyzna,2022-06-11_09h41.30.315,task,2021.1.4,Win32,59.99520038,6299f149e92ead563fba08ef,62a4471e3649a9bd57c82389,,,,,,,,,,,,,8,,,,,,,,,,Task,15,(3x7) - 13,8,,,,,,,,,,,,,,,,,,,1,,,,,,,,,,,,,,,,,,,,,,,"[""8""]",1,[2.529699999987997],0,0,0,14,1,,,,,,,,,,,,,,,,,,,,,,,,,,
,,,,,,,,,,,X V Q F H G B L J M P D K C T S W R N Z,5f120c9ff7955b128346ea12,21,Mężczyzna,2022-06-11_09h41.30.315,task,2021.1.4,Win32,59.99520038,6299f149e92ead563fba08ef,62a4471e3649a9bd57c82389,,,,,,,,,,,,,,,,,,,,,,,,,,,,,,,,,,,,,,,,,,,,,,,,,,,,,,,,,,,,,,,,,,,,,,,,,,,,3,0,3,0,1,,,,,,,,,,,,,,,,,,,,,
,,,,,,,,,,,,5f120c9ff7955b128346ea12,21,Mężczyzna,2022-06-11_09h41.30.315,task,2021.1.4,Win32,59.99520038,6299f149e92ead563fba08ef,62a4471e3649a9bd57c82389,,,,,,,,,,,,,9,,,,,,,,,,Task,24,(2x2) + 5,9,,,,,,,,,,,,,,,,,,,1,,,,,,,,,,,,,,,,,,,,,,,"[""9""]",1,[1.9556000000238782],0,0,0,23,1,,,,,,,,,,,,,,,,,,,,,,,,,,
,,,,,,,,,,,X V Q F H G B L J M P D K C T S W R N Z,5f120c9ff7955b128346ea12,21,Mężczyzna,2022-06-11_09h41.30.315,task,2021.1.4,Win32,59.99520038,6299f149e92ead563fba08ef,62a4471e3649a9bd57c82389,,,,,,,,,,,,,,,,,,,,,,,,,,,,,,,,,,,,,,,,,,,,,,,,,,,,,,,,,,,,,,,,,,,,,,,,,,,,4,0,4,0,1,,,,,,,,,,,,,,,,,,,,,
,,,,,,,,,,,,5f120c9ff7955b128346ea12,21,Mężczyzna,2022-06-11_09h41.30.315,task,2021.1.4,Win32,59.99520038,6299f149e92ead563fba08ef,62a4471e3649a9bd57c82389,,,,,,,,,,,,,2,,,,,,,,,,Task,10,(2x5) - 8,2,,,,,,,,,,,,,,,,,,,1,,,,,,,,,,,,,,,,,,,,,,,"[""2""]",1,[2.657300000011901],0,0,0,9,1,,,,,,,,,,,,,,,,,,,,,,,,,,
,,,,,,,,,,,X V Q F H G B L J M P D K C T S W R N Z,5f120c9ff7955b128346ea12,21,Mężczyzna,2022-06-11_09h41.30.315,task,2021.1.4,Win32,59.99520038,6299f149e92ead563fba08ef,62a4471e3649a9bd57c82389,,,,,,,,,,,,,,,,,,,,,,,,,,,,,,,,,,,,,,,,,,,,,,,,,,,,,,,,,,,,,,,,,,,,,,,,,,,,5,0,5,0,1,,,,,,,,,,,,,,,,,,,,,
,,,,,,,,,,,,5f120c9ff7955b128346ea12,21,Mężczyzna,2022-06-11_09h41.30.315,task,2021.1.4,Win32,59.99520038,6299f149e92ead563fba08ef,62a4471e3649a9bd57c82389,,,,,,,,,,,,,5,,,,,,,,,,Task,34,(9/3) - 2,1,,,,,,,,,,,,,,,,,,,0,,,,,,,,,,,,,,,,,,,,,,,"[""5""]",0,[2.735600000023851],0,0,0,33,1,,,,,,,,,,,,,,,,,,,,,,,,,,
,,,,,,,,,,,,5f120c9ff7955b128346ea12,21,Mężczyzna,2022-06-11_09h41.30.315,task,2021.1.4,Win32,59.99520038,6299f149e92ead563fba08ef,62a4471e3649a9bd57c82389,,,,,,,,,,,,,4,,,,,,,,,,Task,28,(2x5) - 6,4,,,,,,,,,,,,,,,,,,,1,,,,,,,,,,,,,,,,,,,,,,,"[""4""]",1,[2.1018000000117354],0,1,1,27,1,,,,,,,,,,,,,,,,,,,,,,,,,,
,,,,,,,,,,,X V Q F H G B L J M P D K C T S W R N Z,5f120c9ff7955b128346ea12,21,Mężczyzna,2022-06-11_09h41.30.315,task,2021.1.4,Win32,59.99520038,6299f149e92ead563fba08ef,62a4471e3649a9bd57c82389,,,,,,,,,,,,,,,,,,,,,,,,,,,,,,,,,,,,,,,,,,,,,,,,,,,,,,,,,,,,,,,,,,,,,,,,,,,,6,0,6,0,1,,,,,,,,,,,,,,,,,,,,,
,,,,,,,,,,,,5f120c9ff7955b128346ea12,21,Mężczyzna,2022-06-11_09h41.30.315,task,2021.1.4,Win32,59.99520038,6299f149e92ead563fba08ef,62a4471e3649a9bd57c82389,,,,,,,,,,,,,5,,,,,,,,,,Task,22,(3x1) + 2,5,,,,,,,,,,,,,,,,,,,1,,,,,,,,,,,,,,,,,,,,,,,"[""5""]",1,[1.838300000011941],0,0,0,21,1,,,,,,,,,,,,,,,,,,,,,,,,,,
,,,,,,,,,,,X V Q F H G B L J M P D K C T S W R N Z,5f120c9ff7955b128346ea12,21,Mężczyzna,2022-06-11_09h41.30.315,task,2021.1.4,Win32,59.99520038,6299f149e92ead563fba08ef,62a4471e3649a9bd57c82389,,,,,,,,,,,,,,,,,,,,,,,,,,,,,,,,,,,,,,,,,,,,,,,,,,,,,,,,,,,,,,,,,,,,,,,,,,,,7,0,7,0,1,,,,,,,,,,,,,,,,,,,,,
,,,,,,,,,,,,5f120c9ff7955b128346ea12,21,Mężczyzna,2022-06-11_09h41.30.315,task,2021.1.4,Win32,59.99520038,6299f149e92ead563fba08ef,62a4471e3649a9bd57c82389,,,,,,,,,,,,,8,,,,,,,,,,Task,32,(8/2) + 4,8,,,,,,,,,,,,,,,,,,,1,,,,,,,,,,,,,,,,,,,,,,,"[""8""]",1,[3.8365999999641645],0,0,0,31,1,,,,,,,,,,,,,,,,,,,,,,,,,,
,,,,,,,,,,,X V Q F H G B L J M P D K C T S W R N Z,5f120c9ff7955b128346ea12,21,Mężczyzna,2022-06-11_09h41.30.315,task,2021.1.4,Win32,59.99520038,6299f149e92ead563fba08ef,62a4471e3649a9bd57c82389,,,,,,,,,,,,,,,,,,,,,,,,,,,,,,,,,,,,,,,,,,,,,,,,,,,,,,,,,,,,,,,,,,,,,,,,,,,,8,0,8,0,1,,,,,,,,,,,,,,,,,,,,,
,,,,,,,,,,,,5f120c9ff7955b128346ea12,21,Mężczyzna,2022-06-11_09h41.30.315,task,2021.1.4,Win32,59.99520038,6299f149e92ead563fba08ef,62a4471e3649a9bd57c82389,,,,,,,,,,,,,,,,,,,,,,,,,,,,,,,,,,,,,,,,,,,,,,,,,,,,,,,,,,,,,,,,,,,,,,,,,,,,,,,,,jvfsbhzwm,"[""j"",""v"",""f"",""s"",""b"",""h"",""z"",""w"",""m""]",0,"[2.0410000000001673,2.602000000000089,5.216899999976249,5.800000000000182,6.369000000000142,6.944899999976315,8.008599999964417,8.753099999964434,9.800699999988183,10.026699999988296]",0,JVFSBHXWN,9,0,9,0,1,,,,,,,,,,
,,,,,,,,,,,,5f120c9ff7955b128346ea12,21,Mężczyzna,2022-06-11_09h41.30.315,task,2021.1.4,Win32,59.99520038,6299f149e92ead563fba08ef,62a4471e3649a9bd57c82389,,,,,,,,,,,,,6,,,,,,,,,,Task,37,(3/3) + 5,6,,,,,,,,,,,,,,,,,,,1,,,,,,,,,,,,,,,,,,,,,,,"[""6""]",1,[2.1505999999642427],0,0,0,36,1,,,,,,,,,,,,,,,,,,,,,,,,,,
,,,,,,,,,,,X V Q F H G B L J M P D K C T S W R N Z,5f120c9ff7955b128346ea12,21,Mężczyzna,2022-06-11_09h41.30.315,task,2021.1.4,Win32,59.99520038,6299f149e92ead563fba08ef,62a4471e3649a9bd57c82389,,,,,,,,,,,,,,,,,,,,,,,,,,,,,,,,,,,,,,,,,,,,,,,,,,,,,,,,,,,,,,,,,,,,,,,,,,,,0,0,0,0,1,,,,,,,,,,,,,,,,,,,,,
,,,,,,,,,,,,5f120c9ff7955b128346ea12,21,Mężczyzna,2022-06-11_09h41.30.315,task,2021.1.4,Win32,59.99520038,6299f149e92ead563fba08ef,62a4471e3649a9bd57c82389,,,,,,,,,,,,,1,,,,,,,,,,Task,1,(12/6) - 1,1,,,,,,,,,,,,,,,,,,,1,,,,,,,,,,,,,,,,,,,,,,,"[""1""]",1,[3.58840000003579],0,0,0,0,1,,,,,,,,,,,,,,,,,,,,,,,,,,
,,,,,,,,,,,X V Q F H G B L J M P D K C T S W R N Z,5f120c9ff7955b128346ea12,21,Mężczyzna,2022-06-11_09h41.30.315,task,2021.1.4,Win32,59.99520038,6299f149e92ead563fba08ef,62a4471e3649a9bd57c82389,,,,,,,,,,,,,,,,,,,,,,,,,,,,,,,,,,,,,,,,,,,,,,,,,,,,,,,,,,,,,,,,,,,,,,,,,,,,1,0,1,0,1,,,,,,,,,,,,,,,,,,,,,
,,,,,,,,,,,,5f120c9ff7955b128346ea12,21,Mężczyzna,2022-06-11_09h41.30.315,task,2021.1.4,Win32,59.99520038,6299f149e92ead563fba08ef,62a4471e3649a9bd57c82389,,,,,,,,,,,,,0,,,,,,,,,,Task,25,(10/5) - 2,0,,,,,,,,,,,,,,,,,,,1,,,,,,,,,,,,,,,,,,,,,,,"[""0""]",1,[3.5836000000238073],0,0,0,24,1,,,,,,,,,,,,,,,,,,,,,,,,,,
,,,,,,,,,,,X V Q F H G B L J M P D K C T S W R N Z,5f120c9ff7955b128346ea12,21,Mężczyzna,2022-06-11_09h41.30.315,task,2021.1.4,Win32,59.99520038,6299f149e92ead563fba08ef,62a4471e3649a9bd57c82389,,,,,,,,,,,,,,,,,,,,,,,,,,,,,,,,,,,,,,,,,,,,,,,,,,,,,,,,,,,,,,,,,,,,,,,,,,,,2,0,2,0,1,,,,,,,,,,,,,,,,,,,,,
,,,,,,,,,,,,5f120c9ff7955b128346ea12,21,Mężczyzna,2022-06-11_09h41.30.315,task,2021.1.4,Win32,59.99520038,6299f149e92ead563fba08ef,62a4471e3649a9bd57c82389,,,,,,,,,,,,,8,,,,,,,,,,Task,39,(5x3) - 7,8,,,,,,,,,,,,,,,,,,,1,,,,,,,,,,,,,,,,,,,,,,,"[""8""]",1,[3.1412000000475473],0,0,0,38,1,,,,,,,,,,,,,,,,,,,,,,,,,,
,,,,,,,,,,,X V Q F H G B L J M P D K C T S W R N Z,5f120c9ff7955b128346ea12,21,Mężczyzna,2022-06-11_09h41.30.315,task,2021.1.4,Win32,59.99520038,6299f149e92ead563fba08ef,62a4471e3649a9bd57c82389,,,,,,,,,,,,,,,,,,,,,,,,,,,,,,,,,,,,,,,,,,,,,,,,,,,,,,,,,,,,,,,,,,,,,,,,,,,,3,0,3,0,1,,,,,,,,,,,,,,,,,,,,,
,,,,,,,,,,,,5f120c9ff7955b128346ea12,21,Mężczyzna,2022-06-11_09h41.30.315,task,2021.1.4,Win32,59.99520038,6299f149e92ead563fba08ef,62a4471e3649a9bd57c82389,,,,,,,,,,,,,2,,,,,,,,,,Task,26,(2x9) - 16,2,,,,,,,,,,,,,,,,,,,1,,,,,,,,,,,,,,,,,,,,,,,"[""2""]",1,[1.9890000000000327],0,0,0,25,1,,,,,,,,,,,,,,,,,,,,,,,,,,
,,,,,,,,,,,X V Q F H G B L J M P D K C T S W R N Z,5f120c9ff7955b128346ea12,21,Mężczyzna,2022-06-11_09h41.30.315,task,2021.1.4,Win32,59.99520038,6299f149e92ead563fba08ef,62a4471e3649a9bd57c82389,,,,,,,,,,,,,,,,,,,,,,,,,,,,,,,,,,,,,,,,,,,,,,,,,,,,,,,,,,,,,,,,,,,,,,,,,,,,4,0,4,0,1,,,,,,,,,,,,,,,,,,,,,
,,,,,,,,,,,,5f120c9ff7955b128346ea12,21,Mężczyzna,2022-06-11_09h41.30.315,task,2021.1.4,Win32,59.99520038,6299f149e92ead563fba08ef,62a4471e3649a9bd57c82389,,,,,,,,,,,,,9,,,,,,,,,,Task,16,(3x8) - 15,9,,,,,,,,,,,,,,,,,,,1,,,,,,,,,,,,,,,,,,,,,,,"[""9""]",1,[2.8264999999998963],0,0,0,15,1,,,,,,,,,,,,,,,,,,,,,,,,,,
,,,,,,,,,,,X V Q F H G B L J M P D K C T S W R N Z,5f120c9ff7955b128346ea12,21,Mężczyzna,2022-06-11_09h41.30.315,task,2021.1.4,Win32,59.99520038,6299f149e92ead563fba08ef,62a4471e3649a9bd57c82389,,,,,,,,,,,,,,,,,,,,,,,,,,,,,,,,,,,,,,,,,,,,,,,,,,,,,,,,,,,,,,,,,,,,,,,,,,,,5,0,5,0,1,,,,,,,,,,,,,,,,,,,,,
,,,,,,,,,,,,5f120c9ff7955b128346ea12,21,Mężczyzna,2022-06-11_09h41.30.315,task,2021.1.4,Win32,59.99520038,6299f149e92ead563fba08ef,62a4471e3649a9bd57c82389,,,,,,,,,,,,,1,,,,,,,,,,Task,18,(16/4) - 3,1,,,,,,,,,,,,,,,,,,,1,,,,,,,,,,,,,,,,,,,,,,,"[""1""]",1,[4.72769999998809],0,0,0,17,1,,,,,,,,,,,,,,,,,,,,,,,,,,
,,,,,,,,,,,X V Q F H G B L J M P D K C T S W R N Z,5f120c9ff7955b128346ea12,21,Mężczyzna,2022-06-11_09h41.30.315,task,2021.1.4,Win32,59.99520038,6299f149e92ead563fba08ef,62a4471e3649a9bd57c82389,,,,,,,,,,,,,,,,,,,,,,,,,,,,,,,,,,,,,,,,,,,,,,,,,,,,,,,,,,,,,,,,,,,,,,,,,,,,6,0,6,0,1,,,,,,,,,,,,,,,,,,,,,
,,,,,,,,,,,,5f120c9ff7955b128346ea12,21,Mężczyzna,2022-06-11_09h41.30.315,task,2021.1.4,Win32,59.99520038,6299f149e92ead563fba08ef,62a4471e3649a9bd57c82389,,,,,,,,,,,,,2,,,,,,,,,,Task,19,(6/2) - 1,2,,,,,,,,,,,,,,,,,,,1,,,,,,,,,,,,,,,,,,,,,,,"[""2""]",1,[3.117700000047762],0,0,0,18,1,,,,,,,,,,,,,,,,,,,,,,,,,,
,,,,,,,,,,,X V Q F H G B L J M P D K C T S W R N Z,5f120c9ff7955b128346ea12,21,Mężczyzna,2022-06-11_09h41.30.315,task,2021.1.4,Win32,59.99520038,6299f149e92ead563fba08ef,62a4471e3649a9bd57c82389,,,,,,,,,,,,,,,,,,,,,,,,,,,,,,,,,,,,,,,,,,,,,,,,,,,,,,,,,,,,,,,,,,,,,,,,,,,,7,0,7,0,1,,,,,,,,,,,,,,,,,,,,,
,,,,,,,,,,,,5f120c9ff7955b128346ea12,21,Mężczyzna,2022-06-11_09h41.30.315,task,2021.1.4,Win32,59.99520038,6299f149e92ead563fba08ef,62a4471e3649a9bd57c82389,,,,,,,,,,,,,6,,,,,,,,,,Task,37,(3/3) + 5,6,,,,,,,,,,,,,,,,,,,1,,,,,,,,,,,,,,,,,,,,,,,"[""6""]",1,[2.2863000000120337],0,0,0,36,1,,,,,,,,,,,,,,,,,,,,,,,,,,
,,,,,,,,,,,X V Q F H G B L J M P D K C T S W R N Z,5f120c9ff7955b128346ea12,21,Mężczyzna,2022-06-11_09h41.30.315,task,2021.1.4,Win32,59.99520038,6299f149e92ead563fba08ef,62a4471e3649a9bd57c82389,,,,,,,,,,,,,,,,,,,,,,,,,,,,,,,,,,,,,,,,,,,,,,,,,,,,,,,,,,,,,,,,,,,,,,,,,,,,8,0,8,0,1,,,,,,,,,,,,,,,,,,,,,
,,,,,,,,,,,,5f120c9ff7955b128346ea12,21,Mężczyzna,2022-06-11_09h41.30.315,task,2021.1.4,Win32,59.99520038,6299f149e92ead563fba08ef,62a4471e3649a9bd57c82389,,,,,,,,,,,,,,,,,,,,,,,,,,,,,,,,,,,,,,,,,,,,,,,,,,,,,,,,,,,,,,,,,,,,,,,,,,,,,,,,,jbdvwzmh,"[""j"",""b"",""d"",""v"",""w"",""z"",""m"",""h""]",0,"[2.354399999976067,2.7380000000000564,3.4506999999880463,4.042500000000018,4.666600000023891,5.37139999997612,5.841800000011972,6.898399999976164,16.083000000000084]",0,JBDVVXWHR,10,0,10,0,1,,,,,,,,,,
,,,,,,,,,,,,5f120c9ff7955b128346ea12,21,Mężczyzna,2022-06-11_09h41.30.315,task,2021.1.4,Win32,59.99520038,6299f149e92ead563fba08ef,62a4471e3649a9bd57c82389,,,,,,,,,,,,,,,,,,,,,,,,,,,,,,,,,,,,,,,,,,,,,,,,,,,,,,,,,,,,,,,,,,,,,,,,,,,,,,,,,,,,,,,,,,,,,0,0,0,0,0,1,,,
,,,,,,,,,,,,5f120c9ff7955b128346ea12,21,Mężczyzna,2022-06-11_09h41.30.315,task,2021.1.4,Win32,59.99520038,6299f149e92ead563fba08ef,62a4471e3649a9bd57c82389,,,,,,,,,,,,,,,,,,,,,,,,,,,,,,,,,,,,,,,,,,,,,,,,,,,,,,,,,,,,,,,,,,,,,,,,,,,,,,,,,,,,,,,,,,,,,0,1,0,1,0,1,,,
,,,,,,,,,,,,5f120c9ff7955b128346ea12,21,Mężczyzna,2022-06-11_09h41.30.315,task,2021.1.4,Win32,59.99520038,6299f149e92ead563fba08ef,62a4471e3649a9bd57c82389,,,,,,,,,,,,,,,,,,,,,,,,,,,,,,,,,,,,,,,,,,,,,,,,,,,,,,,,,,,,,,,,,,,,,,,,,,,,,,,,,,,,,,,,,,,,,0,2,0,2,0,1,,,
,,,,,,,,,,,,5f120c9ff7955b128346ea12,21,Mężczyzna,2022-06-11_09h41.30.315,task,2021.1.4,Win32,59.99520038,6299f149e92ead563fba08ef,62a4471e3649a9bd57c82389,,,,,,,,,,,,,,,,,,,,,,,,,,,,,,,,,,,,,,,,,,,,,,,,,,,,,,,,,,,,,,,,,,,,,,,,,,,,,,,,,,,,,,,,,,,,,0,3,0,3,0,1,,,
,,,,,,,,,,,,5f120c9ff7955b128346ea12,21,Mężczyzna,2022-06-11_09h41.30.315,task,2021.1.4,Win32,59.99520038,6299f149e92ead563fba08ef,62a4471e3649a9bd57c82389,,,,,,,,,,,,,,,,,,,,,,,,,,,,,,,,,,,,,,,,,,,,,,,,,,,,,,,,,,,,,,,,,,,,,,,,,,,,,,,,,,,,,,,,,,,,"[""comma""]",0,4,0,4,0,1,[0.4249999999999545],,
,,,,,,,,,,,,5f120c9ff7955b128346ea12,21,Mężczyzna,2022-06-11_09h41.30.315,task,2021.1.4,Win32,59.99520038,6299f149e92ead563fba08ef,62a4471e3649a9bd57c82389,,,,,,,,,,,,,,,,,,,,,,,,,,,,,,,,,,,,,,,,,,,,,,,,,,,,,,,,,,,,,,,,,,,,,,,,,,,,,,,,,,,,,,,,,,,,"[""comma""]",0,5,0,5,0,1,[0.36719999998808817],,
,,,,,,,,,,,,5f120c9ff7955b128346ea12,21,Mężczyzna,2022-06-11_09h41.30.315,task,2021.1.4,Win32,59.99520038,6299f149e92ead563fba08ef,62a4471e3649a9bd57c82389,,,,,,,,,,,,,,,,,,,,,,,,,,,,,,,,,,,,,,,,,,,,,,,,,,,,,,,,,,,,,,,,,,,,,,,,,,,,,,,,,,,,,,,,,,,,"[""comma""]",0,6,0,6,0,1,[0.41369999998801177],,
,,,,,,,,,,,,5f120c9ff7955b128346ea12,21,Mężczyzna,2022-06-11_09h41.30.315,task,2021.1.4,Win32,59.99520038,6299f149e92ead563fba08ef,62a4471e3649a9bd57c82389,,,,,,,,,,,,,,,,,,,,,,,,,,,,,,,,,,,,,,,,,,,,,,,,,,,,,,,,,,,,,,,,,,,,,,,,,,,,,,,,,,,,,,,,,,,,"[""comma""]",0,7,0,7,0,1,[0.2508999999761272],,
,,,,,,,,,,,,5f120c9ff7955b128346ea12,21,Mężczyzna,2022-06-11_09h41.30.315,task,2021.1.4,Win32,59.99520038,6299f149e92ead563fba08ef,62a4471e3649a9bd57c82389,,,,,,,,,,,,,,,,,,,,,,,,,,,,,,,,,,,,,,,,,,,,,,,,,,,,,,,,,,,,,,,,,,,,,,,,,,,,,,,,,,,,,,,,,,,,"[""period""]",0,8,0,8,0,1,[0.23299999999994725],,
,,,,,,,,,,,,5f120c9ff7955b128346ea12,21,Mężczyzna,2022-06-11_09h41.30.315,task,2021.1.4,Win32,59.99520038,6299f149e92ead563fba08ef,62a4471e3649a9bd57c82389,,,,,,,,,,,,,,,,,,,,,,,,,,,,,,,,,,,,,,,,,,,,,,,,,,,,,,,,,,,,,,,,,,,,,,,,,,,,,,,,,,,,,,,,,,,,"[""period""]",0,9,0,9,0,1,[0.3510000000001128],,
,,,,,,,,,,,,5f120c9ff7955b128346ea12,21,Mężczyzna,2022-06-11_09h41.30.315,task,2021.1.4,Win32,59.99520038,6299f149e92ead563fba08ef,62a4471e3649a9bd57c82389,,,,,,,,,,,,,,,,,,,,,,,,,,,,,,,,,,,,,,,,,,,,,,,,,,,,,,,,,,,,,,,,,,,,,,,,,,,,,,,,,,,,,,,,,,,,"[""period""]",0,10,0,10,0,1,[0.22230000001172812],,
,,,,,,,,,,,,5f120c9ff7955b128346ea12,21,Mężczyzna,2022-06-11_09h41.30.315,task,2021.1.4,Win32,59.99520038,6299f149e92ead563fba08ef,62a4471e3649a9bd57c82389,,,,,,,,,,,,,,,,,,,,,,,,,,,,,,,,,,,,,,,,,,,,,,,,,,,,,,,,,,,,,,,,,,,,,,,,,,,,,,,,,,,,,,,,,,,,"[""comma""]",0,11,0,11,0,1,[0.22800000000006548],,
,,,,,,,,,,,,5f120c9ff7955b128346ea12,21,Mężczyzna,2022-06-11_09h41.30.315,task,2021.1.4,Win32,59.99520038,6299f149e92ead563fba08ef,62a4471e3649a9bd57c82389,,,,,,,,,,,,,,,,,,,,,,,,,,,,,,,,,,,,,,,,,,,,,,,,,,,,,,,,,,,,,,,,,,,,,,,,,,,,,,,,,,,,,,,,,,,,"[""period""]",0,12,0,12,0,1,[0.04980000001182816],,
,,,,,,,,,,,,5f120c9ff7955b128346ea12,21,Mężczyzna,2022-06-11_09h41.30.315,task,2021.1.4,Win32,59.99520038,6299f149e92ead563fba08ef,62a4471e3649a9bd57c82389,,,,,,,,,,,,,,,,,,,,,,,,,,,,,,,,,,,,,,,,,,,,,,,,,,,,,,,,,,,,,,,,,,,,,,,,,,,,,,,,,,,,,,,,,,,,"[""comma""]",0,13,0,13,0,1,[0.2509000000356991],,
,,,,,,,,,,,,5f120c9ff7955b128346ea12,21,Mężczyzna,2022-06-11_09h41.30.315,task,2021.1.4,Win32,59.99520038,6299f149e92ead563fba08ef,62a4471e3649a9bd57c82389,,,,,,,,,,,,,,,,,,,,,,,,,,,,,,,,,,,,,,,,,,,,,,,,,,,,,,,,,,,,,,,,,,,,,,,,,,,,,,,,,,,,,,,,,,,,"[""comma""]",0,14,0,14,0,1,[0.31009999996422266],,
,,,,,,,,,,,,5f120c9ff7955b128346ea12,21,Mężczyzna,2022-06-11_09h41.30.315,task,2021.1.4,Win32,59.99520038,6299f149e92ead563fba08ef,62a4471e3649a9bd57c82389,,,,,,,,,,,,,,,,,,,,,,,,,,,,,,,,,,,,,,,,,,,,,,,,,,,,,,,,,,,,,,,,,,,,,,,,,,,,,,,,,,,,,,,,,,,,"[""comma""]",0,15,0,15,0,1,[0.28380000001197914],,
,,,,,,,,,,,,5f120c9ff7955b128346ea12,21,Mężczyzna,2022-06-11_09h41.30.315,task,2021.1.4,Win32,59.99520038,6299f149e92ead563fba08ef,62a4471e3649a9bd57c82389,,,,,,,,,,,,,,,,,,,,,,,,,,,,,,,,,,,,,,,,,,,,,,,,,,,,,,,,,,,,,,,,,,,,,,,,,,,,,,,,,,,,,,,,,,,,"[""comma""]",0,16,0,16,0,1,[0.2580000000000382],,
,,,,,,,,,,,,5f120c9ff7955b128346ea12,21,Mężczyzna,2022-06-11_09h41.30.315,task,2021.1.4,Win32,59.99520038,6299f149e92ead563fba08ef,62a4471e3649a9bd57c82389,,,,,,,,,,,,,,,,,,,,,,,,,,,,,,,,,,,,,,,,,,,,,,,,,,,,,,,,,,,,,,,,,,,,,,,,,,,,,,,,,,,,,,,,,,,,"[""comma""]",0,17,0,17,0,1,[0.26349999999979445],,
,,,,,,,,,,,,5f120c9ff7955b128346ea12,21,Mężczyzna,2022-06-11_09h41.30.315,task,2021.1.4,Win32,59.99520038,6299f149e92ead563fba08ef,62a4471e3649a9bd57c82389,,,,,,,,,,,,,,,,,,,,,,,,,,,,,,,,,,,,,,,,,,,,,,,,,,,,,,,,,,,,,,,,,,,,,,,,,,,,,,,,,,,,,,,,,,,,"[""period""]",0,18,0,18,0,1,[0.16680000001178996],,
,,,,,,,,,,,,5f120c9ff7955b128346ea12,21,Mężczyzna,2022-06-11_09h41.30.315,task,2021.1.4,Win32,59.99520038,6299f149e92ead563fba08ef,62a4471e3649a9bd57c82389,,,,,,,,,,,,,,,,,,,,,,,,,,,,,,,,,,,,,,,,,,,,,,,,,,,,,,,,,,,,,,,,,,,,,,,,,,,,,,,,,,,,,,,,,,,,"[""comma""]",0,19,0,19,0,1,[0.22880000001191547],,
,,,,,,,,,,,,5f120c9ff7955b128346ea12,21,Mężczyzna,2022-06-11_09h41.30.315,task,2021.1.4,Win32,59.99520038,6299f149e92ead563fba08ef,62a4471e3649a9bd57c82389,,,,,,,,,,,,,,,,,,,,,,,,,,,,,,,,,,,,,,,,,,,,,,,,,,,,,,,,,,,,,,,,,,,,,,,,,,,,,,,,,,,,,,,,,,,,"[""period""]",0,20,0,20,0,1,[0.25039999997602536],,
,,,,,,,,,,,,5f120c9ff7955b128346ea12,21,Mężczyzna,2022-06-11_09h41.30.315,task,2021.1.4,Win32,59.99520038,6299f149e92ead563fba08ef,62a4471e3649a9bd57c82389,,,,,,,,,,,,,,,,,,,,,,,,,,,,,,,,,,,,,,,,,,,,,,,,,,,,,,,,,,,,,,,,,,,,,,,,,,,,,,,,,,,,,,,,,,,,"[""period""]",0,21,0,21,0,1,[0.45680000001198096],,
,,,,,,,,,,,,5f120c9ff7955b128346ea12,21,Mężczyzna,2022-06-11_09h41.30.315,task,2021.1.4,Win32,59.99520038,6299f149e92ead563fba08ef,62a4471e3649a9bd57c82389,,,,,,,,,,,,,,,,,,,,,,,,,,,,,,,,,,,,,,,,,,,,,,,,,,,,,,,,,,,,,,,,,,,,,,,,,,,,,,,,,,,,,,,,,,,,"[""comma""]",0,22,0,22,0,1,[0.37580000001185],,
,,,,,,,,,,,,5f120c9ff7955b128346ea12,21,Mężczyzna,2022-06-11_09h41.30.315,task,2021.1.4,Win32,59.99520038,6299f149e92ead563fba08ef,62a4471e3649a9bd57c82389,,,,,,,,,,,,,,,,,,,,,,,,,,,,,,,,,,,,,,,,,,,,,,,,,,,,,,,,,,,,,,,,,,,,,,,,,,,,,,,,,,,,,,,,,,,,"[""period""]",0,23,0,23,0,1,[0.39619999998808453],,
,,,,,,,,,,,,5f120c9ff7955b128346ea12,21,Mężczyzna,2022-06-11_09h41.30.315,task,2021.1.4,Win32,59.99520038,6299f149e92ead563fba08ef,62a4471e3649a9bd57c82389,,,,,,,,,,,,,,,,,,,,,,,,,,,,,,,,,,,,,,,,,,,,,,,,,,,,,,,,,,,,,,,,,,,,,,,,,,,,,,,,,,,,,,,,,,,,"[""comma""]",0,24,0,24,0,1,[0.27469999998811545],,
,,,,,,,,,,,,5f120c9ff7955b128346ea12,21,Mężczyzna,2022-06-11_09h41.30.315,task,2021.1.4,Win32,59.99520038,6299f149e92ead563fba08ef,62a4471e3649a9bd57c82389,,,,,,,,,,,,,,,,,,,,,,,,,,,,,,,,,,,,,,,,,,,,,,,,,,,,,,,,,,,,,,,,,,,,,,,,,,,,,,,,,,,,,,,,,,,,"[""comma""]",0,25,0,25,0,1,[0.2805000000000746],,
,,,,,,,,,,,,5f120c9ff7955b128346ea12,21,Mężczyzna,2022-06-11_09h41.30.315,task,2021.1.4,Win32,59.99520038,6299f149e92ead563fba08ef,62a4471e3649a9bd57c82389,,,,,,,,,,,,,,,,,,,,,,,,,,,,,,,,,,,,,,,,,,,,,,,,,,,,,,,,,,,,,,,,,,,,,,,,,,,,,,,,,,,,,,,,,,,,"[""comma""]",0,26,0,26,0,1,[0.27039999997623454],,
,,,,,,,,,,,,5f120c9ff7955b128346ea12,21,Mężczyzna,2022-06-11_09h41.30.315,task,2021.1.4,Win32,59.99520038,6299f149e92ead563fba08ef,62a4471e3649a9bd57c82389,,,,,,,,,,,,,,,,,,,,,,,,,,,,,,,,,,,,,,,,,,,,,,,,,,,,,,,,,,,,,,,,,,,,,,,,,,,,,,,,,,,,,,,,,,,,"[""period""]",0,27,0,27,0,1,[0.4060999999642263],,
,,,,,,,,,,,,5f120c9ff7955b128346ea12,21,Mężczyzna,2022-06-11_09h41.30.315,task,2021.1.4,Win32,59.99520038,6299f149e92ead563fba08ef,62a4471e3649a9bd57c82389,,,,,,,,,,,,,,,,,,,,,,,,,,,,,,,,,,,,,,,,,,,,,,,,,,,,,,,,,,,,,,,,,,,,,,,,,,,,,,,,,,,,,,,,,,,,"[""period""]",0,28,0,28,0,1,[0.3495999999643118],,
,,,,,,,,,,,,5f120c9ff7955b128346ea12,21,Mężczyzna,2022-06-11_09h41.30.315,task,2021.1.4,Win32,59.99520038,6299f149e92ead563fba08ef,62a4471e3649a9bd57c82389,,,,,,,,,,,,,,,,,,,,,,,,,,,,,,,,,,,,,,,,,,,,,,,,,,,,,,,,,,,,,,,,,,,,,,,,,,,,,,,,,,,,,,,,,,,,"[""comma""]",0,29,0,29,0,1,[0.25689999997598534],,
,,,,,,,,,,,,5f120c9ff7955b128346ea12,21,Mężczyzna,2022-06-11_09h41.30.315,task,2021.1.4,Win32,59.99520038,6299f149e92ead563fba08ef,62a4471e3649a9bd57c82389,,,,,,,,,,,,,,,,,,,,,,,,,,,,,,,,,,,,,,,,,,,,,,,,,,,,,,,,,,,,,,,,,,,,,,,,,,,,,,,,,,,,,,,,,,,,"[""comma""]",0,30,0,30,0,1,[0.2633999999761727],,
,,,,,,,,,,,,5f120c9ff7955b128346ea12,21,Mężczyzna,2022-06-11_09h41.30.315,task,2021.1.4,Win32,59.99520038,6299f149e92ead563fba08ef,62a4471e3649a9bd57c82389,,,,,,,,,,,,,,,,,,,,,,,,,,,,,,,,,,,,,,,,,,,,,,,,,,,,,,,,,,,,,,,,,,,,,,,,,,,,,,,,,,,,,,,,,,,,"[""comma""]",0,31,0,31,0,1,[0.26840000003585374],,
,,,,,,,,,,,,5f120c9ff7955b128346ea12,21,Mężczyzna,2022-06-11_09h41.30.315,task,2021.1.4,Win32,59.99520038,6299f149e92ead563fba08ef,62a4471e3649a9bd57c82389,,,,,,,,,,,,,,,,,,,,,,,,,,,,,,,,,,,,,,,,,,,,,,,,,,,,,,,,,,,,,,,,,,,,,,,,,,,,,,,,,,,,,,,,,,,,"[""period""]",0,32,0,32,0,1,[0.21900000000005093],,
,,,,,,,,,,,,5f120c9ff7955b128346ea12,21,Mężczyzna,2022-06-11_09h41.30.315,task,2021.1.4,Win32,59.99520038,6299f149e92ead563fba08ef,62a4471e3649a9bd57c82389,,,,,,,,,,,,,,,,,,,,,,,,,,,,,,,,,,,,,,,,,,,,,,,,,,,,,,,,,,,,,,,,,,,,,,,,,,,,,,,,,,,,,,,,,,,,"[""period""]",0,33,0,33,0,1,[0.22570000004770918],,
,,,,,,,,,,,,5f120c9ff7955b128346ea12,21,Mężczyzna,2022-06-11_09h41.30.315,task,2021.1.4,Win32,59.99520038,6299f149e92ead563fba08ef,62a4471e3649a9bd57c82389,,,,,,,,,,,,,,,,,,,,,,,,,,,,,,,,,,,,,,,,,,,,,,,,,,,,,,,,,,,,,,,,,,,,,,,,,,,,,,,,,,,,,,,,,,,,"[""comma""]",0,34,0,34,0,1,[0.13480000001186454],,
,,,,,,,,,,,,5f120c9ff7955b128346ea12,21,Mężczyzna,2022-06-11_09h41.30.315,task,2021.1.4,Win32,59.99520038,6299f149e92ead563fba08ef,62a4471e3649a9bd57c82389,,,,,,,,,,,,,,,,,,,,,,,,,,,,,,,,,,,,,,,,,,,,,,,,,,,,,,,,,,,,,,,,,,,,,,,,,,,,,,,,,,,,,,,,,,,,"[""period""]",0,35,0,35,0,1,[0.25380000001177905],,
,,,,,,,,,,,,5f120c9ff7955b128346ea12,21,Mężczyzna,2022-06-11_09h41.30.315,task,2021.1.4,Win32,59.99520038,6299f149e92ead563fba08ef,62a4471e3649a9bd57c82389,,,,,,,,,,,,,,,,,,,,,,,,,,,,,,,,,,,,,,,,,,,,,,,,,,,,,,,,,,,,,,,,,,,,,,,,,,,,,,,,,,,,,,,,,,,,"[""comma""]",0,36,0,36,0,1,[0.3004000000355518],,
,,,,,,,,,,,,5f120c9ff7955b128346ea12,21,Mężczyzna,2022-06-11_09h41.30.315,task,2021.1.4,Win32,59.99520038,6299f149e92ead563fba08ef,62a4471e3649a9bd57c82389,,,,,,,,,,,,,,,,,,,,,,,,,,,,,,,,,,,,,,,,,,,,,,,,,,,,,,,,,,,,,,,,,,,,,,,,,,,,,,,,,,,,,,,,,,,,"[""period""]",0,37,0,37,0,1,[0.09039999997617088],,
,,,,,,,,,,,,5f120c9ff7955b128346ea12,21,Mężczyzna,2022-06-11_09h41.30.315,task,2021.1.4,Win32,59.99520038,6299f149e92ead563fba08ef,62a4471e3649a9bd57c82389,,,,,,,,,,,,,,,,,,,,,,,,,,,,,,,,,,,,,,,,,,,,,,,,,,,,,,,,,,,,,,,,,,,,,,,,,,,,,,,,,,,,,,,,,,,,"[""period""]",0,38,0,38,0,1,[0.08739999997624182],,
,,,,,,,,,,,,5f120c9ff7955b128346ea12,21,Mężczyzna,2022-06-11_09h41.30.315,task,2021.1.4,Win32,59.99520038,6299f149e92ead563fba08ef,62a4471e3649a9bd57c82389,,,,,,,,,,,,,,,,,,,,,,,,,,,,,,,,,,,,,,,,,,,,,,,,,,,,,,,,,,,,,,,,,,,,,,,,,,,,,,,,,,,,,,,,,,,,"[""period""]",0,39,0,39,0,1,[0.2696999999882337],,
,,,,,,,,,,,,5f120c9ff7955b128346ea12,21,Mężczyzna,2022-06-11_09h41.30.315,task,2021.1.4,Win32,59.99520038,6299f149e92ead563fba08ef,62a4471e3649a9bd57c82389,,,,,,,,,,,,,,,,,,,,,,,,,,,,,,,,,,,,,,,,,,,,,,,,,,,,,,,,,,,,,,,,,,,,,,,,,,,,,,,,,,,,,,,,,,,,"[""comma""]",0,40,0,40,0,1,[0.25069999998800085],,
