key_resp_15.keys,key_resp_15.rt,key_resp_16.keys,key_resp_16.rt,key_resp_4.keys,key_resp_4.rt,next_letter.thisRepN,next_letter.thisTrialN,next_letter.thisN,next_letter.thisIndex,next_letter.ran,letter,participant,Wiek*,Płeć,date,expName,psychopyVersion,OS,frameRate,study_id,session,simple_recall,key_resp_5.keys,key_resp_5.rt,simple_recall_corr,simple_recall_corrkeys,next_level.thisRepN,next_level.thisTrialN,next_level.thisN,next_level.thisIndex,next_level.ran,key_resp_2.keys,key_resp_2.rt,digit_answer,key_resp.keys,key_resp.corr,key_resp.rt,RT_list,next_equation.thisRepN,next_equation.thisTrialN,next_equation.thisN,next_equation.thisIndex,next_equation.ran,Task,Trial,Problem,Operation_answer,processing_score,sumRT,meanRT,sumdiff,sd,RT,key_resp_3.keys,key_resp_3.rt,repeat_practice.thisRepN,repeat_practice.thisTrialN,repeat_practice.thisN,repeat_practice.thisIndex,repeat_practice.ran,key_resp_6.keys,key_resp_6.rt,key_resp_11.keys,key_resp_11.corr,key_resp_11.rt,operation_correct,repeat_if_wrong_prac.thisRepN,repeat_if_wrong_prac.thisTrialN,repeat_if_wrong_prac.thisN,repeat_if_wrong_prac.thisIndex,repeat_if_wrong_prac.ran,span_size_prac.thisRepN,span_size_prac.thisTrialN,span_size_prac.thisN,span_size_prac.thisIndex,span_size_prac.ran,complex_recall_practice,key_resp_9.keys,key_resp_9.corr,key_resp_9.rt,complex_prac_corr,span_recall_prac.thisRepN,span_recall_prac.thisTrialN,span_recall_prac.thisN,span_recall_prac.thisIndex,span_recall_prac.ran,key_resp_10.keys,key_resp_10.rt,key_resp_7.keys,key_resp_7.corr,key_resp_7.rt,repeat_if_wrong.thisRepN,repeat_if_wrong.thisTrialN,repeat_if_wrong.thisN,repeat_if_wrong.thisIndex,repeat_if_wrong.ran,span_size.thisRepN,span_size.thisTrialN,span_size.thisN,span_size.thisIndex,span_size.ran,complex_recall,key_resp_8.keys,key_resp_8.corr,key_resp_8.rt,complex_recall_corr,complex_recall_corrkeys,span_recall.thisRepN,span_recall.thisTrialN,span_recall.thisN,span_recall.thisIndex,span_recall.ran,key_resp_13.keys,key_resp_13.corr,key_resp_13.rt,random_loop.thisRepN,random_loop.thisTrialN,random_loop.thisN,random_loop.thisIndex,random_loop.ran,key_resp_12.keys,key_resp_12.rt
space,17.7806,space,20.4528,space,6.1339,0,0,0,0,1,X V Q F H G B L J M P D K C T S W R N Z,5f12d07e399eaf265643e907,41,Mężczyzna,2022-06-11_09h05.11.614,task,2021.1.4,Win32,60.46314771,6299f149e92ead563fba08ef,62a43e8c5269c417df62d4e1,,,,,,,,,,,,,,,,,,,,,,,,,,,,,,,,,,,,,,,,,,,,,,,,,,,,,,,,,,,,,,,,,,,,,,,,,,,,,,,,,,,,,,,,,,,,,,,,,,,,,
,,,,,,1,0,1,0,1,X V Q F H G B L J M P D K C T S W R N Z,5f12d07e399eaf265643e907,41,Mężczyzna,2022-06-11_09h05.11.614,task,2021.1.4,Win32,60.46314771,6299f149e92ead563fba08ef,62a43e8c5269c417df62d4e1,,,,,,,,,,,,,,,,,,,,,,,,,,,,,,,,,,,,,,,,,,,,,,,,,,,,,,,,,,,,,,,,,,,,,,,,,,,,,,,,,,,,,,,,,,,,,,,,,,,,,
,,,,,,,,,,,,5f12d07e399eaf265643e907,41,Mężczyzna,2022-06-11_09h05.11.614,task,2021.1.4,Win32,60.46314771,6299f149e92ead563fba08ef,62a43e8c5269c417df62d4e1,zq,"[""z"",""q""]","[3.1995999999940494,4.0473999999761645,7.257000000000005]",1,ZQ,0,0,0,0,1,,,,,,,,,,,,,,,,,,,,,,,,,,,,,,,,,,,,,,,,,,,,,,,,,,,,,,,,,,,,,,,,,,,,,,,,,,,,,,,,,,,,,,,,,,,
,,,,,,0,0,0,0,1,X V Q F H G B L J M P D K C T S W R N Z,5f12d07e399eaf265643e907,41,Mężczyzna,2022-06-11_09h05.11.614,task,2021.1.4,Win32,60.46314771,6299f149e92ead563fba08ef,62a43e8c5269c417df62d4e1,,,,,,,,,,,,,,,,,,,,,,,,,,,,,,,,,,,,,,,,,,,,,,,,,,,,,,,,,,,,,,,,,,,,,,,,,,,,,,,,,,,,,,,,,,,,,,,,,,,,,
,,,,,,1,0,1,0,1,X V Q F H G B L J M P D K C T S W R N Z,5f12d07e399eaf265643e907,41,Mężczyzna,2022-06-11_09h05.11.614,task,2021.1.4,Win32,60.46314771,6299f149e92ead563fba08ef,62a43e8c5269c417df62d4e1,,,,,,,,,,,,,,,,,,,,,,,,,,,,,,,,,,,,,,,,,,,,,,,,,,,,,,,,,,,,,,,,,,,,,,,,,,,,,,,,,,,,,,,,,,,,,,,,,,,,,
,,,,,,,,,,,,5f12d07e399eaf265643e907,41,Mężczyzna,2022-06-11_09h05.11.614,task,2021.1.4,Win32,60.46314771,6299f149e92ead563fba08ef,62a43e8c5269c417df62d4e1,xf,"[""x"",""f""]","[1.7675999999940473,2.4302999999821253,3.2171999999880825]",1,XF,1,0,1,0,1,,,,,,,,,,,,,,,,,,,,,,,,,,,,,,,,,,,,,,,,,,,,,,,,,,,,,,,,,,,,,,,,,,,,,,,,,,,,,,,,,,,,,,,,,,,
,,,,,,0,0,0,0,1,X V Q F H G B L J M P D K C T S W R N Z,5f12d07e399eaf265643e907,41,Mężczyzna,2022-06-11_09h05.11.614,task,2021.1.4,Win32,60.46314771,6299f149e92ead563fba08ef,62a43e8c5269c417df62d4e1,,,,,,,,,,,,,,,,,,,,,,,,,,,,,,,,,,,,,,,,,,,,,,,,,,,,,,,,,,,,,,,,,,,,,,,,,,,,,,,,,,,,,,,,,,,,,,,,,,,,,
,,,,,,1,0,1,0,1,X V Q F H G B L J M P D K C T S W R N Z,5f12d07e399eaf265643e907,41,Mężczyzna,2022-06-11_09h05.11.614,task,2021.1.4,Win32,60.46314771,6299f149e92ead563fba08ef,62a43e8c5269c417df62d4e1,,,,,,,,,,,,,,,,,,,,,,,,,,,,,,,,,,,,,,,,,,,,,,,,,,,,,,,,,,,,,,,,,,,,,,,,,,,,,,,,,,,,,,,,,,,,,,,,,,,,,
,,,,,,2,0,2,0,1,X V Q F H G B L J M P D K C T S W R N Z,5f12d07e399eaf265643e907,41,Mężczyzna,2022-06-11_09h05.11.614,task,2021.1.4,Win32,60.46314771,6299f149e92ead563fba08ef,62a43e8c5269c417df62d4e1,,,,,,,,,,,,,,,,,,,,,,,,,,,,,,,,,,,,,,,,,,,,,,,,,,,,,,,,,,,,,,,,,,,,,,,,,,,,,,,,,,,,,,,,,,,,,,,,,,,,,
,,,,,,,,,,,,5f12d07e399eaf265643e907,41,Mężczyzna,2022-06-11_09h05.11.614,task,2021.1.4,Win32,60.46314771,6299f149e92ead563fba08ef,62a43e8c5269c417df62d4e1,pwf,"[""p"",""w"",""f""]","[2.433499999999995,2.6246999999880813,2.933699999988079,3.75]",1,PWF,2,0,2,0,1,,,,,,,,,,,,,,,,,,,,,,,,,,,,,,,,,,,,,,,,,,,,,,,,,,,,,,,,,,,,,,,,,,,,,,,,,,,,,,,,,,,,,,,,,,,
,,,,,,0,0,0,0,1,X V Q F H G B L J M P D K C T S W R N Z,5f12d07e399eaf265643e907,41,Mężczyzna,2022-06-11_09h05.11.614,task,2021.1.4,Win32,60.46314771,6299f149e92ead563fba08ef,62a43e8c5269c417df62d4e1,,,,,,,,,,,,,,,,,,,,,,,,,,,,,,,,,,,,,,,,,,,,,,,,,,,,,,,,,,,,,,,,,,,,,,,,,,,,,,,,,,,,,,,,,,,,,,,,,,,,,
,,,,,,1,0,1,0,1,X V Q F H G B L J M P D K C T S W R N Z,5f12d07e399eaf265643e907,41,Mężczyzna,2022-06-11_09h05.11.614,task,2021.1.4,Win32,60.46314771,6299f149e92ead563fba08ef,62a43e8c5269c417df62d4e1,,,,,,,,,,,,,,,,,,,,,,,,,,,,,,,,,,,,,,,,,,,,,,,,,,,,,,,,,,,,,,,,,,,,,,,,,,,,,,,,,,,,,,,,,,,,,,,,,,,,,
,,,,,,2,0,2,0,1,X V Q F H G B L J M P D K C T S W R N Z,5f12d07e399eaf265643e907,41,Mężczyzna,2022-06-11_09h05.11.614,task,2021.1.4,Win32,60.46314771,6299f149e92ead563fba08ef,62a43e8c5269c417df62d4e1,,,,,,,,,,,,,,,,,,,,,,,,,,,,,,,,,,,,,,,,,,,,,,,,,,,,,,,,,,,,,,,,,,,,,,,,,,,,,,,,,,,,,,,,,,,,,,,,,,,,,
,,,,,,,,,,,,5f12d07e399eaf265643e907,41,Mężczyzna,2022-06-11_09h05.11.614,task,2021.1.4,Win32,60.46314771,6299f149e92ead563fba08ef,62a43e8c5269c417df62d4e1,rnc,"[""r"",""n"",""c""]","[1.3670999999940392,2.1591999999880898,2.3360999999940475,3.2503999999761675]",1,RNC,3,0,3,0,1,,,,,,,,,,,,,,,,,,,,,,,,,,,,,,,,,,,,,,,,,,,,,,,,,,,,,,,,,,,,,,,,,,,,,,,,,,,,,,,,,,,,,,,,,,,
,,,,,,0,0,0,0,1,X V Q F H G B L J M P D K C T S W R N Z,5f12d07e399eaf265643e907,41,Mężczyzna,2022-06-11_09h05.11.614,task,2021.1.4,Win32,60.46314771,6299f149e92ead563fba08ef,62a43e8c5269c417df62d4e1,,,,,,,,,,,,,,,,,,,,,,,,,,,,,,,,,,,,,,,,,,,,,,,,,,,,,,,,,,,,,,,,,,,,,,,,,,,,,,,,,,,,,,,,,,,,,,,,,,,,,
,,,,,,1,0,1,0,1,X V Q F H G B L J M P D K C T S W R N Z,5f12d07e399eaf265643e907,41,Mężczyzna,2022-06-11_09h05.11.614,task,2021.1.4,Win32,60.46314771,6299f149e92ead563fba08ef,62a43e8c5269c417df62d4e1,,,,,,,,,,,,,,,,,,,,,,,,,,,,,,,,,,,,,,,,,,,,,,,,,,,,,,,,,,,,,,,,,,,,,,,,,,,,,,,,,,,,,,,,,,,,,,,,,,,,,
,,,,,,2,0,2,0,1,X V Q F H G B L J M P D K C T S W R N Z,5f12d07e399eaf265643e907,41,Mężczyzna,2022-06-11_09h05.11.614,task,2021.1.4,Win32,60.46314771,6299f149e92ead563fba08ef,62a43e8c5269c417df62d4e1,,,,,,,,,,,,,,,,,,,,,,,,,,,,,,,,,,,,,,,,,,,,,,,,,,,,,,,,,,,,,,,,,,,,,,,,,,,,,,,,,,,,,,,,,,,,,,,,,,,,,
,,,,,,3,0,3,0,1,X V Q F H G B L J M P D K C T S W R N Z,5f12d07e399eaf265643e907,41,Mężczyzna,2022-06-11_09h05.11.614,task,2021.1.4,Win32,60.46314771,6299f149e92ead563fba08ef,62a43e8c5269c417df62d4e1,,,,,,,,,,,,,,,,,,,,,,,,,,,,,,,,,,,,,,,,,,,,,,,,,,,,,,,,,,,,,,,,,,,,,,,,,,,,,,,,,,,,,,,,,,,,,,,,,,,,,
,,,,,,,,,,,,5f12d07e399eaf265643e907,41,Mężczyzna,2022-06-11_09h05.11.614,task,2021.1.4,Win32,60.46314771,6299f149e92ead563fba08ef,62a43e8c5269c417df62d4e1,sssj,"[""s"",""s"",""s"",""j""]","[1.5015000000000072,1.8194000000059702,2.0493000000119252,3.403700000017892,4.507900000005961]",1,SSSJ,4,0,4,0,1,,,,,,,,,,,,,,,,,,,,,,,,,,,,,,,,,,,,,,,,,,,,,,,,,,,,,,,,,,,,,,,,,,,,,,,,,,,,,,,,,,,,,,,,,,,
,,,,,,0,0,0,0,1,X V Q F H G B L J M P D K C T S W R N Z,5f12d07e399eaf265643e907,41,Mężczyzna,2022-06-11_09h05.11.614,task,2021.1.4,Win32,60.46314771,6299f149e92ead563fba08ef,62a43e8c5269c417df62d4e1,,,,,,,,,,,,,,,,,,,,,,,,,,,,,,,,,,,,,,,,,,,,,,,,,,,,,,,,,,,,,,,,,,,,,,,,,,,,,,,,,,,,,,,,,,,,,,,,,,,,,
,,,,,,1,0,1,0,1,X V Q F H G B L J M P D K C T S W R N Z,5f12d07e399eaf265643e907,41,Mężczyzna,2022-06-11_09h05.11.614,task,2021.1.4,Win32,60.46314771,6299f149e92ead563fba08ef,62a43e8c5269c417df62d4e1,,,,,,,,,,,,,,,,,,,,,,,,,,,,,,,,,,,,,,,,,,,,,,,,,,,,,,,,,,,,,,,,,,,,,,,,,,,,,,,,,,,,,,,,,,,,,,,,,,,,,
,,,,,,2,0,2,0,1,X V Q F H G B L J M P D K C T S W R N Z,5f12d07e399eaf265643e907,41,Mężczyzna,2022-06-11_09h05.11.614,task,2021.1.4,Win32,60.46314771,6299f149e92ead563fba08ef,62a43e8c5269c417df62d4e1,,,,,,,,,,,,,,,,,,,,,,,,,,,,,,,,,,,,,,,,,,,,,,,,,,,,,,,,,,,,,,,,,,,,,,,,,,,,,,,,,,,,,,,,,,,,,,,,,,,,,
,,,,,,3,0,3,0,1,X V Q F H G B L J M P D K C T S W R N Z,5f12d07e399eaf265643e907,41,Mężczyzna,2022-06-11_09h05.11.614,task,2021.1.4,Win32,60.46314771,6299f149e92ead563fba08ef,62a43e8c5269c417df62d4e1,,,,,,,,,,,,,,,,,,,,,,,,,,,,,,,,,,,,,,,,,,,,,,,,,,,,,,,,,,,,,,,,,,,,,,,,,,,,,,,,,,,,,,,,,,,,,,,,,,,,,
,,,,,,,,,,,,5f12d07e399eaf265643e907,41,Mężczyzna,2022-06-11_09h05.11.614,task,2021.1.4,Win32,60.46314771,6299f149e92ead563fba08ef,62a43e8c5269c417df62d4e1,kkmf,"[""k"",""k"",""m"",""f""]","[1.7671000000238308,1.9273000000119112,2.7749999999999915,3.287100000023841,4.18340000000596]",1,KKMF,5,0,5,0,1,,,,,,,,,,,,,,,,,,,,,,,,,,,,,,,,,,,,,,,,,,,,,,,,,,,,,,,,,,,,,,,,,,,,,,,,,,,,,,,,,,,,,,,,,,,
,,,,,,0,0,0,0,1,X V Q F H G B L J M P D K C T S W R N Z,5f12d07e399eaf265643e907,41,Mężczyzna,2022-06-11_09h05.11.614,task,2021.1.4,Win32,60.46314771,6299f149e92ead563fba08ef,62a43e8c5269c417df62d4e1,,,,,,,,,,,,,,,,,,,,,,,,,,,,,,,,,,,,,,,,,,,,,,,,,,,,,,,,,,,,,,,,,,,,,,,,,,,,,,,,,,,,,,,,,,,,,,,,,,,,,
,,,,,,1,0,1,0,1,X V Q F H G B L J M P D K C T S W R N Z,5f12d07e399eaf265643e907,41,Mężczyzna,2022-06-11_09h05.11.614,task,2021.1.4,Win32,60.46314771,6299f149e92ead563fba08ef,62a43e8c5269c417df62d4e1,,,,,,,,,,,,,,,,,,,,,,,,,,,,,,,,,,,,,,,,,,,,,,,,,,,,,,,,,,,,,,,,,,,,,,,,,,,,,,,,,,,,,,,,,,,,,,,,,,,,,
,,,,,,2,0,2,0,1,X V Q F H G B L J M P D K C T S W R N Z,5f12d07e399eaf265643e907,41,Mężczyzna,2022-06-11_09h05.11.614,task,2021.1.4,Win32,60.46314771,6299f149e92ead563fba08ef,62a43e8c5269c417df62d4e1,,,,,,,,,,,,,,,,,,,,,,,,,,,,,,,,,,,,,,,,,,,,,,,,,,,,,,,,,,,,,,,,,,,,,,,,,,,,,,,,,,,,,,,,,,,,,,,,,,,,,
,,,,,,3,0,3,0,1,X V Q F H G B L J M P D K C T S W R N Z,5f12d07e399eaf265643e907,41,Mężczyzna,2022-06-11_09h05.11.614,task,2021.1.4,Win32,60.46314771,6299f149e92ead563fba08ef,62a43e8c5269c417df62d4e1,,,,,,,,,,,,,,,,,,,,,,,,,,,,,,,,,,,,,,,,,,,,,,,,,,,,,,,,,,,,,,,,,,,,,,,,,,,,,,,,,,,,,,,,,,,,,,,,,,,,,
,,,,,,4,0,4,0,1,X V Q F H G B L J M P D K C T S W R N Z,5f12d07e399eaf265643e907,41,Mężczyzna,2022-06-11_09h05.11.614,task,2021.1.4,Win32,60.46314771,6299f149e92ead563fba08ef,62a43e8c5269c417df62d4e1,,,,,,,,,,,,,,,,,,,,,,,,,,,,,,,,,,,,,,,,,,,,,,,,,,,,,,,,,,,,,,,,,,,,,,,,,,,,,,,,,,,,,,,,,,,,,,,,,,,,,
,,,,,,,,,,,,5f12d07e399eaf265643e907,41,Mężczyzna,2022-06-11_09h05.11.614,task,2021.1.4,Win32,60.46314771,6299f149e92ead563fba08ef,62a43e8c5269c417df62d4e1,hgdwm,"[""h"",""g"",""d"",""w"",""m""]","[2.666499999999999,3.306900000005953,3.5950999999940336,4.411400000005955,4.859599999994032,5.771000000000001]",1,HGDWM,6,0,6,0,1,,,,,,,,,,,,,,,,,,,,,,,,,,,,,,,,,,,,,,,,,,,,,,,,,,,,,,,,,,,,,,,,,,,,,,,,,,,,,,,,,,,,,,,,,,,
,,,,,,0,0,0,0,1,X V Q F H G B L J M P D K C T S W R N Z,5f12d07e399eaf265643e907,41,Mężczyzna,2022-06-11_09h05.11.614,task,2021.1.4,Win32,60.46314771,6299f149e92ead563fba08ef,62a43e8c5269c417df62d4e1,,,,,,,,,,,,,,,,,,,,,,,,,,,,,,,,,,,,,,,,,,,,,,,,,,,,,,,,,,,,,,,,,,,,,,,,,,,,,,,,,,,,,,,,,,,,,,,,,,,,,
,,,,,,1,0,1,0,1,X V Q F H G B L J M P D K C T S W R N Z,5f12d07e399eaf265643e907,41,Mężczyzna,2022-06-11_09h05.11.614,task,2021.1.4,Win32,60.46314771,6299f149e92ead563fba08ef,62a43e8c5269c417df62d4e1,,,,,,,,,,,,,,,,,,,,,,,,,,,,,,,,,,,,,,,,,,,,,,,,,,,,,,,,,,,,,,,,,,,,,,,,,,,,,,,,,,,,,,,,,,,,,,,,,,,,,
,,,,,,2,0,2,0,1,X V Q F H G B L J M P D K C T S W R N Z,5f12d07e399eaf265643e907,41,Mężczyzna,2022-06-11_09h05.11.614,task,2021.1.4,Win32,60.46314771,6299f149e92ead563fba08ef,62a43e8c5269c417df62d4e1,,,,,,,,,,,,,,,,,,,,,,,,,,,,,,,,,,,,,,,,,,,,,,,,,,,,,,,,,,,,,,,,,,,,,,,,,,,,,,,,,,,,,,,,,,,,,,,,,,,,,
,,,,,,3,0,3,0,1,X V Q F H G B L J M P D K C T S W R N Z,5f12d07e399eaf265643e907,41,Mężczyzna,2022-06-11_09h05.11.614,task,2021.1.4,Win32,60.46314771,6299f149e92ead563fba08ef,62a43e8c5269c417df62d4e1,,,,,,,,,,,,,,,,,,,,,,,,,,,,,,,,,,,,,,,,,,,,,,,,,,,,,,,,,,,,,,,,,,,,,,,,,,,,,,,,,,,,,,,,,,,,,,,,,,,,,
,,,,,,4,0,4,0,1,X V Q F H G B L J M P D K C T S W R N Z,5f12d07e399eaf265643e907,41,Mężczyzna,2022-06-11_09h05.11.614,task,2021.1.4,Win32,60.46314771,6299f149e92ead563fba08ef,62a43e8c5269c417df62d4e1,,,,,,,,,,,,,,,,,,,,,,,,,,,,,,,,,,,,,,,,,,,,,,,,,,,,,,,,,,,,,,,,,,,,,,,,,,,,,,,,,,,,,,,,,,,,,,,,,,,,,
,,,,,,,,,,,,5f12d07e399eaf265643e907,41,Mężczyzna,2022-06-11_09h05.11.614,task,2021.1.4,Win32,60.46314771,6299f149e92ead563fba08ef,62a43e8c5269c417df62d4e1,vnghd,"[""v"",""n"",""g"",""h"",""d""]","[2.8807000000178675,3.5002000000178555,5.150499999999994,5.8669000000059555,6.366800000011921,7.067100000023828]",0,VNGHB,7,0,7,0,1,,,,,,,,,,,,,,,,,,,,,,,,,,,,,,,,,,,,,,,,,,,,,,,,,,,,,,,,,,,,,,,,,,,,,,,,,,,,,,,,,,,,,,,,,,,
,,,,,,0,0,0,0,1,X V Q F H G B L J M P D K C T S W R N Z,5f12d07e399eaf265643e907,41,Mężczyzna,2022-06-11_09h05.11.614,task,2021.1.4,Win32,60.46314771,6299f149e92ead563fba08ef,62a43e8c5269c417df62d4e1,,,,,,,,,,,,,,,,,,,,,,,,,,,,,,,,,,,,,,,,,,,,,,,,,,,,,,,,,,,,,,,,,,,,,,,,,,,,,,,,,,,,,,,,,,,,,,,,,,,,,
,,,,,,1,0,1,0,1,X V Q F H G B L J M P D K C T S W R N Z,5f12d07e399eaf265643e907,41,Mężczyzna,2022-06-11_09h05.11.614,task,2021.1.4,Win32,60.46314771,6299f149e92ead563fba08ef,62a43e8c5269c417df62d4e1,,,,,,,,,,,,,,,,,,,,,,,,,,,,,,,,,,,,,,,,,,,,,,,,,,,,,,,,,,,,,,,,,,,,,,,,,,,,,,,,,,,,,,,,,,,,,,,,,,,,,
,,,,,,2,0,2,0,1,X V Q F H G B L J M P D K C T S W R N Z,5f12d07e399eaf265643e907,41,Mężczyzna,2022-06-11_09h05.11.614,task,2021.1.4,Win32,60.46314771,6299f149e92ead563fba08ef,62a43e8c5269c417df62d4e1,,,,,,,,,,,,,,,,,,,,,,,,,,,,,,,,,,,,,,,,,,,,,,,,,,,,,,,,,,,,,,,,,,,,,,,,,,,,,,,,,,,,,,,,,,,,,,,,,,,,,
,,,,,,3,0,3,0,1,X V Q F H G B L J M P D K C T S W R N Z,5f12d07e399eaf265643e907,41,Mężczyzna,2022-06-11_09h05.11.614,task,2021.1.4,Win32,60.46314771,6299f149e92ead563fba08ef,62a43e8c5269c417df62d4e1,,,,,,,,,,,,,,,,,,,,,,,,,,,,,,,,,,,,,,,,,,,,,,,,,,,,,,,,,,,,,,,,,,,,,,,,,,,,,,,,,,,,,,,,,,,,,,,,,,,,,
,,,,,,4,0,4,0,1,X V Q F H G B L J M P D K C T S W R N Z,5f12d07e399eaf265643e907,41,Mężczyzna,2022-06-11_09h05.11.614,task,2021.1.4,Win32,60.46314771,6299f149e92ead563fba08ef,62a43e8c5269c417df62d4e1,,,,,,,,,,,,,,,,,,,,,,,,,,,,,,,,,,,,,,,,,,,,,,,,,,,,,,,,,,,,,,,,,,,,,,,,,,,,,,,,,,,,,,,,,,,,,,,,,,,,,
,,,,,,,,,,,,5f12d07e399eaf265643e907,41,Mężczyzna,2022-06-11_09h05.11.614,task,2021.1.4,Win32,60.46314771,6299f149e92ead563fba08ef,62a43e8c5269c417df62d4e1,pvlvf,"[""p"",""v"",""l"",""v"",""f""]","[2.1769000000059577,2.8170000000000073,3.25090000000597,3.6330000000000098,5.360700000017886,6.266700000017892]",1,PVLVF,8,0,8,0,1,,,,,,,,,,,,,,,,,,,,,,,,,,,,,,,,,,,,,,,,,,,,,,,,,,,,,,,,,,,,,,,,,,,,,,,,,,,,,,,,,,,,,,,,,,,
,,,,,,0,0,0,0,1,X V Q F H G B L J M P D K C T S W R N Z,5f12d07e399eaf265643e907,41,Mężczyzna,2022-06-11_09h05.11.614,task,2021.1.4,Win32,60.46314771,6299f149e92ead563fba08ef,62a43e8c5269c417df62d4e1,,,,,,,,,,,,,,,,,,,,,,,,,,,,,,,,,,,,,,,,,,,,,,,,,,,,,,,,,,,,,,,,,,,,,,,,,,,,,,,,,,,,,,,,,,,,,,,,,,,,,
,,,,,,1,0,1,0,1,X V Q F H G B L J M P D K C T S W R N Z,5f12d07e399eaf265643e907,41,Mężczyzna,2022-06-11_09h05.11.614,task,2021.1.4,Win32,60.46314771,6299f149e92ead563fba08ef,62a43e8c5269c417df62d4e1,,,,,,,,,,,,,,,,,,,,,,,,,,,,,,,,,,,,,,,,,,,,,,,,,,,,,,,,,,,,,,,,,,,,,,,,,,,,,,,,,,,,,,,,,,,,,,,,,,,,,
,,,,,,2,0,2,0,1,X V Q F H G B L J M P D K C T S W R N Z,5f12d07e399eaf265643e907,41,Mężczyzna,2022-06-11_09h05.11.614,task,2021.1.4,Win32,60.46314771,6299f149e92ead563fba08ef,62a43e8c5269c417df62d4e1,,,,,,,,,,,,,,,,,,,,,,,,,,,,,,,,,,,,,,,,,,,,,,,,,,,,,,,,,,,,,,,,,,,,,,,,,,,,,,,,,,,,,,,,,,,,,,,,,,,,,
,,,,,,3,0,3,0,1,X V Q F H G B L J M P D K C T S W R N Z,5f12d07e399eaf265643e907,41,Mężczyzna,2022-06-11_09h05.11.614,task,2021.1.4,Win32,60.46314771,6299f149e92ead563fba08ef,62a43e8c5269c417df62d4e1,,,,,,,,,,,,,,,,,,,,,,,,,,,,,,,,,,,,,,,,,,,,,,,,,,,,,,,,,,,,,,,,,,,,,,,,,,,,,,,,,,,,,,,,,,,,,,,,,,,,,
,,,,,,4,0,4,0,1,X V Q F H G B L J M P D K C T S W R N Z,5f12d07e399eaf265643e907,41,Mężczyzna,2022-06-11_09h05.11.614,task,2021.1.4,Win32,60.46314771,6299f149e92ead563fba08ef,62a43e8c5269c417df62d4e1,,,,,,,,,,,,,,,,,,,,,,,,,,,,,,,,,,,,,,,,,,,,,,,,,,,,,,,,,,,,,,,,,,,,,,,,,,,,,,,,,,,,,,,,,,,,,,,,,,,,,
,,,,,,5,0,5,0,1,X V Q F H G B L J M P D K C T S W R N Z,5f12d07e399eaf265643e907,41,Mężczyzna,2022-06-11_09h05.11.614,task,2021.1.4,Win32,60.46314771,6299f149e92ead563fba08ef,62a43e8c5269c417df62d4e1,,,,,,,,,,,,,,,,,,,,,,,,,,,,,,,,,,,,,,,,,,,,,,,,,,,,,,,,,,,,,,,,,,,,,,,,,,,,,,,,,,,,,,,,,,,,,,,,,,,,,
,,,,,,,,,,,,5f12d07e399eaf265643e907,41,Mężczyzna,2022-06-11_09h05.11.614,task,2021.1.4,Win32,60.46314771,6299f149e92ead563fba08ef,62a43e8c5269c417df62d4e1,pbhnt,"[""p"",""b"",""h"",""n"",""t""]","[1.646000000000015,2.078199999988101,5.167800000011937,5.566699999988089,7.4703000000119175,9.79030000001194]",0,TBPHNT,9,0,9,0,1,,,,,,,,,,,,,,,,,,,,,,,,,,,,,,,,,,,,,,,,,,,,,,,,,,,,,,,,,,,,,,,,,,,,,,,,,,,,,,,,,,,,,,,,,,,
,,,,,,0,0,0,0,1,X V Q F H G B L J M P D K C T S W R N Z,5f12d07e399eaf265643e907,41,Mężczyzna,2022-06-11_09h05.11.614,task,2021.1.4,Win32,60.46314771,6299f149e92ead563fba08ef,62a43e8c5269c417df62d4e1,,,,,,,,,,,,,,,,,,,,,,,,,,,,,,,,,,,,,,,,,,,,,,,,,,,,,,,,,,,,,,,,,,,,,,,,,,,,,,,,,,,,,,,,,,,,,,,,,,,,,
,,,,,,1,0,1,0,1,X V Q F H G B L J M P D K C T S W R N Z,5f12d07e399eaf265643e907,41,Mężczyzna,2022-06-11_09h05.11.614,task,2021.1.4,Win32,60.46314771,6299f149e92ead563fba08ef,62a43e8c5269c417df62d4e1,,,,,,,,,,,,,,,,,,,,,,,,,,,,,,,,,,,,,,,,,,,,,,,,,,,,,,,,,,,,,,,,,,,,,,,,,,,,,,,,,,,,,,,,,,,,,,,,,,,,,
,,,,,,2,0,2,0,1,X V Q F H G B L J M P D K C T S W R N Z,5f12d07e399eaf265643e907,41,Mężczyzna,2022-06-11_09h05.11.614,task,2021.1.4,Win32,60.46314771,6299f149e92ead563fba08ef,62a43e8c5269c417df62d4e1,,,,,,,,,,,,,,,,,,,,,,,,,,,,,,,,,,,,,,,,,,,,,,,,,,,,,,,,,,,,,,,,,,,,,,,,,,,,,,,,,,,,,,,,,,,,,,,,,,,,,
,,,,,,3,0,3,0,1,X V Q F H G B L J M P D K C T S W R N Z,5f12d07e399eaf265643e907,41,Mężczyzna,2022-06-11_09h05.11.614,task,2021.1.4,Win32,60.46314771,6299f149e92ead563fba08ef,62a43e8c5269c417df62d4e1,,,,,,,,,,,,,,,,,,,,,,,,,,,,,,,,,,,,,,,,,,,,,,,,,,,,,,,,,,,,,,,,,,,,,,,,,,,,,,,,,,,,,,,,,,,,,,,,,,,,,
,,,,,,4,0,4,0,1,X V Q F H G B L J M P D K C T S W R N Z,5f12d07e399eaf265643e907,41,Mężczyzna,2022-06-11_09h05.11.614,task,2021.1.4,Win32,60.46314771,6299f149e92ead563fba08ef,62a43e8c5269c417df62d4e1,,,,,,,,,,,,,,,,,,,,,,,,,,,,,,,,,,,,,,,,,,,,,,,,,,,,,,,,,,,,,,,,,,,,,,,,,,,,,,,,,,,,,,,,,,,,,,,,,,,,,
,,,,,,5,0,5,0,1,X V Q F H G B L J M P D K C T S W R N Z,5f12d07e399eaf265643e907,41,Mężczyzna,2022-06-11_09h05.11.614,task,2021.1.4,Win32,60.46314771,6299f149e92ead563fba08ef,62a43e8c5269c417df62d4e1,,,,,,,,,,,,,,,,,,,,,,,,,,,,,,,,,,,,,,,,,,,,,,,,,,,,,,,,,,,,,,,,,,,,,,,,,,,,,,,,,,,,,,,,,,,,,,,,,,,,,
,,,,,,,,,,,,5f12d07e399eaf265643e907,41,Mężczyzna,2022-06-11_09h05.11.614,task,2021.1.4,Win32,60.46314771,6299f149e92ead563fba08ef,62a43e8c5269c417df62d4e1,kcgckx,"[""k"",""c"",""g"",""c"",""k"",""x""]","[3.566599999994054,4.051500000000004,4.783899999976171,7.050299999982116,7.532699999988097,7.950000000000017,8.299599999994058]",0,KCXPCS,10,0,10,0,1,,,,,,,,,,,,,,,,,,,,,,,,,,,,,,,,,,,,,,,,,,,,,,,,,,,,,,,,,,,,,,,,,,,,,,,,,,,,,,,,,,,,,,,,,,,
,,,,,,0,0,0,0,1,X V Q F H G B L J M P D K C T S W R N Z,5f12d07e399eaf265643e907,41,Mężczyzna,2022-06-11_09h05.11.614,task,2021.1.4,Win32,60.46314771,6299f149e92ead563fba08ef,62a43e8c5269c417df62d4e1,,,,,,,,,,,,,,,,,,,,,,,,,,,,,,,,,,,,,,,,,,,,,,,,,,,,,,,,,,,,,,,,,,,,,,,,,,,,,,,,,,,,,,,,,,,,,,,,,,,,,
,,,,,,1,0,1,0,1,X V Q F H G B L J M P D K C T S W R N Z,5f12d07e399eaf265643e907,41,Mężczyzna,2022-06-11_09h05.11.614,task,2021.1.4,Win32,60.46314771,6299f149e92ead563fba08ef,62a43e8c5269c417df62d4e1,,,,,,,,,,,,,,,,,,,,,,,,,,,,,,,,,,,,,,,,,,,,,,,,,,,,,,,,,,,,,,,,,,,,,,,,,,,,,,,,,,,,,,,,,,,,,,,,,,,,,
,,,,,,2,0,2,0,1,X V Q F H G B L J M P D K C T S W R N Z,5f12d07e399eaf265643e907,41,Mężczyzna,2022-06-11_09h05.11.614,task,2021.1.4,Win32,60.46314771,6299f149e92ead563fba08ef,62a43e8c5269c417df62d4e1,,,,,,,,,,,,,,,,,,,,,,,,,,,,,,,,,,,,,,,,,,,,,,,,,,,,,,,,,,,,,,,,,,,,,,,,,,,,,,,,,,,,,,,,,,,,,,,,,,,,,
,,,,,,3,0,3,0,1,X V Q F H G B L J M P D K C T S W R N Z,5f12d07e399eaf265643e907,41,Mężczyzna,2022-06-11_09h05.11.614,task,2021.1.4,Win32,60.46314771,6299f149e92ead563fba08ef,62a43e8c5269c417df62d4e1,,,,,,,,,,,,,,,,,,,,,,,,,,,,,,,,,,,,,,,,,,,,,,,,,,,,,,,,,,,,,,,,,,,,,,,,,,,,,,,,,,,,,,,,,,,,,,,,,,,,,
,,,,,,4,0,4,0,1,X V Q F H G B L J M P D K C T S W R N Z,5f12d07e399eaf265643e907,41,Mężczyzna,2022-06-11_09h05.11.614,task,2021.1.4,Win32,60.46314771,6299f149e92ead563fba08ef,62a43e8c5269c417df62d4e1,,,,,,,,,,,,,,,,,,,,,,,,,,,,,,,,,,,,,,,,,,,,,,,,,,,,,,,,,,,,,,,,,,,,,,,,,,,,,,,,,,,,,,,,,,,,,,,,,,,,,
,,,,,,5,0,5,0,1,X V Q F H G B L J M P D K C T S W R N Z,5f12d07e399eaf265643e907,41,Mężczyzna,2022-06-11_09h05.11.614,task,2021.1.4,Win32,60.46314771,6299f149e92ead563fba08ef,62a43e8c5269c417df62d4e1,,,,,,,,,,,,,,,,,,,,,,,,,,,,,,,,,,,,,,,,,,,,,,,,,,,,,,,,,,,,,,,,,,,,,,,,,,,,,,,,,,,,,,,,,,,,,,,,,,,,,
,,,,,,,,,,,,5f12d07e399eaf265643e907,41,Mężczyzna,2022-06-11_09h05.11.614,task,2021.1.4,Win32,60.46314771,6299f149e92ead563fba08ef,62a43e8c5269c417df62d4e1,rhlvgt,"[""r"",""h"",""l"",""v"",""g"",""t""]","[3.933799999982142,4.466699999988094,6.281599999994057,7.050299999982116,7.650599999994057,8.284699999988078,8.700000000000017]",0,RHLTFV,11,0,11,0,1,,,,,,,,,,,,,,,,,,,,,,,,,,,,,,,,,,,,,,,,,,,,,,,,,,,,,,,,,,,,,,,,,,,,,,,,,,,,,,,,,,,,,,,,,,,
,,,,,,,,,,,,5f12d07e399eaf265643e907,41,Mężczyzna,2022-06-11_09h05.11.614,task,2021.1.4,Win32,60.46314771,6299f149e92ead563fba08ef,62a43e8c5269c417df62d4e1,,,,,,,,,,,space,10.2174,9,"[""9""]",1,[12.659800000011927],[12.659800000011927],0,0,0,9,1,Practice,10,(20/2) - 1,9,,,,,,,,,,,,,,,,,,,,,,,,,,,,,,,,,,,,,,,,,,,,,,,,,,,,,,,,,,,,,,,,,,,,,,,,,,,
,,,,,,,,,,,,5f12d07e399eaf265643e907,41,Mężczyzna,2022-06-11_09h05.11.614,task,2021.1.4,Win32,60.46314771,6299f149e92ead563fba08ef,62a43e8c5269c417df62d4e1,,,,,,,,,,,,,6,"[""6""]",1,[2.749400000005977],"[12.659800000011927,2.749400000005977]",0,1,1,6,1,Practice,7,(25/5) + 1,6,,,,,,,,,,,,,,,,,,,,,,,,,,,,,,,,,,,,,,,,,,,,,,,,,,,,,,,,,,,,,,,,,,,,,,,,,,,
,,,,,,,,,,,,5f12d07e399eaf265643e907,41,Mężczyzna,2022-06-11_09h05.11.614,task,2021.1.4,Win32,60.46314771,6299f149e92ead563fba08ef,62a43e8c5269c417df62d4e1,,,,,,,,,,,,,8,"[""8""]",1,[6.156699999988092],"[12.659800000011927,2.749400000005977,6.156699999988092]",0,2,2,8,1,Practice,9,(3x3) - 1,8,,,,,,,,,,,,,,,,,,,,,,,,,,,,,,,,,,,,,,,,,,,,,,,,,,,,,,,,,,,,,,,,,,,,,,,,,,,
,,,,,,,,,,,,5f12d07e399eaf265643e907,41,Mężczyzna,2022-06-11_09h05.11.614,task,2021.1.4,Win32,60.46314771,6299f149e92ead563fba08ef,62a43e8c5269c417df62d4e1,,,,,,,,,,,,,2,"[""2""]",1,[4.101199999988069],"[12.659800000011927,2.749400000005977,6.156699999988092,4.101199999988069]",0,3,3,2,1,Practice,3,(4x4) - 14,2,,,,,,,,,,,,,,,,,,,,,,,,,,,,,,,,,,,,,,,,,,,,,,,,,,,,,,,,,,,,,,,,,,,,,,,,,,,
,,,,,,,,,,,,5f12d07e399eaf265643e907,41,Mężczyzna,2022-06-11_09h05.11.614,task,2021.1.4,Win32,60.46314771,6299f149e92ead563fba08ef,62a43e8c5269c417df62d4e1,,,,,,,,,,,,,3,"[""3""]",1,[2.560200000017886],"[12.659800000011927,2.749400000005977,6.156699999988092,4.101199999988069,2.560200000017886]",0,4,4,3,1,Practice,4,(8/4) + 1,3,,,,,,,,,,,,,,,,,,,,,,,,,,,,,,,,,,,,,,,,,,,,,,,,,,,,,,,,,,,,,,,,,,,,,,,,,,,
,,,,,,,,,,,,5f12d07e399eaf265643e907,41,Mężczyzna,2022-06-11_09h05.11.614,task,2021.1.4,Win32,60.46314771,6299f149e92ead563fba08ef,62a43e8c5269c417df62d4e1,,,,,,,,,,,,,0,"[""0""]",1,[3.1457000000178823],"[12.659800000011927,2.749400000005977,6.156699999988092,4.101199999988069,2.560200000017886,3.1457000000178823]",0,5,5,0,1,Practice,1,(3x3) -  9,0,,,,,,,,,,,,,,,,,,,,,,,,,,,,,,,,,,,,,,,,,,,,,,,,,,,,,,,,,,,,,,,,,,,,,,,,,,,
,,,,,,,,,,,,5f12d07e399eaf265643e907,41,Mężczyzna,2022-06-11_09h05.11.614,task,2021.1.4,Win32,60.46314771,6299f149e92ead563fba08ef,62a43e8c5269c417df62d4e1,,,,,,,,,,,,,4,"[""4""]",1,[3.4173000000119487],"[12.659800000011927,2.749400000005977,6.156699999988092,4.101199999988069,2.560200000017886,3.1457000000178823,3.4173000000119487]",0,6,6,4,1,Practice,5,(2x6) - 8,4,,,,,,,,,,,,,,,,,,,,,,,,,,,,,,,,,,,,,,,,,,,,,,,,,,,,,,,,,,,,,,,,,,,,,,,,,,,
,,,,,,,,,,,,5f12d07e399eaf265643e907,41,Mężczyzna,2022-06-11_09h05.11.614,task,2021.1.4,Win32,60.46314771,6299f149e92ead563fba08ef,62a43e8c5269c417df62d4e1,,,,,,,,,,,,,7,"[""7""]",1,[2.70240000000598],"[12.659800000011927,2.749400000005977,6.156699999988092,4.101199999988069,2.560200000017886,3.1457000000178823,3.4173000000119487,2.70240000000598]",0,7,7,7,1,Practice,8,(5x5) - 18,7,,,,,,,,,,,,,,,,,,,,,,,,,,,,,,,,,,,,,,,,,,,,,,,,,,,,,,,,,,,,,,,,,,,,,,,,,,,
,,,,,,,,,,,,5f12d07e399eaf265643e907,41,Mężczyzna,2022-06-11_09h05.11.614,task,2021.1.4,Win32,60.46314771,6299f149e92ead563fba08ef,62a43e8c5269c417df62d4e1,,,,,,,,,,,,,1,"[""1""]",1,[2.961600000023793],"[12.659800000011927,2.749400000005977,6.156699999988092,4.101199999988069,2.560200000017886,3.1457000000178823,3.4173000000119487,2.70240000000598,2.961600000023793]",0,8,8,1,1,Practice,2,(4x4) - 15,1,,,,,,,,,,,,,,,,,,,,,,,,,,,,,,,,,,,,,,,,,,,,,,,,,,,,,,,,,,,,,,,,,,,,,,,,,,,
,,,,,,,,,,,,5f12d07e399eaf265643e907,41,Mężczyzna,2022-06-11_09h05.11.614,task,2021.1.4,Win32,60.46314771,6299f149e92ead563fba08ef,62a43e8c5269c417df62d4e1,,,,,,,,,,,,,5,"[""5""]",1,[4.92349999999999],"[12.659800000011927,2.749400000005977,6.156699999988092,4.101199999988069,2.560200000017886,3.1457000000178823,3.4173000000119487,2.70240000000598,2.961600000023793,4.92349999999999]",0,9,9,5,1,Practice,6,(4/2) + 3,5,,,,,,,,,,,,,,,,,,,,,,,,,,,,,,,,,,,,,,,,,,,,,,,,,,,,,,,,,,,,,,,,,,,,,,,,,,,
,,,,,,,,,,,,5f12d07e399eaf265643e907,41,Mężczyzna,2022-06-11_09h05.11.614,task,2021.1.4,Win32,60.46314771,6299f149e92ead563fba08ef,62a43e8c5269c417df62d4e1,,,,,,,,,,,,,,,,,,,,,,,,,,,1,45.3778,3.025186667,107.9623298,2.68281357,9.946845677,space,3.7355,0,0,0,0,1,,,,,,,,,,,,,,,,,,,,,,,,,,,,,,,,,,,,,,,,,,,,,,,,,,,,,,,,,,,,,,
,,,,,,,,,,,,5f12d07e399eaf265643e907,41,Mężczyzna,2022-06-11_09h05.11.614,task,2021.1.4,Win32,60.46314771,6299f149e92ead563fba08ef,62a43e8c5269c417df62d4e1,,,,,,,,,,,,,3,,,,,,,,,,Practice,4,(8/4) + 1,3,,,,,,,,,,,,,,space,21.1522,"[""3""]",1,[6.451999999999998],1,0,0,0,3,1,,,,,,,,,,,,,,,,,,,,,,,,,,,,,,,,,,,,,,,,,,,,,,,,,,,
,,,,,,,,,,,X V Q F H G B L J M P D K C T S W R N Z,5f12d07e399eaf265643e907,41,Mężczyzna,2022-06-11_09h05.11.614,task,2021.1.4,Win32,60.46314771,6299f149e92ead563fba08ef,62a43e8c5269c417df62d4e1,,,,,,,,,,,,,,,,,,,,,,,,,,,,,,,,,,,,,,,,,,,,,,,,,,,0,0,0,0,1,,,,,,,,,,,,,,,,,,,,,,,,,,,,,,,,,,,,,,,,,,,,,,
,,,,,,,,,,,,5f12d07e399eaf265643e907,41,Mężczyzna,2022-06-11_09h05.11.614,task,2021.1.4,Win32,60.46314771,6299f149e92ead563fba08ef,62a43e8c5269c417df62d4e1,,,,,,,,,,,,,8,,,,,,,,,,Practice,9,(3x3) - 1,8,,,,,,,,,,,,,,,,"[""8""]",1,[5.4376999999880695],1,0,0,0,8,1,,,,,,,,,,,,,,,,,,,,,,,,,,,,,,,,,,,,,,,,,,,,,,,,,,,
,,,,,,,,,,,X V Q F H G B L J M P D K C T S W R N Z,5f12d07e399eaf265643e907,41,Mężczyzna,2022-06-11_09h05.11.614,task,2021.1.4,Win32,60.46314771,6299f149e92ead563fba08ef,62a43e8c5269c417df62d4e1,,,,,,,,,,,,,,,,,,,,,,,,,,,,,,,,,,,,,,,,,,,,,,,,,,,1,0,1,0,1,,,,,,,,,,,,,,,,,,,,,,,,,,,,,,,,,,,,,,,,,,,,,,
,,,,,,,,,,,,5f12d07e399eaf265643e907,41,Mężczyzna,2022-06-11_09h05.11.614,task,2021.1.4,Win32,60.46314771,6299f149e92ead563fba08ef,62a43e8c5269c417df62d4e1,,,,,,,,,,,,,,,,,,,,,,,,,,,,,,,,,,,,,,,,,,,,,,,,,,,,,,,,zg,"[""z"",""g""]",0,"[2.8779000000059796,3.1667000000178973,4.990000000000009]",1,0,0,0,0,1,,,,,,,,,,,,,,,,,,,,,,,,,,,,,,,,,,,,
,,,,,,,,,,,,5f12d07e399eaf265643e907,41,Mężczyzna,2022-06-11_09h05.11.614,task,2021.1.4,Win32,60.46314771,6299f149e92ead563fba08ef,62a43e8c5269c417df62d4e1,,,,,,,,,,,,,9,,,,,,,,,,Practice,10,(20/2) - 1,9,,,,,,,,,,,,,,,,"[""9""]",1,[3.7095999999939977],1,0,0,0,9,1,,,,,,,,,,,,,,,,,,,,,,,,,,,,,,,,,,,,,,,,,,,,,,,,,,,
,,,,,,,,,,,X V Q F H G B L J M P D K C T S W R N Z,5f12d07e399eaf265643e907,41,Mężczyzna,2022-06-11_09h05.11.614,task,2021.1.4,Win32,60.46314771,6299f149e92ead563fba08ef,62a43e8c5269c417df62d4e1,,,,,,,,,,,,,,,,,,,,,,,,,,,,,,,,,,,,,,,,,,,,,,,,,,,0,0,0,0,1,,,,,,,,,,,,,,,,,,,,,,,,,,,,,,,,,,,,,,,,,,,,,,
,,,,,,,,,,,,5f12d07e399eaf265643e907,41,Mężczyzna,2022-06-11_09h05.11.614,task,2021.1.4,Win32,60.46314771,6299f149e92ead563fba08ef,62a43e8c5269c417df62d4e1,,,,,,,,,,,,,6,,,,,,,,,,Practice,7,(25/5) + 1,6,,,,,,,,,,,,,,,,"[""6""]",1,[2.5863000000119314],1,0,0,0,6,1,,,,,,,,,,,,,,,,,,,,,,,,,,,,,,,,,,,,,,,,,,,,,,,,,,,
,,,,,,,,,,,X V Q F H G B L J M P D K C T S W R N Z,5f12d07e399eaf265643e907,41,Mężczyzna,2022-06-11_09h05.11.614,task,2021.1.4,Win32,60.46314771,6299f149e92ead563fba08ef,62a43e8c5269c417df62d4e1,,,,,,,,,,,,,,,,,,,,,,,,,,,,,,,,,,,,,,,,,,,,,,,,,,,1,0,1,0,1,,,,,,,,,,,,,,,,,,,,,,,,,,,,,,,,,,,,,,,,,,,,,,
,,,,,,,,,,,,5f12d07e399eaf265643e907,41,Mężczyzna,2022-06-11_09h05.11.614,task,2021.1.4,Win32,60.46314771,6299f149e92ead563fba08ef,62a43e8c5269c417df62d4e1,,,,,,,,,,,,,,,,,,,,,,,,,,,,,,,,,,,,,,,,,,,,,,,,,,,,,,,,md,"[""m"",""d""]",0,"[2.295500000000004,2.5517999999821086,3.4956999999880622]",1,1,0,1,0,1,,,,,,,,,,,,,,,,,,,,,,,,,,,,,,,,,,,,
,,,,,,,,,,,,5f12d07e399eaf265643e907,41,Mężczyzna,2022-06-11_09h05.11.614,task,2021.1.4,Win32,60.46314771,6299f149e92ead563fba08ef,62a43e8c5269c417df62d4e1,,,,,,,,,,,,,8,,,,,,,,,,Practice,9,(3x3) - 1,8,,,,,,,,,,,,,,,,"[""8""]",1,[6.840799999982153],1,0,0,0,8,1,,,,,,,,,,,,,,,,,,,,,,,,,,,,,,,,,,,,,,,,,,,,,,,,,,,
,,,,,,,,,,,X V Q F H G B L J M P D K C T S W R N Z,5f12d07e399eaf265643e907,41,Mężczyzna,2022-06-11_09h05.11.614,task,2021.1.4,Win32,60.46314771,6299f149e92ead563fba08ef,62a43e8c5269c417df62d4e1,,,,,,,,,,,,,,,,,,,,,,,,,,,,,,,,,,,,,,,,,,,,,,,,,,,0,0,0,0,1,,,,,,,,,,,,,,,,,,,,,,,,,,,,,,,,,,,,,,,,,,,,,,
,,,,,,,,,,,,5f12d07e399eaf265643e907,41,Mężczyzna,2022-06-11_09h05.11.614,task,2021.1.4,Win32,60.46314771,6299f149e92ead563fba08ef,62a43e8c5269c417df62d4e1,,,,,,,,,,,,,2,,,,,,,,,,Practice,3,(4x4) - 14,2,,,,,,,,,,,,,,,,"[""2""]",1,[2.213400000006004],1,0,0,0,2,1,,,,,,,,,,,,,,,,,,,,,,,,,,,,,,,,,,,,,,,,,,,,,,,,,,,
,,,,,,,,,,,X V Q F H G B L J M P D K C T S W R N Z,5f12d07e399eaf265643e907,41,Mężczyzna,2022-06-11_09h05.11.614,task,2021.1.4,Win32,60.46314771,6299f149e92ead563fba08ef,62a43e8c5269c417df62d4e1,,,,,,,,,,,,,,,,,,,,,,,,,,,,,,,,,,,,,,,,,,,,,,,,,,,1,0,1,0,1,,,,,,,,,,,,,,,,,,,,,,,,,,,,,,,,,,,,,,,,,,,,,,
,,,,,,,,,,,,5f12d07e399eaf265643e907,41,Mężczyzna,2022-06-11_09h05.11.614,task,2021.1.4,Win32,60.46314771,6299f149e92ead563fba08ef,62a43e8c5269c417df62d4e1,,,,,,,,,,,,,,,,,,,,,,,,,,,,,,,,,,,,,,,,,,,,,,,,,,,,,,,,qc,"[""q"",""c""]",0,"[2.23989999997616,2.591500000000053,3.8077999999821373]",1,2,0,2,0,1,,,,,,,,,,,,,,,,,,,,,,,,,,,,,,,,,,,,
,,,,,,,,,,,,5f12d07e399eaf265643e907,41,Mężczyzna,2022-06-11_09h05.11.614,task,2021.1.4,Win32,60.46314771,6299f149e92ead563fba08ef,62a43e8c5269c417df62d4e1,,,,,,,,,,,,,0,,,,,,,,,,Task,17,(2x3) - 6,0,,,,,,,,,,,,,,,,,,,1,,,,,,,,,,,,,,,,,,,,,space,16.9361,"[""0""]",1,[3.9707999999820913],0,0,0,16,1,,,,,,,,,,,,,,,,,,,,,,,,,,
,,,,,,,,,,,X V Q F H G B L J M P D K C T S W R N Z,5f12d07e399eaf265643e907,41,Mężczyzna,2022-06-11_09h05.11.614,task,2021.1.4,Win32,60.46314771,6299f149e92ead563fba08ef,62a43e8c5269c417df62d4e1,,,,,,,,,,,,,,,,,,,,,,,,,,,,,,,,,,,,,,,,,,,,,,,,,,,,,,,,,,,,,,,,,,,,,,,,,,,,0,0,0,0,1,,,,,,,,,,,,,,,,,,,,,
,,,,,,,,,,,,5f12d07e399eaf265643e907,41,Mężczyzna,2022-06-11_09h05.11.614,task,2021.1.4,Win32,60.46314771,6299f149e92ead563fba08ef,62a43e8c5269c417df62d4e1,,,,,,,,,,,,,9,,,,,,,,,,Task,40,(7x2) - 5,9,,,,,,,,,,,,,,,,,,,1,,,,,,,,,,,,,,,,,,,,,,,"[""9""]",1,[3.6309000000059086],0,0,0,39,1,,,,,,,,,,,,,,,,,,,,,,,,,,
,,,,,,,,,,,X V Q F H G B L J M P D K C T S W R N Z,5f12d07e399eaf265643e907,41,Mężczyzna,2022-06-11_09h05.11.614,task,2021.1.4,Win32,60.46314771,6299f149e92ead563fba08ef,62a43e8c5269c417df62d4e1,,,,,,,,,,,,,,,,,,,,,,,,,,,,,,,,,,,,,,,,,,,,,,,,,,,,,,,,,,,,,,,,,,,,,,,,,,,,1,0,1,0,1,,,,,,,,,,,,,,,,,,,,,
,,,,,,,,,,,,5f12d07e399eaf265643e907,41,Mężczyzna,2022-06-11_09h05.11.614,task,2021.1.4,Win32,60.46314771,6299f149e92ead563fba08ef,62a43e8c5269c417df62d4e1,,,,,,,,,,,,,,,,,,,,,,,,,,,,,,,,,,,,,,,,,,,,,,,,,,,,,,,,,,,,,,,,,,,,,,,,,,,,,,,,,zb,"[""z"",""b""]",0,"[2.2094999999999914,2.4014999999999986,3.8575999999940223]",1,ZB,0,0,0,0,1,,,,,,,,,,
,,,,,,,,,,,,5f12d07e399eaf265643e907,41,Mężczyzna,2022-06-11_09h05.11.614,task,2021.1.4,Win32,60.46314771,6299f149e92ead563fba08ef,62a43e8c5269c417df62d4e1,,,,,,,,,,,,,6,,,,,,,,,,Task,37,(3/3) + 5,6,,,,,,,,,,,,,,,,,,,1,,,,,,,,,,,,,,,,,,,,,,,"[""6""]",1,[8.167499999999961],0,0,0,36,1,,,,,,,,,,,,,,,,,,,,,,,,,,
,,,,,,,,,,,X V Q F H G B L J M P D K C T S W R N Z,5f12d07e399eaf265643e907,41,Mężczyzna,2022-06-11_09h05.11.614,task,2021.1.4,Win32,60.46314771,6299f149e92ead563fba08ef,62a43e8c5269c417df62d4e1,,,,,,,,,,,,,,,,,,,,,,,,,,,,,,,,,,,,,,,,,,,,,,,,,,,,,,,,,,,,,,,,,,,,,,,,,,,,0,0,0,0,1,,,,,,,,,,,,,,,,,,,,,
,,,,,,,,,,,,5f12d07e399eaf265643e907,41,Mężczyzna,2022-06-11_09h05.11.614,task,2021.1.4,Win32,60.46314771,6299f149e92ead563fba08ef,62a43e8c5269c417df62d4e1,,,,,,,,,,,,,1,,,,,,,,,,Task,9,(3x7) - 20,1,,,,,,,,,,,,,,,,,,,1,,,,,,,,,,,,,,,,,,,,,,,"[""1""]",1,[4.367200000017931],0,0,0,8,1,,,,,,,,,,,,,,,,,,,,,,,,,,
,,,,,,,,,,,X V Q F H G B L J M P D K C T S W R N Z,5f12d07e399eaf265643e907,41,Mężczyzna,2022-06-11_09h05.11.614,task,2021.1.4,Win32,60.46314771,6299f149e92ead563fba08ef,62a43e8c5269c417df62d4e1,,,,,,,,,,,,,,,,,,,,,,,,,,,,,,,,,,,,,,,,,,,,,,,,,,,,,,,,,,,,,,,,,,,,,,,,,,,,1,0,1,0,1,,,,,,,,,,,,,,,,,,,,,
,,,,,,,,,,,,5f12d07e399eaf265643e907,41,Mężczyzna,2022-06-11_09h05.11.614,task,2021.1.4,Win32,60.46314771,6299f149e92ead563fba08ef,62a43e8c5269c417df62d4e1,,,,,,,,,,,,,0,,,,,,,,,,Task,17,(2x3) - 6,0,,,,,,,,,,,,,,,,,,,1,,,,,,,,,,,,,,,,,,,,,,,"[""0""]",1,[5.340400000005957],0,0,0,16,1,,,,,,,,,,,,,,,,,,,,,,,,,,
,,,,,,,,,,,X V Q F H G B L J M P D K C T S W R N Z,5f12d07e399eaf265643e907,41,Mężczyzna,2022-06-11_09h05.11.614,task,2021.1.4,Win32,60.46314771,6299f149e92ead563fba08ef,62a43e8c5269c417df62d4e1,,,,,,,,,,,,,,,,,,,,,,,,,,,,,,,,,,,,,,,,,,,,,,,,,,,,,,,,,,,,,,,,,,,,,,,,,,,,2,0,2,0,1,,,,,,,,,,,,,,,,,,,,,
,,,,,,,,,,,,5f12d07e399eaf265643e907,41,Mężczyzna,2022-06-11_09h05.11.614,task,2021.1.4,Win32,60.46314771,6299f149e92ead563fba08ef,62a43e8c5269c417df62d4e1,,,,,,,,,,,,,,,,,,,,,,,,,,,,,,,,,,,,,,,,,,,,,,,,,,,,,,,,,,,,,,,,,,,,,,,,,,,,,,,,,bmf,"[""b"",""m"",""f""]",0,"[2.029300000011915,2.428199999988067,2.796300000011911,5.916599999994048]",0,GMF,1,0,1,0,1,,,,,,,,,,
,,,,,,,,,,,,5f12d07e399eaf265643e907,41,Mężczyzna,2022-06-11_09h05.11.614,task,2021.1.4,Win32,60.46314771,6299f149e92ead563fba08ef,62a43e8c5269c417df62d4e1,,,,,,,,,,,,,4,,,,,,,,,,Task,11,(18/3) - 2,4,,,,,,,,,,,,,,,,,,,1,,,,,,,,,,,,,,,,,,,,,,,"[""4""]",1,[4.131599999994023],0,0,0,10,1,,,,,,,,,,,,,,,,,,,,,,,,,,
,,,,,,,,,,,X V Q F H G B L J M P D K C T S W R N Z,5f12d07e399eaf265643e907,41,Mężczyzna,2022-06-11_09h05.11.614,task,2021.1.4,Win32,60.46314771,6299f149e92ead563fba08ef,62a43e8c5269c417df62d4e1,,,,,,,,,,,,,,,,,,,,,,,,,,,,,,,,,,,,,,,,,,,,,,,,,,,,,,,,,,,,,,,,,,,,,,,,,,,,0,0,0,0,1,,,,,,,,,,,,,,,,,,,,,
,,,,,,,,,,,,5f12d07e399eaf265643e907,41,Mężczyzna,2022-06-11_09h05.11.614,task,2021.1.4,Win32,60.46314771,6299f149e92ead563fba08ef,62a43e8c5269c417df62d4e1,,,,,,,,,,,,,2,,,,,,,,,,Task,2,(2x2) - 2,2,,,,,,,,,,,,,,,,,,,1,,,,,,,,,,,,,,,,,,,,,,,"[""2""]",1,[2.6120999999940295],0,0,0,1,1,,,,,,,,,,,,,,,,,,,,,,,,,,
,,,,,,,,,,,X V Q F H G B L J M P D K C T S W R N Z,5f12d07e399eaf265643e907,41,Mężczyzna,2022-06-11_09h05.11.614,task,2021.1.4,Win32,60.46314771,6299f149e92ead563fba08ef,62a43e8c5269c417df62d4e1,,,,,,,,,,,,,,,,,,,,,,,,,,,,,,,,,,,,,,,,,,,,,,,,,,,,,,,,,,,,,,,,,,,,,,,,,,,,1,0,1,0,1,,,,,,,,,,,,,,,,,,,,,
,,,,,,,,,,,,5f12d07e399eaf265643e907,41,Mężczyzna,2022-06-11_09h05.11.614,task,2021.1.4,Win32,60.46314771,6299f149e92ead563fba08ef,62a43e8c5269c417df62d4e1,,,,,,,,,,,,,8,,,,,,,,,,Task,15,(3x7) - 13,8,,,,,,,,,,,,,,,,,,,1,,,,,,,,,,,,,,,,,,,,,,,"[""8""]",1,[4.054499999999962],0,0,0,14,1,,,,,,,,,,,,,,,,,,,,,,,,,,
,,,,,,,,,,,X V Q F H G B L J M P D K C T S W R N Z,5f12d07e399eaf265643e907,41,Mężczyzna,2022-06-11_09h05.11.614,task,2021.1.4,Win32,60.46314771,6299f149e92ead563fba08ef,62a43e8c5269c417df62d4e1,,,,,,,,,,,,,,,,,,,,,,,,,,,,,,,,,,,,,,,,,,,,,,,,,,,,,,,,,,,,,,,,,,,,,,,,,,,,2,0,2,0,1,,,,,,,,,,,,,,,,,,,,,
,,,,,,,,,,,,5f12d07e399eaf265643e907,41,Mężczyzna,2022-06-11_09h05.11.614,task,2021.1.4,Win32,60.46314771,6299f149e92ead563fba08ef,62a43e8c5269c417df62d4e1,,,,,,,,,,,,,,,,,,,,,,,,,,,,,,,,,,,,,,,,,,,,,,,,,,,,,,,,,,,,,,,,,,,,,,,,,,,,,,,,,tmd,"[""t"",""m"",""d""]",0,"[2.090000000000032,3.467200000017897,5.433600000023887,6.009700000017915]",0,TND,2,0,2,0,1,,,,,,,,,,
,,,,,,,,,,,,5f12d07e399eaf265643e907,41,Mężczyzna,2022-06-11_09h05.11.614,task,2021.1.4,Win32,60.46314771,6299f149e92ead563fba08ef,62a43e8c5269c417df62d4e1,,,,,,,,,,,,,,,,,,,,,,,,,,,,,,,,,,,,,,,,,,,,,,,,,,,,,,,,,,,,,,,,,,,,,,,,,,,,,,,,,,,,,,,,,,,,"[""comma""]",0,[1.2040000000000077],0,0,0,0,1,,
,,,,,,,,,,,,5f12d07e399eaf265643e907,41,Mężczyzna,2022-06-11_09h05.11.614,task,2021.1.4,Win32,60.46314771,6299f149e92ead563fba08ef,62a43e8c5269c417df62d4e1,,,,,,,,,,,,,,,,,,,,,,,,,,,,,,,,,,,,,,,,,,,,,,,,,,,,,,,,,,,,,,,,,,,,,,,,,,,,,,,,,,,,,,,,,,,,,0,,1,0,1,0,1,,
,,,,,,,,,,,,5f12d07e399eaf265643e907,41,Mężczyzna,2022-06-11_09h05.11.614,task,2021.1.4,Win32,60.46314771,6299f149e92ead563fba08ef,62a43e8c5269c417df62d4e1,,,,,,,,,,,,,,,,,,,,,,,,,,,,,,,,,,,,,,,,,,,,,,,,,,,,,,,,,,,,,,,,,,,,,,,,,,,,,,,,,,,,,,,,,,,,,0,,2,0,2,0,1,,
,,,,,,,,,,,,5f12d07e399eaf265643e907,41,Mężczyzna,2022-06-11_09h05.11.614,task,2021.1.4,Win32,60.46314771,6299f149e92ead563fba08ef,62a43e8c5269c417df62d4e1,,,,,,,,,,,,,,,,,,,,,,,,,,,,,,,,,,,,,,,,,,,,,,,,,,,,,,,,,,,,,,,,,,,,,,,,,,,,,,,,,,,,,,,,,,,,"[""comma""]",0,[0.3580000000000041],3,0,3,0,1,,
,,,,,,,,,,,,5f12d07e399eaf265643e907,41,Mężczyzna,2022-06-11_09h05.11.614,task,2021.1.4,Win32,60.46314771,6299f149e92ead563fba08ef,62a43e8c5269c417df62d4e1,,,,,,,,,,,,,,,,,,,,,,,,,,,,,,,,,,,,,,,,,,,,,,,,,,,,,,,,,,,,,,,,,,,,,,,,,,,,,,,,,,,,,,,,,,,,"[""comma""]",0,[0.2479000000059841],4,0,4,0,1,,
,,,,,,,,,,,,5f12d07e399eaf265643e907,41,Mężczyzna,2022-06-11_09h05.11.614,task,2021.1.4,Win32,60.46314771,6299f149e92ead563fba08ef,62a43e8c5269c417df62d4e1,,,,,,,,,,,,,,,,,,,,,,,,,,,,,,,,,,,,,,,,,,,,,,,,,,,,,,,,,,,,,,,,,,,,,,,,,,,,,,,,,,,,,,,,,,,,"[""comma""]",0,[0.13490000000598457],5,0,5,0,1,,
,,,,,,,,,,,,5f12d07e399eaf265643e907,41,Mężczyzna,2022-06-11_09h05.11.614,task,2021.1.4,Win32,60.46314771,6299f149e92ead563fba08ef,62a43e8c5269c417df62d4e1,,,,,,,,,,,,,,,,,,,,,,,,,,,,,,,,,,,,,,,,,,,,,,,,,,,,,,,,,,,,,,,,,,,,,,,,,,,,,,,,,,,,,,,,,,,,"[""comma""]",0,[0.11979999998209223],6,0,6,0,1,,
,,,,,,,,,,,,5f12d07e399eaf265643e907,41,Mężczyzna,2022-06-11_09h05.11.614,task,2021.1.4,Win32,60.46314771,6299f149e92ead563fba08ef,62a43e8c5269c417df62d4e1,,,,,,,,,,,,,,,,,,,,,,,,,,,,,,,,,,,,,,,,,,,,,,,,,,,,,,,,,,,,,,,,,,,,,,,,,,,,,,,,,,,,,,,,,,,,"[""comma""]",0,[0.36040000000593864],7,0,7,0,1,,
,,,,,,,,,,,,5f12d07e399eaf265643e907,41,Mężczyzna,2022-06-11_09h05.11.614,task,2021.1.4,Win32,60.46314771,6299f149e92ead563fba08ef,62a43e8c5269c417df62d4e1,,,,,,,,,,,,,,,,,,,,,,,,,,,,,,,,,,,,,,,,,,,,,,,,,,,,,,,,,,,,,,,,,,,,,,,,,,,,,,,,,,,,,,,,,,,,"[""comma""]",0,[0.3594000000059623],8,0,8,0,1,,
,,,,,,,,,,,,5f12d07e399eaf265643e907,41,Mężczyzna,2022-06-11_09h05.11.614,task,2021.1.4,Win32,60.46314771,6299f149e92ead563fba08ef,62a43e8c5269c417df62d4e1,,,,,,,,,,,,,,,,,,,,,,,,,,,,,,,,,,,,,,,,,,,,,,,,,,,,,,,,,,,,,,,,,,,,,,,,,,,,,,,,,,,,,,,,,,,,"[""comma""]",0,[0.3436999999881891],9,0,9,0,1,,
,,,,,,,,,,,,5f12d07e399eaf265643e907,41,Mężczyzna,2022-06-11_09h05.11.614,task,2021.1.4,Win32,60.46314771,6299f149e92ead563fba08ef,62a43e8c5269c417df62d4e1,,,,,,,,,,,,,,,,,,,,,,,,,,,,,,,,,,,,,,,,,,,,,,,,,,,,,,,,,,,,,,,,,,,,,,,,,,,,,,,,,,,,,,,,,,,,"[""comma""]",0,[0.35959999999397496],10,0,10,0,1,,
,,,,,,,,,,,,5f12d07e399eaf265643e907,41,Mężczyzna,2022-06-11_09h05.11.614,task,2021.1.4,Win32,60.46314771,6299f149e92ead563fba08ef,62a43e8c5269c417df62d4e1,,,,,,,,,,,,,,,,,,,,,,,,,,,,,,,,,,,,,,,,,,,,,,,,,,,,,,,,,,,,,,,,,,,,,,,,,,,,,,,,,,,,,,,,,,,,"[""comma""]",0,[0.08640000000593773],11,0,11,0,1,,
,,,,,,,,,,,,5f12d07e399eaf265643e907,41,Mężczyzna,2022-06-11_09h05.11.614,task,2021.1.4,Win32,60.46314771,6299f149e92ead563fba08ef,62a43e8c5269c417df62d4e1,,,,,,,,,,,,,,,,,,,,,,,,,,,,,,,,,,,,,,,,,,,,,,,,,,,,,,,,,,,,,,,,,,,,,,,,,,,,,,,,,,,,,,,,,,,,"[""comma""]",0,[0.11969999998802905],12,0,12,0,1,,
,,,,,,,,,,,,5f12d07e399eaf265643e907,41,Mężczyzna,2022-06-11_09h05.11.614,task,2021.1.4,Win32,60.46314771,6299f149e92ead563fba08ef,62a43e8c5269c417df62d4e1,,,,,,,,,,,,,,,,,,,,,,,,,,,,,,,,,,,,,,,,,,,,,,,,,,,,,,,,,,,,,,,,,,,,,,,,,,,,,,,,,,,,,,,,,,,,"[""comma""]",0,[0.3585999999939986],13,0,13,0,1,,
,,,,,,,,,,,,5f12d07e399eaf265643e907,41,Mężczyzna,2022-06-11_09h05.11.614,task,2021.1.4,Win32,60.46314771,6299f149e92ead563fba08ef,62a43e8c5269c417df62d4e1,,,,,,,,,,,,,,,,,,,,,,,,,,,,,,,,,,,,,,,,,,,,,,,,,,,,,,,,,,,,,,,,,,,,,,,,,,,,,,,,,,,,,,,,,,,,"[""comma""]",0,[0.2503000000119755],14,0,14,0,1,,
,,,,,,,,,,,,5f12d07e399eaf265643e907,41,Mężczyzna,2022-06-11_09h05.11.614,task,2021.1.4,Win32,60.46314771,6299f149e92ead563fba08ef,62a43e8c5269c417df62d4e1,,,,,,,,,,,,,,,,,,,,,,,,,,,,,,,,,,,,,,,,,,,,,,,,,,,,,,,,,,,,,,,,,,,,,,,,,,,,,,,,,,,,,,,,,,,,"[""comma""]",0,[0.11800000000005184],15,0,15,0,1,,
,,,,,,,,,,,,5f12d07e399eaf265643e907,41,Mężczyzna,2022-06-11_09h05.11.614,task,2021.1.4,Win32,60.46314771,6299f149e92ead563fba08ef,62a43e8c5269c417df62d4e1,,,,,,,,,,,,,,,,,,,,,,,,,,,,,,,,,,,,,,,,,,,,,,,,,,,,,,,,,,,,,,,,,,,,,,,,,,,,,,,,,,,,,,,,,,,,"[""comma""]",0,[0.11970000001792869],16,0,16,0,1,,
,,,,,,,,,,,,5f12d07e399eaf265643e907,41,Mężczyzna,2022-06-11_09h05.11.614,task,2021.1.4,Win32,60.46314771,6299f149e92ead563fba08ef,62a43e8c5269c417df62d4e1,,,,,,,,,,,,,,,,,,,,,,,,,,,,,,,,,,,,,,,,,,,,,,,,,,,,,,,,,,,,,,,,,,,,,,,,,,,,,,,,,,,,,,,,,,,,"[""period""]",0,[0.3757999999821777],17,0,17,0,1,,
,,,,,,,,,,,,5f12d07e399eaf265643e907,41,Mężczyzna,2022-06-11_09h05.11.614,task,2021.1.4,Win32,60.46314771,6299f149e92ead563fba08ef,62a43e8c5269c417df62d4e1,,,,,,,,,,,,,,,,,,,,,,,,,,,,,,,,,,,,,,,,,,,,,,,,,,,,,,,,,,,,,,,,,,,,,,,,,,,,,,,,,,,,,,,,,,,,"[""period""]",0,[0.37649999999996453],18,0,18,0,1,,
,,,,,,,,,,,,5f12d07e399eaf265643e907,41,Mężczyzna,2022-06-11_09h05.11.614,task,2021.1.4,Win32,60.46314771,6299f149e92ead563fba08ef,62a43e8c5269c417df62d4e1,,,,,,,,,,,,,,,,,,,,,,,,,,,,,,,,,,,,,,,,,,,,,,,,,,,,,,,,,,,,,,,,,,,,,,,,,,,,,,,,,,,,,,,,,,,,"[""comma""]",0,[0.0724999999999909],19,0,19,0,1,,
,,,,,,,,,,,,5f12d07e399eaf265643e907,41,Mężczyzna,2022-06-11_09h05.11.614,task,2021.1.4,Win32,60.46314771,6299f149e92ead563fba08ef,62a43e8c5269c417df62d4e1,,,,,,,,,,,,,,,,,,,,,,,,,,,,,,,,,,,,,,,,,,,,,,,,,,,,,,,,,,,,,,,,,,,,,,,,,,,,,,,,,,,,,,,,,,,,"[""period""]",0,[0.21720000001789685],20,0,20,0,1,,
,,,,,,,,,,,,5f12d07e399eaf265643e907,41,Mężczyzna,2022-06-11_09h05.11.614,task,2021.1.4,Win32,60.46314771,6299f149e92ead563fba08ef,62a43e8c5269c417df62d4e1,,,,,,,,,,,,,,,,,,,,,,,,,,,,,,,,,,,,,,,,,,,,,,,,,,,,,,,,,,,,,,,,,,,,,,,,,,,,,,,,,,,,,,,,,,,,"[""comma""]",0,[0.2011999999881482],21,0,21,0,1,,
,,,,,,,,,,,,5f12d07e399eaf265643e907,41,Mężczyzna,2022-06-11_09h05.11.614,task,2021.1.4,Win32,60.46314771,6299f149e92ead563fba08ef,62a43e8c5269c417df62d4e1,,,,,,,,,,,,,,,,,,,,,,,,,,,,,,,,,,,,,,,,,,,,,,,,,,,,,,,,,,,,,,,,,,,,,,,,,,,,,,,,,,,,,,,,,,,,"[""period""]",0,[0.10529999998209405],22,0,22,0,1,,
,,,,,,,,,,,,5f12d07e399eaf265643e907,41,Mężczyzna,2022-06-11_09h05.11.614,task,2021.1.4,Win32,60.46314771,6299f149e92ead563fba08ef,62a43e8c5269c417df62d4e1,,,,,,,,,,,,,,,,,,,,,,,,,,,,,,,,,,,,,,,,,,,,,,,,,,,,,,,,,,,,,,,,,,,,,,,,,,,,,,,,,,,,,,,,,,,,"[""comma""]",0,[0.34509999999409047],23,0,23,0,1,,
,,,,,,,,,,,,5f12d07e399eaf265643e907,41,Mężczyzna,2022-06-11_09h05.11.614,task,2021.1.4,Win32,60.46314771,6299f149e92ead563fba08ef,62a43e8c5269c417df62d4e1,,,,,,,,,,,,,,,,,,,,,,,,,,,,,,,,,,,,,,,,,,,,,,,,,,,,,,,,,,,,,,,,,,,,,,,,,,,,,,,,,,,,,,,,,,,,"[""period""]",0,[0.328700000017875],24,0,24,0,1,,
,,,,,,,,,,,,5f12d07e399eaf265643e907,41,Mężczyzna,2022-06-11_09h05.11.614,task,2021.1.4,Win32,60.46314771,6299f149e92ead563fba08ef,62a43e8c5269c417df62d4e1,,,,,,,,,,,,,,,,,,,,,,,,,,,,,,,,,,,,,,,,,,,,,,,,,,,,,,,,,,,,,,,,,,,,,,,,,,,,,,,,,,,,,,,,,,,,"[""comma""]",0,[0.1687999999821841],25,0,25,0,1,,
,,,,,,,,,,,,5f12d07e399eaf265643e907,41,Mężczyzna,2022-06-11_09h05.11.614,task,2021.1.4,Win32,60.46314771,6299f149e92ead563fba08ef,62a43e8c5269c417df62d4e1,,,,,,,,,,,,,,,,,,,,,,,,,,,,,,,,,,,,,,,,,,,,,,,,,,,,,,,,,,,,,,,,,,,,,,,,,,,,,,,,,,,,,,,,,,,,"[""period""]",0,[0.3131000000238373],26,0,26,0,1,,
,,,,,,,,,,,,5f12d07e399eaf265643e907,41,Mężczyzna,2022-06-11_09h05.11.614,task,2021.1.4,Win32,60.46314771,6299f149e92ead563fba08ef,62a43e8c5269c417df62d4e1,,,,,,,,,,,,,,,,,,,,,,,,,,,,,,,,,,,,,,,,,,,,,,,,,,,,,,,,,,,,,,,,,,,,,,,,,,,,,,,,,,,,,,,,,,,,"[""comma""]",0,[0.08909999999411866],27,0,27,0,1,,
,,,,,,,,,,,,5f12d07e399eaf265643e907,41,Mężczyzna,2022-06-11_09h05.11.614,task,2021.1.4,Win32,60.46314771,6299f149e92ead563fba08ef,62a43e8c5269c417df62d4e1,,,,,,,,,,,,,,,,,,,,,,,,,,,,,,,,,,,,,,,,,,,,,,,,,,,,,,,,,,,,,,,,,,,,,,,,,,,,,,,,,,,,,,,,,,,,"[""comma""]",0,[0.21759999999414958],28,0,28,0,1,,
,,,,,,,,,,,,5f12d07e399eaf265643e907,41,Mężczyzna,2022-06-11_09h05.11.614,task,2021.1.4,Win32,60.46314771,6299f149e92ead563fba08ef,62a43e8c5269c417df62d4e1,,,,,,,,,,,,,,,,,,,,,,,,,,,,,,,,,,,,,,,,,,,,,,,,,,,,,,,,,,,,,,,,,,,,,,,,,,,,,,,,,,,,,,,,,,,,"[""comma""]",0,[0.21520000001783046],29,0,29,0,1,,
,,,,,,,,,,,,5f12d07e399eaf265643e907,41,Mężczyzna,2022-06-11_09h05.11.614,task,2021.1.4,Win32,60.46314771,6299f149e92ead563fba08ef,62a43e8c5269c417df62d4e1,,,,,,,,,,,,,,,,,,,,,,,,,,,,,,,,,,,,,,,,,,,,,,,,,,,,,,,,,,,,,,,,,,,,,,,,,,,,,,,,,,,,,,,,,,,,"[""comma""]",0,[0.24979999998208768],30,0,30,0,1,,
,,,,,,,,,,,,5f12d07e399eaf265643e907,41,Mężczyzna,2022-06-11_09h05.11.614,task,2021.1.4,Win32,60.46314771,6299f149e92ead563fba08ef,62a43e8c5269c417df62d4e1,,,,,,,,,,,,,,,,,,,,,,,,,,,,,,,,,,,,,,,,,,,,,,,,,,,,,,,,,,,,,,,,,,,,,,,,,,,,,,,,,,,,,,,,,,,,"[""comma""]",0,[0.1373000000119191],31,0,31,0,1,,
,,,,,,,,,,,,5f12d07e399eaf265643e907,41,Mężczyzna,2022-06-11_09h05.11.614,task,2021.1.4,Win32,60.46314771,6299f149e92ead563fba08ef,62a43e8c5269c417df62d4e1,,,,,,,,,,,,,,,,,,,,,,,,,,,,,,,,,,,,,,,,,,,,,,,,,,,,,,,,,,,,,,,,,,,,,,,,,,,,,,,,,,,,,,,,,,,,"[""period""]",0,[0.04100000000005366],32,0,32,0,1,,
,,,,,,,,,,,,5f12d07e399eaf265643e907,41,Mężczyzna,2022-06-11_09h05.11.614,task,2021.1.4,Win32,60.46314771,6299f149e92ead563fba08ef,62a43e8c5269c417df62d4e1,,,,,,,,,,,,,,,,,,,,,,,,,,,,,,,,,,,,,,,,,,,,,,,,,,,,,,,,,,,,,,,,,,,,,,,,,,,,,,,,,,,,,,,,,,,,"[""comma""]",0,[0.20090000000595865],33,0,33,0,1,,
,,,,,,,,,,,,5f12d07e399eaf265643e907,41,Mężczyzna,2022-06-11_09h05.11.614,task,2021.1.4,Win32,60.46314771,6299f149e92ead563fba08ef,62a43e8c5269c417df62d4e1,,,,,,,,,,,,,,,,,,,,,,,,,,,,,,,,,,,,,,,,,,,,,,,,,,,,,,,,,,,,,,,,,,,,,,,,,,,,,,,,,,,,,,,,,,,,"[""period""]",0,[0.20490000000597774],34,0,34,0,1,,
,,,,,,,,,,,,5f12d07e399eaf265643e907,41,Mężczyzna,2022-06-11_09h05.11.614,task,2021.1.4,Win32,60.46314771,6299f149e92ead563fba08ef,62a43e8c5269c417df62d4e1,,,,,,,,,,,,,,,,,,,,,,,,,,,,,,,,,,,,,,,,,,,,,,,,,,,,,,,,,,,,,,,,,,,,,,,,,,,,,,,,,,,,,,,,,,,,"[""comma""]",0,[0.07409999999401862],35,0,35,0,1,,
,,,,,,,,,,,,5f12d07e399eaf265643e907,41,Mężczyzna,2022-06-11_09h05.11.614,task,2021.1.4,Win32,60.46314771,6299f149e92ead563fba08ef,62a43e8c5269c417df62d4e1,,,,,,,,,,,,,,,,,,,,,,,,,,,,,,,,,,,,,,,,,,,,,,,,,,,,,,,,,,,,,,,,,,,,,,,,,,,,,,,,,,,,,,,,,,,,"[""period""]",0,[0.10529999998209405],36,0,36,0,1,,
,,,,,,,,,,,,5f12d07e399eaf265643e907,41,Mężczyzna,2022-06-11_09h05.11.614,task,2021.1.4,Win32,60.46314771,6299f149e92ead563fba08ef,62a43e8c5269c417df62d4e1,,,,,,,,,,,,,,,,,,,,,,,,,,,,,,,,,,,,,,,,,,,,,,,,,,,,,,,,,,,,,,,,,,,,,,,,,,,,,,,,,,,,,,,,,,,,"[""comma""]",0,[0.26519999998799904],37,0,37,0,1,,
,,,,,,,,,,,,5f12d07e399eaf265643e907,41,Mężczyzna,2022-06-11_09h05.11.614,task,2021.1.4,Win32,60.46314771,6299f149e92ead563fba08ef,62a43e8c5269c417df62d4e1,,,,,,,,,,,,,,,,,,,,,,,,,,,,,,,,,,,,,,,,,,,,,,,,,,,,,,,,,,,,,,,,,,,,,,,,,,,,,,,,,,,,,,,,,,,,"[""period""]",0,[0.10580000001186818],38,0,38,0,1,,
,,,,,,,,,,,,5f12d07e399eaf265643e907,41,Mężczyzna,2022-06-11_09h05.11.614,task,2021.1.4,Win32,60.46314771,6299f149e92ead563fba08ef,62a43e8c5269c417df62d4e1,,,,,,,,,,,,,,,,,,,,,,,,,,,,,,,,,,,,,,,,,,,,,,,,,,,,,,,,,,,,,,,,,,,,,,,,,,,,,,,,,,,,,,,,,,,,"[""comma""]",0,[0.15440000000603504],39,0,39,0,1,,
,,,,,,,,,,,,5f12d07e399eaf265643e907,41,Mężczyzna,2022-06-11_09h05.11.614,task,2021.1.4,Win32,60.46314771,6299f149e92ead563fba08ef,62a43e8c5269c417df62d4e1,,,,,,,,,,,,,,,,,,,,,,,,,,,,,,,,,,,,,,,,,,,,,,,,,,,,,,,,,,,,,,,,,,,,,,,,,,,,,,,,,,,,,,,,,,,,"[""period""]",0,[0.042399999976169056],40,0,40,0,1,,
,,,,,,,,,,,,5f12d07e399eaf265643e907,41,Mężczyzna,2022-06-11_09h05.11.614,task,2021.1.4,Win32,60.46314771,6299f149e92ead563fba08ef,62a43e8c5269c417df62d4e1,,,,,,,,,,,,,,,,,,,,,,,,,,,,,,,,,,,,,,,,,,,,,,,,,,,,,,,,,,,,,,,,,,,,,,,,,,,,,,,,,,,,,,,,,,,,"[""comma""]",0,[0.05810000002384186],41,0,41,0,1,,
,,,,,,,,,,,,5f12d07e399eaf265643e907,41,Mężczyzna,2022-06-11_09h05.11.614,task,2021.1.4,Win32,60.46314771,6299f149e92ead563fba08ef,62a43e8c5269c417df62d4e1,,,,,,,,,,,,,,,,,,,,,,,,,,,,,,,,,,,,,,,,,,,,,,,,,,,,,,,,,,,,,,,,,,,,,,,,,,,,,,,,,,,,,,,,,,,,"[""period""]",0,[0.2502000000179123],42,0,42,0,1,,
,,,,,,,,,,,,5f12d07e399eaf265643e907,41,Mężczyzna,2022-06-11_09h05.11.614,task,2021.1.4,Win32,60.46314771,6299f149e92ead563fba08ef,62a43e8c5269c417df62d4e1,,,,,,,,,,,,,,,,,,,,,,,,,,,,,,,,,,,,,,,,,,,,,,,,,,,,,,,,,,,,,,,,,,,,,,,,,,,,,,,,,,,,,,,,,,,,"[""comma""]",0,[0.32990000000597774],43,0,43,0,1,,
,,,,,,,,,,,,5f12d07e399eaf265643e907,41,Mężczyzna,2022-06-11_09h05.11.614,task,2021.1.4,Win32,60.46314771,6299f149e92ead563fba08ef,62a43e8c5269c417df62d4e1,,,,,,,,,,,,,,,,,,,,,,,,,,,,,,,,,,,,,,,,,,,,,,,,,,,,,,,,,,,,,,,,,,,,,,,,,,,,,,,,,,,,,,,,,,,,"[""comma""]",0,[0.2996999999880927],44,0,44,0,1,,
,,,,,,,,,,,,5f12d07e399eaf265643e907,41,Mężczyzna,2022-06-11_09h05.11.614,task,2021.1.4,Win32,60.46314771,6299f149e92ead563fba08ef,62a43e8c5269c417df62d4e1,,,,,,,,,,,,,,,,,,,,,,,,,,,,,,,,,,,,,,,,,,,,,,,,,,,,,,,,,,,,,,,,,,,,,,,,,,,,,,,,,,,,,,,,,,,,"[""comma""]",0,[0.21809999999402407],45,0,45,0,1,,
,,,,,,,,,,,,5f12d07e399eaf265643e907,41,Mężczyzna,2022-06-11_09h05.11.614,task,2021.1.4,Win32,60.46314771,6299f149e92ead563fba08ef,62a43e8c5269c417df62d4e1,,,,,,,,,,,,,,,,,,,,,,,,,,,,,,,,,,,,,,,,,,,,,,,,,,,,,,,,,,,,,,,,,,,,,,,,,,,,,,,,,,,,,,,,,,,,"[""comma""]",0,[0.20229999998207404],46,0,46,0,1,,
,,,,,,,,,,,,5f12d07e399eaf265643e907,41,Mężczyzna,2022-06-11_09h05.11.614,task,2021.1.4,Win32,60.46314771,6299f149e92ead563fba08ef,62a43e8c5269c417df62d4e1,,,,,,,,,,,,,,,,,,,,,,,,,,,,,,,,,,,,,,,,,,,,,,,,,,,,,,,,,,,,,,,,,,,,,,,,,,,,,,,,,,,,,,,,,,,,"[""comma""]",0,[0.1683999999761454],47,0,47,0,1,,
,,,,,,,,,,,,5f12d07e399eaf265643e907,41,Mężczyzna,2022-06-11_09h05.11.614,task,2021.1.4,Win32,60.46314771,6299f149e92ead563fba08ef,62a43e8c5269c417df62d4e1,,,,,,,,,,,,,,,,,,,,,,,,,,,,,,,,,,,,,,,,,,,,,,,,,,,,,,,,,,,,,,,,,,,,,,,,,,,,,,,,,,,,,,,,,,,,"[""comma""]",0,[0.21809999999402407],48,0,48,0,1,,
,,,,,,,,,,,,5f12d07e399eaf265643e907,41,Mężczyzna,2022-06-11_09h05.11.614,task,2021.1.4,Win32,60.46314771,6299f149e92ead563fba08ef,62a43e8c5269c417df62d4e1,,,,,,,,,,,,,,,,,,,,,,,,,,,,,,,,,,,,,,,,,,,,,,,,,,,,,,,,,,,,,,,,,,,,,,,,,,,,,,,,,,,,,,,,,,,,"[""comma""]",0,[0.1069999999999709],49,0,49,0,1,,
,,,,,,,,,,,,5f12d07e399eaf265643e907,41,Mężczyzna,2022-06-11_09h05.11.614,task,2021.1.4,Win32,60.46314771,6299f149e92ead563fba08ef,62a43e8c5269c417df62d4e1,,,,,,,,,,,,,,,,,,,,,,,,,,,,,,,,,,,,,,,,,,,,,,,,,,,,,,,,,,,,,,,,,,,,,,,,,,,,,,,,,,,,,,,,,,,,"[""comma""]",0,[0.09050000000002001],50,0,50,0,1,,
,,,,,,,,,,,,5f12d07e399eaf265643e907,41,Mężczyzna,2022-06-11_09h05.11.614,task,2021.1.4,Win32,60.46314771,6299f149e92ead563fba08ef,62a43e8c5269c417df62d4e1,,,,,,,,,,,,,,,,,,,,,,,,,,,,,,,,,,,,,,,,,,,,,,,,,,,,,,,,,,,,,,,,,,,,,,,,,,,,,,,,,,,,,,,,,,,,"[""comma""]",0,[0.12250000000005912],51,0,51,0,1,,
,,,,,,,,,,,,5f12d07e399eaf265643e907,41,Mężczyzna,2022-06-11_09h05.11.614,task,2021.1.4,Win32,60.46314771,6299f149e92ead563fba08ef,62a43e8c5269c417df62d4e1,,,,,,,,,,,,,,,,,,,,,,,,,,,,,,,,,,,,,,,,,,,,,,,,,,,,,,,,,,,,,,,,,,,,,,,,,,,,,,,,,,,,,,,,,,,,"[""comma""]",0,[0.20210000002384731],52,0,52,0,1,,
,,,,,,,,,,,,5f12d07e399eaf265643e907,41,Mężczyzna,2022-06-11_09h05.11.614,task,2021.1.4,Win32,60.46314771,6299f149e92ead563fba08ef,62a43e8c5269c417df62d4e1,,,,,,,,,,,,,,,,,,,,,,,,,,,,,,,,,,,,,,,,,,,,,,,,,,,,,,,,,,,,,,,,,,,,,,,,,,,,,,,,,,,,,,,,,,,,"[""comma""]",0,[0.28530000001194367],53,0,53,0,1,,
,,,,,,,,,,,,5f12d07e399eaf265643e907,41,Mężczyzna,2022-06-11_09h05.11.614,task,2021.1.4,Win32,60.46314771,6299f149e92ead563fba08ef,62a43e8c5269c417df62d4e1,,,,,,,,,,,,,,,,,,,,,,,,,,,,,,,,,,,,,,,,,,,,,,,,,,,,,,,,,,,,,,,,,,,,,,,,,,,,,,,,,,,,,,,,,,,,"[""comma""]",0,[0.09069999998803269],54,0,54,0,1,,
,,,,,,,,,,,,5f12d07e399eaf265643e907,41,Mężczyzna,2022-06-11_09h05.11.614,task,2021.1.4,Win32,60.46314771,6299f149e92ead563fba08ef,62a43e8c5269c417df62d4e1,,,,,,,,,,,,,,,,,,,,,,,,,,,,,,,,,,,,,,,,,,,,,,,,,,,,,,,,,,,,,,,,,,,,,,,,,,,,,,,,,,,,,,,,,,,,"[""comma""]",0,[0.045400000005997754],55,0,55,0,1,,
,,,,,,,,,,,,5f12d07e399eaf265643e907,41,Mężczyzna,2022-06-11_09h05.11.614,task,2021.1.4,Win32,60.46314771,6299f149e92ead563fba08ef,62a43e8c5269c417df62d4e1,,,,,,,,,,,,,,,,,,,,,,,,,,,,,,,,,,,,,,,,,,,,,,,,,,,,,,,,,,,,,,,,,,,,,,,,,,,,,,,,,,,,,,,,,,,,"[""comma""]",0,[0.21659999999394586],56,0,56,0,1,,
,,,,,,,,,,,,5f12d07e399eaf265643e907,41,Mężczyzna,2022-06-11_09h05.11.614,task,2021.1.4,Win32,60.46314771,6299f149e92ead563fba08ef,62a43e8c5269c417df62d4e1,,,,,,,,,,,,,,,,,,,,,,,,,,,,,,,,,,,,,,,,,,,,,,,,,,,,,,,,,,,,,,,,,,,,,,,,,,,,,,,,,,,,,,,,,,,,"[""comma"",""comma""]",0,"[0.18609999999398497,1.8341999999880727]",57,0,57,0,1,,
,,,,,,,,,,,,5f12d07e399eaf265643e907,41,Mężczyzna,2022-06-11_09h05.11.614,task,2021.1.4,Win32,60.46314771,6299f149e92ead563fba08ef,62a43e8c5269c417df62d4e1,,,,,,,,,,,,,,,,,,,,,,,,,,,,,,,,,,,,,,,,,,,,,,,,,,,,,,,,,,,,,,,,,,,,,,,,,,,,,,,,,,,,,,,,,,,,,0,,58,0,58,0,1,,
,,,,,,,,,,,,5f12d07e399eaf265643e907,41,Mężczyzna,2022-06-11_09h05.11.614,task,2021.1.4,Win32,60.46314771,6299f149e92ead563fba08ef,62a43e8c5269c417df62d4e1,,,,,,,,,,,,,,,,,,,,,,,,,,,,,,,,,,,,,,,,,,,,,,,,,,,,,,,,,,,,,,,,,,,,,,,,,,,,,,,,,,,,,,,,,,,,"[""comma""]",0,[0.10730000001183271],59,0,59,0,1,,
,,,,,,,,,,,,5f12d07e399eaf265643e907,41,Mężczyzna,2022-06-11_09h05.11.614,task,2021.1.4,Win32,60.46314771,6299f149e92ead563fba08ef,62a43e8c5269c417df62d4e1,,,,,,,,,,,,,,,,,,,,,,,,,,,,,,,,,,,,,,,,,,,,,,,,,,,,,,,,,,,,,,,,,,,,,,,,,,,,,,,,,,,,,,,,,,,,"[""comma""]",0,[0.12329999998212315],60,0,60,0,1,,
,,,,,,,,,,,,5f12d07e399eaf265643e907,41,Mężczyzna,2022-06-11_09h05.11.614,task,2021.1.4,Win32,60.46314771,6299f149e92ead563fba08ef,62a43e8c5269c417df62d4e1,,,,,,,,,,,,,,,,,,,,,,,,,,,,,,,,,,,,,,,,,,,,,,,,,,,,,,,,,,,,,,,,,,,,,,,,,,,,,,,,,,,,,,,,,,,,"[""comma""]",0,[0.1550999999940359],61,0,61,0,1,,
,,,,,,,,,,,,5f12d07e399eaf265643e907,41,Mężczyzna,2022-06-11_09h05.11.614,task,2021.1.4,Win32,60.46314771,6299f149e92ead563fba08ef,62a43e8c5269c417df62d4e1,,,,,,,,,,,,,,,,,,,,,,,,,,,,,,,,,,,,,,,,,,,,,,,,,,,,,,,,,,,,,,,,,,,,,,,,,,,,,,,,,,,,,,,,,,,,"[""comma"",""comma""]",0,"[0.10579999998208223,1.8992999999820768]",62,0,62,0,1,,
,,,,,,,,,,,,5f12d07e399eaf265643e907,41,Mężczyzna,2022-06-11_09h05.11.614,task,2021.1.4,Win32,60.46314771,6299f149e92ead563fba08ef,62a43e8c5269c417df62d4e1,,,,,,,,,,,,,,,,,,,,,,,,,,,,,,,,,,,,,,,,,,,,,,,,,,,,,,,,,,,,,,,,,,,,,,,,,,,,,,,,,,,,,,,,,,,,,0,,63,0,63,0,1,,
,,,,,,,,,,,,5f12d07e399eaf265643e907,41,Mężczyzna,2022-06-11_09h05.11.614,task,2021.1.4,Win32,60.46314771,6299f149e92ead563fba08ef,62a43e8c5269c417df62d4e1,,,,,,,,,,,,,,,,,,,,,,,,,,,,,,,,,,,,,,,,,,,,,,,,,,,,,,,,,,,,,,,,,,,,,,,,,,,,,,,,,,,,,,,,,,,,"[""comma""]",0,[0.23540000000593864],64,0,64,0,1,,
,,,,,,,,,,,,5f12d07e399eaf265643e907,41,Mężczyzna,2022-06-11_09h05.11.614,task,2021.1.4,Win32,60.46314771,6299f149e92ead563fba08ef,62a43e8c5269c417df62d4e1,,,,,,,,,,,,,,,,,,,,,,,,,,,,,,,,,,,,,,,,,,,,,,,,,,,,,,,,,,,,,,,,,,,,,,,,,,,,,,,,,,,,,,,,,,,,"[""comma""]",0,[0.15399999999999636],65,0,65,0,1,,
,,,,,,,,,,,,5f12d07e399eaf265643e907,41,Mężczyzna,2022-06-11_09h05.11.614,task,2021.1.4,Win32,60.46314771,6299f149e92ead563fba08ef,62a43e8c5269c417df62d4e1,,,,,,,,,,,,,,,,,,,,,,,,,,,,,,,,,,,,,,,,,,,,,,,,,,,,,,,,,,,,,,,,,,,,,,,,,,,,,,,,,,,,,,,,,,,,"[""comma""]",0,[0.05929999998204494],66,0,66,0,1,,
,,,,,,,,,,,,5f12d07e399eaf265643e907,41,Mężczyzna,2022-06-11_09h05.11.614,task,2021.1.4,Win32,60.46314771,6299f149e92ead563fba08ef,62a43e8c5269c417df62d4e1,,,,,,,,,,,,,,,,,,,,,,,,,,,,,,,,,,,,,,,,,,,,,,,,,,,,,,,,,,,,,,,,,,,,,,,,,,,,,,,,,,,,,,,,,,,,"[""comma"",""comma""]",0,"[0.01140000000600594,1.9317000000178268]",67,0,67,0,1,,
,,,,,,,,,,,,5f12d07e399eaf265643e907,41,Mężczyzna,2022-06-11_09h05.11.614,task,2021.1.4,Win32,60.46314771,6299f149e92ead563fba08ef,62a43e8c5269c417df62d4e1,,,,,,,,,,,,,,,,,,,,,,,,,,,,,,,,,,,,,,,,,,,,,,,,,,,,,,,,,,,,,,,,,,,,,,,,,,,,,,,,,,,,,,,,,,,,"[""comma""]",0,[1.9819000000059077],68,0,68,0,1,,
,,,,,,,,,,,,5f12d07e399eaf265643e907,41,Mężczyzna,2022-06-11_09h05.11.614,task,2021.1.4,Win32,60.46314771,6299f149e92ead563fba08ef,62a43e8c5269c417df62d4e1,,,,,,,,,,,,,,,,,,,,,,,,,,,,,,,,,,,,,,,,,,,,,,,,,,,,,,,,,,,,,,,,,,,,,,,,,,,,,,,,,,,,,,,,,,,,,0,,69,0,69,0,1,,
,,,,,,,,,,,,5f12d07e399eaf265643e907,41,Mężczyzna,2022-06-11_09h05.11.614,task,2021.1.4,Win32,60.46314771,6299f149e92ead563fba08ef,62a43e8c5269c417df62d4e1,,,,,,,,,,,,,,,,,,,,,,,,,,,,,,,,,,,,,,,,,,,,,,,,,,,,,,,,,,,,,,,,,,,,,,,,,,,,,,,,,,,,,,,,,,,,"[""comma""]",0,[0.07480000001191911],70,0,70,0,1,,
,,,,,,,,,,,,5f12d07e399eaf265643e907,41,Mężczyzna,2022-06-11_09h05.11.614,task,2021.1.4,Win32,60.46314771,6299f149e92ead563fba08ef,62a43e8c5269c417df62d4e1,,,,,,,,,,,,,,,,,,,,,,,,,,,,,,,,,,,,,,,,,,,,,,,,,,,,,,,,,,,,,,,,,,,,,,,,,,,,,,,,,,,,,,,,,,,,"[""comma""]",0,[0.02769999998804451],71,0,71,0,1,,
,,,,,,,,,,,,5f12d07e399eaf265643e907,41,Mężczyzna,2022-06-11_09h05.11.614,task,2021.1.4,Win32,60.46314771,6299f149e92ead563fba08ef,62a43e8c5269c417df62d4e1,,,,,,,,,,,,,,,,,,,,,,,,,,,,,,,,,,,,,,,,,,,,,,,,,,,,,,,,,,,,,,,,,,,,,,,,,,,,,,,,,,,,,,,,,,,,"[""comma""]",0,[0.18680000001199915],72,0,72,0,1,,
,,,,,,,,,,,,5f12d07e399eaf265643e907,41,Mężczyzna,2022-06-11_09h05.11.614,task,2021.1.4,Win32,60.46314771,6299f149e92ead563fba08ef,62a43e8c5269c417df62d4e1,,,,,,,,,,,,,,,,,,,,,,,,,,,,,,,,,,,,,,,,,,,,,,,,,,,,,,,,,,,,,,,,,,,,,,,,,,,,,,,,,,,,,,,,,,,,"[""comma""]",0,[0.17130000001191092],73,0,73,0,1,,
,,,,,,,,,,,,5f12d07e399eaf265643e907,41,Mężczyzna,2022-06-11_09h05.11.614,task,2021.1.4,Win32,60.46314771,6299f149e92ead563fba08ef,62a43e8c5269c417df62d4e1,,,,,,,,,,,,,,,,,,,,,,,,,,,,,,,,,,,,,,,,,,,,,,,,,,,,,,,,,,,,,,,,,,,,,,,,,,,,,,,,,,,,,,,,,,,,"[""comma""]",0,[0.05969999998808362],74,0,74,0,1,,
,,,,,,,,,,,,5f12d07e399eaf265643e907,41,Mężczyzna,2022-06-11_09h05.11.614,task,2021.1.4,Win32,60.46314771,6299f149e92ead563fba08ef,62a43e8c5269c417df62d4e1,,,,,,,,,,,,,,,,,,,,,,,,,,,,,,,,,,,,,,,,,,,,,,,,,,,,,,,,,,,,,,,,,,,,,,,,,,,,,,,,,,,,,,,,,,,,"[""comma""]",0,[0.2680999999939786],75,0,75,0,1,,
,,,,,,,,,,,,5f12d07e399eaf265643e907,41,Mężczyzna,2022-06-11_09h05.11.614,task,2021.1.4,Win32,60.46314771,6299f149e92ead563fba08ef,62a43e8c5269c417df62d4e1,,,,,,,,,,,,,,,,,,,,,,,,,,,,,,,,,,,,,,,,,,,,,,,,,,,,,,,,,,,,,,,,,,,,,,,,,,,,,,,,,,,,,,,,,,,,"[""period""]",0,[0.05780000001186636],76,0,76,0,1,,
,,,,,,,,,,,,5f12d07e399eaf265643e907,41,Mężczyzna,2022-06-11_09h05.11.614,task,2021.1.4,Win32,60.46314771,6299f149e92ead563fba08ef,62a43e8c5269c417df62d4e1,,,,,,,,,,,,,,,,,,,,,,,,,,,,,,,,,,,,,,,,,,,,,,,,,,,,,,,,,,,,,,,,,,,,,,,,,,,,,,,,,,,,,,,,,,,,"[""comma""]",0,[0.044400000005907714],77,0,77,0,1,,
,,,,,,,,,,,,5f12d07e399eaf265643e907,41,Mężczyzna,2022-06-11_09h05.11.614,task,2021.1.4,Win32,60.46314771,6299f149e92ead563fba08ef,62a43e8c5269c417df62d4e1,,,,,,,,,,,,,,,,,,,,,,,,,,,,,,,,,,,,,,,,,,,,,,,,,,,,,,,,,,,,,,,,,,,,,,,,,,,,,,,,,,,,,,,,,,,,"[""comma""]",0,[0.17209999999408865],78,0,78,0,1,,
,,,,,,,,,,,,5f12d07e399eaf265643e907,41,Mężczyzna,2022-06-11_09h05.11.614,task,2021.1.4,Win32,60.46314771,6299f149e92ead563fba08ef,62a43e8c5269c417df62d4e1,,,,,,,,,,,,,,,,,,,,,,,,,,,,,,,,,,,,,,,,,,,,,,,,,,,,,,,,,,,,,,,,,,,,,,,,,,,,,,,,,,,,,,,,,,,,"[""comma""]",0,[0.29930000001184],79,0,79,0,1,,
,,,,,,,,,,,,5f12d07e399eaf265643e907,41,Mężczyzna,2022-06-11_09h05.11.614,task,2021.1.4,Win32,60.46314771,6299f149e92ead563fba08ef,62a43e8c5269c417df62d4e1,,,,,,,,,,,,,,,,,,,,,,,,,,,,,,,,,,,,,,,,,,,,,,,,,,,,,,,,,,,,,,,,,,,,,,,,,,,,,,,,,,,,,,,,,,,,"[""comma""]",0,[0.14020000001789867],80,0,80,0,1,,
,,,,,,,,,,,,5f12d07e399eaf265643e907,41,Mężczyzna,2022-06-11_09h05.11.614,task,2021.1.4,Win32,60.46314771,6299f149e92ead563fba08ef,62a43e8c5269c417df62d4e1,,,,,,,,,,,,,,,,,,,,,,,,,,,,,,,,,,,,,,,,,,,,,,,,,,,,,,,,,,,,,,,,,,,,,,,,,,,,,,,,,,,,,,,,,,,,"[""comma""]",0,[-0.004200000017931416],81,0,81,0,1,,
,,,,,,,,,,,,5f12d07e399eaf265643e907,41,Mężczyzna,2022-06-11_09h05.11.614,task,2021.1.4,Win32,60.46314771,6299f149e92ead563fba08ef,62a43e8c5269c417df62d4e1,,,,,,,,,,,,,,,,,,,,,,,,,,,,,,,,,,,,,,,,,,,,,,,,,,,,,,,,,,,,,,,,,,,,,,,,,,,,,,,,,,,,,,,,,,,,"[""comma""]",0,[0.2685999999939668],82,0,82,0,1,,
,,,,,,,,,,,,5f12d07e399eaf265643e907,41,Mężczyzna,2022-06-11_09h05.11.614,task,2021.1.4,Win32,60.46314771,6299f149e92ead563fba08ef,62a43e8c5269c417df62d4e1,,,,,,,,,,,,,,,,,,,,,,,,,,,,,,,,,,,,,,,,,,,,,,,,,,,,,,,,,,,,,,,,,,,,,,,,,,,,,,,,,,,,,,,,,,,,"[""comma""]",0,[0.10830000001192275],83,0,83,0,1,,
,,,,,,,,,,,,5f12d07e399eaf265643e907,41,Mężczyzna,2022-06-11_09h05.11.614,task,2021.1.4,Win32,60.46314771,6299f149e92ead563fba08ef,62a43e8c5269c417df62d4e1,,,,,,,,,,,,,,,,,,,,,,,,,,,,,,,,,,,,,,,,,,,,,,,,,,,,,,,,,,,,,,,,,,,,,,,,,,,,,,,,,,,,,,,,,,,,"[""comma""]",0,[0.1089000000059741],84,0,84,0,1,,
,,,,,,,,,,,,5f12d07e399eaf265643e907,41,Mężczyzna,2022-06-11_09h05.11.614,task,2021.1.4,Win32,60.46314771,6299f149e92ead563fba08ef,62a43e8c5269c417df62d4e1,,,,,,,,,,,,,,,,,,,,,,,,,,,,,,,,,,,,,,,,,,,,,,,,,,,,,,,,,,,,,,,,,,,,,,,,,,,,,,,,,,,,,,,,,,,,"[""comma""]",0,[0.23699999999996635],85,0,85,0,1,,
,,,,,,,,,,,,5f12d07e399eaf265643e907,41,Mężczyzna,2022-06-11_09h05.11.614,task,2021.1.4,Win32,60.46314771,6299f149e92ead563fba08ef,62a43e8c5269c417df62d4e1,,,,,,,,,,,,,,,,,,,,,,,,,,,,,,,,,,,,,,,,,,,,,,,,,,,,,,,,,,,,,,,,,,,,,,,,,,,,,,,,,,,,,,,,,,,,"[""comma"",""period""]",0,"[0.1216000000239319,1.977300000011951]",86,0,86,0,1,,
,,,,,,,,,,,,5f12d07e399eaf265643e907,41,Mężczyzna,2022-06-11_09h05.11.614,task,2021.1.4,Win32,60.46314771,6299f149e92ead563fba08ef,62a43e8c5269c417df62d4e1,,,,,,,,,,,,,,,,,,,,,,,,,,,,,,,,,,,,,,,,,,,,,,,,,,,,,,,,,,,,,,,,,,,,,,,,,,,,,,,,,,,,,,,,,,,,,0,,87,0,87,0,1,,
,,,,,,,,,,,,5f12d07e399eaf265643e907,41,Mężczyzna,2022-06-11_09h05.11.614,task,2021.1.4,Win32,60.46314771,6299f149e92ead563fba08ef,62a43e8c5269c417df62d4e1,,,,,,,,,,,,,,,,,,,,,,,,,,,,,,,,,,,,,,,,,,,,,,,,,,,,,,,,,,,,,,,,,,,,,,,,,,,,,,,,,,,,,,,,,,,,"[""period""]",0,[0.17200000000002547],88,0,88,0,1,,
,,,,,,,,,,,,5f12d07e399eaf265643e907,41,Mężczyzna,2022-06-11_09h05.11.614,task,2021.1.4,Win32,60.46314771,6299f149e92ead563fba08ef,62a43e8c5269c417df62d4e1,,,,,,,,,,,,,,,,,,,,,,,,,,,,,,,,,,,,,,,,,,,,,,,,,,,,,,,,,,,,,,,,,,,,,,,,,,,,,,,,,,,,,,,,,,,,"[""comma""]",0,[0.17289999997615269],89,0,89,0,1,,
,,,,,,,,,,,,5f12d07e399eaf265643e907,41,Mężczyzna,2022-06-11_09h05.11.614,task,2021.1.4,Win32,60.46314771,6299f149e92ead563fba08ef,62a43e8c5269c417df62d4e1,,,,,,,,,,,,,,,,,,,,,,,,,,,,,,,,,,,,,,,,,,,,,,,,,,,,,,,,,,,,,,,,,,,,,,,,,,,,,,,,,,,,,,,,,,,,"[""period""]",0,[0.14080000001195003],90,0,90,0,1,,
,,,,,,,,,,,,5f12d07e399eaf265643e907,41,Mężczyzna,2022-06-11_09h05.11.614,task,2021.1.4,Win32,60.46314771,6299f149e92ead563fba08ef,62a43e8c5269c417df62d4e1,,,,,,,,,,,,,,,,,,,,,,,,,,,,,,,,,,,,,,,,,,,,,,,,,,,,,,,,,,,,,,,,,,,,,,,,,,,,,,,,,,,,,,,,,,,,"[""comma""]",0,[0.2047999999821286],91,0,91,0,1,,
,,,,,,,,,,,,5f12d07e399eaf265643e907,41,Mężczyzna,2022-06-11_09h05.11.614,task,2021.1.4,Win32,60.46314771,6299f149e92ead563fba08ef,62a43e8c5269c417df62d4e1,,,,,,,,,,,,,,,,,,,,,,,,,,,,,,,,,,,,,,,,,,,,,,,,,,,,,,,,,,,,,,,,,,,,,,,,,,,,,,,,,,,,,,,,,,,,"[""comma""]",0,[0.2219000000060305],92,0,92,0,1,,
,,,,,,,,,,,,5f12d07e399eaf265643e907,41,Mężczyzna,2022-06-11_09h05.11.614,task,2021.1.4,Win32,60.46314771,6299f149e92ead563fba08ef,62a43e8c5269c417df62d4e1,,,,,,,,,,,,,,,,,,,,,,,,,,,,,,,,,,,,,,,,,,,,,,,,,,,,,,,,,,,,,,,,,,,,,,,,,,,,,,,,,,,,,,,,,,,,"[""period""]",0,[0.3505000000000109],93,0,93,0,1,,
,,,,,,,,,,,,5f12d07e399eaf265643e907,41,Mężczyzna,2022-06-11_09h05.11.614,task,2021.1.4,Win32,60.46314771,6299f149e92ead563fba08ef,62a43e8c5269c417df62d4e1,,,,,,,,,,,,,,,,,,,,,,,,,,,,,,,,,,,,,,,,,,,,,,,,,,,,,,,,,,,,,,,,,,,,,,,,,,,,,,,,,,,,,,,,,,,,"[""period""]",0,[0.1570999999939886],94,0,94,0,1,,
,,,,,,,,,,,,5f12d07e399eaf265643e907,41,Mężczyzna,2022-06-11_09h05.11.614,task,2021.1.4,Win32,60.46314771,6299f149e92ead563fba08ef,62a43e8c5269c417df62d4e1,,,,,,,,,,,,,,,,,,,,,,,,,,,,,,,,,,,,,,,,,,,,,,,,,,,,,,,,,,,,,,,,,,,,,,,,,,,,,,,,,,,,,,,,,,,,"[""comma""]",0,[0.17300000000000182],95,0,95,0,1,,
,,,,,,,,,,,,5f12d07e399eaf265643e907,41,Mężczyzna,2022-06-11_09h05.11.614,task,2021.1.4,Win32,60.46314771,6299f149e92ead563fba08ef,62a43e8c5269c417df62d4e1,,,,,,,,,,,,,,,,,,,,,,,,,,,,,,,,,,,,,,,,,,,,,,,,,,,,,,,,,,,,,,,,,,,,,,,,,,,,,,,,,,,,,,,,,,,,"[""period""]",0,[0.060799999982123154],96,0,96,0,1,,
,,,,,,,,,,,,5f12d07e399eaf265643e907,41,Mężczyzna,2022-06-11_09h05.11.614,task,2021.1.4,Win32,60.46314771,6299f149e92ead563fba08ef,62a43e8c5269c417df62d4e1,,,,,,,,,,,,,,,,,,,,,,,,,,,,,,,,,,,,,,,,,,,,,,,,,,,,,,,,,,,,,,,,,,,,,,,,,,,,,,,,,,,,,,,,,,,,"[""comma""]",0,[0.09320000001787321],97,0,97,0,1,,
,,,,,,,,,,,,5f12d07e399eaf265643e907,41,Mężczyzna,2022-06-11_09h05.11.614,task,2021.1.4,Win32,60.46314771,6299f149e92ead563fba08ef,62a43e8c5269c417df62d4e1,,,,,,,,,,,,,,,,,,,,,,,,,,,,,,,,,,,,,,,,,,,,,,,,,,,,,,,,,,,,,,,,,,,,,,,,,,,,,,,,,,,,,,,,,,,,"[""comma"",""comma""]",0,"[0.09280000001183453,1.3414999999999964]",98,0,98,0,1,,
,,,,,,,,,,,,5f12d07e399eaf265643e907,41,Mężczyzna,2022-06-11_09h05.11.614,task,2021.1.4,Win32,60.46314771,6299f149e92ead563fba08ef,62a43e8c5269c417df62d4e1,,,,,,,,,,,,,,,,,,,,,,,,,,,,,,,,,,,,,,,,,,,,,,,,,,,,,,,,,,,,,,,,,,,,,,,,,,,,,,,,,,,,,,,,,,,,"[""comma""]",0,[0.6380000000000337],99,0,99,0,1,,
,,,,,,,,,,,,5f12d07e399eaf265643e907,41,Mężczyzna,2022-06-11_09h05.11.614,task,2021.1.4,Win32,60.46314771,6299f149e92ead563fba08ef,62a43e8c5269c417df62d4e1,,,,,,,,,,,,,,,,,,,,,,,,,,,,,,,,,,,,,,,,,,,,,,,,,,,,,,,,,,,,,,,,,,,,,,,,,,,,,,,,,,,,,,,,,,,,"[""comma""]",0,[0.3372000000179014],100,0,100,0,1,,
,,,,,,,,,,,,5f12d07e399eaf265643e907,41,Mężczyzna,2022-06-11_09h05.11.614,task,2021.1.4,Win32,60.46314771,6299f149e92ead563fba08ef,62a43e8c5269c417df62d4e1,,,,,,,,,,,,,,,,,,,,,,,,,,,,,,,,,,,,,,,,,,,,,,,,,,,,,,,,,,,,,,,,,,,,,,,,,,,,,,,,,,,,,,,,,,,,"[""comma""]",0,[0.22009999999409047],101,0,101,0,1,,
,,,,,,,,,,,,5f12d07e399eaf265643e907,41,Mężczyzna,2022-06-11_09h05.11.614,task,2021.1.4,Win32,60.46314771,6299f149e92ead563fba08ef,62a43e8c5269c417df62d4e1,,,,,,,,,,,,,,,,,,,,,,,,,,,,,,,,,,,,,,,,,,,,,,,,,,,,,,,,,,,,,,,,,,,,,,,,,,,,,,,,,,,,,,,,,,,,"[""period""]",0,[0.22140000000604232],102,0,102,0,1,,
,,,,,,,,,,,,5f12d07e399eaf265643e907,41,Mężczyzna,2022-06-11_09h05.11.614,task,2021.1.4,Win32,60.46314771,6299f149e92ead563fba08ef,62a43e8c5269c417df62d4e1,,,,,,,,,,,,,,,,,,,,,,,,,,,,,,,,,,,,,,,,,,,,,,,,,,,,,,,,,,,,,,,,,,,,,,,,,,,,,,,,,,,,,,,,,,,,"[""comma""]",0,[0.26989999997624636],103,0,103,0,1,,
,,,,,,,,,,,,5f12d07e399eaf265643e907,41,Mężczyzna,2022-06-11_09h05.11.614,task,2021.1.4,Win32,60.46314771,6299f149e92ead563fba08ef,62a43e8c5269c417df62d4e1,,,,,,,,,,,,,,,,,,,,,,,,,,,,,,,,,,,,,,,,,,,,,,,,,,,,,,,,,,,,,,,,,,,,,,,,,,,,,,,,,,,,,,,,,,,,"[""period""]",0,[0.25299999999992906],104,0,104,0,1,,
,,,,,,,,,,,,5f12d07e399eaf265643e907,41,Mężczyzna,2022-06-11_09h05.11.614,task,2021.1.4,Win32,60.46314771,6299f149e92ead563fba08ef,62a43e8c5269c417df62d4e1,,,,,,,,,,,,,,,,,,,,,,,,,,,,,,,,,,,,,,,,,,,,,,,,,,,,,,,,,,,,,,,,,,,,,,,,,,,,,,,,,,,,,,,,,,,,"[""comma""]",0,[0.2699000000060323],105,0,105,0,1,,
,,,,,,,,,,,,5f12d07e399eaf265643e907,41,Mężczyzna,2022-06-11_09h05.11.614,task,2021.1.4,Win32,60.46314771,6299f149e92ead563fba08ef,62a43e8c5269c417df62d4e1,,,,,,,,,,,,,,,,,,,,,,,,,,,,,,,,,,,,,,,,,,,,,,,,,,,,,,,,,,,,,,,,,,,,,,,,,,,,,,,,,,,,,,,,,,,,"[""period"",""comma""]",0,"[0.15800000000001546,1.885900000005904]",106,0,106,0,1,,
,,,,,,,,,,,,5f12d07e399eaf265643e907,41,Mężczyzna,2022-06-11_09h05.11.614,task,2021.1.4,Win32,60.46314771,6299f149e92ead563fba08ef,62a43e8c5269c417df62d4e1,,,,,,,,,,,,,,,,,,,,,,,,,,,,,,,,,,,,,,,,,,,,,,,,,,,,,,,,,,,,,,,,,,,,,,,,,,,,,,,,,,,,,,,,,,,,,0,,107,0,107,0,1,,
,,,,,,,,,,,,5f12d07e399eaf265643e907,41,Mężczyzna,2022-06-11_09h05.11.614,task,2021.1.4,Win32,60.46314771,6299f149e92ead563fba08ef,62a43e8c5269c417df62d4e1,,,,,,,,,,,,,,,,,,,,,,,,,,,,,,,,,,,,,,,,,,,,,,,,,,,,,,,,,,,,,,,,,,,,,,,,,,,,,,,,,,,,,,,,,,,,"[""comma"",""comma""]",0,"[0.2540000000000191,1.9674999999999727]",108,0,108,0,1,,
,,,,,,,,,,,,5f12d07e399eaf265643e907,41,Mężczyzna,2022-06-11_09h05.11.614,task,2021.1.4,Win32,60.46314771,6299f149e92ead563fba08ef,62a43e8c5269c417df62d4e1,,,,,,,,,,,,,,,,,,,,,,,,,,,,,,,,,,,,,,,,,,,,,,,,,,,,,,,,,,,,,,,,,,,,,,,,,,,,,,,,,,,,,,,,,,,,"[""comma""]",0,[1.8859000000060178],109,0,109,0,1,,
,,,,,,,,,,,,5f12d07e399eaf265643e907,41,Mężczyzna,2022-06-11_09h05.11.614,task,2021.1.4,Win32,60.46314771,6299f149e92ead563fba08ef,62a43e8c5269c417df62d4e1,,,,,,,,,,,,,,,,,,,,,,,,,,,,,,,,,,,,,,,,,,,,,,,,,,,,,,,,,,,,,,,,,,,,,,,,,,,,,,,,,,,,,,,,,,,,,0,,110,0,110,0,1,,
,,,,,,,,,,,,5f12d07e399eaf265643e907,41,Mężczyzna,2022-06-11_09h05.11.614,task,2021.1.4,Win32,60.46314771,6299f149e92ead563fba08ef,62a43e8c5269c417df62d4e1,,,,,,,,,,,,,,,,,,,,,,,,,,,,,,,,,,,,,,,,,,,,,,,,,,,,,,,,,,,,,,,,,,,,,,,,,,,,,,,,,,,,,,,,,,,,"[""period""]",0,[-0.002300000011928205],111,0,111,0,1,,
,,,,,,,,,,,,5f12d07e399eaf265643e907,41,Mężczyzna,2022-06-11_09h05.11.614,task,2021.1.4,Win32,60.46314771,6299f149e92ead563fba08ef,62a43e8c5269c417df62d4e1,,,,,,,,,,,,,,,,,,,,,,,,,,,,,,,,,,,,,,,,,,,,,,,,,,,,,,,,,,,,,,,,,,,,,,,,,,,,,,,,,,,,,,,,,,,,,0,,112,0,112,0,1,,
,,,,,,,,,,,,5f12d07e399eaf265643e907,41,Mężczyzna,2022-06-11_09h05.11.614,task,2021.1.4,Win32,60.46314771,6299f149e92ead563fba08ef,62a43e8c5269c417df62d4e1,,,,,,,,,,,,,,,,,,,,,,,,,,,,,,,,,,,,,,,,,,,,,,,,,,,,,,,,,,,,,,,,,,,,,,,,,,,,,,,,,,,,,,,,,,,,"[""period""]",0,[0.04709999999408865],113,0,113,0,1,,
,,,,,,,,,,,,5f12d07e399eaf265643e907,41,Mężczyzna,2022-06-11_09h05.11.614,task,2021.1.4,Win32,60.46314771,6299f149e92ead563fba08ef,62a43e8c5269c417df62d4e1,,,,,,,,,,,,,,,,,,,,,,,,,,,,,,,,,,,,,,,,,,,,,,,,,,,,,,,,,,,,,,,,,,,,,,,,,,,,,,,,,,,,,,,,,,,,"[""period""]",0,[0.23789999997620725],114,0,114,0,1,,
,,,,,,,,,,,,5f12d07e399eaf265643e907,41,Mężczyzna,2022-06-11_09h05.11.614,task,2021.1.4,Win32,60.46314771,6299f149e92ead563fba08ef,62a43e8c5269c417df62d4e1,,,,,,,,,,,,,,,,,,,,,,,,,,,,,,,,,,,,,,,,,,,,,,,,,,,,,,,,,,,,,,,,,,,,,,,,,,,,,,,,,,,,,,,,,,,,"[""period""]",0,[0.38260000002378547],115,0,115,0,1,,
,,,,,,,,,,,,5f12d07e399eaf265643e907,41,Mężczyzna,2022-06-11_09h05.11.614,task,2021.1.4,Win32,60.46314771,6299f149e92ead563fba08ef,62a43e8c5269c417df62d4e1,,,,,,,,,,,,,,,,,,,,,,,,,,,,,,,,,,,,,,,,,,,,,,,,,,,,,,,,,,,,,,,,,,,,,,,,,,,,,,,,,,,,,,,,,,,,"[""period""]",0,[0.18809999999405136],116,0,116,0,1,,
,,,,,,,,,,,,5f12d07e399eaf265643e907,41,Mężczyzna,2022-06-11_09h05.11.614,task,2021.1.4,Win32,60.46314771,6299f149e92ead563fba08ef,62a43e8c5269c417df62d4e1,,,,,,,,,,,,,,,,,,,,,,,,,,,,,,,,,,,,,,,,,,,,,,,,,,,,,,,,,,,,,,,,,,,,,,,,,,,,,,,,,,,,,,,,,,,,"[""comma""]",0,[0.3825999999939995],117,0,117,0,1,,
,,,,,,,,,,,,5f12d07e399eaf265643e907,41,Mężczyzna,2022-06-11_09h05.11.614,task,2021.1.4,Win32,60.46314771,6299f149e92ead563fba08ef,62a43e8c5269c417df62d4e1,,,,,,,,,,,,,,,,,,,,,,,,,,,,,,,,,,,,,,,,,,,,,,,,,,,,,,,,,,,,,,,,,,,,,,,,,,,,,,,,,,,,,,,,,,,,"[""period""]",0,[0.14199999999993906],118,0,118,0,1,,
,,,,,,,,,,,,5f12d07e399eaf265643e907,41,Mężczyzna,2022-06-11_09h05.11.614,task,2021.1.4,Win32,60.46314771,6299f149e92ead563fba08ef,62a43e8c5269c417df62d4e1,,,,,,,,,,,,,,,,,,,,,,,,,,,,,,,,,,,,,,,,,,,,,,,,,,,,,,,,,,,,,,,,,,,,,,,,,,,,,,,,,,,,,,,,,,,,"[""period""]",0,[0.07790000000591135],119,0,119,0,1,,
,,,,,,,,,,,,5f12d07e399eaf265643e907,41,Mężczyzna,2022-06-11_09h05.11.614,task,2021.1.4,Win32,60.46314771,6299f149e92ead563fba08ef,62a43e8c5269c417df62d4e1,,,,,,,,,,,,,,,,,,,,,,,,,,,,,,,,,,,,,,,,,,,,,,,,,,,,,,,,,,,,,,,,,,,,,,,,,,,,,,,,,,,,,,,,,,,,,,,,,,,,space,3.175
