key_resp_15.keys,key_resp_15.rt,key_resp_16.keys,key_resp_16.rt,key_resp_4.keys,key_resp_4.rt,next_letter.thisRepN,next_letter.thisTrialN,next_letter.thisN,next_letter.thisIndex,next_letter.ran,letter,participant,Wiek*,Płeć,date,expName,psychopyVersion,OS,frameRate,study_id,session,simple_recall,key_resp_5.keys,key_resp_5.rt,simple_recall_corr,simple_recall_corrkeys,next_level.thisRepN,next_level.thisTrialN,next_level.thisN,next_level.thisIndex,next_level.ran,key_resp_2.keys,key_resp_2.rt,digit_answer,key_resp.keys,key_resp.corr,key_resp.rt,RT_list,next_equation.thisRepN,next_equation.thisTrialN,next_equation.thisN,next_equation.thisIndex,next_equation.ran,Task,Trial,Problem,Operation_answer,processing_score,sumRT,meanRT,sumdiff,sd,RT,key_resp_3.keys,key_resp_3.rt,repeat_practice.thisRepN,repeat_practice.thisTrialN,repeat_practice.thisN,repeat_practice.thisIndex,repeat_practice.ran,key_resp_6.keys,key_resp_6.rt,key_resp_11.keys,key_resp_11.corr,key_resp_11.rt,operation_correct,repeat_if_wrong_prac.thisRepN,repeat_if_wrong_prac.thisTrialN,repeat_if_wrong_prac.thisN,repeat_if_wrong_prac.thisIndex,repeat_if_wrong_prac.ran,span_size_prac.thisRepN,span_size_prac.thisTrialN,span_size_prac.thisN,span_size_prac.thisIndex,span_size_prac.ran,complex_recall_practice,key_resp_9.keys,key_resp_9.corr,key_resp_9.rt,complex_prac_corr,span_recall_prac.thisRepN,span_recall_prac.thisTrialN,span_recall_prac.thisN,span_recall_prac.thisIndex,span_recall_prac.ran,key_resp_10.keys,key_resp_10.rt,key_resp_7.keys,key_resp_7.corr,key_resp_7.rt,repeat_if_wrong.thisRepN,repeat_if_wrong.thisTrialN,repeat_if_wrong.thisN,repeat_if_wrong.thisIndex,repeat_if_wrong.ran,span_size.thisRepN,span_size.thisTrialN,span_size.thisN,span_size.thisIndex,span_size.ran,complex_recall,key_resp_8.keys,key_resp_8.corr,key_resp_8.rt,complex_recall_corr,complex_recall_corrkeys,span_recall.thisRepN,span_recall.thisTrialN,span_recall.thisN,span_recall.thisIndex,span_recall.ran,key_resp_13.keys,key_resp_13.corr,random_loop.thisRepN,random_loop.thisTrialN,random_loop.thisN,random_loop.thisIndex,random_loop.ran,key_resp_13.rt,key_resp_12.keys,key_resp_12.rt
space,22.8608,space,7.4461,space,21.4803,0,0,0,0,1,X V Q F H G B L J M P D K C T S W R N Z,5f14a79820f9ef0a1e664d21,26,Mężczyzna,2022-06-11_09h21.41.984,task,2021.1.4,Win32,60.04924038,6299f149e92ead563fba08ef,62a441b89f8d1c2ad8d6ddd4,,,,,,,,,,,,,,,,,,,,,,,,,,,,,,,,,,,,,,,,,,,,,,,,,,,,,,,,,,,,,,,,,,,,,,,,,,,,,,,,,,,,,,,,,,,,,,,,,,,,,
,,,,,,1,0,1,0,1,X V Q F H G B L J M P D K C T S W R N Z,5f14a79820f9ef0a1e664d21,26,Mężczyzna,2022-06-11_09h21.41.984,task,2021.1.4,Win32,60.04924038,6299f149e92ead563fba08ef,62a441b89f8d1c2ad8d6ddd4,,,,,,,,,,,,,,,,,,,,,,,,,,,,,,,,,,,,,,,,,,,,,,,,,,,,,,,,,,,,,,,,,,,,,,,,,,,,,,,,,,,,,,,,,,,,,,,,,,,,,
,,,,,,,,,,,,5f14a79820f9ef0a1e664d21,26,Mężczyzna,2022-06-11_09h21.41.984,task,2021.1.4,Win32,60.04924038,6299f149e92ead563fba08ef,62a441b89f8d1c2ad8d6ddd4,zg,"[""z"",""g""]","[2.246799999999979,2.971999999999994,3.462799999999987]",1,ZG,0,0,0,0,1,,,,,,,,,,,,,,,,,,,,,,,,,,,,,,,,,,,,,,,,,,,,,,,,,,,,,,,,,,,,,,,,,,,,,,,,,,,,,,,,,,,,,,,,,,,
,,,,,,0,0,0,0,1,X V Q F H G B L J M P D K C T S W R N Z,5f14a79820f9ef0a1e664d21,26,Mężczyzna,2022-06-11_09h21.41.984,task,2021.1.4,Win32,60.04924038,6299f149e92ead563fba08ef,62a441b89f8d1c2ad8d6ddd4,,,,,,,,,,,,,,,,,,,,,,,,,,,,,,,,,,,,,,,,,,,,,,,,,,,,,,,,,,,,,,,,,,,,,,,,,,,,,,,,,,,,,,,,,,,,,,,,,,,,,
,,,,,,1,0,1,0,1,X V Q F H G B L J M P D K C T S W R N Z,5f14a79820f9ef0a1e664d21,26,Mężczyzna,2022-06-11_09h21.41.984,task,2021.1.4,Win32,60.04924038,6299f149e92ead563fba08ef,62a441b89f8d1c2ad8d6ddd4,,,,,,,,,,,,,,,,,,,,,,,,,,,,,,,,,,,,,,,,,,,,,,,,,,,,,,,,,,,,,,,,,,,,,,,,,,,,,,,,,,,,,,,,,,,,,,,,,,,,,
,,,,,,,,,,,,5f14a79820f9ef0a1e664d21,26,Mężczyzna,2022-06-11_09h21.41.984,task,2021.1.4,Win32,60.04924038,6299f149e92ead563fba08ef,62a441b89f8d1c2ad8d6ddd4,cv,"[""c"",""v""]","[0.6248999999999825,0.7398999999999916,1.3907999999999845]",1,CV,1,0,1,0,1,,,,,,,,,,,,,,,,,,,,,,,,,,,,,,,,,,,,,,,,,,,,,,,,,,,,,,,,,,,,,,,,,,,,,,,,,,,,,,,,,,,,,,,,,,,
,,,,,,0,0,0,0,1,X V Q F H G B L J M P D K C T S W R N Z,5f14a79820f9ef0a1e664d21,26,Mężczyzna,2022-06-11_09h21.41.984,task,2021.1.4,Win32,60.04924038,6299f149e92ead563fba08ef,62a441b89f8d1c2ad8d6ddd4,,,,,,,,,,,,,,,,,,,,,,,,,,,,,,,,,,,,,,,,,,,,,,,,,,,,,,,,,,,,,,,,,,,,,,,,,,,,,,,,,,,,,,,,,,,,,,,,,,,,,
,,,,,,1,0,1,0,1,X V Q F H G B L J M P D K C T S W R N Z,5f14a79820f9ef0a1e664d21,26,Mężczyzna,2022-06-11_09h21.41.984,task,2021.1.4,Win32,60.04924038,6299f149e92ead563fba08ef,62a441b89f8d1c2ad8d6ddd4,,,,,,,,,,,,,,,,,,,,,,,,,,,,,,,,,,,,,,,,,,,,,,,,,,,,,,,,,,,,,,,,,,,,,,,,,,,,,,,,,,,,,,,,,,,,,,,,,,,,,
,,,,,,2,0,2,0,1,X V Q F H G B L J M P D K C T S W R N Z,5f14a79820f9ef0a1e664d21,26,Mężczyzna,2022-06-11_09h21.41.984,task,2021.1.4,Win32,60.04924038,6299f149e92ead563fba08ef,62a441b89f8d1c2ad8d6ddd4,,,,,,,,,,,,,,,,,,,,,,,,,,,,,,,,,,,,,,,,,,,,,,,,,,,,,,,,,,,,,,,,,,,,,,,,,,,,,,,,,,,,,,,,,,,,,,,,,,,,,
,,,,,,,,,,,,5f14a79820f9ef0a1e664d21,26,Mężczyzna,2022-06-11_09h21.41.984,task,2021.1.4,Win32,60.04924038,6299f149e92ead563fba08ef,62a441b89f8d1c2ad8d6ddd4,nlx,"[""n"",""l"",""x""]","[0.9006999999999721,1.0155999999999779,1.3975999999999686,1.913899999999984]",1,NLX,2,0,2,0,1,,,,,,,,,,,,,,,,,,,,,,,,,,,,,,,,,,,,,,,,,,,,,,,,,,,,,,,,,,,,,,,,,,,,,,,,,,,,,,,,,,,,,,,,,,,
,,,,,,0,0,0,0,1,X V Q F H G B L J M P D K C T S W R N Z,5f14a79820f9ef0a1e664d21,26,Mężczyzna,2022-06-11_09h21.41.984,task,2021.1.4,Win32,60.04924038,6299f149e92ead563fba08ef,62a441b89f8d1c2ad8d6ddd4,,,,,,,,,,,,,,,,,,,,,,,,,,,,,,,,,,,,,,,,,,,,,,,,,,,,,,,,,,,,,,,,,,,,,,,,,,,,,,,,,,,,,,,,,,,,,,,,,,,,,
,,,,,,1,0,1,0,1,X V Q F H G B L J M P D K C T S W R N Z,5f14a79820f9ef0a1e664d21,26,Mężczyzna,2022-06-11_09h21.41.984,task,2021.1.4,Win32,60.04924038,6299f149e92ead563fba08ef,62a441b89f8d1c2ad8d6ddd4,,,,,,,,,,,,,,,,,,,,,,,,,,,,,,,,,,,,,,,,,,,,,,,,,,,,,,,,,,,,,,,,,,,,,,,,,,,,,,,,,,,,,,,,,,,,,,,,,,,,,
,,,,,,2,0,2,0,1,X V Q F H G B L J M P D K C T S W R N Z,5f14a79820f9ef0a1e664d21,26,Mężczyzna,2022-06-11_09h21.41.984,task,2021.1.4,Win32,60.04924038,6299f149e92ead563fba08ef,62a441b89f8d1c2ad8d6ddd4,,,,,,,,,,,,,,,,,,,,,,,,,,,,,,,,,,,,,,,,,,,,,,,,,,,,,,,,,,,,,,,,,,,,,,,,,,,,,,,,,,,,,,,,,,,,,,,,,,,,,
,,,,,,,,,,,,5f14a79820f9ef0a1e664d21,26,Mężczyzna,2022-06-11_09h21.41.984,task,2021.1.4,Win32,60.04924038,6299f149e92ead563fba08ef,62a441b89f8d1c2ad8d6ddd4,mfd,"[""m"",""f"",""d""]","[0.9182999999999879,1.302899999999994,1.547600000000017,1.9210999999999814]",1,MFD,3,0,3,0,1,,,,,,,,,,,,,,,,,,,,,,,,,,,,,,,,,,,,,,,,,,,,,,,,,,,,,,,,,,,,,,,,,,,,,,,,,,,,,,,,,,,,,,,,,,,
,,,,,,0,0,0,0,1,X V Q F H G B L J M P D K C T S W R N Z,5f14a79820f9ef0a1e664d21,26,Mężczyzna,2022-06-11_09h21.41.984,task,2021.1.4,Win32,60.04924038,6299f149e92ead563fba08ef,62a441b89f8d1c2ad8d6ddd4,,,,,,,,,,,,,,,,,,,,,,,,,,,,,,,,,,,,,,,,,,,,,,,,,,,,,,,,,,,,,,,,,,,,,,,,,,,,,,,,,,,,,,,,,,,,,,,,,,,,,
,,,,,,1,0,1,0,1,X V Q F H G B L J M P D K C T S W R N Z,5f14a79820f9ef0a1e664d21,26,Mężczyzna,2022-06-11_09h21.41.984,task,2021.1.4,Win32,60.04924038,6299f149e92ead563fba08ef,62a441b89f8d1c2ad8d6ddd4,,,,,,,,,,,,,,,,,,,,,,,,,,,,,,,,,,,,,,,,,,,,,,,,,,,,,,,,,,,,,,,,,,,,,,,,,,,,,,,,,,,,,,,,,,,,,,,,,,,,,
,,,,,,2,0,2,0,1,X V Q F H G B L J M P D K C T S W R N Z,5f14a79820f9ef0a1e664d21,26,Mężczyzna,2022-06-11_09h21.41.984,task,2021.1.4,Win32,60.04924038,6299f149e92ead563fba08ef,62a441b89f8d1c2ad8d6ddd4,,,,,,,,,,,,,,,,,,,,,,,,,,,,,,,,,,,,,,,,,,,,,,,,,,,,,,,,,,,,,,,,,,,,,,,,,,,,,,,,,,,,,,,,,,,,,,,,,,,,,
,,,,,,3,0,3,0,1,X V Q F H G B L J M P D K C T S W R N Z,5f14a79820f9ef0a1e664d21,26,Mężczyzna,2022-06-11_09h21.41.984,task,2021.1.4,Win32,60.04924038,6299f149e92ead563fba08ef,62a441b89f8d1c2ad8d6ddd4,,,,,,,,,,,,,,,,,,,,,,,,,,,,,,,,,,,,,,,,,,,,,,,,,,,,,,,,,,,,,,,,,,,,,,,,,,,,,,,,,,,,,,,,,,,,,,,,,,,,,
,,,,,,,,,,,,5f14a79820f9ef0a1e664d21,26,Mężczyzna,2022-06-11_09h21.41.984,task,2021.1.4,Win32,60.04924038,6299f149e92ead563fba08ef,62a441b89f8d1c2ad8d6ddd4,twlg,"[""t"",""w"",""l"",""g""]","[0.9980999999999653,1.3280999999999636,1.8998999999999597,2.342399999999955,2.753]",1,TWLG,4,0,4,0,1,,,,,,,,,,,,,,,,,,,,,,,,,,,,,,,,,,,,,,,,,,,,,,,,,,,,,,,,,,,,,,,,,,,,,,,,,,,,,,,,,,,,,,,,,,,
,,,,,,0,0,0,0,1,X V Q F H G B L J M P D K C T S W R N Z,5f14a79820f9ef0a1e664d21,26,Mężczyzna,2022-06-11_09h21.41.984,task,2021.1.4,Win32,60.04924038,6299f149e92ead563fba08ef,62a441b89f8d1c2ad8d6ddd4,,,,,,,,,,,,,,,,,,,,,,,,,,,,,,,,,,,,,,,,,,,,,,,,,,,,,,,,,,,,,,,,,,,,,,,,,,,,,,,,,,,,,,,,,,,,,,,,,,,,,
,,,,,,1,0,1,0,1,X V Q F H G B L J M P D K C T S W R N Z,5f14a79820f9ef0a1e664d21,26,Mężczyzna,2022-06-11_09h21.41.984,task,2021.1.4,Win32,60.04924038,6299f149e92ead563fba08ef,62a441b89f8d1c2ad8d6ddd4,,,,,,,,,,,,,,,,,,,,,,,,,,,,,,,,,,,,,,,,,,,,,,,,,,,,,,,,,,,,,,,,,,,,,,,,,,,,,,,,,,,,,,,,,,,,,,,,,,,,,
,,,,,,2,0,2,0,1,X V Q F H G B L J M P D K C T S W R N Z,5f14a79820f9ef0a1e664d21,26,Mężczyzna,2022-06-11_09h21.41.984,task,2021.1.4,Win32,60.04924038,6299f149e92ead563fba08ef,62a441b89f8d1c2ad8d6ddd4,,,,,,,,,,,,,,,,,,,,,,,,,,,,,,,,,,,,,,,,,,,,,,,,,,,,,,,,,,,,,,,,,,,,,,,,,,,,,,,,,,,,,,,,,,,,,,,,,,,,,
,,,,,,3,0,3,0,1,X V Q F H G B L J M P D K C T S W R N Z,5f14a79820f9ef0a1e664d21,26,Mężczyzna,2022-06-11_09h21.41.984,task,2021.1.4,Win32,60.04924038,6299f149e92ead563fba08ef,62a441b89f8d1c2ad8d6ddd4,,,,,,,,,,,,,,,,,,,,,,,,,,,,,,,,,,,,,,,,,,,,,,,,,,,,,,,,,,,,,,,,,,,,,,,,,,,,,,,,,,,,,,,,,,,,,,,,,,,,,
,,,,,,,,,,,,5f14a79820f9ef0a1e664d21,26,Mężczyzna,2022-06-11_09h21.41.984,task,2021.1.4,Win32,60.04924038,6299f149e92ead563fba08ef,62a441b89f8d1c2ad8d6ddd4,pqjj,"[""p"",""q"",""j"",""j""]","[0.9656999999999556,1.765299999999982,2.3315999999999804,2.4650000000000034,3.09639999999996]",1,PQJJ,5,0,5,0,1,,,,,,,,,,,,,,,,,,,,,,,,,,,,,,,,,,,,,,,,,,,,,,,,,,,,,,,,,,,,,,,,,,,,,,,,,,,,,,,,,,,,,,,,,,,
,,,,,,0,0,0,0,1,X V Q F H G B L J M P D K C T S W R N Z,5f14a79820f9ef0a1e664d21,26,Mężczyzna,2022-06-11_09h21.41.984,task,2021.1.4,Win32,60.04924038,6299f149e92ead563fba08ef,62a441b89f8d1c2ad8d6ddd4,,,,,,,,,,,,,,,,,,,,,,,,,,,,,,,,,,,,,,,,,,,,,,,,,,,,,,,,,,,,,,,,,,,,,,,,,,,,,,,,,,,,,,,,,,,,,,,,,,,,,
,,,,,,1,0,1,0,1,X V Q F H G B L J M P D K C T S W R N Z,5f14a79820f9ef0a1e664d21,26,Mężczyzna,2022-06-11_09h21.41.984,task,2021.1.4,Win32,60.04924038,6299f149e92ead563fba08ef,62a441b89f8d1c2ad8d6ddd4,,,,,,,,,,,,,,,,,,,,,,,,,,,,,,,,,,,,,,,,,,,,,,,,,,,,,,,,,,,,,,,,,,,,,,,,,,,,,,,,,,,,,,,,,,,,,,,,,,,,,
,,,,,,2,0,2,0,1,X V Q F H G B L J M P D K C T S W R N Z,5f14a79820f9ef0a1e664d21,26,Mężczyzna,2022-06-11_09h21.41.984,task,2021.1.4,Win32,60.04924038,6299f149e92ead563fba08ef,62a441b89f8d1c2ad8d6ddd4,,,,,,,,,,,,,,,,,,,,,,,,,,,,,,,,,,,,,,,,,,,,,,,,,,,,,,,,,,,,,,,,,,,,,,,,,,,,,,,,,,,,,,,,,,,,,,,,,,,,,
,,,,,,3,0,3,0,1,X V Q F H G B L J M P D K C T S W R N Z,5f14a79820f9ef0a1e664d21,26,Mężczyzna,2022-06-11_09h21.41.984,task,2021.1.4,Win32,60.04924038,6299f149e92ead563fba08ef,62a441b89f8d1c2ad8d6ddd4,,,,,,,,,,,,,,,,,,,,,,,,,,,,,,,,,,,,,,,,,,,,,,,,,,,,,,,,,,,,,,,,,,,,,,,,,,,,,,,,,,,,,,,,,,,,,,,,,,,,,
,,,,,,4,0,4,0,1,X V Q F H G B L J M P D K C T S W R N Z,5f14a79820f9ef0a1e664d21,26,Mężczyzna,2022-06-11_09h21.41.984,task,2021.1.4,Win32,60.04924038,6299f149e92ead563fba08ef,62a441b89f8d1c2ad8d6ddd4,,,,,,,,,,,,,,,,,,,,,,,,,,,,,,,,,,,,,,,,,,,,,,,,,,,,,,,,,,,,,,,,,,,,,,,,,,,,,,,,,,,,,,,,,,,,,,,,,,,,,
,,,,,,,,,,,,5f14a79820f9ef0a1e664d21,26,Mężczyzna,2022-06-11_09h21.41.984,task,2021.1.4,Win32,60.04924038,6299f149e92ead563fba08ef,62a441b89f8d1c2ad8d6ddd4,dbhhw,"[""d"",""b"",""h"",""h"",""w""]","[1.4841000000000406,2.1962999999999937,2.7286000000000428,2.9202999999999975,3.284700000000015,3.970000000000013]",1,DBHHW,6,0,6,0,1,,,,,,,,,,,,,,,,,,,,,,,,,,,,,,,,,,,,,,,,,,,,,,,,,,,,,,,,,,,,,,,,,,,,,,,,,,,,,,,,,,,,,,,,,,,
,,,,,,0,0,0,0,1,X V Q F H G B L J M P D K C T S W R N Z,5f14a79820f9ef0a1e664d21,26,Mężczyzna,2022-06-11_09h21.41.984,task,2021.1.4,Win32,60.04924038,6299f149e92ead563fba08ef,62a441b89f8d1c2ad8d6ddd4,,,,,,,,,,,,,,,,,,,,,,,,,,,,,,,,,,,,,,,,,,,,,,,,,,,,,,,,,,,,,,,,,,,,,,,,,,,,,,,,,,,,,,,,,,,,,,,,,,,,,
,,,,,,1,0,1,0,1,X V Q F H G B L J M P D K C T S W R N Z,5f14a79820f9ef0a1e664d21,26,Mężczyzna,2022-06-11_09h21.41.984,task,2021.1.4,Win32,60.04924038,6299f149e92ead563fba08ef,62a441b89f8d1c2ad8d6ddd4,,,,,,,,,,,,,,,,,,,,,,,,,,,,,,,,,,,,,,,,,,,,,,,,,,,,,,,,,,,,,,,,,,,,,,,,,,,,,,,,,,,,,,,,,,,,,,,,,,,,,
,,,,,,2,0,2,0,1,X V Q F H G B L J M P D K C T S W R N Z,5f14a79820f9ef0a1e664d21,26,Mężczyzna,2022-06-11_09h21.41.984,task,2021.1.4,Win32,60.04924038,6299f149e92ead563fba08ef,62a441b89f8d1c2ad8d6ddd4,,,,,,,,,,,,,,,,,,,,,,,,,,,,,,,,,,,,,,,,,,,,,,,,,,,,,,,,,,,,,,,,,,,,,,,,,,,,,,,,,,,,,,,,,,,,,,,,,,,,,
,,,,,,3,0,3,0,1,X V Q F H G B L J M P D K C T S W R N Z,5f14a79820f9ef0a1e664d21,26,Mężczyzna,2022-06-11_09h21.41.984,task,2021.1.4,Win32,60.04924038,6299f149e92ead563fba08ef,62a441b89f8d1c2ad8d6ddd4,,,,,,,,,,,,,,,,,,,,,,,,,,,,,,,,,,,,,,,,,,,,,,,,,,,,,,,,,,,,,,,,,,,,,,,,,,,,,,,,,,,,,,,,,,,,,,,,,,,,,
,,,,,,4,0,4,0,1,X V Q F H G B L J M P D K C T S W R N Z,5f14a79820f9ef0a1e664d21,26,Mężczyzna,2022-06-11_09h21.41.984,task,2021.1.4,Win32,60.04924038,6299f149e92ead563fba08ef,62a441b89f8d1c2ad8d6ddd4,,,,,,,,,,,,,,,,,,,,,,,,,,,,,,,,,,,,,,,,,,,,,,,,,,,,,,,,,,,,,,,,,,,,,,,,,,,,,,,,,,,,,,,,,,,,,,,,,,,,,
,,,,,,,,,,,,5f14a79820f9ef0a1e664d21,26,Mężczyzna,2022-06-11_09h21.41.984,task,2021.1.4,Win32,60.04924038,6299f149e92ead563fba08ef,62a441b89f8d1c2ad8d6ddd4,jghbv,"[""j"",""g"",""h"",""b"",""v""]","[0.9997999999999934,1.3877000000000095,2.2654999999999887,5.855700000000027,6.137000000000015,6.93340000000002]",1,JGHBV,7,0,7,0,1,,,,,,,,,,,,,,,,,,,,,,,,,,,,,,,,,,,,,,,,,,,,,,,,,,,,,,,,,,,,,,,,,,,,,,,,,,,,,,,,,,,,,,,,,,,
,,,,,,0,0,0,0,1,X V Q F H G B L J M P D K C T S W R N Z,5f14a79820f9ef0a1e664d21,26,Mężczyzna,2022-06-11_09h21.41.984,task,2021.1.4,Win32,60.04924038,6299f149e92ead563fba08ef,62a441b89f8d1c2ad8d6ddd4,,,,,,,,,,,,,,,,,,,,,,,,,,,,,,,,,,,,,,,,,,,,,,,,,,,,,,,,,,,,,,,,,,,,,,,,,,,,,,,,,,,,,,,,,,,,,,,,,,,,,
,,,,,,1,0,1,0,1,X V Q F H G B L J M P D K C T S W R N Z,5f14a79820f9ef0a1e664d21,26,Mężczyzna,2022-06-11_09h21.41.984,task,2021.1.4,Win32,60.04924038,6299f149e92ead563fba08ef,62a441b89f8d1c2ad8d6ddd4,,,,,,,,,,,,,,,,,,,,,,,,,,,,,,,,,,,,,,,,,,,,,,,,,,,,,,,,,,,,,,,,,,,,,,,,,,,,,,,,,,,,,,,,,,,,,,,,,,,,,
,,,,,,2,0,2,0,1,X V Q F H G B L J M P D K C T S W R N Z,5f14a79820f9ef0a1e664d21,26,Mężczyzna,2022-06-11_09h21.41.984,task,2021.1.4,Win32,60.04924038,6299f149e92ead563fba08ef,62a441b89f8d1c2ad8d6ddd4,,,,,,,,,,,,,,,,,,,,,,,,,,,,,,,,,,,,,,,,,,,,,,,,,,,,,,,,,,,,,,,,,,,,,,,,,,,,,,,,,,,,,,,,,,,,,,,,,,,,,
,,,,,,3,0,3,0,1,X V Q F H G B L J M P D K C T S W R N Z,5f14a79820f9ef0a1e664d21,26,Mężczyzna,2022-06-11_09h21.41.984,task,2021.1.4,Win32,60.04924038,6299f149e92ead563fba08ef,62a441b89f8d1c2ad8d6ddd4,,,,,,,,,,,,,,,,,,,,,,,,,,,,,,,,,,,,,,,,,,,,,,,,,,,,,,,,,,,,,,,,,,,,,,,,,,,,,,,,,,,,,,,,,,,,,,,,,,,,,
,,,,,,4,0,4,0,1,X V Q F H G B L J M P D K C T S W R N Z,5f14a79820f9ef0a1e664d21,26,Mężczyzna,2022-06-11_09h21.41.984,task,2021.1.4,Win32,60.04924038,6299f149e92ead563fba08ef,62a441b89f8d1c2ad8d6ddd4,,,,,,,,,,,,,,,,,,,,,,,,,,,,,,,,,,,,,,,,,,,,,,,,,,,,,,,,,,,,,,,,,,,,,,,,,,,,,,,,,,,,,,,,,,,,,,,,,,,,,
,,,,,,5,0,5,0,1,X V Q F H G B L J M P D K C T S W R N Z,5f14a79820f9ef0a1e664d21,26,Mężczyzna,2022-06-11_09h21.41.984,task,2021.1.4,Win32,60.04924038,6299f149e92ead563fba08ef,62a441b89f8d1c2ad8d6ddd4,,,,,,,,,,,,,,,,,,,,,,,,,,,,,,,,,,,,,,,,,,,,,,,,,,,,,,,,,,,,,,,,,,,,,,,,,,,,,,,,,,,,,,,,,,,,,,,,,,,,,
,,,,,,,,,,,,5f14a79820f9ef0a1e664d21,26,Mężczyzna,2022-06-11_09h21.41.984,task,2021.1.4,Win32,60.04924038,6299f149e92ead563fba08ef,62a441b89f8d1c2ad8d6ddd4,zghbvp,"[""z"",""g"",""h"",""b"",""v"",""p""]","[2.0882999999999754,2.881099999999975,3.4903999999999655,4.962999999999994,5.495899999999949,5.964699999999937,6.6784999999999854]",0,ZVGKPG,8,0,8,0,1,,,,,,,,,,,,,,,,,,,,,,,,,,,,,,,,,,,,,,,,,,,,,,,,,,,,,,,,,,,,,,,,,,,,,,,,,,,,,,,,,,,,,,,,,,,
,,,,,,0,0,0,0,1,X V Q F H G B L J M P D K C T S W R N Z,5f14a79820f9ef0a1e664d21,26,Mężczyzna,2022-06-11_09h21.41.984,task,2021.1.4,Win32,60.04924038,6299f149e92ead563fba08ef,62a441b89f8d1c2ad8d6ddd4,,,,,,,,,,,,,,,,,,,,,,,,,,,,,,,,,,,,,,,,,,,,,,,,,,,,,,,,,,,,,,,,,,,,,,,,,,,,,,,,,,,,,,,,,,,,,,,,,,,,,
,,,,,,1,0,1,0,1,X V Q F H G B L J M P D K C T S W R N Z,5f14a79820f9ef0a1e664d21,26,Mężczyzna,2022-06-11_09h21.41.984,task,2021.1.4,Win32,60.04924038,6299f149e92ead563fba08ef,62a441b89f8d1c2ad8d6ddd4,,,,,,,,,,,,,,,,,,,,,,,,,,,,,,,,,,,,,,,,,,,,,,,,,,,,,,,,,,,,,,,,,,,,,,,,,,,,,,,,,,,,,,,,,,,,,,,,,,,,,
,,,,,,2,0,2,0,1,X V Q F H G B L J M P D K C T S W R N Z,5f14a79820f9ef0a1e664d21,26,Mężczyzna,2022-06-11_09h21.41.984,task,2021.1.4,Win32,60.04924038,6299f149e92ead563fba08ef,62a441b89f8d1c2ad8d6ddd4,,,,,,,,,,,,,,,,,,,,,,,,,,,,,,,,,,,,,,,,,,,,,,,,,,,,,,,,,,,,,,,,,,,,,,,,,,,,,,,,,,,,,,,,,,,,,,,,,,,,,
,,,,,,3,0,3,0,1,X V Q F H G B L J M P D K C T S W R N Z,5f14a79820f9ef0a1e664d21,26,Mężczyzna,2022-06-11_09h21.41.984,task,2021.1.4,Win32,60.04924038,6299f149e92ead563fba08ef,62a441b89f8d1c2ad8d6ddd4,,,,,,,,,,,,,,,,,,,,,,,,,,,,,,,,,,,,,,,,,,,,,,,,,,,,,,,,,,,,,,,,,,,,,,,,,,,,,,,,,,,,,,,,,,,,,,,,,,,,,
,,,,,,4,0,4,0,1,X V Q F H G B L J M P D K C T S W R N Z,5f14a79820f9ef0a1e664d21,26,Mężczyzna,2022-06-11_09h21.41.984,task,2021.1.4,Win32,60.04924038,6299f149e92ead563fba08ef,62a441b89f8d1c2ad8d6ddd4,,,,,,,,,,,,,,,,,,,,,,,,,,,,,,,,,,,,,,,,,,,,,,,,,,,,,,,,,,,,,,,,,,,,,,,,,,,,,,,,,,,,,,,,,,,,,,,,,,,,,
,,,,,,5,0,5,0,1,X V Q F H G B L J M P D K C T S W R N Z,5f14a79820f9ef0a1e664d21,26,Mężczyzna,2022-06-11_09h21.41.984,task,2021.1.4,Win32,60.04924038,6299f149e92ead563fba08ef,62a441b89f8d1c2ad8d6ddd4,,,,,,,,,,,,,,,,,,,,,,,,,,,,,,,,,,,,,,,,,,,,,,,,,,,,,,,,,,,,,,,,,,,,,,,,,,,,,,,,,,,,,,,,,,,,,,,,,,,,,
,,,,,,,,,,,,5f14a79820f9ef0a1e664d21,26,Mężczyzna,2022-06-11_09h21.41.984,task,2021.1.4,Win32,60.04924038,6299f149e92ead563fba08ef,62a441b89f8d1c2ad8d6ddd4,tghzb,"[""t"",""g"",""h"",""z"",""b""]","[0.7194999999999823,3.159599999999955,3.5745000000000005,4.080899999999957,4.831899999999962,5.286999999999978]",0,TFKZBS,9,0,9,0,1,,,,,,,,,,,,,,,,,,,,,,,,,,,,,,,,,,,,,,,,,,,,,,,,,,,,,,,,,,,,,,,,,,,,,,,,,,,,,,,,,,,,,,,,,,,
,,,,,,0,0,0,0,1,X V Q F H G B L J M P D K C T S W R N Z,5f14a79820f9ef0a1e664d21,26,Mężczyzna,2022-06-11_09h21.41.984,task,2021.1.4,Win32,60.04924038,6299f149e92ead563fba08ef,62a441b89f8d1c2ad8d6ddd4,,,,,,,,,,,,,,,,,,,,,,,,,,,,,,,,,,,,,,,,,,,,,,,,,,,,,,,,,,,,,,,,,,,,,,,,,,,,,,,,,,,,,,,,,,,,,,,,,,,,,
,,,,,,1,0,1,0,1,X V Q F H G B L J M P D K C T S W R N Z,5f14a79820f9ef0a1e664d21,26,Mężczyzna,2022-06-11_09h21.41.984,task,2021.1.4,Win32,60.04924038,6299f149e92ead563fba08ef,62a441b89f8d1c2ad8d6ddd4,,,,,,,,,,,,,,,,,,,,,,,,,,,,,,,,,,,,,,,,,,,,,,,,,,,,,,,,,,,,,,,,,,,,,,,,,,,,,,,,,,,,,,,,,,,,,,,,,,,,,
,,,,,,2,0,2,0,1,X V Q F H G B L J M P D K C T S W R N Z,5f14a79820f9ef0a1e664d21,26,Mężczyzna,2022-06-11_09h21.41.984,task,2021.1.4,Win32,60.04924038,6299f149e92ead563fba08ef,62a441b89f8d1c2ad8d6ddd4,,,,,,,,,,,,,,,,,,,,,,,,,,,,,,,,,,,,,,,,,,,,,,,,,,,,,,,,,,,,,,,,,,,,,,,,,,,,,,,,,,,,,,,,,,,,,,,,,,,,,
,,,,,,3,0,3,0,1,X V Q F H G B L J M P D K C T S W R N Z,5f14a79820f9ef0a1e664d21,26,Mężczyzna,2022-06-11_09h21.41.984,task,2021.1.4,Win32,60.04924038,6299f149e92ead563fba08ef,62a441b89f8d1c2ad8d6ddd4,,,,,,,,,,,,,,,,,,,,,,,,,,,,,,,,,,,,,,,,,,,,,,,,,,,,,,,,,,,,,,,,,,,,,,,,,,,,,,,,,,,,,,,,,,,,,,,,,,,,,
,,,,,,4,0,4,0,1,X V Q F H G B L J M P D K C T S W R N Z,5f14a79820f9ef0a1e664d21,26,Mężczyzna,2022-06-11_09h21.41.984,task,2021.1.4,Win32,60.04924038,6299f149e92ead563fba08ef,62a441b89f8d1c2ad8d6ddd4,,,,,,,,,,,,,,,,,,,,,,,,,,,,,,,,,,,,,,,,,,,,,,,,,,,,,,,,,,,,,,,,,,,,,,,,,,,,,,,,,,,,,,,,,,,,,,,,,,,,,
,,,,,,5,0,5,0,1,X V Q F H G B L J M P D K C T S W R N Z,5f14a79820f9ef0a1e664d21,26,Mężczyzna,2022-06-11_09h21.41.984,task,2021.1.4,Win32,60.04924038,6299f149e92ead563fba08ef,62a441b89f8d1c2ad8d6ddd4,,,,,,,,,,,,,,,,,,,,,,,,,,,,,,,,,,,,,,,,,,,,,,,,,,,,,,,,,,,,,,,,,,,,,,,,,,,,,,,,,,,,,,,,,,,,,,,,,,,,,
,,,,,,,,,,,,5f14a79820f9ef0a1e664d21,26,Mężczyzna,2022-06-11_09h21.41.984,task,2021.1.4,Win32,60.04924038,6299f149e92ead563fba08ef,62a441b89f8d1c2ad8d6ddd4,ppkndz,"[""p"",""p"",""k"",""n"",""d"",""z""]","[0.8312000000000239,1.009900000000016,1.3441000000000258,1.8028000000000475,2.3964000000000283,3.029300000000063,3.8154000000000394]",0,PPKNDM,10,0,10,0,1,,,,,,,,,,,,,,,,,,,,,,,,,,,,,,,,,,,,,,,,,,,,,,,,,,,,,,,,,,,,,,,,,,,,,,,,,,,,,,,,,,,,,,,,,,,
,,,,,,,,,,,,5f14a79820f9ef0a1e664d21,26,Mężczyzna,2022-06-11_09h21.41.984,task,2021.1.4,Win32,60.04924038,6299f149e92ead563fba08ef,62a441b89f8d1c2ad8d6ddd4,,,,,,,,,,,space,20.949,8,"[""8""]",1,[9.480599999999981],[9.480599999999981],0,0,0,8,1,Practice,9,(3x3) - 1,8,,,,,,,,,,,,,,,,,,,,,,,,,,,,,,,,,,,,,,,,,,,,,,,,,,,,,,,,,,,,,,,,,,,,,,,,,,,
,,,,,,,,,,,,5f14a79820f9ef0a1e664d21,26,Mężczyzna,2022-06-11_09h21.41.984,task,2021.1.4,Win32,60.04924038,6299f149e92ead563fba08ef,62a441b89f8d1c2ad8d6ddd4,,,,,,,,,,,,,1,"[""1""]",1,[4.446699999999993],"[9.480599999999981,4.446699999999993]",0,1,1,1,1,Practice,2,(4x4) - 15,1,,,,,,,,,,,,,,,,,,,,,,,,,,,,,,,,,,,,,,,,,,,,,,,,,,,,,,,,,,,,,,,,,,,,,,,,,,,
,,,,,,,,,,,,5f14a79820f9ef0a1e664d21,26,Mężczyzna,2022-06-11_09h21.41.984,task,2021.1.4,Win32,60.04924038,6299f149e92ead563fba08ef,62a441b89f8d1c2ad8d6ddd4,,,,,,,,,,,,,2,"[""2""]",0,[2.8140999999999963],"[9.480599999999981,4.446699999999993,2.8140999999999963]",0,2,2,7,1,Practice,8,(5x5) - 18,7,,,,,,,,,,,,,,,,,,,,,,,,,,,,,,,,,,,,,,,,,,,,,,,,,,,,,,,,,,,,,,,,,,,,,,,,,,,
,,,,,,,,,,,,5f14a79820f9ef0a1e664d21,26,Mężczyzna,2022-06-11_09h21.41.984,task,2021.1.4,Win32,60.04924038,6299f149e92ead563fba08ef,62a441b89f8d1c2ad8d6ddd4,,,,,,,,,,,,,9,"[""9""]",1,[6.830700000000036],"[9.480599999999981,4.446699999999993,2.8140999999999963,6.830700000000036]",0,3,3,9,1,Practice,10,(20/2) - 1,9,,,,,,,,,,,,,,,,,,,,,,,,,,,,,,,,,,,,,,,,,,,,,,,,,,,,,,,,,,,,,,,,,,,,,,,,,,,
,,,,,,,,,,,,5f14a79820f9ef0a1e664d21,26,Mężczyzna,2022-06-11_09h21.41.984,task,2021.1.4,Win32,60.04924038,6299f149e92ead563fba08ef,62a441b89f8d1c2ad8d6ddd4,,,,,,,,,,,,,3,"[""3""]",1,[3.3065999999999747],"[9.480599999999981,4.446699999999993,2.8140999999999963,6.830700000000036,3.3065999999999747]",0,4,4,3,1,Practice,4,(8/4) + 1,3,,,,,,,,,,,,,,,,,,,,,,,,,,,,,,,,,,,,,,,,,,,,,,,,,,,,,,,,,,,,,,,,,,,,,,,,,,,
,,,,,,,,,,,,5f14a79820f9ef0a1e664d21,26,Mężczyzna,2022-06-11_09h21.41.984,task,2021.1.4,Win32,60.04924038,6299f149e92ead563fba08ef,62a441b89f8d1c2ad8d6ddd4,,,,,,,,,,,,,2,"[""2""]",1,[4.425899999999956],"[9.480599999999981,4.446699999999993,2.8140999999999963,6.830700000000036,3.3065999999999747,4.425899999999956]",0,5,5,2,1,Practice,3,(4x4) - 14,2,,,,,,,,,,,,,,,,,,,,,,,,,,,,,,,,,,,,,,,,,,,,,,,,,,,,,,,,,,,,,,,,,,,,,,,,,,,
,,,,,,,,,,,,5f14a79820f9ef0a1e664d21,26,Mężczyzna,2022-06-11_09h21.41.984,task,2021.1.4,Win32,60.04924038,6299f149e92ead563fba08ef,62a441b89f8d1c2ad8d6ddd4,,,,,,,,,,,,,4,"[""4""]",1,[4.3183999999999685],"[9.480599999999981,4.446699999999993,2.8140999999999963,6.830700000000036,3.3065999999999747,4.425899999999956,4.3183999999999685]",0,6,6,4,1,Practice,5,(2x6) - 8,4,,,,,,,,,,,,,,,,,,,,,,,,,,,,,,,,,,,,,,,,,,,,,,,,,,,,,,,,,,,,,,,,,,,,,,,,,,,
,,,,,,,,,,,,5f14a79820f9ef0a1e664d21,26,Mężczyzna,2022-06-11_09h21.41.984,task,2021.1.4,Win32,60.04924038,6299f149e92ead563fba08ef,62a441b89f8d1c2ad8d6ddd4,,,,,,,,,,,,,6,"[""6""]",1,[2.549299999999988],"[9.480599999999981,4.446699999999993,2.8140999999999963,6.830700000000036,3.3065999999999747,4.425899999999956,4.3183999999999685,2.549299999999988]",0,7,7,6,1,Practice,7,(25/5) + 1,6,,,,,,,,,,,,,,,,,,,,,,,,,,,,,,,,,,,,,,,,,,,,,,,,,,,,,,,,,,,,,,,,,,,,,,,,,,,
,,,,,,,,,,,,5f14a79820f9ef0a1e664d21,26,Mężczyzna,2022-06-11_09h21.41.984,task,2021.1.4,Win32,60.04924038,6299f149e92ead563fba08ef,62a441b89f8d1c2ad8d6ddd4,,,,,,,,,,,,,0,"[""0""]",1,[2.699100000000044],"[9.480599999999981,4.446699999999993,2.8140999999999963,6.830700000000036,3.3065999999999747,4.425899999999956,4.3183999999999685,2.549299999999988,2.699100000000044]",0,8,8,0,1,Practice,1,(3x3) -  9,0,,,,,,,,,,,,,,,,,,,,,,,,,,,,,,,,,,,,,,,,,,,,,,,,,,,,,,,,,,,,,,,,,,,,,,,,,,,
,,,,,,,,,,,,5f14a79820f9ef0a1e664d21,26,Mężczyzna,2022-06-11_09h21.41.984,task,2021.1.4,Win32,60.04924038,6299f149e92ead563fba08ef,62a441b89f8d1c2ad8d6ddd4,,,,,,,,,,,,,5,"[""5""]",1,[4.932600000000036],"[9.480599999999981,4.446699999999993,2.8140999999999963,6.830700000000036,3.3065999999999747,4.425899999999956,4.3183999999999685,2.549299999999988,2.699100000000044,4.932600000000036]",0,9,9,5,1,Practice,6,(4/2) + 3,5,,,,,,,,,,,,,,,,,,,,,,,,,,,,,,,,,,,,,,,,,,,,,,,,,,,,,,,,,,,,,,,,,,,,,,,,,,,
,,,,,,,,,,,,5f14a79820f9ef0a1e664d21,26,Mężczyzna,2022-06-11_09h21.41.984,task,2021.1.4,Win32,60.04924038,6299f149e92ead563fba08ef,62a441b89f8d1c2ad8d6ddd4,,,,,,,,,,,,,,,,,,,,,,,,,,,0.9,45.804,3.0536,65.02846634,2.082121776,8.425474182,space,1.3666,0,0,0,0,1,,,,,,,,,,,,,,,,,,,,,,,,,,,,,,,,,,,,,,,,,,,,,,,,,,,,,,,,,,,,,,
,,,,,,,,,,,,5f14a79820f9ef0a1e664d21,26,Mężczyzna,2022-06-11_09h21.41.984,task,2021.1.4,Win32,60.04924038,6299f149e92ead563fba08ef,62a441b89f8d1c2ad8d6ddd4,,,,,,,,,,,,,6,,,,,,,,,,Practice,7,(25/5) + 1,6,,,,,,,,,,,,,,space,16.449,"[""6""]",1,[2.413400000000024],1,0,0,0,6,1,,,,,,,,,,,,,,,,,,,,,,,,,,,,,,,,,,,,,,,,,,,,,,,,,,,
,,,,,,,,,,,X V Q F H G B L J M P D K C T S W R N Z,5f14a79820f9ef0a1e664d21,26,Mężczyzna,2022-06-11_09h21.41.984,task,2021.1.4,Win32,60.04924038,6299f149e92ead563fba08ef,62a441b89f8d1c2ad8d6ddd4,,,,,,,,,,,,,,,,,,,,,,,,,,,,,,,,,,,,,,,,,,,,,,,,,,,0,0,0,0,1,,,,,,,,,,,,,,,,,,,,,,,,,,,,,,,,,,,,,,,,,,,,,,
,,,,,,,,,,,,5f14a79820f9ef0a1e664d21,26,Mężczyzna,2022-06-11_09h21.41.984,task,2021.1.4,Win32,60.04924038,6299f149e92ead563fba08ef,62a441b89f8d1c2ad8d6ddd4,,,,,,,,,,,,,,,,,,,,,,,Practice,1,(3x3) -  9,0,,,,,,,,,,,,,,,,,0,,0,0,0,0,0,1,,,,,,,,,,,,,,,,,,,,,,,,,,,,,,,,,,,,,,,,,,,,,,,,,,,
,,,,,,,,,,,,5f14a79820f9ef0a1e664d21,26,Mężczyzna,2022-06-11_09h21.41.984,task,2021.1.4,Win32,60.04924038,6299f149e92ead563fba08ef,62a441b89f8d1c2ad8d6ddd4,,,,,,,,,,,,,3,,,,,,,,,,Practice,4,(8/4) + 1,3,,,,,,,,,,,,,,,,"[""3""]",1,[2.1311999999999784],1,0,1,1,3,1,,,,,,,,,,,,,,,,,,,,,,,,,,,,,,,,,,,,,,,,,,,,,,,,,,,
,,,,,,,,,,,X V Q F H G B L J M P D K C T S W R N Z,5f14a79820f9ef0a1e664d21,26,Mężczyzna,2022-06-11_09h21.41.984,task,2021.1.4,Win32,60.04924038,6299f149e92ead563fba08ef,62a441b89f8d1c2ad8d6ddd4,,,,,,,,,,,,,,,,,,,,,,,,,,,,,,,,,,,,,,,,,,,,,,,,,,,1,0,1,0,1,,,,,,,,,,,,,,,,,,,,,,,,,,,,,,,,,,,,,,,,,,,,,,
,,,,,,,,,,,,5f14a79820f9ef0a1e664d21,26,Mężczyzna,2022-06-11_09h21.41.984,task,2021.1.4,Win32,60.04924038,6299f149e92ead563fba08ef,62a441b89f8d1c2ad8d6ddd4,,,,,,,,,,,,,,,,,,,,,,,,,,,,,,,,,,,,,,,,,,,,,,,,,,,,,,,,zv,"[""z"",""v""]",0,"[3.2024000000000115,3.8729000000000156,4.599999999999966]",1,0,0,0,0,1,,,,,,,,,,,,,,,,,,,,,,,,,,,,,,,,,,,,
,,,,,,,,,,,,5f14a79820f9ef0a1e664d21,26,Mężczyzna,2022-06-11_09h21.41.984,task,2021.1.4,Win32,60.04924038,6299f149e92ead563fba08ef,62a441b89f8d1c2ad8d6ddd4,,,,,,,,,,,,,5,,,,,,,,,,Practice,6,(4/2) + 3,5,,,,,,,,,,,,,,,,"[""5""]",1,[2.8705999999999676],1,0,0,0,5,1,,,,,,,,,,,,,,,,,,,,,,,,,,,,,,,,,,,,,,,,,,,,,,,,,,,
,,,,,,,,,,,X V Q F H G B L J M P D K C T S W R N Z,5f14a79820f9ef0a1e664d21,26,Mężczyzna,2022-06-11_09h21.41.984,task,2021.1.4,Win32,60.04924038,6299f149e92ead563fba08ef,62a441b89f8d1c2ad8d6ddd4,,,,,,,,,,,,,,,,,,,,,,,,,,,,,,,,,,,,,,,,,,,,,,,,,,,0,0,0,0,1,,,,,,,,,,,,,,,,,,,,,,,,,,,,,,,,,,,,,,,,,,,,,,
,,,,,,,,,,,,5f14a79820f9ef0a1e664d21,26,Mężczyzna,2022-06-11_09h21.41.984,task,2021.1.4,Win32,60.04924038,6299f149e92ead563fba08ef,62a441b89f8d1c2ad8d6ddd4,,,,,,,,,,,,,5,,,,,,,,,,Practice,6,(4/2) + 3,5,,,,,,,,,,,,,,,,"[""5""]",1,[1.7667000000000144],1,0,0,0,5,1,,,,,,,,,,,,,,,,,,,,,,,,,,,,,,,,,,,,,,,,,,,,,,,,,,,
,,,,,,,,,,,X V Q F H G B L J M P D K C T S W R N Z,5f14a79820f9ef0a1e664d21,26,Mężczyzna,2022-06-11_09h21.41.984,task,2021.1.4,Win32,60.04924038,6299f149e92ead563fba08ef,62a441b89f8d1c2ad8d6ddd4,,,,,,,,,,,,,,,,,,,,,,,,,,,,,,,,,,,,,,,,,,,,,,,,,,,1,0,1,0,1,,,,,,,,,,,,,,,,,,,,,,,,,,,,,,,,,,,,,,,,,,,,,,
,,,,,,,,,,,,5f14a79820f9ef0a1e664d21,26,Mężczyzna,2022-06-11_09h21.41.984,task,2021.1.4,Win32,60.04924038,6299f149e92ead563fba08ef,62a441b89f8d1c2ad8d6ddd4,,,,,,,,,,,,,,,,,,,,,,,,,,,,,,,,,,,,,,,,,,,,,,,,,,,,,,,,qt,"[""q"",""t""]",0,"[2.050200000000018,2.449700000000007,3.1327]",1,1,0,1,0,1,,,,,,,,,,,,,,,,,,,,,,,,,,,,,,,,,,,,
,,,,,,,,,,,,5f14a79820f9ef0a1e664d21,26,Mężczyzna,2022-06-11_09h21.41.984,task,2021.1.4,Win32,60.04924038,6299f149e92ead563fba08ef,62a441b89f8d1c2ad8d6ddd4,,,,,,,,,,,,,1,,,,,,,,,,Practice,2,(4x4) - 15,1,,,,,,,,,,,,,,,,"[""1""]",1,[3.953800000000001],1,0,0,0,1,1,,,,,,,,,,,,,,,,,,,,,,,,,,,,,,,,,,,,,,,,,,,,,,,,,,,
,,,,,,,,,,,X V Q F H G B L J M P D K C T S W R N Z,5f14a79820f9ef0a1e664d21,26,Mężczyzna,2022-06-11_09h21.41.984,task,2021.1.4,Win32,60.04924038,6299f149e92ead563fba08ef,62a441b89f8d1c2ad8d6ddd4,,,,,,,,,,,,,,,,,,,,,,,,,,,,,,,,,,,,,,,,,,,,,,,,,,,0,0,0,0,1,,,,,,,,,,,,,,,,,,,,,,,,,,,,,,,,,,,,,,,,,,,,,,
,,,,,,,,,,,,5f14a79820f9ef0a1e664d21,26,Mężczyzna,2022-06-11_09h21.41.984,task,2021.1.4,Win32,60.04924038,6299f149e92ead563fba08ef,62a441b89f8d1c2ad8d6ddd4,,,,,,,,,,,,,6,,,,,,,,,,Practice,7,(25/5) + 1,6,,,,,,,,,,,,,,,,"[""6""]",1,[3.0463000000000306],1,0,0,0,6,1,,,,,,,,,,,,,,,,,,,,,,,,,,,,,,,,,,,,,,,,,,,,,,,,,,,
,,,,,,,,,,,X V Q F H G B L J M P D K C T S W R N Z,5f14a79820f9ef0a1e664d21,26,Mężczyzna,2022-06-11_09h21.41.984,task,2021.1.4,Win32,60.04924038,6299f149e92ead563fba08ef,62a441b89f8d1c2ad8d6ddd4,,,,,,,,,,,,,,,,,,,,,,,,,,,,,,,,,,,,,,,,,,,,,,,,,,,1,0,1,0,1,,,,,,,,,,,,,,,,,,,,,,,,,,,,,,,,,,,,,,,,,,,,,,
,,,,,,,,,,,,5f14a79820f9ef0a1e664d21,26,Mężczyzna,2022-06-11_09h21.41.984,task,2021.1.4,Win32,60.04924038,6299f149e92ead563fba08ef,62a441b89f8d1c2ad8d6ddd4,,,,,,,,,,,,,,,,,,,,,,,,,,,,,,,,,,,,,,,,,,,,,,,,,,,,,,,,hp,"[""h"",""p""]",0,"[2.016200000000026,2.2676000000000727,3.1368000000000507]",1,2,0,2,0,1,,,,,,,,,,,,,,,,,,,,,,,,,,,,,,,,,,,,
,,,,,,,,,,,,5f14a79820f9ef0a1e664d21,26,Mężczyzna,2022-06-11_09h21.41.984,task,2021.1.4,Win32,60.04924038,6299f149e92ead563fba08ef,62a441b89f8d1c2ad8d6ddd4,,,,,,,,,,,,,6,,,,,,,,,,Task,5,(2x3) + 0,6,,,,,,,,,,,,,,,,,,,1,,,,,,,,,,,,,,,,,,,,,space,12.1343,"[""6""]",1,[5.76260000000002],0,0,0,4,1,,,,,,,,,,,,,,,,,,,,,,,,,,
,,,,,,,,,,,X V Q F H G B L J M P D K C T S W R N Z,5f14a79820f9ef0a1e664d21,26,Mężczyzna,2022-06-11_09h21.41.984,task,2021.1.4,Win32,60.04924038,6299f149e92ead563fba08ef,62a441b89f8d1c2ad8d6ddd4,,,,,,,,,,,,,,,,,,,,,,,,,,,,,,,,,,,,,,,,,,,,,,,,,,,,,,,,,,,,,,,,,,,,,,,,,,,,0,0,0,0,1,,,,,,,,,,,,,,,,,,,,,
,,,,,,,,,,,,5f14a79820f9ef0a1e664d21,26,Mężczyzna,2022-06-11_09h21.41.984,task,2021.1.4,Win32,60.04924038,6299f149e92ead563fba08ef,62a441b89f8d1c2ad8d6ddd4,,,,,,,,,,,,,6,,,,,,,,,,Task,5,(2x3) + 0,6,,,,,,,,,,,,,,,,,,,1,,,,,,,,,,,,,,,,,,,,,,,"[""6""]",1,[2.8676999999999566],0,0,0,4,1,,,,,,,,,,,,,,,,,,,,,,,,,,
,,,,,,,,,,,X V Q F H G B L J M P D K C T S W R N Z,5f14a79820f9ef0a1e664d21,26,Mężczyzna,2022-06-11_09h21.41.984,task,2021.1.4,Win32,60.04924038,6299f149e92ead563fba08ef,62a441b89f8d1c2ad8d6ddd4,,,,,,,,,,,,,,,,,,,,,,,,,,,,,,,,,,,,,,,,,,,,,,,,,,,,,,,,,,,,,,,,,,,,,,,,,,,,1,0,1,0,1,,,,,,,,,,,,,,,,,,,,,
,,,,,,,,,,,,5f14a79820f9ef0a1e664d21,26,Mężczyzna,2022-06-11_09h21.41.984,task,2021.1.4,Win32,60.04924038,6299f149e92ead563fba08ef,62a441b89f8d1c2ad8d6ddd4,,,,,,,,,,,,,,,,,,,,,,,,,,,,,,,,,,,,,,,,,,,,,,,,,,,,,,,,,,,,,,,,,,,,,,,,,,,,,,,,,zk,"[""z"",""k""]",0,"[1.9997999999998797,2.382699999999943,2.7451999999999543]",1,ZK,0,0,0,0,1,,,,,,,,,,
,,,,,,,,,,,,5f14a79820f9ef0a1e664d21,26,Mężczyzna,2022-06-11_09h21.41.984,task,2021.1.4,Win32,60.04924038,6299f149e92ead563fba08ef,62a441b89f8d1c2ad8d6ddd4,,,,,,,,,,,,,0,,,,,,,,,,Task,8,(1x5) - 5,0,,,,,,,,,,,,,,,,,,,1,,,,,,,,,,,,,,,,,,,,,,,"[""0""]",1,[4.080700000000093],0,0,0,7,1,,,,,,,,,,,,,,,,,,,,,,,,,,
,,,,,,,,,,,X V Q F H G B L J M P D K C T S W R N Z,5f14a79820f9ef0a1e664d21,26,Mężczyzna,2022-06-11_09h21.41.984,task,2021.1.4,Win32,60.04924038,6299f149e92ead563fba08ef,62a441b89f8d1c2ad8d6ddd4,,,,,,,,,,,,,,,,,,,,,,,,,,,,,,,,,,,,,,,,,,,,,,,,,,,,,,,,,,,,,,,,,,,,,,,,,,,,0,0,0,0,1,,,,,,,,,,,,,,,,,,,,,
,,,,,,,,,,,,5f14a79820f9ef0a1e664d21,26,Mężczyzna,2022-06-11_09h21.41.984,task,2021.1.4,Win32,60.04924038,6299f149e92ead563fba08ef,62a441b89f8d1c2ad8d6ddd4,,,,,,,,,,,,,,,,,,,,,,,Task,38,(4x6) - 17,7,,,,,,,,,,,,,,,,,,,0,,,,,,,,,,,,,,,,,,,,,,,,0,,0,0,0,37,1,,,,,,,,,,,,,,,,,,,,,,,,,,
,,,,,,,,,,,,5f14a79820f9ef0a1e664d21,26,Mężczyzna,2022-06-11_09h21.41.984,task,2021.1.4,Win32,60.04924038,6299f149e92ead563fba08ef,62a441b89f8d1c2ad8d6ddd4,,,,,,,,,,,,,9,,,,,,,,,,Task,16,(3x8) - 15,9,,,,,,,,,,,,,,,,,,,1,,,,,,,,,,,,,,,,,,,,,,,"[""9""]",1,[6.1480999999999995],0,1,1,15,1,,,,,,,,,,,,,,,,,,,,,,,,,,
,,,,,,,,,,,X V Q F H G B L J M P D K C T S W R N Z,5f14a79820f9ef0a1e664d21,26,Mężczyzna,2022-06-11_09h21.41.984,task,2021.1.4,Win32,60.04924038,6299f149e92ead563fba08ef,62a441b89f8d1c2ad8d6ddd4,,,,,,,,,,,,,,,,,,,,,,,,,,,,,,,,,,,,,,,,,,,,,,,,,,,,,,,,,,,,,,,,,,,,,,,,,,,,1,0,1,0,1,,,,,,,,,,,,,,,,,,,,,
,,,,,,,,,,,,5f14a79820f9ef0a1e664d21,26,Mężczyzna,2022-06-11_09h21.41.984,task,2021.1.4,Win32,60.04924038,6299f149e92ead563fba08ef,62a441b89f8d1c2ad8d6ddd4,,,,,,,,,,,,,1,,,,,,,,,,Task,9,(3x7) - 20,1,,,,,,,,,,,,,,,,,,,1,,,,,,,,,,,,,,,,,,,,,,,"[""1""]",1,[4.40280000000007],0,0,0,8,1,,,,,,,,,,,,,,,,,,,,,,,,,,
,,,,,,,,,,,X V Q F H G B L J M P D K C T S W R N Z,5f14a79820f9ef0a1e664d21,26,Mężczyzna,2022-06-11_09h21.41.984,task,2021.1.4,Win32,60.04924038,6299f149e92ead563fba08ef,62a441b89f8d1c2ad8d6ddd4,,,,,,,,,,,,,,,,,,,,,,,,,,,,,,,,,,,,,,,,,,,,,,,,,,,,,,,,,,,,,,,,,,,,,,,,,,,,2,0,2,0,1,,,,,,,,,,,,,,,,,,,,,
,,,,,,,,,,,,5f14a79820f9ef0a1e664d21,26,Mężczyzna,2022-06-11_09h21.41.984,task,2021.1.4,Win32,60.04924038,6299f149e92ead563fba08ef,62a441b89f8d1c2ad8d6ddd4,,,,,,,,,,,,,,,,,,,,,,,,,,,,,,,,,,,,,,,,,,,,,,,,,,,,,,,,,,,,,,,,,,,,,,,,,,,,,,,,,qfd,"[""q"",""f"",""d""]",0,"[1.702899999999886,2.1271999999999593,2.3158999999998855,2.910899999999913]",1,QFD,1,0,1,0,1,,,,,,,,,,
,,,,,,,,,,,,5f14a79820f9ef0a1e664d21,26,Mężczyzna,2022-06-11_09h21.41.984,task,2021.1.4,Win32,60.04924038,6299f149e92ead563fba08ef,62a441b89f8d1c2ad8d6ddd4,,,,,,,,,,,,,2,,,,,,,,,,Task,19,(6/2) - 1,2,,,,,,,,,,,,,,,,,,,1,,,,,,,,,,,,,,,,,,,,,,,"[""2""]",1,[3.372600000000091],0,0,0,18,1,,,,,,,,,,,,,,,,,,,,,,,,,,
,,,,,,,,,,,X V Q F H G B L J M P D K C T S W R N Z,5f14a79820f9ef0a1e664d21,26,Mężczyzna,2022-06-11_09h21.41.984,task,2021.1.4,Win32,60.04924038,6299f149e92ead563fba08ef,62a441b89f8d1c2ad8d6ddd4,,,,,,,,,,,,,,,,,,,,,,,,,,,,,,,,,,,,,,,,,,,,,,,,,,,,,,,,,,,,,,,,,,,,,,,,,,,,0,0,0,0,1,,,,,,,,,,,,,,,,,,,,,
,,,,,,,,,,,,5f14a79820f9ef0a1e664d21,26,Mężczyzna,2022-06-11_09h21.41.984,task,2021.1.4,Win32,60.04924038,6299f149e92ead563fba08ef,62a441b89f8d1c2ad8d6ddd4,,,,,,,,,,,,,9,,,,,,,,,,Task,16,(3x8) - 15,9,,,,,,,,,,,,,,,,,,,1,,,,,,,,,,,,,,,,,,,,,,,"[""9""]",1,[4.3969000000000165],0,0,0,15,1,,,,,,,,,,,,,,,,,,,,,,,,,,
,,,,,,,,,,,X V Q F H G B L J M P D K C T S W R N Z,5f14a79820f9ef0a1e664d21,26,Mężczyzna,2022-06-11_09h21.41.984,task,2021.1.4,Win32,60.04924038,6299f149e92ead563fba08ef,62a441b89f8d1c2ad8d6ddd4,,,,,,,,,,,,,,,,,,,,,,,,,,,,,,,,,,,,,,,,,,,,,,,,,,,,,,,,,,,,,,,,,,,,,,,,,,,,1,0,1,0,1,,,,,,,,,,,,,,,,,,,,,
,,,,,,,,,,,,5f14a79820f9ef0a1e664d21,26,Mężczyzna,2022-06-11_09h21.41.984,task,2021.1.4,Win32,60.04924038,6299f149e92ead563fba08ef,62a441b89f8d1c2ad8d6ddd4,,,,,,,,,,,,,7,,,,,,,,,,Task,14,(2x2) + 3,7,,,,,,,,,,,,,,,,,,,1,,,,,,,,,,,,,,,,,,,,,,,"[""7""]",1,[3.1812000000000467],0,0,0,13,1,,,,,,,,,,,,,,,,,,,,,,,,,,
,,,,,,,,,,,X V Q F H G B L J M P D K C T S W R N Z,5f14a79820f9ef0a1e664d21,26,Mężczyzna,2022-06-11_09h21.41.984,task,2021.1.4,Win32,60.04924038,6299f149e92ead563fba08ef,62a441b89f8d1c2ad8d6ddd4,,,,,,,,,,,,,,,,,,,,,,,,,,,,,,,,,,,,,,,,,,,,,,,,,,,,,,,,,,,,,,,,,,,,,,,,,,,,2,0,2,0,1,,,,,,,,,,,,,,,,,,,,,
,,,,,,,,,,,,5f14a79820f9ef0a1e664d21,26,Mężczyzna,2022-06-11_09h21.41.984,task,2021.1.4,Win32,60.04924038,6299f149e92ead563fba08ef,62a441b89f8d1c2ad8d6ddd4,,,,,,,,,,,,,5,,,,,,,,,,Task,36,(8/4) + 3,5,,,,,,,,,,,,,,,,,,,1,,,,,,,,,,,,,,,,,,,,,,,"[""5""]",1,[2.3127000000000635],0,0,0,35,1,,,,,,,,,,,,,,,,,,,,,,,,,,
,,,,,,,,,,,X V Q F H G B L J M P D K C T S W R N Z,5f14a79820f9ef0a1e664d21,26,Mężczyzna,2022-06-11_09h21.41.984,task,2021.1.4,Win32,60.04924038,6299f149e92ead563fba08ef,62a441b89f8d1c2ad8d6ddd4,,,,,,,,,,,,,,,,,,,,,,,,,,,,,,,,,,,,,,,,,,,,,,,,,,,,,,,,,,,,,,,,,,,,,,,,,,,,3,0,3,0,1,,,,,,,,,,,,,,,,,,,,,
,,,,,,,,,,,,5f14a79820f9ef0a1e664d21,26,Mężczyzna,2022-06-11_09h21.41.984,task,2021.1.4,Win32,60.04924038,6299f149e92ead563fba08ef,62a441b89f8d1c2ad8d6ddd4,,,,,,,,,,,,,,,,,,,,,,,,,,,,,,,,,,,,,,,,,,,,,,,,,,,,,,,,,,,,,,,,,,,,,,,,,,,,,,,,,npvh,"[""n"",""p"",""v"",""h""]",0,"[1.698099999999954,2.6066999999999325,3.13169999999991,4.165399999999977,4.800199999999961]",1,NPVH,2,0,2,0,1,,,,,,,,,,
,,,,,,,,,,,,5f14a79820f9ef0a1e664d21,26,Mężczyzna,2022-06-11_09h21.41.984,task,2021.1.4,Win32,60.04924038,6299f149e92ead563fba08ef,62a441b89f8d1c2ad8d6ddd4,,,,,,,,,,,,,5,,,,,,,,,,Task,29,(3x8) - 19 ,5,,,,,,,,,,,,,,,,,,,1,,,,,,,,,,,,,,,,,,,,,,,"[""5""]",1,[6.874000000000024],0,0,0,28,1,,,,,,,,,,,,,,,,,,,,,,,,,,
,,,,,,,,,,,X V Q F H G B L J M P D K C T S W R N Z,5f14a79820f9ef0a1e664d21,26,Mężczyzna,2022-06-11_09h21.41.984,task,2021.1.4,Win32,60.04924038,6299f149e92ead563fba08ef,62a441b89f8d1c2ad8d6ddd4,,,,,,,,,,,,,,,,,,,,,,,,,,,,,,,,,,,,,,,,,,,,,,,,,,,,,,,,,,,,,,,,,,,,,,,,,,,,0,0,0,0,1,,,,,,,,,,,,,,,,,,,,,
,,,,,,,,,,,,5f14a79820f9ef0a1e664d21,26,Mężczyzna,2022-06-11_09h21.41.984,task,2021.1.4,Win32,60.04924038,6299f149e92ead563fba08ef,62a441b89f8d1c2ad8d6ddd4,,,,,,,,,,,,,9,,,,,,,,,,Task,7,(3x7) - 12,9,,,,,,,,,,,,,,,,,,,1,,,,,,,,,,,,,,,,,,,,,,,"[""9""]",1,[4.540999999999997],0,0,0,6,1,,,,,,,,,,,,,,,,,,,,,,,,,,
,,,,,,,,,,,X V Q F H G B L J M P D K C T S W R N Z,5f14a79820f9ef0a1e664d21,26,Mężczyzna,2022-06-11_09h21.41.984,task,2021.1.4,Win32,60.04924038,6299f149e92ead563fba08ef,62a441b89f8d1c2ad8d6ddd4,,,,,,,,,,,,,,,,,,,,,,,,,,,,,,,,,,,,,,,,,,,,,,,,,,,,,,,,,,,,,,,,,,,,,,,,,,,,1,0,1,0,1,,,,,,,,,,,,,,,,,,,,,
,,,,,,,,,,,,5f14a79820f9ef0a1e664d21,26,Mężczyzna,2022-06-11_09h21.41.984,task,2021.1.4,Win32,60.04924038,6299f149e92ead563fba08ef,62a441b89f8d1c2ad8d6ddd4,,,,,,,,,,,,,7,,,,,,,,,,Task,14,(2x2) + 3,7,,,,,,,,,,,,,,,,,,,1,,,,,,,,,,,,,,,,,,,,,,,"[""7""]",1,[3.7046999999999457],0,0,0,13,1,,,,,,,,,,,,,,,,,,,,,,,,,,
,,,,,,,,,,,X V Q F H G B L J M P D K C T S W R N Z,5f14a79820f9ef0a1e664d21,26,Mężczyzna,2022-06-11_09h21.41.984,task,2021.1.4,Win32,60.04924038,6299f149e92ead563fba08ef,62a441b89f8d1c2ad8d6ddd4,,,,,,,,,,,,,,,,,,,,,,,,,,,,,,,,,,,,,,,,,,,,,,,,,,,,,,,,,,,,,,,,,,,,,,,,,,,,2,0,2,0,1,,,,,,,,,,,,,,,,,,,,,
,,,,,,,,,,,,5f14a79820f9ef0a1e664d21,26,Mężczyzna,2022-06-11_09h21.41.984,task,2021.1.4,Win32,60.04924038,6299f149e92ead563fba08ef,62a441b89f8d1c2ad8d6ddd4,,,,,,,,,,,,,7,,,,,,,,,,Task,14,(2x2) + 3,7,,,,,,,,,,,,,,,,,,,1,,,,,,,,,,,,,,,,,,,,,,,"[""7""]",1,[1.4671000000000731],0,0,0,13,1,,,,,,,,,,,,,,,,,,,,,,,,,,
,,,,,,,,,,,X V Q F H G B L J M P D K C T S W R N Z,5f14a79820f9ef0a1e664d21,26,Mężczyzna,2022-06-11_09h21.41.984,task,2021.1.4,Win32,60.04924038,6299f149e92ead563fba08ef,62a441b89f8d1c2ad8d6ddd4,,,,,,,,,,,,,,,,,,,,,,,,,,,,,,,,,,,,,,,,,,,,,,,,,,,,,,,,,,,,,,,,,,,,,,,,,,,,3,0,3,0,1,,,,,,,,,,,,,,,,,,,,,
,,,,,,,,,,,,5f14a79820f9ef0a1e664d21,26,Mężczyzna,2022-06-11_09h21.41.984,task,2021.1.4,Win32,60.04924038,6299f149e92ead563fba08ef,62a441b89f8d1c2ad8d6ddd4,,,,,,,,,,,,,9,,,,,,,,,,Task,16,(3x8) - 15,9,,,,,,,,,,,,,,,,,,,1,,,,,,,,,,,,,,,,,,,,,,,"[""9""]",1,[6.206199999999967],0,0,0,15,1,,,,,,,,,,,,,,,,,,,,,,,,,,
,,,,,,,,,,,X V Q F H G B L J M P D K C T S W R N Z,5f14a79820f9ef0a1e664d21,26,Mężczyzna,2022-06-11_09h21.41.984,task,2021.1.4,Win32,60.04924038,6299f149e92ead563fba08ef,62a441b89f8d1c2ad8d6ddd4,,,,,,,,,,,,,,,,,,,,,,,,,,,,,,,,,,,,,,,,,,,,,,,,,,,,,,,,,,,,,,,,,,,,,,,,,,,,4,0,4,0,1,,,,,,,,,,,,,,,,,,,,,
,,,,,,,,,,,,5f14a79820f9ef0a1e664d21,26,Mężczyzna,2022-06-11_09h21.41.984,task,2021.1.4,Win32,60.04924038,6299f149e92ead563fba08ef,62a441b89f8d1c2ad8d6ddd4,,,,,,,,,,,,,,,,,,,,,,,,,,,,,,,,,,,,,,,,,,,,,,,,,,,,,,,,,,,,,,,,,,,,,,,,,,,,,,,,,pbcjj,"[""p"",""b"",""c"",""j"",""j""]",0,"[2.281499999999994,2.9050999999999476,3.7113999999999123,4.123499999999979,4.274599999999964,4.868999999999971]",1,PBCJJ,3,0,3,0,1,,,,,,,,,,
,,,,,,,,,,,,5f14a79820f9ef0a1e664d21,26,Mężczyzna,2022-06-11_09h21.41.984,task,2021.1.4,Win32,60.04924038,6299f149e92ead563fba08ef,62a441b89f8d1c2ad8d6ddd4,,,,,,,,,,,,,2,,,,,,,,,,Task,10,(2x5) - 8,2,,,,,,,,,,,,,,,,,,,1,,,,,,,,,,,,,,,,,,,,,,,"[""2""]",1,[7.439199999999971],0,0,0,9,1,,,,,,,,,,,,,,,,,,,,,,,,,,
,,,,,,,,,,,X V Q F H G B L J M P D K C T S W R N Z,5f14a79820f9ef0a1e664d21,26,Mężczyzna,2022-06-11_09h21.41.984,task,2021.1.4,Win32,60.04924038,6299f149e92ead563fba08ef,62a441b89f8d1c2ad8d6ddd4,,,,,,,,,,,,,,,,,,,,,,,,,,,,,,,,,,,,,,,,,,,,,,,,,,,,,,,,,,,,,,,,,,,,,,,,,,,,0,0,0,0,1,,,,,,,,,,,,,,,,,,,,,
,,,,,,,,,,,,5f14a79820f9ef0a1e664d21,26,Mężczyzna,2022-06-11_09h21.41.984,task,2021.1.4,Win32,60.04924038,6299f149e92ead563fba08ef,62a441b89f8d1c2ad8d6ddd4,,,,,,,,,,,,,8,,,,,,,,,,Task,32,(8/2) + 4,8,,,,,,,,,,,,,,,,,,,1,,,,,,,,,,,,,,,,,,,,,,,"[""8""]",1,[2.9044999999999845],0,0,0,31,1,,,,,,,,,,,,,,,,,,,,,,,,,,
,,,,,,,,,,,X V Q F H G B L J M P D K C T S W R N Z,5f14a79820f9ef0a1e664d21,26,Mężczyzna,2022-06-11_09h21.41.984,task,2021.1.4,Win32,60.04924038,6299f149e92ead563fba08ef,62a441b89f8d1c2ad8d6ddd4,,,,,,,,,,,,,,,,,,,,,,,,,,,,,,,,,,,,,,,,,,,,,,,,,,,,,,,,,,,,,,,,,,,,,,,,,,,,1,0,1,0,1,,,,,,,,,,,,,,,,,,,,,
,,,,,,,,,,,,5f14a79820f9ef0a1e664d21,26,Mężczyzna,2022-06-11_09h21.41.984,task,2021.1.4,Win32,60.04924038,6299f149e92ead563fba08ef,62a441b89f8d1c2ad8d6ddd4,,,,,,,,,,,,,8,,,,,,,,,,Task,23,(2x3) + 2,8,,,,,,,,,,,,,,,,,,,1,,,,,,,,,,,,,,,,,,,,,,,"[""8""]",1,[3.9102999999999497],0,0,0,22,1,,,,,,,,,,,,,,,,,,,,,,,,,,
,,,,,,,,,,,X V Q F H G B L J M P D K C T S W R N Z,5f14a79820f9ef0a1e664d21,26,Mężczyzna,2022-06-11_09h21.41.984,task,2021.1.4,Win32,60.04924038,6299f149e92ead563fba08ef,62a441b89f8d1c2ad8d6ddd4,,,,,,,,,,,,,,,,,,,,,,,,,,,,,,,,,,,,,,,,,,,,,,,,,,,,,,,,,,,,,,,,,,,,,,,,,,,,2,0,2,0,1,,,,,,,,,,,,,,,,,,,,,
,,,,,,,,,,,,5f14a79820f9ef0a1e664d21,26,Mężczyzna,2022-06-11_09h21.41.984,task,2021.1.4,Win32,60.04924038,6299f149e92ead563fba08ef,62a441b89f8d1c2ad8d6ddd4,,,,,,,,,,,,,3,,,,,,,,,,Task,27,(3/3) + 2,3,,,,,,,,,,,,,,,,,,,1,,,,,,,,,,,,,,,,,,,,,,,"[""3""]",1,[3.8970999999999663],0,0,0,26,1,,,,,,,,,,,,,,,,,,,,,,,,,,
,,,,,,,,,,,X V Q F H G B L J M P D K C T S W R N Z,5f14a79820f9ef0a1e664d21,26,Mężczyzna,2022-06-11_09h21.41.984,task,2021.1.4,Win32,60.04924038,6299f149e92ead563fba08ef,62a441b89f8d1c2ad8d6ddd4,,,,,,,,,,,,,,,,,,,,,,,,,,,,,,,,,,,,,,,,,,,,,,,,,,,,,,,,,,,,,,,,,,,,,,,,,,,,3,0,3,0,1,,,,,,,,,,,,,,,,,,,,,
,,,,,,,,,,,,5f14a79820f9ef0a1e664d21,26,Mężczyzna,2022-06-11_09h21.41.984,task,2021.1.4,Win32,60.04924038,6299f149e92ead563fba08ef,62a441b89f8d1c2ad8d6ddd4,,,,,,,,,,,,,2,,,,,,,,,,Task,2,(2x2) - 2,2,,,,,,,,,,,,,,,,,,,1,,,,,,,,,,,,,,,,,,,,,,,"[""2""]",1,[2.292100000000005],0,0,0,1,1,,,,,,,,,,,,,,,,,,,,,,,,,,
,,,,,,,,,,,X V Q F H G B L J M P D K C T S W R N Z,5f14a79820f9ef0a1e664d21,26,Mężczyzna,2022-06-11_09h21.41.984,task,2021.1.4,Win32,60.04924038,6299f149e92ead563fba08ef,62a441b89f8d1c2ad8d6ddd4,,,,,,,,,,,,,,,,,,,,,,,,,,,,,,,,,,,,,,,,,,,,,,,,,,,,,,,,,,,,,,,,,,,,,,,,,,,,4,0,4,0,1,,,,,,,,,,,,,,,,,,,,,
,,,,,,,,,,,,5f14a79820f9ef0a1e664d21,26,Mężczyzna,2022-06-11_09h21.41.984,task,2021.1.4,Win32,60.04924038,6299f149e92ead563fba08ef,62a441b89f8d1c2ad8d6ddd4,,,,,,,,,,,,,0,,,,,,,,,,Task,17,(2x3) - 6,0,,,,,,,,,,,,,,,,,,,1,,,,,,,,,,,,,,,,,,,,,,,"[""0""]",1,[2.5235000000000127],0,0,0,16,1,,,,,,,,,,,,,,,,,,,,,,,,,,
,,,,,,,,,,,X V Q F H G B L J M P D K C T S W R N Z,5f14a79820f9ef0a1e664d21,26,Mężczyzna,2022-06-11_09h21.41.984,task,2021.1.4,Win32,60.04924038,6299f149e92ead563fba08ef,62a441b89f8d1c2ad8d6ddd4,,,,,,,,,,,,,,,,,,,,,,,,,,,,,,,,,,,,,,,,,,,,,,,,,,,,,,,,,,,,,,,,,,,,,,,,,,,,5,0,5,0,1,,,,,,,,,,,,,,,,,,,,,
,,,,,,,,,,,,5f14a79820f9ef0a1e664d21,26,Mężczyzna,2022-06-11_09h21.41.984,task,2021.1.4,Win32,60.04924038,6299f149e92ead563fba08ef,62a441b89f8d1c2ad8d6ddd4,,,,,,,,,,,,,,,,,,,,,,,,,,,,,,,,,,,,,,,,,,,,,,,,,,,,,,,,,,,,,,,,,,,,,,,,,,,,,,,,,tzdkfs,"[""t"",""z"",""d"",""k"",""f"",""s""]",0,"[2.622700000000009,3.5540999999999485,4.329099999999926,5.153300000000172,6.437400000000025,6.771000000000072,7.481099999999969]",1,TZDKFS,4,0,4,0,1,,,,,,,,,,
,,,,,,,,,,,,5f14a79820f9ef0a1e664d21,26,Mężczyzna,2022-06-11_09h21.41.984,task,2021.1.4,Win32,60.04924038,6299f149e92ead563fba08ef,62a441b89f8d1c2ad8d6ddd4,,,,,,,,,,,,,,,,,,,,,,,Task,11,(18/3) - 2,4,,,,,,,,,,,,,,,,,,,0,,,,,,,,,,,,,,,,,,,,,,,,0,,0,0,0,10,1,,,,,,,,,,,,,,,,,,,,,,,,,,
,,,,,,,,,,,,5f14a79820f9ef0a1e664d21,26,Mężczyzna,2022-06-11_09h21.41.984,task,2021.1.4,Win32,60.04924038,6299f149e92ead563fba08ef,62a441b89f8d1c2ad8d6ddd4,,,,,,,,,,,,,2,,,,,,,,,,Task,10,(2x5) - 8,2,,,,,,,,,,,,,,,,,,,1,,,,,,,,,,,,,,,,,,,,,,,"[""2""]",1,[2.6469999999999345],0,1,1,9,1,,,,,,,,,,,,,,,,,,,,,,,,,,
,,,,,,,,,,,X V Q F H G B L J M P D K C T S W R N Z,5f14a79820f9ef0a1e664d21,26,Mężczyzna,2022-06-11_09h21.41.984,task,2021.1.4,Win32,60.04924038,6299f149e92ead563fba08ef,62a441b89f8d1c2ad8d6ddd4,,,,,,,,,,,,,,,,,,,,,,,,,,,,,,,,,,,,,,,,,,,,,,,,,,,,,,,,,,,,,,,,,,,,,,,,,,,,0,0,0,0,1,,,,,,,,,,,,,,,,,,,,,
,,,,,,,,,,,,5f14a79820f9ef0a1e664d21,26,Mężczyzna,2022-06-11_09h21.41.984,task,2021.1.4,Win32,60.04924038,6299f149e92ead563fba08ef,62a441b89f8d1c2ad8d6ddd4,,,,,,,,,,,,,4,,,,,,,,,,Task,11,(18/3) - 2,4,,,,,,,,,,,,,,,,,,,1,,,,,,,,,,,,,,,,,,,,,,,"[""4""]",1,[3.130899999999883],0,0,0,10,1,,,,,,,,,,,,,,,,,,,,,,,,,,
,,,,,,,,,,,X V Q F H G B L J M P D K C T S W R N Z,5f14a79820f9ef0a1e664d21,26,Mężczyzna,2022-06-11_09h21.41.984,task,2021.1.4,Win32,60.04924038,6299f149e92ead563fba08ef,62a441b89f8d1c2ad8d6ddd4,,,,,,,,,,,,,,,,,,,,,,,,,,,,,,,,,,,,,,,,,,,,,,,,,,,,,,,,,,,,,,,,,,,,,,,,,,,,1,0,1,0,1,,,,,,,,,,,,,,,,,,,,,
,,,,,,,,,,,,5f14a79820f9ef0a1e664d21,26,Mężczyzna,2022-06-11_09h21.41.984,task,2021.1.4,Win32,60.04924038,6299f149e92ead563fba08ef,62a441b89f8d1c2ad8d6ddd4,,,,,,,,,,,,,7,,,,,,,,,,Task,31,(4/2) + 5,7,,,,,,,,,,,,,,,,,,,1,,,,,,,,,,,,,,,,,,,,,,,"[""7""]",1,[3.8421999999999343],0,0,0,30,1,,,,,,,,,,,,,,,,,,,,,,,,,,
,,,,,,,,,,,X V Q F H G B L J M P D K C T S W R N Z,5f14a79820f9ef0a1e664d21,26,Mężczyzna,2022-06-11_09h21.41.984,task,2021.1.4,Win32,60.04924038,6299f149e92ead563fba08ef,62a441b89f8d1c2ad8d6ddd4,,,,,,,,,,,,,,,,,,,,,,,,,,,,,,,,,,,,,,,,,,,,,,,,,,,,,,,,,,,,,,,,,,,,,,,,,,,,2,0,2,0,1,,,,,,,,,,,,,,,,,,,,,
,,,,,,,,,,,,5f14a79820f9ef0a1e664d21,26,Mężczyzna,2022-06-11_09h21.41.984,task,2021.1.4,Win32,60.04924038,6299f149e92ead563fba08ef,62a441b89f8d1c2ad8d6ddd4,,,,,,,,,,,,,0,,,,,,,,,,Task,33,(1/1) - 1,0,,,,,,,,,,,,,,,,,,,1,,,,,,,,,,,,,,,,,,,,,,,"[""0""]",1,[2.7736999999999625],0,0,0,32,1,,,,,,,,,,,,,,,,,,,,,,,,,,
,,,,,,,,,,,X V Q F H G B L J M P D K C T S W R N Z,5f14a79820f9ef0a1e664d21,26,Mężczyzna,2022-06-11_09h21.41.984,task,2021.1.4,Win32,60.04924038,6299f149e92ead563fba08ef,62a441b89f8d1c2ad8d6ddd4,,,,,,,,,,,,,,,,,,,,,,,,,,,,,,,,,,,,,,,,,,,,,,,,,,,,,,,,,,,,,,,,,,,,,,,,,,,,3,0,3,0,1,,,,,,,,,,,,,,,,,,,,,
,,,,,,,,,,,,5f14a79820f9ef0a1e664d21,26,Mężczyzna,2022-06-11_09h21.41.984,task,2021.1.4,Win32,60.04924038,6299f149e92ead563fba08ef,62a441b89f8d1c2ad8d6ddd4,,,,,,,,,,,,,0,,,,,,,,,,Task,33,(1/1) - 1,0,,,,,,,,,,,,,,,,,,,1,,,,,,,,,,,,,,,,,,,,,,,"[""0""]",1,[1.2031999999999243],0,0,0,32,1,,,,,,,,,,,,,,,,,,,,,,,,,,
,,,,,,,,,,,X V Q F H G B L J M P D K C T S W R N Z,5f14a79820f9ef0a1e664d21,26,Mężczyzna,2022-06-11_09h21.41.984,task,2021.1.4,Win32,60.04924038,6299f149e92ead563fba08ef,62a441b89f8d1c2ad8d6ddd4,,,,,,,,,,,,,,,,,,,,,,,,,,,,,,,,,,,,,,,,,,,,,,,,,,,,,,,,,,,,,,,,,,,,,,,,,,,,4,0,4,0,1,,,,,,,,,,,,,,,,,,,,,
,,,,,,,,,,,,5f14a79820f9ef0a1e664d21,26,Mężczyzna,2022-06-11_09h21.41.984,task,2021.1.4,Win32,60.04924038,6299f149e92ead563fba08ef,62a441b89f8d1c2ad8d6ddd4,,,,,,,,,,,,,9,,,,,,,,,,Task,24,(2x2) + 5,9,,,,,,,,,,,,,,,,,,,1,,,,,,,,,,,,,,,,,,,,,,,"[""9""]",1,[2.56679999999983],0,0,0,23,1,,,,,,,,,,,,,,,,,,,,,,,,,,
,,,,,,,,,,,X V Q F H G B L J M P D K C T S W R N Z,5f14a79820f9ef0a1e664d21,26,Mężczyzna,2022-06-11_09h21.41.984,task,2021.1.4,Win32,60.04924038,6299f149e92ead563fba08ef,62a441b89f8d1c2ad8d6ddd4,,,,,,,,,,,,,,,,,,,,,,,,,,,,,,,,,,,,,,,,,,,,,,,,,,,,,,,,,,,,,,,,,,,,,,,,,,,,5,0,5,0,1,,,,,,,,,,,,,,,,,,,,,
,,,,,,,,,,,,5f14a79820f9ef0a1e664d21,26,Mężczyzna,2022-06-11_09h21.41.984,task,2021.1.4,Win32,60.04924038,6299f149e92ead563fba08ef,62a441b89f8d1c2ad8d6ddd4,,,,,,,,,,,,,5,,,,,,,,,,Task,36,(8/4) + 3,5,,,,,,,,,,,,,,,,,,,1,,,,,,,,,,,,,,,,,,,,,,,"[""5""]",1,[3.293800000000033],0,0,0,35,1,,,,,,,,,,,,,,,,,,,,,,,,,,
,,,,,,,,,,,X V Q F H G B L J M P D K C T S W R N Z,5f14a79820f9ef0a1e664d21,26,Mężczyzna,2022-06-11_09h21.41.984,task,2021.1.4,Win32,60.04924038,6299f149e92ead563fba08ef,62a441b89f8d1c2ad8d6ddd4,,,,,,,,,,,,,,,,,,,,,,,,,,,,,,,,,,,,,,,,,,,,,,,,,,,,,,,,,,,,,,,,,,,,,,,,,,,,6,0,6,0,1,,,,,,,,,,,,,,,,,,,,,
,,,,,,,,,,,,5f14a79820f9ef0a1e664d21,26,Mężczyzna,2022-06-11_09h21.41.984,task,2021.1.4,Win32,60.04924038,6299f149e92ead563fba08ef,62a441b89f8d1c2ad8d6ddd4,,,,,,,,,,,,,,,,,,,,,,,,,,,,,,,,,,,,,,,,,,,,,,,,,,,,,,,,,,,,,,,,,,,,,,,,,,,,,,,,,wvbhfcx,"[""w"",""v"",""b"",""h"",""f"",""c"",""x""]",0,"[2.2614999999999554,2.8012999999998556,4.533599999999865,5.004899999999907,7.245999999999981,7.962199999999939,8.62909999999988,9.44500000000005]",1,WVBHFCX,5,0,5,0,1,,,,,,,,,,
,,,,,,,,,,,,5f14a79820f9ef0a1e664d21,26,Mężczyzna,2022-06-11_09h21.41.984,task,2021.1.4,Win32,60.04924038,6299f149e92ead563fba08ef,62a441b89f8d1c2ad8d6ddd4,,,,,,,,,,,,,1,,,,,,,,,,Task,9,(3x7) - 20,1,,,,,,,,,,,,,,,,,,,1,,,,,,,,,,,,,,,,,,,,,,,"[""1""]",1,[4.647800000000075],0,0,0,8,1,,,,,,,,,,,,,,,,,,,,,,,,,,
,,,,,,,,,,,X V Q F H G B L J M P D K C T S W R N Z,5f14a79820f9ef0a1e664d21,26,Mężczyzna,2022-06-11_09h21.41.984,task,2021.1.4,Win32,60.04924038,6299f149e92ead563fba08ef,62a441b89f8d1c2ad8d6ddd4,,,,,,,,,,,,,,,,,,,,,,,,,,,,,,,,,,,,,,,,,,,,,,,,,,,,,,,,,,,,,,,,,,,,,,,,,,,,0,0,0,0,1,,,,,,,,,,,,,,,,,,,,,
,,,,,,,,,,,,5f14a79820f9ef0a1e664d21,26,Mężczyzna,2022-06-11_09h21.41.984,task,2021.1.4,Win32,60.04924038,6299f149e92ead563fba08ef,62a441b89f8d1c2ad8d6ddd4,,,,,,,,,,,,,8,,,,,,,,,,Task,23,(2x3) + 2,8,,,,,,,,,,,,,,,,,,,1,,,,,,,,,,,,,,,,,,,,,,,"[""8""]",1,[2.7379000000000815],0,0,0,22,1,,,,,,,,,,,,,,,,,,,,,,,,,,
,,,,,,,,,,,X V Q F H G B L J M P D K C T S W R N Z,5f14a79820f9ef0a1e664d21,26,Mężczyzna,2022-06-11_09h21.41.984,task,2021.1.4,Win32,60.04924038,6299f149e92ead563fba08ef,62a441b89f8d1c2ad8d6ddd4,,,,,,,,,,,,,,,,,,,,,,,,,,,,,,,,,,,,,,,,,,,,,,,,,,,,,,,,,,,,,,,,,,,,,,,,,,,,1,0,1,0,1,,,,,,,,,,,,,,,,,,,,,
,,,,,,,,,,,,5f14a79820f9ef0a1e664d21,26,Mężczyzna,2022-06-11_09h21.41.984,task,2021.1.4,Win32,60.04924038,6299f149e92ead563fba08ef,62a441b89f8d1c2ad8d6ddd4,,,,,,,,,,,,,5,,,,,,,,,,Task,12,(4x4) - 11,5,,,,,,,,,,,,,,,,,,,1,,,,,,,,,,,,,,,,,,,,,,,"[""5""]",1,[2.3848999999999023],0,0,0,11,1,,,,,,,,,,,,,,,,,,,,,,,,,,
,,,,,,,,,,,X V Q F H G B L J M P D K C T S W R N Z,5f14a79820f9ef0a1e664d21,26,Mężczyzna,2022-06-11_09h21.41.984,task,2021.1.4,Win32,60.04924038,6299f149e92ead563fba08ef,62a441b89f8d1c2ad8d6ddd4,,,,,,,,,,,,,,,,,,,,,,,,,,,,,,,,,,,,,,,,,,,,,,,,,,,,,,,,,,,,,,,,,,,,,,,,,,,,2,0,2,0,1,,,,,,,,,,,,,,,,,,,,,
,,,,,,,,,,,,5f14a79820f9ef0a1e664d21,26,Mężczyzna,2022-06-11_09h21.41.984,task,2021.1.4,Win32,60.04924038,6299f149e92ead563fba08ef,62a441b89f8d1c2ad8d6ddd4,,,,,,,,,,,,,5,,,,,,,,,,Task,36,(8/4) + 3,5,,,,,,,,,,,,,,,,,,,1,,,,,,,,,,,,,,,,,,,,,,,"[""5""]",1,[2.711799999999812],0,0,0,35,1,,,,,,,,,,,,,,,,,,,,,,,,,,
,,,,,,,,,,,X V Q F H G B L J M P D K C T S W R N Z,5f14a79820f9ef0a1e664d21,26,Mężczyzna,2022-06-11_09h21.41.984,task,2021.1.4,Win32,60.04924038,6299f149e92ead563fba08ef,62a441b89f8d1c2ad8d6ddd4,,,,,,,,,,,,,,,,,,,,,,,,,,,,,,,,,,,,,,,,,,,,,,,,,,,,,,,,,,,,,,,,,,,,,,,,,,,,3,0,3,0,1,,,,,,,,,,,,,,,,,,,,,
,,,,,,,,,,,,5f14a79820f9ef0a1e664d21,26,Mężczyzna,2022-06-11_09h21.41.984,task,2021.1.4,Win32,60.04924038,6299f149e92ead563fba08ef,62a441b89f8d1c2ad8d6ddd4,,,,,,,,,,,,,2,,,,,,,,,,Task,10,(2x5) - 8,2,,,,,,,,,,,,,,,,,,,1,,,,,,,,,,,,,,,,,,,,,,,"[""2""]",1,[2.012800000000084],0,0,0,9,1,,,,,,,,,,,,,,,,,,,,,,,,,,
,,,,,,,,,,,X V Q F H G B L J M P D K C T S W R N Z,5f14a79820f9ef0a1e664d21,26,Mężczyzna,2022-06-11_09h21.41.984,task,2021.1.4,Win32,60.04924038,6299f149e92ead563fba08ef,62a441b89f8d1c2ad8d6ddd4,,,,,,,,,,,,,,,,,,,,,,,,,,,,,,,,,,,,,,,,,,,,,,,,,,,,,,,,,,,,,,,,,,,,,,,,,,,,4,0,4,0,1,,,,,,,,,,,,,,,,,,,,,
,,,,,,,,,,,,5f14a79820f9ef0a1e664d21,26,Mężczyzna,2022-06-11_09h21.41.984,task,2021.1.4,Win32,60.04924038,6299f149e92ead563fba08ef,62a441b89f8d1c2ad8d6ddd4,,,,,,,,,,,,,0,,,,,,,,,,Task,17,(2x3) - 6,0,,,,,,,,,,,,,,,,,,,1,,,,,,,,,,,,,,,,,,,,,,,"[""0""]",1,[2.2024999999999864],0,0,0,16,1,,,,,,,,,,,,,,,,,,,,,,,,,,
,,,,,,,,,,,X V Q F H G B L J M P D K C T S W R N Z,5f14a79820f9ef0a1e664d21,26,Mężczyzna,2022-06-11_09h21.41.984,task,2021.1.4,Win32,60.04924038,6299f149e92ead563fba08ef,62a441b89f8d1c2ad8d6ddd4,,,,,,,,,,,,,,,,,,,,,,,,,,,,,,,,,,,,,,,,,,,,,,,,,,,,,,,,,,,,,,,,,,,,,,,,,,,,5,0,5,0,1,,,,,,,,,,,,,,,,,,,,,
,,,,,,,,,,,,5f14a79820f9ef0a1e664d21,26,Mężczyzna,2022-06-11_09h21.41.984,task,2021.1.4,Win32,60.04924038,6299f149e92ead563fba08ef,62a441b89f8d1c2ad8d6ddd4,,,,,,,,,,,,,7,,,,,,,,,,Task,38,(4x6) - 17,7,,,,,,,,,,,,,,,,,,,1,,,,,,,,,,,,,,,,,,,,,,,"[""7""]",1,[5.9846],0,0,0,37,1,,,,,,,,,,,,,,,,,,,,,,,,,,
,,,,,,,,,,,X V Q F H G B L J M P D K C T S W R N Z,5f14a79820f9ef0a1e664d21,26,Mężczyzna,2022-06-11_09h21.41.984,task,2021.1.4,Win32,60.04924038,6299f149e92ead563fba08ef,62a441b89f8d1c2ad8d6ddd4,,,,,,,,,,,,,,,,,,,,,,,,,,,,,,,,,,,,,,,,,,,,,,,,,,,,,,,,,,,,,,,,,,,,,,,,,,,,6,0,6,0,1,,,,,,,,,,,,,,,,,,,,,
,,,,,,,,,,,,5f14a79820f9ef0a1e664d21,26,Mężczyzna,2022-06-11_09h21.41.984,task,2021.1.4,Win32,60.04924038,6299f149e92ead563fba08ef,62a441b89f8d1c2ad8d6ddd4,,,,,,,,,,,,,9,,,,,,,,,,Task,16,(3x8) - 15,9,,,,,,,,,,,,,,,,,,,1,,,,,,,,,,,,,,,,,,,,,,,"[""9""]",1,[3.2967999999997346],0,0,0,15,1,,,,,,,,,,,,,,,,,,,,,,,,,,
,,,,,,,,,,,X V Q F H G B L J M P D K C T S W R N Z,5f14a79820f9ef0a1e664d21,26,Mężczyzna,2022-06-11_09h21.41.984,task,2021.1.4,Win32,60.04924038,6299f149e92ead563fba08ef,62a441b89f8d1c2ad8d6ddd4,,,,,,,,,,,,,,,,,,,,,,,,,,,,,,,,,,,,,,,,,,,,,,,,,,,,,,,,,,,,,,,,,,,,,,,,,,,,7,0,7,0,1,,,,,,,,,,,,,,,,,,,,,
,,,,,,,,,,,,5f14a79820f9ef0a1e664d21,26,Mężczyzna,2022-06-11_09h21.41.984,task,2021.1.4,Win32,60.04924038,6299f149e92ead563fba08ef,62a441b89f8d1c2ad8d6ddd4,,,,,,,,,,,,,,,,,,,,,,,,,,,,,,,,,,,,,,,,,,,,,,,,,,,,,,,,,,,,,,,,,,,,,,,,,,,,,,,,,qxsrzhrg,"[""q"",""x"",""s"",""r"",""z"",""h"",""r"",""g""]",0,"[2.9923,3.7894999999999754,4.88149999999996,5.449699999999893,6.366699999999923,7.096000000000004,7.472300000000018,7.721499999999992,8.246499999999969]",1,QXSRZHRG,6,0,6,0,1,,,,,,,,,,
,,,,,,,,,,,,5f14a79820f9ef0a1e664d21,26,Mężczyzna,2022-06-11_09h21.41.984,task,2021.1.4,Win32,60.04924038,6299f149e92ead563fba08ef,62a441b89f8d1c2ad8d6ddd4,,,,,,,,,,,,,1,,,,,,,,,,Task,18,(16/4) - 3,1,,,,,,,,,,,,,,,,,,,1,,,,,,,,,,,,,,,,,,,,,,,"[""1""]",1,[5.210400000000163],0,0,0,17,1,,,,,,,,,,,,,,,,,,,,,,,,,,
,,,,,,,,,,,X V Q F H G B L J M P D K C T S W R N Z,5f14a79820f9ef0a1e664d21,26,Mężczyzna,2022-06-11_09h21.41.984,task,2021.1.4,Win32,60.04924038,6299f149e92ead563fba08ef,62a441b89f8d1c2ad8d6ddd4,,,,,,,,,,,,,,,,,,,,,,,,,,,,,,,,,,,,,,,,,,,,,,,,,,,,,,,,,,,,,,,,,,,,,,,,,,,,0,0,0,0,1,,,,,,,,,,,,,,,,,,,,,
,,,,,,,,,,,,5f14a79820f9ef0a1e664d21,26,Mężczyzna,2022-06-11_09h21.41.984,task,2021.1.4,Win32,60.04924038,6299f149e92ead563fba08ef,62a441b89f8d1c2ad8d6ddd4,,,,,,,,,,,,,4,,,,,,,,,,Task,21,(10/2) - 1,4,,,,,,,,,,,,,,,,,,,1,,,,,,,,,,,,,,,,,,,,,,,"[""4""]",1,[3.9883000000000948],0,0,0,20,1,,,,,,,,,,,,,,,,,,,,,,,,,,
,,,,,,,,,,,X V Q F H G B L J M P D K C T S W R N Z,5f14a79820f9ef0a1e664d21,26,Mężczyzna,2022-06-11_09h21.41.984,task,2021.1.4,Win32,60.04924038,6299f149e92ead563fba08ef,62a441b89f8d1c2ad8d6ddd4,,,,,,,,,,,,,,,,,,,,,,,,,,,,,,,,,,,,,,,,,,,,,,,,,,,,,,,,,,,,,,,,,,,,,,,,,,,,1,0,1,0,1,,,,,,,,,,,,,,,,,,,,,
,,,,,,,,,,,,5f14a79820f9ef0a1e664d21,26,Mężczyzna,2022-06-11_09h21.41.984,task,2021.1.4,Win32,60.04924038,6299f149e92ead563fba08ef,62a441b89f8d1c2ad8d6ddd4,,,,,,,,,,,,,7,,,,,,,,,,Task,14,(2x2) + 3,7,,,,,,,,,,,,,,,,,,,1,,,,,,,,,,,,,,,,,,,,,,,"[""7""]",1,[4.348100000000045],0,0,0,13,1,,,,,,,,,,,,,,,,,,,,,,,,,,
,,,,,,,,,,,X V Q F H G B L J M P D K C T S W R N Z,5f14a79820f9ef0a1e664d21,26,Mężczyzna,2022-06-11_09h21.41.984,task,2021.1.4,Win32,60.04924038,6299f149e92ead563fba08ef,62a441b89f8d1c2ad8d6ddd4,,,,,,,,,,,,,,,,,,,,,,,,,,,,,,,,,,,,,,,,,,,,,,,,,,,,,,,,,,,,,,,,,,,,,,,,,,,,2,0,2,0,1,,,,,,,,,,,,,,,,,,,,,
,,,,,,,,,,,,5f14a79820f9ef0a1e664d21,26,Mężczyzna,2022-06-11_09h21.41.984,task,2021.1.4,Win32,60.04924038,6299f149e92ead563fba08ef,62a441b89f8d1c2ad8d6ddd4,,,,,,,,,,,,,7,,,,,,,,,,Task,14,(2x2) + 3,7,,,,,,,,,,,,,,,,,,,1,,,,,,,,,,,,,,,,,,,,,,,"[""7""]",1,[1.4789999999999281],0,0,0,13,1,,,,,,,,,,,,,,,,,,,,,,,,,,
,,,,,,,,,,,X V Q F H G B L J M P D K C T S W R N Z,5f14a79820f9ef0a1e664d21,26,Mężczyzna,2022-06-11_09h21.41.984,task,2021.1.4,Win32,60.04924038,6299f149e92ead563fba08ef,62a441b89f8d1c2ad8d6ddd4,,,,,,,,,,,,,,,,,,,,,,,,,,,,,,,,,,,,,,,,,,,,,,,,,,,,,,,,,,,,,,,,,,,,,,,,,,,,3,0,3,0,1,,,,,,,,,,,,,,,,,,,,,
,,,,,,,,,,,,5f14a79820f9ef0a1e664d21,26,Mężczyzna,2022-06-11_09h21.41.984,task,2021.1.4,Win32,60.04924038,6299f149e92ead563fba08ef,62a441b89f8d1c2ad8d6ddd4,,,,,,,,,,,,,4,,,,,,,,,,Task,21,(10/2) - 1,4,,,,,,,,,,,,,,,,,,,1,,,,,,,,,,,,,,,,,,,,,,,"[""4""]",1,[1.9973999999999705],0,0,0,20,1,,,,,,,,,,,,,,,,,,,,,,,,,,
,,,,,,,,,,,X V Q F H G B L J M P D K C T S W R N Z,5f14a79820f9ef0a1e664d21,26,Mężczyzna,2022-06-11_09h21.41.984,task,2021.1.4,Win32,60.04924038,6299f149e92ead563fba08ef,62a441b89f8d1c2ad8d6ddd4,,,,,,,,,,,,,,,,,,,,,,,,,,,,,,,,,,,,,,,,,,,,,,,,,,,,,,,,,,,,,,,,,,,,,,,,,,,,4,0,4,0,1,,,,,,,,,,,,,,,,,,,,,
,,,,,,,,,,,,5f14a79820f9ef0a1e664d21,26,Mężczyzna,2022-06-11_09h21.41.984,task,2021.1.4,Win32,60.04924038,6299f149e92ead563fba08ef,62a441b89f8d1c2ad8d6ddd4,,,,,,,,,,,,,6,,,,,,,,,,Task,5,(2x3) + 0,6,,,,,,,,,,,,,,,,,,,1,,,,,,,,,,,,,,,,,,,,,,,"[""6""]",1,[3.994199999999978],0,0,0,4,1,,,,,,,,,,,,,,,,,,,,,,,,,,
,,,,,,,,,,,X V Q F H G B L J M P D K C T S W R N Z,5f14a79820f9ef0a1e664d21,26,Mężczyzna,2022-06-11_09h21.41.984,task,2021.1.4,Win32,60.04924038,6299f149e92ead563fba08ef,62a441b89f8d1c2ad8d6ddd4,,,,,,,,,,,,,,,,,,,,,,,,,,,,,,,,,,,,,,,,,,,,,,,,,,,,,,,,,,,,,,,,,,,,,,,,,,,,5,0,5,0,1,,,,,,,,,,,,,,,,,,,,,
,,,,,,,,,,,,5f14a79820f9ef0a1e664d21,26,Mężczyzna,2022-06-11_09h21.41.984,task,2021.1.4,Win32,60.04924038,6299f149e92ead563fba08ef,62a441b89f8d1c2ad8d6ddd4,,,,,,,,,,,,,2,,,,,,,,,,Task,2,(2x2) - 2,2,,,,,,,,,,,,,,,,,,,1,,,,,,,,,,,,,,,,,,,,,,,"[""2""]",1,[2.345899999999915],0,0,0,1,1,,,,,,,,,,,,,,,,,,,,,,,,,,
,,,,,,,,,,,X V Q F H G B L J M P D K C T S W R N Z,5f14a79820f9ef0a1e664d21,26,Mężczyzna,2022-06-11_09h21.41.984,task,2021.1.4,Win32,60.04924038,6299f149e92ead563fba08ef,62a441b89f8d1c2ad8d6ddd4,,,,,,,,,,,,,,,,,,,,,,,,,,,,,,,,,,,,,,,,,,,,,,,,,,,,,,,,,,,,,,,,,,,,,,,,,,,,6,0,6,0,1,,,,,,,,,,,,,,,,,,,,,
,,,,,,,,,,,,5f14a79820f9ef0a1e664d21,26,Mężczyzna,2022-06-11_09h21.41.984,task,2021.1.4,Win32,60.04924038,6299f149e92ead563fba08ef,62a441b89f8d1c2ad8d6ddd4,,,,,,,,,,,,,1,,,,,,,,,,Task,13,(3x4) - 6,6,,,,,,,,,,,,,,,,,,,0,,,,,,,,,,,,,,,,,,,,,,,"[""1""]",0,[2.4524999999999864],0,0,0,12,1,,,,,,,,,,,,,,,,,,,,,,,,,,
,,,,,,,,,,,,5f14a79820f9ef0a1e664d21,26,Mężczyzna,2022-06-11_09h21.41.984,task,2021.1.4,Win32,60.04924038,6299f149e92ead563fba08ef,62a441b89f8d1c2ad8d6ddd4,,,,,,,,,,,,,1,,,,,,,,,,Task,9,(3x7) - 20,1,,,,,,,,,,,,,,,,,,,1,,,,,,,,,,,,,,,,,,,,,,,"[""1""]",1,[6.444400000000087],0,1,1,8,1,,,,,,,,,,,,,,,,,,,,,,,,,,
,,,,,,,,,,,X V Q F H G B L J M P D K C T S W R N Z,5f14a79820f9ef0a1e664d21,26,Mężczyzna,2022-06-11_09h21.41.984,task,2021.1.4,Win32,60.04924038,6299f149e92ead563fba08ef,62a441b89f8d1c2ad8d6ddd4,,,,,,,,,,,,,,,,,,,,,,,,,,,,,,,,,,,,,,,,,,,,,,,,,,,,,,,,,,,,,,,,,,,,,,,,,,,,7,0,7,0,1,,,,,,,,,,,,,,,,,,,,,
,,,,,,,,,,,,5f14a79820f9ef0a1e664d21,26,Mężczyzna,2022-06-11_09h21.41.984,task,2021.1.4,Win32,60.04924038,6299f149e92ead563fba08ef,62a441b89f8d1c2ad8d6ddd4,,,,,,,,,,,,,3,,,,,,,,,,Task,27,(3/3) + 2,3,,,,,,,,,,,,,,,,,,,1,,,,,,,,,,,,,,,,,,,,,,,"[""3""]",1,[2.691699999999969],0,0,0,26,1,,,,,,,,,,,,,,,,,,,,,,,,,,
,,,,,,,,,,,X V Q F H G B L J M P D K C T S W R N Z,5f14a79820f9ef0a1e664d21,26,Mężczyzna,2022-06-11_09h21.41.984,task,2021.1.4,Win32,60.04924038,6299f149e92ead563fba08ef,62a441b89f8d1c2ad8d6ddd4,,,,,,,,,,,,,,,,,,,,,,,,,,,,,,,,,,,,,,,,,,,,,,,,,,,,,,,,,,,,,,,,,,,,,,,,,,,,8,0,8,0,1,,,,,,,,,,,,,,,,,,,,,
,,,,,,,,,,,,5f14a79820f9ef0a1e664d21,26,Mężczyzna,2022-06-11_09h21.41.984,task,2021.1.4,Win32,60.04924038,6299f149e92ead563fba08ef,62a441b89f8d1c2ad8d6ddd4,,,,,,,,,,,,,,,,,,,,,,,,,,,,,,,,,,,,,,,,,,,,,,,,,,,,,,,,,,,,,,,,,,,,,,,,,,,,,,,,,bmmdbbxld,"[""b"",""m"",""m"",""d"",""b"",""b"",""x"",""l"",""d""]",0,"[4.13169999999991,4.610599999999863,4.800700000000006,6.3103000000000975,7.411899999999946,7.682099999999878,8.440599999999904,9.51649999999995,10.111899999999878,10.690399999999954]",1,BMMDBBXLD,7,0,7,0,1,,,,,,,,,,
,,,,,,,,,,,,5f14a79820f9ef0a1e664d21,26,Mężczyzna,2022-06-11_09h21.41.984,task,2021.1.4,Win32,60.04924038,6299f149e92ead563fba08ef,62a441b89f8d1c2ad8d6ddd4,,,,,,,,,,,,,5,,,,,,,,,,Task,36,(8/4) + 3,5,,,,,,,,,,,,,,,,,,,1,,,,,,,,,,,,,,,,,,,,,,,"[""5""]",1,[5.399999999999977],0,0,0,35,1,,,,,,,,,,,,,,,,,,,,,,,,,,
,,,,,,,,,,,X V Q F H G B L J M P D K C T S W R N Z,5f14a79820f9ef0a1e664d21,26,Mężczyzna,2022-06-11_09h21.41.984,task,2021.1.4,Win32,60.04924038,6299f149e92ead563fba08ef,62a441b89f8d1c2ad8d6ddd4,,,,,,,,,,,,,,,,,,,,,,,,,,,,,,,,,,,,,,,,,,,,,,,,,,,,,,,,,,,,,,,,,,,,,,,,,,,,0,0,0,0,1,,,,,,,,,,,,,,,,,,,,,
,,,,,,,,,,,,5f14a79820f9ef0a1e664d21,26,Mężczyzna,2022-06-11_09h21.41.984,task,2021.1.4,Win32,60.04924038,6299f149e92ead563fba08ef,62a441b89f8d1c2ad8d6ddd4,,,,,,,,,,,,,3,,,,,,,,,,Task,3,(2x3) - 3,3,,,,,,,,,,,,,,,,,,,1,,,,,,,,,,,,,,,,,,,,,,,"[""3""]",1,[2.5801000000001295],0,0,0,2,1,,,,,,,,,,,,,,,,,,,,,,,,,,
,,,,,,,,,,,X V Q F H G B L J M P D K C T S W R N Z,5f14a79820f9ef0a1e664d21,26,Mężczyzna,2022-06-11_09h21.41.984,task,2021.1.4,Win32,60.04924038,6299f149e92ead563fba08ef,62a441b89f8d1c2ad8d6ddd4,,,,,,,,,,,,,,,,,,,,,,,,,,,,,,,,,,,,,,,,,,,,,,,,,,,,,,,,,,,,,,,,,,,,,,,,,,,,1,0,1,0,1,,,,,,,,,,,,,,,,,,,,,
,,,,,,,,,,,,5f14a79820f9ef0a1e664d21,26,Mężczyzna,2022-06-11_09h21.41.984,task,2021.1.4,Win32,60.04924038,6299f149e92ead563fba08ef,62a441b89f8d1c2ad8d6ddd4,,,,,,,,,,,,,1,,,,,,,,,,Task,34,(9/3) - 2,1,,,,,,,,,,,,,,,,,,,1,,,,,,,,,,,,,,,,,,,,,,,"[""1""]",1,[2.9068999999999505],0,0,0,33,1,,,,,,,,,,,,,,,,,,,,,,,,,,
,,,,,,,,,,,X V Q F H G B L J M P D K C T S W R N Z,5f14a79820f9ef0a1e664d21,26,Mężczyzna,2022-06-11_09h21.41.984,task,2021.1.4,Win32,60.04924038,6299f149e92ead563fba08ef,62a441b89f8d1c2ad8d6ddd4,,,,,,,,,,,,,,,,,,,,,,,,,,,,,,,,,,,,,,,,,,,,,,,,,,,,,,,,,,,,,,,,,,,,,,,,,,,,2,0,2,0,1,,,,,,,,,,,,,,,,,,,,,
,,,,,,,,,,,,5f14a79820f9ef0a1e664d21,26,Mężczyzna,2022-06-11_09h21.41.984,task,2021.1.4,Win32,60.04924038,6299f149e92ead563fba08ef,62a441b89f8d1c2ad8d6ddd4,,,,,,,,,,,,,9,,,,,,,,,,Task,24,(2x2) + 5,9,,,,,,,,,,,,,,,,,,,1,,,,,,,,,,,,,,,,,,,,,,,"[""9""]",1,[2.9663000000000466],0,0,0,23,1,,,,,,,,,,,,,,,,,,,,,,,,,,
,,,,,,,,,,,X V Q F H G B L J M P D K C T S W R N Z,5f14a79820f9ef0a1e664d21,26,Mężczyzna,2022-06-11_09h21.41.984,task,2021.1.4,Win32,60.04924038,6299f149e92ead563fba08ef,62a441b89f8d1c2ad8d6ddd4,,,,,,,,,,,,,,,,,,,,,,,,,,,,,,,,,,,,,,,,,,,,,,,,,,,,,,,,,,,,,,,,,,,,,,,,,,,,3,0,3,0,1,,,,,,,,,,,,,,,,,,,,,
,,,,,,,,,,,,5f14a79820f9ef0a1e664d21,26,Mężczyzna,2022-06-11_09h21.41.984,task,2021.1.4,Win32,60.04924038,6299f149e92ead563fba08ef,62a441b89f8d1c2ad8d6ddd4,,,,,,,,,,,,,4,,,,,,,,,,Task,21,(10/2) - 1,4,,,,,,,,,,,,,,,,,,,1,,,,,,,,,,,,,,,,,,,,,,,"[""4""]",1,[1.970199999999977],0,0,0,20,1,,,,,,,,,,,,,,,,,,,,,,,,,,
,,,,,,,,,,,X V Q F H G B L J M P D K C T S W R N Z,5f14a79820f9ef0a1e664d21,26,Mężczyzna,2022-06-11_09h21.41.984,task,2021.1.4,Win32,60.04924038,6299f149e92ead563fba08ef,62a441b89f8d1c2ad8d6ddd4,,,,,,,,,,,,,,,,,,,,,,,,,,,,,,,,,,,,,,,,,,,,,,,,,,,,,,,,,,,,,,,,,,,,,,,,,,,,4,0,4,0,1,,,,,,,,,,,,,,,,,,,,,
,,,,,,,,,,,,5f14a79820f9ef0a1e664d21,26,Mężczyzna,2022-06-11_09h21.41.984,task,2021.1.4,Win32,60.04924038,6299f149e92ead563fba08ef,62a441b89f8d1c2ad8d6ddd4,,,,,,,,,,,,,8,,,,,,,,,,Task,32,(8/2) + 4,8,,,,,,,,,,,,,,,,,,,1,,,,,,,,,,,,,,,,,,,,,,,"[""8""]",1,[2.1960000000000264],0,0,0,31,1,,,,,,,,,,,,,,,,,,,,,,,,,,
,,,,,,,,,,,X V Q F H G B L J M P D K C T S W R N Z,5f14a79820f9ef0a1e664d21,26,Mężczyzna,2022-06-11_09h21.41.984,task,2021.1.4,Win32,60.04924038,6299f149e92ead563fba08ef,62a441b89f8d1c2ad8d6ddd4,,,,,,,,,,,,,,,,,,,,,,,,,,,,,,,,,,,,,,,,,,,,,,,,,,,,,,,,,,,,,,,,,,,,,,,,,,,,5,0,5,0,1,,,,,,,,,,,,,,,,,,,,,
,,,,,,,,,,,,5f14a79820f9ef0a1e664d21,26,Mężczyzna,2022-06-11_09h21.41.984,task,2021.1.4,Win32,60.04924038,6299f149e92ead563fba08ef,62a441b89f8d1c2ad8d6ddd4,,,,,,,,,,,,,3,,,,,,,,,,Task,35,(1x2) + 1,3,,,,,,,,,,,,,,,,,,,1,,,,,,,,,,,,,,,,,,,,,,,"[""3""]",1,[3.3693000000000666],0,0,0,34,1,,,,,,,,,,,,,,,,,,,,,,,,,,
,,,,,,,,,,,X V Q F H G B L J M P D K C T S W R N Z,5f14a79820f9ef0a1e664d21,26,Mężczyzna,2022-06-11_09h21.41.984,task,2021.1.4,Win32,60.04924038,6299f149e92ead563fba08ef,62a441b89f8d1c2ad8d6ddd4,,,,,,,,,,,,,,,,,,,,,,,,,,,,,,,,,,,,,,,,,,,,,,,,,,,,,,,,,,,,,,,,,,,,,,,,,,,,6,0,6,0,1,,,,,,,,,,,,,,,,,,,,,
,,,,,,,,,,,,5f14a79820f9ef0a1e664d21,26,Mężczyzna,2022-06-11_09h21.41.984,task,2021.1.4,Win32,60.04924038,6299f149e92ead563fba08ef,62a441b89f8d1c2ad8d6ddd4,,,,,,,,,,,,,8,,,,,,,,,,Task,32,(8/2) + 4,8,,,,,,,,,,,,,,,,,,,1,,,,,,,,,,,,,,,,,,,,,,,"[""8""]",1,[2.70799999999997],0,0,0,31,1,,,,,,,,,,,,,,,,,,,,,,,,,,
,,,,,,,,,,,X V Q F H G B L J M P D K C T S W R N Z,5f14a79820f9ef0a1e664d21,26,Mężczyzna,2022-06-11_09h21.41.984,task,2021.1.4,Win32,60.04924038,6299f149e92ead563fba08ef,62a441b89f8d1c2ad8d6ddd4,,,,,,,,,,,,,,,,,,,,,,,,,,,,,,,,,,,,,,,,,,,,,,,,,,,,,,,,,,,,,,,,,,,,,,,,,,,,7,0,7,0,1,,,,,,,,,,,,,,,,,,,,,
,,,,,,,,,,,,5f14a79820f9ef0a1e664d21,26,Mężczyzna,2022-06-11_09h21.41.984,task,2021.1.4,Win32,60.04924038,6299f149e92ead563fba08ef,62a441b89f8d1c2ad8d6ddd4,,,,,,,,,,,,,2,,,,,,,,,,Task,2,(2x2) - 2,2,,,,,,,,,,,,,,,,,,,1,,,,,,,,,,,,,,,,,,,,,,,"[""2""]",1,[2.5452000000001362],0,0,0,1,1,,,,,,,,,,,,,,,,,,,,,,,,,,
,,,,,,,,,,,X V Q F H G B L J M P D K C T S W R N Z,5f14a79820f9ef0a1e664d21,26,Mężczyzna,2022-06-11_09h21.41.984,task,2021.1.4,Win32,60.04924038,6299f149e92ead563fba08ef,62a441b89f8d1c2ad8d6ddd4,,,,,,,,,,,,,,,,,,,,,,,,,,,,,,,,,,,,,,,,,,,,,,,,,,,,,,,,,,,,,,,,,,,,,,,,,,,,8,0,8,0,1,,,,,,,,,,,,,,,,,,,,,
,,,,,,,,,,,,5f14a79820f9ef0a1e664d21,26,Mężczyzna,2022-06-11_09h21.41.984,task,2021.1.4,Win32,60.04924038,6299f149e92ead563fba08ef,62a441b89f8d1c2ad8d6ddd4,,,,,,,,,,,,,0,,,,,,,,,,Task,25,(10/5) - 2,0,,,,,,,,,,,,,,,,,,,1,,,,,,,,,,,,,,,,,,,,,,,"[""0""]",1,[2.2293999999999414],0,0,0,24,1,,,,,,,,,,,,,,,,,,,,,,,,,,
,,,,,,,,,,,X V Q F H G B L J M P D K C T S W R N Z,5f14a79820f9ef0a1e664d21,26,Mężczyzna,2022-06-11_09h21.41.984,task,2021.1.4,Win32,60.04924038,6299f149e92ead563fba08ef,62a441b89f8d1c2ad8d6ddd4,,,,,,,,,,,,,,,,,,,,,,,,,,,,,,,,,,,,,,,,,,,,,,,,,,,,,,,,,,,,,,,,,,,,,,,,,,,,9,0,9,0,1,,,,,,,,,,,,,,,,,,,,,
,,,,,,,,,,,,5f14a79820f9ef0a1e664d21,26,Mężczyzna,2022-06-11_09h21.41.984,task,2021.1.4,Win32,60.04924038,6299f149e92ead563fba08ef,62a441b89f8d1c2ad8d6ddd4,,,,,,,,,,,,,,,,,,,,,,,,,,,,,,,,,,,,,,,,,,,,,,,,,,,,,,,,,,,,,,,,,,,,,,,,,,,,,,,,,npxrjvqlvf,"[""n"",""p"",""x"",""r"",""j"",""v"",""q"",""l"",""v"",""f""]",0,"[2.6657000000002427,3.605400000000145,4.582600000000184,5.667600000000107,6.402900000000159,7.928700000000276,8.73599999999999,9.440400000000182,10.61810000000014,11.348800000000097,12.078500000000076]",1,NPXRJVQLVF,8,0,8,0,1,,,,,,,,,,
,,,,,,,,,,,,5f14a79820f9ef0a1e664d21,26,Mężczyzna,2022-06-11_09h21.41.984,task,2021.1.4,Win32,60.04924038,6299f149e92ead563fba08ef,62a441b89f8d1c2ad8d6ddd4,,,,,,,,,,,,,3,,,,,,,,,,Task,20,(18/9) + 1,3,,,,,,,,,,,,,,,,,,,1,,,,,,,,,,,,,,,,,,,,,,,"[""3""]",1,[3.303500000000099],0,0,0,19,1,,,,,,,,,,,,,,,,,,,,,,,,,,
,,,,,,,,,,,X V Q F H G B L J M P D K C T S W R N Z,5f14a79820f9ef0a1e664d21,26,Mężczyzna,2022-06-11_09h21.41.984,task,2021.1.4,Win32,60.04924038,6299f149e92ead563fba08ef,62a441b89f8d1c2ad8d6ddd4,,,,,,,,,,,,,,,,,,,,,,,,,,,,,,,,,,,,,,,,,,,,,,,,,,,,,,,,,,,,,,,,,,,,,,,,,,,,0,0,0,0,1,,,,,,,,,,,,,,,,,,,,,
,,,,,,,,,,,,5f14a79820f9ef0a1e664d21,26,Mężczyzna,2022-06-11_09h21.41.984,task,2021.1.4,Win32,60.04924038,6299f149e92ead563fba08ef,62a441b89f8d1c2ad8d6ddd4,,,,,,,,,,,,,2,,,,,,,,,,Task,26,(2x9) - 16,2,,,,,,,,,,,,,,,,,,,1,,,,,,,,,,,,,,,,,,,,,,,"[""2""]",1,[5.115100000000098],0,0,0,25,1,,,,,,,,,,,,,,,,,,,,,,,,,,
,,,,,,,,,,,X V Q F H G B L J M P D K C T S W R N Z,5f14a79820f9ef0a1e664d21,26,Mężczyzna,2022-06-11_09h21.41.984,task,2021.1.4,Win32,60.04924038,6299f149e92ead563fba08ef,62a441b89f8d1c2ad8d6ddd4,,,,,,,,,,,,,,,,,,,,,,,,,,,,,,,,,,,,,,,,,,,,,,,,,,,,,,,,,,,,,,,,,,,,,,,,,,,,1,0,1,0,1,,,,,,,,,,,,,,,,,,,,,
,,,,,,,,,,,,5f14a79820f9ef0a1e664d21,26,Mężczyzna,2022-06-11_09h21.41.984,task,2021.1.4,Win32,60.04924038,6299f149e92ead563fba08ef,62a441b89f8d1c2ad8d6ddd4,,,,,,,,,,,,,1,,,,,,,,,,Task,18,(16/4) - 3,1,,,,,,,,,,,,,,,,,,,1,,,,,,,,,,,,,,,,,,,,,,,"[""1""]",1,[2.9437000000000353],0,0,0,17,1,,,,,,,,,,,,,,,,,,,,,,,,,,
,,,,,,,,,,,X V Q F H G B L J M P D K C T S W R N Z,5f14a79820f9ef0a1e664d21,26,Mężczyzna,2022-06-11_09h21.41.984,task,2021.1.4,Win32,60.04924038,6299f149e92ead563fba08ef,62a441b89f8d1c2ad8d6ddd4,,,,,,,,,,,,,,,,,,,,,,,,,,,,,,,,,,,,,,,,,,,,,,,,,,,,,,,,,,,,,,,,,,,,,,,,,,,,2,0,2,0,1,,,,,,,,,,,,,,,,,,,,,
,,,,,,,,,,,,5f14a79820f9ef0a1e664d21,26,Mężczyzna,2022-06-11_09h21.41.984,task,2021.1.4,Win32,60.04924038,6299f149e92ead563fba08ef,62a441b89f8d1c2ad8d6ddd4,,,,,,,,,,,,,3,,,,,,,,,,Task,20,(18/9) + 1,3,,,,,,,,,,,,,,,,,,,1,,,,,,,,,,,,,,,,,,,,,,,"[""3""]",1,[3.4338000000000193],0,0,0,19,1,,,,,,,,,,,,,,,,,,,,,,,,,,
,,,,,,,,,,,X V Q F H G B L J M P D K C T S W R N Z,5f14a79820f9ef0a1e664d21,26,Mężczyzna,2022-06-11_09h21.41.984,task,2021.1.4,Win32,60.04924038,6299f149e92ead563fba08ef,62a441b89f8d1c2ad8d6ddd4,,,,,,,,,,,,,,,,,,,,,,,,,,,,,,,,,,,,,,,,,,,,,,,,,,,,,,,,,,,,,,,,,,,,,,,,,,,,3,0,3,0,1,,,,,,,,,,,,,,,,,,,,,
,,,,,,,,,,,,5f14a79820f9ef0a1e664d21,26,Mężczyzna,2022-06-11_09h21.41.984,task,2021.1.4,Win32,60.04924038,6299f149e92ead563fba08ef,62a441b89f8d1c2ad8d6ddd4,,,,,,,,,,,,,0,,,,,,,,,,Task,25,(10/5) - 2,0,,,,,,,,,,,,,,,,,,,1,,,,,,,,,,,,,,,,,,,,,,,"[""0""]",1,[1.8133000000001402],0,0,0,24,1,,,,,,,,,,,,,,,,,,,,,,,,,,
,,,,,,,,,,,X V Q F H G B L J M P D K C T S W R N Z,5f14a79820f9ef0a1e664d21,26,Mężczyzna,2022-06-11_09h21.41.984,task,2021.1.4,Win32,60.04924038,6299f149e92ead563fba08ef,62a441b89f8d1c2ad8d6ddd4,,,,,,,,,,,,,,,,,,,,,,,,,,,,,,,,,,,,,,,,,,,,,,,,,,,,,,,,,,,,,,,,,,,,,,,,,,,,4,0,4,0,1,,,,,,,,,,,,,,,,,,,,,
,,,,,,,,,,,,5f14a79820f9ef0a1e664d21,26,Mężczyzna,2022-06-11_09h21.41.984,task,2021.1.4,Win32,60.04924038,6299f149e92ead563fba08ef,62a441b89f8d1c2ad8d6ddd4,,,,,,,,,,,,,7,,,,,,,,,,Task,6,(12/2) + 1,7,,,,,,,,,,,,,,,,,,,1,,,,,,,,,,,,,,,,,,,,,,,"[""7""]",1,[1.8862000000002581],0,0,0,5,1,,,,,,,,,,,,,,,,,,,,,,,,,,
,,,,,,,,,,,X V Q F H G B L J M P D K C T S W R N Z,5f14a79820f9ef0a1e664d21,26,Mężczyzna,2022-06-11_09h21.41.984,task,2021.1.4,Win32,60.04924038,6299f149e92ead563fba08ef,62a441b89f8d1c2ad8d6ddd4,,,,,,,,,,,,,,,,,,,,,,,,,,,,,,,,,,,,,,,,,,,,,,,,,,,,,,,,,,,,,,,,,,,,,,,,,,,,5,0,5,0,1,,,,,,,,,,,,,,,,,,,,,
,,,,,,,,,,,,5f14a79820f9ef0a1e664d21,26,Mężczyzna,2022-06-11_09h21.41.984,task,2021.1.4,Win32,60.04924038,6299f149e92ead563fba08ef,62a441b89f8d1c2ad8d6ddd4,,,,,,,,,,,,,2,,,,,,,,,,Task,10,(2x5) - 8,2,,,,,,,,,,,,,,,,,,,1,,,,,,,,,,,,,,,,,,,,,,,"[""2""]",1,[2.3084000000001197],0,0,0,9,1,,,,,,,,,,,,,,,,,,,,,,,,,,
,,,,,,,,,,,X V Q F H G B L J M P D K C T S W R N Z,5f14a79820f9ef0a1e664d21,26,Mężczyzna,2022-06-11_09h21.41.984,task,2021.1.4,Win32,60.04924038,6299f149e92ead563fba08ef,62a441b89f8d1c2ad8d6ddd4,,,,,,,,,,,,,,,,,,,,,,,,,,,,,,,,,,,,,,,,,,,,,,,,,,,,,,,,,,,,,,,,,,,,,,,,,,,,6,0,6,0,1,,,,,,,,,,,,,,,,,,,,,
,,,,,,,,,,,,5f14a79820f9ef0a1e664d21,26,Mężczyzna,2022-06-11_09h21.41.984,task,2021.1.4,Win32,60.04924038,6299f149e92ead563fba08ef,62a441b89f8d1c2ad8d6ddd4,,,,,,,,,,,,,6,,,,,,,,,,Task,5,(2x3) + 0,6,,,,,,,,,,,,,,,,,,,1,,,,,,,,,,,,,,,,,,,,,,,"[""6""]",1,[2.11099999999999],0,0,0,4,1,,,,,,,,,,,,,,,,,,,,,,,,,,
,,,,,,,,,,,X V Q F H G B L J M P D K C T S W R N Z,5f14a79820f9ef0a1e664d21,26,Mężczyzna,2022-06-11_09h21.41.984,task,2021.1.4,Win32,60.04924038,6299f149e92ead563fba08ef,62a441b89f8d1c2ad8d6ddd4,,,,,,,,,,,,,,,,,,,,,,,,,,,,,,,,,,,,,,,,,,,,,,,,,,,,,,,,,,,,,,,,,,,,,,,,,,,,7,0,7,0,1,,,,,,,,,,,,,,,,,,,,,
,,,,,,,,,,,,5f14a79820f9ef0a1e664d21,26,Mężczyzna,2022-06-11_09h21.41.984,task,2021.1.4,Win32,60.04924038,6299f149e92ead563fba08ef,62a441b89f8d1c2ad8d6ddd4,,,,,,,,,,,,,8,,,,,,,,,,Task,32,(8/2) + 4,8,,,,,,,,,,,,,,,,,,,1,,,,,,,,,,,,,,,,,,,,,,,"[""8""]",1,[2.997100000000046],0,0,0,31,1,,,,,,,,,,,,,,,,,,,,,,,,,,
,,,,,,,,,,,X V Q F H G B L J M P D K C T S W R N Z,5f14a79820f9ef0a1e664d21,26,Mężczyzna,2022-06-11_09h21.41.984,task,2021.1.4,Win32,60.04924038,6299f149e92ead563fba08ef,62a441b89f8d1c2ad8d6ddd4,,,,,,,,,,,,,,,,,,,,,,,,,,,,,,,,,,,,,,,,,,,,,,,,,,,,,,,,,,,,,,,,,,,,,,,,,,,,8,0,8,0,1,,,,,,,,,,,,,,,,,,,,,
,,,,,,,,,,,,5f14a79820f9ef0a1e664d21,26,Mężczyzna,2022-06-11_09h21.41.984,task,2021.1.4,Win32,60.04924038,6299f149e92ead563fba08ef,62a441b89f8d1c2ad8d6ddd4,,,,,,,,,,,,,6,,,,,,,,,,Task,30,(6/3) + 4 ,6,,,,,,,,,,,,,,,,,,,1,,,,,,,,,,,,,,,,,,,,,,,"[""6""]",1,[2.7934999999999945],0,0,0,29,1,,,,,,,,,,,,,,,,,,,,,,,,,,
,,,,,,,,,,,X V Q F H G B L J M P D K C T S W R N Z,5f14a79820f9ef0a1e664d21,26,Mężczyzna,2022-06-11_09h21.41.984,task,2021.1.4,Win32,60.04924038,6299f149e92ead563fba08ef,62a441b89f8d1c2ad8d6ddd4,,,,,,,,,,,,,,,,,,,,,,,,,,,,,,,,,,,,,,,,,,,,,,,,,,,,,,,,,,,,,,,,,,,,,,,,,,,,9,0,9,0,1,,,,,,,,,,,,,,,,,,,,,
,,,,,,,,,,,,5f14a79820f9ef0a1e664d21,26,Mężczyzna,2022-06-11_09h21.41.984,task,2021.1.4,Win32,60.04924038,6299f149e92ead563fba08ef,62a441b89f8d1c2ad8d6ddd4,,,,,,,,,,,,,5,,,,,,,,,,Task,22,(3x1) + 2,5,,,,,,,,,,,,,,,,,,,1,,,,,,,,,,,,,,,,,,,,,,,"[""5""]",1,[2.316099999999892],0,0,0,21,1,,,,,,,,,,,,,,,,,,,,,,,,,,
,,,,,,,,,,,X V Q F H G B L J M P D K C T S W R N Z,5f14a79820f9ef0a1e664d21,26,Mężczyzna,2022-06-11_09h21.41.984,task,2021.1.4,Win32,60.04924038,6299f149e92ead563fba08ef,62a441b89f8d1c2ad8d6ddd4,,,,,,,,,,,,,,,,,,,,,,,,,,,,,,,,,,,,,,,,,,,,,,,,,,,,,,,,,,,,,,,,,,,,,,,,,,,,10,0,10,0,1,,,,,,,,,,,,,,,,,,,,,
,,,,,,,,,,,,5f14a79820f9ef0a1e664d21,26,Mężczyzna,2022-06-11_09h21.41.984,task,2021.1.4,Win32,60.04924038,6299f149e92ead563fba08ef,62a441b89f8d1c2ad8d6ddd4,,,,,,,,,,,,,,,,,,,,,,,,,,,,,,,,,,,,,,,,,,,,,,,,,,,,,,,,,,,,,,,,,,,,,,,,,,,,,,,,,srctnzrjcfq,"[""s"",""r"",""c"",""t"",""n"",""z"",""r"",""j"",""c"",""f"",""q""]",0,"[2.594400000000064,3.1923000000000457,4.692000000000007,5.291499999999928,6.427699999999959,7.158400000000142,13.46180000000004,14.738100000000031,17.250800000000027,17.7666999999999,18.265400000000113,18.989599999999996]",1,SRCTNZRJCFQ,9,0,9,0,1,,,,,,,,,,
,,,,,,,,,,,,5f14a79820f9ef0a1e664d21,26,Mężczyzna,2022-06-11_09h21.41.984,task,2021.1.4,Win32,60.04924038,6299f149e92ead563fba08ef,62a441b89f8d1c2ad8d6ddd4,,,,,,,,,,,,,4,,,,,,,,,,Task,28,(2x5) - 6,4,,,,,,,,,,,,,,,,,,,1,,,,,,,,,,,,,,,,,,,,,,,"[""4""]",1,[3.284999999999968],0,0,0,27,1,,,,,,,,,,,,,,,,,,,,,,,,,,
,,,,,,,,,,,X V Q F H G B L J M P D K C T S W R N Z,5f14a79820f9ef0a1e664d21,26,Mężczyzna,2022-06-11_09h21.41.984,task,2021.1.4,Win32,60.04924038,6299f149e92ead563fba08ef,62a441b89f8d1c2ad8d6ddd4,,,,,,,,,,,,,,,,,,,,,,,,,,,,,,,,,,,,,,,,,,,,,,,,,,,,,,,,,,,,,,,,,,,,,,,,,,,,0,0,0,0,1,,,,,,,,,,,,,,,,,,,,,
,,,,,,,,,,,,5f14a79820f9ef0a1e664d21,26,Mężczyzna,2022-06-11_09h21.41.984,task,2021.1.4,Win32,60.04924038,6299f149e92ead563fba08ef,62a441b89f8d1c2ad8d6ddd4,,,,,,,,,,,,,2,,,,,,,,,,Task,19,(6/2) - 1,2,,,,,,,,,,,,,,,,,,,1,,,,,,,,,,,,,,,,,,,,,,,"[""2""]",1,[2.9286000000001877],0,0,0,18,1,,,,,,,,,,,,,,,,,,,,,,,,,,
,,,,,,,,,,,X V Q F H G B L J M P D K C T S W R N Z,5f14a79820f9ef0a1e664d21,26,Mężczyzna,2022-06-11_09h21.41.984,task,2021.1.4,Win32,60.04924038,6299f149e92ead563fba08ef,62a441b89f8d1c2ad8d6ddd4,,,,,,,,,,,,,,,,,,,,,,,,,,,,,,,,,,,,,,,,,,,,,,,,,,,,,,,,,,,,,,,,,,,,,,,,,,,,1,0,1,0,1,,,,,,,,,,,,,,,,,,,,,
,,,,,,,,,,,,5f14a79820f9ef0a1e664d21,26,Mężczyzna,2022-06-11_09h21.41.984,task,2021.1.4,Win32,60.04924038,6299f149e92ead563fba08ef,62a441b89f8d1c2ad8d6ddd4,,,,,,,,,,,,,1,,,,,,,,,,Task,16,(3x8) - 15,9,,,,,,,,,,,,,,,,,,,0,,,,,,,,,,,,,,,,,,,,,,,"[""1""]",0,[1.9463000000000648],0,0,0,15,1,,,,,,,,,,,,,,,,,,,,,,,,,,
,,,,,,,,,,,,5f14a79820f9ef0a1e664d21,26,Mężczyzna,2022-06-11_09h21.41.984,task,2021.1.4,Win32,60.04924038,6299f149e92ead563fba08ef,62a441b89f8d1c2ad8d6ddd4,,,,,,,,,,,,,1,,,,,,,,,,Task,34,(9/3) - 2,1,,,,,,,,,,,,,,,,,,,1,,,,,,,,,,,,,,,,,,,,,,,"[""1""]",1,[4.922700000000191],0,1,1,33,1,,,,,,,,,,,,,,,,,,,,,,,,,,
,,,,,,,,,,,X V Q F H G B L J M P D K C T S W R N Z,5f14a79820f9ef0a1e664d21,26,Mężczyzna,2022-06-11_09h21.41.984,task,2021.1.4,Win32,60.04924038,6299f149e92ead563fba08ef,62a441b89f8d1c2ad8d6ddd4,,,,,,,,,,,,,,,,,,,,,,,,,,,,,,,,,,,,,,,,,,,,,,,,,,,,,,,,,,,,,,,,,,,,,,,,,,,,2,0,2,0,1,,,,,,,,,,,,,,,,,,,,,
,,,,,,,,,,,,5f14a79820f9ef0a1e664d21,26,Mężczyzna,2022-06-11_09h21.41.984,task,2021.1.4,Win32,60.04924038,6299f149e92ead563fba08ef,62a441b89f8d1c2ad8d6ddd4,,,,,,,,,,,,,4,,,,,,,,,,Task,21,(10/2) - 1,4,,,,,,,,,,,,,,,,,,,1,,,,,,,,,,,,,,,,,,,,,,,"[""4""]",1,[2.0628000000000384],0,0,0,20,1,,,,,,,,,,,,,,,,,,,,,,,,,,
,,,,,,,,,,,X V Q F H G B L J M P D K C T S W R N Z,5f14a79820f9ef0a1e664d21,26,Mężczyzna,2022-06-11_09h21.41.984,task,2021.1.4,Win32,60.04924038,6299f149e92ead563fba08ef,62a441b89f8d1c2ad8d6ddd4,,,,,,,,,,,,,,,,,,,,,,,,,,,,,,,,,,,,,,,,,,,,,,,,,,,,,,,,,,,,,,,,,,,,,,,,,,,,3,0,3,0,1,,,,,,,,,,,,,,,,,,,,,
,,,,,,,,,,,,5f14a79820f9ef0a1e664d21,26,Mężczyzna,2022-06-11_09h21.41.984,task,2021.1.4,Win32,60.04924038,6299f149e92ead563fba08ef,62a441b89f8d1c2ad8d6ddd4,,,,,,,,,,,,,7,,,,,,,,,,Task,6,(12/2) + 1,7,,,,,,,,,,,,,,,,,,,1,,,,,,,,,,,,,,,,,,,,,,,"[""7""]",1,[2.796000000000049],0,0,0,5,1,,,,,,,,,,,,,,,,,,,,,,,,,,
,,,,,,,,,,,X V Q F H G B L J M P D K C T S W R N Z,5f14a79820f9ef0a1e664d21,26,Mężczyzna,2022-06-11_09h21.41.984,task,2021.1.4,Win32,60.04924038,6299f149e92ead563fba08ef,62a441b89f8d1c2ad8d6ddd4,,,,,,,,,,,,,,,,,,,,,,,,,,,,,,,,,,,,,,,,,,,,,,,,,,,,,,,,,,,,,,,,,,,,,,,,,,,,4,0,4,0,1,,,,,,,,,,,,,,,,,,,,,
,,,,,,,,,,,,5f14a79820f9ef0a1e664d21,26,Mężczyzna,2022-06-11_09h21.41.984,task,2021.1.4,Win32,60.04924038,6299f149e92ead563fba08ef,62a441b89f8d1c2ad8d6ddd4,,,,,,,,,,,,,9,,,,,,,,,,Task,40,(7x2) - 5,9,,,,,,,,,,,,,,,,,,,1,,,,,,,,,,,,,,,,,,,,,,,"[""9""]",1,[5.08280000000002],0,0,0,39,1,,,,,,,,,,,,,,,,,,,,,,,,,,
,,,,,,,,,,,X V Q F H G B L J M P D K C T S W R N Z,5f14a79820f9ef0a1e664d21,26,Mężczyzna,2022-06-11_09h21.41.984,task,2021.1.4,Win32,60.04924038,6299f149e92ead563fba08ef,62a441b89f8d1c2ad8d6ddd4,,,,,,,,,,,,,,,,,,,,,,,,,,,,,,,,,,,,,,,,,,,,,,,,,,,,,,,,,,,,,,,,,,,,,,,,,,,,5,0,5,0,1,,,,,,,,,,,,,,,,,,,,,
,,,,,,,,,,,,5f14a79820f9ef0a1e664d21,26,Mężczyzna,2022-06-11_09h21.41.984,task,2021.1.4,Win32,60.04924038,6299f149e92ead563fba08ef,62a441b89f8d1c2ad8d6ddd4,,,,,,,,,,,,,9,,,,,,,,,,Task,15,(3x7) - 13,8,,,,,,,,,,,,,,,,,,,0,,,,,,,,,,,,,,,,,,,,,,,"[""9""]",0,[4.099700000000212],0,0,0,14,1,,,,,,,,,,,,,,,,,,,,,,,,,,
,,,,,,,,,,,,5f14a79820f9ef0a1e664d21,26,Mężczyzna,2022-06-11_09h21.41.984,task,2021.1.4,Win32,60.04924038,6299f149e92ead563fba08ef,62a441b89f8d1c2ad8d6ddd4,,,,,,,,,,,,,6,,,,,,,,,,Task,13,(3x4) - 6,6,,,,,,,,,,,,,,,,,,,1,,,,,,,,,,,,,,,,,,,,,,,"[""6""]",1,[7.140100000000075],0,1,1,12,1,,,,,,,,,,,,,,,,,,,,,,,,,,
,,,,,,,,,,,X V Q F H G B L J M P D K C T S W R N Z,5f14a79820f9ef0a1e664d21,26,Mężczyzna,2022-06-11_09h21.41.984,task,2021.1.4,Win32,60.04924038,6299f149e92ead563fba08ef,62a441b89f8d1c2ad8d6ddd4,,,,,,,,,,,,,,,,,,,,,,,,,,,,,,,,,,,,,,,,,,,,,,,,,,,,,,,,,,,,,,,,,,,,,,,,,,,,6,0,6,0,1,,,,,,,,,,,,,,,,,,,,,
,,,,,,,,,,,,5f14a79820f9ef0a1e664d21,26,Mężczyzna,2022-06-11_09h21.41.984,task,2021.1.4,Win32,60.04924038,6299f149e92ead563fba08ef,62a441b89f8d1c2ad8d6ddd4,,,,,,,,,,,,,6,,,,,,,,,,Task,37,(3/3) + 5,6,,,,,,,,,,,,,,,,,,,1,,,,,,,,,,,,,,,,,,,,,,,"[""6""]",1,[4.9103000000000065],0,0,0,36,1,,,,,,,,,,,,,,,,,,,,,,,,,,
,,,,,,,,,,,X V Q F H G B L J M P D K C T S W R N Z,5f14a79820f9ef0a1e664d21,26,Mężczyzna,2022-06-11_09h21.41.984,task,2021.1.4,Win32,60.04924038,6299f149e92ead563fba08ef,62a441b89f8d1c2ad8d6ddd4,,,,,,,,,,,,,,,,,,,,,,,,,,,,,,,,,,,,,,,,,,,,,,,,,,,,,,,,,,,,,,,,,,,,,,,,,,,,7,0,7,0,1,,,,,,,,,,,,,,,,,,,,,
,,,,,,,,,,,,5f14a79820f9ef0a1e664d21,26,Mężczyzna,2022-06-11_09h21.41.984,task,2021.1.4,Win32,60.04924038,6299f149e92ead563fba08ef,62a441b89f8d1c2ad8d6ddd4,,,,,,,,,,,,,9,,,,,,,,,,Task,16,(3x8) - 15,9,,,,,,,,,,,,,,,,,,,1,,,,,,,,,,,,,,,,,,,,,,,"[""9""]",1,[3.626399999999876],0,0,0,15,1,,,,,,,,,,,,,,,,,,,,,,,,,,
,,,,,,,,,,,X V Q F H G B L J M P D K C T S W R N Z,5f14a79820f9ef0a1e664d21,26,Mężczyzna,2022-06-11_09h21.41.984,task,2021.1.4,Win32,60.04924038,6299f149e92ead563fba08ef,62a441b89f8d1c2ad8d6ddd4,,,,,,,,,,,,,,,,,,,,,,,,,,,,,,,,,,,,,,,,,,,,,,,,,,,,,,,,,,,,,,,,,,,,,,,,,,,,8,0,8,0,1,,,,,,,,,,,,,,,,,,,,,
,,,,,,,,,,,,5f14a79820f9ef0a1e664d21,26,Mężczyzna,2022-06-11_09h21.41.984,task,2021.1.4,Win32,60.04924038,6299f149e92ead563fba08ef,62a441b89f8d1c2ad8d6ddd4,,,,,,,,,,,,,0,,,,,,,,,,Task,33,(1/1) - 1,0,,,,,,,,,,,,,,,,,,,1,,,,,,,,,,,,,,,,,,,,,,,"[""0""]",1,[3.466699999999946],0,0,0,32,1,,,,,,,,,,,,,,,,,,,,,,,,,,
,,,,,,,,,,,X V Q F H G B L J M P D K C T S W R N Z,5f14a79820f9ef0a1e664d21,26,Mężczyzna,2022-06-11_09h21.41.984,task,2021.1.4,Win32,60.04924038,6299f149e92ead563fba08ef,62a441b89f8d1c2ad8d6ddd4,,,,,,,,,,,,,,,,,,,,,,,,,,,,,,,,,,,,,,,,,,,,,,,,,,,,,,,,,,,,,,,,,,,,,,,,,,,,9,0,9,0,1,,,,,,,,,,,,,,,,,,,,,
,,,,,,,,,,,,5f14a79820f9ef0a1e664d21,26,Mężczyzna,2022-06-11_09h21.41.984,task,2021.1.4,Win32,60.04924038,6299f149e92ead563fba08ef,62a441b89f8d1c2ad8d6ddd4,,,,,,,,,,,,,4,,,,,,,,,,Task,11,(18/3) - 2,4,,,,,,,,,,,,,,,,,,,1,,,,,,,,,,,,,,,,,,,,,,,"[""4""]",1,[7.012200000000007],0,0,0,10,1,,,,,,,,,,,,,,,,,,,,,,,,,,
,,,,,,,,,,,X V Q F H G B L J M P D K C T S W R N Z,5f14a79820f9ef0a1e664d21,26,Mężczyzna,2022-06-11_09h21.41.984,task,2021.1.4,Win32,60.04924038,6299f149e92ead563fba08ef,62a441b89f8d1c2ad8d6ddd4,,,,,,,,,,,,,,,,,,,,,,,,,,,,,,,,,,,,,,,,,,,,,,,,,,,,,,,,,,,,,,,,,,,,,,,,,,,,10,0,10,0,1,,,,,,,,,,,,,,,,,,,,,
,,,,,,,,,,,,5f14a79820f9ef0a1e664d21,26,Mężczyzna,2022-06-11_09h21.41.984,task,2021.1.4,Win32,60.04924038,6299f149e92ead563fba08ef,62a441b89f8d1c2ad8d6ddd4,,,,,,,,,,,,,0,,,,,,,,,,Task,8,(1x5) - 5,0,,,,,,,,,,,,,,,,,,,1,,,,,,,,,,,,,,,,,,,,,,,"[""0""]",1,[2.127899999999954],0,0,0,7,1,,,,,,,,,,,,,,,,,,,,,,,,,,
,,,,,,,,,,,X V Q F H G B L J M P D K C T S W R N Z,5f14a79820f9ef0a1e664d21,26,Mężczyzna,2022-06-11_09h21.41.984,task,2021.1.4,Win32,60.04924038,6299f149e92ead563fba08ef,62a441b89f8d1c2ad8d6ddd4,,,,,,,,,,,,,,,,,,,,,,,,,,,,,,,,,,,,,,,,,,,,,,,,,,,,,,,,,,,,,,,,,,,,,,,,,,,,11,0,11,0,1,,,,,,,,,,,,,,,,,,,,,
,,,,,,,,,,,,5f14a79820f9ef0a1e664d21,26,Mężczyzna,2022-06-11_09h21.41.984,task,2021.1.4,Win32,60.04924038,6299f149e92ead563fba08ef,62a441b89f8d1c2ad8d6ddd4,,,,,,,,,,,,,,,,,,,,,,,,,,,,,,,,,,,,,,,,,,,,,,,,,,,,,,,,,,,,,,,,,,,,,,,,,,,,,,,,,cwrmvltdzdq,"[""c"",""w"",""r"",""m"",""v"",""l"",""t"",""d"",""z"",""d"",""q""]",0,"[2.2029999999999745,2.6043999999998277,4.4457999999997355,5.171599999999785,7.261799999999766,8.519000000000005,9.344799999999736,10.128199999999879,12.261499999999955,12.624299999999721,12.872399999999857,13.582199999999943]",0,CWRMVLTDTZDQ,10,0,10,0,1,,,,,,,,,,
,,,,,,,,,,,,5f14a79820f9ef0a1e664d21,26,Mężczyzna,2022-06-11_09h21.41.984,task,2021.1.4,Win32,60.04924038,6299f149e92ead563fba08ef,62a441b89f8d1c2ad8d6ddd4,,,,,,,,,,,,,1,,,,,,,,,,Task,34,(9/3) - 2,1,,,,,,,,,,,,,,,,,,,1,,,,,,,,,,,,,,,,,,,,,,,"[""1""]",1,[6.523300000000063],0,0,0,33,1,,,,,,,,,,,,,,,,,,,,,,,,,,
,,,,,,,,,,,X V Q F H G B L J M P D K C T S W R N Z,5f14a79820f9ef0a1e664d21,26,Mężczyzna,2022-06-11_09h21.41.984,task,2021.1.4,Win32,60.04924038,6299f149e92ead563fba08ef,62a441b89f8d1c2ad8d6ddd4,,,,,,,,,,,,,,,,,,,,,,,,,,,,,,,,,,,,,,,,,,,,,,,,,,,,,,,,,,,,,,,,,,,,,,,,,,,,0,0,0,0,1,,,,,,,,,,,,,,,,,,,,,
,,,,,,,,,,,,5f14a79820f9ef0a1e664d21,26,Mężczyzna,2022-06-11_09h21.41.984,task,2021.1.4,Win32,60.04924038,6299f149e92ead563fba08ef,62a441b89f8d1c2ad8d6ddd4,,,,,,,,,,,,,0,,,,,,,,,,Task,8,(1x5) - 5,0,,,,,,,,,,,,,,,,,,,1,,,,,,,,,,,,,,,,,,,,,,,"[""0""]",1,[2.5403000000001157],0,0,0,7,1,,,,,,,,,,,,,,,,,,,,,,,,,,
,,,,,,,,,,,X V Q F H G B L J M P D K C T S W R N Z,5f14a79820f9ef0a1e664d21,26,Mężczyzna,2022-06-11_09h21.41.984,task,2021.1.4,Win32,60.04924038,6299f149e92ead563fba08ef,62a441b89f8d1c2ad8d6ddd4,,,,,,,,,,,,,,,,,,,,,,,,,,,,,,,,,,,,,,,,,,,,,,,,,,,,,,,,,,,,,,,,,,,,,,,,,,,,1,0,1,0,1,,,,,,,,,,,,,,,,,,,,,
,,,,,,,,,,,,5f14a79820f9ef0a1e664d21,26,Mężczyzna,2022-06-11_09h21.41.984,task,2021.1.4,Win32,60.04924038,6299f149e92ead563fba08ef,62a441b89f8d1c2ad8d6ddd4,,,,,,,,,,,,,0,,,,,,,,,,Task,17,(2x3) - 6,0,,,,,,,,,,,,,,,,,,,1,,,,,,,,,,,,,,,,,,,,,,,"[""0""]",1,[2.2232999999999947],0,0,0,16,1,,,,,,,,,,,,,,,,,,,,,,,,,,
,,,,,,,,,,,X V Q F H G B L J M P D K C T S W R N Z,5f14a79820f9ef0a1e664d21,26,Mężczyzna,2022-06-11_09h21.41.984,task,2021.1.4,Win32,60.04924038,6299f149e92ead563fba08ef,62a441b89f8d1c2ad8d6ddd4,,,,,,,,,,,,,,,,,,,,,,,,,,,,,,,,,,,,,,,,,,,,,,,,,,,,,,,,,,,,,,,,,,,,,,,,,,,,2,0,2,0,1,,,,,,,,,,,,,,,,,,,,,
,,,,,,,,,,,,5f14a79820f9ef0a1e664d21,26,Mężczyzna,2022-06-11_09h21.41.984,task,2021.1.4,Win32,60.04924038,6299f149e92ead563fba08ef,62a441b89f8d1c2ad8d6ddd4,,,,,,,,,,,,,7,,,,,,,,,,Task,38,(4x6) - 17,7,,,,,,,,,,,,,,,,,,,1,,,,,,,,,,,,,,,,,,,,,,,"[""7""]",1,[6.726499999999987],0,0,0,37,1,,,,,,,,,,,,,,,,,,,,,,,,,,
,,,,,,,,,,,X V Q F H G B L J M P D K C T S W R N Z,5f14a79820f9ef0a1e664d21,26,Mężczyzna,2022-06-11_09h21.41.984,task,2021.1.4,Win32,60.04924038,6299f149e92ead563fba08ef,62a441b89f8d1c2ad8d6ddd4,,,,,,,,,,,,,,,,,,,,,,,,,,,,,,,,,,,,,,,,,,,,,,,,,,,,,,,,,,,,,,,,,,,,,,,,,,,,3,0,3,0,1,,,,,,,,,,,,,,,,,,,,,
,,,,,,,,,,,,5f14a79820f9ef0a1e664d21,26,Mężczyzna,2022-06-11_09h21.41.984,task,2021.1.4,Win32,60.04924038,6299f149e92ead563fba08ef,62a441b89f8d1c2ad8d6ddd4,,,,,,,,,,,,,9,,,,,,,,,,Task,16,(3x8) - 15,9,,,,,,,,,,,,,,,,,,,1,,,,,,,,,,,,,,,,,,,,,,,"[""9""]",1,[3.7513000000001284],0,0,0,15,1,,,,,,,,,,,,,,,,,,,,,,,,,,
,,,,,,,,,,,X V Q F H G B L J M P D K C T S W R N Z,5f14a79820f9ef0a1e664d21,26,Mężczyzna,2022-06-11_09h21.41.984,task,2021.1.4,Win32,60.04924038,6299f149e92ead563fba08ef,62a441b89f8d1c2ad8d6ddd4,,,,,,,,,,,,,,,,,,,,,,,,,,,,,,,,,,,,,,,,,,,,,,,,,,,,,,,,,,,,,,,,,,,,,,,,,,,,4,0,4,0,1,,,,,,,,,,,,,,,,,,,,,
,,,,,,,,,,,,5f14a79820f9ef0a1e664d21,26,Mężczyzna,2022-06-11_09h21.41.984,task,2021.1.4,Win32,60.04924038,6299f149e92ead563fba08ef,62a441b89f8d1c2ad8d6ddd4,,,,,,,,,,,,,3,,,,,,,,,,Task,3,(2x3) - 3,3,,,,,,,,,,,,,,,,,,,1,,,,,,,,,,,,,,,,,,,,,,,"[""3""]",1,[4.470199999999977],0,0,0,2,1,,,,,,,,,,,,,,,,,,,,,,,,,,
,,,,,,,,,,,X V Q F H G B L J M P D K C T S W R N Z,5f14a79820f9ef0a1e664d21,26,Mężczyzna,2022-06-11_09h21.41.984,task,2021.1.4,Win32,60.04924038,6299f149e92ead563fba08ef,62a441b89f8d1c2ad8d6ddd4,,,,,,,,,,,,,,,,,,,,,,,,,,,,,,,,,,,,,,,,,,,,,,,,,,,,,,,,,,,,,,,,,,,,,,,,,,,,5,0,5,0,1,,,,,,,,,,,,,,,,,,,,,
,,,,,,,,,,,,5f14a79820f9ef0a1e664d21,26,Mężczyzna,2022-06-11_09h21.41.984,task,2021.1.4,Win32,60.04924038,6299f149e92ead563fba08ef,62a441b89f8d1c2ad8d6ddd4,,,,,,,,,,,,,0,,,,,,,,,,Task,25,(10/5) - 2,0,,,,,,,,,,,,,,,,,,,1,,,,,,,,,,,,,,,,,,,,,,,"[""0""]",1,[3.8933999999999287],0,0,0,24,1,,,,,,,,,,,,,,,,,,,,,,,,,,
,,,,,,,,,,,X V Q F H G B L J M P D K C T S W R N Z,5f14a79820f9ef0a1e664d21,26,Mężczyzna,2022-06-11_09h21.41.984,task,2021.1.4,Win32,60.04924038,6299f149e92ead563fba08ef,62a441b89f8d1c2ad8d6ddd4,,,,,,,,,,,,,,,,,,,,,,,,,,,,,,,,,,,,,,,,,,,,,,,,,,,,,,,,,,,,,,,,,,,,,,,,,,,,6,0,6,0,1,,,,,,,,,,,,,,,,,,,,,
,,,,,,,,,,,,5f14a79820f9ef0a1e664d21,26,Mężczyzna,2022-06-11_09h21.41.984,task,2021.1.4,Win32,60.04924038,6299f149e92ead563fba08ef,62a441b89f8d1c2ad8d6ddd4,,,,,,,,,,,,,0,,,,,,,,,,Task,8,(1x5) - 5,0,,,,,,,,,,,,,,,,,,,1,,,,,,,,,,,,,,,,,,,,,,,"[""0""]",1,[1.6661999999998898],0,0,0,7,1,,,,,,,,,,,,,,,,,,,,,,,,,,
,,,,,,,,,,,X V Q F H G B L J M P D K C T S W R N Z,5f14a79820f9ef0a1e664d21,26,Mężczyzna,2022-06-11_09h21.41.984,task,2021.1.4,Win32,60.04924038,6299f149e92ead563fba08ef,62a441b89f8d1c2ad8d6ddd4,,,,,,,,,,,,,,,,,,,,,,,,,,,,,,,,,,,,,,,,,,,,,,,,,,,,,,,,,,,,,,,,,,,,,,,,,,,,7,0,7,0,1,,,,,,,,,,,,,,,,,,,,,
,,,,,,,,,,,,5f14a79820f9ef0a1e664d21,26,Mężczyzna,2022-06-11_09h21.41.984,task,2021.1.4,Win32,60.04924038,6299f149e92ead563fba08ef,62a441b89f8d1c2ad8d6ddd4,,,,,,,,,,,,,8,,,,,,,,,,Task,32,(8/2) + 4,8,,,,,,,,,,,,,,,,,,,1,,,,,,,,,,,,,,,,,,,,,,,"[""8""]",1,[3.9630999999999403],0,0,0,31,1,,,,,,,,,,,,,,,,,,,,,,,,,,
,,,,,,,,,,,X V Q F H G B L J M P D K C T S W R N Z,5f14a79820f9ef0a1e664d21,26,Mężczyzna,2022-06-11_09h21.41.984,task,2021.1.4,Win32,60.04924038,6299f149e92ead563fba08ef,62a441b89f8d1c2ad8d6ddd4,,,,,,,,,,,,,,,,,,,,,,,,,,,,,,,,,,,,,,,,,,,,,,,,,,,,,,,,,,,,,,,,,,,,,,,,,,,,8,0,8,0,1,,,,,,,,,,,,,,,,,,,,,
,,,,,,,,,,,,5f14a79820f9ef0a1e664d21,26,Mężczyzna,2022-06-11_09h21.41.984,task,2021.1.4,Win32,60.04924038,6299f149e92ead563fba08ef,62a441b89f8d1c2ad8d6ddd4,,,,,,,,,,,,,2,,,,,,,,,,Task,26,(2x9) - 16,2,,,,,,,,,,,,,,,,,,,1,,,,,,,,,,,,,,,,,,,,,,,"[""2""]",1,[5.204600000000028],0,0,0,25,1,,,,,,,,,,,,,,,,,,,,,,,,,,
,,,,,,,,,,,X V Q F H G B L J M P D K C T S W R N Z,5f14a79820f9ef0a1e664d21,26,Mężczyzna,2022-06-11_09h21.41.984,task,2021.1.4,Win32,60.04924038,6299f149e92ead563fba08ef,62a441b89f8d1c2ad8d6ddd4,,,,,,,,,,,,,,,,,,,,,,,,,,,,,,,,,,,,,,,,,,,,,,,,,,,,,,,,,,,,,,,,,,,,,,,,,,,,9,0,9,0,1,,,,,,,,,,,,,,,,,,,,,
,,,,,,,,,,,,5f14a79820f9ef0a1e664d21,26,Mężczyzna,2022-06-11_09h21.41.984,task,2021.1.4,Win32,60.04924038,6299f149e92ead563fba08ef,62a441b89f8d1c2ad8d6ddd4,,,,,,,,,,,,,7,,,,,,,,,,Task,6,(12/2) + 1,7,,,,,,,,,,,,,,,,,,,1,,,,,,,,,,,,,,,,,,,,,,,"[""7""]",1,[3.1597999999999047],0,0,0,5,1,,,,,,,,,,,,,,,,,,,,,,,,,,
,,,,,,,,,,,X V Q F H G B L J M P D K C T S W R N Z,5f14a79820f9ef0a1e664d21,26,Mężczyzna,2022-06-11_09h21.41.984,task,2021.1.4,Win32,60.04924038,6299f149e92ead563fba08ef,62a441b89f8d1c2ad8d6ddd4,,,,,,,,,,,,,,,,,,,,,,,,,,,,,,,,,,,,,,,,,,,,,,,,,,,,,,,,,,,,,,,,,,,,,,,,,,,,10,0,10,0,1,,,,,,,,,,,,,,,,,,,,,
,,,,,,,,,,,,5f14a79820f9ef0a1e664d21,26,Mężczyzna,2022-06-11_09h21.41.984,task,2021.1.4,Win32,60.04924038,6299f149e92ead563fba08ef,62a441b89f8d1c2ad8d6ddd4,,,,,,,,,,,,,9,,,,,,,,,,Task,16,(3x8) - 15,9,,,,,,,,,,,,,,,,,,,1,,,,,,,,,,,,,,,,,,,,,,,"[""9""]",1,[2.5452999999999975],0,0,0,15,1,,,,,,,,,,,,,,,,,,,,,,,,,,
,,,,,,,,,,,X V Q F H G B L J M P D K C T S W R N Z,5f14a79820f9ef0a1e664d21,26,Mężczyzna,2022-06-11_09h21.41.984,task,2021.1.4,Win32,60.04924038,6299f149e92ead563fba08ef,62a441b89f8d1c2ad8d6ddd4,,,,,,,,,,,,,,,,,,,,,,,,,,,,,,,,,,,,,,,,,,,,,,,,,,,,,,,,,,,,,,,,,,,,,,,,,,,,11,0,11,0,1,,,,,,,,,,,,,,,,,,,,,
,,,,,,,,,,,,5f14a79820f9ef0a1e664d21,26,Mężczyzna,2022-06-11_09h21.41.984,task,2021.1.4,Win32,60.04924038,6299f149e92ead563fba08ef,62a441b89f8d1c2ad8d6ddd4,,,,,,,,,,,,,,,,,,,,,,,,,,,,,,,,,,,,,,,,,,,,,,,,,,,,,,,,,,,,,,,,,,,,,,,,,,,,,,,,,fpclpsjmmvcw,"[""f"",""p"",""c"",""l"",""p"",""s"",""j"",""m"",""m"",""v"",""c"",""w""]",0,"[2.298999999999978,2.9825000000000728,4.333499999999958,4.7801999999999225,7.698499999999967,8.171300000000201,8.563899999999876,10.91339999999991,11.079899999999952,11.994300000000067,13.32360000000017,13.592000000000098,14.307500000000118]",1,FPCLPSJMMVCW,11,0,11,0,1,,,,,,,,,,
,,,,,,,,,,,,5f14a79820f9ef0a1e664d21,26,Mężczyzna,2022-06-11_09h21.41.984,task,2021.1.4,Win32,60.04924038,6299f149e92ead563fba08ef,62a441b89f8d1c2ad8d6ddd4,,,,,,,,,,,,,2,,,,,,,,,,Task,19,(6/2) - 1,2,,,,,,,,,,,,,,,,,,,1,,,,,,,,,,,,,,,,,,,,,,,"[""2""]",1,[4.8095999999998185],0,0,0,18,1,,,,,,,,,,,,,,,,,,,,,,,,,,
,,,,,,,,,,,X V Q F H G B L J M P D K C T S W R N Z,5f14a79820f9ef0a1e664d21,26,Mężczyzna,2022-06-11_09h21.41.984,task,2021.1.4,Win32,60.04924038,6299f149e92ead563fba08ef,62a441b89f8d1c2ad8d6ddd4,,,,,,,,,,,,,,,,,,,,,,,,,,,,,,,,,,,,,,,,,,,,,,,,,,,,,,,,,,,,,,,,,,,,,,,,,,,,0,0,0,0,1,,,,,,,,,,,,,,,,,,,,,
,,,,,,,,,,,,5f14a79820f9ef0a1e664d21,26,Mężczyzna,2022-06-11_09h21.41.984,task,2021.1.4,Win32,60.04924038,6299f149e92ead563fba08ef,62a441b89f8d1c2ad8d6ddd4,,,,,,,,,,,,,1,,,,,,,,,,Task,9,(3x7) - 20,1,,,,,,,,,,,,,,,,,,,1,,,,,,,,,,,,,,,,,,,,,,,"[""1""]",1,[2.0172000000000025],0,0,0,8,1,,,,,,,,,,,,,,,,,,,,,,,,,,
,,,,,,,,,,,X V Q F H G B L J M P D K C T S W R N Z,5f14a79820f9ef0a1e664d21,26,Mężczyzna,2022-06-11_09h21.41.984,task,2021.1.4,Win32,60.04924038,6299f149e92ead563fba08ef,62a441b89f8d1c2ad8d6ddd4,,,,,,,,,,,,,,,,,,,,,,,,,,,,,,,,,,,,,,,,,,,,,,,,,,,,,,,,,,,,,,,,,,,,,,,,,,,,1,0,1,0,1,,,,,,,,,,,,,,,,,,,,,
,,,,,,,,,,,,5f14a79820f9ef0a1e664d21,26,Mężczyzna,2022-06-11_09h21.41.984,task,2021.1.4,Win32,60.04924038,6299f149e92ead563fba08ef,62a441b89f8d1c2ad8d6ddd4,,,,,,,,,,,,,8,,,,,,,,,,Task,39,(5x3) - 7,8,,,,,,,,,,,,,,,,,,,1,,,,,,,,,,,,,,,,,,,,,,,"[""8""]",1,[5.763100000000122],0,0,0,38,1,,,,,,,,,,,,,,,,,,,,,,,,,,
,,,,,,,,,,,X V Q F H G B L J M P D K C T S W R N Z,5f14a79820f9ef0a1e664d21,26,Mężczyzna,2022-06-11_09h21.41.984,task,2021.1.4,Win32,60.04924038,6299f149e92ead563fba08ef,62a441b89f8d1c2ad8d6ddd4,,,,,,,,,,,,,,,,,,,,,,,,,,,,,,,,,,,,,,,,,,,,,,,,,,,,,,,,,,,,,,,,,,,,,,,,,,,,2,0,2,0,1,,,,,,,,,,,,,,,,,,,,,
,,,,,,,,,,,,5f14a79820f9ef0a1e664d21,26,Mężczyzna,2022-06-11_09h21.41.984,task,2021.1.4,Win32,60.04924038,6299f149e92ead563fba08ef,62a441b89f8d1c2ad8d6ddd4,,,,,,,,,,,,,5,,,,,,,,,,Task,12,(4x4) - 11,5,,,,,,,,,,,,,,,,,,,1,,,,,,,,,,,,,,,,,,,,,,,"[""5""]",1,[2.13149999999996],0,0,0,11,1,,,,,,,,,,,,,,,,,,,,,,,,,,
,,,,,,,,,,,X V Q F H G B L J M P D K C T S W R N Z,5f14a79820f9ef0a1e664d21,26,Mężczyzna,2022-06-11_09h21.41.984,task,2021.1.4,Win32,60.04924038,6299f149e92ead563fba08ef,62a441b89f8d1c2ad8d6ddd4,,,,,,,,,,,,,,,,,,,,,,,,,,,,,,,,,,,,,,,,,,,,,,,,,,,,,,,,,,,,,,,,,,,,,,,,,,,,3,0,3,0,1,,,,,,,,,,,,,,,,,,,,,
,,,,,,,,,,,,5f14a79820f9ef0a1e664d21,26,Mężczyzna,2022-06-11_09h21.41.984,task,2021.1.4,Win32,60.04924038,6299f149e92ead563fba08ef,62a441b89f8d1c2ad8d6ddd4,,,,,,,,,,,,,5,,,,,,,,,,Task,36,(8/4) + 3,5,,,,,,,,,,,,,,,,,,,1,,,,,,,,,,,,,,,,,,,,,,,"[""5""]",1,[2.784900000000107],0,0,0,35,1,,,,,,,,,,,,,,,,,,,,,,,,,,
,,,,,,,,,,,X V Q F H G B L J M P D K C T S W R N Z,5f14a79820f9ef0a1e664d21,26,Mężczyzna,2022-06-11_09h21.41.984,task,2021.1.4,Win32,60.04924038,6299f149e92ead563fba08ef,62a441b89f8d1c2ad8d6ddd4,,,,,,,,,,,,,,,,,,,,,,,,,,,,,,,,,,,,,,,,,,,,,,,,,,,,,,,,,,,,,,,,,,,,,,,,,,,,4,0,4,0,1,,,,,,,,,,,,,,,,,,,,,
,,,,,,,,,,,,5f14a79820f9ef0a1e664d21,26,Mężczyzna,2022-06-11_09h21.41.984,task,2021.1.4,Win32,60.04924038,6299f149e92ead563fba08ef,62a441b89f8d1c2ad8d6ddd4,,,,,,,,,,,,,7,,,,,,,,,,Task,6,(12/2) + 1,7,,,,,,,,,,,,,,,,,,,1,,,,,,,,,,,,,,,,,,,,,,,"[""7""]",1,[1.5998999999999342],0,0,0,5,1,,,,,,,,,,,,,,,,,,,,,,,,,,
,,,,,,,,,,,X V Q F H G B L J M P D K C T S W R N Z,5f14a79820f9ef0a1e664d21,26,Mężczyzna,2022-06-11_09h21.41.984,task,2021.1.4,Win32,60.04924038,6299f149e92ead563fba08ef,62a441b89f8d1c2ad8d6ddd4,,,,,,,,,,,,,,,,,,,,,,,,,,,,,,,,,,,,,,,,,,,,,,,,,,,,,,,,,,,,,,,,,,,,,,,,,,,,5,0,5,0,1,,,,,,,,,,,,,,,,,,,,,
,,,,,,,,,,,,5f14a79820f9ef0a1e664d21,26,Mężczyzna,2022-06-11_09h21.41.984,task,2021.1.4,Win32,60.04924038,6299f149e92ead563fba08ef,62a441b89f8d1c2ad8d6ddd4,,,,,,,,,,,,,5,,,,,,,,,,Task,12,(4x4) - 11,5,,,,,,,,,,,,,,,,,,,1,,,,,,,,,,,,,,,,,,,,,,,"[""5""]",1,[1.7776000000001204],0,0,0,11,1,,,,,,,,,,,,,,,,,,,,,,,,,,
,,,,,,,,,,,X V Q F H G B L J M P D K C T S W R N Z,5f14a79820f9ef0a1e664d21,26,Mężczyzna,2022-06-11_09h21.41.984,task,2021.1.4,Win32,60.04924038,6299f149e92ead563fba08ef,62a441b89f8d1c2ad8d6ddd4,,,,,,,,,,,,,,,,,,,,,,,,,,,,,,,,,,,,,,,,,,,,,,,,,,,,,,,,,,,,,,,,,,,,,,,,,,,,6,0,6,0,1,,,,,,,,,,,,,,,,,,,,,
,,,,,,,,,,,,5f14a79820f9ef0a1e664d21,26,Mężczyzna,2022-06-11_09h21.41.984,task,2021.1.4,Win32,60.04924038,6299f149e92ead563fba08ef,62a441b89f8d1c2ad8d6ddd4,,,,,,,,,,,,,2,,,,,,,,,,Task,26,(2x9) - 16,2,,,,,,,,,,,,,,,,,,,1,,,,,,,,,,,,,,,,,,,,,,,"[""2""]",1,[2.347799999999779],0,0,0,25,1,,,,,,,,,,,,,,,,,,,,,,,,,,
,,,,,,,,,,,X V Q F H G B L J M P D K C T S W R N Z,5f14a79820f9ef0a1e664d21,26,Mężczyzna,2022-06-11_09h21.41.984,task,2021.1.4,Win32,60.04924038,6299f149e92ead563fba08ef,62a441b89f8d1c2ad8d6ddd4,,,,,,,,,,,,,,,,,,,,,,,,,,,,,,,,,,,,,,,,,,,,,,,,,,,,,,,,,,,,,,,,,,,,,,,,,,,,7,0,7,0,1,,,,,,,,,,,,,,,,,,,,,
,,,,,,,,,,,,5f14a79820f9ef0a1e664d21,26,Mężczyzna,2022-06-11_09h21.41.984,task,2021.1.4,Win32,60.04924038,6299f149e92ead563fba08ef,62a441b89f8d1c2ad8d6ddd4,,,,,,,,,,,,,6,,,,,,,,,,Task,30,(6/3) + 4 ,6,,,,,,,,,,,,,,,,,,,1,,,,,,,,,,,,,,,,,,,,,,,"[""6""]",1,[3.7044999999998254],0,0,0,29,1,,,,,,,,,,,,,,,,,,,,,,,,,,
,,,,,,,,,,,X V Q F H G B L J M P D K C T S W R N Z,5f14a79820f9ef0a1e664d21,26,Mężczyzna,2022-06-11_09h21.41.984,task,2021.1.4,Win32,60.04924038,6299f149e92ead563fba08ef,62a441b89f8d1c2ad8d6ddd4,,,,,,,,,,,,,,,,,,,,,,,,,,,,,,,,,,,,,,,,,,,,,,,,,,,,,,,,,,,,,,,,,,,,,,,,,,,,8,0,8,0,1,,,,,,,,,,,,,,,,,,,,,
,,,,,,,,,,,,5f14a79820f9ef0a1e664d21,26,Mężczyzna,2022-06-11_09h21.41.984,task,2021.1.4,Win32,60.04924038,6299f149e92ead563fba08ef,62a441b89f8d1c2ad8d6ddd4,,,,,,,,,,,,,4,,,,,,,,,,Task,11,(18/3) - 2,4,,,,,,,,,,,,,,,,,,,1,,,,,,,,,,,,,,,,,,,,,,,"[""4""]",1,[5.855599999999868],0,0,0,10,1,,,,,,,,,,,,,,,,,,,,,,,,,,
,,,,,,,,,,,X V Q F H G B L J M P D K C T S W R N Z,5f14a79820f9ef0a1e664d21,26,Mężczyzna,2022-06-11_09h21.41.984,task,2021.1.4,Win32,60.04924038,6299f149e92ead563fba08ef,62a441b89f8d1c2ad8d6ddd4,,,,,,,,,,,,,,,,,,,,,,,,,,,,,,,,,,,,,,,,,,,,,,,,,,,,,,,,,,,,,,,,,,,,,,,,,,,,9,0,9,0,1,,,,,,,,,,,,,,,,,,,,,
,,,,,,,,,,,,5f14a79820f9ef0a1e664d21,26,Mężczyzna,2022-06-11_09h21.41.984,task,2021.1.4,Win32,60.04924038,6299f149e92ead563fba08ef,62a441b89f8d1c2ad8d6ddd4,,,,,,,,,,,,,8,,,,,,,,,,Task,32,(8/2) + 4,8,,,,,,,,,,,,,,,,,,,1,,,,,,,,,,,,,,,,,,,,,,,"[""8""]",1,[4.074100000000044],0,0,0,31,1,,,,,,,,,,,,,,,,,,,,,,,,,,
,,,,,,,,,,,X V Q F H G B L J M P D K C T S W R N Z,5f14a79820f9ef0a1e664d21,26,Mężczyzna,2022-06-11_09h21.41.984,task,2021.1.4,Win32,60.04924038,6299f149e92ead563fba08ef,62a441b89f8d1c2ad8d6ddd4,,,,,,,,,,,,,,,,,,,,,,,,,,,,,,,,,,,,,,,,,,,,,,,,,,,,,,,,,,,,,,,,,,,,,,,,,,,,10,0,10,0,1,,,,,,,,,,,,,,,,,,,,,
,,,,,,,,,,,,5f14a79820f9ef0a1e664d21,26,Mężczyzna,2022-06-11_09h21.41.984,task,2021.1.4,Win32,60.04924038,6299f149e92ead563fba08ef,62a441b89f8d1c2ad8d6ddd4,,,,,,,,,,,,,7,,,,,,,,,,Task,14,(2x2) + 3,7,,,,,,,,,,,,,,,,,,,1,,,,,,,,,,,,,,,,,,,,,,,"[""7""]",1,[4.727200000000039],0,0,0,13,1,,,,,,,,,,,,,,,,,,,,,,,,,,
,,,,,,,,,,,X V Q F H G B L J M P D K C T S W R N Z,5f14a79820f9ef0a1e664d21,26,Mężczyzna,2022-06-11_09h21.41.984,task,2021.1.4,Win32,60.04924038,6299f149e92ead563fba08ef,62a441b89f8d1c2ad8d6ddd4,,,,,,,,,,,,,,,,,,,,,,,,,,,,,,,,,,,,,,,,,,,,,,,,,,,,,,,,,,,,,,,,,,,,,,,,,,,,11,0,11,0,1,,,,,,,,,,,,,,,,,,,,,
,,,,,,,,,,,,5f14a79820f9ef0a1e664d21,26,Mężczyzna,2022-06-11_09h21.41.984,task,2021.1.4,Win32,60.04924038,6299f149e92ead563fba08ef,62a441b89f8d1c2ad8d6ddd4,,,,,,,,,,,,,5,,,,,,,,,,Task,29,(3x8) - 19 ,5,,,,,,,,,,,,,,,,,,,1,,,,,,,,,,,,,,,,,,,,,,,"[""5""]",1,[5.4237000000000535],0,0,0,28,1,,,,,,,,,,,,,,,,,,,,,,,,,,
,,,,,,,,,,,X V Q F H G B L J M P D K C T S W R N Z,5f14a79820f9ef0a1e664d21,26,Mężczyzna,2022-06-11_09h21.41.984,task,2021.1.4,Win32,60.04924038,6299f149e92ead563fba08ef,62a441b89f8d1c2ad8d6ddd4,,,,,,,,,,,,,,,,,,,,,,,,,,,,,,,,,,,,,,,,,,,,,,,,,,,,,,,,,,,,,,,,,,,,,,,,,,,,12,0,12,0,1,,,,,,,,,,,,,,,,,,,,,
