key_resp_15.keys,key_resp_15.rt,key_resp_13.keys,key_resp_13.corr,ranodm_loop.thisRepN,ranodm_loop.thisTrialN,ranodm_loop.thisN,ranodm_loop.thisIndex,ranodm_loop.ran,participant,Wiek*,Płeć,date,expName,psychopyVersion,OS,frameRate,study_id,session,key_resp_13.rt,key_resp_16.keys,key_resp_16.rt,key_resp_4.keys,key_resp_4.rt,next_letter.thisRepN,next_letter.thisTrialN,next_letter.thisN,next_letter.thisIndex,next_letter.ran,letter,simple_recall,key_resp_5.keys,key_resp_5.rt,simple_recall_corr,simple_recall_corrkeys,next_level.thisRepN,next_level.thisTrialN,next_level.thisN,next_level.thisIndex,next_level.ran,key_resp_2.keys,key_resp_2.rt,digit_answer,key_resp.keys,key_resp.corr,key_resp.rt,RT_list,next_equation.thisRepN,next_equation.thisTrialN,next_equation.thisN,next_equation.thisIndex,next_equation.ran,Task,Trial,Problem,Operation_answer,processing_score,sumRT,meanRT,sumdiff,sd,RT,key_resp_3.keys,key_resp_3.rt,repeat_practice.thisRepN,repeat_practice.thisTrialN,repeat_practice.thisN,repeat_practice.thisIndex,repeat_practice.ran,key_resp_6.keys,key_resp_6.rt,key_resp_11.keys,key_resp_11.corr,key_resp_11.rt,operation_correct,repeat_if_wrong_prac.thisRepN,repeat_if_wrong_prac.thisTrialN,repeat_if_wrong_prac.thisN,repeat_if_wrong_prac.thisIndex,repeat_if_wrong_prac.ran,span_size_prac.thisRepN,span_size_prac.thisTrialN,span_size_prac.thisN,span_size_prac.thisIndex,span_size_prac.ran,complex_recall_practice,key_resp_9.keys,key_resp_9.corr,key_resp_9.rt,complex_prac_corr,span_recall_prac.thisRepN,span_recall_prac.thisTrialN,span_recall_prac.thisN,span_recall_prac.thisIndex,span_recall_prac.ran,key_resp_10.keys,key_resp_10.rt,key_resp_7.keys,key_resp_7.corr,key_resp_7.rt,repeat_if_wrong.thisRepN,repeat_if_wrong.thisTrialN,repeat_if_wrong.thisN,repeat_if_wrong.thisIndex,repeat_if_wrong.ran,span_size.thisRepN,span_size.thisTrialN,span_size.thisN,span_size.thisIndex,span_size.ran,complex_recall,key_resp_8.keys,key_resp_8.corr,key_resp_8.rt,complex_recall_corr,complex_recall_corrkeys,span_recall.thisRepN,span_recall.thisTrialN,span_recall.thisN,span_recall.thisIndex,span_recall.ran,key_resp_12.keys,key_resp_12.rt
space,26.4471,,0,0,0,0,0,1,5f1b3d60e2aa49309eb5774e,24,Kobieta,2022-06-10_12h59.23.391,task,2021.1.4,Win32,60.27000964,628b806c463b948bc644b84f,62a323e7603a456ef7e7ee56,,,,,,,,,,,,,,,,,,,,,,,,,,,,,,,,,,,,,,,,,,,,,,,,,,,,,,,,,,,,,,,,,,,,,,,,,,,,,,,,,,,,,,,,,,,,,,,,,,,,,,,,
,,"[""comma""]",0,1,0,1,0,1,5f1b3d60e2aa49309eb5774e,24,Kobieta,2022-06-10_12h59.23.391,task,2021.1.4,Win32,60.27000964,628b806c463b948bc644b84f,62a323e7603a456ef7e7ee56,[0.8837999999523163],,,,,,,,,,,,,,,,,,,,,,,,,,,,,,,,,,,,,,,,,,,,,,,,,,,,,,,,,,,,,,,,,,,,,,,,,,,,,,,,,,,,,,,,,,,,,,,,,,,,,,,
,,"[""period""]",0,2,0,2,0,1,5f1b3d60e2aa49309eb5774e,24,Kobieta,2022-06-10_12h59.23.391,task,2021.1.4,Win32,60.27000964,628b806c463b948bc644b84f,62a323e7603a456ef7e7ee56,[0.2850999999046451],,,,,,,,,,,,,,,,,,,,,,,,,,,,,,,,,,,,,,,,,,,,,,,,,,,,,,,,,,,,,,,,,,,,,,,,,,,,,,,,,,,,,,,,,,,,,,,,,,,,,,,
,,"[""comma""]",0,3,0,3,0,1,5f1b3d60e2aa49309eb5774e,24,Kobieta,2022-06-10_12h59.23.391,task,2021.1.4,Win32,60.27000964,628b806c463b948bc644b84f,62a323e7603a456ef7e7ee56,[0.3076000001430401],,,,,,,,,,,,,,,,,,,,,,,,,,,,,,,,,,,,,,,,,,,,,,,,,,,,,,,,,,,,,,,,,,,,,,,,,,,,,,,,,,,,,,,,,,,,,,,,,,,,,,,
,,"[""comma""]",0,4,0,4,0,1,5f1b3d60e2aa49309eb5774e,24,Kobieta,2022-06-10_12h59.23.391,task,2021.1.4,Win32,60.27000964,628b806c463b948bc644b84f,62a323e7603a456ef7e7ee56,[0.31539999985695033],,,,,,,,,,,,,,,,,,,,,,,,,,,,,,,,,,,,,,,,,,,,,,,,,,,,,,,,,,,,,,,,,,,,,,,,,,,,,,,,,,,,,,,,,,,,,,,,,,,,,,,
,,"[""period""]",0,5,0,5,0,1,5f1b3d60e2aa49309eb5774e,24,Kobieta,2022-06-10_12h59.23.391,task,2021.1.4,Win32,60.27000964,628b806c463b948bc644b84f,62a323e7603a456ef7e7ee56,[0.2637000000476917],,,,,,,,,,,,,,,,,,,,,,,,,,,,,,,,,,,,,,,,,,,,,,,,,,,,,,,,,,,,,,,,,,,,,,,,,,,,,,,,,,,,,,,,,,,,,,,,,,,,,,,
,,"[""period""]",0,6,0,6,0,1,5f1b3d60e2aa49309eb5774e,24,Kobieta,2022-06-10_12h59.23.391,task,2021.1.4,Win32,60.27000964,628b806c463b948bc644b84f,62a323e7603a456ef7e7ee56,[0.26979999995231196],,,,,,,,,,,,,,,,,,,,,,,,,,,,,,,,,,,,,,,,,,,,,,,,,,,,,,,,,,,,,,,,,,,,,,,,,,,,,,,,,,,,,,,,,,,,,,,,,,,,,,,
,,"[""period""]",0,7,0,7,0,1,5f1b3d60e2aa49309eb5774e,24,Kobieta,2022-06-10_12h59.23.391,task,2021.1.4,Win32,60.27000964,628b806c463b948bc644b84f,62a323e7603a456ef7e7ee56,[0.2955000000000041],,,,,,,,,,,,,,,,,,,,,,,,,,,,,,,,,,,,,,,,,,,,,,,,,,,,,,,,,,,,,,,,,,,,,,,,,,,,,,,,,,,,,,,,,,,,,,,,,,,,,,,
,,"[""comma""]",0,8,0,8,0,1,5f1b3d60e2aa49309eb5774e,24,Kobieta,2022-06-10_12h59.23.391,task,2021.1.4,Win32,60.27000964,628b806c463b948bc644b84f,62a323e7603a456ef7e7ee56,[0.3867000000476821],,,,,,,,,,,,,,,,,,,,,,,,,,,,,,,,,,,,,,,,,,,,,,,,,,,,,,,,,,,,,,,,,,,,,,,,,,,,,,,,,,,,,,,,,,,,,,,,,,,,,,,
,,"[""period""]",0,9,0,9,0,1,5f1b3d60e2aa49309eb5774e,24,Kobieta,2022-06-10_12h59.23.391,task,2021.1.4,Win32,60.27000964,628b806c463b948bc644b84f,62a323e7603a456ef7e7ee56,[0.301200000047686],,,,,,,,,,,,,,,,,,,,,,,,,,,,,,,,,,,,,,,,,,,,,,,,,,,,,,,,,,,,,,,,,,,,,,,,,,,,,,,,,,,,,,,,,,,,,,,,,,,,,,,
,,"[""period""]",0,10,0,10,0,1,5f1b3d60e2aa49309eb5774e,24,Kobieta,2022-06-10_12h59.23.391,task,2021.1.4,Win32,60.27000964,628b806c463b948bc644b84f,62a323e7603a456ef7e7ee56,[0.27040000009536413],,,,,,,,,,,,,,,,,,,,,,,,,,,,,,,,,,,,,,,,,,,,,,,,,,,,,,,,,,,,,,,,,,,,,,,,,,,,,,,,,,,,,,,,,,,,,,,,,,,,,,,
,,"[""comma""]",0,11,0,11,0,1,5f1b3d60e2aa49309eb5774e,24,Kobieta,2022-06-10_12h59.23.391,task,2021.1.4,Win32,60.27000964,628b806c463b948bc644b84f,62a323e7603a456ef7e7ee56,[0.6177000000476909],,,,,,,,,,,,,,,,,,,,,,,,,,,,,,,,,,,,,,,,,,,,,,,,,,,,,,,,,,,,,,,,,,,,,,,,,,,,,,,,,,,,,,,,,,,,,,,,,,,,,,,
,,"[""comma""]",0,12,0,12,0,1,5f1b3d60e2aa49309eb5774e,24,Kobieta,2022-06-10_12h59.23.391,task,2021.1.4,Win32,60.27000964,628b806c463b948bc644b84f,62a323e7603a456ef7e7ee56,[0.5012000000476746],,,,,,,,,,,,,,,,,,,,,,,,,,,,,,,,,,,,,,,,,,,,,,,,,,,,,,,,,,,,,,,,,,,,,,,,,,,,,,,,,,,,,,,,,,,,,,,,,,,,,,,
,,"[""period""]",0,13,0,13,0,1,5f1b3d60e2aa49309eb5774e,24,Kobieta,2022-06-10_12h59.23.391,task,2021.1.4,Win32,60.27000964,628b806c463b948bc644b84f,62a323e7603a456ef7e7ee56,[0.5176000001430623],,,,,,,,,,,,,,,,,,,,,,,,,,,,,,,,,,,,,,,,,,,,,,,,,,,,,,,,,,,,,,,,,,,,,,,,,,,,,,,,,,,,,,,,,,,,,,,,,,,,,,,
,,"[""period""]",0,14,0,14,0,1,5f1b3d60e2aa49309eb5774e,24,Kobieta,2022-06-10_12h59.23.391,task,2021.1.4,Win32,60.27000964,628b806c463b948bc644b84f,62a323e7603a456ef7e7ee56,[0.566799999952309],,,,,,,,,,,,,,,,,,,,,,,,,,,,,,,,,,,,,,,,,,,,,,,,,,,,,,,,,,,,,,,,,,,,,,,,,,,,,,,,,,,,,,,,,,,,,,,,,,,,,,,
,,"[""period""]",0,15,0,15,0,1,5f1b3d60e2aa49309eb5774e,24,Kobieta,2022-06-10_12h59.23.391,task,2021.1.4,Win32,60.27000964,628b806c463b948bc644b84f,62a323e7603a456ef7e7ee56,[0.32090000009534947],,,,,,,,,,,,,,,,,,,,,,,,,,,,,,,,,,,,,,,,,,,,,,,,,,,,,,,,,,,,,,,,,,,,,,,,,,,,,,,,,,,,,,,,,,,,,,,,,,,,,,,
,,"[""comma""]",0,16,0,16,0,1,5f1b3d60e2aa49309eb5774e,24,Kobieta,2022-06-10_12h59.23.391,task,2021.1.4,Win32,60.27000964,628b806c463b948bc644b84f,62a323e7603a456ef7e7ee56,[0.686000000000007],,,,,,,,,,,,,,,,,,,,,,,,,,,,,,,,,,,,,,,,,,,,,,,,,,,,,,,,,,,,,,,,,,,,,,,,,,,,,,,,,,,,,,,,,,,,,,,,,,,,,,,
,,"[""comma""]",0,17,0,17,0,1,5f1b3d60e2aa49309eb5774e,24,Kobieta,2022-06-10_12h59.23.391,task,2021.1.4,Win32,60.27000964,628b806c463b948bc644b84f,62a323e7603a456ef7e7ee56,[0.5161000001430409],,,,,,,,,,,,,,,,,,,,,,,,,,,,,,,,,,,,,,,,,,,,,,,,,,,,,,,,,,,,,,,,,,,,,,,,,,,,,,,,,,,,,,,,,,,,,,,,,,,,,,,
,,"[""period""]",0,18,0,18,0,1,5f1b3d60e2aa49309eb5774e,24,Kobieta,2022-06-10_12h59.23.391,task,2021.1.4,Win32,60.27000964,628b806c463b948bc644b84f,62a323e7603a456ef7e7ee56,[0.3484000000953529],,,,,,,,,,,,,,,,,,,,,,,,,,,,,,,,,,,,,,,,,,,,,,,,,,,,,,,,,,,,,,,,,,,,,,,,,,,,,,,,,,,,,,,,,,,,,,,,,,,,,,,
,,"[""comma""]",0,19,0,19,0,1,5f1b3d60e2aa49309eb5774e,24,Kobieta,2022-06-10_12h59.23.391,task,2021.1.4,Win32,60.27000964,628b806c463b948bc644b84f,62a323e7603a456ef7e7ee56,[0.3837999999523163],,,,,,,,,,,,,,,,,,,,,,,,,,,,,,,,,,,,,,,,,,,,,,,,,,,,,,,,,,,,,,,,,,,,,,,,,,,,,,,,,,,,,,,,,,,,,,,,,,,,,,,
,,"[""comma""]",0,20,0,20,0,1,5f1b3d60e2aa49309eb5774e,24,Kobieta,2022-06-10_12h59.23.391,task,2021.1.4,Win32,60.27000964,628b806c463b948bc644b84f,62a323e7603a456ef7e7ee56,[0.30359999990463393],,,,,,,,,,,,,,,,,,,,,,,,,,,,,,,,,,,,,,,,,,,,,,,,,,,,,,,,,,,,,,,,,,,,,,,,,,,,,,,,,,,,,,,,,,,,,,,,,,,,,,,
,,"[""period""]",0,21,0,21,0,1,5f1b3d60e2aa49309eb5774e,24,Kobieta,2022-06-10_12h59.23.391,task,2021.1.4,Win32,60.27000964,628b806c463b948bc644b84f,62a323e7603a456ef7e7ee56,[0.30439999985694044],,,,,,,,,,,,,,,,,,,,,,,,,,,,,,,,,,,,,,,,,,,,,,,,,,,,,,,,,,,,,,,,,,,,,,,,,,,,,,,,,,,,,,,,,,,,,,,,,,,,,,,
,,"[""period""]",0,22,0,22,0,1,5f1b3d60e2aa49309eb5774e,24,Kobieta,2022-06-10_12h59.23.391,task,2021.1.4,Win32,60.27000964,628b806c463b948bc644b84f,62a323e7603a456ef7e7ee56,[0.43609999990465553],,,,,,,,,,,,,,,,,,,,,,,,,,,,,,,,,,,,,,,,,,,,,,,,,,,,,,,,,,,,,,,,,,,,,,,,,,,,,,,,,,,,,,,,,,,,,,,,,,,,,,,
,,"[""period""]",0,23,0,23,0,1,5f1b3d60e2aa49309eb5774e,24,Kobieta,2022-06-10_12h59.23.391,task,2021.1.4,Win32,60.27000964,628b806c463b948bc644b84f,62a323e7603a456ef7e7ee56,[0.42290000009535333],,,,,,,,,,,,,,,,,,,,,,,,,,,,,,,,,,,,,,,,,,,,,,,,,,,,,,,,,,,,,,,,,,,,,,,,,,,,,,,,,,,,,,,,,,,,,,,,,,,,,,,
,,"[""comma"",""period""]",0,24,0,24,0,1,5f1b3d60e2aa49309eb5774e,24,Kobieta,2022-06-10_12h59.23.391,task,2021.1.4,Win32,60.27000964,628b806c463b948bc644b84f,62a323e7603a456ef7e7ee56,"[0.320200000047663,1.8537000000476667]",,,,,,,,,,,,,,,,,,,,,,,,,,,,,,,,,,,,,,,,,,,,,,,,,,,,,,,,,,,,,,,,,,,,,,,,,,,,,,,,,,,,,,,,,,,,,,,,,,,,,,,
,,,0,25,0,25,0,1,5f1b3d60e2aa49309eb5774e,24,Kobieta,2022-06-10_12h59.23.391,task,2021.1.4,Win32,60.27000964,628b806c463b948bc644b84f,62a323e7603a456ef7e7ee56,,,,,,,,,,,,,,,,,,,,,,,,,,,,,,,,,,,,,,,,,,,,,,,,,,,,,,,,,,,,,,,,,,,,,,,,,,,,,,,,,,,,,,,,,,,,,,,,,,,,,,,,
,,"[""comma""]",0,26,0,26,0,1,5f1b3d60e2aa49309eb5774e,24,Kobieta,2022-06-10_12h59.23.391,task,2021.1.4,Win32,60.27000964,628b806c463b948bc644b84f,62a323e7603a456ef7e7ee56,[0.3743999998569336],,,,,,,,,,,,,,,,,,,,,,,,,,,,,,,,,,,,,,,,,,,,,,,,,,,,,,,,,,,,,,,,,,,,,,,,,,,,,,,,,,,,,,,,,,,,,,,,,,,,,,,
,,"[""period""]",0,27,0,27,0,1,5f1b3d60e2aa49309eb5774e,24,Kobieta,2022-06-10_12h59.23.391,task,2021.1.4,Win32,60.27000964,628b806c463b948bc644b84f,62a323e7603a456ef7e7ee56,[0.28159999990461415],,,,,,,,,,,,,,,,,,,,,,,,,,,,,,,,,,,,,,,,,,,,,,,,,,,,,,,,,,,,,,,,,,,,,,,,,,,,,,,,,,,,,,,,,,,,,,,,,,,,,,,
,,"[""period""]",0,28,0,28,0,1,5f1b3d60e2aa49309eb5774e,24,Kobieta,2022-06-10_12h59.23.391,task,2021.1.4,Win32,60.27000964,628b806c463b948bc644b84f,62a323e7603a456ef7e7ee56,[0.23140000009539108],,,,,,,,,,,,,,,,,,,,,,,,,,,,,,,,,,,,,,,,,,,,,,,,,,,,,,,,,,,,,,,,,,,,,,,,,,,,,,,,,,,,,,,,,,,,,,,,,,,,,,,
,,"[""period""]",0,29,0,29,0,1,5f1b3d60e2aa49309eb5774e,24,Kobieta,2022-06-10_12h59.23.391,task,2021.1.4,Win32,60.27000964,628b806c463b948bc644b84f,62a323e7603a456ef7e7ee56,[0.301200000047686],,,,,,,,,,,,,,,,,,,,,,,,,,,,,,,,,,,,,,,,,,,,,,,,,,,,,,,,,,,,,,,,,,,,,,,,,,,,,,,,,,,,,,,,,,,,,,,,,,,,,,,
,,"[""period""]",0,30,0,30,0,1,5f1b3d60e2aa49309eb5774e,24,Kobieta,2022-06-10_12h59.23.391,task,2021.1.4,Win32,60.27000964,628b806c463b948bc644b84f,62a323e7603a456ef7e7ee56,[0.33199999999999363],,,,,,,,,,,,,,,,,,,,,,,,,,,,,,,,,,,,,,,,,,,,,,,,,,,,,,,,,,,,,,,,,,,,,,,,,,,,,,,,,,,,,,,,,,,,,,,,,,,,,,,
,,"[""comma""]",0,31,0,31,0,1,5f1b3d60e2aa49309eb5774e,24,Kobieta,2022-06-10_12h59.23.391,task,2021.1.4,Win32,60.27000964,628b806c463b948bc644b84f,62a323e7603a456ef7e7ee56,[0.29840000009536993],,,,,,,,,,,,,,,,,,,,,,,,,,,,,,,,,,,,,,,,,,,,,,,,,,,,,,,,,,,,,,,,,,,,,,,,,,,,,,,,,,,,,,,,,,,,,,,,,,,,,,,
,,"[""comma""]",0,32,0,32,0,1,5f1b3d60e2aa49309eb5774e,24,Kobieta,2022-06-10_12h59.23.391,task,2021.1.4,Win32,60.27000964,628b806c463b948bc644b84f,62a323e7603a456ef7e7ee56,[0.26770000004768235],,,,,,,,,,,,,,,,,,,,,,,,,,,,,,,,,,,,,,,,,,,,,,,,,,,,,,,,,,,,,,,,,,,,,,,,,,,,,,,,,,,,,,,,,,,,,,,,,,,,,,,
,,"[""period""]",0,33,0,33,0,1,5f1b3d60e2aa49309eb5774e,24,Kobieta,2022-06-10_12h59.23.391,task,2021.1.4,Win32,60.27000964,628b806c463b948bc644b84f,62a323e7603a456ef7e7ee56,[0.12309999990461051],,,,,,,,,,,,,,,,,,,,,,,,,,,,,,,,,,,,,,,,,,,,,,,,,,,,,,,,,,,,,,,,,,,,,,,,,,,,,,,,,,,,,,,,,,,,,,,,,,,,,,,
,,"[""period""]",0,34,0,34,0,1,5f1b3d60e2aa49309eb5774e,24,Kobieta,2022-06-10_12h59.23.391,task,2021.1.4,Win32,60.27000964,628b806c463b948bc644b84f,62a323e7603a456ef7e7ee56,[0.4152999999523388],,,,,,,,,,,,,,,,,,,,,,,,,,,,,,,,,,,,,,,,,,,,,,,,,,,,,,,,,,,,,,,,,,,,,,,,,,,,,,,,,,,,,,,,,,,,,,,,,,,,,,,
,,"[""period""]",0,35,0,35,0,1,5f1b3d60e2aa49309eb5774e,24,Kobieta,2022-06-10_12h59.23.391,task,2021.1.4,Win32,60.27000964,628b806c463b948bc644b84f,62a323e7603a456ef7e7ee56,[0.5482000000476717],,,,,,,,,,,,,,,,,,,,,,,,,,,,,,,,,,,,,,,,,,,,,,,,,,,,,,,,,,,,,,,,,,,,,,,,,,,,,,,,,,,,,,,,,,,,,,,,,,,,,,,
,,"[""comma""]",0,36,0,36,0,1,5f1b3d60e2aa49309eb5774e,24,Kobieta,2022-06-10_12h59.23.391,task,2021.1.4,Win32,60.27000964,628b806c463b948bc644b84f,62a323e7603a456ef7e7ee56,[0.352400000095372],,,,,,,,,,,,,,,,,,,,,,,,,,,,,,,,,,,,,,,,,,,,,,,,,,,,,,,,,,,,,,,,,,,,,,,,,,,,,,,,,,,,,,,,,,,,,,,,,,,,,,,
,,"[""period""]",0,37,0,37,0,1,5f1b3d60e2aa49309eb5774e,24,Kobieta,2022-06-10_12h59.23.391,task,2021.1.4,Win32,60.27000964,628b806c463b948bc644b84f,62a323e7603a456ef7e7ee56,[0.3714999999999975],,,,,,,,,,,,,,,,,,,,,,,,,,,,,,,,,,,,,,,,,,,,,,,,,,,,,,,,,,,,,,,,,,,,,,,,,,,,,,,,,,,,,,,,,,,,,,,,,,,,,,,
,,"[""comma""]",0,38,0,38,0,1,5f1b3d60e2aa49309eb5774e,24,Kobieta,2022-06-10_12h59.23.391,task,2021.1.4,Win32,60.27000964,628b806c463b948bc644b84f,62a323e7603a456ef7e7ee56,[0.43379999995229923],,,,,,,,,,,,,,,,,,,,,,,,,,,,,,,,,,,,,,,,,,,,,,,,,,,,,,,,,,,,,,,,,,,,,,,,,,,,,,,,,,,,,,,,,,,,,,,,,,,,,,,
,,"[""period""]",0,39,0,39,0,1,5f1b3d60e2aa49309eb5774e,24,Kobieta,2022-06-10_12h59.23.391,task,2021.1.4,Win32,60.27000964,628b806c463b948bc644b84f,62a323e7603a456ef7e7ee56,[1.5167999999522976],,,,,,,,,,,,,,,,,,,,,,,,,,,,,,,,,,,,,,,,,,,,,,,,,,,,,,,,,,,,,,,,,,,,,,,,,,,,,,,,,,,,,,,,,,,,,,,,,,,,,,,
,,"[""comma""]",0,40,0,40,0,1,5f1b3d60e2aa49309eb5774e,24,Kobieta,2022-06-10_12h59.23.391,task,2021.1.4,Win32,60.27000964,628b806c463b948bc644b84f,62a323e7603a456ef7e7ee56,[1.581400000095357],,,,,,,,,,,,,,,,,,,,,,,,,,,,,,,,,,,,,,,,,,,,,,,,,,,,,,,,,,,,,,,,,,,,,,,,,,,,,,,,,,,,,,,,,,,,,,,,,,,,,,,
,,"[""period""]",0,41,0,41,0,1,5f1b3d60e2aa49309eb5774e,24,Kobieta,2022-06-10_12h59.23.391,task,2021.1.4,Win32,60.27000964,628b806c463b948bc644b84f,62a323e7603a456ef7e7ee56,[0.8340000000000032],,,,,,,,,,,,,,,,,,,,,,,,,,,,,,,,,,,,,,,,,,,,,,,,,,,,,,,,,,,,,,,,,,,,,,,,,,,,,,,,,,,,,,,,,,,,,,,,,,,,,,,
,,"[""period""]",0,42,0,42,0,1,5f1b3d60e2aa49309eb5774e,24,Kobieta,2022-06-10_12h59.23.391,task,2021.1.4,Win32,60.27000964,628b806c463b948bc644b84f,62a323e7603a456ef7e7ee56,[0.5010000000000048],,,,,,,,,,,,,,,,,,,,,,,,,,,,,,,,,,,,,,,,,,,,,,,,,,,,,,,,,,,,,,,,,,,,,,,,,,,,,,,,,,,,,,,,,,,,,,,,,,,,,,,
,,"[""period""]",0,43,0,43,0,1,5f1b3d60e2aa49309eb5774e,24,Kobieta,2022-06-10_12h59.23.391,task,2021.1.4,Win32,60.27000964,628b806c463b948bc644b84f,62a323e7603a456ef7e7ee56,[0.3549000000953697],,,,,,,,,,,,,,,,,,,,,,,,,,,,,,,,,,,,,,,,,,,,,,,,,,,,,,,,,,,,,,,,,,,,,,,,,,,,,,,,,,,,,,,,,,,,,,,,,,,,,,,
,,"[""period""]",0,44,0,44,0,1,5f1b3d60e2aa49309eb5774e,24,Kobieta,2022-06-10_12h59.23.391,task,2021.1.4,Win32,60.27000964,628b806c463b948bc644b84f,62a323e7603a456ef7e7ee56,[0.3557999999523247],,,,,,,,,,,,,,,,,,,,,,,,,,,,,,,,,,,,,,,,,,,,,,,,,,,,,,,,,,,,,,,,,,,,,,,,,,,,,,,,,,,,,,,,,,,,,,,,,,,,,,,
,,"[""period""]",0,45,0,45,0,1,5f1b3d60e2aa49309eb5774e,24,Kobieta,2022-06-10_12h59.23.391,task,2021.1.4,Win32,60.27000964,628b806c463b948bc644b84f,62a323e7603a456ef7e7ee56,[0.5519999999999925],,,,,,,,,,,,,,,,,,,,,,,,,,,,,,,,,,,,,,,,,,,,,,,,,,,,,,,,,,,,,,,,,,,,,,,,,,,,,,,,,,,,,,,,,,,,,,,,,,,,,,,
,,"[""period""]",0,46,0,46,0,1,5f1b3d60e2aa49309eb5774e,24,Kobieta,2022-06-10_12h59.23.391,task,2021.1.4,Win32,60.27000964,628b806c463b948bc644b84f,62a323e7603a456ef7e7ee56,[0.4312999999523015],,,,,,,,,,,,,,,,,,,,,,,,,,,,,,,,,,,,,,,,,,,,,,,,,,,,,,,,,,,,,,,,,,,,,,,,,,,,,,,,,,,,,,,,,,,,,,,,,,,,,,,
,,"[""comma""]",0,47,0,47,0,1,5f1b3d60e2aa49309eb5774e,24,Kobieta,2022-06-10_12h59.23.391,task,2021.1.4,Win32,60.27000964,628b806c463b948bc644b84f,62a323e7603a456ef7e7ee56,[0.23179999995232947],,,,,,,,,,,,,,,,,,,,,,,,,,,,,,,,,,,,,,,,,,,,,,,,,,,,,,,,,,,,,,,,,,,,,,,,,,,,,,,,,,,,,,,,,,,,,,,,,,,,,,,
,,"[""comma""]",0,48,0,48,0,1,5f1b3d60e2aa49309eb5774e,24,Kobieta,2022-06-10_12h59.23.391,task,2021.1.4,Win32,60.27000964,628b806c463b948bc644b84f,62a323e7603a456ef7e7ee56,[0.31979999995232333],,,,,,,,,,,,,,,,,,,,,,,,,,,,,,,,,,,,,,,,,,,,,,,,,,,,,,,,,,,,,,,,,,,,,,,,,,,,,,,,,,,,,,,,,,,,,,,,,,,,,,,
,,"[""comma""]",0,49,0,49,0,1,5f1b3d60e2aa49309eb5774e,24,Kobieta,2022-06-10_12h59.23.391,task,2021.1.4,Win32,60.27000964,628b806c463b948bc644b84f,62a323e7603a456ef7e7ee56,[0.4370999999046319],,,,,,,,,,,,,,,,,,,,,,,,,,,,,,,,,,,,,,,,,,,,,,,,,,,,,,,,,,,,,,,,,,,,,,,,,,,,,,,,,,,,,,,,,,,,,,,,,,,,,,,
,,"[""period""]",0,50,0,50,0,1,5f1b3d60e2aa49309eb5774e,24,Kobieta,2022-06-10_12h59.23.391,task,2021.1.4,Win32,60.27000964,628b806c463b948bc644b84f,62a323e7603a456ef7e7ee56,[0.2840999999046119],,,,,,,,,,,,,,,,,,,,,,,,,,,,,,,,,,,,,,,,,,,,,,,,,,,,,,,,,,,,,,,,,,,,,,,,,,,,,,,,,,,,,,,,,,,,,,,,,,,,,,,
,,"[""comma""]",0,51,0,51,0,1,5f1b3d60e2aa49309eb5774e,24,Kobieta,2022-06-10_12h59.23.391,task,2021.1.4,Win32,60.27000964,628b806c463b948bc644b84f,62a323e7603a456ef7e7ee56,[0.3019999999999925],,,,,,,,,,,,,,,,,,,,,,,,,,,,,,,,,,,,,,,,,,,,,,,,,,,,,,,,,,,,,,,,,,,,,,,,,,,,,,,,,,,,,,,,,,,,,,,,,,,,,,,
,,"[""period""]",0,52,0,52,0,1,5f1b3d60e2aa49309eb5774e,24,Kobieta,2022-06-10_12h59.23.391,task,2021.1.4,Win32,60.27000964,628b806c463b948bc644b84f,62a323e7603a456ef7e7ee56,[0.4478999998569293],,,,,,,,,,,,,,,,,,,,,,,,,,,,,,,,,,,,,,,,,,,,,,,,,,,,,,,,,,,,,,,,,,,,,,,,,,,,,,,,,,,,,,,,,,,,,,,,,,,,,,,
,,"[""comma""]",0,53,0,53,0,1,5f1b3d60e2aa49309eb5774e,24,Kobieta,2022-06-10_12h59.23.391,task,2021.1.4,Win32,60.27000964,628b806c463b948bc644b84f,62a323e7603a456ef7e7ee56,[0.48179999995232947],,,,,,,,,,,,,,,,,,,,,,,,,,,,,,,,,,,,,,,,,,,,,,,,,,,,,,,,,,,,,,,,,,,,,,,,,,,,,,,,,,,,,,,,,,,,,,,,,,,,,,,
,,"[""period""]",0,54,0,54,0,1,5f1b3d60e2aa49309eb5774e,24,Kobieta,2022-06-10_12h59.23.391,task,2021.1.4,Win32,60.27000964,628b806c463b948bc644b84f,62a323e7603a456ef7e7ee56,[0.3273999998569366],,,,,,,,,,,,,,,,,,,,,,,,,,,,,,,,,,,,,,,,,,,,,,,,,,,,,,,,,,,,,,,,,,,,,,,,,,,,,,,,,,,,,,,,,,,,,,,,,,,,,,,
,,"[""period""]",0,55,0,55,0,1,5f1b3d60e2aa49309eb5774e,24,Kobieta,2022-06-10_12h59.23.391,task,2021.1.4,Win32,60.27000964,628b806c463b948bc644b84f,62a323e7603a456ef7e7ee56,[0.35390000009536493],,,,,,,,,,,,,,,,,,,,,,,,,,,,,,,,,,,,,,,,,,,,,,,,,,,,,,,,,,,,,,,,,,,,,,,,,,,,,,,,,,,,,,,,,,,,,,,,,,,,,,,
,,"[""period""]",0,56,0,56,0,1,5f1b3d60e2aa49309eb5774e,24,Kobieta,2022-06-10_12h59.23.391,task,2021.1.4,Win32,60.27000964,628b806c463b948bc644b84f,62a323e7603a456ef7e7ee56,[0.3855000000000075],,,,,,,,,,,,,,,,,,,,,,,,,,,,,,,,,,,,,,,,,,,,,,,,,,,,,,,,,,,,,,,,,,,,,,,,,,,,,,,,,,,,,,,,,,,,,,,,,,,,,,,
,,"[""comma""]",0,57,0,57,0,1,5f1b3d60e2aa49309eb5774e,24,Kobieta,2022-06-10_12h59.23.391,task,2021.1.4,Win32,60.27000964,628b806c463b948bc644b84f,62a323e7603a456ef7e7ee56,[0.41900000000001114],,,,,,,,,,,,,,,,,,,,,,,,,,,,,,,,,,,,,,,,,,,,,,,,,,,,,,,,,,,,,,,,,,,,,,,,,,,,,,,,,,,,,,,,,,,,,,,,,,,,,,,
,,"[""period""]",0,58,0,58,0,1,5f1b3d60e2aa49309eb5774e,24,Kobieta,2022-06-10_12h59.23.391,task,2021.1.4,Win32,60.27000964,628b806c463b948bc644b84f,62a323e7603a456ef7e7ee56,[0.301200000047686],,,,,,,,,,,,,,,,,,,,,,,,,,,,,,,,,,,,,,,,,,,,,,,,,,,,,,,,,,,,,,,,,,,,,,,,,,,,,,,,,,,,,,,,,,,,,,,,,,,,,,,
,,"[""period""]",0,59,0,59,0,1,5f1b3d60e2aa49309eb5774e,24,Kobieta,2022-06-10_12h59.23.391,task,2021.1.4,Win32,60.27000964,628b806c463b948bc644b84f,62a323e7603a456ef7e7ee56,[0.23550000000000182],,,,,,,,,,,,,,,,,,,,,,,,,,,,,,,,,,,,,,,,,,,,,,,,,,,,,,,,,,,,,,,,,,,,,,,,,,,,,,,,,,,,,,,,,,,,,,,,,,,,,,,
,,"[""comma""]",0,60,0,60,0,1,5f1b3d60e2aa49309eb5774e,24,Kobieta,2022-06-10_12h59.23.391,task,2021.1.4,Win32,60.27000964,628b806c463b948bc644b84f,62a323e7603a456ef7e7ee56,[0.28209999990463075],,,,,,,,,,,,,,,,,,,,,,,,,,,,,,,,,,,,,,,,,,,,,,,,,,,,,,,,,,,,,,,,,,,,,,,,,,,,,,,,,,,,,,,,,,,,,,,,,,,,,,,
,,"[""comma""]",0,61,0,61,0,1,5f1b3d60e2aa49309eb5774e,24,Kobieta,2022-06-10_12h59.23.391,task,2021.1.4,Win32,60.27000964,628b806c463b948bc644b84f,62a323e7603a456ef7e7ee56,[0.8530999999046287],,,,,,,,,,,,,,,,,,,,,,,,,,,,,,,,,,,,,,,,,,,,,,,,,,,,,,,,,,,,,,,,,,,,,,,,,,,,,,,,,,,,,,,,,,,,,,,,,,,,,,,
,,"[""period""]",0,62,0,62,0,1,5f1b3d60e2aa49309eb5774e,24,Kobieta,2022-06-10_12h59.23.391,task,2021.1.4,Win32,60.27000964,628b806c463b948bc644b84f,62a323e7603a456ef7e7ee56,[0.6547999999523029],,,,,,,,,,,,,,,,,,,,,,,,,,,,,,,,,,,,,,,,,,,,,,,,,,,,,,,,,,,,,,,,,,,,,,,,,,,,,,,,,,,,,,,,,,,,,,,,,,,,,,,
,,"[""comma""]",0,63,0,63,0,1,5f1b3d60e2aa49309eb5774e,24,Kobieta,2022-06-10_12h59.23.391,task,2021.1.4,Win32,60.27000964,628b806c463b948bc644b84f,62a323e7603a456ef7e7ee56,[0.6196000001430377],,,,,,,,,,,,,,,,,,,,,,,,,,,,,,,,,,,,,,,,,,,,,,,,,,,,,,,,,,,,,,,,,,,,,,,,,,,,,,,,,,,,,,,,,,,,,,,,,,,,,,,
,,"[""period""]",0,64,0,64,0,1,5f1b3d60e2aa49309eb5774e,24,Kobieta,2022-06-10_12h59.23.391,task,2021.1.4,Win32,60.27000964,628b806c463b948bc644b84f,62a323e7603a456ef7e7ee56,[0.5607999999523088],,,,,,,,,,,,,,,,,,,,,,,,,,,,,,,,,,,,,,,,,,,,,,,,,,,,,,,,,,,,,,,,,,,,,,,,,,,,,,,,,,,,,,,,,,,,,,,,,,,,,,,
,,"[""period""]",0,65,0,65,0,1,5f1b3d60e2aa49309eb5774e,24,Kobieta,2022-06-10_12h59.23.391,task,2021.1.4,Win32,60.27000964,628b806c463b948bc644b84f,62a323e7603a456ef7e7ee56,[0.5482000000476717],,,,,,,,,,,,,,,,,,,,,,,,,,,,,,,,,,,,,,,,,,,,,,,,,,,,,,,,,,,,,,,,,,,,,,,,,,,,,,,,,,,,,,,,,,,,,,,,,,,,,,,
,,"[""comma""]",0,66,0,66,0,1,5f1b3d60e2aa49309eb5774e,24,Kobieta,2022-06-10_12h59.23.391,task,2021.1.4,Win32,60.27000964,628b806c463b948bc644b84f,62a323e7603a456ef7e7ee56,[0.47129999995232197],,,,,,,,,,,,,,,,,,,,,,,,,,,,,,,,,,,,,,,,,,,,,,,,,,,,,,,,,,,,,,,,,,,,,,,,,,,,,,,,,,,,,,,,,,,,,,,,,,,,,,,
,,"[""comma""]",0,67,0,67,0,1,5f1b3d60e2aa49309eb5774e,24,Kobieta,2022-06-10_12h59.23.391,task,2021.1.4,Win32,60.27000964,628b806c463b948bc644b84f,62a323e7603a456ef7e7ee56,[0.5165999999046278],,,,,,,,,,,,,,,,,,,,,,,,,,,,,,,,,,,,,,,,,,,,,,,,,,,,,,,,,,,,,,,,,,,,,,,,,,,,,,,,,,,,,,,,,,,,,,,,,,,,,,,
,,"[""period""]",0,68,0,68,0,1,5f1b3d60e2aa49309eb5774e,24,Kobieta,2022-06-10_12h59.23.391,task,2021.1.4,Win32,60.27000964,628b806c463b948bc644b84f,62a323e7603a456ef7e7ee56,[0.41670000004768326],,,,,,,,,,,,,,,,,,,,,,,,,,,,,,,,,,,,,,,,,,,,,,,,,,,,,,,,,,,,,,,,,,,,,,,,,,,,,,,,,,,,,,,,,,,,,,,,,,,,,,,
,,"[""period""]",0,69,0,69,0,1,5f1b3d60e2aa49309eb5774e,24,Kobieta,2022-06-10_12h59.23.391,task,2021.1.4,Win32,60.27000964,628b806c463b948bc644b84f,62a323e7603a456ef7e7ee56,[0.3186999998092688],,,,,,,,,,,,,,,,,,,,,,,,,,,,,,,,,,,,,,,,,,,,,,,,,,,,,,,,,,,,,,,,,,,,,,,,,,,,,,,,,,,,,,,,,,,,,,,,,,,,,,,
,,"[""comma""]",0,70,0,70,0,1,5f1b3d60e2aa49309eb5774e,24,Kobieta,2022-06-10_12h59.23.391,task,2021.1.4,Win32,60.27000964,628b806c463b948bc644b84f,62a323e7603a456ef7e7ee56,[0.5336000001430534],,,,,,,,,,,,,,,,,,,,,,,,,,,,,,,,,,,,,,,,,,,,,,,,,,,,,,,,,,,,,,,,,,,,,,,,,,,,,,,,,,,,,,,,,,,,,,,,,,,,,,,
,,"[""comma""]",0,71,0,71,0,1,5f1b3d60e2aa49309eb5774e,24,Kobieta,2022-06-10_12h59.23.391,task,2021.1.4,Win32,60.27000964,628b806c463b948bc644b84f,62a323e7603a456ef7e7ee56,[0.4720999999046569],,,,,,,,,,,,,,,,,,,,,,,,,,,,,,,,,,,,,,,,,,,,,,,,,,,,,,,,,,,,,,,,,,,,,,,,,,,,,,,,,,,,,,,,,,,,,,,,,,,,,,,
,,"[""period""]",0,72,0,72,0,1,5f1b3d60e2aa49309eb5774e,24,Kobieta,2022-06-10_12h59.23.391,task,2021.1.4,Win32,60.27000964,628b806c463b948bc644b84f,62a323e7603a456ef7e7ee56,[0.37089999985695954],,,,,,,,,,,,,,,,,,,,,,,,,,,,,,,,,,,,,,,,,,,,,,,,,,,,,,,,,,,,,,,,,,,,,,,,,,,,,,,,,,,,,,,,,,,,,,,,,,,,,,,
,,"[""comma""]",0,73,0,73,0,1,5f1b3d60e2aa49309eb5774e,24,Kobieta,2022-06-10_12h59.23.391,task,2021.1.4,Win32,60.27000964,628b806c463b948bc644b84f,62a323e7603a456ef7e7ee56,[0.3404000000953715],,,,,,,,,,,,,,,,,,,,,,,,,,,,,,,,,,,,,,,,,,,,,,,,,,,,,,,,,,,,,,,,,,,,,,,,,,,,,,,,,,,,,,,,,,,,,,,,,,,,,,,
,,"[""period""]",0,74,0,74,0,1,5f1b3d60e2aa49309eb5774e,24,Kobieta,2022-06-10_12h59.23.391,task,2021.1.4,Win32,60.27000964,628b806c463b948bc644b84f,62a323e7603a456ef7e7ee56,[0.28329999995230537],,,,,,,,,,,,,,,,,,,,,,,,,,,,,,,,,,,,,,,,,,,,,,,,,,,,,,,,,,,,,,,,,,,,,,,,,,,,,,,,,,,,,,,,,,,,,,,,,,,,,,,
,,"[""period""]",0,75,0,75,0,1,5f1b3d60e2aa49309eb5774e,24,Kobieta,2022-06-10_12h59.23.391,task,2021.1.4,Win32,60.27000964,628b806c463b948bc644b84f,62a323e7603a456ef7e7ee56,[0.2648000001907178],,,,,,,,,,,,,,,,,,,,,,,,,,,,,,,,,,,,,,,,,,,,,,,,,,,,,,,,,,,,,,,,,,,,,,,,,,,,,,,,,,,,,,,,,,,,,,,,,,,,,,,
,,"[""period""]",0,76,0,76,0,1,5f1b3d60e2aa49309eb5774e,24,Kobieta,2022-06-10_12h59.23.391,task,2021.1.4,Win32,60.27000964,628b806c463b948bc644b84f,62a323e7603a456ef7e7ee56,[0.40679999995234084],,,,,,,,,,,,,,,,,,,,,,,,,,,,,,,,,,,,,,,,,,,,,,,,,,,,,,,,,,,,,,,,,,,,,,,,,,,,,,,,,,,,,,,,,,,,,,,,,,,,,,,
,,"[""comma""]",0,77,0,77,0,1,5f1b3d60e2aa49309eb5774e,24,Kobieta,2022-06-10_12h59.23.391,task,2021.1.4,Win32,60.27000964,628b806c463b948bc644b84f,62a323e7603a456ef7e7ee56,[0.5374000000953743],,,,,,,,,,,,,,,,,,,,,,,,,,,,,,,,,,,,,,,,,,,,,,,,,,,,,,,,,,,,,,,,,,,,,,,,,,,,,,,,,,,,,,,,,,,,,,,,,,,,,,,
,,"[""period""]",0,78,0,78,0,1,5f1b3d60e2aa49309eb5774e,24,Kobieta,2022-06-10_12h59.23.391,task,2021.1.4,Win32,60.27000964,628b806c463b948bc644b84f,62a323e7603a456ef7e7ee56,[0.6318999998569552],,,,,,,,,,,,,,,,,,,,,,,,,,,,,,,,,,,,,,,,,,,,,,,,,,,,,,,,,,,,,,,,,,,,,,,,,,,,,,,,,,,,,,,,,,,,,,,,,,,,,,,
,,"[""comma""]",0,79,0,79,0,1,5f1b3d60e2aa49309eb5774e,24,Kobieta,2022-06-10_12h59.23.391,task,2021.1.4,Win32,60.27000964,628b806c463b948bc644b84f,62a323e7603a456ef7e7ee56,[0.8200999999046417],,,,,,,,,,,,,,,,,,,,,,,,,,,,,,,,,,,,,,,,,,,,,,,,,,,,,,,,,,,,,,,,,,,,,,,,,,,,,,,,,,,,,,,,,,,,,,,,,,,,,,,
,,"[""period""]",0,80,0,80,0,1,5f1b3d60e2aa49309eb5774e,24,Kobieta,2022-06-10_12h59.23.391,task,2021.1.4,Win32,60.27000964,628b806c463b948bc644b84f,62a323e7603a456ef7e7ee56,[0.5015000000000214],,,,,,,,,,,,,,,,,,,,,,,,,,,,,,,,,,,,,,,,,,,,,,,,,,,,,,,,,,,,,,,,,,,,,,,,,,,,,,,,,,,,,,,,,,,,,,,,,,,,,,,
,,"[""period""]",0,81,0,81,0,1,5f1b3d60e2aa49309eb5774e,24,Kobieta,2022-06-10_12h59.23.391,task,2021.1.4,Win32,60.27000964,628b806c463b948bc644b84f,62a323e7603a456ef7e7ee56,[0.27279999995226945],,,,,,,,,,,,,,,,,,,,,,,,,,,,,,,,,,,,,,,,,,,,,,,,,,,,,,,,,,,,,,,,,,,,,,,,,,,,,,,,,,,,,,,,,,,,,,,,,,,,,,,
,,"[""period""]",0,82,0,82,0,1,5f1b3d60e2aa49309eb5774e,24,Kobieta,2022-06-10_12h59.23.391,task,2021.1.4,Win32,60.27000964,628b806c463b948bc644b84f,62a323e7603a456ef7e7ee56,[0.3159000000953256],,,,,,,,,,,,,,,,,,,,,,,,,,,,,,,,,,,,,,,,,,,,,,,,,,,,,,,,,,,,,,,,,,,,,,,,,,,,,,,,,,,,,,,,,,,,,,,,,,,,,,,
,,"[""period""]",0,83,0,83,0,1,5f1b3d60e2aa49309eb5774e,24,Kobieta,2022-06-10_12h59.23.391,task,2021.1.4,Win32,60.27000964,628b806c463b948bc644b84f,62a323e7603a456ef7e7ee56,[0.29750000000001364],,,,,,,,,,,,,,,,,,,,,,,,,,,,,,,,,,,,,,,,,,,,,,,,,,,,,,,,,,,,,,,,,,,,,,,,,,,,,,,,,,,,,,,,,,,,,,,,,,,,,,,
,,"[""period""]",0,84,0,84,0,1,5f1b3d60e2aa49309eb5774e,24,Kobieta,2022-06-10_12h59.23.391,task,2021.1.4,Win32,60.27000964,628b806c463b948bc644b84f,62a323e7603a456ef7e7ee56,[0.3676000001430566],,,,,,,,,,,,,,,,,,,,,,,,,,,,,,,,,,,,,,,,,,,,,,,,,,,,,,,,,,,,,,,,,,,,,,,,,,,,,,,,,,,,,,,,,,,,,,,,,,,,,,,
,,"[""comma""]",0,85,0,85,0,1,5f1b3d60e2aa49309eb5774e,24,Kobieta,2022-06-10_12h59.23.391,task,2021.1.4,Win32,60.27000964,628b806c463b948bc644b84f,62a323e7603a456ef7e7ee56,[0.30609999990463166],,,,,,,,,,,,,,,,,,,,,,,,,,,,,,,,,,,,,,,,,,,,,,,,,,,,,,,,,,,,,,,,,,,,,,,,,,,,,,,,,,,,,,,,,,,,,,,,,,,,,,,
,,"[""comma""]",0,86,0,86,0,1,5f1b3d60e2aa49309eb5774e,24,Kobieta,2022-06-10_12h59.23.391,task,2021.1.4,Win32,60.27000964,628b806c463b948bc644b84f,62a323e7603a456ef7e7ee56,[0.33799999999996544],,,,,,,,,,,,,,,,,,,,,,,,,,,,,,,,,,,,,,,,,,,,,,,,,,,,,,,,,,,,,,,,,,,,,,,,,,,,,,,,,,,,,,,,,,,,,,,,,,,,,,,
,,"[""period""]",0,87,0,87,0,1,5f1b3d60e2aa49309eb5774e,24,Kobieta,2022-06-10_12h59.23.391,task,2021.1.4,Win32,60.27000964,628b806c463b948bc644b84f,62a323e7603a456ef7e7ee56,[0.33199999999999363],,,,,,,,,,,,,,,,,,,,,,,,,,,,,,,,,,,,,,,,,,,,,,,,,,,,,,,,,,,,,,,,,,,,,,,,,,,,,,,,,,,,,,,,,,,,,,,,,,,,,,,
,,"[""comma""]",0,88,0,88,0,1,5f1b3d60e2aa49309eb5774e,24,Kobieta,2022-06-10_12h59.23.391,task,2021.1.4,Win32,60.27000964,628b806c463b948bc644b84f,62a323e7603a456ef7e7ee56,[0.38100000000002865],,,,,,,,,,,,,,,,,,,,,,,,,,,,,,,,,,,,,,,,,,,,,,,,,,,,,,,,,,,,,,,,,,,,,,,,,,,,,,,,,,,,,,,,,,,,,,,,,,,,,,,
,,"[""period""]",0,89,0,89,0,1,5f1b3d60e2aa49309eb5774e,24,Kobieta,2022-06-10_12h59.23.391,task,2021.1.4,Win32,60.27000964,628b806c463b948bc644b84f,62a323e7603a456ef7e7ee56,[0.3644999999999641],,,,,,,,,,,,,,,,,,,,,,,,,,,,,,,,,,,,,,,,,,,,,,,,,,,,,,,,,,,,,,,,,,,,,,,,,,,,,,,,,,,,,,,,,,,,,,,,,,,,,,,
,,"[""comma""]",0,90,0,90,0,1,5f1b3d60e2aa49309eb5774e,24,Kobieta,2022-06-10_12h59.23.391,task,2021.1.4,Win32,60.27000964,628b806c463b948bc644b84f,62a323e7603a456ef7e7ee56,[0.27290000009537607],,,,,,,,,,,,,,,,,,,,,,,,,,,,,,,,,,,,,,,,,,,,,,,,,,,,,,,,,,,,,,,,,,,,,,,,,,,,,,,,,,,,,,,,,,,,,,,,,,,,,,,
,,"[""period""]",0,91,0,91,0,1,5f1b3d60e2aa49309eb5774e,24,Kobieta,2022-06-10_12h59.23.391,task,2021.1.4,Win32,60.27000964,628b806c463b948bc644b84f,62a323e7603a456ef7e7ee56,[0.3177000000476369],,,,,,,,,,,,,,,,,,,,,,,,,,,,,,,,,,,,,,,,,,,,,,,,,,,,,,,,,,,,,,,,,,,,,,,,,,,,,,,,,,,,,,,,,,,,,,,,,,,,,,,
,,"[""comma""]",0,92,0,92,0,1,5f1b3d60e2aa49309eb5774e,24,Kobieta,2022-06-10_12h59.23.391,task,2021.1.4,Win32,60.27000964,628b806c463b948bc644b84f,62a323e7603a456ef7e7ee56,[0.4070000000000391],,,,,,,,,,,,,,,,,,,,,,,,,,,,,,,,,,,,,,,,,,,,,,,,,,,,,,,,,,,,,,,,,,,,,,,,,,,,,,,,,,,,,,,,,,,,,,,,,,,,,,,
,,"[""comma""]",0,93,0,93,0,1,5f1b3d60e2aa49309eb5774e,24,Kobieta,2022-06-10_12h59.23.391,task,2021.1.4,Win32,60.27000964,628b806c463b948bc644b84f,62a323e7603a456ef7e7ee56,[0.39999999999997726],,,,,,,,,,,,,,,,,,,,,,,,,,,,,,,,,,,,,,,,,,,,,,,,,,,,,,,,,,,,,,,,,,,,,,,,,,,,,,,,,,,,,,,,,,,,,,,,,,,,,,,
,,"[""period""]",0,94,0,94,0,1,5f1b3d60e2aa49309eb5774e,24,Kobieta,2022-06-10_12h59.23.391,task,2021.1.4,Win32,60.27000964,628b806c463b948bc644b84f,62a323e7603a456ef7e7ee56,[0.391700000047706],,,,,,,,,,,,,,,,,,,,,,,,,,,,,,,,,,,,,,,,,,,,,,,,,,,,,,,,,,,,,,,,,,,,,,,,,,,,,,,,,,,,,,,,,,,,,,,,,,,,,,,
,,"[""comma""]",0,95,0,95,0,1,5f1b3d60e2aa49309eb5774e,24,Kobieta,2022-06-10_12h59.23.391,task,2021.1.4,Win32,60.27000964,628b806c463b948bc644b84f,62a323e7603a456ef7e7ee56,[0.3010999999046362],,,,,,,,,,,,,,,,,,,,,,,,,,,,,,,,,,,,,,,,,,,,,,,,,,,,,,,,,,,,,,,,,,,,,,,,,,,,,,,,,,,,,,,,,,,,,,,,,,,,,,,
,,"[""period""]",0,96,0,96,0,1,5f1b3d60e2aa49309eb5774e,24,Kobieta,2022-06-10_12h59.23.391,task,2021.1.4,Win32,60.27000964,628b806c463b948bc644b84f,62a323e7603a456ef7e7ee56,[0.5025999999046462],,,,,,,,,,,,,,,,,,,,,,,,,,,,,,,,,,,,,,,,,,,,,,,,,,,,,,,,,,,,,,,,,,,,,,,,,,,,,,,,,,,,,,,,,,,,,,,,,,,,,,,
,,"[""period""]",0,97,0,97,0,1,5f1b3d60e2aa49309eb5774e,24,Kobieta,2022-06-10_12h59.23.391,task,2021.1.4,Win32,60.27000964,628b806c463b948bc644b84f,62a323e7603a456ef7e7ee56,[0.2896999998092724],,,,,,,,,,,,,,,,,,,,,,,,,,,,,,,,,,,,,,,,,,,,,,,,,,,,,,,,,,,,,,,,,,,,,,,,,,,,,,,,,,,,,,,,,,,,,,,,,,,,,,,
,,"[""period""]",0,98,0,98,0,1,5f1b3d60e2aa49309eb5774e,24,Kobieta,2022-06-10_12h59.23.391,task,2021.1.4,Win32,60.27000964,628b806c463b948bc644b84f,62a323e7603a456ef7e7ee56,[0.4886000001430375],,,,,,,,,,,,,,,,,,,,,,,,,,,,,,,,,,,,,,,,,,,,,,,,,,,,,,,,,,,,,,,,,,,,,,,,,,,,,,,,,,,,,,,,,,,,,,,,,,,,,,,
,,"[""comma""]",0,99,0,99,0,1,5f1b3d60e2aa49309eb5774e,24,Kobieta,2022-06-10_12h59.23.391,task,2021.1.4,Win32,60.27000964,628b806c463b948bc644b84f,62a323e7603a456ef7e7ee56,[0.2837000000477019],,,,,,,,,,,,,,,,,,,,,,,,,,,,,,,,,,,,,,,,,,,,,,,,,,,,,,,,,,,,,,,,,,,,,,,,,,,,,,,,,,,,,,,,,,,,,,,,,,,,,,,
,,"[""comma""]",0,100,0,100,0,1,5f1b3d60e2aa49309eb5774e,24,Kobieta,2022-06-10_12h59.23.391,task,2021.1.4,Win32,60.27000964,628b806c463b948bc644b84f,62a323e7603a456ef7e7ee56,[0.27050000000002683],,,,,,,,,,,,,,,,,,,,,,,,,,,,,,,,,,,,,,,,,,,,,,,,,,,,,,,,,,,,,,,,,,,,,,,,,,,,,,,,,,,,,,,,,,,,,,,,,,,,,,,
,,"[""period""]",0,101,0,101,0,1,5f1b3d60e2aa49309eb5774e,24,Kobieta,2022-06-10_12h59.23.391,task,2021.1.4,Win32,60.27000964,628b806c463b948bc644b84f,62a323e7603a456ef7e7ee56,[0.2907000000477069],,,,,,,,,,,,,,,,,,,,,,,,,,,,,,,,,,,,,,,,,,,,,,,,,,,,,,,,,,,,,,,,,,,,,,,,,,,,,,,,,,,,,,,,,,,,,,,,,,,,,,,
,,"[""comma""]",0,102,0,102,0,1,5f1b3d60e2aa49309eb5774e,24,Kobieta,2022-06-10_12h59.23.391,task,2021.1.4,Win32,60.27000964,628b806c463b948bc644b84f,62a323e7603a456ef7e7ee56,[0.28170000004769236],,,,,,,,,,,,,,,,,,,,,,,,,,,,,,,,,,,,,,,,,,,,,,,,,,,,,,,,,,,,,,,,,,,,,,,,,,,,,,,,,,,,,,,,,,,,,,,,,,,,,,,
,,"[""period""]",0,103,0,103,0,1,5f1b3d60e2aa49309eb5774e,24,Kobieta,2022-06-10_12h59.23.391,task,2021.1.4,Win32,60.27000964,628b806c463b948bc644b84f,62a323e7603a456ef7e7ee56,[0.2868999998569848],,,,,,,,,,,,,,,,,,,,,,,,,,,,,,,,,,,,,,,,,,,,,,,,,,,,,,,,,,,,,,,,,,,,,,,,,,,,,,,,,,,,,,,,,,,,,,,,,,,,,,,
,,"[""comma""]",0,104,0,104,0,1,5f1b3d60e2aa49309eb5774e,24,Kobieta,2022-06-10_12h59.23.391,task,2021.1.4,Win32,60.27000964,628b806c463b948bc644b84f,62a323e7603a456ef7e7ee56,[0.2647999999522881],,,,,,,,,,,,,,,,,,,,,,,,,,,,,,,,,,,,,,,,,,,,,,,,,,,,,,,,,,,,,,,,,,,,,,,,,,,,,,,,,,,,,,,,,,,,,,,,,,,,,,,
,,"[""period"",""period""]",0,105,0,105,0,1,5f1b3d60e2aa49309eb5774e,24,Kobieta,2022-06-10_12h59.23.391,task,2021.1.4,Win32,60.27000964,628b806c463b948bc644b84f,62a323e7603a456ef7e7ee56,"[0.3390999999046471,1.881399999856967]",,,,,,,,,,,,,,,,,,,,,,,,,,,,,,,,,,,,,,,,,,,,,,,,,,,,,,,,,,,,,,,,,,,,,,,,,,,,,,,,,,,,,,,,,,,,,,,,,,,,,,,
,,,0,106,0,106,0,1,5f1b3d60e2aa49309eb5774e,24,Kobieta,2022-06-10_12h59.23.391,task,2021.1.4,Win32,60.27000964,628b806c463b948bc644b84f,62a323e7603a456ef7e7ee56,,,,,,,,,,,,,,,,,,,,,,,,,,,,,,,,,,,,,,,,,,,,,,,,,,,,,,,,,,,,,,,,,,,,,,,,,,,,,,,,,,,,,,,,,,,,,,,,,,,,,,,,
,,"[""comma""]",0,107,0,107,0,1,5f1b3d60e2aa49309eb5774e,24,Kobieta,2022-06-10_12h59.23.391,task,2021.1.4,Win32,60.27000964,628b806c463b948bc644b84f,62a323e7603a456ef7e7ee56,[0.30379999995227536],,,,,,,,,,,,,,,,,,,,,,,,,,,,,,,,,,,,,,,,,,,,,,,,,,,,,,,,,,,,,,,,,,,,,,,,,,,,,,,,,,,,,,,,,,,,,,,,,,,,,,,
,,"[""period""]",0,108,0,108,0,1,5f1b3d60e2aa49309eb5774e,24,Kobieta,2022-06-10_12h59.23.391,task,2021.1.4,Win32,60.27000964,628b806c463b948bc644b84f,62a323e7603a456ef7e7ee56,[0.22239999985691838],,,,,,,,,,,,,,,,,,,,,,,,,,,,,,,,,,,,,,,,,,,,,,,,,,,,,,,,,,,,,,,,,,,,,,,,,,,,,,,,,,,,,,,,,,,,,,,,,,,,,,,
,,"[""period""]",0,109,0,109,0,1,5f1b3d60e2aa49309eb5774e,24,Kobieta,2022-06-10_12h59.23.391,task,2021.1.4,Win32,60.27000964,628b806c463b948bc644b84f,62a323e7603a456ef7e7ee56,[0.7981000001430516],,,,,,,,,,,,,,,,,,,,,,,,,,,,,,,,,,,,,,,,,,,,,,,,,,,,,,,,,,,,,,,,,,,,,,,,,,,,,,,,,,,,,,,,,,,,,,,,,,,,,,,
,,"[""comma""]",0,110,0,110,0,1,5f1b3d60e2aa49309eb5774e,24,Kobieta,2022-06-10_12h59.23.391,task,2021.1.4,Win32,60.27000964,628b806c463b948bc644b84f,62a323e7603a456ef7e7ee56,[1.002200000047651],,,,,,,,,,,,,,,,,,,,,,,,,,,,,,,,,,,,,,,,,,,,,,,,,,,,,,,,,,,,,,,,,,,,,,,,,,,,,,,,,,,,,,,,,,,,,,,,,,,,,,,
,,"[""period""]",0,111,0,111,0,1,5f1b3d60e2aa49309eb5774e,24,Kobieta,2022-06-10_12h59.23.391,task,2021.1.4,Win32,60.27000964,628b806c463b948bc644b84f,62a323e7603a456ef7e7ee56,[1.0813999998569557],,,,,,,,,,,,,,,,,,,,,,,,,,,,,,,,,,,,,,,,,,,,,,,,,,,,,,,,,,,,,,,,,,,,,,,,,,,,,,,,,,,,,,,,,,,,,,,,,,,,,,,
,,"[""comma""]",0,112,0,112,0,1,5f1b3d60e2aa49309eb5774e,24,Kobieta,2022-06-10_12h59.23.391,task,2021.1.4,Win32,60.27000964,628b806c463b948bc644b84f,62a323e7603a456ef7e7ee56,[1.6500999999046257],,,,,,,,,,,,,,,,,,,,,,,,,,,,,,,,,,,,,,,,,,,,,,,,,,,,,,,,,,,,,,,,,,,,,,,,,,,,,,,,,,,,,,,,,,,,,,,,,,,,,,,
,,"[""period""]",0,113,0,113,0,1,5f1b3d60e2aa49309eb5774e,24,Kobieta,2022-06-10_12h59.23.391,task,2021.1.4,Win32,60.27000964,628b806c463b948bc644b84f,62a323e7603a456ef7e7ee56,[1.7019999999999982],,,,,,,,,,,,,,,,,,,,,,,,,,,,,,,,,,,,,,,,,,,,,,,,,,,,,,,,,,,,,,,,,,,,,,,,,,,,,,,,,,,,,,,,,,,,,,,,,,,,,,,
,,,0,114,0,114,0,1,5f1b3d60e2aa49309eb5774e,24,Kobieta,2022-06-10_12h59.23.391,task,2021.1.4,Win32,60.27000964,628b806c463b948bc644b84f,62a323e7603a456ef7e7ee56,,,,,,,,,,,,,,,,,,,,,,,,,,,,,,,,,,,,,,,,,,,,,,,,,,,,,,,,,,,,,,,,,,,,,,,,,,,,,,,,,,,,,,,,,,,,,,,,,,,,,,,,
,,"[""comma""]",0,115,0,115,0,1,5f1b3d60e2aa49309eb5774e,24,Kobieta,2022-06-10_12h59.23.391,task,2021.1.4,Win32,60.27000964,628b806c463b948bc644b84f,62a323e7603a456ef7e7ee56,[0.2508999998569834],,,,,,,,,,,,,,,,,,,,,,,,,,,,,,,,,,,,,,,,,,,,,,,,,,,,,,,,,,,,,,,,,,,,,,,,,,,,,,,,,,,,,,,,,,,,,,,,,,,,,,,
,,"[""period""]",0,116,0,116,0,1,5f1b3d60e2aa49309eb5774e,24,Kobieta,2022-06-10_12h59.23.391,task,2021.1.4,Win32,60.27000964,628b806c463b948bc644b84f,62a323e7603a456ef7e7ee56,[0.4350000000000023],,,,,,,,,,,,,,,,,,,,,,,,,,,,,,,,,,,,,,,,,,,,,,,,,,,,,,,,,,,,,,,,,,,,,,,,,,,,,,,,,,,,,,,,,,,,,,,,,,,,,,,
,,"[""comma""]",0,117,0,117,0,1,5f1b3d60e2aa49309eb5774e,24,Kobieta,2022-06-10_12h59.23.391,task,2021.1.4,Win32,60.27000964,628b806c463b948bc644b84f,62a323e7603a456ef7e7ee56,[1.4005000000000223],,,,,,,,,,,,,,,,,,,,,,,,,,,,,,,,,,,,,,,,,,,,,,,,,,,,,,,,,,,,,,,,,,,,,,,,,,,,,,,,,,,,,,,,,,,,,,,,,,,,,,,
,,"[""period""]",0,118,0,118,0,1,5f1b3d60e2aa49309eb5774e,24,Kobieta,2022-06-10_12h59.23.391,task,2021.1.4,Win32,60.27000964,628b806c463b948bc644b84f,62a323e7603a456ef7e7ee56,[1.6497000000476874],,,,,,,,,,,,,,,,,,,,,,,,,,,,,,,,,,,,,,,,,,,,,,,,,,,,,,,,,,,,,,,,,,,,,,,,,,,,,,,,,,,,,,,,,,,,,,,,,,,,,,,
,,,0,119,0,119,0,1,5f1b3d60e2aa49309eb5774e,24,Kobieta,2022-06-10_12h59.23.391,task,2021.1.4,Win32,60.27000964,628b806c463b948bc644b84f,62a323e7603a456ef7e7ee56,,,,,,,,,,,,,,,,,,,,,,,,,,,,,,,,,,,,,,,,,,,,,,,,,,,,,,,,,,,,,,,,,,,,,,,,,,,,,,,,,,,,,,,,,,,,,,,,,,,,,,,,
,,,,,,,,,5f1b3d60e2aa49309eb5774e,24,Kobieta,2022-06-10_12h59.23.391,task,2021.1.4,Win32,60.27000964,628b806c463b948bc644b84f,62a323e7603a456ef7e7ee56,,space,35.6472,space,3.9156,0,0,0,0,1,X V Q F H G B L J M P D K C T S W R N Z,,,,,,,,,,,,,,,,,,,,,,,,,,,,,,,,,,,,,,,,,,,,,,,,,,,,,,,,,,,,,,,,,,,,,,,,,,,,,,,,,,,,,,,,,,,,,
,,,,,,,,,5f1b3d60e2aa49309eb5774e,24,Kobieta,2022-06-10_12h59.23.391,task,2021.1.4,Win32,60.27000964,628b806c463b948bc644b84f,62a323e7603a456ef7e7ee56,,,,,,1,0,1,0,1,X V Q F H G B L J M P D K C T S W R N Z,,,,,,,,,,,,,,,,,,,,,,,,,,,,,,,,,,,,,,,,,,,,,,,,,,,,,,,,,,,,,,,,,,,,,,,,,,,,,,,,,,,,,,,,,,,,,
,,,,,,,,,5f1b3d60e2aa49309eb5774e,24,Kobieta,2022-06-10_12h59.23.391,task,2021.1.4,Win32,60.27000964,628b806c463b948bc644b84f,62a323e7603a456ef7e7ee56,,,,,,,,,,,,zw,"[""z"",""w""]","[1.7405999999046458,2.0712999999523163,2.9881999998092397]",1,ZW,0,0,0,0,1,,,,,,,,,,,,,,,,,,,,,,,,,,,,,,,,,,,,,,,,,,,,,,,,,,,,,,,,,,,,,,,,,,,,,,,,,,,,,,,,,,,
,,,,,,,,,5f1b3d60e2aa49309eb5774e,24,Kobieta,2022-06-10_12h59.23.391,task,2021.1.4,Win32,60.27000964,628b806c463b948bc644b84f,62a323e7603a456ef7e7ee56,,,,,,0,0,0,0,1,X V Q F H G B L J M P D K C T S W R N Z,,,,,,,,,,,,,,,,,,,,,,,,,,,,,,,,,,,,,,,,,,,,,,,,,,,,,,,,,,,,,,,,,,,,,,,,,,,,,,,,,,,,,,,,,,,,,
,,,,,,,,,5f1b3d60e2aa49309eb5774e,24,Kobieta,2022-06-10_12h59.23.391,task,2021.1.4,Win32,60.27000964,628b806c463b948bc644b84f,62a323e7603a456ef7e7ee56,,,,,,1,0,1,0,1,X V Q F H G B L J M P D K C T S W R N Z,,,,,,,,,,,,,,,,,,,,,,,,,,,,,,,,,,,,,,,,,,,,,,,,,,,,,,,,,,,,,,,,,,,,,,,,,,,,,,,,,,,,,,,,,,,,,
,,,,,,,,,5f1b3d60e2aa49309eb5774e,24,Kobieta,2022-06-10_12h59.23.391,task,2021.1.4,Win32,60.27000964,628b806c463b948bc644b84f,62a323e7603a456ef7e7ee56,,,,,,,,,,,,fq,"[""f"",""q""]","[0.8796000001430571,1.2093000001906944,1.995999999999981]",1,FQ,1,0,1,0,1,,,,,,,,,,,,,,,,,,,,,,,,,,,,,,,,,,,,,,,,,,,,,,,,,,,,,,,,,,,,,,,,,,,,,,,,,,,,,,,,,,,
,,,,,,,,,5f1b3d60e2aa49309eb5774e,24,Kobieta,2022-06-10_12h59.23.391,task,2021.1.4,Win32,60.27000964,628b806c463b948bc644b84f,62a323e7603a456ef7e7ee56,,,,,,0,0,0,0,1,X V Q F H G B L J M P D K C T S W R N Z,,,,,,,,,,,,,,,,,,,,,,,,,,,,,,,,,,,,,,,,,,,,,,,,,,,,,,,,,,,,,,,,,,,,,,,,,,,,,,,,,,,,,,,,,,,,,
,,,,,,,,,5f1b3d60e2aa49309eb5774e,24,Kobieta,2022-06-10_12h59.23.391,task,2021.1.4,Win32,60.27000964,628b806c463b948bc644b84f,62a323e7603a456ef7e7ee56,,,,,,1,0,1,0,1,X V Q F H G B L J M P D K C T S W R N Z,,,,,,,,,,,,,,,,,,,,,,,,,,,,,,,,,,,,,,,,,,,,,,,,,,,,,,,,,,,,,,,,,,,,,,,,,,,,,,,,,,,,,,,,,,,,,
,,,,,,,,,5f1b3d60e2aa49309eb5774e,24,Kobieta,2022-06-10_12h59.23.391,task,2021.1.4,Win32,60.27000964,628b806c463b948bc644b84f,62a323e7603a456ef7e7ee56,,,,,,2,0,2,0,1,X V Q F H G B L J M P D K C T S W R N Z,,,,,,,,,,,,,,,,,,,,,,,,,,,,,,,,,,,,,,,,,,,,,,,,,,,,,,,,,,,,,,,,,,,,,,,,,,,,,,,,,,,,,,,,,,,,,
,,,,,,,,,5f1b3d60e2aa49309eb5774e,24,Kobieta,2022-06-10_12h59.23.391,task,2021.1.4,Win32,60.27000964,628b806c463b948bc644b84f,62a323e7603a456ef7e7ee56,,,,,,,,,,,,tqd,"[""t"",""q"",""d""]","[0.6936000001430784,1.1265000000000214,1.5359000000953529,2.111600000143085]",1,TQD,2,0,2,0,1,,,,,,,,,,,,,,,,,,,,,,,,,,,,,,,,,,,,,,,,,,,,,,,,,,,,,,,,,,,,,,,,,,,,,,,,,,,,,,,,,,,
,,,,,,,,,5f1b3d60e2aa49309eb5774e,24,Kobieta,2022-06-10_12h59.23.391,task,2021.1.4,Win32,60.27000964,628b806c463b948bc644b84f,62a323e7603a456ef7e7ee56,,,,,,0,0,0,0,1,X V Q F H G B L J M P D K C T S W R N Z,,,,,,,,,,,,,,,,,,,,,,,,,,,,,,,,,,,,,,,,,,,,,,,,,,,,,,,,,,,,,,,,,,,,,,,,,,,,,,,,,,,,,,,,,,,,,
,,,,,,,,,5f1b3d60e2aa49309eb5774e,24,Kobieta,2022-06-10_12h59.23.391,task,2021.1.4,Win32,60.27000964,628b806c463b948bc644b84f,62a323e7603a456ef7e7ee56,,,,,,1,0,1,0,1,X V Q F H G B L J M P D K C T S W R N Z,,,,,,,,,,,,,,,,,,,,,,,,,,,,,,,,,,,,,,,,,,,,,,,,,,,,,,,,,,,,,,,,,,,,,,,,,,,,,,,,,,,,,,,,,,,,,
,,,,,,,,,5f1b3d60e2aa49309eb5774e,24,Kobieta,2022-06-10_12h59.23.391,task,2021.1.4,Win32,60.27000964,628b806c463b948bc644b84f,62a323e7603a456ef7e7ee56,,,,,,2,0,2,0,1,X V Q F H G B L J M P D K C T S W R N Z,,,,,,,,,,,,,,,,,,,,,,,,,,,,,,,,,,,,,,,,,,,,,,,,,,,,,,,,,,,,,,,,,,,,,,,,,,,,,,,,,,,,,,,,,,,,,
,,,,,,,,,5f1b3d60e2aa49309eb5774e,24,Kobieta,2022-06-10_12h59.23.391,task,2021.1.4,Win32,60.27000964,628b806c463b948bc644b84f,62a323e7603a456ef7e7ee56,,,,,,,,,,,,zhs,"[""z"",""h"",""s""]","[0.9137999999523458,1.0919999999999845,1.4934999999999832,2.0085000000000264]",1,ZHS,3,0,3,0,1,,,,,,,,,,,,,,,,,,,,,,,,,,,,,,,,,,,,,,,,,,,,,,,,,,,,,,,,,,,,,,,,,,,,,,,,,,,,,,,,,,,
,,,,,,,,,5f1b3d60e2aa49309eb5774e,24,Kobieta,2022-06-10_12h59.23.391,task,2021.1.4,Win32,60.27000964,628b806c463b948bc644b84f,62a323e7603a456ef7e7ee56,,,,,,0,0,0,0,1,X V Q F H G B L J M P D K C T S W R N Z,,,,,,,,,,,,,,,,,,,,,,,,,,,,,,,,,,,,,,,,,,,,,,,,,,,,,,,,,,,,,,,,,,,,,,,,,,,,,,,,,,,,,,,,,,,,,
,,,,,,,,,5f1b3d60e2aa49309eb5774e,24,Kobieta,2022-06-10_12h59.23.391,task,2021.1.4,Win32,60.27000964,628b806c463b948bc644b84f,62a323e7603a456ef7e7ee56,,,,,,1,0,1,0,1,X V Q F H G B L J M P D K C T S W R N Z,,,,,,,,,,,,,,,,,,,,,,,,,,,,,,,,,,,,,,,,,,,,,,,,,,,,,,,,,,,,,,,,,,,,,,,,,,,,,,,,,,,,,,,,,,,,,
,,,,,,,,,5f1b3d60e2aa49309eb5774e,24,Kobieta,2022-06-10_12h59.23.391,task,2021.1.4,Win32,60.27000964,628b806c463b948bc644b84f,62a323e7603a456ef7e7ee56,,,,,,2,0,2,0,1,X V Q F H G B L J M P D K C T S W R N Z,,,,,,,,,,,,,,,,,,,,,,,,,,,,,,,,,,,,,,,,,,,,,,,,,,,,,,,,,,,,,,,,,,,,,,,,,,,,,,,,,,,,,,,,,,,,,
,,,,,,,,,5f1b3d60e2aa49309eb5774e,24,Kobieta,2022-06-10_12h59.23.391,task,2021.1.4,Win32,60.27000964,628b806c463b948bc644b84f,62a323e7603a456ef7e7ee56,,,,,,3,0,3,0,1,X V Q F H G B L J M P D K C T S W R N Z,,,,,,,,,,,,,,,,,,,,,,,,,,,,,,,,,,,,,,,,,,,,,,,,,,,,,,,,,,,,,,,,,,,,,,,,,,,,,,,,,,,,,,,,,,,,,
,,,,,,,,,5f1b3d60e2aa49309eb5774e,24,Kobieta,2022-06-10_12h59.23.391,task,2021.1.4,Win32,60.27000964,628b806c463b948bc644b84f,62a323e7603a456ef7e7ee56,,,,,,,,,,,,lvwz,"[""l"",""v"",""w"",""z""]","[0.5944000000953906,1.6772000000476623,3.6295000000000073,3.992700000047705,4.6071000001430775]",1,LVWZ,4,0,4,0,1,,,,,,,,,,,,,,,,,,,,,,,,,,,,,,,,,,,,,,,,,,,,,,,,,,,,,,,,,,,,,,,,,,,,,,,,,,,,,,,,,,,
,,,,,,,,,5f1b3d60e2aa49309eb5774e,24,Kobieta,2022-06-10_12h59.23.391,task,2021.1.4,Win32,60.27000964,628b806c463b948bc644b84f,62a323e7603a456ef7e7ee56,,,,,,0,0,0,0,1,X V Q F H G B L J M P D K C T S W R N Z,,,,,,,,,,,,,,,,,,,,,,,,,,,,,,,,,,,,,,,,,,,,,,,,,,,,,,,,,,,,,,,,,,,,,,,,,,,,,,,,,,,,,,,,,,,,,
,,,,,,,,,5f1b3d60e2aa49309eb5774e,24,Kobieta,2022-06-10_12h59.23.391,task,2021.1.4,Win32,60.27000964,628b806c463b948bc644b84f,62a323e7603a456ef7e7ee56,,,,,,1,0,1,0,1,X V Q F H G B L J M P D K C T S W R N Z,,,,,,,,,,,,,,,,,,,,,,,,,,,,,,,,,,,,,,,,,,,,,,,,,,,,,,,,,,,,,,,,,,,,,,,,,,,,,,,,,,,,,,,,,,,,,
,,,,,,,,,5f1b3d60e2aa49309eb5774e,24,Kobieta,2022-06-10_12h59.23.391,task,2021.1.4,Win32,60.27000964,628b806c463b948bc644b84f,62a323e7603a456ef7e7ee56,,,,,,2,0,2,0,1,X V Q F H G B L J M P D K C T S W R N Z,,,,,,,,,,,,,,,,,,,,,,,,,,,,,,,,,,,,,,,,,,,,,,,,,,,,,,,,,,,,,,,,,,,,,,,,,,,,,,,,,,,,,,,,,,,,,
,,,,,,,,,5f1b3d60e2aa49309eb5774e,24,Kobieta,2022-06-10_12h59.23.391,task,2021.1.4,Win32,60.27000964,628b806c463b948bc644b84f,62a323e7603a456ef7e7ee56,,,,,,3,0,3,0,1,X V Q F H G B L J M P D K C T S W R N Z,,,,,,,,,,,,,,,,,,,,,,,,,,,,,,,,,,,,,,,,,,,,,,,,,,,,,,,,,,,,,,,,,,,,,,,,,,,,,,,,,,,,,,,,,,,,,
,,,,,,,,,5f1b3d60e2aa49309eb5774e,24,Kobieta,2022-06-10_12h59.23.391,task,2021.1.4,Win32,60.27000964,628b806c463b948bc644b84f,62a323e7603a456ef7e7ee56,,,,,,,,,,,,dbzc,"[""d"",""b"",""z"",""c""]","[1.4105999999046617,1.5305999999046662,1.9768999998569825,2.343399999856956,3.117899999856945]",1,DBZC,5,0,5,0,1,,,,,,,,,,,,,,,,,,,,,,,,,,,,,,,,,,,,,,,,,,,,,,,,,,,,,,,,,,,,,,,,,,,,,,,,,,,,,,,,,,,
,,,,,,,,,5f1b3d60e2aa49309eb5774e,24,Kobieta,2022-06-10_12h59.23.391,task,2021.1.4,Win32,60.27000964,628b806c463b948bc644b84f,62a323e7603a456ef7e7ee56,,,,,,0,0,0,0,1,X V Q F H G B L J M P D K C T S W R N Z,,,,,,,,,,,,,,,,,,,,,,,,,,,,,,,,,,,,,,,,,,,,,,,,,,,,,,,,,,,,,,,,,,,,,,,,,,,,,,,,,,,,,,,,,,,,,
,,,,,,,,,5f1b3d60e2aa49309eb5774e,24,Kobieta,2022-06-10_12h59.23.391,task,2021.1.4,Win32,60.27000964,628b806c463b948bc644b84f,62a323e7603a456ef7e7ee56,,,,,,1,0,1,0,1,X V Q F H G B L J M P D K C T S W R N Z,,,,,,,,,,,,,,,,,,,,,,,,,,,,,,,,,,,,,,,,,,,,,,,,,,,,,,,,,,,,,,,,,,,,,,,,,,,,,,,,,,,,,,,,,,,,,
,,,,,,,,,5f1b3d60e2aa49309eb5774e,24,Kobieta,2022-06-10_12h59.23.391,task,2021.1.4,Win32,60.27000964,628b806c463b948bc644b84f,62a323e7603a456ef7e7ee56,,,,,,2,0,2,0,1,X V Q F H G B L J M P D K C T S W R N Z,,,,,,,,,,,,,,,,,,,,,,,,,,,,,,,,,,,,,,,,,,,,,,,,,,,,,,,,,,,,,,,,,,,,,,,,,,,,,,,,,,,,,,,,,,,,,
,,,,,,,,,5f1b3d60e2aa49309eb5774e,24,Kobieta,2022-06-10_12h59.23.391,task,2021.1.4,Win32,60.27000964,628b806c463b948bc644b84f,62a323e7603a456ef7e7ee56,,,,,,3,0,3,0,1,X V Q F H G B L J M P D K C T S W R N Z,,,,,,,,,,,,,,,,,,,,,,,,,,,,,,,,,,,,,,,,,,,,,,,,,,,,,,,,,,,,,,,,,,,,,,,,,,,,,,,,,,,,,,,,,,,,,
,,,,,,,,,5f1b3d60e2aa49309eb5774e,24,Kobieta,2022-06-10_12h59.23.391,task,2021.1.4,Win32,60.27000964,628b806c463b948bc644b84f,62a323e7603a456ef7e7ee56,,,,,,4,0,4,0,1,X V Q F H G B L J M P D K C T S W R N Z,,,,,,,,,,,,,,,,,,,,,,,,,,,,,,,,,,,,,,,,,,,,,,,,,,,,,,,,,,,,,,,,,,,,,,,,,,,,,,,,,,,,,,,,,,,,,
,,,,,,,,,5f1b3d60e2aa49309eb5774e,24,Kobieta,2022-06-10_12h59.23.391,task,2021.1.4,Win32,60.27000964,628b806c463b948bc644b84f,62a323e7603a456ef7e7ee56,,,,,,,,,,,,hjpwg,"[""h"",""j"",""p"",""w"",""g""]","[0.8101000001430521,0.9679000000953693,1.409800000190728,2.2758000001907135,2.596499999999992,3.1572000000476805]",1,HJPWG,6,0,6,0,1,,,,,,,,,,,,,,,,,,,,,,,,,,,,,,,,,,,,,,,,,,,,,,,,,,,,,,,,,,,,,,,,,,,,,,,,,,,,,,,,,,,
,,,,,,,,,5f1b3d60e2aa49309eb5774e,24,Kobieta,2022-06-10_12h59.23.391,task,2021.1.4,Win32,60.27000964,628b806c463b948bc644b84f,62a323e7603a456ef7e7ee56,,,,,,0,0,0,0,1,X V Q F H G B L J M P D K C T S W R N Z,,,,,,,,,,,,,,,,,,,,,,,,,,,,,,,,,,,,,,,,,,,,,,,,,,,,,,,,,,,,,,,,,,,,,,,,,,,,,,,,,,,,,,,,,,,,,
,,,,,,,,,5f1b3d60e2aa49309eb5774e,24,Kobieta,2022-06-10_12h59.23.391,task,2021.1.4,Win32,60.27000964,628b806c463b948bc644b84f,62a323e7603a456ef7e7ee56,,,,,,1,0,1,0,1,X V Q F H G B L J M P D K C T S W R N Z,,,,,,,,,,,,,,,,,,,,,,,,,,,,,,,,,,,,,,,,,,,,,,,,,,,,,,,,,,,,,,,,,,,,,,,,,,,,,,,,,,,,,,,,,,,,,
,,,,,,,,,5f1b3d60e2aa49309eb5774e,24,Kobieta,2022-06-10_12h59.23.391,task,2021.1.4,Win32,60.27000964,628b806c463b948bc644b84f,62a323e7603a456ef7e7ee56,,,,,,2,0,2,0,1,X V Q F H G B L J M P D K C T S W R N Z,,,,,,,,,,,,,,,,,,,,,,,,,,,,,,,,,,,,,,,,,,,,,,,,,,,,,,,,,,,,,,,,,,,,,,,,,,,,,,,,,,,,,,,,,,,,,
,,,,,,,,,5f1b3d60e2aa49309eb5774e,24,Kobieta,2022-06-10_12h59.23.391,task,2021.1.4,Win32,60.27000964,628b806c463b948bc644b84f,62a323e7603a456ef7e7ee56,,,,,,3,0,3,0,1,X V Q F H G B L J M P D K C T S W R N Z,,,,,,,,,,,,,,,,,,,,,,,,,,,,,,,,,,,,,,,,,,,,,,,,,,,,,,,,,,,,,,,,,,,,,,,,,,,,,,,,,,,,,,,,,,,,,
,,,,,,,,,5f1b3d60e2aa49309eb5774e,24,Kobieta,2022-06-10_12h59.23.391,task,2021.1.4,Win32,60.27000964,628b806c463b948bc644b84f,62a323e7603a456ef7e7ee56,,,,,,4,0,4,0,1,X V Q F H G B L J M P D K C T S W R N Z,,,,,,,,,,,,,,,,,,,,,,,,,,,,,,,,,,,,,,,,,,,,,,,,,,,,,,,,,,,,,,,,,,,,,,,,,,,,,,,,,,,,,,,,,,,,,
,,,,,,,,,5f1b3d60e2aa49309eb5774e,24,Kobieta,2022-06-10_12h59.23.391,task,2021.1.4,Win32,60.27000964,628b806c463b948bc644b84f,62a323e7603a456ef7e7ee56,,,,,,,,,,,,qxdjx,"[""q"",""x"",""d"",""j"",""x""]","[1.5257000000477206,2.2917999999523317,2.77829999995231,3.025000000000034,3.367500000000007,4.193099999904632]",1,QXDJX,7,0,7,0,1,,,,,,,,,,,,,,,,,,,,,,,,,,,,,,,,,,,,,,,,,,,,,,,,,,,,,,,,,,,,,,,,,,,,,,,,,,,,,,,,,,,
,,,,,,,,,5f1b3d60e2aa49309eb5774e,24,Kobieta,2022-06-10_12h59.23.391,task,2021.1.4,Win32,60.27000964,628b806c463b948bc644b84f,62a323e7603a456ef7e7ee56,,,,,,0,0,0,0,1,X V Q F H G B L J M P D K C T S W R N Z,,,,,,,,,,,,,,,,,,,,,,,,,,,,,,,,,,,,,,,,,,,,,,,,,,,,,,,,,,,,,,,,,,,,,,,,,,,,,,,,,,,,,,,,,,,,,
,,,,,,,,,5f1b3d60e2aa49309eb5774e,24,Kobieta,2022-06-10_12h59.23.391,task,2021.1.4,Win32,60.27000964,628b806c463b948bc644b84f,62a323e7603a456ef7e7ee56,,,,,,1,0,1,0,1,X V Q F H G B L J M P D K C T S W R N Z,,,,,,,,,,,,,,,,,,,,,,,,,,,,,,,,,,,,,,,,,,,,,,,,,,,,,,,,,,,,,,,,,,,,,,,,,,,,,,,,,,,,,,,,,,,,,
,,,,,,,,,5f1b3d60e2aa49309eb5774e,24,Kobieta,2022-06-10_12h59.23.391,task,2021.1.4,Win32,60.27000964,628b806c463b948bc644b84f,62a323e7603a456ef7e7ee56,,,,,,2,0,2,0,1,X V Q F H G B L J M P D K C T S W R N Z,,,,,,,,,,,,,,,,,,,,,,,,,,,,,,,,,,,,,,,,,,,,,,,,,,,,,,,,,,,,,,,,,,,,,,,,,,,,,,,,,,,,,,,,,,,,,
,,,,,,,,,5f1b3d60e2aa49309eb5774e,24,Kobieta,2022-06-10_12h59.23.391,task,2021.1.4,Win32,60.27000964,628b806c463b948bc644b84f,62a323e7603a456ef7e7ee56,,,,,,3,0,3,0,1,X V Q F H G B L J M P D K C T S W R N Z,,,,,,,,,,,,,,,,,,,,,,,,,,,,,,,,,,,,,,,,,,,,,,,,,,,,,,,,,,,,,,,,,,,,,,,,,,,,,,,,,,,,,,,,,,,,,
,,,,,,,,,5f1b3d60e2aa49309eb5774e,24,Kobieta,2022-06-10_12h59.23.391,task,2021.1.4,Win32,60.27000964,628b806c463b948bc644b84f,62a323e7603a456ef7e7ee56,,,,,,4,0,4,0,1,X V Q F H G B L J M P D K C T S W R N Z,,,,,,,,,,,,,,,,,,,,,,,,,,,,,,,,,,,,,,,,,,,,,,,,,,,,,,,,,,,,,,,,,,,,,,,,,,,,,,,,,,,,,,,,,,,,,
,,,,,,,,,5f1b3d60e2aa49309eb5774e,24,Kobieta,2022-06-10_12h59.23.391,task,2021.1.4,Win32,60.27000964,628b806c463b948bc644b84f,62a323e7603a456ef7e7ee56,,,,,,5,0,5,0,1,X V Q F H G B L J M P D K C T S W R N Z,,,,,,,,,,,,,,,,,,,,,,,,,,,,,,,,,,,,,,,,,,,,,,,,,,,,,,,,,,,,,,,,,,,,,,,,,,,,,,,,,,,,,,,,,,,,,
,,,,,,,,,5f1b3d60e2aa49309eb5774e,24,Kobieta,2022-06-10_12h59.23.391,task,2021.1.4,Win32,60.27000964,628b806c463b948bc644b84f,62a323e7603a456ef7e7ee56,,,,,,,,,,,,vvntsb,"[""v"",""v"",""n"",""t"",""s"",""b""]","[0.6670999999046217,0.913799999952289,1.161599999904638,1.4970999999046057,1.713400000095362,1.9834999999999923,2.561499999999967]",1,VVNTSB,8,0,8,0,1,,,,,,,,,,,,,,,,,,,,,,,,,,,,,,,,,,,,,,,,,,,,,,,,,,,,,,,,,,,,,,,,,,,,,,,,,,,,,,,,,,,
,,,,,,,,,5f1b3d60e2aa49309eb5774e,24,Kobieta,2022-06-10_12h59.23.391,task,2021.1.4,Win32,60.27000964,628b806c463b948bc644b84f,62a323e7603a456ef7e7ee56,,,,,,0,0,0,0,1,X V Q F H G B L J M P D K C T S W R N Z,,,,,,,,,,,,,,,,,,,,,,,,,,,,,,,,,,,,,,,,,,,,,,,,,,,,,,,,,,,,,,,,,,,,,,,,,,,,,,,,,,,,,,,,,,,,,
,,,,,,,,,5f1b3d60e2aa49309eb5774e,24,Kobieta,2022-06-10_12h59.23.391,task,2021.1.4,Win32,60.27000964,628b806c463b948bc644b84f,62a323e7603a456ef7e7ee56,,,,,,1,0,1,0,1,X V Q F H G B L J M P D K C T S W R N Z,,,,,,,,,,,,,,,,,,,,,,,,,,,,,,,,,,,,,,,,,,,,,,,,,,,,,,,,,,,,,,,,,,,,,,,,,,,,,,,,,,,,,,,,,,,,,
,,,,,,,,,5f1b3d60e2aa49309eb5774e,24,Kobieta,2022-06-10_12h59.23.391,task,2021.1.4,Win32,60.27000964,628b806c463b948bc644b84f,62a323e7603a456ef7e7ee56,,,,,,2,0,2,0,1,X V Q F H G B L J M P D K C T S W R N Z,,,,,,,,,,,,,,,,,,,,,,,,,,,,,,,,,,,,,,,,,,,,,,,,,,,,,,,,,,,,,,,,,,,,,,,,,,,,,,,,,,,,,,,,,,,,,
,,,,,,,,,5f1b3d60e2aa49309eb5774e,24,Kobieta,2022-06-10_12h59.23.391,task,2021.1.4,Win32,60.27000964,628b806c463b948bc644b84f,62a323e7603a456ef7e7ee56,,,,,,3,0,3,0,1,X V Q F H G B L J M P D K C T S W R N Z,,,,,,,,,,,,,,,,,,,,,,,,,,,,,,,,,,,,,,,,,,,,,,,,,,,,,,,,,,,,,,,,,,,,,,,,,,,,,,,,,,,,,,,,,,,,,
,,,,,,,,,5f1b3d60e2aa49309eb5774e,24,Kobieta,2022-06-10_12h59.23.391,task,2021.1.4,Win32,60.27000964,628b806c463b948bc644b84f,62a323e7603a456ef7e7ee56,,,,,,4,0,4,0,1,X V Q F H G B L J M P D K C T S W R N Z,,,,,,,,,,,,,,,,,,,,,,,,,,,,,,,,,,,,,,,,,,,,,,,,,,,,,,,,,,,,,,,,,,,,,,,,,,,,,,,,,,,,,,,,,,,,,
,,,,,,,,,5f1b3d60e2aa49309eb5774e,24,Kobieta,2022-06-10_12h59.23.391,task,2021.1.4,Win32,60.27000964,628b806c463b948bc644b84f,62a323e7603a456ef7e7ee56,,,,,,5,0,5,0,1,X V Q F H G B L J M P D K C T S W R N Z,,,,,,,,,,,,,,,,,,,,,,,,,,,,,,,,,,,,,,,,,,,,,,,,,,,,,,,,,,,,,,,,,,,,,,,,,,,,,,,,,,,,,,,,,,,,,
,,,,,,,,,5f1b3d60e2aa49309eb5774e,24,Kobieta,2022-06-10_12h59.23.391,task,2021.1.4,Win32,60.27000964,628b806c463b948bc644b84f,62a323e7603a456ef7e7ee56,,,,,,,,,,,,klhxcj,"[""k"",""l"",""h"",""x"",""c"",""j""]","[0.8432999999523645,1.192599999904644,1.7777999999523217,2.2170000000000414,2.5502000000477096,2.728099999904657,3.1562999999523527]",1,KLHXCJ,9,0,9,0,1,,,,,,,,,,,,,,,,,,,,,,,,,,,,,,,,,,,,,,,,,,,,,,,,,,,,,,,,,,,,,,,,,,,,,,,,,,,,,,,,,,,
,,,,,,,,,5f1b3d60e2aa49309eb5774e,24,Kobieta,2022-06-10_12h59.23.391,task,2021.1.4,Win32,60.27000964,628b806c463b948bc644b84f,62a323e7603a456ef7e7ee56,,,,,,0,0,0,0,1,X V Q F H G B L J M P D K C T S W R N Z,,,,,,,,,,,,,,,,,,,,,,,,,,,,,,,,,,,,,,,,,,,,,,,,,,,,,,,,,,,,,,,,,,,,,,,,,,,,,,,,,,,,,,,,,,,,,
,,,,,,,,,5f1b3d60e2aa49309eb5774e,24,Kobieta,2022-06-10_12h59.23.391,task,2021.1.4,Win32,60.27000964,628b806c463b948bc644b84f,62a323e7603a456ef7e7ee56,,,,,,1,0,1,0,1,X V Q F H G B L J M P D K C T S W R N Z,,,,,,,,,,,,,,,,,,,,,,,,,,,,,,,,,,,,,,,,,,,,,,,,,,,,,,,,,,,,,,,,,,,,,,,,,,,,,,,,,,,,,,,,,,,,,
,,,,,,,,,5f1b3d60e2aa49309eb5774e,24,Kobieta,2022-06-10_12h59.23.391,task,2021.1.4,Win32,60.27000964,628b806c463b948bc644b84f,62a323e7603a456ef7e7ee56,,,,,,2,0,2,0,1,X V Q F H G B L J M P D K C T S W R N Z,,,,,,,,,,,,,,,,,,,,,,,,,,,,,,,,,,,,,,,,,,,,,,,,,,,,,,,,,,,,,,,,,,,,,,,,,,,,,,,,,,,,,,,,,,,,,
,,,,,,,,,5f1b3d60e2aa49309eb5774e,24,Kobieta,2022-06-10_12h59.23.391,task,2021.1.4,Win32,60.27000964,628b806c463b948bc644b84f,62a323e7603a456ef7e7ee56,,,,,,3,0,3,0,1,X V Q F H G B L J M P D K C T S W R N Z,,,,,,,,,,,,,,,,,,,,,,,,,,,,,,,,,,,,,,,,,,,,,,,,,,,,,,,,,,,,,,,,,,,,,,,,,,,,,,,,,,,,,,,,,,,,,
,,,,,,,,,5f1b3d60e2aa49309eb5774e,24,Kobieta,2022-06-10_12h59.23.391,task,2021.1.4,Win32,60.27000964,628b806c463b948bc644b84f,62a323e7603a456ef7e7ee56,,,,,,4,0,4,0,1,X V Q F H G B L J M P D K C T S W R N Z,,,,,,,,,,,,,,,,,,,,,,,,,,,,,,,,,,,,,,,,,,,,,,,,,,,,,,,,,,,,,,,,,,,,,,,,,,,,,,,,,,,,,,,,,,,,,
,,,,,,,,,5f1b3d60e2aa49309eb5774e,24,Kobieta,2022-06-10_12h59.23.391,task,2021.1.4,Win32,60.27000964,628b806c463b948bc644b84f,62a323e7603a456ef7e7ee56,,,,,,5,0,5,0,1,X V Q F H G B L J M P D K C T S W R N Z,,,,,,,,,,,,,,,,,,,,,,,,,,,,,,,,,,,,,,,,,,,,,,,,,,,,,,,,,,,,,,,,,,,,,,,,,,,,,,,,,,,,,,,,,,,,,
,,,,,,,,,5f1b3d60e2aa49309eb5774e,24,Kobieta,2022-06-10_12h59.23.391,task,2021.1.4,Win32,60.27000964,628b806c463b948bc644b84f,62a323e7603a456ef7e7ee56,,,,,,6,0,6,0,1,X V Q F H G B L J M P D K C T S W R N Z,,,,,,,,,,,,,,,,,,,,,,,,,,,,,,,,,,,,,,,,,,,,,,,,,,,,,,,,,,,,,,,,,,,,,,,,,,,,,,,,,,,,,,,,,,,,,
,,,,,,,,,5f1b3d60e2aa49309eb5774e,24,Kobieta,2022-06-10_12h59.23.391,task,2021.1.4,Win32,60.27000964,628b806c463b948bc644b84f,62a323e7603a456ef7e7ee56,,,,,,,,,,,,vxthgz,"[""v"",""x"",""t"",""h"",""g"",""z""]","[2.1472000000476896,2.4352000000477005,2.7122000000476874,4.808599999904629,5.028500000000008,5.357700000047714,5.856499999999983]",0,VTXGHKZ,10,0,10,0,1,,,,,,,,,,,,,,,,,,,,,,,,,,,,,,,,,,,,,,,,,,,,,,,,,,,,,,,,,,,,,,,,,,,,,,,,,,,,,,,,,,,
,,,,,,,,,5f1b3d60e2aa49309eb5774e,24,Kobieta,2022-06-10_12h59.23.391,task,2021.1.4,Win32,60.27000964,628b806c463b948bc644b84f,62a323e7603a456ef7e7ee56,,,,,,0,0,0,0,1,X V Q F H G B L J M P D K C T S W R N Z,,,,,,,,,,,,,,,,,,,,,,,,,,,,,,,,,,,,,,,,,,,,,,,,,,,,,,,,,,,,,,,,,,,,,,,,,,,,,,,,,,,,,,,,,,,,,
,,,,,,,,,5f1b3d60e2aa49309eb5774e,24,Kobieta,2022-06-10_12h59.23.391,task,2021.1.4,Win32,60.27000964,628b806c463b948bc644b84f,62a323e7603a456ef7e7ee56,,,,,,1,0,1,0,1,X V Q F H G B L J M P D K C T S W R N Z,,,,,,,,,,,,,,,,,,,,,,,,,,,,,,,,,,,,,,,,,,,,,,,,,,,,,,,,,,,,,,,,,,,,,,,,,,,,,,,,,,,,,,,,,,,,,
,,,,,,,,,5f1b3d60e2aa49309eb5774e,24,Kobieta,2022-06-10_12h59.23.391,task,2021.1.4,Win32,60.27000964,628b806c463b948bc644b84f,62a323e7603a456ef7e7ee56,,,,,,2,0,2,0,1,X V Q F H G B L J M P D K C T S W R N Z,,,,,,,,,,,,,,,,,,,,,,,,,,,,,,,,,,,,,,,,,,,,,,,,,,,,,,,,,,,,,,,,,,,,,,,,,,,,,,,,,,,,,,,,,,,,,
,,,,,,,,,5f1b3d60e2aa49309eb5774e,24,Kobieta,2022-06-10_12h59.23.391,task,2021.1.4,Win32,60.27000964,628b806c463b948bc644b84f,62a323e7603a456ef7e7ee56,,,,,,3,0,3,0,1,X V Q F H G B L J M P D K C T S W R N Z,,,,,,,,,,,,,,,,,,,,,,,,,,,,,,,,,,,,,,,,,,,,,,,,,,,,,,,,,,,,,,,,,,,,,,,,,,,,,,,,,,,,,,,,,,,,,
,,,,,,,,,5f1b3d60e2aa49309eb5774e,24,Kobieta,2022-06-10_12h59.23.391,task,2021.1.4,Win32,60.27000964,628b806c463b948bc644b84f,62a323e7603a456ef7e7ee56,,,,,,4,0,4,0,1,X V Q F H G B L J M P D K C T S W R N Z,,,,,,,,,,,,,,,,,,,,,,,,,,,,,,,,,,,,,,,,,,,,,,,,,,,,,,,,,,,,,,,,,,,,,,,,,,,,,,,,,,,,,,,,,,,,,
,,,,,,,,,5f1b3d60e2aa49309eb5774e,24,Kobieta,2022-06-10_12h59.23.391,task,2021.1.4,Win32,60.27000964,628b806c463b948bc644b84f,62a323e7603a456ef7e7ee56,,,,,,5,0,5,0,1,X V Q F H G B L J M P D K C T S W R N Z,,,,,,,,,,,,,,,,,,,,,,,,,,,,,,,,,,,,,,,,,,,,,,,,,,,,,,,,,,,,,,,,,,,,,,,,,,,,,,,,,,,,,,,,,,,,,
,,,,,,,,,5f1b3d60e2aa49309eb5774e,24,Kobieta,2022-06-10_12h59.23.391,task,2021.1.4,Win32,60.27000964,628b806c463b948bc644b84f,62a323e7603a456ef7e7ee56,,,,,,6,0,6,0,1,X V Q F H G B L J M P D K C T S W R N Z,,,,,,,,,,,,,,,,,,,,,,,,,,,,,,,,,,,,,,,,,,,,,,,,,,,,,,,,,,,,,,,,,,,,,,,,,,,,,,,,,,,,,,,,,,,,,
,,,,,,,,,5f1b3d60e2aa49309eb5774e,24,Kobieta,2022-06-10_12h59.23.391,task,2021.1.4,Win32,60.27000964,628b806c463b948bc644b84f,62a323e7603a456ef7e7ee56,,,,,,,,,,,,ffgzrst,"[""f"",""f"",""g"",""z"",""r"",""s"",""t""]","[0.8147000000477078,1.0670000000000073,1.377700000047696,1.6262000000477315,1.9672000000476828,2.1623000001907826,3.291300000190745,3.8315000000000055]",0,FFGZRSD,11,0,11,0,1,,,,,,,,,,,,,,,,,,,,,,,,,,,,,,,,,,,,,,,,,,,,,,,,,,,,,,,,,,,,,,,,,,,,,,,,,,,,,,,,,,,
,,,,,,,,,5f1b3d60e2aa49309eb5774e,24,Kobieta,2022-06-10_12h59.23.391,task,2021.1.4,Win32,60.27000964,628b806c463b948bc644b84f,62a323e7603a456ef7e7ee56,,,,,,0,0,0,0,1,X V Q F H G B L J M P D K C T S W R N Z,,,,,,,,,,,,,,,,,,,,,,,,,,,,,,,,,,,,,,,,,,,,,,,,,,,,,,,,,,,,,,,,,,,,,,,,,,,,,,,,,,,,,,,,,,,,,
,,,,,,,,,5f1b3d60e2aa49309eb5774e,24,Kobieta,2022-06-10_12h59.23.391,task,2021.1.4,Win32,60.27000964,628b806c463b948bc644b84f,62a323e7603a456ef7e7ee56,,,,,,1,0,1,0,1,X V Q F H G B L J M P D K C T S W R N Z,,,,,,,,,,,,,,,,,,,,,,,,,,,,,,,,,,,,,,,,,,,,,,,,,,,,,,,,,,,,,,,,,,,,,,,,,,,,,,,,,,,,,,,,,,,,,
,,,,,,,,,5f1b3d60e2aa49309eb5774e,24,Kobieta,2022-06-10_12h59.23.391,task,2021.1.4,Win32,60.27000964,628b806c463b948bc644b84f,62a323e7603a456ef7e7ee56,,,,,,2,0,2,0,1,X V Q F H G B L J M P D K C T S W R N Z,,,,,,,,,,,,,,,,,,,,,,,,,,,,,,,,,,,,,,,,,,,,,,,,,,,,,,,,,,,,,,,,,,,,,,,,,,,,,,,,,,,,,,,,,,,,,
,,,,,,,,,5f1b3d60e2aa49309eb5774e,24,Kobieta,2022-06-10_12h59.23.391,task,2021.1.4,Win32,60.27000964,628b806c463b948bc644b84f,62a323e7603a456ef7e7ee56,,,,,,3,0,3,0,1,X V Q F H G B L J M P D K C T S W R N Z,,,,,,,,,,,,,,,,,,,,,,,,,,,,,,,,,,,,,,,,,,,,,,,,,,,,,,,,,,,,,,,,,,,,,,,,,,,,,,,,,,,,,,,,,,,,,
,,,,,,,,,5f1b3d60e2aa49309eb5774e,24,Kobieta,2022-06-10_12h59.23.391,task,2021.1.4,Win32,60.27000964,628b806c463b948bc644b84f,62a323e7603a456ef7e7ee56,,,,,,4,0,4,0,1,X V Q F H G B L J M P D K C T S W R N Z,,,,,,,,,,,,,,,,,,,,,,,,,,,,,,,,,,,,,,,,,,,,,,,,,,,,,,,,,,,,,,,,,,,,,,,,,,,,,,,,,,,,,,,,,,,,,
,,,,,,,,,5f1b3d60e2aa49309eb5774e,24,Kobieta,2022-06-10_12h59.23.391,task,2021.1.4,Win32,60.27000964,628b806c463b948bc644b84f,62a323e7603a456ef7e7ee56,,,,,,5,0,5,0,1,X V Q F H G B L J M P D K C T S W R N Z,,,,,,,,,,,,,,,,,,,,,,,,,,,,,,,,,,,,,,,,,,,,,,,,,,,,,,,,,,,,,,,,,,,,,,,,,,,,,,,,,,,,,,,,,,,,,
,,,,,,,,,5f1b3d60e2aa49309eb5774e,24,Kobieta,2022-06-10_12h59.23.391,task,2021.1.4,Win32,60.27000964,628b806c463b948bc644b84f,62a323e7603a456ef7e7ee56,,,,,,6,0,6,0,1,X V Q F H G B L J M P D K C T S W R N Z,,,,,,,,,,,,,,,,,,,,,,,,,,,,,,,,,,,,,,,,,,,,,,,,,,,,,,,,,,,,,,,,,,,,,,,,,,,,,,,,,,,,,,,,,,,,,
,,,,,,,,,5f1b3d60e2aa49309eb5774e,24,Kobieta,2022-06-10_12h59.23.391,task,2021.1.4,Win32,60.27000964,628b806c463b948bc644b84f,62a323e7603a456ef7e7ee56,,,,,,,,,,,,prgfsrk,"[""p"",""r"",""g"",""f"",""s"",""r"",""k""]","[1.4461000001430193,2.2427999999522967,3.2421000001430116,3.775299999952324,4.275799999952312,4.82479999995229,5.174700000047665,6.738900000095327]",0,PRGSFMK,12,0,12,0,1,,,,,,,,,,,,,,,,,,,,,,,,,,,,,,,,,,,,,,,,,,,,,,,,,,,,,,,,,,,,,,,,,,,,,,,,,,,,,,,,,,,
,,,,,,,,,5f1b3d60e2aa49309eb5774e,24,Kobieta,2022-06-10_12h59.23.391,task,2021.1.4,Win32,60.27000964,628b806c463b948bc644b84f,62a323e7603a456ef7e7ee56,,,,,,,,,,,,,,,,,,,,,,space,8.1837,2,"[""2""]",1,[11.521700000047758],[11.521700000047758],0,0,0,2,1,Practice,3,(4x4) - 14,2,,,,,,,,,,,,,,,,,,,,,,,,,,,,,,,,,,,,,,,,,,,,,,,,,,,,,,,,,,,,,,,,,,,
,,,,,,,,,5f1b3d60e2aa49309eb5774e,24,Kobieta,2022-06-10_12h59.23.391,task,2021.1.4,Win32,60.27000964,628b806c463b948bc644b84f,62a323e7603a456ef7e7ee56,,,,,,,,,,,,,,,,,,,,,,,,3,"[""3""]",1,[4.481900000095379],"[11.521700000047758,4.481900000095379]",0,1,1,3,1,Practice,4,(8/4) + 1,3,,,,,,,,,,,,,,,,,,,,,,,,,,,,,,,,,,,,,,,,,,,,,,,,,,,,,,,,,,,,,,,,,,,
,,,,,,,,,5f1b3d60e2aa49309eb5774e,24,Kobieta,2022-06-10_12h59.23.391,task,2021.1.4,Win32,60.27000964,628b806c463b948bc644b84f,62a323e7603a456ef7e7ee56,,,,,,,,,,,,,,,,,,,,,,,,0,"[""0""]",1,[3.5662000000476155],"[11.521700000047758,4.481900000095379,3.5662000000476155]",0,2,2,0,1,Practice,1,(3x3) -  9,0,,,,,,,,,,,,,,,,,,,,,,,,,,,,,,,,,,,,,,,,,,,,,,,,,,,,,,,,,,,,,,,,,,,
,,,,,,,,,5f1b3d60e2aa49309eb5774e,24,Kobieta,2022-06-10_12h59.23.391,task,2021.1.4,Win32,60.27000964,628b806c463b948bc644b84f,62a323e7603a456ef7e7ee56,,,,,,,,,,,,,,,,,,,,,,,,8,"[""8""]",1,[3.7543000001907103],"[11.521700000047758,4.481900000095379,3.5662000000476155,3.7543000001907103]",0,3,3,8,1,Practice,9,(3x3) - 1,8,,,,,,,,,,,,,,,,,,,,,,,,,,,,,,,,,,,,,,,,,,,,,,,,,,,,,,,,,,,,,,,,,,,
,,,,,,,,,5f1b3d60e2aa49309eb5774e,24,Kobieta,2022-06-10_12h59.23.391,task,2021.1.4,Win32,60.27000964,628b806c463b948bc644b84f,62a323e7603a456ef7e7ee56,,,,,,,,,,,,,,,,,,,,,,,,4,"[""4""]",1,[5.586099999904604],"[11.521700000047758,4.481900000095379,3.5662000000476155,3.7543000001907103,5.586099999904604]",0,4,4,4,1,Practice,5,(2x6) - 8,4,,,,,,,,,,,,,,,,,,,,,,,,,,,,,,,,,,,,,,,,,,,,,,,,,,,,,,,,,,,,,,,,,,,
,,,,,,,,,5f1b3d60e2aa49309eb5774e,24,Kobieta,2022-06-10_12h59.23.391,task,2021.1.4,Win32,60.27000964,628b806c463b948bc644b84f,62a323e7603a456ef7e7ee56,,,,,,,,,,,,,,,,,,,,,,,,7,"[""7""]",1,[24.902400000095327],"[11.521700000047758,4.481900000095379,3.5662000000476155,3.7543000001907103,5.586099999904604,24.902400000095327]",0,5,5,7,1,Practice,8,(5x5) - 18,7,,,,,,,,,,,,,,,,,,,,,,,,,,,,,,,,,,,,,,,,,,,,,,,,,,,,,,,,,,,,,,,,,,,
,,,,,,,,,5f1b3d60e2aa49309eb5774e,24,Kobieta,2022-06-10_12h59.23.391,task,2021.1.4,Win32,60.27000964,628b806c463b948bc644b84f,62a323e7603a456ef7e7ee56,,,,,,,,,,,,,,,,,,,,,,,,9,"[""9""]",1,[6.712599999904683],"[11.521700000047758,4.481900000095379,3.5662000000476155,3.7543000001907103,5.586099999904604,24.902400000095327,6.712599999904683]",0,6,6,9,1,Practice,10,(20/2) - 1,9,,,,,,,,,,,,,,,,,,,,,,,,,,,,,,,,,,,,,,,,,,,,,,,,,,,,,,,,,,,,,,,,,,,
,,,,,,,,,5f1b3d60e2aa49309eb5774e,24,Kobieta,2022-06-10_12h59.23.391,task,2021.1.4,Win32,60.27000964,628b806c463b948bc644b84f,62a323e7603a456ef7e7ee56,,,,,,,,,,,,,,,,,,,,,,,,1,"[""1""]",1,[2.409600000142973],"[11.521700000047758,4.481900000095379,3.5662000000476155,3.7543000001907103,5.586099999904604,24.902400000095327,6.712599999904683,2.409600000142973]",0,7,7,1,1,Practice,2,(4x4) - 15,1,,,,,,,,,,,,,,,,,,,,,,,,,,,,,,,,,,,,,,,,,,,,,,,,,,,,,,,,,,,,,,,,,,,
,,,,,,,,,5f1b3d60e2aa49309eb5774e,24,Kobieta,2022-06-10_12h59.23.391,task,2021.1.4,Win32,60.27000964,628b806c463b948bc644b84f,62a323e7603a456ef7e7ee56,,,,,,,,,,,,,,,,,,,,,,,,4,"[""4""]",0,[5.249600000143005],"[11.521700000047758,4.481900000095379,3.5662000000476155,3.7543000001907103,5.586099999904604,24.902400000095327,6.712599999904683,2.409600000142973,5.249600000143005]",0,8,8,6,1,Practice,7,(25/5) + 1,6,,,,,,,,,,,,,,,,,,,,,,,,,,,,,,,,,,,,,,,,,,,,,,,,,,,,,,,,,,,,,,,,,,,
,,,,,,,,,5f1b3d60e2aa49309eb5774e,24,Kobieta,2022-06-10_12h59.23.391,task,2021.1.4,Win32,60.27000964,628b806c463b948bc644b84f,62a323e7603a456ef7e7ee56,,,,,,,,,,,,,,,,,,,,,,,,5,"[""5""]",1,[7.540199999809261],"[11.521700000047758,4.481900000095379,3.5662000000476155,3.7543000001907103,5.586099999904604,24.902400000095327,6.712599999904683,2.409600000142973,5.249600000143005,7.540199999809261]",0,9,9,5,1,Practice,6,(4/2) + 3,5,,,,,,,,,,,,,,,,,,,,,,,,,,,,,,,,,,,,,,,,,,,,,,,,,,,,,,,,,,,,,,,,,,,
,,,,,,,,,5f1b3d60e2aa49309eb5774e,24,Kobieta,2022-06-10_12h59.23.391,task,2021.1.4,Win32,60.27000964,628b806c463b948bc644b84f,62a323e7603a456ef7e7ee56,,,,,,,,,,,,,,,,,,,,,,,,,,,,,,,,,,,,,,0.9,75.7246,5.048306667,456.5536715,5.516965781,19.28207838,space,1.5666,0,0,0,0,1,,,,,,,,,,,,,,,,,,,,,,,,,,,,,,,,,,,,,,,,,,,,,,,,,,,,,,
,,,,,,,,,5f1b3d60e2aa49309eb5774e,24,Kobieta,2022-06-10_12h59.23.391,task,2021.1.4,Win32,60.27000964,628b806c463b948bc644b84f,62a323e7603a456ef7e7ee56,,,,,,,,,,,,,,,,,,,,,,,,4,,,,,,,,,,Practice,5,(2x6) - 8,4,,,,,,,,,,,,,,space,12.0938,"[""4""]",1,[7.103500000000054],1,0,0,0,4,1,,,,,,,,,,,,,,,,,,,,,,,,,,,,,,,,,,,,,,,,,,,
,,,,,,,,,5f1b3d60e2aa49309eb5774e,24,Kobieta,2022-06-10_12h59.23.391,task,2021.1.4,Win32,60.27000964,628b806c463b948bc644b84f,62a323e7603a456ef7e7ee56,,,,,,,,,,,X V Q F H G B L J M P D K C T S W R N Z,,,,,,,,,,,,,,,,,,,,,,,,,,,,,,,,,,,,,,,,,,,,,,,,,,,0,0,0,0,1,,,,,,,,,,,,,,,,,,,,,,,,,,,,,,,,,,,,,,
,,,,,,,,,5f1b3d60e2aa49309eb5774e,24,Kobieta,2022-06-10_12h59.23.391,task,2021.1.4,Win32,60.27000964,628b806c463b948bc644b84f,62a323e7603a456ef7e7ee56,,,,,,,,,,,,,,,,,,,,,,,,2,,,,,,,,,,Practice,3,(4x4) - 14,2,,,,,,,,,,,,,,,,"[""2""]",1,[4.698499999999967],1,0,0,0,2,1,,,,,,,,,,,,,,,,,,,,,,,,,,,,,,,,,,,,,,,,,,,
,,,,,,,,,5f1b3d60e2aa49309eb5774e,24,Kobieta,2022-06-10_12h59.23.391,task,2021.1.4,Win32,60.27000964,628b806c463b948bc644b84f,62a323e7603a456ef7e7ee56,,,,,,,,,,,X V Q F H G B L J M P D K C T S W R N Z,,,,,,,,,,,,,,,,,,,,,,,,,,,,,,,,,,,,,,,,,,,,,,,,,,,1,0,1,0,1,,,,,,,,,,,,,,,,,,,,,,,,,,,,,,,,,,,,,,
,,,,,,,,,5f1b3d60e2aa49309eb5774e,24,Kobieta,2022-06-10_12h59.23.391,task,2021.1.4,Win32,60.27000964,628b806c463b948bc644b84f,62a323e7603a456ef7e7ee56,,,,,,,,,,,,,,,,,,,,,,,,,,,,,,,,,,,,,,,,,,,,,,,,,,,,,,,,,,,,,,,,,,,zn,"[""z"",""n""]",0,"[3.71520000004773,4.066400000095314,4.61690000009537]",1,0,0,0,0,1,,,,,,,,,,,,,,,,,,,,,,,,,,,,
,,,,,,,,,5f1b3d60e2aa49309eb5774e,24,Kobieta,2022-06-10_12h59.23.391,task,2021.1.4,Win32,60.27000964,628b806c463b948bc644b84f,62a323e7603a456ef7e7ee56,,,,,,,,,,,,,,,,,,,,,,,,7,,,,,,,,,,Practice,8,(5x5) - 18,7,,,,,,,,,,,,,,,,"[""7""]",1,[5.9068999998569325],1,0,0,0,7,1,,,,,,,,,,,,,,,,,,,,,,,,,,,,,,,,,,,,,,,,,,,
,,,,,,,,,5f1b3d60e2aa49309eb5774e,24,Kobieta,2022-06-10_12h59.23.391,task,2021.1.4,Win32,60.27000964,628b806c463b948bc644b84f,62a323e7603a456ef7e7ee56,,,,,,,,,,,X V Q F H G B L J M P D K C T S W R N Z,,,,,,,,,,,,,,,,,,,,,,,,,,,,,,,,,,,,,,,,,,,,,,,,,,,0,0,0,0,1,,,,,,,,,,,,,,,,,,,,,,,,,,,,,,,,,,,,,,
,,,,,,,,,5f1b3d60e2aa49309eb5774e,24,Kobieta,2022-06-10_12h59.23.391,task,2021.1.4,Win32,60.27000964,628b806c463b948bc644b84f,62a323e7603a456ef7e7ee56,,,,,,,,,,,,,,,,,,,,,,,,8,,,,,,,,,,Practice,9,(3x3) - 1,8,,,,,,,,,,,,,,,,"[""8""]",1,[2.8150000000000546],1,0,0,0,8,1,,,,,,,,,,,,,,,,,,,,,,,,,,,,,,,,,,,,,,,,,,,
,,,,,,,,,5f1b3d60e2aa49309eb5774e,24,Kobieta,2022-06-10_12h59.23.391,task,2021.1.4,Win32,60.27000964,628b806c463b948bc644b84f,62a323e7603a456ef7e7ee56,,,,,,,,,,,X V Q F H G B L J M P D K C T S W R N Z,,,,,,,,,,,,,,,,,,,,,,,,,,,,,,,,,,,,,,,,,,,,,,,,,,,1,0,1,0,1,,,,,,,,,,,,,,,,,,,,,,,,,,,,,,,,,,,,,,
,,,,,,,,,5f1b3d60e2aa49309eb5774e,24,Kobieta,2022-06-10_12h59.23.391,task,2021.1.4,Win32,60.27000964,628b806c463b948bc644b84f,62a323e7603a456ef7e7ee56,,,,,,,,,,,,,,,,,,,,,,,,,,,,,,,,,,,,,,,,,,,,,,,,,,,,,,,,,,,,,,,,,,,ph,"[""p"",""h""]",0,"[1.8842999999523045,2.0396999998092724,2.46579999995231]",1,1,0,1,0,1,,,,,,,,,,,,,,,,,,,,,,,,,,,,
,,,,,,,,,5f1b3d60e2aa49309eb5774e,24,Kobieta,2022-06-10_12h59.23.391,task,2021.1.4,Win32,60.27000964,628b806c463b948bc644b84f,62a323e7603a456ef7e7ee56,,,,,,,,,,,,,,,,,,,,,,,,6,,,,,,,,,,Practice,7,(25/5) + 1,6,,,,,,,,,,,,,,,,"[""6""]",1,[5.72979999995232],1,0,0,0,6,1,,,,,,,,,,,,,,,,,,,,,,,,,,,,,,,,,,,,,,,,,,,
,,,,,,,,,5f1b3d60e2aa49309eb5774e,24,Kobieta,2022-06-10_12h59.23.391,task,2021.1.4,Win32,60.27000964,628b806c463b948bc644b84f,62a323e7603a456ef7e7ee56,,,,,,,,,,,X V Q F H G B L J M P D K C T S W R N Z,,,,,,,,,,,,,,,,,,,,,,,,,,,,,,,,,,,,,,,,,,,,,,,,,,,0,0,0,0,1,,,,,,,,,,,,,,,,,,,,,,,,,,,,,,,,,,,,,,
,,,,,,,,,5f1b3d60e2aa49309eb5774e,24,Kobieta,2022-06-10_12h59.23.391,task,2021.1.4,Win32,60.27000964,628b806c463b948bc644b84f,62a323e7603a456ef7e7ee56,,,,,,,,,,,,,,,,,,,,,,,,7,,,,,,,,,,Practice,8,(5x5) - 18,7,,,,,,,,,,,,,,,,"[""7""]",1,[5.1537000000477065],1,0,0,0,7,1,,,,,,,,,,,,,,,,,,,,,,,,,,,,,,,,,,,,,,,,,,,
,,,,,,,,,5f1b3d60e2aa49309eb5774e,24,Kobieta,2022-06-10_12h59.23.391,task,2021.1.4,Win32,60.27000964,628b806c463b948bc644b84f,62a323e7603a456ef7e7ee56,,,,,,,,,,,X V Q F H G B L J M P D K C T S W R N Z,,,,,,,,,,,,,,,,,,,,,,,,,,,,,,,,,,,,,,,,,,,,,,,,,,,1,0,1,0,1,,,,,,,,,,,,,,,,,,,,,,,,,,,,,,,,,,,,,,
,,,,,,,,,5f1b3d60e2aa49309eb5774e,24,Kobieta,2022-06-10_12h59.23.391,task,2021.1.4,Win32,60.27000964,628b806c463b948bc644b84f,62a323e7603a456ef7e7ee56,,,,,,,,,,,,,,,,,,,,,,,,,,,,,,,,,,,,,,,,,,,,,,,,,,,,,,,,,,,,,,,,,,,th,"[""t"",""h""]",0,"[2.5997999999523245,2.7835000000000036,3.1907999999523327]",1,2,0,2,0,1,,,,,,,,,,,,,,,,,,,,,,,,,,,,
,,,,,,,,,5f1b3d60e2aa49309eb5774e,24,Kobieta,2022-06-10_12h59.23.391,task,2021.1.4,Win32,60.27000964,628b806c463b948bc644b84f,62a323e7603a456ef7e7ee56,,,,,,,,,,,,,,,,,,,,,,,,3,,,,,,,,,,Task,35,(1x2) + 1,3,,,,,,,,,,,,,,,,,,,1,,,,,,,,,,,,,,,,,,,,,space,11.094,"[""3""]",1,[2.2831999998093124],0,0,0,34,1,,,,,,,,,,,,,,,,,,
,,,,,,,,,5f1b3d60e2aa49309eb5774e,24,Kobieta,2022-06-10_12h59.23.391,task,2021.1.4,Win32,60.27000964,628b806c463b948bc644b84f,62a323e7603a456ef7e7ee56,,,,,,,,,,,X V Q F H G B L J M P D K C T S W R N Z,,,,,,,,,,,,,,,,,,,,,,,,,,,,,,,,,,,,,,,,,,,,,,,,,,,,,,,,,,,,,,,,,,,,,,,,,,,,0,0,0,0,1,,,,,,,,,,,,,
,,,,,,,,,5f1b3d60e2aa49309eb5774e,24,Kobieta,2022-06-10_12h59.23.391,task,2021.1.4,Win32,60.27000964,628b806c463b948bc644b84f,62a323e7603a456ef7e7ee56,,,,,,,,,,,,,,,,,,,,,,,,7,,,,,,,,,,Task,6,(12/2) + 1,7,,,,,,,,,,,,,,,,,,,1,,,,,,,,,,,,,,,,,,,,,,,"[""7""]",1,[5.563599999904682],0,0,0,5,1,,,,,,,,,,,,,,,,,,
,,,,,,,,,5f1b3d60e2aa49309eb5774e,24,Kobieta,2022-06-10_12h59.23.391,task,2021.1.4,Win32,60.27000964,628b806c463b948bc644b84f,62a323e7603a456ef7e7ee56,,,,,,,,,,,X V Q F H G B L J M P D K C T S W R N Z,,,,,,,,,,,,,,,,,,,,,,,,,,,,,,,,,,,,,,,,,,,,,,,,,,,,,,,,,,,,,,,,,,,,,,,,,,,,1,0,1,0,1,,,,,,,,,,,,,
,,,,,,,,,5f1b3d60e2aa49309eb5774e,24,Kobieta,2022-06-10_12h59.23.391,task,2021.1.4,Win32,60.27000964,628b806c463b948bc644b84f,62a323e7603a456ef7e7ee56,,,,,,,,,,,,,,,,,,,,,,,,,,,,,,,,,,,,,,,,,,,,,,,,,,,,,,,,,,,,,,,,,,,,,,,,,,,,,,,,,,,,,,,,,,,,zf,"[""z"",""f""]",0,"[2.2963999998569307,2.6700000000000728,3.244000000000028]",1,ZF,0,0,0,0,1,,
,,,,,,,,,5f1b3d60e2aa49309eb5774e,24,Kobieta,2022-06-10_12h59.23.391,task,2021.1.4,Win32,60.27000964,628b806c463b948bc644b84f,62a323e7603a456ef7e7ee56,,,,,,,,,,,,,,,,,,,,,,,,4,,,,,,,,,,Task,28,(2x5) - 6,4,,,,,,,,,,,,,,,,,,,1,,,,,,,,,,,,,,,,,,,,,,,"[""4""]",1,[3.3303999998569225],0,0,0,27,1,,,,,,,,,,,,,,,,,,
,,,,,,,,,5f1b3d60e2aa49309eb5774e,24,Kobieta,2022-06-10_12h59.23.391,task,2021.1.4,Win32,60.27000964,628b806c463b948bc644b84f,62a323e7603a456ef7e7ee56,,,,,,,,,,,X V Q F H G B L J M P D K C T S W R N Z,,,,,,,,,,,,,,,,,,,,,,,,,,,,,,,,,,,,,,,,,,,,,,,,,,,,,,,,,,,,,,,,,,,,,,,,,,,,0,0,0,0,1,,,,,,,,,,,,,
,,,,,,,,,5f1b3d60e2aa49309eb5774e,24,Kobieta,2022-06-10_12h59.23.391,task,2021.1.4,Win32,60.27000964,628b806c463b948bc644b84f,62a323e7603a456ef7e7ee56,,,,,,,,,,,,,,,,,,,,,,,,6,,,,,,,,,,Task,30,(6/3) + 4 ,6,,,,,,,,,,,,,,,,,,,1,,,,,,,,,,,,,,,,,,,,,,,"[""6""]",1,[5.325800000190725],0,0,0,29,1,,,,,,,,,,,,,,,,,,
,,,,,,,,,5f1b3d60e2aa49309eb5774e,24,Kobieta,2022-06-10_12h59.23.391,task,2021.1.4,Win32,60.27000964,628b806c463b948bc644b84f,62a323e7603a456ef7e7ee56,,,,,,,,,,,X V Q F H G B L J M P D K C T S W R N Z,,,,,,,,,,,,,,,,,,,,,,,,,,,,,,,,,,,,,,,,,,,,,,,,,,,,,,,,,,,,,,,,,,,,,,,,,,,,1,0,1,0,1,,,,,,,,,,,,,
,,,,,,,,,5f1b3d60e2aa49309eb5774e,24,Kobieta,2022-06-10_12h59.23.391,task,2021.1.4,Win32,60.27000964,628b806c463b948bc644b84f,62a323e7603a456ef7e7ee56,,,,,,,,,,,,,,,,,,,,,,,,6,,,,,,,,,,Task,30,(6/3) + 4 ,6,,,,,,,,,,,,,,,,,,,1,,,,,,,,,,,,,,,,,,,,,,,"[""6""]",1,[8.812800000190691],0,0,0,29,1,,,,,,,,,,,,,,,,,,
,,,,,,,,,5f1b3d60e2aa49309eb5774e,24,Kobieta,2022-06-10_12h59.23.391,task,2021.1.4,Win32,60.27000964,628b806c463b948bc644b84f,62a323e7603a456ef7e7ee56,,,,,,,,,,,X V Q F H G B L J M P D K C T S W R N Z,,,,,,,,,,,,,,,,,,,,,,,,,,,,,,,,,,,,,,,,,,,,,,,,,,,,,,,,,,,,,,,,,,,,,,,,,,,,2,0,2,0,1,,,,,,,,,,,,,
,,,,,,,,,5f1b3d60e2aa49309eb5774e,24,Kobieta,2022-06-10_12h59.23.391,task,2021.1.4,Win32,60.27000964,628b806c463b948bc644b84f,62a323e7603a456ef7e7ee56,,,,,,,,,,,,,,,,,,,,,,,,,,,,,,,,,,,,,,,,,,,,,,,,,,,,,,,,,,,,,,,,,,,,,,,,,,,,,,,,,,,,,,,,,,,,kgq,"[""k"",""g"",""q""]",0,"[2.266800000190756,2.6142000000476173,2.9692000000476355,3.8125]",1,KGQ,1,0,1,0,1,,
,,,,,,,,,5f1b3d60e2aa49309eb5774e,24,Kobieta,2022-06-10_12h59.23.391,task,2021.1.4,Win32,60.27000964,628b806c463b948bc644b84f,62a323e7603a456ef7e7ee56,,,,,,,,,,,,,,,,,,,,,,,,8,,,,,,,,,,Task,32,(8/2) + 4,8,,,,,,,,,,,,,,,,,,,1,,,,,,,,,,,,,,,,,,,,,,,"[""8""]",1,[9.25],0,0,0,31,1,,,,,,,,,,,,,,,,,,
,,,,,,,,,5f1b3d60e2aa49309eb5774e,24,Kobieta,2022-06-10_12h59.23.391,task,2021.1.4,Win32,60.27000964,628b806c463b948bc644b84f,62a323e7603a456ef7e7ee56,,,,,,,,,,,X V Q F H G B L J M P D K C T S W R N Z,,,,,,,,,,,,,,,,,,,,,,,,,,,,,,,,,,,,,,,,,,,,,,,,,,,,,,,,,,,,,,,,,,,,,,,,,,,,0,0,0,0,1,,,,,,,,,,,,,
,,,,,,,,,5f1b3d60e2aa49309eb5774e,24,Kobieta,2022-06-10_12h59.23.391,task,2021.1.4,Win32,60.27000964,628b806c463b948bc644b84f,62a323e7603a456ef7e7ee56,,,,,,,,,,,,,,,,,,,,,,,,9,,,,,,,,,,Task,40,(7x2) - 5,9,,,,,,,,,,,,,,,,,,,1,,,,,,,,,,,,,,,,,,,,,,,"[""9""]",1,[7.67190000009532],0,0,0,39,1,,,,,,,,,,,,,,,,,,
,,,,,,,,,5f1b3d60e2aa49309eb5774e,24,Kobieta,2022-06-10_12h59.23.391,task,2021.1.4,Win32,60.27000964,628b806c463b948bc644b84f,62a323e7603a456ef7e7ee56,,,,,,,,,,,X V Q F H G B L J M P D K C T S W R N Z,,,,,,,,,,,,,,,,,,,,,,,,,,,,,,,,,,,,,,,,,,,,,,,,,,,,,,,,,,,,,,,,,,,,,,,,,,,,1,0,1,0,1,,,,,,,,,,,,,
,,,,,,,,,5f1b3d60e2aa49309eb5774e,24,Kobieta,2022-06-10_12h59.23.391,task,2021.1.4,Win32,60.27000964,628b806c463b948bc644b84f,62a323e7603a456ef7e7ee56,,,,,,,,,,,,,,,,,,,,,,,,6,,,,,,,,,,Task,30,(6/3) + 4 ,6,,,,,,,,,,,,,,,,,,,1,,,,,,,,,,,,,,,,,,,,,,,"[""6""]",1,[3.0619000000953065],0,0,0,29,1,,,,,,,,,,,,,,,,,,
,,,,,,,,,5f1b3d60e2aa49309eb5774e,24,Kobieta,2022-06-10_12h59.23.391,task,2021.1.4,Win32,60.27000964,628b806c463b948bc644b84f,62a323e7603a456ef7e7ee56,,,,,,,,,,,X V Q F H G B L J M P D K C T S W R N Z,,,,,,,,,,,,,,,,,,,,,,,,,,,,,,,,,,,,,,,,,,,,,,,,,,,,,,,,,,,,,,,,,,,,,,,,,,,,2,0,2,0,1,,,,,,,,,,,,,
,,,,,,,,,5f1b3d60e2aa49309eb5774e,24,Kobieta,2022-06-10_12h59.23.391,task,2021.1.4,Win32,60.27000964,628b806c463b948bc644b84f,62a323e7603a456ef7e7ee56,,,,,,,,,,,,,,,,,,,,,,,,3,,,,,,,,,,Task,35,(1x2) + 1,3,,,,,,,,,,,,,,,,,,,1,,,,,,,,,,,,,,,,,,,,,,,"[""3""]",1,[2.929599999904667],0,0,0,34,1,,,,,,,,,,,,,,,,,,
,,,,,,,,,5f1b3d60e2aa49309eb5774e,24,Kobieta,2022-06-10_12h59.23.391,task,2021.1.4,Win32,60.27000964,628b806c463b948bc644b84f,62a323e7603a456ef7e7ee56,,,,,,,,,,,X V Q F H G B L J M P D K C T S W R N Z,,,,,,,,,,,,,,,,,,,,,,,,,,,,,,,,,,,,,,,,,,,,,,,,,,,,,,,,,,,,,,,,,,,,,,,,,,,,3,0,3,0,1,,,,,,,,,,,,,
,,,,,,,,,5f1b3d60e2aa49309eb5774e,24,Kobieta,2022-06-10_12h59.23.391,task,2021.1.4,Win32,60.27000964,628b806c463b948bc644b84f,62a323e7603a456ef7e7ee56,,,,,,,,,,,,,,,,,,,,,,,,,,,,,,,,,,,,,,,,,,,,,,,,,,,,,,,,,,,,,,,,,,,,,,,,,,,,,,,,,,,,,,,,,,,,jxct,"[""j"",""x"",""c"",""t""]",0,"[2.6065999999045744,3.2059999999999036,3.7329999999999472,4.764200000047595,5.361099999904582]",1,JXCT,2,0,2,0,1,,
,,,,,,,,,5f1b3d60e2aa49309eb5774e,24,Kobieta,2022-06-10_12h59.23.391,task,2021.1.4,Win32,60.27000964,628b806c463b948bc644b84f,62a323e7603a456ef7e7ee56,,,,,,,,,,,,,,,,,,,,,,,,2,,,,,,,,,,Task,26,(2x9) - 16,2,,,,,,,,,,,,,,,,,,,1,,,,,,,,,,,,,,,,,,,,,,,"[""2""]",1,[7.473799999952348],0,0,0,25,1,,,,,,,,,,,,,,,,,,
,,,,,,,,,5f1b3d60e2aa49309eb5774e,24,Kobieta,2022-06-10_12h59.23.391,task,2021.1.4,Win32,60.27000964,628b806c463b948bc644b84f,62a323e7603a456ef7e7ee56,,,,,,,,,,,X V Q F H G B L J M P D K C T S W R N Z,,,,,,,,,,,,,,,,,,,,,,,,,,,,,,,,,,,,,,,,,,,,,,,,,,,,,,,,,,,,,,,,,,,,,,,,,,,,0,0,0,0,1,,,,,,,,,,,,,
,,,,,,,,,5f1b3d60e2aa49309eb5774e,24,Kobieta,2022-06-10_12h59.23.391,task,2021.1.4,Win32,60.27000964,628b806c463b948bc644b84f,62a323e7603a456ef7e7ee56,,,,,,,,,,,,,,,,,,,,,,,,6,,,,,,,,,,Task,30,(6/3) + 4 ,6,,,,,,,,,,,,,,,,,,,1,,,,,,,,,,,,,,,,,,,,,,,"[""6""]",1,[2.938100000143095],0,0,0,29,1,,,,,,,,,,,,,,,,,,
,,,,,,,,,5f1b3d60e2aa49309eb5774e,24,Kobieta,2022-06-10_12h59.23.391,task,2021.1.4,Win32,60.27000964,628b806c463b948bc644b84f,62a323e7603a456ef7e7ee56,,,,,,,,,,,X V Q F H G B L J M P D K C T S W R N Z,,,,,,,,,,,,,,,,,,,,,,,,,,,,,,,,,,,,,,,,,,,,,,,,,,,,,,,,,,,,,,,,,,,,,,,,,,,,1,0,1,0,1,,,,,,,,,,,,,
,,,,,,,,,5f1b3d60e2aa49309eb5774e,24,Kobieta,2022-06-10_12h59.23.391,task,2021.1.4,Win32,60.27000964,628b806c463b948bc644b84f,62a323e7603a456ef7e7ee56,,,,,,,,,,,,,,,,,,,,,,,,4,,,,,,,,,,Task,21,(10/2) - 1,4,,,,,,,,,,,,,,,,,,,1,,,,,,,,,,,,,,,,,,,,,,,"[""4""]",1,[2.3272999999524018],0,0,0,20,1,,,,,,,,,,,,,,,,,,
,,,,,,,,,5f1b3d60e2aa49309eb5774e,24,Kobieta,2022-06-10_12h59.23.391,task,2021.1.4,Win32,60.27000964,628b806c463b948bc644b84f,62a323e7603a456ef7e7ee56,,,,,,,,,,,X V Q F H G B L J M P D K C T S W R N Z,,,,,,,,,,,,,,,,,,,,,,,,,,,,,,,,,,,,,,,,,,,,,,,,,,,,,,,,,,,,,,,,,,,,,,,,,,,,2,0,2,0,1,,,,,,,,,,,,,
,,,,,,,,,5f1b3d60e2aa49309eb5774e,24,Kobieta,2022-06-10_12h59.23.391,task,2021.1.4,Win32,60.27000964,628b806c463b948bc644b84f,62a323e7603a456ef7e7ee56,,,,,,,,,,,,,,,,,,,,,,,,6,,,,,,,,,,Task,37,(3/3) + 5,6,,,,,,,,,,,,,,,,,,,1,,,,,,,,,,,,,,,,,,,,,,,"[""6""]",1,[3.4429999999999836],0,0,0,36,1,,,,,,,,,,,,,,,,,,
,,,,,,,,,5f1b3d60e2aa49309eb5774e,24,Kobieta,2022-06-10_12h59.23.391,task,2021.1.4,Win32,60.27000964,628b806c463b948bc644b84f,62a323e7603a456ef7e7ee56,,,,,,,,,,,X V Q F H G B L J M P D K C T S W R N Z,,,,,,,,,,,,,,,,,,,,,,,,,,,,,,,,,,,,,,,,,,,,,,,,,,,,,,,,,,,,,,,,,,,,,,,,,,,,3,0,3,0,1,,,,,,,,,,,,,
,,,,,,,,,5f1b3d60e2aa49309eb5774e,24,Kobieta,2022-06-10_12h59.23.391,task,2021.1.4,Win32,60.27000964,628b806c463b948bc644b84f,62a323e7603a456ef7e7ee56,,,,,,,,,,,,,,,,,,,,,,,,1,,,,,,,,,,Task,19,(6/2) - 1,2,,,,,,,,,,,,,,,,,,,0,,,,,,,,,,,,,,,,,,,,,,,"[""1""]",0,[4.459399999856942],0,0,0,18,1,,,,,,,,,,,,,,,,,,
,,,,,,,,,5f1b3d60e2aa49309eb5774e,24,Kobieta,2022-06-10_12h59.23.391,task,2021.1.4,Win32,60.27000964,628b806c463b948bc644b84f,62a323e7603a456ef7e7ee56,,,,,,,,,,,,,,,,,,,,,,,,9,,,,,,,,,,Task,24,(2x2) + 5,9,,,,,,,,,,,,,,,,,,,1,,,,,,,,,,,,,,,,,,,,,,,"[""9""]",1,[3.815499999999929],0,1,1,23,1,,,,,,,,,,,,,,,,,,
,,,,,,,,,5f1b3d60e2aa49309eb5774e,24,Kobieta,2022-06-10_12h59.23.391,task,2021.1.4,Win32,60.27000964,628b806c463b948bc644b84f,62a323e7603a456ef7e7ee56,,,,,,,,,,,X V Q F H G B L J M P D K C T S W R N Z,,,,,,,,,,,,,,,,,,,,,,,,,,,,,,,,,,,,,,,,,,,,,,,,,,,,,,,,,,,,,,,,,,,,,,,,,,,,4,0,4,0,1,,,,,,,,,,,,,
,,,,,,,,,5f1b3d60e2aa49309eb5774e,24,Kobieta,2022-06-10_12h59.23.391,task,2021.1.4,Win32,60.27000964,628b806c463b948bc644b84f,62a323e7603a456ef7e7ee56,,,,,,,,,,,,,,,,,,,,,,,,,,,,,,,,,,,,,,,,,,,,,,,,,,,,,,,,,,,,,,,,,,,,,,,,,,,,,,,,,,,,,,,,,,,,hmssv,"[""h"",""m"",""s"",""s"",""v""]",0,"[2.385499999999979,2.7508999998569834,4.170799999952351,4.315799999952333,4.832099999904585,6.049399999856973]",1,HMSSV,3,0,3,0,1,,
,,,,,,,,,5f1b3d60e2aa49309eb5774e,24,Kobieta,2022-06-10_12h59.23.391,task,2021.1.4,Win32,60.27000964,628b806c463b948bc644b84f,62a323e7603a456ef7e7ee56,,,,,,,,,,,,,,,,,,,,,,,,6,,,,,,,,,,Task,37,(3/3) + 5,6,,,,,,,,,,,,,,,,,,,1,,,,,,,,,,,,,,,,,,,,,,,"[""6""]",1,[3.90949999999998],0,0,0,36,1,,,,,,,,,,,,,,,,,,
,,,,,,,,,5f1b3d60e2aa49309eb5774e,24,Kobieta,2022-06-10_12h59.23.391,task,2021.1.4,Win32,60.27000964,628b806c463b948bc644b84f,62a323e7603a456ef7e7ee56,,,,,,,,,,,X V Q F H G B L J M P D K C T S W R N Z,,,,,,,,,,,,,,,,,,,,,,,,,,,,,,,,,,,,,,,,,,,,,,,,,,,,,,,,,,,,,,,,,,,,,,,,,,,,0,0,0,0,1,,,,,,,,,,,,,
,,,,,,,,,5f1b3d60e2aa49309eb5774e,24,Kobieta,2022-06-10_12h59.23.391,task,2021.1.4,Win32,60.27000964,628b806c463b948bc644b84f,62a323e7603a456ef7e7ee56,,,,,,,,,,,,,,,,,,,,,,,,2,,,,,,,,,,Task,2,(2x2) - 2,2,,,,,,,,,,,,,,,,,,,1,,,,,,,,,,,,,,,,,,,,,,,"[""2""]",1,[2.9732999999522463],0,0,0,1,1,,,,,,,,,,,,,,,,,,
,,,,,,,,,5f1b3d60e2aa49309eb5774e,24,Kobieta,2022-06-10_12h59.23.391,task,2021.1.4,Win32,60.27000964,628b806c463b948bc644b84f,62a323e7603a456ef7e7ee56,,,,,,,,,,,X V Q F H G B L J M P D K C T S W R N Z,,,,,,,,,,,,,,,,,,,,,,,,,,,,,,,,,,,,,,,,,,,,,,,,,,,,,,,,,,,,,,,,,,,,,,,,,,,,1,0,1,0,1,,,,,,,,,,,,,
,,,,,,,,,5f1b3d60e2aa49309eb5774e,24,Kobieta,2022-06-10_12h59.23.391,task,2021.1.4,Win32,60.27000964,628b806c463b948bc644b84f,62a323e7603a456ef7e7ee56,,,,,,,,,,,,,,,,,,,,,,,,5,,,,,,,,,,Task,36,(8/4) + 3,5,,,,,,,,,,,,,,,,,,,1,,,,,,,,,,,,,,,,,,,,,,,"[""5""]",1,[5.599999999999909],0,0,0,35,1,,,,,,,,,,,,,,,,,,
,,,,,,,,,5f1b3d60e2aa49309eb5774e,24,Kobieta,2022-06-10_12h59.23.391,task,2021.1.4,Win32,60.27000964,628b806c463b948bc644b84f,62a323e7603a456ef7e7ee56,,,,,,,,,,,X V Q F H G B L J M P D K C T S W R N Z,,,,,,,,,,,,,,,,,,,,,,,,,,,,,,,,,,,,,,,,,,,,,,,,,,,,,,,,,,,,,,,,,,,,,,,,,,,,2,0,2,0,1,,,,,,,,,,,,,
,,,,,,,,,5f1b3d60e2aa49309eb5774e,24,Kobieta,2022-06-10_12h59.23.391,task,2021.1.4,Win32,60.27000964,628b806c463b948bc644b84f,62a323e7603a456ef7e7ee56,,,,,,,,,,,,,,,,,,,,,,,,5,,,,,,,,,,Task,12,(4x4) - 11,5,,,,,,,,,,,,,,,,,,,1,,,,,,,,,,,,,,,,,,,,,,,"[""5""]",1,[6.673200000047586],0,0,0,11,1,,,,,,,,,,,,,,,,,,
,,,,,,,,,5f1b3d60e2aa49309eb5774e,24,Kobieta,2022-06-10_12h59.23.391,task,2021.1.4,Win32,60.27000964,628b806c463b948bc644b84f,62a323e7603a456ef7e7ee56,,,,,,,,,,,X V Q F H G B L J M P D K C T S W R N Z,,,,,,,,,,,,,,,,,,,,,,,,,,,,,,,,,,,,,,,,,,,,,,,,,,,,,,,,,,,,,,,,,,,,,,,,,,,,3,0,3,0,1,,,,,,,,,,,,,
,,,,,,,,,5f1b3d60e2aa49309eb5774e,24,Kobieta,2022-06-10_12h59.23.391,task,2021.1.4,Win32,60.27000964,628b806c463b948bc644b84f,62a323e7603a456ef7e7ee56,,,,,,,,,,,,,,,,,,,,,,,,4,,,,,,,,,,Task,4,(1x5) - 1,4,,,,,,,,,,,,,,,,,,,1,,,,,,,,,,,,,,,,,,,,,,,"[""4""]",1,[3.9424999999999955],0,0,0,3,1,,,,,,,,,,,,,,,,,,
,,,,,,,,,5f1b3d60e2aa49309eb5774e,24,Kobieta,2022-06-10_12h59.23.391,task,2021.1.4,Win32,60.27000964,628b806c463b948bc644b84f,62a323e7603a456ef7e7ee56,,,,,,,,,,,X V Q F H G B L J M P D K C T S W R N Z,,,,,,,,,,,,,,,,,,,,,,,,,,,,,,,,,,,,,,,,,,,,,,,,,,,,,,,,,,,,,,,,,,,,,,,,,,,,4,0,4,0,1,,,,,,,,,,,,,
,,,,,,,,,5f1b3d60e2aa49309eb5774e,24,Kobieta,2022-06-10_12h59.23.391,task,2021.1.4,Win32,60.27000964,628b806c463b948bc644b84f,62a323e7603a456ef7e7ee56,,,,,,,,,,,,,,,,,,,,,,,,7,,,,,,,,,,Task,38,(4x6) - 17,7,,,,,,,,,,,,,,,,,,,1,,,,,,,,,,,,,,,,,,,,,,,"[""7""]",1,[6.679799999952252],0,0,0,37,1,,,,,,,,,,,,,,,,,,
,,,,,,,,,5f1b3d60e2aa49309eb5774e,24,Kobieta,2022-06-10_12h59.23.391,task,2021.1.4,Win32,60.27000964,628b806c463b948bc644b84f,62a323e7603a456ef7e7ee56,,,,,,,,,,,X V Q F H G B L J M P D K C T S W R N Z,,,,,,,,,,,,,,,,,,,,,,,,,,,,,,,,,,,,,,,,,,,,,,,,,,,,,,,,,,,,,,,,,,,,,,,,,,,,5,0,5,0,1,,,,,,,,,,,,,
,,,,,,,,,5f1b3d60e2aa49309eb5774e,24,Kobieta,2022-06-10_12h59.23.391,task,2021.1.4,Win32,60.27000964,628b806c463b948bc644b84f,62a323e7603a456ef7e7ee56,,,,,,,,,,,,,,,,,,,,,,,,,,,,,,,,,,,,,,,,,,,,,,,,,,,,,,,,,,,,,,,,,,,,,,,,,,,,,,,,,,,,,,,,,,,,fzknnf,"[""f"",""z"",""k"",""n"",""n"",""f""]",0,"[3.282900000095424,3.524200000047699,3.8666000001430803,5.322100000143109,5.480600000143113,5.717900000095369,6.384700000047701]",1,FZKNNF,4,0,4,0,1,,
,,,,,,,,,5f1b3d60e2aa49309eb5774e,24,Kobieta,2022-06-10_12h59.23.391,task,2021.1.4,Win32,60.27000964,628b806c463b948bc644b84f,62a323e7603a456ef7e7ee56,,,,,,,,,,,,,,,,,,,,,,,,5,,,,,,,,,,Task,12,(4x4) - 11,5,,,,,,,,,,,,,,,,,,,1,,,,,,,,,,,,,,,,,,,,,,,"[""5""]",1,[5.662900000095419],0,0,0,11,1,,,,,,,,,,,,,,,,,,
,,,,,,,,,5f1b3d60e2aa49309eb5774e,24,Kobieta,2022-06-10_12h59.23.391,task,2021.1.4,Win32,60.27000964,628b806c463b948bc644b84f,62a323e7603a456ef7e7ee56,,,,,,,,,,,X V Q F H G B L J M P D K C T S W R N Z,,,,,,,,,,,,,,,,,,,,,,,,,,,,,,,,,,,,,,,,,,,,,,,,,,,,,,,,,,,,,,,,,,,,,,,,,,,,0,0,0,0,1,,,,,,,,,,,,,
,,,,,,,,,5f1b3d60e2aa49309eb5774e,24,Kobieta,2022-06-10_12h59.23.391,task,2021.1.4,Win32,60.27000964,628b806c463b948bc644b84f,62a323e7603a456ef7e7ee56,,,,,,,,,,,,,,,,,,,,,,,,2,,,,,,,,,,Task,19,(6/2) - 1,2,,,,,,,,,,,,,,,,,,,1,,,,,,,,,,,,,,,,,,,,,,,"[""2""]",1,[5.648700000047597],0,0,0,18,1,,,,,,,,,,,,,,,,,,
,,,,,,,,,5f1b3d60e2aa49309eb5774e,24,Kobieta,2022-06-10_12h59.23.391,task,2021.1.4,Win32,60.27000964,628b806c463b948bc644b84f,62a323e7603a456ef7e7ee56,,,,,,,,,,,X V Q F H G B L J M P D K C T S W R N Z,,,,,,,,,,,,,,,,,,,,,,,,,,,,,,,,,,,,,,,,,,,,,,,,,,,,,,,,,,,,,,,,,,,,,,,,,,,,1,0,1,0,1,,,,,,,,,,,,,
,,,,,,,,,5f1b3d60e2aa49309eb5774e,24,Kobieta,2022-06-10_12h59.23.391,task,2021.1.4,Win32,60.27000964,628b806c463b948bc644b84f,62a323e7603a456ef7e7ee56,,,,,,,,,,,,,,,,,,,,,,,,4,,,,,,,,,,Task,28,(2x5) - 6,4,,,,,,,,,,,,,,,,,,,1,,,,,,,,,,,,,,,,,,,,,,,"[""4""]",1,[4.000199999809297],0,0,0,27,1,,,,,,,,,,,,,,,,,,
,,,,,,,,,5f1b3d60e2aa49309eb5774e,24,Kobieta,2022-06-10_12h59.23.391,task,2021.1.4,Win32,60.27000964,628b806c463b948bc644b84f,62a323e7603a456ef7e7ee56,,,,,,,,,,,X V Q F H G B L J M P D K C T S W R N Z,,,,,,,,,,,,,,,,,,,,,,,,,,,,,,,,,,,,,,,,,,,,,,,,,,,,,,,,,,,,,,,,,,,,,,,,,,,,2,0,2,0,1,,,,,,,,,,,,,
,,,,,,,,,5f1b3d60e2aa49309eb5774e,24,Kobieta,2022-06-10_12h59.23.391,task,2021.1.4,Win32,60.27000964,628b806c463b948bc644b84f,62a323e7603a456ef7e7ee56,,,,,,,,,,,,,,,,,,,,,,,,0,,,,,,,,,,Task,25,(10/5) - 2,0,,,,,,,,,,,,,,,,,,,1,,,,,,,,,,,,,,,,,,,,,,,"[""0""]",1,[6.2255999999046026],0,0,0,24,1,,,,,,,,,,,,,,,,,,
,,,,,,,,,5f1b3d60e2aa49309eb5774e,24,Kobieta,2022-06-10_12h59.23.391,task,2021.1.4,Win32,60.27000964,628b806c463b948bc644b84f,62a323e7603a456ef7e7ee56,,,,,,,,,,,X V Q F H G B L J M P D K C T S W R N Z,,,,,,,,,,,,,,,,,,,,,,,,,,,,,,,,,,,,,,,,,,,,,,,,,,,,,,,,,,,,,,,,,,,,,,,,,,,,3,0,3,0,1,,,,,,,,,,,,,
,,,,,,,,,5f1b3d60e2aa49309eb5774e,24,Kobieta,2022-06-10_12h59.23.391,task,2021.1.4,Win32,60.27000964,628b806c463b948bc644b84f,62a323e7603a456ef7e7ee56,,,,,,,,,,,,,,,,,,,,,,,,8,,,,,,,,,,Task,39,(5x3) - 7,8,,,,,,,,,,,,,,,,,,,1,,,,,,,,,,,,,,,,,,,,,,,"[""8""]",1,[3.9243999998569734],0,0,0,38,1,,,,,,,,,,,,,,,,,,
,,,,,,,,,5f1b3d60e2aa49309eb5774e,24,Kobieta,2022-06-10_12h59.23.391,task,2021.1.4,Win32,60.27000964,628b806c463b948bc644b84f,62a323e7603a456ef7e7ee56,,,,,,,,,,,X V Q F H G B L J M P D K C T S W R N Z,,,,,,,,,,,,,,,,,,,,,,,,,,,,,,,,,,,,,,,,,,,,,,,,,,,,,,,,,,,,,,,,,,,,,,,,,,,,4,0,4,0,1,,,,,,,,,,,,,
,,,,,,,,,5f1b3d60e2aa49309eb5774e,24,Kobieta,2022-06-10_12h59.23.391,task,2021.1.4,Win32,60.27000964,628b806c463b948bc644b84f,62a323e7603a456ef7e7ee56,,,,,,,,,,,,,,,,,,,,,,,,9,,,,,,,,,,Task,40,(7x2) - 5,9,,,,,,,,,,,,,,,,,,,1,,,,,,,,,,,,,,,,,,,,,,,"[""9""]",1,[4.468900000095346],0,0,0,39,1,,,,,,,,,,,,,,,,,,
,,,,,,,,,5f1b3d60e2aa49309eb5774e,24,Kobieta,2022-06-10_12h59.23.391,task,2021.1.4,Win32,60.27000964,628b806c463b948bc644b84f,62a323e7603a456ef7e7ee56,,,,,,,,,,,X V Q F H G B L J M P D K C T S W R N Z,,,,,,,,,,,,,,,,,,,,,,,,,,,,,,,,,,,,,,,,,,,,,,,,,,,,,,,,,,,,,,,,,,,,,,,,,,,,5,0,5,0,1,,,,,,,,,,,,,
,,,,,,,,,5f1b3d60e2aa49309eb5774e,24,Kobieta,2022-06-10_12h59.23.391,task,2021.1.4,Win32,60.27000964,628b806c463b948bc644b84f,62a323e7603a456ef7e7ee56,,,,,,,,,,,,,,,,,,,,,,,,7,,,,,,,,,,Task,14,(2x2) + 3,7,,,,,,,,,,,,,,,,,,,1,,,,,,,,,,,,,,,,,,,,,,,"[""7""]",1,[5.557899999857],0,0,0,13,1,,,,,,,,,,,,,,,,,,
,,,,,,,,,5f1b3d60e2aa49309eb5774e,24,Kobieta,2022-06-10_12h59.23.391,task,2021.1.4,Win32,60.27000964,628b806c463b948bc644b84f,62a323e7603a456ef7e7ee56,,,,,,,,,,,X V Q F H G B L J M P D K C T S W R N Z,,,,,,,,,,,,,,,,,,,,,,,,,,,,,,,,,,,,,,,,,,,,,,,,,,,,,,,,,,,,,,,,,,,,,,,,,,,,6,0,6,0,1,,,,,,,,,,,,,
,,,,,,,,,5f1b3d60e2aa49309eb5774e,24,Kobieta,2022-06-10_12h59.23.391,task,2021.1.4,Win32,60.27000964,628b806c463b948bc644b84f,62a323e7603a456ef7e7ee56,,,,,,,,,,,,,,,,,,,,,,,,,,,,,,,,,,,,,,,,,,,,,,,,,,,,,,,,,,,,,,,,,,,,,,,,,,,,,,,,,,,,,,,,,,,,gxwhzvv,"[""g"",""x"",""w"",""h"",""z"",""v"",""v""]",0,"[2.465600000143013,2.9329000000952874,3.849499999999921,4.267999999999915,5.886999999999944,6.278500000000008,6.45020000004763,7.259600000142996]",1,GXWHZVV,5,0,5,0,1,,
,,,,,,,,,5f1b3d60e2aa49309eb5774e,24,Kobieta,2022-06-10_12h59.23.391,task,2021.1.4,Win32,60.27000964,628b806c463b948bc644b84f,62a323e7603a456ef7e7ee56,,,,,,,,,,,,,,,,,,,,,,,,0,,,,,,,,,,Task,33,(1/1) - 1,0,,,,,,,,,,,,,,,,,,,1,,,,,,,,,,,,,,,,,,,,,,,"[""0""]",1,[3.328700000047661],0,0,0,32,1,,,,,,,,,,,,,,,,,,
,,,,,,,,,5f1b3d60e2aa49309eb5774e,24,Kobieta,2022-06-10_12h59.23.391,task,2021.1.4,Win32,60.27000964,628b806c463b948bc644b84f,62a323e7603a456ef7e7ee56,,,,,,,,,,,X V Q F H G B L J M P D K C T S W R N Z,,,,,,,,,,,,,,,,,,,,,,,,,,,,,,,,,,,,,,,,,,,,,,,,,,,,,,,,,,,,,,,,,,,,,,,,,,,,0,0,0,0,1,,,,,,,,,,,,,
,,,,,,,,,5f1b3d60e2aa49309eb5774e,24,Kobieta,2022-06-10_12h59.23.391,task,2021.1.4,Win32,60.27000964,628b806c463b948bc644b84f,62a323e7603a456ef7e7ee56,,,,,,,,,,,,,,,,,,,,,,,,3,,,,,,,,,,Task,3,(2x3) - 3,3,,,,,,,,,,,,,,,,,,,1,,,,,,,,,,,,,,,,,,,,,,,"[""3""]",1,[5.408500000000004],0,0,0,2,1,,,,,,,,,,,,,,,,,,
,,,,,,,,,5f1b3d60e2aa49309eb5774e,24,Kobieta,2022-06-10_12h59.23.391,task,2021.1.4,Win32,60.27000964,628b806c463b948bc644b84f,62a323e7603a456ef7e7ee56,,,,,,,,,,,X V Q F H G B L J M P D K C T S W R N Z,,,,,,,,,,,,,,,,,,,,,,,,,,,,,,,,,,,,,,,,,,,,,,,,,,,,,,,,,,,,,,,,,,,,,,,,,,,,1,0,1,0,1,,,,,,,,,,,,,
,,,,,,,,,5f1b3d60e2aa49309eb5774e,24,Kobieta,2022-06-10_12h59.23.391,task,2021.1.4,Win32,60.27000964,628b806c463b948bc644b84f,62a323e7603a456ef7e7ee56,,,,,,,,,,,,,,,,,,,,,,,,0,,,,,,,,,,Task,17,(2x3) - 6,0,,,,,,,,,,,,,,,,,,,1,,,,,,,,,,,,,,,,,,,,,,,"[""0""]",1,[2.594500000000039],0,0,0,16,1,,,,,,,,,,,,,,,,,,
,,,,,,,,,5f1b3d60e2aa49309eb5774e,24,Kobieta,2022-06-10_12h59.23.391,task,2021.1.4,Win32,60.27000964,628b806c463b948bc644b84f,62a323e7603a456ef7e7ee56,,,,,,,,,,,X V Q F H G B L J M P D K C T S W R N Z,,,,,,,,,,,,,,,,,,,,,,,,,,,,,,,,,,,,,,,,,,,,,,,,,,,,,,,,,,,,,,,,,,,,,,,,,,,,2,0,2,0,1,,,,,,,,,,,,,
,,,,,,,,,5f1b3d60e2aa49309eb5774e,24,Kobieta,2022-06-10_12h59.23.391,task,2021.1.4,Win32,60.27000964,628b806c463b948bc644b84f,62a323e7603a456ef7e7ee56,,,,,,,,,,,,,,,,,,,,,,,,8,,,,,,,,,,Task,15,(3x7) - 13,8,,,,,,,,,,,,,,,,,,,1,,,,,,,,,,,,,,,,,,,,,,,"[""8""]",1,[7.860200000047712],0,0,0,14,1,,,,,,,,,,,,,,,,,,
,,,,,,,,,5f1b3d60e2aa49309eb5774e,24,Kobieta,2022-06-10_12h59.23.391,task,2021.1.4,Win32,60.27000964,628b806c463b948bc644b84f,62a323e7603a456ef7e7ee56,,,,,,,,,,,X V Q F H G B L J M P D K C T S W R N Z,,,,,,,,,,,,,,,,,,,,,,,,,,,,,,,,,,,,,,,,,,,,,,,,,,,,,,,,,,,,,,,,,,,,,,,,,,,,3,0,3,0,1,,,,,,,,,,,,,
,,,,,,,,,5f1b3d60e2aa49309eb5774e,24,Kobieta,2022-06-10_12h59.23.391,task,2021.1.4,Win32,60.27000964,628b806c463b948bc644b84f,62a323e7603a456ef7e7ee56,,,,,,,,,,,,,,,,,,,,,,,,8,,,,,,,,,,Task,23,(2x3) + 2,8,,,,,,,,,,,,,,,,,,,1,,,,,,,,,,,,,,,,,,,,,,,"[""8""]",1,[4.092400000095381],0,0,0,22,1,,,,,,,,,,,,,,,,,,
,,,,,,,,,5f1b3d60e2aa49309eb5774e,24,Kobieta,2022-06-10_12h59.23.391,task,2021.1.4,Win32,60.27000964,628b806c463b948bc644b84f,62a323e7603a456ef7e7ee56,,,,,,,,,,,X V Q F H G B L J M P D K C T S W R N Z,,,,,,,,,,,,,,,,,,,,,,,,,,,,,,,,,,,,,,,,,,,,,,,,,,,,,,,,,,,,,,,,,,,,,,,,,,,,4,0,4,0,1,,,,,,,,,,,,,
,,,,,,,,,5f1b3d60e2aa49309eb5774e,24,Kobieta,2022-06-10_12h59.23.391,task,2021.1.4,Win32,60.27000964,628b806c463b948bc644b84f,62a323e7603a456ef7e7ee56,,,,,,,,,,,,,,,,,,,,,,,,9,,,,,,,,,,Task,40,(7x2) - 5,9,,,,,,,,,,,,,,,,,,,1,,,,,,,,,,,,,,,,,,,,,,,"[""9""]",1,[3.141700000047649],0,0,0,39,1,,,,,,,,,,,,,,,,,,
,,,,,,,,,5f1b3d60e2aa49309eb5774e,24,Kobieta,2022-06-10_12h59.23.391,task,2021.1.4,Win32,60.27000964,628b806c463b948bc644b84f,62a323e7603a456ef7e7ee56,,,,,,,,,,,X V Q F H G B L J M P D K C T S W R N Z,,,,,,,,,,,,,,,,,,,,,,,,,,,,,,,,,,,,,,,,,,,,,,,,,,,,,,,,,,,,,,,,,,,,,,,,,,,,5,0,5,0,1,,,,,,,,,,,,,
,,,,,,,,,5f1b3d60e2aa49309eb5774e,24,Kobieta,2022-06-10_12h59.23.391,task,2021.1.4,Win32,60.27000964,628b806c463b948bc644b84f,62a323e7603a456ef7e7ee56,,,,,,,,,,,,,,,,,,,,,,,,9,,,,,,,,,,Task,7,(3x7) - 12,9,,,,,,,,,,,,,,,,,,,1,,,,,,,,,,,,,,,,,,,,,,,"[""9""]",1,[8.726800000190678],0,0,0,6,1,,,,,,,,,,,,,,,,,,
,,,,,,,,,5f1b3d60e2aa49309eb5774e,24,Kobieta,2022-06-10_12h59.23.391,task,2021.1.4,Win32,60.27000964,628b806c463b948bc644b84f,62a323e7603a456ef7e7ee56,,,,,,,,,,,X V Q F H G B L J M P D K C T S W R N Z,,,,,,,,,,,,,,,,,,,,,,,,,,,,,,,,,,,,,,,,,,,,,,,,,,,,,,,,,,,,,,,,,,,,,,,,,,,,6,0,6,0,1,,,,,,,,,,,,,
,,,,,,,,,5f1b3d60e2aa49309eb5774e,24,Kobieta,2022-06-10_12h59.23.391,task,2021.1.4,Win32,60.27000964,628b806c463b948bc644b84f,62a323e7603a456ef7e7ee56,,,,,,,,,,,,,,,,,,,,,,,,2,,,,,,,,,,Task,2,(2x2) - 2,2,,,,,,,,,,,,,,,,,,,1,,,,,,,,,,,,,,,,,,,,,,,"[""2""]",1,[2.31090000009533],0,0,0,1,1,,,,,,,,,,,,,,,,,,
,,,,,,,,,5f1b3d60e2aa49309eb5774e,24,Kobieta,2022-06-10_12h59.23.391,task,2021.1.4,Win32,60.27000964,628b806c463b948bc644b84f,62a323e7603a456ef7e7ee56,,,,,,,,,,,X V Q F H G B L J M P D K C T S W R N Z,,,,,,,,,,,,,,,,,,,,,,,,,,,,,,,,,,,,,,,,,,,,,,,,,,,,,,,,,,,,,,,,,,,,,,,,,,,,7,0,7,0,1,,,,,,,,,,,,,
,,,,,,,,,5f1b3d60e2aa49309eb5774e,24,Kobieta,2022-06-10_12h59.23.391,task,2021.1.4,Win32,60.27000964,628b806c463b948bc644b84f,62a323e7603a456ef7e7ee56,,,,,,,,,,,,,,,,,,,,,,,,,,,,,,,,,,,,,,,,,,,,,,,,,,,,,,,,,,,,,,,,,,,,,,,,,,,,,,,,,,,,,,,,,,,,jwpncldv,"[""j"",""w"",""p"",""n"",""c"",""l"",""d"",""v""]",0,"[3.0638999998569716,3.4195000000000846,4.064700000047651,4.4465000000000146,6.061599999904502,6.245200000047589,7.380599999904462,7.7310999999044725,8.7160999999046]",1,JWPNCLDV,6,0,6,0,1,,
,,,,,,,,,5f1b3d60e2aa49309eb5774e,24,Kobieta,2022-06-10_12h59.23.391,task,2021.1.4,Win32,60.27000964,628b806c463b948bc644b84f,62a323e7603a456ef7e7ee56,,,,,,,,,,,,,,,,,,,,,,,,1,,,,,,,,,,Task,34,(9/3) - 2,1,,,,,,,,,,,,,,,,,,,1,,,,,,,,,,,,,,,,,,,,,,,"[""1""]",1,[6.730400000095415],0,0,0,33,1,,,,,,,,,,,,,,,,,,
,,,,,,,,,5f1b3d60e2aa49309eb5774e,24,Kobieta,2022-06-10_12h59.23.391,task,2021.1.4,Win32,60.27000964,628b806c463b948bc644b84f,62a323e7603a456ef7e7ee56,,,,,,,,,,,X V Q F H G B L J M P D K C T S W R N Z,,,,,,,,,,,,,,,,,,,,,,,,,,,,,,,,,,,,,,,,,,,,,,,,,,,,,,,,,,,,,,,,,,,,,,,,,,,,0,0,0,0,1,,,,,,,,,,,,,
,,,,,,,,,5f1b3d60e2aa49309eb5774e,24,Kobieta,2022-06-10_12h59.23.391,task,2021.1.4,Win32,60.27000964,628b806c463b948bc644b84f,62a323e7603a456ef7e7ee56,,,,,,,,,,,,,,,,,,,,,,,,7,,,,,,,,,,Task,31,(4/2) + 5,7,,,,,,,,,,,,,,,,,,,1,,,,,,,,,,,,,,,,,,,,,,,"[""7""]",1,[5.0758999998568015],0,0,0,30,1,,,,,,,,,,,,,,,,,,
,,,,,,,,,5f1b3d60e2aa49309eb5774e,24,Kobieta,2022-06-10_12h59.23.391,task,2021.1.4,Win32,60.27000964,628b806c463b948bc644b84f,62a323e7603a456ef7e7ee56,,,,,,,,,,,X V Q F H G B L J M P D K C T S W R N Z,,,,,,,,,,,,,,,,,,,,,,,,,,,,,,,,,,,,,,,,,,,,,,,,,,,,,,,,,,,,,,,,,,,,,,,,,,,,1,0,1,0,1,,,,,,,,,,,,,
,,,,,,,,,5f1b3d60e2aa49309eb5774e,24,Kobieta,2022-06-10_12h59.23.391,task,2021.1.4,Win32,60.27000964,628b806c463b948bc644b84f,62a323e7603a456ef7e7ee56,,,,,,,,,,,,,,,,,,,,,,,,5,,,,,,,,,,Task,12,(4x4) - 11,5,,,,,,,,,,,,,,,,,,,1,,,,,,,,,,,,,,,,,,,,,,,"[""5""]",1,[3.859099999904629],0,0,0,11,1,,,,,,,,,,,,,,,,,,
,,,,,,,,,5f1b3d60e2aa49309eb5774e,24,Kobieta,2022-06-10_12h59.23.391,task,2021.1.4,Win32,60.27000964,628b806c463b948bc644b84f,62a323e7603a456ef7e7ee56,,,,,,,,,,,X V Q F H G B L J M P D K C T S W R N Z,,,,,,,,,,,,,,,,,,,,,,,,,,,,,,,,,,,,,,,,,,,,,,,,,,,,,,,,,,,,,,,,,,,,,,,,,,,,2,0,2,0,1,,,,,,,,,,,,,
,,,,,,,,,5f1b3d60e2aa49309eb5774e,24,Kobieta,2022-06-10_12h59.23.391,task,2021.1.4,Win32,60.27000964,628b806c463b948bc644b84f,62a323e7603a456ef7e7ee56,,,,,,,,,,,,,,,,,,,,,,,,7,,,,,,,,,,Task,38,(4x6) - 17,7,,,,,,,,,,,,,,,,,,,1,,,,,,,,,,,,,,,,,,,,,,,"[""7""]",1,[6.913799999952289],0,0,0,37,1,,,,,,,,,,,,,,,,,,
,,,,,,,,,5f1b3d60e2aa49309eb5774e,24,Kobieta,2022-06-10_12h59.23.391,task,2021.1.4,Win32,60.27000964,628b806c463b948bc644b84f,62a323e7603a456ef7e7ee56,,,,,,,,,,,X V Q F H G B L J M P D K C T S W R N Z,,,,,,,,,,,,,,,,,,,,,,,,,,,,,,,,,,,,,,,,,,,,,,,,,,,,,,,,,,,,,,,,,,,,,,,,,,,,3,0,3,0,1,,,,,,,,,,,,,
,,,,,,,,,5f1b3d60e2aa49309eb5774e,24,Kobieta,2022-06-10_12h59.23.391,task,2021.1.4,Win32,60.27000964,628b806c463b948bc644b84f,62a323e7603a456ef7e7ee56,,,,,,,,,,,,,,,,,,,,,,,,2,,,,,,,,,,Task,19,(6/2) - 1,2,,,,,,,,,,,,,,,,,,,1,,,,,,,,,,,,,,,,,,,,,,,"[""2""]",1,[3.4328999998567724],0,0,0,18,1,,,,,,,,,,,,,,,,,,
,,,,,,,,,5f1b3d60e2aa49309eb5774e,24,Kobieta,2022-06-10_12h59.23.391,task,2021.1.4,Win32,60.27000964,628b806c463b948bc644b84f,62a323e7603a456ef7e7ee56,,,,,,,,,,,X V Q F H G B L J M P D K C T S W R N Z,,,,,,,,,,,,,,,,,,,,,,,,,,,,,,,,,,,,,,,,,,,,,,,,,,,,,,,,,,,,,,,,,,,,,,,,,,,,4,0,4,0,1,,,,,,,,,,,,,
,,,,,,,,,5f1b3d60e2aa49309eb5774e,24,Kobieta,2022-06-10_12h59.23.391,task,2021.1.4,Win32,60.27000964,628b806c463b948bc644b84f,62a323e7603a456ef7e7ee56,,,,,,,,,,,,,,,,,,,,,,,,3,,,,,,,,,,Task,35,(1x2) + 1,3,,,,,,,,,,,,,,,,,,,1,,,,,,,,,,,,,,,,,,,,,,,"[""3""]",1,[2.4437000000475564],0,0,0,34,1,,,,,,,,,,,,,,,,,,
,,,,,,,,,5f1b3d60e2aa49309eb5774e,24,Kobieta,2022-06-10_12h59.23.391,task,2021.1.4,Win32,60.27000964,628b806c463b948bc644b84f,62a323e7603a456ef7e7ee56,,,,,,,,,,,X V Q F H G B L J M P D K C T S W R N Z,,,,,,,,,,,,,,,,,,,,,,,,,,,,,,,,,,,,,,,,,,,,,,,,,,,,,,,,,,,,,,,,,,,,,,,,,,,,5,0,5,0,1,,,,,,,,,,,,,
,,,,,,,,,5f1b3d60e2aa49309eb5774e,24,Kobieta,2022-06-10_12h59.23.391,task,2021.1.4,Win32,60.27000964,628b806c463b948bc644b84f,62a323e7603a456ef7e7ee56,,,,,,,,,,,,,,,,,,,,,,,,1,,,,,,,,,,Task,18,(16/4) - 3,1,,,,,,,,,,,,,,,,,,,1,,,,,,,,,,,,,,,,,,,,,,,"[""1""]",1,[5.547900000095524],0,0,0,17,1,,,,,,,,,,,,,,,,,,
,,,,,,,,,5f1b3d60e2aa49309eb5774e,24,Kobieta,2022-06-10_12h59.23.391,task,2021.1.4,Win32,60.27000964,628b806c463b948bc644b84f,62a323e7603a456ef7e7ee56,,,,,,,,,,,X V Q F H G B L J M P D K C T S W R N Z,,,,,,,,,,,,,,,,,,,,,,,,,,,,,,,,,,,,,,,,,,,,,,,,,,,,,,,,,,,,,,,,,,,,,,,,,,,,6,0,6,0,1,,,,,,,,,,,,,
,,,,,,,,,5f1b3d60e2aa49309eb5774e,24,Kobieta,2022-06-10_12h59.23.391,task,2021.1.4,Win32,60.27000964,628b806c463b948bc644b84f,62a323e7603a456ef7e7ee56,,,,,,,,,,,,,,,,,,,,,,,,3,,,,,,,,,,Task,3,(2x3) - 3,3,,,,,,,,,,,,,,,,,,,1,,,,,,,,,,,,,,,,,,,,,,,"[""3""]",1,[4.186899999857133],0,0,0,2,1,,,,,,,,,,,,,,,,,,
,,,,,,,,,5f1b3d60e2aa49309eb5774e,24,Kobieta,2022-06-10_12h59.23.391,task,2021.1.4,Win32,60.27000964,628b806c463b948bc644b84f,62a323e7603a456ef7e7ee56,,,,,,,,,,,X V Q F H G B L J M P D K C T S W R N Z,,,,,,,,,,,,,,,,,,,,,,,,,,,,,,,,,,,,,,,,,,,,,,,,,,,,,,,,,,,,,,,,,,,,,,,,,,,,7,0,7,0,1,,,,,,,,,,,,,
