key_resp_15.keys,key_resp_15.rt,key_resp_13.keys,key_resp_13.corr,key_resp_13.rt,ranodm_loop.thisRepN,ranodm_loop.thisTrialN,ranodm_loop.thisN,ranodm_loop.thisIndex,ranodm_loop.ran,participant,Wiek*,Płeć,date,expName,psychopyVersion,OS,frameRate,study_id,session,key_resp_16.keys,key_resp_16.rt,key_resp_4.keys,key_resp_4.rt,next_letter.thisRepN,next_letter.thisTrialN,next_letter.thisN,next_letter.thisIndex,next_letter.ran,letter,simple_recall,key_resp_5.keys,key_resp_5.rt,simple_recall_corr,simple_recall_corrkeys,next_level.thisRepN,next_level.thisTrialN,next_level.thisN,next_level.thisIndex,next_level.ran,key_resp_2.keys,key_resp_2.rt,digit_answer,key_resp.keys,key_resp.corr,key_resp.rt,RT_list,next_equation.thisRepN,next_equation.thisTrialN,next_equation.thisN,next_equation.thisIndex,next_equation.ran,Task,Trial,Problem,Operation_answer,processing_score,sumRT,meanRT,sumdiff,sd,RT,key_resp_3.keys,key_resp_3.rt,repeat_practice.thisRepN,repeat_practice.thisTrialN,repeat_practice.thisN,repeat_practice.thisIndex,repeat_practice.ran,key_resp_6.keys,key_resp_6.rt,key_resp_11.keys,key_resp_11.corr,key_resp_11.rt,operation_correct,repeat_if_wrong_prac.thisRepN,repeat_if_wrong_prac.thisTrialN,repeat_if_wrong_prac.thisN,repeat_if_wrong_prac.thisIndex,repeat_if_wrong_prac.ran,span_size_prac.thisRepN,span_size_prac.thisTrialN,span_size_prac.thisN,span_size_prac.thisIndex,span_size_prac.ran,complex_recall_practice,key_resp_9.keys,key_resp_9.corr,key_resp_9.rt,complex_prac_corr,span_recall_prac.thisRepN,span_recall_prac.thisTrialN,span_recall_prac.thisN,span_recall_prac.thisIndex,span_recall_prac.ran,key_resp_10.keys,key_resp_10.rt,key_resp_7.keys,key_resp_7.corr,key_resp_7.rt,repeat_if_wrong.thisRepN,repeat_if_wrong.thisTrialN,repeat_if_wrong.thisN,repeat_if_wrong.thisIndex,repeat_if_wrong.ran,span_size.thisRepN,span_size.thisTrialN,span_size.thisN,span_size.thisIndex,span_size.ran,complex_recall,key_resp_8.keys,key_resp_8.corr,key_resp_8.rt,complex_recall_corr,complex_recall_corrkeys,span_recall.thisRepN,span_recall.thisTrialN,span_recall.thisN,span_recall.thisIndex,span_recall.ran,key_resp_12.keys,key_resp_12.rt
space,11.3212,"[""comma""]",0,[0.7784000000059734],0,0,0,0,1,5f1b2fe23bcef80c38d2a362,25,Kobieta,2022-06-04_08h29.28.176,task,2021.1.4,Win32,59.94485074,628b806c463b948bc644b84f,629afaaf6df5dd777645c0e7,,,,,,,,,,,,,,,,,,,,,,,,,,,,,,,,,,,,,,,,,,,,,,,,,,,,,,,,,,,,,,,,,,,,,,,,,,,,,,,,,,,,,,,,,,,,,,,,,,,,,,,
,,"[""comma""]",0,[0.08609999999401907],1,0,1,0,1,5f1b2fe23bcef80c38d2a362,25,Kobieta,2022-06-04_08h29.28.176,task,2021.1.4,Win32,59.94485074,628b806c463b948bc644b84f,629afaaf6df5dd777645c0e7,,,,,,,,,,,,,,,,,,,,,,,,,,,,,,,,,,,,,,,,,,,,,,,,,,,,,,,,,,,,,,,,,,,,,,,,,,,,,,,,,,,,,,,,,,,,,,,,,,,,,,,
,,"[""period""]",0,[0.19489999999106544],2,0,2,0,1,5f1b2fe23bcef80c38d2a362,25,Kobieta,2022-06-04_08h29.28.176,task,2021.1.4,Win32,59.94485074,628b806c463b948bc644b84f,629afaaf6df5dd777645c0e7,,,,,,,,,,,,,,,,,,,,,,,,,,,,,,,,,,,,,,,,,,,,,,,,,,,,,,,,,,,,,,,,,,,,,,,,,,,,,,,,,,,,,,,,,,,,,,,,,,,,,,,
,,"[""period""]",0,[0.5147000000029891],3,0,3,0,1,5f1b2fe23bcef80c38d2a362,25,Kobieta,2022-06-04_08h29.28.176,task,2021.1.4,Win32,59.94485074,628b806c463b948bc644b84f,629afaaf6df5dd777645c0e7,,,,,,,,,,,,,,,,,,,,,,,,,,,,,,,,,,,,,,,,,,,,,,,,,,,,,,,,,,,,,,,,,,,,,,,,,,,,,,,,,,,,,,,,,,,,,,,,,,,,,,,
,,"[""period""]",0,[0.3511999999880686],4,0,4,0,1,5f1b2fe23bcef80c38d2a362,25,Kobieta,2022-06-04_08h29.28.176,task,2021.1.4,Win32,59.94485074,628b806c463b948bc644b84f,629afaaf6df5dd777645c0e7,,,,,,,,,,,,,,,,,,,,,,,,,,,,,,,,,,,,,,,,,,,,,,,,,,,,,,,,,,,,,,,,,,,,,,,,,,,,,,,,,,,,,,,,,,,,,,,,,,,,,,,
,,"[""comma""]",0,[0.44629999999702363],5,0,5,0,1,5f1b2fe23bcef80c38d2a362,25,Kobieta,2022-06-04_08h29.28.176,task,2021.1.4,Win32,59.94485074,628b806c463b948bc644b84f,629afaaf6df5dd777645c0e7,,,,,,,,,,,,,,,,,,,,,,,,,,,,,,,,,,,,,,,,,,,,,,,,,,,,,,,,,,,,,,,,,,,,,,,,,,,,,,,,,,,,,,,,,,,,,,,,,,,,,,,
,,"[""comma""]",0,[0.7342000000029998],6,0,6,0,1,5f1b2fe23bcef80c38d2a362,25,Kobieta,2022-06-04_08h29.28.176,task,2021.1.4,Win32,59.94485074,628b806c463b948bc644b84f,629afaaf6df5dd777645c0e7,,,,,,,,,,,,,,,,,,,,,,,,,,,,,,,,,,,,,,,,,,,,,,,,,,,,,,,,,,,,,,,,,,,,,,,,,,,,,,,,,,,,,,,,,,,,,,,,,,,,,,,
,,"[""comma""]",0,[0.6514000000059639],7,0,7,0,1,5f1b2fe23bcef80c38d2a362,25,Kobieta,2022-06-04_08h29.28.176,task,2021.1.4,Win32,59.94485074,628b806c463b948bc644b84f,629afaaf6df5dd777645c0e7,,,,,,,,,,,,,,,,,,,,,,,,,,,,,,,,,,,,,,,,,,,,,,,,,,,,,,,,,,,,,,,,,,,,,,,,,,,,,,,,,,,,,,,,,,,,,,,,,,,,,,,
,,"[""period""]",0,[0.5009999999999764],8,0,8,0,1,5f1b2fe23bcef80c38d2a362,25,Kobieta,2022-06-04_08h29.28.176,task,2021.1.4,Win32,59.94485074,628b806c463b948bc644b84f,629afaaf6df5dd777645c0e7,,,,,,,,,,,,,,,,,,,,,,,,,,,,,,,,,,,,,,,,,,,,,,,,,,,,,,,,,,,,,,,,,,,,,,,,,,,,,,,,,,,,,,,,,,,,,,,,,,,,,,,
,,"[""period""]",0,[0.5055999999940184],9,0,9,0,1,5f1b2fe23bcef80c38d2a362,25,Kobieta,2022-06-04_08h29.28.176,task,2021.1.4,Win32,59.94485074,628b806c463b948bc644b84f,629afaaf6df5dd777645c0e7,,,,,,,,,,,,,,,,,,,,,,,,,,,,,,,,,,,,,,,,,,,,,,,,,,,,,,,,,,,,,,,,,,,,,,,,,,,,,,,,,,,,,,,,,,,,,,,,,,,,,,,
,,"[""period""]",0,[0.6444999999999936],10,0,10,0,1,5f1b2fe23bcef80c38d2a362,25,Kobieta,2022-06-04_08h29.28.176,task,2021.1.4,Win32,59.94485074,628b806c463b948bc644b84f,629afaaf6df5dd777645c0e7,,,,,,,,,,,,,,,,,,,,,,,,,,,,,,,,,,,,,,,,,,,,,,,,,,,,,,,,,,,,,,,,,,,,,,,,,,,,,,,,,,,,,,,,,,,,,,,,,,,,,,,
,,"[""comma""]",0,[0.3744999999999834],11,0,11,0,1,5f1b2fe23bcef80c38d2a362,25,Kobieta,2022-06-04_08h29.28.176,task,2021.1.4,Win32,59.94485074,628b806c463b948bc644b84f,629afaaf6df5dd777645c0e7,,,,,,,,,,,,,,,,,,,,,,,,,,,,,,,,,,,,,,,,,,,,,,,,,,,,,,,,,,,,,,,,,,,,,,,,,,,,,,,,,,,,,,,,,,,,,,,,,,,,,,,
,,"[""comma""]",0,[0.9243999999910386],12,0,12,0,1,5f1b2fe23bcef80c38d2a362,25,Kobieta,2022-06-04_08h29.28.176,task,2021.1.4,Win32,59.94485074,628b806c463b948bc644b84f,629afaaf6df5dd777645c0e7,,,,,,,,,,,,,,,,,,,,,,,,,,,,,,,,,,,,,,,,,,,,,,,,,,,,,,,,,,,,,,,,,,,,,,,,,,,,,,,,,,,,,,,,,,,,,,,,,,,,,,,
,,"[""comma""]",0,[0.6507000000029848],13,0,13,0,1,5f1b2fe23bcef80c38d2a362,25,Kobieta,2022-06-04_08h29.28.176,task,2021.1.4,Win32,59.94485074,628b806c463b948bc644b84f,629afaaf6df5dd777645c0e7,,,,,,,,,,,,,,,,,,,,,,,,,,,,,,,,,,,,,,,,,,,,,,,,,,,,,,,,,,,,,,,,,,,,,,,,,,,,,,,,,,,,,,,,,,,,,,,,,,,,,,,
,,"[""period""]",0,[0.6211000000089371],14,0,14,0,1,5f1b2fe23bcef80c38d2a362,25,Kobieta,2022-06-04_08h29.28.176,task,2021.1.4,Win32,59.94485074,628b806c463b948bc644b84f,629afaaf6df5dd777645c0e7,,,,,,,,,,,,,,,,,,,,,,,,,,,,,,,,,,,,,,,,,,,,,,,,,,,,,,,,,,,,,,,,,,,,,,,,,,,,,,,,,,,,,,,,,,,,,,,,,,,,,,,
,,"[""period""]",0,[0.9357000000029814],15,0,15,0,1,5f1b2fe23bcef80c38d2a362,25,Kobieta,2022-06-04_08h29.28.176,task,2021.1.4,Win32,59.94485074,628b806c463b948bc644b84f,629afaaf6df5dd777645c0e7,,,,,,,,,,,,,,,,,,,,,,,,,,,,,,,,,,,,,,,,,,,,,,,,,,,,,,,,,,,,,,,,,,,,,,,,,,,,,,,,,,,,,,,,,,,,,,,,,,,,,,,
,,"[""comma""]",0,[0.9182999999970036],16,0,16,0,1,5f1b2fe23bcef80c38d2a362,25,Kobieta,2022-06-04_08h29.28.176,task,2021.1.4,Win32,59.94485074,628b806c463b948bc644b84f,629afaaf6df5dd777645c0e7,,,,,,,,,,,,,,,,,,,,,,,,,,,,,,,,,,,,,,,,,,,,,,,,,,,,,,,,,,,,,,,,,,,,,,,,,,,,,,,,,,,,,,,,,,,,,,,,,,,,,,,
,,"[""period""]",0,[1.0852000000029989],17,0,17,0,1,5f1b2fe23bcef80c38d2a362,25,Kobieta,2022-06-04_08h29.28.176,task,2021.1.4,Win32,59.94485074,628b806c463b948bc644b84f,629afaaf6df5dd777645c0e7,,,,,,,,,,,,,,,,,,,,,,,,,,,,,,,,,,,,,,,,,,,,,,,,,,,,,,,,,,,,,,,,,,,,,,,,,,,,,,,,,,,,,,,,,,,,,,,,,,,,,,,
,,,0,,18,0,18,0,1,5f1b2fe23bcef80c38d2a362,25,Kobieta,2022-06-04_08h29.28.176,task,2021.1.4,Win32,59.94485074,628b806c463b948bc644b84f,629afaaf6df5dd777645c0e7,,,,,,,,,,,,,,,,,,,,,,,,,,,,,,,,,,,,,,,,,,,,,,,,,,,,,,,,,,,,,,,,,,,,,,,,,,,,,,,,,,,,,,,,,,,,,,,,,,,,,,,
,,"[""comma""]",0,[0.4480000000000075],19,0,19,0,1,5f1b2fe23bcef80c38d2a362,25,Kobieta,2022-06-04_08h29.28.176,task,2021.1.4,Win32,59.94485074,628b806c463b948bc644b84f,629afaaf6df5dd777645c0e7,,,,,,,,,,,,,,,,,,,,,,,,,,,,,,,,,,,,,,,,,,,,,,,,,,,,,,,,,,,,,,,,,,,,,,,,,,,,,,,,,,,,,,,,,,,,,,,,,,,,,,,
,,"[""period""]",0,[0.7170999999940477],20,0,20,0,1,5f1b2fe23bcef80c38d2a362,25,Kobieta,2022-06-04_08h29.28.176,task,2021.1.4,Win32,59.94485074,628b806c463b948bc644b84f,629afaaf6df5dd777645c0e7,,,,,,,,,,,,,,,,,,,,,,,,,,,,,,,,,,,,,,,,,,,,,,,,,,,,,,,,,,,,,,,,,,,,,,,,,,,,,,,,,,,,,,,,,,,,,,,,,,,,,,,
,,"[""period""]",0,[0.46649999999999636],21,0,21,0,1,5f1b2fe23bcef80c38d2a362,25,Kobieta,2022-06-04_08h29.28.176,task,2021.1.4,Win32,59.94485074,628b806c463b948bc644b84f,629afaaf6df5dd777645c0e7,,,,,,,,,,,,,,,,,,,,,,,,,,,,,,,,,,,,,,,,,,,,,,,,,,,,,,,,,,,,,,,,,,,,,,,,,,,,,,,,,,,,,,,,,,,,,,,,,,,,,,,
,,"[""period""]",0,[0.38259999999405636],22,0,22,0,1,5f1b2fe23bcef80c38d2a362,25,Kobieta,2022-06-04_08h29.28.176,task,2021.1.4,Win32,59.94485074,628b806c463b948bc644b84f,629afaaf6df5dd777645c0e7,,,,,,,,,,,,,,,,,,,,,,,,,,,,,,,,,,,,,,,,,,,,,,,,,,,,,,,,,,,,,,,,,,,,,,,,,,,,,,,,,,,,,,,,,,,,,,,,,,,,,,,
,,"[""period""]",0,[0.41849999999999454],23,0,23,0,1,5f1b2fe23bcef80c38d2a362,25,Kobieta,2022-06-04_08h29.28.176,task,2021.1.4,Win32,59.94485074,628b806c463b948bc644b84f,629afaaf6df5dd777645c0e7,,,,,,,,,,,,,,,,,,,,,,,,,,,,,,,,,,,,,,,,,,,,,,,,,,,,,,,,,,,,,,,,,,,,,,,,,,,,,,,,,,,,,,,,,,,,,,,,,,,,,,,
,,"[""period""]",0,[0.5795999999940591],24,0,24,0,1,5f1b2fe23bcef80c38d2a362,25,Kobieta,2022-06-04_08h29.28.176,task,2021.1.4,Win32,59.94485074,628b806c463b948bc644b84f,629afaaf6df5dd777645c0e7,,,,,,,,,,,,,,,,,,,,,,,,,,,,,,,,,,,,,,,,,,,,,,,,,,,,,,,,,,,,,,,,,,,,,,,,,,,,,,,,,,,,,,,,,,,,,,,,,,,,,,,
,,"[""comma""]",0,[0.30819999998806225],25,0,25,0,1,5f1b2fe23bcef80c38d2a362,25,Kobieta,2022-06-04_08h29.28.176,task,2021.1.4,Win32,59.94485074,628b806c463b948bc644b84f,629afaaf6df5dd777645c0e7,,,,,,,,,,,,,,,,,,,,,,,,,,,,,,,,,,,,,,,,,,,,,,,,,,,,,,,,,,,,,,,,,,,,,,,,,,,,,,,,,,,,,,,,,,,,,,,,,,,,,,,
,,"[""comma""]",0,[0.33620000000297523],26,0,26,0,1,5f1b2fe23bcef80c38d2a362,25,Kobieta,2022-06-04_08h29.28.176,task,2021.1.4,Win32,59.94485074,628b806c463b948bc644b84f,629afaaf6df5dd777645c0e7,,,,,,,,,,,,,,,,,,,,,,,,,,,,,,,,,,,,,,,,,,,,,,,,,,,,,,,,,,,,,,,,,,,,,,,,,,,,,,,,,,,,,,,,,,,,,,,,,,,,,,,
,,"[""comma""]",0,[0.08499999999997954],27,0,27,0,1,5f1b2fe23bcef80c38d2a362,25,Kobieta,2022-06-04_08h29.28.176,task,2021.1.4,Win32,59.94485074,628b806c463b948bc644b84f,629afaaf6df5dd777645c0e7,,,,,,,,,,,,,,,,,,,,,,,,,,,,,,,,,,,,,,,,,,,,,,,,,,,,,,,,,,,,,,,,,,,,,,,,,,,,,,,,,,,,,,,,,,,,,,,,,,,,,,,
,,"[""comma""]",0,[0.3390999999940618],28,0,28,0,1,5f1b2fe23bcef80c38d2a362,25,Kobieta,2022-06-04_08h29.28.176,task,2021.1.4,Win32,59.94485074,628b806c463b948bc644b84f,629afaaf6df5dd777645c0e7,,,,,,,,,,,,,,,,,,,,,,,,,,,,,,,,,,,,,,,,,,,,,,,,,,,,,,,,,,,,,,,,,,,,,,,,,,,,,,,,,,,,,,,,,,,,,,,,,,,,,,,
,,"[""comma""]",0,[0.7992000000029407],29,0,29,0,1,5f1b2fe23bcef80c38d2a362,25,Kobieta,2022-06-04_08h29.28.176,task,2021.1.4,Win32,59.94485074,628b806c463b948bc644b84f,629afaaf6df5dd777645c0e7,,,,,,,,,,,,,,,,,,,,,,,,,,,,,,,,,,,,,,,,,,,,,,,,,,,,,,,,,,,,,,,,,,,,,,,,,,,,,,,,,,,,,,,,,,,,,,,,,,,,,,,
,,"[""comma""]",0,[1.186200000002998],30,0,30,0,1,5f1b2fe23bcef80c38d2a362,25,Kobieta,2022-06-04_08h29.28.176,task,2021.1.4,Win32,59.94485074,628b806c463b948bc644b84f,629afaaf6df5dd777645c0e7,,,,,,,,,,,,,,,,,,,,,,,,,,,,,,,,,,,,,,,,,,,,,,,,,,,,,,,,,,,,,,,,,,,,,,,,,,,,,,,,,,,,,,,,,,,,,,,,,,,,,,,
,,"[""period""]",0,[0.4660000000000082],31,0,31,0,1,5f1b2fe23bcef80c38d2a362,25,Kobieta,2022-06-04_08h29.28.176,task,2021.1.4,Win32,59.94485074,628b806c463b948bc644b84f,629afaaf6df5dd777645c0e7,,,,,,,,,,,,,,,,,,,,,,,,,,,,,,,,,,,,,,,,,,,,,,,,,,,,,,,,,,,,,,,,,,,,,,,,,,,,,,,,,,,,,,,,,,,,,,,,,,,,,,,
,,"[""period""]",0,[0.4045999999940477],32,0,32,0,1,5f1b2fe23bcef80c38d2a362,25,Kobieta,2022-06-04_08h29.28.176,task,2021.1.4,Win32,59.94485074,628b806c463b948bc644b84f,629afaaf6df5dd777645c0e7,,,,,,,,,,,,,,,,,,,,,,,,,,,,,,,,,,,,,,,,,,,,,,,,,,,,,,,,,,,,,,,,,,,,,,,,,,,,,,,,,,,,,,,,,,,,,,,,,,,,,,,
,,"[""comma""]",0,[0.2897000000029948],33,0,33,0,1,5f1b2fe23bcef80c38d2a362,25,Kobieta,2022-06-04_08h29.28.176,task,2021.1.4,Win32,59.94485074,628b806c463b948bc644b84f,629afaaf6df5dd777645c0e7,,,,,,,,,,,,,,,,,,,,,,,,,,,,,,,,,,,,,,,,,,,,,,,,,,,,,,,,,,,,,,,,,,,,,,,,,,,,,,,,,,,,,,,,,,,,,,,,,,,,,,,
,,"[""period""]",0,[0.4183999999910384],34,0,34,0,1,5f1b2fe23bcef80c38d2a362,25,Kobieta,2022-06-04_08h29.28.176,task,2021.1.4,Win32,59.94485074,628b806c463b948bc644b84f,629afaaf6df5dd777645c0e7,,,,,,,,,,,,,,,,,,,,,,,,,,,,,,,,,,,,,,,,,,,,,,,,,,,,,,,,,,,,,,,,,,,,,,,,,,,,,,,,,,,,,,,,,,,,,,,,,,,,,,,
,,"[""comma""]",0,[0.4206000000089034],35,0,35,0,1,5f1b2fe23bcef80c38d2a362,25,Kobieta,2022-06-04_08h29.28.176,task,2021.1.4,Win32,59.94485074,628b806c463b948bc644b84f,629afaaf6df5dd777645c0e7,,,,,,,,,,,,,,,,,,,,,,,,,,,,,,,,,,,,,,,,,,,,,,,,,,,,,,,,,,,,,,,,,,,,,,,,,,,,,,,,,,,,,,,,,,,,,,,,,,,,,,,
,,"[""period""]",0,[0.08489999999108022],36,0,36,0,1,5f1b2fe23bcef80c38d2a362,25,Kobieta,2022-06-04_08h29.28.176,task,2021.1.4,Win32,59.94485074,628b806c463b948bc644b84f,629afaaf6df5dd777645c0e7,,,,,,,,,,,,,,,,,,,,,,,,,,,,,,,,,,,,,,,,,,,,,,,,,,,,,,,,,,,,,,,,,,,,,,,,,,,,,,,,,,,,,,,,,,,,,,,,,,,,,,,
,,"[""period""]",0,[0.08309999999403317],37,0,37,0,1,5f1b2fe23bcef80c38d2a362,25,Kobieta,2022-06-04_08h29.28.176,task,2021.1.4,Win32,59.94485074,628b806c463b948bc644b84f,629afaaf6df5dd777645c0e7,,,,,,,,,,,,,,,,,,,,,,,,,,,,,,,,,,,,,,,,,,,,,,,,,,,,,,,,,,,,,,,,,,,,,,,,,,,,,,,,,,,,,,,,,,,,,,,,,,,,,,,
,,"[""period""]",0,[0.4660000000000082],38,0,38,0,1,5f1b2fe23bcef80c38d2a362,25,Kobieta,2022-06-04_08h29.28.176,task,2021.1.4,Win32,59.94485074,628b806c463b948bc644b84f,629afaaf6df5dd777645c0e7,,,,,,,,,,,,,,,,,,,,,,,,,,,,,,,,,,,,,,,,,,,,,,,,,,,,,,,,,,,,,,,,,,,,,,,,,,,,,,,,,,,,,,,,,,,,,,,,,,,,,,,
,,"[""comma""]",0,[0.43200000000001637],39,0,39,0,1,5f1b2fe23bcef80c38d2a362,25,Kobieta,2022-06-04_08h29.28.176,task,2021.1.4,Win32,59.94485074,628b806c463b948bc644b84f,629afaaf6df5dd777645c0e7,,,,,,,,,,,,,,,,,,,,,,,,,,,,,,,,,,,,,,,,,,,,,,,,,,,,,,,,,,,,,,,,,,,,,,,,,,,,,,,,,,,,,,,,,,,,,,,,,,,,,,,
,,"[""comma""]",0,[1.0112999999970498],40,0,40,0,1,5f1b2fe23bcef80c38d2a362,25,Kobieta,2022-06-04_08h29.28.176,task,2021.1.4,Win32,59.94485074,628b806c463b948bc644b84f,629afaaf6df5dd777645c0e7,,,,,,,,,,,,,,,,,,,,,,,,,,,,,,,,,,,,,,,,,,,,,,,,,,,,,,,,,,,,,,,,,,,,,,,,,,,,,,,,,,,,,,,,,,,,,,,,,,,,,,,
,,"[""period""]",0,[1.8485000000000014],41,0,41,0,1,5f1b2fe23bcef80c38d2a362,25,Kobieta,2022-06-04_08h29.28.176,task,2021.1.4,Win32,59.94485074,628b806c463b948bc644b84f,629afaaf6df5dd777645c0e7,,,,,,,,,,,,,,,,,,,,,,,,,,,,,,,,,,,,,,,,,,,,,,,,,,,,,,,,,,,,,,,,,,,,,,,,,,,,,,,,,,,,,,,,,,,,,,,,,,,,,,,
,,,0,,42,0,42,0,1,5f1b2fe23bcef80c38d2a362,25,Kobieta,2022-06-04_08h29.28.176,task,2021.1.4,Win32,59.94485074,628b806c463b948bc644b84f,629afaaf6df5dd777645c0e7,,,,,,,,,,,,,,,,,,,,,,,,,,,,,,,,,,,,,,,,,,,,,,,,,,,,,,,,,,,,,,,,,,,,,,,,,,,,,,,,,,,,,,,,,,,,,,,,,,,,,,,
,,"[""period""]",0,[0.4109000000059382],43,0,43,0,1,5f1b2fe23bcef80c38d2a362,25,Kobieta,2022-06-04_08h29.28.176,task,2021.1.4,Win32,59.94485074,628b806c463b948bc644b84f,629afaaf6df5dd777645c0e7,,,,,,,,,,,,,,,,,,,,,,,,,,,,,,,,,,,,,,,,,,,,,,,,,,,,,,,,,,,,,,,,,,,,,,,,,,,,,,,,,,,,,,,,,,,,,,,,,,,,,,,
,,"[""period""]",0,[1.0487000000029525],44,0,44,0,1,5f1b2fe23bcef80c38d2a362,25,Kobieta,2022-06-04_08h29.28.176,task,2021.1.4,Win32,59.94485074,628b806c463b948bc644b84f,629afaaf6df5dd777645c0e7,,,,,,,,,,,,,,,,,,,,,,,,,,,,,,,,,,,,,,,,,,,,,,,,,,,,,,,,,,,,,,,,,,,,,,,,,,,,,,,,,,,,,,,,,,,,,,,,,,,,,,,
,,"[""comma""]",0,[1.0670000000000073],45,0,45,0,1,5f1b2fe23bcef80c38d2a362,25,Kobieta,2022-06-04_08h29.28.176,task,2021.1.4,Win32,59.94485074,628b806c463b948bc644b84f,629afaaf6df5dd777645c0e7,,,,,,,,,,,,,,,,,,,,,,,,,,,,,,,,,,,,,,,,,,,,,,,,,,,,,,,,,,,,,,,,,,,,,,,,,,,,,,,,,,,,,,,,,,,,,,,,,,,,,,,
,,"[""comma""]",0,[1.0479000000059955],46,0,46,0,1,5f1b2fe23bcef80c38d2a362,25,Kobieta,2022-06-04_08h29.28.176,task,2021.1.4,Win32,59.94485074,628b806c463b948bc644b84f,629afaaf6df5dd777645c0e7,,,,,,,,,,,,,,,,,,,,,,,,,,,,,,,,,,,,,,,,,,,,,,,,,,,,,,,,,,,,,,,,,,,,,,,,,,,,,,,,,,,,,,,,,,,,,,,,,,,,,,,
,,"[""period""]",0,[1.0830000000000268],47,0,47,0,1,5f1b2fe23bcef80c38d2a362,25,Kobieta,2022-06-04_08h29.28.176,task,2021.1.4,Win32,59.94485074,628b806c463b948bc644b84f,629afaaf6df5dd777645c0e7,,,,,,,,,,,,,,,,,,,,,,,,,,,,,,,,,,,,,,,,,,,,,,,,,,,,,,,,,,,,,,,,,,,,,,,,,,,,,,,,,,,,,,,,,,,,,,,,,,,,,,,
,,,0,,48,0,48,0,1,5f1b2fe23bcef80c38d2a362,25,Kobieta,2022-06-04_08h29.28.176,task,2021.1.4,Win32,59.94485074,628b806c463b948bc644b84f,629afaaf6df5dd777645c0e7,,,,,,,,,,,,,,,,,,,,,,,,,,,,,,,,,,,,,,,,,,,,,,,,,,,,,,,,,,,,,,,,,,,,,,,,,,,,,,,,,,,,,,,,,,,,,,,,,,,,,,,
,,"[""comma""]",0,[0.3854999999999791],49,0,49,0,1,5f1b2fe23bcef80c38d2a362,25,Kobieta,2022-06-04_08h29.28.176,task,2021.1.4,Win32,59.94485074,628b806c463b948bc644b84f,629afaaf6df5dd777645c0e7,,,,,,,,,,,,,,,,,,,,,,,,,,,,,,,,,,,,,,,,,,,,,,,,,,,,,,,,,,,,,,,,,,,,,,,,,,,,,,,,,,,,,,,,,,,,,,,,,,,,,,,
,,"[""comma""]",0,[0.6524000000059686],50,0,50,0,1,5f1b2fe23bcef80c38d2a362,25,Kobieta,2022-06-04_08h29.28.176,task,2021.1.4,Win32,59.94485074,628b806c463b948bc644b84f,629afaaf6df5dd777645c0e7,,,,,,,,,,,,,,,,,,,,,,,,,,,,,,,,,,,,,,,,,,,,,,,,,,,,,,,,,,,,,,,,,,,,,,,,,,,,,,,,,,,,,,,,,,,,,,,,,,,,,,,
,,"[""period""]",0,[0.4421999999880768],51,0,51,0,1,5f1b2fe23bcef80c38d2a362,25,Kobieta,2022-06-04_08h29.28.176,task,2021.1.4,Win32,59.94485074,628b806c463b948bc644b84f,629afaaf6df5dd777645c0e7,,,,,,,,,,,,,,,,,,,,,,,,,,,,,,,,,,,,,,,,,,,,,,,,,,,,,,,,,,,,,,,,,,,,,,,,,,,,,,,,,,,,,,,,,,,,,,,,,,,,,,,
,,"[""comma""]",0,[0.42129999999701795],52,0,52,0,1,5f1b2fe23bcef80c38d2a362,25,Kobieta,2022-06-04_08h29.28.176,task,2021.1.4,Win32,59.94485074,628b806c463b948bc644b84f,629afaaf6df5dd777645c0e7,,,,,,,,,,,,,,,,,,,,,,,,,,,,,,,,,,,,,,,,,,,,,,,,,,,,,,,,,,,,,,,,,,,,,,,,,,,,,,,,,,,,,,,,,,,,,,,,,,,,,,,
,,"[""period""]",0,[0.743899999991072],53,0,53,0,1,5f1b2fe23bcef80c38d2a362,25,Kobieta,2022-06-04_08h29.28.176,task,2021.1.4,Win32,59.94485074,628b806c463b948bc644b84f,629afaaf6df5dd777645c0e7,,,,,,,,,,,,,,,,,,,,,,,,,,,,,,,,,,,,,,,,,,,,,,,,,,,,,,,,,,,,,,,,,,,,,,,,,,,,,,,,,,,,,,,,,,,,,,,,,,,,,,,
,,"[""period""]",0,[0.7074999999999818],54,0,54,0,1,5f1b2fe23bcef80c38d2a362,25,Kobieta,2022-06-04_08h29.28.176,task,2021.1.4,Win32,59.94485074,628b806c463b948bc644b84f,629afaaf6df5dd777645c0e7,,,,,,,,,,,,,,,,,,,,,,,,,,,,,,,,,,,,,,,,,,,,,,,,,,,,,,,,,,,,,,,,,,,,,,,,,,,,,,,,,,,,,,,,,,,,,,,,,,,,,,,
,,"[""comma""]",0,[0.3882999999970025],55,0,55,0,1,5f1b2fe23bcef80c38d2a362,25,Kobieta,2022-06-04_08h29.28.176,task,2021.1.4,Win32,59.94485074,628b806c463b948bc644b84f,629afaaf6df5dd777645c0e7,,,,,,,,,,,,,,,,,,,,,,,,,,,,,,,,,,,,,,,,,,,,,,,,,,,,,,,,,,,,,,,,,,,,,,,,,,,,,,,,,,,,,,,,,,,,,,,,,,,,,,,
,,"[""period""]",0,[0.4247000000029857],56,0,56,0,1,5f1b2fe23bcef80c38d2a362,25,Kobieta,2022-06-04_08h29.28.176,task,2021.1.4,Win32,59.94485074,628b806c463b948bc644b84f,629afaaf6df5dd777645c0e7,,,,,,,,,,,,,,,,,,,,,,,,,,,,,,,,,,,,,,,,,,,,,,,,,,,,,,,,,,,,,,,,,,,,,,,,,,,,,,,,,,,,,,,,,,,,,,,,,,,,,,,
,,"[""comma""]",0,[0.5535000000000423],57,0,57,0,1,5f1b2fe23bcef80c38d2a362,25,Kobieta,2022-06-04_08h29.28.176,task,2021.1.4,Win32,59.94485074,628b806c463b948bc644b84f,629afaaf6df5dd777645c0e7,,,,,,,,,,,,,,,,,,,,,,,,,,,,,,,,,,,,,,,,,,,,,,,,,,,,,,,,,,,,,,,,,,,,,,,,,,,,,,,,,,,,,,,,,,,,,,,,,,,,,,,
,,"[""period""]",0,[0.9263000000119632],58,0,58,0,1,5f1b2fe23bcef80c38d2a362,25,Kobieta,2022-06-04_08h29.28.176,task,2021.1.4,Win32,59.94485074,628b806c463b948bc644b84f,629afaaf6df5dd777645c0e7,,,,,,,,,,,,,,,,,,,,,,,,,,,,,,,,,,,,,,,,,,,,,,,,,,,,,,,,,,,,,,,,,,,,,,,,,,,,,,,,,,,,,,,,,,,,,,,,,,,,,,,
,,"[""comma""]",0,[0.9572999999970193],59,0,59,0,1,5f1b2fe23bcef80c38d2a362,25,Kobieta,2022-06-04_08h29.28.176,task,2021.1.4,Win32,59.94485074,628b806c463b948bc644b84f,629afaaf6df5dd777645c0e7,,,,,,,,,,,,,,,,,,,,,,,,,,,,,,,,,,,,,,,,,,,,,,,,,,,,,,,,,,,,,,,,,,,,,,,,,,,,,,,,,,,,,,,,,,,,,,,,,,,,,,,
,,"[""comma""]",0,[1.069500000000005],60,0,60,0,1,5f1b2fe23bcef80c38d2a362,25,Kobieta,2022-06-04_08h29.28.176,task,2021.1.4,Win32,59.94485074,628b806c463b948bc644b84f,629afaaf6df5dd777645c0e7,,,,,,,,,,,,,,,,,,,,,,,,,,,,,,,,,,,,,,,,,,,,,,,,,,,,,,,,,,,,,,,,,,,,,,,,,,,,,,,,,,,,,,,,,,,,,,,,,,,,,,,
,,"[""comma""]",0,[1.1401000000089425],61,0,61,0,1,5f1b2fe23bcef80c38d2a362,25,Kobieta,2022-06-04_08h29.28.176,task,2021.1.4,Win32,59.94485074,628b806c463b948bc644b84f,629afaaf6df5dd777645c0e7,,,,,,,,,,,,,,,,,,,,,,,,,,,,,,,,,,,,,,,,,,,,,,,,,,,,,,,,,,,,,,,,,,,,,,,,,,,,,,,,,,,,,,,,,,,,,,,,,,,,,,,
,,"[""period""]",0,[1.009599999994009],62,0,62,0,1,5f1b2fe23bcef80c38d2a362,25,Kobieta,2022-06-04_08h29.28.176,task,2021.1.4,Win32,59.94485074,628b806c463b948bc644b84f,629afaaf6df5dd777645c0e7,,,,,,,,,,,,,,,,,,,,,,,,,,,,,,,,,,,,,,,,,,,,,,,,,,,,,,,,,,,,,,,,,,,,,,,,,,,,,,,,,,,,,,,,,,,,,,,,,,,,,,,
,,,0,,63,0,63,0,1,5f1b2fe23bcef80c38d2a362,25,Kobieta,2022-06-04_08h29.28.176,task,2021.1.4,Win32,59.94485074,628b806c463b948bc644b84f,629afaaf6df5dd777645c0e7,,,,,,,,,,,,,,,,,,,,,,,,,,,,,,,,,,,,,,,,,,,,,,,,,,,,,,,,,,,,,,,,,,,,,,,,,,,,,,,,,,,,,,,,,,,,,,,,,,,,,,,
,,"[""comma""]",0,[0.32580000001189546],64,0,64,0,1,5f1b2fe23bcef80c38d2a362,25,Kobieta,2022-06-04_08h29.28.176,task,2021.1.4,Win32,59.94485074,628b806c463b948bc644b84f,629afaaf6df5dd777645c0e7,,,,,,,,,,,,,,,,,,,,,,,,,,,,,,,,,,,,,,,,,,,,,,,,,,,,,,,,,,,,,,,,,,,,,,,,,,,,,,,,,,,,,,,,,,,,,,,,,,,,,,,
,,"[""period""]",0,[0.8374000000059709],65,0,65,0,1,5f1b2fe23bcef80c38d2a362,25,Kobieta,2022-06-04_08h29.28.176,task,2021.1.4,Win32,59.94485074,628b806c463b948bc644b84f,629afaaf6df5dd777645c0e7,,,,,,,,,,,,,,,,,,,,,,,,,,,,,,,,,,,,,,,,,,,,,,,,,,,,,,,,,,,,,,,,,,,,,,,,,,,,,,,,,,,,,,,,,,,,,,,,,,,,,,,
,,"[""period""]",0,[0.9105000000000132],66,0,66,0,1,5f1b2fe23bcef80c38d2a362,25,Kobieta,2022-06-04_08h29.28.176,task,2021.1.4,Win32,59.94485074,628b806c463b948bc644b84f,629afaaf6df5dd777645c0e7,,,,,,,,,,,,,,,,,,,,,,,,,,,,,,,,,,,,,,,,,,,,,,,,,,,,,,,,,,,,,,,,,,,,,,,,,,,,,,,,,,,,,,,,,,,,,,,,,,,,,,,
,,"[""period""]",0,[0.5486000000089462],67,0,67,0,1,5f1b2fe23bcef80c38d2a362,25,Kobieta,2022-06-04_08h29.28.176,task,2021.1.4,Win32,59.94485074,628b806c463b948bc644b84f,629afaaf6df5dd777645c0e7,,,,,,,,,,,,,,,,,,,,,,,,,,,,,,,,,,,,,,,,,,,,,,,,,,,,,,,,,,,,,,,,,,,,,,,,,,,,,,,,,,,,,,,,,,,,,,,,,,,,,,,
,,"[""comma""]",0,[0.3829000000059182],68,0,68,0,1,5f1b2fe23bcef80c38d2a362,25,Kobieta,2022-06-04_08h29.28.176,task,2021.1.4,Win32,59.94485074,628b806c463b948bc644b84f,629afaaf6df5dd777645c0e7,,,,,,,,,,,,,,,,,,,,,,,,,,,,,,,,,,,,,,,,,,,,,,,,,,,,,,,,,,,,,,,,,,,,,,,,,,,,,,,,,,,,,,,,,,,,,,,,,,,,,,,
,,"[""comma""]",0,[0.49329999999696383],69,0,69,0,1,5f1b2fe23bcef80c38d2a362,25,Kobieta,2022-06-04_08h29.28.176,task,2021.1.4,Win32,59.94485074,628b806c463b948bc644b84f,629afaaf6df5dd777645c0e7,,,,,,,,,,,,,,,,,,,,,,,,,,,,,,,,,,,,,,,,,,,,,,,,,,,,,,,,,,,,,,,,,,,,,,,,,,,,,,,,,,,,,,,,,,,,,,,,,,,,,,,
,,"[""comma""]",0,[0.7934999999999945],70,0,70,0,1,5f1b2fe23bcef80c38d2a362,25,Kobieta,2022-06-04_08h29.28.176,task,2021.1.4,Win32,59.94485074,628b806c463b948bc644b84f,629afaaf6df5dd777645c0e7,,,,,,,,,,,,,,,,,,,,,,,,,,,,,,,,,,,,,,,,,,,,,,,,,,,,,,,,,,,,,,,,,,,,,,,,,,,,,,,,,,,,,,,,,,,,,,,,,,,,,,,
,,"[""period""]",0,[0.7139999999999986],71,0,71,0,1,5f1b2fe23bcef80c38d2a362,25,Kobieta,2022-06-04_08h29.28.176,task,2021.1.4,Win32,59.94485074,628b806c463b948bc644b84f,629afaaf6df5dd777645c0e7,,,,,,,,,,,,,,,,,,,,,,,,,,,,,,,,,,,,,,,,,,,,,,,,,,,,,,,,,,,,,,,,,,,,,,,,,,,,,,,,,,,,,,,,,,,,,,,,,,,,,,,
,,"[""period""]",0,[0.5507999999970252],72,0,72,0,1,5f1b2fe23bcef80c38d2a362,25,Kobieta,2022-06-04_08h29.28.176,task,2021.1.4,Win32,59.94485074,628b806c463b948bc644b84f,629afaaf6df5dd777645c0e7,,,,,,,,,,,,,,,,,,,,,,,,,,,,,,,,,,,,,,,,,,,,,,,,,,,,,,,,,,,,,,,,,,,,,,,,,,,,,,,,,,,,,,,,,,,,,,,,,,,,,,,
,,"[""comma""]",0,[0.3665999999940368],73,0,73,0,1,5f1b2fe23bcef80c38d2a362,25,Kobieta,2022-06-04_08h29.28.176,task,2021.1.4,Win32,59.94485074,628b806c463b948bc644b84f,629afaaf6df5dd777645c0e7,,,,,,,,,,,,,,,,,,,,,,,,,,,,,,,,,,,,,,,,,,,,,,,,,,,,,,,,,,,,,,,,,,,,,,,,,,,,,,,,,,,,,,,,,,,,,,,,,,,,,,,
,,"[""period""]",0,[0.32780000001196186],74,0,74,0,1,5f1b2fe23bcef80c38d2a362,25,Kobieta,2022-06-04_08h29.28.176,task,2021.1.4,Win32,59.94485074,628b806c463b948bc644b84f,629afaaf6df5dd777645c0e7,,,,,,,,,,,,,,,,,,,,,,,,,,,,,,,,,,,,,,,,,,,,,,,,,,,,,,,,,,,,,,,,,,,,,,,,,,,,,,,,,,,,,,,,,,,,,,,,,,,,,,,
,,"[""period""]",0,[0.32759999999404954],75,0,75,0,1,5f1b2fe23bcef80c38d2a362,25,Kobieta,2022-06-04_08h29.28.176,task,2021.1.4,Win32,59.94485074,628b806c463b948bc644b84f,629afaaf6df5dd777645c0e7,,,,,,,,,,,,,,,,,,,,,,,,,,,,,,,,,,,,,,,,,,,,,,,,,,,,,,,,,,,,,,,,,,,,,,,,,,,,,,,,,,,,,,,,,,,,,,,,,,,,,,,
,,"[""comma""]",0,[0.34850000000000136],76,0,76,0,1,5f1b2fe23bcef80c38d2a362,25,Kobieta,2022-06-04_08h29.28.176,task,2021.1.4,Win32,59.94485074,628b806c463b948bc644b84f,629afaaf6df5dd777645c0e7,,,,,,,,,,,,,,,,,,,,,,,,,,,,,,,,,,,,,,,,,,,,,,,,,,,,,,,,,,,,,,,,,,,,,,,,,,,,,,,,,,,,,,,,,,,,,,,,,,,,,,,
,,"[""period""]",0,[0.32730000001191684],77,0,77,0,1,5f1b2fe23bcef80c38d2a362,25,Kobieta,2022-06-04_08h29.28.176,task,2021.1.4,Win32,59.94485074,628b806c463b948bc644b84f,629afaaf6df5dd777645c0e7,,,,,,,,,,,,,,,,,,,,,,,,,,,,,,,,,,,,,,,,,,,,,,,,,,,,,,,,,,,,,,,,,,,,,,,,,,,,,,,,,,,,,,,,,,,,,,,,,,,,,,,
,,"[""comma""]",0,[0.3001999999880809],78,0,78,0,1,5f1b2fe23bcef80c38d2a362,25,Kobieta,2022-06-04_08h29.28.176,task,2021.1.4,Win32,59.94485074,628b806c463b948bc644b84f,629afaaf6df5dd777645c0e7,,,,,,,,,,,,,,,,,,,,,,,,,,,,,,,,,,,,,,,,,,,,,,,,,,,,,,,,,,,,,,,,,,,,,,,,,,,,,,,,,,,,,,,,,,,,,,,,,,,,,,,
,,"[""period""]",0,[0.46559999999402635],79,0,79,0,1,5f1b2fe23bcef80c38d2a362,25,Kobieta,2022-06-04_08h29.28.176,task,2021.1.4,Win32,59.94485074,628b806c463b948bc644b84f,629afaaf6df5dd777645c0e7,,,,,,,,,,,,,,,,,,,,,,,,,,,,,,,,,,,,,,,,,,,,,,,,,,,,,,,,,,,,,,,,,,,,,,,,,,,,,,,,,,,,,,,,,,,,,,,,,,,,,,,
,,"[""comma""]",0,[0.3860000000000241],80,0,80,0,1,5f1b2fe23bcef80c38d2a362,25,Kobieta,2022-06-04_08h29.28.176,task,2021.1.4,Win32,59.94485074,628b806c463b948bc644b84f,629afaaf6df5dd777645c0e7,,,,,,,,,,,,,,,,,,,,,,,,,,,,,,,,,,,,,,,,,,,,,,,,,,,,,,,,,,,,,,,,,,,,,,,,,,,,,,,,,,,,,,,,,,,,,,,,,,,,,,,
,,"[""period""]",0,[0.32609999999402817],81,0,81,0,1,5f1b2fe23bcef80c38d2a362,25,Kobieta,2022-06-04_08h29.28.176,task,2021.1.4,Win32,59.94485074,628b806c463b948bc644b84f,629afaaf6df5dd777645c0e7,,,,,,,,,,,,,,,,,,,,,,,,,,,,,,,,,,,,,,,,,,,,,,,,,,,,,,,,,,,,,,,,,,,,,,,,,,,,,,,,,,,,,,,,,,,,,,,,,,,,,,,
,,"[""comma""]",0,[0.3449000000059641],82,0,82,0,1,5f1b2fe23bcef80c38d2a362,25,Kobieta,2022-06-04_08h29.28.176,task,2021.1.4,Win32,59.94485074,628b806c463b948bc644b84f,629afaaf6df5dd777645c0e7,,,,,,,,,,,,,,,,,,,,,,,,,,,,,,,,,,,,,,,,,,,,,,,,,,,,,,,,,,,,,,,,,,,,,,,,,,,,,,,,,,,,,,,,,,,,,,,,,,,,,,,
,,"[""period""]",0,[0.30490000000594364],83,0,83,0,1,5f1b2fe23bcef80c38d2a362,25,Kobieta,2022-06-04_08h29.28.176,task,2021.1.4,Win32,59.94485074,628b806c463b948bc644b84f,629afaaf6df5dd777645c0e7,,,,,,,,,,,,,,,,,,,,,,,,,,,,,,,,,,,,,,,,,,,,,,,,,,,,,,,,,,,,,,,,,,,,,,,,,,,,,,,,,,,,,,,,,,,,,,,,,,,,,,,
,,"[""comma""]",0,[0.32749999999998636],84,0,84,0,1,5f1b2fe23bcef80c38d2a362,25,Kobieta,2022-06-04_08h29.28.176,task,2021.1.4,Win32,59.94485074,628b806c463b948bc644b84f,629afaaf6df5dd777645c0e7,,,,,,,,,,,,,,,,,,,,,,,,,,,,,,,,,,,,,,,,,,,,,,,,,,,,,,,,,,,,,,,,,,,,,,,,,,,,,,,,,,,,,,,,,,,,,,,,,,,,,,,
,,"[""comma""]",0,[0.2617000000029748],85,0,85,0,1,5f1b2fe23bcef80c38d2a362,25,Kobieta,2022-06-04_08h29.28.176,task,2021.1.4,Win32,59.94485074,628b806c463b948bc644b84f,629afaaf6df5dd777645c0e7,,,,,,,,,,,,,,,,,,,,,,,,,,,,,,,,,,,,,,,,,,,,,,,,,,,,,,,,,,,,,,,,,,,,,,,,,,,,,,,,,,,,,,,,,,,,,,,,,,,,,,,
,,"[""comma""]",0,[0.27649999999999864],86,0,86,0,1,5f1b2fe23bcef80c38d2a362,25,Kobieta,2022-06-04_08h29.28.176,task,2021.1.4,Win32,59.94485074,628b806c463b948bc644b84f,629afaaf6df5dd777645c0e7,,,,,,,,,,,,,,,,,,,,,,,,,,,,,,,,,,,,,,,,,,,,,,,,,,,,,,,,,,,,,,,,,,,,,,,,,,,,,,,,,,,,,,,,,,,,,,,,,,,,,,,
,,"[""comma""]",0,[0.2967999999970061],87,0,87,0,1,5f1b2fe23bcef80c38d2a362,25,Kobieta,2022-06-04_08h29.28.176,task,2021.1.4,Win32,59.94485074,628b806c463b948bc644b84f,629afaaf6df5dd777645c0e7,,,,,,,,,,,,,,,,,,,,,,,,,,,,,,,,,,,,,,,,,,,,,,,,,,,,,,,,,,,,,,,,,,,,,,,,,,,,,,,,,,,,,,,,,,,,,,,,,,,,,,,
,,"[""period""]",0,[0.13379999999705205],88,0,88,0,1,5f1b2fe23bcef80c38d2a362,25,Kobieta,2022-06-04_08h29.28.176,task,2021.1.4,Win32,59.94485074,628b806c463b948bc644b84f,629afaaf6df5dd777645c0e7,,,,,,,,,,,,,,,,,,,,,,,,,,,,,,,,,,,,,,,,,,,,,,,,,,,,,,,,,,,,,,,,,,,,,,,,,,,,,,,,,,,,,,,,,,,,,,,,,,,,,,,
,,"[""comma""]",0,[0.1434000000059541],89,0,89,0,1,5f1b2fe23bcef80c38d2a362,25,Kobieta,2022-06-04_08h29.28.176,task,2021.1.4,Win32,59.94485074,628b806c463b948bc644b84f,629afaaf6df5dd777645c0e7,,,,,,,,,,,,,,,,,,,,,,,,,,,,,,,,,,,,,,,,,,,,,,,,,,,,,,,,,,,,,,,,,,,,,,,,,,,,,,,,,,,,,,,,,,,,,,,,,,,,,,,
,,"[""comma""]",0,[0.2997000000029857],90,0,90,0,1,5f1b2fe23bcef80c38d2a362,25,Kobieta,2022-06-04_08h29.28.176,task,2021.1.4,Win32,59.94485074,628b806c463b948bc644b84f,629afaaf6df5dd777645c0e7,,,,,,,,,,,,,,,,,,,,,,,,,,,,,,,,,,,,,,,,,,,,,,,,,,,,,,,,,,,,,,,,,,,,,,,,,,,,,,,,,,,,,,,,,,,,,,,,,,,,,,,
,,"[""period""]",0,[0.32499999999998863],91,0,91,0,1,5f1b2fe23bcef80c38d2a362,25,Kobieta,2022-06-04_08h29.28.176,task,2021.1.4,Win32,59.94485074,628b806c463b948bc644b84f,629afaaf6df5dd777645c0e7,,,,,,,,,,,,,,,,,,,,,,,,,,,,,,,,,,,,,,,,,,,,,,,,,,,,,,,,,,,,,,,,,,,,,,,,,,,,,,,,,,,,,,,,,,,,,,,,,,,,,,,
,,"[""period""]",0,[0.3197999999970307],92,0,92,0,1,5f1b2fe23bcef80c38d2a362,25,Kobieta,2022-06-04_08h29.28.176,task,2021.1.4,Win32,59.94485074,628b806c463b948bc644b84f,629afaaf6df5dd777645c0e7,,,,,,,,,,,,,,,,,,,,,,,,,,,,,,,,,,,,,,,,,,,,,,,,,,,,,,,,,,,,,,,,,,,,,,,,,,,,,,,,,,,,,,,,,,,,,,,,,,,,,,,
,,"[""period""]",0,[0.8003999999910434],93,0,93,0,1,5f1b2fe23bcef80c38d2a362,25,Kobieta,2022-06-04_08h29.28.176,task,2021.1.4,Win32,59.94485074,628b806c463b948bc644b84f,629afaaf6df5dd777645c0e7,,,,,,,,,,,,,,,,,,,,,,,,,,,,,,,,,,,,,,,,,,,,,,,,,,,,,,,,,,,,,,,,,,,,,,,,,,,,,,,,,,,,,,,,,,,,,,,,,,,,,,,
,,"[""comma""]",0,[0.7172000000030039],94,0,94,0,1,5f1b2fe23bcef80c38d2a362,25,Kobieta,2022-06-04_08h29.28.176,task,2021.1.4,Win32,59.94485074,628b806c463b948bc644b84f,629afaaf6df5dd777645c0e7,,,,,,,,,,,,,,,,,,,,,,,,,,,,,,,,,,,,,,,,,,,,,,,,,,,,,,,,,,,,,,,,,,,,,,,,,,,,,,,,,,,,,,,,,,,,,,,,,,,,,,,
,,"[""comma""]",0,[0.32970000000301525],95,0,95,0,1,5f1b2fe23bcef80c38d2a362,25,Kobieta,2022-06-04_08h29.28.176,task,2021.1.4,Win32,59.94485074,628b806c463b948bc644b84f,629afaaf6df5dd777645c0e7,,,,,,,,,,,,,,,,,,,,,,,,,,,,,,,,,,,,,,,,,,,,,,,,,,,,,,,,,,,,,,,,,,,,,,,,,,,,,,,,,,,,,,,,,,,,,,,,,,,,,,,
,,"[""comma""]",0,[0.6962000000029889],96,0,96,0,1,5f1b2fe23bcef80c38d2a362,25,Kobieta,2022-06-04_08h29.28.176,task,2021.1.4,Win32,59.94485074,628b806c463b948bc644b84f,629afaaf6df5dd777645c0e7,,,,,,,,,,,,,,,,,,,,,,,,,,,,,,,,,,,,,,,,,,,,,,,,,,,,,,,,,,,,,,,,,,,,,,,,,,,,,,,,,,,,,,,,,,,,,,,,,,,,,,,
,,"[""period"",""period""]",0,"[0.2161999999880777,0.5193999999910943]",97,0,97,0,1,5f1b2fe23bcef80c38d2a362,25,Kobieta,2022-06-04_08h29.28.176,task,2021.1.4,Win32,59.94485074,628b806c463b948bc644b84f,629afaaf6df5dd777645c0e7,,,,,,,,,,,,,,,,,,,,,,,,,,,,,,,,,,,,,,,,,,,,,,,,,,,,,,,,,,,,,,,,,,,,,,,,,,,,,,,,,,,,,,,,,,,,,,,,,,,,,,,
,,"[""period""]",0,[0.8290000000000077],98,0,98,0,1,5f1b2fe23bcef80c38d2a362,25,Kobieta,2022-06-04_08h29.28.176,task,2021.1.4,Win32,59.94485074,628b806c463b948bc644b84f,629afaaf6df5dd777645c0e7,,,,,,,,,,,,,,,,,,,,,,,,,,,,,,,,,,,,,,,,,,,,,,,,,,,,,,,,,,,,,,,,,,,,,,,,,,,,,,,,,,,,,,,,,,,,,,,,,,,,,,,
,,"[""comma""]",0,[1.007000000000005],99,0,99,0,1,5f1b2fe23bcef80c38d2a362,25,Kobieta,2022-06-04_08h29.28.176,task,2021.1.4,Win32,59.94485074,628b806c463b948bc644b84f,629afaaf6df5dd777645c0e7,,,,,,,,,,,,,,,,,,,,,,,,,,,,,,,,,,,,,,,,,,,,,,,,,,,,,,,,,,,,,,,,,,,,,,,,,,,,,,,,,,,,,,,,,,,,,,,,,,,,,,,
,,"[""period""]",0,[0.28929999999701295],100,0,100,0,1,5f1b2fe23bcef80c38d2a362,25,Kobieta,2022-06-04_08h29.28.176,task,2021.1.4,Win32,59.94485074,628b806c463b948bc644b84f,629afaaf6df5dd777645c0e7,,,,,,,,,,,,,,,,,,,,,,,,,,,,,,,,,,,,,,,,,,,,,,,,,,,,,,,,,,,,,,,,,,,,,,,,,,,,,,,,,,,,,,,,,,,,,,,,,,,,,,,
,,"[""comma""]",0,[0.27049999999997],101,0,101,0,1,5f1b2fe23bcef80c38d2a362,25,Kobieta,2022-06-04_08h29.28.176,task,2021.1.4,Win32,59.94485074,628b806c463b948bc644b84f,629afaaf6df5dd777645c0e7,,,,,,,,,,,,,,,,,,,,,,,,,,,,,,,,,,,,,,,,,,,,,,,,,,,,,,,,,,,,,,,,,,,,,,,,,,,,,,,,,,,,,,,,,,,,,,,,,,,,,,,
,,"[""period""]",0,[0.30100000000004457],102,0,102,0,1,5f1b2fe23bcef80c38d2a362,25,Kobieta,2022-06-04_08h29.28.176,task,2021.1.4,Win32,59.94485074,628b806c463b948bc644b84f,629afaaf6df5dd777645c0e7,,,,,,,,,,,,,,,,,,,,,,,,,,,,,,,,,,,,,,,,,,,,,,,,,,,,,,,,,,,,,,,,,,,,,,,,,,,,,,,,,,,,,,,,,,,,,,,,,,,,,,,
,,"[""period""]",0,[0.2371000000089225],103,0,103,0,1,5f1b2fe23bcef80c38d2a362,25,Kobieta,2022-06-04_08h29.28.176,task,2021.1.4,Win32,59.94485074,628b806c463b948bc644b84f,629afaaf6df5dd777645c0e7,,,,,,,,,,,,,,,,,,,,,,,,,,,,,,,,,,,,,,,,,,,,,,,,,,,,,,,,,,,,,,,,,,,,,,,,,,,,,,,,,,,,,,,,,,,,,,,,,,,,,,,
,,"[""period""]",0,[0.409099999994055],104,0,104,0,1,5f1b2fe23bcef80c38d2a362,25,Kobieta,2022-06-04_08h29.28.176,task,2021.1.4,Win32,59.94485074,628b806c463b948bc644b84f,629afaaf6df5dd777645c0e7,,,,,,,,,,,,,,,,,,,,,,,,,,,,,,,,,,,,,,,,,,,,,,,,,,,,,,,,,,,,,,,,,,,,,,,,,,,,,,,,,,,,,,,,,,,,,,,,,,,,,,,
,,"[""comma""]",0,[0.32559999999404],105,0,105,0,1,5f1b2fe23bcef80c38d2a362,25,Kobieta,2022-06-04_08h29.28.176,task,2021.1.4,Win32,59.94485074,628b806c463b948bc644b84f,629afaaf6df5dd777645c0e7,,,,,,,,,,,,,,,,,,,,,,,,,,,,,,,,,,,,,,,,,,,,,,,,,,,,,,,,,,,,,,,,,,,,,,,,,,,,,,,,,,,,,,,,,,,,,,,,,,,,,,,
,,"[""period""]",0,[0.3845999999940659],106,0,106,0,1,5f1b2fe23bcef80c38d2a362,25,Kobieta,2022-06-04_08h29.28.176,task,2021.1.4,Win32,59.94485074,628b806c463b948bc644b84f,629afaaf6df5dd777645c0e7,,,,,,,,,,,,,,,,,,,,,,,,,,,,,,,,,,,,,,,,,,,,,,,,,,,,,,,,,,,,,,,,,,,,,,,,,,,,,,,,,,,,,,,,,,,,,,,,,,,,,,,
,,"[""comma""]",0,[0.661700000002952],107,0,107,0,1,5f1b2fe23bcef80c38d2a362,25,Kobieta,2022-06-04_08h29.28.176,task,2021.1.4,Win32,59.94485074,628b806c463b948bc644b84f,629afaaf6df5dd777645c0e7,,,,,,,,,,,,,,,,,,,,,,,,,,,,,,,,,,,,,,,,,,,,,,,,,,,,,,,,,,,,,,,,,,,,,,,,,,,,,,,,,,,,,,,,,,,,,,,,,,,,,,,
,,"[""comma""]",0,[1.7039000000059445],108,0,108,0,1,5f1b2fe23bcef80c38d2a362,25,Kobieta,2022-06-04_08h29.28.176,task,2021.1.4,Win32,59.94485074,628b806c463b948bc644b84f,629afaaf6df5dd777645c0e7,,,,,,,,,,,,,,,,,,,,,,,,,,,,,,,,,,,,,,,,,,,,,,,,,,,,,,,,,,,,,,,,,,,,,,,,,,,,,,,,,,,,,,,,,,,,,,,,,,,,,,,
,,,0,,109,0,109,0,1,5f1b2fe23bcef80c38d2a362,25,Kobieta,2022-06-04_08h29.28.176,task,2021.1.4,Win32,59.94485074,628b806c463b948bc644b84f,629afaaf6df5dd777645c0e7,,,,,,,,,,,,,,,,,,,,,,,,,,,,,,,,,,,,,,,,,,,,,,,,,,,,,,,,,,,,,,,,,,,,,,,,,,,,,,,,,,,,,,,,,,,,,,,,,,,,,,,
,,"[""comma""]",0,[0.2807999999970434],110,0,110,0,1,5f1b2fe23bcef80c38d2a362,25,Kobieta,2022-06-04_08h29.28.176,task,2021.1.4,Win32,59.94485074,628b806c463b948bc644b84f,629afaaf6df5dd777645c0e7,,,,,,,,,,,,,,,,,,,,,,,,,,,,,,,,,,,,,,,,,,,,,,,,,,,,,,,,,,,,,,,,,,,,,,,,,,,,,,,,,,,,,,,,,,,,,,,,,,,,,,,
,,"[""period""]",0,[0.1696000000089839],111,0,111,0,1,5f1b2fe23bcef80c38d2a362,25,Kobieta,2022-06-04_08h29.28.176,task,2021.1.4,Win32,59.94485074,628b806c463b948bc644b84f,629afaaf6df5dd777645c0e7,,,,,,,,,,,,,,,,,,,,,,,,,,,,,,,,,,,,,,,,,,,,,,,,,,,,,,,,,,,,,,,,,,,,,,,,,,,,,,,,,,,,,,,,,,,,,,,,,,,,,,,
,,"[""comma""]",0,[0.12570000000295067],112,0,112,0,1,5f1b2fe23bcef80c38d2a362,25,Kobieta,2022-06-04_08h29.28.176,task,2021.1.4,Win32,59.94485074,628b806c463b948bc644b84f,629afaaf6df5dd777645c0e7,,,,,,,,,,,,,,,,,,,,,,,,,,,,,,,,,,,,,,,,,,,,,,,,,,,,,,,,,,,,,,,,,,,,,,,,,,,,,,,,,,,,,,,,,,,,,,,,,,,,,,,
,,"[""period""]",0,[0.42200000000002547],113,0,113,0,1,5f1b2fe23bcef80c38d2a362,25,Kobieta,2022-06-04_08h29.28.176,task,2021.1.4,Win32,59.94485074,628b806c463b948bc644b84f,629afaaf6df5dd777645c0e7,,,,,,,,,,,,,,,,,,,,,,,,,,,,,,,,,,,,,,,,,,,,,,,,,,,,,,,,,,,,,,,,,,,,,,,,,,,,,,,,,,,,,,,,,,,,,,,,,,,,,,,
,,"[""comma""]",0,[0.5860999999940759],114,0,114,0,1,5f1b2fe23bcef80c38d2a362,25,Kobieta,2022-06-04_08h29.28.176,task,2021.1.4,Win32,59.94485074,628b806c463b948bc644b84f,629afaaf6df5dd777645c0e7,,,,,,,,,,,,,,,,,,,,,,,,,,,,,,,,,,,,,,,,,,,,,,,,,,,,,,,,,,,,,,,,,,,,,,,,,,,,,,,,,,,,,,,,,,,,,,,,,,,,,,,
,,"[""comma""]",0,[0.5529000000059341],115,0,115,0,1,5f1b2fe23bcef80c38d2a362,25,Kobieta,2022-06-04_08h29.28.176,task,2021.1.4,Win32,59.94485074,628b806c463b948bc644b84f,629afaaf6df5dd777645c0e7,,,,,,,,,,,,,,,,,,,,,,,,,,,,,,,,,,,,,,,,,,,,,,,,,,,,,,,,,,,,,,,,,,,,,,,,,,,,,,,,,,,,,,,,,,,,,,,,,,,,,,,
,,"[""period""]",0,[0.38470000000302207],116,0,116,0,1,5f1b2fe23bcef80c38d2a362,25,Kobieta,2022-06-04_08h29.28.176,task,2021.1.4,Win32,59.94485074,628b806c463b948bc644b84f,629afaaf6df5dd777645c0e7,,,,,,,,,,,,,,,,,,,,,,,,,,,,,,,,,,,,,,,,,,,,,,,,,,,,,,,,,,,,,,,,,,,,,,,,,,,,,,,,,,,,,,,,,,,,,,,,,,,,,,,
,,"[""comma""]",0,[0.26020000000301025],117,0,117,0,1,5f1b2fe23bcef80c38d2a362,25,Kobieta,2022-06-04_08h29.28.176,task,2021.1.4,Win32,59.94485074,628b806c463b948bc644b84f,629afaaf6df5dd777645c0e7,,,,,,,,,,,,,,,,,,,,,,,,,,,,,,,,,,,,,,,,,,,,,,,,,,,,,,,,,,,,,,,,,,,,,,,,,,,,,,,,,,,,,,,,,,,,,,,,,,,,,,,
,,"[""period""]",0,[0.33700000000004593],118,0,118,0,1,5f1b2fe23bcef80c38d2a362,25,Kobieta,2022-06-04_08h29.28.176,task,2021.1.4,Win32,59.94485074,628b806c463b948bc644b84f,629afaaf6df5dd777645c0e7,,,,,,,,,,,,,,,,,,,,,,,,,,,,,,,,,,,,,,,,,,,,,,,,,,,,,,,,,,,,,,,,,,,,,,,,,,,,,,,,,,,,,,,,,,,,,,,,,,,,,,,
,,"[""comma""]",0,[0.2607000000029984],119,0,119,0,1,5f1b2fe23bcef80c38d2a362,25,Kobieta,2022-06-04_08h29.28.176,task,2021.1.4,Win32,59.94485074,628b806c463b948bc644b84f,629afaaf6df5dd777645c0e7,,,,,,,,,,,,,,,,,,,,,,,,,,,,,,,,,,,,,,,,,,,,,,,,,,,,,,,,,,,,,,,,,,,,,,,,,,,,,,,,,,,,,,,,,,,,,,,,,,,,,,,
,,,,,,,,,,5f1b2fe23bcef80c38d2a362,25,Kobieta,2022-06-04_08h29.28.176,task,2021.1.4,Win32,59.94485074,628b806c463b948bc644b84f,629afaaf6df5dd777645c0e7,space,28.8683,space,11.4586,0,0,0,0,1,X V Q F H G B L J M P D K C T S W R N Z,,,,,,,,,,,,,,,,,,,,,,,,,,,,,,,,,,,,,,,,,,,,,,,,,,,,,,,,,,,,,,,,,,,,,,,,,,,,,,,,,,,,,,,,,,,,,
,,,,,,,,,,5f1b2fe23bcef80c38d2a362,25,Kobieta,2022-06-04_08h29.28.176,task,2021.1.4,Win32,59.94485074,628b806c463b948bc644b84f,629afaaf6df5dd777645c0e7,,,,,1,0,1,0,1,X V Q F H G B L J M P D K C T S W R N Z,,,,,,,,,,,,,,,,,,,,,,,,,,,,,,,,,,,,,,,,,,,,,,,,,,,,,,,,,,,,,,,,,,,,,,,,,,,,,,,,,,,,,,,,,,,,,
,,,,,,,,,,5f1b2fe23bcef80c38d2a362,25,Kobieta,2022-06-04_08h29.28.176,task,2021.1.4,Win32,59.94485074,628b806c463b948bc644b84f,629afaaf6df5dd777645c0e7,,,,,,,,,,,zm,"[""z"",""m""]","[3.534599999994043,4.537699999988092,8.09069999998809]",1,ZM,0,0,0,0,1,,,,,,,,,,,,,,,,,,,,,,,,,,,,,,,,,,,,,,,,,,,,,,,,,,,,,,,,,,,,,,,,,,,,,,,,,,,,,,,,,,,
,,,,,,,,,,5f1b2fe23bcef80c38d2a362,25,Kobieta,2022-06-04_08h29.28.176,task,2021.1.4,Win32,59.94485074,628b806c463b948bc644b84f,629afaaf6df5dd777645c0e7,,,,,0,0,0,0,1,X V Q F H G B L J M P D K C T S W R N Z,,,,,,,,,,,,,,,,,,,,,,,,,,,,,,,,,,,,,,,,,,,,,,,,,,,,,,,,,,,,,,,,,,,,,,,,,,,,,,,,,,,,,,,,,,,,,
,,,,,,,,,,5f1b2fe23bcef80c38d2a362,25,Kobieta,2022-06-04_08h29.28.176,task,2021.1.4,Win32,59.94485074,628b806c463b948bc644b84f,629afaaf6df5dd777645c0e7,,,,,1,0,1,0,1,X V Q F H G B L J M P D K C T S W R N Z,,,,,,,,,,,,,,,,,,,,,,,,,,,,,,,,,,,,,,,,,,,,,,,,,,,,,,,,,,,,,,,,,,,,,,,,,,,,,,,,,,,,,,,,,,,,,
,,,,,,,,,,5f1b2fe23bcef80c38d2a362,25,Kobieta,2022-06-04_08h29.28.176,task,2021.1.4,Win32,59.94485074,628b806c463b948bc644b84f,629afaaf6df5dd777645c0e7,,,,,,,,,,,pv,"[""p"",""v""]","[1.3250999999940518,1.789299999996956,2.550200000002974]",1,PV,1,0,1,0,1,,,,,,,,,,,,,,,,,,,,,,,,,,,,,,,,,,,,,,,,,,,,,,,,,,,,,,,,,,,,,,,,,,,,,,,,,,,,,,,,,,,
,,,,,,,,,,5f1b2fe23bcef80c38d2a362,25,Kobieta,2022-06-04_08h29.28.176,task,2021.1.4,Win32,59.94485074,628b806c463b948bc644b84f,629afaaf6df5dd777645c0e7,,,,,0,0,0,0,1,X V Q F H G B L J M P D K C T S W R N Z,,,,,,,,,,,,,,,,,,,,,,,,,,,,,,,,,,,,,,,,,,,,,,,,,,,,,,,,,,,,,,,,,,,,,,,,,,,,,,,,,,,,,,,,,,,,,
,,,,,,,,,,5f1b2fe23bcef80c38d2a362,25,Kobieta,2022-06-04_08h29.28.176,task,2021.1.4,Win32,59.94485074,628b806c463b948bc644b84f,629afaaf6df5dd777645c0e7,,,,,1,0,1,0,1,X V Q F H G B L J M P D K C T S W R N Z,,,,,,,,,,,,,,,,,,,,,,,,,,,,,,,,,,,,,,,,,,,,,,,,,,,,,,,,,,,,,,,,,,,,,,,,,,,,,,,,,,,,,,,,,,,,,
,,,,,,,,,,5f1b2fe23bcef80c38d2a362,25,Kobieta,2022-06-04_08h29.28.176,task,2021.1.4,Win32,59.94485074,628b806c463b948bc644b84f,629afaaf6df5dd777645c0e7,,,,,2,0,2,0,1,X V Q F H G B L J M P D K C T S W R N Z,,,,,,,,,,,,,,,,,,,,,,,,,,,,,,,,,,,,,,,,,,,,,,,,,,,,,,,,,,,,,,,,,,,,,,,,,,,,,,,,,,,,,,,,,,,,,
,,,,,,,,,,5f1b2fe23bcef80c38d2a362,25,Kobieta,2022-06-04_08h29.28.176,task,2021.1.4,Win32,59.94485074,628b806c463b948bc644b84f,629afaaf6df5dd777645c0e7,,,,,,,,,,,vpt,"[""v"",""p"",""t""]","[0.5377000000029284,0.9892999999970016,1.3664999999999736,2.1579000000059523]",1,VPT,2,0,2,0,1,,,,,,,,,,,,,,,,,,,,,,,,,,,,,,,,,,,,,,,,,,,,,,,,,,,,,,,,,,,,,,,,,,,,,,,,,,,,,,,,,,,
,,,,,,,,,,5f1b2fe23bcef80c38d2a362,25,Kobieta,2022-06-04_08h29.28.176,task,2021.1.4,Win32,59.94485074,628b806c463b948bc644b84f,629afaaf6df5dd777645c0e7,,,,,0,0,0,0,1,X V Q F H G B L J M P D K C T S W R N Z,,,,,,,,,,,,,,,,,,,,,,,,,,,,,,,,,,,,,,,,,,,,,,,,,,,,,,,,,,,,,,,,,,,,,,,,,,,,,,,,,,,,,,,,,,,,,
,,,,,,,,,,5f1b2fe23bcef80c38d2a362,25,Kobieta,2022-06-04_08h29.28.176,task,2021.1.4,Win32,59.94485074,628b806c463b948bc644b84f,629afaaf6df5dd777645c0e7,,,,,1,0,1,0,1,X V Q F H G B L J M P D K C T S W R N Z,,,,,,,,,,,,,,,,,,,,,,,,,,,,,,,,,,,,,,,,,,,,,,,,,,,,,,,,,,,,,,,,,,,,,,,,,,,,,,,,,,,,,,,,,,,,,
,,,,,,,,,,5f1b2fe23bcef80c38d2a362,25,Kobieta,2022-06-04_08h29.28.176,task,2021.1.4,Win32,59.94485074,628b806c463b948bc644b84f,629afaaf6df5dd777645c0e7,,,,,2,0,2,0,1,X V Q F H G B L J M P D K C T S W R N Z,,,,,,,,,,,,,,,,,,,,,,,,,,,,,,,,,,,,,,,,,,,,,,,,,,,,,,,,,,,,,,,,,,,,,,,,,,,,,,,,,,,,,,,,,,,,,
,,,,,,,,,,5f1b2fe23bcef80c38d2a362,25,Kobieta,2022-06-04_08h29.28.176,task,2021.1.4,Win32,59.94485074,628b806c463b948bc644b84f,629afaaf6df5dd777645c0e7,,,,,,,,,,,rfq,"[""r"",""f"",""q""]","[4.675700000002962,4.941100000008987,6.472800000011944,7.007900000005975]",1,RFQ,3,0,3,0,1,,,,,,,,,,,,,,,,,,,,,,,,,,,,,,,,,,,,,,,,,,,,,,,,,,,,,,,,,,,,,,,,,,,,,,,,,,,,,,,,,,,
,,,,,,,,,,5f1b2fe23bcef80c38d2a362,25,Kobieta,2022-06-04_08h29.28.176,task,2021.1.4,Win32,59.94485074,628b806c463b948bc644b84f,629afaaf6df5dd777645c0e7,,,,,0,0,0,0,1,X V Q F H G B L J M P D K C T S W R N Z,,,,,,,,,,,,,,,,,,,,,,,,,,,,,,,,,,,,,,,,,,,,,,,,,,,,,,,,,,,,,,,,,,,,,,,,,,,,,,,,,,,,,,,,,,,,,
,,,,,,,,,,5f1b2fe23bcef80c38d2a362,25,Kobieta,2022-06-04_08h29.28.176,task,2021.1.4,Win32,59.94485074,628b806c463b948bc644b84f,629afaaf6df5dd777645c0e7,,,,,1,0,1,0,1,X V Q F H G B L J M P D K C T S W R N Z,,,,,,,,,,,,,,,,,,,,,,,,,,,,,,,,,,,,,,,,,,,,,,,,,,,,,,,,,,,,,,,,,,,,,,,,,,,,,,,,,,,,,,,,,,,,,
,,,,,,,,,,5f1b2fe23bcef80c38d2a362,25,Kobieta,2022-06-04_08h29.28.176,task,2021.1.4,Win32,59.94485074,628b806c463b948bc644b84f,629afaaf6df5dd777645c0e7,,,,,2,0,2,0,1,X V Q F H G B L J M P D K C T S W R N Z,,,,,,,,,,,,,,,,,,,,,,,,,,,,,,,,,,,,,,,,,,,,,,,,,,,,,,,,,,,,,,,,,,,,,,,,,,,,,,,,,,,,,,,,,,,,,
,,,,,,,,,,5f1b2fe23bcef80c38d2a362,25,Kobieta,2022-06-04_08h29.28.176,task,2021.1.4,Win32,59.94485074,628b806c463b948bc644b84f,629afaaf6df5dd777645c0e7,,,,,3,0,3,0,1,X V Q F H G B L J M P D K C T S W R N Z,,,,,,,,,,,,,,,,,,,,,,,,,,,,,,,,,,,,,,,,,,,,,,,,,,,,,,,,,,,,,,,,,,,,,,,,,,,,,,,,,,,,,,,,,,,,,
,,,,,,,,,,5f1b2fe23bcef80c38d2a362,25,Kobieta,2022-06-04_08h29.28.176,task,2021.1.4,Win32,59.94485074,628b806c463b948bc644b84f,629afaaf6df5dd777645c0e7,,,,,,,,,,,csnq,"[""c"",""s"",""n"",""q""]","[0.5189000000059423,0.8155999999939922,1.400299999996946,1.7697999999969625,2.4839999999999236]",1,CSNQ,4,0,4,0,1,,,,,,,,,,,,,,,,,,,,,,,,,,,,,,,,,,,,,,,,,,,,,,,,,,,,,,,,,,,,,,,,,,,,,,,,,,,,,,,,,,,
,,,,,,,,,,5f1b2fe23bcef80c38d2a362,25,Kobieta,2022-06-04_08h29.28.176,task,2021.1.4,Win32,59.94485074,628b806c463b948bc644b84f,629afaaf6df5dd777645c0e7,,,,,0,0,0,0,1,X V Q F H G B L J M P D K C T S W R N Z,,,,,,,,,,,,,,,,,,,,,,,,,,,,,,,,,,,,,,,,,,,,,,,,,,,,,,,,,,,,,,,,,,,,,,,,,,,,,,,,,,,,,,,,,,,,,
,,,,,,,,,,5f1b2fe23bcef80c38d2a362,25,Kobieta,2022-06-04_08h29.28.176,task,2021.1.4,Win32,59.94485074,628b806c463b948bc644b84f,629afaaf6df5dd777645c0e7,,,,,1,0,1,0,1,X V Q F H G B L J M P D K C T S W R N Z,,,,,,,,,,,,,,,,,,,,,,,,,,,,,,,,,,,,,,,,,,,,,,,,,,,,,,,,,,,,,,,,,,,,,,,,,,,,,,,,,,,,,,,,,,,,,
,,,,,,,,,,5f1b2fe23bcef80c38d2a362,25,Kobieta,2022-06-04_08h29.28.176,task,2021.1.4,Win32,59.94485074,628b806c463b948bc644b84f,629afaaf6df5dd777645c0e7,,,,,2,0,2,0,1,X V Q F H G B L J M P D K C T S W R N Z,,,,,,,,,,,,,,,,,,,,,,,,,,,,,,,,,,,,,,,,,,,,,,,,,,,,,,,,,,,,,,,,,,,,,,,,,,,,,,,,,,,,,,,,,,,,,
,,,,,,,,,,5f1b2fe23bcef80c38d2a362,25,Kobieta,2022-06-04_08h29.28.176,task,2021.1.4,Win32,59.94485074,628b806c463b948bc644b84f,629afaaf6df5dd777645c0e7,,,,,3,0,3,0,1,X V Q F H G B L J M P D K C T S W R N Z,,,,,,,,,,,,,,,,,,,,,,,,,,,,,,,,,,,,,,,,,,,,,,,,,,,,,,,,,,,,,,,,,,,,,,,,,,,,,,,,,,,,,,,,,,,,,
,,,,,,,,,,5f1b2fe23bcef80c38d2a362,25,Kobieta,2022-06-04_08h29.28.176,task,2021.1.4,Win32,59.94485074,628b806c463b948bc644b84f,629afaaf6df5dd777645c0e7,,,,,,,,,,,fxwt,"[""f"",""x"",""w"",""t""]","[0.8909000000060132,1.1267000000029839,1.5308000000119364,1.842999999999961,2.304300000011949]",1,FXWT,5,0,5,0,1,,,,,,,,,,,,,,,,,,,,,,,,,,,,,,,,,,,,,,,,,,,,,,,,,,,,,,,,,,,,,,,,,,,,,,,,,,,,,,,,,,,
,,,,,,,,,,5f1b2fe23bcef80c38d2a362,25,Kobieta,2022-06-04_08h29.28.176,task,2021.1.4,Win32,59.94485074,628b806c463b948bc644b84f,629afaaf6df5dd777645c0e7,,,,,0,0,0,0,1,X V Q F H G B L J M P D K C T S W R N Z,,,,,,,,,,,,,,,,,,,,,,,,,,,,,,,,,,,,,,,,,,,,,,,,,,,,,,,,,,,,,,,,,,,,,,,,,,,,,,,,,,,,,,,,,,,,,
,,,,,,,,,,5f1b2fe23bcef80c38d2a362,25,Kobieta,2022-06-04_08h29.28.176,task,2021.1.4,Win32,59.94485074,628b806c463b948bc644b84f,629afaaf6df5dd777645c0e7,,,,,1,0,1,0,1,X V Q F H G B L J M P D K C T S W R N Z,,,,,,,,,,,,,,,,,,,,,,,,,,,,,,,,,,,,,,,,,,,,,,,,,,,,,,,,,,,,,,,,,,,,,,,,,,,,,,,,,,,,,,,,,,,,,
,,,,,,,,,,5f1b2fe23bcef80c38d2a362,25,Kobieta,2022-06-04_08h29.28.176,task,2021.1.4,Win32,59.94485074,628b806c463b948bc644b84f,629afaaf6df5dd777645c0e7,,,,,2,0,2,0,1,X V Q F H G B L J M P D K C T S W R N Z,,,,,,,,,,,,,,,,,,,,,,,,,,,,,,,,,,,,,,,,,,,,,,,,,,,,,,,,,,,,,,,,,,,,,,,,,,,,,,,,,,,,,,,,,,,,,
,,,,,,,,,,5f1b2fe23bcef80c38d2a362,25,Kobieta,2022-06-04_08h29.28.176,task,2021.1.4,Win32,59.94485074,628b806c463b948bc644b84f,629afaaf6df5dd777645c0e7,,,,,3,0,3,0,1,X V Q F H G B L J M P D K C T S W R N Z,,,,,,,,,,,,,,,,,,,,,,,,,,,,,,,,,,,,,,,,,,,,,,,,,,,,,,,,,,,,,,,,,,,,,,,,,,,,,,,,,,,,,,,,,,,,,
,,,,,,,,,,5f1b2fe23bcef80c38d2a362,25,Kobieta,2022-06-04_08h29.28.176,task,2021.1.4,Win32,59.94485074,628b806c463b948bc644b84f,629afaaf6df5dd777645c0e7,,,,,4,0,4,0,1,X V Q F H G B L J M P D K C T S W R N Z,,,,,,,,,,,,,,,,,,,,,,,,,,,,,,,,,,,,,,,,,,,,,,,,,,,,,,,,,,,,,,,,,,,,,,,,,,,,,,,,,,,,,,,,,,,,,
,,,,,,,,,,5f1b2fe23bcef80c38d2a362,25,Kobieta,2022-06-04_08h29.28.176,task,2021.1.4,Win32,59.94485074,628b806c463b948bc644b84f,629afaaf6df5dd777645c0e7,,,,,,,,,,,lffsf,"[""l"",""f"",""f"",""s"",""f""]","[0.824700000002963,1.213700000002973,1.4660999999940714,1.881899999990992,3.234700000002931,3.699700000002963]",1,LFFSF,6,0,6,0,1,,,,,,,,,,,,,,,,,,,,,,,,,,,,,,,,,,,,,,,,,,,,,,,,,,,,,,,,,,,,,,,,,,,,,,,,,,,,,,,,,,,
,,,,,,,,,,5f1b2fe23bcef80c38d2a362,25,Kobieta,2022-06-04_08h29.28.176,task,2021.1.4,Win32,59.94485074,628b806c463b948bc644b84f,629afaaf6df5dd777645c0e7,,,,,0,0,0,0,1,X V Q F H G B L J M P D K C T S W R N Z,,,,,,,,,,,,,,,,,,,,,,,,,,,,,,,,,,,,,,,,,,,,,,,,,,,,,,,,,,,,,,,,,,,,,,,,,,,,,,,,,,,,,,,,,,,,,
,,,,,,,,,,5f1b2fe23bcef80c38d2a362,25,Kobieta,2022-06-04_08h29.28.176,task,2021.1.4,Win32,59.94485074,628b806c463b948bc644b84f,629afaaf6df5dd777645c0e7,,,,,1,0,1,0,1,X V Q F H G B L J M P D K C T S W R N Z,,,,,,,,,,,,,,,,,,,,,,,,,,,,,,,,,,,,,,,,,,,,,,,,,,,,,,,,,,,,,,,,,,,,,,,,,,,,,,,,,,,,,,,,,,,,,
,,,,,,,,,,5f1b2fe23bcef80c38d2a362,25,Kobieta,2022-06-04_08h29.28.176,task,2021.1.4,Win32,59.94485074,628b806c463b948bc644b84f,629afaaf6df5dd777645c0e7,,,,,2,0,2,0,1,X V Q F H G B L J M P D K C T S W R N Z,,,,,,,,,,,,,,,,,,,,,,,,,,,,,,,,,,,,,,,,,,,,,,,,,,,,,,,,,,,,,,,,,,,,,,,,,,,,,,,,,,,,,,,,,,,,,
,,,,,,,,,,5f1b2fe23bcef80c38d2a362,25,Kobieta,2022-06-04_08h29.28.176,task,2021.1.4,Win32,59.94485074,628b806c463b948bc644b84f,629afaaf6df5dd777645c0e7,,,,,3,0,3,0,1,X V Q F H G B L J M P D K C T S W R N Z,,,,,,,,,,,,,,,,,,,,,,,,,,,,,,,,,,,,,,,,,,,,,,,,,,,,,,,,,,,,,,,,,,,,,,,,,,,,,,,,,,,,,,,,,,,,,
,,,,,,,,,,5f1b2fe23bcef80c38d2a362,25,Kobieta,2022-06-04_08h29.28.176,task,2021.1.4,Win32,59.94485074,628b806c463b948bc644b84f,629afaaf6df5dd777645c0e7,,,,,4,0,4,0,1,X V Q F H G B L J M P D K C T S W R N Z,,,,,,,,,,,,,,,,,,,,,,,,,,,,,,,,,,,,,,,,,,,,,,,,,,,,,,,,,,,,,,,,,,,,,,,,,,,,,,,,,,,,,,,,,,,,,
,,,,,,,,,,5f1b2fe23bcef80c38d2a362,25,Kobieta,2022-06-04_08h29.28.176,task,2021.1.4,Win32,59.94485074,628b806c463b948bc644b84f,629afaaf6df5dd777645c0e7,,,,,,,,,,,sngnw,"[""s"",""n"",""g"",""n"",""w""]","[1.2037999999970452,1.901599999994005,2.2522999999970352,3.3603999999910457,3.77619999998808,4.820799999997007]",1,SNGNW,7,0,7,0,1,,,,,,,,,,,,,,,,,,,,,,,,,,,,,,,,,,,,,,,,,,,,,,,,,,,,,,,,,,,,,,,,,,,,,,,,,,,,,,,,,,,
,,,,,,,,,,5f1b2fe23bcef80c38d2a362,25,Kobieta,2022-06-04_08h29.28.176,task,2021.1.4,Win32,59.94485074,628b806c463b948bc644b84f,629afaaf6df5dd777645c0e7,,,,,0,0,0,0,1,X V Q F H G B L J M P D K C T S W R N Z,,,,,,,,,,,,,,,,,,,,,,,,,,,,,,,,,,,,,,,,,,,,,,,,,,,,,,,,,,,,,,,,,,,,,,,,,,,,,,,,,,,,,,,,,,,,,
,,,,,,,,,,5f1b2fe23bcef80c38d2a362,25,Kobieta,2022-06-04_08h29.28.176,task,2021.1.4,Win32,59.94485074,628b806c463b948bc644b84f,629afaaf6df5dd777645c0e7,,,,,1,0,1,0,1,X V Q F H G B L J M P D K C T S W R N Z,,,,,,,,,,,,,,,,,,,,,,,,,,,,,,,,,,,,,,,,,,,,,,,,,,,,,,,,,,,,,,,,,,,,,,,,,,,,,,,,,,,,,,,,,,,,,
,,,,,,,,,,5f1b2fe23bcef80c38d2a362,25,Kobieta,2022-06-04_08h29.28.176,task,2021.1.4,Win32,59.94485074,628b806c463b948bc644b84f,629afaaf6df5dd777645c0e7,,,,,2,0,2,0,1,X V Q F H G B L J M P D K C T S W R N Z,,,,,,,,,,,,,,,,,,,,,,,,,,,,,,,,,,,,,,,,,,,,,,,,,,,,,,,,,,,,,,,,,,,,,,,,,,,,,,,,,,,,,,,,,,,,,
,,,,,,,,,,5f1b2fe23bcef80c38d2a362,25,Kobieta,2022-06-04_08h29.28.176,task,2021.1.4,Win32,59.94485074,628b806c463b948bc644b84f,629afaaf6df5dd777645c0e7,,,,,3,0,3,0,1,X V Q F H G B L J M P D K C T S W R N Z,,,,,,,,,,,,,,,,,,,,,,,,,,,,,,,,,,,,,,,,,,,,,,,,,,,,,,,,,,,,,,,,,,,,,,,,,,,,,,,,,,,,,,,,,,,,,
,,,,,,,,,,5f1b2fe23bcef80c38d2a362,25,Kobieta,2022-06-04_08h29.28.176,task,2021.1.4,Win32,59.94485074,628b806c463b948bc644b84f,629afaaf6df5dd777645c0e7,,,,,4,0,4,0,1,X V Q F H G B L J M P D K C T S W R N Z,,,,,,,,,,,,,,,,,,,,,,,,,,,,,,,,,,,,,,,,,,,,,,,,,,,,,,,,,,,,,,,,,,,,,,,,,,,,,,,,,,,,,,,,,,,,,
,,,,,,,,,,5f1b2fe23bcef80c38d2a362,25,Kobieta,2022-06-04_08h29.28.176,task,2021.1.4,Win32,59.94485074,628b806c463b948bc644b84f,629afaaf6df5dd777645c0e7,,,,,5,0,5,0,1,X V Q F H G B L J M P D K C T S W R N Z,,,,,,,,,,,,,,,,,,,,,,,,,,,,,,,,,,,,,,,,,,,,,,,,,,,,,,,,,,,,,,,,,,,,,,,,,,,,,,,,,,,,,,,,,,,,,
,,,,,,,,,,5f1b2fe23bcef80c38d2a362,25,Kobieta,2022-06-04_08h29.28.176,task,2021.1.4,Win32,59.94485074,628b806c463b948bc644b84f,629afaaf6df5dd777645c0e7,,,,,,,,,,,gsfms,"[""g"",""s"",""f"",""m"",""s""]","[1.0702999999970189,1.4227999999969825,2.488099999994006,3.072499999999991,3.655899999990993,4.191999999999894]",0,GSFMCS,8,0,8,0,1,,,,,,,,,,,,,,,,,,,,,,,,,,,,,,,,,,,,,,,,,,,,,,,,,,,,,,,,,,,,,,,,,,,,,,,,,,,,,,,,,,,
,,,,,,,,,,5f1b2fe23bcef80c38d2a362,25,Kobieta,2022-06-04_08h29.28.176,task,2021.1.4,Win32,59.94485074,628b806c463b948bc644b84f,629afaaf6df5dd777645c0e7,,,,,0,0,0,0,1,X V Q F H G B L J M P D K C T S W R N Z,,,,,,,,,,,,,,,,,,,,,,,,,,,,,,,,,,,,,,,,,,,,,,,,,,,,,,,,,,,,,,,,,,,,,,,,,,,,,,,,,,,,,,,,,,,,,
,,,,,,,,,,5f1b2fe23bcef80c38d2a362,25,Kobieta,2022-06-04_08h29.28.176,task,2021.1.4,Win32,59.94485074,628b806c463b948bc644b84f,629afaaf6df5dd777645c0e7,,,,,1,0,1,0,1,X V Q F H G B L J M P D K C T S W R N Z,,,,,,,,,,,,,,,,,,,,,,,,,,,,,,,,,,,,,,,,,,,,,,,,,,,,,,,,,,,,,,,,,,,,,,,,,,,,,,,,,,,,,,,,,,,,,
,,,,,,,,,,5f1b2fe23bcef80c38d2a362,25,Kobieta,2022-06-04_08h29.28.176,task,2021.1.4,Win32,59.94485074,628b806c463b948bc644b84f,629afaaf6df5dd777645c0e7,,,,,2,0,2,0,1,X V Q F H G B L J M P D K C T S W R N Z,,,,,,,,,,,,,,,,,,,,,,,,,,,,,,,,,,,,,,,,,,,,,,,,,,,,,,,,,,,,,,,,,,,,,,,,,,,,,,,,,,,,,,,,,,,,,
,,,,,,,,,,5f1b2fe23bcef80c38d2a362,25,Kobieta,2022-06-04_08h29.28.176,task,2021.1.4,Win32,59.94485074,628b806c463b948bc644b84f,629afaaf6df5dd777645c0e7,,,,,3,0,3,0,1,X V Q F H G B L J M P D K C T S W R N Z,,,,,,,,,,,,,,,,,,,,,,,,,,,,,,,,,,,,,,,,,,,,,,,,,,,,,,,,,,,,,,,,,,,,,,,,,,,,,,,,,,,,,,,,,,,,,
,,,,,,,,,,5f1b2fe23bcef80c38d2a362,25,Kobieta,2022-06-04_08h29.28.176,task,2021.1.4,Win32,59.94485074,628b806c463b948bc644b84f,629afaaf6df5dd777645c0e7,,,,,4,0,4,0,1,X V Q F H G B L J M P D K C T S W R N Z,,,,,,,,,,,,,,,,,,,,,,,,,,,,,,,,,,,,,,,,,,,,,,,,,,,,,,,,,,,,,,,,,,,,,,,,,,,,,,,,,,,,,,,,,,,,,
,,,,,,,,,,5f1b2fe23bcef80c38d2a362,25,Kobieta,2022-06-04_08h29.28.176,task,2021.1.4,Win32,59.94485074,628b806c463b948bc644b84f,629afaaf6df5dd777645c0e7,,,,,5,0,5,0,1,X V Q F H G B L J M P D K C T S W R N Z,,,,,,,,,,,,,,,,,,,,,,,,,,,,,,,,,,,,,,,,,,,,,,,,,,,,,,,,,,,,,,,,,,,,,,,,,,,,,,,,,,,,,,,,,,,,,
,,,,,,,,,,5f1b2fe23bcef80c38d2a362,25,Kobieta,2022-06-04_08h29.28.176,task,2021.1.4,Win32,59.94485074,628b806c463b948bc644b84f,629afaaf6df5dd777645c0e7,,,,,,,,,,,mkhgxf,"[""m"",""k"",""h"",""g"",""x"",""f""]","[6.6112999999970725,12.04959999999403,13.46659999999406,13.753599999994094,14.802500000000009,15.05339999999103,15.636399999991113]",1,MKHGXF,9,0,9,0,1,,,,,,,,,,,,,,,,,,,,,,,,,,,,,,,,,,,,,,,,,,,,,,,,,,,,,,,,,,,,,,,,,,,,,,,,,,,,,,,,,,,
,,,,,,,,,,5f1b2fe23bcef80c38d2a362,25,Kobieta,2022-06-04_08h29.28.176,task,2021.1.4,Win32,59.94485074,628b806c463b948bc644b84f,629afaaf6df5dd777645c0e7,,,,,0,0,0,0,1,X V Q F H G B L J M P D K C T S W R N Z,,,,,,,,,,,,,,,,,,,,,,,,,,,,,,,,,,,,,,,,,,,,,,,,,,,,,,,,,,,,,,,,,,,,,,,,,,,,,,,,,,,,,,,,,,,,,
,,,,,,,,,,5f1b2fe23bcef80c38d2a362,25,Kobieta,2022-06-04_08h29.28.176,task,2021.1.4,Win32,59.94485074,628b806c463b948bc644b84f,629afaaf6df5dd777645c0e7,,,,,1,0,1,0,1,X V Q F H G B L J M P D K C T S W R N Z,,,,,,,,,,,,,,,,,,,,,,,,,,,,,,,,,,,,,,,,,,,,,,,,,,,,,,,,,,,,,,,,,,,,,,,,,,,,,,,,,,,,,,,,,,,,,
,,,,,,,,,,5f1b2fe23bcef80c38d2a362,25,Kobieta,2022-06-04_08h29.28.176,task,2021.1.4,Win32,59.94485074,628b806c463b948bc644b84f,629afaaf6df5dd777645c0e7,,,,,2,0,2,0,1,X V Q F H G B L J M P D K C T S W R N Z,,,,,,,,,,,,,,,,,,,,,,,,,,,,,,,,,,,,,,,,,,,,,,,,,,,,,,,,,,,,,,,,,,,,,,,,,,,,,,,,,,,,,,,,,,,,,
,,,,,,,,,,5f1b2fe23bcef80c38d2a362,25,Kobieta,2022-06-04_08h29.28.176,task,2021.1.4,Win32,59.94485074,628b806c463b948bc644b84f,629afaaf6df5dd777645c0e7,,,,,3,0,3,0,1,X V Q F H G B L J M P D K C T S W R N Z,,,,,,,,,,,,,,,,,,,,,,,,,,,,,,,,,,,,,,,,,,,,,,,,,,,,,,,,,,,,,,,,,,,,,,,,,,,,,,,,,,,,,,,,,,,,,
,,,,,,,,,,5f1b2fe23bcef80c38d2a362,25,Kobieta,2022-06-04_08h29.28.176,task,2021.1.4,Win32,59.94485074,628b806c463b948bc644b84f,629afaaf6df5dd777645c0e7,,,,,4,0,4,0,1,X V Q F H G B L J M P D K C T S W R N Z,,,,,,,,,,,,,,,,,,,,,,,,,,,,,,,,,,,,,,,,,,,,,,,,,,,,,,,,,,,,,,,,,,,,,,,,,,,,,,,,,,,,,,,,,,,,,
,,,,,,,,,,5f1b2fe23bcef80c38d2a362,25,Kobieta,2022-06-04_08h29.28.176,task,2021.1.4,Win32,59.94485074,628b806c463b948bc644b84f,629afaaf6df5dd777645c0e7,,,,,5,0,5,0,1,X V Q F H G B L J M P D K C T S W R N Z,,,,,,,,,,,,,,,,,,,,,,,,,,,,,,,,,,,,,,,,,,,,,,,,,,,,,,,,,,,,,,,,,,,,,,,,,,,,,,,,,,,,,,,,,,,,,
,,,,,,,,,,5f1b2fe23bcef80c38d2a362,25,Kobieta,2022-06-04_08h29.28.176,task,2021.1.4,Win32,59.94485074,628b806c463b948bc644b84f,629afaaf6df5dd777645c0e7,,,,,,,,,,,bxlcgh,"[""b"",""x"",""l"",""c"",""g"",""h""]","[4.155900000006,4.835600000008981,6.360400000005939,8.576999999999998,9.164900000006014,9.41450000000009,15.135499999999979]",1,BXLCGH,10,0,10,0,1,,,,,,,,,,,,,,,,,,,,,,,,,,,,,,,,,,,,,,,,,,,,,,,,,,,,,,,,,,,,,,,,,,,,,,,,,,,,,,,,,,,
,,,,,,,,,,5f1b2fe23bcef80c38d2a362,25,Kobieta,2022-06-04_08h29.28.176,task,2021.1.4,Win32,59.94485074,628b806c463b948bc644b84f,629afaaf6df5dd777645c0e7,,,,,0,0,0,0,1,X V Q F H G B L J M P D K C T S W R N Z,,,,,,,,,,,,,,,,,,,,,,,,,,,,,,,,,,,,,,,,,,,,,,,,,,,,,,,,,,,,,,,,,,,,,,,,,,,,,,,,,,,,,,,,,,,,,
,,,,,,,,,,5f1b2fe23bcef80c38d2a362,25,Kobieta,2022-06-04_08h29.28.176,task,2021.1.4,Win32,59.94485074,628b806c463b948bc644b84f,629afaaf6df5dd777645c0e7,,,,,1,0,1,0,1,X V Q F H G B L J M P D K C T S W R N Z,,,,,,,,,,,,,,,,,,,,,,,,,,,,,,,,,,,,,,,,,,,,,,,,,,,,,,,,,,,,,,,,,,,,,,,,,,,,,,,,,,,,,,,,,,,,,
,,,,,,,,,,5f1b2fe23bcef80c38d2a362,25,Kobieta,2022-06-04_08h29.28.176,task,2021.1.4,Win32,59.94485074,628b806c463b948bc644b84f,629afaaf6df5dd777645c0e7,,,,,2,0,2,0,1,X V Q F H G B L J M P D K C T S W R N Z,,,,,,,,,,,,,,,,,,,,,,,,,,,,,,,,,,,,,,,,,,,,,,,,,,,,,,,,,,,,,,,,,,,,,,,,,,,,,,,,,,,,,,,,,,,,,
,,,,,,,,,,5f1b2fe23bcef80c38d2a362,25,Kobieta,2022-06-04_08h29.28.176,task,2021.1.4,Win32,59.94485074,628b806c463b948bc644b84f,629afaaf6df5dd777645c0e7,,,,,3,0,3,0,1,X V Q F H G B L J M P D K C T S W R N Z,,,,,,,,,,,,,,,,,,,,,,,,,,,,,,,,,,,,,,,,,,,,,,,,,,,,,,,,,,,,,,,,,,,,,,,,,,,,,,,,,,,,,,,,,,,,,
,,,,,,,,,,5f1b2fe23bcef80c38d2a362,25,Kobieta,2022-06-04_08h29.28.176,task,2021.1.4,Win32,59.94485074,628b806c463b948bc644b84f,629afaaf6df5dd777645c0e7,,,,,4,0,4,0,1,X V Q F H G B L J M P D K C T S W R N Z,,,,,,,,,,,,,,,,,,,,,,,,,,,,,,,,,,,,,,,,,,,,,,,,,,,,,,,,,,,,,,,,,,,,,,,,,,,,,,,,,,,,,,,,,,,,,
,,,,,,,,,,5f1b2fe23bcef80c38d2a362,25,Kobieta,2022-06-04_08h29.28.176,task,2021.1.4,Win32,59.94485074,628b806c463b948bc644b84f,629afaaf6df5dd777645c0e7,,,,,5,0,5,0,1,X V Q F H G B L J M P D K C T S W R N Z,,,,,,,,,,,,,,,,,,,,,,,,,,,,,,,,,,,,,,,,,,,,,,,,,,,,,,,,,,,,,,,,,,,,,,,,,,,,,,,,,,,,,,,,,,,,,
,,,,,,,,,,5f1b2fe23bcef80c38d2a362,25,Kobieta,2022-06-04_08h29.28.176,task,2021.1.4,Win32,59.94485074,628b806c463b948bc644b84f,629afaaf6df5dd777645c0e7,,,,,6,0,6,0,1,X V Q F H G B L J M P D K C T S W R N Z,,,,,,,,,,,,,,,,,,,,,,,,,,,,,,,,,,,,,,,,,,,,,,,,,,,,,,,,,,,,,,,,,,,,,,,,,,,,,,,,,,,,,,,,,,,,,
,,,,,,,,,,5f1b2fe23bcef80c38d2a362,25,Kobieta,2022-06-04_08h29.28.176,task,2021.1.4,Win32,59.94485074,628b806c463b948bc644b84f,629afaaf6df5dd777645c0e7,,,,,,,,,,,dfqclhh,"[""d"",""f"",""q"",""c"",""l"",""h"",""h""]","[2.474099999993996,5.394700000003013,8.047099999994089,8.649799999997072,11.247599999994009,11.581799999996974,11.70790000000602,12.288599999994062]",1,DFQCLHH,11,0,11,0,1,,,,,,,,,,,,,,,,,,,,,,,,,,,,,,,,,,,,,,,,,,,,,,,,,,,,,,,,,,,,,,,,,,,,,,,,,,,,,,,,,,,
,,,,,,,,,,5f1b2fe23bcef80c38d2a362,25,Kobieta,2022-06-04_08h29.28.176,task,2021.1.4,Win32,59.94485074,628b806c463b948bc644b84f,629afaaf6df5dd777645c0e7,,,,,0,0,0,0,1,X V Q F H G B L J M P D K C T S W R N Z,,,,,,,,,,,,,,,,,,,,,,,,,,,,,,,,,,,,,,,,,,,,,,,,,,,,,,,,,,,,,,,,,,,,,,,,,,,,,,,,,,,,,,,,,,,,,
,,,,,,,,,,5f1b2fe23bcef80c38d2a362,25,Kobieta,2022-06-04_08h29.28.176,task,2021.1.4,Win32,59.94485074,628b806c463b948bc644b84f,629afaaf6df5dd777645c0e7,,,,,1,0,1,0,1,X V Q F H G B L J M P D K C T S W R N Z,,,,,,,,,,,,,,,,,,,,,,,,,,,,,,,,,,,,,,,,,,,,,,,,,,,,,,,,,,,,,,,,,,,,,,,,,,,,,,,,,,,,,,,,,,,,,
,,,,,,,,,,5f1b2fe23bcef80c38d2a362,25,Kobieta,2022-06-04_08h29.28.176,task,2021.1.4,Win32,59.94485074,628b806c463b948bc644b84f,629afaaf6df5dd777645c0e7,,,,,2,0,2,0,1,X V Q F H G B L J M P D K C T S W R N Z,,,,,,,,,,,,,,,,,,,,,,,,,,,,,,,,,,,,,,,,,,,,,,,,,,,,,,,,,,,,,,,,,,,,,,,,,,,,,,,,,,,,,,,,,,,,,
,,,,,,,,,,5f1b2fe23bcef80c38d2a362,25,Kobieta,2022-06-04_08h29.28.176,task,2021.1.4,Win32,59.94485074,628b806c463b948bc644b84f,629afaaf6df5dd777645c0e7,,,,,3,0,3,0,1,X V Q F H G B L J M P D K C T S W R N Z,,,,,,,,,,,,,,,,,,,,,,,,,,,,,,,,,,,,,,,,,,,,,,,,,,,,,,,,,,,,,,,,,,,,,,,,,,,,,,,,,,,,,,,,,,,,,
,,,,,,,,,,5f1b2fe23bcef80c38d2a362,25,Kobieta,2022-06-04_08h29.28.176,task,2021.1.4,Win32,59.94485074,628b806c463b948bc644b84f,629afaaf6df5dd777645c0e7,,,,,4,0,4,0,1,X V Q F H G B L J M P D K C T S W R N Z,,,,,,,,,,,,,,,,,,,,,,,,,,,,,,,,,,,,,,,,,,,,,,,,,,,,,,,,,,,,,,,,,,,,,,,,,,,,,,,,,,,,,,,,,,,,,
,,,,,,,,,,5f1b2fe23bcef80c38d2a362,25,Kobieta,2022-06-04_08h29.28.176,task,2021.1.4,Win32,59.94485074,628b806c463b948bc644b84f,629afaaf6df5dd777645c0e7,,,,,5,0,5,0,1,X V Q F H G B L J M P D K C T S W R N Z,,,,,,,,,,,,,,,,,,,,,,,,,,,,,,,,,,,,,,,,,,,,,,,,,,,,,,,,,,,,,,,,,,,,,,,,,,,,,,,,,,,,,,,,,,,,,
,,,,,,,,,,5f1b2fe23bcef80c38d2a362,25,Kobieta,2022-06-04_08h29.28.176,task,2021.1.4,Win32,59.94485074,628b806c463b948bc644b84f,629afaaf6df5dd777645c0e7,,,,,6,0,6,0,1,X V Q F H G B L J M P D K C T S W R N Z,,,,,,,,,,,,,,,,,,,,,,,,,,,,,,,,,,,,,,,,,,,,,,,,,,,,,,,,,,,,,,,,,,,,,,,,,,,,,,,,,,,,,,,,,,,,,
,,,,,,,,,,5f1b2fe23bcef80c38d2a362,25,Kobieta,2022-06-04_08h29.28.176,task,2021.1.4,Win32,59.94485074,628b806c463b948bc644b84f,629afaaf6df5dd777645c0e7,,,,,,,,,,,tcvzfdt,"[""t"",""c"",""v"",""z"",""f"",""d"",""t""]","[4.877200000002972,5.870600000008949,7.539200000003007,8.660600000008913,8.994100000008984,11.236499999999978,11.527000000000044,12.163400000005936]",0,TQVZFDT,12,0,12,0,1,,,,,,,,,,,,,,,,,,,,,,,,,,,,,,,,,,,,,,,,,,,,,,,,,,,,,,,,,,,,,,,,,,,,,,,,,,,,,,,,,,,
,,,,,,,,,,5f1b2fe23bcef80c38d2a362,25,Kobieta,2022-06-04_08h29.28.176,task,2021.1.4,Win32,59.94485074,628b806c463b948bc644b84f,629afaaf6df5dd777645c0e7,,,,,0,0,0,0,1,X V Q F H G B L J M P D K C T S W R N Z,,,,,,,,,,,,,,,,,,,,,,,,,,,,,,,,,,,,,,,,,,,,,,,,,,,,,,,,,,,,,,,,,,,,,,,,,,,,,,,,,,,,,,,,,,,,,
,,,,,,,,,,5f1b2fe23bcef80c38d2a362,25,Kobieta,2022-06-04_08h29.28.176,task,2021.1.4,Win32,59.94485074,628b806c463b948bc644b84f,629afaaf6df5dd777645c0e7,,,,,1,0,1,0,1,X V Q F H G B L J M P D K C T S W R N Z,,,,,,,,,,,,,,,,,,,,,,,,,,,,,,,,,,,,,,,,,,,,,,,,,,,,,,,,,,,,,,,,,,,,,,,,,,,,,,,,,,,,,,,,,,,,,
,,,,,,,,,,5f1b2fe23bcef80c38d2a362,25,Kobieta,2022-06-04_08h29.28.176,task,2021.1.4,Win32,59.94485074,628b806c463b948bc644b84f,629afaaf6df5dd777645c0e7,,,,,2,0,2,0,1,X V Q F H G B L J M P D K C T S W R N Z,,,,,,,,,,,,,,,,,,,,,,,,,,,,,,,,,,,,,,,,,,,,,,,,,,,,,,,,,,,,,,,,,,,,,,,,,,,,,,,,,,,,,,,,,,,,,
,,,,,,,,,,5f1b2fe23bcef80c38d2a362,25,Kobieta,2022-06-04_08h29.28.176,task,2021.1.4,Win32,59.94485074,628b806c463b948bc644b84f,629afaaf6df5dd777645c0e7,,,,,3,0,3,0,1,X V Q F H G B L J M P D K C T S W R N Z,,,,,,,,,,,,,,,,,,,,,,,,,,,,,,,,,,,,,,,,,,,,,,,,,,,,,,,,,,,,,,,,,,,,,,,,,,,,,,,,,,,,,,,,,,,,,
,,,,,,,,,,5f1b2fe23bcef80c38d2a362,25,Kobieta,2022-06-04_08h29.28.176,task,2021.1.4,Win32,59.94485074,628b806c463b948bc644b84f,629afaaf6df5dd777645c0e7,,,,,4,0,4,0,1,X V Q F H G B L J M P D K C T S W R N Z,,,,,,,,,,,,,,,,,,,,,,,,,,,,,,,,,,,,,,,,,,,,,,,,,,,,,,,,,,,,,,,,,,,,,,,,,,,,,,,,,,,,,,,,,,,,,
,,,,,,,,,,5f1b2fe23bcef80c38d2a362,25,Kobieta,2022-06-04_08h29.28.176,task,2021.1.4,Win32,59.94485074,628b806c463b948bc644b84f,629afaaf6df5dd777645c0e7,,,,,5,0,5,0,1,X V Q F H G B L J M P D K C T S W R N Z,,,,,,,,,,,,,,,,,,,,,,,,,,,,,,,,,,,,,,,,,,,,,,,,,,,,,,,,,,,,,,,,,,,,,,,,,,,,,,,,,,,,,,,,,,,,,
,,,,,,,,,,5f1b2fe23bcef80c38d2a362,25,Kobieta,2022-06-04_08h29.28.176,task,2021.1.4,Win32,59.94485074,628b806c463b948bc644b84f,629afaaf6df5dd777645c0e7,,,,,6,0,6,0,1,X V Q F H G B L J M P D K C T S W R N Z,,,,,,,,,,,,,,,,,,,,,,,,,,,,,,,,,,,,,,,,,,,,,,,,,,,,,,,,,,,,,,,,,,,,,,,,,,,,,,,,,,,,,,,,,,,,,
,,,,,,,,,,5f1b2fe23bcef80c38d2a362,25,Kobieta,2022-06-04_08h29.28.176,task,2021.1.4,Win32,59.94485074,628b806c463b948bc644b84f,629afaaf6df5dd777645c0e7,,,,,,,,,,,tsmdclw,"[""t"",""s"",""m"",""d"",""c"",""l"",""w""]","[4.358700000002955,4.978600000008896,6.613799999997013,7.227700000002983,8.014799999996967,9.448700000002987,16.604400000005967,18.17220000000293]",0,FSMDCLW,13,0,13,0,1,,,,,,,,,,,,,,,,,,,,,,,,,,,,,,,,,,,,,,,,,,,,,,,,,,,,,,,,,,,,,,,,,,,,,,,,,,,,,,,,,,,
,,,,,,,,,,5f1b2fe23bcef80c38d2a362,25,Kobieta,2022-06-04_08h29.28.176,task,2021.1.4,Win32,59.94485074,628b806c463b948bc644b84f,629afaaf6df5dd777645c0e7,,,,,0,0,0,0,1,X V Q F H G B L J M P D K C T S W R N Z,,,,,,,,,,,,,,,,,,,,,,,,,,,,,,,,,,,,,,,,,,,,,,,,,,,,,,,,,,,,,,,,,,,,,,,,,,,,,,,,,,,,,,,,,,,,,
,,,,,,,,,,5f1b2fe23bcef80c38d2a362,25,Kobieta,2022-06-04_08h29.28.176,task,2021.1.4,Win32,59.94485074,628b806c463b948bc644b84f,629afaaf6df5dd777645c0e7,,,,,1,0,1,0,1,X V Q F H G B L J M P D K C T S W R N Z,,,,,,,,,,,,,,,,,,,,,,,,,,,,,,,,,,,,,,,,,,,,,,,,,,,,,,,,,,,,,,,,,,,,,,,,,,,,,,,,,,,,,,,,,,,,,
,,,,,,,,,,5f1b2fe23bcef80c38d2a362,25,Kobieta,2022-06-04_08h29.28.176,task,2021.1.4,Win32,59.94485074,628b806c463b948bc644b84f,629afaaf6df5dd777645c0e7,,,,,2,0,2,0,1,X V Q F H G B L J M P D K C T S W R N Z,,,,,,,,,,,,,,,,,,,,,,,,,,,,,,,,,,,,,,,,,,,,,,,,,,,,,,,,,,,,,,,,,,,,,,,,,,,,,,,,,,,,,,,,,,,,,
,,,,,,,,,,5f1b2fe23bcef80c38d2a362,25,Kobieta,2022-06-04_08h29.28.176,task,2021.1.4,Win32,59.94485074,628b806c463b948bc644b84f,629afaaf6df5dd777645c0e7,,,,,3,0,3,0,1,X V Q F H G B L J M P D K C T S W R N Z,,,,,,,,,,,,,,,,,,,,,,,,,,,,,,,,,,,,,,,,,,,,,,,,,,,,,,,,,,,,,,,,,,,,,,,,,,,,,,,,,,,,,,,,,,,,,
,,,,,,,,,,5f1b2fe23bcef80c38d2a362,25,Kobieta,2022-06-04_08h29.28.176,task,2021.1.4,Win32,59.94485074,628b806c463b948bc644b84f,629afaaf6df5dd777645c0e7,,,,,4,0,4,0,1,X V Q F H G B L J M P D K C T S W R N Z,,,,,,,,,,,,,,,,,,,,,,,,,,,,,,,,,,,,,,,,,,,,,,,,,,,,,,,,,,,,,,,,,,,,,,,,,,,,,,,,,,,,,,,,,,,,,
,,,,,,,,,,5f1b2fe23bcef80c38d2a362,25,Kobieta,2022-06-04_08h29.28.176,task,2021.1.4,Win32,59.94485074,628b806c463b948bc644b84f,629afaaf6df5dd777645c0e7,,,,,5,0,5,0,1,X V Q F H G B L J M P D K C T S W R N Z,,,,,,,,,,,,,,,,,,,,,,,,,,,,,,,,,,,,,,,,,,,,,,,,,,,,,,,,,,,,,,,,,,,,,,,,,,,,,,,,,,,,,,,,,,,,,
,,,,,,,,,,5f1b2fe23bcef80c38d2a362,25,Kobieta,2022-06-04_08h29.28.176,task,2021.1.4,Win32,59.94485074,628b806c463b948bc644b84f,629afaaf6df5dd777645c0e7,,,,,6,0,6,0,1,X V Q F H G B L J M P D K C T S W R N Z,,,,,,,,,,,,,,,,,,,,,,,,,,,,,,,,,,,,,,,,,,,,,,,,,,,,,,,,,,,,,,,,,,,,,,,,,,,,,,,,,,,,,,,,,,,,,
,,,,,,,,,,5f1b2fe23bcef80c38d2a362,25,Kobieta,2022-06-04_08h29.28.176,task,2021.1.4,Win32,59.94485074,628b806c463b948bc644b84f,629afaaf6df5dd777645c0e7,,,,,,,,,,,rqwmv,"[""r"",""q"",""w"",""m"",""v""]","[4.007700000002956,4.4242000000029975,8.144599999994057,15.278200000002926,17.354599999994093,17.781399999991095]",0,RQVNKGV,14,0,14,0,1,,,,,,,,,,,,,,,,,,,,,,,,,,,,,,,,,,,,,,,,,,,,,,,,,,,,,,,,,,,,,,,,,,,,,,,,,,,,,,,,,,,
,,,,,,,,,,5f1b2fe23bcef80c38d2a362,25,Kobieta,2022-06-04_08h29.28.176,task,2021.1.4,Win32,59.94485074,628b806c463b948bc644b84f,629afaaf6df5dd777645c0e7,,,,,,,,,,,,,,,,,,,,,space,14.8527,5,"[""5""]",1,[2.7329999999999472],[2.7329999999999472],0,0,0,5,1,Practice,6,(4/2) + 3,5,,,,,,,,,,,,,,,,,,,,,,,,,,,,,,,,,,,,,,,,,,,,,,,,,,,,,,,,,,,,,,,,,,,
,,,,,,,,,,5f1b2fe23bcef80c38d2a362,25,Kobieta,2022-06-04_08h29.28.176,task,2021.1.4,Win32,59.94485074,628b806c463b948bc644b84f,629afaaf6df5dd777645c0e7,,,,,,,,,,,,,,,,,,,,,,,8,"[""8""]",1,[2.2042000000029702],"[2.7329999999999472,2.2042000000029702]",0,1,1,8,1,Practice,9,(3x3) - 1,8,,,,,,,,,,,,,,,,,,,,,,,,,,,,,,,,,,,,,,,,,,,,,,,,,,,,,,,,,,,,,,,,,,,
,,,,,,,,,,5f1b2fe23bcef80c38d2a362,25,Kobieta,2022-06-04_08h29.28.176,task,2021.1.4,Win32,59.94485074,628b806c463b948bc644b84f,629afaaf6df5dd777645c0e7,,,,,,,,,,,,,,,,,,,,,,,4,"[""4""]",1,[4.238399999991088],"[2.7329999999999472,2.2042000000029702,4.238399999991088]",0,2,2,4,1,Practice,5,(2x6) - 8,4,,,,,,,,,,,,,,,,,,,,,,,,,,,,,,,,,,,,,,,,,,,,,,,,,,,,,,,,,,,,,,,,,,,
,,,,,,,,,,5f1b2fe23bcef80c38d2a362,25,Kobieta,2022-06-04_08h29.28.176,task,2021.1.4,Win32,59.94485074,628b806c463b948bc644b84f,629afaaf6df5dd777645c0e7,,,,,,,,,,,,,,,,,,,,,,,1,"[""1""]",1,[2.8587000000029548],"[2.7329999999999472,2.2042000000029702,4.238399999991088,2.8587000000029548]",0,3,3,1,1,Practice,2,(4x4) - 15,1,,,,,,,,,,,,,,,,,,,,,,,,,,,,,,,,,,,,,,,,,,,,,,,,,,,,,,,,,,,,,,,,,,,
,,,,,,,,,,5f1b2fe23bcef80c38d2a362,25,Kobieta,2022-06-04_08h29.28.176,task,2021.1.4,Win32,59.94485074,628b806c463b948bc644b84f,629afaaf6df5dd777645c0e7,,,,,,,,,,,,,,,,,,,,,,,2,"[""2""]",1,[3.0249999999999773],"[2.7329999999999472,2.2042000000029702,4.238399999991088,2.8587000000029548,3.0249999999999773]",0,4,4,2,1,Practice,3,(4x4) - 14,2,,,,,,,,,,,,,,,,,,,,,,,,,,,,,,,,,,,,,,,,,,,,,,,,,,,,,,,,,,,,,,,,,,,
,,,,,,,,,,5f1b2fe23bcef80c38d2a362,25,Kobieta,2022-06-04_08h29.28.176,task,2021.1.4,Win32,59.94485074,628b806c463b948bc644b84f,629afaaf6df5dd777645c0e7,,,,,,,,,,,,,,,,,,,,,,,6,"[""6""]",1,[2.7345999999940886],"[2.7329999999999472,2.2042000000029702,4.238399999991088,2.8587000000029548,3.0249999999999773,2.7345999999940886]",0,5,5,6,1,Practice,7,(25/5) + 1,6,,,,,,,,,,,,,,,,,,,,,,,,,,,,,,,,,,,,,,,,,,,,,,,,,,,,,,,,,,,,,,,,,,,
,,,,,,,,,,5f1b2fe23bcef80c38d2a362,25,Kobieta,2022-06-04_08h29.28.176,task,2021.1.4,Win32,59.94485074,628b806c463b948bc644b84f,629afaaf6df5dd777645c0e7,,,,,,,,,,,,,,,,,,,,,,,9,"[""9""]",1,[3.804700000002981],"[2.7329999999999472,2.2042000000029702,4.238399999991088,2.8587000000029548,3.0249999999999773,2.7345999999940886,3.804700000002981]",0,6,6,9,1,Practice,10,(20/2) - 1,9,,,,,,,,,,,,,,,,,,,,,,,,,,,,,,,,,,,,,,,,,,,,,,,,,,,,,,,,,,,,,,,,,,,
,,,,,,,,,,5f1b2fe23bcef80c38d2a362,25,Kobieta,2022-06-04_08h29.28.176,task,2021.1.4,Win32,59.94485074,628b806c463b948bc644b84f,629afaaf6df5dd777645c0e7,,,,,,,,,,,,,,,,,,,,,,,7,"[""7""]",1,[5.59619999998813],"[2.7329999999999472,2.2042000000029702,4.238399999991088,2.8587000000029548,3.0249999999999773,2.7345999999940886,3.804700000002981,5.59619999998813]",0,7,7,7,1,Practice,8,(5x5) - 18,7,,,,,,,,,,,,,,,,,,,,,,,,,,,,,,,,,,,,,,,,,,,,,,,,,,,,,,,,,,,,,,,,,,,
,,,,,,,,,,5f1b2fe23bcef80c38d2a362,25,Kobieta,2022-06-04_08h29.28.176,task,2021.1.4,Win32,59.94485074,628b806c463b948bc644b84f,629afaaf6df5dd777645c0e7,,,,,,,,,,,,,,,,,,,,,,,3,"[""3""]",1,[2.0722999999969716],"[2.7329999999999472,2.2042000000029702,4.238399999991088,2.8587000000029548,3.0249999999999773,2.7345999999940886,3.804700000002981,5.59619999998813,2.0722999999969716]",0,8,8,3,1,Practice,4,(8/4) + 1,3,,,,,,,,,,,,,,,,,,,,,,,,,,,,,,,,,,,,,,,,,,,,,,,,,,,,,,,,,,,,,,,,,,,
,,,,,,,,,,5f1b2fe23bcef80c38d2a362,25,Kobieta,2022-06-04_08h29.28.176,task,2021.1.4,Win32,59.94485074,628b806c463b948bc644b84f,629afaaf6df5dd777645c0e7,,,,,,,,,,,,,,,,,,,,,,,0,"[""0""]",1,[1.7357000000030212],"[2.7329999999999472,2.2042000000029702,4.238399999991088,2.8587000000029548,3.0249999999999773,2.7345999999940886,3.804700000002981,5.59619999998813,2.0722999999969716,1.7357000000030212]",0,9,9,0,1,Practice,1,(3x3) -  9,0,,,,,,,,,,,,,,,,,,,,,,,,,,,,,,,,,,,,,,,,,,,,,,,,,,,,,,,,,,,,,,,,,,,
,,,,,,,,,,5f1b2fe23bcef80c38d2a362,25,Kobieta,2022-06-04_08h29.28.176,task,2021.1.4,Win32,59.94485074,628b806c463b948bc644b84f,629afaaf6df5dd777645c0e7,,,,,,,,,,,,,,,,,,,,,,,,,,,,,,,,,,,,,1,31.0028,2.066853333,22.75527333,1.231672936,5.244569509,space,2.6398,0,0,0,0,1,,,,,,,,,,,,,,,,,,,,,,,,,,,,,,,,,,,,,,,,,,,,,,,,,,,,,,
,,,,,,,,,,5f1b2fe23bcef80c38d2a362,25,Kobieta,2022-06-04_08h29.28.176,task,2021.1.4,Win32,59.94485074,628b806c463b948bc644b84f,629afaaf6df5dd777645c0e7,,,,,,,,,,,,,,,,,,,,,,,8,,,,,,,,,,Practice,9,(3x3) - 1,8,,,,,,,,,,,,,,space,20.3323,"[""8""]",1,[2.7562999999969406],1,0,0,0,8,1,,,,,,,,,,,,,,,,,,,,,,,,,,,,,,,,,,,,,,,,,,,
,,,,,,,,,,5f1b2fe23bcef80c38d2a362,25,Kobieta,2022-06-04_08h29.28.176,task,2021.1.4,Win32,59.94485074,628b806c463b948bc644b84f,629afaaf6df5dd777645c0e7,,,,,,,,,,X V Q F H G B L J M P D K C T S W R N Z,,,,,,,,,,,,,,,,,,,,,,,,,,,,,,,,,,,,,,,,,,,,,,,,,,,0,0,0,0,1,,,,,,,,,,,,,,,,,,,,,,,,,,,,,,,,,,,,,,
,,,,,,,,,,5f1b2fe23bcef80c38d2a362,25,Kobieta,2022-06-04_08h29.28.176,task,2021.1.4,Win32,59.94485074,628b806c463b948bc644b84f,629afaaf6df5dd777645c0e7,,,,,,,,,,,,,,,,,,,,,,,2,,,,,,,,,,Practice,3,(4x4) - 14,2,,,,,,,,,,,,,,,,"[""2""]",1,[2.2875000000000227],1,0,0,0,2,1,,,,,,,,,,,,,,,,,,,,,,,,,,,,,,,,,,,,,,,,,,,
,,,,,,,,,,5f1b2fe23bcef80c38d2a362,25,Kobieta,2022-06-04_08h29.28.176,task,2021.1.4,Win32,59.94485074,628b806c463b948bc644b84f,629afaaf6df5dd777645c0e7,,,,,,,,,,X V Q F H G B L J M P D K C T S W R N Z,,,,,,,,,,,,,,,,,,,,,,,,,,,,,,,,,,,,,,,,,,,,,,,,,,,1,0,1,0,1,,,,,,,,,,,,,,,,,,,,,,,,,,,,,,,,,,,,,,
,,,,,,,,,,5f1b2fe23bcef80c38d2a362,25,Kobieta,2022-06-04_08h29.28.176,task,2021.1.4,Win32,59.94485074,628b806c463b948bc644b84f,629afaaf6df5dd777645c0e7,,,,,,,,,,,,,,,,,,,,,,,,,,,,,,,,,,,,,,,,,,,,,,,,,,,,,,,,,,,,,,,,,,zc,"[""z"",""c""]",0,"[2.768400000005954,5.4075999999940905,13.283700000003023]",1,0,0,0,0,1,,,,,,,,,,,,,,,,,,,,,,,,,,,,
,,,,,,,,,,5f1b2fe23bcef80c38d2a362,25,Kobieta,2022-06-04_08h29.28.176,task,2021.1.4,Win32,59.94485074,628b806c463b948bc644b84f,629afaaf6df5dd777645c0e7,,,,,,,,,,,,,,,,,,,,,,,,,,,,,,,,,Practice,7,(25/5) + 1,6,,,,,,,,,,,,,,,,,0,,0,0,0,0,6,1,,,,,,,,,,,,,,,,,,,,,,,,,,,,,,,,,,,,,,,,,,,
,,,,,,,,,,5f1b2fe23bcef80c38d2a362,25,Kobieta,2022-06-04_08h29.28.176,task,2021.1.4,Win32,59.94485074,628b806c463b948bc644b84f,629afaaf6df5dd777645c0e7,,,,,,,,,,,,,,,,,,,,,,,2,,,,,,,,,,Practice,3,(4x4) - 14,2,,,,,,,,,,,,,,,,"[""2""]",1,[1.8252000000030648],1,0,1,1,2,1,,,,,,,,,,,,,,,,,,,,,,,,,,,,,,,,,,,,,,,,,,,
,,,,,,,,,,5f1b2fe23bcef80c38d2a362,25,Kobieta,2022-06-04_08h29.28.176,task,2021.1.4,Win32,59.94485074,628b806c463b948bc644b84f,629afaaf6df5dd777645c0e7,,,,,,,,,,X V Q F H G B L J M P D K C T S W R N Z,,,,,,,,,,,,,,,,,,,,,,,,,,,,,,,,,,,,,,,,,,,,,,,,,,,0,0,0,0,1,,,,,,,,,,,,,,,,,,,,,,,,,,,,,,,,,,,,,,
,,,,,,,,,,5f1b2fe23bcef80c38d2a362,25,Kobieta,2022-06-04_08h29.28.176,task,2021.1.4,Win32,59.94485074,628b806c463b948bc644b84f,629afaaf6df5dd777645c0e7,,,,,,,,,,,,,,,,,,,,,,,6,,,,,,,,,,Practice,7,(25/5) + 1,6,,,,,,,,,,,,,,,,"[""6""]",1,[1.6632000000030303],1,0,0,0,6,1,,,,,,,,,,,,,,,,,,,,,,,,,,,,,,,,,,,,,,,,,,,
,,,,,,,,,,5f1b2fe23bcef80c38d2a362,25,Kobieta,2022-06-04_08h29.28.176,task,2021.1.4,Win32,59.94485074,628b806c463b948bc644b84f,629afaaf6df5dd777645c0e7,,,,,,,,,,X V Q F H G B L J M P D K C T S W R N Z,,,,,,,,,,,,,,,,,,,,,,,,,,,,,,,,,,,,,,,,,,,,,,,,,,,1,0,1,0,1,,,,,,,,,,,,,,,,,,,,,,,,,,,,,,,,,,,,,,
,,,,,,,,,,5f1b2fe23bcef80c38d2a362,25,Kobieta,2022-06-04_08h29.28.176,task,2021.1.4,Win32,59.94485074,628b806c463b948bc644b84f,629afaaf6df5dd777645c0e7,,,,,,,,,,,,,,,,,,,,,,,,,,,,,,,,,,,,,,,,,,,,,,,,,,,,,,,,,,,,,,,,,,vt,"[""v"",""t""]",0,"[3.9398999999910984,4.386700000002975,8.722700000002988]",1,1,0,1,0,1,,,,,,,,,,,,,,,,,,,,,,,,,,,,
,,,,,,,,,,5f1b2fe23bcef80c38d2a362,25,Kobieta,2022-06-04_08h29.28.176,task,2021.1.4,Win32,59.94485074,628b806c463b948bc644b84f,629afaaf6df5dd777645c0e7,,,,,,,,,,,,,,,,,,,,,,,6,,,,,,,,,,Practice,7,(25/5) + 1,6,,,,,,,,,,,,,,,,"[""6""]",1,[2.074599999994007],1,0,0,0,6,1,,,,,,,,,,,,,,,,,,,,,,,,,,,,,,,,,,,,,,,,,,,
,,,,,,,,,,5f1b2fe23bcef80c38d2a362,25,Kobieta,2022-06-04_08h29.28.176,task,2021.1.4,Win32,59.94485074,628b806c463b948bc644b84f,629afaaf6df5dd777645c0e7,,,,,,,,,,X V Q F H G B L J M P D K C T S W R N Z,,,,,,,,,,,,,,,,,,,,,,,,,,,,,,,,,,,,,,,,,,,,,,,,,,,0,0,0,0,1,,,,,,,,,,,,,,,,,,,,,,,,,,,,,,,,,,,,,,
,,,,,,,,,,5f1b2fe23bcef80c38d2a362,25,Kobieta,2022-06-04_08h29.28.176,task,2021.1.4,Win32,59.94485074,628b806c463b948bc644b84f,629afaaf6df5dd777645c0e7,,,,,,,,,,,,,,,,,,,,,,,4,,,,,,,,,,Practice,4,(8/4) + 1,3,,,,,,,,,,,,,,,,"[""4""]",0,[2.3544999999999163],0,0,0,0,3,1,,,,,,,,,,,,,,,,,,,,,,,,,,,,,,,,,,,,,,,,,,,
,,,,,,,,,,5f1b2fe23bcef80c38d2a362,25,Kobieta,2022-06-04_08h29.28.176,task,2021.1.4,Win32,59.94485074,628b806c463b948bc644b84f,629afaaf6df5dd777645c0e7,,,,,,,,,,,,,,,,,,,,,,,1,,,,,,,,,,Practice,2,(4x4) - 15,1,,,,,,,,,,,,,,,,"[""1""]",1,[1.8252999999970143],1,0,1,1,1,1,,,,,,,,,,,,,,,,,,,,,,,,,,,,,,,,,,,,,,,,,,,
,,,,,,,,,,5f1b2fe23bcef80c38d2a362,25,Kobieta,2022-06-04_08h29.28.176,task,2021.1.4,Win32,59.94485074,628b806c463b948bc644b84f,629afaaf6df5dd777645c0e7,,,,,,,,,,X V Q F H G B L J M P D K C T S W R N Z,,,,,,,,,,,,,,,,,,,,,,,,,,,,,,,,,,,,,,,,,,,,,,,,,,,1,0,1,0,1,,,,,,,,,,,,,,,,,,,,,,,,,,,,,,,,,,,,,,
,,,,,,,,,,5f1b2fe23bcef80c38d2a362,25,Kobieta,2022-06-04_08h29.28.176,task,2021.1.4,Win32,59.94485074,628b806c463b948bc644b84f,629afaaf6df5dd777645c0e7,,,,,,,,,,,,,,,,,,,,,,,,,,,,,,,,,,,,,,,,,,,,,,,,,,,,,,,,,,,,,,,,,,kbk,"[""k"",""b"",""k""]",0,"[3.5731000000089352,7.605800000011982,7.76310000000899,12.220100000008983]",0,2,0,2,0,1,,,,,,,,,,,,,,,,,,,,,,,,,,,,
,,,,,,,,,,5f1b2fe23bcef80c38d2a362,25,Kobieta,2022-06-04_08h29.28.176,task,2021.1.4,Win32,59.94485074,628b806c463b948bc644b84f,629afaaf6df5dd777645c0e7,,,,,,,,,,,,,,,,,,,,,,,9,,,,,,,,,,Practice,10,(20/2) - 1,9,,,,,,,,,,,,,,,,"[""9""]",1,[1.8036000000089416],1,0,0,0,9,1,,,,,,,,,,,,,,,,,,,,,,,,,,,,,,,,,,,,,,,,,,,
,,,,,,,,,,5f1b2fe23bcef80c38d2a362,25,Kobieta,2022-06-04_08h29.28.176,task,2021.1.4,Win32,59.94485074,628b806c463b948bc644b84f,629afaaf6df5dd777645c0e7,,,,,,,,,,X V Q F H G B L J M P D K C T S W R N Z,,,,,,,,,,,,,,,,,,,,,,,,,,,,,,,,,,,,,,,,,,,,,,,,,,,0,0,0,0,1,,,,,,,,,,,,,,,,,,,,,,,,,,,,,,,,,,,,,,
,,,,,,,,,,5f1b2fe23bcef80c38d2a362,25,Kobieta,2022-06-04_08h29.28.176,task,2021.1.4,Win32,59.94485074,628b806c463b948bc644b84f,629afaaf6df5dd777645c0e7,,,,,,,,,,,,,,,,,,,,,,,4,,,,,,,,,,Practice,5,(2x6) - 8,4,,,,,,,,,,,,,,,,"[""4""]",1,[2.3822999999970307],1,0,0,0,4,1,,,,,,,,,,,,,,,,,,,,,,,,,,,,,,,,,,,,,,,,,,,
,,,,,,,,,,5f1b2fe23bcef80c38d2a362,25,Kobieta,2022-06-04_08h29.28.176,task,2021.1.4,Win32,59.94485074,628b806c463b948bc644b84f,629afaaf6df5dd777645c0e7,,,,,,,,,,X V Q F H G B L J M P D K C T S W R N Z,,,,,,,,,,,,,,,,,,,,,,,,,,,,,,,,,,,,,,,,,,,,,,,,,,,1,0,1,0,1,,,,,,,,,,,,,,,,,,,,,,,,,,,,,,,,,,,,,,
,,,,,,,,,,5f1b2fe23bcef80c38d2a362,25,Kobieta,2022-06-04_08h29.28.176,task,2021.1.4,Win32,59.94485074,628b806c463b948bc644b84f,629afaaf6df5dd777645c0e7,,,,,,,,,,,,,,,,,,,,,,,,,,,,,,,,,,,,,,,,,,,,,,,,,,,,,,,,,,,,,,,,,,lm,"[""l"",""m""]",0,"[4.2554000000059204,4.494800000011878,5.605800000011868]",1,3,0,3,0,1,,,,,,,,,,,,,,,,,,,,,,,,,,,,
,,,,,,,,,,5f1b2fe23bcef80c38d2a362,25,Kobieta,2022-06-04_08h29.28.176,task,2021.1.4,Win32,59.94485074,628b806c463b948bc644b84f,629afaaf6df5dd777645c0e7,,,,,,,,,,,,,,,,,,,,,,,7,,,,,,,,,,Practice,8,(5x5) - 18,7,,,,,,,,,,,,,,,,"[""7""]",1,[2.7896000000089316],1,0,0,0,7,1,,,,,,,,,,,,,,,,,,,,,,,,,,,,,,,,,,,,,,,,,,,
,,,,,,,,,,5f1b2fe23bcef80c38d2a362,25,Kobieta,2022-06-04_08h29.28.176,task,2021.1.4,Win32,59.94485074,628b806c463b948bc644b84f,629afaaf6df5dd777645c0e7,,,,,,,,,,X V Q F H G B L J M P D K C T S W R N Z,,,,,,,,,,,,,,,,,,,,,,,,,,,,,,,,,,,,,,,,,,,,,,,,,,,0,0,0,0,1,,,,,,,,,,,,,,,,,,,,,,,,,,,,,,,,,,,,,,
,,,,,,,,,,5f1b2fe23bcef80c38d2a362,25,Kobieta,2022-06-04_08h29.28.176,task,2021.1.4,Win32,59.94485074,628b806c463b948bc644b84f,629afaaf6df5dd777645c0e7,,,,,,,,,,,,,,,,,,,,,,,0,,,,,,,,,,Practice,1,(3x3) -  9,0,,,,,,,,,,,,,,,,"[""0""]",1,[1.9049999999999727],1,0,0,0,0,1,,,,,,,,,,,,,,,,,,,,,,,,,,,,,,,,,,,,,,,,,,,
,,,,,,,,,,5f1b2fe23bcef80c38d2a362,25,Kobieta,2022-06-04_08h29.28.176,task,2021.1.4,Win32,59.94485074,628b806c463b948bc644b84f,629afaaf6df5dd777645c0e7,,,,,,,,,,X V Q F H G B L J M P D K C T S W R N Z,,,,,,,,,,,,,,,,,,,,,,,,,,,,,,,,,,,,,,,,,,,,,,,,,,,1,0,1,0,1,,,,,,,,,,,,,,,,,,,,,,,,,,,,,,,,,,,,,,
,,,,,,,,,,5f1b2fe23bcef80c38d2a362,25,Kobieta,2022-06-04_08h29.28.176,task,2021.1.4,Win32,59.94485074,628b806c463b948bc644b84f,629afaaf6df5dd777645c0e7,,,,,,,,,,,,,,,,,,,,,,,,,,,,,,,,,,,,,,,,,,,,,,,,,,,,,,,,,,,,,,,,,,qp,"[""q"",""p""]",0,"[2.0228999999910684,2.589099999994005,4.449299999996924]",1,4,0,4,0,1,,,,,,,,,,,,,,,,,,,,,,,,,,,,
,,,,,,,,,,5f1b2fe23bcef80c38d2a362,25,Kobieta,2022-06-04_08h29.28.176,task,2021.1.4,Win32,59.94485074,628b806c463b948bc644b84f,629afaaf6df5dd777645c0e7,,,,,,,,,,,,,,,,,,,,,,,2,,,,,,,,,,Practice,3,(4x4) - 14,2,,,,,,,,,,,,,,,,"[""2""]",1,[2.2774000000059686],1,0,0,0,2,1,,,,,,,,,,,,,,,,,,,,,,,,,,,,,,,,,,,,,,,,,,,
,,,,,,,,,,5f1b2fe23bcef80c38d2a362,25,Kobieta,2022-06-04_08h29.28.176,task,2021.1.4,Win32,59.94485074,628b806c463b948bc644b84f,629afaaf6df5dd777645c0e7,,,,,,,,,,X V Q F H G B L J M P D K C T S W R N Z,,,,,,,,,,,,,,,,,,,,,,,,,,,,,,,,,,,,,,,,,,,,,,,,,,,0,0,0,0,1,,,,,,,,,,,,,,,,,,,,,,,,,,,,,,,,,,,,,,
,,,,,,,,,,5f1b2fe23bcef80c38d2a362,25,Kobieta,2022-06-04_08h29.28.176,task,2021.1.4,Win32,59.94485074,628b806c463b948bc644b84f,629afaaf6df5dd777645c0e7,,,,,,,,,,,,,,,,,,,,,,,2,,,,,,,,,,Practice,3,(4x4) - 14,2,,,,,,,,,,,,,,,,"[""2""]",1,[2.286600000008889],1,0,0,0,2,1,,,,,,,,,,,,,,,,,,,,,,,,,,,,,,,,,,,,,,,,,,,
,,,,,,,,,,5f1b2fe23bcef80c38d2a362,25,Kobieta,2022-06-04_08h29.28.176,task,2021.1.4,Win32,59.94485074,628b806c463b948bc644b84f,629afaaf6df5dd777645c0e7,,,,,,,,,,X V Q F H G B L J M P D K C T S W R N Z,,,,,,,,,,,,,,,,,,,,,,,,,,,,,,,,,,,,,,,,,,,,,,,,,,,1,0,1,0,1,,,,,,,,,,,,,,,,,,,,,,,,,,,,,,,,,,,,,,
,,,,,,,,,,5f1b2fe23bcef80c38d2a362,25,Kobieta,2022-06-04_08h29.28.176,task,2021.1.4,Win32,59.94485074,628b806c463b948bc644b84f,629afaaf6df5dd777645c0e7,,,,,,,,,,,,,,,,,,,,,,,,,,,,,,,,,,,,,,,,,,,,,,,,,,,,,,,,,,,,,,,,,,lk,"[""l"",""k""]",0,"[3.513499999999908,3.764499999999998,5.398899999991045]",1,5,0,5,0,1,,,,,,,,,,,,,,,,,,,,,,,,,,,,
,,,,,,,,,,5f1b2fe23bcef80c38d2a362,25,Kobieta,2022-06-04_08h29.28.176,task,2021.1.4,Win32,59.94485074,628b806c463b948bc644b84f,629afaaf6df5dd777645c0e7,,,,,,,,,,,,,,,,,,,,,,,7,,,,,,,,,,Task,34,(9/3) - 2,1,,,,,,,,,,,,,,,,,,,0,,,,,,,,,,,,,,,,,,,,,space,20.293,"[""7""]",0,[2.119200000002934],0,0,0,33,1,,,,,,,,,,,,,,,,,,
,,,,,,,,,,5f1b2fe23bcef80c38d2a362,25,Kobieta,2022-06-04_08h29.28.176,task,2021.1.4,Win32,59.94485074,628b806c463b948bc644b84f,629afaaf6df5dd777645c0e7,,,,,,,,,,,,,,,,,,,,,,,6,,,,,,,,,,Task,13,(3x4) - 6,6,,,,,,,,,,,,,,,,,,,1,,,,,,,,,,,,,,,,,,,,,,,"[""6""]",1,[2.672599999993963],0,1,1,12,1,,,,,,,,,,,,,,,,,,
,,,,,,,,,,5f1b2fe23bcef80c38d2a362,25,Kobieta,2022-06-04_08h29.28.176,task,2021.1.4,Win32,59.94485074,628b806c463b948bc644b84f,629afaaf6df5dd777645c0e7,,,,,,,,,,X V Q F H G B L J M P D K C T S W R N Z,,,,,,,,,,,,,,,,,,,,,,,,,,,,,,,,,,,,,,,,,,,,,,,,,,,,,,,,,,,,,,,,,,,,,,,,,,,,0,0,0,0,1,,,,,,,,,,,,,
,,,,,,,,,,5f1b2fe23bcef80c38d2a362,25,Kobieta,2022-06-04_08h29.28.176,task,2021.1.4,Win32,59.94485074,628b806c463b948bc644b84f,629afaaf6df5dd777645c0e7,,,,,,,,,,,,,,,,,,,,,,,4,,,,,,,,,,Task,4,(1x5) - 1,4,,,,,,,,,,,,,,,,,,,1,,,,,,,,,,,,,,,,,,,,,,,"[""4""]",1,[2.4582000000029893],0,0,0,3,1,,,,,,,,,,,,,,,,,,
,,,,,,,,,,5f1b2fe23bcef80c38d2a362,25,Kobieta,2022-06-04_08h29.28.176,task,2021.1.4,Win32,59.94485074,628b806c463b948bc644b84f,629afaaf6df5dd777645c0e7,,,,,,,,,,X V Q F H G B L J M P D K C T S W R N Z,,,,,,,,,,,,,,,,,,,,,,,,,,,,,,,,,,,,,,,,,,,,,,,,,,,,,,,,,,,,,,,,,,,,,,,,,,,,1,0,1,0,1,,,,,,,,,,,,,
,,,,,,,,,,5f1b2fe23bcef80c38d2a362,25,Kobieta,2022-06-04_08h29.28.176,task,2021.1.4,Win32,59.94485074,628b806c463b948bc644b84f,629afaaf6df5dd777645c0e7,,,,,,,,,,,,,,,,,,,,,,,,,,,,,,,,,,,,,,,,,,,,,,,,,,,,,,,,,,,,,,,,,,,,,,,,,,,,,,,,,,,,,,,,,,,zc,"[""z"",""c""]",0,"[5.403900000006047,8.394499999999994,10.763200000003053]",1,ZC,0,0,0,0,1,,
,,,,,,,,,,5f1b2fe23bcef80c38d2a362,25,Kobieta,2022-06-04_08h29.28.176,task,2021.1.4,Win32,59.94485074,628b806c463b948bc644b84f,629afaaf6df5dd777645c0e7,,,,,,,,,,,,,,,,,,,,,,,7,,,,,,,,,,Task,14,(2x2) + 3,7,,,,,,,,,,,,,,,,,,,1,,,,,,,,,,,,,,,,,,,,,,,"[""7""]",1,[2.411400000005983],0,0,0,13,1,,,,,,,,,,,,,,,,,,
,,,,,,,,,,5f1b2fe23bcef80c38d2a362,25,Kobieta,2022-06-04_08h29.28.176,task,2021.1.4,Win32,59.94485074,628b806c463b948bc644b84f,629afaaf6df5dd777645c0e7,,,,,,,,,,X V Q F H G B L J M P D K C T S W R N Z,,,,,,,,,,,,,,,,,,,,,,,,,,,,,,,,,,,,,,,,,,,,,,,,,,,,,,,,,,,,,,,,,,,,,,,,,,,,0,0,0,0,1,,,,,,,,,,,,,
,,,,,,,,,,5f1b2fe23bcef80c38d2a362,25,Kobieta,2022-06-04_08h29.28.176,task,2021.1.4,Win32,59.94485074,628b806c463b948bc644b84f,629afaaf6df5dd777645c0e7,,,,,,,,,,,,,,,,,,,,,,,0,,,,,,,,,,Task,17,(2x3) - 6,0,,,,,,,,,,,,,,,,,,,1,,,,,,,,,,,,,,,,,,,,,,,"[""0""]",1,[2.3556000000089625],0,0,0,16,1,,,,,,,,,,,,,,,,,,
,,,,,,,,,,5f1b2fe23bcef80c38d2a362,25,Kobieta,2022-06-04_08h29.28.176,task,2021.1.4,Win32,59.94485074,628b806c463b948bc644b84f,629afaaf6df5dd777645c0e7,,,,,,,,,,X V Q F H G B L J M P D K C T S W R N Z,,,,,,,,,,,,,,,,,,,,,,,,,,,,,,,,,,,,,,,,,,,,,,,,,,,,,,,,,,,,,,,,,,,,,,,,,,,,1,0,1,0,1,,,,,,,,,,,,,
,,,,,,,,,,5f1b2fe23bcef80c38d2a362,25,Kobieta,2022-06-04_08h29.28.176,task,2021.1.4,Win32,59.94485074,628b806c463b948bc644b84f,629afaaf6df5dd777645c0e7,,,,,,,,,,,,,,,,,,,,,,,,,,,,,,,,,Task,15,(3x7) - 13,8,,,,,,,,,,,,,,,,,,,0,,,,,,,,,,,,,,,,,,,,,,,,0,,0,0,0,14,1,,,,,,,,,,,,,,,,,,
,,,,,,,,,,5f1b2fe23bcef80c38d2a362,25,Kobieta,2022-06-04_08h29.28.176,task,2021.1.4,Win32,59.94485074,628b806c463b948bc644b84f,629afaaf6df5dd777645c0e7,,,,,,,,,,,,,,,,,,,,,,,4,,,,,,,,,,Task,4,(1x5) - 1,4,,,,,,,,,,,,,,,,,,,1,,,,,,,,,,,,,,,,,,,,,,,"[""4""]",1,[2.286000000000058],0,1,1,3,1,,,,,,,,,,,,,,,,,,
,,,,,,,,,,5f1b2fe23bcef80c38d2a362,25,Kobieta,2022-06-04_08h29.28.176,task,2021.1.4,Win32,59.94485074,628b806c463b948bc644b84f,629afaaf6df5dd777645c0e7,,,,,,,,,,X V Q F H G B L J M P D K C T S W R N Z,,,,,,,,,,,,,,,,,,,,,,,,,,,,,,,,,,,,,,,,,,,,,,,,,,,,,,,,,,,,,,,,,,,,,,,,,,,,2,0,2,0,1,,,,,,,,,,,,,
,,,,,,,,,,5f1b2fe23bcef80c38d2a362,25,Kobieta,2022-06-04_08h29.28.176,task,2021.1.4,Win32,59.94485074,628b806c463b948bc644b84f,629afaaf6df5dd777645c0e7,,,,,,,,,,,,,,,,,,,,,,,,,,,,,,,,,,,,,,,,,,,,,,,,,,,,,,,,,,,,,,,,,,,,,,,,,,,,,,,,,,,,,,,,,,,tww,"[""t"",""w"",""w""]",0,"[4.228200000002971,4.53809999999396,6.471099999993953,9.44009999999389]",1,TWW,1,0,1,0,1,,
,,,,,,,,,,5f1b2fe23bcef80c38d2a362,25,Kobieta,2022-06-04_08h29.28.176,task,2021.1.4,Win32,59.94485074,628b806c463b948bc644b84f,629afaaf6df5dd777645c0e7,,,,,,,,,,,,,,,,,,,,,,,1,,,,,,,,,,Task,9,(3x7) - 20,1,,,,,,,,,,,,,,,,,,,1,,,,,,,,,,,,,,,,,,,,,,,"[""1""]",1,[2.219299999996906],0,0,0,8,1,,,,,,,,,,,,,,,,,,
,,,,,,,,,,5f1b2fe23bcef80c38d2a362,25,Kobieta,2022-06-04_08h29.28.176,task,2021.1.4,Win32,59.94485074,628b806c463b948bc644b84f,629afaaf6df5dd777645c0e7,,,,,,,,,,X V Q F H G B L J M P D K C T S W R N Z,,,,,,,,,,,,,,,,,,,,,,,,,,,,,,,,,,,,,,,,,,,,,,,,,,,,,,,,,,,,,,,,,,,,,,,,,,,,0,0,0,0,1,,,,,,,,,,,,,
,,,,,,,,,,5f1b2fe23bcef80c38d2a362,25,Kobieta,2022-06-04_08h29.28.176,task,2021.1.4,Win32,59.94485074,628b806c463b948bc644b84f,629afaaf6df5dd777645c0e7,,,,,,,,,,,,,,,,,,,,,,,6,,,,,,,,,,Task,5,(2x3) + 0,6,,,,,,,,,,,,,,,,,,,1,,,,,,,,,,,,,,,,,,,,,,,"[""6""]",1,[4.822999999999865],0,0,0,4,1,,,,,,,,,,,,,,,,,,
,,,,,,,,,,5f1b2fe23bcef80c38d2a362,25,Kobieta,2022-06-04_08h29.28.176,task,2021.1.4,Win32,59.94485074,628b806c463b948bc644b84f,629afaaf6df5dd777645c0e7,,,,,,,,,,X V Q F H G B L J M P D K C T S W R N Z,,,,,,,,,,,,,,,,,,,,,,,,,,,,,,,,,,,,,,,,,,,,,,,,,,,,,,,,,,,,,,,,,,,,,,,,,,,,1,0,1,0,1,,,,,,,,,,,,,
,,,,,,,,,,5f1b2fe23bcef80c38d2a362,25,Kobieta,2022-06-04_08h29.28.176,task,2021.1.4,Win32,59.94485074,628b806c463b948bc644b84f,629afaaf6df5dd777645c0e7,,,,,,,,,,,,,,,,,,,,,,,3,,,,,,,,,,Task,27,(3/3) + 2,3,,,,,,,,,,,,,,,,,,,1,,,,,,,,,,,,,,,,,,,,,,,"[""3""]",1,[4.2522999999969215],0,0,0,26,1,,,,,,,,,,,,,,,,,,
,,,,,,,,,,5f1b2fe23bcef80c38d2a362,25,Kobieta,2022-06-04_08h29.28.176,task,2021.1.4,Win32,59.94485074,628b806c463b948bc644b84f,629afaaf6df5dd777645c0e7,,,,,,,,,,X V Q F H G B L J M P D K C T S W R N Z,,,,,,,,,,,,,,,,,,,,,,,,,,,,,,,,,,,,,,,,,,,,,,,,,,,,,,,,,,,,,,,,,,,,,,,,,,,,2,0,2,0,1,,,,,,,,,,,,,
,,,,,,,,,,5f1b2fe23bcef80c38d2a362,25,Kobieta,2022-06-04_08h29.28.176,task,2021.1.4,Win32,59.94485074,628b806c463b948bc644b84f,629afaaf6df5dd777645c0e7,,,,,,,,,,,,,,,,,,,,,,,1,,,,,,,,,,Task,18,(16/4) - 3,1,,,,,,,,,,,,,,,,,,,1,,,,,,,,,,,,,,,,,,,,,,,"[""1""]",1,[3.2201000000088698],0,0,0,17,1,,,,,,,,,,,,,,,,,,
,,,,,,,,,,5f1b2fe23bcef80c38d2a362,25,Kobieta,2022-06-04_08h29.28.176,task,2021.1.4,Win32,59.94485074,628b806c463b948bc644b84f,629afaaf6df5dd777645c0e7,,,,,,,,,,X V Q F H G B L J M P D K C T S W R N Z,,,,,,,,,,,,,,,,,,,,,,,,,,,,,,,,,,,,,,,,,,,,,,,,,,,,,,,,,,,,,,,,,,,,,,,,,,,,3,0,3,0,1,,,,,,,,,,,,,
,,,,,,,,,,5f1b2fe23bcef80c38d2a362,25,Kobieta,2022-06-04_08h29.28.176,task,2021.1.4,Win32,59.94485074,628b806c463b948bc644b84f,629afaaf6df5dd777645c0e7,,,,,,,,,,,,,,,,,,,,,,,,,,,,,,,,,,,,,,,,,,,,,,,,,,,,,,,,,,,,,,,,,,,,,,,,,,,,,,,,,,,,,,,,,,,wscd,"[""w"",""s"",""c"",""d""]",0,"[5.827599999994163,6.027599999994209,6.295000000000073,6.5139000000060605,10.12970000000314]",1,WSCD,2,0,2,0,1,,
,,,,,,,,,,5f1b2fe23bcef80c38d2a362,25,Kobieta,2022-06-04_08h29.28.176,task,2021.1.4,Win32,59.94485074,628b806c463b948bc644b84f,629afaaf6df5dd777645c0e7,,,,,,,,,,,,,,,,,,,,,,,9,,,,,,,,,,Task,40,(7x2) - 5,9,,,,,,,,,,,,,,,,,,,1,,,,,,,,,,,,,,,,,,,,,,,"[""9""]",1,[3.480299999996987],0,0,0,39,1,,,,,,,,,,,,,,,,,,
,,,,,,,,,,5f1b2fe23bcef80c38d2a362,25,Kobieta,2022-06-04_08h29.28.176,task,2021.1.4,Win32,59.94485074,628b806c463b948bc644b84f,629afaaf6df5dd777645c0e7,,,,,,,,,,X V Q F H G B L J M P D K C T S W R N Z,,,,,,,,,,,,,,,,,,,,,,,,,,,,,,,,,,,,,,,,,,,,,,,,,,,,,,,,,,,,,,,,,,,,,,,,,,,,0,0,0,0,1,,,,,,,,,,,,,
,,,,,,,,,,5f1b2fe23bcef80c38d2a362,25,Kobieta,2022-06-04_08h29.28.176,task,2021.1.4,Win32,59.94485074,628b806c463b948bc644b84f,629afaaf6df5dd777645c0e7,,,,,,,,,,,,,,,,,,,,,,,8,,,,,,,,,,Task,39,(5x3) - 7,8,,,,,,,,,,,,,,,,,,,1,,,,,,,,,,,,,,,,,,,,,,,"[""8""]",1,[2.4402000000029602],0,0,0,38,1,,,,,,,,,,,,,,,,,,
,,,,,,,,,,5f1b2fe23bcef80c38d2a362,25,Kobieta,2022-06-04_08h29.28.176,task,2021.1.4,Win32,59.94485074,628b806c463b948bc644b84f,629afaaf6df5dd777645c0e7,,,,,,,,,,X V Q F H G B L J M P D K C T S W R N Z,,,,,,,,,,,,,,,,,,,,,,,,,,,,,,,,,,,,,,,,,,,,,,,,,,,,,,,,,,,,,,,,,,,,,,,,,,,,1,0,1,0,1,,,,,,,,,,,,,
,,,,,,,,,,5f1b2fe23bcef80c38d2a362,25,Kobieta,2022-06-04_08h29.28.176,task,2021.1.4,Win32,59.94485074,628b806c463b948bc644b84f,629afaaf6df5dd777645c0e7,,,,,,,,,,,,,,,,,,,,,,,8,,,,,,,,,,Task,39,(5x3) - 7,8,,,,,,,,,,,,,,,,,,,1,,,,,,,,,,,,,,,,,,,,,,,"[""8""]",1,[2.955500000000029],0,0,0,38,1,,,,,,,,,,,,,,,,,,
,,,,,,,,,,5f1b2fe23bcef80c38d2a362,25,Kobieta,2022-06-04_08h29.28.176,task,2021.1.4,Win32,59.94485074,628b806c463b948bc644b84f,629afaaf6df5dd777645c0e7,,,,,,,,,,X V Q F H G B L J M P D K C T S W R N Z,,,,,,,,,,,,,,,,,,,,,,,,,,,,,,,,,,,,,,,,,,,,,,,,,,,,,,,,,,,,,,,,,,,,,,,,,,,,2,0,2,0,1,,,,,,,,,,,,,
,,,,,,,,,,5f1b2fe23bcef80c38d2a362,25,Kobieta,2022-06-04_08h29.28.176,task,2021.1.4,Win32,59.94485074,628b806c463b948bc644b84f,629afaaf6df5dd777645c0e7,,,,,,,,,,,,,,,,,,,,,,,9,,,,,,,,,,Task,40,(7x2) - 5,9,,,,,,,,,,,,,,,,,,,1,,,,,,,,,,,,,,,,,,,,,,,"[""9""]",1,[3.6908999999911885],0,0,0,39,1,,,,,,,,,,,,,,,,,,
,,,,,,,,,,5f1b2fe23bcef80c38d2a362,25,Kobieta,2022-06-04_08h29.28.176,task,2021.1.4,Win32,59.94485074,628b806c463b948bc644b84f,629afaaf6df5dd777645c0e7,,,,,,,,,,X V Q F H G B L J M P D K C T S W R N Z,,,,,,,,,,,,,,,,,,,,,,,,,,,,,,,,,,,,,,,,,,,,,,,,,,,,,,,,,,,,,,,,,,,,,,,,,,,,3,0,3,0,1,,,,,,,,,,,,,
,,,,,,,,,,5f1b2fe23bcef80c38d2a362,25,Kobieta,2022-06-04_08h29.28.176,task,2021.1.4,Win32,59.94485074,628b806c463b948bc644b84f,629afaaf6df5dd777645c0e7,,,,,,,,,,,,,,,,,,,,,,,1,,,,,,,,,,Task,9,(3x7) - 20,1,,,,,,,,,,,,,,,,,,,1,,,,,,,,,,,,,,,,,,,,,,,"[""1""]",1,[2.315899999990961],0,0,0,8,1,,,,,,,,,,,,,,,,,,
,,,,,,,,,,5f1b2fe23bcef80c38d2a362,25,Kobieta,2022-06-04_08h29.28.176,task,2021.1.4,Win32,59.94485074,628b806c463b948bc644b84f,629afaaf6df5dd777645c0e7,,,,,,,,,,X V Q F H G B L J M P D K C T S W R N Z,,,,,,,,,,,,,,,,,,,,,,,,,,,,,,,,,,,,,,,,,,,,,,,,,,,,,,,,,,,,,,,,,,,,,,,,,,,,4,0,4,0,1,,,,,,,,,,,,,
,,,,,,,,,,5f1b2fe23bcef80c38d2a362,25,Kobieta,2022-06-04_08h29.28.176,task,2021.1.4,Win32,59.94485074,628b806c463b948bc644b84f,629afaaf6df5dd777645c0e7,,,,,,,,,,,,,,,,,,,,,,,,,,,,,,,,,,,,,,,,,,,,,,,,,,,,,,,,,,,,,,,,,,,,,,,,,,,,,,,,,,,,,,,,,,,sbtf,"[""s"",""b"",""t"",""f""]",0,"[5.526999999999816,6.085499999999911,6.430700000002844,9.176500000000033,11.797400000005837]",0,SBTFT,3,0,3,0,1,,
,,,,,,,,,,5f1b2fe23bcef80c38d2a362,25,Kobieta,2022-06-04_08h29.28.176,task,2021.1.4,Win32,59.94485074,628b806c463b948bc644b84f,629afaaf6df5dd777645c0e7,,,,,,,,,,,,,,,,,,,,,,,5,,,,,,,,,,Task,1,(12/6) - 1,1,,,,,,,,,,,,,,,,,,,0,,,,,,,,,,,,,,,,,,,,,,,"[""5""]",0,[2.5722999999970853],0,0,0,0,1,,,,,,,,,,,,,,,,,,
,,,,,,,,,,5f1b2fe23bcef80c38d2a362,25,Kobieta,2022-06-04_08h29.28.176,task,2021.1.4,Win32,59.94485074,628b806c463b948bc644b84f,629afaaf6df5dd777645c0e7,,,,,,,,,,,,,,,,,,,,,,,3,,,,,,,,,,Task,12,(4x4) - 11,5,,,,,,,,,,,,,,,,,,,0,,,,,,,,,,,,,,,,,,,,,,,"[""3""]",0,[3.794099999993932],0,1,1,11,1,,,,,,,,,,,,,,,,,,
,,,,,,,,,,5f1b2fe23bcef80c38d2a362,25,Kobieta,2022-06-04_08h29.28.176,task,2021.1.4,Win32,59.94485074,628b806c463b948bc644b84f,629afaaf6df5dd777645c0e7,,,,,,,,,,,,,,,,,,,,,,,2,,,,,,,,,,Task,19,(6/2) - 1,2,,,,,,,,,,,,,,,,,,,1,,,,,,,,,,,,,,,,,,,,,,,"[""2""]",1,[2.961099999994076],0,2,2,18,1,,,,,,,,,,,,,,,,,,
,,,,,,,,,,5f1b2fe23bcef80c38d2a362,25,Kobieta,2022-06-04_08h29.28.176,task,2021.1.4,Win32,59.94485074,628b806c463b948bc644b84f,629afaaf6df5dd777645c0e7,,,,,,,,,,X V Q F H G B L J M P D K C T S W R N Z,,,,,,,,,,,,,,,,,,,,,,,,,,,,,,,,,,,,,,,,,,,,,,,,,,,,,,,,,,,,,,,,,,,,,,,,,,,,0,0,0,0,1,,,,,,,,,,,,,
,,,,,,,,,,5f1b2fe23bcef80c38d2a362,25,Kobieta,2022-06-04_08h29.28.176,task,2021.1.4,Win32,59.94485074,628b806c463b948bc644b84f,629afaaf6df5dd777645c0e7,,,,,,,,,,,,,,,,,,,,,,,9,,,,,,,,,,Task,24,(2x2) + 5,9,,,,,,,,,,,,,,,,,,,1,,,,,,,,,,,,,,,,,,,,,,,"[""9""]",1,[2.194299999996929],0,0,0,23,1,,,,,,,,,,,,,,,,,,
,,,,,,,,,,5f1b2fe23bcef80c38d2a362,25,Kobieta,2022-06-04_08h29.28.176,task,2021.1.4,Win32,59.94485074,628b806c463b948bc644b84f,629afaaf6df5dd777645c0e7,,,,,,,,,,X V Q F H G B L J M P D K C T S W R N Z,,,,,,,,,,,,,,,,,,,,,,,,,,,,,,,,,,,,,,,,,,,,,,,,,,,,,,,,,,,,,,,,,,,,,,,,,,,,1,0,1,0,1,,,,,,,,,,,,,
,,,,,,,,,,5f1b2fe23bcef80c38d2a362,25,Kobieta,2022-06-04_08h29.28.176,task,2021.1.4,Win32,59.94485074,628b806c463b948bc644b84f,629afaaf6df5dd777645c0e7,,,,,,,,,,,,,,,,,,,,,,,0,,,,,,,,,,Task,8,(1x5) - 5,0,,,,,,,,,,,,,,,,,,,1,,,,,,,,,,,,,,,,,,,,,,,"[""0""]",1,[2.157300000011901],0,0,0,7,1,,,,,,,,,,,,,,,,,,
,,,,,,,,,,5f1b2fe23bcef80c38d2a362,25,Kobieta,2022-06-04_08h29.28.176,task,2021.1.4,Win32,59.94485074,628b806c463b948bc644b84f,629afaaf6df5dd777645c0e7,,,,,,,,,,X V Q F H G B L J M P D K C T S W R N Z,,,,,,,,,,,,,,,,,,,,,,,,,,,,,,,,,,,,,,,,,,,,,,,,,,,,,,,,,,,,,,,,,,,,,,,,,,,,2,0,2,0,1,,,,,,,,,,,,,
,,,,,,,,,,5f1b2fe23bcef80c38d2a362,25,Kobieta,2022-06-04_08h29.28.176,task,2021.1.4,Win32,59.94485074,628b806c463b948bc644b84f,629afaaf6df5dd777645c0e7,,,,,,,,,,,,,,,,,,,,,,,2,,,,,,,,,,Task,10,(2x5) - 8,2,,,,,,,,,,,,,,,,,,,1,,,,,,,,,,,,,,,,,,,,,,,"[""2""]",1,[2.2881999999881373],0,0,0,9,1,,,,,,,,,,,,,,,,,,
,,,,,,,,,,5f1b2fe23bcef80c38d2a362,25,Kobieta,2022-06-04_08h29.28.176,task,2021.1.4,Win32,59.94485074,628b806c463b948bc644b84f,629afaaf6df5dd777645c0e7,,,,,,,,,,X V Q F H G B L J M P D K C T S W R N Z,,,,,,,,,,,,,,,,,,,,,,,,,,,,,,,,,,,,,,,,,,,,,,,,,,,,,,,,,,,,,,,,,,,,,,,,,,,,3,0,3,0,1,,,,,,,,,,,,,
,,,,,,,,,,5f1b2fe23bcef80c38d2a362,25,Kobieta,2022-06-04_08h29.28.176,task,2021.1.4,Win32,59.94485074,628b806c463b948bc644b84f,629afaaf6df5dd777645c0e7,,,,,,,,,,,,,,,,,,,,,,,2,,,,,,,,,,Task,19,(6/2) - 1,2,,,,,,,,,,,,,,,,,,,1,,,,,,,,,,,,,,,,,,,,,,,"[""2""]",1,[2.605400000006057],0,0,0,18,1,,,,,,,,,,,,,,,,,,
,,,,,,,,,,5f1b2fe23bcef80c38d2a362,25,Kobieta,2022-06-04_08h29.28.176,task,2021.1.4,Win32,59.94485074,628b806c463b948bc644b84f,629afaaf6df5dd777645c0e7,,,,,,,,,,X V Q F H G B L J M P D K C T S W R N Z,,,,,,,,,,,,,,,,,,,,,,,,,,,,,,,,,,,,,,,,,,,,,,,,,,,,,,,,,,,,,,,,,,,,,,,,,,,,4,0,4,0,1,,,,,,,,,,,,,
,,,,,,,,,,5f1b2fe23bcef80c38d2a362,25,Kobieta,2022-06-04_08h29.28.176,task,2021.1.4,Win32,59.94485074,628b806c463b948bc644b84f,629afaaf6df5dd777645c0e7,,,,,,,,,,,,,,,,,,,,,,,,,,,,,,,,,,,,,,,,,,,,,,,,,,,,,,,,,,,,,,,,,,,,,,,,,,,,,,,,,,,,,,,,,,,bxcg,"[""b"",""x"",""c"",""g""]",0,"[5.4570999999941705,6.174399999991238,9.244199999988268,9.530799999997043,14.599500000000035]",0,BXJCG,4,0,4,0,1,,
,,,,,,,,,,5f1b2fe23bcef80c38d2a362,25,Kobieta,2022-06-04_08h29.28.176,task,2021.1.4,Win32,59.94485074,628b806c463b948bc644b84f,629afaaf6df5dd777645c0e7,,,,,,,,,,,,,,,,,,,,,,,,,,,,,,,,,,,,,,,,,,,,,,,,,,,,,,,,,,,,,,,,,,,,,,,,,,,,,,,,,,,,,,,,,,,,,,,,,,,,,,space,2.8124
