key_resp_15.keys,key_resp_15.rt,key_resp_16.keys,key_resp_16.rt,key_resp_4.keys,key_resp_4.rt,next_letter.thisRepN,next_letter.thisTrialN,next_letter.thisN,next_letter.thisIndex,next_letter.ran,letter,participant,Wiek*,Płeć,date,expName,psychopyVersion,OS,frameRate,study_id,session,simple_recall,key_resp_5.keys,key_resp_5.rt,simple_recall_corr,simple_recall_corrkeys,next_level.thisRepN,next_level.thisTrialN,next_level.thisN,next_level.thisIndex,next_level.ran,key_resp_2.keys,key_resp_2.rt,digit_answer,key_resp.keys,key_resp.corr,key_resp.rt,RT_list,next_equation.thisRepN,next_equation.thisTrialN,next_equation.thisN,next_equation.thisIndex,next_equation.ran,Task,Trial,Problem,Operation_answer,processing_score,sumRT,meanRT,sumdiff,sd,RT,key_resp_3.keys,key_resp_3.rt,repeat_practice.thisRepN,repeat_practice.thisTrialN,repeat_practice.thisN,repeat_practice.thisIndex,repeat_practice.ran,key_resp_6.keys,key_resp_6.rt,key_resp_11.keys,key_resp_11.corr,key_resp_11.rt,operation_correct,repeat_if_wrong_prac.thisRepN,repeat_if_wrong_prac.thisTrialN,repeat_if_wrong_prac.thisN,repeat_if_wrong_prac.thisIndex,repeat_if_wrong_prac.ran,span_size_prac.thisRepN,span_size_prac.thisTrialN,span_size_prac.thisN,span_size_prac.thisIndex,span_size_prac.ran,complex_recall_practice,key_resp_9.keys,key_resp_9.corr,key_resp_9.rt,complex_prac_corr,span_recall_prac.thisRepN,span_recall_prac.thisTrialN,span_recall_prac.thisN,span_recall_prac.thisIndex,span_recall_prac.ran,key_resp_10.keys,key_resp_10.rt,key_resp_7.keys,key_resp_7.corr,repeat_if_wrong.thisRepN,repeat_if_wrong.thisTrialN,repeat_if_wrong.thisN,repeat_if_wrong.thisIndex,repeat_if_wrong.ran,key_resp_7.rt,span_size.thisRepN,span_size.thisTrialN,span_size.thisN,span_size.thisIndex,span_size.ran,complex_recall,key_resp_8.keys,key_resp_8.corr,key_resp_8.rt,complex_recall_corr,complex_recall_corrkeys,span_recall.thisRepN,span_recall.thisTrialN,span_recall.thisN,span_recall.thisIndex,span_recall.ran,key_resp_13.keys,key_resp_13.corr,key_resp_13.rt,random_loop.thisRepN,random_loop.thisTrialN,random_loop.thisN,random_loop.thisIndex,random_loop.ran,key_resp_12.keys,key_resp_12.rt
space,11.8098,space,15.9974,space,6.1751,0,0,0,0,1,X V Q F H G B L J M P D K C T S W R N Z,5f1fd0d33f0d5e2075724c24,19,Mężczyzna,2022-06-11_11h00.34.806,task,2021.1.4,Win32,144.0092166,6299f149e92ead563fba08ef,62a45999b417b60dae3ef579,,,,,,,,,,,,,,,,,,,,,,,,,,,,,,,,,,,,,,,,,,,,,,,,,,,,,,,,,,,,,,,,,,,,,,,,,,,,,,,,,,,,,,,,,,,,,,,,,,,,,
,,,,,,1,0,1,0,1,X V Q F H G B L J M P D K C T S W R N Z,5f1fd0d33f0d5e2075724c24,19,Mężczyzna,2022-06-11_11h00.34.806,task,2021.1.4,Win32,144.0092166,6299f149e92ead563fba08ef,62a45999b417b60dae3ef579,,,,,,,,,,,,,,,,,,,,,,,,,,,,,,,,,,,,,,,,,,,,,,,,,,,,,,,,,,,,,,,,,,,,,,,,,,,,,,,,,,,,,,,,,,,,,,,,,,,,,
,,,,,,,,,,,,5f1fd0d33f0d5e2075724c24,19,Mężczyzna,2022-06-11_11h00.34.806,task,2021.1.4,Win32,144.0092166,6299f149e92ead563fba08ef,62a45999b417b60dae3ef579,zv,"[""z"",""v""]","[3.144100000000094,3.3761000000000934,4.728100000000104]",1,ZV,0,0,0,0,1,,,,,,,,,,,,,,,,,,,,,,,,,,,,,,,,,,,,,,,,,,,,,,,,,,,,,,,,,,,,,,,,,,,,,,,,,,,,,,,,,,,,,,,,,,,
,,,,,,0,0,0,0,1,X V Q F H G B L J M P D K C T S W R N Z,5f1fd0d33f0d5e2075724c24,19,Mężczyzna,2022-06-11_11h00.34.806,task,2021.1.4,Win32,144.0092166,6299f149e92ead563fba08ef,62a45999b417b60dae3ef579,,,,,,,,,,,,,,,,,,,,,,,,,,,,,,,,,,,,,,,,,,,,,,,,,,,,,,,,,,,,,,,,,,,,,,,,,,,,,,,,,,,,,,,,,,,,,,,,,,,,,
,,,,,,1,0,1,0,1,X V Q F H G B L J M P D K C T S W R N Z,5f1fd0d33f0d5e2075724c24,19,Mężczyzna,2022-06-11_11h00.34.806,task,2021.1.4,Win32,144.0092166,6299f149e92ead563fba08ef,62a45999b417b60dae3ef579,,,,,,,,,,,,,,,,,,,,,,,,,,,,,,,,,,,,,,,,,,,,,,,,,,,,,,,,,,,,,,,,,,,,,,,,,,,,,,,,,,,,,,,,,,,,,,,,,,,,,
,,,,,,,,,,,,5f1fd0d33f0d5e2075724c24,19,Mężczyzna,2022-06-11_11h00.34.806,task,2021.1.4,Win32,144.0092166,6299f149e92ead563fba08ef,62a45999b417b60dae3ef579,qn,"[""q"",""n""]","[0.5036999999999523,0.5920999999999736,1.0157999999999276]",1,QN,1,0,1,0,1,,,,,,,,,,,,,,,,,,,,,,,,,,,,,,,,,,,,,,,,,,,,,,,,,,,,,,,,,,,,,,,,,,,,,,,,,,,,,,,,,,,,,,,,,,,
,,,,,,0,0,0,0,1,X V Q F H G B L J M P D K C T S W R N Z,5f1fd0d33f0d5e2075724c24,19,Mężczyzna,2022-06-11_11h00.34.806,task,2021.1.4,Win32,144.0092166,6299f149e92ead563fba08ef,62a45999b417b60dae3ef579,,,,,,,,,,,,,,,,,,,,,,,,,,,,,,,,,,,,,,,,,,,,,,,,,,,,,,,,,,,,,,,,,,,,,,,,,,,,,,,,,,,,,,,,,,,,,,,,,,,,,
,,,,,,1,0,1,0,1,X V Q F H G B L J M P D K C T S W R N Z,5f1fd0d33f0d5e2075724c24,19,Mężczyzna,2022-06-11_11h00.34.806,task,2021.1.4,Win32,144.0092166,6299f149e92ead563fba08ef,62a45999b417b60dae3ef579,,,,,,,,,,,,,,,,,,,,,,,,,,,,,,,,,,,,,,,,,,,,,,,,,,,,,,,,,,,,,,,,,,,,,,,,,,,,,,,,,,,,,,,,,,,,,,,,,,,,,
,,,,,,2,0,2,0,1,X V Q F H G B L J M P D K C T S W R N Z,5f1fd0d33f0d5e2075724c24,19,Mężczyzna,2022-06-11_11h00.34.806,task,2021.1.4,Win32,144.0092166,6299f149e92ead563fba08ef,62a45999b417b60dae3ef579,,,,,,,,,,,,,,,,,,,,,,,,,,,,,,,,,,,,,,,,,,,,,,,,,,,,,,,,,,,,,,,,,,,,,,,,,,,,,,,,,,,,,,,,,,,,,,,,,,,,,
,,,,,,,,,,,,5f1fd0d33f0d5e2075724c24,19,Mężczyzna,2022-06-11_11h00.34.806,task,2021.1.4,Win32,144.0092166,6299f149e92ead563fba08ef,62a45999b417b60dae3ef579,zgc,"[""z"",""g"",""c""]","[0.7780999999999807,0.9541999999999575,1.1700999999999766,1.5381999999999465]",1,ZGC,2,0,2,0,1,,,,,,,,,,,,,,,,,,,,,,,,,,,,,,,,,,,,,,,,,,,,,,,,,,,,,,,,,,,,,,,,,,,,,,,,,,,,,,,,,,,,,,,,,,,
,,,,,,0,0,0,0,1,X V Q F H G B L J M P D K C T S W R N Z,5f1fd0d33f0d5e2075724c24,19,Mężczyzna,2022-06-11_11h00.34.806,task,2021.1.4,Win32,144.0092166,6299f149e92ead563fba08ef,62a45999b417b60dae3ef579,,,,,,,,,,,,,,,,,,,,,,,,,,,,,,,,,,,,,,,,,,,,,,,,,,,,,,,,,,,,,,,,,,,,,,,,,,,,,,,,,,,,,,,,,,,,,,,,,,,,,
,,,,,,1,0,1,0,1,X V Q F H G B L J M P D K C T S W R N Z,5f1fd0d33f0d5e2075724c24,19,Mężczyzna,2022-06-11_11h00.34.806,task,2021.1.4,Win32,144.0092166,6299f149e92ead563fba08ef,62a45999b417b60dae3ef579,,,,,,,,,,,,,,,,,,,,,,,,,,,,,,,,,,,,,,,,,,,,,,,,,,,,,,,,,,,,,,,,,,,,,,,,,,,,,,,,,,,,,,,,,,,,,,,,,,,,,
,,,,,,2,0,2,0,1,X V Q F H G B L J M P D K C T S W R N Z,5f1fd0d33f0d5e2075724c24,19,Mężczyzna,2022-06-11_11h00.34.806,task,2021.1.4,Win32,144.0092166,6299f149e92ead563fba08ef,62a45999b417b60dae3ef579,,,,,,,,,,,,,,,,,,,,,,,,,,,,,,,,,,,,,,,,,,,,,,,,,,,,,,,,,,,,,,,,,,,,,,,,,,,,,,,,,,,,,,,,,,,,,,,,,,,,,
,,,,,,,,,,,,5f1fd0d33f0d5e2075724c24,19,Mężczyzna,2022-06-11_11h00.34.806,task,2021.1.4,Win32,144.0092166,6299f149e92ead563fba08ef,62a45999b417b60dae3ef579,wwg,"[""w"",""w"",""g""]","[0.4697999999999354,0.6296999999999571,0.9021999999999508,1.1500000000000057]",1,WWG,3,0,3,0,1,,,,,,,,,,,,,,,,,,,,,,,,,,,,,,,,,,,,,,,,,,,,,,,,,,,,,,,,,,,,,,,,,,,,,,,,,,,,,,,,,,,,,,,,,,,
,,,,,,0,0,0,0,1,X V Q F H G B L J M P D K C T S W R N Z,5f1fd0d33f0d5e2075724c24,19,Mężczyzna,2022-06-11_11h00.34.806,task,2021.1.4,Win32,144.0092166,6299f149e92ead563fba08ef,62a45999b417b60dae3ef579,,,,,,,,,,,,,,,,,,,,,,,,,,,,,,,,,,,,,,,,,,,,,,,,,,,,,,,,,,,,,,,,,,,,,,,,,,,,,,,,,,,,,,,,,,,,,,,,,,,,,
,,,,,,1,0,1,0,1,X V Q F H G B L J M P D K C T S W R N Z,5f1fd0d33f0d5e2075724c24,19,Mężczyzna,2022-06-11_11h00.34.806,task,2021.1.4,Win32,144.0092166,6299f149e92ead563fba08ef,62a45999b417b60dae3ef579,,,,,,,,,,,,,,,,,,,,,,,,,,,,,,,,,,,,,,,,,,,,,,,,,,,,,,,,,,,,,,,,,,,,,,,,,,,,,,,,,,,,,,,,,,,,,,,,,,,,,
,,,,,,2,0,2,0,1,X V Q F H G B L J M P D K C T S W R N Z,5f1fd0d33f0d5e2075724c24,19,Mężczyzna,2022-06-11_11h00.34.806,task,2021.1.4,Win32,144.0092166,6299f149e92ead563fba08ef,62a45999b417b60dae3ef579,,,,,,,,,,,,,,,,,,,,,,,,,,,,,,,,,,,,,,,,,,,,,,,,,,,,,,,,,,,,,,,,,,,,,,,,,,,,,,,,,,,,,,,,,,,,,,,,,,,,,
,,,,,,3,0,3,0,1,X V Q F H G B L J M P D K C T S W R N Z,5f1fd0d33f0d5e2075724c24,19,Mężczyzna,2022-06-11_11h00.34.806,task,2021.1.4,Win32,144.0092166,6299f149e92ead563fba08ef,62a45999b417b60dae3ef579,,,,,,,,,,,,,,,,,,,,,,,,,,,,,,,,,,,,,,,,,,,,,,,,,,,,,,,,,,,,,,,,,,,,,,,,,,,,,,,,,,,,,,,,,,,,,,,,,,,,,
,,,,,,,,,,,,5f1fd0d33f0d5e2075724c24,19,Mężczyzna,2022-06-11_11h00.34.806,task,2021.1.4,Win32,144.0092166,6299f149e92ead563fba08ef,62a45999b417b60dae3ef579,qvtq,"[""q"",""v"",""t"",""q""]","[0.515300000000039,0.8509999999999991,1.1709999999999923,1.418999999999997,1.675199999999947]",1,QVTQ,4,0,4,0,1,,,,,,,,,,,,,,,,,,,,,,,,,,,,,,,,,,,,,,,,,,,,,,,,,,,,,,,,,,,,,,,,,,,,,,,,,,,,,,,,,,,,,,,,,,,
,,,,,,0,0,0,0,1,X V Q F H G B L J M P D K C T S W R N Z,5f1fd0d33f0d5e2075724c24,19,Mężczyzna,2022-06-11_11h00.34.806,task,2021.1.4,Win32,144.0092166,6299f149e92ead563fba08ef,62a45999b417b60dae3ef579,,,,,,,,,,,,,,,,,,,,,,,,,,,,,,,,,,,,,,,,,,,,,,,,,,,,,,,,,,,,,,,,,,,,,,,,,,,,,,,,,,,,,,,,,,,,,,,,,,,,,
,,,,,,1,0,1,0,1,X V Q F H G B L J M P D K C T S W R N Z,5f1fd0d33f0d5e2075724c24,19,Mężczyzna,2022-06-11_11h00.34.806,task,2021.1.4,Win32,144.0092166,6299f149e92ead563fba08ef,62a45999b417b60dae3ef579,,,,,,,,,,,,,,,,,,,,,,,,,,,,,,,,,,,,,,,,,,,,,,,,,,,,,,,,,,,,,,,,,,,,,,,,,,,,,,,,,,,,,,,,,,,,,,,,,,,,,
,,,,,,2,0,2,0,1,X V Q F H G B L J M P D K C T S W R N Z,5f1fd0d33f0d5e2075724c24,19,Mężczyzna,2022-06-11_11h00.34.806,task,2021.1.4,Win32,144.0092166,6299f149e92ead563fba08ef,62a45999b417b60dae3ef579,,,,,,,,,,,,,,,,,,,,,,,,,,,,,,,,,,,,,,,,,,,,,,,,,,,,,,,,,,,,,,,,,,,,,,,,,,,,,,,,,,,,,,,,,,,,,,,,,,,,,
,,,,,,3,0,3,0,1,X V Q F H G B L J M P D K C T S W R N Z,5f1fd0d33f0d5e2075724c24,19,Mężczyzna,2022-06-11_11h00.34.806,task,2021.1.4,Win32,144.0092166,6299f149e92ead563fba08ef,62a45999b417b60dae3ef579,,,,,,,,,,,,,,,,,,,,,,,,,,,,,,,,,,,,,,,,,,,,,,,,,,,,,,,,,,,,,,,,,,,,,,,,,,,,,,,,,,,,,,,,,,,,,,,,,,,,,
,,,,,,,,,,,,5f1fd0d33f0d5e2075724c24,19,Mężczyzna,2022-06-11_11h00.34.806,task,2021.1.4,Win32,144.0092166,6299f149e92ead563fba08ef,62a45999b417b60dae3ef579,qmtx,"[""q"",""m"",""t"",""x""]","[0.6881999999999522,1.1440999999999804,1.3920999999999708,1.7600000000000051,1.9840999999999696]",1,QMTX,5,0,5,0,1,,,,,,,,,,,,,,,,,,,,,,,,,,,,,,,,,,,,,,,,,,,,,,,,,,,,,,,,,,,,,,,,,,,,,,,,,,,,,,,,,,,,,,,,,,,
,,,,,,0,0,0,0,1,X V Q F H G B L J M P D K C T S W R N Z,5f1fd0d33f0d5e2075724c24,19,Mężczyzna,2022-06-11_11h00.34.806,task,2021.1.4,Win32,144.0092166,6299f149e92ead563fba08ef,62a45999b417b60dae3ef579,,,,,,,,,,,,,,,,,,,,,,,,,,,,,,,,,,,,,,,,,,,,,,,,,,,,,,,,,,,,,,,,,,,,,,,,,,,,,,,,,,,,,,,,,,,,,,,,,,,,,
,,,,,,1,0,1,0,1,X V Q F H G B L J M P D K C T S W R N Z,5f1fd0d33f0d5e2075724c24,19,Mężczyzna,2022-06-11_11h00.34.806,task,2021.1.4,Win32,144.0092166,6299f149e92ead563fba08ef,62a45999b417b60dae3ef579,,,,,,,,,,,,,,,,,,,,,,,,,,,,,,,,,,,,,,,,,,,,,,,,,,,,,,,,,,,,,,,,,,,,,,,,,,,,,,,,,,,,,,,,,,,,,,,,,,,,,
,,,,,,2,0,2,0,1,X V Q F H G B L J M P D K C T S W R N Z,5f1fd0d33f0d5e2075724c24,19,Mężczyzna,2022-06-11_11h00.34.806,task,2021.1.4,Win32,144.0092166,6299f149e92ead563fba08ef,62a45999b417b60dae3ef579,,,,,,,,,,,,,,,,,,,,,,,,,,,,,,,,,,,,,,,,,,,,,,,,,,,,,,,,,,,,,,,,,,,,,,,,,,,,,,,,,,,,,,,,,,,,,,,,,,,,,
,,,,,,3,0,3,0,1,X V Q F H G B L J M P D K C T S W R N Z,5f1fd0d33f0d5e2075724c24,19,Mężczyzna,2022-06-11_11h00.34.806,task,2021.1.4,Win32,144.0092166,6299f149e92ead563fba08ef,62a45999b417b60dae3ef579,,,,,,,,,,,,,,,,,,,,,,,,,,,,,,,,,,,,,,,,,,,,,,,,,,,,,,,,,,,,,,,,,,,,,,,,,,,,,,,,,,,,,,,,,,,,,,,,,,,,,
,,,,,,4,0,4,0,1,X V Q F H G B L J M P D K C T S W R N Z,5f1fd0d33f0d5e2075724c24,19,Mężczyzna,2022-06-11_11h00.34.806,task,2021.1.4,Win32,144.0092166,6299f149e92ead563fba08ef,62a45999b417b60dae3ef579,,,,,,,,,,,,,,,,,,,,,,,,,,,,,,,,,,,,,,,,,,,,,,,,,,,,,,,,,,,,,,,,,,,,,,,,,,,,,,,,,,,,,,,,,,,,,,,,,,,,,
,,,,,,,,,,,,5f1fd0d33f0d5e2075724c24,19,Mężczyzna,2022-06-11_11h00.34.806,task,2021.1.4,Win32,144.0092166,6299f149e92ead563fba08ef,62a45999b417b60dae3ef579,mkknb,"[""m"",""k"",""k"",""n"",""b""]","[0.64129999999993,0.9210999999999814,1.0730999999999682,1.4810999999999694,1.6571999999999463,1.929099999999977]",1,MKKNB,6,0,6,0,1,,,,,,,,,,,,,,,,,,,,,,,,,,,,,,,,,,,,,,,,,,,,,,,,,,,,,,,,,,,,,,,,,,,,,,,,,,,,,,,,,,,,,,,,,,,
,,,,,,0,0,0,0,1,X V Q F H G B L J M P D K C T S W R N Z,5f1fd0d33f0d5e2075724c24,19,Mężczyzna,2022-06-11_11h00.34.806,task,2021.1.4,Win32,144.0092166,6299f149e92ead563fba08ef,62a45999b417b60dae3ef579,,,,,,,,,,,,,,,,,,,,,,,,,,,,,,,,,,,,,,,,,,,,,,,,,,,,,,,,,,,,,,,,,,,,,,,,,,,,,,,,,,,,,,,,,,,,,,,,,,,,,
,,,,,,1,0,1,0,1,X V Q F H G B L J M P D K C T S W R N Z,5f1fd0d33f0d5e2075724c24,19,Mężczyzna,2022-06-11_11h00.34.806,task,2021.1.4,Win32,144.0092166,6299f149e92ead563fba08ef,62a45999b417b60dae3ef579,,,,,,,,,,,,,,,,,,,,,,,,,,,,,,,,,,,,,,,,,,,,,,,,,,,,,,,,,,,,,,,,,,,,,,,,,,,,,,,,,,,,,,,,,,,,,,,,,,,,,
,,,,,,2,0,2,0,1,X V Q F H G B L J M P D K C T S W R N Z,5f1fd0d33f0d5e2075724c24,19,Mężczyzna,2022-06-11_11h00.34.806,task,2021.1.4,Win32,144.0092166,6299f149e92ead563fba08ef,62a45999b417b60dae3ef579,,,,,,,,,,,,,,,,,,,,,,,,,,,,,,,,,,,,,,,,,,,,,,,,,,,,,,,,,,,,,,,,,,,,,,,,,,,,,,,,,,,,,,,,,,,,,,,,,,,,,
,,,,,,3,0,3,0,1,X V Q F H G B L J M P D K C T S W R N Z,5f1fd0d33f0d5e2075724c24,19,Mężczyzna,2022-06-11_11h00.34.806,task,2021.1.4,Win32,144.0092166,6299f149e92ead563fba08ef,62a45999b417b60dae3ef579,,,,,,,,,,,,,,,,,,,,,,,,,,,,,,,,,,,,,,,,,,,,,,,,,,,,,,,,,,,,,,,,,,,,,,,,,,,,,,,,,,,,,,,,,,,,,,,,,,,,,
,,,,,,4,0,4,0,1,X V Q F H G B L J M P D K C T S W R N Z,5f1fd0d33f0d5e2075724c24,19,Mężczyzna,2022-06-11_11h00.34.806,task,2021.1.4,Win32,144.0092166,6299f149e92ead563fba08ef,62a45999b417b60dae3ef579,,,,,,,,,,,,,,,,,,,,,,,,,,,,,,,,,,,,,,,,,,,,,,,,,,,,,,,,,,,,,,,,,,,,,,,,,,,,,,,,,,,,,,,,,,,,,,,,,,,,,
,,,,,,,,,,,,5f1fd0d33f0d5e2075724c24,19,Mężczyzna,2022-06-11_11h00.34.806,task,2021.1.4,Win32,144.0092166,6299f149e92ead563fba08ef,62a45999b417b60dae3ef579,ggdhc,"[""g"",""g"",""d"",""h"",""c""]","[0.4585999999999757,0.6015000000000015,1.1942999999999415,3.6570999999999856,4.913099999999986,9.545099999999977]",1,GGDHC,7,0,7,0,1,,,,,,,,,,,,,,,,,,,,,,,,,,,,,,,,,,,,,,,,,,,,,,,,,,,,,,,,,,,,,,,,,,,,,,,,,,,,,,,,,,,,,,,,,,,
,,,,,,0,0,0,0,1,X V Q F H G B L J M P D K C T S W R N Z,5f1fd0d33f0d5e2075724c24,19,Mężczyzna,2022-06-11_11h00.34.806,task,2021.1.4,Win32,144.0092166,6299f149e92ead563fba08ef,62a45999b417b60dae3ef579,,,,,,,,,,,,,,,,,,,,,,,,,,,,,,,,,,,,,,,,,,,,,,,,,,,,,,,,,,,,,,,,,,,,,,,,,,,,,,,,,,,,,,,,,,,,,,,,,,,,,
,,,,,,1,0,1,0,1,X V Q F H G B L J M P D K C T S W R N Z,5f1fd0d33f0d5e2075724c24,19,Mężczyzna,2022-06-11_11h00.34.806,task,2021.1.4,Win32,144.0092166,6299f149e92ead563fba08ef,62a45999b417b60dae3ef579,,,,,,,,,,,,,,,,,,,,,,,,,,,,,,,,,,,,,,,,,,,,,,,,,,,,,,,,,,,,,,,,,,,,,,,,,,,,,,,,,,,,,,,,,,,,,,,,,,,,,
,,,,,,2,0,2,0,1,X V Q F H G B L J M P D K C T S W R N Z,5f1fd0d33f0d5e2075724c24,19,Mężczyzna,2022-06-11_11h00.34.806,task,2021.1.4,Win32,144.0092166,6299f149e92ead563fba08ef,62a45999b417b60dae3ef579,,,,,,,,,,,,,,,,,,,,,,,,,,,,,,,,,,,,,,,,,,,,,,,,,,,,,,,,,,,,,,,,,,,,,,,,,,,,,,,,,,,,,,,,,,,,,,,,,,,,,
,,,,,,3,0,3,0,1,X V Q F H G B L J M P D K C T S W R N Z,5f1fd0d33f0d5e2075724c24,19,Mężczyzna,2022-06-11_11h00.34.806,task,2021.1.4,Win32,144.0092166,6299f149e92ead563fba08ef,62a45999b417b60dae3ef579,,,,,,,,,,,,,,,,,,,,,,,,,,,,,,,,,,,,,,,,,,,,,,,,,,,,,,,,,,,,,,,,,,,,,,,,,,,,,,,,,,,,,,,,,,,,,,,,,,,,,
,,,,,,4,0,4,0,1,X V Q F H G B L J M P D K C T S W R N Z,5f1fd0d33f0d5e2075724c24,19,Mężczyzna,2022-06-11_11h00.34.806,task,2021.1.4,Win32,144.0092166,6299f149e92ead563fba08ef,62a45999b417b60dae3ef579,,,,,,,,,,,,,,,,,,,,,,,,,,,,,,,,,,,,,,,,,,,,,,,,,,,,,,,,,,,,,,,,,,,,,,,,,,,,,,,,,,,,,,,,,,,,,,,,,,,,,
,,,,,,5,0,5,0,1,X V Q F H G B L J M P D K C T S W R N Z,5f1fd0d33f0d5e2075724c24,19,Mężczyzna,2022-06-11_11h00.34.806,task,2021.1.4,Win32,144.0092166,6299f149e92ead563fba08ef,62a45999b417b60dae3ef579,,,,,,,,,,,,,,,,,,,,,,,,,,,,,,,,,,,,,,,,,,,,,,,,,,,,,,,,,,,,,,,,,,,,,,,,,,,,,,,,,,,,,,,,,,,,,,,,,,,,,
,,,,,,,,,,,,5f1fd0d33f0d5e2075724c24,19,Mężczyzna,2022-06-11_11h00.34.806,task,2021.1.4,Win32,144.0092166,6299f149e92ead563fba08ef,62a45999b417b60dae3ef579,pdvzwh,"[""p"",""d"",""v"",""z"",""w"",""h""]","[0.6854000000000156,0.9893000000000427,1.2782000000000693,1.5348000000000468,2.229900000000015,3.4454000000000065,3.6853000000000407]",1,PDVZWH,8,0,8,0,1,,,,,,,,,,,,,,,,,,,,,,,,,,,,,,,,,,,,,,,,,,,,,,,,,,,,,,,,,,,,,,,,,,,,,,,,,,,,,,,,,,,,,,,,,,,
,,,,,,0,0,0,0,1,X V Q F H G B L J M P D K C T S W R N Z,5f1fd0d33f0d5e2075724c24,19,Mężczyzna,2022-06-11_11h00.34.806,task,2021.1.4,Win32,144.0092166,6299f149e92ead563fba08ef,62a45999b417b60dae3ef579,,,,,,,,,,,,,,,,,,,,,,,,,,,,,,,,,,,,,,,,,,,,,,,,,,,,,,,,,,,,,,,,,,,,,,,,,,,,,,,,,,,,,,,,,,,,,,,,,,,,,
,,,,,,1,0,1,0,1,X V Q F H G B L J M P D K C T S W R N Z,5f1fd0d33f0d5e2075724c24,19,Mężczyzna,2022-06-11_11h00.34.806,task,2021.1.4,Win32,144.0092166,6299f149e92ead563fba08ef,62a45999b417b60dae3ef579,,,,,,,,,,,,,,,,,,,,,,,,,,,,,,,,,,,,,,,,,,,,,,,,,,,,,,,,,,,,,,,,,,,,,,,,,,,,,,,,,,,,,,,,,,,,,,,,,,,,,
,,,,,,2,0,2,0,1,X V Q F H G B L J M P D K C T S W R N Z,5f1fd0d33f0d5e2075724c24,19,Mężczyzna,2022-06-11_11h00.34.806,task,2021.1.4,Win32,144.0092166,6299f149e92ead563fba08ef,62a45999b417b60dae3ef579,,,,,,,,,,,,,,,,,,,,,,,,,,,,,,,,,,,,,,,,,,,,,,,,,,,,,,,,,,,,,,,,,,,,,,,,,,,,,,,,,,,,,,,,,,,,,,,,,,,,,
,,,,,,3,0,3,0,1,X V Q F H G B L J M P D K C T S W R N Z,5f1fd0d33f0d5e2075724c24,19,Mężczyzna,2022-06-11_11h00.34.806,task,2021.1.4,Win32,144.0092166,6299f149e92ead563fba08ef,62a45999b417b60dae3ef579,,,,,,,,,,,,,,,,,,,,,,,,,,,,,,,,,,,,,,,,,,,,,,,,,,,,,,,,,,,,,,,,,,,,,,,,,,,,,,,,,,,,,,,,,,,,,,,,,,,,,
,,,,,,4,0,4,0,1,X V Q F H G B L J M P D K C T S W R N Z,5f1fd0d33f0d5e2075724c24,19,Mężczyzna,2022-06-11_11h00.34.806,task,2021.1.4,Win32,144.0092166,6299f149e92ead563fba08ef,62a45999b417b60dae3ef579,,,,,,,,,,,,,,,,,,,,,,,,,,,,,,,,,,,,,,,,,,,,,,,,,,,,,,,,,,,,,,,,,,,,,,,,,,,,,,,,,,,,,,,,,,,,,,,,,,,,,
,,,,,,5,0,5,0,1,X V Q F H G B L J M P D K C T S W R N Z,5f1fd0d33f0d5e2075724c24,19,Mężczyzna,2022-06-11_11h00.34.806,task,2021.1.4,Win32,144.0092166,6299f149e92ead563fba08ef,62a45999b417b60dae3ef579,,,,,,,,,,,,,,,,,,,,,,,,,,,,,,,,,,,,,,,,,,,,,,,,,,,,,,,,,,,,,,,,,,,,,,,,,,,,,,,,,,,,,,,,,,,,,,,,,,,,,
,,,,,,,,,,,,5f1fd0d33f0d5e2075724c24,19,Mężczyzna,2022-06-11_11h00.34.806,task,2021.1.4,Win32,144.0092166,6299f149e92ead563fba08ef,62a45999b417b60dae3ef579,lhcttj,"[""l"",""h"",""c"",""t"",""t"",""j""]","[0.8540000000000134,1.1177999999999315,1.3258999999999332,1.7096999999999696,1.877600000000001,1.9896999999999707,2.3417999999999495]",1,LHCTTJ,9,0,9,0,1,,,,,,,,,,,,,,,,,,,,,,,,,,,,,,,,,,,,,,,,,,,,,,,,,,,,,,,,,,,,,,,,,,,,,,,,,,,,,,,,,,,,,,,,,,,
,,,,,,0,0,0,0,1,X V Q F H G B L J M P D K C T S W R N Z,5f1fd0d33f0d5e2075724c24,19,Mężczyzna,2022-06-11_11h00.34.806,task,2021.1.4,Win32,144.0092166,6299f149e92ead563fba08ef,62a45999b417b60dae3ef579,,,,,,,,,,,,,,,,,,,,,,,,,,,,,,,,,,,,,,,,,,,,,,,,,,,,,,,,,,,,,,,,,,,,,,,,,,,,,,,,,,,,,,,,,,,,,,,,,,,,,
,,,,,,1,0,1,0,1,X V Q F H G B L J M P D K C T S W R N Z,5f1fd0d33f0d5e2075724c24,19,Mężczyzna,2022-06-11_11h00.34.806,task,2021.1.4,Win32,144.0092166,6299f149e92ead563fba08ef,62a45999b417b60dae3ef579,,,,,,,,,,,,,,,,,,,,,,,,,,,,,,,,,,,,,,,,,,,,,,,,,,,,,,,,,,,,,,,,,,,,,,,,,,,,,,,,,,,,,,,,,,,,,,,,,,,,,
,,,,,,2,0,2,0,1,X V Q F H G B L J M P D K C T S W R N Z,5f1fd0d33f0d5e2075724c24,19,Mężczyzna,2022-06-11_11h00.34.806,task,2021.1.4,Win32,144.0092166,6299f149e92ead563fba08ef,62a45999b417b60dae3ef579,,,,,,,,,,,,,,,,,,,,,,,,,,,,,,,,,,,,,,,,,,,,,,,,,,,,,,,,,,,,,,,,,,,,,,,,,,,,,,,,,,,,,,,,,,,,,,,,,,,,,
,,,,,,3,0,3,0,1,X V Q F H G B L J M P D K C T S W R N Z,5f1fd0d33f0d5e2075724c24,19,Mężczyzna,2022-06-11_11h00.34.806,task,2021.1.4,Win32,144.0092166,6299f149e92ead563fba08ef,62a45999b417b60dae3ef579,,,,,,,,,,,,,,,,,,,,,,,,,,,,,,,,,,,,,,,,,,,,,,,,,,,,,,,,,,,,,,,,,,,,,,,,,,,,,,,,,,,,,,,,,,,,,,,,,,,,,
,,,,,,4,0,4,0,1,X V Q F H G B L J M P D K C T S W R N Z,5f1fd0d33f0d5e2075724c24,19,Mężczyzna,2022-06-11_11h00.34.806,task,2021.1.4,Win32,144.0092166,6299f149e92ead563fba08ef,62a45999b417b60dae3ef579,,,,,,,,,,,,,,,,,,,,,,,,,,,,,,,,,,,,,,,,,,,,,,,,,,,,,,,,,,,,,,,,,,,,,,,,,,,,,,,,,,,,,,,,,,,,,,,,,,,,,
,,,,,,5,0,5,0,1,X V Q F H G B L J M P D K C T S W R N Z,5f1fd0d33f0d5e2075724c24,19,Mężczyzna,2022-06-11_11h00.34.806,task,2021.1.4,Win32,144.0092166,6299f149e92ead563fba08ef,62a45999b417b60dae3ef579,,,,,,,,,,,,,,,,,,,,,,,,,,,,,,,,,,,,,,,,,,,,,,,,,,,,,,,,,,,,,,,,,,,,,,,,,,,,,,,,,,,,,,,,,,,,,,,,,,,,,
,,,,,,6,0,6,0,1,X V Q F H G B L J M P D K C T S W R N Z,5f1fd0d33f0d5e2075724c24,19,Mężczyzna,2022-06-11_11h00.34.806,task,2021.1.4,Win32,144.0092166,6299f149e92ead563fba08ef,62a45999b417b60dae3ef579,,,,,,,,,,,,,,,,,,,,,,,,,,,,,,,,,,,,,,,,,,,,,,,,,,,,,,,,,,,,,,,,,,,,,,,,,,,,,,,,,,,,,,,,,,,,,,,,,,,,,
,,,,,,,,,,,,5f1fd0d33f0d5e2075724c24,19,Mężczyzna,2022-06-11_11h00.34.806,task,2021.1.4,Win32,144.0092166,6299f149e92ead563fba08ef,62a45999b417b60dae3ef579,hbtrmn,"[""h"",""b"",""t"",""r"",""m"",""n""]","[1.1848000000000525,2.072400000000016,4.305700000000087,4.976500000000016,5.280400000000043,5.496599999999972,6.496599999999972]",0,KBHTMRN,10,0,10,0,1,,,,,,,,,,,,,,,,,,,,,,,,,,,,,,,,,,,,,,,,,,,,,,,,,,,,,,,,,,,,,,,,,,,,,,,,,,,,,,,,,,,,,,,,,,,
,,,,,,0,0,0,0,1,X V Q F H G B L J M P D K C T S W R N Z,5f1fd0d33f0d5e2075724c24,19,Mężczyzna,2022-06-11_11h00.34.806,task,2021.1.4,Win32,144.0092166,6299f149e92ead563fba08ef,62a45999b417b60dae3ef579,,,,,,,,,,,,,,,,,,,,,,,,,,,,,,,,,,,,,,,,,,,,,,,,,,,,,,,,,,,,,,,,,,,,,,,,,,,,,,,,,,,,,,,,,,,,,,,,,,,,,
,,,,,,1,0,1,0,1,X V Q F H G B L J M P D K C T S W R N Z,5f1fd0d33f0d5e2075724c24,19,Mężczyzna,2022-06-11_11h00.34.806,task,2021.1.4,Win32,144.0092166,6299f149e92ead563fba08ef,62a45999b417b60dae3ef579,,,,,,,,,,,,,,,,,,,,,,,,,,,,,,,,,,,,,,,,,,,,,,,,,,,,,,,,,,,,,,,,,,,,,,,,,,,,,,,,,,,,,,,,,,,,,,,,,,,,,
,,,,,,2,0,2,0,1,X V Q F H G B L J M P D K C T S W R N Z,5f1fd0d33f0d5e2075724c24,19,Mężczyzna,2022-06-11_11h00.34.806,task,2021.1.4,Win32,144.0092166,6299f149e92ead563fba08ef,62a45999b417b60dae3ef579,,,,,,,,,,,,,,,,,,,,,,,,,,,,,,,,,,,,,,,,,,,,,,,,,,,,,,,,,,,,,,,,,,,,,,,,,,,,,,,,,,,,,,,,,,,,,,,,,,,,,
,,,,,,3,0,3,0,1,X V Q F H G B L J M P D K C T S W R N Z,5f1fd0d33f0d5e2075724c24,19,Mężczyzna,2022-06-11_11h00.34.806,task,2021.1.4,Win32,144.0092166,6299f149e92ead563fba08ef,62a45999b417b60dae3ef579,,,,,,,,,,,,,,,,,,,,,,,,,,,,,,,,,,,,,,,,,,,,,,,,,,,,,,,,,,,,,,,,,,,,,,,,,,,,,,,,,,,,,,,,,,,,,,,,,,,,,
,,,,,,4,0,4,0,1,X V Q F H G B L J M P D K C T S W R N Z,5f1fd0d33f0d5e2075724c24,19,Mężczyzna,2022-06-11_11h00.34.806,task,2021.1.4,Win32,144.0092166,6299f149e92ead563fba08ef,62a45999b417b60dae3ef579,,,,,,,,,,,,,,,,,,,,,,,,,,,,,,,,,,,,,,,,,,,,,,,,,,,,,,,,,,,,,,,,,,,,,,,,,,,,,,,,,,,,,,,,,,,,,,,,,,,,,
,,,,,,5,0,5,0,1,X V Q F H G B L J M P D K C T S W R N Z,5f1fd0d33f0d5e2075724c24,19,Mężczyzna,2022-06-11_11h00.34.806,task,2021.1.4,Win32,144.0092166,6299f149e92ead563fba08ef,62a45999b417b60dae3ef579,,,,,,,,,,,,,,,,,,,,,,,,,,,,,,,,,,,,,,,,,,,,,,,,,,,,,,,,,,,,,,,,,,,,,,,,,,,,,,,,,,,,,,,,,,,,,,,,,,,,,
,,,,,,6,0,6,0,1,X V Q F H G B L J M P D K C T S W R N Z,5f1fd0d33f0d5e2075724c24,19,Mężczyzna,2022-06-11_11h00.34.806,task,2021.1.4,Win32,144.0092166,6299f149e92ead563fba08ef,62a45999b417b60dae3ef579,,,,,,,,,,,,,,,,,,,,,,,,,,,,,,,,,,,,,,,,,,,,,,,,,,,,,,,,,,,,,,,,,,,,,,,,,,,,,,,,,,,,,,,,,,,,,,,,,,,,,
,,,,,,,,,,,,5f1fd0d33f0d5e2075724c24,19,Mężczyzna,2022-06-11_11h00.34.806,task,2021.1.4,Win32,144.0092166,6299f149e92ead563fba08ef,62a45999b417b60dae3ef579,srnqlq,"[""s"",""r"",""n"",""q"",""l"",""q""]","[0.4825999999999908,1.8824999999999932,2.218500000000006,2.514499999999998,2.9385999999999797,4.370499999999993,4.939400000000035]",0,SNQRLSQ,11,0,11,0,1,,,,,,,,,,,,,,,,,,,,,,,,,,,,,,,,,,,,,,,,,,,,,,,,,,,,,,,,,,,,,,,,,,,,,,,,,,,,,,,,,,,,,,,,,,,
,,,,,,0,0,0,0,1,X V Q F H G B L J M P D K C T S W R N Z,5f1fd0d33f0d5e2075724c24,19,Mężczyzna,2022-06-11_11h00.34.806,task,2021.1.4,Win32,144.0092166,6299f149e92ead563fba08ef,62a45999b417b60dae3ef579,,,,,,,,,,,,,,,,,,,,,,,,,,,,,,,,,,,,,,,,,,,,,,,,,,,,,,,,,,,,,,,,,,,,,,,,,,,,,,,,,,,,,,,,,,,,,,,,,,,,,
,,,,,,1,0,1,0,1,X V Q F H G B L J M P D K C T S W R N Z,5f1fd0d33f0d5e2075724c24,19,Mężczyzna,2022-06-11_11h00.34.806,task,2021.1.4,Win32,144.0092166,6299f149e92ead563fba08ef,62a45999b417b60dae3ef579,,,,,,,,,,,,,,,,,,,,,,,,,,,,,,,,,,,,,,,,,,,,,,,,,,,,,,,,,,,,,,,,,,,,,,,,,,,,,,,,,,,,,,,,,,,,,,,,,,,,,
,,,,,,2,0,2,0,1,X V Q F H G B L J M P D K C T S W R N Z,5f1fd0d33f0d5e2075724c24,19,Mężczyzna,2022-06-11_11h00.34.806,task,2021.1.4,Win32,144.0092166,6299f149e92ead563fba08ef,62a45999b417b60dae3ef579,,,,,,,,,,,,,,,,,,,,,,,,,,,,,,,,,,,,,,,,,,,,,,,,,,,,,,,,,,,,,,,,,,,,,,,,,,,,,,,,,,,,,,,,,,,,,,,,,,,,,
,,,,,,3,0,3,0,1,X V Q F H G B L J M P D K C T S W R N Z,5f1fd0d33f0d5e2075724c24,19,Mężczyzna,2022-06-11_11h00.34.806,task,2021.1.4,Win32,144.0092166,6299f149e92ead563fba08ef,62a45999b417b60dae3ef579,,,,,,,,,,,,,,,,,,,,,,,,,,,,,,,,,,,,,,,,,,,,,,,,,,,,,,,,,,,,,,,,,,,,,,,,,,,,,,,,,,,,,,,,,,,,,,,,,,,,,
,,,,,,4,0,4,0,1,X V Q F H G B L J M P D K C T S W R N Z,5f1fd0d33f0d5e2075724c24,19,Mężczyzna,2022-06-11_11h00.34.806,task,2021.1.4,Win32,144.0092166,6299f149e92ead563fba08ef,62a45999b417b60dae3ef579,,,,,,,,,,,,,,,,,,,,,,,,,,,,,,,,,,,,,,,,,,,,,,,,,,,,,,,,,,,,,,,,,,,,,,,,,,,,,,,,,,,,,,,,,,,,,,,,,,,,,
,,,,,,5,0,5,0,1,X V Q F H G B L J M P D K C T S W R N Z,5f1fd0d33f0d5e2075724c24,19,Mężczyzna,2022-06-11_11h00.34.806,task,2021.1.4,Win32,144.0092166,6299f149e92ead563fba08ef,62a45999b417b60dae3ef579,,,,,,,,,,,,,,,,,,,,,,,,,,,,,,,,,,,,,,,,,,,,,,,,,,,,,,,,,,,,,,,,,,,,,,,,,,,,,,,,,,,,,,,,,,,,,,,,,,,,,
,,,,,,6,0,6,0,1,X V Q F H G B L J M P D K C T S W R N Z,5f1fd0d33f0d5e2075724c24,19,Mężczyzna,2022-06-11_11h00.34.806,task,2021.1.4,Win32,144.0092166,6299f149e92ead563fba08ef,62a45999b417b60dae3ef579,,,,,,,,,,,,,,,,,,,,,,,,,,,,,,,,,,,,,,,,,,,,,,,,,,,,,,,,,,,,,,,,,,,,,,,,,,,,,,,,,,,,,,,,,,,,,,,,,,,,,
,,,,,,,,,,,,5f1fd0d33f0d5e2075724c24,19,Mężczyzna,2022-06-11_11h00.34.806,task,2021.1.4,Win32,144.0092166,6299f149e92ead563fba08ef,62a45999b417b60dae3ef579,wgngdgn,"[""w"",""g"",""n"",""g"",""d"",""g"",""n""]","[0.6663999999998964,1.1063999999998941,1.482299999999924,1.909899999999908,2.9307999999999197,3.1468999999999028,3.7382999999999242,4.330500000000001]",0,WGNDGNG,12,0,12,0,1,,,,,,,,,,,,,,,,,,,,,,,,,,,,,,,,,,,,,,,,,,,,,,,,,,,,,,,,,,,,,,,,,,,,,,,,,,,,,,,,,,,,,,,,,,,
,,,,,,,,,,,,5f1fd0d33f0d5e2075724c24,19,Mężczyzna,2022-06-11_11h00.34.806,task,2021.1.4,Win32,144.0092166,6299f149e92ead563fba08ef,62a45999b417b60dae3ef579,,,,,,,,,,,space,7.2402,2,"[""2""]",1,[4.208499999999987],[4.208499999999987],0,0,0,2,1,Practice,3,(4x4) - 14,2,,,,,,,,,,,,,,,,,,,,,,,,,,,,,,,,,,,,,,,,,,,,,,,,,,,,,,,,,,,,,,,,,,,,,,,,,,,
,,,,,,,,,,,,5f1fd0d33f0d5e2075724c24,19,Mężczyzna,2022-06-11_11h00.34.806,task,2021.1.4,Win32,144.0092166,6299f149e92ead563fba08ef,62a45999b417b60dae3ef579,,,,,,,,,,,,,4,"[""4""]",1,[2.5908000000000584],"[4.208499999999987,2.5908000000000584]",0,1,1,4,1,Practice,5,(2x6) - 8,4,,,,,,,,,,,,,,,,,,,,,,,,,,,,,,,,,,,,,,,,,,,,,,,,,,,,,,,,,,,,,,,,,,,,,,,,,,,
,,,,,,,,,,,,5f1fd0d33f0d5e2075724c24,19,Mężczyzna,2022-06-11_11h00.34.806,task,2021.1.4,Win32,144.0092166,6299f149e92ead563fba08ef,62a45999b417b60dae3ef579,,,,,,,,,,,,,8,"[""8""]",1,[2.264099999999985],"[4.208499999999987,2.5908000000000584,2.264099999999985]",0,2,2,8,1,Practice,9,(3x3) - 1,8,,,,,,,,,,,,,,,,,,,,,,,,,,,,,,,,,,,,,,,,,,,,,,,,,,,,,,,,,,,,,,,,,,,,,,,,,,,
,,,,,,,,,,,,5f1fd0d33f0d5e2075724c24,19,Mężczyzna,2022-06-11_11h00.34.806,task,2021.1.4,Win32,144.0092166,6299f149e92ead563fba08ef,62a45999b417b60dae3ef579,,,,,,,,,,,,,6,"[""6""]",1,[3.055899999999923],"[4.208499999999987,2.5908000000000584,2.264099999999985,3.055899999999923]",0,3,3,6,1,Practice,7,(25/5) + 1,6,,,,,,,,,,,,,,,,,,,,,,,,,,,,,,,,,,,,,,,,,,,,,,,,,,,,,,,,,,,,,,,,,,,,,,,,,,,
,,,,,,,,,,,,5f1fd0d33f0d5e2075724c24,19,Mężczyzna,2022-06-11_11h00.34.806,task,2021.1.4,Win32,144.0092166,6299f149e92ead563fba08ef,62a45999b417b60dae3ef579,,,,,,,,,,,,,9,"[""9""]",1,[3.225999999999999],"[4.208499999999987,2.5908000000000584,2.264099999999985,3.055899999999923,3.225999999999999]",0,4,4,9,1,Practice,10,(20/2) - 1,9,,,,,,,,,,,,,,,,,,,,,,,,,,,,,,,,,,,,,,,,,,,,,,,,,,,,,,,,,,,,,,,,,,,,,,,,,,,
,,,,,,,,,,,,5f1fd0d33f0d5e2075724c24,19,Mężczyzna,2022-06-11_11h00.34.806,task,2021.1.4,Win32,144.0092166,6299f149e92ead563fba08ef,62a45999b417b60dae3ef579,,,,,,,,,,,,,0,"[""0""]",1,[1.8146999999999593],"[4.208499999999987,2.5908000000000584,2.264099999999985,3.055899999999923,3.225999999999999,1.8146999999999593]",0,5,5,0,1,Practice,1,(3x3) -  9,0,,,,,,,,,,,,,,,,,,,,,,,,,,,,,,,,,,,,,,,,,,,,,,,,,,,,,,,,,,,,,,,,,,,,,,,,,,,
,,,,,,,,,,,,5f1fd0d33f0d5e2075724c24,19,Mężczyzna,2022-06-11_11h00.34.806,task,2021.1.4,Win32,144.0092166,6299f149e92ead563fba08ef,62a45999b417b60dae3ef579,,,,,,,,,,,,,1,"[""1""]",1,[1.9240000000000066],"[4.208499999999987,2.5908000000000584,2.264099999999985,3.055899999999923,3.225999999999999,1.8146999999999593,1.9240000000000066]",0,6,6,1,1,Practice,2,(4x4) - 15,1,,,,,,,,,,,,,,,,,,,,,,,,,,,,,,,,,,,,,,,,,,,,,,,,,,,,,,,,,,,,,,,,,,,,,,,,,,,
,,,,,,,,,,,,5f1fd0d33f0d5e2075724c24,19,Mężczyzna,2022-06-11_11h00.34.806,task,2021.1.4,Win32,144.0092166,6299f149e92ead563fba08ef,62a45999b417b60dae3ef579,,,,,,,,,,,,,3,"[""3""]",1,[3.2099999999999795],"[4.208499999999987,2.5908000000000584,2.264099999999985,3.055899999999923,3.225999999999999,1.8146999999999593,1.9240000000000066,3.2099999999999795]",0,7,7,3,1,Practice,4,(8/4) + 1,3,,,,,,,,,,,,,,,,,,,,,,,,,,,,,,,,,,,,,,,,,,,,,,,,,,,,,,,,,,,,,,,,,,,,,,,,,,,
,,,,,,,,,,,,5f1fd0d33f0d5e2075724c24,19,Mężczyzna,2022-06-11_11h00.34.806,task,2021.1.4,Win32,144.0092166,6299f149e92ead563fba08ef,62a45999b417b60dae3ef579,,,,,,,,,,,,,5,"[""5""]",1,[3.2713000000000534],"[4.208499999999987,2.5908000000000584,2.264099999999985,3.055899999999923,3.225999999999999,1.8146999999999593,1.9240000000000066,3.2099999999999795,3.2713000000000534]",0,8,8,5,1,Practice,6,(4/2) + 3,5,,,,,,,,,,,,,,,,,,,,,,,,,,,,,,,,,,,,,,,,,,,,,,,,,,,,,,,,,,,,,,,,,,,,,,,,,,,
,,,,,,,,,,,,5f1fd0d33f0d5e2075724c24,19,Mężczyzna,2022-06-11_11h00.34.806,task,2021.1.4,Win32,144.0092166,6299f149e92ead563fba08ef,62a45999b417b60dae3ef579,,,,,,,,,,,,,7,"[""7""]",1,[2.9099999999999966],"[4.208499999999987,2.5908000000000584,2.264099999999985,3.055899999999923,3.225999999999999,1.8146999999999593,1.9240000000000066,3.2099999999999795,3.2713000000000534,2.9099999999999966]",0,9,9,7,1,Practice,8,(5x5) - 18,7,,,,,,,,,,,,,,,,,,,,,,,,,,,,,,,,,,,,,,,,,,,,,,,,,,,,,,,,,,,,,,,,,,,,,,,,,,,
,,,,,,,,,,,,5f1fd0d33f0d5e2075724c24,19,Mężczyzna,2022-06-11_11h00.34.806,task,2021.1.4,Win32,144.0092166,6299f149e92ead563fba08ef,62a45999b417b60dae3ef579,,,,,,,,,,,,,,,,,,,,,,,,,,,1,28.4753,1.898353333,13.68907473,0.955303607,4.36303664,space,1.9005,0,0,0,0,1,,,,,,,,,,,,,,,,,,,,,,,,,,,,,,,,,,,,,,,,,,,,,,,,,,,,,,,,,,,,,,
,,,,,,,,,,,,5f1fd0d33f0d5e2075724c24,19,Mężczyzna,2022-06-11_11h00.34.806,task,2021.1.4,Win32,144.0092166,6299f149e92ead563fba08ef,62a45999b417b60dae3ef579,,,,,,,,,,,,,7,,,,,,,,,,Practice,8,(5x5) - 18,7,,,,,,,,,,,,,,space,42.7108,"[""7""]",1,[2.5930999999999926],1,0,0,0,7,1,,,,,,,,,,,,,,,,,,,,,,,,,,,,,,,,,,,,,,,,,,,,,,,,,,,
,,,,,,,,,,,X V Q F H G B L J M P D K C T S W R N Z,5f1fd0d33f0d5e2075724c24,19,Mężczyzna,2022-06-11_11h00.34.806,task,2021.1.4,Win32,144.0092166,6299f149e92ead563fba08ef,62a45999b417b60dae3ef579,,,,,,,,,,,,,,,,,,,,,,,,,,,,,,,,,,,,,,,,,,,,,,,,,,,0,0,0,0,1,,,,,,,,,,,,,,,,,,,,,,,,,,,,,,,,,,,,,,,,,,,,,,
,,,,,,,,,,,,5f1fd0d33f0d5e2075724c24,19,Mężczyzna,2022-06-11_11h00.34.806,task,2021.1.4,Win32,144.0092166,6299f149e92ead563fba08ef,62a45999b417b60dae3ef579,,,,,,,,,,,,,,,,,,,,,,,Practice,1,(3x3) -  9,0,,,,,,,,,,,,,,,,,0,,0,0,0,0,0,1,,,,,,,,,,,,,,,,,,,,,,,,,,,,,,,,,,,,,,,,,,,,,,,,,,,
,,,,,,,,,,,,5f1fd0d33f0d5e2075724c24,19,Mężczyzna,2022-06-11_11h00.34.806,task,2021.1.4,Win32,144.0092166,6299f149e92ead563fba08ef,62a45999b417b60dae3ef579,,,,,,,,,,,,,3,,,,,,,,,,Practice,4,(8/4) + 1,3,,,,,,,,,,,,,,,,"[""3""]",1,[2.142500000000041],1,0,1,1,3,1,,,,,,,,,,,,,,,,,,,,,,,,,,,,,,,,,,,,,,,,,,,,,,,,,,,
,,,,,,,,,,,X V Q F H G B L J M P D K C T S W R N Z,5f1fd0d33f0d5e2075724c24,19,Mężczyzna,2022-06-11_11h00.34.806,task,2021.1.4,Win32,144.0092166,6299f149e92ead563fba08ef,62a45999b417b60dae3ef579,,,,,,,,,,,,,,,,,,,,,,,,,,,,,,,,,,,,,,,,,,,,,,,,,,,1,0,1,0,1,,,,,,,,,,,,,,,,,,,,,,,,,,,,,,,,,,,,,,,,,,,,,,
,,,,,,,,,,,,5f1fd0d33f0d5e2075724c24,19,Mężczyzna,2022-06-11_11h00.34.806,task,2021.1.4,Win32,144.0092166,6299f149e92ead563fba08ef,62a45999b417b60dae3ef579,,,,,,,,,,,,,,,,,,,,,,,,,,,,,,,,,,,,,,,,,,,,,,,,,,,,,,,,zg,"[""z"",""g""]",0,"[2.890199999999993,3.0098999999999023,5.497899999999902]",1,0,0,0,0,1,,,,,,,,,,,,,,,,,,,,,,,,,,,,,,,,,,,,
,,,,,,,,,,,,5f1fd0d33f0d5e2075724c24,19,Mężczyzna,2022-06-11_11h00.34.806,task,2021.1.4,Win32,144.0092166,6299f149e92ead563fba08ef,62a45999b417b60dae3ef579,,,,,,,,,,,,,2,,,,,,,,,,Practice,3,(4x4) - 14,2,,,,,,,,,,,,,,,,"[""2""]",1,[1.9238000000000284],1,0,0,0,2,1,,,,,,,,,,,,,,,,,,,,,,,,,,,,,,,,,,,,,,,,,,,,,,,,,,,
,,,,,,,,,,,X V Q F H G B L J M P D K C T S W R N Z,5f1fd0d33f0d5e2075724c24,19,Mężczyzna,2022-06-11_11h00.34.806,task,2021.1.4,Win32,144.0092166,6299f149e92ead563fba08ef,62a45999b417b60dae3ef579,,,,,,,,,,,,,,,,,,,,,,,,,,,,,,,,,,,,,,,,,,,,,,,,,,,0,0,0,0,1,,,,,,,,,,,,,,,,,,,,,,,,,,,,,,,,,,,,,,,,,,,,,,
,,,,,,,,,,,,5f1fd0d33f0d5e2075724c24,19,Mężczyzna,2022-06-11_11h00.34.806,task,2021.1.4,Win32,144.0092166,6299f149e92ead563fba08ef,62a45999b417b60dae3ef579,,,,,,,,,,,,,1,,,,,,,,,,Practice,2,(4x4) - 15,1,,,,,,,,,,,,,,,,"[""1""]",1,[1.7848000000000752],1,0,0,0,1,1,,,,,,,,,,,,,,,,,,,,,,,,,,,,,,,,,,,,,,,,,,,,,,,,,,,
,,,,,,,,,,,X V Q F H G B L J M P D K C T S W R N Z,5f1fd0d33f0d5e2075724c24,19,Mężczyzna,2022-06-11_11h00.34.806,task,2021.1.4,Win32,144.0092166,6299f149e92ead563fba08ef,62a45999b417b60dae3ef579,,,,,,,,,,,,,,,,,,,,,,,,,,,,,,,,,,,,,,,,,,,,,,,,,,,1,0,1,0,1,,,,,,,,,,,,,,,,,,,,,,,,,,,,,,,,,,,,,,,,,,,,,,
,,,,,,,,,,,,5f1fd0d33f0d5e2075724c24,19,Mężczyzna,2022-06-11_11h00.34.806,task,2021.1.4,Win32,144.0092166,6299f149e92ead563fba08ef,62a45999b417b60dae3ef579,,,,,,,,,,,,,,,,,,,,,,,,,,,,,,,,,,,,,,,,,,,,,,,,,,,,,,,,mj,"[""m"",""j""]",0,"[1.6512000000001876,1.8530000000000086,2.4751000000001113]",1,1,0,1,0,1,,,,,,,,,,,,,,,,,,,,,,,,,,,,,,,,,,,,
,,,,,,,,,,,,5f1fd0d33f0d5e2075724c24,19,Mężczyzna,2022-06-11_11h00.34.806,task,2021.1.4,Win32,144.0092166,6299f149e92ead563fba08ef,62a45999b417b60dae3ef579,,,,,,,,,,,,,6,,,,,,,,,,Practice,7,(25/5) + 1,6,,,,,,,,,,,,,,,,"[""6""]",1,[3.2864000000001283],1,0,0,0,6,1,,,,,,,,,,,,,,,,,,,,,,,,,,,,,,,,,,,,,,,,,,,,,,,,,,,
,,,,,,,,,,,X V Q F H G B L J M P D K C T S W R N Z,5f1fd0d33f0d5e2075724c24,19,Mężczyzna,2022-06-11_11h00.34.806,task,2021.1.4,Win32,144.0092166,6299f149e92ead563fba08ef,62a45999b417b60dae3ef579,,,,,,,,,,,,,,,,,,,,,,,,,,,,,,,,,,,,,,,,,,,,,,,,,,,0,0,0,0,1,,,,,,,,,,,,,,,,,,,,,,,,,,,,,,,,,,,,,,,,,,,,,,
,,,,,,,,,,,,5f1fd0d33f0d5e2075724c24,19,Mężczyzna,2022-06-11_11h00.34.806,task,2021.1.4,Win32,144.0092166,6299f149e92ead563fba08ef,62a45999b417b60dae3ef579,,,,,,,,,,,,,3,,,,,,,,,,Practice,4,(8/4) + 1,3,,,,,,,,,,,,,,,,"[""3""]",1,[1.6211999999999307],1,0,0,0,3,1,,,,,,,,,,,,,,,,,,,,,,,,,,,,,,,,,,,,,,,,,,,,,,,,,,,
,,,,,,,,,,,X V Q F H G B L J M P D K C T S W R N Z,5f1fd0d33f0d5e2075724c24,19,Mężczyzna,2022-06-11_11h00.34.806,task,2021.1.4,Win32,144.0092166,6299f149e92ead563fba08ef,62a45999b417b60dae3ef579,,,,,,,,,,,,,,,,,,,,,,,,,,,,,,,,,,,,,,,,,,,,,,,,,,,1,0,1,0,1,,,,,,,,,,,,,,,,,,,,,,,,,,,,,,,,,,,,,,,,,,,,,,
,,,,,,,,,,,,5f1fd0d33f0d5e2075724c24,19,Mężczyzna,2022-06-11_11h00.34.806,task,2021.1.4,Win32,144.0092166,6299f149e92ead563fba08ef,62a45999b417b60dae3ef579,,,,,,,,,,,,,,,,,,,,,,,,,,,,,,,,,,,,,,,,,,,,,,,,,,,,,,,,tp,"[""t"",""p""]",0,"[1.3708999999998923,1.5470999999998298,1.9470000000000027]",1,2,0,2,0,1,,,,,,,,,,,,,,,,,,,,,,,,,,,,,,,,,,,,
,,,,,,,,,,,,5f1fd0d33f0d5e2075724c24,19,Mężczyzna,2022-06-11_11h00.34.806,task,2021.1.4,Win32,144.0092166,6299f149e92ead563fba08ef,62a45999b417b60dae3ef579,,,,,,,,,,,,,,,,,,,,,,,Task,39,(5x3) - 7,8,,,,,,,,,,,,,,,,,,,0,,,,,,,,,,,,,,,,,,,,,space,18.8767,,0,0,0,0,38,1,,,,,,,,,,,,,,,,,,,,,,,,,,,
,,,,,,,,,,,,5f1fd0d33f0d5e2075724c24,19,Mężczyzna,2022-06-11_11h00.34.806,task,2021.1.4,Win32,144.0092166,6299f149e92ead563fba08ef,62a45999b417b60dae3ef579,,,,,,,,,,,,,0,,,,,,,,,,Task,33,(1/1) - 1,0,,,,,,,,,,,,,,,,,,,1,,,,,,,,,,,,,,,,,,,,,,,"[""0""]",1,0,1,1,32,1,[1.6712999999998033],,,,,,,,,,,,,,,,,,,,,,,,,,
,,,,,,,,,,,X V Q F H G B L J M P D K C T S W R N Z,5f1fd0d33f0d5e2075724c24,19,Mężczyzna,2022-06-11_11h00.34.806,task,2021.1.4,Win32,144.0092166,6299f149e92ead563fba08ef,62a45999b417b60dae3ef579,,,,,,,,,,,,,,,,,,,,,,,,,,,,,,,,,,,,,,,,,,,,,,,,,,,,,,,,,,,,,,,,,,,,,,,,,,,,0,0,0,0,1,,,,,,,,,,,,,,,,,,,,,
,,,,,,,,,,,,5f1fd0d33f0d5e2075724c24,19,Mężczyzna,2022-06-11_11h00.34.806,task,2021.1.4,Win32,144.0092166,6299f149e92ead563fba08ef,62a45999b417b60dae3ef579,,,,,,,,,,,,,4,,,,,,,,,,Task,28,(2x5) - 6,4,,,,,,,,,,,,,,,,,,,1,,,,,,,,,,,,,,,,,,,,,,,"[""4""]",1,0,0,0,27,1,[4.030399999999929],,,,,,,,,,,,,,,,,,,,,,,,,,
,,,,,,,,,,,X V Q F H G B L J M P D K C T S W R N Z,5f1fd0d33f0d5e2075724c24,19,Mężczyzna,2022-06-11_11h00.34.806,task,2021.1.4,Win32,144.0092166,6299f149e92ead563fba08ef,62a45999b417b60dae3ef579,,,,,,,,,,,,,,,,,,,,,,,,,,,,,,,,,,,,,,,,,,,,,,,,,,,,,,,,,,,,,,,,,,,,,,,,,,,,1,0,1,0,1,,,,,,,,,,,,,,,,,,,,,
,,,,,,,,,,,,5f1fd0d33f0d5e2075724c24,19,Mężczyzna,2022-06-11_11h00.34.806,task,2021.1.4,Win32,144.0092166,6299f149e92ead563fba08ef,62a45999b417b60dae3ef579,,,,,,,,,,,,,,,,,,,,,,,,,,,,,,,,,,,,,,,,,,,,,,,,,,,,,,,,,,,,,,,,,,,,,,,,,,,,,,,,,zs,"[""z"",""s""]",0,"[1.5626999999999498,1.7214999999999918,10.233300000000042]",1,ZS,0,0,0,0,1,,,,,,,,,,
,,,,,,,,,,,,5f1fd0d33f0d5e2075724c24,19,Mężczyzna,2022-06-11_11h00.34.806,task,2021.1.4,Win32,144.0092166,6299f149e92ead563fba08ef,62a45999b417b60dae3ef579,,,,,,,,,,,,,3,,,,,,,,,,Task,27,(3/3) + 2,3,,,,,,,,,,,,,,,,,,,1,,,,,,,,,,,,,,,,,,,,,,,"[""3""]",1,0,0,0,26,1,[2.5523000000000593],,,,,,,,,,,,,,,,,,,,,,,,,,
,,,,,,,,,,,X V Q F H G B L J M P D K C T S W R N Z,5f1fd0d33f0d5e2075724c24,19,Mężczyzna,2022-06-11_11h00.34.806,task,2021.1.4,Win32,144.0092166,6299f149e92ead563fba08ef,62a45999b417b60dae3ef579,,,,,,,,,,,,,,,,,,,,,,,,,,,,,,,,,,,,,,,,,,,,,,,,,,,,,,,,,,,,,,,,,,,,,,,,,,,,0,0,0,0,1,,,,,,,,,,,,,,,,,,,,,
,,,,,,,,,,,,5f1fd0d33f0d5e2075724c24,19,Mężczyzna,2022-06-11_11h00.34.806,task,2021.1.4,Win32,144.0092166,6299f149e92ead563fba08ef,62a45999b417b60dae3ef579,,,,,,,,,,,,,5,,,,,,,,,,Task,12,(4x4) - 11,5,,,,,,,,,,,,,,,,,,,1,,,,,,,,,,,,,,,,,,,,,,,"[""5""]",1,0,0,0,11,1,[2.3373000000000843],,,,,,,,,,,,,,,,,,,,,,,,,,
,,,,,,,,,,,X V Q F H G B L J M P D K C T S W R N Z,5f1fd0d33f0d5e2075724c24,19,Mężczyzna,2022-06-11_11h00.34.806,task,2021.1.4,Win32,144.0092166,6299f149e92ead563fba08ef,62a45999b417b60dae3ef579,,,,,,,,,,,,,,,,,,,,,,,,,,,,,,,,,,,,,,,,,,,,,,,,,,,,,,,,,,,,,,,,,,,,,,,,,,,,1,0,1,0,1,,,,,,,,,,,,,,,,,,,,,
,,,,,,,,,,,,5f1fd0d33f0d5e2075724c24,19,Mężczyzna,2022-06-11_11h00.34.806,task,2021.1.4,Win32,144.0092166,6299f149e92ead563fba08ef,62a45999b417b60dae3ef579,,,,,,,,,,,,,2,,,,,,,,,,Task,10,(2x5) - 8,2,,,,,,,,,,,,,,,,,,,1,,,,,,,,,,,,,,,,,,,,,,,"[""2""]",1,0,0,0,9,1,[2.7624999999999886],,,,,,,,,,,,,,,,,,,,,,,,,,
,,,,,,,,,,,X V Q F H G B L J M P D K C T S W R N Z,5f1fd0d33f0d5e2075724c24,19,Mężczyzna,2022-06-11_11h00.34.806,task,2021.1.4,Win32,144.0092166,6299f149e92ead563fba08ef,62a45999b417b60dae3ef579,,,,,,,,,,,,,,,,,,,,,,,,,,,,,,,,,,,,,,,,,,,,,,,,,,,,,,,,,,,,,,,,,,,,,,,,,,,,2,0,2,0,1,,,,,,,,,,,,,,,,,,,,,
,,,,,,,,,,,,5f1fd0d33f0d5e2075724c24,19,Mężczyzna,2022-06-11_11h00.34.806,task,2021.1.4,Win32,144.0092166,6299f149e92ead563fba08ef,62a45999b417b60dae3ef579,,,,,,,,,,,,,,,,,,,,,,,,,,,,,,,,,,,,,,,,,,,,,,,,,,,,,,,,,,,,,,,,,,,,,,,,,,,,,,,,,zfw,"[""z"",""f"",""w""]",0,"[1.099300000000028,1.2673000000000343,1.5477000000001908,2.0111000000001127]",1,ZFW,1,0,1,0,1,,,,,,,,,,
,,,,,,,,,,,,5f1fd0d33f0d5e2075724c24,19,Mężczyzna,2022-06-11_11h00.34.806,task,2021.1.4,Win32,144.0092166,6299f149e92ead563fba08ef,62a45999b417b60dae3ef579,,,,,,,,,,,,,5,,,,,,,,,,Task,36,(8/4) + 3,5,,,,,,,,,,,,,,,,,,,1,,,,,,,,,,,,,,,,,,,,,,,"[""5""]",1,0,0,0,35,1,[2.126899999999921],,,,,,,,,,,,,,,,,,,,,,,,,,
,,,,,,,,,,,X V Q F H G B L J M P D K C T S W R N Z,5f1fd0d33f0d5e2075724c24,19,Mężczyzna,2022-06-11_11h00.34.806,task,2021.1.4,Win32,144.0092166,6299f149e92ead563fba08ef,62a45999b417b60dae3ef579,,,,,,,,,,,,,,,,,,,,,,,,,,,,,,,,,,,,,,,,,,,,,,,,,,,,,,,,,,,,,,,,,,,,,,,,,,,,0,0,0,0,1,,,,,,,,,,,,,,,,,,,,,
,,,,,,,,,,,,5f1fd0d33f0d5e2075724c24,19,Mężczyzna,2022-06-11_11h00.34.806,task,2021.1.4,Win32,144.0092166,6299f149e92ead563fba08ef,62a45999b417b60dae3ef579,,,,,,,,,,,,,7,,,,,,,,,,Task,6,(12/2) + 1,7,,,,,,,,,,,,,,,,,,,1,,,,,,,,,,,,,,,,,,,,,,,"[""7""]",1,0,0,0,5,1,[1.9216999999999302],,,,,,,,,,,,,,,,,,,,,,,,,,
,,,,,,,,,,,X V Q F H G B L J M P D K C T S W R N Z,5f1fd0d33f0d5e2075724c24,19,Mężczyzna,2022-06-11_11h00.34.806,task,2021.1.4,Win32,144.0092166,6299f149e92ead563fba08ef,62a45999b417b60dae3ef579,,,,,,,,,,,,,,,,,,,,,,,,,,,,,,,,,,,,,,,,,,,,,,,,,,,,,,,,,,,,,,,,,,,,,,,,,,,,1,0,1,0,1,,,,,,,,,,,,,,,,,,,,,
,,,,,,,,,,,,5f1fd0d33f0d5e2075724c24,19,Mężczyzna,2022-06-11_11h00.34.806,task,2021.1.4,Win32,144.0092166,6299f149e92ead563fba08ef,62a45999b417b60dae3ef579,,,,,,,,,,,,,8,,,,,,,,,,Task,39,(5x3) - 7,8,,,,,,,,,,,,,,,,,,,1,,,,,,,,,,,,,,,,,,,,,,,"[""8""]",1,0,0,0,38,1,[2.6465999999998644],,,,,,,,,,,,,,,,,,,,,,,,,,
,,,,,,,,,,,X V Q F H G B L J M P D K C T S W R N Z,5f1fd0d33f0d5e2075724c24,19,Mężczyzna,2022-06-11_11h00.34.806,task,2021.1.4,Win32,144.0092166,6299f149e92ead563fba08ef,62a45999b417b60dae3ef579,,,,,,,,,,,,,,,,,,,,,,,,,,,,,,,,,,,,,,,,,,,,,,,,,,,,,,,,,,,,,,,,,,,,,,,,,,,,2,0,2,0,1,,,,,,,,,,,,,,,,,,,,,
,,,,,,,,,,,,5f1fd0d33f0d5e2075724c24,19,Mężczyzna,2022-06-11_11h00.34.806,task,2021.1.4,Win32,144.0092166,6299f149e92ead563fba08ef,62a45999b417b60dae3ef579,,,,,,,,,,,,,,,,,,,,,,,Task,7,(3x7) - 12,9,,,,,,,,,,,,,,,,,,,0,,,,,,,,,,,,,,,,,,,,,,,,0,0,0,0,6,1,,,,,,,,,,,,,,,,,,,,,,,,,,,
,,,,,,,,,,,,5f1fd0d33f0d5e2075724c24,19,Mężczyzna,2022-06-11_11h00.34.806,task,2021.1.4,Win32,144.0092166,6299f149e92ead563fba08ef,62a45999b417b60dae3ef579,,,,,,,,,,,,,6,,,,,,,,,,Task,30,(6/3) + 4 ,6,,,,,,,,,,,,,,,,,,,1,,,,,,,,,,,,,,,,,,,,,,,"[""6""]",1,0,1,1,29,1,[2.0353999999999246],,,,,,,,,,,,,,,,,,,,,,,,,,
,,,,,,,,,,,X V Q F H G B L J M P D K C T S W R N Z,5f1fd0d33f0d5e2075724c24,19,Mężczyzna,2022-06-11_11h00.34.806,task,2021.1.4,Win32,144.0092166,6299f149e92ead563fba08ef,62a45999b417b60dae3ef579,,,,,,,,,,,,,,,,,,,,,,,,,,,,,,,,,,,,,,,,,,,,,,,,,,,,,,,,,,,,,,,,,,,,,,,,,,,,3,0,3,0,1,,,,,,,,,,,,,,,,,,,,,
,,,,,,,,,,,,5f1fd0d33f0d5e2075724c24,19,Mężczyzna,2022-06-11_11h00.34.806,task,2021.1.4,Win32,144.0092166,6299f149e92ead563fba08ef,62a45999b417b60dae3ef579,,,,,,,,,,,,,,,,,,,,,,,,,,,,,,,,,,,,,,,,,,,,,,,,,,,,,,,,,,,,,,,,,,,,,,,,,,,,,,,,,wdkp,"[""w"",""d"",""k"",""p""]",0,"[1.0500000000000114,1.2335999999998535,1.4308999999998946,1.6415000000000077,2.187799999999811]",1,WDKP,2,0,2,0,1,,,,,,,,,,
,,,,,,,,,,,,5f1fd0d33f0d5e2075724c24,19,Mężczyzna,2022-06-11_11h00.34.806,task,2021.1.4,Win32,144.0092166,6299f149e92ead563fba08ef,62a45999b417b60dae3ef579,,,,,,,,,,,,,,,,,,,,,,,Task,16,(3x8) - 15,9,,,,,,,,,,,,,,,,,,,0,,,,,,,,,,,,,,,,,,,,,,,,0,0,0,0,15,1,,,,,,,,,,,,,,,,,,,,,,,,,,,
,,,,,,,,,,,,5f1fd0d33f0d5e2075724c24,19,Mężczyzna,2022-06-11_11h00.34.806,task,2021.1.4,Win32,144.0092166,6299f149e92ead563fba08ef,62a45999b417b60dae3ef579,,,,,,,,,,,,,4,,,,,,,,,,Task,4,(1x5) - 1,4,,,,,,,,,,,,,,,,,,,1,,,,,,,,,,,,,,,,,,,,,,,"[""4""]",1,0,1,1,3,1,[1.8926000000000727],,,,,,,,,,,,,,,,,,,,,,,,,,
,,,,,,,,,,,X V Q F H G B L J M P D K C T S W R N Z,5f1fd0d33f0d5e2075724c24,19,Mężczyzna,2022-06-11_11h00.34.806,task,2021.1.4,Win32,144.0092166,6299f149e92ead563fba08ef,62a45999b417b60dae3ef579,,,,,,,,,,,,,,,,,,,,,,,,,,,,,,,,,,,,,,,,,,,,,,,,,,,,,,,,,,,,,,,,,,,,,,,,,,,,0,0,0,0,1,,,,,,,,,,,,,,,,,,,,,
,,,,,,,,,,,,5f1fd0d33f0d5e2075724c24,19,Mężczyzna,2022-06-11_11h00.34.806,task,2021.1.4,Win32,144.0092166,6299f149e92ead563fba08ef,62a45999b417b60dae3ef579,,,,,,,,,,,,,2,,,,,,,,,,Task,10,(2x5) - 8,2,,,,,,,,,,,,,,,,,,,1,,,,,,,,,,,,,,,,,,,,,,,"[""2""]",1,0,0,0,9,1,[1.7613999999999237],,,,,,,,,,,,,,,,,,,,,,,,,,
,,,,,,,,,,,X V Q F H G B L J M P D K C T S W R N Z,5f1fd0d33f0d5e2075724c24,19,Mężczyzna,2022-06-11_11h00.34.806,task,2021.1.4,Win32,144.0092166,6299f149e92ead563fba08ef,62a45999b417b60dae3ef579,,,,,,,,,,,,,,,,,,,,,,,,,,,,,,,,,,,,,,,,,,,,,,,,,,,,,,,,,,,,,,,,,,,,,,,,,,,,1,0,1,0,1,,,,,,,,,,,,,,,,,,,,,
,,,,,,,,,,,,5f1fd0d33f0d5e2075724c24,19,Mężczyzna,2022-06-11_11h00.34.806,task,2021.1.4,Win32,144.0092166,6299f149e92ead563fba08ef,62a45999b417b60dae3ef579,,,,,,,,,,,,,6,,,,,,,,,,Task,37,(3/3) + 5,6,,,,,,,,,,,,,,,,,,,1,,,,,,,,,,,,,,,,,,,,,,,"[""6""]",1,0,0,0,36,1,[1.591600000000085],,,,,,,,,,,,,,,,,,,,,,,,,,
,,,,,,,,,,,X V Q F H G B L J M P D K C T S W R N Z,5f1fd0d33f0d5e2075724c24,19,Mężczyzna,2022-06-11_11h00.34.806,task,2021.1.4,Win32,144.0092166,6299f149e92ead563fba08ef,62a45999b417b60dae3ef579,,,,,,,,,,,,,,,,,,,,,,,,,,,,,,,,,,,,,,,,,,,,,,,,,,,,,,,,,,,,,,,,,,,,,,,,,,,,2,0,2,0,1,,,,,,,,,,,,,,,,,,,,,
,,,,,,,,,,,,5f1fd0d33f0d5e2075724c24,19,Mężczyzna,2022-06-11_11h00.34.806,task,2021.1.4,Win32,144.0092166,6299f149e92ead563fba08ef,62a45999b417b60dae3ef579,,,,,,,,,,,,,2,,,,,,,,,,Task,10,(2x5) - 8,2,,,,,,,,,,,,,,,,,,,1,,,,,,,,,,,,,,,,,,,,,,,"[""2""]",1,0,0,0,9,1,[1.208500000000015],,,,,,,,,,,,,,,,,,,,,,,,,,
,,,,,,,,,,,X V Q F H G B L J M P D K C T S W R N Z,5f1fd0d33f0d5e2075724c24,19,Mężczyzna,2022-06-11_11h00.34.806,task,2021.1.4,Win32,144.0092166,6299f149e92ead563fba08ef,62a45999b417b60dae3ef579,,,,,,,,,,,,,,,,,,,,,,,,,,,,,,,,,,,,,,,,,,,,,,,,,,,,,,,,,,,,,,,,,,,,,,,,,,,,3,0,3,0,1,,,,,,,,,,,,,,,,,,,,,
,,,,,,,,,,,,5f1fd0d33f0d5e2075724c24,19,Mężczyzna,2022-06-11_11h00.34.806,task,2021.1.4,Win32,144.0092166,6299f149e92ead563fba08ef,62a45999b417b60dae3ef579,,,,,,,,,,,,,0,,,,,,,,,,Task,8,(1x5) - 5,0,,,,,,,,,,,,,,,,,,,1,,,,,,,,,,,,,,,,,,,,,,,"[""0""]",1,0,0,0,7,1,[2.2921000000001186],,,,,,,,,,,,,,,,,,,,,,,,,,
,,,,,,,,,,,X V Q F H G B L J M P D K C T S W R N Z,5f1fd0d33f0d5e2075724c24,19,Mężczyzna,2022-06-11_11h00.34.806,task,2021.1.4,Win32,144.0092166,6299f149e92ead563fba08ef,62a45999b417b60dae3ef579,,,,,,,,,,,,,,,,,,,,,,,,,,,,,,,,,,,,,,,,,,,,,,,,,,,,,,,,,,,,,,,,,,,,,,,,,,,,4,0,4,0,1,,,,,,,,,,,,,,,,,,,,,
,,,,,,,,,,,,5f1fd0d33f0d5e2075724c24,19,Mężczyzna,2022-06-11_11h00.34.806,task,2021.1.4,Win32,144.0092166,6299f149e92ead563fba08ef,62a45999b417b60dae3ef579,,,,,,,,,,,,,,,,,,,,,,,,,,,,,,,,,,,,,,,,,,,,,,,,,,,,,,,,,,,,,,,,,,,,,,,,,,,,,,,,,mckbg,"[""m"",""c"",""k"",""b"",""g""]",0,"[1.9823999999999273,2.142699999999934,2.414399999999887,3.0546000000001072,3.686399999999935,7.278500000000008]",1,MCKBG,3,0,3,0,1,,,,,,,,,,
,,,,,,,,,,,,5f1fd0d33f0d5e2075724c24,19,Mężczyzna,2022-06-11_11h00.34.806,task,2021.1.4,Win32,144.0092166,6299f149e92ead563fba08ef,62a45999b417b60dae3ef579,,,,,,,,,,,,,9,,,,,,,,,,Task,21,(10/2) - 1,4,,,,,,,,,,,,,,,,,,,0,,,,,,,,,,,,,,,,,,,,,,,"[""9""]",0,0,0,0,20,1,[2.24980000000005],,,,,,,,,,,,,,,,,,,,,,,,,,
,,,,,,,,,,,,5f1fd0d33f0d5e2075724c24,19,Mężczyzna,2022-06-11_11h00.34.806,task,2021.1.4,Win32,144.0092166,6299f149e92ead563fba08ef,62a45999b417b60dae3ef579,,,,,,,,,,,,,7,,,,,,,,,,Task,7,(3x7) - 12,9,,,,,,,,,,,,,,,,,,,0,,,,,,,,,,,,,,,,,,,,,,,"[""7""]",0,0,1,1,6,1,[4.340600000000109],,,,,,,,,,,,,,,,,,,,,,,,,,
,,,,,,,,,,,,5f1fd0d33f0d5e2075724c24,19,Mężczyzna,2022-06-11_11h00.34.806,task,2021.1.4,Win32,144.0092166,6299f149e92ead563fba08ef,62a45999b417b60dae3ef579,,,,,,,,,,,,,7,,,,,,,,,,Task,6,(12/2) + 1,7,,,,,,,,,,,,,,,,,,,1,,,,,,,,,,,,,,,,,,,,,,,"[""7""]",1,0,2,2,5,1,[2.0331999999999653],,,,,,,,,,,,,,,,,,,,,,,,,,
,,,,,,,,,,,X V Q F H G B L J M P D K C T S W R N Z,5f1fd0d33f0d5e2075724c24,19,Mężczyzna,2022-06-11_11h00.34.806,task,2021.1.4,Win32,144.0092166,6299f149e92ead563fba08ef,62a45999b417b60dae3ef579,,,,,,,,,,,,,,,,,,,,,,,,,,,,,,,,,,,,,,,,,,,,,,,,,,,,,,,,,,,,,,,,,,,,,,,,,,,,0,0,0,0,1,,,,,,,,,,,,,,,,,,,,,
,,,,,,,,,,,,5f1fd0d33f0d5e2075724c24,19,Mężczyzna,2022-06-11_11h00.34.806,task,2021.1.4,Win32,144.0092166,6299f149e92ead563fba08ef,62a45999b417b60dae3ef579,,,,,,,,,,,,,9,,,,,,,,,,Task,40,(7x2) - 5,9,,,,,,,,,,,,,,,,,,,1,,,,,,,,,,,,,,,,,,,,,,,"[""9""]",1,0,0,0,39,1,[3.043399999999906],,,,,,,,,,,,,,,,,,,,,,,,,,
,,,,,,,,,,,X V Q F H G B L J M P D K C T S W R N Z,5f1fd0d33f0d5e2075724c24,19,Mężczyzna,2022-06-11_11h00.34.806,task,2021.1.4,Win32,144.0092166,6299f149e92ead563fba08ef,62a45999b417b60dae3ef579,,,,,,,,,,,,,,,,,,,,,,,,,,,,,,,,,,,,,,,,,,,,,,,,,,,,,,,,,,,,,,,,,,,,,,,,,,,,1,0,1,0,1,,,,,,,,,,,,,,,,,,,,,
,,,,,,,,,,,,5f1fd0d33f0d5e2075724c24,19,Mężczyzna,2022-06-11_11h00.34.806,task,2021.1.4,Win32,144.0092166,6299f149e92ead563fba08ef,62a45999b417b60dae3ef579,,,,,,,,,,,,,1,,,,,,,,,,Task,34,(9/3) - 2,1,,,,,,,,,,,,,,,,,,,1,,,,,,,,,,,,,,,,,,,,,,,"[""1""]",1,0,0,0,33,1,[3.06269999999995],,,,,,,,,,,,,,,,,,,,,,,,,,
,,,,,,,,,,,X V Q F H G B L J M P D K C T S W R N Z,5f1fd0d33f0d5e2075724c24,19,Mężczyzna,2022-06-11_11h00.34.806,task,2021.1.4,Win32,144.0092166,6299f149e92ead563fba08ef,62a45999b417b60dae3ef579,,,,,,,,,,,,,,,,,,,,,,,,,,,,,,,,,,,,,,,,,,,,,,,,,,,,,,,,,,,,,,,,,,,,,,,,,,,,2,0,2,0,1,,,,,,,,,,,,,,,,,,,,,
,,,,,,,,,,,,5f1fd0d33f0d5e2075724c24,19,Mężczyzna,2022-06-11_11h00.34.806,task,2021.1.4,Win32,144.0092166,6299f149e92ead563fba08ef,62a45999b417b60dae3ef579,,,,,,,,,,,,,7,,,,,,,,,,Task,14,(2x2) + 3,7,,,,,,,,,,,,,,,,,,,1,,,,,,,,,,,,,,,,,,,,,,,"[""7""]",1,0,0,0,13,1,[1.9583999999999264],,,,,,,,,,,,,,,,,,,,,,,,,,
,,,,,,,,,,,X V Q F H G B L J M P D K C T S W R N Z,5f1fd0d33f0d5e2075724c24,19,Mężczyzna,2022-06-11_11h00.34.806,task,2021.1.4,Win32,144.0092166,6299f149e92ead563fba08ef,62a45999b417b60dae3ef579,,,,,,,,,,,,,,,,,,,,,,,,,,,,,,,,,,,,,,,,,,,,,,,,,,,,,,,,,,,,,,,,,,,,,,,,,,,,3,0,3,0,1,,,,,,,,,,,,,,,,,,,,,
,,,,,,,,,,,,5f1fd0d33f0d5e2075724c24,19,Mężczyzna,2022-06-11_11h00.34.806,task,2021.1.4,Win32,144.0092166,6299f149e92ead563fba08ef,62a45999b417b60dae3ef579,,,,,,,,,,,,,0,,,,,,,,,,Task,25,(10/5) - 2,0,,,,,,,,,,,,,,,,,,,1,,,,,,,,,,,,,,,,,,,,,,,"[""0""]",1,0,0,0,24,1,[2.4225000000000136],,,,,,,,,,,,,,,,,,,,,,,,,,
,,,,,,,,,,,X V Q F H G B L J M P D K C T S W R N Z,5f1fd0d33f0d5e2075724c24,19,Mężczyzna,2022-06-11_11h00.34.806,task,2021.1.4,Win32,144.0092166,6299f149e92ead563fba08ef,62a45999b417b60dae3ef579,,,,,,,,,,,,,,,,,,,,,,,,,,,,,,,,,,,,,,,,,,,,,,,,,,,,,,,,,,,,,,,,,,,,,,,,,,,,4,0,4,0,1,,,,,,,,,,,,,,,,,,,,,
,,,,,,,,,,,,5f1fd0d33f0d5e2075724c24,19,Mężczyzna,2022-06-11_11h00.34.806,task,2021.1.4,Win32,144.0092166,6299f149e92ead563fba08ef,62a45999b417b60dae3ef579,,,,,,,,,,,,,,,,,,,,,,,Task,3,(2x3) - 3,3,,,,,,,,,,,,,,,,,,,0,,,,,,,,,,,,,,,,,,,,,,,,0,0,0,0,2,1,,,,,,,,,,,,,,,,,,,,,,,,,,,
,,,,,,,,,,,,5f1fd0d33f0d5e2075724c24,19,Mężczyzna,2022-06-11_11h00.34.806,task,2021.1.4,Win32,144.0092166,6299f149e92ead563fba08ef,62a45999b417b60dae3ef579,,,,,,,,,,,,,6,,,,,,,,,,Task,30,(6/3) + 4 ,6,,,,,,,,,,,,,,,,,,,1,,,,,,,,,,,,,,,,,,,,,,,"[""6""]",1,0,1,1,29,1,[2.363800000000083],,,,,,,,,,,,,,,,,,,,,,,,,,
,,,,,,,,,,,X V Q F H G B L J M P D K C T S W R N Z,5f1fd0d33f0d5e2075724c24,19,Mężczyzna,2022-06-11_11h00.34.806,task,2021.1.4,Win32,144.0092166,6299f149e92ead563fba08ef,62a45999b417b60dae3ef579,,,,,,,,,,,,,,,,,,,,,,,,,,,,,,,,,,,,,,,,,,,,,,,,,,,,,,,,,,,,,,,,,,,,,,,,,,,,5,0,5,0,1,,,,,,,,,,,,,,,,,,,,,
,,,,,,,,,,,,5f1fd0d33f0d5e2075724c24,19,Mężczyzna,2022-06-11_11h00.34.806,task,2021.1.4,Win32,144.0092166,6299f149e92ead563fba08ef,62a45999b417b60dae3ef579,,,,,,,,,,,,,,,,,,,,,,,,,,,,,,,,,,,,,,,,,,,,,,,,,,,,,,,,,,,,,,,,,,,,,,,,,,,,,,,,,mvrvxt,"[""m"",""v"",""r"",""v"",""x"",""t""]",0,"[1.4037999999999897,1.7059999999999604,2.010199999999884,2.282099999999957,3.130100000000027,3.4104999999998995,3.9861000000000217]",1,MVRVXT,4,0,4,0,1,,,,,,,,,,
,,,,,,,,,,,,5f1fd0d33f0d5e2075724c24,19,Mężczyzna,2022-06-11_11h00.34.806,task,2021.1.4,Win32,144.0092166,6299f149e92ead563fba08ef,62a45999b417b60dae3ef579,,,,,,,,,,,,,3,,,,,,,,,,Task,39,(5x3) - 7,8,,,,,,,,,,,,,,,,,,,0,,,,,,,,,,,,,,,,,,,,,,,"[""3""]",0,0,0,0,38,1,[3.5616999999999734],,,,,,,,,,,,,,,,,,,,,,,,,,
,,,,,,,,,,,,5f1fd0d33f0d5e2075724c24,19,Mężczyzna,2022-06-11_11h00.34.806,task,2021.1.4,Win32,144.0092166,6299f149e92ead563fba08ef,62a45999b417b60dae3ef579,,,,,,,,,,,,,7,,,,,,,,,,Task,14,(2x2) + 3,7,,,,,,,,,,,,,,,,,,,1,,,,,,,,,,,,,,,,,,,,,,,"[""7""]",1,0,1,1,13,1,[2.47219999999993],,,,,,,,,,,,,,,,,,,,,,,,,,
,,,,,,,,,,,X V Q F H G B L J M P D K C T S W R N Z,5f1fd0d33f0d5e2075724c24,19,Mężczyzna,2022-06-11_11h00.34.806,task,2021.1.4,Win32,144.0092166,6299f149e92ead563fba08ef,62a45999b417b60dae3ef579,,,,,,,,,,,,,,,,,,,,,,,,,,,,,,,,,,,,,,,,,,,,,,,,,,,,,,,,,,,,,,,,,,,,,,,,,,,,0,0,0,0,1,,,,,,,,,,,,,,,,,,,,,
,,,,,,,,,,,,5f1fd0d33f0d5e2075724c24,19,Mężczyzna,2022-06-11_11h00.34.806,task,2021.1.4,Win32,144.0092166,6299f149e92ead563fba08ef,62a45999b417b60dae3ef579,,,,,,,,,,,,,6,,,,,,,,,,Task,37,(3/3) + 5,6,,,,,,,,,,,,,,,,,,,1,,,,,,,,,,,,,,,,,,,,,,,"[""6""]",1,0,0,0,36,1,[1.7504999999999882],,,,,,,,,,,,,,,,,,,,,,,,,,
,,,,,,,,,,,X V Q F H G B L J M P D K C T S W R N Z,5f1fd0d33f0d5e2075724c24,19,Mężczyzna,2022-06-11_11h00.34.806,task,2021.1.4,Win32,144.0092166,6299f149e92ead563fba08ef,62a45999b417b60dae3ef579,,,,,,,,,,,,,,,,,,,,,,,,,,,,,,,,,,,,,,,,,,,,,,,,,,,,,,,,,,,,,,,,,,,,,,,,,,,,1,0,1,0,1,,,,,,,,,,,,,,,,,,,,,
,,,,,,,,,,,,5f1fd0d33f0d5e2075724c24,19,Mężczyzna,2022-06-11_11h00.34.806,task,2021.1.4,Win32,144.0092166,6299f149e92ead563fba08ef,62a45999b417b60dae3ef579,,,,,,,,,,,,,3,,,,,,,,,,Task,20,(18/9) + 1,3,,,,,,,,,,,,,,,,,,,1,,,,,,,,,,,,,,,,,,,,,,,"[""3""]",1,0,0,0,19,1,[1.67670000000021],,,,,,,,,,,,,,,,,,,,,,,,,,
,,,,,,,,,,,X V Q F H G B L J M P D K C T S W R N Z,5f1fd0d33f0d5e2075724c24,19,Mężczyzna,2022-06-11_11h00.34.806,task,2021.1.4,Win32,144.0092166,6299f149e92ead563fba08ef,62a45999b417b60dae3ef579,,,,,,,,,,,,,,,,,,,,,,,,,,,,,,,,,,,,,,,,,,,,,,,,,,,,,,,,,,,,,,,,,,,,,,,,,,,,2,0,2,0,1,,,,,,,,,,,,,,,,,,,,,
,,,,,,,,,,,,5f1fd0d33f0d5e2075724c24,19,Mężczyzna,2022-06-11_11h00.34.806,task,2021.1.4,Win32,144.0092166,6299f149e92ead563fba08ef,62a45999b417b60dae3ef579,,,,,,,,,,,,,9,,,,,,,,,,Task,40,(7x2) - 5,9,,,,,,,,,,,,,,,,,,,1,,,,,,,,,,,,,,,,,,,,,,,"[""9""]",1,0,0,0,39,1,[3.101899999999887],,,,,,,,,,,,,,,,,,,,,,,,,,
,,,,,,,,,,,X V Q F H G B L J M P D K C T S W R N Z,5f1fd0d33f0d5e2075724c24,19,Mężczyzna,2022-06-11_11h00.34.806,task,2021.1.4,Win32,144.0092166,6299f149e92ead563fba08ef,62a45999b417b60dae3ef579,,,,,,,,,,,,,,,,,,,,,,,,,,,,,,,,,,,,,,,,,,,,,,,,,,,,,,,,,,,,,,,,,,,,,,,,,,,,3,0,3,0,1,,,,,,,,,,,,,,,,,,,,,
,,,,,,,,,,,,5f1fd0d33f0d5e2075724c24,19,Mężczyzna,2022-06-11_11h00.34.806,task,2021.1.4,Win32,144.0092166,6299f149e92ead563fba08ef,62a45999b417b60dae3ef579,,,,,,,,,,,,,0,,,,,,,,,,Task,17,(2x3) - 6,0,,,,,,,,,,,,,,,,,,,1,,,,,,,,,,,,,,,,,,,,,,,"[""0""]",1,0,0,0,16,1,[2.587500000000091],,,,,,,,,,,,,,,,,,,,,,,,,,
,,,,,,,,,,,X V Q F H G B L J M P D K C T S W R N Z,5f1fd0d33f0d5e2075724c24,19,Mężczyzna,2022-06-11_11h00.34.806,task,2021.1.4,Win32,144.0092166,6299f149e92ead563fba08ef,62a45999b417b60dae3ef579,,,,,,,,,,,,,,,,,,,,,,,,,,,,,,,,,,,,,,,,,,,,,,,,,,,,,,,,,,,,,,,,,,,,,,,,,,,,4,0,4,0,1,,,,,,,,,,,,,,,,,,,,,
,,,,,,,,,,,,5f1fd0d33f0d5e2075724c24,19,Mężczyzna,2022-06-11_11h00.34.806,task,2021.1.4,Win32,144.0092166,6299f149e92ead563fba08ef,62a45999b417b60dae3ef579,,,,,,,,,,,,,4,,,,,,,,,,Task,21,(10/2) - 1,4,,,,,,,,,,,,,,,,,,,1,,,,,,,,,,,,,,,,,,,,,,,"[""4""]",1,0,0,0,20,1,[2.90300000000002],,,,,,,,,,,,,,,,,,,,,,,,,,
,,,,,,,,,,,X V Q F H G B L J M P D K C T S W R N Z,5f1fd0d33f0d5e2075724c24,19,Mężczyzna,2022-06-11_11h00.34.806,task,2021.1.4,Win32,144.0092166,6299f149e92ead563fba08ef,62a45999b417b60dae3ef579,,,,,,,,,,,,,,,,,,,,,,,,,,,,,,,,,,,,,,,,,,,,,,,,,,,,,,,,,,,,,,,,,,,,,,,,,,,,5,0,5,0,1,,,,,,,,,,,,,,,,,,,,,
,,,,,,,,,,,,5f1fd0d33f0d5e2075724c24,19,Mężczyzna,2022-06-11_11h00.34.806,task,2021.1.4,Win32,144.0092166,6299f149e92ead563fba08ef,62a45999b417b60dae3ef579,,,,,,,,,,,,,9,,,,,,,,,,Task,24,(2x2) + 5,9,,,,,,,,,,,,,,,,,,,1,,,,,,,,,,,,,,,,,,,,,,,"[""9""]",1,0,0,0,23,1,[2.673400000000129],,,,,,,,,,,,,,,,,,,,,,,,,,
,,,,,,,,,,,X V Q F H G B L J M P D K C T S W R N Z,5f1fd0d33f0d5e2075724c24,19,Mężczyzna,2022-06-11_11h00.34.806,task,2021.1.4,Win32,144.0092166,6299f149e92ead563fba08ef,62a45999b417b60dae3ef579,,,,,,,,,,,,,,,,,,,,,,,,,,,,,,,,,,,,,,,,,,,,,,,,,,,,,,,,,,,,,,,,,,,,,,,,,,,,6,0,6,0,1,,,,,,,,,,,,,,,,,,,,,
,,,,,,,,,,,,5f1fd0d33f0d5e2075724c24,19,Mężczyzna,2022-06-11_11h00.34.806,task,2021.1.4,Win32,144.0092166,6299f149e92ead563fba08ef,62a45999b417b60dae3ef579,,,,,,,,,,,,,,,,,,,,,,,,,,,,,,,,,,,,,,,,,,,,,,,,,,,,,,,,,,,,,,,,,,,,,,,,,,,,,,,,,mvrpqr,"[""m"",""v"",""r"",""p"",""q"",""r""]",0,"[1.6719999999999118,2.015899999999874,2.3687999999999647,2.5679999999999836,7.0984999999999445,7.271799999999985,9.736100000000079]",0,FGLPKTQ,5,0,5,0,1,,,,,,,,,,
,,,,,,,,,,,,5f1fd0d33f0d5e2075724c24,19,Mężczyzna,2022-06-11_11h00.34.806,task,2021.1.4,Win32,144.0092166,6299f149e92ead563fba08ef,62a45999b417b60dae3ef579,,,,,,,,,,,,,4,,,,,,,,,,Task,4,(1x5) - 1,4,,,,,,,,,,,,,,,,,,,1,,,,,,,,,,,,,,,,,,,,,,,"[""4""]",1,0,0,0,3,1,[1.5617000000002008],,,,,,,,,,,,,,,,,,,,,,,,,,
,,,,,,,,,,,X V Q F H G B L J M P D K C T S W R N Z,5f1fd0d33f0d5e2075724c24,19,Mężczyzna,2022-06-11_11h00.34.806,task,2021.1.4,Win32,144.0092166,6299f149e92ead563fba08ef,62a45999b417b60dae3ef579,,,,,,,,,,,,,,,,,,,,,,,,,,,,,,,,,,,,,,,,,,,,,,,,,,,,,,,,,,,,,,,,,,,,,,,,,,,,0,0,0,0,1,,,,,,,,,,,,,,,,,,,,,
,,,,,,,,,,,,5f1fd0d33f0d5e2075724c24,19,Mężczyzna,2022-06-11_11h00.34.806,task,2021.1.4,Win32,144.0092166,6299f149e92ead563fba08ef,62a45999b417b60dae3ef579,,,,,,,,,,,,,3,,,,,,,,,,Task,27,(3/3) + 2,3,,,,,,,,,,,,,,,,,,,1,,,,,,,,,,,,,,,,,,,,,,,"[""3""]",1,0,0,0,26,1,[3.1444999999999936],,,,,,,,,,,,,,,,,,,,,,,,,,
,,,,,,,,,,,X V Q F H G B L J M P D K C T S W R N Z,5f1fd0d33f0d5e2075724c24,19,Mężczyzna,2022-06-11_11h00.34.806,task,2021.1.4,Win32,144.0092166,6299f149e92ead563fba08ef,62a45999b417b60dae3ef579,,,,,,,,,,,,,,,,,,,,,,,,,,,,,,,,,,,,,,,,,,,,,,,,,,,,,,,,,,,,,,,,,,,,,,,,,,,,1,0,1,0,1,,,,,,,,,,,,,,,,,,,,,
,,,,,,,,,,,,5f1fd0d33f0d5e2075724c24,19,Mężczyzna,2022-06-11_11h00.34.806,task,2021.1.4,Win32,144.0092166,6299f149e92ead563fba08ef,62a45999b417b60dae3ef579,,,,,,,,,,,,,0,,,,,,,,,,Task,25,(10/5) - 2,0,,,,,,,,,,,,,,,,,,,1,,,,,,,,,,,,,,,,,,,,,,,"[""0""]",1,0,0,0,24,1,[2.545899999999847],,,,,,,,,,,,,,,,,,,,,,,,,,
,,,,,,,,,,,X V Q F H G B L J M P D K C T S W R N Z,5f1fd0d33f0d5e2075724c24,19,Mężczyzna,2022-06-11_11h00.34.806,task,2021.1.4,Win32,144.0092166,6299f149e92ead563fba08ef,62a45999b417b60dae3ef579,,,,,,,,,,,,,,,,,,,,,,,,,,,,,,,,,,,,,,,,,,,,,,,,,,,,,,,,,,,,,,,,,,,,,,,,,,,,2,0,2,0,1,,,,,,,,,,,,,,,,,,,,,
,,,,,,,,,,,,5f1fd0d33f0d5e2075724c24,19,Mężczyzna,2022-06-11_11h00.34.806,task,2021.1.4,Win32,144.0092166,6299f149e92ead563fba08ef,62a45999b417b60dae3ef579,,,,,,,,,,,,,0,,,,,,,,,,Task,25,(10/5) - 2,0,,,,,,,,,,,,,,,,,,,1,,,,,,,,,,,,,,,,,,,,,,,"[""0""]",1,0,0,0,24,1,[1.3353000000000748],,,,,,,,,,,,,,,,,,,,,,,,,,
,,,,,,,,,,,X V Q F H G B L J M P D K C T S W R N Z,5f1fd0d33f0d5e2075724c24,19,Mężczyzna,2022-06-11_11h00.34.806,task,2021.1.4,Win32,144.0092166,6299f149e92ead563fba08ef,62a45999b417b60dae3ef579,,,,,,,,,,,,,,,,,,,,,,,,,,,,,,,,,,,,,,,,,,,,,,,,,,,,,,,,,,,,,,,,,,,,,,,,,,,,3,0,3,0,1,,,,,,,,,,,,,,,,,,,,,
,,,,,,,,,,,,5f1fd0d33f0d5e2075724c24,19,Mężczyzna,2022-06-11_11h00.34.806,task,2021.1.4,Win32,144.0092166,6299f149e92ead563fba08ef,62a45999b417b60dae3ef579,,,,,,,,,,,,,1,,,,,,,,,,Task,1,(12/6) - 1,1,,,,,,,,,,,,,,,,,,,1,,,,,,,,,,,,,,,,,,,,,,,"[""1""]",1,0,0,0,0,1,[2.6831000000000813],,,,,,,,,,,,,,,,,,,,,,,,,,
,,,,,,,,,,,X V Q F H G B L J M P D K C T S W R N Z,5f1fd0d33f0d5e2075724c24,19,Mężczyzna,2022-06-11_11h00.34.806,task,2021.1.4,Win32,144.0092166,6299f149e92ead563fba08ef,62a45999b417b60dae3ef579,,,,,,,,,,,,,,,,,,,,,,,,,,,,,,,,,,,,,,,,,,,,,,,,,,,,,,,,,,,,,,,,,,,,,,,,,,,,4,0,4,0,1,,,,,,,,,,,,,,,,,,,,,
,,,,,,,,,,,,5f1fd0d33f0d5e2075724c24,19,Mężczyzna,2022-06-11_11h00.34.806,task,2021.1.4,Win32,144.0092166,6299f149e92ead563fba08ef,62a45999b417b60dae3ef579,,,,,,,,,,,,,1,,,,,,,,,,Task,25,(10/5) - 2,0,,,,,,,,,,,,,,,,,,,0,,,,,,,,,,,,,,,,,,,,,,,"[""1""]",0,0,0,0,24,1,[1.6704999999999472],,,,,,,,,,,,,,,,,,,,,,,,,,
,,,,,,,,,,,,5f1fd0d33f0d5e2075724c24,19,Mężczyzna,2022-06-11_11h00.34.806,task,2021.1.4,Win32,144.0092166,6299f149e92ead563fba08ef,62a45999b417b60dae3ef579,,,,,,,,,,,,,,,,,,,,,,,Task,30,(6/3) + 4 ,6,,,,,,,,,,,,,,,,,,,0,,,,,,,,,,,,,,,,,,,,,,,,0,0,1,1,29,1,,,,,,,,,,,,,,,,,,,,,,,,,,,
,,,,,,,,,,,,5f1fd0d33f0d5e2075724c24,19,Mężczyzna,2022-06-11_11h00.34.806,task,2021.1.4,Win32,144.0092166,6299f149e92ead563fba08ef,62a45999b417b60dae3ef579,,,,,,,,,,,,,6,,,,,,,,,,Task,37,(3/3) + 5,6,,,,,,,,,,,,,,,,,,,1,,,,,,,,,,,,,,,,,,,,,,,"[""6""]",1,0,2,2,36,1,[2.47969999999998],,,,,,,,,,,,,,,,,,,,,,,,,,
,,,,,,,,,,,X V Q F H G B L J M P D K C T S W R N Z,5f1fd0d33f0d5e2075724c24,19,Mężczyzna,2022-06-11_11h00.34.806,task,2021.1.4,Win32,144.0092166,6299f149e92ead563fba08ef,62a45999b417b60dae3ef579,,,,,,,,,,,,,,,,,,,,,,,,,,,,,,,,,,,,,,,,,,,,,,,,,,,,,,,,,,,,,,,,,,,,,,,,,,,,5,0,5,0,1,,,,,,,,,,,,,,,,,,,,,
,,,,,,,,,,,,5f1fd0d33f0d5e2075724c24,19,Mężczyzna,2022-06-11_11h00.34.806,task,2021.1.4,Win32,144.0092166,6299f149e92ead563fba08ef,62a45999b417b60dae3ef579,,,,,,,,,,,,,0,,,,,,,,,,Task,33,(1/1) - 1,0,,,,,,,,,,,,,,,,,,,1,,,,,,,,,,,,,,,,,,,,,,,"[""0""]",1,0,0,0,32,1,[1.2842000000000553],,,,,,,,,,,,,,,,,,,,,,,,,,
,,,,,,,,,,,X V Q F H G B L J M P D K C T S W R N Z,5f1fd0d33f0d5e2075724c24,19,Mężczyzna,2022-06-11_11h00.34.806,task,2021.1.4,Win32,144.0092166,6299f149e92ead563fba08ef,62a45999b417b60dae3ef579,,,,,,,,,,,,,,,,,,,,,,,,,,,,,,,,,,,,,,,,,,,,,,,,,,,,,,,,,,,,,,,,,,,,,,,,,,,,6,0,6,0,1,,,,,,,,,,,,,,,,,,,,,
,,,,,,,,,,,,5f1fd0d33f0d5e2075724c24,19,Mężczyzna,2022-06-11_11h00.34.806,task,2021.1.4,Win32,144.0092166,6299f149e92ead563fba08ef,62a45999b417b60dae3ef579,,,,,,,,,,,,,,,,,,,,,,,,,,,,,,,,,,,,,,,,,,,,,,,,,,,,,,,,,,,,,,,,,,,,,,,,,,,,,,,,,cgkslbv,"[""c"",""g"",""k"",""s"",""l"",""b"",""v""]",0,"[2.6163000000001375,2.8323999999998932,3.6481999999999744,3.8321999999999434,4.024099999999862,5.528699999999958,5.800200000000018,7.512200000000007]",1,CGKSLBV,6,0,6,0,1,,,,,,,,,,
,,,,,,,,,,,,5f1fd0d33f0d5e2075724c24,19,Mężczyzna,2022-06-11_11h00.34.806,task,2021.1.4,Win32,144.0092166,6299f149e92ead563fba08ef,62a45999b417b60dae3ef579,,,,,,,,,,,,,1,,,,,,,,,,Task,1,(12/6) - 1,1,,,,,,,,,,,,,,,,,,,1,,,,,,,,,,,,,,,,,,,,,,,"[""1""]",1,0,0,0,0,1,[1.5866999999999507],,,,,,,,,,,,,,,,,,,,,,,,,,
,,,,,,,,,,,X V Q F H G B L J M P D K C T S W R N Z,5f1fd0d33f0d5e2075724c24,19,Mężczyzna,2022-06-11_11h00.34.806,task,2021.1.4,Win32,144.0092166,6299f149e92ead563fba08ef,62a45999b417b60dae3ef579,,,,,,,,,,,,,,,,,,,,,,,,,,,,,,,,,,,,,,,,,,,,,,,,,,,,,,,,,,,,,,,,,,,,,,,,,,,,0,0,0,0,1,,,,,,,,,,,,,,,,,,,,,
,,,,,,,,,,,,5f1fd0d33f0d5e2075724c24,19,Mężczyzna,2022-06-11_11h00.34.806,task,2021.1.4,Win32,144.0092166,6299f149e92ead563fba08ef,62a45999b417b60dae3ef579,,,,,,,,,,,,,8,,,,,,,,,,Task,23,(2x3) + 2,8,,,,,,,,,,,,,,,,,,,1,,,,,,,,,,,,,,,,,,,,,,,"[""8""]",1,0,0,0,22,1,[2.298999999999978],,,,,,,,,,,,,,,,,,,,,,,,,,
,,,,,,,,,,,X V Q F H G B L J M P D K C T S W R N Z,5f1fd0d33f0d5e2075724c24,19,Mężczyzna,2022-06-11_11h00.34.806,task,2021.1.4,Win32,144.0092166,6299f149e92ead563fba08ef,62a45999b417b60dae3ef579,,,,,,,,,,,,,,,,,,,,,,,,,,,,,,,,,,,,,,,,,,,,,,,,,,,,,,,,,,,,,,,,,,,,,,,,,,,,1,0,1,0,1,,,,,,,,,,,,,,,,,,,,,
,,,,,,,,,,,,5f1fd0d33f0d5e2075724c24,19,Mężczyzna,2022-06-11_11h00.34.806,task,2021.1.4,Win32,144.0092166,6299f149e92ead563fba08ef,62a45999b417b60dae3ef579,,,,,,,,,,,,,7,,,,,,,,,,Task,6,(12/2) + 1,7,,,,,,,,,,,,,,,,,,,1,,,,,,,,,,,,,,,,,,,,,,,"[""7""]",1,0,0,0,5,1,[2.780399999999986],,,,,,,,,,,,,,,,,,,,,,,,,,
,,,,,,,,,,,X V Q F H G B L J M P D K C T S W R N Z,5f1fd0d33f0d5e2075724c24,19,Mężczyzna,2022-06-11_11h00.34.806,task,2021.1.4,Win32,144.0092166,6299f149e92ead563fba08ef,62a45999b417b60dae3ef579,,,,,,,,,,,,,,,,,,,,,,,,,,,,,,,,,,,,,,,,,,,,,,,,,,,,,,,,,,,,,,,,,,,,,,,,,,,,2,0,2,0,1,,,,,,,,,,,,,,,,,,,,,
,,,,,,,,,,,,5f1fd0d33f0d5e2075724c24,19,Mężczyzna,2022-06-11_11h00.34.806,task,2021.1.4,Win32,144.0092166,6299f149e92ead563fba08ef,62a45999b417b60dae3ef579,,,,,,,,,,,,,4,,,,,,,,,,Task,4,(1x5) - 1,4,,,,,,,,,,,,,,,,,,,1,,,,,,,,,,,,,,,,,,,,,,,"[""4""]",1,0,0,0,3,1,[1.7080999999998312],,,,,,,,,,,,,,,,,,,,,,,,,,
,,,,,,,,,,,X V Q F H G B L J M P D K C T S W R N Z,5f1fd0d33f0d5e2075724c24,19,Mężczyzna,2022-06-11_11h00.34.806,task,2021.1.4,Win32,144.0092166,6299f149e92ead563fba08ef,62a45999b417b60dae3ef579,,,,,,,,,,,,,,,,,,,,,,,,,,,,,,,,,,,,,,,,,,,,,,,,,,,,,,,,,,,,,,,,,,,,,,,,,,,,3,0,3,0,1,,,,,,,,,,,,,,,,,,,,,
,,,,,,,,,,,,5f1fd0d33f0d5e2075724c24,19,Mężczyzna,2022-06-11_11h00.34.806,task,2021.1.4,Win32,144.0092166,6299f149e92ead563fba08ef,62a45999b417b60dae3ef579,,,,,,,,,,,,,3,,,,,,,,,,Task,35,(1x2) + 1,3,,,,,,,,,,,,,,,,,,,1,,,,,,,,,,,,,,,,,,,,,,,"[""3""]",1,0,0,0,34,1,[1.7310999999998558],,,,,,,,,,,,,,,,,,,,,,,,,,
,,,,,,,,,,,X V Q F H G B L J M P D K C T S W R N Z,5f1fd0d33f0d5e2075724c24,19,Mężczyzna,2022-06-11_11h00.34.806,task,2021.1.4,Win32,144.0092166,6299f149e92ead563fba08ef,62a45999b417b60dae3ef579,,,,,,,,,,,,,,,,,,,,,,,,,,,,,,,,,,,,,,,,,,,,,,,,,,,,,,,,,,,,,,,,,,,,,,,,,,,,4,0,4,0,1,,,,,,,,,,,,,,,,,,,,,
,,,,,,,,,,,,5f1fd0d33f0d5e2075724c24,19,Mężczyzna,2022-06-11_11h00.34.806,task,2021.1.4,Win32,144.0092166,6299f149e92ead563fba08ef,62a45999b417b60dae3ef579,,,,,,,,,,,,,5,,,,,,,,,,Task,22,(3x1) + 2,5,,,,,,,,,,,,,,,,,,,1,,,,,,,,,,,,,,,,,,,,,,,"[""5""]",1,0,0,0,21,1,[2.1470999999997957],,,,,,,,,,,,,,,,,,,,,,,,,,
,,,,,,,,,,,X V Q F H G B L J M P D K C T S W R N Z,5f1fd0d33f0d5e2075724c24,19,Mężczyzna,2022-06-11_11h00.34.806,task,2021.1.4,Win32,144.0092166,6299f149e92ead563fba08ef,62a45999b417b60dae3ef579,,,,,,,,,,,,,,,,,,,,,,,,,,,,,,,,,,,,,,,,,,,,,,,,,,,,,,,,,,,,,,,,,,,,,,,,,,,,5,0,5,0,1,,,,,,,,,,,,,,,,,,,,,
,,,,,,,,,,,,5f1fd0d33f0d5e2075724c24,19,Mężczyzna,2022-06-11_11h00.34.806,task,2021.1.4,Win32,144.0092166,6299f149e92ead563fba08ef,62a45999b417b60dae3ef579,,,,,,,,,,,,,2,,,,,,,,,,Task,2,(2x2) - 2,2,,,,,,,,,,,,,,,,,,,1,,,,,,,,,,,,,,,,,,,,,,,"[""2""]",1,0,0,0,1,1,[2.0526000000000977],,,,,,,,,,,,,,,,,,,,,,,,,,
,,,,,,,,,,,X V Q F H G B L J M P D K C T S W R N Z,5f1fd0d33f0d5e2075724c24,19,Mężczyzna,2022-06-11_11h00.34.806,task,2021.1.4,Win32,144.0092166,6299f149e92ead563fba08ef,62a45999b417b60dae3ef579,,,,,,,,,,,,,,,,,,,,,,,,,,,,,,,,,,,,,,,,,,,,,,,,,,,,,,,,,,,,,,,,,,,,,,,,,,,,6,0,6,0,1,,,,,,,,,,,,,,,,,,,,,
,,,,,,,,,,,,5f1fd0d33f0d5e2075724c24,19,Mężczyzna,2022-06-11_11h00.34.806,task,2021.1.4,Win32,144.0092166,6299f149e92ead563fba08ef,62a45999b417b60dae3ef579,,,,,,,,,,,,,7,,,,,,,,,,Task,31,(4/2) + 5,7,,,,,,,,,,,,,,,,,,,1,,,,,,,,,,,,,,,,,,,,,,,"[""7""]",1,0,0,0,30,1,[1.9516000000000986],,,,,,,,,,,,,,,,,,,,,,,,,,
,,,,,,,,,,,X V Q F H G B L J M P D K C T S W R N Z,5f1fd0d33f0d5e2075724c24,19,Mężczyzna,2022-06-11_11h00.34.806,task,2021.1.4,Win32,144.0092166,6299f149e92ead563fba08ef,62a45999b417b60dae3ef579,,,,,,,,,,,,,,,,,,,,,,,,,,,,,,,,,,,,,,,,,,,,,,,,,,,,,,,,,,,,,,,,,,,,,,,,,,,,7,0,7,0,1,,,,,,,,,,,,,,,,,,,,,
,,,,,,,,,,,,5f1fd0d33f0d5e2075724c24,19,Mężczyzna,2022-06-11_11h00.34.806,task,2021.1.4,Win32,144.0092166,6299f149e92ead563fba08ef,62a45999b417b60dae3ef579,,,,,,,,,,,,,,,,,,,,,,,,,,,,,,,,,,,,,,,,,,,,,,,,,,,,,,,,,,,,,,,,,,,,,,,,,,,,,,,,,dsnmkbrd,"[""d"",""s"",""n"",""m"",""k"",""b"",""r"",""d""]",0,"[2.4056999999999107,3.5812999999998283,3.813299999999799,4.037399999999934,4.461599999999862,5.133299999999849,5.341699999999946,5.909999999999968,7.17349999999999]",1,DSNMKBRD,7,0,7,0,1,,,,,,,,,,
,,,,,,,,,,,,5f1fd0d33f0d5e2075724c24,19,Mężczyzna,2022-06-11_11h00.34.806,task,2021.1.4,Win32,144.0092166,6299f149e92ead563fba08ef,62a45999b417b60dae3ef579,,,,,,,,,,,,,2,,,,,,,,,,Task,10,(2x5) - 8,2,,,,,,,,,,,,,,,,,,,1,,,,,,,,,,,,,,,,,,,,,,,"[""2""]",1,0,0,0,9,1,[2.3256000000000085],,,,,,,,,,,,,,,,,,,,,,,,,,
,,,,,,,,,,,X V Q F H G B L J M P D K C T S W R N Z,5f1fd0d33f0d5e2075724c24,19,Mężczyzna,2022-06-11_11h00.34.806,task,2021.1.4,Win32,144.0092166,6299f149e92ead563fba08ef,62a45999b417b60dae3ef579,,,,,,,,,,,,,,,,,,,,,,,,,,,,,,,,,,,,,,,,,,,,,,,,,,,,,,,,,,,,,,,,,,,,,,,,,,,,0,0,0,0,1,,,,,,,,,,,,,,,,,,,,,
,,,,,,,,,,,,5f1fd0d33f0d5e2075724c24,19,Mężczyzna,2022-06-11_11h00.34.806,task,2021.1.4,Win32,144.0092166,6299f149e92ead563fba08ef,62a45999b417b60dae3ef579,,,,,,,,,,,,,5,,,,,,,,,,Task,38,(4x6) - 17,7,,,,,,,,,,,,,,,,,,,0,,,,,,,,,,,,,,,,,,,,,,,"[""5""]",0,0,0,0,37,1,[3.1318999999998596],,,,,,,,,,,,,,,,,,,,,,,,,,
,,,,,,,,,,,,5f1fd0d33f0d5e2075724c24,19,Mężczyzna,2022-06-11_11h00.34.806,task,2021.1.4,Win32,144.0092166,6299f149e92ead563fba08ef,62a45999b417b60dae3ef579,,,,,,,,,,,,,9,,,,,,,,,,Task,24,(2x2) + 5,9,,,,,,,,,,,,,,,,,,,1,,,,,,,,,,,,,,,,,,,,,,,"[""9""]",1,0,1,1,23,1,[2.7801000000000613],,,,,,,,,,,,,,,,,,,,,,,,,,
,,,,,,,,,,,X V Q F H G B L J M P D K C T S W R N Z,5f1fd0d33f0d5e2075724c24,19,Mężczyzna,2022-06-11_11h00.34.806,task,2021.1.4,Win32,144.0092166,6299f149e92ead563fba08ef,62a45999b417b60dae3ef579,,,,,,,,,,,,,,,,,,,,,,,,,,,,,,,,,,,,,,,,,,,,,,,,,,,,,,,,,,,,,,,,,,,,,,,,,,,,1,0,1,0,1,,,,,,,,,,,,,,,,,,,,,
,,,,,,,,,,,,5f1fd0d33f0d5e2075724c24,19,Mężczyzna,2022-06-11_11h00.34.806,task,2021.1.4,Win32,144.0092166,6299f149e92ead563fba08ef,62a45999b417b60dae3ef579,,,,,,,,,,,,,7,,,,,,,,,,Task,31,(4/2) + 5,7,,,,,,,,,,,,,,,,,,,1,,,,,,,,,,,,,,,,,,,,,,,"[""7""]",1,0,0,0,30,1,[1.6698000000000093],,,,,,,,,,,,,,,,,,,,,,,,,,
,,,,,,,,,,,X V Q F H G B L J M P D K C T S W R N Z,5f1fd0d33f0d5e2075724c24,19,Mężczyzna,2022-06-11_11h00.34.806,task,2021.1.4,Win32,144.0092166,6299f149e92ead563fba08ef,62a45999b417b60dae3ef579,,,,,,,,,,,,,,,,,,,,,,,,,,,,,,,,,,,,,,,,,,,,,,,,,,,,,,,,,,,,,,,,,,,,,,,,,,,,2,0,2,0,1,,,,,,,,,,,,,,,,,,,,,
,,,,,,,,,,,,5f1fd0d33f0d5e2075724c24,19,Mężczyzna,2022-06-11_11h00.34.806,task,2021.1.4,Win32,144.0092166,6299f149e92ead563fba08ef,62a45999b417b60dae3ef579,,,,,,,,,,,,,7,,,,,,,,,,Task,31,(4/2) + 5,7,,,,,,,,,,,,,,,,,,,1,,,,,,,,,,,,,,,,,,,,,,,"[""7""]",1,0,0,0,30,1,[1.4611999999999625],,,,,,,,,,,,,,,,,,,,,,,,,,
,,,,,,,,,,,X V Q F H G B L J M P D K C T S W R N Z,5f1fd0d33f0d5e2075724c24,19,Mężczyzna,2022-06-11_11h00.34.806,task,2021.1.4,Win32,144.0092166,6299f149e92ead563fba08ef,62a45999b417b60dae3ef579,,,,,,,,,,,,,,,,,,,,,,,,,,,,,,,,,,,,,,,,,,,,,,,,,,,,,,,,,,,,,,,,,,,,,,,,,,,,3,0,3,0,1,,,,,,,,,,,,,,,,,,,,,
,,,,,,,,,,,,5f1fd0d33f0d5e2075724c24,19,Mężczyzna,2022-06-11_11h00.34.806,task,2021.1.4,Win32,144.0092166,6299f149e92ead563fba08ef,62a45999b417b60dae3ef579,,,,,,,,,,,,,,,,,,,,,,,Task,29,(3x8) - 19 ,5,,,,,,,,,,,,,,,,,,,0,,,,,,,,,,,,,,,,,,,,,,,,0,0,0,0,28,1,,,,,,,,,,,,,,,,,,,,,,,,,,,
,,,,,,,,,,,,5f1fd0d33f0d5e2075724c24,19,Mężczyzna,2022-06-11_11h00.34.806,task,2021.1.4,Win32,144.0092166,6299f149e92ead563fba08ef,62a45999b417b60dae3ef579,,,,,,,,,,,,,5,,,,,,,,,,Task,22,(3x1) + 2,5,,,,,,,,,,,,,,,,,,,1,,,,,,,,,,,,,,,,,,,,,,,"[""5""]",1,0,1,1,21,1,[1.9845000000000255],,,,,,,,,,,,,,,,,,,,,,,,,,
,,,,,,,,,,,X V Q F H G B L J M P D K C T S W R N Z,5f1fd0d33f0d5e2075724c24,19,Mężczyzna,2022-06-11_11h00.34.806,task,2021.1.4,Win32,144.0092166,6299f149e92ead563fba08ef,62a45999b417b60dae3ef579,,,,,,,,,,,,,,,,,,,,,,,,,,,,,,,,,,,,,,,,,,,,,,,,,,,,,,,,,,,,,,,,,,,,,,,,,,,,4,0,4,0,1,,,,,,,,,,,,,,,,,,,,,
,,,,,,,,,,,,5f1fd0d33f0d5e2075724c24,19,Mężczyzna,2022-06-11_11h00.34.806,task,2021.1.4,Win32,144.0092166,6299f149e92ead563fba08ef,62a45999b417b60dae3ef579,,,,,,,,,,,,,9,,,,,,,,,,Task,7,(3x7) - 12,9,,,,,,,,,,,,,,,,,,,1,,,,,,,,,,,,,,,,,,,,,,,"[""9""]",1,0,0,0,6,1,[3.9571999999999434],,,,,,,,,,,,,,,,,,,,,,,,,,
,,,,,,,,,,,X V Q F H G B L J M P D K C T S W R N Z,5f1fd0d33f0d5e2075724c24,19,Mężczyzna,2022-06-11_11h00.34.806,task,2021.1.4,Win32,144.0092166,6299f149e92ead563fba08ef,62a45999b417b60dae3ef579,,,,,,,,,,,,,,,,,,,,,,,,,,,,,,,,,,,,,,,,,,,,,,,,,,,,,,,,,,,,,,,,,,,,,,,,,,,,5,0,5,0,1,,,,,,,,,,,,,,,,,,,,,
,,,,,,,,,,,,5f1fd0d33f0d5e2075724c24,19,Mężczyzna,2022-06-11_11h00.34.806,task,2021.1.4,Win32,144.0092166,6299f149e92ead563fba08ef,62a45999b417b60dae3ef579,,,,,,,,,,,,,,,,,,,,,,,Task,38,(4x6) - 17,7,,,,,,,,,,,,,,,,,,,0,,,,,,,,,,,,,,,,,,,,,,,,0,0,0,0,37,1,,,,,,,,,,,,,,,,,,,,,,,,,,,
,,,,,,,,,,,,5f1fd0d33f0d5e2075724c24,19,Mężczyzna,2022-06-11_11h00.34.806,task,2021.1.4,Win32,144.0092166,6299f149e92ead563fba08ef,62a45999b417b60dae3ef579,,,,,,,,,,,,,0,,,,,,,,,,Task,8,(1x5) - 5,0,,,,,,,,,,,,,,,,,,,1,,,,,,,,,,,,,,,,,,,,,,,"[""0""]",1,0,1,1,7,1,[2.454499999999939],,,,,,,,,,,,,,,,,,,,,,,,,,
,,,,,,,,,,,X V Q F H G B L J M P D K C T S W R N Z,5f1fd0d33f0d5e2075724c24,19,Mężczyzna,2022-06-11_11h00.34.806,task,2021.1.4,Win32,144.0092166,6299f149e92ead563fba08ef,62a45999b417b60dae3ef579,,,,,,,,,,,,,,,,,,,,,,,,,,,,,,,,,,,,,,,,,,,,,,,,,,,,,,,,,,,,,,,,,,,,,,,,,,,,6,0,6,0,1,,,,,,,,,,,,,,,,,,,,,
,,,,,,,,,,,,5f1fd0d33f0d5e2075724c24,19,Mężczyzna,2022-06-11_11h00.34.806,task,2021.1.4,Win32,144.0092166,6299f149e92ead563fba08ef,62a45999b417b60dae3ef579,,,,,,,,,,,,,7,,,,,,,,,,Task,31,(4/2) + 5,7,,,,,,,,,,,,,,,,,,,1,,,,,,,,,,,,,,,,,,,,,,,"[""7""]",1,0,0,0,30,1,[1.994600000000105],,,,,,,,,,,,,,,,,,,,,,,,,,
,,,,,,,,,,,X V Q F H G B L J M P D K C T S W R N Z,5f1fd0d33f0d5e2075724c24,19,Mężczyzna,2022-06-11_11h00.34.806,task,2021.1.4,Win32,144.0092166,6299f149e92ead563fba08ef,62a45999b417b60dae3ef579,,,,,,,,,,,,,,,,,,,,,,,,,,,,,,,,,,,,,,,,,,,,,,,,,,,,,,,,,,,,,,,,,,,,,,,,,,,,7,0,7,0,1,,,,,,,,,,,,,,,,,,,,,
,,,,,,,,,,,,5f1fd0d33f0d5e2075724c24,19,Mężczyzna,2022-06-11_11h00.34.806,task,2021.1.4,Win32,144.0092166,6299f149e92ead563fba08ef,62a45999b417b60dae3ef579,,,,,,,,,,,,,9,,,,,,,,,,Task,40,(7x2) - 5,9,,,,,,,,,,,,,,,,,,,1,,,,,,,,,,,,,,,,,,,,,,,"[""9""]",1,0,0,0,39,1,[4.293600000000197],,,,,,,,,,,,,,,,,,,,,,,,,,
,,,,,,,,,,,X V Q F H G B L J M P D K C T S W R N Z,5f1fd0d33f0d5e2075724c24,19,Mężczyzna,2022-06-11_11h00.34.806,task,2021.1.4,Win32,144.0092166,6299f149e92ead563fba08ef,62a45999b417b60dae3ef579,,,,,,,,,,,,,,,,,,,,,,,,,,,,,,,,,,,,,,,,,,,,,,,,,,,,,,,,,,,,,,,,,,,,,,,,,,,,8,0,8,0,1,,,,,,,,,,,,,,,,,,,,,
,,,,,,,,,,,,5f1fd0d33f0d5e2075724c24,19,Mężczyzna,2022-06-11_11h00.34.806,task,2021.1.4,Win32,144.0092166,6299f149e92ead563fba08ef,62a45999b417b60dae3ef579,,,,,,,,,,,,,,,,,,,,,,,,,,,,,,,,,,,,,,,,,,,,,,,,,,,,,,,,,,,,,,,,,,,,,,,,,,,,,,,,,jmxtqccgh,"[""j"",""m"",""x"",""t"",""q"",""c"",""c"",""g"",""h""]",0,"[2.544300000000021,2.720399999999813,3.224299999999971,3.544300000000021,3.7922999999999547,4.152899999999818,4.336399999999912,4.808300000000031,4.9763000000000375,14.664499999999975]",1,JMXTQCCGH,8,0,8,0,1,,,,,,,,,,
,,,,,,,,,,,,5f1fd0d33f0d5e2075724c24,19,Mężczyzna,2022-06-11_11h00.34.806,task,2021.1.4,Win32,144.0092166,6299f149e92ead563fba08ef,62a45999b417b60dae3ef579,,,,,,,,,,,,,3,,,,,,,,,,Task,17,(2x3) - 6,0,,,,,,,,,,,,,,,,,,,0,,,,,,,,,,,,,,,,,,,,,,,"[""3""]",0,0,0,0,16,1,[2.0460999999999103],,,,,,,,,,,,,,,,,,,,,,,,,,
,,,,,,,,,,,,5f1fd0d33f0d5e2075724c24,19,Mężczyzna,2022-06-11_11h00.34.806,task,2021.1.4,Win32,144.0092166,6299f149e92ead563fba08ef,62a45999b417b60dae3ef579,,,,,,,,,,,,,,,,,,,,,,,Task,15,(3x7) - 13,8,,,,,,,,,,,,,,,,,,,0,,,,,,,,,,,,,,,,,,,,,,,,0,0,1,1,14,1,,,,,,,,,,,,,,,,,,,,,,,,,,,
,,,,,,,,,,,,5f1fd0d33f0d5e2075724c24,19,Mężczyzna,2022-06-11_11h00.34.806,task,2021.1.4,Win32,144.0092166,6299f149e92ead563fba08ef,62a45999b417b60dae3ef579,,,,,,,,,,,,,2,,,,,,,,,,Task,26,(2x9) - 16,2,,,,,,,,,,,,,,,,,,,1,,,,,,,,,,,,,,,,,,,,,,,"[""2""]",1,0,2,2,25,1,[2.42369999999994],,,,,,,,,,,,,,,,,,,,,,,,,,
,,,,,,,,,,,X V Q F H G B L J M P D K C T S W R N Z,5f1fd0d33f0d5e2075724c24,19,Mężczyzna,2022-06-11_11h00.34.806,task,2021.1.4,Win32,144.0092166,6299f149e92ead563fba08ef,62a45999b417b60dae3ef579,,,,,,,,,,,,,,,,,,,,,,,,,,,,,,,,,,,,,,,,,,,,,,,,,,,,,,,,,,,,,,,,,,,,,,,,,,,,0,0,0,0,1,,,,,,,,,,,,,,,,,,,,,
,,,,,,,,,,,,5f1fd0d33f0d5e2075724c24,19,Mężczyzna,2022-06-11_11h00.34.806,task,2021.1.4,Win32,144.0092166,6299f149e92ead563fba08ef,62a45999b417b60dae3ef579,,,,,,,,,,,,,6,,,,,,,,,,Task,13,(3x4) - 6,6,,,,,,,,,,,,,,,,,,,1,,,,,,,,,,,,,,,,,,,,,,,"[""6""]",1,0,0,0,12,1,[3.1262999999997874],,,,,,,,,,,,,,,,,,,,,,,,,,
,,,,,,,,,,,X V Q F H G B L J M P D K C T S W R N Z,5f1fd0d33f0d5e2075724c24,19,Mężczyzna,2022-06-11_11h00.34.806,task,2021.1.4,Win32,144.0092166,6299f149e92ead563fba08ef,62a45999b417b60dae3ef579,,,,,,,,,,,,,,,,,,,,,,,,,,,,,,,,,,,,,,,,,,,,,,,,,,,,,,,,,,,,,,,,,,,,,,,,,,,,1,0,1,0,1,,,,,,,,,,,,,,,,,,,,,
,,,,,,,,,,,,5f1fd0d33f0d5e2075724c24,19,Mężczyzna,2022-06-11_11h00.34.806,task,2021.1.4,Win32,144.0092166,6299f149e92ead563fba08ef,62a45999b417b60dae3ef579,,,,,,,,,,,,,2,,,,,,,,,,Task,10,(2x5) - 8,2,,,,,,,,,,,,,,,,,,,1,,,,,,,,,,,,,,,,,,,,,,,"[""2""]",1,0,0,0,9,1,[1.5395999999999503],,,,,,,,,,,,,,,,,,,,,,,,,,
,,,,,,,,,,,X V Q F H G B L J M P D K C T S W R N Z,5f1fd0d33f0d5e2075724c24,19,Mężczyzna,2022-06-11_11h00.34.806,task,2021.1.4,Win32,144.0092166,6299f149e92ead563fba08ef,62a45999b417b60dae3ef579,,,,,,,,,,,,,,,,,,,,,,,,,,,,,,,,,,,,,,,,,,,,,,,,,,,,,,,,,,,,,,,,,,,,,,,,,,,,2,0,2,0,1,,,,,,,,,,,,,,,,,,,,,
,,,,,,,,,,,,5f1fd0d33f0d5e2075724c24,19,Mężczyzna,2022-06-11_11h00.34.806,task,2021.1.4,Win32,144.0092166,6299f149e92ead563fba08ef,62a45999b417b60dae3ef579,,,,,,,,,,,,,5,,,,,,,,,,Task,12,(4x4) - 11,5,,,,,,,,,,,,,,,,,,,1,,,,,,,,,,,,,,,,,,,,,,,"[""5""]",1,0,0,0,11,1,[1.6466999999998961],,,,,,,,,,,,,,,,,,,,,,,,,,
,,,,,,,,,,,X V Q F H G B L J M P D K C T S W R N Z,5f1fd0d33f0d5e2075724c24,19,Mężczyzna,2022-06-11_11h00.34.806,task,2021.1.4,Win32,144.0092166,6299f149e92ead563fba08ef,62a45999b417b60dae3ef579,,,,,,,,,,,,,,,,,,,,,,,,,,,,,,,,,,,,,,,,,,,,,,,,,,,,,,,,,,,,,,,,,,,,,,,,,,,,3,0,3,0,1,,,,,,,,,,,,,,,,,,,,,
,,,,,,,,,,,,5f1fd0d33f0d5e2075724c24,19,Mężczyzna,2022-06-11_11h00.34.806,task,2021.1.4,Win32,144.0092166,6299f149e92ead563fba08ef,62a45999b417b60dae3ef579,,,,,,,,,,,,,7,,,,,,,,,,Task,6,(12/2) + 1,7,,,,,,,,,,,,,,,,,,,1,,,,,,,,,,,,,,,,,,,,,,,"[""7""]",1,0,0,0,5,1,[1.7125999999998385],,,,,,,,,,,,,,,,,,,,,,,,,,
,,,,,,,,,,,X V Q F H G B L J M P D K C T S W R N Z,5f1fd0d33f0d5e2075724c24,19,Mężczyzna,2022-06-11_11h00.34.806,task,2021.1.4,Win32,144.0092166,6299f149e92ead563fba08ef,62a45999b417b60dae3ef579,,,,,,,,,,,,,,,,,,,,,,,,,,,,,,,,,,,,,,,,,,,,,,,,,,,,,,,,,,,,,,,,,,,,,,,,,,,,4,0,4,0,1,,,,,,,,,,,,,,,,,,,,,
,,,,,,,,,,,,5f1fd0d33f0d5e2075724c24,19,Mężczyzna,2022-06-11_11h00.34.806,task,2021.1.4,Win32,144.0092166,6299f149e92ead563fba08ef,62a45999b417b60dae3ef579,,,,,,,,,,,,,9,,,,,,,,,,Task,24,(2x2) + 5,9,,,,,,,,,,,,,,,,,,,1,,,,,,,,,,,,,,,,,,,,,,,"[""9""]",1,0,0,0,23,1,[1.767799999999852],,,,,,,,,,,,,,,,,,,,,,,,,,
,,,,,,,,,,,X V Q F H G B L J M P D K C T S W R N Z,5f1fd0d33f0d5e2075724c24,19,Mężczyzna,2022-06-11_11h00.34.806,task,2021.1.4,Win32,144.0092166,6299f149e92ead563fba08ef,62a45999b417b60dae3ef579,,,,,,,,,,,,,,,,,,,,,,,,,,,,,,,,,,,,,,,,,,,,,,,,,,,,,,,,,,,,,,,,,,,,,,,,,,,,5,0,5,0,1,,,,,,,,,,,,,,,,,,,,,
,,,,,,,,,,,,5f1fd0d33f0d5e2075724c24,19,Mężczyzna,2022-06-11_11h00.34.806,task,2021.1.4,Win32,144.0092166,6299f149e92ead563fba08ef,62a45999b417b60dae3ef579,,,,,,,,,,,,,4,,,,,,,,,,Task,11,(18/3) - 2,4,,,,,,,,,,,,,,,,,,,1,,,,,,,,,,,,,,,,,,,,,,,"[""4""]",1,0,0,0,10,1,[2.952600000000075],,,,,,,,,,,,,,,,,,,,,,,,,,
,,,,,,,,,,,X V Q F H G B L J M P D K C T S W R N Z,5f1fd0d33f0d5e2075724c24,19,Mężczyzna,2022-06-11_11h00.34.806,task,2021.1.4,Win32,144.0092166,6299f149e92ead563fba08ef,62a45999b417b60dae3ef579,,,,,,,,,,,,,,,,,,,,,,,,,,,,,,,,,,,,,,,,,,,,,,,,,,,,,,,,,,,,,,,,,,,,,,,,,,,,6,0,6,0,1,,,,,,,,,,,,,,,,,,,,,
,,,,,,,,,,,,5f1fd0d33f0d5e2075724c24,19,Mężczyzna,2022-06-11_11h00.34.806,task,2021.1.4,Win32,144.0092166,6299f149e92ead563fba08ef,62a45999b417b60dae3ef579,,,,,,,,,,,,,7,,,,,,,,,,Task,29,(3x8) - 19 ,5,,,,,,,,,,,,,,,,,,,0,,,,,,,,,,,,,,,,,,,,,,,"[""7""]",0,0,0,0,28,1,[3.692100000000096],,,,,,,,,,,,,,,,,,,,,,,,,,
,,,,,,,,,,,,5f1fd0d33f0d5e2075724c24,19,Mężczyzna,2022-06-11_11h00.34.806,task,2021.1.4,Win32,144.0092166,6299f149e92ead563fba08ef,62a45999b417b60dae3ef579,,,,,,,,,,,,,4,,,,,,,,,,Task,21,(10/2) - 1,4,,,,,,,,,,,,,,,,,,,1,,,,,,,,,,,,,,,,,,,,,,,"[""4""]",1,0,1,1,20,1,[3.8686000000001286],,,,,,,,,,,,,,,,,,,,,,,,,,
,,,,,,,,,,,X V Q F H G B L J M P D K C T S W R N Z,5f1fd0d33f0d5e2075724c24,19,Mężczyzna,2022-06-11_11h00.34.806,task,2021.1.4,Win32,144.0092166,6299f149e92ead563fba08ef,62a45999b417b60dae3ef579,,,,,,,,,,,,,,,,,,,,,,,,,,,,,,,,,,,,,,,,,,,,,,,,,,,,,,,,,,,,,,,,,,,,,,,,,,,,7,0,7,0,1,,,,,,,,,,,,,,,,,,,,,
,,,,,,,,,,,,5f1fd0d33f0d5e2075724c24,19,Mężczyzna,2022-06-11_11h00.34.806,task,2021.1.4,Win32,144.0092166,6299f149e92ead563fba08ef,62a45999b417b60dae3ef579,,,,,,,,,,,,,9,,,,,,,,,,Task,40,(7x2) - 5,9,,,,,,,,,,,,,,,,,,,1,,,,,,,,,,,,,,,,,,,,,,,"[""9""]",1,0,0,0,39,1,[4.242500000000064],,,,,,,,,,,,,,,,,,,,,,,,,,
,,,,,,,,,,,X V Q F H G B L J M P D K C T S W R N Z,5f1fd0d33f0d5e2075724c24,19,Mężczyzna,2022-06-11_11h00.34.806,task,2021.1.4,Win32,144.0092166,6299f149e92ead563fba08ef,62a45999b417b60dae3ef579,,,,,,,,,,,,,,,,,,,,,,,,,,,,,,,,,,,,,,,,,,,,,,,,,,,,,,,,,,,,,,,,,,,,,,,,,,,,8,0,8,0,1,,,,,,,,,,,,,,,,,,,,,
,,,,,,,,,,,,5f1fd0d33f0d5e2075724c24,19,Mężczyzna,2022-06-11_11h00.34.806,task,2021.1.4,Win32,144.0092166,6299f149e92ead563fba08ef,62a45999b417b60dae3ef579,,,,,,,,,,,,,1,,,,,,,,,,Task,9,(3x7) - 20,1,,,,,,,,,,,,,,,,,,,1,,,,,,,,,,,,,,,,,,,,,,,"[""1""]",1,0,0,0,8,1,[3.3852000000000544],,,,,,,,,,,,,,,,,,,,,,,,,,
,,,,,,,,,,,X V Q F H G B L J M P D K C T S W R N Z,5f1fd0d33f0d5e2075724c24,19,Mężczyzna,2022-06-11_11h00.34.806,task,2021.1.4,Win32,144.0092166,6299f149e92ead563fba08ef,62a45999b417b60dae3ef579,,,,,,,,,,,,,,,,,,,,,,,,,,,,,,,,,,,,,,,,,,,,,,,,,,,,,,,,,,,,,,,,,,,,,,,,,,,,9,0,9,0,1,,,,,,,,,,,,,,,,,,,,,
,,,,,,,,,,,,5f1fd0d33f0d5e2075724c24,19,Mężczyzna,2022-06-11_11h00.34.806,task,2021.1.4,Win32,144.0092166,6299f149e92ead563fba08ef,62a45999b417b60dae3ef579,,,,,,,,,,,,,,,,,,,,,,,,,,,,,,,,,,,,,,,,,,,,,,,,,,,,,,,,,,,,,,,,,,,,,,,,,,,,,,,,,zrlnvhrdmq,"[""z"",""r"",""l"",""n"",""v"",""h"",""r"",""d"",""m"",""q""]",0,"[1.9861000000000786,2.425299999999993,3.1851999999998952,3.5452999999999975,4.577199999999948,4.913199999999847,6.19419999999991,6.40949999999998,8.121699999999919,8.225299999999947,9.32929999999999]",1,ZRLNVHRDMQ,9,0,9,0,1,,,,,,,,,,
,,,,,,,,,,,,5f1fd0d33f0d5e2075724c24,19,Mężczyzna,2022-06-11_11h00.34.806,task,2021.1.4,Win32,144.0092166,6299f149e92ead563fba08ef,62a45999b417b60dae3ef579,,,,,,,,,,,,,7,,,,,,,,,,Task,31,(4/2) + 5,7,,,,,,,,,,,,,,,,,,,1,,,,,,,,,,,,,,,,,,,,,,,"[""7""]",1,0,0,0,30,1,[3.176499999999919],,,,,,,,,,,,,,,,,,,,,,,,,,
,,,,,,,,,,,X V Q F H G B L J M P D K C T S W R N Z,5f1fd0d33f0d5e2075724c24,19,Mężczyzna,2022-06-11_11h00.34.806,task,2021.1.4,Win32,144.0092166,6299f149e92ead563fba08ef,62a45999b417b60dae3ef579,,,,,,,,,,,,,,,,,,,,,,,,,,,,,,,,,,,,,,,,,,,,,,,,,,,,,,,,,,,,,,,,,,,,,,,,,,,,0,0,0,0,1,,,,,,,,,,,,,,,,,,,,,
,,,,,,,,,,,,5f1fd0d33f0d5e2075724c24,19,Mężczyzna,2022-06-11_11h00.34.806,task,2021.1.4,Win32,144.0092166,6299f149e92ead563fba08ef,62a45999b417b60dae3ef579,,,,,,,,,,,,,1,,,,,,,,,,Task,1,(12/6) - 1,1,,,,,,,,,,,,,,,,,,,1,,,,,,,,,,,,,,,,,,,,,,,"[""1""]",1,0,0,0,0,1,[2.562900000000127],,,,,,,,,,,,,,,,,,,,,,,,,,
,,,,,,,,,,,X V Q F H G B L J M P D K C T S W R N Z,5f1fd0d33f0d5e2075724c24,19,Mężczyzna,2022-06-11_11h00.34.806,task,2021.1.4,Win32,144.0092166,6299f149e92ead563fba08ef,62a45999b417b60dae3ef579,,,,,,,,,,,,,,,,,,,,,,,,,,,,,,,,,,,,,,,,,,,,,,,,,,,,,,,,,,,,,,,,,,,,,,,,,,,,1,0,1,0,1,,,,,,,,,,,,,,,,,,,,,
,,,,,,,,,,,,5f1fd0d33f0d5e2075724c24,19,Mężczyzna,2022-06-11_11h00.34.806,task,2021.1.4,Win32,144.0092166,6299f149e92ead563fba08ef,62a45999b417b60dae3ef579,,,,,,,,,,,,,1,,,,,,,,,,Task,9,(3x7) - 20,1,,,,,,,,,,,,,,,,,,,1,,,,,,,,,,,,,,,,,,,,,,,"[""1""]",1,0,0,0,8,1,[1.940599999999904],,,,,,,,,,,,,,,,,,,,,,,,,,
,,,,,,,,,,,X V Q F H G B L J M P D K C T S W R N Z,5f1fd0d33f0d5e2075724c24,19,Mężczyzna,2022-06-11_11h00.34.806,task,2021.1.4,Win32,144.0092166,6299f149e92ead563fba08ef,62a45999b417b60dae3ef579,,,,,,,,,,,,,,,,,,,,,,,,,,,,,,,,,,,,,,,,,,,,,,,,,,,,,,,,,,,,,,,,,,,,,,,,,,,,2,0,2,0,1,,,,,,,,,,,,,,,,,,,,,
,,,,,,,,,,,,5f1fd0d33f0d5e2075724c24,19,Mężczyzna,2022-06-11_11h00.34.806,task,2021.1.4,Win32,144.0092166,6299f149e92ead563fba08ef,62a45999b417b60dae3ef579,,,,,,,,,,,,,2,,,,,,,,,,Task,2,(2x2) - 2,2,,,,,,,,,,,,,,,,,,,1,,,,,,,,,,,,,,,,,,,,,,,"[""2""]",1,0,0,0,1,1,[1.5971999999999298],,,,,,,,,,,,,,,,,,,,,,,,,,
,,,,,,,,,,,X V Q F H G B L J M P D K C T S W R N Z,5f1fd0d33f0d5e2075724c24,19,Mężczyzna,2022-06-11_11h00.34.806,task,2021.1.4,Win32,144.0092166,6299f149e92ead563fba08ef,62a45999b417b60dae3ef579,,,,,,,,,,,,,,,,,,,,,,,,,,,,,,,,,,,,,,,,,,,,,,,,,,,,,,,,,,,,,,,,,,,,,,,,,,,,3,0,3,0,1,,,,,,,,,,,,,,,,,,,,,
,,,,,,,,,,,,5f1fd0d33f0d5e2075724c24,19,Mężczyzna,2022-06-11_11h00.34.806,task,2021.1.4,Win32,144.0092166,6299f149e92ead563fba08ef,62a45999b417b60dae3ef579,,,,,,,,,,,,,9,,,,,,,,,,Task,40,(7x2) - 5,9,,,,,,,,,,,,,,,,,,,1,,,,,,,,,,,,,,,,,,,,,,,"[""9""]",1,0,0,0,39,1,[2.826999999999998],,,,,,,,,,,,,,,,,,,,,,,,,,
,,,,,,,,,,,X V Q F H G B L J M P D K C T S W R N Z,5f1fd0d33f0d5e2075724c24,19,Mężczyzna,2022-06-11_11h00.34.806,task,2021.1.4,Win32,144.0092166,6299f149e92ead563fba08ef,62a45999b417b60dae3ef579,,,,,,,,,,,,,,,,,,,,,,,,,,,,,,,,,,,,,,,,,,,,,,,,,,,,,,,,,,,,,,,,,,,,,,,,,,,,4,0,4,0,1,,,,,,,,,,,,,,,,,,,,,
,,,,,,,,,,,,5f1fd0d33f0d5e2075724c24,19,Mężczyzna,2022-06-11_11h00.34.806,task,2021.1.4,Win32,144.0092166,6299f149e92ead563fba08ef,62a45999b417b60dae3ef579,,,,,,,,,,,,,1,,,,,,,,,,Task,18,(16/4) - 3,1,,,,,,,,,,,,,,,,,,,1,,,,,,,,,,,,,,,,,,,,,,,"[""1""]",1,0,0,0,17,1,[2.0588000000000193],,,,,,,,,,,,,,,,,,,,,,,,,,
,,,,,,,,,,,X V Q F H G B L J M P D K C T S W R N Z,5f1fd0d33f0d5e2075724c24,19,Mężczyzna,2022-06-11_11h00.34.806,task,2021.1.4,Win32,144.0092166,6299f149e92ead563fba08ef,62a45999b417b60dae3ef579,,,,,,,,,,,,,,,,,,,,,,,,,,,,,,,,,,,,,,,,,,,,,,,,,,,,,,,,,,,,,,,,,,,,,,,,,,,,5,0,5,0,1,,,,,,,,,,,,,,,,,,,,,
,,,,,,,,,,,,5f1fd0d33f0d5e2075724c24,19,Mężczyzna,2022-06-11_11h00.34.806,task,2021.1.4,Win32,144.0092166,6299f149e92ead563fba08ef,62a45999b417b60dae3ef579,,,,,,,,,,,,,0,,,,,,,,,,Task,17,(2x3) - 6,0,,,,,,,,,,,,,,,,,,,1,,,,,,,,,,,,,,,,,,,,,,,"[""0""]",1,0,0,0,16,1,[2.536799999999971],,,,,,,,,,,,,,,,,,,,,,,,,,
,,,,,,,,,,,X V Q F H G B L J M P D K C T S W R N Z,5f1fd0d33f0d5e2075724c24,19,Mężczyzna,2022-06-11_11h00.34.806,task,2021.1.4,Win32,144.0092166,6299f149e92ead563fba08ef,62a45999b417b60dae3ef579,,,,,,,,,,,,,,,,,,,,,,,,,,,,,,,,,,,,,,,,,,,,,,,,,,,,,,,,,,,,,,,,,,,,,,,,,,,,6,0,6,0,1,,,,,,,,,,,,,,,,,,,,,
,,,,,,,,,,,,5f1fd0d33f0d5e2075724c24,19,Mężczyzna,2022-06-11_11h00.34.806,task,2021.1.4,Win32,144.0092166,6299f149e92ead563fba08ef,62a45999b417b60dae3ef579,,,,,,,,,,,,,6,,,,,,,,,,Task,13,(3x4) - 6,6,,,,,,,,,,,,,,,,,,,1,,,,,,,,,,,,,,,,,,,,,,,"[""6""]",1,0,0,0,12,1,[2.4871000000001686],,,,,,,,,,,,,,,,,,,,,,,,,,
,,,,,,,,,,,X V Q F H G B L J M P D K C T S W R N Z,5f1fd0d33f0d5e2075724c24,19,Mężczyzna,2022-06-11_11h00.34.806,task,2021.1.4,Win32,144.0092166,6299f149e92ead563fba08ef,62a45999b417b60dae3ef579,,,,,,,,,,,,,,,,,,,,,,,,,,,,,,,,,,,,,,,,,,,,,,,,,,,,,,,,,,,,,,,,,,,,,,,,,,,,7,0,7,0,1,,,,,,,,,,,,,,,,,,,,,
,,,,,,,,,,,,5f1fd0d33f0d5e2075724c24,19,Mężczyzna,2022-06-11_11h00.34.806,task,2021.1.4,Win32,144.0092166,6299f149e92ead563fba08ef,62a45999b417b60dae3ef579,,,,,,,,,,,,,1,,,,,,,,,,Task,18,(16/4) - 3,1,,,,,,,,,,,,,,,,,,,1,,,,,,,,,,,,,,,,,,,,,,,"[""1""]",1,0,0,0,17,1,[1.7543999999999187],,,,,,,,,,,,,,,,,,,,,,,,,,
,,,,,,,,,,,X V Q F H G B L J M P D K C T S W R N Z,5f1fd0d33f0d5e2075724c24,19,Mężczyzna,2022-06-11_11h00.34.806,task,2021.1.4,Win32,144.0092166,6299f149e92ead563fba08ef,62a45999b417b60dae3ef579,,,,,,,,,,,,,,,,,,,,,,,,,,,,,,,,,,,,,,,,,,,,,,,,,,,,,,,,,,,,,,,,,,,,,,,,,,,,8,0,8,0,1,,,,,,,,,,,,,,,,,,,,,
,,,,,,,,,,,,5f1fd0d33f0d5e2075724c24,19,Mężczyzna,2022-06-11_11h00.34.806,task,2021.1.4,Win32,144.0092166,6299f149e92ead563fba08ef,62a45999b417b60dae3ef579,,,,,,,,,,,,,9,,,,,,,,,,Task,16,(3x8) - 15,9,,,,,,,,,,,,,,,,,,,1,,,,,,,,,,,,,,,,,,,,,,,"[""9""]",1,0,0,0,15,1,[3.733299999999872],,,,,,,,,,,,,,,,,,,,,,,,,,
,,,,,,,,,,,X V Q F H G B L J M P D K C T S W R N Z,5f1fd0d33f0d5e2075724c24,19,Mężczyzna,2022-06-11_11h00.34.806,task,2021.1.4,Win32,144.0092166,6299f149e92ead563fba08ef,62a45999b417b60dae3ef579,,,,,,,,,,,,,,,,,,,,,,,,,,,,,,,,,,,,,,,,,,,,,,,,,,,,,,,,,,,,,,,,,,,,,,,,,,,,9,0,9,0,1,,,,,,,,,,,,,,,,,,,,,
,,,,,,,,,,,,5f1fd0d33f0d5e2075724c24,19,Mężczyzna,2022-06-11_11h00.34.806,task,2021.1.4,Win32,144.0092166,6299f149e92ead563fba08ef,62a45999b417b60dae3ef579,,,,,,,,,,,,,9,,,,,,,,,,Task,16,(3x8) - 15,9,,,,,,,,,,,,,,,,,,,1,,,,,,,,,,,,,,,,,,,,,,,"[""9""]",1,0,0,0,15,1,[3.5433000000000447],,,,,,,,,,,,,,,,,,,,,,,,,,
,,,,,,,,,,,X V Q F H G B L J M P D K C T S W R N Z,5f1fd0d33f0d5e2075724c24,19,Mężczyzna,2022-06-11_11h00.34.806,task,2021.1.4,Win32,144.0092166,6299f149e92ead563fba08ef,62a45999b417b60dae3ef579,,,,,,,,,,,,,,,,,,,,,,,,,,,,,,,,,,,,,,,,,,,,,,,,,,,,,,,,,,,,,,,,,,,,,,,,,,,,10,0,10,0,1,,,,,,,,,,,,,,,,,,,,,
,,,,,,,,,,,,5f1fd0d33f0d5e2075724c24,19,Mężczyzna,2022-06-11_11h00.34.806,task,2021.1.4,Win32,144.0092166,6299f149e92ead563fba08ef,62a45999b417b60dae3ef579,,,,,,,,,,,,,,,,,,,,,,,,,,,,,,,,,,,,,,,,,,,,,,,,,,,,,,,,,,,,,,,,,,,,,,,,,,,,,,,,,mvjzvbwxvxs,"[""m"",""v"",""j"",""z"",""v"",""b"",""w"",""x"",""v"",""x"",""s""]",0,"[2.184500000000071,2.4526000000001886,3.256300000000124,3.4717000000002827,4.239900000000148,4.488100000000145,5.096400000000244,5.472400000000221,6.041900000000169,6.591800000000148,6.9199000000002115,15.284100000000194]",1,MVJZVBWXVXS,10,0,10,0,1,,,,,,,,,,
,,,,,,,,,,,,5f1fd0d33f0d5e2075724c24,19,Mężczyzna,2022-06-11_11h00.34.806,task,2021.1.4,Win32,144.0092166,6299f149e92ead563fba08ef,62a45999b417b60dae3ef579,,,,,,,,,,,,,6,,,,,,,,,,Task,37,(3/3) + 5,6,,,,,,,,,,,,,,,,,,,1,,,,,,,,,,,,,,,,,,,,,,,"[""6""]",1,0,0,0,36,1,[2.2579000000000633],,,,,,,,,,,,,,,,,,,,,,,,,,
,,,,,,,,,,,X V Q F H G B L J M P D K C T S W R N Z,5f1fd0d33f0d5e2075724c24,19,Mężczyzna,2022-06-11_11h00.34.806,task,2021.1.4,Win32,144.0092166,6299f149e92ead563fba08ef,62a45999b417b60dae3ef579,,,,,,,,,,,,,,,,,,,,,,,,,,,,,,,,,,,,,,,,,,,,,,,,,,,,,,,,,,,,,,,,,,,,,,,,,,,,0,0,0,0,1,,,,,,,,,,,,,,,,,,,,,
,,,,,,,,,,,,5f1fd0d33f0d5e2075724c24,19,Mężczyzna,2022-06-11_11h00.34.806,task,2021.1.4,Win32,144.0092166,6299f149e92ead563fba08ef,62a45999b417b60dae3ef579,,,,,,,,,,,,,2,,,,,,,,,,Task,2,(2x2) - 2,2,,,,,,,,,,,,,,,,,,,1,,,,,,,,,,,,,,,,,,,,,,,"[""2""]",1,0,0,0,1,1,[1.4534999999999627],,,,,,,,,,,,,,,,,,,,,,,,,,
,,,,,,,,,,,X V Q F H G B L J M P D K C T S W R N Z,5f1fd0d33f0d5e2075724c24,19,Mężczyzna,2022-06-11_11h00.34.806,task,2021.1.4,Win32,144.0092166,6299f149e92ead563fba08ef,62a45999b417b60dae3ef579,,,,,,,,,,,,,,,,,,,,,,,,,,,,,,,,,,,,,,,,,,,,,,,,,,,,,,,,,,,,,,,,,,,,,,,,,,,,1,0,1,0,1,,,,,,,,,,,,,,,,,,,,,
,,,,,,,,,,,,5f1fd0d33f0d5e2075724c24,19,Mężczyzna,2022-06-11_11h00.34.806,task,2021.1.4,Win32,144.0092166,6299f149e92ead563fba08ef,62a45999b417b60dae3ef579,,,,,,,,,,,,,9,,,,,,,,,,Task,24,(2x2) + 5,9,,,,,,,,,,,,,,,,,,,1,,,,,,,,,,,,,,,,,,,,,,,"[""9""]",1,0,0,0,23,1,[2.4147999999997865],,,,,,,,,,,,,,,,,,,,,,,,,,
,,,,,,,,,,,X V Q F H G B L J M P D K C T S W R N Z,5f1fd0d33f0d5e2075724c24,19,Mężczyzna,2022-06-11_11h00.34.806,task,2021.1.4,Win32,144.0092166,6299f149e92ead563fba08ef,62a45999b417b60dae3ef579,,,,,,,,,,,,,,,,,,,,,,,,,,,,,,,,,,,,,,,,,,,,,,,,,,,,,,,,,,,,,,,,,,,,,,,,,,,,2,0,2,0,1,,,,,,,,,,,,,,,,,,,,,
,,,,,,,,,,,,5f1fd0d33f0d5e2075724c24,19,Mężczyzna,2022-06-11_11h00.34.806,task,2021.1.4,Win32,144.0092166,6299f149e92ead563fba08ef,62a45999b417b60dae3ef579,,,,,,,,,,,,,,,,,,,,,,,Task,3,(2x3) - 3,3,,,,,,,,,,,,,,,,,,,0,,,,,,,,,,,,,,,,,,,,,,,,0,0,0,0,2,1,,,,,,,,,,,,,,,,,,,,,,,,,,,
,,,,,,,,,,,,5f1fd0d33f0d5e2075724c24,19,Mężczyzna,2022-06-11_11h00.34.806,task,2021.1.4,Win32,144.0092166,6299f149e92ead563fba08ef,62a45999b417b60dae3ef579,,,,,,,,,,,,,1,,,,,,,,,,Task,9,(3x7) - 20,1,,,,,,,,,,,,,,,,,,,1,,,,,,,,,,,,,,,,,,,,,,,"[""1""]",1,0,1,1,8,1,[1.280499999999961],,,,,,,,,,,,,,,,,,,,,,,,,,
,,,,,,,,,,,X V Q F H G B L J M P D K C T S W R N Z,5f1fd0d33f0d5e2075724c24,19,Mężczyzna,2022-06-11_11h00.34.806,task,2021.1.4,Win32,144.0092166,6299f149e92ead563fba08ef,62a45999b417b60dae3ef579,,,,,,,,,,,,,,,,,,,,,,,,,,,,,,,,,,,,,,,,,,,,,,,,,,,,,,,,,,,,,,,,,,,,,,,,,,,,3,0,3,0,1,,,,,,,,,,,,,,,,,,,,,
,,,,,,,,,,,,5f1fd0d33f0d5e2075724c24,19,Mężczyzna,2022-06-11_11h00.34.806,task,2021.1.4,Win32,144.0092166,6299f149e92ead563fba08ef,62a45999b417b60dae3ef579,,,,,,,,,,,,,2,,,,,,,,,,Task,2,(2x2) - 2,2,,,,,,,,,,,,,,,,,,,1,,,,,,,,,,,,,,,,,,,,,,,"[""2""]",1,0,0,0,1,1,[1.0332999999998265],,,,,,,,,,,,,,,,,,,,,,,,,,
,,,,,,,,,,,X V Q F H G B L J M P D K C T S W R N Z,5f1fd0d33f0d5e2075724c24,19,Mężczyzna,2022-06-11_11h00.34.806,task,2021.1.4,Win32,144.0092166,6299f149e92ead563fba08ef,62a45999b417b60dae3ef579,,,,,,,,,,,,,,,,,,,,,,,,,,,,,,,,,,,,,,,,,,,,,,,,,,,,,,,,,,,,,,,,,,,,,,,,,,,,4,0,4,0,1,,,,,,,,,,,,,,,,,,,,,
,,,,,,,,,,,,5f1fd0d33f0d5e2075724c24,19,Mężczyzna,2022-06-11_11h00.34.806,task,2021.1.4,Win32,144.0092166,6299f149e92ead563fba08ef,62a45999b417b60dae3ef579,,,,,,,,,,,,,5,,,,,,,,,,Task,36,(8/4) + 3,5,,,,,,,,,,,,,,,,,,,1,,,,,,,,,,,,,,,,,,,,,,,"[""5""]",1,0,0,0,35,1,[2.246800000000121],,,,,,,,,,,,,,,,,,,,,,,,,,
,,,,,,,,,,,X V Q F H G B L J M P D K C T S W R N Z,5f1fd0d33f0d5e2075724c24,19,Mężczyzna,2022-06-11_11h00.34.806,task,2021.1.4,Win32,144.0092166,6299f149e92ead563fba08ef,62a45999b417b60dae3ef579,,,,,,,,,,,,,,,,,,,,,,,,,,,,,,,,,,,,,,,,,,,,,,,,,,,,,,,,,,,,,,,,,,,,,,,,,,,,5,0,5,0,1,,,,,,,,,,,,,,,,,,,,,
,,,,,,,,,,,,5f1fd0d33f0d5e2075724c24,19,Mężczyzna,2022-06-11_11h00.34.806,task,2021.1.4,Win32,144.0092166,6299f149e92ead563fba08ef,62a45999b417b60dae3ef579,,,,,,,,,,,,,2,,,,,,,,,,Task,2,(2x2) - 2,2,,,,,,,,,,,,,,,,,,,1,,,,,,,,,,,,,,,,,,,,,,,"[""2""]",1,0,0,0,1,1,[0.9176000000001068],,,,,,,,,,,,,,,,,,,,,,,,,,
,,,,,,,,,,,X V Q F H G B L J M P D K C T S W R N Z,5f1fd0d33f0d5e2075724c24,19,Mężczyzna,2022-06-11_11h00.34.806,task,2021.1.4,Win32,144.0092166,6299f149e92ead563fba08ef,62a45999b417b60dae3ef579,,,,,,,,,,,,,,,,,,,,,,,,,,,,,,,,,,,,,,,,,,,,,,,,,,,,,,,,,,,,,,,,,,,,,,,,,,,,6,0,6,0,1,,,,,,,,,,,,,,,,,,,,,
,,,,,,,,,,,,5f1fd0d33f0d5e2075724c24,19,Mężczyzna,2022-06-11_11h00.34.806,task,2021.1.4,Win32,144.0092166,6299f149e92ead563fba08ef,62a45999b417b60dae3ef579,,,,,,,,,,,,,5,,,,,,,,,,Task,36,(8/4) + 3,5,,,,,,,,,,,,,,,,,,,1,,,,,,,,,,,,,,,,,,,,,,,"[""5""]",1,0,0,0,35,1,[2.215599999999881],,,,,,,,,,,,,,,,,,,,,,,,,,
,,,,,,,,,,,X V Q F H G B L J M P D K C T S W R N Z,5f1fd0d33f0d5e2075724c24,19,Mężczyzna,2022-06-11_11h00.34.806,task,2021.1.4,Win32,144.0092166,6299f149e92ead563fba08ef,62a45999b417b60dae3ef579,,,,,,,,,,,,,,,,,,,,,,,,,,,,,,,,,,,,,,,,,,,,,,,,,,,,,,,,,,,,,,,,,,,,,,,,,,,,7,0,7,0,1,,,,,,,,,,,,,,,,,,,,,
,,,,,,,,,,,,5f1fd0d33f0d5e2075724c24,19,Mężczyzna,2022-06-11_11h00.34.806,task,2021.1.4,Win32,144.0092166,6299f149e92ead563fba08ef,62a45999b417b60dae3ef579,,,,,,,,,,,,,9,,,,,,,,,,Task,24,(2x2) + 5,9,,,,,,,,,,,,,,,,,,,1,,,,,,,,,,,,,,,,,,,,,,,"[""9""]",1,0,0,0,23,1,[2.93119999999999],,,,,,,,,,,,,,,,,,,,,,,,,,
,,,,,,,,,,,X V Q F H G B L J M P D K C T S W R N Z,5f1fd0d33f0d5e2075724c24,19,Mężczyzna,2022-06-11_11h00.34.806,task,2021.1.4,Win32,144.0092166,6299f149e92ead563fba08ef,62a45999b417b60dae3ef579,,,,,,,,,,,,,,,,,,,,,,,,,,,,,,,,,,,,,,,,,,,,,,,,,,,,,,,,,,,,,,,,,,,,,,,,,,,,8,0,8,0,1,,,,,,,,,,,,,,,,,,,,,
,,,,,,,,,,,,5f1fd0d33f0d5e2075724c24,19,Mężczyzna,2022-06-11_11h00.34.806,task,2021.1.4,Win32,144.0092166,6299f149e92ead563fba08ef,62a45999b417b60dae3ef579,,,,,,,,,,,,,6,,,,,,,,,,Task,30,(6/3) + 4 ,6,,,,,,,,,,,,,,,,,,,1,,,,,,,,,,,,,,,,,,,,,,,"[""6""]",1,0,0,0,29,1,[1.9153999999998632],,,,,,,,,,,,,,,,,,,,,,,,,,
,,,,,,,,,,,X V Q F H G B L J M P D K C T S W R N Z,5f1fd0d33f0d5e2075724c24,19,Mężczyzna,2022-06-11_11h00.34.806,task,2021.1.4,Win32,144.0092166,6299f149e92ead563fba08ef,62a45999b417b60dae3ef579,,,,,,,,,,,,,,,,,,,,,,,,,,,,,,,,,,,,,,,,,,,,,,,,,,,,,,,,,,,,,,,,,,,,,,,,,,,,9,0,9,0,1,,,,,,,,,,,,,,,,,,,,,
,,,,,,,,,,,,5f1fd0d33f0d5e2075724c24,19,Mężczyzna,2022-06-11_11h00.34.806,task,2021.1.4,Win32,144.0092166,6299f149e92ead563fba08ef,62a45999b417b60dae3ef579,,,,,,,,,,,,,6,,,,,,,,,,Task,3,(2x3) - 3,3,,,,,,,,,,,,,,,,,,,0,,,,,,,,,,,,,,,,,,,,,,,"[""6""]",0,0,0,0,2,1,[2.734399999999937],,,,,,,,,,,,,,,,,,,,,,,,,,
,,,,,,,,,,,,5f1fd0d33f0d5e2075724c24,19,Mężczyzna,2022-06-11_11h00.34.806,task,2021.1.4,Win32,144.0092166,6299f149e92ead563fba08ef,62a45999b417b60dae3ef579,,,,,,,,,,,,,6,,,,,,,,,,Task,37,(3/3) + 5,6,,,,,,,,,,,,,,,,,,,1,,,,,,,,,,,,,,,,,,,,,,,"[""6""]",1,0,1,1,36,1,[2.251399999999876],,,,,,,,,,,,,,,,,,,,,,,,,,
,,,,,,,,,,,X V Q F H G B L J M P D K C T S W R N Z,5f1fd0d33f0d5e2075724c24,19,Mężczyzna,2022-06-11_11h00.34.806,task,2021.1.4,Win32,144.0092166,6299f149e92ead563fba08ef,62a45999b417b60dae3ef579,,,,,,,,,,,,,,,,,,,,,,,,,,,,,,,,,,,,,,,,,,,,,,,,,,,,,,,,,,,,,,,,,,,,,,,,,,,,10,0,10,0,1,,,,,,,,,,,,,,,,,,,,,
,,,,,,,,,,,,5f1fd0d33f0d5e2075724c24,19,Mężczyzna,2022-06-11_11h00.34.806,task,2021.1.4,Win32,144.0092166,6299f149e92ead563fba08ef,62a45999b417b60dae3ef579,,,,,,,,,,,,,3,,,,,,,,,,Task,35,(1x2) + 1,3,,,,,,,,,,,,,,,,,,,1,,,,,,,,,,,,,,,,,,,,,,,"[""3""]",1,0,0,0,34,1,[1.5553999999999633],,,,,,,,,,,,,,,,,,,,,,,,,,
,,,,,,,,,,,X V Q F H G B L J M P D K C T S W R N Z,5f1fd0d33f0d5e2075724c24,19,Mężczyzna,2022-06-11_11h00.34.806,task,2021.1.4,Win32,144.0092166,6299f149e92ead563fba08ef,62a45999b417b60dae3ef579,,,,,,,,,,,,,,,,,,,,,,,,,,,,,,,,,,,,,,,,,,,,,,,,,,,,,,,,,,,,,,,,,,,,,,,,,,,,11,0,11,0,1,,,,,,,,,,,,,,,,,,,,,
,,,,,,,,,,,,5f1fd0d33f0d5e2075724c24,19,Mężczyzna,2022-06-11_11h00.34.806,task,2021.1.4,Win32,144.0092166,6299f149e92ead563fba08ef,62a45999b417b60dae3ef579,,,,,,,,,,,,,,,,,,,,,,,,,,,,,,,,,,,,,,,,,,,,,,,,,,,,,,,,,,,,,,,,,,,,,,,,,,,,,,,,,xwnsfndnnljn,"[""x"",""w"",""n"",""s"",""f"",""n"",""d"",""n"",""n"",""l"",""j"",""n""]",0,"[2.3345999999997957,2.6485000000000127,3.0973999999998796,3.4384999999999764,3.937599999999861,5.184399999999869,5.680699999999888,6.057300000000055,6.224499999999921,6.9205999999998085,7.264899999999898,7.888599999999769,9.320599999999786]",1,XWNSFNDNNLJN,11,0,11,0,1,,,,,,,,,,
,,,,,,,,,,,,5f1fd0d33f0d5e2075724c24,19,Mężczyzna,2022-06-11_11h00.34.806,task,2021.1.4,Win32,144.0092166,6299f149e92ead563fba08ef,62a45999b417b60dae3ef579,,,,,,,,,,,,,1,,,,,,,,,,Task,34,(9/3) - 2,1,,,,,,,,,,,,,,,,,,,1,,,,,,,,,,,,,,,,,,,,,,,"[""1""]",1,0,0,0,33,1,[2.70150000000001],,,,,,,,,,,,,,,,,,,,,,,,,,
,,,,,,,,,,,X V Q F H G B L J M P D K C T S W R N Z,5f1fd0d33f0d5e2075724c24,19,Mężczyzna,2022-06-11_11h00.34.806,task,2021.1.4,Win32,144.0092166,6299f149e92ead563fba08ef,62a45999b417b60dae3ef579,,,,,,,,,,,,,,,,,,,,,,,,,,,,,,,,,,,,,,,,,,,,,,,,,,,,,,,,,,,,,,,,,,,,,,,,,,,,0,0,0,0,1,,,,,,,,,,,,,,,,,,,,,
,,,,,,,,,,,,5f1fd0d33f0d5e2075724c24,19,Mężczyzna,2022-06-11_11h00.34.806,task,2021.1.4,Win32,144.0092166,6299f149e92ead563fba08ef,62a45999b417b60dae3ef579,,,,,,,,,,,,,5,,,,,,,,,,Task,22,(3x1) + 2,5,,,,,,,,,,,,,,,,,,,1,,,,,,,,,,,,,,,,,,,,,,,"[""5""]",1,0,0,0,21,1,[1.969400000000178],,,,,,,,,,,,,,,,,,,,,,,,,,
,,,,,,,,,,,X V Q F H G B L J M P D K C T S W R N Z,5f1fd0d33f0d5e2075724c24,19,Mężczyzna,2022-06-11_11h00.34.806,task,2021.1.4,Win32,144.0092166,6299f149e92ead563fba08ef,62a45999b417b60dae3ef579,,,,,,,,,,,,,,,,,,,,,,,,,,,,,,,,,,,,,,,,,,,,,,,,,,,,,,,,,,,,,,,,,,,,,,,,,,,,1,0,1,0,1,,,,,,,,,,,,,,,,,,,,,
,,,,,,,,,,,,5f1fd0d33f0d5e2075724c24,19,Mężczyzna,2022-06-11_11h00.34.806,task,2021.1.4,Win32,144.0092166,6299f149e92ead563fba08ef,62a45999b417b60dae3ef579,,,,,,,,,,,,,1,,,,,,,,,,Task,9,(3x7) - 20,1,,,,,,,,,,,,,,,,,,,1,,,,,,,,,,,,,,,,,,,,,,,"[""1""]",1,0,0,0,8,1,[1.807800000000043],,,,,,,,,,,,,,,,,,,,,,,,,,
,,,,,,,,,,,X V Q F H G B L J M P D K C T S W R N Z,5f1fd0d33f0d5e2075724c24,19,Mężczyzna,2022-06-11_11h00.34.806,task,2021.1.4,Win32,144.0092166,6299f149e92ead563fba08ef,62a45999b417b60dae3ef579,,,,,,,,,,,,,,,,,,,,,,,,,,,,,,,,,,,,,,,,,,,,,,,,,,,,,,,,,,,,,,,,,,,,,,,,,,,,2,0,2,0,1,,,,,,,,,,,,,,,,,,,,,
,,,,,,,,,,,,5f1fd0d33f0d5e2075724c24,19,Mężczyzna,2022-06-11_11h00.34.806,task,2021.1.4,Win32,144.0092166,6299f149e92ead563fba08ef,62a45999b417b60dae3ef579,,,,,,,,,,,,,0,,,,,,,,,,Task,8,(1x5) - 5,0,,,,,,,,,,,,,,,,,,,1,,,,,,,,,,,,,,,,,,,,,,,"[""0""]",1,0,0,0,7,1,[1.5238999999999123],,,,,,,,,,,,,,,,,,,,,,,,,,
,,,,,,,,,,,X V Q F H G B L J M P D K C T S W R N Z,5f1fd0d33f0d5e2075724c24,19,Mężczyzna,2022-06-11_11h00.34.806,task,2021.1.4,Win32,144.0092166,6299f149e92ead563fba08ef,62a45999b417b60dae3ef579,,,,,,,,,,,,,,,,,,,,,,,,,,,,,,,,,,,,,,,,,,,,,,,,,,,,,,,,,,,,,,,,,,,,,,,,,,,,3,0,3,0,1,,,,,,,,,,,,,,,,,,,,,
