key_resp_15.keys,key_resp_15.rt,key_resp_16.keys,key_resp_16.rt,key_resp_4.keys,key_resp_4.rt,next_letter.thisRepN,next_letter.thisTrialN,next_letter.thisN,next_letter.thisIndex,next_letter.ran,letter,participant,Wiek*,Płeć,date,expName,psychopyVersion,OS,frameRate,study_id,session,key_resp_5.keys,key_resp_5.rt,simple_recall_corr,simple_recall_corrkeys,next_level.thisRepN,next_level.thisTrialN,next_level.thisN,next_level.thisIndex,next_level.ran,simple_recall,key_resp_2.keys,key_resp_2.rt,digit_answer,key_resp.keys,key_resp.corr,key_resp.rt,RT_list,next_equation.thisRepN,next_equation.thisTrialN,next_equation.thisN,next_equation.thisIndex,next_equation.ran,Task,Trial,Problem,Operation_answer,processing_score,sumRT,meanRT,sumdiff,sd,RT,key_resp_3.keys,key_resp_3.rt,repeat_practice.thisRepN,repeat_practice.thisTrialN,repeat_practice.thisN,repeat_practice.thisIndex,repeat_practice.ran,key_resp_6.keys,key_resp_6.rt,key_resp_11.keys,key_resp_11.corr,key_resp_11.rt,operation_correct,repeat_if_wrong_prac.thisRepN,repeat_if_wrong_prac.thisTrialN,repeat_if_wrong_prac.thisN,repeat_if_wrong_prac.thisIndex,repeat_if_wrong_prac.ran,span_size_prac.thisRepN,span_size_prac.thisTrialN,span_size_prac.thisN,span_size_prac.thisIndex,span_size_prac.ran,complex_recall_practice,key_resp_9.keys,key_resp_9.corr,key_resp_9.rt,complex_prac_corr,span_recall_prac.thisRepN,span_recall_prac.thisTrialN,span_recall_prac.thisN,span_recall_prac.thisIndex,span_recall_prac.ran,key_resp_10.keys,key_resp_10.rt,key_resp_7.keys,key_resp_7.corr,key_resp_7.rt,repeat_if_wrong.thisRepN,repeat_if_wrong.thisTrialN,repeat_if_wrong.thisN,repeat_if_wrong.thisIndex,repeat_if_wrong.ran,span_size.thisRepN,span_size.thisTrialN,span_size.thisN,span_size.thisIndex,span_size.ran,complex_recall,key_resp_8.keys,key_resp_8.corr,key_resp_8.rt,complex_recall_corr,complex_recall_corrkeys,span_recall.thisRepN,span_recall.thisTrialN,span_recall.thisN,span_recall.thisIndex,span_recall.ran,key_resp_13.keys,key_resp_13.corr,key_resp_13.rt,random_loop.thisRepN,random_loop.thisTrialN,random_loop.thisN,random_loop.thisIndex,random_loop.ran,key_resp_12.keys,key_resp_12.rt
space,16.6526,space,17.201,space,12.9097,0,0,0,0,1,X V Q F H G B L J M P D K C T S W R N Z,5f2046327f613f0e2c89c7dd,24,Kobieta,2022-06-11_09h27.35.692,task,2021.1.4,MacIntel,60.0024001,6299f149e92ead563fba08ef,62a443d81be75f39da88f0e3,,,,,,,,,,,,,,,,,,,,,,,,,,,,,,,,,,,,,,,,,,,,,,,,,,,,,,,,,,,,,,,,,,,,,,,,,,,,,,,,,,,,,,,,,,,,,,,,,,,,,
,,,,,,1,0,1,0,1,X V Q F H G B L J M P D K C T S W R N Z,5f2046327f613f0e2c89c7dd,24,Kobieta,2022-06-11_09h27.35.692,task,2021.1.4,MacIntel,60.0024001,6299f149e92ead563fba08ef,62a443d81be75f39da88f0e3,,,,,,,,,,,,,,,,,,,,,,,,,,,,,,,,,,,,,,,,,,,,,,,,,,,,,,,,,,,,,,,,,,,,,,,,,,,,,,,,,,,,,,,,,,,,,,,,,,,,,
,,,,,,,,,,,,5f2046327f613f0e2c89c7dd,24,Kobieta,2022-06-11_09h27.35.692,task,2021.1.4,MacIntel,60.0024001,6299f149e92ead563fba08ef,62a443d81be75f39da88f0e3,[],[5.8078999999985115],0,ZK,0,0,0,0,1,,,,,,,,,,,,,,,,,,,,,,,,,,,,,,,,,,,,,,,,,,,,,,,,,,,,,,,,,,,,,,,,,,,,,,,,,,,,,,,,,,,,,,,,,,,,
,,,,,,0,0,0,0,1,X V Q F H G B L J M P D K C T S W R N Z,5f2046327f613f0e2c89c7dd,24,Kobieta,2022-06-11_09h27.35.692,task,2021.1.4,MacIntel,60.0024001,6299f149e92ead563fba08ef,62a443d81be75f39da88f0e3,,,,,,,,,,,,,,,,,,,,,,,,,,,,,,,,,,,,,,,,,,,,,,,,,,,,,,,,,,,,,,,,,,,,,,,,,,,,,,,,,,,,,,,,,,,,,,,,,,,,,
,,,,,,1,0,1,0,1,X V Q F H G B L J M P D K C T S W R N Z,5f2046327f613f0e2c89c7dd,24,Kobieta,2022-06-11_09h27.35.692,task,2021.1.4,MacIntel,60.0024001,6299f149e92ead563fba08ef,62a443d81be75f39da88f0e3,,,,,,,,,,,,,,,,,,,,,,,,,,,,,,,,,,,,,,,,,,,,,,,,,,,,,,,,,,,,,,,,,,,,,,,,,,,,,,,,,,,,,,,,,,,,,,,,,,,,,
,,,,,,,,,,,,5f2046327f613f0e2c89c7dd,24,Kobieta,2022-06-11_09h27.35.692,task,2021.1.4,MacIntel,60.0024001,6299f149e92ead563fba08ef,62a443d81be75f39da88f0e3,"[""z"",""g""]","[1.8508000000007456,2.359499999999997,3.845800000000736]",1,ZG,1,0,1,0,1,zg,,,,,,,,,,,,,,,,,,,,,,,,,,,,,,,,,,,,,,,,,,,,,,,,,,,,,,,,,,,,,,,,,,,,,,,,,,,,,,,,,,,,,,,,,,,
,,,,,,0,0,0,0,1,X V Q F H G B L J M P D K C T S W R N Z,5f2046327f613f0e2c89c7dd,24,Kobieta,2022-06-11_09h27.35.692,task,2021.1.4,MacIntel,60.0024001,6299f149e92ead563fba08ef,62a443d81be75f39da88f0e3,,,,,,,,,,,,,,,,,,,,,,,,,,,,,,,,,,,,,,,,,,,,,,,,,,,,,,,,,,,,,,,,,,,,,,,,,,,,,,,,,,,,,,,,,,,,,,,,,,,,,
,,,,,,1,0,1,0,1,X V Q F H G B L J M P D K C T S W R N Z,5f2046327f613f0e2c89c7dd,24,Kobieta,2022-06-11_09h27.35.692,task,2021.1.4,MacIntel,60.0024001,6299f149e92ead563fba08ef,62a443d81be75f39da88f0e3,,,,,,,,,,,,,,,,,,,,,,,,,,,,,,,,,,,,,,,,,,,,,,,,,,,,,,,,,,,,,,,,,,,,,,,,,,,,,,,,,,,,,,,,,,,,,,,,,,,,,
,,,,,,,,,,,,5f2046327f613f0e2c89c7dd,24,Kobieta,2022-06-11_09h27.35.692,task,2021.1.4,MacIntel,60.0024001,6299f149e92ead563fba08ef,62a443d81be75f39da88f0e3,"[""n"",""b""]","[1.4025000000000034,1.6040000000000134,2.5296999999992664]",1,NB,2,0,2,0,1,nb,,,,,,,,,,,,,,,,,,,,,,,,,,,,,,,,,,,,,,,,,,,,,,,,,,,,,,,,,,,,,,,,,,,,,,,,,,,,,,,,,,,,,,,,,,,
,,,,,,0,0,0,0,1,X V Q F H G B L J M P D K C T S W R N Z,5f2046327f613f0e2c89c7dd,24,Kobieta,2022-06-11_09h27.35.692,task,2021.1.4,MacIntel,60.0024001,6299f149e92ead563fba08ef,62a443d81be75f39da88f0e3,,,,,,,,,,,,,,,,,,,,,,,,,,,,,,,,,,,,,,,,,,,,,,,,,,,,,,,,,,,,,,,,,,,,,,,,,,,,,,,,,,,,,,,,,,,,,,,,,,,,,
,,,,,,1,0,1,0,1,X V Q F H G B L J M P D K C T S W R N Z,5f2046327f613f0e2c89c7dd,24,Kobieta,2022-06-11_09h27.35.692,task,2021.1.4,MacIntel,60.0024001,6299f149e92ead563fba08ef,62a443d81be75f39da88f0e3,,,,,,,,,,,,,,,,,,,,,,,,,,,,,,,,,,,,,,,,,,,,,,,,,,,,,,,,,,,,,,,,,,,,,,,,,,,,,,,,,,,,,,,,,,,,,,,,,,,,,
,,,,,,2,0,2,0,1,X V Q F H G B L J M P D K C T S W R N Z,5f2046327f613f0e2c89c7dd,24,Kobieta,2022-06-11_09h27.35.692,task,2021.1.4,MacIntel,60.0024001,6299f149e92ead563fba08ef,62a443d81be75f39da88f0e3,,,,,,,,,,,,,,,,,,,,,,,,,,,,,,,,,,,,,,,,,,,,,,,,,,,,,,,,,,,,,,,,,,,,,,,,,,,,,,,,,,,,,,,,,,,,,,,,,,,,,
,,,,,,,,,,,,5f2046327f613f0e2c89c7dd,24,Kobieta,2022-06-11_09h27.35.692,task,2021.1.4,MacIntel,60.0024001,6299f149e92ead563fba08ef,62a443d81be75f39da88f0e3,"[""v"",""d""]","[0.06430000000074187,0.6824999999999903,1.4326000000014858]",0,VDX,3,0,3,0,1,vd,,,,,,,,,,,,,,,,,,,,,,,,,,,,,,,,,,,,,,,,,,,,,,,,,,,,,,,,,,,,,,,,,,,,,,,,,,,,,,,,,,,,,,,,,,,
,,,,,,0,0,0,0,1,X V Q F H G B L J M P D K C T S W R N Z,5f2046327f613f0e2c89c7dd,24,Kobieta,2022-06-11_09h27.35.692,task,2021.1.4,MacIntel,60.0024001,6299f149e92ead563fba08ef,62a443d81be75f39da88f0e3,,,,,,,,,,,,,,,,,,,,,,,,,,,,,,,,,,,,,,,,,,,,,,,,,,,,,,,,,,,,,,,,,,,,,,,,,,,,,,,,,,,,,,,,,,,,,,,,,,,,,
,,,,,,1,0,1,0,1,X V Q F H G B L J M P D K C T S W R N Z,5f2046327f613f0e2c89c7dd,24,Kobieta,2022-06-11_09h27.35.692,task,2021.1.4,MacIntel,60.0024001,6299f149e92ead563fba08ef,62a443d81be75f39da88f0e3,,,,,,,,,,,,,,,,,,,,,,,,,,,,,,,,,,,,,,,,,,,,,,,,,,,,,,,,,,,,,,,,,,,,,,,,,,,,,,,,,,,,,,,,,,,,,,,,,,,,,
,,,,,,2,0,2,0,1,X V Q F H G B L J M P D K C T S W R N Z,5f2046327f613f0e2c89c7dd,24,Kobieta,2022-06-11_09h27.35.692,task,2021.1.4,MacIntel,60.0024001,6299f149e92ead563fba08ef,62a443d81be75f39da88f0e3,,,,,,,,,,,,,,,,,,,,,,,,,,,,,,,,,,,,,,,,,,,,,,,,,,,,,,,,,,,,,,,,,,,,,,,,,,,,,,,,,,,,,,,,,,,,,,,,,,,,,
,,,,,,,,,,,,5f2046327f613f0e2c89c7dd,24,Kobieta,2022-06-11_09h27.35.692,task,2021.1.4,MacIntel,60.0024001,6299f149e92ead563fba08ef,62a443d81be75f39da88f0e3,"[""z"",""q"",""z""]","[3.939099999999627,4.332000000000008,5.215500000000006,6.071199999999266]",1,ZQZ,4,0,4,0,1,zqz,,,,,,,,,,,,,,,,,,,,,,,,,,,,,,,,,,,,,,,,,,,,,,,,,,,,,,,,,,,,,,,,,,,,,,,,,,,,,,,,,,,,,,,,,,,
,,,,,,0,0,0,0,1,X V Q F H G B L J M P D K C T S W R N Z,5f2046327f613f0e2c89c7dd,24,Kobieta,2022-06-11_09h27.35.692,task,2021.1.4,MacIntel,60.0024001,6299f149e92ead563fba08ef,62a443d81be75f39da88f0e3,,,,,,,,,,,,,,,,,,,,,,,,,,,,,,,,,,,,,,,,,,,,,,,,,,,,,,,,,,,,,,,,,,,,,,,,,,,,,,,,,,,,,,,,,,,,,,,,,,,,,
,,,,,,1,0,1,0,1,X V Q F H G B L J M P D K C T S W R N Z,5f2046327f613f0e2c89c7dd,24,Kobieta,2022-06-11_09h27.35.692,task,2021.1.4,MacIntel,60.0024001,6299f149e92ead563fba08ef,62a443d81be75f39da88f0e3,,,,,,,,,,,,,,,,,,,,,,,,,,,,,,,,,,,,,,,,,,,,,,,,,,,,,,,,,,,,,,,,,,,,,,,,,,,,,,,,,,,,,,,,,,,,,,,,,,,,,
,,,,,,2,0,2,0,1,X V Q F H G B L J M P D K C T S W R N Z,5f2046327f613f0e2c89c7dd,24,Kobieta,2022-06-11_09h27.35.692,task,2021.1.4,MacIntel,60.0024001,6299f149e92ead563fba08ef,62a443d81be75f39da88f0e3,,,,,,,,,,,,,,,,,,,,,,,,,,,,,,,,,,,,,,,,,,,,,,,,,,,,,,,,,,,,,,,,,,,,,,,,,,,,,,,,,,,,,,,,,,,,,,,,,,,,,
,,,,,,,,,,,,5f2046327f613f0e2c89c7dd,24,Kobieta,2022-06-11_09h27.35.692,task,2021.1.4,MacIntel,60.0024001,6299f149e92ead563fba08ef,62a443d81be75f39da88f0e3,"[""x"",""h"",""l""]","[0.8689999999999998,1.9505000000000052,2.384199999999268,2.8667999999988893]",1,XHL,5,0,5,0,1,xhl,,,,,,,,,,,,,,,,,,,,,,,,,,,,,,,,,,,,,,,,,,,,,,,,,,,,,,,,,,,,,,,,,,,,,,,,,,,,,,,,,,,,,,,,,,,
,,,,,,0,0,0,0,1,X V Q F H G B L J M P D K C T S W R N Z,5f2046327f613f0e2c89c7dd,24,Kobieta,2022-06-11_09h27.35.692,task,2021.1.4,MacIntel,60.0024001,6299f149e92ead563fba08ef,62a443d81be75f39da88f0e3,,,,,,,,,,,,,,,,,,,,,,,,,,,,,,,,,,,,,,,,,,,,,,,,,,,,,,,,,,,,,,,,,,,,,,,,,,,,,,,,,,,,,,,,,,,,,,,,,,,,,
,,,,,,1,0,1,0,1,X V Q F H G B L J M P D K C T S W R N Z,5f2046327f613f0e2c89c7dd,24,Kobieta,2022-06-11_09h27.35.692,task,2021.1.4,MacIntel,60.0024001,6299f149e92ead563fba08ef,62a443d81be75f39da88f0e3,,,,,,,,,,,,,,,,,,,,,,,,,,,,,,,,,,,,,,,,,,,,,,,,,,,,,,,,,,,,,,,,,,,,,,,,,,,,,,,,,,,,,,,,,,,,,,,,,,,,,
,,,,,,2,0,2,0,1,X V Q F H G B L J M P D K C T S W R N Z,5f2046327f613f0e2c89c7dd,24,Kobieta,2022-06-11_09h27.35.692,task,2021.1.4,MacIntel,60.0024001,6299f149e92ead563fba08ef,62a443d81be75f39da88f0e3,,,,,,,,,,,,,,,,,,,,,,,,,,,,,,,,,,,,,,,,,,,,,,,,,,,,,,,,,,,,,,,,,,,,,,,,,,,,,,,,,,,,,,,,,,,,,,,,,,,,,
,,,,,,3,0,3,0,1,X V Q F H G B L J M P D K C T S W R N Z,5f2046327f613f0e2c89c7dd,24,Kobieta,2022-06-11_09h27.35.692,task,2021.1.4,MacIntel,60.0024001,6299f149e92ead563fba08ef,62a443d81be75f39da88f0e3,,,,,,,,,,,,,,,,,,,,,,,,,,,,,,,,,,,,,,,,,,,,,,,,,,,,,,,,,,,,,,,,,,,,,,,,,,,,,,,,,,,,,,,,,,,,,,,,,,,,,
,,,,,,,,,,,,5f2046327f613f0e2c89c7dd,24,Kobieta,2022-06-11_09h27.35.692,task,2021.1.4,MacIntel,60.0024001,6299f149e92ead563fba08ef,62a443d81be75f39da88f0e3,"[""q"",""g"",""g"",""p""]","[1.3485000000000014,2.0653000000007466,2.198600000001491,2.730800000000741,3.5307000000011186]",1,QGGP,6,0,6,0,1,qggp,,,,,,,,,,,,,,,,,,,,,,,,,,,,,,,,,,,,,,,,,,,,,,,,,,,,,,,,,,,,,,,,,,,,,,,,,,,,,,,,,,,,,,,,,,,
,,,,,,0,0,0,0,1,X V Q F H G B L J M P D K C T S W R N Z,5f2046327f613f0e2c89c7dd,24,Kobieta,2022-06-11_09h27.35.692,task,2021.1.4,MacIntel,60.0024001,6299f149e92ead563fba08ef,62a443d81be75f39da88f0e3,,,,,,,,,,,,,,,,,,,,,,,,,,,,,,,,,,,,,,,,,,,,,,,,,,,,,,,,,,,,,,,,,,,,,,,,,,,,,,,,,,,,,,,,,,,,,,,,,,,,,
,,,,,,1,0,1,0,1,X V Q F H G B L J M P D K C T S W R N Z,5f2046327f613f0e2c89c7dd,24,Kobieta,2022-06-11_09h27.35.692,task,2021.1.4,MacIntel,60.0024001,6299f149e92ead563fba08ef,62a443d81be75f39da88f0e3,,,,,,,,,,,,,,,,,,,,,,,,,,,,,,,,,,,,,,,,,,,,,,,,,,,,,,,,,,,,,,,,,,,,,,,,,,,,,,,,,,,,,,,,,,,,,,,,,,,,,
,,,,,,2,0,2,0,1,X V Q F H G B L J M P D K C T S W R N Z,5f2046327f613f0e2c89c7dd,24,Kobieta,2022-06-11_09h27.35.692,task,2021.1.4,MacIntel,60.0024001,6299f149e92ead563fba08ef,62a443d81be75f39da88f0e3,,,,,,,,,,,,,,,,,,,,,,,,,,,,,,,,,,,,,,,,,,,,,,,,,,,,,,,,,,,,,,,,,,,,,,,,,,,,,,,,,,,,,,,,,,,,,,,,,,,,,
,,,,,,3,0,3,0,1,X V Q F H G B L J M P D K C T S W R N Z,5f2046327f613f0e2c89c7dd,24,Kobieta,2022-06-11_09h27.35.692,task,2021.1.4,MacIntel,60.0024001,6299f149e92ead563fba08ef,62a443d81be75f39da88f0e3,,,,,,,,,,,,,,,,,,,,,,,,,,,,,,,,,,,,,,,,,,,,,,,,,,,,,,,,,,,,,,,,,,,,,,,,,,,,,,,,,,,,,,,,,,,,,,,,,,,,,
,,,,,,,,,,,,5f2046327f613f0e2c89c7dd,24,Kobieta,2022-06-11_09h27.35.692,task,2021.1.4,MacIntel,60.0024001,6299f149e92ead563fba08ef,62a443d81be75f39da88f0e3,"[""p"",""m"",""m"",""g""]","[0.8989999999999867,1.16929999999887,1.2980999999996214,1.598399999998506,2.182399999998509]",1,PMMG,7,0,7,0,1,pmmg,,,,,,,,,,,,,,,,,,,,,,,,,,,,,,,,,,,,,,,,,,,,,,,,,,,,,,,,,,,,,,,,,,,,,,,,,,,,,,,,,,,,,,,,,,,
,,,,,,0,0,0,0,1,X V Q F H G B L J M P D K C T S W R N Z,5f2046327f613f0e2c89c7dd,24,Kobieta,2022-06-11_09h27.35.692,task,2021.1.4,MacIntel,60.0024001,6299f149e92ead563fba08ef,62a443d81be75f39da88f0e3,,,,,,,,,,,,,,,,,,,,,,,,,,,,,,,,,,,,,,,,,,,,,,,,,,,,,,,,,,,,,,,,,,,,,,,,,,,,,,,,,,,,,,,,,,,,,,,,,,,,,
,,,,,,1,0,1,0,1,X V Q F H G B L J M P D K C T S W R N Z,5f2046327f613f0e2c89c7dd,24,Kobieta,2022-06-11_09h27.35.692,task,2021.1.4,MacIntel,60.0024001,6299f149e92ead563fba08ef,62a443d81be75f39da88f0e3,,,,,,,,,,,,,,,,,,,,,,,,,,,,,,,,,,,,,,,,,,,,,,,,,,,,,,,,,,,,,,,,,,,,,,,,,,,,,,,,,,,,,,,,,,,,,,,,,,,,,
,,,,,,2,0,2,0,1,X V Q F H G B L J M P D K C T S W R N Z,5f2046327f613f0e2c89c7dd,24,Kobieta,2022-06-11_09h27.35.692,task,2021.1.4,MacIntel,60.0024001,6299f149e92ead563fba08ef,62a443d81be75f39da88f0e3,,,,,,,,,,,,,,,,,,,,,,,,,,,,,,,,,,,,,,,,,,,,,,,,,,,,,,,,,,,,,,,,,,,,,,,,,,,,,,,,,,,,,,,,,,,,,,,,,,,,,
,,,,,,3,0,3,0,1,X V Q F H G B L J M P D K C T S W R N Z,5f2046327f613f0e2c89c7dd,24,Kobieta,2022-06-11_09h27.35.692,task,2021.1.4,MacIntel,60.0024001,6299f149e92ead563fba08ef,62a443d81be75f39da88f0e3,,,,,,,,,,,,,,,,,,,,,,,,,,,,,,,,,,,,,,,,,,,,,,,,,,,,,,,,,,,,,,,,,,,,,,,,,,,,,,,,,,,,,,,,,,,,,,,,,,,,,
,,,,,,4,0,4,0,1,X V Q F H G B L J M P D K C T S W R N Z,5f2046327f613f0e2c89c7dd,24,Kobieta,2022-06-11_09h27.35.692,task,2021.1.4,MacIntel,60.0024001,6299f149e92ead563fba08ef,62a443d81be75f39da88f0e3,,,,,,,,,,,,,,,,,,,,,,,,,,,,,,,,,,,,,,,,,,,,,,,,,,,,,,,,,,,,,,,,,,,,,,,,,,,,,,,,,,,,,,,,,,,,,,,,,,,,,
,,,,,,,,,,,,5f2046327f613f0e2c89c7dd,24,Kobieta,2022-06-11_09h27.35.692,task,2021.1.4,MacIntel,60.0024001,6299f149e92ead563fba08ef,62a443d81be75f39da88f0e3,"[""s"",""c"",""l"",""j"",""z""]","[0.8654999999999973,1.1315999999996222,1.7994999999999948,2.082299999998881,2.4824999999999875,3.1491999999992544]",1,SCLJZ,8,0,8,0,1,scljz,,,,,,,,,,,,,,,,,,,,,,,,,,,,,,,,,,,,,,,,,,,,,,,,,,,,,,,,,,,,,,,,,,,,,,,,,,,,,,,,,,,,,,,,,,,
,,,,,,0,0,0,0,1,X V Q F H G B L J M P D K C T S W R N Z,5f2046327f613f0e2c89c7dd,24,Kobieta,2022-06-11_09h27.35.692,task,2021.1.4,MacIntel,60.0024001,6299f149e92ead563fba08ef,62a443d81be75f39da88f0e3,,,,,,,,,,,,,,,,,,,,,,,,,,,,,,,,,,,,,,,,,,,,,,,,,,,,,,,,,,,,,,,,,,,,,,,,,,,,,,,,,,,,,,,,,,,,,,,,,,,,,
,,,,,,1,0,1,0,1,X V Q F H G B L J M P D K C T S W R N Z,5f2046327f613f0e2c89c7dd,24,Kobieta,2022-06-11_09h27.35.692,task,2021.1.4,MacIntel,60.0024001,6299f149e92ead563fba08ef,62a443d81be75f39da88f0e3,,,,,,,,,,,,,,,,,,,,,,,,,,,,,,,,,,,,,,,,,,,,,,,,,,,,,,,,,,,,,,,,,,,,,,,,,,,,,,,,,,,,,,,,,,,,,,,,,,,,,
,,,,,,2,0,2,0,1,X V Q F H G B L J M P D K C T S W R N Z,5f2046327f613f0e2c89c7dd,24,Kobieta,2022-06-11_09h27.35.692,task,2021.1.4,MacIntel,60.0024001,6299f149e92ead563fba08ef,62a443d81be75f39da88f0e3,,,,,,,,,,,,,,,,,,,,,,,,,,,,,,,,,,,,,,,,,,,,,,,,,,,,,,,,,,,,,,,,,,,,,,,,,,,,,,,,,,,,,,,,,,,,,,,,,,,,,
,,,,,,3,0,3,0,1,X V Q F H G B L J M P D K C T S W R N Z,5f2046327f613f0e2c89c7dd,24,Kobieta,2022-06-11_09h27.35.692,task,2021.1.4,MacIntel,60.0024001,6299f149e92ead563fba08ef,62a443d81be75f39da88f0e3,,,,,,,,,,,,,,,,,,,,,,,,,,,,,,,,,,,,,,,,,,,,,,,,,,,,,,,,,,,,,,,,,,,,,,,,,,,,,,,,,,,,,,,,,,,,,,,,,,,,,
,,,,,,4,0,4,0,1,X V Q F H G B L J M P D K C T S W R N Z,5f2046327f613f0e2c89c7dd,24,Kobieta,2022-06-11_09h27.35.692,task,2021.1.4,MacIntel,60.0024001,6299f149e92ead563fba08ef,62a443d81be75f39da88f0e3,,,,,,,,,,,,,,,,,,,,,,,,,,,,,,,,,,,,,,,,,,,,,,,,,,,,,,,,,,,,,,,,,,,,,,,,,,,,,,,,,,,,,,,,,,,,,,,,,,,,,
,,,,,,,,,,,,5f2046327f613f0e2c89c7dd,24,Kobieta,2022-06-11_09h27.35.692,task,2021.1.4,MacIntel,60.0024001,6299f149e92ead563fba08ef,62a443d81be75f39da88f0e3,"[""d"",""b"",""g"",""b"",""d""]","[1.1856999999992581,1.5330999999996493,2.1336999999992656,2.4474000000003855,2.7987999999988915,3.449099999999646]",0,DBGBG,9,0,9,0,1,dbgbd,,,,,,,,,,,,,,,,,,,,,,,,,,,,,,,,,,,,,,,,,,,,,,,,,,,,,,,,,,,,,,,,,,,,,,,,,,,,,,,,,,,,,,,,,,,
,,,,,,0,0,0,0,1,X V Q F H G B L J M P D K C T S W R N Z,5f2046327f613f0e2c89c7dd,24,Kobieta,2022-06-11_09h27.35.692,task,2021.1.4,MacIntel,60.0024001,6299f149e92ead563fba08ef,62a443d81be75f39da88f0e3,,,,,,,,,,,,,,,,,,,,,,,,,,,,,,,,,,,,,,,,,,,,,,,,,,,,,,,,,,,,,,,,,,,,,,,,,,,,,,,,,,,,,,,,,,,,,,,,,,,,,
,,,,,,1,0,1,0,1,X V Q F H G B L J M P D K C T S W R N Z,5f2046327f613f0e2c89c7dd,24,Kobieta,2022-06-11_09h27.35.692,task,2021.1.4,MacIntel,60.0024001,6299f149e92ead563fba08ef,62a443d81be75f39da88f0e3,,,,,,,,,,,,,,,,,,,,,,,,,,,,,,,,,,,,,,,,,,,,,,,,,,,,,,,,,,,,,,,,,,,,,,,,,,,,,,,,,,,,,,,,,,,,,,,,,,,,,
,,,,,,2,0,2,0,1,X V Q F H G B L J M P D K C T S W R N Z,5f2046327f613f0e2c89c7dd,24,Kobieta,2022-06-11_09h27.35.692,task,2021.1.4,MacIntel,60.0024001,6299f149e92ead563fba08ef,62a443d81be75f39da88f0e3,,,,,,,,,,,,,,,,,,,,,,,,,,,,,,,,,,,,,,,,,,,,,,,,,,,,,,,,,,,,,,,,,,,,,,,,,,,,,,,,,,,,,,,,,,,,,,,,,,,,,
,,,,,,3,0,3,0,1,X V Q F H G B L J M P D K C T S W R N Z,5f2046327f613f0e2c89c7dd,24,Kobieta,2022-06-11_09h27.35.692,task,2021.1.4,MacIntel,60.0024001,6299f149e92ead563fba08ef,62a443d81be75f39da88f0e3,,,,,,,,,,,,,,,,,,,,,,,,,,,,,,,,,,,,,,,,,,,,,,,,,,,,,,,,,,,,,,,,,,,,,,,,,,,,,,,,,,,,,,,,,,,,,,,,,,,,,
,,,,,,4,0,4,0,1,X V Q F H G B L J M P D K C T S W R N Z,5f2046327f613f0e2c89c7dd,24,Kobieta,2022-06-11_09h27.35.692,task,2021.1.4,MacIntel,60.0024001,6299f149e92ead563fba08ef,62a443d81be75f39da88f0e3,,,,,,,,,,,,,,,,,,,,,,,,,,,,,,,,,,,,,,,,,,,,,,,,,,,,,,,,,,,,,,,,,,,,,,,,,,,,,,,,,,,,,,,,,,,,,,,,,,,,,
,,,,,,,,,,,,5f2046327f613f0e2c89c7dd,24,Kobieta,2022-06-11_09h27.35.692,task,2021.1.4,MacIntel,60.0024001,6299f149e92ead563fba08ef,62a443d81be75f39da88f0e3,"[""x"",""z"",""k"",""j"",""z""]","[1.7654000000003691,2.171699999999248,2.8483000000007337,3.155400000000384,3.54849999999999,4.250900000000371]",0,XZKZJ,10,0,10,0,1,xzkjz,,,,,,,,,,,,,,,,,,,,,,,,,,,,,,,,,,,,,,,,,,,,,,,,,,,,,,,,,,,,,,,,,,,,,,,,,,,,,,,,,,,,,,,,,,,
,,,,,,0,0,0,0,1,X V Q F H G B L J M P D K C T S W R N Z,5f2046327f613f0e2c89c7dd,24,Kobieta,2022-06-11_09h27.35.692,task,2021.1.4,MacIntel,60.0024001,6299f149e92ead563fba08ef,62a443d81be75f39da88f0e3,,,,,,,,,,,,,,,,,,,,,,,,,,,,,,,,,,,,,,,,,,,,,,,,,,,,,,,,,,,,,,,,,,,,,,,,,,,,,,,,,,,,,,,,,,,,,,,,,,,,,
,,,,,,1,0,1,0,1,X V Q F H G B L J M P D K C T S W R N Z,5f2046327f613f0e2c89c7dd,24,Kobieta,2022-06-11_09h27.35.692,task,2021.1.4,MacIntel,60.0024001,6299f149e92ead563fba08ef,62a443d81be75f39da88f0e3,,,,,,,,,,,,,,,,,,,,,,,,,,,,,,,,,,,,,,,,,,,,,,,,,,,,,,,,,,,,,,,,,,,,,,,,,,,,,,,,,,,,,,,,,,,,,,,,,,,,,
,,,,,,2,0,2,0,1,X V Q F H G B L J M P D K C T S W R N Z,5f2046327f613f0e2c89c7dd,24,Kobieta,2022-06-11_09h27.35.692,task,2021.1.4,MacIntel,60.0024001,6299f149e92ead563fba08ef,62a443d81be75f39da88f0e3,,,,,,,,,,,,,,,,,,,,,,,,,,,,,,,,,,,,,,,,,,,,,,,,,,,,,,,,,,,,,,,,,,,,,,,,,,,,,,,,,,,,,,,,,,,,,,,,,,,,,
,,,,,,3,0,3,0,1,X V Q F H G B L J M P D K C T S W R N Z,5f2046327f613f0e2c89c7dd,24,Kobieta,2022-06-11_09h27.35.692,task,2021.1.4,MacIntel,60.0024001,6299f149e92ead563fba08ef,62a443d81be75f39da88f0e3,,,,,,,,,,,,,,,,,,,,,,,,,,,,,,,,,,,,,,,,,,,,,,,,,,,,,,,,,,,,,,,,,,,,,,,,,,,,,,,,,,,,,,,,,,,,,,,,,,,,,
,,,,,,4,0,4,0,1,X V Q F H G B L J M P D K C T S W R N Z,5f2046327f613f0e2c89c7dd,24,Kobieta,2022-06-11_09h27.35.692,task,2021.1.4,MacIntel,60.0024001,6299f149e92ead563fba08ef,62a443d81be75f39da88f0e3,,,,,,,,,,,,,,,,,,,,,,,,,,,,,,,,,,,,,,,,,,,,,,,,,,,,,,,,,,,,,,,,,,,,,,,,,,,,,,,,,,,,,,,,,,,,,,,,,,,,,
,,,,,,,,,,,,5f2046327f613f0e2c89c7dd,24,Kobieta,2022-06-11_09h27.35.692,task,2021.1.4,MacIntel,60.0024001,6299f149e92ead563fba08ef,62a443d81be75f39da88f0e3,"[""q"",""f"",""x"",""j"",""j""]","[1.364400000000387,2.0884000000003766,2.9861000000014997,3.749400000000378,3.866000000000014,4.45270000000113]",1,QFXJJ,11,0,11,0,1,qfxjj,,,,,,,,,,,,,,,,,,,,,,,,,,,,,,,,,,,,,,,,,,,,,,,,,,,,,,,,,,,,,,,,,,,,,,,,,,,,,,,,,,,,,,,,,,,
,,,,,,0,0,0,0,1,X V Q F H G B L J M P D K C T S W R N Z,5f2046327f613f0e2c89c7dd,24,Kobieta,2022-06-11_09h27.35.692,task,2021.1.4,MacIntel,60.0024001,6299f149e92ead563fba08ef,62a443d81be75f39da88f0e3,,,,,,,,,,,,,,,,,,,,,,,,,,,,,,,,,,,,,,,,,,,,,,,,,,,,,,,,,,,,,,,,,,,,,,,,,,,,,,,,,,,,,,,,,,,,,,,,,,,,,
,,,,,,1,0,1,0,1,X V Q F H G B L J M P D K C T S W R N Z,5f2046327f613f0e2c89c7dd,24,Kobieta,2022-06-11_09h27.35.692,task,2021.1.4,MacIntel,60.0024001,6299f149e92ead563fba08ef,62a443d81be75f39da88f0e3,,,,,,,,,,,,,,,,,,,,,,,,,,,,,,,,,,,,,,,,,,,,,,,,,,,,,,,,,,,,,,,,,,,,,,,,,,,,,,,,,,,,,,,,,,,,,,,,,,,,,
,,,,,,2,0,2,0,1,X V Q F H G B L J M P D K C T S W R N Z,5f2046327f613f0e2c89c7dd,24,Kobieta,2022-06-11_09h27.35.692,task,2021.1.4,MacIntel,60.0024001,6299f149e92ead563fba08ef,62a443d81be75f39da88f0e3,,,,,,,,,,,,,,,,,,,,,,,,,,,,,,,,,,,,,,,,,,,,,,,,,,,,,,,,,,,,,,,,,,,,,,,,,,,,,,,,,,,,,,,,,,,,,,,,,,,,,
,,,,,,3,0,3,0,1,X V Q F H G B L J M P D K C T S W R N Z,5f2046327f613f0e2c89c7dd,24,Kobieta,2022-06-11_09h27.35.692,task,2021.1.4,MacIntel,60.0024001,6299f149e92ead563fba08ef,62a443d81be75f39da88f0e3,,,,,,,,,,,,,,,,,,,,,,,,,,,,,,,,,,,,,,,,,,,,,,,,,,,,,,,,,,,,,,,,,,,,,,,,,,,,,,,,,,,,,,,,,,,,,,,,,,,,,
,,,,,,4,0,4,0,1,X V Q F H G B L J M P D K C T S W R N Z,5f2046327f613f0e2c89c7dd,24,Kobieta,2022-06-11_09h27.35.692,task,2021.1.4,MacIntel,60.0024001,6299f149e92ead563fba08ef,62a443d81be75f39da88f0e3,,,,,,,,,,,,,,,,,,,,,,,,,,,,,,,,,,,,,,,,,,,,,,,,,,,,,,,,,,,,,,,,,,,,,,,,,,,,,,,,,,,,,,,,,,,,,,,,,,,,,
,,,,,,5,0,5,0,1,X V Q F H G B L J M P D K C T S W R N Z,5f2046327f613f0e2c89c7dd,24,Kobieta,2022-06-11_09h27.35.692,task,2021.1.4,MacIntel,60.0024001,6299f149e92ead563fba08ef,62a443d81be75f39da88f0e3,,,,,,,,,,,,,,,,,,,,,,,,,,,,,,,,,,,,,,,,,,,,,,,,,,,,,,,,,,,,,,,,,,,,,,,,,,,,,,,,,,,,,,,,,,,,,,,,,,,,,
,,,,,,,,,,,,5f2046327f613f0e2c89c7dd,24,Kobieta,2022-06-11_09h27.35.692,task,2021.1.4,MacIntel,60.0024001,6299f149e92ead563fba08ef,62a443d81be75f39da88f0e3,"[""b"",""d"",""j"",""x"",""r""]","[1.6487999999988858,2.048299999998875,2.532699999999238,3.0844999999999914,3.751999999999981,5.20490000000035]",0,BSBRJQ,12,0,12,0,1,bdjxr,,,,,,,,,,,,,,,,,,,,,,,,,,,,,,,,,,,,,,,,,,,,,,,,,,,,,,,,,,,,,,,,,,,,,,,,,,,,,,,,,,,,,,,,,,,
,,,,,,0,0,0,0,1,X V Q F H G B L J M P D K C T S W R N Z,5f2046327f613f0e2c89c7dd,24,Kobieta,2022-06-11_09h27.35.692,task,2021.1.4,MacIntel,60.0024001,6299f149e92ead563fba08ef,62a443d81be75f39da88f0e3,,,,,,,,,,,,,,,,,,,,,,,,,,,,,,,,,,,,,,,,,,,,,,,,,,,,,,,,,,,,,,,,,,,,,,,,,,,,,,,,,,,,,,,,,,,,,,,,,,,,,
,,,,,,1,0,1,0,1,X V Q F H G B L J M P D K C T S W R N Z,5f2046327f613f0e2c89c7dd,24,Kobieta,2022-06-11_09h27.35.692,task,2021.1.4,MacIntel,60.0024001,6299f149e92ead563fba08ef,62a443d81be75f39da88f0e3,,,,,,,,,,,,,,,,,,,,,,,,,,,,,,,,,,,,,,,,,,,,,,,,,,,,,,,,,,,,,,,,,,,,,,,,,,,,,,,,,,,,,,,,,,,,,,,,,,,,,
,,,,,,2,0,2,0,1,X V Q F H G B L J M P D K C T S W R N Z,5f2046327f613f0e2c89c7dd,24,Kobieta,2022-06-11_09h27.35.692,task,2021.1.4,MacIntel,60.0024001,6299f149e92ead563fba08ef,62a443d81be75f39da88f0e3,,,,,,,,,,,,,,,,,,,,,,,,,,,,,,,,,,,,,,,,,,,,,,,,,,,,,,,,,,,,,,,,,,,,,,,,,,,,,,,,,,,,,,,,,,,,,,,,,,,,,
,,,,,,3,0,3,0,1,X V Q F H G B L J M P D K C T S W R N Z,5f2046327f613f0e2c89c7dd,24,Kobieta,2022-06-11_09h27.35.692,task,2021.1.4,MacIntel,60.0024001,6299f149e92ead563fba08ef,62a443d81be75f39da88f0e3,,,,,,,,,,,,,,,,,,,,,,,,,,,,,,,,,,,,,,,,,,,,,,,,,,,,,,,,,,,,,,,,,,,,,,,,,,,,,,,,,,,,,,,,,,,,,,,,,,,,,
,,,,,,4,0,4,0,1,X V Q F H G B L J M P D K C T S W R N Z,5f2046327f613f0e2c89c7dd,24,Kobieta,2022-06-11_09h27.35.692,task,2021.1.4,MacIntel,60.0024001,6299f149e92ead563fba08ef,62a443d81be75f39da88f0e3,,,,,,,,,,,,,,,,,,,,,,,,,,,,,,,,,,,,,,,,,,,,,,,,,,,,,,,,,,,,,,,,,,,,,,,,,,,,,,,,,,,,,,,,,,,,,,,,,,,,,
,,,,,,5,0,5,0,1,X V Q F H G B L J M P D K C T S W R N Z,5f2046327f613f0e2c89c7dd,24,Kobieta,2022-06-11_09h27.35.692,task,2021.1.4,MacIntel,60.0024001,6299f149e92ead563fba08ef,62a443d81be75f39da88f0e3,,,,,,,,,,,,,,,,,,,,,,,,,,,,,,,,,,,,,,,,,,,,,,,,,,,,,,,,,,,,,,,,,,,,,,,,,,,,,,,,,,,,,,,,,,,,,,,,,,,,,
,,,,,,,,,,,,5f2046327f613f0e2c89c7dd,24,Kobieta,2022-06-11_09h27.35.692,task,2021.1.4,MacIntel,60.0024001,6299f149e92ead563fba08ef,62a443d81be75f39da88f0e3,"[""j"",""d"",""g"",""x"",""t"",""d""]","[0.9531999999992706,1.4998000000007607,1.8833000000007587,2.564900000000364,2.899900000000372,3.215199999999271,3.849800000000755]",0,JGDTXT,13,0,13,0,1,jdgxtd,,,,,,,,,,,,,,,,,,,,,,,,,,,,,,,,,,,,,,,,,,,,,,,,,,,,,,,,,,,,,,,,,,,,,,,,,,,,,,,,,,,,,,,,,,,
,,,,,,0,0,0,0,1,X V Q F H G B L J M P D K C T S W R N Z,5f2046327f613f0e2c89c7dd,24,Kobieta,2022-06-11_09h27.35.692,task,2021.1.4,MacIntel,60.0024001,6299f149e92ead563fba08ef,62a443d81be75f39da88f0e3,,,,,,,,,,,,,,,,,,,,,,,,,,,,,,,,,,,,,,,,,,,,,,,,,,,,,,,,,,,,,,,,,,,,,,,,,,,,,,,,,,,,,,,,,,,,,,,,,,,,,
,,,,,,1,0,1,0,1,X V Q F H G B L J M P D K C T S W R N Z,5f2046327f613f0e2c89c7dd,24,Kobieta,2022-06-11_09h27.35.692,task,2021.1.4,MacIntel,60.0024001,6299f149e92ead563fba08ef,62a443d81be75f39da88f0e3,,,,,,,,,,,,,,,,,,,,,,,,,,,,,,,,,,,,,,,,,,,,,,,,,,,,,,,,,,,,,,,,,,,,,,,,,,,,,,,,,,,,,,,,,,,,,,,,,,,,,
,,,,,,2,0,2,0,1,X V Q F H G B L J M P D K C T S W R N Z,5f2046327f613f0e2c89c7dd,24,Kobieta,2022-06-11_09h27.35.692,task,2021.1.4,MacIntel,60.0024001,6299f149e92ead563fba08ef,62a443d81be75f39da88f0e3,,,,,,,,,,,,,,,,,,,,,,,,,,,,,,,,,,,,,,,,,,,,,,,,,,,,,,,,,,,,,,,,,,,,,,,,,,,,,,,,,,,,,,,,,,,,,,,,,,,,,
,,,,,,3,0,3,0,1,X V Q F H G B L J M P D K C T S W R N Z,5f2046327f613f0e2c89c7dd,24,Kobieta,2022-06-11_09h27.35.692,task,2021.1.4,MacIntel,60.0024001,6299f149e92ead563fba08ef,62a443d81be75f39da88f0e3,,,,,,,,,,,,,,,,,,,,,,,,,,,,,,,,,,,,,,,,,,,,,,,,,,,,,,,,,,,,,,,,,,,,,,,,,,,,,,,,,,,,,,,,,,,,,,,,,,,,,
,,,,,,4,0,4,0,1,X V Q F H G B L J M P D K C T S W R N Z,5f2046327f613f0e2c89c7dd,24,Kobieta,2022-06-11_09h27.35.692,task,2021.1.4,MacIntel,60.0024001,6299f149e92ead563fba08ef,62a443d81be75f39da88f0e3,,,,,,,,,,,,,,,,,,,,,,,,,,,,,,,,,,,,,,,,,,,,,,,,,,,,,,,,,,,,,,,,,,,,,,,,,,,,,,,,,,,,,,,,,,,,,,,,,,,,,
,,,,,,5,0,5,0,1,X V Q F H G B L J M P D K C T S W R N Z,5f2046327f613f0e2c89c7dd,24,Kobieta,2022-06-11_09h27.35.692,task,2021.1.4,MacIntel,60.0024001,6299f149e92ead563fba08ef,62a443d81be75f39da88f0e3,,,,,,,,,,,,,,,,,,,,,,,,,,,,,,,,,,,,,,,,,,,,,,,,,,,,,,,,,,,,,,,,,,,,,,,,,,,,,,,,,,,,,,,,,,,,,,,,,,,,,
,,,,,,,,,,,,5f2046327f613f0e2c89c7dd,24,Kobieta,2022-06-11_09h27.35.692,task,2021.1.4,MacIntel,60.0024001,6299f149e92ead563fba08ef,62a443d81be75f39da88f0e3,"[""k"",""z"",""h"",""j"",""s""]","[2.747499999999974,3.305499999999995,4.482199999999239,4.716499999999996,5.165699999999248,5.831599999999611]",0,KZXGZS,14,0,14,0,1,kzhjs,,,,,,,,,,,,,,,,,,,,,,,,,,,,,,,,,,,,,,,,,,,,,,,,,,,,,,,,,,,,,,,,,,,,,,,,,,,,,,,,,,,,,,,,,,,
,,,,,,,,,,,,5f2046327f613f0e2c89c7dd,24,Kobieta,2022-06-11_09h27.35.692,task,2021.1.4,MacIntel,60.0024001,6299f149e92ead563fba08ef,62a443d81be75f39da88f0e3,,,,,,,,,,,space,6.1023,1,"[""1""]",0,[12.820700000001096],[12.820700000001096],0,0,0,7,1,Practice,8,(5x5) - 18,7,,,,,,,,,,,,,,,,,,,,,,,,,,,,,,,,,,,,,,,,,,,,,,,,,,,,,,,,,,,,,,,,,,,,,,,,,,,
,,,,,,,,,,,,5f2046327f613f0e2c89c7dd,24,Kobieta,2022-06-11_09h27.35.692,task,2021.1.4,MacIntel,60.0024001,6299f149e92ead563fba08ef,62a443d81be75f39da88f0e3,,,,,,,,,,,,,0,"[""0""]",1,[5.450500000000005],"[12.820700000001096,5.450500000000005]",0,1,1,0,1,Practice,1,(3x3) -  9,0,,,,,,,,,,,,,,,,,,,,,,,,,,,,,,,,,,,,,,,,,,,,,,,,,,,,,,,,,,,,,,,,,,,,,,,,,,,
,,,,,,,,,,,,5f2046327f613f0e2c89c7dd,24,Kobieta,2022-06-11_09h27.35.692,task,2021.1.4,MacIntel,60.0024001,6299f149e92ead563fba08ef,62a443d81be75f39da88f0e3,,,,,,,,,,,,,4,"[""4""]",0,[4.965400000000358],"[12.820700000001096,5.450500000000005,4.965400000000358]",0,2,2,9,1,Practice,10,(20/2) - 1,9,,,,,,,,,,,,,,,,,,,,,,,,,,,,,,,,,,,,,,,,,,,,,,,,,,,,,,,,,,,,,,,,,,,,,,,,,,,
,,,,,,,,,,,,5f2046327f613f0e2c89c7dd,24,Kobieta,2022-06-11_09h27.35.692,task,2021.1.4,MacIntel,60.0024001,6299f149e92ead563fba08ef,62a443d81be75f39da88f0e3,,,,,,,,,,,,,2,"[""2""]",1,[8.664999999999992],"[12.820700000001096,5.450500000000005,4.965400000000358,8.664999999999992]",0,3,3,2,1,Practice,3,(4x4) - 14,2,,,,,,,,,,,,,,,,,,,,,,,,,,,,,,,,,,,,,,,,,,,,,,,,,,,,,,,,,,,,,,,,,,,,,,,,,,,
,,,,,,,,,,,,5f2046327f613f0e2c89c7dd,24,Kobieta,2022-06-11_09h27.35.692,task,2021.1.4,MacIntel,60.0024001,6299f149e92ead563fba08ef,62a443d81be75f39da88f0e3,,,,,,,,,,,,,6,"[""6""]",1,[3.9994999999999834],"[12.820700000001096,5.450500000000005,4.965400000000358,8.664999999999992,3.9994999999999834]",0,4,4,6,1,Practice,7,(25/5) + 1,6,,,,,,,,,,,,,,,,,,,,,,,,,,,,,,,,,,,,,,,,,,,,,,,,,,,,,,,,,,,,,,,,,,,,,,,,,,,
,,,,,,,,,,,,5f2046327f613f0e2c89c7dd,24,Kobieta,2022-06-11_09h27.35.692,task,2021.1.4,MacIntel,60.0024001,6299f149e92ead563fba08ef,62a443d81be75f39da88f0e3,,,,,,,,,,,,,1,"[""1""]",1,[1.964400000000353],"[12.820700000001096,5.450500000000005,4.965400000000358,8.664999999999992,3.9994999999999834,1.964400000000353]",0,5,5,1,1,Practice,2,(4x4) - 15,1,,,,,,,,,,,,,,,,,,,,,,,,,,,,,,,,,,,,,,,,,,,,,,,,,,,,,,,,,,,,,,,,,,,,,,,,,,,
,,,,,,,,,,,,5f2046327f613f0e2c89c7dd,24,Kobieta,2022-06-11_09h27.35.692,task,2021.1.4,MacIntel,60.0024001,6299f149e92ead563fba08ef,62a443d81be75f39da88f0e3,,,,,,,,,,,,,5,"[""5""]",1,[4.766500000000008],"[12.820700000001096,5.450500000000005,4.965400000000358,8.664999999999992,3.9994999999999834,1.964400000000353,4.766500000000008]",0,6,6,5,1,Practice,6,(4/2) + 3,5,,,,,,,,,,,,,,,,,,,,,,,,,,,,,,,,,,,,,,,,,,,,,,,,,,,,,,,,,,,,,,,,,,,,,,,,,,,
,,,,,,,,,,,,5f2046327f613f0e2c89c7dd,24,Kobieta,2022-06-11_09h27.35.692,task,2021.1.4,MacIntel,60.0024001,6299f149e92ead563fba08ef,62a443d81be75f39da88f0e3,,,,,,,,,,,,,3,"[""3""]",1,[3.1978999999984694],"[12.820700000001096,5.450500000000005,4.965400000000358,8.664999999999992,3.9994999999999834,1.964400000000353,4.766500000000008,3.1978999999984694]",0,7,7,3,1,Practice,4,(8/4) + 1,3,,,,,,,,,,,,,,,,,,,,,,,,,,,,,,,,,,,,,,,,,,,,,,,,,,,,,,,,,,,,,,,,,,,,,,,,,,,
,,,,,,,,,,,,5f2046327f613f0e2c89c7dd,24,Kobieta,2022-06-11_09h27.35.692,task,2021.1.4,MacIntel,60.0024001,6299f149e92ead563fba08ef,62a443d81be75f39da88f0e3,,,,,,,,,,,,,8,"[""8""]",1,[1.7832999999988601],"[12.820700000001096,5.450500000000005,4.965400000000358,8.664999999999992,3.9994999999999834,1.964400000000353,4.766500000000008,3.1978999999984694,1.7832999999988601]",0,8,8,8,1,Practice,9,(3x3) - 1,8,,,,,,,,,,,,,,,,,,,,,,,,,,,,,,,,,,,,,,,,,,,,,,,,,,,,,,,,,,,,,,,,,,,,,,,,,,,
,,,,,,,,,,,,5f2046327f613f0e2c89c7dd,24,Kobieta,2022-06-11_09h27.35.692,task,2021.1.4,MacIntel,60.0024001,6299f149e92ead563fba08ef,62a443d81be75f39da88f0e3,,,,,,,,,,,,,4,"[""4""]",1,[5.603299999998853],"[12.820700000001096,5.450500000000005,4.965400000000358,8.664999999999992,3.9994999999999834,1.964400000000353,4.766500000000008,3.1978999999984694,1.7832999999988601,5.603299999998853]",0,9,9,4,1,Practice,5,(2x6) - 8,4,,,,,,,,,,,,,,,,,,,,,,,,,,,,,,,,,,,,,,,,,,,,,,,,,,,,,,,,,,,,,,,,,,,,,,,,,,,
,,,,,,,,,,,,5f2046327f613f0e2c89c7dd,24,Kobieta,2022-06-11_09h27.35.692,task,2021.1.4,MacIntel,60.0024001,6299f149e92ead563fba08ef,62a443d81be75f39da88f0e3,,,,,,,,,,,,,,,,,,,,,,,,,,,0.8,53.2165,3.547766667,129.4608385,2.937809144,11.12731426,space,1.4991,0,0,0,0,1,,,,,,,,,,,,,,,,,,,,,,,,,,,,,,,,,,,,,,,,,,,,,,,,,,,,,,,,,,,,,,
,,,,,,,,,,,,5f2046327f613f0e2c89c7dd,24,Kobieta,2022-06-11_09h27.35.692,task,2021.1.4,MacIntel,60.0024001,6299f149e92ead563fba08ef,62a443d81be75f39da88f0e3,,,,,,,,,,,,,3,,,,,,,,,,Practice,4,(8/4) + 1,3,,,,,,,,,,,,,,space,22.9158,"[""3""]",1,[8.927099999999655],1,0,0,0,3,1,,,,,,,,,,,,,,,,,,,,,,,,,,,,,,,,,,,,,,,,,,,,,,,,,,,
,,,,,,,,,,,X V Q F H G B L J M P D K C T S W R N Z,5f2046327f613f0e2c89c7dd,24,Kobieta,2022-06-11_09h27.35.692,task,2021.1.4,MacIntel,60.0024001,6299f149e92ead563fba08ef,62a443d81be75f39da88f0e3,,,,,,,,,,,,,,,,,,,,,,,,,,,,,,,,,,,,,,,,,,,,,,,,,,,0,0,0,0,1,,,,,,,,,,,,,,,,,,,,,,,,,,,,,,,,,,,,,,,,,,,,,,
,,,,,,,,,,,,5f2046327f613f0e2c89c7dd,24,Kobieta,2022-06-11_09h27.35.692,task,2021.1.4,MacIntel,60.0024001,6299f149e92ead563fba08ef,62a443d81be75f39da88f0e3,,,,,,,,,,,,,4,,,,,,,,,,Practice,10,(20/2) - 1,9,,,,,,,,,,,,,,,,"[""4""]",0,[7.074599999999634],0,0,0,0,9,1,,,,,,,,,,,,,,,,,,,,,,,,,,,,,,,,,,,,,,,,,,,,,,,,,,,
,,,,,,,,,,,,5f2046327f613f0e2c89c7dd,24,Kobieta,2022-06-11_09h27.35.692,task,2021.1.4,MacIntel,60.0024001,6299f149e92ead563fba08ef,62a443d81be75f39da88f0e3,,,,,,,,,,,,,1,,,,,,,,,,Practice,2,(4x4) - 15,1,,,,,,,,,,,,,,,,"[""1""]",1,[2.0655999999996197],1,0,1,1,1,1,,,,,,,,,,,,,,,,,,,,,,,,,,,,,,,,,,,,,,,,,,,,,,,,,,,
,,,,,,,,,,,X V Q F H G B L J M P D K C T S W R N Z,5f2046327f613f0e2c89c7dd,24,Kobieta,2022-06-11_09h27.35.692,task,2021.1.4,MacIntel,60.0024001,6299f149e92ead563fba08ef,62a443d81be75f39da88f0e3,,,,,,,,,,,,,,,,,,,,,,,,,,,,,,,,,,,,,,,,,,,,,,,,,,,1,0,1,0,1,,,,,,,,,,,,,,,,,,,,,,,,,,,,,,,,,,,,,,,,,,,,,,
,,,,,,,,,,,,5f2046327f613f0e2c89c7dd,24,Kobieta,2022-06-11_09h27.35.692,task,2021.1.4,MacIntel,60.0024001,6299f149e92ead563fba08ef,62a443d81be75f39da88f0e3,,,,,,,,,,,,,,,,,,,,,,,,,,,,,,,,,,,,,,,,,,,,,,,,,,,,,,,,zh,"[""z"",""h""]",0,"[2.599900000000389,3.116100000001495,4.316500000000019]",1,0,0,0,0,1,,,,,,,,,,,,,,,,,,,,,,,,,,,,,,,,,,,,
,,,,,,,,,,,,5f2046327f613f0e2c89c7dd,24,Kobieta,2022-06-11_09h27.35.692,task,2021.1.4,MacIntel,60.0024001,6299f149e92ead563fba08ef,62a443d81be75f39da88f0e3,,,,,,,,,,,,,3,,,,,,,,,,Practice,4,(8/4) + 1,3,,,,,,,,,,,,,,,,"[""3""]",1,[3.247000000000014],1,0,0,0,3,1,,,,,,,,,,,,,,,,,,,,,,,,,,,,,,,,,,,,,,,,,,,,,,,,,,,
,,,,,,,,,,,X V Q F H G B L J M P D K C T S W R N Z,5f2046327f613f0e2c89c7dd,24,Kobieta,2022-06-11_09h27.35.692,task,2021.1.4,MacIntel,60.0024001,6299f149e92ead563fba08ef,62a443d81be75f39da88f0e3,,,,,,,,,,,,,,,,,,,,,,,,,,,,,,,,,,,,,,,,,,,,,,,,,,,0,0,0,0,1,,,,,,,,,,,,,,,,,,,,,,,,,,,,,,,,,,,,,,,,,,,,,,
,,,,,,,,,,,,5f2046327f613f0e2c89c7dd,24,Kobieta,2022-06-11_09h27.35.692,task,2021.1.4,MacIntel,60.0024001,6299f149e92ead563fba08ef,62a443d81be75f39da88f0e3,,,,,,,,,,,,,1,,,,,,,,,,Practice,2,(4x4) - 15,1,,,,,,,,,,,,,,,,"[""1""]",1,[2.1340999999995915],1,0,0,0,1,1,,,,,,,,,,,,,,,,,,,,,,,,,,,,,,,,,,,,,,,,,,,,,,,,,,,
,,,,,,,,,,,X V Q F H G B L J M P D K C T S W R N Z,5f2046327f613f0e2c89c7dd,24,Kobieta,2022-06-11_09h27.35.692,task,2021.1.4,MacIntel,60.0024001,6299f149e92ead563fba08ef,62a443d81be75f39da88f0e3,,,,,,,,,,,,,,,,,,,,,,,,,,,,,,,,,,,,,,,,,,,,,,,,,,,1,0,1,0,1,,,,,,,,,,,,,,,,,,,,,,,,,,,,,,,,,,,,,,,,,,,,,,
,,,,,,,,,,,,5f2046327f613f0e2c89c7dd,24,Kobieta,2022-06-11_09h27.35.692,task,2021.1.4,MacIntel,60.0024001,6299f149e92ead563fba08ef,62a443d81be75f39da88f0e3,,,,,,,,,,,,,,,,,,,,,,,,,,,,,,,,,,,,,,,,,,,,,,,,,,,,,,,,zx,"[""z"",""x""]",0,"[1.7335000000000491,2.152300000000764,2.951900000000421]",1,1,0,1,0,1,,,,,,,,,,,,,,,,,,,,,,,,,,,,,,,,,,,,
,,,,,,,,,,,,5f2046327f613f0e2c89c7dd,24,Kobieta,2022-06-11_09h27.35.692,task,2021.1.4,MacIntel,60.0024001,6299f149e92ead563fba08ef,62a443d81be75f39da88f0e3,,,,,,,,,,,,,6,,,,,,,,,,Practice,7,(25/5) + 1,6,,,,,,,,,,,,,,,,"[""6""]",1,[4.597499999999968],1,0,0,0,6,1,,,,,,,,,,,,,,,,,,,,,,,,,,,,,,,,,,,,,,,,,,,,,,,,,,,
,,,,,,,,,,,X V Q F H G B L J M P D K C T S W R N Z,5f2046327f613f0e2c89c7dd,24,Kobieta,2022-06-11_09h27.35.692,task,2021.1.4,MacIntel,60.0024001,6299f149e92ead563fba08ef,62a443d81be75f39da88f0e3,,,,,,,,,,,,,,,,,,,,,,,,,,,,,,,,,,,,,,,,,,,,,,,,,,,0,0,0,0,1,,,,,,,,,,,,,,,,,,,,,,,,,,,,,,,,,,,,,,,,,,,,,,
,,,,,,,,,,,,5f2046327f613f0e2c89c7dd,24,Kobieta,2022-06-11_09h27.35.692,task,2021.1.4,MacIntel,60.0024001,6299f149e92ead563fba08ef,62a443d81be75f39da88f0e3,,,,,,,,,,,,,0,,,,,,,,,,Practice,1,(3x3) -  9,0,,,,,,,,,,,,,,,,"[""0""]",1,[2.197999999999979],1,0,0,0,0,1,,,,,,,,,,,,,,,,,,,,,,,,,,,,,,,,,,,,,,,,,,,,,,,,,,,
,,,,,,,,,,,X V Q F H G B L J M P D K C T S W R N Z,5f2046327f613f0e2c89c7dd,24,Kobieta,2022-06-11_09h27.35.692,task,2021.1.4,MacIntel,60.0024001,6299f149e92ead563fba08ef,62a443d81be75f39da88f0e3,,,,,,,,,,,,,,,,,,,,,,,,,,,,,,,,,,,,,,,,,,,,,,,,,,,1,0,1,0,1,,,,,,,,,,,,,,,,,,,,,,,,,,,,,,,,,,,,,,,,,,,,,,
,,,,,,,,,,,,5f2046327f613f0e2c89c7dd,24,Kobieta,2022-06-11_09h27.35.692,task,2021.1.4,MacIntel,60.0024001,6299f149e92ead563fba08ef,62a443d81be75f39da88f0e3,,,,,,,,,,,,,,,,,,,,,,,,,,,,,,,,,,,,,,,,,,,,,,,,,,,,,,,,zb,"[""z"",""b""]",0,"[1.9324999999999477,2.353900000000351,2.7668000000007282]",1,2,0,2,0,1,,,,,,,,,,,,,,,,,,,,,,,,,,,,,,,,,,,,
,,,,,,,,,,,,5f2046327f613f0e2c89c7dd,24,Kobieta,2022-06-11_09h27.35.692,task,2021.1.4,MacIntel,60.0024001,6299f149e92ead563fba08ef,62a443d81be75f39da88f0e3,,,,,,,,,,,,,4,,,,,,,,,,Task,21,(10/2) - 1,4,,,,,,,,,,,,,,,,,,,1,,,,,,,,,,,,,,,,,,,,,space,8.7831,"[""4""]",1,[2.3068000000007487],0,0,0,20,1,,,,,,,,,,,,,,,,,,,,,,,,,,
,,,,,,,,,,,X V Q F H G B L J M P D K C T S W R N Z,5f2046327f613f0e2c89c7dd,24,Kobieta,2022-06-11_09h27.35.692,task,2021.1.4,MacIntel,60.0024001,6299f149e92ead563fba08ef,62a443d81be75f39da88f0e3,,,,,,,,,,,,,,,,,,,,,,,,,,,,,,,,,,,,,,,,,,,,,,,,,,,,,,,,,,,,,,,,,,,,,,,,,,,,0,0,0,0,1,,,,,,,,,,,,,,,,,,,,,
,,,,,,,,,,,,5f2046327f613f0e2c89c7dd,24,Kobieta,2022-06-11_09h27.35.692,task,2021.1.4,MacIntel,60.0024001,6299f149e92ead563fba08ef,62a443d81be75f39da88f0e3,,,,,,,,,,,,,,,,,,,,,,,Task,35,(1x2) + 1,3,,,,,,,,,,,,,,,,,,,0,,,,,,,,,,,,,,,,,,,,,,,,0,,0,0,0,34,1,,,,,,,,,,,,,,,,,,,,,,,,,,
,,,,,,,,,,,,5f2046327f613f0e2c89c7dd,24,Kobieta,2022-06-11_09h27.35.692,task,2021.1.4,MacIntel,60.0024001,6299f149e92ead563fba08ef,62a443d81be75f39da88f0e3,,,,,,,,,,,,,6,,,,,,,,,,Task,5,(2x3) + 0,6,,,,,,,,,,,,,,,,,,,1,,,,,,,,,,,,,,,,,,,,,,,"[""6""]",1,[4.731499999999983],0,1,1,4,1,,,,,,,,,,,,,,,,,,,,,,,,,,
,,,,,,,,,,,X V Q F H G B L J M P D K C T S W R N Z,5f2046327f613f0e2c89c7dd,24,Kobieta,2022-06-11_09h27.35.692,task,2021.1.4,MacIntel,60.0024001,6299f149e92ead563fba08ef,62a443d81be75f39da88f0e3,,,,,,,,,,,,,,,,,,,,,,,,,,,,,,,,,,,,,,,,,,,,,,,,,,,,,,,,,,,,,,,,,,,,,,,,,,,,1,0,1,0,1,,,,,,,,,,,,,,,,,,,,,
,,,,,,,,,,,,5f2046327f613f0e2c89c7dd,24,Kobieta,2022-06-11_09h27.35.692,task,2021.1.4,MacIntel,60.0024001,6299f149e92ead563fba08ef,62a443d81be75f39da88f0e3,,,,,,,,,,,,,,,,,,,,,,,,,,,,,,,,,,,,,,,,,,,,,,,,,,,,,,,,,,,,,,,,,,,,,,,,,,,,,,,,,zn,"[""z"",""n""]",0,"[4.988399999998535,5.490000000000009,6.101299999998901]",1,ZN,0,0,0,0,1,,,,,,,,,,
,,,,,,,,,,,,5f2046327f613f0e2c89c7dd,24,Kobieta,2022-06-11_09h27.35.692,task,2021.1.4,MacIntel,60.0024001,6299f149e92ead563fba08ef,62a443d81be75f39da88f0e3,,,,,,,,,,,,,4,,,,,,,,,,Task,21,(10/2) - 1,4,,,,,,,,,,,,,,,,,,,1,,,,,,,,,,,,,,,,,,,,,,,"[""4""]",1,[4.565499999999986],0,0,0,20,1,,,,,,,,,,,,,,,,,,,,,,,,,,
,,,,,,,,,,,X V Q F H G B L J M P D K C T S W R N Z,5f2046327f613f0e2c89c7dd,24,Kobieta,2022-06-11_09h27.35.692,task,2021.1.4,MacIntel,60.0024001,6299f149e92ead563fba08ef,62a443d81be75f39da88f0e3,,,,,,,,,,,,,,,,,,,,,,,,,,,,,,,,,,,,,,,,,,,,,,,,,,,,,,,,,,,,,,,,,,,,,,,,,,,,0,0,0,0,1,,,,,,,,,,,,,,,,,,,,,
,,,,,,,,,,,,5f2046327f613f0e2c89c7dd,24,Kobieta,2022-06-11_09h27.35.692,task,2021.1.4,MacIntel,60.0024001,6299f149e92ead563fba08ef,62a443d81be75f39da88f0e3,,,,,,,,,,,,,0,,,,,,,,,,Task,8,(1x5) - 5,0,,,,,,,,,,,,,,,,,,,1,,,,,,,,,,,,,,,,,,,,,,,"[""0""]",1,[5.152599999999609],0,0,0,7,1,,,,,,,,,,,,,,,,,,,,,,,,,,
,,,,,,,,,,,X V Q F H G B L J M P D K C T S W R N Z,5f2046327f613f0e2c89c7dd,24,Kobieta,2022-06-11_09h27.35.692,task,2021.1.4,MacIntel,60.0024001,6299f149e92ead563fba08ef,62a443d81be75f39da88f0e3,,,,,,,,,,,,,,,,,,,,,,,,,,,,,,,,,,,,,,,,,,,,,,,,,,,,,,,,,,,,,,,,,,,,,,,,,,,,1,0,1,0,1,,,,,,,,,,,,,,,,,,,,,
,,,,,,,,,,,,5f2046327f613f0e2c89c7dd,24,Kobieta,2022-06-11_09h27.35.692,task,2021.1.4,MacIntel,60.0024001,6299f149e92ead563fba08ef,62a443d81be75f39da88f0e3,,,,,,,,,,,,,2,,,,,,,,,,Task,26,(2x9) - 16,2,,,,,,,,,,,,,,,,,,,1,,,,,,,,,,,,,,,,,,,,,,,"[""2""]",1,[6.3548000000007505],0,0,0,25,1,,,,,,,,,,,,,,,,,,,,,,,,,,
,,,,,,,,,,,X V Q F H G B L J M P D K C T S W R N Z,5f2046327f613f0e2c89c7dd,24,Kobieta,2022-06-11_09h27.35.692,task,2021.1.4,MacIntel,60.0024001,6299f149e92ead563fba08ef,62a443d81be75f39da88f0e3,,,,,,,,,,,,,,,,,,,,,,,,,,,,,,,,,,,,,,,,,,,,,,,,,,,,,,,,,,,,,,,,,,,,,,,,,,,,2,0,2,0,1,,,,,,,,,,,,,,,,,,,,,
,,,,,,,,,,,,5f2046327f613f0e2c89c7dd,24,Kobieta,2022-06-11_09h27.35.692,task,2021.1.4,MacIntel,60.0024001,6299f149e92ead563fba08ef,62a443d81be75f39da88f0e3,,,,,,,,,,,,,,,,,,,,,,,,,,,,,,,,,,,,,,,,,,,,,,,,,,,,,,,,,,,,,,,,,,,,,,,,,,,,,,,,,wdn,"[""w"",""d"",""n""]",0,"[1.8879000000003998,2.1321999999992727,2.8409000000003743,3.388900000000376]",1,WDN,1,0,1,0,1,,,,,,,,,,
,,,,,,,,,,,,5f2046327f613f0e2c89c7dd,24,Kobieta,2022-06-11_09h27.35.692,task,2021.1.4,MacIntel,60.0024001,6299f149e92ead563fba08ef,62a443d81be75f39da88f0e3,,,,,,,,,,,,,0,,,,,,,,,,Task,33,(1/1) - 1,0,,,,,,,,,,,,,,,,,,,1,,,,,,,,,,,,,,,,,,,,,,,"[""0""]",1,[6.331100000001527],0,0,0,32,1,,,,,,,,,,,,,,,,,,,,,,,,,,
,,,,,,,,,,,X V Q F H G B L J M P D K C T S W R N Z,5f2046327f613f0e2c89c7dd,24,Kobieta,2022-06-11_09h27.35.692,task,2021.1.4,MacIntel,60.0024001,6299f149e92ead563fba08ef,62a443d81be75f39da88f0e3,,,,,,,,,,,,,,,,,,,,,,,,,,,,,,,,,,,,,,,,,,,,,,,,,,,,,,,,,,,,,,,,,,,,,,,,,,,,0,0,0,0,1,,,,,,,,,,,,,,,,,,,,,
,,,,,,,,,,,,5f2046327f613f0e2c89c7dd,24,Kobieta,2022-06-11_09h27.35.692,task,2021.1.4,MacIntel,60.0024001,6299f149e92ead563fba08ef,62a443d81be75f39da88f0e3,,,,,,,,,,,,,4,,,,,,,,,,Task,35,(1x2) + 1,3,,,,,,,,,,,,,,,,,,,0,,,,,,,,,,,,,,,,,,,,,,,"[""4""]",0,[2.5656000000014956],0,0,0,34,1,,,,,,,,,,,,,,,,,,,,,,,,,,
,,,,,,,,,,,,5f2046327f613f0e2c89c7dd,24,Kobieta,2022-06-11_09h27.35.692,task,2021.1.4,MacIntel,60.0024001,6299f149e92ead563fba08ef,62a443d81be75f39da88f0e3,,,,,,,,,,,,,1,,,,,,,,,,Task,31,(4/2) + 5,7,,,,,,,,,,,,,,,,,,,0,,,,,,,,,,,,,,,,,,,,,,,"[""1""]",0,[8.917199999999298],0,1,1,30,1,,,,,,,,,,,,,,,,,,,,,,,,,,
,,,,,,,,,,,,5f2046327f613f0e2c89c7dd,24,Kobieta,2022-06-11_09h27.35.692,task,2021.1.4,MacIntel,60.0024001,6299f149e92ead563fba08ef,62a443d81be75f39da88f0e3,,,,,,,,,,,,,5,,,,,,,,,,Task,12,(4x4) - 11,5,,,,,,,,,,,,,,,,,,,1,,,,,,,,,,,,,,,,,,,,,,,"[""5""]",1,[5.082899999998517],0,2,2,11,1,,,,,,,,,,,,,,,,,,,,,,,,,,
,,,,,,,,,,,X V Q F H G B L J M P D K C T S W R N Z,5f2046327f613f0e2c89c7dd,24,Kobieta,2022-06-11_09h27.35.692,task,2021.1.4,MacIntel,60.0024001,6299f149e92ead563fba08ef,62a443d81be75f39da88f0e3,,,,,,,,,,,,,,,,,,,,,,,,,,,,,,,,,,,,,,,,,,,,,,,,,,,,,,,,,,,,,,,,,,,,,,,,,,,,1,0,1,0,1,,,,,,,,,,,,,,,,,,,,,
,,,,,,,,,,,,5f2046327f613f0e2c89c7dd,24,Kobieta,2022-06-11_09h27.35.692,task,2021.1.4,MacIntel,60.0024001,6299f149e92ead563fba08ef,62a443d81be75f39da88f0e3,,,,,,,,,,,,,3,,,,,,,,,,Task,27,(3/3) + 2,3,,,,,,,,,,,,,,,,,,,1,,,,,,,,,,,,,,,,,,,,,,,"[""3""]",1,[6.3805000000000405],0,0,0,26,1,,,,,,,,,,,,,,,,,,,,,,,,,,
,,,,,,,,,,,X V Q F H G B L J M P D K C T S W R N Z,5f2046327f613f0e2c89c7dd,24,Kobieta,2022-06-11_09h27.35.692,task,2021.1.4,MacIntel,60.0024001,6299f149e92ead563fba08ef,62a443d81be75f39da88f0e3,,,,,,,,,,,,,,,,,,,,,,,,,,,,,,,,,,,,,,,,,,,,,,,,,,,,,,,,,,,,,,,,,,,,,,,,,,,,2,0,2,0,1,,,,,,,,,,,,,,,,,,,,,
,,,,,,,,,,,,5f2046327f613f0e2c89c7dd,24,Kobieta,2022-06-11_09h27.35.692,task,2021.1.4,MacIntel,60.0024001,6299f149e92ead563fba08ef,62a443d81be75f39da88f0e3,,,,,,,,,,,,,0,,,,,,,,,,Task,8,(1x5) - 5,0,,,,,,,,,,,,,,,,,,,1,,,,,,,,,,,,,,,,,,,,,,,"[""0""]",1,[5.564700000001153],0,0,0,7,1,,,,,,,,,,,,,,,,,,,,,,,,,,
,,,,,,,,,,,X V Q F H G B L J M P D K C T S W R N Z,5f2046327f613f0e2c89c7dd,24,Kobieta,2022-06-11_09h27.35.692,task,2021.1.4,MacIntel,60.0024001,6299f149e92ead563fba08ef,62a443d81be75f39da88f0e3,,,,,,,,,,,,,,,,,,,,,,,,,,,,,,,,,,,,,,,,,,,,,,,,,,,,,,,,,,,,,,,,,,,,,,,,,,,,3,0,3,0,1,,,,,,,,,,,,,,,,,,,,,
,,,,,,,,,,,,5f2046327f613f0e2c89c7dd,24,Kobieta,2022-06-11_09h27.35.692,task,2021.1.4,MacIntel,60.0024001,6299f149e92ead563fba08ef,62a443d81be75f39da88f0e3,,,,,,,,,,,,,,,,,,,,,,,,,,,,,,,,,,,,,,,,,,,,,,,,,,,,,,,,,,,,,,,,,,,,,,,,,,,,,,,,,bjkq,"[""b"",""j"",""k"",""q""]",0,"[2.4838000000007696,3.805400000000361,4.072700000001134,4.706200000001104,5.623300000000768]",1,BJKQ,2,0,2,0,1,,,,,,,,,,
,,,,,,,,,,,,5f2046327f613f0e2c89c7dd,24,Kobieta,2022-06-11_09h27.35.692,task,2021.1.4,MacIntel,60.0024001,6299f149e92ead563fba08ef,62a443d81be75f39da88f0e3,,,,,,,,,,,,,,,,,,,,,,,Task,11,(18/3) - 2,4,,,,,,,,,,,,,,,,,,,0,,,,,,,,,,,,,,,,,,,,,,,,0,,0,0,0,10,1,,,,,,,,,,,,,,,,,,,,,,,,,,
,,,,,,,,,,,,5f2046327f613f0e2c89c7dd,24,Kobieta,2022-06-11_09h27.35.692,task,2021.1.4,MacIntel,60.0024001,6299f149e92ead563fba08ef,62a443d81be75f39da88f0e3,,,,,,,,,,,,,6,,,,,,,,,,Task,30,(6/3) + 4 ,6,,,,,,,,,,,,,,,,,,,1,,,,,,,,,,,,,,,,,,,,,,,"[""6""]",1,[6.81890000000044],0,1,1,29,1,,,,,,,,,,,,,,,,,,,,,,,,,,
,,,,,,,,,,,X V Q F H G B L J M P D K C T S W R N Z,5f2046327f613f0e2c89c7dd,24,Kobieta,2022-06-11_09h27.35.692,task,2021.1.4,MacIntel,60.0024001,6299f149e92ead563fba08ef,62a443d81be75f39da88f0e3,,,,,,,,,,,,,,,,,,,,,,,,,,,,,,,,,,,,,,,,,,,,,,,,,,,,,,,,,,,,,,,,,,,,,,,,,,,,0,0,0,0,1,,,,,,,,,,,,,,,,,,,,,
,,,,,,,,,,,,5f2046327f613f0e2c89c7dd,24,Kobieta,2022-06-11_09h27.35.692,task,2021.1.4,MacIntel,60.0024001,6299f149e92ead563fba08ef,62a443d81be75f39da88f0e3,,,,,,,,,,,,,5,,,,,,,,,,Task,22,(3x1) + 2,5,,,,,,,,,,,,,,,,,,,1,,,,,,,,,,,,,,,,,,,,,,,"[""5""]",1,[2.8051999999992745],0,0,0,21,1,,,,,,,,,,,,,,,,,,,,,,,,,,
,,,,,,,,,,,X V Q F H G B L J M P D K C T S W R N Z,5f2046327f613f0e2c89c7dd,24,Kobieta,2022-06-11_09h27.35.692,task,2021.1.4,MacIntel,60.0024001,6299f149e92ead563fba08ef,62a443d81be75f39da88f0e3,,,,,,,,,,,,,,,,,,,,,,,,,,,,,,,,,,,,,,,,,,,,,,,,,,,,,,,,,,,,,,,,,,,,,,,,,,,,1,0,1,0,1,,,,,,,,,,,,,,,,,,,,,
,,,,,,,,,,,,5f2046327f613f0e2c89c7dd,24,Kobieta,2022-06-11_09h27.35.692,task,2021.1.4,MacIntel,60.0024001,6299f149e92ead563fba08ef,62a443d81be75f39da88f0e3,,,,,,,,,,,,,1,,,,,,,,,,Task,1,(12/6) - 1,1,,,,,,,,,,,,,,,,,,,1,,,,,,,,,,,,,,,,,,,,,,,"[""1""]",1,[4.864699999999175],0,0,0,0,1,,,,,,,,,,,,,,,,,,,,,,,,,,
,,,,,,,,,,,X V Q F H G B L J M P D K C T S W R N Z,5f2046327f613f0e2c89c7dd,24,Kobieta,2022-06-11_09h27.35.692,task,2021.1.4,MacIntel,60.0024001,6299f149e92ead563fba08ef,62a443d81be75f39da88f0e3,,,,,,,,,,,,,,,,,,,,,,,,,,,,,,,,,,,,,,,,,,,,,,,,,,,,,,,,,,,,,,,,,,,,,,,,,,,,2,0,2,0,1,,,,,,,,,,,,,,,,,,,,,
,,,,,,,,,,,,5f2046327f613f0e2c89c7dd,24,Kobieta,2022-06-11_09h27.35.692,task,2021.1.4,MacIntel,60.0024001,6299f149e92ead563fba08ef,62a443d81be75f39da88f0e3,,,,,,,,,,,,,6,,,,,,,,,,Task,37,(3/3) + 5,6,,,,,,,,,,,,,,,,,,,1,,,,,,,,,,,,,,,,,,,,,,,"[""6""]",1,[4.2864000000004125],0,0,0,36,1,,,,,,,,,,,,,,,,,,,,,,,,,,
,,,,,,,,,,,X V Q F H G B L J M P D K C T S W R N Z,5f2046327f613f0e2c89c7dd,24,Kobieta,2022-06-11_09h27.35.692,task,2021.1.4,MacIntel,60.0024001,6299f149e92ead563fba08ef,62a443d81be75f39da88f0e3,,,,,,,,,,,,,,,,,,,,,,,,,,,,,,,,,,,,,,,,,,,,,,,,,,,,,,,,,,,,,,,,,,,,,,,,,,,,3,0,3,0,1,,,,,,,,,,,,,,,,,,,,,
,,,,,,,,,,,,5f2046327f613f0e2c89c7dd,24,Kobieta,2022-06-11_09h27.35.692,task,2021.1.4,MacIntel,60.0024001,6299f149e92ead563fba08ef,62a443d81be75f39da88f0e3,,,,,,,,,,,,,8,,,,,,,,,,Task,23,(2x3) + 2,8,,,,,,,,,,,,,,,,,,,1,,,,,,,,,,,,,,,,,,,,,,,"[""8""]",1,[3.9821000000015374],0,0,0,22,1,,,,,,,,,,,,,,,,,,,,,,,,,,
,,,,,,,,,,,X V Q F H G B L J M P D K C T S W R N Z,5f2046327f613f0e2c89c7dd,24,Kobieta,2022-06-11_09h27.35.692,task,2021.1.4,MacIntel,60.0024001,6299f149e92ead563fba08ef,62a443d81be75f39da88f0e3,,,,,,,,,,,,,,,,,,,,,,,,,,,,,,,,,,,,,,,,,,,,,,,,,,,,,,,,,,,,,,,,,,,,,,,,,,,,4,0,4,0,1,,,,,,,,,,,,,,,,,,,,,
,,,,,,,,,,,,5f2046327f613f0e2c89c7dd,24,Kobieta,2022-06-11_09h27.35.692,task,2021.1.4,MacIntel,60.0024001,6299f149e92ead563fba08ef,62a443d81be75f39da88f0e3,,,,,,,,,,,,,,,,,,,,,,,,,,,,,,,,,,,,,,,,,,,,,,,,,,,,,,,,,,,,,,,,,,,,,,,,,,,,,,,,,jmmql,"[""j"",""m"",""m"",""q"",""l""]",0,"[2.353300000000786,3.182900000000359,3.4669000000004644,4.354000000000042,5.105300000000739,5.687099999999646]",1,JMMQL,3,0,3,0,1,,,,,,,,,,
,,,,,,,,,,,,5f2046327f613f0e2c89c7dd,24,Kobieta,2022-06-11_09h27.35.692,task,2021.1.4,MacIntel,60.0024001,6299f149e92ead563fba08ef,62a443d81be75f39da88f0e3,,,,,,,,,,,,,6,,,,,,,,,,Task,5,(2x3) + 0,6,,,,,,,,,,,,,,,,,,,1,,,,,,,,,,,,,,,,,,,,,,,"[""6""]",1,[2.8724000000003116],0,0,0,4,1,,,,,,,,,,,,,,,,,,,,,,,,,,
,,,,,,,,,,,X V Q F H G B L J M P D K C T S W R N Z,5f2046327f613f0e2c89c7dd,24,Kobieta,2022-06-11_09h27.35.692,task,2021.1.4,MacIntel,60.0024001,6299f149e92ead563fba08ef,62a443d81be75f39da88f0e3,,,,,,,,,,,,,,,,,,,,,,,,,,,,,,,,,,,,,,,,,,,,,,,,,,,,,,,,,,,,,,,,,,,,,,,,,,,,0,0,0,0,1,,,,,,,,,,,,,,,,,,,,,
,,,,,,,,,,,,5f2046327f613f0e2c89c7dd,24,Kobieta,2022-06-11_09h27.35.692,task,2021.1.4,MacIntel,60.0024001,6299f149e92ead563fba08ef,62a443d81be75f39da88f0e3,,,,,,,,,,,,,2,,,,,,,,,,Task,10,(2x5) - 8,2,,,,,,,,,,,,,,,,,,,1,,,,,,,,,,,,,,,,,,,,,,,"[""2""]",1,[2.530800000000795],0,0,0,9,1,,,,,,,,,,,,,,,,,,,,,,,,,,
,,,,,,,,,,,X V Q F H G B L J M P D K C T S W R N Z,5f2046327f613f0e2c89c7dd,24,Kobieta,2022-06-11_09h27.35.692,task,2021.1.4,MacIntel,60.0024001,6299f149e92ead563fba08ef,62a443d81be75f39da88f0e3,,,,,,,,,,,,,,,,,,,,,,,,,,,,,,,,,,,,,,,,,,,,,,,,,,,,,,,,,,,,,,,,,,,,,,,,,,,,1,0,1,0,1,,,,,,,,,,,,,,,,,,,,,
,,,,,,,,,,,,5f2046327f613f0e2c89c7dd,24,Kobieta,2022-06-11_09h27.35.692,task,2021.1.4,MacIntel,60.0024001,6299f149e92ead563fba08ef,62a443d81be75f39da88f0e3,,,,,,,,,,,,,2,,,,,,,,,,Task,19,(6/2) - 1,2,,,,,,,,,,,,,,,,,,,1,,,,,,,,,,,,,,,,,,,,,,,"[""2""]",1,[3.3823000000007823],0,0,0,18,1,,,,,,,,,,,,,,,,,,,,,,,,,,
,,,,,,,,,,,X V Q F H G B L J M P D K C T S W R N Z,5f2046327f613f0e2c89c7dd,24,Kobieta,2022-06-11_09h27.35.692,task,2021.1.4,MacIntel,60.0024001,6299f149e92ead563fba08ef,62a443d81be75f39da88f0e3,,,,,,,,,,,,,,,,,,,,,,,,,,,,,,,,,,,,,,,,,,,,,,,,,,,,,,,,,,,,,,,,,,,,,,,,,,,,2,0,2,0,1,,,,,,,,,,,,,,,,,,,,,
,,,,,,,,,,,,5f2046327f613f0e2c89c7dd,24,Kobieta,2022-06-11_09h27.35.692,task,2021.1.4,MacIntel,60.0024001,6299f149e92ead563fba08ef,62a443d81be75f39da88f0e3,,,,,,,,,,,,,4,,,,,,,,,,Task,11,(18/3) - 2,4,,,,,,,,,,,,,,,,,,,1,,,,,,,,,,,,,,,,,,,,,,,"[""4""]",1,[6.971199999999271],0,0,0,10,1,,,,,,,,,,,,,,,,,,,,,,,,,,
,,,,,,,,,,,X V Q F H G B L J M P D K C T S W R N Z,5f2046327f613f0e2c89c7dd,24,Kobieta,2022-06-11_09h27.35.692,task,2021.1.4,MacIntel,60.0024001,6299f149e92ead563fba08ef,62a443d81be75f39da88f0e3,,,,,,,,,,,,,,,,,,,,,,,,,,,,,,,,,,,,,,,,,,,,,,,,,,,,,,,,,,,,,,,,,,,,,,,,,,,,3,0,3,0,1,,,,,,,,,,,,,,,,,,,,,
,,,,,,,,,,,,5f2046327f613f0e2c89c7dd,24,Kobieta,2022-06-11_09h27.35.692,task,2021.1.4,MacIntel,60.0024001,6299f149e92ead563fba08ef,62a443d81be75f39da88f0e3,,,,,,,,,,,,,9,,,,,,,,,,Task,7,(3x7) - 12,9,,,,,,,,,,,,,,,,,,,1,,,,,,,,,,,,,,,,,,,,,,,"[""9""]",1,[8.805700000001025],0,0,0,6,1,,,,,,,,,,,,,,,,,,,,,,,,,,
,,,,,,,,,,,X V Q F H G B L J M P D K C T S W R N Z,5f2046327f613f0e2c89c7dd,24,Kobieta,2022-06-11_09h27.35.692,task,2021.1.4,MacIntel,60.0024001,6299f149e92ead563fba08ef,62a443d81be75f39da88f0e3,,,,,,,,,,,,,,,,,,,,,,,,,,,,,,,,,,,,,,,,,,,,,,,,,,,,,,,,,,,,,,,,,,,,,,,,,,,,4,0,4,0,1,,,,,,,,,,,,,,,,,,,,,
,,,,,,,,,,,,5f2046327f613f0e2c89c7dd,24,Kobieta,2022-06-11_09h27.35.692,task,2021.1.4,MacIntel,60.0024001,6299f149e92ead563fba08ef,62a443d81be75f39da88f0e3,,,,,,,,,,,,,6,,,,,,,,,,Task,5,(2x3) + 0,6,,,,,,,,,,,,,,,,,,,1,,,,,,,,,,,,,,,,,,,,,,,"[""6""]",1,[2.664800000000696],0,0,0,4,1,,,,,,,,,,,,,,,,,,,,,,,,,,
,,,,,,,,,,,X V Q F H G B L J M P D K C T S W R N Z,5f2046327f613f0e2c89c7dd,24,Kobieta,2022-06-11_09h27.35.692,task,2021.1.4,MacIntel,60.0024001,6299f149e92ead563fba08ef,62a443d81be75f39da88f0e3,,,,,,,,,,,,,,,,,,,,,,,,,,,,,,,,,,,,,,,,,,,,,,,,,,,,,,,,,,,,,,,,,,,,,,,,,,,,5,0,5,0,1,,,,,,,,,,,,,,,,,,,,,
,,,,,,,,,,,,5f2046327f613f0e2c89c7dd,24,Kobieta,2022-06-11_09h27.35.692,task,2021.1.4,MacIntel,60.0024001,6299f149e92ead563fba08ef,62a443d81be75f39da88f0e3,,,,,,,,,,,,,,,,,,,,,,,,,,,,,,,,,,,,,,,,,,,,,,,,,,,,,,,,,,,,,,,,,,,,,,,,,,,,,,,,,krcvkd,"[""k"",""r"",""c"",""v"",""k"",""d""]",0,"[1.983799999998837,3.5335999999996375,3.923399999998537,5.6995999999995774,6.200299999998833,6.68829999999889,9.151399999998489]",1,KRCVKD,4,0,4,0,1,,,,,,,,,,
,,,,,,,,,,,,5f2046327f613f0e2c89c7dd,24,Kobieta,2022-06-11_09h27.35.692,task,2021.1.4,MacIntel,60.0024001,6299f149e92ead563fba08ef,62a443d81be75f39da88f0e3,,,,,,,,,,,,,5,,,,,,,,,,Task,12,(4x4) - 11,5,,,,,,,,,,,,,,,,,,,1,,,,,,,,,,,,,,,,,,,,,,,"[""5""]",1,[2.8824999999999363],0,0,0,11,1,,,,,,,,,,,,,,,,,,,,,,,,,,
,,,,,,,,,,,X V Q F H G B L J M P D K C T S W R N Z,5f2046327f613f0e2c89c7dd,24,Kobieta,2022-06-11_09h27.35.692,task,2021.1.4,MacIntel,60.0024001,6299f149e92ead563fba08ef,62a443d81be75f39da88f0e3,,,,,,,,,,,,,,,,,,,,,,,,,,,,,,,,,,,,,,,,,,,,,,,,,,,,,,,,,,,,,,,,,,,,,,,,,,,,0,0,0,0,1,,,,,,,,,,,,,,,,,,,,,
,,,,,,,,,,,,5f2046327f613f0e2c89c7dd,24,Kobieta,2022-06-11_09h27.35.692,task,2021.1.4,MacIntel,60.0024001,6299f149e92ead563fba08ef,62a443d81be75f39da88f0e3,,,,,,,,,,,,,3,,,,,,,,,,Task,27,(3/3) + 2,3,,,,,,,,,,,,,,,,,,,1,,,,,,,,,,,,,,,,,,,,,,,"[""3""]",1,[5.295799999998849],0,0,0,26,1,,,,,,,,,,,,,,,,,,,,,,,,,,
,,,,,,,,,,,X V Q F H G B L J M P D K C T S W R N Z,5f2046327f613f0e2c89c7dd,24,Kobieta,2022-06-11_09h27.35.692,task,2021.1.4,MacIntel,60.0024001,6299f149e92ead563fba08ef,62a443d81be75f39da88f0e3,,,,,,,,,,,,,,,,,,,,,,,,,,,,,,,,,,,,,,,,,,,,,,,,,,,,,,,,,,,,,,,,,,,,,,,,,,,,1,0,1,0,1,,,,,,,,,,,,,,,,,,,,,
,,,,,,,,,,,,5f2046327f613f0e2c89c7dd,24,Kobieta,2022-06-11_09h27.35.692,task,2021.1.4,MacIntel,60.0024001,6299f149e92ead563fba08ef,62a443d81be75f39da88f0e3,,,,,,,,,,,,,0,,,,,,,,,,Task,33,(1/1) - 1,0,,,,,,,,,,,,,,,,,,,1,,,,,,,,,,,,,,,,,,,,,,,"[""0""]",1,[2.4139999999999873],0,0,0,32,1,,,,,,,,,,,,,,,,,,,,,,,,,,
,,,,,,,,,,,X V Q F H G B L J M P D K C T S W R N Z,5f2046327f613f0e2c89c7dd,24,Kobieta,2022-06-11_09h27.35.692,task,2021.1.4,MacIntel,60.0024001,6299f149e92ead563fba08ef,62a443d81be75f39da88f0e3,,,,,,,,,,,,,,,,,,,,,,,,,,,,,,,,,,,,,,,,,,,,,,,,,,,,,,,,,,,,,,,,,,,,,,,,,,,,2,0,2,0,1,,,,,,,,,,,,,,,,,,,,,
,,,,,,,,,,,,5f2046327f613f0e2c89c7dd,24,Kobieta,2022-06-11_09h27.35.692,task,2021.1.4,MacIntel,60.0024001,6299f149e92ead563fba08ef,62a443d81be75f39da88f0e3,,,,,,,,,,,,,,,,,,,,,,,Task,16,(3x8) - 15,9,,,,,,,,,,,,,,,,,,,0,,,,,,,,,,,,,,,,,,,,,,,,0,,0,0,0,15,1,,,,,,,,,,,,,,,,,,,,,,,,,,
,,,,,,,,,,,,5f2046327f613f0e2c89c7dd,24,Kobieta,2022-06-11_09h27.35.692,task,2021.1.4,MacIntel,60.0024001,6299f149e92ead563fba08ef,62a443d81be75f39da88f0e3,,,,,,,,,,,,,9,,,,,,,,,,Task,7,(3x7) - 12,9,,,,,,,,,,,,,,,,,,,1,,,,,,,,,,,,,,,,,,,,,,,"[""9""]",1,[5.614800000000741],0,1,1,6,1,,,,,,,,,,,,,,,,,,,,,,,,,,
,,,,,,,,,,,X V Q F H G B L J M P D K C T S W R N Z,5f2046327f613f0e2c89c7dd,24,Kobieta,2022-06-11_09h27.35.692,task,2021.1.4,MacIntel,60.0024001,6299f149e92ead563fba08ef,62a443d81be75f39da88f0e3,,,,,,,,,,,,,,,,,,,,,,,,,,,,,,,,,,,,,,,,,,,,,,,,,,,,,,,,,,,,,,,,,,,,,,,,,,,,3,0,3,0,1,,,,,,,,,,,,,,,,,,,,,
,,,,,,,,,,,,5f2046327f613f0e2c89c7dd,24,Kobieta,2022-06-11_09h27.35.692,task,2021.1.4,MacIntel,60.0024001,6299f149e92ead563fba08ef,62a443d81be75f39da88f0e3,,,,,,,,,,,,,1,,,,,,,,,,Task,9,(3x7) - 20,1,,,,,,,,,,,,,,,,,,,1,,,,,,,,,,,,,,,,,,,,,,,"[""1""]",1,[2.93289999999854],0,0,0,8,1,,,,,,,,,,,,,,,,,,,,,,,,,,
,,,,,,,,,,,X V Q F H G B L J M P D K C T S W R N Z,5f2046327f613f0e2c89c7dd,24,Kobieta,2022-06-11_09h27.35.692,task,2021.1.4,MacIntel,60.0024001,6299f149e92ead563fba08ef,62a443d81be75f39da88f0e3,,,,,,,,,,,,,,,,,,,,,,,,,,,,,,,,,,,,,,,,,,,,,,,,,,,,,,,,,,,,,,,,,,,,,,,,,,,,4,0,4,0,1,,,,,,,,,,,,,,,,,,,,,
,,,,,,,,,,,,5f2046327f613f0e2c89c7dd,24,Kobieta,2022-06-11_09h27.35.692,task,2021.1.4,MacIntel,60.0024001,6299f149e92ead563fba08ef,62a443d81be75f39da88f0e3,,,,,,,,,,,,,0,,,,,,,,,,Task,17,(2x3) - 6,0,,,,,,,,,,,,,,,,,,,1,,,,,,,,,,,,,,,,,,,,,,,"[""0""]",1,[1.7462999999988824],0,0,0,16,1,,,,,,,,,,,,,,,,,,,,,,,,,,
,,,,,,,,,,,X V Q F H G B L J M P D K C T S W R N Z,5f2046327f613f0e2c89c7dd,24,Kobieta,2022-06-11_09h27.35.692,task,2021.1.4,MacIntel,60.0024001,6299f149e92ead563fba08ef,62a443d81be75f39da88f0e3,,,,,,,,,,,,,,,,,,,,,,,,,,,,,,,,,,,,,,,,,,,,,,,,,,,,,,,,,,,,,,,,,,,,,,,,,,,,5,0,5,0,1,,,,,,,,,,,,,,,,,,,,,
,,,,,,,,,,,,5f2046327f613f0e2c89c7dd,24,Kobieta,2022-06-11_09h27.35.692,task,2021.1.4,MacIntel,60.0024001,6299f149e92ead563fba08ef,62a443d81be75f39da88f0e3,,,,,,,,,,,,,6,,,,,,,,,,Task,13,(3x4) - 6,6,,,,,,,,,,,,,,,,,,,1,,,,,,,,,,,,,,,,,,,,,,,"[""6""]",1,[6.520599999999604],0,0,0,12,1,,,,,,,,,,,,,,,,,,,,,,,,,,
,,,,,,,,,,,X V Q F H G B L J M P D K C T S W R N Z,5f2046327f613f0e2c89c7dd,24,Kobieta,2022-06-11_09h27.35.692,task,2021.1.4,MacIntel,60.0024001,6299f149e92ead563fba08ef,62a443d81be75f39da88f0e3,,,,,,,,,,,,,,,,,,,,,,,,,,,,,,,,,,,,,,,,,,,,,,,,,,,,,,,,,,,,,,,,,,,,,,,,,,,,6,0,6,0,1,,,,,,,,,,,,,,,,,,,,,
,,,,,,,,,,,,5f2046327f613f0e2c89c7dd,24,Kobieta,2022-06-11_09h27.35.692,task,2021.1.4,MacIntel,60.0024001,6299f149e92ead563fba08ef,62a443d81be75f39da88f0e3,,,,,,,,,,,,,,,,,,,,,,,,,,,,,,,,,,,,,,,,,,,,,,,,,,,,,,,,,,,,,,,,,,,,,,,,,,,,,,,,,qcrjhcd,"[""q"",""c"",""r"",""j"",""h"",""c"",""d""]",0,"[2.8684000000002925,3.3673000000006823,3.734800000000746,5.906099999999583,7.652599999999552,8.006999999999948,8.500699999999256,9.819999999999936]",1,QCRJHCD,5,0,5,0,1,,,,,,,,,,
,,,,,,,,,,,,5f2046327f613f0e2c89c7dd,24,Kobieta,2022-06-11_09h27.35.692,task,2021.1.4,MacIntel,60.0024001,6299f149e92ead563fba08ef,62a443d81be75f39da88f0e3,,,,,,,,,,,,,9,,,,,,,,,,Task,24,(2x2) + 5,9,,,,,,,,,,,,,,,,,,,1,,,,,,,,,,,,,,,,,,,,,,,"[""9""]",1,[2.986099999999624],0,0,0,23,1,,,,,,,,,,,,,,,,,,,,,,,,,,
,,,,,,,,,,,X V Q F H G B L J M P D K C T S W R N Z,5f2046327f613f0e2c89c7dd,24,Kobieta,2022-06-11_09h27.35.692,task,2021.1.4,MacIntel,60.0024001,6299f149e92ead563fba08ef,62a443d81be75f39da88f0e3,,,,,,,,,,,,,,,,,,,,,,,,,,,,,,,,,,,,,,,,,,,,,,,,,,,,,,,,,,,,,,,,,,,,,,,,,,,,0,0,0,0,1,,,,,,,,,,,,,,,,,,,,,
,,,,,,,,,,,,5f2046327f613f0e2c89c7dd,24,Kobieta,2022-06-11_09h27.35.692,task,2021.1.4,MacIntel,60.0024001,6299f149e92ead563fba08ef,62a443d81be75f39da88f0e3,,,,,,,,,,,,,5,,,,,,,,,,Task,29,(3x8) - 19 ,5,,,,,,,,,,,,,,,,,,,1,,,,,,,,,,,,,,,,,,,,,,,"[""5""]",1,[7.313699999999244],0,0,0,28,1,,,,,,,,,,,,,,,,,,,,,,,,,,
,,,,,,,,,,,X V Q F H G B L J M P D K C T S W R N Z,5f2046327f613f0e2c89c7dd,24,Kobieta,2022-06-11_09h27.35.692,task,2021.1.4,MacIntel,60.0024001,6299f149e92ead563fba08ef,62a443d81be75f39da88f0e3,,,,,,,,,,,,,,,,,,,,,,,,,,,,,,,,,,,,,,,,,,,,,,,,,,,,,,,,,,,,,,,,,,,,,,,,,,,,1,0,1,0,1,,,,,,,,,,,,,,,,,,,,,
,,,,,,,,,,,,5f2046327f613f0e2c89c7dd,24,Kobieta,2022-06-11_09h27.35.692,task,2021.1.4,MacIntel,60.0024001,6299f149e92ead563fba08ef,62a443d81be75f39da88f0e3,,,,,,,,,,,,,7,,,,,,,,,,Task,6,(12/2) + 1,7,,,,,,,,,,,,,,,,,,,1,,,,,,,,,,,,,,,,,,,,,,,"[""7""]",1,[3.0288000000007287],0,0,0,5,1,,,,,,,,,,,,,,,,,,,,,,,,,,
,,,,,,,,,,,X V Q F H G B L J M P D K C T S W R N Z,5f2046327f613f0e2c89c7dd,24,Kobieta,2022-06-11_09h27.35.692,task,2021.1.4,MacIntel,60.0024001,6299f149e92ead563fba08ef,62a443d81be75f39da88f0e3,,,,,,,,,,,,,,,,,,,,,,,,,,,,,,,,,,,,,,,,,,,,,,,,,,,,,,,,,,,,,,,,,,,,,,,,,,,,2,0,2,0,1,,,,,,,,,,,,,,,,,,,,,
,,,,,,,,,,,,5f2046327f613f0e2c89c7dd,24,Kobieta,2022-06-11_09h27.35.692,task,2021.1.4,MacIntel,60.0024001,6299f149e92ead563fba08ef,62a443d81be75f39da88f0e3,,,,,,,,,,,,,5,,,,,,,,,,Task,29,(3x8) - 19 ,5,,,,,,,,,,,,,,,,,,,1,,,,,,,,,,,,,,,,,,,,,,,"[""5""]",1,[9.18210000000147],0,0,0,28,1,,,,,,,,,,,,,,,,,,,,,,,,,,
,,,,,,,,,,,X V Q F H G B L J M P D K C T S W R N Z,5f2046327f613f0e2c89c7dd,24,Kobieta,2022-06-11_09h27.35.692,task,2021.1.4,MacIntel,60.0024001,6299f149e92ead563fba08ef,62a443d81be75f39da88f0e3,,,,,,,,,,,,,,,,,,,,,,,,,,,,,,,,,,,,,,,,,,,,,,,,,,,,,,,,,,,,,,,,,,,,,,,,,,,,3,0,3,0,1,,,,,,,,,,,,,,,,,,,,,
,,,,,,,,,,,,5f2046327f613f0e2c89c7dd,24,Kobieta,2022-06-11_09h27.35.692,task,2021.1.4,MacIntel,60.0024001,6299f149e92ead563fba08ef,62a443d81be75f39da88f0e3,,,,,,,,,,,,,5,,,,,,,,,,Task,7,(3x7) - 12,9,,,,,,,,,,,,,,,,,,,0,,,,,,,,,,,,,,,,,,,,,,,"[""5""]",0,[2.950900000000388],0,0,0,6,1,,,,,,,,,,,,,,,,,,,,,,,,,,
,,,,,,,,,,,,5f2046327f613f0e2c89c7dd,24,Kobieta,2022-06-11_09h27.35.692,task,2021.1.4,MacIntel,60.0024001,6299f149e92ead563fba08ef,62a443d81be75f39da88f0e3,,,,,,,,,,,,,8,,,,,,,,,,Task,32,(8/2) + 4,8,,,,,,,,,,,,,,,,,,,1,,,,,,,,,,,,,,,,,,,,,,,"[""8""]",1,[2.9330999999996266],0,1,1,31,1,,,,,,,,,,,,,,,,,,,,,,,,,,
,,,,,,,,,,,X V Q F H G B L J M P D K C T S W R N Z,5f2046327f613f0e2c89c7dd,24,Kobieta,2022-06-11_09h27.35.692,task,2021.1.4,MacIntel,60.0024001,6299f149e92ead563fba08ef,62a443d81be75f39da88f0e3,,,,,,,,,,,,,,,,,,,,,,,,,,,,,,,,,,,,,,,,,,,,,,,,,,,,,,,,,,,,,,,,,,,,,,,,,,,,4,0,4,0,1,,,,,,,,,,,,,,,,,,,,,
,,,,,,,,,,,,5f2046327f613f0e2c89c7dd,24,Kobieta,2022-06-11_09h27.35.692,task,2021.1.4,MacIntel,60.0024001,6299f149e92ead563fba08ef,62a443d81be75f39da88f0e3,,,,,,,,,,,,,5,,,,,,,,,,Task,29,(3x8) - 19 ,5,,,,,,,,,,,,,,,,,,,1,,,,,,,,,,,,,,,,,,,,,,,"[""5""]",1,[4.865000000000009],0,0,0,28,1,,,,,,,,,,,,,,,,,,,,,,,,,,
,,,,,,,,,,,X V Q F H G B L J M P D K C T S W R N Z,5f2046327f613f0e2c89c7dd,24,Kobieta,2022-06-11_09h27.35.692,task,2021.1.4,MacIntel,60.0024001,6299f149e92ead563fba08ef,62a443d81be75f39da88f0e3,,,,,,,,,,,,,,,,,,,,,,,,,,,,,,,,,,,,,,,,,,,,,,,,,,,,,,,,,,,,,,,,,,,,,,,,,,,,5,0,5,0,1,,,,,,,,,,,,,,,,,,,,,
,,,,,,,,,,,,5f2046327f613f0e2c89c7dd,24,Kobieta,2022-06-11_09h27.35.692,task,2021.1.4,MacIntel,60.0024001,6299f149e92ead563fba08ef,62a443d81be75f39da88f0e3,,,,,,,,,,,,,9,,,,,,,,,,Task,24,(2x2) + 5,9,,,,,,,,,,,,,,,,,,,1,,,,,,,,,,,,,,,,,,,,,,,"[""9""]",1,[1.8550000000000182],0,0,0,23,1,,,,,,,,,,,,,,,,,,,,,,,,,,
,,,,,,,,,,,X V Q F H G B L J M P D K C T S W R N Z,5f2046327f613f0e2c89c7dd,24,Kobieta,2022-06-11_09h27.35.692,task,2021.1.4,MacIntel,60.0024001,6299f149e92ead563fba08ef,62a443d81be75f39da88f0e3,,,,,,,,,,,,,,,,,,,,,,,,,,,,,,,,,,,,,,,,,,,,,,,,,,,,,,,,,,,,,,,,,,,,,,,,,,,,6,0,6,0,1,,,,,,,,,,,,,,,,,,,,,
,,,,,,,,,,,,5f2046327f613f0e2c89c7dd,24,Kobieta,2022-06-11_09h27.35.692,task,2021.1.4,MacIntel,60.0024001,6299f149e92ead563fba08ef,62a443d81be75f39da88f0e3,,,,,,,,,,,,,1,,,,,,,,,,Task,34,(9/3) - 2,1,,,,,,,,,,,,,,,,,,,1,,,,,,,,,,,,,,,,,,,,,,,"[""1""]",1,[3.151300000000674],0,0,0,33,1,,,,,,,,,,,,,,,,,,,,,,,,,,
,,,,,,,,,,,X V Q F H G B L J M P D K C T S W R N Z,5f2046327f613f0e2c89c7dd,24,Kobieta,2022-06-11_09h27.35.692,task,2021.1.4,MacIntel,60.0024001,6299f149e92ead563fba08ef,62a443d81be75f39da88f0e3,,,,,,,,,,,,,,,,,,,,,,,,,,,,,,,,,,,,,,,,,,,,,,,,,,,,,,,,,,,,,,,,,,,,,,,,,,,,7,0,7,0,1,,,,,,,,,,,,,,,,,,,,,
,,,,,,,,,,,,5f2046327f613f0e2c89c7dd,24,Kobieta,2022-06-11_09h27.35.692,task,2021.1.4,MacIntel,60.0024001,6299f149e92ead563fba08ef,62a443d81be75f39da88f0e3,,,,,,,,,,,,,,,,,,,,,,,,,,,,,,,,,,,,,,,,,,,,,,,,,,,,,,,,,,,,,,,,,,,,,,,,,,,,,,,,,ldjtxbkq,"[""l"",""d"",""j"",""t"",""x"",""b"",""k"",""q""]",0,"[10.8104000000003,11.043900000000349,11.237499999999955,13.188099999999622,13.759199999999282,15.269599999999627,15.539499999999975,16.48490000000038,17.719199999999205]",1,LDJTXBKQ,6,0,6,0,1,,,,,,,,,,
,,,,,,,,,,,,5f2046327f613f0e2c89c7dd,24,Kobieta,2022-06-11_09h27.35.692,task,2021.1.4,MacIntel,60.0024001,6299f149e92ead563fba08ef,62a443d81be75f39da88f0e3,,,,,,,,,,,,,2,,,,,,,,,,Task,2,(2x2) - 2,2,,,,,,,,,,,,,,,,,,,1,,,,,,,,,,,,,,,,,,,,,,,"[""2""]",1,[2.882599999999684],0,0,0,1,1,,,,,,,,,,,,,,,,,,,,,,,,,,
,,,,,,,,,,,X V Q F H G B L J M P D K C T S W R N Z,5f2046327f613f0e2c89c7dd,24,Kobieta,2022-06-11_09h27.35.692,task,2021.1.4,MacIntel,60.0024001,6299f149e92ead563fba08ef,62a443d81be75f39da88f0e3,,,,,,,,,,,,,,,,,,,,,,,,,,,,,,,,,,,,,,,,,,,,,,,,,,,,,,,,,,,,,,,,,,,,,,,,,,,,0,0,0,0,1,,,,,,,,,,,,,,,,,,,,,
,,,,,,,,,,,,5f2046327f613f0e2c89c7dd,24,Kobieta,2022-06-11_09h27.35.692,task,2021.1.4,MacIntel,60.0024001,6299f149e92ead563fba08ef,62a443d81be75f39da88f0e3,,,,,,,,,,,,,7,,,,,,,,,,Task,6,(12/2) + 1,7,,,,,,,,,,,,,,,,,,,1,,,,,,,,,,,,,,,,,,,,,,,"[""7""]",1,[6.666599999999676],0,0,0,5,1,,,,,,,,,,,,,,,,,,,,,,,,,,
,,,,,,,,,,,X V Q F H G B L J M P D K C T S W R N Z,5f2046327f613f0e2c89c7dd,24,Kobieta,2022-06-11_09h27.35.692,task,2021.1.4,MacIntel,60.0024001,6299f149e92ead563fba08ef,62a443d81be75f39da88f0e3,,,,,,,,,,,,,,,,,,,,,,,,,,,,,,,,,,,,,,,,,,,,,,,,,,,,,,,,,,,,,,,,,,,,,,,,,,,,1,0,1,0,1,,,,,,,,,,,,,,,,,,,,,
,,,,,,,,,,,,5f2046327f613f0e2c89c7dd,24,Kobieta,2022-06-11_09h27.35.692,task,2021.1.4,MacIntel,60.0024001,6299f149e92ead563fba08ef,62a443d81be75f39da88f0e3,,,,,,,,,,,,,7,,,,,,,,,,Task,30,(6/3) + 4 ,6,,,,,,,,,,,,,,,,,,,0,,,,,,,,,,,,,,,,,,,,,,,"[""7""]",0,[6.847499999999968],0,0,0,29,1,,,,,,,,,,,,,,,,,,,,,,,,,,
,,,,,,,,,,,,5f2046327f613f0e2c89c7dd,24,Kobieta,2022-06-11_09h27.35.692,task,2021.1.4,MacIntel,60.0024001,6299f149e92ead563fba08ef,62a443d81be75f39da88f0e3,,,,,,,,,,,,,3,,,,,,,,,,Task,3,(2x3) - 3,3,,,,,,,,,,,,,,,,,,,1,,,,,,,,,,,,,,,,,,,,,,,"[""3""]",1,[6.785700000001157],0,1,1,2,1,,,,,,,,,,,,,,,,,,,,,,,,,,
,,,,,,,,,,,X V Q F H G B L J M P D K C T S W R N Z,5f2046327f613f0e2c89c7dd,24,Kobieta,2022-06-11_09h27.35.692,task,2021.1.4,MacIntel,60.0024001,6299f149e92ead563fba08ef,62a443d81be75f39da88f0e3,,,,,,,,,,,,,,,,,,,,,,,,,,,,,,,,,,,,,,,,,,,,,,,,,,,,,,,,,,,,,,,,,,,,,,,,,,,,2,0,2,0,1,,,,,,,,,,,,,,,,,,,,,
,,,,,,,,,,,,5f2046327f613f0e2c89c7dd,24,Kobieta,2022-06-11_09h27.35.692,task,2021.1.4,MacIntel,60.0024001,6299f149e92ead563fba08ef,62a443d81be75f39da88f0e3,,,,,,,,,,,,,1,,,,,,,,,,Task,18,(16/4) - 3,1,,,,,,,,,,,,,,,,,,,1,,,,,,,,,,,,,,,,,,,,,,,"[""1""]",1,[5.386699999999223],0,0,0,17,1,,,,,,,,,,,,,,,,,,,,,,,,,,
,,,,,,,,,,,X V Q F H G B L J M P D K C T S W R N Z,5f2046327f613f0e2c89c7dd,24,Kobieta,2022-06-11_09h27.35.692,task,2021.1.4,MacIntel,60.0024001,6299f149e92ead563fba08ef,62a443d81be75f39da88f0e3,,,,,,,,,,,,,,,,,,,,,,,,,,,,,,,,,,,,,,,,,,,,,,,,,,,,,,,,,,,,,,,,,,,,,,,,,,,,3,0,3,0,1,,,,,,,,,,,,,,,,,,,,,
,,,,,,,,,,,,5f2046327f613f0e2c89c7dd,24,Kobieta,2022-06-11_09h27.35.692,task,2021.1.4,MacIntel,60.0024001,6299f149e92ead563fba08ef,62a443d81be75f39da88f0e3,,,,,,,,,,,,,5,,,,,,,,,,Task,4,(1x5) - 1,4,,,,,,,,,,,,,,,,,,,0,,,,,,,,,,,,,,,,,,,,,,,"[""5""]",0,[4.115199999999163],0,0,0,3,1,,,,,,,,,,,,,,,,,,,,,,,,,,
,,,,,,,,,,,,5f2046327f613f0e2c89c7dd,24,Kobieta,2022-06-11_09h27.35.692,task,2021.1.4,MacIntel,60.0024001,6299f149e92ead563fba08ef,62a443d81be75f39da88f0e3,,,,,,,,,,,,,7,,,,,,,,,,Task,38,(4x6) - 17,7,,,,,,,,,,,,,,,,,,,1,,,,,,,,,,,,,,,,,,,,,,,"[""7""]",1,[8.167500000000018],0,1,1,37,1,,,,,,,,,,,,,,,,,,,,,,,,,,
,,,,,,,,,,,X V Q F H G B L J M P D K C T S W R N Z,5f2046327f613f0e2c89c7dd,24,Kobieta,2022-06-11_09h27.35.692,task,2021.1.4,MacIntel,60.0024001,6299f149e92ead563fba08ef,62a443d81be75f39da88f0e3,,,,,,,,,,,,,,,,,,,,,,,,,,,,,,,,,,,,,,,,,,,,,,,,,,,,,,,,,,,,,,,,,,,,,,,,,,,,4,0,4,0,1,,,,,,,,,,,,,,,,,,,,,
,,,,,,,,,,,,5f2046327f613f0e2c89c7dd,24,Kobieta,2022-06-11_09h27.35.692,task,2021.1.4,MacIntel,60.0024001,6299f149e92ead563fba08ef,62a443d81be75f39da88f0e3,,,,,,,,,,,,,2,,,,,,,,,,Task,26,(2x9) - 16,2,,,,,,,,,,,,,,,,,,,1,,,,,,,,,,,,,,,,,,,,,,,"[""2""]",1,[3.631399999998507],0,0,0,25,1,,,,,,,,,,,,,,,,,,,,,,,,,,
,,,,,,,,,,,X V Q F H G B L J M P D K C T S W R N Z,5f2046327f613f0e2c89c7dd,24,Kobieta,2022-06-11_09h27.35.692,task,2021.1.4,MacIntel,60.0024001,6299f149e92ead563fba08ef,62a443d81be75f39da88f0e3,,,,,,,,,,,,,,,,,,,,,,,,,,,,,,,,,,,,,,,,,,,,,,,,,,,,,,,,,,,,,,,,,,,,,,,,,,,,5,0,5,0,1,,,,,,,,,,,,,,,,,,,,,
,,,,,,,,,,,,5f2046327f613f0e2c89c7dd,24,Kobieta,2022-06-11_09h27.35.692,task,2021.1.4,MacIntel,60.0024001,6299f149e92ead563fba08ef,62a443d81be75f39da88f0e3,,,,,,,,,,,,,8,,,,,,,,,,Task,39,(5x3) - 7,8,,,,,,,,,,,,,,,,,,,1,,,,,,,,,,,,,,,,,,,,,,,"[""8""]",1,[7.182699999999272],0,0,0,38,1,,,,,,,,,,,,,,,,,,,,,,,,,,
,,,,,,,,,,,X V Q F H G B L J M P D K C T S W R N Z,5f2046327f613f0e2c89c7dd,24,Kobieta,2022-06-11_09h27.35.692,task,2021.1.4,MacIntel,60.0024001,6299f149e92ead563fba08ef,62a443d81be75f39da88f0e3,,,,,,,,,,,,,,,,,,,,,,,,,,,,,,,,,,,,,,,,,,,,,,,,,,,,,,,,,,,,,,,,,,,,,,,,,,,,6,0,6,0,1,,,,,,,,,,,,,,,,,,,,,
,,,,,,,,,,,,5f2046327f613f0e2c89c7dd,24,Kobieta,2022-06-11_09h27.35.692,task,2021.1.4,MacIntel,60.0024001,6299f149e92ead563fba08ef,62a443d81be75f39da88f0e3,,,,,,,,,,,,,5,,,,,,,,,,Task,4,(1x5) - 1,4,,,,,,,,,,,,,,,,,,,0,,,,,,,,,,,,,,,,,,,,,,,"[""5""]",0,[2.7153000000007523],0,0,0,3,1,,,,,,,,,,,,,,,,,,,,,,,,,,
,,,,,,,,,,,,5f2046327f613f0e2c89c7dd,24,Kobieta,2022-06-11_09h27.35.692,task,2021.1.4,MacIntel,60.0024001,6299f149e92ead563fba08ef,62a443d81be75f39da88f0e3,,,,,,,,,,,,,3,,,,,,,,,,Task,25,(10/5) - 2,0,,,,,,,,,,,,,,,,,,,0,,,,,,,,,,,,,,,,,,,,,,,"[""3""]",0,[3.349900000000389],0,1,1,24,1,,,,,,,,,,,,,,,,,,,,,,,,,,
,,,,,,,,,,,,5f2046327f613f0e2c89c7dd,24,Kobieta,2022-06-11_09h27.35.692,task,2021.1.4,MacIntel,60.0024001,6299f149e92ead563fba08ef,62a443d81be75f39da88f0e3,,,,,,,,,,,,,1,,,,,,,,,,Task,9,(3x7) - 20,1,,,,,,,,,,,,,,,,,,,1,,,,,,,,,,,,,,,,,,,,,,,"[""1""]",1,[2.60450000000003],0,2,2,8,1,,,,,,,,,,,,,,,,,,,,,,,,,,
,,,,,,,,,,,X V Q F H G B L J M P D K C T S W R N Z,5f2046327f613f0e2c89c7dd,24,Kobieta,2022-06-11_09h27.35.692,task,2021.1.4,MacIntel,60.0024001,6299f149e92ead563fba08ef,62a443d81be75f39da88f0e3,,,,,,,,,,,,,,,,,,,,,,,,,,,,,,,,,,,,,,,,,,,,,,,,,,,,,,,,,,,,,,,,,,,,,,,,,,,,7,0,7,0,1,,,,,,,,,,,,,,,,,,,,,
,,,,,,,,,,,,5f2046327f613f0e2c89c7dd,24,Kobieta,2022-06-11_09h27.35.692,task,2021.1.4,MacIntel,60.0024001,6299f149e92ead563fba08ef,62a443d81be75f39da88f0e3,,,,,,,,,,,,,0,,,,,,,,,,Task,8,(1x5) - 5,0,,,,,,,,,,,,,,,,,,,1,,,,,,,,,,,,,,,,,,,,,,,"[""0""]",1,[2.9295999999995956],0,0,0,7,1,,,,,,,,,,,,,,,,,,,,,,,,,,
,,,,,,,,,,,X V Q F H G B L J M P D K C T S W R N Z,5f2046327f613f0e2c89c7dd,24,Kobieta,2022-06-11_09h27.35.692,task,2021.1.4,MacIntel,60.0024001,6299f149e92ead563fba08ef,62a443d81be75f39da88f0e3,,,,,,,,,,,,,,,,,,,,,,,,,,,,,,,,,,,,,,,,,,,,,,,,,,,,,,,,,,,,,,,,,,,,,,,,,,,,8,0,8,0,1,,,,,,,,,,,,,,,,,,,,,
,,,,,,,,,,,,5f2046327f613f0e2c89c7dd,24,Kobieta,2022-06-11_09h27.35.692,task,2021.1.4,MacIntel,60.0024001,6299f149e92ead563fba08ef,62a443d81be75f39da88f0e3,,,,,,,,,,,,,,,,,,,,,,,,,,,,,,,,,,,,,,,,,,,,,,,,,,,,,,,,,,,,,,,,,,,,,,,,,,,,,,,,,jtpbrhgsv,"[""j"",""t"",""p"",""b"",""r"",""h"",""g"",""s"",""v""]",0,"[2.48700000000008,3.06890000000044,4.392099999999687,5.1732000000010885,5.533900000000358,7.539400000000342,8.400200000001178,9.066500000000019,10.601700000001188,15.201700000001097]",1,JTPBRHGSV,7,0,7,0,1,,,,,,,,,,
,,,,,,,,,,,,5f2046327f613f0e2c89c7dd,24,Kobieta,2022-06-11_09h27.35.692,task,2021.1.4,MacIntel,60.0024001,6299f149e92ead563fba08ef,62a443d81be75f39da88f0e3,,,,,,,,,,,,,0,,,,,,,,,,Task,33,(1/1) - 1,0,,,,,,,,,,,,,,,,,,,1,,,,,,,,,,,,,,,,,,,,,,,"[""0""]",1,[1.9344999999999573],0,0,0,32,1,,,,,,,,,,,,,,,,,,,,,,,,,,
,,,,,,,,,,,X V Q F H G B L J M P D K C T S W R N Z,5f2046327f613f0e2c89c7dd,24,Kobieta,2022-06-11_09h27.35.692,task,2021.1.4,MacIntel,60.0024001,6299f149e92ead563fba08ef,62a443d81be75f39da88f0e3,,,,,,,,,,,,,,,,,,,,,,,,,,,,,,,,,,,,,,,,,,,,,,,,,,,,,,,,,,,,,,,,,,,,,,,,,,,,0,0,0,0,1,,,,,,,,,,,,,,,,,,,,,
,,,,,,,,,,,,5f2046327f613f0e2c89c7dd,24,Kobieta,2022-06-11_09h27.35.692,task,2021.1.4,MacIntel,60.0024001,6299f149e92ead563fba08ef,62a443d81be75f39da88f0e3,,,,,,,,,,,,,8,,,,,,,,,,Task,15,(3x7) - 13,8,,,,,,,,,,,,,,,,,,,1,,,,,,,,,,,,,,,,,,,,,,,"[""8""]",1,[7.115799999998899],0,0,0,14,1,,,,,,,,,,,,,,,,,,,,,,,,,,
,,,,,,,,,,,X V Q F H G B L J M P D K C T S W R N Z,5f2046327f613f0e2c89c7dd,24,Kobieta,2022-06-11_09h27.35.692,task,2021.1.4,MacIntel,60.0024001,6299f149e92ead563fba08ef,62a443d81be75f39da88f0e3,,,,,,,,,,,,,,,,,,,,,,,,,,,,,,,,,,,,,,,,,,,,,,,,,,,,,,,,,,,,,,,,,,,,,,,,,,,,1,0,1,0,1,,,,,,,,,,,,,,,,,,,,,
,,,,,,,,,,,,5f2046327f613f0e2c89c7dd,24,Kobieta,2022-06-11_09h27.35.692,task,2021.1.4,MacIntel,60.0024001,6299f149e92ead563fba08ef,62a443d81be75f39da88f0e3,,,,,,,,,,,,,9,,,,,,,,,,Task,16,(3x8) - 15,9,,,,,,,,,,,,,,,,,,,1,,,,,,,,,,,,,,,,,,,,,,,"[""9""]",1,[8.432099999999537],0,0,0,15,1,,,,,,,,,,,,,,,,,,,,,,,,,,
,,,,,,,,,,,X V Q F H G B L J M P D K C T S W R N Z,5f2046327f613f0e2c89c7dd,24,Kobieta,2022-06-11_09h27.35.692,task,2021.1.4,MacIntel,60.0024001,6299f149e92ead563fba08ef,62a443d81be75f39da88f0e3,,,,,,,,,,,,,,,,,,,,,,,,,,,,,,,,,,,,,,,,,,,,,,,,,,,,,,,,,,,,,,,,,,,,,,,,,,,,2,0,2,0,1,,,,,,,,,,,,,,,,,,,,,
,,,,,,,,,,,,5f2046327f613f0e2c89c7dd,24,Kobieta,2022-06-11_09h27.35.692,task,2021.1.4,MacIntel,60.0024001,6299f149e92ead563fba08ef,62a443d81be75f39da88f0e3,,,,,,,,,,,,,7,,,,,,,,,,Task,14,(2x2) + 3,7,,,,,,,,,,,,,,,,,,,1,,,,,,,,,,,,,,,,,,,,,,,"[""7""]",1,[5.166099999999574],0,0,0,13,1,,,,,,,,,,,,,,,,,,,,,,,,,,
,,,,,,,,,,,X V Q F H G B L J M P D K C T S W R N Z,5f2046327f613f0e2c89c7dd,24,Kobieta,2022-06-11_09h27.35.692,task,2021.1.4,MacIntel,60.0024001,6299f149e92ead563fba08ef,62a443d81be75f39da88f0e3,,,,,,,,,,,,,,,,,,,,,,,,,,,,,,,,,,,,,,,,,,,,,,,,,,,,,,,,,,,,,,,,,,,,,,,,,,,,3,0,3,0,1,,,,,,,,,,,,,,,,,,,,,
,,,,,,,,,,,,5f2046327f613f0e2c89c7dd,24,Kobieta,2022-06-11_09h27.35.692,task,2021.1.4,MacIntel,60.0024001,6299f149e92ead563fba08ef,62a443d81be75f39da88f0e3,,,,,,,,,,,,,9,,,,,,,,,,Task,24,(2x2) + 5,9,,,,,,,,,,,,,,,,,,,1,,,,,,,,,,,,,,,,,,,,,,,"[""9""]",1,[1.6971999999992704],0,0,0,23,1,,,,,,,,,,,,,,,,,,,,,,,,,,
,,,,,,,,,,,X V Q F H G B L J M P D K C T S W R N Z,5f2046327f613f0e2c89c7dd,24,Kobieta,2022-06-11_09h27.35.692,task,2021.1.4,MacIntel,60.0024001,6299f149e92ead563fba08ef,62a443d81be75f39da88f0e3,,,,,,,,,,,,,,,,,,,,,,,,,,,,,,,,,,,,,,,,,,,,,,,,,,,,,,,,,,,,,,,,,,,,,,,,,,,,4,0,4,0,1,,,,,,,,,,,,,,,,,,,,,
,,,,,,,,,,,,5f2046327f613f0e2c89c7dd,24,Kobieta,2022-06-11_09h27.35.692,task,2021.1.4,MacIntel,60.0024001,6299f149e92ead563fba08ef,62a443d81be75f39da88f0e3,,,,,,,,,,,,,7,,,,,,,,,,Task,38,(4x6) - 17,7,,,,,,,,,,,,,,,,,,,1,,,,,,,,,,,,,,,,,,,,,,,"[""7""]",1,[7.4296999999992295],0,0,0,37,1,,,,,,,,,,,,,,,,,,,,,,,,,,
,,,,,,,,,,,X V Q F H G B L J M P D K C T S W R N Z,5f2046327f613f0e2c89c7dd,24,Kobieta,2022-06-11_09h27.35.692,task,2021.1.4,MacIntel,60.0024001,6299f149e92ead563fba08ef,62a443d81be75f39da88f0e3,,,,,,,,,,,,,,,,,,,,,,,,,,,,,,,,,,,,,,,,,,,,,,,,,,,,,,,,,,,,,,,,,,,,,,,,,,,,5,0,5,0,1,,,,,,,,,,,,,,,,,,,,,
,,,,,,,,,,,,5f2046327f613f0e2c89c7dd,24,Kobieta,2022-06-11_09h27.35.692,task,2021.1.4,MacIntel,60.0024001,6299f149e92ead563fba08ef,62a443d81be75f39da88f0e3,,,,,,,,,,,,,9,,,,,,,,,,Task,16,(3x8) - 15,9,,,,,,,,,,,,,,,,,,,1,,,,,,,,,,,,,,,,,,,,,,,"[""9""]",1,[6.3489000000004125],0,0,0,15,1,,,,,,,,,,,,,,,,,,,,,,,,,,
,,,,,,,,,,,X V Q F H G B L J M P D K C T S W R N Z,5f2046327f613f0e2c89c7dd,24,Kobieta,2022-06-11_09h27.35.692,task,2021.1.4,MacIntel,60.0024001,6299f149e92ead563fba08ef,62a443d81be75f39da88f0e3,,,,,,,,,,,,,,,,,,,,,,,,,,,,,,,,,,,,,,,,,,,,,,,,,,,,,,,,,,,,,,,,,,,,,,,,,,,,6,0,6,0,1,,,,,,,,,,,,,,,,,,,,,
,,,,,,,,,,,,5f2046327f613f0e2c89c7dd,24,Kobieta,2022-06-11_09h27.35.692,task,2021.1.4,MacIntel,60.0024001,6299f149e92ead563fba08ef,62a443d81be75f39da88f0e3,,,,,,,,,,,,,1,,,,,,,,,,Task,9,(3x7) - 20,1,,,,,,,,,,,,,,,,,,,1,,,,,,,,,,,,,,,,,,,,,,,"[""1""]",1,[2.371599999999603],0,0,0,8,1,,,,,,,,,,,,,,,,,,,,,,,,,,
,,,,,,,,,,,X V Q F H G B L J M P D K C T S W R N Z,5f2046327f613f0e2c89c7dd,24,Kobieta,2022-06-11_09h27.35.692,task,2021.1.4,MacIntel,60.0024001,6299f149e92ead563fba08ef,62a443d81be75f39da88f0e3,,,,,,,,,,,,,,,,,,,,,,,,,,,,,,,,,,,,,,,,,,,,,,,,,,,,,,,,,,,,,,,,,,,,,,,,,,,,7,0,7,0,1,,,,,,,,,,,,,,,,,,,,,
,,,,,,,,,,,,5f2046327f613f0e2c89c7dd,24,Kobieta,2022-06-11_09h27.35.692,task,2021.1.4,MacIntel,60.0024001,6299f149e92ead563fba08ef,62a443d81be75f39da88f0e3,,,,,,,,,,,,,9,,,,,,,,,,Task,7,(3x7) - 12,9,,,,,,,,,,,,,,,,,,,1,,,,,,,,,,,,,,,,,,,,,,,"[""9""]",1,[7.697499999999991],0,0,0,6,1,,,,,,,,,,,,,,,,,,,,,,,,,,
,,,,,,,,,,,X V Q F H G B L J M P D K C T S W R N Z,5f2046327f613f0e2c89c7dd,24,Kobieta,2022-06-11_09h27.35.692,task,2021.1.4,MacIntel,60.0024001,6299f149e92ead563fba08ef,62a443d81be75f39da88f0e3,,,,,,,,,,,,,,,,,,,,,,,,,,,,,,,,,,,,,,,,,,,,,,,,,,,,,,,,,,,,,,,,,,,,,,,,,,,,8,0,8,0,1,,,,,,,,,,,,,,,,,,,,,
,,,,,,,,,,,,5f2046327f613f0e2c89c7dd,24,Kobieta,2022-06-11_09h27.35.692,task,2021.1.4,MacIntel,60.0024001,6299f149e92ead563fba08ef,62a443d81be75f39da88f0e3,,,,,,,,,,,,,1,,,,,,,,,,Task,34,(9/3) - 2,1,,,,,,,,,,,,,,,,,,,1,,,,,,,,,,,,,,,,,,,,,,,"[""1""]",1,[3.183400000000347],0,0,0,33,1,,,,,,,,,,,,,,,,,,,,,,,,,,
,,,,,,,,,,,X V Q F H G B L J M P D K C T S W R N Z,5f2046327f613f0e2c89c7dd,24,Kobieta,2022-06-11_09h27.35.692,task,2021.1.4,MacIntel,60.0024001,6299f149e92ead563fba08ef,62a443d81be75f39da88f0e3,,,,,,,,,,,,,,,,,,,,,,,,,,,,,,,,,,,,,,,,,,,,,,,,,,,,,,,,,,,,,,,,,,,,,,,,,,,,9,0,9,0,1,,,,,,,,,,,,,,,,,,,,,
,,,,,,,,,,,,5f2046327f613f0e2c89c7dd,24,Kobieta,2022-06-11_09h27.35.692,task,2021.1.4,MacIntel,60.0024001,6299f149e92ead563fba08ef,62a443d81be75f39da88f0e3,,,,,,,,,,,,,,,,,,,,,,,,,,,,,,,,,,,,,,,,,,,,,,,,,,,,,,,,,,,,,,,,,,,,,,,,,,,,,,,,,bjxvgwnlwq,"[""b"",""j"",""x"",""v"",""g"",""w"",""n"",""l"",""w"",""q""]",0,"[2.518000000000029,2.8560999999996284,4.734199999999191,5.201699999999278,7.484599999999659,7.968299999998862,10.170399999998494,10.516299999998864,12.537199999999189,12.756699999999228,13.634500000000003]",1,BJXVGWNLWQ,8,0,8,0,1,,,,,,,,,,
,,,,,,,,,,,,5f2046327f613f0e2c89c7dd,24,Kobieta,2022-06-11_09h27.35.692,task,2021.1.4,MacIntel,60.0024001,6299f149e92ead563fba08ef,62a443d81be75f39da88f0e3,,,,,,,,,,,,,6,,,,,,,,,,Task,5,(2x3) + 0,6,,,,,,,,,,,,,,,,,,,1,,,,,,,,,,,,,,,,,,,,,,,"[""6""]",1,[2.8859999999999673],0,0,0,4,1,,,,,,,,,,,,,,,,,,,,,,,,,,
,,,,,,,,,,,X V Q F H G B L J M P D K C T S W R N Z,5f2046327f613f0e2c89c7dd,24,Kobieta,2022-06-11_09h27.35.692,task,2021.1.4,MacIntel,60.0024001,6299f149e92ead563fba08ef,62a443d81be75f39da88f0e3,,,,,,,,,,,,,,,,,,,,,,,,,,,,,,,,,,,,,,,,,,,,,,,,,,,,,,,,,,,,,,,,,,,,,,,,,,,,0,0,0,0,1,,,,,,,,,,,,,,,,,,,,,
,,,,,,,,,,,,5f2046327f613f0e2c89c7dd,24,Kobieta,2022-06-11_09h27.35.692,task,2021.1.4,MacIntel,60.0024001,6299f149e92ead563fba08ef,62a443d81be75f39da88f0e3,,,,,,,,,,,,,6,,,,,,,,,,Task,5,(2x3) + 0,6,,,,,,,,,,,,,,,,,,,1,,,,,,,,,,,,,,,,,,,,,,,"[""6""]",1,[1.7323999999985062],0,0,0,4,1,,,,,,,,,,,,,,,,,,,,,,,,,,
,,,,,,,,,,,X V Q F H G B L J M P D K C T S W R N Z,5f2046327f613f0e2c89c7dd,24,Kobieta,2022-06-11_09h27.35.692,task,2021.1.4,MacIntel,60.0024001,6299f149e92ead563fba08ef,62a443d81be75f39da88f0e3,,,,,,,,,,,,,,,,,,,,,,,,,,,,,,,,,,,,,,,,,,,,,,,,,,,,,,,,,,,,,,,,,,,,,,,,,,,,1,0,1,0,1,,,,,,,,,,,,,,,,,,,,,
,,,,,,,,,,,,5f2046327f613f0e2c89c7dd,24,Kobieta,2022-06-11_09h27.35.692,task,2021.1.4,MacIntel,60.0024001,6299f149e92ead563fba08ef,62a443d81be75f39da88f0e3,,,,,,,,,,,,,3,,,,,,,,,,Task,27,(3/3) + 2,3,,,,,,,,,,,,,,,,,,,1,,,,,,,,,,,,,,,,,,,,,,,"[""3""]",1,[3.8192999999988615],0,0,0,26,1,,,,,,,,,,,,,,,,,,,,,,,,,,
,,,,,,,,,,,X V Q F H G B L J M P D K C T S W R N Z,5f2046327f613f0e2c89c7dd,24,Kobieta,2022-06-11_09h27.35.692,task,2021.1.4,MacIntel,60.0024001,6299f149e92ead563fba08ef,62a443d81be75f39da88f0e3,,,,,,,,,,,,,,,,,,,,,,,,,,,,,,,,,,,,,,,,,,,,,,,,,,,,,,,,,,,,,,,,,,,,,,,,,,,,2,0,2,0,1,,,,,,,,,,,,,,,,,,,,,
,,,,,,,,,,,,5f2046327f613f0e2c89c7dd,24,Kobieta,2022-06-11_09h27.35.692,task,2021.1.4,MacIntel,60.0024001,6299f149e92ead563fba08ef,62a443d81be75f39da88f0e3,,,,,,,,,,,,,7,,,,,,,,,,Task,38,(4x6) - 17,7,,,,,,,,,,,,,,,,,,,1,,,,,,,,,,,,,,,,,,,,,,,"[""7""]",1,[7.898300000000745],0,0,0,37,1,,,,,,,,,,,,,,,,,,,,,,,,,,
,,,,,,,,,,,X V Q F H G B L J M P D K C T S W R N Z,5f2046327f613f0e2c89c7dd,24,Kobieta,2022-06-11_09h27.35.692,task,2021.1.4,MacIntel,60.0024001,6299f149e92ead563fba08ef,62a443d81be75f39da88f0e3,,,,,,,,,,,,,,,,,,,,,,,,,,,,,,,,,,,,,,,,,,,,,,,,,,,,,,,,,,,,,,,,,,,,,,,,,,,,3,0,3,0,1,,,,,,,,,,,,,,,,,,,,,
,,,,,,,,,,,,5f2046327f613f0e2c89c7dd,24,Kobieta,2022-06-11_09h27.35.692,task,2021.1.4,MacIntel,60.0024001,6299f149e92ead563fba08ef,62a443d81be75f39da88f0e3,,,,,,,,,,,,,8,,,,,,,,,,Task,23,(2x3) + 2,8,,,,,,,,,,,,,,,,,,,1,,,,,,,,,,,,,,,,,,,,,,,"[""8""]",1,[2.5720000000000027],0,0,0,22,1,,,,,,,,,,,,,,,,,,,,,,,,,,
,,,,,,,,,,,X V Q F H G B L J M P D K C T S W R N Z,5f2046327f613f0e2c89c7dd,24,Kobieta,2022-06-11_09h27.35.692,task,2021.1.4,MacIntel,60.0024001,6299f149e92ead563fba08ef,62a443d81be75f39da88f0e3,,,,,,,,,,,,,,,,,,,,,,,,,,,,,,,,,,,,,,,,,,,,,,,,,,,,,,,,,,,,,,,,,,,,,,,,,,,,4,0,4,0,1,,,,,,,,,,,,,,,,,,,,,
,,,,,,,,,,,,5f2046327f613f0e2c89c7dd,24,Kobieta,2022-06-11_09h27.35.692,task,2021.1.4,MacIntel,60.0024001,6299f149e92ead563fba08ef,62a443d81be75f39da88f0e3,,,,,,,,,,,,,4,,,,,,,,,,Task,21,(10/2) - 1,4,,,,,,,,,,,,,,,,,,,1,,,,,,,,,,,,,,,,,,,,,,,"[""4""]",1,[1.962500000000091],0,0,0,20,1,,,,,,,,,,,,,,,,,,,,,,,,,,
,,,,,,,,,,,X V Q F H G B L J M P D K C T S W R N Z,5f2046327f613f0e2c89c7dd,24,Kobieta,2022-06-11_09h27.35.692,task,2021.1.4,MacIntel,60.0024001,6299f149e92ead563fba08ef,62a443d81be75f39da88f0e3,,,,,,,,,,,,,,,,,,,,,,,,,,,,,,,,,,,,,,,,,,,,,,,,,,,,,,,,,,,,,,,,,,,,,,,,,,,,5,0,5,0,1,,,,,,,,,,,,,,,,,,,,,
,,,,,,,,,,,,5f2046327f613f0e2c89c7dd,24,Kobieta,2022-06-11_09h27.35.692,task,2021.1.4,MacIntel,60.0024001,6299f149e92ead563fba08ef,62a443d81be75f39da88f0e3,,,,,,,,,,,,,9,,,,,,,,,,Task,7,(3x7) - 12,9,,,,,,,,,,,,,,,,,,,1,,,,,,,,,,,,,,,,,,,,,,,"[""9""]",1,[7.232200000001058],0,0,0,6,1,,,,,,,,,,,,,,,,,,,,,,,,,,
,,,,,,,,,,,X V Q F H G B L J M P D K C T S W R N Z,5f2046327f613f0e2c89c7dd,24,Kobieta,2022-06-11_09h27.35.692,task,2021.1.4,MacIntel,60.0024001,6299f149e92ead563fba08ef,62a443d81be75f39da88f0e3,,,,,,,,,,,,,,,,,,,,,,,,,,,,,,,,,,,,,,,,,,,,,,,,,,,,,,,,,,,,,,,,,,,,,,,,,,,,6,0,6,0,1,,,,,,,,,,,,,,,,,,,,,
,,,,,,,,,,,,5f2046327f613f0e2c89c7dd,24,Kobieta,2022-06-11_09h27.35.692,task,2021.1.4,MacIntel,60.0024001,6299f149e92ead563fba08ef,62a443d81be75f39da88f0e3,,,,,,,,,,,,,8,,,,,,,,,,Task,15,(3x7) - 13,8,,,,,,,,,,,,,,,,,,,1,,,,,,,,,,,,,,,,,,,,,,,"[""8""]",1,[6.166499999999928],0,0,0,14,1,,,,,,,,,,,,,,,,,,,,,,,,,,
,,,,,,,,,,,X V Q F H G B L J M P D K C T S W R N Z,5f2046327f613f0e2c89c7dd,24,Kobieta,2022-06-11_09h27.35.692,task,2021.1.4,MacIntel,60.0024001,6299f149e92ead563fba08ef,62a443d81be75f39da88f0e3,,,,,,,,,,,,,,,,,,,,,,,,,,,,,,,,,,,,,,,,,,,,,,,,,,,,,,,,,,,,,,,,,,,,,,,,,,,,7,0,7,0,1,,,,,,,,,,,,,,,,,,,,,
,,,,,,,,,,,,5f2046327f613f0e2c89c7dd,24,Kobieta,2022-06-11_09h27.35.692,task,2021.1.4,MacIntel,60.0024001,6299f149e92ead563fba08ef,62a443d81be75f39da88f0e3,,,,,,,,,,,,,1,,,,,,,,,,Task,9,(3x7) - 20,1,,,,,,,,,,,,,,,,,,,1,,,,,,,,,,,,,,,,,,,,,,,"[""1""]",1,[1.8999000000004571],0,0,0,8,1,,,,,,,,,,,,,,,,,,,,,,,,,,
,,,,,,,,,,,X V Q F H G B L J M P D K C T S W R N Z,5f2046327f613f0e2c89c7dd,24,Kobieta,2022-06-11_09h27.35.692,task,2021.1.4,MacIntel,60.0024001,6299f149e92ead563fba08ef,62a443d81be75f39da88f0e3,,,,,,,,,,,,,,,,,,,,,,,,,,,,,,,,,,,,,,,,,,,,,,,,,,,,,,,,,,,,,,,,,,,,,,,,,,,,8,0,8,0,1,,,,,,,,,,,,,,,,,,,,,
,,,,,,,,,,,,5f2046327f613f0e2c89c7dd,24,Kobieta,2022-06-11_09h27.35.692,task,2021.1.4,MacIntel,60.0024001,6299f149e92ead563fba08ef,62a443d81be75f39da88f0e3,,,,,,,,,,,,,5,,,,,,,,,,Task,36,(8/4) + 3,5,,,,,,,,,,,,,,,,,,,1,,,,,,,,,,,,,,,,,,,,,,,"[""5""]",1,[2.816700000000992],0,0,0,35,1,,,,,,,,,,,,,,,,,,,,,,,,,,
,,,,,,,,,,,X V Q F H G B L J M P D K C T S W R N Z,5f2046327f613f0e2c89c7dd,24,Kobieta,2022-06-11_09h27.35.692,task,2021.1.4,MacIntel,60.0024001,6299f149e92ead563fba08ef,62a443d81be75f39da88f0e3,,,,,,,,,,,,,,,,,,,,,,,,,,,,,,,,,,,,,,,,,,,,,,,,,,,,,,,,,,,,,,,,,,,,,,,,,,,,9,0,9,0,1,,,,,,,,,,,,,,,,,,,,,
,,,,,,,,,,,,5f2046327f613f0e2c89c7dd,24,Kobieta,2022-06-11_09h27.35.692,task,2021.1.4,MacIntel,60.0024001,6299f149e92ead563fba08ef,62a443d81be75f39da88f0e3,,,,,,,,,,,,,1,,,,,,,,,,Task,34,(9/3) - 2,1,,,,,,,,,,,,,,,,,,,1,,,,,,,,,,,,,,,,,,,,,,,"[""1""]",1,[2.986499999999978],0,0,0,33,1,,,,,,,,,,,,,,,,,,,,,,,,,,
,,,,,,,,,,,X V Q F H G B L J M P D K C T S W R N Z,5f2046327f613f0e2c89c7dd,24,Kobieta,2022-06-11_09h27.35.692,task,2021.1.4,MacIntel,60.0024001,6299f149e92ead563fba08ef,62a443d81be75f39da88f0e3,,,,,,,,,,,,,,,,,,,,,,,,,,,,,,,,,,,,,,,,,,,,,,,,,,,,,,,,,,,,,,,,,,,,,,,,,,,,10,0,10,0,1,,,,,,,,,,,,,,,,,,,,,
,,,,,,,,,,,,5f2046327f613f0e2c89c7dd,24,Kobieta,2022-06-11_09h27.35.692,task,2021.1.4,MacIntel,60.0024001,6299f149e92ead563fba08ef,62a443d81be75f39da88f0e3,,,,,,,,,,,,,,,,,,,,,,,,,,,,,,,,,,,,,,,,,,,,,,,,,,,,,,,,,,,,,,,,,,,,,,,,,,,,,,,,,pfngsqvpbpj,"[""p"",""f"",""n"",""g"",""s"",""q"",""v"",""p"",""b"",""p"",""j""]",0,"[2.551600000001372,3.099900000000389,4.686100000001488,4.998900000000276,7.036600000001499,7.366200000001072,9.217200000001185,9.867400000000316,11.46770000000106,12.004900000000362,13.435500000000047,14.03360000000157]",1,PFNGSQVPBPJ,9,0,9,0,1,,,,,,,,,,
,,,,,,,,,,,,5f2046327f613f0e2c89c7dd,24,Kobieta,2022-06-11_09h27.35.692,task,2021.1.4,MacIntel,60.0024001,6299f149e92ead563fba08ef,62a443d81be75f39da88f0e3,,,,,,,,,,,,,9,,,,,,,,,,Task,24,(2x2) + 5,9,,,,,,,,,,,,,,,,,,,1,,,,,,,,,,,,,,,,,,,,,,,"[""9""]",1,[2.8479999999999563],0,0,0,23,1,,,,,,,,,,,,,,,,,,,,,,,,,,
,,,,,,,,,,,X V Q F H G B L J M P D K C T S W R N Z,5f2046327f613f0e2c89c7dd,24,Kobieta,2022-06-11_09h27.35.692,task,2021.1.4,MacIntel,60.0024001,6299f149e92ead563fba08ef,62a443d81be75f39da88f0e3,,,,,,,,,,,,,,,,,,,,,,,,,,,,,,,,,,,,,,,,,,,,,,,,,,,,,,,,,,,,,,,,,,,,,,,,,,,,0,0,0,0,1,,,,,,,,,,,,,,,,,,,,,
,,,,,,,,,,,,5f2046327f613f0e2c89c7dd,24,Kobieta,2022-06-11_09h27.35.692,task,2021.1.4,MacIntel,60.0024001,6299f149e92ead563fba08ef,62a443d81be75f39da88f0e3,,,,,,,,,,,,,0,,,,,,,,,,Task,2,(2x2) - 2,2,,,,,,,,,,,,,,,,,,,0,,,,,,,,,,,,,,,,,,,,,,,"[""0""]",0,[1.5720999999996366],0,0,0,1,1,,,,,,,,,,,,,,,,,,,,,,,,,,
,,,,,,,,,,,,5f2046327f613f0e2c89c7dd,24,Kobieta,2022-06-11_09h27.35.692,task,2021.1.4,MacIntel,60.0024001,6299f149e92ead563fba08ef,62a443d81be75f39da88f0e3,,,,,,,,,,,,,9,,,,,,,,,,Task,40,(7x2) - 5,9,,,,,,,,,,,,,,,,,,,1,,,,,,,,,,,,,,,,,,,,,,,"[""9""]",1,[7.139499999999998],0,1,1,39,1,,,,,,,,,,,,,,,,,,,,,,,,,,
,,,,,,,,,,,X V Q F H G B L J M P D K C T S W R N Z,5f2046327f613f0e2c89c7dd,24,Kobieta,2022-06-11_09h27.35.692,task,2021.1.4,MacIntel,60.0024001,6299f149e92ead563fba08ef,62a443d81be75f39da88f0e3,,,,,,,,,,,,,,,,,,,,,,,,,,,,,,,,,,,,,,,,,,,,,,,,,,,,,,,,,,,,,,,,,,,,,,,,,,,,1,0,1,0,1,,,,,,,,,,,,,,,,,,,,,
,,,,,,,,,,,,5f2046327f613f0e2c89c7dd,24,Kobieta,2022-06-11_09h27.35.692,task,2021.1.4,MacIntel,60.0024001,6299f149e92ead563fba08ef,62a443d81be75f39da88f0e3,,,,,,,,,,,,,5,,,,,,,,,,Task,12,(4x4) - 11,5,,,,,,,,,,,,,,,,,,,1,,,,,,,,,,,,,,,,,,,,,,,"[""5""]",1,[4.0499999999999545],0,0,0,11,1,,,,,,,,,,,,,,,,,,,,,,,,,,
,,,,,,,,,,,X V Q F H G B L J M P D K C T S W R N Z,5f2046327f613f0e2c89c7dd,24,Kobieta,2022-06-11_09h27.35.692,task,2021.1.4,MacIntel,60.0024001,6299f149e92ead563fba08ef,62a443d81be75f39da88f0e3,,,,,,,,,,,,,,,,,,,,,,,,,,,,,,,,,,,,,,,,,,,,,,,,,,,,,,,,,,,,,,,,,,,,,,,,,,,,2,0,2,0,1,,,,,,,,,,,,,,,,,,,,,
,,,,,,,,,,,,5f2046327f613f0e2c89c7dd,24,Kobieta,2022-06-11_09h27.35.692,task,2021.1.4,MacIntel,60.0024001,6299f149e92ead563fba08ef,62a443d81be75f39da88f0e3,,,,,,,,,,,,,6,,,,,,,,,,Task,13,(3x4) - 6,6,,,,,,,,,,,,,,,,,,,1,,,,,,,,,,,,,,,,,,,,,,,"[""6""]",1,[4.001999999999953],0,0,0,12,1,,,,,,,,,,,,,,,,,,,,,,,,,,
,,,,,,,,,,,X V Q F H G B L J M P D K C T S W R N Z,5f2046327f613f0e2c89c7dd,24,Kobieta,2022-06-11_09h27.35.692,task,2021.1.4,MacIntel,60.0024001,6299f149e92ead563fba08ef,62a443d81be75f39da88f0e3,,,,,,,,,,,,,,,,,,,,,,,,,,,,,,,,,,,,,,,,,,,,,,,,,,,,,,,,,,,,,,,,,,,,,,,,,,,,3,0,3,0,1,,,,,,,,,,,,,,,,,,,,,
,,,,,,,,,,,,5f2046327f613f0e2c89c7dd,24,Kobieta,2022-06-11_09h27.35.692,task,2021.1.4,MacIntel,60.0024001,6299f149e92ead563fba08ef,62a443d81be75f39da88f0e3,,,,,,,,,,,,,3,,,,,,,,,,Task,27,(3/3) + 2,3,,,,,,,,,,,,,,,,,,,1,,,,,,,,,,,,,,,,,,,,,,,"[""3""]",1,[3.0151999999993677],0,0,0,26,1,,,,,,,,,,,,,,,,,,,,,,,,,,
,,,,,,,,,,,X V Q F H G B L J M P D K C T S W R N Z,5f2046327f613f0e2c89c7dd,24,Kobieta,2022-06-11_09h27.35.692,task,2021.1.4,MacIntel,60.0024001,6299f149e92ead563fba08ef,62a443d81be75f39da88f0e3,,,,,,,,,,,,,,,,,,,,,,,,,,,,,,,,,,,,,,,,,,,,,,,,,,,,,,,,,,,,,,,,,,,,,,,,,,,,4,0,4,0,1,,,,,,,,,,,,,,,,,,,,,
,,,,,,,,,,,,5f2046327f613f0e2c89c7dd,24,Kobieta,2022-06-11_09h27.35.692,task,2021.1.4,MacIntel,60.0024001,6299f149e92ead563fba08ef,62a443d81be75f39da88f0e3,,,,,,,,,,,,,7,,,,,,,,,,Task,14,(2x2) + 3,7,,,,,,,,,,,,,,,,,,,1,,,,,,,,,,,,,,,,,,,,,,,"[""7""]",1,[5.30190000000016],0,0,0,13,1,,,,,,,,,,,,,,,,,,,,,,,,,,
,,,,,,,,,,,X V Q F H G B L J M P D K C T S W R N Z,5f2046327f613f0e2c89c7dd,24,Kobieta,2022-06-11_09h27.35.692,task,2021.1.4,MacIntel,60.0024001,6299f149e92ead563fba08ef,62a443d81be75f39da88f0e3,,,,,,,,,,,,,,,,,,,,,,,,,,,,,,,,,,,,,,,,,,,,,,,,,,,,,,,,,,,,,,,,,,,,,,,,,,,,5,0,5,0,1,,,,,,,,,,,,,,,,,,,,,
,,,,,,,,,,,,5f2046327f613f0e2c89c7dd,24,Kobieta,2022-06-11_09h27.35.692,task,2021.1.4,MacIntel,60.0024001,6299f149e92ead563fba08ef,62a443d81be75f39da88f0e3,,,,,,,,,,,,,8,,,,,,,,,,Task,23,(2x3) + 2,8,,,,,,,,,,,,,,,,,,,1,,,,,,,,,,,,,,,,,,,,,,,"[""8""]",1,[2.2651999999991403],0,0,0,22,1,,,,,,,,,,,,,,,,,,,,,,,,,,
,,,,,,,,,,,X V Q F H G B L J M P D K C T S W R N Z,5f2046327f613f0e2c89c7dd,24,Kobieta,2022-06-11_09h27.35.692,task,2021.1.4,MacIntel,60.0024001,6299f149e92ead563fba08ef,62a443d81be75f39da88f0e3,,,,,,,,,,,,,,,,,,,,,,,,,,,,,,,,,,,,,,,,,,,,,,,,,,,,,,,,,,,,,,,,,,,,,,,,,,,,6,0,6,0,1,,,,,,,,,,,,,,,,,,,,,
,,,,,,,,,,,,5f2046327f613f0e2c89c7dd,24,Kobieta,2022-06-11_09h27.35.692,task,2021.1.4,MacIntel,60.0024001,6299f149e92ead563fba08ef,62a443d81be75f39da88f0e3,,,,,,,,,,,,,8,,,,,,,,,,Task,15,(3x7) - 13,8,,,,,,,,,,,,,,,,,,,1,,,,,,,,,,,,,,,,,,,,,,,"[""8""]",1,[2.736200000000963],0,0,0,14,1,,,,,,,,,,,,,,,,,,,,,,,,,,
,,,,,,,,,,,X V Q F H G B L J M P D K C T S W R N Z,5f2046327f613f0e2c89c7dd,24,Kobieta,2022-06-11_09h27.35.692,task,2021.1.4,MacIntel,60.0024001,6299f149e92ead563fba08ef,62a443d81be75f39da88f0e3,,,,,,,,,,,,,,,,,,,,,,,,,,,,,,,,,,,,,,,,,,,,,,,,,,,,,,,,,,,,,,,,,,,,,,,,,,,,7,0,7,0,1,,,,,,,,,,,,,,,,,,,,,
,,,,,,,,,,,,5f2046327f613f0e2c89c7dd,24,Kobieta,2022-06-11_09h27.35.692,task,2021.1.4,MacIntel,60.0024001,6299f149e92ead563fba08ef,62a443d81be75f39da88f0e3,,,,,,,,,,,,,5,,,,,,,,,,Task,29,(3x8) - 19 ,5,,,,,,,,,,,,,,,,,,,1,,,,,,,,,,,,,,,,,,,,,,,"[""5""]",1,[7.347400000000334],0,0,0,28,1,,,,,,,,,,,,,,,,,,,,,,,,,,
,,,,,,,,,,,X V Q F H G B L J M P D K C T S W R N Z,5f2046327f613f0e2c89c7dd,24,Kobieta,2022-06-11_09h27.35.692,task,2021.1.4,MacIntel,60.0024001,6299f149e92ead563fba08ef,62a443d81be75f39da88f0e3,,,,,,,,,,,,,,,,,,,,,,,,,,,,,,,,,,,,,,,,,,,,,,,,,,,,,,,,,,,,,,,,,,,,,,,,,,,,8,0,8,0,1,,,,,,,,,,,,,,,,,,,,,
,,,,,,,,,,,,5f2046327f613f0e2c89c7dd,24,Kobieta,2022-06-11_09h27.35.692,task,2021.1.4,MacIntel,60.0024001,6299f149e92ead563fba08ef,62a443d81be75f39da88f0e3,,,,,,,,,,,,,3,,,,,,,,,,Task,27,(3/3) + 2,3,,,,,,,,,,,,,,,,,,,1,,,,,,,,,,,,,,,,,,,,,,,"[""3""]",1,[4.215700000001107],0,0,0,26,1,,,,,,,,,,,,,,,,,,,,,,,,,,
,,,,,,,,,,,X V Q F H G B L J M P D K C T S W R N Z,5f2046327f613f0e2c89c7dd,24,Kobieta,2022-06-11_09h27.35.692,task,2021.1.4,MacIntel,60.0024001,6299f149e92ead563fba08ef,62a443d81be75f39da88f0e3,,,,,,,,,,,,,,,,,,,,,,,,,,,,,,,,,,,,,,,,,,,,,,,,,,,,,,,,,,,,,,,,,,,,,,,,,,,,9,0,9,0,1,,,,,,,,,,,,,,,,,,,,,
,,,,,,,,,,,,5f2046327f613f0e2c89c7dd,24,Kobieta,2022-06-11_09h27.35.692,task,2021.1.4,MacIntel,60.0024001,6299f149e92ead563fba08ef,62a443d81be75f39da88f0e3,,,,,,,,,,,,,2,,,,,,,,,,Task,10,(2x5) - 8,2,,,,,,,,,,,,,,,,,,,1,,,,,,,,,,,,,,,,,,,,,,,"[""2""]",1,[2.036900000000287],0,0,0,9,1,,,,,,,,,,,,,,,,,,,,,,,,,,
,,,,,,,,,,,X V Q F H G B L J M P D K C T S W R N Z,5f2046327f613f0e2c89c7dd,24,Kobieta,2022-06-11_09h27.35.692,task,2021.1.4,MacIntel,60.0024001,6299f149e92ead563fba08ef,62a443d81be75f39da88f0e3,,,,,,,,,,,,,,,,,,,,,,,,,,,,,,,,,,,,,,,,,,,,,,,,,,,,,,,,,,,,,,,,,,,,,,,,,,,,10,0,10,0,1,,,,,,,,,,,,,,,,,,,,,
,,,,,,,,,,,,5f2046327f613f0e2c89c7dd,24,Kobieta,2022-06-11_09h27.35.692,task,2021.1.4,MacIntel,60.0024001,6299f149e92ead563fba08ef,62a443d81be75f39da88f0e3,,,,,,,,,,,,,1,,,,,,,,,,Task,34,(9/3) - 2,1,,,,,,,,,,,,,,,,,,,1,,,,,,,,,,,,,,,,,,,,,,,"[""1""]",1,[2.565199999999095],0,0,0,33,1,,,,,,,,,,,,,,,,,,,,,,,,,,
,,,,,,,,,,,X V Q F H G B L J M P D K C T S W R N Z,5f2046327f613f0e2c89c7dd,24,Kobieta,2022-06-11_09h27.35.692,task,2021.1.4,MacIntel,60.0024001,6299f149e92ead563fba08ef,62a443d81be75f39da88f0e3,,,,,,,,,,,,,,,,,,,,,,,,,,,,,,,,,,,,,,,,,,,,,,,,,,,,,,,,,,,,,,,,,,,,,,,,,,,,11,0,11,0,1,,,,,,,,,,,,,,,,,,,,,
,,,,,,,,,,,,5f2046327f613f0e2c89c7dd,24,Kobieta,2022-06-11_09h27.35.692,task,2021.1.4,MacIntel,60.0024001,6299f149e92ead563fba08ef,62a443d81be75f39da88f0e3,,,,,,,,,,,,,,,,,,,,,,,,,,,,,,,,,,,,,,,,,,,,,,,,,,,,,,,,,,,,,,,,,,,,,,,,,,,,,,,,,nwqxgbcgrcmx,"[""n"",""w"",""q"",""x"",""g"",""b"",""c"",""g"",""r"",""c"",""m"",""x""]",0,"[2.834599999999682,3.3174000000003616,3.9401999999993222,4.869699999999284,5.4668000000008306,7.138300000000754,7.433800000000929,9.71769999999924,10.033599999999751,12.066500000000133,12.519099999999753,13.034199999999373,14.589800000000878]",1,NWQXGBCGRCMX,10,0,10,0,1,,,,,,,,,,
,,,,,,,,,,,,5f2046327f613f0e2c89c7dd,24,Kobieta,2022-06-11_09h27.35.692,task,2021.1.4,MacIntel,60.0024001,6299f149e92ead563fba08ef,62a443d81be75f39da88f0e3,,,,,,,,,,,,,8,,,,,,,,,,Task,39,(5x3) - 7,8,,,,,,,,,,,,,,,,,,,1,,,,,,,,,,,,,,,,,,,,,,,"[""8""]",1,[8.203400000000329],0,0,0,38,1,,,,,,,,,,,,,,,,,,,,,,,,,,
,,,,,,,,,,,X V Q F H G B L J M P D K C T S W R N Z,5f2046327f613f0e2c89c7dd,24,Kobieta,2022-06-11_09h27.35.692,task,2021.1.4,MacIntel,60.0024001,6299f149e92ead563fba08ef,62a443d81be75f39da88f0e3,,,,,,,,,,,,,,,,,,,,,,,,,,,,,,,,,,,,,,,,,,,,,,,,,,,,,,,,,,,,,,,,,,,,,,,,,,,,0,0,0,0,1,,,,,,,,,,,,,,,,,,,,,
,,,,,,,,,,,,5f2046327f613f0e2c89c7dd,24,Kobieta,2022-06-11_09h27.35.692,task,2021.1.4,MacIntel,60.0024001,6299f149e92ead563fba08ef,62a443d81be75f39da88f0e3,,,,,,,,,,,,,6,,,,,,,,,,Task,5,(2x3) + 0,6,,,,,,,,,,,,,,,,,,,1,,,,,,,,,,,,,,,,,,,,,,,"[""6""]",1,[1.822499999999991],0,0,0,4,1,,,,,,,,,,,,,,,,,,,,,,,,,,
,,,,,,,,,,,X V Q F H G B L J M P D K C T S W R N Z,5f2046327f613f0e2c89c7dd,24,Kobieta,2022-06-11_09h27.35.692,task,2021.1.4,MacIntel,60.0024001,6299f149e92ead563fba08ef,62a443d81be75f39da88f0e3,,,,,,,,,,,,,,,,,,,,,,,,,,,,,,,,,,,,,,,,,,,,,,,,,,,,,,,,,,,,,,,,,,,,,,,,,,,,1,0,1,0,1,,,,,,,,,,,,,,,,,,,,,
,,,,,,,,,,,,5f2046327f613f0e2c89c7dd,24,Kobieta,2022-06-11_09h27.35.692,task,2021.1.4,MacIntel,60.0024001,6299f149e92ead563fba08ef,62a443d81be75f39da88f0e3,,,,,,,,,,,,,2,,,,,,,,,,Task,26,(2x9) - 16,2,,,,,,,,,,,,,,,,,,,1,,,,,,,,,,,,,,,,,,,,,,,"[""2""]",1,[6.532199999999193],0,0,0,25,1,,,,,,,,,,,,,,,,,,,,,,,,,,
,,,,,,,,,,,X V Q F H G B L J M P D K C T S W R N Z,5f2046327f613f0e2c89c7dd,24,Kobieta,2022-06-11_09h27.35.692,task,2021.1.4,MacIntel,60.0024001,6299f149e92ead563fba08ef,62a443d81be75f39da88f0e3,,,,,,,,,,,,,,,,,,,,,,,,,,,,,,,,,,,,,,,,,,,,,,,,,,,,,,,,,,,,,,,,,,,,,,,,,,,,2,0,2,0,1,,,,,,,,,,,,,,,,,,,,,
,,,,,,,,,,,,5f2046327f613f0e2c89c7dd,24,Kobieta,2022-06-11_09h27.35.692,task,2021.1.4,MacIntel,60.0024001,6299f149e92ead563fba08ef,62a443d81be75f39da88f0e3,,,,,,,,,,,,,4,,,,,,,,,,Task,21,(10/2) - 1,4,,,,,,,,,,,,,,,,,,,1,,,,,,,,,,,,,,,,,,,,,,,"[""4""]",1,[2.320100000001503],0,0,0,20,1,,,,,,,,,,,,,,,,,,,,,,,,,,
,,,,,,,,,,,X V Q F H G B L J M P D K C T S W R N Z,5f2046327f613f0e2c89c7dd,24,Kobieta,2022-06-11_09h27.35.692,task,2021.1.4,MacIntel,60.0024001,6299f149e92ead563fba08ef,62a443d81be75f39da88f0e3,,,,,,,,,,,,,,,,,,,,,,,,,,,,,,,,,,,,,,,,,,,,,,,,,,,,,,,,,,,,,,,,,,,,,,,,,,,,3,0,3,0,1,,,,,,,,,,,,,,,,,,,,,
,,,,,,,,,,,,5f2046327f613f0e2c89c7dd,24,Kobieta,2022-06-11_09h27.35.692,task,2021.1.4,MacIntel,60.0024001,6299f149e92ead563fba08ef,62a443d81be75f39da88f0e3,,,,,,,,,,,,,4,,,,,,,,,,Task,28,(2x5) - 6,4,,,,,,,,,,,,,,,,,,,1,,,,,,,,,,,,,,,,,,,,,,,"[""4""]",1,[3.7507999999988897],0,0,0,27,1,,,,,,,,,,,,,,,,,,,,,,,,,,
,,,,,,,,,,,X V Q F H G B L J M P D K C T S W R N Z,5f2046327f613f0e2c89c7dd,24,Kobieta,2022-06-11_09h27.35.692,task,2021.1.4,MacIntel,60.0024001,6299f149e92ead563fba08ef,62a443d81be75f39da88f0e3,,,,,,,,,,,,,,,,,,,,,,,,,,,,,,,,,,,,,,,,,,,,,,,,,,,,,,,,,,,,,,,,,,,,,,,,,,,,4,0,4,0,1,,,,,,,,,,,,,,,,,,,,,
,,,,,,,,,,,,5f2046327f613f0e2c89c7dd,24,Kobieta,2022-06-11_09h27.35.692,task,2021.1.4,MacIntel,60.0024001,6299f149e92ead563fba08ef,62a443d81be75f39da88f0e3,,,,,,,,,,,,,8,,,,,,,,,,Task,23,(2x3) + 2,8,,,,,,,,,,,,,,,,,,,1,,,,,,,,,,,,,,,,,,,,,,,"[""8""]",1,[2.3858000000006996],0,0,0,22,1,,,,,,,,,,,,,,,,,,,,,,,,,,
,,,,,,,,,,,X V Q F H G B L J M P D K C T S W R N Z,5f2046327f613f0e2c89c7dd,24,Kobieta,2022-06-11_09h27.35.692,task,2021.1.4,MacIntel,60.0024001,6299f149e92ead563fba08ef,62a443d81be75f39da88f0e3,,,,,,,,,,,,,,,,,,,,,,,,,,,,,,,,,,,,,,,,,,,,,,,,,,,,,,,,,,,,,,,,,,,,,,,,,,,,5,0,5,0,1,,,,,,,,,,,,,,,,,,,,,
,,,,,,,,,,,,5f2046327f613f0e2c89c7dd,24,Kobieta,2022-06-11_09h27.35.692,task,2021.1.4,MacIntel,60.0024001,6299f149e92ead563fba08ef,62a443d81be75f39da88f0e3,,,,,,,,,,,,,7,,,,,,,,,,Task,31,(4/2) + 5,7,,,,,,,,,,,,,,,,,,,1,,,,,,,,,,,,,,,,,,,,,,,"[""7""]",1,[5.933900000000449],0,0,0,30,1,,,,,,,,,,,,,,,,,,,,,,,,,,
,,,,,,,,,,,X V Q F H G B L J M P D K C T S W R N Z,5f2046327f613f0e2c89c7dd,24,Kobieta,2022-06-11_09h27.35.692,task,2021.1.4,MacIntel,60.0024001,6299f149e92ead563fba08ef,62a443d81be75f39da88f0e3,,,,,,,,,,,,,,,,,,,,,,,,,,,,,,,,,,,,,,,,,,,,,,,,,,,,,,,,,,,,,,,,,,,,,,,,,,,,6,0,6,0,1,,,,,,,,,,,,,,,,,,,,,
,,,,,,,,,,,,5f2046327f613f0e2c89c7dd,24,Kobieta,2022-06-11_09h27.35.692,task,2021.1.4,MacIntel,60.0024001,6299f149e92ead563fba08ef,62a443d81be75f39da88f0e3,,,,,,,,,,,,,8,,,,,,,,,,Task,32,(8/2) + 4,8,,,,,,,,,,,,,,,,,,,1,,,,,,,,,,,,,,,,,,,,,,,"[""8""]",1,[2.5154999999999745],0,0,0,31,1,,,,,,,,,,,,,,,,,,,,,,,,,,
,,,,,,,,,,,X V Q F H G B L J M P D K C T S W R N Z,5f2046327f613f0e2c89c7dd,24,Kobieta,2022-06-11_09h27.35.692,task,2021.1.4,MacIntel,60.0024001,6299f149e92ead563fba08ef,62a443d81be75f39da88f0e3,,,,,,,,,,,,,,,,,,,,,,,,,,,,,,,,,,,,,,,,,,,,,,,,,,,,,,,,,,,,,,,,,,,,,,,,,,,,7,0,7,0,1,,,,,,,,,,,,,,,,,,,,,
,,,,,,,,,,,,5f2046327f613f0e2c89c7dd,24,Kobieta,2022-06-11_09h27.35.692,task,2021.1.4,MacIntel,60.0024001,6299f149e92ead563fba08ef,62a443d81be75f39da88f0e3,,,,,,,,,,,,,1,,,,,,,,,,Task,18,(16/4) - 3,1,,,,,,,,,,,,,,,,,,,1,,,,,,,,,,,,,,,,,,,,,,,"[""1""]",1,[9.438499999999976],0,0,0,17,1,,,,,,,,,,,,,,,,,,,,,,,,,,
,,,,,,,,,,,X V Q F H G B L J M P D K C T S W R N Z,5f2046327f613f0e2c89c7dd,24,Kobieta,2022-06-11_09h27.35.692,task,2021.1.4,MacIntel,60.0024001,6299f149e92ead563fba08ef,62a443d81be75f39da88f0e3,,,,,,,,,,,,,,,,,,,,,,,,,,,,,,,,,,,,,,,,,,,,,,,,,,,,,,,,,,,,,,,,,,,,,,,,,,,,8,0,8,0,1,,,,,,,,,,,,,,,,,,,,,
,,,,,,,,,,,,5f2046327f613f0e2c89c7dd,24,Kobieta,2022-06-11_09h27.35.692,task,2021.1.4,MacIntel,60.0024001,6299f149e92ead563fba08ef,62a443d81be75f39da88f0e3,,,,,,,,,,,,,7,,,,,,,,,,Task,14,(2x2) + 3,7,,,,,,,,,,,,,,,,,,,1,,,,,,,,,,,,,,,,,,,,,,,"[""7""]",1,[3.6988000000008014],0,0,0,13,1,,,,,,,,,,,,,,,,,,,,,,,,,,
,,,,,,,,,,,X V Q F H G B L J M P D K C T S W R N Z,5f2046327f613f0e2c89c7dd,24,Kobieta,2022-06-11_09h27.35.692,task,2021.1.4,MacIntel,60.0024001,6299f149e92ead563fba08ef,62a443d81be75f39da88f0e3,,,,,,,,,,,,,,,,,,,,,,,,,,,,,,,,,,,,,,,,,,,,,,,,,,,,,,,,,,,,,,,,,,,,,,,,,,,,9,0,9,0,1,,,,,,,,,,,,,,,,,,,,,
,,,,,,,,,,,,5f2046327f613f0e2c89c7dd,24,Kobieta,2022-06-11_09h27.35.692,task,2021.1.4,MacIntel,60.0024001,6299f149e92ead563fba08ef,62a443d81be75f39da88f0e3,,,,,,,,,,,,,1,,,,,,,,,,Task,9,(3x7) - 20,1,,,,,,,,,,,,,,,,,,,1,,,,,,,,,,,,,,,,,,,,,,,"[""1""]",1,[2.350500000000011],0,0,0,8,1,,,,,,,,,,,,,,,,,,,,,,,,,,
,,,,,,,,,,,X V Q F H G B L J M P D K C T S W R N Z,5f2046327f613f0e2c89c7dd,24,Kobieta,2022-06-11_09h27.35.692,task,2021.1.4,MacIntel,60.0024001,6299f149e92ead563fba08ef,62a443d81be75f39da88f0e3,,,,,,,,,,,,,,,,,,,,,,,,,,,,,,,,,,,,,,,,,,,,,,,,,,,,,,,,,,,,,,,,,,,,,,,,,,,,10,0,10,0,1,,,,,,,,,,,,,,,,,,,,,
,,,,,,,,,,,,5f2046327f613f0e2c89c7dd,24,Kobieta,2022-06-11_09h27.35.692,task,2021.1.4,MacIntel,60.0024001,6299f149e92ead563fba08ef,62a443d81be75f39da88f0e3,,,,,,,,,,,,,2,,,,,,,,,,Task,19,(6/2) - 1,2,,,,,,,,,,,,,,,,,,,1,,,,,,,,,,,,,,,,,,,,,,,"[""2""]",1,[4.054499999999962],0,0,0,18,1,,,,,,,,,,,,,,,,,,,,,,,,,,
,,,,,,,,,,,X V Q F H G B L J M P D K C T S W R N Z,5f2046327f613f0e2c89c7dd,24,Kobieta,2022-06-11_09h27.35.692,task,2021.1.4,MacIntel,60.0024001,6299f149e92ead563fba08ef,62a443d81be75f39da88f0e3,,,,,,,,,,,,,,,,,,,,,,,,,,,,,,,,,,,,,,,,,,,,,,,,,,,,,,,,,,,,,,,,,,,,,,,,,,,,11,0,11,0,1,,,,,,,,,,,,,,,,,,,,,
,,,,,,,,,,,,5f2046327f613f0e2c89c7dd,24,Kobieta,2022-06-11_09h27.35.692,task,2021.1.4,MacIntel,60.0024001,6299f149e92ead563fba08ef,62a443d81be75f39da88f0e3,,,,,,,,,,,,,7,,,,,,,,,,Task,6,(12/2) + 1,7,,,,,,,,,,,,,,,,,,,1,,,,,,,,,,,,,,,,,,,,,,,"[""7""]",1,[2.098099999999704],0,0,0,5,1,,,,,,,,,,,,,,,,,,,,,,,,,,
,,,,,,,,,,,X V Q F H G B L J M P D K C T S W R N Z,5f2046327f613f0e2c89c7dd,24,Kobieta,2022-06-11_09h27.35.692,task,2021.1.4,MacIntel,60.0024001,6299f149e92ead563fba08ef,62a443d81be75f39da88f0e3,,,,,,,,,,,,,,,,,,,,,,,,,,,,,,,,,,,,,,,,,,,,,,,,,,,,,,,,,,,,,,,,,,,,,,,,,,,,12,0,12,0,1,,,,,,,,,,,,,,,,,,,,,
