key_resp_15.keys,key_resp_15.rt,key_resp_16.keys,key_resp_16.rt,key_resp_4.keys,key_resp_4.rt,next_letter.thisRepN,next_letter.thisTrialN,next_letter.thisN,next_letter.thisIndex,next_letter.ran,letter,participant,Wiek*,Płeć,date,expName,psychopyVersion,OS,frameRate,study_id,session,simple_recall,key_resp_5.keys,key_resp_5.rt,simple_recall_corr,simple_recall_corrkeys,next_level.thisRepN,next_level.thisTrialN,next_level.thisN,next_level.thisIndex,next_level.ran,key_resp_2.keys,key_resp_2.rt,digit_answer,key_resp.keys,key_resp.corr,key_resp.rt,RT_list,next_equation.thisRepN,next_equation.thisTrialN,next_equation.thisN,next_equation.thisIndex,next_equation.ran,Task,Trial,Problem,Operation_answer,processing_score,sumRT,meanRT,sumdiff,sd,RT,key_resp_3.keys,key_resp_3.rt,repeat_practice.thisRepN,repeat_practice.thisTrialN,repeat_practice.thisN,repeat_practice.thisIndex,repeat_practice.ran,key_resp_6.keys,key_resp_6.rt,key_resp_11.keys,key_resp_11.corr,key_resp_11.rt,operation_correct,repeat_if_wrong_prac.thisRepN,repeat_if_wrong_prac.thisTrialN,repeat_if_wrong_prac.thisN,repeat_if_wrong_prac.thisIndex,repeat_if_wrong_prac.ran,span_size_prac.thisRepN,span_size_prac.thisTrialN,span_size_prac.thisN,span_size_prac.thisIndex,span_size_prac.ran,complex_recall_practice,key_resp_9.keys,key_resp_9.corr,key_resp_9.rt,complex_prac_corr,span_recall_prac.thisRepN,span_recall_prac.thisTrialN,span_recall_prac.thisN,span_recall_prac.thisIndex,span_recall_prac.ran,key_resp_10.keys,key_resp_10.rt,key_resp_7.keys,key_resp_7.corr,repeat_if_wrong.thisRepN,repeat_if_wrong.thisTrialN,repeat_if_wrong.thisN,repeat_if_wrong.thisIndex,repeat_if_wrong.ran,key_resp_7.rt,span_size.thisRepN,span_size.thisTrialN,span_size.thisN,span_size.thisIndex,span_size.ran,complex_recall,key_resp_8.keys,key_resp_8.corr,key_resp_8.rt,complex_recall_corr,complex_recall_corrkeys,span_recall.thisRepN,span_recall.thisTrialN,span_recall.thisN,span_recall.thisIndex,span_recall.ran,key_resp_13.keys,key_resp_13.corr,random_loop.thisRepN,random_loop.thisTrialN,random_loop.thisN,random_loop.thisIndex,random_loop.ran,key_resp_13.rt,key_resp_12.keys,key_resp_12.rt
space,22.2808,space,2.8464,space,6.5494,0,0,0,0,1,X V Q F H G B L J M P D K C T S W R N Z,5f245764a137ac00089e6c7d,23,Kobieta,2022-06-11_09h29.01.862,task,2021.1.4,Win32,59.80503558,6299f149e92ead563fba08ef,62a4441c560db9182378d0dd,,,,,,,,,,,,,,,,,,,,,,,,,,,,,,,,,,,,,,,,,,,,,,,,,,,,,,,,,,,,,,,,,,,,,,,,,,,,,,,,,,,,,,,,,,,,,,,,,,,,,
,,,,,,1,0,1,0,1,X V Q F H G B L J M P D K C T S W R N Z,5f245764a137ac00089e6c7d,23,Kobieta,2022-06-11_09h29.01.862,task,2021.1.4,Win32,59.80503558,6299f149e92ead563fba08ef,62a4441c560db9182378d0dd,,,,,,,,,,,,,,,,,,,,,,,,,,,,,,,,,,,,,,,,,,,,,,,,,,,,,,,,,,,,,,,,,,,,,,,,,,,,,,,,,,,,,,,,,,,,,,,,,,,,,
,,,,,,,,,,,,5f245764a137ac00089e6c7d,23,Kobieta,2022-06-11_09h29.01.862,task,2021.1.4,Win32,59.80503558,6299f149e92ead563fba08ef,62a4441c560db9182378d0dd,zw,"[""z"",""w""]","[2.2914000000059644,2.9517000000178797,4.918300000011925]",1,ZW,0,0,0,0,1,,,,,,,,,,,,,,,,,,,,,,,,,,,,,,,,,,,,,,,,,,,,,,,,,,,,,,,,,,,,,,,,,,,,,,,,,,,,,,,,,,,,,,,,,,,
,,,,,,0,0,0,0,1,X V Q F H G B L J M P D K C T S W R N Z,5f245764a137ac00089e6c7d,23,Kobieta,2022-06-11_09h29.01.862,task,2021.1.4,Win32,59.80503558,6299f149e92ead563fba08ef,62a4441c560db9182378d0dd,,,,,,,,,,,,,,,,,,,,,,,,,,,,,,,,,,,,,,,,,,,,,,,,,,,,,,,,,,,,,,,,,,,,,,,,,,,,,,,,,,,,,,,,,,,,,,,,,,,,,
,,,,,,1,0,1,0,1,X V Q F H G B L J M P D K C T S W R N Z,5f245764a137ac00089e6c7d,23,Kobieta,2022-06-11_09h29.01.862,task,2021.1.4,Win32,59.80503558,6299f149e92ead563fba08ef,62a4441c560db9182378d0dd,,,,,,,,,,,,,,,,,,,,,,,,,,,,,,,,,,,,,,,,,,,,,,,,,,,,,,,,,,,,,,,,,,,,,,,,,,,,,,,,,,,,,,,,,,,,,,,,,,,,,
,,,,,,,,,,,,5f245764a137ac00089e6c7d,23,Kobieta,2022-06-11_09h29.01.862,task,2021.1.4,Win32,59.80503558,6299f149e92ead563fba08ef,62a4441c560db9182378d0dd,rv,"[""r"",""v""]","[0.9639999999999986,1.1846999999880836,3.2527999999821233]",1,RV,1,0,1,0,1,,,,,,,,,,,,,,,,,,,,,,,,,,,,,,,,,,,,,,,,,,,,,,,,,,,,,,,,,,,,,,,,,,,,,,,,,,,,,,,,,,,,,,,,,,,
,,,,,,0,0,0,0,1,X V Q F H G B L J M P D K C T S W R N Z,5f245764a137ac00089e6c7d,23,Kobieta,2022-06-11_09h29.01.862,task,2021.1.4,Win32,59.80503558,6299f149e92ead563fba08ef,62a4441c560db9182378d0dd,,,,,,,,,,,,,,,,,,,,,,,,,,,,,,,,,,,,,,,,,,,,,,,,,,,,,,,,,,,,,,,,,,,,,,,,,,,,,,,,,,,,,,,,,,,,,,,,,,,,,
,,,,,,1,0,1,0,1,X V Q F H G B L J M P D K C T S W R N Z,5f245764a137ac00089e6c7d,23,Kobieta,2022-06-11_09h29.01.862,task,2021.1.4,Win32,59.80503558,6299f149e92ead563fba08ef,62a4441c560db9182378d0dd,,,,,,,,,,,,,,,,,,,,,,,,,,,,,,,,,,,,,,,,,,,,,,,,,,,,,,,,,,,,,,,,,,,,,,,,,,,,,,,,,,,,,,,,,,,,,,,,,,,,,
,,,,,,2,0,2,0,1,X V Q F H G B L J M P D K C T S W R N Z,5f245764a137ac00089e6c7d,23,Kobieta,2022-06-11_09h29.01.862,task,2021.1.4,Win32,59.80503558,6299f149e92ead563fba08ef,62a4441c560db9182378d0dd,,,,,,,,,,,,,,,,,,,,,,,,,,,,,,,,,,,,,,,,,,,,,,,,,,,,,,,,,,,,,,,,,,,,,,,,,,,,,,,,,,,,,,,,,,,,,,,,,,,,,
,,,,,,,,,,,,5f245764a137ac00089e6c7d,23,Kobieta,2022-06-11_09h29.01.862,task,2021.1.4,Win32,59.80503558,6299f149e92ead563fba08ef,62a4441c560db9182378d0dd,cgg,"[""c"",""g"",""g""]","[0.6310000000000002,1.0848999999761588,1.248399999976158,1.433599999994037]",1,CGG,2,0,2,0,1,,,,,,,,,,,,,,,,,,,,,,,,,,,,,,,,,,,,,,,,,,,,,,,,,,,,,,,,,,,,,,,,,,,,,,,,,,,,,,,,,,,,,,,,,,,
,,,,,,0,0,0,0,1,X V Q F H G B L J M P D K C T S W R N Z,5f245764a137ac00089e6c7d,23,Kobieta,2022-06-11_09h29.01.862,task,2021.1.4,Win32,59.80503558,6299f149e92ead563fba08ef,62a4441c560db9182378d0dd,,,,,,,,,,,,,,,,,,,,,,,,,,,,,,,,,,,,,,,,,,,,,,,,,,,,,,,,,,,,,,,,,,,,,,,,,,,,,,,,,,,,,,,,,,,,,,,,,,,,,
,,,,,,1,0,1,0,1,X V Q F H G B L J M P D K C T S W R N Z,5f245764a137ac00089e6c7d,23,Kobieta,2022-06-11_09h29.01.862,task,2021.1.4,Win32,59.80503558,6299f149e92ead563fba08ef,62a4441c560db9182378d0dd,,,,,,,,,,,,,,,,,,,,,,,,,,,,,,,,,,,,,,,,,,,,,,,,,,,,,,,,,,,,,,,,,,,,,,,,,,,,,,,,,,,,,,,,,,,,,,,,,,,,,
,,,,,,2,0,2,0,1,X V Q F H G B L J M P D K C T S W R N Z,5f245764a137ac00089e6c7d,23,Kobieta,2022-06-11_09h29.01.862,task,2021.1.4,Win32,59.80503558,6299f149e92ead563fba08ef,62a4441c560db9182378d0dd,,,,,,,,,,,,,,,,,,,,,,,,,,,,,,,,,,,,,,,,,,,,,,,,,,,,,,,,,,,,,,,,,,,,,,,,,,,,,,,,,,,,,,,,,,,,,,,,,,,,,
,,,,,,,,,,,,5f245764a137ac00089e6c7d,23,Kobieta,2022-06-11_09h29.01.862,task,2021.1.4,Win32,59.80503558,6299f149e92ead563fba08ef,62a4441c560db9182378d0dd,ttl,"[""t"",""t"",""l""]","[0.4148000000119154,0.5814999999999984,1.253900000005963,2.73780000001193]",1,TTL,3,0,3,0,1,,,,,,,,,,,,,,,,,,,,,,,,,,,,,,,,,,,,,,,,,,,,,,,,,,,,,,,,,,,,,,,,,,,,,,,,,,,,,,,,,,,,,,,,,,,
,,,,,,0,0,0,0,1,X V Q F H G B L J M P D K C T S W R N Z,5f245764a137ac00089e6c7d,23,Kobieta,2022-06-11_09h29.01.862,task,2021.1.4,Win32,59.80503558,6299f149e92ead563fba08ef,62a4441c560db9182378d0dd,,,,,,,,,,,,,,,,,,,,,,,,,,,,,,,,,,,,,,,,,,,,,,,,,,,,,,,,,,,,,,,,,,,,,,,,,,,,,,,,,,,,,,,,,,,,,,,,,,,,,
,,,,,,1,0,1,0,1,X V Q F H G B L J M P D K C T S W R N Z,5f245764a137ac00089e6c7d,23,Kobieta,2022-06-11_09h29.01.862,task,2021.1.4,Win32,59.80503558,6299f149e92ead563fba08ef,62a4441c560db9182378d0dd,,,,,,,,,,,,,,,,,,,,,,,,,,,,,,,,,,,,,,,,,,,,,,,,,,,,,,,,,,,,,,,,,,,,,,,,,,,,,,,,,,,,,,,,,,,,,,,,,,,,,
,,,,,,2,0,2,0,1,X V Q F H G B L J M P D K C T S W R N Z,5f245764a137ac00089e6c7d,23,Kobieta,2022-06-11_09h29.01.862,task,2021.1.4,Win32,59.80503558,6299f149e92ead563fba08ef,62a4441c560db9182378d0dd,,,,,,,,,,,,,,,,,,,,,,,,,,,,,,,,,,,,,,,,,,,,,,,,,,,,,,,,,,,,,,,,,,,,,,,,,,,,,,,,,,,,,,,,,,,,,,,,,,,,,
,,,,,,3,0,3,0,1,X V Q F H G B L J M P D K C T S W R N Z,5f245764a137ac00089e6c7d,23,Kobieta,2022-06-11_09h29.01.862,task,2021.1.4,Win32,59.80503558,6299f149e92ead563fba08ef,62a4441c560db9182378d0dd,,,,,,,,,,,,,,,,,,,,,,,,,,,,,,,,,,,,,,,,,,,,,,,,,,,,,,,,,,,,,,,,,,,,,,,,,,,,,,,,,,,,,,,,,,,,,,,,,,,,,
,,,,,,,,,,,,5f245764a137ac00089e6c7d,23,Kobieta,2022-06-11_09h29.01.862,task,2021.1.4,Win32,59.80503558,6299f149e92ead563fba08ef,62a4441c560db9182378d0dd,vgzr,"[""v"",""g"",""z"",""r""]","[0.5643999999761604,0.8978999999761612,1.2418999999761553,1.6082999999821226,2.3977999999821265]",1,VGZR,4,0,4,0,1,,,,,,,,,,,,,,,,,,,,,,,,,,,,,,,,,,,,,,,,,,,,,,,,,,,,,,,,,,,,,,,,,,,,,,,,,,,,,,,,,,,,,,,,,,,
,,,,,,0,0,0,0,1,X V Q F H G B L J M P D K C T S W R N Z,5f245764a137ac00089e6c7d,23,Kobieta,2022-06-11_09h29.01.862,task,2021.1.4,Win32,59.80503558,6299f149e92ead563fba08ef,62a4441c560db9182378d0dd,,,,,,,,,,,,,,,,,,,,,,,,,,,,,,,,,,,,,,,,,,,,,,,,,,,,,,,,,,,,,,,,,,,,,,,,,,,,,,,,,,,,,,,,,,,,,,,,,,,,,
,,,,,,1,0,1,0,1,X V Q F H G B L J M P D K C T S W R N Z,5f245764a137ac00089e6c7d,23,Kobieta,2022-06-11_09h29.01.862,task,2021.1.4,Win32,59.80503558,6299f149e92ead563fba08ef,62a4441c560db9182378d0dd,,,,,,,,,,,,,,,,,,,,,,,,,,,,,,,,,,,,,,,,,,,,,,,,,,,,,,,,,,,,,,,,,,,,,,,,,,,,,,,,,,,,,,,,,,,,,,,,,,,,,
,,,,,,2,0,2,0,1,X V Q F H G B L J M P D K C T S W R N Z,5f245764a137ac00089e6c7d,23,Kobieta,2022-06-11_09h29.01.862,task,2021.1.4,Win32,59.80503558,6299f149e92ead563fba08ef,62a4441c560db9182378d0dd,,,,,,,,,,,,,,,,,,,,,,,,,,,,,,,,,,,,,,,,,,,,,,,,,,,,,,,,,,,,,,,,,,,,,,,,,,,,,,,,,,,,,,,,,,,,,,,,,,,,,
,,,,,,3,0,3,0,1,X V Q F H G B L J M P D K C T S W R N Z,5f245764a137ac00089e6c7d,23,Kobieta,2022-06-11_09h29.01.862,task,2021.1.4,Win32,59.80503558,6299f149e92ead563fba08ef,62a4441c560db9182378d0dd,,,,,,,,,,,,,,,,,,,,,,,,,,,,,,,,,,,,,,,,,,,,,,,,,,,,,,,,,,,,,,,,,,,,,,,,,,,,,,,,,,,,,,,,,,,,,,,,,,,,,
,,,,,,,,,,,,5f245764a137ac00089e6c7d,23,Kobieta,2022-06-11_09h29.01.862,task,2021.1.4,Win32,59.80503558,6299f149e92ead563fba08ef,62a4441c560db9182378d0dd,wvqg,"[""w"",""v"",""q"",""g""]","[0.6203999999761578,1.050799999982118,1.3815000000000026,1.7980999999940508,2.6025000000000063]",1,WVQG,5,0,5,0,1,,,,,,,,,,,,,,,,,,,,,,,,,,,,,,,,,,,,,,,,,,,,,,,,,,,,,,,,,,,,,,,,,,,,,,,,,,,,,,,,,,,,,,,,,,,
,,,,,,0,0,0,0,1,X V Q F H G B L J M P D K C T S W R N Z,5f245764a137ac00089e6c7d,23,Kobieta,2022-06-11_09h29.01.862,task,2021.1.4,Win32,59.80503558,6299f149e92ead563fba08ef,62a4441c560db9182378d0dd,,,,,,,,,,,,,,,,,,,,,,,,,,,,,,,,,,,,,,,,,,,,,,,,,,,,,,,,,,,,,,,,,,,,,,,,,,,,,,,,,,,,,,,,,,,,,,,,,,,,,
,,,,,,1,0,1,0,1,X V Q F H G B L J M P D K C T S W R N Z,5f245764a137ac00089e6c7d,23,Kobieta,2022-06-11_09h29.01.862,task,2021.1.4,Win32,59.80503558,6299f149e92ead563fba08ef,62a4441c560db9182378d0dd,,,,,,,,,,,,,,,,,,,,,,,,,,,,,,,,,,,,,,,,,,,,,,,,,,,,,,,,,,,,,,,,,,,,,,,,,,,,,,,,,,,,,,,,,,,,,,,,,,,,,
,,,,,,2,0,2,0,1,X V Q F H G B L J M P D K C T S W R N Z,5f245764a137ac00089e6c7d,23,Kobieta,2022-06-11_09h29.01.862,task,2021.1.4,Win32,59.80503558,6299f149e92ead563fba08ef,62a4441c560db9182378d0dd,,,,,,,,,,,,,,,,,,,,,,,,,,,,,,,,,,,,,,,,,,,,,,,,,,,,,,,,,,,,,,,,,,,,,,,,,,,,,,,,,,,,,,,,,,,,,,,,,,,,,
,,,,,,3,0,3,0,1,X V Q F H G B L J M P D K C T S W R N Z,5f245764a137ac00089e6c7d,23,Kobieta,2022-06-11_09h29.01.862,task,2021.1.4,Win32,59.80503558,6299f149e92ead563fba08ef,62a4441c560db9182378d0dd,,,,,,,,,,,,,,,,,,,,,,,,,,,,,,,,,,,,,,,,,,,,,,,,,,,,,,,,,,,,,,,,,,,,,,,,,,,,,,,,,,,,,,,,,,,,,,,,,,,,,
,,,,,,4,0,4,0,1,X V Q F H G B L J M P D K C T S W R N Z,5f245764a137ac00089e6c7d,23,Kobieta,2022-06-11_09h29.01.862,task,2021.1.4,Win32,59.80503558,6299f149e92ead563fba08ef,62a4441c560db9182378d0dd,,,,,,,,,,,,,,,,,,,,,,,,,,,,,,,,,,,,,,,,,,,,,,,,,,,,,,,,,,,,,,,,,,,,,,,,,,,,,,,,,,,,,,,,,,,,,,,,,,,,,
,,,,,,,,,,,,5f245764a137ac00089e6c7d,23,Kobieta,2022-06-11_09h29.01.862,task,2021.1.4,Win32,59.80503558,6299f149e92ead563fba08ef,62a4441c560db9182378d0dd,znwzq,"[""z"",""n"",""w"",""z"",""q""]","[0.6183000000119279,1.1139000000059696,1.5504999999999995,2.0190000000000055,2.3693000000119184,27.66330000001193]",1,ZNWZQ,6,0,6,0,1,,,,,,,,,,,,,,,,,,,,,,,,,,,,,,,,,,,,,,,,,,,,,,,,,,,,,,,,,,,,,,,,,,,,,,,,,,,,,,,,,,,,,,,,,,,
,,,,,,0,0,0,0,1,X V Q F H G B L J M P D K C T S W R N Z,5f245764a137ac00089e6c7d,23,Kobieta,2022-06-11_09h29.01.862,task,2021.1.4,Win32,59.80503558,6299f149e92ead563fba08ef,62a4441c560db9182378d0dd,,,,,,,,,,,,,,,,,,,,,,,,,,,,,,,,,,,,,,,,,,,,,,,,,,,,,,,,,,,,,,,,,,,,,,,,,,,,,,,,,,,,,,,,,,,,,,,,,,,,,
,,,,,,1,0,1,0,1,X V Q F H G B L J M P D K C T S W R N Z,5f245764a137ac00089e6c7d,23,Kobieta,2022-06-11_09h29.01.862,task,2021.1.4,Win32,59.80503558,6299f149e92ead563fba08ef,62a4441c560db9182378d0dd,,,,,,,,,,,,,,,,,,,,,,,,,,,,,,,,,,,,,,,,,,,,,,,,,,,,,,,,,,,,,,,,,,,,,,,,,,,,,,,,,,,,,,,,,,,,,,,,,,,,,
,,,,,,2,0,2,0,1,X V Q F H G B L J M P D K C T S W R N Z,5f245764a137ac00089e6c7d,23,Kobieta,2022-06-11_09h29.01.862,task,2021.1.4,Win32,59.80503558,6299f149e92ead563fba08ef,62a4441c560db9182378d0dd,,,,,,,,,,,,,,,,,,,,,,,,,,,,,,,,,,,,,,,,,,,,,,,,,,,,,,,,,,,,,,,,,,,,,,,,,,,,,,,,,,,,,,,,,,,,,,,,,,,,,
,,,,,,3,0,3,0,1,X V Q F H G B L J M P D K C T S W R N Z,5f245764a137ac00089e6c7d,23,Kobieta,2022-06-11_09h29.01.862,task,2021.1.4,Win32,59.80503558,6299f149e92ead563fba08ef,62a4441c560db9182378d0dd,,,,,,,,,,,,,,,,,,,,,,,,,,,,,,,,,,,,,,,,,,,,,,,,,,,,,,,,,,,,,,,,,,,,,,,,,,,,,,,,,,,,,,,,,,,,,,,,,,,,,
,,,,,,4,0,4,0,1,X V Q F H G B L J M P D K C T S W R N Z,5f245764a137ac00089e6c7d,23,Kobieta,2022-06-11_09h29.01.862,task,2021.1.4,Win32,59.80503558,6299f149e92ead563fba08ef,62a4441c560db9182378d0dd,,,,,,,,,,,,,,,,,,,,,,,,,,,,,,,,,,,,,,,,,,,,,,,,,,,,,,,,,,,,,,,,,,,,,,,,,,,,,,,,,,,,,,,,,,,,,,,,,,,,,
,,,,,,,,,,,,5f245764a137ac00089e6c7d,23,Kobieta,2022-06-11_09h29.01.862,task,2021.1.4,Win32,59.80503558,6299f149e92ead563fba08ef,62a4441c560db9182378d0dd,mkzfr,"[""m"",""k"",""z"",""f"",""r""]","[1.0840999999940522,1.4333999999761602,1.686000000000007,2.0178999999761658,2.300799999982118,3.3336999999880845]",1,MKZFR,7,0,7,0,1,,,,,,,,,,,,,,,,,,,,,,,,,,,,,,,,,,,,,,,,,,,,,,,,,,,,,,,,,,,,,,,,,,,,,,,,,,,,,,,,,,,,,,,,,,,
,,,,,,0,0,0,0,1,X V Q F H G B L J M P D K C T S W R N Z,5f245764a137ac00089e6c7d,23,Kobieta,2022-06-11_09h29.01.862,task,2021.1.4,Win32,59.80503558,6299f149e92ead563fba08ef,62a4441c560db9182378d0dd,,,,,,,,,,,,,,,,,,,,,,,,,,,,,,,,,,,,,,,,,,,,,,,,,,,,,,,,,,,,,,,,,,,,,,,,,,,,,,,,,,,,,,,,,,,,,,,,,,,,,
,,,,,,1,0,1,0,1,X V Q F H G B L J M P D K C T S W R N Z,5f245764a137ac00089e6c7d,23,Kobieta,2022-06-11_09h29.01.862,task,2021.1.4,Win32,59.80503558,6299f149e92ead563fba08ef,62a4441c560db9182378d0dd,,,,,,,,,,,,,,,,,,,,,,,,,,,,,,,,,,,,,,,,,,,,,,,,,,,,,,,,,,,,,,,,,,,,,,,,,,,,,,,,,,,,,,,,,,,,,,,,,,,,,
,,,,,,2,0,2,0,1,X V Q F H G B L J M P D K C T S W R N Z,5f245764a137ac00089e6c7d,23,Kobieta,2022-06-11_09h29.01.862,task,2021.1.4,Win32,59.80503558,6299f149e92ead563fba08ef,62a4441c560db9182378d0dd,,,,,,,,,,,,,,,,,,,,,,,,,,,,,,,,,,,,,,,,,,,,,,,,,,,,,,,,,,,,,,,,,,,,,,,,,,,,,,,,,,,,,,,,,,,,,,,,,,,,,
,,,,,,3,0,3,0,1,X V Q F H G B L J M P D K C T S W R N Z,5f245764a137ac00089e6c7d,23,Kobieta,2022-06-11_09h29.01.862,task,2021.1.4,Win32,59.80503558,6299f149e92ead563fba08ef,62a4441c560db9182378d0dd,,,,,,,,,,,,,,,,,,,,,,,,,,,,,,,,,,,,,,,,,,,,,,,,,,,,,,,,,,,,,,,,,,,,,,,,,,,,,,,,,,,,,,,,,,,,,,,,,,,,,
,,,,,,4,0,4,0,1,X V Q F H G B L J M P D K C T S W R N Z,5f245764a137ac00089e6c7d,23,Kobieta,2022-06-11_09h29.01.862,task,2021.1.4,Win32,59.80503558,6299f149e92ead563fba08ef,62a4441c560db9182378d0dd,,,,,,,,,,,,,,,,,,,,,,,,,,,,,,,,,,,,,,,,,,,,,,,,,,,,,,,,,,,,,,,,,,,,,,,,,,,,,,,,,,,,,,,,,,,,,,,,,,,,,
,,,,,,5,0,5,0,1,X V Q F H G B L J M P D K C T S W R N Z,5f245764a137ac00089e6c7d,23,Kobieta,2022-06-11_09h29.01.862,task,2021.1.4,Win32,59.80503558,6299f149e92ead563fba08ef,62a4441c560db9182378d0dd,,,,,,,,,,,,,,,,,,,,,,,,,,,,,,,,,,,,,,,,,,,,,,,,,,,,,,,,,,,,,,,,,,,,,,,,,,,,,,,,,,,,,,,,,,,,,,,,,,,,,
,,,,,,,,,,,,5f245764a137ac00089e6c7d,23,Kobieta,2022-06-11_09h29.01.862,task,2021.1.4,Win32,59.80503558,6299f149e92ead563fba08ef,62a4441c560db9182378d0dd,pmqmzm,"[""p"",""m"",""q"",""m"",""z"",""m""]","[0.40179999998213134,0.8361999999880823,1.156699999988092,1.4840999999940436,1.8722999999821184,2.223699999988071,5.236099999994053]",1,PMQMZM,8,0,8,0,1,,,,,,,,,,,,,,,,,,,,,,,,,,,,,,,,,,,,,,,,,,,,,,,,,,,,,,,,,,,,,,,,,,,,,,,,,,,,,,,,,,,,,,,,,,,
,,,,,,0,0,0,0,1,X V Q F H G B L J M P D K C T S W R N Z,5f245764a137ac00089e6c7d,23,Kobieta,2022-06-11_09h29.01.862,task,2021.1.4,Win32,59.80503558,6299f149e92ead563fba08ef,62a4441c560db9182378d0dd,,,,,,,,,,,,,,,,,,,,,,,,,,,,,,,,,,,,,,,,,,,,,,,,,,,,,,,,,,,,,,,,,,,,,,,,,,,,,,,,,,,,,,,,,,,,,,,,,,,,,
,,,,,,1,0,1,0,1,X V Q F H G B L J M P D K C T S W R N Z,5f245764a137ac00089e6c7d,23,Kobieta,2022-06-11_09h29.01.862,task,2021.1.4,Win32,59.80503558,6299f149e92ead563fba08ef,62a4441c560db9182378d0dd,,,,,,,,,,,,,,,,,,,,,,,,,,,,,,,,,,,,,,,,,,,,,,,,,,,,,,,,,,,,,,,,,,,,,,,,,,,,,,,,,,,,,,,,,,,,,,,,,,,,,
,,,,,,2,0,2,0,1,X V Q F H G B L J M P D K C T S W R N Z,5f245764a137ac00089e6c7d,23,Kobieta,2022-06-11_09h29.01.862,task,2021.1.4,Win32,59.80503558,6299f149e92ead563fba08ef,62a4441c560db9182378d0dd,,,,,,,,,,,,,,,,,,,,,,,,,,,,,,,,,,,,,,,,,,,,,,,,,,,,,,,,,,,,,,,,,,,,,,,,,,,,,,,,,,,,,,,,,,,,,,,,,,,,,
,,,,,,3,0,3,0,1,X V Q F H G B L J M P D K C T S W R N Z,5f245764a137ac00089e6c7d,23,Kobieta,2022-06-11_09h29.01.862,task,2021.1.4,Win32,59.80503558,6299f149e92ead563fba08ef,62a4441c560db9182378d0dd,,,,,,,,,,,,,,,,,,,,,,,,,,,,,,,,,,,,,,,,,,,,,,,,,,,,,,,,,,,,,,,,,,,,,,,,,,,,,,,,,,,,,,,,,,,,,,,,,,,,,
,,,,,,4,0,4,0,1,X V Q F H G B L J M P D K C T S W R N Z,5f245764a137ac00089e6c7d,23,Kobieta,2022-06-11_09h29.01.862,task,2021.1.4,Win32,59.80503558,6299f149e92ead563fba08ef,62a4441c560db9182378d0dd,,,,,,,,,,,,,,,,,,,,,,,,,,,,,,,,,,,,,,,,,,,,,,,,,,,,,,,,,,,,,,,,,,,,,,,,,,,,,,,,,,,,,,,,,,,,,,,,,,,,,
,,,,,,5,0,5,0,1,X V Q F H G B L J M P D K C T S W R N Z,5f245764a137ac00089e6c7d,23,Kobieta,2022-06-11_09h29.01.862,task,2021.1.4,Win32,59.80503558,6299f149e92ead563fba08ef,62a4441c560db9182378d0dd,,,,,,,,,,,,,,,,,,,,,,,,,,,,,,,,,,,,,,,,,,,,,,,,,,,,,,,,,,,,,,,,,,,,,,,,,,,,,,,,,,,,,,,,,,,,,,,,,,,,,
,,,,,,,,,,,,5f245764a137ac00089e6c7d,23,Kobieta,2022-06-11_09h29.01.862,task,2021.1.4,Win32,59.80503558,6299f149e92ead563fba08ef,62a4441c560db9182378d0dd,svbtjs,"[""s"",""v"",""b"",""t"",""j"",""s""]","[0.585399999976147,1.2079999999999984,2.276699999988068,2.584599999994026,2.9213999999761597,3.3058999999761625,8.990999999999985]",1,SVBTJS,9,0,9,0,1,,,,,,,,,,,,,,,,,,,,,,,,,,,,,,,,,,,,,,,,,,,,,,,,,,,,,,,,,,,,,,,,,,,,,,,,,,,,,,,,,,,,,,,,,,,
,,,,,,0,0,0,0,1,X V Q F H G B L J M P D K C T S W R N Z,5f245764a137ac00089e6c7d,23,Kobieta,2022-06-11_09h29.01.862,task,2021.1.4,Win32,59.80503558,6299f149e92ead563fba08ef,62a4441c560db9182378d0dd,,,,,,,,,,,,,,,,,,,,,,,,,,,,,,,,,,,,,,,,,,,,,,,,,,,,,,,,,,,,,,,,,,,,,,,,,,,,,,,,,,,,,,,,,,,,,,,,,,,,,
,,,,,,1,0,1,0,1,X V Q F H G B L J M P D K C T S W R N Z,5f245764a137ac00089e6c7d,23,Kobieta,2022-06-11_09h29.01.862,task,2021.1.4,Win32,59.80503558,6299f149e92ead563fba08ef,62a4441c560db9182378d0dd,,,,,,,,,,,,,,,,,,,,,,,,,,,,,,,,,,,,,,,,,,,,,,,,,,,,,,,,,,,,,,,,,,,,,,,,,,,,,,,,,,,,,,,,,,,,,,,,,,,,,
,,,,,,2,0,2,0,1,X V Q F H G B L J M P D K C T S W R N Z,5f245764a137ac00089e6c7d,23,Kobieta,2022-06-11_09h29.01.862,task,2021.1.4,Win32,59.80503558,6299f149e92ead563fba08ef,62a4441c560db9182378d0dd,,,,,,,,,,,,,,,,,,,,,,,,,,,,,,,,,,,,,,,,,,,,,,,,,,,,,,,,,,,,,,,,,,,,,,,,,,,,,,,,,,,,,,,,,,,,,,,,,,,,,
,,,,,,3,0,3,0,1,X V Q F H G B L J M P D K C T S W R N Z,5f245764a137ac00089e6c7d,23,Kobieta,2022-06-11_09h29.01.862,task,2021.1.4,Win32,59.80503558,6299f149e92ead563fba08ef,62a4441c560db9182378d0dd,,,,,,,,,,,,,,,,,,,,,,,,,,,,,,,,,,,,,,,,,,,,,,,,,,,,,,,,,,,,,,,,,,,,,,,,,,,,,,,,,,,,,,,,,,,,,,,,,,,,,
,,,,,,4,0,4,0,1,X V Q F H G B L J M P D K C T S W R N Z,5f245764a137ac00089e6c7d,23,Kobieta,2022-06-11_09h29.01.862,task,2021.1.4,Win32,59.80503558,6299f149e92ead563fba08ef,62a4441c560db9182378d0dd,,,,,,,,,,,,,,,,,,,,,,,,,,,,,,,,,,,,,,,,,,,,,,,,,,,,,,,,,,,,,,,,,,,,,,,,,,,,,,,,,,,,,,,,,,,,,,,,,,,,,
,,,,,,5,0,5,0,1,X V Q F H G B L J M P D K C T S W R N Z,5f245764a137ac00089e6c7d,23,Kobieta,2022-06-11_09h29.01.862,task,2021.1.4,Win32,59.80503558,6299f149e92ead563fba08ef,62a4441c560db9182378d0dd,,,,,,,,,,,,,,,,,,,,,,,,,,,,,,,,,,,,,,,,,,,,,,,,,,,,,,,,,,,,,,,,,,,,,,,,,,,,,,,,,,,,,,,,,,,,,,,,,,,,,
,,,,,,6,0,6,0,1,X V Q F H G B L J M P D K C T S W R N Z,5f245764a137ac00089e6c7d,23,Kobieta,2022-06-11_09h29.01.862,task,2021.1.4,Win32,59.80503558,6299f149e92ead563fba08ef,62a4441c560db9182378d0dd,,,,,,,,,,,,,,,,,,,,,,,,,,,,,,,,,,,,,,,,,,,,,,,,,,,,,,,,,,,,,,,,,,,,,,,,,,,,,,,,,,,,,,,,,,,,,,,,,,,,,
,,,,,,,,,,,,5f245764a137ac00089e6c7d,23,Kobieta,2022-06-11_09h29.01.862,task,2021.1.4,Win32,59.80503558,6299f149e92ead563fba08ef,62a4441c560db9182378d0dd,gmmdkxg,"[""g"",""m"",""m"",""d"",""k"",""x"",""g""]","[0.9595999999940545,1.1180000000000234,1.6858000000119375,1.8680000000000234,2.6245999999940466,2.904500000000013,3.4217000000178928,4.416500000000013]",1,GMMDKXG,10,0,10,0,1,,,,,,,,,,,,,,,,,,,,,,,,,,,,,,,,,,,,,,,,,,,,,,,,,,,,,,,,,,,,,,,,,,,,,,,,,,,,,,,,,,,,,,,,,,,
,,,,,,0,0,0,0,1,X V Q F H G B L J M P D K C T S W R N Z,5f245764a137ac00089e6c7d,23,Kobieta,2022-06-11_09h29.01.862,task,2021.1.4,Win32,59.80503558,6299f149e92ead563fba08ef,62a4441c560db9182378d0dd,,,,,,,,,,,,,,,,,,,,,,,,,,,,,,,,,,,,,,,,,,,,,,,,,,,,,,,,,,,,,,,,,,,,,,,,,,,,,,,,,,,,,,,,,,,,,,,,,,,,,
,,,,,,1,0,1,0,1,X V Q F H G B L J M P D K C T S W R N Z,5f245764a137ac00089e6c7d,23,Kobieta,2022-06-11_09h29.01.862,task,2021.1.4,Win32,59.80503558,6299f149e92ead563fba08ef,62a4441c560db9182378d0dd,,,,,,,,,,,,,,,,,,,,,,,,,,,,,,,,,,,,,,,,,,,,,,,,,,,,,,,,,,,,,,,,,,,,,,,,,,,,,,,,,,,,,,,,,,,,,,,,,,,,,
,,,,,,2,0,2,0,1,X V Q F H G B L J M P D K C T S W R N Z,5f245764a137ac00089e6c7d,23,Kobieta,2022-06-11_09h29.01.862,task,2021.1.4,Win32,59.80503558,6299f149e92ead563fba08ef,62a4441c560db9182378d0dd,,,,,,,,,,,,,,,,,,,,,,,,,,,,,,,,,,,,,,,,,,,,,,,,,,,,,,,,,,,,,,,,,,,,,,,,,,,,,,,,,,,,,,,,,,,,,,,,,,,,,
,,,,,,3,0,3,0,1,X V Q F H G B L J M P D K C T S W R N Z,5f245764a137ac00089e6c7d,23,Kobieta,2022-06-11_09h29.01.862,task,2021.1.4,Win32,59.80503558,6299f149e92ead563fba08ef,62a4441c560db9182378d0dd,,,,,,,,,,,,,,,,,,,,,,,,,,,,,,,,,,,,,,,,,,,,,,,,,,,,,,,,,,,,,,,,,,,,,,,,,,,,,,,,,,,,,,,,,,,,,,,,,,,,,
,,,,,,4,0,4,0,1,X V Q F H G B L J M P D K C T S W R N Z,5f245764a137ac00089e6c7d,23,Kobieta,2022-06-11_09h29.01.862,task,2021.1.4,Win32,59.80503558,6299f149e92ead563fba08ef,62a4441c560db9182378d0dd,,,,,,,,,,,,,,,,,,,,,,,,,,,,,,,,,,,,,,,,,,,,,,,,,,,,,,,,,,,,,,,,,,,,,,,,,,,,,,,,,,,,,,,,,,,,,,,,,,,,,
,,,,,,5,0,5,0,1,X V Q F H G B L J M P D K C T S W R N Z,5f245764a137ac00089e6c7d,23,Kobieta,2022-06-11_09h29.01.862,task,2021.1.4,Win32,59.80503558,6299f149e92ead563fba08ef,62a4441c560db9182378d0dd,,,,,,,,,,,,,,,,,,,,,,,,,,,,,,,,,,,,,,,,,,,,,,,,,,,,,,,,,,,,,,,,,,,,,,,,,,,,,,,,,,,,,,,,,,,,,,,,,,,,,
,,,,,,6,0,6,0,1,X V Q F H G B L J M P D K C T S W R N Z,5f245764a137ac00089e6c7d,23,Kobieta,2022-06-11_09h29.01.862,task,2021.1.4,Win32,59.80503558,6299f149e92ead563fba08ef,62a4441c560db9182378d0dd,,,,,,,,,,,,,,,,,,,,,,,,,,,,,,,,,,,,,,,,,,,,,,,,,,,,,,,,,,,,,,,,,,,,,,,,,,,,,,,,,,,,,,,,,,,,,,,,,,,,,
,,,,,,,,,,,,5f245764a137ac00089e6c7d,23,Kobieta,2022-06-11_09h29.01.862,task,2021.1.4,Win32,59.80503558,6299f149e92ead563fba08ef,62a4441c560db9182378d0dd,fmmqzq,"[""f"",""m"",""m"",""q"",""z"",""q""]","[4.038999999999987,4.3252000000178725,5.855800000011897,7.316099999994037,7.588900000005964,7.890999999999991,8.490099999994015]",0,FMVZQQZ,11,0,11,0,1,,,,,,,,,,,,,,,,,,,,,,,,,,,,,,,,,,,,,,,,,,,,,,,,,,,,,,,,,,,,,,,,,,,,,,,,,,,,,,,,,,,,,,,,,,,
,,,,,,0,0,0,0,1,X V Q F H G B L J M P D K C T S W R N Z,5f245764a137ac00089e6c7d,23,Kobieta,2022-06-11_09h29.01.862,task,2021.1.4,Win32,59.80503558,6299f149e92ead563fba08ef,62a4441c560db9182378d0dd,,,,,,,,,,,,,,,,,,,,,,,,,,,,,,,,,,,,,,,,,,,,,,,,,,,,,,,,,,,,,,,,,,,,,,,,,,,,,,,,,,,,,,,,,,,,,,,,,,,,,
,,,,,,1,0,1,0,1,X V Q F H G B L J M P D K C T S W R N Z,5f245764a137ac00089e6c7d,23,Kobieta,2022-06-11_09h29.01.862,task,2021.1.4,Win32,59.80503558,6299f149e92ead563fba08ef,62a4441c560db9182378d0dd,,,,,,,,,,,,,,,,,,,,,,,,,,,,,,,,,,,,,,,,,,,,,,,,,,,,,,,,,,,,,,,,,,,,,,,,,,,,,,,,,,,,,,,,,,,,,,,,,,,,,
,,,,,,2,0,2,0,1,X V Q F H G B L J M P D K C T S W R N Z,5f245764a137ac00089e6c7d,23,Kobieta,2022-06-11_09h29.01.862,task,2021.1.4,Win32,59.80503558,6299f149e92ead563fba08ef,62a4441c560db9182378d0dd,,,,,,,,,,,,,,,,,,,,,,,,,,,,,,,,,,,,,,,,,,,,,,,,,,,,,,,,,,,,,,,,,,,,,,,,,,,,,,,,,,,,,,,,,,,,,,,,,,,,,
,,,,,,3,0,3,0,1,X V Q F H G B L J M P D K C T S W R N Z,5f245764a137ac00089e6c7d,23,Kobieta,2022-06-11_09h29.01.862,task,2021.1.4,Win32,59.80503558,6299f149e92ead563fba08ef,62a4441c560db9182378d0dd,,,,,,,,,,,,,,,,,,,,,,,,,,,,,,,,,,,,,,,,,,,,,,,,,,,,,,,,,,,,,,,,,,,,,,,,,,,,,,,,,,,,,,,,,,,,,,,,,,,,,
,,,,,,4,0,4,0,1,X V Q F H G B L J M P D K C T S W R N Z,5f245764a137ac00089e6c7d,23,Kobieta,2022-06-11_09h29.01.862,task,2021.1.4,Win32,59.80503558,6299f149e92ead563fba08ef,62a4441c560db9182378d0dd,,,,,,,,,,,,,,,,,,,,,,,,,,,,,,,,,,,,,,,,,,,,,,,,,,,,,,,,,,,,,,,,,,,,,,,,,,,,,,,,,,,,,,,,,,,,,,,,,,,,,
,,,,,,5,0,5,0,1,X V Q F H G B L J M P D K C T S W R N Z,5f245764a137ac00089e6c7d,23,Kobieta,2022-06-11_09h29.01.862,task,2021.1.4,Win32,59.80503558,6299f149e92ead563fba08ef,62a4441c560db9182378d0dd,,,,,,,,,,,,,,,,,,,,,,,,,,,,,,,,,,,,,,,,,,,,,,,,,,,,,,,,,,,,,,,,,,,,,,,,,,,,,,,,,,,,,,,,,,,,,,,,,,,,,
,,,,,,6,0,6,0,1,X V Q F H G B L J M P D K C T S W R N Z,5f245764a137ac00089e6c7d,23,Kobieta,2022-06-11_09h29.01.862,task,2021.1.4,Win32,59.80503558,6299f149e92ead563fba08ef,62a4441c560db9182378d0dd,,,,,,,,,,,,,,,,,,,,,,,,,,,,,,,,,,,,,,,,,,,,,,,,,,,,,,,,,,,,,,,,,,,,,,,,,,,,,,,,,,,,,,,,,,,,,,,,,,,,,
,,,,,,,,,,,,5f245764a137ac00089e6c7d,23,Kobieta,2022-06-11_09h29.01.862,task,2021.1.4,Win32,59.80503558,6299f149e92ead563fba08ef,62a4441c560db9182378d0dd,vceltwu,"[""v"",""c"",""e"",""l"",""t"",""w"",""u""]","[0.7021999999880677,0.9679999999999893,1.2874999999999943,1.6389999999999816,1.9209999999999923,2.7750000000000057,3.070999999999998,17.365699999988067]",0,VCNLTWV,12,0,12,0,1,,,,,,,,,,,,,,,,,,,,,,,,,,,,,,,,,,,,,,,,,,,,,,,,,,,,,,,,,,,,,,,,,,,,,,,,,,,,,,,,,,,,,,,,,,,
,,,,,,0,0,0,0,1,X V Q F H G B L J M P D K C T S W R N Z,5f245764a137ac00089e6c7d,23,Kobieta,2022-06-11_09h29.01.862,task,2021.1.4,Win32,59.80503558,6299f149e92ead563fba08ef,62a4441c560db9182378d0dd,,,,,,,,,,,,,,,,,,,,,,,,,,,,,,,,,,,,,,,,,,,,,,,,,,,,,,,,,,,,,,,,,,,,,,,,,,,,,,,,,,,,,,,,,,,,,,,,,,,,,
,,,,,,1,0,1,0,1,X V Q F H G B L J M P D K C T S W R N Z,5f245764a137ac00089e6c7d,23,Kobieta,2022-06-11_09h29.01.862,task,2021.1.4,Win32,59.80503558,6299f149e92ead563fba08ef,62a4441c560db9182378d0dd,,,,,,,,,,,,,,,,,,,,,,,,,,,,,,,,,,,,,,,,,,,,,,,,,,,,,,,,,,,,,,,,,,,,,,,,,,,,,,,,,,,,,,,,,,,,,,,,,,,,,
,,,,,,2,0,2,0,1,X V Q F H G B L J M P D K C T S W R N Z,5f245764a137ac00089e6c7d,23,Kobieta,2022-06-11_09h29.01.862,task,2021.1.4,Win32,59.80503558,6299f149e92ead563fba08ef,62a4441c560db9182378d0dd,,,,,,,,,,,,,,,,,,,,,,,,,,,,,,,,,,,,,,,,,,,,,,,,,,,,,,,,,,,,,,,,,,,,,,,,,,,,,,,,,,,,,,,,,,,,,,,,,,,,,
,,,,,,3,0,3,0,1,X V Q F H G B L J M P D K C T S W R N Z,5f245764a137ac00089e6c7d,23,Kobieta,2022-06-11_09h29.01.862,task,2021.1.4,Win32,59.80503558,6299f149e92ead563fba08ef,62a4441c560db9182378d0dd,,,,,,,,,,,,,,,,,,,,,,,,,,,,,,,,,,,,,,,,,,,,,,,,,,,,,,,,,,,,,,,,,,,,,,,,,,,,,,,,,,,,,,,,,,,,,,,,,,,,,
,,,,,,4,0,4,0,1,X V Q F H G B L J M P D K C T S W R N Z,5f245764a137ac00089e6c7d,23,Kobieta,2022-06-11_09h29.01.862,task,2021.1.4,Win32,59.80503558,6299f149e92ead563fba08ef,62a4441c560db9182378d0dd,,,,,,,,,,,,,,,,,,,,,,,,,,,,,,,,,,,,,,,,,,,,,,,,,,,,,,,,,,,,,,,,,,,,,,,,,,,,,,,,,,,,,,,,,,,,,,,,,,,,,
,,,,,,5,0,5,0,1,X V Q F H G B L J M P D K C T S W R N Z,5f245764a137ac00089e6c7d,23,Kobieta,2022-06-11_09h29.01.862,task,2021.1.4,Win32,59.80503558,6299f149e92ead563fba08ef,62a4441c560db9182378d0dd,,,,,,,,,,,,,,,,,,,,,,,,,,,,,,,,,,,,,,,,,,,,,,,,,,,,,,,,,,,,,,,,,,,,,,,,,,,,,,,,,,,,,,,,,,,,,,,,,,,,,
,,,,,,6,0,6,0,1,X V Q F H G B L J M P D K C T S W R N Z,5f245764a137ac00089e6c7d,23,Kobieta,2022-06-11_09h29.01.862,task,2021.1.4,Win32,59.80503558,6299f149e92ead563fba08ef,62a4441c560db9182378d0dd,,,,,,,,,,,,,,,,,,,,,,,,,,,,,,,,,,,,,,,,,,,,,,,,,,,,,,,,,,,,,,,,,,,,,,,,,,,,,,,,,,,,,,,,,,,,,,,,,,,,,
,,,,,,,,,,,,5f245764a137ac00089e6c7d,23,Kobieta,2022-06-11_09h29.01.862,task,2021.1.4,Win32,59.80503558,6299f149e92ead563fba08ef,62a4441c560db9182378d0dd,pcpsjxh,"[""p"",""c"",""p"",""s"",""j"",""x"",""h""]","[2.218199999988059,2.85179999998212,3.188299999982121,3.671199999988062,4.1029000000059455,16.054799999982095,17.29940000000596,27.03269999998807]",1,PCPSJXH,13,0,13,0,1,,,,,,,,,,,,,,,,,,,,,,,,,,,,,,,,,,,,,,,,,,,,,,,,,,,,,,,,,,,,,,,,,,,,,,,,,,,,,,,,,,,,,,,,,,,
,,,,,,0,0,0,0,1,X V Q F H G B L J M P D K C T S W R N Z,5f245764a137ac00089e6c7d,23,Kobieta,2022-06-11_09h29.01.862,task,2021.1.4,Win32,59.80503558,6299f149e92ead563fba08ef,62a4441c560db9182378d0dd,,,,,,,,,,,,,,,,,,,,,,,,,,,,,,,,,,,,,,,,,,,,,,,,,,,,,,,,,,,,,,,,,,,,,,,,,,,,,,,,,,,,,,,,,,,,,,,,,,,,,
,,,,,,1,0,1,0,1,X V Q F H G B L J M P D K C T S W R N Z,5f245764a137ac00089e6c7d,23,Kobieta,2022-06-11_09h29.01.862,task,2021.1.4,Win32,59.80503558,6299f149e92ead563fba08ef,62a4441c560db9182378d0dd,,,,,,,,,,,,,,,,,,,,,,,,,,,,,,,,,,,,,,,,,,,,,,,,,,,,,,,,,,,,,,,,,,,,,,,,,,,,,,,,,,,,,,,,,,,,,,,,,,,,,
,,,,,,2,0,2,0,1,X V Q F H G B L J M P D K C T S W R N Z,5f245764a137ac00089e6c7d,23,Kobieta,2022-06-11_09h29.01.862,task,2021.1.4,Win32,59.80503558,6299f149e92ead563fba08ef,62a4441c560db9182378d0dd,,,,,,,,,,,,,,,,,,,,,,,,,,,,,,,,,,,,,,,,,,,,,,,,,,,,,,,,,,,,,,,,,,,,,,,,,,,,,,,,,,,,,,,,,,,,,,,,,,,,,
,,,,,,3,0,3,0,1,X V Q F H G B L J M P D K C T S W R N Z,5f245764a137ac00089e6c7d,23,Kobieta,2022-06-11_09h29.01.862,task,2021.1.4,Win32,59.80503558,6299f149e92ead563fba08ef,62a4441c560db9182378d0dd,,,,,,,,,,,,,,,,,,,,,,,,,,,,,,,,,,,,,,,,,,,,,,,,,,,,,,,,,,,,,,,,,,,,,,,,,,,,,,,,,,,,,,,,,,,,,,,,,,,,,
,,,,,,4,0,4,0,1,X V Q F H G B L J M P D K C T S W R N Z,5f245764a137ac00089e6c7d,23,Kobieta,2022-06-11_09h29.01.862,task,2021.1.4,Win32,59.80503558,6299f149e92ead563fba08ef,62a4441c560db9182378d0dd,,,,,,,,,,,,,,,,,,,,,,,,,,,,,,,,,,,,,,,,,,,,,,,,,,,,,,,,,,,,,,,,,,,,,,,,,,,,,,,,,,,,,,,,,,,,,,,,,,,,,
,,,,,,5,0,5,0,1,X V Q F H G B L J M P D K C T S W R N Z,5f245764a137ac00089e6c7d,23,Kobieta,2022-06-11_09h29.01.862,task,2021.1.4,Win32,59.80503558,6299f149e92ead563fba08ef,62a4441c560db9182378d0dd,,,,,,,,,,,,,,,,,,,,,,,,,,,,,,,,,,,,,,,,,,,,,,,,,,,,,,,,,,,,,,,,,,,,,,,,,,,,,,,,,,,,,,,,,,,,,,,,,,,,,
,,,,,,6,0,6,0,1,X V Q F H G B L J M P D K C T S W R N Z,5f245764a137ac00089e6c7d,23,Kobieta,2022-06-11_09h29.01.862,task,2021.1.4,Win32,59.80503558,6299f149e92ead563fba08ef,62a4441c560db9182378d0dd,,,,,,,,,,,,,,,,,,,,,,,,,,,,,,,,,,,,,,,,,,,,,,,,,,,,,,,,,,,,,,,,,,,,,,,,,,,,,,,,,,,,,,,,,,,,,,,,,,,,,
,,,,,,7,0,7,0,1,X V Q F H G B L J M P D K C T S W R N Z,5f245764a137ac00089e6c7d,23,Kobieta,2022-06-11_09h29.01.862,task,2021.1.4,Win32,59.80503558,6299f149e92ead563fba08ef,62a4441c560db9182378d0dd,,,,,,,,,,,,,,,,,,,,,,,,,,,,,,,,,,,,,,,,,,,,,,,,,,,,,,,,,,,,,,,,,,,,,,,,,,,,,,,,,,,,,,,,,,,,,,,,,,,,,
,,,,,,,,,,,,5f245764a137ac00089e6c7d,23,Kobieta,2022-06-11_09h29.01.862,task,2021.1.4,Win32,59.80503558,6299f149e92ead563fba08ef,62a4441c560db9182378d0dd,tgzrxtq,"[""t"",""g"",""z"",""r"",""x"",""t"",""q""]","[0.4543000000119264,0.7520000000000095,0.9870000000000232,1.6099000000059505,1.9705999999940218,2.4180999999940127,2.7679999999999723,8.683499999999981]",0,TGZRXCTQ,14,0,14,0,1,,,,,,,,,,,,,,,,,,,,,,,,,,,,,,,,,,,,,,,,,,,,,,,,,,,,,,,,,,,,,,,,,,,,,,,,,,,,,,,,,,,,,,,,,,,
,,,,,,0,0,0,0,1,X V Q F H G B L J M P D K C T S W R N Z,5f245764a137ac00089e6c7d,23,Kobieta,2022-06-11_09h29.01.862,task,2021.1.4,Win32,59.80503558,6299f149e92ead563fba08ef,62a4441c560db9182378d0dd,,,,,,,,,,,,,,,,,,,,,,,,,,,,,,,,,,,,,,,,,,,,,,,,,,,,,,,,,,,,,,,,,,,,,,,,,,,,,,,,,,,,,,,,,,,,,,,,,,,,,
,,,,,,1,0,1,0,1,X V Q F H G B L J M P D K C T S W R N Z,5f245764a137ac00089e6c7d,23,Kobieta,2022-06-11_09h29.01.862,task,2021.1.4,Win32,59.80503558,6299f149e92ead563fba08ef,62a4441c560db9182378d0dd,,,,,,,,,,,,,,,,,,,,,,,,,,,,,,,,,,,,,,,,,,,,,,,,,,,,,,,,,,,,,,,,,,,,,,,,,,,,,,,,,,,,,,,,,,,,,,,,,,,,,
,,,,,,2,0,2,0,1,X V Q F H G B L J M P D K C T S W R N Z,5f245764a137ac00089e6c7d,23,Kobieta,2022-06-11_09h29.01.862,task,2021.1.4,Win32,59.80503558,6299f149e92ead563fba08ef,62a4441c560db9182378d0dd,,,,,,,,,,,,,,,,,,,,,,,,,,,,,,,,,,,,,,,,,,,,,,,,,,,,,,,,,,,,,,,,,,,,,,,,,,,,,,,,,,,,,,,,,,,,,,,,,,,,,
,,,,,,3,0,3,0,1,X V Q F H G B L J M P D K C T S W R N Z,5f245764a137ac00089e6c7d,23,Kobieta,2022-06-11_09h29.01.862,task,2021.1.4,Win32,59.80503558,6299f149e92ead563fba08ef,62a4441c560db9182378d0dd,,,,,,,,,,,,,,,,,,,,,,,,,,,,,,,,,,,,,,,,,,,,,,,,,,,,,,,,,,,,,,,,,,,,,,,,,,,,,,,,,,,,,,,,,,,,,,,,,,,,,
,,,,,,4,0,4,0,1,X V Q F H G B L J M P D K C T S W R N Z,5f245764a137ac00089e6c7d,23,Kobieta,2022-06-11_09h29.01.862,task,2021.1.4,Win32,59.80503558,6299f149e92ead563fba08ef,62a4441c560db9182378d0dd,,,,,,,,,,,,,,,,,,,,,,,,,,,,,,,,,,,,,,,,,,,,,,,,,,,,,,,,,,,,,,,,,,,,,,,,,,,,,,,,,,,,,,,,,,,,,,,,,,,,,
,,,,,,5,0,5,0,1,X V Q F H G B L J M P D K C T S W R N Z,5f245764a137ac00089e6c7d,23,Kobieta,2022-06-11_09h29.01.862,task,2021.1.4,Win32,59.80503558,6299f149e92ead563fba08ef,62a4441c560db9182378d0dd,,,,,,,,,,,,,,,,,,,,,,,,,,,,,,,,,,,,,,,,,,,,,,,,,,,,,,,,,,,,,,,,,,,,,,,,,,,,,,,,,,,,,,,,,,,,,,,,,,,,,
,,,,,,6,0,6,0,1,X V Q F H G B L J M P D K C T S W R N Z,5f245764a137ac00089e6c7d,23,Kobieta,2022-06-11_09h29.01.862,task,2021.1.4,Win32,59.80503558,6299f149e92ead563fba08ef,62a4441c560db9182378d0dd,,,,,,,,,,,,,,,,,,,,,,,,,,,,,,,,,,,,,,,,,,,,,,,,,,,,,,,,,,,,,,,,,,,,,,,,,,,,,,,,,,,,,,,,,,,,,,,,,,,,,
,,,,,,7,0,7,0,1,X V Q F H G B L J M P D K C T S W R N Z,5f245764a137ac00089e6c7d,23,Kobieta,2022-06-11_09h29.01.862,task,2021.1.4,Win32,59.80503558,6299f149e92ead563fba08ef,62a4441c560db9182378d0dd,,,,,,,,,,,,,,,,,,,,,,,,,,,,,,,,,,,,,,,,,,,,,,,,,,,,,,,,,,,,,,,,,,,,,,,,,,,,,,,,,,,,,,,,,,,,,,,,,,,,,
,,,,,,,,,,,,5f245764a137ac00089e6c7d,23,Kobieta,2022-06-11_09h29.01.862,task,2021.1.4,Win32,59.80503558,6299f149e92ead563fba08ef,62a4441c560db9182378d0dd,rdbkkcjj,"[""r"",""d"",""b"",""k"",""k"",""c"",""j"",""j""]","[19.102900000005945,19.3997000000179,20.455700000017885,21.697700000017903,22.764600000023847,24.366900000005955,25.698800000011943,29.083600000023864,34.430300000011925]",0,RDBKKCJL,15,0,15,0,1,,,,,,,,,,,,,,,,,,,,,,,,,,,,,,,,,,,,,,,,,,,,,,,,,,,,,,,,,,,,,,,,,,,,,,,,,,,,,,,,,,,,,,,,,,,
,,,,,,0,0,0,0,1,X V Q F H G B L J M P D K C T S W R N Z,5f245764a137ac00089e6c7d,23,Kobieta,2022-06-11_09h29.01.862,task,2021.1.4,Win32,59.80503558,6299f149e92ead563fba08ef,62a4441c560db9182378d0dd,,,,,,,,,,,,,,,,,,,,,,,,,,,,,,,,,,,,,,,,,,,,,,,,,,,,,,,,,,,,,,,,,,,,,,,,,,,,,,,,,,,,,,,,,,,,,,,,,,,,,
,,,,,,1,0,1,0,1,X V Q F H G B L J M P D K C T S W R N Z,5f245764a137ac00089e6c7d,23,Kobieta,2022-06-11_09h29.01.862,task,2021.1.4,Win32,59.80503558,6299f149e92ead563fba08ef,62a4441c560db9182378d0dd,,,,,,,,,,,,,,,,,,,,,,,,,,,,,,,,,,,,,,,,,,,,,,,,,,,,,,,,,,,,,,,,,,,,,,,,,,,,,,,,,,,,,,,,,,,,,,,,,,,,,
,,,,,,2,0,2,0,1,X V Q F H G B L J M P D K C T S W R N Z,5f245764a137ac00089e6c7d,23,Kobieta,2022-06-11_09h29.01.862,task,2021.1.4,Win32,59.80503558,6299f149e92ead563fba08ef,62a4441c560db9182378d0dd,,,,,,,,,,,,,,,,,,,,,,,,,,,,,,,,,,,,,,,,,,,,,,,,,,,,,,,,,,,,,,,,,,,,,,,,,,,,,,,,,,,,,,,,,,,,,,,,,,,,,
,,,,,,3,0,3,0,1,X V Q F H G B L J M P D K C T S W R N Z,5f245764a137ac00089e6c7d,23,Kobieta,2022-06-11_09h29.01.862,task,2021.1.4,Win32,59.80503558,6299f149e92ead563fba08ef,62a4441c560db9182378d0dd,,,,,,,,,,,,,,,,,,,,,,,,,,,,,,,,,,,,,,,,,,,,,,,,,,,,,,,,,,,,,,,,,,,,,,,,,,,,,,,,,,,,,,,,,,,,,,,,,,,,,
,,,,,,4,0,4,0,1,X V Q F H G B L J M P D K C T S W R N Z,5f245764a137ac00089e6c7d,23,Kobieta,2022-06-11_09h29.01.862,task,2021.1.4,Win32,59.80503558,6299f149e92ead563fba08ef,62a4441c560db9182378d0dd,,,,,,,,,,,,,,,,,,,,,,,,,,,,,,,,,,,,,,,,,,,,,,,,,,,,,,,,,,,,,,,,,,,,,,,,,,,,,,,,,,,,,,,,,,,,,,,,,,,,,
,,,,,,5,0,5,0,1,X V Q F H G B L J M P D K C T S W R N Z,5f245764a137ac00089e6c7d,23,Kobieta,2022-06-11_09h29.01.862,task,2021.1.4,Win32,59.80503558,6299f149e92ead563fba08ef,62a4441c560db9182378d0dd,,,,,,,,,,,,,,,,,,,,,,,,,,,,,,,,,,,,,,,,,,,,,,,,,,,,,,,,,,,,,,,,,,,,,,,,,,,,,,,,,,,,,,,,,,,,,,,,,,,,,
,,,,,,6,0,6,0,1,X V Q F H G B L J M P D K C T S W R N Z,5f245764a137ac00089e6c7d,23,Kobieta,2022-06-11_09h29.01.862,task,2021.1.4,Win32,59.80503558,6299f149e92ead563fba08ef,62a4441c560db9182378d0dd,,,,,,,,,,,,,,,,,,,,,,,,,,,,,,,,,,,,,,,,,,,,,,,,,,,,,,,,,,,,,,,,,,,,,,,,,,,,,,,,,,,,,,,,,,,,,,,,,,,,,
,,,,,,7,0,7,0,1,X V Q F H G B L J M P D K C T S W R N Z,5f245764a137ac00089e6c7d,23,Kobieta,2022-06-11_09h29.01.862,task,2021.1.4,Win32,59.80503558,6299f149e92ead563fba08ef,62a4441c560db9182378d0dd,,,,,,,,,,,,,,,,,,,,,,,,,,,,,,,,,,,,,,,,,,,,,,,,,,,,,,,,,,,,,,,,,,,,,,,,,,,,,,,,,,,,,,,,,,,,,,,,,,,,,
,,,,,,,,,,,,5f245764a137ac00089e6c7d,23,Kobieta,2022-06-11_09h29.01.862,task,2021.1.4,Win32,59.80503558,6299f149e92ead563fba08ef,62a4441c560db9182378d0dd,nblkvksk,"[""n"",""b"",""l"",""k"",""v"",""k"",""s"",""k""]","[0.7849000000059618,1.0343000000119105,1.4013000000119291,2.0347000000178923,2.5177000000178964,2.7174000000059664,4.489900000006003,4.817700000017908,5.500200000017912]",0,NBLKVGSK,16,0,16,0,1,,,,,,,,,,,,,,,,,,,,,,,,,,,,,,,,,,,,,,,,,,,,,,,,,,,,,,,,,,,,,,,,,,,,,,,,,,,,,,,,,,,,,,,,,,,
,,,,,,,,,,,,5f245764a137ac00089e6c7d,23,Kobieta,2022-06-11_09h29.01.862,task,2021.1.4,Win32,59.80503558,6299f149e92ead563fba08ef,62a4441c560db9182378d0dd,,,,,,,,,,,space,29.9306,5,"[""5""]",1,[6.759500000000003],[6.759500000000003],0,0,0,5,1,Practice,6,(4/2) + 3,5,,,,,,,,,,,,,,,,,,,,,,,,,,,,,,,,,,,,,,,,,,,,,,,,,,,,,,,,,,,,,,,,,,,,,,,,,,,
,,,,,,,,,,,,5f245764a137ac00089e6c7d,23,Kobieta,2022-06-11_09h29.01.862,task,2021.1.4,Win32,59.80503558,6299f149e92ead563fba08ef,62a4441c560db9182378d0dd,,,,,,,,,,,,,2,"[""2""]",1,[1.615400000005934],"[6.759500000000003,1.615400000005934]",0,1,1,2,1,Practice,3,(4x4) - 14,2,,,,,,,,,,,,,,,,,,,,,,,,,,,,,,,,,,,,,,,,,,,,,,,,,,,,,,,,,,,,,,,,,,,,,,,,,,,
,,,,,,,,,,,,5f245764a137ac00089e6c7d,23,Kobieta,2022-06-11_09h29.01.862,task,2021.1.4,Win32,59.80503558,6299f149e92ead563fba08ef,62a4441c560db9182378d0dd,,,,,,,,,,,,,1,"[""1""]",1,[1.3975000000000364],"[6.759500000000003,1.615400000005934,1.3975000000000364]",0,2,2,1,1,Practice,2,(4x4) - 15,1,,,,,,,,,,,,,,,,,,,,,,,,,,,,,,,,,,,,,,,,,,,,,,,,,,,,,,,,,,,,,,,,,,,,,,,,,,,
,,,,,,,,,,,,5f245764a137ac00089e6c7d,23,Kobieta,2022-06-11_09h29.01.862,task,2021.1.4,Win32,59.80503558,6299f149e92ead563fba08ef,62a4441c560db9182378d0dd,,,,,,,,,,,,,3,"[""3""]",1,[1.3643000000119514],"[6.759500000000003,1.615400000005934,1.3975000000000364,1.3643000000119514]",0,3,3,3,1,Practice,4,(8/4) + 1,3,,,,,,,,,,,,,,,,,,,,,,,,,,,,,,,,,,,,,,,,,,,,,,,,,,,,,,,,,,,,,,,,,,,,,,,,,,,
,,,,,,,,,,,,5f245764a137ac00089e6c7d,23,Kobieta,2022-06-11_09h29.01.862,task,2021.1.4,Win32,59.80503558,6299f149e92ead563fba08ef,62a4441c560db9182378d0dd,,,,,,,,,,,,,7,"[""7""]",1,[4.946899999976154],"[6.759500000000003,1.615400000005934,1.3975000000000364,1.3643000000119514,4.946899999976154]",0,4,4,7,1,Practice,8,(5x5) - 18,7,,,,,,,,,,,,,,,,,,,,,,,,,,,,,,,,,,,,,,,,,,,,,,,,,,,,,,,,,,,,,,,,,,,,,,,,,,,
,,,,,,,,,,,,5f245764a137ac00089e6c7d,23,Kobieta,2022-06-11_09h29.01.862,task,2021.1.4,Win32,59.80503558,6299f149e92ead563fba08ef,62a4441c560db9182378d0dd,,,,,,,,,,,,,4,"[""4""]",1,[2.101900000005969],"[6.759500000000003,1.615400000005934,1.3975000000000364,1.3643000000119514,4.946899999976154,2.101900000005969]",0,5,5,4,1,Practice,5,(2x6) - 8,4,,,,,,,,,,,,,,,,,,,,,,,,,,,,,,,,,,,,,,,,,,,,,,,,,,,,,,,,,,,,,,,,,,,,,,,,,,,
,,,,,,,,,,,,5f245764a137ac00089e6c7d,23,Kobieta,2022-06-11_09h29.01.862,task,2021.1.4,Win32,59.80503558,6299f149e92ead563fba08ef,62a4441c560db9182378d0dd,,,,,,,,,,,,,0,"[""0""]",1,[1.7371999999880927],"[6.759500000000003,1.615400000005934,1.3975000000000364,1.3643000000119514,4.946899999976154,2.101900000005969,1.7371999999880927]",0,6,6,0,1,Practice,1,(3x3) -  9,0,,,,,,,,,,,,,,,,,,,,,,,,,,,,,,,,,,,,,,,,,,,,,,,,,,,,,,,,,,,,,,,,,,,,,,,,,,,
,,,,,,,,,,,,5f245764a137ac00089e6c7d,23,Kobieta,2022-06-11_09h29.01.862,task,2021.1.4,Win32,59.80503558,6299f149e92ead563fba08ef,62a4441c560db9182378d0dd,,,,,,,,,,,,,8,"[""8""]",1,[1.4028000000119505],"[6.759500000000003,1.615400000005934,1.3975000000000364,1.3643000000119514,4.946899999976154,2.101900000005969,1.7371999999880927,1.4028000000119505]",0,7,7,8,1,Practice,9,(3x3) - 1,8,,,,,,,,,,,,,,,,,,,,,,,,,,,,,,,,,,,,,,,,,,,,,,,,,,,,,,,,,,,,,,,,,,,,,,,,,,,
,,,,,,,,,,,,5f245764a137ac00089e6c7d,23,Kobieta,2022-06-11_09h29.01.862,task,2021.1.4,Win32,59.80503558,6299f149e92ead563fba08ef,62a4441c560db9182378d0dd,,,,,,,,,,,,,9,"[""9""]",1,[1.6311999999880413],"[6.759500000000003,1.615400000005934,1.3975000000000364,1.3643000000119514,4.946899999976154,2.101900000005969,1.7371999999880927,1.4028000000119505,1.6311999999880413]",0,8,8,9,1,Practice,10,(20/2) - 1,9,,,,,,,,,,,,,,,,,,,,,,,,,,,,,,,,,,,,,,,,,,,,,,,,,,,,,,,,,,,,,,,,,,,,,,,,,,,
,,,,,,,,,,,,5f245764a137ac00089e6c7d,23,Kobieta,2022-06-11_09h29.01.862,task,2021.1.4,Win32,59.80503558,6299f149e92ead563fba08ef,62a4441c560db9182378d0dd,,,,,,,,,,,,,6,"[""6""]",1,[1.6809000000059768],"[6.759500000000003,1.615400000005934,1.3975000000000364,1.3643000000119514,4.946899999976154,2.101900000005969,1.7371999999880927,1.4028000000119505,1.6311999999880413,1.6809000000059768]",0,9,9,6,1,Practice,7,(25/5) + 1,6,,,,,,,,,,,,,,,,,,,,,,,,,,,,,,,,,,,,,,,,,,,,,,,,,,,,,,,,,,,,,,,,,,,,,,,,,,,
,,,,,,,,,,,,5f245764a137ac00089e6c7d,23,Kobieta,2022-06-11_09h29.01.862,task,2021.1.4,Win32,59.80503558,6299f149e92ead563fba08ef,62a4441c560db9182378d0dd,,,,,,,,,,,,,,,,,,,,,,,,,,,1,24.6376,1.642506667,37.5198683,1.581557635,5.722925365,space,1.0266,0,0,0,0,1,,,,,,,,,,,,,,,,,,,,,,,,,,,,,,,,,,,,,,,,,,,,,,,,,,,,,,,,,,,,,,
,,,,,,,,,,,,5f245764a137ac00089e6c7d,23,Kobieta,2022-06-11_09h29.01.862,task,2021.1.4,Win32,59.80503558,6299f149e92ead563fba08ef,62a4441c560db9182378d0dd,,,,,,,,,,,,,6,,,,,,,,,,Practice,7,(25/5) + 1,6,,,,,,,,,,,,,,space,29.4325,"[""6""]",1,[2.012700000017901],1,0,0,0,6,1,,,,,,,,,,,,,,,,,,,,,,,,,,,,,,,,,,,,,,,,,,,,,,,,,,,
,,,,,,,,,,,X V Q F H G B L J M P D K C T S W R N Z,5f245764a137ac00089e6c7d,23,Kobieta,2022-06-11_09h29.01.862,task,2021.1.4,Win32,59.80503558,6299f149e92ead563fba08ef,62a4441c560db9182378d0dd,,,,,,,,,,,,,,,,,,,,,,,,,,,,,,,,,,,,,,,,,,,,,,,,,,,0,0,0,0,1,,,,,,,,,,,,,,,,,,,,,,,,,,,,,,,,,,,,,,,,,,,,,,
,,,,,,,,,,,,5f245764a137ac00089e6c7d,23,Kobieta,2022-06-11_09h29.01.862,task,2021.1.4,Win32,59.80503558,6299f149e92ead563fba08ef,62a4441c560db9182378d0dd,,,,,,,,,,,,,0,,,,,,,,,,Practice,1,(3x3) -  9,0,,,,,,,,,,,,,,,,"[""0""]",1,[1.9300000000000068],1,0,0,0,0,1,,,,,,,,,,,,,,,,,,,,,,,,,,,,,,,,,,,,,,,,,,,,,,,,,,,
,,,,,,,,,,,X V Q F H G B L J M P D K C T S W R N Z,5f245764a137ac00089e6c7d,23,Kobieta,2022-06-11_09h29.01.862,task,2021.1.4,Win32,59.80503558,6299f149e92ead563fba08ef,62a4441c560db9182378d0dd,,,,,,,,,,,,,,,,,,,,,,,,,,,,,,,,,,,,,,,,,,,,,,,,,,,1,0,1,0,1,,,,,,,,,,,,,,,,,,,,,,,,,,,,,,,,,,,,,,,,,,,,,,
,,,,,,,,,,,,5f245764a137ac00089e6c7d,23,Kobieta,2022-06-11_09h29.01.862,task,2021.1.4,Win32,59.80503558,6299f149e92ead563fba08ef,62a4441c560db9182378d0dd,,,,,,,,,,,,,,,,,,,,,,,,,,,,,,,,,,,,,,,,,,,,,,,,,,,,,,,,zl,"[""z"",""l""]",0,"[1.536299999982134,1.975999999999999,2.940899999976182]",1,0,0,0,0,1,,,,,,,,,,,,,,,,,,,,,,,,,,,,,,,,,,,,
,,,,,,,,,,,,5f245764a137ac00089e6c7d,23,Kobieta,2022-06-11_09h29.01.862,task,2021.1.4,Win32,59.80503558,6299f149e92ead563fba08ef,62a4441c560db9182378d0dd,,,,,,,,,,,,,8,,,,,,,,,,Practice,9,(3x3) - 1,8,,,,,,,,,,,,,,,,"[""8""]",1,[3.7208000000118773],1,0,0,0,8,1,,,,,,,,,,,,,,,,,,,,,,,,,,,,,,,,,,,,,,,,,,,,,,,,,,,
,,,,,,,,,,,X V Q F H G B L J M P D K C T S W R N Z,5f245764a137ac00089e6c7d,23,Kobieta,2022-06-11_09h29.01.862,task,2021.1.4,Win32,59.80503558,6299f149e92ead563fba08ef,62a4441c560db9182378d0dd,,,,,,,,,,,,,,,,,,,,,,,,,,,,,,,,,,,,,,,,,,,,,,,,,,,0,0,0,0,1,,,,,,,,,,,,,,,,,,,,,,,,,,,,,,,,,,,,,,,,,,,,,,
,,,,,,,,,,,,5f245764a137ac00089e6c7d,23,Kobieta,2022-06-11_09h29.01.862,task,2021.1.4,Win32,59.80503558,6299f149e92ead563fba08ef,62a4441c560db9182378d0dd,,,,,,,,,,,,,2,,,,,,,,,,Practice,3,(4x4) - 14,2,,,,,,,,,,,,,,,,"[""2""]",1,[2.6387000000178773],1,0,0,0,2,1,,,,,,,,,,,,,,,,,,,,,,,,,,,,,,,,,,,,,,,,,,,,,,,,,,,
,,,,,,,,,,,X V Q F H G B L J M P D K C T S W R N Z,5f245764a137ac00089e6c7d,23,Kobieta,2022-06-11_09h29.01.862,task,2021.1.4,Win32,59.80503558,6299f149e92ead563fba08ef,62a4441c560db9182378d0dd,,,,,,,,,,,,,,,,,,,,,,,,,,,,,,,,,,,,,,,,,,,,,,,,,,,1,0,1,0,1,,,,,,,,,,,,,,,,,,,,,,,,,,,,,,,,,,,,,,,,,,,,,,
,,,,,,,,,,,,5f245764a137ac00089e6c7d,23,Kobieta,2022-06-11_09h29.01.862,task,2021.1.4,Win32,59.80503558,6299f149e92ead563fba08ef,62a4441c560db9182378d0dd,,,,,,,,,,,,,,,,,,,,,,,,,,,,,,,,,,,,,,,,,,,,,,,,,,,,,,,,sp,"[""s"",""p""]",0,"[0.9405999999940491,1.1216999999880954,2.015299999982119]",1,1,0,1,0,1,,,,,,,,,,,,,,,,,,,,,,,,,,,,,,,,,,,,
,,,,,,,,,,,,5f245764a137ac00089e6c7d,23,Kobieta,2022-06-11_09h29.01.862,task,2021.1.4,Win32,59.80503558,6299f149e92ead563fba08ef,62a4441c560db9182378d0dd,,,,,,,,,,,,,4,,,,,,,,,,Practice,5,(2x6) - 8,4,,,,,,,,,,,,,,,,"[""4""]",1,[2.7475000000000023],1,0,0,0,4,1,,,,,,,,,,,,,,,,,,,,,,,,,,,,,,,,,,,,,,,,,,,,,,,,,,,
,,,,,,,,,,,X V Q F H G B L J M P D K C T S W R N Z,5f245764a137ac00089e6c7d,23,Kobieta,2022-06-11_09h29.01.862,task,2021.1.4,Win32,59.80503558,6299f149e92ead563fba08ef,62a4441c560db9182378d0dd,,,,,,,,,,,,,,,,,,,,,,,,,,,,,,,,,,,,,,,,,,,,,,,,,,,0,0,0,0,1,,,,,,,,,,,,,,,,,,,,,,,,,,,,,,,,,,,,,,,,,,,,,,
,,,,,,,,,,,,5f245764a137ac00089e6c7d,23,Kobieta,2022-06-11_09h29.01.862,task,2021.1.4,Win32,59.80503558,6299f149e92ead563fba08ef,62a4441c560db9182378d0dd,,,,,,,,,,,,,6,,,,,,,,,,Practice,7,(25/5) + 1,6,,,,,,,,,,,,,,,,"[""6""]",1,[1.3466999999880613],1,0,0,0,6,1,,,,,,,,,,,,,,,,,,,,,,,,,,,,,,,,,,,,,,,,,,,,,,,,,,,
,,,,,,,,,,,X V Q F H G B L J M P D K C T S W R N Z,5f245764a137ac00089e6c7d,23,Kobieta,2022-06-11_09h29.01.862,task,2021.1.4,Win32,59.80503558,6299f149e92ead563fba08ef,62a4441c560db9182378d0dd,,,,,,,,,,,,,,,,,,,,,,,,,,,,,,,,,,,,,,,,,,,,,,,,,,,1,0,1,0,1,,,,,,,,,,,,,,,,,,,,,,,,,,,,,,,,,,,,,,,,,,,,,,
,,,,,,,,,,,,5f245764a137ac00089e6c7d,23,Kobieta,2022-06-11_09h29.01.862,task,2021.1.4,Win32,59.80503558,6299f149e92ead563fba08ef,62a4441c560db9182378d0dd,,,,,,,,,,,,,,,,,,,,,,,,,,,,,,,,,,,,,,,,,,,,,,,,,,,,,,,,qm,"[""q"",""m""]",0,"[1.355400000006,1.5858000000119432,2.5362000000179137]",1,2,0,2,0,1,,,,,,,,,,,,,,,,,,,,,,,,,,,,,,,,,,,,
,,,,,,,,,,,,5f245764a137ac00089e6c7d,23,Kobieta,2022-06-11_09h29.01.862,task,2021.1.4,Win32,59.80503558,6299f149e92ead563fba08ef,62a4441c560db9182378d0dd,,,,,,,,,,,,,,,,,,,,,,,Task,16,(3x8) - 15,9,,,,,,,,,,,,,,,,,,,0,,,,,,,,,,,,,,,,,,,,,space,33.1842,,0,0,0,0,15,1,,,,,,,,,,,,,,,,,,,,,,,,,,,
,,,,,,,,,,,,5f245764a137ac00089e6c7d,23,Kobieta,2022-06-11_09h29.01.862,task,2021.1.4,Win32,59.80503558,6299f149e92ead563fba08ef,62a4441c560db9182378d0dd,,,,,,,,,,,,,7,,,,,,,,,,Task,31,(4/2) + 5,7,,,,,,,,,,,,,,,,,,,1,,,,,,,,,,,,,,,,,,,,,,,"[""7""]",1,0,1,1,30,1,[2.0635999999940395],,,,,,,,,,,,,,,,,,,,,,,,,,
,,,,,,,,,,,X V Q F H G B L J M P D K C T S W R N Z,5f245764a137ac00089e6c7d,23,Kobieta,2022-06-11_09h29.01.862,task,2021.1.4,Win32,59.80503558,6299f149e92ead563fba08ef,62a4441c560db9182378d0dd,,,,,,,,,,,,,,,,,,,,,,,,,,,,,,,,,,,,,,,,,,,,,,,,,,,,,,,,,,,,,,,,,,,,,,,,,,,,0,0,0,0,1,,,,,,,,,,,,,,,,,,,,,
,,,,,,,,,,,,5f245764a137ac00089e6c7d,23,Kobieta,2022-06-11_09h29.01.862,task,2021.1.4,Win32,59.80503558,6299f149e92ead563fba08ef,62a4441c560db9182378d0dd,,,,,,,,,,,,,1,,,,,,,,,,Task,1,(12/6) - 1,1,,,,,,,,,,,,,,,,,,,1,,,,,,,,,,,,,,,,,,,,,,,"[""1""]",1,0,0,0,0,1,[1.5313999999762018],,,,,,,,,,,,,,,,,,,,,,,,,,
,,,,,,,,,,,X V Q F H G B L J M P D K C T S W R N Z,5f245764a137ac00089e6c7d,23,Kobieta,2022-06-11_09h29.01.862,task,2021.1.4,Win32,59.80503558,6299f149e92ead563fba08ef,62a4441c560db9182378d0dd,,,,,,,,,,,,,,,,,,,,,,,,,,,,,,,,,,,,,,,,,,,,,,,,,,,,,,,,,,,,,,,,,,,,,,,,,,,,1,0,1,0,1,,,,,,,,,,,,,,,,,,,,,
,,,,,,,,,,,,5f245764a137ac00089e6c7d,23,Kobieta,2022-06-11_09h29.01.862,task,2021.1.4,Win32,59.80503558,6299f149e92ead563fba08ef,62a4441c560db9182378d0dd,,,,,,,,,,,,,,,,,,,,,,,,,,,,,,,,,,,,,,,,,,,,,,,,,,,,,,,,,,,,,,,,,,,,,,,,,,,,,,,,,zx,"[""z"",""x""]",0,"[1.0534999999999854,1.2369999999999663,2.4900999999940723]",1,ZX,0,0,0,0,1,,,,,,,,,,
,,,,,,,,,,,,5f245764a137ac00089e6c7d,23,Kobieta,2022-06-11_09h29.01.862,task,2021.1.4,Win32,59.80503558,6299f149e92ead563fba08ef,62a4441c560db9182378d0dd,,,,,,,,,,,,,4,,,,,,,,,,Task,28,(2x5) - 6,4,,,,,,,,,,,,,,,,,,,1,,,,,,,,,,,,,,,,,,,,,,,"[""4""]",1,0,0,0,27,1,[1.6140999999939822],,,,,,,,,,,,,,,,,,,,,,,,,,
,,,,,,,,,,,X V Q F H G B L J M P D K C T S W R N Z,5f245764a137ac00089e6c7d,23,Kobieta,2022-06-11_09h29.01.862,task,2021.1.4,Win32,59.80503558,6299f149e92ead563fba08ef,62a4441c560db9182378d0dd,,,,,,,,,,,,,,,,,,,,,,,,,,,,,,,,,,,,,,,,,,,,,,,,,,,,,,,,,,,,,,,,,,,,,,,,,,,,0,0,0,0,1,,,,,,,,,,,,,,,,,,,,,
,,,,,,,,,,,,5f245764a137ac00089e6c7d,23,Kobieta,2022-06-11_09h29.01.862,task,2021.1.4,Win32,59.80503558,6299f149e92ead563fba08ef,62a4441c560db9182378d0dd,,,,,,,,,,,,,1,,,,,,,,,,Task,18,(16/4) - 3,1,,,,,,,,,,,,,,,,,,,1,,,,,,,,,,,,,,,,,,,,,,,"[""1""]",1,0,0,0,17,1,[2.5325000000000273],,,,,,,,,,,,,,,,,,,,,,,,,,
,,,,,,,,,,,X V Q F H G B L J M P D K C T S W R N Z,5f245764a137ac00089e6c7d,23,Kobieta,2022-06-11_09h29.01.862,task,2021.1.4,Win32,59.80503558,6299f149e92ead563fba08ef,62a4441c560db9182378d0dd,,,,,,,,,,,,,,,,,,,,,,,,,,,,,,,,,,,,,,,,,,,,,,,,,,,,,,,,,,,,,,,,,,,,,,,,,,,,1,0,1,0,1,,,,,,,,,,,,,,,,,,,,,
,,,,,,,,,,,,5f245764a137ac00089e6c7d,23,Kobieta,2022-06-11_09h29.01.862,task,2021.1.4,Win32,59.80503558,6299f149e92ead563fba08ef,62a4441c560db9182378d0dd,,,,,,,,,,,,,1,,,,,,,,,,Task,1,(12/6) - 1,1,,,,,,,,,,,,,,,,,,,1,,,,,,,,,,,,,,,,,,,,,,,"[""1""]",1,0,0,0,0,1,[2.6474000000058595],,,,,,,,,,,,,,,,,,,,,,,,,,
,,,,,,,,,,,X V Q F H G B L J M P D K C T S W R N Z,5f245764a137ac00089e6c7d,23,Kobieta,2022-06-11_09h29.01.862,task,2021.1.4,Win32,59.80503558,6299f149e92ead563fba08ef,62a4441c560db9182378d0dd,,,,,,,,,,,,,,,,,,,,,,,,,,,,,,,,,,,,,,,,,,,,,,,,,,,,,,,,,,,,,,,,,,,,,,,,,,,,2,0,2,0,1,,,,,,,,,,,,,,,,,,,,,
,,,,,,,,,,,,5f245764a137ac00089e6c7d,23,Kobieta,2022-06-11_09h29.01.862,task,2021.1.4,Win32,59.80503558,6299f149e92ead563fba08ef,62a4441c560db9182378d0dd,,,,,,,,,,,,,,,,,,,,,,,,,,,,,,,,,,,,,,,,,,,,,,,,,,,,,,,,,,,,,,,,,,,,,,,,,,,,,,,,,ttj,"[""t"",""t"",""j""]",0,"[2.157400000005964,2.316400000005956,2.405300000011948,3.06610000002388]",1,TTJ,1,0,1,0,1,,,,,,,,,,
,,,,,,,,,,,,5f245764a137ac00089e6c7d,23,Kobieta,2022-06-11_09h29.01.862,task,2021.1.4,Win32,59.80503558,6299f149e92ead563fba08ef,62a4441c560db9182378d0dd,,,,,,,,,,,,,7,,,,,,,,,,Task,6,(12/2) + 1,7,,,,,,,,,,,,,,,,,,,1,,,,,,,,,,,,,,,,,,,,,,,"[""7""]",1,0,0,0,5,1,[2.3514999999999873],,,,,,,,,,,,,,,,,,,,,,,,,,
,,,,,,,,,,,X V Q F H G B L J M P D K C T S W R N Z,5f245764a137ac00089e6c7d,23,Kobieta,2022-06-11_09h29.01.862,task,2021.1.4,Win32,59.80503558,6299f149e92ead563fba08ef,62a4441c560db9182378d0dd,,,,,,,,,,,,,,,,,,,,,,,,,,,,,,,,,,,,,,,,,,,,,,,,,,,,,,,,,,,,,,,,,,,,,,,,,,,,0,0,0,0,1,,,,,,,,,,,,,,,,,,,,,
,,,,,,,,,,,,5f245764a137ac00089e6c7d,23,Kobieta,2022-06-11_09h29.01.862,task,2021.1.4,Win32,59.80503558,6299f149e92ead563fba08ef,62a4441c560db9182378d0dd,,,,,,,,,,,,,5,,,,,,,,,,Task,12,(4x4) - 11,5,,,,,,,,,,,,,,,,,,,1,,,,,,,,,,,,,,,,,,,,,,,"[""5""]",1,0,0,0,11,1,[1.8320999999940568],,,,,,,,,,,,,,,,,,,,,,,,,,
,,,,,,,,,,,X V Q F H G B L J M P D K C T S W R N Z,5f245764a137ac00089e6c7d,23,Kobieta,2022-06-11_09h29.01.862,task,2021.1.4,Win32,59.80503558,6299f149e92ead563fba08ef,62a4441c560db9182378d0dd,,,,,,,,,,,,,,,,,,,,,,,,,,,,,,,,,,,,,,,,,,,,,,,,,,,,,,,,,,,,,,,,,,,,,,,,,,,,1,0,1,0,1,,,,,,,,,,,,,,,,,,,,,
,,,,,,,,,,,,5f245764a137ac00089e6c7d,23,Kobieta,2022-06-11_09h29.01.862,task,2021.1.4,Win32,59.80503558,6299f149e92ead563fba08ef,62a4441c560db9182378d0dd,,,,,,,,,,,,,4,,,,,,,,,,Task,28,(2x5) - 6,4,,,,,,,,,,,,,,,,,,,1,,,,,,,,,,,,,,,,,,,,,,,"[""4""]",1,0,0,0,27,1,[1.5140999999940732],,,,,,,,,,,,,,,,,,,,,,,,,,
,,,,,,,,,,,X V Q F H G B L J M P D K C T S W R N Z,5f245764a137ac00089e6c7d,23,Kobieta,2022-06-11_09h29.01.862,task,2021.1.4,Win32,59.80503558,6299f149e92ead563fba08ef,62a4441c560db9182378d0dd,,,,,,,,,,,,,,,,,,,,,,,,,,,,,,,,,,,,,,,,,,,,,,,,,,,,,,,,,,,,,,,,,,,,,,,,,,,,2,0,2,0,1,,,,,,,,,,,,,,,,,,,,,
,,,,,,,,,,,,5f245764a137ac00089e6c7d,23,Kobieta,2022-06-11_09h29.01.862,task,2021.1.4,Win32,59.80503558,6299f149e92ead563fba08ef,62a4441c560db9182378d0dd,,,,,,,,,,,,,7,,,,,,,,,,Task,36,(8/4) + 3,5,,,,,,,,,,,,,,,,,,,0,,,,,,,,,,,,,,,,,,,,,,,"[""7""]",0,0,0,0,35,1,[1.864099999994096],,,,,,,,,,,,,,,,,,,,,,,,,,
,,,,,,,,,,,,5f245764a137ac00089e6c7d,23,Kobieta,2022-06-11_09h29.01.862,task,2021.1.4,Win32,59.80503558,6299f149e92ead563fba08ef,62a4441c560db9182378d0dd,,,,,,,,,,,,,1,,,,,,,,,,Task,1,(12/6) - 1,1,,,,,,,,,,,,,,,,,,,1,,,,,,,,,,,,,,,,,,,,,,,"[""1""]",1,0,1,1,0,1,[1.836099999994076],,,,,,,,,,,,,,,,,,,,,,,,,,
,,,,,,,,,,,X V Q F H G B L J M P D K C T S W R N Z,5f245764a137ac00089e6c7d,23,Kobieta,2022-06-11_09h29.01.862,task,2021.1.4,Win32,59.80503558,6299f149e92ead563fba08ef,62a4441c560db9182378d0dd,,,,,,,,,,,,,,,,,,,,,,,,,,,,,,,,,,,,,,,,,,,,,,,,,,,,,,,,,,,,,,,,,,,,,,,,,,,,3,0,3,0,1,,,,,,,,,,,,,,,,,,,,,
,,,,,,,,,,,,5f245764a137ac00089e6c7d,23,Kobieta,2022-06-11_09h29.01.862,task,2021.1.4,Win32,59.80503558,6299f149e92ead563fba08ef,62a4441c560db9182378d0dd,,,,,,,,,,,,,,,,,,,,,,,,,,,,,,,,,,,,,,,,,,,,,,,,,,,,,,,,,,,,,,,,,,,,,,,,,,,,,,,,,qswk,"[""q"",""s"",""w"",""k""]",0,"[1.02150000000006,1.332599999994045,1.649000000000001,1.9990999999940868,2.4885999999941077]",1,QSWK,2,0,2,0,1,,,,,,,,,,
,,,,,,,,,,,,5f245764a137ac00089e6c7d,23,Kobieta,2022-06-11_09h29.01.862,task,2021.1.4,Win32,59.80503558,6299f149e92ead563fba08ef,62a4441c560db9182378d0dd,,,,,,,,,,,,,9,,,,,,,,,,Task,40,(7x2) - 5,9,,,,,,,,,,,,,,,,,,,1,,,,,,,,,,,,,,,,,,,,,,,"[""9""]",1,0,0,0,39,1,[2.4130999999939604],,,,,,,,,,,,,,,,,,,,,,,,,,
,,,,,,,,,,,X V Q F H G B L J M P D K C T S W R N Z,5f245764a137ac00089e6c7d,23,Kobieta,2022-06-11_09h29.01.862,task,2021.1.4,Win32,59.80503558,6299f149e92ead563fba08ef,62a4441c560db9182378d0dd,,,,,,,,,,,,,,,,,,,,,,,,,,,,,,,,,,,,,,,,,,,,,,,,,,,,,,,,,,,,,,,,,,,,,,,,,,,,0,0,0,0,1,,,,,,,,,,,,,,,,,,,,,
,,,,,,,,,,,,5f245764a137ac00089e6c7d,23,Kobieta,2022-06-11_09h29.01.862,task,2021.1.4,Win32,59.80503558,6299f149e92ead563fba08ef,62a4441c560db9182378d0dd,,,,,,,,,,,,,0,,,,,,,,,,Task,33,(1/1) - 1,0,,,,,,,,,,,,,,,,,,,1,,,,,,,,,,,,,,,,,,,,,,,"[""0""]",1,0,0,0,32,1,[1.6202000000178032],,,,,,,,,,,,,,,,,,,,,,,,,,
,,,,,,,,,,,X V Q F H G B L J M P D K C T S W R N Z,5f245764a137ac00089e6c7d,23,Kobieta,2022-06-11_09h29.01.862,task,2021.1.4,Win32,59.80503558,6299f149e92ead563fba08ef,62a4441c560db9182378d0dd,,,,,,,,,,,,,,,,,,,,,,,,,,,,,,,,,,,,,,,,,,,,,,,,,,,,,,,,,,,,,,,,,,,,,,,,,,,,1,0,1,0,1,,,,,,,,,,,,,,,,,,,,,
,,,,,,,,,,,,5f245764a137ac00089e6c7d,23,Kobieta,2022-06-11_09h29.01.862,task,2021.1.4,Win32,59.80503558,6299f149e92ead563fba08ef,62a4441c560db9182378d0dd,,,,,,,,,,,,,0,,,,,,,,,,Task,8,(1x5) - 5,0,,,,,,,,,,,,,,,,,,,1,,,,,,,,,,,,,,,,,,,,,,,"[""0""]",1,0,0,0,7,1,[1.6675000000000182],,,,,,,,,,,,,,,,,,,,,,,,,,
,,,,,,,,,,,X V Q F H G B L J M P D K C T S W R N Z,5f245764a137ac00089e6c7d,23,Kobieta,2022-06-11_09h29.01.862,task,2021.1.4,Win32,59.80503558,6299f149e92ead563fba08ef,62a4441c560db9182378d0dd,,,,,,,,,,,,,,,,,,,,,,,,,,,,,,,,,,,,,,,,,,,,,,,,,,,,,,,,,,,,,,,,,,,,,,,,,,,,2,0,2,0,1,,,,,,,,,,,,,,,,,,,,,
,,,,,,,,,,,,5f245764a137ac00089e6c7d,23,Kobieta,2022-06-11_09h29.01.862,task,2021.1.4,Win32,59.80503558,6299f149e92ead563fba08ef,62a4441c560db9182378d0dd,,,,,,,,,,,,,5,,,,,,,,,,Task,22,(3x1) + 2,5,,,,,,,,,,,,,,,,,,,1,,,,,,,,,,,,,,,,,,,,,,,"[""5""]",1,0,0,0,21,1,[1.8217999999820904],,,,,,,,,,,,,,,,,,,,,,,,,,
,,,,,,,,,,,X V Q F H G B L J M P D K C T S W R N Z,5f245764a137ac00089e6c7d,23,Kobieta,2022-06-11_09h29.01.862,task,2021.1.4,Win32,59.80503558,6299f149e92ead563fba08ef,62a4441c560db9182378d0dd,,,,,,,,,,,,,,,,,,,,,,,,,,,,,,,,,,,,,,,,,,,,,,,,,,,,,,,,,,,,,,,,,,,,,,,,,,,,3,0,3,0,1,,,,,,,,,,,,,,,,,,,,,
,,,,,,,,,,,,5f245764a137ac00089e6c7d,23,Kobieta,2022-06-11_09h29.01.862,task,2021.1.4,Win32,59.80503558,6299f149e92ead563fba08ef,62a4441c560db9182378d0dd,,,,,,,,,,,,,8,,,,,,,,,,Task,39,(5x3) - 7,8,,,,,,,,,,,,,,,,,,,1,,,,,,,,,,,,,,,,,,,,,,,"[""8""]",1,0,0,0,38,1,[1.6040000000000418],,,,,,,,,,,,,,,,,,,,,,,,,,
,,,,,,,,,,,X V Q F H G B L J M P D K C T S W R N Z,5f245764a137ac00089e6c7d,23,Kobieta,2022-06-11_09h29.01.862,task,2021.1.4,Win32,59.80503558,6299f149e92ead563fba08ef,62a4441c560db9182378d0dd,,,,,,,,,,,,,,,,,,,,,,,,,,,,,,,,,,,,,,,,,,,,,,,,,,,,,,,,,,,,,,,,,,,,,,,,,,,,4,0,4,0,1,,,,,,,,,,,,,,,,,,,,,
,,,,,,,,,,,,5f245764a137ac00089e6c7d,23,Kobieta,2022-06-11_09h29.01.862,task,2021.1.4,Win32,59.80503558,6299f149e92ead563fba08ef,62a4441c560db9182378d0dd,,,,,,,,,,,,,,,,,,,,,,,,,,,,,,,,,,,,,,,,,,,,,,,,,,,,,,,,,,,,,,,,,,,,,,,,,,,,,,,,,tvflf,"[""t"",""v"",""f"",""l"",""f""]",0,"[1.1518000000119173,1.4160000000000537,1.8994000000060396,2.0493000000119537,2.2055999999940923,15.782099999994102]",1,TVFLF,3,0,3,0,1,,,,,,,,,,
,,,,,,,,,,,,5f245764a137ac00089e6c7d,23,Kobieta,2022-06-11_09h29.01.862,task,2021.1.4,Win32,59.80503558,6299f149e92ead563fba08ef,62a4441c560db9182378d0dd,,,,,,,,,,,,,5,,,,,,,,,,Task,12,(4x4) - 11,5,,,,,,,,,,,,,,,,,,,1,,,,,,,,,,,,,,,,,,,,,,,"[""5""]",1,0,0,0,11,1,[1.547700000017926],,,,,,,,,,,,,,,,,,,,,,,,,,
,,,,,,,,,,,X V Q F H G B L J M P D K C T S W R N Z,5f245764a137ac00089e6c7d,23,Kobieta,2022-06-11_09h29.01.862,task,2021.1.4,Win32,59.80503558,6299f149e92ead563fba08ef,62a4441c560db9182378d0dd,,,,,,,,,,,,,,,,,,,,,,,,,,,,,,,,,,,,,,,,,,,,,,,,,,,,,,,,,,,,,,,,,,,,,,,,,,,,0,0,0,0,1,,,,,,,,,,,,,,,,,,,,,
,,,,,,,,,,,,5f245764a137ac00089e6c7d,23,Kobieta,2022-06-11_09h29.01.862,task,2021.1.4,Win32,59.80503558,6299f149e92ead563fba08ef,62a4441c560db9182378d0dd,,,,,,,,,,,,,3,,,,,,,,,,Task,35,(1x2) + 1,3,,,,,,,,,,,,,,,,,,,1,,,,,,,,,,,,,,,,,,,,,,,"[""3""]",1,0,0,0,34,1,[1.2885000000001128],,,,,,,,,,,,,,,,,,,,,,,,,,
,,,,,,,,,,,X V Q F H G B L J M P D K C T S W R N Z,5f245764a137ac00089e6c7d,23,Kobieta,2022-06-11_09h29.01.862,task,2021.1.4,Win32,59.80503558,6299f149e92ead563fba08ef,62a4441c560db9182378d0dd,,,,,,,,,,,,,,,,,,,,,,,,,,,,,,,,,,,,,,,,,,,,,,,,,,,,,,,,,,,,,,,,,,,,,,,,,,,,1,0,1,0,1,,,,,,,,,,,,,,,,,,,,,
,,,,,,,,,,,,5f245764a137ac00089e6c7d,23,Kobieta,2022-06-11_09h29.01.862,task,2021.1.4,Win32,59.80503558,6299f149e92ead563fba08ef,62a4441c560db9182378d0dd,,,,,,,,,,,,,3,,,,,,,,,,Task,34,(9/3) - 2,1,,,,,,,,,,,,,,,,,,,0,,,,,,,,,,,,,,,,,,,,,,,"[""3""]",0,0,0,0,33,1,[1.9317000000178268],,,,,,,,,,,,,,,,,,,,,,,,,,
,,,,,,,,,,,,5f245764a137ac00089e6c7d,23,Kobieta,2022-06-11_09h29.01.862,task,2021.1.4,Win32,59.80503558,6299f149e92ead563fba08ef,62a4441c560db9182378d0dd,,,,,,,,,,,,,3,,,,,,,,,,Task,27,(3/3) + 2,3,,,,,,,,,,,,,,,,,,,1,,,,,,,,,,,,,,,,,,,,,,,"[""3""]",1,0,1,1,26,1,[2.713799999982143],,,,,,,,,,,,,,,,,,,,,,,,,,
,,,,,,,,,,,X V Q F H G B L J M P D K C T S W R N Z,5f245764a137ac00089e6c7d,23,Kobieta,2022-06-11_09h29.01.862,task,2021.1.4,Win32,59.80503558,6299f149e92ead563fba08ef,62a4441c560db9182378d0dd,,,,,,,,,,,,,,,,,,,,,,,,,,,,,,,,,,,,,,,,,,,,,,,,,,,,,,,,,,,,,,,,,,,,,,,,,,,,2,0,2,0,1,,,,,,,,,,,,,,,,,,,,,
,,,,,,,,,,,,5f245764a137ac00089e6c7d,23,Kobieta,2022-06-11_09h29.01.862,task,2021.1.4,Win32,59.80503558,6299f149e92ead563fba08ef,62a4441c560db9182378d0dd,,,,,,,,,,,,,3,,,,,,,,,,Task,35,(1x2) + 1,3,,,,,,,,,,,,,,,,,,,1,,,,,,,,,,,,,,,,,,,,,,,"[""3""]",1,0,0,0,34,1,[1.9182000000179187],,,,,,,,,,,,,,,,,,,,,,,,,,
,,,,,,,,,,,X V Q F H G B L J M P D K C T S W R N Z,5f245764a137ac00089e6c7d,23,Kobieta,2022-06-11_09h29.01.862,task,2021.1.4,Win32,59.80503558,6299f149e92ead563fba08ef,62a4441c560db9182378d0dd,,,,,,,,,,,,,,,,,,,,,,,,,,,,,,,,,,,,,,,,,,,,,,,,,,,,,,,,,,,,,,,,,,,,,,,,,,,,3,0,3,0,1,,,,,,,,,,,,,,,,,,,,,
,,,,,,,,,,,,5f245764a137ac00089e6c7d,23,Kobieta,2022-06-11_09h29.01.862,task,2021.1.4,Win32,59.80503558,6299f149e92ead563fba08ef,62a4441c560db9182378d0dd,,,,,,,,,,,,,3,,,,,,,,,,Task,35,(1x2) + 1,3,,,,,,,,,,,,,,,,,,,1,,,,,,,,,,,,,,,,,,,,,,,"[""3""]",1,0,0,0,34,1,[2.6172999999821513],,,,,,,,,,,,,,,,,,,,,,,,,,
,,,,,,,,,,,X V Q F H G B L J M P D K C T S W R N Z,5f245764a137ac00089e6c7d,23,Kobieta,2022-06-11_09h29.01.862,task,2021.1.4,Win32,59.80503558,6299f149e92ead563fba08ef,62a4441c560db9182378d0dd,,,,,,,,,,,,,,,,,,,,,,,,,,,,,,,,,,,,,,,,,,,,,,,,,,,,,,,,,,,,,,,,,,,,,,,,,,,,4,0,4,0,1,,,,,,,,,,,,,,,,,,,,,
,,,,,,,,,,,,5f245764a137ac00089e6c7d,23,Kobieta,2022-06-11_09h29.01.862,task,2021.1.4,Win32,59.80503558,6299f149e92ead563fba08ef,62a4441c560db9182378d0dd,,,,,,,,,,,,,3,,,,,,,,,,Task,19,(6/2) - 1,2,,,,,,,,,,,,,,,,,,,0,,,,,,,,,,,,,,,,,,,,,,,"[""3""]",0,0,0,0,18,1,[3.9194000000059077],,,,,,,,,,,,,,,,,,,,,,,,,,
,,,,,,,,,,,,5f245764a137ac00089e6c7d,23,Kobieta,2022-06-11_09h29.01.862,task,2021.1.4,Win32,59.80503558,6299f149e92ead563fba08ef,62a4441c560db9182378d0dd,,,,,,,,,,,,,6,,,,,,,,,,Task,30,(6/3) + 4 ,6,,,,,,,,,,,,,,,,,,,1,,,,,,,,,,,,,,,,,,,,,,,"[""6""]",1,0,1,1,29,1,[2.60060000002386],,,,,,,,,,,,,,,,,,,,,,,,,,
,,,,,,,,,,,X V Q F H G B L J M P D K C T S W R N Z,5f245764a137ac00089e6c7d,23,Kobieta,2022-06-11_09h29.01.862,task,2021.1.4,Win32,59.80503558,6299f149e92ead563fba08ef,62a4441c560db9182378d0dd,,,,,,,,,,,,,,,,,,,,,,,,,,,,,,,,,,,,,,,,,,,,,,,,,,,,,,,,,,,,,,,,,,,,,,,,,,,,5,0,5,0,1,,,,,,,,,,,,,,,,,,,,,
,,,,,,,,,,,,5f245764a137ac00089e6c7d,23,Kobieta,2022-06-11_09h29.01.862,task,2021.1.4,Win32,59.80503558,6299f149e92ead563fba08ef,62a4441c560db9182378d0dd,,,,,,,,,,,,,,,,,,,,,,,,,,,,,,,,,,,,,,,,,,,,,,,,,,,,,,,,,,,,,,,,,,,,,,,,,,,,,,,,,kpcdpv,"[""k"",""p"",""c"",""d"",""p"",""v""]",0,"[1.2220999999940432,1.5748999999761963,1.918199999988019,2.398099999993974,2.7835000000000036,3.1649999999999636,5.201899999976149]",1,KPCDPV,4,0,4,0,1,,,,,,,,,,
,,,,,,,,,,,,5f245764a137ac00089e6c7d,23,Kobieta,2022-06-11_09h29.01.862,task,2021.1.4,Win32,59.80503558,6299f149e92ead563fba08ef,62a4441c560db9182378d0dd,,,,,,,,,,,,,9,,,,,,,,,,Task,24,(2x2) + 5,9,,,,,,,,,,,,,,,,,,,1,,,,,,,,,,,,,,,,,,,,,,,"[""9""]",1,0,0,0,23,1,[1.7981999999881282],,,,,,,,,,,,,,,,,,,,,,,,,,
,,,,,,,,,,,X V Q F H G B L J M P D K C T S W R N Z,5f245764a137ac00089e6c7d,23,Kobieta,2022-06-11_09h29.01.862,task,2021.1.4,Win32,59.80503558,6299f149e92ead563fba08ef,62a4441c560db9182378d0dd,,,,,,,,,,,,,,,,,,,,,,,,,,,,,,,,,,,,,,,,,,,,,,,,,,,,,,,,,,,,,,,,,,,,,,,,,,,,0,0,0,0,1,,,,,,,,,,,,,,,,,,,,,
,,,,,,,,,,,,5f245764a137ac00089e6c7d,23,Kobieta,2022-06-11_09h29.01.862,task,2021.1.4,Win32,59.80503558,6299f149e92ead563fba08ef,62a4441c560db9182378d0dd,,,,,,,,,,,,,7,,,,,,,,,,Task,30,(6/3) + 4 ,6,,,,,,,,,,,,,,,,,,,0,,,,,,,,,,,,,,,,,,,,,,,"[""7""]",0,0,0,0,29,1,[3.7572000000178605],,,,,,,,,,,,,,,,,,,,,,,,,,
,,,,,,,,,,,,5f245764a137ac00089e6c7d,23,Kobieta,2022-06-11_09h29.01.862,task,2021.1.4,Win32,59.80503558,6299f149e92ead563fba08ef,62a4441c560db9182378d0dd,,,,,,,,,,,,,0,,,,,,,,,,Task,25,(10/5) - 2,0,,,,,,,,,,,,,,,,,,,1,,,,,,,,,,,,,,,,,,,,,,,"[""0""]",1,0,1,1,24,1,[3.0329000000059523],,,,,,,,,,,,,,,,,,,,,,,,,,
,,,,,,,,,,,X V Q F H G B L J M P D K C T S W R N Z,5f245764a137ac00089e6c7d,23,Kobieta,2022-06-11_09h29.01.862,task,2021.1.4,Win32,59.80503558,6299f149e92ead563fba08ef,62a4441c560db9182378d0dd,,,,,,,,,,,,,,,,,,,,,,,,,,,,,,,,,,,,,,,,,,,,,,,,,,,,,,,,,,,,,,,,,,,,,,,,,,,,1,0,1,0,1,,,,,,,,,,,,,,,,,,,,,
,,,,,,,,,,,,5f245764a137ac00089e6c7d,23,Kobieta,2022-06-11_09h29.01.862,task,2021.1.4,Win32,59.80503558,6299f149e92ead563fba08ef,62a4441c560db9182378d0dd,,,,,,,,,,,,,3,,,,,,,,,,Task,20,(18/9) + 1,3,,,,,,,,,,,,,,,,,,,1,,,,,,,,,,,,,,,,,,,,,,,"[""3""]",1,0,0,0,19,1,[3.0473999999761645],,,,,,,,,,,,,,,,,,,,,,,,,,
,,,,,,,,,,,X V Q F H G B L J M P D K C T S W R N Z,5f245764a137ac00089e6c7d,23,Kobieta,2022-06-11_09h29.01.862,task,2021.1.4,Win32,59.80503558,6299f149e92ead563fba08ef,62a4441c560db9182378d0dd,,,,,,,,,,,,,,,,,,,,,,,,,,,,,,,,,,,,,,,,,,,,,,,,,,,,,,,,,,,,,,,,,,,,,,,,,,,,2,0,2,0,1,,,,,,,,,,,,,,,,,,,,,
,,,,,,,,,,,,5f245764a137ac00089e6c7d,23,Kobieta,2022-06-11_09h29.01.862,task,2021.1.4,Win32,59.80503558,6299f149e92ead563fba08ef,62a4441c560db9182378d0dd,,,,,,,,,,,,,1,,,,,,,,,,Task,1,(12/6) - 1,1,,,,,,,,,,,,,,,,,,,1,,,,,,,,,,,,,,,,,,,,,,,"[""1""]",1,0,0,0,0,1,[3.8166999999880318],,,,,,,,,,,,,,,,,,,,,,,,,,
,,,,,,,,,,,X V Q F H G B L J M P D K C T S W R N Z,5f245764a137ac00089e6c7d,23,Kobieta,2022-06-11_09h29.01.862,task,2021.1.4,Win32,59.80503558,6299f149e92ead563fba08ef,62a4441c560db9182378d0dd,,,,,,,,,,,,,,,,,,,,,,,,,,,,,,,,,,,,,,,,,,,,,,,,,,,,,,,,,,,,,,,,,,,,,,,,,,,,3,0,3,0,1,,,,,,,,,,,,,,,,,,,,,
,,,,,,,,,,,,5f245764a137ac00089e6c7d,23,Kobieta,2022-06-11_09h29.01.862,task,2021.1.4,Win32,59.80503558,6299f149e92ead563fba08ef,62a4441c560db9182378d0dd,,,,,,,,,,,,,7,,,,,,,,,,Task,36,(8/4) + 3,5,,,,,,,,,,,,,,,,,,,0,,,,,,,,,,,,,,,,,,,,,,,"[""7""]",0,0,0,0,35,1,[1.4524999999999864],,,,,,,,,,,,,,,,,,,,,,,,,,
,,,,,,,,,,,,5f245764a137ac00089e6c7d,23,Kobieta,2022-06-11_09h29.01.862,task,2021.1.4,Win32,59.80503558,6299f149e92ead563fba08ef,62a4441c560db9182378d0dd,,,,,,,,,,,,,7,,,,,,,,,,Task,31,(4/2) + 5,7,,,,,,,,,,,,,,,,,,,1,,,,,,,,,,,,,,,,,,,,,,,"[""7""]",1,0,1,1,30,1,[2.05499999999995],,,,,,,,,,,,,,,,,,,,,,,,,,
,,,,,,,,,,,X V Q F H G B L J M P D K C T S W R N Z,5f245764a137ac00089e6c7d,23,Kobieta,2022-06-11_09h29.01.862,task,2021.1.4,Win32,59.80503558,6299f149e92ead563fba08ef,62a4441c560db9182378d0dd,,,,,,,,,,,,,,,,,,,,,,,,,,,,,,,,,,,,,,,,,,,,,,,,,,,,,,,,,,,,,,,,,,,,,,,,,,,,4,0,4,0,1,,,,,,,,,,,,,,,,,,,,,
,,,,,,,,,,,,5f245764a137ac00089e6c7d,23,Kobieta,2022-06-11_09h29.01.862,task,2021.1.4,Win32,59.80503558,6299f149e92ead563fba08ef,62a4441c560db9182378d0dd,,,,,,,,,,,,,4,,,,,,,,,,Task,4,(1x5) - 1,4,,,,,,,,,,,,,,,,,,,1,,,,,,,,,,,,,,,,,,,,,,,"[""4""]",1,0,0,0,3,1,[2.2511999999881027],,,,,,,,,,,,,,,,,,,,,,,,,,
,,,,,,,,,,,X V Q F H G B L J M P D K C T S W R N Z,5f245764a137ac00089e6c7d,23,Kobieta,2022-06-11_09h29.01.862,task,2021.1.4,Win32,59.80503558,6299f149e92ead563fba08ef,62a4441c560db9182378d0dd,,,,,,,,,,,,,,,,,,,,,,,,,,,,,,,,,,,,,,,,,,,,,,,,,,,,,,,,,,,,,,,,,,,,,,,,,,,,5,0,5,0,1,,,,,,,,,,,,,,,,,,,,,
,,,,,,,,,,,,5f245764a137ac00089e6c7d,23,Kobieta,2022-06-11_09h29.01.862,task,2021.1.4,Win32,59.80503558,6299f149e92ead563fba08ef,62a4441c560db9182378d0dd,,,,,,,,,,,,,7,,,,,,,,,,Task,31,(4/2) + 5,7,,,,,,,,,,,,,,,,,,,1,,,,,,,,,,,,,,,,,,,,,,,"[""7""]",1,0,0,0,30,1,[2.197599999994054],,,,,,,,,,,,,,,,,,,,,,,,,,
,,,,,,,,,,,X V Q F H G B L J M P D K C T S W R N Z,5f245764a137ac00089e6c7d,23,Kobieta,2022-06-11_09h29.01.862,task,2021.1.4,Win32,59.80503558,6299f149e92ead563fba08ef,62a4441c560db9182378d0dd,,,,,,,,,,,,,,,,,,,,,,,,,,,,,,,,,,,,,,,,,,,,,,,,,,,,,,,,,,,,,,,,,,,,,,,,,,,,6,0,6,0,1,,,,,,,,,,,,,,,,,,,,,
,,,,,,,,,,,,5f245764a137ac00089e6c7d,23,Kobieta,2022-06-11_09h29.01.862,task,2021.1.4,Win32,59.80503558,6299f149e92ead563fba08ef,62a4441c560db9182378d0dd,,,,,,,,,,,,,,,,,,,,,,,,,,,,,,,,,,,,,,,,,,,,,,,,,,,,,,,,,,,,,,,,,,,,,,,,,,,,,,,,,gkwpnzp,"[""g"",""k"",""w"",""p"",""n"",""z"",""p""]",0,"[2.1840000000000828,3.3019000000059577,3.556400000005965,3.6985999999940304,4.688300000011964,5.0150999999940495,5.254900000006046,7.565000000000055]",1,GKWPNZP,5,0,5,0,1,,,,,,,,,,
,,,,,,,,,,,,5f245764a137ac00089e6c7d,23,Kobieta,2022-06-11_09h29.01.862,task,2021.1.4,Win32,59.80503558,6299f149e92ead563fba08ef,62a4441c560db9182378d0dd,,,,,,,,,,,,,4,,,,,,,,,,Task,11,(18/3) - 2,4,,,,,,,,,,,,,,,,,,,1,,,,,,,,,,,,,,,,,,,,,,,"[""4""]",1,0,0,0,10,1,[3.663400000005936],,,,,,,,,,,,,,,,,,,,,,,,,,
,,,,,,,,,,,X V Q F H G B L J M P D K C T S W R N Z,5f245764a137ac00089e6c7d,23,Kobieta,2022-06-11_09h29.01.862,task,2021.1.4,Win32,59.80503558,6299f149e92ead563fba08ef,62a4441c560db9182378d0dd,,,,,,,,,,,,,,,,,,,,,,,,,,,,,,,,,,,,,,,,,,,,,,,,,,,,,,,,,,,,,,,,,,,,,,,,,,,,0,0,0,0,1,,,,,,,,,,,,,,,,,,,,,
,,,,,,,,,,,,5f245764a137ac00089e6c7d,23,Kobieta,2022-06-11_09h29.01.862,task,2021.1.4,Win32,59.80503558,6299f149e92ead563fba08ef,62a4441c560db9182378d0dd,,,,,,,,,,,,,6,,,,,,,,,,Task,30,(6/3) + 4 ,6,,,,,,,,,,,,,,,,,,,1,,,,,,,,,,,,,,,,,,,,,,,"[""6""]",1,0,0,0,29,1,[3.1230999999941105],,,,,,,,,,,,,,,,,,,,,,,,,,
,,,,,,,,,,,X V Q F H G B L J M P D K C T S W R N Z,5f245764a137ac00089e6c7d,23,Kobieta,2022-06-11_09h29.01.862,task,2021.1.4,Win32,59.80503558,6299f149e92ead563fba08ef,62a4441c560db9182378d0dd,,,,,,,,,,,,,,,,,,,,,,,,,,,,,,,,,,,,,,,,,,,,,,,,,,,,,,,,,,,,,,,,,,,,,,,,,,,,1,0,1,0,1,,,,,,,,,,,,,,,,,,,,,
,,,,,,,,,,,,5f245764a137ac00089e6c7d,23,Kobieta,2022-06-11_09h29.01.862,task,2021.1.4,Win32,59.80503558,6299f149e92ead563fba08ef,62a4441c560db9182378d0dd,,,,,,,,,,,,,5,,,,,,,,,,Task,29,(3x8) - 19 ,5,,,,,,,,,,,,,,,,,,,1,,,,,,,,,,,,,,,,,,,,,,,"[""5""]",1,0,0,0,28,1,[4.236900000005903],,,,,,,,,,,,,,,,,,,,,,,,,,
,,,,,,,,,,,X V Q F H G B L J M P D K C T S W R N Z,5f245764a137ac00089e6c7d,23,Kobieta,2022-06-11_09h29.01.862,task,2021.1.4,Win32,59.80503558,6299f149e92ead563fba08ef,62a4441c560db9182378d0dd,,,,,,,,,,,,,,,,,,,,,,,,,,,,,,,,,,,,,,,,,,,,,,,,,,,,,,,,,,,,,,,,,,,,,,,,,,,,2,0,2,0,1,,,,,,,,,,,,,,,,,,,,,
,,,,,,,,,,,,5f245764a137ac00089e6c7d,23,Kobieta,2022-06-11_09h29.01.862,task,2021.1.4,Win32,59.80503558,6299f149e92ead563fba08ef,62a4441c560db9182378d0dd,,,,,,,,,,,,,1,,,,,,,,,,Task,1,(12/6) - 1,1,,,,,,,,,,,,,,,,,,,1,,,,,,,,,,,,,,,,,,,,,,,"[""1""]",1,0,0,0,0,1,[2.130300000011971],,,,,,,,,,,,,,,,,,,,,,,,,,
,,,,,,,,,,,X V Q F H G B L J M P D K C T S W R N Z,5f245764a137ac00089e6c7d,23,Kobieta,2022-06-11_09h29.01.862,task,2021.1.4,Win32,59.80503558,6299f149e92ead563fba08ef,62a4441c560db9182378d0dd,,,,,,,,,,,,,,,,,,,,,,,,,,,,,,,,,,,,,,,,,,,,,,,,,,,,,,,,,,,,,,,,,,,,,,,,,,,,3,0,3,0,1,,,,,,,,,,,,,,,,,,,,,
,,,,,,,,,,,,5f245764a137ac00089e6c7d,23,Kobieta,2022-06-11_09h29.01.862,task,2021.1.4,Win32,59.80503558,6299f149e92ead563fba08ef,62a4441c560db9182378d0dd,,,,,,,,,,,,,8,,,,,,,,,,Task,32,(8/2) + 4,8,,,,,,,,,,,,,,,,,,,1,,,,,,,,,,,,,,,,,,,,,,,"[""8""]",1,0,0,0,31,1,[2.0969000000060305],,,,,,,,,,,,,,,,,,,,,,,,,,
,,,,,,,,,,,X V Q F H G B L J M P D K C T S W R N Z,5f245764a137ac00089e6c7d,23,Kobieta,2022-06-11_09h29.01.862,task,2021.1.4,Win32,59.80503558,6299f149e92ead563fba08ef,62a4441c560db9182378d0dd,,,,,,,,,,,,,,,,,,,,,,,,,,,,,,,,,,,,,,,,,,,,,,,,,,,,,,,,,,,,,,,,,,,,,,,,,,,,4,0,4,0,1,,,,,,,,,,,,,,,,,,,,,
,,,,,,,,,,,,5f245764a137ac00089e6c7d,23,Kobieta,2022-06-11_09h29.01.862,task,2021.1.4,Win32,59.80503558,6299f149e92ead563fba08ef,62a4441c560db9182378d0dd,,,,,,,,,,,,,4,,,,,,,,,,Task,11,(18/3) - 2,4,,,,,,,,,,,,,,,,,,,1,,,,,,,,,,,,,,,,,,,,,,,"[""4""]",1,0,0,0,10,1,[3.6579000000059523],,,,,,,,,,,,,,,,,,,,,,,,,,
,,,,,,,,,,,X V Q F H G B L J M P D K C T S W R N Z,5f245764a137ac00089e6c7d,23,Kobieta,2022-06-11_09h29.01.862,task,2021.1.4,Win32,59.80503558,6299f149e92ead563fba08ef,62a4441c560db9182378d0dd,,,,,,,,,,,,,,,,,,,,,,,,,,,,,,,,,,,,,,,,,,,,,,,,,,,,,,,,,,,,,,,,,,,,,,,,,,,,5,0,5,0,1,,,,,,,,,,,,,,,,,,,,,
,,,,,,,,,,,,5f245764a137ac00089e6c7d,23,Kobieta,2022-06-11_09h29.01.862,task,2021.1.4,Win32,59.80503558,6299f149e92ead563fba08ef,62a4441c560db9182378d0dd,,,,,,,,,,,,,0,,,,,,,,,,Task,17,(2x3) - 6,0,,,,,,,,,,,,,,,,,,,1,,,,,,,,,,,,,,,,,,,,,,,"[""0""]",1,0,0,0,16,1,[2.5975999999940314],,,,,,,,,,,,,,,,,,,,,,,,,,
,,,,,,,,,,,X V Q F H G B L J M P D K C T S W R N Z,5f245764a137ac00089e6c7d,23,Kobieta,2022-06-11_09h29.01.862,task,2021.1.4,Win32,59.80503558,6299f149e92ead563fba08ef,62a4441c560db9182378d0dd,,,,,,,,,,,,,,,,,,,,,,,,,,,,,,,,,,,,,,,,,,,,,,,,,,,,,,,,,,,,,,,,,,,,,,,,,,,,6,0,6,0,1,,,,,,,,,,,,,,,,,,,,,
,,,,,,,,,,,,5f245764a137ac00089e6c7d,23,Kobieta,2022-06-11_09h29.01.862,task,2021.1.4,Win32,59.80503558,6299f149e92ead563fba08ef,62a4441c560db9182378d0dd,,,,,,,,,,,,,9,,,,,,,,,,Task,7,(3x7) - 12,9,,,,,,,,,,,,,,,,,,,1,,,,,,,,,,,,,,,,,,,,,,,"[""9""]",1,0,0,0,6,1,[3.584500000000048],,,,,,,,,,,,,,,,,,,,,,,,,,
,,,,,,,,,,,X V Q F H G B L J M P D K C T S W R N Z,5f245764a137ac00089e6c7d,23,Kobieta,2022-06-11_09h29.01.862,task,2021.1.4,Win32,59.80503558,6299f149e92ead563fba08ef,62a4441c560db9182378d0dd,,,,,,,,,,,,,,,,,,,,,,,,,,,,,,,,,,,,,,,,,,,,,,,,,,,,,,,,,,,,,,,,,,,,,,,,,,,,7,0,7,0,1,,,,,,,,,,,,,,,,,,,,,
,,,,,,,,,,,,5f245764a137ac00089e6c7d,23,Kobieta,2022-06-11_09h29.01.862,task,2021.1.4,Win32,59.80503558,6299f149e92ead563fba08ef,62a4441c560db9182378d0dd,,,,,,,,,,,,,,,,,,,,,,,,,,,,,,,,,,,,,,,,,,,,,,,,,,,,,,,,,,,,,,,,,,,,,,,,,,,,,,,,,pnvvxqcq,"[""p"",""n"",""v"",""v"",""x"",""q"",""c"",""q""]",0,"[1.7185999999940123,1.9511999999881482,2.124699999988138,2.3510999999940623,4.551199999988057,4.951199999988148,5.408999999999992,6.13429999998209,9.73989999997616]",1,PNVVXQCQ,6,0,6,0,1,,,,,,,,,,
,,,,,,,,,,,,5f245764a137ac00089e6c7d,23,Kobieta,2022-06-11_09h29.01.862,task,2021.1.4,Win32,59.80503558,6299f149e92ead563fba08ef,62a4441c560db9182378d0dd,,,,,,,,,,,,,8,,,,,,,,,,Task,39,(5x3) - 7,8,,,,,,,,,,,,,,,,,,,1,,,,,,,,,,,,,,,,,,,,,,,"[""8""]",1,0,0,0,38,1,[2.391300000011938],,,,,,,,,,,,,,,,,,,,,,,,,,
,,,,,,,,,,,X V Q F H G B L J M P D K C T S W R N Z,5f245764a137ac00089e6c7d,23,Kobieta,2022-06-11_09h29.01.862,task,2021.1.4,Win32,59.80503558,6299f149e92ead563fba08ef,62a4441c560db9182378d0dd,,,,,,,,,,,,,,,,,,,,,,,,,,,,,,,,,,,,,,,,,,,,,,,,,,,,,,,,,,,,,,,,,,,,,,,,,,,,0,0,0,0,1,,,,,,,,,,,,,,,,,,,,,
,,,,,,,,,,,,5f245764a137ac00089e6c7d,23,Kobieta,2022-06-11_09h29.01.862,task,2021.1.4,Win32,59.80503558,6299f149e92ead563fba08ef,62a4441c560db9182378d0dd,,,,,,,,,,,,,1,,,,,,,,,,Task,18,(16/4) - 3,1,,,,,,,,,,,,,,,,,,,1,,,,,,,,,,,,,,,,,,,,,,,"[""1""]",1,0,0,0,17,1,[3.021799999982136],,,,,,,,,,,,,,,,,,,,,,,,,,
,,,,,,,,,,,X V Q F H G B L J M P D K C T S W R N Z,5f245764a137ac00089e6c7d,23,Kobieta,2022-06-11_09h29.01.862,task,2021.1.4,Win32,59.80503558,6299f149e92ead563fba08ef,62a4441c560db9182378d0dd,,,,,,,,,,,,,,,,,,,,,,,,,,,,,,,,,,,,,,,,,,,,,,,,,,,,,,,,,,,,,,,,,,,,,,,,,,,,1,0,1,0,1,,,,,,,,,,,,,,,,,,,,,
,,,,,,,,,,,,5f245764a137ac00089e6c7d,23,Kobieta,2022-06-11_09h29.01.862,task,2021.1.4,Win32,59.80503558,6299f149e92ead563fba08ef,62a4441c560db9182378d0dd,,,,,,,,,,,,,9,,,,,,,,,,Task,16,(3x8) - 15,9,,,,,,,,,,,,,,,,,,,1,,,,,,,,,,,,,,,,,,,,,,,"[""9""]",1,0,0,0,15,1,[5.037500000000023],,,,,,,,,,,,,,,,,,,,,,,,,,
,,,,,,,,,,,X V Q F H G B L J M P D K C T S W R N Z,5f245764a137ac00089e6c7d,23,Kobieta,2022-06-11_09h29.01.862,task,2021.1.4,Win32,59.80503558,6299f149e92ead563fba08ef,62a4441c560db9182378d0dd,,,,,,,,,,,,,,,,,,,,,,,,,,,,,,,,,,,,,,,,,,,,,,,,,,,,,,,,,,,,,,,,,,,,,,,,,,,,2,0,2,0,1,,,,,,,,,,,,,,,,,,,,,
,,,,,,,,,,,,5f245764a137ac00089e6c7d,23,Kobieta,2022-06-11_09h29.01.862,task,2021.1.4,Win32,59.80503558,6299f149e92ead563fba08ef,62a4441c560db9182378d0dd,,,,,,,,,,,,,1,,,,,,,,,,Task,13,(3x4) - 6,6,,,,,,,,,,,,,,,,,,,0,,,,,,,,,,,,,,,,,,,,,,,"[""1""]",0,0,0,0,12,1,[1.4478000000119664],,,,,,,,,,,,,,,,,,,,,,,,,,
,,,,,,,,,,,,5f245764a137ac00089e6c7d,23,Kobieta,2022-06-11_09h29.01.862,task,2021.1.4,Win32,59.80503558,6299f149e92ead563fba08ef,62a4441c560db9182378d0dd,,,,,,,,,,,,,7,,,,,,,,,,Task,31,(4/2) + 5,7,,,,,,,,,,,,,,,,,,,1,,,,,,,,,,,,,,,,,,,,,,,"[""7""]",1,0,1,1,30,1,[2.8795000000000073],,,,,,,,,,,,,,,,,,,,,,,,,,
,,,,,,,,,,,X V Q F H G B L J M P D K C T S W R N Z,5f245764a137ac00089e6c7d,23,Kobieta,2022-06-11_09h29.01.862,task,2021.1.4,Win32,59.80503558,6299f149e92ead563fba08ef,62a4441c560db9182378d0dd,,,,,,,,,,,,,,,,,,,,,,,,,,,,,,,,,,,,,,,,,,,,,,,,,,,,,,,,,,,,,,,,,,,,,,,,,,,,3,0,3,0,1,,,,,,,,,,,,,,,,,,,,,
,,,,,,,,,,,,5f245764a137ac00089e6c7d,23,Kobieta,2022-06-11_09h29.01.862,task,2021.1.4,Win32,59.80503558,6299f149e92ead563fba08ef,62a4441c560db9182378d0dd,,,,,,,,,,,,,8,,,,,,,,,,Task,32,(8/2) + 4,8,,,,,,,,,,,,,,,,,,,1,,,,,,,,,,,,,,,,,,,,,,,"[""8""]",1,0,0,0,31,1,[2.6479000000059614],,,,,,,,,,,,,,,,,,,,,,,,,,
,,,,,,,,,,,X V Q F H G B L J M P D K C T S W R N Z,5f245764a137ac00089e6c7d,23,Kobieta,2022-06-11_09h29.01.862,task,2021.1.4,Win32,59.80503558,6299f149e92ead563fba08ef,62a4441c560db9182378d0dd,,,,,,,,,,,,,,,,,,,,,,,,,,,,,,,,,,,,,,,,,,,,,,,,,,,,,,,,,,,,,,,,,,,,,,,,,,,,4,0,4,0,1,,,,,,,,,,,,,,,,,,,,,
,,,,,,,,,,,,5f245764a137ac00089e6c7d,23,Kobieta,2022-06-11_09h29.01.862,task,2021.1.4,Win32,59.80503558,6299f149e92ead563fba08ef,62a4441c560db9182378d0dd,,,,,,,,,,,,,1,,,,,,,,,,Task,1,(12/6) - 1,1,,,,,,,,,,,,,,,,,,,1,,,,,,,,,,,,,,,,,,,,,,,"[""1""]",1,0,0,0,0,1,[2.2164999999999964],,,,,,,,,,,,,,,,,,,,,,,,,,
,,,,,,,,,,,X V Q F H G B L J M P D K C T S W R N Z,5f245764a137ac00089e6c7d,23,Kobieta,2022-06-11_09h29.01.862,task,2021.1.4,Win32,59.80503558,6299f149e92ead563fba08ef,62a4441c560db9182378d0dd,,,,,,,,,,,,,,,,,,,,,,,,,,,,,,,,,,,,,,,,,,,,,,,,,,,,,,,,,,,,,,,,,,,,,,,,,,,,5,0,5,0,1,,,,,,,,,,,,,,,,,,,,,
,,,,,,,,,,,,5f245764a137ac00089e6c7d,23,Kobieta,2022-06-11_09h29.01.862,task,2021.1.4,Win32,59.80503558,6299f149e92ead563fba08ef,62a4441c560db9182378d0dd,,,,,,,,,,,,,3,,,,,,,,,,Task,35,(1x2) + 1,3,,,,,,,,,,,,,,,,,,,1,,,,,,,,,,,,,,,,,,,,,,,"[""3""]",1,0,0,0,34,1,[4.652500000000032],,,,,,,,,,,,,,,,,,,,,,,,,,
,,,,,,,,,,,X V Q F H G B L J M P D K C T S W R N Z,5f245764a137ac00089e6c7d,23,Kobieta,2022-06-11_09h29.01.862,task,2021.1.4,Win32,59.80503558,6299f149e92ead563fba08ef,62a4441c560db9182378d0dd,,,,,,,,,,,,,,,,,,,,,,,,,,,,,,,,,,,,,,,,,,,,,,,,,,,,,,,,,,,,,,,,,,,,,,,,,,,,6,0,6,0,1,,,,,,,,,,,,,,,,,,,,,
,,,,,,,,,,,,5f245764a137ac00089e6c7d,23,Kobieta,2022-06-11_09h29.01.862,task,2021.1.4,Win32,59.80503558,6299f149e92ead563fba08ef,62a4441c560db9182378d0dd,,,,,,,,,,,,,0,,,,,,,,,,Task,17,(2x3) - 6,0,,,,,,,,,,,,,,,,,,,1,,,,,,,,,,,,,,,,,,,,,,,"[""0""]",1,0,0,0,16,1,[1.9491000000238046],,,,,,,,,,,,,,,,,,,,,,,,,,
,,,,,,,,,,,X V Q F H G B L J M P D K C T S W R N Z,5f245764a137ac00089e6c7d,23,Kobieta,2022-06-11_09h29.01.862,task,2021.1.4,Win32,59.80503558,6299f149e92ead563fba08ef,62a4441c560db9182378d0dd,,,,,,,,,,,,,,,,,,,,,,,,,,,,,,,,,,,,,,,,,,,,,,,,,,,,,,,,,,,,,,,,,,,,,,,,,,,,7,0,7,0,1,,,,,,,,,,,,,,,,,,,,,
,,,,,,,,,,,,5f245764a137ac00089e6c7d,23,Kobieta,2022-06-11_09h29.01.862,task,2021.1.4,Win32,59.80503558,6299f149e92ead563fba08ef,62a4441c560db9182378d0dd,,,,,,,,,,,,,0,,,,,,,,,,Task,17,(2x3) - 6,0,,,,,,,,,,,,,,,,,,,1,,,,,,,,,,,,,,,,,,,,,,,"[""0""]",1,0,0,0,16,1,[2.6018999999761263],,,,,,,,,,,,,,,,,,,,,,,,,,
,,,,,,,,,,,X V Q F H G B L J M P D K C T S W R N Z,5f245764a137ac00089e6c7d,23,Kobieta,2022-06-11_09h29.01.862,task,2021.1.4,Win32,59.80503558,6299f149e92ead563fba08ef,62a4441c560db9182378d0dd,,,,,,,,,,,,,,,,,,,,,,,,,,,,,,,,,,,,,,,,,,,,,,,,,,,,,,,,,,,,,,,,,,,,,,,,,,,,8,0,8,0,1,,,,,,,,,,,,,,,,,,,,,
,,,,,,,,,,,,5f245764a137ac00089e6c7d,23,Kobieta,2022-06-11_09h29.01.862,task,2021.1.4,Win32,59.80503558,6299f149e92ead563fba08ef,62a4441c560db9182378d0dd,,,,,,,,,,,,,,,,,,,,,,,,,,,,,,,,,,,,,,,,,,,,,,,,,,,,,,,,,,,,,,,,,,,,,,,,,,,,,,,,,bxzvrnsfw,"[""b"",""x"",""z"",""v"",""r"",""n"",""s"",""f"",""w""]",0,"[1.3378999999761163,1.5684999999999718,1.9401999999880672,2.2982999999820777,3.154199999988009,3.268399999976168,10.773000000000025,10.981499999999983,11.230500000000006,16.639799999982074]",1,BXZVRNSFW,7,0,7,0,1,,,,,,,,,,
,,,,,,,,,,,,5f245764a137ac00089e6c7d,23,Kobieta,2022-06-11_09h29.01.862,task,2021.1.4,Win32,59.80503558,6299f149e92ead563fba08ef,62a4441c560db9182378d0dd,,,,,,,,,,,,,6,,,,,,,,,,Task,37,(3/3) + 5,6,,,,,,,,,,,,,,,,,,,1,,,,,,,,,,,,,,,,,,,,,,,"[""6""]",1,0,0,0,36,1,[3.0382999999820868],,,,,,,,,,,,,,,,,,,,,,,,,,
,,,,,,,,,,,X V Q F H G B L J M P D K C T S W R N Z,5f245764a137ac00089e6c7d,23,Kobieta,2022-06-11_09h29.01.862,task,2021.1.4,Win32,59.80503558,6299f149e92ead563fba08ef,62a4441c560db9182378d0dd,,,,,,,,,,,,,,,,,,,,,,,,,,,,,,,,,,,,,,,,,,,,,,,,,,,,,,,,,,,,,,,,,,,,,,,,,,,,0,0,0,0,1,,,,,,,,,,,,,,,,,,,,,
,,,,,,,,,,,,5f245764a137ac00089e6c7d,23,Kobieta,2022-06-11_09h29.01.862,task,2021.1.4,Win32,59.80503558,6299f149e92ead563fba08ef,62a4441c560db9182378d0dd,,,,,,,,,,,,,0,,,,,,,,,,Task,33,(1/1) - 1,0,,,,,,,,,,,,,,,,,,,1,,,,,,,,,,,,,,,,,,,,,,,"[""0""]",1,0,0,0,32,1,[1.3980999999940877],,,,,,,,,,,,,,,,,,,,,,,,,,
,,,,,,,,,,,X V Q F H G B L J M P D K C T S W R N Z,5f245764a137ac00089e6c7d,23,Kobieta,2022-06-11_09h29.01.862,task,2021.1.4,Win32,59.80503558,6299f149e92ead563fba08ef,62a4441c560db9182378d0dd,,,,,,,,,,,,,,,,,,,,,,,,,,,,,,,,,,,,,,,,,,,,,,,,,,,,,,,,,,,,,,,,,,,,,,,,,,,,1,0,1,0,1,,,,,,,,,,,,,,,,,,,,,
,,,,,,,,,,,,5f245764a137ac00089e6c7d,23,Kobieta,2022-06-11_09h29.01.862,task,2021.1.4,Win32,59.80503558,6299f149e92ead563fba08ef,62a4441c560db9182378d0dd,,,,,,,,,,,,,3,,,,,,,,,,Task,20,(18/9) + 1,3,,,,,,,,,,,,,,,,,,,1,,,,,,,,,,,,,,,,,,,,,,,"[""3""]",1,0,0,0,19,1,[2.374500000000012],,,,,,,,,,,,,,,,,,,,,,,,,,
,,,,,,,,,,,X V Q F H G B L J M P D K C T S W R N Z,5f245764a137ac00089e6c7d,23,Kobieta,2022-06-11_09h29.01.862,task,2021.1.4,Win32,59.80503558,6299f149e92ead563fba08ef,62a4441c560db9182378d0dd,,,,,,,,,,,,,,,,,,,,,,,,,,,,,,,,,,,,,,,,,,,,,,,,,,,,,,,,,,,,,,,,,,,,,,,,,,,,2,0,2,0,1,,,,,,,,,,,,,,,,,,,,,
,,,,,,,,,,,,5f245764a137ac00089e6c7d,23,Kobieta,2022-06-11_09h29.01.862,task,2021.1.4,Win32,59.80503558,6299f149e92ead563fba08ef,62a4441c560db9182378d0dd,,,,,,,,,,,,,9,,,,,,,,,,Task,24,(2x2) + 5,9,,,,,,,,,,,,,,,,,,,1,,,,,,,,,,,,,,,,,,,,,,,"[""9""]",1,0,0,0,23,1,[1.5145999999940614],,,,,,,,,,,,,,,,,,,,,,,,,,
,,,,,,,,,,,X V Q F H G B L J M P D K C T S W R N Z,5f245764a137ac00089e6c7d,23,Kobieta,2022-06-11_09h29.01.862,task,2021.1.4,Win32,59.80503558,6299f149e92ead563fba08ef,62a4441c560db9182378d0dd,,,,,,,,,,,,,,,,,,,,,,,,,,,,,,,,,,,,,,,,,,,,,,,,,,,,,,,,,,,,,,,,,,,,,,,,,,,,3,0,3,0,1,,,,,,,,,,,,,,,,,,,,,
,,,,,,,,,,,,5f245764a137ac00089e6c7d,23,Kobieta,2022-06-11_09h29.01.862,task,2021.1.4,Win32,59.80503558,6299f149e92ead563fba08ef,62a4441c560db9182378d0dd,,,,,,,,,,,,,8,,,,,,,,,,Task,32,(8/2) + 4,8,,,,,,,,,,,,,,,,,,,1,,,,,,,,,,,,,,,,,,,,,,,"[""8""]",1,0,0,0,31,1,[2.172599999994077],,,,,,,,,,,,,,,,,,,,,,,,,,
,,,,,,,,,,,X V Q F H G B L J M P D K C T S W R N Z,5f245764a137ac00089e6c7d,23,Kobieta,2022-06-11_09h29.01.862,task,2021.1.4,Win32,59.80503558,6299f149e92ead563fba08ef,62a4441c560db9182378d0dd,,,,,,,,,,,,,,,,,,,,,,,,,,,,,,,,,,,,,,,,,,,,,,,,,,,,,,,,,,,,,,,,,,,,,,,,,,,,4,0,4,0,1,,,,,,,,,,,,,,,,,,,,,
,,,,,,,,,,,,5f245764a137ac00089e6c7d,23,Kobieta,2022-06-11_09h29.01.862,task,2021.1.4,Win32,59.80503558,6299f149e92ead563fba08ef,62a4441c560db9182378d0dd,,,,,,,,,,,,,0,,,,,,,,,,Task,17,(2x3) - 6,0,,,,,,,,,,,,,,,,,,,1,,,,,,,,,,,,,,,,,,,,,,,"[""0""]",1,0,0,0,16,1,[4.346699999988118],,,,,,,,,,,,,,,,,,,,,,,,,,
,,,,,,,,,,,X V Q F H G B L J M P D K C T S W R N Z,5f245764a137ac00089e6c7d,23,Kobieta,2022-06-11_09h29.01.862,task,2021.1.4,Win32,59.80503558,6299f149e92ead563fba08ef,62a4441c560db9182378d0dd,,,,,,,,,,,,,,,,,,,,,,,,,,,,,,,,,,,,,,,,,,,,,,,,,,,,,,,,,,,,,,,,,,,,,,,,,,,,5,0,5,0,1,,,,,,,,,,,,,,,,,,,,,
,,,,,,,,,,,,5f245764a137ac00089e6c7d,23,Kobieta,2022-06-11_09h29.01.862,task,2021.1.4,Win32,59.80503558,6299f149e92ead563fba08ef,62a4441c560db9182378d0dd,,,,,,,,,,,,,0,,,,,,,,,,Task,17,(2x3) - 6,0,,,,,,,,,,,,,,,,,,,1,,,,,,,,,,,,,,,,,,,,,,,"[""0""]",1,0,0,0,16,1,[3.400400000006016],,,,,,,,,,,,,,,,,,,,,,,,,,
,,,,,,,,,,,X V Q F H G B L J M P D K C T S W R N Z,5f245764a137ac00089e6c7d,23,Kobieta,2022-06-11_09h29.01.862,task,2021.1.4,Win32,59.80503558,6299f149e92ead563fba08ef,62a4441c560db9182378d0dd,,,,,,,,,,,,,,,,,,,,,,,,,,,,,,,,,,,,,,,,,,,,,,,,,,,,,,,,,,,,,,,,,,,,,,,,,,,,6,0,6,0,1,,,,,,,,,,,,,,,,,,,,,
,,,,,,,,,,,,5f245764a137ac00089e6c7d,23,Kobieta,2022-06-11_09h29.01.862,task,2021.1.4,Win32,59.80503558,6299f149e92ead563fba08ef,62a4441c560db9182378d0dd,,,,,,,,,,,,,5,,,,,,,,,,Task,4,(1x5) - 1,4,,,,,,,,,,,,,,,,,,,0,,,,,,,,,,,,,,,,,,,,,,,"[""5""]",0,0,0,0,3,1,[3.49249999999995],,,,,,,,,,,,,,,,,,,,,,,,,,
,,,,,,,,,,,,5f245764a137ac00089e6c7d,23,Kobieta,2022-06-11_09h29.01.862,task,2021.1.4,Win32,59.80503558,6299f149e92ead563fba08ef,62a4441c560db9182378d0dd,,,,,,,,,,,,,9,,,,,,,,,,Task,16,(3x8) - 15,9,,,,,,,,,,,,,,,,,,,1,,,,,,,,,,,,,,,,,,,,,,,"[""9""]",1,0,1,1,15,1,[4.208099999994033],,,,,,,,,,,,,,,,,,,,,,,,,,
,,,,,,,,,,,X V Q F H G B L J M P D K C T S W R N Z,5f245764a137ac00089e6c7d,23,Kobieta,2022-06-11_09h29.01.862,task,2021.1.4,Win32,59.80503558,6299f149e92ead563fba08ef,62a4441c560db9182378d0dd,,,,,,,,,,,,,,,,,,,,,,,,,,,,,,,,,,,,,,,,,,,,,,,,,,,,,,,,,,,,,,,,,,,,,,,,,,,,7,0,7,0,1,,,,,,,,,,,,,,,,,,,,,
,,,,,,,,,,,,5f245764a137ac00089e6c7d,23,Kobieta,2022-06-11_09h29.01.862,task,2021.1.4,Win32,59.80503558,6299f149e92ead563fba08ef,62a4441c560db9182378d0dd,,,,,,,,,,,,,3,,,,,,,,,,Task,20,(18/9) + 1,3,,,,,,,,,,,,,,,,,,,1,,,,,,,,,,,,,,,,,,,,,,,"[""3""]",1,0,0,0,19,1,[2.0833999999762227],,,,,,,,,,,,,,,,,,,,,,,,,,
,,,,,,,,,,,X V Q F H G B L J M P D K C T S W R N Z,5f245764a137ac00089e6c7d,23,Kobieta,2022-06-11_09h29.01.862,task,2021.1.4,Win32,59.80503558,6299f149e92ead563fba08ef,62a4441c560db9182378d0dd,,,,,,,,,,,,,,,,,,,,,,,,,,,,,,,,,,,,,,,,,,,,,,,,,,,,,,,,,,,,,,,,,,,,,,,,,,,,8,0,8,0,1,,,,,,,,,,,,,,,,,,,,,
,,,,,,,,,,,,5f245764a137ac00089e6c7d,23,Kobieta,2022-06-11_09h29.01.862,task,2021.1.4,Win32,59.80503558,6299f149e92ead563fba08ef,62a4441c560db9182378d0dd,,,,,,,,,,,,,9,,,,,,,,,,Task,24,(2x2) + 5,9,,,,,,,,,,,,,,,,,,,1,,,,,,,,,,,,,,,,,,,,,,,"[""9""]",1,0,0,0,23,1,[1.249599999994075],,,,,,,,,,,,,,,,,,,,,,,,,,
,,,,,,,,,,,X V Q F H G B L J M P D K C T S W R N Z,5f245764a137ac00089e6c7d,23,Kobieta,2022-06-11_09h29.01.862,task,2021.1.4,Win32,59.80503558,6299f149e92ead563fba08ef,62a4441c560db9182378d0dd,,,,,,,,,,,,,,,,,,,,,,,,,,,,,,,,,,,,,,,,,,,,,,,,,,,,,,,,,,,,,,,,,,,,,,,,,,,,9,0,9,0,1,,,,,,,,,,,,,,,,,,,,,
,,,,,,,,,,,,5f245764a137ac00089e6c7d,23,Kobieta,2022-06-11_09h29.01.862,task,2021.1.4,Win32,59.80503558,6299f149e92ead563fba08ef,62a4441c560db9182378d0dd,,,,,,,,,,,,,,,,,,,,,,,,,,,,,,,,,,,,,,,,,,,,,,,,,,,,,,,,,,,,,,,,,,,,,,,,,,,,,,,,,dtvdpxpkc,"[""d"",""t"",""v"",""d"",""p"",""x"",""p"",""k"",""c""]",0,"[1.5089999999999009,1.8660999999940486,2.4392999999820404,3.799299999982054,4.315599999993992,4.735199999988026,5.103099999994015,8.631099999994035,8.85629999998207,11.631699999988086]",0,DTVDPXPKCM,8,0,8,0,1,,,,,,,,,,
,,,,,,,,,,,,5f245764a137ac00089e6c7d,23,Kobieta,2022-06-11_09h29.01.862,task,2021.1.4,Win32,59.80503558,6299f149e92ead563fba08ef,62a4441c560db9182378d0dd,,,,,,,,,,,,,3,,,,,,,,,,Task,3,(2x3) - 3,3,,,,,,,,,,,,,,,,,,,1,,,,,,,,,,,,,,,,,,,,,,,"[""3""]",1,0,0,0,2,1,[2.303800000011961],,,,,,,,,,,,,,,,,,,,,,,,,,
,,,,,,,,,,,X V Q F H G B L J M P D K C T S W R N Z,5f245764a137ac00089e6c7d,23,Kobieta,2022-06-11_09h29.01.862,task,2021.1.4,Win32,59.80503558,6299f149e92ead563fba08ef,62a4441c560db9182378d0dd,,,,,,,,,,,,,,,,,,,,,,,,,,,,,,,,,,,,,,,,,,,,,,,,,,,,,,,,,,,,,,,,,,,,,,,,,,,,0,0,0,0,1,,,,,,,,,,,,,,,,,,,,,
,,,,,,,,,,,,5f245764a137ac00089e6c7d,23,Kobieta,2022-06-11_09h29.01.862,task,2021.1.4,Win32,59.80503558,6299f149e92ead563fba08ef,62a4441c560db9182378d0dd,,,,,,,,,,,,,1,,,,,,,,,,Task,1,(12/6) - 1,1,,,,,,,,,,,,,,,,,,,1,,,,,,,,,,,,,,,,,,,,,,,"[""1""]",1,0,0,0,0,1,[2.274899999976128],,,,,,,,,,,,,,,,,,,,,,,,,,
,,,,,,,,,,,X V Q F H G B L J M P D K C T S W R N Z,5f245764a137ac00089e6c7d,23,Kobieta,2022-06-11_09h29.01.862,task,2021.1.4,Win32,59.80503558,6299f149e92ead563fba08ef,62a4441c560db9182378d0dd,,,,,,,,,,,,,,,,,,,,,,,,,,,,,,,,,,,,,,,,,,,,,,,,,,,,,,,,,,,,,,,,,,,,,,,,,,,,1,0,1,0,1,,,,,,,,,,,,,,,,,,,,,
,,,,,,,,,,,,5f245764a137ac00089e6c7d,23,Kobieta,2022-06-11_09h29.01.862,task,2021.1.4,Win32,59.80503558,6299f149e92ead563fba08ef,62a4441c560db9182378d0dd,,,,,,,,,,,,,2,,,,,,,,,,Task,19,(6/2) - 1,2,,,,,,,,,,,,,,,,,,,1,,,,,,,,,,,,,,,,,,,,,,,"[""2""]",1,0,0,0,18,1,[2.3711999999879936],,,,,,,,,,,,,,,,,,,,,,,,,,
,,,,,,,,,,,X V Q F H G B L J M P D K C T S W R N Z,5f245764a137ac00089e6c7d,23,Kobieta,2022-06-11_09h29.01.862,task,2021.1.4,Win32,59.80503558,6299f149e92ead563fba08ef,62a4441c560db9182378d0dd,,,,,,,,,,,,,,,,,,,,,,,,,,,,,,,,,,,,,,,,,,,,,,,,,,,,,,,,,,,,,,,,,,,,,,,,,,,,2,0,2,0,1,,,,,,,,,,,,,,,,,,,,,
,,,,,,,,,,,,5f245764a137ac00089e6c7d,23,Kobieta,2022-06-11_09h29.01.862,task,2021.1.4,Win32,59.80503558,6299f149e92ead563fba08ef,62a4441c560db9182378d0dd,,,,,,,,,,,,,7,,,,,,,,,,Task,30,(6/3) + 4 ,6,,,,,,,,,,,,,,,,,,,0,,,,,,,,,,,,,,,,,,,,,,,"[""7""]",0,0,0,0,29,1,[2.2298000000120055],,,,,,,,,,,,,,,,,,,,,,,,,,
,,,,,,,,,,,,5f245764a137ac00089e6c7d,23,Kobieta,2022-06-11_09h29.01.862,task,2021.1.4,Win32,59.80503558,6299f149e92ead563fba08ef,62a4441c560db9182378d0dd,,,,,,,,,,,,,7,,,,,,,,,,Task,38,(4x6) - 17,7,,,,,,,,,,,,,,,,,,,1,,,,,,,,,,,,,,,,,,,,,,,"[""7""]",1,0,1,1,37,1,[3.6807000000178505],,,,,,,,,,,,,,,,,,,,,,,,,,
,,,,,,,,,,,X V Q F H G B L J M P D K C T S W R N Z,5f245764a137ac00089e6c7d,23,Kobieta,2022-06-11_09h29.01.862,task,2021.1.4,Win32,59.80503558,6299f149e92ead563fba08ef,62a4441c560db9182378d0dd,,,,,,,,,,,,,,,,,,,,,,,,,,,,,,,,,,,,,,,,,,,,,,,,,,,,,,,,,,,,,,,,,,,,,,,,,,,,3,0,3,0,1,,,,,,,,,,,,,,,,,,,,,
,,,,,,,,,,,,5f245764a137ac00089e6c7d,23,Kobieta,2022-06-11_09h29.01.862,task,2021.1.4,Win32,59.80503558,6299f149e92ead563fba08ef,62a4441c560db9182378d0dd,,,,,,,,,,,,,8,,,,,,,,,,Task,15,(3x7) - 13,8,,,,,,,,,,,,,,,,,,,1,,,,,,,,,,,,,,,,,,,,,,,"[""8""]",1,0,0,0,14,1,[4.240400000006048],,,,,,,,,,,,,,,,,,,,,,,,,,
,,,,,,,,,,,X V Q F H G B L J M P D K C T S W R N Z,5f245764a137ac00089e6c7d,23,Kobieta,2022-06-11_09h29.01.862,task,2021.1.4,Win32,59.80503558,6299f149e92ead563fba08ef,62a4441c560db9182378d0dd,,,,,,,,,,,,,,,,,,,,,,,,,,,,,,,,,,,,,,,,,,,,,,,,,,,,,,,,,,,,,,,,,,,,,,,,,,,,4,0,4,0,1,,,,,,,,,,,,,,,,,,,,,
,,,,,,,,,,,,5f245764a137ac00089e6c7d,23,Kobieta,2022-06-11_09h29.01.862,task,2021.1.4,Win32,59.80503558,6299f149e92ead563fba08ef,62a4441c560db9182378d0dd,,,,,,,,,,,,,0,,,,,,,,,,Task,33,(1/1) - 1,0,,,,,,,,,,,,,,,,,,,1,,,,,,,,,,,,,,,,,,,,,,,"[""0""]",1,0,0,0,32,1,[1.9010999999941305],,,,,,,,,,,,,,,,,,,,,,,,,,
,,,,,,,,,,,X V Q F H G B L J M P D K C T S W R N Z,5f245764a137ac00089e6c7d,23,Kobieta,2022-06-11_09h29.01.862,task,2021.1.4,Win32,59.80503558,6299f149e92ead563fba08ef,62a4441c560db9182378d0dd,,,,,,,,,,,,,,,,,,,,,,,,,,,,,,,,,,,,,,,,,,,,,,,,,,,,,,,,,,,,,,,,,,,,,,,,,,,,5,0,5,0,1,,,,,,,,,,,,,,,,,,,,,
,,,,,,,,,,,,5f245764a137ac00089e6c7d,23,Kobieta,2022-06-11_09h29.01.862,task,2021.1.4,Win32,59.80503558,6299f149e92ead563fba08ef,62a4441c560db9182378d0dd,,,,,,,,,,,,,,,,,,,,,,,Task,6,(12/2) + 1,7,,,,,,,,,,,,,,,,,,,0,,,,,,,,,,,,,,,,,,,,,,,,0,0,0,0,5,1,,,,,,,,,,,,,,,,,,,,,,,,,,,
,,,,,,,,,,,,5f245764a137ac00089e6c7d,23,Kobieta,2022-06-11_09h29.01.862,task,2021.1.4,Win32,59.80503558,6299f149e92ead563fba08ef,62a4441c560db9182378d0dd,,,,,,,,,,,,,0,,,,,,,,,,Task,33,(1/1) - 1,0,,,,,,,,,,,,,,,,,,,1,,,,,,,,,,,,,,,,,,,,,,,"[""0""]",1,0,1,1,32,1,[1.2178999999761118],,,,,,,,,,,,,,,,,,,,,,,,,,
,,,,,,,,,,,X V Q F H G B L J M P D K C T S W R N Z,5f245764a137ac00089e6c7d,23,Kobieta,2022-06-11_09h29.01.862,task,2021.1.4,Win32,59.80503558,6299f149e92ead563fba08ef,62a4441c560db9182378d0dd,,,,,,,,,,,,,,,,,,,,,,,,,,,,,,,,,,,,,,,,,,,,,,,,,,,,,,,,,,,,,,,,,,,,,,,,,,,,6,0,6,0,1,,,,,,,,,,,,,,,,,,,,,
,,,,,,,,,,,,5f245764a137ac00089e6c7d,23,Kobieta,2022-06-11_09h29.01.862,task,2021.1.4,Win32,59.80503558,6299f149e92ead563fba08ef,62a4441c560db9182378d0dd,,,,,,,,,,,,,4,,,,,,,,,,Task,4,(1x5) - 1,4,,,,,,,,,,,,,,,,,,,1,,,,,,,,,,,,,,,,,,,,,,,"[""4""]",1,0,0,0,3,1,[3.0175999999939904],,,,,,,,,,,,,,,,,,,,,,,,,,
,,,,,,,,,,,X V Q F H G B L J M P D K C T S W R N Z,5f245764a137ac00089e6c7d,23,Kobieta,2022-06-11_09h29.01.862,task,2021.1.4,Win32,59.80503558,6299f149e92ead563fba08ef,62a4441c560db9182378d0dd,,,,,,,,,,,,,,,,,,,,,,,,,,,,,,,,,,,,,,,,,,,,,,,,,,,,,,,,,,,,,,,,,,,,,,,,,,,,7,0,7,0,1,,,,,,,,,,,,,,,,,,,,,
,,,,,,,,,,,,5f245764a137ac00089e6c7d,23,Kobieta,2022-06-11_09h29.01.862,task,2021.1.4,Win32,59.80503558,6299f149e92ead563fba08ef,62a4441c560db9182378d0dd,,,,,,,,,,,,,4,,,,,,,,,,Task,14,(2x2) + 3,7,,,,,,,,,,,,,,,,,,,0,,,,,,,,,,,,,,,,,,,,,,,"[""4""]",0,0,0,0,13,1,[1.4805999999940695],,,,,,,,,,,,,,,,,,,,,,,,,,
,,,,,,,,,,,,5f245764a137ac00089e6c7d,23,Kobieta,2022-06-11_09h29.01.862,task,2021.1.4,Win32,59.80503558,6299f149e92ead563fba08ef,62a4441c560db9182378d0dd,,,,,,,,,,,,,3,,,,,,,,,,Task,20,(18/9) + 1,3,,,,,,,,,,,,,,,,,,,1,,,,,,,,,,,,,,,,,,,,,,,"[""3""]",1,0,1,1,19,1,[2.5344000000060305],,,,,,,,,,,,,,,,,,,,,,,,,,
,,,,,,,,,,,X V Q F H G B L J M P D K C T S W R N Z,5f245764a137ac00089e6c7d,23,Kobieta,2022-06-11_09h29.01.862,task,2021.1.4,Win32,59.80503558,6299f149e92ead563fba08ef,62a4441c560db9182378d0dd,,,,,,,,,,,,,,,,,,,,,,,,,,,,,,,,,,,,,,,,,,,,,,,,,,,,,,,,,,,,,,,,,,,,,,,,,,,,8,0,8,0,1,,,,,,,,,,,,,,,,,,,,,
,,,,,,,,,,,,5f245764a137ac00089e6c7d,23,Kobieta,2022-06-11_09h29.01.862,task,2021.1.4,Win32,59.80503558,6299f149e92ead563fba08ef,62a4441c560db9182378d0dd,,,,,,,,,,,,,3,,,,,,,,,,Task,27,(3/3) + 2,3,,,,,,,,,,,,,,,,,,,1,,,,,,,,,,,,,,,,,,,,,,,"[""3""]",1,0,0,0,26,1,[3.637300000011919],,,,,,,,,,,,,,,,,,,,,,,,,,
,,,,,,,,,,,X V Q F H G B L J M P D K C T S W R N Z,5f245764a137ac00089e6c7d,23,Kobieta,2022-06-11_09h29.01.862,task,2021.1.4,Win32,59.80503558,6299f149e92ead563fba08ef,62a4441c560db9182378d0dd,,,,,,,,,,,,,,,,,,,,,,,,,,,,,,,,,,,,,,,,,,,,,,,,,,,,,,,,,,,,,,,,,,,,,,,,,,,,9,0,9,0,1,,,,,,,,,,,,,,,,,,,,,
,,,,,,,,,,,,5f245764a137ac00089e6c7d,23,Kobieta,2022-06-11_09h29.01.862,task,2021.1.4,Win32,59.80503558,6299f149e92ead563fba08ef,62a4441c560db9182378d0dd,,,,,,,,,,,,,,,,,,,,,,,,,,,,,,,,,,,,,,,,,,,,,,,,,,,,,,,,,,,,,,,,,,,,,,,,,,,,,,,,,fzszfzjtvr,"[""f"",""z"",""s"",""z"",""f"",""z"",""j"",""t"",""v"",""r""]",0,"[1.6094999999999118,2.385099999994054,6.508299999982114,6.766099999994026,8.31539999997608,8.653299999982096,8.948799999982043,9.15300000000002,9.432199999988029,12.23309999999401,14.570599999993988]",1,FZSZFZJTVR,9,0,9,0,1,,,,,,,,,,
,,,,,,,,,,,,5f245764a137ac00089e6c7d,23,Kobieta,2022-06-11_09h29.01.862,task,2021.1.4,Win32,59.80503558,6299f149e92ead563fba08ef,62a4441c560db9182378d0dd,,,,,,,,,,,,,6,,,,,,,,,,Task,37,(3/3) + 5,6,,,,,,,,,,,,,,,,,,,1,,,,,,,,,,,,,,,,,,,,,,,"[""6""]",1,0,0,0,36,1,[1.671300000011911],,,,,,,,,,,,,,,,,,,,,,,,,,
,,,,,,,,,,,X V Q F H G B L J M P D K C T S W R N Z,5f245764a137ac00089e6c7d,23,Kobieta,2022-06-11_09h29.01.862,task,2021.1.4,Win32,59.80503558,6299f149e92ead563fba08ef,62a4441c560db9182378d0dd,,,,,,,,,,,,,,,,,,,,,,,,,,,,,,,,,,,,,,,,,,,,,,,,,,,,,,,,,,,,,,,,,,,,,,,,,,,,0,0,0,0,1,,,,,,,,,,,,,,,,,,,,,
,,,,,,,,,,,,5f245764a137ac00089e6c7d,23,Kobieta,2022-06-11_09h29.01.862,task,2021.1.4,Win32,59.80503558,6299f149e92ead563fba08ef,62a4441c560db9182378d0dd,,,,,,,,,,,,,0,,,,,,,,,,Task,25,(10/5) - 2,0,,,,,,,,,,,,,,,,,,,1,,,,,,,,,,,,,,,,,,,,,,,"[""0""]",1,0,0,0,24,1,[3.072099999994066],,,,,,,,,,,,,,,,,,,,,,,,,,
,,,,,,,,,,,X V Q F H G B L J M P D K C T S W R N Z,5f245764a137ac00089e6c7d,23,Kobieta,2022-06-11_09h29.01.862,task,2021.1.4,Win32,59.80503558,6299f149e92ead563fba08ef,62a4441c560db9182378d0dd,,,,,,,,,,,,,,,,,,,,,,,,,,,,,,,,,,,,,,,,,,,,,,,,,,,,,,,,,,,,,,,,,,,,,,,,,,,,1,0,1,0,1,,,,,,,,,,,,,,,,,,,,,
,,,,,,,,,,,,5f245764a137ac00089e6c7d,23,Kobieta,2022-06-11_09h29.01.862,task,2021.1.4,Win32,59.80503558,6299f149e92ead563fba08ef,62a4441c560db9182378d0dd,,,,,,,,,,,,,7,,,,,,,,,,Task,7,(3x7) - 12,9,,,,,,,,,,,,,,,,,,,0,,,,,,,,,,,,,,,,,,,,,,,"[""7""]",0,0,0,0,6,1,[1.5747000000179696],,,,,,,,,,,,,,,,,,,,,,,,,,
,,,,,,,,,,,,5f245764a137ac00089e6c7d,23,Kobieta,2022-06-11_09h29.01.862,task,2021.1.4,Win32,59.80503558,6299f149e92ead563fba08ef,62a4441c560db9182378d0dd,,,,,,,,,,,,,1,,,,,,,,,,Task,18,(16/4) - 3,1,,,,,,,,,,,,,,,,,,,1,,,,,,,,,,,,,,,,,,,,,,,"[""1""]",1,0,1,1,17,1,[2.070799999982114],,,,,,,,,,,,,,,,,,,,,,,,,,
,,,,,,,,,,,X V Q F H G B L J M P D K C T S W R N Z,5f245764a137ac00089e6c7d,23,Kobieta,2022-06-11_09h29.01.862,task,2021.1.4,Win32,59.80503558,6299f149e92ead563fba08ef,62a4441c560db9182378d0dd,,,,,,,,,,,,,,,,,,,,,,,,,,,,,,,,,,,,,,,,,,,,,,,,,,,,,,,,,,,,,,,,,,,,,,,,,,,,2,0,2,0,1,,,,,,,,,,,,,,,,,,,,,
,,,,,,,,,,,,5f245764a137ac00089e6c7d,23,Kobieta,2022-06-11_09h29.01.862,task,2021.1.4,Win32,59.80503558,6299f149e92ead563fba08ef,62a4441c560db9182378d0dd,,,,,,,,,,,,,4,,,,,,,,,,Task,21,(10/2) - 1,4,,,,,,,,,,,,,,,,,,,1,,,,,,,,,,,,,,,,,,,,,,,"[""4""]",1,0,0,0,20,1,[3.106700000017895],,,,,,,,,,,,,,,,,,,,,,,,,,
,,,,,,,,,,,X V Q F H G B L J M P D K C T S W R N Z,5f245764a137ac00089e6c7d,23,Kobieta,2022-06-11_09h29.01.862,task,2021.1.4,Win32,59.80503558,6299f149e92ead563fba08ef,62a4441c560db9182378d0dd,,,,,,,,,,,,,,,,,,,,,,,,,,,,,,,,,,,,,,,,,,,,,,,,,,,,,,,,,,,,,,,,,,,,,,,,,,,,3,0,3,0,1,,,,,,,,,,,,,,,,,,,,,
,,,,,,,,,,,,5f245764a137ac00089e6c7d,23,Kobieta,2022-06-11_09h29.01.862,task,2021.1.4,Win32,59.80503558,6299f149e92ead563fba08ef,62a4441c560db9182378d0dd,,,,,,,,,,,,,9,,,,,,,,,,Task,24,(2x2) + 5,9,,,,,,,,,,,,,,,,,,,1,,,,,,,,,,,,,,,,,,,,,,,"[""9""]",1,0,0,0,23,1,[1.9828000000118209],,,,,,,,,,,,,,,,,,,,,,,,,,
,,,,,,,,,,,X V Q F H G B L J M P D K C T S W R N Z,5f245764a137ac00089e6c7d,23,Kobieta,2022-06-11_09h29.01.862,task,2021.1.4,Win32,59.80503558,6299f149e92ead563fba08ef,62a4441c560db9182378d0dd,,,,,,,,,,,,,,,,,,,,,,,,,,,,,,,,,,,,,,,,,,,,,,,,,,,,,,,,,,,,,,,,,,,,,,,,,,,,4,0,4,0,1,,,,,,,,,,,,,,,,,,,,,
,,,,,,,,,,,,5f245764a137ac00089e6c7d,23,Kobieta,2022-06-11_09h29.01.862,task,2021.1.4,Win32,59.80503558,6299f149e92ead563fba08ef,62a4441c560db9182378d0dd,,,,,,,,,,,,,5,,,,,,,,,,Task,29,(3x8) - 19 ,5,,,,,,,,,,,,,,,,,,,1,,,,,,,,,,,,,,,,,,,,,,,"[""5""]",1,0,0,0,28,1,[4.983599999994112],,,,,,,,,,,,,,,,,,,,,,,,,,
,,,,,,,,,,,X V Q F H G B L J M P D K C T S W R N Z,5f245764a137ac00089e6c7d,23,Kobieta,2022-06-11_09h29.01.862,task,2021.1.4,Win32,59.80503558,6299f149e92ead563fba08ef,62a4441c560db9182378d0dd,,,,,,,,,,,,,,,,,,,,,,,,,,,,,,,,,,,,,,,,,,,,,,,,,,,,,,,,,,,,,,,,,,,,,,,,,,,,5,0,5,0,1,,,,,,,,,,,,,,,,,,,,,
,,,,,,,,,,,,5f245764a137ac00089e6c7d,23,Kobieta,2022-06-11_09h29.01.862,task,2021.1.4,Win32,59.80503558,6299f149e92ead563fba08ef,62a4441c560db9182378d0dd,,,,,,,,,,,,,6,,,,,,,,,,Task,30,(6/3) + 4 ,6,,,,,,,,,,,,,,,,,,,1,,,,,,,,,,,,,,,,,,,,,,,"[""6""]",1,0,0,0,29,1,[2.5692000000178723],,,,,,,,,,,,,,,,,,,,,,,,,,
,,,,,,,,,,,X V Q F H G B L J M P D K C T S W R N Z,5f245764a137ac00089e6c7d,23,Kobieta,2022-06-11_09h29.01.862,task,2021.1.4,Win32,59.80503558,6299f149e92ead563fba08ef,62a4441c560db9182378d0dd,,,,,,,,,,,,,,,,,,,,,,,,,,,,,,,,,,,,,,,,,,,,,,,,,,,,,,,,,,,,,,,,,,,,,,,,,,,,6,0,6,0,1,,,,,,,,,,,,,,,,,,,,,
,,,,,,,,,,,,5f245764a137ac00089e6c7d,23,Kobieta,2022-06-11_09h29.01.862,task,2021.1.4,Win32,59.80503558,6299f149e92ead563fba08ef,62a4441c560db9182378d0dd,,,,,,,,,,,,,9,,,,,,,,,,Task,7,(3x7) - 12,9,,,,,,,,,,,,,,,,,,,1,,,,,,,,,,,,,,,,,,,,,,,"[""9""]",1,0,0,0,6,1,[3.1347999999820786],,,,,,,,,,,,,,,,,,,,,,,,,,
,,,,,,,,,,,X V Q F H G B L J M P D K C T S W R N Z,5f245764a137ac00089e6c7d,23,Kobieta,2022-06-11_09h29.01.862,task,2021.1.4,Win32,59.80503558,6299f149e92ead563fba08ef,62a4441c560db9182378d0dd,,,,,,,,,,,,,,,,,,,,,,,,,,,,,,,,,,,,,,,,,,,,,,,,,,,,,,,,,,,,,,,,,,,,,,,,,,,,7,0,7,0,1,,,,,,,,,,,,,,,,,,,,,
,,,,,,,,,,,,5f245764a137ac00089e6c7d,23,Kobieta,2022-06-11_09h29.01.862,task,2021.1.4,Win32,59.80503558,6299f149e92ead563fba08ef,62a4441c560db9182378d0dd,,,,,,,,,,,,,8,,,,,,,,,,Task,23,(2x3) + 2,8,,,,,,,,,,,,,,,,,,,1,,,,,,,,,,,,,,,,,,,,,,,"[""8""]",1,0,0,0,22,1,[1.3846999999880154],,,,,,,,,,,,,,,,,,,,,,,,,,
,,,,,,,,,,,X V Q F H G B L J M P D K C T S W R N Z,5f245764a137ac00089e6c7d,23,Kobieta,2022-06-11_09h29.01.862,task,2021.1.4,Win32,59.80503558,6299f149e92ead563fba08ef,62a4441c560db9182378d0dd,,,,,,,,,,,,,,,,,,,,,,,,,,,,,,,,,,,,,,,,,,,,,,,,,,,,,,,,,,,,,,,,,,,,,,,,,,,,8,0,8,0,1,,,,,,,,,,,,,,,,,,,,,
,,,,,,,,,,,,5f245764a137ac00089e6c7d,23,Kobieta,2022-06-11_09h29.01.862,task,2021.1.4,Win32,59.80503558,6299f149e92ead563fba08ef,62a4441c560db9182378d0dd,,,,,,,,,,,,,5,,,,,,,,,,Task,36,(8/4) + 3,5,,,,,,,,,,,,,,,,,,,1,,,,,,,,,,,,,,,,,,,,,,,"[""5""]",1,0,0,0,35,1,[3.097500000000082],,,,,,,,,,,,,,,,,,,,,,,,,,
,,,,,,,,,,,X V Q F H G B L J M P D K C T S W R N Z,5f245764a137ac00089e6c7d,23,Kobieta,2022-06-11_09h29.01.862,task,2021.1.4,Win32,59.80503558,6299f149e92ead563fba08ef,62a4441c560db9182378d0dd,,,,,,,,,,,,,,,,,,,,,,,,,,,,,,,,,,,,,,,,,,,,,,,,,,,,,,,,,,,,,,,,,,,,,,,,,,,,9,0,9,0,1,,,,,,,,,,,,,,,,,,,,,
,,,,,,,,,,,,5f245764a137ac00089e6c7d,23,Kobieta,2022-06-11_09h29.01.862,task,2021.1.4,Win32,59.80503558,6299f149e92ead563fba08ef,62a4441c560db9182378d0dd,,,,,,,,,,,,,0,,,,,,,,,,Task,25,(10/5) - 2,0,,,,,,,,,,,,,,,,,,,1,,,,,,,,,,,,,,,,,,,,,,,"[""0""]",1,0,0,0,24,1,[3.580400000005966],,,,,,,,,,,,,,,,,,,,,,,,,,
,,,,,,,,,,,X V Q F H G B L J M P D K C T S W R N Z,5f245764a137ac00089e6c7d,23,Kobieta,2022-06-11_09h29.01.862,task,2021.1.4,Win32,59.80503558,6299f149e92ead563fba08ef,62a4441c560db9182378d0dd,,,,,,,,,,,,,,,,,,,,,,,,,,,,,,,,,,,,,,,,,,,,,,,,,,,,,,,,,,,,,,,,,,,,,,,,,,,,10,0,10,0,1,,,,,,,,,,,,,,,,,,,,,
