key_resp_15.keys,key_resp_15.rt,key_resp_13.keys,key_resp_13.corr,ranodm_loop.thisRepN,ranodm_loop.thisTrialN,ranodm_loop.thisN,ranodm_loop.thisIndex,ranodm_loop.ran,participant,Wiek*,Płeć,date,expName,psychopyVersion,OS,frameRate,study_id,session,key_resp_13.rt,key_resp_16.keys,key_resp_16.rt,key_resp_4.keys,key_resp_4.rt,next_letter.thisRepN,next_letter.thisTrialN,next_letter.thisN,next_letter.thisIndex,next_letter.ran,letter,simple_recall,key_resp_5.keys,key_resp_5.rt,simple_recall_corr,simple_recall_corrkeys,next_level.thisRepN,next_level.thisTrialN,next_level.thisN,next_level.thisIndex,next_level.ran,key_resp_2.keys,key_resp_2.rt,digit_answer,key_resp.keys,key_resp.corr,key_resp.rt,RT_list,next_equation.thisRepN,next_equation.thisTrialN,next_equation.thisN,next_equation.thisIndex,next_equation.ran,Task,Trial,Problem,Operation_answer,processing_score,sumRT,meanRT,sumdiff,sd,RT,key_resp_3.keys,key_resp_3.rt,repeat_practice.thisRepN,repeat_practice.thisTrialN,repeat_practice.thisN,repeat_practice.thisIndex,repeat_practice.ran,key_resp_6.keys,key_resp_6.rt,key_resp_11.keys,key_resp_11.corr,key_resp_11.rt,operation_correct,repeat_if_wrong_prac.thisRepN,repeat_if_wrong_prac.thisTrialN,repeat_if_wrong_prac.thisN,repeat_if_wrong_prac.thisIndex,repeat_if_wrong_prac.ran,span_size_prac.thisRepN,span_size_prac.thisTrialN,span_size_prac.thisN,span_size_prac.thisIndex,span_size_prac.ran,complex_recall_practice,key_resp_9.keys,key_resp_9.corr,key_resp_9.rt,complex_prac_corr,span_recall_prac.thisRepN,span_recall_prac.thisTrialN,span_recall_prac.thisN,span_recall_prac.thisIndex,span_recall_prac.ran,key_resp_10.keys,key_resp_10.rt,key_resp_7.keys,key_resp_7.corr,key_resp_7.rt,repeat_if_wrong.thisRepN,repeat_if_wrong.thisTrialN,repeat_if_wrong.thisN,repeat_if_wrong.thisIndex,repeat_if_wrong.ran,span_size.thisRepN,span_size.thisTrialN,span_size.thisN,span_size.thisIndex,span_size.ran,complex_recall,key_resp_8.keys,key_resp_8.corr,key_resp_8.rt,complex_recall_corr,complex_recall_corrkeys,span_recall.thisRepN,span_recall.thisTrialN,span_recall.thisN,span_recall.thisIndex,span_recall.ran,key_resp_12.keys,key_resp_12.rt
space,70.7094,,0,0,0,0,0,1,5f248b7b1bde03086270bd37,25,Kobieta,2022-05-28_09h19.05.248,task,2021.1.4,Win32,60.68329389,628b806c463b948bc644b84f,6291ccda5988a574f73ad6ff,,,,,,,,,,,,,,,,,,,,,,,,,,,,,,,,,,,,,,,,,,,,,,,,,,,,,,,,,,,,,,,,,,,,,,,,,,,,,,,,,,,,,,,,,,,,,,,,,,,,,,,,
,,"[""comma"",""comma""]",0,1,0,1,0,1,5f248b7b1bde03086270bd37,25,Kobieta,2022-05-28_09h19.05.248,task,2021.1.4,Win32,60.68329389,628b806c463b948bc644b84f,6291ccda5988a574f73ad6ff,"[0.19220000000298398,1.4771000000089458]",,,,,,,,,,,,,,,,,,,,,,,,,,,,,,,,,,,,,,,,,,,,,,,,,,,,,,,,,,,,,,,,,,,,,,,,,,,,,,,,,,,,,,,,,,,,,,,,,,,,,,,
,,"[""period""]",0,2,0,2,0,1,5f248b7b1bde03086270bd37,25,Kobieta,2022-05-28_09h19.05.248,task,2021.1.4,Win32,60.68329389,628b806c463b948bc644b84f,6291ccda5988a574f73ad6ff,[0.550799999997011],,,,,,,,,,,,,,,,,,,,,,,,,,,,,,,,,,,,,,,,,,,,,,,,,,,,,,,,,,,,,,,,,,,,,,,,,,,,,,,,,,,,,,,,,,,,,,,,,,,,,,,
,,"[""period""]",0,3,0,3,0,1,5f248b7b1bde03086270bd37,25,Kobieta,2022-05-28_09h19.05.248,task,2021.1.4,Win32,60.68329389,628b806c463b948bc644b84f,6291ccda5988a574f73ad6ff,[0.39029999999701204],,,,,,,,,,,,,,,,,,,,,,,,,,,,,,,,,,,,,,,,,,,,,,,,,,,,,,,,,,,,,,,,,,,,,,,,,,,,,,,,,,,,,,,,,,,,,,,,,,,,,,,
,,"[""period""]",0,4,0,4,0,1,5f248b7b1bde03086270bd37,25,Kobieta,2022-05-28_09h19.05.248,task,2021.1.4,Win32,60.68329389,628b806c463b948bc644b84f,6291ccda5988a574f73ad6ff,[0.3627999999970086],,,,,,,,,,,,,,,,,,,,,,,,,,,,,,,,,,,,,,,,,,,,,,,,,,,,,,,,,,,,,,,,,,,,,,,,,,,,,,,,,,,,,,,,,,,,,,,,,,,,,,,
,,"[""period""]",0,5,0,5,0,1,5f248b7b1bde03086270bd37,25,Kobieta,2022-05-28_09h19.05.248,task,2021.1.4,Win32,60.68329389,628b806c463b948bc644b84f,6291ccda5988a574f73ad6ff,[0.36789999999105305],,,,,,,,,,,,,,,,,,,,,,,,,,,,,,,,,,,,,,,,,,,,,,,,,,,,,,,,,,,,,,,,,,,,,,,,,,,,,,,,,,,,,,,,,,,,,,,,,,,,,,,
,,"[""comma""]",0,6,0,6,0,1,5f248b7b1bde03086270bd37,25,Kobieta,2022-05-28_09h19.05.248,task,2021.1.4,Win32,60.68329389,628b806c463b948bc644b84f,6291ccda5988a574f73ad6ff,[0.3421999999880825],,,,,,,,,,,,,,,,,,,,,,,,,,,,,,,,,,,,,,,,,,,,,,,,,,,,,,,,,,,,,,,,,,,,,,,,,,,,,,,,,,,,,,,,,,,,,,,,,,,,,,,
,,"[""comma""]",0,7,0,7,0,1,5f248b7b1bde03086270bd37,25,Kobieta,2022-05-28_09h19.05.248,task,2021.1.4,Win32,60.68329389,628b806c463b948bc644b84f,6291ccda5988a574f73ad6ff,[0.2861000000089433],,,,,,,,,,,,,,,,,,,,,,,,,,,,,,,,,,,,,,,,,,,,,,,,,,,,,,,,,,,,,,,,,,,,,,,,,,,,,,,,,,,,,,,,,,,,,,,,,,,,,,,
,,"[""comma""]",0,8,0,8,0,1,5f248b7b1bde03086270bd37,25,Kobieta,2022-05-28_09h19.05.248,task,2021.1.4,Win32,60.68329389,628b806c463b948bc644b84f,6291ccda5988a574f73ad6ff,[0.36559999999403203],,,,,,,,,,,,,,,,,,,,,,,,,,,,,,,,,,,,,,,,,,,,,,,,,,,,,,,,,,,,,,,,,,,,,,,,,,,,,,,,,,,,,,,,,,,,,,,,,,,,,,,
,,"[""period""]",0,9,0,9,0,1,5f248b7b1bde03086270bd37,25,Kobieta,2022-05-28_09h19.05.248,task,2021.1.4,Win32,60.68329389,628b806c463b948bc644b84f,6291ccda5988a574f73ad6ff,[0.1980000000000075],,,,,,,,,,,,,,,,,,,,,,,,,,,,,,,,,,,,,,,,,,,,,,,,,,,,,,,,,,,,,,,,,,,,,,,,,,,,,,,,,,,,,,,,,,,,,,,,,,,,,,,
,,"[""period""]",0,10,0,10,0,1,5f248b7b1bde03086270bd37,25,Kobieta,2022-05-28_09h19.05.248,task,2021.1.4,Win32,60.68329389,628b806c463b948bc644b84f,6291ccda5988a574f73ad6ff,[0.30190000000595774],,,,,,,,,,,,,,,,,,,,,,,,,,,,,,,,,,,,,,,,,,,,,,,,,,,,,,,,,,,,,,,,,,,,,,,,,,,,,,,,,,,,,,,,,,,,,,,,,,,,,,,
,,"[""comma""]",0,11,0,11,0,1,5f248b7b1bde03086270bd37,25,Kobieta,2022-05-28_09h19.05.248,task,2021.1.4,Win32,60.68329389,628b806c463b948bc644b84f,6291ccda5988a574f73ad6ff,[0.2497999999970233],,,,,,,,,,,,,,,,,,,,,,,,,,,,,,,,,,,,,,,,,,,,,,,,,,,,,,,,,,,,,,,,,,,,,,,,,,,,,,,,,,,,,,,,,,,,,,,,,,,,,,,
,,"[""comma""]",0,12,0,12,0,1,5f248b7b1bde03086270bd37,25,Kobieta,2022-05-28_09h19.05.248,task,2021.1.4,Win32,60.68329389,628b806c463b948bc644b84f,6291ccda5988a574f73ad6ff,[0.3283000000119216],,,,,,,,,,,,,,,,,,,,,,,,,,,,,,,,,,,,,,,,,,,,,,,,,,,,,,,,,,,,,,,,,,,,,,,,,,,,,,,,,,,,,,,,,,,,,,,,,,,,,,,
,,"[""comma""]",0,13,0,13,0,1,5f248b7b1bde03086270bd37,25,Kobieta,2022-05-28_09h19.05.248,task,2021.1.4,Win32,60.68329389,628b806c463b948bc644b84f,6291ccda5988a574f73ad6ff,[0.3139000000059582],,,,,,,,,,,,,,,,,,,,,,,,,,,,,,,,,,,,,,,,,,,,,,,,,,,,,,,,,,,,,,,,,,,,,,,,,,,,,,,,,,,,,,,,,,,,,,,,,,,,,,,
,,"[""comma"",""period""]",0,14,0,14,0,1,5f248b7b1bde03086270bd37,25,Kobieta,2022-05-28_09h19.05.248,task,2021.1.4,Win32,60.68329389,628b806c463b948bc644b84f,6291ccda5988a574f73ad6ff,"[0.19979999999702613,1.8971999999880893]",,,,,,,,,,,,,,,,,,,,,,,,,,,,,,,,,,,,,,,,,,,,,,,,,,,,,,,,,,,,,,,,,,,,,,,,,,,,,,,,,,,,,,,,,,,,,,,,,,,,,,,
,,,0,15,0,15,0,1,5f248b7b1bde03086270bd37,25,Kobieta,2022-05-28_09h19.05.248,task,2021.1.4,Win32,60.68329389,628b806c463b948bc644b84f,6291ccda5988a574f73ad6ff,,,,,,,,,,,,,,,,,,,,,,,,,,,,,,,,,,,,,,,,,,,,,,,,,,,,,,,,,,,,,,,,,,,,,,,,,,,,,,,,,,,,,,,,,,,,,,,,,,,,,,,,
,,"[""period""]",0,16,0,16,0,1,5f248b7b1bde03086270bd37,25,Kobieta,2022-05-28_09h19.05.248,task,2021.1.4,Win32,60.68329389,628b806c463b948bc644b84f,6291ccda5988a574f73ad6ff,[0.2613999999910561],,,,,,,,,,,,,,,,,,,,,,,,,,,,,,,,,,,,,,,,,,,,,,,,,,,,,,,,,,,,,,,,,,,,,,,,,,,,,,,,,,,,,,,,,,,,,,,,,,,,,,,
,,"[""comma""]",0,17,0,17,0,1,5f248b7b1bde03086270bd37,25,Kobieta,2022-05-28_09h19.05.248,task,2021.1.4,Win32,60.68329389,628b806c463b948bc644b84f,6291ccda5988a574f73ad6ff,[0.25610000000892796],,,,,,,,,,,,,,,,,,,,,,,,,,,,,,,,,,,,,,,,,,,,,,,,,,,,,,,,,,,,,,,,,,,,,,,,,,,,,,,,,,,,,,,,,,,,,,,,,,,,,,,
,,"[""period""]",0,18,0,18,0,1,5f248b7b1bde03086270bd37,25,Kobieta,2022-05-28_09h19.05.248,task,2021.1.4,Win32,60.68329389,628b806c463b948bc644b84f,6291ccda5988a574f73ad6ff,[0.2520999999940443],,,,,,,,,,,,,,,,,,,,,,,,,,,,,,,,,,,,,,,,,,,,,,,,,,,,,,,,,,,,,,,,,,,,,,,,,,,,,,,,,,,,,,,,,,,,,,,,,,,,,,,
,,"[""comma"",""comma""]",0,19,0,19,0,1,5f248b7b1bde03086270bd37,25,Kobieta,2022-05-28_09h19.05.248,task,2021.1.4,Win32,60.68329389,628b806c463b948bc644b84f,6291ccda5988a574f73ad6ff,"[0.08149999999997704,1.9624000000059425]",,,,,,,,,,,,,,,,,,,,,,,,,,,,,,,,,,,,,,,,,,,,,,,,,,,,,,,,,,,,,,,,,,,,,,,,,,,,,,,,,,,,,,,,,,,,,,,,,,,,,,,
,,,0,20,0,20,0,1,5f248b7b1bde03086270bd37,25,Kobieta,2022-05-28_09h19.05.248,task,2021.1.4,Win32,60.68329389,628b806c463b948bc644b84f,6291ccda5988a574f73ad6ff,,,,,,,,,,,,,,,,,,,,,,,,,,,,,,,,,,,,,,,,,,,,,,,,,,,,,,,,,,,,,,,,,,,,,,,,,,,,,,,,,,,,,,,,,,,,,,,,,,,,,,,,
,,"[""comma""]",0,21,0,21,0,1,5f248b7b1bde03086270bd37,25,Kobieta,2022-05-28_09h19.05.248,task,2021.1.4,Win32,60.68329389,628b806c463b948bc644b84f,6291ccda5988a574f73ad6ff,[0.05570000000298592],,,,,,,,,,,,,,,,,,,,,,,,,,,,,,,,,,,,,,,,,,,,,,,,,,,,,,,,,,,,,,,,,,,,,,,,,,,,,,,,,,,,,,,,,,,,,,,,,,,,,,,
,,"[""period""]",0,22,0,22,0,1,5f248b7b1bde03086270bd37,25,Kobieta,2022-05-28_09h19.05.248,task,2021.1.4,Win32,60.68329389,628b806c463b948bc644b84f,6291ccda5988a574f73ad6ff,[0.0069000000059702415],,,,,,,,,,,,,,,,,,,,,,,,,,,,,,,,,,,,,,,,,,,,,,,,,,,,,,,,,,,,,,,,,,,,,,,,,,,,,,,,,,,,,,,,,,,,,,,,,,,,,,,
,,"[""period""]",0,23,0,23,0,1,5f248b7b1bde03086270bd37,25,Kobieta,2022-05-28_09h19.05.248,task,2021.1.4,Win32,60.68329389,628b806c463b948bc644b84f,6291ccda5988a574f73ad6ff,[0.3129999999999882],,,,,,,,,,,,,,,,,,,,,,,,,,,,,,,,,,,,,,,,,,,,,,,,,,,,,,,,,,,,,,,,,,,,,,,,,,,,,,,,,,,,,,,,,,,,,,,,,,,,,,,
,,"[""period""]",0,24,0,24,0,1,5f248b7b1bde03086270bd37,25,Kobieta,2022-05-28_09h19.05.248,task,2021.1.4,Win32,60.68329389,628b806c463b948bc644b84f,6291ccda5988a574f73ad6ff,[0.302200000002955],,,,,,,,,,,,,,,,,,,,,,,,,,,,,,,,,,,,,,,,,,,,,,,,,,,,,,,,,,,,,,,,,,,,,,,,,,,,,,,,,,,,,,,,,,,,,,,,,,,,,,,
,,"[""period""]",0,25,0,25,0,1,5f248b7b1bde03086270bd37,25,Kobieta,2022-05-28_09h19.05.248,task,2021.1.4,Win32,60.68329389,628b806c463b948bc644b84f,6291ccda5988a574f73ad6ff,[0.3002999999970086],,,,,,,,,,,,,,,,,,,,,,,,,,,,,,,,,,,,,,,,,,,,,,,,,,,,,,,,,,,,,,,,,,,,,,,,,,,,,,,,,,,,,,,,,,,,,,,,,,,,,,,
,,"[""period""]",0,26,0,26,0,1,5f248b7b1bde03086270bd37,25,Kobieta,2022-05-28_09h19.05.248,task,2021.1.4,Win32,60.68329389,628b806c463b948bc644b84f,6291ccda5988a574f73ad6ff,[0.30679999999702545],,,,,,,,,,,,,,,,,,,,,,,,,,,,,,,,,,,,,,,,,,,,,,,,,,,,,,,,,,,,,,,,,,,,,,,,,,,,,,,,,,,,,,,,,,,,,,,,,,,,,,,
,,"[""period""]",0,27,0,27,0,1,5f248b7b1bde03086270bd37,25,Kobieta,2022-05-28_09h19.05.248,task,2021.1.4,Win32,60.68329389,628b806c463b948bc644b84f,6291ccda5988a574f73ad6ff,[0.03139999999103793],,,,,,,,,,,,,,,,,,,,,,,,,,,,,,,,,,,,,,,,,,,,,,,,,,,,,,,,,,,,,,,,,,,,,,,,,,,,,,,,,,,,,,,,,,,,,,,,,,,,,,,
,,"[""period""]",0,28,0,28,0,1,5f248b7b1bde03086270bd37,25,Kobieta,2022-05-28_09h19.05.248,task,2021.1.4,Win32,60.68329389,628b806c463b948bc644b84f,6291ccda5988a574f73ad6ff,[0.11240000000594819],,,,,,,,,,,,,,,,,,,,,,,,,,,,,,,,,,,,,,,,,,,,,,,,,,,,,,,,,,,,,,,,,,,,,,,,,,,,,,,,,,,,,,,,,,,,,,,,,,,,,,,
,,"[""period""]",0,29,0,29,0,1,5f248b7b1bde03086270bd37,25,Kobieta,2022-05-28_09h19.05.248,task,2021.1.4,Win32,60.68329389,628b806c463b948bc644b84f,6291ccda5988a574f73ad6ff,[0.2050000000000125],,,,,,,,,,,,,,,,,,,,,,,,,,,,,,,,,,,,,,,,,,,,,,,,,,,,,,,,,,,,,,,,,,,,,,,,,,,,,,,,,,,,,,,,,,,,,,,,,,,,,,,
,,"[""period""]",0,30,0,30,0,1,5f248b7b1bde03086270bd37,25,Kobieta,2022-05-28_09h19.05.248,task,2021.1.4,Win32,60.68329389,628b806c463b948bc644b84f,6291ccda5988a574f73ad6ff,[0.31399999999999295],,,,,,,,,,,,,,,,,,,,,,,,,,,,,,,,,,,,,,,,,,,,,,,,,,,,,,,,,,,,,,,,,,,,,,,,,,,,,,,,,,,,,,,,,,,,,,,,,,,,,,,
,,"[""comma""]",0,31,0,31,0,1,5f248b7b1bde03086270bd37,25,Kobieta,2022-05-28_09h19.05.248,task,2021.1.4,Win32,60.68329389,628b806c463b948bc644b84f,6291ccda5988a574f73ad6ff,[0.23840000000595296],,,,,,,,,,,,,,,,,,,,,,,,,,,,,,,,,,,,,,,,,,,,,,,,,,,,,,,,,,,,,,,,,,,,,,,,,,,,,,,,,,,,,,,,,,,,,,,,,,,,,,,
,,"[""comma"",""comma""]",0,32,0,32,0,1,5f248b7b1bde03086270bd37,25,Kobieta,2022-05-28_09h19.05.248,task,2021.1.4,Win32,60.68329389,628b806c463b948bc644b84f,6291ccda5988a574f73ad6ff,"[0.15209999999405,1.9604999999999961]",,,,,,,,,,,,,,,,,,,,,,,,,,,,,,,,,,,,,,,,,,,,,,,,,,,,,,,,,,,,,,,,,,,,,,,,,,,,,,,,,,,,,,,,,,,,,,,,,,,,,,,
,,,0,33,0,33,0,1,5f248b7b1bde03086270bd37,25,Kobieta,2022-05-28_09h19.05.248,task,2021.1.4,Win32,60.68329389,628b806c463b948bc644b84f,6291ccda5988a574f73ad6ff,,,,,,,,,,,,,,,,,,,,,,,,,,,,,,,,,,,,,,,,,,,,,,,,,,,,,,,,,,,,,,,,,,,,,,,,,,,,,,,,,,,,,,,,,,,,,,,,,,,,,,,,
,,"[""comma""]",0,34,0,34,0,1,5f248b7b1bde03086270bd37,25,Kobieta,2022-05-28_09h19.05.248,task,2021.1.4,Win32,60.68329389,628b806c463b948bc644b84f,6291ccda5988a574f73ad6ff,[0.20070000000296773],,,,,,,,,,,,,,,,,,,,,,,,,,,,,,,,,,,,,,,,,,,,,,,,,,,,,,,,,,,,,,,,,,,,,,,,,,,,,,,,,,,,,,,,,,,,,,,,,,,,,,,
,,"[""period""]",0,35,0,35,0,1,5f248b7b1bde03086270bd37,25,Kobieta,2022-05-28_09h19.05.248,task,2021.1.4,Win32,60.68329389,628b806c463b948bc644b84f,6291ccda5988a574f73ad6ff,[0.26159999999404704],,,,,,,,,,,,,,,,,,,,,,,,,,,,,,,,,,,,,,,,,,,,,,,,,,,,,,,,,,,,,,,,,,,,,,,,,,,,,,,,,,,,,,,,,,,,,,,,,,,,,,,
,,"[""period""]",0,36,0,36,0,1,5f248b7b1bde03086270bd37,25,Kobieta,2022-05-28_09h19.05.248,task,2021.1.4,Win32,60.68329389,628b806c463b948bc644b84f,6291ccda5988a574f73ad6ff,[0.24870000000296955],,,,,,,,,,,,,,,,,,,,,,,,,,,,,,,,,,,,,,,,,,,,,,,,,,,,,,,,,,,,,,,,,,,,,,,,,,,,,,,,,,,,,,,,,,,,,,,,,,,,,,,
,,"[""period""]",0,37,0,37,0,1,5f248b7b1bde03086270bd37,25,Kobieta,2022-05-28_09h19.05.248,task,2021.1.4,Win32,60.68329389,628b806c463b948bc644b84f,6291ccda5988a574f73ad6ff,[0.32079999999703546],,,,,,,,,,,,,,,,,,,,,,,,,,,,,,,,,,,,,,,,,,,,,,,,,,,,,,,,,,,,,,,,,,,,,,,,,,,,,,,,,,,,,,,,,,,,,,,,,,,,,,,
,,"[""period""]",0,38,0,38,0,1,5f248b7b1bde03086270bd37,25,Kobieta,2022-05-28_09h19.05.248,task,2021.1.4,Win32,60.68329389,628b806c463b948bc644b84f,6291ccda5988a574f73ad6ff,[0.08149999999997704],,,,,,,,,,,,,,,,,,,,,,,,,,,,,,,,,,,,,,,,,,,,,,,,,,,,,,,,,,,,,,,,,,,,,,,,,,,,,,,,,,,,,,,,,,,,,,,,,,,,,,,
,,"[""period""]",0,39,0,39,0,1,5f248b7b1bde03086270bd37,25,Kobieta,2022-05-28_09h19.05.248,task,2021.1.4,Win32,60.68329389,628b806c463b948bc644b84f,6291ccda5988a574f73ad6ff,[0.11360000000894388],,,,,,,,,,,,,,,,,,,,,,,,,,,,,,,,,,,,,,,,,,,,,,,,,,,,,,,,,,,,,,,,,,,,,,,,,,,,,,,,,,,,,,,,,,,,,,,,,,,,,,,
,,"[""comma""]",0,40,0,40,0,1,5f248b7b1bde03086270bd37,25,Kobieta,2022-05-28_09h19.05.248,task,2021.1.4,Win32,60.68329389,628b806c463b948bc644b84f,6291ccda5988a574f73ad6ff,[0.030000000000001137],,,,,,,,,,,,,,,,,,,,,,,,,,,,,,,,,,,,,,,,,,,,,,,,,,,,,,,,,,,,,,,,,,,,,,,,,,,,,,,,,,,,,,,,,,,,,,,,,,,,,,,
,,"[""period"",""comma""]",0,41,0,41,0,1,5f248b7b1bde03086270bd37,25,Kobieta,2022-05-28_09h19.05.248,task,2021.1.4,Win32,60.68329389,628b806c463b948bc644b84f,6291ccda5988a574f73ad6ff,"[-0.022500000000007958,1.8944999999999936]",,,,,,,,,,,,,,,,,,,,,,,,,,,,,,,,,,,,,,,,,,,,,,,,,,,,,,,,,,,,,,,,,,,,,,,,,,,,,,,,,,,,,,,,,,,,,,,,,,,,,,,
,,,0,42,0,42,0,1,5f248b7b1bde03086270bd37,25,Kobieta,2022-05-28_09h19.05.248,task,2021.1.4,Win32,60.68329389,628b806c463b948bc644b84f,6291ccda5988a574f73ad6ff,,,,,,,,,,,,,,,,,,,,,,,,,,,,,,,,,,,,,,,,,,,,,,,,,,,,,,,,,,,,,,,,,,,,,,,,,,,,,,,,,,,,,,,,,,,,,,,,,,,,,,,,
,,"[""period""]",0,43,0,43,0,1,5f248b7b1bde03086270bd37,25,Kobieta,2022-05-28_09h19.05.248,task,2021.1.4,Win32,60.68329389,628b806c463b948bc644b84f,6291ccda5988a574f73ad6ff,[0.1790999999940368],,,,,,,,,,,,,,,,,,,,,,,,,,,,,,,,,,,,,,,,,,,,,,,,,,,,,,,,,,,,,,,,,,,,,,,,,,,,,,,,,,,,,,,,,,,,,,,,,,,,,,,
,,"[""period""]",0,44,0,44,0,1,5f248b7b1bde03086270bd37,25,Kobieta,2022-05-28_09h19.05.248,task,2021.1.4,Win32,60.68329389,628b806c463b948bc644b84f,6291ccda5988a574f73ad6ff,[0.30170000000299524],,,,,,,,,,,,,,,,,,,,,,,,,,,,,,,,,,,,,,,,,,,,,,,,,,,,,,,,,,,,,,,,,,,,,,,,,,,,,,,,,,,,,,,,,,,,,,,,,,,,,,,
,,"[""period""]",0,45,0,45,0,1,5f248b7b1bde03086270bd37,25,Kobieta,2022-05-28_09h19.05.248,task,2021.1.4,Win32,60.68329389,628b806c463b948bc644b84f,6291ccda5988a574f73ad6ff,[0.1264000000059582],,,,,,,,,,,,,,,,,,,,,,,,,,,,,,,,,,,,,,,,,,,,,,,,,,,,,,,,,,,,,,,,,,,,,,,,,,,,,,,,,,,,,,,,,,,,,,,,,,,,,,,
,,"[""comma""]",0,46,0,46,0,1,5f248b7b1bde03086270bd37,25,Kobieta,2022-05-28_09h19.05.248,task,2021.1.4,Win32,60.68329389,628b806c463b948bc644b84f,6291ccda5988a574f73ad6ff,[0.07939999999103975],,,,,,,,,,,,,,,,,,,,,,,,,,,,,,,,,,,,,,,,,,,,,,,,,,,,,,,,,,,,,,,,,,,,,,,,,,,,,,,,,,,,,,,,,,,,,,,,,,,,,,,
,,"[""comma""]",0,47,0,47,0,1,5f248b7b1bde03086270bd37,25,Kobieta,2022-05-28_09h19.05.248,task,2021.1.4,Win32,60.68329389,628b806c463b948bc644b84f,6291ccda5988a574f73ad6ff,[0.13090000000593704],,,,,,,,,,,,,,,,,,,,,,,,,,,,,,,,,,,,,,,,,,,,,,,,,,,,,,,,,,,,,,,,,,,,,,,,,,,,,,,,,,,,,,,,,,,,,,,,,,,,,,,
,,"[""period""]",0,48,0,48,0,1,5f248b7b1bde03086270bd37,25,Kobieta,2022-05-28_09h19.05.248,task,2021.1.4,Win32,60.68329389,628b806c463b948bc644b84f,6291ccda5988a574f73ad6ff,[0.0069999999999765805],,,,,,,,,,,,,,,,,,,,,,,,,,,,,,,,,,,,,,,,,,,,,,,,,,,,,,,,,,,,,,,,,,,,,,,,,,,,,,,,,,,,,,,,,,,,,,,,,,,,,,,
,,"[""period""]",0,49,0,49,0,1,5f248b7b1bde03086270bd37,25,Kobieta,2022-05-28_09h19.05.248,task,2021.1.4,Win32,60.68329389,628b806c463b948bc644b84f,6291ccda5988a574f73ad6ff,[0.22520000000298523],,,,,,,,,,,,,,,,,,,,,,,,,,,,,,,,,,,,,,,,,,,,,,,,,,,,,,,,,,,,,,,,,,,,,,,,,,,,,,,,,,,,,,,,,,,,,,,,,,,,,,,
,,"[""period""]",0,50,0,50,0,1,5f248b7b1bde03086270bd37,25,Kobieta,2022-05-28_09h19.05.248,task,2021.1.4,Win32,60.68329389,628b806c463b948bc644b84f,6291ccda5988a574f73ad6ff,[0.29420000000297364],,,,,,,,,,,,,,,,,,,,,,,,,,,,,,,,,,,,,,,,,,,,,,,,,,,,,,,,,,,,,,,,,,,,,,,,,,,,,,,,,,,,,,,,,,,,,,,,,,,,,,,
,,"[""period""]",0,51,0,51,0,1,5f248b7b1bde03086270bd37,25,Kobieta,2022-05-28_09h19.05.248,task,2021.1.4,Win32,60.68329389,628b806c463b948bc644b84f,6291ccda5988a574f73ad6ff,[0.2548999999910677],,,,,,,,,,,,,,,,,,,,,,,,,,,,,,,,,,,,,,,,,,,,,,,,,,,,,,,,,,,,,,,,,,,,,,,,,,,,,,,,,,,,,,,,,,,,,,,,,,,,,,,
,,"[""comma""]",0,52,0,52,0,1,5f248b7b1bde03086270bd37,25,Kobieta,2022-05-28_09h19.05.248,task,2021.1.4,Win32,60.68329389,628b806c463b948bc644b84f,6291ccda5988a574f73ad6ff,[0.2855000000000132],,,,,,,,,,,,,,,,,,,,,,,,,,,,,,,,,,,,,,,,,,,,,,,,,,,,,,,,,,,,,,,,,,,,,,,,,,,,,,,,,,,,,,,,,,,,,,,,,,,,,,,
,,"[""comma""]",0,53,0,53,0,1,5f248b7b1bde03086270bd37,25,Kobieta,2022-05-28_09h19.05.248,task,2021.1.4,Win32,60.68329389,628b806c463b948bc644b84f,6291ccda5988a574f73ad6ff,[0.24049999999999727],,,,,,,,,,,,,,,,,,,,,,,,,,,,,,,,,,,,,,,,,,,,,,,,,,,,,,,,,,,,,,,,,,,,,,,,,,,,,,,,,,,,,,,,,,,,,,,,,,,,,,,
,,"[""comma"",""period""]",0,54,0,54,0,1,5f248b7b1bde03086270bd37,25,Kobieta,2022-05-28_09h19.05.248,task,2021.1.4,Win32,60.68329389,628b806c463b948bc644b84f,6291ccda5988a574f73ad6ff,"[0.05500000000000682,1.8632000000029905]",,,,,,,,,,,,,,,,,,,,,,,,,,,,,,,,,,,,,,,,,,,,,,,,,,,,,,,,,,,,,,,,,,,,,,,,,,,,,,,,,,,,,,,,,,,,,,,,,,,,,,,
,,"[""period""]",0,55,0,55,0,1,5f248b7b1bde03086270bd37,25,Kobieta,2022-05-28_09h19.05.248,task,2021.1.4,Win32,60.68329389,628b806c463b948bc644b84f,6291ccda5988a574f73ad6ff,[1.743700000002974],,,,,,,,,,,,,,,,,,,,,,,,,,,,,,,,,,,,,,,,,,,,,,,,,,,,,,,,,,,,,,,,,,,,,,,,,,,,,,,,,,,,,,,,,,,,,,,,,,,,,,,
,,"[""comma""]",0,56,0,56,0,1,5f248b7b1bde03086270bd37,25,Kobieta,2022-05-28_09h19.05.248,task,2021.1.4,Win32,60.68329389,628b806c463b948bc644b84f,6291ccda5988a574f73ad6ff,[1.875599999994023],,,,,,,,,,,,,,,,,,,,,,,,,,,,,,,,,,,,,,,,,,,,,,,,,,,,,,,,,,,,,,,,,,,,,,,,,,,,,,,,,,,,,,,,,,,,,,,,,,,,,,,
,,,0,57,0,57,0,1,5f248b7b1bde03086270bd37,25,Kobieta,2022-05-28_09h19.05.248,task,2021.1.4,Win32,60.68329389,628b806c463b948bc644b84f,6291ccda5988a574f73ad6ff,,,,,,,,,,,,,,,,,,,,,,,,,,,,,,,,,,,,,,,,,,,,,,,,,,,,,,,,,,,,,,,,,,,,,,,,,,,,,,,,,,,,,,,,,,,,,,,,,,,,,,,,
,,"[""period""]",0,58,0,58,0,1,5f248b7b1bde03086270bd37,25,Kobieta,2022-05-28_09h19.05.248,task,2021.1.4,Win32,60.68329389,628b806c463b948bc644b84f,6291ccda5988a574f73ad6ff,[0.030700000002980232],,,,,,,,,,,,,,,,,,,,,,,,,,,,,,,,,,,,,,,,,,,,,,,,,,,,,,,,,,,,,,,,,,,,,,,,,,,,,,,,,,,,,,,,,,,,,,,,,,,,,,,
,,"[""comma""]",0,59,0,59,0,1,5f248b7b1bde03086270bd37,25,Kobieta,2022-05-28_09h19.05.248,task,2021.1.4,Win32,60.68329389,628b806c463b948bc644b84f,6291ccda5988a574f73ad6ff,[0.1168000000119207],,,,,,,,,,,,,,,,,,,,,,,,,,,,,,,,,,,,,,,,,,,,,,,,,,,,,,,,,,,,,,,,,,,,,,,,,,,,,,,,,,,,,,,,,,,,,,,,,,,,,,,
,,"[""period""]",0,60,0,60,0,1,5f248b7b1bde03086270bd37,25,Kobieta,2022-05-28_09h19.05.248,task,2021.1.4,Win32,60.68329389,628b806c463b948bc644b84f,6291ccda5988a574f73ad6ff,[0.1031000000089648],,,,,,,,,,,,,,,,,,,,,,,,,,,,,,,,,,,,,,,,,,,,,,,,,,,,,,,,,,,,,,,,,,,,,,,,,,,,,,,,,,,,,,,,,,,,,,,,,,,,,,,
,,"[""period""]",0,61,0,61,0,1,5f248b7b1bde03086270bd37,25,Kobieta,2022-05-28_09h19.05.248,task,2021.1.4,Win32,60.68329389,628b806c463b948bc644b84f,6291ccda5988a574f73ad6ff,[0.27529999999703136],,,,,,,,,,,,,,,,,,,,,,,,,,,,,,,,,,,,,,,,,,,,,,,,,,,,,,,,,,,,,,,,,,,,,,,,,,,,,,,,,,,,,,,,,,,,,,,,,,,,,,,
,,"[""period""]",0,62,0,62,0,1,5f248b7b1bde03086270bd37,25,Kobieta,2022-05-28_09h19.05.248,task,2021.1.4,Win32,60.68329389,628b806c463b948bc644b84f,6291ccda5988a574f73ad6ff,[0.30259999999404386],,,,,,,,,,,,,,,,,,,,,,,,,,,,,,,,,,,,,,,,,,,,,,,,,,,,,,,,,,,,,,,,,,,,,,,,,,,,,,,,,,,,,,,,,,,,,,,,,,,,,,,
,,"[""comma""]",0,63,0,63,0,1,5f248b7b1bde03086270bd37,25,Kobieta,2022-05-28_09h19.05.248,task,2021.1.4,Win32,60.68329389,628b806c463b948bc644b84f,6291ccda5988a574f73ad6ff,[0.3008000000119182],,,,,,,,,,,,,,,,,,,,,,,,,,,,,,,,,,,,,,,,,,,,,,,,,,,,,,,,,,,,,,,,,,,,,,,,,,,,,,,,,,,,,,,,,,,,,,,,,,,,,,,
,,"[""period""]",0,64,0,64,0,1,5f248b7b1bde03086270bd37,25,Kobieta,2022-05-28_09h19.05.248,task,2021.1.4,Win32,60.68329389,628b806c463b948bc644b84f,6291ccda5988a574f73ad6ff,[0.27599999999998204],,,,,,,,,,,,,,,,,,,,,,,,,,,,,,,,,,,,,,,,,,,,,,,,,,,,,,,,,,,,,,,,,,,,,,,,,,,,,,,,,,,,,,,,,,,,,,,,,,,,,,,
,,"[""period""]",0,65,0,65,0,1,5f248b7b1bde03086270bd37,25,Kobieta,2022-05-28_09h19.05.248,task,2021.1.4,Win32,60.68329389,628b806c463b948bc644b84f,6291ccda5988a574f73ad6ff,[0.03149999999999409],,,,,,,,,,,,,,,,,,,,,,,,,,,,,,,,,,,,,,,,,,,,,,,,,,,,,,,,,,,,,,,,,,,,,,,,,,,,,,,,,,,,,,,,,,,,,,,,,,,,,,,
,,"[""period""]",0,66,0,66,0,1,5f248b7b1bde03086270bd37,25,Kobieta,2022-05-28_09h19.05.248,task,2021.1.4,Win32,60.68329389,628b806c463b948bc644b84f,6291ccda5988a574f73ad6ff,[0.007099999994039763],,,,,,,,,,,,,,,,,,,,,,,,,,,,,,,,,,,,,,,,,,,,,,,,,,,,,,,,,,,,,,,,,,,,,,,,,,,,,,,,,,,,,,,,,,,,,,,,,,,,,,,
,,"[""comma""]",0,67,0,67,0,1,5f248b7b1bde03086270bd37,25,Kobieta,2022-05-28_09h19.05.248,task,2021.1.4,Win32,60.68329389,628b806c463b948bc644b84f,6291ccda5988a574f73ad6ff,[0.05620000000297409],,,,,,,,,,,,,,,,,,,,,,,,,,,,,,,,,,,,,,,,,,,,,,,,,,,,,,,,,,,,,,,,,,,,,,,,,,,,,,,,,,,,,,,,,,,,,,,,,,,,,,,
,,"[""comma""]",0,68,0,68,0,1,5f248b7b1bde03086270bd37,25,Kobieta,2022-05-28_09h19.05.248,task,2021.1.4,Win32,60.68329389,628b806c463b948bc644b84f,6291ccda5988a574f73ad6ff,[0.030499999999989313],,,,,,,,,,,,,,,,,,,,,,,,,,,,,,,,,,,,,,,,,,,,,,,,,,,,,,,,,,,,,,,,,,,,,,,,,,,,,,,,,,,,,,,,,,,,,,,,,,,,,,,
,,"[""period""]",0,69,0,69,0,1,5f248b7b1bde03086270bd37,25,Kobieta,2022-05-28_09h19.05.248,task,2021.1.4,Win32,60.68329389,628b806c463b948bc644b84f,6291ccda5988a574f73ad6ff,[0.10090000000593591],,,,,,,,,,,,,,,,,,,,,,,,,,,,,,,,,,,,,,,,,,,,,,,,,,,,,,,,,,,,,,,,,,,,,,,,,,,,,,,,,,,,,,,,,,,,,,,,,,,,,,,
,,"[""period""]",0,70,0,70,0,1,5f248b7b1bde03086270bd37,25,Kobieta,2022-05-28_09h19.05.248,task,2021.1.4,Win32,60.68329389,628b806c463b948bc644b84f,6291ccda5988a574f73ad6ff,[-0.01780000001190274],,,,,,,,,,,,,,,,,,,,,,,,,,,,,,,,,,,,,,,,,,,,,,,,,,,,,,,,,,,,,,,,,,,,,,,,,,,,,,,,,,,,,,,,,,,,,,,,,,,,,,,
,,"[""comma""]",0,71,0,71,0,1,5f248b7b1bde03086270bd37,25,Kobieta,2022-05-28_09h19.05.248,task,2021.1.4,Win32,60.68329389,628b806c463b948bc644b84f,6291ccda5988a574f73ad6ff,[0.10520000000298069],,,,,,,,,,,,,,,,,,,,,,,,,,,,,,,,,,,,,,,,,,,,,,,,,,,,,,,,,,,,,,,,,,,,,,,,,,,,,,,,,,,,,,,,,,,,,,,,,,,,,,,
,,"[""comma""]",0,72,0,72,0,1,5f248b7b1bde03086270bd37,25,Kobieta,2022-05-28_09h19.05.248,task,2021.1.4,Win32,60.68329389,628b806c463b948bc644b84f,6291ccda5988a574f73ad6ff,[0.2530999999940491],,,,,,,,,,,,,,,,,,,,,,,,,,,,,,,,,,,,,,,,,,,,,,,,,,,,,,,,,,,,,,,,,,,,,,,,,,,,,,,,,,,,,,,,,,,,,,,,,,,,,,,
,,"[""period""]",0,73,0,73,0,1,5f248b7b1bde03086270bd37,25,Kobieta,2022-05-28_09h19.05.248,task,2021.1.4,Win32,60.68329389,628b806c463b948bc644b84f,6291ccda5988a574f73ad6ff,[0.2542000000029816],,,,,,,,,,,,,,,,,,,,,,,,,,,,,,,,,,,,,,,,,,,,,,,,,,,,,,,,,,,,,,,,,,,,,,,,,,,,,,,,,,,,,,,,,,,,,,,,,,,,,,,
,,"[""comma"",""period""]",0,74,0,74,0,1,5f248b7b1bde03086270bd37,25,Kobieta,2022-05-28_09h19.05.248,task,2021.1.4,Win32,60.68329389,628b806c463b948bc644b84f,6291ccda5988a574f73ad6ff,"[0.1425000000000125,1.9279999999999973]",,,,,,,,,,,,,,,,,,,,,,,,,,,,,,,,,,,,,,,,,,,,,,,,,,,,,,,,,,,,,,,,,,,,,,,,,,,,,,,,,,,,,,,,,,,,,,,,,,,,,,,
,,,0,75,0,75,0,1,5f248b7b1bde03086270bd37,25,Kobieta,2022-05-28_09h19.05.248,task,2021.1.4,Win32,60.68329389,628b806c463b948bc644b84f,6291ccda5988a574f73ad6ff,,,,,,,,,,,,,,,,,,,,,,,,,,,,,,,,,,,,,,,,,,,,,,,,,,,,,,,,,,,,,,,,,,,,,,,,,,,,,,,,,,,,,,,,,,,,,,,,,,,,,,,,
,,"[""period""]",0,76,0,76,0,1,5f248b7b1bde03086270bd37,25,Kobieta,2022-05-28_09h19.05.248,task,2021.1.4,Win32,60.68329389,628b806c463b948bc644b84f,6291ccda5988a574f73ad6ff,[0.1769999999999925],,,,,,,,,,,,,,,,,,,,,,,,,,,,,,,,,,,,,,,,,,,,,,,,,,,,,,,,,,,,,,,,,,,,,,,,,,,,,,,,,,,,,,,,,,,,,,,,,,,,,,,
,,"[""period""]",0,77,0,77,0,1,5f248b7b1bde03086270bd37,25,Kobieta,2022-05-28_09h19.05.248,task,2021.1.4,Win32,60.68329389,628b806c463b948bc644b84f,6291ccda5988a574f73ad6ff,[0.2224999999999966],,,,,,,,,,,,,,,,,,,,,,,,,,,,,,,,,,,,,,,,,,,,,,,,,,,,,,,,,,,,,,,,,,,,,,,,,,,,,,,,,,,,,,,,,,,,,,,,,,,,,,,
,,"[""comma""]",0,78,0,78,0,1,5f248b7b1bde03086270bd37,25,Kobieta,2022-05-28_09h19.05.248,task,2021.1.4,Win32,60.68329389,628b806c463b948bc644b84f,6291ccda5988a574f73ad6ff,[0.3257000000029677],,,,,,,,,,,,,,,,,,,,,,,,,,,,,,,,,,,,,,,,,,,,,,,,,,,,,,,,,,,,,,,,,,,,,,,,,,,,,,,,,,,,,,,,,,,,,,,,,,,,,,,
,,"[""period""]",0,79,0,79,0,1,5f248b7b1bde03086270bd37,25,Kobieta,2022-05-28_09h19.05.248,task,2021.1.4,Win32,60.68329389,628b806c463b948bc644b84f,6291ccda5988a574f73ad6ff,[0.23129999999702022],,,,,,,,,,,,,,,,,,,,,,,,,,,,,,,,,,,,,,,,,,,,,,,,,,,,,,,,,,,,,,,,,,,,,,,,,,,,,,,,,,,,,,,,,,,,,,,,,,,,,,,
,,"[""period""]",0,80,0,80,0,1,5f248b7b1bde03086270bd37,25,Kobieta,2022-05-28_09h19.05.248,task,2021.1.4,Win32,60.68329389,628b806c463b948bc644b84f,6291ccda5988a574f73ad6ff,[0.12889999999106294],,,,,,,,,,,,,,,,,,,,,,,,,,,,,,,,,,,,,,,,,,,,,,,,,,,,,,,,,,,,,,,,,,,,,,,,,,,,,,,,,,,,,,,,,,,,,,,,,,,,,,,
,,"[""period""]",0,81,0,81,0,1,5f248b7b1bde03086270bd37,25,Kobieta,2022-05-28_09h19.05.248,task,2021.1.4,Win32,60.68329389,628b806c463b948bc644b84f,6291ccda5988a574f73ad6ff,[0.16550000000000864],,,,,,,,,,,,,,,,,,,,,,,,,,,,,,,,,,,,,,,,,,,,,,,,,,,,,,,,,,,,,,,,,,,,,,,,,,,,,,,,,,,,,,,,,,,,,,,,,,,,,,,
,,"[""comma""]",0,82,0,82,0,1,5f248b7b1bde03086270bd37,25,Kobieta,2022-05-28_09h19.05.248,task,2021.1.4,Win32,60.68329389,628b806c463b948bc644b84f,6291ccda5988a574f73ad6ff,[0.26879999999704296],,,,,,,,,,,,,,,,,,,,,,,,,,,,,,,,,,,,,,,,,,,,,,,,,,,,,,,,,,,,,,,,,,,,,,,,,,,,,,,,,,,,,,,,,,,,,,,,,,,,,,,
,,"[""comma""]",0,83,0,83,0,1,5f248b7b1bde03086270bd37,25,Kobieta,2022-05-28_09h19.05.248,task,2021.1.4,Win32,60.68329389,628b806c463b948bc644b84f,6291ccda5988a574f73ad6ff,[0.31479999999703523],,,,,,,,,,,,,,,,,,,,,,,,,,,,,,,,,,,,,,,,,,,,,,,,,,,,,,,,,,,,,,,,,,,,,,,,,,,,,,,,,,,,,,,,,,,,,,,,,,,,,,,
,,"[""period""]",0,84,0,84,0,1,5f248b7b1bde03086270bd37,25,Kobieta,2022-05-28_09h19.05.248,task,2021.1.4,Win32,60.68329389,628b806c463b948bc644b84f,6291ccda5988a574f73ad6ff,[0.2554000000059773],,,,,,,,,,,,,,,,,,,,,,,,,,,,,,,,,,,,,,,,,,,,,,,,,,,,,,,,,,,,,,,,,,,,,,,,,,,,,,,,,,,,,,,,,,,,,,,,,,,,,,,
,,"[""comma""]",0,85,0,85,0,1,5f248b7b1bde03086270bd37,25,Kobieta,2022-05-28_09h19.05.248,task,2021.1.4,Win32,60.68329389,628b806c463b948bc644b84f,6291ccda5988a574f73ad6ff,[0.27300000000002456],,,,,,,,,,,,,,,,,,,,,,,,,,,,,,,,,,,,,,,,,,,,,,,,,,,,,,,,,,,,,,,,,,,,,,,,,,,,,,,,,,,,,,,,,,,,,,,,,,,,,,,
,,"[""period""]",0,86,0,86,0,1,5f248b7b1bde03086270bd37,25,Kobieta,2022-05-28_09h19.05.248,task,2021.1.4,Win32,60.68329389,628b806c463b948bc644b84f,6291ccda5988a574f73ad6ff,[0.27329999999705024],,,,,,,,,,,,,,,,,,,,,,,,,,,,,,,,,,,,,,,,,,,,,,,,,,,,,,,,,,,,,,,,,,,,,,,,,,,,,,,,,,,,,,,,,,,,,,,,,,,,,,,
,,"[""period""]",0,87,0,87,0,1,5f248b7b1bde03086270bd37,25,Kobieta,2022-05-28_09h19.05.248,task,2021.1.4,Win32,60.68329389,628b806c463b948bc644b84f,6291ccda5988a574f73ad6ff,[0.29700000000002547],,,,,,,,,,,,,,,,,,,,,,,,,,,,,,,,,,,,,,,,,,,,,,,,,,,,,,,,,,,,,,,,,,,,,,,,,,,,,,,,,,,,,,,,,,,,,,,,,,,,,,,
,,"[""period""]",0,88,0,88,0,1,5f248b7b1bde03086270bd37,25,Kobieta,2022-05-28_09h19.05.248,task,2021.1.4,Win32,60.68329389,628b806c463b948bc644b84f,6291ccda5988a574f73ad6ff,[0.1546000000089407],,,,,,,,,,,,,,,,,,,,,,,,,,,,,,,,,,,,,,,,,,,,,,,,,,,,,,,,,,,,,,,,,,,,,,,,,,,,,,,,,,,,,,,,,,,,,,,,,,,,,,,
,,"[""period""]",0,89,0,89,0,1,5f248b7b1bde03086270bd37,25,Kobieta,2022-05-28_09h19.05.248,task,2021.1.4,Win32,60.68329389,628b806c463b948bc644b84f,6291ccda5988a574f73ad6ff,[0.10439999999107386],,,,,,,,,,,,,,,,,,,,,,,,,,,,,,,,,,,,,,,,,,,,,,,,,,,,,,,,,,,,,,,,,,,,,,,,,,,,,,,,,,,,,,,,,,,,,,,,,,,,,,,
,,"[""comma""]",0,90,0,90,0,1,5f248b7b1bde03086270bd37,25,Kobieta,2022-05-28_09h19.05.248,task,2021.1.4,Win32,60.68329389,628b806c463b948bc644b84f,6291ccda5988a574f73ad6ff,[-0.02400000000000091],,,,,,,,,,,,,,,,,,,,,,,,,,,,,,,,,,,,,,,,,,,,,,,,,,,,,,,,,,,,,,,,,,,,,,,,,,,,,,,,,,,,,,,,,,,,,,,,,,,,,,,
,,"[""comma""]",0,91,0,91,0,1,5f248b7b1bde03086270bd37,25,Kobieta,2022-05-28_09h19.05.248,task,2021.1.4,Win32,60.68329389,628b806c463b948bc644b84f,6291ccda5988a574f73ad6ff,[0.006800000011935481],,,,,,,,,,,,,,,,,,,,,,,,,,,,,,,,,,,,,,,,,,,,,,,,,,,,,,,,,,,,,,,,,,,,,,,,,,,,,,,,,,,,,,,,,,,,,,,,,,,,,,,
,,"[""comma""]",0,92,0,92,0,1,5f248b7b1bde03086270bd37,25,Kobieta,2022-05-28_09h19.05.248,task,2021.1.4,Win32,60.68329389,628b806c463b948bc644b84f,6291ccda5988a574f73ad6ff,[0.057900000005986385],,,,,,,,,,,,,,,,,,,,,,,,,,,,,,,,,,,,,,,,,,,,,,,,,,,,,,,,,,,,,,,,,,,,,,,,,,,,,,,,,,,,,,,,,,,,,,,,,,,,,,,
,,"[""comma""]",0,93,0,93,0,1,5f248b7b1bde03086270bd37,25,Kobieta,2022-05-28_09h19.05.248,task,2021.1.4,Win32,60.68329389,628b806c463b948bc644b84f,6291ccda5988a574f73ad6ff,[0.2761000000089098],,,,,,,,,,,,,,,,,,,,,,,,,,,,,,,,,,,,,,,,,,,,,,,,,,,,,,,,,,,,,,,,,,,,,,,,,,,,,,,,,,,,,,,,,,,,,,,,,,,,,,,
,,"[""comma""]",0,94,0,94,0,1,5f248b7b1bde03086270bd37,25,Kobieta,2022-05-28_09h19.05.248,task,2021.1.4,Win32,60.68329389,628b806c463b948bc644b84f,6291ccda5988a574f73ad6ff,[0.28340000000594046],,,,,,,,,,,,,,,,,,,,,,,,,,,,,,,,,,,,,,,,,,,,,,,,,,,,,,,,,,,,,,,,,,,,,,,,,,,,,,,,,,,,,,,,,,,,,,,,,,,,,,,
,,"[""comma""]",0,95,0,95,0,1,5f248b7b1bde03086270bd37,25,Kobieta,2022-05-28_09h19.05.248,task,2021.1.4,Win32,60.68329389,628b806c463b948bc644b84f,6291ccda5988a574f73ad6ff,[0.19129999999699976],,,,,,,,,,,,,,,,,,,,,,,,,,,,,,,,,,,,,,,,,,,,,,,,,,,,,,,,,,,,,,,,,,,,,,,,,,,,,,,,,,,,,,,,,,,,,,,,,,,,,,,
,,"[""comma""]",0,96,0,96,0,1,5f248b7b1bde03086270bd37,25,Kobieta,2022-05-28_09h19.05.248,task,2021.1.4,Win32,60.68329389,628b806c463b948bc644b84f,6291ccda5988a574f73ad6ff,[0.1987000000029866],,,,,,,,,,,,,,,,,,,,,,,,,,,,,,,,,,,,,,,,,,,,,,,,,,,,,,,,,,,,,,,,,,,,,,,,,,,,,,,,,,,,,,,,,,,,,,,,,,,,,,,
,,"[""comma""]",0,97,0,97,0,1,5f248b7b1bde03086270bd37,25,Kobieta,2022-05-28_09h19.05.248,task,2021.1.4,Win32,60.68329389,628b806c463b948bc644b84f,6291ccda5988a574f73ad6ff,[0.18009999999401316],,,,,,,,,,,,,,,,,,,,,,,,,,,,,,,,,,,,,,,,,,,,,,,,,,,,,,,,,,,,,,,,,,,,,,,,,,,,,,,,,,,,,,,,,,,,,,,,,,,,,,,
,,"[""comma""]",0,98,0,98,0,1,5f248b7b1bde03086270bd37,25,Kobieta,2022-05-28_09h19.05.248,task,2021.1.4,Win32,60.68329389,628b806c463b948bc644b84f,6291ccda5988a574f73ad6ff,[0.15539999999106158],,,,,,,,,,,,,,,,,,,,,,,,,,,,,,,,,,,,,,,,,,,,,,,,,,,,,,,,,,,,,,,,,,,,,,,,,,,,,,,,,,,,,,,,,,,,,,,,,,,,,,,
,,"[""period""]",0,99,0,99,0,1,5f248b7b1bde03086270bd37,25,Kobieta,2022-05-28_09h19.05.248,task,2021.1.4,Win32,60.68329389,628b806c463b948bc644b84f,6291ccda5988a574f73ad6ff,[0.05729999999704205],,,,,,,,,,,,,,,,,,,,,,,,,,,,,,,,,,,,,,,,,,,,,,,,,,,,,,,,,,,,,,,,,,,,,,,,,,,,,,,,,,,,,,,,,,,,,,,,,,,,,,,
,,"[""comma"",""period""]",0,100,0,100,0,1,5f248b7b1bde03086270bd37,25,Kobieta,2022-05-28_09h19.05.248,task,2021.1.4,Win32,60.68329389,628b806c463b948bc644b84f,6291ccda5988a574f73ad6ff,"[0.006600000008972984,1.8751000000089562]",,,,,,,,,,,,,,,,,,,,,,,,,,,,,,,,,,,,,,,,,,,,,,,,,,,,,,,,,,,,,,,,,,,,,,,,,,,,,,,,,,,,,,,,,,,,,,,,,,,,,,,
,,"[""comma""]",0,101,0,101,0,1,5f248b7b1bde03086270bd37,25,Kobieta,2022-05-28_09h19.05.248,task,2021.1.4,Win32,60.68329389,628b806c463b948bc644b84f,6291ccda5988a574f73ad6ff,[1.9250000000000114],,,,,,,,,,,,,,,,,,,,,,,,,,,,,,,,,,,,,,,,,,,,,,,,,,,,,,,,,,,,,,,,,,,,,,,,,,,,,,,,,,,,,,,,,,,,,,,,,,,,,,,
,,"[""period""]",0,102,0,102,0,1,5f248b7b1bde03086270bd37,25,Kobieta,2022-05-28_09h19.05.248,task,2021.1.4,Win32,60.68329389,628b806c463b948bc644b84f,6291ccda5988a574f73ad6ff,[1.9448000000119237],,,,,,,,,,,,,,,,,,,,,,,,,,,,,,,,,,,,,,,,,,,,,,,,,,,,,,,,,,,,,,,,,,,,,,,,,,,,,,,,,,,,,,,,,,,,,,,,,,,,,,,
,,,0,103,0,103,0,1,5f248b7b1bde03086270bd37,25,Kobieta,2022-05-28_09h19.05.248,task,2021.1.4,Win32,60.68329389,628b806c463b948bc644b84f,6291ccda5988a574f73ad6ff,,,,,,,,,,,,,,,,,,,,,,,,,,,,,,,,,,,,,,,,,,,,,,,,,,,,,,,,,,,,,,,,,,,,,,,,,,,,,,,,,,,,,,,,,,,,,,,,,,,,,,,,
,,"[""comma""]",0,104,0,104,0,1,5f248b7b1bde03086270bd37,25,Kobieta,2022-05-28_09h19.05.248,task,2021.1.4,Win32,60.68329389,628b806c463b948bc644b84f,6291ccda5988a574f73ad6ff,[0.03079999999698657],,,,,,,,,,,,,,,,,,,,,,,,,,,,,,,,,,,,,,,,,,,,,,,,,,,,,,,,,,,,,,,,,,,,,,,,,,,,,,,,,,,,,,,,,,,,,,,,,,,,,,,
,,"[""period""]",0,105,0,105,0,1,5f248b7b1bde03086270bd37,25,Kobieta,2022-05-28_09h19.05.248,task,2021.1.4,Win32,60.68329389,628b806c463b948bc644b84f,6291ccda5988a574f73ad6ff,[0.030400000005954553],,,,,,,,,,,,,,,,,,,,,,,,,,,,,,,,,,,,,,,,,,,,,,,,,,,,,,,,,,,,,,,,,,,,,,,,,,,,,,,,,,,,,,,,,,,,,,,,,,,,,,,
,,"[""period"",""comma""]",0,106,0,106,0,1,5f248b7b1bde03086270bd37,25,Kobieta,2022-05-28_09h19.05.248,task,2021.1.4,Win32,60.68329389,628b806c463b948bc644b84f,6291ccda5988a574f73ad6ff,"[0.539299999997013,0.5912000000029707]",,,,,,,,,,,,,,,,,,,,,,,,,,,,,,,,,,,,,,,,,,,,,,,,,,,,,,,,,,,,,,,,,,,,,,,,,,,,,,,,,,,,,,,,,,,,,,,,,,,,,,,
,,"[""comma""]",0,107,0,107,0,1,5f248b7b1bde03086270bd37,25,Kobieta,2022-05-28_09h19.05.248,task,2021.1.4,Win32,60.68329389,628b806c463b948bc644b84f,6291ccda5988a574f73ad6ff,[0.49659999999403226],,,,,,,,,,,,,,,,,,,,,,,,,,,,,,,,,,,,,,,,,,,,,,,,,,,,,,,,,,,,,,,,,,,,,,,,,,,,,,,,,,,,,,,,,,,,,,,,,,,,,,,
,,"[""period""]",0,108,0,108,0,1,5f248b7b1bde03086270bd37,25,Kobieta,2022-05-28_09h19.05.248,task,2021.1.4,Win32,60.68329389,628b806c463b948bc644b84f,6291ccda5988a574f73ad6ff,[0.42089999999109295],,,,,,,,,,,,,,,,,,,,,,,,,,,,,,,,,,,,,,,,,,,,,,,,,,,,,,,,,,,,,,,,,,,,,,,,,,,,,,,,,,,,,,,,,,,,,,,,,,,,,,,
,,"[""period""]",0,109,0,109,0,1,5f248b7b1bde03086270bd37,25,Kobieta,2022-05-28_09h19.05.248,task,2021.1.4,Win32,60.68329389,628b806c463b948bc644b84f,6291ccda5988a574f73ad6ff,[0.3254000000059136],,,,,,,,,,,,,,,,,,,,,,,,,,,,,,,,,,,,,,,,,,,,,,,,,,,,,,,,,,,,,,,,,,,,,,,,,,,,,,,,,,,,,,,,,,,,,,,,,,,,,,,
,,"[""comma""]",0,110,0,110,0,1,5f248b7b1bde03086270bd37,25,Kobieta,2022-05-28_09h19.05.248,task,2021.1.4,Win32,60.68329389,628b806c463b948bc644b84f,6291ccda5988a574f73ad6ff,[0.2627999999970143],,,,,,,,,,,,,,,,,,,,,,,,,,,,,,,,,,,,,,,,,,,,,,,,,,,,,,,,,,,,,,,,,,,,,,,,,,,,,,,,,,,,,,,,,,,,,,,,,,,,,,,
,,"[""comma""]",0,111,0,111,0,1,5f248b7b1bde03086270bd37,25,Kobieta,2022-05-28_09h19.05.248,task,2021.1.4,Win32,60.68329389,628b806c463b948bc644b84f,6291ccda5988a574f73ad6ff,[0.1063999999910834],,,,,,,,,,,,,,,,,,,,,,,,,,,,,,,,,,,,,,,,,,,,,,,,,,,,,,,,,,,,,,,,,,,,,,,,,,,,,,,,,,,,,,,,,,,,,,,,,,,,,,,
,,"[""period""]",0,112,0,112,0,1,5f248b7b1bde03086270bd37,25,Kobieta,2022-05-28_09h19.05.248,task,2021.1.4,Win32,60.68329389,628b806c463b948bc644b84f,6291ccda5988a574f73ad6ff,[0.006700000002979323],,,,,,,,,,,,,,,,,,,,,,,,,,,,,,,,,,,,,,,,,,,,,,,,,,,,,,,,,,,,,,,,,,,,,,,,,,,,,,,,,,,,,,,,,,,,,,,,,,,,,,,
,,"[""comma""]",0,113,0,113,0,1,5f248b7b1bde03086270bd37,25,Kobieta,2022-05-28_09h19.05.248,task,2021.1.4,Win32,60.68329389,628b806c463b948bc644b84f,6291ccda5988a574f73ad6ff,[0.2267000000030066],,,,,,,,,,,,,,,,,,,,,,,,,,,,,,,,,,,,,,,,,,,,,,,,,,,,,,,,,,,,,,,,,,,,,,,,,,,,,,,,,,,,,,,,,,,,,,,,,,,,,,,
,,"[""period""]",0,114,0,114,0,1,5f248b7b1bde03086270bd37,25,Kobieta,2022-05-28_09h19.05.248,task,2021.1.4,Win32,60.68329389,628b806c463b948bc644b84f,6291ccda5988a574f73ad6ff,[0.24870000000299797],,,,,,,,,,,,,,,,,,,,,,,,,,,,,,,,,,,,,,,,,,,,,,,,,,,,,,,,,,,,,,,,,,,,,,,,,,,,,,,,,,,,,,,,,,,,,,,,,,,,,,,
,,"[""period""]",0,115,0,115,0,1,5f248b7b1bde03086270bd37,25,Kobieta,2022-05-28_09h19.05.248,task,2021.1.4,Win32,60.68329389,628b806c463b948bc644b84f,6291ccda5988a574f73ad6ff,[0.21379999999703614],,,,,,,,,,,,,,,,,,,,,,,,,,,,,,,,,,,,,,,,,,,,,,,,,,,,,,,,,,,,,,,,,,,,,,,,,,,,,,,,,,,,,,,,,,,,,,,,,,,,,,,
,,"[""period"",""comma""]",0,116,0,116,0,1,5f248b7b1bde03086270bd37,25,Kobieta,2022-05-28_09h19.05.248,task,2021.1.4,Win32,60.68329389,628b806c463b948bc644b84f,6291ccda5988a574f73ad6ff,"[0.140300000011905,1.946700000002977]",,,,,,,,,,,,,,,,,,,,,,,,,,,,,,,,,,,,,,,,,,,,,,,,,,,,,,,,,,,,,,,,,,,,,,,,,,,,,,,,,,,,,,,,,,,,,,,,,,,,,,,
,,"[""comma""]",0,117,0,117,0,1,5f248b7b1bde03086270bd37,25,Kobieta,2022-05-28_09h19.05.248,task,2021.1.4,Win32,60.68329389,628b806c463b948bc644b84f,6291ccda5988a574f73ad6ff,[1.8947999999970193],,,,,,,,,,,,,,,,,,,,,,,,,,,,,,,,,,,,,,,,,,,,,,,,,,,,,,,,,,,,,,,,,,,,,,,,,,,,,,,,,,,,,,,,,,,,,,,,,,,,,,,
,,,0,118,0,118,0,1,5f248b7b1bde03086270bd37,25,Kobieta,2022-05-28_09h19.05.248,task,2021.1.4,Win32,60.68329389,628b806c463b948bc644b84f,6291ccda5988a574f73ad6ff,,,,,,,,,,,,,,,,,,,,,,,,,,,,,,,,,,,,,,,,,,,,,,,,,,,,,,,,,,,,,,,,,,,,,,,,,,,,,,,,,,,,,,,,,,,,,,,,,,,,,,,,
,,"[""period""]",0,119,0,119,0,1,5f248b7b1bde03086270bd37,25,Kobieta,2022-05-28_09h19.05.248,task,2021.1.4,Win32,60.68329389,628b806c463b948bc644b84f,6291ccda5988a574f73ad6ff,[0.1303000000119141],,,,,,,,,,,,,,,,,,,,,,,,,,,,,,,,,,,,,,,,,,,,,,,,,,,,,,,,,,,,,,,,,,,,,,,,,,,,,,,,,,,,,,,,,,,,,,,,,,,,,,,
,,,,,,,,,5f248b7b1bde03086270bd37,25,Kobieta,2022-05-28_09h19.05.248,task,2021.1.4,Win32,60.68329389,628b806c463b948bc644b84f,6291ccda5988a574f73ad6ff,,space,17.414,space,3.567,0,0,0,0,1,"X V Q F H G B L J M P D K C T S W R N Z
",,,,,,,,,,,,,,,,,,,,,,,,,,,,,,,,,,,,,,,,,,,,,,,,,,,,,,,,,,,,,,,,,,,,,,,,,,,,,,,,,,,,,,,,,,,,,
,,,,,,,,,5f248b7b1bde03086270bd37,25,Kobieta,2022-05-28_09h19.05.248,task,2021.1.4,Win32,60.68329389,628b806c463b948bc644b84f,6291ccda5988a574f73ad6ff,,,,,,1,0,1,0,1,"X V Q F H G B L J M P D K C T S W R N Z
",,,,,,,,,,,,,,,,,,,,,,,,,,,,,,,,,,,,,,,,,,,,,,,,,,,,,,,,,,,,,,,,,,,,,,,,,,,,,,,,,,,,,,,,,,,,,
,,,,,,,,,5f248b7b1bde03086270bd37,25,Kobieta,2022-05-28_09h19.05.248,task,2021.1.4,Win32,60.68329389,628b806c463b948bc644b84f,6291ccda5988a574f73ad6ff,,,,,,,,,,,,zn,"[""z"",""n""]","[1.4985000000000355,1.8140000000000214,2.2160999999940714]",1,ZN,0,0,0,0,1,,,,,,,,,,,,,,,,,,,,,,,,,,,,,,,,,,,,,,,,,,,,,,,,,,,,,,,,,,,,,,,,,,,,,,,,,,,,,,,,,,,
,,,,,,,,,5f248b7b1bde03086270bd37,25,Kobieta,2022-05-28_09h19.05.248,task,2021.1.4,Win32,60.68329389,628b806c463b948bc644b84f,6291ccda5988a574f73ad6ff,,,,,,0,0,0,0,1,"X V Q F H G B L J M P D K C T S W R N Z
",,,,,,,,,,,,,,,,,,,,,,,,,,,,,,,,,,,,,,,,,,,,,,,,,,,,,,,,,,,,,,,,,,,,,,,,,,,,,,,,,,,,,,,,,,,,,
,,,,,,,,,5f248b7b1bde03086270bd37,25,Kobieta,2022-05-28_09h19.05.248,task,2021.1.4,Win32,60.68329389,628b806c463b948bc644b84f,6291ccda5988a574f73ad6ff,,,,,,1,0,1,0,1,"X V Q F H G B L J M P D K C T S W R N Z
",,,,,,,,,,,,,,,,,,,,,,,,,,,,,,,,,,,,,,,,,,,,,,,,,,,,,,,,,,,,,,,,,,,,,,,,,,,,,,,,,,,,,,,,,,,,,
,,,,,,,,,5f248b7b1bde03086270bd37,25,Kobieta,2022-05-28_09h19.05.248,task,2021.1.4,Win32,60.68329389,628b806c463b948bc644b84f,6291ccda5988a574f73ad6ff,,,,,,,,,,,,wm,"[""w"",""m""]","[0.6889999999999645,0.9284999999999854,1.1977999999970166]",1,WM,1,0,1,0,1,,,,,,,,,,,,,,,,,,,,,,,,,,,,,,,,,,,,,,,,,,,,,,,,,,,,,,,,,,,,,,,,,,,,,,,,,,,,,,,,,,,
,,,,,,,,,5f248b7b1bde03086270bd37,25,Kobieta,2022-05-28_09h19.05.248,task,2021.1.4,Win32,60.68329389,628b806c463b948bc644b84f,6291ccda5988a574f73ad6ff,,,,,,0,0,0,0,1,"X V Q F H G B L J M P D K C T S W R N Z
",,,,,,,,,,,,,,,,,,,,,,,,,,,,,,,,,,,,,,,,,,,,,,,,,,,,,,,,,,,,,,,,,,,,,,,,,,,,,,,,,,,,,,,,,,,,,
,,,,,,,,,5f248b7b1bde03086270bd37,25,Kobieta,2022-05-28_09h19.05.248,task,2021.1.4,Win32,60.68329389,628b806c463b948bc644b84f,6291ccda5988a574f73ad6ff,,,,,,1,0,1,0,1,"X V Q F H G B L J M P D K C T S W R N Z
",,,,,,,,,,,,,,,,,,,,,,,,,,,,,,,,,,,,,,,,,,,,,,,,,,,,,,,,,,,,,,,,,,,,,,,,,,,,,,,,,,,,,,,,,,,,,
,,,,,,,,,5f248b7b1bde03086270bd37,25,Kobieta,2022-05-28_09h19.05.248,task,2021.1.4,Win32,60.68329389,628b806c463b948bc644b84f,6291ccda5988a574f73ad6ff,,,,,,2,0,2,0,1,"X V Q F H G B L J M P D K C T S W R N Z
",,,,,,,,,,,,,,,,,,,,,,,,,,,,,,,,,,,,,,,,,,,,,,,,,,,,,,,,,,,,,,,,,,,,,,,,,,,,,,,,,,,,,,,,,,,,,
,,,,,,,,,5f248b7b1bde03086270bd37,25,Kobieta,2022-05-28_09h19.05.248,task,2021.1.4,Win32,60.68329389,628b806c463b948bc644b84f,6291ccda5988a574f73ad6ff,,,,,,,,,,,,bxr,"[""b"",""x"",""r""]","[0.5260999999940168,0.7676999999880536,0.9605999999940309,1.4110999999940645]",1,BXR,2,0,2,0,1,,,,,,,,,,,,,,,,,,,,,,,,,,,,,,,,,,,,,,,,,,,,,,,,,,,,,,,,,,,,,,,,,,,,,,,,,,,,,,,,,,,
,,,,,,,,,5f248b7b1bde03086270bd37,25,Kobieta,2022-05-28_09h19.05.248,task,2021.1.4,Win32,60.68329389,628b806c463b948bc644b84f,6291ccda5988a574f73ad6ff,,,,,,0,0,0,0,1,"X V Q F H G B L J M P D K C T S W R N Z
",,,,,,,,,,,,,,,,,,,,,,,,,,,,,,,,,,,,,,,,,,,,,,,,,,,,,,,,,,,,,,,,,,,,,,,,,,,,,,,,,,,,,,,,,,,,,
,,,,,,,,,5f248b7b1bde03086270bd37,25,Kobieta,2022-05-28_09h19.05.248,task,2021.1.4,Win32,60.68329389,628b806c463b948bc644b84f,6291ccda5988a574f73ad6ff,,,,,,1,0,1,0,1,"X V Q F H G B L J M P D K C T S W R N Z
",,,,,,,,,,,,,,,,,,,,,,,,,,,,,,,,,,,,,,,,,,,,,,,,,,,,,,,,,,,,,,,,,,,,,,,,,,,,,,,,,,,,,,,,,,,,,
,,,,,,,,,5f248b7b1bde03086270bd37,25,Kobieta,2022-05-28_09h19.05.248,task,2021.1.4,Win32,60.68329389,628b806c463b948bc644b84f,6291ccda5988a574f73ad6ff,,,,,,2,0,2,0,1,"X V Q F H G B L J M P D K C T S W R N Z
",,,,,,,,,,,,,,,,,,,,,,,,,,,,,,,,,,,,,,,,,,,,,,,,,,,,,,,,,,,,,,,,,,,,,,,,,,,,,,,,,,,,,,,,,,,,,
,,,,,,,,,5f248b7b1bde03086270bd37,25,Kobieta,2022-05-28_09h19.05.248,task,2021.1.4,Win32,60.68329389,628b806c463b948bc644b84f,6291ccda5988a574f73ad6ff,,,,,,,,,,,,ctp,"[""c"",""t"",""p""]","[0.6157000000029598,1.0234000000059496,1.385099999994054,1.6172999999969875]",1,CTP,3,0,3,0,1,,,,,,,,,,,,,,,,,,,,,,,,,,,,,,,,,,,,,,,,,,,,,,,,,,,,,,,,,,,,,,,,,,,,,,,,,,,,,,,,,,,
,,,,,,,,,5f248b7b1bde03086270bd37,25,Kobieta,2022-05-28_09h19.05.248,task,2021.1.4,Win32,60.68329389,628b806c463b948bc644b84f,6291ccda5988a574f73ad6ff,,,,,,0,0,0,0,1,"X V Q F H G B L J M P D K C T S W R N Z
",,,,,,,,,,,,,,,,,,,,,,,,,,,,,,,,,,,,,,,,,,,,,,,,,,,,,,,,,,,,,,,,,,,,,,,,,,,,,,,,,,,,,,,,,,,,,
,,,,,,,,,5f248b7b1bde03086270bd37,25,Kobieta,2022-05-28_09h19.05.248,task,2021.1.4,Win32,60.68329389,628b806c463b948bc644b84f,6291ccda5988a574f73ad6ff,,,,,,1,0,1,0,1,"X V Q F H G B L J M P D K C T S W R N Z
",,,,,,,,,,,,,,,,,,,,,,,,,,,,,,,,,,,,,,,,,,,,,,,,,,,,,,,,,,,,,,,,,,,,,,,,,,,,,,,,,,,,,,,,,,,,,
,,,,,,,,,5f248b7b1bde03086270bd37,25,Kobieta,2022-05-28_09h19.05.248,task,2021.1.4,Win32,60.68329389,628b806c463b948bc644b84f,6291ccda5988a574f73ad6ff,,,,,,2,0,2,0,1,"X V Q F H G B L J M P D K C T S W R N Z
",,,,,,,,,,,,,,,,,,,,,,,,,,,,,,,,,,,,,,,,,,,,,,,,,,,,,,,,,,,,,,,,,,,,,,,,,,,,,,,,,,,,,,,,,,,,,
,,,,,,,,,5f248b7b1bde03086270bd37,25,Kobieta,2022-05-28_09h19.05.248,task,2021.1.4,Win32,60.68329389,628b806c463b948bc644b84f,6291ccda5988a574f73ad6ff,,,,,,3,0,3,0,1,"X V Q F H G B L J M P D K C T S W R N Z
",,,,,,,,,,,,,,,,,,,,,,,,,,,,,,,,,,,,,,,,,,,,,,,,,,,,,,,,,,,,,,,,,,,,,,,,,,,,,,,,,,,,,,,,,,,,,
,,,,,,,,,5f248b7b1bde03086270bd37,25,Kobieta,2022-05-28_09h19.05.248,task,2021.1.4,Win32,60.68329389,628b806c463b948bc644b84f,6291ccda5988a574f73ad6ff,,,,,,,,,,,,szcc,"[""s"",""z"",""c"",""c""]","[0.49310000000895116,0.6979000000059727,0.9071000000089384,1.0818000000119241,1.319500000000005]",0,"SZ
CC",4,0,4,0,1,,,,,,,,,,,,,,,,,,,,,,,,,,,,,,,,,,,,,,,,,,,,,,,,,,,,,,,,,,,,,,,,,,,,,,,,,,,,,,,,,,,
,,,,,,,,,5f248b7b1bde03086270bd37,25,Kobieta,2022-05-28_09h19.05.248,task,2021.1.4,Win32,60.68329389,628b806c463b948bc644b84f,6291ccda5988a574f73ad6ff,,,,,,0,0,0,0,1,"X V Q F H G B L J M P D K C T S W R N Z
",,,,,,,,,,,,,,,,,,,,,,,,,,,,,,,,,,,,,,,,,,,,,,,,,,,,,,,,,,,,,,,,,,,,,,,,,,,,,,,,,,,,,,,,,,,,,
,,,,,,,,,5f248b7b1bde03086270bd37,25,Kobieta,2022-05-28_09h19.05.248,task,2021.1.4,Win32,60.68329389,628b806c463b948bc644b84f,6291ccda5988a574f73ad6ff,,,,,,1,0,1,0,1,"X V Q F H G B L J M P D K C T S W R N Z
",,,,,,,,,,,,,,,,,,,,,,,,,,,,,,,,,,,,,,,,,,,,,,,,,,,,,,,,,,,,,,,,,,,,,,,,,,,,,,,,,,,,,,,,,,,,,
,,,,,,,,,5f248b7b1bde03086270bd37,25,Kobieta,2022-05-28_09h19.05.248,task,2021.1.4,Win32,60.68329389,628b806c463b948bc644b84f,6291ccda5988a574f73ad6ff,,,,,,2,0,2,0,1,"X V Q F H G B L J M P D K C T S W R N Z
",,,,,,,,,,,,,,,,,,,,,,,,,,,,,,,,,,,,,,,,,,,,,,,,,,,,,,,,,,,,,,,,,,,,,,,,,,,,,,,,,,,,,,,,,,,,,
,,,,,,,,,5f248b7b1bde03086270bd37,25,Kobieta,2022-05-28_09h19.05.248,task,2021.1.4,Win32,60.68329389,628b806c463b948bc644b84f,6291ccda5988a574f73ad6ff,,,,,,3,0,3,0,1,"X V Q F H G B L J M P D K C T S W R N Z
",,,,,,,,,,,,,,,,,,,,,,,,,,,,,,,,,,,,,,,,,,,,,,,,,,,,,,,,,,,,,,,,,,,,,,,,,,,,,,,,,,,,,,,,,,,,,
,,,,,,,,,5f248b7b1bde03086270bd37,25,Kobieta,2022-05-28_09h19.05.248,task,2021.1.4,Win32,60.68329389,628b806c463b948bc644b84f,6291ccda5988a574f73ad6ff,,,,,,,,,,,,ckhk,"[""c"",""k"",""h"",""k""]","[1.0827999999970643,2.40300000000002,2.5951000000089834,2.732600000008972,2.9342999999970516]",1,CKHK,5,0,5,0,1,,,,,,,,,,,,,,,,,,,,,,,,,,,,,,,,,,,,,,,,,,,,,,,,,,,,,,,,,,,,,,,,,,,,,,,,,,,,,,,,,,,
,,,,,,,,,5f248b7b1bde03086270bd37,25,Kobieta,2022-05-28_09h19.05.248,task,2021.1.4,Win32,60.68329389,628b806c463b948bc644b84f,6291ccda5988a574f73ad6ff,,,,,,0,0,0,0,1,"X V Q F H G B L J M P D K C T S W R N Z
",,,,,,,,,,,,,,,,,,,,,,,,,,,,,,,,,,,,,,,,,,,,,,,,,,,,,,,,,,,,,,,,,,,,,,,,,,,,,,,,,,,,,,,,,,,,,
,,,,,,,,,5f248b7b1bde03086270bd37,25,Kobieta,2022-05-28_09h19.05.248,task,2021.1.4,Win32,60.68329389,628b806c463b948bc644b84f,6291ccda5988a574f73ad6ff,,,,,,1,0,1,0,1,"X V Q F H G B L J M P D K C T S W R N Z
",,,,,,,,,,,,,,,,,,,,,,,,,,,,,,,,,,,,,,,,,,,,,,,,,,,,,,,,,,,,,,,,,,,,,,,,,,,,,,,,,,,,,,,,,,,,,
,,,,,,,,,5f248b7b1bde03086270bd37,25,Kobieta,2022-05-28_09h19.05.248,task,2021.1.4,Win32,60.68329389,628b806c463b948bc644b84f,6291ccda5988a574f73ad6ff,,,,,,2,0,2,0,1,"X V Q F H G B L J M P D K C T S W R N Z
",,,,,,,,,,,,,,,,,,,,,,,,,,,,,,,,,,,,,,,,,,,,,,,,,,,,,,,,,,,,,,,,,,,,,,,,,,,,,,,,,,,,,,,,,,,,,
,,,,,,,,,5f248b7b1bde03086270bd37,25,Kobieta,2022-05-28_09h19.05.248,task,2021.1.4,Win32,60.68329389,628b806c463b948bc644b84f,6291ccda5988a574f73ad6ff,,,,,,3,0,3,0,1,"X V Q F H G B L J M P D K C T S W R N Z
",,,,,,,,,,,,,,,,,,,,,,,,,,,,,,,,,,,,,,,,,,,,,,,,,,,,,,,,,,,,,,,,,,,,,,,,,,,,,,,,,,,,,,,,,,,,,
,,,,,,,,,5f248b7b1bde03086270bd37,25,Kobieta,2022-05-28_09h19.05.248,task,2021.1.4,Win32,60.68329389,628b806c463b948bc644b84f,6291ccda5988a574f73ad6ff,,,,,,,,,,,,zmgd,"[""z"",""m"",""g"",""d""]","[0.7638999999910538,1.3563999999910266,1.5680999999940468,1.9017000000029611,2.1250999999940063]",0,"Z
MGD",6,0,6,0,1,,,,,,,,,,,,,,,,,,,,,,,,,,,,,,,,,,,,,,,,,,,,,,,,,,,,,,,,,,,,,,,,,,,,,,,,,,,,,,,,,,,
,,,,,,,,,5f248b7b1bde03086270bd37,25,Kobieta,2022-05-28_09h19.05.248,task,2021.1.4,Win32,60.68329389,628b806c463b948bc644b84f,6291ccda5988a574f73ad6ff,,,,,,0,0,0,0,1,"X V Q F H G B L J M P D K C T S W R N Z
",,,,,,,,,,,,,,,,,,,,,,,,,,,,,,,,,,,,,,,,,,,,,,,,,,,,,,,,,,,,,,,,,,,,,,,,,,,,,,,,,,,,,,,,,,,,,
,,,,,,,,,5f248b7b1bde03086270bd37,25,Kobieta,2022-05-28_09h19.05.248,task,2021.1.4,Win32,60.68329389,628b806c463b948bc644b84f,6291ccda5988a574f73ad6ff,,,,,,1,0,1,0,1,"X V Q F H G B L J M P D K C T S W R N Z
",,,,,,,,,,,,,,,,,,,,,,,,,,,,,,,,,,,,,,,,,,,,,,,,,,,,,,,,,,,,,,,,,,,,,,,,,,,,,,,,,,,,,,,,,,,,,
,,,,,,,,,5f248b7b1bde03086270bd37,25,Kobieta,2022-05-28_09h19.05.248,task,2021.1.4,Win32,60.68329389,628b806c463b948bc644b84f,6291ccda5988a574f73ad6ff,,,,,,2,0,2,0,1,"X V Q F H G B L J M P D K C T S W R N Z
",,,,,,,,,,,,,,,,,,,,,,,,,,,,,,,,,,,,,,,,,,,,,,,,,,,,,,,,,,,,,,,,,,,,,,,,,,,,,,,,,,,,,,,,,,,,,
,,,,,,,,,5f248b7b1bde03086270bd37,25,Kobieta,2022-05-28_09h19.05.248,task,2021.1.4,Win32,60.68329389,628b806c463b948bc644b84f,6291ccda5988a574f73ad6ff,,,,,,3,0,3,0,1,"X V Q F H G B L J M P D K C T S W R N Z
",,,,,,,,,,,,,,,,,,,,,,,,,,,,,,,,,,,,,,,,,,,,,,,,,,,,,,,,,,,,,,,,,,,,,,,,,,,,,,,,,,,,,,,,,,,,,
,,,,,,,,,5f248b7b1bde03086270bd37,25,Kobieta,2022-05-28_09h19.05.248,task,2021.1.4,Win32,60.68329389,628b806c463b948bc644b84f,6291ccda5988a574f73ad6ff,,,,,,,,,,,,jshq,"[""j"",""s"",""h"",""q""]","[0.4029000000059568,1.00750000000005,1.40390000000599,1.6366000000089684,1.8110000000000355]",1,JSHQ,7,0,7,0,1,,,,,,,,,,,,,,,,,,,,,,,,,,,,,,,,,,,,,,,,,,,,,,,,,,,,,,,,,,,,,,,,,,,,,,,,,,,,,,,,,,,
,,,,,,,,,5f248b7b1bde03086270bd37,25,Kobieta,2022-05-28_09h19.05.248,task,2021.1.4,Win32,60.68329389,628b806c463b948bc644b84f,6291ccda5988a574f73ad6ff,,,,,,0,0,0,0,1,"X V Q F H G B L J M P D K C T S W R N Z
",,,,,,,,,,,,,,,,,,,,,,,,,,,,,,,,,,,,,,,,,,,,,,,,,,,,,,,,,,,,,,,,,,,,,,,,,,,,,,,,,,,,,,,,,,,,,
,,,,,,,,,5f248b7b1bde03086270bd37,25,Kobieta,2022-05-28_09h19.05.248,task,2021.1.4,Win32,60.68329389,628b806c463b948bc644b84f,6291ccda5988a574f73ad6ff,,,,,,1,0,1,0,1,"X V Q F H G B L J M P D K C T S W R N Z
",,,,,,,,,,,,,,,,,,,,,,,,,,,,,,,,,,,,,,,,,,,,,,,,,,,,,,,,,,,,,,,,,,,,,,,,,,,,,,,,,,,,,,,,,,,,,
,,,,,,,,,5f248b7b1bde03086270bd37,25,Kobieta,2022-05-28_09h19.05.248,task,2021.1.4,Win32,60.68329389,628b806c463b948bc644b84f,6291ccda5988a574f73ad6ff,,,,,,2,0,2,0,1,"X V Q F H G B L J M P D K C T S W R N Z
",,,,,,,,,,,,,,,,,,,,,,,,,,,,,,,,,,,,,,,,,,,,,,,,,,,,,,,,,,,,,,,,,,,,,,,,,,,,,,,,,,,,,,,,,,,,,
,,,,,,,,,5f248b7b1bde03086270bd37,25,Kobieta,2022-05-28_09h19.05.248,task,2021.1.4,Win32,60.68329389,628b806c463b948bc644b84f,6291ccda5988a574f73ad6ff,,,,,,3,0,3,0,1,"X V Q F H G B L J M P D K C T S W R N Z
",,,,,,,,,,,,,,,,,,,,,,,,,,,,,,,,,,,,,,,,,,,,,,,,,,,,,,,,,,,,,,,,,,,,,,,,,,,,,,,,,,,,,,,,,,,,,
,,,,,,,,,5f248b7b1bde03086270bd37,25,Kobieta,2022-05-28_09h19.05.248,task,2021.1.4,Win32,60.68329389,628b806c463b948bc644b84f,6291ccda5988a574f73ad6ff,,,,,,4,0,4,0,1,"X V Q F H G B L J M P D K C T S W R N Z
",,,,,,,,,,,,,,,,,,,,,,,,,,,,,,,,,,,,,,,,,,,,,,,,,,,,,,,,,,,,,,,,,,,,,,,,,,,,,,,,,,,,,,,,,,,,,
,,,,,,,,,5f248b7b1bde03086270bd37,25,Kobieta,2022-05-28_09h19.05.248,task,2021.1.4,Win32,60.68329389,628b806c463b948bc644b84f,6291ccda5988a574f73ad6ff,,,,,,,,,,,,tvnfx,"[""t"",""v"",""n"",""f"",""x""]","[0.5486999999880595,0.91700000000003,1.6211999999881073,2.088799999997036,2.269299999997031,2.512299999997026]",1,TVNFX,8,0,8,0,1,,,,,,,,,,,,,,,,,,,,,,,,,,,,,,,,,,,,,,,,,,,,,,,,,,,,,,,,,,,,,,,,,,,,,,,,,,,,,,,,,,,
,,,,,,,,,5f248b7b1bde03086270bd37,25,Kobieta,2022-05-28_09h19.05.248,task,2021.1.4,Win32,60.68329389,628b806c463b948bc644b84f,6291ccda5988a574f73ad6ff,,,,,,0,0,0,0,1,"X V Q F H G B L J M P D K C T S W R N Z
",,,,,,,,,,,,,,,,,,,,,,,,,,,,,,,,,,,,,,,,,,,,,,,,,,,,,,,,,,,,,,,,,,,,,,,,,,,,,,,,,,,,,,,,,,,,,
,,,,,,,,,5f248b7b1bde03086270bd37,25,Kobieta,2022-05-28_09h19.05.248,task,2021.1.4,Win32,60.68329389,628b806c463b948bc644b84f,6291ccda5988a574f73ad6ff,,,,,,1,0,1,0,1,"X V Q F H G B L J M P D K C T S W R N Z
",,,,,,,,,,,,,,,,,,,,,,,,,,,,,,,,,,,,,,,,,,,,,,,,,,,,,,,,,,,,,,,,,,,,,,,,,,,,,,,,,,,,,,,,,,,,,
,,,,,,,,,5f248b7b1bde03086270bd37,25,Kobieta,2022-05-28_09h19.05.248,task,2021.1.4,Win32,60.68329389,628b806c463b948bc644b84f,6291ccda5988a574f73ad6ff,,,,,,2,0,2,0,1,"X V Q F H G B L J M P D K C T S W R N Z
",,,,,,,,,,,,,,,,,,,,,,,,,,,,,,,,,,,,,,,,,,,,,,,,,,,,,,,,,,,,,,,,,,,,,,,,,,,,,,,,,,,,,,,,,,,,,
,,,,,,,,,5f248b7b1bde03086270bd37,25,Kobieta,2022-05-28_09h19.05.248,task,2021.1.4,Win32,60.68329389,628b806c463b948bc644b84f,6291ccda5988a574f73ad6ff,,,,,,3,0,3,0,1,"X V Q F H G B L J M P D K C T S W R N Z
",,,,,,,,,,,,,,,,,,,,,,,,,,,,,,,,,,,,,,,,,,,,,,,,,,,,,,,,,,,,,,,,,,,,,,,,,,,,,,,,,,,,,,,,,,,,,
,,,,,,,,,5f248b7b1bde03086270bd37,25,Kobieta,2022-05-28_09h19.05.248,task,2021.1.4,Win32,60.68329389,628b806c463b948bc644b84f,6291ccda5988a574f73ad6ff,,,,,,4,0,4,0,1,"X V Q F H G B L J M P D K C T S W R N Z
",,,,,,,,,,,,,,,,,,,,,,,,,,,,,,,,,,,,,,,,,,,,,,,,,,,,,,,,,,,,,,,,,,,,,,,,,,,,,,,,,,,,,,,,,,,,,
,,,,,,,,,5f248b7b1bde03086270bd37,25,Kobieta,2022-05-28_09h19.05.248,task,2021.1.4,Win32,60.68329389,628b806c463b948bc644b84f,6291ccda5988a574f73ad6ff,,,,,,,,,,,,dchcc,"[""d"",""c"",""h"",""c"",""c""]","[0.7080999999940332,1.171299999997018,1.5164000000059445,1.7912000000029593,1.9529999999999745,2.139400000005935]",1,DCHCC,9,0,9,0,1,,,,,,,,,,,,,,,,,,,,,,,,,,,,,,,,,,,,,,,,,,,,,,,,,,,,,,,,,,,,,,,,,,,,,,,,,,,,,,,,,,,
,,,,,,,,,5f248b7b1bde03086270bd37,25,Kobieta,2022-05-28_09h19.05.248,task,2021.1.4,Win32,60.68329389,628b806c463b948bc644b84f,6291ccda5988a574f73ad6ff,,,,,,0,0,0,0,1,"X V Q F H G B L J M P D K C T S W R N Z
",,,,,,,,,,,,,,,,,,,,,,,,,,,,,,,,,,,,,,,,,,,,,,,,,,,,,,,,,,,,,,,,,,,,,,,,,,,,,,,,,,,,,,,,,,,,,
,,,,,,,,,5f248b7b1bde03086270bd37,25,Kobieta,2022-05-28_09h19.05.248,task,2021.1.4,Win32,60.68329389,628b806c463b948bc644b84f,6291ccda5988a574f73ad6ff,,,,,,1,0,1,0,1,"X V Q F H G B L J M P D K C T S W R N Z
",,,,,,,,,,,,,,,,,,,,,,,,,,,,,,,,,,,,,,,,,,,,,,,,,,,,,,,,,,,,,,,,,,,,,,,,,,,,,,,,,,,,,,,,,,,,,
,,,,,,,,,5f248b7b1bde03086270bd37,25,Kobieta,2022-05-28_09h19.05.248,task,2021.1.4,Win32,60.68329389,628b806c463b948bc644b84f,6291ccda5988a574f73ad6ff,,,,,,2,0,2,0,1,"X V Q F H G B L J M P D K C T S W R N Z
",,,,,,,,,,,,,,,,,,,,,,,,,,,,,,,,,,,,,,,,,,,,,,,,,,,,,,,,,,,,,,,,,,,,,,,,,,,,,,,,,,,,,,,,,,,,,
,,,,,,,,,5f248b7b1bde03086270bd37,25,Kobieta,2022-05-28_09h19.05.248,task,2021.1.4,Win32,60.68329389,628b806c463b948bc644b84f,6291ccda5988a574f73ad6ff,,,,,,3,0,3,0,1,"X V Q F H G B L J M P D K C T S W R N Z
",,,,,,,,,,,,,,,,,,,,,,,,,,,,,,,,,,,,,,,,,,,,,,,,,,,,,,,,,,,,,,,,,,,,,,,,,,,,,,,,,,,,,,,,,,,,,
,,,,,,,,,5f248b7b1bde03086270bd37,25,Kobieta,2022-05-28_09h19.05.248,task,2021.1.4,Win32,60.68329389,628b806c463b948bc644b84f,6291ccda5988a574f73ad6ff,,,,,,4,0,4,0,1,"X V Q F H G B L J M P D K C T S W R N Z
",,,,,,,,,,,,,,,,,,,,,,,,,,,,,,,,,,,,,,,,,,,,,,,,,,,,,,,,,,,,,,,,,,,,,,,,,,,,,,,,,,,,,,,,,,,,,
,,,,,,,,,5f248b7b1bde03086270bd37,25,Kobieta,2022-05-28_09h19.05.248,task,2021.1.4,Win32,60.68329389,628b806c463b948bc644b84f,6291ccda5988a574f73ad6ff,,,,,,5,0,5,0,1,"X V Q F H G B L J M P D K C T S W R N Z
",,,,,,,,,,,,,,,,,,,,,,,,,,,,,,,,,,,,,,,,,,,,,,,,,,,,,,,,,,,,,,,,,,,,,,,,,,,,,,,,,,,,,,,,,,,,,
,,,,,,,,,5f248b7b1bde03086270bd37,25,Kobieta,2022-05-28_09h19.05.248,task,2021.1.4,Win32,60.68329389,628b806c463b948bc644b84f,6291ccda5988a574f73ad6ff,,,,,,,,,,,,gsflrb,"[""g"",""s"",""f"",""l"",""r"",""b""]","[0.43929999999704705,0.7559999999999718,1.3262999999970475,1.6938999999910607,2.2905000000000086,2.6176999999880763,2.8270999999940614]",1,GSFLRB,10,0,10,0,1,,,,,,,,,,,,,,,,,,,,,,,,,,,,,,,,,,,,,,,,,,,,,,,,,,,,,,,,,,,,,,,,,,,,,,,,,,,,,,,,,,,
,,,,,,,,,5f248b7b1bde03086270bd37,25,Kobieta,2022-05-28_09h19.05.248,task,2021.1.4,Win32,60.68329389,628b806c463b948bc644b84f,6291ccda5988a574f73ad6ff,,,,,,0,0,0,0,1,"X V Q F H G B L J M P D K C T S W R N Z
",,,,,,,,,,,,,,,,,,,,,,,,,,,,,,,,,,,,,,,,,,,,,,,,,,,,,,,,,,,,,,,,,,,,,,,,,,,,,,,,,,,,,,,,,,,,,
,,,,,,,,,5f248b7b1bde03086270bd37,25,Kobieta,2022-05-28_09h19.05.248,task,2021.1.4,Win32,60.68329389,628b806c463b948bc644b84f,6291ccda5988a574f73ad6ff,,,,,,1,0,1,0,1,"X V Q F H G B L J M P D K C T S W R N Z
",,,,,,,,,,,,,,,,,,,,,,,,,,,,,,,,,,,,,,,,,,,,,,,,,,,,,,,,,,,,,,,,,,,,,,,,,,,,,,,,,,,,,,,,,,,,,
,,,,,,,,,5f248b7b1bde03086270bd37,25,Kobieta,2022-05-28_09h19.05.248,task,2021.1.4,Win32,60.68329389,628b806c463b948bc644b84f,6291ccda5988a574f73ad6ff,,,,,,2,0,2,0,1,"X V Q F H G B L J M P D K C T S W R N Z
",,,,,,,,,,,,,,,,,,,,,,,,,,,,,,,,,,,,,,,,,,,,,,,,,,,,,,,,,,,,,,,,,,,,,,,,,,,,,,,,,,,,,,,,,,,,,
,,,,,,,,,5f248b7b1bde03086270bd37,25,Kobieta,2022-05-28_09h19.05.248,task,2021.1.4,Win32,60.68329389,628b806c463b948bc644b84f,6291ccda5988a574f73ad6ff,,,,,,3,0,3,0,1,"X V Q F H G B L J M P D K C T S W R N Z
",,,,,,,,,,,,,,,,,,,,,,,,,,,,,,,,,,,,,,,,,,,,,,,,,,,,,,,,,,,,,,,,,,,,,,,,,,,,,,,,,,,,,,,,,,,,,
,,,,,,,,,5f248b7b1bde03086270bd37,25,Kobieta,2022-05-28_09h19.05.248,task,2021.1.4,Win32,60.68329389,628b806c463b948bc644b84f,6291ccda5988a574f73ad6ff,,,,,,4,0,4,0,1,"X V Q F H G B L J M P D K C T S W R N Z
",,,,,,,,,,,,,,,,,,,,,,,,,,,,,,,,,,,,,,,,,,,,,,,,,,,,,,,,,,,,,,,,,,,,,,,,,,,,,,,,,,,,,,,,,,,,,
,,,,,,,,,5f248b7b1bde03086270bd37,25,Kobieta,2022-05-28_09h19.05.248,task,2021.1.4,Win32,60.68329389,628b806c463b948bc644b84f,6291ccda5988a574f73ad6ff,,,,,,5,0,5,0,1,"X V Q F H G B L J M P D K C T S W R N Z
",,,,,,,,,,,,,,,,,,,,,,,,,,,,,,,,,,,,,,,,,,,,,,,,,,,,,,,,,,,,,,,,,,,,,,,,,,,,,,,,,,,,,,,,,,,,,
,,,,,,,,,5f248b7b1bde03086270bd37,25,Kobieta,2022-05-28_09h19.05.248,task,2021.1.4,Win32,60.68329389,628b806c463b948bc644b84f,6291ccda5988a574f73ad6ff,,,,,,,,,,,,msjtbk,"[""m"",""s"",""j"",""t"",""b"",""k""]","[0.4925000000000068,0.7370000000000232,1.367600000008963,1.5819000000059873,1.84140000000599,2.3077999999970302,2.6039000000059787]",1,MSJTBK,11,0,11,0,1,,,,,,,,,,,,,,,,,,,,,,,,,,,,,,,,,,,,,,,,,,,,,,,,,,,,,,,,,,,,,,,,,,,,,,,,,,,,,,,,,,,
,,,,,,,,,5f248b7b1bde03086270bd37,25,Kobieta,2022-05-28_09h19.05.248,task,2021.1.4,Win32,60.68329389,628b806c463b948bc644b84f,6291ccda5988a574f73ad6ff,,,,,,0,0,0,0,1,"X V Q F H G B L J M P D K C T S W R N Z
",,,,,,,,,,,,,,,,,,,,,,,,,,,,,,,,,,,,,,,,,,,,,,,,,,,,,,,,,,,,,,,,,,,,,,,,,,,,,,,,,,,,,,,,,,,,,
,,,,,,,,,5f248b7b1bde03086270bd37,25,Kobieta,2022-05-28_09h19.05.248,task,2021.1.4,Win32,60.68329389,628b806c463b948bc644b84f,6291ccda5988a574f73ad6ff,,,,,,1,0,1,0,1,"X V Q F H G B L J M P D K C T S W R N Z
",,,,,,,,,,,,,,,,,,,,,,,,,,,,,,,,,,,,,,,,,,,,,,,,,,,,,,,,,,,,,,,,,,,,,,,,,,,,,,,,,,,,,,,,,,,,,
,,,,,,,,,5f248b7b1bde03086270bd37,25,Kobieta,2022-05-28_09h19.05.248,task,2021.1.4,Win32,60.68329389,628b806c463b948bc644b84f,6291ccda5988a574f73ad6ff,,,,,,2,0,2,0,1,"X V Q F H G B L J M P D K C T S W R N Z
",,,,,,,,,,,,,,,,,,,,,,,,,,,,,,,,,,,,,,,,,,,,,,,,,,,,,,,,,,,,,,,,,,,,,,,,,,,,,,,,,,,,,,,,,,,,,
,,,,,,,,,5f248b7b1bde03086270bd37,25,Kobieta,2022-05-28_09h19.05.248,task,2021.1.4,Win32,60.68329389,628b806c463b948bc644b84f,6291ccda5988a574f73ad6ff,,,,,,3,0,3,0,1,"X V Q F H G B L J M P D K C T S W R N Z
",,,,,,,,,,,,,,,,,,,,,,,,,,,,,,,,,,,,,,,,,,,,,,,,,,,,,,,,,,,,,,,,,,,,,,,,,,,,,,,,,,,,,,,,,,,,,
,,,,,,,,,5f248b7b1bde03086270bd37,25,Kobieta,2022-05-28_09h19.05.248,task,2021.1.4,Win32,60.68329389,628b806c463b948bc644b84f,6291ccda5988a574f73ad6ff,,,,,,4,0,4,0,1,"X V Q F H G B L J M P D K C T S W R N Z
",,,,,,,,,,,,,,,,,,,,,,,,,,,,,,,,,,,,,,,,,,,,,,,,,,,,,,,,,,,,,,,,,,,,,,,,,,,,,,,,,,,,,,,,,,,,,
,,,,,,,,,5f248b7b1bde03086270bd37,25,Kobieta,2022-05-28_09h19.05.248,task,2021.1.4,Win32,60.68329389,628b806c463b948bc644b84f,6291ccda5988a574f73ad6ff,,,,,,5,0,5,0,1,"X V Q F H G B L J M P D K C T S W R N Z
",,,,,,,,,,,,,,,,,,,,,,,,,,,,,,,,,,,,,,,,,,,,,,,,,,,,,,,,,,,,,,,,,,,,,,,,,,,,,,,,,,,,,,,,,,,,,
,,,,,,,,,5f248b7b1bde03086270bd37,25,Kobieta,2022-05-28_09h19.05.248,task,2021.1.4,Win32,60.68329389,628b806c463b948bc644b84f,6291ccda5988a574f73ad6ff,,,,,,6,0,6,0,1,"X V Q F H G B L J M P D K C T S W R N Z
",,,,,,,,,,,,,,,,,,,,,,,,,,,,,,,,,,,,,,,,,,,,,,,,,,,,,,,,,,,,,,,,,,,,,,,,,,,,,,,,,,,,,,,,,,,,,
,,,,,,,,,5f248b7b1bde03086270bd37,25,Kobieta,2022-05-28_09h19.05.248,task,2021.1.4,Win32,60.68329389,628b806c463b948bc644b84f,6291ccda5988a574f73ad6ff,,,,,,,,,,,,hkbhhgh,"[""h"",""k"",""b"",""h"",""h"",""g"",""h""]","[0.6703000000118777,0.9701000000089266,1.4229000000059386,1.719800000011901,1.8557000000029689,2.375800000011907,2.7197000000029448,3.1794000000059555]",1,HKBHHGH,12,0,12,0,1,,,,,,,,,,,,,,,,,,,,,,,,,,,,,,,,,,,,,,,,,,,,,,,,,,,,,,,,,,,,,,,,,,,,,,,,,,,,,,,,,,,
,,,,,,,,,5f248b7b1bde03086270bd37,25,Kobieta,2022-05-28_09h19.05.248,task,2021.1.4,Win32,60.68329389,628b806c463b948bc644b84f,6291ccda5988a574f73ad6ff,,,,,,0,0,0,0,1,"X V Q F H G B L J M P D K C T S W R N Z
",,,,,,,,,,,,,,,,,,,,,,,,,,,,,,,,,,,,,,,,,,,,,,,,,,,,,,,,,,,,,,,,,,,,,,,,,,,,,,,,,,,,,,,,,,,,,
,,,,,,,,,5f248b7b1bde03086270bd37,25,Kobieta,2022-05-28_09h19.05.248,task,2021.1.4,Win32,60.68329389,628b806c463b948bc644b84f,6291ccda5988a574f73ad6ff,,,,,,1,0,1,0,1,"X V Q F H G B L J M P D K C T S W R N Z
",,,,,,,,,,,,,,,,,,,,,,,,,,,,,,,,,,,,,,,,,,,,,,,,,,,,,,,,,,,,,,,,,,,,,,,,,,,,,,,,,,,,,,,,,,,,,
,,,,,,,,,5f248b7b1bde03086270bd37,25,Kobieta,2022-05-28_09h19.05.248,task,2021.1.4,Win32,60.68329389,628b806c463b948bc644b84f,6291ccda5988a574f73ad6ff,,,,,,2,0,2,0,1,"X V Q F H G B L J M P D K C T S W R N Z
",,,,,,,,,,,,,,,,,,,,,,,,,,,,,,,,,,,,,,,,,,,,,,,,,,,,,,,,,,,,,,,,,,,,,,,,,,,,,,,,,,,,,,,,,,,,,
,,,,,,,,,5f248b7b1bde03086270bd37,25,Kobieta,2022-05-28_09h19.05.248,task,2021.1.4,Win32,60.68329389,628b806c463b948bc644b84f,6291ccda5988a574f73ad6ff,,,,,,3,0,3,0,1,"X V Q F H G B L J M P D K C T S W R N Z
",,,,,,,,,,,,,,,,,,,,,,,,,,,,,,,,,,,,,,,,,,,,,,,,,,,,,,,,,,,,,,,,,,,,,,,,,,,,,,,,,,,,,,,,,,,,,
,,,,,,,,,5f248b7b1bde03086270bd37,25,Kobieta,2022-05-28_09h19.05.248,task,2021.1.4,Win32,60.68329389,628b806c463b948bc644b84f,6291ccda5988a574f73ad6ff,,,,,,4,0,4,0,1,"X V Q F H G B L J M P D K C T S W R N Z
",,,,,,,,,,,,,,,,,,,,,,,,,,,,,,,,,,,,,,,,,,,,,,,,,,,,,,,,,,,,,,,,,,,,,,,,,,,,,,,,,,,,,,,,,,,,,
,,,,,,,,,5f248b7b1bde03086270bd37,25,Kobieta,2022-05-28_09h19.05.248,task,2021.1.4,Win32,60.68329389,628b806c463b948bc644b84f,6291ccda5988a574f73ad6ff,,,,,,5,0,5,0,1,"X V Q F H G B L J M P D K C T S W R N Z
",,,,,,,,,,,,,,,,,,,,,,,,,,,,,,,,,,,,,,,,,,,,,,,,,,,,,,,,,,,,,,,,,,,,,,,,,,,,,,,,,,,,,,,,,,,,,
,,,,,,,,,5f248b7b1bde03086270bd37,25,Kobieta,2022-05-28_09h19.05.248,task,2021.1.4,Win32,60.68329389,628b806c463b948bc644b84f,6291ccda5988a574f73ad6ff,,,,,,6,0,6,0,1,"X V Q F H G B L J M P D K C T S W R N Z
",,,,,,,,,,,,,,,,,,,,,,,,,,,,,,,,,,,,,,,,,,,,,,,,,,,,,,,,,,,,,,,,,,,,,,,,,,,,,,,,,,,,,,,,,,,,,
,,,,,,,,,5f248b7b1bde03086270bd37,25,Kobieta,2022-05-28_09h19.05.248,task,2021.1.4,Win32,60.68329389,628b806c463b948bc644b84f,6291ccda5988a574f73ad6ff,,,,,,,,,,,,gjgspw,"[""g"",""j"",""g"",""s"",""p"",""w""]","[0.508799999997052,0.6768999999910648,0.9417000000029816,1.4803999999910502,1.9535000000000196,2.336599999994064,2.5482999999970275]",0,GJGSJPW,13,0,13,0,1,,,,,,,,,,,,,,,,,,,,,,,,,,,,,,,,,,,,,,,,,,,,,,,,,,,,,,,,,,,,,,,,,,,,,,,,,,,,,,,,,,,
,,,,,,,,,5f248b7b1bde03086270bd37,25,Kobieta,2022-05-28_09h19.05.248,task,2021.1.4,Win32,60.68329389,628b806c463b948bc644b84f,6291ccda5988a574f73ad6ff,,,,,,0,0,0,0,1,"X V Q F H G B L J M P D K C T S W R N Z
",,,,,,,,,,,,,,,,,,,,,,,,,,,,,,,,,,,,,,,,,,,,,,,,,,,,,,,,,,,,,,,,,,,,,,,,,,,,,,,,,,,,,,,,,,,,,
,,,,,,,,,5f248b7b1bde03086270bd37,25,Kobieta,2022-05-28_09h19.05.248,task,2021.1.4,Win32,60.68329389,628b806c463b948bc644b84f,6291ccda5988a574f73ad6ff,,,,,,1,0,1,0,1,"X V Q F H G B L J M P D K C T S W R N Z
",,,,,,,,,,,,,,,,,,,,,,,,,,,,,,,,,,,,,,,,,,,,,,,,,,,,,,,,,,,,,,,,,,,,,,,,,,,,,,,,,,,,,,,,,,,,,
,,,,,,,,,5f248b7b1bde03086270bd37,25,Kobieta,2022-05-28_09h19.05.248,task,2021.1.4,Win32,60.68329389,628b806c463b948bc644b84f,6291ccda5988a574f73ad6ff,,,,,,2,0,2,0,1,"X V Q F H G B L J M P D K C T S W R N Z
",,,,,,,,,,,,,,,,,,,,,,,,,,,,,,,,,,,,,,,,,,,,,,,,,,,,,,,,,,,,,,,,,,,,,,,,,,,,,,,,,,,,,,,,,,,,,
,,,,,,,,,5f248b7b1bde03086270bd37,25,Kobieta,2022-05-28_09h19.05.248,task,2021.1.4,Win32,60.68329389,628b806c463b948bc644b84f,6291ccda5988a574f73ad6ff,,,,,,3,0,3,0,1,"X V Q F H G B L J M P D K C T S W R N Z
",,,,,,,,,,,,,,,,,,,,,,,,,,,,,,,,,,,,,,,,,,,,,,,,,,,,,,,,,,,,,,,,,,,,,,,,,,,,,,,,,,,,,,,,,,,,,
,,,,,,,,,5f248b7b1bde03086270bd37,25,Kobieta,2022-05-28_09h19.05.248,task,2021.1.4,Win32,60.68329389,628b806c463b948bc644b84f,6291ccda5988a574f73ad6ff,,,,,,4,0,4,0,1,"X V Q F H G B L J M P D K C T S W R N Z
",,,,,,,,,,,,,,,,,,,,,,,,,,,,,,,,,,,,,,,,,,,,,,,,,,,,,,,,,,,,,,,,,,,,,,,,,,,,,,,,,,,,,,,,,,,,,
,,,,,,,,,5f248b7b1bde03086270bd37,25,Kobieta,2022-05-28_09h19.05.248,task,2021.1.4,Win32,60.68329389,628b806c463b948bc644b84f,6291ccda5988a574f73ad6ff,,,,,,5,0,5,0,1,"X V Q F H G B L J M P D K C T S W R N Z
",,,,,,,,,,,,,,,,,,,,,,,,,,,,,,,,,,,,,,,,,,,,,,,,,,,,,,,,,,,,,,,,,,,,,,,,,,,,,,,,,,,,,,,,,,,,,
,,,,,,,,,5f248b7b1bde03086270bd37,25,Kobieta,2022-05-28_09h19.05.248,task,2021.1.4,Win32,60.68329389,628b806c463b948bc644b84f,6291ccda5988a574f73ad6ff,,,,,,6,0,6,0,1,"X V Q F H G B L J M P D K C T S W R N Z
",,,,,,,,,,,,,,,,,,,,,,,,,,,,,,,,,,,,,,,,,,,,,,,,,,,,,,,,,,,,,,,,,,,,,,,,,,,,,,,,,,,,,,,,,,,,,
,,,,,,,,,5f248b7b1bde03086270bd37,25,Kobieta,2022-05-28_09h19.05.248,task,2021.1.4,Win32,60.68329389,628b806c463b948bc644b84f,6291ccda5988a574f73ad6ff,,,,,,,,,,,,qjsmxxr,"[""q"",""j"",""s"",""m"",""x"",""x"",""r""]","[0.5469000000059623,0.956299999997043,1.4302000000029693,1.6791000000089298,2.0162999999970452,2.1555000000000177,2.3899999999999864,2.567799999997021]",0,QJMSXXR,14,0,14,0,1,,,,,,,,,,,,,,,,,,,,,,,,,,,,,,,,,,,,,,,,,,,,,,,,,,,,,,,,,,,,,,,,,,,,,,,,,,,,,,,,,,,
,,,,,,,,,5f248b7b1bde03086270bd37,25,Kobieta,2022-05-28_09h19.05.248,task,2021.1.4,Win32,60.68329389,628b806c463b948bc644b84f,6291ccda5988a574f73ad6ff,,,,,,0,0,0,0,1,"X V Q F H G B L J M P D K C T S W R N Z
",,,,,,,,,,,,,,,,,,,,,,,,,,,,,,,,,,,,,,,,,,,,,,,,,,,,,,,,,,,,,,,,,,,,,,,,,,,,,,,,,,,,,,,,,,,,,
,,,,,,,,,5f248b7b1bde03086270bd37,25,Kobieta,2022-05-28_09h19.05.248,task,2021.1.4,Win32,60.68329389,628b806c463b948bc644b84f,6291ccda5988a574f73ad6ff,,,,,,1,0,1,0,1,"X V Q F H G B L J M P D K C T S W R N Z
",,,,,,,,,,,,,,,,,,,,,,,,,,,,,,,,,,,,,,,,,,,,,,,,,,,,,,,,,,,,,,,,,,,,,,,,,,,,,,,,,,,,,,,,,,,,,
,,,,,,,,,5f248b7b1bde03086270bd37,25,Kobieta,2022-05-28_09h19.05.248,task,2021.1.4,Win32,60.68329389,628b806c463b948bc644b84f,6291ccda5988a574f73ad6ff,,,,,,2,0,2,0,1,"X V Q F H G B L J M P D K C T S W R N Z
",,,,,,,,,,,,,,,,,,,,,,,,,,,,,,,,,,,,,,,,,,,,,,,,,,,,,,,,,,,,,,,,,,,,,,,,,,,,,,,,,,,,,,,,,,,,,
,,,,,,,,,5f248b7b1bde03086270bd37,25,Kobieta,2022-05-28_09h19.05.248,task,2021.1.4,Win32,60.68329389,628b806c463b948bc644b84f,6291ccda5988a574f73ad6ff,,,,,,3,0,3,0,1,"X V Q F H G B L J M P D K C T S W R N Z
",,,,,,,,,,,,,,,,,,,,,,,,,,,,,,,,,,,,,,,,,,,,,,,,,,,,,,,,,,,,,,,,,,,,,,,,,,,,,,,,,,,,,,,,,,,,,
,,,,,,,,,5f248b7b1bde03086270bd37,25,Kobieta,2022-05-28_09h19.05.248,task,2021.1.4,Win32,60.68329389,628b806c463b948bc644b84f,6291ccda5988a574f73ad6ff,,,,,,4,0,4,0,1,"X V Q F H G B L J M P D K C T S W R N Z
",,,,,,,,,,,,,,,,,,,,,,,,,,,,,,,,,,,,,,,,,,,,,,,,,,,,,,,,,,,,,,,,,,,,,,,,,,,,,,,,,,,,,,,,,,,,,
,,,,,,,,,5f248b7b1bde03086270bd37,25,Kobieta,2022-05-28_09h19.05.248,task,2021.1.4,Win32,60.68329389,628b806c463b948bc644b84f,6291ccda5988a574f73ad6ff,,,,,,5,0,5,0,1,"X V Q F H G B L J M P D K C T S W R N Z
",,,,,,,,,,,,,,,,,,,,,,,,,,,,,,,,,,,,,,,,,,,,,,,,,,,,,,,,,,,,,,,,,,,,,,,,,,,,,,,,,,,,,,,,,,,,,
,,,,,,,,,5f248b7b1bde03086270bd37,25,Kobieta,2022-05-28_09h19.05.248,task,2021.1.4,Win32,60.68329389,628b806c463b948bc644b84f,6291ccda5988a574f73ad6ff,,,,,,6,0,6,0,1,"X V Q F H G B L J M P D K C T S W R N Z
",,,,,,,,,,,,,,,,,,,,,,,,,,,,,,,,,,,,,,,,,,,,,,,,,,,,,,,,,,,,,,,,,,,,,,,,,,,,,,,,,,,,,,,,,,,,,
,,,,,,,,,5f248b7b1bde03086270bd37,25,Kobieta,2022-05-28_09h19.05.248,task,2021.1.4,Win32,60.68329389,628b806c463b948bc644b84f,6291ccda5988a574f73ad6ff,,,,,,,,,,,,khxbhxk,"[""k"",""h"",""x"",""b"",""h"",""x"",""k""]","[0.6532000000029825,1.3253999999910775,1.6872000000029743,2.430099999994013,3.0325999999940336,3.4205999999940673,3.7847999999970057,4.051299999997013]",1,KHXBHXK,15,0,15,0,1,,,,,,,,,,,,,,,,,,,,,,,,,,,,,,,,,,,,,,,,,,,,,,,,,,,,,,,,,,,,,,,,,,,,,,,,,,,,,,,,,,,
,,,,,,,,,5f248b7b1bde03086270bd37,25,Kobieta,2022-05-28_09h19.05.248,task,2021.1.4,Win32,60.68329389,628b806c463b948bc644b84f,6291ccda5988a574f73ad6ff,,,,,,0,0,0,0,1,"X V Q F H G B L J M P D K C T S W R N Z
",,,,,,,,,,,,,,,,,,,,,,,,,,,,,,,,,,,,,,,,,,,,,,,,,,,,,,,,,,,,,,,,,,,,,,,,,,,,,,,,,,,,,,,,,,,,,
,,,,,,,,,5f248b7b1bde03086270bd37,25,Kobieta,2022-05-28_09h19.05.248,task,2021.1.4,Win32,60.68329389,628b806c463b948bc644b84f,6291ccda5988a574f73ad6ff,,,,,,1,0,1,0,1,"X V Q F H G B L J M P D K C T S W R N Z
",,,,,,,,,,,,,,,,,,,,,,,,,,,,,,,,,,,,,,,,,,,,,,,,,,,,,,,,,,,,,,,,,,,,,,,,,,,,,,,,,,,,,,,,,,,,,
,,,,,,,,,5f248b7b1bde03086270bd37,25,Kobieta,2022-05-28_09h19.05.248,task,2021.1.4,Win32,60.68329389,628b806c463b948bc644b84f,6291ccda5988a574f73ad6ff,,,,,,2,0,2,0,1,"X V Q F H G B L J M P D K C T S W R N Z
",,,,,,,,,,,,,,,,,,,,,,,,,,,,,,,,,,,,,,,,,,,,,,,,,,,,,,,,,,,,,,,,,,,,,,,,,,,,,,,,,,,,,,,,,,,,,
,,,,,,,,,5f248b7b1bde03086270bd37,25,Kobieta,2022-05-28_09h19.05.248,task,2021.1.4,Win32,60.68329389,628b806c463b948bc644b84f,6291ccda5988a574f73ad6ff,,,,,,3,0,3,0,1,"X V Q F H G B L J M P D K C T S W R N Z
",,,,,,,,,,,,,,,,,,,,,,,,,,,,,,,,,,,,,,,,,,,,,,,,,,,,,,,,,,,,,,,,,,,,,,,,,,,,,,,,,,,,,,,,,,,,,
,,,,,,,,,5f248b7b1bde03086270bd37,25,Kobieta,2022-05-28_09h19.05.248,task,2021.1.4,Win32,60.68329389,628b806c463b948bc644b84f,6291ccda5988a574f73ad6ff,,,,,,4,0,4,0,1,"X V Q F H G B L J M P D K C T S W R N Z
",,,,,,,,,,,,,,,,,,,,,,,,,,,,,,,,,,,,,,,,,,,,,,,,,,,,,,,,,,,,,,,,,,,,,,,,,,,,,,,,,,,,,,,,,,,,,
,,,,,,,,,5f248b7b1bde03086270bd37,25,Kobieta,2022-05-28_09h19.05.248,task,2021.1.4,Win32,60.68329389,628b806c463b948bc644b84f,6291ccda5988a574f73ad6ff,,,,,,5,0,5,0,1,"X V Q F H G B L J M P D K C T S W R N Z
",,,,,,,,,,,,,,,,,,,,,,,,,,,,,,,,,,,,,,,,,,,,,,,,,,,,,,,,,,,,,,,,,,,,,,,,,,,,,,,,,,,,,,,,,,,,,
,,,,,,,,,5f248b7b1bde03086270bd37,25,Kobieta,2022-05-28_09h19.05.248,task,2021.1.4,Win32,60.68329389,628b806c463b948bc644b84f,6291ccda5988a574f73ad6ff,,,,,,6,0,6,0,1,"X V Q F H G B L J M P D K C T S W R N Z
",,,,,,,,,,,,,,,,,,,,,,,,,,,,,,,,,,,,,,,,,,,,,,,,,,,,,,,,,,,,,,,,,,,,,,,,,,,,,,,,,,,,,,,,,,,,,
,,,,,,,,,5f248b7b1bde03086270bd37,25,Kobieta,2022-05-28_09h19.05.248,task,2021.1.4,Win32,60.68329389,628b806c463b948bc644b84f,6291ccda5988a574f73ad6ff,,,,,,7,0,7,0,1,"X V Q F H G B L J M P D K C T S W R N Z
",,,,,,,,,,,,,,,,,,,,,,,,,,,,,,,,,,,,,,,,,,,,,,,,,,,,,,,,,,,,,,,,,,,,,,,,,,,,,,,,,,,,,,,,,,,,,
,,,,,,,,,5f248b7b1bde03086270bd37,25,Kobieta,2022-05-28_09h19.05.248,task,2021.1.4,Win32,60.68329389,628b806c463b948bc644b84f,6291ccda5988a574f73ad6ff,,,,,,,,,,,,fxjwjdq,"[""f"",""x"",""j"",""w"",""j"",""d"",""q""]","[0.4053999999910616,0.7235999999940645,1.7350000000000136,2.1405000000000314,2.5023999999910984,2.809000000000026,3.209299999997029,3.4207000000030234]",0,FXJWJDWQ,16,0,16,0,1,,,,,,,,,,,,,,,,,,,,,,,,,,,,,,,,,,,,,,,,,,,,,,,,,,,,,,,,,,,,,,,,,,,,,,,,,,,,,,,,,,,
,,,,,,,,,5f248b7b1bde03086270bd37,25,Kobieta,2022-05-28_09h19.05.248,task,2021.1.4,Win32,60.68329389,628b806c463b948bc644b84f,6291ccda5988a574f73ad6ff,,,,,,0,0,0,0,1,"X V Q F H G B L J M P D K C T S W R N Z
",,,,,,,,,,,,,,,,,,,,,,,,,,,,,,,,,,,,,,,,,,,,,,,,,,,,,,,,,,,,,,,,,,,,,,,,,,,,,,,,,,,,,,,,,,,,,
,,,,,,,,,5f248b7b1bde03086270bd37,25,Kobieta,2022-05-28_09h19.05.248,task,2021.1.4,Win32,60.68329389,628b806c463b948bc644b84f,6291ccda5988a574f73ad6ff,,,,,,1,0,1,0,1,"X V Q F H G B L J M P D K C T S W R N Z
",,,,,,,,,,,,,,,,,,,,,,,,,,,,,,,,,,,,,,,,,,,,,,,,,,,,,,,,,,,,,,,,,,,,,,,,,,,,,,,,,,,,,,,,,,,,,
,,,,,,,,,5f248b7b1bde03086270bd37,25,Kobieta,2022-05-28_09h19.05.248,task,2021.1.4,Win32,60.68329389,628b806c463b948bc644b84f,6291ccda5988a574f73ad6ff,,,,,,2,0,2,0,1,"X V Q F H G B L J M P D K C T S W R N Z
",,,,,,,,,,,,,,,,,,,,,,,,,,,,,,,,,,,,,,,,,,,,,,,,,,,,,,,,,,,,,,,,,,,,,,,,,,,,,,,,,,,,,,,,,,,,,
,,,,,,,,,5f248b7b1bde03086270bd37,25,Kobieta,2022-05-28_09h19.05.248,task,2021.1.4,Win32,60.68329389,628b806c463b948bc644b84f,6291ccda5988a574f73ad6ff,,,,,,3,0,3,0,1,"X V Q F H G B L J M P D K C T S W R N Z
",,,,,,,,,,,,,,,,,,,,,,,,,,,,,,,,,,,,,,,,,,,,,,,,,,,,,,,,,,,,,,,,,,,,,,,,,,,,,,,,,,,,,,,,,,,,,
,,,,,,,,,5f248b7b1bde03086270bd37,25,Kobieta,2022-05-28_09h19.05.248,task,2021.1.4,Win32,60.68329389,628b806c463b948bc644b84f,6291ccda5988a574f73ad6ff,,,,,,4,0,4,0,1,"X V Q F H G B L J M P D K C T S W R N Z
",,,,,,,,,,,,,,,,,,,,,,,,,,,,,,,,,,,,,,,,,,,,,,,,,,,,,,,,,,,,,,,,,,,,,,,,,,,,,,,,,,,,,,,,,,,,,
,,,,,,,,,5f248b7b1bde03086270bd37,25,Kobieta,2022-05-28_09h19.05.248,task,2021.1.4,Win32,60.68329389,628b806c463b948bc644b84f,6291ccda5988a574f73ad6ff,,,,,,5,0,5,0,1,"X V Q F H G B L J M P D K C T S W R N Z
",,,,,,,,,,,,,,,,,,,,,,,,,,,,,,,,,,,,,,,,,,,,,,,,,,,,,,,,,,,,,,,,,,,,,,,,,,,,,,,,,,,,,,,,,,,,,
,,,,,,,,,5f248b7b1bde03086270bd37,25,Kobieta,2022-05-28_09h19.05.248,task,2021.1.4,Win32,60.68329389,628b806c463b948bc644b84f,6291ccda5988a574f73ad6ff,,,,,,6,0,6,0,1,"X V Q F H G B L J M P D K C T S W R N Z
",,,,,,,,,,,,,,,,,,,,,,,,,,,,,,,,,,,,,,,,,,,,,,,,,,,,,,,,,,,,,,,,,,,,,,,,,,,,,,,,,,,,,,,,,,,,,
,,,,,,,,,5f248b7b1bde03086270bd37,25,Kobieta,2022-05-28_09h19.05.248,task,2021.1.4,Win32,60.68329389,628b806c463b948bc644b84f,6291ccda5988a574f73ad6ff,,,,,,7,0,7,0,1,"X V Q F H G B L J M P D K C T S W R N Z
",,,,,,,,,,,,,,,,,,,,,,,,,,,,,,,,,,,,,,,,,,,,,,,,,,,,,,,,,,,,,,,,,,,,,,,,,,,,,,,,,,,,,,,,,,,,,
,,,,,,,,,5f248b7b1bde03086270bd37,25,Kobieta,2022-05-28_09h19.05.248,task,2021.1.4,Win32,60.68329389,628b806c463b948bc644b84f,6291ccda5988a574f73ad6ff,,,,,,,,,,,,tztqjkv,"[""t"",""z"",""t"",""q"",""j"",""k"",""v""]","[0.4422000000030266,0.6273000000119282,1.2900000000000773,2.1777000000030284,2.7525000000000546,2.9352000000029648,3.753500000000031,4.147400000005973]",0,"TZ
DQKVJV",17,0,17,0,1,,,,,,,,,,,,,,,,,,,,,,,,,,,,,,,,,,,,,,,,,,,,,,,,,,,,,,,,,,,,,,,,,,,,,,,,,,,,,,,,,,,
,,,,,,,,,5f248b7b1bde03086270bd37,25,Kobieta,2022-05-28_09h19.05.248,task,2021.1.4,Win32,60.68329389,628b806c463b948bc644b84f,6291ccda5988a574f73ad6ff,,,,,,0,0,0,0,1,"X V Q F H G B L J M P D K C T S W R N Z
",,,,,,,,,,,,,,,,,,,,,,,,,,,,,,,,,,,,,,,,,,,,,,,,,,,,,,,,,,,,,,,,,,,,,,,,,,,,,,,,,,,,,,,,,,,,,
,,,,,,,,,5f248b7b1bde03086270bd37,25,Kobieta,2022-05-28_09h19.05.248,task,2021.1.4,Win32,60.68329389,628b806c463b948bc644b84f,6291ccda5988a574f73ad6ff,,,,,,1,0,1,0,1,"X V Q F H G B L J M P D K C T S W R N Z
",,,,,,,,,,,,,,,,,,,,,,,,,,,,,,,,,,,,,,,,,,,,,,,,,,,,,,,,,,,,,,,,,,,,,,,,,,,,,,,,,,,,,,,,,,,,,
,,,,,,,,,5f248b7b1bde03086270bd37,25,Kobieta,2022-05-28_09h19.05.248,task,2021.1.4,Win32,60.68329389,628b806c463b948bc644b84f,6291ccda5988a574f73ad6ff,,,,,,2,0,2,0,1,"X V Q F H G B L J M P D K C T S W R N Z
",,,,,,,,,,,,,,,,,,,,,,,,,,,,,,,,,,,,,,,,,,,,,,,,,,,,,,,,,,,,,,,,,,,,,,,,,,,,,,,,,,,,,,,,,,,,,
,,,,,,,,,5f248b7b1bde03086270bd37,25,Kobieta,2022-05-28_09h19.05.248,task,2021.1.4,Win32,60.68329389,628b806c463b948bc644b84f,6291ccda5988a574f73ad6ff,,,,,,3,0,3,0,1,"X V Q F H G B L J M P D K C T S W R N Z
",,,,,,,,,,,,,,,,,,,,,,,,,,,,,,,,,,,,,,,,,,,,,,,,,,,,,,,,,,,,,,,,,,,,,,,,,,,,,,,,,,,,,,,,,,,,,
,,,,,,,,,5f248b7b1bde03086270bd37,25,Kobieta,2022-05-28_09h19.05.248,task,2021.1.4,Win32,60.68329389,628b806c463b948bc644b84f,6291ccda5988a574f73ad6ff,,,,,,4,0,4,0,1,"X V Q F H G B L J M P D K C T S W R N Z
",,,,,,,,,,,,,,,,,,,,,,,,,,,,,,,,,,,,,,,,,,,,,,,,,,,,,,,,,,,,,,,,,,,,,,,,,,,,,,,,,,,,,,,,,,,,,
,,,,,,,,,5f248b7b1bde03086270bd37,25,Kobieta,2022-05-28_09h19.05.248,task,2021.1.4,Win32,60.68329389,628b806c463b948bc644b84f,6291ccda5988a574f73ad6ff,,,,,,5,0,5,0,1,"X V Q F H G B L J M P D K C T S W R N Z
",,,,,,,,,,,,,,,,,,,,,,,,,,,,,,,,,,,,,,,,,,,,,,,,,,,,,,,,,,,,,,,,,,,,,,,,,,,,,,,,,,,,,,,,,,,,,
,,,,,,,,,5f248b7b1bde03086270bd37,25,Kobieta,2022-05-28_09h19.05.248,task,2021.1.4,Win32,60.68329389,628b806c463b948bc644b84f,6291ccda5988a574f73ad6ff,,,,,,6,0,6,0,1,"X V Q F H G B L J M P D K C T S W R N Z
",,,,,,,,,,,,,,,,,,,,,,,,,,,,,,,,,,,,,,,,,,,,,,,,,,,,,,,,,,,,,,,,,,,,,,,,,,,,,,,,,,,,,,,,,,,,,
,,,,,,,,,5f248b7b1bde03086270bd37,25,Kobieta,2022-05-28_09h19.05.248,task,2021.1.4,Win32,60.68329389,628b806c463b948bc644b84f,6291ccda5988a574f73ad6ff,,,,,,7,0,7,0,1,"X V Q F H G B L J M P D K C T S W R N Z
",,,,,,,,,,,,,,,,,,,,,,,,,,,,,,,,,,,,,,,,,,,,,,,,,,,,,,,,,,,,,,,,,,,,,,,,,,,,,,,,,,,,,,,,,,,,,
,,,,,,,,,5f248b7b1bde03086270bd37,25,Kobieta,2022-05-28_09h19.05.248,task,2021.1.4,Win32,60.68329389,628b806c463b948bc644b84f,6291ccda5988a574f73ad6ff,,,,,,,,,,,,gzlcwmmk,"[""g"",""z"",""l"",""c"",""w"",""m"",""m"",""k""]","[1.0286999999881346,1.516199999988089,1.8612999999970725,2.3079999999999927,2.5081999999881646,2.859699999988152,3.0534999999999854,4.706000000000017,4.930899999991084]",0,"GZ
LCWMMH",18,0,18,0,1,,,,,,,,,,,,,,,,,,,,,,,,,,,,,,,,,,,,,,,,,,,,,,,,,,,,,,,,,,,,,,,,,,,,,,,,,,,,,,,,,,,
,,,,,,,,,5f248b7b1bde03086270bd37,25,Kobieta,2022-05-28_09h19.05.248,task,2021.1.4,Win32,60.68329389,628b806c463b948bc644b84f,6291ccda5988a574f73ad6ff,,,,,,,,,,,,,,,,,,,,,,space,16.312,8,"[""8""]",1,[2.442299999996976],[2.442299999996976],0,0,0,8,1,Practice,9,(3x3) - 1,8,,,,,,,,,,,,,,,,,,,,,,,,,,,,,,,,,,,,,,,,,,,,,,,,,,,,,,,,,,,,,,,,,,,
,,,,,,,,,5f248b7b1bde03086270bd37,25,Kobieta,2022-05-28_09h19.05.248,task,2021.1.4,Win32,60.68329389,628b806c463b948bc644b84f,6291ccda5988a574f73ad6ff,,,,,,,,,,,,,,,,,,,,,,,,6,"[""6""]",1,[4.4569000000059305],"[2.442299999996976,4.4569000000059305]",0,1,1,6,1,Practice,7,(25/5) + 1,6,,,,,,,,,,,,,,,,,,,,,,,,,,,,,,,,,,,,,,,,,,,,,,,,,,,,,,,,,,,,,,,,,,,
,,,,,,,,,5f248b7b1bde03086270bd37,25,Kobieta,2022-05-28_09h19.05.248,task,2021.1.4,Win32,60.68329389,628b806c463b948bc644b84f,6291ccda5988a574f73ad6ff,,,,,,,,,,,,,,,,,,,,,,,,2,"[""2""]",1,[2.4395000000000664],"[2.442299999996976,4.4569000000059305,2.4395000000000664]",0,2,2,2,1,Practice,3,(4x4) - 14,2,,,,,,,,,,,,,,,,,,,,,,,,,,,,,,,,,,,,,,,,,,,,,,,,,,,,,,,,,,,,,,,,,,,
,,,,,,,,,5f248b7b1bde03086270bd37,25,Kobieta,2022-05-28_09h19.05.248,task,2021.1.4,Win32,60.68329389,628b806c463b948bc644b84f,6291ccda5988a574f73ad6ff,,,,,,,,,,,,,,,,,,,,,,,,3,"[""3""]",1,[1.689299999997047],"[2.442299999996976,4.4569000000059305,2.4395000000000664,1.689299999997047]",0,3,3,3,1,Practice,4,(8/4) + 1,3,,,,,,,,,,,,,,,,,,,,,,,,,,,,,,,,,,,,,,,,,,,,,,,,,,,,,,,,,,,,,,,,,,,
,,,,,,,,,5f248b7b1bde03086270bd37,25,Kobieta,2022-05-28_09h19.05.248,task,2021.1.4,Win32,60.68329389,628b806c463b948bc644b84f,6291ccda5988a574f73ad6ff,,,,,,,,,,,,,,,,,,,,,,,,9,"[""9""]",1,[2.024399999991033],"[2.442299999996976,4.4569000000059305,2.4395000000000664,1.689299999997047,2.024399999991033]",0,4,4,9,1,Practice,10,(20/2) - 1,9,,,,,,,,,,,,,,,,,,,,,,,,,,,,,,,,,,,,,,,,,,,,,,,,,,,,,,,,,,,,,,,,,,,
,,,,,,,,,5f248b7b1bde03086270bd37,25,Kobieta,2022-05-28_09h19.05.248,task,2021.1.4,Win32,60.68329389,628b806c463b948bc644b84f,6291ccda5988a574f73ad6ff,,,,,,,,,,,,,,,,,,,,,,,,1,"[""1""]",1,[2.3435000000000628],"[2.442299999996976,4.4569000000059305,2.4395000000000664,1.689299999997047,2.024399999991033,2.3435000000000628]",0,5,5,1,1,Practice,2,(4x4) - 15,1,,,,,,,,,,,,,,,,,,,,,,,,,,,,,,,,,,,,,,,,,,,,,,,,,,,,,,,,,,,,,,,,,,,
,,,,,,,,,5f248b7b1bde03086270bd37,25,Kobieta,2022-05-28_09h19.05.248,task,2021.1.4,Win32,60.68329389,628b806c463b948bc644b84f,6291ccda5988a574f73ad6ff,,,,,,,,,,,,,,,,,,,,,,,,5,"[""5""]",1,[2.49069999998801],"[2.442299999996976,4.4569000000059305,2.4395000000000664,1.689299999997047,2.024399999991033,2.3435000000000628,2.49069999998801]",0,6,6,5,1,Practice,6,(4/2) + 3,5,,,,,,,,,,,,,,,,,,,,,,,,,,,,,,,,,,,,,,,,,,,,,,,,,,,,,,,,,,,,,,,,,,,
,,,,,,,,,5f248b7b1bde03086270bd37,25,Kobieta,2022-05-28_09h19.05.248,task,2021.1.4,Win32,60.68329389,628b806c463b948bc644b84f,6291ccda5988a574f73ad6ff,,,,,,,,,,,,,,,,,,,,,,,,4,"[""4""]",1,[2.8899999999999864],"[2.442299999996976,4.4569000000059305,2.4395000000000664,1.689299999997047,2.024399999991033,2.3435000000000628,2.49069999998801,2.8899999999999864]",0,7,7,4,1,Practice,5,(2x6) - 8,4,,,,,,,,,,,,,,,,,,,,,,,,,,,,,,,,,,,,,,,,,,,,,,,,,,,,,,,,,,,,,,,,,,,
,,,,,,,,,5f248b7b1bde03086270bd37,25,Kobieta,2022-05-28_09h19.05.248,task,2021.1.4,Win32,60.68329389,628b806c463b948bc644b84f,6291ccda5988a574f73ad6ff,,,,,,,,,,,,,,,,,,,,,,,,7,"[""7""]",1,[3.340900000005945],"[2.442299999996976,4.4569000000059305,2.4395000000000664,1.689299999997047,2.024399999991033,2.3435000000000628,2.49069999998801,2.8899999999999864,3.340900000005945]",0,8,8,7,1,Practice,8,(5x5) - 18,7,,,,,,,,,,,,,,,,,,,,,,,,,,,,,,,,,,,,,,,,,,,,,,,,,,,,,,,,,,,,,,,,,,,
,,,,,,,,,5f248b7b1bde03086270bd37,25,Kobieta,2022-05-28_09h19.05.248,task,2021.1.4,Win32,60.68329389,628b806c463b948bc644b84f,6291ccda5988a574f73ad6ff,,,,,,,,,,,,,,,,,,,,,,,,0,"[""0""]",1,[1.6407000000028802],"[2.442299999996976,4.4569000000059305,2.4395000000000664,1.689299999997047,2.024399999991033,2.3435000000000628,2.49069999998801,2.8899999999999864,3.340900000005945,1.6407000000028802]",0,9,9,0,1,Practice,1,(3x3) -  9,0,,,,,,,,,,,,,,,,,,,,,,,,,,,,,,,,,,,,,,,,,,,,,,,,,,,,,,,,,,,,,,,,,,,
,,,,,,,,,5f248b7b1bde03086270bd37,25,Kobieta,2022-05-28_09h19.05.248,task,2021.1.4,Win32,60.68329389,628b806c463b948bc644b84f,6291ccda5988a574f73ad6ff,,,,,,,,,,,,,,,,,,,,,,,,,,,,,,,,,,,,,,1,25.7582,1.717213333,13.6566324,0.954170928,4.178974327,space,0.9921,0,0,0,0,1,,,,,,,,,,,,,,,,,,,,,,,,,,,,,,,,,,,,,,,,,,,,,,,,,,,,,,
,,,,,,,,,5f248b7b1bde03086270bd37,25,Kobieta,2022-05-28_09h19.05.248,task,2021.1.4,Win32,60.68329389,628b806c463b948bc644b84f,6291ccda5988a574f73ad6ff,,,,,,,,,,,,,,,,,,,,,,,,4,,,,,,,,,,Practice,5,(2x6) - 8,4,,,,,,,,,,,,,,space,7.9275,"[""4""]",1,[2.3879000000059705],1,0,0,0,4,1,,,,,,,,,,,,,,,,,,,,,,,,,,,,,,,,,,,,,,,,,,,
,,,,,,,,,5f248b7b1bde03086270bd37,25,Kobieta,2022-05-28_09h19.05.248,task,2021.1.4,Win32,60.68329389,628b806c463b948bc644b84f,6291ccda5988a574f73ad6ff,,,,,,,,,,,"X V Q F H G B L J M P D K C T S W R N Z
",,,,,,,,,,,,,,,,,,,,,,,,,,,,,,,,,,,,,,,,,,,,,,,,,,,0,0,0,0,1,,,,,,,,,,,,,,,,,,,,,,,,,,,,,,,,,,,,,,
,,,,,,,,,5f248b7b1bde03086270bd37,25,Kobieta,2022-05-28_09h19.05.248,task,2021.1.4,Win32,60.68329389,628b806c463b948bc644b84f,6291ccda5988a574f73ad6ff,,,,,,,,,,,,,,,,,,,,,,,,3,,,,,,,,,,Practice,4,(8/4) + 1,3,,,,,,,,,,,,,,,,"[""3""]",1,[1.9885999999941077],1,0,0,0,3,1,,,,,,,,,,,,,,,,,,,,,,,,,,,,,,,,,,,,,,,,,,,
,,,,,,,,,5f248b7b1bde03086270bd37,25,Kobieta,2022-05-28_09h19.05.248,task,2021.1.4,Win32,60.68329389,628b806c463b948bc644b84f,6291ccda5988a574f73ad6ff,,,,,,,,,,,"X V Q F H G B L J M P D K C T S W R N Z
",,,,,,,,,,,,,,,,,,,,,,,,,,,,,,,,,,,,,,,,,,,,,,,,,,,1,0,1,0,1,,,,,,,,,,,,,,,,,,,,,,,,,,,,,,,,,,,,,,
,,,,,,,,,5f248b7b1bde03086270bd37,25,Kobieta,2022-05-28_09h19.05.248,task,2021.1.4,Win32,60.68329389,628b806c463b948bc644b84f,6291ccda5988a574f73ad6ff,,,,,,,,,,,,,,,,,,,,,,,,,,,,,,,,,,,,,,,,,,,,,,,,,,,,,,,,,,,,,,,,,,,zg,"[""z"",""g""]",0,"[1.8692000000029338,2.11189999999101,2.4765999999940504]",1,0,0,0,0,1,,,,,,,,,,,,,,,,,,,,,,,,,,,,
,,,,,,,,,5f248b7b1bde03086270bd37,25,Kobieta,2022-05-28_09h19.05.248,task,2021.1.4,Win32,60.68329389,628b806c463b948bc644b84f,6291ccda5988a574f73ad6ff,,,,,,,,,,,,,,,,,,,,,,,,8,,,,,,,,,,Practice,9,(3x3) - 1,8,,,,,,,,,,,,,,,,"[""8""]",1,[2.43839999999102],1,0,0,0,8,1,,,,,,,,,,,,,,,,,,,,,,,,,,,,,,,,,,,,,,,,,,,
,,,,,,,,,5f248b7b1bde03086270bd37,25,Kobieta,2022-05-28_09h19.05.248,task,2021.1.4,Win32,60.68329389,628b806c463b948bc644b84f,6291ccda5988a574f73ad6ff,,,,,,,,,,,"X V Q F H G B L J M P D K C T S W R N Z
",,,,,,,,,,,,,,,,,,,,,,,,,,,,,,,,,,,,,,,,,,,,,,,,,,,0,0,0,0,1,,,,,,,,,,,,,,,,,,,,,,,,,,,,,,,,,,,,,,
,,,,,,,,,5f248b7b1bde03086270bd37,25,Kobieta,2022-05-28_09h19.05.248,task,2021.1.4,Win32,60.68329389,628b806c463b948bc644b84f,6291ccda5988a574f73ad6ff,,,,,,,,,,,,,,,,,,,,,,,,3,,,,,,,,,,Practice,4,(8/4) + 1,3,,,,,,,,,,,,,,,,"[""3""]",1,[3.3563999999910266],1,0,0,0,3,1,,,,,,,,,,,,,,,,,,,,,,,,,,,,,,,,,,,,,,,,,,,
,,,,,,,,,5f248b7b1bde03086270bd37,25,Kobieta,2022-05-28_09h19.05.248,task,2021.1.4,Win32,60.68329389,628b806c463b948bc644b84f,6291ccda5988a574f73ad6ff,,,,,,,,,,,"X V Q F H G B L J M P D K C T S W R N Z
",,,,,,,,,,,,,,,,,,,,,,,,,,,,,,,,,,,,,,,,,,,,,,,,,,,1,0,1,0,1,,,,,,,,,,,,,,,,,,,,,,,,,,,,,,,,,,,,,,
,,,,,,,,,5f248b7b1bde03086270bd37,25,Kobieta,2022-05-28_09h19.05.248,task,2021.1.4,Win32,60.68329389,628b806c463b948bc644b84f,6291ccda5988a574f73ad6ff,,,,,,,,,,,,,,,,,,,,,,,,,,,,,,,,,,,,,,,,,,,,,,,,,,,,,,,,,,,,,,,,,,,bb,"[""b"",""b""]",0,"[2.044600000008927,2.175299999997037,2.536799999997015]",1,1,0,1,0,1,,,,,,,,,,,,,,,,,,,,,,,,,,,,
,,,,,,,,,5f248b7b1bde03086270bd37,25,Kobieta,2022-05-28_09h19.05.248,task,2021.1.4,Win32,60.68329389,628b806c463b948bc644b84f,6291ccda5988a574f73ad6ff,,,,,,,,,,,,,,,,,,,,,,,,8,,,,,,,,,,Practice,9,(3x3) - 1,8,,,,,,,,,,,,,,,,"[""8""]",1,[2.38900000000001],1,0,0,0,8,1,,,,,,,,,,,,,,,,,,,,,,,,,,,,,,,,,,,,,,,,,,,
,,,,,,,,,5f248b7b1bde03086270bd37,25,Kobieta,2022-05-28_09h19.05.248,task,2021.1.4,Win32,60.68329389,628b806c463b948bc644b84f,6291ccda5988a574f73ad6ff,,,,,,,,,,,"X V Q F H G B L J M P D K C T S W R N Z
",,,,,,,,,,,,,,,,,,,,,,,,,,,,,,,,,,,,,,,,,,,,,,,,,,,0,0,0,0,1,,,,,,,,,,,,,,,,,,,,,,,,,,,,,,,,,,,,,,
,,,,,,,,,5f248b7b1bde03086270bd37,25,Kobieta,2022-05-28_09h19.05.248,task,2021.1.4,Win32,60.68329389,628b806c463b948bc644b84f,6291ccda5988a574f73ad6ff,,,,,,,,,,,,,,,,,,,,,,,,8,,,,,,,,,,Practice,9,(3x3) - 1,8,,,,,,,,,,,,,,,,"[""8""]",1,[1.9075000000000273],1,0,0,0,8,1,,,,,,,,,,,,,,,,,,,,,,,,,,,,,,,,,,,,,,,,,,,
,,,,,,,,,5f248b7b1bde03086270bd37,25,Kobieta,2022-05-28_09h19.05.248,task,2021.1.4,Win32,60.68329389,628b806c463b948bc644b84f,6291ccda5988a574f73ad6ff,,,,,,,,,,,"X V Q F H G B L J M P D K C T S W R N Z
",,,,,,,,,,,,,,,,,,,,,,,,,,,,,,,,,,,,,,,,,,,,,,,,,,,1,0,1,0,1,,,,,,,,,,,,,,,,,,,,,,,,,,,,,,,,,,,,,,
,,,,,,,,,5f248b7b1bde03086270bd37,25,Kobieta,2022-05-28_09h19.05.248,task,2021.1.4,Win32,60.68329389,628b806c463b948bc644b84f,6291ccda5988a574f73ad6ff,,,,,,,,,,,,,,,,,,,,,,,,,,,,,,,,,,,,,,,,,,,,,,,,,,,,,,,,,,,,,,,,,,,st,"[""s"",""t""]",0,"[1.7442000000029338,1.9108000000119318,2.254000000000019]",1,2,0,2,0,1,,,,,,,,,,,,,,,,,,,,,,,,,,,,
,,,,,,,,,5f248b7b1bde03086270bd37,25,Kobieta,2022-05-28_09h19.05.248,task,2021.1.4,Win32,60.68329389,628b806c463b948bc644b84f,6291ccda5988a574f73ad6ff,,,,,,,,,,,,,,,,,,,,,,,,7,,,,,,,,,,Task,31,(4/2) + 5,7,,,,,,,,,,,,,,,,,,,1,,,,,,,,,,,,,,,,,,,,,space,9.1598,"[""7""]",1,[2.554200000002993],0,0,0,30,1,,,,,,,,,,,,,,,,,,
,,,,,,,,,5f248b7b1bde03086270bd37,25,Kobieta,2022-05-28_09h19.05.248,task,2021.1.4,Win32,60.68329389,628b806c463b948bc644b84f,6291ccda5988a574f73ad6ff,,,,,,,,,,,"X V Q F H G B L J M P D K C T S W R N Z
",,,,,,,,,,,,,,,,,,,,,,,,,,,,,,,,,,,,,,,,,,,,,,,,,,,,,,,,,,,,,,,,,,,,,,,,,,,,0,0,0,0,1,,,,,,,,,,,,,
,,,,,,,,,5f248b7b1bde03086270bd37,25,Kobieta,2022-05-28_09h19.05.248,task,2021.1.4,Win32,60.68329389,628b806c463b948bc644b84f,6291ccda5988a574f73ad6ff,,,,,,,,,,,,,,,,,,,,,,,,,,,,,,,,,,Task,15,(3x7) - 13,8,,,,,,,,,,,,,,,,,,,0,,,,,,,,,,,,,,,,,,,,,,,,0,,0,0,0,14,1,,,,,,,,,,,,,,,,,,
,,,,,,,,,5f248b7b1bde03086270bd37,25,Kobieta,2022-05-28_09h19.05.248,task,2021.1.4,Win32,60.68329389,628b806c463b948bc644b84f,6291ccda5988a574f73ad6ff,,,,,,,,,,,,,,,,,,,,,,,,0,,,,,,,,,,Task,8,(1x5) - 5,0,,,,,,,,,,,,,,,,,,,1,,,,,,,,,,,,,,,,,,,,,,,"[""0""]",1,[2.50560000000894],0,1,1,7,1,,,,,,,,,,,,,,,,,,
,,,,,,,,,5f248b7b1bde03086270bd37,25,Kobieta,2022-05-28_09h19.05.248,task,2021.1.4,Win32,60.68329389,628b806c463b948bc644b84f,6291ccda5988a574f73ad6ff,,,,,,,,,,,"X V Q F H G B L J M P D K C T S W R N Z
",,,,,,,,,,,,,,,,,,,,,,,,,,,,,,,,,,,,,,,,,,,,,,,,,,,,,,,,,,,,,,,,,,,,,,,,,,,,1,0,1,0,1,,,,,,,,,,,,,
,,,,,,,,,5f248b7b1bde03086270bd37,25,Kobieta,2022-05-28_09h19.05.248,task,2021.1.4,Win32,60.68329389,628b806c463b948bc644b84f,6291ccda5988a574f73ad6ff,,,,,,,,,,,,,,,,,,,,,,,,,,,,,,,,,,,,,,,,,,,,,,,,,,,,,,,,,,,,,,,,,,,,,,,,,,,,,,,,,,,,,,,,,,,,zc,"[""z"",""c""]",0,"[1.8787999999971134,2.008299999997007,2.352799999997046]",1,ZC,0,0,0,0,1,,
,,,,,,,,,5f248b7b1bde03086270bd37,25,Kobieta,2022-05-28_09h19.05.248,task,2021.1.4,Win32,60.68329389,628b806c463b948bc644b84f,6291ccda5988a574f73ad6ff,,,,,,,,,,,,,,,,,,,,,,,,1,,,,,,,,,,Task,15,(3x7) - 13,8,,,,,,,,,,,,,,,,,,,0,,,,,,,,,,,,,,,,,,,,,,,"[""1""]",0,[2.473799999997027],0,0,0,14,1,,,,,,,,,,,,,,,,,,
,,,,,,,,,5f248b7b1bde03086270bd37,25,Kobieta,2022-05-28_09h19.05.248,task,2021.1.4,Win32,60.68329389,628b806c463b948bc644b84f,6291ccda5988a574f73ad6ff,,,,,,,,,,,,,,,,,,,,,,,,4,,,,,,,,,,Task,28,(2x5) - 6,4,,,,,,,,,,,,,,,,,,,1,,,,,,,,,,,,,,,,,,,,,,,"[""4""]",1,[2.3722999999970398],0,1,1,27,1,,,,,,,,,,,,,,,,,,
,,,,,,,,,5f248b7b1bde03086270bd37,25,Kobieta,2022-05-28_09h19.05.248,task,2021.1.4,Win32,60.68329389,628b806c463b948bc644b84f,6291ccda5988a574f73ad6ff,,,,,,,,,,,"X V Q F H G B L J M P D K C T S W R N Z
",,,,,,,,,,,,,,,,,,,,,,,,,,,,,,,,,,,,,,,,,,,,,,,,,,,,,,,,,,,,,,,,,,,,,,,,,,,,0,0,0,0,1,,,,,,,,,,,,,
,,,,,,,,,5f248b7b1bde03086270bd37,25,Kobieta,2022-05-28_09h19.05.248,task,2021.1.4,Win32,60.68329389,628b806c463b948bc644b84f,6291ccda5988a574f73ad6ff,,,,,,,,,,,,,,,,,,,,,,,,1,,,,,,,,,,Task,1,(12/6) - 1,1,,,,,,,,,,,,,,,,,,,1,,,,,,,,,,,,,,,,,,,,,,,"[""1""]",1,[2.1720000000000255],0,0,0,0,1,,,,,,,,,,,,,,,,,,
,,,,,,,,,5f248b7b1bde03086270bd37,25,Kobieta,2022-05-28_09h19.05.248,task,2021.1.4,Win32,60.68329389,628b806c463b948bc644b84f,6291ccda5988a574f73ad6ff,,,,,,,,,,,"X V Q F H G B L J M P D K C T S W R N Z
",,,,,,,,,,,,,,,,,,,,,,,,,,,,,,,,,,,,,,,,,,,,,,,,,,,,,,,,,,,,,,,,,,,,,,,,,,,,1,0,1,0,1,,,,,,,,,,,,,
,,,,,,,,,5f248b7b1bde03086270bd37,25,Kobieta,2022-05-28_09h19.05.248,task,2021.1.4,Win32,60.68329389,628b806c463b948bc644b84f,6291ccda5988a574f73ad6ff,,,,,,,,,,,,,,,,,,,,,,,,9,,,,,,,,,,Task,31,(4/2) + 5,7,,,,,,,,,,,,,,,,,,,0,,,,,,,,,,,,,,,,,,,,,,,"[""9""]",0,[2.5239000000059377],0,0,0,30,1,,,,,,,,,,,,,,,,,,
,,,,,,,,,5f248b7b1bde03086270bd37,25,Kobieta,2022-05-28_09h19.05.248,task,2021.1.4,Win32,60.68329389,628b806c463b948bc644b84f,6291ccda5988a574f73ad6ff,,,,,,,,,,,,,,,,,,,,,,,,2,,,,,,,,,,Task,19,(6/2) - 1,2,,,,,,,,,,,,,,,,,,,1,,,,,,,,,,,,,,,,,,,,,,,"[""2""]",1,[2.340799999996989],0,1,1,18,1,,,,,,,,,,,,,,,,,,
,,,,,,,,,5f248b7b1bde03086270bd37,25,Kobieta,2022-05-28_09h19.05.248,task,2021.1.4,Win32,60.68329389,628b806c463b948bc644b84f,6291ccda5988a574f73ad6ff,,,,,,,,,,,"X V Q F H G B L J M P D K C T S W R N Z
",,,,,,,,,,,,,,,,,,,,,,,,,,,,,,,,,,,,,,,,,,,,,,,,,,,,,,,,,,,,,,,,,,,,,,,,,,,,2,0,2,0,1,,,,,,,,,,,,,
,,,,,,,,,5f248b7b1bde03086270bd37,25,Kobieta,2022-05-28_09h19.05.248,task,2021.1.4,Win32,60.68329389,628b806c463b948bc644b84f,6291ccda5988a574f73ad6ff,,,,,,,,,,,,,,,,,,,,,,,,,,,,,,,,,,,,,,,,,,,,,,,,,,,,,,,,,,,,,,,,,,,,,,,,,,,,,,,,,,,,,,,,,,,,qxd,"[""q"",""x"",""d""]",0,"[2.052500000000009,2.980700000002912,3.1340000000000146,4.169599999994034]",1,QXD,1,0,1,0,1,,
,,,,,,,,,5f248b7b1bde03086270bd37,25,Kobieta,2022-05-28_09h19.05.248,task,2021.1.4,Win32,60.68329389,628b806c463b948bc644b84f,6291ccda5988a574f73ad6ff,,,,,,,,,,,,,,,,,,,,,,,,1,,,,,,,,,,Task,18,(16/4) - 3,1,,,,,,,,,,,,,,,,,,,1,,,,,,,,,,,,,,,,,,,,,,,"[""1""]",1,[2.4889000000059696],0,0,0,17,1,,,,,,,,,,,,,,,,,,
,,,,,,,,,5f248b7b1bde03086270bd37,25,Kobieta,2022-05-28_09h19.05.248,task,2021.1.4,Win32,60.68329389,628b806c463b948bc644b84f,6291ccda5988a574f73ad6ff,,,,,,,,,,,"X V Q F H G B L J M P D K C T S W R N Z
",,,,,,,,,,,,,,,,,,,,,,,,,,,,,,,,,,,,,,,,,,,,,,,,,,,,,,,,,,,,,,,,,,,,,,,,,,,,0,0,0,0,1,,,,,,,,,,,,,
,,,,,,,,,5f248b7b1bde03086270bd37,25,Kobieta,2022-05-28_09h19.05.248,task,2021.1.4,Win32,60.68329389,628b806c463b948bc644b84f,6291ccda5988a574f73ad6ff,,,,,,,,,,,,,,,,,,,,,,,,0,,,,,,,,,,Task,8,(1x5) - 5,0,,,,,,,,,,,,,,,,,,,1,,,,,,,,,,,,,,,,,,,,,,,"[""0""]",1,[1.6399000000059232],0,0,0,7,1,,,,,,,,,,,,,,,,,,
,,,,,,,,,5f248b7b1bde03086270bd37,25,Kobieta,2022-05-28_09h19.05.248,task,2021.1.4,Win32,60.68329389,628b806c463b948bc644b84f,6291ccda5988a574f73ad6ff,,,,,,,,,,,"X V Q F H G B L J M P D K C T S W R N Z
",,,,,,,,,,,,,,,,,,,,,,,,,,,,,,,,,,,,,,,,,,,,,,,,,,,,,,,,,,,,,,,,,,,,,,,,,,,,1,0,1,0,1,,,,,,,,,,,,,
,,,,,,,,,5f248b7b1bde03086270bd37,25,Kobieta,2022-05-28_09h19.05.248,task,2021.1.4,Win32,60.68329389,628b806c463b948bc644b84f,6291ccda5988a574f73ad6ff,,,,,,,,,,,,,,,,,,,,,,,,1,,,,,,,,,,Task,34,(9/3) - 2,1,,,,,,,,,,,,,,,,,,,1,,,,,,,,,,,,,,,,,,,,,,,"[""1""]",1,[2.7417000000028793],0,0,0,33,1,,,,,,,,,,,,,,,,,,
,,,,,,,,,5f248b7b1bde03086270bd37,25,Kobieta,2022-05-28_09h19.05.248,task,2021.1.4,Win32,60.68329389,628b806c463b948bc644b84f,6291ccda5988a574f73ad6ff,,,,,,,,,,,"X V Q F H G B L J M P D K C T S W R N Z
",,,,,,,,,,,,,,,,,,,,,,,,,,,,,,,,,,,,,,,,,,,,,,,,,,,,,,,,,,,,,,,,,,,,,,,,,,,,2,0,2,0,1,,,,,,,,,,,,,
,,,,,,,,,5f248b7b1bde03086270bd37,25,Kobieta,2022-05-28_09h19.05.248,task,2021.1.4,Win32,60.68329389,628b806c463b948bc644b84f,6291ccda5988a574f73ad6ff,,,,,,,,,,,,,,,,,,,,,,,,5,,,,,,,,,,Task,36,(8/4) + 3,5,,,,,,,,,,,,,,,,,,,1,,,,,,,,,,,,,,,,,,,,,,,"[""5""]",1,[1.8062999999970089],0,0,0,35,1,,,,,,,,,,,,,,,,,,
,,,,,,,,,5f248b7b1bde03086270bd37,25,Kobieta,2022-05-28_09h19.05.248,task,2021.1.4,Win32,60.68329389,628b806c463b948bc644b84f,6291ccda5988a574f73ad6ff,,,,,,,,,,,"X V Q F H G B L J M P D K C T S W R N Z
",,,,,,,,,,,,,,,,,,,,,,,,,,,,,,,,,,,,,,,,,,,,,,,,,,,,,,,,,,,,,,,,,,,,,,,,,,,,3,0,3,0,1,,,,,,,,,,,,,
,,,,,,,,,5f248b7b1bde03086270bd37,25,Kobieta,2022-05-28_09h19.05.248,task,2021.1.4,Win32,60.68329389,628b806c463b948bc644b84f,6291ccda5988a574f73ad6ff,,,,,,,,,,,,,,,,,,,,,,,,,,,,,,,,,,,,,,,,,,,,,,,,,,,,,,,,,,,,,,,,,,,,,,,,,,,,,,,,,,,,,,,,,,,,lfwx,"[""l"",""f"",""w"",""x""]",0,"[2.439299999997047,3.558499999999981,3.843599999994126,4.254299999997102,5.411299999997027]",1,LFWX,2,0,2,0,1,,
,,,,,,,,,5f248b7b1bde03086270bd37,25,Kobieta,2022-05-28_09h19.05.248,task,2021.1.4,Win32,60.68329389,628b806c463b948bc644b84f,6291ccda5988a574f73ad6ff,,,,,,,,,,,,,,,,,,,,,,,,7,,,,,,,,,,Task,30,(6/3) + 4 ,6,,,,,,,,,,,,,,,,,,,0,,,,,,,,,,,,,,,,,,,,,,,"[""7""]",0,[3.238999999999919],0,0,0,29,1,,,,,,,,,,,,,,,,,,
,,,,,,,,,5f248b7b1bde03086270bd37,25,Kobieta,2022-05-28_09h19.05.248,task,2021.1.4,Win32,60.68329389,628b806c463b948bc644b84f,6291ccda5988a574f73ad6ff,,,,,,,,,,,,,,,,,,,,,,,,7,,,,,,,,,,Task,14,(2x2) + 3,7,,,,,,,,,,,,,,,,,,,1,,,,,,,,,,,,,,,,,,,,,,,"[""7""]",1,[1.905200000002992],0,1,1,13,1,,,,,,,,,,,,,,,,,,
,,,,,,,,,5f248b7b1bde03086270bd37,25,Kobieta,2022-05-28_09h19.05.248,task,2021.1.4,Win32,60.68329389,628b806c463b948bc644b84f,6291ccda5988a574f73ad6ff,,,,,,,,,,,"X V Q F H G B L J M P D K C T S W R N Z
",,,,,,,,,,,,,,,,,,,,,,,,,,,,,,,,,,,,,,,,,,,,,,,,,,,,,,,,,,,,,,,,,,,,,,,,,,,,0,0,0,0,1,,,,,,,,,,,,,
,,,,,,,,,5f248b7b1bde03086270bd37,25,Kobieta,2022-05-28_09h19.05.248,task,2021.1.4,Win32,60.68329389,628b806c463b948bc644b84f,6291ccda5988a574f73ad6ff,,,,,,,,,,,,,,,,,,,,,,,,6,,,,,,,,,,Task,5,(2x3) + 0,6,,,,,,,,,,,,,,,,,,,1,,,,,,,,,,,,,,,,,,,,,,,"[""6""]",1,[2.8892000000029157],0,0,0,4,1,,,,,,,,,,,,,,,,,,
,,,,,,,,,5f248b7b1bde03086270bd37,25,Kobieta,2022-05-28_09h19.05.248,task,2021.1.4,Win32,60.68329389,628b806c463b948bc644b84f,6291ccda5988a574f73ad6ff,,,,,,,,,,,"X V Q F H G B L J M P D K C T S W R N Z
",,,,,,,,,,,,,,,,,,,,,,,,,,,,,,,,,,,,,,,,,,,,,,,,,,,,,,,,,,,,,,,,,,,,,,,,,,,,1,0,1,0,1,,,,,,,,,,,,,
,,,,,,,,,5f248b7b1bde03086270bd37,25,Kobieta,2022-05-28_09h19.05.248,task,2021.1.4,Win32,60.68329389,628b806c463b948bc644b84f,6291ccda5988a574f73ad6ff,,,,,,,,,,,,,,,,,,,,,,,,2,,,,,,,,,,Task,19,(6/2) - 1,2,,,,,,,,,,,,,,,,,,,1,,,,,,,,,,,,,,,,,,,,,,,"[""2""]",1,[2.105799999997089],0,0,0,18,1,,,,,,,,,,,,,,,,,,
,,,,,,,,,5f248b7b1bde03086270bd37,25,Kobieta,2022-05-28_09h19.05.248,task,2021.1.4,Win32,60.68329389,628b806c463b948bc644b84f,6291ccda5988a574f73ad6ff,,,,,,,,,,,"X V Q F H G B L J M P D K C T S W R N Z
",,,,,,,,,,,,,,,,,,,,,,,,,,,,,,,,,,,,,,,,,,,,,,,,,,,,,,,,,,,,,,,,,,,,,,,,,,,,2,0,2,0,1,,,,,,,,,,,,,
,,,,,,,,,5f248b7b1bde03086270bd37,25,Kobieta,2022-05-28_09h19.05.248,task,2021.1.4,Win32,60.68329389,628b806c463b948bc644b84f,6291ccda5988a574f73ad6ff,,,,,,,,,,,,,,,,,,,,,,,,2,,,,,,,,,,Task,10,(2x5) - 8,2,,,,,,,,,,,,,,,,,,,1,,,,,,,,,,,,,,,,,,,,,,,"[""2""]",1,[1.6392000000030293],0,0,0,9,1,,,,,,,,,,,,,,,,,,
,,,,,,,,,5f248b7b1bde03086270bd37,25,Kobieta,2022-05-28_09h19.05.248,task,2021.1.4,Win32,60.68329389,628b806c463b948bc644b84f,6291ccda5988a574f73ad6ff,,,,,,,,,,,"X V Q F H G B L J M P D K C T S W R N Z
",,,,,,,,,,,,,,,,,,,,,,,,,,,,,,,,,,,,,,,,,,,,,,,,,,,,,,,,,,,,,,,,,,,,,,,,,,,,3,0,3,0,1,,,,,,,,,,,,,
,,,,,,,,,5f248b7b1bde03086270bd37,25,Kobieta,2022-05-28_09h19.05.248,task,2021.1.4,Win32,60.68329389,628b806c463b948bc644b84f,6291ccda5988a574f73ad6ff,,,,,,,,,,,,,,,,,,,,,,,,7,,,,,,,,,,Task,6,(12/2) + 1,7,,,,,,,,,,,,,,,,,,,1,,,,,,,,,,,,,,,,,,,,,,,"[""7""]",1,[2.05600000000004],0,0,0,5,1,,,,,,,,,,,,,,,,,,
,,,,,,,,,5f248b7b1bde03086270bd37,25,Kobieta,2022-05-28_09h19.05.248,task,2021.1.4,Win32,60.68329389,628b806c463b948bc644b84f,6291ccda5988a574f73ad6ff,,,,,,,,,,,"X V Q F H G B L J M P D K C T S W R N Z
",,,,,,,,,,,,,,,,,,,,,,,,,,,,,,,,,,,,,,,,,,,,,,,,,,,,,,,,,,,,,,,,,,,,,,,,,,,,4,0,4,0,1,,,,,,,,,,,,,
,,,,,,,,,5f248b7b1bde03086270bd37,25,Kobieta,2022-05-28_09h19.05.248,task,2021.1.4,Win32,60.68329389,628b806c463b948bc644b84f,6291ccda5988a574f73ad6ff,,,,,,,,,,,,,,,,,,,,,,,,,,,,,,,,,,,,,,,,,,,,,,,,,,,,,,,,,,,,,,,,,,,,,,,,,,,,,,,,,,,,,,,,,,,,fqbrt,"[""f"",""q"",""b"",""r"",""t""]",0,"[1.9407999999970116,2.3848999999910347,2.8393999999910875,3.03550000000007,3.19500000000005,3.542299999996999]",1,FQBRT,3,0,3,0,1,,
,,,,,,,,,5f248b7b1bde03086270bd37,25,Kobieta,2022-05-28_09h19.05.248,task,2021.1.4,Win32,60.68329389,628b806c463b948bc644b84f,6291ccda5988a574f73ad6ff,,,,,,,,,,,,,,,,,,,,,,,,4,,,,,,,,,,Task,28,(2x5) - 6,4,,,,,,,,,,,,,,,,,,,1,,,,,,,,,,,,,,,,,,,,,,,"[""4""]",1,[2.0235000000000127],0,0,0,27,1,,,,,,,,,,,,,,,,,,
,,,,,,,,,5f248b7b1bde03086270bd37,25,Kobieta,2022-05-28_09h19.05.248,task,2021.1.4,Win32,60.68329389,628b806c463b948bc644b84f,6291ccda5988a574f73ad6ff,,,,,,,,,,,"X V Q F H G B L J M P D K C T S W R N Z
",,,,,,,,,,,,,,,,,,,,,,,,,,,,,,,,,,,,,,,,,,,,,,,,,,,,,,,,,,,,,,,,,,,,,,,,,,,,0,0,0,0,1,,,,,,,,,,,,,
,,,,,,,,,5f248b7b1bde03086270bd37,25,Kobieta,2022-05-28_09h19.05.248,task,2021.1.4,Win32,60.68329389,628b806c463b948bc644b84f,6291ccda5988a574f73ad6ff,,,,,,,,,,,,,,,,,,,,,,,,4,,,,,,,,,,Task,28,(2x5) - 6,4,,,,,,,,,,,,,,,,,,,1,,,,,,,,,,,,,,,,,,,,,,,"[""4""]",1,[1.6901000000090107],0,0,0,27,1,,,,,,,,,,,,,,,,,,
,,,,,,,,,5f248b7b1bde03086270bd37,25,Kobieta,2022-05-28_09h19.05.248,task,2021.1.4,Win32,60.68329389,628b806c463b948bc644b84f,6291ccda5988a574f73ad6ff,,,,,,,,,,,"X V Q F H G B L J M P D K C T S W R N Z
",,,,,,,,,,,,,,,,,,,,,,,,,,,,,,,,,,,,,,,,,,,,,,,,,,,,,,,,,,,,,,,,,,,,,,,,,,,,1,0,1,0,1,,,,,,,,,,,,,
,,,,,,,,,5f248b7b1bde03086270bd37,25,Kobieta,2022-05-28_09h19.05.248,task,2021.1.4,Win32,60.68329389,628b806c463b948bc644b84f,6291ccda5988a574f73ad6ff,,,,,,,,,,,,,,,,,,,,,,,,6,,,,,,,,,,Task,30,(6/3) + 4 ,6,,,,,,,,,,,,,,,,,,,1,,,,,,,,,,,,,,,,,,,,,,,"[""6""]",1,[1.8898999999910302],0,0,0,29,1,,,,,,,,,,,,,,,,,,
,,,,,,,,,5f248b7b1bde03086270bd37,25,Kobieta,2022-05-28_09h19.05.248,task,2021.1.4,Win32,60.68329389,628b806c463b948bc644b84f,6291ccda5988a574f73ad6ff,,,,,,,,,,,"X V Q F H G B L J M P D K C T S W R N Z
",,,,,,,,,,,,,,,,,,,,,,,,,,,,,,,,,,,,,,,,,,,,,,,,,,,,,,,,,,,,,,,,,,,,,,,,,,,,2,0,2,0,1,,,,,,,,,,,,,
,,,,,,,,,5f248b7b1bde03086270bd37,25,Kobieta,2022-05-28_09h19.05.248,task,2021.1.4,Win32,60.68329389,628b806c463b948bc644b84f,6291ccda5988a574f73ad6ff,,,,,,,,,,,,,,,,,,,,,,,,6,,,,,,,,,,Task,5,(2x3) + 0,6,,,,,,,,,,,,,,,,,,,1,,,,,,,,,,,,,,,,,,,,,,,"[""6""]",1,[2.2395999999939704],0,0,0,4,1,,,,,,,,,,,,,,,,,,
,,,,,,,,,5f248b7b1bde03086270bd37,25,Kobieta,2022-05-28_09h19.05.248,task,2021.1.4,Win32,60.68329389,628b806c463b948bc644b84f,6291ccda5988a574f73ad6ff,,,,,,,,,,,"X V Q F H G B L J M P D K C T S W R N Z
",,,,,,,,,,,,,,,,,,,,,,,,,,,,,,,,,,,,,,,,,,,,,,,,,,,,,,,,,,,,,,,,,,,,,,,,,,,,3,0,3,0,1,,,,,,,,,,,,,
,,,,,,,,,5f248b7b1bde03086270bd37,25,Kobieta,2022-05-28_09h19.05.248,task,2021.1.4,Win32,60.68329389,628b806c463b948bc644b84f,6291ccda5988a574f73ad6ff,,,,,,,,,,,,,,,,,,,,,,,,2,,,,,,,,,,Task,2,(2x2) - 2,2,,,,,,,,,,,,,,,,,,,1,,,,,,,,,,,,,,,,,,,,,,,"[""2""]",1,[2.4265000000000327],0,0,0,1,1,,,,,,,,,,,,,,,,,,
,,,,,,,,,5f248b7b1bde03086270bd37,25,Kobieta,2022-05-28_09h19.05.248,task,2021.1.4,Win32,60.68329389,628b806c463b948bc644b84f,6291ccda5988a574f73ad6ff,,,,,,,,,,,"X V Q F H G B L J M P D K C T S W R N Z
",,,,,,,,,,,,,,,,,,,,,,,,,,,,,,,,,,,,,,,,,,,,,,,,,,,,,,,,,,,,,,,,,,,,,,,,,,,,4,0,4,0,1,,,,,,,,,,,,,
,,,,,,,,,5f248b7b1bde03086270bd37,25,Kobieta,2022-05-28_09h19.05.248,task,2021.1.4,Win32,60.68329389,628b806c463b948bc644b84f,6291ccda5988a574f73ad6ff,,,,,,,,,,,,,,,,,,,,,,,,1,,,,,,,,,,Task,18,(16/4) - 3,1,,,,,,,,,,,,,,,,,,,1,,,,,,,,,,,,,,,,,,,,,,,"[""1""]",1,[2.2887000000029047],0,0,0,17,1,,,,,,,,,,,,,,,,,,
