key_resp_15.keys,key_resp_15.rt,key_resp_16.keys,key_resp_16.rt,key_resp_4.keys,key_resp_4.rt,next_letter.thisRepN,next_letter.thisTrialN,next_letter.thisN,next_letter.thisIndex,next_letter.ran,letter,participant,Wiek*,Płeć,date,expName,psychopyVersion,OS,frameRate,study_id,session,simple_recall,key_resp_5.keys,key_resp_5.rt,simple_recall_corr,simple_recall_corrkeys,next_level.thisRepN,next_level.thisTrialN,next_level.thisN,next_level.thisIndex,next_level.ran,key_resp_2.keys,key_resp_2.rt,digit_answer,key_resp.keys,key_resp.corr,key_resp.rt,RT_list,next_equation.thisRepN,next_equation.thisTrialN,next_equation.thisN,next_equation.thisIndex,next_equation.ran,Task,Trial,Problem,Operation_answer,processing_score,sumRT,meanRT,sumdiff,sd,RT,key_resp_3.keys,key_resp_3.rt,repeat_practice.thisRepN,repeat_practice.thisTrialN,repeat_practice.thisN,repeat_practice.thisIndex,repeat_practice.ran,key_resp_6.keys,key_resp_6.rt,key_resp_11.keys,key_resp_11.corr,key_resp_11.rt,operation_correct,repeat_if_wrong_prac.thisRepN,repeat_if_wrong_prac.thisTrialN,repeat_if_wrong_prac.thisN,repeat_if_wrong_prac.thisIndex,repeat_if_wrong_prac.ran,span_size_prac.thisRepN,span_size_prac.thisTrialN,span_size_prac.thisN,span_size_prac.thisIndex,span_size_prac.ran,complex_recall_practice,key_resp_9.keys,key_resp_9.corr,key_resp_9.rt,complex_prac_corr,span_recall_prac.thisRepN,span_recall_prac.thisTrialN,span_recall_prac.thisN,span_recall_prac.thisIndex,span_recall_prac.ran,key_resp_10.keys,key_resp_10.rt,key_resp_7.keys,key_resp_7.corr,key_resp_7.rt,repeat_if_wrong.thisRepN,repeat_if_wrong.thisTrialN,repeat_if_wrong.thisN,repeat_if_wrong.thisIndex,repeat_if_wrong.ran,span_size.thisRepN,span_size.thisTrialN,span_size.thisN,span_size.thisIndex,span_size.ran,complex_recall,key_resp_8.keys,key_resp_8.corr,key_resp_8.rt,complex_recall_corr,complex_recall_corrkeys,span_recall.thisRepN,span_recall.thisTrialN,span_recall.thisN,span_recall.thisIndex,span_recall.ran,key_resp_13.keys,key_resp_13.corr,key_resp_13.rt,random_loop.thisRepN,random_loop.thisTrialN,random_loop.thisN,random_loop.thisIndex,random_loop.ran,key_resp_12.keys,key_resp_12.rt
space,40.2686,space,24.2702,space,17.6642,0,0,0,0,1,X V Q F H G B L J M P D K C T S W R N Z,5f26cf3dcb907d03e50a6f95,26,Mężczyzna,2022-06-11_09h16.48.579,task,2021.1.4,Win32,59.83366242,6299f149e92ead563fba08ef,62a441490214da0dfb32d112,,,,,,,,,,,,,,,,,,,,,,,,,,,,,,,,,,,,,,,,,,,,,,,,,,,,,,,,,,,,,,,,,,,,,,,,,,,,,,,,,,,,,,,,,,,,,,,,,,,,,
,,,,,,1,0,1,0,1,X V Q F H G B L J M P D K C T S W R N Z,5f26cf3dcb907d03e50a6f95,26,Mężczyzna,2022-06-11_09h16.48.579,task,2021.1.4,Win32,59.83366242,6299f149e92ead563fba08ef,62a441490214da0dfb32d112,,,,,,,,,,,,,,,,,,,,,,,,,,,,,,,,,,,,,,,,,,,,,,,,,,,,,,,,,,,,,,,,,,,,,,,,,,,,,,,,,,,,,,,,,,,,,,,,,,,,,
,,,,,,,,,,,,5f26cf3dcb907d03e50a6f95,26,Mężczyzna,2022-06-11_09h16.48.579,task,2021.1.4,Win32,59.83366242,6299f149e92ead563fba08ef,62a441490214da0dfb32d112,zq,"[""z"",""q""]","[1.0851000000000113,1.4326000000000079,2.304000000000002]",1,ZQ,0,0,0,0,1,,,,,,,,,,,,,,,,,,,,,,,,,,,,,,,,,,,,,,,,,,,,,,,,,,,,,,,,,,,,,,,,,,,,,,,,,,,,,,,,,,,,,,,,,,,
,,,,,,0,0,0,0,1,X V Q F H G B L J M P D K C T S W R N Z,5f26cf3dcb907d03e50a6f95,26,Mężczyzna,2022-06-11_09h16.48.579,task,2021.1.4,Win32,59.83366242,6299f149e92ead563fba08ef,62a441490214da0dfb32d112,,,,,,,,,,,,,,,,,,,,,,,,,,,,,,,,,,,,,,,,,,,,,,,,,,,,,,,,,,,,,,,,,,,,,,,,,,,,,,,,,,,,,,,,,,,,,,,,,,,,,
,,,,,,1,0,1,0,1,X V Q F H G B L J M P D K C T S W R N Z,5f26cf3dcb907d03e50a6f95,26,Mężczyzna,2022-06-11_09h16.48.579,task,2021.1.4,Win32,59.83366242,6299f149e92ead563fba08ef,62a441490214da0dfb32d112,,,,,,,,,,,,,,,,,,,,,,,,,,,,,,,,,,,,,,,,,,,,,,,,,,,,,,,,,,,,,,,,,,,,,,,,,,,,,,,,,,,,,,,,,,,,,,,,,,,,,
,,,,,,,,,,,,5f26cf3dcb907d03e50a6f95,26,Mężczyzna,2022-06-11_09h16.48.579,task,2021.1.4,Win32,59.83366242,6299f149e92ead563fba08ef,62a441490214da0dfb32d112,td,"[""t"",""d""]","[0.5010000000000048,0.6562999999999874,1.6413999999999902]",1,TD,1,0,1,0,1,,,,,,,,,,,,,,,,,,,,,,,,,,,,,,,,,,,,,,,,,,,,,,,,,,,,,,,,,,,,,,,,,,,,,,,,,,,,,,,,,,,,,,,,,,,
,,,,,,0,0,0,0,1,X V Q F H G B L J M P D K C T S W R N Z,5f26cf3dcb907d03e50a6f95,26,Mężczyzna,2022-06-11_09h16.48.579,task,2021.1.4,Win32,59.83366242,6299f149e92ead563fba08ef,62a441490214da0dfb32d112,,,,,,,,,,,,,,,,,,,,,,,,,,,,,,,,,,,,,,,,,,,,,,,,,,,,,,,,,,,,,,,,,,,,,,,,,,,,,,,,,,,,,,,,,,,,,,,,,,,,,
,,,,,,1,0,1,0,1,X V Q F H G B L J M P D K C T S W R N Z,5f26cf3dcb907d03e50a6f95,26,Mężczyzna,2022-06-11_09h16.48.579,task,2021.1.4,Win32,59.83366242,6299f149e92ead563fba08ef,62a441490214da0dfb32d112,,,,,,,,,,,,,,,,,,,,,,,,,,,,,,,,,,,,,,,,,,,,,,,,,,,,,,,,,,,,,,,,,,,,,,,,,,,,,,,,,,,,,,,,,,,,,,,,,,,,,
,,,,,,2,0,2,0,1,X V Q F H G B L J M P D K C T S W R N Z,5f26cf3dcb907d03e50a6f95,26,Mężczyzna,2022-06-11_09h16.48.579,task,2021.1.4,Win32,59.83366242,6299f149e92ead563fba08ef,62a441490214da0dfb32d112,,,,,,,,,,,,,,,,,,,,,,,,,,,,,,,,,,,,,,,,,,,,,,,,,,,,,,,,,,,,,,,,,,,,,,,,,,,,,,,,,,,,,,,,,,,,,,,,,,,,,
,,,,,,,,,,,,5f26cf3dcb907d03e50a6f95,26,Mężczyzna,2022-06-11_09h16.48.579,task,2021.1.4,Win32,59.83366242,6299f149e92ead563fba08ef,62a441490214da0dfb32d112,chb,"[""c"",""h"",""b""]","[0.5593999999999966,0.7194999999999965,0.9751000000000118,1.2964999999999947]",1,CHB,2,0,2,0,1,,,,,,,,,,,,,,,,,,,,,,,,,,,,,,,,,,,,,,,,,,,,,,,,,,,,,,,,,,,,,,,,,,,,,,,,,,,,,,,,,,,,,,,,,,,
,,,,,,0,0,0,0,1,X V Q F H G B L J M P D K C T S W R N Z,5f26cf3dcb907d03e50a6f95,26,Mężczyzna,2022-06-11_09h16.48.579,task,2021.1.4,Win32,59.83366242,6299f149e92ead563fba08ef,62a441490214da0dfb32d112,,,,,,,,,,,,,,,,,,,,,,,,,,,,,,,,,,,,,,,,,,,,,,,,,,,,,,,,,,,,,,,,,,,,,,,,,,,,,,,,,,,,,,,,,,,,,,,,,,,,,
,,,,,,1,0,1,0,1,X V Q F H G B L J M P D K C T S W R N Z,5f26cf3dcb907d03e50a6f95,26,Mężczyzna,2022-06-11_09h16.48.579,task,2021.1.4,Win32,59.83366242,6299f149e92ead563fba08ef,62a441490214da0dfb32d112,,,,,,,,,,,,,,,,,,,,,,,,,,,,,,,,,,,,,,,,,,,,,,,,,,,,,,,,,,,,,,,,,,,,,,,,,,,,,,,,,,,,,,,,,,,,,,,,,,,,,
,,,,,,2,0,2,0,1,X V Q F H G B L J M P D K C T S W R N Z,5f26cf3dcb907d03e50a6f95,26,Mężczyzna,2022-06-11_09h16.48.579,task,2021.1.4,Win32,59.83366242,6299f149e92ead563fba08ef,62a441490214da0dfb32d112,,,,,,,,,,,,,,,,,,,,,,,,,,,,,,,,,,,,,,,,,,,,,,,,,,,,,,,,,,,,,,,,,,,,,,,,,,,,,,,,,,,,,,,,,,,,,,,,,,,,,
,,,,,,,,,,,,5f26cf3dcb907d03e50a6f95,26,Mężczyzna,2022-06-11_09h16.48.579,task,2021.1.4,Win32,59.83366242,6299f149e92ead563fba08ef,62a441490214da0dfb32d112,wft,"[""w"",""f"",""t""]","[0.963300000000018,1.0910000000000082,1.2920000000000016,1.854900000000029]",1,WFT,3,0,3,0,1,,,,,,,,,,,,,,,,,,,,,,,,,,,,,,,,,,,,,,,,,,,,,,,,,,,,,,,,,,,,,,,,,,,,,,,,,,,,,,,,,,,,,,,,,,,
,,,,,,0,0,0,0,1,X V Q F H G B L J M P D K C T S W R N Z,5f26cf3dcb907d03e50a6f95,26,Mężczyzna,2022-06-11_09h16.48.579,task,2021.1.4,Win32,59.83366242,6299f149e92ead563fba08ef,62a441490214da0dfb32d112,,,,,,,,,,,,,,,,,,,,,,,,,,,,,,,,,,,,,,,,,,,,,,,,,,,,,,,,,,,,,,,,,,,,,,,,,,,,,,,,,,,,,,,,,,,,,,,,,,,,,
,,,,,,1,0,1,0,1,X V Q F H G B L J M P D K C T S W R N Z,5f26cf3dcb907d03e50a6f95,26,Mężczyzna,2022-06-11_09h16.48.579,task,2021.1.4,Win32,59.83366242,6299f149e92ead563fba08ef,62a441490214da0dfb32d112,,,,,,,,,,,,,,,,,,,,,,,,,,,,,,,,,,,,,,,,,,,,,,,,,,,,,,,,,,,,,,,,,,,,,,,,,,,,,,,,,,,,,,,,,,,,,,,,,,,,,
,,,,,,2,0,2,0,1,X V Q F H G B L J M P D K C T S W R N Z,5f26cf3dcb907d03e50a6f95,26,Mężczyzna,2022-06-11_09h16.48.579,task,2021.1.4,Win32,59.83366242,6299f149e92ead563fba08ef,62a441490214da0dfb32d112,,,,,,,,,,,,,,,,,,,,,,,,,,,,,,,,,,,,,,,,,,,,,,,,,,,,,,,,,,,,,,,,,,,,,,,,,,,,,,,,,,,,,,,,,,,,,,,,,,,,,
,,,,,,3,0,3,0,1,X V Q F H G B L J M P D K C T S W R N Z,5f26cf3dcb907d03e50a6f95,26,Mężczyzna,2022-06-11_09h16.48.579,task,2021.1.4,Win32,59.83366242,6299f149e92ead563fba08ef,62a441490214da0dfb32d112,,,,,,,,,,,,,,,,,,,,,,,,,,,,,,,,,,,,,,,,,,,,,,,,,,,,,,,,,,,,,,,,,,,,,,,,,,,,,,,,,,,,,,,,,,,,,,,,,,,,,
,,,,,,,,,,,,5f26cf3dcb907d03e50a6f95,26,Mężczyzna,2022-06-11_09h16.48.579,task,2021.1.4,Win32,59.83366242,6299f149e92ead563fba08ef,62a441490214da0dfb32d112,mtcj,"[""m"",""t"",""c"",""j""]","[1.5461999999999705,1.6562999999999874,1.8581999999999823,1.9271999999999707,2.2241999999999678]",1,MTCJ,4,0,4,0,1,,,,,,,,,,,,,,,,,,,,,,,,,,,,,,,,,,,,,,,,,,,,,,,,,,,,,,,,,,,,,,,,,,,,,,,,,,,,,,,,,,,,,,,,,,,
,,,,,,0,0,0,0,1,X V Q F H G B L J M P D K C T S W R N Z,5f26cf3dcb907d03e50a6f95,26,Mężczyzna,2022-06-11_09h16.48.579,task,2021.1.4,Win32,59.83366242,6299f149e92ead563fba08ef,62a441490214da0dfb32d112,,,,,,,,,,,,,,,,,,,,,,,,,,,,,,,,,,,,,,,,,,,,,,,,,,,,,,,,,,,,,,,,,,,,,,,,,,,,,,,,,,,,,,,,,,,,,,,,,,,,,
,,,,,,1,0,1,0,1,X V Q F H G B L J M P D K C T S W R N Z,5f26cf3dcb907d03e50a6f95,26,Mężczyzna,2022-06-11_09h16.48.579,task,2021.1.4,Win32,59.83366242,6299f149e92ead563fba08ef,62a441490214da0dfb32d112,,,,,,,,,,,,,,,,,,,,,,,,,,,,,,,,,,,,,,,,,,,,,,,,,,,,,,,,,,,,,,,,,,,,,,,,,,,,,,,,,,,,,,,,,,,,,,,,,,,,,
,,,,,,2,0,2,0,1,X V Q F H G B L J M P D K C T S W R N Z,5f26cf3dcb907d03e50a6f95,26,Mężczyzna,2022-06-11_09h16.48.579,task,2021.1.4,Win32,59.83366242,6299f149e92ead563fba08ef,62a441490214da0dfb32d112,,,,,,,,,,,,,,,,,,,,,,,,,,,,,,,,,,,,,,,,,,,,,,,,,,,,,,,,,,,,,,,,,,,,,,,,,,,,,,,,,,,,,,,,,,,,,,,,,,,,,
,,,,,,3,0,3,0,1,X V Q F H G B L J M P D K C T S W R N Z,5f26cf3dcb907d03e50a6f95,26,Mężczyzna,2022-06-11_09h16.48.579,task,2021.1.4,Win32,59.83366242,6299f149e92ead563fba08ef,62a441490214da0dfb32d112,,,,,,,,,,,,,,,,,,,,,,,,,,,,,,,,,,,,,,,,,,,,,,,,,,,,,,,,,,,,,,,,,,,,,,,,,,,,,,,,,,,,,,,,,,,,,,,,,,,,,
,,,,,,,,,,,,5f26cf3dcb907d03e50a6f95,26,Mężczyzna,2022-06-11_09h16.48.579,task,2021.1.4,Win32,59.83366242,6299f149e92ead563fba08ef,62a441490214da0dfb32d112,qkgt,"[""q"",""k"",""g"",""t""]","[2.6498000000000275,2.792100000000005,3.0028000000000077,3.4102000000000032,3.776100000000014]",0,QKGD,5,0,5,0,1,,,,,,,,,,,,,,,,,,,,,,,,,,,,,,,,,,,,,,,,,,,,,,,,,,,,,,,,,,,,,,,,,,,,,,,,,,,,,,,,,,,,,,,,,,,
,,,,,,0,0,0,0,1,X V Q F H G B L J M P D K C T S W R N Z,5f26cf3dcb907d03e50a6f95,26,Mężczyzna,2022-06-11_09h16.48.579,task,2021.1.4,Win32,59.83366242,6299f149e92ead563fba08ef,62a441490214da0dfb32d112,,,,,,,,,,,,,,,,,,,,,,,,,,,,,,,,,,,,,,,,,,,,,,,,,,,,,,,,,,,,,,,,,,,,,,,,,,,,,,,,,,,,,,,,,,,,,,,,,,,,,
,,,,,,1,0,1,0,1,X V Q F H G B L J M P D K C T S W R N Z,5f26cf3dcb907d03e50a6f95,26,Mężczyzna,2022-06-11_09h16.48.579,task,2021.1.4,Win32,59.83366242,6299f149e92ead563fba08ef,62a441490214da0dfb32d112,,,,,,,,,,,,,,,,,,,,,,,,,,,,,,,,,,,,,,,,,,,,,,,,,,,,,,,,,,,,,,,,,,,,,,,,,,,,,,,,,,,,,,,,,,,,,,,,,,,,,
,,,,,,2,0,2,0,1,X V Q F H G B L J M P D K C T S W R N Z,5f26cf3dcb907d03e50a6f95,26,Mężczyzna,2022-06-11_09h16.48.579,task,2021.1.4,Win32,59.83366242,6299f149e92ead563fba08ef,62a441490214da0dfb32d112,,,,,,,,,,,,,,,,,,,,,,,,,,,,,,,,,,,,,,,,,,,,,,,,,,,,,,,,,,,,,,,,,,,,,,,,,,,,,,,,,,,,,,,,,,,,,,,,,,,,,
,,,,,,3,0,3,0,1,X V Q F H G B L J M P D K C T S W R N Z,5f26cf3dcb907d03e50a6f95,26,Mężczyzna,2022-06-11_09h16.48.579,task,2021.1.4,Win32,59.83366242,6299f149e92ead563fba08ef,62a441490214da0dfb32d112,,,,,,,,,,,,,,,,,,,,,,,,,,,,,,,,,,,,,,,,,,,,,,,,,,,,,,,,,,,,,,,,,,,,,,,,,,,,,,,,,,,,,,,,,,,,,,,,,,,,,
,,,,,,,,,,,,5f26cf3dcb907d03e50a6f95,26,Mężczyzna,2022-06-11_09h16.48.579,task,2021.1.4,Win32,59.83366242,6299f149e92ead563fba08ef,62a441490214da0dfb32d112,vvmb,"[""v"",""v"",""m"",""b""]","[1.6000999999999976,1.7546000000000106,1.983300000000014,2.074399999999997,2.422300000000007]",1,VVMB,6,0,6,0,1,,,,,,,,,,,,,,,,,,,,,,,,,,,,,,,,,,,,,,,,,,,,,,,,,,,,,,,,,,,,,,,,,,,,,,,,,,,,,,,,,,,,,,,,,,,
,,,,,,0,0,0,0,1,X V Q F H G B L J M P D K C T S W R N Z,5f26cf3dcb907d03e50a6f95,26,Mężczyzna,2022-06-11_09h16.48.579,task,2021.1.4,Win32,59.83366242,6299f149e92ead563fba08ef,62a441490214da0dfb32d112,,,,,,,,,,,,,,,,,,,,,,,,,,,,,,,,,,,,,,,,,,,,,,,,,,,,,,,,,,,,,,,,,,,,,,,,,,,,,,,,,,,,,,,,,,,,,,,,,,,,,
,,,,,,1,0,1,0,1,X V Q F H G B L J M P D K C T S W R N Z,5f26cf3dcb907d03e50a6f95,26,Mężczyzna,2022-06-11_09h16.48.579,task,2021.1.4,Win32,59.83366242,6299f149e92ead563fba08ef,62a441490214da0dfb32d112,,,,,,,,,,,,,,,,,,,,,,,,,,,,,,,,,,,,,,,,,,,,,,,,,,,,,,,,,,,,,,,,,,,,,,,,,,,,,,,,,,,,,,,,,,,,,,,,,,,,,
,,,,,,2,0,2,0,1,X V Q F H G B L J M P D K C T S W R N Z,5f26cf3dcb907d03e50a6f95,26,Mężczyzna,2022-06-11_09h16.48.579,task,2021.1.4,Win32,59.83366242,6299f149e92ead563fba08ef,62a441490214da0dfb32d112,,,,,,,,,,,,,,,,,,,,,,,,,,,,,,,,,,,,,,,,,,,,,,,,,,,,,,,,,,,,,,,,,,,,,,,,,,,,,,,,,,,,,,,,,,,,,,,,,,,,,
,,,,,,3,0,3,0,1,X V Q F H G B L J M P D K C T S W R N Z,5f26cf3dcb907d03e50a6f95,26,Mężczyzna,2022-06-11_09h16.48.579,task,2021.1.4,Win32,59.83366242,6299f149e92ead563fba08ef,62a441490214da0dfb32d112,,,,,,,,,,,,,,,,,,,,,,,,,,,,,,,,,,,,,,,,,,,,,,,,,,,,,,,,,,,,,,,,,,,,,,,,,,,,,,,,,,,,,,,,,,,,,,,,,,,,,
,,,,,,4,0,4,0,1,X V Q F H G B L J M P D K C T S W R N Z,5f26cf3dcb907d03e50a6f95,26,Mężczyzna,2022-06-11_09h16.48.579,task,2021.1.4,Win32,59.83366242,6299f149e92ead563fba08ef,62a441490214da0dfb32d112,,,,,,,,,,,,,,,,,,,,,,,,,,,,,,,,,,,,,,,,,,,,,,,,,,,,,,,,,,,,,,,,,,,,,,,,,,,,,,,,,,,,,,,,,,,,,,,,,,,,,
,,,,,,,,,,,,5f26cf3dcb907d03e50a6f95,26,Mężczyzna,2022-06-11_09h16.48.579,task,2021.1.4,Win32,59.83366242,6299f149e92ead563fba08ef,62a441490214da0dfb32d112,znkkp,"[""z"",""n"",""k"",""k"",""p""]","[1.1768999999999892,1.4365999999999985,1.5664999999999907,1.6846999999999923,1.9004999999999939,2.2324999999999875]",1,ZNKKP,7,0,7,0,1,,,,,,,,,,,,,,,,,,,,,,,,,,,,,,,,,,,,,,,,,,,,,,,,,,,,,,,,,,,,,,,,,,,,,,,,,,,,,,,,,,,,,,,,,,,
,,,,,,0,0,0,0,1,X V Q F H G B L J M P D K C T S W R N Z,5f26cf3dcb907d03e50a6f95,26,Mężczyzna,2022-06-11_09h16.48.579,task,2021.1.4,Win32,59.83366242,6299f149e92ead563fba08ef,62a441490214da0dfb32d112,,,,,,,,,,,,,,,,,,,,,,,,,,,,,,,,,,,,,,,,,,,,,,,,,,,,,,,,,,,,,,,,,,,,,,,,,,,,,,,,,,,,,,,,,,,,,,,,,,,,,
,,,,,,1,0,1,0,1,X V Q F H G B L J M P D K C T S W R N Z,5f26cf3dcb907d03e50a6f95,26,Mężczyzna,2022-06-11_09h16.48.579,task,2021.1.4,Win32,59.83366242,6299f149e92ead563fba08ef,62a441490214da0dfb32d112,,,,,,,,,,,,,,,,,,,,,,,,,,,,,,,,,,,,,,,,,,,,,,,,,,,,,,,,,,,,,,,,,,,,,,,,,,,,,,,,,,,,,,,,,,,,,,,,,,,,,
,,,,,,2,0,2,0,1,X V Q F H G B L J M P D K C T S W R N Z,5f26cf3dcb907d03e50a6f95,26,Mężczyzna,2022-06-11_09h16.48.579,task,2021.1.4,Win32,59.83366242,6299f149e92ead563fba08ef,62a441490214da0dfb32d112,,,,,,,,,,,,,,,,,,,,,,,,,,,,,,,,,,,,,,,,,,,,,,,,,,,,,,,,,,,,,,,,,,,,,,,,,,,,,,,,,,,,,,,,,,,,,,,,,,,,,
,,,,,,3,0,3,0,1,X V Q F H G B L J M P D K C T S W R N Z,5f26cf3dcb907d03e50a6f95,26,Mężczyzna,2022-06-11_09h16.48.579,task,2021.1.4,Win32,59.83366242,6299f149e92ead563fba08ef,62a441490214da0dfb32d112,,,,,,,,,,,,,,,,,,,,,,,,,,,,,,,,,,,,,,,,,,,,,,,,,,,,,,,,,,,,,,,,,,,,,,,,,,,,,,,,,,,,,,,,,,,,,,,,,,,,,
,,,,,,4,0,4,0,1,X V Q F H G B L J M P D K C T S W R N Z,5f26cf3dcb907d03e50a6f95,26,Mężczyzna,2022-06-11_09h16.48.579,task,2021.1.4,Win32,59.83366242,6299f149e92ead563fba08ef,62a441490214da0dfb32d112,,,,,,,,,,,,,,,,,,,,,,,,,,,,,,,,,,,,,,,,,,,,,,,,,,,,,,,,,,,,,,,,,,,,,,,,,,,,,,,,,,,,,,,,,,,,,,,,,,,,,
,,,,,,,,,,,,5f26cf3dcb907d03e50a6f95,26,Mężczyzna,2022-06-11_09h16.48.579,task,2021.1.4,Win32,59.83366242,6299f149e92ead563fba08ef,62a441490214da0dfb32d112,wpbjb,"[""w"",""p"",""b"",""j"",""b""]","[2.0024999999999977,2.1003000000000327,2.3695000000000164,2.483600000000024,2.616300000000024,3.106500000000011]",1,WPBJB,8,0,8,0,1,,,,,,,,,,,,,,,,,,,,,,,,,,,,,,,,,,,,,,,,,,,,,,,,,,,,,,,,,,,,,,,,,,,,,,,,,,,,,,,,,,,,,,,,,,,
,,,,,,0,0,0,0,1,X V Q F H G B L J M P D K C T S W R N Z,5f26cf3dcb907d03e50a6f95,26,Mężczyzna,2022-06-11_09h16.48.579,task,2021.1.4,Win32,59.83366242,6299f149e92ead563fba08ef,62a441490214da0dfb32d112,,,,,,,,,,,,,,,,,,,,,,,,,,,,,,,,,,,,,,,,,,,,,,,,,,,,,,,,,,,,,,,,,,,,,,,,,,,,,,,,,,,,,,,,,,,,,,,,,,,,,
,,,,,,1,0,1,0,1,X V Q F H G B L J M P D K C T S W R N Z,5f26cf3dcb907d03e50a6f95,26,Mężczyzna,2022-06-11_09h16.48.579,task,2021.1.4,Win32,59.83366242,6299f149e92ead563fba08ef,62a441490214da0dfb32d112,,,,,,,,,,,,,,,,,,,,,,,,,,,,,,,,,,,,,,,,,,,,,,,,,,,,,,,,,,,,,,,,,,,,,,,,,,,,,,,,,,,,,,,,,,,,,,,,,,,,,
,,,,,,2,0,2,0,1,X V Q F H G B L J M P D K C T S W R N Z,5f26cf3dcb907d03e50a6f95,26,Mężczyzna,2022-06-11_09h16.48.579,task,2021.1.4,Win32,59.83366242,6299f149e92ead563fba08ef,62a441490214da0dfb32d112,,,,,,,,,,,,,,,,,,,,,,,,,,,,,,,,,,,,,,,,,,,,,,,,,,,,,,,,,,,,,,,,,,,,,,,,,,,,,,,,,,,,,,,,,,,,,,,,,,,,,
,,,,,,3,0,3,0,1,X V Q F H G B L J M P D K C T S W R N Z,5f26cf3dcb907d03e50a6f95,26,Mężczyzna,2022-06-11_09h16.48.579,task,2021.1.4,Win32,59.83366242,6299f149e92ead563fba08ef,62a441490214da0dfb32d112,,,,,,,,,,,,,,,,,,,,,,,,,,,,,,,,,,,,,,,,,,,,,,,,,,,,,,,,,,,,,,,,,,,,,,,,,,,,,,,,,,,,,,,,,,,,,,,,,,,,,
,,,,,,4,0,4,0,1,X V Q F H G B L J M P D K C T S W R N Z,5f26cf3dcb907d03e50a6f95,26,Mężczyzna,2022-06-11_09h16.48.579,task,2021.1.4,Win32,59.83366242,6299f149e92ead563fba08ef,62a441490214da0dfb32d112,,,,,,,,,,,,,,,,,,,,,,,,,,,,,,,,,,,,,,,,,,,,,,,,,,,,,,,,,,,,,,,,,,,,,,,,,,,,,,,,,,,,,,,,,,,,,,,,,,,,,
,,,,,,5,0,5,0,1,X V Q F H G B L J M P D K C T S W R N Z,5f26cf3dcb907d03e50a6f95,26,Mężczyzna,2022-06-11_09h16.48.579,task,2021.1.4,Win32,59.83366242,6299f149e92ead563fba08ef,62a441490214da0dfb32d112,,,,,,,,,,,,,,,,,,,,,,,,,,,,,,,,,,,,,,,,,,,,,,,,,,,,,,,,,,,,,,,,,,,,,,,,,,,,,,,,,,,,,,,,,,,,,,,,,,,,,
,,,,,,,,,,,,5f26cf3dcb907d03e50a6f95,26,Mężczyzna,2022-06-11_09h16.48.579,task,2021.1.4,Win32,59.83366242,6299f149e92ead563fba08ef,62a441490214da0dfb32d112,pjrxdm,"[""p"",""j"",""r"",""x"",""d"",""m""]","[1.6865000000000236,1.8876000000000488,1.967000000000013,2.171500000000009,2.8269000000000233,3.316600000000051,4.185600000000051]",1,PJRXDM,9,0,9,0,1,,,,,,,,,,,,,,,,,,,,,,,,,,,,,,,,,,,,,,,,,,,,,,,,,,,,,,,,,,,,,,,,,,,,,,,,,,,,,,,,,,,,,,,,,,,
,,,,,,0,0,0,0,1,X V Q F H G B L J M P D K C T S W R N Z,5f26cf3dcb907d03e50a6f95,26,Mężczyzna,2022-06-11_09h16.48.579,task,2021.1.4,Win32,59.83366242,6299f149e92ead563fba08ef,62a441490214da0dfb32d112,,,,,,,,,,,,,,,,,,,,,,,,,,,,,,,,,,,,,,,,,,,,,,,,,,,,,,,,,,,,,,,,,,,,,,,,,,,,,,,,,,,,,,,,,,,,,,,,,,,,,
,,,,,,1,0,1,0,1,X V Q F H G B L J M P D K C T S W R N Z,5f26cf3dcb907d03e50a6f95,26,Mężczyzna,2022-06-11_09h16.48.579,task,2021.1.4,Win32,59.83366242,6299f149e92ead563fba08ef,62a441490214da0dfb32d112,,,,,,,,,,,,,,,,,,,,,,,,,,,,,,,,,,,,,,,,,,,,,,,,,,,,,,,,,,,,,,,,,,,,,,,,,,,,,,,,,,,,,,,,,,,,,,,,,,,,,
,,,,,,2,0,2,0,1,X V Q F H G B L J M P D K C T S W R N Z,5f26cf3dcb907d03e50a6f95,26,Mężczyzna,2022-06-11_09h16.48.579,task,2021.1.4,Win32,59.83366242,6299f149e92ead563fba08ef,62a441490214da0dfb32d112,,,,,,,,,,,,,,,,,,,,,,,,,,,,,,,,,,,,,,,,,,,,,,,,,,,,,,,,,,,,,,,,,,,,,,,,,,,,,,,,,,,,,,,,,,,,,,,,,,,,,
,,,,,,3,0,3,0,1,X V Q F H G B L J M P D K C T S W R N Z,5f26cf3dcb907d03e50a6f95,26,Mężczyzna,2022-06-11_09h16.48.579,task,2021.1.4,Win32,59.83366242,6299f149e92ead563fba08ef,62a441490214da0dfb32d112,,,,,,,,,,,,,,,,,,,,,,,,,,,,,,,,,,,,,,,,,,,,,,,,,,,,,,,,,,,,,,,,,,,,,,,,,,,,,,,,,,,,,,,,,,,,,,,,,,,,,
,,,,,,4,0,4,0,1,X V Q F H G B L J M P D K C T S W R N Z,5f26cf3dcb907d03e50a6f95,26,Mężczyzna,2022-06-11_09h16.48.579,task,2021.1.4,Win32,59.83366242,6299f149e92ead563fba08ef,62a441490214da0dfb32d112,,,,,,,,,,,,,,,,,,,,,,,,,,,,,,,,,,,,,,,,,,,,,,,,,,,,,,,,,,,,,,,,,,,,,,,,,,,,,,,,,,,,,,,,,,,,,,,,,,,,,
,,,,,,5,0,5,0,1,X V Q F H G B L J M P D K C T S W R N Z,5f26cf3dcb907d03e50a6f95,26,Mężczyzna,2022-06-11_09h16.48.579,task,2021.1.4,Win32,59.83366242,6299f149e92ead563fba08ef,62a441490214da0dfb32d112,,,,,,,,,,,,,,,,,,,,,,,,,,,,,,,,,,,,,,,,,,,,,,,,,,,,,,,,,,,,,,,,,,,,,,,,,,,,,,,,,,,,,,,,,,,,,,,,,,,,,
,,,,,,,,,,,,5f26cf3dcb907d03e50a6f95,26,Mężczyzna,2022-06-11_09h16.48.579,task,2021.1.4,Win32,59.83366242,6299f149e92ead563fba08ef,62a441490214da0dfb32d112,hwdvvt,"[""h"",""w"",""d"",""v"",""v"",""t""]","[2.591000000000008,2.8166999999999405,3.020899999999955,3.29079999999999,3.437999999999988,3.6161999999999637,3.817899999999952]",1,HWDVVT,10,0,10,0,1,,,,,,,,,,,,,,,,,,,,,,,,,,,,,,,,,,,,,,,,,,,,,,,,,,,,,,,,,,,,,,,,,,,,,,,,,,,,,,,,,,,,,,,,,,,
,,,,,,0,0,0,0,1,X V Q F H G B L J M P D K C T S W R N Z,5f26cf3dcb907d03e50a6f95,26,Mężczyzna,2022-06-11_09h16.48.579,task,2021.1.4,Win32,59.83366242,6299f149e92ead563fba08ef,62a441490214da0dfb32d112,,,,,,,,,,,,,,,,,,,,,,,,,,,,,,,,,,,,,,,,,,,,,,,,,,,,,,,,,,,,,,,,,,,,,,,,,,,,,,,,,,,,,,,,,,,,,,,,,,,,,
,,,,,,1,0,1,0,1,X V Q F H G B L J M P D K C T S W R N Z,5f26cf3dcb907d03e50a6f95,26,Mężczyzna,2022-06-11_09h16.48.579,task,2021.1.4,Win32,59.83366242,6299f149e92ead563fba08ef,62a441490214da0dfb32d112,,,,,,,,,,,,,,,,,,,,,,,,,,,,,,,,,,,,,,,,,,,,,,,,,,,,,,,,,,,,,,,,,,,,,,,,,,,,,,,,,,,,,,,,,,,,,,,,,,,,,
,,,,,,2,0,2,0,1,X V Q F H G B L J M P D K C T S W R N Z,5f26cf3dcb907d03e50a6f95,26,Mężczyzna,2022-06-11_09h16.48.579,task,2021.1.4,Win32,59.83366242,6299f149e92ead563fba08ef,62a441490214da0dfb32d112,,,,,,,,,,,,,,,,,,,,,,,,,,,,,,,,,,,,,,,,,,,,,,,,,,,,,,,,,,,,,,,,,,,,,,,,,,,,,,,,,,,,,,,,,,,,,,,,,,,,,
,,,,,,3,0,3,0,1,X V Q F H G B L J M P D K C T S W R N Z,5f26cf3dcb907d03e50a6f95,26,Mężczyzna,2022-06-11_09h16.48.579,task,2021.1.4,Win32,59.83366242,6299f149e92ead563fba08ef,62a441490214da0dfb32d112,,,,,,,,,,,,,,,,,,,,,,,,,,,,,,,,,,,,,,,,,,,,,,,,,,,,,,,,,,,,,,,,,,,,,,,,,,,,,,,,,,,,,,,,,,,,,,,,,,,,,
,,,,,,4,0,4,0,1,X V Q F H G B L J M P D K C T S W R N Z,5f26cf3dcb907d03e50a6f95,26,Mężczyzna,2022-06-11_09h16.48.579,task,2021.1.4,Win32,59.83366242,6299f149e92ead563fba08ef,62a441490214da0dfb32d112,,,,,,,,,,,,,,,,,,,,,,,,,,,,,,,,,,,,,,,,,,,,,,,,,,,,,,,,,,,,,,,,,,,,,,,,,,,,,,,,,,,,,,,,,,,,,,,,,,,,,
,,,,,,5,0,5,0,1,X V Q F H G B L J M P D K C T S W R N Z,5f26cf3dcb907d03e50a6f95,26,Mężczyzna,2022-06-11_09h16.48.579,task,2021.1.4,Win32,59.83366242,6299f149e92ead563fba08ef,62a441490214da0dfb32d112,,,,,,,,,,,,,,,,,,,,,,,,,,,,,,,,,,,,,,,,,,,,,,,,,,,,,,,,,,,,,,,,,,,,,,,,,,,,,,,,,,,,,,,,,,,,,,,,,,,,,
,,,,,,6,0,6,0,1,X V Q F H G B L J M P D K C T S W R N Z,5f26cf3dcb907d03e50a6f95,26,Mężczyzna,2022-06-11_09h16.48.579,task,2021.1.4,Win32,59.83366242,6299f149e92ead563fba08ef,62a441490214da0dfb32d112,,,,,,,,,,,,,,,,,,,,,,,,,,,,,,,,,,,,,,,,,,,,,,,,,,,,,,,,,,,,,,,,,,,,,,,,,,,,,,,,,,,,,,,,,,,,,,,,,,,,,
,,,,,,,,,,,,5f26cf3dcb907d03e50a6f95,26,Mężczyzna,2022-06-11_09h16.48.579,task,2021.1.4,Win32,59.83366242,6299f149e92ead563fba08ef,62a441490214da0dfb32d112,mdfjdnw,"[""m"",""d"",""f"",""j"",""d"",""n"",""w""]","[1.8666999999999803,1.943000000000012,2.0900000000000034,2.2835000000000036,3.207099999999997,7.865500000000026,7.955099999999987,8.788099999999986]",1,MDFJDNW,11,0,11,0,1,,,,,,,,,,,,,,,,,,,,,,,,,,,,,,,,,,,,,,,,,,,,,,,,,,,,,,,,,,,,,,,,,,,,,,,,,,,,,,,,,,,,,,,,,,,
,,,,,,0,0,0,0,1,X V Q F H G B L J M P D K C T S W R N Z,5f26cf3dcb907d03e50a6f95,26,Mężczyzna,2022-06-11_09h16.48.579,task,2021.1.4,Win32,59.83366242,6299f149e92ead563fba08ef,62a441490214da0dfb32d112,,,,,,,,,,,,,,,,,,,,,,,,,,,,,,,,,,,,,,,,,,,,,,,,,,,,,,,,,,,,,,,,,,,,,,,,,,,,,,,,,,,,,,,,,,,,,,,,,,,,,
,,,,,,1,0,1,0,1,X V Q F H G B L J M P D K C T S W R N Z,5f26cf3dcb907d03e50a6f95,26,Mężczyzna,2022-06-11_09h16.48.579,task,2021.1.4,Win32,59.83366242,6299f149e92ead563fba08ef,62a441490214da0dfb32d112,,,,,,,,,,,,,,,,,,,,,,,,,,,,,,,,,,,,,,,,,,,,,,,,,,,,,,,,,,,,,,,,,,,,,,,,,,,,,,,,,,,,,,,,,,,,,,,,,,,,,
,,,,,,2,0,2,0,1,X V Q F H G B L J M P D K C T S W R N Z,5f26cf3dcb907d03e50a6f95,26,Mężczyzna,2022-06-11_09h16.48.579,task,2021.1.4,Win32,59.83366242,6299f149e92ead563fba08ef,62a441490214da0dfb32d112,,,,,,,,,,,,,,,,,,,,,,,,,,,,,,,,,,,,,,,,,,,,,,,,,,,,,,,,,,,,,,,,,,,,,,,,,,,,,,,,,,,,,,,,,,,,,,,,,,,,,
,,,,,,3,0,3,0,1,X V Q F H G B L J M P D K C T S W R N Z,5f26cf3dcb907d03e50a6f95,26,Mężczyzna,2022-06-11_09h16.48.579,task,2021.1.4,Win32,59.83366242,6299f149e92ead563fba08ef,62a441490214da0dfb32d112,,,,,,,,,,,,,,,,,,,,,,,,,,,,,,,,,,,,,,,,,,,,,,,,,,,,,,,,,,,,,,,,,,,,,,,,,,,,,,,,,,,,,,,,,,,,,,,,,,,,,
,,,,,,4,0,4,0,1,X V Q F H G B L J M P D K C T S W R N Z,5f26cf3dcb907d03e50a6f95,26,Mężczyzna,2022-06-11_09h16.48.579,task,2021.1.4,Win32,59.83366242,6299f149e92ead563fba08ef,62a441490214da0dfb32d112,,,,,,,,,,,,,,,,,,,,,,,,,,,,,,,,,,,,,,,,,,,,,,,,,,,,,,,,,,,,,,,,,,,,,,,,,,,,,,,,,,,,,,,,,,,,,,,,,,,,,
,,,,,,5,0,5,0,1,X V Q F H G B L J M P D K C T S W R N Z,5f26cf3dcb907d03e50a6f95,26,Mężczyzna,2022-06-11_09h16.48.579,task,2021.1.4,Win32,59.83366242,6299f149e92ead563fba08ef,62a441490214da0dfb32d112,,,,,,,,,,,,,,,,,,,,,,,,,,,,,,,,,,,,,,,,,,,,,,,,,,,,,,,,,,,,,,,,,,,,,,,,,,,,,,,,,,,,,,,,,,,,,,,,,,,,,
,,,,,,6,0,6,0,1,X V Q F H G B L J M P D K C T S W R N Z,5f26cf3dcb907d03e50a6f95,26,Mężczyzna,2022-06-11_09h16.48.579,task,2021.1.4,Win32,59.83366242,6299f149e92ead563fba08ef,62a441490214da0dfb32d112,,,,,,,,,,,,,,,,,,,,,,,,,,,,,,,,,,,,,,,,,,,,,,,,,,,,,,,,,,,,,,,,,,,,,,,,,,,,,,,,,,,,,,,,,,,,,,,,,,,,,
,,,,,,,,,,,,5f26cf3dcb907d03e50a6f95,26,Mężczyzna,2022-06-11_09h16.48.579,task,2021.1.4,Win32,59.83366242,6299f149e92ead563fba08ef,62a441490214da0dfb32d112,brljnll,"[""b"",""r"",""l"",""j"",""n"",""l"",""l""]","[1.7489000000000203,1.8526000000000522,1.9056000000000495,3.6171000000000504,3.837200000000024,4.098900000000015,4.222200000000015,5.939400000000035]",1,BRLJNLL,12,0,12,0,1,,,,,,,,,,,,,,,,,,,,,,,,,,,,,,,,,,,,,,,,,,,,,,,,,,,,,,,,,,,,,,,,,,,,,,,,,,,,,,,,,,,,,,,,,,,
,,,,,,0,0,0,0,1,X V Q F H G B L J M P D K C T S W R N Z,5f26cf3dcb907d03e50a6f95,26,Mężczyzna,2022-06-11_09h16.48.579,task,2021.1.4,Win32,59.83366242,6299f149e92ead563fba08ef,62a441490214da0dfb32d112,,,,,,,,,,,,,,,,,,,,,,,,,,,,,,,,,,,,,,,,,,,,,,,,,,,,,,,,,,,,,,,,,,,,,,,,,,,,,,,,,,,,,,,,,,,,,,,,,,,,,
,,,,,,1,0,1,0,1,X V Q F H G B L J M P D K C T S W R N Z,5f26cf3dcb907d03e50a6f95,26,Mężczyzna,2022-06-11_09h16.48.579,task,2021.1.4,Win32,59.83366242,6299f149e92ead563fba08ef,62a441490214da0dfb32d112,,,,,,,,,,,,,,,,,,,,,,,,,,,,,,,,,,,,,,,,,,,,,,,,,,,,,,,,,,,,,,,,,,,,,,,,,,,,,,,,,,,,,,,,,,,,,,,,,,,,,
,,,,,,2,0,2,0,1,X V Q F H G B L J M P D K C T S W R N Z,5f26cf3dcb907d03e50a6f95,26,Mężczyzna,2022-06-11_09h16.48.579,task,2021.1.4,Win32,59.83366242,6299f149e92ead563fba08ef,62a441490214da0dfb32d112,,,,,,,,,,,,,,,,,,,,,,,,,,,,,,,,,,,,,,,,,,,,,,,,,,,,,,,,,,,,,,,,,,,,,,,,,,,,,,,,,,,,,,,,,,,,,,,,,,,,,
,,,,,,3,0,3,0,1,X V Q F H G B L J M P D K C T S W R N Z,5f26cf3dcb907d03e50a6f95,26,Mężczyzna,2022-06-11_09h16.48.579,task,2021.1.4,Win32,59.83366242,6299f149e92ead563fba08ef,62a441490214da0dfb32d112,,,,,,,,,,,,,,,,,,,,,,,,,,,,,,,,,,,,,,,,,,,,,,,,,,,,,,,,,,,,,,,,,,,,,,,,,,,,,,,,,,,,,,,,,,,,,,,,,,,,,
,,,,,,4,0,4,0,1,X V Q F H G B L J M P D K C T S W R N Z,5f26cf3dcb907d03e50a6f95,26,Mężczyzna,2022-06-11_09h16.48.579,task,2021.1.4,Win32,59.83366242,6299f149e92ead563fba08ef,62a441490214da0dfb32d112,,,,,,,,,,,,,,,,,,,,,,,,,,,,,,,,,,,,,,,,,,,,,,,,,,,,,,,,,,,,,,,,,,,,,,,,,,,,,,,,,,,,,,,,,,,,,,,,,,,,,
,,,,,,5,0,5,0,1,X V Q F H G B L J M P D K C T S W R N Z,5f26cf3dcb907d03e50a6f95,26,Mężczyzna,2022-06-11_09h16.48.579,task,2021.1.4,Win32,59.83366242,6299f149e92ead563fba08ef,62a441490214da0dfb32d112,,,,,,,,,,,,,,,,,,,,,,,,,,,,,,,,,,,,,,,,,,,,,,,,,,,,,,,,,,,,,,,,,,,,,,,,,,,,,,,,,,,,,,,,,,,,,,,,,,,,,
,,,,,,6,0,6,0,1,X V Q F H G B L J M P D K C T S W R N Z,5f26cf3dcb907d03e50a6f95,26,Mężczyzna,2022-06-11_09h16.48.579,task,2021.1.4,Win32,59.83366242,6299f149e92ead563fba08ef,62a441490214da0dfb32d112,,,,,,,,,,,,,,,,,,,,,,,,,,,,,,,,,,,,,,,,,,,,,,,,,,,,,,,,,,,,,,,,,,,,,,,,,,,,,,,,,,,,,,,,,,,,,,,,,,,,,
,,,,,,7,0,7,0,1,X V Q F H G B L J M P D K C T S W R N Z,5f26cf3dcb907d03e50a6f95,26,Mężczyzna,2022-06-11_09h16.48.579,task,2021.1.4,Win32,59.83366242,6299f149e92ead563fba08ef,62a441490214da0dfb32d112,,,,,,,,,,,,,,,,,,,,,,,,,,,,,,,,,,,,,,,,,,,,,,,,,,,,,,,,,,,,,,,,,,,,,,,,,,,,,,,,,,,,,,,,,,,,,,,,,,,,,
,,,,,,,,,,,,5f26cf3dcb907d03e50a6f95,26,Mężczyzna,2022-06-11_09h16.48.579,task,2021.1.4,Win32,59.83366242,6299f149e92ead563fba08ef,62a441490214da0dfb32d112,pblxqkcr,"[""p"",""b"",""l"",""x"",""q"",""k"",""c"",""r""]","[1.6593000000000018,1.7669000000000494,1.8705000000000211,2.0174000000000376,2.7990000000000066,3.4170000000000016,4.068299999999994,4.183799999999991,4.956400000000031]",1,PBLXQKCR,13,0,13,0,1,,,,,,,,,,,,,,,,,,,,,,,,,,,,,,,,,,,,,,,,,,,,,,,,,,,,,,,,,,,,,,,,,,,,,,,,,,,,,,,,,,,,,,,,,,,
,,,,,,0,0,0,0,1,X V Q F H G B L J M P D K C T S W R N Z,5f26cf3dcb907d03e50a6f95,26,Mężczyzna,2022-06-11_09h16.48.579,task,2021.1.4,Win32,59.83366242,6299f149e92ead563fba08ef,62a441490214da0dfb32d112,,,,,,,,,,,,,,,,,,,,,,,,,,,,,,,,,,,,,,,,,,,,,,,,,,,,,,,,,,,,,,,,,,,,,,,,,,,,,,,,,,,,,,,,,,,,,,,,,,,,,
,,,,,,1,0,1,0,1,X V Q F H G B L J M P D K C T S W R N Z,5f26cf3dcb907d03e50a6f95,26,Mężczyzna,2022-06-11_09h16.48.579,task,2021.1.4,Win32,59.83366242,6299f149e92ead563fba08ef,62a441490214da0dfb32d112,,,,,,,,,,,,,,,,,,,,,,,,,,,,,,,,,,,,,,,,,,,,,,,,,,,,,,,,,,,,,,,,,,,,,,,,,,,,,,,,,,,,,,,,,,,,,,,,,,,,,
,,,,,,2,0,2,0,1,X V Q F H G B L J M P D K C T S W R N Z,5f26cf3dcb907d03e50a6f95,26,Mężczyzna,2022-06-11_09h16.48.579,task,2021.1.4,Win32,59.83366242,6299f149e92ead563fba08ef,62a441490214da0dfb32d112,,,,,,,,,,,,,,,,,,,,,,,,,,,,,,,,,,,,,,,,,,,,,,,,,,,,,,,,,,,,,,,,,,,,,,,,,,,,,,,,,,,,,,,,,,,,,,,,,,,,,
,,,,,,3,0,3,0,1,X V Q F H G B L J M P D K C T S W R N Z,5f26cf3dcb907d03e50a6f95,26,Mężczyzna,2022-06-11_09h16.48.579,task,2021.1.4,Win32,59.83366242,6299f149e92ead563fba08ef,62a441490214da0dfb32d112,,,,,,,,,,,,,,,,,,,,,,,,,,,,,,,,,,,,,,,,,,,,,,,,,,,,,,,,,,,,,,,,,,,,,,,,,,,,,,,,,,,,,,,,,,,,,,,,,,,,,
,,,,,,4,0,4,0,1,X V Q F H G B L J M P D K C T S W R N Z,5f26cf3dcb907d03e50a6f95,26,Mężczyzna,2022-06-11_09h16.48.579,task,2021.1.4,Win32,59.83366242,6299f149e92ead563fba08ef,62a441490214da0dfb32d112,,,,,,,,,,,,,,,,,,,,,,,,,,,,,,,,,,,,,,,,,,,,,,,,,,,,,,,,,,,,,,,,,,,,,,,,,,,,,,,,,,,,,,,,,,,,,,,,,,,,,
,,,,,,5,0,5,0,1,X V Q F H G B L J M P D K C T S W R N Z,5f26cf3dcb907d03e50a6f95,26,Mężczyzna,2022-06-11_09h16.48.579,task,2021.1.4,Win32,59.83366242,6299f149e92ead563fba08ef,62a441490214da0dfb32d112,,,,,,,,,,,,,,,,,,,,,,,,,,,,,,,,,,,,,,,,,,,,,,,,,,,,,,,,,,,,,,,,,,,,,,,,,,,,,,,,,,,,,,,,,,,,,,,,,,,,,
,,,,,,6,0,6,0,1,X V Q F H G B L J M P D K C T S W R N Z,5f26cf3dcb907d03e50a6f95,26,Mężczyzna,2022-06-11_09h16.48.579,task,2021.1.4,Win32,59.83366242,6299f149e92ead563fba08ef,62a441490214da0dfb32d112,,,,,,,,,,,,,,,,,,,,,,,,,,,,,,,,,,,,,,,,,,,,,,,,,,,,,,,,,,,,,,,,,,,,,,,,,,,,,,,,,,,,,,,,,,,,,,,,,,,,,
,,,,,,7,0,7,0,1,X V Q F H G B L J M P D K C T S W R N Z,5f26cf3dcb907d03e50a6f95,26,Mężczyzna,2022-06-11_09h16.48.579,task,2021.1.4,Win32,59.83366242,6299f149e92ead563fba08ef,62a441490214da0dfb32d112,,,,,,,,,,,,,,,,,,,,,,,,,,,,,,,,,,,,,,,,,,,,,,,,,,,,,,,,,,,,,,,,,,,,,,,,,,,,,,,,,,,,,,,,,,,,,,,,,,,,,
,,,,,,,,,,,,5f26cf3dcb907d03e50a6f95,26,Mężczyzna,2022-06-11_09h16.48.579,task,2021.1.4,Win32,59.83366242,6299f149e92ead563fba08ef,62a441490214da0dfb32d112,xmdkplcx,"[""x"",""m"",""d"",""k"",""p"",""l"",""c"",""x""]","[3.334000000000003,3.473700000000008,3.5819999999999936,4.357699999999994,4.700700000000012,4.902500000000003,5.035299999999978,5.3875999999999635,5.732799999999969]",1,XMDKPLCX,14,0,14,0,1,,,,,,,,,,,,,,,,,,,,,,,,,,,,,,,,,,,,,,,,,,,,,,,,,,,,,,,,,,,,,,,,,,,,,,,,,,,,,,,,,,,,,,,,,,,
,,,,,,0,0,0,0,1,X V Q F H G B L J M P D K C T S W R N Z,5f26cf3dcb907d03e50a6f95,26,Mężczyzna,2022-06-11_09h16.48.579,task,2021.1.4,Win32,59.83366242,6299f149e92ead563fba08ef,62a441490214da0dfb32d112,,,,,,,,,,,,,,,,,,,,,,,,,,,,,,,,,,,,,,,,,,,,,,,,,,,,,,,,,,,,,,,,,,,,,,,,,,,,,,,,,,,,,,,,,,,,,,,,,,,,,
,,,,,,1,0,1,0,1,X V Q F H G B L J M P D K C T S W R N Z,5f26cf3dcb907d03e50a6f95,26,Mężczyzna,2022-06-11_09h16.48.579,task,2021.1.4,Win32,59.83366242,6299f149e92ead563fba08ef,62a441490214da0dfb32d112,,,,,,,,,,,,,,,,,,,,,,,,,,,,,,,,,,,,,,,,,,,,,,,,,,,,,,,,,,,,,,,,,,,,,,,,,,,,,,,,,,,,,,,,,,,,,,,,,,,,,
,,,,,,2,0,2,0,1,X V Q F H G B L J M P D K C T S W R N Z,5f26cf3dcb907d03e50a6f95,26,Mężczyzna,2022-06-11_09h16.48.579,task,2021.1.4,Win32,59.83366242,6299f149e92ead563fba08ef,62a441490214da0dfb32d112,,,,,,,,,,,,,,,,,,,,,,,,,,,,,,,,,,,,,,,,,,,,,,,,,,,,,,,,,,,,,,,,,,,,,,,,,,,,,,,,,,,,,,,,,,,,,,,,,,,,,
,,,,,,3,0,3,0,1,X V Q F H G B L J M P D K C T S W R N Z,5f26cf3dcb907d03e50a6f95,26,Mężczyzna,2022-06-11_09h16.48.579,task,2021.1.4,Win32,59.83366242,6299f149e92ead563fba08ef,62a441490214da0dfb32d112,,,,,,,,,,,,,,,,,,,,,,,,,,,,,,,,,,,,,,,,,,,,,,,,,,,,,,,,,,,,,,,,,,,,,,,,,,,,,,,,,,,,,,,,,,,,,,,,,,,,,
,,,,,,4,0,4,0,1,X V Q F H G B L J M P D K C T S W R N Z,5f26cf3dcb907d03e50a6f95,26,Mężczyzna,2022-06-11_09h16.48.579,task,2021.1.4,Win32,59.83366242,6299f149e92ead563fba08ef,62a441490214da0dfb32d112,,,,,,,,,,,,,,,,,,,,,,,,,,,,,,,,,,,,,,,,,,,,,,,,,,,,,,,,,,,,,,,,,,,,,,,,,,,,,,,,,,,,,,,,,,,,,,,,,,,,,
,,,,,,5,0,5,0,1,X V Q F H G B L J M P D K C T S W R N Z,5f26cf3dcb907d03e50a6f95,26,Mężczyzna,2022-06-11_09h16.48.579,task,2021.1.4,Win32,59.83366242,6299f149e92ead563fba08ef,62a441490214da0dfb32d112,,,,,,,,,,,,,,,,,,,,,,,,,,,,,,,,,,,,,,,,,,,,,,,,,,,,,,,,,,,,,,,,,,,,,,,,,,,,,,,,,,,,,,,,,,,,,,,,,,,,,
,,,,,,6,0,6,0,1,X V Q F H G B L J M P D K C T S W R N Z,5f26cf3dcb907d03e50a6f95,26,Mężczyzna,2022-06-11_09h16.48.579,task,2021.1.4,Win32,59.83366242,6299f149e92ead563fba08ef,62a441490214da0dfb32d112,,,,,,,,,,,,,,,,,,,,,,,,,,,,,,,,,,,,,,,,,,,,,,,,,,,,,,,,,,,,,,,,,,,,,,,,,,,,,,,,,,,,,,,,,,,,,,,,,,,,,
,,,,,,7,0,7,0,1,X V Q F H G B L J M P D K C T S W R N Z,5f26cf3dcb907d03e50a6f95,26,Mężczyzna,2022-06-11_09h16.48.579,task,2021.1.4,Win32,59.83366242,6299f149e92ead563fba08ef,62a441490214da0dfb32d112,,,,,,,,,,,,,,,,,,,,,,,,,,,,,,,,,,,,,,,,,,,,,,,,,,,,,,,,,,,,,,,,,,,,,,,,,,,,,,,,,,,,,,,,,,,,,,,,,,,,,
,,,,,,8,0,8,0,1,X V Q F H G B L J M P D K C T S W R N Z,5f26cf3dcb907d03e50a6f95,26,Mężczyzna,2022-06-11_09h16.48.579,task,2021.1.4,Win32,59.83366242,6299f149e92ead563fba08ef,62a441490214da0dfb32d112,,,,,,,,,,,,,,,,,,,,,,,,,,,,,,,,,,,,,,,,,,,,,,,,,,,,,,,,,,,,,,,,,,,,,,,,,,,,,,,,,,,,,,,,,,,,,,,,,,,,,
,,,,,,,,,,,,5f26cf3dcb907d03e50a6f95,26,Mężczyzna,2022-06-11_09h16.48.579,task,2021.1.4,Win32,59.83366242,6299f149e92ead563fba08ef,62a441490214da0dfb32d112,rdpqgfjkn,"[""r"",""d"",""p"",""q"",""g"",""f"",""j"",""k"",""n""]","[3.766999999999996,4.155900000000031,4.275100000000066,4.627499999999998,5.0504999999999995,5.267700000000048,5.461200000000076,5.694300000000055,5.884999999999991,10.100700000000074]",1,RDPQGFJKN,15,0,15,0,1,,,,,,,,,,,,,,,,,,,,,,,,,,,,,,,,,,,,,,,,,,,,,,,,,,,,,,,,,,,,,,,,,,,,,,,,,,,,,,,,,,,,,,,,,,,
,,,,,,0,0,0,0,1,X V Q F H G B L J M P D K C T S W R N Z,5f26cf3dcb907d03e50a6f95,26,Mężczyzna,2022-06-11_09h16.48.579,task,2021.1.4,Win32,59.83366242,6299f149e92ead563fba08ef,62a441490214da0dfb32d112,,,,,,,,,,,,,,,,,,,,,,,,,,,,,,,,,,,,,,,,,,,,,,,,,,,,,,,,,,,,,,,,,,,,,,,,,,,,,,,,,,,,,,,,,,,,,,,,,,,,,
,,,,,,1,0,1,0,1,X V Q F H G B L J M P D K C T S W R N Z,5f26cf3dcb907d03e50a6f95,26,Mężczyzna,2022-06-11_09h16.48.579,task,2021.1.4,Win32,59.83366242,6299f149e92ead563fba08ef,62a441490214da0dfb32d112,,,,,,,,,,,,,,,,,,,,,,,,,,,,,,,,,,,,,,,,,,,,,,,,,,,,,,,,,,,,,,,,,,,,,,,,,,,,,,,,,,,,,,,,,,,,,,,,,,,,,
,,,,,,2,0,2,0,1,X V Q F H G B L J M P D K C T S W R N Z,5f26cf3dcb907d03e50a6f95,26,Mężczyzna,2022-06-11_09h16.48.579,task,2021.1.4,Win32,59.83366242,6299f149e92ead563fba08ef,62a441490214da0dfb32d112,,,,,,,,,,,,,,,,,,,,,,,,,,,,,,,,,,,,,,,,,,,,,,,,,,,,,,,,,,,,,,,,,,,,,,,,,,,,,,,,,,,,,,,,,,,,,,,,,,,,,
,,,,,,3,0,3,0,1,X V Q F H G B L J M P D K C T S W R N Z,5f26cf3dcb907d03e50a6f95,26,Mężczyzna,2022-06-11_09h16.48.579,task,2021.1.4,Win32,59.83366242,6299f149e92ead563fba08ef,62a441490214da0dfb32d112,,,,,,,,,,,,,,,,,,,,,,,,,,,,,,,,,,,,,,,,,,,,,,,,,,,,,,,,,,,,,,,,,,,,,,,,,,,,,,,,,,,,,,,,,,,,,,,,,,,,,
,,,,,,4,0,4,0,1,X V Q F H G B L J M P D K C T S W R N Z,5f26cf3dcb907d03e50a6f95,26,Mężczyzna,2022-06-11_09h16.48.579,task,2021.1.4,Win32,59.83366242,6299f149e92ead563fba08ef,62a441490214da0dfb32d112,,,,,,,,,,,,,,,,,,,,,,,,,,,,,,,,,,,,,,,,,,,,,,,,,,,,,,,,,,,,,,,,,,,,,,,,,,,,,,,,,,,,,,,,,,,,,,,,,,,,,
,,,,,,5,0,5,0,1,X V Q F H G B L J M P D K C T S W R N Z,5f26cf3dcb907d03e50a6f95,26,Mężczyzna,2022-06-11_09h16.48.579,task,2021.1.4,Win32,59.83366242,6299f149e92ead563fba08ef,62a441490214da0dfb32d112,,,,,,,,,,,,,,,,,,,,,,,,,,,,,,,,,,,,,,,,,,,,,,,,,,,,,,,,,,,,,,,,,,,,,,,,,,,,,,,,,,,,,,,,,,,,,,,,,,,,,
,,,,,,6,0,6,0,1,X V Q F H G B L J M P D K C T S W R N Z,5f26cf3dcb907d03e50a6f95,26,Mężczyzna,2022-06-11_09h16.48.579,task,2021.1.4,Win32,59.83366242,6299f149e92ead563fba08ef,62a441490214da0dfb32d112,,,,,,,,,,,,,,,,,,,,,,,,,,,,,,,,,,,,,,,,,,,,,,,,,,,,,,,,,,,,,,,,,,,,,,,,,,,,,,,,,,,,,,,,,,,,,,,,,,,,,
,,,,,,7,0,7,0,1,X V Q F H G B L J M P D K C T S W R N Z,5f26cf3dcb907d03e50a6f95,26,Mężczyzna,2022-06-11_09h16.48.579,task,2021.1.4,Win32,59.83366242,6299f149e92ead563fba08ef,62a441490214da0dfb32d112,,,,,,,,,,,,,,,,,,,,,,,,,,,,,,,,,,,,,,,,,,,,,,,,,,,,,,,,,,,,,,,,,,,,,,,,,,,,,,,,,,,,,,,,,,,,,,,,,,,,,
,,,,,,8,0,8,0,1,X V Q F H G B L J M P D K C T S W R N Z,5f26cf3dcb907d03e50a6f95,26,Mężczyzna,2022-06-11_09h16.48.579,task,2021.1.4,Win32,59.83366242,6299f149e92ead563fba08ef,62a441490214da0dfb32d112,,,,,,,,,,,,,,,,,,,,,,,,,,,,,,,,,,,,,,,,,,,,,,,,,,,,,,,,,,,,,,,,,,,,,,,,,,,,,,,,,,,,,,,,,,,,,,,,,,,,,
,,,,,,,,,,,,5f26cf3dcb907d03e50a6f95,26,Mężczyzna,2022-06-11_09h16.48.579,task,2021.1.4,Win32,59.83366242,6299f149e92ead563fba08ef,62a441490214da0dfb32d112,dxbgqwpzr,"[""d"",""x"",""b"",""g"",""q"",""w"",""p"",""z"",""r""]","[1.8174999999999955,1.932299999999941,2.30559999999997,7.666499999999985,7.725000000000023,8.351699999999937,8.41679999999991,8.62179999999995,8.783000000000015,9.115999999999985]",1,DXBGQWPZR,16,0,16,0,1,,,,,,,,,,,,,,,,,,,,,,,,,,,,,,,,,,,,,,,,,,,,,,,,,,,,,,,,,,,,,,,,,,,,,,,,,,,,,,,,,,,,,,,,,,,
,,,,,,0,0,0,0,1,X V Q F H G B L J M P D K C T S W R N Z,5f26cf3dcb907d03e50a6f95,26,Mężczyzna,2022-06-11_09h16.48.579,task,2021.1.4,Win32,59.83366242,6299f149e92ead563fba08ef,62a441490214da0dfb32d112,,,,,,,,,,,,,,,,,,,,,,,,,,,,,,,,,,,,,,,,,,,,,,,,,,,,,,,,,,,,,,,,,,,,,,,,,,,,,,,,,,,,,,,,,,,,,,,,,,,,,
,,,,,,1,0,1,0,1,X V Q F H G B L J M P D K C T S W R N Z,5f26cf3dcb907d03e50a6f95,26,Mężczyzna,2022-06-11_09h16.48.579,task,2021.1.4,Win32,59.83366242,6299f149e92ead563fba08ef,62a441490214da0dfb32d112,,,,,,,,,,,,,,,,,,,,,,,,,,,,,,,,,,,,,,,,,,,,,,,,,,,,,,,,,,,,,,,,,,,,,,,,,,,,,,,,,,,,,,,,,,,,,,,,,,,,,
,,,,,,2,0,2,0,1,X V Q F H G B L J M P D K C T S W R N Z,5f26cf3dcb907d03e50a6f95,26,Mężczyzna,2022-06-11_09h16.48.579,task,2021.1.4,Win32,59.83366242,6299f149e92ead563fba08ef,62a441490214da0dfb32d112,,,,,,,,,,,,,,,,,,,,,,,,,,,,,,,,,,,,,,,,,,,,,,,,,,,,,,,,,,,,,,,,,,,,,,,,,,,,,,,,,,,,,,,,,,,,,,,,,,,,,
,,,,,,3,0,3,0,1,X V Q F H G B L J M P D K C T S W R N Z,5f26cf3dcb907d03e50a6f95,26,Mężczyzna,2022-06-11_09h16.48.579,task,2021.1.4,Win32,59.83366242,6299f149e92ead563fba08ef,62a441490214da0dfb32d112,,,,,,,,,,,,,,,,,,,,,,,,,,,,,,,,,,,,,,,,,,,,,,,,,,,,,,,,,,,,,,,,,,,,,,,,,,,,,,,,,,,,,,,,,,,,,,,,,,,,,
,,,,,,4,0,4,0,1,X V Q F H G B L J M P D K C T S W R N Z,5f26cf3dcb907d03e50a6f95,26,Mężczyzna,2022-06-11_09h16.48.579,task,2021.1.4,Win32,59.83366242,6299f149e92ead563fba08ef,62a441490214da0dfb32d112,,,,,,,,,,,,,,,,,,,,,,,,,,,,,,,,,,,,,,,,,,,,,,,,,,,,,,,,,,,,,,,,,,,,,,,,,,,,,,,,,,,,,,,,,,,,,,,,,,,,,
,,,,,,5,0,5,0,1,X V Q F H G B L J M P D K C T S W R N Z,5f26cf3dcb907d03e50a6f95,26,Mężczyzna,2022-06-11_09h16.48.579,task,2021.1.4,Win32,59.83366242,6299f149e92ead563fba08ef,62a441490214da0dfb32d112,,,,,,,,,,,,,,,,,,,,,,,,,,,,,,,,,,,,,,,,,,,,,,,,,,,,,,,,,,,,,,,,,,,,,,,,,,,,,,,,,,,,,,,,,,,,,,,,,,,,,
,,,,,,6,0,6,0,1,X V Q F H G B L J M P D K C T S W R N Z,5f26cf3dcb907d03e50a6f95,26,Mężczyzna,2022-06-11_09h16.48.579,task,2021.1.4,Win32,59.83366242,6299f149e92ead563fba08ef,62a441490214da0dfb32d112,,,,,,,,,,,,,,,,,,,,,,,,,,,,,,,,,,,,,,,,,,,,,,,,,,,,,,,,,,,,,,,,,,,,,,,,,,,,,,,,,,,,,,,,,,,,,,,,,,,,,
,,,,,,7,0,7,0,1,X V Q F H G B L J M P D K C T S W R N Z,5f26cf3dcb907d03e50a6f95,26,Mężczyzna,2022-06-11_09h16.48.579,task,2021.1.4,Win32,59.83366242,6299f149e92ead563fba08ef,62a441490214da0dfb32d112,,,,,,,,,,,,,,,,,,,,,,,,,,,,,,,,,,,,,,,,,,,,,,,,,,,,,,,,,,,,,,,,,,,,,,,,,,,,,,,,,,,,,,,,,,,,,,,,,,,,,
,,,,,,8,0,8,0,1,X V Q F H G B L J M P D K C T S W R N Z,5f26cf3dcb907d03e50a6f95,26,Mężczyzna,2022-06-11_09h16.48.579,task,2021.1.4,Win32,59.83366242,6299f149e92ead563fba08ef,62a441490214da0dfb32d112,,,,,,,,,,,,,,,,,,,,,,,,,,,,,,,,,,,,,,,,,,,,,,,,,,,,,,,,,,,,,,,,,,,,,,,,,,,,,,,,,,,,,,,,,,,,,,,,,,,,,
,,,,,,9,0,9,0,1,X V Q F H G B L J M P D K C T S W R N Z,5f26cf3dcb907d03e50a6f95,26,Mężczyzna,2022-06-11_09h16.48.579,task,2021.1.4,Win32,59.83366242,6299f149e92ead563fba08ef,62a441490214da0dfb32d112,,,,,,,,,,,,,,,,,,,,,,,,,,,,,,,,,,,,,,,,,,,,,,,,,,,,,,,,,,,,,,,,,,,,,,,,,,,,,,,,,,,,,,,,,,,,,,,,,,,,,
,,,,,,,,,,,,5f26cf3dcb907d03e50a6f95,26,Mężczyzna,2022-06-11_09h16.48.579,task,2021.1.4,Win32,59.83366242,6299f149e92ead563fba08ef,62a441490214da0dfb32d112,fjgtzpc,"[""f"",""j"",""g"",""t"",""z"",""p"",""c""]","[0.7864999999999895,0.8921999999999457,2.6363000000000625,6.442199999999957,6.542099999999948,6.650499999999965,6.9051999999999225,9.319199999999967]",0,FJTHZGCTPL,17,0,17,0,1,,,,,,,,,,,,,,,,,,,,,,,,,,,,,,,,,,,,,,,,,,,,,,,,,,,,,,,,,,,,,,,,,,,,,,,,,,,,,,,,,,,,,,,,,,,
,,,,,,0,0,0,0,1,X V Q F H G B L J M P D K C T S W R N Z,5f26cf3dcb907d03e50a6f95,26,Mężczyzna,2022-06-11_09h16.48.579,task,2021.1.4,Win32,59.83366242,6299f149e92ead563fba08ef,62a441490214da0dfb32d112,,,,,,,,,,,,,,,,,,,,,,,,,,,,,,,,,,,,,,,,,,,,,,,,,,,,,,,,,,,,,,,,,,,,,,,,,,,,,,,,,,,,,,,,,,,,,,,,,,,,,
,,,,,,1,0,1,0,1,X V Q F H G B L J M P D K C T S W R N Z,5f26cf3dcb907d03e50a6f95,26,Mężczyzna,2022-06-11_09h16.48.579,task,2021.1.4,Win32,59.83366242,6299f149e92ead563fba08ef,62a441490214da0dfb32d112,,,,,,,,,,,,,,,,,,,,,,,,,,,,,,,,,,,,,,,,,,,,,,,,,,,,,,,,,,,,,,,,,,,,,,,,,,,,,,,,,,,,,,,,,,,,,,,,,,,,,
,,,,,,2,0,2,0,1,X V Q F H G B L J M P D K C T S W R N Z,5f26cf3dcb907d03e50a6f95,26,Mężczyzna,2022-06-11_09h16.48.579,task,2021.1.4,Win32,59.83366242,6299f149e92ead563fba08ef,62a441490214da0dfb32d112,,,,,,,,,,,,,,,,,,,,,,,,,,,,,,,,,,,,,,,,,,,,,,,,,,,,,,,,,,,,,,,,,,,,,,,,,,,,,,,,,,,,,,,,,,,,,,,,,,,,,
,,,,,,3,0,3,0,1,X V Q F H G B L J M P D K C T S W R N Z,5f26cf3dcb907d03e50a6f95,26,Mężczyzna,2022-06-11_09h16.48.579,task,2021.1.4,Win32,59.83366242,6299f149e92ead563fba08ef,62a441490214da0dfb32d112,,,,,,,,,,,,,,,,,,,,,,,,,,,,,,,,,,,,,,,,,,,,,,,,,,,,,,,,,,,,,,,,,,,,,,,,,,,,,,,,,,,,,,,,,,,,,,,,,,,,,
,,,,,,4,0,4,0,1,X V Q F H G B L J M P D K C T S W R N Z,5f26cf3dcb907d03e50a6f95,26,Mężczyzna,2022-06-11_09h16.48.579,task,2021.1.4,Win32,59.83366242,6299f149e92ead563fba08ef,62a441490214da0dfb32d112,,,,,,,,,,,,,,,,,,,,,,,,,,,,,,,,,,,,,,,,,,,,,,,,,,,,,,,,,,,,,,,,,,,,,,,,,,,,,,,,,,,,,,,,,,,,,,,,,,,,,
,,,,,,5,0,5,0,1,X V Q F H G B L J M P D K C T S W R N Z,5f26cf3dcb907d03e50a6f95,26,Mężczyzna,2022-06-11_09h16.48.579,task,2021.1.4,Win32,59.83366242,6299f149e92ead563fba08ef,62a441490214da0dfb32d112,,,,,,,,,,,,,,,,,,,,,,,,,,,,,,,,,,,,,,,,,,,,,,,,,,,,,,,,,,,,,,,,,,,,,,,,,,,,,,,,,,,,,,,,,,,,,,,,,,,,,
,,,,,,6,0,6,0,1,X V Q F H G B L J M P D K C T S W R N Z,5f26cf3dcb907d03e50a6f95,26,Mężczyzna,2022-06-11_09h16.48.579,task,2021.1.4,Win32,59.83366242,6299f149e92ead563fba08ef,62a441490214da0dfb32d112,,,,,,,,,,,,,,,,,,,,,,,,,,,,,,,,,,,,,,,,,,,,,,,,,,,,,,,,,,,,,,,,,,,,,,,,,,,,,,,,,,,,,,,,,,,,,,,,,,,,,
,,,,,,7,0,7,0,1,X V Q F H G B L J M P D K C T S W R N Z,5f26cf3dcb907d03e50a6f95,26,Mężczyzna,2022-06-11_09h16.48.579,task,2021.1.4,Win32,59.83366242,6299f149e92ead563fba08ef,62a441490214da0dfb32d112,,,,,,,,,,,,,,,,,,,,,,,,,,,,,,,,,,,,,,,,,,,,,,,,,,,,,,,,,,,,,,,,,,,,,,,,,,,,,,,,,,,,,,,,,,,,,,,,,,,,,
,,,,,,8,0,8,0,1,X V Q F H G B L J M P D K C T S W R N Z,5f26cf3dcb907d03e50a6f95,26,Mężczyzna,2022-06-11_09h16.48.579,task,2021.1.4,Win32,59.83366242,6299f149e92ead563fba08ef,62a441490214da0dfb32d112,,,,,,,,,,,,,,,,,,,,,,,,,,,,,,,,,,,,,,,,,,,,,,,,,,,,,,,,,,,,,,,,,,,,,,,,,,,,,,,,,,,,,,,,,,,,,,,,,,,,,
,,,,,,9,0,9,0,1,X V Q F H G B L J M P D K C T S W R N Z,5f26cf3dcb907d03e50a6f95,26,Mężczyzna,2022-06-11_09h16.48.579,task,2021.1.4,Win32,59.83366242,6299f149e92ead563fba08ef,62a441490214da0dfb32d112,,,,,,,,,,,,,,,,,,,,,,,,,,,,,,,,,,,,,,,,,,,,,,,,,,,,,,,,,,,,,,,,,,,,,,,,,,,,,,,,,,,,,,,,,,,,,,,,,,,,,
,,,,,,,,,,,,5f26cf3dcb907d03e50a6f95,26,Mężczyzna,2022-06-11_09h16.48.579,task,2021.1.4,Win32,59.83366242,6299f149e92ead563fba08ef,62a441490214da0dfb32d112,jdvpwkknld,"[""j"",""d"",""v"",""p"",""w"",""k"",""k"",""n"",""l"",""d""]","[2.039299999999912,2.1334999999999695,2.2554999999999836,2.3192999999999415,3.039299999999912,3.126299999999901,3.9092999999999165,4.499899999999911,4.683299999999917,4.77129999999994,5.518199999999922]",1,JDVPWKKNLD,18,0,18,0,1,,,,,,,,,,,,,,,,,,,,,,,,,,,,,,,,,,,,,,,,,,,,,,,,,,,,,,,,,,,,,,,,,,,,,,,,,,,,,,,,,,,,,,,,,,,
,,,,,,0,0,0,0,1,X V Q F H G B L J M P D K C T S W R N Z,5f26cf3dcb907d03e50a6f95,26,Mężczyzna,2022-06-11_09h16.48.579,task,2021.1.4,Win32,59.83366242,6299f149e92ead563fba08ef,62a441490214da0dfb32d112,,,,,,,,,,,,,,,,,,,,,,,,,,,,,,,,,,,,,,,,,,,,,,,,,,,,,,,,,,,,,,,,,,,,,,,,,,,,,,,,,,,,,,,,,,,,,,,,,,,,,
,,,,,,1,0,1,0,1,X V Q F H G B L J M P D K C T S W R N Z,5f26cf3dcb907d03e50a6f95,26,Mężczyzna,2022-06-11_09h16.48.579,task,2021.1.4,Win32,59.83366242,6299f149e92ead563fba08ef,62a441490214da0dfb32d112,,,,,,,,,,,,,,,,,,,,,,,,,,,,,,,,,,,,,,,,,,,,,,,,,,,,,,,,,,,,,,,,,,,,,,,,,,,,,,,,,,,,,,,,,,,,,,,,,,,,,
,,,,,,2,0,2,0,1,X V Q F H G B L J M P D K C T S W R N Z,5f26cf3dcb907d03e50a6f95,26,Mężczyzna,2022-06-11_09h16.48.579,task,2021.1.4,Win32,59.83366242,6299f149e92ead563fba08ef,62a441490214da0dfb32d112,,,,,,,,,,,,,,,,,,,,,,,,,,,,,,,,,,,,,,,,,,,,,,,,,,,,,,,,,,,,,,,,,,,,,,,,,,,,,,,,,,,,,,,,,,,,,,,,,,,,,
,,,,,,3,0,3,0,1,X V Q F H G B L J M P D K C T S W R N Z,5f26cf3dcb907d03e50a6f95,26,Mężczyzna,2022-06-11_09h16.48.579,task,2021.1.4,Win32,59.83366242,6299f149e92ead563fba08ef,62a441490214da0dfb32d112,,,,,,,,,,,,,,,,,,,,,,,,,,,,,,,,,,,,,,,,,,,,,,,,,,,,,,,,,,,,,,,,,,,,,,,,,,,,,,,,,,,,,,,,,,,,,,,,,,,,,
,,,,,,4,0,4,0,1,X V Q F H G B L J M P D K C T S W R N Z,5f26cf3dcb907d03e50a6f95,26,Mężczyzna,2022-06-11_09h16.48.579,task,2021.1.4,Win32,59.83366242,6299f149e92ead563fba08ef,62a441490214da0dfb32d112,,,,,,,,,,,,,,,,,,,,,,,,,,,,,,,,,,,,,,,,,,,,,,,,,,,,,,,,,,,,,,,,,,,,,,,,,,,,,,,,,,,,,,,,,,,,,,,,,,,,,
,,,,,,5,0,5,0,1,X V Q F H G B L J M P D K C T S W R N Z,5f26cf3dcb907d03e50a6f95,26,Mężczyzna,2022-06-11_09h16.48.579,task,2021.1.4,Win32,59.83366242,6299f149e92ead563fba08ef,62a441490214da0dfb32d112,,,,,,,,,,,,,,,,,,,,,,,,,,,,,,,,,,,,,,,,,,,,,,,,,,,,,,,,,,,,,,,,,,,,,,,,,,,,,,,,,,,,,,,,,,,,,,,,,,,,,
,,,,,,6,0,6,0,1,X V Q F H G B L J M P D K C T S W R N Z,5f26cf3dcb907d03e50a6f95,26,Mężczyzna,2022-06-11_09h16.48.579,task,2021.1.4,Win32,59.83366242,6299f149e92ead563fba08ef,62a441490214da0dfb32d112,,,,,,,,,,,,,,,,,,,,,,,,,,,,,,,,,,,,,,,,,,,,,,,,,,,,,,,,,,,,,,,,,,,,,,,,,,,,,,,,,,,,,,,,,,,,,,,,,,,,,
,,,,,,7,0,7,0,1,X V Q F H G B L J M P D K C T S W R N Z,5f26cf3dcb907d03e50a6f95,26,Mężczyzna,2022-06-11_09h16.48.579,task,2021.1.4,Win32,59.83366242,6299f149e92ead563fba08ef,62a441490214da0dfb32d112,,,,,,,,,,,,,,,,,,,,,,,,,,,,,,,,,,,,,,,,,,,,,,,,,,,,,,,,,,,,,,,,,,,,,,,,,,,,,,,,,,,,,,,,,,,,,,,,,,,,,
,,,,,,8,0,8,0,1,X V Q F H G B L J M P D K C T S W R N Z,5f26cf3dcb907d03e50a6f95,26,Mężczyzna,2022-06-11_09h16.48.579,task,2021.1.4,Win32,59.83366242,6299f149e92ead563fba08ef,62a441490214da0dfb32d112,,,,,,,,,,,,,,,,,,,,,,,,,,,,,,,,,,,,,,,,,,,,,,,,,,,,,,,,,,,,,,,,,,,,,,,,,,,,,,,,,,,,,,,,,,,,,,,,,,,,,
,,,,,,9,0,9,0,1,X V Q F H G B L J M P D K C T S W R N Z,5f26cf3dcb907d03e50a6f95,26,Mężczyzna,2022-06-11_09h16.48.579,task,2021.1.4,Win32,59.83366242,6299f149e92ead563fba08ef,62a441490214da0dfb32d112,,,,,,,,,,,,,,,,,,,,,,,,,,,,,,,,,,,,,,,,,,,,,,,,,,,,,,,,,,,,,,,,,,,,,,,,,,,,,,,,,,,,,,,,,,,,,,,,,,,,,
,,,,,,,,,,,,5f26cf3dcb907d03e50a6f95,26,Mężczyzna,2022-06-11_09h16.48.579,task,2021.1.4,Win32,59.83366242,6299f149e92ead563fba08ef,62a441490214da0dfb32d112,gbprcjxzps,"[""g"",""b"",""p"",""r"",""c"",""j"",""x"",""z"",""p"",""s""]","[1.9834000000000174,2.1732999999999265,2.237199999999973,4.816500000000019,5.1831999999999425,5.283500000000004,8.066299999999956,8.16640000000001,8.270199999999988,8.481799999999964,9.216099999999983]",1,GBPRCJXZPS,19,0,19,0,1,,,,,,,,,,,,,,,,,,,,,,,,,,,,,,,,,,,,,,,,,,,,,,,,,,,,,,,,,,,,,,,,,,,,,,,,,,,,,,,,,,,,,,,,,,,
,,,,,,0,0,0,0,1,X V Q F H G B L J M P D K C T S W R N Z,5f26cf3dcb907d03e50a6f95,26,Mężczyzna,2022-06-11_09h16.48.579,task,2021.1.4,Win32,59.83366242,6299f149e92ead563fba08ef,62a441490214da0dfb32d112,,,,,,,,,,,,,,,,,,,,,,,,,,,,,,,,,,,,,,,,,,,,,,,,,,,,,,,,,,,,,,,,,,,,,,,,,,,,,,,,,,,,,,,,,,,,,,,,,,,,,
,,,,,,1,0,1,0,1,X V Q F H G B L J M P D K C T S W R N Z,5f26cf3dcb907d03e50a6f95,26,Mężczyzna,2022-06-11_09h16.48.579,task,2021.1.4,Win32,59.83366242,6299f149e92ead563fba08ef,62a441490214da0dfb32d112,,,,,,,,,,,,,,,,,,,,,,,,,,,,,,,,,,,,,,,,,,,,,,,,,,,,,,,,,,,,,,,,,,,,,,,,,,,,,,,,,,,,,,,,,,,,,,,,,,,,,
,,,,,,2,0,2,0,1,X V Q F H G B L J M P D K C T S W R N Z,5f26cf3dcb907d03e50a6f95,26,Mężczyzna,2022-06-11_09h16.48.579,task,2021.1.4,Win32,59.83366242,6299f149e92ead563fba08ef,62a441490214da0dfb32d112,,,,,,,,,,,,,,,,,,,,,,,,,,,,,,,,,,,,,,,,,,,,,,,,,,,,,,,,,,,,,,,,,,,,,,,,,,,,,,,,,,,,,,,,,,,,,,,,,,,,,
,,,,,,3,0,3,0,1,X V Q F H G B L J M P D K C T S W R N Z,5f26cf3dcb907d03e50a6f95,26,Mężczyzna,2022-06-11_09h16.48.579,task,2021.1.4,Win32,59.83366242,6299f149e92ead563fba08ef,62a441490214da0dfb32d112,,,,,,,,,,,,,,,,,,,,,,,,,,,,,,,,,,,,,,,,,,,,,,,,,,,,,,,,,,,,,,,,,,,,,,,,,,,,,,,,,,,,,,,,,,,,,,,,,,,,,
,,,,,,4,0,4,0,1,X V Q F H G B L J M P D K C T S W R N Z,5f26cf3dcb907d03e50a6f95,26,Mężczyzna,2022-06-11_09h16.48.579,task,2021.1.4,Win32,59.83366242,6299f149e92ead563fba08ef,62a441490214da0dfb32d112,,,,,,,,,,,,,,,,,,,,,,,,,,,,,,,,,,,,,,,,,,,,,,,,,,,,,,,,,,,,,,,,,,,,,,,,,,,,,,,,,,,,,,,,,,,,,,,,,,,,,
,,,,,,5,0,5,0,1,X V Q F H G B L J M P D K C T S W R N Z,5f26cf3dcb907d03e50a6f95,26,Mężczyzna,2022-06-11_09h16.48.579,task,2021.1.4,Win32,59.83366242,6299f149e92ead563fba08ef,62a441490214da0dfb32d112,,,,,,,,,,,,,,,,,,,,,,,,,,,,,,,,,,,,,,,,,,,,,,,,,,,,,,,,,,,,,,,,,,,,,,,,,,,,,,,,,,,,,,,,,,,,,,,,,,,,,
,,,,,,6,0,6,0,1,X V Q F H G B L J M P D K C T S W R N Z,5f26cf3dcb907d03e50a6f95,26,Mężczyzna,2022-06-11_09h16.48.579,task,2021.1.4,Win32,59.83366242,6299f149e92ead563fba08ef,62a441490214da0dfb32d112,,,,,,,,,,,,,,,,,,,,,,,,,,,,,,,,,,,,,,,,,,,,,,,,,,,,,,,,,,,,,,,,,,,,,,,,,,,,,,,,,,,,,,,,,,,,,,,,,,,,,
,,,,,,7,0,7,0,1,X V Q F H G B L J M P D K C T S W R N Z,5f26cf3dcb907d03e50a6f95,26,Mężczyzna,2022-06-11_09h16.48.579,task,2021.1.4,Win32,59.83366242,6299f149e92ead563fba08ef,62a441490214da0dfb32d112,,,,,,,,,,,,,,,,,,,,,,,,,,,,,,,,,,,,,,,,,,,,,,,,,,,,,,,,,,,,,,,,,,,,,,,,,,,,,,,,,,,,,,,,,,,,,,,,,,,,,
,,,,,,8,0,8,0,1,X V Q F H G B L J M P D K C T S W R N Z,5f26cf3dcb907d03e50a6f95,26,Mężczyzna,2022-06-11_09h16.48.579,task,2021.1.4,Win32,59.83366242,6299f149e92ead563fba08ef,62a441490214da0dfb32d112,,,,,,,,,,,,,,,,,,,,,,,,,,,,,,,,,,,,,,,,,,,,,,,,,,,,,,,,,,,,,,,,,,,,,,,,,,,,,,,,,,,,,,,,,,,,,,,,,,,,,
,,,,,,9,0,9,0,1,X V Q F H G B L J M P D K C T S W R N Z,5f26cf3dcb907d03e50a6f95,26,Mężczyzna,2022-06-11_09h16.48.579,task,2021.1.4,Win32,59.83366242,6299f149e92ead563fba08ef,62a441490214da0dfb32d112,,,,,,,,,,,,,,,,,,,,,,,,,,,,,,,,,,,,,,,,,,,,,,,,,,,,,,,,,,,,,,,,,,,,,,,,,,,,,,,,,,,,,,,,,,,,,,,,,,,,,
,,,,,,10,0,10,0,1,X V Q F H G B L J M P D K C T S W R N Z,5f26cf3dcb907d03e50a6f95,26,Mężczyzna,2022-06-11_09h16.48.579,task,2021.1.4,Win32,59.83366242,6299f149e92ead563fba08ef,62a441490214da0dfb32d112,,,,,,,,,,,,,,,,,,,,,,,,,,,,,,,,,,,,,,,,,,,,,,,,,,,,,,,,,,,,,,,,,,,,,,,,,,,,,,,,,,,,,,,,,,,,,,,,,,,,,
,,,,,,,,,,,,5f26cf3dcb907d03e50a6f95,26,Mężczyzna,2022-06-11_09h16.48.579,task,2021.1.4,Win32,59.83366242,6299f149e92ead563fba08ef,62a441490214da0dfb32d112,mrmdsgklmjb,"[""m"",""r"",""m"",""d"",""s"",""g"",""k"",""l"",""m"",""j"",""b""]","[2.5206000000000017,2.583500000000015,2.667699999999968,4.849800000000073,4.9716999999999985,5.337699999999984,5.534699999999987,5.708699999999965,5.91700000000003,6.11669999999998,6.286600000000021,6.360699999999952]",0,MRMDSGKLTRB,20,0,20,0,1,,,,,,,,,,,,,,,,,,,,,,,,,,,,,,,,,,,,,,,,,,,,,,,,,,,,,,,,,,,,,,,,,,,,,,,,,,,,,,,,,,,,,,,,,,,
,,,,,,0,0,0,0,1,X V Q F H G B L J M P D K C T S W R N Z,5f26cf3dcb907d03e50a6f95,26,Mężczyzna,2022-06-11_09h16.48.579,task,2021.1.4,Win32,59.83366242,6299f149e92ead563fba08ef,62a441490214da0dfb32d112,,,,,,,,,,,,,,,,,,,,,,,,,,,,,,,,,,,,,,,,,,,,,,,,,,,,,,,,,,,,,,,,,,,,,,,,,,,,,,,,,,,,,,,,,,,,,,,,,,,,,
,,,,,,1,0,1,0,1,X V Q F H G B L J M P D K C T S W R N Z,5f26cf3dcb907d03e50a6f95,26,Mężczyzna,2022-06-11_09h16.48.579,task,2021.1.4,Win32,59.83366242,6299f149e92ead563fba08ef,62a441490214da0dfb32d112,,,,,,,,,,,,,,,,,,,,,,,,,,,,,,,,,,,,,,,,,,,,,,,,,,,,,,,,,,,,,,,,,,,,,,,,,,,,,,,,,,,,,,,,,,,,,,,,,,,,,
,,,,,,2,0,2,0,1,X V Q F H G B L J M P D K C T S W R N Z,5f26cf3dcb907d03e50a6f95,26,Mężczyzna,2022-06-11_09h16.48.579,task,2021.1.4,Win32,59.83366242,6299f149e92ead563fba08ef,62a441490214da0dfb32d112,,,,,,,,,,,,,,,,,,,,,,,,,,,,,,,,,,,,,,,,,,,,,,,,,,,,,,,,,,,,,,,,,,,,,,,,,,,,,,,,,,,,,,,,,,,,,,,,,,,,,
,,,,,,3,0,3,0,1,X V Q F H G B L J M P D K C T S W R N Z,5f26cf3dcb907d03e50a6f95,26,Mężczyzna,2022-06-11_09h16.48.579,task,2021.1.4,Win32,59.83366242,6299f149e92ead563fba08ef,62a441490214da0dfb32d112,,,,,,,,,,,,,,,,,,,,,,,,,,,,,,,,,,,,,,,,,,,,,,,,,,,,,,,,,,,,,,,,,,,,,,,,,,,,,,,,,,,,,,,,,,,,,,,,,,,,,
,,,,,,4,0,4,0,1,X V Q F H G B L J M P D K C T S W R N Z,5f26cf3dcb907d03e50a6f95,26,Mężczyzna,2022-06-11_09h16.48.579,task,2021.1.4,Win32,59.83366242,6299f149e92ead563fba08ef,62a441490214da0dfb32d112,,,,,,,,,,,,,,,,,,,,,,,,,,,,,,,,,,,,,,,,,,,,,,,,,,,,,,,,,,,,,,,,,,,,,,,,,,,,,,,,,,,,,,,,,,,,,,,,,,,,,
,,,,,,5,0,5,0,1,X V Q F H G B L J M P D K C T S W R N Z,5f26cf3dcb907d03e50a6f95,26,Mężczyzna,2022-06-11_09h16.48.579,task,2021.1.4,Win32,59.83366242,6299f149e92ead563fba08ef,62a441490214da0dfb32d112,,,,,,,,,,,,,,,,,,,,,,,,,,,,,,,,,,,,,,,,,,,,,,,,,,,,,,,,,,,,,,,,,,,,,,,,,,,,,,,,,,,,,,,,,,,,,,,,,,,,,
,,,,,,6,0,6,0,1,X V Q F H G B L J M P D K C T S W R N Z,5f26cf3dcb907d03e50a6f95,26,Mężczyzna,2022-06-11_09h16.48.579,task,2021.1.4,Win32,59.83366242,6299f149e92ead563fba08ef,62a441490214da0dfb32d112,,,,,,,,,,,,,,,,,,,,,,,,,,,,,,,,,,,,,,,,,,,,,,,,,,,,,,,,,,,,,,,,,,,,,,,,,,,,,,,,,,,,,,,,,,,,,,,,,,,,,
,,,,,,7,0,7,0,1,X V Q F H G B L J M P D K C T S W R N Z,5f26cf3dcb907d03e50a6f95,26,Mężczyzna,2022-06-11_09h16.48.579,task,2021.1.4,Win32,59.83366242,6299f149e92ead563fba08ef,62a441490214da0dfb32d112,,,,,,,,,,,,,,,,,,,,,,,,,,,,,,,,,,,,,,,,,,,,,,,,,,,,,,,,,,,,,,,,,,,,,,,,,,,,,,,,,,,,,,,,,,,,,,,,,,,,,
,,,,,,8,0,8,0,1,X V Q F H G B L J M P D K C T S W R N Z,5f26cf3dcb907d03e50a6f95,26,Mężczyzna,2022-06-11_09h16.48.579,task,2021.1.4,Win32,59.83366242,6299f149e92ead563fba08ef,62a441490214da0dfb32d112,,,,,,,,,,,,,,,,,,,,,,,,,,,,,,,,,,,,,,,,,,,,,,,,,,,,,,,,,,,,,,,,,,,,,,,,,,,,,,,,,,,,,,,,,,,,,,,,,,,,,
,,,,,,9,0,9,0,1,X V Q F H G B L J M P D K C T S W R N Z,5f26cf3dcb907d03e50a6f95,26,Mężczyzna,2022-06-11_09h16.48.579,task,2021.1.4,Win32,59.83366242,6299f149e92ead563fba08ef,62a441490214da0dfb32d112,,,,,,,,,,,,,,,,,,,,,,,,,,,,,,,,,,,,,,,,,,,,,,,,,,,,,,,,,,,,,,,,,,,,,,,,,,,,,,,,,,,,,,,,,,,,,,,,,,,,,
,,,,,,10,0,10,0,1,X V Q F H G B L J M P D K C T S W R N Z,5f26cf3dcb907d03e50a6f95,26,Mężczyzna,2022-06-11_09h16.48.579,task,2021.1.4,Win32,59.83366242,6299f149e92ead563fba08ef,62a441490214da0dfb32d112,,,,,,,,,,,,,,,,,,,,,,,,,,,,,,,,,,,,,,,,,,,,,,,,,,,,,,,,,,,,,,,,,,,,,,,,,,,,,,,,,,,,,,,,,,,,,,,,,,,,,
,,,,,,,,,,,,5f26cf3dcb907d03e50a6f95,26,Mężczyzna,2022-06-11_09h16.48.579,task,2021.1.4,Win32,59.83366242,6299f149e92ead563fba08ef,62a441490214da0dfb32d112,wjsxdxsfmksb,"[""w"",""j"",""s"",""x"",""d"",""x"",""s"",""f"",""m"",""k"",""s"",""b""]","[1.582400000000007,1.6940999999999917,1.8000999999999863,2.1502000000000976,2.3337000000000785,2.4665999999999713,2.9167000000000485,3.3067000000000917,3.5500999999999863,3.71670000000006,3.819500000000005,4.039499999999975,4.470400000000041]",0,WSXDXSFMKSB,21,0,21,0,1,,,,,,,,,,,,,,,,,,,,,,,,,,,,,,,,,,,,,,,,,,,,,,,,,,,,,,,,,,,,,,,,,,,,,,,,,,,,,,,,,,,,,,,,,,,
,,,,,,0,0,0,0,1,X V Q F H G B L J M P D K C T S W R N Z,5f26cf3dcb907d03e50a6f95,26,Mężczyzna,2022-06-11_09h16.48.579,task,2021.1.4,Win32,59.83366242,6299f149e92ead563fba08ef,62a441490214da0dfb32d112,,,,,,,,,,,,,,,,,,,,,,,,,,,,,,,,,,,,,,,,,,,,,,,,,,,,,,,,,,,,,,,,,,,,,,,,,,,,,,,,,,,,,,,,,,,,,,,,,,,,,
,,,,,,1,0,1,0,1,X V Q F H G B L J M P D K C T S W R N Z,5f26cf3dcb907d03e50a6f95,26,Mężczyzna,2022-06-11_09h16.48.579,task,2021.1.4,Win32,59.83366242,6299f149e92ead563fba08ef,62a441490214da0dfb32d112,,,,,,,,,,,,,,,,,,,,,,,,,,,,,,,,,,,,,,,,,,,,,,,,,,,,,,,,,,,,,,,,,,,,,,,,,,,,,,,,,,,,,,,,,,,,,,,,,,,,,
,,,,,,2,0,2,0,1,X V Q F H G B L J M P D K C T S W R N Z,5f26cf3dcb907d03e50a6f95,26,Mężczyzna,2022-06-11_09h16.48.579,task,2021.1.4,Win32,59.83366242,6299f149e92ead563fba08ef,62a441490214da0dfb32d112,,,,,,,,,,,,,,,,,,,,,,,,,,,,,,,,,,,,,,,,,,,,,,,,,,,,,,,,,,,,,,,,,,,,,,,,,,,,,,,,,,,,,,,,,,,,,,,,,,,,,
,,,,,,3,0,3,0,1,X V Q F H G B L J M P D K C T S W R N Z,5f26cf3dcb907d03e50a6f95,26,Mężczyzna,2022-06-11_09h16.48.579,task,2021.1.4,Win32,59.83366242,6299f149e92ead563fba08ef,62a441490214da0dfb32d112,,,,,,,,,,,,,,,,,,,,,,,,,,,,,,,,,,,,,,,,,,,,,,,,,,,,,,,,,,,,,,,,,,,,,,,,,,,,,,,,,,,,,,,,,,,,,,,,,,,,,
,,,,,,4,0,4,0,1,X V Q F H G B L J M P D K C T S W R N Z,5f26cf3dcb907d03e50a6f95,26,Mężczyzna,2022-06-11_09h16.48.579,task,2021.1.4,Win32,59.83366242,6299f149e92ead563fba08ef,62a441490214da0dfb32d112,,,,,,,,,,,,,,,,,,,,,,,,,,,,,,,,,,,,,,,,,,,,,,,,,,,,,,,,,,,,,,,,,,,,,,,,,,,,,,,,,,,,,,,,,,,,,,,,,,,,,
,,,,,,5,0,5,0,1,X V Q F H G B L J M P D K C T S W R N Z,5f26cf3dcb907d03e50a6f95,26,Mężczyzna,2022-06-11_09h16.48.579,task,2021.1.4,Win32,59.83366242,6299f149e92ead563fba08ef,62a441490214da0dfb32d112,,,,,,,,,,,,,,,,,,,,,,,,,,,,,,,,,,,,,,,,,,,,,,,,,,,,,,,,,,,,,,,,,,,,,,,,,,,,,,,,,,,,,,,,,,,,,,,,,,,,,
,,,,,,6,0,6,0,1,X V Q F H G B L J M P D K C T S W R N Z,5f26cf3dcb907d03e50a6f95,26,Mężczyzna,2022-06-11_09h16.48.579,task,2021.1.4,Win32,59.83366242,6299f149e92ead563fba08ef,62a441490214da0dfb32d112,,,,,,,,,,,,,,,,,,,,,,,,,,,,,,,,,,,,,,,,,,,,,,,,,,,,,,,,,,,,,,,,,,,,,,,,,,,,,,,,,,,,,,,,,,,,,,,,,,,,,
,,,,,,7,0,7,0,1,X V Q F H G B L J M P D K C T S W R N Z,5f26cf3dcb907d03e50a6f95,26,Mężczyzna,2022-06-11_09h16.48.579,task,2021.1.4,Win32,59.83366242,6299f149e92ead563fba08ef,62a441490214da0dfb32d112,,,,,,,,,,,,,,,,,,,,,,,,,,,,,,,,,,,,,,,,,,,,,,,,,,,,,,,,,,,,,,,,,,,,,,,,,,,,,,,,,,,,,,,,,,,,,,,,,,,,,
,,,,,,8,0,8,0,1,X V Q F H G B L J M P D K C T S W R N Z,5f26cf3dcb907d03e50a6f95,26,Mężczyzna,2022-06-11_09h16.48.579,task,2021.1.4,Win32,59.83366242,6299f149e92ead563fba08ef,62a441490214da0dfb32d112,,,,,,,,,,,,,,,,,,,,,,,,,,,,,,,,,,,,,,,,,,,,,,,,,,,,,,,,,,,,,,,,,,,,,,,,,,,,,,,,,,,,,,,,,,,,,,,,,,,,,
,,,,,,9,0,9,0,1,X V Q F H G B L J M P D K C T S W R N Z,5f26cf3dcb907d03e50a6f95,26,Mężczyzna,2022-06-11_09h16.48.579,task,2021.1.4,Win32,59.83366242,6299f149e92ead563fba08ef,62a441490214da0dfb32d112,,,,,,,,,,,,,,,,,,,,,,,,,,,,,,,,,,,,,,,,,,,,,,,,,,,,,,,,,,,,,,,,,,,,,,,,,,,,,,,,,,,,,,,,,,,,,,,,,,,,,
,,,,,,10,0,10,0,1,X V Q F H G B L J M P D K C T S W R N Z,5f26cf3dcb907d03e50a6f95,26,Mężczyzna,2022-06-11_09h16.48.579,task,2021.1.4,Win32,59.83366242,6299f149e92ead563fba08ef,62a441490214da0dfb32d112,,,,,,,,,,,,,,,,,,,,,,,,,,,,,,,,,,,,,,,,,,,,,,,,,,,,,,,,,,,,,,,,,,,,,,,,,,,,,,,,,,,,,,,,,,,,,,,,,,,,,
,,,,,,,,,,,,5f26cf3dcb907d03e50a6f95,26,Mężczyzna,2022-06-11_09h16.48.579,task,2021.1.4,Win32,59.83366242,6299f149e92ead563fba08ef,62a441490214da0dfb32d112,gkfjxsfrxfs,"[""g"",""k"",""f"",""j"",""x"",""s"",""f"",""r"",""x"",""f"",""s""]","[3.482900000000029,3.6064000000000647,3.7215000000000487,4.275500000000022,4.752300000000048,5.068500000000029,5.535400000000038,5.787300000000073,7.0055000000000405,7.316200000000094,7.3904000000000565,8.137300000000096]",1,GKFJXSFRXFS,22,0,22,0,1,,,,,,,,,,,,,,,,,,,,,,,,,,,,,,,,,,,,,,,,,,,,,,,,,,,,,,,,,,,,,,,,,,,,,,,,,,,,,,,,,,,,,,,,,,,
,,,,,,0,0,0,0,1,X V Q F H G B L J M P D K C T S W R N Z,5f26cf3dcb907d03e50a6f95,26,Mężczyzna,2022-06-11_09h16.48.579,task,2021.1.4,Win32,59.83366242,6299f149e92ead563fba08ef,62a441490214da0dfb32d112,,,,,,,,,,,,,,,,,,,,,,,,,,,,,,,,,,,,,,,,,,,,,,,,,,,,,,,,,,,,,,,,,,,,,,,,,,,,,,,,,,,,,,,,,,,,,,,,,,,,,
,,,,,,1,0,1,0,1,X V Q F H G B L J M P D K C T S W R N Z,5f26cf3dcb907d03e50a6f95,26,Mężczyzna,2022-06-11_09h16.48.579,task,2021.1.4,Win32,59.83366242,6299f149e92ead563fba08ef,62a441490214da0dfb32d112,,,,,,,,,,,,,,,,,,,,,,,,,,,,,,,,,,,,,,,,,,,,,,,,,,,,,,,,,,,,,,,,,,,,,,,,,,,,,,,,,,,,,,,,,,,,,,,,,,,,,
,,,,,,2,0,2,0,1,X V Q F H G B L J M P D K C T S W R N Z,5f26cf3dcb907d03e50a6f95,26,Mężczyzna,2022-06-11_09h16.48.579,task,2021.1.4,Win32,59.83366242,6299f149e92ead563fba08ef,62a441490214da0dfb32d112,,,,,,,,,,,,,,,,,,,,,,,,,,,,,,,,,,,,,,,,,,,,,,,,,,,,,,,,,,,,,,,,,,,,,,,,,,,,,,,,,,,,,,,,,,,,,,,,,,,,,
,,,,,,3,0,3,0,1,X V Q F H G B L J M P D K C T S W R N Z,5f26cf3dcb907d03e50a6f95,26,Mężczyzna,2022-06-11_09h16.48.579,task,2021.1.4,Win32,59.83366242,6299f149e92ead563fba08ef,62a441490214da0dfb32d112,,,,,,,,,,,,,,,,,,,,,,,,,,,,,,,,,,,,,,,,,,,,,,,,,,,,,,,,,,,,,,,,,,,,,,,,,,,,,,,,,,,,,,,,,,,,,,,,,,,,,
,,,,,,4,0,4,0,1,X V Q F H G B L J M P D K C T S W R N Z,5f26cf3dcb907d03e50a6f95,26,Mężczyzna,2022-06-11_09h16.48.579,task,2021.1.4,Win32,59.83366242,6299f149e92ead563fba08ef,62a441490214da0dfb32d112,,,,,,,,,,,,,,,,,,,,,,,,,,,,,,,,,,,,,,,,,,,,,,,,,,,,,,,,,,,,,,,,,,,,,,,,,,,,,,,,,,,,,,,,,,,,,,,,,,,,,
,,,,,,5,0,5,0,1,X V Q F H G B L J M P D K C T S W R N Z,5f26cf3dcb907d03e50a6f95,26,Mężczyzna,2022-06-11_09h16.48.579,task,2021.1.4,Win32,59.83366242,6299f149e92ead563fba08ef,62a441490214da0dfb32d112,,,,,,,,,,,,,,,,,,,,,,,,,,,,,,,,,,,,,,,,,,,,,,,,,,,,,,,,,,,,,,,,,,,,,,,,,,,,,,,,,,,,,,,,,,,,,,,,,,,,,
,,,,,,6,0,6,0,1,X V Q F H G B L J M P D K C T S W R N Z,5f26cf3dcb907d03e50a6f95,26,Mężczyzna,2022-06-11_09h16.48.579,task,2021.1.4,Win32,59.83366242,6299f149e92ead563fba08ef,62a441490214da0dfb32d112,,,,,,,,,,,,,,,,,,,,,,,,,,,,,,,,,,,,,,,,,,,,,,,,,,,,,,,,,,,,,,,,,,,,,,,,,,,,,,,,,,,,,,,,,,,,,,,,,,,,,
,,,,,,7,0,7,0,1,X V Q F H G B L J M P D K C T S W R N Z,5f26cf3dcb907d03e50a6f95,26,Mężczyzna,2022-06-11_09h16.48.579,task,2021.1.4,Win32,59.83366242,6299f149e92ead563fba08ef,62a441490214da0dfb32d112,,,,,,,,,,,,,,,,,,,,,,,,,,,,,,,,,,,,,,,,,,,,,,,,,,,,,,,,,,,,,,,,,,,,,,,,,,,,,,,,,,,,,,,,,,,,,,,,,,,,,
,,,,,,8,0,8,0,1,X V Q F H G B L J M P D K C T S W R N Z,5f26cf3dcb907d03e50a6f95,26,Mężczyzna,2022-06-11_09h16.48.579,task,2021.1.4,Win32,59.83366242,6299f149e92ead563fba08ef,62a441490214da0dfb32d112,,,,,,,,,,,,,,,,,,,,,,,,,,,,,,,,,,,,,,,,,,,,,,,,,,,,,,,,,,,,,,,,,,,,,,,,,,,,,,,,,,,,,,,,,,,,,,,,,,,,,
,,,,,,9,0,9,0,1,X V Q F H G B L J M P D K C T S W R N Z,5f26cf3dcb907d03e50a6f95,26,Mężczyzna,2022-06-11_09h16.48.579,task,2021.1.4,Win32,59.83366242,6299f149e92ead563fba08ef,62a441490214da0dfb32d112,,,,,,,,,,,,,,,,,,,,,,,,,,,,,,,,,,,,,,,,,,,,,,,,,,,,,,,,,,,,,,,,,,,,,,,,,,,,,,,,,,,,,,,,,,,,,,,,,,,,,
,,,,,,10,0,10,0,1,X V Q F H G B L J M P D K C T S W R N Z,5f26cf3dcb907d03e50a6f95,26,Mężczyzna,2022-06-11_09h16.48.579,task,2021.1.4,Win32,59.83366242,6299f149e92ead563fba08ef,62a441490214da0dfb32d112,,,,,,,,,,,,,,,,,,,,,,,,,,,,,,,,,,,,,,,,,,,,,,,,,,,,,,,,,,,,,,,,,,,,,,,,,,,,,,,,,,,,,,,,,,,,,,,,,,,,,
,,,,,,,,,,,,5f26cf3dcb907d03e50a6f95,26,Mężczyzna,2022-06-11_09h16.48.579,task,2021.1.4,Win32,59.83366242,6299f149e92ead563fba08ef,62a441490214da0dfb32d112,fqtsnbdzkbt,"[""f"",""q"",""t"",""s"",""n"",""b"",""d"",""z"",""k"",""b"",""t""]","[3.7012000000000853,3.7689000000000306,3.9665999999999713,4.233400000000017,4.468700000000069,4.816599999999994,5.116900000000044,5.199999999999989,6.315300000000036,6.433200000000056,6.899999999999977,7.082899999999995]",1,FQTSNBDZKBT,23,0,23,0,1,,,,,,,,,,,,,,,,,,,,,,,,,,,,,,,,,,,,,,,,,,,,,,,,,,,,,,,,,,,,,,,,,,,,,,,,,,,,,,,,,,,,,,,,,,,
,,,,,,0,0,0,0,1,X V Q F H G B L J M P D K C T S W R N Z,5f26cf3dcb907d03e50a6f95,26,Mężczyzna,2022-06-11_09h16.48.579,task,2021.1.4,Win32,59.83366242,6299f149e92ead563fba08ef,62a441490214da0dfb32d112,,,,,,,,,,,,,,,,,,,,,,,,,,,,,,,,,,,,,,,,,,,,,,,,,,,,,,,,,,,,,,,,,,,,,,,,,,,,,,,,,,,,,,,,,,,,,,,,,,,,,
,,,,,,1,0,1,0,1,X V Q F H G B L J M P D K C T S W R N Z,5f26cf3dcb907d03e50a6f95,26,Mężczyzna,2022-06-11_09h16.48.579,task,2021.1.4,Win32,59.83366242,6299f149e92ead563fba08ef,62a441490214da0dfb32d112,,,,,,,,,,,,,,,,,,,,,,,,,,,,,,,,,,,,,,,,,,,,,,,,,,,,,,,,,,,,,,,,,,,,,,,,,,,,,,,,,,,,,,,,,,,,,,,,,,,,,
,,,,,,2,0,2,0,1,X V Q F H G B L J M P D K C T S W R N Z,5f26cf3dcb907d03e50a6f95,26,Mężczyzna,2022-06-11_09h16.48.579,task,2021.1.4,Win32,59.83366242,6299f149e92ead563fba08ef,62a441490214da0dfb32d112,,,,,,,,,,,,,,,,,,,,,,,,,,,,,,,,,,,,,,,,,,,,,,,,,,,,,,,,,,,,,,,,,,,,,,,,,,,,,,,,,,,,,,,,,,,,,,,,,,,,,
,,,,,,3,0,3,0,1,X V Q F H G B L J M P D K C T S W R N Z,5f26cf3dcb907d03e50a6f95,26,Mężczyzna,2022-06-11_09h16.48.579,task,2021.1.4,Win32,59.83366242,6299f149e92ead563fba08ef,62a441490214da0dfb32d112,,,,,,,,,,,,,,,,,,,,,,,,,,,,,,,,,,,,,,,,,,,,,,,,,,,,,,,,,,,,,,,,,,,,,,,,,,,,,,,,,,,,,,,,,,,,,,,,,,,,,
,,,,,,4,0,4,0,1,X V Q F H G B L J M P D K C T S W R N Z,5f26cf3dcb907d03e50a6f95,26,Mężczyzna,2022-06-11_09h16.48.579,task,2021.1.4,Win32,59.83366242,6299f149e92ead563fba08ef,62a441490214da0dfb32d112,,,,,,,,,,,,,,,,,,,,,,,,,,,,,,,,,,,,,,,,,,,,,,,,,,,,,,,,,,,,,,,,,,,,,,,,,,,,,,,,,,,,,,,,,,,,,,,,,,,,,
,,,,,,5,0,5,0,1,X V Q F H G B L J M P D K C T S W R N Z,5f26cf3dcb907d03e50a6f95,26,Mężczyzna,2022-06-11_09h16.48.579,task,2021.1.4,Win32,59.83366242,6299f149e92ead563fba08ef,62a441490214da0dfb32d112,,,,,,,,,,,,,,,,,,,,,,,,,,,,,,,,,,,,,,,,,,,,,,,,,,,,,,,,,,,,,,,,,,,,,,,,,,,,,,,,,,,,,,,,,,,,,,,,,,,,,
,,,,,,6,0,6,0,1,X V Q F H G B L J M P D K C T S W R N Z,5f26cf3dcb907d03e50a6f95,26,Mężczyzna,2022-06-11_09h16.48.579,task,2021.1.4,Win32,59.83366242,6299f149e92ead563fba08ef,62a441490214da0dfb32d112,,,,,,,,,,,,,,,,,,,,,,,,,,,,,,,,,,,,,,,,,,,,,,,,,,,,,,,,,,,,,,,,,,,,,,,,,,,,,,,,,,,,,,,,,,,,,,,,,,,,,
,,,,,,7,0,7,0,1,X V Q F H G B L J M P D K C T S W R N Z,5f26cf3dcb907d03e50a6f95,26,Mężczyzna,2022-06-11_09h16.48.579,task,2021.1.4,Win32,59.83366242,6299f149e92ead563fba08ef,62a441490214da0dfb32d112,,,,,,,,,,,,,,,,,,,,,,,,,,,,,,,,,,,,,,,,,,,,,,,,,,,,,,,,,,,,,,,,,,,,,,,,,,,,,,,,,,,,,,,,,,,,,,,,,,,,,
,,,,,,8,0,8,0,1,X V Q F H G B L J M P D K C T S W R N Z,5f26cf3dcb907d03e50a6f95,26,Mężczyzna,2022-06-11_09h16.48.579,task,2021.1.4,Win32,59.83366242,6299f149e92ead563fba08ef,62a441490214da0dfb32d112,,,,,,,,,,,,,,,,,,,,,,,,,,,,,,,,,,,,,,,,,,,,,,,,,,,,,,,,,,,,,,,,,,,,,,,,,,,,,,,,,,,,,,,,,,,,,,,,,,,,,
,,,,,,9,0,9,0,1,X V Q F H G B L J M P D K C T S W R N Z,5f26cf3dcb907d03e50a6f95,26,Mężczyzna,2022-06-11_09h16.48.579,task,2021.1.4,Win32,59.83366242,6299f149e92ead563fba08ef,62a441490214da0dfb32d112,,,,,,,,,,,,,,,,,,,,,,,,,,,,,,,,,,,,,,,,,,,,,,,,,,,,,,,,,,,,,,,,,,,,,,,,,,,,,,,,,,,,,,,,,,,,,,,,,,,,,
,,,,,,10,0,10,0,1,X V Q F H G B L J M P D K C T S W R N Z,5f26cf3dcb907d03e50a6f95,26,Mężczyzna,2022-06-11_09h16.48.579,task,2021.1.4,Win32,59.83366242,6299f149e92ead563fba08ef,62a441490214da0dfb32d112,,,,,,,,,,,,,,,,,,,,,,,,,,,,,,,,,,,,,,,,,,,,,,,,,,,,,,,,,,,,,,,,,,,,,,,,,,,,,,,,,,,,,,,,,,,,,,,,,,,,,
,,,,,,11,0,11,0,1,X V Q F H G B L J M P D K C T S W R N Z,5f26cf3dcb907d03e50a6f95,26,Mężczyzna,2022-06-11_09h16.48.579,task,2021.1.4,Win32,59.83366242,6299f149e92ead563fba08ef,62a441490214da0dfb32d112,,,,,,,,,,,,,,,,,,,,,,,,,,,,,,,,,,,,,,,,,,,,,,,,,,,,,,,,,,,,,,,,,,,,,,,,,,,,,,,,,,,,,,,,,,,,,,,,,,,,,
,,,,,,,,,,,,5f26cf3dcb907d03e50a6f95,26,Mężczyzna,2022-06-11_09h16.48.579,task,2021.1.4,Win32,59.83366242,6299f149e92ead563fba08ef,62a441490214da0dfb32d112,bkxpxcggxmh,"[""b"",""k"",""x"",""p"",""x"",""c"",""g"",""g"",""x"",""m"",""h""]","[1.9155000000000086,2.1567000000000007,2.2578000000000884,2.6018000000000825,3.155900000000031,3.2758000000000607,3.698699999999974,3.820600000000013,4.305700000000002,4.399800000000084,4.58540000000005,4.722300000000075]",0,FQMXPXCGGXMH,24,0,24,0,1,,,,,,,,,,,,,,,,,,,,,,,,,,,,,,,,,,,,,,,,,,,,,,,,,,,,,,,,,,,,,,,,,,,,,,,,,,,,,,,,,,,,,,,,,,,
,,,,,,0,0,0,0,1,X V Q F H G B L J M P D K C T S W R N Z,5f26cf3dcb907d03e50a6f95,26,Mężczyzna,2022-06-11_09h16.48.579,task,2021.1.4,Win32,59.83366242,6299f149e92ead563fba08ef,62a441490214da0dfb32d112,,,,,,,,,,,,,,,,,,,,,,,,,,,,,,,,,,,,,,,,,,,,,,,,,,,,,,,,,,,,,,,,,,,,,,,,,,,,,,,,,,,,,,,,,,,,,,,,,,,,,
,,,,,,1,0,1,0,1,X V Q F H G B L J M P D K C T S W R N Z,5f26cf3dcb907d03e50a6f95,26,Mężczyzna,2022-06-11_09h16.48.579,task,2021.1.4,Win32,59.83366242,6299f149e92ead563fba08ef,62a441490214da0dfb32d112,,,,,,,,,,,,,,,,,,,,,,,,,,,,,,,,,,,,,,,,,,,,,,,,,,,,,,,,,,,,,,,,,,,,,,,,,,,,,,,,,,,,,,,,,,,,,,,,,,,,,
,,,,,,2,0,2,0,1,X V Q F H G B L J M P D K C T S W R N Z,5f26cf3dcb907d03e50a6f95,26,Mężczyzna,2022-06-11_09h16.48.579,task,2021.1.4,Win32,59.83366242,6299f149e92ead563fba08ef,62a441490214da0dfb32d112,,,,,,,,,,,,,,,,,,,,,,,,,,,,,,,,,,,,,,,,,,,,,,,,,,,,,,,,,,,,,,,,,,,,,,,,,,,,,,,,,,,,,,,,,,,,,,,,,,,,,
,,,,,,3,0,3,0,1,X V Q F H G B L J M P D K C T S W R N Z,5f26cf3dcb907d03e50a6f95,26,Mężczyzna,2022-06-11_09h16.48.579,task,2021.1.4,Win32,59.83366242,6299f149e92ead563fba08ef,62a441490214da0dfb32d112,,,,,,,,,,,,,,,,,,,,,,,,,,,,,,,,,,,,,,,,,,,,,,,,,,,,,,,,,,,,,,,,,,,,,,,,,,,,,,,,,,,,,,,,,,,,,,,,,,,,,
,,,,,,4,0,4,0,1,X V Q F H G B L J M P D K C T S W R N Z,5f26cf3dcb907d03e50a6f95,26,Mężczyzna,2022-06-11_09h16.48.579,task,2021.1.4,Win32,59.83366242,6299f149e92ead563fba08ef,62a441490214da0dfb32d112,,,,,,,,,,,,,,,,,,,,,,,,,,,,,,,,,,,,,,,,,,,,,,,,,,,,,,,,,,,,,,,,,,,,,,,,,,,,,,,,,,,,,,,,,,,,,,,,,,,,,
,,,,,,5,0,5,0,1,X V Q F H G B L J M P D K C T S W R N Z,5f26cf3dcb907d03e50a6f95,26,Mężczyzna,2022-06-11_09h16.48.579,task,2021.1.4,Win32,59.83366242,6299f149e92ead563fba08ef,62a441490214da0dfb32d112,,,,,,,,,,,,,,,,,,,,,,,,,,,,,,,,,,,,,,,,,,,,,,,,,,,,,,,,,,,,,,,,,,,,,,,,,,,,,,,,,,,,,,,,,,,,,,,,,,,,,
,,,,,,6,0,6,0,1,X V Q F H G B L J M P D K C T S W R N Z,5f26cf3dcb907d03e50a6f95,26,Mężczyzna,2022-06-11_09h16.48.579,task,2021.1.4,Win32,59.83366242,6299f149e92ead563fba08ef,62a441490214da0dfb32d112,,,,,,,,,,,,,,,,,,,,,,,,,,,,,,,,,,,,,,,,,,,,,,,,,,,,,,,,,,,,,,,,,,,,,,,,,,,,,,,,,,,,,,,,,,,,,,,,,,,,,
,,,,,,7,0,7,0,1,X V Q F H G B L J M P D K C T S W R N Z,5f26cf3dcb907d03e50a6f95,26,Mężczyzna,2022-06-11_09h16.48.579,task,2021.1.4,Win32,59.83366242,6299f149e92ead563fba08ef,62a441490214da0dfb32d112,,,,,,,,,,,,,,,,,,,,,,,,,,,,,,,,,,,,,,,,,,,,,,,,,,,,,,,,,,,,,,,,,,,,,,,,,,,,,,,,,,,,,,,,,,,,,,,,,,,,,
,,,,,,8,0,8,0,1,X V Q F H G B L J M P D K C T S W R N Z,5f26cf3dcb907d03e50a6f95,26,Mężczyzna,2022-06-11_09h16.48.579,task,2021.1.4,Win32,59.83366242,6299f149e92ead563fba08ef,62a441490214da0dfb32d112,,,,,,,,,,,,,,,,,,,,,,,,,,,,,,,,,,,,,,,,,,,,,,,,,,,,,,,,,,,,,,,,,,,,,,,,,,,,,,,,,,,,,,,,,,,,,,,,,,,,,
,,,,,,9,0,9,0,1,X V Q F H G B L J M P D K C T S W R N Z,5f26cf3dcb907d03e50a6f95,26,Mężczyzna,2022-06-11_09h16.48.579,task,2021.1.4,Win32,59.83366242,6299f149e92ead563fba08ef,62a441490214da0dfb32d112,,,,,,,,,,,,,,,,,,,,,,,,,,,,,,,,,,,,,,,,,,,,,,,,,,,,,,,,,,,,,,,,,,,,,,,,,,,,,,,,,,,,,,,,,,,,,,,,,,,,,
,,,,,,10,0,10,0,1,X V Q F H G B L J M P D K C T S W R N Z,5f26cf3dcb907d03e50a6f95,26,Mężczyzna,2022-06-11_09h16.48.579,task,2021.1.4,Win32,59.83366242,6299f149e92ead563fba08ef,62a441490214da0dfb32d112,,,,,,,,,,,,,,,,,,,,,,,,,,,,,,,,,,,,,,,,,,,,,,,,,,,,,,,,,,,,,,,,,,,,,,,,,,,,,,,,,,,,,,,,,,,,,,,,,,,,,
,,,,,,11,0,11,0,1,X V Q F H G B L J M P D K C T S W R N Z,5f26cf3dcb907d03e50a6f95,26,Mężczyzna,2022-06-11_09h16.48.579,task,2021.1.4,Win32,59.83366242,6299f149e92ead563fba08ef,62a441490214da0dfb32d112,,,,,,,,,,,,,,,,,,,,,,,,,,,,,,,,,,,,,,,,,,,,,,,,,,,,,,,,,,,,,,,,,,,,,,,,,,,,,,,,,,,,,,,,,,,,,,,,,,,,,
,,,,,,,,,,,,5f26cf3dcb907d03e50a6f95,26,Mężczyzna,2022-06-11_09h16.48.579,task,2021.1.4,Win32,59.83366242,6299f149e92ead563fba08ef,62a441490214da0dfb32d112,fdfjjzdvlpbz,"[""f"",""d"",""f"",""j"",""j"",""z"",""d"",""v"",""l"",""p"",""b"",""z""]","[4.688000000000045,4.7823000000000775,4.917600000000107,5.267100000000141,5.4360000000000355,5.750300000000095,6.016900000000021,6.38370000000009,6.699900000000071,7.002700000000118,7.507000000000005,7.703900000000033,13.716200000000072]",1,FDFJJZDVLPBZ,25,0,25,0,1,,,,,,,,,,,,,,,,,,,,,,,,,,,,,,,,,,,,,,,,,,,,,,,,,,,,,,,,,,,,,,,,,,,,,,,,,,,,,,,,,,,,,,,,,,,
,,,,,,0,0,0,0,1,X V Q F H G B L J M P D K C T S W R N Z,5f26cf3dcb907d03e50a6f95,26,Mężczyzna,2022-06-11_09h16.48.579,task,2021.1.4,Win32,59.83366242,6299f149e92ead563fba08ef,62a441490214da0dfb32d112,,,,,,,,,,,,,,,,,,,,,,,,,,,,,,,,,,,,,,,,,,,,,,,,,,,,,,,,,,,,,,,,,,,,,,,,,,,,,,,,,,,,,,,,,,,,,,,,,,,,,
,,,,,,1,0,1,0,1,X V Q F H G B L J M P D K C T S W R N Z,5f26cf3dcb907d03e50a6f95,26,Mężczyzna,2022-06-11_09h16.48.579,task,2021.1.4,Win32,59.83366242,6299f149e92ead563fba08ef,62a441490214da0dfb32d112,,,,,,,,,,,,,,,,,,,,,,,,,,,,,,,,,,,,,,,,,,,,,,,,,,,,,,,,,,,,,,,,,,,,,,,,,,,,,,,,,,,,,,,,,,,,,,,,,,,,,
,,,,,,2,0,2,0,1,X V Q F H G B L J M P D K C T S W R N Z,5f26cf3dcb907d03e50a6f95,26,Mężczyzna,2022-06-11_09h16.48.579,task,2021.1.4,Win32,59.83366242,6299f149e92ead563fba08ef,62a441490214da0dfb32d112,,,,,,,,,,,,,,,,,,,,,,,,,,,,,,,,,,,,,,,,,,,,,,,,,,,,,,,,,,,,,,,,,,,,,,,,,,,,,,,,,,,,,,,,,,,,,,,,,,,,,
,,,,,,3,0,3,0,1,X V Q F H G B L J M P D K C T S W R N Z,5f26cf3dcb907d03e50a6f95,26,Mężczyzna,2022-06-11_09h16.48.579,task,2021.1.4,Win32,59.83366242,6299f149e92ead563fba08ef,62a441490214da0dfb32d112,,,,,,,,,,,,,,,,,,,,,,,,,,,,,,,,,,,,,,,,,,,,,,,,,,,,,,,,,,,,,,,,,,,,,,,,,,,,,,,,,,,,,,,,,,,,,,,,,,,,,
,,,,,,4,0,4,0,1,X V Q F H G B L J M P D K C T S W R N Z,5f26cf3dcb907d03e50a6f95,26,Mężczyzna,2022-06-11_09h16.48.579,task,2021.1.4,Win32,59.83366242,6299f149e92ead563fba08ef,62a441490214da0dfb32d112,,,,,,,,,,,,,,,,,,,,,,,,,,,,,,,,,,,,,,,,,,,,,,,,,,,,,,,,,,,,,,,,,,,,,,,,,,,,,,,,,,,,,,,,,,,,,,,,,,,,,
,,,,,,5,0,5,0,1,X V Q F H G B L J M P D K C T S W R N Z,5f26cf3dcb907d03e50a6f95,26,Mężczyzna,2022-06-11_09h16.48.579,task,2021.1.4,Win32,59.83366242,6299f149e92ead563fba08ef,62a441490214da0dfb32d112,,,,,,,,,,,,,,,,,,,,,,,,,,,,,,,,,,,,,,,,,,,,,,,,,,,,,,,,,,,,,,,,,,,,,,,,,,,,,,,,,,,,,,,,,,,,,,,,,,,,,
,,,,,,6,0,6,0,1,X V Q F H G B L J M P D K C T S W R N Z,5f26cf3dcb907d03e50a6f95,26,Mężczyzna,2022-06-11_09h16.48.579,task,2021.1.4,Win32,59.83366242,6299f149e92ead563fba08ef,62a441490214da0dfb32d112,,,,,,,,,,,,,,,,,,,,,,,,,,,,,,,,,,,,,,,,,,,,,,,,,,,,,,,,,,,,,,,,,,,,,,,,,,,,,,,,,,,,,,,,,,,,,,,,,,,,,
,,,,,,7,0,7,0,1,X V Q F H G B L J M P D K C T S W R N Z,5f26cf3dcb907d03e50a6f95,26,Mężczyzna,2022-06-11_09h16.48.579,task,2021.1.4,Win32,59.83366242,6299f149e92ead563fba08ef,62a441490214da0dfb32d112,,,,,,,,,,,,,,,,,,,,,,,,,,,,,,,,,,,,,,,,,,,,,,,,,,,,,,,,,,,,,,,,,,,,,,,,,,,,,,,,,,,,,,,,,,,,,,,,,,,,,
,,,,,,8,0,8,0,1,X V Q F H G B L J M P D K C T S W R N Z,5f26cf3dcb907d03e50a6f95,26,Mężczyzna,2022-06-11_09h16.48.579,task,2021.1.4,Win32,59.83366242,6299f149e92ead563fba08ef,62a441490214da0dfb32d112,,,,,,,,,,,,,,,,,,,,,,,,,,,,,,,,,,,,,,,,,,,,,,,,,,,,,,,,,,,,,,,,,,,,,,,,,,,,,,,,,,,,,,,,,,,,,,,,,,,,,
,,,,,,9,0,9,0,1,X V Q F H G B L J M P D K C T S W R N Z,5f26cf3dcb907d03e50a6f95,26,Mężczyzna,2022-06-11_09h16.48.579,task,2021.1.4,Win32,59.83366242,6299f149e92ead563fba08ef,62a441490214da0dfb32d112,,,,,,,,,,,,,,,,,,,,,,,,,,,,,,,,,,,,,,,,,,,,,,,,,,,,,,,,,,,,,,,,,,,,,,,,,,,,,,,,,,,,,,,,,,,,,,,,,,,,,
,,,,,,10,0,10,0,1,X V Q F H G B L J M P D K C T S W R N Z,5f26cf3dcb907d03e50a6f95,26,Mężczyzna,2022-06-11_09h16.48.579,task,2021.1.4,Win32,59.83366242,6299f149e92ead563fba08ef,62a441490214da0dfb32d112,,,,,,,,,,,,,,,,,,,,,,,,,,,,,,,,,,,,,,,,,,,,,,,,,,,,,,,,,,,,,,,,,,,,,,,,,,,,,,,,,,,,,,,,,,,,,,,,,,,,,
,,,,,,11,0,11,0,1,X V Q F H G B L J M P D K C T S W R N Z,5f26cf3dcb907d03e50a6f95,26,Mężczyzna,2022-06-11_09h16.48.579,task,2021.1.4,Win32,59.83366242,6299f149e92ead563fba08ef,62a441490214da0dfb32d112,,,,,,,,,,,,,,,,,,,,,,,,,,,,,,,,,,,,,,,,,,,,,,,,,,,,,,,,,,,,,,,,,,,,,,,,,,,,,,,,,,,,,,,,,,,,,,,,,,,,,
,,,,,,,,,,,,5f26cf3dcb907d03e50a6f95,26,Mężczyzna,2022-06-11_09h16.48.579,task,2021.1.4,Win32,59.83366242,6299f149e92ead563fba08ef,62a441490214da0dfb32d112,xslqbbtlhsdm,"[""x"",""s"",""l"",""q"",""b"",""b"",""t"",""l"",""h"",""s"",""d"",""m""]","[2.7891000000001327,2.967200000000105,3.238400000000013,3.366600000000119,3.698500000000024,3.8425000000000296,4.466400000000078,4.5666000000001645,5.282800000000009,5.449800000000039,5.849600000000066,5.949800000000039,6.072500000000048]",1,XSLQBBTLHSDM,26,0,26,0,1,,,,,,,,,,,,,,,,,,,,,,,,,,,,,,,,,,,,,,,,,,,,,,,,,,,,,,,,,,,,,,,,,,,,,,,,,,,,,,,,,,,,,,,,,,,
,,,,,,0,0,0,0,1,X V Q F H G B L J M P D K C T S W R N Z,5f26cf3dcb907d03e50a6f95,26,Mężczyzna,2022-06-11_09h16.48.579,task,2021.1.4,Win32,59.83366242,6299f149e92ead563fba08ef,62a441490214da0dfb32d112,,,,,,,,,,,,,,,,,,,,,,,,,,,,,,,,,,,,,,,,,,,,,,,,,,,,,,,,,,,,,,,,,,,,,,,,,,,,,,,,,,,,,,,,,,,,,,,,,,,,,
,,,,,,1,0,1,0,1,X V Q F H G B L J M P D K C T S W R N Z,5f26cf3dcb907d03e50a6f95,26,Mężczyzna,2022-06-11_09h16.48.579,task,2021.1.4,Win32,59.83366242,6299f149e92ead563fba08ef,62a441490214da0dfb32d112,,,,,,,,,,,,,,,,,,,,,,,,,,,,,,,,,,,,,,,,,,,,,,,,,,,,,,,,,,,,,,,,,,,,,,,,,,,,,,,,,,,,,,,,,,,,,,,,,,,,,
,,,,,,2,0,2,0,1,X V Q F H G B L J M P D K C T S W R N Z,5f26cf3dcb907d03e50a6f95,26,Mężczyzna,2022-06-11_09h16.48.579,task,2021.1.4,Win32,59.83366242,6299f149e92ead563fba08ef,62a441490214da0dfb32d112,,,,,,,,,,,,,,,,,,,,,,,,,,,,,,,,,,,,,,,,,,,,,,,,,,,,,,,,,,,,,,,,,,,,,,,,,,,,,,,,,,,,,,,,,,,,,,,,,,,,,
,,,,,,3,0,3,0,1,X V Q F H G B L J M P D K C T S W R N Z,5f26cf3dcb907d03e50a6f95,26,Mężczyzna,2022-06-11_09h16.48.579,task,2021.1.4,Win32,59.83366242,6299f149e92ead563fba08ef,62a441490214da0dfb32d112,,,,,,,,,,,,,,,,,,,,,,,,,,,,,,,,,,,,,,,,,,,,,,,,,,,,,,,,,,,,,,,,,,,,,,,,,,,,,,,,,,,,,,,,,,,,,,,,,,,,,
,,,,,,4,0,4,0,1,X V Q F H G B L J M P D K C T S W R N Z,5f26cf3dcb907d03e50a6f95,26,Mężczyzna,2022-06-11_09h16.48.579,task,2021.1.4,Win32,59.83366242,6299f149e92ead563fba08ef,62a441490214da0dfb32d112,,,,,,,,,,,,,,,,,,,,,,,,,,,,,,,,,,,,,,,,,,,,,,,,,,,,,,,,,,,,,,,,,,,,,,,,,,,,,,,,,,,,,,,,,,,,,,,,,,,,,
,,,,,,5,0,5,0,1,X V Q F H G B L J M P D K C T S W R N Z,5f26cf3dcb907d03e50a6f95,26,Mężczyzna,2022-06-11_09h16.48.579,task,2021.1.4,Win32,59.83366242,6299f149e92ead563fba08ef,62a441490214da0dfb32d112,,,,,,,,,,,,,,,,,,,,,,,,,,,,,,,,,,,,,,,,,,,,,,,,,,,,,,,,,,,,,,,,,,,,,,,,,,,,,,,,,,,,,,,,,,,,,,,,,,,,,
,,,,,,6,0,6,0,1,X V Q F H G B L J M P D K C T S W R N Z,5f26cf3dcb907d03e50a6f95,26,Mężczyzna,2022-06-11_09h16.48.579,task,2021.1.4,Win32,59.83366242,6299f149e92ead563fba08ef,62a441490214da0dfb32d112,,,,,,,,,,,,,,,,,,,,,,,,,,,,,,,,,,,,,,,,,,,,,,,,,,,,,,,,,,,,,,,,,,,,,,,,,,,,,,,,,,,,,,,,,,,,,,,,,,,,,
,,,,,,7,0,7,0,1,X V Q F H G B L J M P D K C T S W R N Z,5f26cf3dcb907d03e50a6f95,26,Mężczyzna,2022-06-11_09h16.48.579,task,2021.1.4,Win32,59.83366242,6299f149e92ead563fba08ef,62a441490214da0dfb32d112,,,,,,,,,,,,,,,,,,,,,,,,,,,,,,,,,,,,,,,,,,,,,,,,,,,,,,,,,,,,,,,,,,,,,,,,,,,,,,,,,,,,,,,,,,,,,,,,,,,,,
,,,,,,8,0,8,0,1,X V Q F H G B L J M P D K C T S W R N Z,5f26cf3dcb907d03e50a6f95,26,Mężczyzna,2022-06-11_09h16.48.579,task,2021.1.4,Win32,59.83366242,6299f149e92ead563fba08ef,62a441490214da0dfb32d112,,,,,,,,,,,,,,,,,,,,,,,,,,,,,,,,,,,,,,,,,,,,,,,,,,,,,,,,,,,,,,,,,,,,,,,,,,,,,,,,,,,,,,,,,,,,,,,,,,,,,
,,,,,,9,0,9,0,1,X V Q F H G B L J M P D K C T S W R N Z,5f26cf3dcb907d03e50a6f95,26,Mężczyzna,2022-06-11_09h16.48.579,task,2021.1.4,Win32,59.83366242,6299f149e92ead563fba08ef,62a441490214da0dfb32d112,,,,,,,,,,,,,,,,,,,,,,,,,,,,,,,,,,,,,,,,,,,,,,,,,,,,,,,,,,,,,,,,,,,,,,,,,,,,,,,,,,,,,,,,,,,,,,,,,,,,,
,,,,,,10,0,10,0,1,X V Q F H G B L J M P D K C T S W R N Z,5f26cf3dcb907d03e50a6f95,26,Mężczyzna,2022-06-11_09h16.48.579,task,2021.1.4,Win32,59.83366242,6299f149e92ead563fba08ef,62a441490214da0dfb32d112,,,,,,,,,,,,,,,,,,,,,,,,,,,,,,,,,,,,,,,,,,,,,,,,,,,,,,,,,,,,,,,,,,,,,,,,,,,,,,,,,,,,,,,,,,,,,,,,,,,,,
,,,,,,11,0,11,0,1,X V Q F H G B L J M P D K C T S W R N Z,5f26cf3dcb907d03e50a6f95,26,Mężczyzna,2022-06-11_09h16.48.579,task,2021.1.4,Win32,59.83366242,6299f149e92ead563fba08ef,62a441490214da0dfb32d112,,,,,,,,,,,,,,,,,,,,,,,,,,,,,,,,,,,,,,,,,,,,,,,,,,,,,,,,,,,,,,,,,,,,,,,,,,,,,,,,,,,,,,,,,,,,,,,,,,,,,
,,,,,,12,0,12,0,1,X V Q F H G B L J M P D K C T S W R N Z,5f26cf3dcb907d03e50a6f95,26,Mężczyzna,2022-06-11_09h16.48.579,task,2021.1.4,Win32,59.83366242,6299f149e92ead563fba08ef,62a441490214da0dfb32d112,,,,,,,,,,,,,,,,,,,,,,,,,,,,,,,,,,,,,,,,,,,,,,,,,,,,,,,,,,,,,,,,,,,,,,,,,,,,,,,,,,,,,,,,,,,,,,,,,,,,,
,,,,,,,,,,,,5f26cf3dcb907d03e50a6f95,26,Mężczyzna,2022-06-11_09h16.48.579,task,2021.1.4,Win32,59.83366242,6299f149e92ead563fba08ef,62a441490214da0dfb32d112,rlgxdfpggm,"[""r"",""l"",""g"",""x"",""d"",""f"",""p"",""g"",""g"",""m""]","[6.0036000000001195,6.099800000000073,6.204899999999952,6.485000000000014,6.599800000000073,7.1037000000000035,7.350700000000074,8.778900000000021,8.930600000000027,11.03270000000009,11.198600000000056]",0,RLGXDMPSFGGDR,27,0,27,0,1,,,,,,,,,,,,,,,,,,,,,,,,,,,,,,,,,,,,,,,,,,,,,,,,,,,,,,,,,,,,,,,,,,,,,,,,,,,,,,,,,,,,,,,,,,,
,,,,,,0,0,0,0,1,X V Q F H G B L J M P D K C T S W R N Z,5f26cf3dcb907d03e50a6f95,26,Mężczyzna,2022-06-11_09h16.48.579,task,2021.1.4,Win32,59.83366242,6299f149e92ead563fba08ef,62a441490214da0dfb32d112,,,,,,,,,,,,,,,,,,,,,,,,,,,,,,,,,,,,,,,,,,,,,,,,,,,,,,,,,,,,,,,,,,,,,,,,,,,,,,,,,,,,,,,,,,,,,,,,,,,,,
,,,,,,1,0,1,0,1,X V Q F H G B L J M P D K C T S W R N Z,5f26cf3dcb907d03e50a6f95,26,Mężczyzna,2022-06-11_09h16.48.579,task,2021.1.4,Win32,59.83366242,6299f149e92ead563fba08ef,62a441490214da0dfb32d112,,,,,,,,,,,,,,,,,,,,,,,,,,,,,,,,,,,,,,,,,,,,,,,,,,,,,,,,,,,,,,,,,,,,,,,,,,,,,,,,,,,,,,,,,,,,,,,,,,,,,
,,,,,,2,0,2,0,1,X V Q F H G B L J M P D K C T S W R N Z,5f26cf3dcb907d03e50a6f95,26,Mężczyzna,2022-06-11_09h16.48.579,task,2021.1.4,Win32,59.83366242,6299f149e92ead563fba08ef,62a441490214da0dfb32d112,,,,,,,,,,,,,,,,,,,,,,,,,,,,,,,,,,,,,,,,,,,,,,,,,,,,,,,,,,,,,,,,,,,,,,,,,,,,,,,,,,,,,,,,,,,,,,,,,,,,,
,,,,,,3,0,3,0,1,X V Q F H G B L J M P D K C T S W R N Z,5f26cf3dcb907d03e50a6f95,26,Mężczyzna,2022-06-11_09h16.48.579,task,2021.1.4,Win32,59.83366242,6299f149e92ead563fba08ef,62a441490214da0dfb32d112,,,,,,,,,,,,,,,,,,,,,,,,,,,,,,,,,,,,,,,,,,,,,,,,,,,,,,,,,,,,,,,,,,,,,,,,,,,,,,,,,,,,,,,,,,,,,,,,,,,,,
,,,,,,4,0,4,0,1,X V Q F H G B L J M P D K C T S W R N Z,5f26cf3dcb907d03e50a6f95,26,Mężczyzna,2022-06-11_09h16.48.579,task,2021.1.4,Win32,59.83366242,6299f149e92ead563fba08ef,62a441490214da0dfb32d112,,,,,,,,,,,,,,,,,,,,,,,,,,,,,,,,,,,,,,,,,,,,,,,,,,,,,,,,,,,,,,,,,,,,,,,,,,,,,,,,,,,,,,,,,,,,,,,,,,,,,
,,,,,,5,0,5,0,1,X V Q F H G B L J M P D K C T S W R N Z,5f26cf3dcb907d03e50a6f95,26,Mężczyzna,2022-06-11_09h16.48.579,task,2021.1.4,Win32,59.83366242,6299f149e92ead563fba08ef,62a441490214da0dfb32d112,,,,,,,,,,,,,,,,,,,,,,,,,,,,,,,,,,,,,,,,,,,,,,,,,,,,,,,,,,,,,,,,,,,,,,,,,,,,,,,,,,,,,,,,,,,,,,,,,,,,,
,,,,,,6,0,6,0,1,X V Q F H G B L J M P D K C T S W R N Z,5f26cf3dcb907d03e50a6f95,26,Mężczyzna,2022-06-11_09h16.48.579,task,2021.1.4,Win32,59.83366242,6299f149e92ead563fba08ef,62a441490214da0dfb32d112,,,,,,,,,,,,,,,,,,,,,,,,,,,,,,,,,,,,,,,,,,,,,,,,,,,,,,,,,,,,,,,,,,,,,,,,,,,,,,,,,,,,,,,,,,,,,,,,,,,,,
,,,,,,7,0,7,0,1,X V Q F H G B L J M P D K C T S W R N Z,5f26cf3dcb907d03e50a6f95,26,Mężczyzna,2022-06-11_09h16.48.579,task,2021.1.4,Win32,59.83366242,6299f149e92ead563fba08ef,62a441490214da0dfb32d112,,,,,,,,,,,,,,,,,,,,,,,,,,,,,,,,,,,,,,,,,,,,,,,,,,,,,,,,,,,,,,,,,,,,,,,,,,,,,,,,,,,,,,,,,,,,,,,,,,,,,
,,,,,,8,0,8,0,1,X V Q F H G B L J M P D K C T S W R N Z,5f26cf3dcb907d03e50a6f95,26,Mężczyzna,2022-06-11_09h16.48.579,task,2021.1.4,Win32,59.83366242,6299f149e92ead563fba08ef,62a441490214da0dfb32d112,,,,,,,,,,,,,,,,,,,,,,,,,,,,,,,,,,,,,,,,,,,,,,,,,,,,,,,,,,,,,,,,,,,,,,,,,,,,,,,,,,,,,,,,,,,,,,,,,,,,,
,,,,,,9,0,9,0,1,X V Q F H G B L J M P D K C T S W R N Z,5f26cf3dcb907d03e50a6f95,26,Mężczyzna,2022-06-11_09h16.48.579,task,2021.1.4,Win32,59.83366242,6299f149e92ead563fba08ef,62a441490214da0dfb32d112,,,,,,,,,,,,,,,,,,,,,,,,,,,,,,,,,,,,,,,,,,,,,,,,,,,,,,,,,,,,,,,,,,,,,,,,,,,,,,,,,,,,,,,,,,,,,,,,,,,,,
,,,,,,10,0,10,0,1,X V Q F H G B L J M P D K C T S W R N Z,5f26cf3dcb907d03e50a6f95,26,Mężczyzna,2022-06-11_09h16.48.579,task,2021.1.4,Win32,59.83366242,6299f149e92ead563fba08ef,62a441490214da0dfb32d112,,,,,,,,,,,,,,,,,,,,,,,,,,,,,,,,,,,,,,,,,,,,,,,,,,,,,,,,,,,,,,,,,,,,,,,,,,,,,,,,,,,,,,,,,,,,,,,,,,,,,
,,,,,,11,0,11,0,1,X V Q F H G B L J M P D K C T S W R N Z,5f26cf3dcb907d03e50a6f95,26,Mężczyzna,2022-06-11_09h16.48.579,task,2021.1.4,Win32,59.83366242,6299f149e92ead563fba08ef,62a441490214da0dfb32d112,,,,,,,,,,,,,,,,,,,,,,,,,,,,,,,,,,,,,,,,,,,,,,,,,,,,,,,,,,,,,,,,,,,,,,,,,,,,,,,,,,,,,,,,,,,,,,,,,,,,,
,,,,,,12,0,12,0,1,X V Q F H G B L J M P D K C T S W R N Z,5f26cf3dcb907d03e50a6f95,26,Mężczyzna,2022-06-11_09h16.48.579,task,2021.1.4,Win32,59.83366242,6299f149e92ead563fba08ef,62a441490214da0dfb32d112,,,,,,,,,,,,,,,,,,,,,,,,,,,,,,,,,,,,,,,,,,,,,,,,,,,,,,,,,,,,,,,,,,,,,,,,,,,,,,,,,,,,,,,,,,,,,,,,,,,,,
,,,,,,,,,,,,5f26cf3dcb907d03e50a6f95,26,Mężczyzna,2022-06-11_09h16.48.579,task,2021.1.4,Win32,59.83366242,6299f149e92ead563fba08ef,62a441490214da0dfb32d112,bphtwqlgmgdk,"[""b"",""p"",""h"",""t"",""w"",""q"",""l"",""g"",""m"",""g"",""d"",""k""]","[1.7303000000000566,1.8161000000000058,1.9711999999999534,2.914800000000014,3.0003000000000384,3.23619999999994,3.438099999999963,3.964300000000094,4.081199999999967,4.171100000000024,4.835199999999986,4.91459999999995,4.986099999999965]",0,BTPHTWQLGMGDK,28,0,28,0,1,,,,,,,,,,,,,,,,,,,,,,,,,,,,,,,,,,,,,,,,,,,,,,,,,,,,,,,,,,,,,,,,,,,,,,,,,,,,,,,,,,,,,,,,,,,
,,,,,,0,0,0,0,1,X V Q F H G B L J M P D K C T S W R N Z,5f26cf3dcb907d03e50a6f95,26,Mężczyzna,2022-06-11_09h16.48.579,task,2021.1.4,Win32,59.83366242,6299f149e92ead563fba08ef,62a441490214da0dfb32d112,,,,,,,,,,,,,,,,,,,,,,,,,,,,,,,,,,,,,,,,,,,,,,,,,,,,,,,,,,,,,,,,,,,,,,,,,,,,,,,,,,,,,,,,,,,,,,,,,,,,,
,,,,,,1,0,1,0,1,X V Q F H G B L J M P D K C T S W R N Z,5f26cf3dcb907d03e50a6f95,26,Mężczyzna,2022-06-11_09h16.48.579,task,2021.1.4,Win32,59.83366242,6299f149e92ead563fba08ef,62a441490214da0dfb32d112,,,,,,,,,,,,,,,,,,,,,,,,,,,,,,,,,,,,,,,,,,,,,,,,,,,,,,,,,,,,,,,,,,,,,,,,,,,,,,,,,,,,,,,,,,,,,,,,,,,,,
,,,,,,2,0,2,0,1,X V Q F H G B L J M P D K C T S W R N Z,5f26cf3dcb907d03e50a6f95,26,Mężczyzna,2022-06-11_09h16.48.579,task,2021.1.4,Win32,59.83366242,6299f149e92ead563fba08ef,62a441490214da0dfb32d112,,,,,,,,,,,,,,,,,,,,,,,,,,,,,,,,,,,,,,,,,,,,,,,,,,,,,,,,,,,,,,,,,,,,,,,,,,,,,,,,,,,,,,,,,,,,,,,,,,,,,
,,,,,,3,0,3,0,1,X V Q F H G B L J M P D K C T S W R N Z,5f26cf3dcb907d03e50a6f95,26,Mężczyzna,2022-06-11_09h16.48.579,task,2021.1.4,Win32,59.83366242,6299f149e92ead563fba08ef,62a441490214da0dfb32d112,,,,,,,,,,,,,,,,,,,,,,,,,,,,,,,,,,,,,,,,,,,,,,,,,,,,,,,,,,,,,,,,,,,,,,,,,,,,,,,,,,,,,,,,,,,,,,,,,,,,,
,,,,,,4,0,4,0,1,X V Q F H G B L J M P D K C T S W R N Z,5f26cf3dcb907d03e50a6f95,26,Mężczyzna,2022-06-11_09h16.48.579,task,2021.1.4,Win32,59.83366242,6299f149e92ead563fba08ef,62a441490214da0dfb32d112,,,,,,,,,,,,,,,,,,,,,,,,,,,,,,,,,,,,,,,,,,,,,,,,,,,,,,,,,,,,,,,,,,,,,,,,,,,,,,,,,,,,,,,,,,,,,,,,,,,,,
,,,,,,5,0,5,0,1,X V Q F H G B L J M P D K C T S W R N Z,5f26cf3dcb907d03e50a6f95,26,Mężczyzna,2022-06-11_09h16.48.579,task,2021.1.4,Win32,59.83366242,6299f149e92ead563fba08ef,62a441490214da0dfb32d112,,,,,,,,,,,,,,,,,,,,,,,,,,,,,,,,,,,,,,,,,,,,,,,,,,,,,,,,,,,,,,,,,,,,,,,,,,,,,,,,,,,,,,,,,,,,,,,,,,,,,
,,,,,,6,0,6,0,1,X V Q F H G B L J M P D K C T S W R N Z,5f26cf3dcb907d03e50a6f95,26,Mężczyzna,2022-06-11_09h16.48.579,task,2021.1.4,Win32,59.83366242,6299f149e92ead563fba08ef,62a441490214da0dfb32d112,,,,,,,,,,,,,,,,,,,,,,,,,,,,,,,,,,,,,,,,,,,,,,,,,,,,,,,,,,,,,,,,,,,,,,,,,,,,,,,,,,,,,,,,,,,,,,,,,,,,,
,,,,,,7,0,7,0,1,X V Q F H G B L J M P D K C T S W R N Z,5f26cf3dcb907d03e50a6f95,26,Mężczyzna,2022-06-11_09h16.48.579,task,2021.1.4,Win32,59.83366242,6299f149e92ead563fba08ef,62a441490214da0dfb32d112,,,,,,,,,,,,,,,,,,,,,,,,,,,,,,,,,,,,,,,,,,,,,,,,,,,,,,,,,,,,,,,,,,,,,,,,,,,,,,,,,,,,,,,,,,,,,,,,,,,,,
,,,,,,8,0,8,0,1,X V Q F H G B L J M P D K C T S W R N Z,5f26cf3dcb907d03e50a6f95,26,Mężczyzna,2022-06-11_09h16.48.579,task,2021.1.4,Win32,59.83366242,6299f149e92ead563fba08ef,62a441490214da0dfb32d112,,,,,,,,,,,,,,,,,,,,,,,,,,,,,,,,,,,,,,,,,,,,,,,,,,,,,,,,,,,,,,,,,,,,,,,,,,,,,,,,,,,,,,,,,,,,,,,,,,,,,
,,,,,,9,0,9,0,1,X V Q F H G B L J M P D K C T S W R N Z,5f26cf3dcb907d03e50a6f95,26,Mężczyzna,2022-06-11_09h16.48.579,task,2021.1.4,Win32,59.83366242,6299f149e92ead563fba08ef,62a441490214da0dfb32d112,,,,,,,,,,,,,,,,,,,,,,,,,,,,,,,,,,,,,,,,,,,,,,,,,,,,,,,,,,,,,,,,,,,,,,,,,,,,,,,,,,,,,,,,,,,,,,,,,,,,,
,,,,,,10,0,10,0,1,X V Q F H G B L J M P D K C T S W R N Z,5f26cf3dcb907d03e50a6f95,26,Mężczyzna,2022-06-11_09h16.48.579,task,2021.1.4,Win32,59.83366242,6299f149e92ead563fba08ef,62a441490214da0dfb32d112,,,,,,,,,,,,,,,,,,,,,,,,,,,,,,,,,,,,,,,,,,,,,,,,,,,,,,,,,,,,,,,,,,,,,,,,,,,,,,,,,,,,,,,,,,,,,,,,,,,,,
,,,,,,11,0,11,0,1,X V Q F H G B L J M P D K C T S W R N Z,5f26cf3dcb907d03e50a6f95,26,Mężczyzna,2022-06-11_09h16.48.579,task,2021.1.4,Win32,59.83366242,6299f149e92ead563fba08ef,62a441490214da0dfb32d112,,,,,,,,,,,,,,,,,,,,,,,,,,,,,,,,,,,,,,,,,,,,,,,,,,,,,,,,,,,,,,,,,,,,,,,,,,,,,,,,,,,,,,,,,,,,,,,,,,,,,
,,,,,,12,0,12,0,1,X V Q F H G B L J M P D K C T S W R N Z,5f26cf3dcb907d03e50a6f95,26,Mężczyzna,2022-06-11_09h16.48.579,task,2021.1.4,Win32,59.83366242,6299f149e92ead563fba08ef,62a441490214da0dfb32d112,,,,,,,,,,,,,,,,,,,,,,,,,,,,,,,,,,,,,,,,,,,,,,,,,,,,,,,,,,,,,,,,,,,,,,,,,,,,,,,,,,,,,,,,,,,,,,,,,,,,,
,,,,,,,,,,,,5f26cf3dcb907d03e50a6f95,26,Mężczyzna,2022-06-11_09h16.48.579,task,2021.1.4,Win32,59.83366242,6299f149e92ead563fba08ef,62a441490214da0dfb32d112,tnclpqkkfgwlf,"[""t"",""n"",""c"",""l"",""p"",""q"",""k"",""k"",""f"",""g"",""w"",""l"",""f""]","[1.7196999999998752,1.9500999999999067,2.233399999999847,2.366899999999873,2.9888999999998305,3.0664999999999054,3.656799999999862,3.789899999999875,4.102399999999875,4.321599999999876,5.319799999999873,5.420799999999872,5.566499999999905,7.037899999999809]",1,TNCLPQKKFGWLF,29,0,29,0,1,,,,,,,,,,,,,,,,,,,,,,,,,,,,,,,,,,,,,,,,,,,,,,,,,,,,,,,,,,,,,,,,,,,,,,,,,,,,,,,,,,,,,,,,,,,
,,,,,,0,0,0,0,1,X V Q F H G B L J M P D K C T S W R N Z,5f26cf3dcb907d03e50a6f95,26,Mężczyzna,2022-06-11_09h16.48.579,task,2021.1.4,Win32,59.83366242,6299f149e92ead563fba08ef,62a441490214da0dfb32d112,,,,,,,,,,,,,,,,,,,,,,,,,,,,,,,,,,,,,,,,,,,,,,,,,,,,,,,,,,,,,,,,,,,,,,,,,,,,,,,,,,,,,,,,,,,,,,,,,,,,,
,,,,,,1,0,1,0,1,X V Q F H G B L J M P D K C T S W R N Z,5f26cf3dcb907d03e50a6f95,26,Mężczyzna,2022-06-11_09h16.48.579,task,2021.1.4,Win32,59.83366242,6299f149e92ead563fba08ef,62a441490214da0dfb32d112,,,,,,,,,,,,,,,,,,,,,,,,,,,,,,,,,,,,,,,,,,,,,,,,,,,,,,,,,,,,,,,,,,,,,,,,,,,,,,,,,,,,,,,,,,,,,,,,,,,,,
,,,,,,2,0,2,0,1,X V Q F H G B L J M P D K C T S W R N Z,5f26cf3dcb907d03e50a6f95,26,Mężczyzna,2022-06-11_09h16.48.579,task,2021.1.4,Win32,59.83366242,6299f149e92ead563fba08ef,62a441490214da0dfb32d112,,,,,,,,,,,,,,,,,,,,,,,,,,,,,,,,,,,,,,,,,,,,,,,,,,,,,,,,,,,,,,,,,,,,,,,,,,,,,,,,,,,,,,,,,,,,,,,,,,,,,
,,,,,,3,0,3,0,1,X V Q F H G B L J M P D K C T S W R N Z,5f26cf3dcb907d03e50a6f95,26,Mężczyzna,2022-06-11_09h16.48.579,task,2021.1.4,Win32,59.83366242,6299f149e92ead563fba08ef,62a441490214da0dfb32d112,,,,,,,,,,,,,,,,,,,,,,,,,,,,,,,,,,,,,,,,,,,,,,,,,,,,,,,,,,,,,,,,,,,,,,,,,,,,,,,,,,,,,,,,,,,,,,,,,,,,,
,,,,,,4,0,4,0,1,X V Q F H G B L J M P D K C T S W R N Z,5f26cf3dcb907d03e50a6f95,26,Mężczyzna,2022-06-11_09h16.48.579,task,2021.1.4,Win32,59.83366242,6299f149e92ead563fba08ef,62a441490214da0dfb32d112,,,,,,,,,,,,,,,,,,,,,,,,,,,,,,,,,,,,,,,,,,,,,,,,,,,,,,,,,,,,,,,,,,,,,,,,,,,,,,,,,,,,,,,,,,,,,,,,,,,,,
,,,,,,5,0,5,0,1,X V Q F H G B L J M P D K C T S W R N Z,5f26cf3dcb907d03e50a6f95,26,Mężczyzna,2022-06-11_09h16.48.579,task,2021.1.4,Win32,59.83366242,6299f149e92ead563fba08ef,62a441490214da0dfb32d112,,,,,,,,,,,,,,,,,,,,,,,,,,,,,,,,,,,,,,,,,,,,,,,,,,,,,,,,,,,,,,,,,,,,,,,,,,,,,,,,,,,,,,,,,,,,,,,,,,,,,
,,,,,,6,0,6,0,1,X V Q F H G B L J M P D K C T S W R N Z,5f26cf3dcb907d03e50a6f95,26,Mężczyzna,2022-06-11_09h16.48.579,task,2021.1.4,Win32,59.83366242,6299f149e92ead563fba08ef,62a441490214da0dfb32d112,,,,,,,,,,,,,,,,,,,,,,,,,,,,,,,,,,,,,,,,,,,,,,,,,,,,,,,,,,,,,,,,,,,,,,,,,,,,,,,,,,,,,,,,,,,,,,,,,,,,,
,,,,,,7,0,7,0,1,X V Q F H G B L J M P D K C T S W R N Z,5f26cf3dcb907d03e50a6f95,26,Mężczyzna,2022-06-11_09h16.48.579,task,2021.1.4,Win32,59.83366242,6299f149e92ead563fba08ef,62a441490214da0dfb32d112,,,,,,,,,,,,,,,,,,,,,,,,,,,,,,,,,,,,,,,,,,,,,,,,,,,,,,,,,,,,,,,,,,,,,,,,,,,,,,,,,,,,,,,,,,,,,,,,,,,,,
,,,,,,8,0,8,0,1,X V Q F H G B L J M P D K C T S W R N Z,5f26cf3dcb907d03e50a6f95,26,Mężczyzna,2022-06-11_09h16.48.579,task,2021.1.4,Win32,59.83366242,6299f149e92ead563fba08ef,62a441490214da0dfb32d112,,,,,,,,,,,,,,,,,,,,,,,,,,,,,,,,,,,,,,,,,,,,,,,,,,,,,,,,,,,,,,,,,,,,,,,,,,,,,,,,,,,,,,,,,,,,,,,,,,,,,
,,,,,,9,0,9,0,1,X V Q F H G B L J M P D K C T S W R N Z,5f26cf3dcb907d03e50a6f95,26,Mężczyzna,2022-06-11_09h16.48.579,task,2021.1.4,Win32,59.83366242,6299f149e92ead563fba08ef,62a441490214da0dfb32d112,,,,,,,,,,,,,,,,,,,,,,,,,,,,,,,,,,,,,,,,,,,,,,,,,,,,,,,,,,,,,,,,,,,,,,,,,,,,,,,,,,,,,,,,,,,,,,,,,,,,,
,,,,,,10,0,10,0,1,X V Q F H G B L J M P D K C T S W R N Z,5f26cf3dcb907d03e50a6f95,26,Mężczyzna,2022-06-11_09h16.48.579,task,2021.1.4,Win32,59.83366242,6299f149e92ead563fba08ef,62a441490214da0dfb32d112,,,,,,,,,,,,,,,,,,,,,,,,,,,,,,,,,,,,,,,,,,,,,,,,,,,,,,,,,,,,,,,,,,,,,,,,,,,,,,,,,,,,,,,,,,,,,,,,,,,,,
,,,,,,11,0,11,0,1,X V Q F H G B L J M P D K C T S W R N Z,5f26cf3dcb907d03e50a6f95,26,Mężczyzna,2022-06-11_09h16.48.579,task,2021.1.4,Win32,59.83366242,6299f149e92ead563fba08ef,62a441490214da0dfb32d112,,,,,,,,,,,,,,,,,,,,,,,,,,,,,,,,,,,,,,,,,,,,,,,,,,,,,,,,,,,,,,,,,,,,,,,,,,,,,,,,,,,,,,,,,,,,,,,,,,,,,
,,,,,,12,0,12,0,1,X V Q F H G B L J M P D K C T S W R N Z,5f26cf3dcb907d03e50a6f95,26,Mężczyzna,2022-06-11_09h16.48.579,task,2021.1.4,Win32,59.83366242,6299f149e92ead563fba08ef,62a441490214da0dfb32d112,,,,,,,,,,,,,,,,,,,,,,,,,,,,,,,,,,,,,,,,,,,,,,,,,,,,,,,,,,,,,,,,,,,,,,,,,,,,,,,,,,,,,,,,,,,,,,,,,,,,,
,,,,,,,,,,,,5f26cf3dcb907d03e50a6f95,26,Mężczyzna,2022-06-11_09h16.48.579,task,2021.1.4,Win32,59.83366242,6299f149e92ead563fba08ef,62a441490214da0dfb32d112,znbhrkvsqmxmq,"[""z"",""n"",""b"",""h"",""r"",""k"",""v"",""s"",""q"",""m"",""x"",""m"",""q""]","[3.9074000000000524,4.016499999999951,4.1404,4.750100000000089,4.969100000000026,5.771100000000047,5.876899999999978,8.624500000000012,8.721499999999992,9.249700000000075,9.325500000000034,9.733299999999986,9.783400000000029,10.11570000000006]",1,ZNBHRKVSQMXMQ,30,0,30,0,1,,,,,,,,,,,,,,,,,,,,,,,,,,,,,,,,,,,,,,,,,,,,,,,,,,,,,,,,,,,,,,,,,,,,,,,,,,,,,,,,,,,,,,,,,,,
,,,,,,0,0,0,0,1,X V Q F H G B L J M P D K C T S W R N Z,5f26cf3dcb907d03e50a6f95,26,Mężczyzna,2022-06-11_09h16.48.579,task,2021.1.4,Win32,59.83366242,6299f149e92ead563fba08ef,62a441490214da0dfb32d112,,,,,,,,,,,,,,,,,,,,,,,,,,,,,,,,,,,,,,,,,,,,,,,,,,,,,,,,,,,,,,,,,,,,,,,,,,,,,,,,,,,,,,,,,,,,,,,,,,,,,
,,,,,,1,0,1,0,1,X V Q F H G B L J M P D K C T S W R N Z,5f26cf3dcb907d03e50a6f95,26,Mężczyzna,2022-06-11_09h16.48.579,task,2021.1.4,Win32,59.83366242,6299f149e92ead563fba08ef,62a441490214da0dfb32d112,,,,,,,,,,,,,,,,,,,,,,,,,,,,,,,,,,,,,,,,,,,,,,,,,,,,,,,,,,,,,,,,,,,,,,,,,,,,,,,,,,,,,,,,,,,,,,,,,,,,,
,,,,,,2,0,2,0,1,X V Q F H G B L J M P D K C T S W R N Z,5f26cf3dcb907d03e50a6f95,26,Mężczyzna,2022-06-11_09h16.48.579,task,2021.1.4,Win32,59.83366242,6299f149e92ead563fba08ef,62a441490214da0dfb32d112,,,,,,,,,,,,,,,,,,,,,,,,,,,,,,,,,,,,,,,,,,,,,,,,,,,,,,,,,,,,,,,,,,,,,,,,,,,,,,,,,,,,,,,,,,,,,,,,,,,,,
,,,,,,3,0,3,0,1,X V Q F H G B L J M P D K C T S W R N Z,5f26cf3dcb907d03e50a6f95,26,Mężczyzna,2022-06-11_09h16.48.579,task,2021.1.4,Win32,59.83366242,6299f149e92ead563fba08ef,62a441490214da0dfb32d112,,,,,,,,,,,,,,,,,,,,,,,,,,,,,,,,,,,,,,,,,,,,,,,,,,,,,,,,,,,,,,,,,,,,,,,,,,,,,,,,,,,,,,,,,,,,,,,,,,,,,
,,,,,,4,0,4,0,1,X V Q F H G B L J M P D K C T S W R N Z,5f26cf3dcb907d03e50a6f95,26,Mężczyzna,2022-06-11_09h16.48.579,task,2021.1.4,Win32,59.83366242,6299f149e92ead563fba08ef,62a441490214da0dfb32d112,,,,,,,,,,,,,,,,,,,,,,,,,,,,,,,,,,,,,,,,,,,,,,,,,,,,,,,,,,,,,,,,,,,,,,,,,,,,,,,,,,,,,,,,,,,,,,,,,,,,,
,,,,,,5,0,5,0,1,X V Q F H G B L J M P D K C T S W R N Z,5f26cf3dcb907d03e50a6f95,26,Mężczyzna,2022-06-11_09h16.48.579,task,2021.1.4,Win32,59.83366242,6299f149e92ead563fba08ef,62a441490214da0dfb32d112,,,,,,,,,,,,,,,,,,,,,,,,,,,,,,,,,,,,,,,,,,,,,,,,,,,,,,,,,,,,,,,,,,,,,,,,,,,,,,,,,,,,,,,,,,,,,,,,,,,,,
,,,,,,6,0,6,0,1,X V Q F H G B L J M P D K C T S W R N Z,5f26cf3dcb907d03e50a6f95,26,Mężczyzna,2022-06-11_09h16.48.579,task,2021.1.4,Win32,59.83366242,6299f149e92ead563fba08ef,62a441490214da0dfb32d112,,,,,,,,,,,,,,,,,,,,,,,,,,,,,,,,,,,,,,,,,,,,,,,,,,,,,,,,,,,,,,,,,,,,,,,,,,,,,,,,,,,,,,,,,,,,,,,,,,,,,
,,,,,,7,0,7,0,1,X V Q F H G B L J M P D K C T S W R N Z,5f26cf3dcb907d03e50a6f95,26,Mężczyzna,2022-06-11_09h16.48.579,task,2021.1.4,Win32,59.83366242,6299f149e92ead563fba08ef,62a441490214da0dfb32d112,,,,,,,,,,,,,,,,,,,,,,,,,,,,,,,,,,,,,,,,,,,,,,,,,,,,,,,,,,,,,,,,,,,,,,,,,,,,,,,,,,,,,,,,,,,,,,,,,,,,,
,,,,,,8,0,8,0,1,X V Q F H G B L J M P D K C T S W R N Z,5f26cf3dcb907d03e50a6f95,26,Mężczyzna,2022-06-11_09h16.48.579,task,2021.1.4,Win32,59.83366242,6299f149e92ead563fba08ef,62a441490214da0dfb32d112,,,,,,,,,,,,,,,,,,,,,,,,,,,,,,,,,,,,,,,,,,,,,,,,,,,,,,,,,,,,,,,,,,,,,,,,,,,,,,,,,,,,,,,,,,,,,,,,,,,,,
,,,,,,9,0,9,0,1,X V Q F H G B L J M P D K C T S W R N Z,5f26cf3dcb907d03e50a6f95,26,Mężczyzna,2022-06-11_09h16.48.579,task,2021.1.4,Win32,59.83366242,6299f149e92ead563fba08ef,62a441490214da0dfb32d112,,,,,,,,,,,,,,,,,,,,,,,,,,,,,,,,,,,,,,,,,,,,,,,,,,,,,,,,,,,,,,,,,,,,,,,,,,,,,,,,,,,,,,,,,,,,,,,,,,,,,
,,,,,,10,0,10,0,1,X V Q F H G B L J M P D K C T S W R N Z,5f26cf3dcb907d03e50a6f95,26,Mężczyzna,2022-06-11_09h16.48.579,task,2021.1.4,Win32,59.83366242,6299f149e92ead563fba08ef,62a441490214da0dfb32d112,,,,,,,,,,,,,,,,,,,,,,,,,,,,,,,,,,,,,,,,,,,,,,,,,,,,,,,,,,,,,,,,,,,,,,,,,,,,,,,,,,,,,,,,,,,,,,,,,,,,,
,,,,,,11,0,11,0,1,X V Q F H G B L J M P D K C T S W R N Z,5f26cf3dcb907d03e50a6f95,26,Mężczyzna,2022-06-11_09h16.48.579,task,2021.1.4,Win32,59.83366242,6299f149e92ead563fba08ef,62a441490214da0dfb32d112,,,,,,,,,,,,,,,,,,,,,,,,,,,,,,,,,,,,,,,,,,,,,,,,,,,,,,,,,,,,,,,,,,,,,,,,,,,,,,,,,,,,,,,,,,,,,,,,,,,,,
,,,,,,12,0,12,0,1,X V Q F H G B L J M P D K C T S W R N Z,5f26cf3dcb907d03e50a6f95,26,Mężczyzna,2022-06-11_09h16.48.579,task,2021.1.4,Win32,59.83366242,6299f149e92ead563fba08ef,62a441490214da0dfb32d112,,,,,,,,,,,,,,,,,,,,,,,,,,,,,,,,,,,,,,,,,,,,,,,,,,,,,,,,,,,,,,,,,,,,,,,,,,,,,,,,,,,,,,,,,,,,,,,,,,,,,
,,,,,,13,0,13,0,1,X V Q F H G B L J M P D K C T S W R N Z,5f26cf3dcb907d03e50a6f95,26,Mężczyzna,2022-06-11_09h16.48.579,task,2021.1.4,Win32,59.83366242,6299f149e92ead563fba08ef,62a441490214da0dfb32d112,,,,,,,,,,,,,,,,,,,,,,,,,,,,,,,,,,,,,,,,,,,,,,,,,,,,,,,,,,,,,,,,,,,,,,,,,,,,,,,,,,,,,,,,,,,,,,,,,,,,,
,,,,,,,,,,,,5f26cf3dcb907d03e50a6f95,26,Mężczyzna,2022-06-11_09h16.48.579,task,2021.1.4,Win32,59.83366242,6299f149e92ead563fba08ef,62a441490214da0dfb32d112,hpnqfwqpcncmdx,"[""h"",""p"",""n"",""q"",""f"",""w"",""q"",""p"",""c"",""n"",""c"",""m"",""d"",""x""]","[4.133299999999849,4.24129999999991,5.025199999999927,5.107299999999896,5.75,5.8361999999999625,6.175299999999879,16.860500000000002,16.99929999999995,17.432500000000005,17.5157999999999,19.465799999999945,20.07129999999995,20.208299999999895,20.9156999999999]",0,HPNQFWQPCNCXMD,31,0,31,0,1,,,,,,,,,,,,,,,,,,,,,,,,,,,,,,,,,,,,,,,,,,,,,,,,,,,,,,,,,,,,,,,,,,,,,,,,,,,,,,,,,,,,,,,,,,,
,,,,,,0,0,0,0,1,X V Q F H G B L J M P D K C T S W R N Z,5f26cf3dcb907d03e50a6f95,26,Mężczyzna,2022-06-11_09h16.48.579,task,2021.1.4,Win32,59.83366242,6299f149e92ead563fba08ef,62a441490214da0dfb32d112,,,,,,,,,,,,,,,,,,,,,,,,,,,,,,,,,,,,,,,,,,,,,,,,,,,,,,,,,,,,,,,,,,,,,,,,,,,,,,,,,,,,,,,,,,,,,,,,,,,,,
,,,,,,1,0,1,0,1,X V Q F H G B L J M P D K C T S W R N Z,5f26cf3dcb907d03e50a6f95,26,Mężczyzna,2022-06-11_09h16.48.579,task,2021.1.4,Win32,59.83366242,6299f149e92ead563fba08ef,62a441490214da0dfb32d112,,,,,,,,,,,,,,,,,,,,,,,,,,,,,,,,,,,,,,,,,,,,,,,,,,,,,,,,,,,,,,,,,,,,,,,,,,,,,,,,,,,,,,,,,,,,,,,,,,,,,
,,,,,,2,0,2,0,1,X V Q F H G B L J M P D K C T S W R N Z,5f26cf3dcb907d03e50a6f95,26,Mężczyzna,2022-06-11_09h16.48.579,task,2021.1.4,Win32,59.83366242,6299f149e92ead563fba08ef,62a441490214da0dfb32d112,,,,,,,,,,,,,,,,,,,,,,,,,,,,,,,,,,,,,,,,,,,,,,,,,,,,,,,,,,,,,,,,,,,,,,,,,,,,,,,,,,,,,,,,,,,,,,,,,,,,,
