key_resp_15.keys,key_resp_15.rt,key_resp_16.keys,key_resp_16.rt,key_resp_4.keys,key_resp_4.rt,next_letter.thisRepN,next_letter.thisTrialN,next_letter.thisN,next_letter.thisIndex,next_letter.ran,letter,participant,Wiek*,Płeć,date,expName,psychopyVersion,OS,frameRate,study_id,session,simple_recall,key_resp_5.keys,key_resp_5.rt,simple_recall_corr,simple_recall_corrkeys,next_level.thisRepN,next_level.thisTrialN,next_level.thisN,next_level.thisIndex,next_level.ran,key_resp_2.keys,key_resp_2.rt,digit_answer,key_resp.keys,key_resp.corr,key_resp.rt,RT_list,next_equation.thisRepN,next_equation.thisTrialN,next_equation.thisN,next_equation.thisIndex,next_equation.ran,Task,Trial,Problem,Operation_answer,processing_score,sumRT,meanRT,sumdiff,sd,RT,key_resp_3.keys,key_resp_3.rt,repeat_practice.thisRepN,repeat_practice.thisTrialN,repeat_practice.thisN,repeat_practice.thisIndex,repeat_practice.ran,key_resp_6.keys,key_resp_6.rt,key_resp_11.keys,key_resp_11.corr,key_resp_11.rt,operation_correct,repeat_if_wrong_prac.thisRepN,repeat_if_wrong_prac.thisTrialN,repeat_if_wrong_prac.thisN,repeat_if_wrong_prac.thisIndex,repeat_if_wrong_prac.ran,span_size_prac.thisRepN,span_size_prac.thisTrialN,span_size_prac.thisN,span_size_prac.thisIndex,span_size_prac.ran,complex_recall_practice,key_resp_9.keys,key_resp_9.corr,key_resp_9.rt,complex_prac_corr,span_recall_prac.thisRepN,span_recall_prac.thisTrialN,span_recall_prac.thisN,span_recall_prac.thisIndex,span_recall_prac.ran,key_resp_10.keys,key_resp_10.rt,key_resp_7.keys,key_resp_7.corr,key_resp_7.rt,repeat_if_wrong.thisRepN,repeat_if_wrong.thisTrialN,repeat_if_wrong.thisN,repeat_if_wrong.thisIndex,repeat_if_wrong.ran,span_size.thisRepN,span_size.thisTrialN,span_size.thisN,span_size.thisIndex,span_size.ran,complex_recall,key_resp_8.keys,key_resp_8.corr,key_resp_8.rt,complex_recall_corr,complex_recall_corrkeys,span_recall.thisRepN,span_recall.thisTrialN,span_recall.thisN,span_recall.thisIndex,span_recall.ran,key_resp_13.keys,key_resp_13.corr,key_resp_13.rt,random_loop.thisRepN,random_loop.thisTrialN,random_loop.thisN,random_loop.thisIndex,random_loop.ran,key_resp_12.keys,key_resp_12.rt
space,21.5673,space,5.8735,space,3.619,0,0,0,0,1,X V Q F H G B L J M P D K C T S W R N Z,5f271938dab22f02cdc90584,19,Kobieta,2022-06-11_09h37.46.102,task,2021.1.4,Win32,60.27000964,6299f149e92ead563fba08ef,62a44627a59f0960af9d34b2,,,,,,,,,,,,,,,,,,,,,,,,,,,,,,,,,,,,,,,,,,,,,,,,,,,,,,,,,,,,,,,,,,,,,,,,,,,,,,,,,,,,,,,,,,,,,,,,,,,,,
,,,,,,1,0,1,0,1,X V Q F H G B L J M P D K C T S W R N Z,5f271938dab22f02cdc90584,19,Kobieta,2022-06-11_09h37.46.102,task,2021.1.4,Win32,60.27000964,6299f149e92ead563fba08ef,62a44627a59f0960af9d34b2,,,,,,,,,,,,,,,,,,,,,,,,,,,,,,,,,,,,,,,,,,,,,,,,,,,,,,,,,,,,,,,,,,,,,,,,,,,,,,,,,,,,,,,,,,,,,,,,,,,,,
,,,,,,,,,,,,5f271938dab22f02cdc90584,19,Kobieta,2022-06-11_09h37.46.102,task,2021.1.4,Win32,60.27000964,6299f149e92ead563fba08ef,62a44627a59f0960af9d34b2,zf,"[""z"",""f""]","[1.012900000095371,1.4134000000953648,2.411600000381469]",1,ZF,0,0,0,0,1,,,,,,,,,,,,,,,,,,,,,,,,,,,,,,,,,,,,,,,,,,,,,,,,,,,,,,,,,,,,,,,,,,,,,,,,,,,,,,,,,,,,,,,,,,,
,,,,,,0,0,0,0,1,X V Q F H G B L J M P D K C T S W R N Z,5f271938dab22f02cdc90584,19,Kobieta,2022-06-11_09h37.46.102,task,2021.1.4,Win32,60.27000964,6299f149e92ead563fba08ef,62a44627a59f0960af9d34b2,,,,,,,,,,,,,,,,,,,,,,,,,,,,,,,,,,,,,,,,,,,,,,,,,,,,,,,,,,,,,,,,,,,,,,,,,,,,,,,,,,,,,,,,,,,,,,,,,,,,,
,,,,,,1,0,1,0,1,X V Q F H G B L J M P D K C T S W R N Z,5f271938dab22f02cdc90584,19,Kobieta,2022-06-11_09h37.46.102,task,2021.1.4,Win32,60.27000964,6299f149e92ead563fba08ef,62a44627a59f0960af9d34b2,,,,,,,,,,,,,,,,,,,,,,,,,,,,,,,,,,,,,,,,,,,,,,,,,,,,,,,,,,,,,,,,,,,,,,,,,,,,,,,,,,,,,,,,,,,,,,,,,,,,,
,,,,,,,,,,,,5f271938dab22f02cdc90584,19,Kobieta,2022-06-11_09h37.46.102,task,2021.1.4,Win32,60.27000964,6299f149e92ead563fba08ef,62a44627a59f0960af9d34b2,xs,"[""x"",""s""]","[0.7674999999999983,0.916800000190733,1.0508000001907334]",1,XS,1,0,1,0,1,,,,,,,,,,,,,,,,,,,,,,,,,,,,,,,,,,,,,,,,,,,,,,,,,,,,,,,,,,,,,,,,,,,,,,,,,,,,,,,,,,,,,,,,,,,
,,,,,,0,0,0,0,1,X V Q F H G B L J M P D K C T S W R N Z,5f271938dab22f02cdc90584,19,Kobieta,2022-06-11_09h37.46.102,task,2021.1.4,Win32,60.27000964,6299f149e92ead563fba08ef,62a44627a59f0960af9d34b2,,,,,,,,,,,,,,,,,,,,,,,,,,,,,,,,,,,,,,,,,,,,,,,,,,,,,,,,,,,,,,,,,,,,,,,,,,,,,,,,,,,,,,,,,,,,,,,,,,,,,
,,,,,,1,0,1,0,1,X V Q F H G B L J M P D K C T S W R N Z,5f271938dab22f02cdc90584,19,Kobieta,2022-06-11_09h37.46.102,task,2021.1.4,Win32,60.27000964,6299f149e92ead563fba08ef,62a44627a59f0960af9d34b2,,,,,,,,,,,,,,,,,,,,,,,,,,,,,,,,,,,,,,,,,,,,,,,,,,,,,,,,,,,,,,,,,,,,,,,,,,,,,,,,,,,,,,,,,,,,,,,,,,,,,
,,,,,,2,0,2,0,1,X V Q F H G B L J M P D K C T S W R N Z,5f271938dab22f02cdc90584,19,Kobieta,2022-06-11_09h37.46.102,task,2021.1.4,Win32,60.27000964,6299f149e92ead563fba08ef,62a44627a59f0960af9d34b2,,,,,,,,,,,,,,,,,,,,,,,,,,,,,,,,,,,,,,,,,,,,,,,,,,,,,,,,,,,,,,,,,,,,,,,,,,,,,,,,,,,,,,,,,,,,,,,,,,,,,
,,,,,,,,,,,,5f271938dab22f02cdc90584,19,Kobieta,2022-06-11_09h37.46.102,task,2021.1.4,Win32,60.27000964,6299f149e92ead563fba08ef,62a44627a59f0960af9d34b2,kdz,"[""k"",""d"",""z""]","[0.3504999999999967,0.4514999999999958,0.6676999998092725,0.8302999997139011]",1,KDZ,2,0,2,0,1,,,,,,,,,,,,,,,,,,,,,,,,,,,,,,,,,,,,,,,,,,,,,,,,,,,,,,,,,,,,,,,,,,,,,,,,,,,,,,,,,,,,,,,,,,,
,,,,,,0,0,0,0,1,X V Q F H G B L J M P D K C T S W R N Z,5f271938dab22f02cdc90584,19,Kobieta,2022-06-11_09h37.46.102,task,2021.1.4,Win32,60.27000964,6299f149e92ead563fba08ef,62a44627a59f0960af9d34b2,,,,,,,,,,,,,,,,,,,,,,,,,,,,,,,,,,,,,,,,,,,,,,,,,,,,,,,,,,,,,,,,,,,,,,,,,,,,,,,,,,,,,,,,,,,,,,,,,,,,,
,,,,,,1,0,1,0,1,X V Q F H G B L J M P D K C T S W R N Z,5f271938dab22f02cdc90584,19,Kobieta,2022-06-11_09h37.46.102,task,2021.1.4,Win32,60.27000964,6299f149e92ead563fba08ef,62a44627a59f0960af9d34b2,,,,,,,,,,,,,,,,,,,,,,,,,,,,,,,,,,,,,,,,,,,,,,,,,,,,,,,,,,,,,,,,,,,,,,,,,,,,,,,,,,,,,,,,,,,,,,,,,,,,,
,,,,,,2,0,2,0,1,X V Q F H G B L J M P D K C T S W R N Z,5f271938dab22f02cdc90584,19,Kobieta,2022-06-11_09h37.46.102,task,2021.1.4,Win32,60.27000964,6299f149e92ead563fba08ef,62a44627a59f0960af9d34b2,,,,,,,,,,,,,,,,,,,,,,,,,,,,,,,,,,,,,,,,,,,,,,,,,,,,,,,,,,,,,,,,,,,,,,,,,,,,,,,,,,,,,,,,,,,,,,,,,,,,,
,,,,,,,,,,,,5f271938dab22f02cdc90584,19,Kobieta,2022-06-11_09h37.46.102,task,2021.1.4,Win32,60.27000964,6299f149e92ead563fba08ef,62a44627a59f0960af9d34b2,sht,"[""s"",""h"",""t""]","[0.505200000286095,0.8034000000953654,0.9557000002861002,1.082499999999996]",1,SHT,3,0,3,0,1,,,,,,,,,,,,,,,,,,,,,,,,,,,,,,,,,,,,,,,,,,,,,,,,,,,,,,,,,,,,,,,,,,,,,,,,,,,,,,,,,,,,,,,,,,,
,,,,,,0,0,0,0,1,X V Q F H G B L J M P D K C T S W R N Z,5f271938dab22f02cdc90584,19,Kobieta,2022-06-11_09h37.46.102,task,2021.1.4,Win32,60.27000964,6299f149e92ead563fba08ef,62a44627a59f0960af9d34b2,,,,,,,,,,,,,,,,,,,,,,,,,,,,,,,,,,,,,,,,,,,,,,,,,,,,,,,,,,,,,,,,,,,,,,,,,,,,,,,,,,,,,,,,,,,,,,,,,,,,,
,,,,,,1,0,1,0,1,X V Q F H G B L J M P D K C T S W R N Z,5f271938dab22f02cdc90584,19,Kobieta,2022-06-11_09h37.46.102,task,2021.1.4,Win32,60.27000964,6299f149e92ead563fba08ef,62a44627a59f0960af9d34b2,,,,,,,,,,,,,,,,,,,,,,,,,,,,,,,,,,,,,,,,,,,,,,,,,,,,,,,,,,,,,,,,,,,,,,,,,,,,,,,,,,,,,,,,,,,,,,,,,,,,,
,,,,,,2,0,2,0,1,X V Q F H G B L J M P D K C T S W R N Z,5f271938dab22f02cdc90584,19,Kobieta,2022-06-11_09h37.46.102,task,2021.1.4,Win32,60.27000964,6299f149e92ead563fba08ef,62a44627a59f0960af9d34b2,,,,,,,,,,,,,,,,,,,,,,,,,,,,,,,,,,,,,,,,,,,,,,,,,,,,,,,,,,,,,,,,,,,,,,,,,,,,,,,,,,,,,,,,,,,,,,,,,,,,,
,,,,,,3,0,3,0,1,X V Q F H G B L J M P D K C T S W R N Z,5f271938dab22f02cdc90584,19,Kobieta,2022-06-11_09h37.46.102,task,2021.1.4,Win32,60.27000964,6299f149e92ead563fba08ef,62a44627a59f0960af9d34b2,,,,,,,,,,,,,,,,,,,,,,,,,,,,,,,,,,,,,,,,,,,,,,,,,,,,,,,,,,,,,,,,,,,,,,,,,,,,,,,,,,,,,,,,,,,,,,,,,,,,,
,,,,,,,,,,,,5f271938dab22f02cdc90584,19,Kobieta,2022-06-11_09h37.46.102,task,2021.1.4,Win32,60.27000964,6299f149e92ead563fba08ef,62a44627a59f0960af9d34b2,dgdz,"[""d"",""g"",""d"",""z""]","[0.5501999998092657,0.6660999999046453,0.76589999961854,0.9705000000000013,1.1882999997139052]",1,DGDZ,4,0,4,0,1,,,,,,,,,,,,,,,,,,,,,,,,,,,,,,,,,,,,,,,,,,,,,,,,,,,,,,,,,,,,,,,,,,,,,,,,,,,,,,,,,,,,,,,,,,,
,,,,,,0,0,0,0,1,X V Q F H G B L J M P D K C T S W R N Z,5f271938dab22f02cdc90584,19,Kobieta,2022-06-11_09h37.46.102,task,2021.1.4,Win32,60.27000964,6299f149e92ead563fba08ef,62a44627a59f0960af9d34b2,,,,,,,,,,,,,,,,,,,,,,,,,,,,,,,,,,,,,,,,,,,,,,,,,,,,,,,,,,,,,,,,,,,,,,,,,,,,,,,,,,,,,,,,,,,,,,,,,,,,,
,,,,,,1,0,1,0,1,X V Q F H G B L J M P D K C T S W R N Z,5f271938dab22f02cdc90584,19,Kobieta,2022-06-11_09h37.46.102,task,2021.1.4,Win32,60.27000964,6299f149e92ead563fba08ef,62a44627a59f0960af9d34b2,,,,,,,,,,,,,,,,,,,,,,,,,,,,,,,,,,,,,,,,,,,,,,,,,,,,,,,,,,,,,,,,,,,,,,,,,,,,,,,,,,,,,,,,,,,,,,,,,,,,,
,,,,,,2,0,2,0,1,X V Q F H G B L J M P D K C T S W R N Z,5f271938dab22f02cdc90584,19,Kobieta,2022-06-11_09h37.46.102,task,2021.1.4,Win32,60.27000964,6299f149e92ead563fba08ef,62a44627a59f0960af9d34b2,,,,,,,,,,,,,,,,,,,,,,,,,,,,,,,,,,,,,,,,,,,,,,,,,,,,,,,,,,,,,,,,,,,,,,,,,,,,,,,,,,,,,,,,,,,,,,,,,,,,,
,,,,,,3,0,3,0,1,X V Q F H G B L J M P D K C T S W R N Z,5f271938dab22f02cdc90584,19,Kobieta,2022-06-11_09h37.46.102,task,2021.1.4,Win32,60.27000964,6299f149e92ead563fba08ef,62a44627a59f0960af9d34b2,,,,,,,,,,,,,,,,,,,,,,,,,,,,,,,,,,,,,,,,,,,,,,,,,,,,,,,,,,,,,,,,,,,,,,,,,,,,,,,,,,,,,,,,,,,,,,,,,,,,,
,,,,,,,,,,,,5f271938dab22f02cdc90584,19,Kobieta,2022-06-11_09h37.46.102,task,2021.1.4,Win32,60.27000964,6299f149e92ead563fba08ef,62a44627a59f0960af9d34b2,fkcv,"[""f"",""k"",""c"",""v""]","[0.5955999999046355,0.7663999996185282,0.9493999996185352,1.2837999997139065,1.6737999997138928]",1,FKCV,5,0,5,0,1,,,,,,,,,,,,,,,,,,,,,,,,,,,,,,,,,,,,,,,,,,,,,,,,,,,,,,,,,,,,,,,,,,,,,,,,,,,,,,,,,,,,,,,,,,,
,,,,,,0,0,0,0,1,X V Q F H G B L J M P D K C T S W R N Z,5f271938dab22f02cdc90584,19,Kobieta,2022-06-11_09h37.46.102,task,2021.1.4,Win32,60.27000964,6299f149e92ead563fba08ef,62a44627a59f0960af9d34b2,,,,,,,,,,,,,,,,,,,,,,,,,,,,,,,,,,,,,,,,,,,,,,,,,,,,,,,,,,,,,,,,,,,,,,,,,,,,,,,,,,,,,,,,,,,,,,,,,,,,,
,,,,,,1,0,1,0,1,X V Q F H G B L J M P D K C T S W R N Z,5f271938dab22f02cdc90584,19,Kobieta,2022-06-11_09h37.46.102,task,2021.1.4,Win32,60.27000964,6299f149e92ead563fba08ef,62a44627a59f0960af9d34b2,,,,,,,,,,,,,,,,,,,,,,,,,,,,,,,,,,,,,,,,,,,,,,,,,,,,,,,,,,,,,,,,,,,,,,,,,,,,,,,,,,,,,,,,,,,,,,,,,,,,,
,,,,,,2,0,2,0,1,X V Q F H G B L J M P D K C T S W R N Z,5f271938dab22f02cdc90584,19,Kobieta,2022-06-11_09h37.46.102,task,2021.1.4,Win32,60.27000964,6299f149e92ead563fba08ef,62a44627a59f0960af9d34b2,,,,,,,,,,,,,,,,,,,,,,,,,,,,,,,,,,,,,,,,,,,,,,,,,,,,,,,,,,,,,,,,,,,,,,,,,,,,,,,,,,,,,,,,,,,,,,,,,,,,,
,,,,,,3,0,3,0,1,X V Q F H G B L J M P D K C T S W R N Z,5f271938dab22f02cdc90584,19,Kobieta,2022-06-11_09h37.46.102,task,2021.1.4,Win32,60.27000964,6299f149e92ead563fba08ef,62a44627a59f0960af9d34b2,,,,,,,,,,,,,,,,,,,,,,,,,,,,,,,,,,,,,,,,,,,,,,,,,,,,,,,,,,,,,,,,,,,,,,,,,,,,,,,,,,,,,,,,,,,,,,,,,,,,,
,,,,,,4,0,4,0,1,X V Q F H G B L J M P D K C T S W R N Z,5f271938dab22f02cdc90584,19,Kobieta,2022-06-11_09h37.46.102,task,2021.1.4,Win32,60.27000964,6299f149e92ead563fba08ef,62a44627a59f0960af9d34b2,,,,,,,,,,,,,,,,,,,,,,,,,,,,,,,,,,,,,,,,,,,,,,,,,,,,,,,,,,,,,,,,,,,,,,,,,,,,,,,,,,,,,,,,,,,,,,,,,,,,,
,,,,,,,,,,,,5f271938dab22f02cdc90584,19,Kobieta,2022-06-11_09h37.46.102,task,2021.1.4,Win32,60.27000964,6299f149e92ead563fba08ef,62a44627a59f0960af9d34b2,mjt,"[""m"",""j"",""t""]","[40.49810000038147,40.595800000190735,40.75999999999999,41.34720000028611]",0,KMTJJ,6,0,6,0,1,,,,,,,,,,,,,,,,,,,,,,,,,,,,,,,,,,,,,,,,,,,,,,,,,,,,,,,,,,,,,,,,,,,,,,,,,,,,,,,,,,,,,,,,,,,
,,,,,,0,0,0,0,1,X V Q F H G B L J M P D K C T S W R N Z,5f271938dab22f02cdc90584,19,Kobieta,2022-06-11_09h37.46.102,task,2021.1.4,Win32,60.27000964,6299f149e92ead563fba08ef,62a44627a59f0960af9d34b2,,,,,,,,,,,,,,,,,,,,,,,,,,,,,,,,,,,,,,,,,,,,,,,,,,,,,,,,,,,,,,,,,,,,,,,,,,,,,,,,,,,,,,,,,,,,,,,,,,,,,
,,,,,,1,0,1,0,1,X V Q F H G B L J M P D K C T S W R N Z,5f271938dab22f02cdc90584,19,Kobieta,2022-06-11_09h37.46.102,task,2021.1.4,Win32,60.27000964,6299f149e92ead563fba08ef,62a44627a59f0960af9d34b2,,,,,,,,,,,,,,,,,,,,,,,,,,,,,,,,,,,,,,,,,,,,,,,,,,,,,,,,,,,,,,,,,,,,,,,,,,,,,,,,,,,,,,,,,,,,,,,,,,,,,
,,,,,,2,0,2,0,1,X V Q F H G B L J M P D K C T S W R N Z,5f271938dab22f02cdc90584,19,Kobieta,2022-06-11_09h37.46.102,task,2021.1.4,Win32,60.27000964,6299f149e92ead563fba08ef,62a44627a59f0960af9d34b2,,,,,,,,,,,,,,,,,,,,,,,,,,,,,,,,,,,,,,,,,,,,,,,,,,,,,,,,,,,,,,,,,,,,,,,,,,,,,,,,,,,,,,,,,,,,,,,,,,,,,
,,,,,,3,0,3,0,1,X V Q F H G B L J M P D K C T S W R N Z,5f271938dab22f02cdc90584,19,Kobieta,2022-06-11_09h37.46.102,task,2021.1.4,Win32,60.27000964,6299f149e92ead563fba08ef,62a44627a59f0960af9d34b2,,,,,,,,,,,,,,,,,,,,,,,,,,,,,,,,,,,,,,,,,,,,,,,,,,,,,,,,,,,,,,,,,,,,,,,,,,,,,,,,,,,,,,,,,,,,,,,,,,,,,
,,,,,,4,0,4,0,1,X V Q F H G B L J M P D K C T S W R N Z,5f271938dab22f02cdc90584,19,Kobieta,2022-06-11_09h37.46.102,task,2021.1.4,Win32,60.27000964,6299f149e92ead563fba08ef,62a44627a59f0960af9d34b2,,,,,,,,,,,,,,,,,,,,,,,,,,,,,,,,,,,,,,,,,,,,,,,,,,,,,,,,,,,,,,,,,,,,,,,,,,,,,,,,,,,,,,,,,,,,,,,,,,,,,
,,,,,,,,,,,,5f271938dab22f02cdc90584,19,Kobieta,2022-06-11_09h37.46.102,task,2021.1.4,Win32,60.27000964,6299f149e92ead563fba08ef,62a44627a59f0960af9d34b2,rpmmw,"[""r"",""p"",""m"",""m"",""w""]","[0.5004000000953681,0.7044000000953758,0.9840000000000089,1.1669000000953815,1.484400000095377,60.496900000095366]",1,RPMMW,7,0,7,0,1,,,,,,,,,,,,,,,,,,,,,,,,,,,,,,,,,,,,,,,,,,,,,,,,,,,,,,,,,,,,,,,,,,,,,,,,,,,,,,,,,,,,,,,,,,,
,,,,,,0,0,0,0,1,X V Q F H G B L J M P D K C T S W R N Z,5f271938dab22f02cdc90584,19,Kobieta,2022-06-11_09h37.46.102,task,2021.1.4,Win32,60.27000964,6299f149e92ead563fba08ef,62a44627a59f0960af9d34b2,,,,,,,,,,,,,,,,,,,,,,,,,,,,,,,,,,,,,,,,,,,,,,,,,,,,,,,,,,,,,,,,,,,,,,,,,,,,,,,,,,,,,,,,,,,,,,,,,,,,,
,,,,,,1,0,1,0,1,X V Q F H G B L J M P D K C T S W R N Z,5f271938dab22f02cdc90584,19,Kobieta,2022-06-11_09h37.46.102,task,2021.1.4,Win32,60.27000964,6299f149e92ead563fba08ef,62a44627a59f0960af9d34b2,,,,,,,,,,,,,,,,,,,,,,,,,,,,,,,,,,,,,,,,,,,,,,,,,,,,,,,,,,,,,,,,,,,,,,,,,,,,,,,,,,,,,,,,,,,,,,,,,,,,,
,,,,,,2,0,2,0,1,X V Q F H G B L J M P D K C T S W R N Z,5f271938dab22f02cdc90584,19,Kobieta,2022-06-11_09h37.46.102,task,2021.1.4,Win32,60.27000964,6299f149e92ead563fba08ef,62a44627a59f0960af9d34b2,,,,,,,,,,,,,,,,,,,,,,,,,,,,,,,,,,,,,,,,,,,,,,,,,,,,,,,,,,,,,,,,,,,,,,,,,,,,,,,,,,,,,,,,,,,,,,,,,,,,,
,,,,,,3,0,3,0,1,X V Q F H G B L J M P D K C T S W R N Z,5f271938dab22f02cdc90584,19,Kobieta,2022-06-11_09h37.46.102,task,2021.1.4,Win32,60.27000964,6299f149e92ead563fba08ef,62a44627a59f0960af9d34b2,,,,,,,,,,,,,,,,,,,,,,,,,,,,,,,,,,,,,,,,,,,,,,,,,,,,,,,,,,,,,,,,,,,,,,,,,,,,,,,,,,,,,,,,,,,,,,,,,,,,,
,,,,,,4,0,4,0,1,X V Q F H G B L J M P D K C T S W R N Z,5f271938dab22f02cdc90584,19,Kobieta,2022-06-11_09h37.46.102,task,2021.1.4,Win32,60.27000964,6299f149e92ead563fba08ef,62a44627a59f0960af9d34b2,,,,,,,,,,,,,,,,,,,,,,,,,,,,,,,,,,,,,,,,,,,,,,,,,,,,,,,,,,,,,,,,,,,,,,,,,,,,,,,,,,,,,,,,,,,,,,,,,,,,,
,,,,,,,,,,,,5f271938dab22f02cdc90584,19,Kobieta,2022-06-11_09h37.46.102,task,2021.1.4,Win32,60.27000964,6299f149e92ead563fba08ef,62a44627a59f0960af9d34b2,jdblq,"[""j"",""d"",""b"",""l"",""q""]","[0.871599999904646,1.0500000000000114,1.4492999997139009,1.7061999998092858,2.2326999998092845,2.6158999996185344]",1,JDBLQ,8,0,8,0,1,,,,,,,,,,,,,,,,,,,,,,,,,,,,,,,,,,,,,,,,,,,,,,,,,,,,,,,,,,,,,,,,,,,,,,,,,,,,,,,,,,,,,,,,,,,
,,,,,,0,0,0,0,1,X V Q F H G B L J M P D K C T S W R N Z,5f271938dab22f02cdc90584,19,Kobieta,2022-06-11_09h37.46.102,task,2021.1.4,Win32,60.27000964,6299f149e92ead563fba08ef,62a44627a59f0960af9d34b2,,,,,,,,,,,,,,,,,,,,,,,,,,,,,,,,,,,,,,,,,,,,,,,,,,,,,,,,,,,,,,,,,,,,,,,,,,,,,,,,,,,,,,,,,,,,,,,,,,,,,
,,,,,,1,0,1,0,1,X V Q F H G B L J M P D K C T S W R N Z,5f271938dab22f02cdc90584,19,Kobieta,2022-06-11_09h37.46.102,task,2021.1.4,Win32,60.27000964,6299f149e92ead563fba08ef,62a44627a59f0960af9d34b2,,,,,,,,,,,,,,,,,,,,,,,,,,,,,,,,,,,,,,,,,,,,,,,,,,,,,,,,,,,,,,,,,,,,,,,,,,,,,,,,,,,,,,,,,,,,,,,,,,,,,
,,,,,,2,0,2,0,1,X V Q F H G B L J M P D K C T S W R N Z,5f271938dab22f02cdc90584,19,Kobieta,2022-06-11_09h37.46.102,task,2021.1.4,Win32,60.27000964,6299f149e92ead563fba08ef,62a44627a59f0960af9d34b2,,,,,,,,,,,,,,,,,,,,,,,,,,,,,,,,,,,,,,,,,,,,,,,,,,,,,,,,,,,,,,,,,,,,,,,,,,,,,,,,,,,,,,,,,,,,,,,,,,,,,
,,,,,,3,0,3,0,1,X V Q F H G B L J M P D K C T S W R N Z,5f271938dab22f02cdc90584,19,Kobieta,2022-06-11_09h37.46.102,task,2021.1.4,Win32,60.27000964,6299f149e92ead563fba08ef,62a44627a59f0960af9d34b2,,,,,,,,,,,,,,,,,,,,,,,,,,,,,,,,,,,,,,,,,,,,,,,,,,,,,,,,,,,,,,,,,,,,,,,,,,,,,,,,,,,,,,,,,,,,,,,,,,,,,
,,,,,,4,0,4,0,1,X V Q F H G B L J M P D K C T S W R N Z,5f271938dab22f02cdc90584,19,Kobieta,2022-06-11_09h37.46.102,task,2021.1.4,Win32,60.27000964,6299f149e92ead563fba08ef,62a44627a59f0960af9d34b2,,,,,,,,,,,,,,,,,,,,,,,,,,,,,,,,,,,,,,,,,,,,,,,,,,,,,,,,,,,,,,,,,,,,,,,,,,,,,,,,,,,,,,,,,,,,,,,,,,,,,
,,,,,,5,0,5,0,1,X V Q F H G B L J M P D K C T S W R N Z,5f271938dab22f02cdc90584,19,Kobieta,2022-06-11_09h37.46.102,task,2021.1.4,Win32,60.27000964,6299f149e92ead563fba08ef,62a44627a59f0960af9d34b2,,,,,,,,,,,,,,,,,,,,,,,,,,,,,,,,,,,,,,,,,,,,,,,,,,,,,,,,,,,,,,,,,,,,,,,,,,,,,,,,,,,,,,,,,,,,,,,,,,,,,
,,,,,,,,,,,,5f271938dab22f02cdc90584,19,Kobieta,2022-06-11_09h37.46.102,task,2021.1.4,Win32,60.27000964,6299f149e92ead563fba08ef,62a44627a59f0960af9d34b2,qsrwc,"[""q"",""s"",""r"",""w"",""c""]","[1.2785000000000082,1.7739000000953808,2.0373000001907258,2.849500000000006,3.149700000286117,3.5060000000000002]",0,QSRWCN,9,0,9,0,1,,,,,,,,,,,,,,,,,,,,,,,,,,,,,,,,,,,,,,,,,,,,,,,,,,,,,,,,,,,,,,,,,,,,,,,,,,,,,,,,,,,,,,,,,,,
,,,,,,0,0,0,0,1,X V Q F H G B L J M P D K C T S W R N Z,5f271938dab22f02cdc90584,19,Kobieta,2022-06-11_09h37.46.102,task,2021.1.4,Win32,60.27000964,6299f149e92ead563fba08ef,62a44627a59f0960af9d34b2,,,,,,,,,,,,,,,,,,,,,,,,,,,,,,,,,,,,,,,,,,,,,,,,,,,,,,,,,,,,,,,,,,,,,,,,,,,,,,,,,,,,,,,,,,,,,,,,,,,,,
,,,,,,1,0,1,0,1,X V Q F H G B L J M P D K C T S W R N Z,5f271938dab22f02cdc90584,19,Kobieta,2022-06-11_09h37.46.102,task,2021.1.4,Win32,60.27000964,6299f149e92ead563fba08ef,62a44627a59f0960af9d34b2,,,,,,,,,,,,,,,,,,,,,,,,,,,,,,,,,,,,,,,,,,,,,,,,,,,,,,,,,,,,,,,,,,,,,,,,,,,,,,,,,,,,,,,,,,,,,,,,,,,,,
,,,,,,2,0,2,0,1,X V Q F H G B L J M P D K C T S W R N Z,5f271938dab22f02cdc90584,19,Kobieta,2022-06-11_09h37.46.102,task,2021.1.4,Win32,60.27000964,6299f149e92ead563fba08ef,62a44627a59f0960af9d34b2,,,,,,,,,,,,,,,,,,,,,,,,,,,,,,,,,,,,,,,,,,,,,,,,,,,,,,,,,,,,,,,,,,,,,,,,,,,,,,,,,,,,,,,,,,,,,,,,,,,,,
,,,,,,3,0,3,0,1,X V Q F H G B L J M P D K C T S W R N Z,5f271938dab22f02cdc90584,19,Kobieta,2022-06-11_09h37.46.102,task,2021.1.4,Win32,60.27000964,6299f149e92ead563fba08ef,62a44627a59f0960af9d34b2,,,,,,,,,,,,,,,,,,,,,,,,,,,,,,,,,,,,,,,,,,,,,,,,,,,,,,,,,,,,,,,,,,,,,,,,,,,,,,,,,,,,,,,,,,,,,,,,,,,,,
,,,,,,4,0,4,0,1,X V Q F H G B L J M P D K C T S W R N Z,5f271938dab22f02cdc90584,19,Kobieta,2022-06-11_09h37.46.102,task,2021.1.4,Win32,60.27000964,6299f149e92ead563fba08ef,62a44627a59f0960af9d34b2,,,,,,,,,,,,,,,,,,,,,,,,,,,,,,,,,,,,,,,,,,,,,,,,,,,,,,,,,,,,,,,,,,,,,,,,,,,,,,,,,,,,,,,,,,,,,,,,,,,,,
,,,,,,5,0,5,0,1,X V Q F H G B L J M P D K C T S W R N Z,5f271938dab22f02cdc90584,19,Kobieta,2022-06-11_09h37.46.102,task,2021.1.4,Win32,60.27000964,6299f149e92ead563fba08ef,62a44627a59f0960af9d34b2,,,,,,,,,,,,,,,,,,,,,,,,,,,,,,,,,,,,,,,,,,,,,,,,,,,,,,,,,,,,,,,,,,,,,,,,,,,,,,,,,,,,,,,,,,,,,,,,,,,,,
,,,,,,,,,,,,5f271938dab22f02cdc90584,19,Kobieta,2022-06-11_09h37.46.102,task,2021.1.4,Win32,60.27000964,6299f149e92ead563fba08ef,62a44627a59f0960af9d34b2,vlnpkd,"[""v"",""l"",""n"",""p"",""k"",""d""]","[0.8874999999999886,1.1658000001907283,1.2994999999999948,1.4658000001907112,1.8759000000953563,1.982699999809256,2.3325999999046303]",0,VNLPKD,10,0,10,0,1,,,,,,,,,,,,,,,,,,,,,,,,,,,,,,,,,,,,,,,,,,,,,,,,,,,,,,,,,,,,,,,,,,,,,,,,,,,,,,,,,,,,,,,,,,,
,,,,,,0,0,0,0,1,X V Q F H G B L J M P D K C T S W R N Z,5f271938dab22f02cdc90584,19,Kobieta,2022-06-11_09h37.46.102,task,2021.1.4,Win32,60.27000964,6299f149e92ead563fba08ef,62a44627a59f0960af9d34b2,,,,,,,,,,,,,,,,,,,,,,,,,,,,,,,,,,,,,,,,,,,,,,,,,,,,,,,,,,,,,,,,,,,,,,,,,,,,,,,,,,,,,,,,,,,,,,,,,,,,,
,,,,,,1,0,1,0,1,X V Q F H G B L J M P D K C T S W R N Z,5f271938dab22f02cdc90584,19,Kobieta,2022-06-11_09h37.46.102,task,2021.1.4,Win32,60.27000964,6299f149e92ead563fba08ef,62a44627a59f0960af9d34b2,,,,,,,,,,,,,,,,,,,,,,,,,,,,,,,,,,,,,,,,,,,,,,,,,,,,,,,,,,,,,,,,,,,,,,,,,,,,,,,,,,,,,,,,,,,,,,,,,,,,,
,,,,,,2,0,2,0,1,X V Q F H G B L J M P D K C T S W R N Z,5f271938dab22f02cdc90584,19,Kobieta,2022-06-11_09h37.46.102,task,2021.1.4,Win32,60.27000964,6299f149e92ead563fba08ef,62a44627a59f0960af9d34b2,,,,,,,,,,,,,,,,,,,,,,,,,,,,,,,,,,,,,,,,,,,,,,,,,,,,,,,,,,,,,,,,,,,,,,,,,,,,,,,,,,,,,,,,,,,,,,,,,,,,,
,,,,,,3,0,3,0,1,X V Q F H G B L J M P D K C T S W R N Z,5f271938dab22f02cdc90584,19,Kobieta,2022-06-11_09h37.46.102,task,2021.1.4,Win32,60.27000964,6299f149e92ead563fba08ef,62a44627a59f0960af9d34b2,,,,,,,,,,,,,,,,,,,,,,,,,,,,,,,,,,,,,,,,,,,,,,,,,,,,,,,,,,,,,,,,,,,,,,,,,,,,,,,,,,,,,,,,,,,,,,,,,,,,,
,,,,,,4,0,4,0,1,X V Q F H G B L J M P D K C T S W R N Z,5f271938dab22f02cdc90584,19,Kobieta,2022-06-11_09h37.46.102,task,2021.1.4,Win32,60.27000964,6299f149e92ead563fba08ef,62a44627a59f0960af9d34b2,,,,,,,,,,,,,,,,,,,,,,,,,,,,,,,,,,,,,,,,,,,,,,,,,,,,,,,,,,,,,,,,,,,,,,,,,,,,,,,,,,,,,,,,,,,,,,,,,,,,,
,,,,,,5,0,5,0,1,X V Q F H G B L J M P D K C T S W R N Z,5f271938dab22f02cdc90584,19,Kobieta,2022-06-11_09h37.46.102,task,2021.1.4,Win32,60.27000964,6299f149e92ead563fba08ef,62a44627a59f0960af9d34b2,,,,,,,,,,,,,,,,,,,,,,,,,,,,,,,,,,,,,,,,,,,,,,,,,,,,,,,,,,,,,,,,,,,,,,,,,,,,,,,,,,,,,,,,,,,,,,,,,,,,,
,,,,,,,,,,,,5f271938dab22f02cdc90584,19,Kobieta,2022-06-11_09h37.46.102,task,2021.1.4,Win32,60.27000964,6299f149e92ead563fba08ef,62a44627a59f0960af9d34b2,kjrgxs,"[""k"",""j"",""r"",""g"",""x"",""s""]","[1.8340000000000032,2.1004000000953624,2.6356999998092476,2.947099999904623,3.356300000190714,4.167699999809258,5.100099999904614]",0,PJRGXS,11,0,11,0,1,,,,,,,,,,,,,,,,,,,,,,,,,,,,,,,,,,,,,,,,,,,,,,,,,,,,,,,,,,,,,,,,,,,,,,,,,,,,,,,,,,,,,,,,,,,
,,,,,,,,,,,,5f271938dab22f02cdc90584,19,Kobieta,2022-06-11_09h37.46.102,task,2021.1.4,Win32,60.27000964,6299f149e92ead563fba08ef,62a44627a59f0960af9d34b2,,,,,,,,,,,space,103.1403,8,"[""8""]",1,[7.50809999990463],[7.50809999990463],0,0,0,8,1,Practice,9,(3x3) - 1,8,,,,,,,,,,,,,,,,,,,,,,,,,,,,,,,,,,,,,,,,,,,,,,,,,,,,,,,,,,,,,,,,,,,,,,,,,,,
,,,,,,,,,,,,5f271938dab22f02cdc90584,19,Kobieta,2022-06-11_09h37.46.102,task,2021.1.4,Win32,60.27000964,6299f149e92ead563fba08ef,62a44627a59f0960af9d34b2,,,,,,,,,,,,,3,"[""3""]",1,[3.0369000000953292],"[7.50809999990463,3.0369000000953292]",0,1,1,3,1,Practice,4,(8/4) + 1,3,,,,,,,,,,,,,,,,,,,,,,,,,,,,,,,,,,,,,,,,,,,,,,,,,,,,,,,,,,,,,,,,,,,,,,,,,,,
,,,,,,,,,,,,5f271938dab22f02cdc90584,19,Kobieta,2022-06-11_09h37.46.102,task,2021.1.4,Win32,60.27000964,6299f149e92ead563fba08ef,62a44627a59f0960af9d34b2,,,,,,,,,,,,,9,"[""9""]",1,[3.033800000190695],"[7.50809999990463,3.0369000000953292,3.033800000190695]",0,2,2,9,1,Practice,10,(20/2) - 1,9,,,,,,,,,,,,,,,,,,,,,,,,,,,,,,,,,,,,,,,,,,,,,,,,,,,,,,,,,,,,,,,,,,,,,,,,,,,
,,,,,,,,,,,,5f271938dab22f02cdc90584,19,Kobieta,2022-06-11_09h37.46.102,task,2021.1.4,Win32,60.27000964,6299f149e92ead563fba08ef,62a44627a59f0960af9d34b2,,,,,,,,,,,,,7,"[""7""]",1,[5.989699999809261],"[7.50809999990463,3.0369000000953292,3.033800000190695,5.989699999809261]",0,3,3,7,1,Practice,8,(5x5) - 18,7,,,,,,,,,,,,,,,,,,,,,,,,,,,,,,,,,,,,,,,,,,,,,,,,,,,,,,,,,,,,,,,,,,,,,,,,,,,
,,,,,,,,,,,,5f271938dab22f02cdc90584,19,Kobieta,2022-06-11_09h37.46.102,task,2021.1.4,Win32,60.27000964,6299f149e92ead563fba08ef,62a44627a59f0960af9d34b2,,,,,,,,,,,,,6,"[""6""]",1,[2.649199999809241],"[7.50809999990463,3.0369000000953292,3.033800000190695,5.989699999809261,2.649199999809241]",0,4,4,6,1,Practice,7,(25/5) + 1,6,,,,,,,,,,,,,,,,,,,,,,,,,,,,,,,,,,,,,,,,,,,,,,,,,,,,,,,,,,,,,,,,,,,,,,,,,,,
,,,,,,,,,,,,5f271938dab22f02cdc90584,19,Kobieta,2022-06-11_09h37.46.102,task,2021.1.4,Win32,60.27000964,6299f149e92ead563fba08ef,62a44627a59f0960af9d34b2,,,,,,,,,,,,,5,"[""5""]",1,[3.6349000000953424],"[7.50809999990463,3.0369000000953292,3.033800000190695,5.989699999809261,2.649199999809241,3.6349000000953424]",0,5,5,5,1,Practice,6,(4/2) + 3,5,,,,,,,,,,,,,,,,,,,,,,,,,,,,,,,,,,,,,,,,,,,,,,,,,,,,,,,,,,,,,,,,,,,,,,,,,,,
,,,,,,,,,,,,5f271938dab22f02cdc90584,19,Kobieta,2022-06-11_09h37.46.102,task,2021.1.4,Win32,60.27000964,6299f149e92ead563fba08ef,62a44627a59f0960af9d34b2,,,,,,,,,,,,,2,"[""2""]",1,[2.3133000001907362],"[7.50809999990463,3.0369000000953292,3.033800000190695,5.989699999809261,2.649199999809241,3.6349000000953424,2.3133000001907362]",0,6,6,2,1,Practice,3,(4x4) - 14,2,,,,,,,,,,,,,,,,,,,,,,,,,,,,,,,,,,,,,,,,,,,,,,,,,,,,,,,,,,,,,,,,,,,,,,,,,,,
,,,,,,,,,,,,5f271938dab22f02cdc90584,19,Kobieta,2022-06-11_09h37.46.102,task,2021.1.4,Win32,60.27000964,6299f149e92ead563fba08ef,62a44627a59f0960af9d34b2,,,,,,,,,,,,,4,"[""4""]",1,[2.3155999999046344],"[7.50809999990463,3.0369000000953292,3.033800000190695,5.989699999809261,2.649199999809241,3.6349000000953424,2.3133000001907362,2.3155999999046344]",0,7,7,4,1,Practice,5,(2x6) - 8,4,,,,,,,,,,,,,,,,,,,,,,,,,,,,,,,,,,,,,,,,,,,,,,,,,,,,,,,,,,,,,,,,,,,,,,,,,,,
,,,,,,,,,,,,5f271938dab22f02cdc90584,19,Kobieta,2022-06-11_09h37.46.102,task,2021.1.4,Win32,60.27000964,6299f149e92ead563fba08ef,62a44627a59f0960af9d34b2,,,,,,,,,,,,,0,"[""0""]",1,[2.8414999999999964],"[7.50809999990463,3.0369000000953292,3.033800000190695,5.989699999809261,2.649199999809241,3.6349000000953424,2.3133000001907362,2.3155999999046344,2.8414999999999964]",0,8,8,0,1,Practice,1,(3x3) -  9,0,,,,,,,,,,,,,,,,,,,,,,,,,,,,,,,,,,,,,,,,,,,,,,,,,,,,,,,,,,,,,,,,,,,,,,,,,,,
,,,,,,,,,,,,5f271938dab22f02cdc90584,19,Kobieta,2022-06-11_09h37.46.102,task,2021.1.4,Win32,60.27000964,6299f149e92ead563fba08ef,62a44627a59f0960af9d34b2,,,,,,,,,,,,,1,"[""1""]",1,[1.9169999999999732],"[7.50809999990463,3.0369000000953292,3.033800000190695,5.989699999809261,2.649199999809241,3.6349000000953424,2.3133000001907362,2.3155999999046344,2.8414999999999964,1.9169999999999732]",0,9,9,1,1,Practice,2,(4x4) - 15,1,,,,,,,,,,,,,,,,,,,,,,,,,,,,,,,,,,,,,,,,,,,,,,,,,,,,,,,,,,,,,,,,,,,,,,,,,,,
,,,,,,,,,,,,5f271938dab22f02cdc90584,19,Kobieta,2022-06-11_09h37.46.102,task,2021.1.4,Win32,60.27000964,6299f149e92ead563fba08ef,62a44627a59f0960af9d34b2,,,,,,,,,,,,,,,,,,,,,,,,,,,1,35.24,2.349333333,42.98056368,1.692740651,6.716604213,space,1.5337,0,0,0,0,1,,,,,,,,,,,,,,,,,,,,,,,,,,,,,,,,,,,,,,,,,,,,,,,,,,,,,,,,,,,,,,
,,,,,,,,,,,,5f271938dab22f02cdc90584,19,Kobieta,2022-06-11_09h37.46.102,task,2021.1.4,Win32,60.27000964,6299f149e92ead563fba08ef,62a44627a59f0960af9d34b2,,,,,,,,,,,,,7,,,,,,,,,,Practice,8,(5x5) - 18,7,,,,,,,,,,,,,,space,9.0986,"[""7""]",1,[4.962699999809274],1,0,0,0,7,1,,,,,,,,,,,,,,,,,,,,,,,,,,,,,,,,,,,,,,,,,,,,,,,,,,,
,,,,,,,,,,,X V Q F H G B L J M P D K C T S W R N Z,5f271938dab22f02cdc90584,19,Kobieta,2022-06-11_09h37.46.102,task,2021.1.4,Win32,60.27000964,6299f149e92ead563fba08ef,62a44627a59f0960af9d34b2,,,,,,,,,,,,,,,,,,,,,,,,,,,,,,,,,,,,,,,,,,,,,,,,,,,0,0,0,0,1,,,,,,,,,,,,,,,,,,,,,,,,,,,,,,,,,,,,,,,,,,,,,,
,,,,,,,,,,,,5f271938dab22f02cdc90584,19,Kobieta,2022-06-11_09h37.46.102,task,2021.1.4,Win32,60.27000964,6299f149e92ead563fba08ef,62a44627a59f0960af9d34b2,,,,,,,,,,,,,3,,,,,,,,,,Practice,4,(8/4) + 1,3,,,,,,,,,,,,,,,,"[""3""]",1,[6.049200000286135],1,0,0,0,3,1,,,,,,,,,,,,,,,,,,,,,,,,,,,,,,,,,,,,,,,,,,,,,,,,,,,
,,,,,,,,,,,X V Q F H G B L J M P D K C T S W R N Z,5f271938dab22f02cdc90584,19,Kobieta,2022-06-11_09h37.46.102,task,2021.1.4,Win32,60.27000964,6299f149e92ead563fba08ef,62a44627a59f0960af9d34b2,,,,,,,,,,,,,,,,,,,,,,,,,,,,,,,,,,,,,,,,,,,,,,,,,,,1,0,1,0,1,,,,,,,,,,,,,,,,,,,,,,,,,,,,,,,,,,,,,,,,,,,,,,
,,,,,,,,,,,,5f271938dab22f02cdc90584,19,Kobieta,2022-06-11_09h37.46.102,task,2021.1.4,Win32,60.27000964,6299f149e92ead563fba08ef,62a44627a59f0960af9d34b2,,,,,,,,,,,,,,,,,,,,,,,,,,,,,,,,,,,,,,,,,,,,,,,,,,,,,,,,zr,"[""z"",""r""]",0,"[1.9541000003814588,2.194500000000005,3.1791000003814815]",1,0,0,0,0,1,,,,,,,,,,,,,,,,,,,,,,,,,,,,,,,,,,,,
,,,,,,,,,,,,5f271938dab22f02cdc90584,19,Kobieta,2022-06-11_09h37.46.102,task,2021.1.4,Win32,60.27000964,6299f149e92ead563fba08ef,62a44627a59f0960af9d34b2,,,,,,,,,,,,,7,,,,,,,,,,Practice,8,(5x5) - 18,7,,,,,,,,,,,,,,,,"[""7""]",1,[2.3744000000953633],1,0,0,0,7,1,,,,,,,,,,,,,,,,,,,,,,,,,,,,,,,,,,,,,,,,,,,,,,,,,,,
,,,,,,,,,,,X V Q F H G B L J M P D K C T S W R N Z,5f271938dab22f02cdc90584,19,Kobieta,2022-06-11_09h37.46.102,task,2021.1.4,Win32,60.27000964,6299f149e92ead563fba08ef,62a44627a59f0960af9d34b2,,,,,,,,,,,,,,,,,,,,,,,,,,,,,,,,,,,,,,,,,,,,,,,,,,,0,0,0,0,1,,,,,,,,,,,,,,,,,,,,,,,,,,,,,,,,,,,,,,,,,,,,,,
,,,,,,,,,,,,5f271938dab22f02cdc90584,19,Kobieta,2022-06-11_09h37.46.102,task,2021.1.4,Win32,60.27000964,6299f149e92ead563fba08ef,62a44627a59f0960af9d34b2,,,,,,,,,,,,,0,,,,,,,,,,Practice,1,(3x3) -  9,0,,,,,,,,,,,,,,,,"[""0""]",1,[1.5705999999046298],1,0,0,0,0,1,,,,,,,,,,,,,,,,,,,,,,,,,,,,,,,,,,,,,,,,,,,,,,,,,,,
,,,,,,,,,,,X V Q F H G B L J M P D K C T S W R N Z,5f271938dab22f02cdc90584,19,Kobieta,2022-06-11_09h37.46.102,task,2021.1.4,Win32,60.27000964,6299f149e92ead563fba08ef,62a44627a59f0960af9d34b2,,,,,,,,,,,,,,,,,,,,,,,,,,,,,,,,,,,,,,,,,,,,,,,,,,,1,0,1,0,1,,,,,,,,,,,,,,,,,,,,,,,,,,,,,,,,,,,,,,,,,,,,,,
,,,,,,,,,,,,5f271938dab22f02cdc90584,19,Kobieta,2022-06-11_09h37.46.102,task,2021.1.4,Win32,60.27000964,6299f149e92ead563fba08ef,62a44627a59f0960af9d34b2,,,,,,,,,,,,,,,,,,,,,,,,,,,,,,,,,,,,,,,,,,,,,,,,,,,,,,,,ln,"[""l"",""n""]",0,"[1.5155000000000314,1.6819000000953679,2.383900000095366]",1,1,0,1,0,1,,,,,,,,,,,,,,,,,,,,,,,,,,,,,,,,,,,,
,,,,,,,,,,,,5f271938dab22f02cdc90584,19,Kobieta,2022-06-11_09h37.46.102,task,2021.1.4,Win32,60.27000964,6299f149e92ead563fba08ef,62a44627a59f0960af9d34b2,,,,,,,,,,,,,2,,,,,,,,,,Practice,3,(4x4) - 14,2,,,,,,,,,,,,,,,,"[""2""]",1,[1.8631999998092397],1,0,0,0,2,1,,,,,,,,,,,,,,,,,,,,,,,,,,,,,,,,,,,,,,,,,,,,,,,,,,,
,,,,,,,,,,,X V Q F H G B L J M P D K C T S W R N Z,5f271938dab22f02cdc90584,19,Kobieta,2022-06-11_09h37.46.102,task,2021.1.4,Win32,60.27000964,6299f149e92ead563fba08ef,62a44627a59f0960af9d34b2,,,,,,,,,,,,,,,,,,,,,,,,,,,,,,,,,,,,,,,,,,,,,,,,,,,0,0,0,0,1,,,,,,,,,,,,,,,,,,,,,,,,,,,,,,,,,,,,,,,,,,,,,,
,,,,,,,,,,,,5f271938dab22f02cdc90584,19,Kobieta,2022-06-11_09h37.46.102,task,2021.1.4,Win32,60.27000964,6299f149e92ead563fba08ef,62a44627a59f0960af9d34b2,,,,,,,,,,,,,3,,,,,,,,,,Practice,4,(8/4) + 1,3,,,,,,,,,,,,,,,,"[""3""]",1,[2.530999999999949],1,0,0,0,3,1,,,,,,,,,,,,,,,,,,,,,,,,,,,,,,,,,,,,,,,,,,,,,,,,,,,
,,,,,,,,,,,X V Q F H G B L J M P D K C T S W R N Z,5f271938dab22f02cdc90584,19,Kobieta,2022-06-11_09h37.46.102,task,2021.1.4,Win32,60.27000964,6299f149e92ead563fba08ef,62a44627a59f0960af9d34b2,,,,,,,,,,,,,,,,,,,,,,,,,,,,,,,,,,,,,,,,,,,,,,,,,,,1,0,1,0,1,,,,,,,,,,,,,,,,,,,,,,,,,,,,,,,,,,,,,,,,,,,,,,
,,,,,,,,,,,,5f271938dab22f02cdc90584,19,Kobieta,2022-06-11_09h37.46.102,task,2021.1.4,Win32,60.27000964,6299f149e92ead563fba08ef,62a44627a59f0960af9d34b2,,,,,,,,,,,,,,,,,,,,,,,,,,,,,,,,,,,,,,,,,,,,,,,,,,,,,,,,lh,"[""l"",""h""]",0,"[1.5539999999999736,1.7012999997138536,1.8827999997138818]",0,2,0,2,0,1,,,,,,,,,,,,,,,,,,,,,,,,,,,,,,,,,,,,
,,,,,,,,,,,,5f271938dab22f02cdc90584,19,Kobieta,2022-06-11_09h37.46.102,task,2021.1.4,Win32,60.27000964,6299f149e92ead563fba08ef,62a44627a59f0960af9d34b2,,,,,,,,,,,,,7,,,,,,,,,,Practice,8,(5x5) - 18,7,,,,,,,,,,,,,,,,"[""7""]",1,[2.845099999904619],1,0,0,0,7,1,,,,,,,,,,,,,,,,,,,,,,,,,,,,,,,,,,,,,,,,,,,,,,,,,,,
,,,,,,,,,,,X V Q F H G B L J M P D K C T S W R N Z,5f271938dab22f02cdc90584,19,Kobieta,2022-06-11_09h37.46.102,task,2021.1.4,Win32,60.27000964,6299f149e92ead563fba08ef,62a44627a59f0960af9d34b2,,,,,,,,,,,,,,,,,,,,,,,,,,,,,,,,,,,,,,,,,,,,,,,,,,,0,0,0,0,1,,,,,,,,,,,,,,,,,,,,,,,,,,,,,,,,,,,,,,,,,,,,,,
,,,,,,,,,,,,5f271938dab22f02cdc90584,19,Kobieta,2022-06-11_09h37.46.102,task,2021.1.4,Win32,60.27000964,6299f149e92ead563fba08ef,62a44627a59f0960af9d34b2,,,,,,,,,,,,,6,,,,,,,,,,Practice,7,(25/5) + 1,6,,,,,,,,,,,,,,,,"[""6""]",1,[1.850999999999999],1,0,0,0,6,1,,,,,,,,,,,,,,,,,,,,,,,,,,,,,,,,,,,,,,,,,,,,,,,,,,,
,,,,,,,,,,,X V Q F H G B L J M P D K C T S W R N Z,5f271938dab22f02cdc90584,19,Kobieta,2022-06-11_09h37.46.102,task,2021.1.4,Win32,60.27000964,6299f149e92ead563fba08ef,62a44627a59f0960af9d34b2,,,,,,,,,,,,,,,,,,,,,,,,,,,,,,,,,,,,,,,,,,,,,,,,,,,1,0,1,0,1,,,,,,,,,,,,,,,,,,,,,,,,,,,,,,,,,,,,,,,,,,,,,,
,,,,,,,,,,,,5f271938dab22f02cdc90584,19,Kobieta,2022-06-11_09h37.46.102,task,2021.1.4,Win32,60.27000964,6299f149e92ead563fba08ef,62a44627a59f0960af9d34b2,,,,,,,,,,,,,,,,,,,,,,,,,,,,,,,,,,,,,,,,,,,,,,,,,,,,,,,,pw,"[""p"",""w""]",0,"[1.3838999996185066,1.784699999809277,2.257399999618542]",1,3,0,3,0,1,,,,,,,,,,,,,,,,,,,,,,,,,,,,,,,,,,,,
,,,,,,,,,,,,5f271938dab22f02cdc90584,19,Kobieta,2022-06-11_09h37.46.102,task,2021.1.4,Win32,60.27000964,6299f149e92ead563fba08ef,62a44627a59f0960af9d34b2,,,,,,,,,,,,,0,,,,,,,,,,Practice,1,(3x3) -  9,0,,,,,,,,,,,,,,,,"[""0""]",1,[1.3840999999046062],1,0,0,0,0,1,,,,,,,,,,,,,,,,,,,,,,,,,,,,,,,,,,,,,,,,,,,,,,,,,,,
,,,,,,,,,,,X V Q F H G B L J M P D K C T S W R N Z,5f271938dab22f02cdc90584,19,Kobieta,2022-06-11_09h37.46.102,task,2021.1.4,Win32,60.27000964,6299f149e92ead563fba08ef,62a44627a59f0960af9d34b2,,,,,,,,,,,,,,,,,,,,,,,,,,,,,,,,,,,,,,,,,,,,,,,,,,,0,0,0,0,1,,,,,,,,,,,,,,,,,,,,,,,,,,,,,,,,,,,,,,,,,,,,,,
,,,,,,,,,,,,5f271938dab22f02cdc90584,19,Kobieta,2022-06-11_09h37.46.102,task,2021.1.4,Win32,60.27000964,6299f149e92ead563fba08ef,62a44627a59f0960af9d34b2,,,,,,,,,,,,,1,,,,,,,,,,Practice,2,(4x4) - 15,1,,,,,,,,,,,,,,,,"[""1""]",1,[2.0363000001907494],1,0,0,0,1,1,,,,,,,,,,,,,,,,,,,,,,,,,,,,,,,,,,,,,,,,,,,,,,,,,,,
,,,,,,,,,,,X V Q F H G B L J M P D K C T S W R N Z,5f271938dab22f02cdc90584,19,Kobieta,2022-06-11_09h37.46.102,task,2021.1.4,Win32,60.27000964,6299f149e92ead563fba08ef,62a44627a59f0960af9d34b2,,,,,,,,,,,,,,,,,,,,,,,,,,,,,,,,,,,,,,,,,,,,,,,,,,,1,0,1,0,1,,,,,,,,,,,,,,,,,,,,,,,,,,,,,,,,,,,,,,,,,,,,,,
,,,,,,,,,,,,5f271938dab22f02cdc90584,19,Kobieta,2022-06-11_09h37.46.102,task,2021.1.4,Win32,60.27000964,6299f149e92ead563fba08ef,62a44627a59f0960af9d34b2,,,,,,,,,,,,,,,,,,,,,,,,,,,,,,,,,,,,,,,,,,,,,,,,,,,,,,,,kz,"[""k"",""z""]",0,"[1.3211999998092665,1.6511999998092506,2.1845999999046057]",1,4,0,4,0,1,,,,,,,,,,,,,,,,,,,,,,,,,,,,,,,,,,,,
,,,,,,,,,,,,5f271938dab22f02cdc90584,19,Kobieta,2022-06-11_09h37.46.102,task,2021.1.4,Win32,60.27000964,6299f149e92ead563fba08ef,62a44627a59f0960af9d34b2,,,,,,,,,,,,,0,,,,,,,,,,Practice,1,(3x3) -  9,0,,,,,,,,,,,,,,,,"[""0""]",1,[1.766099999904668],1,0,0,0,0,1,,,,,,,,,,,,,,,,,,,,,,,,,,,,,,,,,,,,,,,,,,,,,,,,,,,
,,,,,,,,,,,X V Q F H G B L J M P D K C T S W R N Z,5f271938dab22f02cdc90584,19,Kobieta,2022-06-11_09h37.46.102,task,2021.1.4,Win32,60.27000964,6299f149e92ead563fba08ef,62a44627a59f0960af9d34b2,,,,,,,,,,,,,,,,,,,,,,,,,,,,,,,,,,,,,,,,,,,,,,,,,,,0,0,0,0,1,,,,,,,,,,,,,,,,,,,,,,,,,,,,,,,,,,,,,,,,,,,,,,
,,,,,,,,,,,,5f271938dab22f02cdc90584,19,Kobieta,2022-06-11_09h37.46.102,task,2021.1.4,Win32,60.27000964,6299f149e92ead563fba08ef,62a44627a59f0960af9d34b2,,,,,,,,,,,,,8,,,,,,,,,,Practice,9,(3x3) - 1,8,,,,,,,,,,,,,,,,"[""8""]",1,[1.9225999999046053],1,0,0,0,8,1,,,,,,,,,,,,,,,,,,,,,,,,,,,,,,,,,,,,,,,,,,,,,,,,,,,
,,,,,,,,,,,X V Q F H G B L J M P D K C T S W R N Z,5f271938dab22f02cdc90584,19,Kobieta,2022-06-11_09h37.46.102,task,2021.1.4,Win32,60.27000964,6299f149e92ead563fba08ef,62a44627a59f0960af9d34b2,,,,,,,,,,,,,,,,,,,,,,,,,,,,,,,,,,,,,,,,,,,,,,,,,,,1,0,1,0,1,,,,,,,,,,,,,,,,,,,,,,,,,,,,,,,,,,,,,,,,,,,,,,
,,,,,,,,,,,,5f271938dab22f02cdc90584,19,Kobieta,2022-06-11_09h37.46.102,task,2021.1.4,Win32,60.27000964,6299f149e92ead563fba08ef,62a44627a59f0960af9d34b2,,,,,,,,,,,,,,,,,,,,,,,,,,,,,,,,,,,,,,,,,,,,,,,,,,,,,,,,mh,"[""m"",""h""]",0,"[1.2317000002861391,1.3995999999046376,1.9143000001907353]",1,5,0,5,0,1,,,,,,,,,,,,,,,,,,,,,,,,,,,,,,,,,,,,
,,,,,,,,,,,,5f271938dab22f02cdc90584,19,Kobieta,2022-06-11_09h37.46.102,task,2021.1.4,Win32,60.27000964,6299f149e92ead563fba08ef,62a44627a59f0960af9d34b2,,,,,,,,,,,,,3,,,,,,,,,,Task,35,(1x2) + 1,3,,,,,,,,,,,,,,,,,,,1,,,,,,,,,,,,,,,,,,,,,space,13.7496,"[""3""]",1,[2.7459000000952756],0,0,0,34,1,,,,,,,,,,,,,,,,,,,,,,,,,,
,,,,,,,,,,,X V Q F H G B L J M P D K C T S W R N Z,5f271938dab22f02cdc90584,19,Kobieta,2022-06-11_09h37.46.102,task,2021.1.4,Win32,60.27000964,6299f149e92ead563fba08ef,62a44627a59f0960af9d34b2,,,,,,,,,,,,,,,,,,,,,,,,,,,,,,,,,,,,,,,,,,,,,,,,,,,,,,,,,,,,,,,,,,,,,,,,,,,,0,0,0,0,1,,,,,,,,,,,,,,,,,,,,,
,,,,,,,,,,,,5f271938dab22f02cdc90584,19,Kobieta,2022-06-11_09h37.46.102,task,2021.1.4,Win32,60.27000964,6299f149e92ead563fba08ef,62a44627a59f0960af9d34b2,,,,,,,,,,,,,6,,,,,,,,,,Task,13,(3x4) - 6,6,,,,,,,,,,,,,,,,,,,1,,,,,,,,,,,,,,,,,,,,,,,"[""6""]",1,[2.682699999809188],0,0,0,12,1,,,,,,,,,,,,,,,,,,,,,,,,,,
,,,,,,,,,,,X V Q F H G B L J M P D K C T S W R N Z,5f271938dab22f02cdc90584,19,Kobieta,2022-06-11_09h37.46.102,task,2021.1.4,Win32,60.27000964,6299f149e92ead563fba08ef,62a44627a59f0960af9d34b2,,,,,,,,,,,,,,,,,,,,,,,,,,,,,,,,,,,,,,,,,,,,,,,,,,,,,,,,,,,,,,,,,,,,,,,,,,,,1,0,1,0,1,,,,,,,,,,,,,,,,,,,,,
,,,,,,,,,,,,5f271938dab22f02cdc90584,19,Kobieta,2022-06-11_09h37.46.102,task,2021.1.4,Win32,60.27000964,6299f149e92ead563fba08ef,62a44627a59f0960af9d34b2,,,,,,,,,,,,,,,,,,,,,,,,,,,,,,,,,,,,,,,,,,,,,,,,,,,,,,,,,,,,,,,,,,,,,,,,,,,,,,,,,zg,"[""z"",""g""]",0,"[1.3349000000954447,1.5949000000954356,1.7844000000953884]",1,ZG,0,0,0,0,1,,,,,,,,,,
,,,,,,,,,,,,5f271938dab22f02cdc90584,19,Kobieta,2022-06-11_09h37.46.102,task,2021.1.4,Win32,60.27000964,6299f149e92ead563fba08ef,62a44627a59f0960af9d34b2,,,,,,,,,,,,,0,,,,,,,,,,Task,8,(1x5) - 5,0,,,,,,,,,,,,,,,,,,,1,,,,,,,,,,,,,,,,,,,,,,,"[""0""]",1,[1.8063999996185203],0,0,0,7,1,,,,,,,,,,,,,,,,,,,,,,,,,,
,,,,,,,,,,,X V Q F H G B L J M P D K C T S W R N Z,5f271938dab22f02cdc90584,19,Kobieta,2022-06-11_09h37.46.102,task,2021.1.4,Win32,60.27000964,6299f149e92ead563fba08ef,62a44627a59f0960af9d34b2,,,,,,,,,,,,,,,,,,,,,,,,,,,,,,,,,,,,,,,,,,,,,,,,,,,,,,,,,,,,,,,,,,,,,,,,,,,,0,0,0,0,1,,,,,,,,,,,,,,,,,,,,,
,,,,,,,,,,,,5f271938dab22f02cdc90584,19,Kobieta,2022-06-11_09h37.46.102,task,2021.1.4,Win32,60.27000964,6299f149e92ead563fba08ef,62a44627a59f0960af9d34b2,,,,,,,,,,,,,8,,,,,,,,,,Task,15,(3x7) - 13,8,,,,,,,,,,,,,,,,,,,1,,,,,,,,,,,,,,,,,,,,,,,"[""8""]",1,[3.0003999996184803],0,0,0,14,1,,,,,,,,,,,,,,,,,,,,,,,,,,
,,,,,,,,,,,X V Q F H G B L J M P D K C T S W R N Z,5f271938dab22f02cdc90584,19,Kobieta,2022-06-11_09h37.46.102,task,2021.1.4,Win32,60.27000964,6299f149e92ead563fba08ef,62a44627a59f0960af9d34b2,,,,,,,,,,,,,,,,,,,,,,,,,,,,,,,,,,,,,,,,,,,,,,,,,,,,,,,,,,,,,,,,,,,,,,,,,,,,1,0,1,0,1,,,,,,,,,,,,,,,,,,,,,
,,,,,,,,,,,,5f271938dab22f02cdc90584,19,Kobieta,2022-06-11_09h37.46.102,task,2021.1.4,Win32,60.27000964,6299f149e92ead563fba08ef,62a44627a59f0960af9d34b2,,,,,,,,,,,,,5,,,,,,,,,,Task,36,(8/4) + 3,5,,,,,,,,,,,,,,,,,,,1,,,,,,,,,,,,,,,,,,,,,,,"[""5""]",1,[3.38900000000001],0,0,0,35,1,,,,,,,,,,,,,,,,,,,,,,,,,,
,,,,,,,,,,,X V Q F H G B L J M P D K C T S W R N Z,5f271938dab22f02cdc90584,19,Kobieta,2022-06-11_09h37.46.102,task,2021.1.4,Win32,60.27000964,6299f149e92ead563fba08ef,62a44627a59f0960af9d34b2,,,,,,,,,,,,,,,,,,,,,,,,,,,,,,,,,,,,,,,,,,,,,,,,,,,,,,,,,,,,,,,,,,,,,,,,,,,,2,0,2,0,1,,,,,,,,,,,,,,,,,,,,,
,,,,,,,,,,,,5f271938dab22f02cdc90584,19,Kobieta,2022-06-11_09h37.46.102,task,2021.1.4,Win32,60.27000964,6299f149e92ead563fba08ef,62a44627a59f0960af9d34b2,,,,,,,,,,,,,,,,,,,,,,,,,,,,,,,,,,,,,,,,,,,,,,,,,,,,,,,,,,,,,,,,,,,,,,,,,,,,,,,,,xwb,"[""x"",""w"",""b""]",0,"[1.317900000095392,1.5178000001907321,1.8057000002861514,2.2345000000000255]",1,XWB,1,0,1,0,1,,,,,,,,,,
,,,,,,,,,,,,5f271938dab22f02cdc90584,19,Kobieta,2022-06-11_09h37.46.102,task,2021.1.4,Win32,60.27000964,6299f149e92ead563fba08ef,62a44627a59f0960af9d34b2,,,,,,,,,,,,,4,,,,,,,,,,Task,4,(1x5) - 1,4,,,,,,,,,,,,,,,,,,,1,,,,,,,,,,,,,,,,,,,,,,,"[""4""]",1,[1.6564000000954593],0,0,0,3,1,,,,,,,,,,,,,,,,,,,,,,,,,,
,,,,,,,,,,,X V Q F H G B L J M P D K C T S W R N Z,5f271938dab22f02cdc90584,19,Kobieta,2022-06-11_09h37.46.102,task,2021.1.4,Win32,60.27000964,6299f149e92ead563fba08ef,62a44627a59f0960af9d34b2,,,,,,,,,,,,,,,,,,,,,,,,,,,,,,,,,,,,,,,,,,,,,,,,,,,,,,,,,,,,,,,,,,,,,,,,,,,,0,0,0,0,1,,,,,,,,,,,,,,,,,,,,,
,,,,,,,,,,,,5f271938dab22f02cdc90584,19,Kobieta,2022-06-11_09h37.46.102,task,2021.1.4,Win32,60.27000964,6299f149e92ead563fba08ef,62a44627a59f0960af9d34b2,,,,,,,,,,,,,9,,,,,,,,,,Task,7,(3x7) - 12,9,,,,,,,,,,,,,,,,,,,1,,,,,,,,,,,,,,,,,,,,,,,"[""9""]",1,[3.449900000095454],0,0,0,6,1,,,,,,,,,,,,,,,,,,,,,,,,,,
,,,,,,,,,,,X V Q F H G B L J M P D K C T S W R N Z,5f271938dab22f02cdc90584,19,Kobieta,2022-06-11_09h37.46.102,task,2021.1.4,Win32,60.27000964,6299f149e92ead563fba08ef,62a44627a59f0960af9d34b2,,,,,,,,,,,,,,,,,,,,,,,,,,,,,,,,,,,,,,,,,,,,,,,,,,,,,,,,,,,,,,,,,,,,,,,,,,,,1,0,1,0,1,,,,,,,,,,,,,,,,,,,,,
,,,,,,,,,,,,5f271938dab22f02cdc90584,19,Kobieta,2022-06-11_09h37.46.102,task,2021.1.4,Win32,60.27000964,6299f149e92ead563fba08ef,62a44627a59f0960af9d34b2,,,,,,,,,,,,,1,,,,,,,,,,Task,1,(12/6) - 1,1,,,,,,,,,,,,,,,,,,,1,,,,,,,,,,,,,,,,,,,,,,,"[""1""]",1,[4.426699999809216],0,0,0,0,1,,,,,,,,,,,,,,,,,,,,,,,,,,
,,,,,,,,,,,X V Q F H G B L J M P D K C T S W R N Z,5f271938dab22f02cdc90584,19,Kobieta,2022-06-11_09h37.46.102,task,2021.1.4,Win32,60.27000964,6299f149e92ead563fba08ef,62a44627a59f0960af9d34b2,,,,,,,,,,,,,,,,,,,,,,,,,,,,,,,,,,,,,,,,,,,,,,,,,,,,,,,,,,,,,,,,,,,,,,,,,,,,2,0,2,0,1,,,,,,,,,,,,,,,,,,,,,
,,,,,,,,,,,,5f271938dab22f02cdc90584,19,Kobieta,2022-06-11_09h37.46.102,task,2021.1.4,Win32,60.27000964,6299f149e92ead563fba08ef,62a44627a59f0960af9d34b2,,,,,,,,,,,,,9,,,,,,,,,,Task,24,(2x2) + 5,9,,,,,,,,,,,,,,,,,,,1,,,,,,,,,,,,,,,,,,,,,,,"[""9""]",1,[2.864500000000021],0,0,0,23,1,,,,,,,,,,,,,,,,,,,,,,,,,,
,,,,,,,,,,,X V Q F H G B L J M P D K C T S W R N Z,5f271938dab22f02cdc90584,19,Kobieta,2022-06-11_09h37.46.102,task,2021.1.4,Win32,60.27000964,6299f149e92ead563fba08ef,62a44627a59f0960af9d34b2,,,,,,,,,,,,,,,,,,,,,,,,,,,,,,,,,,,,,,,,,,,,,,,,,,,,,,,,,,,,,,,,,,,,,,,,,,,,3,0,3,0,1,,,,,,,,,,,,,,,,,,,,,
,,,,,,,,,,,,5f271938dab22f02cdc90584,19,Kobieta,2022-06-11_09h37.46.102,task,2021.1.4,Win32,60.27000964,6299f149e92ead563fba08ef,62a44627a59f0960af9d34b2,,,,,,,,,,,,,,,,,,,,,,,,,,,,,,,,,,,,,,,,,,,,,,,,,,,,,,,,,,,,,,,,,,,,,,,,,,,,,,,,,xwr,"[""x"",""w"",""r""]",0,"[1.711999999999989,1.984099999904629,2.567599999904587,3.1347999997138913]",0,FPZR,2,0,2,0,1,,,,,,,,,,
,,,,,,,,,,,,5f271938dab22f02cdc90584,19,Kobieta,2022-06-11_09h37.46.102,task,2021.1.4,Win32,60.27000964,6299f149e92ead563fba08ef,62a44627a59f0960af9d34b2,,,,,,,,,,,,,0,,,,,,,,,,Task,17,(2x3) - 6,0,,,,,,,,,,,,,,,,,,,1,,,,,,,,,,,,,,,,,,,,,,,"[""0""]",1,[1.987700000286054],0,0,0,16,1,,,,,,,,,,,,,,,,,,,,,,,,,,
,,,,,,,,,,,X V Q F H G B L J M P D K C T S W R N Z,5f271938dab22f02cdc90584,19,Kobieta,2022-06-11_09h37.46.102,task,2021.1.4,Win32,60.27000964,6299f149e92ead563fba08ef,62a44627a59f0960af9d34b2,,,,,,,,,,,,,,,,,,,,,,,,,,,,,,,,,,,,,,,,,,,,,,,,,,,,,,,,,,,,,,,,,,,,,,,,,,,,0,0,0,0,1,,,,,,,,,,,,,,,,,,,,,
,,,,,,,,,,,,5f271938dab22f02cdc90584,19,Kobieta,2022-06-11_09h37.46.102,task,2021.1.4,Win32,60.27000964,6299f149e92ead563fba08ef,62a44627a59f0960af9d34b2,,,,,,,,,,,,,5,,,,,,,,,,Task,29,(3x8) - 19 ,5,,,,,,,,,,,,,,,,,,,1,,,,,,,,,,,,,,,,,,,,,,,"[""5""]",1,[3.949099999904547],0,0,0,28,1,,,,,,,,,,,,,,,,,,,,,,,,,,
,,,,,,,,,,,X V Q F H G B L J M P D K C T S W R N Z,5f271938dab22f02cdc90584,19,Kobieta,2022-06-11_09h37.46.102,task,2021.1.4,Win32,60.27000964,6299f149e92ead563fba08ef,62a44627a59f0960af9d34b2,,,,,,,,,,,,,,,,,,,,,,,,,,,,,,,,,,,,,,,,,,,,,,,,,,,,,,,,,,,,,,,,,,,,,,,,,,,,1,0,1,0,1,,,,,,,,,,,,,,,,,,,,,
,,,,,,,,,,,,5f271938dab22f02cdc90584,19,Kobieta,2022-06-11_09h37.46.102,task,2021.1.4,Win32,60.27000964,6299f149e92ead563fba08ef,62a44627a59f0960af9d34b2,,,,,,,,,,,,,7,,,,,,,,,,Task,14,(2x2) + 3,7,,,,,,,,,,,,,,,,,,,1,,,,,,,,,,,,,,,,,,,,,,,"[""7""]",1,[2.367600000381458],0,0,0,13,1,,,,,,,,,,,,,,,,,,,,,,,,,,
,,,,,,,,,,,X V Q F H G B L J M P D K C T S W R N Z,5f271938dab22f02cdc90584,19,Kobieta,2022-06-11_09h37.46.102,task,2021.1.4,Win32,60.27000964,6299f149e92ead563fba08ef,62a44627a59f0960af9d34b2,,,,,,,,,,,,,,,,,,,,,,,,,,,,,,,,,,,,,,,,,,,,,,,,,,,,,,,,,,,,,,,,,,,,,,,,,,,,2,0,2,0,1,,,,,,,,,,,,,,,,,,,,,
,,,,,,,,,,,,5f271938dab22f02cdc90584,19,Kobieta,2022-06-11_09h37.46.102,task,2021.1.4,Win32,60.27000964,6299f149e92ead563fba08ef,62a44627a59f0960af9d34b2,,,,,,,,,,,,,,,,,,,,,,,Task,38,(4x6) - 17,7,,,,,,,,,,,,,,,,,,,0,,,,,,,,,,,,,,,,,,,,,,,,0,,0,0,0,37,1,,,,,,,,,,,,,,,,,,,,,,,,,,
,,,,,,,,,,,,5f271938dab22f02cdc90584,19,Kobieta,2022-06-11_09h37.46.102,task,2021.1.4,Win32,60.27000964,6299f149e92ead563fba08ef,62a44627a59f0960af9d34b2,,,,,,,,,,,,,2,,,,,,,,,,Task,10,(2x5) - 8,2,,,,,,,,,,,,,,,,,,,1,,,,,,,,,,,,,,,,,,,,,,,"[""2""]",1,[3.468199999809258],0,1,1,9,1,,,,,,,,,,,,,,,,,,,,,,,,,,
,,,,,,,,,,,X V Q F H G B L J M P D K C T S W R N Z,5f271938dab22f02cdc90584,19,Kobieta,2022-06-11_09h37.46.102,task,2021.1.4,Win32,60.27000964,6299f149e92ead563fba08ef,62a44627a59f0960af9d34b2,,,,,,,,,,,,,,,,,,,,,,,,,,,,,,,,,,,,,,,,,,,,,,,,,,,,,,,,,,,,,,,,,,,,,,,,,,,,3,0,3,0,1,,,,,,,,,,,,,,,,,,,,,
,,,,,,,,,,,,5f271938dab22f02cdc90584,19,Kobieta,2022-06-11_09h37.46.102,task,2021.1.4,Win32,60.27000964,6299f149e92ead563fba08ef,62a44627a59f0960af9d34b2,,,,,,,,,,,,,,,,,,,,,,,,,,,,,,,,,,,,,,,,,,,,,,,,,,,,,,,,,,,,,,,,,,,,,,,,,,,,,,,,,kwp,"[""k"",""w"",""p""]",0,"[12.216499999999996,12.35290000009536,12.53209999990463,13.217299999713873]",0,HQVB,3,0,3,0,1,,,,,,,,,,
,,,,,,,,,,,,5f271938dab22f02cdc90584,19,Kobieta,2022-06-11_09h37.46.102,task,2021.1.4,Win32,60.27000964,6299f149e92ead563fba08ef,62a44627a59f0960af9d34b2,,,,,,,,,,,,,,,,,,,,,,,,,,,,,,,,,,,,,,,,,,,,,,,,,,,,,,,,,,,,,,,,,,,,,,,,,,,,,,,,,,,,,,,,,,,,"[""comma""]",0,[0.8779000000954511],0,0,0,0,1,,
,,,,,,,,,,,,5f271938dab22f02cdc90584,19,Kobieta,2022-06-11_09h37.46.102,task,2021.1.4,Win32,60.27000964,6299f149e92ead563fba08ef,62a44627a59f0960af9d34b2,,,,,,,,,,,,,,,,,,,,,,,,,,,,,,,,,,,,,,,,,,,,,,,,,,,,,,,,,,,,,,,,,,,,,,,,,,,,,,,,,,,,,,,,,,,,"[""period""]",0,[0.551899999618513],1,0,1,0,1,,
,,,,,,,,,,,,5f271938dab22f02cdc90584,19,Kobieta,2022-06-11_09h37.46.102,task,2021.1.4,Win32,60.27000964,6299f149e92ead563fba08ef,62a44627a59f0960af9d34b2,,,,,,,,,,,,,,,,,,,,,,,,,,,,,,,,,,,,,,,,,,,,,,,,,,,,,,,,,,,,,,,,,,,,,,,,,,,,,,,,,,,,,,,,,,,,"[""comma""]",0,[0.3350000000000364],2,0,2,0,1,,
,,,,,,,,,,,,5f271938dab22f02cdc90584,19,Kobieta,2022-06-11_09h37.46.102,task,2021.1.4,Win32,60.27000964,6299f149e92ead563fba08ef,62a44627a59f0960af9d34b2,,,,,,,,,,,,,,,,,,,,,,,,,,,,,,,,,,,,,,,,,,,,,,,,,,,,,,,,,,,,,,,,,,,,,,,,,,,,,,,,,,,,,,,,,,,,"[""period""]",0,[0.2674000000953356],3,0,3,0,1,,
,,,,,,,,,,,,5f271938dab22f02cdc90584,19,Kobieta,2022-06-11_09h37.46.102,task,2021.1.4,Win32,60.27000964,6299f149e92ead563fba08ef,62a44627a59f0960af9d34b2,,,,,,,,,,,,,,,,,,,,,,,,,,,,,,,,,,,,,,,,,,,,,,,,,,,,,,,,,,,,,,,,,,,,,,,,,,,,,,,,,,,,,,,,,,,,"[""period""]",0,[0.26700000000005275],4,0,4,0,1,,
,,,,,,,,,,,,5f271938dab22f02cdc90584,19,Kobieta,2022-06-11_09h37.46.102,task,2021.1.4,Win32,60.27000964,6299f149e92ead563fba08ef,62a44627a59f0960af9d34b2,,,,,,,,,,,,,,,,,,,,,,,,,,,,,,,,,,,,,,,,,,,,,,,,,,,,,,,,,,,,,,,,,,,,,,,,,,,,,,,,,,,,,,,,,,,,"[""comma""]",0,[0.2504999999999882],5,0,5,0,1,,
,,,,,,,,,,,,5f271938dab22f02cdc90584,19,Kobieta,2022-06-11_09h37.46.102,task,2021.1.4,Win32,60.27000964,6299f149e92ead563fba08ef,62a44627a59f0960af9d34b2,,,,,,,,,,,,,,,,,,,,,,,,,,,,,,,,,,,,,,,,,,,,,,,,,,,,,,,,,,,,,,,,,,,,,,,,,,,,,,,,,,,,,,,,,,,,"[""period""]",0,[0.1909000000953256],6,0,6,0,1,,
,,,,,,,,,,,,5f271938dab22f02cdc90584,19,Kobieta,2022-06-11_09h37.46.102,task,2021.1.4,Win32,60.27000964,6299f149e92ead563fba08ef,62a44627a59f0960af9d34b2,,,,,,,,,,,,,,,,,,,,,,,,,,,,,,,,,,,,,,,,,,,,,,,,,,,,,,,,,,,,,,,,,,,,,,,,,,,,,,,,,,,,,,,,,,,,"[""comma""]",0,[0.0005999999045798177],7,0,7,0,1,,
,,,,,,,,,,,,5f271938dab22f02cdc90584,19,Kobieta,2022-06-11_09h37.46.102,task,2021.1.4,Win32,60.27000964,6299f149e92ead563fba08ef,62a44627a59f0960af9d34b2,,,,,,,,,,,,,,,,,,,,,,,,,,,,,,,,,,,,,,,,,,,,,,,,,,,,,,,,,,,,,,,,,,,,,,,,,,,,,,,,,,,,,,,,,,,,"[""period"",""comma""]",0,"[0.21560000038141425,1.8632000002860423]",8,0,8,0,1,,
,,,,,,,,,,,,5f271938dab22f02cdc90584,19,Kobieta,2022-06-11_09h37.46.102,task,2021.1.4,Win32,60.27000964,6299f149e92ead563fba08ef,62a44627a59f0960af9d34b2,,,,,,,,,,,,,,,,,,,,,,,,,,,,,,,,,,,,,,,,,,,,,,,,,,,,,,,,,,,,,,,,,,,,,,,,,,,,,,,,,,,,,,,,,,,,"[""comma""]",0,[1.719900000095322],9,0,9,0,1,,
,,,,,,,,,,,,5f271938dab22f02cdc90584,19,Kobieta,2022-06-11_09h37.46.102,task,2021.1.4,Win32,60.27000964,6299f149e92ead563fba08ef,62a44627a59f0960af9d34b2,,,,,,,,,,,,,,,,,,,,,,,,,,,,,,,,,,,,,,,,,,,,,,,,,,,,,,,,,,,,,,,,,,,,,,,,,,,,,,,,,,,,,,,,,,,,,0,,10,0,10,0,1,,
,,,,,,,,,,,,5f271938dab22f02cdc90584,19,Kobieta,2022-06-11_09h37.46.102,task,2021.1.4,Win32,60.27000964,6299f149e92ead563fba08ef,62a44627a59f0960af9d34b2,,,,,,,,,,,,,,,,,,,,,,,,,,,,,,,,,,,,,,,,,,,,,,,,,,,,,,,,,,,,,,,,,,,,,,,,,,,,,,,,,,,,,,,,,,,,"[""period"",""period""]",0,"[0.11750000000006366,1.8170000000000073]",11,0,11,0,1,,
,,,,,,,,,,,,5f271938dab22f02cdc90584,19,Kobieta,2022-06-11_09h37.46.102,task,2021.1.4,Win32,60.27000964,6299f149e92ead563fba08ef,62a44627a59f0960af9d34b2,,,,,,,,,,,,,,,,,,,,,,,,,,,,,,,,,,,,,,,,,,,,,,,,,,,,,,,,,,,,,,,,,,,,,,,,,,,,,,,,,,,,,,,,,,,,,0,,12,0,12,0,1,,
,,,,,,,,,,,,5f271938dab22f02cdc90584,19,Kobieta,2022-06-11_09h37.46.102,task,2021.1.4,Win32,60.27000964,6299f149e92ead563fba08ef,62a44627a59f0960af9d34b2,,,,,,,,,,,,,,,,,,,,,,,,,,,,,,,,,,,,,,,,,,,,,,,,,,,,,,,,,,,,,,,,,,,,,,,,,,,,,,,,,,,,,,,,,,,,"[""comma""]",0,[0.2550999999047008],13,0,13,0,1,,
,,,,,,,,,,,,5f271938dab22f02cdc90584,19,Kobieta,2022-06-11_09h37.46.102,task,2021.1.4,Win32,60.27000964,6299f149e92ead563fba08ef,62a44627a59f0960af9d34b2,,,,,,,,,,,,,,,,,,,,,,,,,,,,,,,,,,,,,,,,,,,,,,,,,,,,,,,,,,,,,,,,,,,,,,,,,,,,,,,,,,,,,,,,,,,,"[""period""]",0,[0.26729999971394136],14,0,14,0,1,,
,,,,,,,,,,,,5f271938dab22f02cdc90584,19,Kobieta,2022-06-11_09h37.46.102,task,2021.1.4,Win32,60.27000964,6299f149e92ead563fba08ef,62a44627a59f0960af9d34b2,,,,,,,,,,,,,,,,,,,,,,,,,,,,,,,,,,,,,,,,,,,,,,,,,,,,,,,,,,,,,,,,,,,,,,,,,,,,,,,,,,,,,,,,,,,,"[""comma""]",0,[0.23519999980919692],15,0,15,0,1,,
,,,,,,,,,,,,5f271938dab22f02cdc90584,19,Kobieta,2022-06-11_09h37.46.102,task,2021.1.4,Win32,60.27000964,6299f149e92ead563fba08ef,62a44627a59f0960af9d34b2,,,,,,,,,,,,,,,,,,,,,,,,,,,,,,,,,,,,,,,,,,,,,,,,,,,,,,,,,,,,,,,,,,,,,,,,,,,,,,,,,,,,,,,,,,,,"[""comma""]",0,[0.21709999990468987],16,0,16,0,1,,
,,,,,,,,,,,,5f271938dab22f02cdc90584,19,Kobieta,2022-06-11_09h37.46.102,task,2021.1.4,Win32,60.27000964,6299f149e92ead563fba08ef,62a44627a59f0960af9d34b2,,,,,,,,,,,,,,,,,,,,,,,,,,,,,,,,,,,,,,,,,,,,,,,,,,,,,,,,,,,,,,,,,,,,,,,,,,,,,,,,,,,,,,,,,,,,,0,,17,0,17,0,1,,
,,,,,,,,,,,,5f271938dab22f02cdc90584,19,Kobieta,2022-06-11_09h37.46.102,task,2021.1.4,Win32,60.27000964,6299f149e92ead563fba08ef,62a44627a59f0960af9d34b2,,,,,,,,,,,,,,,,,,,,,,,,,,,,,,,,,,,,,,,,,,,,,,,,,,,,,,,,,,,,,,,,,,,,,,,,,,,,,,,,,,,,,,,,,,,,"[""comma""]",0,[0.08489999961852845],18,0,18,0,1,,
,,,,,,,,,,,,5f271938dab22f02cdc90584,19,Kobieta,2022-06-11_09h37.46.102,task,2021.1.4,Win32,60.27000964,6299f149e92ead563fba08ef,62a44627a59f0960af9d34b2,,,,,,,,,,,,,,,,,,,,,,,,,,,,,,,,,,,,,,,,,,,,,,,,,,,,,,,,,,,,,,,,,,,,,,,,,,,,,,,,,,,,,,,,,,,,"[""period""]",0,[0.0842000002861596],19,0,19,0,1,,
,,,,,,,,,,,,5f271938dab22f02cdc90584,19,Kobieta,2022-06-11_09h37.46.102,task,2021.1.4,Win32,60.27000964,6299f149e92ead563fba08ef,62a44627a59f0960af9d34b2,,,,,,,,,,,,,,,,,,,,,,,,,,,,,,,,,,,,,,,,,,,,,,,,,,,,,,,,,,,,,,,,,,,,,,,,,,,,,,,,,,,,,,,,,,,,"[""period""]",0,[0.10119999980918237],20,0,20,0,1,,
,,,,,,,,,,,,5f271938dab22f02cdc90584,19,Kobieta,2022-06-11_09h37.46.102,task,2021.1.4,Win32,60.27000964,6299f149e92ead563fba08ef,62a44627a59f0960af9d34b2,,,,,,,,,,,,,,,,,,,,,,,,,,,,,,,,,,,,,,,,,,,,,,,,,,,,,,,,,,,,,,,,,,,,,,,,,,,,,,,,,,,,,,,,,,,,"[""period"",""comma""]",0,"[0.21470000028614322,1.9127000002861223]",21,0,21,0,1,,
,,,,,,,,,,,,5f271938dab22f02cdc90584,19,Kobieta,2022-06-11_09h37.46.102,task,2021.1.4,Win32,60.27000964,6299f149e92ead563fba08ef,62a44627a59f0960af9d34b2,,,,,,,,,,,,,,,,,,,,,,,,,,,,,,,,,,,,,,,,,,,,,,,,,,,,,,,,,,,,,,,,,,,,,,,,,,,,,,,,,,,,,,,,,,,,"[""period""]",0,[1.8335999999046635],22,0,22,0,1,,
,,,,,,,,,,,,5f271938dab22f02cdc90584,19,Kobieta,2022-06-11_09h37.46.102,task,2021.1.4,Win32,60.27000964,6299f149e92ead563fba08ef,62a44627a59f0960af9d34b2,,,,,,,,,,,,,,,,,,,,,,,,,,,,,,,,,,,,,,,,,,,,,,,,,,,,,,,,,,,,,,,,,,,,,,,,,,,,,,,,,,,,,,,,,,,,"[""comma""]",0,[1.7675999999046326],23,0,23,0,1,,
,,,,,,,,,,,,5f271938dab22f02cdc90584,19,Kobieta,2022-06-11_09h37.46.102,task,2021.1.4,Win32,60.27000964,6299f149e92ead563fba08ef,62a44627a59f0960af9d34b2,,,,,,,,,,,,,,,,,,,,,,,,,,,,,,,,,,,,,,,,,,,,,,,,,,,,,,,,,,,,,,,,,,,,,,,,,,,,,,,,,,,,,,,,,,,,,0,,24,0,24,0,1,,
,,,,,,,,,,,,5f271938dab22f02cdc90584,19,Kobieta,2022-06-11_09h37.46.102,task,2021.1.4,Win32,60.27000964,6299f149e92ead563fba08ef,62a44627a59f0960af9d34b2,,,,,,,,,,,,,,,,,,,,,,,,,,,,,,,,,,,,,,,,,,,,,,,,,,,,,,,,,,,,,,,,,,,,,,,,,,,,,,,,,,,,,,,,,,,,"[""period"",""period""]",0,"[0.000700000286087743,1.8640999999046244]",25,0,25,0,1,,
,,,,,,,,,,,,5f271938dab22f02cdc90584,19,Kobieta,2022-06-11_09h37.46.102,task,2021.1.4,Win32,60.27000964,6299f149e92ead563fba08ef,62a44627a59f0960af9d34b2,,,,,,,,,,,,,,,,,,,,,,,,,,,,,,,,,,,,,,,,,,,,,,,,,,,,,,,,,,,,,,,,,,,,,,,,,,,,,,,,,,,,,,,,,,,,,0,,26,0,26,0,1,,
,,,,,,,,,,,,5f271938dab22f02cdc90584,19,Kobieta,2022-06-11_09h37.46.102,task,2021.1.4,Win32,60.27000964,6299f149e92ead563fba08ef,62a44627a59f0960af9d34b2,,,,,,,,,,,,,,,,,,,,,,,,,,,,,,,,,,,,,,,,,,,,,,,,,,,,,,,,,,,,,,,,,,,,,,,,,,,,,,,,,,,,,,,,,,,,"[""comma""]",0,[0.2699999999999818],27,0,27,0,1,,
,,,,,,,,,,,,5f271938dab22f02cdc90584,19,Kobieta,2022-06-11_09h37.46.102,task,2021.1.4,Win32,60.27000964,6299f149e92ead563fba08ef,62a44627a59f0960af9d34b2,,,,,,,,,,,,,,,,,,,,,,,,,,,,,,,,,,,,,,,,,,,,,,,,,,,,,,,,,,,,,,,,,,,,,,,,,,,,,,,,,,,,,,,,,,,,"[""comma""]",0,[0.26840000009542564],28,0,28,0,1,,
,,,,,,,,,,,,5f271938dab22f02cdc90584,19,Kobieta,2022-06-11_09h37.46.102,task,2021.1.4,Win32,60.27000964,6299f149e92ead563fba08ef,62a44627a59f0960af9d34b2,,,,,,,,,,,,,,,,,,,,,,,,,,,,,,,,,,,,,,,,,,,,,,,,,,,,,,,,,,,,,,,,,,,,,,,,,,,,,,,,,,,,,,,,,,,,"[""period""]",0,[0.2343000001907285],29,0,29,0,1,,
,,,,,,,,,,,,5f271938dab22f02cdc90584,19,Kobieta,2022-06-11_09h37.46.102,task,2021.1.4,Win32,60.27000964,6299f149e92ead563fba08ef,62a44627a59f0960af9d34b2,,,,,,,,,,,,,,,,,,,,,,,,,,,,,,,,,,,,,,,,,,,,,,,,,,,,,,,,,,,,,,,,,,,,,,,,,,,,,,,,,,,,,,,,,,,,"[""comma""]",0,[0.20569999980921239],30,0,30,0,1,,
,,,,,,,,,,,,5f271938dab22f02cdc90584,19,Kobieta,2022-06-11_09h37.46.102,task,2021.1.4,Win32,60.27000964,6299f149e92ead563fba08ef,62a44627a59f0960af9d34b2,,,,,,,,,,,,,,,,,,,,,,,,,,,,,,,,,,,,,,,,,,,,,,,,,,,,,,,,,,,,,,,,,,,,,,,,,,,,,,,,,,,,,,,,,,,,"[""period""]",0,[0.21869999980924604],31,0,31,0,1,,
,,,,,,,,,,,,5f271938dab22f02cdc90584,19,Kobieta,2022-06-11_09h37.46.102,task,2021.1.4,Win32,60.27000964,6299f149e92ead563fba08ef,62a44627a59f0960af9d34b2,,,,,,,,,,,,,,,,,,,,,,,,,,,,,,,,,,,,,,,,,,,,,,,,,,,,,,,,,,,,,,,,,,,,,,,,,,,,,,,,,,,,,,,,,,,,"[""comma""]",0,[0.23609999990469532],32,0,32,0,1,,
,,,,,,,,,,,,5f271938dab22f02cdc90584,19,Kobieta,2022-06-11_09h37.46.102,task,2021.1.4,Win32,60.27000964,6299f149e92ead563fba08ef,62a44627a59f0960af9d34b2,,,,,,,,,,,,,,,,,,,,,,,,,,,,,,,,,,,,,,,,,,,,,,,,,,,,,,,,,,,,,,,,,,,,,,,,,,,,,,,,,,,,,,,,,,,,"[""period""]",0,[0.2740000000000009],33,0,33,0,1,,
,,,,,,,,,,,,5f271938dab22f02cdc90584,19,Kobieta,2022-06-11_09h37.46.102,task,2021.1.4,Win32,60.27000964,6299f149e92ead563fba08ef,62a44627a59f0960af9d34b2,,,,,,,,,,,,,,,,,,,,,,,,,,,,,,,,,,,,,,,,,,,,,,,,,,,,,,,,,,,,,,,,,,,,,,,,,,,,,,,,,,,,,,,,,,,,"[""period""]",0,[0.11750000000006366],34,0,34,0,1,,
,,,,,,,,,,,,5f271938dab22f02cdc90584,19,Kobieta,2022-06-11_09h37.46.102,task,2021.1.4,Win32,60.27000964,6299f149e92ead563fba08ef,62a44627a59f0960af9d34b2,,,,,,,,,,,,,,,,,,,,,,,,,,,,,,,,,,,,,,,,,,,,,,,,,,,,,,,,,,,,,,,,,,,,,,,,,,,,,,,,,,,,,,,,,,,,"[""period""]",0,[0.0004999999999881766],35,0,35,0,1,,
,,,,,,,,,,,,5f271938dab22f02cdc90584,19,Kobieta,2022-06-11_09h37.46.102,task,2021.1.4,Win32,60.27000964,6299f149e92ead563fba08ef,62a44627a59f0960af9d34b2,,,,,,,,,,,,,,,,,,,,,,,,,,,,,,,,,,,,,,,,,,,,,,,,,,,,,,,,,,,,,,,,,,,,,,,,,,,,,,,,,,,,,,,,,,,,"[""period""]",0,[0.21759999990456436],36,0,36,0,1,,
,,,,,,,,,,,,5f271938dab22f02cdc90584,19,Kobieta,2022-06-11_09h37.46.102,task,2021.1.4,Win32,60.27000964,6299f149e92ead563fba08ef,62a44627a59f0960af9d34b2,,,,,,,,,,,,,,,,,,,,,,,,,,,,,,,,,,,,,,,,,,,,,,,,,,,,,,,,,,,,,,,,,,,,,,,,,,,,,,,,,,,,,,,,,,,,"[""comma""]",0,[0.22300000000007003],37,0,37,0,1,,
,,,,,,,,,,,,5f271938dab22f02cdc90584,19,Kobieta,2022-06-11_09h37.46.102,task,2021.1.4,Win32,60.27000964,6299f149e92ead563fba08ef,62a44627a59f0960af9d34b2,,,,,,,,,,,,,,,,,,,,,,,,,,,,,,,,,,,,,,,,,,,,,,,,,,,,,,,,,,,,,,,,,,,,,,,,,,,,,,,,,,,,,,,,,,,,"[""comma""]",0,[0.23409999990462893],38,0,38,0,1,,
,,,,,,,,,,,,5f271938dab22f02cdc90584,19,Kobieta,2022-06-11_09h37.46.102,task,2021.1.4,Win32,60.27000964,6299f149e92ead563fba08ef,62a44627a59f0960af9d34b2,,,,,,,,,,,,,,,,,,,,,,,,,,,,,,,,,,,,,,,,,,,,,,,,,,,,,,,,,,,,,,,,,,,,,,,,,,,,,,,,,,,,,,,,,,,,"[""period""]",0,[0.20069999980933062],39,0,39,0,1,,
,,,,,,,,,,,,5f271938dab22f02cdc90584,19,Kobieta,2022-06-11_09h37.46.102,task,2021.1.4,Win32,60.27000964,6299f149e92ead563fba08ef,62a44627a59f0960af9d34b2,,,,,,,,,,,,,,,,,,,,,,,,,,,,,,,,,,,,,,,,,,,,,,,,,,,,,,,,,,,,,,,,,,,,,,,,,,,,,,,,,,,,,,,,,,,,"[""period""]",0,[0.022000000000048203],40,0,40,0,1,,
,,,,,,,,,,,,5f271938dab22f02cdc90584,19,Kobieta,2022-06-11_09h37.46.102,task,2021.1.4,Win32,60.27000964,6299f149e92ead563fba08ef,62a44627a59f0960af9d34b2,,,,,,,,,,,,,,,,,,,,,,,,,,,,,,,,,,,,,,,,,,,,,,,,,,,,,,,,,,,,,,,,,,,,,,,,,,,,,,,,,,,,,,,,,,,,"[""comma""]",0,[0.18419999980926605],41,0,41,0,1,,
,,,,,,,,,,,,5f271938dab22f02cdc90584,19,Kobieta,2022-06-11_09h37.46.102,task,2021.1.4,Win32,60.27000964,6299f149e92ead563fba08ef,62a44627a59f0960af9d34b2,,,,,,,,,,,,,,,,,,,,,,,,,,,,,,,,,,,,,,,,,,,,,,,,,,,,,,,,,,,,,,,,,,,,,,,,,,,,,,,,,,,,,,,,,,,,"[""comma""]",0,[0.5509000000954529],42,0,42,0,1,,
,,,,,,,,,,,,5f271938dab22f02cdc90584,19,Kobieta,2022-06-11_09h37.46.102,task,2021.1.4,Win32,60.27000964,6299f149e92ead563fba08ef,62a44627a59f0960af9d34b2,,,,,,,,,,,,,,,,,,,,,,,,,,,,,,,,,,,,,,,,,,,,,,,,,,,,,,,,,,,,,,,,,,,,,,,,,,,,,,,,,,,,,,,,,,,,"[""period""]",0,[0.2674000000954493],43,0,43,0,1,,
,,,,,,,,,,,,5f271938dab22f02cdc90584,19,Kobieta,2022-06-11_09h37.46.102,task,2021.1.4,Win32,60.27000964,6299f149e92ead563fba08ef,62a44627a59f0960af9d34b2,,,,,,,,,,,,,,,,,,,,,,,,,,,,,,,,,,,,,,,,,,,,,,,,,,,,,,,,,,,,,,,,,,,,,,,,,,,,,,,,,,,,,,,,,,,,"[""period""]",0,[0.26929999971389407],44,0,44,0,1,,
,,,,,,,,,,,,5f271938dab22f02cdc90584,19,Kobieta,2022-06-11_09h37.46.102,task,2021.1.4,Win32,60.27000964,6299f149e92ead563fba08ef,62a44627a59f0960af9d34b2,,,,,,,,,,,,,,,,,,,,,,,,,,,,,,,,,,,,,,,,,,,,,,,,,,,,,,,,,,,,,,,,,,,,,,,,,,,,,,,,,,,,,,,,,,,,"[""comma""]",0,[0.034199999809288784],45,0,45,0,1,,
,,,,,,,,,,,,5f271938dab22f02cdc90584,19,Kobieta,2022-06-11_09h37.46.102,task,2021.1.4,Win32,60.27000964,6299f149e92ead563fba08ef,62a44627a59f0960af9d34b2,,,,,,,,,,,,,,,,,,,,,,,,,,,,,,,,,,,,,,,,,,,,,,,,,,,,,,,,,,,,,,,,,,,,,,,,,,,,,,,,,,,,,,,,,,,,"[""period""]",0,[0.08950000000004366],46,0,46,0,1,,
,,,,,,,,,,,,5f271938dab22f02cdc90584,19,Kobieta,2022-06-11_09h37.46.102,task,2021.1.4,Win32,60.27000964,6299f149e92ead563fba08ef,62a44627a59f0960af9d34b2,,,,,,,,,,,,,,,,,,,,,,,,,,,,,,,,,,,,,,,,,,,,,,,,,,,,,,,,,,,,,,,,,,,,,,,,,,,,,,,,,,,,,,,,,,,,"[""comma""]",0,[0.0011000003814842785],47,0,47,0,1,,
,,,,,,,,,,,,5f271938dab22f02cdc90584,19,Kobieta,2022-06-11_09h37.46.102,task,2021.1.4,Win32,60.27000964,6299f149e92ead563fba08ef,62a44627a59f0960af9d34b2,,,,,,,,,,,,,,,,,,,,,,,,,,,,,,,,,,,,,,,,,,,,,,,,,,,,,,,,,,,,,,,,,,,,,,,,,,,,,,,,,,,,,,,,,,,,"[""comma"",""period""]",0,"[0.06709999990459892,1.850300000190714]",48,0,48,0,1,,
,,,,,,,,,,,,5f271938dab22f02cdc90584,19,Kobieta,2022-06-11_09h37.46.102,task,2021.1.4,Win32,60.27000964,6299f149e92ead563fba08ef,62a44627a59f0960af9d34b2,,,,,,,,,,,,,,,,,,,,,,,,,,,,,,,,,,,,,,,,,,,,,,,,,,,,,,,,,,,,,,,,,,,,,,,,,,,,,,,,,,,,,,,,,,,,"[""period""]",0,[1.907000000000039],49,0,49,0,1,,
,,,,,,,,,,,,5f271938dab22f02cdc90584,19,Kobieta,2022-06-11_09h37.46.102,task,2021.1.4,Win32,60.27000964,6299f149e92ead563fba08ef,62a44627a59f0960af9d34b2,,,,,,,,,,,,,,,,,,,,,,,,,,,,,,,,,,,,,,,,,,,,,,,,,,,,,,,,,,,,,,,,,,,,,,,,,,,,,,,,,,,,,,,,,,,,,0,,50,0,50,0,1,,
,,,,,,,,,,,,5f271938dab22f02cdc90584,19,Kobieta,2022-06-11_09h37.46.102,task,2021.1.4,Win32,60.27000964,6299f149e92ead563fba08ef,62a44627a59f0960af9d34b2,,,,,,,,,,,,,,,,,,,,,,,,,,,,,,,,,,,,,,,,,,,,,,,,,,,,,,,,,,,,,,,,,,,,,,,,,,,,,,,,,,,,,,,,,,,,"[""comma""]",0,[0.019099999904710785],51,0,51,0,1,,
,,,,,,,,,,,,5f271938dab22f02cdc90584,19,Kobieta,2022-06-11_09h37.46.102,task,2021.1.4,Win32,60.27000964,6299f149e92ead563fba08ef,62a44627a59f0960af9d34b2,,,,,,,,,,,,,,,,,,,,,,,,,,,,,,,,,,,,,,,,,,,,,,,,,,,,,,,,,,,,,,,,,,,,,,,,,,,,,,,,,,,,,,,,,,,,"[""comma""]",0,[0.16760000038152612],52,0,52,0,1,,
,,,,,,,,,,,,5f271938dab22f02cdc90584,19,Kobieta,2022-06-11_09h37.46.102,task,2021.1.4,Win32,60.27000964,6299f149e92ead563fba08ef,62a44627a59f0960af9d34b2,,,,,,,,,,,,,,,,,,,,,,,,,,,,,,,,,,,,,,,,,,,,,,,,,,,,,,,,,,,,,,,,,,,,,,,,,,,,,,,,,,,,,,,,,,,,"[""period"",""period""]",0,"[0.034299999713880425,1.8696999998091997]",53,0,53,0,1,,
,,,,,,,,,,,,5f271938dab22f02cdc90584,19,Kobieta,2022-06-11_09h37.46.102,task,2021.1.4,Win32,60.27000964,6299f149e92ead563fba08ef,62a44627a59f0960af9d34b2,,,,,,,,,,,,,,,,,,,,,,,,,,,,,,,,,,,,,,,,,,,,,,,,,,,,,,,,,,,,,,,,,,,,,,,,,,,,,,,,,,,,,,,,,,,,"[""comma""]",0,[1.8017000002861323],54,0,54,0,1,,
,,,,,,,,,,,,5f271938dab22f02cdc90584,19,Kobieta,2022-06-11_09h37.46.102,task,2021.1.4,Win32,60.27000964,6299f149e92ead563fba08ef,62a44627a59f0960af9d34b2,,,,,,,,,,,,,,,,,,,,,,,,,,,,,,,,,,,,,,,,,,,,,,,,,,,,,,,,,,,,,,,,,,,,,,,,,,,,,,,,,,,,,,,,,,,,"[""comma""]",0,[1.83400000000006],55,0,55,0,1,,
,,,,,,,,,,,,5f271938dab22f02cdc90584,19,Kobieta,2022-06-11_09h37.46.102,task,2021.1.4,Win32,60.27000964,6299f149e92ead563fba08ef,62a44627a59f0960af9d34b2,,,,,,,,,,,,,,,,,,,,,,,,,,,,,,,,,,,,,,,,,,,,,,,,,,,,,,,,,,,,,,,,,,,,,,,,,,,,,,,,,,,,,,,,,,,,"[""comma""]",0,[1.9505000000000337],56,0,56,0,1,,
,,,,,,,,,,,,5f271938dab22f02cdc90584,19,Kobieta,2022-06-11_09h37.46.102,task,2021.1.4,Win32,60.27000964,6299f149e92ead563fba08ef,62a44627a59f0960af9d34b2,,,,,,,,,,,,,,,,,,,,,,,,,,,,,,,,,,,,,,,,,,,,,,,,,,,,,,,,,,,,,,,,,,,,,,,,,,,,,,,,,,,,,,,,,,,,,0,,57,0,57,0,1,,
,,,,,,,,,,,,5f271938dab22f02cdc90584,19,Kobieta,2022-06-11_09h37.46.102,task,2021.1.4,Win32,60.27000964,6299f149e92ead563fba08ef,62a44627a59f0960af9d34b2,,,,,,,,,,,,,,,,,,,,,,,,,,,,,,,,,,,,,,,,,,,,,,,,,,,,,,,,,,,,,,,,,,,,,,,,,,,,,,,,,,,,,,,,,,,,"[""comma""]",0,[0.08430000019075123],58,0,58,0,1,,
,,,,,,,,,,,,5f271938dab22f02cdc90584,19,Kobieta,2022-06-11_09h37.46.102,task,2021.1.4,Win32,60.27000964,6299f149e92ead563fba08ef,62a44627a59f0960af9d34b2,,,,,,,,,,,,,,,,,,,,,,,,,,,,,,,,,,,,,,,,,,,,,,,,,,,,,,,,,,,,,,,,,,,,,,,,,,,,,,,,,,,,,,,,,,,,"[""comma"",""period""]",0,"[0.0005999999045798177,1.9169999999999163]",59,0,59,0,1,,
,,,,,,,,,,,,5f271938dab22f02cdc90584,19,Kobieta,2022-06-11_09h37.46.102,task,2021.1.4,Win32,60.27000964,6299f149e92ead563fba08ef,62a44627a59f0960af9d34b2,,,,,,,,,,,,,,,,,,,,,,,,,,,,,,,,,,,,,,,,,,,,,,,,,,,,,,,,,,,,,,,,,,,,,,,,,,,,,,,,,,,,,,,,,,,,"[""period""]",0,[1.773400000095421],60,0,60,0,1,,
,,,,,,,,,,,,5f271938dab22f02cdc90584,19,Kobieta,2022-06-11_09h37.46.102,task,2021.1.4,Win32,60.27000964,6299f149e92ead563fba08ef,62a44627a59f0960af9d34b2,,,,,,,,,,,,,,,,,,,,,,,,,,,,,,,,,,,,,,,,,,,,,,,,,,,,,,,,,,,,,,,,,,,,,,,,,,,,,,,,,,,,,,,,,,,,"[""comma""]",0,[1.9353000001907503],61,0,61,0,1,,
,,,,,,,,,,,,5f271938dab22f02cdc90584,19,Kobieta,2022-06-11_09h37.46.102,task,2021.1.4,Win32,60.27000964,6299f149e92ead563fba08ef,62a44627a59f0960af9d34b2,,,,,,,,,,,,,,,,,,,,,,,,,,,,,,,,,,,,,,,,,,,,,,,,,,,,,,,,,,,,,,,,,,,,,,,,,,,,,,,,,,,,,,,,,,,,,0,,62,0,62,0,1,,
,,,,,,,,,,,,5f271938dab22f02cdc90584,19,Kobieta,2022-06-11_09h37.46.102,task,2021.1.4,Win32,60.27000964,6299f149e92ead563fba08ef,62a44627a59f0960af9d34b2,,,,,,,,,,,,,,,,,,,,,,,,,,,,,,,,,,,,,,,,,,,,,,,,,,,,,,,,,,,,,,,,,,,,,,,,,,,,,,,,,,,,,,,,,,,,"[""period""]",0,[0.07029999971382495],63,0,63,0,1,,
,,,,,,,,,,,,5f271938dab22f02cdc90584,19,Kobieta,2022-06-11_09h37.46.102,task,2021.1.4,Win32,60.27000964,6299f149e92ead563fba08ef,62a44627a59f0960af9d34b2,,,,,,,,,,,,,,,,,,,,,,,,,,,,,,,,,,,,,,,,,,,,,,,,,,,,,,,,,,,,,,,,,,,,,,,,,,,,,,,,,,,,,,,,,,,,"[""comma""]",0,[0.05099999999993088],64,0,64,0,1,,
,,,,,,,,,,,,5f271938dab22f02cdc90584,19,Kobieta,2022-06-11_09h37.46.102,task,2021.1.4,Win32,60.27000964,6299f149e92ead563fba08ef,62a44627a59f0960af9d34b2,,,,,,,,,,,,,,,,,,,,,,,,,,,,,,,,,,,,,,,,,,,,,,,,,,,,,,,,,,,,,,,,,,,,,,,,,,,,,,,,,,,,,,,,,,,,"[""period"",""period""]",0,"[0.10079999971389952,1.9340999999045607]",65,0,65,0,1,,
,,,,,,,,,,,,5f271938dab22f02cdc90584,19,Kobieta,2022-06-11_09h37.46.102,task,2021.1.4,Win32,60.27000964,6299f149e92ead563fba08ef,62a44627a59f0960af9d34b2,,,,,,,,,,,,,,,,,,,,,,,,,,,,,,,,,,,,,,,,,,,,,,,,,,,,,,,,,,,,,,,,,,,,,,,,,,,,,,,,,,,,,,,,,,,,"[""period""]",0,[1.5672000002861068],66,0,66,0,1,,
,,,,,,,,,,,,5f271938dab22f02cdc90584,19,Kobieta,2022-06-11_09h37.46.102,task,2021.1.4,Win32,60.27000964,6299f149e92ead563fba08ef,62a44627a59f0960af9d34b2,,,,,,,,,,,,,,,,,,,,,,,,,,,,,,,,,,,,,,,,,,,,,,,,,,,,,,,,,,,,,,,,,,,,,,,,,,,,,,,,,,,,,,,,,,,,,0,,67,0,67,0,1,,
,,,,,,,,,,,,5f271938dab22f02cdc90584,19,Kobieta,2022-06-11_09h37.46.102,task,2021.1.4,Win32,60.27000964,6299f149e92ead563fba08ef,62a44627a59f0960af9d34b2,,,,,,,,,,,,,,,,,,,,,,,,,,,,,,,,,,,,,,,,,,,,,,,,,,,,,,,,,,,,,,,,,,,,,,,,,,,,,,,,,,,,,,,,,,,,"[""comma""]",0,[0.05089999961853664],68,0,68,0,1,,
,,,,,,,,,,,,5f271938dab22f02cdc90584,19,Kobieta,2022-06-11_09h37.46.102,task,2021.1.4,Win32,60.27000964,6299f149e92ead563fba08ef,62a44627a59f0960af9d34b2,,,,,,,,,,,,,,,,,,,,,,,,,,,,,,,,,,,,,,,,,,,,,,,,,,,,,,,,,,,,,,,,,,,,,,,,,,,,,,,,,,,,,,,,,,,,"[""period""]",0,[0.2340000000000373],69,0,69,0,1,,
,,,,,,,,,,,,5f271938dab22f02cdc90584,19,Kobieta,2022-06-11_09h37.46.102,task,2021.1.4,Win32,60.27000964,6299f149e92ead563fba08ef,62a44627a59f0960af9d34b2,,,,,,,,,,,,,,,,,,,,,,,,,,,,,,,,,,,,,,,,,,,,,,,,,,,,,,,,,,,,,,,,,,,,,,,,,,,,,,,,,,,,,,,,,,,,"[""comma""]",0,[0.2839000000954002],70,0,70,0,1,,
,,,,,,,,,,,,5f271938dab22f02cdc90584,19,Kobieta,2022-06-11_09h37.46.102,task,2021.1.4,Win32,60.27000964,6299f149e92ead563fba08ef,62a44627a59f0960af9d34b2,,,,,,,,,,,,,,,,,,,,,,,,,,,,,,,,,,,,,,,,,,,,,,,,,,,,,,,,,,,,,,,,,,,,,,,,,,,,,,,,,,,,,,,,,,,,"[""comma""]",0,[0.25020000028621325],71,0,71,0,1,,
,,,,,,,,,,,,5f271938dab22f02cdc90584,19,Kobieta,2022-06-11_09h37.46.102,task,2021.1.4,Win32,60.27000964,6299f149e92ead563fba08ef,62a44627a59f0960af9d34b2,,,,,,,,,,,,,,,,,,,,,,,,,,,,,,,,,,,,,,,,,,,,,,,,,,,,,,,,,,,,,,,,,,,,,,,,,,,,,,,,,,,,,,,,,,,,"[""period""]",0,[0.24180000019066483],72,0,72,0,1,,
,,,,,,,,,,,,5f271938dab22f02cdc90584,19,Kobieta,2022-06-11_09h37.46.102,task,2021.1.4,Win32,60.27000964,6299f149e92ead563fba08ef,62a44627a59f0960af9d34b2,,,,,,,,,,,,,,,,,,,,,,,,,,,,,,,,,,,,,,,,,,,,,,,,,,,,,,,,,,,,,,,,,,,,,,,,,,,,,,,,,,,,,,,,,,,,"[""period""]",0,[0.17880000019079034],73,0,73,0,1,,
,,,,,,,,,,,,5f271938dab22f02cdc90584,19,Kobieta,2022-06-11_09h37.46.102,task,2021.1.4,Win32,60.27000964,6299f149e92ead563fba08ef,62a44627a59f0960af9d34b2,,,,,,,,,,,,,,,,,,,,,,,,,,,,,,,,,,,,,,,,,,,,,,,,,,,,,,,,,,,,,,,,,,,,,,,,,,,,,,,,,,,,,,,,,,,,"[""comma""]",0,[0.21869999980935972],74,0,74,0,1,,
,,,,,,,,,,,,5f271938dab22f02cdc90584,19,Kobieta,2022-06-11_09h37.46.102,task,2021.1.4,Win32,60.27000964,6299f149e92ead563fba08ef,62a44627a59f0960af9d34b2,,,,,,,,,,,,,,,,,,,,,,,,,,,,,,,,,,,,,,,,,,,,,,,,,,,,,,,,,,,,,,,,,,,,,,,,,,,,,,,,,,,,,,,,,,,,"[""period""]",0,[0.3345000000000482],75,0,75,0,1,,
,,,,,,,,,,,,5f271938dab22f02cdc90584,19,Kobieta,2022-06-11_09h37.46.102,task,2021.1.4,Win32,60.27000964,6299f149e92ead563fba08ef,62a44627a59f0960af9d34b2,,,,,,,,,,,,,,,,,,,,,,,,,,,,,,,,,,,,,,,,,,,,,,,,,,,,,,,,,,,,,,,,,,,,,,,,,,,,,,,,,,,,,,,,,,,,"[""period""]",0,[0.30150000000003274],76,0,76,0,1,,
,,,,,,,,,,,,5f271938dab22f02cdc90584,19,Kobieta,2022-06-11_09h37.46.102,task,2021.1.4,Win32,60.27000964,6299f149e92ead563fba08ef,62a44627a59f0960af9d34b2,,,,,,,,,,,,,,,,,,,,,,,,,,,,,,,,,,,,,,,,,,,,,,,,,,,,,,,,,,,,,,,,,,,,,,,,,,,,,,,,,,,,,,,,,,,,"[""comma""]",0,[0.33400000000006],77,0,77,0,1,,
,,,,,,,,,,,,5f271938dab22f02cdc90584,19,Kobieta,2022-06-11_09h37.46.102,task,2021.1.4,Win32,60.27000964,6299f149e92ead563fba08ef,62a44627a59f0960af9d34b2,,,,,,,,,,,,,,,,,,,,,,,,,,,,,,,,,,,,,,,,,,,,,,,,,,,,,,,,,,,,,,,,,,,,,,,,,,,,,,,,,,,,,,,,,,,,"[""period""]",0,[0.28300000000001546],78,0,78,0,1,,
,,,,,,,,,,,,5f271938dab22f02cdc90584,19,Kobieta,2022-06-11_09h37.46.102,task,2021.1.4,Win32,60.27000964,6299f149e92ead563fba08ef,62a44627a59f0960af9d34b2,,,,,,,,,,,,,,,,,,,,,,,,,,,,,,,,,,,,,,,,,,,,,,,,,,,,,,,,,,,,,,,,,,,,,,,,,,,,,,,,,,,,,,,,,,,,"[""comma""]",0,[0.10550000000000637],79,0,79,0,1,,
,,,,,,,,,,,,5f271938dab22f02cdc90584,19,Kobieta,2022-06-11_09h37.46.102,task,2021.1.4,Win32,60.27000964,6299f149e92ead563fba08ef,62a44627a59f0960af9d34b2,,,,,,,,,,,,,,,,,,,,,,,,,,,,,,,,,,,,,,,,,,,,,,,,,,,,,,,,,,,,,,,,,,,,,,,,,,,,,,,,,,,,,,,,,,,,"[""comma""]",0,[0.039199999809284236],80,0,80,0,1,,
,,,,,,,,,,,,5f271938dab22f02cdc90584,19,Kobieta,2022-06-11_09h37.46.102,task,2021.1.4,Win32,60.27000964,6299f149e92ead563fba08ef,62a44627a59f0960af9d34b2,,,,,,,,,,,,,,,,,,,,,,,,,,,,,,,,,,,,,,,,,,,,,,,,,,,,,,,,,,,,,,,,,,,,,,,,,,,,,,,,,,,,,,,,,,,,"[""comma""]",0,[0.11779999971395227],81,0,81,0,1,,
,,,,,,,,,,,,5f271938dab22f02cdc90584,19,Kobieta,2022-06-11_09h37.46.102,task,2021.1.4,Win32,60.27000964,6299f149e92ead563fba08ef,62a44627a59f0960af9d34b2,,,,,,,,,,,,,,,,,,,,,,,,,,,,,,,,,,,,,,,,,,,,,,,,,,,,,,,,,,,,,,,,,,,,,,,,,,,,,,,,,,,,,,,,,,,,"[""period"",""period""]",0,"[0.06840000009526648,1.7903000001906548]",82,0,82,0,1,,
,,,,,,,,,,,,5f271938dab22f02cdc90584,19,Kobieta,2022-06-11_09h37.46.102,task,2021.1.4,Win32,60.27000964,6299f149e92ead563fba08ef,62a44627a59f0960af9d34b2,,,,,,,,,,,,,,,,,,,,,,,,,,,,,,,,,,,,,,,,,,,,,,,,,,,,,,,,,,,,,,,,,,,,,,,,,,,,,,,,,,,,,,,,,,,,"[""period""]",0,[1.7835000000000036],83,0,83,0,1,,
,,,,,,,,,,,,5f271938dab22f02cdc90584,19,Kobieta,2022-06-11_09h37.46.102,task,2021.1.4,Win32,60.27000964,6299f149e92ead563fba08ef,62a44627a59f0960af9d34b2,,,,,,,,,,,,,,,,,,,,,,,,,,,,,,,,,,,,,,,,,,,,,,,,,,,,,,,,,,,,,,,,,,,,,,,,,,,,,,,,,,,,,,,,,,,,"[""period""]",0,[1.8839999999999009],84,0,84,0,1,,
,,,,,,,,,,,,5f271938dab22f02cdc90584,19,Kobieta,2022-06-11_09h37.46.102,task,2021.1.4,Win32,60.27000964,6299f149e92ead563fba08ef,62a44627a59f0960af9d34b2,,,,,,,,,,,,,,,,,,,,,,,,,,,,,,,,,,,,,,,,,,,,,,,,,,,,,,,,,,,,,,,,,,,,,,,,,,,,,,,,,,,,,,,,,,,,"[""period""]",0,[1.933999999999969],85,0,85,0,1,,
,,,,,,,,,,,,5f271938dab22f02cdc90584,19,Kobieta,2022-06-11_09h37.46.102,task,2021.1.4,Win32,60.27000964,6299f149e92ead563fba08ef,62a44627a59f0960af9d34b2,,,,,,,,,,,,,,,,,,,,,,,,,,,,,,,,,,,,,,,,,,,,,,,,,,,,,,,,,,,,,,,,,,,,,,,,,,,,,,,,,,,,,,,,,,,,"[""comma""]",0,[1.8871999998092406],86,0,86,0,1,,
,,,,,,,,,,,,5f271938dab22f02cdc90584,19,Kobieta,2022-06-11_09h37.46.102,task,2021.1.4,Win32,60.27000964,6299f149e92ead563fba08ef,62a44627a59f0960af9d34b2,,,,,,,,,,,,,,,,,,,,,,,,,,,,,,,,,,,,,,,,,,,,,,,,,,,,,,,,,,,,,,,,,,,,,,,,,,,,,,,,,,,,,,,,,,,,"[""comma""]",0,[1.7279000000954738],87,0,87,0,1,,
,,,,,,,,,,,,5f271938dab22f02cdc90584,19,Kobieta,2022-06-11_09h37.46.102,task,2021.1.4,Win32,60.27000964,6299f149e92ead563fba08ef,62a44627a59f0960af9d34b2,,,,,,,,,,,,,,,,,,,,,,,,,,,,,,,,,,,,,,,,,,,,,,,,,,,,,,,,,,,,,,,,,,,,,,,,,,,,,,,,,,,,,,,,,,,,"[""period""]",0,[1.8217000002861141],88,0,88,0,1,,
,,,,,,,,,,,,5f271938dab22f02cdc90584,19,Kobieta,2022-06-11_09h37.46.102,task,2021.1.4,Win32,60.27000964,6299f149e92ead563fba08ef,62a44627a59f0960af9d34b2,,,,,,,,,,,,,,,,,,,,,,,,,,,,,,,,,,,,,,,,,,,,,,,,,,,,,,,,,,,,,,,,,,,,,,,,,,,,,,,,,,,,,,,,,,,,,0,,89,0,89,0,1,,
,,,,,,,,,,,,5f271938dab22f02cdc90584,19,Kobieta,2022-06-11_09h37.46.102,task,2021.1.4,Win32,60.27000964,6299f149e92ead563fba08ef,62a44627a59f0960af9d34b2,,,,,,,,,,,,,,,,,,,,,,,,,,,,,,,,,,,,,,,,,,,,,,,,,,,,,,,,,,,,,,,,,,,,,,,,,,,,,,,,,,,,,,,,,,,,"[""period""]",0,[0.08429999971383495],90,0,90,0,1,,
,,,,,,,,,,,,5f271938dab22f02cdc90584,19,Kobieta,2022-06-11_09h37.46.102,task,2021.1.4,Win32,60.27000964,6299f149e92ead563fba08ef,62a44627a59f0960af9d34b2,,,,,,,,,,,,,,,,,,,,,,,,,,,,,,,,,,,,,,,,,,,,,,,,,,,,,,,,,,,,,,,,,,,,,,,,,,,,,,,,,,,,,,,,,,,,"[""comma"",""period""]",0,"[0.0684999999999718,1.900700000286065]",91,0,91,0,1,,
,,,,,,,,,,,,5f271938dab22f02cdc90584,19,Kobieta,2022-06-11_09h37.46.102,task,2021.1.4,Win32,60.27000964,6299f149e92ead563fba08ef,62a44627a59f0960af9d34b2,,,,,,,,,,,,,,,,,,,,,,,,,,,,,,,,,,,,,,,,,,,,,,,,,,,,,,,,,,,,,,,,,,,,,,,,,,,,,,,,,,,,,,,,,,,,"[""comma""]",0,[1.8644999999999072],92,0,92,0,1,,
,,,,,,,,,,,,5f271938dab22f02cdc90584,19,Kobieta,2022-06-11_09h37.46.102,task,2021.1.4,Win32,60.27000964,6299f149e92ead563fba08ef,62a44627a59f0960af9d34b2,,,,,,,,,,,,,,,,,,,,,,,,,,,,,,,,,,,,,,,,,,,,,,,,,,,,,,,,,,,,,,,,,,,,,,,,,,,,,,,,,,,,,,,,,,,,,0,,93,0,93,0,1,,
,,,,,,,,,,,,5f271938dab22f02cdc90584,19,Kobieta,2022-06-11_09h37.46.102,task,2021.1.4,Win32,60.27000964,6299f149e92ead563fba08ef,62a44627a59f0960af9d34b2,,,,,,,,,,,,,,,,,,,,,,,,,,,,,,,,,,,,,,,,,,,,,,,,,,,,,,,,,,,,,,,,,,,,,,,,,,,,,,,,,,,,,,,,,,,,"[""period"",""comma""]",0,"[0.11780000019075487,1.9520999999047035]",94,0,94,0,1,,
,,,,,,,,,,,,5f271938dab22f02cdc90584,19,Kobieta,2022-06-11_09h37.46.102,task,2021.1.4,Win32,60.27000964,6299f149e92ead563fba08ef,62a44627a59f0960af9d34b2,,,,,,,,,,,,,,,,,,,,,,,,,,,,,,,,,,,,,,,,,,,,,,,,,,,,,,,,,,,,,,,,,,,,,,,,,,,,,,,,,,,,,,,,,,,,,0,,95,0,95,0,1,,
,,,,,,,,,,,,5f271938dab22f02cdc90584,19,Kobieta,2022-06-11_09h37.46.102,task,2021.1.4,Win32,60.27000964,6299f149e92ead563fba08ef,62a44627a59f0960af9d34b2,,,,,,,,,,,,,,,,,,,,,,,,,,,,,,,,,,,,,,,,,,,,,,,,,,,,,,,,,,,,,,,,,,,,,,,,,,,,,,,,,,,,,,,,,,,,"[""period""]",0,[0.2674000000953356],96,0,96,0,1,,
,,,,,,,,,,,,5f271938dab22f02cdc90584,19,Kobieta,2022-06-11_09h37.46.102,task,2021.1.4,Win32,60.27000964,6299f149e92ead563fba08ef,62a44627a59f0960af9d34b2,,,,,,,,,,,,,,,,,,,,,,,,,,,,,,,,,,,,,,,,,,,,,,,,,,,,,,,,,,,,,,,,,,,,,,,,,,,,,,,,,,,,,,,,,,,,"[""comma""]",0,[0.2509000000953847],97,0,97,0,1,,
,,,,,,,,,,,,5f271938dab22f02cdc90584,19,Kobieta,2022-06-11_09h37.46.102,task,2021.1.4,Win32,60.27000964,6299f149e92ead563fba08ef,62a44627a59f0960af9d34b2,,,,,,,,,,,,,,,,,,,,,,,,,,,,,,,,,,,,,,,,,,,,,,,,,,,,,,,,,,,,,,,,,,,,,,,,,,,,,,,,,,,,,,,,,,,,"[""period""]",0,[0.2005999999046253],98,0,98,0,1,,
,,,,,,,,,,,,5f271938dab22f02cdc90584,19,Kobieta,2022-06-11_09h37.46.102,task,2021.1.4,Win32,60.27000964,6299f149e92ead563fba08ef,62a44627a59f0960af9d34b2,,,,,,,,,,,,,,,,,,,,,,,,,,,,,,,,,,,,,,,,,,,,,,,,,,,,,,,,,,,,,,,,,,,,,,,,,,,,,,,,,,,,,,,,,,,,"[""period""]",0,[0.0895999999046353],99,0,99,0,1,,
,,,,,,,,,,,,5f271938dab22f02cdc90584,19,Kobieta,2022-06-11_09h37.46.102,task,2021.1.4,Win32,60.27000964,6299f149e92ead563fba08ef,62a44627a59f0960af9d34b2,,,,,,,,,,,,,,,,,,,,,,,,,,,,,,,,,,,,,,,,,,,,,,,,,,,,,,,,,,,,,,,,,,,,,,,,,,,,,,,,,,,,,,,,,,,,"[""period""]",0,[0.3507999997138995],100,0,100,0,1,,
,,,,,,,,,,,,5f271938dab22f02cdc90584,19,Kobieta,2022-06-11_09h37.46.102,task,2021.1.4,Win32,60.27000964,6299f149e92ead563fba08ef,62a44627a59f0960af9d34b2,,,,,,,,,,,,,,,,,,,,,,,,,,,,,,,,,,,,,,,,,,,,,,,,,,,,,,,,,,,,,,,,,,,,,,,,,,,,,,,,,,,,,,,,,,,,"[""comma""]",0,[0.28359999990470897],101,0,101,0,1,,
,,,,,,,,,,,,5f271938dab22f02cdc90584,19,Kobieta,2022-06-11_09h37.46.102,task,2021.1.4,Win32,60.27000964,6299f149e92ead563fba08ef,62a44627a59f0960af9d34b2,,,,,,,,,,,,,,,,,,,,,,,,,,,,,,,,,,,,,,,,,,,,,,,,,,,,,,,,,,,,,,,,,,,,,,,,,,,,,,,,,,,,,,,,,,,,"[""comma""]",0,[0.23380000019074032],102,0,102,0,1,,
,,,,,,,,,,,,5f271938dab22f02cdc90584,19,Kobieta,2022-06-11_09h37.46.102,task,2021.1.4,Win32,60.27000964,6299f149e92ead563fba08ef,62a44627a59f0960af9d34b2,,,,,,,,,,,,,,,,,,,,,,,,,,,,,,,,,,,,,,,,,,,,,,,,,,,,,,,,,,,,,,,,,,,,,,,,,,,,,,,,,,,,,,,,,,,,"[""comma""]",0,[0.17390000009538653],103,0,103,0,1,,
,,,,,,,,,,,,5f271938dab22f02cdc90584,19,Kobieta,2022-06-11_09h37.46.102,task,2021.1.4,Win32,60.27000964,6299f149e92ead563fba08ef,62a44627a59f0960af9d34b2,,,,,,,,,,,,,,,,,,,,,,,,,,,,,,,,,,,,,,,,,,,,,,,,,,,,,,,,,,,,,,,,,,,,,,,,,,,,,,,,,,,,,,,,,,,,"[""comma""]",0,[0.15050000000007913],104,0,104,0,1,,
,,,,,,,,,,,,5f271938dab22f02cdc90584,19,Kobieta,2022-06-11_09h37.46.102,task,2021.1.4,Win32,60.27000964,6299f149e92ead563fba08ef,62a44627a59f0960af9d34b2,,,,,,,,,,,,,,,,,,,,,,,,,,,,,,,,,,,,,,,,,,,,,,,,,,,,,,,,,,,,,,,,,,,,,,,,,,,,,,,,,,,,,,,,,,,,"[""period""]",0,[0.18340000009538926],105,0,105,0,1,,
,,,,,,,,,,,,5f271938dab22f02cdc90584,19,Kobieta,2022-06-11_09h37.46.102,task,2021.1.4,Win32,60.27000964,6299f149e92ead563fba08ef,62a44627a59f0960af9d34b2,,,,,,,,,,,,,,,,,,,,,,,,,,,,,,,,,,,,,,,,,,,,,,,,,,,,,,,,,,,,,,,,,,,,,,,,,,,,,,,,,,,,,,,,,,,,"[""period"",""period""]",0,"[0.3344999999999345,1.5006999998091715]",106,0,106,0,1,,
,,,,,,,,,,,,5f271938dab22f02cdc90584,19,Kobieta,2022-06-11_09h37.46.102,task,2021.1.4,Win32,60.27000964,6299f149e92ead563fba08ef,62a44627a59f0960af9d34b2,,,,,,,,,,,,,,,,,,,,,,,,,,,,,,,,,,,,,,,,,,,,,,,,,,,,,,,,,,,,,,,,,,,,,,,,,,,,,,,,,,,,,,,,,,,,"[""period""]",0,[0.0497000002861796],107,0,107,0,1,,
,,,,,,,,,,,,5f271938dab22f02cdc90584,19,Kobieta,2022-06-11_09h37.46.102,task,2021.1.4,Win32,60.27000964,6299f149e92ead563fba08ef,62a44627a59f0960af9d34b2,,,,,,,,,,,,,,,,,,,,,,,,,,,,,,,,,,,,,,,,,,,,,,,,,,,,,,,,,,,,,,,,,,,,,,,,,,,,,,,,,,,,,,,,,,,,"[""comma""]",0,[0.08759999990468259],108,0,108,0,1,,
,,,,,,,,,,,,5f271938dab22f02cdc90584,19,Kobieta,2022-06-11_09h37.46.102,task,2021.1.4,Win32,60.27000964,6299f149e92ead563fba08ef,62a44627a59f0960af9d34b2,,,,,,,,,,,,,,,,,,,,,,,,,,,,,,,,,,,,,,,,,,,,,,,,,,,,,,,,,,,,,,,,,,,,,,,,,,,,,,,,,,,,,,,,,,,,"[""period""]",0,[0.28410000038149974],109,0,109,0,1,,
,,,,,,,,,,,,5f271938dab22f02cdc90584,19,Kobieta,2022-06-11_09h37.46.102,task,2021.1.4,Win32,60.27000964,6299f149e92ead563fba08ef,62a44627a59f0960af9d34b2,,,,,,,,,,,,,,,,,,,,,,,,,,,,,,,,,,,,,,,,,,,,,,,,,,,,,,,,,,,,,,,,,,,,,,,,,,,,,,,,,,,,,,,,,,,,"[""comma""]",0,[0.1019000000953838],110,0,110,0,1,,
,,,,,,,,,,,,5f271938dab22f02cdc90584,19,Kobieta,2022-06-11_09h37.46.102,task,2021.1.4,Win32,60.27000964,6299f149e92ead563fba08ef,62a44627a59f0960af9d34b2,,,,,,,,,,,,,,,,,,,,,,,,,,,,,,,,,,,,,,,,,,,,,,,,,,,,,,,,,,,,,,,,,,,,,,,,,,,,,,,,,,,,,,,,,,,,"[""comma""]",0,[0.17059999990465258],111,0,111,0,1,,
,,,,,,,,,,,,5f271938dab22f02cdc90584,19,Kobieta,2022-06-11_09h37.46.102,task,2021.1.4,Win32,60.27000964,6299f149e92ead563fba08ef,62a44627a59f0960af9d34b2,,,,,,,,,,,,,,,,,,,,,,,,,,,,,,,,,,,,,,,,,,,,,,,,,,,,,,,,,,,,,,,,,,,,,,,,,,,,,,,,,,,,,,,,,,,,"[""comma""]",0,[0.23959999990461256],112,0,112,0,1,,
,,,,,,,,,,,,5f271938dab22f02cdc90584,19,Kobieta,2022-06-11_09h37.46.102,task,2021.1.4,Win32,60.27000964,6299f149e92ead563fba08ef,62a44627a59f0960af9d34b2,,,,,,,,,,,,,,,,,,,,,,,,,,,,,,,,,,,,,,,,,,,,,,,,,,,,,,,,,,,,,,,,,,,,,,,,,,,,,,,,,,,,,,,,,,,,"[""period"",""period""]",0,"[0.0842000002861596,1.934100000381477]",113,0,113,0,1,,
,,,,,,,,,,,,5f271938dab22f02cdc90584,19,Kobieta,2022-06-11_09h37.46.102,task,2021.1.4,Win32,60.27000964,6299f149e92ead563fba08ef,62a44627a59f0960af9d34b2,,,,,,,,,,,,,,,,,,,,,,,,,,,,,,,,,,,,,,,,,,,,,,,,,,,,,,,,,,,,,,,,,,,,,,,,,,,,,,,,,,,,,,,,,,,,,0,,114,0,114,0,1,,
,,,,,,,,,,,,5f271938dab22f02cdc90584,19,Kobieta,2022-06-11_09h37.46.102,task,2021.1.4,Win32,60.27000964,6299f149e92ead563fba08ef,62a44627a59f0960af9d34b2,,,,,,,,,,,,,,,,,,,,,,,,,,,,,,,,,,,,,,,,,,,,,,,,,,,,,,,,,,,,,,,,,,,,,,,,,,,,,,,,,,,,,,,,,,,,"[""comma""]",0,[0.08430000019075123],115,0,115,0,1,,
,,,,,,,,,,,,5f271938dab22f02cdc90584,19,Kobieta,2022-06-11_09h37.46.102,task,2021.1.4,Win32,60.27000964,6299f149e92ead563fba08ef,62a44627a59f0960af9d34b2,,,,,,,,,,,,,,,,,,,,,,,,,,,,,,,,,,,,,,,,,,,,,,,,,,,,,,,,,,,,,,,,,,,,,,,,,,,,,,,,,,,,,,,,,,,,"[""period""]",0,[0.15059999990455708],116,0,116,0,1,,
,,,,,,,,,,,,5f271938dab22f02cdc90584,19,Kobieta,2022-06-11_09h37.46.102,task,2021.1.4,Win32,60.27000964,6299f149e92ead563fba08ef,62a44627a59f0960af9d34b2,,,,,,,,,,,,,,,,,,,,,,,,,,,,,,,,,,,,,,,,,,,,,,,,,,,,,,,,,,,,,,,,,,,,,,,,,,,,,,,,,,,,,,,,,,,,"[""comma""]",0,[0.034199999809288784],117,0,117,0,1,,
,,,,,,,,,,,,5f271938dab22f02cdc90584,19,Kobieta,2022-06-11_09h37.46.102,task,2021.1.4,Win32,60.27000964,6299f149e92ead563fba08ef,62a44627a59f0960af9d34b2,,,,,,,,,,,,,,,,,,,,,,,,,,,,,,,,,,,,,,,,,,,,,,,,,,,,,,,,,,,,,,,,,,,,,,,,,,,,,,,,,,,,,,,,,,,,"[""comma""]",0,[-0.016300000190653918],118,0,118,0,1,,
,,,,,,,,,,,,5f271938dab22f02cdc90584,19,Kobieta,2022-06-11_09h37.46.102,task,2021.1.4,Win32,60.27000964,6299f149e92ead563fba08ef,62a44627a59f0960af9d34b2,,,,,,,,,,,,,,,,,,,,,,,,,,,,,,,,,,,,,,,,,,,,,,,,,,,,,,,,,,,,,,,,,,,,,,,,,,,,,,,,,,,,,,,,,,,,"[""period""]",0,[0.3846999998092997],119,0,119,0,1,,
,,,,,,,,,,,,5f271938dab22f02cdc90584,19,Kobieta,2022-06-11_09h37.46.102,task,2021.1.4,Win32,60.27000964,6299f149e92ead563fba08ef,62a44627a59f0960af9d34b2,,,,,,,,,,,,,,,,,,,,,,,,,,,,,,,,,,,,,,,,,,,,,,,,,,,,,,,,,,,,,,,,,,,,,,,,,,,,,,,,,,,,,,,,,,,,,,,,,,,,space,2.4322
