key_resp_15.keys,key_resp_15.rt,key_resp_16.keys,key_resp_16.rt,key_resp_4.keys,key_resp_4.rt,next_letter.thisRepN,next_letter.thisTrialN,next_letter.thisN,next_letter.thisIndex,next_letter.ran,letter,participant,Wiek*,Płeć,date,expName,psychopyVersion,OS,frameRate,study_id,session,simple_recall,key_resp_5.keys,key_resp_5.rt,simple_recall_corr,simple_recall_corrkeys,next_level.thisRepN,next_level.thisTrialN,next_level.thisN,next_level.thisIndex,next_level.ran,key_resp_2.keys,key_resp_2.rt,digit_answer,key_resp.keys,key_resp.corr,key_resp.rt,RT_list,next_equation.thisRepN,next_equation.thisTrialN,next_equation.thisN,next_equation.thisIndex,next_equation.ran,Task,Trial,Problem,Operation_answer,processing_score,sumRT,meanRT,sumdiff,sd,RT,key_resp_3.keys,key_resp_3.rt,repeat_practice.thisRepN,repeat_practice.thisTrialN,repeat_practice.thisN,repeat_practice.thisIndex,repeat_practice.ran,key_resp_6.keys,key_resp_6.rt,key_resp_11.keys,key_resp_11.corr,key_resp_11.rt,operation_correct,repeat_if_wrong_prac.thisRepN,repeat_if_wrong_prac.thisTrialN,repeat_if_wrong_prac.thisN,repeat_if_wrong_prac.thisIndex,repeat_if_wrong_prac.ran,span_size_prac.thisRepN,span_size_prac.thisTrialN,span_size_prac.thisN,span_size_prac.thisIndex,span_size_prac.ran,complex_recall_practice,key_resp_9.keys,key_resp_9.corr,key_resp_9.rt,complex_prac_corr,span_recall_prac.thisRepN,span_recall_prac.thisTrialN,span_recall_prac.thisN,span_recall_prac.thisIndex,span_recall_prac.ran,key_resp_10.keys,key_resp_10.rt,key_resp_7.keys,key_resp_7.corr,key_resp_7.rt,repeat_if_wrong.thisRepN,repeat_if_wrong.thisTrialN,repeat_if_wrong.thisN,repeat_if_wrong.thisIndex,repeat_if_wrong.ran,span_size.thisRepN,span_size.thisTrialN,span_size.thisN,span_size.thisIndex,span_size.ran,complex_recall,key_resp_8.keys,key_resp_8.corr,key_resp_8.rt,complex_recall_corr,complex_recall_corrkeys,span_recall.thisRepN,span_recall.thisTrialN,span_recall.thisN,span_recall.thisIndex,span_recall.ran,key_resp_13.keys,key_resp_13.corr,key_resp_13.rt,random_loop.thisRepN,random_loop.thisTrialN,random_loop.thisN,random_loop.thisIndex,random_loop.ran,key_resp_12.keys,key_resp_12.rt
space,92.5712,space,18.1163,space,10.3824,0,0,0,0,1,X V Q F H G B L J M P D K C T S W R N Z,5f28fe5de9735523a46857d1,40,Kobieta,2022-06-11_09h38.59.146,task,2021.1.4,MacIntel,59.98080614,6299f149e92ead563fba08ef,62a4463403d90e3f21f4f1ee,,,,,,,,,,,,,,,,,,,,,,,,,,,,,,,,,,,,,,,,,,,,,,,,,,,,,,,,,,,,,,,,,,,,,,,,,,,,,,,,,,,,,,,,,,,,,,,,,,,,,
,,,,,,1,0,1,0,1,X V Q F H G B L J M P D K C T S W R N Z,5f28fe5de9735523a46857d1,40,Kobieta,2022-06-11_09h38.59.146,task,2021.1.4,MacIntel,59.98080614,6299f149e92ead563fba08ef,62a4463403d90e3f21f4f1ee,,,,,,,,,,,,,,,,,,,,,,,,,,,,,,,,,,,,,,,,,,,,,,,,,,,,,,,,,,,,,,,,,,,,,,,,,,,,,,,,,,,,,,,,,,,,,,,,,,,,,
,,,,,,,,,,,,5f28fe5de9735523a46857d1,40,Kobieta,2022-06-11_09h38.59.146,task,2021.1.4,MacIntel,59.98080614,6299f149e92ead563fba08ef,62a4463403d90e3f21f4f1ee,zw,"[""z"",""w""]","[2.962899999976173,3.2241000000238387,15.402100000023836]",1,ZW,0,0,0,0,1,,,,,,,,,,,,,,,,,,,,,,,,,,,,,,,,,,,,,,,,,,,,,,,,,,,,,,,,,,,,,,,,,,,,,,,,,,,,,,,,,,,,,,,,,,,
,,,,,,0,0,0,0,1,X V Q F H G B L J M P D K C T S W R N Z,5f28fe5de9735523a46857d1,40,Kobieta,2022-06-11_09h38.59.146,task,2021.1.4,MacIntel,59.98080614,6299f149e92ead563fba08ef,62a4463403d90e3f21f4f1ee,,,,,,,,,,,,,,,,,,,,,,,,,,,,,,,,,,,,,,,,,,,,,,,,,,,,,,,,,,,,,,,,,,,,,,,,,,,,,,,,,,,,,,,,,,,,,,,,,,,,,
,,,,,,1,0,1,0,1,X V Q F H G B L J M P D K C T S W R N Z,5f28fe5de9735523a46857d1,40,Kobieta,2022-06-11_09h38.59.146,task,2021.1.4,MacIntel,59.98080614,6299f149e92ead563fba08ef,62a4463403d90e3f21f4f1ee,,,,,,,,,,,,,,,,,,,,,,,,,,,,,,,,,,,,,,,,,,,,,,,,,,,,,,,,,,,,,,,,,,,,,,,,,,,,,,,,,,,,,,,,,,,,,,,,,,,,,
,,,,,,,,,,,,5f28fe5de9735523a46857d1,40,Kobieta,2022-06-11_09h38.59.146,task,2021.1.4,MacIntel,59.98080614,6299f149e92ead563fba08ef,62a4463403d90e3f21f4f1ee,ts,"[""t"",""s""]","[3.181699999928469,4.132399999976144,4.748699999928476]",1,TS,1,0,1,0,1,,,,,,,,,,,,,,,,,,,,,,,,,,,,,,,,,,,,,,,,,,,,,,,,,,,,,,,,,,,,,,,,,,,,,,,,,,,,,,,,,,,,,,,,,,,
,,,,,,0,0,0,0,1,X V Q F H G B L J M P D K C T S W R N Z,5f28fe5de9735523a46857d1,40,Kobieta,2022-06-11_09h38.59.146,task,2021.1.4,MacIntel,59.98080614,6299f149e92ead563fba08ef,62a4463403d90e3f21f4f1ee,,,,,,,,,,,,,,,,,,,,,,,,,,,,,,,,,,,,,,,,,,,,,,,,,,,,,,,,,,,,,,,,,,,,,,,,,,,,,,,,,,,,,,,,,,,,,,,,,,,,,
,,,,,,1,0,1,0,1,X V Q F H G B L J M P D K C T S W R N Z,5f28fe5de9735523a46857d1,40,Kobieta,2022-06-11_09h38.59.146,task,2021.1.4,MacIntel,59.98080614,6299f149e92ead563fba08ef,62a4463403d90e3f21f4f1ee,,,,,,,,,,,,,,,,,,,,,,,,,,,,,,,,,,,,,,,,,,,,,,,,,,,,,,,,,,,,,,,,,,,,,,,,,,,,,,,,,,,,,,,,,,,,,,,,,,,,,
,,,,,,2,0,2,0,1,X V Q F H G B L J M P D K C T S W R N Z,5f28fe5de9735523a46857d1,40,Kobieta,2022-06-11_09h38.59.146,task,2021.1.4,MacIntel,59.98080614,6299f149e92ead563fba08ef,62a4463403d90e3f21f4f1ee,,,,,,,,,,,,,,,,,,,,,,,,,,,,,,,,,,,,,,,,,,,,,,,,,,,,,,,,,,,,,,,,,,,,,,,,,,,,,,,,,,,,,,,,,,,,,,,,,,,,,
,,,,,,,,,,,,5f28fe5de9735523a46857d1,40,Kobieta,2022-06-11_09h38.59.146,task,2021.1.4,MacIntel,59.98080614,6299f149e92ead563fba08ef,62a4463403d90e3f21f4f1ee,hgj,"[""h"",""g"",""j""]","[1.403700000047678,2.1348000000715217,2.5813000000715363,3.059800000071533]",1,HGJ,2,0,2,0,1,,,,,,,,,,,,,,,,,,,,,,,,,,,,,,,,,,,,,,,,,,,,,,,,,,,,,,,,,,,,,,,,,,,,,,,,,,,,,,,,,,,,,,,,,,,
,,,,,,0,0,0,0,1,X V Q F H G B L J M P D K C T S W R N Z,5f28fe5de9735523a46857d1,40,Kobieta,2022-06-11_09h38.59.146,task,2021.1.4,MacIntel,59.98080614,6299f149e92ead563fba08ef,62a4463403d90e3f21f4f1ee,,,,,,,,,,,,,,,,,,,,,,,,,,,,,,,,,,,,,,,,,,,,,,,,,,,,,,,,,,,,,,,,,,,,,,,,,,,,,,,,,,,,,,,,,,,,,,,,,,,,,
,,,,,,1,0,1,0,1,X V Q F H G B L J M P D K C T S W R N Z,5f28fe5de9735523a46857d1,40,Kobieta,2022-06-11_09h38.59.146,task,2021.1.4,MacIntel,59.98080614,6299f149e92ead563fba08ef,62a4463403d90e3f21f4f1ee,,,,,,,,,,,,,,,,,,,,,,,,,,,,,,,,,,,,,,,,,,,,,,,,,,,,,,,,,,,,,,,,,,,,,,,,,,,,,,,,,,,,,,,,,,,,,,,,,,,,,
,,,,,,2,0,2,0,1,X V Q F H G B L J M P D K C T S W R N Z,5f28fe5de9735523a46857d1,40,Kobieta,2022-06-11_09h38.59.146,task,2021.1.4,MacIntel,59.98080614,6299f149e92ead563fba08ef,62a4463403d90e3f21f4f1ee,,,,,,,,,,,,,,,,,,,,,,,,,,,,,,,,,,,,,,,,,,,,,,,,,,,,,,,,,,,,,,,,,,,,,,,,,,,,,,,,,,,,,,,,,,,,,,,,,,,,,
,,,,,,,,,,,,5f28fe5de9735523a46857d1,40,Kobieta,2022-06-11_09h38.59.146,task,2021.1.4,MacIntel,59.98080614,6299f149e92ead563fba08ef,62a4463403d90e3f21f4f1ee,cfl,"[""c"",""f"",""l""]","[1.499699999928481,1.7792999999523147,2.178599999904634,2.6782999999523156]",1,CFL,3,0,3,0,1,,,,,,,,,,,,,,,,,,,,,,,,,,,,,,,,,,,,,,,,,,,,,,,,,,,,,,,,,,,,,,,,,,,,,,,,,,,,,,,,,,,,,,,,,,,
,,,,,,0,0,0,0,1,X V Q F H G B L J M P D K C T S W R N Z,5f28fe5de9735523a46857d1,40,Kobieta,2022-06-11_09h38.59.146,task,2021.1.4,MacIntel,59.98080614,6299f149e92ead563fba08ef,62a4463403d90e3f21f4f1ee,,,,,,,,,,,,,,,,,,,,,,,,,,,,,,,,,,,,,,,,,,,,,,,,,,,,,,,,,,,,,,,,,,,,,,,,,,,,,,,,,,,,,,,,,,,,,,,,,,,,,
,,,,,,1,0,1,0,1,X V Q F H G B L J M P D K C T S W R N Z,5f28fe5de9735523a46857d1,40,Kobieta,2022-06-11_09h38.59.146,task,2021.1.4,MacIntel,59.98080614,6299f149e92ead563fba08ef,62a4463403d90e3f21f4f1ee,,,,,,,,,,,,,,,,,,,,,,,,,,,,,,,,,,,,,,,,,,,,,,,,,,,,,,,,,,,,,,,,,,,,,,,,,,,,,,,,,,,,,,,,,,,,,,,,,,,,,
,,,,,,2,0,2,0,1,X V Q F H G B L J M P D K C T S W R N Z,5f28fe5de9735523a46857d1,40,Kobieta,2022-06-11_09h38.59.146,task,2021.1.4,MacIntel,59.98080614,6299f149e92ead563fba08ef,62a4463403d90e3f21f4f1ee,,,,,,,,,,,,,,,,,,,,,,,,,,,,,,,,,,,,,,,,,,,,,,,,,,,,,,,,,,,,,,,,,,,,,,,,,,,,,,,,,,,,,,,,,,,,,,,,,,,,,
,,,,,,3,0,3,0,1,X V Q F H G B L J M P D K C T S W R N Z,5f28fe5de9735523a46857d1,40,Kobieta,2022-06-11_09h38.59.146,task,2021.1.4,MacIntel,59.98080614,6299f149e92ead563fba08ef,62a4463403d90e3f21f4f1ee,,,,,,,,,,,,,,,,,,,,,,,,,,,,,,,,,,,,,,,,,,,,,,,,,,,,,,,,,,,,,,,,,,,,,,,,,,,,,,,,,,,,,,,,,,,,,,,,,,,,,
,,,,,,,,,,,,5f28fe5de9735523a46857d1,40,Kobieta,2022-06-11_09h38.59.146,task,2021.1.4,MacIntel,59.98080614,6299f149e92ead563fba08ef,62a4463403d90e3f21f4f1ee,vgwf,"[""v"",""g"",""w"",""f""]","[1.1496000000238666,1.6498999999761566,2.283800000071551,2.7670000000000243,3.2167000000476946]",1,VGWF,4,0,4,0,1,,,,,,,,,,,,,,,,,,,,,,,,,,,,,,,,,,,,,,,,,,,,,,,,,,,,,,,,,,,,,,,,,,,,,,,,,,,,,,,,,,,,,,,,,,,
,,,,,,0,0,0,0,1,X V Q F H G B L J M P D K C T S W R N Z,5f28fe5de9735523a46857d1,40,Kobieta,2022-06-11_09h38.59.146,task,2021.1.4,MacIntel,59.98080614,6299f149e92ead563fba08ef,62a4463403d90e3f21f4f1ee,,,,,,,,,,,,,,,,,,,,,,,,,,,,,,,,,,,,,,,,,,,,,,,,,,,,,,,,,,,,,,,,,,,,,,,,,,,,,,,,,,,,,,,,,,,,,,,,,,,,,
,,,,,,1,0,1,0,1,X V Q F H G B L J M P D K C T S W R N Z,5f28fe5de9735523a46857d1,40,Kobieta,2022-06-11_09h38.59.146,task,2021.1.4,MacIntel,59.98080614,6299f149e92ead563fba08ef,62a4463403d90e3f21f4f1ee,,,,,,,,,,,,,,,,,,,,,,,,,,,,,,,,,,,,,,,,,,,,,,,,,,,,,,,,,,,,,,,,,,,,,,,,,,,,,,,,,,,,,,,,,,,,,,,,,,,,,
,,,,,,2,0,2,0,1,X V Q F H G B L J M P D K C T S W R N Z,5f28fe5de9735523a46857d1,40,Kobieta,2022-06-11_09h38.59.146,task,2021.1.4,MacIntel,59.98080614,6299f149e92ead563fba08ef,62a4463403d90e3f21f4f1ee,,,,,,,,,,,,,,,,,,,,,,,,,,,,,,,,,,,,,,,,,,,,,,,,,,,,,,,,,,,,,,,,,,,,,,,,,,,,,,,,,,,,,,,,,,,,,,,,,,,,,
,,,,,,3,0,3,0,1,X V Q F H G B L J M P D K C T S W R N Z,5f28fe5de9735523a46857d1,40,Kobieta,2022-06-11_09h38.59.146,task,2021.1.4,MacIntel,59.98080614,6299f149e92ead563fba08ef,62a4463403d90e3f21f4f1ee,,,,,,,,,,,,,,,,,,,,,,,,,,,,,,,,,,,,,,,,,,,,,,,,,,,,,,,,,,,,,,,,,,,,,,,,,,,,,,,,,,,,,,,,,,,,,,,,,,,,,
,,,,,,,,,,,,5f28fe5de9735523a46857d1,40,Kobieta,2022-06-11_09h38.59.146,task,2021.1.4,MacIntel,59.98080614,6299f149e92ead563fba08ef,62a4463403d90e3f21f4f1ee,rkjw,"[""r"",""k"",""j"",""w""]","[0.9811999999284922,1.8476999999284942,2.148699999928482,2.7156000000238407,3.2510000000000048]",1,RKJW,5,0,5,0,1,,,,,,,,,,,,,,,,,,,,,,,,,,,,,,,,,,,,,,,,,,,,,,,,,,,,,,,,,,,,,,,,,,,,,,,,,,,,,,,,,,,,,,,,,,,
,,,,,,0,0,0,0,1,X V Q F H G B L J M P D K C T S W R N Z,5f28fe5de9735523a46857d1,40,Kobieta,2022-06-11_09h38.59.146,task,2021.1.4,MacIntel,59.98080614,6299f149e92ead563fba08ef,62a4463403d90e3f21f4f1ee,,,,,,,,,,,,,,,,,,,,,,,,,,,,,,,,,,,,,,,,,,,,,,,,,,,,,,,,,,,,,,,,,,,,,,,,,,,,,,,,,,,,,,,,,,,,,,,,,,,,,
,,,,,,1,0,1,0,1,X V Q F H G B L J M P D K C T S W R N Z,5f28fe5de9735523a46857d1,40,Kobieta,2022-06-11_09h38.59.146,task,2021.1.4,MacIntel,59.98080614,6299f149e92ead563fba08ef,62a4463403d90e3f21f4f1ee,,,,,,,,,,,,,,,,,,,,,,,,,,,,,,,,,,,,,,,,,,,,,,,,,,,,,,,,,,,,,,,,,,,,,,,,,,,,,,,,,,,,,,,,,,,,,,,,,,,,,
,,,,,,2,0,2,0,1,X V Q F H G B L J M P D K C T S W R N Z,5f28fe5de9735523a46857d1,40,Kobieta,2022-06-11_09h38.59.146,task,2021.1.4,MacIntel,59.98080614,6299f149e92ead563fba08ef,62a4463403d90e3f21f4f1ee,,,,,,,,,,,,,,,,,,,,,,,,,,,,,,,,,,,,,,,,,,,,,,,,,,,,,,,,,,,,,,,,,,,,,,,,,,,,,,,,,,,,,,,,,,,,,,,,,,,,,
,,,,,,3,0,3,0,1,X V Q F H G B L J M P D K C T S W R N Z,5f28fe5de9735523a46857d1,40,Kobieta,2022-06-11_09h38.59.146,task,2021.1.4,MacIntel,59.98080614,6299f149e92ead563fba08ef,62a4463403d90e3f21f4f1ee,,,,,,,,,,,,,,,,,,,,,,,,,,,,,,,,,,,,,,,,,,,,,,,,,,,,,,,,,,,,,,,,,,,,,,,,,,,,,,,,,,,,,,,,,,,,,,,,,,,,,
,,,,,,4,0,4,0,1,X V Q F H G B L J M P D K C T S W R N Z,5f28fe5de9735523a46857d1,40,Kobieta,2022-06-11_09h38.59.146,task,2021.1.4,MacIntel,59.98080614,6299f149e92ead563fba08ef,62a4463403d90e3f21f4f1ee,,,,,,,,,,,,,,,,,,,,,,,,,,,,,,,,,,,,,,,,,,,,,,,,,,,,,,,,,,,,,,,,,,,,,,,,,,,,,,,,,,,,,,,,,,,,,,,,,,,,,
,,,,,,,,,,,,5f28fe5de9735523a46857d1,40,Kobieta,2022-06-11_09h38.59.146,task,2021.1.4,MacIntel,59.98080614,6299f149e92ead563fba08ef,62a4463403d90e3f21f4f1ee,ctnzk,"[""c"",""t"",""n"",""z"",""k""]","[0.8811000000238494,1.2971000000238462,1.8986000000238334,2.3316000000238546,2.8191000000238375,3.2486999999284762]",1,CTNZK,6,0,6,0,1,,,,,,,,,,,,,,,,,,,,,,,,,,,,,,,,,,,,,,,,,,,,,,,,,,,,,,,,,,,,,,,,,,,,,,,,,,,,,,,,,,,,,,,,,,,
,,,,,,0,0,0,0,1,X V Q F H G B L J M P D K C T S W R N Z,5f28fe5de9735523a46857d1,40,Kobieta,2022-06-11_09h38.59.146,task,2021.1.4,MacIntel,59.98080614,6299f149e92ead563fba08ef,62a4463403d90e3f21f4f1ee,,,,,,,,,,,,,,,,,,,,,,,,,,,,,,,,,,,,,,,,,,,,,,,,,,,,,,,,,,,,,,,,,,,,,,,,,,,,,,,,,,,,,,,,,,,,,,,,,,,,,
,,,,,,1,0,1,0,1,X V Q F H G B L J M P D K C T S W R N Z,5f28fe5de9735523a46857d1,40,Kobieta,2022-06-11_09h38.59.146,task,2021.1.4,MacIntel,59.98080614,6299f149e92ead563fba08ef,62a4463403d90e3f21f4f1ee,,,,,,,,,,,,,,,,,,,,,,,,,,,,,,,,,,,,,,,,,,,,,,,,,,,,,,,,,,,,,,,,,,,,,,,,,,,,,,,,,,,,,,,,,,,,,,,,,,,,,
,,,,,,2,0,2,0,1,X V Q F H G B L J M P D K C T S W R N Z,5f28fe5de9735523a46857d1,40,Kobieta,2022-06-11_09h38.59.146,task,2021.1.4,MacIntel,59.98080614,6299f149e92ead563fba08ef,62a4463403d90e3f21f4f1ee,,,,,,,,,,,,,,,,,,,,,,,,,,,,,,,,,,,,,,,,,,,,,,,,,,,,,,,,,,,,,,,,,,,,,,,,,,,,,,,,,,,,,,,,,,,,,,,,,,,,,
,,,,,,3,0,3,0,1,X V Q F H G B L J M P D K C T S W R N Z,5f28fe5de9735523a46857d1,40,Kobieta,2022-06-11_09h38.59.146,task,2021.1.4,MacIntel,59.98080614,6299f149e92ead563fba08ef,62a4463403d90e3f21f4f1ee,,,,,,,,,,,,,,,,,,,,,,,,,,,,,,,,,,,,,,,,,,,,,,,,,,,,,,,,,,,,,,,,,,,,,,,,,,,,,,,,,,,,,,,,,,,,,,,,,,,,,
,,,,,,4,0,4,0,1,X V Q F H G B L J M P D K C T S W R N Z,5f28fe5de9735523a46857d1,40,Kobieta,2022-06-11_09h38.59.146,task,2021.1.4,MacIntel,59.98080614,6299f149e92ead563fba08ef,62a4463403d90e3f21f4f1ee,,,,,,,,,,,,,,,,,,,,,,,,,,,,,,,,,,,,,,,,,,,,,,,,,,,,,,,,,,,,,,,,,,,,,,,,,,,,,,,,,,,,,,,,,,,,,,,,,,,,,
,,,,,,,,,,,,5f28fe5de9735523a46857d1,40,Kobieta,2022-06-11_09h38.59.146,task,2021.1.4,MacIntel,59.98080614,6299f149e92ead563fba08ef,62a4463403d90e3f21f4f1ee,gmntt,"[""g"",""m"",""n"",""t"",""t""]","[2.5466000000238296,3.0353000000715156,4.747500000000002,5.365800000071516,5.581600000023855,6.19760000002384]",1,GMNTT,7,0,7,0,1,,,,,,,,,,,,,,,,,,,,,,,,,,,,,,,,,,,,,,,,,,,,,,,,,,,,,,,,,,,,,,,,,,,,,,,,,,,,,,,,,,,,,,,,,,,
,,,,,,0,0,0,0,1,X V Q F H G B L J M P D K C T S W R N Z,5f28fe5de9735523a46857d1,40,Kobieta,2022-06-11_09h38.59.146,task,2021.1.4,MacIntel,59.98080614,6299f149e92ead563fba08ef,62a4463403d90e3f21f4f1ee,,,,,,,,,,,,,,,,,,,,,,,,,,,,,,,,,,,,,,,,,,,,,,,,,,,,,,,,,,,,,,,,,,,,,,,,,,,,,,,,,,,,,,,,,,,,,,,,,,,,,
,,,,,,1,0,1,0,1,X V Q F H G B L J M P D K C T S W R N Z,5f28fe5de9735523a46857d1,40,Kobieta,2022-06-11_09h38.59.146,task,2021.1.4,MacIntel,59.98080614,6299f149e92ead563fba08ef,62a4463403d90e3f21f4f1ee,,,,,,,,,,,,,,,,,,,,,,,,,,,,,,,,,,,,,,,,,,,,,,,,,,,,,,,,,,,,,,,,,,,,,,,,,,,,,,,,,,,,,,,,,,,,,,,,,,,,,
,,,,,,2,0,2,0,1,X V Q F H G B L J M P D K C T S W R N Z,5f28fe5de9735523a46857d1,40,Kobieta,2022-06-11_09h38.59.146,task,2021.1.4,MacIntel,59.98080614,6299f149e92ead563fba08ef,62a4463403d90e3f21f4f1ee,,,,,,,,,,,,,,,,,,,,,,,,,,,,,,,,,,,,,,,,,,,,,,,,,,,,,,,,,,,,,,,,,,,,,,,,,,,,,,,,,,,,,,,,,,,,,,,,,,,,,
,,,,,,3,0,3,0,1,X V Q F H G B L J M P D K C T S W R N Z,5f28fe5de9735523a46857d1,40,Kobieta,2022-06-11_09h38.59.146,task,2021.1.4,MacIntel,59.98080614,6299f149e92ead563fba08ef,62a4463403d90e3f21f4f1ee,,,,,,,,,,,,,,,,,,,,,,,,,,,,,,,,,,,,,,,,,,,,,,,,,,,,,,,,,,,,,,,,,,,,,,,,,,,,,,,,,,,,,,,,,,,,,,,,,,,,,
,,,,,,4,0,4,0,1,X V Q F H G B L J M P D K C T S W R N Z,5f28fe5de9735523a46857d1,40,Kobieta,2022-06-11_09h38.59.146,task,2021.1.4,MacIntel,59.98080614,6299f149e92ead563fba08ef,62a4463403d90e3f21f4f1ee,,,,,,,,,,,,,,,,,,,,,,,,,,,,,,,,,,,,,,,,,,,,,,,,,,,,,,,,,,,,,,,,,,,,,,,,,,,,,,,,,,,,,,,,,,,,,,,,,,,,,
,,,,,,5,0,5,0,1,X V Q F H G B L J M P D K C T S W R N Z,5f28fe5de9735523a46857d1,40,Kobieta,2022-06-11_09h38.59.146,task,2021.1.4,MacIntel,59.98080614,6299f149e92ead563fba08ef,62a4463403d90e3f21f4f1ee,,,,,,,,,,,,,,,,,,,,,,,,,,,,,,,,,,,,,,,,,,,,,,,,,,,,,,,,,,,,,,,,,,,,,,,,,,,,,,,,,,,,,,,,,,,,,,,,,,,,,
,,,,,,,,,,,,5f28fe5de9735523a46857d1,40,Kobieta,2022-06-11_09h38.59.146,task,2021.1.4,MacIntel,59.98080614,6299f149e92ead563fba08ef,62a4463403d90e3f21f4f1ee,fmwmhv,"[""f"",""m"",""w"",""m"",""h"",""v""]","[1.167300000071549,1.8495000000000061,2.6516000000238478,5.036700000047688,5.812700000047698,7.311500000000024,7.758899999976165]",1,FMWMHV,8,0,8,0,1,,,,,,,,,,,,,,,,,,,,,,,,,,,,,,,,,,,,,,,,,,,,,,,,,,,,,,,,,,,,,,,,,,,,,,,,,,,,,,,,,,,,,,,,,,,
,,,,,,0,0,0,0,1,X V Q F H G B L J M P D K C T S W R N Z,5f28fe5de9735523a46857d1,40,Kobieta,2022-06-11_09h38.59.146,task,2021.1.4,MacIntel,59.98080614,6299f149e92ead563fba08ef,62a4463403d90e3f21f4f1ee,,,,,,,,,,,,,,,,,,,,,,,,,,,,,,,,,,,,,,,,,,,,,,,,,,,,,,,,,,,,,,,,,,,,,,,,,,,,,,,,,,,,,,,,,,,,,,,,,,,,,
,,,,,,1,0,1,0,1,X V Q F H G B L J M P D K C T S W R N Z,5f28fe5de9735523a46857d1,40,Kobieta,2022-06-11_09h38.59.146,task,2021.1.4,MacIntel,59.98080614,6299f149e92ead563fba08ef,62a4463403d90e3f21f4f1ee,,,,,,,,,,,,,,,,,,,,,,,,,,,,,,,,,,,,,,,,,,,,,,,,,,,,,,,,,,,,,,,,,,,,,,,,,,,,,,,,,,,,,,,,,,,,,,,,,,,,,
,,,,,,2,0,2,0,1,X V Q F H G B L J M P D K C T S W R N Z,5f28fe5de9735523a46857d1,40,Kobieta,2022-06-11_09h38.59.146,task,2021.1.4,MacIntel,59.98080614,6299f149e92ead563fba08ef,62a4463403d90e3f21f4f1ee,,,,,,,,,,,,,,,,,,,,,,,,,,,,,,,,,,,,,,,,,,,,,,,,,,,,,,,,,,,,,,,,,,,,,,,,,,,,,,,,,,,,,,,,,,,,,,,,,,,,,
,,,,,,3,0,3,0,1,X V Q F H G B L J M P D K C T S W R N Z,5f28fe5de9735523a46857d1,40,Kobieta,2022-06-11_09h38.59.146,task,2021.1.4,MacIntel,59.98080614,6299f149e92ead563fba08ef,62a4463403d90e3f21f4f1ee,,,,,,,,,,,,,,,,,,,,,,,,,,,,,,,,,,,,,,,,,,,,,,,,,,,,,,,,,,,,,,,,,,,,,,,,,,,,,,,,,,,,,,,,,,,,,,,,,,,,,
,,,,,,4,0,4,0,1,X V Q F H G B L J M P D K C T S W R N Z,5f28fe5de9735523a46857d1,40,Kobieta,2022-06-11_09h38.59.146,task,2021.1.4,MacIntel,59.98080614,6299f149e92ead563fba08ef,62a4463403d90e3f21f4f1ee,,,,,,,,,,,,,,,,,,,,,,,,,,,,,,,,,,,,,,,,,,,,,,,,,,,,,,,,,,,,,,,,,,,,,,,,,,,,,,,,,,,,,,,,,,,,,,,,,,,,,
,,,,,,5,0,5,0,1,X V Q F H G B L J M P D K C T S W R N Z,5f28fe5de9735523a46857d1,40,Kobieta,2022-06-11_09h38.59.146,task,2021.1.4,MacIntel,59.98080614,6299f149e92ead563fba08ef,62a4463403d90e3f21f4f1ee,,,,,,,,,,,,,,,,,,,,,,,,,,,,,,,,,,,,,,,,,,,,,,,,,,,,,,,,,,,,,,,,,,,,,,,,,,,,,,,,,,,,,,,,,,,,,,,,,,,,,
,,,,,,,,,,,,5f28fe5de9735523a46857d1,40,Kobieta,2022-06-11_09h38.59.146,task,2021.1.4,MacIntel,59.98080614,6299f149e92ead563fba08ef,62a4463403d90e3f21f4f1ee,gqhcr,"[""g"",""q"",""h"",""c"",""r""]","[2.7670999999046444,3.433199999928462,3.9987999999523254,4.616500000000002,4.984099999904629,7.433899999976148]",0,GQKCHR,9,0,9,0,1,,,,,,,,,,,,,,,,,,,,,,,,,,,,,,,,,,,,,,,,,,,,,,,,,,,,,,,,,,,,,,,,,,,,,,,,,,,,,,,,,,,,,,,,,,,
,,,,,,0,0,0,0,1,X V Q F H G B L J M P D K C T S W R N Z,5f28fe5de9735523a46857d1,40,Kobieta,2022-06-11_09h38.59.146,task,2021.1.4,MacIntel,59.98080614,6299f149e92ead563fba08ef,62a4463403d90e3f21f4f1ee,,,,,,,,,,,,,,,,,,,,,,,,,,,,,,,,,,,,,,,,,,,,,,,,,,,,,,,,,,,,,,,,,,,,,,,,,,,,,,,,,,,,,,,,,,,,,,,,,,,,,
,,,,,,1,0,1,0,1,X V Q F H G B L J M P D K C T S W R N Z,5f28fe5de9735523a46857d1,40,Kobieta,2022-06-11_09h38.59.146,task,2021.1.4,MacIntel,59.98080614,6299f149e92ead563fba08ef,62a4463403d90e3f21f4f1ee,,,,,,,,,,,,,,,,,,,,,,,,,,,,,,,,,,,,,,,,,,,,,,,,,,,,,,,,,,,,,,,,,,,,,,,,,,,,,,,,,,,,,,,,,,,,,,,,,,,,,
,,,,,,2,0,2,0,1,X V Q F H G B L J M P D K C T S W R N Z,5f28fe5de9735523a46857d1,40,Kobieta,2022-06-11_09h38.59.146,task,2021.1.4,MacIntel,59.98080614,6299f149e92ead563fba08ef,62a4463403d90e3f21f4f1ee,,,,,,,,,,,,,,,,,,,,,,,,,,,,,,,,,,,,,,,,,,,,,,,,,,,,,,,,,,,,,,,,,,,,,,,,,,,,,,,,,,,,,,,,,,,,,,,,,,,,,
,,,,,,3,0,3,0,1,X V Q F H G B L J M P D K C T S W R N Z,5f28fe5de9735523a46857d1,40,Kobieta,2022-06-11_09h38.59.146,task,2021.1.4,MacIntel,59.98080614,6299f149e92ead563fba08ef,62a4463403d90e3f21f4f1ee,,,,,,,,,,,,,,,,,,,,,,,,,,,,,,,,,,,,,,,,,,,,,,,,,,,,,,,,,,,,,,,,,,,,,,,,,,,,,,,,,,,,,,,,,,,,,,,,,,,,,
,,,,,,4,0,4,0,1,X V Q F H G B L J M P D K C T S W R N Z,5f28fe5de9735523a46857d1,40,Kobieta,2022-06-11_09h38.59.146,task,2021.1.4,MacIntel,59.98080614,6299f149e92ead563fba08ef,62a4463403d90e3f21f4f1ee,,,,,,,,,,,,,,,,,,,,,,,,,,,,,,,,,,,,,,,,,,,,,,,,,,,,,,,,,,,,,,,,,,,,,,,,,,,,,,,,,,,,,,,,,,,,,,,,,,,,,
,,,,,,5,0,5,0,1,X V Q F H G B L J M P D K C T S W R N Z,5f28fe5de9735523a46857d1,40,Kobieta,2022-06-11_09h38.59.146,task,2021.1.4,MacIntel,59.98080614,6299f149e92ead563fba08ef,62a4463403d90e3f21f4f1ee,,,,,,,,,,,,,,,,,,,,,,,,,,,,,,,,,,,,,,,,,,,,,,,,,,,,,,,,,,,,,,,,,,,,,,,,,,,,,,,,,,,,,,,,,,,,,,,,,,,,,
,,,,,,,,,,,,5f28fe5de9735523a46857d1,40,Kobieta,2022-06-11_09h38.59.146,task,2021.1.4,MacIntel,59.98080614,6299f149e92ead563fba08ef,62a4463403d90e3f21f4f1ee,xdrvz,"[""x"",""d"",""r"",""v"",""z""]","[1.1287000000476723,1.5788000000715101,2.1958000000715288,4.178600000023835,5.4483000000715265,5.912900000095362]",0,XZRDVZ,10,0,10,0,1,,,,,,,,,,,,,,,,,,,,,,,,,,,,,,,,,,,,,,,,,,,,,,,,,,,,,,,,,,,,,,,,,,,,,,,,,,,,,,,,,,,,,,,,,,,
,,,,,,0,0,0,0,1,X V Q F H G B L J M P D K C T S W R N Z,5f28fe5de9735523a46857d1,40,Kobieta,2022-06-11_09h38.59.146,task,2021.1.4,MacIntel,59.98080614,6299f149e92ead563fba08ef,62a4463403d90e3f21f4f1ee,,,,,,,,,,,,,,,,,,,,,,,,,,,,,,,,,,,,,,,,,,,,,,,,,,,,,,,,,,,,,,,,,,,,,,,,,,,,,,,,,,,,,,,,,,,,,,,,,,,,,
,,,,,,1,0,1,0,1,X V Q F H G B L J M P D K C T S W R N Z,5f28fe5de9735523a46857d1,40,Kobieta,2022-06-11_09h38.59.146,task,2021.1.4,MacIntel,59.98080614,6299f149e92ead563fba08ef,62a4463403d90e3f21f4f1ee,,,,,,,,,,,,,,,,,,,,,,,,,,,,,,,,,,,,,,,,,,,,,,,,,,,,,,,,,,,,,,,,,,,,,,,,,,,,,,,,,,,,,,,,,,,,,,,,,,,,,
,,,,,,2,0,2,0,1,X V Q F H G B L J M P D K C T S W R N Z,5f28fe5de9735523a46857d1,40,Kobieta,2022-06-11_09h38.59.146,task,2021.1.4,MacIntel,59.98080614,6299f149e92ead563fba08ef,62a4463403d90e3f21f4f1ee,,,,,,,,,,,,,,,,,,,,,,,,,,,,,,,,,,,,,,,,,,,,,,,,,,,,,,,,,,,,,,,,,,,,,,,,,,,,,,,,,,,,,,,,,,,,,,,,,,,,,
,,,,,,3,0,3,0,1,X V Q F H G B L J M P D K C T S W R N Z,5f28fe5de9735523a46857d1,40,Kobieta,2022-06-11_09h38.59.146,task,2021.1.4,MacIntel,59.98080614,6299f149e92ead563fba08ef,62a4463403d90e3f21f4f1ee,,,,,,,,,,,,,,,,,,,,,,,,,,,,,,,,,,,,,,,,,,,,,,,,,,,,,,,,,,,,,,,,,,,,,,,,,,,,,,,,,,,,,,,,,,,,,,,,,,,,,
,,,,,,4,0,4,0,1,X V Q F H G B L J M P D K C T S W R N Z,5f28fe5de9735523a46857d1,40,Kobieta,2022-06-11_09h38.59.146,task,2021.1.4,MacIntel,59.98080614,6299f149e92ead563fba08ef,62a4463403d90e3f21f4f1ee,,,,,,,,,,,,,,,,,,,,,,,,,,,,,,,,,,,,,,,,,,,,,,,,,,,,,,,,,,,,,,,,,,,,,,,,,,,,,,,,,,,,,,,,,,,,,,,,,,,,,
,,,,,,5,0,5,0,1,X V Q F H G B L J M P D K C T S W R N Z,5f28fe5de9735523a46857d1,40,Kobieta,2022-06-11_09h38.59.146,task,2021.1.4,MacIntel,59.98080614,6299f149e92ead563fba08ef,62a4463403d90e3f21f4f1ee,,,,,,,,,,,,,,,,,,,,,,,,,,,,,,,,,,,,,,,,,,,,,,,,,,,,,,,,,,,,,,,,,,,,,,,,,,,,,,,,,,,,,,,,,,,,,,,,,,,,,
,,,,,,,,,,,,5f28fe5de9735523a46857d1,40,Kobieta,2022-06-11_09h38.59.146,task,2021.1.4,MacIntel,59.98080614,6299f149e92ead563fba08ef,62a4463403d90e3f21f4f1ee,xtndqv,"[""x"",""t"",""n"",""d"",""q"",""v""]","[1.9946000000238087,6.9421000000238,7.808100000023842,10.610600000023794,12.313799999952266,13.79879999995228,14.376999999999953]",0,ZTNDQV,11,0,11,0,1,,,,,,,,,,,,,,,,,,,,,,,,,,,,,,,,,,,,,,,,,,,,,,,,,,,,,,,,,,,,,,,,,,,,,,,,,,,,,,,,,,,,,,,,,,,
,,,,,,,,,,,,5f28fe5de9735523a46857d1,40,Kobieta,2022-06-11_09h38.59.146,task,2021.1.4,MacIntel,59.98080614,6299f149e92ead563fba08ef,62a4463403d90e3f21f4f1ee,,,,,,,,,,,space,17.4473,5,"[""5""]",1,[8.605099999904667],[8.605099999904667],0,0,0,5,1,Practice,6,(4/2) + 3,5,,,,,,,,,,,,,,,,,,,,,,,,,,,,,,,,,,,,,,,,,,,,,,,,,,,,,,,,,,,,,,,,,,,,,,,,,,,
,,,,,,,,,,,,5f28fe5de9735523a46857d1,40,Kobieta,2022-06-11_09h38.59.146,task,2021.1.4,MacIntel,59.98080614,6299f149e92ead563fba08ef,62a4463403d90e3f21f4f1ee,,,,,,,,,,,,,9,"[""9""]",1,[3.1108999999761977],"[8.605099999904667,3.1108999999761977]",0,1,1,9,1,Practice,10,(20/2) - 1,9,,,,,,,,,,,,,,,,,,,,,,,,,,,,,,,,,,,,,,,,,,,,,,,,,,,,,,,,,,,,,,,,,,,,,,,,,,,
,,,,,,,,,,,,5f28fe5de9735523a46857d1,40,Kobieta,2022-06-11_09h38.59.146,task,2021.1.4,MacIntel,59.98080614,6299f149e92ead563fba08ef,62a4463403d90e3f21f4f1ee,,,,,,,,,,,,,4,"[""4""]",1,[3.721499999999992],"[8.605099999904667,3.1108999999761977,3.721499999999992]",0,2,2,4,1,Practice,5,(2x6) - 8,4,,,,,,,,,,,,,,,,,,,,,,,,,,,,,,,,,,,,,,,,,,,,,,,,,,,,,,,,,,,,,,,,,,,,,,,,,,,
,,,,,,,,,,,,5f28fe5de9735523a46857d1,40,Kobieta,2022-06-11_09h38.59.146,task,2021.1.4,MacIntel,59.98080614,6299f149e92ead563fba08ef,62a4463403d90e3f21f4f1ee,,,,,,,,,,,,,3,"[""3""]",1,[2.2658999999761704],"[8.605099999904667,3.1108999999761977,3.721499999999992,2.2658999999761704]",0,3,3,3,1,Practice,4,(8/4) + 1,3,,,,,,,,,,,,,,,,,,,,,,,,,,,,,,,,,,,,,,,,,,,,,,,,,,,,,,,,,,,,,,,,,,,,,,,,,,,
,,,,,,,,,,,,5f28fe5de9735523a46857d1,40,Kobieta,2022-06-11_09h38.59.146,task,2021.1.4,MacIntel,59.98080614,6299f149e92ead563fba08ef,62a4463403d90e3f21f4f1ee,,,,,,,,,,,,,0,"[""0""]",1,[2.510500000000036],"[8.605099999904667,3.1108999999761977,3.721499999999992,2.2658999999761704,2.510500000000036]",0,4,4,0,1,Practice,1,(3x3) -  9,0,,,,,,,,,,,,,,,,,,,,,,,,,,,,,,,,,,,,,,,,,,,,,,,,,,,,,,,,,,,,,,,,,,,,,,,,,,,
,,,,,,,,,,,,5f28fe5de9735523a46857d1,40,Kobieta,2022-06-11_09h38.59.146,task,2021.1.4,MacIntel,59.98080614,6299f149e92ead563fba08ef,62a4463403d90e3f21f4f1ee,,,,,,,,,,,,,2,"[""2""]",1,[2.528500000000008],"[8.605099999904667,3.1108999999761977,3.721499999999992,2.2658999999761704,2.510500000000036,2.528500000000008]",0,5,5,2,1,Practice,3,(4x4) - 14,2,,,,,,,,,,,,,,,,,,,,,,,,,,,,,,,,,,,,,,,,,,,,,,,,,,,,,,,,,,,,,,,,,,,,,,,,,,,
,,,,,,,,,,,,5f28fe5de9735523a46857d1,40,Kobieta,2022-06-11_09h38.59.146,task,2021.1.4,MacIntel,59.98080614,6299f149e92ead563fba08ef,62a4463403d90e3f21f4f1ee,,,,,,,,,,,,,8,"[""8""]",1,[1.7851000000238741],"[8.605099999904667,3.1108999999761977,3.721499999999992,2.2658999999761704,2.510500000000036,2.528500000000008,1.7851000000238741]",0,6,6,8,1,Practice,9,(3x3) - 1,8,,,,,,,,,,,,,,,,,,,,,,,,,,,,,,,,,,,,,,,,,,,,,,,,,,,,,,,,,,,,,,,,,,,,,,,,,,,
,,,,,,,,,,,,5f28fe5de9735523a46857d1,40,Kobieta,2022-06-11_09h38.59.146,task,2021.1.4,MacIntel,59.98080614,6299f149e92ead563fba08ef,62a4463403d90e3f21f4f1ee,,,,,,,,,,,,,6,"[""6""]",1,[3.0001999999284408],"[8.605099999904667,3.1108999999761977,3.721499999999992,2.2658999999761704,2.510500000000036,2.528500000000008,1.7851000000238741,3.0001999999284408]",0,7,7,6,1,Practice,7,(25/5) + 1,6,,,,,,,,,,,,,,,,,,,,,,,,,,,,,,,,,,,,,,,,,,,,,,,,,,,,,,,,,,,,,,,,,,,,,,,,,,,
,,,,,,,,,,,,5f28fe5de9735523a46857d1,40,Kobieta,2022-06-11_09h38.59.146,task,2021.1.4,MacIntel,59.98080614,6299f149e92ead563fba08ef,62a4463403d90e3f21f4f1ee,,,,,,,,,,,,,1,"[""1""]",1,[1.8502999999523126],"[8.605099999904667,3.1108999999761977,3.721499999999992,2.2658999999761704,2.510500000000036,2.528500000000008,1.7851000000238741,3.0001999999284408,1.8502999999523126]",0,8,8,1,1,Practice,2,(4x4) - 15,1,,,,,,,,,,,,,,,,,,,,,,,,,,,,,,,,,,,,,,,,,,,,,,,,,,,,,,,,,,,,,,,,,,,,,,,,,,,
,,,,,,,,,,,,5f28fe5de9735523a46857d1,40,Kobieta,2022-06-11_09h38.59.146,task,2021.1.4,MacIntel,59.98080614,6299f149e92ead563fba08ef,62a4463403d90e3f21f4f1ee,,,,,,,,,,,,,7,"[""7""]",1,[5.9922999999523086],"[8.605099999904667,3.1108999999761977,3.721499999999992,2.2658999999761704,2.510500000000036,2.528500000000008,1.7851000000238741,3.0001999999284408,1.8502999999523126,5.9922999999523086]",0,9,9,7,1,Practice,8,(5x5) - 18,7,,,,,,,,,,,,,,,,,,,,,,,,,,,,,,,,,,,,,,,,,,,,,,,,,,,,,,,,,,,,,,,,,,,,,,,,,,,
,,,,,,,,,,,,5f28fe5de9735523a46857d1,40,Kobieta,2022-06-11_09h38.59.146,task,2021.1.4,MacIntel,59.98080614,6299f149e92ead563fba08ef,62a4463403d90e3f21f4f1ee,,,,,,,,,,,,,,,,,,,,,,,,,,,1,35.3703,2.35802,55.7191174,1.927331789,7.330536017,space,2.7001,0,0,0,0,1,,,,,,,,,,,,,,,,,,,,,,,,,,,,,,,,,,,,,,,,,,,,,,,,,,,,,,,,,,,,,,
,,,,,,,,,,,,5f28fe5de9735523a46857d1,40,Kobieta,2022-06-11_09h38.59.146,task,2021.1.4,MacIntel,59.98080614,6299f149e92ead563fba08ef,62a4463403d90e3f21f4f1ee,,,,,,,,,,,,,5,,,,,,,,,,Practice,6,(4/2) + 3,5,,,,,,,,,,,,,,space,23.1808,"[""5""]",1,[4.415200000047662],1,0,0,0,5,1,,,,,,,,,,,,,,,,,,,,,,,,,,,,,,,,,,,,,,,,,,,,,,,,,,,
,,,,,,,,,,,X V Q F H G B L J M P D K C T S W R N Z,5f28fe5de9735523a46857d1,40,Kobieta,2022-06-11_09h38.59.146,task,2021.1.4,MacIntel,59.98080614,6299f149e92ead563fba08ef,62a4463403d90e3f21f4f1ee,,,,,,,,,,,,,,,,,,,,,,,,,,,,,,,,,,,,,,,,,,,,,,,,,,,0,0,0,0,1,,,,,,,,,,,,,,,,,,,,,,,,,,,,,,,,,,,,,,,,,,,,,,
,,,,,,,,,,,,5f28fe5de9735523a46857d1,40,Kobieta,2022-06-11_09h38.59.146,task,2021.1.4,MacIntel,59.98080614,6299f149e92ead563fba08ef,62a4463403d90e3f21f4f1ee,,,,,,,,,,,,,5,,,,,,,,,,Practice,6,(4/2) + 3,5,,,,,,,,,,,,,,,,"[""5""]",1,[2.850500000000011],1,0,0,0,5,1,,,,,,,,,,,,,,,,,,,,,,,,,,,,,,,,,,,,,,,,,,,,,,,,,,,
,,,,,,,,,,,X V Q F H G B L J M P D K C T S W R N Z,5f28fe5de9735523a46857d1,40,Kobieta,2022-06-11_09h38.59.146,task,2021.1.4,MacIntel,59.98080614,6299f149e92ead563fba08ef,62a4463403d90e3f21f4f1ee,,,,,,,,,,,,,,,,,,,,,,,,,,,,,,,,,,,,,,,,,,,,,,,,,,,1,0,1,0,1,,,,,,,,,,,,,,,,,,,,,,,,,,,,,,,,,,,,,,,,,,,,,,
,,,,,,,,,,,,5f28fe5de9735523a46857d1,40,Kobieta,2022-06-11_09h38.59.146,task,2021.1.4,MacIntel,59.98080614,6299f149e92ead563fba08ef,62a4463403d90e3f21f4f1ee,,,,,,,,,,,,,,,,,,,,,,,,,,,,,,,,,,,,,,,,,,,,,,,,,,,,,,,,zn,"[""z"",""n""]",0,"[2.4853999999761527,2.9181000000237987,3.5537999999522754]",1,0,0,0,0,1,,,,,,,,,,,,,,,,,,,,,,,,,,,,,,,,,,,,
,,,,,,,,,,,,5f28fe5de9735523a46857d1,40,Kobieta,2022-06-11_09h38.59.146,task,2021.1.4,MacIntel,59.98080614,6299f149e92ead563fba08ef,62a4463403d90e3f21f4f1ee,,,,,,,,,,,,,1,,,,,,,,,,Practice,2,(4x4) - 15,1,,,,,,,,,,,,,,,,"[""1""]",1,[2.14910000002385],1,0,0,0,1,1,,,,,,,,,,,,,,,,,,,,,,,,,,,,,,,,,,,,,,,,,,,,,,,,,,,
,,,,,,,,,,,X V Q F H G B L J M P D K C T S W R N Z,5f28fe5de9735523a46857d1,40,Kobieta,2022-06-11_09h38.59.146,task,2021.1.4,MacIntel,59.98080614,6299f149e92ead563fba08ef,62a4463403d90e3f21f4f1ee,,,,,,,,,,,,,,,,,,,,,,,,,,,,,,,,,,,,,,,,,,,,,,,,,,,0,0,0,0,1,,,,,,,,,,,,,,,,,,,,,,,,,,,,,,,,,,,,,,,,,,,,,,
,,,,,,,,,,,,5f28fe5de9735523a46857d1,40,Kobieta,2022-06-11_09h38.59.146,task,2021.1.4,MacIntel,59.98080614,6299f149e92ead563fba08ef,62a4463403d90e3f21f4f1ee,,,,,,,,,,,,,8,,,,,,,,,,Practice,9,(3x3) - 1,8,,,,,,,,,,,,,,,,"[""8""]",1,[1.9508000000715242],1,0,0,0,8,1,,,,,,,,,,,,,,,,,,,,,,,,,,,,,,,,,,,,,,,,,,,,,,,,,,,
,,,,,,,,,,,X V Q F H G B L J M P D K C T S W R N Z,5f28fe5de9735523a46857d1,40,Kobieta,2022-06-11_09h38.59.146,task,2021.1.4,MacIntel,59.98080614,6299f149e92ead563fba08ef,62a4463403d90e3f21f4f1ee,,,,,,,,,,,,,,,,,,,,,,,,,,,,,,,,,,,,,,,,,,,,,,,,,,,1,0,1,0,1,,,,,,,,,,,,,,,,,,,,,,,,,,,,,,,,,,,,,,,,,,,,,,
,,,,,,,,,,,,5f28fe5de9735523a46857d1,40,Kobieta,2022-06-11_09h38.59.146,task,2021.1.4,MacIntel,59.98080614,6299f149e92ead563fba08ef,62a4463403d90e3f21f4f1ee,,,,,,,,,,,,,,,,,,,,,,,,,,,,,,,,,,,,,,,,,,,,,,,,,,,,,,,,vc,"[""v"",""c""]",0,"[1.95120000004772,2.1343999999761536,3.6853999999761413]",1,1,0,1,0,1,,,,,,,,,,,,,,,,,,,,,,,,,,,,,,,,,,,,
,,,,,,,,,,,,5f28fe5de9735523a46857d1,40,Kobieta,2022-06-11_09h38.59.146,task,2021.1.4,MacIntel,59.98080614,6299f149e92ead563fba08ef,62a4463403d90e3f21f4f1ee,,,,,,,,,,,,,3,,,,,,,,,,Practice,4,(8/4) + 1,3,,,,,,,,,,,,,,,,"[""3""]",1,[6.616800000071521],1,0,0,0,3,1,,,,,,,,,,,,,,,,,,,,,,,,,,,,,,,,,,,,,,,,,,,,,,,,,,,
,,,,,,,,,,,X V Q F H G B L J M P D K C T S W R N Z,5f28fe5de9735523a46857d1,40,Kobieta,2022-06-11_09h38.59.146,task,2021.1.4,MacIntel,59.98080614,6299f149e92ead563fba08ef,62a4463403d90e3f21f4f1ee,,,,,,,,,,,,,,,,,,,,,,,,,,,,,,,,,,,,,,,,,,,,,,,,,,,0,0,0,0,1,,,,,,,,,,,,,,,,,,,,,,,,,,,,,,,,,,,,,,,,,,,,,,
,,,,,,,,,,,,5f28fe5de9735523a46857d1,40,Kobieta,2022-06-11_09h38.59.146,task,2021.1.4,MacIntel,59.98080614,6299f149e92ead563fba08ef,62a4463403d90e3f21f4f1ee,,,,,,,,,,,,,0,,,,,,,,,,Practice,1,(3x3) -  9,0,,,,,,,,,,,,,,,,"[""0""]",1,[2.3651000000238582],1,0,0,0,0,1,,,,,,,,,,,,,,,,,,,,,,,,,,,,,,,,,,,,,,,,,,,,,,,,,,,
,,,,,,,,,,,X V Q F H G B L J M P D K C T S W R N Z,5f28fe5de9735523a46857d1,40,Kobieta,2022-06-11_09h38.59.146,task,2021.1.4,MacIntel,59.98080614,6299f149e92ead563fba08ef,62a4463403d90e3f21f4f1ee,,,,,,,,,,,,,,,,,,,,,,,,,,,,,,,,,,,,,,,,,,,,,,,,,,,1,0,1,0,1,,,,,,,,,,,,,,,,,,,,,,,,,,,,,,,,,,,,,,,,,,,,,,
,,,,,,,,,,,,5f28fe5de9735523a46857d1,40,Kobieta,2022-06-11_09h38.59.146,task,2021.1.4,MacIntel,59.98080614,6299f149e92ead563fba08ef,62a4463403d90e3f21f4f1ee,,,,,,,,,,,,,,,,,,,,,,,,,,,,,,,,,,,,,,,,,,,,,,,,,,,,,,,,zn,"[""z"",""n""]",0,"[1.9991000000238728,2.5647999999523563,3.0648999999762054]",1,2,0,2,0,1,,,,,,,,,,,,,,,,,,,,,,,,,,,,,,,,,,,,
,,,,,,,,,,,,5f28fe5de9735523a46857d1,40,Kobieta,2022-06-11_09h38.59.146,task,2021.1.4,MacIntel,59.98080614,6299f149e92ead563fba08ef,62a4463403d90e3f21f4f1ee,,,,,,,,,,,,,6,,,,,,,,,,Task,5,(2x3) + 0,6,,,,,,,,,,,,,,,,,,,1,,,,,,,,,,,,,,,,,,,,,space,17.4455,"[""6""]",1,[3.3957999999523167],0,0,0,4,1,,,,,,,,,,,,,,,,,,,,,,,,,,
,,,,,,,,,,,X V Q F H G B L J M P D K C T S W R N Z,5f28fe5de9735523a46857d1,40,Kobieta,2022-06-11_09h38.59.146,task,2021.1.4,MacIntel,59.98080614,6299f149e92ead563fba08ef,62a4463403d90e3f21f4f1ee,,,,,,,,,,,,,,,,,,,,,,,,,,,,,,,,,,,,,,,,,,,,,,,,,,,,,,,,,,,,,,,,,,,,,,,,,,,,0,0,0,0,1,,,,,,,,,,,,,,,,,,,,,
,,,,,,,,,,,,5f28fe5de9735523a46857d1,40,Kobieta,2022-06-11_09h38.59.146,task,2021.1.4,MacIntel,59.98080614,6299f149e92ead563fba08ef,62a4463403d90e3f21f4f1ee,,,,,,,,,,,,,4,,,,,,,,,,Task,21,(10/2) - 1,4,,,,,,,,,,,,,,,,,,,1,,,,,,,,,,,,,,,,,,,,,,,"[""4""]",1,[4.066299999952321],0,0,0,20,1,,,,,,,,,,,,,,,,,,,,,,,,,,
,,,,,,,,,,,X V Q F H G B L J M P D K C T S W R N Z,5f28fe5de9735523a46857d1,40,Kobieta,2022-06-11_09h38.59.146,task,2021.1.4,MacIntel,59.98080614,6299f149e92ead563fba08ef,62a4463403d90e3f21f4f1ee,,,,,,,,,,,,,,,,,,,,,,,,,,,,,,,,,,,,,,,,,,,,,,,,,,,,,,,,,,,,,,,,,,,,,,,,,,,,1,0,1,0,1,,,,,,,,,,,,,,,,,,,,,
,,,,,,,,,,,,5f28fe5de9735523a46857d1,40,Kobieta,2022-06-11_09h38.59.146,task,2021.1.4,MacIntel,59.98080614,6299f149e92ead563fba08ef,62a4463403d90e3f21f4f1ee,,,,,,,,,,,,,,,,,,,,,,,,,,,,,,,,,,,,,,,,,,,,,,,,,,,,,,,,,,,,,,,,,,,,,,,,,,,,,,,,,zx,"[""z"",""x""]",0,"[1.6505000000000223,2.561600000023873,3.195399999976189]",1,ZX,0,0,0,0,1,,,,,,,,,,
,,,,,,,,,,,,5f28fe5de9735523a46857d1,40,Kobieta,2022-06-11_09h38.59.146,task,2021.1.4,MacIntel,59.98080614,6299f149e92ead563fba08ef,62a4463403d90e3f21f4f1ee,,,,,,,,,,,,,3,,,,,,,,,,Task,3,(2x3) - 3,3,,,,,,,,,,,,,,,,,,,1,,,,,,,,,,,,,,,,,,,,,,,"[""3""]",1,[3.7984000000953984],0,0,0,2,1,,,,,,,,,,,,,,,,,,,,,,,,,,
,,,,,,,,,,,X V Q F H G B L J M P D K C T S W R N Z,5f28fe5de9735523a46857d1,40,Kobieta,2022-06-11_09h38.59.146,task,2021.1.4,MacIntel,59.98080614,6299f149e92ead563fba08ef,62a4463403d90e3f21f4f1ee,,,,,,,,,,,,,,,,,,,,,,,,,,,,,,,,,,,,,,,,,,,,,,,,,,,,,,,,,,,,,,,,,,,,,,,,,,,,0,0,0,0,1,,,,,,,,,,,,,,,,,,,,,
,,,,,,,,,,,,5f28fe5de9735523a46857d1,40,Kobieta,2022-06-11_09h38.59.146,task,2021.1.4,MacIntel,59.98080614,6299f149e92ead563fba08ef,62a4463403d90e3f21f4f1ee,,,,,,,,,,,,,4,,,,,,,,,,Task,11,(18/3) - 2,4,,,,,,,,,,,,,,,,,,,1,,,,,,,,,,,,,,,,,,,,,,,"[""4""]",1,[7.0372999999523245],0,0,0,10,1,,,,,,,,,,,,,,,,,,,,,,,,,,
,,,,,,,,,,,X V Q F H G B L J M P D K C T S W R N Z,5f28fe5de9735523a46857d1,40,Kobieta,2022-06-11_09h38.59.146,task,2021.1.4,MacIntel,59.98080614,6299f149e92ead563fba08ef,62a4463403d90e3f21f4f1ee,,,,,,,,,,,,,,,,,,,,,,,,,,,,,,,,,,,,,,,,,,,,,,,,,,,,,,,,,,,,,,,,,,,,,,,,,,,,1,0,1,0,1,,,,,,,,,,,,,,,,,,,,,
,,,,,,,,,,,,5f28fe5de9735523a46857d1,40,Kobieta,2022-06-11_09h38.59.146,task,2021.1.4,MacIntel,59.98080614,6299f149e92ead563fba08ef,62a4463403d90e3f21f4f1ee,,,,,,,,,,,,,5,,,,,,,,,,Task,36,(8/4) + 3,5,,,,,,,,,,,,,,,,,,,1,,,,,,,,,,,,,,,,,,,,,,,"[""5""]",1,[6.675800000071547],0,0,0,35,1,,,,,,,,,,,,,,,,,,,,,,,,,,
,,,,,,,,,,,X V Q F H G B L J M P D K C T S W R N Z,5f28fe5de9735523a46857d1,40,Kobieta,2022-06-11_09h38.59.146,task,2021.1.4,MacIntel,59.98080614,6299f149e92ead563fba08ef,62a4463403d90e3f21f4f1ee,,,,,,,,,,,,,,,,,,,,,,,,,,,,,,,,,,,,,,,,,,,,,,,,,,,,,,,,,,,,,,,,,,,,,,,,,,,,2,0,2,0,1,,,,,,,,,,,,,,,,,,,,,
,,,,,,,,,,,,5f28fe5de9735523a46857d1,40,Kobieta,2022-06-11_09h38.59.146,task,2021.1.4,MacIntel,59.98080614,6299f149e92ead563fba08ef,62a4463403d90e3f21f4f1ee,,,,,,,,,,,,,,,,,,,,,,,,,,,,,,,,,,,,,,,,,,,,,,,,,,,,,,,,,,,,,,,,,,,,,,,,,,,,,,,,,jll,"[""j"",""l"",""l""]",0,"[5.01819999992847,5.66759999990461,5.850799999952301,7.168599999904643]",1,JLL,1,0,1,0,1,,,,,,,,,,
,,,,,,,,,,,,5f28fe5de9735523a46857d1,40,Kobieta,2022-06-11_09h38.59.146,task,2021.1.4,MacIntel,59.98080614,6299f149e92ead563fba08ef,62a4463403d90e3f21f4f1ee,,,,,,,,,,,,,,,,,,,,,,,Task,39,(5x3) - 7,8,,,,,,,,,,,,,,,,,,,0,,,,,,,,,,,,,,,,,,,,,,,,0,,0,0,0,38,1,,,,,,,,,,,,,,,,,,,,,,,,,,
,,,,,,,,,,,,5f28fe5de9735523a46857d1,40,Kobieta,2022-06-11_09h38.59.146,task,2021.1.4,MacIntel,59.98080614,6299f149e92ead563fba08ef,62a4463403d90e3f21f4f1ee,,,,,,,,,,,,,0,,,,,,,,,,Task,25,(10/5) - 2,0,,,,,,,,,,,,,,,,,,,1,,,,,,,,,,,,,,,,,,,,,,,"[""0""]",1,[3.28839999997615],0,1,1,24,1,,,,,,,,,,,,,,,,,,,,,,,,,,
,,,,,,,,,,,X V Q F H G B L J M P D K C T S W R N Z,5f28fe5de9735523a46857d1,40,Kobieta,2022-06-11_09h38.59.146,task,2021.1.4,MacIntel,59.98080614,6299f149e92ead563fba08ef,62a4463403d90e3f21f4f1ee,,,,,,,,,,,,,,,,,,,,,,,,,,,,,,,,,,,,,,,,,,,,,,,,,,,,,,,,,,,,,,,,,,,,,,,,,,,,0,0,0,0,1,,,,,,,,,,,,,,,,,,,,,
,,,,,,,,,,,,5f28fe5de9735523a46857d1,40,Kobieta,2022-06-11_09h38.59.146,task,2021.1.4,MacIntel,59.98080614,6299f149e92ead563fba08ef,62a4463403d90e3f21f4f1ee,,,,,,,,,,,,,4,,,,,,,,,,Task,4,(1x5) - 1,4,,,,,,,,,,,,,,,,,,,1,,,,,,,,,,,,,,,,,,,,,,,"[""4""]",1,[3.4662000000477065],0,0,0,3,1,,,,,,,,,,,,,,,,,,,,,,,,,,
,,,,,,,,,,,X V Q F H G B L J M P D K C T S W R N Z,5f28fe5de9735523a46857d1,40,Kobieta,2022-06-11_09h38.59.146,task,2021.1.4,MacIntel,59.98080614,6299f149e92ead563fba08ef,62a4463403d90e3f21f4f1ee,,,,,,,,,,,,,,,,,,,,,,,,,,,,,,,,,,,,,,,,,,,,,,,,,,,,,,,,,,,,,,,,,,,,,,,,,,,,1,0,1,0,1,,,,,,,,,,,,,,,,,,,,,
,,,,,,,,,,,,5f28fe5de9735523a46857d1,40,Kobieta,2022-06-11_09h38.59.146,task,2021.1.4,MacIntel,59.98080614,6299f149e92ead563fba08ef,62a4463403d90e3f21f4f1ee,,,,,,,,,,,,,3,,,,,,,,,,Task,35,(1x2) + 1,3,,,,,,,,,,,,,,,,,,,1,,,,,,,,,,,,,,,,,,,,,,,"[""3""]",1,[3.4003000000715247],0,0,0,34,1,,,,,,,,,,,,,,,,,,,,,,,,,,
,,,,,,,,,,,X V Q F H G B L J M P D K C T S W R N Z,5f28fe5de9735523a46857d1,40,Kobieta,2022-06-11_09h38.59.146,task,2021.1.4,MacIntel,59.98080614,6299f149e92ead563fba08ef,62a4463403d90e3f21f4f1ee,,,,,,,,,,,,,,,,,,,,,,,,,,,,,,,,,,,,,,,,,,,,,,,,,,,,,,,,,,,,,,,,,,,,,,,,,,,,2,0,2,0,1,,,,,,,,,,,,,,,,,,,,,
,,,,,,,,,,,,5f28fe5de9735523a46857d1,40,Kobieta,2022-06-11_09h38.59.146,task,2021.1.4,MacIntel,59.98080614,6299f149e92ead563fba08ef,62a4463403d90e3f21f4f1ee,,,,,,,,,,,,,8,,,,,,,,,,Task,38,(4x6) - 17,7,,,,,,,,,,,,,,,,,,,0,,,,,,,,,,,,,,,,,,,,,,,"[""8""]",0,[6.963600000023803],0,0,0,37,1,,,,,,,,,,,,,,,,,,,,,,,,,,
,,,,,,,,,,,,5f28fe5de9735523a46857d1,40,Kobieta,2022-06-11_09h38.59.146,task,2021.1.4,MacIntel,59.98080614,6299f149e92ead563fba08ef,62a4463403d90e3f21f4f1ee,,,,,,,,,,,,,0,,,,,,,,,,Task,33,(1/1) - 1,0,,,,,,,,,,,,,,,,,,,1,,,,,,,,,,,,,,,,,,,,,,,"[""0""]",1,[3.548399999976141],0,1,1,32,1,,,,,,,,,,,,,,,,,,,,,,,,,,
,,,,,,,,,,,X V Q F H G B L J M P D K C T S W R N Z,5f28fe5de9735523a46857d1,40,Kobieta,2022-06-11_09h38.59.146,task,2021.1.4,MacIntel,59.98080614,6299f149e92ead563fba08ef,62a4463403d90e3f21f4f1ee,,,,,,,,,,,,,,,,,,,,,,,,,,,,,,,,,,,,,,,,,,,,,,,,,,,,,,,,,,,,,,,,,,,,,,,,,,,,3,0,3,0,1,,,,,,,,,,,,,,,,,,,,,
,,,,,,,,,,,,5f28fe5de9735523a46857d1,40,Kobieta,2022-06-11_09h38.59.146,task,2021.1.4,MacIntel,59.98080614,6299f149e92ead563fba08ef,62a4463403d90e3f21f4f1ee,,,,,,,,,,,,,,,,,,,,,,,,,,,,,,,,,,,,,,,,,,,,,,,,,,,,,,,,,,,,,,,,,,,,,,,,,,,,,,,,,jvbs,"[""j"",""v"",""b"",""s""]",0,"[3.030799999952251,4.280200000047671,4.864399999976058,6.315999999999917,7.181700000047613]",1,JVBS,2,0,2,0,1,,,,,,,,,,
,,,,,,,,,,,,5f28fe5de9735523a46857d1,40,Kobieta,2022-06-11_09h38.59.146,task,2021.1.4,MacIntel,59.98080614,6299f149e92ead563fba08ef,62a4463403d90e3f21f4f1ee,,,,,,,,,,,,,1,,,,,,,,,,Task,1,(12/6) - 1,1,,,,,,,,,,,,,,,,,,,1,,,,,,,,,,,,,,,,,,,,,,,"[""1""]",1,[4.017900000095324],0,0,0,0,1,,,,,,,,,,,,,,,,,,,,,,,,,,
,,,,,,,,,,,X V Q F H G B L J M P D K C T S W R N Z,5f28fe5de9735523a46857d1,40,Kobieta,2022-06-11_09h38.59.146,task,2021.1.4,MacIntel,59.98080614,6299f149e92ead563fba08ef,62a4463403d90e3f21f4f1ee,,,,,,,,,,,,,,,,,,,,,,,,,,,,,,,,,,,,,,,,,,,,,,,,,,,,,,,,,,,,,,,,,,,,,,,,,,,,0,0,0,0,1,,,,,,,,,,,,,,,,,,,,,
,,,,,,,,,,,,5f28fe5de9735523a46857d1,40,Kobieta,2022-06-11_09h38.59.146,task,2021.1.4,MacIntel,59.98080614,6299f149e92ead563fba08ef,62a4463403d90e3f21f4f1ee,,,,,,,,,,,,,5,,,,,,,,,,Task,36,(8/4) + 3,5,,,,,,,,,,,,,,,,,,,1,,,,,,,,,,,,,,,,,,,,,,,"[""5""]",1,[3.565600000023892],0,0,0,35,1,,,,,,,,,,,,,,,,,,,,,,,,,,
,,,,,,,,,,,X V Q F H G B L J M P D K C T S W R N Z,5f28fe5de9735523a46857d1,40,Kobieta,2022-06-11_09h38.59.146,task,2021.1.4,MacIntel,59.98080614,6299f149e92ead563fba08ef,62a4463403d90e3f21f4f1ee,,,,,,,,,,,,,,,,,,,,,,,,,,,,,,,,,,,,,,,,,,,,,,,,,,,,,,,,,,,,,,,,,,,,,,,,,,,,1,0,1,0,1,,,,,,,,,,,,,,,,,,,,,
,,,,,,,,,,,,5f28fe5de9735523a46857d1,40,Kobieta,2022-06-11_09h38.59.146,task,2021.1.4,MacIntel,59.98080614,6299f149e92ead563fba08ef,62a4463403d90e3f21f4f1ee,,,,,,,,,,,,,8,,,,,,,,,,Task,15,(3x7) - 13,8,,,,,,,,,,,,,,,,,,,1,,,,,,,,,,,,,,,,,,,,,,,"[""8""]",1,[5.790600000023915],0,0,0,14,1,,,,,,,,,,,,,,,,,,,,,,,,,,
,,,,,,,,,,,X V Q F H G B L J M P D K C T S W R N Z,5f28fe5de9735523a46857d1,40,Kobieta,2022-06-11_09h38.59.146,task,2021.1.4,MacIntel,59.98080614,6299f149e92ead563fba08ef,62a4463403d90e3f21f4f1ee,,,,,,,,,,,,,,,,,,,,,,,,,,,,,,,,,,,,,,,,,,,,,,,,,,,,,,,,,,,,,,,,,,,,,,,,,,,,2,0,2,0,1,,,,,,,,,,,,,,,,,,,,,
,,,,,,,,,,,,5f28fe5de9735523a46857d1,40,Kobieta,2022-06-11_09h38.59.146,task,2021.1.4,MacIntel,59.98080614,6299f149e92ead563fba08ef,62a4463403d90e3f21f4f1ee,,,,,,,,,,,,,3,,,,,,,,,,Task,35,(1x2) + 1,3,,,,,,,,,,,,,,,,,,,1,,,,,,,,,,,,,,,,,,,,,,,"[""3""]",1,[3.965699999928461],0,0,0,34,1,,,,,,,,,,,,,,,,,,,,,,,,,,
,,,,,,,,,,,X V Q F H G B L J M P D K C T S W R N Z,5f28fe5de9735523a46857d1,40,Kobieta,2022-06-11_09h38.59.146,task,2021.1.4,MacIntel,59.98080614,6299f149e92ead563fba08ef,62a4463403d90e3f21f4f1ee,,,,,,,,,,,,,,,,,,,,,,,,,,,,,,,,,,,,,,,,,,,,,,,,,,,,,,,,,,,,,,,,,,,,,,,,,,,,3,0,3,0,1,,,,,,,,,,,,,,,,,,,,,
,,,,,,,,,,,,5f28fe5de9735523a46857d1,40,Kobieta,2022-06-11_09h38.59.146,task,2021.1.4,MacIntel,59.98080614,6299f149e92ead563fba08ef,62a4463403d90e3f21f4f1ee,,,,,,,,,,,,,2,,,,,,,,,,Task,10,(2x5) - 8,2,,,,,,,,,,,,,,,,,,,1,,,,,,,,,,,,,,,,,,,,,,,"[""2""]",1,[3.5674999999999955],0,0,0,9,1,,,,,,,,,,,,,,,,,,,,,,,,,,
,,,,,,,,,,,X V Q F H G B L J M P D K C T S W R N Z,5f28fe5de9735523a46857d1,40,Kobieta,2022-06-11_09h38.59.146,task,2021.1.4,MacIntel,59.98080614,6299f149e92ead563fba08ef,62a4463403d90e3f21f4f1ee,,,,,,,,,,,,,,,,,,,,,,,,,,,,,,,,,,,,,,,,,,,,,,,,,,,,,,,,,,,,,,,,,,,,,,,,,,,,4,0,4,0,1,,,,,,,,,,,,,,,,,,,,,
,,,,,,,,,,,,5f28fe5de9735523a46857d1,40,Kobieta,2022-06-11_09h38.59.146,task,2021.1.4,MacIntel,59.98080614,6299f149e92ead563fba08ef,62a4463403d90e3f21f4f1ee,,,,,,,,,,,,,,,,,,,,,,,,,,,,,,,,,,,,,,,,,,,,,,,,,,,,,,,,,,,,,,,,,,,,,,,,,,,,,,,,,qnjbv,"[""q"",""n"",""j"",""b"",""v""]",0,"[2.7308000000715538,3.3983000000714583,4.667800000071452,5.664800000071523,6.082499999999982,6.898500000000013]",1,QNJBV,3,0,3,0,1,,,,,,,,,,
,,,,,,,,,,,,5f28fe5de9735523a46857d1,40,Kobieta,2022-06-11_09h38.59.146,task,2021.1.4,MacIntel,59.98080614,6299f149e92ead563fba08ef,62a4463403d90e3f21f4f1ee,,,,,,,,,,,,,2,,,,,,,,,,Task,10,(2x5) - 8,2,,,,,,,,,,,,,,,,,,,1,,,,,,,,,,,,,,,,,,,,,,,"[""2""]",1,[2.3851999999285454],0,0,0,9,1,,,,,,,,,,,,,,,,,,,,,,,,,,
,,,,,,,,,,,X V Q F H G B L J M P D K C T S W R N Z,5f28fe5de9735523a46857d1,40,Kobieta,2022-06-11_09h38.59.146,task,2021.1.4,MacIntel,59.98080614,6299f149e92ead563fba08ef,62a4463403d90e3f21f4f1ee,,,,,,,,,,,,,,,,,,,,,,,,,,,,,,,,,,,,,,,,,,,,,,,,,,,,,,,,,,,,,,,,,,,,,,,,,,,,0,0,0,0,1,,,,,,,,,,,,,,,,,,,,,
,,,,,,,,,,,,5f28fe5de9735523a46857d1,40,Kobieta,2022-06-11_09h38.59.146,task,2021.1.4,MacIntel,59.98080614,6299f149e92ead563fba08ef,62a4463403d90e3f21f4f1ee,,,,,,,,,,,,,5,,,,,,,,,,Task,12,(4x4) - 11,5,,,,,,,,,,,,,,,,,,,1,,,,,,,,,,,,,,,,,,,,,,,"[""5""]",1,[2.967400000095381],0,0,0,11,1,,,,,,,,,,,,,,,,,,,,,,,,,,
,,,,,,,,,,,X V Q F H G B L J M P D K C T S W R N Z,5f28fe5de9735523a46857d1,40,Kobieta,2022-06-11_09h38.59.146,task,2021.1.4,MacIntel,59.98080614,6299f149e92ead563fba08ef,62a4463403d90e3f21f4f1ee,,,,,,,,,,,,,,,,,,,,,,,,,,,,,,,,,,,,,,,,,,,,,,,,,,,,,,,,,,,,,,,,,,,,,,,,,,,,1,0,1,0,1,,,,,,,,,,,,,,,,,,,,,
,,,,,,,,,,,,5f28fe5de9735523a46857d1,40,Kobieta,2022-06-11_09h38.59.146,task,2021.1.4,MacIntel,59.98080614,6299f149e92ead563fba08ef,62a4463403d90e3f21f4f1ee,,,,,,,,,,,,,4,,,,,,,,,,Task,11,(18/3) - 2,4,,,,,,,,,,,,,,,,,,,1,,,,,,,,,,,,,,,,,,,,,,,"[""4""]",1,[2.476900000095384],0,0,0,10,1,,,,,,,,,,,,,,,,,,,,,,,,,,
,,,,,,,,,,,X V Q F H G B L J M P D K C T S W R N Z,5f28fe5de9735523a46857d1,40,Kobieta,2022-06-11_09h38.59.146,task,2021.1.4,MacIntel,59.98080614,6299f149e92ead563fba08ef,62a4463403d90e3f21f4f1ee,,,,,,,,,,,,,,,,,,,,,,,,,,,,,,,,,,,,,,,,,,,,,,,,,,,,,,,,,,,,,,,,,,,,,,,,,,,,2,0,2,0,1,,,,,,,,,,,,,,,,,,,,,
,,,,,,,,,,,,5f28fe5de9735523a46857d1,40,Kobieta,2022-06-11_09h38.59.146,task,2021.1.4,MacIntel,59.98080614,6299f149e92ead563fba08ef,62a4463403d90e3f21f4f1ee,,,,,,,,,,,,,4,,,,,,,,,,Task,11,(18/3) - 2,4,,,,,,,,,,,,,,,,,,,1,,,,,,,,,,,,,,,,,,,,,,,"[""4""]",1,[2.0722999999522926],0,0,0,10,1,,,,,,,,,,,,,,,,,,,,,,,,,,
,,,,,,,,,,,X V Q F H G B L J M P D K C T S W R N Z,5f28fe5de9735523a46857d1,40,Kobieta,2022-06-11_09h38.59.146,task,2021.1.4,MacIntel,59.98080614,6299f149e92ead563fba08ef,62a4463403d90e3f21f4f1ee,,,,,,,,,,,,,,,,,,,,,,,,,,,,,,,,,,,,,,,,,,,,,,,,,,,,,,,,,,,,,,,,,,,,,,,,,,,,3,0,3,0,1,,,,,,,,,,,,,,,,,,,,,
,,,,,,,,,,,,5f28fe5de9735523a46857d1,40,Kobieta,2022-06-11_09h38.59.146,task,2021.1.4,MacIntel,59.98080614,6299f149e92ead563fba08ef,62a4463403d90e3f21f4f1ee,,,,,,,,,,,,,7,,,,,,,,,,Task,14,(2x2) + 3,7,,,,,,,,,,,,,,,,,,,1,,,,,,,,,,,,,,,,,,,,,,,"[""7""]",1,[2.3825999999046417],0,0,0,13,1,,,,,,,,,,,,,,,,,,,,,,,,,,
,,,,,,,,,,,X V Q F H G B L J M P D K C T S W R N Z,5f28fe5de9735523a46857d1,40,Kobieta,2022-06-11_09h38.59.146,task,2021.1.4,MacIntel,59.98080614,6299f149e92ead563fba08ef,62a4463403d90e3f21f4f1ee,,,,,,,,,,,,,,,,,,,,,,,,,,,,,,,,,,,,,,,,,,,,,,,,,,,,,,,,,,,,,,,,,,,,,,,,,,,,4,0,4,0,1,,,,,,,,,,,,,,,,,,,,,
,,,,,,,,,,,,5f28fe5de9735523a46857d1,40,Kobieta,2022-06-11_09h38.59.146,task,2021.1.4,MacIntel,59.98080614,6299f149e92ead563fba08ef,62a4463403d90e3f21f4f1ee,,,,,,,,,,,,,8,,,,,,,,,,Task,23,(2x3) + 2,8,,,,,,,,,,,,,,,,,,,1,,,,,,,,,,,,,,,,,,,,,,,"[""8""]",1,[2.0676000000238446],0,0,0,22,1,,,,,,,,,,,,,,,,,,,,,,,,,,
,,,,,,,,,,,X V Q F H G B L J M P D K C T S W R N Z,5f28fe5de9735523a46857d1,40,Kobieta,2022-06-11_09h38.59.146,task,2021.1.4,MacIntel,59.98080614,6299f149e92ead563fba08ef,62a4463403d90e3f21f4f1ee,,,,,,,,,,,,,,,,,,,,,,,,,,,,,,,,,,,,,,,,,,,,,,,,,,,,,,,,,,,,,,,,,,,,,,,,,,,,5,0,5,0,1,,,,,,,,,,,,,,,,,,,,,
,,,,,,,,,,,,5f28fe5de9735523a46857d1,40,Kobieta,2022-06-11_09h38.59.146,task,2021.1.4,MacIntel,59.98080614,6299f149e92ead563fba08ef,62a4463403d90e3f21f4f1ee,,,,,,,,,,,,,,,,,,,,,,,,,,,,,,,,,,,,,,,,,,,,,,,,,,,,,,,,,,,,,,,,,,,,,,,,,,,,,,,,,mrslt,"[""m"",""r"",""s"",""l"",""t""]",0,"[2.7128999999761163,3.324700000047642,6.427100000023756,7.593600000023798,8.026799999952232,9.226700000047686]",0,MRBSLT,4,0,4,0,1,,,,,,,,,,
,,,,,,,,,,,,5f28fe5de9735523a46857d1,40,Kobieta,2022-06-11_09h38.59.146,task,2021.1.4,MacIntel,59.98080614,6299f149e92ead563fba08ef,62a4463403d90e3f21f4f1ee,,,,,,,,,,,,,7,,,,,,,,,,Task,6,(12/2) + 1,7,,,,,,,,,,,,,,,,,,,1,,,,,,,,,,,,,,,,,,,,,,,"[""7""]",1,[2.5989999999999327],0,0,0,5,1,,,,,,,,,,,,,,,,,,,,,,,,,,
,,,,,,,,,,,X V Q F H G B L J M P D K C T S W R N Z,5f28fe5de9735523a46857d1,40,Kobieta,2022-06-11_09h38.59.146,task,2021.1.4,MacIntel,59.98080614,6299f149e92ead563fba08ef,62a4463403d90e3f21f4f1ee,,,,,,,,,,,,,,,,,,,,,,,,,,,,,,,,,,,,,,,,,,,,,,,,,,,,,,,,,,,,,,,,,,,,,,,,,,,,0,0,0,0,1,,,,,,,,,,,,,,,,,,,,,
,,,,,,,,,,,,5f28fe5de9735523a46857d1,40,Kobieta,2022-06-11_09h38.59.146,task,2021.1.4,MacIntel,59.98080614,6299f149e92ead563fba08ef,62a4463403d90e3f21f4f1ee,,,,,,,,,,,,,8,,,,,,,,,,Task,39,(5x3) - 7,8,,,,,,,,,,,,,,,,,,,1,,,,,,,,,,,,,,,,,,,,,,,"[""8""]",1,[3.034899999976119],0,0,0,38,1,,,,,,,,,,,,,,,,,,,,,,,,,,
,,,,,,,,,,,X V Q F H G B L J M P D K C T S W R N Z,5f28fe5de9735523a46857d1,40,Kobieta,2022-06-11_09h38.59.146,task,2021.1.4,MacIntel,59.98080614,6299f149e92ead563fba08ef,62a4463403d90e3f21f4f1ee,,,,,,,,,,,,,,,,,,,,,,,,,,,,,,,,,,,,,,,,,,,,,,,,,,,,,,,,,,,,,,,,,,,,,,,,,,,,1,0,1,0,1,,,,,,,,,,,,,,,,,,,,,
,,,,,,,,,,,,5f28fe5de9735523a46857d1,40,Kobieta,2022-06-11_09h38.59.146,task,2021.1.4,MacIntel,59.98080614,6299f149e92ead563fba08ef,62a4463403d90e3f21f4f1ee,,,,,,,,,,,,,8,,,,,,,,,,Task,23,(2x3) + 2,8,,,,,,,,,,,,,,,,,,,1,,,,,,,,,,,,,,,,,,,,,,,"[""8""]",1,[2.4022999999523336],0,0,0,22,1,,,,,,,,,,,,,,,,,,,,,,,,,,
,,,,,,,,,,,X V Q F H G B L J M P D K C T S W R N Z,5f28fe5de9735523a46857d1,40,Kobieta,2022-06-11_09h38.59.146,task,2021.1.4,MacIntel,59.98080614,6299f149e92ead563fba08ef,62a4463403d90e3f21f4f1ee,,,,,,,,,,,,,,,,,,,,,,,,,,,,,,,,,,,,,,,,,,,,,,,,,,,,,,,,,,,,,,,,,,,,,,,,,,,,2,0,2,0,1,,,,,,,,,,,,,,,,,,,,,
,,,,,,,,,,,,5f28fe5de9735523a46857d1,40,Kobieta,2022-06-11_09h38.59.146,task,2021.1.4,MacIntel,59.98080614,6299f149e92ead563fba08ef,62a4463403d90e3f21f4f1ee,,,,,,,,,,,,,3,,,,,,,,,,Task,3,(2x3) - 3,3,,,,,,,,,,,,,,,,,,,1,,,,,,,,,,,,,,,,,,,,,,,"[""3""]",1,[3.282000000000039],0,0,0,2,1,,,,,,,,,,,,,,,,,,,,,,,,,,
,,,,,,,,,,,X V Q F H G B L J M P D K C T S W R N Z,5f28fe5de9735523a46857d1,40,Kobieta,2022-06-11_09h38.59.146,task,2021.1.4,MacIntel,59.98080614,6299f149e92ead563fba08ef,62a4463403d90e3f21f4f1ee,,,,,,,,,,,,,,,,,,,,,,,,,,,,,,,,,,,,,,,,,,,,,,,,,,,,,,,,,,,,,,,,,,,,,,,,,,,,3,0,3,0,1,,,,,,,,,,,,,,,,,,,,,
,,,,,,,,,,,,5f28fe5de9735523a46857d1,40,Kobieta,2022-06-11_09h38.59.146,task,2021.1.4,MacIntel,59.98080614,6299f149e92ead563fba08ef,62a4463403d90e3f21f4f1ee,,,,,,,,,,,,,9,,,,,,,,,,Task,7,(3x7) - 12,9,,,,,,,,,,,,,,,,,,,1,,,,,,,,,,,,,,,,,,,,,,,"[""9""]",1,[4.734300000071471],0,0,0,6,1,,,,,,,,,,,,,,,,,,,,,,,,,,
,,,,,,,,,,,X V Q F H G B L J M P D K C T S W R N Z,5f28fe5de9735523a46857d1,40,Kobieta,2022-06-11_09h38.59.146,task,2021.1.4,MacIntel,59.98080614,6299f149e92ead563fba08ef,62a4463403d90e3f21f4f1ee,,,,,,,,,,,,,,,,,,,,,,,,,,,,,,,,,,,,,,,,,,,,,,,,,,,,,,,,,,,,,,,,,,,,,,,,,,,,4,0,4,0,1,,,,,,,,,,,,,,,,,,,,,
,,,,,,,,,,,,5f28fe5de9735523a46857d1,40,Kobieta,2022-06-11_09h38.59.146,task,2021.1.4,MacIntel,59.98080614,6299f149e92ead563fba08ef,62a4463403d90e3f21f4f1ee,,,,,,,,,,,,,6,,,,,,,,,,Task,5,(2x3) + 0,6,,,,,,,,,,,,,,,,,,,1,,,,,,,,,,,,,,,,,,,,,,,"[""6""]",1,[2.690499999999929],0,0,0,4,1,,,,,,,,,,,,,,,,,,,,,,,,,,
,,,,,,,,,,,X V Q F H G B L J M P D K C T S W R N Z,5f28fe5de9735523a46857d1,40,Kobieta,2022-06-11_09h38.59.146,task,2021.1.4,MacIntel,59.98080614,6299f149e92ead563fba08ef,62a4463403d90e3f21f4f1ee,,,,,,,,,,,,,,,,,,,,,,,,,,,,,,,,,,,,,,,,,,,,,,,,,,,,,,,,,,,,,,,,,,,,,,,,,,,,5,0,5,0,1,,,,,,,,,,,,,,,,,,,,,
,,,,,,,,,,,,5f28fe5de9735523a46857d1,40,Kobieta,2022-06-11_09h38.59.146,task,2021.1.4,MacIntel,59.98080614,6299f149e92ead563fba08ef,62a4463403d90e3f21f4f1ee,,,,,,,,,,,,,,,,,,,,,,,,,,,,,,,,,,,,,,,,,,,,,,,,,,,,,,,,,,,,,,,,,,,,,,,,,,,,,,,,,bwxczq,"[""b"",""w"",""x"",""c"",""z"",""q""]",0,"[2.68720000004771,3.9351000000237946,4.6222000000476555,7.221100000023853,8.251400000095373,8.852200000047674,9.83530000007147]",1,BWXCZQ,5,0,5,0,1,,,,,,,,,,
,,,,,,,,,,,,5f28fe5de9735523a46857d1,40,Kobieta,2022-06-11_09h38.59.146,task,2021.1.4,MacIntel,59.98080614,6299f149e92ead563fba08ef,62a4463403d90e3f21f4f1ee,,,,,,,,,,,,,,,,,,,,,,,Task,38,(4x6) - 17,7,,,,,,,,,,,,,,,,,,,0,,,,,,,,,,,,,,,,,,,,,,,,0,,0,0,0,37,1,,,,,,,,,,,,,,,,,,,,,,,,,,
,,,,,,,,,,,,5f28fe5de9735523a46857d1,40,Kobieta,2022-06-11_09h38.59.146,task,2021.1.4,MacIntel,59.98080614,6299f149e92ead563fba08ef,62a4463403d90e3f21f4f1ee,,,,,,,,,,,,,1,,,,,,,,,,Task,18,(16/4) - 3,1,,,,,,,,,,,,,,,,,,,1,,,,,,,,,,,,,,,,,,,,,,,"[""1""]",1,[4.596599999904697],0,1,1,17,1,,,,,,,,,,,,,,,,,,,,,,,,,,
,,,,,,,,,,,X V Q F H G B L J M P D K C T S W R N Z,5f28fe5de9735523a46857d1,40,Kobieta,2022-06-11_09h38.59.146,task,2021.1.4,MacIntel,59.98080614,6299f149e92ead563fba08ef,62a4463403d90e3f21f4f1ee,,,,,,,,,,,,,,,,,,,,,,,,,,,,,,,,,,,,,,,,,,,,,,,,,,,,,,,,,,,,,,,,,,,,,,,,,,,,0,0,0,0,1,,,,,,,,,,,,,,,,,,,,,
,,,,,,,,,,,,5f28fe5de9735523a46857d1,40,Kobieta,2022-06-11_09h38.59.146,task,2021.1.4,MacIntel,59.98080614,6299f149e92ead563fba08ef,62a4463403d90e3f21f4f1ee,,,,,,,,,,,,,3,,,,,,,,,,Task,35,(1x2) + 1,3,,,,,,,,,,,,,,,,,,,1,,,,,,,,,,,,,,,,,,,,,,,"[""3""]",1,[2.481999999999971],0,0,0,34,1,,,,,,,,,,,,,,,,,,,,,,,,,,
,,,,,,,,,,,X V Q F H G B L J M P D K C T S W R N Z,5f28fe5de9735523a46857d1,40,Kobieta,2022-06-11_09h38.59.146,task,2021.1.4,MacIntel,59.98080614,6299f149e92ead563fba08ef,62a4463403d90e3f21f4f1ee,,,,,,,,,,,,,,,,,,,,,,,,,,,,,,,,,,,,,,,,,,,,,,,,,,,,,,,,,,,,,,,,,,,,,,,,,,,,1,0,1,0,1,,,,,,,,,,,,,,,,,,,,,
,,,,,,,,,,,,5f28fe5de9735523a46857d1,40,Kobieta,2022-06-11_09h38.59.146,task,2021.1.4,MacIntel,59.98080614,6299f149e92ead563fba08ef,62a4463403d90e3f21f4f1ee,,,,,,,,,,,,,8,,,,,,,,,,Task,23,(2x3) + 2,8,,,,,,,,,,,,,,,,,,,1,,,,,,,,,,,,,,,,,,,,,,,"[""8""]",1,[2.2830000000000155],0,0,0,22,1,,,,,,,,,,,,,,,,,,,,,,,,,,
,,,,,,,,,,,X V Q F H G B L J M P D K C T S W R N Z,5f28fe5de9735523a46857d1,40,Kobieta,2022-06-11_09h38.59.146,task,2021.1.4,MacIntel,59.98080614,6299f149e92ead563fba08ef,62a4463403d90e3f21f4f1ee,,,,,,,,,,,,,,,,,,,,,,,,,,,,,,,,,,,,,,,,,,,,,,,,,,,,,,,,,,,,,,,,,,,,,,,,,,,,2,0,2,0,1,,,,,,,,,,,,,,,,,,,,,
,,,,,,,,,,,,5f28fe5de9735523a46857d1,40,Kobieta,2022-06-11_09h38.59.146,task,2021.1.4,MacIntel,59.98080614,6299f149e92ead563fba08ef,62a4463403d90e3f21f4f1ee,,,,,,,,,,,,,4,,,,,,,,,,Task,11,(18/3) - 2,4,,,,,,,,,,,,,,,,,,,1,,,,,,,,,,,,,,,,,,,,,,,"[""4""]",1,[2.5615000000000236],0,0,0,10,1,,,,,,,,,,,,,,,,,,,,,,,,,,
,,,,,,,,,,,X V Q F H G B L J M P D K C T S W R N Z,5f28fe5de9735523a46857d1,40,Kobieta,2022-06-11_09h38.59.146,task,2021.1.4,MacIntel,59.98080614,6299f149e92ead563fba08ef,62a4463403d90e3f21f4f1ee,,,,,,,,,,,,,,,,,,,,,,,,,,,,,,,,,,,,,,,,,,,,,,,,,,,,,,,,,,,,,,,,,,,,,,,,,,,,3,0,3,0,1,,,,,,,,,,,,,,,,,,,,,
,,,,,,,,,,,,5f28fe5de9735523a46857d1,40,Kobieta,2022-06-11_09h38.59.146,task,2021.1.4,MacIntel,59.98080614,6299f149e92ead563fba08ef,62a4463403d90e3f21f4f1ee,,,,,,,,,,,,,5,,,,,,,,,,Task,29,(3x8) - 19 ,5,,,,,,,,,,,,,,,,,,,1,,,,,,,,,,,,,,,,,,,,,,,"[""5""]",1,[4.301499999999919],0,0,0,28,1,,,,,,,,,,,,,,,,,,,,,,,,,,
,,,,,,,,,,,X V Q F H G B L J M P D K C T S W R N Z,5f28fe5de9735523a46857d1,40,Kobieta,2022-06-11_09h38.59.146,task,2021.1.4,MacIntel,59.98080614,6299f149e92ead563fba08ef,62a4463403d90e3f21f4f1ee,,,,,,,,,,,,,,,,,,,,,,,,,,,,,,,,,,,,,,,,,,,,,,,,,,,,,,,,,,,,,,,,,,,,,,,,,,,,4,0,4,0,1,,,,,,,,,,,,,,,,,,,,,
,,,,,,,,,,,,5f28fe5de9735523a46857d1,40,Kobieta,2022-06-11_09h38.59.146,task,2021.1.4,MacIntel,59.98080614,6299f149e92ead563fba08ef,62a4463403d90e3f21f4f1ee,,,,,,,,,,,,,5,,,,,,,,,,Task,12,(4x4) - 11,5,,,,,,,,,,,,,,,,,,,1,,,,,,,,,,,,,,,,,,,,,,,"[""5""]",1,[4.0695999999046535],0,0,0,11,1,,,,,,,,,,,,,,,,,,,,,,,,,,
,,,,,,,,,,,X V Q F H G B L J M P D K C T S W R N Z,5f28fe5de9735523a46857d1,40,Kobieta,2022-06-11_09h38.59.146,task,2021.1.4,MacIntel,59.98080614,6299f149e92ead563fba08ef,62a4463403d90e3f21f4f1ee,,,,,,,,,,,,,,,,,,,,,,,,,,,,,,,,,,,,,,,,,,,,,,,,,,,,,,,,,,,,,,,,,,,,,,,,,,,,5,0,5,0,1,,,,,,,,,,,,,,,,,,,,,
,,,,,,,,,,,,5f28fe5de9735523a46857d1,40,Kobieta,2022-06-11_09h38.59.146,task,2021.1.4,MacIntel,59.98080614,6299f149e92ead563fba08ef,62a4463403d90e3f21f4f1ee,,,,,,,,,,,,,2,,,,,,,,,,Task,19,(6/2) - 1,2,,,,,,,,,,,,,,,,,,,1,,,,,,,,,,,,,,,,,,,,,,,"[""2""]",1,[3.434100000023818],0,0,0,18,1,,,,,,,,,,,,,,,,,,,,,,,,,,
,,,,,,,,,,,X V Q F H G B L J M P D K C T S W R N Z,5f28fe5de9735523a46857d1,40,Kobieta,2022-06-11_09h38.59.146,task,2021.1.4,MacIntel,59.98080614,6299f149e92ead563fba08ef,62a4463403d90e3f21f4f1ee,,,,,,,,,,,,,,,,,,,,,,,,,,,,,,,,,,,,,,,,,,,,,,,,,,,,,,,,,,,,,,,,,,,,,,,,,,,,6,0,6,0,1,,,,,,,,,,,,,,,,,,,,,
,,,,,,,,,,,,5f28fe5de9735523a46857d1,40,Kobieta,2022-06-11_09h38.59.146,task,2021.1.4,MacIntel,59.98080614,6299f149e92ead563fba08ef,62a4463403d90e3f21f4f1ee,,,,,,,,,,,,,,,,,,,,,,,,,,,,,,,,,,,,,,,,,,,,,,,,,,,,,,,,,,,,,,,,,,,,,,,,,,,,,,,,,bfkbjk,"[""b"",""f"",""k"",""b"",""j"",""k""]",0,"[2.9857000000477,5.101999999999975,6.754399999976158,8.019000000000005,8.884700000047701,9.657000000000039,11.10320000004765]",0,BFRBJKT,6,0,6,0,1,,,,,,,,,,
,,,,,,,,,,,,5f28fe5de9735523a46857d1,40,Kobieta,2022-06-11_09h38.59.146,task,2021.1.4,MacIntel,59.98080614,6299f149e92ead563fba08ef,62a4463403d90e3f21f4f1ee,,,,,,,,,,,,,2,,,,,,,,,,Task,19,(6/2) - 1,2,,,,,,,,,,,,,,,,,,,1,,,,,,,,,,,,,,,,,,,,,,,"[""2""]",1,[3.4249999999999545],0,0,0,18,1,,,,,,,,,,,,,,,,,,,,,,,,,,
,,,,,,,,,,,X V Q F H G B L J M P D K C T S W R N Z,5f28fe5de9735523a46857d1,40,Kobieta,2022-06-11_09h38.59.146,task,2021.1.4,MacIntel,59.98080614,6299f149e92ead563fba08ef,62a4463403d90e3f21f4f1ee,,,,,,,,,,,,,,,,,,,,,,,,,,,,,,,,,,,,,,,,,,,,,,,,,,,,,,,,,,,,,,,,,,,,,,,,,,,,0,0,0,0,1,,,,,,,,,,,,,,,,,,,,,
,,,,,,,,,,,,5f28fe5de9735523a46857d1,40,Kobieta,2022-06-11_09h38.59.146,task,2021.1.4,MacIntel,59.98080614,6299f149e92ead563fba08ef,62a4463403d90e3f21f4f1ee,,,,,,,,,,,,,8,,,,,,,,,,Task,39,(5x3) - 7,8,,,,,,,,,,,,,,,,,,,1,,,,,,,,,,,,,,,,,,,,,,,"[""8""]",1,[2.978300000071499],0,0,0,38,1,,,,,,,,,,,,,,,,,,,,,,,,,,
,,,,,,,,,,,X V Q F H G B L J M P D K C T S W R N Z,5f28fe5de9735523a46857d1,40,Kobieta,2022-06-11_09h38.59.146,task,2021.1.4,MacIntel,59.98080614,6299f149e92ead563fba08ef,62a4463403d90e3f21f4f1ee,,,,,,,,,,,,,,,,,,,,,,,,,,,,,,,,,,,,,,,,,,,,,,,,,,,,,,,,,,,,,,,,,,,,,,,,,,,,1,0,1,0,1,,,,,,,,,,,,,,,,,,,,,
,,,,,,,,,,,,5f28fe5de9735523a46857d1,40,Kobieta,2022-06-11_09h38.59.146,task,2021.1.4,MacIntel,59.98080614,6299f149e92ead563fba08ef,62a4463403d90e3f21f4f1ee,,,,,,,,,,,,,8,,,,,,,,,,Task,39,(5x3) - 7,8,,,,,,,,,,,,,,,,,,,1,,,,,,,,,,,,,,,,,,,,,,,"[""8""]",1,[2.8008999999761954],0,0,0,38,1,,,,,,,,,,,,,,,,,,,,,,,,,,
,,,,,,,,,,,X V Q F H G B L J M P D K C T S W R N Z,5f28fe5de9735523a46857d1,40,Kobieta,2022-06-11_09h38.59.146,task,2021.1.4,MacIntel,59.98080614,6299f149e92ead563fba08ef,62a4463403d90e3f21f4f1ee,,,,,,,,,,,,,,,,,,,,,,,,,,,,,,,,,,,,,,,,,,,,,,,,,,,,,,,,,,,,,,,,,,,,,,,,,,,,2,0,2,0,1,,,,,,,,,,,,,,,,,,,,,
,,,,,,,,,,,,5f28fe5de9735523a46857d1,40,Kobieta,2022-06-11_09h38.59.146,task,2021.1.4,MacIntel,59.98080614,6299f149e92ead563fba08ef,62a4463403d90e3f21f4f1ee,,,,,,,,,,,,,3,,,,,,,,,,Task,20,(18/9) + 1,3,,,,,,,,,,,,,,,,,,,1,,,,,,,,,,,,,,,,,,,,,,,"[""3""]",1,[4.907799999952317],0,0,0,19,1,,,,,,,,,,,,,,,,,,,,,,,,,,
,,,,,,,,,,,X V Q F H G B L J M P D K C T S W R N Z,5f28fe5de9735523a46857d1,40,Kobieta,2022-06-11_09h38.59.146,task,2021.1.4,MacIntel,59.98080614,6299f149e92ead563fba08ef,62a4463403d90e3f21f4f1ee,,,,,,,,,,,,,,,,,,,,,,,,,,,,,,,,,,,,,,,,,,,,,,,,,,,,,,,,,,,,,,,,,,,,,,,,,,,,3,0,3,0,1,,,,,,,,,,,,,,,,,,,,,
,,,,,,,,,,,,5f28fe5de9735523a46857d1,40,Kobieta,2022-06-11_09h38.59.146,task,2021.1.4,MacIntel,59.98080614,6299f149e92ead563fba08ef,62a4463403d90e3f21f4f1ee,,,,,,,,,,,,,4,,,,,,,,,,Task,11,(18/3) - 2,4,,,,,,,,,,,,,,,,,,,1,,,,,,,,,,,,,,,,,,,,,,,"[""4""]",1,[2.864100000023768],0,0,0,10,1,,,,,,,,,,,,,,,,,,,,,,,,,,
,,,,,,,,,,,X V Q F H G B L J M P D K C T S W R N Z,5f28fe5de9735523a46857d1,40,Kobieta,2022-06-11_09h38.59.146,task,2021.1.4,MacIntel,59.98080614,6299f149e92ead563fba08ef,62a4463403d90e3f21f4f1ee,,,,,,,,,,,,,,,,,,,,,,,,,,,,,,,,,,,,,,,,,,,,,,,,,,,,,,,,,,,,,,,,,,,,,,,,,,,,4,0,4,0,1,,,,,,,,,,,,,,,,,,,,,
,,,,,,,,,,,,5f28fe5de9735523a46857d1,40,Kobieta,2022-06-11_09h38.59.146,task,2021.1.4,MacIntel,59.98080614,6299f149e92ead563fba08ef,62a4463403d90e3f21f4f1ee,,,,,,,,,,,,,5,,,,,,,,,,Task,12,(4x4) - 11,5,,,,,,,,,,,,,,,,,,,1,,,,,,,,,,,,,,,,,,,,,,,"[""5""]",1,[2.5143999999762627],0,0,0,11,1,,,,,,,,,,,,,,,,,,,,,,,,,,
,,,,,,,,,,,X V Q F H G B L J M P D K C T S W R N Z,5f28fe5de9735523a46857d1,40,Kobieta,2022-06-11_09h38.59.146,task,2021.1.4,MacIntel,59.98080614,6299f149e92ead563fba08ef,62a4463403d90e3f21f4f1ee,,,,,,,,,,,,,,,,,,,,,,,,,,,,,,,,,,,,,,,,,,,,,,,,,,,,,,,,,,,,,,,,,,,,,,,,,,,,5,0,5,0,1,,,,,,,,,,,,,,,,,,,,,
,,,,,,,,,,,,5f28fe5de9735523a46857d1,40,Kobieta,2022-06-11_09h38.59.146,task,2021.1.4,MacIntel,59.98080614,6299f149e92ead563fba08ef,62a4463403d90e3f21f4f1ee,,,,,,,,,,,,,4,,,,,,,,,,Task,21,(10/2) - 1,4,,,,,,,,,,,,,,,,,,,1,,,,,,,,,,,,,,,,,,,,,,,"[""4""]",1,[2.1998999999760827],0,0,0,20,1,,,,,,,,,,,,,,,,,,,,,,,,,,
,,,,,,,,,,,X V Q F H G B L J M P D K C T S W R N Z,5f28fe5de9735523a46857d1,40,Kobieta,2022-06-11_09h38.59.146,task,2021.1.4,MacIntel,59.98080614,6299f149e92ead563fba08ef,62a4463403d90e3f21f4f1ee,,,,,,,,,,,,,,,,,,,,,,,,,,,,,,,,,,,,,,,,,,,,,,,,,,,,,,,,,,,,,,,,,,,,,,,,,,,,6,0,6,0,1,,,,,,,,,,,,,,,,,,,,,
,,,,,,,,,,,,5f28fe5de9735523a46857d1,40,Kobieta,2022-06-11_09h38.59.146,task,2021.1.4,MacIntel,59.98080614,6299f149e92ead563fba08ef,62a4463403d90e3f21f4f1ee,,,,,,,,,,,,,,,,,,,,,,,,,,,,,,,,,,,,,,,,,,,,,,,,,,,,,,,,,,,,,,,,,,,,,,,,,,,,,,,,,dvndfvc,"[""d"",""v"",""n"",""d"",""f"",""v"",""c""]",0,"[2.998800000071583,4.6159999999999854,5.987300000071514,6.923600000023839,8.617600000023913,10.18360000002383,12.00630000007152,12.801400000095327]",1,DVNDFVC,7,0,7,0,1,,,,,,,,,,
,,,,,,,,,,,,5f28fe5de9735523a46857d1,40,Kobieta,2022-06-11_09h38.59.146,task,2021.1.4,MacIntel,59.98080614,6299f149e92ead563fba08ef,62a4463403d90e3f21f4f1ee,,,,,,,,,,,,,0,,,,,,,,,,Task,8,(1x5) - 5,0,,,,,,,,,,,,,,,,,,,1,,,,,,,,,,,,,,,,,,,,,,,"[""0""]",1,[2.1866999999284644],0,0,0,7,1,,,,,,,,,,,,,,,,,,,,,,,,,,
,,,,,,,,,,,X V Q F H G B L J M P D K C T S W R N Z,5f28fe5de9735523a46857d1,40,Kobieta,2022-06-11_09h38.59.146,task,2021.1.4,MacIntel,59.98080614,6299f149e92ead563fba08ef,62a4463403d90e3f21f4f1ee,,,,,,,,,,,,,,,,,,,,,,,,,,,,,,,,,,,,,,,,,,,,,,,,,,,,,,,,,,,,,,,,,,,,,,,,,,,,0,0,0,0,1,,,,,,,,,,,,,,,,,,,,,
,,,,,,,,,,,,5f28fe5de9735523a46857d1,40,Kobieta,2022-06-11_09h38.59.146,task,2021.1.4,MacIntel,59.98080614,6299f149e92ead563fba08ef,62a4463403d90e3f21f4f1ee,,,,,,,,,,,,,1,,,,,,,,,,Task,37,(3/3) + 5,6,,,,,,,,,,,,,,,,,,,0,,,,,,,,,,,,,,,,,,,,,,,"[""1""]",0,[7.277000000000044],0,0,0,36,1,,,,,,,,,,,,,,,,,,,,,,,,,,
,,,,,,,,,,,,5f28fe5de9735523a46857d1,40,Kobieta,2022-06-11_09h38.59.146,task,2021.1.4,MacIntel,59.98080614,6299f149e92ead563fba08ef,62a4463403d90e3f21f4f1ee,,,,,,,,,,,,,0,,,,,,,,,,Task,17,(2x3) - 6,0,,,,,,,,,,,,,,,,,,,1,,,,,,,,,,,,,,,,,,,,,,,"[""0""]",1,[4.499399999976163],0,1,1,16,1,,,,,,,,,,,,,,,,,,,,,,,,,,
,,,,,,,,,,,X V Q F H G B L J M P D K C T S W R N Z,5f28fe5de9735523a46857d1,40,Kobieta,2022-06-11_09h38.59.146,task,2021.1.4,MacIntel,59.98080614,6299f149e92ead563fba08ef,62a4463403d90e3f21f4f1ee,,,,,,,,,,,,,,,,,,,,,,,,,,,,,,,,,,,,,,,,,,,,,,,,,,,,,,,,,,,,,,,,,,,,,,,,,,,,1,0,1,0,1,,,,,,,,,,,,,,,,,,,,,
,,,,,,,,,,,,5f28fe5de9735523a46857d1,40,Kobieta,2022-06-11_09h38.59.146,task,2021.1.4,MacIntel,59.98080614,6299f149e92ead563fba08ef,62a4463403d90e3f21f4f1ee,,,,,,,,,,,,,6,,,,,,,,,,Task,30,(6/3) + 4 ,6,,,,,,,,,,,,,,,,,,,1,,,,,,,,,,,,,,,,,,,,,,,"[""6""]",1,[4.561899999976163],0,0,0,29,1,,,,,,,,,,,,,,,,,,,,,,,,,,
,,,,,,,,,,,X V Q F H G B L J M P D K C T S W R N Z,5f28fe5de9735523a46857d1,40,Kobieta,2022-06-11_09h38.59.146,task,2021.1.4,MacIntel,59.98080614,6299f149e92ead563fba08ef,62a4463403d90e3f21f4f1ee,,,,,,,,,,,,,,,,,,,,,,,,,,,,,,,,,,,,,,,,,,,,,,,,,,,,,,,,,,,,,,,,,,,,,,,,,,,,2,0,2,0,1,,,,,,,,,,,,,,,,,,,,,
,,,,,,,,,,,,5f28fe5de9735523a46857d1,40,Kobieta,2022-06-11_09h38.59.146,task,2021.1.4,MacIntel,59.98080614,6299f149e92ead563fba08ef,62a4463403d90e3f21f4f1ee,,,,,,,,,,,,,6,,,,,,,,,,Task,5,(2x3) + 0,6,,,,,,,,,,,,,,,,,,,1,,,,,,,,,,,,,,,,,,,,,,,"[""6""]",1,[3.0810000000000173],0,0,0,4,1,,,,,,,,,,,,,,,,,,,,,,,,,,
,,,,,,,,,,,X V Q F H G B L J M P D K C T S W R N Z,5f28fe5de9735523a46857d1,40,Kobieta,2022-06-11_09h38.59.146,task,2021.1.4,MacIntel,59.98080614,6299f149e92ead563fba08ef,62a4463403d90e3f21f4f1ee,,,,,,,,,,,,,,,,,,,,,,,,,,,,,,,,,,,,,,,,,,,,,,,,,,,,,,,,,,,,,,,,,,,,,,,,,,,,3,0,3,0,1,,,,,,,,,,,,,,,,,,,,,
,,,,,,,,,,,,5f28fe5de9735523a46857d1,40,Kobieta,2022-06-11_09h38.59.146,task,2021.1.4,MacIntel,59.98080614,6299f149e92ead563fba08ef,62a4463403d90e3f21f4f1ee,,,,,,,,,,,,,8,,,,,,,,,,Task,23,(2x3) + 2,8,,,,,,,,,,,,,,,,,,,1,,,,,,,,,,,,,,,,,,,,,,,"[""8""]",1,[3.1875],0,0,0,22,1,,,,,,,,,,,,,,,,,,,,,,,,,,
,,,,,,,,,,,X V Q F H G B L J M P D K C T S W R N Z,5f28fe5de9735523a46857d1,40,Kobieta,2022-06-11_09h38.59.146,task,2021.1.4,MacIntel,59.98080614,6299f149e92ead563fba08ef,62a4463403d90e3f21f4f1ee,,,,,,,,,,,,,,,,,,,,,,,,,,,,,,,,,,,,,,,,,,,,,,,,,,,,,,,,,,,,,,,,,,,,,,,,,,,,4,0,4,0,1,,,,,,,,,,,,,,,,,,,,,
,,,,,,,,,,,,5f28fe5de9735523a46857d1,40,Kobieta,2022-06-11_09h38.59.146,task,2021.1.4,MacIntel,59.98080614,6299f149e92ead563fba08ef,62a4463403d90e3f21f4f1ee,,,,,,,,,,,,,5,,,,,,,,,,Task,36,(8/4) + 3,5,,,,,,,,,,,,,,,,,,,1,,,,,,,,,,,,,,,,,,,,,,,"[""5""]",1,[2.5997999999523245],0,0,0,35,1,,,,,,,,,,,,,,,,,,,,,,,,,,
,,,,,,,,,,,X V Q F H G B L J M P D K C T S W R N Z,5f28fe5de9735523a46857d1,40,Kobieta,2022-06-11_09h38.59.146,task,2021.1.4,MacIntel,59.98080614,6299f149e92ead563fba08ef,62a4463403d90e3f21f4f1ee,,,,,,,,,,,,,,,,,,,,,,,,,,,,,,,,,,,,,,,,,,,,,,,,,,,,,,,,,,,,,,,,,,,,,,,,,,,,5,0,5,0,1,,,,,,,,,,,,,,,,,,,,,
,,,,,,,,,,,,5f28fe5de9735523a46857d1,40,Kobieta,2022-06-11_09h38.59.146,task,2021.1.4,MacIntel,59.98080614,6299f149e92ead563fba08ef,62a4463403d90e3f21f4f1ee,,,,,,,,,,,,,3,,,,,,,,,,Task,20,(18/9) + 1,3,,,,,,,,,,,,,,,,,,,1,,,,,,,,,,,,,,,,,,,,,,,"[""3""]",1,[3.33010000002389],0,0,0,19,1,,,,,,,,,,,,,,,,,,,,,,,,,,
,,,,,,,,,,,X V Q F H G B L J M P D K C T S W R N Z,5f28fe5de9735523a46857d1,40,Kobieta,2022-06-11_09h38.59.146,task,2021.1.4,MacIntel,59.98080614,6299f149e92ead563fba08ef,62a4463403d90e3f21f4f1ee,,,,,,,,,,,,,,,,,,,,,,,,,,,,,,,,,,,,,,,,,,,,,,,,,,,,,,,,,,,,,,,,,,,,,,,,,,,,6,0,6,0,1,,,,,,,,,,,,,,,,,,,,,
,,,,,,,,,,,,5f28fe5de9735523a46857d1,40,Kobieta,2022-06-11_09h38.59.146,task,2021.1.4,MacIntel,59.98080614,6299f149e92ead563fba08ef,62a4463403d90e3f21f4f1ee,,,,,,,,,,,,,5,,,,,,,,,,Task,36,(8/4) + 3,5,,,,,,,,,,,,,,,,,,,1,,,,,,,,,,,,,,,,,,,,,,,"[""5""]",1,[3.5816000000238546],0,0,0,35,1,,,,,,,,,,,,,,,,,,,,,,,,,,
,,,,,,,,,,,X V Q F H G B L J M P D K C T S W R N Z,5f28fe5de9735523a46857d1,40,Kobieta,2022-06-11_09h38.59.146,task,2021.1.4,MacIntel,59.98080614,6299f149e92ead563fba08ef,62a4463403d90e3f21f4f1ee,,,,,,,,,,,,,,,,,,,,,,,,,,,,,,,,,,,,,,,,,,,,,,,,,,,,,,,,,,,,,,,,,,,,,,,,,,,,7,0,7,0,1,,,,,,,,,,,,,,,,,,,,,
,,,,,,,,,,,,5f28fe5de9735523a46857d1,40,Kobieta,2022-06-11_09h38.59.146,task,2021.1.4,MacIntel,59.98080614,6299f149e92ead563fba08ef,62a4463403d90e3f21f4f1ee,,,,,,,,,,,,,,,,,,,,,,,,,,,,,,,,,,,,,,,,,,,,,,,,,,,,,,,,,,,,,,,,,,,,,,,,,,,,,,,,,ffffwptn,"[""f"",""f"",""f"",""f"",""w"",""p"",""t"",""n""]",0,"[1.8533000000714992,2.03290000009531,2.199700000047642,4.234600000023761,4.567000000000007,6.618100000023787,7.49580000007154,7.747999999999934,8.146200000047656]",0,FFFWHPTN,8,0,8,0,1,,,,,,,,,,
,,,,,,,,,,,,5f28fe5de9735523a46857d1,40,Kobieta,2022-06-11_09h38.59.146,task,2021.1.4,MacIntel,59.98080614,6299f149e92ead563fba08ef,62a4463403d90e3f21f4f1ee,,,,,,,,,,,,,1,,,,,,,,,,Task,9,(3x7) - 20,1,,,,,,,,,,,,,,,,,,,1,,,,,,,,,,,,,,,,,,,,,,,"[""1""]",1,[4.014100000023859],0,0,0,8,1,,,,,,,,,,,,,,,,,,,,,,,,,,
,,,,,,,,,,,X V Q F H G B L J M P D K C T S W R N Z,5f28fe5de9735523a46857d1,40,Kobieta,2022-06-11_09h38.59.146,task,2021.1.4,MacIntel,59.98080614,6299f149e92ead563fba08ef,62a4463403d90e3f21f4f1ee,,,,,,,,,,,,,,,,,,,,,,,,,,,,,,,,,,,,,,,,,,,,,,,,,,,,,,,,,,,,,,,,,,,,,,,,,,,,0,0,0,0,1,,,,,,,,,,,,,,,,,,,,,
,,,,,,,,,,,,5f28fe5de9735523a46857d1,40,Kobieta,2022-06-11_09h38.59.146,task,2021.1.4,MacIntel,59.98080614,6299f149e92ead563fba08ef,62a4463403d90e3f21f4f1ee,,,,,,,,,,,,,0,,,,,,,,,,Task,17,(2x3) - 6,0,,,,,,,,,,,,,,,,,,,1,,,,,,,,,,,,,,,,,,,,,,,"[""0""]",1,[2.02410000002385],0,0,0,16,1,,,,,,,,,,,,,,,,,,,,,,,,,,
,,,,,,,,,,,X V Q F H G B L J M P D K C T S W R N Z,5f28fe5de9735523a46857d1,40,Kobieta,2022-06-11_09h38.59.146,task,2021.1.4,MacIntel,59.98080614,6299f149e92ead563fba08ef,62a4463403d90e3f21f4f1ee,,,,,,,,,,,,,,,,,,,,,,,,,,,,,,,,,,,,,,,,,,,,,,,,,,,,,,,,,,,,,,,,,,,,,,,,,,,,1,0,1,0,1,,,,,,,,,,,,,,,,,,,,,
,,,,,,,,,,,,5f28fe5de9735523a46857d1,40,Kobieta,2022-06-11_09h38.59.146,task,2021.1.4,MacIntel,59.98080614,6299f149e92ead563fba08ef,62a4463403d90e3f21f4f1ee,,,,,,,,,,,,,7,,,,,,,,,,Task,14,(2x2) + 3,7,,,,,,,,,,,,,,,,,,,1,,,,,,,,,,,,,,,,,,,,,,,"[""7""]",1,[2.5492000000476764],0,0,0,13,1,,,,,,,,,,,,,,,,,,,,,,,,,,
,,,,,,,,,,,X V Q F H G B L J M P D K C T S W R N Z,5f28fe5de9735523a46857d1,40,Kobieta,2022-06-11_09h38.59.146,task,2021.1.4,MacIntel,59.98080614,6299f149e92ead563fba08ef,62a4463403d90e3f21f4f1ee,,,,,,,,,,,,,,,,,,,,,,,,,,,,,,,,,,,,,,,,,,,,,,,,,,,,,,,,,,,,,,,,,,,,,,,,,,,,2,0,2,0,1,,,,,,,,,,,,,,,,,,,,,
,,,,,,,,,,,,5f28fe5de9735523a46857d1,40,Kobieta,2022-06-11_09h38.59.146,task,2021.1.4,MacIntel,59.98080614,6299f149e92ead563fba08ef,62a4463403d90e3f21f4f1ee,,,,,,,,,,,,,3,,,,,,,,,,Task,35,(1x2) + 1,3,,,,,,,,,,,,,,,,,,,1,,,,,,,,,,,,,,,,,,,,,,,"[""3""]",1,[3.8181999999284244],0,0,0,34,1,,,,,,,,,,,,,,,,,,,,,,,,,,
,,,,,,,,,,,X V Q F H G B L J M P D K C T S W R N Z,5f28fe5de9735523a46857d1,40,Kobieta,2022-06-11_09h38.59.146,task,2021.1.4,MacIntel,59.98080614,6299f149e92ead563fba08ef,62a4463403d90e3f21f4f1ee,,,,,,,,,,,,,,,,,,,,,,,,,,,,,,,,,,,,,,,,,,,,,,,,,,,,,,,,,,,,,,,,,,,,,,,,,,,,3,0,3,0,1,,,,,,,,,,,,,,,,,,,,,
,,,,,,,,,,,,5f28fe5de9735523a46857d1,40,Kobieta,2022-06-11_09h38.59.146,task,2021.1.4,MacIntel,59.98080614,6299f149e92ead563fba08ef,62a4463403d90e3f21f4f1ee,,,,,,,,,,,,,4,,,,,,,,,,Task,21,(10/2) - 1,4,,,,,,,,,,,,,,,,,,,1,,,,,,,,,,,,,,,,,,,,,,,"[""4""]",1,[2.5341999999285463],0,0,0,20,1,,,,,,,,,,,,,,,,,,,,,,,,,,
,,,,,,,,,,,X V Q F H G B L J M P D K C T S W R N Z,5f28fe5de9735523a46857d1,40,Kobieta,2022-06-11_09h38.59.146,task,2021.1.4,MacIntel,59.98080614,6299f149e92ead563fba08ef,62a4463403d90e3f21f4f1ee,,,,,,,,,,,,,,,,,,,,,,,,,,,,,,,,,,,,,,,,,,,,,,,,,,,,,,,,,,,,,,,,,,,,,,,,,,,,4,0,4,0,1,,,,,,,,,,,,,,,,,,,,,
,,,,,,,,,,,,5f28fe5de9735523a46857d1,40,Kobieta,2022-06-11_09h38.59.146,task,2021.1.4,MacIntel,59.98080614,6299f149e92ead563fba08ef,62a4463403d90e3f21f4f1ee,,,,,,,,,,,,,5,,,,,,,,,,Task,12,(4x4) - 11,5,,,,,,,,,,,,,,,,,,,1,,,,,,,,,,,,,,,,,,,,,,,"[""5""]",1,[5.486799999952382],0,0,0,11,1,,,,,,,,,,,,,,,,,,,,,,,,,,
,,,,,,,,,,,X V Q F H G B L J M P D K C T S W R N Z,5f28fe5de9735523a46857d1,40,Kobieta,2022-06-11_09h38.59.146,task,2021.1.4,MacIntel,59.98080614,6299f149e92ead563fba08ef,62a4463403d90e3f21f4f1ee,,,,,,,,,,,,,,,,,,,,,,,,,,,,,,,,,,,,,,,,,,,,,,,,,,,,,,,,,,,,,,,,,,,,,,,,,,,,5,0,5,0,1,,,,,,,,,,,,,,,,,,,,,
,,,,,,,,,,,,5f28fe5de9735523a46857d1,40,Kobieta,2022-06-11_09h38.59.146,task,2021.1.4,MacIntel,59.98080614,6299f149e92ead563fba08ef,62a4463403d90e3f21f4f1ee,,,,,,,,,,,,,5,,,,,,,,,,Task,36,(8/4) + 3,5,,,,,,,,,,,,,,,,,,,1,,,,,,,,,,,,,,,,,,,,,,,"[""5""]",1,[2.002499999999941],0,0,0,35,1,,,,,,,,,,,,,,,,,,,,,,,,,,
,,,,,,,,,,,X V Q F H G B L J M P D K C T S W R N Z,5f28fe5de9735523a46857d1,40,Kobieta,2022-06-11_09h38.59.146,task,2021.1.4,MacIntel,59.98080614,6299f149e92ead563fba08ef,62a4463403d90e3f21f4f1ee,,,,,,,,,,,,,,,,,,,,,,,,,,,,,,,,,,,,,,,,,,,,,,,,,,,,,,,,,,,,,,,,,,,,,,,,,,,,6,0,6,0,1,,,,,,,,,,,,,,,,,,,,,
,,,,,,,,,,,,5f28fe5de9735523a46857d1,40,Kobieta,2022-06-11_09h38.59.146,task,2021.1.4,MacIntel,59.98080614,6299f149e92ead563fba08ef,62a4463403d90e3f21f4f1ee,,,,,,,,,,,,,,,,,,,,,,,Task,38,(4x6) - 17,7,,,,,,,,,,,,,,,,,,,0,,,,,,,,,,,,,,,,,,,,,,,,0,,0,0,0,37,1,,,,,,,,,,,,,,,,,,,,,,,,,,
,,,,,,,,,,,,5f28fe5de9735523a46857d1,40,Kobieta,2022-06-11_09h38.59.146,task,2021.1.4,MacIntel,59.98080614,6299f149e92ead563fba08ef,62a4463403d90e3f21f4f1ee,,,,,,,,,,,,,3,,,,,,,,,,Task,1,(12/6) - 1,1,,,,,,,,,,,,,,,,,,,0,,,,,,,,,,,,,,,,,,,,,,,"[""3""]",0,[3.0947000000476237],0,1,1,0,1,,,,,,,,,,,,,,,,,,,,,,,,,,
,,,,,,,,,,,,5f28fe5de9735523a46857d1,40,Kobieta,2022-06-11_09h38.59.146,task,2021.1.4,MacIntel,59.98080614,6299f149e92ead563fba08ef,62a4463403d90e3f21f4f1ee,,,,,,,,,,,,,2,,,,,,,,,,Task,39,(5x3) - 7,8,,,,,,,,,,,,,,,,,,,0,,,,,,,,,,,,,,,,,,,,,,,"[""2""]",0,[5.036899999976072],0,2,2,38,1,,,,,,,,,,,,,,,,,,,,,,,,,,
,,,,,,,,,,,,5f28fe5de9735523a46857d1,40,Kobieta,2022-06-11_09h38.59.146,task,2021.1.4,MacIntel,59.98080614,6299f149e92ead563fba08ef,62a4463403d90e3f21f4f1ee,,,,,,,,,,,,,9,,,,,,,,,,Task,16,(3x8) - 15,9,,,,,,,,,,,,,,,,,,,1,,,,,,,,,,,,,,,,,,,,,,,"[""9""]",1,[5.579700000047637],0,3,3,15,1,,,,,,,,,,,,,,,,,,,,,,,,,,
,,,,,,,,,,,X V Q F H G B L J M P D K C T S W R N Z,5f28fe5de9735523a46857d1,40,Kobieta,2022-06-11_09h38.59.146,task,2021.1.4,MacIntel,59.98080614,6299f149e92ead563fba08ef,62a4463403d90e3f21f4f1ee,,,,,,,,,,,,,,,,,,,,,,,,,,,,,,,,,,,,,,,,,,,,,,,,,,,,,,,,,,,,,,,,,,,,,,,,,,,,7,0,7,0,1,,,,,,,,,,,,,,,,,,,,,
,,,,,,,,,,,,5f28fe5de9735523a46857d1,40,Kobieta,2022-06-11_09h38.59.146,task,2021.1.4,MacIntel,59.98080614,6299f149e92ead563fba08ef,62a4463403d90e3f21f4f1ee,,,,,,,,,,,,,,,,,,,,,,,,,,,,,,,,,,,,,,,,,,,,,,,,,,,,,,,,,,,,,,,,,,,,,,,,,,,,,,,,,ghxmtsnts,"[""g"",""h"",""x"",""m"",""t"",""s"",""n"",""t"",""s""]",0,"[4.406699999928492,5.735699999928443,9.581399999976156,12.764899999976137,13.228999999999928,14.579099999904656,15.112299999952256,16.365399999976148,16.83029999995233,17.748799999952325]",0,GXMTSNTS,9,0,9,0,1,,,,,,,,,,
,,,,,,,,,,,,5f28fe5de9735523a46857d1,40,Kobieta,2022-06-11_09h38.59.146,task,2021.1.4,MacIntel,59.98080614,6299f149e92ead563fba08ef,62a4463403d90e3f21f4f1ee,,,,,,,,,,,,,,,,,,,,,,,,,,,,,,,,,,,,,,,,,,,,,,,,,,,,,,,,,,,,,,,,,,,,,,,,,,,,,,,,,,,,,,,,,,,,"[""comma""]",0,[1.2996000000239292],0,0,0,0,1,,
,,,,,,,,,,,,5f28fe5de9735523a46857d1,40,Kobieta,2022-06-11_09h38.59.146,task,2021.1.4,MacIntel,59.98080614,6299f149e92ead563fba08ef,62a4463403d90e3f21f4f1ee,,,,,,,,,,,,,,,,,,,,,,,,,,,,,,,,,,,,,,,,,,,,,,,,,,,,,,,,,,,,,,,,,,,,,,,,,,,,,,,,,,,,,,,,,,,,"[""comma""]",0,[1.7652999999522763],1,0,1,0,1,,
,,,,,,,,,,,,5f28fe5de9735523a46857d1,40,Kobieta,2022-06-11_09h38.59.146,task,2021.1.4,MacIntel,59.98080614,6299f149e92ead563fba08ef,62a4463403d90e3f21f4f1ee,,,,,,,,,,,,,,,,,,,,,,,,,,,,,,,,,,,,,,,,,,,,,,,,,,,,,,,,,,,,,,,,,,,,,,,,,,,,,,,,,,,,,,,,,,,,"[""period""]",0,[1.467700000047671],2,0,2,0,1,,
,,,,,,,,,,,,5f28fe5de9735523a46857d1,40,Kobieta,2022-06-11_09h38.59.146,task,2021.1.4,MacIntel,59.98080614,6299f149e92ead563fba08ef,62a4463403d90e3f21f4f1ee,,,,,,,,,,,,,,,,,,,,,,,,,,,,,,,,,,,,,,,,,,,,,,,,,,,,,,,,,,,,,,,,,,,,,,,,,,,,,,,,,,,,,,,,,,,,"[""period""]",0,[1.4360000000001492],3,0,3,0,1,,
,,,,,,,,,,,,5f28fe5de9735523a46857d1,40,Kobieta,2022-06-11_09h38.59.146,task,2021.1.4,MacIntel,59.98080614,6299f149e92ead563fba08ef,62a4463403d90e3f21f4f1ee,,,,,,,,,,,,,,,,,,,,,,,,,,,,,,,,,,,,,,,,,,,,,,,,,,,,,,,,,,,,,,,,,,,,,,,,,,,,,,,,,,,,,,,,,,,,"[""comma""]",0,[1.1000000000001364],4,0,4,0,1,,
,,,,,,,,,,,,5f28fe5de9735523a46857d1,40,Kobieta,2022-06-11_09h38.59.146,task,2021.1.4,MacIntel,59.98080614,6299f149e92ead563fba08ef,62a4463403d90e3f21f4f1ee,,,,,,,,,,,,,,,,,,,,,,,,,,,,,,,,,,,,,,,,,,,,,,,,,,,,,,,,,,,,,,,,,,,,,,,,,,,,,,,,,,,,,,,,,,,,"[""comma""]",0,[0.4171999999284708],5,0,5,0,1,,
,,,,,,,,,,,,5f28fe5de9735523a46857d1,40,Kobieta,2022-06-11_09h38.59.146,task,2021.1.4,MacIntel,59.98080614,6299f149e92ead563fba08ef,62a4463403d90e3f21f4f1ee,,,,,,,,,,,,,,,,,,,,,,,,,,,,,,,,,,,,,,,,,,,,,,,,,,,,,,,,,,,,,,,,,,,,,,,,,,,,,,,,,,,,,,,,,,,,"[""comma""]",0,[1.2377000000476528],6,0,6,0,1,,
,,,,,,,,,,,,5f28fe5de9735523a46857d1,40,Kobieta,2022-06-11_09h38.59.146,task,2021.1.4,MacIntel,59.98080614,6299f149e92ead563fba08ef,62a4463403d90e3f21f4f1ee,,,,,,,,,,,,,,,,,,,,,,,,,,,,,,,,,,,,,,,,,,,,,,,,,,,,,,,,,,,,,,,,,,,,,,,,,,,,,,,,,,,,,,,,,,,,"[""comma""]",0,[1.6322000000475327],7,0,7,0,1,,
,,,,,,,,,,,,5f28fe5de9735523a46857d1,40,Kobieta,2022-06-11_09h38.59.146,task,2021.1.4,MacIntel,59.98080614,6299f149e92ead563fba08ef,62a4463403d90e3f21f4f1ee,,,,,,,,,,,,,,,,,,,,,,,,,,,,,,,,,,,,,,,,,,,,,,,,,,,,,,,,,,,,,,,,,,,,,,,,,,,,,,,,,,,,,,,,,,,,"[""comma""]",0,[1.282100000024002],8,0,8,0,1,,
,,,,,,,,,,,,5f28fe5de9735523a46857d1,40,Kobieta,2022-06-11_09h38.59.146,task,2021.1.4,MacIntel,59.98080614,6299f149e92ead563fba08ef,62a4463403d90e3f21f4f1ee,,,,,,,,,,,,,,,,,,,,,,,,,,,,,,,,,,,,,,,,,,,,,,,,,,,,,,,,,,,,,,,,,,,,,,,,,,,,,,,,,,,,,,,,,,,,"[""period""]",0,[0.6342999999524181],9,0,9,0,1,,
,,,,,,,,,,,,5f28fe5de9735523a46857d1,40,Kobieta,2022-06-11_09h38.59.146,task,2021.1.4,MacIntel,59.98080614,6299f149e92ead563fba08ef,62a4463403d90e3f21f4f1ee,,,,,,,,,,,,,,,,,,,,,,,,,,,,,,,,,,,,,,,,,,,,,,,,,,,,,,,,,,,,,,,,,,,,,,,,,,,,,,,,,,,,,,,,,,,,"[""period""]",0,[1.1332000000477365],10,0,10,0,1,,
,,,,,,,,,,,,5f28fe5de9735523a46857d1,40,Kobieta,2022-06-11_09h38.59.146,task,2021.1.4,MacIntel,59.98080614,6299f149e92ead563fba08ef,62a4463403d90e3f21f4f1ee,,,,,,,,,,,,,,,,,,,,,,,,,,,,,,,,,,,,,,,,,,,,,,,,,,,,,,,,,,,,,,,,,,,,,,,,,,,,,,,,,,,,,,,,,,,,"[""period""]",0,[1.3488999999760836],11,0,11,0,1,,
,,,,,,,,,,,,5f28fe5de9735523a46857d1,40,Kobieta,2022-06-11_09h38.59.146,task,2021.1.4,MacIntel,59.98080614,6299f149e92ead563fba08ef,62a4463403d90e3f21f4f1ee,,,,,,,,,,,,,,,,,,,,,,,,,,,,,,,,,,,,,,,,,,,,,,,,,,,,,,,,,,,,,,,,,,,,,,,,,,,,,,,,,,,,,,,,,,,,"[""comma""]",0,[1.2691000000238546],12,0,12,0,1,,
,,,,,,,,,,,,5f28fe5de9735523a46857d1,40,Kobieta,2022-06-11_09h38.59.146,task,2021.1.4,MacIntel,59.98080614,6299f149e92ead563fba08ef,62a4463403d90e3f21f4f1ee,,,,,,,,,,,,,,,,,,,,,,,,,,,,,,,,,,,,,,,,,,,,,,,,,,,,,,,,,,,,,,,,,,,,,,,,,,,,,,,,,,,,,,,,,,,,"[""period""]",0,[1.1653999999762163],13,0,13,0,1,,
,,,,,,,,,,,,5f28fe5de9735523a46857d1,40,Kobieta,2022-06-11_09h38.59.146,task,2021.1.4,MacIntel,59.98080614,6299f149e92ead563fba08ef,62a4463403d90e3f21f4f1ee,,,,,,,,,,,,,,,,,,,,,,,,,,,,,,,,,,,,,,,,,,,,,,,,,,,,,,,,,,,,,,,,,,,,,,,,,,,,,,,,,,,,,,,,,,,,"[""comma""]",0,[1.0023999999762054],14,0,14,0,1,,
,,,,,,,,,,,,5f28fe5de9735523a46857d1,40,Kobieta,2022-06-11_09h38.59.146,task,2021.1.4,MacIntel,59.98080614,6299f149e92ead563fba08ef,62a4463403d90e3f21f4f1ee,,,,,,,,,,,,,,,,,,,,,,,,,,,,,,,,,,,,,,,,,,,,,,,,,,,,,,,,,,,,,,,,,,,,,,,,,,,,,,,,,,,,,,,,,,,,"[""comma""]",0,[1.0164000000952456],15,0,15,0,1,,
,,,,,,,,,,,,5f28fe5de9735523a46857d1,40,Kobieta,2022-06-11_09h38.59.146,task,2021.1.4,MacIntel,59.98080614,6299f149e92ead563fba08ef,62a4463403d90e3f21f4f1ee,,,,,,,,,,,,,,,,,,,,,,,,,,,,,,,,,,,,,,,,,,,,,,,,,,,,,,,,,,,,,,,,,,,,,,,,,,,,,,,,,,,,,,,,,,,,"[""comma""]",0,[1.0801000000237764],16,0,16,0,1,,
,,,,,,,,,,,,5f28fe5de9735523a46857d1,40,Kobieta,2022-06-11_09h38.59.146,task,2021.1.4,MacIntel,59.98080614,6299f149e92ead563fba08ef,62a4463403d90e3f21f4f1ee,,,,,,,,,,,,,,,,,,,,,,,,,,,,,,,,,,,,,,,,,,,,,,,,,,,,,,,,,,,,,,,,,,,,,,,,,,,,,,,,,,,,,,,,,,,,"[""comma""]",0,[1.1152000000477074],17,0,17,0,1,,
,,,,,,,,,,,,5f28fe5de9735523a46857d1,40,Kobieta,2022-06-11_09h38.59.146,task,2021.1.4,MacIntel,59.98080614,6299f149e92ead563fba08ef,62a4463403d90e3f21f4f1ee,,,,,,,,,,,,,,,,,,,,,,,,,,,,,,,,,,,,,,,,,,,,,,,,,,,,,,,,,,,,,,,,,,,,,,,,,,,,,,,,,,,,,,,,,,,,"[""period""]",0,[0.7177999999523763],18,0,18,0,1,,
,,,,,,,,,,,,5f28fe5de9735523a46857d1,40,Kobieta,2022-06-11_09h38.59.146,task,2021.1.4,MacIntel,59.98080614,6299f149e92ead563fba08ef,62a4463403d90e3f21f4f1ee,,,,,,,,,,,,,,,,,,,,,,,,,,,,,,,,,,,,,,,,,,,,,,,,,,,,,,,,,,,,,,,,,,,,,,,,,,,,,,,,,,,,,,,,,,,,"[""period""]",0,[0.6345999999045944],19,0,19,0,1,,
,,,,,,,,,,,,5f28fe5de9735523a46857d1,40,Kobieta,2022-06-11_09h38.59.146,task,2021.1.4,MacIntel,59.98080614,6299f149e92ead563fba08ef,62a4463403d90e3f21f4f1ee,,,,,,,,,,,,,,,,,,,,,,,,,,,,,,,,,,,,,,,,,,,,,,,,,,,,,,,,,,,,,,,,,,,,,,,,,,,,,,,,,,,,,,,,,,,,"[""period"",""comma""]",0,"[1.017200000047751,1.166600000023891]",20,0,20,0,1,,
,,,,,,,,,,,,5f28fe5de9735523a46857d1,40,Kobieta,2022-06-11_09h38.59.146,task,2021.1.4,MacIntel,59.98080614,6299f149e92ead563fba08ef,62a4463403d90e3f21f4f1ee,,,,,,,,,,,,,,,,,,,,,,,,,,,,,,,,,,,,,,,,,,,,,,,,,,,,,,,,,,,,,,,,,,,,,,,,,,,,,,,,,,,,,,,,,,,,,0,,21,0,21,0,1,,
,,,,,,,,,,,,5f28fe5de9735523a46857d1,40,Kobieta,2022-06-11_09h38.59.146,task,2021.1.4,MacIntel,59.98080614,6299f149e92ead563fba08ef,62a4463403d90e3f21f4f1ee,,,,,,,,,,,,,,,,,,,,,,,,,,,,,,,,,,,,,,,,,,,,,,,,,,,,,,,,,,,,,,,,,,,,,,,,,,,,,,,,,,,,,,,,,,,,"[""comma""]",0,[1.152300000071591],22,0,22,0,1,,
,,,,,,,,,,,,5f28fe5de9735523a46857d1,40,Kobieta,2022-06-11_09h38.59.146,task,2021.1.4,MacIntel,59.98080614,6299f149e92ead563fba08ef,62a4463403d90e3f21f4f1ee,,,,,,,,,,,,,,,,,,,,,,,,,,,,,,,,,,,,,,,,,,,,,,,,,,,,,,,,,,,,,,,,,,,,,,,,,,,,,,,,,,,,,,,,,,,,"[""comma""]",0,[1.3673999999759872],23,0,23,0,1,,
,,,,,,,,,,,,5f28fe5de9735523a46857d1,40,Kobieta,2022-06-11_09h38.59.146,task,2021.1.4,MacIntel,59.98080614,6299f149e92ead563fba08ef,62a4463403d90e3f21f4f1ee,,,,,,,,,,,,,,,,,,,,,,,,,,,,,,,,,,,,,,,,,,,,,,,,,,,,,,,,,,,,,,,,,,,,,,,,,,,,,,,,,,,,,,,,,,,,"[""period""]",0,[1.0652999999524582],24,0,24,0,1,,
,,,,,,,,,,,,5f28fe5de9735523a46857d1,40,Kobieta,2022-06-11_09h38.59.146,task,2021.1.4,MacIntel,59.98080614,6299f149e92ead563fba08ef,62a4463403d90e3f21f4f1ee,,,,,,,,,,,,,,,,,,,,,,,,,,,,,,,,,,,,,,,,,,,,,,,,,,,,,,,,,,,,,,,,,,,,,,,,,,,,,,,,,,,,,,,,,,,,"[""period""]",0,[1.302500000000009],25,0,25,0,1,,
,,,,,,,,,,,,5f28fe5de9735523a46857d1,40,Kobieta,2022-06-11_09h38.59.146,task,2021.1.4,MacIntel,59.98080614,6299f149e92ead563fba08ef,62a4463403d90e3f21f4f1ee,,,,,,,,,,,,,,,,,,,,,,,,,,,,,,,,,,,,,,,,,,,,,,,,,,,,,,,,,,,,,,,,,,,,,,,,,,,,,,,,,,,,,,,,,,,,"[""period""]",0,[1.0632000000478001],26,0,26,0,1,,
,,,,,,,,,,,,5f28fe5de9735523a46857d1,40,Kobieta,2022-06-11_09h38.59.146,task,2021.1.4,MacIntel,59.98080614,6299f149e92ead563fba08ef,62a4463403d90e3f21f4f1ee,,,,,,,,,,,,,,,,,,,,,,,,,,,,,,,,,,,,,,,,,,,,,,,,,,,,,,,,,,,,,,,,,,,,,,,,,,,,,,,,,,,,,,,,,,,,"[""period""]",0,[1.3341999999286145],27,0,27,0,1,,
,,,,,,,,,,,,5f28fe5de9735523a46857d1,40,Kobieta,2022-06-11_09h38.59.146,task,2021.1.4,MacIntel,59.98080614,6299f149e92ead563fba08ef,62a4463403d90e3f21f4f1ee,,,,,,,,,,,,,,,,,,,,,,,,,,,,,,,,,,,,,,,,,,,,,,,,,,,,,,,,,,,,,,,,,,,,,,,,,,,,,,,,,,,,,,,,,,,,"[""period""]",0,[1.1483999999759362],28,0,28,0,1,,
,,,,,,,,,,,,5f28fe5de9735523a46857d1,40,Kobieta,2022-06-11_09h38.59.146,task,2021.1.4,MacIntel,59.98080614,6299f149e92ead563fba08ef,62a4463403d90e3f21f4f1ee,,,,,,,,,,,,,,,,,,,,,,,,,,,,,,,,,,,,,,,,,,,,,,,,,,,,,,,,,,,,,,,,,,,,,,,,,,,,,,,,,,,,,,,,,,,,"[""comma""]",0,[1.0491000000238273],29,0,29,0,1,,
,,,,,,,,,,,,5f28fe5de9735523a46857d1,40,Kobieta,2022-06-11_09h38.59.146,task,2021.1.4,MacIntel,59.98080614,6299f149e92ead563fba08ef,62a4463403d90e3f21f4f1ee,,,,,,,,,,,,,,,,,,,,,,,,,,,,,,,,,,,,,,,,,,,,,,,,,,,,,,,,,,,,,,,,,,,,,,,,,,,,,,,,,,,,,,,,,,,,"[""period""]",0,[0.7341000000237727],30,0,30,0,1,,
,,,,,,,,,,,,5f28fe5de9735523a46857d1,40,Kobieta,2022-06-11_09h38.59.146,task,2021.1.4,MacIntel,59.98080614,6299f149e92ead563fba08ef,62a4463403d90e3f21f4f1ee,,,,,,,,,,,,,,,,,,,,,,,,,,,,,,,,,,,,,,,,,,,,,,,,,,,,,,,,,,,,,,,,,,,,,,,,,,,,,,,,,,,,,,,,,,,,"[""comma""]",0,[0.9829000000952419],31,0,31,0,1,,
,,,,,,,,,,,,5f28fe5de9735523a46857d1,40,Kobieta,2022-06-11_09h38.59.146,task,2021.1.4,MacIntel,59.98080614,6299f149e92ead563fba08ef,62a4463403d90e3f21f4f1ee,,,,,,,,,,,,,,,,,,,,,,,,,,,,,,,,,,,,,,,,,,,,,,,,,,,,,,,,,,,,,,,,,,,,,,,,,,,,,,,,,,,,,,,,,,,,"[""period""]",0,[0.6175000000000637],32,0,32,0,1,,
,,,,,,,,,,,,5f28fe5de9735523a46857d1,40,Kobieta,2022-06-11_09h38.59.146,task,2021.1.4,MacIntel,59.98080614,6299f149e92ead563fba08ef,62a4463403d90e3f21f4f1ee,,,,,,,,,,,,,,,,,,,,,,,,,,,,,,,,,,,,,,,,,,,,,,,,,,,,,,,,,,,,,,,,,,,,,,,,,,,,,,,,,,,,,,,,,,,,"[""comma""]",0,[1.0323000000717002],33,0,33,0,1,,
,,,,,,,,,,,,5f28fe5de9735523a46857d1,40,Kobieta,2022-06-11_09h38.59.146,task,2021.1.4,MacIntel,59.98080614,6299f149e92ead563fba08ef,62a4463403d90e3f21f4f1ee,,,,,,,,,,,,,,,,,,,,,,,,,,,,,,,,,,,,,,,,,,,,,,,,,,,,,,,,,,,,,,,,,,,,,,,,,,,,,,,,,,,,,,,,,,,,"[""comma""]",0,[1.03579999995236],34,0,34,0,1,,
,,,,,,,,,,,,5f28fe5de9735523a46857d1,40,Kobieta,2022-06-11_09h38.59.146,task,2021.1.4,MacIntel,59.98080614,6299f149e92ead563fba08ef,62a4463403d90e3f21f4f1ee,,,,,,,,,,,,,,,,,,,,,,,,,,,,,,,,,,,,,,,,,,,,,,,,,,,,,,,,,,,,,,,,,,,,,,,,,,,,,,,,,,,,,,,,,,,,"[""comma""]",0,[1.2664999999999509],35,0,35,0,1,,
,,,,,,,,,,,,5f28fe5de9735523a46857d1,40,Kobieta,2022-06-11_09h38.59.146,task,2021.1.4,MacIntel,59.98080614,6299f149e92ead563fba08ef,62a4463403d90e3f21f4f1ee,,,,,,,,,,,,,,,,,,,,,,,,,,,,,,,,,,,,,,,,,,,,,,,,,,,,,,,,,,,,,,,,,,,,,,,,,,,,,,,,,,,,,,,,,,,,"[""comma""]",0,[1.0343999999761309],36,0,36,0,1,,
,,,,,,,,,,,,5f28fe5de9735523a46857d1,40,Kobieta,2022-06-11_09h38.59.146,task,2021.1.4,MacIntel,59.98080614,6299f149e92ead563fba08ef,62a4463403d90e3f21f4f1ee,,,,,,,,,,,,,,,,,,,,,,,,,,,,,,,,,,,,,,,,,,,,,,,,,,,,,,,,,,,,,,,,,,,,,,,,,,,,,,,,,,,,,,,,,,,,"[""period""]",0,[0.735799999952178],37,0,37,0,1,,
,,,,,,,,,,,,5f28fe5de9735523a46857d1,40,Kobieta,2022-06-11_09h38.59.146,task,2021.1.4,MacIntel,59.98080614,6299f149e92ead563fba08ef,62a4463403d90e3f21f4f1ee,,,,,,,,,,,,,,,,,,,,,,,,,,,,,,,,,,,,,,,,,,,,,,,,,,,,,,,,,,,,,,,,,,,,,,,,,,,,,,,,,,,,,,,,,,,,"[""period""]",0,[1.0182999999522053],38,0,38,0,1,,
,,,,,,,,,,,,5f28fe5de9735523a46857d1,40,Kobieta,2022-06-11_09h38.59.146,task,2021.1.4,MacIntel,59.98080614,6299f149e92ead563fba08ef,62a4463403d90e3f21f4f1ee,,,,,,,,,,,,,,,,,,,,,,,,,,,,,,,,,,,,,,,,,,,,,,,,,,,,,,,,,,,,,,,,,,,,,,,,,,,,,,,,,,,,,,,,,,,,"[""period""]",0,[0.7006000000239965],39,0,39,0,1,,
,,,,,,,,,,,,5f28fe5de9735523a46857d1,40,Kobieta,2022-06-11_09h38.59.146,task,2021.1.4,MacIntel,59.98080614,6299f149e92ead563fba08ef,62a4463403d90e3f21f4f1ee,,,,,,,,,,,,,,,,,,,,,,,,,,,,,,,,,,,,,,,,,,,,,,,,,,,,,,,,,,,,,,,,,,,,,,,,,,,,,,,,,,,,,,,,,,,,"[""period""]",0,[0.7996000000237018],40,0,40,0,1,,
,,,,,,,,,,,,5f28fe5de9735523a46857d1,40,Kobieta,2022-06-11_09h38.59.146,task,2021.1.4,MacIntel,59.98080614,6299f149e92ead563fba08ef,62a4463403d90e3f21f4f1ee,,,,,,,,,,,,,,,,,,,,,,,,,,,,,,,,,,,,,,,,,,,,,,,,,,,,,,,,,,,,,,,,,,,,,,,,,,,,,,,,,,,,,,,,,,,,"[""comma""]",0,[0.9837000000477474],41,0,41,0,1,,
,,,,,,,,,,,,5f28fe5de9735523a46857d1,40,Kobieta,2022-06-11_09h38.59.146,task,2021.1.4,MacIntel,59.98080614,6299f149e92ead563fba08ef,62a4463403d90e3f21f4f1ee,,,,,,,,,,,,,,,,,,,,,,,,,,,,,,,,,,,,,,,,,,,,,,,,,,,,,,,,,,,,,,,,,,,,,,,,,,,,,,,,,,,,,,,,,,,,"[""comma""]",0,[0.9322999999521926],42,0,42,0,1,,
,,,,,,,,,,,,5f28fe5de9735523a46857d1,40,Kobieta,2022-06-11_09h38.59.146,task,2021.1.4,MacIntel,59.98080614,6299f149e92ead563fba08ef,62a4463403d90e3f21f4f1ee,,,,,,,,,,,,,,,,,,,,,,,,,,,,,,,,,,,,,,,,,,,,,,,,,,,,,,,,,,,,,,,,,,,,,,,,,,,,,,,,,,,,,,,,,,,,"[""comma""]",0,[0.8990000000001146],43,0,43,0,1,,
,,,,,,,,,,,,5f28fe5de9735523a46857d1,40,Kobieta,2022-06-11_09h38.59.146,task,2021.1.4,MacIntel,59.98080614,6299f149e92ead563fba08ef,62a4463403d90e3f21f4f1ee,,,,,,,,,,,,,,,,,,,,,,,,,,,,,,,,,,,,,,,,,,,,,,,,,,,,,,,,,,,,,,,,,,,,,,,,,,,,,,,,,,,,,,,,,,,,"[""period""]",0,[0.9345000000000709],44,0,44,0,1,,
,,,,,,,,,,,,5f28fe5de9735523a46857d1,40,Kobieta,2022-06-11_09h38.59.146,task,2021.1.4,MacIntel,59.98080614,6299f149e92ead563fba08ef,62a4463403d90e3f21f4f1ee,,,,,,,,,,,,,,,,,,,,,,,,,,,,,,,,,,,,,,,,,,,,,,,,,,,,,,,,,,,,,,,,,,,,,,,,,,,,,,,,,,,,,,,,,,,,"[""period""]",0,[1.148700000047711],45,0,45,0,1,,
,,,,,,,,,,,,5f28fe5de9735523a46857d1,40,Kobieta,2022-06-11_09h38.59.146,task,2021.1.4,MacIntel,59.98080614,6299f149e92ead563fba08ef,62a4463403d90e3f21f4f1ee,,,,,,,,,,,,,,,,,,,,,,,,,,,,,,,,,,,,,,,,,,,,,,,,,,,,,,,,,,,,,,,,,,,,,,,,,,,,,,,,,,,,,,,,,,,,"[""period""]",0,[1.1533000000715674],46,0,46,0,1,,
,,,,,,,,,,,,5f28fe5de9735523a46857d1,40,Kobieta,2022-06-11_09h38.59.146,task,2021.1.4,MacIntel,59.98080614,6299f149e92ead563fba08ef,62a4463403d90e3f21f4f1ee,,,,,,,,,,,,,,,,,,,,,,,,,,,,,,,,,,,,,,,,,,,,,,,,,,,,,,,,,,,,,,,,,,,,,,,,,,,,,,,,,,,,,,,,,,,,"[""period""]",0,[1.1814999999999145],47,0,47,0,1,,
,,,,,,,,,,,,5f28fe5de9735523a46857d1,40,Kobieta,2022-06-11_09h38.59.146,task,2021.1.4,MacIntel,59.98080614,6299f149e92ead563fba08ef,62a4463403d90e3f21f4f1ee,,,,,,,,,,,,,,,,,,,,,,,,,,,,,,,,,,,,,,,,,,,,,,,,,,,,,,,,,,,,,,,,,,,,,,,,,,,,,,,,,,,,,,,,,,,,"[""period""]",0,[1.2676999999284817],48,0,48,0,1,,
,,,,,,,,,,,,5f28fe5de9735523a46857d1,40,Kobieta,2022-06-11_09h38.59.146,task,2021.1.4,MacIntel,59.98080614,6299f149e92ead563fba08ef,62a4463403d90e3f21f4f1ee,,,,,,,,,,,,,,,,,,,,,,,,,,,,,,,,,,,,,,,,,,,,,,,,,,,,,,,,,,,,,,,,,,,,,,,,,,,,,,,,,,,,,,,,,,,,"[""period""]",0,[1.1984999999999673],49,0,49,0,1,,
,,,,,,,,,,,,5f28fe5de9735523a46857d1,40,Kobieta,2022-06-11_09h38.59.146,task,2021.1.4,MacIntel,59.98080614,6299f149e92ead563fba08ef,62a4463403d90e3f21f4f1ee,,,,,,,,,,,,,,,,,,,,,,,,,,,,,,,,,,,,,,,,,,,,,,,,,,,,,,,,,,,,,,,,,,,,,,,,,,,,,,,,,,,,,,,,,,,,"[""period""]",0,[1.033700000047702],50,0,50,0,1,,
,,,,,,,,,,,,5f28fe5de9735523a46857d1,40,Kobieta,2022-06-11_09h38.59.146,task,2021.1.4,MacIntel,59.98080614,6299f149e92ead563fba08ef,62a4463403d90e3f21f4f1ee,,,,,,,,,,,,,,,,,,,,,,,,,,,,,,,,,,,,,,,,,,,,,,,,,,,,,,,,,,,,,,,,,,,,,,,,,,,,,,,,,,,,,,,,,,,,"[""comma""]",0,[0.3503000000716838],51,0,51,0,1,,
,,,,,,,,,,,,5f28fe5de9735523a46857d1,40,Kobieta,2022-06-11_09h38.59.146,task,2021.1.4,MacIntel,59.98080614,6299f149e92ead563fba08ef,62a4463403d90e3f21f4f1ee,,,,,,,,,,,,,,,,,,,,,,,,,,,,,,,,,,,,,,,,,,,,,,,,,,,,,,,,,,,,,,,,,,,,,,,,,,,,,,,,,,,,,,,,,,,,"[""comma""]",0,[1.0491000000238273],52,0,52,0,1,,
,,,,,,,,,,,,5f28fe5de9735523a46857d1,40,Kobieta,2022-06-11_09h38.59.146,task,2021.1.4,MacIntel,59.98080614,6299f149e92ead563fba08ef,62a4463403d90e3f21f4f1ee,,,,,,,,,,,,,,,,,,,,,,,,,,,,,,,,,,,,,,,,,,,,,,,,,,,,,,,,,,,,,,,,,,,,,,,,,,,,,,,,,,,,,,,,,,,,"[""period""]",0,[0.7719999999999345],53,0,53,0,1,,
,,,,,,,,,,,,5f28fe5de9735523a46857d1,40,Kobieta,2022-06-11_09h38.59.146,task,2021.1.4,MacIntel,59.98080614,6299f149e92ead563fba08ef,62a4463403d90e3f21f4f1ee,,,,,,,,,,,,,,,,,,,,,,,,,,,,,,,,,,,,,,,,,,,,,,,,,,,,,,,,,,,,,,,,,,,,,,,,,,,,,,,,,,,,,,,,,,,,"[""comma""]",0,[0.602800000071511],54,0,54,0,1,,
,,,,,,,,,,,,5f28fe5de9735523a46857d1,40,Kobieta,2022-06-11_09h38.59.146,task,2021.1.4,MacIntel,59.98080614,6299f149e92ead563fba08ef,62a4463403d90e3f21f4f1ee,,,,,,,,,,,,,,,,,,,,,,,,,,,,,,,,,,,,,,,,,,,,,,,,,,,,,,,,,,,,,,,,,,,,,,,,,,,,,,,,,,,,,,,,,,,,"[""comma""]",0,[0.5507000000477547],55,0,55,0,1,,
,,,,,,,,,,,,5f28fe5de9735523a46857d1,40,Kobieta,2022-06-11_09h38.59.146,task,2021.1.4,MacIntel,59.98080614,6299f149e92ead563fba08ef,62a4463403d90e3f21f4f1ee,,,,,,,,,,,,,,,,,,,,,,,,,,,,,,,,,,,,,,,,,,,,,,,,,,,,,,,,,,,,,,,,,,,,,,,,,,,,,,,,,,,,,,,,,,,,"[""period""]",0,[1],56,0,56,0,1,,
,,,,,,,,,,,,5f28fe5de9735523a46857d1,40,Kobieta,2022-06-11_09h38.59.146,task,2021.1.4,MacIntel,59.98080614,6299f149e92ead563fba08ef,62a4463403d90e3f21f4f1ee,,,,,,,,,,,,,,,,,,,,,,,,,,,,,,,,,,,,,,,,,,,,,,,,,,,,,,,,,,,,,,,,,,,,,,,,,,,,,,,,,,,,,,,,,,,,"[""comma""]",0,[1.1570999999046307],57,0,57,0,1,,
,,,,,,,,,,,,5f28fe5de9735523a46857d1,40,Kobieta,2022-06-11_09h38.59.146,task,2021.1.4,MacIntel,59.98080614,6299f149e92ead563fba08ef,62a4463403d90e3f21f4f1ee,,,,,,,,,,,,,,,,,,,,,,,,,,,,,,,,,,,,,,,,,,,,,,,,,,,,,,,,,,,,,,,,,,,,,,,,,,,,,,,,,,,,,,,,,,,,"[""comma""]",0,[1.0328000000715747],58,0,58,0,1,,
,,,,,,,,,,,,5f28fe5de9735523a46857d1,40,Kobieta,2022-06-11_09h38.59.146,task,2021.1.4,MacIntel,59.98080614,6299f149e92ead563fba08ef,62a4463403d90e3f21f4f1ee,,,,,,,,,,,,,,,,,,,,,,,,,,,,,,,,,,,,,,,,,,,,,,,,,,,,,,,,,,,,,,,,,,,,,,,,,,,,,,,,,,,,,,,,,,,,"[""period""]",0,[0.9991000000238728],59,0,59,0,1,,
,,,,,,,,,,,,5f28fe5de9735523a46857d1,40,Kobieta,2022-06-11_09h38.59.146,task,2021.1.4,MacIntel,59.98080614,6299f149e92ead563fba08ef,62a4463403d90e3f21f4f1ee,,,,,,,,,,,,,,,,,,,,,,,,,,,,,,,,,,,,,,,,,,,,,,,,,,,,,,,,,,,,,,,,,,,,,,,,,,,,,,,,,,,,,,,,,,,,"[""period""]",0,[0.4356000000238964],60,0,60,0,1,,
,,,,,,,,,,,,5f28fe5de9735523a46857d1,40,Kobieta,2022-06-11_09h38.59.146,task,2021.1.4,MacIntel,59.98080614,6299f149e92ead563fba08ef,62a4463403d90e3f21f4f1ee,,,,,,,,,,,,,,,,,,,,,,,,,,,,,,,,,,,,,,,,,,,,,,,,,,,,,,,,,,,,,,,,,,,,,,,,,,,,,,,,,,,,,,,,,,,,,0,,61,0,61,0,1,,
,,,,,,,,,,,,5f28fe5de9735523a46857d1,40,Kobieta,2022-06-11_09h38.59.146,task,2021.1.4,MacIntel,59.98080614,6299f149e92ead563fba08ef,62a4463403d90e3f21f4f1ee,,,,,,,,,,,,,,,,,,,,,,,,,,,,,,,,,,,,,,,,,,,,,,,,,,,,,,,,,,,,,,,,,,,,,,,,,,,,,,,,,,,,,,,,,,,,"[""comma""]",0,[1.0327999999522035],62,0,62,0,1,,
,,,,,,,,,,,,5f28fe5de9735523a46857d1,40,Kobieta,2022-06-11_09h38.59.146,task,2021.1.4,MacIntel,59.98080614,6299f149e92ead563fba08ef,62a4463403d90e3f21f4f1ee,,,,,,,,,,,,,,,,,,,,,,,,,,,,,,,,,,,,,,,,,,,,,,,,,,,,,,,,,,,,,,,,,,,,,,,,,,,,,,,,,,,,,,,,,,,,"[""comma""]",0,[1.0841000000239092],63,0,63,0,1,,
,,,,,,,,,,,,5f28fe5de9735523a46857d1,40,Kobieta,2022-06-11_09h38.59.146,task,2021.1.4,MacIntel,59.98080614,6299f149e92ead563fba08ef,62a4463403d90e3f21f4f1ee,,,,,,,,,,,,,,,,,,,,,,,,,,,,,,,,,,,,,,,,,,,,,,,,,,,,,,,,,,,,,,,,,,,,,,,,,,,,,,,,,,,,,,,,,,,,"[""period""]",0,[0.7212999999521799],64,0,64,0,1,,
,,,,,,,,,,,,5f28fe5de9735523a46857d1,40,Kobieta,2022-06-11_09h38.59.146,task,2021.1.4,MacIntel,59.98080614,6299f149e92ead563fba08ef,62a4463403d90e3f21f4f1ee,,,,,,,,,,,,,,,,,,,,,,,,,,,,,,,,,,,,,,,,,,,,,,,,,,,,,,,,,,,,,,,,,,,,,,,,,,,,,,,,,,,,,,,,,,,,"[""period""]",0,[0.34900000000016007],65,0,65,0,1,,
,,,,,,,,,,,,5f28fe5de9735523a46857d1,40,Kobieta,2022-06-11_09h38.59.146,task,2021.1.4,MacIntel,59.98080614,6299f149e92ead563fba08ef,62a4463403d90e3f21f4f1ee,,,,,,,,,,,,,,,,,,,,,,,,,,,,,,,,,,,,,,,,,,,,,,,,,,,,,,,,,,,,,,,,,,,,,,,,,,,,,,,,,,,,,,,,,,,,"[""period""]",0,[0.31950000000006185],66,0,66,0,1,,
,,,,,,,,,,,,5f28fe5de9735523a46857d1,40,Kobieta,2022-06-11_09h38.59.146,task,2021.1.4,MacIntel,59.98080614,6299f149e92ead563fba08ef,62a4463403d90e3f21f4f1ee,,,,,,,,,,,,,,,,,,,,,,,,,,,,,,,,,,,,,,,,,,,,,,,,,,,,,,,,,,,,,,,,,,,,,,,,,,,,,,,,,,,,,,,,,,,,"[""period""]",0,[0.5499999999999545],67,0,67,0,1,,
,,,,,,,,,,,,5f28fe5de9735523a46857d1,40,Kobieta,2022-06-11_09h38.59.146,task,2021.1.4,MacIntel,59.98080614,6299f149e92ead563fba08ef,62a4463403d90e3f21f4f1ee,,,,,,,,,,,,,,,,,,,,,,,,,,,,,,,,,,,,,,,,,,,,,,,,,,,,,,,,,,,,,,,,,,,,,,,,,,,,,,,,,,,,,,,,,,,,"[""period""]",0,[0.8667000000475582],68,0,68,0,1,,
,,,,,,,,,,,,5f28fe5de9735523a46857d1,40,Kobieta,2022-06-11_09h38.59.146,task,2021.1.4,MacIntel,59.98080614,6299f149e92ead563fba08ef,62a4463403d90e3f21f4f1ee,,,,,,,,,,,,,,,,,,,,,,,,,,,,,,,,,,,,,,,,,,,,,,,,,,,,,,,,,,,,,,,,,,,,,,,,,,,,,,,,,,,,,,,,,,,,"[""comma""]",0,[0.6501000000239401],69,0,69,0,1,,
,,,,,,,,,,,,5f28fe5de9735523a46857d1,40,Kobieta,2022-06-11_09h38.59.146,task,2021.1.4,MacIntel,59.98080614,6299f149e92ead563fba08ef,62a4463403d90e3f21f4f1ee,,,,,,,,,,,,,,,,,,,,,,,,,,,,,,,,,,,,,,,,,,,,,,,,,,,,,,,,,,,,,,,,,,,,,,,,,,,,,,,,,,,,,,,,,,,,"[""comma""]",0,[0.7156000000238691],70,0,70,0,1,,
,,,,,,,,,,,,5f28fe5de9735523a46857d1,40,Kobieta,2022-06-11_09h38.59.146,task,2021.1.4,MacIntel,59.98080614,6299f149e92ead563fba08ef,62a4463403d90e3f21f4f1ee,,,,,,,,,,,,,,,,,,,,,,,,,,,,,,,,,,,,,,,,,,,,,,,,,,,,,,,,,,,,,,,,,,,,,,,,,,,,,,,,,,,,,,,,,,,,"[""comma""]",0,[0.6997000000476419],71,0,71,0,1,,
,,,,,,,,,,,,5f28fe5de9735523a46857d1,40,Kobieta,2022-06-11_09h38.59.146,task,2021.1.4,MacIntel,59.98080614,6299f149e92ead563fba08ef,62a4463403d90e3f21f4f1ee,,,,,,,,,,,,,,,,,,,,,,,,,,,,,,,,,,,,,,,,,,,,,,,,,,,,,,,,,,,,,,,,,,,,,,,,,,,,,,,,,,,,,,,,,,,,"[""period""]",0,[0.7006000000237691],72,0,72,0,1,,
,,,,,,,,,,,,5f28fe5de9735523a46857d1,40,Kobieta,2022-06-11_09h38.59.146,task,2021.1.4,MacIntel,59.98080614,6299f149e92ead563fba08ef,62a4463403d90e3f21f4f1ee,,,,,,,,,,,,,,,,,,,,,,,,,,,,,,,,,,,,,,,,,,,,,,,,,,,,,,,,,,,,,,,,,,,,,,,,,,,,,,,,,,,,,,,,,,,,"[""period""]",0,[1.1332999999522144],73,0,73,0,1,,
,,,,,,,,,,,,5f28fe5de9735523a46857d1,40,Kobieta,2022-06-11_09h38.59.146,task,2021.1.4,MacIntel,59.98080614,6299f149e92ead563fba08ef,62a4463403d90e3f21f4f1ee,,,,,,,,,,,,,,,,,,,,,,,,,,,,,,,,,,,,,,,,,,,,,,,,,,,,,,,,,,,,,,,,,,,,,,,,,,,,,,,,,,,,,,,,,,,,"[""period""]",0,[1.1528999999761709],74,0,74,0,1,,
,,,,,,,,,,,,5f28fe5de9735523a46857d1,40,Kobieta,2022-06-11_09h38.59.146,task,2021.1.4,MacIntel,59.98080614,6299f149e92ead563fba08ef,62a4463403d90e3f21f4f1ee,,,,,,,,,,,,,,,,,,,,,,,,,,,,,,,,,,,,,,,,,,,,,,,,,,,,,,,,,,,,,,,,,,,,,,,,,,,,,,,,,,,,,,,,,,,,"[""comma""]",0,[1.0823000000716547],75,0,75,0,1,,
,,,,,,,,,,,,5f28fe5de9735523a46857d1,40,Kobieta,2022-06-11_09h38.59.146,task,2021.1.4,MacIntel,59.98080614,6299f149e92ead563fba08ef,62a4463403d90e3f21f4f1ee,,,,,,,,,,,,,,,,,,,,,,,,,,,,,,,,,,,,,,,,,,,,,,,,,,,,,,,,,,,,,,,,,,,,,,,,,,,,,,,,,,,,,,,,,,,,"[""comma""]",0,[1.0216000000239092],76,0,76,0,1,,
,,,,,,,,,,,,5f28fe5de9735523a46857d1,40,Kobieta,2022-06-11_09h38.59.146,task,2021.1.4,MacIntel,59.98080614,6299f149e92ead563fba08ef,62a4463403d90e3f21f4f1ee,,,,,,,,,,,,,,,,,,,,,,,,,,,,,,,,,,,,,,,,,,,,,,,,,,,,,,,,,,,,,,,,,,,,,,,,,,,,,,,,,,,,,,,,,,,,"[""comma""]",0,[0.6669999999999163],77,0,77,0,1,,
,,,,,,,,,,,,5f28fe5de9735523a46857d1,40,Kobieta,2022-06-11_09h38.59.146,task,2021.1.4,MacIntel,59.98080614,6299f149e92ead563fba08ef,62a4463403d90e3f21f4f1ee,,,,,,,,,,,,,,,,,,,,,,,,,,,,,,,,,,,,,,,,,,,,,,,,,,,,,,,,,,,,,,,,,,,,,,,,,,,,,,,,,,,,,,,,,,,,"[""comma""]",0,[0.6263999999762291],78,0,78,0,1,,
,,,,,,,,,,,,5f28fe5de9735523a46857d1,40,Kobieta,2022-06-11_09h38.59.146,task,2021.1.4,MacIntel,59.98080614,6299f149e92ead563fba08ef,62a4463403d90e3f21f4f1ee,,,,,,,,,,,,,,,,,,,,,,,,,,,,,,,,,,,,,,,,,,,,,,,,,,,,,,,,,,,,,,,,,,,,,,,,,,,,,,,,,,,,,,,,,,,,"[""period""]",0,[1.0156000000238237],79,0,79,0,1,,
,,,,,,,,,,,,5f28fe5de9735523a46857d1,40,Kobieta,2022-06-11_09h38.59.146,task,2021.1.4,MacIntel,59.98080614,6299f149e92ead563fba08ef,62a4463403d90e3f21f4f1ee,,,,,,,,,,,,,,,,,,,,,,,,,,,,,,,,,,,,,,,,,,,,,,,,,,,,,,,,,,,,,,,,,,,,,,,,,,,,,,,,,,,,,,,,,,,,"[""period""]",0,[1.1506000000238146],80,0,80,0,1,,
,,,,,,,,,,,,5f28fe5de9735523a46857d1,40,Kobieta,2022-06-11_09h38.59.146,task,2021.1.4,MacIntel,59.98080614,6299f149e92ead563fba08ef,62a4463403d90e3f21f4f1ee,,,,,,,,,,,,,,,,,,,,,,,,,,,,,,,,,,,,,,,,,,,,,,,,,,,,,,,,,,,,,,,,,,,,,,,,,,,,,,,,,,,,,,,,,,,,"[""period""]",0,[1.0327000000477256],81,0,81,0,1,,
,,,,,,,,,,,,5f28fe5de9735523a46857d1,40,Kobieta,2022-06-11_09h38.59.146,task,2021.1.4,MacIntel,59.98080614,6299f149e92ead563fba08ef,62a4463403d90e3f21f4f1ee,,,,,,,,,,,,,,,,,,,,,,,,,,,,,,,,,,,,,,,,,,,,,,,,,,,,,,,,,,,,,,,,,,,,,,,,,,,,,,,,,,,,,,,,,,,,"[""period""]",0,[1.02020000004768],82,0,82,0,1,,
,,,,,,,,,,,,5f28fe5de9735523a46857d1,40,Kobieta,2022-06-11_09h38.59.146,task,2021.1.4,MacIntel,59.98080614,6299f149e92ead563fba08ef,62a4463403d90e3f21f4f1ee,,,,,,,,,,,,,,,,,,,,,,,,,,,,,,,,,,,,,,,,,,,,,,,,,,,,,,,,,,,,,,,,,,,,,,,,,,,,,,,,,,,,,,,,,,,,"[""period""]",0,[0.7991000000238273],83,0,83,0,1,,
,,,,,,,,,,,,5f28fe5de9735523a46857d1,40,Kobieta,2022-06-11_09h38.59.146,task,2021.1.4,MacIntel,59.98080614,6299f149e92ead563fba08ef,62a4463403d90e3f21f4f1ee,,,,,,,,,,,,,,,,,,,,,,,,,,,,,,,,,,,,,,,,,,,,,,,,,,,,,,,,,,,,,,,,,,,,,,,,,,,,,,,,,,,,,,,,,,,,"[""period""]",0,[1.0498000000716274],84,0,84,0,1,,
,,,,,,,,,,,,5f28fe5de9735523a46857d1,40,Kobieta,2022-06-11_09h38.59.146,task,2021.1.4,MacIntel,59.98080614,6299f149e92ead563fba08ef,62a4463403d90e3f21f4f1ee,,,,,,,,,,,,,,,,,,,,,,,,,,,,,,,,,,,,,,,,,,,,,,,,,,,,,,,,,,,,,,,,,,,,,,,,,,,,,,,,,,,,,,,,,,,,"[""comma""]",0,[1.0367999999523363],85,0,85,0,1,,
,,,,,,,,,,,,5f28fe5de9735523a46857d1,40,Kobieta,2022-06-11_09h38.59.146,task,2021.1.4,MacIntel,59.98080614,6299f149e92ead563fba08ef,62a4463403d90e3f21f4f1ee,,,,,,,,,,,,,,,,,,,,,,,,,,,,,,,,,,,,,,,,,,,,,,,,,,,,,,,,,,,,,,,,,,,,,,,,,,,,,,,,,,,,,,,,,,,,"[""comma""]",0,[0.8353999999760617],86,0,86,0,1,,
,,,,,,,,,,,,5f28fe5de9735523a46857d1,40,Kobieta,2022-06-11_09h38.59.146,task,2021.1.4,MacIntel,59.98080614,6299f149e92ead563fba08ef,62a4463403d90e3f21f4f1ee,,,,,,,,,,,,,,,,,,,,,,,,,,,,,,,,,,,,,,,,,,,,,,,,,,,,,,,,,,,,,,,,,,,,,,,,,,,,,,,,,,,,,,,,,,,,"[""comma""]",0,[0.6692000000475673],87,0,87,0,1,,
,,,,,,,,,,,,5f28fe5de9735523a46857d1,40,Kobieta,2022-06-11_09h38.59.146,task,2021.1.4,MacIntel,59.98080614,6299f149e92ead563fba08ef,62a4463403d90e3f21f4f1ee,,,,,,,,,,,,,,,,,,,,,,,,,,,,,,,,,,,,,,,,,,,,,,,,,,,,,,,,,,,,,,,,,,,,,,,,,,,,,,,,,,,,,,,,,,,,"[""comma""]",0,[0.8010000000001583],88,0,88,0,1,,
,,,,,,,,,,,,5f28fe5de9735523a46857d1,40,Kobieta,2022-06-11_09h38.59.146,task,2021.1.4,MacIntel,59.98080614,6299f149e92ead563fba08ef,62a4463403d90e3f21f4f1ee,,,,,,,,,,,,,,,,,,,,,,,,,,,,,,,,,,,,,,,,,,,,,,,,,,,,,,,,,,,,,,,,,,,,,,,,,,,,,,,,,,,,,,,,,,,,"[""comma""]",0,[0.849399999975958],89,0,89,0,1,,
,,,,,,,,,,,,5f28fe5de9735523a46857d1,40,Kobieta,2022-06-11_09h38.59.146,task,2021.1.4,MacIntel,59.98080614,6299f149e92ead563fba08ef,62a4463403d90e3f21f4f1ee,,,,,,,,,,,,,,,,,,,,,,,,,,,,,,,,,,,,,,,,,,,,,,,,,,,,,,,,,,,,,,,,,,,,,,,,,,,,,,,,,,,,,,,,,,,,"[""comma""]",0,[0.7662000000475473],90,0,90,0,1,,
