key_resp_15.keys,key_resp_15.rt,key_resp_13.keys,key_resp_13.corr,ranodm_loop.thisRepN,ranodm_loop.thisTrialN,ranodm_loop.thisN,ranodm_loop.thisIndex,ranodm_loop.ran,participant,Wiek*,Płeć,date,expName,psychopyVersion,OS,frameRate,study_id,session,key_resp_13.rt,key_resp_16.keys,key_resp_16.rt,key_resp_4.keys,key_resp_4.rt,next_letter.thisRepN,next_letter.thisTrialN,next_letter.thisN,next_letter.thisIndex,next_letter.ran,letter,simple_recall,key_resp_5.keys,key_resp_5.rt,simple_recall_corr,simple_recall_corrkeys,next_level.thisRepN,next_level.thisTrialN,next_level.thisN,next_level.thisIndex,next_level.ran,key_resp_2.keys,key_resp_2.rt,digit_answer,key_resp.keys,key_resp.corr,key_resp.rt,RT_list,next_equation.thisRepN,next_equation.thisTrialN,next_equation.thisN,next_equation.thisIndex,next_equation.ran,Task,Trial,Problem,Operation_answer,processing_score,sumRT,meanRT,sumdiff,sd,RT,key_resp_3.keys,key_resp_3.rt,repeat_practice.thisRepN,repeat_practice.thisTrialN,repeat_practice.thisN,repeat_practice.thisIndex,repeat_practice.ran,key_resp_6.keys,key_resp_6.rt,key_resp_11.keys,key_resp_11.corr,key_resp_11.rt,operation_correct,repeat_if_wrong_prac.thisRepN,repeat_if_wrong_prac.thisTrialN,repeat_if_wrong_prac.thisN,repeat_if_wrong_prac.thisIndex,repeat_if_wrong_prac.ran,span_size_prac.thisRepN,span_size_prac.thisTrialN,span_size_prac.thisN,span_size_prac.thisIndex,span_size_prac.ran,complex_recall_practice,key_resp_9.keys,key_resp_9.corr,key_resp_9.rt,complex_prac_corr,span_recall_prac.thisRepN,span_recall_prac.thisTrialN,span_recall_prac.thisN,span_recall_prac.thisIndex,span_recall_prac.ran,key_resp_10.keys,key_resp_10.rt,key_resp_7.keys,key_resp_7.corr,repeat_if_wrong.thisRepN,repeat_if_wrong.thisTrialN,repeat_if_wrong.thisN,repeat_if_wrong.thisIndex,repeat_if_wrong.ran,key_resp_7.rt,span_size.thisRepN,span_size.thisTrialN,span_size.thisN,span_size.thisIndex,span_size.ran,complex_recall,key_resp_8.keys,key_resp_8.corr,key_resp_8.rt,complex_recall_corr,complex_recall_corrkeys,span_recall.thisRepN,span_recall.thisTrialN,span_recall.thisN,span_recall.thisIndex,span_recall.ran,key_resp_12.keys,key_resp_12.rt
space,17.1504,,0,0,0,0,0,1,5f2d4ed77f1d552c576f64bf,22,Mężczyzna,2022-06-04_08h08.16.545,task,2021.1.4,Win32,74.97375918,628b806c463b948bc644b84f,629af6c7337ba002f49ae5b6,,,,,,,,,,,,,,,,,,,,,,,,,,,,,,,,,,,,,,,,,,,,,,,,,,,,,,,,,,,,,,,,,,,,,,,,,,,,,,,,,,,,,,,,,,,,,,,,,,,,,,,,
,,"[""comma""]",0,1,0,1,0,1,5f2d4ed77f1d552c576f64bf,22,Mężczyzna,2022-06-04_08h08.16.545,task,2021.1.4,Win32,74.97375918,628b806c463b948bc644b84f,629af6c7337ba002f49ae5b6,[0.6045000000000016],,,,,,,,,,,,,,,,,,,,,,,,,,,,,,,,,,,,,,,,,,,,,,,,,,,,,,,,,,,,,,,,,,,,,,,,,,,,,,,,,,,,,,,,,,,,,,,,,,,,,,,
,,"[""comma""]",0,2,0,2,0,1,5f2d4ed77f1d552c576f64bf,22,Mężczyzna,2022-06-04_08h08.16.545,task,2021.1.4,Win32,74.97375918,628b806c463b948bc644b84f,629af6c7337ba002f49ae5b6,[0.4214000000953746],,,,,,,,,,,,,,,,,,,,,,,,,,,,,,,,,,,,,,,,,,,,,,,,,,,,,,,,,,,,,,,,,,,,,,,,,,,,,,,,,,,,,,,,,,,,,,,,,,,,,,,
,,"[""period""]",0,3,0,3,0,1,5f2d4ed77f1d552c576f64bf,22,Mężczyzna,2022-06-04_08h08.16.545,task,2021.1.4,Win32,74.97375918,628b806c463b948bc644b84f,629af6c7337ba002f49ae5b6,[0.3152000000476818],,,,,,,,,,,,,,,,,,,,,,,,,,,,,,,,,,,,,,,,,,,,,,,,,,,,,,,,,,,,,,,,,,,,,,,,,,,,,,,,,,,,,,,,,,,,,,,,,,,,,,,
,,"[""period""]",0,4,0,4,0,1,5f2d4ed77f1d552c576f64bf,22,Mężczyzna,2022-06-04_08h08.16.545,task,2021.1.4,Win32,74.97375918,628b806c463b948bc644b84f,629af6c7337ba002f49ae5b6,[0.446200000047682],,,,,,,,,,,,,,,,,,,,,,,,,,,,,,,,,,,,,,,,,,,,,,,,,,,,,,,,,,,,,,,,,,,,,,,,,,,,,,,,,,,,,,,,,,,,,,,,,,,,,,,
,,"[""period""]",0,5,0,5,0,1,5f2d4ed77f1d552c576f64bf,22,Mężczyzna,2022-06-04_08h08.16.545,task,2021.1.4,Win32,74.97375918,628b806c463b948bc644b84f,629af6c7337ba002f49ae5b6,[0.3569999999999993],,,,,,,,,,,,,,,,,,,,,,,,,,,,,,,,,,,,,,,,,,,,,,,,,,,,,,,,,,,,,,,,,,,,,,,,,,,,,,,,,,,,,,,,,,,,,,,,,,,,,,,
,,"[""comma""]",0,6,0,6,0,1,5f2d4ed77f1d552c576f64bf,22,Mężczyzna,2022-06-04_08h08.16.545,task,2021.1.4,Win32,74.97375918,628b806c463b948bc644b84f,629af6c7337ba002f49ae5b6,[0.32399999999999807],,,,,,,,,,,,,,,,,,,,,,,,,,,,,,,,,,,,,,,,,,,,,,,,,,,,,,,,,,,,,,,,,,,,,,,,,,,,,,,,,,,,,,,,,,,,,,,,,,,,,,,
,,"[""period""]",0,7,0,7,0,1,5f2d4ed77f1d552c576f64bf,22,Mężczyzna,2022-06-04_08h08.16.545,task,2021.1.4,Win32,74.97375918,628b806c463b948bc644b84f,629af6c7337ba002f49ae5b6,[0.3417999999523147],,,,,,,,,,,,,,,,,,,,,,,,,,,,,,,,,,,,,,,,,,,,,,,,,,,,,,,,,,,,,,,,,,,,,,,,,,,,,,,,,,,,,,,,,,,,,,,,,,,,,,,
,,"[""comma""]",0,8,0,8,0,1,5f2d4ed77f1d552c576f64bf,22,Mężczyzna,2022-06-04_08h08.16.545,task,2021.1.4,Win32,74.97375918,628b806c463b948bc644b84f,629af6c7337ba002f49ae5b6,[0.28390000009535754],,,,,,,,,,,,,,,,,,,,,,,,,,,,,,,,,,,,,,,,,,,,,,,,,,,,,,,,,,,,,,,,,,,,,,,,,,,,,,,,,,,,,,,,,,,,,,,,,,,,,,,
,,"[""comma""]",0,9,0,9,0,1,5f2d4ed77f1d552c576f64bf,22,Mężczyzna,2022-06-04_08h08.16.545,task,2021.1.4,Win32,74.97375918,628b806c463b948bc644b84f,629af6c7337ba002f49ae5b6,[0.3025000000000091],,,,,,,,,,,,,,,,,,,,,,,,,,,,,,,,,,,,,,,,,,,,,,,,,,,,,,,,,,,,,,,,,,,,,,,,,,,,,,,,,,,,,,,,,,,,,,,,,,,,,,,
,,"[""period""]",0,10,0,10,0,1,5f2d4ed77f1d552c576f64bf,22,Mężczyzna,2022-06-04_08h08.16.545,task,2021.1.4,Win32,74.97375918,628b806c463b948bc644b84f,629af6c7337ba002f49ae5b6,[0.344699999809265],,,,,,,,,,,,,,,,,,,,,,,,,,,,,,,,,,,,,,,,,,,,,,,,,,,,,,,,,,,,,,,,,,,,,,,,,,,,,,,,,,,,,,,,,,,,,,,,,,,,,,,
,,"[""comma""]",0,11,0,11,0,1,5f2d4ed77f1d552c576f64bf,22,Mężczyzna,2022-06-04_08h08.16.545,task,2021.1.4,Win32,74.97375918,628b806c463b948bc644b84f,629af6c7337ba002f49ae5b6,[0.3378999998569583],,,,,,,,,,,,,,,,,,,,,,,,,,,,,,,,,,,,,,,,,,,,,,,,,,,,,,,,,,,,,,,,,,,,,,,,,,,,,,,,,,,,,,,,,,,,,,,,,,,,,,,
,,"[""comma""]",0,12,0,12,0,1,5f2d4ed77f1d552c576f64bf,22,Mężczyzna,2022-06-04_08h08.16.545,task,2021.1.4,Win32,74.97375918,628b806c463b948bc644b84f,629af6c7337ba002f49ae5b6,[0.3132999999523207],,,,,,,,,,,,,,,,,,,,,,,,,,,,,,,,,,,,,,,,,,,,,,,,,,,,,,,,,,,,,,,,,,,,,,,,,,,,,,,,,,,,,,,,,,,,,,,,,,,,,,,
,,"[""comma""]",0,13,0,13,0,1,5f2d4ed77f1d552c576f64bf,22,Mężczyzna,2022-06-04_08h08.16.545,task,2021.1.4,Win32,74.97375918,628b806c463b948bc644b84f,629af6c7337ba002f49ae5b6,[0.2864000000953695],,,,,,,,,,,,,,,,,,,,,,,,,,,,,,,,,,,,,,,,,,,,,,,,,,,,,,,,,,,,,,,,,,,,,,,,,,,,,,,,,,,,,,,,,,,,,,,,,,,,,,,
,,"[""period""]",0,14,0,14,0,1,5f2d4ed77f1d552c576f64bf,22,Mężczyzna,2022-06-04_08h08.16.545,task,2021.1.4,Win32,74.97375918,628b806c463b948bc644b84f,629af6c7337ba002f49ae5b6,[0.377599999904632],,,,,,,,,,,,,,,,,,,,,,,,,,,,,,,,,,,,,,,,,,,,,,,,,,,,,,,,,,,,,,,,,,,,,,,,,,,,,,,,,,,,,,,,,,,,,,,,,,,,,,,
,,"[""period""]",0,15,0,15,0,1,5f2d4ed77f1d552c576f64bf,22,Mężczyzna,2022-06-04_08h08.16.545,task,2021.1.4,Win32,74.97375918,628b806c463b948bc644b84f,629af6c7337ba002f49ae5b6,[0.3302999999523166],,,,,,,,,,,,,,,,,,,,,,,,,,,,,,,,,,,,,,,,,,,,,,,,,,,,,,,,,,,,,,,,,,,,,,,,,,,,,,,,,,,,,,,,,,,,,,,,,,,,,,,
,,"[""comma""]",0,16,0,16,0,1,5f2d4ed77f1d552c576f64bf,22,Mężczyzna,2022-06-04_08h08.16.545,task,2021.1.4,Win32,74.97375918,628b806c463b948bc644b84f,629af6c7337ba002f49ae5b6,[0.42600000000000193],,,,,,,,,,,,,,,,,,,,,,,,,,,,,,,,,,,,,,,,,,,,,,,,,,,,,,,,,,,,,,,,,,,,,,,,,,,,,,,,,,,,,,,,,,,,,,,,,,,,,,,
,,"[""period""]",0,17,0,17,0,1,5f2d4ed77f1d552c576f64bf,22,Mężczyzna,2022-06-04_08h08.16.545,task,2021.1.4,Win32,74.97375918,628b806c463b948bc644b84f,629af6c7337ba002f49ae5b6,[0.3552999999523081],,,,,,,,,,,,,,,,,,,,,,,,,,,,,,,,,,,,,,,,,,,,,,,,,,,,,,,,,,,,,,,,,,,,,,,,,,,,,,,,,,,,,,,,,,,,,,,,,,,,,,,
,,"[""period""]",0,18,0,18,0,1,5f2d4ed77f1d552c576f64bf,22,Mężczyzna,2022-06-04_08h08.16.545,task,2021.1.4,Win32,74.97375918,628b806c463b948bc644b84f,629af6c7337ba002f49ae5b6,[0.33150000000000546],,,,,,,,,,,,,,,,,,,,,,,,,,,,,,,,,,,,,,,,,,,,,,,,,,,,,,,,,,,,,,,,,,,,,,,,,,,,,,,,,,,,,,,,,,,,,,,,,,,,,,,
,,"[""comma""]",0,19,0,19,0,1,5f2d4ed77f1d552c576f64bf,22,Mężczyzna,2022-06-04_08h08.16.545,task,2021.1.4,Win32,74.97375918,628b806c463b948bc644b84f,629af6c7337ba002f49ae5b6,[0.3495999999046262],,,,,,,,,,,,,,,,,,,,,,,,,,,,,,,,,,,,,,,,,,,,,,,,,,,,,,,,,,,,,,,,,,,,,,,,,,,,,,,,,,,,,,,,,,,,,,,,,,,,,,,
,,"[""period""]",0,20,0,20,0,1,5f2d4ed77f1d552c576f64bf,22,Mężczyzna,2022-06-04_08h08.16.545,task,2021.1.4,Win32,74.97375918,628b806c463b948bc644b84f,629af6c7337ba002f49ae5b6,[0.28519999980926514],,,,,,,,,,,,,,,,,,,,,,,,,,,,,,,,,,,,,,,,,,,,,,,,,,,,,,,,,,,,,,,,,,,,,,,,,,,,,,,,,,,,,,,,,,,,,,,,,,,,,,,
,,"[""comma""]",0,21,0,21,0,1,5f2d4ed77f1d552c576f64bf,22,Mężczyzna,2022-06-04_08h08.16.545,task,2021.1.4,Win32,74.97375918,628b806c463b948bc644b84f,629af6c7337ba002f49ae5b6,[0.369800000190736],,,,,,,,,,,,,,,,,,,,,,,,,,,,,,,,,,,,,,,,,,,,,,,,,,,,,,,,,,,,,,,,,,,,,,,,,,,,,,,,,,,,,,,,,,,,,,,,,,,,,,,
,,"[""comma""]",0,22,0,22,0,1,5f2d4ed77f1d552c576f64bf,22,Mężczyzna,2022-06-04_08h08.16.545,task,2021.1.4,Win32,74.97375918,628b806c463b948bc644b84f,629af6c7337ba002f49ae5b6,[0.34020000004768747],,,,,,,,,,,,,,,,,,,,,,,,,,,,,,,,,,,,,,,,,,,,,,,,,,,,,,,,,,,,,,,,,,,,,,,,,,,,,,,,,,,,,,,,,,,,,,,,,,,,,,,
,,"[""period""]",0,23,0,23,0,1,5f2d4ed77f1d552c576f64bf,22,Mężczyzna,2022-06-04_08h08.16.545,task,2021.1.4,Win32,74.97375918,628b806c463b948bc644b84f,629af6c7337ba002f49ae5b6,[0.34950000000000614],,,,,,,,,,,,,,,,,,,,,,,,,,,,,,,,,,,,,,,,,,,,,,,,,,,,,,,,,,,,,,,,,,,,,,,,,,,,,,,,,,,,,,,,,,,,,,,,,,,,,,,
,,"[""period""]",0,24,0,24,0,1,5f2d4ed77f1d552c576f64bf,22,Mężczyzna,2022-06-04_08h08.16.545,task,2021.1.4,Win32,74.97375918,628b806c463b948bc644b84f,629af6c7337ba002f49ae5b6,[0.32499999999998863],,,,,,,,,,,,,,,,,,,,,,,,,,,,,,,,,,,,,,,,,,,,,,,,,,,,,,,,,,,,,,,,,,,,,,,,,,,,,,,,,,,,,,,,,,,,,,,,,,,,,,,
,,"[""period""]",0,25,0,25,0,1,5f2d4ed77f1d552c576f64bf,22,Mężczyzna,2022-06-04_08h08.16.545,task,2021.1.4,Win32,74.97375918,628b806c463b948bc644b84f,629af6c7337ba002f49ae5b6,[0.46129999995230264],,,,,,,,,,,,,,,,,,,,,,,,,,,,,,,,,,,,,,,,,,,,,,,,,,,,,,,,,,,,,,,,,,,,,,,,,,,,,,,,,,,,,,,,,,,,,,,,,,,,,,,
,,"[""comma""]",0,26,0,26,0,1,5f2d4ed77f1d552c576f64bf,22,Mężczyzna,2022-06-04_08h08.16.545,task,2021.1.4,Win32,74.97375918,628b806c463b948bc644b84f,629af6c7337ba002f49ae5b6,[0.4587999999523049],,,,,,,,,,,,,,,,,,,,,,,,,,,,,,,,,,,,,,,,,,,,,,,,,,,,,,,,,,,,,,,,,,,,,,,,,,,,,,,,,,,,,,,,,,,,,,,,,,,,,,,
,,"[""comma""]",0,27,0,27,0,1,5f2d4ed77f1d552c576f64bf,22,Mężczyzna,2022-06-04_08h08.16.545,task,2021.1.4,Win32,74.97375918,628b806c463b948bc644b84f,629af6c7337ba002f49ae5b6,[0.4842999999523272],,,,,,,,,,,,,,,,,,,,,,,,,,,,,,,,,,,,,,,,,,,,,,,,,,,,,,,,,,,,,,,,,,,,,,,,,,,,,,,,,,,,,,,,,,,,,,,,,,,,,,,
,,"[""comma""]",0,28,0,28,0,1,5f2d4ed77f1d552c576f64bf,22,Mężczyzna,2022-06-04_08h08.16.545,task,2021.1.4,Win32,74.97375918,628b806c463b948bc644b84f,629af6c7337ba002f49ae5b6,[0.34239999985695135],,,,,,,,,,,,,,,,,,,,,,,,,,,,,,,,,,,,,,,,,,,,,,,,,,,,,,,,,,,,,,,,,,,,,,,,,,,,,,,,,,,,,,,,,,,,,,,,,,,,,,,
,,"[""comma""]",0,29,0,29,0,1,5f2d4ed77f1d552c576f64bf,22,Mężczyzna,2022-06-04_08h08.16.545,task,2021.1.4,Win32,74.97375918,628b806c463b948bc644b84f,629af6c7337ba002f49ae5b6,[0.3579000000953556],,,,,,,,,,,,,,,,,,,,,,,,,,,,,,,,,,,,,,,,,,,,,,,,,,,,,,,,,,,,,,,,,,,,,,,,,,,,,,,,,,,,,,,,,,,,,,,,,,,,,,,
,,"[""comma""]",0,30,0,30,0,1,5f2d4ed77f1d552c576f64bf,22,Mężczyzna,2022-06-04_08h08.16.545,task,2021.1.4,Win32,74.97375918,628b806c463b948bc644b84f,629af6c7337ba002f49ae5b6,[0.31090000009535856],,,,,,,,,,,,,,,,,,,,,,,,,,,,,,,,,,,,,,,,,,,,,,,,,,,,,,,,,,,,,,,,,,,,,,,,,,,,,,,,,,,,,,,,,,,,,,,,,,,,,,,
,,"[""period""]",0,31,0,31,0,1,5f2d4ed77f1d552c576f64bf,22,Mężczyzna,2022-06-04_08h08.16.545,task,2021.1.4,Win32,74.97375918,628b806c463b948bc644b84f,629af6c7337ba002f49ae5b6,[0.6982000000476773],,,,,,,,,,,,,,,,,,,,,,,,,,,,,,,,,,,,,,,,,,,,,,,,,,,,,,,,,,,,,,,,,,,,,,,,,,,,,,,,,,,,,,,,,,,,,,,,,,,,,,,
,,"[""period""]",0,32,0,32,0,1,5f2d4ed77f1d552c576f64bf,22,Mężczyzna,2022-06-04_08h08.16.545,task,2021.1.4,Win32,74.97375918,628b806c463b948bc644b84f,629af6c7337ba002f49ae5b6,[0.592000000000013],,,,,,,,,,,,,,,,,,,,,,,,,,,,,,,,,,,,,,,,,,,,,,,,,,,,,,,,,,,,,,,,,,,,,,,,,,,,,,,,,,,,,,,,,,,,,,,,,,,,,,,
,,"[""comma""]",0,33,0,33,0,1,5f2d4ed77f1d552c576f64bf,22,Mężczyzna,2022-06-04_08h08.16.545,task,2021.1.4,Win32,74.97375918,628b806c463b948bc644b84f,629af6c7337ba002f49ae5b6,[0.5127999999523354],,,,,,,,,,,,,,,,,,,,,,,,,,,,,,,,,,,,,,,,,,,,,,,,,,,,,,,,,,,,,,,,,,,,,,,,,,,,,,,,,,,,,,,,,,,,,,,,,,,,,,,
,,"[""period""]",0,34,0,34,0,1,5f2d4ed77f1d552c576f64bf,22,Mężczyzna,2022-06-04_08h08.16.545,task,2021.1.4,Win32,74.97375918,628b806c463b948bc644b84f,629af6c7337ba002f49ae5b6,[0.3912000000476894],,,,,,,,,,,,,,,,,,,,,,,,,,,,,,,,,,,,,,,,,,,,,,,,,,,,,,,,,,,,,,,,,,,,,,,,,,,,,,,,,,,,,,,,,,,,,,,,,,,,,,,
,,"[""comma""]",0,35,0,35,0,1,5f2d4ed77f1d552c576f64bf,22,Mężczyzna,2022-06-04_08h08.16.545,task,2021.1.4,Win32,74.97375918,628b806c463b948bc644b84f,629af6c7337ba002f49ae5b6,[0.5547000000476885],,,,,,,,,,,,,,,,,,,,,,,,,,,,,,,,,,,,,,,,,,,,,,,,,,,,,,,,,,,,,,,,,,,,,,,,,,,,,,,,,,,,,,,,,,,,,,,,,,,,,,,
,,"[""period""]",0,36,0,36,0,1,5f2d4ed77f1d552c576f64bf,22,Mężczyzna,2022-06-04_08h08.16.545,task,2021.1.4,Win32,74.97375918,628b806c463b948bc644b84f,629af6c7337ba002f49ae5b6,[0.5109999999999957],,,,,,,,,,,,,,,,,,,,,,,,,,,,,,,,,,,,,,,,,,,,,,,,,,,,,,,,,,,,,,,,,,,,,,,,,,,,,,,,,,,,,,,,,,,,,,,,,,,,,,,
,,"[""comma""]",0,37,0,37,0,1,5f2d4ed77f1d552c576f64bf,22,Mężczyzna,2022-06-04_08h08.16.545,task,2021.1.4,Win32,74.97375918,628b806c463b948bc644b84f,629af6c7337ba002f49ae5b6,[0.5524999999999807],,,,,,,,,,,,,,,,,,,,,,,,,,,,,,,,,,,,,,,,,,,,,,,,,,,,,,,,,,,,,,,,,,,,,,,,,,,,,,,,,,,,,,,,,,,,,,,,,,,,,,,
,,"[""period""]",0,38,0,38,0,1,5f2d4ed77f1d552c576f64bf,22,Mężczyzna,2022-06-04_08h08.16.545,task,2021.1.4,Win32,74.97375918,628b806c463b948bc644b84f,629af6c7337ba002f49ae5b6,[0.6459999999999866],,,,,,,,,,,,,,,,,,,,,,,,,,,,,,,,,,,,,,,,,,,,,,,,,,,,,,,,,,,,,,,,,,,,,,,,,,,,,,,,,,,,,,,,,,,,,,,,,,,,,,,
,,"[""period""]",0,39,0,39,0,1,5f2d4ed77f1d552c576f64bf,22,Mężczyzna,2022-06-04_08h08.16.545,task,2021.1.4,Win32,74.97375918,628b806c463b948bc644b84f,629af6c7337ba002f49ae5b6,[0.5574000000953561],,,,,,,,,,,,,,,,,,,,,,,,,,,,,,,,,,,,,,,,,,,,,,,,,,,,,,,,,,,,,,,,,,,,,,,,,,,,,,,,,,,,,,,,,,,,,,,,,,,,,,,
,,"[""period""]",0,40,0,40,0,1,5f2d4ed77f1d552c576f64bf,22,Mężczyzna,2022-06-04_08h08.16.545,task,2021.1.4,Win32,74.97375918,628b806c463b948bc644b84f,629af6c7337ba002f49ae5b6,[0.5317000000476639],,,,,,,,,,,,,,,,,,,,,,,,,,,,,,,,,,,,,,,,,,,,,,,,,,,,,,,,,,,,,,,,,,,,,,,,,,,,,,,,,,,,,,,,,,,,,,,,,,,,,,,
,,"[""period""]",0,41,0,41,0,1,5f2d4ed77f1d552c576f64bf,22,Mężczyzna,2022-06-04_08h08.16.545,task,2021.1.4,Win32,74.97375918,628b806c463b948bc644b84f,629af6c7337ba002f49ae5b6,[0.5541000001430518],,,,,,,,,,,,,,,,,,,,,,,,,,,,,,,,,,,,,,,,,,,,,,,,,,,,,,,,,,,,,,,,,,,,,,,,,,,,,,,,,,,,,,,,,,,,,,,,,,,,,,,
,,"[""comma""]",0,42,0,42,0,1,5f2d4ed77f1d552c576f64bf,22,Mężczyzna,2022-06-04_08h08.16.545,task,2021.1.4,Win32,74.97375918,628b806c463b948bc644b84f,629af6c7337ba002f49ae5b6,[0.47659999990463575],,,,,,,,,,,,,,,,,,,,,,,,,,,,,,,,,,,,,,,,,,,,,,,,,,,,,,,,,,,,,,,,,,,,,,,,,,,,,,,,,,,,,,,,,,,,,,,,,,,,,,,
,,"[""comma""]",0,43,0,43,0,1,5f2d4ed77f1d552c576f64bf,22,Mężczyzna,2022-06-04_08h08.16.545,task,2021.1.4,Win32,74.97375918,628b806c463b948bc644b84f,629af6c7337ba002f49ae5b6,[0.46060000014307434],,,,,,,,,,,,,,,,,,,,,,,,,,,,,,,,,,,,,,,,,,,,,,,,,,,,,,,,,,,,,,,,,,,,,,,,,,,,,,,,,,,,,,,,,,,,,,,,,,,,,,,
,,"[""period""]",0,44,0,44,0,1,5f2d4ed77f1d552c576f64bf,22,Mężczyzna,2022-06-04_08h08.16.545,task,2021.1.4,Win32,74.97375918,628b806c463b948bc644b84f,629af6c7337ba002f49ae5b6,[0.49860000014305683],,,,,,,,,,,,,,,,,,,,,,,,,,,,,,,,,,,,,,,,,,,,,,,,,,,,,,,,,,,,,,,,,,,,,,,,,,,,,,,,,,,,,,,,,,,,,,,,,,,,,,,
,,"[""comma""]",0,45,0,45,0,1,5f2d4ed77f1d552c576f64bf,22,Mężczyzna,2022-06-04_08h08.16.545,task,2021.1.4,Win32,74.97375918,628b806c463b948bc644b84f,629af6c7337ba002f49ae5b6,[0.5300000000000011],,,,,,,,,,,,,,,,,,,,,,,,,,,,,,,,,,,,,,,,,,,,,,,,,,,,,,,,,,,,,,,,,,,,,,,,,,,,,,,,,,,,,,,,,,,,,,,,,,,,,,,
,,"[""period""]",0,46,0,46,0,1,5f2d4ed77f1d552c576f64bf,22,Mężczyzna,2022-06-04_08h08.16.545,task,2021.1.4,Win32,74.97375918,628b806c463b948bc644b84f,629af6c7337ba002f49ae5b6,[0.4915999999046221],,,,,,,,,,,,,,,,,,,,,,,,,,,,,,,,,,,,,,,,,,,,,,,,,,,,,,,,,,,,,,,,,,,,,,,,,,,,,,,,,,,,,,,,,,,,,,,,,,,,,,,
,,"[""comma""]",0,47,0,47,0,1,5f2d4ed77f1d552c576f64bf,22,Mężczyzna,2022-06-04_08h08.16.545,task,2021.1.4,Win32,74.97375918,628b806c463b948bc644b84f,629af6c7337ba002f49ae5b6,[0.6318999998569552],,,,,,,,,,,,,,,,,,,,,,,,,,,,,,,,,,,,,,,,,,,,,,,,,,,,,,,,,,,,,,,,,,,,,,,,,,,,,,,,,,,,,,,,,,,,,,,,,,,,,,,
,,"[""comma""]",0,48,0,48,0,1,5f2d4ed77f1d552c576f64bf,22,Mężczyzna,2022-06-04_08h08.16.545,task,2021.1.4,Win32,74.97375918,628b806c463b948bc644b84f,629af6c7337ba002f49ae5b6,[0.7951999998092845],,,,,,,,,,,,,,,,,,,,,,,,,,,,,,,,,,,,,,,,,,,,,,,,,,,,,,,,,,,,,,,,,,,,,,,,,,,,,,,,,,,,,,,,,,,,,,,,,,,,,,,
,,"[""period""]",0,49,0,49,0,1,5f2d4ed77f1d552c576f64bf,22,Mężczyzna,2022-06-04_08h08.16.545,task,2021.1.4,Win32,74.97375918,628b806c463b948bc644b84f,629af6c7337ba002f49ae5b6,[0.60489999985694],,,,,,,,,,,,,,,,,,,,,,,,,,,,,,,,,,,,,,,,,,,,,,,,,,,,,,,,,,,,,,,,,,,,,,,,,,,,,,,,,,,,,,,,,,,,,,,,,,,,,,,
,,"[""period""]",0,50,0,50,0,1,5f2d4ed77f1d552c576f64bf,22,Mężczyzna,2022-06-04_08h08.16.545,task,2021.1.4,Win32,74.97375918,628b806c463b948bc644b84f,629af6c7337ba002f49ae5b6,[0.3913999998569295],,,,,,,,,,,,,,,,,,,,,,,,,,,,,,,,,,,,,,,,,,,,,,,,,,,,,,,,,,,,,,,,,,,,,,,,,,,,,,,,,,,,,,,,,,,,,,,,,,,,,,,
,,"[""period""]",0,51,0,51,0,1,5f2d4ed77f1d552c576f64bf,22,Mężczyzna,2022-06-04_08h08.16.545,task,2021.1.4,Win32,74.97375918,628b806c463b948bc644b84f,629af6c7337ba002f49ae5b6,[0.2887999999523174],,,,,,,,,,,,,,,,,,,,,,,,,,,,,,,,,,,,,,,,,,,,,,,,,,,,,,,,,,,,,,,,,,,,,,,,,,,,,,,,,,,,,,,,,,,,,,,,,,,,,,,
,,"[""period""]",0,52,0,52,0,1,5f2d4ed77f1d552c576f64bf,22,Mężczyzna,2022-06-04_08h08.16.545,task,2021.1.4,Win32,74.97375918,628b806c463b948bc644b84f,629af6c7337ba002f49ae5b6,[0.47100000000000364],,,,,,,,,,,,,,,,,,,,,,,,,,,,,,,,,,,,,,,,,,,,,,,,,,,,,,,,,,,,,,,,,,,,,,,,,,,,,,,,,,,,,,,,,,,,,,,,,,,,,,,
,,"[""comma""]",0,53,0,53,0,1,5f2d4ed77f1d552c576f64bf,22,Mężczyzna,2022-06-04_08h08.16.545,task,2021.1.4,Win32,74.97375918,628b806c463b948bc644b84f,629af6c7337ba002f49ae5b6,[0.38520000004766075],,,,,,,,,,,,,,,,,,,,,,,,,,,,,,,,,,,,,,,,,,,,,,,,,,,,,,,,,,,,,,,,,,,,,,,,,,,,,,,,,,,,,,,,,,,,,,,,,,,,,,,
,,"[""period""]",0,54,0,54,0,1,5f2d4ed77f1d552c576f64bf,22,Mężczyzna,2022-06-04_08h08.16.545,task,2021.1.4,Win32,74.97375918,628b806c463b948bc644b84f,629af6c7337ba002f49ae5b6,[0.35250000000002046],,,,,,,,,,,,,,,,,,,,,,,,,,,,,,,,,,,,,,,,,,,,,,,,,,,,,,,,,,,,,,,,,,,,,,,,,,,,,,,,,,,,,,,,,,,,,,,,,,,,,,,
,,"[""period""]",0,55,0,55,0,1,5f2d4ed77f1d552c576f64bf,22,Mężczyzna,2022-06-04_08h08.16.545,task,2021.1.4,Win32,74.97375918,628b806c463b948bc644b84f,629af6c7337ba002f49ae5b6,[0.3137999999523231],,,,,,,,,,,,,,,,,,,,,,,,,,,,,,,,,,,,,,,,,,,,,,,,,,,,,,,,,,,,,,,,,,,,,,,,,,,,,,,,,,,,,,,,,,,,,,,,,,,,,,,
,,"[""comma""]",0,56,0,56,0,1,5f2d4ed77f1d552c576f64bf,22,Mężczyzna,2022-06-04_08h08.16.545,task,2021.1.4,Win32,74.97375918,628b806c463b948bc644b84f,629af6c7337ba002f49ae5b6,[0.3509999999999991],,,,,,,,,,,,,,,,,,,,,,,,,,,,,,,,,,,,,,,,,,,,,,,,,,,,,,,,,,,,,,,,,,,,,,,,,,,,,,,,,,,,,,,,,,,,,,,,,,,,,,,
,,"[""period""]",0,57,0,57,0,1,5f2d4ed77f1d552c576f64bf,22,Mężczyzna,2022-06-04_08h08.16.545,task,2021.1.4,Win32,74.97375918,628b806c463b948bc644b84f,629af6c7337ba002f49ae5b6,[0.364599999904641],,,,,,,,,,,,,,,,,,,,,,,,,,,,,,,,,,,,,,,,,,,,,,,,,,,,,,,,,,,,,,,,,,,,,,,,,,,,,,,,,,,,,,,,,,,,,,,,,,,,,,,
,,"[""comma""]",0,58,0,58,0,1,5f2d4ed77f1d552c576f64bf,22,Mężczyzna,2022-06-04_08h08.16.545,task,2021.1.4,Win32,74.97375918,628b806c463b948bc644b84f,629af6c7337ba002f49ae5b6,[0.4843000001907285],,,,,,,,,,,,,,,,,,,,,,,,,,,,,,,,,,,,,,,,,,,,,,,,,,,,,,,,,,,,,,,,,,,,,,,,,,,,,,,,,,,,,,,,,,,,,,,,,,,,,,,
,,"[""comma""]",0,59,0,59,0,1,5f2d4ed77f1d552c576f64bf,22,Mężczyzna,2022-06-04_08h08.16.545,task,2021.1.4,Win32,74.97375918,628b806c463b948bc644b84f,629af6c7337ba002f49ae5b6,[0.3693999998569666],,,,,,,,,,,,,,,,,,,,,,,,,,,,,,,,,,,,,,,,,,,,,,,,,,,,,,,,,,,,,,,,,,,,,,,,,,,,,,,,,,,,,,,,,,,,,,,,,,,,,,,
,,"[""period""]",0,60,0,60,0,1,5f2d4ed77f1d552c576f64bf,22,Mężczyzna,2022-06-04_08h08.16.545,task,2021.1.4,Win32,74.97375918,628b806c463b948bc644b84f,629af6c7337ba002f49ae5b6,[0.44390000009536834],,,,,,,,,,,,,,,,,,,,,,,,,,,,,,,,,,,,,,,,,,,,,,,,,,,,,,,,,,,,,,,,,,,,,,,,,,,,,,,,,,,,,,,,,,,,,,,,,,,,,,,
,,"[""period""]",0,61,0,61,0,1,5f2d4ed77f1d552c576f64bf,22,Mężczyzna,2022-06-04_08h08.16.545,task,2021.1.4,Win32,74.97375918,628b806c463b948bc644b84f,629af6c7337ba002f49ae5b6,[0.37879999995232083],,,,,,,,,,,,,,,,,,,,,,,,,,,,,,,,,,,,,,,,,,,,,,,,,,,,,,,,,,,,,,,,,,,,,,,,,,,,,,,,,,,,,,,,,,,,,,,,,,,,,,,
,,"[""comma""]",0,62,0,62,0,1,5f2d4ed77f1d552c576f64bf,22,Mężczyzna,2022-06-04_08h08.16.545,task,2021.1.4,Win32,74.97375918,628b806c463b948bc644b84f,629af6c7337ba002f49ae5b6,[0.40449999999998454],,,,,,,,,,,,,,,,,,,,,,,,,,,,,,,,,,,,,,,,,,,,,,,,,,,,,,,,,,,,,,,,,,,,,,,,,,,,,,,,,,,,,,,,,,,,,,,,,,,,,,,
,,"[""comma""]",0,63,0,63,0,1,5f2d4ed77f1d552c576f64bf,22,Mężczyzna,2022-06-04_08h08.16.545,task,2021.1.4,Win32,74.97375918,628b806c463b948bc644b84f,629af6c7337ba002f49ae5b6,[0.47170000004766166],,,,,,,,,,,,,,,,,,,,,,,,,,,,,,,,,,,,,,,,,,,,,,,,,,,,,,,,,,,,,,,,,,,,,,,,,,,,,,,,,,,,,,,,,,,,,,,,,,,,,,,
,,"[""comma""]",0,64,0,64,0,1,5f2d4ed77f1d552c576f64bf,22,Mężczyzna,2022-06-04_08h08.16.545,task,2021.1.4,Win32,74.97375918,628b806c463b948bc644b84f,629af6c7337ba002f49ae5b6,[0.5314999999999941],,,,,,,,,,,,,,,,,,,,,,,,,,,,,,,,,,,,,,,,,,,,,,,,,,,,,,,,,,,,,,,,,,,,,,,,,,,,,,,,,,,,,,,,,,,,,,,,,,,,,,,
,,"[""period""]",0,65,0,65,0,1,5f2d4ed77f1d552c576f64bf,22,Mężczyzna,2022-06-04_08h08.16.545,task,2021.1.4,Win32,74.97375918,628b806c463b948bc644b84f,629af6c7337ba002f49ae5b6,[0.47700000000000387],,,,,,,,,,,,,,,,,,,,,,,,,,,,,,,,,,,,,,,,,,,,,,,,,,,,,,,,,,,,,,,,,,,,,,,,,,,,,,,,,,,,,,,,,,,,,,,,,,,,,,,
,,"[""period""]",0,66,0,66,0,1,5f2d4ed77f1d552c576f64bf,22,Mężczyzna,2022-06-04_08h08.16.545,task,2021.1.4,Win32,74.97375918,628b806c463b948bc644b84f,629af6c7337ba002f49ae5b6,[0.5374000000953743],,,,,,,,,,,,,,,,,,,,,,,,,,,,,,,,,,,,,,,,,,,,,,,,,,,,,,,,,,,,,,,,,,,,,,,,,,,,,,,,,,,,,,,,,,,,,,,,,,,,,,,
,,"[""period""]",0,67,0,67,0,1,5f2d4ed77f1d552c576f64bf,22,Mężczyzna,2022-06-04_08h08.16.545,task,2021.1.4,Win32,74.97375918,628b806c463b948bc644b84f,629af6c7337ba002f49ae5b6,[0.6057000000476762],,,,,,,,,,,,,,,,,,,,,,,,,,,,,,,,,,,,,,,,,,,,,,,,,,,,,,,,,,,,,,,,,,,,,,,,,,,,,,,,,,,,,,,,,,,,,,,,,,,,,,,
,,"[""period""]",0,68,0,68,0,1,5f2d4ed77f1d552c576f64bf,22,Mężczyzna,2022-06-04_08h08.16.545,task,2021.1.4,Win32,74.97375918,628b806c463b948bc644b84f,629af6c7337ba002f49ae5b6,[0.5539000000953536],,,,,,,,,,,,,,,,,,,,,,,,,,,,,,,,,,,,,,,,,,,,,,,,,,,,,,,,,,,,,,,,,,,,,,,,,,,,,,,,,,,,,,,,,,,,,,,,,,,,,,,
,,"[""comma""]",0,69,0,69,0,1,5f2d4ed77f1d552c576f64bf,22,Mężczyzna,2022-06-04_08h08.16.545,task,2021.1.4,Win32,74.97375918,628b806c463b948bc644b84f,629af6c7337ba002f49ae5b6,[0.47180000019073987],,,,,,,,,,,,,,,,,,,,,,,,,,,,,,,,,,,,,,,,,,,,,,,,,,,,,,,,,,,,,,,,,,,,,,,,,,,,,,,,,,,,,,,,,,,,,,,,,,,,,,,
,,"[""comma""]",0,70,0,70,0,1,5f2d4ed77f1d552c576f64bf,22,Mężczyzna,2022-06-04_08h08.16.545,task,2021.1.4,Win32,74.97375918,628b806c463b948bc644b84f,629af6c7337ba002f49ae5b6,[0.6760999999046362],,,,,,,,,,,,,,,,,,,,,,,,,,,,,,,,,,,,,,,,,,,,,,,,,,,,,,,,,,,,,,,,,,,,,,,,,,,,,,,,,,,,,,,,,,,,,,,,,,,,,,,
,,"[""period""]",0,71,0,71,0,1,5f2d4ed77f1d552c576f64bf,22,Mężczyzna,2022-06-04_08h08.16.545,task,2021.1.4,Win32,74.97375918,628b806c463b948bc644b84f,629af6c7337ba002f49ae5b6,[0.5523000001907405],,,,,,,,,,,,,,,,,,,,,,,,,,,,,,,,,,,,,,,,,,,,,,,,,,,,,,,,,,,,,,,,,,,,,,,,,,,,,,,,,,,,,,,,,,,,,,,,,,,,,,,
,,"[""comma""]",0,72,0,72,0,1,5f2d4ed77f1d552c576f64bf,22,Mężczyzna,2022-06-04_08h08.16.545,task,2021.1.4,Win32,74.97375918,628b806c463b948bc644b84f,629af6c7337ba002f49ae5b6,[0.40850000000000364],,,,,,,,,,,,,,,,,,,,,,,,,,,,,,,,,,,,,,,,,,,,,,,,,,,,,,,,,,,,,,,,,,,,,,,,,,,,,,,,,,,,,,,,,,,,,,,,,,,,,,,
,,"[""period""]",0,73,0,73,0,1,5f2d4ed77f1d552c576f64bf,22,Mężczyzna,2022-06-04_08h08.16.545,task,2021.1.4,Win32,74.97375918,628b806c463b948bc644b84f,629af6c7337ba002f49ae5b6,[0.3150999999046178],,,,,,,,,,,,,,,,,,,,,,,,,,,,,,,,,,,,,,,,,,,,,,,,,,,,,,,,,,,,,,,,,,,,,,,,,,,,,,,,,,,,,,,,,,,,,,,,,,,,,,,
,,"[""comma""]",0,74,0,74,0,1,5f2d4ed77f1d552c576f64bf,22,Mężczyzna,2022-06-04_08h08.16.545,task,2021.1.4,Win32,74.97375918,628b806c463b948bc644b84f,629af6c7337ba002f49ae5b6,[0.31050000000001887],,,,,,,,,,,,,,,,,,,,,,,,,,,,,,,,,,,,,,,,,,,,,,,,,,,,,,,,,,,,,,,,,,,,,,,,,,,,,,,,,,,,,,,,,,,,,,,,,,,,,,,
,,"[""period""]",0,75,0,75,0,1,5f2d4ed77f1d552c576f64bf,22,Mężczyzna,2022-06-04_08h08.16.545,task,2021.1.4,Win32,74.97375918,628b806c463b948bc644b84f,629af6c7337ba002f49ae5b6,[0.08879999995230037],,,,,,,,,,,,,,,,,,,,,,,,,,,,,,,,,,,,,,,,,,,,,,,,,,,,,,,,,,,,,,,,,,,,,,,,,,,,,,,,,,,,,,,,,,,,,,,,,,,,,,,
,,"[""period""]",0,76,0,76,0,1,5f2d4ed77f1d552c576f64bf,22,Mężczyzna,2022-06-04_08h08.16.545,task,2021.1.4,Win32,74.97375918,628b806c463b948bc644b84f,629af6c7337ba002f49ae5b6,[0.43239999985692634],,,,,,,,,,,,,,,,,,,,,,,,,,,,,,,,,,,,,,,,,,,,,,,,,,,,,,,,,,,,,,,,,,,,,,,,,,,,,,,,,,,,,,,,,,,,,,,,,,,,,,,
,,"[""comma""]",0,77,0,77,0,1,5f2d4ed77f1d552c576f64bf,22,Mężczyzna,2022-06-04_08h08.16.545,task,2021.1.4,Win32,74.97375918,628b806c463b948bc644b84f,629af6c7337ba002f49ae5b6,[0.4444000000953565],,,,,,,,,,,,,,,,,,,,,,,,,,,,,,,,,,,,,,,,,,,,,,,,,,,,,,,,,,,,,,,,,,,,,,,,,,,,,,,,,,,,,,,,,,,,,,,,,,,,,,,
,,"[""comma""]",0,78,0,78,0,1,5f2d4ed77f1d552c576f64bf,22,Mężczyzna,2022-06-04_08h08.16.545,task,2021.1.4,Win32,74.97375918,628b806c463b948bc644b84f,629af6c7337ba002f49ae5b6,[0.6722999999523154],,,,,,,,,,,,,,,,,,,,,,,,,,,,,,,,,,,,,,,,,,,,,,,,,,,,,,,,,,,,,,,,,,,,,,,,,,,,,,,,,,,,,,,,,,,,,,,,,,,,,,,
,,"[""comma""]",0,79,0,79,0,1,5f2d4ed77f1d552c576f64bf,22,Mężczyzna,2022-06-04_08h08.16.545,task,2021.1.4,Win32,74.97375918,628b806c463b948bc644b84f,629af6c7337ba002f49ae5b6,[0.4720000000000084],,,,,,,,,,,,,,,,,,,,,,,,,,,,,,,,,,,,,,,,,,,,,,,,,,,,,,,,,,,,,,,,,,,,,,,,,,,,,,,,,,,,,,,,,,,,,,,,,,,,,,,
,,"[""period""]",0,80,0,80,0,1,5f2d4ed77f1d552c576f64bf,22,Mężczyzna,2022-06-04_08h08.16.545,task,2021.1.4,Win32,74.97375918,628b806c463b948bc644b84f,629af6c7337ba002f49ae5b6,[0.3936999998092574],,,,,,,,,,,,,,,,,,,,,,,,,,,,,,,,,,,,,,,,,,,,,,,,,,,,,,,,,,,,,,,,,,,,,,,,,,,,,,,,,,,,,,,,,,,,,,,,,,,,,,,
,,"[""comma""]",0,81,0,81,0,1,5f2d4ed77f1d552c576f64bf,22,Mężczyzna,2022-06-04_08h08.16.545,task,2021.1.4,Win32,74.97375918,628b806c463b948bc644b84f,629af6c7337ba002f49ae5b6,[0.5234999999999843],,,,,,,,,,,,,,,,,,,,,,,,,,,,,,,,,,,,,,,,,,,,,,,,,,,,,,,,,,,,,,,,,,,,,,,,,,,,,,,,,,,,,,,,,,,,,,,,,,,,,,,
,,"[""period""]",0,82,0,82,0,1,5f2d4ed77f1d552c576f64bf,22,Mężczyzna,2022-06-04_08h08.16.545,task,2021.1.4,Win32,74.97375918,628b806c463b948bc644b84f,629af6c7337ba002f49ae5b6,[0.6072999999523176],,,,,,,,,,,,,,,,,,,,,,,,,,,,,,,,,,,,,,,,,,,,,,,,,,,,,,,,,,,,,,,,,,,,,,,,,,,,,,,,,,,,,,,,,,,,,,,,,,,,,,,
,,"[""comma""]",0,83,0,83,0,1,5f2d4ed77f1d552c576f64bf,22,Mężczyzna,2022-06-04_08h08.16.545,task,2021.1.4,Win32,74.97375918,628b806c463b948bc644b84f,629af6c7337ba002f49ae5b6,[0.488700000047686],,,,,,,,,,,,,,,,,,,,,,,,,,,,,,,,,,,,,,,,,,,,,,,,,,,,,,,,,,,,,,,,,,,,,,,,,,,,,,,,,,,,,,,,,,,,,,,,,,,,,,,
,,"[""period""]",0,84,0,84,0,1,5f2d4ed77f1d552c576f64bf,22,Mężczyzna,2022-06-04_08h08.16.545,task,2021.1.4,Win32,74.97375918,628b806c463b948bc644b84f,629af6c7337ba002f49ae5b6,[0.5442999999523295],,,,,,,,,,,,,,,,,,,,,,,,,,,,,,,,,,,,,,,,,,,,,,,,,,,,,,,,,,,,,,,,,,,,,,,,,,,,,,,,,,,,,,,,,,,,,,,,,,,,,,,
,,"[""period""]",0,85,0,85,0,1,5f2d4ed77f1d552c576f64bf,22,Mężczyzna,2022-06-04_08h08.16.545,task,2021.1.4,Win32,74.97375918,628b806c463b948bc644b84f,629af6c7337ba002f49ae5b6,[0.6247000000476817],,,,,,,,,,,,,,,,,,,,,,,,,,,,,,,,,,,,,,,,,,,,,,,,,,,,,,,,,,,,,,,,,,,,,,,,,,,,,,,,,,,,,,,,,,,,,,,,,,,,,,,
,,"[""period""]",0,86,0,86,0,1,5f2d4ed77f1d552c576f64bf,22,Mężczyzna,2022-06-04_08h08.16.545,task,2021.1.4,Win32,74.97375918,628b806c463b948bc644b84f,629af6c7337ba002f49ae5b6,[0.5930999999046378],,,,,,,,,,,,,,,,,,,,,,,,,,,,,,,,,,,,,,,,,,,,,,,,,,,,,,,,,,,,,,,,,,,,,,,,,,,,,,,,,,,,,,,,,,,,,,,,,,,,,,,
,,"[""period""]",0,87,0,87,0,1,5f2d4ed77f1d552c576f64bf,22,Mężczyzna,2022-06-04_08h08.16.545,task,2021.1.4,Win32,74.97375918,628b806c463b948bc644b84f,629af6c7337ba002f49ae5b6,[0.7239999999999895],,,,,,,,,,,,,,,,,,,,,,,,,,,,,,,,,,,,,,,,,,,,,,,,,,,,,,,,,,,,,,,,,,,,,,,,,,,,,,,,,,,,,,,,,,,,,,,,,,,,,,,
,,"[""comma""]",0,88,0,88,0,1,5f2d4ed77f1d552c576f64bf,22,Mężczyzna,2022-06-04_08h08.16.545,task,2021.1.4,Win32,74.97375918,628b806c463b948bc644b84f,629af6c7337ba002f49ae5b6,[0.7059999999999604],,,,,,,,,,,,,,,,,,,,,,,,,,,,,,,,,,,,,,,,,,,,,,,,,,,,,,,,,,,,,,,,,,,,,,,,,,,,,,,,,,,,,,,,,,,,,,,,,,,,,,,
,,"[""comma""]",0,89,0,89,0,1,5f2d4ed77f1d552c576f64bf,22,Mężczyzna,2022-06-04_08h08.16.545,task,2021.1.4,Win32,74.97375918,628b806c463b948bc644b84f,629af6c7337ba002f49ae5b6,[0.8302000000476824],,,,,,,,,,,,,,,,,,,,,,,,,,,,,,,,,,,,,,,,,,,,,,,,,,,,,,,,,,,,,,,,,,,,,,,,,,,,,,,,,,,,,,,,,,,,,,,,,,,,,,,
,,"[""comma""]",0,90,0,90,0,1,5f2d4ed77f1d552c576f64bf,22,Mężczyzna,2022-06-04_08h08.16.545,task,2021.1.4,Win32,74.97375918,628b806c463b948bc644b84f,629af6c7337ba002f49ae5b6,[0.6435999999046089],,,,,,,,,,,,,,,,,,,,,,,,,,,,,,,,,,,,,,,,,,,,,,,,,,,,,,,,,,,,,,,,,,,,,,,,,,,,,,,,,,,,,,,,,,,,,,,,,,,,,,,
,,"[""period""]",0,91,0,91,0,1,5f2d4ed77f1d552c576f64bf,22,Mężczyzna,2022-06-04_08h08.16.545,task,2021.1.4,Win32,74.97375918,628b806c463b948bc644b84f,629af6c7337ba002f49ae5b6,[0.3523000001907235],,,,,,,,,,,,,,,,,,,,,,,,,,,,,,,,,,,,,,,,,,,,,,,,,,,,,,,,,,,,,,,,,,,,,,,,,,,,,,,,,,,,,,,,,,,,,,,,,,,,,,,
,,"[""comma""]",0,92,0,92,0,1,5f2d4ed77f1d552c576f64bf,22,Mężczyzna,2022-06-04_08h08.16.545,task,2021.1.4,Win32,74.97375918,628b806c463b948bc644b84f,629af6c7337ba002f49ae5b6,[0.5642000000477196],,,,,,,,,,,,,,,,,,,,,,,,,,,,,,,,,,,,,,,,,,,,,,,,,,,,,,,,,,,,,,,,,,,,,,,,,,,,,,,,,,,,,,,,,,,,,,,,,,,,,,,
,,"[""period""]",0,93,0,93,0,1,5f2d4ed77f1d552c576f64bf,22,Mężczyzna,2022-06-04_08h08.16.545,task,2021.1.4,Win32,74.97375918,628b806c463b948bc644b84f,629af6c7337ba002f49ae5b6,[0.5243999998569961],,,,,,,,,,,,,,,,,,,,,,,,,,,,,,,,,,,,,,,,,,,,,,,,,,,,,,,,,,,,,,,,,,,,,,,,,,,,,,,,,,,,,,,,,,,,,,,,,,,,,,,
,,"[""period""]",0,94,0,94,0,1,5f2d4ed77f1d552c576f64bf,22,Mężczyzna,2022-06-04_08h08.16.545,task,2021.1.4,Win32,74.97375918,628b806c463b948bc644b84f,629af6c7337ba002f49ae5b6,[0.5012000000476746],,,,,,,,,,,,,,,,,,,,,,,,,,,,,,,,,,,,,,,,,,,,,,,,,,,,,,,,,,,,,,,,,,,,,,,,,,,,,,,,,,,,,,,,,,,,,,,,,,,,,,,
,,"[""comma""]",0,95,0,95,0,1,5f2d4ed77f1d552c576f64bf,22,Mężczyzna,2022-06-04_08h08.16.545,task,2021.1.4,Win32,74.97375918,628b806c463b948bc644b84f,629af6c7337ba002f49ae5b6,[0.4851000001430634],,,,,,,,,,,,,,,,,,,,,,,,,,,,,,,,,,,,,,,,,,,,,,,,,,,,,,,,,,,,,,,,,,,,,,,,,,,,,,,,,,,,,,,,,,,,,,,,,,,,,,,
,,"[""period""]",0,96,0,96,0,1,5f2d4ed77f1d552c576f64bf,22,Mężczyzna,2022-06-04_08h08.16.545,task,2021.1.4,Win32,74.97375918,628b806c463b948bc644b84f,629af6c7337ba002f49ae5b6,[0.3500999999046144],,,,,,,,,,,,,,,,,,,,,,,,,,,,,,,,,,,,,,,,,,,,,,,,,,,,,,,,,,,,,,,,,,,,,,,,,,,,,,,,,,,,,,,,,,,,,,,,,,,,,,,
,,"[""period""]",0,97,0,97,0,1,5f2d4ed77f1d552c576f64bf,22,Mężczyzna,2022-06-04_08h08.16.545,task,2021.1.4,Win32,74.97375918,628b806c463b948bc644b84f,629af6c7337ba002f49ae5b6,[0.4301999998093038],,,,,,,,,,,,,,,,,,,,,,,,,,,,,,,,,,,,,,,,,,,,,,,,,,,,,,,,,,,,,,,,,,,,,,,,,,,,,,,,,,,,,,,,,,,,,,,,,,,,,,,
,,"[""comma""]",0,98,0,98,0,1,5f2d4ed77f1d552c576f64bf,22,Mężczyzna,2022-06-04_08h08.16.545,task,2021.1.4,Win32,74.97375918,628b806c463b948bc644b84f,629af6c7337ba002f49ae5b6,[0.3417999999523431],,,,,,,,,,,,,,,,,,,,,,,,,,,,,,,,,,,,,,,,,,,,,,,,,,,,,,,,,,,,,,,,,,,,,,,,,,,,,,,,,,,,,,,,,,,,,,,,,,,,,,,
,,"[""period""]",0,99,0,99,0,1,5f2d4ed77f1d552c576f64bf,22,Mężczyzna,2022-06-04_08h08.16.545,task,2021.1.4,Win32,74.97375918,628b806c463b948bc644b84f,629af6c7337ba002f49ae5b6,[0.2771000001430366],,,,,,,,,,,,,,,,,,,,,,,,,,,,,,,,,,,,,,,,,,,,,,,,,,,,,,,,,,,,,,,,,,,,,,,,,,,,,,,,,,,,,,,,,,,,,,,,,,,,,,,
,,"[""comma""]",0,100,0,100,0,1,5f2d4ed77f1d552c576f64bf,22,Mężczyzna,2022-06-04_08h08.16.545,task,2021.1.4,Win32,74.97375918,628b806c463b948bc644b84f,629af6c7337ba002f49ae5b6,[0.31039999985694067],,,,,,,,,,,,,,,,,,,,,,,,,,,,,,,,,,,,,,,,,,,,,,,,,,,,,,,,,,,,,,,,,,,,,,,,,,,,,,,,,,,,,,,,,,,,,,,,,,,,,,,
,,"[""period""]",0,101,0,101,0,1,5f2d4ed77f1d552c576f64bf,22,Mężczyzna,2022-06-04_08h08.16.545,task,2021.1.4,Win32,74.97375918,628b806c463b948bc644b84f,629af6c7337ba002f49ae5b6,[0.4118999998569848],,,,,,,,,,,,,,,,,,,,,,,,,,,,,,,,,,,,,,,,,,,,,,,,,,,,,,,,,,,,,,,,,,,,,,,,,,,,,,,,,,,,,,,,,,,,,,,,,,,,,,,
,,"[""period""]",0,102,0,102,0,1,5f2d4ed77f1d552c576f64bf,22,Mężczyzna,2022-06-04_08h08.16.545,task,2021.1.4,Win32,74.97375918,628b806c463b948bc644b84f,629af6c7337ba002f49ae5b6,[0.39310000014302204],,,,,,,,,,,,,,,,,,,,,,,,,,,,,,,,,,,,,,,,,,,,,,,,,,,,,,,,,,,,,,,,,,,,,,,,,,,,,,,,,,,,,,,,,,,,,,,,,,,,,,,
,,"[""comma""]",0,103,0,103,0,1,5f2d4ed77f1d552c576f64bf,22,Mężczyzna,2022-06-04_08h08.16.545,task,2021.1.4,Win32,74.97375918,628b806c463b948bc644b84f,629af6c7337ba002f49ae5b6,[0.3324000000953333],,,,,,,,,,,,,,,,,,,,,,,,,,,,,,,,,,,,,,,,,,,,,,,,,,,,,,,,,,,,,,,,,,,,,,,,,,,,,,,,,,,,,,,,,,,,,,,,,,,,,,,
,,"[""comma""]",0,104,0,104,0,1,5f2d4ed77f1d552c576f64bf,22,Mężczyzna,2022-06-04_08h08.16.545,task,2021.1.4,Win32,74.97375918,628b806c463b948bc644b84f,629af6c7337ba002f49ae5b6,[0.34029999995232174],,,,,,,,,,,,,,,,,,,,,,,,,,,,,,,,,,,,,,,,,,,,,,,,,,,,,,,,,,,,,,,,,,,,,,,,,,,,,,,,,,,,,,,,,,,,,,,,,,,,,,,
,,"[""comma""]",0,105,0,105,0,1,5f2d4ed77f1d552c576f64bf,22,Mężczyzna,2022-06-04_08h08.16.545,task,2021.1.4,Win32,74.97375918,628b806c463b948bc644b84f,629af6c7337ba002f49ae5b6,[0.4362999999523254],,,,,,,,,,,,,,,,,,,,,,,,,,,,,,,,,,,,,,,,,,,,,,,,,,,,,,,,,,,,,,,,,,,,,,,,,,,,,,,,,,,,,,,,,,,,,,,,,,,,,,,
,,"[""period""]",0,106,0,106,0,1,5f2d4ed77f1d552c576f64bf,22,Mężczyzna,2022-06-04_08h08.16.545,task,2021.1.4,Win32,74.97375918,628b806c463b948bc644b84f,629af6c7337ba002f49ae5b6,[0.3807999999523304],,,,,,,,,,,,,,,,,,,,,,,,,,,,,,,,,,,,,,,,,,,,,,,,,,,,,,,,,,,,,,,,,,,,,,,,,,,,,,,,,,,,,,,,,,,,,,,,,,,,,,,
,,"[""period""]",0,107,0,107,0,1,5f2d4ed77f1d552c576f64bf,22,Mężczyzna,2022-06-04_08h08.16.545,task,2021.1.4,Win32,74.97375918,628b806c463b948bc644b84f,629af6c7337ba002f49ae5b6,[0.3658000001907453],,,,,,,,,,,,,,,,,,,,,,,,,,,,,,,,,,,,,,,,,,,,,,,,,,,,,,,,,,,,,,,,,,,,,,,,,,,,,,,,,,,,,,,,,,,,,,,,,,,,,,,
,,"[""comma""]",0,108,0,108,0,1,5f2d4ed77f1d552c576f64bf,22,Mężczyzna,2022-06-04_08h08.16.545,task,2021.1.4,Win32,74.97375918,628b806c463b948bc644b84f,629af6c7337ba002f49ae5b6,[0.5027999999522876],,,,,,,,,,,,,,,,,,,,,,,,,,,,,,,,,,,,,,,,,,,,,,,,,,,,,,,,,,,,,,,,,,,,,,,,,,,,,,,,,,,,,,,,,,,,,,,,,,,,,,,
,,"[""comma""]",0,109,0,109,0,1,5f2d4ed77f1d552c576f64bf,22,Mężczyzna,2022-06-04_08h08.16.545,task,2021.1.4,Win32,74.97375918,628b806c463b948bc644b84f,629af6c7337ba002f49ae5b6,[0.75],,,,,,,,,,,,,,,,,,,,,,,,,,,,,,,,,,,,,,,,,,,,,,,,,,,,,,,,,,,,,,,,,,,,,,,,,,,,,,,,,,,,,,,,,,,,,,,,,,,,,,,
,,"[""comma""]",0,110,0,110,0,1,5f2d4ed77f1d552c576f64bf,22,Mężczyzna,2022-06-04_08h08.16.545,task,2021.1.4,Win32,74.97375918,628b806c463b948bc644b84f,629af6c7337ba002f49ae5b6,[0.5563000001907312],,,,,,,,,,,,,,,,,,,,,,,,,,,,,,,,,,,,,,,,,,,,,,,,,,,,,,,,,,,,,,,,,,,,,,,,,,,,,,,,,,,,,,,,,,,,,,,,,,,,,,,
,,"[""comma""]",0,111,0,111,0,1,5f2d4ed77f1d552c576f64bf,22,Mężczyzna,2022-06-04_08h08.16.545,task,2021.1.4,Win32,74.97375918,628b806c463b948bc644b84f,629af6c7337ba002f49ae5b6,[0.5377000000476642],,,,,,,,,,,,,,,,,,,,,,,,,,,,,,,,,,,,,,,,,,,,,,,,,,,,,,,,,,,,,,,,,,,,,,,,,,,,,,,,,,,,,,,,,,,,,,,,,,,,,,,
,,"[""comma""]",0,112,0,112,0,1,5f2d4ed77f1d552c576f64bf,22,Mężczyzna,2022-06-04_08h08.16.545,task,2021.1.4,Win32,74.97375918,628b806c463b948bc644b84f,629af6c7337ba002f49ae5b6,[0.433200000047691],,,,,,,,,,,,,,,,,,,,,,,,,,,,,,,,,,,,,,,,,,,,,,,,,,,,,,,,,,,,,,,,,,,,,,,,,,,,,,,,,,,,,,,,,,,,,,,,,,,,,,,
,,"[""period""]",0,113,0,113,0,1,5f2d4ed77f1d552c576f64bf,22,Mężczyzna,2022-06-04_08h08.16.545,task,2021.1.4,Win32,74.97375918,628b806c463b948bc644b84f,629af6c7337ba002f49ae5b6,[0.39549999999997],,,,,,,,,,,,,,,,,,,,,,,,,,,,,,,,,,,,,,,,,,,,,,,,,,,,,,,,,,,,,,,,,,,,,,,,,,,,,,,,,,,,,,,,,,,,,,,,,,,,,,,
,,"[""comma""]",0,114,0,114,0,1,5f2d4ed77f1d552c576f64bf,22,Mężczyzna,2022-06-04_08h08.16.545,task,2021.1.4,Win32,74.97375918,628b806c463b948bc644b84f,629af6c7337ba002f49ae5b6,[0.5106999998092192],,,,,,,,,,,,,,,,,,,,,,,,,,,,,,,,,,,,,,,,,,,,,,,,,,,,,,,,,,,,,,,,,,,,,,,,,,,,,,,,,,,,,,,,,,,,,,,,,,,,,,,
,,"[""period""]",0,115,0,115,0,1,5f2d4ed77f1d552c576f64bf,22,Mężczyzna,2022-06-04_08h08.16.545,task,2021.1.4,Win32,74.97375918,628b806c463b948bc644b84f,629af6c7337ba002f49ae5b6,[1.0125000000000455],,,,,,,,,,,,,,,,,,,,,,,,,,,,,,,,,,,,,,,,,,,,,,,,,,,,,,,,,,,,,,,,,,,,,,,,,,,,,,,,,,,,,,,,,,,,,,,,,,,,,,,
,,"[""period""]",0,116,0,116,0,1,5f2d4ed77f1d552c576f64bf,22,Mężczyzna,2022-06-04_08h08.16.545,task,2021.1.4,Win32,74.97375918,628b806c463b948bc644b84f,629af6c7337ba002f49ae5b6,[0.842700000047671],,,,,,,,,,,,,,,,,,,,,,,,,,,,,,,,,,,,,,,,,,,,,,,,,,,,,,,,,,,,,,,,,,,,,,,,,,,,,,,,,,,,,,,,,,,,,,,,,,,,,,,
,,"[""period""]",0,117,0,117,0,1,5f2d4ed77f1d552c576f64bf,22,Mężczyzna,2022-06-04_08h08.16.545,task,2021.1.4,Win32,74.97375918,628b806c463b948bc644b84f,629af6c7337ba002f49ae5b6,[0.5160999999046112],,,,,,,,,,,,,,,,,,,,,,,,,,,,,,,,,,,,,,,,,,,,,,,,,,,,,,,,,,,,,,,,,,,,,,,,,,,,,,,,,,,,,,,,,,,,,,,,,,,,,,,
,,"[""comma""]",0,118,0,118,0,1,5f2d4ed77f1d552c576f64bf,22,Mężczyzna,2022-06-04_08h08.16.545,task,2021.1.4,Win32,74.97375918,628b806c463b948bc644b84f,629af6c7337ba002f49ae5b6,[0.4579000000953215],,,,,,,,,,,,,,,,,,,,,,,,,,,,,,,,,,,,,,,,,,,,,,,,,,,,,,,,,,,,,,,,,,,,,,,,,,,,,,,,,,,,,,,,,,,,,,,,,,,,,,,
,,"[""comma""]",0,119,0,119,0,1,5f2d4ed77f1d552c576f64bf,22,Mężczyzna,2022-06-04_08h08.16.545,task,2021.1.4,Win32,74.97375918,628b806c463b948bc644b84f,629af6c7337ba002f49ae5b6,[0.424000000000035],,,,,,,,,,,,,,,,,,,,,,,,,,,,,,,,,,,,,,,,,,,,,,,,,,,,,,,,,,,,,,,,,,,,,,,,,,,,,,,,,,,,,,,,,,,,,,,,,,,,,,,
,,,,,,,,,5f2d4ed77f1d552c576f64bf,22,Mężczyzna,2022-06-04_08h08.16.545,task,2021.1.4,Win32,74.97375918,628b806c463b948bc644b84f,629af6c7337ba002f49ae5b6,,space,22.9322,space,9.5666,0,0,0,0,1,X V Q F H G B L J M P D K C T S W R N Z,,,,,,,,,,,,,,,,,,,,,,,,,,,,,,,,,,,,,,,,,,,,,,,,,,,,,,,,,,,,,,,,,,,,,,,,,,,,,,,,,,,,,,,,,,,,,
,,,,,,,,,5f2d4ed77f1d552c576f64bf,22,Mężczyzna,2022-06-04_08h08.16.545,task,2021.1.4,Win32,74.97375918,628b806c463b948bc644b84f,629af6c7337ba002f49ae5b6,,,,,,1,0,1,0,1,X V Q F H G B L J M P D K C T S W R N Z,,,,,,,,,,,,,,,,,,,,,,,,,,,,,,,,,,,,,,,,,,,,,,,,,,,,,,,,,,,,,,,,,,,,,,,,,,,,,,,,,,,,,,,,,,,,,
,,,,,,,,,5f2d4ed77f1d552c576f64bf,22,Mężczyzna,2022-06-04_08h08.16.545,task,2021.1.4,Win32,74.97375918,628b806c463b948bc644b84f,629af6c7337ba002f49ae5b6,,,,,,,,,,,,zn,"[""z"",""n""]","[1.24220000004766,1.5745000000000005,3.008299999952328]",1,ZN,0,0,0,0,1,,,,,,,,,,,,,,,,,,,,,,,,,,,,,,,,,,,,,,,,,,,,,,,,,,,,,,,,,,,,,,,,,,,,,,,,,,,,,,,,,,,
,,,,,,,,,5f2d4ed77f1d552c576f64bf,22,Mężczyzna,2022-06-04_08h08.16.545,task,2021.1.4,Win32,74.97375918,628b806c463b948bc644b84f,629af6c7337ba002f49ae5b6,,,,,,0,0,0,0,1,X V Q F H G B L J M P D K C T S W R N Z,,,,,,,,,,,,,,,,,,,,,,,,,,,,,,,,,,,,,,,,,,,,,,,,,,,,,,,,,,,,,,,,,,,,,,,,,,,,,,,,,,,,,,,,,,,,,
,,,,,,,,,5f2d4ed77f1d552c576f64bf,22,Mężczyzna,2022-06-04_08h08.16.545,task,2021.1.4,Win32,74.97375918,628b806c463b948bc644b84f,629af6c7337ba002f49ae5b6,,,,,,1,0,1,0,1,X V Q F H G B L J M P D K C T S W R N Z,,,,,,,,,,,,,,,,,,,,,,,,,,,,,,,,,,,,,,,,,,,,,,,,,,,,,,,,,,,,,,,,,,,,,,,,,,,,,,,,,,,,,,,,,,,,,
,,,,,,,,,5f2d4ed77f1d552c576f64bf,22,Mężczyzna,2022-06-04_08h08.16.545,task,2021.1.4,Win32,74.97375918,628b806c463b948bc644b84f,629af6c7337ba002f49ae5b6,,,,,,,,,,,,ml,"[""m"",""l""]","[1.602899999856902,1.8082999999522826,2.152399999856925]",1,ML,1,0,1,0,1,,,,,,,,,,,,,,,,,,,,,,,,,,,,,,,,,,,,,,,,,,,,,,,,,,,,,,,,,,,,,,,,,,,,,,,,,,,,,,,,,,,
,,,,,,,,,5f2d4ed77f1d552c576f64bf,22,Mężczyzna,2022-06-04_08h08.16.545,task,2021.1.4,Win32,74.97375918,628b806c463b948bc644b84f,629af6c7337ba002f49ae5b6,,,,,,0,0,0,0,1,X V Q F H G B L J M P D K C T S W R N Z,,,,,,,,,,,,,,,,,,,,,,,,,,,,,,,,,,,,,,,,,,,,,,,,,,,,,,,,,,,,,,,,,,,,,,,,,,,,,,,,,,,,,,,,,,,,,
,,,,,,,,,5f2d4ed77f1d552c576f64bf,22,Mężczyzna,2022-06-04_08h08.16.545,task,2021.1.4,Win32,74.97375918,628b806c463b948bc644b84f,629af6c7337ba002f49ae5b6,,,,,,1,0,1,0,1,X V Q F H G B L J M P D K C T S W R N Z,,,,,,,,,,,,,,,,,,,,,,,,,,,,,,,,,,,,,,,,,,,,,,,,,,,,,,,,,,,,,,,,,,,,,,,,,,,,,,,,,,,,,,,,,,,,,
,,,,,,,,,5f2d4ed77f1d552c576f64bf,22,Mężczyzna,2022-06-04_08h08.16.545,task,2021.1.4,Win32,74.97375918,628b806c463b948bc644b84f,629af6c7337ba002f49ae5b6,,,,,,2,0,2,0,1,X V Q F H G B L J M P D K C T S W R N Z,,,,,,,,,,,,,,,,,,,,,,,,,,,,,,,,,,,,,,,,,,,,,,,,,,,,,,,,,,,,,,,,,,,,,,,,,,,,,,,,,,,,,,,,,,,,,
,,,,,,,,,5f2d4ed77f1d552c576f64bf,22,Mężczyzna,2022-06-04_08h08.16.545,task,2021.1.4,Win32,74.97375918,628b806c463b948bc644b84f,629af6c7337ba002f49ae5b6,,,,,,,,,,,,qhh,"[""q"",""h"",""h""]","[0.4769000000953838,0.757000000000005,0.9819999999999709,1.460099999904628]",1,QHH,2,0,2,0,1,,,,,,,,,,,,,,,,,,,,,,,,,,,,,,,,,,,,,,,,,,,,,,,,,,,,,,,,,,,,,,,,,,,,,,,,,,,,,,,,,,,
,,,,,,,,,5f2d4ed77f1d552c576f64bf,22,Mężczyzna,2022-06-04_08h08.16.545,task,2021.1.4,Win32,74.97375918,628b806c463b948bc644b84f,629af6c7337ba002f49ae5b6,,,,,,0,0,0,0,1,X V Q F H G B L J M P D K C T S W R N Z,,,,,,,,,,,,,,,,,,,,,,,,,,,,,,,,,,,,,,,,,,,,,,,,,,,,,,,,,,,,,,,,,,,,,,,,,,,,,,,,,,,,,,,,,,,,,
,,,,,,,,,5f2d4ed77f1d552c576f64bf,22,Mężczyzna,2022-06-04_08h08.16.545,task,2021.1.4,Win32,74.97375918,628b806c463b948bc644b84f,629af6c7337ba002f49ae5b6,,,,,,1,0,1,0,1,X V Q F H G B L J M P D K C T S W R N Z,,,,,,,,,,,,,,,,,,,,,,,,,,,,,,,,,,,,,,,,,,,,,,,,,,,,,,,,,,,,,,,,,,,,,,,,,,,,,,,,,,,,,,,,,,,,,
,,,,,,,,,5f2d4ed77f1d552c576f64bf,22,Mężczyzna,2022-06-04_08h08.16.545,task,2021.1.4,Win32,74.97375918,628b806c463b948bc644b84f,629af6c7337ba002f49ae5b6,,,,,,2,0,2,0,1,X V Q F H G B L J M P D K C T S W R N Z,,,,,,,,,,,,,,,,,,,,,,,,,,,,,,,,,,,,,,,,,,,,,,,,,,,,,,,,,,,,,,,,,,,,,,,,,,,,,,,,,,,,,,,,,,,,,
,,,,,,,,,5f2d4ed77f1d552c576f64bf,22,Mężczyzna,2022-06-04_08h08.16.545,task,2021.1.4,Win32,74.97375918,628b806c463b948bc644b84f,629af6c7337ba002f49ae5b6,,,,,,,,,,,,wpc,"[""w"",""p"",""c""]","[1.057599999904653,1.2387999999523345,1.4877999999523013,2.091799999952343]",1,WPC,3,0,3,0,1,,,,,,,,,,,,,,,,,,,,,,,,,,,,,,,,,,,,,,,,,,,,,,,,,,,,,,,,,,,,,,,,,,,,,,,,,,,,,,,,,,,
,,,,,,,,,5f2d4ed77f1d552c576f64bf,22,Mężczyzna,2022-06-04_08h08.16.545,task,2021.1.4,Win32,74.97375918,628b806c463b948bc644b84f,629af6c7337ba002f49ae5b6,,,,,,0,0,0,0,1,X V Q F H G B L J M P D K C T S W R N Z,,,,,,,,,,,,,,,,,,,,,,,,,,,,,,,,,,,,,,,,,,,,,,,,,,,,,,,,,,,,,,,,,,,,,,,,,,,,,,,,,,,,,,,,,,,,,
,,,,,,,,,5f2d4ed77f1d552c576f64bf,22,Mężczyzna,2022-06-04_08h08.16.545,task,2021.1.4,Win32,74.97375918,628b806c463b948bc644b84f,629af6c7337ba002f49ae5b6,,,,,,1,0,1,0,1,X V Q F H G B L J M P D K C T S W R N Z,,,,,,,,,,,,,,,,,,,,,,,,,,,,,,,,,,,,,,,,,,,,,,,,,,,,,,,,,,,,,,,,,,,,,,,,,,,,,,,,,,,,,,,,,,,,,
,,,,,,,,,5f2d4ed77f1d552c576f64bf,22,Mężczyzna,2022-06-04_08h08.16.545,task,2021.1.4,Win32,74.97375918,628b806c463b948bc644b84f,629af6c7337ba002f49ae5b6,,,,,,2,0,2,0,1,X V Q F H G B L J M P D K C T S W R N Z,,,,,,,,,,,,,,,,,,,,,,,,,,,,,,,,,,,,,,,,,,,,,,,,,,,,,,,,,,,,,,,,,,,,,,,,,,,,,,,,,,,,,,,,,,,,,
,,,,,,,,,5f2d4ed77f1d552c576f64bf,22,Mężczyzna,2022-06-04_08h08.16.545,task,2021.1.4,Win32,74.97375918,628b806c463b948bc644b84f,629af6c7337ba002f49ae5b6,,,,,,3,0,3,0,1,X V Q F H G B L J M P D K C T S W R N Z,,,,,,,,,,,,,,,,,,,,,,,,,,,,,,,,,,,,,,,,,,,,,,,,,,,,,,,,,,,,,,,,,,,,,,,,,,,,,,,,,,,,,,,,,,,,,
,,,,,,,,,5f2d4ed77f1d552c576f64bf,22,Mężczyzna,2022-06-04_08h08.16.545,task,2021.1.4,Win32,74.97375918,628b806c463b948bc644b84f,629af6c7337ba002f49ae5b6,,,,,,,,,,,,mmkz,"[""m"",""m"",""k"",""z""]","[0.4977000000476437,0.7574999999999932,1.0867000000476423,1.889799999952288,2.831899999856944]",1,MMKZ,4,0,4,0,1,,,,,,,,,,,,,,,,,,,,,,,,,,,,,,,,,,,,,,,,,,,,,,,,,,,,,,,,,,,,,,,,,,,,,,,,,,,,,,,,,,,
,,,,,,,,,5f2d4ed77f1d552c576f64bf,22,Mężczyzna,2022-06-04_08h08.16.545,task,2021.1.4,Win32,74.97375918,628b806c463b948bc644b84f,629af6c7337ba002f49ae5b6,,,,,,0,0,0,0,1,X V Q F H G B L J M P D K C T S W R N Z,,,,,,,,,,,,,,,,,,,,,,,,,,,,,,,,,,,,,,,,,,,,,,,,,,,,,,,,,,,,,,,,,,,,,,,,,,,,,,,,,,,,,,,,,,,,,
,,,,,,,,,5f2d4ed77f1d552c576f64bf,22,Mężczyzna,2022-06-04_08h08.16.545,task,2021.1.4,Win32,74.97375918,628b806c463b948bc644b84f,629af6c7337ba002f49ae5b6,,,,,,1,0,1,0,1,X V Q F H G B L J M P D K C T S W R N Z,,,,,,,,,,,,,,,,,,,,,,,,,,,,,,,,,,,,,,,,,,,,,,,,,,,,,,,,,,,,,,,,,,,,,,,,,,,,,,,,,,,,,,,,,,,,,
,,,,,,,,,5f2d4ed77f1d552c576f64bf,22,Mężczyzna,2022-06-04_08h08.16.545,task,2021.1.4,Win32,74.97375918,628b806c463b948bc644b84f,629af6c7337ba002f49ae5b6,,,,,,2,0,2,0,1,X V Q F H G B L J M P D K C T S W R N Z,,,,,,,,,,,,,,,,,,,,,,,,,,,,,,,,,,,,,,,,,,,,,,,,,,,,,,,,,,,,,,,,,,,,,,,,,,,,,,,,,,,,,,,,,,,,,
,,,,,,,,,5f2d4ed77f1d552c576f64bf,22,Mężczyzna,2022-06-04_08h08.16.545,task,2021.1.4,Win32,74.97375918,628b806c463b948bc644b84f,629af6c7337ba002f49ae5b6,,,,,,3,0,3,0,1,X V Q F H G B L J M P D K C T S W R N Z,,,,,,,,,,,,,,,,,,,,,,,,,,,,,,,,,,,,,,,,,,,,,,,,,,,,,,,,,,,,,,,,,,,,,,,,,,,,,,,,,,,,,,,,,,,,,
,,,,,,,,,5f2d4ed77f1d552c576f64bf,22,Mężczyzna,2022-06-04_08h08.16.545,task,2021.1.4,Win32,74.97375918,628b806c463b948bc644b84f,629af6c7337ba002f49ae5b6,,,,,,,,,,,,cfjs,"[""c"",""f"",""j"",""s""]","[1.566500000000019,2.0095000000000027,2.4028999998569702,2.7901999998092606,4.24379999995233]",1,CFJS,5,0,5,0,1,,,,,,,,,,,,,,,,,,,,,,,,,,,,,,,,,,,,,,,,,,,,,,,,,,,,,,,,,,,,,,,,,,,,,,,,,,,,,,,,,,,
,,,,,,,,,5f2d4ed77f1d552c576f64bf,22,Mężczyzna,2022-06-04_08h08.16.545,task,2021.1.4,Win32,74.97375918,628b806c463b948bc644b84f,629af6c7337ba002f49ae5b6,,,,,,0,0,0,0,1,X V Q F H G B L J M P D K C T S W R N Z,,,,,,,,,,,,,,,,,,,,,,,,,,,,,,,,,,,,,,,,,,,,,,,,,,,,,,,,,,,,,,,,,,,,,,,,,,,,,,,,,,,,,,,,,,,,,
,,,,,,,,,5f2d4ed77f1d552c576f64bf,22,Mężczyzna,2022-06-04_08h08.16.545,task,2021.1.4,Win32,74.97375918,628b806c463b948bc644b84f,629af6c7337ba002f49ae5b6,,,,,,1,0,1,0,1,X V Q F H G B L J M P D K C T S W R N Z,,,,,,,,,,,,,,,,,,,,,,,,,,,,,,,,,,,,,,,,,,,,,,,,,,,,,,,,,,,,,,,,,,,,,,,,,,,,,,,,,,,,,,,,,,,,,
,,,,,,,,,5f2d4ed77f1d552c576f64bf,22,Mężczyzna,2022-06-04_08h08.16.545,task,2021.1.4,Win32,74.97375918,628b806c463b948bc644b84f,629af6c7337ba002f49ae5b6,,,,,,2,0,2,0,1,X V Q F H G B L J M P D K C T S W R N Z,,,,,,,,,,,,,,,,,,,,,,,,,,,,,,,,,,,,,,,,,,,,,,,,,,,,,,,,,,,,,,,,,,,,,,,,,,,,,,,,,,,,,,,,,,,,,
,,,,,,,,,5f2d4ed77f1d552c576f64bf,22,Mężczyzna,2022-06-04_08h08.16.545,task,2021.1.4,Win32,74.97375918,628b806c463b948bc644b84f,629af6c7337ba002f49ae5b6,,,,,,3,0,3,0,1,X V Q F H G B L J M P D K C T S W R N Z,,,,,,,,,,,,,,,,,,,,,,,,,,,,,,,,,,,,,,,,,,,,,,,,,,,,,,,,,,,,,,,,,,,,,,,,,,,,,,,,,,,,,,,,,,,,,
,,,,,,,,,5f2d4ed77f1d552c576f64bf,22,Mężczyzna,2022-06-04_08h08.16.545,task,2021.1.4,Win32,74.97375918,628b806c463b948bc644b84f,629af6c7337ba002f49ae5b6,,,,,,4,0,4,0,1,X V Q F H G B L J M P D K C T S W R N Z,,,,,,,,,,,,,,,,,,,,,,,,,,,,,,,,,,,,,,,,,,,,,,,,,,,,,,,,,,,,,,,,,,,,,,,,,,,,,,,,,,,,,,,,,,,,,
,,,,,,,,,5f2d4ed77f1d552c576f64bf,22,Mężczyzna,2022-06-04_08h08.16.545,task,2021.1.4,Win32,74.97375918,628b806c463b948bc644b84f,629af6c7337ba002f49ae5b6,,,,,,,,,,,,sbtlr,"[""s"",""b"",""t"",""l"",""r""]","[0.8879999999999768,2.723400000095353,13.506299999952319,13.688900000095373,13.85120000004764,14.306299999952273]",0,SBTRF,6,0,6,0,1,,,,,,,,,,,,,,,,,,,,,,,,,,,,,,,,,,,,,,,,,,,,,,,,,,,,,,,,,,,,,,,,,,,,,,,,,,,,,,,,,,,
,,,,,,,,,5f2d4ed77f1d552c576f64bf,22,Mężczyzna,2022-06-04_08h08.16.545,task,2021.1.4,Win32,74.97375918,628b806c463b948bc644b84f,629af6c7337ba002f49ae5b6,,,,,,0,0,0,0,1,X V Q F H G B L J M P D K C T S W R N Z,,,,,,,,,,,,,,,,,,,,,,,,,,,,,,,,,,,,,,,,,,,,,,,,,,,,,,,,,,,,,,,,,,,,,,,,,,,,,,,,,,,,,,,,,,,,,
,,,,,,,,,5f2d4ed77f1d552c576f64bf,22,Mężczyzna,2022-06-04_08h08.16.545,task,2021.1.4,Win32,74.97375918,628b806c463b948bc644b84f,629af6c7337ba002f49ae5b6,,,,,,1,0,1,0,1,X V Q F H G B L J M P D K C T S W R N Z,,,,,,,,,,,,,,,,,,,,,,,,,,,,,,,,,,,,,,,,,,,,,,,,,,,,,,,,,,,,,,,,,,,,,,,,,,,,,,,,,,,,,,,,,,,,,
,,,,,,,,,5f2d4ed77f1d552c576f64bf,22,Mężczyzna,2022-06-04_08h08.16.545,task,2021.1.4,Win32,74.97375918,628b806c463b948bc644b84f,629af6c7337ba002f49ae5b6,,,,,,2,0,2,0,1,X V Q F H G B L J M P D K C T S W R N Z,,,,,,,,,,,,,,,,,,,,,,,,,,,,,,,,,,,,,,,,,,,,,,,,,,,,,,,,,,,,,,,,,,,,,,,,,,,,,,,,,,,,,,,,,,,,,
,,,,,,,,,5f2d4ed77f1d552c576f64bf,22,Mężczyzna,2022-06-04_08h08.16.545,task,2021.1.4,Win32,74.97375918,628b806c463b948bc644b84f,629af6c7337ba002f49ae5b6,,,,,,3,0,3,0,1,X V Q F H G B L J M P D K C T S W R N Z,,,,,,,,,,,,,,,,,,,,,,,,,,,,,,,,,,,,,,,,,,,,,,,,,,,,,,,,,,,,,,,,,,,,,,,,,,,,,,,,,,,,,,,,,,,,,
,,,,,,,,,5f2d4ed77f1d552c576f64bf,22,Mężczyzna,2022-06-04_08h08.16.545,task,2021.1.4,Win32,74.97375918,628b806c463b948bc644b84f,629af6c7337ba002f49ae5b6,,,,,,4,0,4,0,1,X V Q F H G B L J M P D K C T S W R N Z,,,,,,,,,,,,,,,,,,,,,,,,,,,,,,,,,,,,,,,,,,,,,,,,,,,,,,,,,,,,,,,,,,,,,,,,,,,,,,,,,,,,,,,,,,,,,
,,,,,,,,,5f2d4ed77f1d552c576f64bf,22,Mężczyzna,2022-06-04_08h08.16.545,task,2021.1.4,Win32,74.97375918,628b806c463b948bc644b84f,629af6c7337ba002f49ae5b6,,,,,,,,,,,,skppr,"[""s"",""k"",""p"",""p"",""r""]","[0.47620000004769736,0.7362999999523367,1.116100000143092,1.32029999995234,1.4992999999523136,24.112799999952358]",1,SKPPR,7,0,7,0,1,,,,,,,,,,,,,,,,,,,,,,,,,,,,,,,,,,,,,,,,,,,,,,,,,,,,,,,,,,,,,,,,,,,,,,,,,,,,,,,,,,,
,,,,,,,,,5f2d4ed77f1d552c576f64bf,22,Mężczyzna,2022-06-04_08h08.16.545,task,2021.1.4,Win32,74.97375918,628b806c463b948bc644b84f,629af6c7337ba002f49ae5b6,,,,,,0,0,0,0,1,X V Q F H G B L J M P D K C T S W R N Z,,,,,,,,,,,,,,,,,,,,,,,,,,,,,,,,,,,,,,,,,,,,,,,,,,,,,,,,,,,,,,,,,,,,,,,,,,,,,,,,,,,,,,,,,,,,,
,,,,,,,,,5f2d4ed77f1d552c576f64bf,22,Mężczyzna,2022-06-04_08h08.16.545,task,2021.1.4,Win32,74.97375918,628b806c463b948bc644b84f,629af6c7337ba002f49ae5b6,,,,,,1,0,1,0,1,X V Q F H G B L J M P D K C T S W R N Z,,,,,,,,,,,,,,,,,,,,,,,,,,,,,,,,,,,,,,,,,,,,,,,,,,,,,,,,,,,,,,,,,,,,,,,,,,,,,,,,,,,,,,,,,,,,,
,,,,,,,,,5f2d4ed77f1d552c576f64bf,22,Mężczyzna,2022-06-04_08h08.16.545,task,2021.1.4,Win32,74.97375918,628b806c463b948bc644b84f,629af6c7337ba002f49ae5b6,,,,,,2,0,2,0,1,X V Q F H G B L J M P D K C T S W R N Z,,,,,,,,,,,,,,,,,,,,,,,,,,,,,,,,,,,,,,,,,,,,,,,,,,,,,,,,,,,,,,,,,,,,,,,,,,,,,,,,,,,,,,,,,,,,,
,,,,,,,,,5f2d4ed77f1d552c576f64bf,22,Mężczyzna,2022-06-04_08h08.16.545,task,2021.1.4,Win32,74.97375918,628b806c463b948bc644b84f,629af6c7337ba002f49ae5b6,,,,,,3,0,3,0,1,X V Q F H G B L J M P D K C T S W R N Z,,,,,,,,,,,,,,,,,,,,,,,,,,,,,,,,,,,,,,,,,,,,,,,,,,,,,,,,,,,,,,,,,,,,,,,,,,,,,,,,,,,,,,,,,,,,,
,,,,,,,,,5f2d4ed77f1d552c576f64bf,22,Mężczyzna,2022-06-04_08h08.16.545,task,2021.1.4,Win32,74.97375918,628b806c463b948bc644b84f,629af6c7337ba002f49ae5b6,,,,,,4,0,4,0,1,X V Q F H G B L J M P D K C T S W R N Z,,,,,,,,,,,,,,,,,,,,,,,,,,,,,,,,,,,,,,,,,,,,,,,,,,,,,,,,,,,,,,,,,,,,,,,,,,,,,,,,,,,,,,,,,,,,,
,,,,,,,,,5f2d4ed77f1d552c576f64bf,22,Mężczyzna,2022-06-04_08h08.16.545,task,2021.1.4,Win32,74.97375918,628b806c463b948bc644b84f,629af6c7337ba002f49ae5b6,,,,,,,,,,,,clzbg,"[""c"",""l"",""z"",""b"",""g""]","[1.6764000000953843,1.9155000000000086,2.421900000095377,2.7825000000000273,3.184600000143064,4.4592000000477015]",1,CLZBG,8,0,8,0,1,,,,,,,,,,,,,,,,,,,,,,,,,,,,,,,,,,,,,,,,,,,,,,,,,,,,,,,,,,,,,,,,,,,,,,,,,,,,,,,,,,,
,,,,,,,,,5f2d4ed77f1d552c576f64bf,22,Mężczyzna,2022-06-04_08h08.16.545,task,2021.1.4,Win32,74.97375918,628b806c463b948bc644b84f,629af6c7337ba002f49ae5b6,,,,,,0,0,0,0,1,X V Q F H G B L J M P D K C T S W R N Z,,,,,,,,,,,,,,,,,,,,,,,,,,,,,,,,,,,,,,,,,,,,,,,,,,,,,,,,,,,,,,,,,,,,,,,,,,,,,,,,,,,,,,,,,,,,,
,,,,,,,,,5f2d4ed77f1d552c576f64bf,22,Mężczyzna,2022-06-04_08h08.16.545,task,2021.1.4,Win32,74.97375918,628b806c463b948bc644b84f,629af6c7337ba002f49ae5b6,,,,,,1,0,1,0,1,X V Q F H G B L J M P D K C T S W R N Z,,,,,,,,,,,,,,,,,,,,,,,,,,,,,,,,,,,,,,,,,,,,,,,,,,,,,,,,,,,,,,,,,,,,,,,,,,,,,,,,,,,,,,,,,,,,,
,,,,,,,,,5f2d4ed77f1d552c576f64bf,22,Mężczyzna,2022-06-04_08h08.16.545,task,2021.1.4,Win32,74.97375918,628b806c463b948bc644b84f,629af6c7337ba002f49ae5b6,,,,,,2,0,2,0,1,X V Q F H G B L J M P D K C T S W R N Z,,,,,,,,,,,,,,,,,,,,,,,,,,,,,,,,,,,,,,,,,,,,,,,,,,,,,,,,,,,,,,,,,,,,,,,,,,,,,,,,,,,,,,,,,,,,,
,,,,,,,,,5f2d4ed77f1d552c576f64bf,22,Mężczyzna,2022-06-04_08h08.16.545,task,2021.1.4,Win32,74.97375918,628b806c463b948bc644b84f,629af6c7337ba002f49ae5b6,,,,,,3,0,3,0,1,X V Q F H G B L J M P D K C T S W R N Z,,,,,,,,,,,,,,,,,,,,,,,,,,,,,,,,,,,,,,,,,,,,,,,,,,,,,,,,,,,,,,,,,,,,,,,,,,,,,,,,,,,,,,,,,,,,,
,,,,,,,,,5f2d4ed77f1d552c576f64bf,22,Mężczyzna,2022-06-04_08h08.16.545,task,2021.1.4,Win32,74.97375918,628b806c463b948bc644b84f,629af6c7337ba002f49ae5b6,,,,,,4,0,4,0,1,X V Q F H G B L J M P D K C T S W R N Z,,,,,,,,,,,,,,,,,,,,,,,,,,,,,,,,,,,,,,,,,,,,,,,,,,,,,,,,,,,,,,,,,,,,,,,,,,,,,,,,,,,,,,,,,,,,,
,,,,,,,,,5f2d4ed77f1d552c576f64bf,22,Mężczyzna,2022-06-04_08h08.16.545,task,2021.1.4,Win32,74.97375918,628b806c463b948bc644b84f,629af6c7337ba002f49ae5b6,,,,,,5,0,5,0,1,X V Q F H G B L J M P D K C T S W R N Z,,,,,,,,,,,,,,,,,,,,,,,,,,,,,,,,,,,,,,,,,,,,,,,,,,,,,,,,,,,,,,,,,,,,,,,,,,,,,,,,,,,,,,,,,,,,,
,,,,,,,,,5f2d4ed77f1d552c576f64bf,22,Mężczyzna,2022-06-04_08h08.16.545,task,2021.1.4,Win32,74.97375918,628b806c463b948bc644b84f,629af6c7337ba002f49ae5b6,,,,,,,,,,,,brvckj,"[""b"",""r"",""v"",""c"",""k"",""j""]","[1.9995000000000118,2.3587000000476905,3.1258000001907362,3.4616000001430507,4.073400000095376,4.337600000143027,6.181300000190731]",1,BRVCKJ,9,0,9,0,1,,,,,,,,,,,,,,,,,,,,,,,,,,,,,,,,,,,,,,,,,,,,,,,,,,,,,,,,,,,,,,,,,,,,,,,,,,,,,,,,,,,
,,,,,,,,,5f2d4ed77f1d552c576f64bf,22,Mężczyzna,2022-06-04_08h08.16.545,task,2021.1.4,Win32,74.97375918,628b806c463b948bc644b84f,629af6c7337ba002f49ae5b6,,,,,,0,0,0,0,1,X V Q F H G B L J M P D K C T S W R N Z,,,,,,,,,,,,,,,,,,,,,,,,,,,,,,,,,,,,,,,,,,,,,,,,,,,,,,,,,,,,,,,,,,,,,,,,,,,,,,,,,,,,,,,,,,,,,
,,,,,,,,,5f2d4ed77f1d552c576f64bf,22,Mężczyzna,2022-06-04_08h08.16.545,task,2021.1.4,Win32,74.97375918,628b806c463b948bc644b84f,629af6c7337ba002f49ae5b6,,,,,,1,0,1,0,1,X V Q F H G B L J M P D K C T S W R N Z,,,,,,,,,,,,,,,,,,,,,,,,,,,,,,,,,,,,,,,,,,,,,,,,,,,,,,,,,,,,,,,,,,,,,,,,,,,,,,,,,,,,,,,,,,,,,
,,,,,,,,,5f2d4ed77f1d552c576f64bf,22,Mężczyzna,2022-06-04_08h08.16.545,task,2021.1.4,Win32,74.97375918,628b806c463b948bc644b84f,629af6c7337ba002f49ae5b6,,,,,,2,0,2,0,1,X V Q F H G B L J M P D K C T S W R N Z,,,,,,,,,,,,,,,,,,,,,,,,,,,,,,,,,,,,,,,,,,,,,,,,,,,,,,,,,,,,,,,,,,,,,,,,,,,,,,,,,,,,,,,,,,,,,
,,,,,,,,,5f2d4ed77f1d552c576f64bf,22,Mężczyzna,2022-06-04_08h08.16.545,task,2021.1.4,Win32,74.97375918,628b806c463b948bc644b84f,629af6c7337ba002f49ae5b6,,,,,,3,0,3,0,1,X V Q F H G B L J M P D K C T S W R N Z,,,,,,,,,,,,,,,,,,,,,,,,,,,,,,,,,,,,,,,,,,,,,,,,,,,,,,,,,,,,,,,,,,,,,,,,,,,,,,,,,,,,,,,,,,,,,
,,,,,,,,,5f2d4ed77f1d552c576f64bf,22,Mężczyzna,2022-06-04_08h08.16.545,task,2021.1.4,Win32,74.97375918,628b806c463b948bc644b84f,629af6c7337ba002f49ae5b6,,,,,,4,0,4,0,1,X V Q F H G B L J M P D K C T S W R N Z,,,,,,,,,,,,,,,,,,,,,,,,,,,,,,,,,,,,,,,,,,,,,,,,,,,,,,,,,,,,,,,,,,,,,,,,,,,,,,,,,,,,,,,,,,,,,
,,,,,,,,,5f2d4ed77f1d552c576f64bf,22,Mężczyzna,2022-06-04_08h08.16.545,task,2021.1.4,Win32,74.97375918,628b806c463b948bc644b84f,629af6c7337ba002f49ae5b6,,,,,,5,0,5,0,1,X V Q F H G B L J M P D K C T S W R N Z,,,,,,,,,,,,,,,,,,,,,,,,,,,,,,,,,,,,,,,,,,,,,,,,,,,,,,,,,,,,,,,,,,,,,,,,,,,,,,,,,,,,,,,,,,,,,
,,,,,,,,,5f2d4ed77f1d552c576f64bf,22,Mężczyzna,2022-06-04_08h08.16.545,task,2021.1.4,Win32,74.97375918,628b806c463b948bc644b84f,629af6c7337ba002f49ae5b6,,,,,,,,,,,,fsctkq,"[""f"",""s"",""c"",""t"",""k"",""q""]","[4.978700000047695,5.125,5.351299999952346,6.774799999952336,6.956799999952352,7.116700000047729,9.073299999952326]",0,SNCTKQ,10,0,10,0,1,,,,,,,,,,,,,,,,,,,,,,,,,,,,,,,,,,,,,,,,,,,,,,,,,,,,,,,,,,,,,,,,,,,,,,,,,,,,,,,,,,,
,,,,,,,,,5f2d4ed77f1d552c576f64bf,22,Mężczyzna,2022-06-04_08h08.16.545,task,2021.1.4,Win32,74.97375918,628b806c463b948bc644b84f,629af6c7337ba002f49ae5b6,,,,,,0,0,0,0,1,X V Q F H G B L J M P D K C T S W R N Z,,,,,,,,,,,,,,,,,,,,,,,,,,,,,,,,,,,,,,,,,,,,,,,,,,,,,,,,,,,,,,,,,,,,,,,,,,,,,,,,,,,,,,,,,,,,,
,,,,,,,,,5f2d4ed77f1d552c576f64bf,22,Mężczyzna,2022-06-04_08h08.16.545,task,2021.1.4,Win32,74.97375918,628b806c463b948bc644b84f,629af6c7337ba002f49ae5b6,,,,,,1,0,1,0,1,X V Q F H G B L J M P D K C T S W R N Z,,,,,,,,,,,,,,,,,,,,,,,,,,,,,,,,,,,,,,,,,,,,,,,,,,,,,,,,,,,,,,,,,,,,,,,,,,,,,,,,,,,,,,,,,,,,,
,,,,,,,,,5f2d4ed77f1d552c576f64bf,22,Mężczyzna,2022-06-04_08h08.16.545,task,2021.1.4,Win32,74.97375918,628b806c463b948bc644b84f,629af6c7337ba002f49ae5b6,,,,,,2,0,2,0,1,X V Q F H G B L J M P D K C T S W R N Z,,,,,,,,,,,,,,,,,,,,,,,,,,,,,,,,,,,,,,,,,,,,,,,,,,,,,,,,,,,,,,,,,,,,,,,,,,,,,,,,,,,,,,,,,,,,,
,,,,,,,,,5f2d4ed77f1d552c576f64bf,22,Mężczyzna,2022-06-04_08h08.16.545,task,2021.1.4,Win32,74.97375918,628b806c463b948bc644b84f,629af6c7337ba002f49ae5b6,,,,,,3,0,3,0,1,X V Q F H G B L J M P D K C T S W R N Z,,,,,,,,,,,,,,,,,,,,,,,,,,,,,,,,,,,,,,,,,,,,,,,,,,,,,,,,,,,,,,,,,,,,,,,,,,,,,,,,,,,,,,,,,,,,,
,,,,,,,,,5f2d4ed77f1d552c576f64bf,22,Mężczyzna,2022-06-04_08h08.16.545,task,2021.1.4,Win32,74.97375918,628b806c463b948bc644b84f,629af6c7337ba002f49ae5b6,,,,,,4,0,4,0,1,X V Q F H G B L J M P D K C T S W R N Z,,,,,,,,,,,,,,,,,,,,,,,,,,,,,,,,,,,,,,,,,,,,,,,,,,,,,,,,,,,,,,,,,,,,,,,,,,,,,,,,,,,,,,,,,,,,,
,,,,,,,,,5f2d4ed77f1d552c576f64bf,22,Mężczyzna,2022-06-04_08h08.16.545,task,2021.1.4,Win32,74.97375918,628b806c463b948bc644b84f,629af6c7337ba002f49ae5b6,,,,,,5,0,5,0,1,X V Q F H G B L J M P D K C T S W R N Z,,,,,,,,,,,,,,,,,,,,,,,,,,,,,,,,,,,,,,,,,,,,,,,,,,,,,,,,,,,,,,,,,,,,,,,,,,,,,,,,,,,,,,,,,,,,,
,,,,,,,,,5f2d4ed77f1d552c576f64bf,22,Mężczyzna,2022-06-04_08h08.16.545,task,2021.1.4,Win32,74.97375918,628b806c463b948bc644b84f,629af6c7337ba002f49ae5b6,,,,,,,,,,,,qlcskt,"[""q"",""l"",""c"",""s"",""k"",""t""]","[1.563799999952323,2.7292999999523317,3.109900000095365,4.80440000009537,5.046799999952327,5.460200000047678,6.170200000047714]",0,QLMSKT,11,0,11,0,1,,,,,,,,,,,,,,,,,,,,,,,,,,,,,,,,,,,,,,,,,,,,,,,,,,,,,,,,,,,,,,,,,,,,,,,,,,,,,,,,,,,
,,,,,,,,,5f2d4ed77f1d552c576f64bf,22,Mężczyzna,2022-06-04_08h08.16.545,task,2021.1.4,Win32,74.97375918,628b806c463b948bc644b84f,629af6c7337ba002f49ae5b6,,,,,,0,0,0,0,1,X V Q F H G B L J M P D K C T S W R N Z,,,,,,,,,,,,,,,,,,,,,,,,,,,,,,,,,,,,,,,,,,,,,,,,,,,,,,,,,,,,,,,,,,,,,,,,,,,,,,,,,,,,,,,,,,,,,
,,,,,,,,,5f2d4ed77f1d552c576f64bf,22,Mężczyzna,2022-06-04_08h08.16.545,task,2021.1.4,Win32,74.97375918,628b806c463b948bc644b84f,629af6c7337ba002f49ae5b6,,,,,,1,0,1,0,1,X V Q F H G B L J M P D K C T S W R N Z,,,,,,,,,,,,,,,,,,,,,,,,,,,,,,,,,,,,,,,,,,,,,,,,,,,,,,,,,,,,,,,,,,,,,,,,,,,,,,,,,,,,,,,,,,,,,
,,,,,,,,,5f2d4ed77f1d552c576f64bf,22,Mężczyzna,2022-06-04_08h08.16.545,task,2021.1.4,Win32,74.97375918,628b806c463b948bc644b84f,629af6c7337ba002f49ae5b6,,,,,,2,0,2,0,1,X V Q F H G B L J M P D K C T S W R N Z,,,,,,,,,,,,,,,,,,,,,,,,,,,,,,,,,,,,,,,,,,,,,,,,,,,,,,,,,,,,,,,,,,,,,,,,,,,,,,,,,,,,,,,,,,,,,
,,,,,,,,,5f2d4ed77f1d552c576f64bf,22,Mężczyzna,2022-06-04_08h08.16.545,task,2021.1.4,Win32,74.97375918,628b806c463b948bc644b84f,629af6c7337ba002f49ae5b6,,,,,,3,0,3,0,1,X V Q F H G B L J M P D K C T S W R N Z,,,,,,,,,,,,,,,,,,,,,,,,,,,,,,,,,,,,,,,,,,,,,,,,,,,,,,,,,,,,,,,,,,,,,,,,,,,,,,,,,,,,,,,,,,,,,
,,,,,,,,,5f2d4ed77f1d552c576f64bf,22,Mężczyzna,2022-06-04_08h08.16.545,task,2021.1.4,Win32,74.97375918,628b806c463b948bc644b84f,629af6c7337ba002f49ae5b6,,,,,,4,0,4,0,1,X V Q F H G B L J M P D K C T S W R N Z,,,,,,,,,,,,,,,,,,,,,,,,,,,,,,,,,,,,,,,,,,,,,,,,,,,,,,,,,,,,,,,,,,,,,,,,,,,,,,,,,,,,,,,,,,,,,
,,,,,,,,,5f2d4ed77f1d552c576f64bf,22,Mężczyzna,2022-06-04_08h08.16.545,task,2021.1.4,Win32,74.97375918,628b806c463b948bc644b84f,629af6c7337ba002f49ae5b6,,,,,,5,0,5,0,1,X V Q F H G B L J M P D K C T S W R N Z,,,,,,,,,,,,,,,,,,,,,,,,,,,,,,,,,,,,,,,,,,,,,,,,,,,,,,,,,,,,,,,,,,,,,,,,,,,,,,,,,,,,,,,,,,,,,
,,,,,,,,,5f2d4ed77f1d552c576f64bf,22,Mężczyzna,2022-06-04_08h08.16.545,task,2021.1.4,Win32,74.97375918,628b806c463b948bc644b84f,629af6c7337ba002f49ae5b6,,,,,,,,,,,,qtlthl,"[""q"",""t"",""l"",""t"",""h"",""l""]","[0.5854999999999677,6.2855999999047185,6.622000000000014,7.238399999856995,7.8222999999523495,8.43709999990466,9.331299999952364]",1,QTLTHL,12,0,12,0,1,,,,,,,,,,,,,,,,,,,,,,,,,,,,,,,,,,,,,,,,,,,,,,,,,,,,,,,,,,,,,,,,,,,,,,,,,,,,,,,,,,,
,,,,,,,,,5f2d4ed77f1d552c576f64bf,22,Mężczyzna,2022-06-04_08h08.16.545,task,2021.1.4,Win32,74.97375918,628b806c463b948bc644b84f,629af6c7337ba002f49ae5b6,,,,,,0,0,0,0,1,X V Q F H G B L J M P D K C T S W R N Z,,,,,,,,,,,,,,,,,,,,,,,,,,,,,,,,,,,,,,,,,,,,,,,,,,,,,,,,,,,,,,,,,,,,,,,,,,,,,,,,,,,,,,,,,,,,,
,,,,,,,,,5f2d4ed77f1d552c576f64bf,22,Mężczyzna,2022-06-04_08h08.16.545,task,2021.1.4,Win32,74.97375918,628b806c463b948bc644b84f,629af6c7337ba002f49ae5b6,,,,,,1,0,1,0,1,X V Q F H G B L J M P D K C T S W R N Z,,,,,,,,,,,,,,,,,,,,,,,,,,,,,,,,,,,,,,,,,,,,,,,,,,,,,,,,,,,,,,,,,,,,,,,,,,,,,,,,,,,,,,,,,,,,,
,,,,,,,,,5f2d4ed77f1d552c576f64bf,22,Mężczyzna,2022-06-04_08h08.16.545,task,2021.1.4,Win32,74.97375918,628b806c463b948bc644b84f,629af6c7337ba002f49ae5b6,,,,,,2,0,2,0,1,X V Q F H G B L J M P D K C T S W R N Z,,,,,,,,,,,,,,,,,,,,,,,,,,,,,,,,,,,,,,,,,,,,,,,,,,,,,,,,,,,,,,,,,,,,,,,,,,,,,,,,,,,,,,,,,,,,,
,,,,,,,,,5f2d4ed77f1d552c576f64bf,22,Mężczyzna,2022-06-04_08h08.16.545,task,2021.1.4,Win32,74.97375918,628b806c463b948bc644b84f,629af6c7337ba002f49ae5b6,,,,,,3,0,3,0,1,X V Q F H G B L J M P D K C T S W R N Z,,,,,,,,,,,,,,,,,,,,,,,,,,,,,,,,,,,,,,,,,,,,,,,,,,,,,,,,,,,,,,,,,,,,,,,,,,,,,,,,,,,,,,,,,,,,,
,,,,,,,,,5f2d4ed77f1d552c576f64bf,22,Mężczyzna,2022-06-04_08h08.16.545,task,2021.1.4,Win32,74.97375918,628b806c463b948bc644b84f,629af6c7337ba002f49ae5b6,,,,,,4,0,4,0,1,X V Q F H G B L J M P D K C T S W R N Z,,,,,,,,,,,,,,,,,,,,,,,,,,,,,,,,,,,,,,,,,,,,,,,,,,,,,,,,,,,,,,,,,,,,,,,,,,,,,,,,,,,,,,,,,,,,,
,,,,,,,,,5f2d4ed77f1d552c576f64bf,22,Mężczyzna,2022-06-04_08h08.16.545,task,2021.1.4,Win32,74.97375918,628b806c463b948bc644b84f,629af6c7337ba002f49ae5b6,,,,,,5,0,5,0,1,X V Q F H G B L J M P D K C T S W R N Z,,,,,,,,,,,,,,,,,,,,,,,,,,,,,,,,,,,,,,,,,,,,,,,,,,,,,,,,,,,,,,,,,,,,,,,,,,,,,,,,,,,,,,,,,,,,,
,,,,,,,,,5f2d4ed77f1d552c576f64bf,22,Mężczyzna,2022-06-04_08h08.16.545,task,2021.1.4,Win32,74.97375918,628b806c463b948bc644b84f,629af6c7337ba002f49ae5b6,,,,,,6,0,6,0,1,X V Q F H G B L J M P D K C T S W R N Z,,,,,,,,,,,,,,,,,,,,,,,,,,,,,,,,,,,,,,,,,,,,,,,,,,,,,,,,,,,,,,,,,,,,,,,,,,,,,,,,,,,,,,,,,,,,,
,,,,,,,,,5f2d4ed77f1d552c576f64bf,22,Mężczyzna,2022-06-04_08h08.16.545,task,2021.1.4,Win32,74.97375918,628b806c463b948bc644b84f,629af6c7337ba002f49ae5b6,,,,,,,,,,,,phdsqzl,"[""p"",""h"",""d"",""s"",""q"",""z"",""l""]","[1.0567000000477265,1.3688000001907312,1.6884999999999764,1.9233000001908067,2.2245000000000346,2.488700000047743,2.8606000001431084,4.718000000000075]",1,PHDSQZL,13,0,13,0,1,,,,,,,,,,,,,,,,,,,,,,,,,,,,,,,,,,,,,,,,,,,,,,,,,,,,,,,,,,,,,,,,,,,,,,,,,,,,,,,,,,,
,,,,,,,,,5f2d4ed77f1d552c576f64bf,22,Mężczyzna,2022-06-04_08h08.16.545,task,2021.1.4,Win32,74.97375918,628b806c463b948bc644b84f,629af6c7337ba002f49ae5b6,,,,,,0,0,0,0,1,X V Q F H G B L J M P D K C T S W R N Z,,,,,,,,,,,,,,,,,,,,,,,,,,,,,,,,,,,,,,,,,,,,,,,,,,,,,,,,,,,,,,,,,,,,,,,,,,,,,,,,,,,,,,,,,,,,,
,,,,,,,,,5f2d4ed77f1d552c576f64bf,22,Mężczyzna,2022-06-04_08h08.16.545,task,2021.1.4,Win32,74.97375918,628b806c463b948bc644b84f,629af6c7337ba002f49ae5b6,,,,,,1,0,1,0,1,X V Q F H G B L J M P D K C T S W R N Z,,,,,,,,,,,,,,,,,,,,,,,,,,,,,,,,,,,,,,,,,,,,,,,,,,,,,,,,,,,,,,,,,,,,,,,,,,,,,,,,,,,,,,,,,,,,,
,,,,,,,,,5f2d4ed77f1d552c576f64bf,22,Mężczyzna,2022-06-04_08h08.16.545,task,2021.1.4,Win32,74.97375918,628b806c463b948bc644b84f,629af6c7337ba002f49ae5b6,,,,,,2,0,2,0,1,X V Q F H G B L J M P D K C T S W R N Z,,,,,,,,,,,,,,,,,,,,,,,,,,,,,,,,,,,,,,,,,,,,,,,,,,,,,,,,,,,,,,,,,,,,,,,,,,,,,,,,,,,,,,,,,,,,,
,,,,,,,,,5f2d4ed77f1d552c576f64bf,22,Mężczyzna,2022-06-04_08h08.16.545,task,2021.1.4,Win32,74.97375918,628b806c463b948bc644b84f,629af6c7337ba002f49ae5b6,,,,,,3,0,3,0,1,X V Q F H G B L J M P D K C T S W R N Z,,,,,,,,,,,,,,,,,,,,,,,,,,,,,,,,,,,,,,,,,,,,,,,,,,,,,,,,,,,,,,,,,,,,,,,,,,,,,,,,,,,,,,,,,,,,,
,,,,,,,,,5f2d4ed77f1d552c576f64bf,22,Mężczyzna,2022-06-04_08h08.16.545,task,2021.1.4,Win32,74.97375918,628b806c463b948bc644b84f,629af6c7337ba002f49ae5b6,,,,,,4,0,4,0,1,X V Q F H G B L J M P D K C T S W R N Z,,,,,,,,,,,,,,,,,,,,,,,,,,,,,,,,,,,,,,,,,,,,,,,,,,,,,,,,,,,,,,,,,,,,,,,,,,,,,,,,,,,,,,,,,,,,,
,,,,,,,,,5f2d4ed77f1d552c576f64bf,22,Mężczyzna,2022-06-04_08h08.16.545,task,2021.1.4,Win32,74.97375918,628b806c463b948bc644b84f,629af6c7337ba002f49ae5b6,,,,,,5,0,5,0,1,X V Q F H G B L J M P D K C T S W R N Z,,,,,,,,,,,,,,,,,,,,,,,,,,,,,,,,,,,,,,,,,,,,,,,,,,,,,,,,,,,,,,,,,,,,,,,,,,,,,,,,,,,,,,,,,,,,,
,,,,,,,,,5f2d4ed77f1d552c576f64bf,22,Mężczyzna,2022-06-04_08h08.16.545,task,2021.1.4,Win32,74.97375918,628b806c463b948bc644b84f,629af6c7337ba002f49ae5b6,,,,,,6,0,6,0,1,X V Q F H G B L J M P D K C T S W R N Z,,,,,,,,,,,,,,,,,,,,,,,,,,,,,,,,,,,,,,,,,,,,,,,,,,,,,,,,,,,,,,,,,,,,,,,,,,,,,,,,,,,,,,,,,,,,,
,,,,,,,,,5f2d4ed77f1d552c576f64bf,22,Mężczyzna,2022-06-04_08h08.16.545,task,2021.1.4,Win32,74.97375918,628b806c463b948bc644b84f,629af6c7337ba002f49ae5b6,,,,,,,,,,,,smqwkd,"[""s"",""m"",""q"",""w"",""k"",""d""]","[1.1304999999999836,1.3543999998569234,2.3694999999999027,39.471399999856885,39.66029999995226,42.8897000000477,44.098200000047655]",0,SMQZWKD,14,0,14,0,1,,,,,,,,,,,,,,,,,,,,,,,,,,,,,,,,,,,,,,,,,,,,,,,,,,,,,,,,,,,,,,,,,,,,,,,,,,,,,,,,,,,
,,,,,,,,,5f2d4ed77f1d552c576f64bf,22,Mężczyzna,2022-06-04_08h08.16.545,task,2021.1.4,Win32,74.97375918,628b806c463b948bc644b84f,629af6c7337ba002f49ae5b6,,,,,,0,0,0,0,1,X V Q F H G B L J M P D K C T S W R N Z,,,,,,,,,,,,,,,,,,,,,,,,,,,,,,,,,,,,,,,,,,,,,,,,,,,,,,,,,,,,,,,,,,,,,,,,,,,,,,,,,,,,,,,,,,,,,
,,,,,,,,,5f2d4ed77f1d552c576f64bf,22,Mężczyzna,2022-06-04_08h08.16.545,task,2021.1.4,Win32,74.97375918,628b806c463b948bc644b84f,629af6c7337ba002f49ae5b6,,,,,,1,0,1,0,1,X V Q F H G B L J M P D K C T S W R N Z,,,,,,,,,,,,,,,,,,,,,,,,,,,,,,,,,,,,,,,,,,,,,,,,,,,,,,,,,,,,,,,,,,,,,,,,,,,,,,,,,,,,,,,,,,,,,
,,,,,,,,,5f2d4ed77f1d552c576f64bf,22,Mężczyzna,2022-06-04_08h08.16.545,task,2021.1.4,Win32,74.97375918,628b806c463b948bc644b84f,629af6c7337ba002f49ae5b6,,,,,,2,0,2,0,1,X V Q F H G B L J M P D K C T S W R N Z,,,,,,,,,,,,,,,,,,,,,,,,,,,,,,,,,,,,,,,,,,,,,,,,,,,,,,,,,,,,,,,,,,,,,,,,,,,,,,,,,,,,,,,,,,,,,
,,,,,,,,,5f2d4ed77f1d552c576f64bf,22,Mężczyzna,2022-06-04_08h08.16.545,task,2021.1.4,Win32,74.97375918,628b806c463b948bc644b84f,629af6c7337ba002f49ae5b6,,,,,,3,0,3,0,1,X V Q F H G B L J M P D K C T S W R N Z,,,,,,,,,,,,,,,,,,,,,,,,,,,,,,,,,,,,,,,,,,,,,,,,,,,,,,,,,,,,,,,,,,,,,,,,,,,,,,,,,,,,,,,,,,,,,
,,,,,,,,,5f2d4ed77f1d552c576f64bf,22,Mężczyzna,2022-06-04_08h08.16.545,task,2021.1.4,Win32,74.97375918,628b806c463b948bc644b84f,629af6c7337ba002f49ae5b6,,,,,,4,0,4,0,1,X V Q F H G B L J M P D K C T S W R N Z,,,,,,,,,,,,,,,,,,,,,,,,,,,,,,,,,,,,,,,,,,,,,,,,,,,,,,,,,,,,,,,,,,,,,,,,,,,,,,,,,,,,,,,,,,,,,
,,,,,,,,,5f2d4ed77f1d552c576f64bf,22,Mężczyzna,2022-06-04_08h08.16.545,task,2021.1.4,Win32,74.97375918,628b806c463b948bc644b84f,629af6c7337ba002f49ae5b6,,,,,,5,0,5,0,1,X V Q F H G B L J M P D K C T S W R N Z,,,,,,,,,,,,,,,,,,,,,,,,,,,,,,,,,,,,,,,,,,,,,,,,,,,,,,,,,,,,,,,,,,,,,,,,,,,,,,,,,,,,,,,,,,,,,
,,,,,,,,,5f2d4ed77f1d552c576f64bf,22,Mężczyzna,2022-06-04_08h08.16.545,task,2021.1.4,Win32,74.97375918,628b806c463b948bc644b84f,629af6c7337ba002f49ae5b6,,,,,,6,0,6,0,1,X V Q F H G B L J M P D K C T S W R N Z,,,,,,,,,,,,,,,,,,,,,,,,,,,,,,,,,,,,,,,,,,,,,,,,,,,,,,,,,,,,,,,,,,,,,,,,,,,,,,,,,,,,,,,,,,,,,
,,,,,,,,,5f2d4ed77f1d552c576f64bf,22,Mężczyzna,2022-06-04_08h08.16.545,task,2021.1.4,Win32,74.97375918,628b806c463b948bc644b84f,629af6c7337ba002f49ae5b6,,,,,,,,,,,,jkkhs,"[""j"",""k"",""k"",""h"",""s""]","[1.4169000000954384,1.6714000000954456,2.261000000000081,4.592000000000098,4.766200000047775,7.940400000095451]",0,JKKMHGS,15,0,15,0,1,,,,,,,,,,,,,,,,,,,,,,,,,,,,,,,,,,,,,,,,,,,,,,,,,,,,,,,,,,,,,,,,,,,,,,,,,,,,,,,,,,,
,,,,,,,,,5f2d4ed77f1d552c576f64bf,22,Mężczyzna,2022-06-04_08h08.16.545,task,2021.1.4,Win32,74.97375918,628b806c463b948bc644b84f,629af6c7337ba002f49ae5b6,,,,,,0,0,0,0,1,X V Q F H G B L J M P D K C T S W R N Z,,,,,,,,,,,,,,,,,,,,,,,,,,,,,,,,,,,,,,,,,,,,,,,,,,,,,,,,,,,,,,,,,,,,,,,,,,,,,,,,,,,,,,,,,,,,,
,,,,,,,,,5f2d4ed77f1d552c576f64bf,22,Mężczyzna,2022-06-04_08h08.16.545,task,2021.1.4,Win32,74.97375918,628b806c463b948bc644b84f,629af6c7337ba002f49ae5b6,,,,,,1,0,1,0,1,X V Q F H G B L J M P D K C T S W R N Z,,,,,,,,,,,,,,,,,,,,,,,,,,,,,,,,,,,,,,,,,,,,,,,,,,,,,,,,,,,,,,,,,,,,,,,,,,,,,,,,,,,,,,,,,,,,,
,,,,,,,,,5f2d4ed77f1d552c576f64bf,22,Mężczyzna,2022-06-04_08h08.16.545,task,2021.1.4,Win32,74.97375918,628b806c463b948bc644b84f,629af6c7337ba002f49ae5b6,,,,,,2,0,2,0,1,X V Q F H G B L J M P D K C T S W R N Z,,,,,,,,,,,,,,,,,,,,,,,,,,,,,,,,,,,,,,,,,,,,,,,,,,,,,,,,,,,,,,,,,,,,,,,,,,,,,,,,,,,,,,,,,,,,,
,,,,,,,,,5f2d4ed77f1d552c576f64bf,22,Mężczyzna,2022-06-04_08h08.16.545,task,2021.1.4,Win32,74.97375918,628b806c463b948bc644b84f,629af6c7337ba002f49ae5b6,,,,,,3,0,3,0,1,X V Q F H G B L J M P D K C T S W R N Z,,,,,,,,,,,,,,,,,,,,,,,,,,,,,,,,,,,,,,,,,,,,,,,,,,,,,,,,,,,,,,,,,,,,,,,,,,,,,,,,,,,,,,,,,,,,,
,,,,,,,,,5f2d4ed77f1d552c576f64bf,22,Mężczyzna,2022-06-04_08h08.16.545,task,2021.1.4,Win32,74.97375918,628b806c463b948bc644b84f,629af6c7337ba002f49ae5b6,,,,,,4,0,4,0,1,X V Q F H G B L J M P D K C T S W R N Z,,,,,,,,,,,,,,,,,,,,,,,,,,,,,,,,,,,,,,,,,,,,,,,,,,,,,,,,,,,,,,,,,,,,,,,,,,,,,,,,,,,,,,,,,,,,,
,,,,,,,,,5f2d4ed77f1d552c576f64bf,22,Mężczyzna,2022-06-04_08h08.16.545,task,2021.1.4,Win32,74.97375918,628b806c463b948bc644b84f,629af6c7337ba002f49ae5b6,,,,,,5,0,5,0,1,X V Q F H G B L J M P D K C T S W R N Z,,,,,,,,,,,,,,,,,,,,,,,,,,,,,,,,,,,,,,,,,,,,,,,,,,,,,,,,,,,,,,,,,,,,,,,,,,,,,,,,,,,,,,,,,,,,,
,,,,,,,,,5f2d4ed77f1d552c576f64bf,22,Mężczyzna,2022-06-04_08h08.16.545,task,2021.1.4,Win32,74.97375918,628b806c463b948bc644b84f,629af6c7337ba002f49ae5b6,,,,,,6,0,6,0,1,X V Q F H G B L J M P D K C T S W R N Z,,,,,,,,,,,,,,,,,,,,,,,,,,,,,,,,,,,,,,,,,,,,,,,,,,,,,,,,,,,,,,,,,,,,,,,,,,,,,,,,,,,,,,,,,,,,,
,,,,,,,,,5f2d4ed77f1d552c576f64bf,22,Mężczyzna,2022-06-04_08h08.16.545,task,2021.1.4,Win32,74.97375918,628b806c463b948bc644b84f,629af6c7337ba002f49ae5b6,,,,,,,,,,,,vhfdpxt,"[""v"",""h"",""f"",""d"",""p"",""x"",""t""]","[38.530799999952364,38.87900000000002,44.96439999985694,46.34069999980932,57.25379999995232,57.44359999990468,58.151799999952345,59.05879999995227]",1,VHFDPXT,16,0,16,0,1,,,,,,,,,,,,,,,,,,,,,,,,,,,,,,,,,,,,,,,,,,,,,,,,,,,,,,,,,,,,,,,,,,,,,,,,,,,,,,,,,,,
,,,,,,,,,5f2d4ed77f1d552c576f64bf,22,Mężczyzna,2022-06-04_08h08.16.545,task,2021.1.4,Win32,74.97375918,628b806c463b948bc644b84f,629af6c7337ba002f49ae5b6,,,,,,0,0,0,0,1,X V Q F H G B L J M P D K C T S W R N Z,,,,,,,,,,,,,,,,,,,,,,,,,,,,,,,,,,,,,,,,,,,,,,,,,,,,,,,,,,,,,,,,,,,,,,,,,,,,,,,,,,,,,,,,,,,,,
,,,,,,,,,5f2d4ed77f1d552c576f64bf,22,Mężczyzna,2022-06-04_08h08.16.545,task,2021.1.4,Win32,74.97375918,628b806c463b948bc644b84f,629af6c7337ba002f49ae5b6,,,,,,1,0,1,0,1,X V Q F H G B L J M P D K C T S W R N Z,,,,,,,,,,,,,,,,,,,,,,,,,,,,,,,,,,,,,,,,,,,,,,,,,,,,,,,,,,,,,,,,,,,,,,,,,,,,,,,,,,,,,,,,,,,,,
,,,,,,,,,5f2d4ed77f1d552c576f64bf,22,Mężczyzna,2022-06-04_08h08.16.545,task,2021.1.4,Win32,74.97375918,628b806c463b948bc644b84f,629af6c7337ba002f49ae5b6,,,,,,2,0,2,0,1,X V Q F H G B L J M P D K C T S W R N Z,,,,,,,,,,,,,,,,,,,,,,,,,,,,,,,,,,,,,,,,,,,,,,,,,,,,,,,,,,,,,,,,,,,,,,,,,,,,,,,,,,,,,,,,,,,,,
,,,,,,,,,5f2d4ed77f1d552c576f64bf,22,Mężczyzna,2022-06-04_08h08.16.545,task,2021.1.4,Win32,74.97375918,628b806c463b948bc644b84f,629af6c7337ba002f49ae5b6,,,,,,3,0,3,0,1,X V Q F H G B L J M P D K C T S W R N Z,,,,,,,,,,,,,,,,,,,,,,,,,,,,,,,,,,,,,,,,,,,,,,,,,,,,,,,,,,,,,,,,,,,,,,,,,,,,,,,,,,,,,,,,,,,,,
,,,,,,,,,5f2d4ed77f1d552c576f64bf,22,Mężczyzna,2022-06-04_08h08.16.545,task,2021.1.4,Win32,74.97375918,628b806c463b948bc644b84f,629af6c7337ba002f49ae5b6,,,,,,4,0,4,0,1,X V Q F H G B L J M P D K C T S W R N Z,,,,,,,,,,,,,,,,,,,,,,,,,,,,,,,,,,,,,,,,,,,,,,,,,,,,,,,,,,,,,,,,,,,,,,,,,,,,,,,,,,,,,,,,,,,,,
,,,,,,,,,5f2d4ed77f1d552c576f64bf,22,Mężczyzna,2022-06-04_08h08.16.545,task,2021.1.4,Win32,74.97375918,628b806c463b948bc644b84f,629af6c7337ba002f49ae5b6,,,,,,5,0,5,0,1,X V Q F H G B L J M P D K C T S W R N Z,,,,,,,,,,,,,,,,,,,,,,,,,,,,,,,,,,,,,,,,,,,,,,,,,,,,,,,,,,,,,,,,,,,,,,,,,,,,,,,,,,,,,,,,,,,,,
,,,,,,,,,5f2d4ed77f1d552c576f64bf,22,Mężczyzna,2022-06-04_08h08.16.545,task,2021.1.4,Win32,74.97375918,628b806c463b948bc644b84f,629af6c7337ba002f49ae5b6,,,,,,6,0,6,0,1,X V Q F H G B L J M P D K C T S W R N Z,,,,,,,,,,,,,,,,,,,,,,,,,,,,,,,,,,,,,,,,,,,,,,,,,,,,,,,,,,,,,,,,,,,,,,,,,,,,,,,,,,,,,,,,,,,,,
,,,,,,,,,5f2d4ed77f1d552c576f64bf,22,Mężczyzna,2022-06-04_08h08.16.545,task,2021.1.4,Win32,74.97375918,628b806c463b948bc644b84f,629af6c7337ba002f49ae5b6,,,,,,7,0,7,0,1,X V Q F H G B L J M P D K C T S W R N Z,,,,,,,,,,,,,,,,,,,,,,,,,,,,,,,,,,,,,,,,,,,,,,,,,,,,,,,,,,,,,,,,,,,,,,,,,,,,,,,,,,,,,,,,,,,,,
,,,,,,,,,5f2d4ed77f1d552c576f64bf,22,Mężczyzna,2022-06-04_08h08.16.545,task,2021.1.4,Win32,74.97375918,628b806c463b948bc644b84f,629af6c7337ba002f49ae5b6,,,,,,,,,,,,xspjkxtj,"[""x"",""s"",""p"",""j"",""k"",""x"",""t"",""j""]","[0.6447999999523972,1.0887999999523572,2.162200000047733,3.564000000000078,3.785000000000082,4.785000000000082,5.63220000004776,7.114500000000021,8.224399999857042]",0,XSPJLXTJ,17,0,17,0,1,,,,,,,,,,,,,,,,,,,,,,,,,,,,,,,,,,,,,,,,,,,,,,,,,,,,,,,,,,,,,,,,,,,,,,,,,,,,,,,,,,,
,,,,,,,,,5f2d4ed77f1d552c576f64bf,22,Mężczyzna,2022-06-04_08h08.16.545,task,2021.1.4,Win32,74.97375918,628b806c463b948bc644b84f,629af6c7337ba002f49ae5b6,,,,,,0,0,0,0,1,X V Q F H G B L J M P D K C T S W R N Z,,,,,,,,,,,,,,,,,,,,,,,,,,,,,,,,,,,,,,,,,,,,,,,,,,,,,,,,,,,,,,,,,,,,,,,,,,,,,,,,,,,,,,,,,,,,,
,,,,,,,,,5f2d4ed77f1d552c576f64bf,22,Mężczyzna,2022-06-04_08h08.16.545,task,2021.1.4,Win32,74.97375918,628b806c463b948bc644b84f,629af6c7337ba002f49ae5b6,,,,,,1,0,1,0,1,X V Q F H G B L J M P D K C T S W R N Z,,,,,,,,,,,,,,,,,,,,,,,,,,,,,,,,,,,,,,,,,,,,,,,,,,,,,,,,,,,,,,,,,,,,,,,,,,,,,,,,,,,,,,,,,,,,,
,,,,,,,,,5f2d4ed77f1d552c576f64bf,22,Mężczyzna,2022-06-04_08h08.16.545,task,2021.1.4,Win32,74.97375918,628b806c463b948bc644b84f,629af6c7337ba002f49ae5b6,,,,,,2,0,2,0,1,X V Q F H G B L J M P D K C T S W R N Z,,,,,,,,,,,,,,,,,,,,,,,,,,,,,,,,,,,,,,,,,,,,,,,,,,,,,,,,,,,,,,,,,,,,,,,,,,,,,,,,,,,,,,,,,,,,,
,,,,,,,,,5f2d4ed77f1d552c576f64bf,22,Mężczyzna,2022-06-04_08h08.16.545,task,2021.1.4,Win32,74.97375918,628b806c463b948bc644b84f,629af6c7337ba002f49ae5b6,,,,,,3,0,3,0,1,X V Q F H G B L J M P D K C T S W R N Z,,,,,,,,,,,,,,,,,,,,,,,,,,,,,,,,,,,,,,,,,,,,,,,,,,,,,,,,,,,,,,,,,,,,,,,,,,,,,,,,,,,,,,,,,,,,,
,,,,,,,,,5f2d4ed77f1d552c576f64bf,22,Mężczyzna,2022-06-04_08h08.16.545,task,2021.1.4,Win32,74.97375918,628b806c463b948bc644b84f,629af6c7337ba002f49ae5b6,,,,,,4,0,4,0,1,X V Q F H G B L J M P D K C T S W R N Z,,,,,,,,,,,,,,,,,,,,,,,,,,,,,,,,,,,,,,,,,,,,,,,,,,,,,,,,,,,,,,,,,,,,,,,,,,,,,,,,,,,,,,,,,,,,,
,,,,,,,,,5f2d4ed77f1d552c576f64bf,22,Mężczyzna,2022-06-04_08h08.16.545,task,2021.1.4,Win32,74.97375918,628b806c463b948bc644b84f,629af6c7337ba002f49ae5b6,,,,,,5,0,5,0,1,X V Q F H G B L J M P D K C T S W R N Z,,,,,,,,,,,,,,,,,,,,,,,,,,,,,,,,,,,,,,,,,,,,,,,,,,,,,,,,,,,,,,,,,,,,,,,,,,,,,,,,,,,,,,,,,,,,,
,,,,,,,,,5f2d4ed77f1d552c576f64bf,22,Mężczyzna,2022-06-04_08h08.16.545,task,2021.1.4,Win32,74.97375918,628b806c463b948bc644b84f,629af6c7337ba002f49ae5b6,,,,,,6,0,6,0,1,X V Q F H G B L J M P D K C T S W R N Z,,,,,,,,,,,,,,,,,,,,,,,,,,,,,,,,,,,,,,,,,,,,,,,,,,,,,,,,,,,,,,,,,,,,,,,,,,,,,,,,,,,,,,,,,,,,,
,,,,,,,,,5f2d4ed77f1d552c576f64bf,22,Mężczyzna,2022-06-04_08h08.16.545,task,2021.1.4,Win32,74.97375918,628b806c463b948bc644b84f,629af6c7337ba002f49ae5b6,,,,,,7,0,7,0,1,X V Q F H G B L J M P D K C T S W R N Z,,,,,,,,,,,,,,,,,,,,,,,,,,,,,,,,,,,,,,,,,,,,,,,,,,,,,,,,,,,,,,,,,,,,,,,,,,,,,,,,,,,,,,,,,,,,,
,,,,,,,,,5f2d4ed77f1d552c576f64bf,22,Mężczyzna,2022-06-04_08h08.16.545,task,2021.1.4,Win32,74.97375918,628b806c463b948bc644b84f,629af6c7337ba002f49ae5b6,,,,,,,,,,,,zvpqpwdg,"[""z"",""v"",""p"",""q"",""p"",""w"",""d"",""g""]","[0.7850999999046735,0.9707999999523054,1.2509999999999764,1.4350999999046508,46.94559999990463,47.048599999904695,47.28899999999999,52.136200000047666,52.89970000004769]",1,ZVPQPWDG,18,0,18,0,1,,,,,,,,,,,,,,,,,,,,,,,,,,,,,,,,,,,,,,,,,,,,,,,,,,,,,,,,,,,,,,,,,,,,,,,,,,,,,,,,,,,
,,,,,,,,,5f2d4ed77f1d552c576f64bf,22,Mężczyzna,2022-06-04_08h08.16.545,task,2021.1.4,Win32,74.97375918,628b806c463b948bc644b84f,629af6c7337ba002f49ae5b6,,,,,,0,0,0,0,1,X V Q F H G B L J M P D K C T S W R N Z,,,,,,,,,,,,,,,,,,,,,,,,,,,,,,,,,,,,,,,,,,,,,,,,,,,,,,,,,,,,,,,,,,,,,,,,,,,,,,,,,,,,,,,,,,,,,
,,,,,,,,,5f2d4ed77f1d552c576f64bf,22,Mężczyzna,2022-06-04_08h08.16.545,task,2021.1.4,Win32,74.97375918,628b806c463b948bc644b84f,629af6c7337ba002f49ae5b6,,,,,,1,0,1,0,1,X V Q F H G B L J M P D K C T S W R N Z,,,,,,,,,,,,,,,,,,,,,,,,,,,,,,,,,,,,,,,,,,,,,,,,,,,,,,,,,,,,,,,,,,,,,,,,,,,,,,,,,,,,,,,,,,,,,
,,,,,,,,,5f2d4ed77f1d552c576f64bf,22,Mężczyzna,2022-06-04_08h08.16.545,task,2021.1.4,Win32,74.97375918,628b806c463b948bc644b84f,629af6c7337ba002f49ae5b6,,,,,,2,0,2,0,1,X V Q F H G B L J M P D K C T S W R N Z,,,,,,,,,,,,,,,,,,,,,,,,,,,,,,,,,,,,,,,,,,,,,,,,,,,,,,,,,,,,,,,,,,,,,,,,,,,,,,,,,,,,,,,,,,,,,
,,,,,,,,,5f2d4ed77f1d552c576f64bf,22,Mężczyzna,2022-06-04_08h08.16.545,task,2021.1.4,Win32,74.97375918,628b806c463b948bc644b84f,629af6c7337ba002f49ae5b6,,,,,,3,0,3,0,1,X V Q F H G B L J M P D K C T S W R N Z,,,,,,,,,,,,,,,,,,,,,,,,,,,,,,,,,,,,,,,,,,,,,,,,,,,,,,,,,,,,,,,,,,,,,,,,,,,,,,,,,,,,,,,,,,,,,
,,,,,,,,,5f2d4ed77f1d552c576f64bf,22,Mężczyzna,2022-06-04_08h08.16.545,task,2021.1.4,Win32,74.97375918,628b806c463b948bc644b84f,629af6c7337ba002f49ae5b6,,,,,,4,0,4,0,1,X V Q F H G B L J M P D K C T S W R N Z,,,,,,,,,,,,,,,,,,,,,,,,,,,,,,,,,,,,,,,,,,,,,,,,,,,,,,,,,,,,,,,,,,,,,,,,,,,,,,,,,,,,,,,,,,,,,
,,,,,,,,,5f2d4ed77f1d552c576f64bf,22,Mężczyzna,2022-06-04_08h08.16.545,task,2021.1.4,Win32,74.97375918,628b806c463b948bc644b84f,629af6c7337ba002f49ae5b6,,,,,,5,0,5,0,1,X V Q F H G B L J M P D K C T S W R N Z,,,,,,,,,,,,,,,,,,,,,,,,,,,,,,,,,,,,,,,,,,,,,,,,,,,,,,,,,,,,,,,,,,,,,,,,,,,,,,,,,,,,,,,,,,,,,
,,,,,,,,,5f2d4ed77f1d552c576f64bf,22,Mężczyzna,2022-06-04_08h08.16.545,task,2021.1.4,Win32,74.97375918,628b806c463b948bc644b84f,629af6c7337ba002f49ae5b6,,,,,,6,0,6,0,1,X V Q F H G B L J M P D K C T S W R N Z,,,,,,,,,,,,,,,,,,,,,,,,,,,,,,,,,,,,,,,,,,,,,,,,,,,,,,,,,,,,,,,,,,,,,,,,,,,,,,,,,,,,,,,,,,,,,
,,,,,,,,,5f2d4ed77f1d552c576f64bf,22,Mężczyzna,2022-06-04_08h08.16.545,task,2021.1.4,Win32,74.97375918,628b806c463b948bc644b84f,629af6c7337ba002f49ae5b6,,,,,,7,0,7,0,1,X V Q F H G B L J M P D K C T S W R N Z,,,,,,,,,,,,,,,,,,,,,,,,,,,,,,,,,,,,,,,,,,,,,,,,,,,,,,,,,,,,,,,,,,,,,,,,,,,,,,,,,,,,,,,,,,,,,
,,,,,,,,,5f2d4ed77f1d552c576f64bf,22,Mężczyzna,2022-06-04_08h08.16.545,task,2021.1.4,Win32,74.97375918,628b806c463b948bc644b84f,629af6c7337ba002f49ae5b6,,,,,,,,,,,,bxcbtxbv,"[""b"",""x"",""c"",""b"",""t"",""x"",""b"",""v""]","[8.248300000190739,8.74840000009533,9.144200000047704,18.576200000047606,18.80120000004763,19.279300000190688,20.202499999999986,24.9518000001907,26.146900000095343]",0,BXCBTZBV,19,0,19,0,1,,,,,,,,,,,,,,,,,,,,,,,,,,,,,,,,,,,,,,,,,,,,,,,,,,,,,,,,,,,,,,,,,,,,,,,,,,,,,,,,,,,
,,,,,,,,,5f2d4ed77f1d552c576f64bf,22,Mężczyzna,2022-06-04_08h08.16.545,task,2021.1.4,Win32,74.97375918,628b806c463b948bc644b84f,629af6c7337ba002f49ae5b6,,,,,,0,0,0,0,1,X V Q F H G B L J M P D K C T S W R N Z,,,,,,,,,,,,,,,,,,,,,,,,,,,,,,,,,,,,,,,,,,,,,,,,,,,,,,,,,,,,,,,,,,,,,,,,,,,,,,,,,,,,,,,,,,,,,
,,,,,,,,,5f2d4ed77f1d552c576f64bf,22,Mężczyzna,2022-06-04_08h08.16.545,task,2021.1.4,Win32,74.97375918,628b806c463b948bc644b84f,629af6c7337ba002f49ae5b6,,,,,,1,0,1,0,1,X V Q F H G B L J M P D K C T S W R N Z,,,,,,,,,,,,,,,,,,,,,,,,,,,,,,,,,,,,,,,,,,,,,,,,,,,,,,,,,,,,,,,,,,,,,,,,,,,,,,,,,,,,,,,,,,,,,
,,,,,,,,,5f2d4ed77f1d552c576f64bf,22,Mężczyzna,2022-06-04_08h08.16.545,task,2021.1.4,Win32,74.97375918,628b806c463b948bc644b84f,629af6c7337ba002f49ae5b6,,,,,,2,0,2,0,1,X V Q F H G B L J M P D K C T S W R N Z,,,,,,,,,,,,,,,,,,,,,,,,,,,,,,,,,,,,,,,,,,,,,,,,,,,,,,,,,,,,,,,,,,,,,,,,,,,,,,,,,,,,,,,,,,,,,
,,,,,,,,,5f2d4ed77f1d552c576f64bf,22,Mężczyzna,2022-06-04_08h08.16.545,task,2021.1.4,Win32,74.97375918,628b806c463b948bc644b84f,629af6c7337ba002f49ae5b6,,,,,,3,0,3,0,1,X V Q F H G B L J M P D K C T S W R N Z,,,,,,,,,,,,,,,,,,,,,,,,,,,,,,,,,,,,,,,,,,,,,,,,,,,,,,,,,,,,,,,,,,,,,,,,,,,,,,,,,,,,,,,,,,,,,
,,,,,,,,,5f2d4ed77f1d552c576f64bf,22,Mężczyzna,2022-06-04_08h08.16.545,task,2021.1.4,Win32,74.97375918,628b806c463b948bc644b84f,629af6c7337ba002f49ae5b6,,,,,,4,0,4,0,1,X V Q F H G B L J M P D K C T S W R N Z,,,,,,,,,,,,,,,,,,,,,,,,,,,,,,,,,,,,,,,,,,,,,,,,,,,,,,,,,,,,,,,,,,,,,,,,,,,,,,,,,,,,,,,,,,,,,
,,,,,,,,,5f2d4ed77f1d552c576f64bf,22,Mężczyzna,2022-06-04_08h08.16.545,task,2021.1.4,Win32,74.97375918,628b806c463b948bc644b84f,629af6c7337ba002f49ae5b6,,,,,,5,0,5,0,1,X V Q F H G B L J M P D K C T S W R N Z,,,,,,,,,,,,,,,,,,,,,,,,,,,,,,,,,,,,,,,,,,,,,,,,,,,,,,,,,,,,,,,,,,,,,,,,,,,,,,,,,,,,,,,,,,,,,
,,,,,,,,,5f2d4ed77f1d552c576f64bf,22,Mężczyzna,2022-06-04_08h08.16.545,task,2021.1.4,Win32,74.97375918,628b806c463b948bc644b84f,629af6c7337ba002f49ae5b6,,,,,,6,0,6,0,1,X V Q F H G B L J M P D K C T S W R N Z,,,,,,,,,,,,,,,,,,,,,,,,,,,,,,,,,,,,,,,,,,,,,,,,,,,,,,,,,,,,,,,,,,,,,,,,,,,,,,,,,,,,,,,,,,,,,
,,,,,,,,,5f2d4ed77f1d552c576f64bf,22,Mężczyzna,2022-06-04_08h08.16.545,task,2021.1.4,Win32,74.97375918,628b806c463b948bc644b84f,629af6c7337ba002f49ae5b6,,,,,,7,0,7,0,1,X V Q F H G B L J M P D K C T S W R N Z,,,,,,,,,,,,,,,,,,,,,,,,,,,,,,,,,,,,,,,,,,,,,,,,,,,,,,,,,,,,,,,,,,,,,,,,,,,,,,,,,,,,,,,,,,,,,
,,,,,,,,,5f2d4ed77f1d552c576f64bf,22,Mężczyzna,2022-06-04_08h08.16.545,task,2021.1.4,Win32,74.97375918,628b806c463b948bc644b84f,629af6c7337ba002f49ae5b6,,,,,,,,,,,,svpsckbq,"[""s"",""v"",""p"",""s"",""c"",""k"",""b"",""q""]","[0.8497999999523245,0.9711999998091869,1.175899999856938,30.185499999999934,30.419899999856966,31.097999999999956,38.72779999995225,38.87669999980926,39.05579999995234]",0,SFPSCKBQ,20,0,20,0,1,,,,,,,,,,,,,,,,,,,,,,,,,,,,,,,,,,,,,,,,,,,,,,,,,,,,,,,,,,,,,,,,,,,,,,,,,,,,,,,,,,,
,,,,,,,,,5f2d4ed77f1d552c576f64bf,22,Mężczyzna,2022-06-04_08h08.16.545,task,2021.1.4,Win32,74.97375918,628b806c463b948bc644b84f,629af6c7337ba002f49ae5b6,,,,,,,,,,,,,,,,,,,,,,space,11.4526,2,"[""2""]",1,[3.062800000190691],[3.062800000190691],0,0,0,2,1,Practice,3,(4x4) - 14,2,,,,,,,,,,,,,,,,,,,,,,,,,,,,,,,,,,,,,,,,,,,,,,,,,,,,,,,,,,,,,,,,,,,
,,,,,,,,,5f2d4ed77f1d552c576f64bf,22,Mężczyzna,2022-06-04_08h08.16.545,task,2021.1.4,Win32,74.97375918,628b806c463b948bc644b84f,629af6c7337ba002f49ae5b6,,,,,,,,,,,,,,,,,,,,,,,,4,"[""4""]",1,[3.671700000047622],"[3.062800000190691,3.671700000047622]",0,1,1,4,1,Practice,5,(2x6) - 8,4,,,,,,,,,,,,,,,,,,,,,,,,,,,,,,,,,,,,,,,,,,,,,,,,,,,,,,,,,,,,,,,,,,,
,,,,,,,,,5f2d4ed77f1d552c576f64bf,22,Mężczyzna,2022-06-04_08h08.16.545,task,2021.1.4,Win32,74.97375918,628b806c463b948bc644b84f,629af6c7337ba002f49ae5b6,,,,,,,,,,,,,,,,,,,,,,,,9,"[""9""]",1,[3.0585999999046862],"[3.062800000190691,3.671700000047622,3.0585999999046862]",0,2,2,9,1,Practice,10,(20/2) - 1,9,,,,,,,,,,,,,,,,,,,,,,,,,,,,,,,,,,,,,,,,,,,,,,,,,,,,,,,,,,,,,,,,,,,
,,,,,,,,,5f2d4ed77f1d552c576f64bf,22,Mężczyzna,2022-06-04_08h08.16.545,task,2021.1.4,Win32,74.97375918,628b806c463b948bc644b84f,629af6c7337ba002f49ae5b6,,,,,,,,,,,,,,,,,,,,,,,,5,"[""5""]",1,[2.7367000000476764],"[3.062800000190691,3.671700000047622,3.0585999999046862,2.7367000000476764]",0,3,3,5,1,Practice,6,(4/2) + 3,5,,,,,,,,,,,,,,,,,,,,,,,,,,,,,,,,,,,,,,,,,,,,,,,,,,,,,,,,,,,,,,,,,,,
,,,,,,,,,5f2d4ed77f1d552c576f64bf,22,Mężczyzna,2022-06-04_08h08.16.545,task,2021.1.4,Win32,74.97375918,628b806c463b948bc644b84f,629af6c7337ba002f49ae5b6,,,,,,,,,,,,,,,,,,,,,,,,6,"[""6""]",1,[1.9370000000000118],"[3.062800000190691,3.671700000047622,3.0585999999046862,2.7367000000476764,1.9370000000000118]",0,4,4,6,1,Practice,7,(25/5) + 1,6,,,,,,,,,,,,,,,,,,,,,,,,,,,,,,,,,,,,,,,,,,,,,,,,,,,,,,,,,,,,,,,,,,,
,,,,,,,,,5f2d4ed77f1d552c576f64bf,22,Mężczyzna,2022-06-04_08h08.16.545,task,2021.1.4,Win32,74.97375918,628b806c463b948bc644b84f,629af6c7337ba002f49ae5b6,,,,,,,,,,,,,,,,,,,,,,,,8,"[""8""]",1,[2.243900000095323],"[3.062800000190691,3.671700000047622,3.0585999999046862,2.7367000000476764,1.9370000000000118,2.243900000095323]",0,5,5,8,1,Practice,9,(3x3) - 1,8,,,,,,,,,,,,,,,,,,,,,,,,,,,,,,,,,,,,,,,,,,,,,,,,,,,,,,,,,,,,,,,,,,,
,,,,,,,,,5f2d4ed77f1d552c576f64bf,22,Mężczyzna,2022-06-04_08h08.16.545,task,2021.1.4,Win32,74.97375918,628b806c463b948bc644b84f,629af6c7337ba002f49ae5b6,,,,,,,,,,,,,,,,,,,,,,,,0,"[""0""]",1,[2.3500000000000227],"[3.062800000190691,3.671700000047622,3.0585999999046862,2.7367000000476764,1.9370000000000118,2.243900000095323,2.3500000000000227]",0,6,6,0,1,Practice,1,(3x3) -  9,0,,,,,,,,,,,,,,,,,,,,,,,,,,,,,,,,,,,,,,,,,,,,,,,,,,,,,,,,,,,,,,,,,,,
,,,,,,,,,5f2d4ed77f1d552c576f64bf,22,Mężczyzna,2022-06-04_08h08.16.545,task,2021.1.4,Win32,74.97375918,628b806c463b948bc644b84f,629af6c7337ba002f49ae5b6,,,,,,,,,,,,,,,,,,,,,,,,3,"[""3""]",1,[1.5712000000477246],"[3.062800000190691,3.671700000047622,3.0585999999046862,2.7367000000476764,1.9370000000000118,2.243900000095323,2.3500000000000227,1.5712000000477246]",0,7,7,3,1,Practice,4,(8/4) + 1,3,,,,,,,,,,,,,,,,,,,,,,,,,,,,,,,,,,,,,,,,,,,,,,,,,,,,,,,,,,,,,,,,,,,
,,,,,,,,,5f2d4ed77f1d552c576f64bf,22,Mężczyzna,2022-06-04_08h08.16.545,task,2021.1.4,Win32,74.97375918,628b806c463b948bc644b84f,629af6c7337ba002f49ae5b6,,,,,,,,,,,,,,,,,,,,,,,,1,"[""1""]",1,[2.1629000000953056],"[3.062800000190691,3.671700000047622,3.0585999999046862,2.7367000000476764,1.9370000000000118,2.243900000095323,2.3500000000000227,1.5712000000477246,2.1629000000953056]",0,8,8,1,1,Practice,2,(4x4) - 15,1,,,,,,,,,,,,,,,,,,,,,,,,,,,,,,,,,,,,,,,,,,,,,,,,,,,,,,,,,,,,,,,,,,,
,,,,,,,,,5f2d4ed77f1d552c576f64bf,22,Mężczyzna,2022-06-04_08h08.16.545,task,2021.1.4,Win32,74.97375918,628b806c463b948bc644b84f,629af6c7337ba002f49ae5b6,,,,,,,,,,,,,,,,,,,,,,,,7,"[""7""]",1,[6.700400000095328],"[3.062800000190691,3.671700000047622,3.0585999999046862,2.7367000000476764,1.9370000000000118,2.243900000095323,2.3500000000000227,1.5712000000477246,2.1629000000953056,6.700400000095328]",0,9,9,7,1,Practice,8,(5x5) - 18,7,,,,,,,,,,,,,,,,,,,,,,,,,,,,,,,,,,,,,,,,,,,,,,,,,,,,,,,,,,,,,,,,,,,
,,,,,,,,,5f2d4ed77f1d552c576f64bf,22,Mężczyzna,2022-06-04_08h08.16.545,task,2021.1.4,Win32,74.97375918,628b806c463b948bc644b84f,629af6c7337ba002f49ae5b6,,,,,,,,,,,,,,,,,,,,,,,,,,,,,,,,,,,,,,1,29.4952,1.966346667,28.72802353,1.383908078,5.536829508,space,2.3445,0,0,0,0,1,,,,,,,,,,,,,,,,,,,,,,,,,,,,,,,,,,,,,,,,,,,,,,,,,,,,,,
,,,,,,,,,5f2d4ed77f1d552c576f64bf,22,Mężczyzna,2022-06-04_08h08.16.545,task,2021.1.4,Win32,74.97375918,628b806c463b948bc644b84f,629af6c7337ba002f49ae5b6,,,,,,,,,,,,,,,,,,,,,,,,2,,,,,,,,,,Practice,3,(4x4) - 14,2,,,,,,,,,,,,,,space,40.4223,"[""2""]",1,[5.50620000004767],1,0,0,0,2,1,,,,,,,,,,,,,,,,,,,,,,,,,,,,,,,,,,,,,,,,,,,
,,,,,,,,,5f2d4ed77f1d552c576f64bf,22,Mężczyzna,2022-06-04_08h08.16.545,task,2021.1.4,Win32,74.97375918,628b806c463b948bc644b84f,629af6c7337ba002f49ae5b6,,,,,,,,,,,X V Q F H G B L J M P D K C T S W R N Z,,,,,,,,,,,,,,,,,,,,,,,,,,,,,,,,,,,,,,,,,,,,,,,,,,,0,0,0,0,1,,,,,,,,,,,,,,,,,,,,,,,,,,,,,,,,,,,,,,
,,,,,,,,,5f2d4ed77f1d552c576f64bf,22,Mężczyzna,2022-06-04_08h08.16.545,task,2021.1.4,Win32,74.97375918,628b806c463b948bc644b84f,629af6c7337ba002f49ae5b6,,,,,,,,,,,,,,,,,,,,,,,,2,,,,,,,,,,Practice,3,(4x4) - 14,2,,,,,,,,,,,,,,,,"[""2""]",1,[3.0975999999046735],1,0,0,0,2,1,,,,,,,,,,,,,,,,,,,,,,,,,,,,,,,,,,,,,,,,,,,
,,,,,,,,,5f2d4ed77f1d552c576f64bf,22,Mężczyzna,2022-06-04_08h08.16.545,task,2021.1.4,Win32,74.97375918,628b806c463b948bc644b84f,629af6c7337ba002f49ae5b6,,,,,,,,,,,X V Q F H G B L J M P D K C T S W R N Z,,,,,,,,,,,,,,,,,,,,,,,,,,,,,,,,,,,,,,,,,,,,,,,,,,,1,0,1,0,1,,,,,,,,,,,,,,,,,,,,,,,,,,,,,,,,,,,,,,
,,,,,,,,,5f2d4ed77f1d552c576f64bf,22,Mężczyzna,2022-06-04_08h08.16.545,task,2021.1.4,Win32,74.97375918,628b806c463b948bc644b84f,629af6c7337ba002f49ae5b6,,,,,,,,,,,,,,,,,,,,,,,,,,,,,,,,,,,,,,,,,,,,,,,,,,,,,,,,,,,,,,,,,,,zj,"[""z"",""j""]",0,"[2.5430000000000064,2.7106999998093215,3.3777999999523445]",1,0,0,0,0,1,,,,,,,,,,,,,,,,,,,,,,,,,,,,
,,,,,,,,,5f2d4ed77f1d552c576f64bf,22,Mężczyzna,2022-06-04_08h08.16.545,task,2021.1.4,Win32,74.97375918,628b806c463b948bc644b84f,629af6c7337ba002f49ae5b6,,,,,,,,,,,,,,,,,,,,,,,,2,,,,,,,,,,Practice,3,(4x4) - 14,2,,,,,,,,,,,,,,,,"[""2""]",1,[2.7017999999524136],1,0,0,0,2,1,,,,,,,,,,,,,,,,,,,,,,,,,,,,,,,,,,,,,,,,,,,
,,,,,,,,,5f2d4ed77f1d552c576f64bf,22,Mężczyzna,2022-06-04_08h08.16.545,task,2021.1.4,Win32,74.97375918,628b806c463b948bc644b84f,629af6c7337ba002f49ae5b6,,,,,,,,,,,X V Q F H G B L J M P D K C T S W R N Z,,,,,,,,,,,,,,,,,,,,,,,,,,,,,,,,,,,,,,,,,,,,,,,,,,,0,0,0,0,1,,,,,,,,,,,,,,,,,,,,,,,,,,,,,,,,,,,,,,
,,,,,,,,,5f2d4ed77f1d552c576f64bf,22,Mężczyzna,2022-06-04_08h08.16.545,task,2021.1.4,Win32,74.97375918,628b806c463b948bc644b84f,629af6c7337ba002f49ae5b6,,,,,,,,,,,,,,,,,,,,,,,,9,,,,,,,,,,Practice,10,(20/2) - 1,9,,,,,,,,,,,,,,,,"[""9""]",1,[3.663699999809296],1,0,0,0,9,1,,,,,,,,,,,,,,,,,,,,,,,,,,,,,,,,,,,,,,,,,,,
,,,,,,,,,5f2d4ed77f1d552c576f64bf,22,Mężczyzna,2022-06-04_08h08.16.545,task,2021.1.4,Win32,74.97375918,628b806c463b948bc644b84f,629af6c7337ba002f49ae5b6,,,,,,,,,,,X V Q F H G B L J M P D K C T S W R N Z,,,,,,,,,,,,,,,,,,,,,,,,,,,,,,,,,,,,,,,,,,,,,,,,,,,1,0,1,0,1,,,,,,,,,,,,,,,,,,,,,,,,,,,,,,,,,,,,,,
,,,,,,,,,5f2d4ed77f1d552c576f64bf,22,Mężczyzna,2022-06-04_08h08.16.545,task,2021.1.4,Win32,74.97375918,628b806c463b948bc644b84f,629af6c7337ba002f49ae5b6,,,,,,,,,,,,,,,,,,,,,,,,,,,,,,,,,,,,,,,,,,,,,,,,,,,,,,,,,,,,,,,,,,,cw,"[""c"",""w""]",0,"[2.3283999998569698,2.643799999952307,3.6996999998092406]",1,1,0,1,0,1,,,,,,,,,,,,,,,,,,,,,,,,,,,,
,,,,,,,,,5f2d4ed77f1d552c576f64bf,22,Mężczyzna,2022-06-04_08h08.16.545,task,2021.1.4,Win32,74.97375918,628b806c463b948bc644b84f,629af6c7337ba002f49ae5b6,,,,,,,,,,,,,,,,,,,,,,,,1,,,,,,,,,,Practice,2,(4x4) - 15,1,,,,,,,,,,,,,,,,"[""1""]",1,[1.7363999998569852],1,0,0,0,1,1,,,,,,,,,,,,,,,,,,,,,,,,,,,,,,,,,,,,,,,,,,,
,,,,,,,,,5f2d4ed77f1d552c576f64bf,22,Mężczyzna,2022-06-04_08h08.16.545,task,2021.1.4,Win32,74.97375918,628b806c463b948bc644b84f,629af6c7337ba002f49ae5b6,,,,,,,,,,,X V Q F H G B L J M P D K C T S W R N Z,,,,,,,,,,,,,,,,,,,,,,,,,,,,,,,,,,,,,,,,,,,,,,,,,,,0,0,0,0,1,,,,,,,,,,,,,,,,,,,,,,,,,,,,,,,,,,,,,,
,,,,,,,,,5f2d4ed77f1d552c576f64bf,22,Mężczyzna,2022-06-04_08h08.16.545,task,2021.1.4,Win32,74.97375918,628b806c463b948bc644b84f,629af6c7337ba002f49ae5b6,,,,,,,,,,,,,,,,,,,,,,,,9,,,,,,,,,,Practice,10,(20/2) - 1,9,,,,,,,,,,,,,,,,"[""9""]",1,[1.616700000047672],1,0,0,0,9,1,,,,,,,,,,,,,,,,,,,,,,,,,,,,,,,,,,,,,,,,,,,
,,,,,,,,,5f2d4ed77f1d552c576f64bf,22,Mężczyzna,2022-06-04_08h08.16.545,task,2021.1.4,Win32,74.97375918,628b806c463b948bc644b84f,629af6c7337ba002f49ae5b6,,,,,,,,,,,X V Q F H G B L J M P D K C T S W R N Z,,,,,,,,,,,,,,,,,,,,,,,,,,,,,,,,,,,,,,,,,,,,,,,,,,,1,0,1,0,1,,,,,,,,,,,,,,,,,,,,,,,,,,,,,,,,,,,,,,
,,,,,,,,,5f2d4ed77f1d552c576f64bf,22,Mężczyzna,2022-06-04_08h08.16.545,task,2021.1.4,Win32,74.97375918,628b806c463b948bc644b84f,629af6c7337ba002f49ae5b6,,,,,,,,,,,,,,,,,,,,,,,,,,,,,,,,,,,,,,,,,,,,,,,,,,,,,,,,,,,,,,,,,,,mk,"[""m"",""k""]",0,"[2.4582999999523736,2.6077999999523627,2.9968999998569643]",1,2,0,2,0,1,,,,,,,,,,,,,,,,,,,,,,,,,,,,
,,,,,,,,,5f2d4ed77f1d552c576f64bf,22,Mężczyzna,2022-06-04_08h08.16.545,task,2021.1.4,Win32,74.97375918,628b806c463b948bc644b84f,629af6c7337ba002f49ae5b6,,,,,,,,,,,,,,,,,,,,,,,,,,,,,,,,,,Task,16,(3x8) - 15,9,,,,,,,,,,,,,,,,,,,0,,,,,,,,,,,,,,,,,,,,,space,32.7102,,0,0,0,0,15,1,,,,,,,,,,,,,,,,,,,
,,,,,,,,,5f2d4ed77f1d552c576f64bf,22,Mężczyzna,2022-06-04_08h08.16.545,task,2021.1.4,Win32,74.97375918,628b806c463b948bc644b84f,629af6c7337ba002f49ae5b6,,,,,,,,,,,,,,,,,,,,,,,,8,,,,,,,,,,Task,32,(8/2) + 4,8,,,,,,,,,,,,,,,,,,,1,,,,,,,,,,,,,,,,,,,,,,,"[""8""]",1,0,1,1,31,1,[3.366799999952491],,,,,,,,,,,,,,,,,,
,,,,,,,,,5f2d4ed77f1d552c576f64bf,22,Mężczyzna,2022-06-04_08h08.16.545,task,2021.1.4,Win32,74.97375918,628b806c463b948bc644b84f,629af6c7337ba002f49ae5b6,,,,,,,,,,,X V Q F H G B L J M P D K C T S W R N Z,,,,,,,,,,,,,,,,,,,,,,,,,,,,,,,,,,,,,,,,,,,,,,,,,,,,,,,,,,,,,,,,,,,,,,,,,,,,0,0,0,0,1,,,,,,,,,,,,,
,,,,,,,,,5f2d4ed77f1d552c576f64bf,22,Mężczyzna,2022-06-04_08h08.16.545,task,2021.1.4,Win32,74.97375918,628b806c463b948bc644b84f,629af6c7337ba002f49ae5b6,,,,,,,,,,,,,,,,,,,,,,,,6,,,,,,,,,,Task,5,(2x3) + 0,6,,,,,,,,,,,,,,,,,,,1,,,,,,,,,,,,,,,,,,,,,,,"[""6""]",1,0,0,0,4,1,[1.8570999999046762],,,,,,,,,,,,,,,,,,
,,,,,,,,,5f2d4ed77f1d552c576f64bf,22,Mężczyzna,2022-06-04_08h08.16.545,task,2021.1.4,Win32,74.97375918,628b806c463b948bc644b84f,629af6c7337ba002f49ae5b6,,,,,,,,,,,X V Q F H G B L J M P D K C T S W R N Z,,,,,,,,,,,,,,,,,,,,,,,,,,,,,,,,,,,,,,,,,,,,,,,,,,,,,,,,,,,,,,,,,,,,,,,,,,,,1,0,1,0,1,,,,,,,,,,,,,
,,,,,,,,,5f2d4ed77f1d552c576f64bf,22,Mężczyzna,2022-06-04_08h08.16.545,task,2021.1.4,Win32,74.97375918,628b806c463b948bc644b84f,629af6c7337ba002f49ae5b6,,,,,,,,,,,,,,,,,,,,,,,,,,,,,,,,,,,,,,,,,,,,,,,,,,,,,,,,,,,,,,,,,,,,,,,,,,,,,,,,,,,,,,,,,,,,zn,"[""z"",""n""]",0,"[2.9915999999047926,3.1242999999524272,3.6783999998569925]",1,ZN,0,0,0,0,1,,
,,,,,,,,,5f2d4ed77f1d552c576f64bf,22,Mężczyzna,2022-06-04_08h08.16.545,task,2021.1.4,Win32,74.97375918,628b806c463b948bc644b84f,629af6c7337ba002f49ae5b6,,,,,,,,,,,,,,,,,,,,,,,,4,,,,,,,,,,Task,11,(18/3) - 2,4,,,,,,,,,,,,,,,,,,,1,,,,,,,,,,,,,,,,,,,,,,,"[""4""]",1,0,0,0,10,1,[3.877700000047753],,,,,,,,,,,,,,,,,,
,,,,,,,,,5f2d4ed77f1d552c576f64bf,22,Mężczyzna,2022-06-04_08h08.16.545,task,2021.1.4,Win32,74.97375918,628b806c463b948bc644b84f,629af6c7337ba002f49ae5b6,,,,,,,,,,,X V Q F H G B L J M P D K C T S W R N Z,,,,,,,,,,,,,,,,,,,,,,,,,,,,,,,,,,,,,,,,,,,,,,,,,,,,,,,,,,,,,,,,,,,,,,,,,,,,0,0,0,0,1,,,,,,,,,,,,,
,,,,,,,,,5f2d4ed77f1d552c576f64bf,22,Mężczyzna,2022-06-04_08h08.16.545,task,2021.1.4,Win32,74.97375918,628b806c463b948bc644b84f,629af6c7337ba002f49ae5b6,,,,,,,,,,,,,,,,,,,,,,,,0,,,,,,,,,,Task,8,(1x5) - 5,0,,,,,,,,,,,,,,,,,,,1,,,,,,,,,,,,,,,,,,,,,,,"[""0""]",1,0,0,0,7,1,[2.036999999999807],,,,,,,,,,,,,,,,,,
,,,,,,,,,5f2d4ed77f1d552c576f64bf,22,Mężczyzna,2022-06-04_08h08.16.545,task,2021.1.4,Win32,74.97375918,628b806c463b948bc644b84f,629af6c7337ba002f49ae5b6,,,,,,,,,,,X V Q F H G B L J M P D K C T S W R N Z,,,,,,,,,,,,,,,,,,,,,,,,,,,,,,,,,,,,,,,,,,,,,,,,,,,,,,,,,,,,,,,,,,,,,,,,,,,,1,0,1,0,1,,,,,,,,,,,,,
,,,,,,,,,5f2d4ed77f1d552c576f64bf,22,Mężczyzna,2022-06-04_08h08.16.545,task,2021.1.4,Win32,74.97375918,628b806c463b948bc644b84f,629af6c7337ba002f49ae5b6,,,,,,,,,,,,,,,,,,,,,,,,8,,,,,,,,,,Task,16,(3x8) - 15,9,,,,,,,,,,,,,,,,,,,0,,,,,,,,,,,,,,,,,,,,,,,"[""8""]",0,0,0,0,15,1,[4.099900000095431],,,,,,,,,,,,,,,,,,
,,,,,,,,,5f2d4ed77f1d552c576f64bf,22,Mężczyzna,2022-06-04_08h08.16.545,task,2021.1.4,Win32,74.97375918,628b806c463b948bc644b84f,629af6c7337ba002f49ae5b6,,,,,,,,,,,,,,,,,,,,,,,,6,,,,,,,,,,Task,30,(6/3) + 4 ,6,,,,,,,,,,,,,,,,,,,1,,,,,,,,,,,,,,,,,,,,,,,"[""6""]",1,0,1,1,29,1,[2.8437000000476473],,,,,,,,,,,,,,,,,,
,,,,,,,,,5f2d4ed77f1d552c576f64bf,22,Mężczyzna,2022-06-04_08h08.16.545,task,2021.1.4,Win32,74.97375918,628b806c463b948bc644b84f,629af6c7337ba002f49ae5b6,,,,,,,,,,,X V Q F H G B L J M P D K C T S W R N Z,,,,,,,,,,,,,,,,,,,,,,,,,,,,,,,,,,,,,,,,,,,,,,,,,,,,,,,,,,,,,,,,,,,,,,,,,,,,2,0,2,0,1,,,,,,,,,,,,,
,,,,,,,,,5f2d4ed77f1d552c576f64bf,22,Mężczyzna,2022-06-04_08h08.16.545,task,2021.1.4,Win32,74.97375918,628b806c463b948bc644b84f,629af6c7337ba002f49ae5b6,,,,,,,,,,,,,,,,,,,,,,,,,,,,,,,,,,,,,,,,,,,,,,,,,,,,,,,,,,,,,,,,,,,,,,,,,,,,,,,,,,,,,,,,,,,,fkn,"[""f"",""k"",""n""]",0,"[3.477099999904567,3.8512000000475837,4.144200000047704,4.9973999998569525]",1,FKN,1,0,1,0,1,,
,,,,,,,,,5f2d4ed77f1d552c576f64bf,22,Mężczyzna,2022-06-04_08h08.16.545,task,2021.1.4,Win32,74.97375918,628b806c463b948bc644b84f,629af6c7337ba002f49ae5b6,,,,,,,,,,,,,,,,,,,,,,,,7,,,,,,,,,,Task,6,(12/2) + 1,7,,,,,,,,,,,,,,,,,,,1,,,,,,,,,,,,,,,,,,,,,,,"[""7""]",1,0,0,0,5,1,[2.846200000047702],,,,,,,,,,,,,,,,,,
,,,,,,,,,5f2d4ed77f1d552c576f64bf,22,Mężczyzna,2022-06-04_08h08.16.545,task,2021.1.4,Win32,74.97375918,628b806c463b948bc644b84f,629af6c7337ba002f49ae5b6,,,,,,,,,,,X V Q F H G B L J M P D K C T S W R N Z,,,,,,,,,,,,,,,,,,,,,,,,,,,,,,,,,,,,,,,,,,,,,,,,,,,,,,,,,,,,,,,,,,,,,,,,,,,,0,0,0,0,1,,,,,,,,,,,,,
,,,,,,,,,5f2d4ed77f1d552c576f64bf,22,Mężczyzna,2022-06-04_08h08.16.545,task,2021.1.4,Win32,74.97375918,628b806c463b948bc644b84f,629af6c7337ba002f49ae5b6,,,,,,,,,,,,,,,,,,,,,,,,4,,,,,,,,,,Task,4,(1x5) - 1,4,,,,,,,,,,,,,,,,,,,1,,,,,,,,,,,,,,,,,,,,,,,"[""4""]",1,0,0,0,3,1,[2.656599999904529],,,,,,,,,,,,,,,,,,
,,,,,,,,,5f2d4ed77f1d552c576f64bf,22,Mężczyzna,2022-06-04_08h08.16.545,task,2021.1.4,Win32,74.97375918,628b806c463b948bc644b84f,629af6c7337ba002f49ae5b6,,,,,,,,,,,X V Q F H G B L J M P D K C T S W R N Z,,,,,,,,,,,,,,,,,,,,,,,,,,,,,,,,,,,,,,,,,,,,,,,,,,,,,,,,,,,,,,,,,,,,,,,,,,,,1,0,1,0,1,,,,,,,,,,,,,
,,,,,,,,,5f2d4ed77f1d552c576f64bf,22,Mężczyzna,2022-06-04_08h08.16.545,task,2021.1.4,Win32,74.97375918,628b806c463b948bc644b84f,629af6c7337ba002f49ae5b6,,,,,,,,,,,,,,,,,,,,,,,,6,,,,,,,,,,Task,30,(6/3) + 4 ,6,,,,,,,,,,,,,,,,,,,1,,,,,,,,,,,,,,,,,,,,,,,"[""6""]",1,0,0,0,29,1,[2.35420000004774],,,,,,,,,,,,,,,,,,
,,,,,,,,,5f2d4ed77f1d552c576f64bf,22,Mężczyzna,2022-06-04_08h08.16.545,task,2021.1.4,Win32,74.97375918,628b806c463b948bc644b84f,629af6c7337ba002f49ae5b6,,,,,,,,,,,X V Q F H G B L J M P D K C T S W R N Z,,,,,,,,,,,,,,,,,,,,,,,,,,,,,,,,,,,,,,,,,,,,,,,,,,,,,,,,,,,,,,,,,,,,,,,,,,,,2,0,2,0,1,,,,,,,,,,,,,
,,,,,,,,,5f2d4ed77f1d552c576f64bf,22,Mężczyzna,2022-06-04_08h08.16.545,task,2021.1.4,Win32,74.97375918,628b806c463b948bc644b84f,629af6c7337ba002f49ae5b6,,,,,,,,,,,,,,,,,,,,,,,,3,,,,,,,,,,Task,35,(1x2) + 1,3,,,,,,,,,,,,,,,,,,,1,,,,,,,,,,,,,,,,,,,,,,,"[""3""]",1,0,0,0,34,1,[2.6442000000477037],,,,,,,,,,,,,,,,,,
,,,,,,,,,5f2d4ed77f1d552c576f64bf,22,Mężczyzna,2022-06-04_08h08.16.545,task,2021.1.4,Win32,74.97375918,628b806c463b948bc644b84f,629af6c7337ba002f49ae5b6,,,,,,,,,,,X V Q F H G B L J M P D K C T S W R N Z,,,,,,,,,,,,,,,,,,,,,,,,,,,,,,,,,,,,,,,,,,,,,,,,,,,,,,,,,,,,,,,,,,,,,,,,,,,,3,0,3,0,1,,,,,,,,,,,,,
,,,,,,,,,5f2d4ed77f1d552c576f64bf,22,Mężczyzna,2022-06-04_08h08.16.545,task,2021.1.4,Win32,74.97375918,628b806c463b948bc644b84f,629af6c7337ba002f49ae5b6,,,,,,,,,,,,,,,,,,,,,,,,,,,,,,,,,,,,,,,,,,,,,,,,,,,,,,,,,,,,,,,,,,,,,,,,,,,,,,,,,,,,,,,,,,,,vhdr,"[""v"",""h"",""d"",""r""]",0,"[2.364299999952209,2.757999999999811,3.5829000000953783,3.7809000000952437,4.878999999999905]",1,VHDR,2,0,2,0,1,,
,,,,,,,,,5f2d4ed77f1d552c576f64bf,22,Mężczyzna,2022-06-04_08h08.16.545,task,2021.1.4,Win32,74.97375918,628b806c463b948bc644b84f,629af6c7337ba002f49ae5b6,,,,,,,,,,,,,,,,,,,,,,,,1,,,,,,,,,,Task,9,(3x7) - 20,1,,,,,,,,,,,,,,,,,,,1,,,,,,,,,,,,,,,,,,,,,,,"[""1""]",1,0,0,0,8,1,[2.5132999999523236],,,,,,,,,,,,,,,,,,
,,,,,,,,,5f2d4ed77f1d552c576f64bf,22,Mężczyzna,2022-06-04_08h08.16.545,task,2021.1.4,Win32,74.97375918,628b806c463b948bc644b84f,629af6c7337ba002f49ae5b6,,,,,,,,,,,X V Q F H G B L J M P D K C T S W R N Z,,,,,,,,,,,,,,,,,,,,,,,,,,,,,,,,,,,,,,,,,,,,,,,,,,,,,,,,,,,,,,,,,,,,,,,,,,,,0,0,0,0,1,,,,,,,,,,,,,
,,,,,,,,,5f2d4ed77f1d552c576f64bf,22,Mężczyzna,2022-06-04_08h08.16.545,task,2021.1.4,Win32,74.97375918,628b806c463b948bc644b84f,629af6c7337ba002f49ae5b6,,,,,,,,,,,,,,,,,,,,,,,,4,,,,,,,,,,Task,28,(2x5) - 6,4,,,,,,,,,,,,,,,,,,,1,,,,,,,,,,,,,,,,,,,,,,,"[""4""]",1,0,0,0,27,1,[2.1140999999045107],,,,,,,,,,,,,,,,,,
,,,,,,,,,5f2d4ed77f1d552c576f64bf,22,Mężczyzna,2022-06-04_08h08.16.545,task,2021.1.4,Win32,74.97375918,628b806c463b948bc644b84f,629af6c7337ba002f49ae5b6,,,,,,,,,,,X V Q F H G B L J M P D K C T S W R N Z,,,,,,,,,,,,,,,,,,,,,,,,,,,,,,,,,,,,,,,,,,,,,,,,,,,,,,,,,,,,,,,,,,,,,,,,,,,,1,0,1,0,1,,,,,,,,,,,,,
