key_resp_15.keys,key_resp_15.rt,key_resp_13.keys,key_resp_13.corr,key_resp_13.rt,ranodm_loop.thisRepN,ranodm_loop.thisTrialN,ranodm_loop.thisN,ranodm_loop.thisIndex,ranodm_loop.ran,participant,Wiek*,Płeć,date,expName,psychopyVersion,OS,frameRate,study_id,session,key_resp_16.keys,key_resp_16.rt,key_resp_4.keys,key_resp_4.rt,next_letter.thisRepN,next_letter.thisTrialN,next_letter.thisN,next_letter.thisIndex,next_letter.ran,letter,simple_recall,key_resp_5.keys,key_resp_5.rt,simple_recall_corr,simple_recall_corrkeys,next_level.thisRepN,next_level.thisTrialN,next_level.thisN,next_level.thisIndex,next_level.ran,key_resp_2.keys,key_resp_2.rt,digit_answer,key_resp.keys,key_resp.corr,key_resp.rt,RT_list,next_equation.thisRepN,next_equation.thisTrialN,next_equation.thisN,next_equation.thisIndex,next_equation.ran,Task,Trial,Problem,Operation_answer,processing_score,sumRT,meanRT,sumdiff,sd,RT,key_resp_3.keys,key_resp_3.rt,repeat_practice.thisRepN,repeat_practice.thisTrialN,repeat_practice.thisN,repeat_practice.thisIndex,repeat_practice.ran,key_resp_6.keys,key_resp_6.rt,key_resp_11.keys,key_resp_11.corr,key_resp_11.rt,operation_correct,repeat_if_wrong_prac.thisRepN,repeat_if_wrong_prac.thisTrialN,repeat_if_wrong_prac.thisN,repeat_if_wrong_prac.thisIndex,repeat_if_wrong_prac.ran,span_size_prac.thisRepN,span_size_prac.thisTrialN,span_size_prac.thisN,span_size_prac.thisIndex,span_size_prac.ran,complex_recall_practice,key_resp_9.keys,key_resp_9.corr,key_resp_9.rt,complex_prac_corr,span_recall_prac.thisRepN,span_recall_prac.thisTrialN,span_recall_prac.thisN,span_recall_prac.thisIndex,span_recall_prac.ran,key_resp_10.keys,key_resp_10.rt,key_resp_7.keys,key_resp_7.corr,key_resp_7.rt,repeat_if_wrong.thisRepN,repeat_if_wrong.thisTrialN,repeat_if_wrong.thisN,repeat_if_wrong.thisIndex,repeat_if_wrong.ran,span_size.thisRepN,span_size.thisTrialN,span_size.thisN,span_size.thisIndex,span_size.ran,complex_recall,key_resp_8.keys,key_resp_8.corr,key_resp_8.rt,complex_recall_corr,complex_recall_corrkeys,span_recall.thisRepN,span_recall.thisTrialN,span_recall.thisN,span_recall.thisIndex,span_recall.ran,key_resp_12.keys,key_resp_12.rt
space,12.618,"[""comma""]",0,[1.1119999999999948],0,0,0,0,1,5f2fda9d8f06be3d79b0371d,36,Mężczyzna,2022-05-28_09h09.10.855,task,2021.1.4,Win32,60.0240096,628b806c463b948bc644b84f,6291ca74569bb4fb3772a70e,,,,,,,,,,,,,,,,,,,,,,,,,,,,,,,,,,,,,,,,,,,,,,,,,,,,,,,,,,,,,,,,,,,,,,,,,,,,,,,,,,,,,,,,,,,,,,,,,,,,,,,
,,"[""period""]",0,[0.7229999999999848],1,0,1,0,1,5f2fda9d8f06be3d79b0371d,36,Mężczyzna,2022-05-28_09h09.10.855,task,2021.1.4,Win32,60.0240096,628b806c463b948bc644b84f,6291ca74569bb4fb3772a70e,,,,,,,,,,,,,,,,,,,,,,,,,,,,,,,,,,,,,,,,,,,,,,,,,,,,,,,,,,,,,,,,,,,,,,,,,,,,,,,,,,,,,,,,,,,,,,,,,,,,,,,
,,"[""comma""]",0,[0.6839999999999975],2,0,2,0,1,5f2fda9d8f06be3d79b0371d,36,Mężczyzna,2022-05-28_09h09.10.855,task,2021.1.4,Win32,60.0240096,628b806c463b948bc644b84f,6291ca74569bb4fb3772a70e,,,,,,,,,,,,,,,,,,,,,,,,,,,,,,,,,,,,,,,,,,,,,,,,,,,,,,,,,,,,,,,,,,,,,,,,,,,,,,,,,,,,,,,,,,,,,,,,,,,,,,,
,,"[""comma""]",0,[0.7839999999999918],3,0,3,0,1,5f2fda9d8f06be3d79b0371d,36,Mężczyzna,2022-05-28_09h09.10.855,task,2021.1.4,Win32,60.0240096,628b806c463b948bc644b84f,6291ca74569bb4fb3772a70e,,,,,,,,,,,,,,,,,,,,,,,,,,,,,,,,,,,,,,,,,,,,,,,,,,,,,,,,,,,,,,,,,,,,,,,,,,,,,,,,,,,,,,,,,,,,,,,,,,,,,,,
,,"[""period""]",0,[1.0250000000000057],4,0,4,0,1,5f2fda9d8f06be3d79b0371d,36,Mężczyzna,2022-05-28_09h09.10.855,task,2021.1.4,Win32,60.0240096,628b806c463b948bc644b84f,6291ca74569bb4fb3772a70e,,,,,,,,,,,,,,,,,,,,,,,,,,,,,,,,,,,,,,,,,,,,,,,,,,,,,,,,,,,,,,,,,,,,,,,,,,,,,,,,,,,,,,,,,,,,,,,,,,,,,,,
,,"[""comma""]",0,[0.3719999999999857],5,0,5,0,1,5f2fda9d8f06be3d79b0371d,36,Mężczyzna,2022-05-28_09h09.10.855,task,2021.1.4,Win32,60.0240096,628b806c463b948bc644b84f,6291ca74569bb4fb3772a70e,,,,,,,,,,,,,,,,,,,,,,,,,,,,,,,,,,,,,,,,,,,,,,,,,,,,,,,,,,,,,,,,,,,,,,,,,,,,,,,,,,,,,,,,,,,,,,,,,,,,,,,
,,"[""period""]",0,[0.45300000000000296],6,0,6,0,1,5f2fda9d8f06be3d79b0371d,36,Mężczyzna,2022-05-28_09h09.10.855,task,2021.1.4,Win32,60.0240096,628b806c463b948bc644b84f,6291ca74569bb4fb3772a70e,,,,,,,,,,,,,,,,,,,,,,,,,,,,,,,,,,,,,,,,,,,,,,,,,,,,,,,,,,,,,,,,,,,,,,,,,,,,,,,,,,,,,,,,,,,,,,,,,,,,,,,
,,"[""comma""]",0,[0.44700000000000273],7,0,7,0,1,5f2fda9d8f06be3d79b0371d,36,Mężczyzna,2022-05-28_09h09.10.855,task,2021.1.4,Win32,60.0240096,628b806c463b948bc644b84f,6291ca74569bb4fb3772a70e,,,,,,,,,,,,,,,,,,,,,,,,,,,,,,,,,,,,,,,,,,,,,,,,,,,,,,,,,,,,,,,,,,,,,,,,,,,,,,,,,,,,,,,,,,,,,,,,,,,,,,,
,,"[""comma""]",0,[0.5699999999999932],8,0,8,0,1,5f2fda9d8f06be3d79b0371d,36,Mężczyzna,2022-05-28_09h09.10.855,task,2021.1.4,Win32,60.0240096,628b806c463b948bc644b84f,6291ca74569bb4fb3772a70e,,,,,,,,,,,,,,,,,,,,,,,,,,,,,,,,,,,,,,,,,,,,,,,,,,,,,,,,,,,,,,,,,,,,,,,,,,,,,,,,,,,,,,,,,,,,,,,,,,,,,,,
,,"[""comma""]",0,[0.5360000000000014],9,0,9,0,1,5f2fda9d8f06be3d79b0371d,36,Mężczyzna,2022-05-28_09h09.10.855,task,2021.1.4,Win32,60.0240096,628b806c463b948bc644b84f,6291ca74569bb4fb3772a70e,,,,,,,,,,,,,,,,,,,,,,,,,,,,,,,,,,,,,,,,,,,,,,,,,,,,,,,,,,,,,,,,,,,,,,,,,,,,,,,,,,,,,,,,,,,,,,,,,,,,,,,
,,"[""period""]",0,[0.5349999999999966],10,0,10,0,1,5f2fda9d8f06be3d79b0371d,36,Mężczyzna,2022-05-28_09h09.10.855,task,2021.1.4,Win32,60.0240096,628b806c463b948bc644b84f,6291ca74569bb4fb3772a70e,,,,,,,,,,,,,,,,,,,,,,,,,,,,,,,,,,,,,,,,,,,,,,,,,,,,,,,,,,,,,,,,,,,,,,,,,,,,,,,,,,,,,,,,,,,,,,,,,,,,,,,
,,"[""period""]",0,[0.5240000000000009],11,0,11,0,1,5f2fda9d8f06be3d79b0371d,36,Mężczyzna,2022-05-28_09h09.10.855,task,2021.1.4,Win32,60.0240096,628b806c463b948bc644b84f,6291ca74569bb4fb3772a70e,,,,,,,,,,,,,,,,,,,,,,,,,,,,,,,,,,,,,,,,,,,,,,,,,,,,,,,,,,,,,,,,,,,,,,,,,,,,,,,,,,,,,,,,,,,,,,,,,,,,,,,
,,"[""comma""]",0,[0.41799999999997794],12,0,12,0,1,5f2fda9d8f06be3d79b0371d,36,Mężczyzna,2022-05-28_09h09.10.855,task,2021.1.4,Win32,60.0240096,628b806c463b948bc644b84f,6291ca74569bb4fb3772a70e,,,,,,,,,,,,,,,,,,,,,,,,,,,,,,,,,,,,,,,,,,,,,,,,,,,,,,,,,,,,,,,,,,,,,,,,,,,,,,,,,,,,,,,,,,,,,,,,,,,,,,,
,,"[""period""]",0,[0.4650000000000034],13,0,13,0,1,5f2fda9d8f06be3d79b0371d,36,Mężczyzna,2022-05-28_09h09.10.855,task,2021.1.4,Win32,60.0240096,628b806c463b948bc644b84f,6291ca74569bb4fb3772a70e,,,,,,,,,,,,,,,,,,,,,,,,,,,,,,,,,,,,,,,,,,,,,,,,,,,,,,,,,,,,,,,,,,,,,,,,,,,,,,,,,,,,,,,,,,,,,,,,,,,,,,,
,,"[""period""]",0,[0.3859999999999957],14,0,14,0,1,5f2fda9d8f06be3d79b0371d,36,Mężczyzna,2022-05-28_09h09.10.855,task,2021.1.4,Win32,60.0240096,628b806c463b948bc644b84f,6291ca74569bb4fb3772a70e,,,,,,,,,,,,,,,,,,,,,,,,,,,,,,,,,,,,,,,,,,,,,,,,,,,,,,,,,,,,,,,,,,,,,,,,,,,,,,,,,,,,,,,,,,,,,,,,,,,,,,,
,,"[""comma""]",0,[0.4380000000000166],15,0,15,0,1,5f2fda9d8f06be3d79b0371d,36,Mężczyzna,2022-05-28_09h09.10.855,task,2021.1.4,Win32,60.0240096,628b806c463b948bc644b84f,6291ca74569bb4fb3772a70e,,,,,,,,,,,,,,,,,,,,,,,,,,,,,,,,,,,,,,,,,,,,,,,,,,,,,,,,,,,,,,,,,,,,,,,,,,,,,,,,,,,,,,,,,,,,,,,,,,,,,,,
,,"[""comma""]",0,[0.38800000000000523],16,0,16,0,1,5f2fda9d8f06be3d79b0371d,36,Mężczyzna,2022-05-28_09h09.10.855,task,2021.1.4,Win32,60.0240096,628b806c463b948bc644b84f,6291ca74569bb4fb3772a70e,,,,,,,,,,,,,,,,,,,,,,,,,,,,,,,,,,,,,,,,,,,,,,,,,,,,,,,,,,,,,,,,,,,,,,,,,,,,,,,,,,,,,,,,,,,,,,,,,,,,,,,
,,"[""comma""]",0,[0.4590000000000032],17,0,17,0,1,5f2fda9d8f06be3d79b0371d,36,Mężczyzna,2022-05-28_09h09.10.855,task,2021.1.4,Win32,60.0240096,628b806c463b948bc644b84f,6291ca74569bb4fb3772a70e,,,,,,,,,,,,,,,,,,,,,,,,,,,,,,,,,,,,,,,,,,,,,,,,,,,,,,,,,,,,,,,,,,,,,,,,,,,,,,,,,,,,,,,,,,,,,,,,,,,,,,,
,,"[""period""]",0,[0.4200000000000159],18,0,18,0,1,5f2fda9d8f06be3d79b0371d,36,Mężczyzna,2022-05-28_09h09.10.855,task,2021.1.4,Win32,60.0240096,628b806c463b948bc644b84f,6291ca74569bb4fb3772a70e,,,,,,,,,,,,,,,,,,,,,,,,,,,,,,,,,,,,,,,,,,,,,,,,,,,,,,,,,,,,,,,,,,,,,,,,,,,,,,,,,,,,,,,,,,,,,,,,,,,,,,,
,,"[""period""]",0,[0.39200000000002433],19,0,19,0,1,5f2fda9d8f06be3d79b0371d,36,Mężczyzna,2022-05-28_09h09.10.855,task,2021.1.4,Win32,60.0240096,628b806c463b948bc644b84f,6291ca74569bb4fb3772a70e,,,,,,,,,,,,,,,,,,,,,,,,,,,,,,,,,,,,,,,,,,,,,,,,,,,,,,,,,,,,,,,,,,,,,,,,,,,,,,,,,,,,,,,,,,,,,,,,,,,,,,,
,,"[""period""]",0,[0.48699999999999477],20,0,20,0,1,5f2fda9d8f06be3d79b0371d,36,Mężczyzna,2022-05-28_09h09.10.855,task,2021.1.4,Win32,60.0240096,628b806c463b948bc644b84f,6291ca74569bb4fb3772a70e,,,,,,,,,,,,,,,,,,,,,,,,,,,,,,,,,,,,,,,,,,,,,,,,,,,,,,,,,,,,,,,,,,,,,,,,,,,,,,,,,,,,,,,,,,,,,,,,,,,,,,,
,,"[""comma""]",0,[0.37000000000000455],21,0,21,0,1,5f2fda9d8f06be3d79b0371d,36,Mężczyzna,2022-05-28_09h09.10.855,task,2021.1.4,Win32,60.0240096,628b806c463b948bc644b84f,6291ca74569bb4fb3772a70e,,,,,,,,,,,,,,,,,,,,,,,,,,,,,,,,,,,,,,,,,,,,,,,,,,,,,,,,,,,,,,,,,,,,,,,,,,,,,,,,,,,,,,,,,,,,,,,,,,,,,,,
,,"[""period""]",0,[0.4379999999999882],22,0,22,0,1,5f2fda9d8f06be3d79b0371d,36,Mężczyzna,2022-05-28_09h09.10.855,task,2021.1.4,Win32,60.0240096,628b806c463b948bc644b84f,6291ca74569bb4fb3772a70e,,,,,,,,,,,,,,,,,,,,,,,,,,,,,,,,,,,,,,,,,,,,,,,,,,,,,,,,,,,,,,,,,,,,,,,,,,,,,,,,,,,,,,,,,,,,,,,,,,,,,,,
,,"[""comma""]",0,[0.38900000000001],23,0,23,0,1,5f2fda9d8f06be3d79b0371d,36,Mężczyzna,2022-05-28_09h09.10.855,task,2021.1.4,Win32,60.0240096,628b806c463b948bc644b84f,6291ca74569bb4fb3772a70e,,,,,,,,,,,,,,,,,,,,,,,,,,,,,,,,,,,,,,,,,,,,,,,,,,,,,,,,,,,,,,,,,,,,,,,,,,,,,,,,,,,,,,,,,,,,,,,,,,,,,,,
,,"[""period""]",0,[0.40399999999999636],24,0,24,0,1,5f2fda9d8f06be3d79b0371d,36,Mężczyzna,2022-05-28_09h09.10.855,task,2021.1.4,Win32,60.0240096,628b806c463b948bc644b84f,6291ca74569bb4fb3772a70e,,,,,,,,,,,,,,,,,,,,,,,,,,,,,,,,,,,,,,,,,,,,,,,,,,,,,,,,,,,,,,,,,,,,,,,,,,,,,,,,,,,,,,,,,,,,,,,,,,,,,,,
,,"[""comma""]",0,[0.40500000000000114],25,0,25,0,1,5f2fda9d8f06be3d79b0371d,36,Mężczyzna,2022-05-28_09h09.10.855,task,2021.1.4,Win32,60.0240096,628b806c463b948bc644b84f,6291ca74569bb4fb3772a70e,,,,,,,,,,,,,,,,,,,,,,,,,,,,,,,,,,,,,,,,,,,,,,,,,,,,,,,,,,,,,,,,,,,,,,,,,,,,,,,,,,,,,,,,,,,,,,,,,,,,,,,
,,"[""comma""]",0,[0.41900000000001114],26,0,26,0,1,5f2fda9d8f06be3d79b0371d,36,Mężczyzna,2022-05-28_09h09.10.855,task,2021.1.4,Win32,60.0240096,628b806c463b948bc644b84f,6291ca74569bb4fb3772a70e,,,,,,,,,,,,,,,,,,,,,,,,,,,,,,,,,,,,,,,,,,,,,,,,,,,,,,,,,,,,,,,,,,,,,,,,,,,,,,,,,,,,,,,,,,,,,,,,,,,,,,,
,,"[""period""]",0,[0.3860000000000241],27,0,27,0,1,5f2fda9d8f06be3d79b0371d,36,Mężczyzna,2022-05-28_09h09.10.855,task,2021.1.4,Win32,60.0240096,628b806c463b948bc644b84f,6291ca74569bb4fb3772a70e,,,,,,,,,,,,,,,,,,,,,,,,,,,,,,,,,,,,,,,,,,,,,,,,,,,,,,,,,,,,,,,,,,,,,,,,,,,,,,,,,,,,,,,,,,,,,,,,,,,,,,,
,,"[""period""]",0,[0.353999999999985],28,0,28,0,1,5f2fda9d8f06be3d79b0371d,36,Mężczyzna,2022-05-28_09h09.10.855,task,2021.1.4,Win32,60.0240096,628b806c463b948bc644b84f,6291ca74569bb4fb3772a70e,,,,,,,,,,,,,,,,,,,,,,,,,,,,,,,,,,,,,,,,,,,,,,,,,,,,,,,,,,,,,,,,,,,,,,,,,,,,,,,,,,,,,,,,,,,,,,,,,,,,,,,
,,"[""period""]",0,[0.47299999999998477],29,0,29,0,1,5f2fda9d8f06be3d79b0371d,36,Mężczyzna,2022-05-28_09h09.10.855,task,2021.1.4,Win32,60.0240096,628b806c463b948bc644b84f,6291ca74569bb4fb3772a70e,,,,,,,,,,,,,,,,,,,,,,,,,,,,,,,,,,,,,,,,,,,,,,,,,,,,,,,,,,,,,,,,,,,,,,,,,,,,,,,,,,,,,,,,,,,,,,,,,,,,,,,
,,"[""comma""]",0,[0.38400000000001455],30,0,30,0,1,5f2fda9d8f06be3d79b0371d,36,Mężczyzna,2022-05-28_09h09.10.855,task,2021.1.4,Win32,60.0240096,628b806c463b948bc644b84f,6291ca74569bb4fb3772a70e,,,,,,,,,,,,,,,,,,,,,,,,,,,,,,,,,,,,,,,,,,,,,,,,,,,,,,,,,,,,,,,,,,,,,,,,,,,,,,,,,,,,,,,,,,,,,,,,,,,,,,,
,,"[""comma""]",0,[0.43300000000002115],31,0,31,0,1,5f2fda9d8f06be3d79b0371d,36,Mężczyzna,2022-05-28_09h09.10.855,task,2021.1.4,Win32,60.0240096,628b806c463b948bc644b84f,6291ca74569bb4fb3772a70e,,,,,,,,,,,,,,,,,,,,,,,,,,,,,,,,,,,,,,,,,,,,,,,,,,,,,,,,,,,,,,,,,,,,,,,,,,,,,,,,,,,,,,,,,,,,,,,,,,,,,,,
,,"[""comma""]",0,[0.46999999999999886],32,0,32,0,1,5f2fda9d8f06be3d79b0371d,36,Mężczyzna,2022-05-28_09h09.10.855,task,2021.1.4,Win32,60.0240096,628b806c463b948bc644b84f,6291ca74569bb4fb3772a70e,,,,,,,,,,,,,,,,,,,,,,,,,,,,,,,,,,,,,,,,,,,,,,,,,,,,,,,,,,,,,,,,,,,,,,,,,,,,,,,,,,,,,,,,,,,,,,,,,,,,,,,
,,"[""period""]",0,[0.41900000000001114],33,0,33,0,1,5f2fda9d8f06be3d79b0371d,36,Mężczyzna,2022-05-28_09h09.10.855,task,2021.1.4,Win32,60.0240096,628b806c463b948bc644b84f,6291ca74569bb4fb3772a70e,,,,,,,,,,,,,,,,,,,,,,,,,,,,,,,,,,,,,,,,,,,,,,,,,,,,,,,,,,,,,,,,,,,,,,,,,,,,,,,,,,,,,,,,,,,,,,,,,,,,,,,
,,"[""period""]",0,[0.3739999999999952],34,0,34,0,1,5f2fda9d8f06be3d79b0371d,36,Mężczyzna,2022-05-28_09h09.10.855,task,2021.1.4,Win32,60.0240096,628b806c463b948bc644b84f,6291ca74569bb4fb3772a70e,,,,,,,,,,,,,,,,,,,,,,,,,,,,,,,,,,,,,,,,,,,,,,,,,,,,,,,,,,,,,,,,,,,,,,,,,,,,,,,,,,,,,,,,,,,,,,,,,,,,,,,
,,"[""comma""]",0,[0.35300000000000864],35,0,35,0,1,5f2fda9d8f06be3d79b0371d,36,Mężczyzna,2022-05-28_09h09.10.855,task,2021.1.4,Win32,60.0240096,628b806c463b948bc644b84f,6291ca74569bb4fb3772a70e,,,,,,,,,,,,,,,,,,,,,,,,,,,,,,,,,,,,,,,,,,,,,,,,,,,,,,,,,,,,,,,,,,,,,,,,,,,,,,,,,,,,,,,,,,,,,,,,,,,,,,,
,,"[""comma""]",0,[0.4159999999999968],36,0,36,0,1,5f2fda9d8f06be3d79b0371d,36,Mężczyzna,2022-05-28_09h09.10.855,task,2021.1.4,Win32,60.0240096,628b806c463b948bc644b84f,6291ca74569bb4fb3772a70e,,,,,,,,,,,,,,,,,,,,,,,,,,,,,,,,,,,,,,,,,,,,,,,,,,,,,,,,,,,,,,,,,,,,,,,,,,,,,,,,,,,,,,,,,,,,,,,,,,,,,,,
,,"[""comma""]",0,[0.3050000000000068],37,0,37,0,1,5f2fda9d8f06be3d79b0371d,36,Mężczyzna,2022-05-28_09h09.10.855,task,2021.1.4,Win32,60.0240096,628b806c463b948bc644b84f,6291ca74569bb4fb3772a70e,,,,,,,,,,,,,,,,,,,,,,,,,,,,,,,,,,,,,,,,,,,,,,,,,,,,,,,,,,,,,,,,,,,,,,,,,,,,,,,,,,,,,,,,,,,,,,,,,,,,,,,
,,"[""comma""]",0,[0.38800000000000523],38,0,38,0,1,5f2fda9d8f06be3d79b0371d,36,Mężczyzna,2022-05-28_09h09.10.855,task,2021.1.4,Win32,60.0240096,628b806c463b948bc644b84f,6291ca74569bb4fb3772a70e,,,,,,,,,,,,,,,,,,,,,,,,,,,,,,,,,,,,,,,,,,,,,,,,,,,,,,,,,,,,,,,,,,,,,,,,,,,,,,,,,,,,,,,,,,,,,,,,,,,,,,,
,,"[""period""]",0,[0.3720000000000141],39,0,39,0,1,5f2fda9d8f06be3d79b0371d,36,Mężczyzna,2022-05-28_09h09.10.855,task,2021.1.4,Win32,60.0240096,628b806c463b948bc644b84f,6291ca74569bb4fb3772a70e,,,,,,,,,,,,,,,,,,,,,,,,,,,,,,,,,,,,,,,,,,,,,,,,,,,,,,,,,,,,,,,,,,,,,,,,,,,,,,,,,,,,,,,,,,,,,,,,,,,,,,,
,,"[""comma""]",0,[0.30700000000001637],40,0,40,0,1,5f2fda9d8f06be3d79b0371d,36,Mężczyzna,2022-05-28_09h09.10.855,task,2021.1.4,Win32,60.0240096,628b806c463b948bc644b84f,6291ca74569bb4fb3772a70e,,,,,,,,,,,,,,,,,,,,,,,,,,,,,,,,,,,,,,,,,,,,,,,,,,,,,,,,,,,,,,,,,,,,,,,,,,,,,,,,,,,,,,,,,,,,,,,,,,,,,,,
,,"[""period""]",0,[0.33799999999999386],41,0,41,0,1,5f2fda9d8f06be3d79b0371d,36,Mężczyzna,2022-05-28_09h09.10.855,task,2021.1.4,Win32,60.0240096,628b806c463b948bc644b84f,6291ca74569bb4fb3772a70e,,,,,,,,,,,,,,,,,,,,,,,,,,,,,,,,,,,,,,,,,,,,,,,,,,,,,,,,,,,,,,,,,,,,,,,,,,,,,,,,,,,,,,,,,,,,,,,,,,,,,,,
,,"[""period""]",0,[0.3100000000000023],42,0,42,0,1,5f2fda9d8f06be3d79b0371d,36,Mężczyzna,2022-05-28_09h09.10.855,task,2021.1.4,Win32,60.0240096,628b806c463b948bc644b84f,6291ca74569bb4fb3772a70e,,,,,,,,,,,,,,,,,,,,,,,,,,,,,,,,,,,,,,,,,,,,,,,,,,,,,,,,,,,,,,,,,,,,,,,,,,,,,,,,,,,,,,,,,,,,,,,,,,,,,,,
,,"[""comma""]",0,[0.4089999999999918],43,0,43,0,1,5f2fda9d8f06be3d79b0371d,36,Mężczyzna,2022-05-28_09h09.10.855,task,2021.1.4,Win32,60.0240096,628b806c463b948bc644b84f,6291ca74569bb4fb3772a70e,,,,,,,,,,,,,,,,,,,,,,,,,,,,,,,,,,,,,,,,,,,,,,,,,,,,,,,,,,,,,,,,,,,,,,,,,,,,,,,,,,,,,,,,,,,,,,,,,,,,,,,
,,"[""period""]",0,[0.42099999999999227],44,0,44,0,1,5f2fda9d8f06be3d79b0371d,36,Mężczyzna,2022-05-28_09h09.10.855,task,2021.1.4,Win32,60.0240096,628b806c463b948bc644b84f,6291ca74569bb4fb3772a70e,,,,,,,,,,,,,,,,,,,,,,,,,,,,,,,,,,,,,,,,,,,,,,,,,,,,,,,,,,,,,,,,,,,,,,,,,,,,,,,,,,,,,,,,,,,,,,,,,,,,,,,
,,"[""comma""]",0,[0.4070000000000107],45,0,45,0,1,5f2fda9d8f06be3d79b0371d,36,Mężczyzna,2022-05-28_09h09.10.855,task,2021.1.4,Win32,60.0240096,628b806c463b948bc644b84f,6291ca74569bb4fb3772a70e,,,,,,,,,,,,,,,,,,,,,,,,,,,,,,,,,,,,,,,,,,,,,,,,,,,,,,,,,,,,,,,,,,,,,,,,,,,,,,,,,,,,,,,,,,,,,,,,,,,,,,,
,,"[""period""]",0,[0.3149999999999977],46,0,46,0,1,5f2fda9d8f06be3d79b0371d,36,Mężczyzna,2022-05-28_09h09.10.855,task,2021.1.4,Win32,60.0240096,628b806c463b948bc644b84f,6291ca74569bb4fb3772a70e,,,,,,,,,,,,,,,,,,,,,,,,,,,,,,,,,,,,,,,,,,,,,,,,,,,,,,,,,,,,,,,,,,,,,,,,,,,,,,,,,,,,,,,,,,,,,,,,,,,,,,,
,,"[""comma""]",0,[0.3569999999999993],47,0,47,0,1,5f2fda9d8f06be3d79b0371d,36,Mężczyzna,2022-05-28_09h09.10.855,task,2021.1.4,Win32,60.0240096,628b806c463b948bc644b84f,6291ca74569bb4fb3772a70e,,,,,,,,,,,,,,,,,,,,,,,,,,,,,,,,,,,,,,,,,,,,,,,,,,,,,,,,,,,,,,,,,,,,,,,,,,,,,,,,,,,,,,,,,,,,,,,,,,,,,,,
,,"[""comma""]",0,[0.3369999999999891],48,0,48,0,1,5f2fda9d8f06be3d79b0371d,36,Mężczyzna,2022-05-28_09h09.10.855,task,2021.1.4,Win32,60.0240096,628b806c463b948bc644b84f,6291ca74569bb4fb3772a70e,,,,,,,,,,,,,,,,,,,,,,,,,,,,,,,,,,,,,,,,,,,,,,,,,,,,,,,,,,,,,,,,,,,,,,,,,,,,,,,,,,,,,,,,,,,,,,,,,,,,,,,
,,"[""period""]",0,[0.33600000000001273],49,0,49,0,1,5f2fda9d8f06be3d79b0371d,36,Mężczyzna,2022-05-28_09h09.10.855,task,2021.1.4,Win32,60.0240096,628b806c463b948bc644b84f,6291ca74569bb4fb3772a70e,,,,,,,,,,,,,,,,,,,,,,,,,,,,,,,,,,,,,,,,,,,,,,,,,,,,,,,,,,,,,,,,,,,,,,,,,,,,,,,,,,,,,,,,,,,,,,,,,,,,,,,
,,"[""comma""]",0,[0.285000000000025],50,0,50,0,1,5f2fda9d8f06be3d79b0371d,36,Mężczyzna,2022-05-28_09h09.10.855,task,2021.1.4,Win32,60.0240096,628b806c463b948bc644b84f,6291ca74569bb4fb3772a70e,,,,,,,,,,,,,,,,,,,,,,,,,,,,,,,,,,,,,,,,,,,,,,,,,,,,,,,,,,,,,,,,,,,,,,,,,,,,,,,,,,,,,,,,,,,,,,,,,,,,,,,
,,"[""period""]",0,[0.2669999999999959],51,0,51,0,1,5f2fda9d8f06be3d79b0371d,36,Mężczyzna,2022-05-28_09h09.10.855,task,2021.1.4,Win32,60.0240096,628b806c463b948bc644b84f,6291ca74569bb4fb3772a70e,,,,,,,,,,,,,,,,,,,,,,,,,,,,,,,,,,,,,,,,,,,,,,,,,,,,,,,,,,,,,,,,,,,,,,,,,,,,,,,,,,,,,,,,,,,,,,,,,,,,,,,
,,"[""period""]",0,[0.2709999999999866],52,0,52,0,1,5f2fda9d8f06be3d79b0371d,36,Mężczyzna,2022-05-28_09h09.10.855,task,2021.1.4,Win32,60.0240096,628b806c463b948bc644b84f,6291ca74569bb4fb3772a70e,,,,,,,,,,,,,,,,,,,,,,,,,,,,,,,,,,,,,,,,,,,,,,,,,,,,,,,,,,,,,,,,,,,,,,,,,,,,,,,,,,,,,,,,,,,,,,,,,,,,,,,
,,"[""comma""]",0,[0.3240000000000123],53,0,53,0,1,5f2fda9d8f06be3d79b0371d,36,Mężczyzna,2022-05-28_09h09.10.855,task,2021.1.4,Win32,60.0240096,628b806c463b948bc644b84f,6291ca74569bb4fb3772a70e,,,,,,,,,,,,,,,,,,,,,,,,,,,,,,,,,,,,,,,,,,,,,,,,,,,,,,,,,,,,,,,,,,,,,,,,,,,,,,,,,,,,,,,,,,,,,,,,,,,,,,,
,,"[""comma""]",0,[0.2880000000000109],54,0,54,0,1,5f2fda9d8f06be3d79b0371d,36,Mężczyzna,2022-05-28_09h09.10.855,task,2021.1.4,Win32,60.0240096,628b806c463b948bc644b84f,6291ca74569bb4fb3772a70e,,,,,,,,,,,,,,,,,,,,,,,,,,,,,,,,,,,,,,,,,,,,,,,,,,,,,,,,,,,,,,,,,,,,,,,,,,,,,,,,,,,,,,,,,,,,,,,,,,,,,,,
,,"[""comma""]",0,[0.38700000000000045],55,0,55,0,1,5f2fda9d8f06be3d79b0371d,36,Mężczyzna,2022-05-28_09h09.10.855,task,2021.1.4,Win32,60.0240096,628b806c463b948bc644b84f,6291ca74569bb4fb3772a70e,,,,,,,,,,,,,,,,,,,,,,,,,,,,,,,,,,,,,,,,,,,,,,,,,,,,,,,,,,,,,,,,,,,,,,,,,,,,,,,,,,,,,,,,,,,,,,,,,,,,,,,
,,"[""period""]",0,[0.28700000000000614],56,0,56,0,1,5f2fda9d8f06be3d79b0371d,36,Mężczyzna,2022-05-28_09h09.10.855,task,2021.1.4,Win32,60.0240096,628b806c463b948bc644b84f,6291ca74569bb4fb3772a70e,,,,,,,,,,,,,,,,,,,,,,,,,,,,,,,,,,,,,,,,,,,,,,,,,,,,,,,,,,,,,,,,,,,,,,,,,,,,,,,,,,,,,,,,,,,,,,,,,,,,,,,
,,"[""comma""]",0,[0.0730000000000075],57,0,57,0,1,5f2fda9d8f06be3d79b0371d,36,Mężczyzna,2022-05-28_09h09.10.855,task,2021.1.4,Win32,60.0240096,628b806c463b948bc644b84f,6291ca74569bb4fb3772a70e,,,,,,,,,,,,,,,,,,,,,,,,,,,,,,,,,,,,,,,,,,,,,,,,,,,,,,,,,,,,,,,,,,,,,,,,,,,,,,,,,,,,,,,,,,,,,,,,,,,,,,,
,,"[""period""]",0,[0.28700000000000614],58,0,58,0,1,5f2fda9d8f06be3d79b0371d,36,Mężczyzna,2022-05-28_09h09.10.855,task,2021.1.4,Win32,60.0240096,628b806c463b948bc644b84f,6291ca74569bb4fb3772a70e,,,,,,,,,,,,,,,,,,,,,,,,,,,,,,,,,,,,,,,,,,,,,,,,,,,,,,,,,,,,,,,,,,,,,,,,,,,,,,,,,,,,,,,,,,,,,,,,,,,,,,,
,,"[""period""]",0,[0.3199999999999932],59,0,59,0,1,5f2fda9d8f06be3d79b0371d,36,Mężczyzna,2022-05-28_09h09.10.855,task,2021.1.4,Win32,60.0240096,628b806c463b948bc644b84f,6291ca74569bb4fb3772a70e,,,,,,,,,,,,,,,,,,,,,,,,,,,,,,,,,,,,,,,,,,,,,,,,,,,,,,,,,,,,,,,,,,,,,,,,,,,,,,,,,,,,,,,,,,,,,,,,,,,,,,,
,,"[""comma""]",0,[0.25499999999999545],60,0,60,0,1,5f2fda9d8f06be3d79b0371d,36,Mężczyzna,2022-05-28_09h09.10.855,task,2021.1.4,Win32,60.0240096,628b806c463b948bc644b84f,6291ca74569bb4fb3772a70e,,,,,,,,,,,,,,,,,,,,,,,,,,,,,,,,,,,,,,,,,,,,,,,,,,,,,,,,,,,,,,,,,,,,,,,,,,,,,,,,,,,,,,,,,,,,,,,,,,,,,,,
,,"[""period""]",0,[0.35599999999999454],61,0,61,0,1,5f2fda9d8f06be3d79b0371d,36,Mężczyzna,2022-05-28_09h09.10.855,task,2021.1.4,Win32,60.0240096,628b806c463b948bc644b84f,6291ca74569bb4fb3772a70e,,,,,,,,,,,,,,,,,,,,,,,,,,,,,,,,,,,,,,,,,,,,,,,,,,,,,,,,,,,,,,,,,,,,,,,,,,,,,,,,,,,,,,,,,,,,,,,,,,,,,,,
,,"[""comma""]",0,[0.438000000000045],62,0,62,0,1,5f2fda9d8f06be3d79b0371d,36,Mężczyzna,2022-05-28_09h09.10.855,task,2021.1.4,Win32,60.0240096,628b806c463b948bc644b84f,6291ca74569bb4fb3772a70e,,,,,,,,,,,,,,,,,,,,,,,,,,,,,,,,,,,,,,,,,,,,,,,,,,,,,,,,,,,,,,,,,,,,,,,,,,,,,,,,,,,,,,,,,,,,,,,,,,,,,,,
,,"[""comma""]",0,[0.41800000000000637],63,0,63,0,1,5f2fda9d8f06be3d79b0371d,36,Mężczyzna,2022-05-28_09h09.10.855,task,2021.1.4,Win32,60.0240096,628b806c463b948bc644b84f,6291ca74569bb4fb3772a70e,,,,,,,,,,,,,,,,,,,,,,,,,,,,,,,,,,,,,,,,,,,,,,,,,,,,,,,,,,,,,,,,,,,,,,,,,,,,,,,,,,,,,,,,,,,,,,,,,,,,,,,
,,"[""comma""]",0,[0.4350000000000023],64,0,64,0,1,5f2fda9d8f06be3d79b0371d,36,Mężczyzna,2022-05-28_09h09.10.855,task,2021.1.4,Win32,60.0240096,628b806c463b948bc644b84f,6291ca74569bb4fb3772a70e,,,,,,,,,,,,,,,,,,,,,,,,,,,,,,,,,,,,,,,,,,,,,,,,,,,,,,,,,,,,,,,,,,,,,,,,,,,,,,,,,,,,,,,,,,,,,,,,,,,,,,,
,,"[""period""]",0,[0.47100000000000364],65,0,65,0,1,5f2fda9d8f06be3d79b0371d,36,Mężczyzna,2022-05-28_09h09.10.855,task,2021.1.4,Win32,60.0240096,628b806c463b948bc644b84f,6291ca74569bb4fb3772a70e,,,,,,,,,,,,,,,,,,,,,,,,,,,,,,,,,,,,,,,,,,,,,,,,,,,,,,,,,,,,,,,,,,,,,,,,,,,,,,,,,,,,,,,,,,,,,,,,,,,,,,,
,,"[""comma""]",0,[0.3830000000000382],66,0,66,0,1,5f2fda9d8f06be3d79b0371d,36,Mężczyzna,2022-05-28_09h09.10.855,task,2021.1.4,Win32,60.0240096,628b806c463b948bc644b84f,6291ca74569bb4fb3772a70e,,,,,,,,,,,,,,,,,,,,,,,,,,,,,,,,,,,,,,,,,,,,,,,,,,,,,,,,,,,,,,,,,,,,,,,,,,,,,,,,,,,,,,,,,,,,,,,,,,,,,,,
,,"[""comma""]",0,[0.3979999999999677],67,0,67,0,1,5f2fda9d8f06be3d79b0371d,36,Mężczyzna,2022-05-28_09h09.10.855,task,2021.1.4,Win32,60.0240096,628b806c463b948bc644b84f,6291ca74569bb4fb3772a70e,,,,,,,,,,,,,,,,,,,,,,,,,,,,,,,,,,,,,,,,,,,,,,,,,,,,,,,,,,,,,,,,,,,,,,,,,,,,,,,,,,,,,,,,,,,,,,,,,,,,,,,
,,"[""period""]",0,[0.32099999999996953],68,0,68,0,1,5f2fda9d8f06be3d79b0371d,36,Mężczyzna,2022-05-28_09h09.10.855,task,2021.1.4,Win32,60.0240096,628b806c463b948bc644b84f,6291ca74569bb4fb3772a70e,,,,,,,,,,,,,,,,,,,,,,,,,,,,,,,,,,,,,,,,,,,,,,,,,,,,,,,,,,,,,,,,,,,,,,,,,,,,,,,,,,,,,,,,,,,,,,,,,,,,,,,
,,"[""period""]",0,[0.38599999999996726],69,0,69,0,1,5f2fda9d8f06be3d79b0371d,36,Mężczyzna,2022-05-28_09h09.10.855,task,2021.1.4,Win32,60.0240096,628b806c463b948bc644b84f,6291ca74569bb4fb3772a70e,,,,,,,,,,,,,,,,,,,,,,,,,,,,,,,,,,,,,,,,,,,,,,,,,,,,,,,,,,,,,,,,,,,,,,,,,,,,,,,,,,,,,,,,,,,,,,,,,,,,,,,
,,"[""comma""]",0,[0.29000000000002046],70,0,70,0,1,5f2fda9d8f06be3d79b0371d,36,Mężczyzna,2022-05-28_09h09.10.855,task,2021.1.4,Win32,60.0240096,628b806c463b948bc644b84f,6291ca74569bb4fb3772a70e,,,,,,,,,,,,,,,,,,,,,,,,,,,,,,,,,,,,,,,,,,,,,,,,,,,,,,,,,,,,,,,,,,,,,,,,,,,,,,,,,,,,,,,,,,,,,,,,,,,,,,,
,,"[""period""]",0,[0.40100000000001046],71,0,71,0,1,5f2fda9d8f06be3d79b0371d,36,Mężczyzna,2022-05-28_09h09.10.855,task,2021.1.4,Win32,60.0240096,628b806c463b948bc644b84f,6291ca74569bb4fb3772a70e,,,,,,,,,,,,,,,,,,,,,,,,,,,,,,,,,,,,,,,,,,,,,,,,,,,,,,,,,,,,,,,,,,,,,,,,,,,,,,,,,,,,,,,,,,,,,,,,,,,,,,,
,,"[""comma""]",0,[0.37899999999996226],72,0,72,0,1,5f2fda9d8f06be3d79b0371d,36,Mężczyzna,2022-05-28_09h09.10.855,task,2021.1.4,Win32,60.0240096,628b806c463b948bc644b84f,6291ca74569bb4fb3772a70e,,,,,,,,,,,,,,,,,,,,,,,,,,,,,,,,,,,,,,,,,,,,,,,,,,,,,,,,,,,,,,,,,,,,,,,,,,,,,,,,,,,,,,,,,,,,,,,,,,,,,,,
,,"[""period""]",0,[0.33899999999999864],73,0,73,0,1,5f2fda9d8f06be3d79b0371d,36,Mężczyzna,2022-05-28_09h09.10.855,task,2021.1.4,Win32,60.0240096,628b806c463b948bc644b84f,6291ca74569bb4fb3772a70e,,,,,,,,,,,,,,,,,,,,,,,,,,,,,,,,,,,,,,,,,,,,,,,,,,,,,,,,,,,,,,,,,,,,,,,,,,,,,,,,,,,,,,,,,,,,,,,,,,,,,,,
,,"[""comma""]",0,[0.33600000000001273],74,0,74,0,1,5f2fda9d8f06be3d79b0371d,36,Mężczyzna,2022-05-28_09h09.10.855,task,2021.1.4,Win32,60.0240096,628b806c463b948bc644b84f,6291ca74569bb4fb3772a70e,,,,,,,,,,,,,,,,,,,,,,,,,,,,,,,,,,,,,,,,,,,,,,,,,,,,,,,,,,,,,,,,,,,,,,,,,,,,,,,,,,,,,,,,,,,,,,,,,,,,,,,
,,"[""comma""]",0,[0.3190000000000168],75,0,75,0,1,5f2fda9d8f06be3d79b0371d,36,Mężczyzna,2022-05-28_09h09.10.855,task,2021.1.4,Win32,60.0240096,628b806c463b948bc644b84f,6291ca74569bb4fb3772a70e,,,,,,,,,,,,,,,,,,,,,,,,,,,,,,,,,,,,,,,,,,,,,,,,,,,,,,,,,,,,,,,,,,,,,,,,,,,,,,,,,,,,,,,,,,,,,,,,,,,,,,,
,,"[""period""]",0,[0.2869999999999777],76,0,76,0,1,5f2fda9d8f06be3d79b0371d,36,Mężczyzna,2022-05-28_09h09.10.855,task,2021.1.4,Win32,60.0240096,628b806c463b948bc644b84f,6291ca74569bb4fb3772a70e,,,,,,,,,,,,,,,,,,,,,,,,,,,,,,,,,,,,,,,,,,,,,,,,,,,,,,,,,,,,,,,,,,,,,,,,,,,,,,,,,,,,,,,,,,,,,,,,,,,,,,,
,,"[""period""]",0,[0.30299999999999727],77,0,77,0,1,5f2fda9d8f06be3d79b0371d,36,Mężczyzna,2022-05-28_09h09.10.855,task,2021.1.4,Win32,60.0240096,628b806c463b948bc644b84f,6291ca74569bb4fb3772a70e,,,,,,,,,,,,,,,,,,,,,,,,,,,,,,,,,,,,,,,,,,,,,,,,,,,,,,,,,,,,,,,,,,,,,,,,,,,,,,,,,,,,,,,,,,,,,,,,,,,,,,,
,,"[""comma""]",0,[0.339999999999975],78,0,78,0,1,5f2fda9d8f06be3d79b0371d,36,Mężczyzna,2022-05-28_09h09.10.855,task,2021.1.4,Win32,60.0240096,628b806c463b948bc644b84f,6291ca74569bb4fb3772a70e,,,,,,,,,,,,,,,,,,,,,,,,,,,,,,,,,,,,,,,,,,,,,,,,,,,,,,,,,,,,,,,,,,,,,,,,,,,,,,,,,,,,,,,,,,,,,,,,,,,,,,,
,,"[""period""]",0,[0.16200000000003456],79,0,79,0,1,5f2fda9d8f06be3d79b0371d,36,Mężczyzna,2022-05-28_09h09.10.855,task,2021.1.4,Win32,60.0240096,628b806c463b948bc644b84f,6291ca74569bb4fb3772a70e,,,,,,,,,,,,,,,,,,,,,,,,,,,,,,,,,,,,,,,,,,,,,,,,,,,,,,,,,,,,,,,,,,,,,,,,,,,,,,,,,,,,,,,,,,,,,,,,,,,,,,,
,,"[""comma""]",0,[0.31399999999996453],80,0,80,0,1,5f2fda9d8f06be3d79b0371d,36,Mężczyzna,2022-05-28_09h09.10.855,task,2021.1.4,Win32,60.0240096,628b806c463b948bc644b84f,6291ca74569bb4fb3772a70e,,,,,,,,,,,,,,,,,,,,,,,,,,,,,,,,,,,,,,,,,,,,,,,,,,,,,,,,,,,,,,,,,,,,,,,,,,,,,,,,,,,,,,,,,,,,,,,,,,,,,,,
,,"[""comma""]",0,[0.3490000000000464],81,0,81,0,1,5f2fda9d8f06be3d79b0371d,36,Mężczyzna,2022-05-28_09h09.10.855,task,2021.1.4,Win32,60.0240096,628b806c463b948bc644b84f,6291ca74569bb4fb3772a70e,,,,,,,,,,,,,,,,,,,,,,,,,,,,,,,,,,,,,,,,,,,,,,,,,,,,,,,,,,,,,,,,,,,,,,,,,,,,,,,,,,,,,,,,,,,,,,,,,,,,,,,
,,"[""period""]",0,[0.3299999999999841],82,0,82,0,1,5f2fda9d8f06be3d79b0371d,36,Mężczyzna,2022-05-28_09h09.10.855,task,2021.1.4,Win32,60.0240096,628b806c463b948bc644b84f,6291ca74569bb4fb3772a70e,,,,,,,,,,,,,,,,,,,,,,,,,,,,,,,,,,,,,,,,,,,,,,,,,,,,,,,,,,,,,,,,,,,,,,,,,,,,,,,,,,,,,,,,,,,,,,,,,,,,,,,
,,"[""period""]",0,[0.3720000000000141],83,0,83,0,1,5f2fda9d8f06be3d79b0371d,36,Mężczyzna,2022-05-28_09h09.10.855,task,2021.1.4,Win32,60.0240096,628b806c463b948bc644b84f,6291ca74569bb4fb3772a70e,,,,,,,,,,,,,,,,,,,,,,,,,,,,,,,,,,,,,,,,,,,,,,,,,,,,,,,,,,,,,,,,,,,,,,,,,,,,,,,,,,,,,,,,,,,,,,,,,,,,,,,
,,"[""comma""]",0,[0.45299999999997453],84,0,84,0,1,5f2fda9d8f06be3d79b0371d,36,Mężczyzna,2022-05-28_09h09.10.855,task,2021.1.4,Win32,60.0240096,628b806c463b948bc644b84f,6291ca74569bb4fb3772a70e,,,,,,,,,,,,,,,,,,,,,,,,,,,,,,,,,,,,,,,,,,,,,,,,,,,,,,,,,,,,,,,,,,,,,,,,,,,,,,,,,,,,,,,,,,,,,,,,,,,,,,,
,,"[""comma""]",0,[0.5279999999999632],85,0,85,0,1,5f2fda9d8f06be3d79b0371d,36,Mężczyzna,2022-05-28_09h09.10.855,task,2021.1.4,Win32,60.0240096,628b806c463b948bc644b84f,6291ca74569bb4fb3772a70e,,,,,,,,,,,,,,,,,,,,,,,,,,,,,,,,,,,,,,,,,,,,,,,,,,,,,,,,,,,,,,,,,,,,,,,,,,,,,,,,,,,,,,,,,,,,,,,,,,,,,,,
,,"[""comma""]",0,[0.4900000000000091],86,0,86,0,1,5f2fda9d8f06be3d79b0371d,36,Mężczyzna,2022-05-28_09h09.10.855,task,2021.1.4,Win32,60.0240096,628b806c463b948bc644b84f,6291ca74569bb4fb3772a70e,,,,,,,,,,,,,,,,,,,,,,,,,,,,,,,,,,,,,,,,,,,,,,,,,,,,,,,,,,,,,,,,,,,,,,,,,,,,,,,,,,,,,,,,,,,,,,,,,,,,,,,
,,"[""period""]",0,[0.47199999999998],87,0,87,0,1,5f2fda9d8f06be3d79b0371d,36,Mężczyzna,2022-05-28_09h09.10.855,task,2021.1.4,Win32,60.0240096,628b806c463b948bc644b84f,6291ca74569bb4fb3772a70e,,,,,,,,,,,,,,,,,,,,,,,,,,,,,,,,,,,,,,,,,,,,,,,,,,,,,,,,,,,,,,,,,,,,,,,,,,,,,,,,,,,,,,,,,,,,,,,,,,,,,,,
,,"[""period""]",0,[0.4060000000000059],88,0,88,0,1,5f2fda9d8f06be3d79b0371d,36,Mężczyzna,2022-05-28_09h09.10.855,task,2021.1.4,Win32,60.0240096,628b806c463b948bc644b84f,6291ca74569bb4fb3772a70e,,,,,,,,,,,,,,,,,,,,,,,,,,,,,,,,,,,,,,,,,,,,,,,,,,,,,,,,,,,,,,,,,,,,,,,,,,,,,,,,,,,,,,,,,,,,,,,,,,,,,,,
,,"[""comma""]",0,[0.7210000000000036],89,0,89,0,1,5f2fda9d8f06be3d79b0371d,36,Mężczyzna,2022-05-28_09h09.10.855,task,2021.1.4,Win32,60.0240096,628b806c463b948bc644b84f,6291ca74569bb4fb3772a70e,,,,,,,,,,,,,,,,,,,,,,,,,,,,,,,,,,,,,,,,,,,,,,,,,,,,,,,,,,,,,,,,,,,,,,,,,,,,,,,,,,,,,,,,,,,,,,,,,,,,,,,
,,"[""period""]",0,[0.6200000000000045],90,0,90,0,1,5f2fda9d8f06be3d79b0371d,36,Mężczyzna,2022-05-28_09h09.10.855,task,2021.1.4,Win32,60.0240096,628b806c463b948bc644b84f,6291ca74569bb4fb3772a70e,,,,,,,,,,,,,,,,,,,,,,,,,,,,,,,,,,,,,,,,,,,,,,,,,,,,,,,,,,,,,,,,,,,,,,,,,,,,,,,,,,,,,,,,,,,,,,,,,,,,,,,
,,"[""comma""]",0,[0.55600000000004],91,0,91,0,1,5f2fda9d8f06be3d79b0371d,36,Mężczyzna,2022-05-28_09h09.10.855,task,2021.1.4,Win32,60.0240096,628b806c463b948bc644b84f,6291ca74569bb4fb3772a70e,,,,,,,,,,,,,,,,,,,,,,,,,,,,,,,,,,,,,,,,,,,,,,,,,,,,,,,,,,,,,,,,,,,,,,,,,,,,,,,,,,,,,,,,,,,,,,,,,,,,,,,
,,"[""comma""]",0,[0.3990000000000009],92,0,92,0,1,5f2fda9d8f06be3d79b0371d,36,Mężczyzna,2022-05-28_09h09.10.855,task,2021.1.4,Win32,60.0240096,628b806c463b948bc644b84f,6291ca74569bb4fb3772a70e,,,,,,,,,,,,,,,,,,,,,,,,,,,,,,,,,,,,,,,,,,,,,,,,,,,,,,,,,,,,,,,,,,,,,,,,,,,,,,,,,,,,,,,,,,,,,,,,,,,,,,,
,,"[""comma""]",0,[0.4900000000000091],93,0,93,0,1,5f2fda9d8f06be3d79b0371d,36,Mężczyzna,2022-05-28_09h09.10.855,task,2021.1.4,Win32,60.0240096,628b806c463b948bc644b84f,6291ca74569bb4fb3772a70e,,,,,,,,,,,,,,,,,,,,,,,,,,,,,,,,,,,,,,,,,,,,,,,,,,,,,,,,,,,,,,,,,,,,,,,,,,,,,,,,,,,,,,,,,,,,,,,,,,,,,,,
,,"[""period""]",0,[0.45800000000002683],94,0,94,0,1,5f2fda9d8f06be3d79b0371d,36,Mężczyzna,2022-05-28_09h09.10.855,task,2021.1.4,Win32,60.0240096,628b806c463b948bc644b84f,6291ca74569bb4fb3772a70e,,,,,,,,,,,,,,,,,,,,,,,,,,,,,,,,,,,,,,,,,,,,,,,,,,,,,,,,,,,,,,,,,,,,,,,,,,,,,,,,,,,,,,,,,,,,,,,,,,,,,,,
,,"[""period""]",0,[0.48799999999999955],95,0,95,0,1,5f2fda9d8f06be3d79b0371d,36,Mężczyzna,2022-05-28_09h09.10.855,task,2021.1.4,Win32,60.0240096,628b806c463b948bc644b84f,6291ca74569bb4fb3772a70e,,,,,,,,,,,,,,,,,,,,,,,,,,,,,,,,,,,,,,,,,,,,,,,,,,,,,,,,,,,,,,,,,,,,,,,,,,,,,,,,,,,,,,,,,,,,,,,,,,,,,,,
,,"[""comma""]",0,[0.4049999999999727],96,0,96,0,1,5f2fda9d8f06be3d79b0371d,36,Mężczyzna,2022-05-28_09h09.10.855,task,2021.1.4,Win32,60.0240096,628b806c463b948bc644b84f,6291ca74569bb4fb3772a70e,,,,,,,,,,,,,,,,,,,,,,,,,,,,,,,,,,,,,,,,,,,,,,,,,,,,,,,,,,,,,,,,,,,,,,,,,,,,,,,,,,,,,,,,,,,,,,,,,,,,,,,
,,"[""comma""]",0,[0.3860000000000241],97,0,97,0,1,5f2fda9d8f06be3d79b0371d,36,Mężczyzna,2022-05-28_09h09.10.855,task,2021.1.4,Win32,60.0240096,628b806c463b948bc644b84f,6291ca74569bb4fb3772a70e,,,,,,,,,,,,,,,,,,,,,,,,,,,,,,,,,,,,,,,,,,,,,,,,,,,,,,,,,,,,,,,,,,,,,,,,,,,,,,,,,,,,,,,,,,,,,,,,,,,,,,,
,,"[""period""]",0,[0.38700000000000045],98,0,98,0,1,5f2fda9d8f06be3d79b0371d,36,Mężczyzna,2022-05-28_09h09.10.855,task,2021.1.4,Win32,60.0240096,628b806c463b948bc644b84f,6291ca74569bb4fb3772a70e,,,,,,,,,,,,,,,,,,,,,,,,,,,,,,,,,,,,,,,,,,,,,,,,,,,,,,,,,,,,,,,,,,,,,,,,,,,,,,,,,,,,,,,,,,,,,,,,,,,,,,,
,,"[""comma""]",0,[0.37000000000000455],99,0,99,0,1,5f2fda9d8f06be3d79b0371d,36,Mężczyzna,2022-05-28_09h09.10.855,task,2021.1.4,Win32,60.0240096,628b806c463b948bc644b84f,6291ca74569bb4fb3772a70e,,,,,,,,,,,,,,,,,,,,,,,,,,,,,,,,,,,,,,,,,,,,,,,,,,,,,,,,,,,,,,,,,,,,,,,,,,,,,,,,,,,,,,,,,,,,,,,,,,,,,,,
,,"[""period""]",0,[0.30299999999999727],100,0,100,0,1,5f2fda9d8f06be3d79b0371d,36,Mężczyzna,2022-05-28_09h09.10.855,task,2021.1.4,Win32,60.0240096,628b806c463b948bc644b84f,6291ca74569bb4fb3772a70e,,,,,,,,,,,,,,,,,,,,,,,,,,,,,,,,,,,,,,,,,,,,,,,,,,,,,,,,,,,,,,,,,,,,,,,,,,,,,,,,,,,,,,,,,,,,,,,,,,,,,,,
,,"[""period""]",0,[0.3509999999999991],101,0,101,0,1,5f2fda9d8f06be3d79b0371d,36,Mężczyzna,2022-05-28_09h09.10.855,task,2021.1.4,Win32,60.0240096,628b806c463b948bc644b84f,6291ca74569bb4fb3772a70e,,,,,,,,,,,,,,,,,,,,,,,,,,,,,,,,,,,,,,,,,,,,,,,,,,,,,,,,,,,,,,,,,,,,,,,,,,,,,,,,,,,,,,,,,,,,,,,,,,,,,,,
,,"[""period""]",0,[0.29199999999997317],102,0,102,0,1,5f2fda9d8f06be3d79b0371d,36,Mężczyzna,2022-05-28_09h09.10.855,task,2021.1.4,Win32,60.0240096,628b806c463b948bc644b84f,6291ca74569bb4fb3772a70e,,,,,,,,,,,,,,,,,,,,,,,,,,,,,,,,,,,,,,,,,,,,,,,,,,,,,,,,,,,,,,,,,,,,,,,,,,,,,,,,,,,,,,,,,,,,,,,,,,,,,,,
,,"[""comma""]",0,[0.22100000000000364],103,0,103,0,1,5f2fda9d8f06be3d79b0371d,36,Mężczyzna,2022-05-28_09h09.10.855,task,2021.1.4,Win32,60.0240096,628b806c463b948bc644b84f,6291ca74569bb4fb3772a70e,,,,,,,,,,,,,,,,,,,,,,,,,,,,,,,,,,,,,,,,,,,,,,,,,,,,,,,,,,,,,,,,,,,,,,,,,,,,,,,,,,,,,,,,,,,,,,,,,,,,,,,
,,"[""comma""]",0,[0.3690000000000282],104,0,104,0,1,5f2fda9d8f06be3d79b0371d,36,Mężczyzna,2022-05-28_09h09.10.855,task,2021.1.4,Win32,60.0240096,628b806c463b948bc644b84f,6291ca74569bb4fb3772a70e,,,,,,,,,,,,,,,,,,,,,,,,,,,,,,,,,,,,,,,,,,,,,,,,,,,,,,,,,,,,,,,,,,,,,,,,,,,,,,,,,,,,,,,,,,,,,,,,,,,,,,,
,,"[""comma""]",0,[0.3709999999999809],105,0,105,0,1,5f2fda9d8f06be3d79b0371d,36,Mężczyzna,2022-05-28_09h09.10.855,task,2021.1.4,Win32,60.0240096,628b806c463b948bc644b84f,6291ca74569bb4fb3772a70e,,,,,,,,,,,,,,,,,,,,,,,,,,,,,,,,,,,,,,,,,,,,,,,,,,,,,,,,,,,,,,,,,,,,,,,,,,,,,,,,,,,,,,,,,,,,,,,,,,,,,,,
,,"[""period""]",0,[0.24099999999998545],106,0,106,0,1,5f2fda9d8f06be3d79b0371d,36,Mężczyzna,2022-05-28_09h09.10.855,task,2021.1.4,Win32,60.0240096,628b806c463b948bc644b84f,6291ca74569bb4fb3772a70e,,,,,,,,,,,,,,,,,,,,,,,,,,,,,,,,,,,,,,,,,,,,,,,,,,,,,,,,,,,,,,,,,,,,,,,,,,,,,,,,,,,,,,,,,,,,,,,,,,,,,,,
,,"[""period""]",0,[0.33499999999997954],107,0,107,0,1,5f2fda9d8f06be3d79b0371d,36,Mężczyzna,2022-05-28_09h09.10.855,task,2021.1.4,Win32,60.0240096,628b806c463b948bc644b84f,6291ca74569bb4fb3772a70e,,,,,,,,,,,,,,,,,,,,,,,,,,,,,,,,,,,,,,,,,,,,,,,,,,,,,,,,,,,,,,,,,,,,,,,,,,,,,,,,,,,,,,,,,,,,,,,,,,,,,,,
,,"[""comma""]",0,[0.23799999999999955],108,0,108,0,1,5f2fda9d8f06be3d79b0371d,36,Mężczyzna,2022-05-28_09h09.10.855,task,2021.1.4,Win32,60.0240096,628b806c463b948bc644b84f,6291ca74569bb4fb3772a70e,,,,,,,,,,,,,,,,,,,,,,,,,,,,,,,,,,,,,,,,,,,,,,,,,,,,,,,,,,,,,,,,,,,,,,,,,,,,,,,,,,,,,,,,,,,,,,,,,,,,,,,
,,"[""period""]",0,[0.2440000000000282],109,0,109,0,1,5f2fda9d8f06be3d79b0371d,36,Mężczyzna,2022-05-28_09h09.10.855,task,2021.1.4,Win32,60.0240096,628b806c463b948bc644b84f,6291ca74569bb4fb3772a70e,,,,,,,,,,,,,,,,,,,,,,,,,,,,,,,,,,,,,,,,,,,,,,,,,,,,,,,,,,,,,,,,,,,,,,,,,,,,,,,,,,,,,,,,,,,,,,,,,,,,,,,
,,"[""comma""]",0,[0.17000000000001592],110,0,110,0,1,5f2fda9d8f06be3d79b0371d,36,Mężczyzna,2022-05-28_09h09.10.855,task,2021.1.4,Win32,60.0240096,628b806c463b948bc644b84f,6291ca74569bb4fb3772a70e,,,,,,,,,,,,,,,,,,,,,,,,,,,,,,,,,,,,,,,,,,,,,,,,,,,,,,,,,,,,,,,,,,,,,,,,,,,,,,,,,,,,,,,,,,,,,,,,,,,,,,,
,,"[""period""]",0,[0.9029999999999632],111,0,111,0,1,5f2fda9d8f06be3d79b0371d,36,Mężczyzna,2022-05-28_09h09.10.855,task,2021.1.4,Win32,60.0240096,628b806c463b948bc644b84f,6291ca74569bb4fb3772a70e,,,,,,,,,,,,,,,,,,,,,,,,,,,,,,,,,,,,,,,,,,,,,,,,,,,,,,,,,,,,,,,,,,,,,,,,,,,,,,,,,,,,,,,,,,,,,,,,,,,,,,,
,,"[""comma""]",0,[0.3350000000000364],112,0,112,0,1,5f2fda9d8f06be3d79b0371d,36,Mężczyzna,2022-05-28_09h09.10.855,task,2021.1.4,Win32,60.0240096,628b806c463b948bc644b84f,6291ca74569bb4fb3772a70e,,,,,,,,,,,,,,,,,,,,,,,,,,,,,,,,,,,,,,,,,,,,,,,,,,,,,,,,,,,,,,,,,,,,,,,,,,,,,,,,,,,,,,,,,,,,,,,,,,,,,,,
,,"[""comma""]",0,[0.3879999999999768],113,0,113,0,1,5f2fda9d8f06be3d79b0371d,36,Mężczyzna,2022-05-28_09h09.10.855,task,2021.1.4,Win32,60.0240096,628b806c463b948bc644b84f,6291ca74569bb4fb3772a70e,,,,,,,,,,,,,,,,,,,,,,,,,,,,,,,,,,,,,,,,,,,,,,,,,,,,,,,,,,,,,,,,,,,,,,,,,,,,,,,,,,,,,,,,,,,,,,,,,,,,,,,
,,"[""comma""]",0,[0.5030000000000427],114,0,114,0,1,5f2fda9d8f06be3d79b0371d,36,Mężczyzna,2022-05-28_09h09.10.855,task,2021.1.4,Win32,60.0240096,628b806c463b948bc644b84f,6291ca74569bb4fb3772a70e,,,,,,,,,,,,,,,,,,,,,,,,,,,,,,,,,,,,,,,,,,,,,,,,,,,,,,,,,,,,,,,,,,,,,,,,,,,,,,,,,,,,,,,,,,,,,,,,,,,,,,,
,,"[""period""]",0,[0.3879999999999768],115,0,115,0,1,5f2fda9d8f06be3d79b0371d,36,Mężczyzna,2022-05-28_09h09.10.855,task,2021.1.4,Win32,60.0240096,628b806c463b948bc644b84f,6291ca74569bb4fb3772a70e,,,,,,,,,,,,,,,,,,,,,,,,,,,,,,,,,,,,,,,,,,,,,,,,,,,,,,,,,,,,,,,,,,,,,,,,,,,,,,,,,,,,,,,,,,,,,,,,,,,,,,,
,,"[""period""]",0,[0.48599999999999],116,0,116,0,1,5f2fda9d8f06be3d79b0371d,36,Mężczyzna,2022-05-28_09h09.10.855,task,2021.1.4,Win32,60.0240096,628b806c463b948bc644b84f,6291ca74569bb4fb3772a70e,,,,,,,,,,,,,,,,,,,,,,,,,,,,,,,,,,,,,,,,,,,,,,,,,,,,,,,,,,,,,,,,,,,,,,,,,,,,,,,,,,,,,,,,,,,,,,,,,,,,,,,
,,"[""comma""]",0,[0.4689999999999941],117,0,117,0,1,5f2fda9d8f06be3d79b0371d,36,Mężczyzna,2022-05-28_09h09.10.855,task,2021.1.4,Win32,60.0240096,628b806c463b948bc644b84f,6291ca74569bb4fb3772a70e,,,,,,,,,,,,,,,,,,,,,,,,,,,,,,,,,,,,,,,,,,,,,,,,,,,,,,,,,,,,,,,,,,,,,,,,,,,,,,,,,,,,,,,,,,,,,,,,,,,,,,,
,,,0,,118,0,118,0,1,5f2fda9d8f06be3d79b0371d,36,Mężczyzna,2022-05-28_09h09.10.855,task,2021.1.4,Win32,60.0240096,628b806c463b948bc644b84f,6291ca74569bb4fb3772a70e,,,,,,,,,,,,,,,,,,,,,,,,,,,,,,,,,,,,,,,,,,,,,,,,,,,,,,,,,,,,,,,,,,,,,,,,,,,,,,,,,,,,,,,,,,,,,,,,,,,,,,,
,,"[""comma""]",0,[0.44999999999998863],119,0,119,0,1,5f2fda9d8f06be3d79b0371d,36,Mężczyzna,2022-05-28_09h09.10.855,task,2021.1.4,Win32,60.0240096,628b806c463b948bc644b84f,6291ca74569bb4fb3772a70e,,,,,,,,,,,,,,,,,,,,,,,,,,,,,,,,,,,,,,,,,,,,,,,,,,,,,,,,,,,,,,,,,,,,,,,,,,,,,,,,,,,,,,,,,,,,,,,,,,,,,,,
,,,,,,,,,,5f2fda9d8f06be3d79b0371d,36,Mężczyzna,2022-05-28_09h09.10.855,task,2021.1.4,Win32,60.0240096,628b806c463b948bc644b84f,6291ca74569bb4fb3772a70e,space,25.115,space,90.412,0,0,0,0,1,"X V Q F H G B L J M P D K C T S W R N Z
",,,,,,,,,,,,,,,,,,,,,,,,,,,,,,,,,,,,,,,,,,,,,,,,,,,,,,,,,,,,,,,,,,,,,,,,,,,,,,,,,,,,,,,,,,,,,
,,,,,,,,,,5f2fda9d8f06be3d79b0371d,36,Mężczyzna,2022-05-28_09h09.10.855,task,2021.1.4,Win32,60.0240096,628b806c463b948bc644b84f,6291ca74569bb4fb3772a70e,,,,,1,0,1,0,1,"X V Q F H G B L J M P D K C T S W R N Z
",,,,,,,,,,,,,,,,,,,,,,,,,,,,,,,,,,,,,,,,,,,,,,,,,,,,,,,,,,,,,,,,,,,,,,,,,,,,,,,,,,,,,,,,,,,,,
,,,,,,,,,,5f2fda9d8f06be3d79b0371d,36,Mężczyzna,2022-05-28_09h09.10.855,task,2021.1.4,Win32,60.0240096,628b806c463b948bc644b84f,6291ca74569bb4fb3772a70e,,,,,,,,,,,zc,"[""z"",""c""]","[5.205000000000041,6.166000000000054,8.312000000000012]",1,ZC,0,0,0,0,1,,,,,,,,,,,,,,,,,,,,,,,,,,,,,,,,,,,,,,,,,,,,,,,,,,,,,,,,,,,,,,,,,,,,,,,,,,,,,,,,,,,
,,,,,,,,,,5f2fda9d8f06be3d79b0371d,36,Mężczyzna,2022-05-28_09h09.10.855,task,2021.1.4,Win32,60.0240096,628b806c463b948bc644b84f,6291ca74569bb4fb3772a70e,,,,,0,0,0,0,1,"X V Q F H G B L J M P D K C T S W R N Z
",,,,,,,,,,,,,,,,,,,,,,,,,,,,,,,,,,,,,,,,,,,,,,,,,,,,,,,,,,,,,,,,,,,,,,,,,,,,,,,,,,,,,,,,,,,,,
,,,,,,,,,,5f2fda9d8f06be3d79b0371d,36,Mężczyzna,2022-05-28_09h09.10.855,task,2021.1.4,Win32,60.0240096,628b806c463b948bc644b84f,6291ca74569bb4fb3772a70e,,,,,1,0,1,0,1,"X V Q F H G B L J M P D K C T S W R N Z
",,,,,,,,,,,,,,,,,,,,,,,,,,,,,,,,,,,,,,,,,,,,,,,,,,,,,,,,,,,,,,,,,,,,,,,,,,,,,,,,,,,,,,,,,,,,,
,,,,,,,,,,5f2fda9d8f06be3d79b0371d,36,Mężczyzna,2022-05-28_09h09.10.855,task,2021.1.4,Win32,60.0240096,628b806c463b948bc644b84f,6291ca74569bb4fb3772a70e,,,,,,,,,,,gb,"[""g"",""b""]","[2.848000000000013,3.7560000000000286,7.557999999999993]",1,GB,1,0,1,0,1,,,,,,,,,,,,,,,,,,,,,,,,,,,,,,,,,,,,,,,,,,,,,,,,,,,,,,,,,,,,,,,,,,,,,,,,,,,,,,,,,,,
,,,,,,,,,,5f2fda9d8f06be3d79b0371d,36,Mężczyzna,2022-05-28_09h09.10.855,task,2021.1.4,Win32,60.0240096,628b806c463b948bc644b84f,6291ca74569bb4fb3772a70e,,,,,0,0,0,0,1,"X V Q F H G B L J M P D K C T S W R N Z
",,,,,,,,,,,,,,,,,,,,,,,,,,,,,,,,,,,,,,,,,,,,,,,,,,,,,,,,,,,,,,,,,,,,,,,,,,,,,,,,,,,,,,,,,,,,,
,,,,,,,,,,5f2fda9d8f06be3d79b0371d,36,Mężczyzna,2022-05-28_09h09.10.855,task,2021.1.4,Win32,60.0240096,628b806c463b948bc644b84f,6291ca74569bb4fb3772a70e,,,,,1,0,1,0,1,"X V Q F H G B L J M P D K C T S W R N Z
",,,,,,,,,,,,,,,,,,,,,,,,,,,,,,,,,,,,,,,,,,,,,,,,,,,,,,,,,,,,,,,,,,,,,,,,,,,,,,,,,,,,,,,,,,,,,
,,,,,,,,,,5f2fda9d8f06be3d79b0371d,36,Mężczyzna,2022-05-28_09h09.10.855,task,2021.1.4,Win32,60.0240096,628b806c463b948bc644b84f,6291ca74569bb4fb3772a70e,,,,,2,0,2,0,1,"X V Q F H G B L J M P D K C T S W R N Z
",,,,,,,,,,,,,,,,,,,,,,,,,,,,,,,,,,,,,,,,,,,,,,,,,,,,,,,,,,,,,,,,,,,,,,,,,,,,,,,,,,,,,,,,,,,,,
,,,,,,,,,,5f2fda9d8f06be3d79b0371d,36,Mężczyzna,2022-05-28_09h09.10.855,task,2021.1.4,Win32,60.0240096,628b806c463b948bc644b84f,6291ca74569bb4fb3772a70e,,,,,,,,,,,jfw,"[""j"",""f"",""w""]","[2.1090000000000373,4.009999999999991,6.560000000000059,9.369000000000028]",1,JFW,2,0,2,0,1,,,,,,,,,,,,,,,,,,,,,,,,,,,,,,,,,,,,,,,,,,,,,,,,,,,,,,,,,,,,,,,,,,,,,,,,,,,,,,,,,,,
,,,,,,,,,,5f2fda9d8f06be3d79b0371d,36,Mężczyzna,2022-05-28_09h09.10.855,task,2021.1.4,Win32,60.0240096,628b806c463b948bc644b84f,6291ca74569bb4fb3772a70e,,,,,0,0,0,0,1,"X V Q F H G B L J M P D K C T S W R N Z
",,,,,,,,,,,,,,,,,,,,,,,,,,,,,,,,,,,,,,,,,,,,,,,,,,,,,,,,,,,,,,,,,,,,,,,,,,,,,,,,,,,,,,,,,,,,,
,,,,,,,,,,5f2fda9d8f06be3d79b0371d,36,Mężczyzna,2022-05-28_09h09.10.855,task,2021.1.4,Win32,60.0240096,628b806c463b948bc644b84f,6291ca74569bb4fb3772a70e,,,,,1,0,1,0,1,"X V Q F H G B L J M P D K C T S W R N Z
",,,,,,,,,,,,,,,,,,,,,,,,,,,,,,,,,,,,,,,,,,,,,,,,,,,,,,,,,,,,,,,,,,,,,,,,,,,,,,,,,,,,,,,,,,,,,
,,,,,,,,,,5f2fda9d8f06be3d79b0371d,36,Mężczyzna,2022-05-28_09h09.10.855,task,2021.1.4,Win32,60.0240096,628b806c463b948bc644b84f,6291ca74569bb4fb3772a70e,,,,,2,0,2,0,1,"X V Q F H G B L J M P D K C T S W R N Z
",,,,,,,,,,,,,,,,,,,,,,,,,,,,,,,,,,,,,,,,,,,,,,,,,,,,,,,,,,,,,,,,,,,,,,,,,,,,,,,,,,,,,,,,,,,,,
,,,,,,,,,,5f2fda9d8f06be3d79b0371d,36,Mężczyzna,2022-05-28_09h09.10.855,task,2021.1.4,Win32,60.0240096,628b806c463b948bc644b84f,6291ca74569bb4fb3772a70e,,,,,,,,,,,gtc,"[""g"",""t"",""c""]","[1.5510000000000446,2.81899999999996,3.933999999999969,5.274000000000001]",1,GTC,3,0,3,0,1,,,,,,,,,,,,,,,,,,,,,,,,,,,,,,,,,,,,,,,,,,,,,,,,,,,,,,,,,,,,,,,,,,,,,,,,,,,,,,,,,,,
,,,,,,,,,,5f2fda9d8f06be3d79b0371d,36,Mężczyzna,2022-05-28_09h09.10.855,task,2021.1.4,Win32,60.0240096,628b806c463b948bc644b84f,6291ca74569bb4fb3772a70e,,,,,0,0,0,0,1,"X V Q F H G B L J M P D K C T S W R N Z
",,,,,,,,,,,,,,,,,,,,,,,,,,,,,,,,,,,,,,,,,,,,,,,,,,,,,,,,,,,,,,,,,,,,,,,,,,,,,,,,,,,,,,,,,,,,,
,,,,,,,,,,5f2fda9d8f06be3d79b0371d,36,Mężczyzna,2022-05-28_09h09.10.855,task,2021.1.4,Win32,60.0240096,628b806c463b948bc644b84f,6291ca74569bb4fb3772a70e,,,,,1,0,1,0,1,"X V Q F H G B L J M P D K C T S W R N Z
",,,,,,,,,,,,,,,,,,,,,,,,,,,,,,,,,,,,,,,,,,,,,,,,,,,,,,,,,,,,,,,,,,,,,,,,,,,,,,,,,,,,,,,,,,,,,
,,,,,,,,,,5f2fda9d8f06be3d79b0371d,36,Mężczyzna,2022-05-28_09h09.10.855,task,2021.1.4,Win32,60.0240096,628b806c463b948bc644b84f,6291ca74569bb4fb3772a70e,,,,,2,0,2,0,1,"X V Q F H G B L J M P D K C T S W R N Z
",,,,,,,,,,,,,,,,,,,,,,,,,,,,,,,,,,,,,,,,,,,,,,,,,,,,,,,,,,,,,,,,,,,,,,,,,,,,,,,,,,,,,,,,,,,,,
,,,,,,,,,,5f2fda9d8f06be3d79b0371d,36,Mężczyzna,2022-05-28_09h09.10.855,task,2021.1.4,Win32,60.0240096,628b806c463b948bc644b84f,6291ca74569bb4fb3772a70e,,,,,3,0,3,0,1,"X V Q F H G B L J M P D K C T S W R N Z
",,,,,,,,,,,,,,,,,,,,,,,,,,,,,,,,,,,,,,,,,,,,,,,,,,,,,,,,,,,,,,,,,,,,,,,,,,,,,,,,,,,,,,,,,,,,,
,,,,,,,,,,5f2fda9d8f06be3d79b0371d,36,Mężczyzna,2022-05-28_09h09.10.855,task,2021.1.4,Win32,60.0240096,628b806c463b948bc644b84f,6291ca74569bb4fb3772a70e,,,,,,,,,,,hpwf,"[""h"",""p"",""w"",""f""]","[1.620999999999981,2.6159999999999854,4.312999999999988,6.509999999999991,7.741999999999962]",1,HPWF,4,0,4,0,1,,,,,,,,,,,,,,,,,,,,,,,,,,,,,,,,,,,,,,,,,,,,,,,,,,,,,,,,,,,,,,,,,,,,,,,,,,,,,,,,,,,
,,,,,,,,,,5f2fda9d8f06be3d79b0371d,36,Mężczyzna,2022-05-28_09h09.10.855,task,2021.1.4,Win32,60.0240096,628b806c463b948bc644b84f,6291ca74569bb4fb3772a70e,,,,,0,0,0,0,1,"X V Q F H G B L J M P D K C T S W R N Z
",,,,,,,,,,,,,,,,,,,,,,,,,,,,,,,,,,,,,,,,,,,,,,,,,,,,,,,,,,,,,,,,,,,,,,,,,,,,,,,,,,,,,,,,,,,,,
,,,,,,,,,,5f2fda9d8f06be3d79b0371d,36,Mężczyzna,2022-05-28_09h09.10.855,task,2021.1.4,Win32,60.0240096,628b806c463b948bc644b84f,6291ca74569bb4fb3772a70e,,,,,1,0,1,0,1,"X V Q F H G B L J M P D K C T S W R N Z
",,,,,,,,,,,,,,,,,,,,,,,,,,,,,,,,,,,,,,,,,,,,,,,,,,,,,,,,,,,,,,,,,,,,,,,,,,,,,,,,,,,,,,,,,,,,,
,,,,,,,,,,5f2fda9d8f06be3d79b0371d,36,Mężczyzna,2022-05-28_09h09.10.855,task,2021.1.4,Win32,60.0240096,628b806c463b948bc644b84f,6291ca74569bb4fb3772a70e,,,,,2,0,2,0,1,"X V Q F H G B L J M P D K C T S W R N Z
",,,,,,,,,,,,,,,,,,,,,,,,,,,,,,,,,,,,,,,,,,,,,,,,,,,,,,,,,,,,,,,,,,,,,,,,,,,,,,,,,,,,,,,,,,,,,
,,,,,,,,,,5f2fda9d8f06be3d79b0371d,36,Mężczyzna,2022-05-28_09h09.10.855,task,2021.1.4,Win32,60.0240096,628b806c463b948bc644b84f,6291ca74569bb4fb3772a70e,,,,,3,0,3,0,1,"X V Q F H G B L J M P D K C T S W R N Z
",,,,,,,,,,,,,,,,,,,,,,,,,,,,,,,,,,,,,,,,,,,,,,,,,,,,,,,,,,,,,,,,,,,,,,,,,,,,,,,,,,,,,,,,,,,,,
,,,,,,,,,,5f2fda9d8f06be3d79b0371d,36,Mężczyzna,2022-05-28_09h09.10.855,task,2021.1.4,Win32,60.0240096,628b806c463b948bc644b84f,6291ca74569bb4fb3772a70e,,,,,,,,,,,gjcp,"[""g"",""j"",""c"",""p""]","[1.6299999999999955,2.7919999999999163,4.044999999999959,4.942000000000007,6.125999999999976]",1,GJCP,5,0,5,0,1,,,,,,,,,,,,,,,,,,,,,,,,,,,,,,,,,,,,,,,,,,,,,,,,,,,,,,,,,,,,,,,,,,,,,,,,,,,,,,,,,,,
,,,,,,,,,,5f2fda9d8f06be3d79b0371d,36,Mężczyzna,2022-05-28_09h09.10.855,task,2021.1.4,Win32,60.0240096,628b806c463b948bc644b84f,6291ca74569bb4fb3772a70e,,,,,0,0,0,0,1,"X V Q F H G B L J M P D K C T S W R N Z
",,,,,,,,,,,,,,,,,,,,,,,,,,,,,,,,,,,,,,,,,,,,,,,,,,,,,,,,,,,,,,,,,,,,,,,,,,,,,,,,,,,,,,,,,,,,,
,,,,,,,,,,5f2fda9d8f06be3d79b0371d,36,Mężczyzna,2022-05-28_09h09.10.855,task,2021.1.4,Win32,60.0240096,628b806c463b948bc644b84f,6291ca74569bb4fb3772a70e,,,,,1,0,1,0,1,"X V Q F H G B L J M P D K C T S W R N Z
",,,,,,,,,,,,,,,,,,,,,,,,,,,,,,,,,,,,,,,,,,,,,,,,,,,,,,,,,,,,,,,,,,,,,,,,,,,,,,,,,,,,,,,,,,,,,
,,,,,,,,,,5f2fda9d8f06be3d79b0371d,36,Mężczyzna,2022-05-28_09h09.10.855,task,2021.1.4,Win32,60.0240096,628b806c463b948bc644b84f,6291ca74569bb4fb3772a70e,,,,,2,0,2,0,1,"X V Q F H G B L J M P D K C T S W R N Z
",,,,,,,,,,,,,,,,,,,,,,,,,,,,,,,,,,,,,,,,,,,,,,,,,,,,,,,,,,,,,,,,,,,,,,,,,,,,,,,,,,,,,,,,,,,,,
,,,,,,,,,,5f2fda9d8f06be3d79b0371d,36,Mężczyzna,2022-05-28_09h09.10.855,task,2021.1.4,Win32,60.0240096,628b806c463b948bc644b84f,6291ca74569bb4fb3772a70e,,,,,3,0,3,0,1,"X V Q F H G B L J M P D K C T S W R N Z
",,,,,,,,,,,,,,,,,,,,,,,,,,,,,,,,,,,,,,,,,,,,,,,,,,,,,,,,,,,,,,,,,,,,,,,,,,,,,,,,,,,,,,,,,,,,,
,,,,,,,,,,5f2fda9d8f06be3d79b0371d,36,Mężczyzna,2022-05-28_09h09.10.855,task,2021.1.4,Win32,60.0240096,628b806c463b948bc644b84f,6291ca74569bb4fb3772a70e,,,,,4,0,4,0,1,"X V Q F H G B L J M P D K C T S W R N Z
",,,,,,,,,,,,,,,,,,,,,,,,,,,,,,,,,,,,,,,,,,,,,,,,,,,,,,,,,,,,,,,,,,,,,,,,,,,,,,,,,,,,,,,,,,,,,
,,,,,,,,,,5f2fda9d8f06be3d79b0371d,36,Mężczyzna,2022-05-28_09h09.10.855,task,2021.1.4,Win32,60.0240096,628b806c463b948bc644b84f,6291ca74569bb4fb3772a70e,,,,,,,,,,,hrhzj,"[""h"",""r"",""h"",""z"",""j""]","[1.66599999999994,4.064999999999941,5.899000000000001,6.948999999999955,8.098999999999933,9.070999999999913]",0,"HRHZ
J",6,0,6,0,1,,,,,,,,,,,,,,,,,,,,,,,,,,,,,,,,,,,,,,,,,,,,,,,,,,,,,,,,,,,,,,,,,,,,,,,,,,,,,,,,,,,
,,,,,,,,,,5f2fda9d8f06be3d79b0371d,36,Mężczyzna,2022-05-28_09h09.10.855,task,2021.1.4,Win32,60.0240096,628b806c463b948bc644b84f,6291ca74569bb4fb3772a70e,,,,,0,0,0,0,1,"X V Q F H G B L J M P D K C T S W R N Z
",,,,,,,,,,,,,,,,,,,,,,,,,,,,,,,,,,,,,,,,,,,,,,,,,,,,,,,,,,,,,,,,,,,,,,,,,,,,,,,,,,,,,,,,,,,,,
,,,,,,,,,,5f2fda9d8f06be3d79b0371d,36,Mężczyzna,2022-05-28_09h09.10.855,task,2021.1.4,Win32,60.0240096,628b806c463b948bc644b84f,6291ca74569bb4fb3772a70e,,,,,1,0,1,0,1,"X V Q F H G B L J M P D K C T S W R N Z
",,,,,,,,,,,,,,,,,,,,,,,,,,,,,,,,,,,,,,,,,,,,,,,,,,,,,,,,,,,,,,,,,,,,,,,,,,,,,,,,,,,,,,,,,,,,,
,,,,,,,,,,5f2fda9d8f06be3d79b0371d,36,Mężczyzna,2022-05-28_09h09.10.855,task,2021.1.4,Win32,60.0240096,628b806c463b948bc644b84f,6291ca74569bb4fb3772a70e,,,,,2,0,2,0,1,"X V Q F H G B L J M P D K C T S W R N Z
",,,,,,,,,,,,,,,,,,,,,,,,,,,,,,,,,,,,,,,,,,,,,,,,,,,,,,,,,,,,,,,,,,,,,,,,,,,,,,,,,,,,,,,,,,,,,
,,,,,,,,,,5f2fda9d8f06be3d79b0371d,36,Mężczyzna,2022-05-28_09h09.10.855,task,2021.1.4,Win32,60.0240096,628b806c463b948bc644b84f,6291ca74569bb4fb3772a70e,,,,,3,0,3,0,1,"X V Q F H G B L J M P D K C T S W R N Z
",,,,,,,,,,,,,,,,,,,,,,,,,,,,,,,,,,,,,,,,,,,,,,,,,,,,,,,,,,,,,,,,,,,,,,,,,,,,,,,,,,,,,,,,,,,,,
,,,,,,,,,,5f2fda9d8f06be3d79b0371d,36,Mężczyzna,2022-05-28_09h09.10.855,task,2021.1.4,Win32,60.0240096,628b806c463b948bc644b84f,6291ca74569bb4fb3772a70e,,,,,4,0,4,0,1,"X V Q F H G B L J M P D K C T S W R N Z
",,,,,,,,,,,,,,,,,,,,,,,,,,,,,,,,,,,,,,,,,,,,,,,,,,,,,,,,,,,,,,,,,,,,,,,,,,,,,,,,,,,,,,,,,,,,,
,,,,,,,,,,5f2fda9d8f06be3d79b0371d,36,Mężczyzna,2022-05-28_09h09.10.855,task,2021.1.4,Win32,60.0240096,628b806c463b948bc644b84f,6291ca74569bb4fb3772a70e,,,,,,,,,,,lkxrx,"[""l"",""k"",""x"",""r"",""x""]","[41.08699999999999,42.33600000000001,44.54900000000009,46.07300000000009,49.71600000000001,50.60000000000002]",1,LKXRX,7,0,7,0,1,,,,,,,,,,,,,,,,,,,,,,,,,,,,,,,,,,,,,,,,,,,,,,,,,,,,,,,,,,,,,,,,,,,,,,,,,,,,,,,,,,,
,,,,,,,,,,5f2fda9d8f06be3d79b0371d,36,Mężczyzna,2022-05-28_09h09.10.855,task,2021.1.4,Win32,60.0240096,628b806c463b948bc644b84f,6291ca74569bb4fb3772a70e,,,,,0,0,0,0,1,"X V Q F H G B L J M P D K C T S W R N Z
",,,,,,,,,,,,,,,,,,,,,,,,,,,,,,,,,,,,,,,,,,,,,,,,,,,,,,,,,,,,,,,,,,,,,,,,,,,,,,,,,,,,,,,,,,,,,
,,,,,,,,,,5f2fda9d8f06be3d79b0371d,36,Mężczyzna,2022-05-28_09h09.10.855,task,2021.1.4,Win32,60.0240096,628b806c463b948bc644b84f,6291ca74569bb4fb3772a70e,,,,,1,0,1,0,1,"X V Q F H G B L J M P D K C T S W R N Z
",,,,,,,,,,,,,,,,,,,,,,,,,,,,,,,,,,,,,,,,,,,,,,,,,,,,,,,,,,,,,,,,,,,,,,,,,,,,,,,,,,,,,,,,,,,,,
,,,,,,,,,,5f2fda9d8f06be3d79b0371d,36,Mężczyzna,2022-05-28_09h09.10.855,task,2021.1.4,Win32,60.0240096,628b806c463b948bc644b84f,6291ca74569bb4fb3772a70e,,,,,2,0,2,0,1,"X V Q F H G B L J M P D K C T S W R N Z
",,,,,,,,,,,,,,,,,,,,,,,,,,,,,,,,,,,,,,,,,,,,,,,,,,,,,,,,,,,,,,,,,,,,,,,,,,,,,,,,,,,,,,,,,,,,,
,,,,,,,,,,5f2fda9d8f06be3d79b0371d,36,Mężczyzna,2022-05-28_09h09.10.855,task,2021.1.4,Win32,60.0240096,628b806c463b948bc644b84f,6291ca74569bb4fb3772a70e,,,,,3,0,3,0,1,"X V Q F H G B L J M P D K C T S W R N Z
",,,,,,,,,,,,,,,,,,,,,,,,,,,,,,,,,,,,,,,,,,,,,,,,,,,,,,,,,,,,,,,,,,,,,,,,,,,,,,,,,,,,,,,,,,,,,
,,,,,,,,,,5f2fda9d8f06be3d79b0371d,36,Mężczyzna,2022-05-28_09h09.10.855,task,2021.1.4,Win32,60.0240096,628b806c463b948bc644b84f,6291ca74569bb4fb3772a70e,,,,,4,0,4,0,1,"X V Q F H G B L J M P D K C T S W R N Z
",,,,,,,,,,,,,,,,,,,,,,,,,,,,,,,,,,,,,,,,,,,,,,,,,,,,,,,,,,,,,,,,,,,,,,,,,,,,,,,,,,,,,,,,,,,,,
,,,,,,,,,,5f2fda9d8f06be3d79b0371d,36,Mężczyzna,2022-05-28_09h09.10.855,task,2021.1.4,Win32,60.0240096,628b806c463b948bc644b84f,6291ca74569bb4fb3772a70e,,,,,,,,,,,tjzxm,"[""t"",""j"",""z"",""x"",""m""]","[4.2309999999999945,4.76400000000001,6.815000000000055,7.812999999999988,8.513000000000034,11.86200000000008]",0,"TJZ
XM",8,0,8,0,1,,,,,,,,,,,,,,,,,,,,,,,,,,,,,,,,,,,,,,,,,,,,,,,,,,,,,,,,,,,,,,,,,,,,,,,,,,,,,,,,,,,
,,,,,,,,,,5f2fda9d8f06be3d79b0371d,36,Mężczyzna,2022-05-28_09h09.10.855,task,2021.1.4,Win32,60.0240096,628b806c463b948bc644b84f,6291ca74569bb4fb3772a70e,,,,,0,0,0,0,1,"X V Q F H G B L J M P D K C T S W R N Z
",,,,,,,,,,,,,,,,,,,,,,,,,,,,,,,,,,,,,,,,,,,,,,,,,,,,,,,,,,,,,,,,,,,,,,,,,,,,,,,,,,,,,,,,,,,,,
,,,,,,,,,,5f2fda9d8f06be3d79b0371d,36,Mężczyzna,2022-05-28_09h09.10.855,task,2021.1.4,Win32,60.0240096,628b806c463b948bc644b84f,6291ca74569bb4fb3772a70e,,,,,1,0,1,0,1,"X V Q F H G B L J M P D K C T S W R N Z
",,,,,,,,,,,,,,,,,,,,,,,,,,,,,,,,,,,,,,,,,,,,,,,,,,,,,,,,,,,,,,,,,,,,,,,,,,,,,,,,,,,,,,,,,,,,,
,,,,,,,,,,5f2fda9d8f06be3d79b0371d,36,Mężczyzna,2022-05-28_09h09.10.855,task,2021.1.4,Win32,60.0240096,628b806c463b948bc644b84f,6291ca74569bb4fb3772a70e,,,,,2,0,2,0,1,"X V Q F H G B L J M P D K C T S W R N Z
",,,,,,,,,,,,,,,,,,,,,,,,,,,,,,,,,,,,,,,,,,,,,,,,,,,,,,,,,,,,,,,,,,,,,,,,,,,,,,,,,,,,,,,,,,,,,
,,,,,,,,,,5f2fda9d8f06be3d79b0371d,36,Mężczyzna,2022-05-28_09h09.10.855,task,2021.1.4,Win32,60.0240096,628b806c463b948bc644b84f,6291ca74569bb4fb3772a70e,,,,,3,0,3,0,1,"X V Q F H G B L J M P D K C T S W R N Z
",,,,,,,,,,,,,,,,,,,,,,,,,,,,,,,,,,,,,,,,,,,,,,,,,,,,,,,,,,,,,,,,,,,,,,,,,,,,,,,,,,,,,,,,,,,,,
,,,,,,,,,,5f2fda9d8f06be3d79b0371d,36,Mężczyzna,2022-05-28_09h09.10.855,task,2021.1.4,Win32,60.0240096,628b806c463b948bc644b84f,6291ca74569bb4fb3772a70e,,,,,4,0,4,0,1,"X V Q F H G B L J M P D K C T S W R N Z
",,,,,,,,,,,,,,,,,,,,,,,,,,,,,,,,,,,,,,,,,,,,,,,,,,,,,,,,,,,,,,,,,,,,,,,,,,,,,,,,,,,,,,,,,,,,,
,,,,,,,,,,5f2fda9d8f06be3d79b0371d,36,Mężczyzna,2022-05-28_09h09.10.855,task,2021.1.4,Win32,60.0240096,628b806c463b948bc644b84f,6291ca74569bb4fb3772a70e,,,,,,,,,,,bbsmx,"[""b"",""b"",""s"",""m"",""x""]","[2.5359999999999445,2.9329999999999927,3.7649999999999864,4.34699999999998,5.3139999999999645,6.572000000000003]",1,BBSMX,9,0,9,0,1,,,,,,,,,,,,,,,,,,,,,,,,,,,,,,,,,,,,,,,,,,,,,,,,,,,,,,,,,,,,,,,,,,,,,,,,,,,,,,,,,,,
,,,,,,,,,,5f2fda9d8f06be3d79b0371d,36,Mężczyzna,2022-05-28_09h09.10.855,task,2021.1.4,Win32,60.0240096,628b806c463b948bc644b84f,6291ca74569bb4fb3772a70e,,,,,0,0,0,0,1,"X V Q F H G B L J M P D K C T S W R N Z
",,,,,,,,,,,,,,,,,,,,,,,,,,,,,,,,,,,,,,,,,,,,,,,,,,,,,,,,,,,,,,,,,,,,,,,,,,,,,,,,,,,,,,,,,,,,,
,,,,,,,,,,5f2fda9d8f06be3d79b0371d,36,Mężczyzna,2022-05-28_09h09.10.855,task,2021.1.4,Win32,60.0240096,628b806c463b948bc644b84f,6291ca74569bb4fb3772a70e,,,,,1,0,1,0,1,"X V Q F H G B L J M P D K C T S W R N Z
",,,,,,,,,,,,,,,,,,,,,,,,,,,,,,,,,,,,,,,,,,,,,,,,,,,,,,,,,,,,,,,,,,,,,,,,,,,,,,,,,,,,,,,,,,,,,
,,,,,,,,,,5f2fda9d8f06be3d79b0371d,36,Mężczyzna,2022-05-28_09h09.10.855,task,2021.1.4,Win32,60.0240096,628b806c463b948bc644b84f,6291ca74569bb4fb3772a70e,,,,,2,0,2,0,1,"X V Q F H G B L J M P D K C T S W R N Z
",,,,,,,,,,,,,,,,,,,,,,,,,,,,,,,,,,,,,,,,,,,,,,,,,,,,,,,,,,,,,,,,,,,,,,,,,,,,,,,,,,,,,,,,,,,,,
,,,,,,,,,,5f2fda9d8f06be3d79b0371d,36,Mężczyzna,2022-05-28_09h09.10.855,task,2021.1.4,Win32,60.0240096,628b806c463b948bc644b84f,6291ca74569bb4fb3772a70e,,,,,3,0,3,0,1,"X V Q F H G B L J M P D K C T S W R N Z
",,,,,,,,,,,,,,,,,,,,,,,,,,,,,,,,,,,,,,,,,,,,,,,,,,,,,,,,,,,,,,,,,,,,,,,,,,,,,,,,,,,,,,,,,,,,,
,,,,,,,,,,5f2fda9d8f06be3d79b0371d,36,Mężczyzna,2022-05-28_09h09.10.855,task,2021.1.4,Win32,60.0240096,628b806c463b948bc644b84f,6291ca74569bb4fb3772a70e,,,,,4,0,4,0,1,"X V Q F H G B L J M P D K C T S W R N Z
",,,,,,,,,,,,,,,,,,,,,,,,,,,,,,,,,,,,,,,,,,,,,,,,,,,,,,,,,,,,,,,,,,,,,,,,,,,,,,,,,,,,,,,,,,,,,
,,,,,,,,,,5f2fda9d8f06be3d79b0371d,36,Mężczyzna,2022-05-28_09h09.10.855,task,2021.1.4,Win32,60.0240096,628b806c463b948bc644b84f,6291ca74569bb4fb3772a70e,,,,,5,0,5,0,1,"X V Q F H G B L J M P D K C T S W R N Z
",,,,,,,,,,,,,,,,,,,,,,,,,,,,,,,,,,,,,,,,,,,,,,,,,,,,,,,,,,,,,,,,,,,,,,,,,,,,,,,,,,,,,,,,,,,,,
,,,,,,,,,,5f2fda9d8f06be3d79b0371d,36,Mężczyzna,2022-05-28_09h09.10.855,task,2021.1.4,Win32,60.0240096,628b806c463b948bc644b84f,6291ca74569bb4fb3772a70e,,,,,,,,,,,tnhslw,"[""t"",""n"",""h"",""s"",""l"",""w""]","[2.524000000000001,3.844000000000051,5.439000000000078,6.989000000000033,7.5890000000000555,9.024999999999977,9.841000000000008]",1,TNHSLW,10,0,10,0,1,,,,,,,,,,,,,,,,,,,,,,,,,,,,,,,,,,,,,,,,,,,,,,,,,,,,,,,,,,,,,,,,,,,,,,,,,,,,,,,,,,,
,,,,,,,,,,5f2fda9d8f06be3d79b0371d,36,Mężczyzna,2022-05-28_09h09.10.855,task,2021.1.4,Win32,60.0240096,628b806c463b948bc644b84f,6291ca74569bb4fb3772a70e,,,,,0,0,0,0,1,"X V Q F H G B L J M P D K C T S W R N Z
",,,,,,,,,,,,,,,,,,,,,,,,,,,,,,,,,,,,,,,,,,,,,,,,,,,,,,,,,,,,,,,,,,,,,,,,,,,,,,,,,,,,,,,,,,,,,
,,,,,,,,,,5f2fda9d8f06be3d79b0371d,36,Mężczyzna,2022-05-28_09h09.10.855,task,2021.1.4,Win32,60.0240096,628b806c463b948bc644b84f,6291ca74569bb4fb3772a70e,,,,,1,0,1,0,1,"X V Q F H G B L J M P D K C T S W R N Z
",,,,,,,,,,,,,,,,,,,,,,,,,,,,,,,,,,,,,,,,,,,,,,,,,,,,,,,,,,,,,,,,,,,,,,,,,,,,,,,,,,,,,,,,,,,,,
,,,,,,,,,,5f2fda9d8f06be3d79b0371d,36,Mężczyzna,2022-05-28_09h09.10.855,task,2021.1.4,Win32,60.0240096,628b806c463b948bc644b84f,6291ca74569bb4fb3772a70e,,,,,2,0,2,0,1,"X V Q F H G B L J M P D K C T S W R N Z
",,,,,,,,,,,,,,,,,,,,,,,,,,,,,,,,,,,,,,,,,,,,,,,,,,,,,,,,,,,,,,,,,,,,,,,,,,,,,,,,,,,,,,,,,,,,,
,,,,,,,,,,5f2fda9d8f06be3d79b0371d,36,Mężczyzna,2022-05-28_09h09.10.855,task,2021.1.4,Win32,60.0240096,628b806c463b948bc644b84f,6291ca74569bb4fb3772a70e,,,,,3,0,3,0,1,"X V Q F H G B L J M P D K C T S W R N Z
",,,,,,,,,,,,,,,,,,,,,,,,,,,,,,,,,,,,,,,,,,,,,,,,,,,,,,,,,,,,,,,,,,,,,,,,,,,,,,,,,,,,,,,,,,,,,
,,,,,,,,,,5f2fda9d8f06be3d79b0371d,36,Mężczyzna,2022-05-28_09h09.10.855,task,2021.1.4,Win32,60.0240096,628b806c463b948bc644b84f,6291ca74569bb4fb3772a70e,,,,,4,0,4,0,1,"X V Q F H G B L J M P D K C T S W R N Z
",,,,,,,,,,,,,,,,,,,,,,,,,,,,,,,,,,,,,,,,,,,,,,,,,,,,,,,,,,,,,,,,,,,,,,,,,,,,,,,,,,,,,,,,,,,,,
,,,,,,,,,,5f2fda9d8f06be3d79b0371d,36,Mężczyzna,2022-05-28_09h09.10.855,task,2021.1.4,Win32,60.0240096,628b806c463b948bc644b84f,6291ca74569bb4fb3772a70e,,,,,5,0,5,0,1,"X V Q F H G B L J M P D K C T S W R N Z
",,,,,,,,,,,,,,,,,,,,,,,,,,,,,,,,,,,,,,,,,,,,,,,,,,,,,,,,,,,,,,,,,,,,,,,,,,,,,,,,,,,,,,,,,,,,,
,,,,,,,,,,5f2fda9d8f06be3d79b0371d,36,Mężczyzna,2022-05-28_09h09.10.855,task,2021.1.4,Win32,60.0240096,628b806c463b948bc644b84f,6291ca74569bb4fb3772a70e,,,,,,,,,,,sprkzf,"[""s"",""p"",""r"",""k"",""z"",""f""]","[2.7789999999999964,3.8980000000000246,4.697999999999979,6.130999999999972,6.84699999999998,7.846000000000004,8.995999999999981]",0,"SPRKZ
F",11,0,11,0,1,,,,,,,,,,,,,,,,,,,,,,,,,,,,,,,,,,,,,,,,,,,,,,,,,,,,,,,,,,,,,,,,,,,,,,,,,,,,,,,,,,,
,,,,,,,,,,5f2fda9d8f06be3d79b0371d,36,Mężczyzna,2022-05-28_09h09.10.855,task,2021.1.4,Win32,60.0240096,628b806c463b948bc644b84f,6291ca74569bb4fb3772a70e,,,,,0,0,0,0,1,"X V Q F H G B L J M P D K C T S W R N Z
",,,,,,,,,,,,,,,,,,,,,,,,,,,,,,,,,,,,,,,,,,,,,,,,,,,,,,,,,,,,,,,,,,,,,,,,,,,,,,,,,,,,,,,,,,,,,
,,,,,,,,,,5f2fda9d8f06be3d79b0371d,36,Mężczyzna,2022-05-28_09h09.10.855,task,2021.1.4,Win32,60.0240096,628b806c463b948bc644b84f,6291ca74569bb4fb3772a70e,,,,,1,0,1,0,1,"X V Q F H G B L J M P D K C T S W R N Z
",,,,,,,,,,,,,,,,,,,,,,,,,,,,,,,,,,,,,,,,,,,,,,,,,,,,,,,,,,,,,,,,,,,,,,,,,,,,,,,,,,,,,,,,,,,,,
,,,,,,,,,,5f2fda9d8f06be3d79b0371d,36,Mężczyzna,2022-05-28_09h09.10.855,task,2021.1.4,Win32,60.0240096,628b806c463b948bc644b84f,6291ca74569bb4fb3772a70e,,,,,2,0,2,0,1,"X V Q F H G B L J M P D K C T S W R N Z
",,,,,,,,,,,,,,,,,,,,,,,,,,,,,,,,,,,,,,,,,,,,,,,,,,,,,,,,,,,,,,,,,,,,,,,,,,,,,,,,,,,,,,,,,,,,,
,,,,,,,,,,5f2fda9d8f06be3d79b0371d,36,Mężczyzna,2022-05-28_09h09.10.855,task,2021.1.4,Win32,60.0240096,628b806c463b948bc644b84f,6291ca74569bb4fb3772a70e,,,,,3,0,3,0,1,"X V Q F H G B L J M P D K C T S W R N Z
",,,,,,,,,,,,,,,,,,,,,,,,,,,,,,,,,,,,,,,,,,,,,,,,,,,,,,,,,,,,,,,,,,,,,,,,,,,,,,,,,,,,,,,,,,,,,
,,,,,,,,,,5f2fda9d8f06be3d79b0371d,36,Mężczyzna,2022-05-28_09h09.10.855,task,2021.1.4,Win32,60.0240096,628b806c463b948bc644b84f,6291ca74569bb4fb3772a70e,,,,,4,0,4,0,1,"X V Q F H G B L J M P D K C T S W R N Z
",,,,,,,,,,,,,,,,,,,,,,,,,,,,,,,,,,,,,,,,,,,,,,,,,,,,,,,,,,,,,,,,,,,,,,,,,,,,,,,,,,,,,,,,,,,,,
,,,,,,,,,,5f2fda9d8f06be3d79b0371d,36,Mężczyzna,2022-05-28_09h09.10.855,task,2021.1.4,Win32,60.0240096,628b806c463b948bc644b84f,6291ca74569bb4fb3772a70e,,,,,5,0,5,0,1,"X V Q F H G B L J M P D K C T S W R N Z
",,,,,,,,,,,,,,,,,,,,,,,,,,,,,,,,,,,,,,,,,,,,,,,,,,,,,,,,,,,,,,,,,,,,,,,,,,,,,,,,,,,,,,,,,,,,,
,,,,,,,,,,5f2fda9d8f06be3d79b0371d,36,Mężczyzna,2022-05-28_09h09.10.855,task,2021.1.4,Win32,60.0240096,628b806c463b948bc644b84f,6291ca74569bb4fb3772a70e,,,,,,,,,,,hvdwjw,"[""h"",""v"",""d"",""w"",""j"",""w""]","[3.663000000000011,4.928999999999974,6.995999999999981,8.108999999999924,8.752999999999929,10.59699999999998,12.009999999999991]",1,HVDWJW,12,0,12,0,1,,,,,,,,,,,,,,,,,,,,,,,,,,,,,,,,,,,,,,,,,,,,,,,,,,,,,,,,,,,,,,,,,,,,,,,,,,,,,,,,,,,
,,,,,,,,,,5f2fda9d8f06be3d79b0371d,36,Mężczyzna,2022-05-28_09h09.10.855,task,2021.1.4,Win32,60.0240096,628b806c463b948bc644b84f,6291ca74569bb4fb3772a70e,,,,,0,0,0,0,1,"X V Q F H G B L J M P D K C T S W R N Z
",,,,,,,,,,,,,,,,,,,,,,,,,,,,,,,,,,,,,,,,,,,,,,,,,,,,,,,,,,,,,,,,,,,,,,,,,,,,,,,,,,,,,,,,,,,,,
,,,,,,,,,,5f2fda9d8f06be3d79b0371d,36,Mężczyzna,2022-05-28_09h09.10.855,task,2021.1.4,Win32,60.0240096,628b806c463b948bc644b84f,6291ca74569bb4fb3772a70e,,,,,1,0,1,0,1,"X V Q F H G B L J M P D K C T S W R N Z
",,,,,,,,,,,,,,,,,,,,,,,,,,,,,,,,,,,,,,,,,,,,,,,,,,,,,,,,,,,,,,,,,,,,,,,,,,,,,,,,,,,,,,,,,,,,,
,,,,,,,,,,5f2fda9d8f06be3d79b0371d,36,Mężczyzna,2022-05-28_09h09.10.855,task,2021.1.4,Win32,60.0240096,628b806c463b948bc644b84f,6291ca74569bb4fb3772a70e,,,,,2,0,2,0,1,"X V Q F H G B L J M P D K C T S W R N Z
",,,,,,,,,,,,,,,,,,,,,,,,,,,,,,,,,,,,,,,,,,,,,,,,,,,,,,,,,,,,,,,,,,,,,,,,,,,,,,,,,,,,,,,,,,,,,
,,,,,,,,,,5f2fda9d8f06be3d79b0371d,36,Mężczyzna,2022-05-28_09h09.10.855,task,2021.1.4,Win32,60.0240096,628b806c463b948bc644b84f,6291ca74569bb4fb3772a70e,,,,,3,0,3,0,1,"X V Q F H G B L J M P D K C T S W R N Z
",,,,,,,,,,,,,,,,,,,,,,,,,,,,,,,,,,,,,,,,,,,,,,,,,,,,,,,,,,,,,,,,,,,,,,,,,,,,,,,,,,,,,,,,,,,,,
,,,,,,,,,,5f2fda9d8f06be3d79b0371d,36,Mężczyzna,2022-05-28_09h09.10.855,task,2021.1.4,Win32,60.0240096,628b806c463b948bc644b84f,6291ca74569bb4fb3772a70e,,,,,4,0,4,0,1,"X V Q F H G B L J M P D K C T S W R N Z
",,,,,,,,,,,,,,,,,,,,,,,,,,,,,,,,,,,,,,,,,,,,,,,,,,,,,,,,,,,,,,,,,,,,,,,,,,,,,,,,,,,,,,,,,,,,,
,,,,,,,,,,5f2fda9d8f06be3d79b0371d,36,Mężczyzna,2022-05-28_09h09.10.855,task,2021.1.4,Win32,60.0240096,628b806c463b948bc644b84f,6291ca74569bb4fb3772a70e,,,,,5,0,5,0,1,"X V Q F H G B L J M P D K C T S W R N Z
",,,,,,,,,,,,,,,,,,,,,,,,,,,,,,,,,,,,,,,,,,,,,,,,,,,,,,,,,,,,,,,,,,,,,,,,,,,,,,,,,,,,,,,,,,,,,
,,,,,,,,,,5f2fda9d8f06be3d79b0371d,36,Mężczyzna,2022-05-28_09h09.10.855,task,2021.1.4,Win32,60.0240096,628b806c463b948bc644b84f,6291ca74569bb4fb3772a70e,,,,,6,0,6,0,1,"X V Q F H G B L J M P D K C T S W R N Z
",,,,,,,,,,,,,,,,,,,,,,,,,,,,,,,,,,,,,,,,,,,,,,,,,,,,,,,,,,,,,,,,,,,,,,,,,,,,,,,,,,,,,,,,,,,,,
,,,,,,,,,,5f2fda9d8f06be3d79b0371d,36,Mężczyzna,2022-05-28_09h09.10.855,task,2021.1.4,Win32,60.0240096,628b806c463b948bc644b84f,6291ca74569bb4fb3772a70e,,,,,,,,,,,ssqrpct,"[""s"",""s"",""q"",""r"",""p"",""c"",""t""]","[2.8099999999999454,3.2069999999999936,4.173000000000002,5.508000000000038,6.076000000000022,7.86099999999999,9.404999999999973,11.260999999999967]",1,SSQRPCT,13,0,13,0,1,,,,,,,,,,,,,,,,,,,,,,,,,,,,,,,,,,,,,,,,,,,,,,,,,,,,,,,,,,,,,,,,,,,,,,,,,,,,,,,,,,,
,,,,,,,,,,5f2fda9d8f06be3d79b0371d,36,Mężczyzna,2022-05-28_09h09.10.855,task,2021.1.4,Win32,60.0240096,628b806c463b948bc644b84f,6291ca74569bb4fb3772a70e,,,,,0,0,0,0,1,"X V Q F H G B L J M P D K C T S W R N Z
",,,,,,,,,,,,,,,,,,,,,,,,,,,,,,,,,,,,,,,,,,,,,,,,,,,,,,,,,,,,,,,,,,,,,,,,,,,,,,,,,,,,,,,,,,,,,
,,,,,,,,,,5f2fda9d8f06be3d79b0371d,36,Mężczyzna,2022-05-28_09h09.10.855,task,2021.1.4,Win32,60.0240096,628b806c463b948bc644b84f,6291ca74569bb4fb3772a70e,,,,,1,0,1,0,1,"X V Q F H G B L J M P D K C T S W R N Z
",,,,,,,,,,,,,,,,,,,,,,,,,,,,,,,,,,,,,,,,,,,,,,,,,,,,,,,,,,,,,,,,,,,,,,,,,,,,,,,,,,,,,,,,,,,,,
,,,,,,,,,,5f2fda9d8f06be3d79b0371d,36,Mężczyzna,2022-05-28_09h09.10.855,task,2021.1.4,Win32,60.0240096,628b806c463b948bc644b84f,6291ca74569bb4fb3772a70e,,,,,2,0,2,0,1,"X V Q F H G B L J M P D K C T S W R N Z
",,,,,,,,,,,,,,,,,,,,,,,,,,,,,,,,,,,,,,,,,,,,,,,,,,,,,,,,,,,,,,,,,,,,,,,,,,,,,,,,,,,,,,,,,,,,,
,,,,,,,,,,5f2fda9d8f06be3d79b0371d,36,Mężczyzna,2022-05-28_09h09.10.855,task,2021.1.4,Win32,60.0240096,628b806c463b948bc644b84f,6291ca74569bb4fb3772a70e,,,,,3,0,3,0,1,"X V Q F H G B L J M P D K C T S W R N Z
",,,,,,,,,,,,,,,,,,,,,,,,,,,,,,,,,,,,,,,,,,,,,,,,,,,,,,,,,,,,,,,,,,,,,,,,,,,,,,,,,,,,,,,,,,,,,
,,,,,,,,,,5f2fda9d8f06be3d79b0371d,36,Mężczyzna,2022-05-28_09h09.10.855,task,2021.1.4,Win32,60.0240096,628b806c463b948bc644b84f,6291ca74569bb4fb3772a70e,,,,,4,0,4,0,1,"X V Q F H G B L J M P D K C T S W R N Z
",,,,,,,,,,,,,,,,,,,,,,,,,,,,,,,,,,,,,,,,,,,,,,,,,,,,,,,,,,,,,,,,,,,,,,,,,,,,,,,,,,,,,,,,,,,,,
,,,,,,,,,,5f2fda9d8f06be3d79b0371d,36,Mężczyzna,2022-05-28_09h09.10.855,task,2021.1.4,Win32,60.0240096,628b806c463b948bc644b84f,6291ca74569bb4fb3772a70e,,,,,5,0,5,0,1,"X V Q F H G B L J M P D K C T S W R N Z
",,,,,,,,,,,,,,,,,,,,,,,,,,,,,,,,,,,,,,,,,,,,,,,,,,,,,,,,,,,,,,,,,,,,,,,,,,,,,,,,,,,,,,,,,,,,,
,,,,,,,,,,5f2fda9d8f06be3d79b0371d,36,Mężczyzna,2022-05-28_09h09.10.855,task,2021.1.4,Win32,60.0240096,628b806c463b948bc644b84f,6291ca74569bb4fb3772a70e,,,,,6,0,6,0,1,"X V Q F H G B L J M P D K C T S W R N Z
",,,,,,,,,,,,,,,,,,,,,,,,,,,,,,,,,,,,,,,,,,,,,,,,,,,,,,,,,,,,,,,,,,,,,,,,,,,,,,,,,,,,,,,,,,,,,
,,,,,,,,,,5f2fda9d8f06be3d79b0371d,36,Mężczyzna,2022-05-28_09h09.10.855,task,2021.1.4,Win32,60.0240096,628b806c463b948bc644b84f,6291ca74569bb4fb3772a70e,,,,,,,,,,,gcgpxvq,"[""g"",""c"",""g"",""p"",""x"",""v"",""q""]","[3.15300000000002,5.0190000000000055,5.750999999999976,7.516999999999939,9.414999999999964,11.063999999999965,12.678999999999974,13.581000000000017]",1,GCGPXVQ,14,0,14,0,1,,,,,,,,,,,,,,,,,,,,,,,,,,,,,,,,,,,,,,,,,,,,,,,,,,,,,,,,,,,,,,,,,,,,,,,,,,,,,,,,,,,
,,,,,,,,,,5f2fda9d8f06be3d79b0371d,36,Mężczyzna,2022-05-28_09h09.10.855,task,2021.1.4,Win32,60.0240096,628b806c463b948bc644b84f,6291ca74569bb4fb3772a70e,,,,,0,0,0,0,1,"X V Q F H G B L J M P D K C T S W R N Z
",,,,,,,,,,,,,,,,,,,,,,,,,,,,,,,,,,,,,,,,,,,,,,,,,,,,,,,,,,,,,,,,,,,,,,,,,,,,,,,,,,,,,,,,,,,,,
,,,,,,,,,,5f2fda9d8f06be3d79b0371d,36,Mężczyzna,2022-05-28_09h09.10.855,task,2021.1.4,Win32,60.0240096,628b806c463b948bc644b84f,6291ca74569bb4fb3772a70e,,,,,1,0,1,0,1,"X V Q F H G B L J M P D K C T S W R N Z
",,,,,,,,,,,,,,,,,,,,,,,,,,,,,,,,,,,,,,,,,,,,,,,,,,,,,,,,,,,,,,,,,,,,,,,,,,,,,,,,,,,,,,,,,,,,,
,,,,,,,,,,5f2fda9d8f06be3d79b0371d,36,Mężczyzna,2022-05-28_09h09.10.855,task,2021.1.4,Win32,60.0240096,628b806c463b948bc644b84f,6291ca74569bb4fb3772a70e,,,,,2,0,2,0,1,"X V Q F H G B L J M P D K C T S W R N Z
",,,,,,,,,,,,,,,,,,,,,,,,,,,,,,,,,,,,,,,,,,,,,,,,,,,,,,,,,,,,,,,,,,,,,,,,,,,,,,,,,,,,,,,,,,,,,
,,,,,,,,,,5f2fda9d8f06be3d79b0371d,36,Mężczyzna,2022-05-28_09h09.10.855,task,2021.1.4,Win32,60.0240096,628b806c463b948bc644b84f,6291ca74569bb4fb3772a70e,,,,,3,0,3,0,1,"X V Q F H G B L J M P D K C T S W R N Z
",,,,,,,,,,,,,,,,,,,,,,,,,,,,,,,,,,,,,,,,,,,,,,,,,,,,,,,,,,,,,,,,,,,,,,,,,,,,,,,,,,,,,,,,,,,,,
,,,,,,,,,,5f2fda9d8f06be3d79b0371d,36,Mężczyzna,2022-05-28_09h09.10.855,task,2021.1.4,Win32,60.0240096,628b806c463b948bc644b84f,6291ca74569bb4fb3772a70e,,,,,4,0,4,0,1,"X V Q F H G B L J M P D K C T S W R N Z
",,,,,,,,,,,,,,,,,,,,,,,,,,,,,,,,,,,,,,,,,,,,,,,,,,,,,,,,,,,,,,,,,,,,,,,,,,,,,,,,,,,,,,,,,,,,,
,,,,,,,,,,5f2fda9d8f06be3d79b0371d,36,Mężczyzna,2022-05-28_09h09.10.855,task,2021.1.4,Win32,60.0240096,628b806c463b948bc644b84f,6291ca74569bb4fb3772a70e,,,,,5,0,5,0,1,"X V Q F H G B L J M P D K C T S W R N Z
",,,,,,,,,,,,,,,,,,,,,,,,,,,,,,,,,,,,,,,,,,,,,,,,,,,,,,,,,,,,,,,,,,,,,,,,,,,,,,,,,,,,,,,,,,,,,
,,,,,,,,,,5f2fda9d8f06be3d79b0371d,36,Mężczyzna,2022-05-28_09h09.10.855,task,2021.1.4,Win32,60.0240096,628b806c463b948bc644b84f,6291ca74569bb4fb3772a70e,,,,,6,0,6,0,1,"X V Q F H G B L J M P D K C T S W R N Z
",,,,,,,,,,,,,,,,,,,,,,,,,,,,,,,,,,,,,,,,,,,,,,,,,,,,,,,,,,,,,,,,,,,,,,,,,,,,,,,,,,,,,,,,,,,,,
,,,,,,,,,,5f2fda9d8f06be3d79b0371d,36,Mężczyzna,2022-05-28_09h09.10.855,task,2021.1.4,Win32,60.0240096,628b806c463b948bc644b84f,6291ca74569bb4fb3772a70e,,,,,7,0,7,0,1,"X V Q F H G B L J M P D K C T S W R N Z
",,,,,,,,,,,,,,,,,,,,,,,,,,,,,,,,,,,,,,,,,,,,,,,,,,,,,,,,,,,,,,,,,,,,,,,,,,,,,,,,,,,,,,,,,,,,,
,,,,,,,,,,5f2fda9d8f06be3d79b0371d,36,Mężczyzna,2022-05-28_09h09.10.855,task,2021.1.4,Win32,60.0240096,628b806c463b948bc644b84f,6291ca74569bb4fb3772a70e,,,,,,,,,,,nfscmqxv,"[""n"",""f"",""s"",""c"",""m"",""q"",""x"",""v""]","[2.5970000000000937,4.498000000000047,5.564000000000078,6.260000000000105,7.566000000000031,8.225999999999999,9.629000000000019,10.010000000000105,10.97700000000009]",1,NFSCMQXV,15,0,15,0,1,,,,,,,,,,,,,,,,,,,,,,,,,,,,,,,,,,,,,,,,,,,,,,,,,,,,,,,,,,,,,,,,,,,,,,,,,,,,,,,,,,,
,,,,,,,,,,5f2fda9d8f06be3d79b0371d,36,Mężczyzna,2022-05-28_09h09.10.855,task,2021.1.4,Win32,60.0240096,628b806c463b948bc644b84f,6291ca74569bb4fb3772a70e,,,,,0,0,0,0,1,"X V Q F H G B L J M P D K C T S W R N Z
",,,,,,,,,,,,,,,,,,,,,,,,,,,,,,,,,,,,,,,,,,,,,,,,,,,,,,,,,,,,,,,,,,,,,,,,,,,,,,,,,,,,,,,,,,,,,
,,,,,,,,,,5f2fda9d8f06be3d79b0371d,36,Mężczyzna,2022-05-28_09h09.10.855,task,2021.1.4,Win32,60.0240096,628b806c463b948bc644b84f,6291ca74569bb4fb3772a70e,,,,,1,0,1,0,1,"X V Q F H G B L J M P D K C T S W R N Z
",,,,,,,,,,,,,,,,,,,,,,,,,,,,,,,,,,,,,,,,,,,,,,,,,,,,,,,,,,,,,,,,,,,,,,,,,,,,,,,,,,,,,,,,,,,,,
,,,,,,,,,,5f2fda9d8f06be3d79b0371d,36,Mężczyzna,2022-05-28_09h09.10.855,task,2021.1.4,Win32,60.0240096,628b806c463b948bc644b84f,6291ca74569bb4fb3772a70e,,,,,2,0,2,0,1,"X V Q F H G B L J M P D K C T S W R N Z
",,,,,,,,,,,,,,,,,,,,,,,,,,,,,,,,,,,,,,,,,,,,,,,,,,,,,,,,,,,,,,,,,,,,,,,,,,,,,,,,,,,,,,,,,,,,,
,,,,,,,,,,5f2fda9d8f06be3d79b0371d,36,Mężczyzna,2022-05-28_09h09.10.855,task,2021.1.4,Win32,60.0240096,628b806c463b948bc644b84f,6291ca74569bb4fb3772a70e,,,,,3,0,3,0,1,"X V Q F H G B L J M P D K C T S W R N Z
",,,,,,,,,,,,,,,,,,,,,,,,,,,,,,,,,,,,,,,,,,,,,,,,,,,,,,,,,,,,,,,,,,,,,,,,,,,,,,,,,,,,,,,,,,,,,
,,,,,,,,,,5f2fda9d8f06be3d79b0371d,36,Mężczyzna,2022-05-28_09h09.10.855,task,2021.1.4,Win32,60.0240096,628b806c463b948bc644b84f,6291ca74569bb4fb3772a70e,,,,,4,0,4,0,1,"X V Q F H G B L J M P D K C T S W R N Z
",,,,,,,,,,,,,,,,,,,,,,,,,,,,,,,,,,,,,,,,,,,,,,,,,,,,,,,,,,,,,,,,,,,,,,,,,,,,,,,,,,,,,,,,,,,,,
,,,,,,,,,,5f2fda9d8f06be3d79b0371d,36,Mężczyzna,2022-05-28_09h09.10.855,task,2021.1.4,Win32,60.0240096,628b806c463b948bc644b84f,6291ca74569bb4fb3772a70e,,,,,5,0,5,0,1,"X V Q F H G B L J M P D K C T S W R N Z
",,,,,,,,,,,,,,,,,,,,,,,,,,,,,,,,,,,,,,,,,,,,,,,,,,,,,,,,,,,,,,,,,,,,,,,,,,,,,,,,,,,,,,,,,,,,,
,,,,,,,,,,5f2fda9d8f06be3d79b0371d,36,Mężczyzna,2022-05-28_09h09.10.855,task,2021.1.4,Win32,60.0240096,628b806c463b948bc644b84f,6291ca74569bb4fb3772a70e,,,,,6,0,6,0,1,"X V Q F H G B L J M P D K C T S W R N Z
",,,,,,,,,,,,,,,,,,,,,,,,,,,,,,,,,,,,,,,,,,,,,,,,,,,,,,,,,,,,,,,,,,,,,,,,,,,,,,,,,,,,,,,,,,,,,
,,,,,,,,,,5f2fda9d8f06be3d79b0371d,36,Mężczyzna,2022-05-28_09h09.10.855,task,2021.1.4,Win32,60.0240096,628b806c463b948bc644b84f,6291ca74569bb4fb3772a70e,,,,,7,0,7,0,1,"X V Q F H G B L J M P D K C T S W R N Z
",,,,,,,,,,,,,,,,,,,,,,,,,,,,,,,,,,,,,,,,,,,,,,,,,,,,,,,,,,,,,,,,,,,,,,,,,,,,,,,,,,,,,,,,,,,,,
,,,,,,,,,,5f2fda9d8f06be3d79b0371d,36,Mężczyzna,2022-05-28_09h09.10.855,task,2021.1.4,Win32,60.0240096,628b806c463b948bc644b84f,6291ca74569bb4fb3772a70e,,,,,,,,,,,pqwszvjl,"[""p"",""q"",""w"",""s"",""z"",""v"",""j"",""l""]","[2.6650000000000773,4.1159999999999854,5.1299999999999955,5.413000000000011,5.6299999999999955,8.512000000000057,13.576999999999998,14.194000000000074,15.110000000000014]",0,"PQWSZ
VJL",16,0,16,0,1,,,,,,,,,,,,,,,,,,,,,,,,,,,,,,,,,,,,,,,,,,,,,,,,,,,,,,,,,,,,,,,,,,,,,,,,,,,,,,,,,,,
,,,,,,,,,,5f2fda9d8f06be3d79b0371d,36,Mężczyzna,2022-05-28_09h09.10.855,task,2021.1.4,Win32,60.0240096,628b806c463b948bc644b84f,6291ca74569bb4fb3772a70e,,,,,0,0,0,0,1,"X V Q F H G B L J M P D K C T S W R N Z
",,,,,,,,,,,,,,,,,,,,,,,,,,,,,,,,,,,,,,,,,,,,,,,,,,,,,,,,,,,,,,,,,,,,,,,,,,,,,,,,,,,,,,,,,,,,,
,,,,,,,,,,5f2fda9d8f06be3d79b0371d,36,Mężczyzna,2022-05-28_09h09.10.855,task,2021.1.4,Win32,60.0240096,628b806c463b948bc644b84f,6291ca74569bb4fb3772a70e,,,,,1,0,1,0,1,"X V Q F H G B L J M P D K C T S W R N Z
",,,,,,,,,,,,,,,,,,,,,,,,,,,,,,,,,,,,,,,,,,,,,,,,,,,,,,,,,,,,,,,,,,,,,,,,,,,,,,,,,,,,,,,,,,,,,
,,,,,,,,,,5f2fda9d8f06be3d79b0371d,36,Mężczyzna,2022-05-28_09h09.10.855,task,2021.1.4,Win32,60.0240096,628b806c463b948bc644b84f,6291ca74569bb4fb3772a70e,,,,,2,0,2,0,1,"X V Q F H G B L J M P D K C T S W R N Z
",,,,,,,,,,,,,,,,,,,,,,,,,,,,,,,,,,,,,,,,,,,,,,,,,,,,,,,,,,,,,,,,,,,,,,,,,,,,,,,,,,,,,,,,,,,,,
,,,,,,,,,,5f2fda9d8f06be3d79b0371d,36,Mężczyzna,2022-05-28_09h09.10.855,task,2021.1.4,Win32,60.0240096,628b806c463b948bc644b84f,6291ca74569bb4fb3772a70e,,,,,3,0,3,0,1,"X V Q F H G B L J M P D K C T S W R N Z
",,,,,,,,,,,,,,,,,,,,,,,,,,,,,,,,,,,,,,,,,,,,,,,,,,,,,,,,,,,,,,,,,,,,,,,,,,,,,,,,,,,,,,,,,,,,,
,,,,,,,,,,5f2fda9d8f06be3d79b0371d,36,Mężczyzna,2022-05-28_09h09.10.855,task,2021.1.4,Win32,60.0240096,628b806c463b948bc644b84f,6291ca74569bb4fb3772a70e,,,,,4,0,4,0,1,"X V Q F H G B L J M P D K C T S W R N Z
",,,,,,,,,,,,,,,,,,,,,,,,,,,,,,,,,,,,,,,,,,,,,,,,,,,,,,,,,,,,,,,,,,,,,,,,,,,,,,,,,,,,,,,,,,,,,
,,,,,,,,,,5f2fda9d8f06be3d79b0371d,36,Mężczyzna,2022-05-28_09h09.10.855,task,2021.1.4,Win32,60.0240096,628b806c463b948bc644b84f,6291ca74569bb4fb3772a70e,,,,,5,0,5,0,1,"X V Q F H G B L J M P D K C T S W R N Z
",,,,,,,,,,,,,,,,,,,,,,,,,,,,,,,,,,,,,,,,,,,,,,,,,,,,,,,,,,,,,,,,,,,,,,,,,,,,,,,,,,,,,,,,,,,,,
,,,,,,,,,,5f2fda9d8f06be3d79b0371d,36,Mężczyzna,2022-05-28_09h09.10.855,task,2021.1.4,Win32,60.0240096,628b806c463b948bc644b84f,6291ca74569bb4fb3772a70e,,,,,6,0,6,0,1,"X V Q F H G B L J M P D K C T S W R N Z
",,,,,,,,,,,,,,,,,,,,,,,,,,,,,,,,,,,,,,,,,,,,,,,,,,,,,,,,,,,,,,,,,,,,,,,,,,,,,,,,,,,,,,,,,,,,,
,,,,,,,,,,5f2fda9d8f06be3d79b0371d,36,Mężczyzna,2022-05-28_09h09.10.855,task,2021.1.4,Win32,60.0240096,628b806c463b948bc644b84f,6291ca74569bb4fb3772a70e,,,,,7,0,7,0,1,"X V Q F H G B L J M P D K C T S W R N Z
",,,,,,,,,,,,,,,,,,,,,,,,,,,,,,,,,,,,,,,,,,,,,,,,,,,,,,,,,,,,,,,,,,,,,,,,,,,,,,,,,,,,,,,,,,,,,
,,,,,,,,,,5f2fda9d8f06be3d79b0371d,36,Mężczyzna,2022-05-28_09h09.10.855,task,2021.1.4,Win32,60.0240096,628b806c463b948bc644b84f,6291ca74569bb4fb3772a70e,,,,,,,,,,,zmrgvmjh,"[""z"",""m"",""r"",""g"",""v"",""m"",""j"",""h""]","[3.216000000000008,3.711999999999989,4.345000000000027,4.9109999999999445,7.159999999999968,8.751999999999953,9.359000000000037,10.808999999999969,11.960000000000036]",0,"Z
MRGVMJH",17,0,17,0,1,,,,,,,,,,,,,,,,,,,,,,,,,,,,,,,,,,,,,,,,,,,,,,,,,,,,,,,,,,,,,,,,,,,,,,,,,,,,,,,,,,,
,,,,,,,,,,5f2fda9d8f06be3d79b0371d,36,Mężczyzna,2022-05-28_09h09.10.855,task,2021.1.4,Win32,60.0240096,628b806c463b948bc644b84f,6291ca74569bb4fb3772a70e,,,,,0,0,0,0,1,"X V Q F H G B L J M P D K C T S W R N Z
",,,,,,,,,,,,,,,,,,,,,,,,,,,,,,,,,,,,,,,,,,,,,,,,,,,,,,,,,,,,,,,,,,,,,,,,,,,,,,,,,,,,,,,,,,,,,
,,,,,,,,,,5f2fda9d8f06be3d79b0371d,36,Mężczyzna,2022-05-28_09h09.10.855,task,2021.1.4,Win32,60.0240096,628b806c463b948bc644b84f,6291ca74569bb4fb3772a70e,,,,,1,0,1,0,1,"X V Q F H G B L J M P D K C T S W R N Z
",,,,,,,,,,,,,,,,,,,,,,,,,,,,,,,,,,,,,,,,,,,,,,,,,,,,,,,,,,,,,,,,,,,,,,,,,,,,,,,,,,,,,,,,,,,,,
,,,,,,,,,,5f2fda9d8f06be3d79b0371d,36,Mężczyzna,2022-05-28_09h09.10.855,task,2021.1.4,Win32,60.0240096,628b806c463b948bc644b84f,6291ca74569bb4fb3772a70e,,,,,2,0,2,0,1,"X V Q F H G B L J M P D K C T S W R N Z
",,,,,,,,,,,,,,,,,,,,,,,,,,,,,,,,,,,,,,,,,,,,,,,,,,,,,,,,,,,,,,,,,,,,,,,,,,,,,,,,,,,,,,,,,,,,,
,,,,,,,,,,5f2fda9d8f06be3d79b0371d,36,Mężczyzna,2022-05-28_09h09.10.855,task,2021.1.4,Win32,60.0240096,628b806c463b948bc644b84f,6291ca74569bb4fb3772a70e,,,,,3,0,3,0,1,"X V Q F H G B L J M P D K C T S W R N Z
",,,,,,,,,,,,,,,,,,,,,,,,,,,,,,,,,,,,,,,,,,,,,,,,,,,,,,,,,,,,,,,,,,,,,,,,,,,,,,,,,,,,,,,,,,,,,
,,,,,,,,,,5f2fda9d8f06be3d79b0371d,36,Mężczyzna,2022-05-28_09h09.10.855,task,2021.1.4,Win32,60.0240096,628b806c463b948bc644b84f,6291ca74569bb4fb3772a70e,,,,,4,0,4,0,1,"X V Q F H G B L J M P D K C T S W R N Z
",,,,,,,,,,,,,,,,,,,,,,,,,,,,,,,,,,,,,,,,,,,,,,,,,,,,,,,,,,,,,,,,,,,,,,,,,,,,,,,,,,,,,,,,,,,,,
,,,,,,,,,,5f2fda9d8f06be3d79b0371d,36,Mężczyzna,2022-05-28_09h09.10.855,task,2021.1.4,Win32,60.0240096,628b806c463b948bc644b84f,6291ca74569bb4fb3772a70e,,,,,5,0,5,0,1,"X V Q F H G B L J M P D K C T S W R N Z
",,,,,,,,,,,,,,,,,,,,,,,,,,,,,,,,,,,,,,,,,,,,,,,,,,,,,,,,,,,,,,,,,,,,,,,,,,,,,,,,,,,,,,,,,,,,,
,,,,,,,,,,5f2fda9d8f06be3d79b0371d,36,Mężczyzna,2022-05-28_09h09.10.855,task,2021.1.4,Win32,60.0240096,628b806c463b948bc644b84f,6291ca74569bb4fb3772a70e,,,,,6,0,6,0,1,"X V Q F H G B L J M P D K C T S W R N Z
",,,,,,,,,,,,,,,,,,,,,,,,,,,,,,,,,,,,,,,,,,,,,,,,,,,,,,,,,,,,,,,,,,,,,,,,,,,,,,,,,,,,,,,,,,,,,
,,,,,,,,,,5f2fda9d8f06be3d79b0371d,36,Mężczyzna,2022-05-28_09h09.10.855,task,2021.1.4,Win32,60.0240096,628b806c463b948bc644b84f,6291ca74569bb4fb3772a70e,,,,,7,0,7,0,1,"X V Q F H G B L J M P D K C T S W R N Z
",,,,,,,,,,,,,,,,,,,,,,,,,,,,,,,,,,,,,,,,,,,,,,,,,,,,,,,,,,,,,,,,,,,,,,,,,,,,,,,,,,,,,,,,,,,,,
,,,,,,,,,,5f2fda9d8f06be3d79b0371d,36,Mężczyzna,2022-05-28_09h09.10.855,task,2021.1.4,Win32,60.0240096,628b806c463b948bc644b84f,6291ca74569bb4fb3772a70e,,,,,,,,,,,xhrtrpcr,"[""x"",""h"",""r"",""t"",""r"",""p"",""c"",""r""]","[2.564000000000078,4.427000000000021,5.0919999999999845,7.149999999999977,7.689000000000078,8.309000000000083,10.155000000000086,10.58800000000008,11.543999999999983]",1,XHRTRPCR,18,0,18,0,1,,,,,,,,,,,,,,,,,,,,,,,,,,,,,,,,,,,,,,,,,,,,,,,,,,,,,,,,,,,,,,,,,,,,,,,,,,,,,,,,,,,
,,,,,,,,,,5f2fda9d8f06be3d79b0371d,36,Mężczyzna,2022-05-28_09h09.10.855,task,2021.1.4,Win32,60.0240096,628b806c463b948bc644b84f,6291ca74569bb4fb3772a70e,,,,,0,0,0,0,1,"X V Q F H G B L J M P D K C T S W R N Z
",,,,,,,,,,,,,,,,,,,,,,,,,,,,,,,,,,,,,,,,,,,,,,,,,,,,,,,,,,,,,,,,,,,,,,,,,,,,,,,,,,,,,,,,,,,,,
,,,,,,,,,,5f2fda9d8f06be3d79b0371d,36,Mężczyzna,2022-05-28_09h09.10.855,task,2021.1.4,Win32,60.0240096,628b806c463b948bc644b84f,6291ca74569bb4fb3772a70e,,,,,1,0,1,0,1,"X V Q F H G B L J M P D K C T S W R N Z
",,,,,,,,,,,,,,,,,,,,,,,,,,,,,,,,,,,,,,,,,,,,,,,,,,,,,,,,,,,,,,,,,,,,,,,,,,,,,,,,,,,,,,,,,,,,,
,,,,,,,,,,5f2fda9d8f06be3d79b0371d,36,Mężczyzna,2022-05-28_09h09.10.855,task,2021.1.4,Win32,60.0240096,628b806c463b948bc644b84f,6291ca74569bb4fb3772a70e,,,,,2,0,2,0,1,"X V Q F H G B L J M P D K C T S W R N Z
",,,,,,,,,,,,,,,,,,,,,,,,,,,,,,,,,,,,,,,,,,,,,,,,,,,,,,,,,,,,,,,,,,,,,,,,,,,,,,,,,,,,,,,,,,,,,
,,,,,,,,,,5f2fda9d8f06be3d79b0371d,36,Mężczyzna,2022-05-28_09h09.10.855,task,2021.1.4,Win32,60.0240096,628b806c463b948bc644b84f,6291ca74569bb4fb3772a70e,,,,,3,0,3,0,1,"X V Q F H G B L J M P D K C T S W R N Z
",,,,,,,,,,,,,,,,,,,,,,,,,,,,,,,,,,,,,,,,,,,,,,,,,,,,,,,,,,,,,,,,,,,,,,,,,,,,,,,,,,,,,,,,,,,,,
,,,,,,,,,,5f2fda9d8f06be3d79b0371d,36,Mężczyzna,2022-05-28_09h09.10.855,task,2021.1.4,Win32,60.0240096,628b806c463b948bc644b84f,6291ca74569bb4fb3772a70e,,,,,4,0,4,0,1,"X V Q F H G B L J M P D K C T S W R N Z
",,,,,,,,,,,,,,,,,,,,,,,,,,,,,,,,,,,,,,,,,,,,,,,,,,,,,,,,,,,,,,,,,,,,,,,,,,,,,,,,,,,,,,,,,,,,,
,,,,,,,,,,5f2fda9d8f06be3d79b0371d,36,Mężczyzna,2022-05-28_09h09.10.855,task,2021.1.4,Win32,60.0240096,628b806c463b948bc644b84f,6291ca74569bb4fb3772a70e,,,,,5,0,5,0,1,"X V Q F H G B L J M P D K C T S W R N Z
",,,,,,,,,,,,,,,,,,,,,,,,,,,,,,,,,,,,,,,,,,,,,,,,,,,,,,,,,,,,,,,,,,,,,,,,,,,,,,,,,,,,,,,,,,,,,
,,,,,,,,,,5f2fda9d8f06be3d79b0371d,36,Mężczyzna,2022-05-28_09h09.10.855,task,2021.1.4,Win32,60.0240096,628b806c463b948bc644b84f,6291ca74569bb4fb3772a70e,,,,,6,0,6,0,1,"X V Q F H G B L J M P D K C T S W R N Z
",,,,,,,,,,,,,,,,,,,,,,,,,,,,,,,,,,,,,,,,,,,,,,,,,,,,,,,,,,,,,,,,,,,,,,,,,,,,,,,,,,,,,,,,,,,,,
,,,,,,,,,,5f2fda9d8f06be3d79b0371d,36,Mężczyzna,2022-05-28_09h09.10.855,task,2021.1.4,Win32,60.0240096,628b806c463b948bc644b84f,6291ca74569bb4fb3772a70e,,,,,7,0,7,0,1,"X V Q F H G B L J M P D K C T S W R N Z
",,,,,,,,,,,,,,,,,,,,,,,,,,,,,,,,,,,,,,,,,,,,,,,,,,,,,,,,,,,,,,,,,,,,,,,,,,,,,,,,,,,,,,,,,,,,,
,,,,,,,,,,5f2fda9d8f06be3d79b0371d,36,Mężczyzna,2022-05-28_09h09.10.855,task,2021.1.4,Win32,60.0240096,628b806c463b948bc644b84f,6291ca74569bb4fb3772a70e,,,,,8,0,8,0,1,"X V Q F H G B L J M P D K C T S W R N Z
",,,,,,,,,,,,,,,,,,,,,,,,,,,,,,,,,,,,,,,,,,,,,,,,,,,,,,,,,,,,,,,,,,,,,,,,,,,,,,,,,,,,,,,,,,,,,
,,,,,,,,,,5f2fda9d8f06be3d79b0371d,36,Mężczyzna,2022-05-28_09h09.10.855,task,2021.1.4,Win32,60.0240096,628b806c463b948bc644b84f,6291ca74569bb4fb3772a70e,,,,,,,,,,,jgxbnnhnf,"[""j"",""g"",""x"",""b"",""n"",""n"",""h"",""n"",""f""]","[3.325999999999908,5.5,6.7579999999999245,8.041999999999916,8.838999999999942,9.121999999999957,10.255999999999972,11.756999999999948,12.621999999999957,13.690999999999917]",1,JGXBNNHNF,19,0,19,0,1,,,,,,,,,,,,,,,,,,,,,,,,,,,,,,,,,,,,,,,,,,,,,,,,,,,,,,,,,,,,,,,,,,,,,,,,,,,,,,,,,,,
,,,,,,,,,,5f2fda9d8f06be3d79b0371d,36,Mężczyzna,2022-05-28_09h09.10.855,task,2021.1.4,Win32,60.0240096,628b806c463b948bc644b84f,6291ca74569bb4fb3772a70e,,,,,0,0,0,0,1,"X V Q F H G B L J M P D K C T S W R N Z
",,,,,,,,,,,,,,,,,,,,,,,,,,,,,,,,,,,,,,,,,,,,,,,,,,,,,,,,,,,,,,,,,,,,,,,,,,,,,,,,,,,,,,,,,,,,,
,,,,,,,,,,5f2fda9d8f06be3d79b0371d,36,Mężczyzna,2022-05-28_09h09.10.855,task,2021.1.4,Win32,60.0240096,628b806c463b948bc644b84f,6291ca74569bb4fb3772a70e,,,,,1,0,1,0,1,"X V Q F H G B L J M P D K C T S W R N Z
",,,,,,,,,,,,,,,,,,,,,,,,,,,,,,,,,,,,,,,,,,,,,,,,,,,,,,,,,,,,,,,,,,,,,,,,,,,,,,,,,,,,,,,,,,,,,
,,,,,,,,,,5f2fda9d8f06be3d79b0371d,36,Mężczyzna,2022-05-28_09h09.10.855,task,2021.1.4,Win32,60.0240096,628b806c463b948bc644b84f,6291ca74569bb4fb3772a70e,,,,,2,0,2,0,1,"X V Q F H G B L J M P D K C T S W R N Z
",,,,,,,,,,,,,,,,,,,,,,,,,,,,,,,,,,,,,,,,,,,,,,,,,,,,,,,,,,,,,,,,,,,,,,,,,,,,,,,,,,,,,,,,,,,,,
,,,,,,,,,,5f2fda9d8f06be3d79b0371d,36,Mężczyzna,2022-05-28_09h09.10.855,task,2021.1.4,Win32,60.0240096,628b806c463b948bc644b84f,6291ca74569bb4fb3772a70e,,,,,3,0,3,0,1,"X V Q F H G B L J M P D K C T S W R N Z
",,,,,,,,,,,,,,,,,,,,,,,,,,,,,,,,,,,,,,,,,,,,,,,,,,,,,,,,,,,,,,,,,,,,,,,,,,,,,,,,,,,,,,,,,,,,,
,,,,,,,,,,5f2fda9d8f06be3d79b0371d,36,Mężczyzna,2022-05-28_09h09.10.855,task,2021.1.4,Win32,60.0240096,628b806c463b948bc644b84f,6291ca74569bb4fb3772a70e,,,,,4,0,4,0,1,"X V Q F H G B L J M P D K C T S W R N Z
",,,,,,,,,,,,,,,,,,,,,,,,,,,,,,,,,,,,,,,,,,,,,,,,,,,,,,,,,,,,,,,,,,,,,,,,,,,,,,,,,,,,,,,,,,,,,
,,,,,,,,,,5f2fda9d8f06be3d79b0371d,36,Mężczyzna,2022-05-28_09h09.10.855,task,2021.1.4,Win32,60.0240096,628b806c463b948bc644b84f,6291ca74569bb4fb3772a70e,,,,,5,0,5,0,1,"X V Q F H G B L J M P D K C T S W R N Z
",,,,,,,,,,,,,,,,,,,,,,,,,,,,,,,,,,,,,,,,,,,,,,,,,,,,,,,,,,,,,,,,,,,,,,,,,,,,,,,,,,,,,,,,,,,,,
,,,,,,,,,,5f2fda9d8f06be3d79b0371d,36,Mężczyzna,2022-05-28_09h09.10.855,task,2021.1.4,Win32,60.0240096,628b806c463b948bc644b84f,6291ca74569bb4fb3772a70e,,,,,6,0,6,0,1,"X V Q F H G B L J M P D K C T S W R N Z
",,,,,,,,,,,,,,,,,,,,,,,,,,,,,,,,,,,,,,,,,,,,,,,,,,,,,,,,,,,,,,,,,,,,,,,,,,,,,,,,,,,,,,,,,,,,,
,,,,,,,,,,5f2fda9d8f06be3d79b0371d,36,Mężczyzna,2022-05-28_09h09.10.855,task,2021.1.4,Win32,60.0240096,628b806c463b948bc644b84f,6291ca74569bb4fb3772a70e,,,,,7,0,7,0,1,"X V Q F H G B L J M P D K C T S W R N Z
",,,,,,,,,,,,,,,,,,,,,,,,,,,,,,,,,,,,,,,,,,,,,,,,,,,,,,,,,,,,,,,,,,,,,,,,,,,,,,,,,,,,,,,,,,,,,
,,,,,,,,,,5f2fda9d8f06be3d79b0371d,36,Mężczyzna,2022-05-28_09h09.10.855,task,2021.1.4,Win32,60.0240096,628b806c463b948bc644b84f,6291ca74569bb4fb3772a70e,,,,,8,0,8,0,1,"X V Q F H G B L J M P D K C T S W R N Z
",,,,,,,,,,,,,,,,,,,,,,,,,,,,,,,,,,,,,,,,,,,,,,,,,,,,,,,,,,,,,,,,,,,,,,,,,,,,,,,,,,,,,,,,,,,,,
,,,,,,,,,,5f2fda9d8f06be3d79b0371d,36,Mężczyzna,2022-05-28_09h09.10.855,task,2021.1.4,Win32,60.0240096,628b806c463b948bc644b84f,6291ca74569bb4fb3772a70e,,,,,,,,,,,djvwsrslj,"[""d"",""j"",""v"",""w"",""s"",""r"",""s"",""l"",""j""]","[3.9220000000000255,4.349000000000046,5.364000000000033,5.9809999999999945,9.754999999999995,10.133000000000038,12.078000000000088,12.743000000000052,14.326999999999998,15.161000000000058]",1,DJVWSRSLJ,20,0,20,0,1,,,,,,,,,,,,,,,,,,,,,,,,,,,,,,,,,,,,,,,,,,,,,,,,,,,,,,,,,,,,,,,,,,,,,,,,,,,,,,,,,,,
,,,,,,,,,,5f2fda9d8f06be3d79b0371d,36,Mężczyzna,2022-05-28_09h09.10.855,task,2021.1.4,Win32,60.0240096,628b806c463b948bc644b84f,6291ca74569bb4fb3772a70e,,,,,0,0,0,0,1,"X V Q F H G B L J M P D K C T S W R N Z
",,,,,,,,,,,,,,,,,,,,,,,,,,,,,,,,,,,,,,,,,,,,,,,,,,,,,,,,,,,,,,,,,,,,,,,,,,,,,,,,,,,,,,,,,,,,,
,,,,,,,,,,5f2fda9d8f06be3d79b0371d,36,Mężczyzna,2022-05-28_09h09.10.855,task,2021.1.4,Win32,60.0240096,628b806c463b948bc644b84f,6291ca74569bb4fb3772a70e,,,,,1,0,1,0,1,"X V Q F H G B L J M P D K C T S W R N Z
",,,,,,,,,,,,,,,,,,,,,,,,,,,,,,,,,,,,,,,,,,,,,,,,,,,,,,,,,,,,,,,,,,,,,,,,,,,,,,,,,,,,,,,,,,,,,
,,,,,,,,,,5f2fda9d8f06be3d79b0371d,36,Mężczyzna,2022-05-28_09h09.10.855,task,2021.1.4,Win32,60.0240096,628b806c463b948bc644b84f,6291ca74569bb4fb3772a70e,,,,,2,0,2,0,1,"X V Q F H G B L J M P D K C T S W R N Z
",,,,,,,,,,,,,,,,,,,,,,,,,,,,,,,,,,,,,,,,,,,,,,,,,,,,,,,,,,,,,,,,,,,,,,,,,,,,,,,,,,,,,,,,,,,,,
,,,,,,,,,,5f2fda9d8f06be3d79b0371d,36,Mężczyzna,2022-05-28_09h09.10.855,task,2021.1.4,Win32,60.0240096,628b806c463b948bc644b84f,6291ca74569bb4fb3772a70e,,,,,3,0,3,0,1,"X V Q F H G B L J M P D K C T S W R N Z
",,,,,,,,,,,,,,,,,,,,,,,,,,,,,,,,,,,,,,,,,,,,,,,,,,,,,,,,,,,,,,,,,,,,,,,,,,,,,,,,,,,,,,,,,,,,,
,,,,,,,,,,5f2fda9d8f06be3d79b0371d,36,Mężczyzna,2022-05-28_09h09.10.855,task,2021.1.4,Win32,60.0240096,628b806c463b948bc644b84f,6291ca74569bb4fb3772a70e,,,,,4,0,4,0,1,"X V Q F H G B L J M P D K C T S W R N Z
",,,,,,,,,,,,,,,,,,,,,,,,,,,,,,,,,,,,,,,,,,,,,,,,,,,,,,,,,,,,,,,,,,,,,,,,,,,,,,,,,,,,,,,,,,,,,
,,,,,,,,,,5f2fda9d8f06be3d79b0371d,36,Mężczyzna,2022-05-28_09h09.10.855,task,2021.1.4,Win32,60.0240096,628b806c463b948bc644b84f,6291ca74569bb4fb3772a70e,,,,,5,0,5,0,1,"X V Q F H G B L J M P D K C T S W R N Z
",,,,,,,,,,,,,,,,,,,,,,,,,,,,,,,,,,,,,,,,,,,,,,,,,,,,,,,,,,,,,,,,,,,,,,,,,,,,,,,,,,,,,,,,,,,,,
,,,,,,,,,,5f2fda9d8f06be3d79b0371d,36,Mężczyzna,2022-05-28_09h09.10.855,task,2021.1.4,Win32,60.0240096,628b806c463b948bc644b84f,6291ca74569bb4fb3772a70e,,,,,6,0,6,0,1,"X V Q F H G B L J M P D K C T S W R N Z
",,,,,,,,,,,,,,,,,,,,,,,,,,,,,,,,,,,,,,,,,,,,,,,,,,,,,,,,,,,,,,,,,,,,,,,,,,,,,,,,,,,,,,,,,,,,,
,,,,,,,,,,5f2fda9d8f06be3d79b0371d,36,Mężczyzna,2022-05-28_09h09.10.855,task,2021.1.4,Win32,60.0240096,628b806c463b948bc644b84f,6291ca74569bb4fb3772a70e,,,,,7,0,7,0,1,"X V Q F H G B L J M P D K C T S W R N Z
",,,,,,,,,,,,,,,,,,,,,,,,,,,,,,,,,,,,,,,,,,,,,,,,,,,,,,,,,,,,,,,,,,,,,,,,,,,,,,,,,,,,,,,,,,,,,
,,,,,,,,,,5f2fda9d8f06be3d79b0371d,36,Mężczyzna,2022-05-28_09h09.10.855,task,2021.1.4,Win32,60.0240096,628b806c463b948bc644b84f,6291ca74569bb4fb3772a70e,,,,,8,0,8,0,1,"X V Q F H G B L J M P D K C T S W R N Z
",,,,,,,,,,,,,,,,,,,,,,,,,,,,,,,,,,,,,,,,,,,,,,,,,,,,,,,,,,,,,,,,,,,,,,,,,,,,,,,,,,,,,,,,,,,,,
,,,,,,,,,,5f2fda9d8f06be3d79b0371d,36,Mężczyzna,2022-05-28_09h09.10.855,task,2021.1.4,Win32,60.0240096,628b806c463b948bc644b84f,6291ca74569bb4fb3772a70e,,,,,9,0,9,0,1,"X V Q F H G B L J M P D K C T S W R N Z
",,,,,,,,,,,,,,,,,,,,,,,,,,,,,,,,,,,,,,,,,,,,,,,,,,,,,,,,,,,,,,,,,,,,,,,,,,,,,,,,,,,,,,,,,,,,,
,,,,,,,,,,5f2fda9d8f06be3d79b0371d,36,Mężczyzna,2022-05-28_09h09.10.855,task,2021.1.4,Win32,60.0240096,628b806c463b948bc644b84f,6291ca74569bb4fb3772a70e,,,,,,,,,,,lwkfjpcvpn,"[""l"",""w"",""k"",""f"",""j"",""p"",""c"",""v"",""p"",""n""]","[2.243000000000052,3.1399999999999864,4.508000000000038,5.858000000000061,7.272000000000048,8.272000000000048,9.632000000000062,10.687000000000012,11.418999999999983,13.149000000000001,14.052999999999997]",1,LWKFJPCVPN,21,0,21,0,1,,,,,,,,,,,,,,,,,,,,,,,,,,,,,,,,,,,,,,,,,,,,,,,,,,,,,,,,,,,,,,,,,,,,,,,,,,,,,,,,,,,
,,,,,,,,,,5f2fda9d8f06be3d79b0371d,36,Mężczyzna,2022-05-28_09h09.10.855,task,2021.1.4,Win32,60.0240096,628b806c463b948bc644b84f,6291ca74569bb4fb3772a70e,,,,,0,0,0,0,1,"X V Q F H G B L J M P D K C T S W R N Z
",,,,,,,,,,,,,,,,,,,,,,,,,,,,,,,,,,,,,,,,,,,,,,,,,,,,,,,,,,,,,,,,,,,,,,,,,,,,,,,,,,,,,,,,,,,,,
,,,,,,,,,,5f2fda9d8f06be3d79b0371d,36,Mężczyzna,2022-05-28_09h09.10.855,task,2021.1.4,Win32,60.0240096,628b806c463b948bc644b84f,6291ca74569bb4fb3772a70e,,,,,1,0,1,0,1,"X V Q F H G B L J M P D K C T S W R N Z
",,,,,,,,,,,,,,,,,,,,,,,,,,,,,,,,,,,,,,,,,,,,,,,,,,,,,,,,,,,,,,,,,,,,,,,,,,,,,,,,,,,,,,,,,,,,,
,,,,,,,,,,5f2fda9d8f06be3d79b0371d,36,Mężczyzna,2022-05-28_09h09.10.855,task,2021.1.4,Win32,60.0240096,628b806c463b948bc644b84f,6291ca74569bb4fb3772a70e,,,,,2,0,2,0,1,"X V Q F H G B L J M P D K C T S W R N Z
",,,,,,,,,,,,,,,,,,,,,,,,,,,,,,,,,,,,,,,,,,,,,,,,,,,,,,,,,,,,,,,,,,,,,,,,,,,,,,,,,,,,,,,,,,,,,
,,,,,,,,,,5f2fda9d8f06be3d79b0371d,36,Mężczyzna,2022-05-28_09h09.10.855,task,2021.1.4,Win32,60.0240096,628b806c463b948bc644b84f,6291ca74569bb4fb3772a70e,,,,,3,0,3,0,1,"X V Q F H G B L J M P D K C T S W R N Z
",,,,,,,,,,,,,,,,,,,,,,,,,,,,,,,,,,,,,,,,,,,,,,,,,,,,,,,,,,,,,,,,,,,,,,,,,,,,,,,,,,,,,,,,,,,,,
,,,,,,,,,,5f2fda9d8f06be3d79b0371d,36,Mężczyzna,2022-05-28_09h09.10.855,task,2021.1.4,Win32,60.0240096,628b806c463b948bc644b84f,6291ca74569bb4fb3772a70e,,,,,4,0,4,0,1,"X V Q F H G B L J M P D K C T S W R N Z
",,,,,,,,,,,,,,,,,,,,,,,,,,,,,,,,,,,,,,,,,,,,,,,,,,,,,,,,,,,,,,,,,,,,,,,,,,,,,,,,,,,,,,,,,,,,,
,,,,,,,,,,5f2fda9d8f06be3d79b0371d,36,Mężczyzna,2022-05-28_09h09.10.855,task,2021.1.4,Win32,60.0240096,628b806c463b948bc644b84f,6291ca74569bb4fb3772a70e,,,,,5,0,5,0,1,"X V Q F H G B L J M P D K C T S W R N Z
",,,,,,,,,,,,,,,,,,,,,,,,,,,,,,,,,,,,,,,,,,,,,,,,,,,,,,,,,,,,,,,,,,,,,,,,,,,,,,,,,,,,,,,,,,,,,
,,,,,,,,,,5f2fda9d8f06be3d79b0371d,36,Mężczyzna,2022-05-28_09h09.10.855,task,2021.1.4,Win32,60.0240096,628b806c463b948bc644b84f,6291ca74569bb4fb3772a70e,,,,,6,0,6,0,1,"X V Q F H G B L J M P D K C T S W R N Z
",,,,,,,,,,,,,,,,,,,,,,,,,,,,,,,,,,,,,,,,,,,,,,,,,,,,,,,,,,,,,,,,,,,,,,,,,,,,,,,,,,,,,,,,,,,,,
,,,,,,,,,,5f2fda9d8f06be3d79b0371d,36,Mężczyzna,2022-05-28_09h09.10.855,task,2021.1.4,Win32,60.0240096,628b806c463b948bc644b84f,6291ca74569bb4fb3772a70e,,,,,7,0,7,0,1,"X V Q F H G B L J M P D K C T S W R N Z
",,,,,,,,,,,,,,,,,,,,,,,,,,,,,,,,,,,,,,,,,,,,,,,,,,,,,,,,,,,,,,,,,,,,,,,,,,,,,,,,,,,,,,,,,,,,,
,,,,,,,,,,5f2fda9d8f06be3d79b0371d,36,Mężczyzna,2022-05-28_09h09.10.855,task,2021.1.4,Win32,60.0240096,628b806c463b948bc644b84f,6291ca74569bb4fb3772a70e,,,,,8,0,8,0,1,"X V Q F H G B L J M P D K C T S W R N Z
",,,,,,,,,,,,,,,,,,,,,,,,,,,,,,,,,,,,,,,,,,,,,,,,,,,,,,,,,,,,,,,,,,,,,,,,,,,,,,,,,,,,,,,,,,,,,
,,,,,,,,,,5f2fda9d8f06be3d79b0371d,36,Mężczyzna,2022-05-28_09h09.10.855,task,2021.1.4,Win32,60.0240096,628b806c463b948bc644b84f,6291ca74569bb4fb3772a70e,,,,,9,0,9,0,1,"X V Q F H G B L J M P D K C T S W R N Z
",,,,,,,,,,,,,,,,,,,,,,,,,,,,,,,,,,,,,,,,,,,,,,,,,,,,,,,,,,,,,,,,,,,,,,,,,,,,,,,,,,,,,,,,,,,,,
,,,,,,,,,,5f2fda9d8f06be3d79b0371d,36,Mężczyzna,2022-05-28_09h09.10.855,task,2021.1.4,Win32,60.0240096,628b806c463b948bc644b84f,6291ca74569bb4fb3772a70e,,,,,,,,,,,bkpnbqwscp,"[""b"",""k"",""p"",""n"",""b"",""q"",""w"",""s"",""c"",""p""]","[3.562000000000012,4.967999999999961,8.48599999999999,10.244000000000028,11.341000000000008,12.274999999999977,14.773000000000025,15.355999999999995,16.241999999999962,16.710000000000036,17.658000000000015]",0,BKRNBQWSCP,22,0,22,0,1,,,,,,,,,,,,,,,,,,,,,,,,,,,,,,,,,,,,,,,,,,,,,,,,,,,,,,,,,,,,,,,,,,,,,,,,,,,,,,,,,,,
,,,,,,,,,,5f2fda9d8f06be3d79b0371d,36,Mężczyzna,2022-05-28_09h09.10.855,task,2021.1.4,Win32,60.0240096,628b806c463b948bc644b84f,6291ca74569bb4fb3772a70e,,,,,0,0,0,0,1,"X V Q F H G B L J M P D K C T S W R N Z
",,,,,,,,,,,,,,,,,,,,,,,,,,,,,,,,,,,,,,,,,,,,,,,,,,,,,,,,,,,,,,,,,,,,,,,,,,,,,,,,,,,,,,,,,,,,,
,,,,,,,,,,5f2fda9d8f06be3d79b0371d,36,Mężczyzna,2022-05-28_09h09.10.855,task,2021.1.4,Win32,60.0240096,628b806c463b948bc644b84f,6291ca74569bb4fb3772a70e,,,,,1,0,1,0,1,"X V Q F H G B L J M P D K C T S W R N Z
",,,,,,,,,,,,,,,,,,,,,,,,,,,,,,,,,,,,,,,,,,,,,,,,,,,,,,,,,,,,,,,,,,,,,,,,,,,,,,,,,,,,,,,,,,,,,
,,,,,,,,,,5f2fda9d8f06be3d79b0371d,36,Mężczyzna,2022-05-28_09h09.10.855,task,2021.1.4,Win32,60.0240096,628b806c463b948bc644b84f,6291ca74569bb4fb3772a70e,,,,,2,0,2,0,1,"X V Q F H G B L J M P D K C T S W R N Z
",,,,,,,,,,,,,,,,,,,,,,,,,,,,,,,,,,,,,,,,,,,,,,,,,,,,,,,,,,,,,,,,,,,,,,,,,,,,,,,,,,,,,,,,,,,,,
,,,,,,,,,,5f2fda9d8f06be3d79b0371d,36,Mężczyzna,2022-05-28_09h09.10.855,task,2021.1.4,Win32,60.0240096,628b806c463b948bc644b84f,6291ca74569bb4fb3772a70e,,,,,3,0,3,0,1,"X V Q F H G B L J M P D K C T S W R N Z
",,,,,,,,,,,,,,,,,,,,,,,,,,,,,,,,,,,,,,,,,,,,,,,,,,,,,,,,,,,,,,,,,,,,,,,,,,,,,,,,,,,,,,,,,,,,,
,,,,,,,,,,5f2fda9d8f06be3d79b0371d,36,Mężczyzna,2022-05-28_09h09.10.855,task,2021.1.4,Win32,60.0240096,628b806c463b948bc644b84f,6291ca74569bb4fb3772a70e,,,,,4,0,4,0,1,"X V Q F H G B L J M P D K C T S W R N Z
",,,,,,,,,,,,,,,,,,,,,,,,,,,,,,,,,,,,,,,,,,,,,,,,,,,,,,,,,,,,,,,,,,,,,,,,,,,,,,,,,,,,,,,,,,,,,
,,,,,,,,,,5f2fda9d8f06be3d79b0371d,36,Mężczyzna,2022-05-28_09h09.10.855,task,2021.1.4,Win32,60.0240096,628b806c463b948bc644b84f,6291ca74569bb4fb3772a70e,,,,,5,0,5,0,1,"X V Q F H G B L J M P D K C T S W R N Z
",,,,,,,,,,,,,,,,,,,,,,,,,,,,,,,,,,,,,,,,,,,,,,,,,,,,,,,,,,,,,,,,,,,,,,,,,,,,,,,,,,,,,,,,,,,,,
,,,,,,,,,,5f2fda9d8f06be3d79b0371d,36,Mężczyzna,2022-05-28_09h09.10.855,task,2021.1.4,Win32,60.0240096,628b806c463b948bc644b84f,6291ca74569bb4fb3772a70e,,,,,6,0,6,0,1,"X V Q F H G B L J M P D K C T S W R N Z
",,,,,,,,,,,,,,,,,,,,,,,,,,,,,,,,,,,,,,,,,,,,,,,,,,,,,,,,,,,,,,,,,,,,,,,,,,,,,,,,,,,,,,,,,,,,,
,,,,,,,,,,5f2fda9d8f06be3d79b0371d,36,Mężczyzna,2022-05-28_09h09.10.855,task,2021.1.4,Win32,60.0240096,628b806c463b948bc644b84f,6291ca74569bb4fb3772a70e,,,,,7,0,7,0,1,"X V Q F H G B L J M P D K C T S W R N Z
",,,,,,,,,,,,,,,,,,,,,,,,,,,,,,,,,,,,,,,,,,,,,,,,,,,,,,,,,,,,,,,,,,,,,,,,,,,,,,,,,,,,,,,,,,,,,
,,,,,,,,,,5f2fda9d8f06be3d79b0371d,36,Mężczyzna,2022-05-28_09h09.10.855,task,2021.1.4,Win32,60.0240096,628b806c463b948bc644b84f,6291ca74569bb4fb3772a70e,,,,,8,0,8,0,1,"X V Q F H G B L J M P D K C T S W R N Z
",,,,,,,,,,,,,,,,,,,,,,,,,,,,,,,,,,,,,,,,,,,,,,,,,,,,,,,,,,,,,,,,,,,,,,,,,,,,,,,,,,,,,,,,,,,,,
,,,,,,,,,,5f2fda9d8f06be3d79b0371d,36,Mężczyzna,2022-05-28_09h09.10.855,task,2021.1.4,Win32,60.0240096,628b806c463b948bc644b84f,6291ca74569bb4fb3772a70e,,,,,9,0,9,0,1,"X V Q F H G B L J M P D K C T S W R N Z
",,,,,,,,,,,,,,,,,,,,,,,,,,,,,,,,,,,,,,,,,,,,,,,,,,,,,,,,,,,,,,,,,,,,,,,,,,,,,,,,,,,,,,,,,,,,,
,,,,,,,,,,5f2fda9d8f06be3d79b0371d,36,Mężczyzna,2022-05-28_09h09.10.855,task,2021.1.4,Win32,60.0240096,628b806c463b948bc644b84f,6291ca74569bb4fb3772a70e,,,,,,,,,,,zpvrlqpdzm,"[""z"",""p"",""v"",""r"",""l"",""q"",""p"",""d"",""z"",""m""]","[3.0149999999999864,3.7350000000000136,5.76400000000001,6.596000000000004,11.658999999999992,12.275999999999954,13.057000000000016,15.226999999999975,15.643000000000029,16.073999999999955,17.20900000000006]",0,"Z
PVKLQRDZ
M",23,0,23,0,1,,,,,,,,,,,,,,,,,,,,,,,,,,,,,,,,,,,,,,,,,,,,,,,,,,,,,,,,,,,,,,,,,,,,,,,,,,,,,,,,,,,
,,,,,,,,,,5f2fda9d8f06be3d79b0371d,36,Mężczyzna,2022-05-28_09h09.10.855,task,2021.1.4,Win32,60.0240096,628b806c463b948bc644b84f,6291ca74569bb4fb3772a70e,,,,,0,0,0,0,1,"X V Q F H G B L J M P D K C T S W R N Z
",,,,,,,,,,,,,,,,,,,,,,,,,,,,,,,,,,,,,,,,,,,,,,,,,,,,,,,,,,,,,,,,,,,,,,,,,,,,,,,,,,,,,,,,,,,,,
,,,,,,,,,,5f2fda9d8f06be3d79b0371d,36,Mężczyzna,2022-05-28_09h09.10.855,task,2021.1.4,Win32,60.0240096,628b806c463b948bc644b84f,6291ca74569bb4fb3772a70e,,,,,1,0,1,0,1,"X V Q F H G B L J M P D K C T S W R N Z
",,,,,,,,,,,,,,,,,,,,,,,,,,,,,,,,,,,,,,,,,,,,,,,,,,,,,,,,,,,,,,,,,,,,,,,,,,,,,,,,,,,,,,,,,,,,,
,,,,,,,,,,5f2fda9d8f06be3d79b0371d,36,Mężczyzna,2022-05-28_09h09.10.855,task,2021.1.4,Win32,60.0240096,628b806c463b948bc644b84f,6291ca74569bb4fb3772a70e,,,,,2,0,2,0,1,"X V Q F H G B L J M P D K C T S W R N Z
",,,,,,,,,,,,,,,,,,,,,,,,,,,,,,,,,,,,,,,,,,,,,,,,,,,,,,,,,,,,,,,,,,,,,,,,,,,,,,,,,,,,,,,,,,,,,
,,,,,,,,,,5f2fda9d8f06be3d79b0371d,36,Mężczyzna,2022-05-28_09h09.10.855,task,2021.1.4,Win32,60.0240096,628b806c463b948bc644b84f,6291ca74569bb4fb3772a70e,,,,,3,0,3,0,1,"X V Q F H G B L J M P D K C T S W R N Z
",,,,,,,,,,,,,,,,,,,,,,,,,,,,,,,,,,,,,,,,,,,,,,,,,,,,,,,,,,,,,,,,,,,,,,,,,,,,,,,,,,,,,,,,,,,,,
,,,,,,,,,,5f2fda9d8f06be3d79b0371d,36,Mężczyzna,2022-05-28_09h09.10.855,task,2021.1.4,Win32,60.0240096,628b806c463b948bc644b84f,6291ca74569bb4fb3772a70e,,,,,4,0,4,0,1,"X V Q F H G B L J M P D K C T S W R N Z
",,,,,,,,,,,,,,,,,,,,,,,,,,,,,,,,,,,,,,,,,,,,,,,,,,,,,,,,,,,,,,,,,,,,,,,,,,,,,,,,,,,,,,,,,,,,,
,,,,,,,,,,5f2fda9d8f06be3d79b0371d,36,Mężczyzna,2022-05-28_09h09.10.855,task,2021.1.4,Win32,60.0240096,628b806c463b948bc644b84f,6291ca74569bb4fb3772a70e,,,,,5,0,5,0,1,"X V Q F H G B L J M P D K C T S W R N Z
",,,,,,,,,,,,,,,,,,,,,,,,,,,,,,,,,,,,,,,,,,,,,,,,,,,,,,,,,,,,,,,,,,,,,,,,,,,,,,,,,,,,,,,,,,,,,
,,,,,,,,,,5f2fda9d8f06be3d79b0371d,36,Mężczyzna,2022-05-28_09h09.10.855,task,2021.1.4,Win32,60.0240096,628b806c463b948bc644b84f,6291ca74569bb4fb3772a70e,,,,,6,0,6,0,1,"X V Q F H G B L J M P D K C T S W R N Z
",,,,,,,,,,,,,,,,,,,,,,,,,,,,,,,,,,,,,,,,,,,,,,,,,,,,,,,,,,,,,,,,,,,,,,,,,,,,,,,,,,,,,,,,,,,,,
,,,,,,,,,,5f2fda9d8f06be3d79b0371d,36,Mężczyzna,2022-05-28_09h09.10.855,task,2021.1.4,Win32,60.0240096,628b806c463b948bc644b84f,6291ca74569bb4fb3772a70e,,,,,7,0,7,0,1,"X V Q F H G B L J M P D K C T S W R N Z
",,,,,,,,,,,,,,,,,,,,,,,,,,,,,,,,,,,,,,,,,,,,,,,,,,,,,,,,,,,,,,,,,,,,,,,,,,,,,,,,,,,,,,,,,,,,,
,,,,,,,,,,5f2fda9d8f06be3d79b0371d,36,Mężczyzna,2022-05-28_09h09.10.855,task,2021.1.4,Win32,60.0240096,628b806c463b948bc644b84f,6291ca74569bb4fb3772a70e,,,,,8,0,8,0,1,"X V Q F H G B L J M P D K C T S W R N Z
",,,,,,,,,,,,,,,,,,,,,,,,,,,,,,,,,,,,,,,,,,,,,,,,,,,,,,,,,,,,,,,,,,,,,,,,,,,,,,,,,,,,,,,,,,,,,
,,,,,,,,,,5f2fda9d8f06be3d79b0371d,36,Mężczyzna,2022-05-28_09h09.10.855,task,2021.1.4,Win32,60.0240096,628b806c463b948bc644b84f,6291ca74569bb4fb3772a70e,,,,,9,0,9,0,1,"X V Q F H G B L J M P D K C T S W R N Z
",,,,,,,,,,,,,,,,,,,,,,,,,,,,,,,,,,,,,,,,,,,,,,,,,,,,,,,,,,,,,,,,,,,,,,,,,,,,,,,,,,,,,,,,,,,,,
,,,,,,,,,,5f2fda9d8f06be3d79b0371d,36,Mężczyzna,2022-05-28_09h09.10.855,task,2021.1.4,Win32,60.0240096,628b806c463b948bc644b84f,6291ca74569bb4fb3772a70e,,,,,,,,,,,cppbngpxtn,"[""c"",""p"",""p"",""b"",""n"",""g"",""p"",""x"",""t"",""n""]","[3.0249999999999773,3.9969999999999573,4.212999999999965,5.294999999999959,5.52800000000002,8.460000000000036,8.995000000000005,9.744000000000028,11.219000000000051,11.611999999999966,12.758000000000038]",1,CPPBNGPXTN,24,0,24,0,1,,,,,,,,,,,,,,,,,,,,,,,,,,,,,,,,,,,,,,,,,,,,,,,,,,,,,,,,,,,,,,,,,,,,,,,,,,,,,,,,,,,
,,,,,,,,,,5f2fda9d8f06be3d79b0371d,36,Mężczyzna,2022-05-28_09h09.10.855,task,2021.1.4,Win32,60.0240096,628b806c463b948bc644b84f,6291ca74569bb4fb3772a70e,,,,,0,0,0,0,1,"X V Q F H G B L J M P D K C T S W R N Z
",,,,,,,,,,,,,,,,,,,,,,,,,,,,,,,,,,,,,,,,,,,,,,,,,,,,,,,,,,,,,,,,,,,,,,,,,,,,,,,,,,,,,,,,,,,,,
,,,,,,,,,,5f2fda9d8f06be3d79b0371d,36,Mężczyzna,2022-05-28_09h09.10.855,task,2021.1.4,Win32,60.0240096,628b806c463b948bc644b84f,6291ca74569bb4fb3772a70e,,,,,1,0,1,0,1,"X V Q F H G B L J M P D K C T S W R N Z
",,,,,,,,,,,,,,,,,,,,,,,,,,,,,,,,,,,,,,,,,,,,,,,,,,,,,,,,,,,,,,,,,,,,,,,,,,,,,,,,,,,,,,,,,,,,,
,,,,,,,,,,5f2fda9d8f06be3d79b0371d,36,Mężczyzna,2022-05-28_09h09.10.855,task,2021.1.4,Win32,60.0240096,628b806c463b948bc644b84f,6291ca74569bb4fb3772a70e,,,,,2,0,2,0,1,"X V Q F H G B L J M P D K C T S W R N Z
",,,,,,,,,,,,,,,,,,,,,,,,,,,,,,,,,,,,,,,,,,,,,,,,,,,,,,,,,,,,,,,,,,,,,,,,,,,,,,,,,,,,,,,,,,,,,
,,,,,,,,,,5f2fda9d8f06be3d79b0371d,36,Mężczyzna,2022-05-28_09h09.10.855,task,2021.1.4,Win32,60.0240096,628b806c463b948bc644b84f,6291ca74569bb4fb3772a70e,,,,,3,0,3,0,1,"X V Q F H G B L J M P D K C T S W R N Z
",,,,,,,,,,,,,,,,,,,,,,,,,,,,,,,,,,,,,,,,,,,,,,,,,,,,,,,,,,,,,,,,,,,,,,,,,,,,,,,,,,,,,,,,,,,,,
,,,,,,,,,,5f2fda9d8f06be3d79b0371d,36,Mężczyzna,2022-05-28_09h09.10.855,task,2021.1.4,Win32,60.0240096,628b806c463b948bc644b84f,6291ca74569bb4fb3772a70e,,,,,4,0,4,0,1,"X V Q F H G B L J M P D K C T S W R N Z
",,,,,,,,,,,,,,,,,,,,,,,,,,,,,,,,,,,,,,,,,,,,,,,,,,,,,,,,,,,,,,,,,,,,,,,,,,,,,,,,,,,,,,,,,,,,,
,,,,,,,,,,5f2fda9d8f06be3d79b0371d,36,Mężczyzna,2022-05-28_09h09.10.855,task,2021.1.4,Win32,60.0240096,628b806c463b948bc644b84f,6291ca74569bb4fb3772a70e,,,,,5,0,5,0,1,"X V Q F H G B L J M P D K C T S W R N Z
",,,,,,,,,,,,,,,,,,,,,,,,,,,,,,,,,,,,,,,,,,,,,,,,,,,,,,,,,,,,,,,,,,,,,,,,,,,,,,,,,,,,,,,,,,,,,
,,,,,,,,,,5f2fda9d8f06be3d79b0371d,36,Mężczyzna,2022-05-28_09h09.10.855,task,2021.1.4,Win32,60.0240096,628b806c463b948bc644b84f,6291ca74569bb4fb3772a70e,,,,,6,0,6,0,1,"X V Q F H G B L J M P D K C T S W R N Z
",,,,,,,,,,,,,,,,,,,,,,,,,,,,,,,,,,,,,,,,,,,,,,,,,,,,,,,,,,,,,,,,,,,,,,,,,,,,,,,,,,,,,,,,,,,,,
