key_resp_15.keys,key_resp_15.rt,key_resp_16.keys,key_resp_16.rt,key_resp_4.keys,key_resp_4.rt,next_letter.thisRepN,next_letter.thisTrialN,next_letter.thisN,next_letter.thisIndex,next_letter.ran,letter,participant,Wiek*,Płeć,date,expName,psychopyVersion,OS,frameRate,study_id,session,simple_recall,key_resp_5.keys,key_resp_5.rt,simple_recall_corr,simple_recall_corrkeys,next_level.thisRepN,next_level.thisTrialN,next_level.thisN,next_level.thisIndex,next_level.ran,key_resp_2.keys,key_resp_2.rt,digit_answer,key_resp.keys,key_resp.corr,key_resp.rt,RT_list,next_equation.thisRepN,next_equation.thisTrialN,next_equation.thisN,next_equation.thisIndex,next_equation.ran,Task,Trial,Problem,Operation_answer,processing_score,sumRT,meanRT,sumdiff,sd,RT,key_resp_3.keys,key_resp_3.rt,repeat_practice.thisRepN,repeat_practice.thisTrialN,repeat_practice.thisN,repeat_practice.thisIndex,repeat_practice.ran,key_resp_6.keys,key_resp_6.rt,key_resp_11.keys,key_resp_11.corr,key_resp_11.rt,operation_correct,repeat_if_wrong_prac.thisRepN,repeat_if_wrong_prac.thisTrialN,repeat_if_wrong_prac.thisN,repeat_if_wrong_prac.thisIndex,repeat_if_wrong_prac.ran,span_size_prac.thisRepN,span_size_prac.thisTrialN,span_size_prac.thisN,span_size_prac.thisIndex,span_size_prac.ran,complex_recall_practice,key_resp_9.keys,key_resp_9.corr,key_resp_9.rt,complex_prac_corr,span_recall_prac.thisRepN,span_recall_prac.thisTrialN,span_recall_prac.thisN,span_recall_prac.thisIndex,span_recall_prac.ran,key_resp_10.keys,key_resp_10.rt,key_resp_7.keys,key_resp_7.corr,key_resp_7.rt,repeat_if_wrong.thisRepN,repeat_if_wrong.thisTrialN,repeat_if_wrong.thisN,repeat_if_wrong.thisIndex,repeat_if_wrong.ran,span_size.thisRepN,span_size.thisTrialN,span_size.thisN,span_size.thisIndex,span_size.ran,complex_recall,key_resp_8.keys,key_resp_8.corr,key_resp_8.rt,complex_recall_corr,complex_recall_corrkeys,span_recall.thisRepN,span_recall.thisTrialN,span_recall.thisN,span_recall.thisIndex,span_recall.ran,key_resp_13.keys,key_resp_13.corr,key_resp_13.rt,random_loop.thisRepN,random_loop.thisTrialN,random_loop.thisN,random_loop.thisIndex,random_loop.ran,key_resp_12.keys,key_resp_12.rt
space,9.9856,space,83.3326,space,7.523,0,0,0,0,1,X V Q F H G B L J M P D K C T S W R N Z,5f3aee04e30eac7cb73b416e,26,Mężczyzna,2022-06-25_15h34.20.955,task,2021.1.4,Win32,162.73393,6299f149e92ead563fba08ef,62b70e44c88a7da0418fa21d,,,,,,,,,,,,,,,,,,,,,,,,,,,,,,,,,,,,,,,,,,,,,,,,,,,,,,,,,,,,,,,,,,,,,,,,,,,,,,,,,,,,,,,,,,,,,,,,,,,,,
,,,,,,1,0,1,0,1,X V Q F H G B L J M P D K C T S W R N Z,5f3aee04e30eac7cb73b416e,26,Mężczyzna,2022-06-25_15h34.20.955,task,2021.1.4,Win32,162.73393,6299f149e92ead563fba08ef,62b70e44c88a7da0418fa21d,,,,,,,,,,,,,,,,,,,,,,,,,,,,,,,,,,,,,,,,,,,,,,,,,,,,,,,,,,,,,,,,,,,,,,,,,,,,,,,,,,,,,,,,,,,,,,,,,,,,,
,,,,,,,,,,,,5f3aee04e30eac7cb73b416e,26,Mężczyzna,2022-06-25_15h34.20.955,task,2021.1.4,Win32,162.73393,6299f149e92ead563fba08ef,62b70e44c88a7da0418fa21d,zb,"[""z"",""b""]","[1.6142000000477026,1.6922000000477055,2.9001000001430555]",1,ZB,0,0,0,0,1,,,,,,,,,,,,,,,,,,,,,,,,,,,,,,,,,,,,,,,,,,,,,,,,,,,,,,,,,,,,,,,,,,,,,,,,,,,,,,,,,,,,,,,,,,,
,,,,,,0,0,0,0,1,X V Q F H G B L J M P D K C T S W R N Z,5f3aee04e30eac7cb73b416e,26,Mężczyzna,2022-06-25_15h34.20.955,task,2021.1.4,Win32,162.73393,6299f149e92ead563fba08ef,62b70e44c88a7da0418fa21d,,,,,,,,,,,,,,,,,,,,,,,,,,,,,,,,,,,,,,,,,,,,,,,,,,,,,,,,,,,,,,,,,,,,,,,,,,,,,,,,,,,,,,,,,,,,,,,,,,,,,
,,,,,,1,0,1,0,1,X V Q F H G B L J M P D K C T S W R N Z,5f3aee04e30eac7cb73b416e,26,Mężczyzna,2022-06-25_15h34.20.955,task,2021.1.4,Win32,162.73393,6299f149e92ead563fba08ef,62b70e44c88a7da0418fa21d,,,,,,,,,,,,,,,,,,,,,,,,,,,,,,,,,,,,,,,,,,,,,,,,,,,,,,,,,,,,,,,,,,,,,,,,,,,,,,,,,,,,,,,,,,,,,,,,,,,,,
,,,,,,,,,,,,5f3aee04e30eac7cb73b416e,26,Mężczyzna,2022-06-25_15h34.20.955,task,2021.1.4,Win32,162.73393,6299f149e92ead563fba08ef,62b70e44c88a7da0418fa21d,wm,"[""w"",""m""]","[0.600900000095379,0.9879999999999995,2.064200000047691]",1,WM,1,0,1,0,1,,,,,,,,,,,,,,,,,,,,,,,,,,,,,,,,,,,,,,,,,,,,,,,,,,,,,,,,,,,,,,,,,,,,,,,,,,,,,,,,,,,,,,,,,,,
,,,,,,0,0,0,0,1,X V Q F H G B L J M P D K C T S W R N Z,5f3aee04e30eac7cb73b416e,26,Mężczyzna,2022-06-25_15h34.20.955,task,2021.1.4,Win32,162.73393,6299f149e92ead563fba08ef,62b70e44c88a7da0418fa21d,,,,,,,,,,,,,,,,,,,,,,,,,,,,,,,,,,,,,,,,,,,,,,,,,,,,,,,,,,,,,,,,,,,,,,,,,,,,,,,,,,,,,,,,,,,,,,,,,,,,,
,,,,,,1,0,1,0,1,X V Q F H G B L J M P D K C T S W R N Z,5f3aee04e30eac7cb73b416e,26,Mężczyzna,2022-06-25_15h34.20.955,task,2021.1.4,Win32,162.73393,6299f149e92ead563fba08ef,62b70e44c88a7da0418fa21d,,,,,,,,,,,,,,,,,,,,,,,,,,,,,,,,,,,,,,,,,,,,,,,,,,,,,,,,,,,,,,,,,,,,,,,,,,,,,,,,,,,,,,,,,,,,,,,,,,,,,
,,,,,,2,0,2,0,1,X V Q F H G B L J M P D K C T S W R N Z,5f3aee04e30eac7cb73b416e,26,Mężczyzna,2022-06-25_15h34.20.955,task,2021.1.4,Win32,162.73393,6299f149e92ead563fba08ef,62b70e44c88a7da0418fa21d,,,,,,,,,,,,,,,,,,,,,,,,,,,,,,,,,,,,,,,,,,,,,,,,,,,,,,,,,,,,,,,,,,,,,,,,,,,,,,,,,,,,,,,,,,,,,,,,,,,,,
,,,,,,,,,,,,5f3aee04e30eac7cb73b416e,26,Mężczyzna,2022-06-25_15h34.20.955,task,2021.1.4,Win32,162.73393,6299f149e92ead563fba08ef,62b70e44c88a7da0418fa21d,ghf,"[""g"",""h"",""f""]","[1.2424000000953583,1.4550000000000125,1.615200000047679,3.2413000001907335]",1,GHF,2,0,2,0,1,,,,,,,,,,,,,,,,,,,,,,,,,,,,,,,,,,,,,,,,,,,,,,,,,,,,,,,,,,,,,,,,,,,,,,,,,,,,,,,,,,,,,,,,,,,
,,,,,,0,0,0,0,1,X V Q F H G B L J M P D K C T S W R N Z,5f3aee04e30eac7cb73b416e,26,Mężczyzna,2022-06-25_15h34.20.955,task,2021.1.4,Win32,162.73393,6299f149e92ead563fba08ef,62b70e44c88a7da0418fa21d,,,,,,,,,,,,,,,,,,,,,,,,,,,,,,,,,,,,,,,,,,,,,,,,,,,,,,,,,,,,,,,,,,,,,,,,,,,,,,,,,,,,,,,,,,,,,,,,,,,,,
,,,,,,1,0,1,0,1,X V Q F H G B L J M P D K C T S W R N Z,5f3aee04e30eac7cb73b416e,26,Mężczyzna,2022-06-25_15h34.20.955,task,2021.1.4,Win32,162.73393,6299f149e92ead563fba08ef,62b70e44c88a7da0418fa21d,,,,,,,,,,,,,,,,,,,,,,,,,,,,,,,,,,,,,,,,,,,,,,,,,,,,,,,,,,,,,,,,,,,,,,,,,,,,,,,,,,,,,,,,,,,,,,,,,,,,,
,,,,,,2,0,2,0,1,X V Q F H G B L J M P D K C T S W R N Z,5f3aee04e30eac7cb73b416e,26,Mężczyzna,2022-06-25_15h34.20.955,task,2021.1.4,Win32,162.73393,6299f149e92ead563fba08ef,62b70e44c88a7da0418fa21d,,,,,,,,,,,,,,,,,,,,,,,,,,,,,,,,,,,,,,,,,,,,,,,,,,,,,,,,,,,,,,,,,,,,,,,,,,,,,,,,,,,,,,,,,,,,,,,,,,,,,
,,,,,,,,,,,,5f3aee04e30eac7cb73b416e,26,Mężczyzna,2022-06-25_15h34.20.955,task,2021.1.4,Win32,162.73393,6299f149e92ead563fba08ef,62b70e44c88a7da0418fa21d,ndn,"[""n"",""d"",""n""]","[0.9937999999523299,1.5640999999046414,1.6322999999523233,2.2501999998092685]",1,NDN,3,0,3,0,1,,,,,,,,,,,,,,,,,,,,,,,,,,,,,,,,,,,,,,,,,,,,,,,,,,,,,,,,,,,,,,,,,,,,,,,,,,,,,,,,,,,,,,,,,,,
,,,,,,0,0,0,0,1,X V Q F H G B L J M P D K C T S W R N Z,5f3aee04e30eac7cb73b416e,26,Mężczyzna,2022-06-25_15h34.20.955,task,2021.1.4,Win32,162.73393,6299f149e92ead563fba08ef,62b70e44c88a7da0418fa21d,,,,,,,,,,,,,,,,,,,,,,,,,,,,,,,,,,,,,,,,,,,,,,,,,,,,,,,,,,,,,,,,,,,,,,,,,,,,,,,,,,,,,,,,,,,,,,,,,,,,,
,,,,,,1,0,1,0,1,X V Q F H G B L J M P D K C T S W R N Z,5f3aee04e30eac7cb73b416e,26,Mężczyzna,2022-06-25_15h34.20.955,task,2021.1.4,Win32,162.73393,6299f149e92ead563fba08ef,62b70e44c88a7da0418fa21d,,,,,,,,,,,,,,,,,,,,,,,,,,,,,,,,,,,,,,,,,,,,,,,,,,,,,,,,,,,,,,,,,,,,,,,,,,,,,,,,,,,,,,,,,,,,,,,,,,,,,
,,,,,,2,0,2,0,1,X V Q F H G B L J M P D K C T S W R N Z,5f3aee04e30eac7cb73b416e,26,Mężczyzna,2022-06-25_15h34.20.955,task,2021.1.4,Win32,162.73393,6299f149e92ead563fba08ef,62b70e44c88a7da0418fa21d,,,,,,,,,,,,,,,,,,,,,,,,,,,,,,,,,,,,,,,,,,,,,,,,,,,,,,,,,,,,,,,,,,,,,,,,,,,,,,,,,,,,,,,,,,,,,,,,,,,,,
,,,,,,3,0,3,0,1,X V Q F H G B L J M P D K C T S W R N Z,5f3aee04e30eac7cb73b416e,26,Mężczyzna,2022-06-25_15h34.20.955,task,2021.1.4,Win32,162.73393,6299f149e92ead563fba08ef,62b70e44c88a7da0418fa21d,,,,,,,,,,,,,,,,,,,,,,,,,,,,,,,,,,,,,,,,,,,,,,,,,,,,,,,,,,,,,,,,,,,,,,,,,,,,,,,,,,,,,,,,,,,,,,,,,,,,,
,,,,,,,,,,,,5f3aee04e30eac7cb73b416e,26,Mężczyzna,2022-06-25_15h34.20.955,task,2021.1.4,Win32,162.73393,6299f149e92ead563fba08ef,62b70e44c88a7da0418fa21d,zfbg,"[""z"",""f"",""b"",""g""]","[1.7696000001430434,2.511800000190732,3.8789999999999907,3.98599999999999,4.663100000143032]",1,ZFBG,4,0,4,0,1,,,,,,,,,,,,,,,,,,,,,,,,,,,,,,,,,,,,,,,,,,,,,,,,,,,,,,,,,,,,,,,,,,,,,,,,,,,,,,,,,,,,,,,,,,,
,,,,,,0,0,0,0,1,X V Q F H G B L J M P D K C T S W R N Z,5f3aee04e30eac7cb73b416e,26,Mężczyzna,2022-06-25_15h34.20.955,task,2021.1.4,Win32,162.73393,6299f149e92ead563fba08ef,62b70e44c88a7da0418fa21d,,,,,,,,,,,,,,,,,,,,,,,,,,,,,,,,,,,,,,,,,,,,,,,,,,,,,,,,,,,,,,,,,,,,,,,,,,,,,,,,,,,,,,,,,,,,,,,,,,,,,
,,,,,,1,0,1,0,1,X V Q F H G B L J M P D K C T S W R N Z,5f3aee04e30eac7cb73b416e,26,Mężczyzna,2022-06-25_15h34.20.955,task,2021.1.4,Win32,162.73393,6299f149e92ead563fba08ef,62b70e44c88a7da0418fa21d,,,,,,,,,,,,,,,,,,,,,,,,,,,,,,,,,,,,,,,,,,,,,,,,,,,,,,,,,,,,,,,,,,,,,,,,,,,,,,,,,,,,,,,,,,,,,,,,,,,,,
,,,,,,2,0,2,0,1,X V Q F H G B L J M P D K C T S W R N Z,5f3aee04e30eac7cb73b416e,26,Mężczyzna,2022-06-25_15h34.20.955,task,2021.1.4,Win32,162.73393,6299f149e92ead563fba08ef,62b70e44c88a7da0418fa21d,,,,,,,,,,,,,,,,,,,,,,,,,,,,,,,,,,,,,,,,,,,,,,,,,,,,,,,,,,,,,,,,,,,,,,,,,,,,,,,,,,,,,,,,,,,,,,,,,,,,,
,,,,,,3,0,3,0,1,X V Q F H G B L J M P D K C T S W R N Z,5f3aee04e30eac7cb73b416e,26,Mężczyzna,2022-06-25_15h34.20.955,task,2021.1.4,Win32,162.73393,6299f149e92ead563fba08ef,62b70e44c88a7da0418fa21d,,,,,,,,,,,,,,,,,,,,,,,,,,,,,,,,,,,,,,,,,,,,,,,,,,,,,,,,,,,,,,,,,,,,,,,,,,,,,,,,,,,,,,,,,,,,,,,,,,,,,
,,,,,,,,,,,,5f3aee04e30eac7cb73b416e,26,Mężczyzna,2022-06-25_15h34.20.955,task,2021.1.4,Win32,162.73393,6299f149e92ead563fba08ef,62b70e44c88a7da0418fa21d,xnph,"[""x"",""n"",""p"",""h""]","[6.05029999995233,6.1412999999523095,6.396000000000015,6.548799999952337,7.252799999952316]",1,XNPH,5,0,5,0,1,,,,,,,,,,,,,,,,,,,,,,,,,,,,,,,,,,,,,,,,,,,,,,,,,,,,,,,,,,,,,,,,,,,,,,,,,,,,,,,,,,,,,,,,,,,
,,,,,,0,0,0,0,1,X V Q F H G B L J M P D K C T S W R N Z,5f3aee04e30eac7cb73b416e,26,Mężczyzna,2022-06-25_15h34.20.955,task,2021.1.4,Win32,162.73393,6299f149e92ead563fba08ef,62b70e44c88a7da0418fa21d,,,,,,,,,,,,,,,,,,,,,,,,,,,,,,,,,,,,,,,,,,,,,,,,,,,,,,,,,,,,,,,,,,,,,,,,,,,,,,,,,,,,,,,,,,,,,,,,,,,,,
,,,,,,1,0,1,0,1,X V Q F H G B L J M P D K C T S W R N Z,5f3aee04e30eac7cb73b416e,26,Mężczyzna,2022-06-25_15h34.20.955,task,2021.1.4,Win32,162.73393,6299f149e92ead563fba08ef,62b70e44c88a7da0418fa21d,,,,,,,,,,,,,,,,,,,,,,,,,,,,,,,,,,,,,,,,,,,,,,,,,,,,,,,,,,,,,,,,,,,,,,,,,,,,,,,,,,,,,,,,,,,,,,,,,,,,,
,,,,,,2,0,2,0,1,X V Q F H G B L J M P D K C T S W R N Z,5f3aee04e30eac7cb73b416e,26,Mężczyzna,2022-06-25_15h34.20.955,task,2021.1.4,Win32,162.73393,6299f149e92ead563fba08ef,62b70e44c88a7da0418fa21d,,,,,,,,,,,,,,,,,,,,,,,,,,,,,,,,,,,,,,,,,,,,,,,,,,,,,,,,,,,,,,,,,,,,,,,,,,,,,,,,,,,,,,,,,,,,,,,,,,,,,
,,,,,,3,0,3,0,1,X V Q F H G B L J M P D K C T S W R N Z,5f3aee04e30eac7cb73b416e,26,Mężczyzna,2022-06-25_15h34.20.955,task,2021.1.4,Win32,162.73393,6299f149e92ead563fba08ef,62b70e44c88a7da0418fa21d,,,,,,,,,,,,,,,,,,,,,,,,,,,,,,,,,,,,,,,,,,,,,,,,,,,,,,,,,,,,,,,,,,,,,,,,,,,,,,,,,,,,,,,,,,,,,,,,,,,,,
,,,,,,4,0,4,0,1,X V Q F H G B L J M P D K C T S W R N Z,5f3aee04e30eac7cb73b416e,26,Mężczyzna,2022-06-25_15h34.20.955,task,2021.1.4,Win32,162.73393,6299f149e92ead563fba08ef,62b70e44c88a7da0418fa21d,,,,,,,,,,,,,,,,,,,,,,,,,,,,,,,,,,,,,,,,,,,,,,,,,,,,,,,,,,,,,,,,,,,,,,,,,,,,,,,,,,,,,,,,,,,,,,,,,,,,,
,,,,,,,,,,,,5f3aee04e30eac7cb73b416e,26,Mężczyzna,2022-06-25_15h34.20.955,task,2021.1.4,Win32,162.73393,6299f149e92ead563fba08ef,62b70e44c88a7da0418fa21d,qlkrs,"[""q"",""l"",""k"",""r"",""s""]","[2.738599999904636,2.830299999952331,3.8950000000000102,4.228399999856947,4.335000000000008,4.988099999904648]",1,QLKRS,6,0,6,0,1,,,,,,,,,,,,,,,,,,,,,,,,,,,,,,,,,,,,,,,,,,,,,,,,,,,,,,,,,,,,,,,,,,,,,,,,,,,,,,,,,,,,,,,,,,,
,,,,,,0,0,0,0,1,X V Q F H G B L J M P D K C T S W R N Z,5f3aee04e30eac7cb73b416e,26,Mężczyzna,2022-06-25_15h34.20.955,task,2021.1.4,Win32,162.73393,6299f149e92ead563fba08ef,62b70e44c88a7da0418fa21d,,,,,,,,,,,,,,,,,,,,,,,,,,,,,,,,,,,,,,,,,,,,,,,,,,,,,,,,,,,,,,,,,,,,,,,,,,,,,,,,,,,,,,,,,,,,,,,,,,,,,
,,,,,,1,0,1,0,1,X V Q F H G B L J M P D K C T S W R N Z,5f3aee04e30eac7cb73b416e,26,Mężczyzna,2022-06-25_15h34.20.955,task,2021.1.4,Win32,162.73393,6299f149e92ead563fba08ef,62b70e44c88a7da0418fa21d,,,,,,,,,,,,,,,,,,,,,,,,,,,,,,,,,,,,,,,,,,,,,,,,,,,,,,,,,,,,,,,,,,,,,,,,,,,,,,,,,,,,,,,,,,,,,,,,,,,,,
,,,,,,2,0,2,0,1,X V Q F H G B L J M P D K C T S W R N Z,5f3aee04e30eac7cb73b416e,26,Mężczyzna,2022-06-25_15h34.20.955,task,2021.1.4,Win32,162.73393,6299f149e92ead563fba08ef,62b70e44c88a7da0418fa21d,,,,,,,,,,,,,,,,,,,,,,,,,,,,,,,,,,,,,,,,,,,,,,,,,,,,,,,,,,,,,,,,,,,,,,,,,,,,,,,,,,,,,,,,,,,,,,,,,,,,,
,,,,,,3,0,3,0,1,X V Q F H G B L J M P D K C T S W R N Z,5f3aee04e30eac7cb73b416e,26,Mężczyzna,2022-06-25_15h34.20.955,task,2021.1.4,Win32,162.73393,6299f149e92ead563fba08ef,62b70e44c88a7da0418fa21d,,,,,,,,,,,,,,,,,,,,,,,,,,,,,,,,,,,,,,,,,,,,,,,,,,,,,,,,,,,,,,,,,,,,,,,,,,,,,,,,,,,,,,,,,,,,,,,,,,,,,
,,,,,,4,0,4,0,1,X V Q F H G B L J M P D K C T S W R N Z,5f3aee04e30eac7cb73b416e,26,Mężczyzna,2022-06-25_15h34.20.955,task,2021.1.4,Win32,162.73393,6299f149e92ead563fba08ef,62b70e44c88a7da0418fa21d,,,,,,,,,,,,,,,,,,,,,,,,,,,,,,,,,,,,,,,,,,,,,,,,,,,,,,,,,,,,,,,,,,,,,,,,,,,,,,,,,,,,,,,,,,,,,,,,,,,,,
,,,,,,,,,,,,5f3aee04e30eac7cb73b416e,26,Mężczyzna,2022-06-25_15h34.20.955,task,2021.1.4,Win32,162.73393,6299f149e92ead563fba08ef,62b70e44c88a7da0418fa21d,lfzwcfmbg,"[""l"",""f"",""z"",""w"",""c"",""f"",""m"",""b"",""g""]","[4.671700000047679,4.745599999904641,6.902500000000003,8.77609999990463,9.208900000095355,9.596000000000004,9.878400000095354,10.326900000095378,11.860200000047683,12.484799999952315]",0,LFWCM,7,0,7,0,1,,,,,,,,,,,,,,,,,,,,,,,,,,,,,,,,,,,,,,,,,,,,,,,,,,,,,,,,,,,,,,,,,,,,,,,,,,,,,,,,,,,,,,,,,,,
,,,,,,0,0,0,0,1,X V Q F H G B L J M P D K C T S W R N Z,5f3aee04e30eac7cb73b416e,26,Mężczyzna,2022-06-25_15h34.20.955,task,2021.1.4,Win32,162.73393,6299f149e92ead563fba08ef,62b70e44c88a7da0418fa21d,,,,,,,,,,,,,,,,,,,,,,,,,,,,,,,,,,,,,,,,,,,,,,,,,,,,,,,,,,,,,,,,,,,,,,,,,,,,,,,,,,,,,,,,,,,,,,,,,,,,,
,,,,,,1,0,1,0,1,X V Q F H G B L J M P D K C T S W R N Z,5f3aee04e30eac7cb73b416e,26,Mężczyzna,2022-06-25_15h34.20.955,task,2021.1.4,Win32,162.73393,6299f149e92ead563fba08ef,62b70e44c88a7da0418fa21d,,,,,,,,,,,,,,,,,,,,,,,,,,,,,,,,,,,,,,,,,,,,,,,,,,,,,,,,,,,,,,,,,,,,,,,,,,,,,,,,,,,,,,,,,,,,,,,,,,,,,
,,,,,,2,0,2,0,1,X V Q F H G B L J M P D K C T S W R N Z,5f3aee04e30eac7cb73b416e,26,Mężczyzna,2022-06-25_15h34.20.955,task,2021.1.4,Win32,162.73393,6299f149e92ead563fba08ef,62b70e44c88a7da0418fa21d,,,,,,,,,,,,,,,,,,,,,,,,,,,,,,,,,,,,,,,,,,,,,,,,,,,,,,,,,,,,,,,,,,,,,,,,,,,,,,,,,,,,,,,,,,,,,,,,,,,,,
,,,,,,3,0,3,0,1,X V Q F H G B L J M P D K C T S W R N Z,5f3aee04e30eac7cb73b416e,26,Mężczyzna,2022-06-25_15h34.20.955,task,2021.1.4,Win32,162.73393,6299f149e92ead563fba08ef,62b70e44c88a7da0418fa21d,,,,,,,,,,,,,,,,,,,,,,,,,,,,,,,,,,,,,,,,,,,,,,,,,,,,,,,,,,,,,,,,,,,,,,,,,,,,,,,,,,,,,,,,,,,,,,,,,,,,,
,,,,,,4,0,4,0,1,X V Q F H G B L J M P D K C T S W R N Z,5f3aee04e30eac7cb73b416e,26,Mężczyzna,2022-06-25_15h34.20.955,task,2021.1.4,Win32,162.73393,6299f149e92ead563fba08ef,62b70e44c88a7da0418fa21d,,,,,,,,,,,,,,,,,,,,,,,,,,,,,,,,,,,,,,,,,,,,,,,,,,,,,,,,,,,,,,,,,,,,,,,,,,,,,,,,,,,,,,,,,,,,,,,,,,,,,
,,,,,,,,,,,,5f3aee04e30eac7cb73b416e,26,Mężczyzna,2022-06-25_15h34.20.955,task,2021.1.4,Win32,162.73393,6299f149e92ead563fba08ef,62b70e44c88a7da0418fa21d,qrqcm,"[""q"",""r"",""q"",""c"",""m""]","[1.8502000000476926,2.8895000000000266,4.238100000143078,4.517000000000024,4.605200000047688,5.320900000095378]",1,QRQCM,8,0,8,0,1,,,,,,,,,,,,,,,,,,,,,,,,,,,,,,,,,,,,,,,,,,,,,,,,,,,,,,,,,,,,,,,,,,,,,,,,,,,,,,,,,,,,,,,,,,,
,,,,,,0,0,0,0,1,X V Q F H G B L J M P D K C T S W R N Z,5f3aee04e30eac7cb73b416e,26,Mężczyzna,2022-06-25_15h34.20.955,task,2021.1.4,Win32,162.73393,6299f149e92ead563fba08ef,62b70e44c88a7da0418fa21d,,,,,,,,,,,,,,,,,,,,,,,,,,,,,,,,,,,,,,,,,,,,,,,,,,,,,,,,,,,,,,,,,,,,,,,,,,,,,,,,,,,,,,,,,,,,,,,,,,,,,
,,,,,,1,0,1,0,1,X V Q F H G B L J M P D K C T S W R N Z,5f3aee04e30eac7cb73b416e,26,Mężczyzna,2022-06-25_15h34.20.955,task,2021.1.4,Win32,162.73393,6299f149e92ead563fba08ef,62b70e44c88a7da0418fa21d,,,,,,,,,,,,,,,,,,,,,,,,,,,,,,,,,,,,,,,,,,,,,,,,,,,,,,,,,,,,,,,,,,,,,,,,,,,,,,,,,,,,,,,,,,,,,,,,,,,,,
,,,,,,2,0,2,0,1,X V Q F H G B L J M P D K C T S W R N Z,5f3aee04e30eac7cb73b416e,26,Mężczyzna,2022-06-25_15h34.20.955,task,2021.1.4,Win32,162.73393,6299f149e92ead563fba08ef,62b70e44c88a7da0418fa21d,,,,,,,,,,,,,,,,,,,,,,,,,,,,,,,,,,,,,,,,,,,,,,,,,,,,,,,,,,,,,,,,,,,,,,,,,,,,,,,,,,,,,,,,,,,,,,,,,,,,,
,,,,,,3,0,3,0,1,X V Q F H G B L J M P D K C T S W R N Z,5f3aee04e30eac7cb73b416e,26,Mężczyzna,2022-06-25_15h34.20.955,task,2021.1.4,Win32,162.73393,6299f149e92ead563fba08ef,62b70e44c88a7da0418fa21d,,,,,,,,,,,,,,,,,,,,,,,,,,,,,,,,,,,,,,,,,,,,,,,,,,,,,,,,,,,,,,,,,,,,,,,,,,,,,,,,,,,,,,,,,,,,,,,,,,,,,
,,,,,,4,0,4,0,1,X V Q F H G B L J M P D K C T S W R N Z,5f3aee04e30eac7cb73b416e,26,Mężczyzna,2022-06-25_15h34.20.955,task,2021.1.4,Win32,162.73393,6299f149e92ead563fba08ef,62b70e44c88a7da0418fa21d,,,,,,,,,,,,,,,,,,,,,,,,,,,,,,,,,,,,,,,,,,,,,,,,,,,,,,,,,,,,,,,,,,,,,,,,,,,,,,,,,,,,,,,,,,,,,,,,,,,,,
,,,,,,5,0,5,0,1,X V Q F H G B L J M P D K C T S W R N Z,5f3aee04e30eac7cb73b416e,26,Mężczyzna,2022-06-25_15h34.20.955,task,2021.1.4,Win32,162.73393,6299f149e92ead563fba08ef,62b70e44c88a7da0418fa21d,,,,,,,,,,,,,,,,,,,,,,,,,,,,,,,,,,,,,,,,,,,,,,,,,,,,,,,,,,,,,,,,,,,,,,,,,,,,,,,,,,,,,,,,,,,,,,,,,,,,,
,,,,,,,,,,,,5f3aee04e30eac7cb73b416e,26,Mężczyzna,2022-06-25_15h34.20.955,task,2021.1.4,Win32,162.73393,6299f149e92ead563fba08ef,62b70e44c88a7da0418fa21d,cwhkpn,"[""c"",""w"",""h"",""k"",""p"",""n""]","[1.6598999998569468,1.7431999998092635,3.02819999980926,3.156499999999994,3.3676999998092754,3.648599999904633,4.346899999856959]",1,CWHKPN,9,0,9,0,1,,,,,,,,,,,,,,,,,,,,,,,,,,,,,,,,,,,,,,,,,,,,,,,,,,,,,,,,,,,,,,,,,,,,,,,,,,,,,,,,,,,,,,,,,,,
,,,,,,0,0,0,0,1,X V Q F H G B L J M P D K C T S W R N Z,5f3aee04e30eac7cb73b416e,26,Mężczyzna,2022-06-25_15h34.20.955,task,2021.1.4,Win32,162.73393,6299f149e92ead563fba08ef,62b70e44c88a7da0418fa21d,,,,,,,,,,,,,,,,,,,,,,,,,,,,,,,,,,,,,,,,,,,,,,,,,,,,,,,,,,,,,,,,,,,,,,,,,,,,,,,,,,,,,,,,,,,,,,,,,,,,,
,,,,,,1,0,1,0,1,X V Q F H G B L J M P D K C T S W R N Z,5f3aee04e30eac7cb73b416e,26,Mężczyzna,2022-06-25_15h34.20.955,task,2021.1.4,Win32,162.73393,6299f149e92ead563fba08ef,62b70e44c88a7da0418fa21d,,,,,,,,,,,,,,,,,,,,,,,,,,,,,,,,,,,,,,,,,,,,,,,,,,,,,,,,,,,,,,,,,,,,,,,,,,,,,,,,,,,,,,,,,,,,,,,,,,,,,
,,,,,,2,0,2,0,1,X V Q F H G B L J M P D K C T S W R N Z,5f3aee04e30eac7cb73b416e,26,Mężczyzna,2022-06-25_15h34.20.955,task,2021.1.4,Win32,162.73393,6299f149e92ead563fba08ef,62b70e44c88a7da0418fa21d,,,,,,,,,,,,,,,,,,,,,,,,,,,,,,,,,,,,,,,,,,,,,,,,,,,,,,,,,,,,,,,,,,,,,,,,,,,,,,,,,,,,,,,,,,,,,,,,,,,,,
,,,,,,3,0,3,0,1,X V Q F H G B L J M P D K C T S W R N Z,5f3aee04e30eac7cb73b416e,26,Mężczyzna,2022-06-25_15h34.20.955,task,2021.1.4,Win32,162.73393,6299f149e92ead563fba08ef,62b70e44c88a7da0418fa21d,,,,,,,,,,,,,,,,,,,,,,,,,,,,,,,,,,,,,,,,,,,,,,,,,,,,,,,,,,,,,,,,,,,,,,,,,,,,,,,,,,,,,,,,,,,,,,,,,,,,,
,,,,,,4,0,4,0,1,X V Q F H G B L J M P D K C T S W R N Z,5f3aee04e30eac7cb73b416e,26,Mężczyzna,2022-06-25_15h34.20.955,task,2021.1.4,Win32,162.73393,6299f149e92ead563fba08ef,62b70e44c88a7da0418fa21d,,,,,,,,,,,,,,,,,,,,,,,,,,,,,,,,,,,,,,,,,,,,,,,,,,,,,,,,,,,,,,,,,,,,,,,,,,,,,,,,,,,,,,,,,,,,,,,,,,,,,
,,,,,,5,0,5,0,1,X V Q F H G B L J M P D K C T S W R N Z,5f3aee04e30eac7cb73b416e,26,Mężczyzna,2022-06-25_15h34.20.955,task,2021.1.4,Win32,162.73393,6299f149e92ead563fba08ef,62b70e44c88a7da0418fa21d,,,,,,,,,,,,,,,,,,,,,,,,,,,,,,,,,,,,,,,,,,,,,,,,,,,,,,,,,,,,,,,,,,,,,,,,,,,,,,,,,,,,,,,,,,,,,,,,,,,,,
,,,,,,,,,,,,5f3aee04e30eac7cb73b416e,26,Mężczyzna,2022-06-25_15h34.20.955,task,2021.1.4,Win32,162.73393,6299f149e92ead563fba08ef,62b70e44c88a7da0418fa21d,cjzpfk,"[""c"",""j"",""z"",""p"",""f"",""k""]","[1.842700000047671,1.896000000000015,2.5436000001430443,2.6807999999523418,3.0529999999999973,3.1179000000953465,3.4449000000953447]",0,LJZPFK,10,0,10,0,1,,,,,,,,,,,,,,,,,,,,,,,,,,,,,,,,,,,,,,,,,,,,,,,,,,,,,,,,,,,,,,,,,,,,,,,,,,,,,,,,,,,,,,,,,,,
,,,,,,0,0,0,0,1,X V Q F H G B L J M P D K C T S W R N Z,5f3aee04e30eac7cb73b416e,26,Mężczyzna,2022-06-25_15h34.20.955,task,2021.1.4,Win32,162.73393,6299f149e92ead563fba08ef,62b70e44c88a7da0418fa21d,,,,,,,,,,,,,,,,,,,,,,,,,,,,,,,,,,,,,,,,,,,,,,,,,,,,,,,,,,,,,,,,,,,,,,,,,,,,,,,,,,,,,,,,,,,,,,,,,,,,,
,,,,,,1,0,1,0,1,X V Q F H G B L J M P D K C T S W R N Z,5f3aee04e30eac7cb73b416e,26,Mężczyzna,2022-06-25_15h34.20.955,task,2021.1.4,Win32,162.73393,6299f149e92ead563fba08ef,62b70e44c88a7da0418fa21d,,,,,,,,,,,,,,,,,,,,,,,,,,,,,,,,,,,,,,,,,,,,,,,,,,,,,,,,,,,,,,,,,,,,,,,,,,,,,,,,,,,,,,,,,,,,,,,,,,,,,
,,,,,,2,0,2,0,1,X V Q F H G B L J M P D K C T S W R N Z,5f3aee04e30eac7cb73b416e,26,Mężczyzna,2022-06-25_15h34.20.955,task,2021.1.4,Win32,162.73393,6299f149e92ead563fba08ef,62b70e44c88a7da0418fa21d,,,,,,,,,,,,,,,,,,,,,,,,,,,,,,,,,,,,,,,,,,,,,,,,,,,,,,,,,,,,,,,,,,,,,,,,,,,,,,,,,,,,,,,,,,,,,,,,,,,,,
,,,,,,3,0,3,0,1,X V Q F H G B L J M P D K C T S W R N Z,5f3aee04e30eac7cb73b416e,26,Mężczyzna,2022-06-25_15h34.20.955,task,2021.1.4,Win32,162.73393,6299f149e92ead563fba08ef,62b70e44c88a7da0418fa21d,,,,,,,,,,,,,,,,,,,,,,,,,,,,,,,,,,,,,,,,,,,,,,,,,,,,,,,,,,,,,,,,,,,,,,,,,,,,,,,,,,,,,,,,,,,,,,,,,,,,,
,,,,,,4,0,4,0,1,X V Q F H G B L J M P D K C T S W R N Z,5f3aee04e30eac7cb73b416e,26,Mężczyzna,2022-06-25_15h34.20.955,task,2021.1.4,Win32,162.73393,6299f149e92ead563fba08ef,62b70e44c88a7da0418fa21d,,,,,,,,,,,,,,,,,,,,,,,,,,,,,,,,,,,,,,,,,,,,,,,,,,,,,,,,,,,,,,,,,,,,,,,,,,,,,,,,,,,,,,,,,,,,,,,,,,,,,
,,,,,,5,0,5,0,1,X V Q F H G B L J M P D K C T S W R N Z,5f3aee04e30eac7cb73b416e,26,Mężczyzna,2022-06-25_15h34.20.955,task,2021.1.4,Win32,162.73393,6299f149e92ead563fba08ef,62b70e44c88a7da0418fa21d,,,,,,,,,,,,,,,,,,,,,,,,,,,,,,,,,,,,,,,,,,,,,,,,,,,,,,,,,,,,,,,,,,,,,,,,,,,,,,,,,,,,,,,,,,,,,,,,,,,,,
,,,,,,,,,,,,5f3aee04e30eac7cb73b416e,26,Mężczyzna,2022-06-25_15h34.20.955,task,2021.1.4,Win32,162.73393,6299f149e92ead563fba08ef,62b70e44c88a7da0418fa21d,qpmclj,"[""q"",""p"",""m"",""c"",""l"",""j""]","[1.9225000000000136,2.071099999904618,6.435299999952292,8.096900000095388,8.236299999952337,8.461099999904604,8.822999999999979]",1,QPMCLJ,11,0,11,0,1,,,,,,,,,,,,,,,,,,,,,,,,,,,,,,,,,,,,,,,,,,,,,,,,,,,,,,,,,,,,,,,,,,,,,,,,,,,,,,,,,,,,,,,,,,,
,,,,,,0,0,0,0,1,X V Q F H G B L J M P D K C T S W R N Z,5f3aee04e30eac7cb73b416e,26,Mężczyzna,2022-06-25_15h34.20.955,task,2021.1.4,Win32,162.73393,6299f149e92ead563fba08ef,62b70e44c88a7da0418fa21d,,,,,,,,,,,,,,,,,,,,,,,,,,,,,,,,,,,,,,,,,,,,,,,,,,,,,,,,,,,,,,,,,,,,,,,,,,,,,,,,,,,,,,,,,,,,,,,,,,,,,
,,,,,,1,0,1,0,1,X V Q F H G B L J M P D K C T S W R N Z,5f3aee04e30eac7cb73b416e,26,Mężczyzna,2022-06-25_15h34.20.955,task,2021.1.4,Win32,162.73393,6299f149e92ead563fba08ef,62b70e44c88a7da0418fa21d,,,,,,,,,,,,,,,,,,,,,,,,,,,,,,,,,,,,,,,,,,,,,,,,,,,,,,,,,,,,,,,,,,,,,,,,,,,,,,,,,,,,,,,,,,,,,,,,,,,,,
,,,,,,2,0,2,0,1,X V Q F H G B L J M P D K C T S W R N Z,5f3aee04e30eac7cb73b416e,26,Mężczyzna,2022-06-25_15h34.20.955,task,2021.1.4,Win32,162.73393,6299f149e92ead563fba08ef,62b70e44c88a7da0418fa21d,,,,,,,,,,,,,,,,,,,,,,,,,,,,,,,,,,,,,,,,,,,,,,,,,,,,,,,,,,,,,,,,,,,,,,,,,,,,,,,,,,,,,,,,,,,,,,,,,,,,,
,,,,,,3,0,3,0,1,X V Q F H G B L J M P D K C T S W R N Z,5f3aee04e30eac7cb73b416e,26,Mężczyzna,2022-06-25_15h34.20.955,task,2021.1.4,Win32,162.73393,6299f149e92ead563fba08ef,62b70e44c88a7da0418fa21d,,,,,,,,,,,,,,,,,,,,,,,,,,,,,,,,,,,,,,,,,,,,,,,,,,,,,,,,,,,,,,,,,,,,,,,,,,,,,,,,,,,,,,,,,,,,,,,,,,,,,
,,,,,,4,0,4,0,1,X V Q F H G B L J M P D K C T S W R N Z,5f3aee04e30eac7cb73b416e,26,Mężczyzna,2022-06-25_15h34.20.955,task,2021.1.4,Win32,162.73393,6299f149e92ead563fba08ef,62b70e44c88a7da0418fa21d,,,,,,,,,,,,,,,,,,,,,,,,,,,,,,,,,,,,,,,,,,,,,,,,,,,,,,,,,,,,,,,,,,,,,,,,,,,,,,,,,,,,,,,,,,,,,,,,,,,,,
,,,,,,5,0,5,0,1,X V Q F H G B L J M P D K C T S W R N Z,5f3aee04e30eac7cb73b416e,26,Mężczyzna,2022-06-25_15h34.20.955,task,2021.1.4,Win32,162.73393,6299f149e92ead563fba08ef,62b70e44c88a7da0418fa21d,,,,,,,,,,,,,,,,,,,,,,,,,,,,,,,,,,,,,,,,,,,,,,,,,,,,,,,,,,,,,,,,,,,,,,,,,,,,,,,,,,,,,,,,,,,,,,,,,,,,,
,,,,,,6,0,6,0,1,X V Q F H G B L J M P D K C T S W R N Z,5f3aee04e30eac7cb73b416e,26,Mężczyzna,2022-06-25_15h34.20.955,task,2021.1.4,Win32,162.73393,6299f149e92ead563fba08ef,62b70e44c88a7da0418fa21d,,,,,,,,,,,,,,,,,,,,,,,,,,,,,,,,,,,,,,,,,,,,,,,,,,,,,,,,,,,,,,,,,,,,,,,,,,,,,,,,,,,,,,,,,,,,,,,,,,,,,
,,,,,,,,,,,,5f3aee04e30eac7cb73b416e,26,Mężczyzna,2022-06-25_15h34.20.955,task,2021.1.4,Win32,162.73393,6299f149e92ead563fba08ef,62b70e44c88a7da0418fa21d,qcjttjd,"[""q"",""c"",""j"",""t"",""t"",""j"",""d""]","[2.0171000001430457,3.9073000001907303,4.295499999999947,5.315600000143036,5.666700000047683,5.969600000143032,6.285600000143006,7.468999999999994]",1,QCJTTJD,12,0,12,0,1,,,,,,,,,,,,,,,,,,,,,,,,,,,,,,,,,,,,,,,,,,,,,,,,,,,,,,,,,,,,,,,,,,,,,,,,,,,,,,,,,,,,,,,,,,,
,,,,,,0,0,0,0,1,X V Q F H G B L J M P D K C T S W R N Z,5f3aee04e30eac7cb73b416e,26,Mężczyzna,2022-06-25_15h34.20.955,task,2021.1.4,Win32,162.73393,6299f149e92ead563fba08ef,62b70e44c88a7da0418fa21d,,,,,,,,,,,,,,,,,,,,,,,,,,,,,,,,,,,,,,,,,,,,,,,,,,,,,,,,,,,,,,,,,,,,,,,,,,,,,,,,,,,,,,,,,,,,,,,,,,,,,
,,,,,,1,0,1,0,1,X V Q F H G B L J M P D K C T S W R N Z,5f3aee04e30eac7cb73b416e,26,Mężczyzna,2022-06-25_15h34.20.955,task,2021.1.4,Win32,162.73393,6299f149e92ead563fba08ef,62b70e44c88a7da0418fa21d,,,,,,,,,,,,,,,,,,,,,,,,,,,,,,,,,,,,,,,,,,,,,,,,,,,,,,,,,,,,,,,,,,,,,,,,,,,,,,,,,,,,,,,,,,,,,,,,,,,,,
,,,,,,2,0,2,0,1,X V Q F H G B L J M P D K C T S W R N Z,5f3aee04e30eac7cb73b416e,26,Mężczyzna,2022-06-25_15h34.20.955,task,2021.1.4,Win32,162.73393,6299f149e92ead563fba08ef,62b70e44c88a7da0418fa21d,,,,,,,,,,,,,,,,,,,,,,,,,,,,,,,,,,,,,,,,,,,,,,,,,,,,,,,,,,,,,,,,,,,,,,,,,,,,,,,,,,,,,,,,,,,,,,,,,,,,,
,,,,,,3,0,3,0,1,X V Q F H G B L J M P D K C T S W R N Z,5f3aee04e30eac7cb73b416e,26,Mężczyzna,2022-06-25_15h34.20.955,task,2021.1.4,Win32,162.73393,6299f149e92ead563fba08ef,62b70e44c88a7da0418fa21d,,,,,,,,,,,,,,,,,,,,,,,,,,,,,,,,,,,,,,,,,,,,,,,,,,,,,,,,,,,,,,,,,,,,,,,,,,,,,,,,,,,,,,,,,,,,,,,,,,,,,
,,,,,,4,0,4,0,1,X V Q F H G B L J M P D K C T S W R N Z,5f3aee04e30eac7cb73b416e,26,Mężczyzna,2022-06-25_15h34.20.955,task,2021.1.4,Win32,162.73393,6299f149e92ead563fba08ef,62b70e44c88a7da0418fa21d,,,,,,,,,,,,,,,,,,,,,,,,,,,,,,,,,,,,,,,,,,,,,,,,,,,,,,,,,,,,,,,,,,,,,,,,,,,,,,,,,,,,,,,,,,,,,,,,,,,,,
,,,,,,5,0,5,0,1,X V Q F H G B L J M P D K C T S W R N Z,5f3aee04e30eac7cb73b416e,26,Mężczyzna,2022-06-25_15h34.20.955,task,2021.1.4,Win32,162.73393,6299f149e92ead563fba08ef,62b70e44c88a7da0418fa21d,,,,,,,,,,,,,,,,,,,,,,,,,,,,,,,,,,,,,,,,,,,,,,,,,,,,,,,,,,,,,,,,,,,,,,,,,,,,,,,,,,,,,,,,,,,,,,,,,,,,,
,,,,,,6,0,6,0,1,X V Q F H G B L J M P D K C T S W R N Z,5f3aee04e30eac7cb73b416e,26,Mężczyzna,2022-06-25_15h34.20.955,task,2021.1.4,Win32,162.73393,6299f149e92ead563fba08ef,62b70e44c88a7da0418fa21d,,,,,,,,,,,,,,,,,,,,,,,,,,,,,,,,,,,,,,,,,,,,,,,,,,,,,,,,,,,,,,,,,,,,,,,,,,,,,,,,,,,,,,,,,,,,,,,,,,,,,
,,,,,,,,,,,,5f3aee04e30eac7cb73b416e,26,Mężczyzna,2022-06-25_15h34.20.955,task,2021.1.4,Win32,162.73393,6299f149e92ead563fba08ef,62b70e44c88a7da0418fa21d,tbckffwv,"[""t"",""b"",""c"",""k"",""f"",""f"",""w"",""v""]","[1.8931000001430789,2.2164999999999964,2.9212000000476905,3.341600000143046,3.747900000095342,3.792600000143068,4.216799999952343,4.385700000047677,5.266400000095359]",0,TBGKFWV,13,0,13,0,1,,,,,,,,,,,,,,,,,,,,,,,,,,,,,,,,,,,,,,,,,,,,,,,,,,,,,,,,,,,,,,,,,,,,,,,,,,,,,,,,,,,,,,,,,,,
,,,,,,0,0,0,0,1,X V Q F H G B L J M P D K C T S W R N Z,5f3aee04e30eac7cb73b416e,26,Mężczyzna,2022-06-25_15h34.20.955,task,2021.1.4,Win32,162.73393,6299f149e92ead563fba08ef,62b70e44c88a7da0418fa21d,,,,,,,,,,,,,,,,,,,,,,,,,,,,,,,,,,,,,,,,,,,,,,,,,,,,,,,,,,,,,,,,,,,,,,,,,,,,,,,,,,,,,,,,,,,,,,,,,,,,,
,,,,,,1,0,1,0,1,X V Q F H G B L J M P D K C T S W R N Z,5f3aee04e30eac7cb73b416e,26,Mężczyzna,2022-06-25_15h34.20.955,task,2021.1.4,Win32,162.73393,6299f149e92ead563fba08ef,62b70e44c88a7da0418fa21d,,,,,,,,,,,,,,,,,,,,,,,,,,,,,,,,,,,,,,,,,,,,,,,,,,,,,,,,,,,,,,,,,,,,,,,,,,,,,,,,,,,,,,,,,,,,,,,,,,,,,
,,,,,,2,0,2,0,1,X V Q F H G B L J M P D K C T S W R N Z,5f3aee04e30eac7cb73b416e,26,Mężczyzna,2022-06-25_15h34.20.955,task,2021.1.4,Win32,162.73393,6299f149e92ead563fba08ef,62b70e44c88a7da0418fa21d,,,,,,,,,,,,,,,,,,,,,,,,,,,,,,,,,,,,,,,,,,,,,,,,,,,,,,,,,,,,,,,,,,,,,,,,,,,,,,,,,,,,,,,,,,,,,,,,,,,,,
,,,,,,3,0,3,0,1,X V Q F H G B L J M P D K C T S W R N Z,5f3aee04e30eac7cb73b416e,26,Mężczyzna,2022-06-25_15h34.20.955,task,2021.1.4,Win32,162.73393,6299f149e92ead563fba08ef,62b70e44c88a7da0418fa21d,,,,,,,,,,,,,,,,,,,,,,,,,,,,,,,,,,,,,,,,,,,,,,,,,,,,,,,,,,,,,,,,,,,,,,,,,,,,,,,,,,,,,,,,,,,,,,,,,,,,,
,,,,,,4,0,4,0,1,X V Q F H G B L J M P D K C T S W R N Z,5f3aee04e30eac7cb73b416e,26,Mężczyzna,2022-06-25_15h34.20.955,task,2021.1.4,Win32,162.73393,6299f149e92ead563fba08ef,62b70e44c88a7da0418fa21d,,,,,,,,,,,,,,,,,,,,,,,,,,,,,,,,,,,,,,,,,,,,,,,,,,,,,,,,,,,,,,,,,,,,,,,,,,,,,,,,,,,,,,,,,,,,,,,,,,,,,
,,,,,,5,0,5,0,1,X V Q F H G B L J M P D K C T S W R N Z,5f3aee04e30eac7cb73b416e,26,Mężczyzna,2022-06-25_15h34.20.955,task,2021.1.4,Win32,162.73393,6299f149e92ead563fba08ef,62b70e44c88a7da0418fa21d,,,,,,,,,,,,,,,,,,,,,,,,,,,,,,,,,,,,,,,,,,,,,,,,,,,,,,,,,,,,,,,,,,,,,,,,,,,,,,,,,,,,,,,,,,,,,,,,,,,,,
,,,,,,6,0,6,0,1,X V Q F H G B L J M P D K C T S W R N Z,5f3aee04e30eac7cb73b416e,26,Mężczyzna,2022-06-25_15h34.20.955,task,2021.1.4,Win32,162.73393,6299f149e92ead563fba08ef,62b70e44c88a7da0418fa21d,,,,,,,,,,,,,,,,,,,,,,,,,,,,,,,,,,,,,,,,,,,,,,,,,,,,,,,,,,,,,,,,,,,,,,,,,,,,,,,,,,,,,,,,,,,,,,,,,,,,,
,,,,,,,,,,,,5f3aee04e30eac7cb73b416e,26,Mężczyzna,2022-06-25_15h34.20.955,task,2021.1.4,Win32,162.73393,6299f149e92ead563fba08ef,62b70e44c88a7da0418fa21d,mwcpnbs,"[""m"",""w"",""c"",""p"",""n"",""b"",""s""]","[2.0718000001907626,2.186200000047677,2.4881000001430493,2.7758000001907703,3.13900000000001,5.287700000047721,5.37310000014304,8.506100000143078]",1,MWCPNBS,14,0,14,0,1,,,,,,,,,,,,,,,,,,,,,,,,,,,,,,,,,,,,,,,,,,,,,,,,,,,,,,,,,,,,,,,,,,,,,,,,,,,,,,,,,,,,,,,,,,,
,,,,,,0,0,0,0,1,X V Q F H G B L J M P D K C T S W R N Z,5f3aee04e30eac7cb73b416e,26,Mężczyzna,2022-06-25_15h34.20.955,task,2021.1.4,Win32,162.73393,6299f149e92ead563fba08ef,62b70e44c88a7da0418fa21d,,,,,,,,,,,,,,,,,,,,,,,,,,,,,,,,,,,,,,,,,,,,,,,,,,,,,,,,,,,,,,,,,,,,,,,,,,,,,,,,,,,,,,,,,,,,,,,,,,,,,
,,,,,,1,0,1,0,1,X V Q F H G B L J M P D K C T S W R N Z,5f3aee04e30eac7cb73b416e,26,Mężczyzna,2022-06-25_15h34.20.955,task,2021.1.4,Win32,162.73393,6299f149e92ead563fba08ef,62b70e44c88a7da0418fa21d,,,,,,,,,,,,,,,,,,,,,,,,,,,,,,,,,,,,,,,,,,,,,,,,,,,,,,,,,,,,,,,,,,,,,,,,,,,,,,,,,,,,,,,,,,,,,,,,,,,,,
,,,,,,2,0,2,0,1,X V Q F H G B L J M P D K C T S W R N Z,5f3aee04e30eac7cb73b416e,26,Mężczyzna,2022-06-25_15h34.20.955,task,2021.1.4,Win32,162.73393,6299f149e92ead563fba08ef,62b70e44c88a7da0418fa21d,,,,,,,,,,,,,,,,,,,,,,,,,,,,,,,,,,,,,,,,,,,,,,,,,,,,,,,,,,,,,,,,,,,,,,,,,,,,,,,,,,,,,,,,,,,,,,,,,,,,,
,,,,,,3,0,3,0,1,X V Q F H G B L J M P D K C T S W R N Z,5f3aee04e30eac7cb73b416e,26,Mężczyzna,2022-06-25_15h34.20.955,task,2021.1.4,Win32,162.73393,6299f149e92ead563fba08ef,62b70e44c88a7da0418fa21d,,,,,,,,,,,,,,,,,,,,,,,,,,,,,,,,,,,,,,,,,,,,,,,,,,,,,,,,,,,,,,,,,,,,,,,,,,,,,,,,,,,,,,,,,,,,,,,,,,,,,
,,,,,,4,0,4,0,1,X V Q F H G B L J M P D K C T S W R N Z,5f3aee04e30eac7cb73b416e,26,Mężczyzna,2022-06-25_15h34.20.955,task,2021.1.4,Win32,162.73393,6299f149e92ead563fba08ef,62b70e44c88a7da0418fa21d,,,,,,,,,,,,,,,,,,,,,,,,,,,,,,,,,,,,,,,,,,,,,,,,,,,,,,,,,,,,,,,,,,,,,,,,,,,,,,,,,,,,,,,,,,,,,,,,,,,,,
,,,,,,5,0,5,0,1,X V Q F H G B L J M P D K C T S W R N Z,5f3aee04e30eac7cb73b416e,26,Mężczyzna,2022-06-25_15h34.20.955,task,2021.1.4,Win32,162.73393,6299f149e92ead563fba08ef,62b70e44c88a7da0418fa21d,,,,,,,,,,,,,,,,,,,,,,,,,,,,,,,,,,,,,,,,,,,,,,,,,,,,,,,,,,,,,,,,,,,,,,,,,,,,,,,,,,,,,,,,,,,,,,,,,,,,,
,,,,,,6,0,6,0,1,X V Q F H G B L J M P D K C T S W R N Z,5f3aee04e30eac7cb73b416e,26,Mężczyzna,2022-06-25_15h34.20.955,task,2021.1.4,Win32,162.73393,6299f149e92ead563fba08ef,62b70e44c88a7da0418fa21d,,,,,,,,,,,,,,,,,,,,,,,,,,,,,,,,,,,,,,,,,,,,,,,,,,,,,,,,,,,,,,,,,,,,,,,,,,,,,,,,,,,,,,,,,,,,,,,,,,,,,
,,,,,,7,0,7,0,1,X V Q F H G B L J M P D K C T S W R N Z,5f3aee04e30eac7cb73b416e,26,Mężczyzna,2022-06-25_15h34.20.955,task,2021.1.4,Win32,162.73393,6299f149e92ead563fba08ef,62b70e44c88a7da0418fa21d,,,,,,,,,,,,,,,,,,,,,,,,,,,,,,,,,,,,,,,,,,,,,,,,,,,,,,,,,,,,,,,,,,,,,,,,,,,,,,,,,,,,,,,,,,,,,,,,,,,,,
,,,,,,,,,,,,5f3aee04e30eac7cb73b416e,26,Mężczyzna,2022-06-25_15h34.20.955,task,2021.1.4,Win32,162.73393,6299f149e92ead563fba08ef,62b70e44c88a7da0418fa21d,xmvhwkwe,"[""x"",""m"",""v"",""h"",""w"",""k"",""w"",""e""]","[1.823500000000024,1.8977000000476778,2.1708999998569425,2.9210999999046408,3.055000000000007,3.290099999904612,4.733499999999992,5.255899999856979,5.485000000000014]",0,XMVHWKWF,15,0,15,0,1,,,,,,,,,,,,,,,,,,,,,,,,,,,,,,,,,,,,,,,,,,,,,,,,,,,,,,,,,,,,,,,,,,,,,,,,,,,,,,,,,,,,,,,,,,,
,,,,,,0,0,0,0,1,X V Q F H G B L J M P D K C T S W R N Z,5f3aee04e30eac7cb73b416e,26,Mężczyzna,2022-06-25_15h34.20.955,task,2021.1.4,Win32,162.73393,6299f149e92ead563fba08ef,62b70e44c88a7da0418fa21d,,,,,,,,,,,,,,,,,,,,,,,,,,,,,,,,,,,,,,,,,,,,,,,,,,,,,,,,,,,,,,,,,,,,,,,,,,,,,,,,,,,,,,,,,,,,,,,,,,,,,
,,,,,,1,0,1,0,1,X V Q F H G B L J M P D K C T S W R N Z,5f3aee04e30eac7cb73b416e,26,Mężczyzna,2022-06-25_15h34.20.955,task,2021.1.4,Win32,162.73393,6299f149e92ead563fba08ef,62b70e44c88a7da0418fa21d,,,,,,,,,,,,,,,,,,,,,,,,,,,,,,,,,,,,,,,,,,,,,,,,,,,,,,,,,,,,,,,,,,,,,,,,,,,,,,,,,,,,,,,,,,,,,,,,,,,,,
,,,,,,2,0,2,0,1,X V Q F H G B L J M P D K C T S W R N Z,5f3aee04e30eac7cb73b416e,26,Mężczyzna,2022-06-25_15h34.20.955,task,2021.1.4,Win32,162.73393,6299f149e92ead563fba08ef,62b70e44c88a7da0418fa21d,,,,,,,,,,,,,,,,,,,,,,,,,,,,,,,,,,,,,,,,,,,,,,,,,,,,,,,,,,,,,,,,,,,,,,,,,,,,,,,,,,,,,,,,,,,,,,,,,,,,,
,,,,,,3,0,3,0,1,X V Q F H G B L J M P D K C T S W R N Z,5f3aee04e30eac7cb73b416e,26,Mężczyzna,2022-06-25_15h34.20.955,task,2021.1.4,Win32,162.73393,6299f149e92ead563fba08ef,62b70e44c88a7da0418fa21d,,,,,,,,,,,,,,,,,,,,,,,,,,,,,,,,,,,,,,,,,,,,,,,,,,,,,,,,,,,,,,,,,,,,,,,,,,,,,,,,,,,,,,,,,,,,,,,,,,,,,
,,,,,,4,0,4,0,1,X V Q F H G B L J M P D K C T S W R N Z,5f3aee04e30eac7cb73b416e,26,Mężczyzna,2022-06-25_15h34.20.955,task,2021.1.4,Win32,162.73393,6299f149e92ead563fba08ef,62b70e44c88a7da0418fa21d,,,,,,,,,,,,,,,,,,,,,,,,,,,,,,,,,,,,,,,,,,,,,,,,,,,,,,,,,,,,,,,,,,,,,,,,,,,,,,,,,,,,,,,,,,,,,,,,,,,,,
,,,,,,5,0,5,0,1,X V Q F H G B L J M P D K C T S W R N Z,5f3aee04e30eac7cb73b416e,26,Mężczyzna,2022-06-25_15h34.20.955,task,2021.1.4,Win32,162.73393,6299f149e92ead563fba08ef,62b70e44c88a7da0418fa21d,,,,,,,,,,,,,,,,,,,,,,,,,,,,,,,,,,,,,,,,,,,,,,,,,,,,,,,,,,,,,,,,,,,,,,,,,,,,,,,,,,,,,,,,,,,,,,,,,,,,,
,,,,,,6,0,6,0,1,X V Q F H G B L J M P D K C T S W R N Z,5f3aee04e30eac7cb73b416e,26,Mężczyzna,2022-06-25_15h34.20.955,task,2021.1.4,Win32,162.73393,6299f149e92ead563fba08ef,62b70e44c88a7da0418fa21d,,,,,,,,,,,,,,,,,,,,,,,,,,,,,,,,,,,,,,,,,,,,,,,,,,,,,,,,,,,,,,,,,,,,,,,,,,,,,,,,,,,,,,,,,,,,,,,,,,,,,
,,,,,,7,0,7,0,1,X V Q F H G B L J M P D K C T S W R N Z,5f3aee04e30eac7cb73b416e,26,Mężczyzna,2022-06-25_15h34.20.955,task,2021.1.4,Win32,162.73393,6299f149e92ead563fba08ef,62b70e44c88a7da0418fa21d,,,,,,,,,,,,,,,,,,,,,,,,,,,,,,,,,,,,,,,,,,,,,,,,,,,,,,,,,,,,,,,,,,,,,,,,,,,,,,,,,,,,,,,,,,,,,,,,,,,,,
,,,,,,,,,,,,5f3aee04e30eac7cb73b416e,26,Mężczyzna,2022-06-25_15h34.20.955,task,2021.1.4,Win32,162.73393,6299f149e92ead563fba08ef,62b70e44c88a7da0418fa21d,ptjnndcz,"[""p"",""t"",""j"",""n"",""n"",""d"",""c"",""z""]","[1.6109000000953984,1.7342000000476787,1.883900000095366,2.9961000001430875,3.214200000047697,3.934300000190774,4.158100000143065,4.419200000047681,4.624200000047722]",1,PTJNNDCZ,16,0,16,0,1,,,,,,,,,,,,,,,,,,,,,,,,,,,,,,,,,,,,,,,,,,,,,,,,,,,,,,,,,,,,,,,,,,,,,,,,,,,,,,,,,,,,,,,,,,,
,,,,,,0,0,0,0,1,X V Q F H G B L J M P D K C T S W R N Z,5f3aee04e30eac7cb73b416e,26,Mężczyzna,2022-06-25_15h34.20.955,task,2021.1.4,Win32,162.73393,6299f149e92ead563fba08ef,62b70e44c88a7da0418fa21d,,,,,,,,,,,,,,,,,,,,,,,,,,,,,,,,,,,,,,,,,,,,,,,,,,,,,,,,,,,,,,,,,,,,,,,,,,,,,,,,,,,,,,,,,,,,,,,,,,,,,
,,,,,,1,0,1,0,1,X V Q F H G B L J M P D K C T S W R N Z,5f3aee04e30eac7cb73b416e,26,Mężczyzna,2022-06-25_15h34.20.955,task,2021.1.4,Win32,162.73393,6299f149e92ead563fba08ef,62b70e44c88a7da0418fa21d,,,,,,,,,,,,,,,,,,,,,,,,,,,,,,,,,,,,,,,,,,,,,,,,,,,,,,,,,,,,,,,,,,,,,,,,,,,,,,,,,,,,,,,,,,,,,,,,,,,,,
,,,,,,2,0,2,0,1,X V Q F H G B L J M P D K C T S W R N Z,5f3aee04e30eac7cb73b416e,26,Mężczyzna,2022-06-25_15h34.20.955,task,2021.1.4,Win32,162.73393,6299f149e92ead563fba08ef,62b70e44c88a7da0418fa21d,,,,,,,,,,,,,,,,,,,,,,,,,,,,,,,,,,,,,,,,,,,,,,,,,,,,,,,,,,,,,,,,,,,,,,,,,,,,,,,,,,,,,,,,,,,,,,,,,,,,,
,,,,,,3,0,3,0,1,X V Q F H G B L J M P D K C T S W R N Z,5f3aee04e30eac7cb73b416e,26,Mężczyzna,2022-06-25_15h34.20.955,task,2021.1.4,Win32,162.73393,6299f149e92ead563fba08ef,62b70e44c88a7da0418fa21d,,,,,,,,,,,,,,,,,,,,,,,,,,,,,,,,,,,,,,,,,,,,,,,,,,,,,,,,,,,,,,,,,,,,,,,,,,,,,,,,,,,,,,,,,,,,,,,,,,,,,
,,,,,,4,0,4,0,1,X V Q F H G B L J M P D K C T S W R N Z,5f3aee04e30eac7cb73b416e,26,Mężczyzna,2022-06-25_15h34.20.955,task,2021.1.4,Win32,162.73393,6299f149e92ead563fba08ef,62b70e44c88a7da0418fa21d,,,,,,,,,,,,,,,,,,,,,,,,,,,,,,,,,,,,,,,,,,,,,,,,,,,,,,,,,,,,,,,,,,,,,,,,,,,,,,,,,,,,,,,,,,,,,,,,,,,,,
,,,,,,5,0,5,0,1,X V Q F H G B L J M P D K C T S W R N Z,5f3aee04e30eac7cb73b416e,26,Mężczyzna,2022-06-25_15h34.20.955,task,2021.1.4,Win32,162.73393,6299f149e92ead563fba08ef,62b70e44c88a7da0418fa21d,,,,,,,,,,,,,,,,,,,,,,,,,,,,,,,,,,,,,,,,,,,,,,,,,,,,,,,,,,,,,,,,,,,,,,,,,,,,,,,,,,,,,,,,,,,,,,,,,,,,,
,,,,,,6,0,6,0,1,X V Q F H G B L J M P D K C T S W R N Z,5f3aee04e30eac7cb73b416e,26,Mężczyzna,2022-06-25_15h34.20.955,task,2021.1.4,Win32,162.73393,6299f149e92ead563fba08ef,62b70e44c88a7da0418fa21d,,,,,,,,,,,,,,,,,,,,,,,,,,,,,,,,,,,,,,,,,,,,,,,,,,,,,,,,,,,,,,,,,,,,,,,,,,,,,,,,,,,,,,,,,,,,,,,,,,,,,
,,,,,,7,0,7,0,1,X V Q F H G B L J M P D K C T S W R N Z,5f3aee04e30eac7cb73b416e,26,Mężczyzna,2022-06-25_15h34.20.955,task,2021.1.4,Win32,162.73393,6299f149e92ead563fba08ef,62b70e44c88a7da0418fa21d,,,,,,,,,,,,,,,,,,,,,,,,,,,,,,,,,,,,,,,,,,,,,,,,,,,,,,,,,,,,,,,,,,,,,,,,,,,,,,,,,,,,,,,,,,,,,,,,,,,,,
,,,,,,,,,,,,5f3aee04e30eac7cb73b416e,26,Mężczyzna,2022-06-25_15h34.20.955,task,2021.1.4,Win32,162.73393,6299f149e92ead563fba08ef,62b70e44c88a7da0418fa21d,npstkdkw,"[""n"",""p"",""s"",""t"",""k"",""d"",""k"",""w""]","[2.2005000000000337,3.2487999999523254,3.370200000047703,4.872200000047712,5.279299999952343,6.014299999952357,7.68100000000004,8.151200000047709,9.23599999999999]",1,NPSTKDKW,17,0,17,0,1,,,,,,,,,,,,,,,,,,,,,,,,,,,,,,,,,,,,,,,,,,,,,,,,,,,,,,,,,,,,,,,,,,,,,,,,,,,,,,,,,,,,,,,,,,,
,,,,,,0,0,0,0,1,X V Q F H G B L J M P D K C T S W R N Z,5f3aee04e30eac7cb73b416e,26,Mężczyzna,2022-06-25_15h34.20.955,task,2021.1.4,Win32,162.73393,6299f149e92ead563fba08ef,62b70e44c88a7da0418fa21d,,,,,,,,,,,,,,,,,,,,,,,,,,,,,,,,,,,,,,,,,,,,,,,,,,,,,,,,,,,,,,,,,,,,,,,,,,,,,,,,,,,,,,,,,,,,,,,,,,,,,
,,,,,,1,0,1,0,1,X V Q F H G B L J M P D K C T S W R N Z,5f3aee04e30eac7cb73b416e,26,Mężczyzna,2022-06-25_15h34.20.955,task,2021.1.4,Win32,162.73393,6299f149e92ead563fba08ef,62b70e44c88a7da0418fa21d,,,,,,,,,,,,,,,,,,,,,,,,,,,,,,,,,,,,,,,,,,,,,,,,,,,,,,,,,,,,,,,,,,,,,,,,,,,,,,,,,,,,,,,,,,,,,,,,,,,,,
,,,,,,2,0,2,0,1,X V Q F H G B L J M P D K C T S W R N Z,5f3aee04e30eac7cb73b416e,26,Mężczyzna,2022-06-25_15h34.20.955,task,2021.1.4,Win32,162.73393,6299f149e92ead563fba08ef,62b70e44c88a7da0418fa21d,,,,,,,,,,,,,,,,,,,,,,,,,,,,,,,,,,,,,,,,,,,,,,,,,,,,,,,,,,,,,,,,,,,,,,,,,,,,,,,,,,,,,,,,,,,,,,,,,,,,,
,,,,,,3,0,3,0,1,X V Q F H G B L J M P D K C T S W R N Z,5f3aee04e30eac7cb73b416e,26,Mężczyzna,2022-06-25_15h34.20.955,task,2021.1.4,Win32,162.73393,6299f149e92ead563fba08ef,62b70e44c88a7da0418fa21d,,,,,,,,,,,,,,,,,,,,,,,,,,,,,,,,,,,,,,,,,,,,,,,,,,,,,,,,,,,,,,,,,,,,,,,,,,,,,,,,,,,,,,,,,,,,,,,,,,,,,
,,,,,,4,0,4,0,1,X V Q F H G B L J M P D K C T S W R N Z,5f3aee04e30eac7cb73b416e,26,Mężczyzna,2022-06-25_15h34.20.955,task,2021.1.4,Win32,162.73393,6299f149e92ead563fba08ef,62b70e44c88a7da0418fa21d,,,,,,,,,,,,,,,,,,,,,,,,,,,,,,,,,,,,,,,,,,,,,,,,,,,,,,,,,,,,,,,,,,,,,,,,,,,,,,,,,,,,,,,,,,,,,,,,,,,,,
,,,,,,5,0,5,0,1,X V Q F H G B L J M P D K C T S W R N Z,5f3aee04e30eac7cb73b416e,26,Mężczyzna,2022-06-25_15h34.20.955,task,2021.1.4,Win32,162.73393,6299f149e92ead563fba08ef,62b70e44c88a7da0418fa21d,,,,,,,,,,,,,,,,,,,,,,,,,,,,,,,,,,,,,,,,,,,,,,,,,,,,,,,,,,,,,,,,,,,,,,,,,,,,,,,,,,,,,,,,,,,,,,,,,,,,,
,,,,,,6,0,6,0,1,X V Q F H G B L J M P D K C T S W R N Z,5f3aee04e30eac7cb73b416e,26,Mężczyzna,2022-06-25_15h34.20.955,task,2021.1.4,Win32,162.73393,6299f149e92ead563fba08ef,62b70e44c88a7da0418fa21d,,,,,,,,,,,,,,,,,,,,,,,,,,,,,,,,,,,,,,,,,,,,,,,,,,,,,,,,,,,,,,,,,,,,,,,,,,,,,,,,,,,,,,,,,,,,,,,,,,,,,
,,,,,,7,0,7,0,1,X V Q F H G B L J M P D K C T S W R N Z,5f3aee04e30eac7cb73b416e,26,Mężczyzna,2022-06-25_15h34.20.955,task,2021.1.4,Win32,162.73393,6299f149e92ead563fba08ef,62b70e44c88a7da0418fa21d,,,,,,,,,,,,,,,,,,,,,,,,,,,,,,,,,,,,,,,,,,,,,,,,,,,,,,,,,,,,,,,,,,,,,,,,,,,,,,,,,,,,,,,,,,,,,,,,,,,,,
,,,,,,8,0,8,0,1,X V Q F H G B L J M P D K C T S W R N Z,5f3aee04e30eac7cb73b416e,26,Mężczyzna,2022-06-25_15h34.20.955,task,2021.1.4,Win32,162.73393,6299f149e92ead563fba08ef,62b70e44c88a7da0418fa21d,,,,,,,,,,,,,,,,,,,,,,,,,,,,,,,,,,,,,,,,,,,,,,,,,,,,,,,,,,,,,,,,,,,,,,,,,,,,,,,,,,,,,,,,,,,,,,,,,,,,,
,,,,,,,,,,,,5f3aee04e30eac7cb73b416e,26,Mężczyzna,2022-06-25_15h34.20.955,task,2021.1.4,Win32,162.73393,6299f149e92ead563fba08ef,62b70e44c88a7da0418fa21d,srhvrfhlh,"[""s"",""r"",""h"",""v"",""r"",""f"",""h"",""l"",""h""]","[1.8653000001907003,2.014499999999998,3.1259999999999764,3.6289000000953706,4.196300000190718,4.459900000095331,4.805300000190698,5.526700000047697,5.885100000143041,12.284999999999968]",1,SRHVRFHLH,18,0,18,0,1,,,,,,,,,,,,,,,,,,,,,,,,,,,,,,,,,,,,,,,,,,,,,,,,,,,,,,,,,,,,,,,,,,,,,,,,,,,,,,,,,,,,,,,,,,,
,,,,,,0,0,0,0,1,X V Q F H G B L J M P D K C T S W R N Z,5f3aee04e30eac7cb73b416e,26,Mężczyzna,2022-06-25_15h34.20.955,task,2021.1.4,Win32,162.73393,6299f149e92ead563fba08ef,62b70e44c88a7da0418fa21d,,,,,,,,,,,,,,,,,,,,,,,,,,,,,,,,,,,,,,,,,,,,,,,,,,,,,,,,,,,,,,,,,,,,,,,,,,,,,,,,,,,,,,,,,,,,,,,,,,,,,
,,,,,,1,0,1,0,1,X V Q F H G B L J M P D K C T S W R N Z,5f3aee04e30eac7cb73b416e,26,Mężczyzna,2022-06-25_15h34.20.955,task,2021.1.4,Win32,162.73393,6299f149e92ead563fba08ef,62b70e44c88a7da0418fa21d,,,,,,,,,,,,,,,,,,,,,,,,,,,,,,,,,,,,,,,,,,,,,,,,,,,,,,,,,,,,,,,,,,,,,,,,,,,,,,,,,,,,,,,,,,,,,,,,,,,,,
,,,,,,2,0,2,0,1,X V Q F H G B L J M P D K C T S W R N Z,5f3aee04e30eac7cb73b416e,26,Mężczyzna,2022-06-25_15h34.20.955,task,2021.1.4,Win32,162.73393,6299f149e92ead563fba08ef,62b70e44c88a7da0418fa21d,,,,,,,,,,,,,,,,,,,,,,,,,,,,,,,,,,,,,,,,,,,,,,,,,,,,,,,,,,,,,,,,,,,,,,,,,,,,,,,,,,,,,,,,,,,,,,,,,,,,,
,,,,,,3,0,3,0,1,X V Q F H G B L J M P D K C T S W R N Z,5f3aee04e30eac7cb73b416e,26,Mężczyzna,2022-06-25_15h34.20.955,task,2021.1.4,Win32,162.73393,6299f149e92ead563fba08ef,62b70e44c88a7da0418fa21d,,,,,,,,,,,,,,,,,,,,,,,,,,,,,,,,,,,,,,,,,,,,,,,,,,,,,,,,,,,,,,,,,,,,,,,,,,,,,,,,,,,,,,,,,,,,,,,,,,,,,
,,,,,,4,0,4,0,1,X V Q F H G B L J M P D K C T S W R N Z,5f3aee04e30eac7cb73b416e,26,Mężczyzna,2022-06-25_15h34.20.955,task,2021.1.4,Win32,162.73393,6299f149e92ead563fba08ef,62b70e44c88a7da0418fa21d,,,,,,,,,,,,,,,,,,,,,,,,,,,,,,,,,,,,,,,,,,,,,,,,,,,,,,,,,,,,,,,,,,,,,,,,,,,,,,,,,,,,,,,,,,,,,,,,,,,,,
,,,,,,5,0,5,0,1,X V Q F H G B L J M P D K C T S W R N Z,5f3aee04e30eac7cb73b416e,26,Mężczyzna,2022-06-25_15h34.20.955,task,2021.1.4,Win32,162.73393,6299f149e92ead563fba08ef,62b70e44c88a7da0418fa21d,,,,,,,,,,,,,,,,,,,,,,,,,,,,,,,,,,,,,,,,,,,,,,,,,,,,,,,,,,,,,,,,,,,,,,,,,,,,,,,,,,,,,,,,,,,,,,,,,,,,,
,,,,,,6,0,6,0,1,X V Q F H G B L J M P D K C T S W R N Z,5f3aee04e30eac7cb73b416e,26,Mężczyzna,2022-06-25_15h34.20.955,task,2021.1.4,Win32,162.73393,6299f149e92ead563fba08ef,62b70e44c88a7da0418fa21d,,,,,,,,,,,,,,,,,,,,,,,,,,,,,,,,,,,,,,,,,,,,,,,,,,,,,,,,,,,,,,,,,,,,,,,,,,,,,,,,,,,,,,,,,,,,,,,,,,,,,
,,,,,,7,0,7,0,1,X V Q F H G B L J M P D K C T S W R N Z,5f3aee04e30eac7cb73b416e,26,Mężczyzna,2022-06-25_15h34.20.955,task,2021.1.4,Win32,162.73393,6299f149e92ead563fba08ef,62b70e44c88a7da0418fa21d,,,,,,,,,,,,,,,,,,,,,,,,,,,,,,,,,,,,,,,,,,,,,,,,,,,,,,,,,,,,,,,,,,,,,,,,,,,,,,,,,,,,,,,,,,,,,,,,,,,,,
,,,,,,8,0,8,0,1,X V Q F H G B L J M P D K C T S W R N Z,5f3aee04e30eac7cb73b416e,26,Mężczyzna,2022-06-25_15h34.20.955,task,2021.1.4,Win32,162.73393,6299f149e92ead563fba08ef,62b70e44c88a7da0418fa21d,,,,,,,,,,,,,,,,,,,,,,,,,,,,,,,,,,,,,,,,,,,,,,,,,,,,,,,,,,,,,,,,,,,,,,,,,,,,,,,,,,,,,,,,,,,,,,,,,,,,,
,,,,,,,,,,,,5f3aee04e30eac7cb73b416e,26,Mężczyzna,2022-06-25_15h34.20.955,task,2021.1.4,Win32,162.73393,6299f149e92ead563fba08ef,62b70e44c88a7da0418fa21d,whhmbkpfv,"[""w"",""h"",""h"",""m"",""b"",""k"",""p"",""f"",""v""]","[3.55610000014309,3.935400000095399,4.090700000047718,5.156700000047692,7.262400000095397,7.4177000000477165,8.756800000190765,8.84090000009536,8.92560000014305,9.161500000000046]",1,WHHMBKPFV,19,0,19,0,1,,,,,,,,,,,,,,,,,,,,,,,,,,,,,,,,,,,,,,,,,,,,,,,,,,,,,,,,,,,,,,,,,,,,,,,,,,,,,,,,,,,,,,,,,,,
,,,,,,0,0,0,0,1,X V Q F H G B L J M P D K C T S W R N Z,5f3aee04e30eac7cb73b416e,26,Mężczyzna,2022-06-25_15h34.20.955,task,2021.1.4,Win32,162.73393,6299f149e92ead563fba08ef,62b70e44c88a7da0418fa21d,,,,,,,,,,,,,,,,,,,,,,,,,,,,,,,,,,,,,,,,,,,,,,,,,,,,,,,,,,,,,,,,,,,,,,,,,,,,,,,,,,,,,,,,,,,,,,,,,,,,,
,,,,,,1,0,1,0,1,X V Q F H G B L J M P D K C T S W R N Z,5f3aee04e30eac7cb73b416e,26,Mężczyzna,2022-06-25_15h34.20.955,task,2021.1.4,Win32,162.73393,6299f149e92ead563fba08ef,62b70e44c88a7da0418fa21d,,,,,,,,,,,,,,,,,,,,,,,,,,,,,,,,,,,,,,,,,,,,,,,,,,,,,,,,,,,,,,,,,,,,,,,,,,,,,,,,,,,,,,,,,,,,,,,,,,,,,
,,,,,,2,0,2,0,1,X V Q F H G B L J M P D K C T S W R N Z,5f3aee04e30eac7cb73b416e,26,Mężczyzna,2022-06-25_15h34.20.955,task,2021.1.4,Win32,162.73393,6299f149e92ead563fba08ef,62b70e44c88a7da0418fa21d,,,,,,,,,,,,,,,,,,,,,,,,,,,,,,,,,,,,,,,,,,,,,,,,,,,,,,,,,,,,,,,,,,,,,,,,,,,,,,,,,,,,,,,,,,,,,,,,,,,,,
,,,,,,3,0,3,0,1,X V Q F H G B L J M P D K C T S W R N Z,5f3aee04e30eac7cb73b416e,26,Mężczyzna,2022-06-25_15h34.20.955,task,2021.1.4,Win32,162.73393,6299f149e92ead563fba08ef,62b70e44c88a7da0418fa21d,,,,,,,,,,,,,,,,,,,,,,,,,,,,,,,,,,,,,,,,,,,,,,,,,,,,,,,,,,,,,,,,,,,,,,,,,,,,,,,,,,,,,,,,,,,,,,,,,,,,,
,,,,,,4,0,4,0,1,X V Q F H G B L J M P D K C T S W R N Z,5f3aee04e30eac7cb73b416e,26,Mężczyzna,2022-06-25_15h34.20.955,task,2021.1.4,Win32,162.73393,6299f149e92ead563fba08ef,62b70e44c88a7da0418fa21d,,,,,,,,,,,,,,,,,,,,,,,,,,,,,,,,,,,,,,,,,,,,,,,,,,,,,,,,,,,,,,,,,,,,,,,,,,,,,,,,,,,,,,,,,,,,,,,,,,,,,
,,,,,,5,0,5,0,1,X V Q F H G B L J M P D K C T S W R N Z,5f3aee04e30eac7cb73b416e,26,Mężczyzna,2022-06-25_15h34.20.955,task,2021.1.4,Win32,162.73393,6299f149e92ead563fba08ef,62b70e44c88a7da0418fa21d,,,,,,,,,,,,,,,,,,,,,,,,,,,,,,,,,,,,,,,,,,,,,,,,,,,,,,,,,,,,,,,,,,,,,,,,,,,,,,,,,,,,,,,,,,,,,,,,,,,,,
,,,,,,6,0,6,0,1,X V Q F H G B L J M P D K C T S W R N Z,5f3aee04e30eac7cb73b416e,26,Mężczyzna,2022-06-25_15h34.20.955,task,2021.1.4,Win32,162.73393,6299f149e92ead563fba08ef,62b70e44c88a7da0418fa21d,,,,,,,,,,,,,,,,,,,,,,,,,,,,,,,,,,,,,,,,,,,,,,,,,,,,,,,,,,,,,,,,,,,,,,,,,,,,,,,,,,,,,,,,,,,,,,,,,,,,,
,,,,,,7,0,7,0,1,X V Q F H G B L J M P D K C T S W R N Z,5f3aee04e30eac7cb73b416e,26,Mężczyzna,2022-06-25_15h34.20.955,task,2021.1.4,Win32,162.73393,6299f149e92ead563fba08ef,62b70e44c88a7da0418fa21d,,,,,,,,,,,,,,,,,,,,,,,,,,,,,,,,,,,,,,,,,,,,,,,,,,,,,,,,,,,,,,,,,,,,,,,,,,,,,,,,,,,,,,,,,,,,,,,,,,,,,
,,,,,,8,0,8,0,1,X V Q F H G B L J M P D K C T S W R N Z,5f3aee04e30eac7cb73b416e,26,Mężczyzna,2022-06-25_15h34.20.955,task,2021.1.4,Win32,162.73393,6299f149e92ead563fba08ef,62b70e44c88a7da0418fa21d,,,,,,,,,,,,,,,,,,,,,,,,,,,,,,,,,,,,,,,,,,,,,,,,,,,,,,,,,,,,,,,,,,,,,,,,,,,,,,,,,,,,,,,,,,,,,,,,,,,,,
,,,,,,9,0,9,0,1,X V Q F H G B L J M P D K C T S W R N Z,5f3aee04e30eac7cb73b416e,26,Mężczyzna,2022-06-25_15h34.20.955,task,2021.1.4,Win32,162.73393,6299f149e92ead563fba08ef,62b70e44c88a7da0418fa21d,,,,,,,,,,,,,,,,,,,,,,,,,,,,,,,,,,,,,,,,,,,,,,,,,,,,,,,,,,,,,,,,,,,,,,,,,,,,,,,,,,,,,,,,,,,,,,,,,,,,,
,,,,,,,,,,,,5f3aee04e30eac7cb73b416e,26,Mężczyzna,2022-06-25_15h34.20.955,task,2021.1.4,Win32,162.73393,6299f149e92ead563fba08ef,62b70e44c88a7da0418fa21d,tgrdsdjmrz,"[""t"",""g"",""r"",""d"",""s"",""d"",""j"",""m"",""r"",""z""]","[1.6832999999523395,1.8685999999046317,2.439099999904613,2.7377999999523013,2.982700000047714,3.259700000047701,4.044599999904619,4.253400000095382,4.606099999904643,4.908700000047702,5.223900000095398]",1,TGRDSDJMRZ,20,0,20,0,1,,,,,,,,,,,,,,,,,,,,,,,,,,,,,,,,,,,,,,,,,,,,,,,,,,,,,,,,,,,,,,,,,,,,,,,,,,,,,,,,,,,,,,,,,,,
,,,,,,0,0,0,0,1,X V Q F H G B L J M P D K C T S W R N Z,5f3aee04e30eac7cb73b416e,26,Mężczyzna,2022-06-25_15h34.20.955,task,2021.1.4,Win32,162.73393,6299f149e92ead563fba08ef,62b70e44c88a7da0418fa21d,,,,,,,,,,,,,,,,,,,,,,,,,,,,,,,,,,,,,,,,,,,,,,,,,,,,,,,,,,,,,,,,,,,,,,,,,,,,,,,,,,,,,,,,,,,,,,,,,,,,,
,,,,,,1,0,1,0,1,X V Q F H G B L J M P D K C T S W R N Z,5f3aee04e30eac7cb73b416e,26,Mężczyzna,2022-06-25_15h34.20.955,task,2021.1.4,Win32,162.73393,6299f149e92ead563fba08ef,62b70e44c88a7da0418fa21d,,,,,,,,,,,,,,,,,,,,,,,,,,,,,,,,,,,,,,,,,,,,,,,,,,,,,,,,,,,,,,,,,,,,,,,,,,,,,,,,,,,,,,,,,,,,,,,,,,,,,
,,,,,,2,0,2,0,1,X V Q F H G B L J M P D K C T S W R N Z,5f3aee04e30eac7cb73b416e,26,Mężczyzna,2022-06-25_15h34.20.955,task,2021.1.4,Win32,162.73393,6299f149e92ead563fba08ef,62b70e44c88a7da0418fa21d,,,,,,,,,,,,,,,,,,,,,,,,,,,,,,,,,,,,,,,,,,,,,,,,,,,,,,,,,,,,,,,,,,,,,,,,,,,,,,,,,,,,,,,,,,,,,,,,,,,,,
,,,,,,3,0,3,0,1,X V Q F H G B L J M P D K C T S W R N Z,5f3aee04e30eac7cb73b416e,26,Mężczyzna,2022-06-25_15h34.20.955,task,2021.1.4,Win32,162.73393,6299f149e92ead563fba08ef,62b70e44c88a7da0418fa21d,,,,,,,,,,,,,,,,,,,,,,,,,,,,,,,,,,,,,,,,,,,,,,,,,,,,,,,,,,,,,,,,,,,,,,,,,,,,,,,,,,,,,,,,,,,,,,,,,,,,,
,,,,,,4,0,4,0,1,X V Q F H G B L J M P D K C T S W R N Z,5f3aee04e30eac7cb73b416e,26,Mężczyzna,2022-06-25_15h34.20.955,task,2021.1.4,Win32,162.73393,6299f149e92ead563fba08ef,62b70e44c88a7da0418fa21d,,,,,,,,,,,,,,,,,,,,,,,,,,,,,,,,,,,,,,,,,,,,,,,,,,,,,,,,,,,,,,,,,,,,,,,,,,,,,,,,,,,,,,,,,,,,,,,,,,,,,
,,,,,,5,0,5,0,1,X V Q F H G B L J M P D K C T S W R N Z,5f3aee04e30eac7cb73b416e,26,Mężczyzna,2022-06-25_15h34.20.955,task,2021.1.4,Win32,162.73393,6299f149e92ead563fba08ef,62b70e44c88a7da0418fa21d,,,,,,,,,,,,,,,,,,,,,,,,,,,,,,,,,,,,,,,,,,,,,,,,,,,,,,,,,,,,,,,,,,,,,,,,,,,,,,,,,,,,,,,,,,,,,,,,,,,,,
,,,,,,6,0,6,0,1,X V Q F H G B L J M P D K C T S W R N Z,5f3aee04e30eac7cb73b416e,26,Mężczyzna,2022-06-25_15h34.20.955,task,2021.1.4,Win32,162.73393,6299f149e92ead563fba08ef,62b70e44c88a7da0418fa21d,,,,,,,,,,,,,,,,,,,,,,,,,,,,,,,,,,,,,,,,,,,,,,,,,,,,,,,,,,,,,,,,,,,,,,,,,,,,,,,,,,,,,,,,,,,,,,,,,,,,,
,,,,,,7,0,7,0,1,X V Q F H G B L J M P D K C T S W R N Z,5f3aee04e30eac7cb73b416e,26,Mężczyzna,2022-06-25_15h34.20.955,task,2021.1.4,Win32,162.73393,6299f149e92ead563fba08ef,62b70e44c88a7da0418fa21d,,,,,,,,,,,,,,,,,,,,,,,,,,,,,,,,,,,,,,,,,,,,,,,,,,,,,,,,,,,,,,,,,,,,,,,,,,,,,,,,,,,,,,,,,,,,,,,,,,,,,
,,,,,,8,0,8,0,1,X V Q F H G B L J M P D K C T S W R N Z,5f3aee04e30eac7cb73b416e,26,Mężczyzna,2022-06-25_15h34.20.955,task,2021.1.4,Win32,162.73393,6299f149e92ead563fba08ef,62b70e44c88a7da0418fa21d,,,,,,,,,,,,,,,,,,,,,,,,,,,,,,,,,,,,,,,,,,,,,,,,,,,,,,,,,,,,,,,,,,,,,,,,,,,,,,,,,,,,,,,,,,,,,,,,,,,,,
,,,,,,9,0,9,0,1,X V Q F H G B L J M P D K C T S W R N Z,5f3aee04e30eac7cb73b416e,26,Mężczyzna,2022-06-25_15h34.20.955,task,2021.1.4,Win32,162.73393,6299f149e92ead563fba08ef,62b70e44c88a7da0418fa21d,,,,,,,,,,,,,,,,,,,,,,,,,,,,,,,,,,,,,,,,,,,,,,,,,,,,,,,,,,,,,,,,,,,,,,,,,,,,,,,,,,,,,,,,,,,,,,,,,,,,,
,,,,,,,,,,,,5f3aee04e30eac7cb73b416e,26,Mężczyzna,2022-06-25_15h34.20.955,task,2021.1.4,Win32,162.73393,6299f149e92ead563fba08ef,62b70e44c88a7da0418fa21d,rdffkwdvsw,"[""r"",""d"",""f"",""f"",""k"",""w"",""d"",""v"",""s"",""w""]","[1.9143000001907353,2.180600000143045,4.362200000047665,4.538300000190702,6.260200000047632,6.3706000001430425,6.618900000095323,7.078100000143024,8.255100000143045,8.496999999999957,8.968499999999949]",1,RDFFKWDVSW,21,0,21,0,1,,,,,,,,,,,,,,,,,,,,,,,,,,,,,,,,,,,,,,,,,,,,,,,,,,,,,,,,,,,,,,,,,,,,,,,,,,,,,,,,,,,,,,,,,,,
,,,,,,0,0,0,0,1,X V Q F H G B L J M P D K C T S W R N Z,5f3aee04e30eac7cb73b416e,26,Mężczyzna,2022-06-25_15h34.20.955,task,2021.1.4,Win32,162.73393,6299f149e92ead563fba08ef,62b70e44c88a7da0418fa21d,,,,,,,,,,,,,,,,,,,,,,,,,,,,,,,,,,,,,,,,,,,,,,,,,,,,,,,,,,,,,,,,,,,,,,,,,,,,,,,,,,,,,,,,,,,,,,,,,,,,,
,,,,,,1,0,1,0,1,X V Q F H G B L J M P D K C T S W R N Z,5f3aee04e30eac7cb73b416e,26,Mężczyzna,2022-06-25_15h34.20.955,task,2021.1.4,Win32,162.73393,6299f149e92ead563fba08ef,62b70e44c88a7da0418fa21d,,,,,,,,,,,,,,,,,,,,,,,,,,,,,,,,,,,,,,,,,,,,,,,,,,,,,,,,,,,,,,,,,,,,,,,,,,,,,,,,,,,,,,,,,,,,,,,,,,,,,
,,,,,,2,0,2,0,1,X V Q F H G B L J M P D K C T S W R N Z,5f3aee04e30eac7cb73b416e,26,Mężczyzna,2022-06-25_15h34.20.955,task,2021.1.4,Win32,162.73393,6299f149e92ead563fba08ef,62b70e44c88a7da0418fa21d,,,,,,,,,,,,,,,,,,,,,,,,,,,,,,,,,,,,,,,,,,,,,,,,,,,,,,,,,,,,,,,,,,,,,,,,,,,,,,,,,,,,,,,,,,,,,,,,,,,,,
,,,,,,3,0,3,0,1,X V Q F H G B L J M P D K C T S W R N Z,5f3aee04e30eac7cb73b416e,26,Mężczyzna,2022-06-25_15h34.20.955,task,2021.1.4,Win32,162.73393,6299f149e92ead563fba08ef,62b70e44c88a7da0418fa21d,,,,,,,,,,,,,,,,,,,,,,,,,,,,,,,,,,,,,,,,,,,,,,,,,,,,,,,,,,,,,,,,,,,,,,,,,,,,,,,,,,,,,,,,,,,,,,,,,,,,,
,,,,,,4,0,4,0,1,X V Q F H G B L J M P D K C T S W R N Z,5f3aee04e30eac7cb73b416e,26,Mężczyzna,2022-06-25_15h34.20.955,task,2021.1.4,Win32,162.73393,6299f149e92ead563fba08ef,62b70e44c88a7da0418fa21d,,,,,,,,,,,,,,,,,,,,,,,,,,,,,,,,,,,,,,,,,,,,,,,,,,,,,,,,,,,,,,,,,,,,,,,,,,,,,,,,,,,,,,,,,,,,,,,,,,,,,
,,,,,,5,0,5,0,1,X V Q F H G B L J M P D K C T S W R N Z,5f3aee04e30eac7cb73b416e,26,Mężczyzna,2022-06-25_15h34.20.955,task,2021.1.4,Win32,162.73393,6299f149e92ead563fba08ef,62b70e44c88a7da0418fa21d,,,,,,,,,,,,,,,,,,,,,,,,,,,,,,,,,,,,,,,,,,,,,,,,,,,,,,,,,,,,,,,,,,,,,,,,,,,,,,,,,,,,,,,,,,,,,,,,,,,,,
,,,,,,6,0,6,0,1,X V Q F H G B L J M P D K C T S W R N Z,5f3aee04e30eac7cb73b416e,26,Mężczyzna,2022-06-25_15h34.20.955,task,2021.1.4,Win32,162.73393,6299f149e92ead563fba08ef,62b70e44c88a7da0418fa21d,,,,,,,,,,,,,,,,,,,,,,,,,,,,,,,,,,,,,,,,,,,,,,,,,,,,,,,,,,,,,,,,,,,,,,,,,,,,,,,,,,,,,,,,,,,,,,,,,,,,,
,,,,,,7,0,7,0,1,X V Q F H G B L J M P D K C T S W R N Z,5f3aee04e30eac7cb73b416e,26,Mężczyzna,2022-06-25_15h34.20.955,task,2021.1.4,Win32,162.73393,6299f149e92ead563fba08ef,62b70e44c88a7da0418fa21d,,,,,,,,,,,,,,,,,,,,,,,,,,,,,,,,,,,,,,,,,,,,,,,,,,,,,,,,,,,,,,,,,,,,,,,,,,,,,,,,,,,,,,,,,,,,,,,,,,,,,
,,,,,,8,0,8,0,1,X V Q F H G B L J M P D K C T S W R N Z,5f3aee04e30eac7cb73b416e,26,Mężczyzna,2022-06-25_15h34.20.955,task,2021.1.4,Win32,162.73393,6299f149e92ead563fba08ef,62b70e44c88a7da0418fa21d,,,,,,,,,,,,,,,,,,,,,,,,,,,,,,,,,,,,,,,,,,,,,,,,,,,,,,,,,,,,,,,,,,,,,,,,,,,,,,,,,,,,,,,,,,,,,,,,,,,,,
,,,,,,9,0,9,0,1,X V Q F H G B L J M P D K C T S W R N Z,5f3aee04e30eac7cb73b416e,26,Mężczyzna,2022-06-25_15h34.20.955,task,2021.1.4,Win32,162.73393,6299f149e92ead563fba08ef,62b70e44c88a7da0418fa21d,,,,,,,,,,,,,,,,,,,,,,,,,,,,,,,,,,,,,,,,,,,,,,,,,,,,,,,,,,,,,,,,,,,,,,,,,,,,,,,,,,,,,,,,,,,,,,,,,,,,,
,,,,,,10,0,10,0,1,X V Q F H G B L J M P D K C T S W R N Z,5f3aee04e30eac7cb73b416e,26,Mężczyzna,2022-06-25_15h34.20.955,task,2021.1.4,Win32,162.73393,6299f149e92ead563fba08ef,62b70e44c88a7da0418fa21d,,,,,,,,,,,,,,,,,,,,,,,,,,,,,,,,,,,,,,,,,,,,,,,,,,,,,,,,,,,,,,,,,,,,,,,,,,,,,,,,,,,,,,,,,,,,,,,,,,,,,
,,,,,,,,,,,,5f3aee04e30eac7cb73b416e,26,Mężczyzna,2022-06-25_15h34.20.955,task,2021.1.4,Win32,162.73393,6299f149e92ead563fba08ef,62b70e44c88a7da0418fa21d,pzrznvxljlx,"[""p"",""z"",""r"",""z"",""n"",""v"",""x"",""l"",""j"",""l"",""x""]","[1.5184000000953688,1.6692999999523295,2.266099999904611,2.937000000000012,3.581400000095357,3.8392999999523454,5.208799999952305,5.356499999999983,5.726099999904648,6.073599999904616,6.710400000095376,6.97359999990465]",0,DZRZNVXLJGX,22,0,22,0,1,,,,,,,,,,,,,,,,,,,,,,,,,,,,,,,,,,,,,,,,,,,,,,,,,,,,,,,,,,,,,,,,,,,,,,,,,,,,,,,,,,,,,,,,,,,
,,,,,,0,0,0,0,1,X V Q F H G B L J M P D K C T S W R N Z,5f3aee04e30eac7cb73b416e,26,Mężczyzna,2022-06-25_15h34.20.955,task,2021.1.4,Win32,162.73393,6299f149e92ead563fba08ef,62b70e44c88a7da0418fa21d,,,,,,,,,,,,,,,,,,,,,,,,,,,,,,,,,,,,,,,,,,,,,,,,,,,,,,,,,,,,,,,,,,,,,,,,,,,,,,,,,,,,,,,,,,,,,,,,,,,,,
,,,,,,1,0,1,0,1,X V Q F H G B L J M P D K C T S W R N Z,5f3aee04e30eac7cb73b416e,26,Mężczyzna,2022-06-25_15h34.20.955,task,2021.1.4,Win32,162.73393,6299f149e92ead563fba08ef,62b70e44c88a7da0418fa21d,,,,,,,,,,,,,,,,,,,,,,,,,,,,,,,,,,,,,,,,,,,,,,,,,,,,,,,,,,,,,,,,,,,,,,,,,,,,,,,,,,,,,,,,,,,,,,,,,,,,,
,,,,,,2,0,2,0,1,X V Q F H G B L J M P D K C T S W R N Z,5f3aee04e30eac7cb73b416e,26,Mężczyzna,2022-06-25_15h34.20.955,task,2021.1.4,Win32,162.73393,6299f149e92ead563fba08ef,62b70e44c88a7da0418fa21d,,,,,,,,,,,,,,,,,,,,,,,,,,,,,,,,,,,,,,,,,,,,,,,,,,,,,,,,,,,,,,,,,,,,,,,,,,,,,,,,,,,,,,,,,,,,,,,,,,,,,
,,,,,,3,0,3,0,1,X V Q F H G B L J M P D K C T S W R N Z,5f3aee04e30eac7cb73b416e,26,Mężczyzna,2022-06-25_15h34.20.955,task,2021.1.4,Win32,162.73393,6299f149e92ead563fba08ef,62b70e44c88a7da0418fa21d,,,,,,,,,,,,,,,,,,,,,,,,,,,,,,,,,,,,,,,,,,,,,,,,,,,,,,,,,,,,,,,,,,,,,,,,,,,,,,,,,,,,,,,,,,,,,,,,,,,,,
,,,,,,4,0,4,0,1,X V Q F H G B L J M P D K C T S W R N Z,5f3aee04e30eac7cb73b416e,26,Mężczyzna,2022-06-25_15h34.20.955,task,2021.1.4,Win32,162.73393,6299f149e92ead563fba08ef,62b70e44c88a7da0418fa21d,,,,,,,,,,,,,,,,,,,,,,,,,,,,,,,,,,,,,,,,,,,,,,,,,,,,,,,,,,,,,,,,,,,,,,,,,,,,,,,,,,,,,,,,,,,,,,,,,,,,,
,,,,,,5,0,5,0,1,X V Q F H G B L J M P D K C T S W R N Z,5f3aee04e30eac7cb73b416e,26,Mężczyzna,2022-06-25_15h34.20.955,task,2021.1.4,Win32,162.73393,6299f149e92ead563fba08ef,62b70e44c88a7da0418fa21d,,,,,,,,,,,,,,,,,,,,,,,,,,,,,,,,,,,,,,,,,,,,,,,,,,,,,,,,,,,,,,,,,,,,,,,,,,,,,,,,,,,,,,,,,,,,,,,,,,,,,
,,,,,,6,0,6,0,1,X V Q F H G B L J M P D K C T S W R N Z,5f3aee04e30eac7cb73b416e,26,Mężczyzna,2022-06-25_15h34.20.955,task,2021.1.4,Win32,162.73393,6299f149e92ead563fba08ef,62b70e44c88a7da0418fa21d,,,,,,,,,,,,,,,,,,,,,,,,,,,,,,,,,,,,,,,,,,,,,,,,,,,,,,,,,,,,,,,,,,,,,,,,,,,,,,,,,,,,,,,,,,,,,,,,,,,,,
,,,,,,7,0,7,0,1,X V Q F H G B L J M P D K C T S W R N Z,5f3aee04e30eac7cb73b416e,26,Mężczyzna,2022-06-25_15h34.20.955,task,2021.1.4,Win32,162.73393,6299f149e92ead563fba08ef,62b70e44c88a7da0418fa21d,,,,,,,,,,,,,,,,,,,,,,,,,,,,,,,,,,,,,,,,,,,,,,,,,,,,,,,,,,,,,,,,,,,,,,,,,,,,,,,,,,,,,,,,,,,,,,,,,,,,,
,,,,,,8,0,8,0,1,X V Q F H G B L J M P D K C T S W R N Z,5f3aee04e30eac7cb73b416e,26,Mężczyzna,2022-06-25_15h34.20.955,task,2021.1.4,Win32,162.73393,6299f149e92ead563fba08ef,62b70e44c88a7da0418fa21d,,,,,,,,,,,,,,,,,,,,,,,,,,,,,,,,,,,,,,,,,,,,,,,,,,,,,,,,,,,,,,,,,,,,,,,,,,,,,,,,,,,,,,,,,,,,,,,,,,,,,
,,,,,,9,0,9,0,1,X V Q F H G B L J M P D K C T S W R N Z,5f3aee04e30eac7cb73b416e,26,Mężczyzna,2022-06-25_15h34.20.955,task,2021.1.4,Win32,162.73393,6299f149e92ead563fba08ef,62b70e44c88a7da0418fa21d,,,,,,,,,,,,,,,,,,,,,,,,,,,,,,,,,,,,,,,,,,,,,,,,,,,,,,,,,,,,,,,,,,,,,,,,,,,,,,,,,,,,,,,,,,,,,,,,,,,,,
,,,,,,10,0,10,0,1,X V Q F H G B L J M P D K C T S W R N Z,5f3aee04e30eac7cb73b416e,26,Mężczyzna,2022-06-25_15h34.20.955,task,2021.1.4,Win32,162.73393,6299f149e92ead563fba08ef,62b70e44c88a7da0418fa21d,,,,,,,,,,,,,,,,,,,,,,,,,,,,,,,,,,,,,,,,,,,,,,,,,,,,,,,,,,,,,,,,,,,,,,,,,,,,,,,,,,,,,,,,,,,,,,,,,,,,,
,,,,,,,,,,,,5f3aee04e30eac7cb73b416e,26,Mężczyzna,2022-06-25_15h34.20.955,task,2021.1.4,Win32,162.73393,6299f149e92ead563fba08ef,62b70e44c88a7da0418fa21d,xqjcrgqlrkjp,"[""x"",""q"",""j"",""c"",""r"",""g"",""q"",""l"",""r"",""k"",""j"",""p""]","[1.7087000000476564,1.8223000001907508,2.3981000001430743,2.9698000001907303,3.636000000000024,4.0049999999999955,4.3517000000476855,4.51440000009535,4.9220000000000255,5.380400000095392,5.677400000095361,5.943900000095368,6.259900000095342]",0,XQJGRQLRKJP,23,0,23,0,1,,,,,,,,,,,,,,,,,,,,,,,,,,,,,,,,,,,,,,,,,,,,,,,,,,,,,,,,,,,,,,,,,,,,,,,,,,,,,,,,,,,,,,,,,,,
,,,,,,0,0,0,0,1,X V Q F H G B L J M P D K C T S W R N Z,5f3aee04e30eac7cb73b416e,26,Mężczyzna,2022-06-25_15h34.20.955,task,2021.1.4,Win32,162.73393,6299f149e92ead563fba08ef,62b70e44c88a7da0418fa21d,,,,,,,,,,,,,,,,,,,,,,,,,,,,,,,,,,,,,,,,,,,,,,,,,,,,,,,,,,,,,,,,,,,,,,,,,,,,,,,,,,,,,,,,,,,,,,,,,,,,,
,,,,,,1,0,1,0,1,X V Q F H G B L J M P D K C T S W R N Z,5f3aee04e30eac7cb73b416e,26,Mężczyzna,2022-06-25_15h34.20.955,task,2021.1.4,Win32,162.73393,6299f149e92ead563fba08ef,62b70e44c88a7da0418fa21d,,,,,,,,,,,,,,,,,,,,,,,,,,,,,,,,,,,,,,,,,,,,,,,,,,,,,,,,,,,,,,,,,,,,,,,,,,,,,,,,,,,,,,,,,,,,,,,,,,,,,
,,,,,,2,0,2,0,1,X V Q F H G B L J M P D K C T S W R N Z,5f3aee04e30eac7cb73b416e,26,Mężczyzna,2022-06-25_15h34.20.955,task,2021.1.4,Win32,162.73393,6299f149e92ead563fba08ef,62b70e44c88a7da0418fa21d,,,,,,,,,,,,,,,,,,,,,,,,,,,,,,,,,,,,,,,,,,,,,,,,,,,,,,,,,,,,,,,,,,,,,,,,,,,,,,,,,,,,,,,,,,,,,,,,,,,,,
,,,,,,3,0,3,0,1,X V Q F H G B L J M P D K C T S W R N Z,5f3aee04e30eac7cb73b416e,26,Mężczyzna,2022-06-25_15h34.20.955,task,2021.1.4,Win32,162.73393,6299f149e92ead563fba08ef,62b70e44c88a7da0418fa21d,,,,,,,,,,,,,,,,,,,,,,,,,,,,,,,,,,,,,,,,,,,,,,,,,,,,,,,,,,,,,,,,,,,,,,,,,,,,,,,,,,,,,,,,,,,,,,,,,,,,,
,,,,,,4,0,4,0,1,X V Q F H G B L J M P D K C T S W R N Z,5f3aee04e30eac7cb73b416e,26,Mężczyzna,2022-06-25_15h34.20.955,task,2021.1.4,Win32,162.73393,6299f149e92ead563fba08ef,62b70e44c88a7da0418fa21d,,,,,,,,,,,,,,,,,,,,,,,,,,,,,,,,,,,,,,,,,,,,,,,,,,,,,,,,,,,,,,,,,,,,,,,,,,,,,,,,,,,,,,,,,,,,,,,,,,,,,
,,,,,,5,0,5,0,1,X V Q F H G B L J M P D K C T S W R N Z,5f3aee04e30eac7cb73b416e,26,Mężczyzna,2022-06-25_15h34.20.955,task,2021.1.4,Win32,162.73393,6299f149e92ead563fba08ef,62b70e44c88a7da0418fa21d,,,,,,,,,,,,,,,,,,,,,,,,,,,,,,,,,,,,,,,,,,,,,,,,,,,,,,,,,,,,,,,,,,,,,,,,,,,,,,,,,,,,,,,,,,,,,,,,,,,,,
,,,,,,6,0,6,0,1,X V Q F H G B L J M P D K C T S W R N Z,5f3aee04e30eac7cb73b416e,26,Mężczyzna,2022-06-25_15h34.20.955,task,2021.1.4,Win32,162.73393,6299f149e92ead563fba08ef,62b70e44c88a7da0418fa21d,,,,,,,,,,,,,,,,,,,,,,,,,,,,,,,,,,,,,,,,,,,,,,,,,,,,,,,,,,,,,,,,,,,,,,,,,,,,,,,,,,,,,,,,,,,,,,,,,,,,,
,,,,,,7,0,7,0,1,X V Q F H G B L J M P D K C T S W R N Z,5f3aee04e30eac7cb73b416e,26,Mężczyzna,2022-06-25_15h34.20.955,task,2021.1.4,Win32,162.73393,6299f149e92ead563fba08ef,62b70e44c88a7da0418fa21d,,,,,,,,,,,,,,,,,,,,,,,,,,,,,,,,,,,,,,,,,,,,,,,,,,,,,,,,,,,,,,,,,,,,,,,,,,,,,,,,,,,,,,,,,,,,,,,,,,,,,
,,,,,,8,0,8,0,1,X V Q F H G B L J M P D K C T S W R N Z,5f3aee04e30eac7cb73b416e,26,Mężczyzna,2022-06-25_15h34.20.955,task,2021.1.4,Win32,162.73393,6299f149e92ead563fba08ef,62b70e44c88a7da0418fa21d,,,,,,,,,,,,,,,,,,,,,,,,,,,,,,,,,,,,,,,,,,,,,,,,,,,,,,,,,,,,,,,,,,,,,,,,,,,,,,,,,,,,,,,,,,,,,,,,,,,,,
,,,,,,9,0,9,0,1,X V Q F H G B L J M P D K C T S W R N Z,5f3aee04e30eac7cb73b416e,26,Mężczyzna,2022-06-25_15h34.20.955,task,2021.1.4,Win32,162.73393,6299f149e92ead563fba08ef,62b70e44c88a7da0418fa21d,,,,,,,,,,,,,,,,,,,,,,,,,,,,,,,,,,,,,,,,,,,,,,,,,,,,,,,,,,,,,,,,,,,,,,,,,,,,,,,,,,,,,,,,,,,,,,,,,,,,,
,,,,,,10,0,10,0,1,X V Q F H G B L J M P D K C T S W R N Z,5f3aee04e30eac7cb73b416e,26,Mężczyzna,2022-06-25_15h34.20.955,task,2021.1.4,Win32,162.73393,6299f149e92ead563fba08ef,62b70e44c88a7da0418fa21d,,,,,,,,,,,,,,,,,,,,,,,,,,,,,,,,,,,,,,,,,,,,,,,,,,,,,,,,,,,,,,,,,,,,,,,,,,,,,,,,,,,,,,,,,,,,,,,,,,,,,
,,,,,,,,,,,,5f3aee04e30eac7cb73b416e,26,Mężczyzna,2022-06-25_15h34.20.955,task,2021.1.4,Win32,162.73393,6299f149e92ead563fba08ef,62b70e44c88a7da0418fa21d,pptdstjbbmt,"[""p"",""p"",""t"",""d"",""s"",""t"",""j"",""b"",""b"",""m"",""t""]","[1.966300000190813,2.118000000000052,2.4387000000476746,2.834100000143053,3.050100000143061,3.384700000047701,3.8083000001907976,4.324100000143062,4.503600000143024,4.764100000143117,4.8733000001907385,10.924200000047676]",1,PPTDSTJBBMT,24,0,24,0,1,,,,,,,,,,,,,,,,,,,,,,,,,,,,,,,,,,,,,,,,,,,,,,,,,,,,,,,,,,,,,,,,,,,,,,,,,,,,,,,,,,,,,,,,,,,
,,,,,,0,0,0,0,1,X V Q F H G B L J M P D K C T S W R N Z,5f3aee04e30eac7cb73b416e,26,Mężczyzna,2022-06-25_15h34.20.955,task,2021.1.4,Win32,162.73393,6299f149e92ead563fba08ef,62b70e44c88a7da0418fa21d,,,,,,,,,,,,,,,,,,,,,,,,,,,,,,,,,,,,,,,,,,,,,,,,,,,,,,,,,,,,,,,,,,,,,,,,,,,,,,,,,,,,,,,,,,,,,,,,,,,,,
,,,,,,1,0,1,0,1,X V Q F H G B L J M P D K C T S W R N Z,5f3aee04e30eac7cb73b416e,26,Mężczyzna,2022-06-25_15h34.20.955,task,2021.1.4,Win32,162.73393,6299f149e92ead563fba08ef,62b70e44c88a7da0418fa21d,,,,,,,,,,,,,,,,,,,,,,,,,,,,,,,,,,,,,,,,,,,,,,,,,,,,,,,,,,,,,,,,,,,,,,,,,,,,,,,,,,,,,,,,,,,,,,,,,,,,,
,,,,,,2,0,2,0,1,X V Q F H G B L J M P D K C T S W R N Z,5f3aee04e30eac7cb73b416e,26,Mężczyzna,2022-06-25_15h34.20.955,task,2021.1.4,Win32,162.73393,6299f149e92ead563fba08ef,62b70e44c88a7da0418fa21d,,,,,,,,,,,,,,,,,,,,,,,,,,,,,,,,,,,,,,,,,,,,,,,,,,,,,,,,,,,,,,,,,,,,,,,,,,,,,,,,,,,,,,,,,,,,,,,,,,,,,
,,,,,,3,0,3,0,1,X V Q F H G B L J M P D K C T S W R N Z,5f3aee04e30eac7cb73b416e,26,Mężczyzna,2022-06-25_15h34.20.955,task,2021.1.4,Win32,162.73393,6299f149e92ead563fba08ef,62b70e44c88a7da0418fa21d,,,,,,,,,,,,,,,,,,,,,,,,,,,,,,,,,,,,,,,,,,,,,,,,,,,,,,,,,,,,,,,,,,,,,,,,,,,,,,,,,,,,,,,,,,,,,,,,,,,,,
,,,,,,4,0,4,0,1,X V Q F H G B L J M P D K C T S W R N Z,5f3aee04e30eac7cb73b416e,26,Mężczyzna,2022-06-25_15h34.20.955,task,2021.1.4,Win32,162.73393,6299f149e92ead563fba08ef,62b70e44c88a7da0418fa21d,,,,,,,,,,,,,,,,,,,,,,,,,,,,,,,,,,,,,,,,,,,,,,,,,,,,,,,,,,,,,,,,,,,,,,,,,,,,,,,,,,,,,,,,,,,,,,,,,,,,,
,,,,,,5,0,5,0,1,X V Q F H G B L J M P D K C T S W R N Z,5f3aee04e30eac7cb73b416e,26,Mężczyzna,2022-06-25_15h34.20.955,task,2021.1.4,Win32,162.73393,6299f149e92ead563fba08ef,62b70e44c88a7da0418fa21d,,,,,,,,,,,,,,,,,,,,,,,,,,,,,,,,,,,,,,,,,,,,,,,,,,,,,,,,,,,,,,,,,,,,,,,,,,,,,,,,,,,,,,,,,,,,,,,,,,,,,
,,,,,,6,0,6,0,1,X V Q F H G B L J M P D K C T S W R N Z,5f3aee04e30eac7cb73b416e,26,Mężczyzna,2022-06-25_15h34.20.955,task,2021.1.4,Win32,162.73393,6299f149e92ead563fba08ef,62b70e44c88a7da0418fa21d,,,,,,,,,,,,,,,,,,,,,,,,,,,,,,,,,,,,,,,,,,,,,,,,,,,,,,,,,,,,,,,,,,,,,,,,,,,,,,,,,,,,,,,,,,,,,,,,,,,,,
,,,,,,7,0,7,0,1,X V Q F H G B L J M P D K C T S W R N Z,5f3aee04e30eac7cb73b416e,26,Mężczyzna,2022-06-25_15h34.20.955,task,2021.1.4,Win32,162.73393,6299f149e92ead563fba08ef,62b70e44c88a7da0418fa21d,,,,,,,,,,,,,,,,,,,,,,,,,,,,,,,,,,,,,,,,,,,,,,,,,,,,,,,,,,,,,,,,,,,,,,,,,,,,,,,,,,,,,,,,,,,,,,,,,,,,,
,,,,,,8,0,8,0,1,X V Q F H G B L J M P D K C T S W R N Z,5f3aee04e30eac7cb73b416e,26,Mężczyzna,2022-06-25_15h34.20.955,task,2021.1.4,Win32,162.73393,6299f149e92ead563fba08ef,62b70e44c88a7da0418fa21d,,,,,,,,,,,,,,,,,,,,,,,,,,,,,,,,,,,,,,,,,,,,,,,,,,,,,,,,,,,,,,,,,,,,,,,,,,,,,,,,,,,,,,,,,,,,,,,,,,,,,
,,,,,,9,0,9,0,1,X V Q F H G B L J M P D K C T S W R N Z,5f3aee04e30eac7cb73b416e,26,Mężczyzna,2022-06-25_15h34.20.955,task,2021.1.4,Win32,162.73393,6299f149e92ead563fba08ef,62b70e44c88a7da0418fa21d,,,,,,,,,,,,,,,,,,,,,,,,,,,,,,,,,,,,,,,,,,,,,,,,,,,,,,,,,,,,,,,,,,,,,,,,,,,,,,,,,,,,,,,,,,,,,,,,,,,,,
,,,,,,10,0,10,0,1,X V Q F H G B L J M P D K C T S W R N Z,5f3aee04e30eac7cb73b416e,26,Mężczyzna,2022-06-25_15h34.20.955,task,2021.1.4,Win32,162.73393,6299f149e92ead563fba08ef,62b70e44c88a7da0418fa21d,,,,,,,,,,,,,,,,,,,,,,,,,,,,,,,,,,,,,,,,,,,,,,,,,,,,,,,,,,,,,,,,,,,,,,,,,,,,,,,,,,,,,,,,,,,,,,,,,,,,,
,,,,,,,,,,,,5f3aee04e30eac7cb73b416e,26,Mężczyzna,2022-06-25_15h34.20.955,task,2021.1.4,Win32,162.73393,6299f149e92ead563fba08ef,62b70e44c88a7da0418fa21d,tgmpsfgbnxz,"[""t"",""g"",""m"",""p"",""s"",""f"",""g"",""b"",""n"",""x"",""z""]","[1.8374000000953856,2.084100000143053,2.2719999999999345,2.641800000190642,3.0109999999999673,3.332499999999982,3.8423000001906757,6.793300000190698,7.174499999999966,7.314400000095361,7.552100000143014,7.955900000095312]",0,TGMFSFGBNXZ,25,0,25,0,1,,,,,,,,,,,,,,,,,,,,,,,,,,,,,,,,,,,,,,,,,,,,,,,,,,,,,,,,,,,,,,,,,,,,,,,,,,,,,,,,,,,,,,,,,,,
,,,,,,,,,,,,5f3aee04e30eac7cb73b416e,26,Mężczyzna,2022-06-25_15h34.20.955,task,2021.1.4,Win32,162.73393,6299f149e92ead563fba08ef,62b70e44c88a7da0418fa21d,,,,,,,,,,,space,53.7777,5,"[""5""]",1,[4.717800000190664],[4.717800000190664],0,0,0,5,1,Practice,6,(4/2) + 3,5,,,,,,,,,,,,,,,,,,,,,,,,,,,,,,,,,,,,,,,,,,,,,,,,,,,,,,,,,,,,,,,,,,,,,,,,,,,
,,,,,,,,,,,,5f3aee04e30eac7cb73b416e,26,Mężczyzna,2022-06-25_15h34.20.955,task,2021.1.4,Win32,162.73393,6299f149e92ead563fba08ef,62b70e44c88a7da0418fa21d,,,,,,,,,,,,,7,"[""7""]",1,[4.461099999904604],"[4.717800000190664,4.461099999904604]",0,1,1,7,1,Practice,8,(5x5) - 18,7,,,,,,,,,,,,,,,,,,,,,,,,,,,,,,,,,,,,,,,,,,,,,,,,,,,,,,,,,,,,,,,,,,,,,,,,,,,
,,,,,,,,,,,,5f3aee04e30eac7cb73b416e,26,Mężczyzna,2022-06-25_15h34.20.955,task,2021.1.4,Win32,162.73393,6299f149e92ead563fba08ef,62b70e44c88a7da0418fa21d,,,,,,,,,,,,,2,"[""2""]",1,[2.351600000143094],"[4.717800000190664,4.461099999904604,2.351600000143094]",0,2,2,2,1,Practice,3,(4x4) - 14,2,,,,,,,,,,,,,,,,,,,,,,,,,,,,,,,,,,,,,,,,,,,,,,,,,,,,,,,,,,,,,,,,,,,,,,,,,,,
,,,,,,,,,,,,5f3aee04e30eac7cb73b416e,26,Mężczyzna,2022-06-25_15h34.20.955,task,2021.1.4,Win32,162.73393,6299f149e92ead563fba08ef,62b70e44c88a7da0418fa21d,,,,,,,,,,,,,1,"[""1""]",1,[1.9470000000000027],"[4.717800000190664,4.461099999904604,2.351600000143094,1.9470000000000027]",0,3,3,1,1,Practice,2,(4x4) - 15,1,,,,,,,,,,,,,,,,,,,,,,,,,,,,,,,,,,,,,,,,,,,,,,,,,,,,,,,,,,,,,,,,,,,,,,,,,,,
,,,,,,,,,,,,5f3aee04e30eac7cb73b416e,26,Mężczyzna,2022-06-25_15h34.20.955,task,2021.1.4,Win32,162.73393,6299f149e92ead563fba08ef,62b70e44c88a7da0418fa21d,,,,,,,,,,,,,8,"[""8""]",1,[1.5944000000954475],"[4.717800000190664,4.461099999904604,2.351600000143094,1.9470000000000027,1.5944000000954475]",0,4,4,8,1,Practice,9,(3x3) - 1,8,,,,,,,,,,,,,,,,,,,,,,,,,,,,,,,,,,,,,,,,,,,,,,,,,,,,,,,,,,,,,,,,,,,,,,,,,,,
,,,,,,,,,,,,5f3aee04e30eac7cb73b416e,26,Mężczyzna,2022-06-25_15h34.20.955,task,2021.1.4,Win32,162.73393,6299f149e92ead563fba08ef,62b70e44c88a7da0418fa21d,,,,,,,,,,,,,3,"[""3""]",1,[2.057100000143123],"[4.717800000190664,4.461099999904604,2.351600000143094,1.9470000000000027,1.5944000000954475,2.057100000143123]",0,5,5,3,1,Practice,4,(8/4) + 1,3,,,,,,,,,,,,,,,,,,,,,,,,,,,,,,,,,,,,,,,,,,,,,,,,,,,,,,,,,,,,,,,,,,,,,,,,,,,
,,,,,,,,,,,,5f3aee04e30eac7cb73b416e,26,Mężczyzna,2022-06-25_15h34.20.955,task,2021.1.4,Win32,162.73393,6299f149e92ead563fba08ef,62b70e44c88a7da0418fa21d,,,,,,,,,,,,,9,"[""9""]",1,[2.0677000000476937],"[4.717800000190664,4.461099999904604,2.351600000143094,1.9470000000000027,1.5944000000954475,2.057100000143123,2.0677000000476937]",0,6,6,9,1,Practice,10,(20/2) - 1,9,,,,,,,,,,,,,,,,,,,,,,,,,,,,,,,,,,,,,,,,,,,,,,,,,,,,,,,,,,,,,,,,,,,,,,,,,,,
,,,,,,,,,,,,5f3aee04e30eac7cb73b416e,26,Mężczyzna,2022-06-25_15h34.20.955,task,2021.1.4,Win32,162.73393,6299f149e92ead563fba08ef,62b70e44c88a7da0418fa21d,,,,,,,,,,,,,0,"[""0""]",1,[1.630700000047682],"[4.717800000190664,4.461099999904604,2.351600000143094,1.9470000000000027,1.5944000000954475,2.057100000143123,2.0677000000476937,1.630700000047682]",0,7,7,0,1,Practice,1,(3x3) -  9,0,,,,,,,,,,,,,,,,,,,,,,,,,,,,,,,,,,,,,,,,,,,,,,,,,,,,,,,,,,,,,,,,,,,,,,,,,,,
,,,,,,,,,,,,5f3aee04e30eac7cb73b416e,26,Mężczyzna,2022-06-25_15h34.20.955,task,2021.1.4,Win32,162.73393,6299f149e92ead563fba08ef,62b70e44c88a7da0418fa21d,,,,,,,,,,,,,4,"[""4""]",1,[4.600000000000023],"[4.717800000190664,4.461099999904604,2.351600000143094,1.9470000000000027,1.5944000000954475,2.057100000143123,2.0677000000476937,1.630700000047682,4.600000000000023]",0,8,8,4,1,Practice,5,(2x6) - 8,4,,,,,,,,,,,,,,,,,,,,,,,,,,,,,,,,,,,,,,,,,,,,,,,,,,,,,,,,,,,,,,,,,,,,,,,,,,,
,,,,,,,,,,,,5f3aee04e30eac7cb73b416e,26,Mężczyzna,2022-06-25_15h34.20.955,task,2021.1.4,Win32,162.73393,6299f149e92ead563fba08ef,62b70e44c88a7da0418fa21d,,,,,,,,,,,,,6,"[""6""]",1,[3.4037000000477065],"[4.717800000190664,4.461099999904604,2.351600000143094,1.9470000000000027,1.5944000000954475,2.057100000143123,2.0677000000476937,1.630700000047682,4.600000000000023,3.4037000000477065]",0,9,9,6,1,Practice,7,(25/5) + 1,6,,,,,,,,,,,,,,,,,,,,,,,,,,,,,,,,,,,,,,,,,,,,,,,,,,,,,,,,,,,,,,,,,,,,,,,,,,,
,,,,,,,,,,,,5f3aee04e30eac7cb73b416e,26,Mężczyzna,2022-06-25_15h34.20.955,task,2021.1.4,Win32,162.73393,6299f149e92ead563fba08ef,62b70e44c88a7da0418fa21d,,,,,,,,,,,,,,,,,,,,,,,,,,,1,28.8311,1.922073333,24.04607488,1.266124661,5.18867496,space,4.2395,0,0,0,0,1,,,,,,,,,,,,,,,,,,,,,,,,,,,,,,,,,,,,,,,,,,,,,,,,,,,,,,,,,,,,,,
,,,,,,,,,,,,5f3aee04e30eac7cb73b416e,26,Mężczyzna,2022-06-25_15h34.20.955,task,2021.1.4,Win32,162.73393,6299f149e92ead563fba08ef,62b70e44c88a7da0418fa21d,,,,,,,,,,,,,9,,,,,,,,,,Practice,10,(20/2) - 1,9,,,,,,,,,,,,,,space,14.7122,"[""9""]",1,[2.0732000000476773],1,0,0,0,9,1,,,,,,,,,,,,,,,,,,,,,,,,,,,,,,,,,,,,,,,,,,,,,,,,,,,
,,,,,,,,,,,X V Q F H G B L J M P D K C T S W R N Z,5f3aee04e30eac7cb73b416e,26,Mężczyzna,2022-06-25_15h34.20.955,task,2021.1.4,Win32,162.73393,6299f149e92ead563fba08ef,62b70e44c88a7da0418fa21d,,,,,,,,,,,,,,,,,,,,,,,,,,,,,,,,,,,,,,,,,,,,,,,,,,,0,0,0,0,1,,,,,,,,,,,,,,,,,,,,,,,,,,,,,,,,,,,,,,,,,,,,,,
,,,,,,,,,,,,5f3aee04e30eac7cb73b416e,26,Mężczyzna,2022-06-25_15h34.20.955,task,2021.1.4,Win32,162.73393,6299f149e92ead563fba08ef,62b70e44c88a7da0418fa21d,,,,,,,,,,,,,1,,,,,,,,,,Practice,2,(4x4) - 15,1,,,,,,,,,,,,,,,,"[""1""]",1,[1.309299999952259],1,0,0,0,1,1,,,,,,,,,,,,,,,,,,,,,,,,,,,,,,,,,,,,,,,,,,,,,,,,,,,
,,,,,,,,,,,X V Q F H G B L J M P D K C T S W R N Z,5f3aee04e30eac7cb73b416e,26,Mężczyzna,2022-06-25_15h34.20.955,task,2021.1.4,Win32,162.73393,6299f149e92ead563fba08ef,62b70e44c88a7da0418fa21d,,,,,,,,,,,,,,,,,,,,,,,,,,,,,,,,,,,,,,,,,,,,,,,,,,,1,0,1,0,1,,,,,,,,,,,,,,,,,,,,,,,,,,,,,,,,,,,,,,,,,,,,,,
,,,,,,,,,,,,5f3aee04e30eac7cb73b416e,26,Mężczyzna,2022-06-25_15h34.20.955,task,2021.1.4,Win32,162.73393,6299f149e92ead563fba08ef,62b70e44c88a7da0418fa21d,,,,,,,,,,,,,,,,,,,,,,,,,,,,,,,,,,,,,,,,,,,,,,,,,,,,,,,,zt,"[""z"",""t""]",0,"[2.748400000095444,2.971200000047702,3.588000000000079]",1,0,0,0,0,1,,,,,,,,,,,,,,,,,,,,,,,,,,,,,,,,,,,,
,,,,,,,,,,,,5f3aee04e30eac7cb73b416e,26,Mężczyzna,2022-06-25_15h34.20.955,task,2021.1.4,Win32,162.73393,6299f149e92ead563fba08ef,62b70e44c88a7da0418fa21d,,,,,,,,,,,,,2,,,,,,,,,,Practice,3,(4x4) - 14,2,,,,,,,,,,,,,,,,"[""2""]",1,[1.6907999999523327],1,0,0,0,2,1,,,,,,,,,,,,,,,,,,,,,,,,,,,,,,,,,,,,,,,,,,,,,,,,,,,
,,,,,,,,,,,X V Q F H G B L J M P D K C T S W R N Z,5f3aee04e30eac7cb73b416e,26,Mężczyzna,2022-06-25_15h34.20.955,task,2021.1.4,Win32,162.73393,6299f149e92ead563fba08ef,62b70e44c88a7da0418fa21d,,,,,,,,,,,,,,,,,,,,,,,,,,,,,,,,,,,,,,,,,,,,,,,,,,,0,0,0,0,1,,,,,,,,,,,,,,,,,,,,,,,,,,,,,,,,,,,,,,,,,,,,,,
,,,,,,,,,,,,5f3aee04e30eac7cb73b416e,26,Mężczyzna,2022-06-25_15h34.20.955,task,2021.1.4,Win32,162.73393,6299f149e92ead563fba08ef,62b70e44c88a7da0418fa21d,,,,,,,,,,,,,0,,,,,,,,,,Practice,1,(3x3) -  9,0,,,,,,,,,,,,,,,,"[""0""]",1,[1.8716000001430757],1,0,0,0,0,1,,,,,,,,,,,,,,,,,,,,,,,,,,,,,,,,,,,,,,,,,,,,,,,,,,,
,,,,,,,,,,,X V Q F H G B L J M P D K C T S W R N Z,5f3aee04e30eac7cb73b416e,26,Mężczyzna,2022-06-25_15h34.20.955,task,2021.1.4,Win32,162.73393,6299f149e92ead563fba08ef,62b70e44c88a7da0418fa21d,,,,,,,,,,,,,,,,,,,,,,,,,,,,,,,,,,,,,,,,,,,,,,,,,,,1,0,1,0,1,,,,,,,,,,,,,,,,,,,,,,,,,,,,,,,,,,,,,,,,,,,,,,
,,,,,,,,,,,,5f3aee04e30eac7cb73b416e,26,Mężczyzna,2022-06-25_15h34.20.955,task,2021.1.4,Win32,162.73393,6299f149e92ead563fba08ef,62b70e44c88a7da0418fa21d,,,,,,,,,,,,,,,,,,,,,,,,,,,,,,,,,,,,,,,,,,,,,,,,,,,,,,,,jq,"[""j"",""q""]",0,"[1.6560999999046544,1.7430999999046435,2.9957999999522826]",1,1,0,1,0,1,,,,,,,,,,,,,,,,,,,,,,,,,,,,,,,,,,,,
,,,,,,,,,,,,5f3aee04e30eac7cb73b416e,26,Mężczyzna,2022-06-25_15h34.20.955,task,2021.1.4,Win32,162.73393,6299f149e92ead563fba08ef,62b70e44c88a7da0418fa21d,,,,,,,,,,,,,3,,,,,,,,,,Practice,4,(8/4) + 1,3,,,,,,,,,,,,,,,,"[""3""]",1,[1.8245000000000573],1,0,0,0,3,1,,,,,,,,,,,,,,,,,,,,,,,,,,,,,,,,,,,,,,,,,,,,,,,,,,,
,,,,,,,,,,,X V Q F H G B L J M P D K C T S W R N Z,5f3aee04e30eac7cb73b416e,26,Mężczyzna,2022-06-25_15h34.20.955,task,2021.1.4,Win32,162.73393,6299f149e92ead563fba08ef,62b70e44c88a7da0418fa21d,,,,,,,,,,,,,,,,,,,,,,,,,,,,,,,,,,,,,,,,,,,,,,,,,,,0,0,0,0,1,,,,,,,,,,,,,,,,,,,,,,,,,,,,,,,,,,,,,,,,,,,,,,
,,,,,,,,,,,,5f3aee04e30eac7cb73b416e,26,Mężczyzna,2022-06-25_15h34.20.955,task,2021.1.4,Win32,162.73393,6299f149e92ead563fba08ef,62b70e44c88a7da0418fa21d,,,,,,,,,,,,,5,,,,,,,,,,Practice,6,(4/2) + 3,5,,,,,,,,,,,,,,,,"[""5""]",1,[1.7440999999046198],1,0,0,0,5,1,,,,,,,,,,,,,,,,,,,,,,,,,,,,,,,,,,,,,,,,,,,,,,,,,,,
,,,,,,,,,,,X V Q F H G B L J M P D K C T S W R N Z,5f3aee04e30eac7cb73b416e,26,Mężczyzna,2022-06-25_15h34.20.955,task,2021.1.4,Win32,162.73393,6299f149e92ead563fba08ef,62b70e44c88a7da0418fa21d,,,,,,,,,,,,,,,,,,,,,,,,,,,,,,,,,,,,,,,,,,,,,,,,,,,1,0,1,0,1,,,,,,,,,,,,,,,,,,,,,,,,,,,,,,,,,,,,,,,,,,,,,,
,,,,,,,,,,,,5f3aee04e30eac7cb73b416e,26,Mężczyzna,2022-06-25_15h34.20.955,task,2021.1.4,Win32,162.73393,6299f149e92ead563fba08ef,62b70e44c88a7da0418fa21d,,,,,,,,,,,,,,,,,,,,,,,,,,,,,,,,,,,,,,,,,,,,,,,,,,,,,,,,nh,"[""n"",""h""]",0,"[1.9569999999999936,2.0677000000476937,2.6119999999999663]",1,2,0,2,0,1,,,,,,,,,,,,,,,,,,,,,,,,,,,,,,,,,,,,
,,,,,,,,,,,,5f3aee04e30eac7cb73b416e,26,Mężczyzna,2022-06-25_15h34.20.955,task,2021.1.4,Win32,162.73393,6299f149e92ead563fba08ef,62b70e44c88a7da0418fa21d,,,,,,,,,,,,,1,,,,,,,,,,Task,9,(3x7) - 20,1,,,,,,,,,,,,,,,,,,,1,,,,,,,,,,,,,,,,,,,,,space,19.9355,"[""1""]",1,[1.748099999904639],0,0,0,8,1,,,,,,,,,,,,,,,,,,,,,,,,,,
,,,,,,,,,,,X V Q F H G B L J M P D K C T S W R N Z,5f3aee04e30eac7cb73b416e,26,Mężczyzna,2022-06-25_15h34.20.955,task,2021.1.4,Win32,162.73393,6299f149e92ead563fba08ef,62b70e44c88a7da0418fa21d,,,,,,,,,,,,,,,,,,,,,,,,,,,,,,,,,,,,,,,,,,,,,,,,,,,,,,,,,,,,,,,,,,,,,,,,,,,,0,0,0,0,1,,,,,,,,,,,,,,,,,,,,,
,,,,,,,,,,,,5f3aee04e30eac7cb73b416e,26,Mężczyzna,2022-06-25_15h34.20.955,task,2021.1.4,Win32,162.73393,6299f149e92ead563fba08ef,62b70e44c88a7da0418fa21d,,,,,,,,,,,,,0,,,,,,,,,,Task,17,(2x3) - 6,0,,,,,,,,,,,,,,,,,,,1,,,,,,,,,,,,,,,,,,,,,,,"[""0""]",1,[2.32189999985701],0,0,0,16,1,,,,,,,,,,,,,,,,,,,,,,,,,,
,,,,,,,,,,,X V Q F H G B L J M P D K C T S W R N Z,5f3aee04e30eac7cb73b416e,26,Mężczyzna,2022-06-25_15h34.20.955,task,2021.1.4,Win32,162.73393,6299f149e92ead563fba08ef,62b70e44c88a7da0418fa21d,,,,,,,,,,,,,,,,,,,,,,,,,,,,,,,,,,,,,,,,,,,,,,,,,,,,,,,,,,,,,,,,,,,,,,,,,,,,1,0,1,0,1,,,,,,,,,,,,,,,,,,,,,
,,,,,,,,,,,,5f3aee04e30eac7cb73b416e,26,Mężczyzna,2022-06-25_15h34.20.955,task,2021.1.4,Win32,162.73393,6299f149e92ead563fba08ef,62b70e44c88a7da0418fa21d,,,,,,,,,,,,,,,,,,,,,,,,,,,,,,,,,,,,,,,,,,,,,,,,,,,,,,,,,,,,,,,,,,,,,,,,,,,,,,,,,zw,"[""z"",""w""]",0,"[2.369400000095311,2.5172999999523427,3.04200000000003]",1,ZW,0,0,0,0,1,,,,,,,,,,
,,,,,,,,,,,,5f3aee04e30eac7cb73b416e,26,Mężczyzna,2022-06-25_15h34.20.955,task,2021.1.4,Win32,162.73393,6299f149e92ead563fba08ef,62b70e44c88a7da0418fa21d,,,,,,,,,,,,,9,,,,,,,,,,Task,24,(2x2) + 5,9,,,,,,,,,,,,,,,,,,,1,,,,,,,,,,,,,,,,,,,,,,,"[""9""]",1,[2.96390000009535],0,0,0,23,1,,,,,,,,,,,,,,,,,,,,,,,,,,
,,,,,,,,,,,X V Q F H G B L J M P D K C T S W R N Z,5f3aee04e30eac7cb73b416e,26,Mężczyzna,2022-06-25_15h34.20.955,task,2021.1.4,Win32,162.73393,6299f149e92ead563fba08ef,62b70e44c88a7da0418fa21d,,,,,,,,,,,,,,,,,,,,,,,,,,,,,,,,,,,,,,,,,,,,,,,,,,,,,,,,,,,,,,,,,,,,,,,,,,,,0,0,0,0,1,,,,,,,,,,,,,,,,,,,,,
,,,,,,,,,,,,5f3aee04e30eac7cb73b416e,26,Mężczyzna,2022-06-25_15h34.20.955,task,2021.1.4,Win32,162.73393,6299f149e92ead563fba08ef,62b70e44c88a7da0418fa21d,,,,,,,,,,,,,4,,,,,,,,,,Task,21,(10/2) - 1,4,,,,,,,,,,,,,,,,,,,1,,,,,,,,,,,,,,,,,,,,,,,"[""4""]",1,[2.5259999999999536],0,0,0,20,1,,,,,,,,,,,,,,,,,,,,,,,,,,
,,,,,,,,,,,X V Q F H G B L J M P D K C T S W R N Z,5f3aee04e30eac7cb73b416e,26,Mężczyzna,2022-06-25_15h34.20.955,task,2021.1.4,Win32,162.73393,6299f149e92ead563fba08ef,62b70e44c88a7da0418fa21d,,,,,,,,,,,,,,,,,,,,,,,,,,,,,,,,,,,,,,,,,,,,,,,,,,,,,,,,,,,,,,,,,,,,,,,,,,,,1,0,1,0,1,,,,,,,,,,,,,,,,,,,,,
,,,,,,,,,,,,5f3aee04e30eac7cb73b416e,26,Mężczyzna,2022-06-25_15h34.20.955,task,2021.1.4,Win32,162.73393,6299f149e92ead563fba08ef,62b70e44c88a7da0418fa21d,,,,,,,,,,,,,4,,,,,,,,,,Task,21,(10/2) - 1,4,,,,,,,,,,,,,,,,,,,1,,,,,,,,,,,,,,,,,,,,,,,"[""4""]",1,[4.812700000047698],0,0,0,20,1,,,,,,,,,,,,,,,,,,,,,,,,,,
,,,,,,,,,,,X V Q F H G B L J M P D K C T S W R N Z,5f3aee04e30eac7cb73b416e,26,Mężczyzna,2022-06-25_15h34.20.955,task,2021.1.4,Win32,162.73393,6299f149e92ead563fba08ef,62b70e44c88a7da0418fa21d,,,,,,,,,,,,,,,,,,,,,,,,,,,,,,,,,,,,,,,,,,,,,,,,,,,,,,,,,,,,,,,,,,,,,,,,,,,,2,0,2,0,1,,,,,,,,,,,,,,,,,,,,,
,,,,,,,,,,,,5f3aee04e30eac7cb73b416e,26,Mężczyzna,2022-06-25_15h34.20.955,task,2021.1.4,Win32,162.73393,6299f149e92ead563fba08ef,62b70e44c88a7da0418fa21d,,,,,,,,,,,,,,,,,,,,,,,,,,,,,,,,,,,,,,,,,,,,,,,,,,,,,,,,,,,,,,,,,,,,,,,,,,,,,,,,,lzq,"[""l"",""z"",""q""]",0,"[2.7962999999522253,2.9279999999999973,3.0362999999522344,3.4607999999523145]",0,LQZ,1,0,1,0,1,,,,,,,,,,
,,,,,,,,,,,,5f3aee04e30eac7cb73b416e,26,Mężczyzna,2022-06-25_15h34.20.955,task,2021.1.4,Win32,162.73393,6299f149e92ead563fba08ef,62b70e44c88a7da0418fa21d,,,,,,,,,,,,,,,,,,,,,,,Task,38,(4x6) - 17,7,,,,,,,,,,,,,,,,,,,0,,,,,,,,,,,,,,,,,,,,,,,,0,,0,0,0,37,1,,,,,,,,,,,,,,,,,,,,,,,,,,
,,,,,,,,,,,,5f3aee04e30eac7cb73b416e,26,Mężczyzna,2022-06-25_15h34.20.955,task,2021.1.4,Win32,162.73393,6299f149e92ead563fba08ef,62b70e44c88a7da0418fa21d,,,,,,,,,,,,,4,,,,,,,,,,Task,21,(10/2) - 1,4,,,,,,,,,,,,,,,,,,,1,,,,,,,,,,,,,,,,,,,,,,,"[""4""]",1,[2.0591000001430757],0,1,1,20,1,,,,,,,,,,,,,,,,,,,,,,,,,,
,,,,,,,,,,,X V Q F H G B L J M P D K C T S W R N Z,5f3aee04e30eac7cb73b416e,26,Mężczyzna,2022-06-25_15h34.20.955,task,2021.1.4,Win32,162.73393,6299f149e92ead563fba08ef,62b70e44c88a7da0418fa21d,,,,,,,,,,,,,,,,,,,,,,,,,,,,,,,,,,,,,,,,,,,,,,,,,,,,,,,,,,,,,,,,,,,,,,,,,,,,0,0,0,0,1,,,,,,,,,,,,,,,,,,,,,
,,,,,,,,,,,,5f3aee04e30eac7cb73b416e,26,Mężczyzna,2022-06-25_15h34.20.955,task,2021.1.4,Win32,162.73393,6299f149e92ead563fba08ef,62b70e44c88a7da0418fa21d,,,,,,,,,,,,,5,,,,,,,,,,Task,29,(3x8) - 19 ,5,,,,,,,,,,,,,,,,,,,1,,,,,,,,,,,,,,,,,,,,,,,"[""5""]",1,[4.522999999999911],0,0,0,28,1,,,,,,,,,,,,,,,,,,,,,,,,,,
,,,,,,,,,,,X V Q F H G B L J M P D K C T S W R N Z,5f3aee04e30eac7cb73b416e,26,Mężczyzna,2022-06-25_15h34.20.955,task,2021.1.4,Win32,162.73393,6299f149e92ead563fba08ef,62b70e44c88a7da0418fa21d,,,,,,,,,,,,,,,,,,,,,,,,,,,,,,,,,,,,,,,,,,,,,,,,,,,,,,,,,,,,,,,,,,,,,,,,,,,,1,0,1,0,1,,,,,,,,,,,,,,,,,,,,,
,,,,,,,,,,,,5f3aee04e30eac7cb73b416e,26,Mężczyzna,2022-06-25_15h34.20.955,task,2021.1.4,Win32,162.73393,6299f149e92ead563fba08ef,62b70e44c88a7da0418fa21d,,,,,,,,,,,,,7,,,,,,,,,,Task,31,(4/2) + 5,7,,,,,,,,,,,,,,,,,,,1,,,,,,,,,,,,,,,,,,,,,,,"[""7""]",1,[2.37340000009533],0,0,0,30,1,,,,,,,,,,,,,,,,,,,,,,,,,,
,,,,,,,,,,,X V Q F H G B L J M P D K C T S W R N Z,5f3aee04e30eac7cb73b416e,26,Mężczyzna,2022-06-25_15h34.20.955,task,2021.1.4,Win32,162.73393,6299f149e92ead563fba08ef,62b70e44c88a7da0418fa21d,,,,,,,,,,,,,,,,,,,,,,,,,,,,,,,,,,,,,,,,,,,,,,,,,,,,,,,,,,,,,,,,,,,,,,,,,,,,2,0,2,0,1,,,,,,,,,,,,,,,,,,,,,
,,,,,,,,,,,,5f3aee04e30eac7cb73b416e,26,Mężczyzna,2022-06-25_15h34.20.955,task,2021.1.4,Win32,162.73393,6299f149e92ead563fba08ef,62b70e44c88a7da0418fa21d,,,,,,,,,,,,,,,,,,,,,,,,,,,,,,,,,,,,,,,,,,,,,,,,,,,,,,,,,,,,,,,,,,,,,,,,,,,,,,,,,gfl,"[""g"",""f"",""l""]",0,"[1.8897000000475828,2.2974000000953083,2.4601000001430293,3.3884000000953165]",1,GFL,2,0,2,0,1,,,,,,,,,,
,,,,,,,,,,,,5f3aee04e30eac7cb73b416e,26,Mężczyzna,2022-06-25_15h34.20.955,task,2021.1.4,Win32,162.73393,6299f149e92ead563fba08ef,62b70e44c88a7da0418fa21d,,,,,,,,,,,,,1,,,,,,,,,,Task,34,(9/3) - 2,1,,,,,,,,,,,,,,,,,,,1,,,,,,,,,,,,,,,,,,,,,,,"[""1""]",1,[2.1518000001907467],0,0,0,33,1,,,,,,,,,,,,,,,,,,,,,,,,,,
,,,,,,,,,,,X V Q F H G B L J M P D K C T S W R N Z,5f3aee04e30eac7cb73b416e,26,Mężczyzna,2022-06-25_15h34.20.955,task,2021.1.4,Win32,162.73393,6299f149e92ead563fba08ef,62b70e44c88a7da0418fa21d,,,,,,,,,,,,,,,,,,,,,,,,,,,,,,,,,,,,,,,,,,,,,,,,,,,,,,,,,,,,,,,,,,,,,,,,,,,,0,0,0,0,1,,,,,,,,,,,,,,,,,,,,,
,,,,,,,,,,,,5f3aee04e30eac7cb73b416e,26,Mężczyzna,2022-06-25_15h34.20.955,task,2021.1.4,Win32,162.73393,6299f149e92ead563fba08ef,62b70e44c88a7da0418fa21d,,,,,,,,,,,,,3,,,,,,,,,,Task,20,(18/9) + 1,3,,,,,,,,,,,,,,,,,,,1,,,,,,,,,,,,,,,,,,,,,,,"[""3""]",1,[1.47170000004769],0,0,0,19,1,,,,,,,,,,,,,,,,,,,,,,,,,,
,,,,,,,,,,,X V Q F H G B L J M P D K C T S W R N Z,5f3aee04e30eac7cb73b416e,26,Mężczyzna,2022-06-25_15h34.20.955,task,2021.1.4,Win32,162.73393,6299f149e92ead563fba08ef,62b70e44c88a7da0418fa21d,,,,,,,,,,,,,,,,,,,,,,,,,,,,,,,,,,,,,,,,,,,,,,,,,,,,,,,,,,,,,,,,,,,,,,,,,,,,1,0,1,0,1,,,,,,,,,,,,,,,,,,,,,
,,,,,,,,,,,,5f3aee04e30eac7cb73b416e,26,Mężczyzna,2022-06-25_15h34.20.955,task,2021.1.4,Win32,162.73393,6299f149e92ead563fba08ef,62b70e44c88a7da0418fa21d,,,,,,,,,,,,,0,,,,,,,,,,Task,8,(1x5) - 5,0,,,,,,,,,,,,,,,,,,,1,,,,,,,,,,,,,,,,,,,,,,,"[""0""]",1,[1.738300000190634],0,0,0,7,1,,,,,,,,,,,,,,,,,,,,,,,,,,
,,,,,,,,,,,X V Q F H G B L J M P D K C T S W R N Z,5f3aee04e30eac7cb73b416e,26,Mężczyzna,2022-06-25_15h34.20.955,task,2021.1.4,Win32,162.73393,6299f149e92ead563fba08ef,62b70e44c88a7da0418fa21d,,,,,,,,,,,,,,,,,,,,,,,,,,,,,,,,,,,,,,,,,,,,,,,,,,,,,,,,,,,,,,,,,,,,,,,,,,,,2,0,2,0,1,,,,,,,,,,,,,,,,,,,,,
,,,,,,,,,,,,5f3aee04e30eac7cb73b416e,26,Mężczyzna,2022-06-25_15h34.20.955,task,2021.1.4,Win32,162.73393,6299f149e92ead563fba08ef,62b70e44c88a7da0418fa21d,,,,,,,,,,,,,5,,,,,,,,,,Task,36,(8/4) + 3,5,,,,,,,,,,,,,,,,,,,1,,,,,,,,,,,,,,,,,,,,,,,"[""5""]",1,[1.5622999999523017],0,0,0,35,1,,,,,,,,,,,,,,,,,,,,,,,,,,
,,,,,,,,,,,X V Q F H G B L J M P D K C T S W R N Z,5f3aee04e30eac7cb73b416e,26,Mężczyzna,2022-06-25_15h34.20.955,task,2021.1.4,Win32,162.73393,6299f149e92ead563fba08ef,62b70e44c88a7da0418fa21d,,,,,,,,,,,,,,,,,,,,,,,,,,,,,,,,,,,,,,,,,,,,,,,,,,,,,,,,,,,,,,,,,,,,,,,,,,,,3,0,3,0,1,,,,,,,,,,,,,,,,,,,,,
,,,,,,,,,,,,5f3aee04e30eac7cb73b416e,26,Mężczyzna,2022-06-25_15h34.20.955,task,2021.1.4,Win32,162.73393,6299f149e92ead563fba08ef,62b70e44c88a7da0418fa21d,,,,,,,,,,,,,,,,,,,,,,,,,,,,,,,,,,,,,,,,,,,,,,,,,,,,,,,,,,,,,,,,,,,,,,,,,,,,,,,,,jkcr,"[""j"",""k"",""c"",""r""]",0,"[1.9262000000476291,2.1399999999999864,2.661400000095341,2.7964999999999236,6.881999999999948]",1,JKCR,3,0,3,0,1,,,,,,,,,,
,,,,,,,,,,,,5f3aee04e30eac7cb73b416e,26,Mężczyzna,2022-06-25_15h34.20.955,task,2021.1.4,Win32,162.73393,6299f149e92ead563fba08ef,62b70e44c88a7da0418fa21d,,,,,,,,,,,,,4,,,,,,,,,,Task,4,(1x5) - 1,4,,,,,,,,,,,,,,,,,,,1,,,,,,,,,,,,,,,,,,,,,,,"[""4""]",1,[1.8008000001907476],0,0,0,3,1,,,,,,,,,,,,,,,,,,,,,,,,,,
,,,,,,,,,,,X V Q F H G B L J M P D K C T S W R N Z,5f3aee04e30eac7cb73b416e,26,Mężczyzna,2022-06-25_15h34.20.955,task,2021.1.4,Win32,162.73393,6299f149e92ead563fba08ef,62b70e44c88a7da0418fa21d,,,,,,,,,,,,,,,,,,,,,,,,,,,,,,,,,,,,,,,,,,,,,,,,,,,,,,,,,,,,,,,,,,,,,,,,,,,,0,0,0,0,1,,,,,,,,,,,,,,,,,,,,,
,,,,,,,,,,,,5f3aee04e30eac7cb73b416e,26,Mężczyzna,2022-06-25_15h34.20.955,task,2021.1.4,Win32,162.73393,6299f149e92ead563fba08ef,62b70e44c88a7da0418fa21d,,,,,,,,,,,,,6,,,,,,,,,,Task,13,(3x4) - 6,6,,,,,,,,,,,,,,,,,,,1,,,,,,,,,,,,,,,,,,,,,,,"[""6""]",1,[1.8811000001430784],0,0,0,12,1,,,,,,,,,,,,,,,,,,,,,,,,,,
,,,,,,,,,,,X V Q F H G B L J M P D K C T S W R N Z,5f3aee04e30eac7cb73b416e,26,Mężczyzna,2022-06-25_15h34.20.955,task,2021.1.4,Win32,162.73393,6299f149e92ead563fba08ef,62b70e44c88a7da0418fa21d,,,,,,,,,,,,,,,,,,,,,,,,,,,,,,,,,,,,,,,,,,,,,,,,,,,,,,,,,,,,,,,,,,,,,,,,,,,,1,0,1,0,1,,,,,,,,,,,,,,,,,,,,,
,,,,,,,,,,,,5f3aee04e30eac7cb73b416e,26,Mężczyzna,2022-06-25_15h34.20.955,task,2021.1.4,Win32,162.73393,6299f149e92ead563fba08ef,62b70e44c88a7da0418fa21d,,,,,,,,,,,,,6,,,,,,,,,,Task,37,(3/3) + 5,6,,,,,,,,,,,,,,,,,,,1,,,,,,,,,,,,,,,,,,,,,,,"[""6""]",1,[2.3160999999046226],0,0,0,36,1,,,,,,,,,,,,,,,,,,,,,,,,,,
,,,,,,,,,,,X V Q F H G B L J M P D K C T S W R N Z,5f3aee04e30eac7cb73b416e,26,Mężczyzna,2022-06-25_15h34.20.955,task,2021.1.4,Win32,162.73393,6299f149e92ead563fba08ef,62b70e44c88a7da0418fa21d,,,,,,,,,,,,,,,,,,,,,,,,,,,,,,,,,,,,,,,,,,,,,,,,,,,,,,,,,,,,,,,,,,,,,,,,,,,,2,0,2,0,1,,,,,,,,,,,,,,,,,,,,,
,,,,,,,,,,,,5f3aee04e30eac7cb73b416e,26,Mężczyzna,2022-06-25_15h34.20.955,task,2021.1.4,Win32,162.73393,6299f149e92ead563fba08ef,62b70e44c88a7da0418fa21d,,,,,,,,,,,,,6,,,,,,,,,,Task,30,(6/3) + 4 ,6,,,,,,,,,,,,,,,,,,,1,,,,,,,,,,,,,,,,,,,,,,,"[""6""]",1,[2.1660999999046453],0,0,0,29,1,,,,,,,,,,,,,,,,,,,,,,,,,,
,,,,,,,,,,,X V Q F H G B L J M P D K C T S W R N Z,5f3aee04e30eac7cb73b416e,26,Mężczyzna,2022-06-25_15h34.20.955,task,2021.1.4,Win32,162.73393,6299f149e92ead563fba08ef,62b70e44c88a7da0418fa21d,,,,,,,,,,,,,,,,,,,,,,,,,,,,,,,,,,,,,,,,,,,,,,,,,,,,,,,,,,,,,,,,,,,,,,,,,,,,3,0,3,0,1,,,,,,,,,,,,,,,,,,,,,
,,,,,,,,,,,,5f3aee04e30eac7cb73b416e,26,Mężczyzna,2022-06-25_15h34.20.955,task,2021.1.4,Win32,162.73393,6299f149e92ead563fba08ef,62b70e44c88a7da0418fa21d,,,,,,,,,,,,,9,,,,,,,,,,Task,40,(7x2) - 5,9,,,,,,,,,,,,,,,,,,,1,,,,,,,,,,,,,,,,,,,,,,,"[""9""]",1,[3.8064999999999145],0,0,0,39,1,,,,,,,,,,,,,,,,,,,,,,,,,,
,,,,,,,,,,,X V Q F H G B L J M P D K C T S W R N Z,5f3aee04e30eac7cb73b416e,26,Mężczyzna,2022-06-25_15h34.20.955,task,2021.1.4,Win32,162.73393,6299f149e92ead563fba08ef,62b70e44c88a7da0418fa21d,,,,,,,,,,,,,,,,,,,,,,,,,,,,,,,,,,,,,,,,,,,,,,,,,,,,,,,,,,,,,,,,,,,,,,,,,,,,4,0,4,0,1,,,,,,,,,,,,,,,,,,,,,
,,,,,,,,,,,,5f3aee04e30eac7cb73b416e,26,Mężczyzna,2022-06-25_15h34.20.955,task,2021.1.4,Win32,162.73393,6299f149e92ead563fba08ef,62b70e44c88a7da0418fa21d,,,,,,,,,,,,,,,,,,,,,,,,,,,,,,,,,,,,,,,,,,,,,,,,,,,,,,,,,,,,,,,,,,,,,,,,,,,,,,,,,tdrtt,"[""t"",""d"",""r"",""t"",""t""]",0,"[2.3374000000953856,2.755700000047682,4.5337999999522935,5.494299999952318,5.655500000000075,6.333099999904675]",1,TDRTT,4,0,4,0,1,,,,,,,,,,
,,,,,,,,,,,,5f3aee04e30eac7cb73b416e,26,Mężczyzna,2022-06-25_15h34.20.955,task,2021.1.4,Win32,162.73393,6299f149e92ead563fba08ef,62b70e44c88a7da0418fa21d,,,,,,,,,,,,,9,,,,,,,,,,Task,7,(3x7) - 12,9,,,,,,,,,,,,,,,,,,,1,,,,,,,,,,,,,,,,,,,,,,,"[""9""]",1,[3.2549999999999955],0,0,0,6,1,,,,,,,,,,,,,,,,,,,,,,,,,,
,,,,,,,,,,,X V Q F H G B L J M P D K C T S W R N Z,5f3aee04e30eac7cb73b416e,26,Mężczyzna,2022-06-25_15h34.20.955,task,2021.1.4,Win32,162.73393,6299f149e92ead563fba08ef,62b70e44c88a7da0418fa21d,,,,,,,,,,,,,,,,,,,,,,,,,,,,,,,,,,,,,,,,,,,,,,,,,,,,,,,,,,,,,,,,,,,,,,,,,,,,0,0,0,0,1,,,,,,,,,,,,,,,,,,,,,
,,,,,,,,,,,,5f3aee04e30eac7cb73b416e,26,Mężczyzna,2022-06-25_15h34.20.955,task,2021.1.4,Win32,162.73393,6299f149e92ead563fba08ef,62b70e44c88a7da0418fa21d,,,,,,,,,,,,,4,,,,,,,,,,Task,28,(2x5) - 6,4,,,,,,,,,,,,,,,,,,,1,,,,,,,,,,,,,,,,,,,,,,,"[""4""]",1,[1.6202999999522945],0,0,0,27,1,,,,,,,,,,,,,,,,,,,,,,,,,,
,,,,,,,,,,,X V Q F H G B L J M P D K C T S W R N Z,5f3aee04e30eac7cb73b416e,26,Mężczyzna,2022-06-25_15h34.20.955,task,2021.1.4,Win32,162.73393,6299f149e92ead563fba08ef,62b70e44c88a7da0418fa21d,,,,,,,,,,,,,,,,,,,,,,,,,,,,,,,,,,,,,,,,,,,,,,,,,,,,,,,,,,,,,,,,,,,,,,,,,,,,1,0,1,0,1,,,,,,,,,,,,,,,,,,,,,
,,,,,,,,,,,,5f3aee04e30eac7cb73b416e,26,Mężczyzna,2022-06-25_15h34.20.955,task,2021.1.4,Win32,162.73393,6299f149e92ead563fba08ef,62b70e44c88a7da0418fa21d,,,,,,,,,,,,,0,,,,,,,,,,Task,33,(1/1) - 1,0,,,,,,,,,,,,,,,,,,,1,,,,,,,,,,,,,,,,,,,,,,,"[""0""]",1,[2.1290999999046107],0,0,0,32,1,,,,,,,,,,,,,,,,,,,,,,,,,,
,,,,,,,,,,,X V Q F H G B L J M P D K C T S W R N Z,5f3aee04e30eac7cb73b416e,26,Mężczyzna,2022-06-25_15h34.20.955,task,2021.1.4,Win32,162.73393,6299f149e92ead563fba08ef,62b70e44c88a7da0418fa21d,,,,,,,,,,,,,,,,,,,,,,,,,,,,,,,,,,,,,,,,,,,,,,,,,,,,,,,,,,,,,,,,,,,,,,,,,,,,2,0,2,0,1,,,,,,,,,,,,,,,,,,,,,
,,,,,,,,,,,,5f3aee04e30eac7cb73b416e,26,Mężczyzna,2022-06-25_15h34.20.955,task,2021.1.4,Win32,162.73393,6299f149e92ead563fba08ef,62b70e44c88a7da0418fa21d,,,,,,,,,,,,,4,,,,,,,,,,Task,11,(18/3) - 2,4,,,,,,,,,,,,,,,,,,,1,,,,,,,,,,,,,,,,,,,,,,,"[""4""]",1,[2.3890999999046016],0,0,0,10,1,,,,,,,,,,,,,,,,,,,,,,,,,,
,,,,,,,,,,,X V Q F H G B L J M P D K C T S W R N Z,5f3aee04e30eac7cb73b416e,26,Mężczyzna,2022-06-25_15h34.20.955,task,2021.1.4,Win32,162.73393,6299f149e92ead563fba08ef,62b70e44c88a7da0418fa21d,,,,,,,,,,,,,,,,,,,,,,,,,,,,,,,,,,,,,,,,,,,,,,,,,,,,,,,,,,,,,,,,,,,,,,,,,,,,3,0,3,0,1,,,,,,,,,,,,,,,,,,,,,
,,,,,,,,,,,,5f3aee04e30eac7cb73b416e,26,Mężczyzna,2022-06-25_15h34.20.955,task,2021.1.4,Win32,162.73393,6299f149e92ead563fba08ef,62b70e44c88a7da0418fa21d,,,,,,,,,,,,,2,,,,,,,,,,Task,10,(2x5) - 8,2,,,,,,,,,,,,,,,,,,,1,,,,,,,,,,,,,,,,,,,,,,,"[""2""]",1,[1.8475000000000819],0,0,0,9,1,,,,,,,,,,,,,,,,,,,,,,,,,,
,,,,,,,,,,,X V Q F H G B L J M P D K C T S W R N Z,5f3aee04e30eac7cb73b416e,26,Mężczyzna,2022-06-25_15h34.20.955,task,2021.1.4,Win32,162.73393,6299f149e92ead563fba08ef,62b70e44c88a7da0418fa21d,,,,,,,,,,,,,,,,,,,,,,,,,,,,,,,,,,,,,,,,,,,,,,,,,,,,,,,,,,,,,,,,,,,,,,,,,,,,4,0,4,0,1,,,,,,,,,,,,,,,,,,,,,
,,,,,,,,,,,,5f3aee04e30eac7cb73b416e,26,Mężczyzna,2022-06-25_15h34.20.955,task,2021.1.4,Win32,162.73393,6299f149e92ead563fba08ef,62b70e44c88a7da0418fa21d,,,,,,,,,,,,,8,,,,,,,,,,Task,39,(5x3) - 7,8,,,,,,,,,,,,,,,,,,,1,,,,,,,,,,,,,,,,,,,,,,,"[""8""]",1,[2.2092999999522362],0,0,0,38,1,,,,,,,,,,,,,,,,,,,,,,,,,,
,,,,,,,,,,,X V Q F H G B L J M P D K C T S W R N Z,5f3aee04e30eac7cb73b416e,26,Mężczyzna,2022-06-25_15h34.20.955,task,2021.1.4,Win32,162.73393,6299f149e92ead563fba08ef,62b70e44c88a7da0418fa21d,,,,,,,,,,,,,,,,,,,,,,,,,,,,,,,,,,,,,,,,,,,,,,,,,,,,,,,,,,,,,,,,,,,,,,,,,,,,5,0,5,0,1,,,,,,,,,,,,,,,,,,,,,
,,,,,,,,,,,,5f3aee04e30eac7cb73b416e,26,Mężczyzna,2022-06-25_15h34.20.955,task,2021.1.4,Win32,162.73393,6299f149e92ead563fba08ef,62b70e44c88a7da0418fa21d,,,,,,,,,,,,,,,,,,,,,,,,,,,,,,,,,,,,,,,,,,,,,,,,,,,,,,,,,,,,,,,,,,,,,,,,,,,,,,,,,czgbhg,"[""c"",""z"",""g"",""b"",""h"",""g""]",0,"[3.777200000047742,3.9104000000953647,5.232500000000073,5.644499999999994,6.230799999952296,8.129500000000007,9.989500000000021]",1,CZGBHG,5,0,5,0,1,,,,,,,,,,
,,,,,,,,,,,,5f3aee04e30eac7cb73b416e,26,Mężczyzna,2022-06-25_15h34.20.955,task,2021.1.4,Win32,162.73393,6299f149e92ead563fba08ef,62b70e44c88a7da0418fa21d,,,,,,,,,,,,,3,,,,,,,,,,Task,27,(3/3) + 2,3,,,,,,,,,,,,,,,,,,,1,,,,,,,,,,,,,,,,,,,,,,,"[""3""]",1,[2.167900000095301],0,0,0,26,1,,,,,,,,,,,,,,,,,,,,,,,,,,
,,,,,,,,,,,X V Q F H G B L J M P D K C T S W R N Z,5f3aee04e30eac7cb73b416e,26,Mężczyzna,2022-06-25_15h34.20.955,task,2021.1.4,Win32,162.73393,6299f149e92ead563fba08ef,62b70e44c88a7da0418fa21d,,,,,,,,,,,,,,,,,,,,,,,,,,,,,,,,,,,,,,,,,,,,,,,,,,,,,,,,,,,,,,,,,,,,,,,,,,,,0,0,0,0,1,,,,,,,,,,,,,,,,,,,,,
,,,,,,,,,,,,5f3aee04e30eac7cb73b416e,26,Mężczyzna,2022-06-25_15h34.20.955,task,2021.1.4,Win32,162.73393,6299f149e92ead563fba08ef,62b70e44c88a7da0418fa21d,,,,,,,,,,,,,7,,,,,,,,,,Task,14,(2x2) + 3,7,,,,,,,,,,,,,,,,,,,1,,,,,,,,,,,,,,,,,,,,,,,"[""7""]",1,[1.9155000000000655],0,0,0,13,1,,,,,,,,,,,,,,,,,,,,,,,,,,
,,,,,,,,,,,X V Q F H G B L J M P D K C T S W R N Z,5f3aee04e30eac7cb73b416e,26,Mężczyzna,2022-06-25_15h34.20.955,task,2021.1.4,Win32,162.73393,6299f149e92ead563fba08ef,62b70e44c88a7da0418fa21d,,,,,,,,,,,,,,,,,,,,,,,,,,,,,,,,,,,,,,,,,,,,,,,,,,,,,,,,,,,,,,,,,,,,,,,,,,,,1,0,1,0,1,,,,,,,,,,,,,,,,,,,,,
,,,,,,,,,,,,5f3aee04e30eac7cb73b416e,26,Mężczyzna,2022-06-25_15h34.20.955,task,2021.1.4,Win32,162.73393,6299f149e92ead563fba08ef,62b70e44c88a7da0418fa21d,,,,,,,,,,,,,3,,,,,,,,,,Task,3,(2x3) - 3,3,,,,,,,,,,,,,,,,,,,1,,,,,,,,,,,,,,,,,,,,,,,"[""3""]",1,[1.6544999999999845],0,0,0,2,1,,,,,,,,,,,,,,,,,,,,,,,,,,
,,,,,,,,,,,X V Q F H G B L J M P D K C T S W R N Z,5f3aee04e30eac7cb73b416e,26,Mężczyzna,2022-06-25_15h34.20.955,task,2021.1.4,Win32,162.73393,6299f149e92ead563fba08ef,62b70e44c88a7da0418fa21d,,,,,,,,,,,,,,,,,,,,,,,,,,,,,,,,,,,,,,,,,,,,,,,,,,,,,,,,,,,,,,,,,,,,,,,,,,,,2,0,2,0,1,,,,,,,,,,,,,,,,,,,,,
,,,,,,,,,,,,5f3aee04e30eac7cb73b416e,26,Mężczyzna,2022-06-25_15h34.20.955,task,2021.1.4,Win32,162.73393,6299f149e92ead563fba08ef,62b70e44c88a7da0418fa21d,,,,,,,,,,,,,3,,,,,,,,,,Task,20,(18/9) + 1,3,,,,,,,,,,,,,,,,,,,1,,,,,,,,,,,,,,,,,,,,,,,"[""3""]",1,[1.4309000000953347],0,0,0,19,1,,,,,,,,,,,,,,,,,,,,,,,,,,
,,,,,,,,,,,X V Q F H G B L J M P D K C T S W R N Z,5f3aee04e30eac7cb73b416e,26,Mężczyzna,2022-06-25_15h34.20.955,task,2021.1.4,Win32,162.73393,6299f149e92ead563fba08ef,62b70e44c88a7da0418fa21d,,,,,,,,,,,,,,,,,,,,,,,,,,,,,,,,,,,,,,,,,,,,,,,,,,,,,,,,,,,,,,,,,,,,,,,,,,,,3,0,3,0,1,,,,,,,,,,,,,,,,,,,,,
,,,,,,,,,,,,5f3aee04e30eac7cb73b416e,26,Mężczyzna,2022-06-25_15h34.20.955,task,2021.1.4,Win32,162.73393,6299f149e92ead563fba08ef,62b70e44c88a7da0418fa21d,,,,,,,,,,,,,5,,,,,,,,,,Task,12,(4x4) - 11,5,,,,,,,,,,,,,,,,,,,1,,,,,,,,,,,,,,,,,,,,,,,"[""5""]",1,[1.8592000000477356],0,0,0,11,1,,,,,,,,,,,,,,,,,,,,,,,,,,
,,,,,,,,,,,X V Q F H G B L J M P D K C T S W R N Z,5f3aee04e30eac7cb73b416e,26,Mężczyzna,2022-06-25_15h34.20.955,task,2021.1.4,Win32,162.73393,6299f149e92ead563fba08ef,62b70e44c88a7da0418fa21d,,,,,,,,,,,,,,,,,,,,,,,,,,,,,,,,,,,,,,,,,,,,,,,,,,,,,,,,,,,,,,,,,,,,,,,,,,,,4,0,4,0,1,,,,,,,,,,,,,,,,,,,,,
,,,,,,,,,,,,5f3aee04e30eac7cb73b416e,26,Mężczyzna,2022-06-25_15h34.20.955,task,2021.1.4,Win32,162.73393,6299f149e92ead563fba08ef,62b70e44c88a7da0418fa21d,,,,,,,,,,,,,1,,,,,,,,,,Task,34,(9/3) - 2,1,,,,,,,,,,,,,,,,,,,1,,,,,,,,,,,,,,,,,,,,,,,"[""1""]",1,[1.9827000000476573],0,0,0,33,1,,,,,,,,,,,,,,,,,,,,,,,,,,
,,,,,,,,,,,X V Q F H G B L J M P D K C T S W R N Z,5f3aee04e30eac7cb73b416e,26,Mężczyzna,2022-06-25_15h34.20.955,task,2021.1.4,Win32,162.73393,6299f149e92ead563fba08ef,62b70e44c88a7da0418fa21d,,,,,,,,,,,,,,,,,,,,,,,,,,,,,,,,,,,,,,,,,,,,,,,,,,,,,,,,,,,,,,,,,,,,,,,,,,,,5,0,5,0,1,,,,,,,,,,,,,,,,,,,,,
,,,,,,,,,,,,5f3aee04e30eac7cb73b416e,26,Mężczyzna,2022-06-25_15h34.20.955,task,2021.1.4,Win32,162.73393,6299f149e92ead563fba08ef,62b70e44c88a7da0418fa21d,,,,,,,,,,,,,4,,,,,,,,,,Task,11,(18/3) - 2,4,,,,,,,,,,,,,,,,,,,1,,,,,,,,,,,,,,,,,,,,,,,"[""4""]",1,[1.7876999998093197],0,0,0,10,1,,,,,,,,,,,,,,,,,,,,,,,,,,
,,,,,,,,,,,X V Q F H G B L J M P D K C T S W R N Z,5f3aee04e30eac7cb73b416e,26,Mężczyzna,2022-06-25_15h34.20.955,task,2021.1.4,Win32,162.73393,6299f149e92ead563fba08ef,62b70e44c88a7da0418fa21d,,,,,,,,,,,,,,,,,,,,,,,,,,,,,,,,,,,,,,,,,,,,,,,,,,,,,,,,,,,,,,,,,,,,,,,,,,,,6,0,6,0,1,,,,,,,,,,,,,,,,,,,,,
,,,,,,,,,,,,5f3aee04e30eac7cb73b416e,26,Mężczyzna,2022-06-25_15h34.20.955,task,2021.1.4,Win32,162.73393,6299f149e92ead563fba08ef,62b70e44c88a7da0418fa21d,,,,,,,,,,,,,,,,,,,,,,,,,,,,,,,,,,,,,,,,,,,,,,,,,,,,,,,,,,,,,,,,,,,,,,,,,,,,,,,,,cvgrxbl,"[""c"",""v"",""g"",""r"",""x"",""b"",""l""]",0,"[3.6129999999999427,3.8924000000953356,5.237200000047665,5.4982999999522235,6.179900000095358,6.606799999952273,6.798299999952292,7.578999999999951]",1,CVGRXBL,6,0,6,0,1,,,,,,,,,,
,,,,,,,,,,,,5f3aee04e30eac7cb73b416e,26,Mężczyzna,2022-06-25_15h34.20.955,task,2021.1.4,Win32,162.73393,6299f149e92ead563fba08ef,62b70e44c88a7da0418fa21d,,,,,,,,,,,,,0,,,,,,,,,,Task,8,(1x5) - 5,0,,,,,,,,,,,,,,,,,,,1,,,,,,,,,,,,,,,,,,,,,,,"[""0""]",1,[1.8890999999046016],0,0,0,7,1,,,,,,,,,,,,,,,,,,,,,,,,,,
,,,,,,,,,,,X V Q F H G B L J M P D K C T S W R N Z,5f3aee04e30eac7cb73b416e,26,Mężczyzna,2022-06-25_15h34.20.955,task,2021.1.4,Win32,162.73393,6299f149e92ead563fba08ef,62b70e44c88a7da0418fa21d,,,,,,,,,,,,,,,,,,,,,,,,,,,,,,,,,,,,,,,,,,,,,,,,,,,,,,,,,,,,,,,,,,,,,,,,,,,,0,0,0,0,1,,,,,,,,,,,,,,,,,,,,,
,,,,,,,,,,,,5f3aee04e30eac7cb73b416e,26,Mężczyzna,2022-06-25_15h34.20.955,task,2021.1.4,Win32,162.73393,6299f149e92ead563fba08ef,62b70e44c88a7da0418fa21d,,,,,,,,,,,,,9,,,,,,,,,,Task,7,(3x7) - 12,9,,,,,,,,,,,,,,,,,,,1,,,,,,,,,,,,,,,,,,,,,,,"[""9""]",1,[2.509700000047701],0,0,0,6,1,,,,,,,,,,,,,,,,,,,,,,,,,,
,,,,,,,,,,,X V Q F H G B L J M P D K C T S W R N Z,5f3aee04e30eac7cb73b416e,26,Mężczyzna,2022-06-25_15h34.20.955,task,2021.1.4,Win32,162.73393,6299f149e92ead563fba08ef,62b70e44c88a7da0418fa21d,,,,,,,,,,,,,,,,,,,,,,,,,,,,,,,,,,,,,,,,,,,,,,,,,,,,,,,,,,,,,,,,,,,,,,,,,,,,1,0,1,0,1,,,,,,,,,,,,,,,,,,,,,
,,,,,,,,,,,,5f3aee04e30eac7cb73b416e,26,Mężczyzna,2022-06-25_15h34.20.955,task,2021.1.4,Win32,162.73393,6299f149e92ead563fba08ef,62b70e44c88a7da0418fa21d,,,,,,,,,,,,,6,,,,,,,,,,Task,30,(6/3) + 4 ,6,,,,,,,,,,,,,,,,,,,1,,,,,,,,,,,,,,,,,,,,,,,"[""6""]",1,[1.905099999904678],0,0,0,29,1,,,,,,,,,,,,,,,,,,,,,,,,,,
,,,,,,,,,,,X V Q F H G B L J M P D K C T S W R N Z,5f3aee04e30eac7cb73b416e,26,Mężczyzna,2022-06-25_15h34.20.955,task,2021.1.4,Win32,162.73393,6299f149e92ead563fba08ef,62b70e44c88a7da0418fa21d,,,,,,,,,,,,,,,,,,,,,,,,,,,,,,,,,,,,,,,,,,,,,,,,,,,,,,,,,,,,,,,,,,,,,,,,,,,,2,0,2,0,1,,,,,,,,,,,,,,,,,,,,,
