key_resp_15.keys,key_resp_15.rt,key_resp_16.keys,key_resp_16.rt,key_resp_4.keys,key_resp_4.rt,next_letter.thisRepN,next_letter.thisTrialN,next_letter.thisN,next_letter.thisIndex,next_letter.ran,letter,participant,Wiek*,Płeć,date,expName,psychopyVersion,OS,frameRate,study_id,session,simple_recall,key_resp_5.keys,key_resp_5.rt,simple_recall_corr,simple_recall_corrkeys,next_level.thisRepN,next_level.thisTrialN,next_level.thisN,next_level.thisIndex,next_level.ran,key_resp_2.keys,key_resp_2.rt,digit_answer,key_resp.keys,key_resp.corr,key_resp.rt,RT_list,next_equation.thisRepN,next_equation.thisTrialN,next_equation.thisN,next_equation.thisIndex,next_equation.ran,Task,Trial,Problem,Operation_answer,processing_score,sumRT,meanRT,sumdiff,sd,RT,key_resp_3.keys,key_resp_3.rt,repeat_practice.thisRepN,repeat_practice.thisTrialN,repeat_practice.thisN,repeat_practice.thisIndex,repeat_practice.ran,key_resp_6.keys,key_resp_6.rt,key_resp_11.keys,key_resp_11.corr,key_resp_11.rt,operation_correct,repeat_if_wrong_prac.thisRepN,repeat_if_wrong_prac.thisTrialN,repeat_if_wrong_prac.thisN,repeat_if_wrong_prac.thisIndex,repeat_if_wrong_prac.ran,span_size_prac.thisRepN,span_size_prac.thisTrialN,span_size_prac.thisN,span_size_prac.thisIndex,span_size_prac.ran,complex_recall_practice,key_resp_9.keys,key_resp_9.corr,key_resp_9.rt,complex_prac_corr,span_recall_prac.thisRepN,span_recall_prac.thisTrialN,span_recall_prac.thisN,span_recall_prac.thisIndex,span_recall_prac.ran,key_resp_10.keys,key_resp_10.rt,key_resp_7.keys,key_resp_7.corr,repeat_if_wrong.thisRepN,repeat_if_wrong.thisTrialN,repeat_if_wrong.thisN,repeat_if_wrong.thisIndex,repeat_if_wrong.ran,key_resp_7.rt,span_size.thisRepN,span_size.thisTrialN,span_size.thisN,span_size.thisIndex,span_size.ran,complex_recall,key_resp_8.keys,key_resp_8.corr,key_resp_8.rt,complex_recall_corr,complex_recall_corrkeys,span_recall.thisRepN,span_recall.thisTrialN,span_recall.thisN,span_recall.thisIndex,span_recall.ran,key_resp_13.keys,key_resp_13.corr,random_loop.thisRepN,random_loop.thisTrialN,random_loop.thisN,random_loop.thisIndex,random_loop.ran,key_resp_13.rt,key_resp_12.keys,key_resp_12.rt
space,14.6215,space,19.3738,space,6.0142,0,0,0,0,1,X V Q F H G B L J M P D K C T S W R N Z,5f44eb04cd108b02a14d8a10,22,Mężczyzna,2022-06-11_09h31.01.030,task,2021.1.4,Win32,144.092219,6299f149e92ead563fba08ef,62a444aed9c4bf3a828ea8cc,,,,,,,,,,,,,,,,,,,,,,,,,,,,,,,,,,,,,,,,,,,,,,,,,,,,,,,,,,,,,,,,,,,,,,,,,,,,,,,,,,,,,,,,,,,,,,,,,,,,,
,,,,,,1,0,1,0,1,X V Q F H G B L J M P D K C T S W R N Z,5f44eb04cd108b02a14d8a10,22,Mężczyzna,2022-06-11_09h31.01.030,task,2021.1.4,Win32,144.092219,6299f149e92ead563fba08ef,62a444aed9c4bf3a828ea8cc,,,,,,,,,,,,,,,,,,,,,,,,,,,,,,,,,,,,,,,,,,,,,,,,,,,,,,,,,,,,,,,,,,,,,,,,,,,,,,,,,,,,,,,,,,,,,,,,,,,,,
,,,,,,,,,,,,5f44eb04cd108b02a14d8a10,22,Mężczyzna,2022-06-11_09h31.01.030,task,2021.1.4,Win32,144.092219,6299f149e92ead563fba08ef,62a444aed9c4bf3a828ea8cc,zh,"[""z"",""h""]","[1.877900000000011,2.0456999999999965,3.054699999999997]",1,ZH,0,0,0,0,1,,,,,,,,,,,,,,,,,,,,,,,,,,,,,,,,,,,,,,,,,,,,,,,,,,,,,,,,,,,,,,,,,,,,,,,,,,,,,,,,,,,,,,,,,,,
,,,,,,0,0,0,0,1,X V Q F H G B L J M P D K C T S W R N Z,5f44eb04cd108b02a14d8a10,22,Mężczyzna,2022-06-11_09h31.01.030,task,2021.1.4,Win32,144.092219,6299f149e92ead563fba08ef,62a444aed9c4bf3a828ea8cc,,,,,,,,,,,,,,,,,,,,,,,,,,,,,,,,,,,,,,,,,,,,,,,,,,,,,,,,,,,,,,,,,,,,,,,,,,,,,,,,,,,,,,,,,,,,,,,,,,,,,
,,,,,,1,0,1,0,1,X V Q F H G B L J M P D K C T S W R N Z,5f44eb04cd108b02a14d8a10,22,Mężczyzna,2022-06-11_09h31.01.030,task,2021.1.4,Win32,144.092219,6299f149e92ead563fba08ef,62a444aed9c4bf3a828ea8cc,,,,,,,,,,,,,,,,,,,,,,,,,,,,,,,,,,,,,,,,,,,,,,,,,,,,,,,,,,,,,,,,,,,,,,,,,,,,,,,,,,,,,,,,,,,,,,,,,,,,,
,,,,,,,,,,,,5f44eb04cd108b02a14d8a10,22,Mężczyzna,2022-06-11_09h31.01.030,task,2021.1.4,Win32,144.092219,6299f149e92ead563fba08ef,62a444aed9c4bf3a828ea8cc,mx,"[""m"",""x""]","[0.5060999999999964,0.666099999999993,1.1539000000000001]",1,MX,1,0,1,0,1,,,,,,,,,,,,,,,,,,,,,,,,,,,,,,,,,,,,,,,,,,,,,,,,,,,,,,,,,,,,,,,,,,,,,,,,,,,,,,,,,,,,,,,,,,,
,,,,,,0,0,0,0,1,X V Q F H G B L J M P D K C T S W R N Z,5f44eb04cd108b02a14d8a10,22,Mężczyzna,2022-06-11_09h31.01.030,task,2021.1.4,Win32,144.092219,6299f149e92ead563fba08ef,62a444aed9c4bf3a828ea8cc,,,,,,,,,,,,,,,,,,,,,,,,,,,,,,,,,,,,,,,,,,,,,,,,,,,,,,,,,,,,,,,,,,,,,,,,,,,,,,,,,,,,,,,,,,,,,,,,,,,,,
,,,,,,1,0,1,0,1,X V Q F H G B L J M P D K C T S W R N Z,5f44eb04cd108b02a14d8a10,22,Mężczyzna,2022-06-11_09h31.01.030,task,2021.1.4,Win32,144.092219,6299f149e92ead563fba08ef,62a444aed9c4bf3a828ea8cc,,,,,,,,,,,,,,,,,,,,,,,,,,,,,,,,,,,,,,,,,,,,,,,,,,,,,,,,,,,,,,,,,,,,,,,,,,,,,,,,,,,,,,,,,,,,,,,,,,,,,
,,,,,,2,0,2,0,1,X V Q F H G B L J M P D K C T S W R N Z,5f44eb04cd108b02a14d8a10,22,Mężczyzna,2022-06-11_09h31.01.030,task,2021.1.4,Win32,144.092219,6299f149e92ead563fba08ef,62a444aed9c4bf3a828ea8cc,,,,,,,,,,,,,,,,,,,,,,,,,,,,,,,,,,,,,,,,,,,,,,,,,,,,,,,,,,,,,,,,,,,,,,,,,,,,,,,,,,,,,,,,,,,,,,,,,,,,,
,,,,,,,,,,,,5f44eb04cd108b02a14d8a10,22,Mężczyzna,2022-06-11_09h31.01.030,task,2021.1.4,Win32,144.092219,6299f149e92ead563fba08ef,62a444aed9c4bf3a828ea8cc,jqj,"[""j"",""q"",""j""]","[0.410100000000007,0.6261000000000081,0.7460000000000022,0.9059999999999988]",1,JQJ,2,0,2,0,1,,,,,,,,,,,,,,,,,,,,,,,,,,,,,,,,,,,,,,,,,,,,,,,,,,,,,,,,,,,,,,,,,,,,,,,,,,,,,,,,,,,,,,,,,,,
,,,,,,0,0,0,0,1,X V Q F H G B L J M P D K C T S W R N Z,5f44eb04cd108b02a14d8a10,22,Mężczyzna,2022-06-11_09h31.01.030,task,2021.1.4,Win32,144.092219,6299f149e92ead563fba08ef,62a444aed9c4bf3a828ea8cc,,,,,,,,,,,,,,,,,,,,,,,,,,,,,,,,,,,,,,,,,,,,,,,,,,,,,,,,,,,,,,,,,,,,,,,,,,,,,,,,,,,,,,,,,,,,,,,,,,,,,
,,,,,,1,0,1,0,1,X V Q F H G B L J M P D K C T S W R N Z,5f44eb04cd108b02a14d8a10,22,Mężczyzna,2022-06-11_09h31.01.030,task,2021.1.4,Win32,144.092219,6299f149e92ead563fba08ef,62a444aed9c4bf3a828ea8cc,,,,,,,,,,,,,,,,,,,,,,,,,,,,,,,,,,,,,,,,,,,,,,,,,,,,,,,,,,,,,,,,,,,,,,,,,,,,,,,,,,,,,,,,,,,,,,,,,,,,,
,,,,,,2,0,2,0,1,X V Q F H G B L J M P D K C T S W R N Z,5f44eb04cd108b02a14d8a10,22,Mężczyzna,2022-06-11_09h31.01.030,task,2021.1.4,Win32,144.092219,6299f149e92ead563fba08ef,62a444aed9c4bf3a828ea8cc,,,,,,,,,,,,,,,,,,,,,,,,,,,,,,,,,,,,,,,,,,,,,,,,,,,,,,,,,,,,,,,,,,,,,,,,,,,,,,,,,,,,,,,,,,,,,,,,,,,,,
,,,,,,,,,,,,5f44eb04cd108b02a14d8a10,22,Mężczyzna,2022-06-11_09h31.01.030,task,2021.1.4,Win32,144.092219,6299f149e92ead563fba08ef,62a444aed9c4bf3a828ea8cc,xlp,"[""x"",""l"",""p""]","[0.38220000000001164,0.5488000000000142,0.6809000000000225,0.9309000000000225]",1,XLP,3,0,3,0,1,,,,,,,,,,,,,,,,,,,,,,,,,,,,,,,,,,,,,,,,,,,,,,,,,,,,,,,,,,,,,,,,,,,,,,,,,,,,,,,,,,,,,,,,,,,
,,,,,,0,0,0,0,1,X V Q F H G B L J M P D K C T S W R N Z,5f44eb04cd108b02a14d8a10,22,Mężczyzna,2022-06-11_09h31.01.030,task,2021.1.4,Win32,144.092219,6299f149e92ead563fba08ef,62a444aed9c4bf3a828ea8cc,,,,,,,,,,,,,,,,,,,,,,,,,,,,,,,,,,,,,,,,,,,,,,,,,,,,,,,,,,,,,,,,,,,,,,,,,,,,,,,,,,,,,,,,,,,,,,,,,,,,,
,,,,,,1,0,1,0,1,X V Q F H G B L J M P D K C T S W R N Z,5f44eb04cd108b02a14d8a10,22,Mężczyzna,2022-06-11_09h31.01.030,task,2021.1.4,Win32,144.092219,6299f149e92ead563fba08ef,62a444aed9c4bf3a828ea8cc,,,,,,,,,,,,,,,,,,,,,,,,,,,,,,,,,,,,,,,,,,,,,,,,,,,,,,,,,,,,,,,,,,,,,,,,,,,,,,,,,,,,,,,,,,,,,,,,,,,,,
,,,,,,2,0,2,0,1,X V Q F H G B L J M P D K C T S W R N Z,5f44eb04cd108b02a14d8a10,22,Mężczyzna,2022-06-11_09h31.01.030,task,2021.1.4,Win32,144.092219,6299f149e92ead563fba08ef,62a444aed9c4bf3a828ea8cc,,,,,,,,,,,,,,,,,,,,,,,,,,,,,,,,,,,,,,,,,,,,,,,,,,,,,,,,,,,,,,,,,,,,,,,,,,,,,,,,,,,,,,,,,,,,,,,,,,,,,
,,,,,,3,0,3,0,1,X V Q F H G B L J M P D K C T S W R N Z,5f44eb04cd108b02a14d8a10,22,Mężczyzna,2022-06-11_09h31.01.030,task,2021.1.4,Win32,144.092219,6299f149e92ead563fba08ef,62a444aed9c4bf3a828ea8cc,,,,,,,,,,,,,,,,,,,,,,,,,,,,,,,,,,,,,,,,,,,,,,,,,,,,,,,,,,,,,,,,,,,,,,,,,,,,,,,,,,,,,,,,,,,,,,,,,,,,,
,,,,,,,,,,,,5f44eb04cd108b02a14d8a10,22,Mężczyzna,2022-06-11_09h31.01.030,task,2021.1.4,Win32,144.092219,6299f149e92ead563fba08ef,62a444aed9c4bf3a828ea8cc,rpht,"[""r"",""p"",""h"",""t""]","[0.5001999999999782,0.653199999999984,1.1181999999999874,1.4795000000000016,1.6880999999999773]",1,RPHT,4,0,4,0,1,,,,,,,,,,,,,,,,,,,,,,,,,,,,,,,,,,,,,,,,,,,,,,,,,,,,,,,,,,,,,,,,,,,,,,,,,,,,,,,,,,,,,,,,,,,
,,,,,,0,0,0,0,1,X V Q F H G B L J M P D K C T S W R N Z,5f44eb04cd108b02a14d8a10,22,Mężczyzna,2022-06-11_09h31.01.030,task,2021.1.4,Win32,144.092219,6299f149e92ead563fba08ef,62a444aed9c4bf3a828ea8cc,,,,,,,,,,,,,,,,,,,,,,,,,,,,,,,,,,,,,,,,,,,,,,,,,,,,,,,,,,,,,,,,,,,,,,,,,,,,,,,,,,,,,,,,,,,,,,,,,,,,,
,,,,,,1,0,1,0,1,X V Q F H G B L J M P D K C T S W R N Z,5f44eb04cd108b02a14d8a10,22,Mężczyzna,2022-06-11_09h31.01.030,task,2021.1.4,Win32,144.092219,6299f149e92ead563fba08ef,62a444aed9c4bf3a828ea8cc,,,,,,,,,,,,,,,,,,,,,,,,,,,,,,,,,,,,,,,,,,,,,,,,,,,,,,,,,,,,,,,,,,,,,,,,,,,,,,,,,,,,,,,,,,,,,,,,,,,,,
,,,,,,2,0,2,0,1,X V Q F H G B L J M P D K C T S W R N Z,5f44eb04cd108b02a14d8a10,22,Mężczyzna,2022-06-11_09h31.01.030,task,2021.1.4,Win32,144.092219,6299f149e92ead563fba08ef,62a444aed9c4bf3a828ea8cc,,,,,,,,,,,,,,,,,,,,,,,,,,,,,,,,,,,,,,,,,,,,,,,,,,,,,,,,,,,,,,,,,,,,,,,,,,,,,,,,,,,,,,,,,,,,,,,,,,,,,
,,,,,,3,0,3,0,1,X V Q F H G B L J M P D K C T S W R N Z,5f44eb04cd108b02a14d8a10,22,Mężczyzna,2022-06-11_09h31.01.030,task,2021.1.4,Win32,144.092219,6299f149e92ead563fba08ef,62a444aed9c4bf3a828ea8cc,,,,,,,,,,,,,,,,,,,,,,,,,,,,,,,,,,,,,,,,,,,,,,,,,,,,,,,,,,,,,,,,,,,,,,,,,,,,,,,,,,,,,,,,,,,,,,,,,,,,,
,,,,,,,,,,,,5f44eb04cd108b02a14d8a10,22,Mężczyzna,2022-06-11_09h31.01.030,task,2021.1.4,Win32,144.092219,6299f149e92ead563fba08ef,62a444aed9c4bf3a828ea8cc,wbhc,"[""w"",""b"",""h"",""c""]","[0.43789999999999907,0.7156000000000091,0.9933999999999941,1.8057999999999907,2.0418999999999983]",1,WBHC,5,0,5,0,1,,,,,,,,,,,,,,,,,,,,,,,,,,,,,,,,,,,,,,,,,,,,,,,,,,,,,,,,,,,,,,,,,,,,,,,,,,,,,,,,,,,,,,,,,,,
,,,,,,0,0,0,0,1,X V Q F H G B L J M P D K C T S W R N Z,5f44eb04cd108b02a14d8a10,22,Mężczyzna,2022-06-11_09h31.01.030,task,2021.1.4,Win32,144.092219,6299f149e92ead563fba08ef,62a444aed9c4bf3a828ea8cc,,,,,,,,,,,,,,,,,,,,,,,,,,,,,,,,,,,,,,,,,,,,,,,,,,,,,,,,,,,,,,,,,,,,,,,,,,,,,,,,,,,,,,,,,,,,,,,,,,,,,
,,,,,,1,0,1,0,1,X V Q F H G B L J M P D K C T S W R N Z,5f44eb04cd108b02a14d8a10,22,Mężczyzna,2022-06-11_09h31.01.030,task,2021.1.4,Win32,144.092219,6299f149e92ead563fba08ef,62a444aed9c4bf3a828ea8cc,,,,,,,,,,,,,,,,,,,,,,,,,,,,,,,,,,,,,,,,,,,,,,,,,,,,,,,,,,,,,,,,,,,,,,,,,,,,,,,,,,,,,,,,,,,,,,,,,,,,,
,,,,,,2,0,2,0,1,X V Q F H G B L J M P D K C T S W R N Z,5f44eb04cd108b02a14d8a10,22,Mężczyzna,2022-06-11_09h31.01.030,task,2021.1.4,Win32,144.092219,6299f149e92ead563fba08ef,62a444aed9c4bf3a828ea8cc,,,,,,,,,,,,,,,,,,,,,,,,,,,,,,,,,,,,,,,,,,,,,,,,,,,,,,,,,,,,,,,,,,,,,,,,,,,,,,,,,,,,,,,,,,,,,,,,,,,,,
,,,,,,3,0,3,0,1,X V Q F H G B L J M P D K C T S W R N Z,5f44eb04cd108b02a14d8a10,22,Mężczyzna,2022-06-11_09h31.01.030,task,2021.1.4,Win32,144.092219,6299f149e92ead563fba08ef,62a444aed9c4bf3a828ea8cc,,,,,,,,,,,,,,,,,,,,,,,,,,,,,,,,,,,,,,,,,,,,,,,,,,,,,,,,,,,,,,,,,,,,,,,,,,,,,,,,,,,,,,,,,,,,,,,,,,,,,
,,,,,,4,0,4,0,1,X V Q F H G B L J M P D K C T S W R N Z,5f44eb04cd108b02a14d8a10,22,Mężczyzna,2022-06-11_09h31.01.030,task,2021.1.4,Win32,144.092219,6299f149e92ead563fba08ef,62a444aed9c4bf3a828ea8cc,,,,,,,,,,,,,,,,,,,,,,,,,,,,,,,,,,,,,,,,,,,,,,,,,,,,,,,,,,,,,,,,,,,,,,,,,,,,,,,,,,,,,,,,,,,,,,,,,,,,,
,,,,,,,,,,,,5f44eb04cd108b02a14d8a10,22,Mężczyzna,2022-06-11_09h31.01.030,task,2021.1.4,Win32,144.092219,6299f149e92ead563fba08ef,62a444aed9c4bf3a828ea8cc,bdgvc,"[""b"",""d"",""g"",""v"",""c""]","[0.7295000000000016,1.0418999999999983,1.3336000000000041,1.5905000000000058,1.805899999999994,1.9516999999999882]",1,BDGVC,6,0,6,0,1,,,,,,,,,,,,,,,,,,,,,,,,,,,,,,,,,,,,,,,,,,,,,,,,,,,,,,,,,,,,,,,,,,,,,,,,,,,,,,,,,,,,,,,,,,,
,,,,,,0,0,0,0,1,X V Q F H G B L J M P D K C T S W R N Z,5f44eb04cd108b02a14d8a10,22,Mężczyzna,2022-06-11_09h31.01.030,task,2021.1.4,Win32,144.092219,6299f149e92ead563fba08ef,62a444aed9c4bf3a828ea8cc,,,,,,,,,,,,,,,,,,,,,,,,,,,,,,,,,,,,,,,,,,,,,,,,,,,,,,,,,,,,,,,,,,,,,,,,,,,,,,,,,,,,,,,,,,,,,,,,,,,,,
,,,,,,1,0,1,0,1,X V Q F H G B L J M P D K C T S W R N Z,5f44eb04cd108b02a14d8a10,22,Mężczyzna,2022-06-11_09h31.01.030,task,2021.1.4,Win32,144.092219,6299f149e92ead563fba08ef,62a444aed9c4bf3a828ea8cc,,,,,,,,,,,,,,,,,,,,,,,,,,,,,,,,,,,,,,,,,,,,,,,,,,,,,,,,,,,,,,,,,,,,,,,,,,,,,,,,,,,,,,,,,,,,,,,,,,,,,
,,,,,,2,0,2,0,1,X V Q F H G B L J M P D K C T S W R N Z,5f44eb04cd108b02a14d8a10,22,Mężczyzna,2022-06-11_09h31.01.030,task,2021.1.4,Win32,144.092219,6299f149e92ead563fba08ef,62a444aed9c4bf3a828ea8cc,,,,,,,,,,,,,,,,,,,,,,,,,,,,,,,,,,,,,,,,,,,,,,,,,,,,,,,,,,,,,,,,,,,,,,,,,,,,,,,,,,,,,,,,,,,,,,,,,,,,,
,,,,,,3,0,3,0,1,X V Q F H G B L J M P D K C T S W R N Z,5f44eb04cd108b02a14d8a10,22,Mężczyzna,2022-06-11_09h31.01.030,task,2021.1.4,Win32,144.092219,6299f149e92ead563fba08ef,62a444aed9c4bf3a828ea8cc,,,,,,,,,,,,,,,,,,,,,,,,,,,,,,,,,,,,,,,,,,,,,,,,,,,,,,,,,,,,,,,,,,,,,,,,,,,,,,,,,,,,,,,,,,,,,,,,,,,,,
,,,,,,4,0,4,0,1,X V Q F H G B L J M P D K C T S W R N Z,5f44eb04cd108b02a14d8a10,22,Mężczyzna,2022-06-11_09h31.01.030,task,2021.1.4,Win32,144.092219,6299f149e92ead563fba08ef,62a444aed9c4bf3a828ea8cc,,,,,,,,,,,,,,,,,,,,,,,,,,,,,,,,,,,,,,,,,,,,,,,,,,,,,,,,,,,,,,,,,,,,,,,,,,,,,,,,,,,,,,,,,,,,,,,,,,,,,
,,,,,,,,,,,,5f44eb04cd108b02a14d8a10,22,Mężczyzna,2022-06-11_09h31.01.030,task,2021.1.4,Win32,144.092219,6299f149e92ead563fba08ef,62a444aed9c4bf3a828ea8cc,wsbqk,"[""w"",""s"",""b"",""q"",""k""]","[0.8739000000000061,2.178200000000018,2.4740000000000038,2.7302000000000106,2.9620000000000033,3.2421000000000078]",1,WSBQK,7,0,7,0,1,,,,,,,,,,,,,,,,,,,,,,,,,,,,,,,,,,,,,,,,,,,,,,,,,,,,,,,,,,,,,,,,,,,,,,,,,,,,,,,,,,,,,,,,,,,
,,,,,,0,0,0,0,1,X V Q F H G B L J M P D K C T S W R N Z,5f44eb04cd108b02a14d8a10,22,Mężczyzna,2022-06-11_09h31.01.030,task,2021.1.4,Win32,144.092219,6299f149e92ead563fba08ef,62a444aed9c4bf3a828ea8cc,,,,,,,,,,,,,,,,,,,,,,,,,,,,,,,,,,,,,,,,,,,,,,,,,,,,,,,,,,,,,,,,,,,,,,,,,,,,,,,,,,,,,,,,,,,,,,,,,,,,,
,,,,,,1,0,1,0,1,X V Q F H G B L J M P D K C T S W R N Z,5f44eb04cd108b02a14d8a10,22,Mężczyzna,2022-06-11_09h31.01.030,task,2021.1.4,Win32,144.092219,6299f149e92ead563fba08ef,62a444aed9c4bf3a828ea8cc,,,,,,,,,,,,,,,,,,,,,,,,,,,,,,,,,,,,,,,,,,,,,,,,,,,,,,,,,,,,,,,,,,,,,,,,,,,,,,,,,,,,,,,,,,,,,,,,,,,,,
,,,,,,2,0,2,0,1,X V Q F H G B L J M P D K C T S W R N Z,5f44eb04cd108b02a14d8a10,22,Mężczyzna,2022-06-11_09h31.01.030,task,2021.1.4,Win32,144.092219,6299f149e92ead563fba08ef,62a444aed9c4bf3a828ea8cc,,,,,,,,,,,,,,,,,,,,,,,,,,,,,,,,,,,,,,,,,,,,,,,,,,,,,,,,,,,,,,,,,,,,,,,,,,,,,,,,,,,,,,,,,,,,,,,,,,,,,
,,,,,,3,0,3,0,1,X V Q F H G B L J M P D K C T S W R N Z,5f44eb04cd108b02a14d8a10,22,Mężczyzna,2022-06-11_09h31.01.030,task,2021.1.4,Win32,144.092219,6299f149e92ead563fba08ef,62a444aed9c4bf3a828ea8cc,,,,,,,,,,,,,,,,,,,,,,,,,,,,,,,,,,,,,,,,,,,,,,,,,,,,,,,,,,,,,,,,,,,,,,,,,,,,,,,,,,,,,,,,,,,,,,,,,,,,,
,,,,,,4,0,4,0,1,X V Q F H G B L J M P D K C T S W R N Z,5f44eb04cd108b02a14d8a10,22,Mężczyzna,2022-06-11_09h31.01.030,task,2021.1.4,Win32,144.092219,6299f149e92ead563fba08ef,62a444aed9c4bf3a828ea8cc,,,,,,,,,,,,,,,,,,,,,,,,,,,,,,,,,,,,,,,,,,,,,,,,,,,,,,,,,,,,,,,,,,,,,,,,,,,,,,,,,,,,,,,,,,,,,,,,,,,,,
,,,,,,5,0,5,0,1,X V Q F H G B L J M P D K C T S W R N Z,5f44eb04cd108b02a14d8a10,22,Mężczyzna,2022-06-11_09h31.01.030,task,2021.1.4,Win32,144.092219,6299f149e92ead563fba08ef,62a444aed9c4bf3a828ea8cc,,,,,,,,,,,,,,,,,,,,,,,,,,,,,,,,,,,,,,,,,,,,,,,,,,,,,,,,,,,,,,,,,,,,,,,,,,,,,,,,,,,,,,,,,,,,,,,,,,,,,
,,,,,,,,,,,,5f44eb04cd108b02a14d8a10,22,Mężczyzna,2022-06-11_09h31.01.030,task,2021.1.4,Win32,144.092219,6299f149e92ead563fba08ef,62a444aed9c4bf3a828ea8cc,ttsncq,"[""t"",""t"",""s"",""n"",""c"",""q""]","[0.32910000000001105,0.4806000000000097,0.6724999999999994,0.9455000000000098,1.240399999999994,1.4965000000000117,1.696399999999997]",1,TTSNCQ,8,0,8,0,1,,,,,,,,,,,,,,,,,,,,,,,,,,,,,,,,,,,,,,,,,,,,,,,,,,,,,,,,,,,,,,,,,,,,,,,,,,,,,,,,,,,,,,,,,,,
,,,,,,0,0,0,0,1,X V Q F H G B L J M P D K C T S W R N Z,5f44eb04cd108b02a14d8a10,22,Mężczyzna,2022-06-11_09h31.01.030,task,2021.1.4,Win32,144.092219,6299f149e92ead563fba08ef,62a444aed9c4bf3a828ea8cc,,,,,,,,,,,,,,,,,,,,,,,,,,,,,,,,,,,,,,,,,,,,,,,,,,,,,,,,,,,,,,,,,,,,,,,,,,,,,,,,,,,,,,,,,,,,,,,,,,,,,
,,,,,,1,0,1,0,1,X V Q F H G B L J M P D K C T S W R N Z,5f44eb04cd108b02a14d8a10,22,Mężczyzna,2022-06-11_09h31.01.030,task,2021.1.4,Win32,144.092219,6299f149e92ead563fba08ef,62a444aed9c4bf3a828ea8cc,,,,,,,,,,,,,,,,,,,,,,,,,,,,,,,,,,,,,,,,,,,,,,,,,,,,,,,,,,,,,,,,,,,,,,,,,,,,,,,,,,,,,,,,,,,,,,,,,,,,,
,,,,,,2,0,2,0,1,X V Q F H G B L J M P D K C T S W R N Z,5f44eb04cd108b02a14d8a10,22,Mężczyzna,2022-06-11_09h31.01.030,task,2021.1.4,Win32,144.092219,6299f149e92ead563fba08ef,62a444aed9c4bf3a828ea8cc,,,,,,,,,,,,,,,,,,,,,,,,,,,,,,,,,,,,,,,,,,,,,,,,,,,,,,,,,,,,,,,,,,,,,,,,,,,,,,,,,,,,,,,,,,,,,,,,,,,,,
,,,,,,3,0,3,0,1,X V Q F H G B L J M P D K C T S W R N Z,5f44eb04cd108b02a14d8a10,22,Mężczyzna,2022-06-11_09h31.01.030,task,2021.1.4,Win32,144.092219,6299f149e92ead563fba08ef,62a444aed9c4bf3a828ea8cc,,,,,,,,,,,,,,,,,,,,,,,,,,,,,,,,,,,,,,,,,,,,,,,,,,,,,,,,,,,,,,,,,,,,,,,,,,,,,,,,,,,,,,,,,,,,,,,,,,,,,
,,,,,,4,0,4,0,1,X V Q F H G B L J M P D K C T S W R N Z,5f44eb04cd108b02a14d8a10,22,Mężczyzna,2022-06-11_09h31.01.030,task,2021.1.4,Win32,144.092219,6299f149e92ead563fba08ef,62a444aed9c4bf3a828ea8cc,,,,,,,,,,,,,,,,,,,,,,,,,,,,,,,,,,,,,,,,,,,,,,,,,,,,,,,,,,,,,,,,,,,,,,,,,,,,,,,,,,,,,,,,,,,,,,,,,,,,,
,,,,,,5,0,5,0,1,X V Q F H G B L J M P D K C T S W R N Z,5f44eb04cd108b02a14d8a10,22,Mężczyzna,2022-06-11_09h31.01.030,task,2021.1.4,Win32,144.092219,6299f149e92ead563fba08ef,62a444aed9c4bf3a828ea8cc,,,,,,,,,,,,,,,,,,,,,,,,,,,,,,,,,,,,,,,,,,,,,,,,,,,,,,,,,,,,,,,,,,,,,,,,,,,,,,,,,,,,,,,,,,,,,,,,,,,,,
,,,,,,,,,,,,5f44eb04cd108b02a14d8a10,22,Mężczyzna,2022-06-11_09h31.01.030,task,2021.1.4,Win32,144.092219,6299f149e92ead563fba08ef,62a444aed9c4bf3a828ea8cc,mbnxwz,"[""m"",""b"",""n"",""x"",""w"",""z""]","[1.1247000000000185,1.9405000000000001,2.3085000000000093,2.772500000000008,3.5086000000000155,3.996600000000015,22.58330000000001]",0,MBNXWS,9,0,9,0,1,,,,,,,,,,,,,,,,,,,,,,,,,,,,,,,,,,,,,,,,,,,,,,,,,,,,,,,,,,,,,,,,,,,,,,,,,,,,,,,,,,,,,,,,,,,
,,,,,,0,0,0,0,1,X V Q F H G B L J M P D K C T S W R N Z,5f44eb04cd108b02a14d8a10,22,Mężczyzna,2022-06-11_09h31.01.030,task,2021.1.4,Win32,144.092219,6299f149e92ead563fba08ef,62a444aed9c4bf3a828ea8cc,,,,,,,,,,,,,,,,,,,,,,,,,,,,,,,,,,,,,,,,,,,,,,,,,,,,,,,,,,,,,,,,,,,,,,,,,,,,,,,,,,,,,,,,,,,,,,,,,,,,,
,,,,,,1,0,1,0,1,X V Q F H G B L J M P D K C T S W R N Z,5f44eb04cd108b02a14d8a10,22,Mężczyzna,2022-06-11_09h31.01.030,task,2021.1.4,Win32,144.092219,6299f149e92ead563fba08ef,62a444aed9c4bf3a828ea8cc,,,,,,,,,,,,,,,,,,,,,,,,,,,,,,,,,,,,,,,,,,,,,,,,,,,,,,,,,,,,,,,,,,,,,,,,,,,,,,,,,,,,,,,,,,,,,,,,,,,,,
,,,,,,2,0,2,0,1,X V Q F H G B L J M P D K C T S W R N Z,5f44eb04cd108b02a14d8a10,22,Mężczyzna,2022-06-11_09h31.01.030,task,2021.1.4,Win32,144.092219,6299f149e92ead563fba08ef,62a444aed9c4bf3a828ea8cc,,,,,,,,,,,,,,,,,,,,,,,,,,,,,,,,,,,,,,,,,,,,,,,,,,,,,,,,,,,,,,,,,,,,,,,,,,,,,,,,,,,,,,,,,,,,,,,,,,,,,
,,,,,,3,0,3,0,1,X V Q F H G B L J M P D K C T S W R N Z,5f44eb04cd108b02a14d8a10,22,Mężczyzna,2022-06-11_09h31.01.030,task,2021.1.4,Win32,144.092219,6299f149e92ead563fba08ef,62a444aed9c4bf3a828ea8cc,,,,,,,,,,,,,,,,,,,,,,,,,,,,,,,,,,,,,,,,,,,,,,,,,,,,,,,,,,,,,,,,,,,,,,,,,,,,,,,,,,,,,,,,,,,,,,,,,,,,,
,,,,,,4,0,4,0,1,X V Q F H G B L J M P D K C T S W R N Z,5f44eb04cd108b02a14d8a10,22,Mężczyzna,2022-06-11_09h31.01.030,task,2021.1.4,Win32,144.092219,6299f149e92ead563fba08ef,62a444aed9c4bf3a828ea8cc,,,,,,,,,,,,,,,,,,,,,,,,,,,,,,,,,,,,,,,,,,,,,,,,,,,,,,,,,,,,,,,,,,,,,,,,,,,,,,,,,,,,,,,,,,,,,,,,,,,,,
,,,,,,5,0,5,0,1,X V Q F H G B L J M P D K C T S W R N Z,5f44eb04cd108b02a14d8a10,22,Mężczyzna,2022-06-11_09h31.01.030,task,2021.1.4,Win32,144.092219,6299f149e92ead563fba08ef,62a444aed9c4bf3a828ea8cc,,,,,,,,,,,,,,,,,,,,,,,,,,,,,,,,,,,,,,,,,,,,,,,,,,,,,,,,,,,,,,,,,,,,,,,,,,,,,,,,,,,,,,,,,,,,,,,,,,,,,
,,,,,,,,,,,,5f44eb04cd108b02a14d8a10,22,Mężczyzna,2022-06-11_09h31.01.030,task,2021.1.4,Win32,144.092219,6299f149e92ead563fba08ef,62a444aed9c4bf3a828ea8cc,nwrdwq,"[""n"",""w"",""r"",""d"",""w"",""q""]","[0.45179999999999154,0.7237999999999829,1.0682999999999936,2.092099999999988,3.1725999999999885,3.4757999999999925,3.8360000000000127]",1,NWRDWQ,10,0,10,0,1,,,,,,,,,,,,,,,,,,,,,,,,,,,,,,,,,,,,,,,,,,,,,,,,,,,,,,,,,,,,,,,,,,,,,,,,,,,,,,,,,,,,,,,,,,,
,,,,,,0,0,0,0,1,X V Q F H G B L J M P D K C T S W R N Z,5f44eb04cd108b02a14d8a10,22,Mężczyzna,2022-06-11_09h31.01.030,task,2021.1.4,Win32,144.092219,6299f149e92ead563fba08ef,62a444aed9c4bf3a828ea8cc,,,,,,,,,,,,,,,,,,,,,,,,,,,,,,,,,,,,,,,,,,,,,,,,,,,,,,,,,,,,,,,,,,,,,,,,,,,,,,,,,,,,,,,,,,,,,,,,,,,,,
,,,,,,1,0,1,0,1,X V Q F H G B L J M P D K C T S W R N Z,5f44eb04cd108b02a14d8a10,22,Mężczyzna,2022-06-11_09h31.01.030,task,2021.1.4,Win32,144.092219,6299f149e92ead563fba08ef,62a444aed9c4bf3a828ea8cc,,,,,,,,,,,,,,,,,,,,,,,,,,,,,,,,,,,,,,,,,,,,,,,,,,,,,,,,,,,,,,,,,,,,,,,,,,,,,,,,,,,,,,,,,,,,,,,,,,,,,
,,,,,,2,0,2,0,1,X V Q F H G B L J M P D K C T S W R N Z,5f44eb04cd108b02a14d8a10,22,Mężczyzna,2022-06-11_09h31.01.030,task,2021.1.4,Win32,144.092219,6299f149e92ead563fba08ef,62a444aed9c4bf3a828ea8cc,,,,,,,,,,,,,,,,,,,,,,,,,,,,,,,,,,,,,,,,,,,,,,,,,,,,,,,,,,,,,,,,,,,,,,,,,,,,,,,,,,,,,,,,,,,,,,,,,,,,,
,,,,,,3,0,3,0,1,X V Q F H G B L J M P D K C T S W R N Z,5f44eb04cd108b02a14d8a10,22,Mężczyzna,2022-06-11_09h31.01.030,task,2021.1.4,Win32,144.092219,6299f149e92ead563fba08ef,62a444aed9c4bf3a828ea8cc,,,,,,,,,,,,,,,,,,,,,,,,,,,,,,,,,,,,,,,,,,,,,,,,,,,,,,,,,,,,,,,,,,,,,,,,,,,,,,,,,,,,,,,,,,,,,,,,,,,,,
,,,,,,4,0,4,0,1,X V Q F H G B L J M P D K C T S W R N Z,5f44eb04cd108b02a14d8a10,22,Mężczyzna,2022-06-11_09h31.01.030,task,2021.1.4,Win32,144.092219,6299f149e92ead563fba08ef,62a444aed9c4bf3a828ea8cc,,,,,,,,,,,,,,,,,,,,,,,,,,,,,,,,,,,,,,,,,,,,,,,,,,,,,,,,,,,,,,,,,,,,,,,,,,,,,,,,,,,,,,,,,,,,,,,,,,,,,
,,,,,,5,0,5,0,1,X V Q F H G B L J M P D K C T S W R N Z,5f44eb04cd108b02a14d8a10,22,Mężczyzna,2022-06-11_09h31.01.030,task,2021.1.4,Win32,144.092219,6299f149e92ead563fba08ef,62a444aed9c4bf3a828ea8cc,,,,,,,,,,,,,,,,,,,,,,,,,,,,,,,,,,,,,,,,,,,,,,,,,,,,,,,,,,,,,,,,,,,,,,,,,,,,,,,,,,,,,,,,,,,,,,,,,,,,,
,,,,,,6,0,6,0,1,X V Q F H G B L J M P D K C T S W R N Z,5f44eb04cd108b02a14d8a10,22,Mężczyzna,2022-06-11_09h31.01.030,task,2021.1.4,Win32,144.092219,6299f149e92ead563fba08ef,62a444aed9c4bf3a828ea8cc,,,,,,,,,,,,,,,,,,,,,,,,,,,,,,,,,,,,,,,,,,,,,,,,,,,,,,,,,,,,,,,,,,,,,,,,,,,,,,,,,,,,,,,,,,,,,,,,,,,,,
,,,,,,,,,,,,5f44eb04cd108b02a14d8a10,22,Mężczyzna,2022-06-11_09h31.01.030,task,2021.1.4,Win32,144.092219,6299f149e92ead563fba08ef,62a444aed9c4bf3a828ea8cc,jprgfmw,"[""j"",""p"",""r"",""g"",""f"",""m"",""w""]","[0.9537000000000262,1.129400000000004,1.225500000000011,1.4894999999999925,1.929600000000022,2.2424000000000035,2.4176000000000215,2.497700000000009]",1,JPRGFMW,11,0,11,0,1,,,,,,,,,,,,,,,,,,,,,,,,,,,,,,,,,,,,,,,,,,,,,,,,,,,,,,,,,,,,,,,,,,,,,,,,,,,,,,,,,,,,,,,,,,,
,,,,,,0,0,0,0,1,X V Q F H G B L J M P D K C T S W R N Z,5f44eb04cd108b02a14d8a10,22,Mężczyzna,2022-06-11_09h31.01.030,task,2021.1.4,Win32,144.092219,6299f149e92ead563fba08ef,62a444aed9c4bf3a828ea8cc,,,,,,,,,,,,,,,,,,,,,,,,,,,,,,,,,,,,,,,,,,,,,,,,,,,,,,,,,,,,,,,,,,,,,,,,,,,,,,,,,,,,,,,,,,,,,,,,,,,,,
,,,,,,1,0,1,0,1,X V Q F H G B L J M P D K C T S W R N Z,5f44eb04cd108b02a14d8a10,22,Mężczyzna,2022-06-11_09h31.01.030,task,2021.1.4,Win32,144.092219,6299f149e92ead563fba08ef,62a444aed9c4bf3a828ea8cc,,,,,,,,,,,,,,,,,,,,,,,,,,,,,,,,,,,,,,,,,,,,,,,,,,,,,,,,,,,,,,,,,,,,,,,,,,,,,,,,,,,,,,,,,,,,,,,,,,,,,
,,,,,,2,0,2,0,1,X V Q F H G B L J M P D K C T S W R N Z,5f44eb04cd108b02a14d8a10,22,Mężczyzna,2022-06-11_09h31.01.030,task,2021.1.4,Win32,144.092219,6299f149e92ead563fba08ef,62a444aed9c4bf3a828ea8cc,,,,,,,,,,,,,,,,,,,,,,,,,,,,,,,,,,,,,,,,,,,,,,,,,,,,,,,,,,,,,,,,,,,,,,,,,,,,,,,,,,,,,,,,,,,,,,,,,,,,,
,,,,,,3,0,3,0,1,X V Q F H G B L J M P D K C T S W R N Z,5f44eb04cd108b02a14d8a10,22,Mężczyzna,2022-06-11_09h31.01.030,task,2021.1.4,Win32,144.092219,6299f149e92ead563fba08ef,62a444aed9c4bf3a828ea8cc,,,,,,,,,,,,,,,,,,,,,,,,,,,,,,,,,,,,,,,,,,,,,,,,,,,,,,,,,,,,,,,,,,,,,,,,,,,,,,,,,,,,,,,,,,,,,,,,,,,,,
,,,,,,4,0,4,0,1,X V Q F H G B L J M P D K C T S W R N Z,5f44eb04cd108b02a14d8a10,22,Mężczyzna,2022-06-11_09h31.01.030,task,2021.1.4,Win32,144.092219,6299f149e92ead563fba08ef,62a444aed9c4bf3a828ea8cc,,,,,,,,,,,,,,,,,,,,,,,,,,,,,,,,,,,,,,,,,,,,,,,,,,,,,,,,,,,,,,,,,,,,,,,,,,,,,,,,,,,,,,,,,,,,,,,,,,,,,
,,,,,,5,0,5,0,1,X V Q F H G B L J M P D K C T S W R N Z,5f44eb04cd108b02a14d8a10,22,Mężczyzna,2022-06-11_09h31.01.030,task,2021.1.4,Win32,144.092219,6299f149e92ead563fba08ef,62a444aed9c4bf3a828ea8cc,,,,,,,,,,,,,,,,,,,,,,,,,,,,,,,,,,,,,,,,,,,,,,,,,,,,,,,,,,,,,,,,,,,,,,,,,,,,,,,,,,,,,,,,,,,,,,,,,,,,,
,,,,,,6,0,6,0,1,X V Q F H G B L J M P D K C T S W R N Z,5f44eb04cd108b02a14d8a10,22,Mężczyzna,2022-06-11_09h31.01.030,task,2021.1.4,Win32,144.092219,6299f149e92ead563fba08ef,62a444aed9c4bf3a828ea8cc,,,,,,,,,,,,,,,,,,,,,,,,,,,,,,,,,,,,,,,,,,,,,,,,,,,,,,,,,,,,,,,,,,,,,,,,,,,,,,,,,,,,,,,,,,,,,,,,,,,,,
,,,,,,,,,,,,5f44eb04cd108b02a14d8a10,22,Mężczyzna,2022-06-11_09h31.01.030,task,2021.1.4,Win32,144.092219,6299f149e92ead563fba08ef,62a444aed9c4bf3a828ea8cc,lpsxwxc,"[""l"",""p"",""s"",""x"",""w"",""x"",""c""]","[1.0282999999999731,1.2379999999999995,1.4868999999999915,1.9979999999999905,2.509999999999991,3.8549999999999898,4.774100000000004,5.317999999999984]",0,LPSXWRC,12,0,12,0,1,,,,,,,,,,,,,,,,,,,,,,,,,,,,,,,,,,,,,,,,,,,,,,,,,,,,,,,,,,,,,,,,,,,,,,,,,,,,,,,,,,,,,,,,,,,
,,,,,,0,0,0,0,1,X V Q F H G B L J M P D K C T S W R N Z,5f44eb04cd108b02a14d8a10,22,Mężczyzna,2022-06-11_09h31.01.030,task,2021.1.4,Win32,144.092219,6299f149e92ead563fba08ef,62a444aed9c4bf3a828ea8cc,,,,,,,,,,,,,,,,,,,,,,,,,,,,,,,,,,,,,,,,,,,,,,,,,,,,,,,,,,,,,,,,,,,,,,,,,,,,,,,,,,,,,,,,,,,,,,,,,,,,,
,,,,,,1,0,1,0,1,X V Q F H G B L J M P D K C T S W R N Z,5f44eb04cd108b02a14d8a10,22,Mężczyzna,2022-06-11_09h31.01.030,task,2021.1.4,Win32,144.092219,6299f149e92ead563fba08ef,62a444aed9c4bf3a828ea8cc,,,,,,,,,,,,,,,,,,,,,,,,,,,,,,,,,,,,,,,,,,,,,,,,,,,,,,,,,,,,,,,,,,,,,,,,,,,,,,,,,,,,,,,,,,,,,,,,,,,,,
,,,,,,2,0,2,0,1,X V Q F H G B L J M P D K C T S W R N Z,5f44eb04cd108b02a14d8a10,22,Mężczyzna,2022-06-11_09h31.01.030,task,2021.1.4,Win32,144.092219,6299f149e92ead563fba08ef,62a444aed9c4bf3a828ea8cc,,,,,,,,,,,,,,,,,,,,,,,,,,,,,,,,,,,,,,,,,,,,,,,,,,,,,,,,,,,,,,,,,,,,,,,,,,,,,,,,,,,,,,,,,,,,,,,,,,,,,
,,,,,,3,0,3,0,1,X V Q F H G B L J M P D K C T S W R N Z,5f44eb04cd108b02a14d8a10,22,Mężczyzna,2022-06-11_09h31.01.030,task,2021.1.4,Win32,144.092219,6299f149e92ead563fba08ef,62a444aed9c4bf3a828ea8cc,,,,,,,,,,,,,,,,,,,,,,,,,,,,,,,,,,,,,,,,,,,,,,,,,,,,,,,,,,,,,,,,,,,,,,,,,,,,,,,,,,,,,,,,,,,,,,,,,,,,,
,,,,,,4,0,4,0,1,X V Q F H G B L J M P D K C T S W R N Z,5f44eb04cd108b02a14d8a10,22,Mężczyzna,2022-06-11_09h31.01.030,task,2021.1.4,Win32,144.092219,6299f149e92ead563fba08ef,62a444aed9c4bf3a828ea8cc,,,,,,,,,,,,,,,,,,,,,,,,,,,,,,,,,,,,,,,,,,,,,,,,,,,,,,,,,,,,,,,,,,,,,,,,,,,,,,,,,,,,,,,,,,,,,,,,,,,,,
,,,,,,5,0,5,0,1,X V Q F H G B L J M P D K C T S W R N Z,5f44eb04cd108b02a14d8a10,22,Mężczyzna,2022-06-11_09h31.01.030,task,2021.1.4,Win32,144.092219,6299f149e92ead563fba08ef,62a444aed9c4bf3a828ea8cc,,,,,,,,,,,,,,,,,,,,,,,,,,,,,,,,,,,,,,,,,,,,,,,,,,,,,,,,,,,,,,,,,,,,,,,,,,,,,,,,,,,,,,,,,,,,,,,,,,,,,
,,,,,,6,0,6,0,1,X V Q F H G B L J M P D K C T S W R N Z,5f44eb04cd108b02a14d8a10,22,Mężczyzna,2022-06-11_09h31.01.030,task,2021.1.4,Win32,144.092219,6299f149e92ead563fba08ef,62a444aed9c4bf3a828ea8cc,,,,,,,,,,,,,,,,,,,,,,,,,,,,,,,,,,,,,,,,,,,,,,,,,,,,,,,,,,,,,,,,,,,,,,,,,,,,,,,,,,,,,,,,,,,,,,,,,,,,,
,,,,,,,,,,,,5f44eb04cd108b02a14d8a10,22,Mężczyzna,2022-06-11_09h31.01.030,task,2021.1.4,Win32,144.092219,6299f149e92ead563fba08ef,62a444aed9c4bf3a828ea8cc,hknvxvj,"[""h"",""k"",""n"",""v"",""x"",""v"",""j""]","[1.213700000000017,1.4856000000000051,1.7580000000000098,2.1415000000000077,2.6214999999999975,2.9865000000000066,3.2572999999999865,3.4168999999999983]",1,HKNVXVJ,13,0,13,0,1,,,,,,,,,,,,,,,,,,,,,,,,,,,,,,,,,,,,,,,,,,,,,,,,,,,,,,,,,,,,,,,,,,,,,,,,,,,,,,,,,,,,,,,,,,,
,,,,,,0,0,0,0,1,X V Q F H G B L J M P D K C T S W R N Z,5f44eb04cd108b02a14d8a10,22,Mężczyzna,2022-06-11_09h31.01.030,task,2021.1.4,Win32,144.092219,6299f149e92ead563fba08ef,62a444aed9c4bf3a828ea8cc,,,,,,,,,,,,,,,,,,,,,,,,,,,,,,,,,,,,,,,,,,,,,,,,,,,,,,,,,,,,,,,,,,,,,,,,,,,,,,,,,,,,,,,,,,,,,,,,,,,,,
,,,,,,1,0,1,0,1,X V Q F H G B L J M P D K C T S W R N Z,5f44eb04cd108b02a14d8a10,22,Mężczyzna,2022-06-11_09h31.01.030,task,2021.1.4,Win32,144.092219,6299f149e92ead563fba08ef,62a444aed9c4bf3a828ea8cc,,,,,,,,,,,,,,,,,,,,,,,,,,,,,,,,,,,,,,,,,,,,,,,,,,,,,,,,,,,,,,,,,,,,,,,,,,,,,,,,,,,,,,,,,,,,,,,,,,,,,
,,,,,,2,0,2,0,1,X V Q F H G B L J M P D K C T S W R N Z,5f44eb04cd108b02a14d8a10,22,Mężczyzna,2022-06-11_09h31.01.030,task,2021.1.4,Win32,144.092219,6299f149e92ead563fba08ef,62a444aed9c4bf3a828ea8cc,,,,,,,,,,,,,,,,,,,,,,,,,,,,,,,,,,,,,,,,,,,,,,,,,,,,,,,,,,,,,,,,,,,,,,,,,,,,,,,,,,,,,,,,,,,,,,,,,,,,,
,,,,,,3,0,3,0,1,X V Q F H G B L J M P D K C T S W R N Z,5f44eb04cd108b02a14d8a10,22,Mężczyzna,2022-06-11_09h31.01.030,task,2021.1.4,Win32,144.092219,6299f149e92ead563fba08ef,62a444aed9c4bf3a828ea8cc,,,,,,,,,,,,,,,,,,,,,,,,,,,,,,,,,,,,,,,,,,,,,,,,,,,,,,,,,,,,,,,,,,,,,,,,,,,,,,,,,,,,,,,,,,,,,,,,,,,,,
,,,,,,4,0,4,0,1,X V Q F H G B L J M P D K C T S W R N Z,5f44eb04cd108b02a14d8a10,22,Mężczyzna,2022-06-11_09h31.01.030,task,2021.1.4,Win32,144.092219,6299f149e92ead563fba08ef,62a444aed9c4bf3a828ea8cc,,,,,,,,,,,,,,,,,,,,,,,,,,,,,,,,,,,,,,,,,,,,,,,,,,,,,,,,,,,,,,,,,,,,,,,,,,,,,,,,,,,,,,,,,,,,,,,,,,,,,
,,,,,,5,0,5,0,1,X V Q F H G B L J M P D K C T S W R N Z,5f44eb04cd108b02a14d8a10,22,Mężczyzna,2022-06-11_09h31.01.030,task,2021.1.4,Win32,144.092219,6299f149e92ead563fba08ef,62a444aed9c4bf3a828ea8cc,,,,,,,,,,,,,,,,,,,,,,,,,,,,,,,,,,,,,,,,,,,,,,,,,,,,,,,,,,,,,,,,,,,,,,,,,,,,,,,,,,,,,,,,,,,,,,,,,,,,,
,,,,,,6,0,6,0,1,X V Q F H G B L J M P D K C T S W R N Z,5f44eb04cd108b02a14d8a10,22,Mężczyzna,2022-06-11_09h31.01.030,task,2021.1.4,Win32,144.092219,6299f149e92ead563fba08ef,62a444aed9c4bf3a828ea8cc,,,,,,,,,,,,,,,,,,,,,,,,,,,,,,,,,,,,,,,,,,,,,,,,,,,,,,,,,,,,,,,,,,,,,,,,,,,,,,,,,,,,,,,,,,,,,,,,,,,,,
,,,,,,7,0,7,0,1,X V Q F H G B L J M P D K C T S W R N Z,5f44eb04cd108b02a14d8a10,22,Mężczyzna,2022-06-11_09h31.01.030,task,2021.1.4,Win32,144.092219,6299f149e92ead563fba08ef,62a444aed9c4bf3a828ea8cc,,,,,,,,,,,,,,,,,,,,,,,,,,,,,,,,,,,,,,,,,,,,,,,,,,,,,,,,,,,,,,,,,,,,,,,,,,,,,,,,,,,,,,,,,,,,,,,,,,,,,
,,,,,,,,,,,,5f44eb04cd108b02a14d8a10,22,Mężczyzna,2022-06-11_09h31.01.030,task,2021.1.4,Win32,144.092219,6299f149e92ead563fba08ef,62a444aed9c4bf3a828ea8cc,bpvrcncdc,"[""b"",""p"",""v"",""r"",""c"",""n"",""c"",""d"",""c""]","[0.566900000000004,0.7184000000000026,1.238300000000038,1.7353000000000236,2.103199999999987,2.4712000000000103,10.702499999999986,11.262999999999977,12.246400000000023,12.334400000000016]",0,BPVRCDND,14,0,14,0,1,,,,,,,,,,,,,,,,,,,,,,,,,,,,,,,,,,,,,,,,,,,,,,,,,,,,,,,,,,,,,,,,,,,,,,,,,,,,,,,,,,,,,,,,,,,
,,,,,,0,0,0,0,1,X V Q F H G B L J M P D K C T S W R N Z,5f44eb04cd108b02a14d8a10,22,Mężczyzna,2022-06-11_09h31.01.030,task,2021.1.4,Win32,144.092219,6299f149e92ead563fba08ef,62a444aed9c4bf3a828ea8cc,,,,,,,,,,,,,,,,,,,,,,,,,,,,,,,,,,,,,,,,,,,,,,,,,,,,,,,,,,,,,,,,,,,,,,,,,,,,,,,,,,,,,,,,,,,,,,,,,,,,,
,,,,,,1,0,1,0,1,X V Q F H G B L J M P D K C T S W R N Z,5f44eb04cd108b02a14d8a10,22,Mężczyzna,2022-06-11_09h31.01.030,task,2021.1.4,Win32,144.092219,6299f149e92ead563fba08ef,62a444aed9c4bf3a828ea8cc,,,,,,,,,,,,,,,,,,,,,,,,,,,,,,,,,,,,,,,,,,,,,,,,,,,,,,,,,,,,,,,,,,,,,,,,,,,,,,,,,,,,,,,,,,,,,,,,,,,,,
,,,,,,2,0,2,0,1,X V Q F H G B L J M P D K C T S W R N Z,5f44eb04cd108b02a14d8a10,22,Mężczyzna,2022-06-11_09h31.01.030,task,2021.1.4,Win32,144.092219,6299f149e92ead563fba08ef,62a444aed9c4bf3a828ea8cc,,,,,,,,,,,,,,,,,,,,,,,,,,,,,,,,,,,,,,,,,,,,,,,,,,,,,,,,,,,,,,,,,,,,,,,,,,,,,,,,,,,,,,,,,,,,,,,,,,,,,
,,,,,,3,0,3,0,1,X V Q F H G B L J M P D K C T S W R N Z,5f44eb04cd108b02a14d8a10,22,Mężczyzna,2022-06-11_09h31.01.030,task,2021.1.4,Win32,144.092219,6299f149e92ead563fba08ef,62a444aed9c4bf3a828ea8cc,,,,,,,,,,,,,,,,,,,,,,,,,,,,,,,,,,,,,,,,,,,,,,,,,,,,,,,,,,,,,,,,,,,,,,,,,,,,,,,,,,,,,,,,,,,,,,,,,,,,,
,,,,,,4,0,4,0,1,X V Q F H G B L J M P D K C T S W R N Z,5f44eb04cd108b02a14d8a10,22,Mężczyzna,2022-06-11_09h31.01.030,task,2021.1.4,Win32,144.092219,6299f149e92ead563fba08ef,62a444aed9c4bf3a828ea8cc,,,,,,,,,,,,,,,,,,,,,,,,,,,,,,,,,,,,,,,,,,,,,,,,,,,,,,,,,,,,,,,,,,,,,,,,,,,,,,,,,,,,,,,,,,,,,,,,,,,,,
,,,,,,5,0,5,0,1,X V Q F H G B L J M P D K C T S W R N Z,5f44eb04cd108b02a14d8a10,22,Mężczyzna,2022-06-11_09h31.01.030,task,2021.1.4,Win32,144.092219,6299f149e92ead563fba08ef,62a444aed9c4bf3a828ea8cc,,,,,,,,,,,,,,,,,,,,,,,,,,,,,,,,,,,,,,,,,,,,,,,,,,,,,,,,,,,,,,,,,,,,,,,,,,,,,,,,,,,,,,,,,,,,,,,,,,,,,
,,,,,,6,0,6,0,1,X V Q F H G B L J M P D K C T S W R N Z,5f44eb04cd108b02a14d8a10,22,Mężczyzna,2022-06-11_09h31.01.030,task,2021.1.4,Win32,144.092219,6299f149e92ead563fba08ef,62a444aed9c4bf3a828ea8cc,,,,,,,,,,,,,,,,,,,,,,,,,,,,,,,,,,,,,,,,,,,,,,,,,,,,,,,,,,,,,,,,,,,,,,,,,,,,,,,,,,,,,,,,,,,,,,,,,,,,,
,,,,,,7,0,7,0,1,X V Q F H G B L J M P D K C T S W R N Z,5f44eb04cd108b02a14d8a10,22,Mężczyzna,2022-06-11_09h31.01.030,task,2021.1.4,Win32,144.092219,6299f149e92ead563fba08ef,62a444aed9c4bf3a828ea8cc,,,,,,,,,,,,,,,,,,,,,,,,,,,,,,,,,,,,,,,,,,,,,,,,,,,,,,,,,,,,,,,,,,,,,,,,,,,,,,,,,,,,,,,,,,,,,,,,,,,,,
,,,,,,,,,,,,5f44eb04cd108b02a14d8a10,22,Mężczyzna,2022-06-11_09h31.01.030,task,2021.1.4,Win32,144.092219,6299f149e92ead563fba08ef,62a444aed9c4bf3a828ea8cc,ssfnvswf,"[""s"",""s"",""f"",""n"",""v"",""s"",""w"",""f""]","[0.9235999999999649,1.1155999999999722,1.2994999999999948,1.987499999999983,2.507599999999968,3.1639999999999873,3.6755999999999744,3.9075999999999738,5.740200000000016]",0,SSFNSWBV,15,0,15,0,1,,,,,,,,,,,,,,,,,,,,,,,,,,,,,,,,,,,,,,,,,,,,,,,,,,,,,,,,,,,,,,,,,,,,,,,,,,,,,,,,,,,,,,,,,,,
,,,,,,0,0,0,0,1,X V Q F H G B L J M P D K C T S W R N Z,5f44eb04cd108b02a14d8a10,22,Mężczyzna,2022-06-11_09h31.01.030,task,2021.1.4,Win32,144.092219,6299f149e92ead563fba08ef,62a444aed9c4bf3a828ea8cc,,,,,,,,,,,,,,,,,,,,,,,,,,,,,,,,,,,,,,,,,,,,,,,,,,,,,,,,,,,,,,,,,,,,,,,,,,,,,,,,,,,,,,,,,,,,,,,,,,,,,
,,,,,,1,0,1,0,1,X V Q F H G B L J M P D K C T S W R N Z,5f44eb04cd108b02a14d8a10,22,Mężczyzna,2022-06-11_09h31.01.030,task,2021.1.4,Win32,144.092219,6299f149e92ead563fba08ef,62a444aed9c4bf3a828ea8cc,,,,,,,,,,,,,,,,,,,,,,,,,,,,,,,,,,,,,,,,,,,,,,,,,,,,,,,,,,,,,,,,,,,,,,,,,,,,,,,,,,,,,,,,,,,,,,,,,,,,,
,,,,,,2,0,2,0,1,X V Q F H G B L J M P D K C T S W R N Z,5f44eb04cd108b02a14d8a10,22,Mężczyzna,2022-06-11_09h31.01.030,task,2021.1.4,Win32,144.092219,6299f149e92ead563fba08ef,62a444aed9c4bf3a828ea8cc,,,,,,,,,,,,,,,,,,,,,,,,,,,,,,,,,,,,,,,,,,,,,,,,,,,,,,,,,,,,,,,,,,,,,,,,,,,,,,,,,,,,,,,,,,,,,,,,,,,,,
,,,,,,3,0,3,0,1,X V Q F H G B L J M P D K C T S W R N Z,5f44eb04cd108b02a14d8a10,22,Mężczyzna,2022-06-11_09h31.01.030,task,2021.1.4,Win32,144.092219,6299f149e92ead563fba08ef,62a444aed9c4bf3a828ea8cc,,,,,,,,,,,,,,,,,,,,,,,,,,,,,,,,,,,,,,,,,,,,,,,,,,,,,,,,,,,,,,,,,,,,,,,,,,,,,,,,,,,,,,,,,,,,,,,,,,,,,
,,,,,,4,0,4,0,1,X V Q F H G B L J M P D K C T S W R N Z,5f44eb04cd108b02a14d8a10,22,Mężczyzna,2022-06-11_09h31.01.030,task,2021.1.4,Win32,144.092219,6299f149e92ead563fba08ef,62a444aed9c4bf3a828ea8cc,,,,,,,,,,,,,,,,,,,,,,,,,,,,,,,,,,,,,,,,,,,,,,,,,,,,,,,,,,,,,,,,,,,,,,,,,,,,,,,,,,,,,,,,,,,,,,,,,,,,,
,,,,,,5,0,5,0,1,X V Q F H G B L J M P D K C T S W R N Z,5f44eb04cd108b02a14d8a10,22,Mężczyzna,2022-06-11_09h31.01.030,task,2021.1.4,Win32,144.092219,6299f149e92ead563fba08ef,62a444aed9c4bf3a828ea8cc,,,,,,,,,,,,,,,,,,,,,,,,,,,,,,,,,,,,,,,,,,,,,,,,,,,,,,,,,,,,,,,,,,,,,,,,,,,,,,,,,,,,,,,,,,,,,,,,,,,,,
,,,,,,6,0,6,0,1,X V Q F H G B L J M P D K C T S W R N Z,5f44eb04cd108b02a14d8a10,22,Mężczyzna,2022-06-11_09h31.01.030,task,2021.1.4,Win32,144.092219,6299f149e92ead563fba08ef,62a444aed9c4bf3a828ea8cc,,,,,,,,,,,,,,,,,,,,,,,,,,,,,,,,,,,,,,,,,,,,,,,,,,,,,,,,,,,,,,,,,,,,,,,,,,,,,,,,,,,,,,,,,,,,,,,,,,,,,
,,,,,,7,0,7,0,1,X V Q F H G B L J M P D K C T S W R N Z,5f44eb04cd108b02a14d8a10,22,Mężczyzna,2022-06-11_09h31.01.030,task,2021.1.4,Win32,144.092219,6299f149e92ead563fba08ef,62a444aed9c4bf3a828ea8cc,,,,,,,,,,,,,,,,,,,,,,,,,,,,,,,,,,,,,,,,,,,,,,,,,,,,,,,,,,,,,,,,,,,,,,,,,,,,,,,,,,,,,,,,,,,,,,,,,,,,,
,,,,,,,,,,,,5f44eb04cd108b02a14d8a10,22,Mężczyzna,2022-06-11_09h31.01.030,task,2021.1.4,Win32,144.092219,6299f149e92ead563fba08ef,62a444aed9c4bf3a828ea8cc,lxnzsqlp,"[""l"",""x"",""n"",""z"",""s"",""q"",""l"",""p""]","[0.8446000000000424,1.3019000000000176,1.6206000000000245,2.0444000000000244,2.6285000000000025,3.1254000000000133,3.564499999999981,4.132400000000018,4.750300000000038]",1,LXNZSQLP,16,0,16,0,1,,,,,,,,,,,,,,,,,,,,,,,,,,,,,,,,,,,,,,,,,,,,,,,,,,,,,,,,,,,,,,,,,,,,,,,,,,,,,,,,,,,,,,,,,,,
,,,,,,0,0,0,0,1,X V Q F H G B L J M P D K C T S W R N Z,5f44eb04cd108b02a14d8a10,22,Mężczyzna,2022-06-11_09h31.01.030,task,2021.1.4,Win32,144.092219,6299f149e92ead563fba08ef,62a444aed9c4bf3a828ea8cc,,,,,,,,,,,,,,,,,,,,,,,,,,,,,,,,,,,,,,,,,,,,,,,,,,,,,,,,,,,,,,,,,,,,,,,,,,,,,,,,,,,,,,,,,,,,,,,,,,,,,
,,,,,,1,0,1,0,1,X V Q F H G B L J M P D K C T S W R N Z,5f44eb04cd108b02a14d8a10,22,Mężczyzna,2022-06-11_09h31.01.030,task,2021.1.4,Win32,144.092219,6299f149e92ead563fba08ef,62a444aed9c4bf3a828ea8cc,,,,,,,,,,,,,,,,,,,,,,,,,,,,,,,,,,,,,,,,,,,,,,,,,,,,,,,,,,,,,,,,,,,,,,,,,,,,,,,,,,,,,,,,,,,,,,,,,,,,,
,,,,,,2,0,2,0,1,X V Q F H G B L J M P D K C T S W R N Z,5f44eb04cd108b02a14d8a10,22,Mężczyzna,2022-06-11_09h31.01.030,task,2021.1.4,Win32,144.092219,6299f149e92ead563fba08ef,62a444aed9c4bf3a828ea8cc,,,,,,,,,,,,,,,,,,,,,,,,,,,,,,,,,,,,,,,,,,,,,,,,,,,,,,,,,,,,,,,,,,,,,,,,,,,,,,,,,,,,,,,,,,,,,,,,,,,,,
,,,,,,3,0,3,0,1,X V Q F H G B L J M P D K C T S W R N Z,5f44eb04cd108b02a14d8a10,22,Mężczyzna,2022-06-11_09h31.01.030,task,2021.1.4,Win32,144.092219,6299f149e92ead563fba08ef,62a444aed9c4bf3a828ea8cc,,,,,,,,,,,,,,,,,,,,,,,,,,,,,,,,,,,,,,,,,,,,,,,,,,,,,,,,,,,,,,,,,,,,,,,,,,,,,,,,,,,,,,,,,,,,,,,,,,,,,
,,,,,,4,0,4,0,1,X V Q F H G B L J M P D K C T S W R N Z,5f44eb04cd108b02a14d8a10,22,Mężczyzna,2022-06-11_09h31.01.030,task,2021.1.4,Win32,144.092219,6299f149e92ead563fba08ef,62a444aed9c4bf3a828ea8cc,,,,,,,,,,,,,,,,,,,,,,,,,,,,,,,,,,,,,,,,,,,,,,,,,,,,,,,,,,,,,,,,,,,,,,,,,,,,,,,,,,,,,,,,,,,,,,,,,,,,,
,,,,,,5,0,5,0,1,X V Q F H G B L J M P D K C T S W R N Z,5f44eb04cd108b02a14d8a10,22,Mężczyzna,2022-06-11_09h31.01.030,task,2021.1.4,Win32,144.092219,6299f149e92ead563fba08ef,62a444aed9c4bf3a828ea8cc,,,,,,,,,,,,,,,,,,,,,,,,,,,,,,,,,,,,,,,,,,,,,,,,,,,,,,,,,,,,,,,,,,,,,,,,,,,,,,,,,,,,,,,,,,,,,,,,,,,,,
,,,,,,6,0,6,0,1,X V Q F H G B L J M P D K C T S W R N Z,5f44eb04cd108b02a14d8a10,22,Mężczyzna,2022-06-11_09h31.01.030,task,2021.1.4,Win32,144.092219,6299f149e92ead563fba08ef,62a444aed9c4bf3a828ea8cc,,,,,,,,,,,,,,,,,,,,,,,,,,,,,,,,,,,,,,,,,,,,,,,,,,,,,,,,,,,,,,,,,,,,,,,,,,,,,,,,,,,,,,,,,,,,,,,,,,,,,
,,,,,,7,0,7,0,1,X V Q F H G B L J M P D K C T S W R N Z,5f44eb04cd108b02a14d8a10,22,Mężczyzna,2022-06-11_09h31.01.030,task,2021.1.4,Win32,144.092219,6299f149e92ead563fba08ef,62a444aed9c4bf3a828ea8cc,,,,,,,,,,,,,,,,,,,,,,,,,,,,,,,,,,,,,,,,,,,,,,,,,,,,,,,,,,,,,,,,,,,,,,,,,,,,,,,,,,,,,,,,,,,,,,,,,,,,,
,,,,,,,,,,,,5f44eb04cd108b02a14d8a10,22,Mężczyzna,2022-06-11_09h31.01.030,task,2021.1.4,Win32,144.092219,6299f149e92ead563fba08ef,62a444aed9c4bf3a828ea8cc,bkcqqkjsc,"[""b"",""k"",""c"",""q"",""q"",""k"",""j"",""s"",""c""]","[1.0340999999999951,1.625200000000035,1.8187999999999818,2.129300000000029,2.2812000000000126,2.5932999999999993,2.8652000000000157,7.417099999999948,7.689099999999996,8.001299999999958]",0,BKCQQKJS,17,0,17,0,1,,,,,,,,,,,,,,,,,,,,,,,,,,,,,,,,,,,,,,,,,,,,,,,,,,,,,,,,,,,,,,,,,,,,,,,,,,,,,,,,,,,,,,,,,,,
,,,,,,,,,,,,5f44eb04cd108b02a14d8a10,22,Mężczyzna,2022-06-11_09h31.01.030,task,2021.1.4,Win32,144.092219,6299f149e92ead563fba08ef,62a444aed9c4bf3a828ea8cc,,,,,,,,,,,space,7.3375,8,"[""8""]",1,[2.5810999999999353],[2.5810999999999353],0,0,0,8,1,Practice,9,(3x3) - 1,8,,,,,,,,,,,,,,,,,,,,,,,,,,,,,,,,,,,,,,,,,,,,,,,,,,,,,,,,,,,,,,,,,,,,,,,,,,,
,,,,,,,,,,,,5f44eb04cd108b02a14d8a10,22,Mężczyzna,2022-06-11_09h31.01.030,task,2021.1.4,Win32,144.092219,6299f149e92ead563fba08ef,62a444aed9c4bf3a828ea8cc,,,,,,,,,,,,,7,"[""7""]",1,[2.7027000000001067],"[2.5810999999999353,2.7027000000001067]",0,1,1,7,1,Practice,8,(5x5) - 18,7,,,,,,,,,,,,,,,,,,,,,,,,,,,,,,,,,,,,,,,,,,,,,,,,,,,,,,,,,,,,,,,,,,,,,,,,,,,
,,,,,,,,,,,,5f44eb04cd108b02a14d8a10,22,Mężczyzna,2022-06-11_09h31.01.030,task,2021.1.4,Win32,144.092219,6299f149e92ead563fba08ef,62a444aed9c4bf3a828ea8cc,,,,,,,,,,,,,5,"[""5""]",1,[2.2756999999999152],"[2.5810999999999353,2.7027000000001067,2.2756999999999152]",0,2,2,5,1,Practice,6,(4/2) + 3,5,,,,,,,,,,,,,,,,,,,,,,,,,,,,,,,,,,,,,,,,,,,,,,,,,,,,,,,,,,,,,,,,,,,,,,,,,,,
,,,,,,,,,,,,5f44eb04cd108b02a14d8a10,22,Mężczyzna,2022-06-11_09h31.01.030,task,2021.1.4,Win32,144.092219,6299f149e92ead563fba08ef,62a444aed9c4bf3a828ea8cc,,,,,,,,,,,,,4,"[""4""]",1,[3.783999999999992],"[2.5810999999999353,2.7027000000001067,2.2756999999999152,3.783999999999992]",0,3,3,4,1,Practice,5,(2x6) - 8,4,,,,,,,,,,,,,,,,,,,,,,,,,,,,,,,,,,,,,,,,,,,,,,,,,,,,,,,,,,,,,,,,,,,,,,,,,,,
,,,,,,,,,,,,5f44eb04cd108b02a14d8a10,22,Mężczyzna,2022-06-11_09h31.01.030,task,2021.1.4,Win32,144.092219,6299f149e92ead563fba08ef,62a444aed9c4bf3a828ea8cc,,,,,,,,,,,,,6,"[""6""]",1,[1.7848000000000752],"[2.5810999999999353,2.7027000000001067,2.2756999999999152,3.783999999999992,1.7848000000000752]",0,4,4,6,1,Practice,7,(25/5) + 1,6,,,,,,,,,,,,,,,,,,,,,,,,,,,,,,,,,,,,,,,,,,,,,,,,,,,,,,,,,,,,,,,,,,,,,,,,,,,
,,,,,,,,,,,,5f44eb04cd108b02a14d8a10,22,Mężczyzna,2022-06-11_09h31.01.030,task,2021.1.4,Win32,144.092219,6299f149e92ead563fba08ef,62a444aed9c4bf3a828ea8cc,,,,,,,,,,,,,0,"[""0""]",1,[1.5617000000000303],"[2.5810999999999353,2.7027000000001067,2.2756999999999152,3.783999999999992,1.7848000000000752,1.5617000000000303]",0,5,5,0,1,Practice,1,(3x3) -  9,0,,,,,,,,,,,,,,,,,,,,,,,,,,,,,,,,,,,,,,,,,,,,,,,,,,,,,,,,,,,,,,,,,,,,,,,,,,,
,,,,,,,,,,,,5f44eb04cd108b02a14d8a10,22,Mężczyzna,2022-06-11_09h31.01.030,task,2021.1.4,Win32,144.092219,6299f149e92ead563fba08ef,62a444aed9c4bf3a828ea8cc,,,,,,,,,,,,,2,"[""2""]",1,[1.6102000000000771],"[2.5810999999999353,2.7027000000001067,2.2756999999999152,3.783999999999992,1.7848000000000752,1.5617000000000303,1.6102000000000771]",0,6,6,2,1,Practice,3,(4x4) - 14,2,,,,,,,,,,,,,,,,,,,,,,,,,,,,,,,,,,,,,,,,,,,,,,,,,,,,,,,,,,,,,,,,,,,,,,,,,,,
,,,,,,,,,,,,5f44eb04cd108b02a14d8a10,22,Mężczyzna,2022-06-11_09h31.01.030,task,2021.1.4,Win32,144.092219,6299f149e92ead563fba08ef,62a444aed9c4bf3a828ea8cc,,,,,,,,,,,,,1,"[""1""]",1,[1.1848000000000525],"[2.5810999999999353,2.7027000000001067,2.2756999999999152,3.783999999999992,1.7848000000000752,1.5617000000000303,1.6102000000000771,1.1848000000000525]",0,7,7,1,1,Practice,2,(4x4) - 15,1,,,,,,,,,,,,,,,,,,,,,,,,,,,,,,,,,,,,,,,,,,,,,,,,,,,,,,,,,,,,,,,,,,,,,,,,,,,
,,,,,,,,,,,,5f44eb04cd108b02a14d8a10,22,Mężczyzna,2022-06-11_09h31.01.030,task,2021.1.4,Win32,144.092219,6299f149e92ead563fba08ef,62a444aed9c4bf3a828ea8cc,,,,,,,,,,,,,3,"[""3""]",1,[2.486599999999953],"[2.5810999999999353,2.7027000000001067,2.2756999999999152,3.783999999999992,1.7848000000000752,1.5617000000000303,1.6102000000000771,1.1848000000000525,2.486599999999953]",0,8,8,3,1,Practice,4,(8/4) + 1,3,,,,,,,,,,,,,,,,,,,,,,,,,,,,,,,,,,,,,,,,,,,,,,,,,,,,,,,,,,,,,,,,,,,,,,,,,,,
,,,,,,,,,,,,5f44eb04cd108b02a14d8a10,22,Mężczyzna,2022-06-11_09h31.01.030,task,2021.1.4,Win32,144.092219,6299f149e92ead563fba08ef,62a444aed9c4bf3a828ea8cc,,,,,,,,,,,,,9,"[""9""]",1,[1.4048000000000798],"[2.5810999999999353,2.7027000000001067,2.2756999999999152,3.783999999999992,1.7848000000000752,1.5617000000000303,1.6102000000000771,1.1848000000000525,2.486599999999953,1.4048000000000798]",0,9,9,9,1,Practice,10,(20/2) - 1,9,,,,,,,,,,,,,,,,,,,,,,,,,,,,,,,,,,,,,,,,,,,,,,,,,,,,,,,,,,,,,,,,,,,,,,,,,,,
,,,,,,,,,,,,5f44eb04cd108b02a14d8a10,22,Mężczyzna,2022-06-11_09h31.01.030,task,2021.1.4,Win32,144.092219,6299f149e92ead563fba08ef,62a444aed9c4bf3a828ea8cc,,,,,,,,,,,,,,,,,,,,,,,,,,,1,21.3764,1.425093333,10.62386643,0.841580514,3.59637106,space,1.6837,0,0,0,0,1,,,,,,,,,,,,,,,,,,,,,,,,,,,,,,,,,,,,,,,,,,,,,,,,,,,,,,,,,,,,,,
,,,,,,,,,,,,5f44eb04cd108b02a14d8a10,22,Mężczyzna,2022-06-11_09h31.01.030,task,2021.1.4,Win32,144.092219,6299f149e92ead563fba08ef,62a444aed9c4bf3a828ea8cc,,,,,,,,,,,,,1,,,,,,,,,,Practice,2,(4x4) - 15,1,,,,,,,,,,,,,,space,13.4179,"[""1""]",1,[2.852100000000007],1,0,0,0,1,1,,,,,,,,,,,,,,,,,,,,,,,,,,,,,,,,,,,,,,,,,,,,,,,,,,,
,,,,,,,,,,,X V Q F H G B L J M P D K C T S W R N Z,5f44eb04cd108b02a14d8a10,22,Mężczyzna,2022-06-11_09h31.01.030,task,2021.1.4,Win32,144.092219,6299f149e92ead563fba08ef,62a444aed9c4bf3a828ea8cc,,,,,,,,,,,,,,,,,,,,,,,,,,,,,,,,,,,,,,,,,,,,,,,,,,,0,0,0,0,1,,,,,,,,,,,,,,,,,,,,,,,,,,,,,,,,,,,,,,,,,,,,,,
,,,,,,,,,,,,5f44eb04cd108b02a14d8a10,22,Mężczyzna,2022-06-11_09h31.01.030,task,2021.1.4,Win32,144.092219,6299f149e92ead563fba08ef,62a444aed9c4bf3a828ea8cc,,,,,,,,,,,,,3,,,,,,,,,,Practice,4,(8/4) + 1,3,,,,,,,,,,,,,,,,"[""3""]",1,[1.8321000000000254],1,0,0,0,3,1,,,,,,,,,,,,,,,,,,,,,,,,,,,,,,,,,,,,,,,,,,,,,,,,,,,
,,,,,,,,,,,X V Q F H G B L J M P D K C T S W R N Z,5f44eb04cd108b02a14d8a10,22,Mężczyzna,2022-06-11_09h31.01.030,task,2021.1.4,Win32,144.092219,6299f149e92ead563fba08ef,62a444aed9c4bf3a828ea8cc,,,,,,,,,,,,,,,,,,,,,,,,,,,,,,,,,,,,,,,,,,,,,,,,,,,1,0,1,0,1,,,,,,,,,,,,,,,,,,,,,,,,,,,,,,,,,,,,,,,,,,,,,,
,,,,,,,,,,,,5f44eb04cd108b02a14d8a10,22,Mężczyzna,2022-06-11_09h31.01.030,task,2021.1.4,Win32,144.092219,6299f149e92ead563fba08ef,62a444aed9c4bf3a828ea8cc,,,,,,,,,,,,,,,,,,,,,,,,,,,,,,,,,,,,,,,,,,,,,,,,,,,,,,,,zg,"[""z"",""g""]",0,"[1.7656999999999243,2.062999999999988,3.2619000000000256]",1,0,0,0,0,1,,,,,,,,,,,,,,,,,,,,,,,,,,,,,,,,,,,,
,,,,,,,,,,,,5f44eb04cd108b02a14d8a10,22,Mężczyzna,2022-06-11_09h31.01.030,task,2021.1.4,Win32,144.092219,6299f149e92ead563fba08ef,62a444aed9c4bf3a828ea8cc,,,,,,,,,,,,,6,,,,,,,,,,Practice,7,(25/5) + 1,6,,,,,,,,,,,,,,,,"[""6""]",1,[1.2676999999999907],1,0,0,0,6,1,,,,,,,,,,,,,,,,,,,,,,,,,,,,,,,,,,,,,,,,,,,,,,,,,,,
,,,,,,,,,,,X V Q F H G B L J M P D K C T S W R N Z,5f44eb04cd108b02a14d8a10,22,Mężczyzna,2022-06-11_09h31.01.030,task,2021.1.4,Win32,144.092219,6299f149e92ead563fba08ef,62a444aed9c4bf3a828ea8cc,,,,,,,,,,,,,,,,,,,,,,,,,,,,,,,,,,,,,,,,,,,,,,,,,,,0,0,0,0,1,,,,,,,,,,,,,,,,,,,,,,,,,,,,,,,,,,,,,,,,,,,,,,
,,,,,,,,,,,,5f44eb04cd108b02a14d8a10,22,Mężczyzna,2022-06-11_09h31.01.030,task,2021.1.4,Win32,144.092219,6299f149e92ead563fba08ef,62a444aed9c4bf3a828ea8cc,,,,,,,,,,,,,9,,,,,,,,,,Practice,10,(20/2) - 1,9,,,,,,,,,,,,,,,,"[""9""]",1,[2.273900000000026],1,0,0,0,9,1,,,,,,,,,,,,,,,,,,,,,,,,,,,,,,,,,,,,,,,,,,,,,,,,,,,
,,,,,,,,,,,X V Q F H G B L J M P D K C T S W R N Z,5f44eb04cd108b02a14d8a10,22,Mężczyzna,2022-06-11_09h31.01.030,task,2021.1.4,Win32,144.092219,6299f149e92ead563fba08ef,62a444aed9c4bf3a828ea8cc,,,,,,,,,,,,,,,,,,,,,,,,,,,,,,,,,,,,,,,,,,,,,,,,,,,1,0,1,0,1,,,,,,,,,,,,,,,,,,,,,,,,,,,,,,,,,,,,,,,,,,,,,,
,,,,,,,,,,,,5f44eb04cd108b02a14d8a10,22,Mężczyzna,2022-06-11_09h31.01.030,task,2021.1.4,Win32,144.092219,6299f149e92ead563fba08ef,62a444aed9c4bf3a828ea8cc,,,,,,,,,,,,,,,,,,,,,,,,,,,,,,,,,,,,,,,,,,,,,,,,,,,,,,,,sz,"[""s"",""z""]",0,"[1.1306999999999334,1.355199999999968,1.6030000000000086]",1,1,0,1,0,1,,,,,,,,,,,,,,,,,,,,,,,,,,,,,,,,,,,,
,,,,,,,,,,,,5f44eb04cd108b02a14d8a10,22,Mężczyzna,2022-06-11_09h31.01.030,task,2021.1.4,Win32,144.092219,6299f149e92ead563fba08ef,62a444aed9c4bf3a828ea8cc,,,,,,,,,,,,,1,,,,,,,,,,Practice,2,(4x4) - 15,1,,,,,,,,,,,,,,,,"[""1""]",1,[0.9055000000000177],1,0,0,0,1,1,,,,,,,,,,,,,,,,,,,,,,,,,,,,,,,,,,,,,,,,,,,,,,,,,,,
,,,,,,,,,,,X V Q F H G B L J M P D K C T S W R N Z,5f44eb04cd108b02a14d8a10,22,Mężczyzna,2022-06-11_09h31.01.030,task,2021.1.4,Win32,144.092219,6299f149e92ead563fba08ef,62a444aed9c4bf3a828ea8cc,,,,,,,,,,,,,,,,,,,,,,,,,,,,,,,,,,,,,,,,,,,,,,,,,,,0,0,0,0,1,,,,,,,,,,,,,,,,,,,,,,,,,,,,,,,,,,,,,,,,,,,,,,
,,,,,,,,,,,,5f44eb04cd108b02a14d8a10,22,Mężczyzna,2022-06-11_09h31.01.030,task,2021.1.4,Win32,144.092219,6299f149e92ead563fba08ef,62a444aed9c4bf3a828ea8cc,,,,,,,,,,,,,5,,,,,,,,,,Practice,6,(4/2) + 3,5,,,,,,,,,,,,,,,,"[""5""]",1,[1.4003999999999905],1,0,0,0,5,1,,,,,,,,,,,,,,,,,,,,,,,,,,,,,,,,,,,,,,,,,,,,,,,,,,,
,,,,,,,,,,,X V Q F H G B L J M P D K C T S W R N Z,5f44eb04cd108b02a14d8a10,22,Mężczyzna,2022-06-11_09h31.01.030,task,2021.1.4,Win32,144.092219,6299f149e92ead563fba08ef,62a444aed9c4bf3a828ea8cc,,,,,,,,,,,,,,,,,,,,,,,,,,,,,,,,,,,,,,,,,,,,,,,,,,,1,0,1,0,1,,,,,,,,,,,,,,,,,,,,,,,,,,,,,,,,,,,,,,,,,,,,,,
,,,,,,,,,,,,5f44eb04cd108b02a14d8a10,22,Mężczyzna,2022-06-11_09h31.01.030,task,2021.1.4,Win32,144.092219,6299f149e92ead563fba08ef,62a444aed9c4bf3a828ea8cc,,,,,,,,,,,,,,,,,,,,,,,,,,,,,,,,,,,,,,,,,,,,,,,,,,,,,,,,pp,"[""p"",""p""]",0,"[1.7886999999999489,1.9566999999999553,2.1329999999999814]",1,2,0,2,0,1,,,,,,,,,,,,,,,,,,,,,,,,,,,,,,,,,,,,
,,,,,,,,,,,,5f44eb04cd108b02a14d8a10,22,Mężczyzna,2022-06-11_09h31.01.030,task,2021.1.4,Win32,144.092219,6299f149e92ead563fba08ef,62a444aed9c4bf3a828ea8cc,,,,,,,,,,,,,,,,,,,,,,,Task,34,(9/3) - 2,1,,,,,,,,,,,,,,,,,,,0,,,,,,,,,,,,,,,,,,,,,space,9.1403,,0,0,0,0,33,1,,,,,,,,,,,,,,,,,,,,,,,,,,,
,,,,,,,,,,,,5f44eb04cd108b02a14d8a10,22,Mężczyzna,2022-06-11_09h31.01.030,task,2021.1.4,Win32,144.092219,6299f149e92ead563fba08ef,62a444aed9c4bf3a828ea8cc,,,,,,,,,,,,,7,,,,,,,,,,Task,14,(2x2) + 3,7,,,,,,,,,,,,,,,,,,,1,,,,,,,,,,,,,,,,,,,,,,,"[""7""]",1,0,1,1,13,1,[2.6105999999999767],,,,,,,,,,,,,,,,,,,,,,,,,,
,,,,,,,,,,,X V Q F H G B L J M P D K C T S W R N Z,5f44eb04cd108b02a14d8a10,22,Mężczyzna,2022-06-11_09h31.01.030,task,2021.1.4,Win32,144.092219,6299f149e92ead563fba08ef,62a444aed9c4bf3a828ea8cc,,,,,,,,,,,,,,,,,,,,,,,,,,,,,,,,,,,,,,,,,,,,,,,,,,,,,,,,,,,,,,,,,,,,,,,,,,,,0,0,0,0,1,,,,,,,,,,,,,,,,,,,,,
,,,,,,,,,,,,5f44eb04cd108b02a14d8a10,22,Mężczyzna,2022-06-11_09h31.01.030,task,2021.1.4,Win32,144.092219,6299f149e92ead563fba08ef,62a444aed9c4bf3a828ea8cc,,,,,,,,,,,,,4,,,,,,,,,,Task,28,(2x5) - 6,4,,,,,,,,,,,,,,,,,,,1,,,,,,,,,,,,,,,,,,,,,,,"[""4""]",1,0,0,0,27,1,[1.72950000000003],,,,,,,,,,,,,,,,,,,,,,,,,,
,,,,,,,,,,,X V Q F H G B L J M P D K C T S W R N Z,5f44eb04cd108b02a14d8a10,22,Mężczyzna,2022-06-11_09h31.01.030,task,2021.1.4,Win32,144.092219,6299f149e92ead563fba08ef,62a444aed9c4bf3a828ea8cc,,,,,,,,,,,,,,,,,,,,,,,,,,,,,,,,,,,,,,,,,,,,,,,,,,,,,,,,,,,,,,,,,,,,,,,,,,,,1,0,1,0,1,,,,,,,,,,,,,,,,,,,,,
,,,,,,,,,,,,5f44eb04cd108b02a14d8a10,22,Mężczyzna,2022-06-11_09h31.01.030,task,2021.1.4,Win32,144.092219,6299f149e92ead563fba08ef,62a444aed9c4bf3a828ea8cc,,,,,,,,,,,,,,,,,,,,,,,,,,,,,,,,,,,,,,,,,,,,,,,,,,,,,,,,,,,,,,,,,,,,,,,,,,,,,,,,,zc,"[""z"",""c""]",0,"[0.9268999999999892,1.2075999999999567,1.431099999999958]",1,ZC,0,0,0,0,1,,,,,,,,,,
,,,,,,,,,,,,5f44eb04cd108b02a14d8a10,22,Mężczyzna,2022-06-11_09h31.01.030,task,2021.1.4,Win32,144.092219,6299f149e92ead563fba08ef,62a444aed9c4bf3a828ea8cc,,,,,,,,,,,,,7,,,,,,,,,,Task,15,(3x7) - 13,8,,,,,,,,,,,,,,,,,,,0,,,,,,,,,,,,,,,,,,,,,,,"[""7""]",0,0,0,0,14,1,[2.9604999999999677],,,,,,,,,,,,,,,,,,,,,,,,,,
,,,,,,,,,,,,5f44eb04cd108b02a14d8a10,22,Mężczyzna,2022-06-11_09h31.01.030,task,2021.1.4,Win32,144.092219,6299f149e92ead563fba08ef,62a444aed9c4bf3a828ea8cc,,,,,,,,,,,,,5,,,,,,,,,,Task,12,(4x4) - 11,5,,,,,,,,,,,,,,,,,,,1,,,,,,,,,,,,,,,,,,,,,,,"[""5""]",1,0,1,1,11,1,[1.6001999999999725],,,,,,,,,,,,,,,,,,,,,,,,,,
,,,,,,,,,,,X V Q F H G B L J M P D K C T S W R N Z,5f44eb04cd108b02a14d8a10,22,Mężczyzna,2022-06-11_09h31.01.030,task,2021.1.4,Win32,144.092219,6299f149e92ead563fba08ef,62a444aed9c4bf3a828ea8cc,,,,,,,,,,,,,,,,,,,,,,,,,,,,,,,,,,,,,,,,,,,,,,,,,,,,,,,,,,,,,,,,,,,,,,,,,,,,0,0,0,0,1,,,,,,,,,,,,,,,,,,,,,
,,,,,,,,,,,,5f44eb04cd108b02a14d8a10,22,Mężczyzna,2022-06-11_09h31.01.030,task,2021.1.4,Win32,144.092219,6299f149e92ead563fba08ef,62a444aed9c4bf3a828ea8cc,,,,,,,,,,,,,6,,,,,,,,,,Task,30,(6/3) + 4 ,6,,,,,,,,,,,,,,,,,,,1,,,,,,,,,,,,,,,,,,,,,,,"[""6""]",1,0,0,0,29,1,[1.8150999999999726],,,,,,,,,,,,,,,,,,,,,,,,,,
,,,,,,,,,,,X V Q F H G B L J M P D K C T S W R N Z,5f44eb04cd108b02a14d8a10,22,Mężczyzna,2022-06-11_09h31.01.030,task,2021.1.4,Win32,144.092219,6299f149e92ead563fba08ef,62a444aed9c4bf3a828ea8cc,,,,,,,,,,,,,,,,,,,,,,,,,,,,,,,,,,,,,,,,,,,,,,,,,,,,,,,,,,,,,,,,,,,,,,,,,,,,1,0,1,0,1,,,,,,,,,,,,,,,,,,,,,
,,,,,,,,,,,,5f44eb04cd108b02a14d8a10,22,Mężczyzna,2022-06-11_09h31.01.030,task,2021.1.4,Win32,144.092219,6299f149e92ead563fba08ef,62a444aed9c4bf3a828ea8cc,,,,,,,,,,,,,8,,,,,,,,,,Task,23,(2x3) + 2,8,,,,,,,,,,,,,,,,,,,1,,,,,,,,,,,,,,,,,,,,,,,"[""8""]",1,0,0,0,22,1,[1.5791999999999575],,,,,,,,,,,,,,,,,,,,,,,,,,
,,,,,,,,,,,X V Q F H G B L J M P D K C T S W R N Z,5f44eb04cd108b02a14d8a10,22,Mężczyzna,2022-06-11_09h31.01.030,task,2021.1.4,Win32,144.092219,6299f149e92ead563fba08ef,62a444aed9c4bf3a828ea8cc,,,,,,,,,,,,,,,,,,,,,,,,,,,,,,,,,,,,,,,,,,,,,,,,,,,,,,,,,,,,,,,,,,,,,,,,,,,,2,0,2,0,1,,,,,,,,,,,,,,,,,,,,,
,,,,,,,,,,,,5f44eb04cd108b02a14d8a10,22,Mężczyzna,2022-06-11_09h31.01.030,task,2021.1.4,Win32,144.092219,6299f149e92ead563fba08ef,62a444aed9c4bf3a828ea8cc,,,,,,,,,,,,,,,,,,,,,,,,,,,,,,,,,,,,,,,,,,,,,,,,,,,,,,,,,,,,,,,,,,,,,,,,,,,,,,,,,dsg,"[""d"",""s"",""g""]",0,"[1.1060999999999694,1.3541999999999348,1.6340000000000146,1.9301999999999566]",1,DSG,1,0,1,0,1,,,,,,,,,,
,,,,,,,,,,,,5f44eb04cd108b02a14d8a10,22,Mężczyzna,2022-06-11_09h31.01.030,task,2021.1.4,Win32,144.092219,6299f149e92ead563fba08ef,62a444aed9c4bf3a828ea8cc,,,,,,,,,,,,,2,,,,,,,,,,Task,35,(1x2) + 1,3,,,,,,,,,,,,,,,,,,,0,,,,,,,,,,,,,,,,,,,,,,,"[""2""]",0,0,0,0,34,1,[1.6064000000000647],,,,,,,,,,,,,,,,,,,,,,,,,,
,,,,,,,,,,,,5f44eb04cd108b02a14d8a10,22,Mężczyzna,2022-06-11_09h31.01.030,task,2021.1.4,Win32,144.092219,6299f149e92ead563fba08ef,62a444aed9c4bf3a828ea8cc,,,,,,,,,,,,,6,,,,,,,,,,Task,13,(3x4) - 6,6,,,,,,,,,,,,,,,,,,,1,,,,,,,,,,,,,,,,,,,,,,,"[""6""]",1,0,1,1,12,1,[1.755700000000104],,,,,,,,,,,,,,,,,,,,,,,,,,
,,,,,,,,,,,X V Q F H G B L J M P D K C T S W R N Z,5f44eb04cd108b02a14d8a10,22,Mężczyzna,2022-06-11_09h31.01.030,task,2021.1.4,Win32,144.092219,6299f149e92ead563fba08ef,62a444aed9c4bf3a828ea8cc,,,,,,,,,,,,,,,,,,,,,,,,,,,,,,,,,,,,,,,,,,,,,,,,,,,,,,,,,,,,,,,,,,,,,,,,,,,,0,0,0,0,1,,,,,,,,,,,,,,,,,,,,,
,,,,,,,,,,,,5f44eb04cd108b02a14d8a10,22,Mężczyzna,2022-06-11_09h31.01.030,task,2021.1.4,Win32,144.092219,6299f149e92ead563fba08ef,62a444aed9c4bf3a828ea8cc,,,,,,,,,,,,,8,,,,,,,,,,Task,39,(5x3) - 7,8,,,,,,,,,,,,,,,,,,,1,,,,,,,,,,,,,,,,,,,,,,,"[""8""]",1,0,0,0,38,1,[1.8582999999999288],,,,,,,,,,,,,,,,,,,,,,,,,,
,,,,,,,,,,,X V Q F H G B L J M P D K C T S W R N Z,5f44eb04cd108b02a14d8a10,22,Mężczyzna,2022-06-11_09h31.01.030,task,2021.1.4,Win32,144.092219,6299f149e92ead563fba08ef,62a444aed9c4bf3a828ea8cc,,,,,,,,,,,,,,,,,,,,,,,,,,,,,,,,,,,,,,,,,,,,,,,,,,,,,,,,,,,,,,,,,,,,,,,,,,,,1,0,1,0,1,,,,,,,,,,,,,,,,,,,,,
,,,,,,,,,,,,5f44eb04cd108b02a14d8a10,22,Mężczyzna,2022-06-11_09h31.01.030,task,2021.1.4,Win32,144.092219,6299f149e92ead563fba08ef,62a444aed9c4bf3a828ea8cc,,,,,,,,,,,,,9,,,,,,,,,,Task,7,(3x7) - 12,9,,,,,,,,,,,,,,,,,,,1,,,,,,,,,,,,,,,,,,,,,,,"[""9""]",1,0,0,0,6,1,[3.527499999999975],,,,,,,,,,,,,,,,,,,,,,,,,,
,,,,,,,,,,,X V Q F H G B L J M P D K C T S W R N Z,5f44eb04cd108b02a14d8a10,22,Mężczyzna,2022-06-11_09h31.01.030,task,2021.1.4,Win32,144.092219,6299f149e92ead563fba08ef,62a444aed9c4bf3a828ea8cc,,,,,,,,,,,,,,,,,,,,,,,,,,,,,,,,,,,,,,,,,,,,,,,,,,,,,,,,,,,,,,,,,,,,,,,,,,,,2,0,2,0,1,,,,,,,,,,,,,,,,,,,,,
,,,,,,,,,,,,5f44eb04cd108b02a14d8a10,22,Mężczyzna,2022-06-11_09h31.01.030,task,2021.1.4,Win32,144.092219,6299f149e92ead563fba08ef,62a444aed9c4bf3a828ea8cc,,,,,,,,,,,,,0,,,,,,,,,,Task,8,(1x5) - 5,0,,,,,,,,,,,,,,,,,,,1,,,,,,,,,,,,,,,,,,,,,,,"[""0""]",1,0,0,0,7,1,[1.6689999999999827],,,,,,,,,,,,,,,,,,,,,,,,,,
,,,,,,,,,,,X V Q F H G B L J M P D K C T S W R N Z,5f44eb04cd108b02a14d8a10,22,Mężczyzna,2022-06-11_09h31.01.030,task,2021.1.4,Win32,144.092219,6299f149e92ead563fba08ef,62a444aed9c4bf3a828ea8cc,,,,,,,,,,,,,,,,,,,,,,,,,,,,,,,,,,,,,,,,,,,,,,,,,,,,,,,,,,,,,,,,,,,,,,,,,,,,3,0,3,0,1,,,,,,,,,,,,,,,,,,,,,
,,,,,,,,,,,,5f44eb04cd108b02a14d8a10,22,Mężczyzna,2022-06-11_09h31.01.030,task,2021.1.4,Win32,144.092219,6299f149e92ead563fba08ef,62a444aed9c4bf3a828ea8cc,,,,,,,,,,,,,,,,,,,,,,,,,,,,,,,,,,,,,,,,,,,,,,,,,,,,,,,,,,,,,,,,,,,,,,,,,,,,,,,,,tzfb,"[""t"",""z"",""f"",""b""]",0,"[1.0982000000000767,1.3698000000000548,1.6338000000000648,1.8821000000000936,2.193800000000067]",1,TZFB,2,0,2,0,1,,,,,,,,,,
,,,,,,,,,,,,5f44eb04cd108b02a14d8a10,22,Mężczyzna,2022-06-11_09h31.01.030,task,2021.1.4,Win32,144.092219,6299f149e92ead563fba08ef,62a444aed9c4bf3a828ea8cc,,,,,,,,,,,,,0,,,,,,,,,,Task,25,(10/5) - 2,0,,,,,,,,,,,,,,,,,,,1,,,,,,,,,,,,,,,,,,,,,,,"[""0""]",1,0,0,0,24,1,[2.6054000000000315],,,,,,,,,,,,,,,,,,,,,,,,,,
,,,,,,,,,,,X V Q F H G B L J M P D K C T S W R N Z,5f44eb04cd108b02a14d8a10,22,Mężczyzna,2022-06-11_09h31.01.030,task,2021.1.4,Win32,144.092219,6299f149e92ead563fba08ef,62a444aed9c4bf3a828ea8cc,,,,,,,,,,,,,,,,,,,,,,,,,,,,,,,,,,,,,,,,,,,,,,,,,,,,,,,,,,,,,,,,,,,,,,,,,,,,0,0,0,0,1,,,,,,,,,,,,,,,,,,,,,
,,,,,,,,,,,,5f44eb04cd108b02a14d8a10,22,Mężczyzna,2022-06-11_09h31.01.030,task,2021.1.4,Win32,144.092219,6299f149e92ead563fba08ef,62a444aed9c4bf3a828ea8cc,,,,,,,,,,,,,6,,,,,,,,,,Task,5,(2x3) + 0,6,,,,,,,,,,,,,,,,,,,1,,,,,,,,,,,,,,,,,,,,,,,"[""6""]",1,0,0,0,4,1,[2.6399000000000683],,,,,,,,,,,,,,,,,,,,,,,,,,
,,,,,,,,,,,X V Q F H G B L J M P D K C T S W R N Z,5f44eb04cd108b02a14d8a10,22,Mężczyzna,2022-06-11_09h31.01.030,task,2021.1.4,Win32,144.092219,6299f149e92ead563fba08ef,62a444aed9c4bf3a828ea8cc,,,,,,,,,,,,,,,,,,,,,,,,,,,,,,,,,,,,,,,,,,,,,,,,,,,,,,,,,,,,,,,,,,,,,,,,,,,,1,0,1,0,1,,,,,,,,,,,,,,,,,,,,,
,,,,,,,,,,,,5f44eb04cd108b02a14d8a10,22,Mężczyzna,2022-06-11_09h31.01.030,task,2021.1.4,Win32,144.092219,6299f149e92ead563fba08ef,62a444aed9c4bf3a828ea8cc,,,,,,,,,,,,,0,,,,,,,,,,Task,8,(1x5) - 5,0,,,,,,,,,,,,,,,,,,,1,,,,,,,,,,,,,,,,,,,,,,,"[""0""]",1,0,0,0,7,1,[1.468400000000031],,,,,,,,,,,,,,,,,,,,,,,,,,
,,,,,,,,,,,X V Q F H G B L J M P D K C T S W R N Z,5f44eb04cd108b02a14d8a10,22,Mężczyzna,2022-06-11_09h31.01.030,task,2021.1.4,Win32,144.092219,6299f149e92ead563fba08ef,62a444aed9c4bf3a828ea8cc,,,,,,,,,,,,,,,,,,,,,,,,,,,,,,,,,,,,,,,,,,,,,,,,,,,,,,,,,,,,,,,,,,,,,,,,,,,,2,0,2,0,1,,,,,,,,,,,,,,,,,,,,,
,,,,,,,,,,,,5f44eb04cd108b02a14d8a10,22,Mężczyzna,2022-06-11_09h31.01.030,task,2021.1.4,Win32,144.092219,6299f149e92ead563fba08ef,62a444aed9c4bf3a828ea8cc,,,,,,,,,,,,,2,,,,,,,,,,Task,10,(2x5) - 8,2,,,,,,,,,,,,,,,,,,,1,,,,,,,,,,,,,,,,,,,,,,,"[""2""]",1,0,0,0,9,1,[1.5782999999998992],,,,,,,,,,,,,,,,,,,,,,,,,,
,,,,,,,,,,,X V Q F H G B L J M P D K C T S W R N Z,5f44eb04cd108b02a14d8a10,22,Mężczyzna,2022-06-11_09h31.01.030,task,2021.1.4,Win32,144.092219,6299f149e92ead563fba08ef,62a444aed9c4bf3a828ea8cc,,,,,,,,,,,,,,,,,,,,,,,,,,,,,,,,,,,,,,,,,,,,,,,,,,,,,,,,,,,,,,,,,,,,,,,,,,,,3,0,3,0,1,,,,,,,,,,,,,,,,,,,,,
,,,,,,,,,,,,5f44eb04cd108b02a14d8a10,22,Mężczyzna,2022-06-11_09h31.01.030,task,2021.1.4,Win32,144.092219,6299f149e92ead563fba08ef,62a444aed9c4bf3a828ea8cc,,,,,,,,,,,,,7,,,,,,,,,,Task,14,(2x2) + 3,7,,,,,,,,,,,,,,,,,,,1,,,,,,,,,,,,,,,,,,,,,,,"[""7""]",1,0,0,0,13,1,[2.667500000000018],,,,,,,,,,,,,,,,,,,,,,,,,,
,,,,,,,,,,,X V Q F H G B L J M P D K C T S W R N Z,5f44eb04cd108b02a14d8a10,22,Mężczyzna,2022-06-11_09h31.01.030,task,2021.1.4,Win32,144.092219,6299f149e92ead563fba08ef,62a444aed9c4bf3a828ea8cc,,,,,,,,,,,,,,,,,,,,,,,,,,,,,,,,,,,,,,,,,,,,,,,,,,,,,,,,,,,,,,,,,,,,,,,,,,,,4,0,4,0,1,,,,,,,,,,,,,,,,,,,,,
,,,,,,,,,,,,5f44eb04cd108b02a14d8a10,22,Mężczyzna,2022-06-11_09h31.01.030,task,2021.1.4,Win32,144.092219,6299f149e92ead563fba08ef,62a444aed9c4bf3a828ea8cc,,,,,,,,,,,,,,,,,,,,,,,,,,,,,,,,,,,,,,,,,,,,,,,,,,,,,,,,,,,,,,,,,,,,,,,,,,,,,,,,,hkdsh,"[""h"",""k"",""d"",""s"",""h""]",0,"[1.4957999999999174,1.8799999999999955,2.1998999999999,2.559799999999939,2.9197999999998956,4.879799999999932]",1,HKDSH,3,0,3,0,1,,,,,,,,,,
,,,,,,,,,,,,5f44eb04cd108b02a14d8a10,22,Mężczyzna,2022-06-11_09h31.01.030,task,2021.1.4,Win32,144.092219,6299f149e92ead563fba08ef,62a444aed9c4bf3a828ea8cc,,,,,,,,,,,,,6,,,,,,,,,,Task,30,(6/3) + 4 ,6,,,,,,,,,,,,,,,,,,,1,,,,,,,,,,,,,,,,,,,,,,,"[""6""]",1,0,0,0,29,1,[2.9665999999999713],,,,,,,,,,,,,,,,,,,,,,,,,,
,,,,,,,,,,,X V Q F H G B L J M P D K C T S W R N Z,5f44eb04cd108b02a14d8a10,22,Mężczyzna,2022-06-11_09h31.01.030,task,2021.1.4,Win32,144.092219,6299f149e92ead563fba08ef,62a444aed9c4bf3a828ea8cc,,,,,,,,,,,,,,,,,,,,,,,,,,,,,,,,,,,,,,,,,,,,,,,,,,,,,,,,,,,,,,,,,,,,,,,,,,,,0,0,0,0,1,,,,,,,,,,,,,,,,,,,,,
,,,,,,,,,,,,5f44eb04cd108b02a14d8a10,22,Mężczyzna,2022-06-11_09h31.01.030,task,2021.1.4,Win32,144.092219,6299f149e92ead563fba08ef,62a444aed9c4bf3a828ea8cc,,,,,,,,,,,,,3,,,,,,,,,,Task,35,(1x2) + 1,3,,,,,,,,,,,,,,,,,,,1,,,,,,,,,,,,,,,,,,,,,,,"[""3""]",1,0,0,0,34,1,[1.0545000000000186],,,,,,,,,,,,,,,,,,,,,,,,,,
,,,,,,,,,,,X V Q F H G B L J M P D K C T S W R N Z,5f44eb04cd108b02a14d8a10,22,Mężczyzna,2022-06-11_09h31.01.030,task,2021.1.4,Win32,144.092219,6299f149e92ead563fba08ef,62a444aed9c4bf3a828ea8cc,,,,,,,,,,,,,,,,,,,,,,,,,,,,,,,,,,,,,,,,,,,,,,,,,,,,,,,,,,,,,,,,,,,,,,,,,,,,1,0,1,0,1,,,,,,,,,,,,,,,,,,,,,
,,,,,,,,,,,,5f44eb04cd108b02a14d8a10,22,Mężczyzna,2022-06-11_09h31.01.030,task,2021.1.4,Win32,144.092219,6299f149e92ead563fba08ef,62a444aed9c4bf3a828ea8cc,,,,,,,,,,,,,2,,,,,,,,,,Task,2,(2x2) - 2,2,,,,,,,,,,,,,,,,,,,1,,,,,,,,,,,,,,,,,,,,,,,"[""2""]",1,0,0,0,1,1,[1.9230999999999767],,,,,,,,,,,,,,,,,,,,,,,,,,
,,,,,,,,,,,X V Q F H G B L J M P D K C T S W R N Z,5f44eb04cd108b02a14d8a10,22,Mężczyzna,2022-06-11_09h31.01.030,task,2021.1.4,Win32,144.092219,6299f149e92ead563fba08ef,62a444aed9c4bf3a828ea8cc,,,,,,,,,,,,,,,,,,,,,,,,,,,,,,,,,,,,,,,,,,,,,,,,,,,,,,,,,,,,,,,,,,,,,,,,,,,,2,0,2,0,1,,,,,,,,,,,,,,,,,,,,,
,,,,,,,,,,,,5f44eb04cd108b02a14d8a10,22,Mężczyzna,2022-06-11_09h31.01.030,task,2021.1.4,Win32,144.092219,6299f149e92ead563fba08ef,62a444aed9c4bf3a828ea8cc,,,,,,,,,,,,,8,,,,,,,,,,Task,32,(8/2) + 4,8,,,,,,,,,,,,,,,,,,,1,,,,,,,,,,,,,,,,,,,,,,,"[""8""]",1,0,0,0,31,1,[1.700900000000047],,,,,,,,,,,,,,,,,,,,,,,,,,
,,,,,,,,,,,X V Q F H G B L J M P D K C T S W R N Z,5f44eb04cd108b02a14d8a10,22,Mężczyzna,2022-06-11_09h31.01.030,task,2021.1.4,Win32,144.092219,6299f149e92ead563fba08ef,62a444aed9c4bf3a828ea8cc,,,,,,,,,,,,,,,,,,,,,,,,,,,,,,,,,,,,,,,,,,,,,,,,,,,,,,,,,,,,,,,,,,,,,,,,,,,,3,0,3,0,1,,,,,,,,,,,,,,,,,,,,,
,,,,,,,,,,,,5f44eb04cd108b02a14d8a10,22,Mężczyzna,2022-06-11_09h31.01.030,task,2021.1.4,Win32,144.092219,6299f149e92ead563fba08ef,62a444aed9c4bf3a828ea8cc,,,,,,,,,,,,,0,,,,,,,,,,Task,33,(1/1) - 1,0,,,,,,,,,,,,,,,,,,,1,,,,,,,,,,,,,,,,,,,,,,,"[""0""]",1,0,0,0,32,1,[1.0620999999999867],,,,,,,,,,,,,,,,,,,,,,,,,,
,,,,,,,,,,,X V Q F H G B L J M P D K C T S W R N Z,5f44eb04cd108b02a14d8a10,22,Mężczyzna,2022-06-11_09h31.01.030,task,2021.1.4,Win32,144.092219,6299f149e92ead563fba08ef,62a444aed9c4bf3a828ea8cc,,,,,,,,,,,,,,,,,,,,,,,,,,,,,,,,,,,,,,,,,,,,,,,,,,,,,,,,,,,,,,,,,,,,,,,,,,,,4,0,4,0,1,,,,,,,,,,,,,,,,,,,,,
,,,,,,,,,,,,5f44eb04cd108b02a14d8a10,22,Mężczyzna,2022-06-11_09h31.01.030,task,2021.1.4,Win32,144.092219,6299f149e92ead563fba08ef,62a444aed9c4bf3a828ea8cc,,,,,,,,,,,,,7,,,,,,,,,,Task,31,(4/2) + 5,7,,,,,,,,,,,,,,,,,,,1,,,,,,,,,,,,,,,,,,,,,,,"[""7""]",1,0,0,0,30,1,[3.3339999999999463],,,,,,,,,,,,,,,,,,,,,,,,,,
,,,,,,,,,,,X V Q F H G B L J M P D K C T S W R N Z,5f44eb04cd108b02a14d8a10,22,Mężczyzna,2022-06-11_09h31.01.030,task,2021.1.4,Win32,144.092219,6299f149e92ead563fba08ef,62a444aed9c4bf3a828ea8cc,,,,,,,,,,,,,,,,,,,,,,,,,,,,,,,,,,,,,,,,,,,,,,,,,,,,,,,,,,,,,,,,,,,,,,,,,,,,5,0,5,0,1,,,,,,,,,,,,,,,,,,,,,
,,,,,,,,,,,,5f44eb04cd108b02a14d8a10,22,Mężczyzna,2022-06-11_09h31.01.030,task,2021.1.4,Win32,144.092219,6299f149e92ead563fba08ef,62a444aed9c4bf3a828ea8cc,,,,,,,,,,,,,,,,,,,,,,,,,,,,,,,,,,,,,,,,,,,,,,,,,,,,,,,,,,,,,,,,,,,,,,,,,,,,,,,,,xqxzjg,"[""x"",""q"",""x"",""z"",""j"",""g""]",0,"[1.351099999999974,1.591099999999983,1.9190999999999576,3.0231999999999744,3.5751999999999384,3.9033000000000584,4.43119999999999]",1,XQXZJG,4,0,4,0,1,,,,,,,,,,
,,,,,,,,,,,,5f44eb04cd108b02a14d8a10,22,Mężczyzna,2022-06-11_09h31.01.030,task,2021.1.4,Win32,144.092219,6299f149e92ead563fba08ef,62a444aed9c4bf3a828ea8cc,,,,,,,,,,,,,0,,,,,,,,,,Task,9,(3x7) - 20,1,,,,,,,,,,,,,,,,,,,0,,,,,,,,,,,,,,,,,,,,,,,"[""0""]",0,0,0,0,8,1,[1.255899999999997],,,,,,,,,,,,,,,,,,,,,,,,,,
,,,,,,,,,,,,5f44eb04cd108b02a14d8a10,22,Mężczyzna,2022-06-11_09h31.01.030,task,2021.1.4,Win32,144.092219,6299f149e92ead563fba08ef,62a444aed9c4bf3a828ea8cc,,,,,,,,,,,,,9,,,,,,,,,,Task,16,(3x8) - 15,9,,,,,,,,,,,,,,,,,,,1,,,,,,,,,,,,,,,,,,,,,,,"[""9""]",1,0,1,1,15,1,[3.0065999999999917],,,,,,,,,,,,,,,,,,,,,,,,,,
,,,,,,,,,,,X V Q F H G B L J M P D K C T S W R N Z,5f44eb04cd108b02a14d8a10,22,Mężczyzna,2022-06-11_09h31.01.030,task,2021.1.4,Win32,144.092219,6299f149e92ead563fba08ef,62a444aed9c4bf3a828ea8cc,,,,,,,,,,,,,,,,,,,,,,,,,,,,,,,,,,,,,,,,,,,,,,,,,,,,,,,,,,,,,,,,,,,,,,,,,,,,0,0,0,0,1,,,,,,,,,,,,,,,,,,,,,
,,,,,,,,,,,,5f44eb04cd108b02a14d8a10,22,Mężczyzna,2022-06-11_09h31.01.030,task,2021.1.4,Win32,144.092219,6299f149e92ead563fba08ef,62a444aed9c4bf3a828ea8cc,,,,,,,,,,,,,0,,,,,,,,,,Task,8,(1x5) - 5,0,,,,,,,,,,,,,,,,,,,1,,,,,,,,,,,,,,,,,,,,,,,"[""0""]",1,0,0,0,7,1,[1.0233999999999241],,,,,,,,,,,,,,,,,,,,,,,,,,
,,,,,,,,,,,X V Q F H G B L J M P D K C T S W R N Z,5f44eb04cd108b02a14d8a10,22,Mężczyzna,2022-06-11_09h31.01.030,task,2021.1.4,Win32,144.092219,6299f149e92ead563fba08ef,62a444aed9c4bf3a828ea8cc,,,,,,,,,,,,,,,,,,,,,,,,,,,,,,,,,,,,,,,,,,,,,,,,,,,,,,,,,,,,,,,,,,,,,,,,,,,,1,0,1,0,1,,,,,,,,,,,,,,,,,,,,,
,,,,,,,,,,,,5f44eb04cd108b02a14d8a10,22,Mężczyzna,2022-06-11_09h31.01.030,task,2021.1.4,Win32,144.092219,6299f149e92ead563fba08ef,62a444aed9c4bf3a828ea8cc,,,,,,,,,,,,,0,,,,,,,,,,Task,25,(10/5) - 2,0,,,,,,,,,,,,,,,,,,,1,,,,,,,,,,,,,,,,,,,,,,,"[""0""]",1,0,0,0,24,1,[3.106700000000046],,,,,,,,,,,,,,,,,,,,,,,,,,
,,,,,,,,,,,X V Q F H G B L J M P D K C T S W R N Z,5f44eb04cd108b02a14d8a10,22,Mężczyzna,2022-06-11_09h31.01.030,task,2021.1.4,Win32,144.092219,6299f149e92ead563fba08ef,62a444aed9c4bf3a828ea8cc,,,,,,,,,,,,,,,,,,,,,,,,,,,,,,,,,,,,,,,,,,,,,,,,,,,,,,,,,,,,,,,,,,,,,,,,,,,,2,0,2,0,1,,,,,,,,,,,,,,,,,,,,,
,,,,,,,,,,,,5f44eb04cd108b02a14d8a10,22,Mężczyzna,2022-06-11_09h31.01.030,task,2021.1.4,Win32,144.092219,6299f149e92ead563fba08ef,62a444aed9c4bf3a828ea8cc,,,,,,,,,,,,,6,,,,,,,,,,Task,5,(2x3) + 0,6,,,,,,,,,,,,,,,,,,,1,,,,,,,,,,,,,,,,,,,,,,,"[""6""]",1,0,0,0,4,1,[1.7289999999999281],,,,,,,,,,,,,,,,,,,,,,,,,,
,,,,,,,,,,,X V Q F H G B L J M P D K C T S W R N Z,5f44eb04cd108b02a14d8a10,22,Mężczyzna,2022-06-11_09h31.01.030,task,2021.1.4,Win32,144.092219,6299f149e92ead563fba08ef,62a444aed9c4bf3a828ea8cc,,,,,,,,,,,,,,,,,,,,,,,,,,,,,,,,,,,,,,,,,,,,,,,,,,,,,,,,,,,,,,,,,,,,,,,,,,,,3,0,3,0,1,,,,,,,,,,,,,,,,,,,,,
,,,,,,,,,,,,5f44eb04cd108b02a14d8a10,22,Mężczyzna,2022-06-11_09h31.01.030,task,2021.1.4,Win32,144.092219,6299f149e92ead563fba08ef,62a444aed9c4bf3a828ea8cc,,,,,,,,,,,,,5,,,,,,,,,,Task,27,(3/3) + 2,3,,,,,,,,,,,,,,,,,,,0,,,,,,,,,,,,,,,,,,,,,,,"[""5""]",0,0,0,0,26,1,[1.2231999999999061],,,,,,,,,,,,,,,,,,,,,,,,,,
,,,,,,,,,,,,5f44eb04cd108b02a14d8a10,22,Mężczyzna,2022-06-11_09h31.01.030,task,2021.1.4,Win32,144.092219,6299f149e92ead563fba08ef,62a444aed9c4bf3a828ea8cc,,,,,,,,,,,,,,,,,,,,,,,Task,38,(4x6) - 17,7,,,,,,,,,,,,,,,,,,,0,,,,,,,,,,,,,,,,,,,,,,,,0,0,1,1,37,1,,,,,,,,,,,,,,,,,,,,,,,,,,,
,,,,,,,,,,,,5f44eb04cd108b02a14d8a10,22,Mężczyzna,2022-06-11_09h31.01.030,task,2021.1.4,Win32,144.092219,6299f149e92ead563fba08ef,62a444aed9c4bf3a828ea8cc,,,,,,,,,,,,,7,,,,,,,,,,Task,14,(2x2) + 3,7,,,,,,,,,,,,,,,,,,,1,,,,,,,,,,,,,,,,,,,,,,,"[""7""]",1,0,2,2,13,1,[2.549600000000055],,,,,,,,,,,,,,,,,,,,,,,,,,
,,,,,,,,,,,X V Q F H G B L J M P D K C T S W R N Z,5f44eb04cd108b02a14d8a10,22,Mężczyzna,2022-06-11_09h31.01.030,task,2021.1.4,Win32,144.092219,6299f149e92ead563fba08ef,62a444aed9c4bf3a828ea8cc,,,,,,,,,,,,,,,,,,,,,,,,,,,,,,,,,,,,,,,,,,,,,,,,,,,,,,,,,,,,,,,,,,,,,,,,,,,,4,0,4,0,1,,,,,,,,,,,,,,,,,,,,,
,,,,,,,,,,,,5f44eb04cd108b02a14d8a10,22,Mężczyzna,2022-06-11_09h31.01.030,task,2021.1.4,Win32,144.092219,6299f149e92ead563fba08ef,62a444aed9c4bf3a828ea8cc,,,,,,,,,,,,,0,,,,,,,,,,Task,9,(3x7) - 20,1,,,,,,,,,,,,,,,,,,,0,,,,,,,,,,,,,,,,,,,,,,,"[""0""]",0,0,0,0,8,1,[1.6550999999999476],,,,,,,,,,,,,,,,,,,,,,,,,,
,,,,,,,,,,,,5f44eb04cd108b02a14d8a10,22,Mężczyzna,2022-06-11_09h31.01.030,task,2021.1.4,Win32,144.092219,6299f149e92ead563fba08ef,62a444aed9c4bf3a828ea8cc,,,,,,,,,,,,,8,,,,,,,,,,Task,15,(3x7) - 13,8,,,,,,,,,,,,,,,,,,,1,,,,,,,,,,,,,,,,,,,,,,,"[""8""]",1,0,1,1,14,1,[2.7848000000000184],,,,,,,,,,,,,,,,,,,,,,,,,,
,,,,,,,,,,,X V Q F H G B L J M P D K C T S W R N Z,5f44eb04cd108b02a14d8a10,22,Mężczyzna,2022-06-11_09h31.01.030,task,2021.1.4,Win32,144.092219,6299f149e92ead563fba08ef,62a444aed9c4bf3a828ea8cc,,,,,,,,,,,,,,,,,,,,,,,,,,,,,,,,,,,,,,,,,,,,,,,,,,,,,,,,,,,,,,,,,,,,,,,,,,,,5,0,5,0,1,,,,,,,,,,,,,,,,,,,,,
,,,,,,,,,,,,5f44eb04cd108b02a14d8a10,22,Mężczyzna,2022-06-11_09h31.01.030,task,2021.1.4,Win32,144.092219,6299f149e92ead563fba08ef,62a444aed9c4bf3a828ea8cc,,,,,,,,,,,,,1,,,,,,,,,,Task,34,(9/3) - 2,1,,,,,,,,,,,,,,,,,,,1,,,,,,,,,,,,,,,,,,,,,,,"[""1""]",1,0,0,0,33,1,[3.4388000000001284],,,,,,,,,,,,,,,,,,,,,,,,,,
,,,,,,,,,,,X V Q F H G B L J M P D K C T S W R N Z,5f44eb04cd108b02a14d8a10,22,Mężczyzna,2022-06-11_09h31.01.030,task,2021.1.4,Win32,144.092219,6299f149e92ead563fba08ef,62a444aed9c4bf3a828ea8cc,,,,,,,,,,,,,,,,,,,,,,,,,,,,,,,,,,,,,,,,,,,,,,,,,,,,,,,,,,,,,,,,,,,,,,,,,,,,6,0,6,0,1,,,,,,,,,,,,,,,,,,,,,
,,,,,,,,,,,,5f44eb04cd108b02a14d8a10,22,Mężczyzna,2022-06-11_09h31.01.030,task,2021.1.4,Win32,144.092219,6299f149e92ead563fba08ef,62a444aed9c4bf3a828ea8cc,,,,,,,,,,,,,,,,,,,,,,,,,,,,,,,,,,,,,,,,,,,,,,,,,,,,,,,,,,,,,,,,,,,,,,,,,,,,,,,,,zmtzws,"[""z"",""m"",""t"",""z"",""w"",""s""]",0,"[1.3209999999999127,1.5529999999999973,1.8413000000000466,2.0808999999999287,4.064999999999941,4.440999999999917,5.088999999999942]",0,ZMTZWTS,5,0,5,0,1,,,,,,,,,,
,,,,,,,,,,,,5f44eb04cd108b02a14d8a10,22,Mężczyzna,2022-06-11_09h31.01.030,task,2021.1.4,Win32,144.092219,6299f149e92ead563fba08ef,62a444aed9c4bf3a828ea8cc,,,,,,,,,,,,,1,,,,,,,,,,Task,1,(12/6) - 1,1,,,,,,,,,,,,,,,,,,,1,,,,,,,,,,,,,,,,,,,,,,,"[""1""]",1,0,0,0,0,1,[2.85329999999999],,,,,,,,,,,,,,,,,,,,,,,,,,
,,,,,,,,,,,X V Q F H G B L J M P D K C T S W R N Z,5f44eb04cd108b02a14d8a10,22,Mężczyzna,2022-06-11_09h31.01.030,task,2021.1.4,Win32,144.092219,6299f149e92ead563fba08ef,62a444aed9c4bf3a828ea8cc,,,,,,,,,,,,,,,,,,,,,,,,,,,,,,,,,,,,,,,,,,,,,,,,,,,,,,,,,,,,,,,,,,,,,,,,,,,,0,0,0,0,1,,,,,,,,,,,,,,,,,,,,,
,,,,,,,,,,,,5f44eb04cd108b02a14d8a10,22,Mężczyzna,2022-06-11_09h31.01.030,task,2021.1.4,Win32,144.092219,6299f149e92ead563fba08ef,62a444aed9c4bf3a828ea8cc,,,,,,,,,,,,,0,,,,,,,,,,Task,8,(1x5) - 5,0,,,,,,,,,,,,,,,,,,,1,,,,,,,,,,,,,,,,,,,,,,,"[""0""]",1,0,0,0,7,1,[2.4131000000000995],,,,,,,,,,,,,,,,,,,,,,,,,,
,,,,,,,,,,,X V Q F H G B L J M P D K C T S W R N Z,5f44eb04cd108b02a14d8a10,22,Mężczyzna,2022-06-11_09h31.01.030,task,2021.1.4,Win32,144.092219,6299f149e92ead563fba08ef,62a444aed9c4bf3a828ea8cc,,,,,,,,,,,,,,,,,,,,,,,,,,,,,,,,,,,,,,,,,,,,,,,,,,,,,,,,,,,,,,,,,,,,,,,,,,,,1,0,1,0,1,,,,,,,,,,,,,,,,,,,,,
,,,,,,,,,,,,5f44eb04cd108b02a14d8a10,22,Mężczyzna,2022-06-11_09h31.01.030,task,2021.1.4,Win32,144.092219,6299f149e92ead563fba08ef,62a444aed9c4bf3a828ea8cc,,,,,,,,,,,,,2,,,,,,,,,,Task,26,(2x9) - 16,2,,,,,,,,,,,,,,,,,,,1,,,,,,,,,,,,,,,,,,,,,,,"[""2""]",1,0,0,0,25,1,[1.6176000000000386],,,,,,,,,,,,,,,,,,,,,,,,,,
,,,,,,,,,,,X V Q F H G B L J M P D K C T S W R N Z,5f44eb04cd108b02a14d8a10,22,Mężczyzna,2022-06-11_09h31.01.030,task,2021.1.4,Win32,144.092219,6299f149e92ead563fba08ef,62a444aed9c4bf3a828ea8cc,,,,,,,,,,,,,,,,,,,,,,,,,,,,,,,,,,,,,,,,,,,,,,,,,,,,,,,,,,,,,,,,,,,,,,,,,,,,2,0,2,0,1,,,,,,,,,,,,,,,,,,,,,
,,,,,,,,,,,,5f44eb04cd108b02a14d8a10,22,Mężczyzna,2022-06-11_09h31.01.030,task,2021.1.4,Win32,144.092219,6299f149e92ead563fba08ef,62a444aed9c4bf3a828ea8cc,,,,,,,,,,,,,8,,,,,,,,,,Task,16,(3x8) - 15,9,,,,,,,,,,,,,,,,,,,0,,,,,,,,,,,,,,,,,,,,,,,"[""8""]",0,0,0,0,15,1,[2.84699999999998],,,,,,,,,,,,,,,,,,,,,,,,,,
,,,,,,,,,,,,5f44eb04cd108b02a14d8a10,22,Mężczyzna,2022-06-11_09h31.01.030,task,2021.1.4,Win32,144.092219,6299f149e92ead563fba08ef,62a444aed9c4bf3a828ea8cc,,,,,,,,,,,,,8,,,,,,,,,,Task,39,(5x3) - 7,8,,,,,,,,,,,,,,,,,,,1,,,,,,,,,,,,,,,,,,,,,,,"[""8""]",1,0,1,1,38,1,[2.2845000000000937],,,,,,,,,,,,,,,,,,,,,,,,,,
,,,,,,,,,,,X V Q F H G B L J M P D K C T S W R N Z,5f44eb04cd108b02a14d8a10,22,Mężczyzna,2022-06-11_09h31.01.030,task,2021.1.4,Win32,144.092219,6299f149e92ead563fba08ef,62a444aed9c4bf3a828ea8cc,,,,,,,,,,,,,,,,,,,,,,,,,,,,,,,,,,,,,,,,,,,,,,,,,,,,,,,,,,,,,,,,,,,,,,,,,,,,3,0,3,0,1,,,,,,,,,,,,,,,,,,,,,
,,,,,,,,,,,,5f44eb04cd108b02a14d8a10,22,Mężczyzna,2022-06-11_09h31.01.030,task,2021.1.4,Win32,144.092219,6299f149e92ead563fba08ef,62a444aed9c4bf3a828ea8cc,,,,,,,,,,,,,8,,,,,,,,,,Task,32,(8/2) + 4,8,,,,,,,,,,,,,,,,,,,1,,,,,,,,,,,,,,,,,,,,,,,"[""8""]",1,0,0,0,31,1,[3.151299999999992],,,,,,,,,,,,,,,,,,,,,,,,,,
,,,,,,,,,,,X V Q F H G B L J M P D K C T S W R N Z,5f44eb04cd108b02a14d8a10,22,Mężczyzna,2022-06-11_09h31.01.030,task,2021.1.4,Win32,144.092219,6299f149e92ead563fba08ef,62a444aed9c4bf3a828ea8cc,,,,,,,,,,,,,,,,,,,,,,,,,,,,,,,,,,,,,,,,,,,,,,,,,,,,,,,,,,,,,,,,,,,,,,,,,,,,4,0,4,0,1,,,,,,,,,,,,,,,,,,,,,
,,,,,,,,,,,,5f44eb04cd108b02a14d8a10,22,Mężczyzna,2022-06-11_09h31.01.030,task,2021.1.4,Win32,144.092219,6299f149e92ead563fba08ef,62a444aed9c4bf3a828ea8cc,,,,,,,,,,,,,2,,,,,,,,,,Task,2,(2x2) - 2,2,,,,,,,,,,,,,,,,,,,1,,,,,,,,,,,,,,,,,,,,,,,"[""2""]",1,0,0,0,1,1,[1.9266999999999825],,,,,,,,,,,,,,,,,,,,,,,,,,
,,,,,,,,,,,X V Q F H G B L J M P D K C T S W R N Z,5f44eb04cd108b02a14d8a10,22,Mężczyzna,2022-06-11_09h31.01.030,task,2021.1.4,Win32,144.092219,6299f149e92ead563fba08ef,62a444aed9c4bf3a828ea8cc,,,,,,,,,,,,,,,,,,,,,,,,,,,,,,,,,,,,,,,,,,,,,,,,,,,,,,,,,,,,,,,,,,,,,,,,,,,,5,0,5,0,1,,,,,,,,,,,,,,,,,,,,,
,,,,,,,,,,,,5f44eb04cd108b02a14d8a10,22,Mężczyzna,2022-06-11_09h31.01.030,task,2021.1.4,Win32,144.092219,6299f149e92ead563fba08ef,62a444aed9c4bf3a828ea8cc,,,,,,,,,,,,,7,,,,,,,,,,Task,6,(12/2) + 1,7,,,,,,,,,,,,,,,,,,,1,,,,,,,,,,,,,,,,,,,,,,,"[""7""]",1,0,0,0,5,1,[2.201999999999998],,,,,,,,,,,,,,,,,,,,,,,,,,
,,,,,,,,,,,X V Q F H G B L J M P D K C T S W R N Z,5f44eb04cd108b02a14d8a10,22,Mężczyzna,2022-06-11_09h31.01.030,task,2021.1.4,Win32,144.092219,6299f149e92ead563fba08ef,62a444aed9c4bf3a828ea8cc,,,,,,,,,,,,,,,,,,,,,,,,,,,,,,,,,,,,,,,,,,,,,,,,,,,,,,,,,,,,,,,,,,,,,,,,,,,,6,0,6,0,1,,,,,,,,,,,,,,,,,,,,,
,,,,,,,,,,,,5f44eb04cd108b02a14d8a10,22,Mężczyzna,2022-06-11_09h31.01.030,task,2021.1.4,Win32,144.092219,6299f149e92ead563fba08ef,62a444aed9c4bf3a828ea8cc,,,,,,,,,,,,,,,,,,,,,,,,,,,,,,,,,,,,,,,,,,,,,,,,,,,,,,,,,,,,,,,,,,,,,,,,,,,,,,,,,ptvkfv,"[""p"",""t"",""v"",""k"",""f"",""v""]",0,"[0.903699999999958,0.9838000000000875,1.3677999999999884,1.7676000000000158,2.167699999999968,3.056100000000015,5.31269999999995]",0,PTKVKFK,6,0,6,0,1,,,,,,,,,,
,,,,,,,,,,,,5f44eb04cd108b02a14d8a10,22,Mężczyzna,2022-06-11_09h31.01.030,task,2021.1.4,Win32,144.092219,6299f149e92ead563fba08ef,62a444aed9c4bf3a828ea8cc,,,,,,,,,,,,,,,,,,,,,,,,,,,,,,,,,,,,,,,,,,,,,,,,,,,,,,,,,,,,,,,,,,,,,,,,,,,,,,,,,,,,,,,,,,,,,0,0,0,0,0,1,,,
,,,,,,,,,,,,5f44eb04cd108b02a14d8a10,22,Mężczyzna,2022-06-11_09h31.01.030,task,2021.1.4,Win32,144.092219,6299f149e92ead563fba08ef,62a444aed9c4bf3a828ea8cc,,,,,,,,,,,,,,,,,,,,,,,,,,,,,,,,,,,,,,,,,,,,,,,,,,,,,,,,,,,,,,,,,,,,,,,,,,,,,,,,,,,,,,,,,,,,"[""comma""]",0,1,0,1,0,1,[1.4932000000000016],,
,,,,,,,,,,,,5f44eb04cd108b02a14d8a10,22,Mężczyzna,2022-06-11_09h31.01.030,task,2021.1.4,Win32,144.092219,6299f149e92ead563fba08ef,62a444aed9c4bf3a828ea8cc,,,,,,,,,,,,,,,,,,,,,,,,,,,,,,,,,,,,,,,,,,,,,,,,,,,,,,,,,,,,,,,,,,,,,,,,,,,,,,,,,,,,,,,,,,,,"[""period""]",0,2,0,2,0,1,[1.0111000000000558],,
,,,,,,,,,,,,5f44eb04cd108b02a14d8a10,22,Mężczyzna,2022-06-11_09h31.01.030,task,2021.1.4,Win32,144.092219,6299f149e92ead563fba08ef,62a444aed9c4bf3a828ea8cc,,,,,,,,,,,,,,,,,,,,,,,,,,,,,,,,,,,,,,,,,,,,,,,,,,,,,,,,,,,,,,,,,,,,,,,,,,,,,,,,,,,,,,,,,,,,"[""period""]",0,3,0,3,0,1,[0.6428999999999405],,
,,,,,,,,,,,,5f44eb04cd108b02a14d8a10,22,Mężczyzna,2022-06-11_09h31.01.030,task,2021.1.4,Win32,144.092219,6299f149e92ead563fba08ef,62a444aed9c4bf3a828ea8cc,,,,,,,,,,,,,,,,,,,,,,,,,,,,,,,,,,,,,,,,,,,,,,,,,,,,,,,,,,,,,,,,,,,,,,,,,,,,,,,,,,,,,,,,,,,,"[""comma""]",0,4,0,4,0,1,[0.4110000000000582],,
,,,,,,,,,,,,5f44eb04cd108b02a14d8a10,22,Mężczyzna,2022-06-11_09h31.01.030,task,2021.1.4,Win32,144.092219,6299f149e92ead563fba08ef,62a444aed9c4bf3a828ea8cc,,,,,,,,,,,,,,,,,,,,,,,,,,,,,,,,,,,,,,,,,,,,,,,,,,,,,,,,,,,,,,,,,,,,,,,,,,,,,,,,,,,,,,,,,,,,"[""comma""]",0,5,0,5,0,1,[0.3390000000000555],,
,,,,,,,,,,,,5f44eb04cd108b02a14d8a10,22,Mężczyzna,2022-06-11_09h31.01.030,task,2021.1.4,Win32,144.092219,6299f149e92ead563fba08ef,62a444aed9c4bf3a828ea8cc,,,,,,,,,,,,,,,,,,,,,,,,,,,,,,,,,,,,,,,,,,,,,,,,,,,,,,,,,,,,,,,,,,,,,,,,,,,,,,,,,,,,,,,,,,,,"[""period""]",0,6,0,6,0,1,[0.23489999999992506],,
,,,,,,,,,,,,5f44eb04cd108b02a14d8a10,22,Mężczyzna,2022-06-11_09h31.01.030,task,2021.1.4,Win32,144.092219,6299f149e92ead563fba08ef,62a444aed9c4bf3a828ea8cc,,,,,,,,,,,,,,,,,,,,,,,,,,,,,,,,,,,,,,,,,,,,,,,,,,,,,,,,,,,,,,,,,,,,,,,,,,,,,,,,,,,,,,,,,,,,"[""period""]",0,7,0,7,0,1,[0.21889999999996235],,
,,,,,,,,,,,,5f44eb04cd108b02a14d8a10,22,Mężczyzna,2022-06-11_09h31.01.030,task,2021.1.4,Win32,144.092219,6299f149e92ead563fba08ef,62a444aed9c4bf3a828ea8cc,,,,,,,,,,,,,,,,,,,,,,,,,,,,,,,,,,,,,,,,,,,,,,,,,,,,,,,,,,,,,,,,,,,,,,,,,,,,,,,,,,,,,,,,,,,,"[""comma""]",0,8,0,8,0,1,[0.10500000000001819],,
,,,,,,,,,,,,5f44eb04cd108b02a14d8a10,22,Mężczyzna,2022-06-11_09h31.01.030,task,2021.1.4,Win32,144.092219,6299f149e92ead563fba08ef,62a444aed9c4bf3a828ea8cc,,,,,,,,,,,,,,,,,,,,,,,,,,,,,,,,,,,,,,,,,,,,,,,,,,,,,,,,,,,,,,,,,,,,,,,,,,,,,,,,,,,,,,,,,,,,"[""period""]",0,9,0,9,0,1,[0.21890000000007603],,
,,,,,,,,,,,,5f44eb04cd108b02a14d8a10,22,Mężczyzna,2022-06-11_09h31.01.030,task,2021.1.4,Win32,144.092219,6299f149e92ead563fba08ef,62a444aed9c4bf3a828ea8cc,,,,,,,,,,,,,,,,,,,,,,,,,,,,,,,,,,,,,,,,,,,,,,,,,,,,,,,,,,,,,,,,,,,,,,,,,,,,,,,,,,,,,,,,,,,,"[""period""]",0,10,0,10,0,1,[0.2440000000000282],,
,,,,,,,,,,,,5f44eb04cd108b02a14d8a10,22,Mężczyzna,2022-06-11_09h31.01.030,task,2021.1.4,Win32,144.092219,6299f149e92ead563fba08ef,62a444aed9c4bf3a828ea8cc,,,,,,,,,,,,,,,,,,,,,,,,,,,,,,,,,,,,,,,,,,,,,,,,,,,,,,,,,,,,,,,,,,,,,,,,,,,,,,,,,,,,,,,,,,,,"[""period""]",0,11,0,11,0,1,[0.27510000000006585],,
,,,,,,,,,,,,5f44eb04cd108b02a14d8a10,22,Mężczyzna,2022-06-11_09h31.01.030,task,2021.1.4,Win32,144.092219,6299f149e92ead563fba08ef,62a444aed9c4bf3a828ea8cc,,,,,,,,,,,,,,,,,,,,,,,,,,,,,,,,,,,,,,,,,,,,,,,,,,,,,,,,,,,,,,,,,,,,,,,,,,,,,,,,,,,,,,,,,,,,"[""comma""]",0,12,0,12,0,1,[0.14030000000002474],,
,,,,,,,,,,,,5f44eb04cd108b02a14d8a10,22,Mężczyzna,2022-06-11_09h31.01.030,task,2021.1.4,Win32,144.092219,6299f149e92ead563fba08ef,62a444aed9c4bf3a828ea8cc,,,,,,,,,,,,,,,,,,,,,,,,,,,,,,,,,,,,,,,,,,,,,,,,,,,,,,,,,,,,,,,,,,,,,,,,,,,,,,,,,,,,,,,,,,,,"[""comma""]",0,13,0,13,0,1,[0.2512000000001535],,
,,,,,,,,,,,,5f44eb04cd108b02a14d8a10,22,Mężczyzna,2022-06-11_09h31.01.030,task,2021.1.4,Win32,144.092219,6299f149e92ead563fba08ef,62a444aed9c4bf3a828ea8cc,,,,,,,,,,,,,,,,,,,,,,,,,,,,,,,,,,,,,,,,,,,,,,,,,,,,,,,,,,,,,,,,,,,,,,,,,,,,,,,,,,,,,,,,,,,,"[""comma""]",0,14,0,14,0,1,[0.29200000000003],,
,,,,,,,,,,,,5f44eb04cd108b02a14d8a10,22,Mężczyzna,2022-06-11_09h31.01.030,task,2021.1.4,Win32,144.092219,6299f149e92ead563fba08ef,62a444aed9c4bf3a828ea8cc,,,,,,,,,,,,,,,,,,,,,,,,,,,,,,,,,,,,,,,,,,,,,,,,,,,,,,,,,,,,,,,,,,,,,,,,,,,,,,,,,,,,,,,,,,,,"[""period""]",0,15,0,15,0,1,[0.6589000000000169],,
,,,,,,,,,,,,5f44eb04cd108b02a14d8a10,22,Mężczyzna,2022-06-11_09h31.01.030,task,2021.1.4,Win32,144.092219,6299f149e92ead563fba08ef,62a444aed9c4bf3a828ea8cc,,,,,,,,,,,,,,,,,,,,,,,,,,,,,,,,,,,,,,,,,,,,,,,,,,,,,,,,,,,,,,,,,,,,,,,,,,,,,,,,,,,,,,,,,,,,"[""comma""]",0,16,0,16,0,1,[0.3546000000000049],,
,,,,,,,,,,,,5f44eb04cd108b02a14d8a10,22,Mężczyzna,2022-06-11_09h31.01.030,task,2021.1.4,Win32,144.092219,6299f149e92ead563fba08ef,62a444aed9c4bf3a828ea8cc,,,,,,,,,,,,,,,,,,,,,,,,,,,,,,,,,,,,,,,,,,,,,,,,,,,,,,,,,,,,,,,,,,,,,,,,,,,,,,,,,,,,,,,,,,,,"[""period""]",0,17,0,17,0,1,[0.2035000000000764],,
,,,,,,,,,,,,5f44eb04cd108b02a14d8a10,22,Mężczyzna,2022-06-11_09h31.01.030,task,2021.1.4,Win32,144.092219,6299f149e92ead563fba08ef,62a444aed9c4bf3a828ea8cc,,,,,,,,,,,,,,,,,,,,,,,,,,,,,,,,,,,,,,,,,,,,,,,,,,,,,,,,,,,,,,,,,,,,,,,,,,,,,,,,,,,,,,,,,,,,"[""comma""]",0,18,0,18,0,1,[0.23530000000005202],,
,,,,,,,,,,,,5f44eb04cd108b02a14d8a10,22,Mężczyzna,2022-06-11_09h31.01.030,task,2021.1.4,Win32,144.092219,6299f149e92ead563fba08ef,62a444aed9c4bf3a828ea8cc,,,,,,,,,,,,,,,,,,,,,,,,,,,,,,,,,,,,,,,,,,,,,,,,,,,,,,,,,,,,,,,,,,,,,,,,,,,,,,,,,,,,,,,,,,,,"[""comma""]",0,19,0,19,0,1,[0.2031000000001768],,
,,,,,,,,,,,,5f44eb04cd108b02a14d8a10,22,Mężczyzna,2022-06-11_09h31.01.030,task,2021.1.4,Win32,144.092219,6299f149e92ead563fba08ef,62a444aed9c4bf3a828ea8cc,,,,,,,,,,,,,,,,,,,,,,,,,,,,,,,,,,,,,,,,,,,,,,,,,,,,,,,,,,,,,,,,,,,,,,,,,,,,,,,,,,,,,,,,,,,,"[""period""]",0,20,0,20,0,1,[0.2640999999999849],,
,,,,,,,,,,,,5f44eb04cd108b02a14d8a10,22,Mężczyzna,2022-06-11_09h31.01.030,task,2021.1.4,Win32,144.092219,6299f149e92ead563fba08ef,62a444aed9c4bf3a828ea8cc,,,,,,,,,,,,,,,,,,,,,,,,,,,,,,,,,,,,,,,,,,,,,,,,,,,,,,,,,,,,,,,,,,,,,,,,,,,,,,,,,,,,,,,,,,,,"[""comma""]",0,21,0,21,0,1,[0.2438000000000784],,
,,,,,,,,,,,,5f44eb04cd108b02a14d8a10,22,Mężczyzna,2022-06-11_09h31.01.030,task,2021.1.4,Win32,144.092219,6299f149e92ead563fba08ef,62a444aed9c4bf3a828ea8cc,,,,,,,,,,,,,,,,,,,,,,,,,,,,,,,,,,,,,,,,,,,,,,,,,,,,,,,,,,,,,,,,,,,,,,,,,,,,,,,,,,,,,,,,,,,,"[""period""]",0,22,0,22,0,1,[0.4014999999999418],,
,,,,,,,,,,,,5f44eb04cd108b02a14d8a10,22,Mężczyzna,2022-06-11_09h31.01.030,task,2021.1.4,Win32,144.092219,6299f149e92ead563fba08ef,62a444aed9c4bf3a828ea8cc,,,,,,,,,,,,,,,,,,,,,,,,,,,,,,,,,,,,,,,,,,,,,,,,,,,,,,,,,,,,,,,,,,,,,,,,,,,,,,,,,,,,,,,,,,,,"[""period""]",0,23,0,23,0,1,[0.24060000000008586],,
,,,,,,,,,,,,5f44eb04cd108b02a14d8a10,22,Mężczyzna,2022-06-11_09h31.01.030,task,2021.1.4,Win32,144.092219,6299f149e92ead563fba08ef,62a444aed9c4bf3a828ea8cc,,,,,,,,,,,,,,,,,,,,,,,,,,,,,,,,,,,,,,,,,,,,,,,,,,,,,,,,,,,,,,,,,,,,,,,,,,,,,,,,,,,,,,,,,,,,"[""period""]",0,24,0,24,0,1,[0.28929999999991196],,
,,,,,,,,,,,,5f44eb04cd108b02a14d8a10,22,Mężczyzna,2022-06-11_09h31.01.030,task,2021.1.4,Win32,144.092219,6299f149e92ead563fba08ef,62a444aed9c4bf3a828ea8cc,,,,,,,,,,,,,,,,,,,,,,,,,,,,,,,,,,,,,,,,,,,,,,,,,,,,,,,,,,,,,,,,,,,,,,,,,,,,,,,,,,,,,,,,,,,,"[""comma""]",0,25,0,25,0,1,[0.2726999999999862],,
,,,,,,,,,,,,5f44eb04cd108b02a14d8a10,22,Mężczyzna,2022-06-11_09h31.01.030,task,2021.1.4,Win32,144.092219,6299f149e92ead563fba08ef,62a444aed9c4bf3a828ea8cc,,,,,,,,,,,,,,,,,,,,,,,,,,,,,,,,,,,,,,,,,,,,,,,,,,,,,,,,,,,,,,,,,,,,,,,,,,,,,,,,,,,,,,,,,,,,"[""period""]",0,26,0,26,0,1,[0.24129999999991014],,
,,,,,,,,,,,,5f44eb04cd108b02a14d8a10,22,Mężczyzna,2022-06-11_09h31.01.030,task,2021.1.4,Win32,144.092219,6299f149e92ead563fba08ef,62a444aed9c4bf3a828ea8cc,,,,,,,,,,,,,,,,,,,,,,,,,,,,,,,,,,,,,,,,,,,,,,,,,,,,,,,,,,,,,,,,,,,,,,,,,,,,,,,,,,,,,,,,,,,,"[""comma""]",0,27,0,27,0,1,[0.1772000000000844],,
,,,,,,,,,,,,5f44eb04cd108b02a14d8a10,22,Mężczyzna,2022-06-11_09h31.01.030,task,2021.1.4,Win32,144.092219,6299f149e92ead563fba08ef,62a444aed9c4bf3a828ea8cc,,,,,,,,,,,,,,,,,,,,,,,,,,,,,,,,,,,,,,,,,,,,,,,,,,,,,,,,,,,,,,,,,,,,,,,,,,,,,,,,,,,,,,,,,,,,"[""period""]",0,28,0,28,0,1,[0.2498000000000502],,
,,,,,,,,,,,,5f44eb04cd108b02a14d8a10,22,Mężczyzna,2022-06-11_09h31.01.030,task,2021.1.4,Win32,144.092219,6299f149e92ead563fba08ef,62a444aed9c4bf3a828ea8cc,,,,,,,,,,,,,,,,,,,,,,,,,,,,,,,,,,,,,,,,,,,,,,,,,,,,,,,,,,,,,,,,,,,,,,,,,,,,,,,,,,,,,,,,,,,,"[""period""]",0,29,0,29,0,1,[0.21710000000007312],,
,,,,,,,,,,,,5f44eb04cd108b02a14d8a10,22,Mężczyzna,2022-06-11_09h31.01.030,task,2021.1.4,Win32,144.092219,6299f149e92ead563fba08ef,62a444aed9c4bf3a828ea8cc,,,,,,,,,,,,,,,,,,,,,,,,,,,,,,,,,,,,,,,,,,,,,,,,,,,,,,,,,,,,,,,,,,,,,,,,,,,,,,,,,,,,,,,,,,,,"[""comma""]",0,30,0,30,0,1,[0.24149999999997362],,
,,,,,,,,,,,,5f44eb04cd108b02a14d8a10,22,Mężczyzna,2022-06-11_09h31.01.030,task,2021.1.4,Win32,144.092219,6299f149e92ead563fba08ef,62a444aed9c4bf3a828ea8cc,,,,,,,,,,,,,,,,,,,,,,,,,,,,,,,,,,,,,,,,,,,,,,,,,,,,,,,,,,,,,,,,,,,,,,,,,,,,,,,,,,,,,,,,,,,,"[""comma""]",0,31,0,31,0,1,[0.27319999999997435],,
,,,,,,,,,,,,5f44eb04cd108b02a14d8a10,22,Mężczyzna,2022-06-11_09h31.01.030,task,2021.1.4,Win32,144.092219,6299f149e92ead563fba08ef,62a444aed9c4bf3a828ea8cc,,,,,,,,,,,,,,,,,,,,,,,,,,,,,,,,,,,,,,,,,,,,,,,,,,,,,,,,,,,,,,,,,,,,,,,,,,,,,,,,,,,,,,,,,,,,"[""period""]",0,32,0,32,0,1,[0.3453999999999269],,
,,,,,,,,,,,,5f44eb04cd108b02a14d8a10,22,Mężczyzna,2022-06-11_09h31.01.030,task,2021.1.4,Win32,144.092219,6299f149e92ead563fba08ef,62a444aed9c4bf3a828ea8cc,,,,,,,,,,,,,,,,,,,,,,,,,,,,,,,,,,,,,,,,,,,,,,,,,,,,,,,,,,,,,,,,,,,,,,,,,,,,,,,,,,,,,,,,,,,,"[""comma""]",0,33,0,33,0,1,[0.21709999999995944],,
,,,,,,,,,,,,5f44eb04cd108b02a14d8a10,22,Mężczyzna,2022-06-11_09h31.01.030,task,2021.1.4,Win32,144.092219,6299f149e92ead563fba08ef,62a444aed9c4bf3a828ea8cc,,,,,,,,,,,,,,,,,,,,,,,,,,,,,,,,,,,,,,,,,,,,,,,,,,,,,,,,,,,,,,,,,,,,,,,,,,,,,,,,,,,,,,,,,,,,"[""comma""]",0,34,0,34,0,1,[0.31359999999995125],,
,,,,,,,,,,,,5f44eb04cd108b02a14d8a10,22,Mężczyzna,2022-06-11_09h31.01.030,task,2021.1.4,Win32,144.092219,6299f149e92ead563fba08ef,62a444aed9c4bf3a828ea8cc,,,,,,,,,,,,,,,,,,,,,,,,,,,,,,,,,,,,,,,,,,,,,,,,,,,,,,,,,,,,,,,,,,,,,,,,,,,,,,,,,,,,,,,,,,,,"[""period""]",0,35,0,35,0,1,[0.15370000000007167],,
,,,,,,,,,,,,5f44eb04cd108b02a14d8a10,22,Mężczyzna,2022-06-11_09h31.01.030,task,2021.1.4,Win32,144.092219,6299f149e92ead563fba08ef,62a444aed9c4bf3a828ea8cc,,,,,,,,,,,,,,,,,,,,,,,,,,,,,,,,,,,,,,,,,,,,,,,,,,,,,,,,,,,,,,,,,,,,,,,,,,,,,,,,,,,,,,,,,,,,"[""comma""]",0,36,0,36,0,1,[0.23540000000002692],,
,,,,,,,,,,,,5f44eb04cd108b02a14d8a10,22,Mężczyzna,2022-06-11_09h31.01.030,task,2021.1.4,Win32,144.092219,6299f149e92ead563fba08ef,62a444aed9c4bf3a828ea8cc,,,,,,,,,,,,,,,,,,,,,,,,,,,,,,,,,,,,,,,,,,,,,,,,,,,,,,,,,,,,,,,,,,,,,,,,,,,,,,,,,,,,,,,,,,,,"[""period""]",0,37,0,37,0,1,[0.5232999999999493],,
,,,,,,,,,,,,5f44eb04cd108b02a14d8a10,22,Mężczyzna,2022-06-11_09h31.01.030,task,2021.1.4,Win32,144.092219,6299f149e92ead563fba08ef,62a444aed9c4bf3a828ea8cc,,,,,,,,,,,,,,,,,,,,,,,,,,,,,,,,,,,,,,,,,,,,,,,,,,,,,,,,,,,,,,,,,,,,,,,,,,,,,,,,,,,,,,,,,,,,"[""comma""]",0,38,0,38,0,1,[0.29160000000001673],,
,,,,,,,,,,,,5f44eb04cd108b02a14d8a10,22,Mężczyzna,2022-06-11_09h31.01.030,task,2021.1.4,Win32,144.092219,6299f149e92ead563fba08ef,62a444aed9c4bf3a828ea8cc,,,,,,,,,,,,,,,,,,,,,,,,,,,,,,,,,,,,,,,,,,,,,,,,,,,,,,,,,,,,,,,,,,,,,,,,,,,,,,,,,,,,,,,,,,,,"[""comma""]",0,39,0,39,0,1,[0.2515000000000782],,
,,,,,,,,,,,,5f44eb04cd108b02a14d8a10,22,Mężczyzna,2022-06-11_09h31.01.030,task,2021.1.4,Win32,144.092219,6299f149e92ead563fba08ef,62a444aed9c4bf3a828ea8cc,,,,,,,,,,,,,,,,,,,,,,,,,,,,,,,,,,,,,,,,,,,,,,,,,,,,,,,,,,,,,,,,,,,,,,,,,,,,,,,,,,,,,,,,,,,,"[""comma""]",0,40,0,40,0,1,[0.27120000000002165],,
,,,,,,,,,,,,5f44eb04cd108b02a14d8a10,22,Mężczyzna,2022-06-11_09h31.01.030,task,2021.1.4,Win32,144.092219,6299f149e92ead563fba08ef,62a444aed9c4bf3a828ea8cc,,,,,,,,,,,,,,,,,,,,,,,,,,,,,,,,,,,,,,,,,,,,,,,,,,,,,,,,,,,,,,,,,,,,,,,,,,,,,,,,,,,,,,,,,,,,"[""comma""]",0,41,0,41,0,1,[0.2516000000000531],,
,,,,,,,,,,,,5f44eb04cd108b02a14d8a10,22,Mężczyzna,2022-06-11_09h31.01.030,task,2021.1.4,Win32,144.092219,6299f149e92ead563fba08ef,62a444aed9c4bf3a828ea8cc,,,,,,,,,,,,,,,,,,,,,,,,,,,,,,,,,,,,,,,,,,,,,,,,,,,,,,,,,,,,,,,,,,,,,,,,,,,,,,,,,,,,,,,,,,,,"[""period""]",0,42,0,42,0,1,[0.2757000000000289],,
,,,,,,,,,,,,5f44eb04cd108b02a14d8a10,22,Mężczyzna,2022-06-11_09h31.01.030,task,2021.1.4,Win32,144.092219,6299f149e92ead563fba08ef,62a444aed9c4bf3a828ea8cc,,,,,,,,,,,,,,,,,,,,,,,,,,,,,,,,,,,,,,,,,,,,,,,,,,,,,,,,,,,,,,,,,,,,,,,,,,,,,,,,,,,,,,,,,,,,"[""comma""]",0,43,0,43,0,1,[0.27539999999987685],,
,,,,,,,,,,,,5f44eb04cd108b02a14d8a10,22,Mężczyzna,2022-06-11_09h31.01.030,task,2021.1.4,Win32,144.092219,6299f149e92ead563fba08ef,62a444aed9c4bf3a828ea8cc,,,,,,,,,,,,,,,,,,,,,,,,,,,,,,,,,,,,,,,,,,,,,,,,,,,,,,,,,,,,,,,,,,,,,,,,,,,,,,,,,,,,,,,,,,,,"[""period""]",0,44,0,44,0,1,[0.20339999999987413],,
,,,,,,,,,,,,5f44eb04cd108b02a14d8a10,22,Mężczyzna,2022-06-11_09h31.01.030,task,2021.1.4,Win32,144.092219,6299f149e92ead563fba08ef,62a444aed9c4bf3a828ea8cc,,,,,,,,,,,,,,,,,,,,,,,,,,,,,,,,,,,,,,,,,,,,,,,,,,,,,,,,,,,,,,,,,,,,,,,,,,,,,,,,,,,,,,,,,,,,"[""period""]",0,45,0,45,0,1,[0.027500000000031832],,
,,,,,,,,,,,,5f44eb04cd108b02a14d8a10,22,Mężczyzna,2022-06-11_09h31.01.030,task,2021.1.4,Win32,144.092219,6299f149e92ead563fba08ef,62a444aed9c4bf3a828ea8cc,,,,,,,,,,,,,,,,,,,,,,,,,,,,,,,,,,,,,,,,,,,,,,,,,,,,,,,,,,,,,,,,,,,,,,,,,,,,,,,,,,,,,,,,,,,,"[""period""]",0,46,0,46,0,1,[0.195699999999988],,
,,,,,,,,,,,,5f44eb04cd108b02a14d8a10,22,Mężczyzna,2022-06-11_09h31.01.030,task,2021.1.4,Win32,144.092219,6299f149e92ead563fba08ef,62a444aed9c4bf3a828ea8cc,,,,,,,,,,,,,,,,,,,,,,,,,,,,,,,,,,,,,,,,,,,,,,,,,,,,,,,,,,,,,,,,,,,,,,,,,,,,,,,,,,,,,,,,,,,,"[""period""]",0,47,0,47,0,1,[0.27110000000004675],,
,,,,,,,,,,,,5f44eb04cd108b02a14d8a10,22,Mężczyzna,2022-06-11_09h31.01.030,task,2021.1.4,Win32,144.092219,6299f149e92ead563fba08ef,62a444aed9c4bf3a828ea8cc,,,,,,,,,,,,,,,,,,,,,,,,,,,,,,,,,,,,,,,,,,,,,,,,,,,,,,,,,,,,,,,,,,,,,,,,,,,,,,,,,,,,,,,,,,,,"[""comma""]",0,48,0,48,0,1,[0.19479999999998654],,
,,,,,,,,,,,,5f44eb04cd108b02a14d8a10,22,Mężczyzna,2022-06-11_09h31.01.030,task,2021.1.4,Win32,144.092219,6299f149e92ead563fba08ef,62a444aed9c4bf3a828ea8cc,,,,,,,,,,,,,,,,,,,,,,,,,,,,,,,,,,,,,,,,,,,,,,,,,,,,,,,,,,,,,,,,,,,,,,,,,,,,,,,,,,,,,,,,,,,,"[""period""]",0,49,0,49,0,1,[0.25950000000000273],,
,,,,,,,,,,,,5f44eb04cd108b02a14d8a10,22,Mężczyzna,2022-06-11_09h31.01.030,task,2021.1.4,Win32,144.092219,6299f149e92ead563fba08ef,62a444aed9c4bf3a828ea8cc,,,,,,,,,,,,,,,,,,,,,,,,,,,,,,,,,,,,,,,,,,,,,,,,,,,,,,,,,,,,,,,,,,,,,,,,,,,,,,,,,,,,,,,,,,,,"[""comma""]",0,50,0,50,0,1,[0.25149999999996453],,
,,,,,,,,,,,,5f44eb04cd108b02a14d8a10,22,Mężczyzna,2022-06-11_09h31.01.030,task,2021.1.4,Win32,144.092219,6299f149e92ead563fba08ef,62a444aed9c4bf3a828ea8cc,,,,,,,,,,,,,,,,,,,,,,,,,,,,,,,,,,,,,,,,,,,,,,,,,,,,,,,,,,,,,,,,,,,,,,,,,,,,,,,,,,,,,,,,,,,,"[""period""]",0,51,0,51,0,1,[0.508199999999988],,
,,,,,,,,,,,,5f44eb04cd108b02a14d8a10,22,Mężczyzna,2022-06-11_09h31.01.030,task,2021.1.4,Win32,144.092219,6299f149e92ead563fba08ef,62a444aed9c4bf3a828ea8cc,,,,,,,,,,,,,,,,,,,,,,,,,,,,,,,,,,,,,,,,,,,,,,,,,,,,,,,,,,,,,,,,,,,,,,,,,,,,,,,,,,,,,,,,,,,,"[""comma""]",0,52,0,52,0,1,[0.28350000000000364],,
,,,,,,,,,,,,5f44eb04cd108b02a14d8a10,22,Mężczyzna,2022-06-11_09h31.01.030,task,2021.1.4,Win32,144.092219,6299f149e92ead563fba08ef,62a444aed9c4bf3a828ea8cc,,,,,,,,,,,,,,,,,,,,,,,,,,,,,,,,,,,,,,,,,,,,,,,,,,,,,,,,,,,,,,,,,,,,,,,,,,,,,,,,,,,,,,,,,,,,"[""period""]",0,53,0,53,0,1,[0.2675000000000409],,
,,,,,,,,,,,,5f44eb04cd108b02a14d8a10,22,Mężczyzna,2022-06-11_09h31.01.030,task,2021.1.4,Win32,144.092219,6299f149e92ead563fba08ef,62a444aed9c4bf3a828ea8cc,,,,,,,,,,,,,,,,,,,,,,,,,,,,,,,,,,,,,,,,,,,,,,,,,,,,,,,,,,,,,,,,,,,,,,,,,,,,,,,,,,,,,,,,,,,,"[""comma""]",0,54,0,54,0,1,[0.2296999999999798],,
,,,,,,,,,,,,5f44eb04cd108b02a14d8a10,22,Mężczyzna,2022-06-11_09h31.01.030,task,2021.1.4,Win32,144.092219,6299f149e92ead563fba08ef,62a444aed9c4bf3a828ea8cc,,,,,,,,,,,,,,,,,,,,,,,,,,,,,,,,,,,,,,,,,,,,,,,,,,,,,,,,,,,,,,,,,,,,,,,,,,,,,,,,,,,,,,,,,,,,"[""period""]",0,55,0,55,0,1,[0.17960000000016407],,
,,,,,,,,,,,,5f44eb04cd108b02a14d8a10,22,Mężczyzna,2022-06-11_09h31.01.030,task,2021.1.4,Win32,144.092219,6299f149e92ead563fba08ef,62a444aed9c4bf3a828ea8cc,,,,,,,,,,,,,,,,,,,,,,,,,,,,,,,,,,,,,,,,,,,,,,,,,,,,,,,,,,,,,,,,,,,,,,,,,,,,,,,,,,,,,,,,,,,,"[""period""]",0,56,0,56,0,1,[0.20370000000013988],,
,,,,,,,,,,,,5f44eb04cd108b02a14d8a10,22,Mężczyzna,2022-06-11_09h31.01.030,task,2021.1.4,Win32,144.092219,6299f149e92ead563fba08ef,62a444aed9c4bf3a828ea8cc,,,,,,,,,,,,,,,,,,,,,,,,,,,,,,,,,,,,,,,,,,,,,,,,,,,,,,,,,,,,,,,,,,,,,,,,,,,,,,,,,,,,,,,,,,,,"[""comma""]",0,57,0,57,0,1,[0.2517000000001417],,
,,,,,,,,,,,,5f44eb04cd108b02a14d8a10,22,Mężczyzna,2022-06-11_09h31.01.030,task,2021.1.4,Win32,144.092219,6299f149e92ead563fba08ef,62a444aed9c4bf3a828ea8cc,,,,,,,,,,,,,,,,,,,,,,,,,,,,,,,,,,,,,,,,,,,,,,,,,,,,,,,,,,,,,,,,,,,,,,,,,,,,,,,,,,,,,,,,,,,,"[""comma""]",0,58,0,58,0,1,[0.2115000000000009],,
,,,,,,,,,,,,5f44eb04cd108b02a14d8a10,22,Mężczyzna,2022-06-11_09h31.01.030,task,2021.1.4,Win32,144.092219,6299f149e92ead563fba08ef,62a444aed9c4bf3a828ea8cc,,,,,,,,,,,,,,,,,,,,,,,,,,,,,,,,,,,,,,,,,,,,,,,,,,,,,,,,,,,,,,,,,,,,,,,,,,,,,,,,,,,,,,,,,,,,"[""comma""]",0,59,0,59,0,1,[0.1554999999999609],,
,,,,,,,,,,,,5f44eb04cd108b02a14d8a10,22,Mężczyzna,2022-06-11_09h31.01.030,task,2021.1.4,Win32,144.092219,6299f149e92ead563fba08ef,62a444aed9c4bf3a828ea8cc,,,,,,,,,,,,,,,,,,,,,,,,,,,,,,,,,,,,,,,,,,,,,,,,,,,,,,,,,,,,,,,,,,,,,,,,,,,,,,,,,,,,,,,,,,,,"[""period""]",0,60,0,60,0,1,[0.22749999999996362],,
,,,,,,,,,,,,5f44eb04cd108b02a14d8a10,22,Mężczyzna,2022-06-11_09h31.01.030,task,2021.1.4,Win32,144.092219,6299f149e92ead563fba08ef,62a444aed9c4bf3a828ea8cc,,,,,,,,,,,,,,,,,,,,,,,,,,,,,,,,,,,,,,,,,,,,,,,,,,,,,,,,,,,,,,,,,,,,,,,,,,,,,,,,,,,,,,,,,,,,"[""comma""]",0,61,0,61,0,1,[0.2817999999999756],,
,,,,,,,,,,,,5f44eb04cd108b02a14d8a10,22,Mężczyzna,2022-06-11_09h31.01.030,task,2021.1.4,Win32,144.092219,6299f149e92ead563fba08ef,62a444aed9c4bf3a828ea8cc,,,,,,,,,,,,,,,,,,,,,,,,,,,,,,,,,,,,,,,,,,,,,,,,,,,,,,,,,,,,,,,,,,,,,,,,,,,,,,,,,,,,,,,,,,,,"[""period""]",0,62,0,62,0,1,[0.20180000000004839],,
,,,,,,,,,,,,5f44eb04cd108b02a14d8a10,22,Mężczyzna,2022-06-11_09h31.01.030,task,2021.1.4,Win32,144.092219,6299f149e92ead563fba08ef,62a444aed9c4bf3a828ea8cc,,,,,,,,,,,,,,,,,,,,,,,,,,,,,,,,,,,,,,,,,,,,,,,,,,,,,,,,,,,,,,,,,,,,,,,,,,,,,,,,,,,,,,,,,,,,"[""comma""]",0,63,0,63,0,1,[0.2579000000000633],,
,,,,,,,,,,,,5f44eb04cd108b02a14d8a10,22,Mężczyzna,2022-06-11_09h31.01.030,task,2021.1.4,Win32,144.092219,6299f149e92ead563fba08ef,62a444aed9c4bf3a828ea8cc,,,,,,,,,,,,,,,,,,,,,,,,,,,,,,,,,,,,,,,,,,,,,,,,,,,,,,,,,,,,,,,,,,,,,,,,,,,,,,,,,,,,,,,,,,,,"[""period""]",0,64,0,64,0,1,[0.2259999999999991],,
,,,,,,,,,,,,5f44eb04cd108b02a14d8a10,22,Mężczyzna,2022-06-11_09h31.01.030,task,2021.1.4,Win32,144.092219,6299f149e92ead563fba08ef,62a444aed9c4bf3a828ea8cc,,,,,,,,,,,,,,,,,,,,,,,,,,,,,,,,,,,,,,,,,,,,,,,,,,,,,,,,,,,,,,,,,,,,,,,,,,,,,,,,,,,,,,,,,,,,"[""comma""]",0,65,0,65,0,1,[0.2658000000000129],,
,,,,,,,,,,,,5f44eb04cd108b02a14d8a10,22,Mężczyzna,2022-06-11_09h31.01.030,task,2021.1.4,Win32,144.092219,6299f149e92ead563fba08ef,62a444aed9c4bf3a828ea8cc,,,,,,,,,,,,,,,,,,,,,,,,,,,,,,,,,,,,,,,,,,,,,,,,,,,,,,,,,,,,,,,,,,,,,,,,,,,,,,,,,,,,,,,,,,,,"[""comma""]",0,66,0,66,0,1,[0.049600000000054933],,
,,,,,,,,,,,,5f44eb04cd108b02a14d8a10,22,Mężczyzna,2022-06-11_09h31.01.030,task,2021.1.4,Win32,144.092219,6299f149e92ead563fba08ef,62a444aed9c4bf3a828ea8cc,,,,,,,,,,,,,,,,,,,,,,,,,,,,,,,,,,,,,,,,,,,,,,,,,,,,,,,,,,,,,,,,,,,,,,,,,,,,,,,,,,,,,,,,,,,,"[""period""]",0,67,0,67,0,1,[0.2258000000000493],,
,,,,,,,,,,,,5f44eb04cd108b02a14d8a10,22,Mężczyzna,2022-06-11_09h31.01.030,task,2021.1.4,Win32,144.092219,6299f149e92ead563fba08ef,62a444aed9c4bf3a828ea8cc,,,,,,,,,,,,,,,,,,,,,,,,,,,,,,,,,,,,,,,,,,,,,,,,,,,,,,,,,,,,,,,,,,,,,,,,,,,,,,,,,,,,,,,,,,,,"[""comma""]",0,68,0,68,0,1,[0.2577999999999747],,
,,,,,,,,,,,,5f44eb04cd108b02a14d8a10,22,Mężczyzna,2022-06-11_09h31.01.030,task,2021.1.4,Win32,144.092219,6299f149e92ead563fba08ef,62a444aed9c4bf3a828ea8cc,,,,,,,,,,,,,,,,,,,,,,,,,,,,,,,,,,,,,,,,,,,,,,,,,,,,,,,,,,,,,,,,,,,,,,,,,,,,,,,,,,,,,,,,,,,,"[""comma""]",0,69,0,69,0,1,[0.28139999999996235],,
,,,,,,,,,,,,5f44eb04cd108b02a14d8a10,22,Mężczyzna,2022-06-11_09h31.01.030,task,2021.1.4,Win32,144.092219,6299f149e92ead563fba08ef,62a444aed9c4bf3a828ea8cc,,,,,,,,,,,,,,,,,,,,,,,,,,,,,,,,,,,,,,,,,,,,,,,,,,,,,,,,,,,,,,,,,,,,,,,,,,,,,,,,,,,,,,,,,,,,"[""period""]",0,70,0,70,0,1,[0.24940000000003693],,
,,,,,,,,,,,,5f44eb04cd108b02a14d8a10,22,Mężczyzna,2022-06-11_09h31.01.030,task,2021.1.4,Win32,144.092219,6299f149e92ead563fba08ef,62a444aed9c4bf3a828ea8cc,,,,,,,,,,,,,,,,,,,,,,,,,,,,,,,,,,,,,,,,,,,,,,,,,,,,,,,,,,,,,,,,,,,,,,,,,,,,,,,,,,,,,,,,,,,,"[""comma"",""period""]",0,71,0,71,0,1,"[0.23369999999988522,1.8978000000000748]",,
,,,,,,,,,,,,5f44eb04cd108b02a14d8a10,22,Mężczyzna,2022-06-11_09h31.01.030,task,2021.1.4,Win32,144.092219,6299f149e92ead563fba08ef,62a444aed9c4bf3a828ea8cc,,,,,,,,,,,,,,,,,,,,,,,,,,,,,,,,,,,,,,,,,,,,,,,,,,,,,,,,,,,,,,,,,,,,,,,,,,,,,,,,,,,,,,,,,,,,"[""period""]",0,72,0,72,0,1,[1.9057999999998856],,
,,,,,,,,,,,,5f44eb04cd108b02a14d8a10,22,Mężczyzna,2022-06-11_09h31.01.030,task,2021.1.4,Win32,144.092219,6299f149e92ead563fba08ef,62a444aed9c4bf3a828ea8cc,,,,,,,,,,,,,,,,,,,,,,,,,,,,,,,,,,,,,,,,,,,,,,,,,,,,,,,,,,,,,,,,,,,,,,,,,,,,,,,,,,,,,,,,,,,,,0,73,0,73,0,1,,,
,,,,,,,,,,,,5f44eb04cd108b02a14d8a10,22,Mężczyzna,2022-06-11_09h31.01.030,task,2021.1.4,Win32,144.092219,6299f149e92ead563fba08ef,62a444aed9c4bf3a828ea8cc,,,,,,,,,,,,,,,,,,,,,,,,,,,,,,,,,,,,,,,,,,,,,,,,,,,,,,,,,,,,,,,,,,,,,,,,,,,,,,,,,,,,,,,,,,,,"[""period""]",0,74,0,74,0,1,[0.5220999999999094],,
,,,,,,,,,,,,5f44eb04cd108b02a14d8a10,22,Mężczyzna,2022-06-11_09h31.01.030,task,2021.1.4,Win32,144.092219,6299f149e92ead563fba08ef,62a444aed9c4bf3a828ea8cc,,,,,,,,,,,,,,,,,,,,,,,,,,,,,,,,,,,,,,,,,,,,,,,,,,,,,,,,,,,,,,,,,,,,,,,,,,,,,,,,,,,,,,,,,,,,"[""comma""]",0,75,0,75,0,1,[0.2985999999999649],,
,,,,,,,,,,,,5f44eb04cd108b02a14d8a10,22,Mężczyzna,2022-06-11_09h31.01.030,task,2021.1.4,Win32,144.092219,6299f149e92ead563fba08ef,62a444aed9c4bf3a828ea8cc,,,,,,,,,,,,,,,,,,,,,,,,,,,,,,,,,,,,,,,,,,,,,,,,,,,,,,,,,,,,,,,,,,,,,,,,,,,,,,,,,,,,,,,,,,,,"[""comma""]",0,76,0,76,0,1,[0.2701999999999316],,
,,,,,,,,,,,,5f44eb04cd108b02a14d8a10,22,Mężczyzna,2022-06-11_09h31.01.030,task,2021.1.4,Win32,144.092219,6299f149e92ead563fba08ef,62a444aed9c4bf3a828ea8cc,,,,,,,,,,,,,,,,,,,,,,,,,,,,,,,,,,,,,,,,,,,,,,,,,,,,,,,,,,,,,,,,,,,,,,,,,,,,,,,,,,,,,,,,,,,,"[""period""]",0,77,0,77,0,1,[0.2196999999999889],,
,,,,,,,,,,,,5f44eb04cd108b02a14d8a10,22,Mężczyzna,2022-06-11_09h31.01.030,task,2021.1.4,Win32,144.092219,6299f149e92ead563fba08ef,62a444aed9c4bf3a828ea8cc,,,,,,,,,,,,,,,,,,,,,,,,,,,,,,,,,,,,,,,,,,,,,,,,,,,,,,,,,,,,,,,,,,,,,,,,,,,,,,,,,,,,,,,,,,,,"[""comma""]",0,78,0,78,0,1,[0.27110000000004675],,
,,,,,,,,,,,,5f44eb04cd108b02a14d8a10,22,Mężczyzna,2022-06-11_09h31.01.030,task,2021.1.4,Win32,144.092219,6299f149e92ead563fba08ef,62a444aed9c4bf3a828ea8cc,,,,,,,,,,,,,,,,,,,,,,,,,,,,,,,,,,,,,,,,,,,,,,,,,,,,,,,,,,,,,,,,,,,,,,,,,,,,,,,,,,,,,,,,,,,,"[""period""]",0,79,0,79,0,1,[0.259900000000016],,
,,,,,,,,,,,,5f44eb04cd108b02a14d8a10,22,Mężczyzna,2022-06-11_09h31.01.030,task,2021.1.4,Win32,144.092219,6299f149e92ead563fba08ef,62a444aed9c4bf3a828ea8cc,,,,,,,,,,,,,,,,,,,,,,,,,,,,,,,,,,,,,,,,,,,,,,,,,,,,,,,,,,,,,,,,,,,,,,,,,,,,,,,,,,,,,,,,,,,,"[""comma""]",0,80,0,80,0,1,[0.22030000000006567],,
,,,,,,,,,,,,5f44eb04cd108b02a14d8a10,22,Mężczyzna,2022-06-11_09h31.01.030,task,2021.1.4,Win32,144.092219,6299f149e92ead563fba08ef,62a444aed9c4bf3a828ea8cc,,,,,,,,,,,,,,,,,,,,,,,,,,,,,,,,,,,,,,,,,,,,,,,,,,,,,,,,,,,,,,,,,,,,,,,,,,,,,,,,,,,,,,,,,,,,"[""period""]",0,81,0,81,0,1,[0.315900000000056],,
,,,,,,,,,,,,5f44eb04cd108b02a14d8a10,22,Mężczyzna,2022-06-11_09h31.01.030,task,2021.1.4,Win32,144.092219,6299f149e92ead563fba08ef,62a444aed9c4bf3a828ea8cc,,,,,,,,,,,,,,,,,,,,,,,,,,,,,,,,,,,,,,,,,,,,,,,,,,,,,,,,,,,,,,,,,,,,,,,,,,,,,,,,,,,,,,,,,,,,"[""comma""]",0,82,0,82,0,1,[0.2641999999999598],,
,,,,,,,,,,,,5f44eb04cd108b02a14d8a10,22,Mężczyzna,2022-06-11_09h31.01.030,task,2021.1.4,Win32,144.092219,6299f149e92ead563fba08ef,62a444aed9c4bf3a828ea8cc,,,,,,,,,,,,,,,,,,,,,,,,,,,,,,,,,,,,,,,,,,,,,,,,,,,,,,,,,,,,,,,,,,,,,,,,,,,,,,,,,,,,,,,,,,,,"[""comma""]",0,83,0,83,0,1,[0.27150000000006],,
