key_resp_15.keys,key_resp_15.rt,key_resp_16.keys,key_resp_16.rt,key_resp_4.keys,key_resp_4.rt,next_letter.thisRepN,next_letter.thisTrialN,next_letter.thisN,next_letter.thisIndex,next_letter.ran,letter,participant,Wiek*,Płeć,date,expName,psychopyVersion,OS,frameRate,study_id,session,simple_recall,key_resp_5.keys,key_resp_5.rt,simple_recall_corr,simple_recall_corrkeys,next_level.thisRepN,next_level.thisTrialN,next_level.thisN,next_level.thisIndex,next_level.ran,key_resp_2.keys,key_resp_2.rt,digit_answer,key_resp.keys,key_resp.corr,key_resp.rt,RT_list,next_equation.thisRepN,next_equation.thisTrialN,next_equation.thisN,next_equation.thisIndex,next_equation.ran,Task,Trial,Problem,Operation_answer,processing_score,sumRT,meanRT,sumdiff,sd,RT,key_resp_3.keys,key_resp_3.rt,repeat_practice.thisRepN,repeat_practice.thisTrialN,repeat_practice.thisN,repeat_practice.thisIndex,repeat_practice.ran,key_resp_6.keys,key_resp_6.rt,key_resp_11.keys,key_resp_11.corr,key_resp_11.rt,operation_correct,repeat_if_wrong_prac.thisRepN,repeat_if_wrong_prac.thisTrialN,repeat_if_wrong_prac.thisN,repeat_if_wrong_prac.thisIndex,repeat_if_wrong_prac.ran,span_size_prac.thisRepN,span_size_prac.thisTrialN,span_size_prac.thisN,span_size_prac.thisIndex,span_size_prac.ran,complex_recall_practice,key_resp_9.keys,key_resp_9.corr,key_resp_9.rt,complex_prac_corr,span_recall_prac.thisRepN,span_recall_prac.thisTrialN,span_recall_prac.thisN,span_recall_prac.thisIndex,span_recall_prac.ran,key_resp_10.keys,key_resp_10.rt,key_resp_7.keys,key_resp_7.corr,key_resp_7.rt,repeat_if_wrong.thisRepN,repeat_if_wrong.thisTrialN,repeat_if_wrong.thisN,repeat_if_wrong.thisIndex,repeat_if_wrong.ran,span_size.thisRepN,span_size.thisTrialN,span_size.thisN,span_size.thisIndex,span_size.ran,complex_recall,key_resp_8.keys,key_resp_8.corr,key_resp_8.rt,complex_recall_corr,complex_recall_corrkeys,span_recall.thisRepN,span_recall.thisTrialN,span_recall.thisN,span_recall.thisIndex,span_recall.ran,key_resp_13.keys,key_resp_13.corr,key_resp_13.rt,random_loop.thisRepN,random_loop.thisTrialN,random_loop.thisN,random_loop.thisIndex,random_loop.ran,key_resp_12.keys,key_resp_12.rt
space,19.2804,space,45.1388,space,7.16,0,0,0,0,1,X V Q F H G B L J M P D K C T S W R N Z,5f46a4f25a01ee0369ccb14e,19,Mężczyzna,2022-06-25_15h32.01.931,task,2021.1.4,Win32,60.1612321,6299f149e92ead563fba08ef,62b70e474ce2e7f3be1ffd0c,,,,,,,,,,,,,,,,,,,,,,,,,,,,,,,,,,,,,,,,,,,,,,,,,,,,,,,,,,,,,,,,,,,,,,,,,,,,,,,,,,,,,,,,,,,,,,,,,,,,,
,,,,,,1,0,1,0,1,X V Q F H G B L J M P D K C T S W R N Z,5f46a4f25a01ee0369ccb14e,19,Mężczyzna,2022-06-25_15h32.01.931,task,2021.1.4,Win32,60.1612321,6299f149e92ead563fba08ef,62b70e474ce2e7f3be1ffd0c,,,,,,,,,,,,,,,,,,,,,,,,,,,,,,,,,,,,,,,,,,,,,,,,,,,,,,,,,,,,,,,,,,,,,,,,,,,,,,,,,,,,,,,,,,,,,,,,,,,,,
,,,,,,,,,,,,5f46a4f25a01ee0369ccb14e,19,Mężczyzna,2022-06-25_15h32.01.931,task,2021.1.4,Win32,60.1612321,6299f149e92ead563fba08ef,62b70e474ce2e7f3be1ffd0c,zn,"[""z"",""n""]","[1.4201000000238508,1.600799999952315,3.052299999952325]",1,ZN,0,0,0,0,1,,,,,,,,,,,,,,,,,,,,,,,,,,,,,,,,,,,,,,,,,,,,,,,,,,,,,,,,,,,,,,,,,,,,,,,,,,,,,,,,,,,,,,,,,,,
,,,,,,0,0,0,0,1,X V Q F H G B L J M P D K C T S W R N Z,5f46a4f25a01ee0369ccb14e,19,Mężczyzna,2022-06-25_15h32.01.931,task,2021.1.4,Win32,60.1612321,6299f149e92ead563fba08ef,62b70e474ce2e7f3be1ffd0c,,,,,,,,,,,,,,,,,,,,,,,,,,,,,,,,,,,,,,,,,,,,,,,,,,,,,,,,,,,,,,,,,,,,,,,,,,,,,,,,,,,,,,,,,,,,,,,,,,,,,
,,,,,,1,0,1,0,1,X V Q F H G B L J M P D K C T S W R N Z,5f46a4f25a01ee0369ccb14e,19,Mężczyzna,2022-06-25_15h32.01.931,task,2021.1.4,Win32,60.1612321,6299f149e92ead563fba08ef,62b70e474ce2e7f3be1ffd0c,,,,,,,,,,,,,,,,,,,,,,,,,,,,,,,,,,,,,,,,,,,,,,,,,,,,,,,,,,,,,,,,,,,,,,,,,,,,,,,,,,,,,,,,,,,,,,,,,,,,,
,,,,,,,,,,,,5f46a4f25a01ee0369ccb14e,19,Mężczyzna,2022-06-25_15h32.01.931,task,2021.1.4,Win32,60.1612321,6299f149e92ead563fba08ef,62b70e474ce2e7f3be1ffd0c,tl,"[""t"",""l""]","[0.9857000000476859,1.1177000000476909,1.3449999999999989]",1,TL,1,0,1,0,1,,,,,,,,,,,,,,,,,,,,,,,,,,,,,,,,,,,,,,,,,,,,,,,,,,,,,,,,,,,,,,,,,,,,,,,,,,,,,,,,,,,,,,,,,,,
,,,,,,0,0,0,0,1,X V Q F H G B L J M P D K C T S W R N Z,5f46a4f25a01ee0369ccb14e,19,Mężczyzna,2022-06-25_15h32.01.931,task,2021.1.4,Win32,60.1612321,6299f149e92ead563fba08ef,62b70e474ce2e7f3be1ffd0c,,,,,,,,,,,,,,,,,,,,,,,,,,,,,,,,,,,,,,,,,,,,,,,,,,,,,,,,,,,,,,,,,,,,,,,,,,,,,,,,,,,,,,,,,,,,,,,,,,,,,
,,,,,,1,0,1,0,1,X V Q F H G B L J M P D K C T S W R N Z,5f46a4f25a01ee0369ccb14e,19,Mężczyzna,2022-06-25_15h32.01.931,task,2021.1.4,Win32,60.1612321,6299f149e92ead563fba08ef,62b70e474ce2e7f3be1ffd0c,,,,,,,,,,,,,,,,,,,,,,,,,,,,,,,,,,,,,,,,,,,,,,,,,,,,,,,,,,,,,,,,,,,,,,,,,,,,,,,,,,,,,,,,,,,,,,,,,,,,,
,,,,,,2,0,2,0,1,X V Q F H G B L J M P D K C T S W R N Z,5f46a4f25a01ee0369ccb14e,19,Mężczyzna,2022-06-25_15h32.01.931,task,2021.1.4,Win32,60.1612321,6299f149e92ead563fba08ef,62b70e474ce2e7f3be1ffd0c,,,,,,,,,,,,,,,,,,,,,,,,,,,,,,,,,,,,,,,,,,,,,,,,,,,,,,,,,,,,,,,,,,,,,,,,,,,,,,,,,,,,,,,,,,,,,,,,,,,,,
,,,,,,,,,,,,5f46a4f25a01ee0369ccb14e,19,Mężczyzna,2022-06-25_15h32.01.931,task,2021.1.4,Win32,60.1612321,6299f149e92ead563fba08ef,62b70e474ce2e7f3be1ffd0c,nqz,"[""n"",""q"",""z""]","[0.36669999992847124,0.5165000000000077,0.7836999999284728,1.1426999999284817]",1,NQZ,2,0,2,0,1,,,,,,,,,,,,,,,,,,,,,,,,,,,,,,,,,,,,,,,,,,,,,,,,,,,,,,,,,,,,,,,,,,,,,,,,,,,,,,,,,,,,,,,,,,,
,,,,,,0,0,0,0,1,X V Q F H G B L J M P D K C T S W R N Z,5f46a4f25a01ee0369ccb14e,19,Mężczyzna,2022-06-25_15h32.01.931,task,2021.1.4,Win32,60.1612321,6299f149e92ead563fba08ef,62b70e474ce2e7f3be1ffd0c,,,,,,,,,,,,,,,,,,,,,,,,,,,,,,,,,,,,,,,,,,,,,,,,,,,,,,,,,,,,,,,,,,,,,,,,,,,,,,,,,,,,,,,,,,,,,,,,,,,,,
,,,,,,1,0,1,0,1,X V Q F H G B L J M P D K C T S W R N Z,5f46a4f25a01ee0369ccb14e,19,Mężczyzna,2022-06-25_15h32.01.931,task,2021.1.4,Win32,60.1612321,6299f149e92ead563fba08ef,62b70e474ce2e7f3be1ffd0c,,,,,,,,,,,,,,,,,,,,,,,,,,,,,,,,,,,,,,,,,,,,,,,,,,,,,,,,,,,,,,,,,,,,,,,,,,,,,,,,,,,,,,,,,,,,,,,,,,,,,
,,,,,,2,0,2,0,1,X V Q F H G B L J M P D K C T S W R N Z,5f46a4f25a01ee0369ccb14e,19,Mężczyzna,2022-06-25_15h32.01.931,task,2021.1.4,Win32,60.1612321,6299f149e92ead563fba08ef,62b70e474ce2e7f3be1ffd0c,,,,,,,,,,,,,,,,,,,,,,,,,,,,,,,,,,,,,,,,,,,,,,,,,,,,,,,,,,,,,,,,,,,,,,,,,,,,,,,,,,,,,,,,,,,,,,,,,,,,,
,,,,,,,,,,,,5f46a4f25a01ee0369ccb14e,19,Mężczyzna,2022-06-25_15h32.01.931,task,2021.1.4,Win32,60.1612321,6299f149e92ead563fba08ef,62b70e474ce2e7f3be1ffd0c,msm,"[""m"",""s"",""m""]","[0.6048000000715348,0.70150000000001,0.7588000000715311,1.034000000000006]",1,MSM,3,0,3,0,1,,,,,,,,,,,,,,,,,,,,,,,,,,,,,,,,,,,,,,,,,,,,,,,,,,,,,,,,,,,,,,,,,,,,,,,,,,,,,,,,,,,,,,,,,,,
,,,,,,0,0,0,0,1,X V Q F H G B L J M P D K C T S W R N Z,5f46a4f25a01ee0369ccb14e,19,Mężczyzna,2022-06-25_15h32.01.931,task,2021.1.4,Win32,60.1612321,6299f149e92ead563fba08ef,62b70e474ce2e7f3be1ffd0c,,,,,,,,,,,,,,,,,,,,,,,,,,,,,,,,,,,,,,,,,,,,,,,,,,,,,,,,,,,,,,,,,,,,,,,,,,,,,,,,,,,,,,,,,,,,,,,,,,,,,
,,,,,,1,0,1,0,1,X V Q F H G B L J M P D K C T S W R N Z,5f46a4f25a01ee0369ccb14e,19,Mężczyzna,2022-06-25_15h32.01.931,task,2021.1.4,Win32,60.1612321,6299f149e92ead563fba08ef,62b70e474ce2e7f3be1ffd0c,,,,,,,,,,,,,,,,,,,,,,,,,,,,,,,,,,,,,,,,,,,,,,,,,,,,,,,,,,,,,,,,,,,,,,,,,,,,,,,,,,,,,,,,,,,,,,,,,,,,,
,,,,,,2,0,2,0,1,X V Q F H G B L J M P D K C T S W R N Z,5f46a4f25a01ee0369ccb14e,19,Mężczyzna,2022-06-25_15h32.01.931,task,2021.1.4,Win32,60.1612321,6299f149e92ead563fba08ef,62b70e474ce2e7f3be1ffd0c,,,,,,,,,,,,,,,,,,,,,,,,,,,,,,,,,,,,,,,,,,,,,,,,,,,,,,,,,,,,,,,,,,,,,,,,,,,,,,,,,,,,,,,,,,,,,,,,,,,,,
,,,,,,3,0,3,0,1,X V Q F H G B L J M P D K C T S W R N Z,5f46a4f25a01ee0369ccb14e,19,Mężczyzna,2022-06-25_15h32.01.931,task,2021.1.4,Win32,60.1612321,6299f149e92ead563fba08ef,62b70e474ce2e7f3be1ffd0c,,,,,,,,,,,,,,,,,,,,,,,,,,,,,,,,,,,,,,,,,,,,,,,,,,,,,,,,,,,,,,,,,,,,,,,,,,,,,,,,,,,,,,,,,,,,,,,,,,,,,
,,,,,,,,,,,,5f46a4f25a01ee0369ccb14e,19,Mężczyzna,2022-06-25_15h32.01.931,task,2021.1.4,Win32,60.1612321,6299f149e92ead563fba08ef,62b70e474ce2e7f3be1ffd0c,tssk,"[""t"",""s"",""s"",""k""]","[0.417500000000004,0.650900000095362,0.7802000000476852,0.9060000000000059,1.1015000000000015]",1,TSSK,4,0,4,0,1,,,,,,,,,,,,,,,,,,,,,,,,,,,,,,,,,,,,,,,,,,,,,,,,,,,,,,,,,,,,,,,,,,,,,,,,,,,,,,,,,,,,,,,,,,,
,,,,,,0,0,0,0,1,X V Q F H G B L J M P D K C T S W R N Z,5f46a4f25a01ee0369ccb14e,19,Mężczyzna,2022-06-25_15h32.01.931,task,2021.1.4,Win32,60.1612321,6299f149e92ead563fba08ef,62b70e474ce2e7f3be1ffd0c,,,,,,,,,,,,,,,,,,,,,,,,,,,,,,,,,,,,,,,,,,,,,,,,,,,,,,,,,,,,,,,,,,,,,,,,,,,,,,,,,,,,,,,,,,,,,,,,,,,,,
,,,,,,1,0,1,0,1,X V Q F H G B L J M P D K C T S W R N Z,5f46a4f25a01ee0369ccb14e,19,Mężczyzna,2022-06-25_15h32.01.931,task,2021.1.4,Win32,60.1612321,6299f149e92ead563fba08ef,62b70e474ce2e7f3be1ffd0c,,,,,,,,,,,,,,,,,,,,,,,,,,,,,,,,,,,,,,,,,,,,,,,,,,,,,,,,,,,,,,,,,,,,,,,,,,,,,,,,,,,,,,,,,,,,,,,,,,,,,
,,,,,,2,0,2,0,1,X V Q F H G B L J M P D K C T S W R N Z,5f46a4f25a01ee0369ccb14e,19,Mężczyzna,2022-06-25_15h32.01.931,task,2021.1.4,Win32,60.1612321,6299f149e92ead563fba08ef,62b70e474ce2e7f3be1ffd0c,,,,,,,,,,,,,,,,,,,,,,,,,,,,,,,,,,,,,,,,,,,,,,,,,,,,,,,,,,,,,,,,,,,,,,,,,,,,,,,,,,,,,,,,,,,,,,,,,,,,,
,,,,,,3,0,3,0,1,X V Q F H G B L J M P D K C T S W R N Z,5f46a4f25a01ee0369ccb14e,19,Mężczyzna,2022-06-25_15h32.01.931,task,2021.1.4,Win32,60.1612321,6299f149e92ead563fba08ef,62b70e474ce2e7f3be1ffd0c,,,,,,,,,,,,,,,,,,,,,,,,,,,,,,,,,,,,,,,,,,,,,,,,,,,,,,,,,,,,,,,,,,,,,,,,,,,,,,,,,,,,,,,,,,,,,,,,,,,,,
,,,,,,,,,,,,5f46a4f25a01ee0369ccb14e,19,Mężczyzna,2022-06-25_15h32.01.931,task,2021.1.4,Win32,60.1612321,6299f149e92ead563fba08ef,62b70e474ce2e7f3be1ffd0c,nsqb,"[""n"",""s"",""q"",""b""]","[0.8537999999523151,1.0757999999523236,1.316699999928474,1.6578999999761521,1.926000000000002]",1,NSQB,5,0,5,0,1,,,,,,,,,,,,,,,,,,,,,,,,,,,,,,,,,,,,,,,,,,,,,,,,,,,,,,,,,,,,,,,,,,,,,,,,,,,,,,,,,,,,,,,,,,,
,,,,,,0,0,0,0,1,X V Q F H G B L J M P D K C T S W R N Z,5f46a4f25a01ee0369ccb14e,19,Mężczyzna,2022-06-25_15h32.01.931,task,2021.1.4,Win32,60.1612321,6299f149e92ead563fba08ef,62b70e474ce2e7f3be1ffd0c,,,,,,,,,,,,,,,,,,,,,,,,,,,,,,,,,,,,,,,,,,,,,,,,,,,,,,,,,,,,,,,,,,,,,,,,,,,,,,,,,,,,,,,,,,,,,,,,,,,,,
,,,,,,1,0,1,0,1,X V Q F H G B L J M P D K C T S W R N Z,5f46a4f25a01ee0369ccb14e,19,Mężczyzna,2022-06-25_15h32.01.931,task,2021.1.4,Win32,60.1612321,6299f149e92ead563fba08ef,62b70e474ce2e7f3be1ffd0c,,,,,,,,,,,,,,,,,,,,,,,,,,,,,,,,,,,,,,,,,,,,,,,,,,,,,,,,,,,,,,,,,,,,,,,,,,,,,,,,,,,,,,,,,,,,,,,,,,,,,
,,,,,,2,0,2,0,1,X V Q F H G B L J M P D K C T S W R N Z,5f46a4f25a01ee0369ccb14e,19,Mężczyzna,2022-06-25_15h32.01.931,task,2021.1.4,Win32,60.1612321,6299f149e92ead563fba08ef,62b70e474ce2e7f3be1ffd0c,,,,,,,,,,,,,,,,,,,,,,,,,,,,,,,,,,,,,,,,,,,,,,,,,,,,,,,,,,,,,,,,,,,,,,,,,,,,,,,,,,,,,,,,,,,,,,,,,,,,,
,,,,,,3,0,3,0,1,X V Q F H G B L J M P D K C T S W R N Z,5f46a4f25a01ee0369ccb14e,19,Mężczyzna,2022-06-25_15h32.01.931,task,2021.1.4,Win32,60.1612321,6299f149e92ead563fba08ef,62b70e474ce2e7f3be1ffd0c,,,,,,,,,,,,,,,,,,,,,,,,,,,,,,,,,,,,,,,,,,,,,,,,,,,,,,,,,,,,,,,,,,,,,,,,,,,,,,,,,,,,,,,,,,,,,,,,,,,,,
,,,,,,4,0,4,0,1,X V Q F H G B L J M P D K C T S W R N Z,5f46a4f25a01ee0369ccb14e,19,Mężczyzna,2022-06-25_15h32.01.931,task,2021.1.4,Win32,60.1612321,6299f149e92ead563fba08ef,62b70e474ce2e7f3be1ffd0c,,,,,,,,,,,,,,,,,,,,,,,,,,,,,,,,,,,,,,,,,,,,,,,,,,,,,,,,,,,,,,,,,,,,,,,,,,,,,,,,,,,,,,,,,,,,,,,,,,,,,
,,,,,,,,,,,,5f46a4f25a01ee0369ccb14e,19,Mężczyzna,2022-06-25_15h32.01.931,task,2021.1.4,Win32,60.1612321,6299f149e92ead563fba08ef,62b70e474ce2e7f3be1ffd0c,ktpbm,"[""k"",""t"",""p"",""b"",""m""]","[1.0344999999999942,1.245500000000007,1.7976000000238486,2.390899999976156,2.70470000004768,3.8628000000715303]",1,KTPBM,6,0,6,0,1,,,,,,,,,,,,,,,,,,,,,,,,,,,,,,,,,,,,,,,,,,,,,,,,,,,,,,,,,,,,,,,,,,,,,,,,,,,,,,,,,,,,,,,,,,,
,,,,,,0,0,0,0,1,X V Q F H G B L J M P D K C T S W R N Z,5f46a4f25a01ee0369ccb14e,19,Mężczyzna,2022-06-25_15h32.01.931,task,2021.1.4,Win32,60.1612321,6299f149e92ead563fba08ef,62b70e474ce2e7f3be1ffd0c,,,,,,,,,,,,,,,,,,,,,,,,,,,,,,,,,,,,,,,,,,,,,,,,,,,,,,,,,,,,,,,,,,,,,,,,,,,,,,,,,,,,,,,,,,,,,,,,,,,,,
,,,,,,1,0,1,0,1,X V Q F H G B L J M P D K C T S W R N Z,5f46a4f25a01ee0369ccb14e,19,Mężczyzna,2022-06-25_15h32.01.931,task,2021.1.4,Win32,60.1612321,6299f149e92ead563fba08ef,62b70e474ce2e7f3be1ffd0c,,,,,,,,,,,,,,,,,,,,,,,,,,,,,,,,,,,,,,,,,,,,,,,,,,,,,,,,,,,,,,,,,,,,,,,,,,,,,,,,,,,,,,,,,,,,,,,,,,,,,
,,,,,,2,0,2,0,1,X V Q F H G B L J M P D K C T S W R N Z,5f46a4f25a01ee0369ccb14e,19,Mężczyzna,2022-06-25_15h32.01.931,task,2021.1.4,Win32,60.1612321,6299f149e92ead563fba08ef,62b70e474ce2e7f3be1ffd0c,,,,,,,,,,,,,,,,,,,,,,,,,,,,,,,,,,,,,,,,,,,,,,,,,,,,,,,,,,,,,,,,,,,,,,,,,,,,,,,,,,,,,,,,,,,,,,,,,,,,,
,,,,,,3,0,3,0,1,X V Q F H G B L J M P D K C T S W R N Z,5f46a4f25a01ee0369ccb14e,19,Mężczyzna,2022-06-25_15h32.01.931,task,2021.1.4,Win32,60.1612321,6299f149e92ead563fba08ef,62b70e474ce2e7f3be1ffd0c,,,,,,,,,,,,,,,,,,,,,,,,,,,,,,,,,,,,,,,,,,,,,,,,,,,,,,,,,,,,,,,,,,,,,,,,,,,,,,,,,,,,,,,,,,,,,,,,,,,,,
,,,,,,4,0,4,0,1,X V Q F H G B L J M P D K C T S W R N Z,5f46a4f25a01ee0369ccb14e,19,Mężczyzna,2022-06-25_15h32.01.931,task,2021.1.4,Win32,60.1612321,6299f149e92ead563fba08ef,62b70e474ce2e7f3be1ffd0c,,,,,,,,,,,,,,,,,,,,,,,,,,,,,,,,,,,,,,,,,,,,,,,,,,,,,,,,,,,,,,,,,,,,,,,,,,,,,,,,,,,,,,,,,,,,,,,,,,,,,
,,,,,,,,,,,,5f46a4f25a01ee0369ccb14e,19,Mężczyzna,2022-06-25_15h32.01.931,task,2021.1.4,Win32,60.1612321,6299f149e92ead563fba08ef,62b70e474ce2e7f3be1ffd0c,fudlh,"[""f"",""u"",""d"",""l"",""h""]","[0.8236000000238448,2.1869999999999834,2.651999999999987,2.935299999952292,3.1191000000238205,3.4536000000238403]",0,FWDLH,7,0,7,0,1,,,,,,,,,,,,,,,,,,,,,,,,,,,,,,,,,,,,,,,,,,,,,,,,,,,,,,,,,,,,,,,,,,,,,,,,,,,,,,,,,,,,,,,,,,,
,,,,,,0,0,0,0,1,X V Q F H G B L J M P D K C T S W R N Z,5f46a4f25a01ee0369ccb14e,19,Mężczyzna,2022-06-25_15h32.01.931,task,2021.1.4,Win32,60.1612321,6299f149e92ead563fba08ef,62b70e474ce2e7f3be1ffd0c,,,,,,,,,,,,,,,,,,,,,,,,,,,,,,,,,,,,,,,,,,,,,,,,,,,,,,,,,,,,,,,,,,,,,,,,,,,,,,,,,,,,,,,,,,,,,,,,,,,,,
,,,,,,1,0,1,0,1,X V Q F H G B L J M P D K C T S W R N Z,5f46a4f25a01ee0369ccb14e,19,Mężczyzna,2022-06-25_15h32.01.931,task,2021.1.4,Win32,60.1612321,6299f149e92ead563fba08ef,62b70e474ce2e7f3be1ffd0c,,,,,,,,,,,,,,,,,,,,,,,,,,,,,,,,,,,,,,,,,,,,,,,,,,,,,,,,,,,,,,,,,,,,,,,,,,,,,,,,,,,,,,,,,,,,,,,,,,,,,
,,,,,,2,0,2,0,1,X V Q F H G B L J M P D K C T S W R N Z,5f46a4f25a01ee0369ccb14e,19,Mężczyzna,2022-06-25_15h32.01.931,task,2021.1.4,Win32,60.1612321,6299f149e92ead563fba08ef,62b70e474ce2e7f3be1ffd0c,,,,,,,,,,,,,,,,,,,,,,,,,,,,,,,,,,,,,,,,,,,,,,,,,,,,,,,,,,,,,,,,,,,,,,,,,,,,,,,,,,,,,,,,,,,,,,,,,,,,,
,,,,,,3,0,3,0,1,X V Q F H G B L J M P D K C T S W R N Z,5f46a4f25a01ee0369ccb14e,19,Mężczyzna,2022-06-25_15h32.01.931,task,2021.1.4,Win32,60.1612321,6299f149e92ead563fba08ef,62b70e474ce2e7f3be1ffd0c,,,,,,,,,,,,,,,,,,,,,,,,,,,,,,,,,,,,,,,,,,,,,,,,,,,,,,,,,,,,,,,,,,,,,,,,,,,,,,,,,,,,,,,,,,,,,,,,,,,,,
,,,,,,4,0,4,0,1,X V Q F H G B L J M P D K C T S W R N Z,5f46a4f25a01ee0369ccb14e,19,Mężczyzna,2022-06-25_15h32.01.931,task,2021.1.4,Win32,60.1612321,6299f149e92ead563fba08ef,62b70e474ce2e7f3be1ffd0c,,,,,,,,,,,,,,,,,,,,,,,,,,,,,,,,,,,,,,,,,,,,,,,,,,,,,,,,,,,,,,,,,,,,,,,,,,,,,,,,,,,,,,,,,,,,,,,,,,,,,
,,,,,,,,,,,,5f46a4f25a01ee0369ccb14e,19,Mężczyzna,2022-06-25_15h32.01.931,task,2021.1.4,Win32,60.1612321,6299f149e92ead563fba08ef,62b70e474ce2e7f3be1ffd0c,dpnfz,"[""d"",""p"",""n"",""f"",""z""]","[1.9153999999761595,2.1871000000238325,2.446200000047668,2.8452000000476687,3.09679999995231,3.4793999999761525]",1,DPNFZ,8,0,8,0,1,,,,,,,,,,,,,,,,,,,,,,,,,,,,,,,,,,,,,,,,,,,,,,,,,,,,,,,,,,,,,,,,,,,,,,,,,,,,,,,,,,,,,,,,,,,
,,,,,,0,0,0,0,1,X V Q F H G B L J M P D K C T S W R N Z,5f46a4f25a01ee0369ccb14e,19,Mężczyzna,2022-06-25_15h32.01.931,task,2021.1.4,Win32,60.1612321,6299f149e92ead563fba08ef,62b70e474ce2e7f3be1ffd0c,,,,,,,,,,,,,,,,,,,,,,,,,,,,,,,,,,,,,,,,,,,,,,,,,,,,,,,,,,,,,,,,,,,,,,,,,,,,,,,,,,,,,,,,,,,,,,,,,,,,,
,,,,,,1,0,1,0,1,X V Q F H G B L J M P D K C T S W R N Z,5f46a4f25a01ee0369ccb14e,19,Mężczyzna,2022-06-25_15h32.01.931,task,2021.1.4,Win32,60.1612321,6299f149e92ead563fba08ef,62b70e474ce2e7f3be1ffd0c,,,,,,,,,,,,,,,,,,,,,,,,,,,,,,,,,,,,,,,,,,,,,,,,,,,,,,,,,,,,,,,,,,,,,,,,,,,,,,,,,,,,,,,,,,,,,,,,,,,,,
,,,,,,2,0,2,0,1,X V Q F H G B L J M P D K C T S W R N Z,5f46a4f25a01ee0369ccb14e,19,Mężczyzna,2022-06-25_15h32.01.931,task,2021.1.4,Win32,60.1612321,6299f149e92ead563fba08ef,62b70e474ce2e7f3be1ffd0c,,,,,,,,,,,,,,,,,,,,,,,,,,,,,,,,,,,,,,,,,,,,,,,,,,,,,,,,,,,,,,,,,,,,,,,,,,,,,,,,,,,,,,,,,,,,,,,,,,,,,
,,,,,,3,0,3,0,1,X V Q F H G B L J M P D K C T S W R N Z,5f46a4f25a01ee0369ccb14e,19,Mężczyzna,2022-06-25_15h32.01.931,task,2021.1.4,Win32,60.1612321,6299f149e92ead563fba08ef,62b70e474ce2e7f3be1ffd0c,,,,,,,,,,,,,,,,,,,,,,,,,,,,,,,,,,,,,,,,,,,,,,,,,,,,,,,,,,,,,,,,,,,,,,,,,,,,,,,,,,,,,,,,,,,,,,,,,,,,,
,,,,,,4,0,4,0,1,X V Q F H G B L J M P D K C T S W R N Z,5f46a4f25a01ee0369ccb14e,19,Mężczyzna,2022-06-25_15h32.01.931,task,2021.1.4,Win32,60.1612321,6299f149e92ead563fba08ef,62b70e474ce2e7f3be1ffd0c,,,,,,,,,,,,,,,,,,,,,,,,,,,,,,,,,,,,,,,,,,,,,,,,,,,,,,,,,,,,,,,,,,,,,,,,,,,,,,,,,,,,,,,,,,,,,,,,,,,,,
,,,,,,5,0,5,0,1,X V Q F H G B L J M P D K C T S W R N Z,5f46a4f25a01ee0369ccb14e,19,Mężczyzna,2022-06-25_15h32.01.931,task,2021.1.4,Win32,60.1612321,6299f149e92ead563fba08ef,62b70e474ce2e7f3be1ffd0c,,,,,,,,,,,,,,,,,,,,,,,,,,,,,,,,,,,,,,,,,,,,,,,,,,,,,,,,,,,,,,,,,,,,,,,,,,,,,,,,,,,,,,,,,,,,,,,,,,,,,
,,,,,,,,,,,,5f46a4f25a01ee0369ccb14e,19,Mężczyzna,2022-06-25_15h32.01.931,task,2021.1.4,Win32,60.1612321,6299f149e92ead563fba08ef,62b70e474ce2e7f3be1ffd0c,bslblq,"[""b"",""s"",""l"",""b"",""l"",""q""]","[0.6427999999523024,0.8868999999761513,1.2351999999284828,1.5771000000238473,1.8231999999284767,2.0046999999284765,32.367899999976146]",1,BSLBLQ,9,0,9,0,1,,,,,,,,,,,,,,,,,,,,,,,,,,,,,,,,,,,,,,,,,,,,,,,,,,,,,,,,,,,,,,,,,,,,,,,,,,,,,,,,,,,,,,,,,,,
,,,,,,0,0,0,0,1,X V Q F H G B L J M P D K C T S W R N Z,5f46a4f25a01ee0369ccb14e,19,Mężczyzna,2022-06-25_15h32.01.931,task,2021.1.4,Win32,60.1612321,6299f149e92ead563fba08ef,62b70e474ce2e7f3be1ffd0c,,,,,,,,,,,,,,,,,,,,,,,,,,,,,,,,,,,,,,,,,,,,,,,,,,,,,,,,,,,,,,,,,,,,,,,,,,,,,,,,,,,,,,,,,,,,,,,,,,,,,
,,,,,,1,0,1,0,1,X V Q F H G B L J M P D K C T S W R N Z,5f46a4f25a01ee0369ccb14e,19,Mężczyzna,2022-06-25_15h32.01.931,task,2021.1.4,Win32,60.1612321,6299f149e92ead563fba08ef,62b70e474ce2e7f3be1ffd0c,,,,,,,,,,,,,,,,,,,,,,,,,,,,,,,,,,,,,,,,,,,,,,,,,,,,,,,,,,,,,,,,,,,,,,,,,,,,,,,,,,,,,,,,,,,,,,,,,,,,,
,,,,,,2,0,2,0,1,X V Q F H G B L J M P D K C T S W R N Z,5f46a4f25a01ee0369ccb14e,19,Mężczyzna,2022-06-25_15h32.01.931,task,2021.1.4,Win32,60.1612321,6299f149e92ead563fba08ef,62b70e474ce2e7f3be1ffd0c,,,,,,,,,,,,,,,,,,,,,,,,,,,,,,,,,,,,,,,,,,,,,,,,,,,,,,,,,,,,,,,,,,,,,,,,,,,,,,,,,,,,,,,,,,,,,,,,,,,,,
,,,,,,3,0,3,0,1,X V Q F H G B L J M P D K C T S W R N Z,5f46a4f25a01ee0369ccb14e,19,Mężczyzna,2022-06-25_15h32.01.931,task,2021.1.4,Win32,60.1612321,6299f149e92ead563fba08ef,62b70e474ce2e7f3be1ffd0c,,,,,,,,,,,,,,,,,,,,,,,,,,,,,,,,,,,,,,,,,,,,,,,,,,,,,,,,,,,,,,,,,,,,,,,,,,,,,,,,,,,,,,,,,,,,,,,,,,,,,
,,,,,,4,0,4,0,1,X V Q F H G B L J M P D K C T S W R N Z,5f46a4f25a01ee0369ccb14e,19,Mężczyzna,2022-06-25_15h32.01.931,task,2021.1.4,Win32,60.1612321,6299f149e92ead563fba08ef,62b70e474ce2e7f3be1ffd0c,,,,,,,,,,,,,,,,,,,,,,,,,,,,,,,,,,,,,,,,,,,,,,,,,,,,,,,,,,,,,,,,,,,,,,,,,,,,,,,,,,,,,,,,,,,,,,,,,,,,,
,,,,,,5,0,5,0,1,X V Q F H G B L J M P D K C T S W R N Z,5f46a4f25a01ee0369ccb14e,19,Mężczyzna,2022-06-25_15h32.01.931,task,2021.1.4,Win32,60.1612321,6299f149e92ead563fba08ef,62b70e474ce2e7f3be1ffd0c,,,,,,,,,,,,,,,,,,,,,,,,,,,,,,,,,,,,,,,,,,,,,,,,,,,,,,,,,,,,,,,,,,,,,,,,,,,,,,,,,,,,,,,,,,,,,,,,,,,,,
,,,,,,,,,,,,5f46a4f25a01ee0369ccb14e,19,Mężczyzna,2022-06-25_15h32.01.931,task,2021.1.4,Win32,60.1612321,6299f149e92ead563fba08ef,62b70e474ce2e7f3be1ffd0c,jblkmn,"[""j"",""b"",""l"",""k"",""m"",""n""]","[0.9237000000476883,1.5343000000715392,1.7273000000715228,2.1015000000000157,2.6016000000238364,2.720100000023848,186.0103000000715]",0,JLBKNM,10,0,10,0,1,,,,,,,,,,,,,,,,,,,,,,,,,,,,,,,,,,,,,,,,,,,,,,,,,,,,,,,,,,,,,,,,,,,,,,,,,,,,,,,,,,,,,,,,,,,
,,,,,,0,0,0,0,1,X V Q F H G B L J M P D K C T S W R N Z,5f46a4f25a01ee0369ccb14e,19,Mężczyzna,2022-06-25_15h32.01.931,task,2021.1.4,Win32,60.1612321,6299f149e92ead563fba08ef,62b70e474ce2e7f3be1ffd0c,,,,,,,,,,,,,,,,,,,,,,,,,,,,,,,,,,,,,,,,,,,,,,,,,,,,,,,,,,,,,,,,,,,,,,,,,,,,,,,,,,,,,,,,,,,,,,,,,,,,,
,,,,,,1,0,1,0,1,X V Q F H G B L J M P D K C T S W R N Z,5f46a4f25a01ee0369ccb14e,19,Mężczyzna,2022-06-25_15h32.01.931,task,2021.1.4,Win32,60.1612321,6299f149e92ead563fba08ef,62b70e474ce2e7f3be1ffd0c,,,,,,,,,,,,,,,,,,,,,,,,,,,,,,,,,,,,,,,,,,,,,,,,,,,,,,,,,,,,,,,,,,,,,,,,,,,,,,,,,,,,,,,,,,,,,,,,,,,,,
,,,,,,2,0,2,0,1,X V Q F H G B L J M P D K C T S W R N Z,5f46a4f25a01ee0369ccb14e,19,Mężczyzna,2022-06-25_15h32.01.931,task,2021.1.4,Win32,60.1612321,6299f149e92ead563fba08ef,62b70e474ce2e7f3be1ffd0c,,,,,,,,,,,,,,,,,,,,,,,,,,,,,,,,,,,,,,,,,,,,,,,,,,,,,,,,,,,,,,,,,,,,,,,,,,,,,,,,,,,,,,,,,,,,,,,,,,,,,
,,,,,,3,0,3,0,1,X V Q F H G B L J M P D K C T S W R N Z,5f46a4f25a01ee0369ccb14e,19,Mężczyzna,2022-06-25_15h32.01.931,task,2021.1.4,Win32,60.1612321,6299f149e92ead563fba08ef,62b70e474ce2e7f3be1ffd0c,,,,,,,,,,,,,,,,,,,,,,,,,,,,,,,,,,,,,,,,,,,,,,,,,,,,,,,,,,,,,,,,,,,,,,,,,,,,,,,,,,,,,,,,,,,,,,,,,,,,,
,,,,,,4,0,4,0,1,X V Q F H G B L J M P D K C T S W R N Z,5f46a4f25a01ee0369ccb14e,19,Mężczyzna,2022-06-25_15h32.01.931,task,2021.1.4,Win32,60.1612321,6299f149e92ead563fba08ef,62b70e474ce2e7f3be1ffd0c,,,,,,,,,,,,,,,,,,,,,,,,,,,,,,,,,,,,,,,,,,,,,,,,,,,,,,,,,,,,,,,,,,,,,,,,,,,,,,,,,,,,,,,,,,,,,,,,,,,,,
,,,,,,5,0,5,0,1,X V Q F H G B L J M P D K C T S W R N Z,5f46a4f25a01ee0369ccb14e,19,Mężczyzna,2022-06-25_15h32.01.931,task,2021.1.4,Win32,60.1612321,6299f149e92ead563fba08ef,62b70e474ce2e7f3be1ffd0c,,,,,,,,,,,,,,,,,,,,,,,,,,,,,,,,,,,,,,,,,,,,,,,,,,,,,,,,,,,,,,,,,,,,,,,,,,,,,,,,,,,,,,,,,,,,,,,,,,,,,
,,,,,,,,,,,,5f46a4f25a01ee0369ccb14e,19,Mężczyzna,2022-06-25_15h32.01.931,task,2021.1.4,Win32,60.1612321,6299f149e92ead563fba08ef,62b70e474ce2e7f3be1ffd0c,mlckrb,"[""m"",""l"",""c"",""k"",""r"",""b""]","[0.8508999999762068,1.234199999928478,1.601399999976195,2.1916000000238682,4.479000000000042,4.769600000023843,13.575600000023883]",1,MLCKRB,11,0,11,0,1,,,,,,,,,,,,,,,,,,,,,,,,,,,,,,,,,,,,,,,,,,,,,,,,,,,,,,,,,,,,,,,,,,,,,,,,,,,,,,,,,,,,,,,,,,,
,,,,,,0,0,0,0,1,X V Q F H G B L J M P D K C T S W R N Z,5f46a4f25a01ee0369ccb14e,19,Mężczyzna,2022-06-25_15h32.01.931,task,2021.1.4,Win32,60.1612321,6299f149e92ead563fba08ef,62b70e474ce2e7f3be1ffd0c,,,,,,,,,,,,,,,,,,,,,,,,,,,,,,,,,,,,,,,,,,,,,,,,,,,,,,,,,,,,,,,,,,,,,,,,,,,,,,,,,,,,,,,,,,,,,,,,,,,,,
,,,,,,1,0,1,0,1,X V Q F H G B L J M P D K C T S W R N Z,5f46a4f25a01ee0369ccb14e,19,Mężczyzna,2022-06-25_15h32.01.931,task,2021.1.4,Win32,60.1612321,6299f149e92ead563fba08ef,62b70e474ce2e7f3be1ffd0c,,,,,,,,,,,,,,,,,,,,,,,,,,,,,,,,,,,,,,,,,,,,,,,,,,,,,,,,,,,,,,,,,,,,,,,,,,,,,,,,,,,,,,,,,,,,,,,,,,,,,
,,,,,,2,0,2,0,1,X V Q F H G B L J M P D K C T S W R N Z,5f46a4f25a01ee0369ccb14e,19,Mężczyzna,2022-06-25_15h32.01.931,task,2021.1.4,Win32,60.1612321,6299f149e92ead563fba08ef,62b70e474ce2e7f3be1ffd0c,,,,,,,,,,,,,,,,,,,,,,,,,,,,,,,,,,,,,,,,,,,,,,,,,,,,,,,,,,,,,,,,,,,,,,,,,,,,,,,,,,,,,,,,,,,,,,,,,,,,,
,,,,,,3,0,3,0,1,X V Q F H G B L J M P D K C T S W R N Z,5f46a4f25a01ee0369ccb14e,19,Mężczyzna,2022-06-25_15h32.01.931,task,2021.1.4,Win32,60.1612321,6299f149e92ead563fba08ef,62b70e474ce2e7f3be1ffd0c,,,,,,,,,,,,,,,,,,,,,,,,,,,,,,,,,,,,,,,,,,,,,,,,,,,,,,,,,,,,,,,,,,,,,,,,,,,,,,,,,,,,,,,,,,,,,,,,,,,,,
,,,,,,4,0,4,0,1,X V Q F H G B L J M P D K C T S W R N Z,5f46a4f25a01ee0369ccb14e,19,Mężczyzna,2022-06-25_15h32.01.931,task,2021.1.4,Win32,60.1612321,6299f149e92ead563fba08ef,62b70e474ce2e7f3be1ffd0c,,,,,,,,,,,,,,,,,,,,,,,,,,,,,,,,,,,,,,,,,,,,,,,,,,,,,,,,,,,,,,,,,,,,,,,,,,,,,,,,,,,,,,,,,,,,,,,,,,,,,
,,,,,,5,0,5,0,1,X V Q F H G B L J M P D K C T S W R N Z,5f46a4f25a01ee0369ccb14e,19,Mężczyzna,2022-06-25_15h32.01.931,task,2021.1.4,Win32,60.1612321,6299f149e92ead563fba08ef,62b70e474ce2e7f3be1ffd0c,,,,,,,,,,,,,,,,,,,,,,,,,,,,,,,,,,,,,,,,,,,,,,,,,,,,,,,,,,,,,,,,,,,,,,,,,,,,,,,,,,,,,,,,,,,,,,,,,,,,,
,,,,,,6,0,6,0,1,X V Q F H G B L J M P D K C T S W R N Z,5f46a4f25a01ee0369ccb14e,19,Mężczyzna,2022-06-25_15h32.01.931,task,2021.1.4,Win32,60.1612321,6299f149e92ead563fba08ef,62b70e474ce2e7f3be1ffd0c,,,,,,,,,,,,,,,,,,,,,,,,,,,,,,,,,,,,,,,,,,,,,,,,,,,,,,,,,,,,,,,,,,,,,,,,,,,,,,,,,,,,,,,,,,,,,,,,,,,,,
,,,,,,,,,,,,5f46a4f25a01ee0369ccb14e,19,Mężczyzna,2022-06-25_15h32.01.931,task,2021.1.4,Win32,60.1612321,6299f149e92ead563fba08ef,62b70e474ce2e7f3be1ffd0c,dxsfswl,"[""d"",""x"",""s"",""f"",""s"",""w"",""l""]","[0.7350000000000136,0.9835999999046408,1.208500000000015,1.488099999904648,1.9901999999284499,2.32650000000001,2.8510999999046476,3.3514999999999873]",1,DXSFSWL,12,0,12,0,1,,,,,,,,,,,,,,,,,,,,,,,,,,,,,,,,,,,,,,,,,,,,,,,,,,,,,,,,,,,,,,,,,,,,,,,,,,,,,,,,,,,,,,,,,,,
,,,,,,0,0,0,0,1,X V Q F H G B L J M P D K C T S W R N Z,5f46a4f25a01ee0369ccb14e,19,Mężczyzna,2022-06-25_15h32.01.931,task,2021.1.4,Win32,60.1612321,6299f149e92ead563fba08ef,62b70e474ce2e7f3be1ffd0c,,,,,,,,,,,,,,,,,,,,,,,,,,,,,,,,,,,,,,,,,,,,,,,,,,,,,,,,,,,,,,,,,,,,,,,,,,,,,,,,,,,,,,,,,,,,,,,,,,,,,
,,,,,,1,0,1,0,1,X V Q F H G B L J M P D K C T S W R N Z,5f46a4f25a01ee0369ccb14e,19,Mężczyzna,2022-06-25_15h32.01.931,task,2021.1.4,Win32,60.1612321,6299f149e92ead563fba08ef,62b70e474ce2e7f3be1ffd0c,,,,,,,,,,,,,,,,,,,,,,,,,,,,,,,,,,,,,,,,,,,,,,,,,,,,,,,,,,,,,,,,,,,,,,,,,,,,,,,,,,,,,,,,,,,,,,,,,,,,,
,,,,,,2,0,2,0,1,X V Q F H G B L J M P D K C T S W R N Z,5f46a4f25a01ee0369ccb14e,19,Mężczyzna,2022-06-25_15h32.01.931,task,2021.1.4,Win32,60.1612321,6299f149e92ead563fba08ef,62b70e474ce2e7f3be1ffd0c,,,,,,,,,,,,,,,,,,,,,,,,,,,,,,,,,,,,,,,,,,,,,,,,,,,,,,,,,,,,,,,,,,,,,,,,,,,,,,,,,,,,,,,,,,,,,,,,,,,,,
,,,,,,3,0,3,0,1,X V Q F H G B L J M P D K C T S W R N Z,5f46a4f25a01ee0369ccb14e,19,Mężczyzna,2022-06-25_15h32.01.931,task,2021.1.4,Win32,60.1612321,6299f149e92ead563fba08ef,62b70e474ce2e7f3be1ffd0c,,,,,,,,,,,,,,,,,,,,,,,,,,,,,,,,,,,,,,,,,,,,,,,,,,,,,,,,,,,,,,,,,,,,,,,,,,,,,,,,,,,,,,,,,,,,,,,,,,,,,
,,,,,,4,0,4,0,1,X V Q F H G B L J M P D K C T S W R N Z,5f46a4f25a01ee0369ccb14e,19,Mężczyzna,2022-06-25_15h32.01.931,task,2021.1.4,Win32,60.1612321,6299f149e92ead563fba08ef,62b70e474ce2e7f3be1ffd0c,,,,,,,,,,,,,,,,,,,,,,,,,,,,,,,,,,,,,,,,,,,,,,,,,,,,,,,,,,,,,,,,,,,,,,,,,,,,,,,,,,,,,,,,,,,,,,,,,,,,,
,,,,,,5,0,5,0,1,X V Q F H G B L J M P D K C T S W R N Z,5f46a4f25a01ee0369ccb14e,19,Mężczyzna,2022-06-25_15h32.01.931,task,2021.1.4,Win32,60.1612321,6299f149e92ead563fba08ef,62b70e474ce2e7f3be1ffd0c,,,,,,,,,,,,,,,,,,,,,,,,,,,,,,,,,,,,,,,,,,,,,,,,,,,,,,,,,,,,,,,,,,,,,,,,,,,,,,,,,,,,,,,,,,,,,,,,,,,,,
,,,,,,6,0,6,0,1,X V Q F H G B L J M P D K C T S W R N Z,5f46a4f25a01ee0369ccb14e,19,Mężczyzna,2022-06-25_15h32.01.931,task,2021.1.4,Win32,60.1612321,6299f149e92ead563fba08ef,62b70e474ce2e7f3be1ffd0c,,,,,,,,,,,,,,,,,,,,,,,,,,,,,,,,,,,,,,,,,,,,,,,,,,,,,,,,,,,,,,,,,,,,,,,,,,,,,,,,,,,,,,,,,,,,,,,,,,,,,
,,,,,,,,,,,,5f46a4f25a01ee0369ccb14e,19,Mężczyzna,2022-06-25_15h32.01.931,task,2021.1.4,Win32,60.1612321,6299f149e92ead563fba08ef,62b70e474ce2e7f3be1ffd0c,zfgrqa,"[""z"",""f"",""g"",""r"",""q"",""a""]","[1.0862000000476542,2.6263999999761722,2.9912000000476837,3.1858999999761295,4.52049999999997,5.047200000047667,6.140600000023824]",0,ZGFRQHC,13,0,13,0,1,,,,,,,,,,,,,,,,,,,,,,,,,,,,,,,,,,,,,,,,,,,,,,,,,,,,,,,,,,,,,,,,,,,,,,,,,,,,,,,,,,,,,,,,,,,
,,,,,,0,0,0,0,1,X V Q F H G B L J M P D K C T S W R N Z,5f46a4f25a01ee0369ccb14e,19,Mężczyzna,2022-06-25_15h32.01.931,task,2021.1.4,Win32,60.1612321,6299f149e92ead563fba08ef,62b70e474ce2e7f3be1ffd0c,,,,,,,,,,,,,,,,,,,,,,,,,,,,,,,,,,,,,,,,,,,,,,,,,,,,,,,,,,,,,,,,,,,,,,,,,,,,,,,,,,,,,,,,,,,,,,,,,,,,,
,,,,,,1,0,1,0,1,X V Q F H G B L J M P D K C T S W R N Z,5f46a4f25a01ee0369ccb14e,19,Mężczyzna,2022-06-25_15h32.01.931,task,2021.1.4,Win32,60.1612321,6299f149e92ead563fba08ef,62b70e474ce2e7f3be1ffd0c,,,,,,,,,,,,,,,,,,,,,,,,,,,,,,,,,,,,,,,,,,,,,,,,,,,,,,,,,,,,,,,,,,,,,,,,,,,,,,,,,,,,,,,,,,,,,,,,,,,,,
,,,,,,2,0,2,0,1,X V Q F H G B L J M P D K C T S W R N Z,5f46a4f25a01ee0369ccb14e,19,Mężczyzna,2022-06-25_15h32.01.931,task,2021.1.4,Win32,60.1612321,6299f149e92ead563fba08ef,62b70e474ce2e7f3be1ffd0c,,,,,,,,,,,,,,,,,,,,,,,,,,,,,,,,,,,,,,,,,,,,,,,,,,,,,,,,,,,,,,,,,,,,,,,,,,,,,,,,,,,,,,,,,,,,,,,,,,,,,
,,,,,,3,0,3,0,1,X V Q F H G B L J M P D K C T S W R N Z,5f46a4f25a01ee0369ccb14e,19,Mężczyzna,2022-06-25_15h32.01.931,task,2021.1.4,Win32,60.1612321,6299f149e92ead563fba08ef,62b70e474ce2e7f3be1ffd0c,,,,,,,,,,,,,,,,,,,,,,,,,,,,,,,,,,,,,,,,,,,,,,,,,,,,,,,,,,,,,,,,,,,,,,,,,,,,,,,,,,,,,,,,,,,,,,,,,,,,,
,,,,,,4,0,4,0,1,X V Q F H G B L J M P D K C T S W R N Z,5f46a4f25a01ee0369ccb14e,19,Mężczyzna,2022-06-25_15h32.01.931,task,2021.1.4,Win32,60.1612321,6299f149e92ead563fba08ef,62b70e474ce2e7f3be1ffd0c,,,,,,,,,,,,,,,,,,,,,,,,,,,,,,,,,,,,,,,,,,,,,,,,,,,,,,,,,,,,,,,,,,,,,,,,,,,,,,,,,,,,,,,,,,,,,,,,,,,,,
,,,,,,5,0,5,0,1,X V Q F H G B L J M P D K C T S W R N Z,5f46a4f25a01ee0369ccb14e,19,Mężczyzna,2022-06-25_15h32.01.931,task,2021.1.4,Win32,60.1612321,6299f149e92ead563fba08ef,62b70e474ce2e7f3be1ffd0c,,,,,,,,,,,,,,,,,,,,,,,,,,,,,,,,,,,,,,,,,,,,,,,,,,,,,,,,,,,,,,,,,,,,,,,,,,,,,,,,,,,,,,,,,,,,,,,,,,,,,
,,,,,,6,0,6,0,1,X V Q F H G B L J M P D K C T S W R N Z,5f46a4f25a01ee0369ccb14e,19,Mężczyzna,2022-06-25_15h32.01.931,task,2021.1.4,Win32,60.1612321,6299f149e92ead563fba08ef,62b70e474ce2e7f3be1ffd0c,,,,,,,,,,,,,,,,,,,,,,,,,,,,,,,,,,,,,,,,,,,,,,,,,,,,,,,,,,,,,,,,,,,,,,,,,,,,,,,,,,,,,,,,,,,,,,,,,,,,,
,,,,,,,,,,,,5f46a4f25a01ee0369ccb14e,19,Mężczyzna,2022-06-25_15h32.01.931,task,2021.1.4,Win32,60.1612321,6299f149e92ead563fba08ef,62b70e474ce2e7f3be1ffd0c,dcmsfnt,"[""d"",""c"",""m"",""s"",""f"",""n"",""t""]","[0.978999999999985,1.1009000000953506,1.4802000000476596,2.079499999999996,2.735800000071549,3.002999999999986,3.311700000047665,4.153900000095348]",0,DCMFSNT,14,0,14,0,1,,,,,,,,,,,,,,,,,,,,,,,,,,,,,,,,,,,,,,,,,,,,,,,,,,,,,,,,,,,,,,,,,,,,,,,,,,,,,,,,,,,,,,,,,,,
,,,,,,0,0,0,0,1,X V Q F H G B L J M P D K C T S W R N Z,5f46a4f25a01ee0369ccb14e,19,Mężczyzna,2022-06-25_15h32.01.931,task,2021.1.4,Win32,60.1612321,6299f149e92ead563fba08ef,62b70e474ce2e7f3be1ffd0c,,,,,,,,,,,,,,,,,,,,,,,,,,,,,,,,,,,,,,,,,,,,,,,,,,,,,,,,,,,,,,,,,,,,,,,,,,,,,,,,,,,,,,,,,,,,,,,,,,,,,
,,,,,,1,0,1,0,1,X V Q F H G B L J M P D K C T S W R N Z,5f46a4f25a01ee0369ccb14e,19,Mężczyzna,2022-06-25_15h32.01.931,task,2021.1.4,Win32,60.1612321,6299f149e92ead563fba08ef,62b70e474ce2e7f3be1ffd0c,,,,,,,,,,,,,,,,,,,,,,,,,,,,,,,,,,,,,,,,,,,,,,,,,,,,,,,,,,,,,,,,,,,,,,,,,,,,,,,,,,,,,,,,,,,,,,,,,,,,,
,,,,,,2,0,2,0,1,X V Q F H G B L J M P D K C T S W R N Z,5f46a4f25a01ee0369ccb14e,19,Mężczyzna,2022-06-25_15h32.01.931,task,2021.1.4,Win32,60.1612321,6299f149e92ead563fba08ef,62b70e474ce2e7f3be1ffd0c,,,,,,,,,,,,,,,,,,,,,,,,,,,,,,,,,,,,,,,,,,,,,,,,,,,,,,,,,,,,,,,,,,,,,,,,,,,,,,,,,,,,,,,,,,,,,,,,,,,,,
,,,,,,3,0,3,0,1,X V Q F H G B L J M P D K C T S W R N Z,5f46a4f25a01ee0369ccb14e,19,Mężczyzna,2022-06-25_15h32.01.931,task,2021.1.4,Win32,60.1612321,6299f149e92ead563fba08ef,62b70e474ce2e7f3be1ffd0c,,,,,,,,,,,,,,,,,,,,,,,,,,,,,,,,,,,,,,,,,,,,,,,,,,,,,,,,,,,,,,,,,,,,,,,,,,,,,,,,,,,,,,,,,,,,,,,,,,,,,
,,,,,,4,0,4,0,1,X V Q F H G B L J M P D K C T S W R N Z,5f46a4f25a01ee0369ccb14e,19,Mężczyzna,2022-06-25_15h32.01.931,task,2021.1.4,Win32,60.1612321,6299f149e92ead563fba08ef,62b70e474ce2e7f3be1ffd0c,,,,,,,,,,,,,,,,,,,,,,,,,,,,,,,,,,,,,,,,,,,,,,,,,,,,,,,,,,,,,,,,,,,,,,,,,,,,,,,,,,,,,,,,,,,,,,,,,,,,,
,,,,,,5,0,5,0,1,X V Q F H G B L J M P D K C T S W R N Z,5f46a4f25a01ee0369ccb14e,19,Mężczyzna,2022-06-25_15h32.01.931,task,2021.1.4,Win32,60.1612321,6299f149e92ead563fba08ef,62b70e474ce2e7f3be1ffd0c,,,,,,,,,,,,,,,,,,,,,,,,,,,,,,,,,,,,,,,,,,,,,,,,,,,,,,,,,,,,,,,,,,,,,,,,,,,,,,,,,,,,,,,,,,,,,,,,,,,,,
,,,,,,6,0,6,0,1,X V Q F H G B L J M P D K C T S W R N Z,5f46a4f25a01ee0369ccb14e,19,Mężczyzna,2022-06-25_15h32.01.931,task,2021.1.4,Win32,60.1612321,6299f149e92ead563fba08ef,62b70e474ce2e7f3be1ffd0c,,,,,,,,,,,,,,,,,,,,,,,,,,,,,,,,,,,,,,,,,,,,,,,,,,,,,,,,,,,,,,,,,,,,,,,,,,,,,,,,,,,,,,,,,,,,,,,,,,,,,
,,,,,,,,,,,,5f46a4f25a01ee0369ccb14e,19,Mężczyzna,2022-06-25_15h32.01.931,task,2021.1.4,Win32,60.1612321,6299f149e92ead563fba08ef,62b70e474ce2e7f3be1ffd0c,pvrnmt,"[""p"",""v"",""r"",""n"",""m"",""t""]","[0.6228000000714928,0.9702000000476687,2.318300000071531,2.518400000095369,6.264300000071501,6.37310000002384,6.961000000000013]",0,PVRNHMT,15,0,15,0,1,,,,,,,,,,,,,,,,,,,,,,,,,,,,,,,,,,,,,,,,,,,,,,,,,,,,,,,,,,,,,,,,,,,,,,,,,,,,,,,,,,,,,,,,,,,
,,,,,,,,,,,,5f46a4f25a01ee0369ccb14e,19,Mężczyzna,2022-06-25_15h32.01.931,task,2021.1.4,Win32,60.1612321,6299f149e92ead563fba08ef,62b70e474ce2e7f3be1ffd0c,,,,,,,,,,,space,9.3527,7,"[""7""]",1,[11.132399999976144],[11.132399999976144],0,0,0,7,1,Practice,8,(5x5) - 18,7,,,,,,,,,,,,,,,,,,,,,,,,,,,,,,,,,,,,,,,,,,,,,,,,,,,,,,,,,,,,,,,,,,,,,,,,,,,
,,,,,,,,,,,,5f46a4f25a01ee0369ccb14e,19,Mężczyzna,2022-06-25_15h32.01.931,task,2021.1.4,Win32,60.1612321,6299f149e92ead563fba08ef,62b70e474ce2e7f3be1ffd0c,,,,,,,,,,,,,8,"[""8""]",1,[1.7261000000238482],"[11.132399999976144,1.7261000000238482]",0,1,1,8,1,Practice,9,(3x3) - 1,8,,,,,,,,,,,,,,,,,,,,,,,,,,,,,,,,,,,,,,,,,,,,,,,,,,,,,,,,,,,,,,,,,,,,,,,,,,,
,,,,,,,,,,,,5f46a4f25a01ee0369ccb14e,19,Mężczyzna,2022-06-25_15h32.01.931,task,2021.1.4,Win32,60.1612321,6299f149e92ead563fba08ef,62b70e474ce2e7f3be1ffd0c,,,,,,,,,,,,,9,"[""9""]",1,[2.135600000023828],"[11.132399999976144,1.7261000000238482,2.135600000023828]",0,2,2,9,1,Practice,10,(20/2) - 1,9,,,,,,,,,,,,,,,,,,,,,,,,,,,,,,,,,,,,,,,,,,,,,,,,,,,,,,,,,,,,,,,,,,,,,,,,,,,
,,,,,,,,,,,,5f46a4f25a01ee0369ccb14e,19,Mężczyzna,2022-06-25_15h32.01.931,task,2021.1.4,Win32,60.1612321,6299f149e92ead563fba08ef,62b70e474ce2e7f3be1ffd0c,,,,,,,,,,,,,6,"[""6""]",1,[2.3943999999762013],"[11.132399999976144,1.7261000000238482,2.135600000023828,2.3943999999762013]",0,3,3,6,1,Practice,7,(25/5) + 1,6,,,,,,,,,,,,,,,,,,,,,,,,,,,,,,,,,,,,,,,,,,,,,,,,,,,,,,,,,,,,,,,,,,,,,,,,,,,
,,,,,,,,,,,,5f46a4f25a01ee0369ccb14e,19,Mężczyzna,2022-06-25_15h32.01.931,task,2021.1.4,Win32,60.1612321,6299f149e92ead563fba08ef,62b70e474ce2e7f3be1ffd0c,,,,,,,,,,,,,5,"[""5""]",1,[2.2362000000476883],"[11.132399999976144,1.7261000000238482,2.135600000023828,2.3943999999762013,2.2362000000476883]",0,4,4,5,1,Practice,6,(4/2) + 3,5,,,,,,,,,,,,,,,,,,,,,,,,,,,,,,,,,,,,,,,,,,,,,,,,,,,,,,,,,,,,,,,,,,,,,,,,,,,
,,,,,,,,,,,,5f46a4f25a01ee0369ccb14e,19,Mężczyzna,2022-06-25_15h32.01.931,task,2021.1.4,Win32,60.1612321,6299f149e92ead563fba08ef,62b70e474ce2e7f3be1ffd0c,,,,,,,,,,,,,4,"[""4""]",1,[2.92940000009537],"[11.132399999976144,1.7261000000238482,2.135600000023828,2.3943999999762013,2.2362000000476883,2.92940000009537]",0,5,5,4,1,Practice,5,(2x6) - 8,4,,,,,,,,,,,,,,,,,,,,,,,,,,,,,,,,,,,,,,,,,,,,,,,,,,,,,,,,,,,,,,,,,,,,,,,,,,,
,,,,,,,,,,,,5f46a4f25a01ee0369ccb14e,19,Mężczyzna,2022-06-25_15h32.01.931,task,2021.1.4,Win32,60.1612321,6299f149e92ead563fba08ef,62b70e474ce2e7f3be1ffd0c,,,,,,,,,,,,,1,"[""1""]",1,[2.0523000000715683],"[11.132399999976144,1.7261000000238482,2.135600000023828,2.3943999999762013,2.2362000000476883,2.92940000009537,2.0523000000715683]",0,6,6,1,1,Practice,2,(4x4) - 15,1,,,,,,,,,,,,,,,,,,,,,,,,,,,,,,,,,,,,,,,,,,,,,,,,,,,,,,,,,,,,,,,,,,,,,,,,,,,
,,,,,,,,,,,,5f46a4f25a01ee0369ccb14e,19,Mężczyzna,2022-06-25_15h32.01.931,task,2021.1.4,Win32,60.1612321,6299f149e92ead563fba08ef,62b70e474ce2e7f3be1ffd0c,,,,,,,,,,,,,0,"[""0""]",1,[2.2668000000714983],"[11.132399999976144,1.7261000000238482,2.135600000023828,2.3943999999762013,2.2362000000476883,2.92940000009537,2.0523000000715683,2.2668000000714983]",0,7,7,0,1,Practice,1,(3x3) -  9,0,,,,,,,,,,,,,,,,,,,,,,,,,,,,,,,,,,,,,,,,,,,,,,,,,,,,,,,,,,,,,,,,,,,,,,,,,,,
,,,,,,,,,,,,5f46a4f25a01ee0369ccb14e,19,Mężczyzna,2022-06-25_15h32.01.931,task,2021.1.4,Win32,60.1612321,6299f149e92ead563fba08ef,62b70e474ce2e7f3be1ffd0c,,,,,,,,,,,,,2,"[""2""]",1,[3.909700000047735],"[11.132399999976144,1.7261000000238482,2.135600000023828,2.3943999999762013,2.2362000000476883,2.92940000009537,2.0523000000715683,2.2668000000714983,3.909700000047735]",0,8,8,2,1,Practice,3,(4x4) - 14,2,,,,,,,,,,,,,,,,,,,,,,,,,,,,,,,,,,,,,,,,,,,,,,,,,,,,,,,,,,,,,,,,,,,,,,,,,,,
,,,,,,,,,,,,5f46a4f25a01ee0369ccb14e,19,Mężczyzna,2022-06-25_15h32.01.931,task,2021.1.4,Win32,60.1612321,6299f149e92ead563fba08ef,62b70e474ce2e7f3be1ffd0c,,,,,,,,,,,,,3,"[""3""]",1,[2.4525999999046917],"[11.132399999976144,1.7261000000238482,2.135600000023828,2.3943999999762013,2.2362000000476883,2.92940000009537,2.0523000000715683,2.2668000000714983,3.909700000047735,2.4525999999046917]",0,9,9,3,1,Practice,4,(8/4) + 1,3,,,,,,,,,,,,,,,,,,,,,,,,,,,,,,,,,,,,,,,,,,,,,,,,,,,,,,,,,,,,,,,,,,,,,,,,,,,
,,,,,,,,,,,,5f46a4f25a01ee0369ccb14e,19,Mężczyzna,2022-06-25_15h32.01.931,task,2021.1.4,Win32,60.1612321,6299f149e92ead563fba08ef,62b70e474ce2e7f3be1ffd0c,,,,,,,,,,,,,,,,,,,,,,,,,,,1,33.2355,2.2157,83.25045307,2.355850208,8.293793538,space,1.8383,0,0,0,0,1,,,,,,,,,,,,,,,,,,,,,,,,,,,,,,,,,,,,,,,,,,,,,,,,,,,,,,,,,,,,,,
,,,,,,,,,,,,5f46a4f25a01ee0369ccb14e,19,Mężczyzna,2022-06-25_15h32.01.931,task,2021.1.4,Win32,60.1612321,6299f149e92ead563fba08ef,62b70e474ce2e7f3be1ffd0c,,,,,,,,,,,,,8,,,,,,,,,,Practice,9,(3x3) - 1,8,,,,,,,,,,,,,,space,61.5439,"[""8""]",1,[4.184000000000083],1,0,0,0,8,1,,,,,,,,,,,,,,,,,,,,,,,,,,,,,,,,,,,,,,,,,,,,,,,,,,,
,,,,,,,,,,,X V Q F H G B L J M P D K C T S W R N Z,5f46a4f25a01ee0369ccb14e,19,Mężczyzna,2022-06-25_15h32.01.931,task,2021.1.4,Win32,60.1612321,6299f149e92ead563fba08ef,62b70e474ce2e7f3be1ffd0c,,,,,,,,,,,,,,,,,,,,,,,,,,,,,,,,,,,,,,,,,,,,,,,,,,,0,0,0,0,1,,,,,,,,,,,,,,,,,,,,,,,,,,,,,,,,,,,,,,,,,,,,,,
,,,,,,,,,,,,5f46a4f25a01ee0369ccb14e,19,Mężczyzna,2022-06-25_15h32.01.931,task,2021.1.4,Win32,60.1612321,6299f149e92ead563fba08ef,62b70e474ce2e7f3be1ffd0c,,,,,,,,,,,,,9,,,,,,,,,,Practice,10,(20/2) - 1,9,,,,,,,,,,,,,,,,"[""9""]",1,[3.556799999952318],1,0,0,0,9,1,,,,,,,,,,,,,,,,,,,,,,,,,,,,,,,,,,,,,,,,,,,,,,,,,,,
,,,,,,,,,,,X V Q F H G B L J M P D K C T S W R N Z,5f46a4f25a01ee0369ccb14e,19,Mężczyzna,2022-06-25_15h32.01.931,task,2021.1.4,Win32,60.1612321,6299f149e92ead563fba08ef,62b70e474ce2e7f3be1ffd0c,,,,,,,,,,,,,,,,,,,,,,,,,,,,,,,,,,,,,,,,,,,,,,,,,,,1,0,1,0,1,,,,,,,,,,,,,,,,,,,,,,,,,,,,,,,,,,,,,,,,,,,,,,
,,,,,,,,,,,,5f46a4f25a01ee0369ccb14e,19,Mężczyzna,2022-06-25_15h32.01.931,task,2021.1.4,Win32,60.1612321,6299f149e92ead563fba08ef,62b70e474ce2e7f3be1ffd0c,,,,,,,,,,,,,,,,,,,,,,,,,,,,,,,,,,,,,,,,,,,,,,,,,,,,,,,,zj,"[""z"",""j""]",0,"[2.5942000000476355,2.8863999999761063,3.3698999999761554]",1,0,0,0,0,1,,,,,,,,,,,,,,,,,,,,,,,,,,,,,,,,,,,,
,,,,,,,,,,,,5f46a4f25a01ee0369ccb14e,19,Mężczyzna,2022-06-25_15h32.01.931,task,2021.1.4,Win32,60.1612321,6299f149e92ead563fba08ef,62b70e474ce2e7f3be1ffd0c,,,,,,,,,,,,,1,,,,,,,,,,Practice,2,(4x4) - 15,1,,,,,,,,,,,,,,,,"[""1""]",1,[1.81870000004767],1,0,0,0,1,1,,,,,,,,,,,,,,,,,,,,,,,,,,,,,,,,,,,,,,,,,,,,,,,,,,,
,,,,,,,,,,,X V Q F H G B L J M P D K C T S W R N Z,5f46a4f25a01ee0369ccb14e,19,Mężczyzna,2022-06-25_15h32.01.931,task,2021.1.4,Win32,60.1612321,6299f149e92ead563fba08ef,62b70e474ce2e7f3be1ffd0c,,,,,,,,,,,,,,,,,,,,,,,,,,,,,,,,,,,,,,,,,,,,,,,,,,,0,0,0,0,1,,,,,,,,,,,,,,,,,,,,,,,,,,,,,,,,,,,,,,,,,,,,,,
,,,,,,,,,,,,5f46a4f25a01ee0369ccb14e,19,Mężczyzna,2022-06-25_15h32.01.931,task,2021.1.4,Win32,60.1612321,6299f149e92ead563fba08ef,62b70e474ce2e7f3be1ffd0c,,,,,,,,,,,,,0,,,,,,,,,,Practice,1,(3x3) -  9,0,,,,,,,,,,,,,,,,"[""0""]",1,[1.820699999928479],1,0,0,0,0,1,,,,,,,,,,,,,,,,,,,,,,,,,,,,,,,,,,,,,,,,,,,,,,,,,,,
,,,,,,,,,,,X V Q F H G B L J M P D K C T S W R N Z,5f46a4f25a01ee0369ccb14e,19,Mężczyzna,2022-06-25_15h32.01.931,task,2021.1.4,Win32,60.1612321,6299f149e92ead563fba08ef,62b70e474ce2e7f3be1ffd0c,,,,,,,,,,,,,,,,,,,,,,,,,,,,,,,,,,,,,,,,,,,,,,,,,,,1,0,1,0,1,,,,,,,,,,,,,,,,,,,,,,,,,,,,,,,,,,,,,,,,,,,,,,
,,,,,,,,,,,,5f46a4f25a01ee0369ccb14e,19,Mężczyzna,2022-06-25_15h32.01.931,task,2021.1.4,Win32,60.1612321,6299f149e92ead563fba08ef,62b70e474ce2e7f3be1ffd0c,,,,,,,,,,,,,,,,,,,,,,,,,,,,,,,,,,,,,,,,,,,,,,,,,,,,,,,,qt,"[""q"",""t""]",0,"[1.4035000000000082,1.8360000000000127,2.500899999976127]",1,1,0,1,0,1,,,,,,,,,,,,,,,,,,,,,,,,,,,,,,,,,,,,
,,,,,,,,,,,,5f46a4f25a01ee0369ccb14e,19,Mężczyzna,2022-06-25_15h32.01.931,task,2021.1.4,Win32,60.1612321,6299f149e92ead563fba08ef,62b70e474ce2e7f3be1ffd0c,,,,,,,,,,,,,9,,,,,,,,,,Practice,10,(20/2) - 1,9,,,,,,,,,,,,,,,,"[""9""]",1,[1.8106000000238964],1,0,0,0,9,1,,,,,,,,,,,,,,,,,,,,,,,,,,,,,,,,,,,,,,,,,,,,,,,,,,,
,,,,,,,,,,,X V Q F H G B L J M P D K C T S W R N Z,5f46a4f25a01ee0369ccb14e,19,Mężczyzna,2022-06-25_15h32.01.931,task,2021.1.4,Win32,60.1612321,6299f149e92ead563fba08ef,62b70e474ce2e7f3be1ffd0c,,,,,,,,,,,,,,,,,,,,,,,,,,,,,,,,,,,,,,,,,,,,,,,,,,,0,0,0,0,1,,,,,,,,,,,,,,,,,,,,,,,,,,,,,,,,,,,,,,,,,,,,,,
,,,,,,,,,,,,5f46a4f25a01ee0369ccb14e,19,Mężczyzna,2022-06-25_15h32.01.931,task,2021.1.4,Win32,60.1612321,6299f149e92ead563fba08ef,62b70e474ce2e7f3be1ffd0c,,,,,,,,,,,,,0,,,,,,,,,,Practice,1,(3x3) -  9,0,,,,,,,,,,,,,,,,"[""0""]",1,[1.0070999999046535],1,0,0,0,0,1,,,,,,,,,,,,,,,,,,,,,,,,,,,,,,,,,,,,,,,,,,,,,,,,,,,
,,,,,,,,,,,X V Q F H G B L J M P D K C T S W R N Z,5f46a4f25a01ee0369ccb14e,19,Mężczyzna,2022-06-25_15h32.01.931,task,2021.1.4,Win32,60.1612321,6299f149e92ead563fba08ef,62b70e474ce2e7f3be1ffd0c,,,,,,,,,,,,,,,,,,,,,,,,,,,,,,,,,,,,,,,,,,,,,,,,,,,1,0,1,0,1,,,,,,,,,,,,,,,,,,,,,,,,,,,,,,,,,,,,,,,,,,,,,,
,,,,,,,,,,,,5f46a4f25a01ee0369ccb14e,19,Mężczyzna,2022-06-25_15h32.01.931,task,2021.1.4,Win32,60.1612321,6299f149e92ead563fba08ef,62b70e474ce2e7f3be1ffd0c,,,,,,,,,,,,,,,,,,,,,,,,,,,,,,,,,,,,,,,,,,,,,,,,,,,,,,,,xg,"[""x"",""g""]",0,"[1.0841000000239092,1.4438999999762245,2.076100000023871]",1,2,0,2,0,1,,,,,,,,,,,,,,,,,,,,,,,,,,,,,,,,,,,,
,,,,,,,,,,,,5f46a4f25a01ee0369ccb14e,19,Mężczyzna,2022-06-25_15h32.01.931,task,2021.1.4,Win32,60.1612321,6299f149e92ead563fba08ef,62b70e474ce2e7f3be1ffd0c,,,,,,,,,,,,,2,,,,,,,,,,Task,2,(2x2) - 2,2,,,,,,,,,,,,,,,,,,,1,,,,,,,,,,,,,,,,,,,,,space,24.7128,"[""2""]",1,[1.6636999999284399],0,0,0,1,1,,,,,,,,,,,,,,,,,,,,,,,,,,
,,,,,,,,,,,X V Q F H G B L J M P D K C T S W R N Z,5f46a4f25a01ee0369ccb14e,19,Mężczyzna,2022-06-25_15h32.01.931,task,2021.1.4,Win32,60.1612321,6299f149e92ead563fba08ef,62b70e474ce2e7f3be1ffd0c,,,,,,,,,,,,,,,,,,,,,,,,,,,,,,,,,,,,,,,,,,,,,,,,,,,,,,,,,,,,,,,,,,,,,,,,,,,,0,0,0,0,1,,,,,,,,,,,,,,,,,,,,,
,,,,,,,,,,,,5f46a4f25a01ee0369ccb14e,19,Mężczyzna,2022-06-25_15h32.01.931,task,2021.1.4,Win32,60.1612321,6299f149e92ead563fba08ef,62b70e474ce2e7f3be1ffd0c,,,,,,,,,,,,,,,,,,,,,,,Task,15,(3x7) - 13,8,,,,,,,,,,,,,,,,,,,0,,,,,,,,,,,,,,,,,,,,,,,,0,,0,0,0,14,1,,,,,,,,,,,,,,,,,,,,,,,,,,
,,,,,,,,,,,,5f46a4f25a01ee0369ccb14e,19,Mężczyzna,2022-06-25_15h32.01.931,task,2021.1.4,Win32,60.1612321,6299f149e92ead563fba08ef,62b70e474ce2e7f3be1ffd0c,,,,,,,,,,,,,0,,,,,,,,,,Task,33,(1/1) - 1,0,,,,,,,,,,,,,,,,,,,1,,,,,,,,,,,,,,,,,,,,,,,"[""0""]",1,[4.1869000000953065],0,1,1,32,1,,,,,,,,,,,,,,,,,,,,,,,,,,
,,,,,,,,,,,X V Q F H G B L J M P D K C T S W R N Z,5f46a4f25a01ee0369ccb14e,19,Mężczyzna,2022-06-25_15h32.01.931,task,2021.1.4,Win32,60.1612321,6299f149e92ead563fba08ef,62b70e474ce2e7f3be1ffd0c,,,,,,,,,,,,,,,,,,,,,,,,,,,,,,,,,,,,,,,,,,,,,,,,,,,,,,,,,,,,,,,,,,,,,,,,,,,,1,0,1,0,1,,,,,,,,,,,,,,,,,,,,,
,,,,,,,,,,,,5f46a4f25a01ee0369ccb14e,19,Mężczyzna,2022-06-25_15h32.01.931,task,2021.1.4,Win32,60.1612321,6299f149e92ead563fba08ef,62b70e474ce2e7f3be1ffd0c,,,,,,,,,,,,,,,,,,,,,,,,,,,,,,,,,,,,,,,,,,,,,,,,,,,,,,,,,,,,,,,,,,,,,,,,,,,,,,,,,zd,"[""z"",""d""]",0,"[1.370700000047691,1.5623000000714455,2.097899999976107]",1,ZD,0,0,0,0,1,,,,,,,,,,
,,,,,,,,,,,,5f46a4f25a01ee0369ccb14e,19,Mężczyzna,2022-06-25_15h32.01.931,task,2021.1.4,Win32,60.1612321,6299f149e92ead563fba08ef,62b70e474ce2e7f3be1ffd0c,,,,,,,,,,,,,6,,,,,,,,,,Task,13,(3x4) - 6,6,,,,,,,,,,,,,,,,,,,1,,,,,,,,,,,,,,,,,,,,,,,"[""6""]",1,[2.317899999976248],0,0,0,12,1,,,,,,,,,,,,,,,,,,,,,,,,,,
,,,,,,,,,,,X V Q F H G B L J M P D K C T S W R N Z,5f46a4f25a01ee0369ccb14e,19,Mężczyzna,2022-06-25_15h32.01.931,task,2021.1.4,Win32,60.1612321,6299f149e92ead563fba08ef,62b70e474ce2e7f3be1ffd0c,,,,,,,,,,,,,,,,,,,,,,,,,,,,,,,,,,,,,,,,,,,,,,,,,,,,,,,,,,,,,,,,,,,,,,,,,,,,0,0,0,0,1,,,,,,,,,,,,,,,,,,,,,
,,,,,,,,,,,,5f46a4f25a01ee0369ccb14e,19,Mężczyzna,2022-06-25_15h32.01.931,task,2021.1.4,Win32,60.1612321,6299f149e92ead563fba08ef,62b70e474ce2e7f3be1ffd0c,,,,,,,,,,,,,3,,,,,,,,,,Task,35,(1x2) + 1,3,,,,,,,,,,,,,,,,,,,1,,,,,,,,,,,,,,,,,,,,,,,"[""3""]",1,[1.6210999999046862],0,0,0,34,1,,,,,,,,,,,,,,,,,,,,,,,,,,
,,,,,,,,,,,X V Q F H G B L J M P D K C T S W R N Z,5f46a4f25a01ee0369ccb14e,19,Mężczyzna,2022-06-25_15h32.01.931,task,2021.1.4,Win32,60.1612321,6299f149e92ead563fba08ef,62b70e474ce2e7f3be1ffd0c,,,,,,,,,,,,,,,,,,,,,,,,,,,,,,,,,,,,,,,,,,,,,,,,,,,,,,,,,,,,,,,,,,,,,,,,,,,,1,0,1,0,1,,,,,,,,,,,,,,,,,,,,,
,,,,,,,,,,,,5f46a4f25a01ee0369ccb14e,19,Mężczyzna,2022-06-25_15h32.01.931,task,2021.1.4,Win32,60.1612321,6299f149e92ead563fba08ef,62b70e474ce2e7f3be1ffd0c,,,,,,,,,,,,,1,,,,,,,,,,Task,1,(12/6) - 1,1,,,,,,,,,,,,,,,,,,,1,,,,,,,,,,,,,,,,,,,,,,,"[""1""]",1,[2.6298999999761463],0,0,0,0,1,,,,,,,,,,,,,,,,,,,,,,,,,,
,,,,,,,,,,,X V Q F H G B L J M P D K C T S W R N Z,5f46a4f25a01ee0369ccb14e,19,Mężczyzna,2022-06-25_15h32.01.931,task,2021.1.4,Win32,60.1612321,6299f149e92ead563fba08ef,62b70e474ce2e7f3be1ffd0c,,,,,,,,,,,,,,,,,,,,,,,,,,,,,,,,,,,,,,,,,,,,,,,,,,,,,,,,,,,,,,,,,,,,,,,,,,,,2,0,2,0,1,,,,,,,,,,,,,,,,,,,,,
,,,,,,,,,,,,5f46a4f25a01ee0369ccb14e,19,Mężczyzna,2022-06-25_15h32.01.931,task,2021.1.4,Win32,60.1612321,6299f149e92ead563fba08ef,62b70e474ce2e7f3be1ffd0c,,,,,,,,,,,,,,,,,,,,,,,,,,,,,,,,,,,,,,,,,,,,,,,,,,,,,,,,,,,,,,,,,,,,,,,,,,,,,,,,,xxp,"[""x"",""x"",""p""]",0,"[0.9194999999999709,1.0922000000476828,1.9589000000953547,2.586999999999989]",1,XXP,1,0,1,0,1,,,,,,,,,,
,,,,,,,,,,,,5f46a4f25a01ee0369ccb14e,19,Mężczyzna,2022-06-25_15h32.01.931,task,2021.1.4,Win32,60.1612321,6299f149e92ead563fba08ef,62b70e474ce2e7f3be1ffd0c,,,,,,,,,,,,,7,,,,,,,,,,Task,6,(12/2) + 1,7,,,,,,,,,,,,,,,,,,,1,,,,,,,,,,,,,,,,,,,,,,,"[""7""]",1,[2.351799999952277],0,0,0,5,1,,,,,,,,,,,,,,,,,,,,,,,,,,
,,,,,,,,,,,X V Q F H G B L J M P D K C T S W R N Z,5f46a4f25a01ee0369ccb14e,19,Mężczyzna,2022-06-25_15h32.01.931,task,2021.1.4,Win32,60.1612321,6299f149e92ead563fba08ef,62b70e474ce2e7f3be1ffd0c,,,,,,,,,,,,,,,,,,,,,,,,,,,,,,,,,,,,,,,,,,,,,,,,,,,,,,,,,,,,,,,,,,,,,,,,,,,,0,0,0,0,1,,,,,,,,,,,,,,,,,,,,,
,,,,,,,,,,,,5f46a4f25a01ee0369ccb14e,19,Mężczyzna,2022-06-25_15h32.01.931,task,2021.1.4,Win32,60.1612321,6299f149e92ead563fba08ef,62b70e474ce2e7f3be1ffd0c,,,,,,,,,,,,,9,,,,,,,,,,Task,40,(7x2) - 5,9,,,,,,,,,,,,,,,,,,,1,,,,,,,,,,,,,,,,,,,,,,,"[""9""]",1,[2.6196000000238655],0,0,0,39,1,,,,,,,,,,,,,,,,,,,,,,,,,,
,,,,,,,,,,,X V Q F H G B L J M P D K C T S W R N Z,5f46a4f25a01ee0369ccb14e,19,Mężczyzna,2022-06-25_15h32.01.931,task,2021.1.4,Win32,60.1612321,6299f149e92ead563fba08ef,62b70e474ce2e7f3be1ffd0c,,,,,,,,,,,,,,,,,,,,,,,,,,,,,,,,,,,,,,,,,,,,,,,,,,,,,,,,,,,,,,,,,,,,,,,,,,,,1,0,1,0,1,,,,,,,,,,,,,,,,,,,,,
,,,,,,,,,,,,5f46a4f25a01ee0369ccb14e,19,Mężczyzna,2022-06-25_15h32.01.931,task,2021.1.4,Win32,60.1612321,6299f149e92ead563fba08ef,62b70e474ce2e7f3be1ffd0c,,,,,,,,,,,,,2,,,,,,,,,,Task,19,(6/2) - 1,2,,,,,,,,,,,,,,,,,,,1,,,,,,,,,,,,,,,,,,,,,,,"[""2""]",1,[2.5627999999524036],0,0,0,18,1,,,,,,,,,,,,,,,,,,,,,,,,,,
,,,,,,,,,,,X V Q F H G B L J M P D K C T S W R N Z,5f46a4f25a01ee0369ccb14e,19,Mężczyzna,2022-06-25_15h32.01.931,task,2021.1.4,Win32,60.1612321,6299f149e92ead563fba08ef,62b70e474ce2e7f3be1ffd0c,,,,,,,,,,,,,,,,,,,,,,,,,,,,,,,,,,,,,,,,,,,,,,,,,,,,,,,,,,,,,,,,,,,,,,,,,,,,2,0,2,0,1,,,,,,,,,,,,,,,,,,,,,
,,,,,,,,,,,,5f46a4f25a01ee0369ccb14e,19,Mężczyzna,2022-06-25_15h32.01.931,task,2021.1.4,Win32,60.1612321,6299f149e92ead563fba08ef,62b70e474ce2e7f3be1ffd0c,,,,,,,,,,,,,3,,,,,,,,,,Task,3,(2x3) - 3,3,,,,,,,,,,,,,,,,,,,1,,,,,,,,,,,,,,,,,,,,,,,"[""3""]",1,[1.6461000000238073],0,0,0,2,1,,,,,,,,,,,,,,,,,,,,,,,,,,
,,,,,,,,,,,X V Q F H G B L J M P D K C T S W R N Z,5f46a4f25a01ee0369ccb14e,19,Mężczyzna,2022-06-25_15h32.01.931,task,2021.1.4,Win32,60.1612321,6299f149e92ead563fba08ef,62b70e474ce2e7f3be1ffd0c,,,,,,,,,,,,,,,,,,,,,,,,,,,,,,,,,,,,,,,,,,,,,,,,,,,,,,,,,,,,,,,,,,,,,,,,,,,,3,0,3,0,1,,,,,,,,,,,,,,,,,,,,,
,,,,,,,,,,,,5f46a4f25a01ee0369ccb14e,19,Mężczyzna,2022-06-25_15h32.01.931,task,2021.1.4,Win32,60.1612321,6299f149e92ead563fba08ef,62b70e474ce2e7f3be1ffd0c,,,,,,,,,,,,,,,,,,,,,,,,,,,,,,,,,,,,,,,,,,,,,,,,,,,,,,,,,,,,,,,,,,,,,,,,,,,,,,,,,kbxl,"[""k"",""b"",""x"",""l""]",0,"[1.4510000000000218,1.9682999999522508,2.218299999952251,2.535399999976107,3.0014999999999645]",1,KBXL,2,0,2,0,1,,,,,,,,,,
,,,,,,,,,,,,5f46a4f25a01ee0369ccb14e,19,Mężczyzna,2022-06-25_15h32.01.931,task,2021.1.4,Win32,60.1612321,6299f149e92ead563fba08ef,62b70e474ce2e7f3be1ffd0c,,,,,,,,,,,,,1,,,,,,,,,,Task,15,(3x7) - 13,8,,,,,,,,,,,,,,,,,,,0,,,,,,,,,,,,,,,,,,,,,,,"[""1""]",0,[1.5431000000238555],0,0,0,14,1,,,,,,,,,,,,,,,,,,,,,,,,,,
,,,,,,,,,,,,5f46a4f25a01ee0369ccb14e,19,Mężczyzna,2022-06-25_15h32.01.931,task,2021.1.4,Win32,60.1612321,6299f149e92ead563fba08ef,62b70e474ce2e7f3be1ffd0c,,,,,,,,,,,,,5,,,,,,,,,,Task,12,(4x4) - 11,5,,,,,,,,,,,,,,,,,,,1,,,,,,,,,,,,,,,,,,,,,,,"[""5""]",1,[1.5862999999523026],0,1,1,11,1,,,,,,,,,,,,,,,,,,,,,,,,,,
,,,,,,,,,,,X V Q F H G B L J M P D K C T S W R N Z,5f46a4f25a01ee0369ccb14e,19,Mężczyzna,2022-06-25_15h32.01.931,task,2021.1.4,Win32,60.1612321,6299f149e92ead563fba08ef,62b70e474ce2e7f3be1ffd0c,,,,,,,,,,,,,,,,,,,,,,,,,,,,,,,,,,,,,,,,,,,,,,,,,,,,,,,,,,,,,,,,,,,,,,,,,,,,0,0,0,0,1,,,,,,,,,,,,,,,,,,,,,
,,,,,,,,,,,,5f46a4f25a01ee0369ccb14e,19,Mężczyzna,2022-06-25_15h32.01.931,task,2021.1.4,Win32,60.1612321,6299f149e92ead563fba08ef,62b70e474ce2e7f3be1ffd0c,,,,,,,,,,,,,0,,,,,,,,,,Task,17,(2x3) - 6,0,,,,,,,,,,,,,,,,,,,1,,,,,,,,,,,,,,,,,,,,,,,"[""0""]",1,[1.7777999999523217],0,0,0,16,1,,,,,,,,,,,,,,,,,,,,,,,,,,
,,,,,,,,,,,X V Q F H G B L J M P D K C T S W R N Z,5f46a4f25a01ee0369ccb14e,19,Mężczyzna,2022-06-25_15h32.01.931,task,2021.1.4,Win32,60.1612321,6299f149e92ead563fba08ef,62b70e474ce2e7f3be1ffd0c,,,,,,,,,,,,,,,,,,,,,,,,,,,,,,,,,,,,,,,,,,,,,,,,,,,,,,,,,,,,,,,,,,,,,,,,,,,,1,0,1,0,1,,,,,,,,,,,,,,,,,,,,,
,,,,,,,,,,,,5f46a4f25a01ee0369ccb14e,19,Mężczyzna,2022-06-25_15h32.01.931,task,2021.1.4,Win32,60.1612321,6299f149e92ead563fba08ef,62b70e474ce2e7f3be1ffd0c,,,,,,,,,,,,,7,,,,,,,,,,Task,6,(12/2) + 1,7,,,,,,,,,,,,,,,,,,,1,,,,,,,,,,,,,,,,,,,,,,,"[""7""]",1,[1.534100000023841],0,0,0,5,1,,,,,,,,,,,,,,,,,,,,,,,,,,
,,,,,,,,,,,X V Q F H G B L J M P D K C T S W R N Z,5f46a4f25a01ee0369ccb14e,19,Mężczyzna,2022-06-25_15h32.01.931,task,2021.1.4,Win32,60.1612321,6299f149e92ead563fba08ef,62b70e474ce2e7f3be1ffd0c,,,,,,,,,,,,,,,,,,,,,,,,,,,,,,,,,,,,,,,,,,,,,,,,,,,,,,,,,,,,,,,,,,,,,,,,,,,,2,0,2,0,1,,,,,,,,,,,,,,,,,,,,,
,,,,,,,,,,,,5f46a4f25a01ee0369ccb14e,19,Mężczyzna,2022-06-25_15h32.01.931,task,2021.1.4,Win32,60.1612321,6299f149e92ead563fba08ef,62b70e474ce2e7f3be1ffd0c,,,,,,,,,,,,,5,,,,,,,,,,Task,12,(4x4) - 11,5,,,,,,,,,,,,,,,,,,,1,,,,,,,,,,,,,,,,,,,,,,,"[""5""]",1,[1.4679000000953693],0,0,0,11,1,,,,,,,,,,,,,,,,,,,,,,,,,,
,,,,,,,,,,,X V Q F H G B L J M P D K C T S W R N Z,5f46a4f25a01ee0369ccb14e,19,Mężczyzna,2022-06-25_15h32.01.931,task,2021.1.4,Win32,60.1612321,6299f149e92ead563fba08ef,62b70e474ce2e7f3be1ffd0c,,,,,,,,,,,,,,,,,,,,,,,,,,,,,,,,,,,,,,,,,,,,,,,,,,,,,,,,,,,,,,,,,,,,,,,,,,,,3,0,3,0,1,,,,,,,,,,,,,,,,,,,,,
,,,,,,,,,,,,5f46a4f25a01ee0369ccb14e,19,Mężczyzna,2022-06-25_15h32.01.931,task,2021.1.4,Win32,60.1612321,6299f149e92ead563fba08ef,62b70e474ce2e7f3be1ffd0c,,,,,,,,,,,,,9,,,,,,,,,,Task,40,(7x2) - 5,9,,,,,,,,,,,,,,,,,,,1,,,,,,,,,,,,,,,,,,,,,,,"[""9""]",1,[2.31899999999996],0,0,0,39,1,,,,,,,,,,,,,,,,,,,,,,,,,,
,,,,,,,,,,,X V Q F H G B L J M P D K C T S W R N Z,5f46a4f25a01ee0369ccb14e,19,Mężczyzna,2022-06-25_15h32.01.931,task,2021.1.4,Win32,60.1612321,6299f149e92ead563fba08ef,62b70e474ce2e7f3be1ffd0c,,,,,,,,,,,,,,,,,,,,,,,,,,,,,,,,,,,,,,,,,,,,,,,,,,,,,,,,,,,,,,,,,,,,,,,,,,,,4,0,4,0,1,,,,,,,,,,,,,,,,,,,,,
,,,,,,,,,,,,5f46a4f25a01ee0369ccb14e,19,Mężczyzna,2022-06-25_15h32.01.931,task,2021.1.4,Win32,60.1612321,6299f149e92ead563fba08ef,62b70e474ce2e7f3be1ffd0c,,,,,,,,,,,,,,,,,,,,,,,,,,,,,,,,,,,,,,,,,,,,,,,,,,,,,,,,,,,,,,,,,,,,,,,,,,,,,,,,,xzrhm,"[""x"",""z"",""r"",""h"",""m""]",0,"[1.0522999999523108,1.1597999999523836,1.4395000000000664,1.7177999999523763,2.001699999928519,2.5855000000000246]",1,XZRHM,3,0,3,0,1,,,,,,,,,,
,,,,,,,,,,,,5f46a4f25a01ee0369ccb14e,19,Mężczyzna,2022-06-25_15h32.01.931,task,2021.1.4,Win32,60.1612321,6299f149e92ead563fba08ef,62b70e474ce2e7f3be1ffd0c,,,,,,,,,,,,,6,,,,,,,,,,Task,5,(2x3) + 0,6,,,,,,,,,,,,,,,,,,,1,,,,,,,,,,,,,,,,,,,,,,,"[""6""]",1,[2.5431000000238555],0,0,0,4,1,,,,,,,,,,,,,,,,,,,,,,,,,,
,,,,,,,,,,,X V Q F H G B L J M P D K C T S W R N Z,5f46a4f25a01ee0369ccb14e,19,Mężczyzna,2022-06-25_15h32.01.931,task,2021.1.4,Win32,60.1612321,6299f149e92ead563fba08ef,62b70e474ce2e7f3be1ffd0c,,,,,,,,,,,,,,,,,,,,,,,,,,,,,,,,,,,,,,,,,,,,,,,,,,,,,,,,,,,,,,,,,,,,,,,,,,,,0,0,0,0,1,,,,,,,,,,,,,,,,,,,,,
,,,,,,,,,,,,5f46a4f25a01ee0369ccb14e,19,Mężczyzna,2022-06-25_15h32.01.931,task,2021.1.4,Win32,60.1612321,6299f149e92ead563fba08ef,62b70e474ce2e7f3be1ffd0c,,,,,,,,,,,,,8,,,,,,,,,,Task,23,(2x3) + 2,8,,,,,,,,,,,,,,,,,,,1,,,,,,,,,,,,,,,,,,,,,,,"[""8""]",1,[1.6178000000714974],0,0,0,22,1,,,,,,,,,,,,,,,,,,,,,,,,,,
,,,,,,,,,,,X V Q F H G B L J M P D K C T S W R N Z,5f46a4f25a01ee0369ccb14e,19,Mężczyzna,2022-06-25_15h32.01.931,task,2021.1.4,Win32,60.1612321,6299f149e92ead563fba08ef,62b70e474ce2e7f3be1ffd0c,,,,,,,,,,,,,,,,,,,,,,,,,,,,,,,,,,,,,,,,,,,,,,,,,,,,,,,,,,,,,,,,,,,,,,,,,,,,1,0,1,0,1,,,,,,,,,,,,,,,,,,,,,
,,,,,,,,,,,,5f46a4f25a01ee0369ccb14e,19,Mężczyzna,2022-06-25_15h32.01.931,task,2021.1.4,Win32,60.1612321,6299f149e92ead563fba08ef,62b70e474ce2e7f3be1ffd0c,,,,,,,,,,,,,2,,,,,,,,,,Task,2,(2x2) - 2,2,,,,,,,,,,,,,,,,,,,1,,,,,,,,,,,,,,,,,,,,,,,"[""2""]",1,[1.3584999999999354],0,0,0,1,1,,,,,,,,,,,,,,,,,,,,,,,,,,
,,,,,,,,,,,X V Q F H G B L J M P D K C T S W R N Z,5f46a4f25a01ee0369ccb14e,19,Mężczyzna,2022-06-25_15h32.01.931,task,2021.1.4,Win32,60.1612321,6299f149e92ead563fba08ef,62b70e474ce2e7f3be1ffd0c,,,,,,,,,,,,,,,,,,,,,,,,,,,,,,,,,,,,,,,,,,,,,,,,,,,,,,,,,,,,,,,,,,,,,,,,,,,,2,0,2,0,1,,,,,,,,,,,,,,,,,,,,,
,,,,,,,,,,,,5f46a4f25a01ee0369ccb14e,19,Mężczyzna,2022-06-25_15h32.01.931,task,2021.1.4,Win32,60.1612321,6299f149e92ead563fba08ef,62b70e474ce2e7f3be1ffd0c,,,,,,,,,,,,,3,,,,,,,,,,Task,3,(2x3) - 3,3,,,,,,,,,,,,,,,,,,,1,,,,,,,,,,,,,,,,,,,,,,,"[""3""]",1,[2.5462000000476337],0,0,0,2,1,,,,,,,,,,,,,,,,,,,,,,,,,,
,,,,,,,,,,,X V Q F H G B L J M P D K C T S W R N Z,5f46a4f25a01ee0369ccb14e,19,Mężczyzna,2022-06-25_15h32.01.931,task,2021.1.4,Win32,60.1612321,6299f149e92ead563fba08ef,62b70e474ce2e7f3be1ffd0c,,,,,,,,,,,,,,,,,,,,,,,,,,,,,,,,,,,,,,,,,,,,,,,,,,,,,,,,,,,,,,,,,,,,,,,,,,,,3,0,3,0,1,,,,,,,,,,,,,,,,,,,,,
,,,,,,,,,,,,5f46a4f25a01ee0369ccb14e,19,Mężczyzna,2022-06-25_15h32.01.931,task,2021.1.4,Win32,60.1612321,6299f149e92ead563fba08ef,62b70e474ce2e7f3be1ffd0c,,,,,,,,,,,,,2,,,,,,,,,,Task,26,(2x9) - 16,2,,,,,,,,,,,,,,,,,,,1,,,,,,,,,,,,,,,,,,,,,,,"[""2""]",1,[2.4440000000000737],0,0,0,25,1,,,,,,,,,,,,,,,,,,,,,,,,,,
,,,,,,,,,,,X V Q F H G B L J M P D K C T S W R N Z,5f46a4f25a01ee0369ccb14e,19,Mężczyzna,2022-06-25_15h32.01.931,task,2021.1.4,Win32,60.1612321,6299f149e92ead563fba08ef,62b70e474ce2e7f3be1ffd0c,,,,,,,,,,,,,,,,,,,,,,,,,,,,,,,,,,,,,,,,,,,,,,,,,,,,,,,,,,,,,,,,,,,,,,,,,,,,4,0,4,0,1,,,,,,,,,,,,,,,,,,,,,
,,,,,,,,,,,,5f46a4f25a01ee0369ccb14e,19,Mężczyzna,2022-06-25_15h32.01.931,task,2021.1.4,Win32,60.1612321,6299f149e92ead563fba08ef,62b70e474ce2e7f3be1ffd0c,,,,,,,,,,,,,6,,,,,,,,,,Task,13,(3x4) - 6,6,,,,,,,,,,,,,,,,,,,1,,,,,,,,,,,,,,,,,,,,,,,"[""6""]",1,[2.677299999952311],0,0,0,12,1,,,,,,,,,,,,,,,,,,,,,,,,,,
,,,,,,,,,,,X V Q F H G B L J M P D K C T S W R N Z,5f46a4f25a01ee0369ccb14e,19,Mężczyzna,2022-06-25_15h32.01.931,task,2021.1.4,Win32,60.1612321,6299f149e92ead563fba08ef,62b70e474ce2e7f3be1ffd0c,,,,,,,,,,,,,,,,,,,,,,,,,,,,,,,,,,,,,,,,,,,,,,,,,,,,,,,,,,,,,,,,,,,,,,,,,,,,5,0,5,0,1,,,,,,,,,,,,,,,,,,,,,
,,,,,,,,,,,,5f46a4f25a01ee0369ccb14e,19,Mężczyzna,2022-06-25_15h32.01.931,task,2021.1.4,Win32,60.1612321,6299f149e92ead563fba08ef,62b70e474ce2e7f3be1ffd0c,,,,,,,,,,,,,,,,,,,,,,,,,,,,,,,,,,,,,,,,,,,,,,,,,,,,,,,,,,,,,,,,,,,,,,,,,,,,,,,,,pslxpc,"[""p"",""s"",""l"",""x"",""p"",""c""]",0,"[1.3500999999046144,1.4855999999045935,1.6287999999522071,1.8279999999999745,2.6612999999522344,4.143899999976156,4.653099999904612]",1,PSLXPC,4,0,4,0,1,,,,,,,,,,
,,,,,,,,,,,,5f46a4f25a01ee0369ccb14e,19,Mężczyzna,2022-06-25_15h32.01.931,task,2021.1.4,Win32,60.1612321,6299f149e92ead563fba08ef,62b70e474ce2e7f3be1ffd0c,,,,,,,,,,,,,5,,,,,,,,,,Task,12,(4x4) - 11,5,,,,,,,,,,,,,,,,,,,1,,,,,,,,,,,,,,,,,,,,,,,"[""5""]",1,[1.3551000000238673],0,0,0,11,1,,,,,,,,,,,,,,,,,,,,,,,,,,
,,,,,,,,,,,X V Q F H G B L J M P D K C T S W R N Z,5f46a4f25a01ee0369ccb14e,19,Mężczyzna,2022-06-25_15h32.01.931,task,2021.1.4,Win32,60.1612321,6299f149e92ead563fba08ef,62b70e474ce2e7f3be1ffd0c,,,,,,,,,,,,,,,,,,,,,,,,,,,,,,,,,,,,,,,,,,,,,,,,,,,,,,,,,,,,,,,,,,,,,,,,,,,,0,0,0,0,1,,,,,,,,,,,,,,,,,,,,,
,,,,,,,,,,,,5f46a4f25a01ee0369ccb14e,19,Mężczyzna,2022-06-25_15h32.01.931,task,2021.1.4,Win32,60.1612321,6299f149e92ead563fba08ef,62b70e474ce2e7f3be1ffd0c,,,,,,,,,,,,,8,,,,,,,,,,Task,27,(3/3) + 2,3,,,,,,,,,,,,,,,,,,,0,,,,,,,,,,,,,,,,,,,,,,,"[""8""]",0,[1.2713000000715056],0,0,0,26,1,,,,,,,,,,,,,,,,,,,,,,,,,,
,,,,,,,,,,,,5f46a4f25a01ee0369ccb14e,19,Mężczyzna,2022-06-25_15h32.01.931,task,2021.1.4,Win32,60.1612321,6299f149e92ead563fba08ef,62b70e474ce2e7f3be1ffd0c,,,,,,,,,,,,,4,,,,,,,,,,Task,21,(10/2) - 1,4,,,,,,,,,,,,,,,,,,,1,,,,,,,,,,,,,,,,,,,,,,,"[""4""]",1,[3.48989999997616],0,1,1,20,1,,,,,,,,,,,,,,,,,,,,,,,,,,
,,,,,,,,,,,X V Q F H G B L J M P D K C T S W R N Z,5f46a4f25a01ee0369ccb14e,19,Mężczyzna,2022-06-25_15h32.01.931,task,2021.1.4,Win32,60.1612321,6299f149e92ead563fba08ef,62b70e474ce2e7f3be1ffd0c,,,,,,,,,,,,,,,,,,,,,,,,,,,,,,,,,,,,,,,,,,,,,,,,,,,,,,,,,,,,,,,,,,,,,,,,,,,,1,0,1,0,1,,,,,,,,,,,,,,,,,,,,,
,,,,,,,,,,,,5f46a4f25a01ee0369ccb14e,19,Mężczyzna,2022-06-25_15h32.01.931,task,2021.1.4,Win32,60.1612321,6299f149e92ead563fba08ef,62b70e474ce2e7f3be1ffd0c,,,,,,,,,,,,,1,,,,,,,,,,Task,1,(12/6) - 1,1,,,,,,,,,,,,,,,,,,,1,,,,,,,,,,,,,,,,,,,,,,,"[""1""]",1,[1.6581999999284562],0,0,0,0,1,,,,,,,,,,,,,,,,,,,,,,,,,,
,,,,,,,,,,,X V Q F H G B L J M P D K C T S W R N Z,5f46a4f25a01ee0369ccb14e,19,Mężczyzna,2022-06-25_15h32.01.931,task,2021.1.4,Win32,60.1612321,6299f149e92ead563fba08ef,62b70e474ce2e7f3be1ffd0c,,,,,,,,,,,,,,,,,,,,,,,,,,,,,,,,,,,,,,,,,,,,,,,,,,,,,,,,,,,,,,,,,,,,,,,,,,,,2,0,2,0,1,,,,,,,,,,,,,,,,,,,,,
,,,,,,,,,,,,5f46a4f25a01ee0369ccb14e,19,Mężczyzna,2022-06-25_15h32.01.931,task,2021.1.4,Win32,60.1612321,6299f149e92ead563fba08ef,62b70e474ce2e7f3be1ffd0c,,,,,,,,,,,,,2,,,,,,,,,,Task,10,(2x5) - 8,2,,,,,,,,,,,,,,,,,,,1,,,,,,,,,,,,,,,,,,,,,,,"[""2""]",1,[2.1184999999999263],0,0,0,9,1,,,,,,,,,,,,,,,,,,,,,,,,,,
,,,,,,,,,,,X V Q F H G B L J M P D K C T S W R N Z,5f46a4f25a01ee0369ccb14e,19,Mężczyzna,2022-06-25_15h32.01.931,task,2021.1.4,Win32,60.1612321,6299f149e92ead563fba08ef,62b70e474ce2e7f3be1ffd0c,,,,,,,,,,,,,,,,,,,,,,,,,,,,,,,,,,,,,,,,,,,,,,,,,,,,,,,,,,,,,,,,,,,,,,,,,,,,3,0,3,0,1,,,,,,,,,,,,,,,,,,,,,
,,,,,,,,,,,,5f46a4f25a01ee0369ccb14e,19,Mężczyzna,2022-06-25_15h32.01.931,task,2021.1.4,Win32,60.1612321,6299f149e92ead563fba08ef,62b70e474ce2e7f3be1ffd0c,,,,,,,,,,,,,0,,,,,,,,,,Task,33,(1/1) - 1,0,,,,,,,,,,,,,,,,,,,1,,,,,,,,,,,,,,,,,,,,,,,"[""0""]",1,[2.0289999999999964],0,0,0,32,1,,,,,,,,,,,,,,,,,,,,,,,,,,
,,,,,,,,,,,X V Q F H G B L J M P D K C T S W R N Z,5f46a4f25a01ee0369ccb14e,19,Mężczyzna,2022-06-25_15h32.01.931,task,2021.1.4,Win32,60.1612321,6299f149e92ead563fba08ef,62b70e474ce2e7f3be1ffd0c,,,,,,,,,,,,,,,,,,,,,,,,,,,,,,,,,,,,,,,,,,,,,,,,,,,,,,,,,,,,,,,,,,,,,,,,,,,,4,0,4,0,1,,,,,,,,,,,,,,,,,,,,,
,,,,,,,,,,,,5f46a4f25a01ee0369ccb14e,19,Mężczyzna,2022-06-25_15h32.01.931,task,2021.1.4,Win32,60.1612321,6299f149e92ead563fba08ef,62b70e474ce2e7f3be1ffd0c,,,,,,,,,,,,,2,,,,,,,,,,Task,2,(2x2) - 2,2,,,,,,,,,,,,,,,,,,,1,,,,,,,,,,,,,,,,,,,,,,,"[""2""]",1,[1.7521000000238018],0,0,0,1,1,,,,,,,,,,,,,,,,,,,,,,,,,,
,,,,,,,,,,,X V Q F H G B L J M P D K C T S W R N Z,5f46a4f25a01ee0369ccb14e,19,Mężczyzna,2022-06-25_15h32.01.931,task,2021.1.4,Win32,60.1612321,6299f149e92ead563fba08ef,62b70e474ce2e7f3be1ffd0c,,,,,,,,,,,,,,,,,,,,,,,,,,,,,,,,,,,,,,,,,,,,,,,,,,,,,,,,,,,,,,,,,,,,,,,,,,,,5,0,5,0,1,,,,,,,,,,,,,,,,,,,,,
,,,,,,,,,,,,5f46a4f25a01ee0369ccb14e,19,Mężczyzna,2022-06-25_15h32.01.931,task,2021.1.4,Win32,60.1612321,6299f149e92ead563fba08ef,62b70e474ce2e7f3be1ffd0c,,,,,,,,,,,,,4,,,,,,,,,,Task,4,(1x5) - 1,4,,,,,,,,,,,,,,,,,,,1,,,,,,,,,,,,,,,,,,,,,,,"[""4""]",1,[1.8442999999522272],0,0,0,3,1,,,,,,,,,,,,,,,,,,,,,,,,,,
,,,,,,,,,,,X V Q F H G B L J M P D K C T S W R N Z,5f46a4f25a01ee0369ccb14e,19,Mężczyzna,2022-06-25_15h32.01.931,task,2021.1.4,Win32,60.1612321,6299f149e92ead563fba08ef,62b70e474ce2e7f3be1ffd0c,,,,,,,,,,,,,,,,,,,,,,,,,,,,,,,,,,,,,,,,,,,,,,,,,,,,,,,,,,,,,,,,,,,,,,,,,,,,6,0,6,0,1,,,,,,,,,,,,,,,,,,,,,
,,,,,,,,,,,,5f46a4f25a01ee0369ccb14e,19,Mężczyzna,2022-06-25_15h32.01.931,task,2021.1.4,Win32,60.1612321,6299f149e92ead563fba08ef,62b70e474ce2e7f3be1ffd0c,,,,,,,,,,,,,,,,,,,,,,,,,,,,,,,,,,,,,,,,,,,,,,,,,,,,,,,,,,,,,,,,,,,,,,,,,,,,,,,,,chnhpbn,"[""c"",""h"",""n"",""h"",""p"",""b"",""n""]",0,"[1.1963000000715738,1.537400000095431,1.7608000000715265,2.018000000000029,2.27410000002385,3.07230000007155,3.2317000000477947,4.169800000071632]",1,CHNHPBN,5,0,5,0,1,,,,,,,,,,
,,,,,,,,,,,,5f46a4f25a01ee0369ccb14e,19,Mężczyzna,2022-06-25_15h32.01.931,task,2021.1.4,Win32,60.1612321,6299f149e92ead563fba08ef,62b70e474ce2e7f3be1ffd0c,,,,,,,,,,,,,7,,,,,,,,,,Task,6,(12/2) + 1,7,,,,,,,,,,,,,,,,,,,1,,,,,,,,,,,,,,,,,,,,,,,"[""7""]",1,[1.7691999999284462],0,0,0,5,1,,,,,,,,,,,,,,,,,,,,,,,,,,
,,,,,,,,,,,X V Q F H G B L J M P D K C T S W R N Z,5f46a4f25a01ee0369ccb14e,19,Mężczyzna,2022-06-25_15h32.01.931,task,2021.1.4,Win32,60.1612321,6299f149e92ead563fba08ef,62b70e474ce2e7f3be1ffd0c,,,,,,,,,,,,,,,,,,,,,,,,,,,,,,,,,,,,,,,,,,,,,,,,,,,,,,,,,,,,,,,,,,,,,,,,,,,,0,0,0,0,1,,,,,,,,,,,,,,,,,,,,,
,,,,,,,,,,,,5f46a4f25a01ee0369ccb14e,19,Mężczyzna,2022-06-25_15h32.01.931,task,2021.1.4,Win32,60.1612321,6299f149e92ead563fba08ef,62b70e474ce2e7f3be1ffd0c,,,,,,,,,,,,,1,,,,,,,,,,Task,18,(16/4) - 3,1,,,,,,,,,,,,,,,,,,,1,,,,,,,,,,,,,,,,,,,,,,,"[""1""]",1,[2.9764999999999873],0,0,0,17,1,,,,,,,,,,,,,,,,,,,,,,,,,,
,,,,,,,,,,,X V Q F H G B L J M P D K C T S W R N Z,5f46a4f25a01ee0369ccb14e,19,Mężczyzna,2022-06-25_15h32.01.931,task,2021.1.4,Win32,60.1612321,6299f149e92ead563fba08ef,62b70e474ce2e7f3be1ffd0c,,,,,,,,,,,,,,,,,,,,,,,,,,,,,,,,,,,,,,,,,,,,,,,,,,,,,,,,,,,,,,,,,,,,,,,,,,,,1,0,1,0,1,,,,,,,,,,,,,,,,,,,,,
,,,,,,,,,,,,5f46a4f25a01ee0369ccb14e,19,Mężczyzna,2022-06-25_15h32.01.931,task,2021.1.4,Win32,60.1612321,6299f149e92ead563fba08ef,62b70e474ce2e7f3be1ffd0c,,,,,,,,,,,,,4,,,,,,,,,,Task,28,(2x5) - 6,4,,,,,,,,,,,,,,,,,,,1,,,,,,,,,,,,,,,,,,,,,,,"[""4""]",1,[1.39939999997614],0,0,0,27,1,,,,,,,,,,,,,,,,,,,,,,,,,,
,,,,,,,,,,,X V Q F H G B L J M P D K C T S W R N Z,5f46a4f25a01ee0369ccb14e,19,Mężczyzna,2022-06-25_15h32.01.931,task,2021.1.4,Win32,60.1612321,6299f149e92ead563fba08ef,62b70e474ce2e7f3be1ffd0c,,,,,,,,,,,,,,,,,,,,,,,,,,,,,,,,,,,,,,,,,,,,,,,,,,,,,,,,,,,,,,,,,,,,,,,,,,,,2,0,2,0,1,,,,,,,,,,,,,,,,,,,,,
,,,,,,,,,,,,5f46a4f25a01ee0369ccb14e,19,Mężczyzna,2022-06-25_15h32.01.931,task,2021.1.4,Win32,60.1612321,6299f149e92ead563fba08ef,62b70e474ce2e7f3be1ffd0c,,,,,,,,,,,,,6,,,,,,,,,,Task,5,(2x3) + 0,6,,,,,,,,,,,,,,,,,,,1,,,,,,,,,,,,,,,,,,,,,,,"[""6""]",1,[2.676699999928587],0,0,0,4,1,,,,,,,,,,,,,,,,,,,,,,,,,,
,,,,,,,,,,,X V Q F H G B L J M P D K C T S W R N Z,5f46a4f25a01ee0369ccb14e,19,Mężczyzna,2022-06-25_15h32.01.931,task,2021.1.4,Win32,60.1612321,6299f149e92ead563fba08ef,62b70e474ce2e7f3be1ffd0c,,,,,,,,,,,,,,,,,,,,,,,,,,,,,,,,,,,,,,,,,,,,,,,,,,,,,,,,,,,,,,,,,,,,,,,,,,,,3,0,3,0,1,,,,,,,,,,,,,,,,,,,,,
,,,,,,,,,,,,5f46a4f25a01ee0369ccb14e,19,Mężczyzna,2022-06-25_15h32.01.931,task,2021.1.4,Win32,60.1612321,6299f149e92ead563fba08ef,62b70e474ce2e7f3be1ffd0c,,,,,,,,,,,,,9,,,,,,,,,,Task,24,(2x2) + 5,9,,,,,,,,,,,,,,,,,,,1,,,,,,,,,,,,,,,,,,,,,,,"[""9""]",1,[2.4291000000238228],0,0,0,23,1,,,,,,,,,,,,,,,,,,,,,,,,,,
,,,,,,,,,,,X V Q F H G B L J M P D K C T S W R N Z,5f46a4f25a01ee0369ccb14e,19,Mężczyzna,2022-06-25_15h32.01.931,task,2021.1.4,Win32,60.1612321,6299f149e92ead563fba08ef,62b70e474ce2e7f3be1ffd0c,,,,,,,,,,,,,,,,,,,,,,,,,,,,,,,,,,,,,,,,,,,,,,,,,,,,,,,,,,,,,,,,,,,,,,,,,,,,4,0,4,0,1,,,,,,,,,,,,,,,,,,,,,
,,,,,,,,,,,,5f46a4f25a01ee0369ccb14e,19,Mężczyzna,2022-06-25_15h32.01.931,task,2021.1.4,Win32,60.1612321,6299f149e92ead563fba08ef,62b70e474ce2e7f3be1ffd0c,,,,,,,,,,,,,3,,,,,,,,,,Task,11,(18/3) - 2,4,,,,,,,,,,,,,,,,,,,0,,,,,,,,,,,,,,,,,,,,,,,"[""3""]",0,[2.416899999976181],0,0,0,10,1,,,,,,,,,,,,,,,,,,,,,,,,,,
,,,,,,,,,,,,5f46a4f25a01ee0369ccb14e,19,Mężczyzna,2022-06-25_15h32.01.931,task,2021.1.4,Win32,60.1612321,6299f149e92ead563fba08ef,62b70e474ce2e7f3be1ffd0c,,,,,,,,,,,,,0,,,,,,,,,,Task,25,(10/5) - 2,0,,,,,,,,,,,,,,,,,,,1,,,,,,,,,,,,,,,,,,,,,,,"[""0""]",1,[4.422899999976153],0,1,1,24,1,,,,,,,,,,,,,,,,,,,,,,,,,,
,,,,,,,,,,,X V Q F H G B L J M P D K C T S W R N Z,5f46a4f25a01ee0369ccb14e,19,Mężczyzna,2022-06-25_15h32.01.931,task,2021.1.4,Win32,60.1612321,6299f149e92ead563fba08ef,62b70e474ce2e7f3be1ffd0c,,,,,,,,,,,,,,,,,,,,,,,,,,,,,,,,,,,,,,,,,,,,,,,,,,,,,,,,,,,,,,,,,,,,,,,,,,,,5,0,5,0,1,,,,,,,,,,,,,,,,,,,,,
,,,,,,,,,,,,5f46a4f25a01ee0369ccb14e,19,Mężczyzna,2022-06-25_15h32.01.931,task,2021.1.4,Win32,60.1612321,6299f149e92ead563fba08ef,62b70e474ce2e7f3be1ffd0c,,,,,,,,,,,,,8,,,,,,,,,,Task,39,(5x3) - 7,8,,,,,,,,,,,,,,,,,,,1,,,,,,,,,,,,,,,,,,,,,,,"[""8""]",1,[3.772700000047621],0,0,0,38,1,,,,,,,,,,,,,,,,,,,,,,,,,,
,,,,,,,,,,,X V Q F H G B L J M P D K C T S W R N Z,5f46a4f25a01ee0369ccb14e,19,Mężczyzna,2022-06-25_15h32.01.931,task,2021.1.4,Win32,60.1612321,6299f149e92ead563fba08ef,62b70e474ce2e7f3be1ffd0c,,,,,,,,,,,,,,,,,,,,,,,,,,,,,,,,,,,,,,,,,,,,,,,,,,,,,,,,,,,,,,,,,,,,,,,,,,,,6,0,6,0,1,,,,,,,,,,,,,,,,,,,,,
,,,,,,,,,,,,5f46a4f25a01ee0369ccb14e,19,Mężczyzna,2022-06-25_15h32.01.931,task,2021.1.4,Win32,60.1612321,6299f149e92ead563fba08ef,62b70e474ce2e7f3be1ffd0c,,,,,,,,,,,,,6,,,,,,,,,,Task,30,(6/3) + 4 ,6,,,,,,,,,,,,,,,,,,,1,,,,,,,,,,,,,,,,,,,,,,,"[""6""]",1,[3.4866000000238273],0,0,0,29,1,,,,,,,,,,,,,,,,,,,,,,,,,,
,,,,,,,,,,,X V Q F H G B L J M P D K C T S W R N Z,5f46a4f25a01ee0369ccb14e,19,Mężczyzna,2022-06-25_15h32.01.931,task,2021.1.4,Win32,60.1612321,6299f149e92ead563fba08ef,62b70e474ce2e7f3be1ffd0c,,,,,,,,,,,,,,,,,,,,,,,,,,,,,,,,,,,,,,,,,,,,,,,,,,,,,,,,,,,,,,,,,,,,,,,,,,,,7,0,7,0,1,,,,,,,,,,,,,,,,,,,,,
,,,,,,,,,,,,5f46a4f25a01ee0369ccb14e,19,Mężczyzna,2022-06-25_15h32.01.931,task,2021.1.4,Win32,60.1612321,6299f149e92ead563fba08ef,62b70e474ce2e7f3be1ffd0c,,,,,,,,,,,,,,,,,,,,,,,,,,,,,,,,,,,,,,,,,,,,,,,,,,,,,,,,,,,,,,,,,,,,,,,,,,,,,,,,,zxqparg,"[""z"",""x"",""q"",""p"",""a"",""r"",""g""]",0,"[2.384099999904606,2.4745000000000346,3.4966999999285235,4.079000000000065,4.90300000000002,7.22199999999998,7.529999999999973,8.545699999928502]",0,ZXQPTSVG,6,0,6,0,1,,,,,,,,,,
,,,,,,,,,,,,5f46a4f25a01ee0369ccb14e,19,Mężczyzna,2022-06-25_15h32.01.931,task,2021.1.4,Win32,60.1612321,6299f149e92ead563fba08ef,62b70e474ce2e7f3be1ffd0c,,,,,,,,,,,,,0,,,,,,,,,,Task,33,(1/1) - 1,0,,,,,,,,,,,,,,,,,,,1,,,,,,,,,,,,,,,,,,,,,,,"[""0""]",1,[1.7344999999999118],0,0,0,32,1,,,,,,,,,,,,,,,,,,,,,,,,,,
,,,,,,,,,,,X V Q F H G B L J M P D K C T S W R N Z,5f46a4f25a01ee0369ccb14e,19,Mężczyzna,2022-06-25_15h32.01.931,task,2021.1.4,Win32,60.1612321,6299f149e92ead563fba08ef,62b70e474ce2e7f3be1ffd0c,,,,,,,,,,,,,,,,,,,,,,,,,,,,,,,,,,,,,,,,,,,,,,,,,,,,,,,,,,,,,,,,,,,,,,,,,,,,0,0,0,0,1,,,,,,,,,,,,,,,,,,,,,
,,,,,,,,,,,,5f46a4f25a01ee0369ccb14e,19,Mężczyzna,2022-06-25_15h32.01.931,task,2021.1.4,Win32,60.1612321,6299f149e92ead563fba08ef,62b70e474ce2e7f3be1ffd0c,,,,,,,,,,,,,9,,,,,,,,,,Task,16,(3x8) - 15,9,,,,,,,,,,,,,,,,,,,1,,,,,,,,,,,,,,,,,,,,,,,"[""9""]",1,[3.4356000000238964],0,0,0,15,1,,,,,,,,,,,,,,,,,,,,,,,,,,
,,,,,,,,,,,X V Q F H G B L J M P D K C T S W R N Z,5f46a4f25a01ee0369ccb14e,19,Mężczyzna,2022-06-25_15h32.01.931,task,2021.1.4,Win32,60.1612321,6299f149e92ead563fba08ef,62b70e474ce2e7f3be1ffd0c,,,,,,,,,,,,,,,,,,,,,,,,,,,,,,,,,,,,,,,,,,,,,,,,,,,,,,,,,,,,,,,,,,,,,,,,,,,,1,0,1,0,1,,,,,,,,,,,,,,,,,,,,,
,,,,,,,,,,,,5f46a4f25a01ee0369ccb14e,19,Mężczyzna,2022-06-25_15h32.01.931,task,2021.1.4,Win32,60.1612321,6299f149e92ead563fba08ef,62b70e474ce2e7f3be1ffd0c,,,,,,,,,,,,,1,,,,,,,,,,Task,18,(16/4) - 3,1,,,,,,,,,,,,,,,,,,,1,,,,,,,,,,,,,,,,,,,,,,,"[""1""]",1,[3.6124999999999545],0,0,0,17,1,,,,,,,,,,,,,,,,,,,,,,,,,,
,,,,,,,,,,,X V Q F H G B L J M P D K C T S W R N Z,5f46a4f25a01ee0369ccb14e,19,Mężczyzna,2022-06-25_15h32.01.931,task,2021.1.4,Win32,60.1612321,6299f149e92ead563fba08ef,62b70e474ce2e7f3be1ffd0c,,,,,,,,,,,,,,,,,,,,,,,,,,,,,,,,,,,,,,,,,,,,,,,,,,,,,,,,,,,,,,,,,,,,,,,,,,,,2,0,2,0,1,,,,,,,,,,,,,,,,,,,,,
,,,,,,,,,,,,5f46a4f25a01ee0369ccb14e,19,Mężczyzna,2022-06-25_15h32.01.931,task,2021.1.4,Win32,60.1612321,6299f149e92ead563fba08ef,62b70e474ce2e7f3be1ffd0c,,,,,,,,,,,,,9,,,,,,,,,,Task,16,(3x8) - 15,9,,,,,,,,,,,,,,,,,,,1,,,,,,,,,,,,,,,,,,,,,,,"[""9""]",1,[2.978800000071601],0,0,0,15,1,,,,,,,,,,,,,,,,,,,,,,,,,,
,,,,,,,,,,,X V Q F H G B L J M P D K C T S W R N Z,5f46a4f25a01ee0369ccb14e,19,Mężczyzna,2022-06-25_15h32.01.931,task,2021.1.4,Win32,60.1612321,6299f149e92ead563fba08ef,62b70e474ce2e7f3be1ffd0c,,,,,,,,,,,,,,,,,,,,,,,,,,,,,,,,,,,,,,,,,,,,,,,,,,,,,,,,,,,,,,,,,,,,,,,,,,,,3,0,3,0,1,,,,,,,,,,,,,,,,,,,,,
,,,,,,,,,,,,5f46a4f25a01ee0369ccb14e,19,Mężczyzna,2022-06-25_15h32.01.931,task,2021.1.4,Win32,60.1612321,6299f149e92ead563fba08ef,62b70e474ce2e7f3be1ffd0c,,,,,,,,,,,,,4,,,,,,,,,,Task,28,(2x5) - 6,4,,,,,,,,,,,,,,,,,,,1,,,,,,,,,,,,,,,,,,,,,,,"[""4""]",1,[2.0715000000000146],0,0,0,27,1,,,,,,,,,,,,,,,,,,,,,,,,,,
,,,,,,,,,,,X V Q F H G B L J M P D K C T S W R N Z,5f46a4f25a01ee0369ccb14e,19,Mężczyzna,2022-06-25_15h32.01.931,task,2021.1.4,Win32,60.1612321,6299f149e92ead563fba08ef,62b70e474ce2e7f3be1ffd0c,,,,,,,,,,,,,,,,,,,,,,,,,,,,,,,,,,,,,,,,,,,,,,,,,,,,,,,,,,,,,,,,,,,,,,,,,,,,4,0,4,0,1,,,,,,,,,,,,,,,,,,,,,
,,,,,,,,,,,,5f46a4f25a01ee0369ccb14e,19,Mężczyzna,2022-06-25_15h32.01.931,task,2021.1.4,Win32,60.1612321,6299f149e92ead563fba08ef,62b70e474ce2e7f3be1ffd0c,,,,,,,,,,,,,5,,,,,,,,,,Task,22,(3x1) + 2,5,,,,,,,,,,,,,,,,,,,1,,,,,,,,,,,,,,,,,,,,,,,"[""5""]",1,[1.600200000047721],0,0,0,21,1,,,,,,,,,,,,,,,,,,,,,,,,,,
,,,,,,,,,,,X V Q F H G B L J M P D K C T S W R N Z,5f46a4f25a01ee0369ccb14e,19,Mężczyzna,2022-06-25_15h32.01.931,task,2021.1.4,Win32,60.1612321,6299f149e92ead563fba08ef,62b70e474ce2e7f3be1ffd0c,,,,,,,,,,,,,,,,,,,,,,,,,,,,,,,,,,,,,,,,,,,,,,,,,,,,,,,,,,,,,,,,,,,,,,,,,,,,5,0,5,0,1,,,,,,,,,,,,,,,,,,,,,
,,,,,,,,,,,,5f46a4f25a01ee0369ccb14e,19,Mężczyzna,2022-06-25_15h32.01.931,task,2021.1.4,Win32,60.1612321,6299f149e92ead563fba08ef,62b70e474ce2e7f3be1ffd0c,,,,,,,,,,,,,8,,,,,,,,,,Task,15,(3x7) - 13,8,,,,,,,,,,,,,,,,,,,1,,,,,,,,,,,,,,,,,,,,,,,"[""8""]",1,[3.736499999999978],0,0,0,14,1,,,,,,,,,,,,,,,,,,,,,,,,,,
,,,,,,,,,,,X V Q F H G B L J M P D K C T S W R N Z,5f46a4f25a01ee0369ccb14e,19,Mężczyzna,2022-06-25_15h32.01.931,task,2021.1.4,Win32,60.1612321,6299f149e92ead563fba08ef,62b70e474ce2e7f3be1ffd0c,,,,,,,,,,,,,,,,,,,,,,,,,,,,,,,,,,,,,,,,,,,,,,,,,,,,,,,,,,,,,,,,,,,,,,,,,,,,6,0,6,0,1,,,,,,,,,,,,,,,,,,,,,
,,,,,,,,,,,,5f46a4f25a01ee0369ccb14e,19,Mężczyzna,2022-06-25_15h32.01.931,task,2021.1.4,Win32,60.1612321,6299f149e92ead563fba08ef,62b70e474ce2e7f3be1ffd0c,,,,,,,,,,,,,2,,,,,,,,,,Task,2,(2x2) - 2,2,,,,,,,,,,,,,,,,,,,1,,,,,,,,,,,,,,,,,,,,,,,"[""2""]",1,[1.4297999999523654],0,0,0,1,1,,,,,,,,,,,,,,,,,,,,,,,,,,
,,,,,,,,,,,X V Q F H G B L J M P D K C T S W R N Z,5f46a4f25a01ee0369ccb14e,19,Mężczyzna,2022-06-25_15h32.01.931,task,2021.1.4,Win32,60.1612321,6299f149e92ead563fba08ef,62b70e474ce2e7f3be1ffd0c,,,,,,,,,,,,,,,,,,,,,,,,,,,,,,,,,,,,,,,,,,,,,,,,,,,,,,,,,,,,,,,,,,,,,,,,,,,,7,0,7,0,1,,,,,,,,,,,,,,,,,,,,,
,,,,,,,,,,,,5f46a4f25a01ee0369ccb14e,19,Mężczyzna,2022-06-25_15h32.01.931,task,2021.1.4,Win32,60.1612321,6299f149e92ead563fba08ef,62b70e474ce2e7f3be1ffd0c,,,,,,,,,,,,,,,,,,,,,,,,,,,,,,,,,,,,,,,,,,,,,,,,,,,,,,,,,,,,,,,,,,,,,,,,,,,,,,,,,rsdnxpd,"[""r"",""s"",""d"",""n"",""x"",""p"",""d""]",0,"[1.3920000000000528,1.533800000071551,1.7507000000476864,2.270800000071631,2.535000000000082,2.8412000000477065,3.1682000000477046,3.9535000000000764]",0,RSDNXZPD,7,0,7,0,1,,,,,,,,,,
,,,,,,,,,,,,5f46a4f25a01ee0369ccb14e,19,Mężczyzna,2022-06-25_15h32.01.931,task,2021.1.4,Win32,60.1612321,6299f149e92ead563fba08ef,62b70e474ce2e7f3be1ffd0c,,,,,,,,,,,,,,,,,,,,,,,,,,,,,,,,,,,,,,,,,,,,,,,,,,,,,,,,,,,,,,,,,,,,,,,,,,,,,,,,,,,,,,,,,,,,"[""comma""]",0,[0.78449999999998],0,0,0,0,1,,
,,,,,,,,,,,,5f46a4f25a01ee0369ccb14e,19,Mężczyzna,2022-06-25_15h32.01.931,task,2021.1.4,Win32,60.1612321,6299f149e92ead563fba08ef,62b70e474ce2e7f3be1ffd0c,,,,,,,,,,,,,,,,,,,,,,,,,,,,,,,,,,,,,,,,,,,,,,,,,,,,,,,,,,,,,,,,,,,,,,,,,,,,,,,,,,,,,,,,,,,,"[""period""]",0,[0.5201000000238309],1,0,1,0,1,,
,,,,,,,,,,,,5f46a4f25a01ee0369ccb14e,19,Mężczyzna,2022-06-25_15h32.01.931,task,2021.1.4,Win32,60.1612321,6299f149e92ead563fba08ef,62b70e474ce2e7f3be1ffd0c,,,,,,,,,,,,,,,,,,,,,,,,,,,,,,,,,,,,,,,,,,,,,,,,,,,,,,,,,,,,,,,,,,,,,,,,,,,,,,,,,,,,,,,,,,,,"[""period""]",0,[0.4505999999046253],2,0,2,0,1,,
,,,,,,,,,,,,5f46a4f25a01ee0369ccb14e,19,Mężczyzna,2022-06-25_15h32.01.931,task,2021.1.4,Win32,60.1612321,6299f149e92ead563fba08ef,62b70e474ce2e7f3be1ffd0c,,,,,,,,,,,,,,,,,,,,,,,,,,,,,,,,,,,,,,,,,,,,,,,,,,,,,,,,,,,,,,,,,,,,,,,,,,,,,,,,,,,,,,,,,,,,"[""comma""]",0,[0.5427999999523081],3,0,3,0,1,,
,,,,,,,,,,,,5f46a4f25a01ee0369ccb14e,19,Mężczyzna,2022-06-25_15h32.01.931,task,2021.1.4,Win32,60.1612321,6299f149e92ead563fba08ef,62b70e474ce2e7f3be1ffd0c,,,,,,,,,,,,,,,,,,,,,,,,,,,,,,,,,,,,,,,,,,,,,,,,,,,,,,,,,,,,,,,,,,,,,,,,,,,,,,,,,,,,,,,,,,,,"[""comma""]",0,[0.34919999992848716],4,0,4,0,1,,
,,,,,,,,,,,,5f46a4f25a01ee0369ccb14e,19,Mężczyzna,2022-06-25_15h32.01.931,task,2021.1.4,Win32,60.1612321,6299f149e92ead563fba08ef,62b70e474ce2e7f3be1ffd0c,,,,,,,,,,,,,,,,,,,,,,,,,,,,,,,,,,,,,,,,,,,,,,,,,,,,,,,,,,,,,,,,,,,,,,,,,,,,,,,,,,,,,,,,,,,,"[""comma""]",0,[0.6209000000953893],5,0,5,0,1,,
,,,,,,,,,,,,5f46a4f25a01ee0369ccb14e,19,Mężczyzna,2022-06-25_15h32.01.931,task,2021.1.4,Win32,60.1612321,6299f149e92ead563fba08ef,62b70e474ce2e7f3be1ffd0c,,,,,,,,,,,,,,,,,,,,,,,,,,,,,,,,,,,,,,,,,,,,,,,,,,,,,,,,,,,,,,,,,,,,,,,,,,,,,,,,,,,,,,,,,,,,"[""comma""]",0,[0.5513999999761836],6,0,6,0,1,,
,,,,,,,,,,,,5f46a4f25a01ee0369ccb14e,19,Mężczyzna,2022-06-25_15h32.01.931,task,2021.1.4,Win32,60.1612321,6299f149e92ead563fba08ef,62b70e474ce2e7f3be1ffd0c,,,,,,,,,,,,,,,,,,,,,,,,,,,,,,,,,,,,,,,,,,,,,,,,,,,,,,,,,,,,,,,,,,,,,,,,,,,,,,,,,,,,,,,,,,,,"[""comma""]",0,[0.41160000002378183],7,0,7,0,1,,
,,,,,,,,,,,,5f46a4f25a01ee0369ccb14e,19,Mężczyzna,2022-06-25_15h32.01.931,task,2021.1.4,Win32,60.1612321,6299f149e92ead563fba08ef,62b70e474ce2e7f3be1ffd0c,,,,,,,,,,,,,,,,,,,,,,,,,,,,,,,,,,,,,,,,,,,,,,,,,,,,,,,,,,,,,,,,,,,,,,,,,,,,,,,,,,,,,,,,,,,,"[""comma""]",0,[0.5012000000476746],8,0,8,0,1,,
,,,,,,,,,,,,5f46a4f25a01ee0369ccb14e,19,Mężczyzna,2022-06-25_15h32.01.931,task,2021.1.4,Win32,60.1612321,6299f149e92ead563fba08ef,62b70e474ce2e7f3be1ffd0c,,,,,,,,,,,,,,,,,,,,,,,,,,,,,,,,,,,,,,,,,,,,,,,,,,,,,,,,,,,,,,,,,,,,,,,,,,,,,,,,,,,,,,,,,,,,"[""comma""]",0,[0.2933999999762591],9,0,9,0,1,,
,,,,,,,,,,,,5f46a4f25a01ee0369ccb14e,19,Mężczyzna,2022-06-25_15h32.01.931,task,2021.1.4,Win32,60.1612321,6299f149e92ead563fba08ef,62b70e474ce2e7f3be1ffd0c,,,,,,,,,,,,,,,,,,,,,,,,,,,,,,,,,,,,,,,,,,,,,,,,,,,,,,,,,,,,,,,,,,,,,,,,,,,,,,,,,,,,,,,,,,,,"[""comma""]",0,[0.3853000000715383],10,0,10,0,1,,
,,,,,,,,,,,,5f46a4f25a01ee0369ccb14e,19,Mężczyzna,2022-06-25_15h32.01.931,task,2021.1.4,Win32,60.1612321,6299f149e92ead563fba08ef,62b70e474ce2e7f3be1ffd0c,,,,,,,,,,,,,,,,,,,,,,,,,,,,,,,,,,,,,,,,,,,,,,,,,,,,,,,,,,,,,,,,,,,,,,,,,,,,,,,,,,,,,,,,,,,,"[""comma""]",0,[0.2775000000001455],11,0,11,0,1,,
,,,,,,,,,,,,5f46a4f25a01ee0369ccb14e,19,Mężczyzna,2022-06-25_15h32.01.931,task,2021.1.4,Win32,60.1612321,6299f149e92ead563fba08ef,62b70e474ce2e7f3be1ffd0c,,,,,,,,,,,,,,,,,,,,,,,,,,,,,,,,,,,,,,,,,,,,,,,,,,,,,,,,,,,,,,,,,,,,,,,,,,,,,,,,,,,,,,,,,,,,"[""comma""]",0,[0.2335000000000491],12,0,12,0,1,,
,,,,,,,,,,,,5f46a4f25a01ee0369ccb14e,19,Mężczyzna,2022-06-25_15h32.01.931,task,2021.1.4,Win32,60.1612321,6299f149e92ead563fba08ef,62b70e474ce2e7f3be1ffd0c,,,,,,,,,,,,,,,,,,,,,,,,,,,,,,,,,,,,,,,,,,,,,,,,,,,,,,,,,,,,,,,,,,,,,,,,,,,,,,,,,,,,,,,,,,,,"[""comma""]",0,[0.2668999999762036],13,0,13,0,1,,
,,,,,,,,,,,,5f46a4f25a01ee0369ccb14e,19,Mężczyzna,2022-06-25_15h32.01.931,task,2021.1.4,Win32,60.1612321,6299f149e92ead563fba08ef,62b70e474ce2e7f3be1ffd0c,,,,,,,,,,,,,,,,,,,,,,,,,,,,,,,,,,,,,,,,,,,,,,,,,,,,,,,,,,,,,,,,,,,,,,,,,,,,,,,,,,,,,,,,,,,,"[""period""]",0,[0.30010000002380366],14,0,14,0,1,,
,,,,,,,,,,,,5f46a4f25a01ee0369ccb14e,19,Mężczyzna,2022-06-25_15h32.01.931,task,2021.1.4,Win32,60.1612321,6299f149e92ead563fba08ef,62b70e474ce2e7f3be1ffd0c,,,,,,,,,,,,,,,,,,,,,,,,,,,,,,,,,,,,,,,,,,,,,,,,,,,,,,,,,,,,,,,,,,,,,,,,,,,,,,,,,,,,,,,,,,,,"[""period""]",0,[0.10000000000013642],15,0,15,0,1,,
,,,,,,,,,,,,5f46a4f25a01ee0369ccb14e,19,Mężczyzna,2022-06-25_15h32.01.931,task,2021.1.4,Win32,60.1612321,6299f149e92ead563fba08ef,62b70e474ce2e7f3be1ffd0c,,,,,,,,,,,,,,,,,,,,,,,,,,,,,,,,,,,,,,,,,,,,,,,,,,,,,,,,,,,,,,,,,,,,,,,,,,,,,,,,,,,,,,,,,,,,"[""comma""]",0,[0.2508999999761272],16,0,16,0,1,,
,,,,,,,,,,,,5f46a4f25a01ee0369ccb14e,19,Mężczyzna,2022-06-25_15h32.01.931,task,2021.1.4,Win32,60.1612321,6299f149e92ead563fba08ef,62b70e474ce2e7f3be1ffd0c,,,,,,,,,,,,,,,,,,,,,,,,,,,,,,,,,,,,,,,,,,,,,,,,,,,,,,,,,,,,,,,,,,,,,,,,,,,,,,,,,,,,,,,,,,,,"[""period""]",0,[0.09999999999990905],17,0,17,0,1,,
,,,,,,,,,,,,5f46a4f25a01ee0369ccb14e,19,Mężczyzna,2022-06-25_15h32.01.931,task,2021.1.4,Win32,60.1612321,6299f149e92ead563fba08ef,62b70e474ce2e7f3be1ffd0c,,,,,,,,,,,,,,,,,,,,,,,,,,,,,,,,,,,,,,,,,,,,,,,,,,,,,,,,,,,,,,,,,,,,,,,,,,,,,,,,,,,,,,,,,,,,"[""period""]",0,[0.31729999995241087],18,0,18,0,1,,
,,,,,,,,,,,,5f46a4f25a01ee0369ccb14e,19,Mężczyzna,2022-06-25_15h32.01.931,task,2021.1.4,Win32,60.1612321,6299f149e92ead563fba08ef,62b70e474ce2e7f3be1ffd0c,,,,,,,,,,,,,,,,,,,,,,,,,,,,,,,,,,,,,,,,,,,,,,,,,,,,,,,,,,,,,,,,,,,,,,,,,,,,,,,,,,,,,,,,,,,,"[""period""]",0,[0.267299999952229],19,0,19,0,1,,
,,,,,,,,,,,,5f46a4f25a01ee0369ccb14e,19,Mężczyzna,2022-06-25_15h32.01.931,task,2021.1.4,Win32,60.1612321,6299f149e92ead563fba08ef,62b70e474ce2e7f3be1ffd0c,,,,,,,,,,,,,,,,,,,,,,,,,,,,,,,,,,,,,,,,,,,,,,,,,,,,,,,,,,,,,,,,,,,,,,,,,,,,,,,,,,,,,,,,,,,,"[""comma""]",0,[0.2337999999524527],20,0,20,0,1,,
,,,,,,,,,,,,5f46a4f25a01ee0369ccb14e,19,Mężczyzna,2022-06-25_15h32.01.931,task,2021.1.4,Win32,60.1612321,6299f149e92ead563fba08ef,62b70e474ce2e7f3be1ffd0c,,,,,,,,,,,,,,,,,,,,,,,,,,,,,,,,,,,,,,,,,,,,,,,,,,,,,,,,,,,,,,,,,,,,,,,,,,,,,,,,,,,,,,,,,,,,"[""comma""]",0,[0.28360000002385277],21,0,21,0,1,,
,,,,,,,,,,,,5f46a4f25a01ee0369ccb14e,19,Mężczyzna,2022-06-25_15h32.01.931,task,2021.1.4,Win32,60.1612321,6299f149e92ead563fba08ef,62b70e474ce2e7f3be1ffd0c,,,,,,,,,,,,,,,,,,,,,,,,,,,,,,,,,,,,,,,,,,,,,,,,,,,,,,,,,,,,,,,,,,,,,,,,,,,,,,,,,,,,,,,,,,,,"[""period""]",0,[0.0340000000001055],22,0,22,0,1,,
,,,,,,,,,,,,5f46a4f25a01ee0369ccb14e,19,Mężczyzna,2022-06-25_15h32.01.931,task,2021.1.4,Win32,60.1612321,6299f149e92ead563fba08ef,62b70e474ce2e7f3be1ffd0c,,,,,,,,,,,,,,,,,,,,,,,,,,,,,,,,,,,,,,,,,,,,,,,,,,,,,,,,,,,,,,,,,,,,,,,,,,,,,,,,,,,,,,,,,,,,"[""comma""]",0,[0.3742000000477219],23,0,23,0,1,,
,,,,,,,,,,,,5f46a4f25a01ee0369ccb14e,19,Mężczyzna,2022-06-25_15h32.01.931,task,2021.1.4,Win32,60.1612321,6299f149e92ead563fba08ef,62b70e474ce2e7f3be1ffd0c,,,,,,,,,,,,,,,,,,,,,,,,,,,,,,,,,,,,,,,,,,,,,,,,,,,,,,,,,,,,,,,,,,,,,,,,,,,,,,,,,,,,,,,,,,,,"[""period""]",0,[0.24989999997615087],24,0,24,0,1,,
,,,,,,,,,,,,5f46a4f25a01ee0369ccb14e,19,Mężczyzna,2022-06-25_15h32.01.931,task,2021.1.4,Win32,60.1612321,6299f149e92ead563fba08ef,62b70e474ce2e7f3be1ffd0c,,,,,,,,,,,,,,,,,,,,,,,,,,,,,,,,,,,,,,,,,,,,,,,,,,,,,,,,,,,,,,,,,,,,,,,,,,,,,,,,,,,,,,,,,,,,"[""period""]",0,[0.3721000000239201],25,0,25,0,1,,
,,,,,,,,,,,,5f46a4f25a01ee0369ccb14e,19,Mężczyzna,2022-06-25_15h32.01.931,task,2021.1.4,Win32,60.1612321,6299f149e92ead563fba08ef,62b70e474ce2e7f3be1ffd0c,,,,,,,,,,,,,,,,,,,,,,,,,,,,,,,,,,,,,,,,,,,,,,,,,,,,,,,,,,,,,,,,,,,,,,,,,,,,,,,,,,,,,,,,,,,,"[""period""]",0,[0.36720000004766007],26,0,26,0,1,,
,,,,,,,,,,,,5f46a4f25a01ee0369ccb14e,19,Mężczyzna,2022-06-25_15h32.01.931,task,2021.1.4,Win32,60.1612321,6299f149e92ead563fba08ef,62b70e474ce2e7f3be1ffd0c,,,,,,,,,,,,,,,,,,,,,,,,,,,,,,,,,,,,,,,,,,,,,,,,,,,,,,,,,,,,,,,,,,,,,,,,,,,,,,,,,,,,,,,,,,,,"[""comma""]",0,[0.3343999999760854],27,0,27,0,1,,
,,,,,,,,,,,,5f46a4f25a01ee0369ccb14e,19,Mężczyzna,2022-06-25_15h32.01.931,task,2021.1.4,Win32,60.1612321,6299f149e92ead563fba08ef,62b70e474ce2e7f3be1ffd0c,,,,,,,,,,,,,,,,,,,,,,,,,,,,,,,,,,,,,,,,,,,,,,,,,,,,,,,,,,,,,,,,,,,,,,,,,,,,,,,,,,,,,,,,,,,,"[""comma"",""period""]",0,"[0.2842999999522817,1.9608999999759362]",28,0,28,0,1,,
,,,,,,,,,,,,5f46a4f25a01ee0369ccb14e,19,Mężczyzna,2022-06-25_15h32.01.931,task,2021.1.4,Win32,60.1612321,6299f149e92ead563fba08ef,62b70e474ce2e7f3be1ffd0c,,,,,,,,,,,,,,,,,,,,,,,,,,,,,,,,,,,,,,,,,,,,,,,,,,,,,,,,,,,,,,,,,,,,,,,,,,,,,,,,,,,,,,,,,,,,,0,,29,0,29,0,1,,
,,,,,,,,,,,,5f46a4f25a01ee0369ccb14e,19,Mężczyzna,2022-06-25_15h32.01.931,task,2021.1.4,Win32,60.1612321,6299f149e92ead563fba08ef,62b70e474ce2e7f3be1ffd0c,,,,,,,,,,,,,,,,,,,,,,,,,,,,,,,,,,,,,,,,,,,,,,,,,,,,,,,,,,,,,,,,,,,,,,,,,,,,,,,,,,,,,,,,,,,,"[""comma""]",0,[0.3342000000477583],30,0,30,0,1,,
,,,,,,,,,,,,5f46a4f25a01ee0369ccb14e,19,Mężczyzna,2022-06-25_15h32.01.931,task,2021.1.4,Win32,60.1612321,6299f149e92ead563fba08ef,62b70e474ce2e7f3be1ffd0c,,,,,,,,,,,,,,,,,,,,,,,,,,,,,,,,,,,,,,,,,,,,,,,,,,,,,,,,,,,,,,,,,,,,,,,,,,,,,,,,,,,,,,,,,,,,"[""period""]",0,[0.267200000047751],31,0,31,0,1,,
,,,,,,,,,,,,5f46a4f25a01ee0369ccb14e,19,Mężczyzna,2022-06-25_15h32.01.931,task,2021.1.4,Win32,60.1612321,6299f149e92ead563fba08ef,62b70e474ce2e7f3be1ffd0c,,,,,,,,,,,,,,,,,,,,,,,,,,,,,,,,,,,,,,,,,,,,,,,,,,,,,,,,,,,,,,,,,,,,,,,,,,,,,,,,,,,,,,,,,,,,"[""period""]",0,[0.33340000009525284],32,0,32,0,1,,
,,,,,,,,,,,,5f46a4f25a01ee0369ccb14e,19,Mężczyzna,2022-06-25_15h32.01.931,task,2021.1.4,Win32,60.1612321,6299f149e92ead563fba08ef,62b70e474ce2e7f3be1ffd0c,,,,,,,,,,,,,,,,,,,,,,,,,,,,,,,,,,,,,,,,,,,,,,,,,,,,,,,,,,,,,,,,,,,,,,,,,,,,,,,,,,,,,,,,,,,,"[""period""]",0,[0.3079999999999927],33,0,33,0,1,,
,,,,,,,,,,,,5f46a4f25a01ee0369ccb14e,19,Mężczyzna,2022-06-25_15h32.01.931,task,2021.1.4,Win32,60.1612321,6299f149e92ead563fba08ef,62b70e474ce2e7f3be1ffd0c,,,,,,,,,,,,,,,,,,,,,,,,,,,,,,,,,,,,,,,,,,,,,,,,,,,,,,,,,,,,,,,,,,,,,,,,,,,,,,,,,,,,,,,,,,,,"[""comma""]",0,[0.2943000000716438],34,0,34,0,1,,
,,,,,,,,,,,,5f46a4f25a01ee0369ccb14e,19,Mężczyzna,2022-06-25_15h32.01.931,task,2021.1.4,Win32,60.1612321,6299f149e92ead563fba08ef,62b70e474ce2e7f3be1ffd0c,,,,,,,,,,,,,,,,,,,,,,,,,,,,,,,,,,,,,,,,,,,,,,,,,,,,,,,,,,,,,,,,,,,,,,,,,,,,,,,,,,,,,,,,,,,,"[""comma""]",0,[0.425199999928509],35,0,35,0,1,,
,,,,,,,,,,,,5f46a4f25a01ee0369ccb14e,19,Mężczyzna,2022-06-25_15h32.01.931,task,2021.1.4,Win32,60.1612321,6299f149e92ead563fba08ef,62b70e474ce2e7f3be1ffd0c,,,,,,,,,,,,,,,,,,,,,,,,,,,,,,,,,,,,,,,,,,,,,,,,,,,,,,,,,,,,,,,,,,,,,,,,,,,,,,,,,,,,,,,,,,,,"[""comma""]",0,[0.28350000000000364],36,0,36,0,1,,
,,,,,,,,,,,,5f46a4f25a01ee0369ccb14e,19,Mężczyzna,2022-06-25_15h32.01.931,task,2021.1.4,Win32,60.1612321,6299f149e92ead563fba08ef,62b70e474ce2e7f3be1ffd0c,,,,,,,,,,,,,,,,,,,,,,,,,,,,,,,,,,,,,,,,,,,,,,,,,,,,,,,,,,,,,,,,,,,,,,,,,,,,,,,,,,,,,,,,,,,,"[""comma""]",0,[0.18650000000002365],37,0,37,0,1,,
,,,,,,,,,,,,5f46a4f25a01ee0369ccb14e,19,Mężczyzna,2022-06-25_15h32.01.931,task,2021.1.4,Win32,60.1612321,6299f149e92ead563fba08ef,62b70e474ce2e7f3be1ffd0c,,,,,,,,,,,,,,,,,,,,,,,,,,,,,,,,,,,,,,,,,,,,,,,,,,,,,,,,,,,,,,,,,,,,,,,,,,,,,,,,,,,,,,,,,,,,"[""comma""]",0,[-0.024399999976139952],38,0,38,0,1,,
,,,,,,,,,,,,5f46a4f25a01ee0369ccb14e,19,Mężczyzna,2022-06-25_15h32.01.931,task,2021.1.4,Win32,60.1612321,6299f149e92ead563fba08ef,62b70e474ce2e7f3be1ffd0c,,,,,,,,,,,,,,,,,,,,,,,,,,,,,,,,,,,,,,,,,,,,,,,,,,,,,,,,,,,,,,,,,,,,,,,,,,,,,,,,,,,,,,,,,,,,"[""period""]",0,[0.050700000047754656],39,0,39,0,1,,
,,,,,,,,,,,,5f46a4f25a01ee0369ccb14e,19,Mężczyzna,2022-06-25_15h32.01.931,task,2021.1.4,Win32,60.1612321,6299f149e92ead563fba08ef,62b70e474ce2e7f3be1ffd0c,,,,,,,,,,,,,,,,,,,,,,,,,,,,,,,,,,,,,,,,,,,,,,,,,,,,,,,,,,,,,,,,,,,,,,,,,,,,,,,,,,,,,,,,,,,,"[""period""]",0,[0.3008999999763091],40,0,40,0,1,,
,,,,,,,,,,,,5f46a4f25a01ee0369ccb14e,19,Mężczyzna,2022-06-25_15h32.01.931,task,2021.1.4,Win32,60.1612321,6299f149e92ead563fba08ef,62b70e474ce2e7f3be1ffd0c,,,,,,,,,,,,,,,,,,,,,,,,,,,,,,,,,,,,,,,,,,,,,,,,,,,,,,,,,,,,,,,,,,,,,,,,,,,,,,,,,,,,,,,,,,,,"[""period"",""comma""]",0,"[0.14960000002383822,1.4008000000715128]",41,0,41,0,1,,
,,,,,,,,,,,,5f46a4f25a01ee0369ccb14e,19,Mężczyzna,2022-06-25_15h32.01.931,task,2021.1.4,Win32,60.1612321,6299f149e92ead563fba08ef,62b70e474ce2e7f3be1ffd0c,,,,,,,,,,,,,,,,,,,,,,,,,,,,,,,,,,,,,,,,,,,,,,,,,,,,,,,,,,,,,,,,,,,,,,,,,,,,,,,,,,,,,,,,,,,,,0,,42,0,42,0,1,,
,,,,,,,,,,,,5f46a4f25a01ee0369ccb14e,19,Mężczyzna,2022-06-25_15h32.01.931,task,2021.1.4,Win32,60.1612321,6299f149e92ead563fba08ef,62b70e474ce2e7f3be1ffd0c,,,,,,,,,,,,,,,,,,,,,,,,,,,,,,,,,,,,,,,,,,,,,,,,,,,,,,,,,,,,,,,,,,,,,,,,,,,,,,,,,,,,,,,,,,,,"[""period""]",0,[0.3324999999999818],43,0,43,0,1,,
,,,,,,,,,,,,5f46a4f25a01ee0369ccb14e,19,Mężczyzna,2022-06-25_15h32.01.931,task,2021.1.4,Win32,60.1612321,6299f149e92ead563fba08ef,62b70e474ce2e7f3be1ffd0c,,,,,,,,,,,,,,,,,,,,,,,,,,,,,,,,,,,,,,,,,,,,,,,,,,,,,,,,,,,,,,,,,,,,,,,,,,,,,,,,,,,,,,,,,,,,"[""period""]",0,[0.33829999995236903],44,0,44,0,1,,
,,,,,,,,,,,,5f46a4f25a01ee0369ccb14e,19,Mężczyzna,2022-06-25_15h32.01.931,task,2021.1.4,Win32,60.1612321,6299f149e92ead563fba08ef,62b70e474ce2e7f3be1ffd0c,,,,,,,,,,,,,,,,,,,,,,,,,,,,,,,,,,,,,,,,,,,,,,,,,,,,,,,,,,,,,,,,,,,,,,,,,,,,,,,,,,,,,,,,,,,,"[""comma""]",0,[0.35599999999999454],45,0,45,0,1,,
,,,,,,,,,,,,5f46a4f25a01ee0369ccb14e,19,Mężczyzna,2022-06-25_15h32.01.931,task,2021.1.4,Win32,60.1612321,6299f149e92ead563fba08ef,62b70e474ce2e7f3be1ffd0c,,,,,,,,,,,,,,,,,,,,,,,,,,,,,,,,,,,,,,,,,,,,,,,,,,,,,,,,,,,,,,,,,,,,,,,,,,,,,,,,,,,,,,,,,,,,"[""period""]",0,[0.28350000000000364],46,0,46,0,1,,
,,,,,,,,,,,,5f46a4f25a01ee0369ccb14e,19,Mężczyzna,2022-06-25_15h32.01.931,task,2021.1.4,Win32,60.1612321,6299f149e92ead563fba08ef,62b70e474ce2e7f3be1ffd0c,,,,,,,,,,,,,,,,,,,,,,,,,,,,,,,,,,,,,,,,,,,,,,,,,,,,,,,,,,,,,,,,,,,,,,,,,,,,,,,,,,,,,,,,,,,,"[""comma""]",0,[0.3247999999523472],47,0,47,0,1,,
,,,,,,,,,,,,5f46a4f25a01ee0369ccb14e,19,Mężczyzna,2022-06-25_15h32.01.931,task,2021.1.4,Win32,60.1612321,6299f149e92ead563fba08ef,62b70e474ce2e7f3be1ffd0c,,,,,,,,,,,,,,,,,,,,,,,,,,,,,,,,,,,,,,,,,,,,,,,,,,,,,,,,,,,,,,,,,,,,,,,,,,,,,,,,,,,,,,,,,,,,"[""comma""]",0,[0.30209999990461256],48,0,48,0,1,,
,,,,,,,,,,,,5f46a4f25a01ee0369ccb14e,19,Mężczyzna,2022-06-25_15h32.01.931,task,2021.1.4,Win32,60.1612321,6299f149e92ead563fba08ef,62b70e474ce2e7f3be1ffd0c,,,,,,,,,,,,,,,,,,,,,,,,,,,,,,,,,,,,,,,,,,,,,,,,,,,,,,,,,,,,,,,,,,,,,,,,,,,,,,,,,,,,,,,,,,,,"[""comma""]",0,[0.26830000007134913],49,0,49,0,1,,
,,,,,,,,,,,,5f46a4f25a01ee0369ccb14e,19,Mężczyzna,2022-06-25_15h32.01.931,task,2021.1.4,Win32,60.1612321,6299f149e92ead563fba08ef,62b70e474ce2e7f3be1ffd0c,,,,,,,,,,,,,,,,,,,,,,,,,,,,,,,,,,,,,,,,,,,,,,,,,,,,,,,,,,,,,,,,,,,,,,,,,,,,,,,,,,,,,,,,,,,,"[""comma""]",0,[0.30980000007161834],50,0,50,0,1,,
,,,,,,,,,,,,5f46a4f25a01ee0369ccb14e,19,Mężczyzna,2022-06-25_15h32.01.931,task,2021.1.4,Win32,60.1612321,6299f149e92ead563fba08ef,62b70e474ce2e7f3be1ffd0c,,,,,,,,,,,,,,,,,,,,,,,,,,,,,,,,,,,,,,,,,,,,,,,,,,,,,,,,,,,,,,,,,,,,,,,,,,,,,,,,,,,,,,,,,,,,"[""period""]",0,[0.33640000009540927],51,0,51,0,1,,
,,,,,,,,,,,,5f46a4f25a01ee0369ccb14e,19,Mężczyzna,2022-06-25_15h32.01.931,task,2021.1.4,Win32,60.1612321,6299f149e92ead563fba08ef,62b70e474ce2e7f3be1ffd0c,,,,,,,,,,,,,,,,,,,,,,,,,,,,,,,,,,,,,,,,,,,,,,,,,,,,,,,,,,,,,,,,,,,,,,,,,,,,,,,,,,,,,,,,,,,,"[""period""]",0,[0.36690000009548385],52,0,52,0,1,,
,,,,,,,,,,,,5f46a4f25a01ee0369ccb14e,19,Mężczyzna,2022-06-25_15h32.01.931,task,2021.1.4,Win32,60.1612321,6299f149e92ead563fba08ef,62b70e474ce2e7f3be1ffd0c,,,,,,,,,,,,,,,,,,,,,,,,,,,,,,,,,,,,,,,,,,,,,,,,,,,,,,,,,,,,,,,,,,,,,,,,,,,,,,,,,,,,,,,,,,,,"[""comma""]",0,[0.2928999999762709],53,0,53,0,1,,
,,,,,,,,,,,,5f46a4f25a01ee0369ccb14e,19,Mężczyzna,2022-06-25_15h32.01.931,task,2021.1.4,Win32,60.1612321,6299f149e92ead563fba08ef,62b70e474ce2e7f3be1ffd0c,,,,,,,,,,,,,,,,,,,,,,,,,,,,,,,,,,,,,,,,,,,,,,,,,,,,,,,,,,,,,,,,,,,,,,,,,,,,,,,,,,,,,,,,,,,,"[""comma""]",0,[0.3176999999284362],54,0,54,0,1,,
,,,,,,,,,,,,5f46a4f25a01ee0369ccb14e,19,Mężczyzna,2022-06-25_15h32.01.931,task,2021.1.4,Win32,60.1612321,6299f149e92ead563fba08ef,62b70e474ce2e7f3be1ffd0c,,,,,,,,,,,,,,,,,,,,,,,,,,,,,,,,,,,,,,,,,,,,,,,,,,,,,,,,,,,,,,,,,,,,,,,,,,,,,,,,,,,,,,,,,,,,"[""comma""]",0,[0.2660000000000764],55,0,55,0,1,,
,,,,,,,,,,,,5f46a4f25a01ee0369ccb14e,19,Mężczyzna,2022-06-25_15h32.01.931,task,2021.1.4,Win32,60.1612321,6299f149e92ead563fba08ef,62b70e474ce2e7f3be1ffd0c,,,,,,,,,,,,,,,,,,,,,,,,,,,,,,,,,,,,,,,,,,,,,,,,,,,,,,,,,,,,,,,,,,,,,,,,,,,,,,,,,,,,,,,,,,,,"[""period""]",0,[0.2557000000476819],56,0,56,0,1,,
,,,,,,,,,,,,5f46a4f25a01ee0369ccb14e,19,Mężczyzna,2022-06-25_15h32.01.931,task,2021.1.4,Win32,60.1612321,6299f149e92ead563fba08ef,62b70e474ce2e7f3be1ffd0c,,,,,,,,,,,,,,,,,,,,,,,,,,,,,,,,,,,,,,,,,,,,,,,,,,,,,,,,,,,,,,,,,,,,,,,,,,,,,,,,,,,,,,,,,,,,"[""period""]",0,[0.28350000000000364],57,0,57,0,1,,
,,,,,,,,,,,,5f46a4f25a01ee0369ccb14e,19,Mężczyzna,2022-06-25_15h32.01.931,task,2021.1.4,Win32,60.1612321,6299f149e92ead563fba08ef,62b70e474ce2e7f3be1ffd0c,,,,,,,,,,,,,,,,,,,,,,,,,,,,,,,,,,,,,,,,,,,,,,,,,,,,,,,,,,,,,,,,,,,,,,,,,,,,,,,,,,,,,,,,,,,,"[""period""]",0,[0.3267999999522999],58,0,58,0,1,,
,,,,,,,,,,,,5f46a4f25a01ee0369ccb14e,19,Mężczyzna,2022-06-25_15h32.01.931,task,2021.1.4,Win32,60.1612321,6299f149e92ead563fba08ef,62b70e474ce2e7f3be1ffd0c,,,,,,,,,,,,,,,,,,,,,,,,,,,,,,,,,,,,,,,,,,,,,,,,,,,,,,,,,,,,,,,,,,,,,,,,,,,,,,,,,,,,,,,,,,,,"[""period""]",0,[0.30039999997620725],59,0,59,0,1,,
,,,,,,,,,,,,5f46a4f25a01ee0369ccb14e,19,Mężczyzna,2022-06-25_15h32.01.931,task,2021.1.4,Win32,60.1612321,6299f149e92ead563fba08ef,62b70e474ce2e7f3be1ffd0c,,,,,,,,,,,,,,,,,,,,,,,,,,,,,,,,,,,,,,,,,,,,,,,,,,,,,,,,,,,,,,,,,,,,,,,,,,,,,,,,,,,,,,,,,,,,"[""period""]",0,[0.25680000007173476],60,0,60,0,1,,
,,,,,,,,,,,,5f46a4f25a01ee0369ccb14e,19,Mężczyzna,2022-06-25_15h32.01.931,task,2021.1.4,Win32,60.1612321,6299f149e92ead563fba08ef,62b70e474ce2e7f3be1ffd0c,,,,,,,,,,,,,,,,,,,,,,,,,,,,,,,,,,,,,,,,,,,,,,,,,,,,,,,,,,,,,,,,,,,,,,,,,,,,,,,,,,,,,,,,,,,,"[""period""]",0,[0.25009999990447795],61,0,61,0,1,,
,,,,,,,,,,,,5f46a4f25a01ee0369ccb14e,19,Mężczyzna,2022-06-25_15h32.01.931,task,2021.1.4,Win32,60.1612321,6299f149e92ead563fba08ef,62b70e474ce2e7f3be1ffd0c,,,,,,,,,,,,,,,,,,,,,,,,,,,,,,,,,,,,,,,,,,,,,,,,,,,,,,,,,,,,,,,,,,,,,,,,,,,,,,,,,,,,,,,,,,,,"[""comma""]",0,[0.28379999995240723],62,0,62,0,1,,
,,,,,,,,,,,,5f46a4f25a01ee0369ccb14e,19,Mężczyzna,2022-06-25_15h32.01.931,task,2021.1.4,Win32,60.1612321,6299f149e92ead563fba08ef,62b70e474ce2e7f3be1ffd0c,,,,,,,,,,,,,,,,,,,,,,,,,,,,,,,,,,,,,,,,,,,,,,,,,,,,,,,,,,,,,,,,,,,,,,,,,,,,,,,,,,,,,,,,,,,,"[""period""]",0,[0.24979999995230173],63,0,63,0,1,,
,,,,,,,,,,,,5f46a4f25a01ee0369ccb14e,19,Mężczyzna,2022-06-25_15h32.01.931,task,2021.1.4,Win32,60.1612321,6299f149e92ead563fba08ef,62b70e474ce2e7f3be1ffd0c,,,,,,,,,,,,,,,,,,,,,,,,,,,,,,,,,,,,,,,,,,,,,,,,,,,,,,,,,,,,,,,,,,,,,,,,,,,,,,,,,,,,,,,,,,,,"[""period""]",0,[0.24520000004758913],64,0,64,0,1,,
,,,,,,,,,,,,5f46a4f25a01ee0369ccb14e,19,Mężczyzna,2022-06-25_15h32.01.931,task,2021.1.4,Win32,60.1612321,6299f149e92ead563fba08ef,62b70e474ce2e7f3be1ffd0c,,,,,,,,,,,,,,,,,,,,,,,,,,,,,,,,,,,,,,,,,,,,,,,,,,,,,,,,,,,,,,,,,,,,,,,,,,,,,,,,,,,,,,,,,,,,"[""period""]",0,[0.23989999997615996],65,0,65,0,1,,
,,,,,,,,,,,,5f46a4f25a01ee0369ccb14e,19,Mężczyzna,2022-06-25_15h32.01.931,task,2021.1.4,Win32,60.1612321,6299f149e92ead563fba08ef,62b70e474ce2e7f3be1ffd0c,,,,,,,,,,,,,,,,,,,,,,,,,,,,,,,,,,,,,,,,,,,,,,,,,,,,,,,,,,,,,,,,,,,,,,,,,,,,,,,,,,,,,,,,,,,,"[""comma""]",0,[0.28350000000000364],66,0,66,0,1,,
,,,,,,,,,,,,5f46a4f25a01ee0369ccb14e,19,Mężczyzna,2022-06-25_15h32.01.931,task,2021.1.4,Win32,60.1612321,6299f149e92ead563fba08ef,62b70e474ce2e7f3be1ffd0c,,,,,,,,,,,,,,,,,,,,,,,,,,,,,,,,,,,,,,,,,,,,,,,,,,,,,,,,,,,,,,,,,,,,,,,,,,,,,,,,,,,,,,,,,,,,"[""comma""]",0,[0.2998999999761054],67,0,67,0,1,,
,,,,,,,,,,,,5f46a4f25a01ee0369ccb14e,19,Mężczyzna,2022-06-25_15h32.01.931,task,2021.1.4,Win32,60.1612321,6299f149e92ead563fba08ef,62b70e474ce2e7f3be1ffd0c,,,,,,,,,,,,,,,,,,,,,,,,,,,,,,,,,,,,,,,,,,,,,,,,,,,,,,,,,,,,,,,,,,,,,,,,,,,,,,,,,,,,,,,,,,,,"[""period""]",0,[0.2257999999524145],68,0,68,0,1,,
,,,,,,,,,,,,5f46a4f25a01ee0369ccb14e,19,Mężczyzna,2022-06-25_15h32.01.931,task,2021.1.4,Win32,60.1612321,6299f149e92ead563fba08ef,62b70e474ce2e7f3be1ffd0c,,,,,,,,,,,,,,,,,,,,,,,,,,,,,,,,,,,,,,,,,,,,,,,,,,,,,,,,,,,,,,,,,,,,,,,,,,,,,,,,,,,,,,,,,,,,"[""comma""]",0,[0.21710000002371999],69,0,69,0,1,,
,,,,,,,,,,,,5f46a4f25a01ee0369ccb14e,19,Mężczyzna,2022-06-25_15h32.01.931,task,2021.1.4,Win32,60.1612321,6299f149e92ead563fba08ef,62b70e474ce2e7f3be1ffd0c,,,,,,,,,,,,,,,,,,,,,,,,,,,,,,,,,,,,,,,,,,,,,,,,,,,,,,,,,,,,,,,,,,,,,,,,,,,,,,,,,,,,,,,,,,,,"[""period""]",0,[0.16649999999981446],70,0,70,0,1,,
,,,,,,,,,,,,5f46a4f25a01ee0369ccb14e,19,Mężczyzna,2022-06-25_15h32.01.931,task,2021.1.4,Win32,60.1612321,6299f149e92ead563fba08ef,62b70e474ce2e7f3be1ffd0c,,,,,,,,,,,,,,,,,,,,,,,,,,,,,,,,,,,,,,,,,,,,,,,,,,,,,,,,,,,,,,,,,,,,,,,,,,,,,,,,,,,,,,,,,,,,"[""comma""]",0,[0.24990000009529467],71,0,71,0,1,,
,,,,,,,,,,,,5f46a4f25a01ee0369ccb14e,19,Mężczyzna,2022-06-25_15h32.01.931,task,2021.1.4,Win32,60.1612321,6299f149e92ead563fba08ef,62b70e474ce2e7f3be1ffd0c,,,,,,,,,,,,,,,,,,,,,,,,,,,,,,,,,,,,,,,,,,,,,,,,,,,,,,,,,,,,,,,,,,,,,,,,,,,,,,,,,,,,,,,,,,,,"[""comma""]",0,[0.2999999999999545],72,0,72,0,1,,
,,,,,,,,,,,,5f46a4f25a01ee0369ccb14e,19,Mężczyzna,2022-06-25_15h32.01.931,task,2021.1.4,Win32,60.1612321,6299f149e92ead563fba08ef,62b70e474ce2e7f3be1ffd0c,,,,,,,,,,,,,,,,,,,,,,,,,,,,,,,,,,,,,,,,,,,,,,,,,,,,,,,,,,,,,,,,,,,,,,,,,,,,,,,,,,,,,,,,,,,,"[""comma""]",0,[0.2448999999762691],73,0,73,0,1,,
,,,,,,,,,,,,5f46a4f25a01ee0369ccb14e,19,Mężczyzna,2022-06-25_15h32.01.931,task,2021.1.4,Win32,60.1612321,6299f149e92ead563fba08ef,62b70e474ce2e7f3be1ffd0c,,,,,,,,,,,,,,,,,,,,,,,,,,,,,,,,,,,,,,,,,,,,,,,,,,,,,,,,,,,,,,,,,,,,,,,,,,,,,,,,,,,,,,,,,,,,"[""comma""]",0,[0.2671000000236745],74,0,74,0,1,,
,,,,,,,,,,,,5f46a4f25a01ee0369ccb14e,19,Mężczyzna,2022-06-25_15h32.01.931,task,2021.1.4,Win32,60.1612321,6299f149e92ead563fba08ef,62b70e474ce2e7f3be1ffd0c,,,,,,,,,,,,,,,,,,,,,,,,,,,,,,,,,,,,,,,,,,,,,,,,,,,,,,,,,,,,,,,,,,,,,,,,,,,,,,,,,,,,,,,,,,,,"[""comma""]",0,[0.27289999997606174],75,0,75,0,1,,
,,,,,,,,,,,,5f46a4f25a01ee0369ccb14e,19,Mężczyzna,2022-06-25_15h32.01.931,task,2021.1.4,Win32,60.1612321,6299f149e92ead563fba08ef,62b70e474ce2e7f3be1ffd0c,,,,,,,,,,,,,,,,,,,,,,,,,,,,,,,,,,,,,,,,,,,,,,,,,,,,,,,,,,,,,,,,,,,,,,,,,,,,,,,,,,,,,,,,,,,,"[""comma""]",0,[0.26019999992854537],76,0,76,0,1,,
,,,,,,,,,,,,5f46a4f25a01ee0369ccb14e,19,Mężczyzna,2022-06-25_15h32.01.931,task,2021.1.4,Win32,60.1612321,6299f149e92ead563fba08ef,62b70e474ce2e7f3be1ffd0c,,,,,,,,,,,,,,,,,,,,,,,,,,,,,,,,,,,,,,,,,,,,,,,,,,,,,,,,,,,,,,,,,,,,,,,,,,,,,,,,,,,,,,,,,,,,"[""period""]",0,[0.25360000002388006],77,0,77,0,1,,
,,,,,,,,,,,,5f46a4f25a01ee0369ccb14e,19,Mężczyzna,2022-06-25_15h32.01.931,task,2021.1.4,Win32,60.1612321,6299f149e92ead563fba08ef,62b70e474ce2e7f3be1ffd0c,,,,,,,,,,,,,,,,,,,,,,,,,,,,,,,,,,,,,,,,,,,,,,,,,,,,,,,,,,,,,,,,,,,,,,,,,,,,,,,,,,,,,,,,,,,,"[""period""]",0,[0.35059999990448887],78,0,78,0,1,,
,,,,,,,,,,,,5f46a4f25a01ee0369ccb14e,19,Mężczyzna,2022-06-25_15h32.01.931,task,2021.1.4,Win32,60.1612321,6299f149e92ead563fba08ef,62b70e474ce2e7f3be1ffd0c,,,,,,,,,,,,,,,,,,,,,,,,,,,,,,,,,,,,,,,,,,,,,,,,,,,,,,,,,,,,,,,,,,,,,,,,,,,,,,,,,,,,,,,,,,,,"[""period""]",0,[0.28629999995223443],79,0,79,0,1,,
,,,,,,,,,,,,5f46a4f25a01ee0369ccb14e,19,Mężczyzna,2022-06-25_15h32.01.931,task,2021.1.4,Win32,60.1612321,6299f149e92ead563fba08ef,62b70e474ce2e7f3be1ffd0c,,,,,,,,,,,,,,,,,,,,,,,,,,,,,,,,,,,,,,,,,,,,,,,,,,,,,,,,,,,,,,,,,,,,,,,,,,,,,,,,,,,,,,,,,,,,"[""comma""]",0,[0.20020000004774374],80,0,80,0,1,,
,,,,,,,,,,,,5f46a4f25a01ee0369ccb14e,19,Mężczyzna,2022-06-25_15h32.01.931,task,2021.1.4,Win32,60.1612321,6299f149e92ead563fba08ef,62b70e474ce2e7f3be1ffd0c,,,,,,,,,,,,,,,,,,,,,,,,,,,,,,,,,,,,,,,,,,,,,,,,,,,,,,,,,,,,,,,,,,,,,,,,,,,,,,,,,,,,,,,,,,,,"[""period""]",0,[0.18389999997611994],81,0,81,0,1,,
,,,,,,,,,,,,5f46a4f25a01ee0369ccb14e,19,Mężczyzna,2022-06-25_15h32.01.931,task,2021.1.4,Win32,60.1612321,6299f149e92ead563fba08ef,62b70e474ce2e7f3be1ffd0c,,,,,,,,,,,,,,,,,,,,,,,,,,,,,,,,,,,,,,,,,,,,,,,,,,,,,,,,,,,,,,,,,,,,,,,,,,,,,,,,,,,,,,,,,,,,"[""period""]",0,[0.2538000000715783],82,0,82,0,1,,
,,,,,,,,,,,,5f46a4f25a01ee0369ccb14e,19,Mężczyzna,2022-06-25_15h32.01.931,task,2021.1.4,Win32,60.1612321,6299f149e92ead563fba08ef,62b70e474ce2e7f3be1ffd0c,,,,,,,,,,,,,,,,,,,,,,,,,,,,,,,,,,,,,,,,,,,,,,,,,,,,,,,,,,,,,,,,,,,,,,,,,,,,,,,,,,,,,,,,,,,,"[""period""]",0,[0.3022000000476055],83,0,83,0,1,,
,,,,,,,,,,,,5f46a4f25a01ee0369ccb14e,19,Mężczyzna,2022-06-25_15h32.01.931,task,2021.1.4,Win32,60.1612321,6299f149e92ead563fba08ef,62b70e474ce2e7f3be1ffd0c,,,,,,,,,,,,,,,,,,,,,,,,,,,,,,,,,,,,,,,,,,,,,,,,,,,,,,,,,,,,,,,,,,,,,,,,,,,,,,,,,,,,,,,,,,,,"[""period""]",0,[0.2920000000001437],84,0,84,0,1,,
,,,,,,,,,,,,5f46a4f25a01ee0369ccb14e,19,Mężczyzna,2022-06-25_15h32.01.931,task,2021.1.4,Win32,60.1612321,6299f149e92ead563fba08ef,62b70e474ce2e7f3be1ffd0c,,,,,,,,,,,,,,,,,,,,,,,,,,,,,,,,,,,,,,,,,,,,,,,,,,,,,,,,,,,,,,,,,,,,,,,,,,,,,,,,,,,,,,,,,,,,"[""period""]",0,[0.28670000004763097],85,0,85,0,1,,
,,,,,,,,,,,,5f46a4f25a01ee0369ccb14e,19,Mężczyzna,2022-06-25_15h32.01.931,task,2021.1.4,Win32,60.1612321,6299f149e92ead563fba08ef,62b70e474ce2e7f3be1ffd0c,,,,,,,,,,,,,,,,,,,,,,,,,,,,,,,,,,,,,,,,,,,,,,,,,,,,,,,,,,,,,,,,,,,,,,,,,,,,,,,,,,,,,,,,,,,,"[""period""]",0,[0.27639999997609266],86,0,86,0,1,,
,,,,,,,,,,,,5f46a4f25a01ee0369ccb14e,19,Mężczyzna,2022-06-25_15h32.01.931,task,2021.1.4,Win32,60.1612321,6299f149e92ead563fba08ef,62b70e474ce2e7f3be1ffd0c,,,,,,,,,,,,,,,,,,,,,,,,,,,,,,,,,,,,,,,,,,,,,,,,,,,,,,,,,,,,,,,,,,,,,,,,,,,,,,,,,,,,,,,,,,,,"[""period""]",0,[0.2837000000477019],87,0,87,0,1,,
,,,,,,,,,,,,5f46a4f25a01ee0369ccb14e,19,Mężczyzna,2022-06-25_15h32.01.931,task,2021.1.4,Win32,60.1612321,6299f149e92ead563fba08ef,62b70e474ce2e7f3be1ffd0c,,,,,,,,,,,,,,,,,,,,,,,,,,,,,,,,,,,,,,,,,,,,,,,,,,,,,,,,,,,,,,,,,,,,,,,,,,,,,,,,,,,,,,,,,,,,"[""comma""]",0,[0.2380000000000564],88,0,88,0,1,,
,,,,,,,,,,,,5f46a4f25a01ee0369ccb14e,19,Mężczyzna,2022-06-25_15h32.01.931,task,2021.1.4,Win32,60.1612321,6299f149e92ead563fba08ef,62b70e474ce2e7f3be1ffd0c,,,,,,,,,,,,,,,,,,,,,,,,,,,,,,,,,,,,,,,,,,,,,,,,,,,,,,,,,,,,,,,,,,,,,,,,,,,,,,,,,,,,,,,,,,,,"[""period""]",0,[0.20650000000000546],89,0,89,0,1,,
,,,,,,,,,,,,5f46a4f25a01ee0369ccb14e,19,Mężczyzna,2022-06-25_15h32.01.931,task,2021.1.4,Win32,60.1612321,6299f149e92ead563fba08ef,62b70e474ce2e7f3be1ffd0c,,,,,,,,,,,,,,,,,,,,,,,,,,,,,,,,,,,,,,,,,,,,,,,,,,,,,,,,,,,,,,,,,,,,,,,,,,,,,,,,,,,,,,,,,,,,"[""comma""]",0,[0.03709999990473989],90,0,90,0,1,,
,,,,,,,,,,,,5f46a4f25a01ee0369ccb14e,19,Mężczyzna,2022-06-25_15h32.01.931,task,2021.1.4,Win32,60.1612321,6299f149e92ead563fba08ef,62b70e474ce2e7f3be1ffd0c,,,,,,,,,,,,,,,,,,,,,,,,,,,,,,,,,,,,,,,,,,,,,,,,,,,,,,,,,,,,,,,,,,,,,,,,,,,,,,,,,,,,,,,,,,,,"[""comma""]",0,[0.26839999997628183],91,0,91,0,1,,
