key_resp_15.keys,key_resp_15.rt,key_resp_16.keys,key_resp_16.rt,key_resp_4.keys,key_resp_4.rt,next_letter.thisRepN,next_letter.thisTrialN,next_letter.thisN,next_letter.thisIndex,next_letter.ran,letter,participant,Wiek*,Płeć,date,expName,psychopyVersion,OS,frameRate,study_id,session,simple_recall,key_resp_5.keys,key_resp_5.rt,simple_recall_corr,simple_recall_corrkeys,next_level.thisRepN,next_level.thisTrialN,next_level.thisN,next_level.thisIndex,next_level.ran,key_resp_2.keys,key_resp_2.rt,digit_answer,key_resp.keys,key_resp.corr,key_resp.rt,RT_list,next_equation.thisRepN,next_equation.thisTrialN,next_equation.thisN,next_equation.thisIndex,next_equation.ran,Task,Trial,Problem,Operation_answer,processing_score,sumRT,meanRT,sumdiff,sd,RT,key_resp_3.keys,key_resp_3.rt,repeat_practice.thisRepN,repeat_practice.thisTrialN,repeat_practice.thisN,repeat_practice.thisIndex,repeat_practice.ran,key_resp_6.keys,key_resp_6.rt,key_resp_11.keys,key_resp_11.corr,operation_correct,repeat_if_wrong_prac.thisRepN,repeat_if_wrong_prac.thisTrialN,repeat_if_wrong_prac.thisN,repeat_if_wrong_prac.thisIndex,repeat_if_wrong_prac.ran,key_resp_11.rt,span_size_prac.thisRepN,span_size_prac.thisTrialN,span_size_prac.thisN,span_size_prac.thisIndex,span_size_prac.ran,complex_recall_practice,key_resp_9.keys,key_resp_9.corr,key_resp_9.rt,complex_prac_corr,span_recall_prac.thisRepN,span_recall_prac.thisTrialN,span_recall_prac.thisN,span_recall_prac.thisIndex,span_recall_prac.ran,key_resp_10.keys,key_resp_10.rt,key_resp_7.keys,key_resp_7.corr,key_resp_7.rt,repeat_if_wrong.thisRepN,repeat_if_wrong.thisTrialN,repeat_if_wrong.thisN,repeat_if_wrong.thisIndex,repeat_if_wrong.ran,span_size.thisRepN,span_size.thisTrialN,span_size.thisN,span_size.thisIndex,span_size.ran,complex_recall,key_resp_8.keys,key_resp_8.corr,key_resp_8.rt,complex_recall_corr,complex_recall_corrkeys,span_recall.thisRepN,span_recall.thisTrialN,span_recall.thisN,span_recall.thisIndex,span_recall.ran,key_resp_13.keys,key_resp_13.corr,key_resp_13.rt,random_loop.thisRepN,random_loop.thisTrialN,random_loop.thisN,random_loop.thisIndex,random_loop.ran,key_resp_12.keys,key_resp_12.rt
space,36.3337,space,14.6333,space,12.1578,0,0,0,0,1,X V Q F H G B L J M P D K C T S W R N Z,5f4699e88ed08d02e65b2240,22,Mężczyzna,2022-06-11_09h40.07.380,task,2021.1.4,Win32,59.86948452,6299f149e92ead563fba08ef,62a446ab03d90e3f21f4f1f4,,,,,,,,,,,,,,,,,,,,,,,,,,,,,,,,,,,,,,,,,,,,,,,,,,,,,,,,,,,,,,,,,,,,,,,,,,,,,,,,,,,,,,,,,,,,,,,,,,,,,
,,,,,,1,0,1,0,1,X V Q F H G B L J M P D K C T S W R N Z,5f4699e88ed08d02e65b2240,22,Mężczyzna,2022-06-11_09h40.07.380,task,2021.1.4,Win32,59.86948452,6299f149e92ead563fba08ef,62a446ab03d90e3f21f4f1f4,,,,,,,,,,,,,,,,,,,,,,,,,,,,,,,,,,,,,,,,,,,,,,,,,,,,,,,,,,,,,,,,,,,,,,,,,,,,,,,,,,,,,,,,,,,,,,,,,,,,,
,,,,,,,,,,,,5f4699e88ed08d02e65b2240,22,Mężczyzna,2022-06-11_09h40.07.380,task,2021.1.4,Win32,59.86948452,6299f149e92ead563fba08ef,62a446ab03d90e3f21f4f1f4,zw,"[""z"",""w""]","[3.596199999995534,4.447500000000005,6.247500000000002]",1,ZW,0,0,0,0,1,,,,,,,,,,,,,,,,,,,,,,,,,,,,,,,,,,,,,,,,,,,,,,,,,,,,,,,,,,,,,,,,,,,,,,,,,,,,,,,,,,,,,,,,,,,
,,,,,,0,0,0,0,1,X V Q F H G B L J M P D K C T S W R N Z,5f4699e88ed08d02e65b2240,22,Mężczyzna,2022-06-11_09h40.07.380,task,2021.1.4,Win32,59.86948452,6299f149e92ead563fba08ef,62a446ab03d90e3f21f4f1f4,,,,,,,,,,,,,,,,,,,,,,,,,,,,,,,,,,,,,,,,,,,,,,,,,,,,,,,,,,,,,,,,,,,,,,,,,,,,,,,,,,,,,,,,,,,,,,,,,,,,,
,,,,,,1,0,1,0,1,X V Q F H G B L J M P D K C T S W R N Z,5f4699e88ed08d02e65b2240,22,Mężczyzna,2022-06-11_09h40.07.380,task,2021.1.4,Win32,59.86948452,6299f149e92ead563fba08ef,62a446ab03d90e3f21f4f1f4,,,,,,,,,,,,,,,,,,,,,,,,,,,,,,,,,,,,,,,,,,,,,,,,,,,,,,,,,,,,,,,,,,,,,,,,,,,,,,,,,,,,,,,,,,,,,,,,,,,,,
,,,,,,,,,,,,5f4699e88ed08d02e65b2240,22,Mężczyzna,2022-06-11_09h40.07.380,task,2021.1.4,Win32,59.86948452,6299f149e92ead563fba08ef,62a446ab03d90e3f21f4f1f4,wp,"[""w"",""p""]","[1.4521000000014936,1.9191000000014924,3.1526000000014847]",1,WP,1,0,1,0,1,,,,,,,,,,,,,,,,,,,,,,,,,,,,,,,,,,,,,,,,,,,,,,,,,,,,,,,,,,,,,,,,,,,,,,,,,,,,,,,,,,,,,,,,,,,
,,,,,,0,0,0,0,1,X V Q F H G B L J M P D K C T S W R N Z,5f4699e88ed08d02e65b2240,22,Mężczyzna,2022-06-11_09h40.07.380,task,2021.1.4,Win32,59.86948452,6299f149e92ead563fba08ef,62a446ab03d90e3f21f4f1f4,,,,,,,,,,,,,,,,,,,,,,,,,,,,,,,,,,,,,,,,,,,,,,,,,,,,,,,,,,,,,,,,,,,,,,,,,,,,,,,,,,,,,,,,,,,,,,,,,,,,,
,,,,,,1,0,1,0,1,X V Q F H G B L J M P D K C T S W R N Z,5f4699e88ed08d02e65b2240,22,Mężczyzna,2022-06-11_09h40.07.380,task,2021.1.4,Win32,59.86948452,6299f149e92ead563fba08ef,62a446ab03d90e3f21f4f1f4,,,,,,,,,,,,,,,,,,,,,,,,,,,,,,,,,,,,,,,,,,,,,,,,,,,,,,,,,,,,,,,,,,,,,,,,,,,,,,,,,,,,,,,,,,,,,,,,,,,,,
,,,,,,2,0,2,0,1,X V Q F H G B L J M P D K C T S W R N Z,5f4699e88ed08d02e65b2240,22,Mężczyzna,2022-06-11_09h40.07.380,task,2021.1.4,Win32,59.86948452,6299f149e92ead563fba08ef,62a446ab03d90e3f21f4f1f4,,,,,,,,,,,,,,,,,,,,,,,,,,,,,,,,,,,,,,,,,,,,,,,,,,,,,,,,,,,,,,,,,,,,,,,,,,,,,,,,,,,,,,,,,,,,,,,,,,,,,
,,,,,,,,,,,,5f4699e88ed08d02e65b2240,22,Mężczyzna,2022-06-11_09h40.07.380,task,2021.1.4,Win32,59.86948452,6299f149e92ead563fba08ef,62a446ab03d90e3f21f4f1f4,zfh,"[""z"",""f"",""h""]","[1.2012000000029843,2.5867000000029776,3.737600000001507,46.47340000000595]",1,ZFH,2,0,2,0,1,,,,,,,,,,,,,,,,,,,,,,,,,,,,,,,,,,,,,,,,,,,,,,,,,,,,,,,,,,,,,,,,,,,,,,,,,,,,,,,,,,,,,,,,,,,
,,,,,,0,0,0,0,1,X V Q F H G B L J M P D K C T S W R N Z,5f4699e88ed08d02e65b2240,22,Mężczyzna,2022-06-11_09h40.07.380,task,2021.1.4,Win32,59.86948452,6299f149e92ead563fba08ef,62a446ab03d90e3f21f4f1f4,,,,,,,,,,,,,,,,,,,,,,,,,,,,,,,,,,,,,,,,,,,,,,,,,,,,,,,,,,,,,,,,,,,,,,,,,,,,,,,,,,,,,,,,,,,,,,,,,,,,,
,,,,,,1,0,1,0,1,X V Q F H G B L J M P D K C T S W R N Z,5f4699e88ed08d02e65b2240,22,Mężczyzna,2022-06-11_09h40.07.380,task,2021.1.4,Win32,59.86948452,6299f149e92ead563fba08ef,62a446ab03d90e3f21f4f1f4,,,,,,,,,,,,,,,,,,,,,,,,,,,,,,,,,,,,,,,,,,,,,,,,,,,,,,,,,,,,,,,,,,,,,,,,,,,,,,,,,,,,,,,,,,,,,,,,,,,,,
,,,,,,2,0,2,0,1,X V Q F H G B L J M P D K C T S W R N Z,5f4699e88ed08d02e65b2240,22,Mężczyzna,2022-06-11_09h40.07.380,task,2021.1.4,Win32,59.86948452,6299f149e92ead563fba08ef,62a446ab03d90e3f21f4f1f4,,,,,,,,,,,,,,,,,,,,,,,,,,,,,,,,,,,,,,,,,,,,,,,,,,,,,,,,,,,,,,,,,,,,,,,,,,,,,,,,,,,,,,,,,,,,,,,,,,,,,
,,,,,,,,,,,,5f4699e88ed08d02e65b2240,22,Mężczyzna,2022-06-11_09h40.07.380,task,2021.1.4,Win32,59.86948452,6299f149e92ead563fba08ef,62a446ab03d90e3f21f4f1f4,xqn,"[""x"",""q"",""n""]","[4.768400000005954,5.201900000005963,6.586200000002975,6.994400000005953]",1,XQN,3,0,3,0,1,,,,,,,,,,,,,,,,,,,,,,,,,,,,,,,,,,,,,,,,,,,,,,,,,,,,,,,,,,,,,,,,,,,,,,,,,,,,,,,,,,,,,,,,,,,
,,,,,,0,0,0,0,1,X V Q F H G B L J M P D K C T S W R N Z,5f4699e88ed08d02e65b2240,22,Mężczyzna,2022-06-11_09h40.07.380,task,2021.1.4,Win32,59.86948452,6299f149e92ead563fba08ef,62a446ab03d90e3f21f4f1f4,,,,,,,,,,,,,,,,,,,,,,,,,,,,,,,,,,,,,,,,,,,,,,,,,,,,,,,,,,,,,,,,,,,,,,,,,,,,,,,,,,,,,,,,,,,,,,,,,,,,,
,,,,,,1,0,1,0,1,X V Q F H G B L J M P D K C T S W R N Z,5f4699e88ed08d02e65b2240,22,Mężczyzna,2022-06-11_09h40.07.380,task,2021.1.4,Win32,59.86948452,6299f149e92ead563fba08ef,62a446ab03d90e3f21f4f1f4,,,,,,,,,,,,,,,,,,,,,,,,,,,,,,,,,,,,,,,,,,,,,,,,,,,,,,,,,,,,,,,,,,,,,,,,,,,,,,,,,,,,,,,,,,,,,,,,,,,,,
,,,,,,2,0,2,0,1,X V Q F H G B L J M P D K C T S W R N Z,5f4699e88ed08d02e65b2240,22,Mężczyzna,2022-06-11_09h40.07.380,task,2021.1.4,Win32,59.86948452,6299f149e92ead563fba08ef,62a446ab03d90e3f21f4f1f4,,,,,,,,,,,,,,,,,,,,,,,,,,,,,,,,,,,,,,,,,,,,,,,,,,,,,,,,,,,,,,,,,,,,,,,,,,,,,,,,,,,,,,,,,,,,,,,,,,,,,
,,,,,,3,0,3,0,1,X V Q F H G B L J M P D K C T S W R N Z,5f4699e88ed08d02e65b2240,22,Mężczyzna,2022-06-11_09h40.07.380,task,2021.1.4,Win32,59.86948452,6299f149e92ead563fba08ef,62a446ab03d90e3f21f4f1f4,,,,,,,,,,,,,,,,,,,,,,,,,,,,,,,,,,,,,,,,,,,,,,,,,,,,,,,,,,,,,,,,,,,,,,,,,,,,,,,,,,,,,,,,,,,,,,,,,,,,,
,,,,,,,,,,,,5f4699e88ed08d02e65b2240,22,Mężczyzna,2022-06-11_09h40.07.380,task,2021.1.4,Win32,59.86948452,6299f149e92ead563fba08ef,62a446ab03d90e3f21f4f1f4,lvgf,"[""l"",""v"",""g"",""f""]","[2.278599999994043,2.7985999999940248,4.573499999999996,6.006799999997014,6.67259999999402]",1,LVGF,4,0,4,0,1,,,,,,,,,,,,,,,,,,,,,,,,,,,,,,,,,,,,,,,,,,,,,,,,,,,,,,,,,,,,,,,,,,,,,,,,,,,,,,,,,,,,,,,,,,,
,,,,,,0,0,0,0,1,X V Q F H G B L J M P D K C T S W R N Z,5f4699e88ed08d02e65b2240,22,Mężczyzna,2022-06-11_09h40.07.380,task,2021.1.4,Win32,59.86948452,6299f149e92ead563fba08ef,62a446ab03d90e3f21f4f1f4,,,,,,,,,,,,,,,,,,,,,,,,,,,,,,,,,,,,,,,,,,,,,,,,,,,,,,,,,,,,,,,,,,,,,,,,,,,,,,,,,,,,,,,,,,,,,,,,,,,,,
,,,,,,1,0,1,0,1,X V Q F H G B L J M P D K C T S W R N Z,5f4699e88ed08d02e65b2240,22,Mężczyzna,2022-06-11_09h40.07.380,task,2021.1.4,Win32,59.86948452,6299f149e92ead563fba08ef,62a446ab03d90e3f21f4f1f4,,,,,,,,,,,,,,,,,,,,,,,,,,,,,,,,,,,,,,,,,,,,,,,,,,,,,,,,,,,,,,,,,,,,,,,,,,,,,,,,,,,,,,,,,,,,,,,,,,,,,
,,,,,,2,0,2,0,1,X V Q F H G B L J M P D K C T S W R N Z,5f4699e88ed08d02e65b2240,22,Mężczyzna,2022-06-11_09h40.07.380,task,2021.1.4,Win32,59.86948452,6299f149e92ead563fba08ef,62a446ab03d90e3f21f4f1f4,,,,,,,,,,,,,,,,,,,,,,,,,,,,,,,,,,,,,,,,,,,,,,,,,,,,,,,,,,,,,,,,,,,,,,,,,,,,,,,,,,,,,,,,,,,,,,,,,,,,,
,,,,,,3,0,3,0,1,X V Q F H G B L J M P D K C T S W R N Z,5f4699e88ed08d02e65b2240,22,Mężczyzna,2022-06-11_09h40.07.380,task,2021.1.4,Win32,59.86948452,6299f149e92ead563fba08ef,62a446ab03d90e3f21f4f1f4,,,,,,,,,,,,,,,,,,,,,,,,,,,,,,,,,,,,,,,,,,,,,,,,,,,,,,,,,,,,,,,,,,,,,,,,,,,,,,,,,,,,,,,,,,,,,,,,,,,,,
,,,,,,,,,,,,5f4699e88ed08d02e65b2240,22,Mężczyzna,2022-06-11_09h40.07.380,task,2021.1.4,Win32,59.86948452,6299f149e92ead563fba08ef,62a446ab03d90e3f21f4f1f4,pzgp,"[""p"",""z"",""g"",""p""]","[2.542500000000018,2.8377999999970314,3.942099999994042,5.724799999997032,6.535500000000013]",0,PZGB,5,0,5,0,1,,,,,,,,,,,,,,,,,,,,,,,,,,,,,,,,,,,,,,,,,,,,,,,,,,,,,,,,,,,,,,,,,,,,,,,,,,,,,,,,,,,,,,,,,,,
,,,,,,0,0,0,0,1,X V Q F H G B L J M P D K C T S W R N Z,5f4699e88ed08d02e65b2240,22,Mężczyzna,2022-06-11_09h40.07.380,task,2021.1.4,Win32,59.86948452,6299f149e92ead563fba08ef,62a446ab03d90e3f21f4f1f4,,,,,,,,,,,,,,,,,,,,,,,,,,,,,,,,,,,,,,,,,,,,,,,,,,,,,,,,,,,,,,,,,,,,,,,,,,,,,,,,,,,,,,,,,,,,,,,,,,,,,
,,,,,,1,0,1,0,1,X V Q F H G B L J M P D K C T S W R N Z,5f4699e88ed08d02e65b2240,22,Mężczyzna,2022-06-11_09h40.07.380,task,2021.1.4,Win32,59.86948452,6299f149e92ead563fba08ef,62a446ab03d90e3f21f4f1f4,,,,,,,,,,,,,,,,,,,,,,,,,,,,,,,,,,,,,,,,,,,,,,,,,,,,,,,,,,,,,,,,,,,,,,,,,,,,,,,,,,,,,,,,,,,,,,,,,,,,,
,,,,,,2,0,2,0,1,X V Q F H G B L J M P D K C T S W R N Z,5f4699e88ed08d02e65b2240,22,Mężczyzna,2022-06-11_09h40.07.380,task,2021.1.4,Win32,59.86948452,6299f149e92ead563fba08ef,62a446ab03d90e3f21f4f1f4,,,,,,,,,,,,,,,,,,,,,,,,,,,,,,,,,,,,,,,,,,,,,,,,,,,,,,,,,,,,,,,,,,,,,,,,,,,,,,,,,,,,,,,,,,,,,,,,,,,,,
,,,,,,3,0,3,0,1,X V Q F H G B L J M P D K C T S W R N Z,5f4699e88ed08d02e65b2240,22,Mężczyzna,2022-06-11_09h40.07.380,task,2021.1.4,Win32,59.86948452,6299f149e92ead563fba08ef,62a446ab03d90e3f21f4f1f4,,,,,,,,,,,,,,,,,,,,,,,,,,,,,,,,,,,,,,,,,,,,,,,,,,,,,,,,,,,,,,,,,,,,,,,,,,,,,,,,,,,,,,,,,,,,,,,,,,,,,
,,,,,,,,,,,,5f4699e88ed08d02e65b2240,22,Mężczyzna,2022-06-11_09h40.07.380,task,2021.1.4,Win32,59.86948452,6299f149e92ead563fba08ef,62a446ab03d90e3f21f4f1f4,txnn,"[""t"",""x"",""n"",""n""]","[2.1022999999970295,2.5633999999985235,3.427899999998516,3.6422999999970216,5.404299999997022]",1,TXNN,6,0,6,0,1,,,,,,,,,,,,,,,,,,,,,,,,,,,,,,,,,,,,,,,,,,,,,,,,,,,,,,,,,,,,,,,,,,,,,,,,,,,,,,,,,,,,,,,,,,,
,,,,,,0,0,0,0,1,X V Q F H G B L J M P D K C T S W R N Z,5f4699e88ed08d02e65b2240,22,Mężczyzna,2022-06-11_09h40.07.380,task,2021.1.4,Win32,59.86948452,6299f149e92ead563fba08ef,62a446ab03d90e3f21f4f1f4,,,,,,,,,,,,,,,,,,,,,,,,,,,,,,,,,,,,,,,,,,,,,,,,,,,,,,,,,,,,,,,,,,,,,,,,,,,,,,,,,,,,,,,,,,,,,,,,,,,,,
,,,,,,1,0,1,0,1,X V Q F H G B L J M P D K C T S W R N Z,5f4699e88ed08d02e65b2240,22,Mężczyzna,2022-06-11_09h40.07.380,task,2021.1.4,Win32,59.86948452,6299f149e92ead563fba08ef,62a446ab03d90e3f21f4f1f4,,,,,,,,,,,,,,,,,,,,,,,,,,,,,,,,,,,,,,,,,,,,,,,,,,,,,,,,,,,,,,,,,,,,,,,,,,,,,,,,,,,,,,,,,,,,,,,,,,,,,
,,,,,,2,0,2,0,1,X V Q F H G B L J M P D K C T S W R N Z,5f4699e88ed08d02e65b2240,22,Mężczyzna,2022-06-11_09h40.07.380,task,2021.1.4,Win32,59.86948452,6299f149e92ead563fba08ef,62a446ab03d90e3f21f4f1f4,,,,,,,,,,,,,,,,,,,,,,,,,,,,,,,,,,,,,,,,,,,,,,,,,,,,,,,,,,,,,,,,,,,,,,,,,,,,,,,,,,,,,,,,,,,,,,,,,,,,,
,,,,,,3,0,3,0,1,X V Q F H G B L J M P D K C T S W R N Z,5f4699e88ed08d02e65b2240,22,Mężczyzna,2022-06-11_09h40.07.380,task,2021.1.4,Win32,59.86948452,6299f149e92ead563fba08ef,62a446ab03d90e3f21f4f1f4,,,,,,,,,,,,,,,,,,,,,,,,,,,,,,,,,,,,,,,,,,,,,,,,,,,,,,,,,,,,,,,,,,,,,,,,,,,,,,,,,,,,,,,,,,,,,,,,,,,,,
,,,,,,4,0,4,0,1,X V Q F H G B L J M P D K C T S W R N Z,5f4699e88ed08d02e65b2240,22,Mężczyzna,2022-06-11_09h40.07.380,task,2021.1.4,Win32,59.86948452,6299f149e92ead563fba08ef,62a446ab03d90e3f21f4f1f4,,,,,,,,,,,,,,,,,,,,,,,,,,,,,,,,,,,,,,,,,,,,,,,,,,,,,,,,,,,,,,,,,,,,,,,,,,,,,,,,,,,,,,,,,,,,,,,,,,,,,
,,,,,,,,,,,,5f4699e88ed08d02e65b2240,22,Mężczyzna,2022-06-11_09h40.07.380,task,2021.1.4,Win32,59.86948452,6299f149e92ead563fba08ef,62a446ab03d90e3f21f4f1f4,srxdr,"[""s"",""r"",""x"",""d"",""r""]","[2.5170999999940307,3.117999999999995,3.763399999998512,4.101099999994034,4.393499999999989,6.102000000000004]",1,SRXDR,7,0,7,0,1,,,,,,,,,,,,,,,,,,,,,,,,,,,,,,,,,,,,,,,,,,,,,,,,,,,,,,,,,,,,,,,,,,,,,,,,,,,,,,,,,,,,,,,,,,,
,,,,,,0,0,0,0,1,X V Q F H G B L J M P D K C T S W R N Z,5f4699e88ed08d02e65b2240,22,Mężczyzna,2022-06-11_09h40.07.380,task,2021.1.4,Win32,59.86948452,6299f149e92ead563fba08ef,62a446ab03d90e3f21f4f1f4,,,,,,,,,,,,,,,,,,,,,,,,,,,,,,,,,,,,,,,,,,,,,,,,,,,,,,,,,,,,,,,,,,,,,,,,,,,,,,,,,,,,,,,,,,,,,,,,,,,,,
,,,,,,1,0,1,0,1,X V Q F H G B L J M P D K C T S W R N Z,5f4699e88ed08d02e65b2240,22,Mężczyzna,2022-06-11_09h40.07.380,task,2021.1.4,Win32,59.86948452,6299f149e92ead563fba08ef,62a446ab03d90e3f21f4f1f4,,,,,,,,,,,,,,,,,,,,,,,,,,,,,,,,,,,,,,,,,,,,,,,,,,,,,,,,,,,,,,,,,,,,,,,,,,,,,,,,,,,,,,,,,,,,,,,,,,,,,
,,,,,,2,0,2,0,1,X V Q F H G B L J M P D K C T S W R N Z,5f4699e88ed08d02e65b2240,22,Mężczyzna,2022-06-11_09h40.07.380,task,2021.1.4,Win32,59.86948452,6299f149e92ead563fba08ef,62a446ab03d90e3f21f4f1f4,,,,,,,,,,,,,,,,,,,,,,,,,,,,,,,,,,,,,,,,,,,,,,,,,,,,,,,,,,,,,,,,,,,,,,,,,,,,,,,,,,,,,,,,,,,,,,,,,,,,,
,,,,,,3,0,3,0,1,X V Q F H G B L J M P D K C T S W R N Z,5f4699e88ed08d02e65b2240,22,Mężczyzna,2022-06-11_09h40.07.380,task,2021.1.4,Win32,59.86948452,6299f149e92ead563fba08ef,62a446ab03d90e3f21f4f1f4,,,,,,,,,,,,,,,,,,,,,,,,,,,,,,,,,,,,,,,,,,,,,,,,,,,,,,,,,,,,,,,,,,,,,,,,,,,,,,,,,,,,,,,,,,,,,,,,,,,,,
,,,,,,4,0,4,0,1,X V Q F H G B L J M P D K C T S W R N Z,5f4699e88ed08d02e65b2240,22,Mężczyzna,2022-06-11_09h40.07.380,task,2021.1.4,Win32,59.86948452,6299f149e92ead563fba08ef,62a446ab03d90e3f21f4f1f4,,,,,,,,,,,,,,,,,,,,,,,,,,,,,,,,,,,,,,,,,,,,,,,,,,,,,,,,,,,,,,,,,,,,,,,,,,,,,,,,,,,,,,,,,,,,,,,,,,,,,
,,,,,,,,,,,,5f4699e88ed08d02e65b2240,22,Mężczyzna,2022-06-11_09h40.07.380,task,2021.1.4,Win32,59.86948452,6299f149e92ead563fba08ef,62a446ab03d90e3f21f4f1f4,kjcsq,"[""k"",""j"",""c"",""s"",""q""]","[7.847199999995553,8.354600000001511,9.246899999998533,10.371699999995542,10.863699999995532,13.748500000000007]",1,KJCSQ,8,0,8,0,1,,,,,,,,,,,,,,,,,,,,,,,,,,,,,,,,,,,,,,,,,,,,,,,,,,,,,,,,,,,,,,,,,,,,,,,,,,,,,,,,,,,,,,,,,,,
,,,,,,0,0,0,0,1,X V Q F H G B L J M P D K C T S W R N Z,5f4699e88ed08d02e65b2240,22,Mężczyzna,2022-06-11_09h40.07.380,task,2021.1.4,Win32,59.86948452,6299f149e92ead563fba08ef,62a446ab03d90e3f21f4f1f4,,,,,,,,,,,,,,,,,,,,,,,,,,,,,,,,,,,,,,,,,,,,,,,,,,,,,,,,,,,,,,,,,,,,,,,,,,,,,,,,,,,,,,,,,,,,,,,,,,,,,
,,,,,,1,0,1,0,1,X V Q F H G B L J M P D K C T S W R N Z,5f4699e88ed08d02e65b2240,22,Mężczyzna,2022-06-11_09h40.07.380,task,2021.1.4,Win32,59.86948452,6299f149e92ead563fba08ef,62a446ab03d90e3f21f4f1f4,,,,,,,,,,,,,,,,,,,,,,,,,,,,,,,,,,,,,,,,,,,,,,,,,,,,,,,,,,,,,,,,,,,,,,,,,,,,,,,,,,,,,,,,,,,,,,,,,,,,,
,,,,,,2,0,2,0,1,X V Q F H G B L J M P D K C T S W R N Z,5f4699e88ed08d02e65b2240,22,Mężczyzna,2022-06-11_09h40.07.380,task,2021.1.4,Win32,59.86948452,6299f149e92ead563fba08ef,62a446ab03d90e3f21f4f1f4,,,,,,,,,,,,,,,,,,,,,,,,,,,,,,,,,,,,,,,,,,,,,,,,,,,,,,,,,,,,,,,,,,,,,,,,,,,,,,,,,,,,,,,,,,,,,,,,,,,,,
,,,,,,3,0,3,0,1,X V Q F H G B L J M P D K C T S W R N Z,5f4699e88ed08d02e65b2240,22,Mężczyzna,2022-06-11_09h40.07.380,task,2021.1.4,Win32,59.86948452,6299f149e92ead563fba08ef,62a446ab03d90e3f21f4f1f4,,,,,,,,,,,,,,,,,,,,,,,,,,,,,,,,,,,,,,,,,,,,,,,,,,,,,,,,,,,,,,,,,,,,,,,,,,,,,,,,,,,,,,,,,,,,,,,,,,,,,
,,,,,,4,0,4,0,1,X V Q F H G B L J M P D K C T S W R N Z,5f4699e88ed08d02e65b2240,22,Mężczyzna,2022-06-11_09h40.07.380,task,2021.1.4,Win32,59.86948452,6299f149e92ead563fba08ef,62a446ab03d90e3f21f4f1f4,,,,,,,,,,,,,,,,,,,,,,,,,,,,,,,,,,,,,,,,,,,,,,,,,,,,,,,,,,,,,,,,,,,,,,,,,,,,,,,,,,,,,,,,,,,,,,,,,,,,,
,,,,,,5,0,5,0,1,X V Q F H G B L J M P D K C T S W R N Z,5f4699e88ed08d02e65b2240,22,Mężczyzna,2022-06-11_09h40.07.380,task,2021.1.4,Win32,59.86948452,6299f149e92ead563fba08ef,62a446ab03d90e3f21f4f1f4,,,,,,,,,,,,,,,,,,,,,,,,,,,,,,,,,,,,,,,,,,,,,,,,,,,,,,,,,,,,,,,,,,,,,,,,,,,,,,,,,,,,,,,,,,,,,,,,,,,,,
,,,,,,,,,,,,5f4699e88ed08d02e65b2240,22,Mężczyzna,2022-06-11_09h40.07.380,task,2021.1.4,Win32,59.86948452,6299f149e92ead563fba08ef,62a446ab03d90e3f21f4f1f4,fwvdzz,"[""f"",""w"",""v"",""d"",""z"",""z""]","[2.303600000001495,2.735399999998492,4.607299999996997,4.925700000002962,5.3186000000014815,5.479600000001483,6.85079999999698]",1,FWVDZZ,9,0,9,0,1,,,,,,,,,,,,,,,,,,,,,,,,,,,,,,,,,,,,,,,,,,,,,,,,,,,,,,,,,,,,,,,,,,,,,,,,,,,,,,,,,,,,,,,,,,,
,,,,,,0,0,0,0,1,X V Q F H G B L J M P D K C T S W R N Z,5f4699e88ed08d02e65b2240,22,Mężczyzna,2022-06-11_09h40.07.380,task,2021.1.4,Win32,59.86948452,6299f149e92ead563fba08ef,62a446ab03d90e3f21f4f1f4,,,,,,,,,,,,,,,,,,,,,,,,,,,,,,,,,,,,,,,,,,,,,,,,,,,,,,,,,,,,,,,,,,,,,,,,,,,,,,,,,,,,,,,,,,,,,,,,,,,,,
,,,,,,1,0,1,0,1,X V Q F H G B L J M P D K C T S W R N Z,5f4699e88ed08d02e65b2240,22,Mężczyzna,2022-06-11_09h40.07.380,task,2021.1.4,Win32,59.86948452,6299f149e92ead563fba08ef,62a446ab03d90e3f21f4f1f4,,,,,,,,,,,,,,,,,,,,,,,,,,,,,,,,,,,,,,,,,,,,,,,,,,,,,,,,,,,,,,,,,,,,,,,,,,,,,,,,,,,,,,,,,,,,,,,,,,,,,
,,,,,,2,0,2,0,1,X V Q F H G B L J M P D K C T S W R N Z,5f4699e88ed08d02e65b2240,22,Mężczyzna,2022-06-11_09h40.07.380,task,2021.1.4,Win32,59.86948452,6299f149e92ead563fba08ef,62a446ab03d90e3f21f4f1f4,,,,,,,,,,,,,,,,,,,,,,,,,,,,,,,,,,,,,,,,,,,,,,,,,,,,,,,,,,,,,,,,,,,,,,,,,,,,,,,,,,,,,,,,,,,,,,,,,,,,,
,,,,,,3,0,3,0,1,X V Q F H G B L J M P D K C T S W R N Z,5f4699e88ed08d02e65b2240,22,Mężczyzna,2022-06-11_09h40.07.380,task,2021.1.4,Win32,59.86948452,6299f149e92ead563fba08ef,62a446ab03d90e3f21f4f1f4,,,,,,,,,,,,,,,,,,,,,,,,,,,,,,,,,,,,,,,,,,,,,,,,,,,,,,,,,,,,,,,,,,,,,,,,,,,,,,,,,,,,,,,,,,,,,,,,,,,,,
,,,,,,4,0,4,0,1,X V Q F H G B L J M P D K C T S W R N Z,5f4699e88ed08d02e65b2240,22,Mężczyzna,2022-06-11_09h40.07.380,task,2021.1.4,Win32,59.86948452,6299f149e92ead563fba08ef,62a446ab03d90e3f21f4f1f4,,,,,,,,,,,,,,,,,,,,,,,,,,,,,,,,,,,,,,,,,,,,,,,,,,,,,,,,,,,,,,,,,,,,,,,,,,,,,,,,,,,,,,,,,,,,,,,,,,,,,
,,,,,,5,0,5,0,1,X V Q F H G B L J M P D K C T S W R N Z,5f4699e88ed08d02e65b2240,22,Mężczyzna,2022-06-11_09h40.07.380,task,2021.1.4,Win32,59.86948452,6299f149e92ead563fba08ef,62a446ab03d90e3f21f4f1f4,,,,,,,,,,,,,,,,,,,,,,,,,,,,,,,,,,,,,,,,,,,,,,,,,,,,,,,,,,,,,,,,,,,,,,,,,,,,,,,,,,,,,,,,,,,,,,,,,,,,,
,,,,,,,,,,,,5f4699e88ed08d02e65b2240,22,Mężczyzna,2022-06-11_09h40.07.380,task,2021.1.4,Win32,59.86948452,6299f149e92ead563fba08ef,62a446ab03d90e3f21f4f1f4,ktwdtx,"[""k"",""t"",""w"",""d"",""t"",""x""]","[2.2887000000030184,3.1006000000015206,3.5858000000044967,3.9003000000045063,4.401600000001508,4.928900000005967,6.856900000005965]",1,KTWDTX,10,0,10,0,1,,,,,,,,,,,,,,,,,,,,,,,,,,,,,,,,,,,,,,,,,,,,,,,,,,,,,,,,,,,,,,,,,,,,,,,,,,,,,,,,,,,,,,,,,,,
,,,,,,0,0,0,0,1,X V Q F H G B L J M P D K C T S W R N Z,5f4699e88ed08d02e65b2240,22,Mężczyzna,2022-06-11_09h40.07.380,task,2021.1.4,Win32,59.86948452,6299f149e92ead563fba08ef,62a446ab03d90e3f21f4f1f4,,,,,,,,,,,,,,,,,,,,,,,,,,,,,,,,,,,,,,,,,,,,,,,,,,,,,,,,,,,,,,,,,,,,,,,,,,,,,,,,,,,,,,,,,,,,,,,,,,,,,
,,,,,,1,0,1,0,1,X V Q F H G B L J M P D K C T S W R N Z,5f4699e88ed08d02e65b2240,22,Mężczyzna,2022-06-11_09h40.07.380,task,2021.1.4,Win32,59.86948452,6299f149e92ead563fba08ef,62a446ab03d90e3f21f4f1f4,,,,,,,,,,,,,,,,,,,,,,,,,,,,,,,,,,,,,,,,,,,,,,,,,,,,,,,,,,,,,,,,,,,,,,,,,,,,,,,,,,,,,,,,,,,,,,,,,,,,,
,,,,,,2,0,2,0,1,X V Q F H G B L J M P D K C T S W R N Z,5f4699e88ed08d02e65b2240,22,Mężczyzna,2022-06-11_09h40.07.380,task,2021.1.4,Win32,59.86948452,6299f149e92ead563fba08ef,62a446ab03d90e3f21f4f1f4,,,,,,,,,,,,,,,,,,,,,,,,,,,,,,,,,,,,,,,,,,,,,,,,,,,,,,,,,,,,,,,,,,,,,,,,,,,,,,,,,,,,,,,,,,,,,,,,,,,,,
,,,,,,3,0,3,0,1,X V Q F H G B L J M P D K C T S W R N Z,5f4699e88ed08d02e65b2240,22,Mężczyzna,2022-06-11_09h40.07.380,task,2021.1.4,Win32,59.86948452,6299f149e92ead563fba08ef,62a446ab03d90e3f21f4f1f4,,,,,,,,,,,,,,,,,,,,,,,,,,,,,,,,,,,,,,,,,,,,,,,,,,,,,,,,,,,,,,,,,,,,,,,,,,,,,,,,,,,,,,,,,,,,,,,,,,,,,
,,,,,,4,0,4,0,1,X V Q F H G B L J M P D K C T S W R N Z,5f4699e88ed08d02e65b2240,22,Mężczyzna,2022-06-11_09h40.07.380,task,2021.1.4,Win32,59.86948452,6299f149e92ead563fba08ef,62a446ab03d90e3f21f4f1f4,,,,,,,,,,,,,,,,,,,,,,,,,,,,,,,,,,,,,,,,,,,,,,,,,,,,,,,,,,,,,,,,,,,,,,,,,,,,,,,,,,,,,,,,,,,,,,,,,,,,,
,,,,,,5,0,5,0,1,X V Q F H G B L J M P D K C T S W R N Z,5f4699e88ed08d02e65b2240,22,Mężczyzna,2022-06-11_09h40.07.380,task,2021.1.4,Win32,59.86948452,6299f149e92ead563fba08ef,62a446ab03d90e3f21f4f1f4,,,,,,,,,,,,,,,,,,,,,,,,,,,,,,,,,,,,,,,,,,,,,,,,,,,,,,,,,,,,,,,,,,,,,,,,,,,,,,,,,,,,,,,,,,,,,,,,,,,,,
,,,,,,6,0,6,0,1,X V Q F H G B L J M P D K C T S W R N Z,5f4699e88ed08d02e65b2240,22,Mężczyzna,2022-06-11_09h40.07.380,task,2021.1.4,Win32,59.86948452,6299f149e92ead563fba08ef,62a446ab03d90e3f21f4f1f4,,,,,,,,,,,,,,,,,,,,,,,,,,,,,,,,,,,,,,,,,,,,,,,,,,,,,,,,,,,,,,,,,,,,,,,,,,,,,,,,,,,,,,,,,,,,,,,,,,,,,
,,,,,,,,,,,,5f4699e88ed08d02e65b2240,22,Mężczyzna,2022-06-11_09h40.07.380,task,2021.1.4,Win32,59.86948452,6299f149e92ead563fba08ef,62a446ab03d90e3f21f4f1f4,hlpxpzkw,"[""h"",""l"",""p"",""x"",""p"",""z"",""k"",""w""]","[2.683200000003012,3.925600000001509,4.422500000000014,4.912500000000023,5.3184000000059655,5.6386000000015315,6.343000000000018,6.452800000004515,7.261200000002987]",0,HLXPZKW,11,0,11,0,1,,,,,,,,,,,,,,,,,,,,,,,,,,,,,,,,,,,,,,,,,,,,,,,,,,,,,,,,,,,,,,,,,,,,,,,,,,,,,,,,,,,,,,,,,,,
,,,,,,0,0,0,0,1,X V Q F H G B L J M P D K C T S W R N Z,5f4699e88ed08d02e65b2240,22,Mężczyzna,2022-06-11_09h40.07.380,task,2021.1.4,Win32,59.86948452,6299f149e92ead563fba08ef,62a446ab03d90e3f21f4f1f4,,,,,,,,,,,,,,,,,,,,,,,,,,,,,,,,,,,,,,,,,,,,,,,,,,,,,,,,,,,,,,,,,,,,,,,,,,,,,,,,,,,,,,,,,,,,,,,,,,,,,
,,,,,,1,0,1,0,1,X V Q F H G B L J M P D K C T S W R N Z,5f4699e88ed08d02e65b2240,22,Mężczyzna,2022-06-11_09h40.07.380,task,2021.1.4,Win32,59.86948452,6299f149e92ead563fba08ef,62a446ab03d90e3f21f4f1f4,,,,,,,,,,,,,,,,,,,,,,,,,,,,,,,,,,,,,,,,,,,,,,,,,,,,,,,,,,,,,,,,,,,,,,,,,,,,,,,,,,,,,,,,,,,,,,,,,,,,,
,,,,,,2,0,2,0,1,X V Q F H G B L J M P D K C T S W R N Z,5f4699e88ed08d02e65b2240,22,Mężczyzna,2022-06-11_09h40.07.380,task,2021.1.4,Win32,59.86948452,6299f149e92ead563fba08ef,62a446ab03d90e3f21f4f1f4,,,,,,,,,,,,,,,,,,,,,,,,,,,,,,,,,,,,,,,,,,,,,,,,,,,,,,,,,,,,,,,,,,,,,,,,,,,,,,,,,,,,,,,,,,,,,,,,,,,,,
,,,,,,3,0,3,0,1,X V Q F H G B L J M P D K C T S W R N Z,5f4699e88ed08d02e65b2240,22,Mężczyzna,2022-06-11_09h40.07.380,task,2021.1.4,Win32,59.86948452,6299f149e92ead563fba08ef,62a446ab03d90e3f21f4f1f4,,,,,,,,,,,,,,,,,,,,,,,,,,,,,,,,,,,,,,,,,,,,,,,,,,,,,,,,,,,,,,,,,,,,,,,,,,,,,,,,,,,,,,,,,,,,,,,,,,,,,
,,,,,,4,0,4,0,1,X V Q F H G B L J M P D K C T S W R N Z,5f4699e88ed08d02e65b2240,22,Mężczyzna,2022-06-11_09h40.07.380,task,2021.1.4,Win32,59.86948452,6299f149e92ead563fba08ef,62a446ab03d90e3f21f4f1f4,,,,,,,,,,,,,,,,,,,,,,,,,,,,,,,,,,,,,,,,,,,,,,,,,,,,,,,,,,,,,,,,,,,,,,,,,,,,,,,,,,,,,,,,,,,,,,,,,,,,,
,,,,,,5,0,5,0,1,X V Q F H G B L J M P D K C T S W R N Z,5f4699e88ed08d02e65b2240,22,Mężczyzna,2022-06-11_09h40.07.380,task,2021.1.4,Win32,59.86948452,6299f149e92ead563fba08ef,62a446ab03d90e3f21f4f1f4,,,,,,,,,,,,,,,,,,,,,,,,,,,,,,,,,,,,,,,,,,,,,,,,,,,,,,,,,,,,,,,,,,,,,,,,,,,,,,,,,,,,,,,,,,,,,,,,,,,,,
,,,,,,6,0,6,0,1,X V Q F H G B L J M P D K C T S W R N Z,5f4699e88ed08d02e65b2240,22,Mężczyzna,2022-06-11_09h40.07.380,task,2021.1.4,Win32,59.86948452,6299f149e92ead563fba08ef,62a446ab03d90e3f21f4f1f4,,,,,,,,,,,,,,,,,,,,,,,,,,,,,,,,,,,,,,,,,,,,,,,,,,,,,,,,,,,,,,,,,,,,,,,,,,,,,,,,,,,,,,,,,,,,,,,,,,,,,
,,,,,,,,,,,,5f4699e88ed08d02e65b2240,22,Mężczyzna,2022-06-11_09h40.07.380,task,2021.1.4,Win32,59.86948452,6299f149e92ead563fba08ef,62a446ab03d90e3f21f4f1f4,bpstwbh,"[""b"",""p"",""s"",""t"",""w"",""b"",""h""]","[2.507100000001458,3.0657000000029484,3.3499000000059596,3.861100000001443,4.203600000001472,4.850999999999999,5.409200000002954,8.802600000001462]",1,BPSTWBH,12,0,12,0,1,,,,,,,,,,,,,,,,,,,,,,,,,,,,,,,,,,,,,,,,,,,,,,,,,,,,,,,,,,,,,,,,,,,,,,,,,,,,,,,,,,,,,,,,,,,
,,,,,,0,0,0,0,1,X V Q F H G B L J M P D K C T S W R N Z,5f4699e88ed08d02e65b2240,22,Mężczyzna,2022-06-11_09h40.07.380,task,2021.1.4,Win32,59.86948452,6299f149e92ead563fba08ef,62a446ab03d90e3f21f4f1f4,,,,,,,,,,,,,,,,,,,,,,,,,,,,,,,,,,,,,,,,,,,,,,,,,,,,,,,,,,,,,,,,,,,,,,,,,,,,,,,,,,,,,,,,,,,,,,,,,,,,,
,,,,,,1,0,1,0,1,X V Q F H G B L J M P D K C T S W R N Z,5f4699e88ed08d02e65b2240,22,Mężczyzna,2022-06-11_09h40.07.380,task,2021.1.4,Win32,59.86948452,6299f149e92ead563fba08ef,62a446ab03d90e3f21f4f1f4,,,,,,,,,,,,,,,,,,,,,,,,,,,,,,,,,,,,,,,,,,,,,,,,,,,,,,,,,,,,,,,,,,,,,,,,,,,,,,,,,,,,,,,,,,,,,,,,,,,,,
,,,,,,2,0,2,0,1,X V Q F H G B L J M P D K C T S W R N Z,5f4699e88ed08d02e65b2240,22,Mężczyzna,2022-06-11_09h40.07.380,task,2021.1.4,Win32,59.86948452,6299f149e92ead563fba08ef,62a446ab03d90e3f21f4f1f4,,,,,,,,,,,,,,,,,,,,,,,,,,,,,,,,,,,,,,,,,,,,,,,,,,,,,,,,,,,,,,,,,,,,,,,,,,,,,,,,,,,,,,,,,,,,,,,,,,,,,
,,,,,,3,0,3,0,1,X V Q F H G B L J M P D K C T S W R N Z,5f4699e88ed08d02e65b2240,22,Mężczyzna,2022-06-11_09h40.07.380,task,2021.1.4,Win32,59.86948452,6299f149e92ead563fba08ef,62a446ab03d90e3f21f4f1f4,,,,,,,,,,,,,,,,,,,,,,,,,,,,,,,,,,,,,,,,,,,,,,,,,,,,,,,,,,,,,,,,,,,,,,,,,,,,,,,,,,,,,,,,,,,,,,,,,,,,,
,,,,,,4,0,4,0,1,X V Q F H G B L J M P D K C T S W R N Z,5f4699e88ed08d02e65b2240,22,Mężczyzna,2022-06-11_09h40.07.380,task,2021.1.4,Win32,59.86948452,6299f149e92ead563fba08ef,62a446ab03d90e3f21f4f1f4,,,,,,,,,,,,,,,,,,,,,,,,,,,,,,,,,,,,,,,,,,,,,,,,,,,,,,,,,,,,,,,,,,,,,,,,,,,,,,,,,,,,,,,,,,,,,,,,,,,,,
,,,,,,5,0,5,0,1,X V Q F H G B L J M P D K C T S W R N Z,5f4699e88ed08d02e65b2240,22,Mężczyzna,2022-06-11_09h40.07.380,task,2021.1.4,Win32,59.86948452,6299f149e92ead563fba08ef,62a446ab03d90e3f21f4f1f4,,,,,,,,,,,,,,,,,,,,,,,,,,,,,,,,,,,,,,,,,,,,,,,,,,,,,,,,,,,,,,,,,,,,,,,,,,,,,,,,,,,,,,,,,,,,,,,,,,,,,
,,,,,,6,0,6,0,1,X V Q F H G B L J M P D K C T S W R N Z,5f4699e88ed08d02e65b2240,22,Mężczyzna,2022-06-11_09h40.07.380,task,2021.1.4,Win32,59.86948452,6299f149e92ead563fba08ef,62a446ab03d90e3f21f4f1f4,,,,,,,,,,,,,,,,,,,,,,,,,,,,,,,,,,,,,,,,,,,,,,,,,,,,,,,,,,,,,,,,,,,,,,,,,,,,,,,,,,,,,,,,,,,,,,,,,,,,,
,,,,,,,,,,,,5f4699e88ed08d02e65b2240,22,Mężczyzna,2022-06-11_09h40.07.380,task,2021.1.4,Win32,59.86948452,6299f149e92ead563fba08ef,62a446ab03d90e3f21f4f1f4,pjxlclx,"[""p"",""j"",""x"",""l"",""c"",""l"",""x""]","[1.8354999999999677,2.4524999999999864,3.0434999999999945,4.163400000005936,4.887800000004461,5.259200000002977,5.65960000000149,10.043499999999995]",1,PJXLCLX,13,0,13,0,1,,,,,,,,,,,,,,,,,,,,,,,,,,,,,,,,,,,,,,,,,,,,,,,,,,,,,,,,,,,,,,,,,,,,,,,,,,,,,,,,,,,,,,,,,,,
,,,,,,0,0,0,0,1,X V Q F H G B L J M P D K C T S W R N Z,5f4699e88ed08d02e65b2240,22,Mężczyzna,2022-06-11_09h40.07.380,task,2021.1.4,Win32,59.86948452,6299f149e92ead563fba08ef,62a446ab03d90e3f21f4f1f4,,,,,,,,,,,,,,,,,,,,,,,,,,,,,,,,,,,,,,,,,,,,,,,,,,,,,,,,,,,,,,,,,,,,,,,,,,,,,,,,,,,,,,,,,,,,,,,,,,,,,
,,,,,,1,0,1,0,1,X V Q F H G B L J M P D K C T S W R N Z,5f4699e88ed08d02e65b2240,22,Mężczyzna,2022-06-11_09h40.07.380,task,2021.1.4,Win32,59.86948452,6299f149e92ead563fba08ef,62a446ab03d90e3f21f4f1f4,,,,,,,,,,,,,,,,,,,,,,,,,,,,,,,,,,,,,,,,,,,,,,,,,,,,,,,,,,,,,,,,,,,,,,,,,,,,,,,,,,,,,,,,,,,,,,,,,,,,,
,,,,,,2,0,2,0,1,X V Q F H G B L J M P D K C T S W R N Z,5f4699e88ed08d02e65b2240,22,Mężczyzna,2022-06-11_09h40.07.380,task,2021.1.4,Win32,59.86948452,6299f149e92ead563fba08ef,62a446ab03d90e3f21f4f1f4,,,,,,,,,,,,,,,,,,,,,,,,,,,,,,,,,,,,,,,,,,,,,,,,,,,,,,,,,,,,,,,,,,,,,,,,,,,,,,,,,,,,,,,,,,,,,,,,,,,,,
,,,,,,3,0,3,0,1,X V Q F H G B L J M P D K C T S W R N Z,5f4699e88ed08d02e65b2240,22,Mężczyzna,2022-06-11_09h40.07.380,task,2021.1.4,Win32,59.86948452,6299f149e92ead563fba08ef,62a446ab03d90e3f21f4f1f4,,,,,,,,,,,,,,,,,,,,,,,,,,,,,,,,,,,,,,,,,,,,,,,,,,,,,,,,,,,,,,,,,,,,,,,,,,,,,,,,,,,,,,,,,,,,,,,,,,,,,
,,,,,,4,0,4,0,1,X V Q F H G B L J M P D K C T S W R N Z,5f4699e88ed08d02e65b2240,22,Mężczyzna,2022-06-11_09h40.07.380,task,2021.1.4,Win32,59.86948452,6299f149e92ead563fba08ef,62a446ab03d90e3f21f4f1f4,,,,,,,,,,,,,,,,,,,,,,,,,,,,,,,,,,,,,,,,,,,,,,,,,,,,,,,,,,,,,,,,,,,,,,,,,,,,,,,,,,,,,,,,,,,,,,,,,,,,,
,,,,,,5,0,5,0,1,X V Q F H G B L J M P D K C T S W R N Z,5f4699e88ed08d02e65b2240,22,Mężczyzna,2022-06-11_09h40.07.380,task,2021.1.4,Win32,59.86948452,6299f149e92ead563fba08ef,62a446ab03d90e3f21f4f1f4,,,,,,,,,,,,,,,,,,,,,,,,,,,,,,,,,,,,,,,,,,,,,,,,,,,,,,,,,,,,,,,,,,,,,,,,,,,,,,,,,,,,,,,,,,,,,,,,,,,,,
,,,,,,6,0,6,0,1,X V Q F H G B L J M P D K C T S W R N Z,5f4699e88ed08d02e65b2240,22,Mężczyzna,2022-06-11_09h40.07.380,task,2021.1.4,Win32,59.86948452,6299f149e92ead563fba08ef,62a446ab03d90e3f21f4f1f4,,,,,,,,,,,,,,,,,,,,,,,,,,,,,,,,,,,,,,,,,,,,,,,,,,,,,,,,,,,,,,,,,,,,,,,,,,,,,,,,,,,,,,,,,,,,,,,,,,,,,
,,,,,,7,0,7,0,1,X V Q F H G B L J M P D K C T S W R N Z,5f4699e88ed08d02e65b2240,22,Mężczyzna,2022-06-11_09h40.07.380,task,2021.1.4,Win32,59.86948452,6299f149e92ead563fba08ef,62a446ab03d90e3f21f4f1f4,,,,,,,,,,,,,,,,,,,,,,,,,,,,,,,,,,,,,,,,,,,,,,,,,,,,,,,,,,,,,,,,,,,,,,,,,,,,,,,,,,,,,,,,,,,,,,,,,,,,,
,,,,,,,,,,,,5f4699e88ed08d02e65b2240,22,Mężczyzna,2022-06-11_09h40.07.380,task,2021.1.4,Win32,59.86948452,6299f149e92ead563fba08ef,62a446ab03d90e3f21f4f1f4,hqlqzbrj,"[""h"",""q"",""l"",""q"",""z"",""b"",""r"",""j""]","[3.0704999999999814,4.809500000000014,5.099399999998525,5.347499999999968,7.146299999996984,7.945399999998472,8.313699999995492,8.616999999999962,9.409799999997006]",1,HQLQZBRJ,14,0,14,0,1,,,,,,,,,,,,,,,,,,,,,,,,,,,,,,,,,,,,,,,,,,,,,,,,,,,,,,,,,,,,,,,,,,,,,,,,,,,,,,,,,,,,,,,,,,,
,,,,,,0,0,0,0,1,X V Q F H G B L J M P D K C T S W R N Z,5f4699e88ed08d02e65b2240,22,Mężczyzna,2022-06-11_09h40.07.380,task,2021.1.4,Win32,59.86948452,6299f149e92ead563fba08ef,62a446ab03d90e3f21f4f1f4,,,,,,,,,,,,,,,,,,,,,,,,,,,,,,,,,,,,,,,,,,,,,,,,,,,,,,,,,,,,,,,,,,,,,,,,,,,,,,,,,,,,,,,,,,,,,,,,,,,,,
,,,,,,1,0,1,0,1,X V Q F H G B L J M P D K C T S W R N Z,5f4699e88ed08d02e65b2240,22,Mężczyzna,2022-06-11_09h40.07.380,task,2021.1.4,Win32,59.86948452,6299f149e92ead563fba08ef,62a446ab03d90e3f21f4f1f4,,,,,,,,,,,,,,,,,,,,,,,,,,,,,,,,,,,,,,,,,,,,,,,,,,,,,,,,,,,,,,,,,,,,,,,,,,,,,,,,,,,,,,,,,,,,,,,,,,,,,
,,,,,,2,0,2,0,1,X V Q F H G B L J M P D K C T S W R N Z,5f4699e88ed08d02e65b2240,22,Mężczyzna,2022-06-11_09h40.07.380,task,2021.1.4,Win32,59.86948452,6299f149e92ead563fba08ef,62a446ab03d90e3f21f4f1f4,,,,,,,,,,,,,,,,,,,,,,,,,,,,,,,,,,,,,,,,,,,,,,,,,,,,,,,,,,,,,,,,,,,,,,,,,,,,,,,,,,,,,,,,,,,,,,,,,,,,,
,,,,,,3,0,3,0,1,X V Q F H G B L J M P D K C T S W R N Z,5f4699e88ed08d02e65b2240,22,Mężczyzna,2022-06-11_09h40.07.380,task,2021.1.4,Win32,59.86948452,6299f149e92ead563fba08ef,62a446ab03d90e3f21f4f1f4,,,,,,,,,,,,,,,,,,,,,,,,,,,,,,,,,,,,,,,,,,,,,,,,,,,,,,,,,,,,,,,,,,,,,,,,,,,,,,,,,,,,,,,,,,,,,,,,,,,,,
,,,,,,4,0,4,0,1,X V Q F H G B L J M P D K C T S W R N Z,5f4699e88ed08d02e65b2240,22,Mężczyzna,2022-06-11_09h40.07.380,task,2021.1.4,Win32,59.86948452,6299f149e92ead563fba08ef,62a446ab03d90e3f21f4f1f4,,,,,,,,,,,,,,,,,,,,,,,,,,,,,,,,,,,,,,,,,,,,,,,,,,,,,,,,,,,,,,,,,,,,,,,,,,,,,,,,,,,,,,,,,,,,,,,,,,,,,
,,,,,,5,0,5,0,1,X V Q F H G B L J M P D K C T S W R N Z,5f4699e88ed08d02e65b2240,22,Mężczyzna,2022-06-11_09h40.07.380,task,2021.1.4,Win32,59.86948452,6299f149e92ead563fba08ef,62a446ab03d90e3f21f4f1f4,,,,,,,,,,,,,,,,,,,,,,,,,,,,,,,,,,,,,,,,,,,,,,,,,,,,,,,,,,,,,,,,,,,,,,,,,,,,,,,,,,,,,,,,,,,,,,,,,,,,,
,,,,,,6,0,6,0,1,X V Q F H G B L J M P D K C T S W R N Z,5f4699e88ed08d02e65b2240,22,Mężczyzna,2022-06-11_09h40.07.380,task,2021.1.4,Win32,59.86948452,6299f149e92ead563fba08ef,62a446ab03d90e3f21f4f1f4,,,,,,,,,,,,,,,,,,,,,,,,,,,,,,,,,,,,,,,,,,,,,,,,,,,,,,,,,,,,,,,,,,,,,,,,,,,,,,,,,,,,,,,,,,,,,,,,,,,,,
,,,,,,7,0,7,0,1,X V Q F H G B L J M P D K C T S W R N Z,5f4699e88ed08d02e65b2240,22,Mężczyzna,2022-06-11_09h40.07.380,task,2021.1.4,Win32,59.86948452,6299f149e92ead563fba08ef,62a446ab03d90e3f21f4f1f4,,,,,,,,,,,,,,,,,,,,,,,,,,,,,,,,,,,,,,,,,,,,,,,,,,,,,,,,,,,,,,,,,,,,,,,,,,,,,,,,,,,,,,,,,,,,,,,,,,,,,
,,,,,,,,,,,,5f4699e88ed08d02e65b2240,22,Mężczyzna,2022-06-11_09h40.07.380,task,2021.1.4,Win32,59.86948452,6299f149e92ead563fba08ef,62a446ab03d90e3f21f4f1f4,njbkzwhg,"[""n"",""j"",""b"",""k"",""z"",""w"",""h"",""g""]","[2.74909999999403,3.2713999999984935,4.4000999999940404,4.9839999999999804,5.951599999994016,6.358799999997018,7.01779999999701,7.335699999995541,8.076999999999998]",1,NJBKZWHG,15,0,15,0,1,,,,,,,,,,,,,,,,,,,,,,,,,,,,,,,,,,,,,,,,,,,,,,,,,,,,,,,,,,,,,,,,,,,,,,,,,,,,,,,,,,,,,,,,,,,
,,,,,,0,0,0,0,1,X V Q F H G B L J M P D K C T S W R N Z,5f4699e88ed08d02e65b2240,22,Mężczyzna,2022-06-11_09h40.07.380,task,2021.1.4,Win32,59.86948452,6299f149e92ead563fba08ef,62a446ab03d90e3f21f4f1f4,,,,,,,,,,,,,,,,,,,,,,,,,,,,,,,,,,,,,,,,,,,,,,,,,,,,,,,,,,,,,,,,,,,,,,,,,,,,,,,,,,,,,,,,,,,,,,,,,,,,,
,,,,,,1,0,1,0,1,X V Q F H G B L J M P D K C T S W R N Z,5f4699e88ed08d02e65b2240,22,Mężczyzna,2022-06-11_09h40.07.380,task,2021.1.4,Win32,59.86948452,6299f149e92ead563fba08ef,62a446ab03d90e3f21f4f1f4,,,,,,,,,,,,,,,,,,,,,,,,,,,,,,,,,,,,,,,,,,,,,,,,,,,,,,,,,,,,,,,,,,,,,,,,,,,,,,,,,,,,,,,,,,,,,,,,,,,,,
,,,,,,2,0,2,0,1,X V Q F H G B L J M P D K C T S W R N Z,5f4699e88ed08d02e65b2240,22,Mężczyzna,2022-06-11_09h40.07.380,task,2021.1.4,Win32,59.86948452,6299f149e92ead563fba08ef,62a446ab03d90e3f21f4f1f4,,,,,,,,,,,,,,,,,,,,,,,,,,,,,,,,,,,,,,,,,,,,,,,,,,,,,,,,,,,,,,,,,,,,,,,,,,,,,,,,,,,,,,,,,,,,,,,,,,,,,
,,,,,,3,0,3,0,1,X V Q F H G B L J M P D K C T S W R N Z,5f4699e88ed08d02e65b2240,22,Mężczyzna,2022-06-11_09h40.07.380,task,2021.1.4,Win32,59.86948452,6299f149e92ead563fba08ef,62a446ab03d90e3f21f4f1f4,,,,,,,,,,,,,,,,,,,,,,,,,,,,,,,,,,,,,,,,,,,,,,,,,,,,,,,,,,,,,,,,,,,,,,,,,,,,,,,,,,,,,,,,,,,,,,,,,,,,,
,,,,,,4,0,4,0,1,X V Q F H G B L J M P D K C T S W R N Z,5f4699e88ed08d02e65b2240,22,Mężczyzna,2022-06-11_09h40.07.380,task,2021.1.4,Win32,59.86948452,6299f149e92ead563fba08ef,62a446ab03d90e3f21f4f1f4,,,,,,,,,,,,,,,,,,,,,,,,,,,,,,,,,,,,,,,,,,,,,,,,,,,,,,,,,,,,,,,,,,,,,,,,,,,,,,,,,,,,,,,,,,,,,,,,,,,,,
,,,,,,5,0,5,0,1,X V Q F H G B L J M P D K C T S W R N Z,5f4699e88ed08d02e65b2240,22,Mężczyzna,2022-06-11_09h40.07.380,task,2021.1.4,Win32,59.86948452,6299f149e92ead563fba08ef,62a446ab03d90e3f21f4f1f4,,,,,,,,,,,,,,,,,,,,,,,,,,,,,,,,,,,,,,,,,,,,,,,,,,,,,,,,,,,,,,,,,,,,,,,,,,,,,,,,,,,,,,,,,,,,,,,,,,,,,
,,,,,,6,0,6,0,1,X V Q F H G B L J M P D K C T S W R N Z,5f4699e88ed08d02e65b2240,22,Mężczyzna,2022-06-11_09h40.07.380,task,2021.1.4,Win32,59.86948452,6299f149e92ead563fba08ef,62a446ab03d90e3f21f4f1f4,,,,,,,,,,,,,,,,,,,,,,,,,,,,,,,,,,,,,,,,,,,,,,,,,,,,,,,,,,,,,,,,,,,,,,,,,,,,,,,,,,,,,,,,,,,,,,,,,,,,,
,,,,,,7,0,7,0,1,X V Q F H G B L J M P D K C T S W R N Z,5f4699e88ed08d02e65b2240,22,Mężczyzna,2022-06-11_09h40.07.380,task,2021.1.4,Win32,59.86948452,6299f149e92ead563fba08ef,62a446ab03d90e3f21f4f1f4,,,,,,,,,,,,,,,,,,,,,,,,,,,,,,,,,,,,,,,,,,,,,,,,,,,,,,,,,,,,,,,,,,,,,,,,,,,,,,,,,,,,,,,,,,,,,,,,,,,,,
,,,,,,8,0,8,0,1,X V Q F H G B L J M P D K C T S W R N Z,5f4699e88ed08d02e65b2240,22,Mężczyzna,2022-06-11_09h40.07.380,task,2021.1.4,Win32,59.86948452,6299f149e92ead563fba08ef,62a446ab03d90e3f21f4f1f4,,,,,,,,,,,,,,,,,,,,,,,,,,,,,,,,,,,,,,,,,,,,,,,,,,,,,,,,,,,,,,,,,,,,,,,,,,,,,,,,,,,,,,,,,,,,,,,,,,,,,
,,,,,,,,,,,,5f4699e88ed08d02e65b2240,22,Mężczyzna,2022-06-11_09h40.07.380,task,2021.1.4,Win32,59.86948452,6299f149e92ead563fba08ef,62a446ab03d90e3f21f4f1f4,rnzbwffns,"[""r"",""n"",""z"",""b"",""w"",""f"",""f"",""n"",""s""]","[2.7192000000030134,3.502899999998533,3.9399999999999977,4.763700000002984,5.723600000001511,6.715799999997046,7.022399999998527,8.190499999999986,8.6755,9.173399999998537]",1,RNZBWFFNS,16,0,16,0,1,,,,,,,,,,,,,,,,,,,,,,,,,,,,,,,,,,,,,,,,,,,,,,,,,,,,,,,,,,,,,,,,,,,,,,,,,,,,,,,,,,,,,,,,,,,
,,,,,,0,0,0,0,1,X V Q F H G B L J M P D K C T S W R N Z,5f4699e88ed08d02e65b2240,22,Mężczyzna,2022-06-11_09h40.07.380,task,2021.1.4,Win32,59.86948452,6299f149e92ead563fba08ef,62a446ab03d90e3f21f4f1f4,,,,,,,,,,,,,,,,,,,,,,,,,,,,,,,,,,,,,,,,,,,,,,,,,,,,,,,,,,,,,,,,,,,,,,,,,,,,,,,,,,,,,,,,,,,,,,,,,,,,,
,,,,,,1,0,1,0,1,X V Q F H G B L J M P D K C T S W R N Z,5f4699e88ed08d02e65b2240,22,Mężczyzna,2022-06-11_09h40.07.380,task,2021.1.4,Win32,59.86948452,6299f149e92ead563fba08ef,62a446ab03d90e3f21f4f1f4,,,,,,,,,,,,,,,,,,,,,,,,,,,,,,,,,,,,,,,,,,,,,,,,,,,,,,,,,,,,,,,,,,,,,,,,,,,,,,,,,,,,,,,,,,,,,,,,,,,,,
,,,,,,2,0,2,0,1,X V Q F H G B L J M P D K C T S W R N Z,5f4699e88ed08d02e65b2240,22,Mężczyzna,2022-06-11_09h40.07.380,task,2021.1.4,Win32,59.86948452,6299f149e92ead563fba08ef,62a446ab03d90e3f21f4f1f4,,,,,,,,,,,,,,,,,,,,,,,,,,,,,,,,,,,,,,,,,,,,,,,,,,,,,,,,,,,,,,,,,,,,,,,,,,,,,,,,,,,,,,,,,,,,,,,,,,,,,
,,,,,,3,0,3,0,1,X V Q F H G B L J M P D K C T S W R N Z,5f4699e88ed08d02e65b2240,22,Mężczyzna,2022-06-11_09h40.07.380,task,2021.1.4,Win32,59.86948452,6299f149e92ead563fba08ef,62a446ab03d90e3f21f4f1f4,,,,,,,,,,,,,,,,,,,,,,,,,,,,,,,,,,,,,,,,,,,,,,,,,,,,,,,,,,,,,,,,,,,,,,,,,,,,,,,,,,,,,,,,,,,,,,,,,,,,,
,,,,,,4,0,4,0,1,X V Q F H G B L J M P D K C T S W R N Z,5f4699e88ed08d02e65b2240,22,Mężczyzna,2022-06-11_09h40.07.380,task,2021.1.4,Win32,59.86948452,6299f149e92ead563fba08ef,62a446ab03d90e3f21f4f1f4,,,,,,,,,,,,,,,,,,,,,,,,,,,,,,,,,,,,,,,,,,,,,,,,,,,,,,,,,,,,,,,,,,,,,,,,,,,,,,,,,,,,,,,,,,,,,,,,,,,,,
,,,,,,5,0,5,0,1,X V Q F H G B L J M P D K C T S W R N Z,5f4699e88ed08d02e65b2240,22,Mężczyzna,2022-06-11_09h40.07.380,task,2021.1.4,Win32,59.86948452,6299f149e92ead563fba08ef,62a446ab03d90e3f21f4f1f4,,,,,,,,,,,,,,,,,,,,,,,,,,,,,,,,,,,,,,,,,,,,,,,,,,,,,,,,,,,,,,,,,,,,,,,,,,,,,,,,,,,,,,,,,,,,,,,,,,,,,
,,,,,,6,0,6,0,1,X V Q F H G B L J M P D K C T S W R N Z,5f4699e88ed08d02e65b2240,22,Mężczyzna,2022-06-11_09h40.07.380,task,2021.1.4,Win32,59.86948452,6299f149e92ead563fba08ef,62a446ab03d90e3f21f4f1f4,,,,,,,,,,,,,,,,,,,,,,,,,,,,,,,,,,,,,,,,,,,,,,,,,,,,,,,,,,,,,,,,,,,,,,,,,,,,,,,,,,,,,,,,,,,,,,,,,,,,,
,,,,,,7,0,7,0,1,X V Q F H G B L J M P D K C T S W R N Z,5f4699e88ed08d02e65b2240,22,Mężczyzna,2022-06-11_09h40.07.380,task,2021.1.4,Win32,59.86948452,6299f149e92ead563fba08ef,62a446ab03d90e3f21f4f1f4,,,,,,,,,,,,,,,,,,,,,,,,,,,,,,,,,,,,,,,,,,,,,,,,,,,,,,,,,,,,,,,,,,,,,,,,,,,,,,,,,,,,,,,,,,,,,,,,,,,,,
,,,,,,8,0,8,0,1,X V Q F H G B L J M P D K C T S W R N Z,5f4699e88ed08d02e65b2240,22,Mężczyzna,2022-06-11_09h40.07.380,task,2021.1.4,Win32,59.86948452,6299f149e92ead563fba08ef,62a446ab03d90e3f21f4f1f4,,,,,,,,,,,,,,,,,,,,,,,,,,,,,,,,,,,,,,,,,,,,,,,,,,,,,,,,,,,,,,,,,,,,,,,,,,,,,,,,,,,,,,,,,,,,,,,,,,,,,
,,,,,,,,,,,,5f4699e88ed08d02e65b2240,22,Mężczyzna,2022-06-11_09h40.07.380,task,2021.1.4,Win32,59.86948452,6299f149e92ead563fba08ef,62a446ab03d90e3f21f4f1f4,xuxfdknmh,"[""x"",""u"",""x"",""f"",""d"",""k"",""n"",""m"",""h""]","[2.6698000000045,2.869100000001481,4.3145000000000095,4.721300000004476,5.330600000001482,6.288600000001509,7.840300000004447,8.423900000005972,9.410600000001523,11.225300000004495]",0,XKXFDKNMH,17,0,17,0,1,,,,,,,,,,,,,,,,,,,,,,,,,,,,,,,,,,,,,,,,,,,,,,,,,,,,,,,,,,,,,,,,,,,,,,,,,,,,,,,,,,,,,,,,,,,
,,,,,,0,0,0,0,1,X V Q F H G B L J M P D K C T S W R N Z,5f4699e88ed08d02e65b2240,22,Mężczyzna,2022-06-11_09h40.07.380,task,2021.1.4,Win32,59.86948452,6299f149e92ead563fba08ef,62a446ab03d90e3f21f4f1f4,,,,,,,,,,,,,,,,,,,,,,,,,,,,,,,,,,,,,,,,,,,,,,,,,,,,,,,,,,,,,,,,,,,,,,,,,,,,,,,,,,,,,,,,,,,,,,,,,,,,,
,,,,,,1,0,1,0,1,X V Q F H G B L J M P D K C T S W R N Z,5f4699e88ed08d02e65b2240,22,Mężczyzna,2022-06-11_09h40.07.380,task,2021.1.4,Win32,59.86948452,6299f149e92ead563fba08ef,62a446ab03d90e3f21f4f1f4,,,,,,,,,,,,,,,,,,,,,,,,,,,,,,,,,,,,,,,,,,,,,,,,,,,,,,,,,,,,,,,,,,,,,,,,,,,,,,,,,,,,,,,,,,,,,,,,,,,,,
,,,,,,2,0,2,0,1,X V Q F H G B L J M P D K C T S W R N Z,5f4699e88ed08d02e65b2240,22,Mężczyzna,2022-06-11_09h40.07.380,task,2021.1.4,Win32,59.86948452,6299f149e92ead563fba08ef,62a446ab03d90e3f21f4f1f4,,,,,,,,,,,,,,,,,,,,,,,,,,,,,,,,,,,,,,,,,,,,,,,,,,,,,,,,,,,,,,,,,,,,,,,,,,,,,,,,,,,,,,,,,,,,,,,,,,,,,
,,,,,,3,0,3,0,1,X V Q F H G B L J M P D K C T S W R N Z,5f4699e88ed08d02e65b2240,22,Mężczyzna,2022-06-11_09h40.07.380,task,2021.1.4,Win32,59.86948452,6299f149e92ead563fba08ef,62a446ab03d90e3f21f4f1f4,,,,,,,,,,,,,,,,,,,,,,,,,,,,,,,,,,,,,,,,,,,,,,,,,,,,,,,,,,,,,,,,,,,,,,,,,,,,,,,,,,,,,,,,,,,,,,,,,,,,,
,,,,,,4,0,4,0,1,X V Q F H G B L J M P D K C T S W R N Z,5f4699e88ed08d02e65b2240,22,Mężczyzna,2022-06-11_09h40.07.380,task,2021.1.4,Win32,59.86948452,6299f149e92ead563fba08ef,62a446ab03d90e3f21f4f1f4,,,,,,,,,,,,,,,,,,,,,,,,,,,,,,,,,,,,,,,,,,,,,,,,,,,,,,,,,,,,,,,,,,,,,,,,,,,,,,,,,,,,,,,,,,,,,,,,,,,,,
,,,,,,5,0,5,0,1,X V Q F H G B L J M P D K C T S W R N Z,5f4699e88ed08d02e65b2240,22,Mężczyzna,2022-06-11_09h40.07.380,task,2021.1.4,Win32,59.86948452,6299f149e92ead563fba08ef,62a446ab03d90e3f21f4f1f4,,,,,,,,,,,,,,,,,,,,,,,,,,,,,,,,,,,,,,,,,,,,,,,,,,,,,,,,,,,,,,,,,,,,,,,,,,,,,,,,,,,,,,,,,,,,,,,,,,,,,
,,,,,,6,0,6,0,1,X V Q F H G B L J M P D K C T S W R N Z,5f4699e88ed08d02e65b2240,22,Mężczyzna,2022-06-11_09h40.07.380,task,2021.1.4,Win32,59.86948452,6299f149e92ead563fba08ef,62a446ab03d90e3f21f4f1f4,,,,,,,,,,,,,,,,,,,,,,,,,,,,,,,,,,,,,,,,,,,,,,,,,,,,,,,,,,,,,,,,,,,,,,,,,,,,,,,,,,,,,,,,,,,,,,,,,,,,,
,,,,,,7,0,7,0,1,X V Q F H G B L J M P D K C T S W R N Z,5f4699e88ed08d02e65b2240,22,Mężczyzna,2022-06-11_09h40.07.380,task,2021.1.4,Win32,59.86948452,6299f149e92ead563fba08ef,62a446ab03d90e3f21f4f1f4,,,,,,,,,,,,,,,,,,,,,,,,,,,,,,,,,,,,,,,,,,,,,,,,,,,,,,,,,,,,,,,,,,,,,,,,,,,,,,,,,,,,,,,,,,,,,,,,,,,,,
,,,,,,8,0,8,0,1,X V Q F H G B L J M P D K C T S W R N Z,5f4699e88ed08d02e65b2240,22,Mężczyzna,2022-06-11_09h40.07.380,task,2021.1.4,Win32,59.86948452,6299f149e92ead563fba08ef,62a446ab03d90e3f21f4f1f4,,,,,,,,,,,,,,,,,,,,,,,,,,,,,,,,,,,,,,,,,,,,,,,,,,,,,,,,,,,,,,,,,,,,,,,,,,,,,,,,,,,,,,,,,,,,,,,,,,,,,
,,,,,,,,,,,,5f4699e88ed08d02e65b2240,22,Mężczyzna,2022-06-11_09h40.07.380,task,2021.1.4,Win32,59.86948452,6299f149e92ead563fba08ef,62a446ab03d90e3f21f4f1f4,wjxrbuhmx,"[""w"",""j"",""x"",""r"",""b"",""u"",""h"",""m"",""x""]","[2.1689999999999827,2.6365000000000123,3.2039000000059445,3.6697000000029902,4.220800000004488,6.021900000005928,6.5721000000014556,8.75740000000593,10.235700000002964,11.392100000001506]",0,WJXRBKHMX,18,0,18,0,1,,,,,,,,,,,,,,,,,,,,,,,,,,,,,,,,,,,,,,,,,,,,,,,,,,,,,,,,,,,,,,,,,,,,,,,,,,,,,,,,,,,,,,,,,,,
,,,,,,0,0,0,0,1,X V Q F H G B L J M P D K C T S W R N Z,5f4699e88ed08d02e65b2240,22,Mężczyzna,2022-06-11_09h40.07.380,task,2021.1.4,Win32,59.86948452,6299f149e92ead563fba08ef,62a446ab03d90e3f21f4f1f4,,,,,,,,,,,,,,,,,,,,,,,,,,,,,,,,,,,,,,,,,,,,,,,,,,,,,,,,,,,,,,,,,,,,,,,,,,,,,,,,,,,,,,,,,,,,,,,,,,,,,
,,,,,,1,0,1,0,1,X V Q F H G B L J M P D K C T S W R N Z,5f4699e88ed08d02e65b2240,22,Mężczyzna,2022-06-11_09h40.07.380,task,2021.1.4,Win32,59.86948452,6299f149e92ead563fba08ef,62a446ab03d90e3f21f4f1f4,,,,,,,,,,,,,,,,,,,,,,,,,,,,,,,,,,,,,,,,,,,,,,,,,,,,,,,,,,,,,,,,,,,,,,,,,,,,,,,,,,,,,,,,,,,,,,,,,,,,,
,,,,,,2,0,2,0,1,X V Q F H G B L J M P D K C T S W R N Z,5f4699e88ed08d02e65b2240,22,Mężczyzna,2022-06-11_09h40.07.380,task,2021.1.4,Win32,59.86948452,6299f149e92ead563fba08ef,62a446ab03d90e3f21f4f1f4,,,,,,,,,,,,,,,,,,,,,,,,,,,,,,,,,,,,,,,,,,,,,,,,,,,,,,,,,,,,,,,,,,,,,,,,,,,,,,,,,,,,,,,,,,,,,,,,,,,,,
,,,,,,3,0,3,0,1,X V Q F H G B L J M P D K C T S W R N Z,5f4699e88ed08d02e65b2240,22,Mężczyzna,2022-06-11_09h40.07.380,task,2021.1.4,Win32,59.86948452,6299f149e92ead563fba08ef,62a446ab03d90e3f21f4f1f4,,,,,,,,,,,,,,,,,,,,,,,,,,,,,,,,,,,,,,,,,,,,,,,,,,,,,,,,,,,,,,,,,,,,,,,,,,,,,,,,,,,,,,,,,,,,,,,,,,,,,
,,,,,,4,0,4,0,1,X V Q F H G B L J M P D K C T S W R N Z,5f4699e88ed08d02e65b2240,22,Mężczyzna,2022-06-11_09h40.07.380,task,2021.1.4,Win32,59.86948452,6299f149e92ead563fba08ef,62a446ab03d90e3f21f4f1f4,,,,,,,,,,,,,,,,,,,,,,,,,,,,,,,,,,,,,,,,,,,,,,,,,,,,,,,,,,,,,,,,,,,,,,,,,,,,,,,,,,,,,,,,,,,,,,,,,,,,,
,,,,,,5,0,5,0,1,X V Q F H G B L J M P D K C T S W R N Z,5f4699e88ed08d02e65b2240,22,Mężczyzna,2022-06-11_09h40.07.380,task,2021.1.4,Win32,59.86948452,6299f149e92ead563fba08ef,62a446ab03d90e3f21f4f1f4,,,,,,,,,,,,,,,,,,,,,,,,,,,,,,,,,,,,,,,,,,,,,,,,,,,,,,,,,,,,,,,,,,,,,,,,,,,,,,,,,,,,,,,,,,,,,,,,,,,,,
,,,,,,6,0,6,0,1,X V Q F H G B L J M P D K C T S W R N Z,5f4699e88ed08d02e65b2240,22,Mężczyzna,2022-06-11_09h40.07.380,task,2021.1.4,Win32,59.86948452,6299f149e92ead563fba08ef,62a446ab03d90e3f21f4f1f4,,,,,,,,,,,,,,,,,,,,,,,,,,,,,,,,,,,,,,,,,,,,,,,,,,,,,,,,,,,,,,,,,,,,,,,,,,,,,,,,,,,,,,,,,,,,,,,,,,,,,
,,,,,,7,0,7,0,1,X V Q F H G B L J M P D K C T S W R N Z,5f4699e88ed08d02e65b2240,22,Mężczyzna,2022-06-11_09h40.07.380,task,2021.1.4,Win32,59.86948452,6299f149e92ead563fba08ef,62a446ab03d90e3f21f4f1f4,,,,,,,,,,,,,,,,,,,,,,,,,,,,,,,,,,,,,,,,,,,,,,,,,,,,,,,,,,,,,,,,,,,,,,,,,,,,,,,,,,,,,,,,,,,,,,,,,,,,,
,,,,,,8,0,8,0,1,X V Q F H G B L J M P D K C T S W R N Z,5f4699e88ed08d02e65b2240,22,Mężczyzna,2022-06-11_09h40.07.380,task,2021.1.4,Win32,59.86948452,6299f149e92ead563fba08ef,62a446ab03d90e3f21f4f1f4,,,,,,,,,,,,,,,,,,,,,,,,,,,,,,,,,,,,,,,,,,,,,,,,,,,,,,,,,,,,,,,,,,,,,,,,,,,,,,,,,,,,,,,,,,,,,,,,,,,,,
,,,,,,,,,,,,5f4699e88ed08d02e65b2240,22,Mężczyzna,2022-06-11_09h40.07.380,task,2021.1.4,Win32,59.86948452,6299f149e92ead563fba08ef,62a446ab03d90e3f21f4f1f4,bqmwsqwlb,"[""b"",""q"",""m"",""w"",""s"",""q"",""w"",""l"",""b""]","[2.9703999999985626,3.360800000004474,4.237600000001521,4.571399999998562,5.760000000000048,6.122600000001512,6.4220000000000255,7.090000000000032,8.695600000001491,9.057200000002979]",1,BQMWSQWLB,19,0,19,0,1,,,,,,,,,,,,,,,,,,,,,,,,,,,,,,,,,,,,,,,,,,,,,,,,,,,,,,,,,,,,,,,,,,,,,,,,,,,,,,,,,,,,,,,,,,,
,,,,,,0,0,0,0,1,X V Q F H G B L J M P D K C T S W R N Z,5f4699e88ed08d02e65b2240,22,Mężczyzna,2022-06-11_09h40.07.380,task,2021.1.4,Win32,59.86948452,6299f149e92ead563fba08ef,62a446ab03d90e3f21f4f1f4,,,,,,,,,,,,,,,,,,,,,,,,,,,,,,,,,,,,,,,,,,,,,,,,,,,,,,,,,,,,,,,,,,,,,,,,,,,,,,,,,,,,,,,,,,,,,,,,,,,,,
,,,,,,1,0,1,0,1,X V Q F H G B L J M P D K C T S W R N Z,5f4699e88ed08d02e65b2240,22,Mężczyzna,2022-06-11_09h40.07.380,task,2021.1.4,Win32,59.86948452,6299f149e92ead563fba08ef,62a446ab03d90e3f21f4f1f4,,,,,,,,,,,,,,,,,,,,,,,,,,,,,,,,,,,,,,,,,,,,,,,,,,,,,,,,,,,,,,,,,,,,,,,,,,,,,,,,,,,,,,,,,,,,,,,,,,,,,
,,,,,,2,0,2,0,1,X V Q F H G B L J M P D K C T S W R N Z,5f4699e88ed08d02e65b2240,22,Mężczyzna,2022-06-11_09h40.07.380,task,2021.1.4,Win32,59.86948452,6299f149e92ead563fba08ef,62a446ab03d90e3f21f4f1f4,,,,,,,,,,,,,,,,,,,,,,,,,,,,,,,,,,,,,,,,,,,,,,,,,,,,,,,,,,,,,,,,,,,,,,,,,,,,,,,,,,,,,,,,,,,,,,,,,,,,,
,,,,,,3,0,3,0,1,X V Q F H G B L J M P D K C T S W R N Z,5f4699e88ed08d02e65b2240,22,Mężczyzna,2022-06-11_09h40.07.380,task,2021.1.4,Win32,59.86948452,6299f149e92ead563fba08ef,62a446ab03d90e3f21f4f1f4,,,,,,,,,,,,,,,,,,,,,,,,,,,,,,,,,,,,,,,,,,,,,,,,,,,,,,,,,,,,,,,,,,,,,,,,,,,,,,,,,,,,,,,,,,,,,,,,,,,,,
,,,,,,4,0,4,0,1,X V Q F H G B L J M P D K C T S W R N Z,5f4699e88ed08d02e65b2240,22,Mężczyzna,2022-06-11_09h40.07.380,task,2021.1.4,Win32,59.86948452,6299f149e92ead563fba08ef,62a446ab03d90e3f21f4f1f4,,,,,,,,,,,,,,,,,,,,,,,,,,,,,,,,,,,,,,,,,,,,,,,,,,,,,,,,,,,,,,,,,,,,,,,,,,,,,,,,,,,,,,,,,,,,,,,,,,,,,
,,,,,,5,0,5,0,1,X V Q F H G B L J M P D K C T S W R N Z,5f4699e88ed08d02e65b2240,22,Mężczyzna,2022-06-11_09h40.07.380,task,2021.1.4,Win32,59.86948452,6299f149e92ead563fba08ef,62a446ab03d90e3f21f4f1f4,,,,,,,,,,,,,,,,,,,,,,,,,,,,,,,,,,,,,,,,,,,,,,,,,,,,,,,,,,,,,,,,,,,,,,,,,,,,,,,,,,,,,,,,,,,,,,,,,,,,,
,,,,,,6,0,6,0,1,X V Q F H G B L J M P D K C T S W R N Z,5f4699e88ed08d02e65b2240,22,Mężczyzna,2022-06-11_09h40.07.380,task,2021.1.4,Win32,59.86948452,6299f149e92ead563fba08ef,62a446ab03d90e3f21f4f1f4,,,,,,,,,,,,,,,,,,,,,,,,,,,,,,,,,,,,,,,,,,,,,,,,,,,,,,,,,,,,,,,,,,,,,,,,,,,,,,,,,,,,,,,,,,,,,,,,,,,,,
,,,,,,7,0,7,0,1,X V Q F H G B L J M P D K C T S W R N Z,5f4699e88ed08d02e65b2240,22,Mężczyzna,2022-06-11_09h40.07.380,task,2021.1.4,Win32,59.86948452,6299f149e92ead563fba08ef,62a446ab03d90e3f21f4f1f4,,,,,,,,,,,,,,,,,,,,,,,,,,,,,,,,,,,,,,,,,,,,,,,,,,,,,,,,,,,,,,,,,,,,,,,,,,,,,,,,,,,,,,,,,,,,,,,,,,,,,
,,,,,,8,0,8,0,1,X V Q F H G B L J M P D K C T S W R N Z,5f4699e88ed08d02e65b2240,22,Mężczyzna,2022-06-11_09h40.07.380,task,2021.1.4,Win32,59.86948452,6299f149e92ead563fba08ef,62a446ab03d90e3f21f4f1f4,,,,,,,,,,,,,,,,,,,,,,,,,,,,,,,,,,,,,,,,,,,,,,,,,,,,,,,,,,,,,,,,,,,,,,,,,,,,,,,,,,,,,,,,,,,,,,,,,,,,,
,,,,,,9,0,9,0,1,X V Q F H G B L J M P D K C T S W R N Z,5f4699e88ed08d02e65b2240,22,Mężczyzna,2022-06-11_09h40.07.380,task,2021.1.4,Win32,59.86948452,6299f149e92ead563fba08ef,62a446ab03d90e3f21f4f1f4,,,,,,,,,,,,,,,,,,,,,,,,,,,,,,,,,,,,,,,,,,,,,,,,,,,,,,,,,,,,,,,,,,,,,,,,,,,,,,,,,,,,,,,,,,,,,,,,,,,,,
,,,,,,,,,,,,5f4699e88ed08d02e65b2240,22,Mężczyzna,2022-06-11_09h40.07.380,task,2021.1.4,Win32,59.86948452,6299f149e92ead563fba08ef,62a446ab03d90e3f21f4f1f4,rdsjnwtpwb,"[""r"",""d"",""s"",""j"",""n"",""w"",""t"",""p"",""w"",""b""]","[2.356700000003002,2.860399999998492,3.596200000002966,4.541399999998532,5.238100000001509,15.195600000001491,16.063299999997014,16.81389999999851,18.531700000003013,19.10829999999703,20.123700000002998]",0,RDSJNKHPWB,20,0,20,0,1,,,,,,,,,,,,,,,,,,,,,,,,,,,,,,,,,,,,,,,,,,,,,,,,,,,,,,,,,,,,,,,,,,,,,,,,,,,,,,,,,,,,,,,,,,,
,,,,,,0,0,0,0,1,X V Q F H G B L J M P D K C T S W R N Z,5f4699e88ed08d02e65b2240,22,Mężczyzna,2022-06-11_09h40.07.380,task,2021.1.4,Win32,59.86948452,6299f149e92ead563fba08ef,62a446ab03d90e3f21f4f1f4,,,,,,,,,,,,,,,,,,,,,,,,,,,,,,,,,,,,,,,,,,,,,,,,,,,,,,,,,,,,,,,,,,,,,,,,,,,,,,,,,,,,,,,,,,,,,,,,,,,,,
,,,,,,1,0,1,0,1,X V Q F H G B L J M P D K C T S W R N Z,5f4699e88ed08d02e65b2240,22,Mężczyzna,2022-06-11_09h40.07.380,task,2021.1.4,Win32,59.86948452,6299f149e92ead563fba08ef,62a446ab03d90e3f21f4f1f4,,,,,,,,,,,,,,,,,,,,,,,,,,,,,,,,,,,,,,,,,,,,,,,,,,,,,,,,,,,,,,,,,,,,,,,,,,,,,,,,,,,,,,,,,,,,,,,,,,,,,
,,,,,,2,0,2,0,1,X V Q F H G B L J M P D K C T S W R N Z,5f4699e88ed08d02e65b2240,22,Mężczyzna,2022-06-11_09h40.07.380,task,2021.1.4,Win32,59.86948452,6299f149e92ead563fba08ef,62a446ab03d90e3f21f4f1f4,,,,,,,,,,,,,,,,,,,,,,,,,,,,,,,,,,,,,,,,,,,,,,,,,,,,,,,,,,,,,,,,,,,,,,,,,,,,,,,,,,,,,,,,,,,,,,,,,,,,,
,,,,,,3,0,3,0,1,X V Q F H G B L J M P D K C T S W R N Z,5f4699e88ed08d02e65b2240,22,Mężczyzna,2022-06-11_09h40.07.380,task,2021.1.4,Win32,59.86948452,6299f149e92ead563fba08ef,62a446ab03d90e3f21f4f1f4,,,,,,,,,,,,,,,,,,,,,,,,,,,,,,,,,,,,,,,,,,,,,,,,,,,,,,,,,,,,,,,,,,,,,,,,,,,,,,,,,,,,,,,,,,,,,,,,,,,,,
,,,,,,4,0,4,0,1,X V Q F H G B L J M P D K C T S W R N Z,5f4699e88ed08d02e65b2240,22,Mężczyzna,2022-06-11_09h40.07.380,task,2021.1.4,Win32,59.86948452,6299f149e92ead563fba08ef,62a446ab03d90e3f21f4f1f4,,,,,,,,,,,,,,,,,,,,,,,,,,,,,,,,,,,,,,,,,,,,,,,,,,,,,,,,,,,,,,,,,,,,,,,,,,,,,,,,,,,,,,,,,,,,,,,,,,,,,
,,,,,,5,0,5,0,1,X V Q F H G B L J M P D K C T S W R N Z,5f4699e88ed08d02e65b2240,22,Mężczyzna,2022-06-11_09h40.07.380,task,2021.1.4,Win32,59.86948452,6299f149e92ead563fba08ef,62a446ab03d90e3f21f4f1f4,,,,,,,,,,,,,,,,,,,,,,,,,,,,,,,,,,,,,,,,,,,,,,,,,,,,,,,,,,,,,,,,,,,,,,,,,,,,,,,,,,,,,,,,,,,,,,,,,,,,,
,,,,,,6,0,6,0,1,X V Q F H G B L J M P D K C T S W R N Z,5f4699e88ed08d02e65b2240,22,Mężczyzna,2022-06-11_09h40.07.380,task,2021.1.4,Win32,59.86948452,6299f149e92ead563fba08ef,62a446ab03d90e3f21f4f1f4,,,,,,,,,,,,,,,,,,,,,,,,,,,,,,,,,,,,,,,,,,,,,,,,,,,,,,,,,,,,,,,,,,,,,,,,,,,,,,,,,,,,,,,,,,,,,,,,,,,,,
,,,,,,7,0,7,0,1,X V Q F H G B L J M P D K C T S W R N Z,5f4699e88ed08d02e65b2240,22,Mężczyzna,2022-06-11_09h40.07.380,task,2021.1.4,Win32,59.86948452,6299f149e92ead563fba08ef,62a446ab03d90e3f21f4f1f4,,,,,,,,,,,,,,,,,,,,,,,,,,,,,,,,,,,,,,,,,,,,,,,,,,,,,,,,,,,,,,,,,,,,,,,,,,,,,,,,,,,,,,,,,,,,,,,,,,,,,
,,,,,,8,0,8,0,1,X V Q F H G B L J M P D K C T S W R N Z,5f4699e88ed08d02e65b2240,22,Mężczyzna,2022-06-11_09h40.07.380,task,2021.1.4,Win32,59.86948452,6299f149e92ead563fba08ef,62a446ab03d90e3f21f4f1f4,,,,,,,,,,,,,,,,,,,,,,,,,,,,,,,,,,,,,,,,,,,,,,,,,,,,,,,,,,,,,,,,,,,,,,,,,,,,,,,,,,,,,,,,,,,,,,,,,,,,,
,,,,,,9,0,9,0,1,X V Q F H G B L J M P D K C T S W R N Z,5f4699e88ed08d02e65b2240,22,Mężczyzna,2022-06-11_09h40.07.380,task,2021.1.4,Win32,59.86948452,6299f149e92ead563fba08ef,62a446ab03d90e3f21f4f1f4,,,,,,,,,,,,,,,,,,,,,,,,,,,,,,,,,,,,,,,,,,,,,,,,,,,,,,,,,,,,,,,,,,,,,,,,,,,,,,,,,,,,,,,,,,,,,,,,,,,,,
,,,,,,,,,,,,5f4699e88ed08d02e65b2240,22,Mężczyzna,2022-06-11_09h40.07.380,task,2021.1.4,Win32,59.86948452,6299f149e92ead563fba08ef,62a446ab03d90e3f21f4f1f4,ttmwxbrmtb,"[""t"",""t"",""m"",""w"",""x"",""b"",""r"",""m"",""t"",""b""]","[2.7532999999970116,3.0027999999969666,3.352999999999952,3.6789999999999736,4.071099999994033,5.354199999995501,7.173199999995518,8.2567999999971,8.457399999998586,8.841099999994015,17.263399999998512]",1,TTMWXBRMTB,21,0,21,0,1,,,,,,,,,,,,,,,,,,,,,,,,,,,,,,,,,,,,,,,,,,,,,,,,,,,,,,,,,,,,,,,,,,,,,,,,,,,,,,,,,,,,,,,,,,,
,,,,,,0,0,0,0,1,X V Q F H G B L J M P D K C T S W R N Z,5f4699e88ed08d02e65b2240,22,Mężczyzna,2022-06-11_09h40.07.380,task,2021.1.4,Win32,59.86948452,6299f149e92ead563fba08ef,62a446ab03d90e3f21f4f1f4,,,,,,,,,,,,,,,,,,,,,,,,,,,,,,,,,,,,,,,,,,,,,,,,,,,,,,,,,,,,,,,,,,,,,,,,,,,,,,,,,,,,,,,,,,,,,,,,,,,,,
,,,,,,1,0,1,0,1,X V Q F H G B L J M P D K C T S W R N Z,5f4699e88ed08d02e65b2240,22,Mężczyzna,2022-06-11_09h40.07.380,task,2021.1.4,Win32,59.86948452,6299f149e92ead563fba08ef,62a446ab03d90e3f21f4f1f4,,,,,,,,,,,,,,,,,,,,,,,,,,,,,,,,,,,,,,,,,,,,,,,,,,,,,,,,,,,,,,,,,,,,,,,,,,,,,,,,,,,,,,,,,,,,,,,,,,,,,
,,,,,,2,0,2,0,1,X V Q F H G B L J M P D K C T S W R N Z,5f4699e88ed08d02e65b2240,22,Mężczyzna,2022-06-11_09h40.07.380,task,2021.1.4,Win32,59.86948452,6299f149e92ead563fba08ef,62a446ab03d90e3f21f4f1f4,,,,,,,,,,,,,,,,,,,,,,,,,,,,,,,,,,,,,,,,,,,,,,,,,,,,,,,,,,,,,,,,,,,,,,,,,,,,,,,,,,,,,,,,,,,,,,,,,,,,,
,,,,,,3,0,3,0,1,X V Q F H G B L J M P D K C T S W R N Z,5f4699e88ed08d02e65b2240,22,Mężczyzna,2022-06-11_09h40.07.380,task,2021.1.4,Win32,59.86948452,6299f149e92ead563fba08ef,62a446ab03d90e3f21f4f1f4,,,,,,,,,,,,,,,,,,,,,,,,,,,,,,,,,,,,,,,,,,,,,,,,,,,,,,,,,,,,,,,,,,,,,,,,,,,,,,,,,,,,,,,,,,,,,,,,,,,,,
,,,,,,4,0,4,0,1,X V Q F H G B L J M P D K C T S W R N Z,5f4699e88ed08d02e65b2240,22,Mężczyzna,2022-06-11_09h40.07.380,task,2021.1.4,Win32,59.86948452,6299f149e92ead563fba08ef,62a446ab03d90e3f21f4f1f4,,,,,,,,,,,,,,,,,,,,,,,,,,,,,,,,,,,,,,,,,,,,,,,,,,,,,,,,,,,,,,,,,,,,,,,,,,,,,,,,,,,,,,,,,,,,,,,,,,,,,
,,,,,,5,0,5,0,1,X V Q F H G B L J M P D K C T S W R N Z,5f4699e88ed08d02e65b2240,22,Mężczyzna,2022-06-11_09h40.07.380,task,2021.1.4,Win32,59.86948452,6299f149e92ead563fba08ef,62a446ab03d90e3f21f4f1f4,,,,,,,,,,,,,,,,,,,,,,,,,,,,,,,,,,,,,,,,,,,,,,,,,,,,,,,,,,,,,,,,,,,,,,,,,,,,,,,,,,,,,,,,,,,,,,,,,,,,,
,,,,,,6,0,6,0,1,X V Q F H G B L J M P D K C T S W R N Z,5f4699e88ed08d02e65b2240,22,Mężczyzna,2022-06-11_09h40.07.380,task,2021.1.4,Win32,59.86948452,6299f149e92ead563fba08ef,62a446ab03d90e3f21f4f1f4,,,,,,,,,,,,,,,,,,,,,,,,,,,,,,,,,,,,,,,,,,,,,,,,,,,,,,,,,,,,,,,,,,,,,,,,,,,,,,,,,,,,,,,,,,,,,,,,,,,,,
,,,,,,7,0,7,0,1,X V Q F H G B L J M P D K C T S W R N Z,5f4699e88ed08d02e65b2240,22,Mężczyzna,2022-06-11_09h40.07.380,task,2021.1.4,Win32,59.86948452,6299f149e92ead563fba08ef,62a446ab03d90e3f21f4f1f4,,,,,,,,,,,,,,,,,,,,,,,,,,,,,,,,,,,,,,,,,,,,,,,,,,,,,,,,,,,,,,,,,,,,,,,,,,,,,,,,,,,,,,,,,,,,,,,,,,,,,
,,,,,,8,0,8,0,1,X V Q F H G B L J M P D K C T S W R N Z,5f4699e88ed08d02e65b2240,22,Mężczyzna,2022-06-11_09h40.07.380,task,2021.1.4,Win32,59.86948452,6299f149e92ead563fba08ef,62a446ab03d90e3f21f4f1f4,,,,,,,,,,,,,,,,,,,,,,,,,,,,,,,,,,,,,,,,,,,,,,,,,,,,,,,,,,,,,,,,,,,,,,,,,,,,,,,,,,,,,,,,,,,,,,,,,,,,,
,,,,,,9,0,9,0,1,X V Q F H G B L J M P D K C T S W R N Z,5f4699e88ed08d02e65b2240,22,Mężczyzna,2022-06-11_09h40.07.380,task,2021.1.4,Win32,59.86948452,6299f149e92ead563fba08ef,62a446ab03d90e3f21f4f1f4,,,,,,,,,,,,,,,,,,,,,,,,,,,,,,,,,,,,,,,,,,,,,,,,,,,,,,,,,,,,,,,,,,,,,,,,,,,,,,,,,,,,,,,,,,,,,,,,,,,,,
,,,,,,,,,,,,5f4699e88ed08d02e65b2240,22,Mężczyzna,2022-06-11_09h40.07.380,task,2021.1.4,Win32,59.86948452,6299f149e92ead563fba08ef,62a446ab03d90e3f21f4f1f4,lndtzhdzxd,"[""l"",""n"",""d"",""t"",""z"",""h"",""d"",""z"",""x"",""d""]","[1.9741999999955624,2.326699999995526,2.9198999999985062,3.403699999995524,3.8141999999955942,4.694799999997031,5.7590000000000146,6.439000000000078,7.590299999997114,9.207799999997064,9.73329999999703]",1,LNDTZHDZXD,22,0,22,0,1,,,,,,,,,,,,,,,,,,,,,,,,,,,,,,,,,,,,,,,,,,,,,,,,,,,,,,,,,,,,,,,,,,,,,,,,,,,,,,,,,,,,,,,,,,,
,,,,,,0,0,0,0,1,X V Q F H G B L J M P D K C T S W R N Z,5f4699e88ed08d02e65b2240,22,Mężczyzna,2022-06-11_09h40.07.380,task,2021.1.4,Win32,59.86948452,6299f149e92ead563fba08ef,62a446ab03d90e3f21f4f1f4,,,,,,,,,,,,,,,,,,,,,,,,,,,,,,,,,,,,,,,,,,,,,,,,,,,,,,,,,,,,,,,,,,,,,,,,,,,,,,,,,,,,,,,,,,,,,,,,,,,,,
,,,,,,1,0,1,0,1,X V Q F H G B L J M P D K C T S W R N Z,5f4699e88ed08d02e65b2240,22,Mężczyzna,2022-06-11_09h40.07.380,task,2021.1.4,Win32,59.86948452,6299f149e92ead563fba08ef,62a446ab03d90e3f21f4f1f4,,,,,,,,,,,,,,,,,,,,,,,,,,,,,,,,,,,,,,,,,,,,,,,,,,,,,,,,,,,,,,,,,,,,,,,,,,,,,,,,,,,,,,,,,,,,,,,,,,,,,
,,,,,,2,0,2,0,1,X V Q F H G B L J M P D K C T S W R N Z,5f4699e88ed08d02e65b2240,22,Mężczyzna,2022-06-11_09h40.07.380,task,2021.1.4,Win32,59.86948452,6299f149e92ead563fba08ef,62a446ab03d90e3f21f4f1f4,,,,,,,,,,,,,,,,,,,,,,,,,,,,,,,,,,,,,,,,,,,,,,,,,,,,,,,,,,,,,,,,,,,,,,,,,,,,,,,,,,,,,,,,,,,,,,,,,,,,,
,,,,,,3,0,3,0,1,X V Q F H G B L J M P D K C T S W R N Z,5f4699e88ed08d02e65b2240,22,Mężczyzna,2022-06-11_09h40.07.380,task,2021.1.4,Win32,59.86948452,6299f149e92ead563fba08ef,62a446ab03d90e3f21f4f1f4,,,,,,,,,,,,,,,,,,,,,,,,,,,,,,,,,,,,,,,,,,,,,,,,,,,,,,,,,,,,,,,,,,,,,,,,,,,,,,,,,,,,,,,,,,,,,,,,,,,,,
,,,,,,4,0,4,0,1,X V Q F H G B L J M P D K C T S W R N Z,5f4699e88ed08d02e65b2240,22,Mężczyzna,2022-06-11_09h40.07.380,task,2021.1.4,Win32,59.86948452,6299f149e92ead563fba08ef,62a446ab03d90e3f21f4f1f4,,,,,,,,,,,,,,,,,,,,,,,,,,,,,,,,,,,,,,,,,,,,,,,,,,,,,,,,,,,,,,,,,,,,,,,,,,,,,,,,,,,,,,,,,,,,,,,,,,,,,
,,,,,,5,0,5,0,1,X V Q F H G B L J M P D K C T S W R N Z,5f4699e88ed08d02e65b2240,22,Mężczyzna,2022-06-11_09h40.07.380,task,2021.1.4,Win32,59.86948452,6299f149e92ead563fba08ef,62a446ab03d90e3f21f4f1f4,,,,,,,,,,,,,,,,,,,,,,,,,,,,,,,,,,,,,,,,,,,,,,,,,,,,,,,,,,,,,,,,,,,,,,,,,,,,,,,,,,,,,,,,,,,,,,,,,,,,,
,,,,,,6,0,6,0,1,X V Q F H G B L J M P D K C T S W R N Z,5f4699e88ed08d02e65b2240,22,Mężczyzna,2022-06-11_09h40.07.380,task,2021.1.4,Win32,59.86948452,6299f149e92ead563fba08ef,62a446ab03d90e3f21f4f1f4,,,,,,,,,,,,,,,,,,,,,,,,,,,,,,,,,,,,,,,,,,,,,,,,,,,,,,,,,,,,,,,,,,,,,,,,,,,,,,,,,,,,,,,,,,,,,,,,,,,,,
,,,,,,7,0,7,0,1,X V Q F H G B L J M P D K C T S W R N Z,5f4699e88ed08d02e65b2240,22,Mężczyzna,2022-06-11_09h40.07.380,task,2021.1.4,Win32,59.86948452,6299f149e92ead563fba08ef,62a446ab03d90e3f21f4f1f4,,,,,,,,,,,,,,,,,,,,,,,,,,,,,,,,,,,,,,,,,,,,,,,,,,,,,,,,,,,,,,,,,,,,,,,,,,,,,,,,,,,,,,,,,,,,,,,,,,,,,
,,,,,,8,0,8,0,1,X V Q F H G B L J M P D K C T S W R N Z,5f4699e88ed08d02e65b2240,22,Mężczyzna,2022-06-11_09h40.07.380,task,2021.1.4,Win32,59.86948452,6299f149e92ead563fba08ef,62a446ab03d90e3f21f4f1f4,,,,,,,,,,,,,,,,,,,,,,,,,,,,,,,,,,,,,,,,,,,,,,,,,,,,,,,,,,,,,,,,,,,,,,,,,,,,,,,,,,,,,,,,,,,,,,,,,,,,,
,,,,,,9,0,9,0,1,X V Q F H G B L J M P D K C T S W R N Z,5f4699e88ed08d02e65b2240,22,Mężczyzna,2022-06-11_09h40.07.380,task,2021.1.4,Win32,59.86948452,6299f149e92ead563fba08ef,62a446ab03d90e3f21f4f1f4,,,,,,,,,,,,,,,,,,,,,,,,,,,,,,,,,,,,,,,,,,,,,,,,,,,,,,,,,,,,,,,,,,,,,,,,,,,,,,,,,,,,,,,,,,,,,,,,,,,,,
,,,,,,10,0,10,0,1,X V Q F H G B L J M P D K C T S W R N Z,5f4699e88ed08d02e65b2240,22,Mężczyzna,2022-06-11_09h40.07.380,task,2021.1.4,Win32,59.86948452,6299f149e92ead563fba08ef,62a446ab03d90e3f21f4f1f4,,,,,,,,,,,,,,,,,,,,,,,,,,,,,,,,,,,,,,,,,,,,,,,,,,,,,,,,,,,,,,,,,,,,,,,,,,,,,,,,,,,,,,,,,,,,,,,,,,,,,
,,,,,,,,,,,,5f4699e88ed08d02e65b2240,22,Mężczyzna,2022-06-11_09h40.07.380,task,2021.1.4,Win32,59.86948452,6299f149e92ead563fba08ef,62a446ab03d90e3f21f4f1f4,lklbguhpndh,"[""l"",""k"",""l"",""b"",""g"",""u"",""h"",""p"",""n"",""d"",""h""]","[2.2691000000014583,2.736199999995506,3.1077999999970416,3.4866000000015447,4.904199999995512,7.026600000001508,7.498799999997004,8.75460000000146,9.154399999998532,9.546899999998573,10.298899999998525,11.162600000001476]",0,LKLBGVHPNPH,23,0,23,0,1,,,,,,,,,,,,,,,,,,,,,,,,,,,,,,,,,,,,,,,,,,,,,,,,,,,,,,,,,,,,,,,,,,,,,,,,,,,,,,,,,,,,,,,,,,,
,,,,,,0,0,0,0,1,X V Q F H G B L J M P D K C T S W R N Z,5f4699e88ed08d02e65b2240,22,Mężczyzna,2022-06-11_09h40.07.380,task,2021.1.4,Win32,59.86948452,6299f149e92ead563fba08ef,62a446ab03d90e3f21f4f1f4,,,,,,,,,,,,,,,,,,,,,,,,,,,,,,,,,,,,,,,,,,,,,,,,,,,,,,,,,,,,,,,,,,,,,,,,,,,,,,,,,,,,,,,,,,,,,,,,,,,,,
,,,,,,1,0,1,0,1,X V Q F H G B L J M P D K C T S W R N Z,5f4699e88ed08d02e65b2240,22,Mężczyzna,2022-06-11_09h40.07.380,task,2021.1.4,Win32,59.86948452,6299f149e92ead563fba08ef,62a446ab03d90e3f21f4f1f4,,,,,,,,,,,,,,,,,,,,,,,,,,,,,,,,,,,,,,,,,,,,,,,,,,,,,,,,,,,,,,,,,,,,,,,,,,,,,,,,,,,,,,,,,,,,,,,,,,,,,
,,,,,,2,0,2,0,1,X V Q F H G B L J M P D K C T S W R N Z,5f4699e88ed08d02e65b2240,22,Mężczyzna,2022-06-11_09h40.07.380,task,2021.1.4,Win32,59.86948452,6299f149e92ead563fba08ef,62a446ab03d90e3f21f4f1f4,,,,,,,,,,,,,,,,,,,,,,,,,,,,,,,,,,,,,,,,,,,,,,,,,,,,,,,,,,,,,,,,,,,,,,,,,,,,,,,,,,,,,,,,,,,,,,,,,,,,,
,,,,,,3,0,3,0,1,X V Q F H G B L J M P D K C T S W R N Z,5f4699e88ed08d02e65b2240,22,Mężczyzna,2022-06-11_09h40.07.380,task,2021.1.4,Win32,59.86948452,6299f149e92ead563fba08ef,62a446ab03d90e3f21f4f1f4,,,,,,,,,,,,,,,,,,,,,,,,,,,,,,,,,,,,,,,,,,,,,,,,,,,,,,,,,,,,,,,,,,,,,,,,,,,,,,,,,,,,,,,,,,,,,,,,,,,,,
,,,,,,4,0,4,0,1,X V Q F H G B L J M P D K C T S W R N Z,5f4699e88ed08d02e65b2240,22,Mężczyzna,2022-06-11_09h40.07.380,task,2021.1.4,Win32,59.86948452,6299f149e92ead563fba08ef,62a446ab03d90e3f21f4f1f4,,,,,,,,,,,,,,,,,,,,,,,,,,,,,,,,,,,,,,,,,,,,,,,,,,,,,,,,,,,,,,,,,,,,,,,,,,,,,,,,,,,,,,,,,,,,,,,,,,,,,
,,,,,,5,0,5,0,1,X V Q F H G B L J M P D K C T S W R N Z,5f4699e88ed08d02e65b2240,22,Mężczyzna,2022-06-11_09h40.07.380,task,2021.1.4,Win32,59.86948452,6299f149e92ead563fba08ef,62a446ab03d90e3f21f4f1f4,,,,,,,,,,,,,,,,,,,,,,,,,,,,,,,,,,,,,,,,,,,,,,,,,,,,,,,,,,,,,,,,,,,,,,,,,,,,,,,,,,,,,,,,,,,,,,,,,,,,,
,,,,,,6,0,6,0,1,X V Q F H G B L J M P D K C T S W R N Z,5f4699e88ed08d02e65b2240,22,Mężczyzna,2022-06-11_09h40.07.380,task,2021.1.4,Win32,59.86948452,6299f149e92ead563fba08ef,62a446ab03d90e3f21f4f1f4,,,,,,,,,,,,,,,,,,,,,,,,,,,,,,,,,,,,,,,,,,,,,,,,,,,,,,,,,,,,,,,,,,,,,,,,,,,,,,,,,,,,,,,,,,,,,,,,,,,,,
,,,,,,7,0,7,0,1,X V Q F H G B L J M P D K C T S W R N Z,5f4699e88ed08d02e65b2240,22,Mężczyzna,2022-06-11_09h40.07.380,task,2021.1.4,Win32,59.86948452,6299f149e92ead563fba08ef,62a446ab03d90e3f21f4f1f4,,,,,,,,,,,,,,,,,,,,,,,,,,,,,,,,,,,,,,,,,,,,,,,,,,,,,,,,,,,,,,,,,,,,,,,,,,,,,,,,,,,,,,,,,,,,,,,,,,,,,
,,,,,,8,0,8,0,1,X V Q F H G B L J M P D K C T S W R N Z,5f4699e88ed08d02e65b2240,22,Mężczyzna,2022-06-11_09h40.07.380,task,2021.1.4,Win32,59.86948452,6299f149e92ead563fba08ef,62a446ab03d90e3f21f4f1f4,,,,,,,,,,,,,,,,,,,,,,,,,,,,,,,,,,,,,,,,,,,,,,,,,,,,,,,,,,,,,,,,,,,,,,,,,,,,,,,,,,,,,,,,,,,,,,,,,,,,,
,,,,,,9,0,9,0,1,X V Q F H G B L J M P D K C T S W R N Z,5f4699e88ed08d02e65b2240,22,Mężczyzna,2022-06-11_09h40.07.380,task,2021.1.4,Win32,59.86948452,6299f149e92ead563fba08ef,62a446ab03d90e3f21f4f1f4,,,,,,,,,,,,,,,,,,,,,,,,,,,,,,,,,,,,,,,,,,,,,,,,,,,,,,,,,,,,,,,,,,,,,,,,,,,,,,,,,,,,,,,,,,,,,,,,,,,,,
,,,,,,10,0,10,0,1,X V Q F H G B L J M P D K C T S W R N Z,5f4699e88ed08d02e65b2240,22,Mężczyzna,2022-06-11_09h40.07.380,task,2021.1.4,Win32,59.86948452,6299f149e92ead563fba08ef,62a446ab03d90e3f21f4f1f4,,,,,,,,,,,,,,,,,,,,,,,,,,,,,,,,,,,,,,,,,,,,,,,,,,,,,,,,,,,,,,,,,,,,,,,,,,,,,,,,,,,,,,,,,,,,,,,,,,,,,
,,,,,,,,,,,,5f4699e88ed08d02e65b2240,22,Mężczyzna,2022-06-11_09h40.07.380,task,2021.1.4,Win32,59.86948452,6299f149e92ead563fba08ef,62a446ab03d90e3f21f4f1f4,tznlvhz,"[""t"",""z"",""n"",""l"",""v"",""h"",""z""]","[2.4675000000000864,2.7789999999999964,5.330399999998576,6.226300000004471,10.739200000003052,11.074100000001522,11.305800000004524,11.913000000000011]",0,TZXNLZWVHJZ,24,0,24,0,1,,,,,,,,,,,,,,,,,,,,,,,,,,,,,,,,,,,,,,,,,,,,,,,,,,,,,,,,,,,,,,,,,,,,,,,,,,,,,,,,,,,,,,,,,,,
,,,,,,0,0,0,0,1,X V Q F H G B L J M P D K C T S W R N Z,5f4699e88ed08d02e65b2240,22,Mężczyzna,2022-06-11_09h40.07.380,task,2021.1.4,Win32,59.86948452,6299f149e92ead563fba08ef,62a446ab03d90e3f21f4f1f4,,,,,,,,,,,,,,,,,,,,,,,,,,,,,,,,,,,,,,,,,,,,,,,,,,,,,,,,,,,,,,,,,,,,,,,,,,,,,,,,,,,,,,,,,,,,,,,,,,,,,
,,,,,,1,0,1,0,1,X V Q F H G B L J M P D K C T S W R N Z,5f4699e88ed08d02e65b2240,22,Mężczyzna,2022-06-11_09h40.07.380,task,2021.1.4,Win32,59.86948452,6299f149e92ead563fba08ef,62a446ab03d90e3f21f4f1f4,,,,,,,,,,,,,,,,,,,,,,,,,,,,,,,,,,,,,,,,,,,,,,,,,,,,,,,,,,,,,,,,,,,,,,,,,,,,,,,,,,,,,,,,,,,,,,,,,,,,,
,,,,,,2,0,2,0,1,X V Q F H G B L J M P D K C T S W R N Z,5f4699e88ed08d02e65b2240,22,Mężczyzna,2022-06-11_09h40.07.380,task,2021.1.4,Win32,59.86948452,6299f149e92ead563fba08ef,62a446ab03d90e3f21f4f1f4,,,,,,,,,,,,,,,,,,,,,,,,,,,,,,,,,,,,,,,,,,,,,,,,,,,,,,,,,,,,,,,,,,,,,,,,,,,,,,,,,,,,,,,,,,,,,,,,,,,,,
,,,,,,3,0,3,0,1,X V Q F H G B L J M P D K C T S W R N Z,5f4699e88ed08d02e65b2240,22,Mężczyzna,2022-06-11_09h40.07.380,task,2021.1.4,Win32,59.86948452,6299f149e92ead563fba08ef,62a446ab03d90e3f21f4f1f4,,,,,,,,,,,,,,,,,,,,,,,,,,,,,,,,,,,,,,,,,,,,,,,,,,,,,,,,,,,,,,,,,,,,,,,,,,,,,,,,,,,,,,,,,,,,,,,,,,,,,
,,,,,,4,0,4,0,1,X V Q F H G B L J M P D K C T S W R N Z,5f4699e88ed08d02e65b2240,22,Mężczyzna,2022-06-11_09h40.07.380,task,2021.1.4,Win32,59.86948452,6299f149e92ead563fba08ef,62a446ab03d90e3f21f4f1f4,,,,,,,,,,,,,,,,,,,,,,,,,,,,,,,,,,,,,,,,,,,,,,,,,,,,,,,,,,,,,,,,,,,,,,,,,,,,,,,,,,,,,,,,,,,,,,,,,,,,,
,,,,,,5,0,5,0,1,X V Q F H G B L J M P D K C T S W R N Z,5f4699e88ed08d02e65b2240,22,Mężczyzna,2022-06-11_09h40.07.380,task,2021.1.4,Win32,59.86948452,6299f149e92ead563fba08ef,62a446ab03d90e3f21f4f1f4,,,,,,,,,,,,,,,,,,,,,,,,,,,,,,,,,,,,,,,,,,,,,,,,,,,,,,,,,,,,,,,,,,,,,,,,,,,,,,,,,,,,,,,,,,,,,,,,,,,,,
,,,,,,6,0,6,0,1,X V Q F H G B L J M P D K C T S W R N Z,5f4699e88ed08d02e65b2240,22,Mężczyzna,2022-06-11_09h40.07.380,task,2021.1.4,Win32,59.86948452,6299f149e92ead563fba08ef,62a446ab03d90e3f21f4f1f4,,,,,,,,,,,,,,,,,,,,,,,,,,,,,,,,,,,,,,,,,,,,,,,,,,,,,,,,,,,,,,,,,,,,,,,,,,,,,,,,,,,,,,,,,,,,,,,,,,,,,
,,,,,,7,0,7,0,1,X V Q F H G B L J M P D K C T S W R N Z,5f4699e88ed08d02e65b2240,22,Mężczyzna,2022-06-11_09h40.07.380,task,2021.1.4,Win32,59.86948452,6299f149e92ead563fba08ef,62a446ab03d90e3f21f4f1f4,,,,,,,,,,,,,,,,,,,,,,,,,,,,,,,,,,,,,,,,,,,,,,,,,,,,,,,,,,,,,,,,,,,,,,,,,,,,,,,,,,,,,,,,,,,,,,,,,,,,,
,,,,,,8,0,8,0,1,X V Q F H G B L J M P D K C T S W R N Z,5f4699e88ed08d02e65b2240,22,Mężczyzna,2022-06-11_09h40.07.380,task,2021.1.4,Win32,59.86948452,6299f149e92ead563fba08ef,62a446ab03d90e3f21f4f1f4,,,,,,,,,,,,,,,,,,,,,,,,,,,,,,,,,,,,,,,,,,,,,,,,,,,,,,,,,,,,,,,,,,,,,,,,,,,,,,,,,,,,,,,,,,,,,,,,,,,,,
,,,,,,9,0,9,0,1,X V Q F H G B L J M P D K C T S W R N Z,5f4699e88ed08d02e65b2240,22,Mężczyzna,2022-06-11_09h40.07.380,task,2021.1.4,Win32,59.86948452,6299f149e92ead563fba08ef,62a446ab03d90e3f21f4f1f4,,,,,,,,,,,,,,,,,,,,,,,,,,,,,,,,,,,,,,,,,,,,,,,,,,,,,,,,,,,,,,,,,,,,,,,,,,,,,,,,,,,,,,,,,,,,,,,,,,,,,
,,,,,,10,0,10,0,1,X V Q F H G B L J M P D K C T S W R N Z,5f4699e88ed08d02e65b2240,22,Mężczyzna,2022-06-11_09h40.07.380,task,2021.1.4,Win32,59.86948452,6299f149e92ead563fba08ef,62a446ab03d90e3f21f4f1f4,,,,,,,,,,,,,,,,,,,,,,,,,,,,,,,,,,,,,,,,,,,,,,,,,,,,,,,,,,,,,,,,,,,,,,,,,,,,,,,,,,,,,,,,,,,,,,,,,,,,,
,,,,,,,,,,,,5f4699e88ed08d02e65b2240,22,Mężczyzna,2022-06-11_09h40.07.380,task,2021.1.4,Win32,59.86948452,6299f149e92ead563fba08ef,62a446ab03d90e3f21f4f1f4,cuslqbng,"[""c"",""u"",""s"",""l"",""q"",""b"",""n"",""g""]","[1.9431000000014365,2.1836000000014337,3.0674999999999955,4.639399999998432,5.293999999999983,6.795899999998483,6.9858999999984235,7.437000000000012,11.716700000002902]",0,CVSLFQPTSNG,25,0,25,0,1,,,,,,,,,,,,,,,,,,,,,,,,,,,,,,,,,,,,,,,,,,,,,,,,,,,,,,,,,,,,,,,,,,,,,,,,,,,,,,,,,,,,,,,,,,,
,,,,,,,,,,,,5f4699e88ed08d02e65b2240,22,Mężczyzna,2022-06-11_09h40.07.380,task,2021.1.4,Win32,59.86948452,6299f149e92ead563fba08ef,62a446ab03d90e3f21f4f1f4,,,,,,,,,,,space,19.71,4,"[""4""]",1,[10.905999999999949],[10.905999999999949],0,0,0,4,1,Practice,5,(2x6) - 8,4,,,,,,,,,,,,,,,,,,,,,,,,,,,,,,,,,,,,,,,,,,,,,,,,,,,,,,,,,,,,,,,,,,,,,,,,,,,
,,,,,,,,,,,,5f4699e88ed08d02e65b2240,22,Mężczyzna,2022-06-11_09h40.07.380,task,2021.1.4,Win32,59.86948452,6299f149e92ead563fba08ef,62a446ab03d90e3f21f4f1f4,,,,,,,,,,,,,5,"[""5""]",1,[5.56710000000146],"[10.905999999999949,5.56710000000146]",0,1,1,5,1,Practice,6,(4/2) + 3,5,,,,,,,,,,,,,,,,,,,,,,,,,,,,,,,,,,,,,,,,,,,,,,,,,,,,,,,,,,,,,,,,,,,,,,,,,,,
,,,,,,,,,,,,5f4699e88ed08d02e65b2240,22,Mężczyzna,2022-06-11_09h40.07.380,task,2021.1.4,Win32,59.86948452,6299f149e92ead563fba08ef,62a446ab03d90e3f21f4f1f4,,,,,,,,,,,,,1,"[""1""]",1,[2.253500000000031],"[10.905999999999949,5.56710000000146,2.253500000000031]",0,2,2,1,1,Practice,2,(4x4) - 15,1,,,,,,,,,,,,,,,,,,,,,,,,,,,,,,,,,,,,,,,,,,,,,,,,,,,,,,,,,,,,,,,,,,,,,,,,,,,
,,,,,,,,,,,,5f4699e88ed08d02e65b2240,22,Mężczyzna,2022-06-11_09h40.07.380,task,2021.1.4,Win32,59.86948452,6299f149e92ead563fba08ef,62a446ab03d90e3f21f4f1f4,,,,,,,,,,,,,0,"[""0""]",1,[2.086399999998548],"[10.905999999999949,5.56710000000146,2.253500000000031,2.086399999998548]",0,3,3,0,1,Practice,1,(3x3) -  9,0,,,,,,,,,,,,,,,,,,,,,,,,,,,,,,,,,,,,,,,,,,,,,,,,,,,,,,,,,,,,,,,,,,,,,,,,,,,
,,,,,,,,,,,,5f4699e88ed08d02e65b2240,22,Mężczyzna,2022-06-11_09h40.07.380,task,2021.1.4,Win32,59.86948452,6299f149e92ead563fba08ef,62a446ab03d90e3f21f4f1f4,,,,,,,,,,,,,2,"[""2""]",1,[4.471399999998539],"[10.905999999999949,5.56710000000146,2.253500000000031,2.086399999998548,4.471399999998539]",0,4,4,2,1,Practice,3,(4x4) - 14,2,,,,,,,,,,,,,,,,,,,,,,,,,,,,,,,,,,,,,,,,,,,,,,,,,,,,,,,,,,,,,,,,,,,,,,,,,,,
,,,,,,,,,,,,5f4699e88ed08d02e65b2240,22,Mężczyzna,2022-06-11_09h40.07.380,task,2021.1.4,Win32,59.86948452,6299f149e92ead563fba08ef,62a446ab03d90e3f21f4f1f4,,,,,,,,,,,,,6,"[""6""]",1,[4.487700000002974],"[10.905999999999949,5.56710000000146,2.253500000000031,2.086399999998548,4.471399999998539,4.487700000002974]",0,5,5,6,1,Practice,7,(25/5) + 1,6,,,,,,,,,,,,,,,,,,,,,,,,,,,,,,,,,,,,,,,,,,,,,,,,,,,,,,,,,,,,,,,,,,,,,,,,,,,
,,,,,,,,,,,,5f4699e88ed08d02e65b2240,22,Mężczyzna,2022-06-11_09h40.07.380,task,2021.1.4,Win32,59.86948452,6299f149e92ead563fba08ef,62a446ab03d90e3f21f4f1f4,,,,,,,,,,,,,8,"[""8""]",1,[4.629899999998543],"[10.905999999999949,5.56710000000146,2.253500000000031,2.086399999998548,4.471399999998539,4.487700000002974,4.629899999998543]",0,6,6,8,1,Practice,9,(3x3) - 1,8,,,,,,,,,,,,,,,,,,,,,,,,,,,,,,,,,,,,,,,,,,,,,,,,,,,,,,,,,,,,,,,,,,,,,,,,,,,
,,,,,,,,,,,,5f4699e88ed08d02e65b2240,22,Mężczyzna,2022-06-11_09h40.07.380,task,2021.1.4,Win32,59.86948452,6299f149e92ead563fba08ef,62a446ab03d90e3f21f4f1f4,,,,,,,,,,,,,7,"[""7""]",1,[8.606899999998518],"[10.905999999999949,5.56710000000146,2.253500000000031,2.086399999998548,4.471399999998539,4.487700000002974,4.629899999998543,8.606899999998518]",0,7,7,7,1,Practice,8,(5x5) - 18,7,,,,,,,,,,,,,,,,,,,,,,,,,,,,,,,,,,,,,,,,,,,,,,,,,,,,,,,,,,,,,,,,,,,,,,,,,,,
,,,,,,,,,,,,5f4699e88ed08d02e65b2240,22,Mężczyzna,2022-06-11_09h40.07.380,task,2021.1.4,Win32,59.86948452,6299f149e92ead563fba08ef,62a446ab03d90e3f21f4f1f4,,,,,,,,,,,,,3,"[""3""]",1,[3.3537000000029593],"[10.905999999999949,5.56710000000146,2.253500000000031,2.086399999998548,4.471399999998539,4.487700000002974,4.629899999998543,8.606899999998518,3.3537000000029593]",0,8,8,3,1,Practice,4,(8/4) + 1,3,,,,,,,,,,,,,,,,,,,,,,,,,,,,,,,,,,,,,,,,,,,,,,,,,,,,,,,,,,,,,,,,,,,,,,,,,,,
,,,,,,,,,,,,5f4699e88ed08d02e65b2240,22,Mężczyzna,2022-06-11_09h40.07.380,task,2021.1.4,Win32,59.86948452,6299f149e92ead563fba08ef,62a446ab03d90e3f21f4f1f4,,,,,,,,,,,,,9,"[""9""]",1,[2.0527000000030284],"[10.905999999999949,5.56710000000146,2.253500000000031,2.086399999998548,4.471399999998539,4.487700000002974,4.629899999998543,8.606899999998518,3.3537000000029593,2.0527000000030284]",0,9,9,9,1,Practice,10,(20/2) - 1,9,,,,,,,,,,,,,,,,,,,,,,,,,,,,,,,,,,,,,,,,,,,,,,,,,,,,,,,,,,,,,,,,,,,,,,,,,,,
,,,,,,,,,,,,5f4699e88ed08d02e65b2240,22,Mężczyzna,2022-06-11_09h40.07.380,task,2021.1.4,Win32,59.86948452,6299f149e92ead563fba08ef,62a446ab03d90e3f21f4f1f4,,,,,,,,,,,,,,,,,,,,,,,,,,,1,48.4153,3.227686667,102.1139931,2.609137701,9.959261934,space,3.4365,0,0,0,0,1,,,,,,,,,,,,,,,,,,,,,,,,,,,,,,,,,,,,,,,,,,,,,,,,,,,,,,,,,,,,,,
,,,,,,,,,,,,5f4699e88ed08d02e65b2240,22,Mężczyzna,2022-06-11_09h40.07.380,task,2021.1.4,Win32,59.86948452,6299f149e92ead563fba08ef,62a446ab03d90e3f21f4f1f4,,,,,,,,,,,,,,,,,,,,,,,Practice,6,(4/2) + 3,5,,,,,,,,,,,,,,space,18.765,,0,0,0,0,0,5,1,,,,,,,,,,,,,,,,,,,,,,,,,,,,,,,,,,,,,,,,,,,,,,,,,,,,
,,,,,,,,,,,,5f4699e88ed08d02e65b2240,22,Mężczyzna,2022-06-11_09h40.07.380,task,2021.1.4,Win32,59.86948452,6299f149e92ead563fba08ef,62a446ab03d90e3f21f4f1f4,,,,,,,,,,,,,9,,,,,,,,,,Practice,10,(20/2) - 1,9,,,,,,,,,,,,,,,,"[""9""]",1,1,0,1,1,9,1,[4.671000000000049],,,,,,,,,,,,,,,,,,,,,,,,,,,,,,,,,,,,,,,,,,,,,,,,,,,
,,,,,,,,,,,X V Q F H G B L J M P D K C T S W R N Z,5f4699e88ed08d02e65b2240,22,Mężczyzna,2022-06-11_09h40.07.380,task,2021.1.4,Win32,59.86948452,6299f149e92ead563fba08ef,62a446ab03d90e3f21f4f1f4,,,,,,,,,,,,,,,,,,,,,,,,,,,,,,,,,,,,,,,,,,,,,,,,,,,0,0,0,0,1,,,,,,,,,,,,,,,,,,,,,,,,,,,,,,,,,,,,,,,,,,,,,,
,,,,,,,,,,,,5f4699e88ed08d02e65b2240,22,Mężczyzna,2022-06-11_09h40.07.380,task,2021.1.4,Win32,59.86948452,6299f149e92ead563fba08ef,62a446ab03d90e3f21f4f1f4,,,,,,,,,,,,,5,,,,,,,,,,Practice,4,(8/4) + 1,3,,,,,,,,,,,,,,,,"[""5""]",0,0,0,0,0,3,1,[4.3601000000014665],,,,,,,,,,,,,,,,,,,,,,,,,,,,,,,,,,,,,,,,,,,,,,,,,,,
,,,,,,,,,,,,5f4699e88ed08d02e65b2240,22,Mężczyzna,2022-06-11_09h40.07.380,task,2021.1.4,Win32,59.86948452,6299f149e92ead563fba08ef,62a446ab03d90e3f21f4f1f4,,,,,,,,,,,,,5,,,,,,,,,,Practice,6,(4/2) + 3,5,,,,,,,,,,,,,,,,"[""5""]",1,1,0,1,1,5,1,[7.712899999998399],,,,,,,,,,,,,,,,,,,,,,,,,,,,,,,,,,,,,,,,,,,,,,,,,,,
,,,,,,,,,,,X V Q F H G B L J M P D K C T S W R N Z,5f4699e88ed08d02e65b2240,22,Mężczyzna,2022-06-11_09h40.07.380,task,2021.1.4,Win32,59.86948452,6299f149e92ead563fba08ef,62a446ab03d90e3f21f4f1f4,,,,,,,,,,,,,,,,,,,,,,,,,,,,,,,,,,,,,,,,,,,,,,,,,,,1,0,1,0,1,,,,,,,,,,,,,,,,,,,,,,,,,,,,,,,,,,,,,,,,,,,,,,
,,,,,,,,,,,,5f4699e88ed08d02e65b2240,22,Mężczyzna,2022-06-11_09h40.07.380,task,2021.1.4,Win32,59.86948452,6299f149e92ead563fba08ef,62a446ab03d90e3f21f4f1f4,,,,,,,,,,,,,,,,,,,,,,,,,,,,,,,,,,,,,,,,,,,,,,,,,,,,,,,,zp,"[""z"",""p""]",0,"[5.143600000001584,5.543200000003026,6.418800000004467]",1,0,0,0,0,1,,,,,,,,,,,,,,,,,,,,,,,,,,,,,,,,,,,,
,,,,,,,,,,,,5f4699e88ed08d02e65b2240,22,Mężczyzna,2022-06-11_09h40.07.380,task,2021.1.4,Win32,59.86948452,6299f149e92ead563fba08ef,62a446ab03d90e3f21f4f1f4,,,,,,,,,,,,,5,,,,,,,,,,Practice,6,(4/2) + 3,5,,,,,,,,,,,,,,,,"[""5""]",1,1,0,0,0,5,1,[5.741000000000099],,,,,,,,,,,,,,,,,,,,,,,,,,,,,,,,,,,,,,,,,,,,,,,,,,,
,,,,,,,,,,,X V Q F H G B L J M P D K C T S W R N Z,5f4699e88ed08d02e65b2240,22,Mężczyzna,2022-06-11_09h40.07.380,task,2021.1.4,Win32,59.86948452,6299f149e92ead563fba08ef,62a446ab03d90e3f21f4f1f4,,,,,,,,,,,,,,,,,,,,,,,,,,,,,,,,,,,,,,,,,,,,,,,,,,,0,0,0,0,1,,,,,,,,,,,,,,,,,,,,,,,,,,,,,,,,,,,,,,,,,,,,,,
,,,,,,,,,,,,5f4699e88ed08d02e65b2240,22,Mężczyzna,2022-06-11_09h40.07.380,task,2021.1.4,Win32,59.86948452,6299f149e92ead563fba08ef,62a446ab03d90e3f21f4f1f4,,,,,,,,,,,,,9,,,,,,,,,,Practice,10,(20/2) - 1,9,,,,,,,,,,,,,,,,"[""9""]",1,1,0,0,0,9,1,[4.407799999996996],,,,,,,,,,,,,,,,,,,,,,,,,,,,,,,,,,,,,,,,,,,,,,,,,,,
,,,,,,,,,,,X V Q F H G B L J M P D K C T S W R N Z,5f4699e88ed08d02e65b2240,22,Mężczyzna,2022-06-11_09h40.07.380,task,2021.1.4,Win32,59.86948452,6299f149e92ead563fba08ef,62a446ab03d90e3f21f4f1f4,,,,,,,,,,,,,,,,,,,,,,,,,,,,,,,,,,,,,,,,,,,,,,,,,,,1,0,1,0,1,,,,,,,,,,,,,,,,,,,,,,,,,,,,,,,,,,,,,,,,,,,,,,
,,,,,,,,,,,,5f4699e88ed08d02e65b2240,22,Mężczyzna,2022-06-11_09h40.07.380,task,2021.1.4,Win32,59.86948452,6299f149e92ead563fba08ef,62a446ab03d90e3f21f4f1f4,,,,,,,,,,,,,,,,,,,,,,,,,,,,,,,,,,,,,,,,,,,,,,,,,,,,,,,,vm,"[""v"",""m""]",0,"[3.362300000004552,3.770800000004556,6.237500000000068]",1,1,0,1,0,1,,,,,,,,,,,,,,,,,,,,,,,,,,,,,,,,,,,,
,,,,,,,,,,,,5f4699e88ed08d02e65b2240,22,Mężczyzna,2022-06-11_09h40.07.380,task,2021.1.4,Win32,59.86948452,6299f149e92ead563fba08ef,62a446ab03d90e3f21f4f1f4,,,,,,,,,,,,,0,,,,,,,,,,Practice,1,(3x3) -  9,0,,,,,,,,,,,,,,,,"[""0""]",1,1,0,0,0,0,1,[2.866399999998521],,,,,,,,,,,,,,,,,,,,,,,,,,,,,,,,,,,,,,,,,,,,,,,,,,,
,,,,,,,,,,,X V Q F H G B L J M P D K C T S W R N Z,5f4699e88ed08d02e65b2240,22,Mężczyzna,2022-06-11_09h40.07.380,task,2021.1.4,Win32,59.86948452,6299f149e92ead563fba08ef,62a446ab03d90e3f21f4f1f4,,,,,,,,,,,,,,,,,,,,,,,,,,,,,,,,,,,,,,,,,,,,,,,,,,,0,0,0,0,1,,,,,,,,,,,,,,,,,,,,,,,,,,,,,,,,,,,,,,,,,,,,,,
,,,,,,,,,,,,5f4699e88ed08d02e65b2240,22,Mężczyzna,2022-06-11_09h40.07.380,task,2021.1.4,Win32,59.86948452,6299f149e92ead563fba08ef,62a446ab03d90e3f21f4f1f4,,,,,,,,,,,,,1,,,,,,,,,,Practice,2,(4x4) - 15,1,,,,,,,,,,,,,,,,"[""1""]",1,1,0,0,0,1,1,[2.988300000004415],,,,,,,,,,,,,,,,,,,,,,,,,,,,,,,,,,,,,,,,,,,,,,,,,,,
,,,,,,,,,,,X V Q F H G B L J M P D K C T S W R N Z,5f4699e88ed08d02e65b2240,22,Mężczyzna,2022-06-11_09h40.07.380,task,2021.1.4,Win32,59.86948452,6299f149e92ead563fba08ef,62a446ab03d90e3f21f4f1f4,,,,,,,,,,,,,,,,,,,,,,,,,,,,,,,,,,,,,,,,,,,,,,,,,,,1,0,1,0,1,,,,,,,,,,,,,,,,,,,,,,,,,,,,,,,,,,,,,,,,,,,,,,
,,,,,,,,,,,,5f4699e88ed08d02e65b2240,22,Mężczyzna,2022-06-11_09h40.07.380,task,2021.1.4,Win32,59.86948452,6299f149e92ead563fba08ef,62a446ab03d90e3f21f4f1f4,,,,,,,,,,,,,,,,,,,,,,,,,,,,,,,,,,,,,,,,,,,,,,,,,,,,,,,,tg,"[""t"",""g""]",0,"[3.1703999999984944,3.5080999999939877,4.30689999999845]",1,2,0,2,0,1,,,,,,,,,,,,,,,,,,,,,,,,,,,,,,,,,,,,
,,,,,,,,,,,,5f4699e88ed08d02e65b2240,22,Mężczyzna,2022-06-11_09h40.07.380,task,2021.1.4,Win32,59.86948452,6299f149e92ead563fba08ef,62a446ab03d90e3f21f4f1f4,,,,,,,,,,,,,7,,,,,,,,,,Task,30,(6/3) + 4 ,6,,,,,,,,,,,,,,,,,,0,,,,,,,,,,,,,,,,,,,,,,space,20.4675,"[""7""]",0,[4.664499999999975],0,0,0,29,1,,,,,,,,,,,,,,,,,,,,,,,,,,
,,,,,,,,,,,,5f4699e88ed08d02e65b2240,22,Mężczyzna,2022-06-11_09h40.07.380,task,2021.1.4,Win32,59.86948452,6299f149e92ead563fba08ef,62a446ab03d90e3f21f4f1f4,,,,,,,,,,,,,6,,,,,,,,,,Task,5,(2x3) + 0,6,,,,,,,,,,,,,,,,,,1,,,,,,,,,,,,,,,,,,,,,,,,"[""6""]",1,[4.882600000001503],0,1,1,4,1,,,,,,,,,,,,,,,,,,,,,,,,,,
,,,,,,,,,,,X V Q F H G B L J M P D K C T S W R N Z,5f4699e88ed08d02e65b2240,22,Mężczyzna,2022-06-11_09h40.07.380,task,2021.1.4,Win32,59.86948452,6299f149e92ead563fba08ef,62a446ab03d90e3f21f4f1f4,,,,,,,,,,,,,,,,,,,,,,,,,,,,,,,,,,,,,,,,,,,,,,,,,,,,,,,,,,,,,,,,,,,,,,,,,,,,0,0,0,0,1,,,,,,,,,,,,,,,,,,,,,
,,,,,,,,,,,,5f4699e88ed08d02e65b2240,22,Mężczyzna,2022-06-11_09h40.07.380,task,2021.1.4,Win32,59.86948452,6299f149e92ead563fba08ef,62a446ab03d90e3f21f4f1f4,,,,,,,,,,,,,5,,,,,,,,,,Task,29,(3x8) - 19 ,5,,,,,,,,,,,,,,,,,,1,,,,,,,,,,,,,,,,,,,,,,,,"[""5""]",1,[7.8693999999985635],0,0,0,28,1,,,,,,,,,,,,,,,,,,,,,,,,,,
,,,,,,,,,,,X V Q F H G B L J M P D K C T S W R N Z,5f4699e88ed08d02e65b2240,22,Mężczyzna,2022-06-11_09h40.07.380,task,2021.1.4,Win32,59.86948452,6299f149e92ead563fba08ef,62a446ab03d90e3f21f4f1f4,,,,,,,,,,,,,,,,,,,,,,,,,,,,,,,,,,,,,,,,,,,,,,,,,,,,,,,,,,,,,,,,,,,,,,,,,,,,1,0,1,0,1,,,,,,,,,,,,,,,,,,,,,
,,,,,,,,,,,,5f4699e88ed08d02e65b2240,22,Mężczyzna,2022-06-11_09h40.07.380,task,2021.1.4,Win32,59.86948452,6299f149e92ead563fba08ef,62a446ab03d90e3f21f4f1f4,,,,,,,,,,,,,,,,,,,,,,,,,,,,,,,,,,,,,,,,,,,,,,,,,,,,,,,,,,,,,,,,,,,,,,,,,,,,,,,,,zr,"[""z"",""r""]",0,"[3.5808999999985645,3.9563999999985526,4.70710000000156]",1,ZR,0,0,0,0,1,,,,,,,,,,
,,,,,,,,,,,,5f4699e88ed08d02e65b2240,22,Mężczyzna,2022-06-11_09h40.07.380,task,2021.1.4,Win32,59.86948452,6299f149e92ead563fba08ef,62a446ab03d90e3f21f4f1f4,,,,,,,,,,,,,4,,,,,,,,,,Task,21,(10/2) - 1,4,,,,,,,,,,,,,,,,,,1,,,,,,,,,,,,,,,,,,,,,,,,"[""4""]",1,[3.486499999999978],0,0,0,20,1,,,,,,,,,,,,,,,,,,,,,,,,,,
,,,,,,,,,,,X V Q F H G B L J M P D K C T S W R N Z,5f4699e88ed08d02e65b2240,22,Mężczyzna,2022-06-11_09h40.07.380,task,2021.1.4,Win32,59.86948452,6299f149e92ead563fba08ef,62a446ab03d90e3f21f4f1f4,,,,,,,,,,,,,,,,,,,,,,,,,,,,,,,,,,,,,,,,,,,,,,,,,,,,,,,,,,,,,,,,,,,,,,,,,,,,0,0,0,0,1,,,,,,,,,,,,,,,,,,,,,
,,,,,,,,,,,,5f4699e88ed08d02e65b2240,22,Mężczyzna,2022-06-11_09h40.07.380,task,2021.1.4,Win32,59.86948452,6299f149e92ead563fba08ef,62a446ab03d90e3f21f4f1f4,,,,,,,,,,,,,6,,,,,,,,,,Task,37,(3/3) + 5,6,,,,,,,,,,,,,,,,,,1,,,,,,,,,,,,,,,,,,,,,,,,"[""6""]",1,[4.845700000003035],0,0,0,36,1,,,,,,,,,,,,,,,,,,,,,,,,,,
,,,,,,,,,,,X V Q F H G B L J M P D K C T S W R N Z,5f4699e88ed08d02e65b2240,22,Mężczyzna,2022-06-11_09h40.07.380,task,2021.1.4,Win32,59.86948452,6299f149e92ead563fba08ef,62a446ab03d90e3f21f4f1f4,,,,,,,,,,,,,,,,,,,,,,,,,,,,,,,,,,,,,,,,,,,,,,,,,,,,,,,,,,,,,,,,,,,,,,,,,,,,1,0,1,0,1,,,,,,,,,,,,,,,,,,,,,
,,,,,,,,,,,,5f4699e88ed08d02e65b2240,22,Mężczyzna,2022-06-11_09h40.07.380,task,2021.1.4,Win32,59.86948452,6299f149e92ead563fba08ef,62a446ab03d90e3f21f4f1f4,,,,,,,,,,,,,3,,,,,,,,,,Task,25,(10/5) - 2,0,,,,,,,,,,,,,,,,,,0,,,,,,,,,,,,,,,,,,,,,,,,"[""3""]",0,[4.169800000004443],0,0,0,24,1,,,,,,,,,,,,,,,,,,,,,,,,,,
,,,,,,,,,,,,5f4699e88ed08d02e65b2240,22,Mężczyzna,2022-06-11_09h40.07.380,task,2021.1.4,Win32,59.86948452,6299f149e92ead563fba08ef,62a446ab03d90e3f21f4f1f4,,,,,,,,,,,,,5,,,,,,,,,,Task,22,(3x1) + 2,5,,,,,,,,,,,,,,,,,,1,,,,,,,,,,,,,,,,,,,,,,,,"[""5""]",1,[6.210299999997005],0,1,1,21,1,,,,,,,,,,,,,,,,,,,,,,,,,,
,,,,,,,,,,,X V Q F H G B L J M P D K C T S W R N Z,5f4699e88ed08d02e65b2240,22,Mężczyzna,2022-06-11_09h40.07.380,task,2021.1.4,Win32,59.86948452,6299f149e92ead563fba08ef,62a446ab03d90e3f21f4f1f4,,,,,,,,,,,,,,,,,,,,,,,,,,,,,,,,,,,,,,,,,,,,,,,,,,,,,,,,,,,,,,,,,,,,,,,,,,,,2,0,2,0,1,,,,,,,,,,,,,,,,,,,,,
,,,,,,,,,,,,5f4699e88ed08d02e65b2240,22,Mężczyzna,2022-06-11_09h40.07.380,task,2021.1.4,Win32,59.86948452,6299f149e92ead563fba08ef,62a446ab03d90e3f21f4f1f4,,,,,,,,,,,,,,,,,,,,,,,,,,,,,,,,,,,,,,,,,,,,,,,,,,,,,,,,,,,,,,,,,,,,,,,,,,,,,,,,,vvv,"[""v"",""v"",""v""]",0,"[2.619100000001481,2.8576000000015256,3.086399999998548,3.8531000000015183]",1,VVV,1,0,1,0,1,,,,,,,,,,
,,,,,,,,,,,,5f4699e88ed08d02e65b2240,22,Mężczyzna,2022-06-11_09h40.07.380,task,2021.1.4,Win32,59.86948452,6299f149e92ead563fba08ef,62a446ab03d90e3f21f4f1f4,,,,,,,,,,,,,0,,,,,,,,,,Task,17,(2x3) - 6,0,,,,,,,,,,,,,,,,,,1,,,,,,,,,,,,,,,,,,,,,,,,"[""0""]",1,[5.487699999995584],0,0,0,16,1,,,,,,,,,,,,,,,,,,,,,,,,,,
,,,,,,,,,,,X V Q F H G B L J M P D K C T S W R N Z,5f4699e88ed08d02e65b2240,22,Mężczyzna,2022-06-11_09h40.07.380,task,2021.1.4,Win32,59.86948452,6299f149e92ead563fba08ef,62a446ab03d90e3f21f4f1f4,,,,,,,,,,,,,,,,,,,,,,,,,,,,,,,,,,,,,,,,,,,,,,,,,,,,,,,,,,,,,,,,,,,,,,,,,,,,0,0,0,0,1,,,,,,,,,,,,,,,,,,,,,
,,,,,,,,,,,,5f4699e88ed08d02e65b2240,22,Mężczyzna,2022-06-11_09h40.07.380,task,2021.1.4,Win32,59.86948452,6299f149e92ead563fba08ef,62a446ab03d90e3f21f4f1f4,,,,,,,,,,,,,3,,,,,,,,,,Task,20,(18/9) + 1,3,,,,,,,,,,,,,,,,,,1,,,,,,,,,,,,,,,,,,,,,,,,"[""3""]",1,[3.4342000000029884],0,0,0,19,1,,,,,,,,,,,,,,,,,,,,,,,,,,
,,,,,,,,,,,X V Q F H G B L J M P D K C T S W R N Z,5f4699e88ed08d02e65b2240,22,Mężczyzna,2022-06-11_09h40.07.380,task,2021.1.4,Win32,59.86948452,6299f149e92ead563fba08ef,62a446ab03d90e3f21f4f1f4,,,,,,,,,,,,,,,,,,,,,,,,,,,,,,,,,,,,,,,,,,,,,,,,,,,,,,,,,,,,,,,,,,,,,,,,,,,,1,0,1,0,1,,,,,,,,,,,,,,,,,,,,,
,,,,,,,,,,,,5f4699e88ed08d02e65b2240,22,Mężczyzna,2022-06-11_09h40.07.380,task,2021.1.4,Win32,59.86948452,6299f149e92ead563fba08ef,62a446ab03d90e3f21f4f1f4,,,,,,,,,,,,,8,,,,,,,,,,Task,32,(8/2) + 4,8,,,,,,,,,,,,,,,,,,1,,,,,,,,,,,,,,,,,,,,,,,,"[""8""]",1,[3.534800000004452],0,0,0,31,1,,,,,,,,,,,,,,,,,,,,,,,,,,
,,,,,,,,,,,X V Q F H G B L J M P D K C T S W R N Z,5f4699e88ed08d02e65b2240,22,Mężczyzna,2022-06-11_09h40.07.380,task,2021.1.4,Win32,59.86948452,6299f149e92ead563fba08ef,62a446ab03d90e3f21f4f1f4,,,,,,,,,,,,,,,,,,,,,,,,,,,,,,,,,,,,,,,,,,,,,,,,,,,,,,,,,,,,,,,,,,,,,,,,,,,,2,0,2,0,1,,,,,,,,,,,,,,,,,,,,,
,,,,,,,,,,,,5f4699e88ed08d02e65b2240,22,Mężczyzna,2022-06-11_09h40.07.380,task,2021.1.4,Win32,59.86948452,6299f149e92ead563fba08ef,62a446ab03d90e3f21f4f1f4,,,,,,,,,,,,,1,,,,,,,,,,Task,34,(9/3) - 2,1,,,,,,,,,,,,,,,,,,1,,,,,,,,,,,,,,,,,,,,,,,,"[""1""]",1,[3.5410000000000537],0,0,0,33,1,,,,,,,,,,,,,,,,,,,,,,,,,,
,,,,,,,,,,,X V Q F H G B L J M P D K C T S W R N Z,5f4699e88ed08d02e65b2240,22,Mężczyzna,2022-06-11_09h40.07.380,task,2021.1.4,Win32,59.86948452,6299f149e92ead563fba08ef,62a446ab03d90e3f21f4f1f4,,,,,,,,,,,,,,,,,,,,,,,,,,,,,,,,,,,,,,,,,,,,,,,,,,,,,,,,,,,,,,,,,,,,,,,,,,,,3,0,3,0,1,,,,,,,,,,,,,,,,,,,,,
,,,,,,,,,,,,5f4699e88ed08d02e65b2240,22,Mężczyzna,2022-06-11_09h40.07.380,task,2021.1.4,Win32,59.86948452,6299f149e92ead563fba08ef,62a446ab03d90e3f21f4f1f4,,,,,,,,,,,,,,,,,,,,,,,,,,,,,,,,,,,,,,,,,,,,,,,,,,,,,,,,,,,,,,,,,,,,,,,,,,,,,,,,,ttjw,"[""t"",""t"",""j"",""w""]",0,"[7.056399999998462,7.412699999995539,8.349199999995562,8.591000000000008,10.179499999999962]",1,TTJW,2,0,2,0,1,,,,,,,,,,
,,,,,,,,,,,,5f4699e88ed08d02e65b2240,22,Mężczyzna,2022-06-11_09h40.07.380,task,2021.1.4,Win32,59.86948452,6299f149e92ead563fba08ef,62a446ab03d90e3f21f4f1f4,,,,,,,,,,,,,3,,,,,,,,,,Task,27,(3/3) + 2,3,,,,,,,,,,,,,,,,,,1,,,,,,,,,,,,,,,,,,,,,,,,"[""3""]",1,[4.384800000004475],0,0,0,26,1,,,,,,,,,,,,,,,,,,,,,,,,,,
,,,,,,,,,,,X V Q F H G B L J M P D K C T S W R N Z,5f4699e88ed08d02e65b2240,22,Mężczyzna,2022-06-11_09h40.07.380,task,2021.1.4,Win32,59.86948452,6299f149e92ead563fba08ef,62a446ab03d90e3f21f4f1f4,,,,,,,,,,,,,,,,,,,,,,,,,,,,,,,,,,,,,,,,,,,,,,,,,,,,,,,,,,,,,,,,,,,,,,,,,,,,0,0,0,0,1,,,,,,,,,,,,,,,,,,,,,
,,,,,,,,,,,,5f4699e88ed08d02e65b2240,22,Mężczyzna,2022-06-11_09h40.07.380,task,2021.1.4,Win32,59.86948452,6299f149e92ead563fba08ef,62a446ab03d90e3f21f4f1f4,,,,,,,,,,,,,0,,,,,,,,,,Task,33,(1/1) - 1,0,,,,,,,,,,,,,,,,,,1,,,,,,,,,,,,,,,,,,,,,,,,"[""0""]",1,[3.7750999999940404],0,0,0,32,1,,,,,,,,,,,,,,,,,,,,,,,,,,
,,,,,,,,,,,X V Q F H G B L J M P D K C T S W R N Z,5f4699e88ed08d02e65b2240,22,Mężczyzna,2022-06-11_09h40.07.380,task,2021.1.4,Win32,59.86948452,6299f149e92ead563fba08ef,62a446ab03d90e3f21f4f1f4,,,,,,,,,,,,,,,,,,,,,,,,,,,,,,,,,,,,,,,,,,,,,,,,,,,,,,,,,,,,,,,,,,,,,,,,,,,,1,0,1,0,1,,,,,,,,,,,,,,,,,,,,,
,,,,,,,,,,,,5f4699e88ed08d02e65b2240,22,Mężczyzna,2022-06-11_09h40.07.380,task,2021.1.4,Win32,59.86948452,6299f149e92ead563fba08ef,62a446ab03d90e3f21f4f1f4,,,,,,,,,,,,,1,,,,,,,,,,Task,9,(3x7) - 20,1,,,,,,,,,,,,,,,,,,1,,,,,,,,,,,,,,,,,,,,,,,,"[""1""]",1,[3.7837999999969725],0,0,0,8,1,,,,,,,,,,,,,,,,,,,,,,,,,,
,,,,,,,,,,,X V Q F H G B L J M P D K C T S W R N Z,5f4699e88ed08d02e65b2240,22,Mężczyzna,2022-06-11_09h40.07.380,task,2021.1.4,Win32,59.86948452,6299f149e92ead563fba08ef,62a446ab03d90e3f21f4f1f4,,,,,,,,,,,,,,,,,,,,,,,,,,,,,,,,,,,,,,,,,,,,,,,,,,,,,,,,,,,,,,,,,,,,,,,,,,,,2,0,2,0,1,,,,,,,,,,,,,,,,,,,,,
,,,,,,,,,,,,5f4699e88ed08d02e65b2240,22,Mężczyzna,2022-06-11_09h40.07.380,task,2021.1.4,Win32,59.86948452,6299f149e92ead563fba08ef,62a446ab03d90e3f21f4f1f4,,,,,,,,,,,,,9,,,,,,,,,,Task,7,(3x7) - 12,9,,,,,,,,,,,,,,,,,,1,,,,,,,,,,,,,,,,,,,,,,,,"[""9""]",1,[7.243100000001505],0,0,0,6,1,,,,,,,,,,,,,,,,,,,,,,,,,,
,,,,,,,,,,,X V Q F H G B L J M P D K C T S W R N Z,5f4699e88ed08d02e65b2240,22,Mężczyzna,2022-06-11_09h40.07.380,task,2021.1.4,Win32,59.86948452,6299f149e92ead563fba08ef,62a446ab03d90e3f21f4f1f4,,,,,,,,,,,,,,,,,,,,,,,,,,,,,,,,,,,,,,,,,,,,,,,,,,,,,,,,,,,,,,,,,,,,,,,,,,,,3,0,3,0,1,,,,,,,,,,,,,,,,,,,,,
,,,,,,,,,,,,5f4699e88ed08d02e65b2240,22,Mężczyzna,2022-06-11_09h40.07.380,task,2021.1.4,Win32,59.86948452,6299f149e92ead563fba08ef,62a446ab03d90e3f21f4f1f4,,,,,,,,,,,,,9,,,,,,,,,,Task,40,(7x2) - 5,9,,,,,,,,,,,,,,,,,,1,,,,,,,,,,,,,,,,,,,,,,,,"[""9""]",1,[3.8012999999970134],0,0,0,39,1,,,,,,,,,,,,,,,,,,,,,,,,,,
,,,,,,,,,,,X V Q F H G B L J M P D K C T S W R N Z,5f4699e88ed08d02e65b2240,22,Mężczyzna,2022-06-11_09h40.07.380,task,2021.1.4,Win32,59.86948452,6299f149e92ead563fba08ef,62a446ab03d90e3f21f4f1f4,,,,,,,,,,,,,,,,,,,,,,,,,,,,,,,,,,,,,,,,,,,,,,,,,,,,,,,,,,,,,,,,,,,,,,,,,,,,4,0,4,0,1,,,,,,,,,,,,,,,,,,,,,
,,,,,,,,,,,,5f4699e88ed08d02e65b2240,22,Mężczyzna,2022-06-11_09h40.07.380,task,2021.1.4,Win32,59.86948452,6299f149e92ead563fba08ef,62a446ab03d90e3f21f4f1f4,,,,,,,,,,,,,,,,,,,,,,,,,,,,,,,,,,,,,,,,,,,,,,,,,,,,,,,,,,,,,,,,,,,,,,,,,,,,,,,,,vgpsk,"[""v"",""g"",""p"",""s"",""k""]",0,"[4.412899999998558,5.79849999999999,7.957099999994057,8.423899999998525,8.984699999995541,10.040199999995593]",1,VGPSK,3,0,3,0,1,,,,,,,,,,
,,,,,,,,,,,,5f4699e88ed08d02e65b2240,22,Mężczyzna,2022-06-11_09h40.07.380,task,2021.1.4,Win32,59.86948452,6299f149e92ead563fba08ef,62a446ab03d90e3f21f4f1f4,,,,,,,,,,,,,9,,,,,,,,,,Task,16,(3x8) - 15,9,,,,,,,,,,,,,,,,,,1,,,,,,,,,,,,,,,,,,,,,,,,"[""9""]",1,[6.152899999998567],0,0,0,15,1,,,,,,,,,,,,,,,,,,,,,,,,,,
,,,,,,,,,,,X V Q F H G B L J M P D K C T S W R N Z,5f4699e88ed08d02e65b2240,22,Mężczyzna,2022-06-11_09h40.07.380,task,2021.1.4,Win32,59.86948452,6299f149e92ead563fba08ef,62a446ab03d90e3f21f4f1f4,,,,,,,,,,,,,,,,,,,,,,,,,,,,,,,,,,,,,,,,,,,,,,,,,,,,,,,,,,,,,,,,,,,,,,,,,,,,0,0,0,0,1,,,,,,,,,,,,,,,,,,,,,
,,,,,,,,,,,,5f4699e88ed08d02e65b2240,22,Mężczyzna,2022-06-11_09h40.07.380,task,2021.1.4,Win32,59.86948452,6299f149e92ead563fba08ef,62a446ab03d90e3f21f4f1f4,,,,,,,,,,,,,6,,,,,,,,,,Task,13,(3x4) - 6,6,,,,,,,,,,,,,,,,,,1,,,,,,,,,,,,,,,,,,,,,,,,"[""6""]",1,[6.140399999998522],0,0,0,12,1,,,,,,,,,,,,,,,,,,,,,,,,,,
,,,,,,,,,,,X V Q F H G B L J M P D K C T S W R N Z,5f4699e88ed08d02e65b2240,22,Mężczyzna,2022-06-11_09h40.07.380,task,2021.1.4,Win32,59.86948452,6299f149e92ead563fba08ef,62a446ab03d90e3f21f4f1f4,,,,,,,,,,,,,,,,,,,,,,,,,,,,,,,,,,,,,,,,,,,,,,,,,,,,,,,,,,,,,,,,,,,,,,,,,,,,1,0,1,0,1,,,,,,,,,,,,,,,,,,,,,
,,,,,,,,,,,,5f4699e88ed08d02e65b2240,22,Mężczyzna,2022-06-11_09h40.07.380,task,2021.1.4,Win32,59.86948452,6299f149e92ead563fba08ef,62a446ab03d90e3f21f4f1f4,,,,,,,,,,,,,5,,,,,,,,,,Task,29,(3x8) - 19 ,5,,,,,,,,,,,,,,,,,,1,,,,,,,,,,,,,,,,,,,,,,,,"[""5""]",1,[5.126399999998512],0,0,0,28,1,,,,,,,,,,,,,,,,,,,,,,,,,,
,,,,,,,,,,,X V Q F H G B L J M P D K C T S W R N Z,5f4699e88ed08d02e65b2240,22,Mężczyzna,2022-06-11_09h40.07.380,task,2021.1.4,Win32,59.86948452,6299f149e92ead563fba08ef,62a446ab03d90e3f21f4f1f4,,,,,,,,,,,,,,,,,,,,,,,,,,,,,,,,,,,,,,,,,,,,,,,,,,,,,,,,,,,,,,,,,,,,,,,,,,,,2,0,2,0,1,,,,,,,,,,,,,,,,,,,,,
,,,,,,,,,,,,5f4699e88ed08d02e65b2240,22,Mężczyzna,2022-06-11_09h40.07.380,task,2021.1.4,Win32,59.86948452,6299f149e92ead563fba08ef,62a446ab03d90e3f21f4f1f4,,,,,,,,,,,,,2,,,,,,,,,,Task,2,(2x2) - 2,2,,,,,,,,,,,,,,,,,,1,,,,,,,,,,,,,,,,,,,,,,,,"[""2""]",1,[3.745200000003024],0,0,0,1,1,,,,,,,,,,,,,,,,,,,,,,,,,,
,,,,,,,,,,,X V Q F H G B L J M P D K C T S W R N Z,5f4699e88ed08d02e65b2240,22,Mężczyzna,2022-06-11_09h40.07.380,task,2021.1.4,Win32,59.86948452,6299f149e92ead563fba08ef,62a446ab03d90e3f21f4f1f4,,,,,,,,,,,,,,,,,,,,,,,,,,,,,,,,,,,,,,,,,,,,,,,,,,,,,,,,,,,,,,,,,,,,,,,,,,,,3,0,3,0,1,,,,,,,,,,,,,,,,,,,,,
,,,,,,,,,,,,5f4699e88ed08d02e65b2240,22,Mężczyzna,2022-06-11_09h40.07.380,task,2021.1.4,Win32,59.86948452,6299f149e92ead563fba08ef,62a446ab03d90e3f21f4f1f4,,,,,,,,,,,,,7,,,,,,,,,,Task,31,(4/2) + 5,7,,,,,,,,,,,,,,,,,,1,,,,,,,,,,,,,,,,,,,,,,,,"[""7""]",1,[5.902500000000032],0,0,0,30,1,,,,,,,,,,,,,,,,,,,,,,,,,,
,,,,,,,,,,,X V Q F H G B L J M P D K C T S W R N Z,5f4699e88ed08d02e65b2240,22,Mężczyzna,2022-06-11_09h40.07.380,task,2021.1.4,Win32,59.86948452,6299f149e92ead563fba08ef,62a446ab03d90e3f21f4f1f4,,,,,,,,,,,,,,,,,,,,,,,,,,,,,,,,,,,,,,,,,,,,,,,,,,,,,,,,,,,,,,,,,,,,,,,,,,,,4,0,4,0,1,,,,,,,,,,,,,,,,,,,,,
,,,,,,,,,,,,5f4699e88ed08d02e65b2240,22,Mężczyzna,2022-06-11_09h40.07.380,task,2021.1.4,Win32,59.86948452,6299f149e92ead563fba08ef,62a446ab03d90e3f21f4f1f4,,,,,,,,,,,,,0,,,,,,,,,,Task,33,(1/1) - 1,0,,,,,,,,,,,,,,,,,,1,,,,,,,,,,,,,,,,,,,,,,,,"[""0""]",1,[1.9722000000028856],0,0,0,32,1,,,,,,,,,,,,,,,,,,,,,,,,,,
,,,,,,,,,,,X V Q F H G B L J M P D K C T S W R N Z,5f4699e88ed08d02e65b2240,22,Mężczyzna,2022-06-11_09h40.07.380,task,2021.1.4,Win32,59.86948452,6299f149e92ead563fba08ef,62a446ab03d90e3f21f4f1f4,,,,,,,,,,,,,,,,,,,,,,,,,,,,,,,,,,,,,,,,,,,,,,,,,,,,,,,,,,,,,,,,,,,,,,,,,,,,5,0,5,0,1,,,,,,,,,,,,,,,,,,,,,
,,,,,,,,,,,,5f4699e88ed08d02e65b2240,22,Mężczyzna,2022-06-11_09h40.07.380,task,2021.1.4,Win32,59.86948452,6299f149e92ead563fba08ef,62a446ab03d90e3f21f4f1f4,,,,,,,,,,,,,,,,,,,,,,,,,,,,,,,,,,,,,,,,,,,,,,,,,,,,,,,,,,,,,,,,,,,,,,,,,,,,,,,,,bsgbzd,"[""b"",""s"",""g"",""b"",""z"",""d""]",0,"[3.0534999999999854,3.4033999999985554,4.203799999997045,5.305399999998599,6.122699999995575,6.4647999999970125,9.124199999995426]",1,BSGBZD,4,0,4,0,1,,,,,,,,,,
,,,,,,,,,,,,5f4699e88ed08d02e65b2240,22,Mężczyzna,2022-06-11_09h40.07.380,task,2021.1.4,Win32,59.86948452,6299f149e92ead563fba08ef,62a446ab03d90e3f21f4f1f4,,,,,,,,,,,,,1,,,,,,,,,,Task,1,(12/6) - 1,1,,,,,,,,,,,,,,,,,,1,,,,,,,,,,,,,,,,,,,,,,,,"[""1""]",1,[3.376299999996945],0,0,0,0,1,,,,,,,,,,,,,,,,,,,,,,,,,,
,,,,,,,,,,,X V Q F H G B L J M P D K C T S W R N Z,5f4699e88ed08d02e65b2240,22,Mężczyzna,2022-06-11_09h40.07.380,task,2021.1.4,Win32,59.86948452,6299f149e92ead563fba08ef,62a446ab03d90e3f21f4f1f4,,,,,,,,,,,,,,,,,,,,,,,,,,,,,,,,,,,,,,,,,,,,,,,,,,,,,,,,,,,,,,,,,,,,,,,,,,,,0,0,0,0,1,,,,,,,,,,,,,,,,,,,,,
,,,,,,,,,,,,5f4699e88ed08d02e65b2240,22,Mężczyzna,2022-06-11_09h40.07.380,task,2021.1.4,Win32,59.86948452,6299f149e92ead563fba08ef,62a446ab03d90e3f21f4f1f4,,,,,,,,,,,,,6,,,,,,,,,,Task,13,(3x4) - 6,6,,,,,,,,,,,,,,,,,,1,,,,,,,,,,,,,,,,,,,,,,,,"[""6""]",1,[3.9954999999999927],0,0,0,12,1,,,,,,,,,,,,,,,,,,,,,,,,,,
,,,,,,,,,,,X V Q F H G B L J M P D K C T S W R N Z,5f4699e88ed08d02e65b2240,22,Mężczyzna,2022-06-11_09h40.07.380,task,2021.1.4,Win32,59.86948452,6299f149e92ead563fba08ef,62a446ab03d90e3f21f4f1f4,,,,,,,,,,,,,,,,,,,,,,,,,,,,,,,,,,,,,,,,,,,,,,,,,,,,,,,,,,,,,,,,,,,,,,,,,,,,1,0,1,0,1,,,,,,,,,,,,,,,,,,,,,
,,,,,,,,,,,,5f4699e88ed08d02e65b2240,22,Mężczyzna,2022-06-11_09h40.07.380,task,2021.1.4,Win32,59.86948452,6299f149e92ead563fba08ef,62a446ab03d90e3f21f4f1f4,,,,,,,,,,,,,7,,,,,,,,,,Task,14,(2x2) + 3,7,,,,,,,,,,,,,,,,,,1,,,,,,,,,,,,,,,,,,,,,,,,"[""7""]",1,[6.368799999997009],0,0,0,13,1,,,,,,,,,,,,,,,,,,,,,,,,,,
,,,,,,,,,,,X V Q F H G B L J M P D K C T S W R N Z,5f4699e88ed08d02e65b2240,22,Mężczyzna,2022-06-11_09h40.07.380,task,2021.1.4,Win32,59.86948452,6299f149e92ead563fba08ef,62a446ab03d90e3f21f4f1f4,,,,,,,,,,,,,,,,,,,,,,,,,,,,,,,,,,,,,,,,,,,,,,,,,,,,,,,,,,,,,,,,,,,,,,,,,,,,2,0,2,0,1,,,,,,,,,,,,,,,,,,,,,
,,,,,,,,,,,,5f4699e88ed08d02e65b2240,22,Mężczyzna,2022-06-11_09h40.07.380,task,2021.1.4,Win32,59.86948452,6299f149e92ead563fba08ef,62a446ab03d90e3f21f4f1f4,,,,,,,,,,,,,9,,,,,,,,,,Task,7,(3x7) - 12,9,,,,,,,,,,,,,,,,,,1,,,,,,,,,,,,,,,,,,,,,,,,"[""9""]",1,[5.685600000001386],0,0,0,6,1,,,,,,,,,,,,,,,,,,,,,,,,,,
,,,,,,,,,,,X V Q F H G B L J M P D K C T S W R N Z,5f4699e88ed08d02e65b2240,22,Mężczyzna,2022-06-11_09h40.07.380,task,2021.1.4,Win32,59.86948452,6299f149e92ead563fba08ef,62a446ab03d90e3f21f4f1f4,,,,,,,,,,,,,,,,,,,,,,,,,,,,,,,,,,,,,,,,,,,,,,,,,,,,,,,,,,,,,,,,,,,,,,,,,,,,3,0,3,0,1,,,,,,,,,,,,,,,,,,,,,
,,,,,,,,,,,,5f4699e88ed08d02e65b2240,22,Mężczyzna,2022-06-11_09h40.07.380,task,2021.1.4,Win32,59.86948452,6299f149e92ead563fba08ef,62a446ab03d90e3f21f4f1f4,,,,,,,,,,,,,7,,,,,,,,,,Task,6,(12/2) + 1,7,,,,,,,,,,,,,,,,,,1,,,,,,,,,,,,,,,,,,,,,,,,"[""7""]",1,[6.222399999998515],0,0,0,5,1,,,,,,,,,,,,,,,,,,,,,,,,,,
,,,,,,,,,,,X V Q F H G B L J M P D K C T S W R N Z,5f4699e88ed08d02e65b2240,22,Mężczyzna,2022-06-11_09h40.07.380,task,2021.1.4,Win32,59.86948452,6299f149e92ead563fba08ef,62a446ab03d90e3f21f4f1f4,,,,,,,,,,,,,,,,,,,,,,,,,,,,,,,,,,,,,,,,,,,,,,,,,,,,,,,,,,,,,,,,,,,,,,,,,,,,4,0,4,0,1,,,,,,,,,,,,,,,,,,,,,
,,,,,,,,,,,,5f4699e88ed08d02e65b2240,22,Mężczyzna,2022-06-11_09h40.07.380,task,2021.1.4,Win32,59.86948452,6299f149e92ead563fba08ef,62a446ab03d90e3f21f4f1f4,,,,,,,,,,,,,0,,,,,,,,,,Task,33,(1/1) - 1,0,,,,,,,,,,,,,,,,,,1,,,,,,,,,,,,,,,,,,,,,,,,"[""0""]",1,[1.5352999999970507],0,0,0,32,1,,,,,,,,,,,,,,,,,,,,,,,,,,
,,,,,,,,,,,X V Q F H G B L J M P D K C T S W R N Z,5f4699e88ed08d02e65b2240,22,Mężczyzna,2022-06-11_09h40.07.380,task,2021.1.4,Win32,59.86948452,6299f149e92ead563fba08ef,62a446ab03d90e3f21f4f1f4,,,,,,,,,,,,,,,,,,,,,,,,,,,,,,,,,,,,,,,,,,,,,,,,,,,,,,,,,,,,,,,,,,,,,,,,,,,,5,0,5,0,1,,,,,,,,,,,,,,,,,,,,,
,,,,,,,,,,,,5f4699e88ed08d02e65b2240,22,Mężczyzna,2022-06-11_09h40.07.380,task,2021.1.4,Win32,59.86948452,6299f149e92ead563fba08ef,62a446ab03d90e3f21f4f1f4,,,,,,,,,,,,,0,,,,,,,,,,Task,17,(2x3) - 6,0,,,,,,,,,,,,,,,,,,1,,,,,,,,,,,,,,,,,,,,,,,,"[""0""]",1,[7.847799999997051],0,0,0,16,1,,,,,,,,,,,,,,,,,,,,,,,,,,
,,,,,,,,,,,X V Q F H G B L J M P D K C T S W R N Z,5f4699e88ed08d02e65b2240,22,Mężczyzna,2022-06-11_09h40.07.380,task,2021.1.4,Win32,59.86948452,6299f149e92ead563fba08ef,62a446ab03d90e3f21f4f1f4,,,,,,,,,,,,,,,,,,,,,,,,,,,,,,,,,,,,,,,,,,,,,,,,,,,,,,,,,,,,,,,,,,,,,,,,,,,,6,0,6,0,1,,,,,,,,,,,,,,,,,,,,,
,,,,,,,,,,,,5f4699e88ed08d02e65b2240,22,Mężczyzna,2022-06-11_09h40.07.380,task,2021.1.4,Win32,59.86948452,6299f149e92ead563fba08ef,62a446ab03d90e3f21f4f1f4,,,,,,,,,,,,,,,,,,,,,,,,,,,,,,,,,,,,,,,,,,,,,,,,,,,,,,,,,,,,,,,,,,,,,,,,,,,,,,,,,dxmtjm,"[""d"",""x"",""m"",""t"",""j"",""m""]",0,"[3.005399999998417,3.653100000001359,4.877999999999929,5.613999999999805,6.358600000001388,6.590700000002926,7.293200000002798]",0,DXWMTJM,5,0,5,0,1,,,,,,,,,,
,,,,,,,,,,,,5f4699e88ed08d02e65b2240,22,Mężczyzna,2022-06-11_09h40.07.380,task,2021.1.4,Win32,59.86948452,6299f149e92ead563fba08ef,62a446ab03d90e3f21f4f1f4,,,,,,,,,,,,,8,,,,,,,,,,Task,15,(3x7) - 13,8,,,,,,,,,,,,,,,,,,1,,,,,,,,,,,,,,,,,,,,,,,,"[""8""]",1,[7.664899999998397],0,0,0,14,1,,,,,,,,,,,,,,,,,,,,,,,,,,
,,,,,,,,,,,X V Q F H G B L J M P D K C T S W R N Z,5f4699e88ed08d02e65b2240,22,Mężczyzna,2022-06-11_09h40.07.380,task,2021.1.4,Win32,59.86948452,6299f149e92ead563fba08ef,62a446ab03d90e3f21f4f1f4,,,,,,,,,,,,,,,,,,,,,,,,,,,,,,,,,,,,,,,,,,,,,,,,,,,,,,,,,,,,,,,,,,,,,,,,,,,,0,0,0,0,1,,,,,,,,,,,,,,,,,,,,,
,,,,,,,,,,,,5f4699e88ed08d02e65b2240,22,Mężczyzna,2022-06-11_09h40.07.380,task,2021.1.4,Win32,59.86948452,6299f149e92ead563fba08ef,62a446ab03d90e3f21f4f1f4,,,,,,,,,,,,,0,,,,,,,,,,Task,25,(10/5) - 2,0,,,,,,,,,,,,,,,,,,1,,,,,,,,,,,,,,,,,,,,,,,,"[""0""]",1,[5.541199999995342],0,0,0,24,1,,,,,,,,,,,,,,,,,,,,,,,,,,
,,,,,,,,,,,X V Q F H G B L J M P D K C T S W R N Z,5f4699e88ed08d02e65b2240,22,Mężczyzna,2022-06-11_09h40.07.380,task,2021.1.4,Win32,59.86948452,6299f149e92ead563fba08ef,62a446ab03d90e3f21f4f1f4,,,,,,,,,,,,,,,,,,,,,,,,,,,,,,,,,,,,,,,,,,,,,,,,,,,,,,,,,,,,,,,,,,,,,,,,,,,,1,0,1,0,1,,,,,,,,,,,,,,,,,,,,,
,,,,,,,,,,,,5f4699e88ed08d02e65b2240,22,Mężczyzna,2022-06-11_09h40.07.380,task,2021.1.4,Win32,59.86948452,6299f149e92ead563fba08ef,62a446ab03d90e3f21f4f1f4,,,,,,,,,,,,,6,,,,,,,,,,Task,5,(2x3) + 0,6,,,,,,,,,,,,,,,,,,1,,,,,,,,,,,,,,,,,,,,,,,,"[""6""]",1,[3.6563000000044212],0,0,0,4,1,,,,,,,,,,,,,,,,,,,,,,,,,,
,,,,,,,,,,,X V Q F H G B L J M P D K C T S W R N Z,5f4699e88ed08d02e65b2240,22,Mężczyzna,2022-06-11_09h40.07.380,task,2021.1.4,Win32,59.86948452,6299f149e92ead563fba08ef,62a446ab03d90e3f21f4f1f4,,,,,,,,,,,,,,,,,,,,,,,,,,,,,,,,,,,,,,,,,,,,,,,,,,,,,,,,,,,,,,,,,,,,,,,,,,,,2,0,2,0,1,,,,,,,,,,,,,,,,,,,,,
,,,,,,,,,,,,5f4699e88ed08d02e65b2240,22,Mężczyzna,2022-06-11_09h40.07.380,task,2021.1.4,Win32,59.86948452,6299f149e92ead563fba08ef,62a446ab03d90e3f21f4f1f4,,,,,,,,,,,,,6,,,,,,,,,,Task,30,(6/3) + 4 ,6,,,,,,,,,,,,,,,,,,1,,,,,,,,,,,,,,,,,,,,,,,,"[""6""]",1,[5.659299999997074],0,0,0,29,1,,,,,,,,,,,,,,,,,,,,,,,,,,
