key_resp_15.keys,key_resp_15.rt,key_resp_13.keys,key_resp_13.corr,key_resp_13.rt,ranodm_loop.thisRepN,ranodm_loop.thisTrialN,ranodm_loop.thisN,ranodm_loop.thisIndex,ranodm_loop.ran,participant,Wiek*,Płeć,date,expName,psychopyVersion,OS,frameRate,study_id,session,key_resp_16.keys,key_resp_16.rt,key_resp_4.keys,key_resp_4.rt,next_letter.thisRepN,next_letter.thisTrialN,next_letter.thisN,next_letter.thisIndex,next_letter.ran,letter,simple_recall,key_resp_5.keys,key_resp_5.rt,simple_recall_corr,simple_recall_corrkeys,next_level.thisRepN,next_level.thisTrialN,next_level.thisN,next_level.thisIndex,next_level.ran,key_resp_2.keys,key_resp_2.rt,digit_answer,key_resp.keys,key_resp.corr,key_resp.rt,RT_list,next_equation.thisRepN,next_equation.thisTrialN,next_equation.thisN,next_equation.thisIndex,next_equation.ran,Task,Trial,Problem,Operation_answer,processing_score,sumRT,meanRT,sumdiff,sd,RT,key_resp_3.keys,key_resp_3.rt,repeat_practice.thisRepN,repeat_practice.thisTrialN,repeat_practice.thisN,repeat_practice.thisIndex,repeat_practice.ran,key_resp_6.keys,key_resp_6.rt,key_resp_11.keys,key_resp_11.corr,operation_correct,repeat_if_wrong_prac.thisRepN,repeat_if_wrong_prac.thisTrialN,repeat_if_wrong_prac.thisN,repeat_if_wrong_prac.thisIndex,repeat_if_wrong_prac.ran,key_resp_11.rt,span_size_prac.thisRepN,span_size_prac.thisTrialN,span_size_prac.thisN,span_size_prac.thisIndex,span_size_prac.ran,complex_recall_practice,key_resp_9.keys,key_resp_9.corr,key_resp_9.rt,complex_prac_corr,span_recall_prac.thisRepN,span_recall_prac.thisTrialN,span_recall_prac.thisN,span_recall_prac.thisIndex,span_recall_prac.ran,key_resp_10.keys,key_resp_10.rt,key_resp_7.keys,key_resp_7.corr,key_resp_7.rt,repeat_if_wrong.thisRepN,repeat_if_wrong.thisTrialN,repeat_if_wrong.thisN,repeat_if_wrong.thisIndex,repeat_if_wrong.ran,span_size.thisRepN,span_size.thisTrialN,span_size.thisN,span_size.thisIndex,span_size.ran,complex_recall,key_resp_8.keys,key_resp_8.corr,key_resp_8.rt,complex_recall_corr,complex_recall_corrkeys,span_recall.thisRepN,span_recall.thisTrialN,span_recall.thisN,span_recall.thisIndex,span_recall.ran,key_resp_12.keys,key_resp_12.rt
space,14.986,"[""period""]",0,[1.4209999999999994],0,0,0,0,1,5f4f5fa9cb9a39000c600ad3,43,Mężczyzna,2022-06-04_08h17.32.635,task,2021.1.4,Win32,60.0240096,628b806c463b948bc644b84f,629af8ecffac1b4a1e7bb01b,,,,,,,,,,,,,,,,,,,,,,,,,,,,,,,,,,,,,,,,,,,,,,,,,,,,,,,,,,,,,,,,,,,,,,,,,,,,,,,,,,,,,,,,,,,,,,,,,,,,,,,
,,"[""comma""]",0,[0.9939999999999998],1,0,1,0,1,5f4f5fa9cb9a39000c600ad3,43,Mężczyzna,2022-06-04_08h17.32.635,task,2021.1.4,Win32,60.0240096,628b806c463b948bc644b84f,629af8ecffac1b4a1e7bb01b,,,,,,,,,,,,,,,,,,,,,,,,,,,,,,,,,,,,,,,,,,,,,,,,,,,,,,,,,,,,,,,,,,,,,,,,,,,,,,,,,,,,,,,,,,,,,,,,,,,,,,,
,,"[""period""]",0,[0.458999999999989],2,0,2,0,1,5f4f5fa9cb9a39000c600ad3,43,Mężczyzna,2022-06-04_08h17.32.635,task,2021.1.4,Win32,60.0240096,628b806c463b948bc644b84f,629af8ecffac1b4a1e7bb01b,,,,,,,,,,,,,,,,,,,,,,,,,,,,,,,,,,,,,,,,,,,,,,,,,,,,,,,,,,,,,,,,,,,,,,,,,,,,,,,,,,,,,,,,,,,,,,,,,,,,,,,
,,"[""comma""]",0,[0.5689999999999884],3,0,3,0,1,5f4f5fa9cb9a39000c600ad3,43,Mężczyzna,2022-06-04_08h17.32.635,task,2021.1.4,Win32,60.0240096,628b806c463b948bc644b84f,629af8ecffac1b4a1e7bb01b,,,,,,,,,,,,,,,,,,,,,,,,,,,,,,,,,,,,,,,,,,,,,,,,,,,,,,,,,,,,,,,,,,,,,,,,,,,,,,,,,,,,,,,,,,,,,,,,,,,,,,,
,,"[""period""]",0,[0.3789999999999907],4,0,4,0,1,5f4f5fa9cb9a39000c600ad3,43,Mężczyzna,2022-06-04_08h17.32.635,task,2021.1.4,Win32,60.0240096,628b806c463b948bc644b84f,629af8ecffac1b4a1e7bb01b,,,,,,,,,,,,,,,,,,,,,,,,,,,,,,,,,,,,,,,,,,,,,,,,,,,,,,,,,,,,,,,,,,,,,,,,,,,,,,,,,,,,,,,,,,,,,,,,,,,,,,,
,,"[""period""]",0,[0.3469999999999942],5,0,5,0,1,5f4f5fa9cb9a39000c600ad3,43,Mężczyzna,2022-06-04_08h17.32.635,task,2021.1.4,Win32,60.0240096,628b806c463b948bc644b84f,629af8ecffac1b4a1e7bb01b,,,,,,,,,,,,,,,,,,,,,,,,,,,,,,,,,,,,,,,,,,,,,,,,,,,,,,,,,,,,,,,,,,,,,,,,,,,,,,,,,,,,,,,,,,,,,,,,,,,,,,,
,,"[""comma""]",0,[0.4480000000000075],6,0,6,0,1,5f4f5fa9cb9a39000c600ad3,43,Mężczyzna,2022-06-04_08h17.32.635,task,2021.1.4,Win32,60.0240096,628b806c463b948bc644b84f,629af8ecffac1b4a1e7bb01b,,,,,,,,,,,,,,,,,,,,,,,,,,,,,,,,,,,,,,,,,,,,,,,,,,,,,,,,,,,,,,,,,,,,,,,,,,,,,,,,,,,,,,,,,,,,,,,,,,,,,,,
,,"[""period""]",0,[0.3199999999999932],7,0,7,0,1,5f4f5fa9cb9a39000c600ad3,43,Mężczyzna,2022-06-04_08h17.32.635,task,2021.1.4,Win32,60.0240096,628b806c463b948bc644b84f,629af8ecffac1b4a1e7bb01b,,,,,,,,,,,,,,,,,,,,,,,,,,,,,,,,,,,,,,,,,,,,,,,,,,,,,,,,,,,,,,,,,,,,,,,,,,,,,,,,,,,,,,,,,,,,,,,,,,,,,,,
,,"[""comma""]",0,[0.2849999999999966],8,0,8,0,1,5f4f5fa9cb9a39000c600ad3,43,Mężczyzna,2022-06-04_08h17.32.635,task,2021.1.4,Win32,60.0240096,628b806c463b948bc644b84f,629af8ecffac1b4a1e7bb01b,,,,,,,,,,,,,,,,,,,,,,,,,,,,,,,,,,,,,,,,,,,,,,,,,,,,,,,,,,,,,,,,,,,,,,,,,,,,,,,,,,,,,,,,,,,,,,,,,,,,,,,
,,"[""period""]",0,[0.045000000000001705],9,0,9,0,1,5f4f5fa9cb9a39000c600ad3,43,Mężczyzna,2022-06-04_08h17.32.635,task,2021.1.4,Win32,60.0240096,628b806c463b948bc644b84f,629af8ecffac1b4a1e7bb01b,,,,,,,,,,,,,,,,,,,,,,,,,,,,,,,,,,,,,,,,,,,,,,,,,,,,,,,,,,,,,,,,,,,,,,,,,,,,,,,,,,,,,,,,,,,,,,,,,,,,,,,
,,"[""comma""]",0,[0.36299999999999955],10,0,10,0,1,5f4f5fa9cb9a39000c600ad3,43,Mężczyzna,2022-06-04_08h17.32.635,task,2021.1.4,Win32,60.0240096,628b806c463b948bc644b84f,629af8ecffac1b4a1e7bb01b,,,,,,,,,,,,,,,,,,,,,,,,,,,,,,,,,,,,,,,,,,,,,,,,,,,,,,,,,,,,,,,,,,,,,,,,,,,,,,,,,,,,,,,,,,,,,,,,,,,,,,,
,,"[""period""]",0,[0.2890000000000015],11,0,11,0,1,5f4f5fa9cb9a39000c600ad3,43,Mężczyzna,2022-06-04_08h17.32.635,task,2021.1.4,Win32,60.0240096,628b806c463b948bc644b84f,629af8ecffac1b4a1e7bb01b,,,,,,,,,,,,,,,,,,,,,,,,,,,,,,,,,,,,,,,,,,,,,,,,,,,,,,,,,,,,,,,,,,,,,,,,,,,,,,,,,,,,,,,,,,,,,,,,,,,,,,,
,,"[""period""]",0,[0.3329999999999984],12,0,12,0,1,5f4f5fa9cb9a39000c600ad3,43,Mężczyzna,2022-06-04_08h17.32.635,task,2021.1.4,Win32,60.0240096,628b806c463b948bc644b84f,629af8ecffac1b4a1e7bb01b,,,,,,,,,,,,,,,,,,,,,,,,,,,,,,,,,,,,,,,,,,,,,,,,,,,,,,,,,,,,,,,,,,,,,,,,,,,,,,,,,,,,,,,,,,,,,,,,,,,,,,,
,,"[""period""]",0,[0.27200000000000557],13,0,13,0,1,5f4f5fa9cb9a39000c600ad3,43,Mężczyzna,2022-06-04_08h17.32.635,task,2021.1.4,Win32,60.0240096,628b806c463b948bc644b84f,629af8ecffac1b4a1e7bb01b,,,,,,,,,,,,,,,,,,,,,,,,,,,,,,,,,,,,,,,,,,,,,,,,,,,,,,,,,,,,,,,,,,,,,,,,,,,,,,,,,,,,,,,,,,,,,,,,,,,,,,,
,,"[""comma""]",0,[0.3359999999999985],14,0,14,0,1,5f4f5fa9cb9a39000c600ad3,43,Mężczyzna,2022-06-04_08h17.32.635,task,2021.1.4,Win32,60.0240096,628b806c463b948bc644b84f,629af8ecffac1b4a1e7bb01b,,,,,,,,,,,,,,,,,,,,,,,,,,,,,,,,,,,,,,,,,,,,,,,,,,,,,,,,,,,,,,,,,,,,,,,,,,,,,,,,,,,,,,,,,,,,,,,,,,,,,,,
,,"[""period""]",0,[0.37299999999999045],15,0,15,0,1,5f4f5fa9cb9a39000c600ad3,43,Mężczyzna,2022-06-04_08h17.32.635,task,2021.1.4,Win32,60.0240096,628b806c463b948bc644b84f,629af8ecffac1b4a1e7bb01b,,,,,,,,,,,,,,,,,,,,,,,,,,,,,,,,,,,,,,,,,,,,,,,,,,,,,,,,,,,,,,,,,,,,,,,,,,,,,,,,,,,,,,,,,,,,,,,,,,,,,,,
,,"[""comma""]",0,[0.36700000000000443],16,0,16,0,1,5f4f5fa9cb9a39000c600ad3,43,Mężczyzna,2022-06-04_08h17.32.635,task,2021.1.4,Win32,60.0240096,628b806c463b948bc644b84f,629af8ecffac1b4a1e7bb01b,,,,,,,,,,,,,,,,,,,,,,,,,,,,,,,,,,,,,,,,,,,,,,,,,,,,,,,,,,,,,,,,,,,,,,,,,,,,,,,,,,,,,,,,,,,,,,,,,,,,,,,
,,"[""comma""]",0,[0.32200000000000273],17,0,17,0,1,5f4f5fa9cb9a39000c600ad3,43,Mężczyzna,2022-06-04_08h17.32.635,task,2021.1.4,Win32,60.0240096,628b806c463b948bc644b84f,629af8ecffac1b4a1e7bb01b,,,,,,,,,,,,,,,,,,,,,,,,,,,,,,,,,,,,,,,,,,,,,,,,,,,,,,,,,,,,,,,,,,,,,,,,,,,,,,,,,,,,,,,,,,,,,,,,,,,,,,,
,,"[""period""]",0,[0.277000000000001],18,0,18,0,1,5f4f5fa9cb9a39000c600ad3,43,Mężczyzna,2022-06-04_08h17.32.635,task,2021.1.4,Win32,60.0240096,628b806c463b948bc644b84f,629af8ecffac1b4a1e7bb01b,,,,,,,,,,,,,,,,,,,,,,,,,,,,,,,,,,,,,,,,,,,,,,,,,,,,,,,,,,,,,,,,,,,,,,,,,,,,,,,,,,,,,,,,,,,,,,,,,,,,,,,
,,"[""comma""]",0,[0.028999999999996362],19,0,19,0,1,5f4f5fa9cb9a39000c600ad3,43,Mężczyzna,2022-06-04_08h17.32.635,task,2021.1.4,Win32,60.0240096,628b806c463b948bc644b84f,629af8ecffac1b4a1e7bb01b,,,,,,,,,,,,,,,,,,,,,,,,,,,,,,,,,,,,,,,,,,,,,,,,,,,,,,,,,,,,,,,,,,,,,,,,,,,,,,,,,,,,,,,,,,,,,,,,,,,,,,,
,,"[""period""]",0,[0.2950000000000017],20,0,20,0,1,5f4f5fa9cb9a39000c600ad3,43,Mężczyzna,2022-06-04_08h17.32.635,task,2021.1.4,Win32,60.0240096,628b806c463b948bc644b84f,629af8ecffac1b4a1e7bb01b,,,,,,,,,,,,,,,,,,,,,,,,,,,,,,,,,,,,,,,,,,,,,,,,,,,,,,,,,,,,,,,,,,,,,,,,,,,,,,,,,,,,,,,,,,,,,,,,,,,,,,,
,,"[""comma""]",0,[0.3190000000000026],21,0,21,0,1,5f4f5fa9cb9a39000c600ad3,43,Mężczyzna,2022-06-04_08h17.32.635,task,2021.1.4,Win32,60.0240096,628b806c463b948bc644b84f,629af8ecffac1b4a1e7bb01b,,,,,,,,,,,,,,,,,,,,,,,,,,,,,,,,,,,,,,,,,,,,,,,,,,,,,,,,,,,,,,,,,,,,,,,,,,,,,,,,,,,,,,,,,,,,,,,,,,,,,,,
,,"[""period""]",0,[0.3050000000000068],22,0,22,0,1,5f4f5fa9cb9a39000c600ad3,43,Mężczyzna,2022-06-04_08h17.32.635,task,2021.1.4,Win32,60.0240096,628b806c463b948bc644b84f,629af8ecffac1b4a1e7bb01b,,,,,,,,,,,,,,,,,,,,,,,,,,,,,,,,,,,,,,,,,,,,,,,,,,,,,,,,,,,,,,,,,,,,,,,,,,,,,,,,,,,,,,,,,,,,,,,,,,,,,,,
,,"[""period""]",0,[0.3410000000000082],23,0,23,0,1,5f4f5fa9cb9a39000c600ad3,43,Mężczyzna,2022-06-04_08h17.32.635,task,2021.1.4,Win32,60.0240096,628b806c463b948bc644b84f,629af8ecffac1b4a1e7bb01b,,,,,,,,,,,,,,,,,,,,,,,,,,,,,,,,,,,,,,,,,,,,,,,,,,,,,,,,,,,,,,,,,,,,,,,,,,,,,,,,,,,,,,,,,,,,,,,,,,,,,,,
,,"[""comma""]",0,[0.2609999999999957],24,0,24,0,1,5f4f5fa9cb9a39000c600ad3,43,Mężczyzna,2022-06-04_08h17.32.635,task,2021.1.4,Win32,60.0240096,628b806c463b948bc644b84f,629af8ecffac1b4a1e7bb01b,,,,,,,,,,,,,,,,,,,,,,,,,,,,,,,,,,,,,,,,,,,,,,,,,,,,,,,,,,,,,,,,,,,,,,,,,,,,,,,,,,,,,,,,,,,,,,,,,,,,,,,
,,"[""comma""]",0,[0.32500000000000284],25,0,25,0,1,5f4f5fa9cb9a39000c600ad3,43,Mężczyzna,2022-06-04_08h17.32.635,task,2021.1.4,Win32,60.0240096,628b806c463b948bc644b84f,629af8ecffac1b4a1e7bb01b,,,,,,,,,,,,,,,,,,,,,,,,,,,,,,,,,,,,,,,,,,,,,,,,,,,,,,,,,,,,,,,,,,,,,,,,,,,,,,,,,,,,,,,,,,,,,,,,,,,,,,,
,,"[""period""]",0,[0.3539999999999992],26,0,26,0,1,5f4f5fa9cb9a39000c600ad3,43,Mężczyzna,2022-06-04_08h17.32.635,task,2021.1.4,Win32,60.0240096,628b806c463b948bc644b84f,629af8ecffac1b4a1e7bb01b,,,,,,,,,,,,,,,,,,,,,,,,,,,,,,,,,,,,,,,,,,,,,,,,,,,,,,,,,,,,,,,,,,,,,,,,,,,,,,,,,,,,,,,,,,,,,,,,,,,,,,,
,,"[""comma""]",0,[0.4680000000000035],27,0,27,0,1,5f4f5fa9cb9a39000c600ad3,43,Mężczyzna,2022-06-04_08h17.32.635,task,2021.1.4,Win32,60.0240096,628b806c463b948bc644b84f,629af8ecffac1b4a1e7bb01b,,,,,,,,,,,,,,,,,,,,,,,,,,,,,,,,,,,,,,,,,,,,,,,,,,,,,,,,,,,,,,,,,,,,,,,,,,,,,,,,,,,,,,,,,,,,,,,,,,,,,,,
,,"[""period""]",0,[0.38299999999999557],28,0,28,0,1,5f4f5fa9cb9a39000c600ad3,43,Mężczyzna,2022-06-04_08h17.32.635,task,2021.1.4,Win32,60.0240096,628b806c463b948bc644b84f,629af8ecffac1b4a1e7bb01b,,,,,,,,,,,,,,,,,,,,,,,,,,,,,,,,,,,,,,,,,,,,,,,,,,,,,,,,,,,,,,,,,,,,,,,,,,,,,,,,,,,,,,,,,,,,,,,,,,,,,,,
,,"[""period""]",0,[0.2540000000000049],29,0,29,0,1,5f4f5fa9cb9a39000c600ad3,43,Mężczyzna,2022-06-04_08h17.32.635,task,2021.1.4,Win32,60.0240096,628b806c463b948bc644b84f,629af8ecffac1b4a1e7bb01b,,,,,,,,,,,,,,,,,,,,,,,,,,,,,,,,,,,,,,,,,,,,,,,,,,,,,,,,,,,,,,,,,,,,,,,,,,,,,,,,,,,,,,,,,,,,,,,,,,,,,,,
,,"[""comma""]",0,[0.32500000000000284],30,0,30,0,1,5f4f5fa9cb9a39000c600ad3,43,Mężczyzna,2022-06-04_08h17.32.635,task,2021.1.4,Win32,60.0240096,628b806c463b948bc644b84f,629af8ecffac1b4a1e7bb01b,,,,,,,,,,,,,,,,,,,,,,,,,,,,,,,,,,,,,,,,,,,,,,,,,,,,,,,,,,,,,,,,,,,,,,,,,,,,,,,,,,,,,,,,,,,,,,,,,,,,,,,
,,"[""period""]",0,[0.3019999999999925],31,0,31,0,1,5f4f5fa9cb9a39000c600ad3,43,Mężczyzna,2022-06-04_08h17.32.635,task,2021.1.4,Win32,60.0240096,628b806c463b948bc644b84f,629af8ecffac1b4a1e7bb01b,,,,,,,,,,,,,,,,,,,,,,,,,,,,,,,,,,,,,,,,,,,,,,,,,,,,,,,,,,,,,,,,,,,,,,,,,,,,,,,,,,,,,,,,,,,,,,,,,,,,,,,
,,"[""comma""]",0,[0.5100000000000051],32,0,32,0,1,5f4f5fa9cb9a39000c600ad3,43,Mężczyzna,2022-06-04_08h17.32.635,task,2021.1.4,Win32,60.0240096,628b806c463b948bc644b84f,629af8ecffac1b4a1e7bb01b,,,,,,,,,,,,,,,,,,,,,,,,,,,,,,,,,,,,,,,,,,,,,,,,,,,,,,,,,,,,,,,,,,,,,,,,,,,,,,,,,,,,,,,,,,,,,,,,,,,,,,,
,,"[""period""]",0,[0.3509999999999991],33,0,33,0,1,5f4f5fa9cb9a39000c600ad3,43,Mężczyzna,2022-06-04_08h17.32.635,task,2021.1.4,Win32,60.0240096,628b806c463b948bc644b84f,629af8ecffac1b4a1e7bb01b,,,,,,,,,,,,,,,,,,,,,,,,,,,,,,,,,,,,,,,,,,,,,,,,,,,,,,,,,,,,,,,,,,,,,,,,,,,,,,,,,,,,,,,,,,,,,,,,,,,,,,,
,,"[""comma""]",0,[0.507000000000005],34,0,34,0,1,5f4f5fa9cb9a39000c600ad3,43,Mężczyzna,2022-06-04_08h17.32.635,task,2021.1.4,Win32,60.0240096,628b806c463b948bc644b84f,629af8ecffac1b4a1e7bb01b,,,,,,,,,,,,,,,,,,,,,,,,,,,,,,,,,,,,,,,,,,,,,,,,,,,,,,,,,,,,,,,,,,,,,,,,,,,,,,,,,,,,,,,,,,,,,,,,,,,,,,,
,,"[""comma""]",0,[0.39799999999999613],35,0,35,0,1,5f4f5fa9cb9a39000c600ad3,43,Mężczyzna,2022-06-04_08h17.32.635,task,2021.1.4,Win32,60.0240096,628b806c463b948bc644b84f,629af8ecffac1b4a1e7bb01b,,,,,,,,,,,,,,,,,,,,,,,,,,,,,,,,,,,,,,,,,,,,,,,,,,,,,,,,,,,,,,,,,,,,,,,,,,,,,,,,,,,,,,,,,,,,,,,,,,,,,,,
,,"[""period""]",0,[0.3380000000000223],36,0,36,0,1,5f4f5fa9cb9a39000c600ad3,43,Mężczyzna,2022-06-04_08h17.32.635,task,2021.1.4,Win32,60.0240096,628b806c463b948bc644b84f,629af8ecffac1b4a1e7bb01b,,,,,,,,,,,,,,,,,,,,,,,,,,,,,,,,,,,,,,,,,,,,,,,,,,,,,,,,,,,,,,,,,,,,,,,,,,,,,,,,,,,,,,,,,,,,,,,,,,,,,,,
,,"[""comma""]",0,[0.40100000000001046],37,0,37,0,1,5f4f5fa9cb9a39000c600ad3,43,Mężczyzna,2022-06-04_08h17.32.635,task,2021.1.4,Win32,60.0240096,628b806c463b948bc644b84f,629af8ecffac1b4a1e7bb01b,,,,,,,,,,,,,,,,,,,,,,,,,,,,,,,,,,,,,,,,,,,,,,,,,,,,,,,,,,,,,,,,,,,,,,,,,,,,,,,,,,,,,,,,,,,,,,,,,,,,,,,
,,"[""period""]",0,[0.39500000000001023],38,0,38,0,1,5f4f5fa9cb9a39000c600ad3,43,Mężczyzna,2022-06-04_08h17.32.635,task,2021.1.4,Win32,60.0240096,628b806c463b948bc644b84f,629af8ecffac1b4a1e7bb01b,,,,,,,,,,,,,,,,,,,,,,,,,,,,,,,,,,,,,,,,,,,,,,,,,,,,,,,,,,,,,,,,,,,,,,,,,,,,,,,,,,,,,,,,,,,,,,,,,,,,,,,
,,"[""period""]",0,[0.46399999999999864],39,0,39,0,1,5f4f5fa9cb9a39000c600ad3,43,Mężczyzna,2022-06-04_08h17.32.635,task,2021.1.4,Win32,60.0240096,628b806c463b948bc644b84f,629af8ecffac1b4a1e7bb01b,,,,,,,,,,,,,,,,,,,,,,,,,,,,,,,,,,,,,,,,,,,,,,,,,,,,,,,,,,,,,,,,,,,,,,,,,,,,,,,,,,,,,,,,,,,,,,,,,,,,,,,
,,"[""comma""]",0,[0.4199999999999875],40,0,40,0,1,5f4f5fa9cb9a39000c600ad3,43,Mężczyzna,2022-06-04_08h17.32.635,task,2021.1.4,Win32,60.0240096,628b806c463b948bc644b84f,629af8ecffac1b4a1e7bb01b,,,,,,,,,,,,,,,,,,,,,,,,,,,,,,,,,,,,,,,,,,,,,,,,,,,,,,,,,,,,,,,,,,,,,,,,,,,,,,,,,,,,,,,,,,,,,,,,,,,,,,,
,,"[""comma""]",0,[0.5689999999999884],41,0,41,0,1,5f4f5fa9cb9a39000c600ad3,43,Mężczyzna,2022-06-04_08h17.32.635,task,2021.1.4,Win32,60.0240096,628b806c463b948bc644b84f,629af8ecffac1b4a1e7bb01b,,,,,,,,,,,,,,,,,,,,,,,,,,,,,,,,,,,,,,,,,,,,,,,,,,,,,,,,,,,,,,,,,,,,,,,,,,,,,,,,,,,,,,,,,,,,,,,,,,,,,,,
,,"[""period""]",0,[0.5190000000000055],42,0,42,0,1,5f4f5fa9cb9a39000c600ad3,43,Mężczyzna,2022-06-04_08h17.32.635,task,2021.1.4,Win32,60.0240096,628b806c463b948bc644b84f,629af8ecffac1b4a1e7bb01b,,,,,,,,,,,,,,,,,,,,,,,,,,,,,,,,,,,,,,,,,,,,,,,,,,,,,,,,,,,,,,,,,,,,,,,,,,,,,,,,,,,,,,,,,,,,,,,,,,,,,,,
,,"[""period""]",0,[0.3930000000000007],43,0,43,0,1,5f4f5fa9cb9a39000c600ad3,43,Mężczyzna,2022-06-04_08h17.32.635,task,2021.1.4,Win32,60.0240096,628b806c463b948bc644b84f,629af8ecffac1b4a1e7bb01b,,,,,,,,,,,,,,,,,,,,,,,,,,,,,,,,,,,,,,,,,,,,,,,,,,,,,,,,,,,,,,,,,,,,,,,,,,,,,,,,,,,,,,,,,,,,,,,,,,,,,,,
,,"[""period""]",0,[0.4259999999999877],44,0,44,0,1,5f4f5fa9cb9a39000c600ad3,43,Mężczyzna,2022-06-04_08h17.32.635,task,2021.1.4,Win32,60.0240096,628b806c463b948bc644b84f,629af8ecffac1b4a1e7bb01b,,,,,,,,,,,,,,,,,,,,,,,,,,,,,,,,,,,,,,,,,,,,,,,,,,,,,,,,,,,,,,,,,,,,,,,,,,,,,,,,,,,,,,,,,,,,,,,,,,,,,,,
,,"[""comma""]",0,[0.257000000000005],45,0,45,0,1,5f4f5fa9cb9a39000c600ad3,43,Mężczyzna,2022-06-04_08h17.32.635,task,2021.1.4,Win32,60.0240096,628b806c463b948bc644b84f,629af8ecffac1b4a1e7bb01b,,,,,,,,,,,,,,,,,,,,,,,,,,,,,,,,,,,,,,,,,,,,,,,,,,,,,,,,,,,,,,,,,,,,,,,,,,,,,,,,,,,,,,,,,,,,,,,,,,,,,,,
,,"[""comma""]",0,[0.35900000000000887],46,0,46,0,1,5f4f5fa9cb9a39000c600ad3,43,Mężczyzna,2022-06-04_08h17.32.635,task,2021.1.4,Win32,60.0240096,628b806c463b948bc644b84f,629af8ecffac1b4a1e7bb01b,,,,,,,,,,,,,,,,,,,,,,,,,,,,,,,,,,,,,,,,,,,,,,,,,,,,,,,,,,,,,,,,,,,,,,,,,,,,,,,,,,,,,,,,,,,,,,,,,,,,,,,
,,"[""period""]",0,[0.3959999999999866],47,0,47,0,1,5f4f5fa9cb9a39000c600ad3,43,Mężczyzna,2022-06-04_08h17.32.635,task,2021.1.4,Win32,60.0240096,628b806c463b948bc644b84f,629af8ecffac1b4a1e7bb01b,,,,,,,,,,,,,,,,,,,,,,,,,,,,,,,,,,,,,,,,,,,,,,,,,,,,,,,,,,,,,,,,,,,,,,,,,,,,,,,,,,,,,,,,,,,,,,,,,,,,,,,
,,"[""comma""]",0,[0.4300000000000068],48,0,48,0,1,5f4f5fa9cb9a39000c600ad3,43,Mężczyzna,2022-06-04_08h17.32.635,task,2021.1.4,Win32,60.0240096,628b806c463b948bc644b84f,629af8ecffac1b4a1e7bb01b,,,,,,,,,,,,,,,,,,,,,,,,,,,,,,,,,,,,,,,,,,,,,,,,,,,,,,,,,,,,,,,,,,,,,,,,,,,,,,,,,,,,,,,,,,,,,,,,,,,,,,,
,,"[""comma""]",0,[1.0180000000000007],49,0,49,0,1,5f4f5fa9cb9a39000c600ad3,43,Mężczyzna,2022-06-04_08h17.32.635,task,2021.1.4,Win32,60.0240096,628b806c463b948bc644b84f,629af8ecffac1b4a1e7bb01b,,,,,,,,,,,,,,,,,,,,,,,,,,,,,,,,,,,,,,,,,,,,,,,,,,,,,,,,,,,,,,,,,,,,,,,,,,,,,,,,,,,,,,,,,,,,,,,,,,,,,,,
,,"[""comma""]",0,[0.8199999999999932],50,0,50,0,1,5f4f5fa9cb9a39000c600ad3,43,Mężczyzna,2022-06-04_08h17.32.635,task,2021.1.4,Win32,60.0240096,628b806c463b948bc644b84f,629af8ecffac1b4a1e7bb01b,,,,,,,,,,,,,,,,,,,,,,,,,,,,,,,,,,,,,,,,,,,,,,,,,,,,,,,,,,,,,,,,,,,,,,,,,,,,,,,,,,,,,,,,,,,,,,,,,,,,,,,
,,"[""period""]",0,[0.563999999999993],51,0,51,0,1,5f4f5fa9cb9a39000c600ad3,43,Mężczyzna,2022-06-04_08h17.32.635,task,2021.1.4,Win32,60.0240096,628b806c463b948bc644b84f,629af8ecffac1b4a1e7bb01b,,,,,,,,,,,,,,,,,,,,,,,,,,,,,,,,,,,,,,,,,,,,,,,,,,,,,,,,,,,,,,,,,,,,,,,,,,,,,,,,,,,,,,,,,,,,,,,,,,,,,,,
,,"[""comma""]",0,[0.36299999999999955],52,0,52,0,1,5f4f5fa9cb9a39000c600ad3,43,Mężczyzna,2022-06-04_08h17.32.635,task,2021.1.4,Win32,60.0240096,628b806c463b948bc644b84f,629af8ecffac1b4a1e7bb01b,,,,,,,,,,,,,,,,,,,,,,,,,,,,,,,,,,,,,,,,,,,,,,,,,,,,,,,,,,,,,,,,,,,,,,,,,,,,,,,,,,,,,,,,,,,,,,,,,,,,,,,
,,"[""comma""]",0,[0.5859999999999843],53,0,53,0,1,5f4f5fa9cb9a39000c600ad3,43,Mężczyzna,2022-06-04_08h17.32.635,task,2021.1.4,Win32,60.0240096,628b806c463b948bc644b84f,629af8ecffac1b4a1e7bb01b,,,,,,,,,,,,,,,,,,,,,,,,,,,,,,,,,,,,,,,,,,,,,,,,,,,,,,,,,,,,,,,,,,,,,,,,,,,,,,,,,,,,,,,,,,,,,,,,,,,,,,,
,,"[""comma""]",0,[0.5019999999999811],54,0,54,0,1,5f4f5fa9cb9a39000c600ad3,43,Mężczyzna,2022-06-04_08h17.32.635,task,2021.1.4,Win32,60.0240096,628b806c463b948bc644b84f,629af8ecffac1b4a1e7bb01b,,,,,,,,,,,,,,,,,,,,,,,,,,,,,,,,,,,,,,,,,,,,,,,,,,,,,,,,,,,,,,,,,,,,,,,,,,,,,,,,,,,,,,,,,,,,,,,,,,,,,,,
,,"[""comma""]",0,[0.5450000000000159],55,0,55,0,1,5f4f5fa9cb9a39000c600ad3,43,Mężczyzna,2022-06-04_08h17.32.635,task,2021.1.4,Win32,60.0240096,628b806c463b948bc644b84f,629af8ecffac1b4a1e7bb01b,,,,,,,,,,,,,,,,,,,,,,,,,,,,,,,,,,,,,,,,,,,,,,,,,,,,,,,,,,,,,,,,,,,,,,,,,,,,,,,,,,,,,,,,,,,,,,,,,,,,,,,
,,"[""period""]",0,[0.3689999999999998],56,0,56,0,1,5f4f5fa9cb9a39000c600ad3,43,Mężczyzna,2022-06-04_08h17.32.635,task,2021.1.4,Win32,60.0240096,628b806c463b948bc644b84f,629af8ecffac1b4a1e7bb01b,,,,,,,,,,,,,,,,,,,,,,,,,,,,,,,,,,,,,,,,,,,,,,,,,,,,,,,,,,,,,,,,,,,,,,,,,,,,,,,,,,,,,,,,,,,,,,,,,,,,,,,
,,"[""period""]",0,[0.33899999999999864],57,0,57,0,1,5f4f5fa9cb9a39000c600ad3,43,Mężczyzna,2022-06-04_08h17.32.635,task,2021.1.4,Win32,60.0240096,628b806c463b948bc644b84f,629af8ecffac1b4a1e7bb01b,,,,,,,,,,,,,,,,,,,,,,,,,,,,,,,,,,,,,,,,,,,,,,,,,,,,,,,,,,,,,,,,,,,,,,,,,,,,,,,,,,,,,,,,,,,,,,,,,,,,,,,
,,"[""period""]",0,[0.3100000000000023],58,0,58,0,1,5f4f5fa9cb9a39000c600ad3,43,Mężczyzna,2022-06-04_08h17.32.635,task,2021.1.4,Win32,60.0240096,628b806c463b948bc644b84f,629af8ecffac1b4a1e7bb01b,,,,,,,,,,,,,,,,,,,,,,,,,,,,,,,,,,,,,,,,,,,,,,,,,,,,,,,,,,,,,,,,,,,,,,,,,,,,,,,,,,,,,,,,,,,,,,,,,,,,,,,
,,"[""comma""]",0,[0.28300000000001546],59,0,59,0,1,5f4f5fa9cb9a39000c600ad3,43,Mężczyzna,2022-06-04_08h17.32.635,task,2021.1.4,Win32,60.0240096,628b806c463b948bc644b84f,629af8ecffac1b4a1e7bb01b,,,,,,,,,,,,,,,,,,,,,,,,,,,,,,,,,,,,,,,,,,,,,,,,,,,,,,,,,,,,,,,,,,,,,,,,,,,,,,,,,,,,,,,,,,,,,,,,,,,,,,,
,,"[""period""]",0,[0.3369999999999891],60,0,60,0,1,5f4f5fa9cb9a39000c600ad3,43,Mężczyzna,2022-06-04_08h17.32.635,task,2021.1.4,Win32,60.0240096,628b806c463b948bc644b84f,629af8ecffac1b4a1e7bb01b,,,,,,,,,,,,,,,,,,,,,,,,,,,,,,,,,,,,,,,,,,,,,,,,,,,,,,,,,,,,,,,,,,,,,,,,,,,,,,,,,,,,,,,,,,,,,,,,,,,,,,,
,,"[""period""]",0,[0.3410000000000082],61,0,61,0,1,5f4f5fa9cb9a39000c600ad3,43,Mężczyzna,2022-06-04_08h17.32.635,task,2021.1.4,Win32,60.0240096,628b806c463b948bc644b84f,629af8ecffac1b4a1e7bb01b,,,,,,,,,,,,,,,,,,,,,,,,,,,,,,,,,,,,,,,,,,,,,,,,,,,,,,,,,,,,,,,,,,,,,,,,,,,,,,,,,,,,,,,,,,,,,,,,,,,,,,,
,,"[""comma""]",0,[0.3120000000000118],62,0,62,0,1,5f4f5fa9cb9a39000c600ad3,43,Mężczyzna,2022-06-04_08h17.32.635,task,2021.1.4,Win32,60.0240096,628b806c463b948bc644b84f,629af8ecffac1b4a1e7bb01b,,,,,,,,,,,,,,,,,,,,,,,,,,,,,,,,,,,,,,,,,,,,,,,,,,,,,,,,,,,,,,,,,,,,,,,,,,,,,,,,,,,,,,,,,,,,,,,,,,,,,,,
,,"[""period"",""comma""]",0,"[0.3369999999999891,0.37000000000000455]",63,0,63,0,1,5f4f5fa9cb9a39000c600ad3,43,Mężczyzna,2022-06-04_08h17.32.635,task,2021.1.4,Win32,60.0240096,628b806c463b948bc644b84f,629af8ecffac1b4a1e7bb01b,,,,,,,,,,,,,,,,,,,,,,,,,,,,,,,,,,,,,,,,,,,,,,,,,,,,,,,,,,,,,,,,,,,,,,,,,,,,,,,,,,,,,,,,,,,,,,,,,,,,,,,
,,"[""comma"",""period""]",0,"[0.37700000000000955,0.37700000000000955]",64,0,64,0,1,5f4f5fa9cb9a39000c600ad3,43,Mężczyzna,2022-06-04_08h17.32.635,task,2021.1.4,Win32,60.0240096,628b806c463b948bc644b84f,629af8ecffac1b4a1e7bb01b,,,,,,,,,,,,,,,,,,,,,,,,,,,,,,,,,,,,,,,,,,,,,,,,,,,,,,,,,,,,,,,,,,,,,,,,,,,,,,,,,,,,,,,,,,,,,,,,,,,,,,,
,,"[""comma"",""period""]",0,"[0.38800000000000523,0.3889999999999816]",65,0,65,0,1,5f4f5fa9cb9a39000c600ad3,43,Mężczyzna,2022-06-04_08h17.32.635,task,2021.1.4,Win32,60.0240096,628b806c463b948bc644b84f,629af8ecffac1b4a1e7bb01b,,,,,,,,,,,,,,,,,,,,,,,,,,,,,,,,,,,,,,,,,,,,,,,,,,,,,,,,,,,,,,,,,,,,,,,,,,,,,,,,,,,,,,,,,,,,,,,,,,,,,,,
,,"[""comma"",""period""]",0,"[0.33799999999999386,0.33899999999999864]",66,0,66,0,1,5f4f5fa9cb9a39000c600ad3,43,Mężczyzna,2022-06-04_08h17.32.635,task,2021.1.4,Win32,60.0240096,628b806c463b948bc644b84f,629af8ecffac1b4a1e7bb01b,,,,,,,,,,,,,,,,,,,,,,,,,,,,,,,,,,,,,,,,,,,,,,,,,,,,,,,,,,,,,,,,,,,,,,,,,,,,,,,,,,,,,,,,,,,,,,,,,,,,,,,
,,"[""period""]",0,[0.35600000000002296],67,0,67,0,1,5f4f5fa9cb9a39000c600ad3,43,Mężczyzna,2022-06-04_08h17.32.635,task,2021.1.4,Win32,60.0240096,628b806c463b948bc644b84f,629af8ecffac1b4a1e7bb01b,,,,,,,,,,,,,,,,,,,,,,,,,,,,,,,,,,,,,,,,,,,,,,,,,,,,,,,,,,,,,,,,,,,,,,,,,,,,,,,,,,,,,,,,,,,,,,,,,,,,,,,
,,"[""comma""]",0,[0.49099999999998545],68,0,68,0,1,5f4f5fa9cb9a39000c600ad3,43,Mężczyzna,2022-06-04_08h17.32.635,task,2021.1.4,Win32,60.0240096,628b806c463b948bc644b84f,629af8ecffac1b4a1e7bb01b,,,,,,,,,,,,,,,,,,,,,,,,,,,,,,,,,,,,,,,,,,,,,,,,,,,,,,,,,,,,,,,,,,,,,,,,,,,,,,,,,,,,,,,,,,,,,,,,,,,,,,,
,,"[""comma""]",0,[0.48799999999999955],69,0,69,0,1,5f4f5fa9cb9a39000c600ad3,43,Mężczyzna,2022-06-04_08h17.32.635,task,2021.1.4,Win32,60.0240096,628b806c463b948bc644b84f,629af8ecffac1b4a1e7bb01b,,,,,,,,,,,,,,,,,,,,,,,,,,,,,,,,,,,,,,,,,,,,,,,,,,,,,,,,,,,,,,,,,,,,,,,,,,,,,,,,,,,,,,,,,,,,,,,,,,,,,,,
,,"[""period""]",0,[0.3650000000000091],70,0,70,0,1,5f4f5fa9cb9a39000c600ad3,43,Mężczyzna,2022-06-04_08h17.32.635,task,2021.1.4,Win32,60.0240096,628b806c463b948bc644b84f,629af8ecffac1b4a1e7bb01b,,,,,,,,,,,,,,,,,,,,,,,,,,,,,,,,,,,,,,,,,,,,,,,,,,,,,,,,,,,,,,,,,,,,,,,,,,,,,,,,,,,,,,,,,,,,,,,,,,,,,,,
,,"[""comma""]",0,[0.04599999999999227],71,0,71,0,1,5f4f5fa9cb9a39000c600ad3,43,Mężczyzna,2022-06-04_08h17.32.635,task,2021.1.4,Win32,60.0240096,628b806c463b948bc644b84f,629af8ecffac1b4a1e7bb01b,,,,,,,,,,,,,,,,,,,,,,,,,,,,,,,,,,,,,,,,,,,,,,,,,,,,,,,,,,,,,,,,,,,,,,,,,,,,,,,,,,,,,,,,,,,,,,,,,,,,,,,
,,"[""period""]",0,[0.3650000000000091],72,0,72,0,1,5f4f5fa9cb9a39000c600ad3,43,Mężczyzna,2022-06-04_08h17.32.635,task,2021.1.4,Win32,60.0240096,628b806c463b948bc644b84f,629af8ecffac1b4a1e7bb01b,,,,,,,,,,,,,,,,,,,,,,,,,,,,,,,,,,,,,,,,,,,,,,,,,,,,,,,,,,,,,,,,,,,,,,,,,,,,,,,,,,,,,,,,,,,,,,,,,,,,,,,
,,"[""comma""]",0,[0.36299999999999955],73,0,73,0,1,5f4f5fa9cb9a39000c600ad3,43,Mężczyzna,2022-06-04_08h17.32.635,task,2021.1.4,Win32,60.0240096,628b806c463b948bc644b84f,629af8ecffac1b4a1e7bb01b,,,,,,,,,,,,,,,,,,,,,,,,,,,,,,,,,,,,,,,,,,,,,,,,,,,,,,,,,,,,,,,,,,,,,,,,,,,,,,,,,,,,,,,,,,,,,,,,,,,,,,,
,,"[""comma""]",0,[0.5859999999999843],74,0,74,0,1,5f4f5fa9cb9a39000c600ad3,43,Mężczyzna,2022-06-04_08h17.32.635,task,2021.1.4,Win32,60.0240096,628b806c463b948bc644b84f,629af8ecffac1b4a1e7bb01b,,,,,,,,,,,,,,,,,,,,,,,,,,,,,,,,,,,,,,,,,,,,,,,,,,,,,,,,,,,,,,,,,,,,,,,,,,,,,,,,,,,,,,,,,,,,,,,,,,,,,,,
,,"[""period""]",0,[0.5020000000000095],75,0,75,0,1,5f4f5fa9cb9a39000c600ad3,43,Mężczyzna,2022-06-04_08h17.32.635,task,2021.1.4,Win32,60.0240096,628b806c463b948bc644b84f,629af8ecffac1b4a1e7bb01b,,,,,,,,,,,,,,,,,,,,,,,,,,,,,,,,,,,,,,,,,,,,,,,,,,,,,,,,,,,,,,,,,,,,,,,,,,,,,,,,,,,,,,,,,,,,,,,,,,,,,,,
,,"[""comma""]",0,[0.3269999999999982],76,0,76,0,1,5f4f5fa9cb9a39000c600ad3,43,Mężczyzna,2022-06-04_08h17.32.635,task,2021.1.4,Win32,60.0240096,628b806c463b948bc644b84f,629af8ecffac1b4a1e7bb01b,,,,,,,,,,,,,,,,,,,,,,,,,,,,,,,,,,,,,,,,,,,,,,,,,,,,,,,,,,,,,,,,,,,,,,,,,,,,,,,,,,,,,,,,,,,,,,,,,,,,,,,
,,"[""comma""]",0,[0.5620000000000118],77,0,77,0,1,5f4f5fa9cb9a39000c600ad3,43,Mężczyzna,2022-06-04_08h17.32.635,task,2021.1.4,Win32,60.0240096,628b806c463b948bc644b84f,629af8ecffac1b4a1e7bb01b,,,,,,,,,,,,,,,,,,,,,,,,,,,,,,,,,,,,,,,,,,,,,,,,,,,,,,,,,,,,,,,,,,,,,,,,,,,,,,,,,,,,,,,,,,,,,,,,,,,,,,,
,,"[""comma""]",0,[0.41800000000000637],78,0,78,0,1,5f4f5fa9cb9a39000c600ad3,43,Mężczyzna,2022-06-04_08h17.32.635,task,2021.1.4,Win32,60.0240096,628b806c463b948bc644b84f,629af8ecffac1b4a1e7bb01b,,,,,,,,,,,,,,,,,,,,,,,,,,,,,,,,,,,,,,,,,,,,,,,,,,,,,,,,,,,,,,,,,,,,,,,,,,,,,,,,,,,,,,,,,,,,,,,,,,,,,,,
,,"[""period""]",0,[0.33899999999999864],79,0,79,0,1,5f4f5fa9cb9a39000c600ad3,43,Mężczyzna,2022-06-04_08h17.32.635,task,2021.1.4,Win32,60.0240096,628b806c463b948bc644b84f,629af8ecffac1b4a1e7bb01b,,,,,,,,,,,,,,,,,,,,,,,,,,,,,,,,,,,,,,,,,,,,,,,,,,,,,,,,,,,,,,,,,,,,,,,,,,,,,,,,,,,,,,,,,,,,,,,,,,,,,,,
,,"[""comma""]",0,[0.41800000000000637],80,0,80,0,1,5f4f5fa9cb9a39000c600ad3,43,Mężczyzna,2022-06-04_08h17.32.635,task,2021.1.4,Win32,60.0240096,628b806c463b948bc644b84f,629af8ecffac1b4a1e7bb01b,,,,,,,,,,,,,,,,,,,,,,,,,,,,,,,,,,,,,,,,,,,,,,,,,,,,,,,,,,,,,,,,,,,,,,,,,,,,,,,,,,,,,,,,,,,,,,,,,,,,,,,
,,"[""comma""]",0,[0.4200000000000159],81,0,81,0,1,5f4f5fa9cb9a39000c600ad3,43,Mężczyzna,2022-06-04_08h17.32.635,task,2021.1.4,Win32,60.0240096,628b806c463b948bc644b84f,629af8ecffac1b4a1e7bb01b,,,,,,,,,,,,,,,,,,,,,,,,,,,,,,,,,,,,,,,,,,,,,,,,,,,,,,,,,,,,,,,,,,,,,,,,,,,,,,,,,,,,,,,,,,,,,,,,,,,,,,,
,,"[""comma""]",0,[0.3640000000000043],82,0,82,0,1,5f4f5fa9cb9a39000c600ad3,43,Mężczyzna,2022-06-04_08h17.32.635,task,2021.1.4,Win32,60.0240096,628b806c463b948bc644b84f,629af8ecffac1b4a1e7bb01b,,,,,,,,,,,,,,,,,,,,,,,,,,,,,,,,,,,,,,,,,,,,,,,,,,,,,,,,,,,,,,,,,,,,,,,,,,,,,,,,,,,,,,,,,,,,,,,,,,,,,,,
,,"[""comma""]",0,[0.34200000000001296],83,0,83,0,1,5f4f5fa9cb9a39000c600ad3,43,Mężczyzna,2022-06-04_08h17.32.635,task,2021.1.4,Win32,60.0240096,628b806c463b948bc644b84f,629af8ecffac1b4a1e7bb01b,,,,,,,,,,,,,,,,,,,,,,,,,,,,,,,,,,,,,,,,,,,,,,,,,,,,,,,,,,,,,,,,,,,,,,,,,,,,,,,,,,,,,,,,,,,,,,,,,,,,,,,
,,"[""period""]",0,[0.28300000000001546],84,0,84,0,1,5f4f5fa9cb9a39000c600ad3,43,Mężczyzna,2022-06-04_08h17.32.635,task,2021.1.4,Win32,60.0240096,628b806c463b948bc644b84f,629af8ecffac1b4a1e7bb01b,,,,,,,,,,,,,,,,,,,,,,,,,,,,,,,,,,,,,,,,,,,,,,,,,,,,,,,,,,,,,,,,,,,,,,,,,,,,,,,,,,,,,,,,,,,,,,,,,,,,,,,
,,"[""comma""]",0,[0.34600000000000364],85,0,85,0,1,5f4f5fa9cb9a39000c600ad3,43,Mężczyzna,2022-06-04_08h17.32.635,task,2021.1.4,Win32,60.0240096,628b806c463b948bc644b84f,629af8ecffac1b4a1e7bb01b,,,,,,,,,,,,,,,,,,,,,,,,,,,,,,,,,,,,,,,,,,,,,,,,,,,,,,,,,,,,,,,,,,,,,,,,,,,,,,,,,,,,,,,,,,,,,,,,,,,,,,,
,,"[""period""]",0,[0.38700000000000045],86,0,86,0,1,5f4f5fa9cb9a39000c600ad3,43,Mężczyzna,2022-06-04_08h17.32.635,task,2021.1.4,Win32,60.0240096,628b806c463b948bc644b84f,629af8ecffac1b4a1e7bb01b,,,,,,,,,,,,,,,,,,,,,,,,,,,,,,,,,,,,,,,,,,,,,,,,,,,,,,,,,,,,,,,,,,,,,,,,,,,,,,,,,,,,,,,,,,,,,,,,,,,,,,,
,,"[""period""]",0,[0.34199999999998454],87,0,87,0,1,5f4f5fa9cb9a39000c600ad3,43,Mężczyzna,2022-06-04_08h17.32.635,task,2021.1.4,Win32,60.0240096,628b806c463b948bc644b84f,629af8ecffac1b4a1e7bb01b,,,,,,,,,,,,,,,,,,,,,,,,,,,,,,,,,,,,,,,,,,,,,,,,,,,,,,,,,,,,,,,,,,,,,,,,,,,,,,,,,,,,,,,,,,,,,,,,,,,,,,,
,,"[""comma""]",0,[0.35200000000000387],88,0,88,0,1,5f4f5fa9cb9a39000c600ad3,43,Mężczyzna,2022-06-04_08h17.32.635,task,2021.1.4,Win32,60.0240096,628b806c463b948bc644b84f,629af8ecffac1b4a1e7bb01b,,,,,,,,,,,,,,,,,,,,,,,,,,,,,,,,,,,,,,,,,,,,,,,,,,,,,,,,,,,,,,,,,,,,,,,,,,,,,,,,,,,,,,,,,,,,,,,,,,,,,,,
,,"[""period""]",0,[0.32499999999998863],89,0,89,0,1,5f4f5fa9cb9a39000c600ad3,43,Mężczyzna,2022-06-04_08h17.32.635,task,2021.1.4,Win32,60.0240096,628b806c463b948bc644b84f,629af8ecffac1b4a1e7bb01b,,,,,,,,,,,,,,,,,,,,,,,,,,,,,,,,,,,,,,,,,,,,,,,,,,,,,,,,,,,,,,,,,,,,,,,,,,,,,,,,,,,,,,,,,,,,,,,,,,,,,,,
,,"[""comma""]",0,[0.3370000000000175],90,0,90,0,1,5f4f5fa9cb9a39000c600ad3,43,Mężczyzna,2022-06-04_08h17.32.635,task,2021.1.4,Win32,60.0240096,628b806c463b948bc644b84f,629af8ecffac1b4a1e7bb01b,,,,,,,,,,,,,,,,,,,,,,,,,,,,,,,,,,,,,,,,,,,,,,,,,,,,,,,,,,,,,,,,,,,,,,,,,,,,,,,,,,,,,,,,,,,,,,,,,,,,,,,
,,"[""period""]",0,[0.31100000000000705],91,0,91,0,1,5f4f5fa9cb9a39000c600ad3,43,Mężczyzna,2022-06-04_08h17.32.635,task,2021.1.4,Win32,60.0240096,628b806c463b948bc644b84f,629af8ecffac1b4a1e7bb01b,,,,,,,,,,,,,,,,,,,,,,,,,,,,,,,,,,,,,,,,,,,,,,,,,,,,,,,,,,,,,,,,,,,,,,,,,,,,,,,,,,,,,,,,,,,,,,,,,,,,,,,
,,"[""comma""]",0,[0.3709999999999809],92,0,92,0,1,5f4f5fa9cb9a39000c600ad3,43,Mężczyzna,2022-06-04_08h17.32.635,task,2021.1.4,Win32,60.0240096,628b806c463b948bc644b84f,629af8ecffac1b4a1e7bb01b,,,,,,,,,,,,,,,,,,,,,,,,,,,,,,,,,,,,,,,,,,,,,,,,,,,,,,,,,,,,,,,,,,,,,,,,,,,,,,,,,,,,,,,,,,,,,,,,,,,,,,,
,,"[""comma""]",0,[0.396000000000015],93,0,93,0,1,5f4f5fa9cb9a39000c600ad3,43,Mężczyzna,2022-06-04_08h17.32.635,task,2021.1.4,Win32,60.0240096,628b806c463b948bc644b84f,629af8ecffac1b4a1e7bb01b,,,,,,,,,,,,,,,,,,,,,,,,,,,,,,,,,,,,,,,,,,,,,,,,,,,,,,,,,,,,,,,,,,,,,,,,,,,,,,,,,,,,,,,,,,,,,,,,,,,,,,,
,,"[""period""]",0,[0.40200000000001523],94,0,94,0,1,5f4f5fa9cb9a39000c600ad3,43,Mężczyzna,2022-06-04_08h17.32.635,task,2021.1.4,Win32,60.0240096,628b806c463b948bc644b84f,629af8ecffac1b4a1e7bb01b,,,,,,,,,,,,,,,,,,,,,,,,,,,,,,,,,,,,,,,,,,,,,,,,,,,,,,,,,,,,,,,,,,,,,,,,,,,,,,,,,,,,,,,,,,,,,,,,,,,,,,,
,,"[""period""]",0,[0.4749999999999943],95,0,95,0,1,5f4f5fa9cb9a39000c600ad3,43,Mężczyzna,2022-06-04_08h17.32.635,task,2021.1.4,Win32,60.0240096,628b806c463b948bc644b84f,629af8ecffac1b4a1e7bb01b,,,,,,,,,,,,,,,,,,,,,,,,,,,,,,,,,,,,,,,,,,,,,,,,,,,,,,,,,,,,,,,,,,,,,,,,,,,,,,,,,,,,,,,,,,,,,,,,,,,,,,,
,,"[""period""]",0,[0.4730000000000132],96,0,96,0,1,5f4f5fa9cb9a39000c600ad3,43,Mężczyzna,2022-06-04_08h17.32.635,task,2021.1.4,Win32,60.0240096,628b806c463b948bc644b84f,629af8ecffac1b4a1e7bb01b,,,,,,,,,,,,,,,,,,,,,,,,,,,,,,,,,,,,,,,,,,,,,,,,,,,,,,,,,,,,,,,,,,,,,,,,,,,,,,,,,,,,,,,,,,,,,,,,,,,,,,,
,,"[""comma""]",0,[0.35300000000000864],97,0,97,0,1,5f4f5fa9cb9a39000c600ad3,43,Mężczyzna,2022-06-04_08h17.32.635,task,2021.1.4,Win32,60.0240096,628b806c463b948bc644b84f,629af8ecffac1b4a1e7bb01b,,,,,,,,,,,,,,,,,,,,,,,,,,,,,,,,,,,,,,,,,,,,,,,,,,,,,,,,,,,,,,,,,,,,,,,,,,,,,,,,,,,,,,,,,,,,,,,,,,,,,,,
,,"[""comma""]",0,[0.41800000000000637],98,0,98,0,1,5f4f5fa9cb9a39000c600ad3,43,Mężczyzna,2022-06-04_08h17.32.635,task,2021.1.4,Win32,60.0240096,628b806c463b948bc644b84f,629af8ecffac1b4a1e7bb01b,,,,,,,,,,,,,,,,,,,,,,,,,,,,,,,,,,,,,,,,,,,,,,,,,,,,,,,,,,,,,,,,,,,,,,,,,,,,,,,,,,,,,,,,,,,,,,,,,,,,,,,
,,"[""comma""]",0,[0.3429999999999609],99,0,99,0,1,5f4f5fa9cb9a39000c600ad3,43,Mężczyzna,2022-06-04_08h17.32.635,task,2021.1.4,Win32,60.0240096,628b806c463b948bc644b84f,629af8ecffac1b4a1e7bb01b,,,,,,,,,,,,,,,,,,,,,,,,,,,,,,,,,,,,,,,,,,,,,,,,,,,,,,,,,,,,,,,,,,,,,,,,,,,,,,,,,,,,,,,,,,,,,,,,,,,,,,,
,,"[""period""]",0,[0.33300000000002683],100,0,100,0,1,5f4f5fa9cb9a39000c600ad3,43,Mężczyzna,2022-06-04_08h17.32.635,task,2021.1.4,Win32,60.0240096,628b806c463b948bc644b84f,629af8ecffac1b4a1e7bb01b,,,,,,,,,,,,,,,,,,,,,,,,,,,,,,,,,,,,,,,,,,,,,,,,,,,,,,,,,,,,,,,,,,,,,,,,,,,,,,,,,,,,,,,,,,,,,,,,,,,,,,,
,,"[""comma""]",0,[0.3100000000000023],101,0,101,0,1,5f4f5fa9cb9a39000c600ad3,43,Mężczyzna,2022-06-04_08h17.32.635,task,2021.1.4,Win32,60.0240096,628b806c463b948bc644b84f,629af8ecffac1b4a1e7bb01b,,,,,,,,,,,,,,,,,,,,,,,,,,,,,,,,,,,,,,,,,,,,,,,,,,,,,,,,,,,,,,,,,,,,,,,,,,,,,,,,,,,,,,,,,,,,,,,,,,,,,,,
,,"[""period""]",0,[0.2939999999999827],102,0,102,0,1,5f4f5fa9cb9a39000c600ad3,43,Mężczyzna,2022-06-04_08h17.32.635,task,2021.1.4,Win32,60.0240096,628b806c463b948bc644b84f,629af8ecffac1b4a1e7bb01b,,,,,,,,,,,,,,,,,,,,,,,,,,,,,,,,,,,,,,,,,,,,,,,,,,,,,,,,,,,,,,,,,,,,,,,,,,,,,,,,,,,,,,,,,,,,,,,,,,,,,,,
,,"[""comma""]",0,[0.4409999999999741],103,0,103,0,1,5f4f5fa9cb9a39000c600ad3,43,Mężczyzna,2022-06-04_08h17.32.635,task,2021.1.4,Win32,60.0240096,628b806c463b948bc644b84f,629af8ecffac1b4a1e7bb01b,,,,,,,,,,,,,,,,,,,,,,,,,,,,,,,,,,,,,,,,,,,,,,,,,,,,,,,,,,,,,,,,,,,,,,,,,,,,,,,,,,,,,,,,,,,,,,,,,,,,,,,
,,"[""comma""]",0,[0.39800000000002456],104,0,104,0,1,5f4f5fa9cb9a39000c600ad3,43,Mężczyzna,2022-06-04_08h17.32.635,task,2021.1.4,Win32,60.0240096,628b806c463b948bc644b84f,629af8ecffac1b4a1e7bb01b,,,,,,,,,,,,,,,,,,,,,,,,,,,,,,,,,,,,,,,,,,,,,,,,,,,,,,,,,,,,,,,,,,,,,,,,,,,,,,,,,,,,,,,,,,,,,,,,,,,,,,,
,,"[""comma""]",0,[0.27899999999999636],105,0,105,0,1,5f4f5fa9cb9a39000c600ad3,43,Mężczyzna,2022-06-04_08h17.32.635,task,2021.1.4,Win32,60.0240096,628b806c463b948bc644b84f,629af8ecffac1b4a1e7bb01b,,,,,,,,,,,,,,,,,,,,,,,,,,,,,,,,,,,,,,,,,,,,,,,,,,,,,,,,,,,,,,,,,,,,,,,,,,,,,,,,,,,,,,,,,,,,,,,,,,,,,,,
,,"[""period""]",0,[0.34700000000003683],106,0,106,0,1,5f4f5fa9cb9a39000c600ad3,43,Mężczyzna,2022-06-04_08h17.32.635,task,2021.1.4,Win32,60.0240096,628b806c463b948bc644b84f,629af8ecffac1b4a1e7bb01b,,,,,,,,,,,,,,,,,,,,,,,,,,,,,,,,,,,,,,,,,,,,,,,,,,,,,,,,,,,,,,,,,,,,,,,,,,,,,,,,,,,,,,,,,,,,,,,,,,,,,,,
,,"[""period""]",0,[0.3849999999999909],107,0,107,0,1,5f4f5fa9cb9a39000c600ad3,43,Mężczyzna,2022-06-04_08h17.32.635,task,2021.1.4,Win32,60.0240096,628b806c463b948bc644b84f,629af8ecffac1b4a1e7bb01b,,,,,,,,,,,,,,,,,,,,,,,,,,,,,,,,,,,,,,,,,,,,,,,,,,,,,,,,,,,,,,,,,,,,,,,,,,,,,,,,,,,,,,,,,,,,,,,,,,,,,,,
,,"[""comma""]",0,[0.5679999999999836],108,0,108,0,1,5f4f5fa9cb9a39000c600ad3,43,Mężczyzna,2022-06-04_08h17.32.635,task,2021.1.4,Win32,60.0240096,628b806c463b948bc644b84f,629af8ecffac1b4a1e7bb01b,,,,,,,,,,,,,,,,,,,,,,,,,,,,,,,,,,,,,,,,,,,,,,,,,,,,,,,,,,,,,,,,,,,,,,,,,,,,,,,,,,,,,,,,,,,,,,,,,,,,,,,
,,"[""period""]",0,[0.35499999999996135],109,0,109,0,1,5f4f5fa9cb9a39000c600ad3,43,Mężczyzna,2022-06-04_08h17.32.635,task,2021.1.4,Win32,60.0240096,628b806c463b948bc644b84f,629af8ecffac1b4a1e7bb01b,,,,,,,,,,,,,,,,,,,,,,,,,,,,,,,,,,,,,,,,,,,,,,,,,,,,,,,,,,,,,,,,,,,,,,,,,,,,,,,,,,,,,,,,,,,,,,,,,,,,,,,
,,"[""comma""]",0,[0.30000000000001137],110,0,110,0,1,5f4f5fa9cb9a39000c600ad3,43,Mężczyzna,2022-06-04_08h17.32.635,task,2021.1.4,Win32,60.0240096,628b806c463b948bc644b84f,629af8ecffac1b4a1e7bb01b,,,,,,,,,,,,,,,,,,,,,,,,,,,,,,,,,,,,,,,,,,,,,,,,,,,,,,,,,,,,,,,,,,,,,,,,,,,,,,,,,,,,,,,,,,,,,,,,,,,,,,,
,,"[""period""]",0,[0.33700000000004593],111,0,111,0,1,5f4f5fa9cb9a39000c600ad3,43,Mężczyzna,2022-06-04_08h17.32.635,task,2021.1.4,Win32,60.0240096,628b806c463b948bc644b84f,629af8ecffac1b4a1e7bb01b,,,,,,,,,,,,,,,,,,,,,,,,,,,,,,,,,,,,,,,,,,,,,,,,,,,,,,,,,,,,,,,,,,,,,,,,,,,,,,,,,,,,,,,,,,,,,,,,,,,,,,,
,,"[""comma""]",0,[0.4350000000000023],112,0,112,0,1,5f4f5fa9cb9a39000c600ad3,43,Mężczyzna,2022-06-04_08h17.32.635,task,2021.1.4,Win32,60.0240096,628b806c463b948bc644b84f,629af8ecffac1b4a1e7bb01b,,,,,,,,,,,,,,,,,,,,,,,,,,,,,,,,,,,,,,,,,,,,,,,,,,,,,,,,,,,,,,,,,,,,,,,,,,,,,,,,,,,,,,,,,,,,,,,,,,,,,,,
,,"[""comma""]",0,[0.5660000000000309],113,0,113,0,1,5f4f5fa9cb9a39000c600ad3,43,Mężczyzna,2022-06-04_08h17.32.635,task,2021.1.4,Win32,60.0240096,628b806c463b948bc644b84f,629af8ecffac1b4a1e7bb01b,,,,,,,,,,,,,,,,,,,,,,,,,,,,,,,,,,,,,,,,,,,,,,,,,,,,,,,,,,,,,,,,,,,,,,,,,,,,,,,,,,,,,,,,,,,,,,,,,,,,,,,
,,"[""period""]",0,[0.3299999999999841],114,0,114,0,1,5f4f5fa9cb9a39000c600ad3,43,Mężczyzna,2022-06-04_08h17.32.635,task,2021.1.4,Win32,60.0240096,628b806c463b948bc644b84f,629af8ecffac1b4a1e7bb01b,,,,,,,,,,,,,,,,,,,,,,,,,,,,,,,,,,,,,,,,,,,,,,,,,,,,,,,,,,,,,,,,,,,,,,,,,,,,,,,,,,,,,,,,,,,,,,,,,,,,,,,
,,"[""comma""]",0,[0.33199999999999363],115,0,115,0,1,5f4f5fa9cb9a39000c600ad3,43,Mężczyzna,2022-06-04_08h17.32.635,task,2021.1.4,Win32,60.0240096,628b806c463b948bc644b84f,629af8ecffac1b4a1e7bb01b,,,,,,,,,,,,,,,,,,,,,,,,,,,,,,,,,,,,,,,,,,,,,,,,,,,,,,,,,,,,,,,,,,,,,,,,,,,,,,,,,,,,,,,,,,,,,,,,,,,,,,,
,,"[""period""]",0,[0.375],116,0,116,0,1,5f4f5fa9cb9a39000c600ad3,43,Mężczyzna,2022-06-04_08h17.32.635,task,2021.1.4,Win32,60.0240096,628b806c463b948bc644b84f,629af8ecffac1b4a1e7bb01b,,,,,,,,,,,,,,,,,,,,,,,,,,,,,,,,,,,,,,,,,,,,,,,,,,,,,,,,,,,,,,,,,,,,,,,,,,,,,,,,,,,,,,,,,,,,,,,,,,,,,,,
,,"[""comma"",""period""]",0,"[0.35799999999994725,0.3909999999999627]",117,0,117,0,1,5f4f5fa9cb9a39000c600ad3,43,Mężczyzna,2022-06-04_08h17.32.635,task,2021.1.4,Win32,60.0240096,628b806c463b948bc644b84f,629af8ecffac1b4a1e7bb01b,,,,,,,,,,,,,,,,,,,,,,,,,,,,,,,,,,,,,,,,,,,,,,,,,,,,,,,,,,,,,,,,,,,,,,,,,,,,,,,,,,,,,,,,,,,,,,,,,,,,,,,
,,"[""comma"",""period""]",0,"[0.31100000000003547,0.3120000000000118]",118,0,118,0,1,5f4f5fa9cb9a39000c600ad3,43,Mężczyzna,2022-06-04_08h17.32.635,task,2021.1.4,Win32,60.0240096,628b806c463b948bc644b84f,629af8ecffac1b4a1e7bb01b,,,,,,,,,,,,,,,,,,,,,,,,,,,,,,,,,,,,,,,,,,,,,,,,,,,,,,,,,,,,,,,,,,,,,,,,,,,,,,,,,,,,,,,,,,,,,,,,,,,,,,,
,,"[""comma"",""period""]",0,"[0.35000000000002274,0.4089999999999918]",119,0,119,0,1,5f4f5fa9cb9a39000c600ad3,43,Mężczyzna,2022-06-04_08h17.32.635,task,2021.1.4,Win32,60.0240096,628b806c463b948bc644b84f,629af8ecffac1b4a1e7bb01b,,,,,,,,,,,,,,,,,,,,,,,,,,,,,,,,,,,,,,,,,,,,,,,,,,,,,,,,,,,,,,,,,,,,,,,,,,,,,,,,,,,,,,,,,,,,,,,,,,,,,,,
,,,,,,,,,,5f4f5fa9cb9a39000c600ad3,43,Mężczyzna,2022-06-04_08h17.32.635,task,2021.1.4,Win32,60.0240096,628b806c463b948bc644b84f,629af8ecffac1b4a1e7bb01b,space,19.197,space,5.253,0,0,0,0,1,X V Q F H G B L J M P D K C T S W R N Z,,,,,,,,,,,,,,,,,,,,,,,,,,,,,,,,,,,,,,,,,,,,,,,,,,,,,,,,,,,,,,,,,,,,,,,,,,,,,,,,,,,,,,,,,,,,,
,,,,,,,,,,5f4f5fa9cb9a39000c600ad3,43,Mężczyzna,2022-06-04_08h17.32.635,task,2021.1.4,Win32,60.0240096,628b806c463b948bc644b84f,629af8ecffac1b4a1e7bb01b,,,,,1,0,1,0,1,X V Q F H G B L J M P D K C T S W R N Z,,,,,,,,,,,,,,,,,,,,,,,,,,,,,,,,,,,,,,,,,,,,,,,,,,,,,,,,,,,,,,,,,,,,,,,,,,,,,,,,,,,,,,,,,,,,,
,,,,,,,,,,5f4f5fa9cb9a39000c600ad3,43,Mężczyzna,2022-06-04_08h17.32.635,task,2021.1.4,Win32,60.0240096,628b806c463b948bc644b84f,629af8ecffac1b4a1e7bb01b,,,,,,,,,,,zv,"[""z"",""v""]","[3.2340000000000373,3.4279999999999973,5.074000000000012]",1,ZV,0,0,0,0,1,,,,,,,,,,,,,,,,,,,,,,,,,,,,,,,,,,,,,,,,,,,,,,,,,,,,,,,,,,,,,,,,,,,,,,,,,,,,,,,,,,,
,,,,,,,,,,5f4f5fa9cb9a39000c600ad3,43,Mężczyzna,2022-06-04_08h17.32.635,task,2021.1.4,Win32,60.0240096,628b806c463b948bc644b84f,629af8ecffac1b4a1e7bb01b,,,,,0,0,0,0,1,X V Q F H G B L J M P D K C T S W R N Z,,,,,,,,,,,,,,,,,,,,,,,,,,,,,,,,,,,,,,,,,,,,,,,,,,,,,,,,,,,,,,,,,,,,,,,,,,,,,,,,,,,,,,,,,,,,,
,,,,,,,,,,5f4f5fa9cb9a39000c600ad3,43,Mężczyzna,2022-06-04_08h17.32.635,task,2021.1.4,Win32,60.0240096,628b806c463b948bc644b84f,629af8ecffac1b4a1e7bb01b,,,,,1,0,1,0,1,X V Q F H G B L J M P D K C T S W R N Z,,,,,,,,,,,,,,,,,,,,,,,,,,,,,,,,,,,,,,,,,,,,,,,,,,,,,,,,,,,,,,,,,,,,,,,,,,,,,,,,,,,,,,,,,,,,,
,,,,,,,,,,5f4f5fa9cb9a39000c600ad3,43,Mężczyzna,2022-06-04_08h17.32.635,task,2021.1.4,Win32,60.0240096,628b806c463b948bc644b84f,629af8ecffac1b4a1e7bb01b,,,,,,,,,,,mm,"[""m"",""m""]","[1.1779999999999973,1.3149999999999977,2.146000000000015]",1,MM,1,0,1,0,1,,,,,,,,,,,,,,,,,,,,,,,,,,,,,,,,,,,,,,,,,,,,,,,,,,,,,,,,,,,,,,,,,,,,,,,,,,,,,,,,,,,
,,,,,,,,,,5f4f5fa9cb9a39000c600ad3,43,Mężczyzna,2022-06-04_08h17.32.635,task,2021.1.4,Win32,60.0240096,628b806c463b948bc644b84f,629af8ecffac1b4a1e7bb01b,,,,,0,0,0,0,1,X V Q F H G B L J M P D K C T S W R N Z,,,,,,,,,,,,,,,,,,,,,,,,,,,,,,,,,,,,,,,,,,,,,,,,,,,,,,,,,,,,,,,,,,,,,,,,,,,,,,,,,,,,,,,,,,,,,
,,,,,,,,,,5f4f5fa9cb9a39000c600ad3,43,Mężczyzna,2022-06-04_08h17.32.635,task,2021.1.4,Win32,60.0240096,628b806c463b948bc644b84f,629af8ecffac1b4a1e7bb01b,,,,,1,0,1,0,1,X V Q F H G B L J M P D K C T S W R N Z,,,,,,,,,,,,,,,,,,,,,,,,,,,,,,,,,,,,,,,,,,,,,,,,,,,,,,,,,,,,,,,,,,,,,,,,,,,,,,,,,,,,,,,,,,,,,
,,,,,,,,,,5f4f5fa9cb9a39000c600ad3,43,Mężczyzna,2022-06-04_08h17.32.635,task,2021.1.4,Win32,60.0240096,628b806c463b948bc644b84f,629af8ecffac1b4a1e7bb01b,,,,,2,0,2,0,1,X V Q F H G B L J M P D K C T S W R N Z,,,,,,,,,,,,,,,,,,,,,,,,,,,,,,,,,,,,,,,,,,,,,,,,,,,,,,,,,,,,,,,,,,,,,,,,,,,,,,,,,,,,,,,,,,,,,
,,,,,,,,,,5f4f5fa9cb9a39000c600ad3,43,Mężczyzna,2022-06-04_08h17.32.635,task,2021.1.4,Win32,60.0240096,628b806c463b948bc644b84f,629af8ecffac1b4a1e7bb01b,,,,,,,,,,,btq,"[""b"",""t"",""q""]","[1.0439999999999827,1.3480000000000132,1.6120000000000232,3.240000000000009]",1,BTQ,2,0,2,0,1,,,,,,,,,,,,,,,,,,,,,,,,,,,,,,,,,,,,,,,,,,,,,,,,,,,,,,,,,,,,,,,,,,,,,,,,,,,,,,,,,,,
,,,,,,,,,,5f4f5fa9cb9a39000c600ad3,43,Mężczyzna,2022-06-04_08h17.32.635,task,2021.1.4,Win32,60.0240096,628b806c463b948bc644b84f,629af8ecffac1b4a1e7bb01b,,,,,0,0,0,0,1,X V Q F H G B L J M P D K C T S W R N Z,,,,,,,,,,,,,,,,,,,,,,,,,,,,,,,,,,,,,,,,,,,,,,,,,,,,,,,,,,,,,,,,,,,,,,,,,,,,,,,,,,,,,,,,,,,,,
,,,,,,,,,,5f4f5fa9cb9a39000c600ad3,43,Mężczyzna,2022-06-04_08h17.32.635,task,2021.1.4,Win32,60.0240096,628b806c463b948bc644b84f,629af8ecffac1b4a1e7bb01b,,,,,1,0,1,0,1,X V Q F H G B L J M P D K C T S W R N Z,,,,,,,,,,,,,,,,,,,,,,,,,,,,,,,,,,,,,,,,,,,,,,,,,,,,,,,,,,,,,,,,,,,,,,,,,,,,,,,,,,,,,,,,,,,,,
,,,,,,,,,,5f4f5fa9cb9a39000c600ad3,43,Mężczyzna,2022-06-04_08h17.32.635,task,2021.1.4,Win32,60.0240096,628b806c463b948bc644b84f,629af8ecffac1b4a1e7bb01b,,,,,2,0,2,0,1,X V Q F H G B L J M P D K C T S W R N Z,,,,,,,,,,,,,,,,,,,,,,,,,,,,,,,,,,,,,,,,,,,,,,,,,,,,,,,,,,,,,,,,,,,,,,,,,,,,,,,,,,,,,,,,,,,,,
,,,,,,,,,,5f4f5fa9cb9a39000c600ad3,43,Mężczyzna,2022-06-04_08h17.32.635,task,2021.1.4,Win32,60.0240096,628b806c463b948bc644b84f,629af8ecffac1b4a1e7bb01b,,,,,,,,,,,dgf,"[""d"",""g"",""f""]","[1.149000000000001,1.5540000000000305,1.7300000000000182,3.031000000000006]",1,DGF,3,0,3,0,1,,,,,,,,,,,,,,,,,,,,,,,,,,,,,,,,,,,,,,,,,,,,,,,,,,,,,,,,,,,,,,,,,,,,,,,,,,,,,,,,,,,
,,,,,,,,,,5f4f5fa9cb9a39000c600ad3,43,Mężczyzna,2022-06-04_08h17.32.635,task,2021.1.4,Win32,60.0240096,628b806c463b948bc644b84f,629af8ecffac1b4a1e7bb01b,,,,,0,0,0,0,1,X V Q F H G B L J M P D K C T S W R N Z,,,,,,,,,,,,,,,,,,,,,,,,,,,,,,,,,,,,,,,,,,,,,,,,,,,,,,,,,,,,,,,,,,,,,,,,,,,,,,,,,,,,,,,,,,,,,
,,,,,,,,,,5f4f5fa9cb9a39000c600ad3,43,Mężczyzna,2022-06-04_08h17.32.635,task,2021.1.4,Win32,60.0240096,628b806c463b948bc644b84f,629af8ecffac1b4a1e7bb01b,,,,,1,0,1,0,1,X V Q F H G B L J M P D K C T S W R N Z,,,,,,,,,,,,,,,,,,,,,,,,,,,,,,,,,,,,,,,,,,,,,,,,,,,,,,,,,,,,,,,,,,,,,,,,,,,,,,,,,,,,,,,,,,,,,
,,,,,,,,,,5f4f5fa9cb9a39000c600ad3,43,Mężczyzna,2022-06-04_08h17.32.635,task,2021.1.4,Win32,60.0240096,628b806c463b948bc644b84f,629af8ecffac1b4a1e7bb01b,,,,,2,0,2,0,1,X V Q F H G B L J M P D K C T S W R N Z,,,,,,,,,,,,,,,,,,,,,,,,,,,,,,,,,,,,,,,,,,,,,,,,,,,,,,,,,,,,,,,,,,,,,,,,,,,,,,,,,,,,,,,,,,,,,
,,,,,,,,,,5f4f5fa9cb9a39000c600ad3,43,Mężczyzna,2022-06-04_08h17.32.635,task,2021.1.4,Win32,60.0240096,628b806c463b948bc644b84f,629af8ecffac1b4a1e7bb01b,,,,,3,0,3,0,1,X V Q F H G B L J M P D K C T S W R N Z,,,,,,,,,,,,,,,,,,,,,,,,,,,,,,,,,,,,,,,,,,,,,,,,,,,,,,,,,,,,,,,,,,,,,,,,,,,,,,,,,,,,,,,,,,,,,
,,,,,,,,,,5f4f5fa9cb9a39000c600ad3,43,Mężczyzna,2022-06-04_08h17.32.635,task,2021.1.4,Win32,60.0240096,628b806c463b948bc644b84f,629af8ecffac1b4a1e7bb01b,,,,,,,,,,,wtnp,"[""w"",""t"",""n"",""p""]","[1.0510000000000446,1.4720000000000368,1.882000000000005,2.097000000000037,2.765000000000043]",1,WTNP,4,0,4,0,1,,,,,,,,,,,,,,,,,,,,,,,,,,,,,,,,,,,,,,,,,,,,,,,,,,,,,,,,,,,,,,,,,,,,,,,,,,,,,,,,,,,
,,,,,,,,,,5f4f5fa9cb9a39000c600ad3,43,Mężczyzna,2022-06-04_08h17.32.635,task,2021.1.4,Win32,60.0240096,628b806c463b948bc644b84f,629af8ecffac1b4a1e7bb01b,,,,,0,0,0,0,1,X V Q F H G B L J M P D K C T S W R N Z,,,,,,,,,,,,,,,,,,,,,,,,,,,,,,,,,,,,,,,,,,,,,,,,,,,,,,,,,,,,,,,,,,,,,,,,,,,,,,,,,,,,,,,,,,,,,
,,,,,,,,,,5f4f5fa9cb9a39000c600ad3,43,Mężczyzna,2022-06-04_08h17.32.635,task,2021.1.4,Win32,60.0240096,628b806c463b948bc644b84f,629af8ecffac1b4a1e7bb01b,,,,,1,0,1,0,1,X V Q F H G B L J M P D K C T S W R N Z,,,,,,,,,,,,,,,,,,,,,,,,,,,,,,,,,,,,,,,,,,,,,,,,,,,,,,,,,,,,,,,,,,,,,,,,,,,,,,,,,,,,,,,,,,,,,
,,,,,,,,,,5f4f5fa9cb9a39000c600ad3,43,Mężczyzna,2022-06-04_08h17.32.635,task,2021.1.4,Win32,60.0240096,628b806c463b948bc644b84f,629af8ecffac1b4a1e7bb01b,,,,,2,0,2,0,1,X V Q F H G B L J M P D K C T S W R N Z,,,,,,,,,,,,,,,,,,,,,,,,,,,,,,,,,,,,,,,,,,,,,,,,,,,,,,,,,,,,,,,,,,,,,,,,,,,,,,,,,,,,,,,,,,,,,
,,,,,,,,,,5f4f5fa9cb9a39000c600ad3,43,Mężczyzna,2022-06-04_08h17.32.635,task,2021.1.4,Win32,60.0240096,628b806c463b948bc644b84f,629af8ecffac1b4a1e7bb01b,,,,,3,0,3,0,1,X V Q F H G B L J M P D K C T S W R N Z,,,,,,,,,,,,,,,,,,,,,,,,,,,,,,,,,,,,,,,,,,,,,,,,,,,,,,,,,,,,,,,,,,,,,,,,,,,,,,,,,,,,,,,,,,,,,
,,,,,,,,,,5f4f5fa9cb9a39000c600ad3,43,Mężczyzna,2022-06-04_08h17.32.635,task,2021.1.4,Win32,60.0240096,628b806c463b948bc644b84f,629af8ecffac1b4a1e7bb01b,,,,,,,,,,,kxqp,"[""k"",""x"",""q"",""p""]","[2.7760000000000105,3.673000000000002,3.9190000000000396,4.152000000000044,4.962000000000046]",1,KXQP,5,0,5,0,1,,,,,,,,,,,,,,,,,,,,,,,,,,,,,,,,,,,,,,,,,,,,,,,,,,,,,,,,,,,,,,,,,,,,,,,,,,,,,,,,,,,
,,,,,,,,,,5f4f5fa9cb9a39000c600ad3,43,Mężczyzna,2022-06-04_08h17.32.635,task,2021.1.4,Win32,60.0240096,628b806c463b948bc644b84f,629af8ecffac1b4a1e7bb01b,,,,,0,0,0,0,1,X V Q F H G B L J M P D K C T S W R N Z,,,,,,,,,,,,,,,,,,,,,,,,,,,,,,,,,,,,,,,,,,,,,,,,,,,,,,,,,,,,,,,,,,,,,,,,,,,,,,,,,,,,,,,,,,,,,
,,,,,,,,,,5f4f5fa9cb9a39000c600ad3,43,Mężczyzna,2022-06-04_08h17.32.635,task,2021.1.4,Win32,60.0240096,628b806c463b948bc644b84f,629af8ecffac1b4a1e7bb01b,,,,,1,0,1,0,1,X V Q F H G B L J M P D K C T S W R N Z,,,,,,,,,,,,,,,,,,,,,,,,,,,,,,,,,,,,,,,,,,,,,,,,,,,,,,,,,,,,,,,,,,,,,,,,,,,,,,,,,,,,,,,,,,,,,
,,,,,,,,,,5f4f5fa9cb9a39000c600ad3,43,Mężczyzna,2022-06-04_08h17.32.635,task,2021.1.4,Win32,60.0240096,628b806c463b948bc644b84f,629af8ecffac1b4a1e7bb01b,,,,,2,0,2,0,1,X V Q F H G B L J M P D K C T S W R N Z,,,,,,,,,,,,,,,,,,,,,,,,,,,,,,,,,,,,,,,,,,,,,,,,,,,,,,,,,,,,,,,,,,,,,,,,,,,,,,,,,,,,,,,,,,,,,
,,,,,,,,,,5f4f5fa9cb9a39000c600ad3,43,Mężczyzna,2022-06-04_08h17.32.635,task,2021.1.4,Win32,60.0240096,628b806c463b948bc644b84f,629af8ecffac1b4a1e7bb01b,,,,,3,0,3,0,1,X V Q F H G B L J M P D K C T S W R N Z,,,,,,,,,,,,,,,,,,,,,,,,,,,,,,,,,,,,,,,,,,,,,,,,,,,,,,,,,,,,,,,,,,,,,,,,,,,,,,,,,,,,,,,,,,,,,
,,,,,,,,,,5f4f5fa9cb9a39000c600ad3,43,Mężczyzna,2022-06-04_08h17.32.635,task,2021.1.4,Win32,60.0240096,628b806c463b948bc644b84f,629af8ecffac1b4a1e7bb01b,,,,,4,0,4,0,1,X V Q F H G B L J M P D K C T S W R N Z,,,,,,,,,,,,,,,,,,,,,,,,,,,,,,,,,,,,,,,,,,,,,,,,,,,,,,,,,,,,,,,,,,,,,,,,,,,,,,,,,,,,,,,,,,,,,
,,,,,,,,,,5f4f5fa9cb9a39000c600ad3,43,Mężczyzna,2022-06-04_08h17.32.635,task,2021.1.4,Win32,60.0240096,628b806c463b948bc644b84f,629af8ecffac1b4a1e7bb01b,,,,,,,,,,,qkmmt,"[""q"",""k"",""m"",""m"",""t""]","[1.906000000000006,2.5570000000000164,2.8940000000000055,3.021000000000015,3.2959999999999923,4.475999999999999]",0,QKMTT,6,0,6,0,1,,,,,,,,,,,,,,,,,,,,,,,,,,,,,,,,,,,,,,,,,,,,,,,,,,,,,,,,,,,,,,,,,,,,,,,,,,,,,,,,,,,
,,,,,,,,,,5f4f5fa9cb9a39000c600ad3,43,Mężczyzna,2022-06-04_08h17.32.635,task,2021.1.4,Win32,60.0240096,628b806c463b948bc644b84f,629af8ecffac1b4a1e7bb01b,,,,,0,0,0,0,1,X V Q F H G B L J M P D K C T S W R N Z,,,,,,,,,,,,,,,,,,,,,,,,,,,,,,,,,,,,,,,,,,,,,,,,,,,,,,,,,,,,,,,,,,,,,,,,,,,,,,,,,,,,,,,,,,,,,
,,,,,,,,,,5f4f5fa9cb9a39000c600ad3,43,Mężczyzna,2022-06-04_08h17.32.635,task,2021.1.4,Win32,60.0240096,628b806c463b948bc644b84f,629af8ecffac1b4a1e7bb01b,,,,,1,0,1,0,1,X V Q F H G B L J M P D K C T S W R N Z,,,,,,,,,,,,,,,,,,,,,,,,,,,,,,,,,,,,,,,,,,,,,,,,,,,,,,,,,,,,,,,,,,,,,,,,,,,,,,,,,,,,,,,,,,,,,
,,,,,,,,,,5f4f5fa9cb9a39000c600ad3,43,Mężczyzna,2022-06-04_08h17.32.635,task,2021.1.4,Win32,60.0240096,628b806c463b948bc644b84f,629af8ecffac1b4a1e7bb01b,,,,,2,0,2,0,1,X V Q F H G B L J M P D K C T S W R N Z,,,,,,,,,,,,,,,,,,,,,,,,,,,,,,,,,,,,,,,,,,,,,,,,,,,,,,,,,,,,,,,,,,,,,,,,,,,,,,,,,,,,,,,,,,,,,
,,,,,,,,,,5f4f5fa9cb9a39000c600ad3,43,Mężczyzna,2022-06-04_08h17.32.635,task,2021.1.4,Win32,60.0240096,628b806c463b948bc644b84f,629af8ecffac1b4a1e7bb01b,,,,,3,0,3,0,1,X V Q F H G B L J M P D K C T S W R N Z,,,,,,,,,,,,,,,,,,,,,,,,,,,,,,,,,,,,,,,,,,,,,,,,,,,,,,,,,,,,,,,,,,,,,,,,,,,,,,,,,,,,,,,,,,,,,
,,,,,,,,,,5f4f5fa9cb9a39000c600ad3,43,Mężczyzna,2022-06-04_08h17.32.635,task,2021.1.4,Win32,60.0240096,628b806c463b948bc644b84f,629af8ecffac1b4a1e7bb01b,,,,,4,0,4,0,1,X V Q F H G B L J M P D K C T S W R N Z,,,,,,,,,,,,,,,,,,,,,,,,,,,,,,,,,,,,,,,,,,,,,,,,,,,,,,,,,,,,,,,,,,,,,,,,,,,,,,,,,,,,,,,,,,,,,
,,,,,,,,,,5f4f5fa9cb9a39000c600ad3,43,Mężczyzna,2022-06-04_08h17.32.635,task,2021.1.4,Win32,60.0240096,628b806c463b948bc644b84f,629af8ecffac1b4a1e7bb01b,,,,,,,,,,,whttc,"[""w"",""h"",""t"",""t"",""c""]","[1.9110000000000014,2.509999999999991,2.8519999999999754,2.991999999999962,3.2539999999999623,4.043000000000006]",1,WHTTC,7,0,7,0,1,,,,,,,,,,,,,,,,,,,,,,,,,,,,,,,,,,,,,,,,,,,,,,,,,,,,,,,,,,,,,,,,,,,,,,,,,,,,,,,,,,,
,,,,,,,,,,5f4f5fa9cb9a39000c600ad3,43,Mężczyzna,2022-06-04_08h17.32.635,task,2021.1.4,Win32,60.0240096,628b806c463b948bc644b84f,629af8ecffac1b4a1e7bb01b,,,,,0,0,0,0,1,X V Q F H G B L J M P D K C T S W R N Z,,,,,,,,,,,,,,,,,,,,,,,,,,,,,,,,,,,,,,,,,,,,,,,,,,,,,,,,,,,,,,,,,,,,,,,,,,,,,,,,,,,,,,,,,,,,,
,,,,,,,,,,5f4f5fa9cb9a39000c600ad3,43,Mężczyzna,2022-06-04_08h17.32.635,task,2021.1.4,Win32,60.0240096,628b806c463b948bc644b84f,629af8ecffac1b4a1e7bb01b,,,,,1,0,1,0,1,X V Q F H G B L J M P D K C T S W R N Z,,,,,,,,,,,,,,,,,,,,,,,,,,,,,,,,,,,,,,,,,,,,,,,,,,,,,,,,,,,,,,,,,,,,,,,,,,,,,,,,,,,,,,,,,,,,,
,,,,,,,,,,5f4f5fa9cb9a39000c600ad3,43,Mężczyzna,2022-06-04_08h17.32.635,task,2021.1.4,Win32,60.0240096,628b806c463b948bc644b84f,629af8ecffac1b4a1e7bb01b,,,,,2,0,2,0,1,X V Q F H G B L J M P D K C T S W R N Z,,,,,,,,,,,,,,,,,,,,,,,,,,,,,,,,,,,,,,,,,,,,,,,,,,,,,,,,,,,,,,,,,,,,,,,,,,,,,,,,,,,,,,,,,,,,,
,,,,,,,,,,5f4f5fa9cb9a39000c600ad3,43,Mężczyzna,2022-06-04_08h17.32.635,task,2021.1.4,Win32,60.0240096,628b806c463b948bc644b84f,629af8ecffac1b4a1e7bb01b,,,,,3,0,3,0,1,X V Q F H G B L J M P D K C T S W R N Z,,,,,,,,,,,,,,,,,,,,,,,,,,,,,,,,,,,,,,,,,,,,,,,,,,,,,,,,,,,,,,,,,,,,,,,,,,,,,,,,,,,,,,,,,,,,,
,,,,,,,,,,5f4f5fa9cb9a39000c600ad3,43,Mężczyzna,2022-06-04_08h17.32.635,task,2021.1.4,Win32,60.0240096,628b806c463b948bc644b84f,629af8ecffac1b4a1e7bb01b,,,,,4,0,4,0,1,X V Q F H G B L J M P D K C T S W R N Z,,,,,,,,,,,,,,,,,,,,,,,,,,,,,,,,,,,,,,,,,,,,,,,,,,,,,,,,,,,,,,,,,,,,,,,,,,,,,,,,,,,,,,,,,,,,,
,,,,,,,,,,5f4f5fa9cb9a39000c600ad3,43,Mężczyzna,2022-06-04_08h17.32.635,task,2021.1.4,Win32,60.0240096,628b806c463b948bc644b84f,629af8ecffac1b4a1e7bb01b,,,,,,,,,,,rcfxf,"[""r"",""c"",""f"",""x"",""f""]","[1.504000000000019,1.8410000000000082,3.9560000000000173,4.254000000000019,4.593000000000018,5.353000000000009]",1,RCFXF,8,0,8,0,1,,,,,,,,,,,,,,,,,,,,,,,,,,,,,,,,,,,,,,,,,,,,,,,,,,,,,,,,,,,,,,,,,,,,,,,,,,,,,,,,,,,
,,,,,,,,,,5f4f5fa9cb9a39000c600ad3,43,Mężczyzna,2022-06-04_08h17.32.635,task,2021.1.4,Win32,60.0240096,628b806c463b948bc644b84f,629af8ecffac1b4a1e7bb01b,,,,,0,0,0,0,1,X V Q F H G B L J M P D K C T S W R N Z,,,,,,,,,,,,,,,,,,,,,,,,,,,,,,,,,,,,,,,,,,,,,,,,,,,,,,,,,,,,,,,,,,,,,,,,,,,,,,,,,,,,,,,,,,,,,
,,,,,,,,,,5f4f5fa9cb9a39000c600ad3,43,Mężczyzna,2022-06-04_08h17.32.635,task,2021.1.4,Win32,60.0240096,628b806c463b948bc644b84f,629af8ecffac1b4a1e7bb01b,,,,,1,0,1,0,1,X V Q F H G B L J M P D K C T S W R N Z,,,,,,,,,,,,,,,,,,,,,,,,,,,,,,,,,,,,,,,,,,,,,,,,,,,,,,,,,,,,,,,,,,,,,,,,,,,,,,,,,,,,,,,,,,,,,
,,,,,,,,,,5f4f5fa9cb9a39000c600ad3,43,Mężczyzna,2022-06-04_08h17.32.635,task,2021.1.4,Win32,60.0240096,628b806c463b948bc644b84f,629af8ecffac1b4a1e7bb01b,,,,,2,0,2,0,1,X V Q F H G B L J M P D K C T S W R N Z,,,,,,,,,,,,,,,,,,,,,,,,,,,,,,,,,,,,,,,,,,,,,,,,,,,,,,,,,,,,,,,,,,,,,,,,,,,,,,,,,,,,,,,,,,,,,
,,,,,,,,,,5f4f5fa9cb9a39000c600ad3,43,Mężczyzna,2022-06-04_08h17.32.635,task,2021.1.4,Win32,60.0240096,628b806c463b948bc644b84f,629af8ecffac1b4a1e7bb01b,,,,,3,0,3,0,1,X V Q F H G B L J M P D K C T S W R N Z,,,,,,,,,,,,,,,,,,,,,,,,,,,,,,,,,,,,,,,,,,,,,,,,,,,,,,,,,,,,,,,,,,,,,,,,,,,,,,,,,,,,,,,,,,,,,
,,,,,,,,,,5f4f5fa9cb9a39000c600ad3,43,Mężczyzna,2022-06-04_08h17.32.635,task,2021.1.4,Win32,60.0240096,628b806c463b948bc644b84f,629af8ecffac1b4a1e7bb01b,,,,,4,0,4,0,1,X V Q F H G B L J M P D K C T S W R N Z,,,,,,,,,,,,,,,,,,,,,,,,,,,,,,,,,,,,,,,,,,,,,,,,,,,,,,,,,,,,,,,,,,,,,,,,,,,,,,,,,,,,,,,,,,,,,
,,,,,,,,,,5f4f5fa9cb9a39000c600ad3,43,Mężczyzna,2022-06-04_08h17.32.635,task,2021.1.4,Win32,60.0240096,628b806c463b948bc644b84f,629af8ecffac1b4a1e7bb01b,,,,,5,0,5,0,1,X V Q F H G B L J M P D K C T S W R N Z,,,,,,,,,,,,,,,,,,,,,,,,,,,,,,,,,,,,,,,,,,,,,,,,,,,,,,,,,,,,,,,,,,,,,,,,,,,,,,,,,,,,,,,,,,,,,
,,,,,,,,,,5f4f5fa9cb9a39000c600ad3,43,Mężczyzna,2022-06-04_08h17.32.635,task,2021.1.4,Win32,60.0240096,628b806c463b948bc644b84f,629af8ecffac1b4a1e7bb01b,,,,,,,,,,,mfgvll,"[""m"",""f"",""g"",""v"",""l"",""l""]","[1.100999999999999,1.509999999999991,1.843999999999994,3.326000000000022,6.430000000000007,90.07300000000004,90.59000000000003]",1,MFGVLL,9,0,9,0,1,,,,,,,,,,,,,,,,,,,,,,,,,,,,,,,,,,,,,,,,,,,,,,,,,,,,,,,,,,,,,,,,,,,,,,,,,,,,,,,,,,,
,,,,,,,,,,5f4f5fa9cb9a39000c600ad3,43,Mężczyzna,2022-06-04_08h17.32.635,task,2021.1.4,Win32,60.0240096,628b806c463b948bc644b84f,629af8ecffac1b4a1e7bb01b,,,,,0,0,0,0,1,X V Q F H G B L J M P D K C T S W R N Z,,,,,,,,,,,,,,,,,,,,,,,,,,,,,,,,,,,,,,,,,,,,,,,,,,,,,,,,,,,,,,,,,,,,,,,,,,,,,,,,,,,,,,,,,,,,,
,,,,,,,,,,5f4f5fa9cb9a39000c600ad3,43,Mężczyzna,2022-06-04_08h17.32.635,task,2021.1.4,Win32,60.0240096,628b806c463b948bc644b84f,629af8ecffac1b4a1e7bb01b,,,,,1,0,1,0,1,X V Q F H G B L J M P D K C T S W R N Z,,,,,,,,,,,,,,,,,,,,,,,,,,,,,,,,,,,,,,,,,,,,,,,,,,,,,,,,,,,,,,,,,,,,,,,,,,,,,,,,,,,,,,,,,,,,,
,,,,,,,,,,5f4f5fa9cb9a39000c600ad3,43,Mężczyzna,2022-06-04_08h17.32.635,task,2021.1.4,Win32,60.0240096,628b806c463b948bc644b84f,629af8ecffac1b4a1e7bb01b,,,,,2,0,2,0,1,X V Q F H G B L J M P D K C T S W R N Z,,,,,,,,,,,,,,,,,,,,,,,,,,,,,,,,,,,,,,,,,,,,,,,,,,,,,,,,,,,,,,,,,,,,,,,,,,,,,,,,,,,,,,,,,,,,,
,,,,,,,,,,5f4f5fa9cb9a39000c600ad3,43,Mężczyzna,2022-06-04_08h17.32.635,task,2021.1.4,Win32,60.0240096,628b806c463b948bc644b84f,629af8ecffac1b4a1e7bb01b,,,,,3,0,3,0,1,X V Q F H G B L J M P D K C T S W R N Z,,,,,,,,,,,,,,,,,,,,,,,,,,,,,,,,,,,,,,,,,,,,,,,,,,,,,,,,,,,,,,,,,,,,,,,,,,,,,,,,,,,,,,,,,,,,,
,,,,,,,,,,5f4f5fa9cb9a39000c600ad3,43,Mężczyzna,2022-06-04_08h17.32.635,task,2021.1.4,Win32,60.0240096,628b806c463b948bc644b84f,629af8ecffac1b4a1e7bb01b,,,,,4,0,4,0,1,X V Q F H G B L J M P D K C T S W R N Z,,,,,,,,,,,,,,,,,,,,,,,,,,,,,,,,,,,,,,,,,,,,,,,,,,,,,,,,,,,,,,,,,,,,,,,,,,,,,,,,,,,,,,,,,,,,,
,,,,,,,,,,5f4f5fa9cb9a39000c600ad3,43,Mężczyzna,2022-06-04_08h17.32.635,task,2021.1.4,Win32,60.0240096,628b806c463b948bc644b84f,629af8ecffac1b4a1e7bb01b,,,,,5,0,5,0,1,X V Q F H G B L J M P D K C T S W R N Z,,,,,,,,,,,,,,,,,,,,,,,,,,,,,,,,,,,,,,,,,,,,,,,,,,,,,,,,,,,,,,,,,,,,,,,,,,,,,,,,,,,,,,,,,,,,,
,,,,,,,,,,5f4f5fa9cb9a39000c600ad3,43,Mężczyzna,2022-06-04_08h17.32.635,task,2021.1.4,Win32,60.0240096,628b806c463b948bc644b84f,629af8ecffac1b4a1e7bb01b,,,,,,,,,,,wnjpwk,"[""w"",""n"",""j"",""p"",""w"",""k""]","[1.1309999999999718,1.4700000000000841,1.7360000000000468,2.0060000000000286,2.641999999999996,5.858000000000004,6.537000000000091]",1,WNJPWK,10,0,10,0,1,,,,,,,,,,,,,,,,,,,,,,,,,,,,,,,,,,,,,,,,,,,,,,,,,,,,,,,,,,,,,,,,,,,,,,,,,,,,,,,,,,,
,,,,,,,,,,5f4f5fa9cb9a39000c600ad3,43,Mężczyzna,2022-06-04_08h17.32.635,task,2021.1.4,Win32,60.0240096,628b806c463b948bc644b84f,629af8ecffac1b4a1e7bb01b,,,,,0,0,0,0,1,X V Q F H G B L J M P D K C T S W R N Z,,,,,,,,,,,,,,,,,,,,,,,,,,,,,,,,,,,,,,,,,,,,,,,,,,,,,,,,,,,,,,,,,,,,,,,,,,,,,,,,,,,,,,,,,,,,,
,,,,,,,,,,5f4f5fa9cb9a39000c600ad3,43,Mężczyzna,2022-06-04_08h17.32.635,task,2021.1.4,Win32,60.0240096,628b806c463b948bc644b84f,629af8ecffac1b4a1e7bb01b,,,,,1,0,1,0,1,X V Q F H G B L J M P D K C T S W R N Z,,,,,,,,,,,,,,,,,,,,,,,,,,,,,,,,,,,,,,,,,,,,,,,,,,,,,,,,,,,,,,,,,,,,,,,,,,,,,,,,,,,,,,,,,,,,,
,,,,,,,,,,5f4f5fa9cb9a39000c600ad3,43,Mężczyzna,2022-06-04_08h17.32.635,task,2021.1.4,Win32,60.0240096,628b806c463b948bc644b84f,629af8ecffac1b4a1e7bb01b,,,,,2,0,2,0,1,X V Q F H G B L J M P D K C T S W R N Z,,,,,,,,,,,,,,,,,,,,,,,,,,,,,,,,,,,,,,,,,,,,,,,,,,,,,,,,,,,,,,,,,,,,,,,,,,,,,,,,,,,,,,,,,,,,,
,,,,,,,,,,5f4f5fa9cb9a39000c600ad3,43,Mężczyzna,2022-06-04_08h17.32.635,task,2021.1.4,Win32,60.0240096,628b806c463b948bc644b84f,629af8ecffac1b4a1e7bb01b,,,,,3,0,3,0,1,X V Q F H G B L J M P D K C T S W R N Z,,,,,,,,,,,,,,,,,,,,,,,,,,,,,,,,,,,,,,,,,,,,,,,,,,,,,,,,,,,,,,,,,,,,,,,,,,,,,,,,,,,,,,,,,,,,,
,,,,,,,,,,5f4f5fa9cb9a39000c600ad3,43,Mężczyzna,2022-06-04_08h17.32.635,task,2021.1.4,Win32,60.0240096,628b806c463b948bc644b84f,629af8ecffac1b4a1e7bb01b,,,,,4,0,4,0,1,X V Q F H G B L J M P D K C T S W R N Z,,,,,,,,,,,,,,,,,,,,,,,,,,,,,,,,,,,,,,,,,,,,,,,,,,,,,,,,,,,,,,,,,,,,,,,,,,,,,,,,,,,,,,,,,,,,,
,,,,,,,,,,5f4f5fa9cb9a39000c600ad3,43,Mężczyzna,2022-06-04_08h17.32.635,task,2021.1.4,Win32,60.0240096,628b806c463b948bc644b84f,629af8ecffac1b4a1e7bb01b,,,,,5,0,5,0,1,X V Q F H G B L J M P D K C T S W R N Z,,,,,,,,,,,,,,,,,,,,,,,,,,,,,,,,,,,,,,,,,,,,,,,,,,,,,,,,,,,,,,,,,,,,,,,,,,,,,,,,,,,,,,,,,,,,,
,,,,,,,,,,5f4f5fa9cb9a39000c600ad3,43,Mężczyzna,2022-06-04_08h17.32.635,task,2021.1.4,Win32,60.0240096,628b806c463b948bc644b84f,629af8ecffac1b4a1e7bb01b,,,,,6,0,6,0,1,X V Q F H G B L J M P D K C T S W R N Z,,,,,,,,,,,,,,,,,,,,,,,,,,,,,,,,,,,,,,,,,,,,,,,,,,,,,,,,,,,,,,,,,,,,,,,,,,,,,,,,,,,,,,,,,,,,,
,,,,,,,,,,5f4f5fa9cb9a39000c600ad3,43,Mężczyzna,2022-06-04_08h17.32.635,task,2021.1.4,Win32,60.0240096,628b806c463b948bc644b84f,629af8ecffac1b4a1e7bb01b,,,,,,,,,,,crxtjl,"[""c"",""r"",""x"",""t"",""j"",""l""]","[1.072999999999979,1.3410000000000082,2.243000000000052,3.5779999999999745,4.835000000000036,5.052999999999997,6.004000000000019]",0,CRXTSJM,11,0,11,0,1,,,,,,,,,,,,,,,,,,,,,,,,,,,,,,,,,,,,,,,,,,,,,,,,,,,,,,,,,,,,,,,,,,,,,,,,,,,,,,,,,,,
,,,,,,,,,,5f4f5fa9cb9a39000c600ad3,43,Mężczyzna,2022-06-04_08h17.32.635,task,2021.1.4,Win32,60.0240096,628b806c463b948bc644b84f,629af8ecffac1b4a1e7bb01b,,,,,0,0,0,0,1,X V Q F H G B L J M P D K C T S W R N Z,,,,,,,,,,,,,,,,,,,,,,,,,,,,,,,,,,,,,,,,,,,,,,,,,,,,,,,,,,,,,,,,,,,,,,,,,,,,,,,,,,,,,,,,,,,,,
,,,,,,,,,,5f4f5fa9cb9a39000c600ad3,43,Mężczyzna,2022-06-04_08h17.32.635,task,2021.1.4,Win32,60.0240096,628b806c463b948bc644b84f,629af8ecffac1b4a1e7bb01b,,,,,1,0,1,0,1,X V Q F H G B L J M P D K C T S W R N Z,,,,,,,,,,,,,,,,,,,,,,,,,,,,,,,,,,,,,,,,,,,,,,,,,,,,,,,,,,,,,,,,,,,,,,,,,,,,,,,,,,,,,,,,,,,,,
,,,,,,,,,,5f4f5fa9cb9a39000c600ad3,43,Mężczyzna,2022-06-04_08h17.32.635,task,2021.1.4,Win32,60.0240096,628b806c463b948bc644b84f,629af8ecffac1b4a1e7bb01b,,,,,2,0,2,0,1,X V Q F H G B L J M P D K C T S W R N Z,,,,,,,,,,,,,,,,,,,,,,,,,,,,,,,,,,,,,,,,,,,,,,,,,,,,,,,,,,,,,,,,,,,,,,,,,,,,,,,,,,,,,,,,,,,,,
,,,,,,,,,,5f4f5fa9cb9a39000c600ad3,43,Mężczyzna,2022-06-04_08h17.32.635,task,2021.1.4,Win32,60.0240096,628b806c463b948bc644b84f,629af8ecffac1b4a1e7bb01b,,,,,3,0,3,0,1,X V Q F H G B L J M P D K C T S W R N Z,,,,,,,,,,,,,,,,,,,,,,,,,,,,,,,,,,,,,,,,,,,,,,,,,,,,,,,,,,,,,,,,,,,,,,,,,,,,,,,,,,,,,,,,,,,,,
,,,,,,,,,,5f4f5fa9cb9a39000c600ad3,43,Mężczyzna,2022-06-04_08h17.32.635,task,2021.1.4,Win32,60.0240096,628b806c463b948bc644b84f,629af8ecffac1b4a1e7bb01b,,,,,4,0,4,0,1,X V Q F H G B L J M P D K C T S W R N Z,,,,,,,,,,,,,,,,,,,,,,,,,,,,,,,,,,,,,,,,,,,,,,,,,,,,,,,,,,,,,,,,,,,,,,,,,,,,,,,,,,,,,,,,,,,,,
,,,,,,,,,,5f4f5fa9cb9a39000c600ad3,43,Mężczyzna,2022-06-04_08h17.32.635,task,2021.1.4,Win32,60.0240096,628b806c463b948bc644b84f,629af8ecffac1b4a1e7bb01b,,,,,5,0,5,0,1,X V Q F H G B L J M P D K C T S W R N Z,,,,,,,,,,,,,,,,,,,,,,,,,,,,,,,,,,,,,,,,,,,,,,,,,,,,,,,,,,,,,,,,,,,,,,,,,,,,,,,,,,,,,,,,,,,,,
,,,,,,,,,,5f4f5fa9cb9a39000c600ad3,43,Mężczyzna,2022-06-04_08h17.32.635,task,2021.1.4,Win32,60.0240096,628b806c463b948bc644b84f,629af8ecffac1b4a1e7bb01b,,,,,6,0,6,0,1,X V Q F H G B L J M P D K C T S W R N Z,,,,,,,,,,,,,,,,,,,,,,,,,,,,,,,,,,,,,,,,,,,,,,,,,,,,,,,,,,,,,,,,,,,,,,,,,,,,,,,,,,,,,,,,,,,,,
,,,,,,,,,,5f4f5fa9cb9a39000c600ad3,43,Mężczyzna,2022-06-04_08h17.32.635,task,2021.1.4,Win32,60.0240096,628b806c463b948bc644b84f,629af8ecffac1b4a1e7bb01b,,,,,,,,,,,zqkkfq,"[""z"",""q"",""k"",""k"",""f"",""q""]","[1.3770000000000664,2.550000000000068,3.6660000000000537,4.527000000000044,5.801000000000045,6.896000000000072,7.488000000000056]",0,ZQTQKFX,12,0,12,0,1,,,,,,,,,,,,,,,,,,,,,,,,,,,,,,,,,,,,,,,,,,,,,,,,,,,,,,,,,,,,,,,,,,,,,,,,,,,,,,,,,,,
,,,,,,,,,,5f4f5fa9cb9a39000c600ad3,43,Mężczyzna,2022-06-04_08h17.32.635,task,2021.1.4,Win32,60.0240096,628b806c463b948bc644b84f,629af8ecffac1b4a1e7bb01b,,,,,0,0,0,0,1,X V Q F H G B L J M P D K C T S W R N Z,,,,,,,,,,,,,,,,,,,,,,,,,,,,,,,,,,,,,,,,,,,,,,,,,,,,,,,,,,,,,,,,,,,,,,,,,,,,,,,,,,,,,,,,,,,,,
,,,,,,,,,,5f4f5fa9cb9a39000c600ad3,43,Mężczyzna,2022-06-04_08h17.32.635,task,2021.1.4,Win32,60.0240096,628b806c463b948bc644b84f,629af8ecffac1b4a1e7bb01b,,,,,1,0,1,0,1,X V Q F H G B L J M P D K C T S W R N Z,,,,,,,,,,,,,,,,,,,,,,,,,,,,,,,,,,,,,,,,,,,,,,,,,,,,,,,,,,,,,,,,,,,,,,,,,,,,,,,,,,,,,,,,,,,,,
,,,,,,,,,,5f4f5fa9cb9a39000c600ad3,43,Mężczyzna,2022-06-04_08h17.32.635,task,2021.1.4,Win32,60.0240096,628b806c463b948bc644b84f,629af8ecffac1b4a1e7bb01b,,,,,2,0,2,0,1,X V Q F H G B L J M P D K C T S W R N Z,,,,,,,,,,,,,,,,,,,,,,,,,,,,,,,,,,,,,,,,,,,,,,,,,,,,,,,,,,,,,,,,,,,,,,,,,,,,,,,,,,,,,,,,,,,,,
,,,,,,,,,,5f4f5fa9cb9a39000c600ad3,43,Mężczyzna,2022-06-04_08h17.32.635,task,2021.1.4,Win32,60.0240096,628b806c463b948bc644b84f,629af8ecffac1b4a1e7bb01b,,,,,3,0,3,0,1,X V Q F H G B L J M P D K C T S W R N Z,,,,,,,,,,,,,,,,,,,,,,,,,,,,,,,,,,,,,,,,,,,,,,,,,,,,,,,,,,,,,,,,,,,,,,,,,,,,,,,,,,,,,,,,,,,,,
,,,,,,,,,,5f4f5fa9cb9a39000c600ad3,43,Mężczyzna,2022-06-04_08h17.32.635,task,2021.1.4,Win32,60.0240096,628b806c463b948bc644b84f,629af8ecffac1b4a1e7bb01b,,,,,4,0,4,0,1,X V Q F H G B L J M P D K C T S W R N Z,,,,,,,,,,,,,,,,,,,,,,,,,,,,,,,,,,,,,,,,,,,,,,,,,,,,,,,,,,,,,,,,,,,,,,,,,,,,,,,,,,,,,,,,,,,,,
,,,,,,,,,,5f4f5fa9cb9a39000c600ad3,43,Mężczyzna,2022-06-04_08h17.32.635,task,2021.1.4,Win32,60.0240096,628b806c463b948bc644b84f,629af8ecffac1b4a1e7bb01b,,,,,5,0,5,0,1,X V Q F H G B L J M P D K C T S W R N Z,,,,,,,,,,,,,,,,,,,,,,,,,,,,,,,,,,,,,,,,,,,,,,,,,,,,,,,,,,,,,,,,,,,,,,,,,,,,,,,,,,,,,,,,,,,,,
,,,,,,,,,,5f4f5fa9cb9a39000c600ad3,43,Mężczyzna,2022-06-04_08h17.32.635,task,2021.1.4,Win32,60.0240096,628b806c463b948bc644b84f,629af8ecffac1b4a1e7bb01b,,,,,6,0,6,0,1,X V Q F H G B L J M P D K C T S W R N Z,,,,,,,,,,,,,,,,,,,,,,,,,,,,,,,,,,,,,,,,,,,,,,,,,,,,,,,,,,,,,,,,,,,,,,,,,,,,,,,,,,,,,,,,,,,,,
,,,,,,,,,,5f4f5fa9cb9a39000c600ad3,43,Mężczyzna,2022-06-04_08h17.32.635,task,2021.1.4,Win32,60.0240096,628b806c463b948bc644b84f,629af8ecffac1b4a1e7bb01b,,,,,,,,,,,rlltfcqg,"[""r"",""l"",""l"",""t"",""f"",""c"",""q"",""g""]","[1.8470000000000937,3.1660000000000537,3.3310000000000173,4.465000000000032,6.288000000000011,7.671000000000049,8.010000000000105,8.522000000000048,9.131000000000085]",0,RLTFCQG,13,0,13,0,1,,,,,,,,,,,,,,,,,,,,,,,,,,,,,,,,,,,,,,,,,,,,,,,,,,,,,,,,,,,,,,,,,,,,,,,,,,,,,,,,,,,
,,,,,,,,,,5f4f5fa9cb9a39000c600ad3,43,Mężczyzna,2022-06-04_08h17.32.635,task,2021.1.4,Win32,60.0240096,628b806c463b948bc644b84f,629af8ecffac1b4a1e7bb01b,,,,,,,,,,,,,,,,,,,,,space,25.774,7,"[""7""]",1,[4.802999999999997],[4.802999999999997],0,0,0,7,1,Practice,8,(5x5) - 18,7,,,,,,,,,,,,,,,,,,,,,,,,,,,,,,,,,,,,,,,,,,,,,,,,,,,,,,,,,,,,,,,,,,,
,,,,,,,,,,5f4f5fa9cb9a39000c600ad3,43,Mężczyzna,2022-06-04_08h17.32.635,task,2021.1.4,Win32,60.0240096,628b806c463b948bc644b84f,629af8ecffac1b4a1e7bb01b,,,,,,,,,,,,,,,,,,,,,,,0,"[""0""]",1,[2.4610000000000127],"[4.802999999999997,2.4610000000000127]",0,1,1,0,1,Practice,1,(3x3) -  9,0,,,,,,,,,,,,,,,,,,,,,,,,,,,,,,,,,,,,,,,,,,,,,,,,,,,,,,,,,,,,,,,,,,,
,,,,,,,,,,5f4f5fa9cb9a39000c600ad3,43,Mężczyzna,2022-06-04_08h17.32.635,task,2021.1.4,Win32,60.0240096,628b806c463b948bc644b84f,629af8ecffac1b4a1e7bb01b,,,,,,,,,,,,,,,,,,,,,,,8,"[""8""]",1,[2.671999999999912],"[4.802999999999997,2.4610000000000127,2.671999999999912]",0,2,2,8,1,Practice,9,(3x3) - 1,8,,,,,,,,,,,,,,,,,,,,,,,,,,,,,,,,,,,,,,,,,,,,,,,,,,,,,,,,,,,,,,,,,,,
,,,,,,,,,,5f4f5fa9cb9a39000c600ad3,43,Mężczyzna,2022-06-04_08h17.32.635,task,2021.1.4,Win32,60.0240096,628b806c463b948bc644b84f,629af8ecffac1b4a1e7bb01b,,,,,,,,,,,,,,,,,,,,,,,4,"[""4""]",1,[3.59699999999998],"[4.802999999999997,2.4610000000000127,2.671999999999912,3.59699999999998]",0,3,3,4,1,Practice,5,(2x6) - 8,4,,,,,,,,,,,,,,,,,,,,,,,,,,,,,,,,,,,,,,,,,,,,,,,,,,,,,,,,,,,,,,,,,,,
,,,,,,,,,,5f4f5fa9cb9a39000c600ad3,43,Mężczyzna,2022-06-04_08h17.32.635,task,2021.1.4,Win32,60.0240096,628b806c463b948bc644b84f,629af8ecffac1b4a1e7bb01b,,,,,,,,,,,,,,,,,,,,,,,5,"[""5""]",1,[2.1809999999999263],"[4.802999999999997,2.4610000000000127,2.671999999999912,3.59699999999998,2.1809999999999263]",0,4,4,5,1,Practice,6,(4/2) + 3,5,,,,,,,,,,,,,,,,,,,,,,,,,,,,,,,,,,,,,,,,,,,,,,,,,,,,,,,,,,,,,,,,,,,
,,,,,,,,,,5f4f5fa9cb9a39000c600ad3,43,Mężczyzna,2022-06-04_08h17.32.635,task,2021.1.4,Win32,60.0240096,628b806c463b948bc644b84f,629af8ecffac1b4a1e7bb01b,,,,,,,,,,,,,,,,,,,,,,,1,"[""1""]",1,[1.774000000000001],"[4.802999999999997,2.4610000000000127,2.671999999999912,3.59699999999998,2.1809999999999263,1.774000000000001]",0,5,5,1,1,Practice,2,(4x4) - 15,1,,,,,,,,,,,,,,,,,,,,,,,,,,,,,,,,,,,,,,,,,,,,,,,,,,,,,,,,,,,,,,,,,,,
,,,,,,,,,,5f4f5fa9cb9a39000c600ad3,43,Mężczyzna,2022-06-04_08h17.32.635,task,2021.1.4,Win32,60.0240096,628b806c463b948bc644b84f,629af8ecffac1b4a1e7bb01b,,,,,,,,,,,,,,,,,,,,,,,2,"[""2""]",1,[2.103999999999928],"[4.802999999999997,2.4610000000000127,2.671999999999912,3.59699999999998,2.1809999999999263,1.774000000000001,2.103999999999928]",0,6,6,2,1,Practice,3,(4x4) - 14,2,,,,,,,,,,,,,,,,,,,,,,,,,,,,,,,,,,,,,,,,,,,,,,,,,,,,,,,,,,,,,,,,,,,
,,,,,,,,,,5f4f5fa9cb9a39000c600ad3,43,Mężczyzna,2022-06-04_08h17.32.635,task,2021.1.4,Win32,60.0240096,628b806c463b948bc644b84f,629af8ecffac1b4a1e7bb01b,,,,,,,,,,,,,,,,,,,,,,,6,"[""6""]",1,[2.0299999999999727],"[4.802999999999997,2.4610000000000127,2.671999999999912,3.59699999999998,2.1809999999999263,1.774000000000001,2.103999999999928,2.0299999999999727]",0,7,7,6,1,Practice,7,(25/5) + 1,6,,,,,,,,,,,,,,,,,,,,,,,,,,,,,,,,,,,,,,,,,,,,,,,,,,,,,,,,,,,,,,,,,,,
,,,,,,,,,,5f4f5fa9cb9a39000c600ad3,43,Mężczyzna,2022-06-04_08h17.32.635,task,2021.1.4,Win32,60.0240096,628b806c463b948bc644b84f,629af8ecffac1b4a1e7bb01b,,,,,,,,,,,,,,,,,,,,,,,3,"[""3""]",1,[1.891999999999939],"[4.802999999999997,2.4610000000000127,2.671999999999912,3.59699999999998,2.1809999999999263,1.774000000000001,2.103999999999928,2.0299999999999727,1.891999999999939]",0,8,8,3,1,Practice,4,(8/4) + 1,3,,,,,,,,,,,,,,,,,,,,,,,,,,,,,,,,,,,,,,,,,,,,,,,,,,,,,,,,,,,,,,,,,,,
,,,,,,,,,,5f4f5fa9cb9a39000c600ad3,43,Mężczyzna,2022-06-04_08h17.32.635,task,2021.1.4,Win32,60.0240096,628b806c463b948bc644b84f,629af8ecffac1b4a1e7bb01b,,,,,,,,,,,,,,,,,,,,,,,9,"[""9""]",1,[2.0850000000000364],"[4.802999999999997,2.4610000000000127,2.671999999999912,3.59699999999998,2.1809999999999263,1.774000000000001,2.103999999999928,2.0299999999999727,1.891999999999939,2.0850000000000364]",0,9,9,9,1,Practice,10,(20/2) - 1,9,,,,,,,,,,,,,,,,,,,,,,,,,,,,,,,,,,,,,,,,,,,,,,,,,,,,,,,,,,,,,,,,,,,
,,,,,,,,,,5f4f5fa9cb9a39000c600ad3,43,Mężczyzna,2022-06-04_08h17.32.635,task,2021.1.4,Win32,60.0240096,628b806c463b948bc644b84f,629af8ecffac1b4a1e7bb01b,,,,,,,,,,,,,,,,,,,,,,,,,,,,,,,,,,,,,1,25.599,1.7066,15.3320938,1.011009192,4.315003716,space,9.677,0,0,0,0,1,,,,,,,,,,,,,,,,,,,,,,,,,,,,,,,,,,,,,,,,,,,,,,,,,,,,,,
,,,,,,,,,,5f4f5fa9cb9a39000c600ad3,43,Mężczyzna,2022-06-04_08h17.32.635,task,2021.1.4,Win32,60.0240096,628b806c463b948bc644b84f,629af8ecffac1b4a1e7bb01b,,,,,,,,,,,,,,,,,,,,,,,,,,,,,,,,,Practice,9,(3x3) - 1,8,,,,,,,,,,,,,,space,19.684,,0,0,0,0,0,8,1,,,,,,,,,,,,,,,,,,,,,,,,,,,,,,,,,,,,,,,,,,,,
,,,,,,,,,,5f4f5fa9cb9a39000c600ad3,43,Mężczyzna,2022-06-04_08h17.32.635,task,2021.1.4,Win32,60.0240096,628b806c463b948bc644b84f,629af8ecffac1b4a1e7bb01b,,,,,,,,,,,,,,,,,,,,,,,6,,,,,,,,,,Practice,7,(25/5) + 1,6,,,,,,,,,,,,,,,,"[""6""]",1,1,0,1,1,6,1,[2.3199999999999363],,,,,,,,,,,,,,,,,,,,,,,,,,,,,,,,,,,,,,,,,,,
,,,,,,,,,,5f4f5fa9cb9a39000c600ad3,43,Mężczyzna,2022-06-04_08h17.32.635,task,2021.1.4,Win32,60.0240096,628b806c463b948bc644b84f,629af8ecffac1b4a1e7bb01b,,,,,,,,,,X V Q F H G B L J M P D K C T S W R N Z,,,,,,,,,,,,,,,,,,,,,,,,,,,,,,,,,,,,,,,,,,,,,,,,,,,0,0,0,0,1,,,,,,,,,,,,,,,,,,,,,,,,,,,,,,,,,,,,,,
,,,,,,,,,,5f4f5fa9cb9a39000c600ad3,43,Mężczyzna,2022-06-04_08h17.32.635,task,2021.1.4,Win32,60.0240096,628b806c463b948bc644b84f,629af8ecffac1b4a1e7bb01b,,,,,,,,,,,,,,,,,,,,,,,7,,,,,,,,,,Practice,8,(5x5) - 18,7,,,,,,,,,,,,,,,,"[""7""]",1,1,0,0,0,7,1,[4.022999999999911],,,,,,,,,,,,,,,,,,,,,,,,,,,,,,,,,,,,,,,,,,,
,,,,,,,,,,5f4f5fa9cb9a39000c600ad3,43,Mężczyzna,2022-06-04_08h17.32.635,task,2021.1.4,Win32,60.0240096,628b806c463b948bc644b84f,629af8ecffac1b4a1e7bb01b,,,,,,,,,,X V Q F H G B L J M P D K C T S W R N Z,,,,,,,,,,,,,,,,,,,,,,,,,,,,,,,,,,,,,,,,,,,,,,,,,,,1,0,1,0,1,,,,,,,,,,,,,,,,,,,,,,,,,,,,,,,,,,,,,,
,,,,,,,,,,5f4f5fa9cb9a39000c600ad3,43,Mężczyzna,2022-06-04_08h17.32.635,task,2021.1.4,Win32,60.0240096,628b806c463b948bc644b84f,629af8ecffac1b4a1e7bb01b,,,,,,,,,,,,,,,,,,,,,,,,,,,,,,,,,,,,,,,,,,,,,,,,,,,,,,,,,,,,,,,,,,zw,"[""z"",""w""]",0,"[401.4359999999999,401.6289999999999,402.8119999999999]",1,0,0,0,0,1,,,,,,,,,,,,,,,,,,,,,,,,,,,,
,,,,,,,,,,5f4f5fa9cb9a39000c600ad3,43,Mężczyzna,2022-06-04_08h17.32.635,task,2021.1.4,Win32,60.0240096,628b806c463b948bc644b84f,629af8ecffac1b4a1e7bb01b,,,,,,,,,,,,,,,,,,,,,,,1,,,,,,,,,,Practice,2,(4x4) - 15,1,,,,,,,,,,,,,,,,"[""1""]",1,1,0,0,0,1,1,[2.466000000000122],,,,,,,,,,,,,,,,,,,,,,,,,,,,,,,,,,,,,,,,,,,
,,,,,,,,,,5f4f5fa9cb9a39000c600ad3,43,Mężczyzna,2022-06-04_08h17.32.635,task,2021.1.4,Win32,60.0240096,628b806c463b948bc644b84f,629af8ecffac1b4a1e7bb01b,,,,,,,,,,X V Q F H G B L J M P D K C T S W R N Z,,,,,,,,,,,,,,,,,,,,,,,,,,,,,,,,,,,,,,,,,,,,,,,,,,,0,0,0,0,1,,,,,,,,,,,,,,,,,,,,,,,,,,,,,,,,,,,,,,
,,,,,,,,,,5f4f5fa9cb9a39000c600ad3,43,Mężczyzna,2022-06-04_08h17.32.635,task,2021.1.4,Win32,60.0240096,628b806c463b948bc644b84f,629af8ecffac1b4a1e7bb01b,,,,,,,,,,,,,,,,,,,,,,,3,,,,,,,,,,Practice,4,(8/4) + 1,3,,,,,,,,,,,,,,,,"[""3""]",1,1,0,0,0,3,1,[3.7950000000000728],,,,,,,,,,,,,,,,,,,,,,,,,,,,,,,,,,,,,,,,,,,
,,,,,,,,,,5f4f5fa9cb9a39000c600ad3,43,Mężczyzna,2022-06-04_08h17.32.635,task,2021.1.4,Win32,60.0240096,628b806c463b948bc644b84f,629af8ecffac1b4a1e7bb01b,,,,,,,,,,X V Q F H G B L J M P D K C T S W R N Z,,,,,,,,,,,,,,,,,,,,,,,,,,,,,,,,,,,,,,,,,,,,,,,,,,,1,0,1,0,1,,,,,,,,,,,,,,,,,,,,,,,,,,,,,,,,,,,,,,
,,,,,,,,,,5f4f5fa9cb9a39000c600ad3,43,Mężczyzna,2022-06-04_08h17.32.635,task,2021.1.4,Win32,60.0240096,628b806c463b948bc644b84f,629af8ecffac1b4a1e7bb01b,,,,,,,,,,,,,,,,,,,,,,,,,,,,,,,,,,,,,,,,,,,,,,,,,,,,,,,,,,,,,,,,,,jw,"[""j"",""w""]",0,"[4.335000000000036,4.767000000000053,5.942999999999984]",1,1,0,1,0,1,,,,,,,,,,,,,,,,,,,,,,,,,,,,
,,,,,,,,,,5f4f5fa9cb9a39000c600ad3,43,Mężczyzna,2022-06-04_08h17.32.635,task,2021.1.4,Win32,60.0240096,628b806c463b948bc644b84f,629af8ecffac1b4a1e7bb01b,,,,,,,,,,,,,,,,,,,,,,,2,,,,,,,,,,Practice,3,(4x4) - 14,2,,,,,,,,,,,,,,,,"[""2""]",1,1,0,0,0,2,1,[2.3600000000001273],,,,,,,,,,,,,,,,,,,,,,,,,,,,,,,,,,,,,,,,,,,
,,,,,,,,,,5f4f5fa9cb9a39000c600ad3,43,Mężczyzna,2022-06-04_08h17.32.635,task,2021.1.4,Win32,60.0240096,628b806c463b948bc644b84f,629af8ecffac1b4a1e7bb01b,,,,,,,,,,X V Q F H G B L J M P D K C T S W R N Z,,,,,,,,,,,,,,,,,,,,,,,,,,,,,,,,,,,,,,,,,,,,,,,,,,,0,0,0,0,1,,,,,,,,,,,,,,,,,,,,,,,,,,,,,,,,,,,,,,
,,,,,,,,,,5f4f5fa9cb9a39000c600ad3,43,Mężczyzna,2022-06-04_08h17.32.635,task,2021.1.4,Win32,60.0240096,628b806c463b948bc644b84f,629af8ecffac1b4a1e7bb01b,,,,,,,,,,,,,,,,,,,,,,,2,,,,,,,,,,Practice,3,(4x4) - 14,2,,,,,,,,,,,,,,,,"[""2""]",1,1,0,0,0,2,1,[2.2229999999999563],,,,,,,,,,,,,,,,,,,,,,,,,,,,,,,,,,,,,,,,,,,
,,,,,,,,,,5f4f5fa9cb9a39000c600ad3,43,Mężczyzna,2022-06-04_08h17.32.635,task,2021.1.4,Win32,60.0240096,628b806c463b948bc644b84f,629af8ecffac1b4a1e7bb01b,,,,,,,,,,X V Q F H G B L J M P D K C T S W R N Z,,,,,,,,,,,,,,,,,,,,,,,,,,,,,,,,,,,,,,,,,,,,,,,,,,,1,0,1,0,1,,,,,,,,,,,,,,,,,,,,,,,,,,,,,,,,,,,,,,
,,,,,,,,,,5f4f5fa9cb9a39000c600ad3,43,Mężczyzna,2022-06-04_08h17.32.635,task,2021.1.4,Win32,60.0240096,628b806c463b948bc644b84f,629af8ecffac1b4a1e7bb01b,,,,,,,,,,,,,,,,,,,,,,,,,,,,,,,,,,,,,,,,,,,,,,,,,,,,,,,,,,,,,,,,,,hm,"[""h"",""m""]",0,"[2.747000000000071,2.980000000000018,4.145999999999958]",1,2,0,2,0,1,,,,,,,,,,,,,,,,,,,,,,,,,,,,
,,,,,,,,,,5f4f5fa9cb9a39000c600ad3,43,Mężczyzna,2022-06-04_08h17.32.635,task,2021.1.4,Win32,60.0240096,628b806c463b948bc644b84f,629af8ecffac1b4a1e7bb01b,,,,,,,,,,,,,,,,,,,,,,,6,,,,,,,,,,Task,13,(3x4) - 6,6,,,,,,,,,,,,,,,,,,1,,,,,,,,,,,,,,,,,,,,,,space,123.469,"[""6""]",1,[2.3969999999999345],0,0,0,12,1,,,,,,,,,,,,,,,,,,
,,,,,,,,,,5f4f5fa9cb9a39000c600ad3,43,Mężczyzna,2022-06-04_08h17.32.635,task,2021.1.4,Win32,60.0240096,628b806c463b948bc644b84f,629af8ecffac1b4a1e7bb01b,,,,,,,,,,X V Q F H G B L J M P D K C T S W R N Z,,,,,,,,,,,,,,,,,,,,,,,,,,,,,,,,,,,,,,,,,,,,,,,,,,,,,,,,,,,,,,,,,,,,,,,,,,,,0,0,0,0,1,,,,,,,,,,,,,
,,,,,,,,,,5f4f5fa9cb9a39000c600ad3,43,Mężczyzna,2022-06-04_08h17.32.635,task,2021.1.4,Win32,60.0240096,628b806c463b948bc644b84f,629af8ecffac1b4a1e7bb01b,,,,,,,,,,,,,,,,,,,,,,,2,,,,,,,,,,Task,19,(6/2) - 1,2,,,,,,,,,,,,,,,,,,1,,,,,,,,,,,,,,,,,,,,,,,,"[""2""]",1,[2.094000000000051],0,0,0,18,1,,,,,,,,,,,,,,,,,,
,,,,,,,,,,5f4f5fa9cb9a39000c600ad3,43,Mężczyzna,2022-06-04_08h17.32.635,task,2021.1.4,Win32,60.0240096,628b806c463b948bc644b84f,629af8ecffac1b4a1e7bb01b,,,,,,,,,,X V Q F H G B L J M P D K C T S W R N Z,,,,,,,,,,,,,,,,,,,,,,,,,,,,,,,,,,,,,,,,,,,,,,,,,,,,,,,,,,,,,,,,,,,,,,,,,,,,1,0,1,0,1,,,,,,,,,,,,,
,,,,,,,,,,5f4f5fa9cb9a39000c600ad3,43,Mężczyzna,2022-06-04_08h17.32.635,task,2021.1.4,Win32,60.0240096,628b806c463b948bc644b84f,629af8ecffac1b4a1e7bb01b,,,,,,,,,,,,,,,,,,,,,,,,,,,,,,,,,,,,,,,,,,,,,,,,,,,,,,,,,,,,,,,,,,,,,,,,,,,,,,,,,,,,,,,,,,,zf,"[""z"",""f""]",0,"[2.1959999999999127,2.5149999999998727,4.173000000000002]",1,ZF,0,0,0,0,1,,
,,,,,,,,,,5f4f5fa9cb9a39000c600ad3,43,Mężczyzna,2022-06-04_08h17.32.635,task,2021.1.4,Win32,60.0240096,628b806c463b948bc644b84f,629af8ecffac1b4a1e7bb01b,,,,,,,,,,,,,,,,,,,,,,,0,,,,,,,,,,Task,17,(2x3) - 6,0,,,,,,,,,,,,,,,,,,1,,,,,,,,,,,,,,,,,,,,,,,,"[""0""]",1,[1.6410000000000764],0,0,0,16,1,,,,,,,,,,,,,,,,,,
,,,,,,,,,,5f4f5fa9cb9a39000c600ad3,43,Mężczyzna,2022-06-04_08h17.32.635,task,2021.1.4,Win32,60.0240096,628b806c463b948bc644b84f,629af8ecffac1b4a1e7bb01b,,,,,,,,,,X V Q F H G B L J M P D K C T S W R N Z,,,,,,,,,,,,,,,,,,,,,,,,,,,,,,,,,,,,,,,,,,,,,,,,,,,,,,,,,,,,,,,,,,,,,,,,,,,,0,0,0,0,1,,,,,,,,,,,,,
,,,,,,,,,,5f4f5fa9cb9a39000c600ad3,43,Mężczyzna,2022-06-04_08h17.32.635,task,2021.1.4,Win32,60.0240096,628b806c463b948bc644b84f,629af8ecffac1b4a1e7bb01b,,,,,,,,,,,,,,,,,,,,,,,1,,,,,,,,,,Task,18,(16/4) - 3,1,,,,,,,,,,,,,,,,,,1,,,,,,,,,,,,,,,,,,,,,,,,"[""1""]",1,[3.078999999999951],0,0,0,17,1,,,,,,,,,,,,,,,,,,
,,,,,,,,,,5f4f5fa9cb9a39000c600ad3,43,Mężczyzna,2022-06-04_08h17.32.635,task,2021.1.4,Win32,60.0240096,628b806c463b948bc644b84f,629af8ecffac1b4a1e7bb01b,,,,,,,,,,X V Q F H G B L J M P D K C T S W R N Z,,,,,,,,,,,,,,,,,,,,,,,,,,,,,,,,,,,,,,,,,,,,,,,,,,,,,,,,,,,,,,,,,,,,,,,,,,,,1,0,1,0,1,,,,,,,,,,,,,
,,,,,,,,,,5f4f5fa9cb9a39000c600ad3,43,Mężczyzna,2022-06-04_08h17.32.635,task,2021.1.4,Win32,60.0240096,628b806c463b948bc644b84f,629af8ecffac1b4a1e7bb01b,,,,,,,,,,,,,,,,,,,,,,,3,,,,,,,,,,Task,3,(2x3) - 3,3,,,,,,,,,,,,,,,,,,1,,,,,,,,,,,,,,,,,,,,,,,,"[""3""]",1,[2.201000000000022],0,0,0,2,1,,,,,,,,,,,,,,,,,,
,,,,,,,,,,5f4f5fa9cb9a39000c600ad3,43,Mężczyzna,2022-06-04_08h17.32.635,task,2021.1.4,Win32,60.0240096,628b806c463b948bc644b84f,629af8ecffac1b4a1e7bb01b,,,,,,,,,,X V Q F H G B L J M P D K C T S W R N Z,,,,,,,,,,,,,,,,,,,,,,,,,,,,,,,,,,,,,,,,,,,,,,,,,,,,,,,,,,,,,,,,,,,,,,,,,,,,2,0,2,0,1,,,,,,,,,,,,,
,,,,,,,,,,5f4f5fa9cb9a39000c600ad3,43,Mężczyzna,2022-06-04_08h17.32.635,task,2021.1.4,Win32,60.0240096,628b806c463b948bc644b84f,629af8ecffac1b4a1e7bb01b,,,,,,,,,,,,,,,,,,,,,,,,,,,,,,,,,,,,,,,,,,,,,,,,,,,,,,,,,,,,,,,,,,,,,,,,,,,,,,,,,,,,,,,,,,,kpl,"[""k"",""p"",""l""]",0,"[2.8379999999999654,3.145999999999958,3.769999999999982,5.342000000000098]",1,KPL,1,0,1,0,1,,
,,,,,,,,,,5f4f5fa9cb9a39000c600ad3,43,Mężczyzna,2022-06-04_08h17.32.635,task,2021.1.4,Win32,60.0240096,628b806c463b948bc644b84f,629af8ecffac1b4a1e7bb01b,,,,,,,,,,,,,,,,,,,,,,,,,,,,,,,,,Task,29,(3x8) - 19 ,5,,,,,,,,,,,,,,,,,,0,,,,,,,,,,,,,,,,,,,,,,,,,0,,0,0,0,28,1,,,,,,,,,,,,,,,,,,
,,,,,,,,,,5f4f5fa9cb9a39000c600ad3,43,Mężczyzna,2022-06-04_08h17.32.635,task,2021.1.4,Win32,60.0240096,628b806c463b948bc644b84f,629af8ecffac1b4a1e7bb01b,,,,,,,,,,,,,,,,,,,,,,,0,,,,,,,,,,Task,8,(1x5) - 5,0,,,,,,,,,,,,,,,,,,1,,,,,,,,,,,,,,,,,,,,,,,,"[""0""]",1,[2.0720000000001164],0,1,1,7,1,,,,,,,,,,,,,,,,,,
,,,,,,,,,,5f4f5fa9cb9a39000c600ad3,43,Mężczyzna,2022-06-04_08h17.32.635,task,2021.1.4,Win32,60.0240096,628b806c463b948bc644b84f,629af8ecffac1b4a1e7bb01b,,,,,,,,,,X V Q F H G B L J M P D K C T S W R N Z,,,,,,,,,,,,,,,,,,,,,,,,,,,,,,,,,,,,,,,,,,,,,,,,,,,,,,,,,,,,,,,,,,,,,,,,,,,,0,0,0,0,1,,,,,,,,,,,,,
,,,,,,,,,,5f4f5fa9cb9a39000c600ad3,43,Mężczyzna,2022-06-04_08h17.32.635,task,2021.1.4,Win32,60.0240096,628b806c463b948bc644b84f,629af8ecffac1b4a1e7bb01b,,,,,,,,,,,,,,,,,,,,,,,0,,,,,,,,,,Task,8,(1x5) - 5,0,,,,,,,,,,,,,,,,,,1,,,,,,,,,,,,,,,,,,,,,,,,"[""0""]",1,[1.7940000000000964],0,0,0,7,1,,,,,,,,,,,,,,,,,,
,,,,,,,,,,5f4f5fa9cb9a39000c600ad3,43,Mężczyzna,2022-06-04_08h17.32.635,task,2021.1.4,Win32,60.0240096,628b806c463b948bc644b84f,629af8ecffac1b4a1e7bb01b,,,,,,,,,,X V Q F H G B L J M P D K C T S W R N Z,,,,,,,,,,,,,,,,,,,,,,,,,,,,,,,,,,,,,,,,,,,,,,,,,,,,,,,,,,,,,,,,,,,,,,,,,,,,1,0,1,0,1,,,,,,,,,,,,,
,,,,,,,,,,5f4f5fa9cb9a39000c600ad3,43,Mężczyzna,2022-06-04_08h17.32.635,task,2021.1.4,Win32,60.0240096,628b806c463b948bc644b84f,629af8ecffac1b4a1e7bb01b,,,,,,,,,,,,,,,,,,,,,,,2,,,,,,,,,,Task,10,(2x5) - 8,2,,,,,,,,,,,,,,,,,,1,,,,,,,,,,,,,,,,,,,,,,,,"[""2""]",1,[2.140999999999849],0,0,0,9,1,,,,,,,,,,,,,,,,,,
,,,,,,,,,,5f4f5fa9cb9a39000c600ad3,43,Mężczyzna,2022-06-04_08h17.32.635,task,2021.1.4,Win32,60.0240096,628b806c463b948bc644b84f,629af8ecffac1b4a1e7bb01b,,,,,,,,,,X V Q F H G B L J M P D K C T S W R N Z,,,,,,,,,,,,,,,,,,,,,,,,,,,,,,,,,,,,,,,,,,,,,,,,,,,,,,,,,,,,,,,,,,,,,,,,,,,,2,0,2,0,1,,,,,,,,,,,,,
,,,,,,,,,,5f4f5fa9cb9a39000c600ad3,43,Mężczyzna,2022-06-04_08h17.32.635,task,2021.1.4,Win32,60.0240096,628b806c463b948bc644b84f,629af8ecffac1b4a1e7bb01b,,,,,,,,,,,,,,,,,,,,,,,5,,,,,,,,,,Task,36,(8/4) + 3,5,,,,,,,,,,,,,,,,,,1,,,,,,,,,,,,,,,,,,,,,,,,"[""5""]",1,[2.1380000000001473],0,0,0,35,1,,,,,,,,,,,,,,,,,,
,,,,,,,,,,5f4f5fa9cb9a39000c600ad3,43,Mężczyzna,2022-06-04_08h17.32.635,task,2021.1.4,Win32,60.0240096,628b806c463b948bc644b84f,629af8ecffac1b4a1e7bb01b,,,,,,,,,,X V Q F H G B L J M P D K C T S W R N Z,,,,,,,,,,,,,,,,,,,,,,,,,,,,,,,,,,,,,,,,,,,,,,,,,,,,,,,,,,,,,,,,,,,,,,,,,,,,3,0,3,0,1,,,,,,,,,,,,,
,,,,,,,,,,5f4f5fa9cb9a39000c600ad3,43,Mężczyzna,2022-06-04_08h17.32.635,task,2021.1.4,Win32,60.0240096,628b806c463b948bc644b84f,629af8ecffac1b4a1e7bb01b,,,,,,,,,,,,,,,,,,,,,,,,,,,,,,,,,,,,,,,,,,,,,,,,,,,,,,,,,,,,,,,,,,,,,,,,,,,,,,,,,,,,,,,,,,,pngv,"[""p"",""n"",""g"",""v""]",0,"[1.8680000000001655,2.56899999999996,4.3680000000001655,5.2560000000000855,7.208000000000084]",1,PNGV,2,0,2,0,1,,
,,,,,,,,,,5f4f5fa9cb9a39000c600ad3,43,Mężczyzna,2022-06-04_08h17.32.635,task,2021.1.4,Win32,60.0240096,628b806c463b948bc644b84f,629af8ecffac1b4a1e7bb01b,,,,,,,,,,,,,,,,,,,,,,,0,,,,,,,,,,Task,8,(1x5) - 5,0,,,,,,,,,,,,,,,,,,1,,,,,,,,,,,,,,,,,,,,,,,,"[""0""]",1,[1.808999999999969],0,0,0,7,1,,,,,,,,,,,,,,,,,,
,,,,,,,,,,5f4f5fa9cb9a39000c600ad3,43,Mężczyzna,2022-06-04_08h17.32.635,task,2021.1.4,Win32,60.0240096,628b806c463b948bc644b84f,629af8ecffac1b4a1e7bb01b,,,,,,,,,,X V Q F H G B L J M P D K C T S W R N Z,,,,,,,,,,,,,,,,,,,,,,,,,,,,,,,,,,,,,,,,,,,,,,,,,,,,,,,,,,,,,,,,,,,,,,,,,,,,0,0,0,0,1,,,,,,,,,,,,,
,,,,,,,,,,5f4f5fa9cb9a39000c600ad3,43,Mężczyzna,2022-06-04_08h17.32.635,task,2021.1.4,Win32,60.0240096,628b806c463b948bc644b84f,629af8ecffac1b4a1e7bb01b,,,,,,,,,,,,,,,,,,,,,,,8,,,,,,,,,,Task,32,(8/2) + 4,8,,,,,,,,,,,,,,,,,,1,,,,,,,,,,,,,,,,,,,,,,,,"[""8""]",1,[2.61200000000008],0,0,0,31,1,,,,,,,,,,,,,,,,,,
,,,,,,,,,,5f4f5fa9cb9a39000c600ad3,43,Mężczyzna,2022-06-04_08h17.32.635,task,2021.1.4,Win32,60.0240096,628b806c463b948bc644b84f,629af8ecffac1b4a1e7bb01b,,,,,,,,,,X V Q F H G B L J M P D K C T S W R N Z,,,,,,,,,,,,,,,,,,,,,,,,,,,,,,,,,,,,,,,,,,,,,,,,,,,,,,,,,,,,,,,,,,,,,,,,,,,,1,0,1,0,1,,,,,,,,,,,,,
,,,,,,,,,,5f4f5fa9cb9a39000c600ad3,43,Mężczyzna,2022-06-04_08h17.32.635,task,2021.1.4,Win32,60.0240096,628b806c463b948bc644b84f,629af8ecffac1b4a1e7bb01b,,,,,,,,,,,,,,,,,,,,,,,3,,,,,,,,,,Task,20,(18/9) + 1,3,,,,,,,,,,,,,,,,,,1,,,,,,,,,,,,,,,,,,,,,,,,"[""3""]",1,[3.2259999999998854],0,0,0,19,1,,,,,,,,,,,,,,,,,,
,,,,,,,,,,5f4f5fa9cb9a39000c600ad3,43,Mężczyzna,2022-06-04_08h17.32.635,task,2021.1.4,Win32,60.0240096,628b806c463b948bc644b84f,629af8ecffac1b4a1e7bb01b,,,,,,,,,,X V Q F H G B L J M P D K C T S W R N Z,,,,,,,,,,,,,,,,,,,,,,,,,,,,,,,,,,,,,,,,,,,,,,,,,,,,,,,,,,,,,,,,,,,,,,,,,,,,2,0,2,0,1,,,,,,,,,,,,,
,,,,,,,,,,5f4f5fa9cb9a39000c600ad3,43,Mężczyzna,2022-06-04_08h17.32.635,task,2021.1.4,Win32,60.0240096,628b806c463b948bc644b84f,629af8ecffac1b4a1e7bb01b,,,,,,,,,,,,,,,,,,,,,,,9,,,,,,,,,,Task,40,(7x2) - 5,9,,,,,,,,,,,,,,,,,,1,,,,,,,,,,,,,,,,,,,,,,,,"[""9""]",1,[3.66599999999994],0,0,0,39,1,,,,,,,,,,,,,,,,,,
,,,,,,,,,,5f4f5fa9cb9a39000c600ad3,43,Mężczyzna,2022-06-04_08h17.32.635,task,2021.1.4,Win32,60.0240096,628b806c463b948bc644b84f,629af8ecffac1b4a1e7bb01b,,,,,,,,,,X V Q F H G B L J M P D K C T S W R N Z,,,,,,,,,,,,,,,,,,,,,,,,,,,,,,,,,,,,,,,,,,,,,,,,,,,,,,,,,,,,,,,,,,,,,,,,,,,,3,0,3,0,1,,,,,,,,,,,,,
,,,,,,,,,,5f4f5fa9cb9a39000c600ad3,43,Mężczyzna,2022-06-04_08h17.32.635,task,2021.1.4,Win32,60.0240096,628b806c463b948bc644b84f,629af8ecffac1b4a1e7bb01b,,,,,,,,,,,,,,,,,,,,,,,,,,,,,,,,,Task,12,(4x4) - 11,5,,,,,,,,,,,,,,,,,,0,,,,,,,,,,,,,,,,,,,,,,,,,0,,0,0,0,11,1,,,,,,,,,,,,,,,,,,
,,,,,,,,,,5f4f5fa9cb9a39000c600ad3,43,Mężczyzna,2022-06-04_08h17.32.635,task,2021.1.4,Win32,60.0240096,628b806c463b948bc644b84f,629af8ecffac1b4a1e7bb01b,,,,,,,,,,,,,,,,,,,,,,,3,,,,,,,,,,Task,25,(10/5) - 2,0,,,,,,,,,,,,,,,,,,0,,,,,,,,,,,,,,,,,,,,,,,,"[""3""]",0,[2.061000000000149],0,1,1,24,1,,,,,,,,,,,,,,,,,,
,,,,,,,,,,5f4f5fa9cb9a39000c600ad3,43,Mężczyzna,2022-06-04_08h17.32.635,task,2021.1.4,Win32,60.0240096,628b806c463b948bc644b84f,629af8ecffac1b4a1e7bb01b,,,,,,,,,,,,,,,,,,,,,,,2,,,,,,,,,,Task,2,(2x2) - 2,2,,,,,,,,,,,,,,,,,,1,,,,,,,,,,,,,,,,,,,,,,,,"[""2""]",1,[3.280999999999949],0,2,2,1,1,,,,,,,,,,,,,,,,,,
,,,,,,,,,,5f4f5fa9cb9a39000c600ad3,43,Mężczyzna,2022-06-04_08h17.32.635,task,2021.1.4,Win32,60.0240096,628b806c463b948bc644b84f,629af8ecffac1b4a1e7bb01b,,,,,,,,,,X V Q F H G B L J M P D K C T S W R N Z,,,,,,,,,,,,,,,,,,,,,,,,,,,,,,,,,,,,,,,,,,,,,,,,,,,,,,,,,,,,,,,,,,,,,,,,,,,,4,0,4,0,1,,,,,,,,,,,,,
,,,,,,,,,,5f4f5fa9cb9a39000c600ad3,43,Mężczyzna,2022-06-04_08h17.32.635,task,2021.1.4,Win32,60.0240096,628b806c463b948bc644b84f,629af8ecffac1b4a1e7bb01b,,,,,,,,,,,,,,,,,,,,,,,,,,,,,,,,,,,,,,,,,,,,,,,,,,,,,,,,,,,,,,,,,,,,,,,,,,,,,,,,,,,,,,,,,,,wwfjl,"[""w"",""w"",""f"",""j"",""l""]",0,"[3.3980000000001382,3.5650000000000546,6.611000000000104,8.706000000000131,9.060000000000173,11.389000000000124]",0,WWFHL,3,0,3,0,1,,
,,,,,,,,,,5f4f5fa9cb9a39000c600ad3,43,Mężczyzna,2022-06-04_08h17.32.635,task,2021.1.4,Win32,60.0240096,628b806c463b948bc644b84f,629af8ecffac1b4a1e7bb01b,,,,,,,,,,,,,,,,,,,,,,,1,,,,,,,,,,Task,1,(12/6) - 1,1,,,,,,,,,,,,,,,,,,1,,,,,,,,,,,,,,,,,,,,,,,,"[""1""]",1,[2.7170000000000982],0,0,0,0,1,,,,,,,,,,,,,,,,,,
,,,,,,,,,,5f4f5fa9cb9a39000c600ad3,43,Mężczyzna,2022-06-04_08h17.32.635,task,2021.1.4,Win32,60.0240096,628b806c463b948bc644b84f,629af8ecffac1b4a1e7bb01b,,,,,,,,,,X V Q F H G B L J M P D K C T S W R N Z,,,,,,,,,,,,,,,,,,,,,,,,,,,,,,,,,,,,,,,,,,,,,,,,,,,,,,,,,,,,,,,,,,,,,,,,,,,,0,0,0,0,1,,,,,,,,,,,,,
,,,,,,,,,,5f4f5fa9cb9a39000c600ad3,43,Mężczyzna,2022-06-04_08h17.32.635,task,2021.1.4,Win32,60.0240096,628b806c463b948bc644b84f,629af8ecffac1b4a1e7bb01b,,,,,,,,,,,,,,,,,,,,,,,4,,,,,,,,,,Task,4,(1x5) - 1,4,,,,,,,,,,,,,,,,,,1,,,,,,,,,,,,,,,,,,,,,,,,"[""4""]",1,[2.3279999999999745],0,0,0,3,1,,,,,,,,,,,,,,,,,,
,,,,,,,,,,5f4f5fa9cb9a39000c600ad3,43,Mężczyzna,2022-06-04_08h17.32.635,task,2021.1.4,Win32,60.0240096,628b806c463b948bc644b84f,629af8ecffac1b4a1e7bb01b,,,,,,,,,,X V Q F H G B L J M P D K C T S W R N Z,,,,,,,,,,,,,,,,,,,,,,,,,,,,,,,,,,,,,,,,,,,,,,,,,,,,,,,,,,,,,,,,,,,,,,,,,,,,1,0,1,0,1,,,,,,,,,,,,,
,,,,,,,,,,5f4f5fa9cb9a39000c600ad3,43,Mężczyzna,2022-06-04_08h17.32.635,task,2021.1.4,Win32,60.0240096,628b806c463b948bc644b84f,629af8ecffac1b4a1e7bb01b,,,,,,,,,,,,,,,,,,,,,,,,,,,,,,,,,Task,3,(2x3) - 3,3,,,,,,,,,,,,,,,,,,0,,,,,,,,,,,,,,,,,,,,,,,,,0,,0,0,0,2,1,,,,,,,,,,,,,,,,,,
,,,,,,,,,,5f4f5fa9cb9a39000c600ad3,43,Mężczyzna,2022-06-04_08h17.32.635,task,2021.1.4,Win32,60.0240096,628b806c463b948bc644b84f,629af8ecffac1b4a1e7bb01b,,,,,,,,,,,,,,,,,,,,,,,1,,,,,,,,,,Task,9,(3x7) - 20,1,,,,,,,,,,,,,,,,,,1,,,,,,,,,,,,,,,,,,,,,,,,"[""1""]",1,[2.078999999999951],0,1,1,8,1,,,,,,,,,,,,,,,,,,
,,,,,,,,,,5f4f5fa9cb9a39000c600ad3,43,Mężczyzna,2022-06-04_08h17.32.635,task,2021.1.4,Win32,60.0240096,628b806c463b948bc644b84f,629af8ecffac1b4a1e7bb01b,,,,,,,,,,X V Q F H G B L J M P D K C T S W R N Z,,,,,,,,,,,,,,,,,,,,,,,,,,,,,,,,,,,,,,,,,,,,,,,,,,,,,,,,,,,,,,,,,,,,,,,,,,,,2,0,2,0,1,,,,,,,,,,,,,
,,,,,,,,,,5f4f5fa9cb9a39000c600ad3,43,Mężczyzna,2022-06-04_08h17.32.635,task,2021.1.4,Win32,60.0240096,628b806c463b948bc644b84f,629af8ecffac1b4a1e7bb01b,,,,,,,,,,,,,,,,,,,,,,,,,,,,,,,,,Task,15,(3x7) - 13,8,,,,,,,,,,,,,,,,,,0,,,,,,,,,,,,,,,,,,,,,,,,,0,,0,0,0,14,1,,,,,,,,,,,,,,,,,,
,,,,,,,,,,5f4f5fa9cb9a39000c600ad3,43,Mężczyzna,2022-06-04_08h17.32.635,task,2021.1.4,Win32,60.0240096,628b806c463b948bc644b84f,629af8ecffac1b4a1e7bb01b,,,,,,,,,,,,,,,,,,,,,,,9,,,,,,,,,,Task,7,(3x7) - 12,9,,,,,,,,,,,,,,,,,,1,,,,,,,,,,,,,,,,,,,,,,,,"[""9""]",1,[4.04099999999994],0,1,1,6,1,,,,,,,,,,,,,,,,,,
,,,,,,,,,,5f4f5fa9cb9a39000c600ad3,43,Mężczyzna,2022-06-04_08h17.32.635,task,2021.1.4,Win32,60.0240096,628b806c463b948bc644b84f,629af8ecffac1b4a1e7bb01b,,,,,,,,,,X V Q F H G B L J M P D K C T S W R N Z,,,,,,,,,,,,,,,,,,,,,,,,,,,,,,,,,,,,,,,,,,,,,,,,,,,,,,,,,,,,,,,,,,,,,,,,,,,,3,0,3,0,1,,,,,,,,,,,,,
,,,,,,,,,,5f4f5fa9cb9a39000c600ad3,43,Mężczyzna,2022-06-04_08h17.32.635,task,2021.1.4,Win32,60.0240096,628b806c463b948bc644b84f,629af8ecffac1b4a1e7bb01b,,,,,,,,,,,,,,,,,,,,,,,9,,,,,,,,,,Task,7,(3x7) - 12,9,,,,,,,,,,,,,,,,,,1,,,,,,,,,,,,,,,,,,,,,,,,"[""9""]",1,[3.5160000000000764],0,0,0,6,1,,,,,,,,,,,,,,,,,,
,,,,,,,,,,5f4f5fa9cb9a39000c600ad3,43,Mężczyzna,2022-06-04_08h17.32.635,task,2021.1.4,Win32,60.0240096,628b806c463b948bc644b84f,629af8ecffac1b4a1e7bb01b,,,,,,,,,,X V Q F H G B L J M P D K C T S W R N Z,,,,,,,,,,,,,,,,,,,,,,,,,,,,,,,,,,,,,,,,,,,,,,,,,,,,,,,,,,,,,,,,,,,,,,,,,,,,4,0,4,0,1,,,,,,,,,,,,,
,,,,,,,,,,5f4f5fa9cb9a39000c600ad3,43,Mężczyzna,2022-06-04_08h17.32.635,task,2021.1.4,Win32,60.0240096,628b806c463b948bc644b84f,629af8ecffac1b4a1e7bb01b,,,,,,,,,,,,,,,,,,,,,,,,,,,,,,,,,,,,,,,,,,,,,,,,,,,,,,,,,,,,,,,,,,,,,,,,,,,,,,,,,,,,,,,,,,,mdsjj,"[""m"",""d"",""s"",""j"",""j""]",0,"[2.7189999999998236,3.8079999999999927,4.4099999999998545,5.52800000000002,5.673999999999978,6.857999999999947]",1,MDSJJ,4,0,4,0,1,,
,,,,,,,,,,5f4f5fa9cb9a39000c600ad3,43,Mężczyzna,2022-06-04_08h17.32.635,task,2021.1.4,Win32,60.0240096,628b806c463b948bc644b84f,629af8ecffac1b4a1e7bb01b,,,,,,,,,,,,,,,,,,,,,,,8,,,,,,,,,,Task,15,(3x7) - 13,8,,,,,,,,,,,,,,,,,,1,,,,,,,,,,,,,,,,,,,,,,,,"[""8""]",1,[3.1849999999999454],0,0,0,14,1,,,,,,,,,,,,,,,,,,
,,,,,,,,,,5f4f5fa9cb9a39000c600ad3,43,Mężczyzna,2022-06-04_08h17.32.635,task,2021.1.4,Win32,60.0240096,628b806c463b948bc644b84f,629af8ecffac1b4a1e7bb01b,,,,,,,,,,X V Q F H G B L J M P D K C T S W R N Z,,,,,,,,,,,,,,,,,,,,,,,,,,,,,,,,,,,,,,,,,,,,,,,,,,,,,,,,,,,,,,,,,,,,,,,,,,,,0,0,0,0,1,,,,,,,,,,,,,
,,,,,,,,,,5f4f5fa9cb9a39000c600ad3,43,Mężczyzna,2022-06-04_08h17.32.635,task,2021.1.4,Win32,60.0240096,628b806c463b948bc644b84f,629af8ecffac1b4a1e7bb01b,,,,,,,,,,,,,,,,,,,,,,,2,,,,,,,,,,Task,29,(3x8) - 19 ,5,,,,,,,,,,,,,,,,,,0,,,,,,,,,,,,,,,,,,,,,,,,"[""2""]",0,[1.7960000000000491],0,0,0,28,1,,,,,,,,,,,,,,,,,,
,,,,,,,,,,5f4f5fa9cb9a39000c600ad3,43,Mężczyzna,2022-06-04_08h17.32.635,task,2021.1.4,Win32,60.0240096,628b806c463b948bc644b84f,629af8ecffac1b4a1e7bb01b,,,,,,,,,,,,,,,,,,,,,,,0,,,,,,,,,,Task,25,(10/5) - 2,0,,,,,,,,,,,,,,,,,,1,,,,,,,,,,,,,,,,,,,,,,,,"[""0""]",1,[3.2950000000000728],0,1,1,24,1,,,,,,,,,,,,,,,,,,
,,,,,,,,,,5f4f5fa9cb9a39000c600ad3,43,Mężczyzna,2022-06-04_08h17.32.635,task,2021.1.4,Win32,60.0240096,628b806c463b948bc644b84f,629af8ecffac1b4a1e7bb01b,,,,,,,,,,X V Q F H G B L J M P D K C T S W R N Z,,,,,,,,,,,,,,,,,,,,,,,,,,,,,,,,,,,,,,,,,,,,,,,,,,,,,,,,,,,,,,,,,,,,,,,,,,,,1,0,1,0,1,,,,,,,,,,,,,
,,,,,,,,,,5f4f5fa9cb9a39000c600ad3,43,Mężczyzna,2022-06-04_08h17.32.635,task,2021.1.4,Win32,60.0240096,628b806c463b948bc644b84f,629af8ecffac1b4a1e7bb01b,,,,,,,,,,,,,,,,,,,,,,,8,,,,,,,,,,Task,32,(8/2) + 4,8,,,,,,,,,,,,,,,,,,1,,,,,,,,,,,,,,,,,,,,,,,,"[""8""]",1,[2.035999999999831],0,0,0,31,1,,,,,,,,,,,,,,,,,,
,,,,,,,,,,5f4f5fa9cb9a39000c600ad3,43,Mężczyzna,2022-06-04_08h17.32.635,task,2021.1.4,Win32,60.0240096,628b806c463b948bc644b84f,629af8ecffac1b4a1e7bb01b,,,,,,,,,,X V Q F H G B L J M P D K C T S W R N Z,,,,,,,,,,,,,,,,,,,,,,,,,,,,,,,,,,,,,,,,,,,,,,,,,,,,,,,,,,,,,,,,,,,,,,,,,,,,2,0,2,0,1,,,,,,,,,,,,,
,,,,,,,,,,5f4f5fa9cb9a39000c600ad3,43,Mężczyzna,2022-06-04_08h17.32.635,task,2021.1.4,Win32,60.0240096,628b806c463b948bc644b84f,629af8ecffac1b4a1e7bb01b,,,,,,,,,,,,,,,,,,,,,,,2,,,,,,,,,,Task,26,(2x9) - 16,2,,,,,,,,,,,,,,,,,,1,,,,,,,,,,,,,,,,,,,,,,,,"[""2""]",1,[2.1749999999999545],0,0,0,25,1,,,,,,,,,,,,,,,,,,
,,,,,,,,,,5f4f5fa9cb9a39000c600ad3,43,Mężczyzna,2022-06-04_08h17.32.635,task,2021.1.4,Win32,60.0240096,628b806c463b948bc644b84f,629af8ecffac1b4a1e7bb01b,,,,,,,,,,X V Q F H G B L J M P D K C T S W R N Z,,,,,,,,,,,,,,,,,,,,,,,,,,,,,,,,,,,,,,,,,,,,,,,,,,,,,,,,,,,,,,,,,,,,,,,,,,,,3,0,3,0,1,,,,,,,,,,,,,
,,,,,,,,,,5f4f5fa9cb9a39000c600ad3,43,Mężczyzna,2022-06-04_08h17.32.635,task,2021.1.4,Win32,60.0240096,628b806c463b948bc644b84f,629af8ecffac1b4a1e7bb01b,,,,,,,,,,,,,,,,,,,,,,,,,,,,,,,,,Task,15,(3x7) - 13,8,,,,,,,,,,,,,,,,,,0,,,,,,,,,,,,,,,,,,,,,,,,,0,,0,0,0,14,1,,,,,,,,,,,,,,,,,,
,,,,,,,,,,5f4f5fa9cb9a39000c600ad3,43,Mężczyzna,2022-06-04_08h17.32.635,task,2021.1.4,Win32,60.0240096,628b806c463b948bc644b84f,629af8ecffac1b4a1e7bb01b,,,,,,,,,,,,,,,,,,,,,,,4,,,,,,,,,,Task,21,(10/2) - 1,4,,,,,,,,,,,,,,,,,,1,,,,,,,,,,,,,,,,,,,,,,,,"[""4""]",1,[2.7829999999999018],0,1,1,20,1,,,,,,,,,,,,,,,,,,
,,,,,,,,,,5f4f5fa9cb9a39000c600ad3,43,Mężczyzna,2022-06-04_08h17.32.635,task,2021.1.4,Win32,60.0240096,628b806c463b948bc644b84f,629af8ecffac1b4a1e7bb01b,,,,,,,,,,X V Q F H G B L J M P D K C T S W R N Z,,,,,,,,,,,,,,,,,,,,,,,,,,,,,,,,,,,,,,,,,,,,,,,,,,,,,,,,,,,,,,,,,,,,,,,,,,,,4,0,4,0,1,,,,,,,,,,,,,
,,,,,,,,,,5f4f5fa9cb9a39000c600ad3,43,Mężczyzna,2022-06-04_08h17.32.635,task,2021.1.4,Win32,60.0240096,628b806c463b948bc644b84f,629af8ecffac1b4a1e7bb01b,,,,,,,,,,,,,,,,,,,,,,,2,,,,,,,,,,Task,26,(2x9) - 16,2,,,,,,,,,,,,,,,,,,1,,,,,,,,,,,,,,,,,,,,,,,,"[""2""]",1,[2.02599999999984],0,0,0,25,1,,,,,,,,,,,,,,,,,,
,,,,,,,,,,5f4f5fa9cb9a39000c600ad3,43,Mężczyzna,2022-06-04_08h17.32.635,task,2021.1.4,Win32,60.0240096,628b806c463b948bc644b84f,629af8ecffac1b4a1e7bb01b,,,,,,,,,,X V Q F H G B L J M P D K C T S W R N Z,,,,,,,,,,,,,,,,,,,,,,,,,,,,,,,,,,,,,,,,,,,,,,,,,,,,,,,,,,,,,,,,,,,,,,,,,,,,5,0,5,0,1,,,,,,,,,,,,,
,,,,,,,,,,5f4f5fa9cb9a39000c600ad3,43,Mężczyzna,2022-06-04_08h17.32.635,task,2021.1.4,Win32,60.0240096,628b806c463b948bc644b84f,629af8ecffac1b4a1e7bb01b,,,,,,,,,,,,,,,,,,,,,,,,,,,,,,,,,,,,,,,,,,,,,,,,,,,,,,,,,,,,,,,,,,,,,,,,,,,,,,,,,,,,,,,,,,,wxznxj,"[""w"",""x"",""z"",""n"",""x"",""j""]",0,"[3.5470000000000255,4.766000000000076,7.567000000000007,9.013999999999896,12.538000000000011,13.08199999999988,17.32199999999989]",0,WZHNXJ,5,0,5,0,1,,
,,,,,,,,,,5f4f5fa9cb9a39000c600ad3,43,Mężczyzna,2022-06-04_08h17.32.635,task,2021.1.4,Win32,60.0240096,628b806c463b948bc644b84f,629af8ecffac1b4a1e7bb01b,,,,,,,,,,,,,,,,,,,,,,,8,,,,,,,,,,Task,15,(3x7) - 13,8,,,,,,,,,,,,,,,,,,1,,,,,,,,,,,,,,,,,,,,,,,,"[""8""]",1,[1.9890000000000327],0,0,0,14,1,,,,,,,,,,,,,,,,,,
,,,,,,,,,,5f4f5fa9cb9a39000c600ad3,43,Mężczyzna,2022-06-04_08h17.32.635,task,2021.1.4,Win32,60.0240096,628b806c463b948bc644b84f,629af8ecffac1b4a1e7bb01b,,,,,,,,,,X V Q F H G B L J M P D K C T S W R N Z,,,,,,,,,,,,,,,,,,,,,,,,,,,,,,,,,,,,,,,,,,,,,,,,,,,,,,,,,,,,,,,,,,,,,,,,,,,,0,0,0,0,1,,,,,,,,,,,,,
,,,,,,,,,,5f4f5fa9cb9a39000c600ad3,43,Mężczyzna,2022-06-04_08h17.32.635,task,2021.1.4,Win32,60.0240096,628b806c463b948bc644b84f,629af8ecffac1b4a1e7bb01b,,,,,,,,,,,,,,,,,,,,,,,3,,,,,,,,,,Task,3,(2x3) - 3,3,,,,,,,,,,,,,,,,,,1,,,,,,,,,,,,,,,,,,,,,,,,"[""3""]",1,[2.2829999999999018],0,0,0,2,1,,,,,,,,,,,,,,,,,,
,,,,,,,,,,5f4f5fa9cb9a39000c600ad3,43,Mężczyzna,2022-06-04_08h17.32.635,task,2021.1.4,Win32,60.0240096,628b806c463b948bc644b84f,629af8ecffac1b4a1e7bb01b,,,,,,,,,,X V Q F H G B L J M P D K C T S W R N Z,,,,,,,,,,,,,,,,,,,,,,,,,,,,,,,,,,,,,,,,,,,,,,,,,,,,,,,,,,,,,,,,,,,,,,,,,,,,1,0,1,0,1,,,,,,,,,,,,,
,,,,,,,,,,5f4f5fa9cb9a39000c600ad3,43,Mężczyzna,2022-06-04_08h17.32.635,task,2021.1.4,Win32,60.0240096,628b806c463b948bc644b84f,629af8ecffac1b4a1e7bb01b,,,,,,,,,,,,,,,,,,,,,,,9,,,,,,,,,,Task,7,(3x7) - 12,9,,,,,,,,,,,,,,,,,,1,,,,,,,,,,,,,,,,,,,,,,,,"[""9""]",1,[2.808999999999969],0,0,0,6,1,,,,,,,,,,,,,,,,,,
,,,,,,,,,,5f4f5fa9cb9a39000c600ad3,43,Mężczyzna,2022-06-04_08h17.32.635,task,2021.1.4,Win32,60.0240096,628b806c463b948bc644b84f,629af8ecffac1b4a1e7bb01b,,,,,,,,,,X V Q F H G B L J M P D K C T S W R N Z,,,,,,,,,,,,,,,,,,,,,,,,,,,,,,,,,,,,,,,,,,,,,,,,,,,,,,,,,,,,,,,,,,,,,,,,,,,,2,0,2,0,1,,,,,,,,,,,,,
,,,,,,,,,,5f4f5fa9cb9a39000c600ad3,43,Mężczyzna,2022-06-04_08h17.32.635,task,2021.1.4,Win32,60.0240096,628b806c463b948bc644b84f,629af8ecffac1b4a1e7bb01b,,,,,,,,,,,,,,,,,,,,,,,6,,,,,,,,,,Task,37,(3/3) + 5,6,,,,,,,,,,,,,,,,,,1,,,,,,,,,,,,,,,,,,,,,,,,"[""6""]",1,[3.2799999999999727],0,0,0,36,1,,,,,,,,,,,,,,,,,,
,,,,,,,,,,5f4f5fa9cb9a39000c600ad3,43,Mężczyzna,2022-06-04_08h17.32.635,task,2021.1.4,Win32,60.0240096,628b806c463b948bc644b84f,629af8ecffac1b4a1e7bb01b,,,,,,,,,,X V Q F H G B L J M P D K C T S W R N Z,,,,,,,,,,,,,,,,,,,,,,,,,,,,,,,,,,,,,,,,,,,,,,,,,,,,,,,,,,,,,,,,,,,,,,,,,,,,3,0,3,0,1,,,,,,,,,,,,,
,,,,,,,,,,5f4f5fa9cb9a39000c600ad3,43,Mężczyzna,2022-06-04_08h17.32.635,task,2021.1.4,Win32,60.0240096,628b806c463b948bc644b84f,629af8ecffac1b4a1e7bb01b,,,,,,,,,,,,,,,,,,,,,,,0,,,,,,,,,,Task,17,(2x3) - 6,0,,,,,,,,,,,,,,,,,,1,,,,,,,,,,,,,,,,,,,,,,,,"[""0""]",1,[1.6739999999999782],0,0,0,16,1,,,,,,,,,,,,,,,,,,
,,,,,,,,,,5f4f5fa9cb9a39000c600ad3,43,Mężczyzna,2022-06-04_08h17.32.635,task,2021.1.4,Win32,60.0240096,628b806c463b948bc644b84f,629af8ecffac1b4a1e7bb01b,,,,,,,,,,X V Q F H G B L J M P D K C T S W R N Z,,,,,,,,,,,,,,,,,,,,,,,,,,,,,,,,,,,,,,,,,,,,,,,,,,,,,,,,,,,,,,,,,,,,,,,,,,,,4,0,4,0,1,,,,,,,,,,,,,
,,,,,,,,,,5f4f5fa9cb9a39000c600ad3,43,Mężczyzna,2022-06-04_08h17.32.635,task,2021.1.4,Win32,60.0240096,628b806c463b948bc644b84f,629af8ecffac1b4a1e7bb01b,,,,,,,,,,,,,,,,,,,,,,,9,,,,,,,,,,Task,24,(2x2) + 5,9,,,,,,,,,,,,,,,,,,1,,,,,,,,,,,,,,,,,,,,,,,,"[""9""]",1,[2.4320000000000164],0,0,0,23,1,,,,,,,,,,,,,,,,,,
,,,,,,,,,,5f4f5fa9cb9a39000c600ad3,43,Mężczyzna,2022-06-04_08h17.32.635,task,2021.1.4,Win32,60.0240096,628b806c463b948bc644b84f,629af8ecffac1b4a1e7bb01b,,,,,,,,,,X V Q F H G B L J M P D K C T S W R N Z,,,,,,,,,,,,,,,,,,,,,,,,,,,,,,,,,,,,,,,,,,,,,,,,,,,,,,,,,,,,,,,,,,,,,,,,,,,,5,0,5,0,1,,,,,,,,,,,,,
,,,,,,,,,,5f4f5fa9cb9a39000c600ad3,43,Mężczyzna,2022-06-04_08h17.32.635,task,2021.1.4,Win32,60.0240096,628b806c463b948bc644b84f,629af8ecffac1b4a1e7bb01b,,,,,,,,,,,,,,,,,,,,,,,,,,,,,,,,,,,,,,,,,,,,,,,,,,,,,,,,,,,,,,,,,,,,,,,,,,,,,,,,,,,,,,,,,,,vhmzb,"[""v"",""h"",""m"",""z"",""b""]",0,"[10.399999999999864,12.125999999999976,12.750999999999976,13.544999999999845,14.704999999999927,19.26299999999992]",0,VHWMZB,6,0,6,0,1,,
,,,,,,,,,,5f4f5fa9cb9a39000c600ad3,43,Mężczyzna,2022-06-04_08h17.32.635,task,2021.1.4,Win32,60.0240096,628b806c463b948bc644b84f,629af8ecffac1b4a1e7bb01b,,,,,,,,,,,,,,,,,,,,,,,,,,,,,,,,,,,,,,,,,,,,,,,,,,,,,,,,,,,,,,,,,,,,,,,,,,,,,,,,,,,,,,,,,,,,,,,,,,,,,,space,3.414
